Version	Date	Stimuli	Method	Subject	Session	Condition	Trial	Target	TColor	TShape	DColor	DShape	Distractors	Channel1	Channel2	LMouseButton	RMouseButton	RT	TargetX	TargetY	ResponseX	ResponseY	Correct
3.0.1	2019_Mar_08_1557	s	s	10	2	Capacity	1	4_1	4	1	1	1	23_1_1	3	0	1	0	0.411357164383	-267.0	-224.0	-258.0	-221.0	1
3.0.1	2019_Mar_08_1557	s	s	10	2	Capacity	2	ABS	0	0	3	1	24_3_1	NA	NA	0	1	2.01836800575	None	None	None	None	1
3.0.1	2019_Mar_08_1557	s	s	10	2	Capacity	3	ABS	0	0	4	1	24_4_1	NA	NA	0	1	2.3045809269	None	None	None	None	1
3.0.1	2019_Mar_08_1557	s	s	10	2	Capacity	4	2_1	2	1	3	1	23_3_1	1	0	1	0	0.540374040604	429.0	89.0	436.0	91.0	1
3.0.1	2019_Mar_08_1557	s	s	10	2	Capacity	5	3_1	3	1	4	1	23_4_1	-1	0	1	0	0.505425930023	330.0	-201.0	338.0	-205.0	1
3.0.1	2019_Mar_08_1557	s	s	10	2	Capacity	6	ABS	0	0	4	1	24_4_1	NA	NA	0	1	5.05659198761	None	None	None	None	1
3.0.1	2019_Mar_08_1557	s	s	10	2	Capacity	7	1_1	1	1	4	1	23_4_1	3	0	1	0	0.411012887955	-486.0	-122.0	-493.0	-122.0	1
3.0.1	2019_Mar_08_1557	s	s	10	2	Capacity	8	4_1	4	1	3	1	23_3_1	1	0	1	0	0.427885055542	382.0	-231.0	387.0	-225.0	1
3.0.1	2019_Mar_08_1557	s	s	10	2	Capacity	9	1_1	1	1	3	1	23_3_1	2	0	1	0	0.393612861633	-445.0	32.0	-453.0	28.0	1
3.0.1	2019_Mar_08_1557	s	s	10	2	Capacity	10	4_1	4	1	2	1	23_2_1	2	0	1	0	0.366765022278	106.0	-163.0	118.0	-159.0	1
3.0.1	2019_Mar_08_1557	s	s	10	2	Capacity	11	3_1	3	1	2	1	23_2_1	1	0	1	0	0.446218967438	-113.0	161.0	-118.0	157.0	1
3.0.1	2019_Mar_08_1557	s	s	10	2	Capacity	12	ABS	0	0	2	1	24_2_1	NA	NA	0	1	3.52756905556	None	None	None	None	1
3.0.1	2019_Mar_08_1557	s	s	10	2	Capacity	13	ABS	0	0	1	1	24_1_1	NA	NA	0	1	4.15700912476	None	None	None	None	1
3.0.1	2019_Mar_08_1557	s	s	10	2	Capacity	14	2_1	2	1	4	1	23_4_1	2	0	1	0	0.378983020782	-38.0	-152.0	-31.0	-147.0	1
3.0.1	2019_Mar_08_1557	s	s	10	2	Capacity	15	1_1	1	1	2	1	23_2_1	1	0	1	0	2.12807488441	-528.0	-378.0	-533.0	-379.0	1
3.0.1	2019_Mar_08_1557	s	s	10	2	Capacity	16	ABS	0	0	4	1	24_4_1	NA	NA	0	1	3.96922516823	None	None	None	None	1
3.0.1	2019_Mar_08_1557	s	s	10	2	Capacity	17	ABS	0	0	3	1	24_3_1	NA	NA	0	1	3.56625199318	None	None	None	None	1
3.0.1	2019_Mar_08_1557	s	s	10	2	Capacity	18	ABS	0	0	3	1	24_3_1	NA	NA	0	1	4.56278991699	None	None	None	None	1
3.0.1	2019_Mar_08_1557	s	s	10	2	Capacity	19	2_1	2	1	1	1	23_1_1	-1	0	0	1	3.78921985626	104.0	405.0	None	None	0
3.0.1	2019_Mar_08_1557	s	s	10	2	Capacity	20	ABS	0	0	1	1	24_1_1	NA	NA	0	1	4.63325595856	None	None	None	None	1
3.0.1	2019_Mar_08_1557	s	s	10	2	Capacity	21	ABS	0	0	1	1	24_1_1	NA	NA	0	1	4.50379800797	None	None	None	None	1
3.0.1	2019_Mar_08_1557	s	s	10	2	Capacity	22	ABS	0	0	2	1	24_2_1	NA	NA	0	1	5.15070104599	None	None	None	None	1
3.0.1	2019_Mar_08_1557	s	s	10	2	Capacity	23	ABS	0	0	2	1	24_2_1	NA	NA	0	1	7.33823394775	None	None	None	None	1
3.0.1	2019_Mar_08_1557	s	s	10	2	Capacity	24	3_1	3	1	1	1	23_1_1	2	0	1	0	0.678442001343	78.0	398.0	83.0	395.0	1
3.0.1	2019_Mar_08_1557	s	s	10	2	Capacity	25	1_1	1	1	4	1	23_4_1	3	0	1	0	0.378626823425	-79.0	42.0	-78.0	40.0	1
3.0.1	2019_Mar_08_1557	s	s	10	2	Capacity	26	ABS	0	0	3	1	24_3_1	NA	NA	0	1	7.22061514854	None	None	None	None	1
3.0.1	2019_Mar_08_1557	s	s	10	2	Capacity	27	4_1	4	1	1	1	23_1_1	3	0	1	0	0.422714948654	-73.0	-366.0	-67.0	-366.0	1
3.0.1	2019_Mar_08_1557	s	s	10	2	Capacity	28	3_1	3	1	4	1	23_4_1	-1	0	1	0	0.463165044785	347.0	-12.0	341.0	-15.0	1
3.0.1	2019_Mar_08_1557	s	s	10	2	Capacity	29	4_1	4	1	2	1	23_2_1	2	0	1	0	0.364356040955	475.0	-132.0	482.0	-128.0	1
3.0.1	2019_Mar_08_1557	s	s	10	2	Capacity	30	ABS	0	0	4	1	24_4_1	NA	NA	0	1	3.67889213562	None	None	None	None	1
3.0.1	2019_Mar_08_1557	s	s	10	2	Capacity	31	4_1	4	1	3	1	23_3_1	1	0	1	0	0.411069869995	-220.0	4.0	-211.0	5.0	1
3.0.1	2019_Mar_08_1557	s	s	10	2	Capacity	32	ABS	0	0	1	1	24_1_1	NA	NA	0	1	4.14983797073	None	None	None	None	1
3.0.1	2019_Mar_08_1557	s	s	10	2	Capacity	33	ABS	0	0	4	1	24_4_1	NA	NA	0	1	2.3779900074	None	None	None	None	1
3.0.1	2019_Mar_08_1557	s	s	10	2	Capacity	34	2_1	2	1	4	1	23_4_1	2	0	1	0	0.423149108887	-349.0	-201.0	-346.0	-212.0	1
3.0.1	2019_Mar_08_1557	s	s	10	2	Capacity	35	3_1	3	1	1	1	23_1_1	2	0	1	0	0.620005130768	-7.0	-178.0	-3.0	-177.0	1
3.0.1	2019_Mar_08_1557	s	s	10	2	Capacity	36	ABS	0	0	1	1	24_1_1	NA	NA	0	1	3.70780396461	None	None	None	None	1
3.0.1	2019_Mar_08_1557	s	s	10	2	Capacity	37	3_1	3	1	2	1	23_2_1	1	0	1	0	0.458019018173	-195.0	258.0	-198.0	261.0	1
3.0.1	2019_Mar_08_1557	s	s	10	2	Capacity	38	ABS	0	0	3	1	24_3_1	NA	NA	0	1	3.90691280365	None	None	None	None	1
3.0.1	2019_Mar_08_1557	s	s	10	2	Capacity	39	1_1	1	1	2	1	23_2_1	1	0	0	1	4.10398411751	-391.0	90.0	None	None	0
3.0.1	2019_Mar_08_1557	s	s	10	2	Capacity	40	ABS	0	0	2	1	24_2_1	NA	NA	0	1	3.3042371273	None	None	None	None	1
3.0.1	2019_Mar_08_1557	s	s	10	2	Capacity	41	ABS	0	0	2	1	24_2_1	NA	NA	0	1	3.35123705864	None	None	None	None	1
3.0.1	2019_Mar_08_1557	s	s	10	2	Capacity	42	1_1	1	1	3	1	23_3_1	2	0	1	0	0.457988977432	256.0	397.0	256.0	393.0	1
3.0.1	2019_Mar_08_1557	s	s	10	2	Capacity	43	2_1	2	1	3	1	23_3_1	1	0	1	0	0.613850831985	-391.0	209.0	-397.0	209.0	1
3.0.1	2019_Mar_08_1557	s	s	10	2	Capacity	44	ABS	0	0	3	1	24_3_1	NA	NA	0	1	2.31615614891	None	None	None	None	1
3.0.1	2019_Mar_08_1557	s	s	10	2	Capacity	45	ABS	0	0	2	1	24_2_1	NA	NA	0	1	2.84835100174	None	None	None	None	1
3.0.1	2019_Mar_08_1557	s	s	10	2	Capacity	46	ABS	0	0	1	1	24_1_1	NA	NA	0	1	4.65961694717	None	None	None	None	1
3.0.1	2019_Mar_08_1557	s	s	10	2	Capacity	47	2_1	2	1	1	1	23_1_1	-1	0	1	0	5.39756608009	507.0	203.0	511.0	207.0	1
3.0.1	2019_Mar_08_1557	s	s	10	2	Capacity	48	ABS	0	0	4	1	24_4_1	NA	NA	0	1	4.35091400146	None	None	None	None	1
3.0.1	2019_Mar_08_1557	s	s	10	2	Capacity	49	3_1	3	1	1	1	23_1_1	2	0	1	0	0.410999059677	29.0	130.0	31.0	118.0	1
3.0.1	2019_Mar_08_1557	s	s	10	2	Capacity	50	ABS	0	0	2	1	24_2_1	NA	NA	0	1	4.02449893951	None	None	None	None	1
3.0.1	2019_Mar_08_1557	s	s	10	2	Capacity	51	1_1	1	1	3	1	23_3_1	2	0	1	0	0.476613044739	-46.0	-170.0	-36.0	-163.0	1
3.0.1	2019_Mar_08_1557	s	s	10	2	Capacity	52	ABS	0	0	1	1	24_1_1	NA	NA	0	1	4.22153401375	None	None	None	None	1
3.0.1	2019_Mar_08_1557	s	s	10	2	Capacity	53	ABS	0	0	4	1	24_4_1	NA	NA	0	1	2.96320009232	None	None	None	None	1
3.0.1	2019_Mar_08_1557	s	s	10	2	Capacity	54	4_1	4	1	2	1	23_2_1	2	0	1	0	0.458039045334	539.0	238.0	550.0	246.0	1
3.0.1	2019_Mar_08_1557	s	s	10	2	Capacity	55	3_1	3	1	2	1	23_2_1	1	0	1	0	0.422768831253	155.0	164.0	149.0	167.0	1
3.0.1	2019_Mar_08_1557	s	s	10	2	Capacity	56	ABS	0	0	3	1	24_3_1	NA	NA	0	1	2.83867192268	None	None	None	None	1
3.0.1	2019_Mar_08_1557	s	s	10	2	Capacity	57	ABS	0	0	4	1	24_4_1	NA	NA	0	1	1.50987482071	None	None	None	None	1
3.0.1	2019_Mar_08_1557	s	s	10	2	Capacity	58	ABS	0	0	1	1	24_1_1	NA	NA	0	1	3.80327606201	None	None	None	None	1
3.0.1	2019_Mar_08_1557	s	s	10	2	Capacity	59	ABS	0	0	2	1	24_2_1	NA	NA	0	1	5.31866717339	None	None	None	None	1
3.0.1	2019_Mar_08_1557	s	s	10	2	Capacity	60	3_1	3	1	4	1	23_4_1	-1	0	1	0	0.416030168533	365.0	-113.0	368.0	-112.0	1
3.0.1	2019_Mar_08_1557	s	s	10	2	Capacity	61	ABS	0	0	1	1	24_1_1	NA	NA	0	1	2.90721583366	None	None	None	None	1
3.0.1	2019_Mar_08_1557	s	s	10	2	Capacity	62	4_1	4	1	1	1	23_1_1	3	0	1	0	0.470337152481	-262.0	-346.0	-267.0	-356.0	1
3.0.1	2019_Mar_08_1557	s	s	10	2	Capacity	63	ABS	0	0	3	1	24_3_1	NA	NA	0	1	2.79583692551	None	None	None	None	1
3.0.1	2019_Mar_08_1557	s	s	10	2	Capacity	64	2_1	2	1	3	1	23_3_1	1	0	1	0	0.416129112244	126.0	47.0	135.0	45.0	1
3.0.1	2019_Mar_08_1557	s	s	10	2	Capacity	65	1_1	1	1	4	1	23_4_1	3	0	1	0	0.387447118759	260.0	33.0	265.0	34.0	1
3.0.1	2019_Mar_08_1557	s	s	10	2	Capacity	66	2_1	2	1	1	1	23_1_1	-1	0	1	0	2.07400488853	-352.0	336.0	-361.0	339.0	1
3.0.1	2019_Mar_08_1557	s	s	10	2	Capacity	67	1_1	1	1	2	1	23_2_1	1	0	1	0	0.955823898315	221.0	72.0	218.0	67.0	1
3.0.1	2019_Mar_08_1557	s	s	10	2	Capacity	68	ABS	0	0	4	1	24_4_1	NA	NA	0	1	4.63320803642	None	None	None	None	1
3.0.1	2019_Mar_08_1557	s	s	10	2	Capacity	69	ABS	0	0	2	1	24_2_1	NA	NA	0	1	3.75553393364	None	None	None	None	1
3.0.1	2019_Mar_08_1557	s	s	10	2	Capacity	70	ABS	0	0	3	1	24_3_1	NA	NA	0	1	6.84423208237	None	None	None	None	1
3.0.1	2019_Mar_08_1557	s	s	10	2	Capacity	71	4_1	4	1	3	1	23_3_1	1	0	1	0	0.580358982086	-331.0	-210.0	-325.0	-213.0	1
3.0.1	2019_Mar_08_1557	s	s	10	2	Capacity	72	2_1	2	1	4	1	23_4_1	2	0	1	0	0.516765117645	-132.0	26.0	-124.0	24.0	1
3.0.1	2019_Mar_08_1557	s	s	10	2	Capacity	73	3_1	3	1	1	1	23_1_1	2	0	1	0	0.442959070206	173.0	47.0	171.0	45.0	1
3.0.1	2019_Mar_08_1557	s	s	10	2	Capacity	74	ABS	0	0	2	1	24_2_1	NA	NA	0	1	3.0027859211	None	None	None	None	1
3.0.1	2019_Mar_08_1557	s	s	10	2	Capacity	75	ABS	0	0	3	1	24_3_1	NA	NA	0	1	4.55137014389	None	None	None	None	1
3.0.1	2019_Mar_08_1557	s	s	10	2	Capacity	76	ABS	0	0	3	1	24_3_1	NA	NA	0	1	2.57497501373	None	None	None	None	1
3.0.1	2019_Mar_08_1557	s	s	10	2	Capacity	77	ABS	0	0	2	1	24_2_1	NA	NA	0	1	4.356361866	None	None	None	None	1
3.0.1	2019_Mar_08_1557	s	s	10	2	Capacity	78	4_1	4	1	2	1	23_2_1	2	0	1	0	0.634435892105	176.0	84.0	172.0	84.0	1
3.0.1	2019_Mar_08_1557	s	s	10	2	Capacity	79	ABS	0	0	1	1	24_1_1	NA	NA	0	1	4.65673589706	None	None	None	None	1
3.0.1	2019_Mar_08_1557	s	s	10	2	Capacity	80	1_1	1	1	4	1	23_4_1	3	0	1	0	0.333807945251	85.0	167.0	78.0	164.0	1
3.0.1	2019_Mar_08_1557	s	s	10	2	Capacity	81	1_1	1	1	2	1	23_2_1	1	0	1	0	2.29927301407	491.0	278.0	483.0	272.0	1
3.0.1	2019_Mar_08_1557	s	s	10	2	Capacity	82	ABS	0	0	2	1	24_2_1	NA	NA	0	1	3.61279392242	None	None	None	None	1
3.0.1	2019_Mar_08_1557	s	s	10	2	Capacity	83	2_1	2	1	3	1	23_3_1	1	0	1	0	0.481590032578	323.0	-76.0	314.0	-79.0	1
3.0.1	2019_Mar_08_1557	s	s	10	2	Capacity	84	2_1	2	1	1	1	23_1_1	-1	0	1	0	5.3678381443	-416.0	230.0	-407.0	231.0	1
3.0.1	2019_Mar_08_1557	s	s	10	2	Capacity	85	3_1	3	1	4	1	23_4_1	-1	0	1	0	0.422770023346	-13.0	251.0	-10.0	260.0	1
3.0.1	2019_Mar_08_1557	s	s	10	2	Capacity	86	ABS	0	0	1	1	24_1_1	NA	NA	0	1	4.553784132	None	None	None	None	1
3.0.1	2019_Mar_08_1557	s	s	10	2	Capacity	87	ABS	0	0	4	1	24_4_1	NA	NA	0	1	4.22160696983	None	None	None	None	1
3.0.1	2019_Mar_08_1557	s	s	10	2	Capacity	88	4_1	4	1	3	1	23_3_1	1	0	1	0	0.415086984634	-68.0	153.0	-60.0	150.0	1
3.0.1	2019_Mar_08_1557	s	s	10	2	Capacity	89	ABS	0	0	3	1	24_3_1	NA	NA	0	1	2.17511200905	None	None	None	None	1
3.0.1	2019_Mar_08_1557	s	s	10	2	Capacity	90	4_1	4	1	1	1	23_1_1	3	0	1	0	0.523389816284	532.0	-245.0	522.0	-245.0	1
3.0.1	2019_Mar_08_1557	s	s	10	2	Capacity	91	ABS	0	0	4	1	24_4_1	NA	NA	0	1	2.45742201805	None	None	None	None	1
3.0.1	2019_Mar_08_1557	s	s	10	2	Capacity	92	1_1	1	1	3	1	23_3_1	2	0	1	0	0.465313911438	171.0	162.0	172.0	159.0	1
3.0.1	2019_Mar_08_1557	s	s	10	2	Capacity	93	ABS	0	0	4	1	24_4_1	NA	NA	0	1	4.35085511208	None	None	None	None	1
3.0.1	2019_Mar_08_1557	s	s	10	2	Capacity	94	ABS	0	0	1	1	24_1_1	NA	NA	0	1	5.09631991386	None	None	None	None	1
3.0.1	2019_Mar_08_1557	s	s	10	2	Capacity	95	3_1	3	1	2	1	23_2_1	1	0	1	0	0.393017053604	30.0	-234.0	35.0	-244.0	1
3.0.1	2019_Mar_08_1557	s	s	10	2	Capacity	96	2_1	2	1	4	1	23_4_1	2	0	0	1	0.42272400856	420.0	-277.0	None	None	0
3.0.1	2019_Mar_08_1557	s	s	10	2	Capacity	1	1_4	1	4	1	1	23_1_1	0	3	1	0	0.6932117939	109.0	-194.0	104.0	-195.0	1
3.0.1	2019_Mar_08_1557	s	s	10	2	Capacity	2	ABS	0	0	1	2	24_1_2	NA	NA	0	1	4.74331784248	None	None	None	None	1
3.0.1	2019_Mar_08_1557	s	s	10	2	Capacity	3	1_1	1	1	1	4	23_1_4	0	3	1	0	0.540366888046	-112.0	63.0	-119.0	67.0	1
3.0.1	2019_Mar_08_1557	s	s	10	2	Capacity	4	ABS	0	0	1	4	24_1_4	NA	NA	0	1	3.31985807419	None	None	None	None	1
3.0.1	2019_Mar_08_1557	s	s	10	2	Capacity	5	1_2	1	2	1	4	23_1_4	0	2	1	0	0.716875076294	-286.0	-47.0	-277.0	-45.0	1
3.0.1	2019_Mar_08_1557	s	s	10	2	Capacity	6	1_1	1	1	1	2	23_1_2	0	1	1	0	3.02588915825	377.0	-303.0	379.0	-298.0	1
3.0.1	2019_Mar_08_1557	s	s	10	2	Capacity	7	ABS	0	0	1	2	24_1_2	NA	NA	0	1	8.14264702797	None	None	None	None	1
3.0.1	2019_Mar_08_1557	s	s	10	2	Capacity	8	1_3	1	3	1	2	23_1_2	0	1	0	1	6.69144582748	180.0	75.0	None	None	0
3.0.1	2019_Mar_08_1557	s	s	10	2	Capacity	9	ABS	0	0	1	4	24_1_4	NA	NA	0	1	3.45711898804	None	None	None	None	1
3.0.1	2019_Mar_08_1557	s	s	10	2	Capacity	10	ABS	0	0	1	4	24_1_4	NA	NA	0	1	1.7281961441	None	None	None	None	1
3.0.1	2019_Mar_08_1557	s	s	10	2	Capacity	11	ABS	0	0	1	1	24_1_1	NA	NA	0	1	3.23817682266	None	None	None	None	1
3.0.1	2019_Mar_08_1557	s	s	10	2	Capacity	12	ABS	0	0	1	3	24_1_3	NA	NA	0	1	5.78580188751	None	None	None	None	1
3.0.1	2019_Mar_08_1557	s	s	10	2	Capacity	13	1_4	1	4	1	2	23_1_2	0	2	1	0	0.528586149216	-173.0	272.0	-182.0	281.0	1
3.0.1	2019_Mar_08_1557	s	s	10	2	Capacity	14	1_3	1	3	1	1	23_1_1	0	2	1	0	0.622931003571	66.0	182.0	72.0	182.0	1
3.0.1	2019_Mar_08_1557	s	s	10	2	Capacity	15	1_4	1	4	1	3	23_1_3	0	1	1	0	1.52821302414	5.0	-360.0	6.0	-359.0	1
3.0.1	2019_Mar_08_1557	s	s	10	2	Capacity	16	ABS	0	0	1	3	24_1_3	NA	NA	0	1	4.43611621857	None	None	None	None	1
3.0.1	2019_Mar_08_1557	s	s	10	2	Capacity	17	ABS	0	0	1	1	24_1_1	NA	NA	0	1	3.75110507011	None	None	None	None	1
3.0.1	2019_Mar_08_1557	s	s	10	2	Capacity	18	1_2	1	2	1	3	23_1_3	0	1	1	0	4.45414400101	-493.0	-140.0	-482.0	-135.0	1
3.0.1	2019_Mar_08_1557	s	s	10	2	Capacity	19	ABS	0	0	1	2	24_1_2	NA	NA	0	1	5.11541700363	None	None	None	None	1
3.0.1	2019_Mar_08_1557	s	s	10	2	Capacity	20	ABS	0	0	1	1	24_1_1	NA	NA	0	1	3.72113180161	None	None	None	None	1
3.0.1	2019_Mar_08_1557	s	s	10	2	Capacity	21	1_1	1	1	1	3	23_1_3	0	2	1	0	1.02545404434	-429.0	65.0	-432.0	58.0	1
3.0.1	2019_Mar_08_1557	s	s	10	2	Capacity	22	ABS	0	0	1	3	24_1_3	NA	NA	0	1	5.29181003571	None	None	None	None	1
3.0.1	2019_Mar_08_1557	s	s	10	2	Capacity	23	1_3	1	3	1	4	23_1_4	0	-1	1	0	0.908238887787	427.0	-406.0	428.0	-405.0	1
3.0.1	2019_Mar_08_1557	s	s	10	2	Capacity	24	1_2	1	2	1	1	23_1_1	0	-1	1	0	1.06966209412	220.0	111.0	222.0	112.0	1
3.0.1	2019_Mar_08_1557	s	s	10	2	Capacity	25	1_2	1	2	1	1	23_1_1	0	-1	1	0	2.44562196732	397.0	120.0	391.0	112.0	1
3.0.1	2019_Mar_08_1557	s	s	10	2	Capacity	26	ABS	0	0	1	1	24_1_1	NA	NA	0	1	3.45755600929	None	None	None	None	1
3.0.1	2019_Mar_08_1557	s	s	10	2	Capacity	27	1_1	1	1	1	3	23_1_3	0	2	1	0	1.10493898392	11.0	355.0	15.0	353.0	1
3.0.1	2019_Mar_08_1557	s	s	10	2	Capacity	28	1_4	1	4	1	3	23_1_3	0	1	1	0	1.05258107185	-401.0	-359.0	-393.0	-359.0	1
3.0.1	2019_Mar_08_1557	s	s	10	2	Capacity	29	1_4	1	4	1	1	23_1_1	0	3	1	0	0.452866077423	-85.0	-28.0	-81.0	-21.0	1
3.0.1	2019_Mar_08_1557	s	s	10	2	Capacity	30	1_3	1	3	1	2	23_1_2	0	1	1	0	2.07566905022	56.0	-258.0	64.0	-251.0	1
3.0.1	2019_Mar_08_1557	s	s	10	2	Capacity	31	1_1	1	1	1	2	23_1_2	0	1	1	0	5.71812295914	-393.0	187.0	-397.0	182.0	1
3.0.1	2019_Mar_08_1557	s	s	10	2	Capacity	32	ABS	0	0	1	4	24_1_4	NA	NA	0	1	3.32035112381	None	None	None	None	1
3.0.1	2019_Mar_08_1557	s	s	10	2	Capacity	33	1_4	1	4	1	2	23_1_2	0	2	1	0	0.53261590004	249.0	88.0	239.0	90.0	1
3.0.1	2019_Mar_08_1557	s	s	10	2	Capacity	34	ABS	0	0	1	3	24_1_3	NA	NA	0	1	5.09702515602	None	None	None	None	1
3.0.1	2019_Mar_08_1557	s	s	10	2	Capacity	35	1_2	1	2	1	3	23_1_3	0	1	1	0	5.53113913536	-530.0	-321.0	-531.0	-314.0	1
3.0.1	2019_Mar_08_1557	s	s	10	2	Capacity	36	1_2	1	2	1	4	23_1_4	0	2	1	0	0.745486021042	-468.0	-201.0	-459.0	-202.0	1
3.0.1	2019_Mar_08_1557	s	s	10	2	Capacity	37	ABS	0	0	1	2	24_1_2	NA	NA	0	1	8.08408617973	None	None	None	None	1
3.0.1	2019_Mar_08_1557	s	s	10	2	Capacity	38	ABS	0	0	1	2	24_1_2	NA	NA	0	1	6.69464707375	None	None	None	None	1
3.0.1	2019_Mar_08_1557	s	s	10	2	Capacity	39	ABS	0	0	1	3	24_1_3	NA	NA	0	1	5.95046591759	None	None	None	None	1
3.0.1	2019_Mar_08_1557	s	s	10	2	Capacity	40	ABS	0	0	1	4	24_1_4	NA	NA	0	1	4.44514107704	None	None	None	None	1
3.0.1	2019_Mar_08_1557	s	s	10	2	Capacity	41	ABS	0	0	1	4	24_1_4	NA	NA	0	1	3.16310715675	None	None	None	None	1
3.0.1	2019_Mar_08_1557	s	s	10	2	Capacity	42	ABS	0	0	1	2	24_1_2	NA	NA	0	1	8.79361701012	None	None	None	None	1
3.0.1	2019_Mar_08_1557	s	s	10	2	Capacity	43	1_1	1	1	1	4	23_1_4	0	3	1	0	0.68670296669	-393.0	-191.0	-391.0	-189.0	1
3.0.1	2019_Mar_08_1557	s	s	10	2	Capacity	44	1_3	1	3	1	4	23_1_4	0	-1	1	0	0.763827800751	196.0	19.0	206.0	18.0	1
3.0.1	2019_Mar_08_1557	s	s	10	2	Capacity	45	ABS	0	0	1	1	24_1_1	NA	NA	0	1	3.71583986282	None	None	None	None	1
3.0.1	2019_Mar_08_1557	s	s	10	2	Capacity	46	1_3	1	3	1	1	23_1_1	0	2	1	0	0.693203926086	109.0	-96.0	110.0	-87.0	1
3.0.1	2019_Mar_08_1557	s	s	10	2	Capacity	47	ABS	0	0	1	1	24_1_1	NA	NA	0	1	2.37794494629	None	None	None	None	1
3.0.1	2019_Mar_08_1557	s	s	10	2	Capacity	48	ABS	0	0	1	3	24_1_3	NA	NA	0	1	6.89654183388	None	None	None	None	1
3.0.1	2019_Mar_08_1557	s	s	10	2	Capacity	49	ABS	0	0	1	1	24_1_1	NA	NA	0	1	3.56293702126	None	None	None	None	1
3.0.1	2019_Mar_08_1557	s	s	10	2	Capacity	50	1_3	1	3	1	1	23_1_1	0	2	1	0	2.58646798134	-508.0	309.0	-505.0	313.0	1
3.0.1	2019_Mar_08_1557	s	s	10	2	Capacity	51	1_2	1	2	1	1	23_1_1	0	-1	1	0	2.43855285645	183.0	-125.0	184.0	-119.0	1
3.0.1	2019_Mar_08_1557	s	s	10	2	Capacity	52	ABS	0	0	1	4	24_1_4	NA	NA	0	1	7.31471395493	None	None	None	None	1
3.0.1	2019_Mar_08_1557	s	s	10	2	Capacity	53	ABS	0	0	1	3	24_1_3	NA	NA	0	1	5.79764604568	None	None	None	None	1
3.0.1	2019_Mar_08_1557	s	s	10	2	Capacity	54	ABS	0	0	1	3	24_1_3	NA	NA	0	1	4.51598596573	None	None	None	None	1
3.0.1	2019_Mar_08_1557	s	s	10	2	Capacity	55	ABS	0	0	1	1	24_1_1	NA	NA	0	1	2.61321306229	None	None	None	None	1
3.0.1	2019_Mar_08_1557	s	s	10	2	Capacity	56	ABS	0	0	1	1	24_1_1	NA	NA	0	1	2.89256215096	None	None	None	None	1
3.0.1	2019_Mar_08_1557	s	s	10	2	Capacity	57	1_2	1	2	1	3	23_1_3	0	1	1	0	3.26889586449	-357.0	48.0	-364.0	47.0	1
3.0.1	2019_Mar_08_1557	s	s	10	2	Capacity	58	1_2	1	2	1	4	23_1_4	0	2	1	0	0.51710486412	-49.0	-54.0	-53.0	-52.0	1
3.0.1	2019_Mar_08_1557	s	s	10	2	Capacity	59	ABS	0	0	1	2	24_1_2	NA	NA	0	1	5.51528501511	None	None	None	None	1
3.0.1	2019_Mar_08_1557	s	s	10	2	Capacity	60	1_3	1	3	1	2	23_1_2	0	1	1	0	3.95950722694	-463.0	72.0	-454.0	68.0	1
3.0.1	2019_Mar_08_1557	s	s	10	2	Capacity	61	1_4	1	4	1	1	23_1_1	0	3	1	0	0.510246992111	-165.0	-178.0	-168.0	-176.0	1
3.0.1	2019_Mar_08_1557	s	s	10	2	Capacity	62	1_1	1	1	1	4	23_1_4	0	3	1	0	0.416063070297	-258.0	23.0	-261.0	27.0	1
3.0.1	2019_Mar_08_1557	s	s	10	2	Capacity	63	1_4	1	4	1	2	23_1_2	0	2	1	0	0.752087116241	460.0	-231.0	467.0	-232.0	1
3.0.1	2019_Mar_08_1557	s	s	10	2	Capacity	64	1_3	1	3	1	4	23_1_4	0	-1	1	0	0.822618961334	-106.0	-339.0	-100.0	-332.0	1
3.0.1	2019_Mar_08_1557	s	s	10	2	Capacity	65	ABS	0	0	1	3	24_1_3	NA	NA	0	1	6.29152178764	None	None	None	None	1
3.0.1	2019_Mar_08_1557	s	s	10	2	Capacity	66	ABS	0	0	1	4	24_1_4	NA	NA	0	1	3.04540801048	None	None	None	None	1
3.0.1	2019_Mar_08_1557	s	s	10	2	Capacity	67	ABS	0	0	1	2	24_1_2	NA	NA	0	1	6.38570690155	None	None	None	None	1
3.0.1	2019_Mar_08_1557	s	s	10	2	Capacity	68	1_1	1	1	1	2	23_1_2	0	1	1	0	2.2507109642	437.0	-339.0	432.0	-338.0	1
3.0.1	2019_Mar_08_1557	s	s	10	2	Capacity	69	ABS	0	0	1	2	24_1_2	NA	NA	0	1	7.20650911331	None	None	None	None	1
3.0.1	2019_Mar_08_1557	s	s	10	2	Capacity	70	1_1	1	1	1	3	23_1_3	0	2	1	0	1.0696451664	279.0	263.0	284.0	268.0	1
3.0.1	2019_Mar_08_1557	s	s	10	2	Capacity	71	1_4	1	4	1	3	23_1_3	0	1	1	0	2.88468599319	517.0	340.0	523.0	331.0	1
3.0.1	2019_Mar_08_1557	s	s	10	2	Capacity	72	ABS	0	0	1	4	24_1_4	NA	NA	0	1	2.59853100777	None	None	None	None	1
3.0.1	2019_Mar_08_1557	s	s	10	2	Capacity	73	ABS	0	0	1	2	24_1_2	NA	NA	0	1	6.60905814171	None	None	None	None	1
3.0.1	2019_Mar_08_1557	s	s	10	2	Capacity	74	ABS	0	0	1	3	24_1_3	NA	NA	0	1	9.00874519348	None	None	None	None	1
3.0.1	2019_Mar_08_1557	s	s	10	2	Capacity	75	1_2	1	2	1	1	23_1_1	0	-1	1	0	1.20185184479	-443.0	-199.0	-449.0	-206.0	1
3.0.1	2019_Mar_08_1557	s	s	10	2	Capacity	76	1_1	1	1	1	2	23_1_2	0	1	1	0	3.88518691063	86.0	377.0	79.0	378.0	1
3.0.1	2019_Mar_08_1557	s	s	10	2	Capacity	77	1_3	1	3	1	4	23_1_4	0	-1	1	0	0.629302024841	-233.0	-409.0	-236.0	-404.0	1
3.0.1	2019_Mar_08_1557	s	s	10	2	Capacity	78	1_2	1	2	1	3	23_1_3	0	1	1	0	3.82166790962	430.0	-216.0	433.0	-221.0	1
3.0.1	2019_Mar_08_1557	s	s	10	2	Capacity	79	ABS	0	0	1	4	24_1_4	NA	NA	0	1	6.18566393852	None	None	None	None	1
3.0.1	2019_Mar_08_1557	s	s	10	2	Capacity	80	ABS	0	0	1	1	24_1_1	NA	NA	0	1	4.73018312454	None	None	None	None	1
3.0.1	2019_Mar_08_1557	s	s	10	2	Capacity	81	ABS	0	0	1	1	24_1_1	NA	NA	0	1	4.41020321846	None	None	None	None	1
3.0.1	2019_Mar_08_1557	s	s	10	2	Capacity	82	ABS	0	0	1	3	24_1_3	NA	NA	0	1	5.40946102142	None	None	None	None	1
3.0.1	2019_Mar_08_1557	s	s	10	2	Capacity	83	1_3	1	3	1	1	23_1_1	0	2	1	0	2.63902592659	523.0	-172.0	523.0	-171.0	1
3.0.1	2019_Mar_08_1557	s	s	10	2	Capacity	84	1_3	1	3	1	2	23_1_2	0	1	1	0	1.10753107071	-281.0	-331.0	-273.0	-323.0	1
3.0.1	2019_Mar_08_1557	s	s	10	2	Capacity	85	1_1	1	1	1	3	23_1_3	0	2	1	0	0.602056980133	139.0	-93.0	146.0	-90.0	1
3.0.1	2019_Mar_08_1557	s	s	10	2	Capacity	86	ABS	0	0	1	2	24_1_2	NA	NA	0	1	6.29147005081	None	None	None	None	1
3.0.1	2019_Mar_08_1557	s	s	10	2	Capacity	87	ABS	0	0	1	4	24_1_4	NA	NA	0	1	2.12818408012	None	None	None	None	1
3.0.1	2019_Mar_08_1557	s	s	10	2	Capacity	88	1_2	1	2	1	4	23_1_4	0	2	1	0	0.657999992371	-330.0	-396.0	-336.0	-397.0	1
3.0.1	2019_Mar_08_1557	s	s	10	2	Capacity	89	1_1	1	1	1	4	23_1_4	0	3	1	0	0.481591939926	-136.0	-285.0	-142.0	-291.0	1
3.0.1	2019_Mar_08_1557	s	s	10	2	Capacity	90	ABS	0	0	1	4	24_1_4	NA	NA	0	1	2.15157389641	None	None	None	None	1
3.0.1	2019_Mar_08_1557	s	s	10	2	Capacity	91	ABS	0	0	1	3	24_1_3	NA	NA	0	1	6.921200037	None	None	None	None	1
3.0.1	2019_Mar_08_1557	s	s	10	2	Capacity	92	1_4	1	4	1	2	23_1_2	0	2	1	0	0.50787115097	68.0	-349.0	60.0	-341.0	1
3.0.1	2019_Mar_08_1557	s	s	10	2	Capacity	93	1_4	1	4	1	1	23_1_1	0	3	1	0	0.528525114059	290.0	-333.0	299.0	-327.0	1
3.0.1	2019_Mar_08_1557	s	s	10	2	Capacity	94	ABS	0	0	1	2	24_1_2	NA	NA	0	1	5.20064210892	None	None	None	None	1
3.0.1	2019_Mar_08_1557	s	s	10	2	Capacity	95	ABS	0	0	1	1	24_1_1	NA	NA	0	1	4.92720890045	None	None	None	None	1
3.0.1	2019_Mar_08_1557	s	s	10	2	Capacity	96	1_4	1	4	1	3	23_1_3	0	1	1	0	0.528579950333	41.0	-182.0	40.0	-178.0	1
3.0.1	2019_Mar_08_1557	s	s	10	2	SIC	1	4_4	4	4	1	3	23_1_3	3	1	1	0	0.410971879959	-72.0	-85.0	-69.0	-84.0	1
3.0.1	2019_Mar_08_1557	s	s	10	2	SIC	2	2_1	2	1	4	3	23_4_3	2	2	1	0	7.10487365723e-05	-485.0	-137.0	-129.0	-110.0	0
3.0.1	2019_Mar_08_1557	s	s	10	2	SIC	3	ABS	0	0	4	2	24_4_2	NA	NA	0	1	2.19860601425	None	None	None	None	1
3.0.1	2019_Mar_08_1557	s	s	10	2	SIC	4	3_3	3	3	3	4	23_3_4	0	-1	1	0	0.905369997025	-465.0	-352.0	-465.0	-358.0	1
3.0.1	2019_Mar_08_1557	s	s	10	2	SIC	5	ABS	0	0	3	4	24_3_4	NA	NA	0	1	2.40359091759	None	None	None	None	1
3.0.1	2019_Mar_08_1557	s	s	10	2	SIC	6	ABS	0	0	3	3	24_3_3	NA	NA	0	1	4.70844006538	None	None	None	None	1
3.0.1	2019_Mar_08_1557	s	s	10	2	SIC	7	3_3	3	3	4	1	23_4_1	-1	2	1	0	0.481559991837	-322.0	-340.0	-317.0	-342.0	1
3.0.1	2019_Mar_08_1557	s	s	10	2	SIC	8	3_2	3	2	1	2	23_1_2	2	0	1	0	0.458056926727	117.0	-328.0	114.0	-324.0	1
3.0.1	2019_Mar_08_1557	s	s	10	2	SIC	9	2_1	2	1	1	3	23_1_3	-1	2	1	0	3.0454249382	-432.0	183.0	-421.0	183.0	1
3.0.1	2019_Mar_08_1557	s	s	10	2	SIC	10	ABS	0	0	4	4	24_4_4	NA	NA	0	1	3.73927307129	None	None	None	None	1
3.0.1	2019_Mar_08_1557	s	s	10	2	SIC	11	1_3	1	3	4	1	23_4_1	3	2	1	0	0.441601991653	530.0	-358.0	534.0	-365.0	1
3.0.1	2019_Mar_08_1557	s	s	10	2	SIC	12	1_2	1	2	4	2	23_4_2	3	0	1	0	0.3562541008	295.0	-124.0	291.0	-132.0	1
3.0.1	2019_Mar_08_1557	s	s	10	2	SIC	13	ABS	0	0	1	2	24_1_2	NA	NA	0	1	8.36145997047	None	None	None	None	1
3.0.1	2019_Mar_08_1557	s	s	10	2	SIC	14	4_3	4	3	4	2	23_4_2	0	1	1	0	1.48668289185	-399.0	261.0	-397.0	265.0	1
3.0.1	2019_Mar_08_1557	s	s	10	2	SIC	15	3_3	3	3	2	1	23_2_1	1	2	1	0	0.51096200943	-78.0	-287.0	-77.0	-290.0	1
3.0.1	2019_Mar_08_1557	s	s	10	2	SIC	16	2_2	2	2	3	4	23_3_4	1	2	1	0	0.439007043839	194.0	-394.0	193.0	-396.0	1
3.0.1	2019_Mar_08_1557	s	s	10	2	SIC	17	ABS	0	0	2	3	24_2_3	NA	NA	0	1	7.05596709251	None	None	None	None	1
3.0.1	2019_Mar_08_1557	s	s	10	2	SIC	18	4_4	4	4	3	1	23_3_1	1	3	1	0	0.496312141418	-516.0	-368.0	-502.0	-361.0	1
3.0.1	2019_Mar_08_1557	s	s	10	2	SIC	19	4_3	4	3	2	1	23_2_1	2	2	1	0	0.452388048172	378.0	-1.0	368.0	-3.0	1
3.0.1	2019_Mar_08_1557	s	s	10	2	SIC	20	ABS	0	0	1	1	24_1_1	NA	NA	0	1	2.76826000214	None	None	None	None	1
3.0.1	2019_Mar_08_1557	s	s	10	2	SIC	21	3_1	3	1	3	2	23_3_2	0	1	1	0	2.15629291534	287.0	-70.0	292.0	-73.0	1
3.0.1	2019_Mar_08_1557	s	s	10	2	SIC	22	ABS	0	0	1	1	24_1_1	NA	NA	0	1	4.57443284988	None	None	None	None	1
3.0.1	2019_Mar_08_1557	s	s	10	2	SIC	23	3_2	3	2	4	4	23_4_4	-1	2	1	0	0.443745136261	148.0	-81.0	151.0	-82.0	1
3.0.1	2019_Mar_08_1557	s	s	10	2	SIC	24	2_4	2	4	3	3	23_3_3	1	1	1	0	0.469715833664	-6.0	153.0	-7.0	154.0	1
3.0.1	2019_Mar_08_1557	s	s	10	2	SIC	25	ABS	0	0	1	1	24_1_1	NA	NA	0	1	9.47113704681	None	None	None	None	1
3.0.1	2019_Mar_08_1557	s	s	10	2	SIC	26	ABS	0	0	4	2	24_4_2	NA	NA	0	1	7.46766996384	None	None	None	None	1
3.0.1	2019_Mar_08_1557	s	s	10	2	SIC	27	ABS	0	0	2	3	24_2_3	NA	NA	0	1	7.22062897682	None	None	None	None	1
3.0.1	2019_Mar_08_1557	s	s	10	2	SIC	28	1_2	1	2	1	1	23_1_1	0	-1	1	0	2.21065402031	-22.0	233.0	-15.0	233.0	1
3.0.1	2019_Mar_08_1557	s	s	10	2	SIC	29	4_1	4	1	3	2	23_3_2	1	1	1	0	0.404253959656	-534.0	244.0	-533.0	237.0	1
3.0.1	2019_Mar_08_1557	s	s	10	2	SIC	30	ABS	0	0	3	3	24_3_3	NA	NA	0	1	10.9635219574	None	None	None	None	1
3.0.1	2019_Mar_08_1557	s	s	10	2	SIC	31	ABS	0	0	2	3	24_2_3	NA	NA	0	1	6.19746184349	None	None	None	None	1
3.0.1	2019_Mar_08_1557	s	s	10	2	SIC	32	ABS	0	0	2	2	24_2_2	NA	NA	0	1	6.54345297813	None	None	None	None	1
3.0.1	2019_Mar_08_1557	s	s	10	2	SIC	33	1_4	1	4	1	1	23_1_1	0	3	1	0	0.650867938995	439.0	-265.0	435.0	-262.0	1
3.0.1	2019_Mar_08_1557	s	s	10	2	SIC	34	ABS	0	0	4	1	24_4_1	NA	NA	0	1	2.33084607124	None	None	None	None	1
3.0.1	2019_Mar_08_1557	s	s	10	2	SIC	35	1_2	1	2	2	4	23_2_4	1	2	1	0	0.604216098785	-355.0	399.0	-361.0	402.0	1
3.0.1	2019_Mar_08_1557	s	s	10	2	SIC	36	1_1	1	1	2	3	23_2_3	1	2	1	0	0.511163949966	64.0	12.0	64.0	4.0	1
3.0.1	2019_Mar_08_1557	s	s	10	2	SIC	37	ABS	0	0	4	4	24_4_4	NA	NA	0	1	3.24543404579	None	None	None	None	1
3.0.1	2019_Mar_08_1557	s	s	10	2	SIC	38	ABS	0	0	4	3	24_4_3	NA	NA	0	1	6.13181090355	None	None	None	None	1
3.0.1	2019_Mar_08_1557	s	s	10	2	SIC	39	1_2	1	2	3	2	23_3_2	2	0	1	0	1.64960694313	-113.0	256.0	-124.0	265.0	1
3.0.1	2019_Mar_08_1557	s	s	10	2	SIC	40	ABS	0	0	1	2	24_1_2	NA	NA	0	1	6.39732408524	None	None	None	None	1
3.0.1	2019_Mar_08_1557	s	s	10	2	SIC	41	ABS	0	0	4	1	24_4_1	NA	NA	0	1	2.24573612213	None	None	None	None	1
3.0.1	2019_Mar_08_1557	s	s	10	2	SIC	42	ABS	0	0	3	1	24_3_1	NA	NA	0	1	2.64560008049	None	None	None	None	1
3.0.1	2019_Mar_08_1557	s	s	10	2	SIC	43	ABS	0	0	2	2	24_2_2	NA	NA	0	1	6.88428902626	None	None	None	None	1
3.0.1	2019_Mar_08_1557	s	s	10	2	SIC	44	ABS	0	0	2	1	24_2_1	NA	NA	0	1	4.31857514381	None	None	None	None	1
3.0.1	2019_Mar_08_1557	s	s	10	2	SIC	45	ABS	0	0	3	2	24_3_2	NA	NA	0	1	7.15558695793	None	None	None	None	1
3.0.1	2019_Mar_08_1557	s	s	10	2	SIC	46	4_1	4	1	1	3	23_1_3	3	2	1	0	0.528724908829	-19.0	311.0	-22.0	308.0	1
3.0.1	2019_Mar_08_1557	s	s	10	2	SIC	47	3_3	3	3	1	2	23_1_2	2	1	1	0	0.422794103622	27.0	-227.0	26.0	-230.0	1
3.0.1	2019_Mar_08_1557	s	s	10	2	SIC	48	ABS	0	0	2	3	24_2_3	NA	NA	0	1	7.2478749752	None	None	None	None	1
3.0.1	2019_Mar_08_1557	s	s	10	2	SIC	49	ABS	0	0	2	4	24_2_4	NA	NA	0	1	2.8455760479	None	None	None	None	1
3.0.1	2019_Mar_08_1557	s	s	10	2	SIC	50	ABS	0	0	3	1	24_3_1	NA	NA	0	1	2.50444293022	None	None	None	None	1
3.0.1	2019_Mar_08_1557	s	s	10	2	SIC	51	1_3	1	3	1	2	23_1_2	0	1	1	0	6.36602401733	-394.0	-91.0	-392.0	-96.0	1
3.0.1	2019_Mar_08_1557	s	s	10	2	SIC	52	4_1	4	1	2	1	23_2_1	2	0	1	0	0.422804832458	303.0	-18.0	309.0	-21.0	1
3.0.1	2019_Mar_08_1557	s	s	10	2	SIC	53	ABS	0	0	1	3	24_1_3	NA	NA	0	1	7.43524289131	None	None	None	None	1
3.0.1	2019_Mar_08_1557	s	s	10	2	SIC	54	ABS	0	0	1	2	24_1_2	NA	NA	0	1	6.77379107475	None	None	None	None	1
3.0.1	2019_Mar_08_1557	s	s	10	2	SIC	55	1_4	1	4	2	2	23_2_2	1	2	1	0	0.716750144958	-388.0	56.0	-393.0	62.0	1
3.0.1	2019_Mar_08_1557	s	s	10	2	SIC	56	ABS	0	0	3	3	24_3_3	NA	NA	0	1	5.59775805473	None	None	None	None	1
3.0.1	2019_Mar_08_1557	s	s	10	2	SIC	57	ABS	0	0	1	1	24_1_1	NA	NA	0	1	3.91233992577	None	None	None	None	1
3.0.1	2019_Mar_08_1557	s	s	10	2	SIC	58	ABS	0	0	1	4	24_1_4	NA	NA	0	1	5.43585109711	None	None	None	None	1
3.0.1	2019_Mar_08_1557	s	s	10	2	SIC	59	4_3	4	3	1	1	23_1_1	3	2	1	0	0.469784975052	-392.0	-230.0	-388.0	-226.0	1
3.0.1	2019_Mar_08_1557	s	s	10	2	SIC	60	ABS	0	0	1	3	24_1_3	NA	NA	0	1	8.6701540947	None	None	None	None	1
3.0.1	2019_Mar_08_1557	s	s	10	2	SIC	61	ABS	0	0	1	3	24_1_3	NA	NA	0	1	9.64854812622	None	None	None	None	1
3.0.1	2019_Mar_08_1557	s	s	10	2	SIC	62	ABS	0	0	4	4	24_4_4	NA	NA	0	1	3.19300889969	None	None	None	None	1
3.0.1	2019_Mar_08_1557	s	s	10	2	SIC	63	ABS	0	0	4	3	24_4_3	NA	NA	0	1	5.88478207588	None	None	None	None	1
3.0.1	2019_Mar_08_1557	s	s	10	2	SIC	64	3_1	3	1	4	3	23_4_3	-1	2	1	0	0.561722993851	379.0	-390.0	383.0	-390.0	1
3.0.1	2019_Mar_08_1557	s	s	10	2	SIC	65	1_1	1	1	2	4	23_2_4	1	3	1	0	0.51680803299	-200.0	-158.0	-195.0	-165.0	1
3.0.1	2019_Mar_08_1557	s	s	10	2	SIC	66	2_2	2	2	3	1	23_3_1	1	-1	1	0	0.563898086548	430.0	174.0	432.0	180.0	1
3.0.1	2019_Mar_08_1557	s	s	10	2	SIC	67	4_4	4	4	3	3	23_3_3	1	1	1	0	0.439643144608	-11.0	-73.0	-6.0	-71.0	1
3.0.1	2019_Mar_08_1557	s	s	10	2	SIC	68	ABS	0	0	2	3	24_2_3	NA	NA	0	1	7.03842711449	None	None	None	None	1
3.0.1	2019_Mar_08_1557	s	s	10	2	SIC	69	4_1	4	1	2	2	23_2_2	2	1	1	0	0.991132974625	-133.0	313.0	-128.0	313.0	1
3.0.1	2019_Mar_08_1557	s	s	10	2	SIC	70	3_3	3	3	1	4	23_1_4	2	-1	1	0	0.568536996841	170.0	232.0	175.0	233.0	1
3.0.1	2019_Mar_08_1557	s	s	10	2	SIC	71	1_2	1	2	3	4	23_3_4	2	2	1	0	0.411239147186	-259.0	113.0	-263.0	113.0	1
3.0.1	2019_Mar_08_1557	s	s	10	2	SIC	72	1_3	1	3	1	1	23_1_1	0	2	1	0	0.940249919891	-447.0	46.0	-440.0	49.0	1
3.0.1	2019_Mar_08_1557	s	s	10	2	SIC	73	4_1	4	1	4	3	23_4_3	0	2	1	0	5.63300704956	385.0	283.0	389.0	285.0	1
3.0.1	2019_Mar_08_1557	s	s	10	2	SIC	74	1_1	1	1	2	1	23_2_1	1	0	1	0	1.84870505333	-354.0	212.0	-352.0	214.0	1
3.0.1	2019_Mar_08_1557	s	s	10	2	SIC	75	2_1	2	1	1	1	23_1_1	-1	0	1	0	7.20569300652	-41.0	-100.0	-45.0	-101.0	1
3.0.1	2019_Mar_08_1557	s	s	10	2	SIC	76	2_3	2	3	2	1	23_2_1	0	2	1	0	0.839591026306	469.0	-164.0	472.0	-177.0	1
3.0.1	2019_Mar_08_1557	s	s	10	2	SIC	77	4_2	4	2	2	4	23_2_4	2	2	1	0	0.387474060059	-4.0	65.0	-4.0	67.0	1
3.0.1	2019_Mar_08_1557	s	s	10	2	SIC	78	1_4	1	4	3	2	23_3_2	2	2	1	0	0.533929109573	-329.0	-337.0	-328.0	-339.0	1
3.0.1	2019_Mar_08_1557	s	s	10	2	SIC	79	3_4	3	4	2	1	23_2_1	1	3	1	0	0.404519081116	482.0	-228.0	472.0	-227.0	1
3.0.1	2019_Mar_08_1557	s	s	10	2	SIC	80	3_3	3	3	3	1	23_3_1	0	2	1	0	0.58735704422	52.0	293.0	48.0	298.0	1
3.0.1	2019_Mar_08_1557	s	s	10	2	SIC	81	ABS	0	0	3	1	24_3_1	NA	NA	0	1	5.06173205376	None	None	None	None	1
3.0.1	2019_Mar_08_1557	s	s	10	2	SIC	82	4_4	4	4	2	1	23_2_1	2	3	1	0	0.469783067703	-251.0	349.0	-259.0	351.0	1
3.0.1	2019_Mar_08_1557	s	s	10	2	SIC	83	1_3	1	3	2	3	23_2_3	1	0	1	0	9.22788405418	302.0	139.0	309.0	139.0	1
3.0.1	2019_Mar_08_1557	s	s	10	2	SIC	84	ABS	0	0	2	1	24_2_1	NA	NA	0	1	6.05634999275	None	None	None	None	1
3.0.1	2019_Mar_08_1557	s	s	10	2	SIC	85	3_1	3	1	1	4	23_1_4	2	3	1	0	0.502333164215	-291.0	-412.0	-292.0	-409.0	1
3.0.1	2019_Mar_08_1557	s	s	10	2	SIC	86	ABS	0	0	4	1	24_4_1	NA	NA	0	1	4.02460098267	None	None	None	None	1
3.0.1	2019_Mar_08_1557	s	s	10	2	SIC	87	ABS	0	0	1	2	24_1_2	NA	NA	0	1	6.53086686134	None	None	None	None	1
3.0.1	2019_Mar_08_1557	s	s	10	2	SIC	88	ABS	0	0	4	1	24_4_1	NA	NA	0	1	4.0977730751	None	None	None	None	1
3.0.1	2019_Mar_08_1557	s	s	10	2	SIC	89	ABS	0	0	4	2	24_4_2	NA	NA	0	1	6.75025582314	None	None	None	None	1
3.0.1	2019_Mar_08_1557	s	s	10	2	SIC	90	ABS	0	0	3	2	24_3_2	NA	NA	0	1	6.14143300056	None	None	None	None	1
3.0.1	2019_Mar_08_1557	s	s	10	2	SIC	91	ABS	0	0	4	4	24_4_4	NA	NA	0	1	4.86854100227	None	None	None	None	1
3.0.1	2019_Mar_08_1557	s	s	10	2	SIC	92	ABS	0	0	1	2	24_1_2	NA	NA	0	1	6.04454183578	None	None	None	None	1
3.0.1	2019_Mar_08_1557	s	s	10	2	SIC	93	ABS	0	0	3	2	24_3_2	NA	NA	0	1	5.1337659359	None	None	None	None	1
3.0.1	2019_Mar_08_1557	s	s	10	2	SIC	94	ABS	0	0	4	2	24_4_2	NA	NA	0	1	5.9650490284	None	None	None	None	1
3.0.1	2019_Mar_08_1557	s	s	10	2	SIC	95	2_4	2	4	3	1	23_3_1	1	3	1	0	0.672637939453	309.0	378.0	308.0	384.0	1
3.0.1	2019_Mar_08_1557	s	s	10	2	SIC	96	ABS	0	0	3	2	24_3_2	NA	NA	0	1	5.4431438446	None	None	None	None	1
3.0.1	2019_Mar_08_1557	s	s	10	2	SIC	97	1_2	1	2	2	3	23_2_3	1	1	1	0	5.53197598457	-388.0	-203.0	-374.0	-195.0	1
3.0.1	2019_Mar_08_1557	s	s	10	2	SIC	98	ABS	0	0	2	2	24_2_2	NA	NA	0	1	6.03283286095	None	None	None	None	1
3.0.1	2019_Mar_08_1557	s	s	10	2	SIC	99	ABS	0	0	2	1	24_2_1	NA	NA	0	1	4.99782299995	None	None	None	None	1
3.0.1	2019_Mar_08_1557	s	s	10	2	SIC	100	1_4	1	4	3	3	23_3_3	2	1	1	0	0.488256931305	67.0	-162.0	75.0	-160.0	1
3.0.1	2019_Mar_08_1557	s	s	10	2	SIC	101	ABS	0	0	4	3	24_4_3	NA	NA	0	1	4.64496088028	None	None	None	None	1
3.0.1	2019_Mar_08_1557	s	s	10	2	SIC	102	ABS	0	0	1	4	24_1_4	NA	NA	0	1	9.57282400131	None	None	None	None	1
3.0.1	2019_Mar_08_1557	s	s	10	2	SIC	103	2_3	2	3	2	2	23_2_2	0	1	1	0	1.51650094986	237.0	291.0	246.0	291.0	1
3.0.1	2019_Mar_08_1557	s	s	10	2	SIC	104	ABS	0	0	3	1	24_3_1	NA	NA	0	1	3.90690398216	None	None	None	None	1
3.0.1	2019_Mar_08_1557	s	s	10	2	SIC	105	1_4	1	4	1	2	23_1_2	0	2	1	0	0.498241186142	210.0	-253.0	202.0	-243.0	1
3.0.1	2019_Mar_08_1557	s	s	10	2	SIC	106	1_2	1	2	3	1	23_3_1	2	-1	1	0	0.434485912323	-437.0	76.0	-424.0	80.0	1
3.0.1	2019_Mar_08_1557	s	s	10	2	SIC	107	2_4	2	4	4	1	23_4_1	2	3	1	0	0.352127075195	167.0	-13.0	157.0	-13.0	1
3.0.1	2019_Mar_08_1557	s	s	10	2	SIC	108	ABS	0	0	4	4	24_4_4	NA	NA	0	1	1.82224178314	None	None	None	None	1
3.0.1	2019_Mar_08_1557	s	s	10	2	SIC	109	3_4	3	4	3	1	23_3_1	0	3	1	0	0.575658082962	-125.0	-338.0	-124.0	-339.0	1
3.0.1	2019_Mar_08_1557	s	s	10	2	SIC	110	2_1	2	1	1	2	23_1_2	-1	1	1	0	2.75417399406	467.0	3.0	468.0	1.0	1
3.0.1	2019_Mar_08_1557	s	s	10	2	SIC	111	ABS	0	0	4	3	24_4_3	NA	NA	0	1	6.68733882904	None	None	None	None	1
3.0.1	2019_Mar_08_1557	s	s	10	2	SIC	112	ABS	0	0	2	3	24_2_3	NA	NA	0	1	6.42384886742	None	None	None	None	1
3.0.1	2019_Mar_08_1557	s	s	10	2	SIC	113	4_4	4	4	3	4	23_3_4	1	0	1	0	0.496148109436	127.0	-249.0	136.0	-249.0	1
3.0.1	2019_Mar_08_1557	s	s	10	2	SIC	114	ABS	0	0	1	4	24_1_4	NA	NA	0	1	3.11603593826	None	None	None	None	1
3.0.1	2019_Mar_08_1557	s	s	10	2	SIC	115	ABS	0	0	3	1	24_3_1	NA	NA	0	1	4.25698113441	None	None	None	None	1
3.0.1	2019_Mar_08_1557	s	s	10	2	SIC	116	ABS	0	0	2	4	24_2_4	NA	NA	0	1	3.38979411125	None	None	None	None	1
3.0.1	2019_Mar_08_1557	s	s	10	2	SIC	117	3_1	3	1	3	3	23_3_3	0	2	1	0	1.05784392357	-402.0	-207.0	-401.0	-201.0	1
3.0.1	2019_Mar_08_1557	s	s	10	2	SIC	118	ABS	0	0	2	2	24_2_2	NA	NA	0	1	6.41321611404	None	None	None	None	1
3.0.1	2019_Mar_08_1557	s	s	10	2	SIC	119	3_3	3	3	3	2	23_3_2	0	1	1	0	5.99106693268	202.0	339.0	205.0	338.0	1
3.0.1	2019_Mar_08_1557	s	s	10	2	SIC	120	4_2	4	2	3	3	23_3_3	1	1	1	0	2.17513990402	-59.0	185.0	-56.0	188.0	1
3.0.1	2019_Mar_08_1557	s	s	10	2	SIC	121	2_2	2	2	2	4	23_2_4	0	2	1	0	0.855525016785	-332.0	409.0	-333.0	401.0	1
3.0.1	2019_Mar_08_1557	s	s	10	2	SIC	122	1_2	1	2	4	3	23_4_3	3	1	1	0	0.399553060532	-23.0	274.0	-21.0	276.0	1
3.0.1	2019_Mar_08_1557	s	s	10	2	SIC	123	ABS	0	0	1	4	24_1_4	NA	NA	0	1	3.75154495239	None	None	None	None	1
3.0.1	2019_Mar_08_1557	s	s	10	2	SIC	124	4_3	4	3	1	2	23_1_2	3	1	1	0	0.510259866714	-532.0	-213.0	-531.0	-205.0	1
3.0.1	2019_Mar_08_1557	s	s	10	2	SIC	125	2_2	2	2	2	3	23_2_3	0	1	1	0	4.49766516685	23.0	130.0	21.0	137.0	1
3.0.1	2019_Mar_08_1557	s	s	10	2	SIC	126	ABS	0	0	2	4	24_2_4	NA	NA	0	1	4.72028398514	None	None	None	None	1
3.0.1	2019_Mar_08_1557	s	s	10	2	SIC	127	3_2	3	2	3	4	23_3_4	0	2	1	0	0.716809034348	-472.0	-111.0	-464.0	-107.0	1
3.0.1	2019_Mar_08_1557	s	s	10	2	SIC	128	ABS	0	0	2	1	24_2_1	NA	NA	0	1	6.90601491928	None	None	None	None	1
3.0.1	2019_Mar_08_1557	s	s	10	2	SIC	129	1_3	1	3	2	1	23_2_1	1	2	1	0	2.7308011055	361.0	137.0	356.0	138.0	1
3.0.1	2019_Mar_08_1557	s	s	10	2	SIC	130	4_1	4	1	4	2	23_4_2	0	1	1	0	3.6193189621	496.0	-290.0	496.0	-289.0	1
3.0.1	2019_Mar_08_1557	s	s	10	2	SIC	131	3_3	3	3	2	3	23_2_3	1	0	1	0	0.592248916626	124.0	154.0	116.0	151.0	1
3.0.1	2019_Mar_08_1557	s	s	10	2	SIC	132	ABS	0	0	3	1	24_3_1	NA	NA	0	1	6.36690998077	None	None	None	None	1
3.0.1	2019_Mar_08_1557	s	s	10	2	SIC	133	4_4	4	4	4	3	23_4_3	0	1	1	0	0.7171459198	-435.0	-160.0	-432.0	-152.0	1
3.0.1	2019_Mar_08_1557	s	s	10	2	SIC	134	ABS	0	0	1	1	24_1_1	NA	NA	0	1	5.74292898178	None	None	None	None	1
3.0.1	2019_Mar_08_1557	s	s	10	2	SIC	135	ABS	0	0	2	1	24_2_1	NA	NA	0	1	5.03592300415	None	None	None	None	1
3.0.1	2019_Mar_08_1557	s	s	10	2	SIC	136	4_2	4	2	4	4	23_4_4	0	2	1	0	0.810782909393	-352.0	191.0	-355.0	186.0	1
3.0.1	2019_Mar_08_1557	s	s	10	2	SIC	137	ABS	0	0	3	4	24_3_4	NA	NA	0	1	1.61062288284	None	None	None	None	1
3.0.1	2019_Mar_08_1557	s	s	10	2	SIC	138	2_1	2	1	3	2	23_3_2	1	1	1	0	0.475149154663	-340.0	-218.0	-335.0	-213.0	1
3.0.1	2019_Mar_08_1557	s	s	10	2	SIC	139	ABS	0	0	2	4	24_2_4	NA	NA	0	1	4.27657294273	None	None	None	None	1
3.0.1	2019_Mar_08_1557	s	s	10	2	SIC	140	ABS	0	0	3	1	24_3_1	NA	NA	0	1	6.82654309273	None	None	None	None	1
3.0.1	2019_Mar_08_1557	s	s	10	2	SIC	141	3_3	3	3	1	1	23_1_1	2	2	1	0	0.493720054626	-136.0	44.0	-131.0	52.0	1
3.0.1	2019_Mar_08_1557	s	s	10	2	SIC	142	ABS	0	0	3	2	24_3_2	NA	NA	0	1	7.50694799423	None	None	None	None	1
3.0.1	2019_Mar_08_1557	s	s	10	2	SIC	143	1_4	1	4	1	3	23_1_3	0	1	1	0	5.55553793907	-277.0	-411.0	-275.0	-411.0	1
3.0.1	2019_Mar_08_1557	s	s	10	2	SIC	144	2_2	2	2	1	2	23_1_2	-1	0	1	0	6.51968002319	-242.0	39.0	-238.0	38.0	1
3.0.1	2019_Mar_08_1557	s	s	10	2	SIC	145	ABS	0	0	4	2	24_4_2	NA	NA	0	1	6.58558297157	None	None	None	None	1
3.0.1	2019_Mar_08_1557	s	s	10	2	SIC	146	3_1	3	1	3	4	23_3_4	0	3	1	0	0.619075059891	-471.0	-173.0	-472.0	-167.0	1
3.0.1	2019_Mar_08_1557	s	s	10	2	SIC	147	ABS	0	0	3	4	24_3_4	NA	NA	0	1	3.73933792114	None	None	None	None	1
3.0.1	2019_Mar_08_1557	s	s	10	2	SIC	148	ABS	0	0	1	1	24_1_1	NA	NA	0	1	5.3555560112	None	None	None	None	1
3.0.1	2019_Mar_08_1557	s	s	10	2	SIC	149	1_4	1	4	4	1	23_4_1	3	3	1	0	0.45139503479	-36.0	-294.0	-35.0	-284.0	1
3.0.1	2019_Mar_08_1557	s	s	10	2	SIC	150	ABS	0	0	1	2	24_1_2	NA	NA	0	1	5.36248588562	None	None	None	None	1
3.0.1	2019_Mar_08_1557	s	s	10	2	SIC	151	ABS	0	0	4	4	24_4_4	NA	NA	0	1	2.64555692673	None	None	None	None	1
3.0.1	2019_Mar_08_1557	s	s	10	2	SIC	152	ABS	0	0	1	2	24_1_2	NA	NA	0	1	5.8966999054	None	None	None	None	1
3.0.1	2019_Mar_08_1557	s	s	10	2	SIC	153	ABS	0	0	1	3	24_1_3	NA	NA	0	1	6.44965696335	None	None	None	None	1
3.0.1	2019_Mar_08_1557	s	s	10	2	SIC	154	ABS	0	0	4	3	24_4_3	NA	NA	0	1	8.19684314728	None	None	None	None	1
3.0.1	2019_Mar_08_1557	s	s	10	2	SIC	155	1_1	1	1	4	4	23_4_4	3	3	1	0	0.439465999603	-440.0	301.0	-448.0	305.0	1
3.0.1	2019_Mar_08_1557	s	s	10	2	SIC	156	ABS	0	0	4	1	24_4_1	NA	NA	0	1	2.39847183228	None	None	None	None	1
3.0.1	2019_Mar_08_1557	s	s	10	2	SIC	157	ABS	0	0	2	2	24_2_2	NA	NA	0	1	6.62074708939	None	None	None	None	1
3.0.1	2019_Mar_08_1557	s	s	10	2	SIC	158	2_2	2	2	4	3	23_4_3	2	1	1	0	0.44623208046	-436.0	244.0	-430.0	244.0	1
3.0.1	2019_Mar_08_1557	s	s	10	2	SIC	159	ABS	0	0	4	2	24_4_2	NA	NA	0	1	5.19779586792	None	None	None	None	1
3.0.1	2019_Mar_08_1557	s	s	10	2	SIC	160	1_3	1	3	1	4	23_1_4	0	-1	1	0	0.815498113632	-172.0	-399.0	-166.0	-405.0	1
3.0.1	2019_Mar_08_1557	s	s	10	2	SIC	161	ABS	0	0	2	3	24_2_3	NA	NA	0	1	6.10336494446	None	None	None	None	1
3.0.1	2019_Mar_08_1557	s	s	10	2	SIC	162	ABS	0	0	3	3	24_3_3	NA	NA	0	1	5.98579502106	None	None	None	None	1
3.0.1	2019_Mar_08_1557	s	s	10	2	SIC	163	1_3	1	3	3	2	23_3_2	2	1	1	0	0.425694942474	11.0	-73.0	5.0	-79.0	1
3.0.1	2019_Mar_08_1557	s	s	10	2	SIC	164	1_3	1	3	3	1	23_3_1	2	2	1	0	0.399118900299	-310.0	-228.0	-309.0	-222.0	1
3.0.1	2019_Mar_08_1557	s	s	10	2	SIC	165	ABS	0	0	2	4	24_2_4	NA	NA	0	1	2.92785286903	None	None	None	None	1
3.0.1	2019_Mar_08_1557	s	s	10	2	SIC	166	ABS	0	0	1	1	24_1_1	NA	NA	0	1	4.04800200462	None	None	None	None	1
3.0.1	2019_Mar_08_1557	s	s	10	2	SIC	167	4_1	4	1	4	4	23_4_4	0	3	1	0	0.516794919968	-291.0	170.0	-300.0	171.0	1
3.0.1	2019_Mar_08_1557	s	s	10	2	SIC	168	ABS	0	0	2	4	24_2_4	NA	NA	0	1	3.75761198997	None	None	None	None	1
3.0.1	2019_Mar_08_1557	s	s	10	2	SIC	169	ABS	0	0	3	3	24_3_3	NA	NA	0	1	6.40353679657	None	None	None	None	1
3.0.1	2019_Mar_08_1557	s	s	10	2	SIC	170	ABS	0	0	4	1	24_4_1	NA	NA	0	1	2.5450489521	None	None	None	None	1
3.0.1	2019_Mar_08_1557	s	s	10	2	SIC	171	ABS	0	0	2	2	24_2_2	NA	NA	0	1	6.8031539917	None	None	None	None	1
3.0.1	2019_Mar_08_1557	s	s	10	2	SIC	172	ABS	0	0	3	3	24_3_3	NA	NA	0	1	5.89157915115	None	None	None	None	1
3.0.1	2019_Mar_08_1557	s	s	10	2	SIC	173	ABS	0	0	1	2	24_1_2	NA	NA	0	1	7.69717407227	None	None	None	None	1
3.0.1	2019_Mar_08_1557	s	s	10	2	SIC	174	3_4	3	4	4	3	23_4_3	-1	1	1	0	0.463130950928	-178.0	-142.0	-169.0	-138.0	1
3.0.1	2019_Mar_08_1557	s	s	10	2	SIC	175	ABS	0	0	2	1	24_2_1	NA	NA	0	1	7.86746001244	None	None	None	None	1
3.0.1	2019_Mar_08_1557	s	s	10	2	SIC	176	ABS	0	0	4	4	24_4_4	NA	NA	0	1	4.60177493095	None	None	None	None	1
3.0.1	2019_Mar_08_1557	s	s	10	2	SIC	177	1_2	1	2	1	3	23_1_3	0	1	1	0	6.89143395424	-80.0	-235.0	-74.0	-226.0	1
3.0.1	2019_Mar_08_1557	s	s	10	2	SIC	178	ABS	0	0	1	3	24_1_3	NA	NA	0	1	8.16605591774	None	None	None	None	1
3.0.1	2019_Mar_08_1557	s	s	10	2	SIC	179	2_1	2	1	3	3	23_3_3	1	2	1	0	0.74030995369	-87.0	320.0	-96.0	321.0	1
3.0.1	2019_Mar_08_1557	s	s	10	2	SIC	180	3_3	3	3	4	3	23_4_3	-1	0	1	0	0.42271399498	33.0	310.0	34.0	301.0	1
3.0.1	2019_Mar_08_1557	s	s	10	2	SIC	181	ABS	0	0	4	2	24_4_2	NA	NA	0	1	9.63166999817	None	None	None	None	1
3.0.1	2019_Mar_08_1557	s	s	10	2	SIC	182	2_1	2	1	2	3	23_2_3	0	2	1	0	2.03108906746	338.0	173.0	346.0	171.0	1
3.0.1	2019_Mar_08_1557	s	s	10	2	SIC	183	2_2	2	2	4	4	23_4_4	2	2	1	0	0.415039777756	54.0	386.0	43.0	387.0	1
3.0.1	2019_Mar_08_1557	s	s	10	2	SIC	184	ABS	0	0	1	4	24_1_4	NA	NA	0	1	7.80873012543	None	None	None	None	1
3.0.1	2019_Mar_08_1557	s	s	10	2	SIC	185	1_3	1	3	4	3	23_4_3	3	0	1	0	0.481597900391	310.0	-389.0	316.0	-387.0	1
3.0.1	2019_Mar_08_1557	s	s	10	2	SIC	186	3_2	3	2	2	2	23_2_2	1	0	1	0	0.446290969849	227.0	160.0	215.0	166.0	1
3.0.1	2019_Mar_08_1557	s	s	10	2	SIC	187	ABS	0	0	3	3	24_3_3	NA	NA	0	1	5.3859360218	None	None	None	None	1
3.0.1	2019_Mar_08_1557	s	s	10	2	SIC	188	ABS	0	0	2	4	24_2_4	NA	NA	0	1	3.43834400177	None	None	None	None	1
3.0.1	2019_Mar_08_1557	s	s	10	2	SIC	189	ABS	0	0	4	3	24_4_3	NA	NA	0	1	5.72990679741	None	None	None	None	1
3.0.1	2019_Mar_08_1557	s	s	10	2	SIC	190	ABS	0	0	2	4	24_2_4	NA	NA	0	1	5.66162109375	None	None	None	None	1
3.0.1	2019_Mar_08_1557	s	s	10	2	SIC	191	3_1	3	1	2	3	23_2_3	1	2	1	0	0.593872070312	-453.0	137.0	-447.0	133.0	1
3.0.1	2019_Mar_08_1557	s	s	10	2	SIC	192	ABS	0	0	3	1	24_3_1	NA	NA	0	1	4.8684220314	None	None	None	None	1
3.0.1	2019_Mar_08_1557	s	s	10	2	SIC	193	3_4	3	4	2	4	23_2_4	1	0	1	0	0.469753980637	214.0	42.0	216.0	41.0	1
3.0.1	2019_Mar_08_1557	s	s	10	2	SIC	194	2_2	2	2	1	3	23_1_3	-1	1	1	0	4.48366212845	-402.0	313.0	-400.0	311.0	1
3.0.1	2019_Mar_08_1557	s	s	10	2	SIC	195	1_1	1	1	3	3	23_3_3	2	2	1	0	0.435153961182	32.0	-262.0	42.0	-264.0	1
3.0.1	2019_Mar_08_1557	s	s	10	2	SIC	196	ABS	0	0	2	2	24_2_2	NA	NA	0	1	6.7153608799	None	None	None	None	1
3.0.1	2019_Mar_08_1557	s	s	10	2	SIC	197	2_3	2	3	1	3	23_1_3	-1	0	1	0	8.93776202202	345.0	218.0	347.0	228.0	1
3.0.1	2019_Mar_08_1557	s	s	10	2	SIC	198	2_3	2	3	4	1	23_4_1	2	2	1	0	0.437546014786	-107.0	-168.0	-107.0	-167.0	1
3.0.1	2019_Mar_08_1557	s	s	10	2	SIC	199	1_4	1	4	2	3	23_2_3	1	1	1	0	0.678503036499	13.0	391.0	12.0	396.0	1
3.0.1	2019_Mar_08_1557	s	s	10	2	SIC	200	4_1	4	1	1	1	23_1_1	3	0	1	0	0.356652021408	64.0	163.0	61.0	160.0	1
3.0.1	2019_Mar_08_1557	s	s	10	2	SIC	201	ABS	0	0	4	1	24_4_1	NA	NA	0	1	4.18960094452	None	None	None	None	1
3.0.1	2019_Mar_08_1557	s	s	10	2	SIC	202	3_4	3	4	3	2	23_3_2	0	2	1	0	0.457906007767	-134.0	20.0	-135.0	16.0	1
3.0.1	2019_Mar_08_1557	s	s	10	2	SIC	203	ABS	0	0	3	2	24_3_2	NA	NA	0	1	6.80398988724	None	None	None	None	1
3.0.1	2019_Mar_08_1557	s	s	10	2	SIC	204	ABS	0	0	4	1	24_4_1	NA	NA	0	1	5.61721014977	None	None	None	None	1
3.0.1	2019_Mar_08_1557	s	s	10	2	SIC	205	4_3	4	3	2	4	23_2_4	2	-1	1	0	0.432996988297	-199.0	-286.0	-195.0	-276.0	1
3.0.1	2019_Mar_08_1557	s	s	10	2	SIC	206	2_2	2	2	1	4	23_1_4	-1	2	1	0	0.735810995102	326.0	-149.0	324.0	-143.0	1
3.0.1	2019_Mar_08_1557	s	s	10	2	SIC	207	ABS	0	0	2	1	24_2_1	NA	NA	0	1	5.84745311737	None	None	None	None	1
3.0.1	2019_Mar_08_1557	s	s	10	2	SIC	208	ABS	0	0	1	3	24_1_3	NA	NA	0	1	6.46097302437	None	None	None	None	1
3.0.1	2019_Mar_08_1557	s	s	10	2	SIC	209	4_4	4	4	2	4	23_2_4	2	0	1	0	0.456258058548	-142.0	-190.0	-141.0	-184.0	1
3.0.1	2019_Mar_08_1557	s	s	10	2	SIC	210	ABS	0	0	1	1	24_1_1	NA	NA	0	1	5.62108802795	None	None	None	None	1
3.0.1	2019_Mar_08_1557	s	s	10	2	SIC	211	ABS	0	0	1	3	24_1_3	NA	NA	0	1	6.91490602493	None	None	None	None	1
3.0.1	2019_Mar_08_1557	s	s	10	2	SIC	212	ABS	0	0	2	3	24_2_3	NA	NA	0	1	6.89140701294	None	None	None	None	1
3.0.1	2019_Mar_08_1557	s	s	10	2	SIC	213	ABS	0	0	2	1	24_2_1	NA	NA	0	1	4.30387306213	None	None	None	None	1
3.0.1	2019_Mar_08_1557	s	s	10	2	SIC	214	ABS	0	0	3	4	24_3_4	NA	NA	0	1	3.50424909592	None	None	None	None	1
3.0.1	2019_Mar_08_1557	s	s	10	2	SIC	215	4_3	4	3	3	4	23_3_4	1	-1	1	0	0.61924290657	47.0	33.0	45.0	33.0	1
3.0.1	2019_Mar_08_1557	s	s	10	2	SIC	216	4_3	4	3	3	1	23_3_1	1	2	1	0	0.486377954483	352.0	-374.0	356.0	-376.0	1
3.0.1	2019_Mar_08_1557	s	s	10	2	SIC	217	ABS	0	0	2	2	24_2_2	NA	NA	0	1	6.27296805382	None	None	None	None	1
3.0.1	2019_Mar_08_1557	s	s	10	2	SIC	218	ABS	0	0	2	4	24_2_4	NA	NA	0	1	3.52772212029	None	None	None	None	1
3.0.1	2019_Mar_08_1557	s	s	10	2	SIC	219	4_2	4	2	3	1	23_3_1	1	-1	1	0	0.509983062744	189.0	-231.0	193.0	-229.0	1
3.0.1	2019_Mar_08_1557	s	s	10	2	SIC	220	4_1	4	1	3	3	23_3_3	1	2	1	0	0.404367923737	-432.0	267.0	-432.0	274.0	1
3.0.1	2019_Mar_08_1557	s	s	10	2	SIC	221	ABS	0	0	3	4	24_3_4	NA	NA	1	0	0.53354382515	None	None	-518.0	-291.0	0
3.0.1	2019_Mar_08_1557	s	s	10	2	SIC	222	2_3	2	3	4	2	23_4_2	2	1	1	0	0.422732114792	-125.0	-256.0	-129.0	-264.0	1
3.0.1	2019_Mar_08_1557	s	s	10	2	SIC	223	ABS	0	0	1	1	24_1_1	NA	NA	0	1	5.6682639122	None	None	None	None	1
3.0.1	2019_Mar_08_1557	s	s	10	2	SIC	224	1_1	1	1	3	2	23_3_2	2	1	1	0	0.510472774506	512.0	343.0	522.0	352.0	1
3.0.1	2019_Mar_08_1557	s	s	10	2	SIC	225	3_2	3	2	1	3	23_1_3	2	1	1	0	0.437319993973	-246.0	309.0	-242.0	313.0	1
3.0.1	2019_Mar_08_1557	s	s	10	2	SIC	226	3_2	3	2	4	3	23_4_3	-1	1	1	0	0.427778959274	143.0	-143.0	144.0	-151.0	1
3.0.1	2019_Mar_08_1557	s	s	10	2	SIC	227	1_1	1	1	4	2	23_4_2	3	1	1	0	0.340636968613	421.0	-48.0	415.0	-54.0	1
3.0.1	2019_Mar_08_1557	s	s	10	2	SIC	228	4_3	4	3	1	4	23_1_4	3	-1	1	0	0.340363025665	372.0	-98.0	373.0	-102.0	1
3.0.1	2019_Mar_08_1557	s	s	10	2	SIC	229	ABS	0	0	1	1	24_1_1	NA	NA	0	1	4.55590891838	None	None	None	None	1
3.0.1	2019_Mar_08_1557	s	s	10	2	SIC	230	3_1	3	1	1	2	23_1_2	2	1	1	0	0.457927942276	-179.0	71.0	-177.0	74.0	1
3.0.1	2019_Mar_08_1557	s	s	10	2	SIC	231	ABS	0	0	3	2	24_3_2	NA	NA	0	1	5.84865808487	None	None	None	None	1
3.0.1	2019_Mar_08_1557	s	s	10	2	SIC	232	3_2	3	2	3	3	23_3_3	0	1	1	0	3.82178211212	-175.0	-267.0	-163.0	-264.0	1
3.0.1	2019_Mar_08_1557	s	s	10	2	SIC	233	ABS	0	0	2	1	24_2_1	NA	NA	0	1	8.15269207954	None	None	None	None	1
3.0.1	2019_Mar_08_1557	s	s	10	2	SIC	234	ABS	0	0	1	2	24_1_2	NA	NA	0	1	6.81226706505	None	None	None	None	1
3.0.1	2019_Mar_08_1557	s	s	10	2	SIC	235	ABS	0	0	3	2	24_3_2	NA	NA	0	1	6.24064016342	None	None	None	None	1
3.0.1	2019_Mar_08_1557	s	s	10	2	SIC	236	ABS	0	0	1	4	24_1_4	NA	NA	0	1	3.35575604439	None	None	None	None	1
3.0.1	2019_Mar_08_1557	s	s	10	2	SIC	237	ABS	0	0	4	4	24_4_4	NA	NA	0	1	3.09251999855	None	None	None	None	1
3.0.1	2019_Mar_08_1557	s	s	10	2	SIC	238	ABS	0	0	4	2	24_4_2	NA	NA	0	1	3.71584510803	None	None	None	None	1
3.0.1	2019_Mar_08_1557	s	s	10	2	SIC	239	2_3	2	3	4	3	23_4_3	2	0	1	0	0.587330102921	444.0	213.0	454.0	212.0	1
3.0.1	2019_Mar_08_1557	s	s	10	2	SIC	240	4_4	4	4	4	2	23_4_2	0	2	1	0	0.752026081085	-334.0	-288.0	-322.0	-285.0	1
3.0.1	2019_Mar_08_1557	s	s	10	2	SIC	241	ABS	0	0	2	4	24_2_4	NA	NA	0	1	2.64554905891	None	None	None	None	1
3.0.1	2019_Mar_08_1557	s	s	10	2	SIC	242	4_3	4	3	2	2	23_2_2	2	1	1	0	0.444032907486	521.0	83.0	523.0	87.0	1
3.0.1	2019_Mar_08_1557	s	s	10	2	SIC	243	1_3	1	3	4	4	23_4_4	3	-1	1	0	0.352115869522	3.0	115.0	1.0	111.0	1
3.0.1	2019_Mar_08_1557	s	s	10	2	SIC	244	ABS	0	0	1	4	24_1_4	NA	NA	0	1	3.95753002167	None	None	None	None	1
3.0.1	2019_Mar_08_1557	s	s	10	2	SIC	245	ABS	0	0	2	2	24_2_2	NA	NA	0	1	4.14247584343	None	None	None	None	1
3.0.1	2019_Mar_08_1557	s	s	10	2	SIC	246	2_4	2	4	1	3	23_1_3	-1	1	1	0	0.630692005157	99.0	-153.0	95.0	-157.0	1
3.0.1	2019_Mar_08_1557	s	s	10	2	SIC	247	2_4	2	4	1	4	23_1_4	-1	0	0	1	3.8482029438	454.0	198.0	None	None	0
3.0.1	2019_Mar_08_1557	s	s	10	2	SIC	248	3_4	3	4	2	2	23_2_2	1	2	1	0	0.622636795044	-484.0	-311.0	-481.0	-314.0	1
3.0.1	2019_Mar_08_1557	s	s	10	2	SIC	249	1_1	1	1	3	1	23_3_1	2	0	1	0	0.469717025757	-180.0	-362.0	-183.0	-366.0	1
3.0.1	2019_Mar_08_1557	s	s	10	2	SIC	250	3_3	3	3	4	2	23_4_2	-1	1	1	0	0.378551959991	46.0	-266.0	44.0	-271.0	1
3.0.1	2019_Mar_08_1557	s	s	10	2	SIC	251	2_4	2	4	1	1	23_1_1	-1	3	1	0	0.49622297287	-169.0	74.0	-172.0	79.0	1
3.0.1	2019_Mar_08_1557	s	s	10	2	SIC	252	4_4	4	4	2	3	23_2_3	2	1	1	0	0.378602981567	-412.0	311.0	-415.0	318.0	1
3.0.1	2019_Mar_08_1557	s	s	10	2	SIC	253	ABS	0	0	1	2	24_1_2	NA	NA	0	1	5.28006100655	None	None	None	None	1
3.0.1	2019_Mar_08_1557	s	s	10	2	SIC	254	2_4	2	4	1	2	23_1_2	-1	2	1	0	0.486299037933	231.0	-184.0	230.0	-183.0	1
3.0.1	2019_Mar_08_1557	s	s	10	2	SIC	255	3_2	3	2	2	4	23_2_4	1	2	1	0	0.428106069565	30.0	230.0	30.0	232.0	1
3.0.1	2019_Mar_08_1557	s	s	10	2	SIC	256	3_2	3	2	4	1	23_4_1	-1	-1	1	0	0.528591871262	155.0	-251.0	153.0	-248.0	1
3.0.1	2019_Mar_08_1557	s	s	10	2	SIC	257	ABS	0	0	3	3	24_3_3	NA	NA	0	1	5.70343017578	None	None	None	None	1
3.0.1	2019_Mar_08_1557	s	s	10	2	SIC	258	ABS	0	0	2	2	24_2_2	NA	NA	0	1	5.70963811874	None	None	None	None	1
3.0.1	2019_Mar_08_1557	s	s	10	2	SIC	259	4_1	4	1	3	1	23_3_1	1	0	1	0	0.38476395607	-298.0	306.0	-296.0	301.0	1
3.0.1	2019_Mar_08_1557	s	s	10	2	SIC	260	2_4	2	4	2	3	23_2_3	0	1	1	0	0.540364027023	-179.0	18.0	-180.0	21.0	1
3.0.1	2019_Mar_08_1557	s	s	10	2	SIC	261	2_4	2	4	4	3	23_4_3	2	1	1	0	0.378561019897	-163.0	89.0	-155.0	93.0	1
3.0.1	2019_Mar_08_1557	s	s	10	2	SIC	262	ABS	0	0	4	3	24_4_3	NA	NA	0	1	4.79845690727	None	None	None	None	1
3.0.1	2019_Mar_08_1557	s	s	10	2	SIC	263	2_4	2	4	4	2	23_4_2	2	2	1	0	0.378518104553	116.0	-98.0	119.0	-100.0	1
3.0.1	2019_Mar_08_1557	s	s	10	2	SIC	264	ABS	0	0	4	2	24_4_2	NA	NA	0	1	3.53223514557	None	None	None	None	1
3.0.1	2019_Mar_08_1557	s	s	10	2	SIC	265	ABS	0	0	3	2	24_3_2	NA	NA	0	1	5.77395701408	None	None	None	None	1
3.0.1	2019_Mar_08_1557	s	s	10	2	SIC	266	4_3	4	3	2	3	23_2_3	2	0	1	0	0.385207891464	322.0	80.0	326.0	77.0	1
3.0.1	2019_Mar_08_1557	s	s	10	2	SIC	267	4_2	4	2	3	2	23_3_2	1	0	1	0	0.36389708519	-331.0	362.0	-332.0	351.0	1
3.0.1	2019_Mar_08_1557	s	s	10	2	SIC	268	2_4	2	4	3	2	23_3_2	1	2	1	0	0.722279071808	380.0	-385.0	386.0	-380.0	1
3.0.1	2019_Mar_08_1557	s	s	10	2	SIC	269	4_2	4	2	2	1	23_2_1	2	-1	1	0	0.35214304924	-504.0	369.0	-500.0	376.0	1
3.0.1	2019_Mar_08_1557	s	s	10	2	SIC	270	ABS	0	0	1	2	24_1_2	NA	NA	0	1	6.29684185982	None	None	None	None	1
3.0.1	2019_Mar_08_1557	s	s	10	2	SIC	271	4_1	4	1	1	4	23_1_4	3	3	1	0	0.385647058487	359.0	-219.0	366.0	-216.0	1
3.0.1	2019_Mar_08_1557	s	s	10	2	SIC	272	ABS	0	0	2	4	24_2_4	NA	NA	0	1	3.43636584282	None	None	None	None	1
3.0.1	2019_Mar_08_1557	s	s	10	2	SIC	273	1_1	1	1	1	2	23_1_2	0	1	0	1	5.48502993584	-428.0	277.0	None	None	0
3.0.1	2019_Mar_08_1557	s	s	10	2	SIC	274	ABS	0	0	2	2	24_2_2	NA	NA	0	1	5.02421283722	None	None	None	None	1
3.0.1	2019_Mar_08_1557	s	s	10	2	SIC	275	ABS	0	0	1	1	24_1_1	NA	NA	0	1	5.44967913628	None	None	None	None	1
3.0.1	2019_Mar_08_1557	s	s	10	2	SIC	276	ABS	0	0	2	3	24_2_3	NA	NA	0	1	6.24953007698	None	None	None	None	1
3.0.1	2019_Mar_08_1557	s	s	10	2	SIC	277	ABS	0	0	4	2	24_4_2	NA	NA	0	1	5.14191603661	None	None	None	None	1
3.0.1	2019_Mar_08_1557	s	s	10	2	SIC	278	3_3	3	3	2	4	23_2_4	1	-1	1	0	0.545295000076	-103.0	-177.0	-100.0	-170.0	1
3.0.1	2019_Mar_08_1557	s	s	10	2	SIC	279	ABS	0	0	2	4	24_2_4	NA	NA	0	1	3.46223402023	None	None	None	None	1
3.0.1	2019_Mar_08_1557	s	s	10	2	SIC	280	4_1	4	1	2	4	23_2_4	2	3	1	0	0.40415096283	-248.0	343.0	-258.0	341.0	1
3.0.1	2019_Mar_08_1557	s	s	10	2	SIC	281	ABS	0	0	4	1	24_4_1	NA	NA	0	1	3.10426497459	None	None	None	None	1
3.0.1	2019_Mar_08_1557	s	s	10	2	SIC	282	ABS	0	0	2	1	24_2_1	NA	NA	0	1	4.02946996689	None	None	None	None	1
3.0.1	2019_Mar_08_1557	s	s	10	2	SIC	283	ABS	0	0	4	1	24_4_1	NA	NA	0	1	2.57996487617	None	None	None	None	1
3.0.1	2019_Mar_08_1557	s	s	10	2	SIC	284	ABS	0	0	2	4	24_2_4	NA	NA	0	1	4.05178809166	None	None	None	None	1
3.0.1	2019_Mar_08_1557	s	s	10	2	SIC	285	4_4	4	4	1	4	23_1_4	3	0	1	0	0.422761917114	-335.0	262.0	-336.0	257.0	1
3.0.1	2019_Mar_08_1557	s	s	10	2	SIC	286	4_2	4	2	1	4	23_1_4	3	2	1	0	0.575556993484	125.0	-93.0	136.0	-93.0	1
3.0.1	2019_Mar_08_1557	s	s	10	2	SIC	287	3_3	3	3	1	3	23_1_3	2	0	1	0	0.496608972549	136.0	371.0	128.0	374.0	1
3.0.1	2019_Mar_08_1557	s	s	10	2	SIC	288	2_3	2	3	1	2	23_1_2	-1	1	1	0	1.64588904381	373.0	-347.0	370.0	-342.0	1
3.0.1	2019_Mar_08_1557	s	s	10	2	SIC	289	3_1	3	1	4	4	23_4_4	-1	3	1	0	0.422787904739	38.0	-185.0	40.0	-182.0	1
3.0.1	2019_Mar_08_1557	s	s	10	2	SIC	290	ABS	0	0	1	1	24_1_1	NA	NA	0	1	4.81456303596	None	None	None	None	1
3.0.1	2019_Mar_08_1557	s	s	10	2	SIC	291	ABS	0	0	3	1	24_3_1	NA	NA	0	1	4.23805189133	None	None	None	None	1
3.0.1	2019_Mar_08_1557	s	s	10	2	SIC	292	ABS	0	0	3	4	24_3_4	NA	NA	0	1	3.14243006706	None	None	None	None	1
3.0.1	2019_Mar_08_1557	s	s	10	2	SIC	293	ABS	0	0	1	3	24_1_3	NA	NA	0	1	6.58770799637	None	None	None	None	1
3.0.1	2019_Mar_08_1557	s	s	10	2	SIC	294	ABS	0	0	3	2	24_3_2	NA	NA	0	1	5.77403593063	None	None	None	None	1
3.0.1	2019_Mar_08_1557	s	s	10	2	SIC	295	ABS	0	0	2	3	24_2_3	NA	NA	0	1	5.51528716087	None	None	None	None	1
3.0.1	2019_Mar_08_1557	s	s	10	2	SIC	296	ABS	0	0	1	2	24_1_2	NA	NA	0	1	7.39707994461	None	None	None	None	1
3.0.1	2019_Mar_08_1557	s	s	10	2	SIC	297	2_3	2	3	1	4	23_1_4	-1	-1	1	0	0.780698060989	-389.0	-334.0	-390.0	-335.0	1
3.0.1	2019_Mar_08_1557	s	s	10	2	SIC	298	ABS	0	0	4	2	24_4_2	NA	NA	0	1	1.98695588112	None	None	None	None	1
3.0.1	2019_Mar_08_1557	s	s	10	2	SIC	299	1_4	1	4	3	1	23_3_1	2	3	1	0	0.540371179581	65.0	-215.0	64.0	-215.0	1
3.0.1	2019_Mar_08_1557	s	s	10	2	SIC	300	2_1	2	1	1	4	23_1_4	-1	3	1	0	0.587442874908	418.0	186.0	416.0	184.0	1
3.0.1	2019_Mar_08_1557	s	s	10	2	SIC	301	2_1	2	1	4	1	23_4_1	2	0	1	0	0.383825063705	316.0	-169.0	315.0	-175.0	1
3.0.1	2019_Mar_08_1557	s	s	10	2	SIC	302	4_1	4	1	2	3	23_2_3	2	2	1	0	0.410932064056	15.0	-407.0	14.0	-414.0	1
3.0.1	2019_Mar_08_1557	s	s	10	2	SIC	303	ABS	0	0	3	1	24_3_1	NA	NA	0	1	3.7811961174	None	None	None	None	1
3.0.1	2019_Mar_08_1557	s	s	10	2	SIC	304	ABS	0	0	3	2	24_3_2	NA	NA	0	1	6.57383680344	None	None	None	None	1
3.0.1	2019_Mar_08_1557	s	s	10	2	SIC	305	ABS	0	0	1	3	24_1_3	NA	NA	0	1	4.81449508667	None	None	None	None	1
3.0.1	2019_Mar_08_1557	s	s	10	2	SIC	306	ABS	0	0	1	4	24_1_4	NA	NA	0	1	2.20155215263	None	None	None	None	1
3.0.1	2019_Mar_08_1557	s	s	10	2	SIC	307	ABS	0	0	2	1	24_2_1	NA	NA	0	1	3.72267007828	None	None	None	None	1
3.0.1	2019_Mar_08_1557	s	s	10	2	SIC	308	3_1	3	1	4	2	23_4_2	-1	1	1	0	0.555135965347	-268.0	342.0	-275.0	336.0	1
3.0.1	2019_Mar_08_1557	s	s	10	2	SIC	309	2_3	2	3	3	3	23_3_3	1	0	1	0	0.4383020401	-198.0	-177.0	-208.0	-175.0	1
3.0.1	2019_Mar_08_1557	s	s	10	2	SIC	310	ABS	0	0	4	3	24_4_3	NA	NA	0	1	4.20089817047	None	None	None	None	1
3.0.1	2019_Mar_08_1557	s	s	10	2	SIC	311	3_2	3	2	4	2	23_4_2	-1	0	1	0	0.410936117172	-285.0	-319.0	-283.0	-321.0	1
3.0.1	2019_Mar_08_1557	s	s	10	2	SIC	312	ABS	0	0	3	1	24_3_1	NA	NA	0	1	2.19865608215	None	None	None	None	1
3.0.1	2019_Mar_08_1557	s	s	10	2	SIC	313	ABS	0	0	1	4	24_1_4	NA	NA	0	1	3.71586894989	None	None	None	None	1
3.0.1	2019_Mar_08_1557	s	s	10	2	SIC	314	2_3	2	3	3	1	23_3_1	1	2	1	0	0.591461181641	-136.0	349.0	-140.0	346.0	1
3.0.1	2019_Mar_08_1557	s	s	10	2	SIC	315	1_1	1	1	1	3	23_1_3	0	2	1	0	1.76345705986	264.0	346.0	265.0	344.0	1
3.0.1	2019_Mar_08_1557	s	s	10	2	SIC	316	3_2	3	2	1	4	23_1_4	2	2	1	0	0.451740026474	34.0	-72.0	37.0	-76.0	1
3.0.1	2019_Mar_08_1557	s	s	10	2	SIC	317	1_2	1	2	2	1	23_2_1	1	-1	1	0	1.23908400536	13.0	-96.0	8.0	-89.0	1
3.0.1	2019_Mar_08_1557	s	s	10	2	SIC	318	ABS	0	0	1	2	24_1_2	NA	NA	0	1	4.82136797905	None	None	None	None	1
3.0.1	2019_Mar_08_1557	s	s	10	2	SIC	319	3_1	3	1	4	1	23_4_1	-1	0	1	0	0.481586933136	520.0	-306.0	520.0	-297.0	1
3.0.1	2019_Mar_08_1557	s	s	10	2	SIC	320	3_4	3	4	1	2	23_1_2	2	2	1	0	0.451930046082	185.0	-78.0	191.0	-76.0	1
3.0.1	2019_Mar_08_1557	s	s	10	2	SIC	321	1_4	1	4	4	2	23_4_2	3	2	1	0	0.369337081909	-410.0	113.0	-412.0	115.0	1
3.0.1	2019_Mar_08_1557	s	s	10	2	SIC	322	1_3	1	3	2	2	23_2_2	1	1	1	0	2.49798488617	282.0	359.0	282.0	359.0	1
3.0.1	2019_Mar_08_1557	s	s	10	2	SIC	323	1_3	1	3	3	3	23_3_3	2	0	1	0	0.434538841248	436.0	-197.0	430.0	-204.0	1
3.0.1	2019_Mar_08_1557	s	s	10	2	SIC	324	ABS	0	0	1	3	24_1_3	NA	NA	0	1	5.56520700455	None	None	None	None	1
3.0.1	2019_Mar_08_1557	s	s	10	2	SIC	325	ABS	0	0	2	2	24_2_2	NA	NA	0	1	6.58562111855	None	None	None	None	1
3.0.1	2019_Mar_08_1557	s	s	10	2	SIC	326	1_4	1	4	2	4	23_2_4	1	0	1	0	7.14752602577	-460.0	114.0	-456.0	111.0	1
3.0.1	2019_Mar_08_1557	s	s	10	2	SIC	327	ABS	0	0	3	4	24_3_4	NA	NA	0	1	2.62657594681	None	None	None	None	1
3.0.1	2019_Mar_08_1557	s	s	10	2	SIC	328	1_4	1	4	4	3	23_4_3	3	1	1	0	0.457919120789	400.0	-21.0	405.0	-22.0	1
3.0.1	2019_Mar_08_1557	s	s	10	2	SIC	329	ABS	0	0	4	2	24_4_2	NA	NA	0	1	6.21442198753	None	None	None	None	1
3.0.1	2019_Mar_08_1557	s	s	10	2	SIC	330	ABS	0	0	2	2	24_2_2	NA	NA	0	1	6.29159283638	None	None	None	None	1
3.0.1	2019_Mar_08_1557	s	s	10	2	SIC	331	ABS	0	0	2	4	24_2_4	NA	NA	0	1	4.9209189415	None	None	None	None	1
3.0.1	2019_Mar_08_1557	s	s	10	2	SIC	332	ABS	0	0	2	1	24_2_1	NA	NA	0	1	4.88432908058	None	None	None	None	1
3.0.1	2019_Mar_08_1557	s	s	10	2	SIC	333	2_4	2	4	3	4	23_3_4	1	0	1	0	0.796235084534	-98.0	-151.0	-100.0	-153.0	1
3.0.1	2019_Mar_08_1557	s	s	10	2	SIC	334	ABS	0	0	3	2	24_3_2	NA	NA	0	1	4.10889196396	None	None	None	None	1
3.0.1	2019_Mar_08_1557	s	s	10	2	SIC	335	1_2	1	2	4	4	23_4_4	3	2	1	0	0.422774791718	-357.0	192.0	-352.0	194.0	1
3.0.1	2019_Mar_08_1557	s	s	10	2	SIC	336	ABS	0	0	3	4	24_3_4	NA	NA	0	1	2.95533084869	None	None	None	None	1
3.0.1	2019_Mar_08_1557	s	s	10	2	SIC	337	ABS	0	0	3	4	24_3_4	NA	NA	0	1	2.46917080879	None	None	None	None	1
3.0.1	2019_Mar_08_1557	s	s	10	2	SIC	338	ABS	0	0	4	4	24_4_4	NA	NA	0	1	2.51623010635	None	None	None	None	1
3.0.1	2019_Mar_08_1557	s	s	10	2	SIC	339	1_2	1	2	1	4	23_1_4	0	2	1	0	0.56797504425	481.0	269.0	486.0	263.0	1
3.0.1	2019_Mar_08_1557	s	s	10	2	SIC	340	4_4	4	4	4	1	23_4_1	0	3	1	0	0.555057048798	-467.0	-263.0	-462.0	-259.0	1
3.0.1	2019_Mar_08_1557	s	s	10	2	SIC	341	ABS	0	0	2	3	24_2_3	NA	NA	0	1	5.80932807922	None	None	None	None	1
3.0.1	2019_Mar_08_1557	s	s	10	2	SIC	342	3_3	3	3	4	4	23_4_4	-1	-1	1	0	0.383999824524	-441.0	-2.0	-438.0	0.0	1
3.0.1	2019_Mar_08_1557	s	s	10	2	SIC	343	4_4	4	4	1	2	23_1_2	3	2	1	0	0.404377937317	-270.0	-168.0	-270.0	-179.0	1
3.0.1	2019_Mar_08_1557	s	s	10	2	SIC	344	ABS	0	0	3	3	24_3_3	NA	NA	0	1	4.56828808784	None	None	None	None	1
3.0.1	2019_Mar_08_1557	s	s	10	2	SIC	345	ABS	0	0	3	4	24_3_4	NA	NA	0	1	3.25039482117	None	None	None	None	1
3.0.1	2019_Mar_08_1557	s	s	10	2	SIC	346	ABS	0	0	3	4	24_3_4	NA	NA	0	1	3.14684200287	None	None	None	None	1
3.0.1	2019_Mar_08_1557	s	s	10	2	SIC	347	ABS	0	0	4	2	24_4_2	NA	NA	0	1	2.11632490158	None	None	None	None	1
3.0.1	2019_Mar_08_1557	s	s	10	2	SIC	348	2_2	2	2	3	2	23_3_2	1	0	1	0	0.474863052368	-303.0	43.0	-295.0	40.0	1
3.0.1	2019_Mar_08_1557	s	s	10	2	SIC	349	ABS	0	0	3	3	24_3_3	NA	NA	0	1	4.66206812859	None	None	None	None	1
3.0.1	2019_Mar_08_1557	s	s	10	2	SIC	350	3_2	3	2	1	1	23_1_1	2	-1	1	0	0.533364057541	0.0	187.0	-2.0	191.0	1
3.0.1	2019_Mar_08_1557	s	s	10	2	SIC	351	3_1	3	1	1	3	23_1_3	2	2	1	0	0.399162054062	115.0	66.0	109.0	65.0	1
3.0.1	2019_Mar_08_1557	s	s	10	2	SIC	352	ABS	0	0	1	2	24_1_2	NA	NA	0	1	4.20754384995	None	None	None	None	1
3.0.1	2019_Mar_08_1557	s	s	10	2	SIC	353	ABS	0	0	3	1	24_3_1	NA	NA	0	1	3.32785201073	None	None	None	None	1
3.0.1	2019_Mar_08_1557	s	s	10	2	SIC	354	ABS	0	0	1	3	24_1_3	NA	NA	0	1	4.7979259491	None	None	None	None	1
3.0.1	2019_Mar_08_1557	s	s	10	2	SIC	355	2_2	2	2	2	1	23_2_1	0	-1	0	1	4.48528695107	32.0	-233.0	None	None	0
3.0.1	2019_Mar_08_1557	s	s	10	2	SIC	356	3_4	3	4	2	3	23_2_3	1	1	1	0	0.474718093872	267.0	-72.0	271.0	-75.0	1
3.0.1	2019_Mar_08_1557	s	s	10	2	SIC	357	ABS	0	0	1	4	24_1_4	NA	NA	0	1	3.70410299301	None	None	None	None	1
3.0.1	2019_Mar_08_1557	s	s	10	2	SIC	358	4_3	4	3	3	3	23_3_3	1	0	1	0	0.399132966995	21.0	239.0	20.0	239.0	1
3.0.1	2019_Mar_08_1557	s	s	10	2	SIC	359	1_1	1	1	3	4	23_3_4	2	3	1	0	0.41596198082	-162.0	-173.0	-164.0	-177.0	1
3.0.1	2019_Mar_08_1557	s	s	10	2	SIC	360	1_4	1	4	4	4	23_4_4	3	0	1	0	0.379487991333	153.0	323.0	155.0	333.0	1
3.0.1	2019_Mar_08_1557	s	s	10	2	SIC	361	ABS	0	0	2	4	24_2_4	NA	NA	0	1	3.61288118362	None	None	None	None	1
3.0.1	2019_Mar_08_1557	s	s	10	2	SIC	362	ABS	0	0	1	1	24_1_1	NA	NA	0	1	7.16638994217	None	None	None	None	1
3.0.1	2019_Mar_08_1557	s	s	10	2	SIC	363	1_2	1	2	2	2	23_2_2	1	0	1	0	4.70891499519	-67.0	-376.0	-60.0	-367.0	1
3.0.1	2019_Mar_08_1557	s	s	10	2	SIC	364	4_2	4	2	3	4	23_3_4	1	2	1	0	0.387413978577	-303.0	152.0	-300.0	160.0	1
3.0.1	2019_Mar_08_1557	s	s	10	2	SIC	365	ABS	0	0	1	3	24_1_3	NA	NA	0	1	6.54143404961	None	None	None	None	1
3.0.1	2019_Mar_08_1557	s	s	10	2	SIC	366	2_1	2	1	4	2	23_4_2	2	1	1	0	0.392665147781	-300.0	288.0	-302.0	287.0	1
3.0.1	2019_Mar_08_1557	s	s	10	2	SIC	367	4_2	4	2	1	1	23_1_1	3	-1	1	0	0.35737991333	-307.0	-62.0	-309.0	-65.0	1
3.0.1	2019_Mar_08_1557	s	s	10	2	SIC	368	1_3	1	3	3	4	23_3_4	2	-1	1	0	0.510010004044	-526.0	10.0	-515.0	16.0	1
3.0.1	2019_Mar_08_1557	s	s	10	2	SIC	369	ABS	0	0	1	1	24_1_1	NA	NA	0	1	4.24001002312	None	None	None	None	1
3.0.1	2019_Mar_08_1557	s	s	10	2	SIC	370	ABS	0	0	4	1	24_4_1	NA	NA	0	1	2.8849170208	None	None	None	None	1
3.0.1	2019_Mar_08_1557	s	s	10	2	SIC	371	ABS	0	0	2	3	24_2_3	NA	NA	0	1	7.92629504204	None	None	None	None	1
3.0.1	2019_Mar_08_1557	s	s	10	2	SIC	372	2_4	2	4	2	1	23_2_1	0	3	1	0	0.516822099686	-306.0	104.0	-315.0	105.0	1
3.0.1	2019_Mar_08_1557	s	s	10	2	SIC	373	3_1	3	1	1	1	23_1_1	2	0	1	0	0.657953023911	532.0	-230.0	534.0	-230.0	1
3.0.1	2019_Mar_08_1557	s	s	10	2	SIC	374	4_3	4	3	4	4	23_4_4	0	-1	1	0	0.803580999374	331.0	-160.0	326.0	-158.0	1
3.0.1	2019_Mar_08_1557	s	s	10	2	SIC	375	ABS	0	0	3	4	24_3_4	NA	NA	0	1	2.87391591072	None	None	None	None	1
3.0.1	2019_Mar_08_1557	s	s	10	2	SIC	376	2_1	2	1	4	4	23_4_4	2	3	1	0	0.399302959442	-460.0	271.0	-450.0	270.0	1
3.0.1	2019_Mar_08_1557	s	s	10	2	SIC	377	2_3	2	3	2	4	23_2_4	0	-1	1	0	0.657946109772	59.0	-278.0	49.0	-279.0	1
3.0.1	2019_Mar_08_1557	s	s	10	2	SIC	378	2_2	2	2	3	3	23_3_3	1	1	1	0	0.387872934341	246.0	214.0	246.0	216.0	1
3.0.1	2019_Mar_08_1557	s	s	10	2	SIC	379	3_4	3	4	1	4	23_1_4	2	0	1	0	0.441644191742	213.0	5.0	202.0	5.0	1
3.0.1	2019_Mar_08_1557	s	s	10	2	SIC	380	1_4	1	4	3	4	23_3_4	2	0	1	0	0.431967020035	232.0	-123.0	226.0	-121.0	1
3.0.1	2019_Mar_08_1557	s	s	10	2	SIC	381	ABS	0	0	3	4	24_3_4	NA	NA	0	1	4.15099215508	None	None	None	None	1
3.0.1	2019_Mar_08_1557	s	s	10	2	SIC	382	ABS	0	0	3	1	24_3_1	NA	NA	0	1	3.13961601257	None	None	None	None	1
3.0.1	2019_Mar_08_1557	s	s	10	2	SIC	383	ABS	0	0	3	1	24_3_1	NA	NA	0	1	2.75613212585	None	None	None	None	1
3.0.1	2019_Mar_08_1557	s	s	10	2	SIC	384	2_1	2	1	2	2	23_2_2	0	1	0	1	5.97260499001	-512.0	49.0	None	None	0
3.0.1	2019_Mar_08_1557	s	s	10	2	SIC	385	ABS	0	0	3	3	24_3_3	NA	NA	0	1	4.88020896912	None	None	None	None	1
3.0.1	2019_Mar_08_1557	s	s	10	2	SIC	386	ABS	0	0	1	4	24_1_4	NA	NA	0	1	4.38620185852	None	None	None	None	1
3.0.1	2019_Mar_08_1557	s	s	10	2	SIC	387	2_3	2	3	3	4	23_3_4	1	-1	1	0	0.669700860977	-422.0	283.0	-411.0	285.0	1
3.0.1	2019_Mar_08_1557	s	s	10	2	SIC	388	ABS	0	0	4	2	24_4_2	NA	NA	0	1	4.1320848465	None	None	None	None	1
3.0.1	2019_Mar_08_1557	s	s	10	2	SIC	389	ABS	0	0	4	4	24_4_4	NA	NA	0	1	2.43678402901	None	None	None	None	1
3.0.1	2019_Mar_08_1557	s	s	10	2	SIC	390	4_2	4	2	4	3	23_4_3	0	1	1	0	1.20741200447	-155.0	-182.0	-160.0	-186.0	1
3.0.1	2019_Mar_08_1557	s	s	10	2	SIC	391	ABS	0	0	2	3	24_2_3	NA	NA	0	1	7.8674697876	None	None	None	None	1
3.0.1	2019_Mar_08_1557	s	s	10	2	SIC	392	ABS	0	0	4	1	24_4_1	NA	NA	0	1	2.39106917381	None	None	None	None	1
3.0.1	2019_Mar_08_1557	s	s	10	2	SIC	393	ABS	0	0	2	1	24_2_1	NA	NA	0	1	4.82140398026	None	None	None	None	1
3.0.1	2019_Mar_08_1557	s	s	10	2	SIC	394	ABS	0	0	3	2	24_3_2	NA	NA	0	1	4.28501391411	None	None	None	None	1
3.0.1	2019_Mar_08_1557	s	s	10	2	SIC	395	2_2	2	2	1	1	23_1_1	-1	-1	0	1	4.23327994347	-516.0	100.0	None	None	0
3.0.1	2019_Mar_08_1557	s	s	10	2	SIC	396	ABS	0	0	4	3	24_4_3	NA	NA	0	1	5.31828403473	None	None	None	None	1
3.0.1	2019_Mar_08_1557	s	s	10	2	SIC	397	ABS	0	0	2	1	24_2_1	NA	NA	0	1	3.84905195236	None	None	None	None	1
3.0.1	2019_Mar_08_1557	s	s	10	2	SIC	398	ABS	0	0	4	3	24_4_3	NA	NA	0	1	5.23796701431	None	None	None	None	1
3.0.1	2019_Mar_08_1557	s	s	10	2	SIC	399	4_2	4	2	1	2	23_1_2	3	0	1	0	0.455706119537	296.0	42.0	288.0	37.0	1
3.0.1	2019_Mar_08_1557	s	s	10	2	SIC	400	ABS	0	0	4	4	24_4_4	NA	NA	0	1	5.99202108383	None	None	None	None	1
3.0.1	2019_Mar_08_1557	s	s	10	2	SIC	401	ABS	0	0	4	4	24_4_4	NA	NA	0	1	4.68017911911	None	None	None	None	1
3.0.1	2019_Mar_08_1557	s	s	10	2	SIC	402	ABS	0	0	4	3	24_4_3	NA	NA	0	1	6.64433979988	None	None	None	None	1
3.0.1	2019_Mar_08_1557	s	s	10	2	SIC	403	3_1	3	1	2	1	23_2_1	1	0	1	0	0.546622991562	-488.0	165.0	-492.0	169.0	1
3.0.1	2019_Mar_08_1557	s	s	10	2	SIC	404	1_2	1	2	3	3	23_3_3	2	1	1	0	0.569710016251	406.0	-332.0	405.0	-330.0	1
3.0.1	2019_Mar_08_1557	s	s	10	2	SIC	405	ABS	0	0	4	3	24_4_3	NA	NA	0	1	5.1418299675	None	None	None	None	1
3.0.1	2019_Mar_08_1557	s	s	10	2	SIC	406	2_2	2	2	4	1	23_4_1	2	-1	1	0	0.611232995987	13.0	-372.0	8.0	-362.0	1
3.0.1	2019_Mar_08_1557	s	s	10	2	SIC	407	ABS	0	0	4	3	24_4_3	NA	NA	0	1	4.53277397156	None	None	None	None	1
3.0.1	2019_Mar_08_1557	s	s	10	2	SIC	408	ABS	0	0	1	4	24_1_4	NA	NA	0	1	3.8099219799	None	None	None	None	1
3.0.1	2019_Mar_08_1557	s	s	10	2	SIC	409	ABS	0	0	3	2	24_3_2	NA	NA	0	1	4.80967903137	None	None	None	None	1
3.0.1	2019_Mar_08_1557	s	s	10	2	SIC	410	ABS	0	0	4	2	24_4_2	NA	NA	0	1	3.92792582512	None	None	None	None	1
3.0.1	2019_Mar_08_1557	s	s	10	2	SIC	411	2_3	2	3	3	2	23_3_2	1	1	1	0	0.610934972763	-133.0	378.0	-126.0	371.0	1
3.0.1	2019_Mar_08_1557	s	s	10	2	SIC	412	3_4	3	4	4	1	23_4_1	-1	3	1	0	0.768470048904	66.0	-134.0	62.0	-129.0	1
3.0.1	2019_Mar_08_1557	s	s	10	2	SIC	413	1_1	1	1	4	3	23_4_3	3	2	1	0	0.834378957748	-110.0	323.0	-107.0	319.0	1
3.0.1	2019_Mar_08_1557	s	s	10	2	SIC	414	ABS	0	0	1	3	24_1_3	NA	NA	0	1	6.59726119041	None	None	None	None	1
3.0.1	2019_Mar_08_1557	s	s	10	2	SIC	415	ABS	0	0	4	1	24_4_1	NA	NA	0	1	1.42237305641	None	None	None	None	1
3.0.1	2019_Mar_08_1557	s	s	10	2	SIC	416	3_4	3	4	4	4	23_4_4	-1	0	1	0	0.429332971573	-34.0	-366.0	-30.0	-363.0	1
3.0.1	2019_Mar_08_1557	s	s	10	2	SIC	417	ABS	0	0	1	4	24_1_4	NA	NA	0	1	3.11759901047	None	None	None	None	1
3.0.1	2019_Mar_08_1557	s	s	10	2	SIC	418	ABS	0	0	3	1	24_3_1	NA	NA	0	1	1.61992716789	None	None	None	None	1
3.0.1	2019_Mar_08_1557	s	s	10	2	SIC	419	3_3	3	3	2	2	23_2_2	1	1	1	0	0.613786935806	-454.0	58.0	-445.0	54.0	1
3.0.1	2019_Mar_08_1557	s	s	10	2	SIC	420	3_4	3	4	4	2	23_4_2	-1	2	1	0	0.392545938492	252.0	55.0	254.0	56.0	1
3.0.1	2019_Mar_08_1557	s	s	10	2	SIC	421	ABS	0	0	2	3	24_2_3	NA	NA	0	1	5.29177999496	None	None	None	None	1
3.0.1	2019_Mar_08_1557	s	s	10	2	SIC	422	ABS	0	0	4	3	24_4_3	NA	NA	0	1	6.22094202042	None	None	None	None	1
3.0.1	2019_Mar_08_1557	s	s	10	2	SIC	423	ABS	0	0	3	3	24_3_3	NA	NA	0	1	4.25180697441	None	None	None	None	1
3.0.1	2019_Mar_08_1557	s	s	10	2	SIC	424	2_2	2	2	4	2	23_4_2	2	0	1	0	0.474959850311	-55.0	209.0	-56.0	213.0	1
3.0.1	2019_Mar_08_1557	s	s	10	2	SIC	425	1_2	1	2	4	1	23_4_1	3	-1	1	0	0.387377023697	-63.0	-317.0	-65.0	-319.0	1
3.0.1	2019_Mar_08_1557	s	s	10	2	SIC	426	4_3	4	3	4	1	23_4_1	0	2	1	0	1.61894583702	-100.0	146.0	-103.0	149.0	1
3.0.1	2019_Mar_08_1557	s	s	10	2	SIC	427	ABS	0	0	1	4	24_1_4	NA	NA	0	1	3.54990410805	None	None	None	None	1
3.0.1	2019_Mar_08_1557	s	s	10	2	SIC	428	4_4	4	4	3	2	23_3_2	1	2	1	0	0.426608085632	524.0	279.0	526.0	281.0	1
3.0.1	2019_Mar_08_1557	s	s	10	2	SIC	429	ABS	0	0	3	2	24_3_2	NA	NA	0	1	7.04938793182	None	None	None	None	1
3.0.1	2019_Mar_08_1557	s	s	10	2	SIC	430	ABS	0	0	1	3	24_1_3	NA	NA	0	1	5.96516108513	None	None	None	None	1
3.0.1	2019_Mar_08_1557	s	s	10	2	SIC	431	ABS	0	0	4	1	24_4_1	NA	NA	0	1	2.87551689148	None	None	None	None	1
3.0.1	2019_Mar_08_1557	s	s	10	2	SIC	432	4_3	4	3	3	2	23_3_2	1	1	1	0	0.470005989075	496.0	-213.0	501.0	-207.0	1
3.0.1	2019_Mar_08_1557	s	s	10	2	SIC	433	1_3	1	3	4	2	23_4_2	3	1	1	0	0.367187023163	-116.0	-353.0	-129.0	-350.0	1
3.0.1	2019_Mar_08_1557	s	s	10	2	SIC	434	3_2	3	2	2	3	23_2_3	1	1	1	0	0.458008050919	89.0	-132.0	86.0	-123.0	1
3.0.1	2019_Mar_08_1557	s	s	10	2	SIC	435	ABS	0	0	1	4	24_1_4	NA	NA	0	1	3.65708589554	None	None	None	None	1
3.0.1	2019_Mar_08_1557	s	s	10	2	SIC	436	ABS	0	0	4	4	24_4_4	NA	NA	0	1	3.55987000465	None	None	None	None	1
3.0.1	2019_Mar_08_1557	s	s	10	2	SIC	437	4_2	4	2	2	3	23_2_3	2	1	1	0	0.378585100174	278.0	220.0	271.0	219.0	1
3.0.1	2019_Mar_08_1557	s	s	10	2	SIC	438	4_3	4	3	1	3	23_1_3	3	0	1	0	0.378577947617	-475.0	-111.0	-468.0	-111.0	1
3.0.1	2019_Mar_08_1557	s	s	10	2	SIC	439	1_1	1	1	4	1	23_4_1	3	0	1	0	0.325454950333	-191.0	-157.0	-179.0	-147.0	1
3.0.1	2019_Mar_08_1557	s	s	10	2	SIC	440	ABS	0	0	1	1	24_1_1	NA	NA	0	1	3.26005101204	None	None	None	None	1
3.0.1	2019_Mar_08_1557	s	s	10	2	SIC	441	1_1	1	1	2	2	23_2_2	1	1	1	0	4.77466106415	384.0	-216.0	383.0	-214.0	1
3.0.1	2019_Mar_08_1557	s	s	10	2	SIC	442	2_4	2	4	2	2	23_2_2	0	2	1	0	0.520640850067	31.0	-179.0	25.0	-178.0	1
3.0.1	2019_Mar_08_1557	s	s	10	2	SIC	443	4_2	4	2	2	2	23_2_2	2	0	1	0	0.384645938873	177.0	-359.0	176.0	-356.0	1
3.0.1	2019_Mar_08_1557	s	s	10	2	SIC	444	ABS	0	0	4	1	24_4_1	NA	NA	0	1	3.05718398094	None	None	None	None	1
3.0.1	2019_Mar_08_1557	s	s	10	2	SIC	445	ABS	0	0	4	3	24_4_3	NA	NA	0	1	4.57929611206	None	None	None	None	1
3.0.1	2019_Mar_08_1557	s	s	10	2	SIC	446	ABS	0	0	2	2	24_2_2	NA	NA	0	1	6.78548288345	None	None	None	None	1
3.0.1	2019_Mar_08_1557	s	s	10	2	SIC	447	4_4	4	4	1	1	23_1_1	3	3	1	0	0.486601829529	401.0	387.0	405.0	392.0	1
3.0.1	2019_Mar_08_1557	s	s	10	2	SIC	448	3_4	3	4	3	3	23_3_3	0	1	1	0	1.99869704247	293.0	-400.0	299.0	-395.0	1
3.0.1	2019_Mar_08_1557	s	s	10	2	SIC	449	1_1	1	1	1	4	23_1_4	0	3	1	0	0.613504886627	104.0	-362.0	110.0	-356.0	1
3.0.1	2019_Mar_08_1557	s	s	10	2	SIC	450	3_2	3	2	2	1	23_2_1	1	-1	1	0	0.886620044708	-25.0	240.0	-27.0	235.0	1
3.0.1	2019_Mar_08_1557	s	s	10	2	SIC	451	ABS	0	0	3	3	24_3_3	NA	NA	0	1	9.64388585091	None	None	None	None	1
3.0.1	2019_Mar_08_1557	s	s	10	2	SIC	452	3_4	3	4	1	3	23_1_3	2	1	1	0	0.646270990372	-416.0	-355.0	-418.0	-352.0	1
3.0.1	2019_Mar_08_1557	s	s	10	2	SIC	453	3_1	3	1	2	2	23_2_2	1	1	1	0	0.602039813995	73.0	305.0	74.0	298.0	1
3.0.1	2019_Mar_08_1557	s	s	10	2	SIC	454	4_1	4	1	3	4	23_3_4	1	3	1	0	0.410924911499	-407.0	-124.0	-420.0	-120.0	1
3.0.1	2019_Mar_08_1557	s	s	10	2	SIC	455	ABS	0	0	4	4	24_4_4	NA	NA	0	1	3.42182397842	None	None	None	None	1
3.0.1	2019_Mar_08_1557	s	s	10	2	SIC	456	1_4	1	4	2	1	23_2_1	1	3	1	0	0.592143058777	56.0	-275.0	58.0	-271.0	1
3.0.1	2019_Mar_08_1557	s	s	10	2	SIC	457	2_3	2	3	4	4	23_4_4	2	-1	1	0	0.403861045837	-534.0	-103.0	-526.0	-109.0	1
3.0.1	2019_Mar_08_1557	s	s	10	2	SIC	458	4_4	4	4	2	2	23_2_2	2	2	1	0	0.387540102005	-381.0	294.0	-385.0	294.0	1
3.0.1	2019_Mar_08_1557	s	s	10	2	SIC	459	ABS	0	0	3	4	24_3_4	NA	NA	0	1	2.48868584633	None	None	None	None	1
3.0.1	2019_Mar_08_1557	s	s	10	2	SIC	460	2_1	2	1	3	4	23_3_4	1	3	1	0	0.415386199951	37.0	-214.0	38.0	-232.0	1
3.0.1	2019_Mar_08_1557	s	s	10	2	SIC	461	ABS	0	0	3	3	24_3_3	NA	NA	0	1	5.05057311058	None	None	None	None	1
3.0.1	2019_Mar_08_1557	s	s	10	2	SIC	462	ABS	0	0	3	4	24_3_4	NA	NA	0	1	3.40119695663	None	None	None	None	1
3.0.1	2019_Mar_08_1557	s	s	10	2	SIC	463	ABS	0	0	1	2	24_1_2	NA	NA	0	1	7.09654808044	None	None	None	None	1
3.0.1	2019_Mar_08_1557	s	s	10	2	SIC	464	4_1	4	1	1	2	23_1_2	3	1	1	0	0.387461900711	-314.0	146.0	-312.0	148.0	1
3.0.1	2019_Mar_08_1557	s	s	10	2	SIC	465	1_3	1	3	2	4	23_2_4	1	-1	1	0	0.564422130585	459.0	-47.0	457.0	-52.0	1
3.0.1	2019_Mar_08_1557	s	s	10	2	SIC	466	4_2	4	2	1	3	23_1_3	3	1	1	0	0.367217063904	-179.0	-268.0	-180.0	-262.0	1
3.0.1	2019_Mar_08_1557	s	s	10	2	SIC	467	2_1	2	1	3	1	23_3_1	1	0	1	0	0.437385082245	-38.0	2.0	-35.0	12.0	1
3.0.1	2019_Mar_08_1557	s	s	10	2	SIC	468	3_1	3	1	2	4	23_2_4	1	3	1	0	0.481964111328	-432.0	-182.0	-437.0	-176.0	1
3.0.1	2019_Mar_08_1557	s	s	10	2	SIC	469	ABS	0	0	2	3	24_2_3	NA	NA	0	1	5.72201514244	None	None	None	None	1
3.0.1	2019_Mar_08_1557	s	s	10	2	SIC	470	3_4	3	4	1	1	23_1_1	2	3	1	0	0.446278810501	129.0	-327.0	132.0	-321.0	1
3.0.1	2019_Mar_08_1557	s	s	10	2	SIC	471	ABS	0	0	1	3	24_1_3	NA	NA	0	1	4.15095090866	None	None	None	None	1
3.0.1	2019_Mar_08_1557	s	s	10	2	SIC	472	2_4	2	4	4	4	23_4_4	2	0	1	0	0.369302034378	250.0	147.0	250.0	146.0	1
3.0.1	2019_Mar_08_1557	s	s	10	2	SIC	473	ABS	0	0	2	2	24_2_2	NA	NA	0	1	5.06838202477	None	None	None	None	1
3.0.1	2019_Mar_08_1557	s	s	10	2	SIC	474	2_3	2	3	1	1	23_1_1	-1	2	1	0	0.886296033859	-358.0	149.0	-352.0	152.0	1
3.0.1	2019_Mar_08_1557	s	s	10	2	SIC	475	ABS	0	0	4	4	24_4_4	NA	NA	0	1	1.61356592178	None	None	None	None	1
3.0.1	2019_Mar_08_1557	s	s	10	2	SIC	476	ABS	0	0	3	3	24_3_3	NA	NA	0	1	3.79362797737	None	None	None	None	1
3.0.1	2019_Mar_08_1557	s	s	10	2	SIC	477	2_1	2	1	2	4	23_2_4	0	3	1	0	1.0404188633	-121.0	-384.0	-110.0	-380.0	1
3.0.1	2019_Mar_08_1557	s	s	10	2	SIC	478	3_2	3	2	3	1	23_3_1	0	-1	1	0	2.10496306419	227.0	373.0	236.0	369.0	1
3.0.1	2019_Mar_08_1557	s	s	10	2	SIC	479	4_2	4	2	4	1	23_4_1	0	-1	0	1	2.01053190231	439.0	207.0	None	None	0
3.0.1	2019_Mar_08_1557	s	s	10	2	SIC	480	ABS	0	0	2	1	24_2_1	NA	NA	0	1	5.02420401573	None	None	None	None	1
