Version	Date	Stimuli	Method	Subject	Session	Condition	Trial	Target	TColor	TShape	DColor	DShape	Distractors	Channel1	Channel2	LMouseButton	RMouseButton	RT	TargetX	TargetY	ResponseX	ResponseY	Correct
3.0.1	2019_Mar_07_1540	s	s	10	1	Capacity	1	ABS	0	0	2	1	24_2_1	NA	NA	0	1	4.89237499237	None	None	None	None	1
3.0.1	2019_Mar_07_1540	s	s	10	1	Capacity	2	ABS	0	0	1	1	24_1_1	NA	NA	0	1	5.08310198784	None	None	None	None	1
3.0.1	2019_Mar_07_1540	s	s	10	1	Capacity	3	1_1	1	1	3	1	23_3_1	2	0	1	0	0.554972887039	-23.0	-4.0	-32.0	4.0	1
3.0.1	2019_Mar_07_1540	s	s	10	1	Capacity	4	ABS	0	0	1	1	24_1_1	NA	NA	0	1	1.3785200119	None	None	None	None	1
3.0.1	2019_Mar_07_1540	s	s	10	1	Capacity	5	ABS	0	0	2	1	24_2_1	NA	NA	0	1	3.2218670845	None	None	None	None	1
3.0.1	2019_Mar_07_1540	s	s	10	1	Capacity	6	ABS	0	0	2	1	24_2_1	NA	NA	0	1	2.07434201241	None	None	None	None	1
3.0.1	2019_Mar_07_1540	s	s	10	1	Capacity	7	ABS	0	0	3	1	24_3_1	NA	NA	0	1	1.62783193588	None	None	None	None	1
3.0.1	2019_Mar_07_1540	s	s	10	1	Capacity	8	4_1	4	1	3	1	23_3_1	1	0	1	0	0.613839149475	-242.0	-346.0	-232.0	-342.0	1
3.0.1	2019_Mar_07_1540	s	s	10	1	Capacity	9	2_1	2	1	3	1	23_3_1	1	0	1	0	1.78061389923	-106.0	349.0	-102.0	354.0	1
3.0.1	2019_Mar_07_1540	s	s	10	1	Capacity	10	ABS	0	0	1	1	24_1_1	NA	NA	0	1	4.45716905594	None	None	None	None	1
3.0.1	2019_Mar_07_1540	s	s	10	1	Capacity	11	1_1	1	1	2	1	23_2_1	1	0	1	0	5.56239008904	-38.0	-289.0	-38.0	-293.0	1
3.0.1	2019_Mar_07_1540	s	s	10	1	Capacity	12	ABS	0	0	4	1	24_4_1	NA	NA	0	1	4.4803340435	None	None	None	None	1
3.0.1	2019_Mar_07_1540	s	s	10	1	Capacity	13	ABS	0	0	4	1	24_4_1	NA	NA	0	1	9.460283041	None	None	None	None	1
3.0.1	2019_Mar_07_1540	s	s	10	1	Capacity	14	ABS	0	0	4	1	24_4_1	NA	NA	0	1	4.06590604782	None	None	None	None	1
3.0.1	2019_Mar_07_1540	s	s	10	1	Capacity	15	2_1	2	1	1	1	23_1_1	-1	0	1	0	9.0907099247	-378.0	-355.0	-380.0	-358.0	1
3.0.1	2019_Mar_07_1540	s	s	10	1	Capacity	16	1_1	1	1	4	1	23_4_1	3	0	1	0	0.516849040985	-103.0	-150.0	-111.0	-155.0	1
3.0.1	2019_Mar_07_1540	s	s	10	1	Capacity	17	3_1	3	1	2	1	23_2_1	1	0	1	0	0.881386995316	112.0	392.0	115.0	390.0	1
3.0.1	2019_Mar_07_1540	s	s	10	1	Capacity	18	3_1	3	1	1	1	23_1_1	2	0	1	0	0.54570889473	-400.0	132.0	-395.0	138.0	1
3.0.1	2019_Mar_07_1540	s	s	10	1	Capacity	19	3_1	3	1	4	1	23_4_1	-1	0	1	0	0.442019939423	-134.0	21.0	-138.0	25.0	1
3.0.1	2019_Mar_07_1540	s	s	10	1	Capacity	20	ABS	0	0	3	1	24_3_1	NA	NA	0	1	6.32298707962	None	None	None	None	1
3.0.1	2019_Mar_07_1540	s	s	10	1	Capacity	21	ABS	0	0	3	1	24_3_1	NA	NA	0	1	2.87556290627	None	None	None	None	1
3.0.1	2019_Mar_07_1540	s	s	10	1	Capacity	22	2_1	2	1	4	1	23_4_1	2	0	1	0	0.620360136032	327.0	168.0	336.0	167.0	1
3.0.1	2019_Mar_07_1540	s	s	10	1	Capacity	23	4_1	4	1	1	1	23_1_1	3	0	1	0	0.44627404213	-180.0	-100.0	-172.0	-91.0	1
3.0.1	2019_Mar_07_1540	s	s	10	1	Capacity	24	4_1	4	1	2	1	23_2_1	2	0	1	0	0.41091299057	92.0	77.0	87.0	68.0	1
3.0.1	2019_Mar_07_1540	s	s	10	1	Capacity	25	ABS	0	0	2	1	24_2_1	NA	NA	0	1	4.56052184105	None	None	None	None	1
3.0.1	2019_Mar_07_1540	s	s	10	1	Capacity	26	ABS	0	0	3	1	24_3_1	NA	NA	0	1	4.31855010986	None	None	None	None	1
3.0.1	2019_Mar_07_1540	s	s	10	1	Capacity	27	4_1	4	1	1	1	23_1_1	3	0	1	0	0.437390089035	463.0	162.0	453.0	160.0	1
3.0.1	2019_Mar_07_1540	s	s	10	1	Capacity	28	4_1	4	1	3	1	23_3_1	1	0	1	0	0.457957029343	-149.0	380.0	-146.0	373.0	1
3.0.1	2019_Mar_07_1540	s	s	10	1	Capacity	29	3_1	3	1	1	1	23_1_1	2	0	1	0	0.509468078613	-466.0	2.0	-471.0	8.0	1
3.0.1	2019_Mar_07_1540	s	s	10	1	Capacity	30	1_1	1	1	2	1	23_2_1	1	0	1	0	6.32393693924	108.0	396.0	112.0	394.0	1
3.0.1	2019_Mar_07_1540	s	s	10	1	Capacity	31	ABS	0	0	3	1	24_3_1	NA	NA	0	1	6.53066086769	None	None	None	None	1
3.0.1	2019_Mar_07_1540	s	s	10	1	Capacity	32	ABS	0	0	2	1	24_2_1	NA	NA	0	1	4.60326910019	None	None	None	None	1
3.0.1	2019_Mar_07_1540	s	s	10	1	Capacity	33	ABS	0	0	1	1	24_1_1	NA	NA	0	1	6.36770892143	None	None	None	None	1
3.0.1	2019_Mar_07_1540	s	s	10	1	Capacity	34	2_1	2	1	1	1	23_1_1	-1	0	1	0	3.67707705498	119.0	307.0	123.0	307.0	1
3.0.1	2019_Mar_07_1540	s	s	10	1	Capacity	35	3_1	3	1	2	1	23_2_1	1	0	1	0	0.634449005127	278.0	-316.0	278.0	-315.0	1
3.0.1	2019_Mar_07_1540	s	s	10	1	Capacity	36	ABS	0	0	3	1	24_3_1	NA	NA	0	1	4.83320379257	None	None	None	None	1
3.0.1	2019_Mar_07_1540	s	s	10	1	Capacity	37	ABS	0	0	4	1	24_4_1	NA	NA	0	1	4.78091216087	None	None	None	None	1
3.0.1	2019_Mar_07_1540	s	s	10	1	Capacity	38	ABS	0	0	1	1	24_1_1	NA	NA	0	1	3.42697501183	None	None	None	None	1
3.0.1	2019_Mar_07_1540	s	s	10	1	Capacity	39	ABS	0	0	1	1	24_1_1	NA	NA	0	1	7.85578012466	None	None	None	None	1
3.0.1	2019_Mar_07_1540	s	s	10	1	Capacity	40	2_1	2	1	4	1	23_4_1	2	0	1	0	0.546932935715	461.0	-13.0	462.0	-10.0	1
3.0.1	2019_Mar_07_1540	s	s	10	1	Capacity	41	1_1	1	1	3	1	23_3_1	2	0	1	0	0.497665882111	2.0	203.0	-2.0	203.0	1
3.0.1	2019_Mar_07_1540	s	s	10	1	Capacity	42	4_1	4	1	2	1	23_2_1	2	0	1	0	0.399231910706	-17.0	214.0	-22.0	211.0	1
3.0.1	2019_Mar_07_1540	s	s	10	1	Capacity	43	1_1	1	1	4	1	23_4_1	3	0	1	0	0.393597841263	388.0	-65.0	382.0	-56.0	1
3.0.1	2019_Mar_07_1540	s	s	10	1	Capacity	44	2_1	2	1	3	1	23_3_1	1	0	1	0	0.417217969894	137.0	28.0	138.0	22.0	1
3.0.1	2019_Mar_07_1540	s	s	10	1	Capacity	45	ABS	0	0	4	1	24_4_1	NA	NA	0	1	4.59108281136	None	None	None	None	1
3.0.1	2019_Mar_07_1540	s	s	10	1	Capacity	46	3_1	3	1	4	1	23_4_1	-1	0	1	0	0.51673078537	-189.0	-30.0	-186.0	-35.0	1
3.0.1	2019_Mar_07_1540	s	s	10	1	Capacity	47	ABS	0	0	4	1	24_4_1	NA	NA	0	1	4.99014091492	None	None	None	None	1
3.0.1	2019_Mar_07_1540	s	s	10	1	Capacity	48	ABS	0	0	2	1	24_2_1	NA	NA	0	1	4.13047504425	None	None	None	None	1
3.0.1	2019_Mar_07_1540	s	s	10	1	Capacity	49	3_1	3	1	4	1	23_4_1	-1	0	1	0	0.469718933105	142.0	241.0	144.0	236.0	1
3.0.1	2019_Mar_07_1540	s	s	10	1	Capacity	50	ABS	0	0	1	1	24_1_1	NA	NA	0	1	7.30305194855	None	None	None	None	1
3.0.1	2019_Mar_07_1540	s	s	10	1	Capacity	51	2_1	2	1	4	1	23_4_1	2	0	1	0	0.568347930908	-337.0	372.0	-327.0	371.0	1
3.0.1	2019_Mar_07_1540	s	s	10	1	Capacity	52	3_1	3	1	1	1	23_1_1	2	0	1	0	0.555043935776	-21.0	380.0	-19.0	379.0	1
3.0.1	2019_Mar_07_1540	s	s	10	1	Capacity	53	ABS	0	0	1	1	24_1_1	NA	NA	0	1	4.38287401199	None	None	None	None	1
3.0.1	2019_Mar_07_1540	s	s	10	1	Capacity	54	ABS	0	0	4	1	24_4_1	NA	NA	0	1	4.62144494057	None	None	None	None	1
3.0.1	2019_Mar_07_1540	s	s	10	1	Capacity	55	2_1	2	1	1	1	23_1_1	-1	0	1	0	7.20205998421	-458.0	285.0	-453.0	283.0	1
3.0.1	2019_Mar_07_1540	s	s	10	1	Capacity	56	ABS	0	0	2	1	24_2_1	NA	NA	0	1	6.60512208939	None	None	None	None	1
3.0.1	2019_Mar_07_1540	s	s	10	1	Capacity	57	3_1	3	1	2	1	23_2_1	1	0	1	0	0.622670888901	158.0	-344.0	160.0	-350.0	1
3.0.1	2019_Mar_07_1540	s	s	10	1	Capacity	58	ABS	0	0	3	1	24_3_1	NA	NA	0	1	7.02363801003	None	None	None	None	1
3.0.1	2019_Mar_07_1540	s	s	10	1	Capacity	59	ABS	0	0	4	1	24_4_1	NA	NA	0	1	4.18919801712	None	None	None	None	1
3.0.1	2019_Mar_07_1540	s	s	10	1	Capacity	60	ABS	0	0	2	1	24_2_1	NA	NA	0	1	4.64923286438	None	None	None	None	1
3.0.1	2019_Mar_07_1540	s	s	10	1	Capacity	61	ABS	0	0	4	1	24_4_1	NA	NA	0	1	4.2279150486	None	None	None	None	1
3.0.1	2019_Mar_07_1540	s	s	10	1	Capacity	62	ABS	0	0	3	1	24_3_1	NA	NA	0	1	5.57411599159	None	None	None	None	1
3.0.1	2019_Mar_07_1540	s	s	10	1	Capacity	63	ABS	0	0	2	1	24_2_1	NA	NA	0	1	8.78491091728	None	None	None	None	1
3.0.1	2019_Mar_07_1540	s	s	10	1	Capacity	64	4_1	4	1	3	1	23_3_1	1	0	1	0	0.510138988495	370.0	-108.0	375.0	-101.0	1
3.0.1	2019_Mar_07_1540	s	s	10	1	Capacity	65	ABS	0	0	3	1	24_3_1	NA	NA	0	1	6.74302196503	None	None	None	None	1
3.0.1	2019_Mar_07_1540	s	s	10	1	Capacity	66	1_1	1	1	2	1	23_2_1	1	0	1	0	1.79189300537	481.0	-135.0	490.0	-138.0	1
3.0.1	2019_Mar_07_1540	s	s	10	1	Capacity	67	4_1	4	1	2	1	23_2_1	2	0	1	0	0.563851118088	-322.0	357.0	-317.0	357.0	1
3.0.1	2019_Mar_07_1540	s	s	10	1	Capacity	68	1_1	1	1	4	1	23_4_1	3	0	1	0	0.446238040924	-474.0	149.0	-484.0	155.0	1
3.0.1	2019_Mar_07_1540	s	s	10	1	Capacity	69	ABS	0	0	1	1	24_1_1	NA	NA	0	1	8.78781318665	None	None	None	None	1
3.0.1	2019_Mar_07_1540	s	s	10	1	Capacity	70	2_1	2	1	3	1	23_3_1	1	0	1	0	0.501909017563	156.0	53.0	165.0	53.0	1
3.0.1	2019_Mar_07_1540	s	s	10	1	Capacity	71	4_1	4	1	1	1	23_1_1	3	0	1	0	0.516824007034	68.0	-150.0	60.0	-148.0	1
3.0.1	2019_Mar_07_1540	s	s	10	1	Capacity	72	1_1	1	1	3	1	23_3_1	2	0	1	0	0.587471008301	37.0	-390.0	32.0	-380.0	1
3.0.1	2019_Mar_07_1540	s	s	10	1	Capacity	73	ABS	0	0	3	1	24_3_1	NA	NA	0	1	4.42155385017	None	None	None	None	1
3.0.1	2019_Mar_07_1540	s	s	10	1	Capacity	74	ABS	0	0	2	1	24_2_1	NA	NA	0	1	3.3963830471	None	None	None	None	1
3.0.1	2019_Mar_07_1540	s	s	10	1	Capacity	75	ABS	0	0	4	1	24_4_1	NA	NA	0	1	2.39869189262	None	None	None	None	1
3.0.1	2019_Mar_07_1540	s	s	10	1	Capacity	76	2_1	2	1	3	1	23_3_1	1	0	1	0	0.528581857681	92.0	-144.0	97.0	-145.0	1
3.0.1	2019_Mar_07_1540	s	s	10	1	Capacity	77	1_1	1	1	2	1	23_2_1	1	0	1	0	2.9395878315	-533.0	-345.0	-519.0	-340.0	1
3.0.1	2019_Mar_07_1540	s	s	10	1	Capacity	78	ABS	0	0	4	1	24_4_1	NA	NA	0	1	4.32740306854	None	None	None	None	1
3.0.1	2019_Mar_07_1540	s	s	10	1	Capacity	79	1_1	1	1	3	1	23_3_1	2	0	1	0	0.587369918823	502.0	217.0	506.0	210.0	1
3.0.1	2019_Mar_07_1540	s	s	10	1	Capacity	80	ABS	0	0	1	1	24_1_1	NA	NA	0	1	5.51524615288	None	None	None	None	1
3.0.1	2019_Mar_07_1540	s	s	10	1	Capacity	81	2_1	2	1	4	1	23_4_1	2	0	1	0	0.505039930344	-294.0	-169.0	-305.0	-166.0	1
3.0.1	2019_Mar_07_1540	s	s	10	1	Capacity	82	ABS	0	0	3	1	24_3_1	NA	NA	0	1	4.61968994141	None	None	None	None	1
3.0.1	2019_Mar_07_1540	s	s	10	1	Capacity	83	ABS	0	0	3	1	24_3_1	NA	NA	0	1	4.53082084656	None	None	None	None	1
3.0.1	2019_Mar_07_1540	s	s	10	1	Capacity	84	ABS	0	0	1	1	24_1_1	NA	NA	0	1	4.4215798378	None	None	None	None	1
3.0.1	2019_Mar_07_1540	s	s	10	1	Capacity	85	ABS	0	0	1	1	24_1_1	NA	NA	0	1	2.23930191994	None	None	None	None	1
3.0.1	2019_Mar_07_1540	s	s	10	1	Capacity	86	1_1	1	1	4	1	23_4_1	3	0	1	0	0.560361862183	90.0	-202.0	93.0	-208.0	1
3.0.1	2019_Mar_07_1540	s	s	10	1	Capacity	87	ABS	0	0	2	1	24_2_1	NA	NA	0	1	2.82197403908	None	None	None	None	1
3.0.1	2019_Mar_07_1540	s	s	10	1	Capacity	88	4_1	4	1	2	1	23_2_1	2	0	1	0	0.437510967255	-313.0	37.0	-303.0	39.0	1
3.0.1	2019_Mar_07_1540	s	s	10	1	Capacity	89	2_1	2	1	1	1	23_1_1	-1	0	1	0	5.7205247879	-111.0	387.0	-107.0	390.0	1
3.0.1	2019_Mar_07_1540	s	s	10	1	Capacity	90	ABS	0	0	2	1	24_2_1	NA	NA	0	1	4.26856207848	None	None	None	None	1
3.0.1	2019_Mar_07_1540	s	s	10	1	Capacity	91	3_1	3	1	1	1	23_1_1	2	0	1	0	0.469853162766	-155.0	51.0	-159.0	46.0	1
3.0.1	2019_Mar_07_1540	s	s	10	1	Capacity	92	3_1	3	1	2	1	23_2_1	1	0	1	0	0.410950183868	170.0	125.0	167.0	125.0	1
3.0.1	2019_Mar_07_1540	s	s	10	1	Capacity	93	4_1	4	1	3	1	23_3_1	1	0	1	0	0.442214012146	202.0	-280.0	208.0	-283.0	1
3.0.1	2019_Mar_07_1540	s	s	10	1	Capacity	94	ABS	0	0	4	1	24_4_1	NA	NA	0	1	3.95119905472	None	None	None	None	1
3.0.1	2019_Mar_07_1540	s	s	10	1	Capacity	95	3_1	3	1	4	1	23_4_1	-1	0	1	0	0.481854915619	-415.0	183.0	-417.0	169.0	1
3.0.1	2019_Mar_07_1540	s	s	10	1	Capacity	96	4_1	4	1	1	1	23_1_1	3	0	1	0	0.416087865829	102.0	22.0	94.0	20.0	1
3.0.1	2019_Mar_07_1540	s	s	10	1	Capacity	1	ABS	0	0	1	3	24_1_3	NA	NA	0	1	8.95619821548	None	None	None	None	1
3.0.1	2019_Mar_07_1540	s	s	10	1	Capacity	2	ABS	0	0	1	2	24_1_2	NA	NA	0	1	6.36219096184	None	None	None	None	1
3.0.1	2019_Mar_07_1540	s	s	10	1	Capacity	3	ABS	0	0	1	1	24_1_1	NA	NA	0	1	5.17420101166	None	None	None	None	1
3.0.1	2019_Mar_07_1540	s	s	10	1	Capacity	4	1_3	1	3	1	2	23_1_2	0	1	0	1	6.56724095345	-148.0	-330.0	None	None	0
3.0.1	2019_Mar_07_1540	s	s	10	1	Capacity	5	ABS	0	0	1	4	24_1_4	NA	NA	0	1	4.53919911385	None	None	None	None	1
3.0.1	2019_Mar_07_1540	s	s	10	1	Capacity	6	ABS	0	0	1	2	24_1_2	NA	NA	0	1	7.11480617523	None	None	None	None	1
3.0.1	2019_Mar_07_1540	s	s	10	1	Capacity	7	1_4	1	4	1	1	23_1_1	0	3	1	0	0.83439707756	11.0	316.0	6.0	321.0	1
3.0.1	2019_Mar_07_1540	s	s	10	1	Capacity	8	ABS	0	0	1	3	24_1_3	NA	NA	0	1	6.24914693832	None	None	None	None	1
3.0.1	2019_Mar_07_1540	s	s	10	1	Capacity	9	1_3	1	3	1	1	23_1_1	0	2	1	0	0.999009132385	313.0	409.0	319.0	407.0	1
3.0.1	2019_Mar_07_1540	s	s	10	1	Capacity	10	ABS	0	0	1	1	24_1_1	NA	NA	0	1	3.71973991394	None	None	None	None	1
3.0.1	2019_Mar_07_1540	s	s	10	1	Capacity	11	1_2	1	2	1	3	23_1_3	0	1	1	0	2.16342401505	328.0	363.0	333.0	359.0	1
3.0.1	2019_Mar_07_1540	s	s	10	1	Capacity	12	ABS	0	0	1	3	24_1_3	NA	NA	0	1	6.00254917145	None	None	None	None	1
3.0.1	2019_Mar_07_1540	s	s	10	1	Capacity	13	1_1	1	1	1	3	23_1_3	0	2	1	0	2.09921097755	382.0	-299.0	391.0	-298.0	1
3.0.1	2019_Mar_07_1540	s	s	10	1	Capacity	14	1_2	1	2	1	4	23_1_4	0	2	1	0	0.758549928665	-114.0	265.0	-117.0	261.0	1
3.0.1	2019_Mar_07_1540	s	s	10	1	Capacity	15	ABS	0	0	1	4	24_1_4	NA	NA	0	1	4.63320708275	None	None	None	None	1
3.0.1	2019_Mar_07_1540	s	s	10	1	Capacity	16	1_4	1	4	1	3	23_1_3	0	1	1	0	2.85224509239	158.0	-108.0	153.0	-100.0	1
3.0.1	2019_Mar_07_1540	s	s	10	1	Capacity	17	1_2	1	2	1	1	23_1_1	0	-1	1	0	3.16680788994	-5.0	-220.0	-7.0	-218.0	1
3.0.1	2019_Mar_07_1540	s	s	10	1	Capacity	18	1_1	1	1	1	4	23_1_4	0	3	1	0	0.67262506485	318.0	276.0	318.0	271.0	1
3.0.1	2019_Mar_07_1540	s	s	10	1	Capacity	19	ABS	0	0	1	4	24_1_4	NA	NA	0	1	4.30721998215	None	None	None	None	1
3.0.1	2019_Mar_07_1540	s	s	10	1	Capacity	20	1_4	1	4	1	2	23_1_2	0	2	1	0	0.921910047531	361.0	93.0	364.0	89.0	1
3.0.1	2019_Mar_07_1540	s	s	10	1	Capacity	21	1_3	1	3	1	4	23_1_4	0	-1	1	0	0.744469165802	447.0	-68.0	447.0	-61.0	1
3.0.1	2019_Mar_07_1540	s	s	10	1	Capacity	22	ABS	0	0	1	2	24_1_2	NA	NA	0	1	8.42530918121	None	None	None	None	1
3.0.1	2019_Mar_07_1540	s	s	10	1	Capacity	23	1_1	1	1	1	2	23_1_2	0	1	1	0	2.03232908249	-274.0	157.0	-276.0	157.0	1
3.0.1	2019_Mar_07_1540	s	s	10	1	Capacity	24	ABS	0	0	1	1	24_1_1	NA	NA	0	1	4.10388588905	None	None	None	None	1
3.0.1	2019_Mar_07_1540	s	s	10	1	Capacity	25	ABS	0	0	1	4	24_1_4	NA	NA	0	1	4.33188819885	None	None	None	None	1
3.0.1	2019_Mar_07_1540	s	s	10	1	Capacity	26	ABS	0	0	1	2	24_1_2	NA	NA	0	1	6.74137687683	None	None	None	None	1
3.0.1	2019_Mar_07_1540	s	s	10	1	Capacity	27	ABS	0	0	1	3	24_1_3	NA	NA	0	1	5.57409715652	None	None	None	None	1
3.0.1	2019_Mar_07_1540	s	s	10	1	Capacity	28	1_2	1	2	1	3	23_1_3	0	1	1	0	5.86816692352	-97.0	385.0	-100.0	389.0	1
3.0.1	2019_Mar_07_1540	s	s	10	1	Capacity	29	1_1	1	1	1	3	23_1_3	0	2	1	0	0.978806018829	350.0	100.0	350.0	91.0	1
3.0.1	2019_Mar_07_1540	s	s	10	1	Capacity	30	1_2	1	2	1	4	23_1_4	0	2	1	0	0.944612979889	-53.0	-175.0	-55.0	-170.0	1
3.0.1	2019_Mar_07_1540	s	s	10	1	Capacity	31	1_3	1	3	1	1	23_1_1	0	2	1	0	4.66815185547	-300.0	313.0	-297.0	323.0	1
3.0.1	2019_Mar_07_1540	s	s	10	1	Capacity	32	ABS	0	0	1	1	24_1_1	NA	NA	0	1	5.90738010406	None	None	None	None	1
3.0.1	2019_Mar_07_1540	s	s	10	1	Capacity	33	1_2	1	2	1	1	23_1_1	0	-1	1	0	3.02486014366	-92.0	-143.0	-89.0	-147.0	1
3.0.1	2019_Mar_07_1540	s	s	10	1	Capacity	34	1_4	1	4	1	3	23_1_3	0	1	1	0	0.790139198303	-376.0	129.0	-377.0	126.0	1
3.0.1	2019_Mar_07_1540	s	s	10	1	Capacity	35	1_1	1	1	1	4	23_1_4	0	3	1	0	0.751998901367	-70.0	403.0	-62.0	398.0	1
3.0.1	2019_Mar_07_1540	s	s	10	1	Capacity	36	ABS	0	0	1	1	24_1_1	NA	NA	0	1	5.78065800667	None	None	None	None	1
3.0.1	2019_Mar_07_1540	s	s	10	1	Capacity	37	ABS	0	0	1	2	24_1_2	NA	NA	0	1	8.77329206467	None	None	None	None	1
3.0.1	2019_Mar_07_1540	s	s	10	1	Capacity	38	1_1	1	1	1	2	23_1_2	0	1	1	0	4.8628320694	-131.0	190.0	-129.0	183.0	1
3.0.1	2019_Mar_07_1540	s	s	10	1	Capacity	39	ABS	0	0	1	3	24_1_3	NA	NA	0	1	5.90631318092	None	None	None	None	1
3.0.1	2019_Mar_07_1540	s	s	10	1	Capacity	40	ABS	0	0	1	4	24_1_4	NA	NA	0	1	4.18643689156	None	None	None	None	1
3.0.1	2019_Mar_07_1540	s	s	10	1	Capacity	41	ABS	0	0	1	3	24_1_3	NA	NA	0	1	5.51523208618	None	None	None	None	1
3.0.1	2019_Mar_07_1540	s	s	10	1	Capacity	42	1_3	1	3	1	4	23_1_4	0	-1	1	0	0.991318941116	-69.0	367.0	-61.0	369.0	1
3.0.1	2019_Mar_07_1540	s	s	10	1	Capacity	43	1_4	1	4	1	1	23_1_1	0	3	1	0	0.562412977219	-223.0	136.0	-222.0	141.0	1
3.0.1	2019_Mar_07_1540	s	s	10	1	Capacity	44	1_4	1	4	1	2	23_1_2	0	2	1	0	0.560559988022	-409.0	395.0	-409.0	389.0	1
3.0.1	2019_Mar_07_1540	s	s	10	1	Capacity	45	1_3	1	3	1	2	23_1_2	0	1	1	0	4.07385396957	126.0	-118.0	138.0	-116.0	1
3.0.1	2019_Mar_07_1540	s	s	10	1	Capacity	46	ABS	0	0	1	2	24_1_2	NA	NA	0	1	8.38364481926	None	None	None	None	1
3.0.1	2019_Mar_07_1540	s	s	10	1	Capacity	47	ABS	0	0	1	1	24_1_1	NA	NA	0	1	4.88522100449	None	None	None	None	1
3.0.1	2019_Mar_07_1540	s	s	10	1	Capacity	48	ABS	0	0	1	4	24_1_4	NA	NA	0	1	4.08342409134	None	None	None	None	1
3.0.1	2019_Mar_07_1540	s	s	10	1	Capacity	49	ABS	0	0	1	1	24_1_1	NA	NA	0	1	3.90698003769	None	None	None	None	1
3.0.1	2019_Mar_07_1540	s	s	10	1	Capacity	50	1_1	1	1	1	2	23_1_2	0	1	1	0	2.0693089962	432.0	293.0	434.0	284.0	1
3.0.1	2019_Mar_07_1540	s	s	10	1	Capacity	51	ABS	0	0	1	3	24_1_3	NA	NA	0	1	6.38564300537	None	None	None	None	1
3.0.1	2019_Mar_07_1540	s	s	10	1	Capacity	52	ABS	0	0	1	2	24_1_2	NA	NA	0	1	7.79417610168	None	None	None	None	1
3.0.1	2019_Mar_07_1540	s	s	10	1	Capacity	53	1_2	1	2	1	1	23_1_1	0	-1	1	0	3.83345890045	351.0	-204.0	353.0	-206.0	1
3.0.1	2019_Mar_07_1540	s	s	10	1	Capacity	54	ABS	0	0	1	4	24_1_4	NA	NA	0	1	4.24900698662	None	None	None	None	1
3.0.1	2019_Mar_07_1540	s	s	10	1	Capacity	55	ABS	0	0	1	4	24_1_4	NA	NA	0	1	5.186024189	None	None	None	None	1
3.0.1	2019_Mar_07_1540	s	s	10	1	Capacity	56	ABS	0	0	1	3	24_1_3	NA	NA	0	1	7.40307784081	None	None	None	None	1
3.0.1	2019_Mar_07_1540	s	s	10	1	Capacity	57	ABS	0	0	1	2	24_1_2	NA	NA	0	1	9.25958395004	None	None	None	None	1
3.0.1	2019_Mar_07_1540	s	s	10	1	Capacity	58	1_4	1	4	1	1	23_1_1	0	3	1	0	1.93989896774	260.0	-318.0	251.0	-320.0	1
3.0.1	2019_Mar_07_1540	s	s	10	1	Capacity	59	ABS	0	0	1	1	24_1_1	NA	NA	0	1	3.4148349762	None	None	None	None	1
3.0.1	2019_Mar_07_1540	s	s	10	1	Capacity	60	1_3	1	3	1	1	23_1_1	0	2	1	0	0.945132017136	15.0	1.0	13.0	3.0	1
3.0.1	2019_Mar_07_1540	s	s	10	1	Capacity	61	1_4	1	4	1	2	23_1_2	0	2	1	0	0.763751983643	445.0	211.0	438.0	208.0	1
3.0.1	2019_Mar_07_1540	s	s	10	1	Capacity	62	ABS	0	0	1	3	24_1_3	NA	NA	0	1	5.17814898491	None	None	None	None	1
3.0.1	2019_Mar_07_1540	s	s	10	1	Capacity	63	ABS	0	0	1	2	24_1_2	NA	NA	0	1	6.72959518433	None	None	None	None	1
3.0.1	2019_Mar_07_1540	s	s	10	1	Capacity	64	ABS	0	0	1	4	24_1_4	NA	NA	0	1	4.49500489235	None	None	None	None	1
3.0.1	2019_Mar_07_1540	s	s	10	1	Capacity	65	1_3	1	3	1	4	23_1_4	0	-1	1	0	1.02896690369	523.0	-212.0	524.0	-207.0	1
3.0.1	2019_Mar_07_1540	s	s	10	1	Capacity	66	1_1	1	1	1	4	23_1_4	0	3	1	0	0.638879060745	220.0	316.0	211.0	318.0	1
3.0.1	2019_Mar_07_1540	s	s	10	1	Capacity	67	1_1	1	1	1	3	23_1_3	0	2	1	0	0.944228887558	74.0	392.0	77.0	395.0	1
3.0.1	2019_Mar_07_1540	s	s	10	1	Capacity	68	1_2	1	2	1	4	23_1_4	0	2	1	0	0.602491855621	-383.0	-26.0	-385.0	-16.0	1
3.0.1	2019_Mar_07_1540	s	s	10	1	Capacity	69	1_4	1	4	1	3	23_1_3	0	1	1	0	0.663087129593	-478.0	-66.0	-478.0	-67.0	1
3.0.1	2019_Mar_07_1540	s	s	10	1	Capacity	70	1_2	1	2	1	3	23_1_3	0	1	1	0	6.07987999916	22.0	-287.0	25.0	-290.0	1
3.0.1	2019_Mar_07_1540	s	s	10	1	Capacity	71	1_3	1	3	1	2	23_1_2	0	1	0	1	7.03817391396	435.0	257.0	None	None	0
3.0.1	2019_Mar_07_1540	s	s	10	1	Capacity	72	ABS	0	0	1	1	24_1_1	NA	NA	0	1	3.61292600632	None	None	None	None	1
3.0.1	2019_Mar_07_1540	s	s	10	1	Capacity	73	1_1	1	1	1	3	23_1_3	0	2	1	0	1.40430498123	-10.0	370.0	-12.0	374.0	1
3.0.1	2019_Mar_07_1540	s	s	10	1	Capacity	74	ABS	0	0	1	2	24_1_2	NA	NA	0	1	5.22123098373	None	None	None	None	1
3.0.1	2019_Mar_07_1540	s	s	10	1	Capacity	75	ABS	0	0	1	2	24_1_2	NA	NA	0	1	6.45623111725	None	None	None	None	1
3.0.1	2019_Mar_07_1540	s	s	10	1	Capacity	76	ABS	0	0	1	4	24_1_4	NA	NA	0	1	3.63347697258	None	None	None	None	1
3.0.1	2019_Mar_07_1540	s	s	10	1	Capacity	77	1_3	1	3	1	1	23_1_1	0	2	1	0	2.11632418633	435.0	-124.0	443.0	-123.0	1
3.0.1	2019_Mar_07_1540	s	s	10	1	Capacity	78	1_4	1	4	1	2	23_1_2	0	2	1	0	0.740284204483	-89.0	-66.0	-89.0	-61.0	1
3.0.1	2019_Mar_07_1540	s	s	10	1	Capacity	79	1_2	1	2	1	3	23_1_3	0	1	1	0	2.50135087967	-332.0	350.0	-327.0	343.0	1
3.0.1	2019_Mar_07_1540	s	s	10	1	Capacity	80	1_1	1	1	1	4	23_1_4	0	3	1	0	3.5159277916	-155.0	-362.0	-148.0	-368.0	1
3.0.1	2019_Mar_07_1540	s	s	10	1	Capacity	81	ABS	0	0	1	3	24_1_3	NA	NA	0	1	10.2315199375	None	None	None	None	1
3.0.1	2019_Mar_07_1540	s	s	10	1	Capacity	82	ABS	0	0	1	4	24_1_4	NA	NA	0	1	4.47330093384	None	None	None	None	1
3.0.1	2019_Mar_07_1540	s	s	10	1	Capacity	83	1_4	1	4	1	3	23_1_3	0	1	1	0	1.18729686737	539.0	260.0	539.0	260.0	1
3.0.1	2019_Mar_07_1540	s	s	10	1	Capacity	84	ABS	0	0	1	1	24_1_1	NA	NA	0	1	2.96603989601	None	None	None	None	1
3.0.1	2019_Mar_07_1540	s	s	10	1	Capacity	85	ABS	0	0	1	3	24_1_3	NA	NA	0	1	8.26744794846	None	None	None	None	1
3.0.1	2019_Mar_07_1540	s	s	10	1	Capacity	86	1_3	1	3	1	4	23_1_4	0	-1	1	0	0.698431968689	-51.0	-57.0	-40.0	-52.0	1
3.0.1	2019_Mar_07_1540	s	s	10	1	Capacity	87	ABS	0	0	1	1	24_1_1	NA	NA	0	1	3.4806740284	None	None	None	None	1
3.0.1	2019_Mar_07_1540	s	s	10	1	Capacity	88	ABS	0	0	1	4	24_1_4	NA	NA	0	1	2.70451998711	None	None	None	None	1
3.0.1	2019_Mar_07_1540	s	s	10	1	Capacity	89	1_2	1	2	1	1	23_1_1	0	-1	1	0	1.83697414398	526.0	154.0	531.0	153.0	1
3.0.1	2019_Mar_07_1540	s	s	10	1	Capacity	90	1_1	1	1	1	2	23_1_2	0	1	1	0	6.15580105782	-296.0	-34.0	-291.0	-42.0	1
3.0.1	2019_Mar_07_1540	s	s	10	1	Capacity	91	1_4	1	4	1	1	23_1_1	0	3	1	0	0.651461839676	-66.0	354.0	-65.0	348.0	1
3.0.1	2019_Mar_07_1540	s	s	10	1	Capacity	92	1_3	1	3	1	2	23_1_2	0	1	0	1	9.14789509773	-93.0	323.0	None	None	0
3.0.1	2019_Mar_07_1540	s	s	10	1	Capacity	93	1_2	1	2	1	4	23_1_4	0	2	1	0	0.755885124207	-456.0	216.0	-461.0	206.0	1
3.0.1	2019_Mar_07_1540	s	s	10	1	Capacity	94	ABS	0	0	1	1	24_1_1	NA	NA	0	1	6.50025296211	None	None	None	None	1
3.0.1	2019_Mar_07_1540	s	s	10	1	Capacity	95	ABS	0	0	1	3	24_1_3	NA	NA	0	1	7.83225297928	None	None	None	None	1
3.0.1	2019_Mar_07_1540	s	s	10	1	Capacity	96	ABS	0	0	1	2	24_1_2	NA	NA	0	1	8.06052184105	None	None	None	None	1
3.0.1	2019_Mar_07_1540	s	s	10	1	SIC	1	3_1	3	1	2	1	23_2_1	1	0	1	0	0.745122909546	247.0	41.0	245.0	42.0	1
3.0.1	2019_Mar_07_1540	s	s	10	1	SIC	2	ABS	0	0	3	3	24_3_3	NA	NA	0	1	8.43494701385	None	None	None	None	1
3.0.1	2019_Mar_07_1540	s	s	10	1	SIC	3	ABS	0	0	2	3	24_2_3	NA	NA	0	1	7.53644704819	None	None	None	None	1
3.0.1	2019_Mar_07_1540	s	s	10	1	SIC	4	ABS	0	0	3	3	24_3_3	NA	NA	0	1	7.22072696686	None	None	None	None	1
3.0.1	2019_Mar_07_1540	s	s	10	1	SIC	5	ABS	0	0	2	3	24_2_3	NA	NA	0	1	10.0480999947	None	None	None	None	1
3.0.1	2019_Mar_07_1540	s	s	10	1	SIC	6	4_1	4	1	1	4	23_1_4	3	3	1	0	0.698042154312	414.0	-409.0	412.0	-405.0	1
3.0.1	2019_Mar_07_1540	s	s	10	1	SIC	7	3_2	3	2	2	1	23_2_1	1	-1	1	0	0.613790035248	-88.0	82.0	-87.0	81.0	1
3.0.1	2019_Mar_07_1540	s	s	10	1	SIC	8	3_3	3	3	2	2	23_2_2	1	1	1	0	0.437336921692	-47.0	158.0	-46.0	145.0	1
3.0.1	2019_Mar_07_1540	s	s	10	1	SIC	9	ABS	0	0	1	4	24_1_4	NA	NA	0	1	6.84720897675	None	None	None	None	1
3.0.1	2019_Mar_07_1540	s	s	10	1	SIC	10	1_2	1	2	2	4	23_2_4	1	2	1	0	0.516875982285	-38.0	197.0	-47.0	193.0	1
3.0.1	2019_Mar_07_1540	s	s	10	1	SIC	11	3_1	3	1	1	4	23_1_4	2	3	1	0	0.758116006851	-473.0	-406.0	-467.0	-402.0	1
3.0.1	2019_Mar_07_1540	s	s	10	1	SIC	12	4_4	4	4	2	2	23_2_2	2	2	1	0	0.501588106155	-531.0	-198.0	-530.0	-195.0	1
3.0.1	2019_Mar_07_1540	s	s	10	1	SIC	13	ABS	0	0	2	3	24_2_3	NA	NA	0	1	8.03704094887	None	None	None	None	1
3.0.1	2019_Mar_07_1540	s	s	10	1	SIC	14	2_2	2	2	1	2	23_1_2	-1	0	1	0	5.80930399895	233.0	32.0	237.0	34.0	1
3.0.1	2019_Mar_07_1540	s	s	10	1	SIC	15	3_1	3	1	1	1	23_1_1	2	0	1	0	0.5167760849	159.0	-11.0	163.0	-15.0	1
3.0.1	2019_Mar_07_1540	s	s	10	1	SIC	16	ABS	0	0	1	4	24_1_4	NA	NA	0	1	6.86778903008	None	None	None	None	1
3.0.1	2019_Mar_07_1540	s	s	10	1	SIC	17	1_4	1	4	4	1	23_4_1	3	3	1	0	0.516794919968	-111.0	405.0	-106.0	403.0	1
3.0.1	2019_Mar_07_1540	s	s	10	1	SIC	18	ABS	0	0	1	1	24_1_1	NA	NA	0	1	8.07255911827	None	None	None	None	1
3.0.1	2019_Mar_07_1540	s	s	10	1	SIC	19	1_2	1	2	3	1	23_3_1	2	-1	1	0	0.505089998245	205.0	-98.0	211.0	-100.0	1
3.0.1	2019_Mar_07_1540	s	s	10	1	SIC	20	ABS	0	0	3	2	24_3_2	NA	NA	0	1	4.45678806305	None	None	None	None	1
3.0.1	2019_Mar_07_1540	s	s	10	1	SIC	21	ABS	0	0	3	2	24_3_2	NA	NA	0	1	4.95081114769	None	None	None	None	1
3.0.1	2019_Mar_07_1540	s	s	10	1	SIC	22	3_1	3	1	1	2	23_1_2	2	1	1	0	0.575677871704	-389.0	-230.0	-387.0	-228.0	1
3.0.1	2019_Mar_07_1540	s	s	10	1	SIC	23	3_4	3	4	2	2	23_2_2	1	2	1	0	0.469733953476	-362.0	13.0	-357.0	12.0	1
3.0.1	2019_Mar_07_1540	s	s	10	1	SIC	24	ABS	0	0	3	4	24_3_4	NA	NA	0	1	3.95112395287	None	None	None	None	1
3.0.1	2019_Mar_07_1540	s	s	10	1	SIC	25	2_3	2	3	1	3	23_1_3	-1	0	1	0	8.98507618904	-200.0	-24.0	-198.0	-26.0	1
3.0.1	2019_Mar_07_1540	s	s	10	1	SIC	26	ABS	0	0	1	4	24_1_4	NA	NA	0	1	7.23784613609	None	None	None	None	1
3.0.1	2019_Mar_07_1540	s	s	10	1	SIC	27	ABS	0	0	1	1	24_1_1	NA	NA	0	1	6.15053009987	None	None	None	None	1
3.0.1	2019_Mar_07_1540	s	s	10	1	SIC	28	3_4	3	4	4	4	23_4_4	-1	0	1	0	0.469743013382	269.0	23.0	264.0	17.0	1
3.0.1	2019_Mar_07_1540	s	s	10	1	SIC	29	1_2	1	2	4	1	23_4_1	3	-1	1	0	0.437343835831	225.0	-152.0	230.0	-149.0	1
3.0.1	2019_Mar_07_1540	s	s	10	1	SIC	30	2_1	2	1	1	3	23_1_3	-1	2	1	0	3.68604707718	25.0	-338.0	27.0	-336.0	1
3.0.1	2019_Mar_07_1540	s	s	10	1	SIC	31	ABS	0	0	2	1	24_2_1	NA	NA	0	1	8.34276986122	None	None	None	None	1
3.0.1	2019_Mar_07_1540	s	s	10	1	SIC	32	4_3	4	3	1	4	23_1_4	3	-1	1	0	0.51006603241	224.0	-206.0	227.0	-205.0	1
3.0.1	2019_Mar_07_1540	s	s	10	1	SIC	33	1_1	1	1	4	3	23_4_3	3	2	1	0	0.45134806633	497.0	-56.0	493.0	-54.0	1
3.0.1	2019_Mar_07_1540	s	s	10	1	SIC	34	ABS	0	0	3	4	24_3_4	NA	NA	0	1	3.95114707947	None	None	None	None	1
3.0.1	2019_Mar_07_1540	s	s	10	1	SIC	35	1_1	1	1	2	2	23_2_2	1	1	1	0	6.15527796745	-233.0	-300.0	-237.0	-313.0	1
3.0.1	2019_Mar_07_1540	s	s	10	1	SIC	36	ABS	0	0	1	3	24_1_3	NA	NA	0	1	6.6386039257	None	None	None	None	1
3.0.1	2019_Mar_07_1540	s	s	10	1	SIC	37	2_1	2	1	4	2	23_4_2	2	1	1	0	0.622746944427	302.0	-276.0	288.0	-271.0	1
3.0.1	2019_Mar_07_1540	s	s	10	1	SIC	38	3_2	3	2	1	1	23_1_1	2	-1	1	0	0.625604867935	253.0	183.0	260.0	178.0	1
3.0.1	2019_Mar_07_1540	s	s	10	1	SIC	39	ABS	0	0	4	4	24_4_4	NA	NA	0	1	3.34461188316	None	None	None	None	1
3.0.1	2019_Mar_07_1540	s	s	10	1	SIC	40	4_3	4	3	4	2	23_4_2	0	1	1	0	1.39883208275	51.0	151.0	57.0	143.0	1
3.0.1	2019_Mar_07_1540	s	s	10	1	SIC	41	ABS	0	0	4	2	24_4_2	NA	NA	0	1	3.45749807358	None	None	None	None	1
3.0.1	2019_Mar_07_1540	s	s	10	1	SIC	42	4_2	4	2	4	1	23_4_1	0	-1	1	0	1.15525484085	204.0	165.0	202.0	161.0	1
3.0.1	2019_Mar_07_1540	s	s	10	1	SIC	43	ABS	0	0	3	1	24_3_1	NA	NA	0	1	6.44441914558	None	None	None	None	1
3.0.1	2019_Mar_07_1540	s	s	10	1	SIC	44	3_2	3	2	1	4	23_1_4	2	2	1	0	0.5099568367	104.0	-157.0	112.0	-157.0	1
3.0.1	2019_Mar_07_1540	s	s	10	1	SIC	45	1_4	1	4	3	1	23_3_1	2	3	1	0	0.634439945221	334.0	-369.0	338.0	-366.0	1
3.0.1	2019_Mar_07_1540	s	s	10	1	SIC	46	3_3	3	3	1	2	23_1_2	2	1	1	0	0.555382013321	223.0	-315.0	221.0	-318.0	1
3.0.1	2019_Mar_07_1540	s	s	10	1	SIC	47	4_2	4	2	3	3	23_3_3	1	1	1	0	0.437397003174	390.0	-91.0	395.0	-94.0	1
3.0.1	2019_Mar_07_1540	s	s	10	1	SIC	48	ABS	0	0	3	1	24_3_1	NA	NA	0	1	6.93865990639	None	None	None	None	1
3.0.1	2019_Mar_07_1540	s	s	10	1	SIC	49	ABS	0	0	1	4	24_1_4	NA	NA	0	1	9.40828990936	None	None	None	None	1
3.0.1	2019_Mar_07_1540	s	s	10	1	SIC	50	3_2	3	2	1	3	23_1_3	2	1	1	0	0.554996967316	347.0	104.0	345.0	107.0	1
3.0.1	2019_Mar_07_1540	s	s	10	1	SIC	51	ABS	0	0	4	2	24_4_2	NA	NA	0	1	8.52619600296	None	None	None	None	1
3.0.1	2019_Mar_07_1540	s	s	10	1	SIC	52	ABS	0	0	4	1	24_4_1	NA	NA	0	1	13.2574110031	None	None	None	None	1
3.0.1	2019_Mar_07_1540	s	s	10	1	SIC	53	ABS	0	0	4	3	24_4_3	NA	NA	0	1	9.53757286072	None	None	None	None	1
3.0.1	2019_Mar_07_1540	s	s	10	1	SIC	54	2_1	2	1	2	3	23_2_3	0	2	1	0	0.905174970627	136.0	-139.0	134.0	-132.0	1
3.0.1	2019_Mar_07_1540	s	s	10	1	SIC	55	ABS	0	0	4	2	24_4_2	NA	NA	0	1	11.9184820652	None	None	None	None	1
3.0.1	2019_Mar_07_1540	s	s	10	1	SIC	56	ABS	0	0	3	3	24_3_3	NA	NA	0	1	11.3282248974	None	None	None	None	1
3.0.1	2019_Mar_07_1540	s	s	10	1	SIC	57	ABS	0	0	2	2	24_2_2	NA	NA	0	1	8.68426585197	None	None	None	None	1
3.0.1	2019_Mar_07_1540	s	s	10	1	SIC	58	ABS	0	0	2	1	24_2_1	NA	NA	0	1	11.4194049835	None	None	None	None	1
3.0.1	2019_Mar_07_1540	s	s	10	1	SIC	59	2_3	2	3	2	2	23_2_2	0	1	1	0	1.84874296188	248.0	231.0	243.0	226.0	1
3.0.1	2019_Mar_07_1540	s	s	10	1	SIC	60	4_1	4	1	2	4	23_2_4	2	3	1	0	0.578716993332	385.0	114.0	396.0	114.0	1
3.0.1	2019_Mar_07_1540	s	s	10	1	SIC	61	ABS	0	0	2	1	24_2_1	NA	NA	0	1	6.67334890366	None	None	None	None	1
3.0.1	2019_Mar_07_1540	s	s	10	1	SIC	62	4_2	4	2	4	3	23_4_3	0	1	1	0	3.8032720089	85.0	9.0	84.0	9.0	1
3.0.1	2019_Mar_07_1540	s	s	10	1	SIC	63	4_1	4	1	3	1	23_3_1	1	0	1	0	0.552134037018	146.0	-231.0	141.0	-240.0	1
3.0.1	2019_Mar_07_1540	s	s	10	1	SIC	64	1_4	1	4	3	3	23_3_3	2	1	1	0	0.599270105362	539.0	-312.0	537.0	-309.0	1
3.0.1	2019_Mar_07_1540	s	s	10	1	SIC	65	3_1	3	1	2	2	23_2_2	1	1	1	0	5.79338312149	-451.0	294.0	-447.0	295.0	1
3.0.1	2019_Mar_07_1540	s	s	10	1	SIC	66	ABS	0	0	1	1	24_1_1	NA	NA	0	1	7.53824901581	None	None	None	None	1
3.0.1	2019_Mar_07_1540	s	s	10	1	SIC	67	3_2	3	2	3	1	23_3_1	0	-1	1	0	3.70406603813	157.0	-165.0	153.0	-168.0	1
3.0.1	2019_Mar_07_1540	s	s	10	1	SIC	68	2_4	2	4	1	1	23_1_1	-1	3	1	0	0.599173069	224.0	400.0	223.0	404.0	1
3.0.1	2019_Mar_07_1540	s	s	10	1	SIC	69	1_1	1	1	3	3	23_3_3	2	2	1	0	0.603192090988	-382.0	-182.0	-385.0	-184.0	1
3.0.1	2019_Mar_07_1540	s	s	10	1	SIC	70	3_1	3	1	1	3	23_1_3	2	2	1	0	0.457937955856	285.0	-104.0	289.0	-100.0	1
3.0.1	2019_Mar_07_1540	s	s	10	1	SIC	71	3_4	3	4	4	3	23_4_3	-1	1	1	0	0.474819898605	-23.0	-324.0	-25.0	-322.0	1
3.0.1	2019_Mar_07_1540	s	s	10	1	SIC	72	3_4	3	4	4	1	23_4_1	-1	3	1	0	0.446248054504	465.0	-269.0	463.0	-266.0	1
3.0.1	2019_Mar_07_1540	s	s	10	1	SIC	73	ABS	0	0	2	3	24_2_3	NA	NA	0	1	14.5175168514	None	None	None	None	1
3.0.1	2019_Mar_07_1540	s	s	10	1	SIC	74	1_1	1	1	1	4	23_1_4	0	3	1	0	0.547744035721	111.0	-120.0	106.0	-110.0	1
3.0.1	2019_Mar_07_1540	s	s	10	1	SIC	75	4_4	4	4	1	2	23_1_2	3	2	1	0	0.428089141846	526.0	113.0	520.0	121.0	1
3.0.1	2019_Mar_07_1540	s	s	10	1	SIC	76	2_4	2	4	1	4	23_1_4	-1	0	1	0	8.4349899292	-477.0	-178.0	-486.0	-182.0	1
3.0.1	2019_Mar_07_1540	s	s	10	1	SIC	77	ABS	0	0	4	3	24_4_3	NA	NA	0	1	12.5841970444	None	None	None	None	1
3.0.1	2019_Mar_07_1540	s	s	10	1	SIC	78	2_4	2	4	4	3	23_4_3	2	1	1	0	0.519716978073	477.0	243.0	483.0	243.0	1
3.0.1	2019_Mar_07_1540	s	s	10	1	SIC	79	ABS	0	0	2	2	24_2_2	NA	NA	0	1	7.42606306076	None	None	None	None	1
3.0.1	2019_Mar_07_1540	s	s	10	1	SIC	80	ABS	0	0	2	1	24_2_1	NA	NA	0	1	3.86870789528	None	None	None	None	1
3.0.1	2019_Mar_07_1540	s	s	10	1	SIC	81	2_1	2	1	2	2	23_2_2	0	1	1	0	3.55632019043	164.0	-43.0	162.0	-48.0	1
3.0.1	2019_Mar_07_1540	s	s	10	1	SIC	82	ABS	0	0	2	3	24_2_3	NA	NA	0	1	11.485986948	None	None	None	None	1
3.0.1	2019_Mar_07_1540	s	s	10	1	SIC	83	1_3	1	3	2	1	23_2_1	1	2	1	0	2.26275992393	-105.0	-397.0	-96.0	-394.0	1
3.0.1	2019_Mar_07_1540	s	s	10	1	SIC	84	ABS	0	0	2	1	24_2_1	NA	NA	0	1	4.3923637867	None	None	None	None	1
3.0.1	2019_Mar_07_1540	s	s	10	1	SIC	85	ABS	0	0	2	1	24_2_1	NA	NA	0	1	4.93162608147	None	None	None	None	1
3.0.1	2019_Mar_07_1540	s	s	10	1	SIC	86	ABS	0	0	3	4	24_3_4	NA	NA	0	1	6.10698103905	None	None	None	None	1
3.0.1	2019_Mar_07_1540	s	s	10	1	SIC	87	ABS	0	0	4	3	24_4_3	NA	NA	0	1	5.92107701302	None	None	None	None	1
3.0.1	2019_Mar_07_1540	s	s	10	1	SIC	88	3_3	3	3	3	1	23_3_1	0	2	1	0	1.17546010017	-526.0	349.0	-518.0	345.0	1
3.0.1	2019_Mar_07_1540	s	s	10	1	SIC	89	3_2	3	2	4	2	23_4_2	-1	0	1	0	0.663156032562	-397.0	25.0	-395.0	18.0	1
3.0.1	2019_Mar_07_1540	s	s	10	1	SIC	90	4_1	4	1	2	3	23_2_3	2	2	1	0	0.42726111412	243.0	-6.0	238.0	-1.0	1
3.0.1	2019_Mar_07_1540	s	s	10	1	SIC	91	ABS	0	0	2	1	24_2_1	NA	NA	0	1	7.78524398804	None	None	None	None	1
3.0.1	2019_Mar_07_1540	s	s	10	1	SIC	92	ABS	0	0	3	4	24_3_4	NA	NA	0	1	7.59117794037	None	None	None	None	1
3.0.1	2019_Mar_07_1540	s	s	10	1	SIC	93	1_1	1	1	1	2	23_1_2	0	1	1	0	1.57811594009	-400.0	194.0	-402.0	194.0	1
3.0.1	2019_Mar_07_1540	s	s	10	1	SIC	94	ABS	0	0	2	4	24_2_4	NA	NA	0	1	9.91894698143	None	None	None	None	1
3.0.1	2019_Mar_07_1540	s	s	10	1	SIC	95	ABS	0	0	2	4	24_2_4	NA	NA	0	1	8.22567391396	None	None	None	None	1
3.0.1	2019_Mar_07_1540	s	s	10	1	SIC	96	4_3	4	3	3	2	23_3_2	1	1	1	0	0.751986980438	-521.0	-282.0	-509.0	-275.0	1
3.0.1	2019_Mar_07_1540	s	s	10	1	SIC	97	3_4	3	4	2	4	23_2_4	1	0	1	0	1.06345582008	395.0	-134.0	401.0	-129.0	1
3.0.1	2019_Mar_07_1540	s	s	10	1	SIC	98	ABS	0	0	4	2	24_4_2	NA	NA	0	1	11.2665040493	None	None	None	None	1
3.0.1	2019_Mar_07_1540	s	s	10	1	SIC	99	3_4	3	4	3	1	23_3_1	0	3	1	0	0.563822984695	415.0	-156.0	415.0	-151.0	1
3.0.1	2019_Mar_07_1540	s	s	10	1	SIC	100	ABS	0	0	1	4	24_1_4	NA	NA	0	1	11.0950820446	None	None	None	None	1
3.0.1	2019_Mar_07_1540	s	s	10	1	SIC	101	1_3	1	3	4	1	23_4_1	3	2	1	0	0.440699100494	-178.0	72.0	-182.0	60.0	1
3.0.1	2019_Mar_07_1540	s	s	10	1	SIC	102	ABS	0	0	1	1	24_1_1	NA	NA	0	1	5.37707591057	None	None	None	None	1
3.0.1	2019_Mar_07_1540	s	s	10	1	SIC	103	2_1	2	1	3	3	23_3_3	1	2	1	0	0.497135877609	471.0	286.0	469.0	287.0	1
3.0.1	2019_Mar_07_1540	s	s	10	1	SIC	104	ABS	0	0	2	2	24_2_2	NA	NA	0	1	2.67906904221	None	None	None	None	1
3.0.1	2019_Mar_07_1540	s	s	10	1	SIC	105	ABS	0	0	1	2	24_1_2	NA	NA	0	1	11.4080078602	None	None	None	None	1
3.0.1	2019_Mar_07_1540	s	s	10	1	SIC	106	ABS	0	0	1	4	24_1_4	NA	NA	0	1	5.73594903946	None	None	None	None	1
3.0.1	2019_Mar_07_1540	s	s	10	1	SIC	107	4_1	4	1	1	1	23_1_1	3	0	1	0	0.501658201218	263.0	-280.0	259.0	-283.0	1
3.0.1	2019_Mar_07_1540	s	s	10	1	SIC	108	ABS	0	0	1	3	24_1_3	NA	NA	0	1	9.48741292953	None	None	None	None	1
3.0.1	2019_Mar_07_1540	s	s	10	1	SIC	109	ABS	0	0	3	1	24_3_1	NA	NA	0	1	5.41345000267	None	None	None	None	1
3.0.1	2019_Mar_07_1540	s	s	10	1	SIC	110	ABS	0	0	4	3	24_4_3	NA	NA	0	1	6.97871494293	None	None	None	None	1
3.0.1	2019_Mar_07_1540	s	s	10	1	SIC	111	ABS	0	0	4	3	24_4_3	NA	NA	0	1	8.16156482697	None	None	None	None	1
3.0.1	2019_Mar_07_1540	s	s	10	1	SIC	112	4_3	4	3	3	3	23_3_3	1	0	1	0	0.646148920059	423.0	57.0	426.0	50.0	1
3.0.1	2019_Mar_07_1540	s	s	10	1	SIC	113	4_3	4	3	4	1	23_4_1	0	2	1	0	1.9280860424	306.0	-228.0	306.0	-237.0	1
3.0.1	2019_Mar_07_1540	s	s	10	1	SIC	114	ABS	0	0	4	4	24_4_4	NA	NA	0	1	10.3727049828	None	None	None	None	1
3.0.1	2019_Mar_07_1540	s	s	10	1	SIC	115	ABS	0	0	4	1	24_4_1	NA	NA	0	1	8.75452113152	None	None	None	None	1
3.0.1	2019_Mar_07_1540	s	s	10	1	SIC	116	3_3	3	3	1	1	23_1_1	2	2	1	0	0.826341867447	43.0	290.0	45.0	290.0	1
3.0.1	2019_Mar_07_1540	s	s	10	1	SIC	117	ABS	0	0	3	3	24_3_3	NA	NA	0	1	10.5607910156	None	None	None	None	1
3.0.1	2019_Mar_07_1540	s	s	10	1	SIC	118	1_4	1	4	1	3	23_1_3	0	1	1	0	1.10976815224	-68.0	-173.0	-62.0	-172.0	1
3.0.1	2019_Mar_07_1540	s	s	10	1	SIC	119	2_4	2	4	1	2	23_1_2	-1	2	1	0	0.563900947571	46.0	158.0	53.0	153.0	1
3.0.1	2019_Mar_07_1540	s	s	10	1	SIC	120	3_2	3	2	4	3	23_4_3	-1	1	1	0	0.415941953659	-310.0	129.0	-316.0	134.0	1
3.0.1	2019_Mar_07_1540	s	s	10	1	SIC	121	ABS	0	0	3	4	24_3_4	NA	NA	0	1	7.47942686081	None	None	None	None	1
3.0.1	2019_Mar_07_1540	s	s	10	1	SIC	122	ABS	0	0	2	3	24_2_3	NA	NA	0	1	10.6597189903	None	None	None	None	1
3.0.1	2019_Mar_07_1540	s	s	10	1	SIC	123	4_4	4	4	1	1	23_1_1	3	3	1	0	0.674557924271	-136.0	408.0	-135.0	413.0	1
3.0.1	2019_Mar_07_1540	s	s	10	1	SIC	124	2_4	2	4	3	2	23_3_2	1	2	1	0	0.664627790451	-82.0	-316.0	-81.0	-315.0	1
3.0.1	2019_Mar_07_1540	s	s	10	1	SIC	125	2_4	2	4	3	3	23_3_3	1	1	1	0	0.592425823212	-351.0	290.0	-343.0	292.0	1
3.0.1	2019_Mar_07_1540	s	s	10	1	SIC	126	ABS	0	0	3	4	24_3_4	NA	NA	0	1	4.88019585609	None	None	None	None	1
3.0.1	2019_Mar_07_1540	s	s	10	1	SIC	127	ABS	0	0	4	1	24_4_1	NA	NA	0	1	3.42962098122	None	None	None	None	1
3.0.1	2019_Mar_07_1540	s	s	10	1	SIC	128	ABS	0	0	4	1	24_4_1	NA	NA	0	1	5.08306193352	None	None	None	None	1
3.0.1	2019_Mar_07_1540	s	s	10	1	SIC	129	2_1	2	1	1	1	23_1_1	-1	0	0	1	5.77696490288	-2.0	-388.0	None	None	0
3.0.1	2019_Mar_07_1540	s	s	10	1	SIC	130	4_4	4	4	3	1	23_3_1	1	3	1	0	0.622648954391	132.0	-377.0	125.0	-372.0	1
3.0.1	2019_Mar_07_1540	s	s	10	1	SIC	131	ABS	0	0	1	4	24_1_4	NA	NA	0	1	7.38122296333	None	None	None	None	1
3.0.1	2019_Mar_07_1540	s	s	10	1	SIC	132	4_2	4	2	1	1	23_1_1	3	-1	1	0	0.486629009247	190.0	-374.0	180.0	-374.0	1
3.0.1	2019_Mar_07_1540	s	s	10	1	SIC	133	ABS	0	0	3	3	24_3_3	NA	NA	0	1	5.8211247921	None	None	None	None	1
3.0.1	2019_Mar_07_1540	s	s	10	1	SIC	134	ABS	0	0	2	2	24_2_2	NA	NA	0	1	8.80845093727	None	None	None	None	1
3.0.1	2019_Mar_07_1540	s	s	10	1	SIC	135	1_4	1	4	1	2	23_1_2	0	2	1	0	0.881420135498	-427.0	-159.0	-438.0	-149.0	1
3.0.1	2019_Mar_07_1540	s	s	10	1	SIC	136	2_2	2	2	4	1	23_4_1	2	-1	1	0	0.469758033752	30.0	-328.0	23.0	-331.0	1
3.0.1	2019_Mar_07_1540	s	s	10	1	SIC	137	ABS	0	0	3	3	24_3_3	NA	NA	0	1	6.57376003265	None	None	None	None	1
3.0.1	2019_Mar_07_1540	s	s	10	1	SIC	138	ABS	0	0	3	2	24_3_2	NA	NA	0	1	9.97277593613	None	None	None	None	1
3.0.1	2019_Mar_07_1540	s	s	10	1	SIC	139	ABS	0	0	3	2	24_3_2	NA	NA	0	1	9.43947696686	None	None	None	None	1
3.0.1	2019_Mar_07_1540	s	s	10	1	SIC	140	ABS	0	0	2	2	24_2_2	NA	NA	0	1	10.2834408283	None	None	None	None	1
3.0.1	2019_Mar_07_1540	s	s	10	1	SIC	141	4_4	4	4	1	3	23_1_3	3	1	1	0	0.610950946808	499.0	-375.0	491.0	-371.0	1
3.0.1	2019_Mar_07_1540	s	s	10	1	SIC	142	4_1	4	1	3	3	23_3_3	1	2	1	0	0.384616851807	-199.0	-171.0	-201.0	-167.0	1
3.0.1	2019_Mar_07_1540	s	s	10	1	SIC	143	ABS	0	0	3	2	24_3_2	NA	NA	0	1	8.84093499184	None	None	None	None	1
3.0.1	2019_Mar_07_1540	s	s	10	1	SIC	144	ABS	0	0	1	4	24_1_4	NA	NA	0	1	6.47975897789	None	None	None	None	1
3.0.1	2019_Mar_07_1540	s	s	10	1	SIC	145	1_3	1	3	3	1	23_3_1	2	2	1	0	0.658399105072	257.0	121.0	262.0	124.0	1
3.0.1	2019_Mar_07_1540	s	s	10	1	SIC	146	ABS	0	0	1	2	24_1_2	NA	NA	0	1	12.3079431057	None	None	None	None	1
3.0.1	2019_Mar_07_1540	s	s	10	1	SIC	147	1_2	1	2	4	3	23_4_3	3	1	1	0	0.443693161011	-132.0	249.0	-124.0	249.0	1
3.0.1	2019_Mar_07_1540	s	s	10	1	SIC	148	3_4	3	4	4	2	23_4_2	-1	2	1	0	0.516793966293	-134.0	-150.0	-124.0	-151.0	1
3.0.1	2019_Mar_07_1540	s	s	10	1	SIC	149	3_3	3	3	2	1	23_2_1	1	2	1	0	0.496223926544	26.0	-52.0	21.0	-50.0	1
3.0.1	2019_Mar_07_1540	s	s	10	1	SIC	150	ABS	0	0	2	1	24_2_1	NA	NA	0	1	8.16665410995	None	None	None	None	1
3.0.1	2019_Mar_07_1540	s	s	10	1	SIC	151	1_1	1	1	3	2	23_3_2	2	1	1	0	0.507984161377	-196.0	-132.0	-189.0	-134.0	1
3.0.1	2019_Mar_07_1540	s	s	10	1	SIC	152	4_4	4	4	4	1	23_4_1	0	3	1	0	0.575598955154	436.0	53.0	434.0	47.0	1
3.0.1	2019_Mar_07_1540	s	s	10	1	SIC	153	ABS	0	0	3	3	24_3_3	NA	NA	0	1	6.72961902618	None	None	None	None	1
3.0.1	2019_Mar_07_1540	s	s	10	1	SIC	154	1_3	1	3	4	3	23_4_3	3	0	1	0	0.442829847336	74.0	190.0	63.0	190.0	1
3.0.1	2019_Mar_07_1540	s	s	10	1	SIC	155	3_1	3	1	3	4	23_3_4	0	3	1	0	0.543250083923	298.0	-119.0	290.0	-119.0	1
3.0.1	2019_Mar_07_1540	s	s	10	1	SIC	156	1_3	1	3	1	2	23_1_2	0	1	1	0	5.3980410099	-51.0	-255.0	-51.0	-259.0	1
3.0.1	2019_Mar_07_1540	s	s	10	1	SIC	157	ABS	0	0	2	2	24_2_2	NA	NA	0	1	14.8301620483	None	None	None	None	1
3.0.1	2019_Mar_07_1540	s	s	10	1	SIC	158	ABS	0	0	3	3	24_3_3	NA	NA	0	1	13.0481460094	None	None	None	None	1
3.0.1	2019_Mar_07_1540	s	s	10	1	SIC	159	ABS	0	0	2	2	24_2_2	NA	NA	0	1	19.3698830605	None	None	None	None	1
3.0.1	2019_Mar_07_1540	s	s	10	1	SIC	160	3_1	3	1	4	4	23_4_4	-1	3	1	0	0.651017904282	-238.0	-299.0	-247.0	-300.0	1
3.0.1	2019_Mar_07_1540	s	s	10	1	SIC	161	ABS	0	0	1	2	24_1_2	NA	NA	0	1	9.41278409958	None	None	None	None	1
3.0.1	2019_Mar_07_1540	s	s	10	1	SIC	162	ABS	0	0	1	3	24_1_3	NA	NA	0	1	10.0591189861	None	None	None	None	1
3.0.1	2019_Mar_07_1540	s	s	10	1	SIC	163	3_3	3	3	3	4	23_3_4	0	-1	1	0	1.80394601822	-55.0	-72.0	-56.0	-72.0	1
3.0.1	2019_Mar_07_1540	s	s	10	1	SIC	164	ABS	0	0	1	2	24_1_2	NA	NA	0	1	13.7010161877	None	None	None	None	1
3.0.1	2019_Mar_07_1540	s	s	10	1	SIC	165	ABS	0	0	3	3	24_3_3	NA	NA	0	1	8.9377810955	None	None	None	None	1
3.0.1	2019_Mar_07_1540	s	s	10	1	SIC	166	ABS	0	0	2	3	24_2_3	NA	NA	0	1	19.1157791615	None	None	None	None	1
3.0.1	2019_Mar_07_1540	s	s	10	1	SIC	167	2_3	2	3	2	1	23_2_1	0	2	1	0	1.19236207008	192.0	126.0	199.0	130.0	1
3.0.1	2019_Mar_07_1540	s	s	10	1	SIC	168	ABS	0	0	4	1	24_4_1	NA	NA	0	1	6.70311689377	None	None	None	None	1
3.0.1	2019_Mar_07_1540	s	s	10	1	SIC	169	1_4	1	4	2	3	23_2_3	1	1	1	0	0.791240215302	-116.0	234.0	-120.0	236.0	1
3.0.1	2019_Mar_07_1540	s	s	10	1	SIC	170	ABS	0	0	1	3	24_1_3	NA	NA	0	1	15.9172959328	None	None	None	None	1
3.0.1	2019_Mar_07_1540	s	s	10	1	SIC	171	4_1	4	1	2	1	23_2_1	2	0	1	0	0.51683807373	321.0	-333.0	312.0	-333.0	1
3.0.1	2019_Mar_07_1540	s	s	10	1	SIC	172	2_2	2	2	1	1	23_1_1	-1	-1	1	0	6.40914106369	424.0	-277.0	432.0	-277.0	1
3.0.1	2019_Mar_07_1540	s	s	10	1	SIC	173	3_2	3	2	2	3	23_2_3	1	1	1	0	0.516775846481	445.0	14.0	443.0	14.0	1
3.0.1	2019_Mar_07_1540	s	s	10	1	SIC	174	ABS	0	0	4	2	24_4_2	NA	NA	0	1	9.20564508438	None	None	None	None	1
3.0.1	2019_Mar_07_1540	s	s	10	1	SIC	175	1_1	1	1	4	1	23_4_1	3	0	1	0	0.528506994247	-49.0	-278.0	-60.0	-271.0	1
3.0.1	2019_Mar_07_1540	s	s	10	1	SIC	176	ABS	0	0	2	1	24_2_1	NA	NA	0	1	8.27407407761	None	None	None	None	1
3.0.1	2019_Mar_07_1540	s	s	10	1	SIC	177	1_1	1	1	4	4	23_4_4	3	3	1	0	0.442384004593	-102.0	-285.0	-99.0	-278.0	1
3.0.1	2019_Mar_07_1540	s	s	10	1	SIC	178	ABS	0	0	2	1	24_2_1	NA	NA	0	1	12.2896869183	None	None	None	None	1
3.0.1	2019_Mar_07_1540	s	s	10	1	SIC	179	3_3	3	3	4	4	23_4_4	-1	-1	1	0	0.731489181519	282.0	-170.0	283.0	-161.0	1
3.0.1	2019_Mar_07_1540	s	s	10	1	SIC	180	ABS	0	0	3	3	24_3_3	NA	NA	0	1	10.5961289406	None	None	None	None	1
3.0.1	2019_Mar_07_1540	s	s	10	1	SIC	181	1_1	1	1	2	1	23_2_1	1	0	1	0	5.69606208801	-18.0	-167.0	-12.0	-166.0	1
3.0.1	2019_Mar_07_1540	s	s	10	1	SIC	182	4_3	4	3	2	3	23_2_3	2	0	1	0	0.469753980637	85.0	293.0	85.0	296.0	1
3.0.1	2019_Mar_07_1540	s	s	10	1	SIC	183	ABS	0	0	3	2	24_3_2	NA	NA	0	1	7.04166197777	None	None	None	None	1
3.0.1	2019_Mar_07_1540	s	s	10	1	SIC	184	2_4	2	4	1	3	23_1_3	-1	1	1	0	0.658049821854	202.0	-372.0	193.0	-375.0	1
3.0.1	2019_Mar_07_1540	s	s	10	1	SIC	185	ABS	0	0	4	2	24_4_2	NA	NA	0	1	9.86013007164	None	None	None	None	1
3.0.1	2019_Mar_07_1540	s	s	10	1	SIC	186	3_1	3	1	4	1	23_4_1	-1	0	1	0	0.500232934952	289.0	-147.0	291.0	-152.0	1
3.0.1	2019_Mar_07_1540	s	s	10	1	SIC	187	4_3	4	3	2	4	23_2_4	2	-1	1	0	0.422756910324	98.0	-354.0	93.0	-360.0	1
3.0.1	2019_Mar_07_1540	s	s	10	1	SIC	188	4_2	4	2	1	4	23_1_4	3	2	1	0	0.399183988571	99.0	389.0	104.0	388.0	1
3.0.1	2019_Mar_07_1540	s	s	10	1	SIC	189	3_1	3	1	3	3	23_3_3	0	2	1	0	0.804071903229	-154.0	336.0	-152.0	335.0	1
3.0.1	2019_Mar_07_1540	s	s	10	1	SIC	190	4_4	4	4	4	3	23_4_3	0	1	1	0	1.75679898262	-183.0	-92.0	-177.0	-95.0	1
3.0.1	2019_Mar_07_1540	s	s	10	1	SIC	191	3_2	3	2	2	2	23_2_2	1	0	1	0	1.27619194984	-494.0	-111.0	-500.0	-106.0	1
3.0.1	2019_Mar_07_1540	s	s	10	1	SIC	192	ABS	0	0	1	3	24_1_3	NA	NA	0	1	7.41367387772	None	None	None	None	1
3.0.1	2019_Mar_07_1540	s	s	10	1	SIC	193	ABS	0	0	2	2	24_2_2	NA	NA	0	1	7.91467499733	None	None	None	None	1
3.0.1	2019_Mar_07_1540	s	s	10	1	SIC	194	ABS	0	0	2	2	24_2_2	NA	NA	0	1	18.1794202328	None	None	None	None	1
3.0.1	2019_Mar_07_1540	s	s	10	1	SIC	195	ABS	0	0	2	3	24_2_3	NA	NA	0	1	9.1142039299	None	None	None	None	1
3.0.1	2019_Mar_07_1540	s	s	10	1	SIC	196	ABS	0	0	4	2	24_4_2	NA	NA	0	1	8.43495202065	None	None	None	None	1
3.0.1	2019_Mar_07_1540	s	s	10	1	SIC	197	ABS	0	0	2	2	24_2_2	NA	NA	0	1	10.1020770073	None	None	None	None	1
3.0.1	2019_Mar_07_1540	s	s	10	1	SIC	198	ABS	0	0	4	4	24_4_4	NA	NA	0	1	4.35600209236	None	None	None	None	1
3.0.1	2019_Mar_07_1540	s	s	10	1	SIC	199	ABS	0	0	1	2	24_1_2	NA	NA	0	1	11.4782600403	None	None	None	None	1
3.0.1	2019_Mar_07_1540	s	s	10	1	SIC	200	ABS	0	0	1	4	24_1_4	NA	NA	0	1	6.84722399712	None	None	None	None	1
3.0.1	2019_Mar_07_1540	s	s	10	1	SIC	201	3_3	3	3	3	2	23_3_2	0	1	1	0	4.40078306198	362.0	230.0	366.0	229.0	1
3.0.1	2019_Mar_07_1540	s	s	10	1	SIC	202	ABS	0	0	3	1	24_3_1	NA	NA	0	1	8.91021203995	None	None	None	None	1
3.0.1	2019_Mar_07_1540	s	s	10	1	SIC	203	2_1	2	1	3	2	23_3_2	1	1	1	0	0.834401845932	333.0	-298.0	333.0	-308.0	1
3.0.1	2019_Mar_07_1540	s	s	10	1	SIC	204	ABS	0	0	1	2	24_1_2	NA	NA	0	1	7.82051992416	None	None	None	None	1
3.0.1	2019_Mar_07_1540	s	s	10	1	SIC	205	ABS	0	0	3	1	24_3_1	NA	NA	0	1	8.04883503914	None	None	None	None	1
3.0.1	2019_Mar_07_1540	s	s	10	1	SIC	206	4_1	4	1	1	2	23_1_2	3	1	1	0	0.516790866852	296.0	340.0	307.0	341.0	1
3.0.1	2019_Mar_07_1540	s	s	10	1	SIC	207	ABS	0	0	4	1	24_4_1	NA	NA	0	1	3.63795614243	None	None	None	None	1
3.0.1	2019_Mar_07_1540	s	s	10	1	SIC	208	2_4	2	4	3	4	23_3_4	1	0	1	0	1.65774106979	-470.0	-180.0	-471.0	-178.0	1
3.0.1	2019_Mar_07_1540	s	s	10	1	SIC	209	1_3	1	3	3	4	23_3_4	2	-1	1	0	0.544862985611	327.0	242.0	335.0	252.0	1
3.0.1	2019_Mar_07_1540	s	s	10	1	SIC	210	ABS	0	0	4	4	24_4_4	NA	NA	0	1	9.00846195221	None	None	None	None	1
3.0.1	2019_Mar_07_1540	s	s	10	1	SIC	211	2_3	2	3	1	1	23_1_1	-1	2	1	0	4.78903198242	212.0	-292.0	200.0	-287.0	1
3.0.1	2019_Mar_07_1540	s	s	10	1	SIC	212	3_3	3	3	4	2	23_4_2	-1	1	1	0	0.50123000145	-208.0	-220.0	-198.0	-222.0	1
3.0.1	2019_Mar_07_1540	s	s	10	1	SIC	213	ABS	0	0	2	4	24_2_4	NA	NA	0	1	5.80930018425	None	None	None	None	1
3.0.1	2019_Mar_07_1540	s	s	10	1	SIC	214	ABS	0	0	1	4	24_1_4	NA	NA	0	1	12.4224531651	None	None	None	None	1
3.0.1	2019_Mar_07_1540	s	s	10	1	SIC	215	2_3	2	3	4	4	23_4_4	2	-1	1	0	0.457952022552	-310.0	-253.0	-305.0	-248.0	1
3.0.1	2019_Mar_07_1540	s	s	10	1	SIC	216	2_3	2	3	3	2	23_3_2	1	1	1	0	0.469763994217	-239.0	-105.0	-236.0	-99.0	1
3.0.1	2019_Mar_07_1540	s	s	10	1	SIC	217	4_1	4	1	4	3	23_4_3	0	2	1	0	1.93993210793	388.0	378.0	393.0	369.0	1
3.0.1	2019_Mar_07_1540	s	s	10	1	SIC	218	1_4	1	4	2	2	23_2_2	1	2	1	0	3.7091460228	343.0	-376.0	346.0	-373.0	1
3.0.1	2019_Mar_07_1540	s	s	10	1	SIC	219	ABS	0	0	4	2	24_4_2	NA	NA	0	1	9.27289009094	None	None	None	None	1
3.0.1	2019_Mar_07_1540	s	s	10	1	SIC	220	ABS	0	0	2	4	24_2_4	NA	NA	0	1	7.04429602623	None	None	None	None	1
3.0.1	2019_Mar_07_1540	s	s	10	1	SIC	221	ABS	0	0	2	4	24_2_4	NA	NA	0	1	5.62116098404	None	None	None	None	1
3.0.1	2019_Mar_07_1540	s	s	10	1	SIC	222	ABS	0	0	3	4	24_3_4	NA	NA	0	1	6.0210750103	None	None	None	None	1
3.0.1	2019_Mar_07_1540	s	s	10	1	SIC	223	1_3	1	3	1	1	23_1_1	0	2	1	0	1.05105996132	-303.0	-51.0	-301.0	-54.0	1
3.0.1	2019_Mar_07_1540	s	s	10	1	SIC	224	4_4	4	4	2	1	23_2_1	2	3	1	0	0.416243076324	161.0	27.0	157.0	32.0	1
3.0.1	2019_Mar_07_1540	s	s	10	1	SIC	225	ABS	0	0	2	1	24_2_1	NA	NA	0	1	12.1044478416	None	None	None	None	1
3.0.1	2019_Mar_07_1540	s	s	10	1	SIC	226	1_3	1	3	2	2	23_2_2	1	1	1	0	1.48126411438	242.0	-238.0	247.0	-241.0	1
3.0.1	2019_Mar_07_1540	s	s	10	1	SIC	227	2_4	2	4	4	1	23_4_1	2	3	1	0	0.457980871201	-150.0	-306.0	-146.0	-311.0	1
3.0.1	2019_Mar_07_1540	s	s	10	1	SIC	228	1_2	1	2	2	3	23_2_3	1	1	1	0	3.13264203072	159.0	-141.0	170.0	-133.0	1
3.0.1	2019_Mar_07_1540	s	s	10	1	SIC	229	1_2	1	2	3	2	23_3_2	2	0	1	0	0.545139074326	-480.0	-339.0	-475.0	-331.0	1
3.0.1	2019_Mar_07_1540	s	s	10	1	SIC	230	3_1	3	1	4	2	23_4_2	-1	1	1	0	0.427401065826	0.0	-140.0	-7.0	-147.0	1
3.0.1	2019_Mar_07_1540	s	s	10	1	SIC	231	ABS	0	0	4	2	24_4_2	NA	NA	0	1	9.61612200737	None	None	None	None	1
3.0.1	2019_Mar_07_1540	s	s	10	1	SIC	232	ABS	0	0	3	4	24_3_4	NA	NA	0	1	11.1488940716	None	None	None	None	1
3.0.1	2019_Mar_07_1540	s	s	10	1	SIC	233	ABS	0	0	4	3	24_4_3	NA	NA	0	1	16.5874729156	None	None	None	None	1
3.0.1	2019_Mar_07_1540	s	s	10	1	SIC	234	2_4	2	4	4	4	23_4_4	2	0	1	0	0.627368927002	447.0	-356.0	459.0	-353.0	1
3.0.1	2019_Mar_07_1540	s	s	10	1	SIC	235	1_1	1	1	3	4	23_3_4	2	3	1	0	0.481585979462	-214.0	121.0	-209.0	123.0	1
3.0.1	2019_Mar_07_1540	s	s	10	1	SIC	236	ABS	0	0	4	3	24_4_3	NA	NA	0	1	9.41303992271	None	None	None	None	1
3.0.1	2019_Mar_07_1540	s	s	10	1	SIC	237	ABS	0	0	2	4	24_2_4	NA	NA	0	1	6.12018299103	None	None	None	None	1
3.0.1	2019_Mar_07_1540	s	s	10	1	SIC	238	2_2	2	2	4	4	23_4_4	2	2	1	0	0.555025100708	-329.0	-68.0	-317.0	-66.0	1
3.0.1	2019_Mar_07_1540	s	s	10	1	SIC	239	1_2	1	2	1	4	23_1_4	0	2	1	0	0.763988018036	5.0	209.0	-2.0	212.0	1
3.0.1	2019_Mar_07_1540	s	s	10	1	SIC	240	ABS	0	0	1	3	24_1_3	NA	NA	0	1	8.0678229332	None	None	None	None	1
3.0.1	2019_Mar_07_1540	s	s	10	1	SIC	241	ABS	0	0	3	3	24_3_3	NA	NA	0	1	5.65649914742	None	None	None	None	1
3.0.1	2019_Mar_07_1540	s	s	10	1	SIC	242	ABS	0	0	3	4	24_3_4	NA	NA	0	1	3.7893550396	None	None	None	None	1
3.0.1	2019_Mar_07_1540	s	s	10	1	SIC	243	2_2	2	2	2	4	23_2_4	0	2	1	0	0.545291900635	170.0	285.0	163.0	291.0	1
3.0.1	2019_Mar_07_1540	s	s	10	1	SIC	244	ABS	0	0	4	3	24_4_3	NA	NA	0	1	7.2324090004	None	None	None	None	1
3.0.1	2019_Mar_07_1540	s	s	10	1	SIC	245	4_2	4	2	2	1	23_2_1	2	-1	1	0	0.49746799469	397.0	201.0	401.0	204.0	1
3.0.1	2019_Mar_07_1540	s	s	10	1	SIC	246	ABS	0	0	2	4	24_2_4	NA	NA	0	1	3.95584893227	None	None	None	None	1
3.0.1	2019_Mar_07_1540	s	s	10	1	SIC	247	ABS	0	0	2	2	24_2_2	NA	NA	0	1	4.07377696037	None	None	None	None	1
3.0.1	2019_Mar_07_1540	s	s	10	1	SIC	248	ABS	0	0	2	1	24_2_1	NA	NA	0	1	4.67139101028	None	None	None	None	1
3.0.1	2019_Mar_07_1540	s	s	10	1	SIC	249	ABS	0	0	1	3	24_1_3	NA	NA	0	1	7.37649703026	None	None	None	None	1
3.0.1	2019_Mar_07_1540	s	s	10	1	SIC	250	3_2	3	2	4	4	23_4_4	-1	2	1	0	0.505083084106	-103.0	-81.0	-101.0	-75.0	1
3.0.1	2019_Mar_07_1540	s	s	10	1	SIC	251	2_3	2	3	1	2	23_1_2	-1	1	1	0	1.68607902527	89.0	362.0	91.0	363.0	1
3.0.1	2019_Mar_07_1540	s	s	10	1	SIC	252	ABS	0	0	4	1	24_4_1	NA	NA	0	1	6.6174800396	None	None	None	None	1
3.0.1	2019_Mar_07_1540	s	s	10	1	SIC	253	1_4	1	4	1	1	23_1_1	0	3	1	0	0.619874000549	347.0	-288.0	338.0	-292.0	1
3.0.1	2019_Mar_07_1540	s	s	10	1	SIC	254	3_3	3	3	1	4	23_1_4	2	-1	1	0	0.521530866623	-444.0	-161.0	-450.0	-168.0	1
3.0.1	2019_Mar_07_1540	s	s	10	1	SIC	255	3_3	3	3	4	1	23_4_1	-1	2	1	0	0.411041021347	237.0	-124.0	237.0	-127.0	1
3.0.1	2019_Mar_07_1540	s	s	10	1	SIC	256	ABS	0	0	4	3	24_4_3	NA	NA	0	1	6.20918297768	None	None	None	None	1
3.0.1	2019_Mar_07_1540	s	s	10	1	SIC	257	4_1	4	1	3	4	23_3_4	1	3	1	0	0.469753026962	-130.0	-313.0	-125.0	-307.0	1
3.0.1	2019_Mar_07_1540	s	s	10	1	SIC	258	3_3	3	3	1	3	23_1_3	2	0	1	0	0.613795995712	-398.0	300.0	-394.0	303.0	1
3.0.1	2019_Mar_07_1540	s	s	10	1	SIC	259	ABS	0	0	2	3	24_2_3	NA	NA	0	1	5.95946002007	None	None	None	None	1
3.0.1	2019_Mar_07_1540	s	s	10	1	SIC	260	ABS	0	0	3	1	24_3_1	NA	NA	0	1	4.08338594437	None	None	None	None	1
3.0.1	2019_Mar_07_1540	s	s	10	1	SIC	261	ABS	0	0	1	1	24_1_1	NA	NA	0	1	4.11573600769	None	None	None	None	1
3.0.1	2019_Mar_07_1540	s	s	10	1	SIC	262	ABS	0	0	2	4	24_2_4	NA	NA	0	1	4.48553204536	None	None	None	None	1
3.0.1	2019_Mar_07_1540	s	s	10	1	SIC	263	ABS	0	0	1	1	24_1_1	NA	NA	0	1	3.65699505806	None	None	None	None	1
3.0.1	2019_Mar_07_1540	s	s	10	1	SIC	264	1_4	1	4	2	1	23_2_1	1	3	1	0	0.580610990524	534.0	233.0	531.0	232.0	1
3.0.1	2019_Mar_07_1540	s	s	10	1	SIC	265	ABS	0	0	1	2	24_1_2	NA	NA	0	1	7.76165604591	None	None	None	None	1
3.0.1	2019_Mar_07_1540	s	s	10	1	SIC	266	ABS	0	0	3	1	24_3_1	NA	NA	0	1	3.07410287857	None	None	None	None	1
3.0.1	2019_Mar_07_1540	s	s	10	1	SIC	267	2_1	2	1	1	2	23_1_2	-1	1	1	0	0.897989988327	-60.0	2.0	-64.0	2.0	1
3.0.1	2019_Mar_07_1540	s	s	10	1	SIC	268	ABS	0	0	2	3	24_2_3	NA	NA	0	1	6.52017807961	None	None	None	None	1
3.0.1	2019_Mar_07_1540	s	s	10	1	SIC	269	ABS	0	0	4	1	24_4_1	NA	NA	0	1	3.13963198662	None	None	None	None	1
3.0.1	2019_Mar_07_1540	s	s	10	1	SIC	270	4_3	4	3	4	4	23_4_4	0	-1	1	0	1.17000412941	246.0	-208.0	244.0	-212.0	1
3.0.1	2019_Mar_07_1540	s	s	10	1	SIC	271	ABS	0	0	4	2	24_4_2	NA	NA	0	1	6.49437594414	None	None	None	None	1
3.0.1	2019_Mar_07_1540	s	s	10	1	SIC	272	ABS	0	0	3	2	24_3_2	NA	NA	0	1	6.54361581802	None	None	None	None	1
3.0.1	2019_Mar_07_1540	s	s	10	1	SIC	273	ABS	0	0	1	2	24_1_2	NA	NA	0	1	12.682696104	None	None	None	None	1
3.0.1	2019_Mar_07_1540	s	s	10	1	SIC	274	4_3	4	3	1	1	23_1_1	3	2	1	0	0.555733919144	406.0	-43.0	416.0	-44.0	1
3.0.1	2019_Mar_07_1540	s	s	10	1	SIC	275	ABS	0	0	4	4	24_4_4	NA	NA	0	1	4.87248802185	None	None	None	None	1
3.0.1	2019_Mar_07_1540	s	s	10	1	SIC	276	2_2	2	2	2	3	23_2_3	0	1	1	0	3.82591199875	384.0	-133.0	392.0	-131.0	1
3.0.1	2019_Mar_07_1540	s	s	10	1	SIC	277	ABS	0	0	4	3	24_4_3	NA	NA	0	1	10.4124219418	None	None	None	None	1
3.0.1	2019_Mar_07_1540	s	s	10	1	SIC	278	ABS	0	0	4	4	24_4_4	NA	NA	0	1	5.75057578087	None	None	None	None	1
3.0.1	2019_Mar_07_1540	s	s	10	1	SIC	279	ABS	0	0	4	2	24_4_2	NA	NA	0	1	8.82460618019	None	None	None	None	1
3.0.1	2019_Mar_07_1540	s	s	10	1	SIC	280	4_1	4	1	2	2	23_2_2	2	1	1	0	0.578592061996	145.0	162.0	145.0	158.0	1
3.0.1	2019_Mar_07_1540	s	s	10	1	SIC	281	ABS	0	0	4	1	24_4_1	NA	NA	0	1	3.6128578186	None	None	None	None	1
3.0.1	2019_Mar_07_1540	s	s	10	1	SIC	282	4_1	4	1	3	2	23_3_2	1	1	1	0	0.661298036575	198.0	75.0	200.0	74.0	1
3.0.1	2019_Mar_07_1540	s	s	10	1	SIC	283	ABS	0	0	1	1	24_1_1	NA	NA	0	1	3.94409990311	None	None	None	None	1
3.0.1	2019_Mar_07_1540	s	s	10	1	SIC	284	ABS	0	0	1	3	24_1_3	NA	NA	0	1	9.1787981987	None	None	None	None	1
3.0.1	2019_Mar_07_1540	s	s	10	1	SIC	285	ABS	0	0	2	4	24_2_4	NA	NA	0	1	4.36279201508	None	None	None	None	1
3.0.1	2019_Mar_07_1540	s	s	10	1	SIC	286	ABS	0	0	3	4	24_3_4	NA	NA	0	1	4.12749695778	None	None	None	None	1
3.0.1	2019_Mar_07_1540	s	s	10	1	SIC	287	ABS	0	0	1	3	24_1_3	NA	NA	0	1	7.8204638958	None	None	None	None	1
3.0.1	2019_Mar_07_1540	s	s	10	1	SIC	288	ABS	0	0	1	1	24_1_1	NA	NA	0	1	4.11571002007	None	None	None	None	1
3.0.1	2019_Mar_07_1540	s	s	10	1	SIC	289	2_3	2	3	2	4	23_2_4	0	-1	1	0	0.881401062012	-381.0	357.0	-378.0	354.0	1
3.0.1	2019_Mar_07_1540	s	s	10	1	SIC	290	ABS	0	0	4	2	24_4_2	NA	NA	0	1	8.04400610924	None	None	None	None	1
3.0.1	2019_Mar_07_1540	s	s	10	1	SIC	291	2_3	2	3	4	2	23_4_2	2	1	1	0	0.486828804016	116.0	243.0	120.0	230.0	1
3.0.1	2019_Mar_07_1540	s	s	10	1	SIC	292	4_1	4	1	1	3	23_1_3	3	2	1	0	1.49582600594	474.0	-7.0	480.0	-10.0	1
3.0.1	2019_Mar_07_1540	s	s	10	1	SIC	293	ABS	0	0	2	4	24_2_4	NA	NA	0	1	8.01397204399	None	None	None	None	1
3.0.1	2019_Mar_07_1540	s	s	10	1	SIC	294	1_3	1	3	4	4	23_4_4	3	-1	1	0	0.493372917175	-241.0	-217.0	-245.0	-224.0	1
3.0.1	2019_Mar_07_1540	s	s	10	1	SIC	295	3_3	3	3	2	4	23_2_4	1	-1	1	0	0.427835941315	60.0	308.0	67.0	305.0	1
3.0.1	2019_Mar_07_1540	s	s	10	1	SIC	296	ABS	0	0	3	4	24_3_4	NA	NA	0	1	3.18664598465	None	None	None	None	1
3.0.1	2019_Mar_07_1540	s	s	10	1	SIC	297	3_3	3	3	2	3	23_2_3	1	0	1	0	0.663062810898	-82.0	-127.0	-74.0	-123.0	1
3.0.1	2019_Mar_07_1540	s	s	10	1	SIC	298	4_2	4	2	3	4	23_3_4	1	2	1	0	0.516788005829	188.0	-149.0	184.0	-152.0	1
3.0.1	2019_Mar_07_1540	s	s	10	1	SIC	299	4_3	4	3	1	3	23_1_3	3	0	1	0	0.383855104446	-70.0	40.0	-61.0	43.0	1
3.0.1	2019_Mar_07_1540	s	s	10	1	SIC	300	ABS	0	0	4	4	24_4_4	NA	NA	0	1	2.67821002007	None	None	None	None	1
3.0.1	2019_Mar_07_1540	s	s	10	1	SIC	301	2_2	2	2	3	4	23_3_4	1	2	1	0	0.414933919907	-121.0	-23.0	-114.0	-22.0	1
3.0.1	2019_Mar_07_1540	s	s	10	1	SIC	302	ABS	0	0	4	1	24_4_1	NA	NA	0	1	2.25215411186	None	None	None	None	1
3.0.1	2019_Mar_07_1540	s	s	10	1	SIC	303	ABS	0	0	3	1	24_3_1	NA	NA	0	1	4.18670606613	None	None	None	None	1
3.0.1	2019_Mar_07_1540	s	s	10	1	SIC	304	ABS	0	0	3	2	24_3_2	NA	NA	0	1	5.09702706337	None	None	None	None	1
3.0.1	2019_Mar_07_1540	s	s	10	1	SIC	305	1_1	1	1	4	2	23_4_2	3	1	1	0	0.516865968704	-260.0	-360.0	-257.0	-356.0	1
3.0.1	2019_Mar_07_1540	s	s	10	1	SIC	306	1_2	1	2	2	1	23_2_1	1	-1	1	0	1.36889791489	-266.0	203.0	-265.0	205.0	1
3.0.1	2019_Mar_07_1540	s	s	10	1	SIC	307	2_4	2	4	2	2	23_2_2	0	2	1	0	0.575688838959	330.0	-71.0	330.0	-84.0	1
3.0.1	2019_Mar_07_1540	s	s	10	1	SIC	308	ABS	0	0	1	4	24_1_4	NA	NA	0	1	4.05036997795	None	None	None	None	1
3.0.1	2019_Mar_07_1540	s	s	10	1	SIC	309	2_3	2	3	3	1	23_3_1	1	2	1	0	0.619252920151	-430.0	284.0	-426.0	287.0	1
3.0.1	2019_Mar_07_1540	s	s	10	1	SIC	310	4_4	4	4	3	4	23_3_4	1	0	1	0	0.505095005035	-175.0	-309.0	-175.0	-321.0	1
3.0.1	2019_Mar_07_1540	s	s	10	1	SIC	311	3_1	3	1	2	4	23_2_4	1	3	1	0	0.486102104187	-24.0	106.0	-17.0	108.0	1
3.0.1	2019_Mar_07_1540	s	s	10	1	SIC	312	ABS	0	0	1	3	24_1_3	NA	NA	0	1	13.8069779873	None	None	None	None	1
3.0.1	2019_Mar_07_1540	s	s	10	1	SIC	313	ABS	0	0	2	3	24_2_3	NA	NA	0	1	9.24843001366	None	None	None	None	1
3.0.1	2019_Mar_07_1540	s	s	10	1	SIC	314	ABS	0	0	3	1	24_3_1	NA	NA	0	1	3.28071188927	None	None	None	None	1
3.0.1	2019_Mar_07_1540	s	s	10	1	SIC	315	ABS	0	0	4	4	24_4_4	NA	NA	0	1	3.07526493073	None	None	None	None	1
3.0.1	2019_Mar_07_1540	s	s	10	1	SIC	316	ABS	0	0	4	4	24_4_4	NA	NA	0	1	2.58022880554	None	None	None	None	1
3.0.1	2019_Mar_07_1540	s	s	10	1	SIC	317	2_2	2	2	3	3	23_3_3	1	1	1	0	0.469774961472	-191.0	-8.0	-182.0	-4.0	1
3.0.1	2019_Mar_07_1540	s	s	10	1	SIC	318	ABS	0	0	4	1	24_4_1	NA	NA	0	1	1.35186600685	None	None	None	None	1
3.0.1	2019_Mar_07_1540	s	s	10	1	SIC	319	ABS	0	0	2	1	24_2_1	NA	NA	0	1	2.46924710274	None	None	None	None	1
3.0.1	2019_Mar_07_1540	s	s	10	1	SIC	320	3_4	3	4	1	4	23_1_4	2	0	1	0	0.677768945694	286.0	-194.0	284.0	-198.0	1
3.0.1	2019_Mar_07_1540	s	s	10	1	SIC	321	ABS	0	0	1	4	24_1_4	NA	NA	0	1	3.77468490601	None	None	None	None	1
3.0.1	2019_Mar_07_1540	s	s	10	1	SIC	322	4_2	4	2	1	2	23_1_2	3	0	1	0	0.46971487999	-70.0	-353.0	-70.0	-358.0	1
3.0.1	2019_Mar_07_1540	s	s	10	1	SIC	323	ABS	0	0	4	4	24_4_4	NA	NA	0	1	3.44367909431	None	None	None	None	1
3.0.1	2019_Mar_07_1540	s	s	10	1	SIC	324	ABS	0	0	4	1	24_4_1	NA	NA	0	1	3.30429005623	None	None	None	None	1
3.0.1	2019_Mar_07_1540	s	s	10	1	SIC	325	ABS	0	0	3	3	24_3_3	NA	NA	0	1	5.7553999424	None	None	None	None	1
3.0.1	2019_Mar_07_1540	s	s	10	1	SIC	326	3_2	3	2	1	2	23_1_2	2	0	1	0	0.516866922379	114.0	-4.0	115.0	-12.0	1
3.0.1	2019_Mar_07_1540	s	s	10	1	SIC	327	1_1	1	1	2	4	23_2_4	1	3	1	0	0.622673034668	-301.0	404.0	-302.0	414.0	1
3.0.1	2019_Mar_07_1540	s	s	10	1	SIC	328	ABS	0	0	3	3	24_3_3	NA	NA	0	1	5.30353593826	None	None	None	None	1
3.0.1	2019_Mar_07_1540	s	s	10	1	SIC	329	ABS	0	0	3	1	24_3_1	NA	NA	0	1	3.55127096176	None	None	None	None	1
3.0.1	2019_Mar_07_1540	s	s	10	1	SIC	330	2_3	2	3	1	4	23_1_4	-1	-1	1	0	0.719636917114	-316.0	404.0	-324.0	401.0	1
3.0.1	2019_Mar_07_1540	s	s	10	1	SIC	331	ABS	0	0	3	1	24_3_1	NA	NA	0	1	4.35089492798	None	None	None	None	1
3.0.1	2019_Mar_07_1540	s	s	10	1	SIC	332	1_3	1	3	3	2	23_3_2	2	1	1	0	0.528594017029	-63.0	-177.0	-72.0	-175.0	1
3.0.1	2019_Mar_07_1540	s	s	10	1	SIC	333	ABS	0	0	4	4	24_4_4	NA	NA	0	1	4.56794500351	None	None	None	None	1
3.0.1	2019_Mar_07_1540	s	s	10	1	SIC	334	ABS	0	0	1	1	24_1_1	NA	NA	0	1	3.34456801414	None	None	None	None	1
3.0.1	2019_Mar_07_1540	s	s	10	1	SIC	335	ABS	0	0	3	4	24_3_4	NA	NA	0	1	3.18659305573	None	None	None	None	1
3.0.1	2019_Mar_07_1540	s	s	10	1	SIC	336	ABS	0	0	2	1	24_2_1	NA	NA	0	1	4.0453338623	None	None	None	None	1
3.0.1	2019_Mar_07_1540	s	s	10	1	SIC	337	ABS	0	0	1	1	24_1_1	NA	NA	0	1	3.38195204735	None	None	None	None	1
3.0.1	2019_Mar_07_1540	s	s	10	1	SIC	338	4_1	4	1	4	2	23_4_2	0	1	1	0	5.25935912132	-49.0	-302.0	-45.0	-301.0	1
3.0.1	2019_Mar_07_1540	s	s	10	1	SIC	339	ABS	0	0	1	3	24_1_3	NA	NA	0	1	5.31972002983	None	None	None	None	1
3.0.1	2019_Mar_07_1540	s	s	10	1	SIC	340	1_2	1	2	2	2	23_2_2	1	0	1	0	5.36250090599	141.0	-131.0	144.0	-132.0	1
3.0.1	2019_Mar_07_1540	s	s	10	1	SIC	341	ABS	0	0	4	4	24_4_4	NA	NA	0	1	4.57438206673	None	None	None	None	1
3.0.1	2019_Mar_07_1540	s	s	10	1	SIC	342	ABS	0	0	2	2	24_2_2	NA	NA	0	1	7.27940678596	None	None	None	None	1
3.0.1	2019_Mar_07_1540	s	s	10	1	SIC	343	4_2	4	2	2	3	23_2_3	2	1	1	0	0.505047082901	236.0	-396.0	248.0	-391.0	1
3.0.1	2019_Mar_07_1540	s	s	10	1	SIC	344	2_1	2	1	3	4	23_3_4	1	3	1	0	0.443284988403	-265.0	66.0	-260.0	67.0	1
3.0.1	2019_Mar_07_1540	s	s	10	1	SIC	345	1_4	1	4	4	4	23_4_4	3	0	1	0	0.384785890579	350.0	-116.0	357.0	-123.0	1
3.0.1	2019_Mar_07_1540	s	s	10	1	SIC	346	ABS	0	0	4	3	24_4_3	NA	NA	0	1	6.30330085754	None	None	None	None	1
3.0.1	2019_Mar_07_1540	s	s	10	1	SIC	347	4_1	4	1	4	4	23_4_4	0	3	1	0	0.466617107391	197.0	-115.0	189.0	-118.0	1
3.0.1	2019_Mar_07_1540	s	s	10	1	SIC	348	ABS	0	0	2	3	24_2_3	NA	NA	0	1	8.76641607285	None	None	None	None	1
3.0.1	2019_Mar_07_1540	s	s	10	1	SIC	349	ABS	0	0	2	4	24_2_4	NA	NA	0	1	5.57688188553	None	None	None	None	1
3.0.1	2019_Mar_07_1540	s	s	10	1	SIC	350	2_1	2	1	3	1	23_3_1	1	0	1	0	0.763863801956	-131.0	-178.0	-132.0	-179.0	1
3.0.1	2019_Mar_07_1540	s	s	10	1	SIC	351	ABS	0	0	4	1	24_4_1	NA	NA	0	1	2.83369803429	None	None	None	None	1
3.0.1	2019_Mar_07_1540	s	s	10	1	SIC	352	ABS	0	0	3	2	24_3_2	NA	NA	0	1	3.09756994247	None	None	None	None	1
3.0.1	2019_Mar_07_1540	s	s	10	1	SIC	353	ABS	0	0	3	4	24_3_4	NA	NA	0	1	3.45712018013	None	None	None	None	1
3.0.1	2019_Mar_07_1540	s	s	10	1	SIC	354	4_2	4	2	3	2	23_3_2	1	0	1	0	0.528680801392	-2.0	-91.0	-1.0	-91.0	1
3.0.1	2019_Mar_07_1540	s	s	10	1	SIC	355	ABS	0	0	4	2	24_4_2	NA	NA	0	1	3.14284992218	None	None	None	None	1
3.0.1	2019_Mar_07_1540	s	s	10	1	SIC	356	1_4	1	4	4	2	23_4_2	3	2	1	0	0.501047134399	222.0	409.0	223.0	415.0	1
3.0.1	2019_Mar_07_1540	s	s	10	1	SIC	357	ABS	0	0	2	2	24_2_2	NA	NA	0	1	8.29530501366	None	None	None	None	1
3.0.1	2019_Mar_07_1540	s	s	10	1	SIC	358	3_4	3	4	1	1	23_1_1	2	3	1	0	0.496173143387	-19.0	-137.0	-19.0	-142.0	1
3.0.1	2019_Mar_07_1540	s	s	10	1	SIC	359	ABS	0	0	2	2	24_2_2	NA	NA	0	1	5.09209704399	None	None	None	None	1
3.0.1	2019_Mar_07_1540	s	s	10	1	SIC	360	1_3	1	3	2	3	23_2_3	1	0	1	0	3.95733094215	408.0	235.0	404.0	231.0	1
3.0.1	2019_Mar_07_1540	s	s	10	1	SIC	361	ABS	0	0	2	3	24_2_3	NA	NA	0	1	3.78125596046	None	None	None	None	1
3.0.1	2019_Mar_07_1540	s	s	10	1	SIC	362	ABS	0	0	2	3	24_2_3	NA	NA	0	1	4.00324892998	None	None	None	None	1
3.0.1	2019_Mar_07_1540	s	s	10	1	SIC	363	4_3	4	3	2	2	23_2_2	2	1	1	0	0.422792196274	-14.0	-213.0	-9.0	-217.0	1
3.0.1	2019_Mar_07_1540	s	s	10	1	SIC	364	3_4	3	4	2	3	23_2_3	1	1	1	0	0.485992908478	363.0	-302.0	371.0	-303.0	1
3.0.1	2019_Mar_07_1540	s	s	10	1	SIC	365	1_3	1	3	1	4	23_1_4	0	-1	1	0	0.856135845184	233.0	-166.0	235.0	-170.0	1
3.0.1	2019_Mar_07_1540	s	s	10	1	SIC	366	4_3	4	3	3	4	23_3_4	1	-1	1	0	0.458019971848	364.0	28.0	371.0	38.0	1
3.0.1	2019_Mar_07_1540	s	s	10	1	SIC	367	ABS	0	0	1	3	24_1_3	NA	NA	0	1	5.51530599594	None	None	None	None	1
3.0.1	2019_Mar_07_1540	s	s	10	1	SIC	368	3_1	3	1	4	3	23_4_3	-1	2	1	0	0.411010026932	-238.0	268.0	-243.0	272.0	1
3.0.1	2019_Mar_07_1540	s	s	10	1	SIC	369	ABS	0	0	1	2	24_1_2	NA	NA	0	1	4.77203512192	None	None	None	None	1
3.0.1	2019_Mar_07_1540	s	s	10	1	SIC	370	2_3	2	3	4	3	23_4_3	2	0	1	0	0.50123500824	473.0	-365.0	476.0	-360.0	1
3.0.1	2019_Mar_07_1540	s	s	10	1	SIC	371	4_4	4	4	3	3	23_3_3	1	1	1	0	0.461076974869	212.0	284.0	209.0	285.0	1
3.0.1	2019_Mar_07_1540	s	s	10	1	SIC	372	2_2	2	2	3	1	23_3_1	1	-1	1	0	0.543272972107	-65.0	-176.0	-75.0	-168.0	1
3.0.1	2019_Mar_07_1540	s	s	10	1	SIC	373	3_3	3	3	4	3	23_4_3	-1	0	1	0	0.387440919876	-194.0	-97.0	-191.0	-95.0	1
3.0.1	2019_Mar_07_1540	s	s	10	1	SIC	374	4_2	4	2	2	4	23_2_4	2	2	1	0	0.387434005737	490.0	-268.0	502.0	-264.0	1
3.0.1	2019_Mar_07_1540	s	s	10	1	SIC	375	1_2	1	2	4	2	23_4_2	3	0	1	0	0.34046292305	-487.0	60.0	-490.0	53.0	1
3.0.1	2019_Mar_07_1540	s	s	10	1	SIC	376	ABS	0	0	4	3	24_4_3	NA	NA	0	1	5.61229491234	None	None	None	None	1
3.0.1	2019_Mar_07_1540	s	s	10	1	SIC	377	4_4	4	4	4	2	23_4_2	0	2	1	0	0.57001709938	80.0	56.0	86.0	61.0	1
3.0.1	2019_Mar_07_1540	s	s	10	1	SIC	378	3_1	3	1	3	2	23_3_2	0	1	1	0	4.06082010269	309.0	70.0	309.0	63.0	1
3.0.1	2019_Mar_07_1540	s	s	10	1	SIC	379	1_4	1	4	2	4	23_2_4	1	0	1	0	3.42182087898	-314.0	-371.0	-313.0	-377.0	1
3.0.1	2019_Mar_07_1540	s	s	10	1	SIC	380	ABS	0	0	1	2	24_1_2	NA	NA	0	1	5.84752321243	None	None	None	None	1
3.0.1	2019_Mar_07_1540	s	s	10	1	SIC	381	2_2	2	2	4	3	23_4_3	2	1	1	0	0.505044221878	-473.0	332.0	-478.0	336.0	1
3.0.1	2019_Mar_07_1540	s	s	10	1	SIC	382	2_4	2	4	2	1	23_2_1	0	3	1	0	0.516874074936	-35.0	-25.0	-31.0	-30.0	1
3.0.1	2019_Mar_07_1540	s	s	10	1	SIC	383	3_4	3	4	3	2	23_3_2	0	2	1	0	0.545521020889	99.0	99.0	95.0	90.0	1
3.0.1	2019_Mar_07_1540	s	s	10	1	SIC	384	ABS	0	0	3	3	24_3_3	NA	NA	0	1	4.28576803207	None	None	None	None	1
3.0.1	2019_Mar_07_1540	s	s	10	1	SIC	385	2_4	2	4	3	1	23_3_1	1	3	1	0	0.47479391098	379.0	-48.0	375.0	-44.0	1
3.0.1	2019_Mar_07_1540	s	s	10	1	SIC	386	4_2	4	2	3	1	23_3_1	1	-1	1	0	0.410943031311	-390.0	-83.0	-393.0	-86.0	1
3.0.1	2019_Mar_07_1540	s	s	10	1	SIC	387	3_4	3	4	1	2	23_1_2	2	2	1	0	0.481606006622	-50.0	343.0	-41.0	339.0	1
3.0.1	2019_Mar_07_1540	s	s	10	1	SIC	388	ABS	0	0	2	4	24_2_4	NA	NA	0	1	3.71586799622	None	None	None	None	1
3.0.1	2019_Mar_07_1540	s	s	10	1	SIC	389	3_2	3	2	4	1	23_4_1	-1	-1	1	0	0.399178981781	-97.0	332.0	-99.0	329.0	1
3.0.1	2019_Mar_07_1540	s	s	10	1	SIC	390	1_2	1	2	1	3	23_1_3	0	1	1	0	5.08305001259	-361.0	-165.0	-373.0	-162.0	1
3.0.1	2019_Mar_07_1540	s	s	10	1	SIC	391	ABS	0	0	1	3	24_1_3	NA	NA	0	1	5.25944900513	None	None	None	None	1
3.0.1	2019_Mar_07_1540	s	s	10	1	SIC	392	ABS	0	0	1	2	24_1_2	NA	NA	0	1	7.15009903908	None	None	None	None	1
3.0.1	2019_Mar_07_1540	s	s	10	1	SIC	393	1_4	1	4	4	3	23_4_3	3	1	1	0	0.505190134048	-12.0	191.0	-12.0	200.0	1
3.0.1	2019_Mar_07_1540	s	s	10	1	SIC	394	ABS	0	0	1	2	24_1_2	NA	NA	0	1	4.9389770031	None	None	None	None	1
3.0.1	2019_Mar_07_1540	s	s	10	1	SIC	395	ABS	0	0	3	1	24_3_1	NA	NA	0	1	3.08395409584	None	None	None	None	1
3.0.1	2019_Mar_07_1540	s	s	10	1	SIC	396	ABS	0	0	3	2	24_3_2	NA	NA	0	1	5.8329269886	None	None	None	None	1
3.0.1	2019_Mar_07_1540	s	s	10	1	SIC	397	1_2	1	2	1	1	23_1_1	0	-1	1	0	2.8337790966	180.0	-308.0	178.0	-307.0	1
3.0.1	2019_Mar_07_1540	s	s	10	1	SIC	398	2_2	2	2	4	2	23_4_2	2	0	1	0	0.437375068665	-60.0	387.0	-59.0	387.0	1
3.0.1	2019_Mar_07_1540	s	s	10	1	SIC	399	2_1	2	1	4	1	23_4_1	2	0	1	0	0.326189041138	133.0	300.0	134.0	288.0	1
3.0.1	2019_Mar_07_1540	s	s	10	1	SIC	400	ABS	0	0	2	4	24_2_4	NA	NA	0	1	5.09546804428	None	None	None	None	1
3.0.1	2019_Mar_07_1540	s	s	10	1	SIC	401	4_4	4	4	2	3	23_2_3	2	1	1	0	0.437404155731	374.0	78.0	366.0	72.0	1
3.0.1	2019_Mar_07_1540	s	s	10	1	SIC	402	ABS	0	0	1	4	24_1_4	NA	NA	0	1	3.25755190849	None	None	None	None	1
3.0.1	2019_Mar_07_1540	s	s	10	1	SIC	403	ABS	0	0	1	2	24_1_2	NA	NA	0	1	8.14093589783	None	None	None	None	1
3.0.1	2019_Mar_07_1540	s	s	10	1	SIC	404	ABS	0	0	2	4	24_2_4	NA	NA	0	1	3.07383012772	None	None	None	None	1
3.0.1	2019_Mar_07_1540	s	s	10	1	SIC	405	4_2	4	2	1	3	23_1_3	3	1	1	0	0.587386846542	264.0	-304.0	268.0	-296.0	1
3.0.1	2019_Mar_07_1540	s	s	10	1	SIC	406	3_1	3	1	2	3	23_2_3	1	2	1	0	0.415966033936	408.0	-380.0	409.0	-383.0	1
3.0.1	2019_Mar_07_1540	s	s	10	1	SIC	407	3_2	3	2	3	4	23_3_4	0	2	1	0	0.509714126587	277.0	383.0	280.0	386.0	1
3.0.1	2019_Mar_07_1540	s	s	10	1	SIC	408	ABS	0	0	4	1	24_4_1	NA	NA	0	1	3.24535608292	None	None	None	None	1
3.0.1	2019_Mar_07_1540	s	s	10	1	SIC	409	ABS	0	0	4	3	24_4_3	NA	NA	0	1	4.06869792938	None	None	None	None	1
3.0.1	2019_Mar_07_1540	s	s	10	1	SIC	410	ABS	0	0	4	3	24_4_3	NA	NA	0	1	6.44116282463	None	None	None	None	1
3.0.1	2019_Mar_07_1540	s	s	10	1	SIC	411	ABS	0	0	3	2	24_3_2	NA	NA	0	1	4.37738394737	None	None	None	None	1
3.0.1	2019_Mar_07_1540	s	s	10	1	SIC	412	ABS	0	0	1	2	24_1_2	NA	NA	0	1	5.45643591881	None	None	None	None	1
3.0.1	2019_Mar_07_1540	s	s	10	1	SIC	413	3_2	3	2	3	3	23_3_3	0	1	1	0	1.95169591904	270.0	122.0	260.0	121.0	1
3.0.1	2019_Mar_07_1540	s	s	10	1	SIC	414	1_1	1	1	3	1	23_3_1	2	0	1	0	0.437356948853	33.0	-45.0	26.0	-52.0	1
3.0.1	2019_Mar_07_1540	s	s	10	1	SIC	415	1_2	1	2	3	4	23_3_4	2	2	1	0	0.383708000183	-429.0	218.0	-421.0	218.0	1
3.0.1	2019_Mar_07_1540	s	s	10	1	SIC	416	ABS	0	0	1	4	24_1_4	NA	NA	0	1	4.38451099396	None	None	None	None	1
3.0.1	2019_Mar_07_1540	s	s	10	1	SIC	417	2_1	2	1	1	4	23_1_4	-1	3	1	0	0.568212032318	446.0	-71.0	449.0	-72.0	1
3.0.1	2019_Mar_07_1540	s	s	10	1	SIC	418	ABS	0	0	4	1	24_4_1	NA	NA	0	1	2.56338214874	None	None	None	None	1
3.0.1	2019_Mar_07_1540	s	s	10	1	SIC	419	ABS	0	0	3	1	24_3_1	NA	NA	0	1	2.58141994476	None	None	None	None	1
3.0.1	2019_Mar_07_1540	s	s	10	1	SIC	420	ABS	0	0	4	2	24_4_2	NA	NA	0	1	5.71991991997	None	None	None	None	1
3.0.1	2019_Mar_07_1540	s	s	10	1	SIC	421	ABS	0	0	1	1	24_1_1	NA	NA	0	1	4.78289103508	None	None	None	None	1
3.0.1	2019_Mar_07_1540	s	s	10	1	SIC	422	1_1	1	1	1	3	23_1_3	0	2	1	0	4.39802312851	-473.0	275.0	-467.0	281.0	1
3.0.1	2019_Mar_07_1540	s	s	10	1	SIC	423	2_3	2	3	3	4	23_3_4	1	-1	1	0	0.517118930817	235.0	-21.0	236.0	-15.0	1
3.0.1	2019_Mar_07_1540	s	s	10	1	SIC	424	ABS	0	0	1	4	24_1_4	NA	NA	0	1	5.18313598633	None	None	None	None	1
3.0.1	2019_Mar_07_1540	s	s	10	1	SIC	425	2_1	2	1	4	3	23_4_3	2	2	1	0	0.387419939041	-78.0	-10.0	-72.0	-11.0	1
3.0.1	2019_Mar_07_1540	s	s	10	1	SIC	426	4_2	4	2	2	2	23_2_2	2	0	1	0	0.422994852066	30.0	132.0	24.0	124.0	1
3.0.1	2019_Mar_07_1540	s	s	10	1	SIC	427	ABS	0	0	4	2	24_4_2	NA	NA	0	1	6.66790699959	None	None	None	None	1
3.0.1	2019_Mar_07_1540	s	s	10	1	SIC	428	ABS	0	0	2	3	24_2_3	NA	NA	0	1	8.60151600838	None	None	None	None	1
3.0.1	2019_Mar_07_1540	s	s	10	1	SIC	429	ABS	0	0	1	3	24_1_3	NA	NA	0	1	4.30915999413	None	None	None	None	1
3.0.1	2019_Mar_07_1540	s	s	10	1	SIC	430	ABS	0	0	4	4	24_4_4	NA	NA	0	1	2.3779489994	None	None	None	None	1
3.0.1	2019_Mar_07_1540	s	s	10	1	SIC	431	ABS	0	0	3	1	24_3_1	NA	NA	0	1	2.89545202255	None	None	None	None	1
3.0.1	2019_Mar_07_1540	s	s	10	1	SIC	432	2_2	2	2	1	3	23_1_3	-1	1	1	0	1.90756297112	-166.0	255.0	-162.0	251.0	1
3.0.1	2019_Mar_07_1540	s	s	10	1	SIC	433	2_1	2	1	2	4	23_2_4	0	3	1	0	0.496180057526	418.0	-84.0	411.0	-90.0	1
3.0.1	2019_Mar_07_1540	s	s	10	1	SIC	434	ABS	0	0	3	2	24_3_2	NA	NA	0	1	3.39827990532	None	None	None	None	1
3.0.1	2019_Mar_07_1540	s	s	10	1	SIC	435	ABS	0	0	3	2	24_3_2	NA	NA	0	1	15.4182610512	None	None	None	None	1
3.0.1	2019_Mar_07_1540	s	s	10	1	SIC	436	4_3	4	3	1	2	23_1_2	3	1	1	0	0.71679019928	515.0	-318.0	510.0	-312.0	1
3.0.1	2019_Mar_07_1540	s	s	10	1	SIC	437	1_3	1	3	2	4	23_2_4	1	-1	1	0	0.533711910248	-110.0	-67.0	-115.0	-61.0	1
3.0.1	2019_Mar_07_1540	s	s	10	1	SIC	438	2_4	2	4	2	3	23_2_3	0	1	1	0	0.975520133972	-292.0	-301.0	-301.0	-293.0	1
3.0.1	2019_Mar_07_1540	s	s	10	1	SIC	439	ABS	0	0	1	2	24_1_2	NA	NA	0	1	5.76228094101	None	None	None	None	1
3.0.1	2019_Mar_07_1540	s	s	10	1	SIC	440	1_4	1	4	3	4	23_3_4	2	0	1	0	0.587337970734	251.0	-401.0	264.0	-397.0	1
3.0.1	2019_Mar_07_1540	s	s	10	1	SIC	441	ABS	0	0	3	1	24_3_1	NA	NA	0	1	3.3837749958	None	None	None	None	1
3.0.1	2019_Mar_07_1540	s	s	10	1	SIC	442	4_4	4	4	2	4	23_2_4	2	0	1	0	0.411221981049	213.0	-150.0	202.0	-147.0	1
3.0.1	2019_Mar_07_1540	s	s	10	1	SIC	443	2_2	2	2	1	4	23_1_4	-1	2	1	0	0.907768964767	-464.0	-290.0	-463.0	-287.0	1
3.0.1	2019_Mar_07_1540	s	s	10	1	SIC	444	ABS	0	0	1	1	24_1_1	NA	NA	0	1	3.78930807114	None	None	None	None	1
3.0.1	2019_Mar_07_1540	s	s	10	1	SIC	445	1_2	1	2	3	3	23_3_3	2	1	1	0	0.484497070312	502.0	53.0	495.0	46.0	1
3.0.1	2019_Mar_07_1540	s	s	10	1	SIC	446	2_2	2	2	2	1	23_2_1	0	-1	1	0	2.15840816498	474.0	-88.0	468.0	-83.0	1
3.0.1	2019_Mar_07_1540	s	s	10	1	SIC	447	1_1	1	1	2	3	23_2_3	1	2	1	0	1.07625198364	-52.0	-380.0	-63.0	-380.0	1
3.0.1	2019_Mar_07_1540	s	s	10	1	SIC	448	ABS	0	0	2	1	24_2_1	NA	NA	0	1	3.08934211731	None	None	None	None	1
3.0.1	2019_Mar_07_1540	s	s	10	1	SIC	449	1_4	1	4	3	2	23_3_2	2	2	1	0	0.528591871262	418.0	-42.0	425.0	-42.0	1
3.0.1	2019_Mar_07_1540	s	s	10	1	SIC	450	1_2	1	2	4	4	23_4_4	3	2	1	0	0.372779130936	-309.0	-7.0	-305.0	-5.0	1
3.0.1	2019_Mar_07_1540	s	s	10	1	SIC	451	ABS	0	0	2	4	24_2_4	NA	NA	0	1	3.78925204277	None	None	None	None	1
3.0.1	2019_Mar_07_1540	s	s	10	1	SIC	452	1_3	1	3	3	3	23_3_3	2	0	1	0	0.404495000839	120.0	11.0	129.0	14.0	1
3.0.1	2019_Mar_07_1540	s	s	10	1	SIC	453	ABS	0	0	3	2	24_3_2	NA	NA	0	1	11.5605690479	None	None	None	None	1
3.0.1	2019_Mar_07_1540	s	s	10	1	SIC	454	3_4	3	4	2	1	23_2_1	1	3	1	0	1.43467211723	493.0	-62.0	483.0	-62.0	1
3.0.1	2019_Mar_07_1540	s	s	10	1	SIC	455	ABS	0	0	4	4	24_4_4	NA	NA	0	1	2.12813901901	None	None	None	None	1
3.0.1	2019_Mar_07_1540	s	s	10	1	SIC	456	ABS	0	0	3	3	24_3_3	NA	NA	0	1	6.02393889427	None	None	None	None	1
3.0.1	2019_Mar_07_1540	s	s	10	1	SIC	457	2_1	2	1	4	4	23_4_4	2	3	1	0	0.840783119202	93.0	305.0	96.0	299.0	1
3.0.1	2019_Mar_07_1540	s	s	10	1	SIC	458	ABS	0	0	4	4	24_4_4	NA	NA	0	1	3.04575490952	None	None	None	None	1
3.0.1	2019_Mar_07_1540	s	s	10	1	SIC	459	3_4	3	4	3	3	23_3_3	0	1	1	0	0.634500026703	-263.0	99.0	-266.0	104.0	1
3.0.1	2019_Mar_07_1540	s	s	10	1	SIC	460	4_2	4	2	4	4	23_4_4	0	2	1	0	0.496121168137	63.0	-138.0	67.0	-136.0	1
3.0.1	2019_Mar_07_1540	s	s	10	1	SIC	461	ABS	0	0	2	2	24_2_2	NA	NA	0	1	5.3546898365	None	None	None	None	1
3.0.1	2019_Mar_07_1540	s	s	10	1	SIC	462	ABS	0	0	1	1	24_1_1	NA	NA	0	1	5.50347018242	None	None	None	None	1
3.0.1	2019_Mar_07_1540	s	s	10	1	SIC	463	4_4	4	4	1	4	23_1_4	3	0	1	0	0.603984117508	172.0	240.0	162.0	242.0	1
3.0.1	2019_Mar_07_1540	s	s	10	1	SIC	464	ABS	0	0	4	3	24_4_3	NA	NA	0	1	5.98571491241	None	None	None	None	1
3.0.1	2019_Mar_07_1540	s	s	10	1	SIC	465	2_3	2	3	4	1	23_4_1	2	2	1	0	0.378592014313	155.0	-34.0	164.0	-24.0	1
3.0.1	2019_Mar_07_1540	s	s	10	1	SIC	466	ABS	0	0	3	4	24_3_4	NA	NA	0	1	3.79480910301	None	None	None	None	1
3.0.1	2019_Mar_07_1540	s	s	10	1	SIC	467	ABS	0	0	1	3	24_1_3	NA	NA	0	1	7.08246397972	None	None	None	None	1
3.0.1	2019_Mar_07_1540	s	s	10	1	SIC	468	ABS	0	0	1	1	24_1_1	NA	NA	0	1	3.94441199303	None	None	None	None	1
3.0.1	2019_Mar_07_1540	s	s	10	1	SIC	469	3_4	3	4	1	3	23_1_3	2	1	1	0	0.522192001343	-159.0	404.0	-170.0	411.0	1
3.0.1	2019_Mar_07_1540	s	s	10	1	SIC	470	4_4	4	4	3	2	23_3_2	1	2	1	0	0.404074907303	132.0	-241.0	144.0	-239.0	1
3.0.1	2019_Mar_07_1540	s	s	10	1	SIC	471	ABS	0	0	3	2	24_3_2	NA	NA	0	1	7.6440551281	None	None	None	None	1
3.0.1	2019_Mar_07_1540	s	s	10	1	SIC	472	1_3	1	3	4	2	23_4_2	3	1	1	0	0.462816953659	112.0	-306.0	114.0	-313.0	1
3.0.1	2019_Mar_07_1540	s	s	10	1	SIC	473	4_3	4	3	2	1	23_2_1	2	2	1	0	0.437387943268	-172.0	-316.0	-170.0	-310.0	1
3.0.1	2019_Mar_07_1540	s	s	10	1	SIC	474	4_3	4	3	3	1	23_3_1	1	2	1	0	0.334613084793	96.0	362.0	95.0	362.0	1
3.0.1	2019_Mar_07_1540	s	s	10	1	SIC	475	2_3	2	3	3	3	23_3_3	1	0	1	0	0.500998973846	-15.0	93.0	-21.0	92.0	1
3.0.1	2019_Mar_07_1540	s	s	10	1	SIC	476	ABS	0	0	3	4	24_3_4	NA	NA	0	1	3.57469916344	None	None	None	None	1
3.0.1	2019_Mar_07_1540	s	s	10	1	SIC	477	2_4	2	4	4	2	23_4_2	2	2	1	0	1.48616504669	-228.0	162.0	-220.0	167.0	1
3.0.1	2019_Mar_07_1540	s	s	10	1	SIC	478	3_2	3	2	2	4	23_2_4	1	2	1	0	0.554993867874	-253.0	-352.0	-268.0	-345.0	1
3.0.1	2019_Mar_07_1540	s	s	10	1	SIC	479	ABS	0	0	1	1	24_1_1	NA	NA	0	1	3.43802595139	None	None	None	None	1
3.0.1	2019_Mar_07_1540	s	s	10	1	SIC	480	2_2	2	2	3	2	23_3_2	1	0	1	0	1.28133320808	-182.0	406.0	-188.0	400.0	1
