Version	Date	Stimuli	Method	Subject	Session	Condition	Trial	Target	TColor	TShape	DColor	DShape	Distractors	Channel1	Channel2	LMouseButton	RMouseButton	RT	TargetX	TargetY	ResponseX	ResponseY	Correct
3.0.1	2019_Mar_09_1640	s	s	10	3	Capacity	1	ABS	0	0	1	2	24_1_2	NA	NA	0	1	4.986358881	None	None	None	None	1
3.0.1	2019_Mar_09_1640	s	s	10	3	Capacity	2	1_2	1	2	1	1	23_1_1	0	-1	0	1	4.45008397102	-259.0	-50.0	None	None	0
3.0.1	2019_Mar_09_1640	s	s	10	3	Capacity	3	ABS	0	0	1	2	24_1_2	NA	NA	0	1	5.715321064	None	None	None	None	1
3.0.1	2019_Mar_09_1640	s	s	10	3	Capacity	4	1_3	1	3	1	4	23_1_4	0	-1	1	0	0.952065944672	276.0	-347.0	274.0	-349.0	1
3.0.1	2019_Mar_09_1640	s	s	10	3	Capacity	5	ABS	0	0	1	3	24_1_3	NA	NA	0	1	3.63348793983	None	None	None	None	1
3.0.1	2019_Mar_09_1640	s	s	10	3	Capacity	6	1_2	1	2	1	4	23_1_4	0	2	1	0	0.65802192688	153.0	-303.0	152.0	-303.0	1
3.0.1	2019_Mar_09_1640	s	s	10	3	Capacity	7	1_1	1	1	1	3	23_1_3	0	2	1	0	2.33307600021	270.0	149.0	269.0	152.0	1
3.0.1	2019_Mar_09_1640	s	s	10	3	Capacity	8	ABS	0	0	1	4	24_1_4	NA	NA	0	1	1.28612804413	None	None	None	None	1
3.0.1	2019_Mar_09_1640	s	s	10	3	Capacity	9	ABS	0	0	1	1	24_1_1	NA	NA	0	1	1.84876608849	None	None	None	None	1
3.0.1	2019_Mar_09_1640	s	s	10	3	Capacity	10	1_3	1	3	1	1	23_1_1	0	2	1	0	0.651351928711	-183.0	238.0	-182.0	244.0	1
3.0.1	2019_Mar_09_1640	s	s	10	3	Capacity	11	1_4	1	4	1	2	23_1_2	0	2	1	0	0.575586080551	43.0	-335.0	43.0	-338.0	1
3.0.1	2019_Mar_09_1640	s	s	10	3	Capacity	12	ABS	0	0	1	1	24_1_1	NA	NA	0	1	2.25742816925	None	None	None	None	1
3.0.1	2019_Mar_09_1640	s	s	10	3	Capacity	13	1_3	1	3	1	2	23_1_2	0	1	1	0	4.28042197227	405.0	-23.0	402.0	-22.0	1
3.0.1	2019_Mar_09_1640	s	s	10	3	Capacity	14	ABS	0	0	1	1	24_1_1	NA	NA	0	1	2.80353713036	None	None	None	None	1
3.0.1	2019_Mar_09_1640	s	s	10	3	Capacity	15	1_2	1	2	1	3	23_1_3	0	1	1	0	1.80458903313	-39.0	-338.0	-39.0	-333.0	1
3.0.1	2019_Mar_09_1640	s	s	10	3	Capacity	16	ABS	0	0	1	2	24_1_2	NA	NA	0	1	4.48072504997	None	None	None	None	1
3.0.1	2019_Mar_09_1640	s	s	10	3	Capacity	17	ABS	0	0	1	4	24_1_4	NA	NA	0	1	3.03373384476	None	None	None	None	1
3.0.1	2019_Mar_09_1640	s	s	10	3	Capacity	18	ABS	0	0	1	4	24_1_4	NA	NA	0	1	3.83643317223	None	None	None	None	1
3.0.1	2019_Mar_09_1640	s	s	10	3	Capacity	19	1_4	1	4	1	1	23_1_1	0	3	1	0	0.528590917587	-287.0	311.0	-293.0	307.0	1
3.0.1	2019_Mar_09_1640	s	s	10	3	Capacity	20	ABS	0	0	1	3	24_1_3	NA	NA	0	1	7.3970489502	None	None	None	None	1
3.0.1	2019_Mar_09_1640	s	s	10	3	Capacity	21	1_1	1	1	1	2	23_1_2	0	1	1	0	4.52736186981	-419.0	180.0	-409.0	184.0	1
3.0.1	2019_Mar_09_1640	s	s	10	3	Capacity	22	1_4	1	4	1	3	23_1_3	0	1	1	0	0.563856840134	-358.0	86.0	-366.0	88.0	1
3.0.1	2019_Mar_09_1640	s	s	10	3	Capacity	23	1_1	1	1	1	4	23_1_4	0	3	1	0	0.575625181198	481.0	81.0	485.0	82.0	1
3.0.1	2019_Mar_09_1640	s	s	10	3	Capacity	24	ABS	0	0	1	3	24_1_3	NA	NA	0	1	4.48888802528	None	None	None	None	1
3.0.1	2019_Mar_09_1640	s	s	10	3	Capacity	25	1_4	1	4	1	2	23_1_2	0	2	1	0	0.475057125092	-350.0	289.0	-350.0	286.0	1
3.0.1	2019_Mar_09_1640	s	s	10	3	Capacity	26	1_2	1	2	1	4	23_1_4	0	2	1	0	0.922331094742	-322.0	-313.0	-319.0	-315.0	1
3.0.1	2019_Mar_09_1640	s	s	10	3	Capacity	27	ABS	0	0	1	1	24_1_1	NA	NA	0	1	4.81882405281	None	None	None	None	1
3.0.1	2019_Mar_09_1640	s	s	10	3	Capacity	28	ABS	0	0	1	2	24_1_2	NA	NA	0	1	4.50897693634	None	None	None	None	1
3.0.1	2019_Mar_09_1640	s	s	10	3	Capacity	29	ABS	0	0	1	1	24_1_1	NA	NA	0	1	4.13945198059	None	None	None	None	1
3.0.1	2019_Mar_09_1640	s	s	10	3	Capacity	30	1_2	1	2	1	3	23_1_3	0	1	1	0	4.63322401047	-386.0	-52.0	-388.0	-44.0	1
3.0.1	2019_Mar_09_1640	s	s	10	3	Capacity	31	ABS	0	0	1	4	24_1_4	NA	NA	0	1	3.56047987938	None	None	None	None	1
3.0.1	2019_Mar_09_1640	s	s	10	3	Capacity	32	ABS	0	0	1	2	24_1_2	NA	NA	0	1	5.37418913841	None	None	None	None	1
3.0.1	2019_Mar_09_1640	s	s	10	3	Capacity	33	1_1	1	1	1	2	23_1_2	0	1	1	0	2.43675708771	121.0	-389.0	127.0	-383.0	1
3.0.1	2019_Mar_09_1640	s	s	10	3	Capacity	34	ABS	0	0	1	4	24_1_4	NA	NA	0	1	3.76281619072	None	None	None	None	1
3.0.1	2019_Mar_09_1640	s	s	10	3	Capacity	35	1_4	1	4	1	1	23_1_1	0	3	1	0	0.62259888649	-383.0	-291.0	-379.0	-290.0	1
3.0.1	2019_Mar_09_1640	s	s	10	3	Capacity	36	ABS	0	0	1	3	24_1_3	NA	NA	0	1	4.30397796631	None	None	None	None	1
3.0.1	2019_Mar_09_1640	s	s	10	3	Capacity	37	1_4	1	4	1	3	23_1_3	0	1	1	0	0.575802087784	-46.0	-147.0	-38.0	-144.0	1
3.0.1	2019_Mar_09_1640	s	s	10	3	Capacity	38	1_1	1	1	1	3	23_1_3	0	2	1	0	1.26059913635	-158.0	69.0	-154.0	66.0	1
3.0.1	2019_Mar_09_1640	s	s	10	3	Capacity	39	1_2	1	2	1	1	23_1_1	0	-1	0	1	1.56082105637	-313.0	-133.0	None	None	0
3.0.1	2019_Mar_09_1640	s	s	10	3	Capacity	40	ABS	0	0	1	3	24_1_3	NA	NA	0	1	6.29154896736	None	None	None	None	1
3.0.1	2019_Mar_09_1640	s	s	10	3	Capacity	41	1_3	1	3	1	4	23_1_4	0	-1	1	0	0.599180221558	-414.0	58.0	-403.0	60.0	1
3.0.1	2019_Mar_09_1640	s	s	10	3	Capacity	42	ABS	0	0	1	1	24_1_1	NA	NA	0	1	2.75143313408	None	None	None	None	1
3.0.1	2019_Mar_09_1640	s	s	10	3	Capacity	43	ABS	0	0	1	3	24_1_3	NA	NA	0	1	7.85574698448	None	None	None	None	1
3.0.1	2019_Mar_09_1640	s	s	10	3	Capacity	44	1_1	1	1	1	4	23_1_4	0	3	1	0	0.509546995163	-306.0	-73.0	-306.0	-81.0	1
3.0.1	2019_Mar_09_1640	s	s	10	3	Capacity	45	1_3	1	3	1	1	23_1_1	0	2	1	0	1.28125500679	284.0	-204.0	285.0	-200.0	1
3.0.1	2019_Mar_09_1640	s	s	10	3	Capacity	46	ABS	0	0	1	4	24_1_4	NA	NA	0	1	3.75111794472	None	None	None	None	1
3.0.1	2019_Mar_09_1640	s	s	10	3	Capacity	47	1_3	1	3	1	2	23_1_2	0	1	0	1	5.32498717308	-21.0	-338.0	None	None	0
3.0.1	2019_Mar_09_1640	s	s	10	3	Capacity	48	ABS	0	0	1	2	24_1_2	NA	NA	0	1	4.46901798248	None	None	None	None	1
3.0.1	2019_Mar_09_1640	s	s	10	3	Capacity	49	1_2	1	2	1	1	23_1_1	0	-1	1	0	1.45128297806	77.0	-318.0	76.0	-312.0	1
3.0.1	2019_Mar_09_1640	s	s	10	3	Capacity	50	ABS	0	0	1	2	24_1_2	NA	NA	0	1	5.43586301804	None	None	None	None	1
3.0.1	2019_Mar_09_1640	s	s	10	3	Capacity	51	1_1	1	1	1	2	23_1_2	0	1	1	0	3.46163511276	-270.0	242.0	-279.0	240.0	1
3.0.1	2019_Mar_09_1640	s	s	10	3	Capacity	52	ABS	0	0	1	3	24_1_3	NA	NA	0	1	4.05738902092	None	None	None	None	1
3.0.1	2019_Mar_09_1640	s	s	10	3	Capacity	53	ABS	0	0	1	2	24_1_2	NA	NA	0	1	5.88032889366	None	None	None	None	1
3.0.1	2019_Mar_09_1640	s	s	10	3	Capacity	54	1_3	1	3	1	1	23_1_1	0	2	1	0	1.16806721687	186.0	307.0	198.0	308.0	1
3.0.1	2019_Mar_09_1640	s	s	10	3	Capacity	55	1_2	1	2	1	4	23_1_4	0	2	1	0	0.76765203476	-453.0	347.0	-469.0	356.0	1
3.0.1	2019_Mar_09_1640	s	s	10	3	Capacity	56	1_4	1	4	1	1	23_1_1	0	3	1	0	0.496220827103	410.0	138.0	396.0	145.0	1
3.0.1	2019_Mar_09_1640	s	s	10	3	Capacity	57	ABS	0	0	1	4	24_1_4	NA	NA	0	1	3.10423588753	None	None	None	None	1
3.0.1	2019_Mar_09_1640	s	s	10	3	Capacity	58	ABS	0	0	1	4	24_1_4	NA	NA	0	1	2.62635207176	None	None	None	None	1
3.0.1	2019_Mar_09_1640	s	s	10	3	Capacity	59	1_2	1	2	1	3	23_1_3	0	1	1	0	1.37834405899	45.0	263.0	45.0	267.0	1
3.0.1	2019_Mar_09_1640	s	s	10	3	Capacity	60	1_4	1	4	1	3	23_1_3	0	1	1	0	0.587421894073	-269.0	388.0	-273.0	390.0	1
3.0.1	2019_Mar_09_1640	s	s	10	3	Capacity	61	1_4	1	4	1	2	23_1_2	0	2	1	0	0.437412023544	-389.0	103.0	-388.0	104.0	1
3.0.1	2019_Mar_09_1640	s	s	10	3	Capacity	62	ABS	0	0	1	1	24_1_1	NA	NA	0	1	2.38433909416	None	None	None	None	1
3.0.1	2019_Mar_09_1640	s	s	10	3	Capacity	63	ABS	0	0	1	3	24_1_3	NA	NA	0	1	5.64969015121	None	None	None	None	1
3.0.1	2019_Mar_09_1640	s	s	10	3	Capacity	64	1_1	1	1	1	3	23_1_3	0	2	1	0	3.51585292816	539.0	234.0	545.0	243.0	1
3.0.1	2019_Mar_09_1640	s	s	10	3	Capacity	65	1_3	1	3	1	4	23_1_4	0	-1	1	0	0.646260976791	-256.0	-193.0	-245.0	-191.0	1
3.0.1	2019_Mar_09_1640	s	s	10	3	Capacity	66	1_3	1	3	1	2	23_1_2	0	1	1	0	1.79219818115	-508.0	59.0	-499.0	64.0	1
3.0.1	2019_Mar_09_1640	s	s	10	3	Capacity	67	ABS	0	0	1	1	24_1_1	NA	NA	0	1	2.58675193787	None	None	None	None	1
3.0.1	2019_Mar_09_1640	s	s	10	3	Capacity	68	ABS	0	0	1	2	24_1_2	NA	NA	0	1	4.10394597054	None	None	None	None	1
3.0.1	2019_Mar_09_1640	s	s	10	3	Capacity	69	ABS	0	0	1	4	24_1_4	NA	NA	0	1	2.85728311539	None	None	None	None	1
3.0.1	2019_Mar_09_1640	s	s	10	3	Capacity	70	ABS	0	0	1	1	24_1_1	NA	NA	0	1	2.9400370121	None	None	None	None	1
3.0.1	2019_Mar_09_1640	s	s	10	3	Capacity	71	ABS	0	0	1	3	24_1_3	NA	NA	0	1	4.99774909019	None	None	None	None	1
3.0.1	2019_Mar_09_1640	s	s	10	3	Capacity	72	1_1	1	1	1	4	23_1_4	0	3	1	0	0.613814115524	378.0	-68.0	368.0	-64.0	1
3.0.1	2019_Mar_09_1640	s	s	10	3	Capacity	73	1_4	1	4	1	1	23_1_1	0	3	1	0	0.637865066528	433.0	-5.0	430.0	-5.0	1
3.0.1	2019_Mar_09_1640	s	s	10	3	Capacity	74	1_2	1	2	1	1	23_1_1	0	-1	1	0	3.07399201393	-329.0	-23.0	-332.0	-20.0	1
3.0.1	2019_Mar_09_1640	s	s	10	3	Capacity	75	1_3	1	3	1	4	23_1_4	0	-1	1	0	0.575638055801	438.0	159.0	431.0	159.0	1
3.0.1	2019_Mar_09_1640	s	s	10	3	Capacity	76	1_1	1	1	1	2	23_1_2	0	1	1	0	5.15360593796	-98.0	-54.0	-100.0	-58.0	1
3.0.1	2019_Mar_09_1640	s	s	10	3	Capacity	77	ABS	0	0	1	3	24_1_3	NA	NA	0	1	5.319272995	None	None	None	None	1
3.0.1	2019_Mar_09_1640	s	s	10	3	Capacity	78	1_3	1	3	1	1	23_1_1	0	2	1	0	0.928484916687	-454.0	257.0	-451.0	253.0	1
3.0.1	2019_Mar_09_1640	s	s	10	3	Capacity	79	ABS	0	0	1	3	24_1_3	NA	NA	0	1	4.65148496628	None	None	None	None	1
3.0.1	2019_Mar_09_1640	s	s	10	3	Capacity	80	1_4	1	4	1	2	23_1_2	0	2	1	0	0.446328878403	-154.0	-257.0	-158.0	-254.0	1
3.0.1	2019_Mar_09_1640	s	s	10	3	Capacity	81	ABS	0	0	1	1	24_1_1	NA	NA	0	1	2.36334609985	None	None	None	None	1
3.0.1	2019_Mar_09_1640	s	s	10	3	Capacity	82	ABS	0	0	1	2	24_1_2	NA	NA	0	1	3.53942489624	None	None	None	None	1
3.0.1	2019_Mar_09_1640	s	s	10	3	Capacity	83	ABS	0	0	1	3	24_1_3	NA	NA	0	1	5.62119293213	None	None	None	None	1
3.0.1	2019_Mar_09_1640	s	s	10	3	Capacity	84	1_1	1	1	1	3	23_1_3	0	2	1	0	0.86965918541	-444.0	37.0	-443.0	38.0	1
3.0.1	2019_Mar_09_1640	s	s	10	3	Capacity	85	ABS	0	0	1	4	24_1_4	NA	NA	0	1	2.60813117027	None	None	None	None	1
3.0.1	2019_Mar_09_1640	s	s	10	3	Capacity	86	ABS	0	0	1	4	24_1_4	NA	NA	0	1	3.55507898331	None	None	None	None	1
3.0.1	2019_Mar_09_1640	s	s	10	3	Capacity	87	ABS	0	0	1	1	24_1_1	NA	NA	0	1	3.52758002281	None	None	None	None	1
3.0.1	2019_Mar_09_1640	s	s	10	3	Capacity	88	1_2	1	2	1	3	23_1_3	0	1	1	0	6.27398610115	534.0	365.0	535.0	370.0	1
3.0.1	2019_Mar_09_1640	s	s	10	3	Capacity	89	1_4	1	4	1	3	23_1_3	0	1	1	0	0.678947925568	173.0	-370.0	166.0	-376.0	1
3.0.1	2019_Mar_09_1640	s	s	10	3	Capacity	90	1_2	1	2	1	4	23_1_4	0	2	1	0	0.426541090012	520.0	274.0	514.0	273.0	1
3.0.1	2019_Mar_09_1640	s	s	10	3	Capacity	91	ABS	0	0	1	1	24_1_1	NA	NA	0	1	3.24540519714	None	None	None	None	1
3.0.1	2019_Mar_09_1640	s	s	10	3	Capacity	92	ABS	0	0	1	4	24_1_4	NA	NA	0	1	4.89196586609	None	None	None	None	1
3.0.1	2019_Mar_09_1640	s	s	10	3	Capacity	93	ABS	0	0	1	2	24_1_2	NA	NA	0	1	5.9900829792	None	None	None	None	1
3.0.1	2019_Mar_09_1640	s	s	10	3	Capacity	94	1_3	1	3	1	2	23_1_2	0	1	1	0	1.54511618614	214.0	360.0	212.0	366.0	1
3.0.1	2019_Mar_09_1640	s	s	10	3	Capacity	95	1_1	1	1	1	4	23_1_4	0	3	1	0	0.469763040543	20.0	-80.0	21.0	-82.0	1
3.0.1	2019_Mar_09_1640	s	s	10	3	Capacity	96	ABS	0	0	1	2	24_1_2	NA	NA	0	1	5.43740510941	None	None	None	None	1
3.0.1	2019_Mar_09_1640	s	s	10	3	Capacity	1	4_1	4	1	2	1	23_2_1	2	0	1	0	0.387465953827	371.0	255.0	365.0	251.0	1
3.0.1	2019_Mar_09_1640	s	s	10	3	Capacity	2	ABS	0	0	1	1	24_1_1	NA	NA	0	1	1.79001307487	None	None	None	None	1
3.0.1	2019_Mar_09_1640	s	s	10	3	Capacity	3	2_1	2	1	1	1	23_1_1	-1	0	1	0	1.70473098755	-176.0	284.0	-175.0	279.0	1
3.0.1	2019_Mar_09_1640	s	s	10	3	Capacity	4	ABS	0	0	2	1	24_2_1	NA	NA	0	1	3.76749610901	None	None	None	None	1
3.0.1	2019_Mar_09_1640	s	s	10	3	Capacity	5	3_1	3	1	4	1	23_4_1	-1	0	1	0	0.599164962769	413.0	39.0	409.0	40.0	1
3.0.1	2019_Mar_09_1640	s	s	10	3	Capacity	6	1_1	1	1	3	1	23_3_1	2	0	1	0	0.457934856415	-161.0	284.0	-163.0	283.0	1
3.0.1	2019_Mar_09_1640	s	s	10	3	Capacity	7	ABS	0	0	1	1	24_1_1	NA	NA	0	1	3.59862995148	None	None	None	None	1
3.0.1	2019_Mar_09_1640	s	s	10	3	Capacity	8	3_1	3	1	2	1	23_2_1	1	0	1	0	0.422772169113	343.0	278.0	343.0	285.0	1
3.0.1	2019_Mar_09_1640	s	s	10	3	Capacity	9	3_1	3	1	1	1	23_1_1	2	0	1	0	0.415803909302	236.0	-183.0	237.0	-201.0	1
3.0.1	2019_Mar_09_1640	s	s	10	3	Capacity	10	4_1	4	1	3	1	23_3_1	1	0	1	0	0.340338945389	-223.0	326.0	-218.0	329.0	1
3.0.1	2019_Mar_09_1640	s	s	10	3	Capacity	11	ABS	0	0	3	1	24_3_1	NA	NA	0	1	2.73088097572	None	None	None	None	1
3.0.1	2019_Mar_09_1640	s	s	10	3	Capacity	12	ABS	0	0	4	1	24_4_1	NA	NA	0	1	0.575563907623	None	None	None	None	1
3.0.1	2019_Mar_09_1640	s	s	10	3	Capacity	13	2_1	2	1	4	1	23_4_1	2	0	1	0	0.450271129608	246.0	-212.0	250.0	-205.0	1
3.0.1	2019_Mar_09_1640	s	s	10	3	Capacity	14	ABS	0	0	3	1	24_3_1	NA	NA	0	1	1.57528781891	None	None	None	None	1
3.0.1	2019_Mar_09_1640	s	s	10	3	Capacity	15	ABS	0	0	2	1	24_2_1	NA	NA	0	1	2.46218085289	None	None	None	None	1
3.0.1	2019_Mar_09_1640	s	s	10	3	Capacity	16	ABS	0	0	2	1	24_2_1	NA	NA	0	1	3.08362388611	None	None	None	None	1
3.0.1	2019_Mar_09_1640	s	s	10	3	Capacity	17	ABS	0	0	1	1	24_1_1	NA	NA	0	1	2.82743501663	None	None	None	None	1
3.0.1	2019_Mar_09_1640	s	s	10	3	Capacity	18	ABS	0	0	3	1	24_3_1	NA	NA	0	1	2.21043205261	None	None	None	None	1
3.0.1	2019_Mar_09_1640	s	s	10	3	Capacity	19	4_1	4	1	1	1	23_1_1	3	0	1	0	0.4275598526	33.0	261.0	28.0	263.0	1
3.0.1	2019_Mar_09_1640	s	s	10	3	Capacity	20	1_1	1	1	4	1	23_4_1	3	0	1	0	0.399199008942	-267.0	-101.0	-259.0	-104.0	1
3.0.1	2019_Mar_09_1640	s	s	10	3	Capacity	21	2_1	2	1	3	1	23_3_1	1	0	1	0	0.399283885956	-275.0	66.0	-286.0	67.0	1
3.0.1	2019_Mar_09_1640	s	s	10	3	Capacity	22	1_1	1	1	2	1	23_2_1	1	0	1	0	2.91344881058	241.0	-282.0	249.0	-287.0	1
3.0.1	2019_Mar_09_1640	s	s	10	3	Capacity	23	ABS	0	0	4	1	24_4_1	NA	NA	0	1	2.03150486946	None	None	None	None	1
3.0.1	2019_Mar_09_1640	s	s	10	3	Capacity	24	ABS	0	0	4	1	24_4_1	NA	NA	0	1	2.31627202034	None	None	None	None	1
3.0.1	2019_Mar_09_1640	s	s	10	3	Capacity	25	ABS	0	0	4	1	24_4_1	NA	NA	0	1	2.73970603943	None	None	None	None	1
3.0.1	2019_Mar_09_1640	s	s	10	3	Capacity	26	4_1	4	1	2	1	23_2_1	2	0	1	0	0.429021120071	508.0	-224.0	517.0	-224.0	1
3.0.1	2019_Mar_09_1640	s	s	10	3	Capacity	27	ABS	0	0	1	1	24_1_1	NA	NA	0	1	3.15141701698	None	None	None	None	1
3.0.1	2019_Mar_09_1640	s	s	10	3	Capacity	28	1_1	1	1	4	1	23_4_1	3	0	1	0	0.383365869522	37.0	-209.0	38.0	-205.0	1
3.0.1	2019_Mar_09_1640	s	s	10	3	Capacity	29	2_1	2	1	1	1	23_1_1	-1	0	1	0	2.45736598969	140.0	116.0	143.0	112.0	1
3.0.1	2019_Mar_09_1640	s	s	10	3	Capacity	30	ABS	0	0	1	1	24_1_1	NA	NA	0	1	2.06175494194	None	None	None	None	1
3.0.1	2019_Mar_09_1640	s	s	10	3	Capacity	31	ABS	0	0	3	1	24_3_1	NA	NA	0	1	3.89877390862	None	None	None	None	1
3.0.1	2019_Mar_09_1640	s	s	10	3	Capacity	32	4_1	4	1	3	1	23_3_1	1	0	1	0	0.427967071533	370.0	393.0	369.0	388.0	1
3.0.1	2019_Mar_09_1640	s	s	10	3	Capacity	33	ABS	0	0	1	1	24_1_1	NA	NA	0	1	2.23872184753	None	None	None	None	1
3.0.1	2019_Mar_09_1640	s	s	10	3	Capacity	34	ABS	0	0	4	1	24_4_1	NA	NA	0	1	1.75170493126	None	None	None	None	1
3.0.1	2019_Mar_09_1640	s	s	10	3	Capacity	35	ABS	0	0	2	1	24_2_1	NA	NA	0	1	5.82111907005	None	None	None	None	1
3.0.1	2019_Mar_09_1640	s	s	10	3	Capacity	36	1_1	1	1	3	1	23_3_1	2	0	1	0	0.450615167618	377.0	364.0	380.0	361.0	1
3.0.1	2019_Mar_09_1640	s	s	10	3	Capacity	37	2_1	2	1	3	1	23_3_1	1	0	1	0	0.446341991425	232.0	-14.0	236.0	-8.0	1
3.0.1	2019_Mar_09_1640	s	s	10	3	Capacity	38	4_1	4	1	1	1	23_1_1	3	0	1	0	0.392286062241	-390.0	151.0	-385.0	141.0	1
3.0.1	2019_Mar_09_1640	s	s	10	3	Capacity	39	ABS	0	0	2	1	24_2_1	NA	NA	0	1	3.01020693779	None	None	None	None	1
3.0.1	2019_Mar_09_1640	s	s	10	3	Capacity	40	2_1	2	1	4	1	23_4_1	2	0	1	0	0.383653879166	161.0	184.0	157.0	186.0	1
3.0.1	2019_Mar_09_1640	s	s	10	3	Capacity	41	3_1	3	1	4	1	23_4_1	-1	0	1	0	0.369181156158	-331.0	-176.0	-333.0	-179.0	1
3.0.1	2019_Mar_09_1640	s	s	10	3	Capacity	42	3_1	3	1	2	1	23_2_1	1	0	1	0	0.387411117554	173.0	-130.0	167.0	-125.0	1
3.0.1	2019_Mar_09_1640	s	s	10	3	Capacity	43	ABS	0	0	3	1	24_3_1	NA	NA	0	1	2.74405312538	None	None	None	None	1
3.0.1	2019_Mar_09_1640	s	s	10	3	Capacity	44	ABS	0	0	3	1	24_3_1	NA	NA	0	1	2.18692207336	None	None	None	None	1
3.0.1	2019_Mar_09_1640	s	s	10	3	Capacity	45	3_1	3	1	1	1	23_1_1	2	0	1	0	0.42277097702	-271.0	-332.0	-265.0	-326.0	1
3.0.1	2019_Mar_09_1640	s	s	10	3	Capacity	46	1_1	1	1	2	1	23_2_1	1	0	1	0	1.41527986526	96.0	-108.0	94.0	-104.0	1
3.0.1	2019_Mar_09_1640	s	s	10	3	Capacity	47	ABS	0	0	2	1	24_2_1	NA	NA	0	1	4.05690789223	None	None	None	None	1
3.0.1	2019_Mar_09_1640	s	s	10	3	Capacity	48	ABS	0	0	4	1	24_4_1	NA	NA	0	1	4.15108108521	None	None	None	None	1
3.0.1	2019_Mar_09_1640	s	s	10	3	Capacity	49	ABS	0	0	3	1	24_3_1	NA	NA	0	1	2.89257884026	None	None	None	None	1
3.0.1	2019_Mar_09_1640	s	s	10	3	Capacity	50	ABS	0	0	4	1	24_4_1	NA	NA	0	1	2.33309102058	None	None	None	None	1
3.0.1	2019_Mar_09_1640	s	s	10	3	Capacity	51	1_1	1	1	2	1	23_2_1	1	0	1	0	3.46888399124	471.0	152.0	480.0	153.0	1
3.0.1	2019_Mar_09_1640	s	s	10	3	Capacity	52	3_1	3	1	4	1	23_4_1	-1	0	1	0	0.422703027725	-341.0	-260.0	-353.0	-258.0	1
3.0.1	2019_Mar_09_1640	s	s	10	3	Capacity	53	ABS	0	0	3	1	24_3_1	NA	NA	0	1	3.01050400734	None	None	None	None	1
3.0.1	2019_Mar_09_1640	s	s	10	3	Capacity	54	1_1	1	1	4	1	23_4_1	3	0	1	0	0.554962873459	136.0	305.0	134.0	305.0	1
3.0.1	2019_Mar_09_1640	s	s	10	3	Capacity	55	ABS	0	0	1	1	24_1_1	NA	NA	0	1	5.06841087341	None	None	None	None	1
3.0.1	2019_Mar_09_1640	s	s	10	3	Capacity	56	4_1	4	1	1	1	23_1_1	3	0	1	0	0.446224927902	12.0	-30.0	18.0	-31.0	1
3.0.1	2019_Mar_09_1640	s	s	10	3	Capacity	57	ABS	0	0	4	1	24_4_1	NA	NA	0	1	1.23420906067	None	None	None	None	1
3.0.1	2019_Mar_09_1640	s	s	10	3	Capacity	58	3_1	3	1	2	1	23_2_1	1	0	1	0	0.446305036545	-296.0	319.0	-299.0	314.0	1
3.0.1	2019_Mar_09_1640	s	s	10	3	Capacity	59	ABS	0	0	1	1	24_1_1	NA	NA	0	1	2.56766796112	None	None	None	None	1
3.0.1	2019_Mar_09_1640	s	s	10	3	Capacity	60	ABS	0	0	4	1	24_4_1	NA	NA	0	1	1.3675069809	None	None	None	None	1
3.0.1	2019_Mar_09_1640	s	s	10	3	Capacity	61	2_1	2	1	1	1	23_1_1	-1	0	1	0	2.8692741394	138.0	339.0	137.0	340.0	1
3.0.1	2019_Mar_09_1640	s	s	10	3	Capacity	62	ABS	0	0	1	1	24_1_1	NA	NA	0	1	3.18292379379	None	None	None	None	1
3.0.1	2019_Mar_09_1640	s	s	10	3	Capacity	63	4_1	4	1	3	1	23_3_1	1	0	1	0	0.443081140518	-330.0	-147.0	-332.0	-147.0	1
3.0.1	2019_Mar_09_1640	s	s	10	3	Capacity	64	4_1	4	1	2	1	23_2_1	2	0	1	0	0.383706092834	-3.0	246.0	2.0	245.0	1
3.0.1	2019_Mar_09_1640	s	s	10	3	Capacity	65	2_1	2	1	3	1	23_3_1	1	0	1	0	0.437377929688	76.0	161.0	78.0	162.0	1
3.0.1	2019_Mar_09_1640	s	s	10	3	Capacity	66	2_1	2	1	4	1	23_4_1	2	0	1	0	0.370379924774	-370.0	-110.0	-363.0	-111.0	1
3.0.1	2019_Mar_09_1640	s	s	10	3	Capacity	67	ABS	0	0	2	1	24_2_1	NA	NA	0	1	3.1164598465	None	None	None	None	1
3.0.1	2019_Mar_09_1640	s	s	10	3	Capacity	68	3_1	3	1	1	1	23_1_1	2	0	1	0	0.378643989563	-178.0	44.0	-174.0	54.0	1
3.0.1	2019_Mar_09_1640	s	s	10	3	Capacity	69	ABS	0	0	3	1	24_3_1	NA	NA	0	1	1.99100804329	None	None	None	None	1
3.0.1	2019_Mar_09_1640	s	s	10	3	Capacity	70	ABS	0	0	2	1	24_2_1	NA	NA	0	1	8.46738004684	None	None	None	None	1
3.0.1	2019_Mar_09_1640	s	s	10	3	Capacity	71	ABS	0	0	2	1	24_2_1	NA	NA	0	1	7.86793088913	None	None	None	None	1
3.0.1	2019_Mar_09_1640	s	s	10	3	Capacity	72	1_1	1	1	3	1	23_3_1	2	0	1	0	0.462913036346	-255.0	-48.0	-245.0	-50.0	1
3.0.1	2019_Mar_09_1640	s	s	10	3	Capacity	73	ABS	0	0	3	1	24_3_1	NA	NA	0	1	1.7704501152	None	None	None	None	1
3.0.1	2019_Mar_09_1640	s	s	10	3	Capacity	74	ABS	0	0	3	1	24_3_1	NA	NA	0	1	2.03405618668	None	None	None	None	1
3.0.1	2019_Mar_09_1640	s	s	10	3	Capacity	75	ABS	0	0	4	1	24_4_1	NA	NA	0	1	1.59919500351	None	None	None	None	1
3.0.1	2019_Mar_09_1640	s	s	10	3	Capacity	76	ABS	0	0	1	1	24_1_1	NA	NA	0	1	3.81504392624	None	None	None	None	1
3.0.1	2019_Mar_09_1640	s	s	10	3	Capacity	77	2_1	2	1	4	1	23_4_1	2	0	1	0	0.391677856445	72.0	-105.0	83.0	-100.0	1
3.0.1	2019_Mar_09_1640	s	s	10	3	Capacity	78	2_1	2	1	3	1	23_3_1	1	0	1	0	0.554979085922	-180.0	335.0	-180.0	337.0	1
3.0.1	2019_Mar_09_1640	s	s	10	3	Capacity	79	1_1	1	1	3	1	23_3_1	2	0	1	0	0.561554908752	-516.0	-177.0	-526.0	-177.0	1
3.0.1	2019_Mar_09_1640	s	s	10	3	Capacity	80	3_1	3	1	4	1	23_4_1	-1	0	1	0	0.422781944275	153.0	-149.0	166.0	-145.0	1
3.0.1	2019_Mar_09_1640	s	s	10	3	Capacity	81	ABS	0	0	2	1	24_2_1	NA	NA	0	1	2.057502985	None	None	None	None	1
3.0.1	2019_Mar_09_1640	s	s	10	3	Capacity	82	3_1	3	1	2	1	23_2_1	1	0	1	0	0.458020925522	-305.0	82.0	-305.0	78.0	1
3.0.1	2019_Mar_09_1640	s	s	10	3	Capacity	83	1_1	1	1	4	1	23_4_1	3	0	1	0	0.380342960358	99.0	192.0	102.0	202.0	1
3.0.1	2019_Mar_09_1640	s	s	10	3	Capacity	84	ABS	0	0	1	1	24_1_1	NA	NA	0	1	2.89256906509	None	None	None	None	1
3.0.1	2019_Mar_09_1640	s	s	10	3	Capacity	85	4_1	4	1	2	1	23_2_1	2	0	1	0	0.370397806168	-451.0	-140.0	-457.0	-143.0	1
3.0.1	2019_Mar_09_1640	s	s	10	3	Capacity	86	ABS	0	0	2	1	24_2_1	NA	NA	0	1	2.39148902893	None	None	None	None	1
3.0.1	2019_Mar_09_1640	s	s	10	3	Capacity	87	4_1	4	1	1	1	23_1_1	3	0	1	0	0.340424060822	-429.0	-17.0	-439.0	-13.0	1
3.0.1	2019_Mar_09_1640	s	s	10	3	Capacity	88	4_1	4	1	3	1	23_3_1	1	0	1	0	0.378573179245	-197.0	163.0	-198.0	153.0	1
3.0.1	2019_Mar_09_1640	s	s	10	3	Capacity	89	ABS	0	0	4	1	24_4_1	NA	NA	0	1	1.00841498375	None	None	None	None	1
3.0.1	2019_Mar_09_1640	s	s	10	3	Capacity	90	ABS	0	0	4	1	24_4_1	NA	NA	0	1	0.928493022919	None	None	None	None	1
3.0.1	2019_Mar_09_1640	s	s	10	3	Capacity	91	2_1	2	1	1	1	23_1_1	-1	0	1	0	4.63623809814	265.0	260.0	277.0	264.0	1
3.0.1	2019_Mar_09_1640	s	s	10	3	Capacity	92	3_1	3	1	1	1	23_1_1	2	0	1	0	0.442762136459	321.0	-129.0	312.0	-122.0	1
3.0.1	2019_Mar_09_1640	s	s	10	3	Capacity	93	ABS	0	0	1	1	24_1_1	NA	NA	0	1	4.16269278526	None	None	None	None	1
3.0.1	2019_Mar_09_1640	s	s	10	3	Capacity	94	ABS	0	0	2	1	24_2_1	NA	NA	0	1	6.24980807304	None	None	None	None	1
3.0.1	2019_Mar_09_1640	s	s	10	3	Capacity	95	1_1	1	1	2	1	23_2_1	1	0	1	0	8.26741409302	-316.0	-285.0	-316.0	-288.0	1
3.0.1	2019_Mar_09_1640	s	s	10	3	Capacity	96	ABS	0	0	3	1	24_3_1	NA	NA	0	1	8.97908186913	None	None	None	None	1
3.0.1	2019_Mar_09_1640	s	s	10	3	SIC	1	ABS	0	0	4	2	24_4_2	NA	NA	0	1	5.93866181374	None	None	None	None	1
3.0.1	2019_Mar_09_1640	s	s	10	3	SIC	2	4_2	4	2	3	3	23_3_3	1	1	1	0	0.634472846985	147.0	273.0	151.0	270.0	1
3.0.1	2019_Mar_09_1640	s	s	10	3	SIC	3	ABS	0	0	3	3	24_3_3	NA	NA	0	1	5.56233596802	None	None	None	None	1
3.0.1	2019_Mar_09_1640	s	s	10	3	SIC	4	ABS	0	0	4	3	24_4_3	NA	NA	0	1	5.79064893723	None	None	None	None	1
3.0.1	2019_Mar_09_1640	s	s	10	3	SIC	5	4_2	4	2	3	1	23_3_1	1	-1	1	0	0.555015802383	217.0	161.0	217.0	163.0	1
3.0.1	2019_Mar_09_1640	s	s	10	3	SIC	6	ABS	0	0	3	2	24_3_2	NA	NA	0	1	5.58613300323	None	None	None	None	1
3.0.1	2019_Mar_09_1640	s	s	10	3	SIC	7	1_4	1	4	3	3	23_3_3	2	1	1	0	0.528552055359	-363.0	257.0	-370.0	256.0	1
3.0.1	2019_Mar_09_1640	s	s	10	3	SIC	8	ABS	0	0	1	2	24_1_2	NA	NA	0	1	5.42123413086	None	None	None	None	1
3.0.1	2019_Mar_09_1640	s	s	10	3	SIC	9	1_1	1	1	4	2	23_4_2	3	1	1	0	0.50124502182	-277.0	402.0	-277.0	400.0	1
3.0.1	2019_Mar_09_1640	s	s	10	3	SIC	10	4_3	4	3	1	4	23_1_4	3	-1	1	0	0.37858915329	39.0	-55.0	38.0	-54.0	1
3.0.1	2019_Mar_09_1640	s	s	10	3	SIC	11	ABS	0	0	3	4	24_3_4	NA	NA	0	1	2.93957400322	None	None	None	None	1
3.0.1	2019_Mar_09_1640	s	s	10	3	SIC	12	ABS	0	0	1	1	24_1_1	NA	NA	0	1	2.7750442028	None	None	None	None	1
3.0.1	2019_Mar_09_1640	s	s	10	3	SIC	13	3_3	3	3	1	1	23_1_1	2	2	1	0	0.422740936279	26.0	-238.0	22.0	-247.0	1
3.0.1	2019_Mar_09_1640	s	s	10	3	SIC	14	ABS	0	0	1	2	24_1_2	NA	NA	0	1	6.58551287651	None	None	None	None	1
3.0.1	2019_Mar_09_1640	s	s	10	3	SIC	15	ABS	0	0	1	4	24_1_4	NA	NA	0	1	4.12419199944	None	None	None	None	1
3.0.1	2019_Mar_09_1640	s	s	10	3	SIC	16	1_1	1	1	2	4	23_2_4	1	3	1	0	0.533473014832	-530.0	190.0	-532.0	182.0	1
3.0.1	2019_Mar_09_1640	s	s	10	3	SIC	17	2_4	2	4	3	2	23_3_2	1	2	1	0	0.590143918991	182.0	342.0	180.0	337.0	1
3.0.1	2019_Mar_09_1640	s	s	10	3	SIC	18	3_3	3	3	1	3	23_1_3	2	0	1	0	0.422780990601	300.0	-235.0	293.0	-231.0	1
3.0.1	2019_Mar_09_1640	s	s	10	3	SIC	19	1_4	1	4	1	1	23_1_1	0	3	1	0	0.45800113678	297.0	377.0	284.0	381.0	1
3.0.1	2019_Mar_09_1640	s	s	10	3	SIC	20	ABS	0	0	1	1	24_1_1	NA	NA	0	1	2.72534394264	None	None	None	None	1
3.0.1	2019_Mar_09_1640	s	s	10	3	SIC	21	ABS	0	0	4	3	24_4_3	NA	NA	0	1	5.31825304031	None	None	None	None	1
3.0.1	2019_Mar_09_1640	s	s	10	3	SIC	22	3_1	3	1	3	2	23_3_2	0	1	1	0	1.24889492989	-535.0	56.0	-529.0	56.0	1
3.0.1	2019_Mar_09_1640	s	s	10	3	SIC	23	ABS	0	0	3	3	24_3_3	NA	NA	0	1	6.16488003731	None	None	None	None	1
3.0.1	2019_Mar_09_1640	s	s	10	3	SIC	24	ABS	0	0	3	1	24_3_1	NA	NA	0	1	5.11541414261	None	None	None	None	1
3.0.1	2019_Mar_09_1640	s	s	10	3	SIC	25	1_4	1	4	2	2	23_2_2	1	2	1	0	0.599176883698	466.0	180.0	463.0	174.0	1
3.0.1	2019_Mar_09_1640	s	s	10	3	SIC	26	ABS	0	0	4	2	24_4_2	NA	NA	0	1	5.40241599083	None	None	None	None	1
3.0.1	2019_Mar_09_1640	s	s	10	3	SIC	27	ABS	0	0	2	3	24_2_3	NA	NA	0	1	6.35319018364	None	None	None	None	1
3.0.1	2019_Mar_09_1640	s	s	10	3	SIC	28	ABS	0	0	2	2	24_2_2	NA	NA	0	1	8.27956700325	None	None	None	None	1
3.0.1	2019_Mar_09_1640	s	s	10	3	SIC	29	4_2	4	2	1	2	23_1_2	3	0	1	0	0.510302066803	276.0	183.0	274.0	193.0	1
3.0.1	2019_Mar_09_1640	s	s	10	3	SIC	30	4_3	4	3	3	1	23_3_1	1	2	1	0	0.378588914871	-398.0	315.0	-396.0	314.0	1
3.0.1	2019_Mar_09_1640	s	s	10	3	SIC	31	ABS	0	0	4	4	24_4_4	NA	NA	0	1	3.48067688942	None	None	None	None	1
3.0.1	2019_Mar_09_1640	s	s	10	3	SIC	32	ABS	0	0	4	1	24_4_1	NA	NA	0	1	4.70377993584	None	None	None	None	1
3.0.1	2019_Mar_09_1640	s	s	10	3	SIC	33	3_4	3	4	3	3	23_3_3	0	1	1	0	0.516783952713	-539.0	242.0	-538.0	244.0	1
3.0.1	2019_Mar_09_1640	s	s	10	3	SIC	34	1_4	1	4	2	3	23_2_3	1	1	1	0	0.510795116425	437.0	5.0	436.0	-1.0	1
3.0.1	2019_Mar_09_1640	s	s	10	3	SIC	35	2_3	2	3	2	4	23_2_4	0	-1	1	0	0.970934152603	-298.0	-354.0	-292.0	-363.0	1
3.0.1	2019_Mar_09_1640	s	s	10	3	SIC	36	ABS	0	0	4	4	24_4_4	NA	NA	0	1	3.65025615692	None	None	None	None	1
3.0.1	2019_Mar_09_1640	s	s	10	3	SIC	37	ABS	0	0	3	4	24_3_4	NA	NA	0	1	6.56252098083	None	None	None	None	1
3.0.1	2019_Mar_09_1640	s	s	10	3	SIC	38	4_1	4	1	1	2	23_1_2	3	1	1	0	0.451068162918	140.0	180.0	130.0	184.0	1
3.0.1	2019_Mar_09_1640	s	s	10	3	SIC	39	4_3	4	3	1	3	23_1_3	3	0	1	0	0.392451047897	-530.0	-172.0	-519.0	-168.0	1
3.0.1	2019_Mar_09_1640	s	s	10	3	SIC	40	2_1	2	1	3	1	23_3_1	1	0	1	0	0.414856910706	-221.0	-83.0	-223.0	-79.0	1
3.0.1	2019_Mar_09_1640	s	s	10	3	SIC	41	3_3	3	3	3	2	23_3_2	0	1	1	0	5.99752092361	-416.0	180.0	-408.0	181.0	1
3.0.1	2019_Mar_09_1640	s	s	10	3	SIC	42	ABS	0	0	4	1	24_4_1	NA	NA	0	1	3.42184495926	None	None	None	None	1
3.0.1	2019_Mar_09_1640	s	s	10	3	SIC	43	3_4	3	4	3	1	23_3_1	0	3	1	0	0.496218919754	280.0	179.0	284.0	175.0	1
3.0.1	2019_Mar_09_1640	s	s	10	3	SIC	44	2_1	2	1	2	2	23_2_2	0	1	1	0	2.17513394356	76.0	-364.0	77.0	-365.0	1
3.0.1	2019_Mar_09_1640	s	s	10	3	SIC	45	3_3	3	3	4	3	23_4_3	-1	0	1	0	0.43733215332	-451.0	340.0	-444.0	337.0	1
3.0.1	2019_Mar_09_1640	s	s	10	3	SIC	46	2_3	2	3	3	1	23_3_1	1	2	1	0	0.516766786575	486.0	-367.0	489.0	-360.0	1
3.0.1	2019_Mar_09_1640	s	s	10	3	SIC	47	ABS	0	0	4	1	24_4_1	NA	NA	0	1	4.28551483154	None	None	None	None	1
3.0.1	2019_Mar_09_1640	s	s	10	3	SIC	48	4_3	4	3	1	2	23_1_2	3	1	1	0	0.404639005661	9.0	-162.0	0.0	-163.0	1
3.0.1	2019_Mar_09_1640	s	s	10	3	SIC	49	ABS	0	0	3	4	24_3_4	NA	NA	0	1	2.69841599464	None	None	None	None	1
3.0.1	2019_Mar_09_1640	s	s	10	3	SIC	50	ABS	0	0	2	1	24_2_1	NA	NA	0	1	2.76323509216	None	None	None	None	1
3.0.1	2019_Mar_09_1640	s	s	10	3	SIC	51	ABS	0	0	1	4	24_1_4	NA	NA	0	1	3.39289093018	None	None	None	None	1
3.0.1	2019_Mar_09_1640	s	s	10	3	SIC	52	2_2	2	2	4	3	23_4_3	2	1	1	0	0.449056863785	-334.0	333.0	-328.0	325.0	1
3.0.1	2019_Mar_09_1640	s	s	10	3	SIC	53	3_2	3	2	1	2	23_1_2	2	0	1	0	0.522110939026	159.0	-19.0	156.0	-13.0	1
3.0.1	2019_Mar_09_1640	s	s	10	3	SIC	54	ABS	0	0	4	4	24_4_4	NA	NA	0	1	2.76317095757	None	None	None	None	1
3.0.1	2019_Mar_09_1640	s	s	10	3	SIC	55	2_2	2	2	3	1	23_3_1	1	-1	1	0	0.546638011932	38.0	-353.0	46.0	-345.0	1
3.0.1	2019_Mar_09_1640	s	s	10	3	SIC	56	2_2	2	2	2	1	23_2_1	0	-1	1	0	1.46999311447	-410.0	-203.0	-405.0	-197.0	1
3.0.1	2019_Mar_09_1640	s	s	10	3	SIC	57	1_1	1	1	1	2	23_1_2	0	1	1	0	1.85759401321	-143.0	-369.0	-147.0	-365.0	1
3.0.1	2019_Mar_09_1640	s	s	10	3	SIC	58	3_2	3	2	4	3	23_4_3	-1	1	1	0	0.415006160736	-21.0	320.0	-21.0	313.0	1
3.0.1	2019_Mar_09_1640	s	s	10	3	SIC	59	1_3	1	3	2	2	23_2_2	1	1	1	0	0.634474992752	-121.0	-314.0	-115.0	-312.0	1
3.0.1	2019_Mar_09_1640	s	s	10	3	SIC	60	ABS	0	0	3	2	24_3_2	NA	NA	0	1	5.68512392044	None	None	None	None	1
3.0.1	2019_Mar_09_1640	s	s	10	3	SIC	61	ABS	0	0	4	3	24_4_3	NA	NA	0	1	4.28040504456	None	None	None	None	1
3.0.1	2019_Mar_09_1640	s	s	10	3	SIC	62	ABS	0	0	2	2	24_2_2	NA	NA	0	1	9.74199485779	None	None	None	None	1
3.0.1	2019_Mar_09_1640	s	s	10	3	SIC	63	ABS	0	0	4	2	24_4_2	NA	NA	0	1	5.03313302994	None	None	None	None	1
3.0.1	2019_Mar_09_1640	s	s	10	3	SIC	64	ABS	0	0	1	2	24_1_2	NA	NA	0	1	5.69683909416	None	None	None	None	1
3.0.1	2019_Mar_09_1640	s	s	10	3	SIC	65	1_1	1	1	4	1	23_4_1	3	0	0	1	0.427974939346	-501.0	-388.0	None	None	0
3.0.1	2019_Mar_09_1640	s	s	10	3	SIC	66	ABS	0	0	4	1	24_4_1	NA	NA	0	1	2.77977514267	None	None	None	None	1
3.0.1	2019_Mar_09_1640	s	s	10	3	SIC	67	2_1	2	1	3	2	23_3_2	1	1	1	0	0.521586894989	216.0	179.0	228.0	181.0	1
3.0.1	2019_Mar_09_1640	s	s	10	3	SIC	68	1_4	1	4	3	4	23_3_4	2	0	1	0	0.481531858444	460.0	-151.0	448.0	-146.0	1
3.0.1	2019_Mar_09_1640	s	s	10	3	SIC	69	ABS	0	0	2	1	24_2_1	NA	NA	0	1	4.72045588493	None	None	None	None	1
3.0.1	2019_Mar_09_1640	s	s	10	3	SIC	70	2_4	2	4	3	4	23_3_4	1	0	1	0	0.857906103134	-149.0	94.0	-135.0	104.0	1
3.0.1	2019_Mar_09_1640	s	s	10	3	SIC	71	2_1	2	1	1	1	23_1_1	-1	0	1	0	5.11540794373	321.0	-405.0	323.0	-398.0	1
3.0.1	2019_Mar_09_1640	s	s	10	3	SIC	72	ABS	0	0	4	3	24_4_3	NA	NA	0	1	3.02477097511	None	None	None	None	1
3.0.1	2019_Mar_09_1640	s	s	10	3	SIC	73	3_4	3	4	1	1	23_1_1	2	3	1	0	0.664448022842	521.0	379.0	520.0	375.0	1
3.0.1	2019_Mar_09_1640	s	s	10	3	SIC	74	ABS	0	0	2	1	24_2_1	NA	NA	0	1	5.98561191559	None	None	None	None	1
3.0.1	2019_Mar_09_1640	s	s	10	3	SIC	75	3_2	3	2	4	4	23_4_4	-1	2	1	0	0.638717889786	-277.0	-291.0	-286.0	-294.0	1
3.0.1	2019_Mar_09_1640	s	s	10	3	SIC	76	ABS	0	0	3	4	24_3_4	NA	NA	0	1	3.42682313919	None	None	None	None	1
3.0.1	2019_Mar_09_1640	s	s	10	3	SIC	77	1_4	1	4	3	1	23_3_1	2	3	1	0	0.499240875244	-464.0	270.0	-466.0	266.0	1
3.0.1	2019_Mar_09_1640	s	s	10	3	SIC	78	ABS	0	0	4	2	24_4_2	NA	NA	0	1	5.35063886642	None	None	None	None	1
3.0.1	2019_Mar_09_1640	s	s	10	3	SIC	79	ABS	0	0	3	1	24_3_1	NA	NA	0	1	4.16281485558	None	None	None	None	1
3.0.1	2019_Mar_09_1640	s	s	10	3	SIC	80	ABS	0	0	1	4	24_1_4	NA	NA	0	1	2.94462800026	None	None	None	None	1
3.0.1	2019_Mar_09_1640	s	s	10	3	SIC	81	1_4	1	4	4	1	23_4_1	3	3	1	0	0.505057096481	535.0	-174.0	545.0	-167.0	1
3.0.1	2019_Mar_09_1640	s	s	10	3	SIC	82	4_1	4	1	1	4	23_1_4	3	3	1	0	0.486606836319	432.0	352.0	435.0	354.0	1
3.0.1	2019_Mar_09_1640	s	s	10	3	SIC	83	3_2	3	2	4	2	23_4_2	-1	0	1	0	0.383323192596	501.0	-11.0	506.0	-8.0	1
3.0.1	2019_Mar_09_1640	s	s	10	3	SIC	84	ABS	0	0	4	4	24_4_4	NA	NA	0	1	2.55436897278	None	None	None	None	1
3.0.1	2019_Mar_09_1640	s	s	10	3	SIC	85	4_4	4	4	1	1	23_1_1	3	3	1	0	0.410956859589	124.0	77.0	124.0	81.0	1
3.0.1	2019_Mar_09_1640	s	s	10	3	SIC	86	ABS	0	0	4	4	24_4_4	NA	NA	0	1	2.26133990288	None	None	None	None	1
3.0.1	2019_Mar_09_1640	s	s	10	3	SIC	87	ABS	0	0	3	1	24_3_1	NA	NA	0	1	3.7393989563	None	None	None	None	1
3.0.1	2019_Mar_09_1640	s	s	10	3	SIC	88	4_4	4	4	3	1	23_3_1	1	3	1	0	0.485941886902	123.0	403.0	130.0	404.0	1
3.0.1	2019_Mar_09_1640	s	s	10	3	SIC	89	ABS	0	0	2	4	24_2_4	NA	NA	0	1	3.16299700737	None	None	None	None	1
3.0.1	2019_Mar_09_1640	s	s	10	3	SIC	90	4_4	4	4	2	1	23_2_1	2	3	1	0	0.451081037521	528.0	-206.0	538.0	-208.0	1
3.0.1	2019_Mar_09_1640	s	s	10	3	SIC	91	ABS	0	0	4	3	24_4_3	NA	NA	0	1	4.72190904617	None	None	None	None	1
3.0.1	2019_Mar_09_1640	s	s	10	3	SIC	92	3_3	3	3	2	2	23_2_2	1	1	1	0	0.545593976974	280.0	57.0	281.0	53.0	1
3.0.1	2019_Mar_09_1640	s	s	10	3	SIC	93	1_3	1	3	4	2	23_4_2	3	1	1	0	0.451477050781	-292.0	-334.0	-289.0	-341.0	1
3.0.1	2019_Mar_09_1640	s	s	10	3	SIC	94	ABS	0	0	2	4	24_2_4	NA	NA	0	1	2.351583004	None	None	None	None	1
3.0.1	2019_Mar_09_1640	s	s	10	3	SIC	95	1_1	1	1	1	3	23_1_3	0	2	1	0	2.74528098106	269.0	-233.0	275.0	-242.0	1
3.0.1	2019_Mar_09_1640	s	s	10	3	SIC	96	ABS	0	0	3	1	24_3_1	NA	NA	0	1	2.38412284851	None	None	None	None	1
3.0.1	2019_Mar_09_1640	s	s	10	3	SIC	97	ABS	0	0	4	3	24_4_3	NA	NA	0	1	6.2003672123	None	None	None	None	1
3.0.1	2019_Mar_09_1640	s	s	10	3	SIC	98	ABS	0	0	1	3	24_1_3	NA	NA	0	1	5.11542606354	None	None	None	None	1
3.0.1	2019_Mar_09_1640	s	s	10	3	SIC	99	2_1	2	1	2	3	23_2_3	0	2	1	0	0.780780792236	-31.0	241.0	-41.0	243.0	1
3.0.1	2019_Mar_09_1640	s	s	10	3	SIC	100	ABS	0	0	4	2	24_4_2	NA	NA	0	1	6.49836206436	None	None	None	None	1
3.0.1	2019_Mar_09_1640	s	s	10	3	SIC	101	ABS	0	0	3	1	24_3_1	NA	NA	0	1	9.02402114868	None	None	None	None	1
3.0.1	2019_Mar_09_1640	s	s	10	3	SIC	102	ABS	0	0	2	2	24_2_2	NA	NA	0	1	8.72617793083	None	None	None	None	1
3.0.1	2019_Mar_09_1640	s	s	10	3	SIC	103	ABS	0	0	3	2	24_3_2	NA	NA	0	1	7.51511216164	None	None	None	None	1
3.0.1	2019_Mar_09_1640	s	s	10	3	SIC	104	3_1	3	1	4	4	23_4_4	-1	3	1	0	0.510833978653	48.0	213.0	54.0	218.0	1
3.0.1	2019_Mar_09_1640	s	s	10	3	SIC	105	1_2	1	2	4	1	23_4_1	3	-1	1	0	0.369980812073	366.0	-87.0	368.0	-88.0	1
3.0.1	2019_Mar_09_1640	s	s	10	3	SIC	106	ABS	0	0	2	3	24_2_3	NA	NA	0	1	10.760789156	None	None	None	None	1
3.0.1	2019_Mar_09_1640	s	s	10	3	SIC	107	ABS	0	0	3	2	24_3_2	NA	NA	0	1	6.28484487534	None	None	None	None	1
3.0.1	2019_Mar_09_1640	s	s	10	3	SIC	108	ABS	0	0	1	3	24_1_3	NA	NA	0	1	5.55347299576	None	None	None	None	1
3.0.1	2019_Mar_09_1640	s	s	10	3	SIC	109	ABS	0	0	2	2	24_2_2	NA	NA	0	1	7.99978995323	None	None	None	None	1
3.0.1	2019_Mar_09_1640	s	s	10	3	SIC	110	ABS	0	0	2	3	24_2_3	NA	NA	0	1	6.30327105522	None	None	None	None	1
3.0.1	2019_Mar_09_1640	s	s	10	3	SIC	111	1_1	1	1	4	4	23_4_4	3	3	1	0	0.451593160629	-38.0	257.0	-43.0	253.0	1
3.0.1	2019_Mar_09_1640	s	s	10	3	SIC	112	4_2	4	2	2	4	23_2_4	2	2	1	0	0.410932064056	495.0	-326.0	494.0	-323.0	1
3.0.1	2019_Mar_09_1640	s	s	10	3	SIC	113	ABS	0	0	3	1	24_3_1	NA	NA	0	1	5.53212499619	None	None	None	None	1
3.0.1	2019_Mar_09_1640	s	s	10	3	SIC	114	ABS	0	0	4	3	24_4_3	NA	NA	0	1	7.23245286942	None	None	None	None	1
3.0.1	2019_Mar_09_1640	s	s	10	3	SIC	115	ABS	0	0	2	4	24_2_4	NA	NA	0	1	4.95620894432	None	None	None	None	1
3.0.1	2019_Mar_09_1640	s	s	10	3	SIC	116	ABS	0	0	3	1	24_3_1	NA	NA	0	1	4.92726111412	None	None	None	None	1
3.0.1	2019_Mar_09_1640	s	s	10	3	SIC	117	ABS	0	0	2	1	24_2_1	NA	NA	0	1	7.58523893356	None	None	None	None	1
3.0.1	2019_Mar_09_1640	s	s	10	3	SIC	118	2_2	2	2	2	4	23_2_4	0	2	1	0	0.839431762695	-479.0	-360.0	-472.0	-351.0	1
3.0.1	2019_Mar_09_1640	s	s	10	3	SIC	119	1_3	1	3	1	4	23_1_4	0	-1	1	0	0.519619941711	-247.0	-263.0	-250.0	-266.0	1
3.0.1	2019_Mar_09_1640	s	s	10	3	SIC	120	ABS	0	0	4	2	24_4_2	NA	NA	0	1	6.26806998253	None	None	None	None	1
3.0.1	2019_Mar_09_1640	s	s	10	3	SIC	121	4_3	4	3	4	1	23_4_1	0	2	1	0	1.29773497581	230.0	-58.0	231.0	-49.0	1
3.0.1	2019_Mar_09_1640	s	s	10	3	SIC	122	ABS	0	0	3	3	24_3_3	NA	NA	0	1	6.46786999702	None	None	None	None	1
3.0.1	2019_Mar_09_1640	s	s	10	3	SIC	123	2_4	2	4	1	2	23_1_2	-1	2	1	0	0.59916305542	501.0	73.0	507.0	70.0	1
3.0.1	2019_Mar_09_1640	s	s	10	3	SIC	124	ABS	0	0	2	4	24_2_4	NA	NA	0	1	3.97963094711	None	None	None	None	1
3.0.1	2019_Mar_09_1640	s	s	10	3	SIC	125	ABS	0	0	2	3	24_2_3	NA	NA	0	1	7.18542194366	None	None	None	None	1
3.0.1	2019_Mar_09_1640	s	s	10	3	SIC	126	ABS	0	0	2	1	24_2_1	NA	NA	0	1	4.6332628727	None	None	None	None	1
3.0.1	2019_Mar_09_1640	s	s	10	3	SIC	127	ABS	0	0	3	4	24_3_4	NA	NA	0	1	6.97765493393	None	None	None	None	1
3.0.1	2019_Mar_09_1640	s	s	10	3	SIC	128	2_3	2	3	1	1	23_1_1	-1	2	1	0	0.987272977829	511.0	368.0	513.0	370.0	1
3.0.1	2019_Mar_09_1640	s	s	10	3	SIC	129	3_1	3	1	4	1	23_4_1	-1	0	1	0	0.404133796692	88.0	161.0	99.0	164.0	1
3.0.1	2019_Mar_09_1640	s	s	10	3	SIC	130	ABS	0	0	2	4	24_2_4	NA	NA	0	1	6.87960004807	None	None	None	None	1
3.0.1	2019_Mar_09_1640	s	s	10	3	SIC	131	4_2	4	2	2	2	23_2_2	2	0	1	0	0.38049197197	135.0	210.0	129.0	207.0	1
3.0.1	2019_Mar_09_1640	s	s	10	3	SIC	132	2_4	2	4	1	3	23_1_3	-1	1	1	0	0.854488134384	171.0	339.0	170.0	335.0	1
3.0.1	2019_Mar_09_1640	s	s	10	3	SIC	133	2_4	2	4	2	3	23_2_3	0	1	1	0	0.822588920593	229.0	162.0	216.0	166.0	1
3.0.1	2019_Mar_09_1640	s	s	10	3	SIC	134	2_2	2	2	1	2	23_1_2	-1	0	1	0	6.36232709885	-500.0	-100.0	-503.0	-101.0	1
3.0.1	2019_Mar_09_1640	s	s	10	3	SIC	135	4_4	4	4	3	4	23_3_4	1	0	1	0	0.521838188171	348.0	132.0	338.0	139.0	1
3.0.1	2019_Mar_09_1640	s	s	10	3	SIC	136	2_2	2	2	1	4	23_1_4	-1	2	1	0	0.469845056534	-44.0	165.0	-43.0	164.0	1
3.0.1	2019_Mar_09_1640	s	s	10	3	SIC	137	1_3	1	3	3	3	23_3_3	2	0	1	0	0.650979995728	-307.0	-289.0	-306.0	-292.0	1
3.0.1	2019_Mar_09_1640	s	s	10	3	SIC	138	3_4	3	4	2	2	23_2_2	1	2	1	0	0.427114009857	161.0	164.0	169.0	168.0	1
3.0.1	2019_Mar_09_1640	s	s	10	3	SIC	139	2_1	2	1	3	3	23_3_3	1	2	1	0	0.496248960495	-211.0	-346.0	-212.0	-348.0	1
3.0.1	2019_Mar_09_1640	s	s	10	3	SIC	140	ABS	0	0	1	1	24_1_1	NA	NA	0	1	8.8907930851	None	None	None	None	1
3.0.1	2019_Mar_09_1640	s	s	10	3	SIC	141	1_3	1	3	3	2	23_3_2	2	1	1	0	0.46981883049	90.0	179.0	96.0	171.0	1
3.0.1	2019_Mar_09_1640	s	s	10	3	SIC	142	ABS	0	0	2	2	24_2_2	NA	NA	0	1	5.76231598854	None	None	None	None	1
3.0.1	2019_Mar_09_1640	s	s	10	3	SIC	143	ABS	0	0	2	2	24_2_2	NA	NA	0	1	7.30893802643	None	None	None	None	1
3.0.1	2019_Mar_09_1640	s	s	10	3	SIC	144	4_1	4	1	3	4	23_3_4	1	3	1	0	0.425621032715	77.0	226.0	87.0	234.0	1
3.0.1	2019_Mar_09_1640	s	s	10	3	SIC	145	2_4	2	4	1	4	23_1_4	-1	0	1	0	5.30894088745	-263.0	-378.0	-249.0	-368.0	1
3.0.1	2019_Mar_09_1640	s	s	10	3	SIC	146	ABS	0	0	4	2	24_4_2	NA	NA	0	1	4.9555439949	None	None	None	None	1
3.0.1	2019_Mar_09_1640	s	s	10	3	SIC	147	ABS	0	0	3	1	24_3_1	NA	NA	0	1	8.11458301544	None	None	None	None	1
3.0.1	2019_Mar_09_1640	s	s	10	3	SIC	148	1_3	1	3	4	4	23_4_4	3	-1	1	0	0.458014011383	-374.0	-50.0	-364.0	-43.0	1
3.0.1	2019_Mar_09_1640	s	s	10	3	SIC	149	4_2	4	2	3	4	23_3_4	1	2	1	0	0.399183034897	-507.0	-374.0	-507.0	-371.0	1
3.0.1	2019_Mar_09_1640	s	s	10	3	SIC	150	ABS	0	0	3	4	24_3_4	NA	NA	0	1	4.86186218262	None	None	None	None	1
3.0.1	2019_Mar_09_1640	s	s	10	3	SIC	151	ABS	0	0	2	4	24_2_4	NA	NA	0	1	5.55850887299	None	None	None	None	1
3.0.1	2019_Mar_09_1640	s	s	10	3	SIC	152	ABS	0	0	1	2	24_1_2	NA	NA	0	1	8.38116288185	None	None	None	None	1
3.0.1	2019_Mar_09_1640	s	s	10	3	SIC	153	4_4	4	4	4	3	23_4_3	0	1	1	0	0.672604799271	-39.0	-127.0	-32.0	-126.0	1
3.0.1	2019_Mar_09_1640	s	s	10	3	SIC	154	ABS	0	0	1	2	24_1_2	NA	NA	0	1	7.63224816322	None	None	None	None	1
3.0.1	2019_Mar_09_1640	s	s	10	3	SIC	155	3_2	3	2	3	4	23_3_4	0	2	1	0	0.940270900726	477.0	366.0	481.0	367.0	1
3.0.1	2019_Mar_09_1640	s	s	10	3	SIC	156	ABS	0	0	2	3	24_2_3	NA	NA	0	1	8.90540099144	None	None	None	None	1
3.0.1	2019_Mar_09_1640	s	s	10	3	SIC	157	ABS	0	0	2	4	24_2_4	NA	NA	0	1	7.27945399284	None	None	None	None	1
3.0.1	2019_Mar_09_1640	s	s	10	3	SIC	158	ABS	0	0	2	2	24_2_2	NA	NA	0	1	8.98484301567	None	None	None	None	1
3.0.1	2019_Mar_09_1640	s	s	10	3	SIC	159	ABS	0	0	4	3	24_4_3	NA	NA	0	1	5.7558760643	None	None	None	None	1
3.0.1	2019_Mar_09_1640	s	s	10	3	SIC	160	ABS	0	0	3	4	24_3_4	NA	NA	0	1	6.9793741703	None	None	None	None	1
3.0.1	2019_Mar_09_1640	s	s	10	3	SIC	161	ABS	0	0	3	2	24_3_2	NA	NA	0	1	11.2713930607	None	None	None	None	1
3.0.1	2019_Mar_09_1640	s	s	10	3	SIC	162	ABS	0	0	1	3	24_1_3	NA	NA	0	1	11.0596728325	None	None	None	None	1
3.0.1	2019_Mar_09_1640	s	s	10	3	SIC	163	ABS	0	0	3	2	24_3_2	NA	NA	0	1	8.89915800095	None	None	None	None	1
3.0.1	2019_Mar_09_1640	s	s	10	3	SIC	164	ABS	0	0	4	2	24_4_2	NA	NA	0	1	10.619560957	None	None	None	None	1
3.0.1	2019_Mar_09_1640	s	s	10	3	SIC	165	ABS	0	0	1	4	24_1_4	NA	NA	0	1	4.96297001839	None	None	None	None	1
3.0.1	2019_Mar_09_1640	s	s	10	3	SIC	166	4_1	4	1	2	4	23_2_4	2	3	1	0	0.48153591156	-440.0	359.0	-442.0	349.0	1
3.0.1	2019_Mar_09_1640	s	s	10	3	SIC	167	1_2	1	2	2	2	23_2_2	1	0	1	0	2.10454010963	494.0	-411.0	505.0	-408.0	1
3.0.1	2019_Mar_09_1640	s	s	10	3	SIC	168	4_4	4	4	4	2	23_4_2	0	2	1	0	0.587585926056	-12.0	-373.0	-8.0	-368.0	1
3.0.1	2019_Mar_09_1640	s	s	10	3	SIC	169	ABS	0	0	1	3	24_1_3	NA	NA	0	1	5.22123193741	None	None	None	None	1
3.0.1	2019_Mar_09_1640	s	s	10	3	SIC	170	4_2	4	2	2	3	23_2_3	2	1	1	0	0.439514160156	350.0	98.0	355.0	101.0	1
3.0.1	2019_Mar_09_1640	s	s	10	3	SIC	171	ABS	0	0	3	2	24_3_2	NA	NA	0	1	4.64163398743	None	None	None	None	1
3.0.1	2019_Mar_09_1640	s	s	10	3	SIC	172	ABS	0	0	4	2	24_4_2	NA	NA	0	1	6.79724216461	None	None	None	None	1
3.0.1	2019_Mar_09_1640	s	s	10	3	SIC	173	3_1	3	1	1	3	23_1_3	2	2	1	0	0.69669008255	-530.0	290.0	-531.0	290.0	1
3.0.1	2019_Mar_09_1640	s	s	10	3	SIC	174	2_4	2	4	4	3	23_4_3	2	1	1	0	0.557177066803	-133.0	-384.0	-123.0	-375.0	1
3.0.1	2019_Mar_09_1640	s	s	10	3	SIC	175	3_2	3	2	1	1	23_1_1	2	-1	1	0	0.51686000824	-229.0	-62.0	-224.0	-52.0	1
3.0.1	2019_Mar_09_1640	s	s	10	3	SIC	176	ABS	0	0	4	1	24_4_1	NA	NA	0	1	4.36929702759	None	None	None	None	1
3.0.1	2019_Mar_09_1640	s	s	10	3	SIC	177	ABS	0	0	4	1	24_4_1	NA	NA	0	1	4.06906509399	None	None	None	None	1
3.0.1	2019_Mar_09_1640	s	s	10	3	SIC	178	4_4	4	4	3	3	23_3_3	1	1	1	0	0.44337105751	348.0	-377.0	347.0	-372.0	1
3.0.1	2019_Mar_09_1640	s	s	10	3	SIC	179	2_3	2	3	2	1	23_2_1	0	2	1	0	0.987210988998	186.0	231.0	176.0	231.0	1
3.0.1	2019_Mar_09_1640	s	s	10	3	SIC	180	ABS	0	0	1	4	24_1_4	NA	NA	0	1	4.76719808578	None	None	None	None	1
3.0.1	2019_Mar_09_1640	s	s	10	3	SIC	181	ABS	0	0	2	3	24_2_3	NA	NA	0	1	7.40921592712	None	None	None	None	1
3.0.1	2019_Mar_09_1640	s	s	10	3	SIC	182	ABS	0	0	4	3	24_4_3	NA	NA	0	1	6.36212992668	None	None	None	None	1
3.0.1	2019_Mar_09_1640	s	s	10	3	SIC	183	ABS	0	0	2	2	24_2_2	NA	NA	0	1	5.21513915062	None	None	None	None	1
3.0.1	2019_Mar_09_1640	s	s	10	3	SIC	184	2_3	2	3	4	3	23_4_3	2	0	1	0	0.481583833694	-298.0	-64.0	-308.0	-61.0	1
3.0.1	2019_Mar_09_1640	s	s	10	3	SIC	185	ABS	0	0	2	3	24_2_3	NA	NA	0	1	5.02422118187	None	None	None	None	1
3.0.1	2019_Mar_09_1640	s	s	10	3	SIC	186	2_1	2	1	1	2	23_1_2	-1	1	1	0	7.1322388649	184.0	-340.0	185.0	-341.0	1
3.0.1	2019_Mar_09_1640	s	s	10	3	SIC	187	3_1	3	1	3	4	23_3_4	0	3	1	0	0.45089006424	-357.0	150.0	-357.0	147.0	1
3.0.1	2019_Mar_09_1640	s	s	10	3	SIC	188	ABS	0	0	1	3	24_1_3	NA	NA	0	1	7.73149108887	None	None	None	None	1
3.0.1	2019_Mar_09_1640	s	s	10	3	SIC	189	ABS	0	0	3	3	24_3_3	NA	NA	0	1	4.377368927	None	None	None	None	1
3.0.1	2019_Mar_09_1640	s	s	10	3	SIC	190	4_1	4	1	3	3	23_3_3	1	2	1	0	0.399124860764	304.0	188.0	302.0	183.0	1
3.0.1	2019_Mar_09_1640	s	s	10	3	SIC	191	ABS	0	0	1	1	24_1_1	NA	NA	0	1	3.25191783905	None	None	None	None	1
3.0.1	2019_Mar_09_1640	s	s	10	3	SIC	192	ABS	0	0	1	3	24_1_3	NA	NA	0	1	5.17966294289	None	None	None	None	1
3.0.1	2019_Mar_09_1640	s	s	10	3	SIC	193	ABS	0	0	1	4	24_1_4	NA	NA	0	1	3.93938994408	None	None	None	None	1
3.0.1	2019_Mar_09_1640	s	s	10	3	SIC	194	2_1	2	1	4	2	23_4_2	2	1	1	0	0.39395904541	-70.0	292.0	-72.0	278.0	1
3.0.1	2019_Mar_09_1640	s	s	10	3	SIC	195	4_1	4	1	4	4	23_4_4	0	3	1	0	0.552124977112	129.0	374.0	134.0	369.0	1
3.0.1	2019_Mar_09_1640	s	s	10	3	SIC	196	4_3	4	3	2	2	23_2_2	2	1	1	0	0.410940170288	-38.0	-412.0	-35.0	-411.0	1
3.0.1	2019_Mar_09_1640	s	s	10	3	SIC	197	1_3	1	3	2	4	23_2_4	1	-1	1	0	0.437316894531	107.0	294.0	114.0	293.0	1
3.0.1	2019_Mar_09_1640	s	s	10	3	SIC	198	ABS	0	0	2	3	24_2_3	NA	NA	0	1	7.75512909889	None	None	None	None	1
3.0.1	2019_Mar_09_1640	s	s	10	3	SIC	199	2_1	2	1	2	4	23_2_4	0	3	1	0	0.540699005127	453.0	-410.0	456.0	-409.0	1
3.0.1	2019_Mar_09_1640	s	s	10	3	SIC	200	1_1	1	1	2	1	23_2_1	1	0	1	0	2.02969717979	-539.0	-410.0	-544.0	-406.0	1
3.0.1	2019_Mar_09_1640	s	s	10	3	SIC	201	1_3	1	3	4	1	23_4_1	3	2	1	0	0.428151845932	-371.0	339.0	-362.0	335.0	1
3.0.1	2019_Mar_09_1640	s	s	10	3	SIC	202	ABS	0	0	3	2	24_3_2	NA	NA	0	1	6.47978901863	None	None	None	None	1
3.0.1	2019_Mar_09_1640	s	s	10	3	SIC	203	2_4	2	4	4	1	23_4_1	2	3	1	0	0.366864919662	191.0	-45.0	193.0	-51.0	1
3.0.1	2019_Mar_09_1640	s	s	10	3	SIC	204	ABS	0	0	2	2	24_2_2	NA	NA	0	1	5.54513001442	None	None	None	None	1
3.0.1	2019_Mar_09_1640	s	s	10	3	SIC	205	ABS	0	0	1	2	24_1_2	NA	NA	0	1	5.27313303947	None	None	None	None	1
3.0.1	2019_Mar_09_1640	s	s	10	3	SIC	206	3_3	3	3	2	3	23_2_3	1	0	1	0	0.46989607811	-204.0	-4.0	-191.0	0.0	1
3.0.1	2019_Mar_09_1640	s	s	10	3	SIC	207	ABS	0	0	2	2	24_2_2	NA	NA	0	1	5.47464609146	None	None	None	None	1
3.0.1	2019_Mar_09_1640	s	s	10	3	SIC	208	ABS	0	0	4	1	24_4_1	NA	NA	0	1	2.49560499191	None	None	None	None	1
3.0.1	2019_Mar_09_1640	s	s	10	3	SIC	209	ABS	0	0	1	3	24_1_3	NA	NA	0	1	6.61204004288	None	None	None	None	1
3.0.1	2019_Mar_09_1640	s	s	10	3	SIC	210	ABS	0	0	1	2	24_1_2	NA	NA	0	1	6.93843603134	None	None	None	None	1
3.0.1	2019_Mar_09_1640	s	s	10	3	SIC	211	ABS	0	0	1	4	24_1_4	NA	NA	0	1	3.88052797318	None	None	None	None	1
3.0.1	2019_Mar_09_1640	s	s	10	3	SIC	212	ABS	0	0	4	3	24_4_3	NA	NA	0	1	5.44475007057	None	None	None	None	1
3.0.1	2019_Mar_09_1640	s	s	10	3	SIC	213	ABS	0	0	3	3	24_3_3	NA	NA	0	1	4.939016819	None	None	None	None	1
3.0.1	2019_Mar_09_1640	s	s	10	3	SIC	214	ABS	0	0	4	4	24_4_4	NA	NA	0	1	4.07314109802	None	None	None	None	1
3.0.1	2019_Mar_09_1640	s	s	10	3	SIC	215	ABS	0	0	4	2	24_4_2	NA	NA	0	1	5.75051283836	None	None	None	None	1
3.0.1	2019_Mar_09_1640	s	s	10	3	SIC	216	3_4	3	4	4	1	23_4_1	-1	3	1	0	0.563973903656	295.0	344.0	288.0	351.0	1
3.0.1	2019_Mar_09_1640	s	s	10	3	SIC	217	1_2	1	2	3	2	23_3_2	2	0	1	0	0.470305919647	-353.0	267.0	-361.0	265.0	1
3.0.1	2019_Mar_09_1640	s	s	10	3	SIC	218	4_2	4	2	4	3	23_4_3	0	1	1	0	1.58016395569	351.0	384.0	342.0	380.0	1
3.0.1	2019_Mar_09_1640	s	s	10	3	SIC	219	2_4	2	4	2	1	23_2_1	0	3	1	0	0.427644968033	307.0	400.0	303.0	403.0	1
3.0.1	2019_Mar_09_1640	s	s	10	3	SIC	220	2_1	2	1	1	3	23_1_3	-1	2	1	0	0.521642923355	-55.0	-67.0	-56.0	-73.0	1
3.0.1	2019_Mar_09_1640	s	s	10	3	SIC	221	2_3	2	3	2	2	23_2_2	0	1	1	0	1.63413715363	42.0	7.0	32.0	7.0	1
3.0.1	2019_Mar_09_1640	s	s	10	3	SIC	222	1_2	1	2	3	4	23_3_4	2	2	1	0	0.427630901337	-152.0	397.0	-150.0	398.0	1
3.0.1	2019_Mar_09_1640	s	s	10	3	SIC	223	ABS	0	0	4	1	24_4_1	NA	NA	0	1	3.79817605019	None	None	None	None	1
3.0.1	2019_Mar_09_1640	s	s	10	3	SIC	224	ABS	0	0	2	2	24_2_2	NA	NA	0	1	5.22592377663	None	None	None	None	1
3.0.1	2019_Mar_09_1640	s	s	10	3	SIC	225	1_3	1	3	3	4	23_3_4	2	-1	1	0	0.443049907684	115.0	196.0	114.0	197.0	1
3.0.1	2019_Mar_09_1640	s	s	10	3	SIC	226	2_2	2	2	1	3	23_1_3	-1	1	1	0	1.29815006256	112.0	182.0	106.0	176.0	1
3.0.1	2019_Mar_09_1640	s	s	10	3	SIC	227	4_1	4	1	1	3	23_1_3	3	2	1	0	0.363951921463	-2.0	-143.0	0.0	-135.0	1
3.0.1	2019_Mar_09_1640	s	s	10	3	SIC	228	ABS	0	0	3	3	24_3_3	NA	NA	0	1	4.06064605713	None	None	None	None	1
3.0.1	2019_Mar_09_1640	s	s	10	3	SIC	229	2_4	2	4	4	2	23_4_2	2	2	1	0	0.555027008057	77.0	202.0	80.0	200.0	1
3.0.1	2019_Mar_09_1640	s	s	10	3	SIC	230	ABS	0	0	1	2	24_1_2	NA	NA	0	1	9.45567703247	None	None	None	None	1
3.0.1	2019_Mar_09_1640	s	s	10	3	SIC	231	3_1	3	1	3	3	23_3_3	0	2	1	0	0.699270009995	-280.0	78.0	-288.0	73.0	1
3.0.1	2019_Mar_09_1640	s	s	10	3	SIC	232	1_4	1	4	4	2	23_4_2	3	2	1	0	0.363920927048	71.0	372.0	68.0	381.0	1
3.0.1	2019_Mar_09_1640	s	s	10	3	SIC	233	ABS	0	0	3	3	24_3_3	NA	NA	0	1	4.66179704666	None	None	None	None	1
3.0.1	2019_Mar_09_1640	s	s	10	3	SIC	234	ABS	0	0	3	1	24_3_1	NA	NA	0	1	3.60114884377	None	None	None	None	1
3.0.1	2019_Mar_09_1640	s	s	10	3	SIC	235	ABS	0	0	2	4	24_2_4	NA	NA	0	1	3.61290812492	None	None	None	None	1
3.0.1	2019_Mar_09_1640	s	s	10	3	SIC	236	3_4	3	4	4	2	23_4_2	-1	2	1	0	0.378571987152	60.0	-219.0	61.0	-212.0	1
3.0.1	2019_Mar_09_1640	s	s	10	3	SIC	237	3_1	3	1	2	1	23_2_1	1	0	1	0	0.469771146774	-176.0	-287.0	-172.0	-289.0	1
3.0.1	2019_Mar_09_1640	s	s	10	3	SIC	238	ABS	0	0	3	4	24_3_4	NA	NA	0	1	2.50441503525	None	None	None	None	1
3.0.1	2019_Mar_09_1640	s	s	10	3	SIC	239	ABS	0	0	1	2	24_1_2	NA	NA	0	1	5.90817403793	None	None	None	None	1
3.0.1	2019_Mar_09_1640	s	s	10	3	SIC	240	ABS	0	0	1	4	24_1_4	NA	NA	0	1	3.22654986382	None	None	None	None	1
3.0.1	2019_Mar_09_1640	s	s	10	3	SIC	241	ABS	0	0	3	2	24_3_2	NA	NA	0	1	5.26538991928	None	None	None	None	1
3.0.1	2019_Mar_09_1640	s	s	10	3	SIC	242	ABS	0	0	3	4	24_3_4	NA	NA	0	1	2.82210612297	None	None	None	None	1
3.0.1	2019_Mar_09_1640	s	s	10	3	SIC	243	4_4	4	4	1	3	23_1_3	3	1	1	0	0.434522867203	534.0	150.0	539.0	148.0	1
3.0.1	2019_Mar_09_1640	s	s	10	3	SIC	244	3_2	3	2	2	2	23_2_2	1	0	1	0	0.417641162872	188.0	148.0	194.0	139.0	1
3.0.1	2019_Mar_09_1640	s	s	10	3	SIC	245	3_4	3	4	1	2	23_1_2	2	2	1	0	0.368973970413	129.0	156.0	140.0	158.0	1
3.0.1	2019_Mar_09_1640	s	s	10	3	SIC	246	4_3	4	3	3	2	23_3_2	1	1	1	0	0.34326505661	-351.0	166.0	-358.0	161.0	1
3.0.1	2019_Mar_09_1640	s	s	10	3	SIC	247	ABS	0	0	1	4	24_1_4	NA	NA	0	1	2.68086099625	None	None	None	None	1
3.0.1	2019_Mar_09_1640	s	s	10	3	SIC	248	ABS	0	0	2	1	24_2_1	NA	NA	0	1	4.15555500984	None	None	None	None	1
3.0.1	2019_Mar_09_1640	s	s	10	3	SIC	249	ABS	0	0	2	4	24_2_4	NA	NA	0	1	3.39832782745	None	None	None	None	1
3.0.1	2019_Mar_09_1640	s	s	10	3	SIC	250	ABS	0	0	2	3	24_2_3	NA	NA	0	1	5.42123699188	None	None	None	None	1
3.0.1	2019_Mar_09_1640	s	s	10	3	SIC	251	ABS	0	0	4	4	24_4_4	NA	NA	0	1	3.10432600975	None	None	None	None	1
3.0.1	2019_Mar_09_1640	s	s	10	3	SIC	252	ABS	0	0	1	2	24_1_2	NA	NA	0	1	4.69204115868	None	None	None	None	1
3.0.1	2019_Mar_09_1640	s	s	10	3	SIC	253	ABS	0	0	1	3	24_1_3	NA	NA	0	1	5.05654096603	None	None	None	None	1
3.0.1	2019_Mar_09_1640	s	s	10	3	SIC	254	ABS	0	0	3	4	24_3_4	NA	NA	0	1	3.09096288681	None	None	None	None	1
3.0.1	2019_Mar_09_1640	s	s	10	3	SIC	255	3_2	3	2	1	3	23_1_3	2	1	1	0	0.487920999527	344.0	-264.0	349.0	-262.0	1
3.0.1	2019_Mar_09_1640	s	s	10	3	SIC	256	4_2	4	2	1	1	23_1_1	3	-1	1	0	0.401801109314	429.0	407.0	418.0	411.0	1
3.0.1	2019_Mar_09_1640	s	s	10	3	SIC	257	ABS	0	0	3	1	24_3_1	NA	NA	0	1	2.55434608459	None	None	None	None	1
3.0.1	2019_Mar_09_1640	s	s	10	3	SIC	258	3_2	3	2	2	3	23_2_3	1	1	1	0	0.498193979263	-536.0	80.0	-534.0	73.0	1
3.0.1	2019_Mar_09_1640	s	s	10	3	SIC	259	4_2	4	2	4	1	23_4_1	0	-1	1	0	1.8458609581	-291.0	-181.0	-290.0	-177.0	1
3.0.1	2019_Mar_09_1640	s	s	10	3	SIC	260	ABS	0	0	4	3	24_4_3	NA	NA	0	1	4.3744430542	None	None	None	None	1
3.0.1	2019_Mar_09_1640	s	s	10	3	SIC	261	1_1	1	1	3	1	23_3_1	2	0	1	0	0.387476921082	135.0	-133.0	139.0	-131.0	1
3.0.1	2019_Mar_09_1640	s	s	10	3	SIC	262	ABS	0	0	1	3	24_1_3	NA	NA	0	1	5.37693977356	None	None	None	None	1
3.0.1	2019_Mar_09_1640	s	s	10	3	SIC	263	ABS	0	0	1	3	24_1_3	NA	NA	0	1	5.45648884773	None	None	None	None	1
3.0.1	2019_Mar_09_1640	s	s	10	3	SIC	264	ABS	0	0	4	4	24_4_4	NA	NA	0	1	2.52156209946	None	None	None	None	1
3.0.1	2019_Mar_09_1640	s	s	10	3	SIC	265	2_1	2	1	1	4	23_1_4	-1	3	1	0	0.575593948364	296.0	-368.0	306.0	-369.0	1
3.0.1	2019_Mar_09_1640	s	s	10	3	SIC	266	2_3	2	3	3	2	23_3_2	1	1	1	0	0.669711828232	-270.0	-336.0	-265.0	-342.0	1
3.0.1	2019_Mar_09_1640	s	s	10	3	SIC	267	ABS	0	0	4	1	24_4_1	NA	NA	0	1	4.67422795296	None	None	None	None	1
3.0.1	2019_Mar_09_1640	s	s	10	3	SIC	268	ABS	0	0	4	4	24_4_4	NA	NA	0	1	2.95689415932	None	None	None	None	1
3.0.1	2019_Mar_09_1640	s	s	10	3	SIC	269	4_1	4	1	3	2	23_3_2	1	1	1	0	0.470045089722	-497.0	-301.0	-498.0	-295.0	1
3.0.1	2019_Mar_09_1640	s	s	10	3	SIC	270	ABS	0	0	1	3	24_1_3	NA	NA	0	1	4.93900609016	None	None	None	None	1
3.0.1	2019_Mar_09_1640	s	s	10	3	SIC	271	4_2	4	2	2	1	23_2_1	2	-1	1	0	0.428002119064	402.0	6.0	405.0	3.0	1
3.0.1	2019_Mar_09_1640	s	s	10	3	SIC	272	3_1	3	1	1	1	23_1_1	2	0	1	0	0.493281126022	214.0	-352.0	226.0	-348.0	1
3.0.1	2019_Mar_09_1640	s	s	10	3	SIC	273	4_3	4	3	3	4	23_3_4	1	-1	1	0	0.379617929459	-312.0	-160.0	-314.0	-169.0	1
3.0.1	2019_Mar_09_1640	s	s	10	3	SIC	274	3_3	3	3	4	4	23_4_4	-1	-1	1	0	0.427403926849	188.0	302.0	188.0	303.0	1
3.0.1	2019_Mar_09_1640	s	s	10	3	SIC	275	1_1	1	1	1	4	23_1_4	0	3	1	0	0.516804933548	532.0	367.0	526.0	372.0	1
3.0.1	2019_Mar_09_1640	s	s	10	3	SIC	276	ABS	0	0	1	1	24_1_1	NA	NA	0	1	4.42161607742	None	None	None	None	1
3.0.1	2019_Mar_09_1640	s	s	10	3	SIC	277	ABS	0	0	3	2	24_3_2	NA	NA	0	1	4.7890560627	None	None	None	None	1
3.0.1	2019_Mar_09_1640	s	s	10	3	SIC	278	ABS	0	0	4	3	24_4_3	NA	NA	0	1	4.9427549839	None	None	None	None	1
3.0.1	2019_Mar_09_1640	s	s	10	3	SIC	279	4_4	4	4	2	4	23_2_4	2	0	1	0	0.387537002563	-401.0	244.0	-411.0	246.0	1
3.0.1	2019_Mar_09_1640	s	s	10	3	SIC	280	ABS	0	0	1	1	24_1_1	NA	NA	0	1	7.09009003639	None	None	None	None	1
3.0.1	2019_Mar_09_1640	s	s	10	3	SIC	281	ABS	0	0	2	1	24_2_1	NA	NA	0	1	5.36242699623	None	None	None	None	1
3.0.1	2019_Mar_09_1640	s	s	10	3	SIC	282	ABS	0	0	4	1	24_4_1	NA	NA	0	1	2.48604893684	None	None	None	None	1
3.0.1	2019_Mar_09_1640	s	s	10	3	SIC	283	4_3	4	3	2	3	23_2_3	2	0	1	0	0.613818883896	337.0	-189.0	347.0	-181.0	1
3.0.1	2019_Mar_09_1640	s	s	10	3	SIC	284	4_2	4	2	1	3	23_1_3	3	1	1	0	0.378587007523	-295.0	32.0	-293.0	32.0	1
3.0.1	2019_Mar_09_1640	s	s	10	3	SIC	285	ABS	0	0	2	1	24_2_1	NA	NA	0	1	4.60443091393	None	None	None	None	1
3.0.1	2019_Mar_09_1640	s	s	10	3	SIC	286	3_3	3	3	4	1	23_4_1	-1	2	1	0	0.469732999802	59.0	-365.0	58.0	-364.0	1
3.0.1	2019_Mar_09_1640	s	s	10	3	SIC	287	1_4	1	4	1	2	23_1_2	0	2	1	0	0.486679077148	301.0	340.0	292.0	339.0	1
3.0.1	2019_Mar_09_1640	s	s	10	3	SIC	288	3_1	3	1	4	2	23_4_2	-1	1	1	0	0.368746995926	-3.0	234.0	-4.0	234.0	1
3.0.1	2019_Mar_09_1640	s	s	10	3	SIC	289	2_1	2	1	4	1	23_4_1	2	0	1	0	0.375673055649	163.0	-314.0	159.0	-327.0	1
3.0.1	2019_Mar_09_1640	s	s	10	3	SIC	290	1_2	1	2	2	3	23_2_3	1	1	1	0	3.38660597801	-339.0	-194.0	-334.0	-201.0	1
3.0.1	2019_Mar_09_1640	s	s	10	3	SIC	291	ABS	0	0	1	2	24_1_2	NA	NA	0	1	5.57410287857	None	None	None	None	1
3.0.1	2019_Mar_09_1640	s	s	10	3	SIC	292	2_2	2	2	4	4	23_4_4	2	2	1	0	0.357224941254	-190.0	139.0	-185.0	135.0	1
3.0.1	2019_Mar_09_1640	s	s	10	3	SIC	293	1_3	1	3	2	3	23_2_3	1	0	1	0	5.02422499657	478.0	27.0	479.0	33.0	1
3.0.1	2019_Mar_09_1640	s	s	10	3	SIC	294	3_3	3	3	3	1	23_3_1	0	2	1	0	0.907840967178	318.0	218.0	322.0	212.0	1
3.0.1	2019_Mar_09_1640	s	s	10	3	SIC	295	ABS	0	0	2	1	24_2_1	NA	NA	0	1	4.79794812202	None	None	None	None	1
3.0.1	2019_Mar_09_1640	s	s	10	3	SIC	296	ABS	0	0	4	2	24_4_2	NA	NA	0	1	5.91513109207	None	None	None	None	1
3.0.1	2019_Mar_09_1640	s	s	10	3	SIC	297	1_4	1	4	2	4	23_2_4	1	0	1	0	2.63378691673	406.0	-369.0	408.0	-368.0	1
3.0.1	2019_Mar_09_1640	s	s	10	3	SIC	298	1_3	1	3	1	1	23_1_1	0	2	1	0	0.687669038773	19.0	239.0	19.0	236.0	1
3.0.1	2019_Mar_09_1640	s	s	10	3	SIC	299	2_2	2	2	1	1	23_1_1	-1	-1	1	0	0.839504957199	-105.0	-224.0	-103.0	-240.0	1
3.0.1	2019_Mar_09_1640	s	s	10	3	SIC	300	2_2	2	2	3	3	23_3_3	1	1	1	0	0.450819969177	-8.0	-243.0	6.0	-234.0	1
3.0.1	2019_Mar_09_1640	s	s	10	3	SIC	301	4_1	4	1	2	2	23_2_2	2	1	1	0	0.380817890167	174.0	-248.0	180.0	-247.0	1
3.0.1	2019_Mar_09_1640	s	s	10	3	SIC	302	4_3	4	3	4	4	23_4_4	0	-1	1	0	0.751996040344	-477.0	91.0	-467.0	89.0	1
3.0.1	2019_Mar_09_1640	s	s	10	3	SIC	303	ABS	0	0	1	1	24_1_1	NA	NA	0	1	6.56856584549	None	None	None	None	1
3.0.1	2019_Mar_09_1640	s	s	10	3	SIC	304	3_3	3	3	3	4	23_3_4	0	-1	1	0	0.552227973938	213.0	-80.0	208.0	-87.0	1
3.0.1	2019_Mar_09_1640	s	s	10	3	SIC	305	ABS	0	0	2	4	24_2_4	NA	NA	0	1	4.63917994499	None	None	None	None	1
3.0.1	2019_Mar_09_1640	s	s	10	3	SIC	306	4_2	4	2	3	2	23_3_2	1	0	1	0	0.473125934601	347.0	406.0	348.0	398.0	1
3.0.1	2019_Mar_09_1640	s	s	10	3	SIC	307	4_4	4	4	1	2	23_1_2	3	2	1	0	0.47021985054	306.0	137.0	316.0	135.0	1
3.0.1	2019_Mar_09_1640	s	s	10	3	SIC	308	1_3	1	3	3	1	23_3_1	2	2	1	0	0.48490190506	-6.0	-404.0	4.0	-403.0	1
3.0.1	2019_Mar_09_1640	s	s	10	3	SIC	309	2_1	2	1	4	3	23_4_3	2	2	1	0	0.437438964844	-396.0	-398.0	-403.0	-402.0	1
3.0.1	2019_Mar_09_1640	s	s	10	3	SIC	310	ABS	0	0	4	2	24_4_2	NA	NA	0	1	6.0827331543	None	None	None	None	1
3.0.1	2019_Mar_09_1640	s	s	10	3	SIC	311	ABS	0	0	4	4	24_4_4	NA	NA	0	1	4.42440295219	None	None	None	None	1
3.0.1	2019_Mar_09_1640	s	s	10	3	SIC	312	ABS	0	0	1	4	24_1_4	NA	NA	0	1	6.1857380867	None	None	None	None	1
3.0.1	2019_Mar_09_1640	s	s	10	3	SIC	313	2_3	2	3	4	1	23_4_1	2	2	1	0	0.462823152542	22.0	347.0	20.0	354.0	1
3.0.1	2019_Mar_09_1640	s	s	10	3	SIC	314	4_1	4	1	2	1	23_2_1	2	0	1	0	0.387474060059	-145.0	265.0	-136.0	275.0	1
3.0.1	2019_Mar_09_1640	s	s	10	3	SIC	315	3_3	3	3	2	1	23_2_1	1	2	1	0	0.439583778381	244.0	-216.0	241.0	-216.0	1
3.0.1	2019_Mar_09_1640	s	s	10	3	SIC	316	3_2	3	2	3	3	23_3_3	0	1	1	0	1.20678281784	196.0	-68.0	198.0	-63.0	1
3.0.1	2019_Mar_09_1640	s	s	10	3	SIC	317	ABS	0	0	1	1	24_1_1	NA	NA	0	1	5.83711695671	None	None	None	None	1
3.0.1	2019_Mar_09_1640	s	s	10	3	SIC	318	3_2	3	2	4	1	23_4_1	-1	-1	1	0	0.469789028168	154.0	354.0	160.0	355.0	1
3.0.1	2019_Mar_09_1640	s	s	10	3	SIC	319	ABS	0	0	3	4	24_3_4	NA	NA	0	1	4.19804096222	None	None	None	None	1
3.0.1	2019_Mar_09_1640	s	s	10	3	SIC	320	3_2	3	2	2	1	23_2_1	1	-1	1	0	0.516913890839	228.0	202.0	229.0	203.0	1
3.0.1	2019_Mar_09_1640	s	s	10	3	SIC	321	1_1	1	1	3	2	23_3_2	2	1	1	0	0.493275165558	-528.0	79.0	-531.0	87.0	1
3.0.1	2019_Mar_09_1640	s	s	10	3	SIC	322	3_4	3	4	4	3	23_4_3	-1	1	1	0	0.42279291153	-242.0	150.0	-236.0	155.0	1
3.0.1	2019_Mar_09_1640	s	s	10	3	SIC	323	ABS	0	0	4	2	24_4_2	NA	NA	0	1	6.03099703789	None	None	None	None	1
3.0.1	2019_Mar_09_1640	s	s	10	3	SIC	324	3_3	3	3	4	2	23_4_2	-1	1	1	0	0.422803163528	173.0	248.0	180.0	253.0	1
3.0.1	2019_Mar_09_1640	s	s	10	3	SIC	325	ABS	0	0	2	4	24_2_4	NA	NA	0	1	5.76226902008	None	None	None	None	1
3.0.1	2019_Mar_09_1640	s	s	10	3	SIC	326	3_4	3	4	2	1	23_2_1	1	3	1	0	0.439305067062	66.0	-223.0	75.0	-221.0	1
3.0.1	2019_Mar_09_1640	s	s	10	3	SIC	327	ABS	0	0	2	3	24_2_3	NA	NA	0	1	7.93031001091	None	None	None	None	1
3.0.1	2019_Mar_09_1640	s	s	10	3	SIC	328	2_3	2	3	4	4	23_4_4	2	-1	1	0	0.570291996002	28.0	374.0	25.0	370.0	1
3.0.1	2019_Mar_09_1640	s	s	10	3	SIC	329	ABS	0	0	3	3	24_3_3	NA	NA	0	1	4.83346486092	None	None	None	None	1
3.0.1	2019_Mar_09_1640	s	s	10	3	SIC	330	ABS	0	0	4	3	24_4_3	NA	NA	0	1	5.93879699707	None	None	None	None	1
3.0.1	2019_Mar_09_1640	s	s	10	3	SIC	331	1_2	1	2	2	4	23_2_4	1	2	1	0	0.966664791107	-272.0	-219.0	-270.0	-222.0	1
3.0.1	2019_Mar_09_1640	s	s	10	3	SIC	332	3_3	3	3	1	4	23_1_4	2	-1	1	0	0.427557945251	-400.0	-45.0	-397.0	-45.0	1
3.0.1	2019_Mar_09_1640	s	s	10	3	SIC	333	3_2	3	2	1	4	23_1_4	2	2	1	0	0.410983085632	293.0	143.0	295.0	141.0	1
3.0.1	2019_Mar_09_1640	s	s	10	3	SIC	334	ABS	0	0	3	1	24_3_1	NA	NA	0	1	5.60059094429	None	None	None	None	1
3.0.1	2019_Mar_09_1640	s	s	10	3	SIC	335	ABS	0	0	2	1	24_2_1	NA	NA	0	1	7.46756696701	None	None	None	None	1
3.0.1	2019_Mar_09_1640	s	s	10	3	SIC	336	ABS	0	0	3	2	24_3_2	NA	NA	0	1	4.98604989052	None	None	None	None	1
3.0.1	2019_Mar_09_1640	s	s	10	3	SIC	337	3_4	3	4	2	3	23_2_3	1	1	1	0	0.629127025604	-44.0	382.0	-41.0	385.0	1
3.0.1	2019_Mar_09_1640	s	s	10	3	SIC	338	2_3	2	3	1	4	23_1_4	-1	-1	1	0	0.704967975616	421.0	45.0	429.0	43.0	1
3.0.1	2019_Mar_09_1640	s	s	10	3	SIC	339	4_3	4	3	4	2	23_4_2	0	1	0	1	5.0918200016	-530.0	142.0	None	None	0
3.0.1	2019_Mar_09_1640	s	s	10	3	SIC	340	3_1	3	1	2	3	23_2_3	1	2	1	0	0.457999944687	-219.0	45.0	-215.0	46.0	1
3.0.1	2019_Mar_09_1640	s	s	10	3	SIC	341	1_2	1	2	4	2	23_4_2	3	0	1	0	0.437434196472	197.0	-279.0	207.0	-274.0	1
3.0.1	2019_Mar_09_1640	s	s	10	3	SIC	342	ABS	0	0	3	4	24_3_4	NA	NA	0	1	9.40062379837	None	None	None	None	1
3.0.1	2019_Mar_09_1640	s	s	10	3	SIC	343	ABS	0	0	1	2	24_1_2	NA	NA	0	1	7.46765494347	None	None	None	None	1
3.0.1	2019_Mar_09_1640	s	s	10	3	SIC	344	1_4	1	4	2	1	23_2_1	1	3	1	0	0.745262861252	-472.0	179.0	-484.0	180.0	1
3.0.1	2019_Mar_09_1640	s	s	10	3	SIC	345	2_2	2	2	3	2	23_3_2	1	0	1	0	0.45800280571	224.0	202.0	225.0	200.0	1
3.0.1	2019_Mar_09_1640	s	s	10	3	SIC	346	3_1	3	1	1	4	23_1_4	2	3	1	0	0.437283992767	259.0	-159.0	245.0	-149.0	1
3.0.1	2019_Mar_09_1640	s	s	10	3	SIC	347	ABS	0	0	1	4	24_1_4	NA	NA	0	1	4.86842513084	None	None	None	None	1
3.0.1	2019_Mar_09_1640	s	s	10	3	SIC	348	1_2	1	2	4	3	23_4_3	3	1	1	0	0.378653049469	507.0	366.0	514.0	369.0	1
3.0.1	2019_Mar_09_1640	s	s	10	3	SIC	349	ABS	0	0	4	3	24_4_3	NA	NA	0	1	5.13358187675	None	None	None	None	1
3.0.1	2019_Mar_09_1640	s	s	10	3	SIC	350	1_1	1	1	3	4	23_3_4	2	3	1	0	0.364012002945	511.0	19.0	507.0	24.0	1
3.0.1	2019_Mar_09_1640	s	s	10	3	SIC	351	ABS	0	0	3	3	24_3_3	NA	NA	0	1	6.12023305893	None	None	None	None	1
3.0.1	2019_Mar_09_1640	s	s	10	3	SIC	352	1_1	1	1	3	3	23_3_3	2	2	1	0	0.404262065887	221.0	61.0	225.0	60.0	1
3.0.1	2019_Mar_09_1640	s	s	10	3	SIC	353	3_4	3	4	2	4	23_2_4	1	0	1	0	0.48153591156	-298.0	61.0	-300.0	70.0	1
3.0.1	2019_Mar_09_1640	s	s	10	3	SIC	354	4_3	4	3	1	1	23_1_1	3	2	1	0	0.356671094894	-419.0	-383.0	-418.0	-374.0	1
3.0.1	2019_Mar_09_1640	s	s	10	3	SIC	355	ABS	0	0	4	1	24_4_1	NA	NA	0	1	4.82690000534	None	None	None	None	1
3.0.1	2019_Mar_09_1640	s	s	10	3	SIC	356	2_1	2	1	4	4	23_4_4	2	3	1	0	0.363969087601	-26.0	228.0	-28.0	235.0	1
3.0.1	2019_Mar_09_1640	s	s	10	3	SIC	357	3_1	3	1	4	3	23_4_3	-1	2	1	0	0.352177143097	-191.0	-158.0	-189.0	-150.0	1
3.0.1	2019_Mar_09_1640	s	s	10	3	SIC	358	ABS	0	0	3	3	24_3_3	NA	NA	0	1	7.04415297508	None	None	None	None	1
3.0.1	2019_Mar_09_1640	s	s	10	3	SIC	359	3_4	3	4	1	3	23_1_3	2	1	1	0	0.486326932907	-23.0	347.0	-15.0	343.0	1
3.0.1	2019_Mar_09_1640	s	s	10	3	SIC	360	1_2	1	2	1	3	23_1_3	0	1	1	0	2.95137405396	408.0	-226.0	407.0	-218.0	1
3.0.1	2019_Mar_09_1640	s	s	10	3	SIC	361	4_1	4	1	4	3	23_4_3	0	2	1	0	5.77885580063	-483.0	375.0	-475.0	378.0	1
3.0.1	2019_Mar_09_1640	s	s	10	3	SIC	362	4_4	4	4	2	2	23_2_2	2	2	1	0	0.451750993729	-60.0	107.0	-48.0	109.0	1
3.0.1	2019_Mar_09_1640	s	s	10	3	SIC	363	2_2	2	2	2	3	23_2_3	0	1	1	0	2.17513298988	156.0	174.0	151.0	169.0	1
3.0.1	2019_Mar_09_1640	s	s	10	3	SIC	364	ABS	0	0	1	4	24_1_4	NA	NA	0	1	4.96540999413	None	None	None	None	1
3.0.1	2019_Mar_09_1640	s	s	10	3	SIC	365	ABS	0	0	2	2	24_2_2	NA	NA	0	1	5.59762787819	None	None	None	None	1
3.0.1	2019_Mar_09_1640	s	s	10	3	SIC	366	ABS	0	0	4	2	24_4_2	NA	NA	0	1	6.03871703148	None	None	None	None	1
3.0.1	2019_Mar_09_1640	s	s	10	3	SIC	367	ABS	0	0	2	4	24_2_4	NA	NA	0	1	5.4564409256	None	None	None	None	1
3.0.1	2019_Mar_09_1640	s	s	10	3	SIC	368	ABS	0	0	3	2	24_3_2	NA	NA	0	1	6.87953996658	None	None	None	None	1
3.0.1	2019_Mar_09_1640	s	s	10	3	SIC	369	ABS	0	0	1	3	24_1_3	NA	NA	0	1	5.9386510849	None	None	None	None	1
3.0.1	2019_Mar_09_1640	s	s	10	3	SIC	370	1_2	1	2	4	4	23_4_4	3	2	1	0	0.437486886978	-71.0	279.0	-75.0	274.0	1
3.0.1	2019_Mar_09_1640	s	s	10	3	SIC	371	1_3	1	3	2	1	23_2_1	1	2	1	0	0.637102842331	341.0	363.0	346.0	363.0	1
3.0.1	2019_Mar_09_1640	s	s	10	3	SIC	372	ABS	0	0	2	3	24_2_3	NA	NA	0	1	5.32019305229	None	None	None	None	1
3.0.1	2019_Mar_09_1640	s	s	10	3	SIC	373	ABS	0	0	3	2	24_3_2	NA	NA	0	1	6.12731981277	None	None	None	None	1
3.0.1	2019_Mar_09_1640	s	s	10	3	SIC	374	ABS	0	0	4	1	24_4_1	NA	NA	0	1	3.2689511776	None	None	None	None	1
3.0.1	2019_Mar_09_1640	s	s	10	3	SIC	375	ABS	0	0	3	1	24_3_1	NA	NA	0	1	3.93219304085	None	None	None	None	1
3.0.1	2019_Mar_09_1640	s	s	10	3	SIC	376	ABS	0	0	4	4	24_4_4	NA	NA	0	1	3.76290583611	None	None	None	None	1
3.0.1	2019_Mar_09_1640	s	s	10	3	SIC	377	ABS	0	0	1	1	24_1_1	NA	NA	0	1	4.42673206329	None	None	None	None	1
3.0.1	2019_Mar_09_1640	s	s	10	3	SIC	378	2_4	2	4	3	1	23_3_1	1	3	1	0	0.496271133423	38.0	409.0	40.0	409.0	1
3.0.1	2019_Mar_09_1640	s	s	10	3	SIC	379	ABS	0	0	3	3	24_3_3	NA	NA	0	1	5.72733688354	None	None	None	None	1
3.0.1	2019_Mar_09_1640	s	s	10	3	SIC	380	4_2	4	2	1	4	23_1_4	3	2	1	0	0.443809986115	-78.0	84.0	-84.0	79.0	1
3.0.1	2019_Mar_09_1640	s	s	10	3	SIC	381	ABS	0	0	1	2	24_1_2	NA	NA	0	1	6.97014284134	None	None	None	None	1
3.0.1	2019_Mar_09_1640	s	s	10	3	SIC	382	ABS	0	0	1	2	24_1_2	NA	NA	0	1	5.91516494751	None	None	None	None	1
3.0.1	2019_Mar_09_1640	s	s	10	3	SIC	383	ABS	0	0	3	4	24_3_4	NA	NA	0	1	4.56265306473	None	None	None	None	1
3.0.1	2019_Mar_09_1640	s	s	10	3	SIC	384	1_4	1	4	1	3	23_1_3	0	1	1	0	0.787379026413	-479.0	397.0	-476.0	396.0	1
3.0.1	2019_Mar_09_1640	s	s	10	3	SIC	385	1_4	1	4	3	2	23_3_2	2	2	1	0	0.458066940308	269.0	110.0	263.0	109.0	1
3.0.1	2019_Mar_09_1640	s	s	10	3	SIC	386	ABS	0	0	4	4	24_4_4	NA	NA	0	1	3.1799249649	None	None	None	None	1
3.0.1	2019_Mar_09_1640	s	s	10	3	SIC	387	1_3	1	3	1	2	23_1_2	0	1	1	0	4.24514913559	-165.0	7.0	-167.0	-1.0	1
3.0.1	2019_Mar_09_1640	s	s	10	3	SIC	388	2_4	2	4	2	2	23_2_2	0	2	1	0	0.662410020828	303.0	352.0	305.0	351.0	1
3.0.1	2019_Mar_09_1640	s	s	10	3	SIC	389	ABS	0	0	2	4	24_2_4	NA	NA	0	1	4.21909403801	None	None	None	None	1
3.0.1	2019_Mar_09_1640	s	s	10	3	SIC	390	2_3	2	3	1	3	23_1_3	-1	0	0	1	4.59797716141	307.0	82.0	None	None	0
3.0.1	2019_Mar_09_1640	s	s	10	3	SIC	391	3_4	3	4	4	4	23_4_4	-1	0	1	0	0.393415927887	-369.0	194.0	-374.0	185.0	1
3.0.1	2019_Mar_09_1640	s	s	10	3	SIC	392	4_3	4	3	3	3	23_3_3	1	0	1	0	0.599190950394	129.0	135.0	124.0	135.0	1
3.0.1	2019_Mar_09_1640	s	s	10	3	SIC	393	ABS	0	0	2	1	24_2_1	NA	NA	0	1	6.9551680088	None	None	None	None	1
3.0.1	2019_Mar_09_1640	s	s	10	3	SIC	394	ABS	0	0	1	3	24_1_3	NA	NA	0	1	5.67298698425	None	None	None	None	1
3.0.1	2019_Mar_09_1640	s	s	10	3	SIC	395	ABS	0	0	3	1	24_3_1	NA	NA	0	1	2.83885288239	None	None	None	None	1
3.0.1	2019_Mar_09_1640	s	s	10	3	SIC	396	1_2	1	2	3	1	23_3_1	2	-1	1	0	3.73052096367	-529.0	390.0	-522.0	388.0	1
3.0.1	2019_Mar_09_1640	s	s	10	3	SIC	397	3_2	3	2	2	4	23_2_4	1	2	1	0	0.563795089722	-142.0	-333.0	-142.0	-333.0	1
3.0.1	2019_Mar_09_1640	s	s	10	3	SIC	398	ABS	0	0	2	4	24_2_4	NA	NA	0	1	3.28723216057	None	None	None	None	1
3.0.1	2019_Mar_09_1640	s	s	10	3	SIC	399	ABS	0	0	3	4	24_3_4	NA	NA	0	1	3.58649301529	None	None	None	None	1
3.0.1	2019_Mar_09_1640	s	s	10	3	SIC	400	ABS	0	0	1	1	24_1_1	NA	NA	0	1	6.14650011063	None	None	None	None	1
3.0.1	2019_Mar_09_1640	s	s	10	3	SIC	401	ABS	0	0	2	3	24_2_3	NA	NA	0	1	5.16655015945	None	None	None	None	1
3.0.1	2019_Mar_09_1640	s	s	10	3	SIC	402	3_1	3	1	2	2	23_2_2	1	1	1	0	0.496614933014	-174.0	115.0	-172.0	114.0	1
3.0.1	2019_Mar_09_1640	s	s	10	3	SIC	403	2_4	2	4	1	1	23_1_1	-1	3	1	0	0.528563022614	-527.0	-9.0	-527.0	-5.0	1
3.0.1	2019_Mar_09_1640	s	s	10	3	SIC	404	ABS	0	0	2	3	24_2_3	NA	NA	0	1	4.44965696335	None	None	None	None	1
3.0.1	2019_Mar_09_1640	s	s	10	3	SIC	405	4_3	4	3	2	4	23_2_4	2	-1	1	0	0.45170378685	292.0	-116.0	284.0	-113.0	1
3.0.1	2019_Mar_09_1640	s	s	10	3	SIC	406	ABS	0	0	1	4	24_1_4	NA	NA	0	1	3.59137701988	None	None	None	None	1
3.0.1	2019_Mar_09_1640	s	s	10	3	SIC	407	4_1	4	1	4	2	23_4_2	0	1	0	1	6.19744801521	-519.0	101.0	None	None	0
3.0.1	2019_Mar_09_1640	s	s	10	3	SIC	408	ABS	0	0	1	2	24_1_2	NA	NA	0	1	7.4088280201	None	None	None	None	1
3.0.1	2019_Mar_09_1640	s	s	10	3	SIC	409	3_2	3	2	3	1	23_3_1	0	-1	1	0	1.5602080822	154.0	-357.0	154.0	-356.0	1
3.0.1	2019_Mar_09_1640	s	s	10	3	SIC	410	4_1	4	1	1	1	23_1_1	3	0	1	0	0.387832164764	112.0	-21.0	108.0	-12.0	1
3.0.1	2019_Mar_09_1640	s	s	10	3	SIC	411	ABS	0	0	2	2	24_2_2	NA	NA	0	1	5.79085421562	None	None	None	None	1
3.0.1	2019_Mar_09_1640	s	s	10	3	SIC	412	ABS	0	0	2	1	24_2_1	NA	NA	0	1	4.25041818619	None	None	None	None	1
3.0.1	2019_Mar_09_1640	s	s	10	3	SIC	413	1_4	1	4	4	4	23_4_4	3	0	1	0	1.17544603348	308.0	51.0	307.0	49.0	1
3.0.1	2019_Mar_09_1640	s	s	10	3	SIC	414	3_1	3	1	2	4	23_2_4	1	3	1	0	0.559817075729	108.0	406.0	108.0	409.0	1
3.0.1	2019_Mar_09_1640	s	s	10	3	SIC	415	1_4	1	4	4	3	23_4_3	3	1	1	0	0.34040594101	155.0	40.0	161.0	40.0	1
3.0.1	2019_Mar_09_1640	s	s	10	3	SIC	416	1_2	1	2	3	3	23_3_3	2	1	1	0	0.390134096146	395.0	96.0	405.0	103.0	1
3.0.1	2019_Mar_09_1640	s	s	10	3	SIC	417	ABS	0	0	3	3	24_3_3	NA	NA	0	1	7.10305809975	None	None	None	None	1
3.0.1	2019_Mar_09_1640	s	s	10	3	SIC	418	2_1	2	1	3	4	23_3_4	1	3	1	0	0.591584920883	8.0	-107.0	15.0	-106.0	1
3.0.1	2019_Mar_09_1640	s	s	10	3	SIC	419	ABS	0	0	1	1	24_1_1	NA	NA	0	1	5.04982686043	None	None	None	None	1
3.0.1	2019_Mar_09_1640	s	s	10	3	SIC	420	2_2	2	2	4	1	23_4_1	2	-1	1	0	0.399137020111	-29.0	168.0	-39.0	172.0	1
3.0.1	2019_Mar_09_1640	s	s	10	3	SIC	421	4_4	4	4	3	2	23_3_2	1	2	1	0	0.791203022003	175.0	-59.0	171.0	-58.0	1
3.0.1	2019_Mar_09_1640	s	s	10	3	SIC	422	ABS	0	0	4	1	24_4_1	NA	NA	0	1	2.0895960331	None	None	None	None	1
3.0.1	2019_Mar_09_1640	s	s	10	3	SIC	423	ABS	0	0	2	2	24_2_2	NA	NA	0	1	4.90369987488	None	None	None	None	1
3.0.1	2019_Mar_09_1640	s	s	10	3	SIC	424	ABS	0	0	2	1	24_2_1	NA	NA	0	1	4.58624219894	None	None	None	None	1
3.0.1	2019_Mar_09_1640	s	s	10	3	SIC	425	2_2	2	2	3	4	23_3_4	1	2	1	0	0.510749101639	-313.0	-85.0	-299.0	-78.0	1
3.0.1	2019_Mar_09_1640	s	s	10	3	SIC	426	2_3	2	3	3	4	23_3_4	1	-1	1	0	0.452200174332	-37.0	-348.0	-45.0	-347.0	1
3.0.1	2019_Mar_09_1640	s	s	10	3	SIC	427	4_4	4	4	2	3	23_2_3	2	1	1	0	0.521856069565	534.0	134.0	537.0	137.0	1
3.0.1	2019_Mar_09_1640	s	s	10	3	SIC	428	1_1	1	1	2	3	23_2_3	1	2	1	0	4.20103907585	-495.0	131.0	-497.0	131.0	1
3.0.1	2019_Mar_09_1640	s	s	10	3	SIC	429	2_3	2	3	4	2	23_4_2	2	1	1	0	0.352123022079	201.0	-22.0	213.0	-18.0	1
3.0.1	2019_Mar_09_1640	s	s	10	3	SIC	430	ABS	0	0	2	3	24_2_3	NA	NA	0	1	6.63808488846	None	None	None	None	1
3.0.1	2019_Mar_09_1640	s	s	10	3	SIC	431	ABS	0	0	1	1	24_1_1	NA	NA	0	1	3.3630490303	None	None	None	None	1
3.0.1	2019_Mar_09_1640	s	s	10	3	SIC	432	ABS	0	0	4	4	24_4_4	NA	NA	0	1	2.41633820534	None	None	None	None	1
3.0.1	2019_Mar_09_1640	s	s	10	3	SIC	433	ABS	0	0	1	4	24_1_4	NA	NA	0	1	2.67744207382	None	None	None	None	1
3.0.1	2019_Mar_09_1640	s	s	10	3	SIC	434	2_3	2	3	3	3	23_3_3	1	0	1	0	0.463106870651	-128.0	-100.0	-120.0	-90.0	1
3.0.1	2019_Mar_09_1640	s	s	10	3	SIC	435	ABS	0	0	4	2	24_4_2	NA	NA	0	1	4.11612915993	None	None	None	None	1
3.0.1	2019_Mar_09_1640	s	s	10	3	SIC	436	ABS	0	0	3	3	24_3_3	NA	NA	0	1	6.23917198181	None	None	None	None	1
3.0.1	2019_Mar_09_1640	s	s	10	3	SIC	437	ABS	0	0	3	4	24_3_4	NA	NA	0	1	5.93867588043	None	None	None	None	1
3.0.1	2019_Mar_09_1640	s	s	10	3	SIC	438	ABS	0	0	2	2	24_2_2	NA	NA	0	1	4.93213796616	None	None	None	None	1
3.0.1	2019_Mar_09_1640	s	s	10	3	SIC	439	4_4	4	4	1	4	23_1_4	3	0	1	0	0.387481927872	350.0	-259.0	361.0	-256.0	1
3.0.1	2019_Mar_09_1640	s	s	10	3	SIC	440	ABS	0	0	1	4	24_1_4	NA	NA	0	1	2.76315689087	None	None	None	None	1
3.0.1	2019_Mar_09_1640	s	s	10	3	SIC	441	4_1	4	1	2	3	23_2_3	2	2	1	0	0.422737121582	-463.0	168.0	-478.0	174.0	1
3.0.1	2019_Mar_09_1640	s	s	10	3	SIC	442	4_2	4	2	4	4	23_4_4	0	2	1	0	0.450577974319	-59.0	323.0	-56.0	312.0	1
3.0.1	2019_Mar_09_1640	s	s	10	3	SIC	443	4_3	4	3	2	1	23_2_1	2	2	1	0	0.340399026871	337.0	-383.0	345.0	-381.0	1
3.0.1	2019_Mar_09_1640	s	s	10	3	SIC	444	3_4	3	4	3	2	23_3_2	0	2	1	0	0.486439943314	-522.0	-60.0	-519.0	-51.0	1
3.0.1	2019_Mar_09_1640	s	s	10	3	SIC	445	ABS	0	0	2	1	24_2_1	NA	NA	0	1	5.64862108231	None	None	None	None	1
3.0.1	2019_Mar_09_1640	s	s	10	3	SIC	446	1_3	1	3	4	3	23_4_3	3	0	1	0	0.425621986389	463.0	-22.0	466.0	-15.0	1
3.0.1	2019_Mar_09_1640	s	s	10	3	SIC	447	ABS	0	0	3	1	24_3_1	NA	NA	0	1	3.65713715553	None	None	None	None	1
3.0.1	2019_Mar_09_1640	s	s	10	3	SIC	448	ABS	0	0	4	4	24_4_4	NA	NA	0	1	1.28130483627	None	None	None	None	1
3.0.1	2019_Mar_09_1640	s	s	10	3	SIC	449	4_1	4	1	3	1	23_3_1	1	0	1	0	0.393399953842	249.0	-297.0	252.0	-292.0	1
3.0.1	2019_Mar_09_1640	s	s	10	3	SIC	450	2_4	2	4	3	3	23_3_3	1	1	1	0	0.442683935165	125.0	-124.0	132.0	-121.0	1
3.0.1	2019_Mar_09_1640	s	s	10	3	SIC	451	1_1	1	1	2	2	23_2_2	1	1	1	0	1.16657304764	198.0	-22.0	195.0	-22.0	1
3.0.1	2019_Mar_09_1640	s	s	10	3	SIC	452	ABS	0	0	3	3	24_3_3	NA	NA	0	1	4.40972304344	None	None	None	None	1
3.0.1	2019_Mar_09_1640	s	s	10	3	SIC	453	ABS	0	0	4	1	24_4_1	NA	NA	0	1	1.48128008842	None	None	None	None	1
3.0.1	2019_Mar_09_1640	s	s	10	3	SIC	454	3_1	3	1	1	2	23_1_2	2	1	1	0	0.487890958786	316.0	-289.0	308.0	-291.0	1
3.0.1	2019_Mar_09_1640	s	s	10	3	SIC	455	ABS	0	0	3	2	24_3_2	NA	NA	0	1	4.62705492973	None	None	None	None	1
3.0.1	2019_Mar_09_1640	s	s	10	3	SIC	456	ABS	0	0	1	1	24_1_1	NA	NA	0	1	3.73049592972	None	None	None	None	1
3.0.1	2019_Mar_09_1640	s	s	10	3	SIC	457	3_3	3	3	2	4	23_2_4	1	-1	1	0	0.575607061386	69.0	-312.0	64.0	-308.0	1
3.0.1	2019_Mar_09_1640	s	s	10	3	SIC	458	ABS	0	0	2	4	24_2_4	NA	NA	0	1	2.78022909164	None	None	None	None	1
3.0.1	2019_Mar_09_1640	s	s	10	3	SIC	459	1_2	1	2	1	1	23_1_1	0	-1	1	0	3.1395509243	-425.0	335.0	-417.0	340.0	1
3.0.1	2019_Mar_09_1640	s	s	10	3	SIC	460	1_2	1	2	2	1	23_2_1	1	-1	1	0	1.4148349762	417.0	-204.0	412.0	-208.0	1
3.0.1	2019_Mar_09_1640	s	s	10	3	SIC	461	ABS	0	0	1	3	24_1_3	NA	NA	0	1	5.42127990723	None	None	None	None	1
3.0.1	2019_Mar_09_1640	s	s	10	3	SIC	462	3_3	3	3	1	2	23_1_2	2	1	1	0	0.505061864853	393.0	-291.0	393.0	-287.0	1
3.0.1	2019_Mar_09_1640	s	s	10	3	SIC	463	4_4	4	4	4	1	23_4_1	0	3	1	0	0.613764047623	-298.0	-383.0	-293.0	-384.0	1
3.0.1	2019_Mar_09_1640	s	s	10	3	SIC	464	ABS	0	0	1	1	24_1_1	NA	NA	0	1	3.84810996056	None	None	None	None	1
3.0.1	2019_Mar_09_1640	s	s	10	3	SIC	465	ABS	0	0	4	4	24_4_4	NA	NA	0	1	2.81022405624	None	None	None	None	1
3.0.1	2019_Mar_09_1640	s	s	10	3	SIC	466	ABS	0	0	3	3	24_3_3	NA	NA	0	1	3.76766490936	None	None	None	None	1
3.0.1	2019_Mar_09_1640	s	s	10	3	SIC	467	1_1	1	1	4	3	23_4_3	3	2	1	0	0.425488948822	173.0	-308.0	182.0	-306.0	1
3.0.1	2019_Mar_09_1640	s	s	10	3	SIC	468	ABS	0	0	3	1	24_3_1	NA	NA	0	1	2.40359187126	None	None	None	None	1
3.0.1	2019_Mar_09_1640	s	s	10	3	SIC	469	3_4	3	4	1	4	23_1_4	2	0	1	0	0.497269868851	-84.0	-249.0	-89.0	-249.0	1
3.0.1	2019_Mar_09_1640	s	s	10	3	SIC	470	ABS	0	0	1	3	24_1_3	NA	NA	0	1	3.9446978569	None	None	None	None	1
3.0.1	2019_Mar_09_1640	s	s	10	3	SIC	471	ABS	0	0	4	3	24_4_3	NA	NA	0	1	3.75115394592	None	None	None	None	1
3.0.1	2019_Mar_09_1640	s	s	10	3	SIC	472	ABS	0	0	4	1	24_4_1	NA	NA	0	1	3.90911698341	None	None	None	None	1
3.0.1	2019_Mar_09_1640	s	s	10	3	SIC	473	2_4	2	4	4	4	23_4_4	2	0	1	0	0.380777835846	123.0	265.0	129.0	269.0	1
3.0.1	2019_Mar_09_1640	s	s	10	3	SIC	474	ABS	0	0	2	1	24_2_1	NA	NA	0	1	3.09840011597	None	None	None	None	1
3.0.1	2019_Mar_09_1640	s	s	10	3	SIC	475	ABS	0	0	2	3	24_2_3	NA	NA	0	1	3.62759399414	None	None	None	None	1
3.0.1	2019_Mar_09_1640	s	s	10	3	SIC	476	ABS	0	0	3	2	24_3_2	NA	NA	0	1	3.51592993736	None	None	None	None	1
3.0.1	2019_Mar_09_1640	s	s	10	3	SIC	477	ABS	0	0	1	1	24_1_1	NA	NA	0	1	2.83381104469	None	None	None	None	1
3.0.1	2019_Mar_09_1640	s	s	10	3	SIC	478	1_2	1	2	1	4	23_1_4	0	2	1	0	0.613829135895	-533.0	-48.0	-534.0	-54.0	1
3.0.1	2019_Mar_09_1640	s	s	10	3	SIC	479	2_2	2	2	4	2	23_4_2	2	0	1	0	0.385561943054	77.0	-45.0	90.0	-42.0	1
3.0.1	2019_Mar_09_1640	s	s	10	3	SIC	480	2_3	2	3	1	2	23_1_2	-1	1	1	0	1.14303708076	-151.0	-158.0	-147.0	-154.0	1
