Version	Date	Stimuli	Method	Subject	Session	Condition	Trial	Target	TColor	TShape	DColor	DShape	Distractors	Channel1	Channel2	LMouseButton	RMouseButton	RT	TargetX	TargetY	ResponseX	ResponseY	Correct
3.0.1	2019_Mar_10_1557	s	s	10	4	Capacity	1	1_1	1	1	1	3	23_1_3	0	2	1	0	1.41591191292	119.0	259.0	121.0	268.0	1
3.0.1	2019_Mar_10_1557	s	s	10	4	Capacity	2	1_4	1	4	1	2	23_1_2	0	2	1	0	0.519649028778	-62.0	-92.0	-51.0	-91.0	1
3.0.1	2019_Mar_10_1557	s	s	10	4	Capacity	3	1_4	1	4	1	1	23_1_1	0	3	1	0	0.378580093384	382.0	193.0	380.0	192.0	1
3.0.1	2019_Mar_10_1557	s	s	10	4	Capacity	4	1_1	1	1	1	4	23_1_4	0	3	1	0	0.437409162521	-470.0	-43.0	-477.0	-37.0	1
3.0.1	2019_Mar_10_1557	s	s	10	4	Capacity	5	1_3	1	3	1	1	23_1_1	0	2	0	1	0.64617395401	437.0	208.0	None	None	0
3.0.1	2019_Mar_10_1557	s	s	10	4	Capacity	6	ABS	0	0	1	2	24_1_2	NA	NA	0	1	5.3388478756	None	None	None	None	1
3.0.1	2019_Mar_10_1557	s	s	10	4	Capacity	7	1_2	1	2	1	4	23_1_4	0	2	1	0	0.737417936325	-280.0	-265.0	-286.0	-255.0	1
3.0.1	2019_Mar_10_1557	s	s	10	4	Capacity	8	ABS	0	0	1	3	24_1_3	NA	NA	0	1	3.8451859951	None	None	None	None	1
3.0.1	2019_Mar_10_1557	s	s	10	4	Capacity	9	ABS	0	0	1	3	24_1_3	NA	NA	0	1	3.73418688774	None	None	None	None	1
3.0.1	2019_Mar_10_1557	s	s	10	4	Capacity	10	1_1	1	1	1	2	23_1_2	0	1	0	1	3.61924505234	133.0	-334.0	None	None	0
3.0.1	2019_Mar_10_1557	s	s	10	4	Capacity	11	1_4	1	4	1	3	23_1_3	0	1	1	0	0.563816070557	-141.0	-184.0	-134.0	-182.0	1
3.0.1	2019_Mar_10_1557	s	s	10	4	Capacity	12	ABS	0	0	1	1	24_1_1	NA	NA	0	1	1.7634780407	None	None	None	None	1
3.0.1	2019_Mar_10_1557	s	s	10	4	Capacity	13	ABS	0	0	1	3	24_1_3	NA	NA	0	1	3.81003212929	None	None	None	None	1
3.0.1	2019_Mar_10_1557	s	s	10	4	Capacity	14	ABS	0	0	1	1	24_1_1	NA	NA	0	1	2.96605682373	None	None	None	None	1
3.0.1	2019_Mar_10_1557	s	s	10	4	Capacity	15	ABS	0	0	1	1	24_1_1	NA	NA	0	1	1.94399189949	None	None	None	None	1
3.0.1	2019_Mar_10_1557	s	s	10	4	Capacity	16	ABS	0	0	1	2	24_1_2	NA	NA	0	1	4.35098695755	None	None	None	None	1
3.0.1	2019_Mar_10_1557	s	s	10	4	Capacity	17	1_2	1	2	1	3	23_1_3	0	1	1	0	3.62709307671	-439.0	263.0	-450.0	268.0	1
3.0.1	2019_Mar_10_1557	s	s	10	4	Capacity	18	ABS	0	0	1	4	24_1_4	NA	NA	0	1	1.91517996788	None	None	None	None	1
3.0.1	2019_Mar_10_1557	s	s	10	4	Capacity	19	1_3	1	3	1	4	23_1_4	0	-1	1	0	0.710465908051	-16.0	-333.0	-25.0	-327.0	1
3.0.1	2019_Mar_10_1557	s	s	10	4	Capacity	20	1_3	1	3	1	2	23_1_2	0	1	0	1	3.40996813774	141.0	-342.0	None	None	0
3.0.1	2019_Mar_10_1557	s	s	10	4	Capacity	21	ABS	0	0	1	2	24_1_2	NA	NA	0	1	6.97369217873	None	None	None	None	1
3.0.1	2019_Mar_10_1557	s	s	10	4	Capacity	22	ABS	0	0	1	4	24_1_4	NA	NA	0	1	3.85552597046	None	None	None	None	1
3.0.1	2019_Mar_10_1557	s	s	10	4	Capacity	23	ABS	0	0	1	4	24_1_4	NA	NA	0	1	1.65766406059	None	None	None	None	1
3.0.1	2019_Mar_10_1557	s	s	10	4	Capacity	24	1_2	1	2	1	1	23_1_1	0	-1	1	0	1.05788612366	-165.0	-37.0	-168.0	-41.0	1
3.0.1	2019_Mar_10_1557	s	s	10	4	Capacity	25	ABS	0	0	1	4	24_1_4	NA	NA	0	1	2.21041297913	None	None	None	None	1
3.0.1	2019_Mar_10_1557	s	s	10	4	Capacity	26	ABS	0	0	1	4	24_1_4	NA	NA	0	1	2.30964899063	None	None	None	None	1
3.0.1	2019_Mar_10_1557	s	s	10	4	Capacity	27	ABS	0	0	1	2	24_1_2	NA	NA	0	1	4.11571311951	None	None	None	None	1
3.0.1	2019_Mar_10_1557	s	s	10	4	Capacity	28	1_2	1	2	1	4	23_1_4	0	2	1	0	0.497179985046	435.0	-44.0	433.0	-34.0	1
3.0.1	2019_Mar_10_1557	s	s	10	4	Capacity	29	1_4	1	4	1	3	23_1_3	0	1	1	0	0.740653038025	-229.0	381.0	-224.0	391.0	1
3.0.1	2019_Mar_10_1557	s	s	10	4	Capacity	30	ABS	0	0	1	3	24_1_3	NA	NA	0	1	4.16570997238	None	None	None	None	1
3.0.1	2019_Mar_10_1557	s	s	10	4	Capacity	31	1_1	1	1	1	2	23_1_2	0	1	1	0	2.11632180214	-500.0	-211.0	-505.0	-220.0	1
3.0.1	2019_Mar_10_1557	s	s	10	4	Capacity	32	ABS	0	0	1	1	24_1_1	NA	NA	0	1	5.25944304466	None	None	None	None	1
3.0.1	2019_Mar_10_1557	s	s	10	4	Capacity	33	ABS	0	0	1	3	24_1_3	NA	NA	0	1	3.39833807945	None	None	None	None	1
3.0.1	2019_Mar_10_1557	s	s	10	4	Capacity	34	1_4	1	4	1	2	23_1_2	0	2	1	0	0.613758087158	261.0	330.0	270.0	329.0	1
3.0.1	2019_Mar_10_1557	s	s	10	4	Capacity	35	1_2	1	2	1	1	23_1_1	0	-1	1	0	0.952047109604	-314.0	192.0	-301.0	195.0	1
3.0.1	2019_Mar_10_1557	s	s	10	4	Capacity	36	1_2	1	2	1	3	23_1_3	0	1	1	0	3.44583201408	-133.0	191.0	-134.0	193.0	1
3.0.1	2019_Mar_10_1557	s	s	10	4	Capacity	37	ABS	0	0	1	3	24_1_3	NA	NA	0	1	3.53268003464	None	None	None	None	1
3.0.1	2019_Mar_10_1557	s	s	10	4	Capacity	38	1_1	1	1	1	3	23_1_3	0	2	1	0	0.657953977585	-89.0	-91.0	-80.0	-89.0	1
3.0.1	2019_Mar_10_1557	s	s	10	4	Capacity	39	1_3	1	3	1	2	23_1_2	0	1	1	0	1.96806406975	-444.0	-260.0	-447.0	-252.0	1
3.0.1	2019_Mar_10_1557	s	s	10	4	Capacity	40	ABS	0	0	1	1	24_1_1	NA	NA	0	1	2.17807579041	None	None	None	None	1
3.0.1	2019_Mar_10_1557	s	s	10	4	Capacity	41	1_3	1	3	1	4	23_1_4	0	-1	1	0	0.46972990036	-316.0	-374.0	-307.0	-378.0	1
3.0.1	2019_Mar_10_1557	s	s	10	4	Capacity	42	ABS	0	0	1	2	24_1_2	NA	NA	0	1	3.50413012505	None	None	None	None	1
3.0.1	2019_Mar_10_1557	s	s	10	4	Capacity	43	ABS	0	0	1	4	24_1_4	NA	NA	0	1	2.08596205711	None	None	None	None	1
3.0.1	2019_Mar_10_1557	s	s	10	4	Capacity	44	ABS	0	0	1	1	24_1_1	NA	NA	0	1	3.24551010132	None	None	None	None	1
3.0.1	2019_Mar_10_1557	s	s	10	4	Capacity	45	1_1	1	1	1	4	23_1_4	0	3	1	0	0.427838087082	-125.0	83.0	-131.0	78.0	1
3.0.1	2019_Mar_10_1557	s	s	10	4	Capacity	46	ABS	0	0	1	2	24_1_2	NA	NA	0	1	3.14248800278	None	None	None	None	1
3.0.1	2019_Mar_10_1557	s	s	10	4	Capacity	47	1_3	1	3	1	1	23_1_1	0	2	1	0	0.840093851089	-373.0	-327.0	-368.0	-326.0	1
3.0.1	2019_Mar_10_1557	s	s	10	4	Capacity	48	1_4	1	4	1	1	23_1_1	0	3	1	0	0.473065137863	-320.0	-369.0	-321.0	-375.0	1
3.0.1	2019_Mar_10_1557	s	s	10	4	Capacity	49	ABS	0	0	1	3	24_1_3	NA	NA	0	1	4.14437603951	None	None	None	None	1
3.0.1	2019_Mar_10_1557	s	s	10	4	Capacity	50	1_1	1	1	1	4	23_1_4	0	3	1	0	0.672604084015	498.0	-314.0	504.0	-313.0	1
3.0.1	2019_Mar_10_1557	s	s	10	4	Capacity	51	1_2	1	2	1	1	23_1_1	0	-1	1	0	1.93238806725	-366.0	-89.0	-357.0	-90.0	1
3.0.1	2019_Mar_10_1557	s	s	10	4	Capacity	52	ABS	0	0	1	4	24_1_4	NA	NA	0	1	2.24576711655	None	None	None	None	1
3.0.1	2019_Mar_10_1557	s	s	10	4	Capacity	53	1_4	1	4	1	1	23_1_1	0	3	1	0	0.437397003174	-302.0	-81.0	-295.0	-78.0	1
3.0.1	2019_Mar_10_1557	s	s	10	4	Capacity	54	ABS	0	0	1	2	24_1_2	NA	NA	0	1	4.82139396667	None	None	None	None	1
3.0.1	2019_Mar_10_1557	s	s	10	4	Capacity	55	1_2	1	2	1	4	23_1_4	0	2	1	0	0.437656879425	74.0	49.0	73.0	45.0	1
3.0.1	2019_Mar_10_1557	s	s	10	4	Capacity	56	ABS	0	0	1	1	24_1_1	NA	NA	0	1	2.90725016594	None	None	None	None	1
3.0.1	2019_Mar_10_1557	s	s	10	4	Capacity	57	1_3	1	3	1	4	23_1_4	0	-1	1	0	0.484423160553	-304.0	-267.0	-309.0	-259.0	1
3.0.1	2019_Mar_10_1557	s	s	10	4	Capacity	58	ABS	0	0	1	2	24_1_2	NA	NA	0	1	8.20708394051	None	None	None	None	1
3.0.1	2019_Mar_10_1557	s	s	10	4	Capacity	59	ABS	0	0	1	4	24_1_4	NA	NA	0	1	2.49271178246	None	None	None	None	1
3.0.1	2019_Mar_10_1557	s	s	10	4	Capacity	60	ABS	0	0	1	1	24_1_1	NA	NA	0	1	2.55164003372	None	None	None	None	1
3.0.1	2019_Mar_10_1557	s	s	10	4	Capacity	61	ABS	0	0	1	2	24_1_2	NA	NA	0	1	7.4031560421	None	None	None	None	1
3.0.1	2019_Mar_10_1557	s	s	10	4	Capacity	62	ABS	0	0	1	3	24_1_3	NA	NA	0	1	6.78551506996	None	None	None	None	1
3.0.1	2019_Mar_10_1557	s	s	10	4	Capacity	63	1_4	1	4	1	2	23_1_2	0	2	1	0	0.95196390152	-500.0	12.0	-509.0	14.0	1
3.0.1	2019_Mar_10_1557	s	s	10	4	Capacity	64	ABS	0	0	1	3	24_1_3	NA	NA	0	1	5.99753689766	None	None	None	None	1
3.0.1	2019_Mar_10_1557	s	s	10	4	Capacity	65	1_3	1	3	1	1	23_1_1	0	2	1	0	0.775583028793	-12.0	210.0	-10.0	211.0	1
3.0.1	2019_Mar_10_1557	s	s	10	4	Capacity	66	1_1	1	1	1	3	23_1_3	0	2	0	1	5.9542388916	-308.0	408.0	None	None	0
3.0.1	2019_Mar_10_1557	s	s	10	4	Capacity	67	1_4	1	4	1	3	23_1_3	0	1	1	0	0.657982110977	-380.0	256.0	-375.0	256.0	1
3.0.1	2019_Mar_10_1557	s	s	10	4	Capacity	68	ABS	0	0	1	4	24_1_4	NA	NA	0	1	4.28050303459	None	None	None	None	1
3.0.1	2019_Mar_10_1557	s	s	10	4	Capacity	69	1_2	1	2	1	3	23_1_3	0	1	1	0	1.99875593185	319.0	248.0	318.0	249.0	1
3.0.1	2019_Mar_10_1557	s	s	10	4	Capacity	70	1_1	1	1	1	2	23_1_2	0	1	1	0	4.70863103867	-412.0	61.0	-424.0	70.0	1
3.0.1	2019_Mar_10_1557	s	s	10	4	Capacity	71	ABS	0	0	1	1	24_1_1	NA	NA	0	1	4.45963811874	None	None	None	None	1
3.0.1	2019_Mar_10_1557	s	s	10	4	Capacity	72	1_3	1	3	1	2	23_1_2	0	1	1	0	3.58648300171	-135.0	-178.0	-134.0	-176.0	1
3.0.1	2019_Mar_10_1557	s	s	10	4	Capacity	73	ABS	0	0	1	3	24_1_3	NA	NA	0	1	4.20749402046	None	None	None	None	1
3.0.1	2019_Mar_10_1557	s	s	10	4	Capacity	74	ABS	0	0	1	1	24_1_1	NA	NA	0	1	2.4573469162	None	None	None	None	1
3.0.1	2019_Mar_10_1557	s	s	10	4	Capacity	75	ABS	0	0	1	1	24_1_1	NA	NA	0	1	2.12805509567	None	None	None	None	1
3.0.1	2019_Mar_10_1557	s	s	10	4	Capacity	76	ABS	0	0	1	3	24_1_3	NA	NA	0	1	4.08531999588	None	None	None	None	1
3.0.1	2019_Mar_10_1557	s	s	10	4	Capacity	77	1_2	1	2	1	4	23_1_4	0	2	1	0	0.610947132111	274.0	-98.0	287.0	-95.0	1
3.0.1	2019_Mar_10_1557	s	s	10	4	Capacity	78	1_1	1	1	1	2	23_1_2	0	1	1	0	3.77466797829	-444.0	386.0	-442.0	379.0	1
3.0.1	2019_Mar_10_1557	s	s	10	4	Capacity	79	1_4	1	4	1	3	23_1_3	0	1	1	0	0.451105833054	-372.0	30.0	-371.0	31.0	1
3.0.1	2019_Mar_10_1557	s	s	10	4	Capacity	80	1_4	1	4	1	2	23_1_2	0	2	1	0	0.378446102142	-201.0	83.0	-197.0	82.0	1
3.0.1	2019_Mar_10_1557	s	s	10	4	Capacity	81	1_1	1	1	1	3	23_1_3	0	2	1	0	2.02510905266	394.0	93.0	395.0	96.0	1
3.0.1	2019_Mar_10_1557	s	s	10	4	Capacity	82	ABS	0	0	1	4	24_1_4	NA	NA	0	1	1.69318890572	None	None	None	None	1
3.0.1	2019_Mar_10_1557	s	s	10	4	Capacity	83	ABS	0	0	1	3	24_1_3	NA	NA	0	1	3.89724493027	None	None	None	None	1
3.0.1	2019_Mar_10_1557	s	s	10	4	Capacity	84	1_3	1	3	1	4	23_1_4	0	-1	1	0	1.0930891037	40.0	-399.0	42.0	-390.0	1
3.0.1	2019_Mar_10_1557	s	s	10	4	Capacity	85	1_2	1	2	1	1	23_1_1	0	-1	0	1	2.28372502327	249.0	303.0	None	None	0
3.0.1	2019_Mar_10_1557	s	s	10	4	Capacity	86	ABS	0	0	1	4	24_1_4	NA	NA	0	1	1.26517677307	None	None	None	None	1
3.0.1	2019_Mar_10_1557	s	s	10	4	Capacity	87	1_2	1	2	1	3	23_1_3	0	1	1	0	1.54006290436	-86.0	-211.0	-84.0	-211.0	1
3.0.1	2019_Mar_10_1557	s	s	10	4	Capacity	88	ABS	0	0	1	4	24_1_4	NA	NA	0	1	1.99870204926	None	None	None	None	1
3.0.1	2019_Mar_10_1557	s	s	10	4	Capacity	89	1_4	1	4	1	1	23_1_1	0	3	1	0	0.474795103073	-338.0	175.0	-337.0	176.0	1
3.0.1	2019_Mar_10_1557	s	s	10	4	Capacity	90	ABS	0	0	1	2	24_1_2	NA	NA	0	1	4.86841702461	None	None	None	None	1
3.0.1	2019_Mar_10_1557	s	s	10	4	Capacity	91	ABS	0	0	1	2	24_1_2	NA	NA	0	1	3.82188796997	None	None	None	None	1
3.0.1	2019_Mar_10_1557	s	s	10	4	Capacity	92	ABS	0	0	1	1	24_1_1	NA	NA	0	1	2.12809991837	None	None	None	None	1
3.0.1	2019_Mar_10_1557	s	s	10	4	Capacity	93	1_3	1	3	1	1	23_1_1	0	2	1	0	0.473809957504	-223.0	189.0	-214.0	193.0	1
3.0.1	2019_Mar_10_1557	s	s	10	4	Capacity	94	ABS	0	0	1	2	24_1_2	NA	NA	0	1	4.63320708275	None	None	None	None	1
3.0.1	2019_Mar_10_1557	s	s	10	4	Capacity	95	1_1	1	1	1	4	23_1_4	0	3	1	0	0.47626709938	-442.0	380.0	-429.0	385.0	1
3.0.1	2019_Mar_10_1557	s	s	10	4	Capacity	96	1_3	1	3	1	2	23_1_2	0	1	1	0	3.30422115326	205.0	279.0	204.0	278.0	1
3.0.1	2019_Mar_10_1557	s	s	10	4	Capacity	1	ABS	0	0	2	1	24_2_1	NA	NA	0	1	1.76834511757	None	None	None	None	1
3.0.1	2019_Mar_10_1557	s	s	10	4	Capacity	2	ABS	0	0	3	1	24_3_1	NA	NA	0	1	1.54529595375	None	None	None	None	1
3.0.1	2019_Mar_10_1557	s	s	10	4	Capacity	3	ABS	0	0	4	1	24_4_1	NA	NA	0	1	1.45112109184	None	None	None	None	1
3.0.1	2019_Mar_10_1557	s	s	10	4	Capacity	4	ABS	0	0	3	1	24_3_1	NA	NA	0	1	3.10821199417	None	None	None	None	1
3.0.1	2019_Mar_10_1557	s	s	10	4	Capacity	5	1_1	1	1	3	1	23_3_1	2	0	0	1	0.474884986877	515.0	-112.0	None	None	0
3.0.1	2019_Mar_10_1557	s	s	10	4	Capacity	6	4_1	4	1	2	1	23_2_1	2	0	1	0	0.411339998245	409.0	-330.0	410.0	-326.0	1
3.0.1	2019_Mar_10_1557	s	s	10	4	Capacity	7	ABS	0	0	2	1	24_2_1	NA	NA	0	1	1.39231514931	None	None	None	None	1
3.0.1	2019_Mar_10_1557	s	s	10	4	Capacity	8	ABS	0	0	1	1	24_1_1	NA	NA	0	1	2.28397202492	None	None	None	None	1
3.0.1	2019_Mar_10_1557	s	s	10	4	Capacity	9	1_1	1	1	4	1	23_4_1	3	0	1	0	0.376076936722	225.0	206.0	225.0	207.0	1
3.0.1	2019_Mar_10_1557	s	s	10	4	Capacity	10	1_1	1	1	2	1	23_2_1	1	0	1	0	1.61589503288	-179.0	204.0	-176.0	197.0	1
3.0.1	2019_Mar_10_1557	s	s	10	4	Capacity	11	2_1	2	1	4	1	23_4_1	2	0	1	0	0.34042596817	-436.0	0.0	-446.0	-1.0	1
3.0.1	2019_Mar_10_1557	s	s	10	4	Capacity	12	2_1	2	1	3	1	23_3_1	1	0	1	0	0.411082983017	81.0	-209.0	84.0	-199.0	1
3.0.1	2019_Mar_10_1557	s	s	10	4	Capacity	13	3_1	3	1	2	1	23_2_1	1	0	1	0	0.410947799683	-463.0	-316.0	-472.0	-319.0	1
3.0.1	2019_Mar_10_1557	s	s	10	4	Capacity	14	ABS	0	0	2	1	24_2_1	NA	NA	0	1	1.9087228775	None	None	None	None	1
3.0.1	2019_Mar_10_1557	s	s	10	4	Capacity	15	3_1	3	1	4	1	23_4_1	-1	0	1	0	0.375697851181	207.0	-310.0	210.0	-300.0	1
3.0.1	2019_Mar_10_1557	s	s	10	4	Capacity	16	ABS	0	0	4	1	24_4_1	NA	NA	0	1	1.5330619812	None	None	None	None	1
3.0.1	2019_Mar_10_1557	s	s	10	4	Capacity	17	4_1	4	1	3	1	23_3_1	1	0	1	0	0.415838003159	12.0	-78.0	5.0	-78.0	1
3.0.1	2019_Mar_10_1557	s	s	10	4	Capacity	18	ABS	0	0	1	1	24_1_1	NA	NA	0	1	2.70436620712	None	None	None	None	1
3.0.1	2019_Mar_10_1557	s	s	10	4	Capacity	19	ABS	0	0	1	1	24_1_1	NA	NA	0	1	3.17480301857	None	None	None	None	1
3.0.1	2019_Mar_10_1557	s	s	10	4	Capacity	20	ABS	0	0	4	1	24_4_1	NA	NA	0	1	1.42253684998	None	None	None	None	1
3.0.1	2019_Mar_10_1557	s	s	10	4	Capacity	21	2_1	2	1	1	1	23_1_1	-1	0	1	0	1.97517490387	-199.0	-235.0	-200.0	-240.0	1
3.0.1	2019_Mar_10_1557	s	s	10	4	Capacity	22	4_1	4	1	1	1	23_1_1	3	0	1	0	0.328629970551	-138.0	172.0	-130.0	169.0	1
3.0.1	2019_Mar_10_1557	s	s	10	4	Capacity	23	3_1	3	1	1	1	23_1_1	2	0	1	0	0.387357950211	446.0	-347.0	444.0	-343.0	1
3.0.1	2019_Mar_10_1557	s	s	10	4	Capacity	24	ABS	0	0	3	1	24_3_1	NA	NA	0	1	0.940187931061	None	None	None	None	1
3.0.1	2019_Mar_10_1557	s	s	10	4	Capacity	25	ABS	0	0	2	1	24_2_1	NA	NA	0	1	2.43724918365	None	None	None	None	1
3.0.1	2019_Mar_10_1557	s	s	10	4	Capacity	26	ABS	0	0	4	1	24_4_1	NA	NA	0	1	1.22762107849	None	None	None	None	1
3.0.1	2019_Mar_10_1557	s	s	10	4	Capacity	27	ABS	0	0	3	1	24_3_1	NA	NA	0	1	1.04604291916	None	None	None	None	1
3.0.1	2019_Mar_10_1557	s	s	10	4	Capacity	28	4_1	4	1	2	1	23_2_1	2	0	1	0	0.369249820709	345.0	334.0	337.0	328.0	1
3.0.1	2019_Mar_10_1557	s	s	10	4	Capacity	29	ABS	0	0	3	1	24_3_1	NA	NA	0	1	0.634376049042	None	None	None	None	1
3.0.1	2019_Mar_10_1557	s	s	10	4	Capacity	30	ABS	0	0	1	1	24_1_1	NA	NA	0	1	2.30453515053	None	None	None	None	1
3.0.1	2019_Mar_10_1557	s	s	10	4	Capacity	31	2_1	2	1	1	1	23_1_1	-1	0	0	1	1.79889512062	-7.0	-391.0	None	None	0
3.0.1	2019_Mar_10_1557	s	s	10	4	Capacity	32	ABS	0	0	4	1	24_4_1	NA	NA	0	1	0.657977819443	None	None	None	None	1
3.0.1	2019_Mar_10_1557	s	s	10	4	Capacity	33	2_1	2	1	4	1	23_4_1	2	0	1	0	0.411005973816	206.0	396.0	203.0	397.0	1
3.0.1	2019_Mar_10_1557	s	s	10	4	Capacity	34	3_1	3	1	4	1	23_4_1	-1	0	1	0	0.378600120544	-336.0	390.0	-333.0	394.0	1
3.0.1	2019_Mar_10_1557	s	s	10	4	Capacity	35	1_1	1	1	4	1	23_4_1	3	0	1	0	0.37855887413	135.0	0.0	141.0	2.0	1
3.0.1	2019_Mar_10_1557	s	s	10	4	Capacity	36	1_1	1	1	3	1	23_3_1	2	0	1	0	0.340454101562	315.0	-4.0	304.0	1.0	1
3.0.1	2019_Mar_10_1557	s	s	10	4	Capacity	37	3_1	3	1	2	1	23_2_1	1	0	1	0	0.368751049042	-161.0	166.0	-160.0	166.0	1
3.0.1	2019_Mar_10_1557	s	s	10	4	Capacity	38	3_1	3	1	1	1	23_1_1	2	0	1	0	0.363981962204	359.0	-355.0	355.0	-348.0	1
3.0.1	2019_Mar_10_1557	s	s	10	4	Capacity	39	ABS	0	0	2	1	24_2_1	NA	NA	0	1	4.09224295616	None	None	None	None	1
3.0.1	2019_Mar_10_1557	s	s	10	4	Capacity	40	1_1	1	1	2	1	23_2_1	1	0	1	0	0.834389925003	-420.0	-7.0	-412.0	-10.0	1
3.0.1	2019_Mar_10_1557	s	s	10	4	Capacity	41	4_1	4	1	1	1	23_1_1	3	0	1	0	0.370500087738	-457.0	75.0	-450.0	83.0	1
3.0.1	2019_Mar_10_1557	s	s	10	4	Capacity	42	ABS	0	0	1	1	24_1_1	NA	NA	0	1	2.80406308174	None	None	None	None	1
3.0.1	2019_Mar_10_1557	s	s	10	4	Capacity	43	ABS	0	0	1	1	24_1_1	NA	NA	0	1	3.44542098045	None	None	None	None	1
3.0.1	2019_Mar_10_1557	s	s	10	4	Capacity	44	ABS	0	0	2	1	24_2_1	NA	NA	0	1	3.24834394455	None	None	None	None	1
3.0.1	2019_Mar_10_1557	s	s	10	4	Capacity	45	ABS	0	0	3	1	24_3_1	NA	NA	0	1	1.28525304794	None	None	None	None	1
3.0.1	2019_Mar_10_1557	s	s	10	4	Capacity	46	2_1	2	1	3	1	23_3_1	1	0	1	0	0.664486169815	-255.0	348.0	-257.0	351.0	1
3.0.1	2019_Mar_10_1557	s	s	10	4	Capacity	47	ABS	0	0	4	1	24_4_1	NA	NA	0	1	1.4312210083	None	None	None	None	1
3.0.1	2019_Mar_10_1557	s	s	10	4	Capacity	48	4_1	4	1	3	1	23_3_1	1	0	1	0	0.356457948685	-324.0	72.0	-324.0	67.0	1
3.0.1	2019_Mar_10_1557	s	s	10	4	Capacity	49	ABS	0	0	2	1	24_2_1	NA	NA	0	1	2.32018709183	None	None	None	None	1
3.0.1	2019_Mar_10_1557	s	s	10	4	Capacity	50	3_1	3	1	1	1	23_1_1	2	0	1	0	0.384493112564	220.0	-114.0	215.0	-107.0	1
3.0.1	2019_Mar_10_1557	s	s	10	4	Capacity	51	ABS	0	0	1	1	24_1_1	NA	NA	0	1	2.23400092125	None	None	None	None	1
3.0.1	2019_Mar_10_1557	s	s	10	4	Capacity	52	ABS	0	0	4	1	24_4_1	NA	NA	0	1	0.575511932373	None	None	None	None	1
3.0.1	2019_Mar_10_1557	s	s	10	4	Capacity	53	4_1	4	1	3	1	23_3_1	1	0	1	0	0.363924026489	-350.0	-29.0	-346.0	-25.0	1
3.0.1	2019_Mar_10_1557	s	s	10	4	Capacity	54	ABS	0	0	2	1	24_2_1	NA	NA	0	1	2.30455994606	None	None	None	None	1
3.0.1	2019_Mar_10_1557	s	s	10	4	Capacity	55	2_1	2	1	4	1	23_4_1	2	0	1	0	0.42275094986	273.0	-346.0	278.0	-349.0	1
3.0.1	2019_Mar_10_1557	s	s	10	4	Capacity	56	4_1	4	1	2	1	23_2_1	2	0	1	0	0.352158069611	-250.0	73.0	-248.0	78.0	1
3.0.1	2019_Mar_10_1557	s	s	10	4	Capacity	57	ABS	0	0	4	1	24_4_1	NA	NA	0	1	0.787785053253	None	None	None	None	1
3.0.1	2019_Mar_10_1557	s	s	10	4	Capacity	58	1_1	1	1	3	1	23_3_1	2	0	1	0	0.340391874313	422.0	151.0	417.0	140.0	1
3.0.1	2019_Mar_10_1557	s	s	10	4	Capacity	59	1_1	1	1	2	1	23_2_1	1	0	1	0	1.30486607552	-350.0	-130.0	-337.0	-124.0	1
3.0.1	2019_Mar_10_1557	s	s	10	4	Capacity	60	1_1	1	1	4	1	23_4_1	3	0	1	0	0.355414152145	-481.0	-377.0	-480.0	-383.0	1
3.0.1	2019_Mar_10_1557	s	s	10	4	Capacity	61	2_1	2	1	3	1	23_3_1	1	0	1	0	0.493227958679	-511.0	-34.0	-506.0	-35.0	1
3.0.1	2019_Mar_10_1557	s	s	10	4	Capacity	62	2_1	2	1	1	1	23_1_1	-1	0	1	0	3.20497703552	-88.0	-296.0	-80.0	-293.0	1
3.0.1	2019_Mar_10_1557	s	s	10	4	Capacity	63	ABS	0	0	4	1	24_4_1	NA	NA	0	1	1.4747838974	None	None	None	None	1
3.0.1	2019_Mar_10_1557	s	s	10	4	Capacity	64	4_1	4	1	1	1	23_1_1	3	0	1	0	0.516878128052	-212.0	-258.0	-210.0	-256.0	1
3.0.1	2019_Mar_10_1557	s	s	10	4	Capacity	65	ABS	0	0	3	1	24_3_1	NA	NA	0	1	1.68546891212	None	None	None	None	1
3.0.1	2019_Mar_10_1557	s	s	10	4	Capacity	66	ABS	0	0	3	1	24_3_1	NA	NA	0	1	1.93988990784	None	None	None	None	1
3.0.1	2019_Mar_10_1557	s	s	10	4	Capacity	67	ABS	0	0	2	1	24_2_1	NA	NA	0	1	2.54513502121	None	None	None	None	1
3.0.1	2019_Mar_10_1557	s	s	10	4	Capacity	68	ABS	0	0	3	1	24_3_1	NA	NA	0	1	1.91645002365	None	None	None	None	1
3.0.1	2019_Mar_10_1557	s	s	10	4	Capacity	69	ABS	0	0	1	1	24_1_1	NA	NA	0	1	3.51879096031	None	None	None	None	1
3.0.1	2019_Mar_10_1557	s	s	10	4	Capacity	70	3_1	3	1	2	1	23_2_1	1	0	1	0	0.516821861267	279.0	311.0	264.0	317.0	1
3.0.1	2019_Mar_10_1557	s	s	10	4	Capacity	71	ABS	0	0	1	1	24_1_1	NA	NA	0	1	1.41061806679	None	None	None	None	1
3.0.1	2019_Mar_10_1557	s	s	10	4	Capacity	72	3_1	3	1	4	1	23_4_1	-1	0	1	0	0.646152973175	-130.0	-186.0	-137.0	-189.0	1
3.0.1	2019_Mar_10_1557	s	s	10	4	Capacity	73	ABS	0	0	4	1	24_4_1	NA	NA	0	1	0.944105863571	None	None	None	None	1
3.0.1	2019_Mar_10_1557	s	s	10	4	Capacity	74	ABS	0	0	3	1	24_3_1	NA	NA	0	1	1.37016296387	None	None	None	None	1
3.0.1	2019_Mar_10_1557	s	s	10	4	Capacity	75	ABS	0	0	3	1	24_3_1	NA	NA	0	1	1.49745202065	None	None	None	None	1
3.0.1	2019_Mar_10_1557	s	s	10	4	Capacity	76	ABS	0	0	2	1	24_2_1	NA	NA	0	1	3.50843906403	None	None	None	None	1
3.0.1	2019_Mar_10_1557	s	s	10	4	Capacity	77	1_1	1	1	2	1	23_2_1	1	0	1	0	1.93990588188	113.0	50.0	104.0	58.0	1
3.0.1	2019_Mar_10_1557	s	s	10	4	Capacity	78	ABS	0	0	2	1	24_2_1	NA	NA	0	1	2.21037697792	None	None	None	None	1
3.0.1	2019_Mar_10_1557	s	s	10	4	Capacity	79	ABS	0	0	4	1	24_4_1	NA	NA	0	1	0.916656017303	None	None	None	None	1
3.0.1	2019_Mar_10_1557	s	s	10	4	Capacity	80	4_1	4	1	3	1	23_3_1	1	0	1	0	0.405603885651	276.0	-189.0	279.0	-199.0	1
3.0.1	2019_Mar_10_1557	s	s	10	4	Capacity	81	2_1	2	1	4	1	23_4_1	2	0	1	0	0.399199008942	535.0	-253.0	544.0	-247.0	1
3.0.1	2019_Mar_10_1557	s	s	10	4	Capacity	82	2_1	2	1	1	1	23_1_1	-1	0	1	0	5.17431306839	-110.0	215.0	-107.0	215.0	1
3.0.1	2019_Mar_10_1557	s	s	10	4	Capacity	83	ABS	0	0	2	1	24_2_1	NA	NA	0	1	3.49238586426	None	None	None	None	1
3.0.1	2019_Mar_10_1557	s	s	10	4	Capacity	84	4_1	4	1	1	1	23_1_1	3	0	1	0	0.422770023346	-11.0	-27.0	-4.0	-23.0	1
3.0.1	2019_Mar_10_1557	s	s	10	4	Capacity	85	4_1	4	1	2	1	23_2_1	2	0	1	0	0.399149894714	-45.0	-171.0	-44.0	-161.0	1
3.0.1	2019_Mar_10_1557	s	s	10	4	Capacity	86	3_1	3	1	1	1	23_1_1	2	0	1	0	0.404080867767	-97.0	403.0	-91.0	404.0	1
3.0.1	2019_Mar_10_1557	s	s	10	4	Capacity	87	ABS	0	0	1	1	24_1_1	NA	NA	0	1	2.99116611481	None	None	None	None	1
3.0.1	2019_Mar_10_1557	s	s	10	4	Capacity	88	1_1	1	1	3	1	23_3_1	2	0	1	0	0.42781496048	-226.0	-128.0	-220.0	-122.0	1
3.0.1	2019_Mar_10_1557	s	s	10	4	Capacity	89	1_1	1	1	4	1	23_4_1	3	0	1	0	0.378566026688	-29.0	-11.0	-16.0	-7.0	1
3.0.1	2019_Mar_10_1557	s	s	10	4	Capacity	90	ABS	0	0	1	1	24_1_1	NA	NA	0	1	3.6217238903	None	None	None	None	1
3.0.1	2019_Mar_10_1557	s	s	10	4	Capacity	91	ABS	0	0	1	1	24_1_1	NA	NA	0	1	3.28607392311	None	None	None	None	1
3.0.1	2019_Mar_10_1557	s	s	10	4	Capacity	92	ABS	0	0	4	1	24_4_1	NA	NA	0	1	0.952116966248	None	None	None	None	1
3.0.1	2019_Mar_10_1557	s	s	10	4	Capacity	93	2_1	2	1	3	1	23_3_1	1	0	1	0	0.486546039581	470.0	-57.0	464.0	-57.0	1
3.0.1	2019_Mar_10_1557	s	s	10	4	Capacity	94	3_1	3	1	4	1	23_4_1	-1	0	1	0	0.363900899887	260.0	180.0	264.0	170.0	1
3.0.1	2019_Mar_10_1557	s	s	10	4	Capacity	95	3_1	3	1	2	1	23_2_1	1	0	1	0	0.363961935043	-198.0	256.0	-189.0	259.0	1
3.0.1	2019_Mar_10_1557	s	s	10	4	Capacity	96	ABS	0	0	3	1	24_3_1	NA	NA	0	1	1.00410985947	None	None	None	None	1
3.0.1	2019_Mar_10_1557	s	s	10	4	SIC	1	2_1	2	1	3	1	23_3_1	1	0	1	0	0.899631977081	-502.0	224.0	-508.0	229.0	1
3.0.1	2019_Mar_10_1557	s	s	10	4	SIC	2	3_3	3	3	1	2	23_1_2	2	1	1	0	0.575584888458	367.0	-331.0	375.0	-330.0	1
3.0.1	2019_Mar_10_1557	s	s	10	4	SIC	3	ABS	0	0	2	2	24_2_2	NA	NA	0	1	6.90311193466	None	None	None	None	1
3.0.1	2019_Mar_10_1557	s	s	10	4	SIC	4	ABS	0	0	3	2	24_3_2	NA	NA	0	1	4.73514318466	None	None	None	None	1
3.0.1	2019_Mar_10_1557	s	s	10	4	SIC	5	ABS	0	0	1	4	24_1_4	NA	NA	0	1	2.9564909935	None	None	None	None	1
3.0.1	2019_Mar_10_1557	s	s	10	4	SIC	6	3_4	3	4	4	2	23_4_2	-1	2	1	0	0.634361982346	445.0	-296.0	450.0	-300.0	1
3.0.1	2019_Mar_10_1557	s	s	10	4	SIC	7	ABS	0	0	3	2	24_3_2	NA	NA	0	1	5.32708978653	None	None	None	None	1
3.0.1	2019_Mar_10_1557	s	s	10	4	SIC	8	4_2	4	2	1	1	23_1_1	3	-1	1	0	0.474388122559	365.0	179.0	369.0	183.0	1
3.0.1	2019_Mar_10_1557	s	s	10	4	SIC	9	ABS	0	0	2	1	24_2_1	NA	NA	0	1	3.84811306	None	None	None	None	1
3.0.1	2019_Mar_10_1557	s	s	10	4	SIC	10	3_1	3	1	4	4	23_4_4	-1	3	1	0	0.392823934555	498.0	303.0	507.0	299.0	1
3.0.1	2019_Mar_10_1557	s	s	10	4	SIC	11	ABS	0	0	4	3	24_4_3	NA	NA	0	1	4.10389518738	None	None	None	None	1
3.0.1	2019_Mar_10_1557	s	s	10	4	SIC	12	2_3	2	3	3	2	23_3_2	1	1	1	0	0.463674068451	432.0	110.0	427.0	106.0	1
3.0.1	2019_Mar_10_1557	s	s	10	4	SIC	13	ABS	0	0	2	2	24_2_2	NA	NA	0	1	5.14182090759	None	None	None	None	1
3.0.1	2019_Mar_10_1557	s	s	10	4	SIC	14	2_4	2	4	3	2	23_3_2	1	2	1	0	0.457939863205	41.0	295.0	31.0	294.0	1
3.0.1	2019_Mar_10_1557	s	s	10	4	SIC	15	1_2	1	2	1	3	23_1_3	0	1	1	0	2.0399491787	30.0	384.0	30.0	380.0	1
3.0.1	2019_Mar_10_1557	s	s	10	4	SIC	16	2_2	2	2	4	1	23_4_1	2	-1	1	0	0.378546953201	509.0	-102.0	503.0	-110.0	1
3.0.1	2019_Mar_10_1557	s	s	10	4	SIC	17	ABS	0	0	1	1	24_1_1	NA	NA	0	1	3.14244508743	None	None	None	None	1
3.0.1	2019_Mar_10_1557	s	s	10	4	SIC	18	ABS	0	0	1	1	24_1_1	NA	NA	0	1	3.25002908707	None	None	None	None	1
3.0.1	2019_Mar_10_1557	s	s	10	4	SIC	19	4_3	4	3	3	2	23_3_2	1	1	1	0	0.457945108414	338.0	267.0	332.0	260.0	1
3.0.1	2019_Mar_10_1557	s	s	10	4	SIC	20	ABS	0	0	4	1	24_4_1	NA	NA	0	1	2.70432400703	None	None	None	None	1
3.0.1	2019_Mar_10_1557	s	s	10	4	SIC	21	ABS	0	0	4	2	24_4_2	NA	NA	0	1	4.86179614067	None	None	None	None	1
3.0.1	2019_Mar_10_1557	s	s	10	4	SIC	22	1_4	1	4	3	1	23_3_1	2	3	1	0	0.67489695549	-480.0	-304.0	-485.0	-300.0	1
3.0.1	2019_Mar_10_1557	s	s	10	4	SIC	23	3_2	3	2	4	2	23_4_2	-1	0	1	0	0.442238807678	285.0	-173.0	292.0	-176.0	1
3.0.1	2019_Mar_10_1557	s	s	10	4	SIC	24	ABS	0	0	3	4	24_3_4	NA	NA	0	1	3.05076909065	None	None	None	None	1
3.0.1	2019_Mar_10_1557	s	s	10	4	SIC	25	2_3	2	3	2	1	23_2_1	0	2	1	0	0.580406904221	289.0	4.0	297.0	12.0	1
3.0.1	2019_Mar_10_1557	s	s	10	4	SIC	26	ABS	0	0	1	4	24_1_4	NA	NA	0	1	4.82145404816	None	None	None	None	1
3.0.1	2019_Mar_10_1557	s	s	10	4	SIC	27	4_3	4	3	2	3	23_2_3	2	0	1	0	0.422731161118	-398.0	142.0	-397.0	142.0	1
3.0.1	2019_Mar_10_1557	s	s	10	4	SIC	28	ABS	0	0	1	1	24_1_1	NA	NA	0	1	3.96116399765	None	None	None	None	1
3.0.1	2019_Mar_10_1557	s	s	10	4	SIC	29	ABS	0	0	3	3	24_3_3	NA	NA	0	1	3.91396903992	None	None	None	None	1
3.0.1	2019_Mar_10_1557	s	s	10	4	SIC	30	4_1	4	1	2	4	23_2_4	2	3	1	0	0.410902023315	38.0	95.0	44.0	95.0	1
3.0.1	2019_Mar_10_1557	s	s	10	4	SIC	31	1_3	1	3	1	1	23_1_1	0	2	1	0	1.06217193604	268.0	-200.0	258.0	-200.0	1
3.0.1	2019_Mar_10_1557	s	s	10	4	SIC	32	ABS	0	0	3	1	24_3_1	NA	NA	0	1	2.63947296143	None	None	None	None	1
3.0.1	2019_Mar_10_1557	s	s	10	4	SIC	33	ABS	0	0	3	3	24_3_3	NA	NA	0	1	5.12757301331	None	None	None	None	1
3.0.1	2019_Mar_10_1557	s	s	10	4	SIC	34	ABS	0	0	1	2	24_1_2	NA	NA	0	1	6.35029101372	None	None	None	None	1
3.0.1	2019_Mar_10_1557	s	s	10	4	SIC	35	ABS	0	0	2	3	24_2_3	NA	NA	0	1	4.9794151783	None	None	None	None	1
3.0.1	2019_Mar_10_1557	s	s	10	4	SIC	36	2_2	2	2	2	1	23_2_1	0	-1	1	0	1.76843309402	-151.0	77.0	-148.0	68.0	1
3.0.1	2019_Mar_10_1557	s	s	10	4	SIC	37	ABS	0	0	1	4	24_1_4	NA	NA	0	1	3.48104596138	None	None	None	None	1
3.0.1	2019_Mar_10_1557	s	s	10	4	SIC	38	1_1	1	1	3	1	23_3_1	2	0	1	0	0.440475940704	456.0	-129.0	465.0	-126.0	1
3.0.1	2019_Mar_10_1557	s	s	10	4	SIC	39	4_1	4	1	3	1	23_3_1	1	0	1	0	0.363905906677	-165.0	146.0	-171.0	150.0	1
3.0.1	2019_Mar_10_1557	s	s	10	4	SIC	40	ABS	0	0	2	4	24_2_4	NA	NA	0	1	2.78964185715	None	None	None	None	1
3.0.1	2019_Mar_10_1557	s	s	10	4	SIC	41	ABS	0	0	3	2	24_3_2	NA	NA	0	1	4.16279196739	None	None	None	None	1
3.0.1	2019_Mar_10_1557	s	s	10	4	SIC	42	4_4	4	4	2	4	23_2_4	2	0	1	0	0.404296159744	9.0	285.0	4.0	274.0	1
3.0.1	2019_Mar_10_1557	s	s	10	4	SIC	43	1_3	1	3	3	4	23_3_4	2	-1	1	0	0.35710477829	321.0	274.0	315.0	267.0	1
3.0.1	2019_Mar_10_1557	s	s	10	4	SIC	44	1_4	1	4	1	1	23_1_1	0	3	1	0	0.392426013947	-11.0	220.0	-16.0	221.0	1
3.0.1	2019_Mar_10_1557	s	s	10	4	SIC	45	ABS	0	0	4	3	24_4_3	NA	NA	0	1	3.15622806549	None	None	None	None	1
3.0.1	2019_Mar_10_1557	s	s	10	4	SIC	46	ABS	0	0	4	2	24_4_2	NA	NA	0	1	3.43357110023	None	None	None	None	1
3.0.1	2019_Mar_10_1557	s	s	10	4	SIC	47	3_2	3	2	1	1	23_1_1	2	-1	1	0	0.469816923141	-194.0	-307.0	-201.0	-311.0	1
3.0.1	2019_Mar_10_1557	s	s	10	4	SIC	48	4_4	4	4	3	1	23_3_1	1	3	1	0	0.343698978424	-31.0	-197.0	-28.0	-189.0	1
3.0.1	2019_Mar_10_1557	s	s	10	4	SIC	49	ABS	0	0	2	4	24_2_4	NA	NA	0	1	2.36332201958	None	None	None	None	1
3.0.1	2019_Mar_10_1557	s	s	10	4	SIC	50	ABS	0	0	1	3	24_1_3	NA	NA	0	1	4.13924598694	None	None	None	None	1
3.0.1	2019_Mar_10_1557	s	s	10	4	SIC	51	3_1	3	1	2	1	23_2_1	1	0	1	0	0.516890048981	486.0	-287.0	487.0	-284.0	1
3.0.1	2019_Mar_10_1557	s	s	10	4	SIC	52	2_4	2	4	1	1	23_1_1	-1	3	1	0	0.458009004593	-60.0	-201.0	-57.0	-206.0	1
3.0.1	2019_Mar_10_1557	s	s	10	4	SIC	53	ABS	0	0	3	1	24_3_1	NA	NA	0	1	3.76660180092	None	None	None	None	1
3.0.1	2019_Mar_10_1557	s	s	10	4	SIC	54	ABS	0	0	2	3	24_2_3	NA	NA	0	1	9.36112809181	None	None	None	None	1
3.0.1	2019_Mar_10_1557	s	s	10	4	SIC	55	ABS	0	0	4	2	24_4_2	NA	NA	0	1	8.27236580849	None	None	None	None	1
3.0.1	2019_Mar_10_1557	s	s	10	4	SIC	56	2_1	2	1	3	2	23_3_2	1	1	1	0	0.874704837799	-127.0	178.0	-119.0	184.0	1
3.0.1	2019_Mar_10_1557	s	s	10	4	SIC	57	1_3	1	3	1	4	23_1_4	0	-1	1	0	1.04608201981	-444.0	-236.0	-441.0	-229.0	1
3.0.1	2019_Mar_10_1557	s	s	10	4	SIC	58	4_1	4	1	3	3	23_3_3	1	2	1	0	0.427927970886	94.0	-51.0	105.0	-48.0	1
3.0.1	2019_Mar_10_1557	s	s	10	4	SIC	59	ABS	0	0	2	1	24_2_1	NA	NA	0	1	4.13239312172	None	None	None	None	1
3.0.1	2019_Mar_10_1557	s	s	10	4	SIC	60	2_4	2	4	3	3	23_3_3	1	1	1	0	0.434505939484	108.0	59.0	106.0	60.0	1
3.0.1	2019_Mar_10_1557	s	s	10	4	SIC	61	ABS	0	0	4	1	24_4_1	NA	NA	0	1	3.88052582741	None	None	None	None	1
3.0.1	2019_Mar_10_1557	s	s	10	4	SIC	62	3_1	3	1	4	3	23_4_3	-1	2	1	0	0.372584104538	-385.0	-141.0	-382.0	-144.0	1
3.0.1	2019_Mar_10_1557	s	s	10	4	SIC	63	ABS	0	0	1	3	24_1_3	NA	NA	0	1	3.88560390472	None	None	None	None	1
3.0.1	2019_Mar_10_1557	s	s	10	4	SIC	64	ABS	0	0	3	3	24_3_3	NA	NA	0	1	4.46166300774	None	None	None	None	1
3.0.1	2019_Mar_10_1557	s	s	10	4	SIC	65	3_3	3	3	2	1	23_2_1	1	2	1	0	0.864044904709	518.0	318.0	514.0	318.0	1
3.0.1	2019_Mar_10_1557	s	s	10	4	SIC	66	1_1	1	1	4	1	23_4_1	3	0	1	0	0.36398100853	107.0	397.0	116.0	404.0	1
3.0.1	2019_Mar_10_1557	s	s	10	4	SIC	67	4_4	4	4	2	1	23_2_1	2	3	1	0	0.352204084396	386.0	-271.0	397.0	-268.0	1
3.0.1	2019_Mar_10_1557	s	s	10	4	SIC	68	ABS	0	0	3	1	24_3_1	NA	NA	0	1	2.57795405388	None	None	None	None	1
3.0.1	2019_Mar_10_1557	s	s	10	4	SIC	69	ABS	0	0	3	2	24_3_2	NA	NA	0	1	4.93902301788	None	None	None	None	1
3.0.1	2019_Mar_10_1557	s	s	10	4	SIC	70	ABS	0	0	4	4	24_4_4	NA	NA	0	1	5.58617401123	None	None	None	None	1
3.0.1	2019_Mar_10_1557	s	s	10	4	SIC	71	3_2	3	2	2	4	23_2_4	1	2	1	0	0.458026885986	-320.0	49.0	-318.0	48.0	1
3.0.1	2019_Mar_10_1557	s	s	10	4	SIC	72	3_1	3	1	1	4	23_1_4	2	3	1	0	0.587349891663	488.0	-90.0	493.0	-88.0	1
3.0.1	2019_Mar_10_1557	s	s	10	4	SIC	73	2_3	2	3	4	2	23_4_2	2	1	1	0	0.368900775909	531.0	-330.0	527.0	-333.0	1
3.0.1	2019_Mar_10_1557	s	s	10	4	SIC	74	ABS	0	0	2	2	24_2_2	NA	NA	0	1	4.17450499535	None	None	None	None	1
3.0.1	2019_Mar_10_1557	s	s	10	4	SIC	75	4_2	4	2	4	4	23_4_4	0	2	1	0	0.49623799324	-103.0	-356.0	-101.0	-356.0	1
3.0.1	2019_Mar_10_1557	s	s	10	4	SIC	76	2_3	2	3	2	4	23_2_4	0	-1	1	0	0.502572059631	-402.0	10.0	-392.0	18.0	1
3.0.1	2019_Mar_10_1557	s	s	10	4	SIC	77	1_1	1	1	4	2	23_4_2	3	1	1	0	0.528528928757	-357.0	-103.0	-347.0	-102.0	1
3.0.1	2019_Mar_10_1557	s	s	10	4	SIC	78	1_1	1	1	3	4	23_3_4	2	3	1	0	0.340358018875	165.0	-121.0	167.0	-122.0	1
3.0.1	2019_Mar_10_1557	s	s	10	4	SIC	79	1_3	1	3	2	4	23_2_4	1	-1	1	0	0.442538022995	89.0	-128.0	85.0	-118.0	1
3.0.1	2019_Mar_10_1557	s	s	10	4	SIC	80	4_2	4	2	1	4	23_1_4	3	2	1	0	0.322037935257	168.0	-89.0	175.0	-92.0	1
3.0.1	2019_Mar_10_1557	s	s	10	4	SIC	81	ABS	0	0	2	4	24_2_4	NA	NA	0	1	3.24542498589	None	None	None	None	1
3.0.1	2019_Mar_10_1557	s	s	10	4	SIC	82	4_3	4	3	4	2	23_4_2	0	1	1	0	1.46335601807	-444.0	-174.0	-446.0	-169.0	1
3.0.1	2019_Mar_10_1557	s	s	10	4	SIC	83	3_1	3	1	2	3	23_2_3	1	2	1	0	0.363906145096	-285.0	-141.0	-284.0	-140.0	1
3.0.1	2019_Mar_10_1557	s	s	10	4	SIC	84	3_3	3	3	3	2	23_3_2	0	1	1	0	1.64589214325	267.0	-310.0	274.0	-314.0	1
3.0.1	2019_Mar_10_1557	s	s	10	4	SIC	85	ABS	0	0	2	4	24_2_4	NA	NA	0	1	3.29268097878	None	None	None	None	1
3.0.1	2019_Mar_10_1557	s	s	10	4	SIC	86	ABS	0	0	4	2	24_4_2	NA	NA	0	1	5.18605303764	None	None	None	None	1
3.0.1	2019_Mar_10_1557	s	s	10	4	SIC	87	1_4	1	4	3	2	23_3_2	2	2	1	0	0.443916082382	-386.0	134.0	-388.0	137.0	1
3.0.1	2019_Mar_10_1557	s	s	10	4	SIC	88	ABS	0	0	4	2	24_4_2	NA	NA	0	1	4.7890021801	None	None	None	None	1
3.0.1	2019_Mar_10_1557	s	s	10	4	SIC	89	ABS	0	0	4	2	24_4_2	NA	NA	0	1	5.64467692375	None	None	None	None	1
3.0.1	2019_Mar_10_1557	s	s	10	4	SIC	90	ABS	0	0	1	4	24_1_4	NA	NA	0	1	3.61002802849	None	None	None	None	1
3.0.1	2019_Mar_10_1557	s	s	10	4	SIC	91	ABS	0	0	1	1	24_1_1	NA	NA	0	1	3.65080118179	None	None	None	None	1
3.0.1	2019_Mar_10_1557	s	s	10	4	SIC	92	ABS	0	0	1	3	24_1_3	NA	NA	0	1	4.66851210594	None	None	None	None	1
3.0.1	2019_Mar_10_1557	s	s	10	4	SIC	93	ABS	0	0	2	1	24_2_1	NA	NA	0	1	3.85989284515	None	None	None	None	1
3.0.1	2019_Mar_10_1557	s	s	10	4	SIC	94	4_2	4	2	2	4	23_2_4	2	2	1	0	0.404350042343	368.0	316.0	376.0	318.0	1
3.0.1	2019_Mar_10_1557	s	s	10	4	SIC	95	ABS	0	0	3	2	24_3_2	NA	NA	0	1	3.17962098122	None	None	None	None	1
3.0.1	2019_Mar_10_1557	s	s	10	4	SIC	96	ABS	0	0	2	1	24_2_1	NA	NA	0	1	5.22132301331	None	None	None	None	1
3.0.1	2019_Mar_10_1557	s	s	10	4	SIC	97	ABS	0	0	1	4	24_1_4	NA	NA	0	1	1.97849702835	None	None	None	None	1
3.0.1	2019_Mar_10_1557	s	s	10	4	SIC	98	2_1	2	1	3	3	23_3_3	1	2	1	0	0.569467067719	-333.0	-165.0	-337.0	-171.0	1
3.0.1	2019_Mar_10_1557	s	s	10	4	SIC	99	4_4	4	4	3	4	23_3_4	1	0	1	0	0.378606796265	202.0	-137.0	204.0	-138.0	1
3.0.1	2019_Mar_10_1557	s	s	10	4	SIC	100	ABS	0	0	2	4	24_2_4	NA	NA	0	1	3.73148989677	None	None	None	None	1
3.0.1	2019_Mar_10_1557	s	s	10	4	SIC	101	3_3	3	3	1	1	23_1_1	2	2	1	0	0.470221996307	228.0	-412.0	229.0	-406.0	1
3.0.1	2019_Mar_10_1557	s	s	10	4	SIC	102	ABS	0	0	2	4	24_2_4	NA	NA	0	1	2.84010505676	None	None	None	None	1
3.0.1	2019_Mar_10_1557	s	s	10	4	SIC	103	ABS	0	0	3	4	24_3_4	NA	NA	0	1	2.53201603889	None	None	None	None	1
3.0.1	2019_Mar_10_1557	s	s	10	4	SIC	104	3_2	3	2	3	1	23_3_1	0	-1	1	0	2.2104241848	-244.0	174.0	-240.0	166.0	1
3.0.1	2019_Mar_10_1557	s	s	10	4	SIC	105	2_4	2	4	1	4	23_1_4	-1	0	1	0	3.01027607918	-135.0	-10.0	-138.0	-5.0	1
3.0.1	2019_Mar_10_1557	s	s	10	4	SIC	106	3_2	3	2	4	1	23_4_1	-1	-1	1	0	0.378762960434	-414.0	5.0	-417.0	4.0	1
3.0.1	2019_Mar_10_1557	s	s	10	4	SIC	107	ABS	0	0	3	2	24_3_2	NA	NA	0	1	5.85182905197	None	None	None	None	1
3.0.1	2019_Mar_10_1557	s	s	10	4	SIC	108	ABS	0	0	3	3	24_3_3	NA	NA	0	1	5.33290696144	None	None	None	None	1
3.0.1	2019_Mar_10_1557	s	s	10	4	SIC	109	ABS	0	0	3	3	24_3_3	NA	NA	0	1	5.02136993408	None	None	None	None	1
3.0.1	2019_Mar_10_1557	s	s	10	4	SIC	110	4_2	4	2	3	2	23_3_2	1	0	1	0	0.384584903717	-454.0	40.0	-465.0	44.0	1
3.0.1	2019_Mar_10_1557	s	s	10	4	SIC	111	ABS	0	0	2	3	24_2_3	NA	NA	0	1	4.45081996918	None	None	None	None	1
3.0.1	2019_Mar_10_1557	s	s	10	4	SIC	112	2_4	2	4	2	2	23_2_2	0	2	1	0	0.563744068146	223.0	265.0	228.0	258.0	1
3.0.1	2019_Mar_10_1557	s	s	10	4	SIC	113	4_1	4	1	4	4	23_4_4	0	3	1	0	0.49618601799	254.0	-149.0	252.0	-139.0	1
3.0.1	2019_Mar_10_1557	s	s	10	4	SIC	114	ABS	0	0	3	3	24_3_3	NA	NA	0	1	4.92721796036	None	None	None	None	1
3.0.1	2019_Mar_10_1557	s	s	10	4	SIC	115	ABS	0	0	2	1	24_2_1	NA	NA	0	1	3.05764198303	None	None	None	None	1
3.0.1	2019_Mar_10_1557	s	s	10	4	SIC	116	2_1	2	1	1	2	23_1_2	-1	1	1	0	1.93976712227	-90.0	39.0	-81.0	38.0	1
3.0.1	2019_Mar_10_1557	s	s	10	4	SIC	117	ABS	0	0	4	3	24_4_3	NA	NA	0	1	3.63799309731	None	None	None	None	1
3.0.1	2019_Mar_10_1557	s	s	10	4	SIC	118	ABS	0	0	3	4	24_3_4	NA	NA	0	1	2.94618010521	None	None	None	None	1
3.0.1	2019_Mar_10_1557	s	s	10	4	SIC	119	2_2	2	2	3	1	23_3_1	1	-1	1	0	0.50527215004	-86.0	165.0	-82.0	165.0	1
3.0.1	2019_Mar_10_1557	s	s	10	4	SIC	120	ABS	0	0	1	4	24_1_4	NA	NA	0	1	2.78962898254	None	None	None	None	1
3.0.1	2019_Mar_10_1557	s	s	10	4	SIC	121	ABS	0	0	2	1	24_2_1	NA	NA	0	1	4.52749109268	None	None	None	None	1
3.0.1	2019_Mar_10_1557	s	s	10	4	SIC	122	ABS	0	0	4	2	24_4_2	NA	NA	0	1	4.9914560318	None	None	None	None	1
3.0.1	2019_Mar_10_1557	s	s	10	4	SIC	123	1_4	1	4	4	1	23_4_1	3	3	1	0	0.528972148895	291.0	184.0	297.0	182.0	1
3.0.1	2019_Mar_10_1557	s	s	10	4	SIC	124	ABS	0	0	3	1	24_3_1	NA	NA	0	1	4.18623495102	None	None	None	None	1
3.0.1	2019_Mar_10_1557	s	s	10	4	SIC	125	ABS	0	0	2	1	24_2_1	NA	NA	0	1	4.55651283264	None	None	None	None	1
3.0.1	2019_Mar_10_1557	s	s	10	4	SIC	126	3_4	3	4	4	1	23_4_1	-1	3	1	0	0.619066953659	-204.0	-17.0	-197.0	-15.0	1
3.0.1	2019_Mar_10_1557	s	s	10	4	SIC	127	ABS	0	0	3	4	24_3_4	NA	NA	0	1	2.75131797791	None	None	None	None	1
3.0.1	2019_Mar_10_1557	s	s	10	4	SIC	128	3_2	3	2	2	1	23_2_1	1	-1	1	0	0.49177312851	-262.0	-180.0	-255.0	-172.0	1
3.0.1	2019_Mar_10_1557	s	s	10	4	SIC	129	4_4	4	4	1	3	23_1_3	3	1	1	0	0.363979101181	-75.0	-85.0	-67.0	-84.0	1
3.0.1	2019_Mar_10_1557	s	s	10	4	SIC	130	2_1	2	1	4	3	23_4_3	2	2	1	0	0.343219041824	189.0	8.0	186.0	8.0	1
3.0.1	2019_Mar_10_1557	s	s	10	4	SIC	131	ABS	0	0	2	2	24_2_2	NA	NA	0	1	5.98576498032	None	None	None	None	1
3.0.1	2019_Mar_10_1557	s	s	10	4	SIC	132	3_4	3	4	3	3	23_3_3	0	1	1	0	0.563864946365	42.0	-275.0	55.0	-272.0	1
3.0.1	2019_Mar_10_1557	s	s	10	4	SIC	133	4_3	4	3	2	4	23_2_4	2	-1	1	0	0.378527879715	95.0	161.0	87.0	161.0	1
3.0.1	2019_Mar_10_1557	s	s	10	4	SIC	134	ABS	0	0	1	2	24_1_2	NA	NA	0	1	4.68614983559	None	None	None	None	1
3.0.1	2019_Mar_10_1557	s	s	10	4	SIC	135	ABS	0	0	1	2	24_1_2	NA	NA	0	1	6.50819897652	None	None	None	None	1
3.0.1	2019_Mar_10_1557	s	s	10	4	SIC	136	1_4	1	4	2	1	23_2_1	1	3	1	0	0.486964941025	116.0	230.0	128.0	233.0	1
3.0.1	2019_Mar_10_1557	s	s	10	4	SIC	137	4_2	4	2	3	4	23_3_4	1	2	1	0	0.392355918884	142.0	-191.0	145.0	-205.0	1
3.0.1	2019_Mar_10_1557	s	s	10	4	SIC	138	4_1	4	1	2	3	23_2_3	2	2	1	0	0.496195077896	-470.0	224.0	-468.0	228.0	1
3.0.1	2019_Mar_10_1557	s	s	10	4	SIC	139	4_2	4	2	2	2	23_2_2	2	0	1	0	0.355966091156	-417.0	378.0	-426.0	377.0	1
3.0.1	2019_Mar_10_1557	s	s	10	4	SIC	140	3_4	3	4	1	3	23_1_3	2	1	1	0	0.378614902496	-185.0	-32.0	-198.0	-27.0	1
3.0.1	2019_Mar_10_1557	s	s	10	4	SIC	141	ABS	0	0	4	3	24_4_3	NA	NA	0	1	4.83325791359	None	None	None	None	1
3.0.1	2019_Mar_10_1557	s	s	10	4	SIC	142	3_2	3	2	1	3	23_1_3	2	1	1	0	0.437455177307	160.0	57.0	164.0	61.0	1
3.0.1	2019_Mar_10_1557	s	s	10	4	SIC	143	3_1	3	1	4	2	23_4_2	-1	1	1	0	0.587808847427	-345.0	-306.0	-345.0	-305.0	1
3.0.1	2019_Mar_10_1557	s	s	10	4	SIC	144	ABS	0	0	2	4	24_2_4	NA	NA	0	1	6.64436101913	None	None	None	None	1
3.0.1	2019_Mar_10_1557	s	s	10	4	SIC	145	2_4	2	4	2	1	23_2_1	0	3	1	0	0.481528043747	122.0	342.0	126.0	347.0	1
3.0.1	2019_Mar_10_1557	s	s	10	4	SIC	146	ABS	0	0	1	4	24_1_4	NA	NA	0	1	2.5398619175	None	None	None	None	1
3.0.1	2019_Mar_10_1557	s	s	10	4	SIC	147	4_1	4	1	2	2	23_2_2	2	1	1	0	0.340309858322	412.0	332.0	406.0	332.0	1
3.0.1	2019_Mar_10_1557	s	s	10	4	SIC	148	1_2	1	2	4	4	23_4_4	3	2	1	0	0.379616975784	-41.0	-362.0	-37.0	-352.0	1
3.0.1	2019_Mar_10_1557	s	s	10	4	SIC	149	ABS	0	0	3	4	24_3_4	NA	NA	0	1	2.73081803322	None	None	None	None	1
3.0.1	2019_Mar_10_1557	s	s	10	4	SIC	150	ABS	0	0	4	2	24_4_2	NA	NA	0	1	4.48505997658	None	None	None	None	1
3.0.1	2019_Mar_10_1557	s	s	10	4	SIC	151	3_1	3	1	3	2	23_3_2	0	1	1	0	2.12138199806	467.0	261.0	473.0	268.0	1
3.0.1	2019_Mar_10_1557	s	s	10	4	SIC	152	4_2	4	2	4	1	23_4_1	0	-1	1	0	2.3567609787	357.0	229.0	364.0	228.0	1
3.0.1	2019_Mar_10_1557	s	s	10	4	SIC	153	ABS	0	0	2	2	24_2_2	NA	NA	0	1	5.99160981178	None	None	None	None	1
3.0.1	2019_Mar_10_1557	s	s	10	4	SIC	154	2_2	2	2	4	3	23_4_3	2	1	1	0	0.528557062149	187.0	263.0	181.0	262.0	1
3.0.1	2019_Mar_10_1557	s	s	10	4	SIC	155	ABS	0	0	4	4	24_4_4	NA	NA	0	1	2.65783810616	None	None	None	None	1
3.0.1	2019_Mar_10_1557	s	s	10	4	SIC	156	4_1	4	1	4	3	23_4_3	0	2	1	0	0.999008178711	-183.0	-166.0	-189.0	-164.0	1
3.0.1	2019_Mar_10_1557	s	s	10	4	SIC	157	4_3	4	3	3	3	23_3_3	1	0	1	0	0.405635118484	473.0	-308.0	473.0	-311.0	1
3.0.1	2019_Mar_10_1557	s	s	10	4	SIC	158	2_1	2	1	2	2	23_2_2	0	1	1	0	4.3693959713	-328.0	83.0	-321.0	81.0	1
3.0.1	2019_Mar_10_1557	s	s	10	4	SIC	159	ABS	0	0	4	4	24_4_4	NA	NA	0	1	3.58652281761	None	None	None	None	1
3.0.1	2019_Mar_10_1557	s	s	10	4	SIC	160	2_1	2	1	2	3	23_2_3	0	2	1	0	1.07481908798	117.0	70.0	125.0	68.0	1
3.0.1	2019_Mar_10_1557	s	s	10	4	SIC	161	3_4	3	4	3	1	23_3_1	0	3	1	0	0.446218967438	219.0	-195.0	224.0	-185.0	1
3.0.1	2019_Mar_10_1557	s	s	10	4	SIC	162	3_4	3	4	3	2	23_3_2	0	2	1	0	0.422716140747	-89.0	384.0	-88.0	389.0	1
3.0.1	2019_Mar_10_1557	s	s	10	4	SIC	163	ABS	0	0	3	3	24_3_3	NA	NA	0	1	6.17858195305	None	None	None	None	1
3.0.1	2019_Mar_10_1557	s	s	10	4	SIC	164	1_4	1	4	3	3	23_3_3	2	1	1	0	0.41095995903	-231.0	239.0	-228.0	247.0	1
3.0.1	2019_Mar_10_1557	s	s	10	4	SIC	165	4_1	4	1	3	4	23_3_4	1	3	1	0	0.352169036865	65.0	-119.0	68.0	-115.0	1
3.0.1	2019_Mar_10_1557	s	s	10	4	SIC	166	ABS	0	0	1	1	24_1_1	NA	NA	0	1	3.30420184135	None	None	None	None	1
3.0.1	2019_Mar_10_1557	s	s	10	4	SIC	167	ABS	0	0	1	1	24_1_1	NA	NA	0	1	3.29247808456	None	None	None	None	1
3.0.1	2019_Mar_10_1557	s	s	10	4	SIC	168	ABS	0	0	3	3	24_3_3	NA	NA	0	1	5.67113494873	None	None	None	None	1
3.0.1	2019_Mar_10_1557	s	s	10	4	SIC	169	2_1	2	1	4	2	23_4_2	2	1	1	0	0.410887956619	-447.0	240.0	-446.0	236.0	1
3.0.1	2019_Mar_10_1557	s	s	10	4	SIC	170	3_1	3	1	2	2	23_2_2	1	1	1	0	0.461755990982	-269.0	-152.0	-270.0	-149.0	1
3.0.1	2019_Mar_10_1557	s	s	10	4	SIC	171	ABS	0	0	3	1	24_3_1	NA	NA	0	1	4.10391688347	None	None	None	None	1
3.0.1	2019_Mar_10_1557	s	s	10	4	SIC	172	ABS	0	0	4	1	24_4_1	NA	NA	0	1	2.96605300903	None	None	None	None	1
3.0.1	2019_Mar_10_1557	s	s	10	4	SIC	173	ABS	0	0	2	3	24_2_3	NA	NA	0	1	5.69173693657	None	None	None	None	1
3.0.1	2019_Mar_10_1557	s	s	10	4	SIC	174	1_3	1	3	1	2	23_1_2	0	1	1	0	3.76290178299	479.0	-355.0	484.0	-350.0	1
3.0.1	2019_Mar_10_1557	s	s	10	4	SIC	175	1_4	1	4	4	2	23_4_2	3	2	1	0	0.379530191422	180.0	165.0	168.0	169.0	1
3.0.1	2019_Mar_10_1557	s	s	10	4	SIC	176	4_1	4	1	1	2	23_1_2	3	1	1	0	0.422909975052	-529.0	-397.0	-529.0	-401.0	1
3.0.1	2019_Mar_10_1557	s	s	10	4	SIC	177	1_3	1	3	3	2	23_3_2	2	1	1	0	0.363888978958	150.0	-80.0	146.0	-82.0	1
3.0.1	2019_Mar_10_1557	s	s	10	4	SIC	178	ABS	0	0	1	2	24_1_2	NA	NA	0	1	5.1961081028	None	None	None	None	1
3.0.1	2019_Mar_10_1557	s	s	10	4	SIC	179	2_2	2	2	1	4	23_1_4	-1	2	1	0	0.496126174927	-28.0	-66.0	-26.0	-65.0	1
3.0.1	2019_Mar_10_1557	s	s	10	4	SIC	180	1_2	1	2	3	2	23_3_2	2	0	1	0	0.469766139984	259.0	-140.0	266.0	-134.0	1
3.0.1	2019_Mar_10_1557	s	s	10	4	SIC	181	ABS	0	0	1	2	24_1_2	NA	NA	0	1	5.90339708328	None	None	None	None	1
3.0.1	2019_Mar_10_1557	s	s	10	4	SIC	182	2_1	2	1	1	4	23_1_4	-1	3	1	0	0.496325016022	-454.0	47.0	-461.0	44.0	1
3.0.1	2019_Mar_10_1557	s	s	10	4	SIC	183	3_2	3	2	4	4	23_4_4	-1	2	1	0	0.473827123642	155.0	-334.0	145.0	-335.0	1
3.0.1	2019_Mar_10_1557	s	s	10	4	SIC	184	ABS	0	0	2	3	24_2_3	NA	NA	0	1	4.25406718254	None	None	None	None	1
3.0.1	2019_Mar_10_1557	s	s	10	4	SIC	185	ABS	0	0	3	4	24_3_4	NA	NA	0	1	3.04545497894	None	None	None	None	1
3.0.1	2019_Mar_10_1557	s	s	10	4	SIC	186	3_4	3	4	4	3	23_4_3	-1	1	1	0	0.410997867584	260.0	213.0	263.0	215.0	1
3.0.1	2019_Mar_10_1557	s	s	10	4	SIC	187	2_2	2	2	2	3	23_2_3	0	1	1	0	4.16279697418	-148.0	181.0	-147.0	183.0	1
3.0.1	2019_Mar_10_1557	s	s	10	4	SIC	188	ABS	0	0	4	3	24_4_3	NA	NA	0	1	4.23334908485	None	None	None	None	1
3.0.1	2019_Mar_10_1557	s	s	10	4	SIC	189	3_3	3	3	2	3	23_2_3	1	0	1	0	0.505042076111	397.0	-134.0	397.0	-139.0	1
3.0.1	2019_Mar_10_1557	s	s	10	4	SIC	190	3_3	3	3	4	4	23_4_4	-1	-1	1	0	0.378588914871	294.0	148.0	300.0	153.0	1
3.0.1	2019_Mar_10_1557	s	s	10	4	SIC	191	ABS	0	0	4	3	24_4_3	NA	NA	0	1	8.66734194756	None	None	None	None	1
3.0.1	2019_Mar_10_1557	s	s	10	4	SIC	192	1_2	1	2	2	2	23_2_2	1	0	1	0	2.9866631031	520.0	15.0	521.0	7.0	1
3.0.1	2019_Mar_10_1557	s	s	10	4	SIC	193	ABS	0	0	2	4	24_2_4	NA	NA	0	1	3.6777009964	None	None	None	None	1
3.0.1	2019_Mar_10_1557	s	s	10	4	SIC	194	ABS	0	0	3	1	24_3_1	NA	NA	0	1	2.84603190422	None	None	None	None	1
3.0.1	2019_Mar_10_1557	s	s	10	4	SIC	195	ABS	0	0	1	4	24_1_4	NA	NA	0	1	2.50454902649	None	None	None	None	1
3.0.1	2019_Mar_10_1557	s	s	10	4	SIC	196	2_1	2	1	4	4	23_4_4	2	3	1	0	0.498195886612	215.0	-30.0	207.0	-31.0	1
3.0.1	2019_Mar_10_1557	s	s	10	4	SIC	197	ABS	0	0	2	3	24_2_3	NA	NA	0	1	6.679708004	None	None	None	None	1
3.0.1	2019_Mar_10_1557	s	s	10	4	SIC	198	3_2	3	2	2	3	23_2_3	1	1	1	0	0.496194124222	149.0	-273.0	149.0	-274.0	1
3.0.1	2019_Mar_10_1557	s	s	10	4	SIC	199	ABS	0	0	2	3	24_2_3	NA	NA	0	1	5.95053720474	None	None	None	None	1
3.0.1	2019_Mar_10_1557	s	s	10	4	SIC	200	1_2	1	2	3	1	23_3_1	2	-1	1	0	0.457981109619	-435.0	-29.0	-431.0	-30.0	1
3.0.1	2019_Mar_10_1557	s	s	10	4	SIC	201	1_2	1	2	4	1	23_4_1	3	-1	1	0	0.345048904419	-434.0	-155.0	-443.0	-156.0	1
3.0.1	2019_Mar_10_1557	s	s	10	4	SIC	202	ABS	0	0	4	3	24_4_3	NA	NA	0	1	5.56231808662	None	None	None	None	1
3.0.1	2019_Mar_10_1557	s	s	10	4	SIC	203	2_2	2	2	3	4	23_3_4	1	2	1	0	0.446222066879	-74.0	-386.0	-70.0	-380.0	1
3.0.1	2019_Mar_10_1557	s	s	10	4	SIC	204	2_1	2	1	3	4	23_3_4	1	3	1	0	0.461296796799	526.0	212.0	517.0	221.0	1
3.0.1	2019_Mar_10_1557	s	s	10	4	SIC	205	4_4	4	4	4	1	23_4_1	0	3	1	0	0.59259390831	-524.0	149.0	-524.0	147.0	1
3.0.1	2019_Mar_10_1557	s	s	10	4	SIC	206	ABS	0	0	4	1	24_4_1	NA	NA	1	0	0.622707843781	None	None	16.0	-1.0	0
3.0.1	2019_Mar_10_1557	s	s	10	4	SIC	207	ABS	0	0	2	2	24_2_2	NA	NA	0	1	10.4839379787	None	None	None	None	1
3.0.1	2019_Mar_10_1557	s	s	10	4	SIC	208	ABS	0	0	4	4	24_4_4	NA	NA	0	1	4.24516797066	None	None	None	None	1
3.0.1	2019_Mar_10_1557	s	s	10	4	SIC	209	2_1	2	1	1	3	23_1_3	-1	2	1	0	3.63393807411	-480.0	-252.0	-477.0	-251.0	1
3.0.1	2019_Mar_10_1557	s	s	10	4	SIC	210	ABS	0	0	3	1	24_3_1	NA	NA	0	1	3.0337369442	None	None	None	None	1
3.0.1	2019_Mar_10_1557	s	s	10	4	SIC	211	ABS	0	0	1	4	24_1_4	NA	NA	0	1	3.24579405785	None	None	None	None	1
3.0.1	2019_Mar_10_1557	s	s	10	4	SIC	212	ABS	0	0	4	4	24_4_4	NA	NA	0	1	5.21547818184	None	None	None	None	1
3.0.1	2019_Mar_10_1557	s	s	10	4	SIC	213	ABS	0	0	2	4	24_2_4	NA	NA	0	1	3.3511800766	None	None	None	None	1
3.0.1	2019_Mar_10_1557	s	s	10	4	SIC	214	2_3	2	3	1	4	23_1_4	-1	-1	1	0	0.475140810013	-323.0	-202.0	-310.0	-195.0	1
3.0.1	2019_Mar_10_1557	s	s	10	4	SIC	215	ABS	0	0	1	3	24_1_3	NA	NA	0	1	3.59824705124	None	None	None	None	1
3.0.1	2019_Mar_10_1557	s	s	10	4	SIC	216	2_1	2	1	2	4	23_2_4	0	3	1	0	0.65793800354	162.0	-256.0	164.0	-250.0	1
3.0.1	2019_Mar_10_1557	s	s	10	4	SIC	217	ABS	0	0	1	3	24_1_3	NA	NA	0	1	3.69270205498	None	None	None	None	1
3.0.1	2019_Mar_10_1557	s	s	10	4	SIC	218	ABS	0	0	2	3	24_2_3	NA	NA	0	1	4.04801487923	None	None	None	None	1
3.0.1	2019_Mar_10_1557	s	s	10	4	SIC	219	3_3	3	3	3	4	23_3_4	0	-1	1	0	0.646172046661	235.0	348.0	243.0	352.0	1
3.0.1	2019_Mar_10_1557	s	s	10	4	SIC	220	1_2	1	2	4	3	23_4_3	3	1	1	0	0.363958835602	350.0	-105.0	354.0	-111.0	1
3.0.1	2019_Mar_10_1557	s	s	10	4	SIC	221	ABS	0	0	4	4	24_4_4	NA	NA	0	1	1.88506603241	None	None	None	None	1
3.0.1	2019_Mar_10_1557	s	s	10	4	SIC	222	ABS	0	0	3	3	24_3_3	NA	NA	0	1	5.5303068161	None	None	None	None	1
3.0.1	2019_Mar_10_1557	s	s	10	4	SIC	223	ABS	0	0	3	2	24_3_2	NA	NA	0	1	4.49498510361	None	None	None	None	1
3.0.1	2019_Mar_10_1557	s	s	10	4	SIC	224	ABS	0	0	1	3	24_1_3	NA	NA	0	1	5.48005104065	None	None	None	None	1
3.0.1	2019_Mar_10_1557	s	s	10	4	SIC	225	1_3	1	3	4	3	23_4_3	3	0	1	0	0.410963058472	-416.0	-235.0	-414.0	-236.0	1
3.0.1	2019_Mar_10_1557	s	s	10	4	SIC	226	3_1	3	1	3	3	23_3_3	0	2	1	0	0.954903125763	-446.0	-193.0	-436.0	-194.0	1
3.0.1	2019_Mar_10_1557	s	s	10	4	SIC	227	ABS	0	0	1	2	24_1_2	NA	NA	0	1	4.47387099266	None	None	None	None	1
3.0.1	2019_Mar_10_1557	s	s	10	4	SIC	228	4_3	4	3	4	4	23_4_4	0	-1	1	0	0.58744096756	-287.0	-295.0	-284.0	-294.0	1
3.0.1	2019_Mar_10_1557	s	s	10	4	SIC	229	ABS	0	0	1	4	24_1_4	NA	NA	0	1	3.14342308044	None	None	None	None	1
3.0.1	2019_Mar_10_1557	s	s	10	4	SIC	230	4_3	4	3	2	2	23_2_2	2	1	1	0	0.613810062408	370.0	132.0	372.0	130.0	1
3.0.1	2019_Mar_10_1557	s	s	10	4	SIC	231	1_4	1	4	2	3	23_2_3	1	1	1	0	1.07000803947	248.0	148.0	244.0	153.0	1
3.0.1	2019_Mar_10_1557	s	s	10	4	SIC	232	4_3	4	3	1	4	23_1_4	3	-1	1	0	0.340473175049	15.0	158.0	14.0	160.0	1
3.0.1	2019_Mar_10_1557	s	s	10	4	SIC	233	ABS	0	0	3	4	24_3_4	NA	NA	0	1	2.26923894882	None	None	None	None	1
3.0.1	2019_Mar_10_1557	s	s	10	4	SIC	234	ABS	0	0	4	1	24_4_1	NA	NA	0	1	2.52021193504	None	None	None	None	1
3.0.1	2019_Mar_10_1557	s	s	10	4	SIC	235	ABS	0	0	3	1	24_3_1	NA	NA	0	1	3.14288592339	None	None	None	None	1
3.0.1	2019_Mar_10_1557	s	s	10	4	SIC	236	ABS	0	0	3	3	24_3_3	NA	NA	0	1	5.14184904099	None	None	None	None	1
3.0.1	2019_Mar_10_1557	s	s	10	4	SIC	237	3_4	3	4	1	4	23_1_4	2	0	1	0	0.99397110939	492.0	-398.0	489.0	-399.0	1
3.0.1	2019_Mar_10_1557	s	s	10	4	SIC	238	ABS	0	0	3	4	24_3_4	NA	NA	0	1	3.31016302109	None	None	None	None	1
3.0.1	2019_Mar_10_1557	s	s	10	4	SIC	239	2_3	2	3	1	3	23_1_3	-1	0	1	0	2.43392586708	209.0	60.0	212.0	70.0	1
3.0.1	2019_Mar_10_1557	s	s	10	4	SIC	240	ABS	0	0	1	3	24_1_3	NA	NA	0	1	3.69229197502	None	None	None	None	1
3.0.1	2019_Mar_10_1557	s	s	10	4	SIC	241	ABS	0	0	4	1	24_4_1	NA	NA	0	1	2.21578097343	None	None	None	None	1
3.0.1	2019_Mar_10_1557	s	s	10	4	SIC	242	ABS	0	0	1	1	24_1_1	NA	NA	0	1	3.03665113449	None	None	None	None	1
3.0.1	2019_Mar_10_1557	s	s	10	4	SIC	243	ABS	0	0	1	2	24_1_2	NA	NA	0	1	6.45134902	None	None	None	None	1
3.0.1	2019_Mar_10_1557	s	s	10	4	SIC	244	ABS	0	0	3	1	24_3_1	NA	NA	0	1	2.36800694466	None	None	None	None	1
3.0.1	2019_Mar_10_1557	s	s	10	4	SIC	245	1_1	1	1	3	2	23_3_2	2	1	1	0	0.505084991455	396.0	-56.0	395.0	-63.0	1
3.0.1	2019_Mar_10_1557	s	s	10	4	SIC	246	ABS	0	0	2	3	24_2_3	NA	NA	0	1	4.03835201263	None	None	None	None	1
3.0.1	2019_Mar_10_1557	s	s	10	4	SIC	247	1_4	1	4	1	3	23_1_3	0	1	1	0	0.849101066589	-389.0	330.0	-380.0	331.0	1
3.0.1	2019_Mar_10_1557	s	s	10	4	SIC	248	1_1	1	1	2	2	23_2_2	1	1	1	0	0.705466985703	392.0	-89.0	389.0	-99.0	1
3.0.1	2019_Mar_10_1557	s	s	10	4	SIC	249	ABS	0	0	1	2	24_1_2	NA	NA	0	1	4.41017699242	None	None	None	None	1
3.0.1	2019_Mar_10_1557	s	s	10	4	SIC	250	4_4	4	4	1	1	23_1_1	3	3	1	0	0.437395095825	-507.0	193.0	-500.0	200.0	1
3.0.1	2019_Mar_10_1557	s	s	10	4	SIC	251	1_3	1	3	3	1	23_3_1	2	2	1	0	0.469784975052	379.0	-206.0	386.0	-206.0	1
3.0.1	2019_Mar_10_1557	s	s	10	4	SIC	252	ABS	0	0	4	1	24_4_1	NA	NA	0	1	2.81021404266	None	None	None	None	1
3.0.1	2019_Mar_10_1557	s	s	10	4	SIC	253	1_1	1	1	1	2	23_1_2	0	1	1	0	3.9745490551	246.0	-394.0	246.0	-395.0	1
3.0.1	2019_Mar_10_1557	s	s	10	4	SIC	254	ABS	0	0	3	2	24_3_2	NA	NA	0	1	5.50643610954	None	None	None	None	1
3.0.1	2019_Mar_10_1557	s	s	10	4	SIC	255	ABS	0	0	3	1	24_3_1	NA	NA	0	1	3.44535398483	None	None	None	None	1
3.0.1	2019_Mar_10_1557	s	s	10	4	SIC	256	ABS	0	0	4	3	24_4_3	NA	NA	0	1	3.79818797112	None	None	None	None	1
3.0.1	2019_Mar_10_1557	s	s	10	4	SIC	257	ABS	0	0	2	4	24_2_4	NA	NA	0	1	4.15619111061	None	None	None	None	1
3.0.1	2019_Mar_10_1557	s	s	10	4	SIC	258	2_3	2	3	3	3	23_3_3	1	0	1	0	0.528565883636	260.0	46.0	265.0	49.0	1
3.0.1	2019_Mar_10_1557	s	s	10	4	SIC	259	1_2	1	2	4	2	23_4_2	3	0	1	0	0.425662994385	-287.0	169.0	-284.0	173.0	1
3.0.1	2019_Mar_10_1557	s	s	10	4	SIC	260	2_2	2	2	1	2	23_1_2	-1	0	1	0	3.30420684814	-428.0	-347.0	-429.0	-353.0	1
3.0.1	2019_Mar_10_1557	s	s	10	4	SIC	261	1_2	1	2	2	3	23_2_3	1	1	1	0	1.63683605194	79.0	57.0	75.0	62.0	1
3.0.1	2019_Mar_10_1557	s	s	10	4	SIC	262	4_4	4	4	4	3	23_4_3	0	1	1	0	0.881427049637	441.0	-395.0	439.0	-394.0	1
3.0.1	2019_Mar_10_1557	s	s	10	4	SIC	263	1_3	1	3	3	3	23_3_3	2	0	1	0	0.628736972809	-154.0	-237.0	-163.0	-236.0	1
3.0.1	2019_Mar_10_1557	s	s	10	4	SIC	264	4_2	4	2	3	3	23_3_3	1	1	1	0	0.34547495842	366.0	19.0	368.0	22.0	1
3.0.1	2019_Mar_10_1557	s	s	10	4	SIC	265	ABS	0	0	3	4	24_3_4	NA	NA	0	1	3.33951807022	None	None	None	None	1
3.0.1	2019_Mar_10_1557	s	s	10	4	SIC	266	ABS	0	0	2	2	24_2_2	NA	NA	0	1	6.01654720306	None	None	None	None	1
3.0.1	2019_Mar_10_1557	s	s	10	4	SIC	267	3_2	3	2	1	2	23_1_2	2	0	1	0	0.486810207367	431.0	-315.0	431.0	-311.0	1
3.0.1	2019_Mar_10_1557	s	s	10	4	SIC	268	1_3	1	3	2	1	23_2_1	1	2	1	0	1.2460091114	-67.0	317.0	-64.0	312.0	1
3.0.1	2019_Mar_10_1557	s	s	10	4	SIC	269	ABS	0	0	1	2	24_1_2	NA	NA	0	1	5.04483485222	None	None	None	None	1
3.0.1	2019_Mar_10_1557	s	s	10	4	SIC	270	4_2	4	2	1	2	23_1_2	3	0	1	0	0.874240875244	456.0	-338.0	453.0	-335.0	1
3.0.1	2019_Mar_10_1557	s	s	10	4	SIC	271	ABS	0	0	4	4	24_4_4	NA	NA	0	1	2.31913304329	None	None	None	None	1
3.0.1	2019_Mar_10_1557	s	s	10	4	SIC	272	ABS	0	0	3	1	24_3_1	NA	NA	0	1	2.33235311508	None	None	None	None	1
3.0.1	2019_Mar_10_1557	s	s	10	4	SIC	273	2_4	2	4	1	2	23_1_2	-1	2	1	0	0.462930202484	-534.0	-209.0	-536.0	-210.0	1
3.0.1	2019_Mar_10_1557	s	s	10	4	SIC	274	ABS	0	0	4	1	24_4_1	NA	NA	0	1	2.68078398705	None	None	None	None	1
3.0.1	2019_Mar_10_1557	s	s	10	4	SIC	275	ABS	0	0	3	2	24_3_2	NA	NA	0	1	3.89793801308	None	None	None	None	1
3.0.1	2019_Mar_10_1557	s	s	10	4	SIC	276	ABS	0	0	3	1	24_3_1	NA	NA	0	1	3.45707416534	None	None	None	None	1
3.0.1	2019_Mar_10_1557	s	s	10	4	SIC	277	1_3	1	3	4	2	23_4_2	3	1	1	0	0.416061162949	388.0	-220.0	399.0	-217.0	1
3.0.1	2019_Mar_10_1557	s	s	10	4	SIC	278	4_1	4	1	1	1	23_1_1	3	0	1	0	0.364049196243	419.0	-362.0	416.0	-359.0	1
3.0.1	2019_Mar_10_1557	s	s	10	4	SIC	279	4_4	4	4	1	2	23_1_2	3	2	1	0	0.328598976135	141.0	-408.0	141.0	-408.0	1
3.0.1	2019_Mar_10_1557	s	s	10	4	SIC	280	ABS	0	0	2	2	24_2_2	NA	NA	0	1	4.2852230072	None	None	None	None	1
3.0.1	2019_Mar_10_1557	s	s	10	4	SIC	281	ABS	0	0	2	1	24_2_1	NA	NA	0	1	2.76322388649	None	None	None	None	1
3.0.1	2019_Mar_10_1557	s	s	10	4	SIC	282	2_3	2	3	3	1	23_3_1	1	2	1	0	1.15193104744	-502.0	364.0	-498.0	365.0	1
3.0.1	2019_Mar_10_1557	s	s	10	4	SIC	283	ABS	0	0	1	2	24_1_2	NA	NA	0	1	6.06576895714	None	None	None	None	1
3.0.1	2019_Mar_10_1557	s	s	10	4	SIC	284	ABS	0	0	4	1	24_4_1	NA	NA	0	1	2.89300584793	None	None	None	None	1
3.0.1	2019_Mar_10_1557	s	s	10	4	SIC	285	3_1	3	1	1	2	23_1_2	2	1	1	0	0.458009958267	21.0	176.0	27.0	169.0	1
3.0.1	2019_Mar_10_1557	s	s	10	4	SIC	286	2_3	2	3	4	1	23_4_1	2	2	1	0	0.392735958099	-235.0	-285.0	-237.0	-284.0	1
3.0.1	2019_Mar_10_1557	s	s	10	4	SIC	287	ABS	0	0	3	1	24_3_1	NA	NA	0	1	3.02775812149	None	None	None	None	1
3.0.1	2019_Mar_10_1557	s	s	10	4	SIC	288	1_4	1	4	4	4	23_4_4	3	0	1	0	0.427109956741	221.0	45.0	222.0	45.0	1
3.0.1	2019_Mar_10_1557	s	s	10	4	SIC	289	ABS	0	0	2	3	24_2_3	NA	NA	0	1	7.58530306816	None	None	None	None	1
3.0.1	2019_Mar_10_1557	s	s	10	4	SIC	290	ABS	0	0	1	3	24_1_3	NA	NA	0	1	5.4098110199	None	None	None	None	1
3.0.1	2019_Mar_10_1557	s	s	10	4	SIC	291	ABS	0	0	4	3	24_4_3	NA	NA	0	1	4.63320803642	None	None	None	None	1
3.0.1	2019_Mar_10_1557	s	s	10	4	SIC	292	1_2	1	2	3	3	23_3_3	2	1	1	0	0.505043029785	-121.0	-320.0	-131.0	-310.0	1
3.0.1	2019_Mar_10_1557	s	s	10	4	SIC	293	1_2	1	2	3	4	23_3_4	2	2	1	0	0.414746999741	-376.0	206.0	-367.0	202.0	1
3.0.1	2019_Mar_10_1557	s	s	10	4	SIC	294	2_4	2	4	4	4	23_4_4	2	0	1	0	0.357241868973	517.0	-102.0	508.0	-102.0	1
3.0.1	2019_Mar_10_1557	s	s	10	4	SIC	295	1_2	1	2	2	1	23_2_1	1	-1	1	0	0.863904953003	-15.0	27.0	-11.0	27.0	1
3.0.1	2019_Mar_10_1557	s	s	10	4	SIC	296	ABS	0	0	3	2	24_3_2	NA	NA	1	0	0.469727993011	None	None	-294.0	-81.0	0
3.0.1	2019_Mar_10_1557	s	s	10	4	SIC	297	4_3	4	3	4	1	23_4_1	0	2	1	0	1.56871199608	-307.0	364.0	-319.0	368.0	1
3.0.1	2019_Mar_10_1557	s	s	10	4	SIC	298	ABS	0	0	3	3	24_3_3	NA	NA	0	1	5.48493289948	None	None	None	None	1
3.0.1	2019_Mar_10_1557	s	s	10	4	SIC	299	3_4	3	4	1	2	23_1_2	2	2	1	0	0.681841850281	-428.0	-269.0	-427.0	-263.0	1
3.0.1	2019_Mar_10_1557	s	s	10	4	SIC	300	1_4	1	4	1	2	23_1_2	0	2	1	0	0.561372041702	508.0	375.0	517.0	372.0	1
3.0.1	2019_Mar_10_1557	s	s	10	4	SIC	301	ABS	0	0	2	1	24_2_1	NA	NA	0	1	3.9980340004	None	None	None	None	1
3.0.1	2019_Mar_10_1557	s	s	10	4	SIC	302	4_2	4	2	1	3	23_1_3	3	1	1	0	0.385092973709	68.0	213.0	72.0	208.0	1
3.0.1	2019_Mar_10_1557	s	s	10	4	SIC	303	ABS	0	0	2	3	24_2_3	NA	NA	0	1	4.23338198662	None	None	None	None	1
3.0.1	2019_Mar_10_1557	s	s	10	4	SIC	304	4_3	4	3	1	2	23_1_2	3	1	1	0	0.411295175552	373.0	-294.0	372.0	-298.0	1
3.0.1	2019_Mar_10_1557	s	s	10	4	SIC	305	3_3	3	3	4	2	23_4_2	-1	1	1	0	0.378598213196	-292.0	17.0	-296.0	17.0	1
3.0.1	2019_Mar_10_1557	s	s	10	4	SIC	306	ABS	0	0	3	3	24_3_3	NA	NA	0	1	4.48036813736	None	None	None	None	1
3.0.1	2019_Mar_10_1557	s	s	10	4	SIC	307	ABS	0	0	1	3	24_1_3	NA	NA	0	1	7.35351896286	None	None	None	None	1
3.0.1	2019_Mar_10_1557	s	s	10	4	SIC	308	ABS	0	0	2	2	24_2_2	NA	NA	0	1	5.00954699516	None	None	None	None	1
3.0.1	2019_Mar_10_1557	s	s	10	4	SIC	309	1_4	1	4	2	2	23_2_2	1	2	1	0	0.528522968292	-249.0	-241.0	-253.0	-241.0	1
3.0.1	2019_Mar_10_1557	s	s	10	4	SIC	310	1_2	1	2	1	4	23_1_4	0	2	1	0	0.55498290062	-152.0	264.0	-149.0	261.0	1
3.0.1	2019_Mar_10_1557	s	s	10	4	SIC	311	ABS	0	0	4	2	24_4_2	NA	NA	0	1	3.60304307938	None	None	None	None	1
3.0.1	2019_Mar_10_1557	s	s	10	4	SIC	312	ABS	0	0	1	3	24_1_3	NA	NA	0	1	4.09614706039	None	None	None	None	1
3.0.1	2019_Mar_10_1557	s	s	10	4	SIC	313	ABS	0	0	3	1	24_3_1	NA	NA	0	1	2.01693105698	None	None	None	None	1
3.0.1	2019_Mar_10_1557	s	s	10	4	SIC	314	1_3	1	3	2	3	23_2_3	1	0	1	0	3.44549798965	301.0	-181.0	311.0	-179.0	1
3.0.1	2019_Mar_10_1557	s	s	10	4	SIC	315	4_4	4	4	3	3	23_3_3	1	1	1	0	0.446213006973	-377.0	-29.0	-371.0	-31.0	1
3.0.1	2019_Mar_10_1557	s	s	10	4	SIC	316	ABS	0	0	2	4	24_2_4	NA	NA	0	1	3.60297107697	None	None	None	None	1
3.0.1	2019_Mar_10_1557	s	s	10	4	SIC	317	ABS	0	0	2	3	24_2_3	NA	NA	0	1	5.29185605049	None	None	None	None	1
3.0.1	2019_Mar_10_1557	s	s	10	4	SIC	318	4_4	4	4	2	3	23_2_3	2	1	1	0	0.474431037903	-188.0	230.0	-197.0	237.0	1
3.0.1	2019_Mar_10_1557	s	s	10	4	SIC	319	2_4	2	4	4	3	23_4_3	2	1	1	0	0.368902921677	-346.0	307.0	-355.0	305.0	1
3.0.1	2019_Mar_10_1557	s	s	10	4	SIC	320	2_3	2	3	1	2	23_1_2	-1	1	1	0	2.81601285934	117.0	-336.0	125.0	-334.0	1
3.0.1	2019_Mar_10_1557	s	s	10	4	SIC	321	ABS	0	0	2	2	24_2_2	NA	NA	0	1	5.08537602425	None	None	None	None	1
3.0.1	2019_Mar_10_1557	s	s	10	4	SIC	322	ABS	0	0	3	4	24_3_4	NA	NA	0	1	2.02521419525	None	None	None	None	1
3.0.1	2019_Mar_10_1557	s	s	10	4	SIC	323	ABS	0	0	3	2	24_3_2	NA	NA	0	1	4.58615708351	None	None	None	None	1
3.0.1	2019_Mar_10_1557	s	s	10	4	SIC	324	4_2	4	2	2	1	23_2_1	2	-1	1	0	0.422766923904	272.0	-218.0	280.0	-217.0	1
3.0.1	2019_Mar_10_1557	s	s	10	4	SIC	325	2_3	2	3	1	1	23_1_1	-1	2	1	0	1.04605484009	-153.0	-29.0	-156.0	-36.0	1
3.0.1	2019_Mar_10_1557	s	s	10	4	SIC	326	ABS	0	0	4	3	24_4_3	NA	NA	0	1	5.72442913055	None	None	None	None	1
3.0.1	2019_Mar_10_1557	s	s	10	4	SIC	327	ABS	0	0	4	2	24_4_2	NA	NA	0	1	6.11523103714	None	None	None	None	1
3.0.1	2019_Mar_10_1557	s	s	10	4	SIC	328	2_4	2	4	3	1	23_3_1	1	3	1	0	0.516831874847	-1.0	174.0	-5.0	175.0	1
3.0.1	2019_Mar_10_1557	s	s	10	4	SIC	329	ABS	0	0	1	2	24_1_2	NA	NA	0	1	6.17391610146	None	None	None	None	1
3.0.1	2019_Mar_10_1557	s	s	10	4	SIC	330	ABS	0	0	1	2	24_1_2	NA	NA	0	1	8.09631705284	None	None	None	None	1
3.0.1	2019_Mar_10_1557	s	s	10	4	SIC	331	ABS	0	0	1	3	24_1_3	NA	NA	0	1	5.91526699066	None	None	None	None	1
3.0.1	2019_Mar_10_1557	s	s	10	4	SIC	332	4_1	4	1	2	1	23_2_1	2	0	1	0	0.496175050735	-175.0	-75.0	-164.0	-69.0	1
3.0.1	2019_Mar_10_1557	s	s	10	4	SIC	333	2_2	2	2	4	2	23_4_2	2	0	1	0	0.352120876312	1.0	215.0	-8.0	223.0	1
3.0.1	2019_Mar_10_1557	s	s	10	4	SIC	334	ABS	0	0	2	1	24_2_1	NA	NA	0	1	10.352763176	None	None	None	None	1
3.0.1	2019_Mar_10_1557	s	s	10	4	SIC	335	2_4	2	4	3	4	23_3_4	1	0	1	0	0.695981025696	-427.0	77.0	-429.0	81.0	1
3.0.1	2019_Mar_10_1557	s	s	10	4	SIC	336	ABS	0	0	3	2	24_3_2	NA	NA	0	1	5.70954108238	None	None	None	None	1
3.0.1	2019_Mar_10_1557	s	s	10	4	SIC	337	ABS	0	0	3	3	24_3_3	NA	NA	0	1	5.37418484688	None	None	None	None	1
3.0.1	2019_Mar_10_1557	s	s	10	4	SIC	338	3_1	3	1	4	1	23_4_1	-1	0	1	0	0.404093980789	-520.0	-96.0	-524.0	-98.0	1
3.0.1	2019_Mar_10_1557	s	s	10	4	SIC	339	ABS	0	0	1	1	24_1_1	NA	NA	0	1	4.4979801178	None	None	None	None	1
3.0.1	2019_Mar_10_1557	s	s	10	4	SIC	340	ABS	0	0	1	2	24_1_2	NA	NA	0	1	7.27955794334	None	None	None	None	1
3.0.1	2019_Mar_10_1557	s	s	10	4	SIC	341	1_1	1	1	3	3	23_3_3	2	2	1	0	0.628072977066	209.0	-105.0	213.0	-100.0	1
3.0.1	2019_Mar_10_1557	s	s	10	4	SIC	342	ABS	0	0	2	2	24_2_2	NA	NA	0	1	9.33767104149	None	None	None	None	1
3.0.1	2019_Mar_10_1557	s	s	10	4	SIC	343	ABS	0	0	1	4	24_1_4	NA	NA	0	1	3.36301517487	None	None	None	None	1
3.0.1	2019_Mar_10_1557	s	s	10	4	SIC	344	ABS	0	0	2	2	24_2_2	NA	NA	0	1	4.92056512833	None	None	None	None	1
3.0.1	2019_Mar_10_1557	s	s	10	4	SIC	345	ABS	0	0	2	4	24_2_4	NA	NA	0	1	3.35126900673	None	None	None	None	1
3.0.1	2019_Mar_10_1557	s	s	10	4	SIC	346	4_4	4	4	1	4	23_1_4	3	0	1	0	0.446273088455	198.0	312.0	197.0	321.0	1
3.0.1	2019_Mar_10_1557	s	s	10	4	SIC	347	ABS	0	0	4	4	24_4_4	NA	NA	0	1	0.356475830078	None	None	None	None	1
3.0.1	2019_Mar_10_1557	s	s	10	4	SIC	348	3_4	3	4	2	2	23_2_2	1	2	1	0	0.469753026962	-138.0	-285.0	-132.0	-287.0	1
3.0.1	2019_Mar_10_1557	s	s	10	4	SIC	349	ABS	0	0	3	4	24_3_4	NA	NA	0	1	4.37740898132	None	None	None	None	1
3.0.1	2019_Mar_10_1557	s	s	10	4	SIC	350	ABS	0	0	3	4	24_3_4	NA	NA	0	1	2.70433092117	None	None	None	None	1
3.0.1	2019_Mar_10_1557	s	s	10	4	SIC	351	ABS	0	0	1	4	24_1_4	NA	NA	0	1	4.66278290749	None	None	None	None	1
3.0.1	2019_Mar_10_1557	s	s	10	4	SIC	352	2_2	2	2	3	3	23_3_3	1	1	1	0	0.540334939957	-487.0	-333.0	-486.0	-330.0	1
3.0.1	2019_Mar_10_1557	s	s	10	4	SIC	353	4_4	4	4	3	2	23_3_2	1	2	1	0	0.387446880341	-526.0	-305.0	-524.0	-306.0	1
3.0.1	2019_Mar_10_1557	s	s	10	4	SIC	354	3_3	3	3	3	1	23_3_1	0	2	1	0	3.00122499466	331.0	-106.0	336.0	-107.0	1
3.0.1	2019_Mar_10_1557	s	s	10	4	SIC	355	ABS	0	0	1	1	24_1_1	NA	NA	0	1	4.84780216217	None	None	None	None	1
3.0.1	2019_Mar_10_1557	s	s	10	4	SIC	356	ABS	0	0	1	1	24_1_1	NA	NA	0	1	5.78971791267	None	None	None	None	1
3.0.1	2019_Mar_10_1557	s	s	10	4	SIC	357	4_4	4	4	4	2	23_4_2	0	2	1	0	3.46890997887	379.0	-380.0	380.0	-370.0	1
3.0.1	2019_Mar_10_1557	s	s	10	4	SIC	358	3_3	3	3	1	4	23_1_4	2	-1	1	0	0.481585025787	-467.0	-121.0	-468.0	-119.0	1
3.0.1	2019_Mar_10_1557	s	s	10	4	SIC	359	ABS	0	0	2	4	24_2_4	NA	NA	0	1	4.59115695953	None	None	None	None	1
3.0.1	2019_Mar_10_1557	s	s	10	4	SIC	360	3_4	3	4	2	4	23_2_4	1	0	1	0	1.0973610878	-520.0	207.0	-518.0	207.0	1
3.0.1	2019_Mar_10_1557	s	s	10	4	SIC	361	3_1	3	1	2	4	23_2_4	1	3	1	0	0.698349952698	-280.0	-297.0	-287.0	-298.0	1
3.0.1	2019_Mar_10_1557	s	s	10	4	SIC	362	ABS	0	0	3	3	24_3_3	NA	NA	0	1	4.13256406784	None	None	None	None	1
3.0.1	2019_Mar_10_1557	s	s	10	4	SIC	363	2_2	2	2	3	2	23_3_2	1	0	1	0	0.493403911591	-171.0	170.0	-174.0	166.0	1
3.0.1	2019_Mar_10_1557	s	s	10	4	SIC	364	ABS	0	0	4	2	24_4_2	NA	NA	0	1	4.16765284538	None	None	None	None	1
3.0.1	2019_Mar_10_1557	s	s	10	4	SIC	365	2_2	2	2	4	4	23_4_4	2	2	1	0	0.404726028442	163.0	3.0	161.0	0.0	1
3.0.1	2019_Mar_10_1557	s	s	10	4	SIC	366	ABS	0	0	4	4	24_4_4	NA	NA	0	1	3.3074529171	None	None	None	None	1
3.0.1	2019_Mar_10_1557	s	s	10	4	SIC	367	ABS	0	0	4	4	24_4_4	NA	NA	0	1	2.28100705147	None	None	None	None	1
3.0.1	2019_Mar_10_1557	s	s	10	4	SIC	368	4_3	4	3	2	1	23_2_1	2	2	1	0	0.452693939209	-163.0	-250.0	-154.0	-246.0	1
3.0.1	2019_Mar_10_1557	s	s	10	4	SIC	369	ABS	0	0	3	2	24_3_2	NA	NA	0	1	4.16827487946	None	None	None	None	1
3.0.1	2019_Mar_10_1557	s	s	10	4	SIC	370	2_3	2	3	4	4	23_4_4	2	-1	1	0	0.384046792984	-58.0	-86.0	-50.0	-80.0	1
3.0.1	2019_Mar_10_1557	s	s	10	4	SIC	371	2_3	2	3	2	2	23_2_2	0	1	1	0	4.02454710007	-169.0	107.0	-170.0	115.0	1
3.0.1	2019_Mar_10_1557	s	s	10	4	SIC	372	1_1	1	1	4	3	23_4_3	3	2	1	0	0.3991959095	416.0	406.0	408.0	400.0	1
3.0.1	2019_Mar_10_1557	s	s	10	4	SIC	373	ABS	0	0	2	1	24_2_1	NA	NA	0	1	4.36279416084	None	None	None	None	1
3.0.1	2019_Mar_10_1557	s	s	10	4	SIC	374	ABS	0	0	1	1	24_1_1	NA	NA	0	1	4.67130708694	None	None	None	None	1
3.0.1	2019_Mar_10_1557	s	s	10	4	SIC	375	2_1	2	1	1	1	23_1_1	-1	0	1	0	3.85251402855	-89.0	-119.0	-81.0	-121.0	1
3.0.1	2019_Mar_10_1557	s	s	10	4	SIC	376	2_2	2	2	2	4	23_2_4	0	2	1	0	0.731400966644	-234.0	-325.0	-233.0	-315.0	1
3.0.1	2019_Mar_10_1557	s	s	10	4	SIC	377	4_3	4	3	3	4	23_3_4	1	-1	1	0	0.378571033478	-233.0	-210.0	-231.0	-211.0	1
3.0.1	2019_Mar_10_1557	s	s	10	4	SIC	378	2_4	2	4	2	3	23_2_3	0	1	1	0	1.21743798256	461.0	338.0	468.0	335.0	1
3.0.1	2019_Mar_10_1557	s	s	10	4	SIC	379	ABS	0	0	2	3	24_2_3	NA	NA	0	1	6.63694810867	None	None	None	None	1
3.0.1	2019_Mar_10_1557	s	s	10	4	SIC	380	4_2	4	2	3	1	23_3_1	1	-1	1	0	0.386470079422	462.0	86.0	471.0	91.0	1
3.0.1	2019_Mar_10_1557	s	s	10	4	SIC	381	ABS	0	0	1	3	24_1_3	NA	NA	0	1	8.72896981239	None	None	None	None	1
3.0.1	2019_Mar_10_1557	s	s	10	4	SIC	382	4_2	4	2	2	3	23_2_3	2	1	1	0	0.474257946014	-219.0	-79.0	-224.0	-83.0	1
3.0.1	2019_Mar_10_1557	s	s	10	4	SIC	383	ABS	0	0	4	2	24_4_2	NA	NA	0	1	7.17352390289	None	None	None	None	1
3.0.1	2019_Mar_10_1557	s	s	10	4	SIC	384	2_4	2	4	1	3	23_1_3	-1	1	1	0	0.547066926956	-192.0	-200.0	-191.0	-195.0	1
3.0.1	2019_Mar_10_1557	s	s	10	4	SIC	385	ABS	0	0	3	3	24_3_3	NA	NA	0	1	5.26833105087	None	None	None	None	1
3.0.1	2019_Mar_10_1557	s	s	10	4	SIC	386	ABS	0	0	3	4	24_3_4	NA	NA	0	1	3.16751599312	None	None	None	None	1
3.0.1	2019_Mar_10_1557	s	s	10	4	SIC	387	3_2	3	2	2	2	23_2_2	1	0	1	0	0.693619012833	-87.0	-399.0	-89.0	-398.0	1
3.0.1	2019_Mar_10_1557	s	s	10	4	SIC	388	1_3	1	3	4	1	23_4_1	3	2	1	0	0.399150848389	-474.0	311.0	-477.0	320.0	1
3.0.1	2019_Mar_10_1557	s	s	10	4	SIC	389	ABS	0	0	4	4	24_4_4	NA	NA	0	1	2.45766687393	None	None	None	None	1
3.0.1	2019_Mar_10_1557	s	s	10	4	SIC	390	2_1	2	1	4	1	23_4_1	2	0	1	0	0.345474004745	-327.0	-52.0	-333.0	-48.0	1
3.0.1	2019_Mar_10_1557	s	s	10	4	SIC	391	1_3	1	3	2	2	23_2_2	1	1	1	0	1.57532405853	-450.0	-321.0	-445.0	-312.0	1
3.0.1	2019_Mar_10_1557	s	s	10	4	SIC	392	3_2	3	2	3	4	23_3_4	0	2	1	0	0.810892105103	-443.0	-353.0	-445.0	-351.0	1
3.0.1	2019_Mar_10_1557	s	s	10	4	SIC	393	ABS	0	0	4	2	24_4_2	NA	NA	0	1	5.70775198936	None	None	None	None	1
3.0.1	2019_Mar_10_1557	s	s	10	4	SIC	394	1_3	1	3	4	4	23_4_4	3	-1	1	0	0.505028009415	-46.0	-336.0	-42.0	-334.0	1
3.0.1	2019_Mar_10_1557	s	s	10	4	SIC	395	ABS	0	0	4	3	24_4_3	NA	NA	0	1	6.00169205666	None	None	None	None	1
3.0.1	2019_Mar_10_1557	s	s	10	4	SIC	396	1_1	1	1	2	1	23_2_1	1	0	1	0	3.67166996002	381.0	-170.0	378.0	-165.0	1
3.0.1	2019_Mar_10_1557	s	s	10	4	SIC	397	3_2	3	2	1	4	23_1_4	2	2	1	0	0.519643068314	-428.0	268.0	-427.0	266.0	1
3.0.1	2019_Mar_10_1557	s	s	10	4	SIC	398	ABS	0	0	2	1	24_2_1	NA	NA	0	1	4.25977802277	None	None	None	None	1
3.0.1	2019_Mar_10_1557	s	s	10	4	SIC	399	3_3	3	3	2	4	23_2_4	1	-1	1	0	0.4580078125	-468.0	-150.0	-465.0	-154.0	1
3.0.1	2019_Mar_10_1557	s	s	10	4	SIC	400	ABS	0	0	4	1	24_4_1	NA	NA	0	1	4.55371308327	None	None	None	None	1
3.0.1	2019_Mar_10_1557	s	s	10	4	SIC	401	ABS	0	0	2	4	24_2_4	NA	NA	0	1	5.79756712914	None	None	None	None	1
3.0.1	2019_Mar_10_1557	s	s	10	4	SIC	402	ABS	0	0	2	4	24_2_4	NA	NA	0	1	5.31825399399	None	None	None	None	1
3.0.1	2019_Mar_10_1557	s	s	10	4	SIC	403	1_1	1	1	1	3	23_1_3	0	2	1	0	1.88599705696	187.0	182.0	199.0	187.0	1
3.0.1	2019_Mar_10_1557	s	s	10	4	SIC	404	4_3	4	3	1	1	23_1_1	3	2	1	0	0.378540992737	-251.0	190.0	-247.0	188.0	1
3.0.1	2019_Mar_10_1557	s	s	10	4	SIC	405	ABS	0	0	2	2	24_2_2	NA	NA	0	1	1.98692107201	None	None	None	None	1
3.0.1	2019_Mar_10_1557	s	s	10	4	SIC	406	4_3	4	3	1	3	23_1_3	3	0	1	0	0.410909891129	-24.0	173.0	-21.0	159.0	1
3.0.1	2019_Mar_10_1557	s	s	10	4	SIC	407	ABS	0	0	1	1	24_1_1	NA	NA	0	1	5.91524410248	None	None	None	None	1
3.0.1	2019_Mar_10_1557	s	s	10	4	SIC	408	ABS	0	0	1	4	24_1_4	NA	NA	0	1	3.35124492645	None	None	None	None	1
3.0.1	2019_Mar_10_1557	s	s	10	4	SIC	409	ABS	0	0	3	1	24_3_1	NA	NA	0	1	4.45677709579	None	None	None	None	1
3.0.1	2019_Mar_10_1557	s	s	10	4	SIC	410	ABS	0	0	3	2	24_3_2	NA	NA	0	1	5.90697979927	None	None	None	None	1
3.0.1	2019_Mar_10_1557	s	s	10	4	SIC	411	ABS	0	0	1	3	24_1_3	NA	NA	0	1	6.20926094055	None	None	None	None	1
3.0.1	2019_Mar_10_1557	s	s	10	4	SIC	412	ABS	0	0	4	2	24_4_2	NA	NA	0	1	3.82170915604	None	None	None	None	1
3.0.1	2019_Mar_10_1557	s	s	10	4	SIC	413	2_4	2	4	4	1	23_4_1	2	3	1	0	0.51686501503	-314.0	-324.0	-313.0	-317.0	1
3.0.1	2019_Mar_10_1557	s	s	10	4	SIC	414	ABS	0	0	4	4	24_4_4	NA	NA	0	1	3.13441109657	None	None	None	None	1
3.0.1	2019_Mar_10_1557	s	s	10	4	SIC	415	ABS	0	0	4	1	24_4_1	NA	NA	0	1	2.97502207756	None	None	None	None	1
3.0.1	2019_Mar_10_1557	s	s	10	4	SIC	416	1_1	1	1	2	4	23_2_4	1	3	1	0	0.681473016739	-15.0	358.0	-15.0	354.0	1
3.0.1	2019_Mar_10_1557	s	s	10	4	SIC	417	3_3	3	3	4	1	23_4_1	-1	2	1	0	0.393416881561	452.0	71.0	461.0	77.0	1
3.0.1	2019_Mar_10_1557	s	s	10	4	SIC	418	1_4	1	4	2	4	23_2_4	1	0	1	0	3.83775401115	350.0	58.0	344.0	60.0	1
3.0.1	2019_Mar_10_1557	s	s	10	4	SIC	419	ABS	0	0	1	2	24_1_2	NA	NA	0	1	5.64463114738	None	None	None	None	1
3.0.1	2019_Mar_10_1557	s	s	10	4	SIC	420	ABS	0	0	4	3	24_4_3	NA	NA	0	1	5.7788901329	None	None	None	None	1
3.0.1	2019_Mar_10_1557	s	s	10	4	SIC	421	3_4	3	4	4	4	23_4_4	-1	0	1	0	0.555014133453	-35.0	380.0	-40.0	385.0	1
3.0.1	2019_Mar_10_1557	s	s	10	4	SIC	422	ABS	0	0	1	3	24_1_3	NA	NA	0	1	6.49475502968	None	None	None	None	1
3.0.1	2019_Mar_10_1557	s	s	10	4	SIC	423	ABS	0	0	1	3	24_1_3	NA	NA	0	1	6.21394491196	None	None	None	None	1
3.0.1	2019_Mar_10_1557	s	s	10	4	SIC	424	ABS	0	0	1	4	24_1_4	NA	NA	0	1	5.32726597786	None	None	None	None	1
3.0.1	2019_Mar_10_1557	s	s	10	4	SIC	425	3_3	3	3	2	2	23_2_2	1	1	1	0	1.73119497299	98.0	-213.0	98.0	-218.0	1
3.0.1	2019_Mar_10_1557	s	s	10	4	SIC	426	ABS	0	0	4	4	24_4_4	NA	NA	0	1	8.47603797913	None	None	None	None	1
3.0.1	2019_Mar_10_1557	s	s	10	4	SIC	427	3_4	3	4	2	1	23_2_1	1	3	1	0	0.543220043182	416.0	92.0	421.0	92.0	1
3.0.1	2019_Mar_10_1557	s	s	10	4	SIC	428	ABS	0	0	2	2	24_2_2	NA	NA	0	1	8.52615499496	None	None	None	None	1
3.0.1	2019_Mar_10_1557	s	s	10	4	SIC	429	ABS	0	0	2	1	24_2_1	NA	NA	0	1	8.61650300026	None	None	None	None	1
3.0.1	2019_Mar_10_1557	s	s	10	4	SIC	430	2_3	2	3	3	4	23_3_4	1	-1	1	0	0.528551101685	-493.0	-398.0	-481.0	-395.0	1
3.0.1	2019_Mar_10_1557	s	s	10	4	SIC	431	ABS	0	0	3	2	24_3_2	NA	NA	0	1	2.67846894264	None	None	None	None	1
3.0.1	2019_Mar_10_1557	s	s	10	4	SIC	432	1_2	1	2	2	4	23_2_4	1	2	1	0	0.646312952042	-264.0	-195.0	-267.0	-197.0	1
3.0.1	2019_Mar_10_1557	s	s	10	4	SIC	433	3_3	3	3	4	3	23_4_3	-1	0	1	0	0.392330169678	290.0	-278.0	283.0	-276.0	1
3.0.1	2019_Mar_10_1557	s	s	10	4	SIC	434	4_1	4	1	1	4	23_1_4	3	3	1	0	0.356226921082	-445.0	-375.0	-437.0	-370.0	1
3.0.1	2019_Mar_10_1557	s	s	10	4	SIC	435	ABS	0	0	1	1	24_1_1	NA	NA	0	1	4.409719944	None	None	None	None	1
3.0.1	2019_Mar_10_1557	s	s	10	4	SIC	436	ABS	0	0	4	3	24_4_3	NA	NA	0	1	4.60458397865	None	None	None	None	1
3.0.1	2019_Mar_10_1557	s	s	10	4	SIC	437	1_4	1	4	3	4	23_3_4	2	0	1	0	0.555008888245	339.0	169.0	348.0	168.0	1
3.0.1	2019_Mar_10_1557	s	s	10	4	SIC	438	4_1	4	1	3	2	23_3_2	1	1	1	0	0.470186948776	427.0	-48.0	436.0	-52.0	1
3.0.1	2019_Mar_10_1557	s	s	10	4	SIC	439	ABS	0	0	4	1	24_4_1	NA	NA	0	1	3.08077192307	None	None	None	None	1
3.0.1	2019_Mar_10_1557	s	s	10	4	SIC	440	ABS	0	0	4	4	24_4_4	NA	NA	0	1	2.9072470665	None	None	None	None	1
3.0.1	2019_Mar_10_1557	s	s	10	4	SIC	441	1_1	1	1	1	4	23_1_4	0	3	1	0	0.554963827133	335.0	248.0	342.0	250.0	1
3.0.1	2019_Mar_10_1557	s	s	10	4	SIC	442	ABS	0	0	2	3	24_2_3	NA	NA	0	1	9.59639000893	None	None	None	None	1
3.0.1	2019_Mar_10_1557	s	s	10	4	SIC	443	2_3	2	3	4	3	23_4_3	2	0	1	0	1.11689186096	-511.0	-244.0	-515.0	-246.0	1
3.0.1	2019_Mar_10_1557	s	s	10	4	SIC	444	2_2	2	2	1	1	23_1_1	-1	-1	1	0	2.02220416069	486.0	-184.0	494.0	-178.0	1
3.0.1	2019_Mar_10_1557	s	s	10	4	SIC	445	2_4	2	4	4	2	23_4_2	2	2	1	0	0.399263143539	-394.0	7.0	-390.0	1.0	1
3.0.1	2019_Mar_10_1557	s	s	10	4	SIC	446	ABS	0	0	2	2	24_2_2	NA	NA	0	1	9.27924609184	None	None	None	None	1
3.0.1	2019_Mar_10_1557	s	s	10	4	SIC	447	4_1	4	1	1	3	23_1_3	3	2	1	0	0.509027957916	260.0	192.0	260.0	180.0	1
3.0.1	2019_Mar_10_1557	s	s	10	4	SIC	448	3_1	3	1	1	1	23_1_1	2	0	1	0	0.43966293335	140.0	-199.0	143.0	-189.0	1
3.0.1	2019_Mar_10_1557	s	s	10	4	SIC	449	3_1	3	1	3	4	23_3_4	0	3	1	0	0.446256875992	-134.0	152.0	-135.0	157.0	1
3.0.1	2019_Mar_10_1557	s	s	10	4	SIC	450	ABS	0	0	4	3	24_4_3	NA	NA	0	1	5.36244606972	None	None	None	None	1
3.0.1	2019_Mar_10_1557	s	s	10	4	SIC	451	ABS	0	0	4	1	24_4_1	NA	NA	0	1	2.32802605629	None	None	None	None	1
3.0.1	2019_Mar_10_1557	s	s	10	4	SIC	452	3_3	3	3	1	3	23_1_3	2	0	1	0	0.563903093338	134.0	154.0	130.0	155.0	1
3.0.1	2019_Mar_10_1557	s	s	10	4	SIC	453	1_4	1	4	4	3	23_4_3	3	1	1	0	0.325065135956	-226.0	4.0	-228.0	2.0	1
3.0.1	2019_Mar_10_1557	s	s	10	4	SIC	454	ABS	0	0	4	3	24_4_3	NA	NA	0	1	3.75108194351	None	None	None	None	1
3.0.1	2019_Mar_10_1557	s	s	10	4	SIC	455	ABS	0	0	2	1	24_2_1	NA	NA	0	1	5.73246598244	None	None	None	None	1
3.0.1	2019_Mar_10_1557	s	s	10	4	SIC	456	ABS	0	0	4	2	24_4_2	NA	NA	0	1	3.6636390686	None	None	None	None	1
3.0.1	2019_Mar_10_1557	s	s	10	4	SIC	457	3_4	3	4	1	1	23_1_1	2	3	1	0	0.481636047363	-239.0	338.0	-229.0	344.0	1
3.0.1	2019_Mar_10_1557	s	s	10	4	SIC	458	1_1	1	1	2	3	23_2_3	1	2	1	0	5.92173600197	-332.0	-228.0	-336.0	-237.0	1
3.0.1	2019_Mar_10_1557	s	s	10	4	SIC	459	3_1	3	1	1	3	23_1_3	2	2	1	0	0.505434036255	193.0	-406.0	193.0	-411.0	1
3.0.1	2019_Mar_10_1557	s	s	10	4	SIC	460	ABS	0	0	1	2	24_1_2	NA	NA	0	1	5.16245484352	None	None	None	None	1
3.0.1	2019_Mar_10_1557	s	s	10	4	SIC	461	3_4	3	4	2	3	23_2_3	1	1	1	0	0.385006904602	-124.0	31.0	-121.0	33.0	1
3.0.1	2019_Mar_10_1557	s	s	10	4	SIC	462	ABS	0	0	1	1	24_1_1	NA	NA	0	1	2.28151702881	None	None	None	None	1
3.0.1	2019_Mar_10_1557	s	s	10	4	SIC	463	3_2	3	2	4	3	23_4_3	-1	1	1	0	0.458034038544	-80.0	-360.0	-76.0	-365.0	1
3.0.1	2019_Mar_10_1557	s	s	10	4	SIC	464	4_1	4	1	4	2	23_4_2	0	1	1	0	2.17506289482	-288.0	289.0	-294.0	284.0	1
3.0.1	2019_Mar_10_1557	s	s	10	4	SIC	465	1_2	1	2	1	1	23_1_1	0	-1	1	0	2.50158715248	124.0	199.0	122.0	205.0	1
3.0.1	2019_Mar_10_1557	s	s	10	4	SIC	466	ABS	0	0	4	1	24_4_1	NA	NA	0	1	2.92783403397	None	None	None	None	1
3.0.1	2019_Mar_10_1557	s	s	10	4	SIC	467	4_2	4	2	4	3	23_4_3	0	1	1	0	2.76326799393	532.0	-75.0	538.0	-72.0	1
3.0.1	2019_Mar_10_1557	s	s	10	4	SIC	468	3_2	3	2	3	3	23_3_3	0	1	1	0	2.41485905647	283.0	225.0	279.0	225.0	1
3.0.1	2019_Mar_10_1557	s	s	10	4	SIC	469	ABS	0	0	3	4	24_3_4	NA	NA	0	1	2.50437712669	None	None	None	None	1
3.0.1	2019_Mar_10_1557	s	s	10	4	SIC	470	ABS	0	0	1	4	24_1_4	NA	NA	0	1	2.92788004875	None	None	None	None	1
3.0.1	2019_Mar_10_1557	s	s	10	4	SIC	471	ABS	0	0	4	1	24_4_1	NA	NA	0	1	2.78671503067	None	None	None	None	1
3.0.1	2019_Mar_10_1557	s	s	10	4	SIC	472	ABS	0	0	3	4	24_3_4	NA	NA	0	1	1.93992781639	None	None	None	None	1
3.0.1	2019_Mar_10_1557	s	s	10	4	SIC	473	4_3	4	3	3	1	23_3_1	1	2	1	0	0.383022069931	-210.0	-118.0	-210.0	-114.0	1
3.0.1	2019_Mar_10_1557	s	s	10	4	SIC	474	ABS	0	0	2	1	24_2_1	NA	NA	0	1	2.98656988144	None	None	None	None	1
3.0.1	2019_Mar_10_1557	s	s	10	4	SIC	475	ABS	0	0	2	3	24_2_3	NA	NA	0	1	6.31903600693	None	None	None	None	1
3.0.1	2019_Mar_10_1557	s	s	10	4	SIC	476	ABS	0	0	4	4	24_4_4	NA	NA	0	1	2.33977293968	None	None	None	None	1
3.0.1	2019_Mar_10_1557	s	s	10	4	SIC	477	1_1	1	1	4	4	23_4_4	3	3	1	0	0.510446071625	468.0	370.0	465.0	370.0	1
3.0.1	2019_Mar_10_1557	s	s	10	4	SIC	478	2_2	2	2	1	3	23_1_3	-1	1	1	0	1.38264107704	246.0	-228.0	249.0	-224.0	1
3.0.1	2019_Mar_10_1557	s	s	10	4	SIC	479	ABS	0	0	1	1	24_1_1	NA	NA	0	1	1.6397550106	None	None	None	None	1
3.0.1	2019_Mar_10_1557	s	s	10	4	SIC	480	4_4	4	4	2	2	23_2_2	2	2	1	0	0.378597974777	-221.0	362.0	-226.0	352.0	1
