Version	Date	Stimuli	Method	Subject	Session	Condition	Trial	Target	TColor	TShape	DColor	DShape	Distractors	Channel1	Channel2	LMouseButton	RMouseButton	RT	TargetX	TargetY	ResponseX	ResponseY	Correct
3.0.1	2019_Mar_10_1408	s	s	11	4	Capacity	1	ABS	0	0	4	1	24_4_1	NA	NA	0	1	0.599272966385	None	None	None	None	1
3.0.1	2019_Mar_10_1408	s	s	11	4	Capacity	2	ABS	0	0	3	1	24_3_1	NA	NA	0	1	0.764218091965	None	None	None	None	1
3.0.1	2019_Mar_10_1408	s	s	11	4	Capacity	3	2_1	2	1	1	1	23_1_1	-1	0	0	1	0.763746976852	-367.0	410.0	None	None	0
3.0.1	2019_Mar_10_1408	s	s	11	4	Capacity	4	ABS	0	0	3	1	24_3_1	NA	NA	0	1	0.763731956482	None	None	None	None	1
3.0.1	2019_Mar_10_1408	s	s	11	4	Capacity	5	1_1	1	1	4	1	23_4_1	3	0	1	0	0.505032062531	-59.0	-14.0	-58.0	-9.0	1
3.0.1	2019_Mar_10_1408	s	s	11	4	Capacity	6	ABS	0	0	1	1	24_1_1	NA	NA	0	1	0.575531959534	None	None	None	None	1
3.0.1	2019_Mar_10_1408	s	s	11	4	Capacity	7	ABS	0	0	2	1	24_2_1	NA	NA	0	1	0.75200510025	None	None	None	None	1
3.0.1	2019_Mar_10_1408	s	s	11	4	Capacity	8	3_1	3	1	1	1	23_1_1	2	0	1	0	0.70977306366	406.0	-339.0	406.0	-332.0	1
3.0.1	2019_Mar_10_1408	s	s	11	4	Capacity	9	4_1	4	1	3	1	23_3_1	1	0	1	0	0.681804895401	477.0	-304.0	483.0	-300.0	1
3.0.1	2019_Mar_10_1408	s	s	11	4	Capacity	10	4_1	4	1	2	1	23_2_1	2	0	1	0	0.528528928757	-25.0	-304.0	-22.0	-294.0	1
3.0.1	2019_Mar_10_1408	s	s	11	4	Capacity	11	1_1	1	1	3	1	23_3_1	2	0	1	0	0.5167491436	196.0	12.0	197.0	18.0	1
3.0.1	2019_Mar_10_1408	s	s	11	4	Capacity	12	1_1	1	1	2	1	23_2_1	1	0	0	1	0.610828876495	-58.0	385.0	None	None	0
3.0.1	2019_Mar_10_1408	s	s	11	4	Capacity	13	ABS	0	0	2	1	24_2_1	NA	NA	0	1	0.693117141724	None	None	None	None	1
3.0.1	2019_Mar_10_1408	s	s	11	4	Capacity	14	2_1	2	1	3	1	23_3_1	1	0	1	0	0.956670999527	-532.0	-345.0	-529.0	-343.0	1
3.0.1	2019_Mar_10_1408	s	s	11	4	Capacity	15	3_1	3	1	4	1	23_4_1	-1	0	1	0	0.641113996506	88.0	-372.0	86.0	-374.0	1
3.0.1	2019_Mar_10_1408	s	s	11	4	Capacity	16	ABS	0	0	1	1	24_1_1	NA	NA	0	1	0.619604110718	None	None	None	None	1
3.0.1	2019_Mar_10_1408	s	s	11	4	Capacity	17	ABS	0	0	3	1	24_3_1	NA	NA	0	1	0.898334026337	None	None	None	None	1
3.0.1	2019_Mar_10_1408	s	s	11	4	Capacity	18	2_1	2	1	4	1	23_4_1	2	0	1	0	0.559342861176	38.0	-217.0	34.0	-218.0	1
3.0.1	2019_Mar_10_1408	s	s	11	4	Capacity	19	ABS	0	0	4	1	24_4_1	NA	NA	0	1	0.672935009003	None	None	None	None	1
3.0.1	2019_Mar_10_1408	s	s	11	4	Capacity	20	4_1	4	1	1	1	23_1_1	3	0	1	0	0.563803911209	87.0	-330.0	90.0	-322.0	1
3.0.1	2019_Mar_10_1408	s	s	11	4	Capacity	21	3_1	3	1	2	1	23_2_1	1	0	1	0	0.569021940231	-389.0	-333.0	-387.0	-324.0	1
3.0.1	2019_Mar_10_1408	s	s	11	4	Capacity	22	ABS	0	0	4	1	24_4_1	NA	NA	0	1	0.570178031921	None	None	None	None	1
3.0.1	2019_Mar_10_1408	s	s	11	4	Capacity	23	ABS	0	0	2	1	24_2_1	NA	NA	0	1	0.634318828583	None	None	None	None	1
3.0.1	2019_Mar_10_1408	s	s	11	4	Capacity	24	ABS	0	0	1	1	24_1_1	NA	NA	0	1	0.606029033661	None	None	None	None	1
3.0.1	2019_Mar_10_1408	s	s	11	4	Capacity	25	ABS	0	0	4	1	24_4_1	NA	NA	0	1	0.563790082932	None	None	None	None	1
3.0.1	2019_Mar_10_1408	s	s	11	4	Capacity	26	1_1	1	1	2	1	23_2_1	1	0	0	1	0.540353059769	384.0	43.0	None	None	0
3.0.1	2019_Mar_10_1408	s	s	11	4	Capacity	27	1_1	1	1	3	1	23_3_1	2	0	1	0	0.474366188049	63.0	270.0	61.0	272.0	1
3.0.1	2019_Mar_10_1408	s	s	11	4	Capacity	28	ABS	0	0	1	1	24_1_1	NA	NA	0	1	0.606514930725	None	None	None	None	1
3.0.1	2019_Mar_10_1408	s	s	11	4	Capacity	29	ABS	0	0	2	1	24_2_1	NA	NA	0	1	0.587299823761	None	None	None	None	1
3.0.1	2019_Mar_10_1408	s	s	11	4	Capacity	30	ABS	0	0	4	1	24_4_1	NA	NA	0	1	0.579842090607	None	None	None	None	1
3.0.1	2019_Mar_10_1408	s	s	11	4	Capacity	31	3_1	3	1	1	1	23_1_1	2	0	1	0	0.651201963425	308.0	-356.0	308.0	-350.0	1
3.0.1	2019_Mar_10_1408	s	s	11	4	Capacity	32	ABS	0	0	3	1	24_3_1	NA	NA	0	1	0.736656904221	None	None	None	None	1
3.0.1	2019_Mar_10_1408	s	s	11	4	Capacity	33	ABS	0	0	3	1	24_3_1	NA	NA	0	1	0.606084108353	None	None	None	None	1
3.0.1	2019_Mar_10_1408	s	s	11	4	Capacity	34	3_1	3	1	2	1	23_2_1	1	0	1	0	0.709641933441	354.0	-319.0	352.0	-324.0	1
3.0.1	2019_Mar_10_1408	s	s	11	4	Capacity	35	4_1	4	1	3	1	23_3_1	1	0	1	0	0.500434160233	-72.0	397.0	-66.0	398.0	1
3.0.1	2019_Mar_10_1408	s	s	11	4	Capacity	36	4_1	4	1	1	1	23_1_1	3	0	1	0	0.481492996216	-404.0	254.0	-404.0	260.0	1
3.0.1	2019_Mar_10_1408	s	s	11	4	Capacity	37	ABS	0	0	2	1	24_2_1	NA	NA	0	1	0.613746166229	None	None	None	None	1
3.0.1	2019_Mar_10_1408	s	s	11	4	Capacity	38	ABS	0	0	4	1	24_4_1	NA	NA	0	1	0.663021087646	None	None	None	None	1
3.0.1	2019_Mar_10_1408	s	s	11	4	Capacity	39	2_1	2	1	1	1	23_1_1	-1	0	0	1	0.693117856979	-287.0	113.0	None	None	0
3.0.1	2019_Mar_10_1408	s	s	11	4	Capacity	40	ABS	0	0	3	1	24_3_1	NA	NA	0	1	0.790162086487	None	None	None	None	1
3.0.1	2019_Mar_10_1408	s	s	11	4	Capacity	41	4_1	4	1	2	1	23_2_1	2	0	1	0	0.449192047119	-121.0	-216.0	-116.0	-213.0	1
3.0.1	2019_Mar_10_1408	s	s	11	4	Capacity	42	2_1	2	1	3	1	23_3_1	1	0	1	0	0.964108943939	351.0	253.0	342.0	255.0	1
3.0.1	2019_Mar_10_1408	s	s	11	4	Capacity	43	ABS	0	0	1	1	24_1_1	NA	NA	0	1	0.575577974319	None	None	None	None	1
3.0.1	2019_Mar_10_1408	s	s	11	4	Capacity	44	3_1	3	1	4	1	23_4_1	-1	0	1	0	0.782300949097	466.0	297.0	472.0	297.0	1
3.0.1	2019_Mar_10_1408	s	s	11	4	Capacity	45	ABS	0	0	2	1	24_2_1	NA	NA	0	1	1.16363811493	None	None	None	None	1
3.0.1	2019_Mar_10_1408	s	s	11	4	Capacity	46	2_1	2	1	4	1	23_4_1	2	0	1	0	0.555021047592	494.0	100.0	501.0	94.0	1
3.0.1	2019_Mar_10_1408	s	s	11	4	Capacity	47	ABS	0	0	1	1	24_1_1	NA	NA	0	1	0.928889989853	None	None	None	None	1
3.0.1	2019_Mar_10_1408	s	s	11	4	Capacity	48	1_1	1	1	4	1	23_4_1	3	0	1	0	0.505037069321	26.0	10.0	27.0	13.0	1
3.0.1	2019_Mar_10_1408	s	s	11	4	Capacity	49	4_1	4	1	2	1	23_2_1	2	0	1	0	0.533587932587	-471.0	338.0	-477.0	343.0	1
3.0.1	2019_Mar_10_1408	s	s	11	4	Capacity	50	ABS	0	0	2	1	24_2_1	NA	NA	0	1	0.599109172821	None	None	None	None	1
3.0.1	2019_Mar_10_1408	s	s	11	4	Capacity	51	ABS	0	0	2	1	24_2_1	NA	NA	0	1	0.716667175293	None	None	None	None	1
3.0.1	2019_Mar_10_1408	s	s	11	4	Capacity	52	ABS	0	0	1	1	24_1_1	NA	NA	0	1	0.57550907135	None	None	None	None	1
3.0.1	2019_Mar_10_1408	s	s	11	4	Capacity	53	ABS	0	0	4	1	24_4_1	NA	NA	0	1	0.869536876678	None	None	None	None	1
3.0.1	2019_Mar_10_1408	s	s	11	4	Capacity	54	3_1	3	1	2	1	23_2_1	1	0	1	0	0.681447029114	481.0	394.0	484.0	389.0	1
3.0.1	2019_Mar_10_1408	s	s	11	4	Capacity	55	ABS	0	0	4	1	24_4_1	NA	NA	0	1	0.756942987442	None	None	None	None	1
3.0.1	2019_Mar_10_1408	s	s	11	4	Capacity	56	ABS	0	0	1	1	24_1_1	NA	NA	0	1	0.575578927994	None	None	None	None	1
3.0.1	2019_Mar_10_1408	s	s	11	4	Capacity	57	ABS	0	0	4	1	24_4_1	NA	NA	0	1	0.505023956299	None	None	None	None	1
3.0.1	2019_Mar_10_1408	s	s	11	4	Capacity	58	2_1	2	1	1	1	23_1_1	-1	0	0	1	0.51011800766	-233.0	-400.0	None	None	0
3.0.1	2019_Mar_10_1408	s	s	11	4	Capacity	59	ABS	0	0	2	1	24_2_1	NA	NA	0	1	0.916632890701	None	None	None	None	1
3.0.1	2019_Mar_10_1408	s	s	11	4	Capacity	60	2_1	2	1	3	1	23_3_1	1	0	1	0	0.763683080673	403.0	-277.0	405.0	-282.0	1
3.0.1	2019_Mar_10_1408	s	s	11	4	Capacity	61	4_1	4	1	1	1	23_1_1	3	0	1	0	0.457879066467	354.0	149.0	350.0	153.0	1
3.0.1	2019_Mar_10_1408	s	s	11	4	Capacity	62	1_1	1	1	3	1	23_3_1	2	0	1	0	0.516725063324	322.0	-5.0	326.0	-4.0	1
3.0.1	2019_Mar_10_1408	s	s	11	4	Capacity	63	1_1	1	1	4	1	23_4_1	3	0	1	0	0.460916042328	116.0	-358.0	120.0	-355.0	1
3.0.1	2019_Mar_10_1408	s	s	11	4	Capacity	64	ABS	0	0	3	1	24_3_1	NA	NA	0	1	0.848998069763	None	None	None	None	1
3.0.1	2019_Mar_10_1408	s	s	11	4	Capacity	65	ABS	0	0	1	1	24_1_1	NA	NA	0	1	0.791148900986	None	None	None	None	1
3.0.1	2019_Mar_10_1408	s	s	11	4	Capacity	66	2_1	2	1	4	1	23_4_1	2	0	1	0	0.540267944336	-106.0	-401.0	-103.0	-412.0	1
3.0.1	2019_Mar_10_1408	s	s	11	4	Capacity	67	3_1	3	1	4	1	23_4_1	-1	0	1	0	0.486862897873	-144.0	-175.0	-145.0	-171.0	1
3.0.1	2019_Mar_10_1408	s	s	11	4	Capacity	68	3_1	3	1	1	1	23_1_1	2	0	1	0	0.540324926376	-438.0	188.0	-443.0	191.0	1
3.0.1	2019_Mar_10_1408	s	s	11	4	Capacity	69	ABS	0	0	3	1	24_3_1	NA	NA	0	1	0.893100976944	None	None	None	None	1
3.0.1	2019_Mar_10_1408	s	s	11	4	Capacity	70	1_1	1	1	2	1	23_2_1	1	0	0	1	0.822527170181	173.0	379.0	None	None	0
3.0.1	2019_Mar_10_1408	s	s	11	4	Capacity	71	ABS	0	0	3	1	24_3_1	NA	NA	0	1	0.822571992874	None	None	None	None	1
3.0.1	2019_Mar_10_1408	s	s	11	4	Capacity	72	4_1	4	1	3	1	23_3_1	1	0	1	0	0.556928157806	-153.0	95.0	-143.0	96.0	1
3.0.1	2019_Mar_10_1408	s	s	11	4	Capacity	73	4_1	4	1	1	1	23_1_1	3	0	1	0	0.446187973022	-8.0	284.0	-4.0	293.0	1
3.0.1	2019_Mar_10_1408	s	s	11	4	Capacity	74	ABS	0	0	1	1	24_1_1	NA	NA	0	1	0.672973155975	None	None	None	None	1
3.0.1	2019_Mar_10_1408	s	s	11	4	Capacity	75	1_1	1	1	2	1	23_2_1	1	0	0	1	0.592219829559	-525.0	116.0	None	None	0
3.0.1	2019_Mar_10_1408	s	s	11	4	Capacity	76	ABS	0	0	1	1	24_1_1	NA	NA	0	1	0.716753005981	None	None	None	None	1
3.0.1	2019_Mar_10_1408	s	s	11	4	Capacity	77	1_1	1	1	4	1	23_4_1	3	0	1	0	0.469691038132	-529.0	-108.0	-518.0	-99.0	1
3.0.1	2019_Mar_10_1408	s	s	11	4	Capacity	78	3_1	3	1	1	1	23_1_1	2	0	1	0	0.469752073288	279.0	145.0	274.0	147.0	1
3.0.1	2019_Mar_10_1408	s	s	11	4	Capacity	79	2_1	2	1	3	1	23_3_1	1	0	1	0	0.507927179337	-184.0	362.0	-185.0	360.0	1
3.0.1	2019_Mar_10_1408	s	s	11	4	Capacity	80	1_1	1	1	3	1	23_3_1	2	0	1	0	0.51084113121	-82.0	-32.0	-86.0	-37.0	1
3.0.1	2019_Mar_10_1408	s	s	11	4	Capacity	81	ABS	0	0	3	1	24_3_1	NA	NA	0	1	0.869612932205	None	None	None	None	1
3.0.1	2019_Mar_10_1408	s	s	11	4	Capacity	82	ABS	0	0	2	1	24_2_1	NA	NA	0	1	0.770658969879	None	None	None	None	1
3.0.1	2019_Mar_10_1408	s	s	11	4	Capacity	83	ABS	0	0	1	1	24_1_1	NA	NA	0	1	0.639262914658	None	None	None	None	1
3.0.1	2019_Mar_10_1408	s	s	11	4	Capacity	84	ABS	0	0	2	1	24_2_1	NA	NA	0	1	0.971210002899	None	None	None	None	1
3.0.1	2019_Mar_10_1408	s	s	11	4	Capacity	85	4_1	4	1	3	1	23_3_1	1	0	1	0	0.423108100891	-385.0	76.0	-376.0	78.0	1
3.0.1	2019_Mar_10_1408	s	s	11	4	Capacity	86	ABS	0	0	4	1	24_4_1	NA	NA	0	1	0.679134845734	None	None	None	None	1
3.0.1	2019_Mar_10_1408	s	s	11	4	Capacity	87	3_1	3	1	2	1	23_2_1	1	0	1	0	0.469708204269	40.0	95.0	37.0	88.0	1
3.0.1	2019_Mar_10_1408	s	s	11	4	Capacity	88	ABS	0	0	4	1	24_4_1	NA	NA	0	1	0.70977807045	None	None	None	None	1
3.0.1	2019_Mar_10_1408	s	s	11	4	Capacity	89	3_1	3	1	4	1	23_4_1	-1	0	1	0	0.634402036667	143.0	-16.0	138.0	-16.0	1
3.0.1	2019_Mar_10_1408	s	s	11	4	Capacity	90	ABS	0	0	3	1	24_3_1	NA	NA	0	1	1.03845000267	None	None	None	None	1
3.0.1	2019_Mar_10_1408	s	s	11	4	Capacity	91	2_1	2	1	1	1	23_1_1	-1	0	0	1	0.822466135025	501.0	399.0	None	None	0
3.0.1	2019_Mar_10_1408	s	s	11	4	Capacity	92	ABS	0	0	4	1	24_4_1	NA	NA	0	1	0.817687034607	None	None	None	None	1
3.0.1	2019_Mar_10_1408	s	s	11	4	Capacity	93	2_1	2	1	4	1	23_4_1	2	0	1	0	0.422743082047	-381.0	403.0	-384.0	396.0	1
3.0.1	2019_Mar_10_1408	s	s	11	4	Capacity	94	ABS	0	0	3	1	24_3_1	NA	NA	0	1	0.745332956314	None	None	None	None	1
3.0.1	2019_Mar_10_1408	s	s	11	4	Capacity	95	4_1	4	1	2	1	23_2_1	2	0	1	0	0.469685077667	-178.0	289.0	-179.0	281.0	1
3.0.1	2019_Mar_10_1408	s	s	11	4	Capacity	96	ABS	0	0	2	1	24_2_1	NA	NA	0	1	1.49954414368	None	None	None	None	1
3.0.1	2019_Mar_10_1408	s	s	11	4	Capacity	1	1_4	1	4	1	1	23_1_1	0	3	1	0	0.645079135895	-64.0	403.0	-61.0	397.0	1
3.0.1	2019_Mar_10_1408	s	s	11	4	Capacity	2	1_3	1	3	1	1	23_1_1	0	2	0	1	1.05538010597	-197.0	-408.0	None	None	0
3.0.1	2019_Mar_10_1408	s	s	11	4	Capacity	3	1_2	1	2	1	1	23_1_1	0	-1	0	1	1.4990940094	-253.0	-293.0	None	None	0
3.0.1	2019_Mar_10_1408	s	s	11	4	Capacity	4	ABS	0	0	1	4	24_1_4	NA	NA	0	1	1.30480408669	None	None	None	None	1
3.0.1	2019_Mar_10_1408	s	s	11	4	Capacity	5	1_1	1	1	1	4	23_1_4	0	3	1	0	0.803858041763	184.0	-329.0	182.0	-328.0	1
3.0.1	2019_Mar_10_1408	s	s	11	4	Capacity	6	1_3	1	3	1	4	23_1_4	0	-1	1	0	0.863116025925	408.0	-182.0	411.0	-187.0	1
3.0.1	2019_Mar_10_1408	s	s	11	4	Capacity	7	ABS	0	0	1	1	24_1_1	NA	NA	0	1	1.23933911324	None	None	None	None	1
3.0.1	2019_Mar_10_1408	s	s	11	4	Capacity	8	1_2	1	2	1	4	23_1_4	0	2	1	0	0.540313959122	263.0	291.0	257.0	284.0	1
3.0.1	2019_Mar_10_1408	s	s	11	4	Capacity	9	ABS	0	0	1	2	24_1_2	NA	NA	0	1	2.23800086975	None	None	None	None	1
3.0.1	2019_Mar_10_1408	s	s	11	4	Capacity	10	ABS	0	0	1	2	24_1_2	NA	NA	0	1	2.09722685814	None	None	None	None	1
3.0.1	2019_Mar_10_1408	s	s	11	4	Capacity	11	1_1	1	1	1	3	23_1_3	0	2	1	0	0.582380056381	304.0	-31.0	303.0	-24.0	1
3.0.1	2019_Mar_10_1408	s	s	11	4	Capacity	12	ABS	0	0	1	1	24_1_1	NA	NA	0	1	1.49297213554	None	None	None	None	1
3.0.1	2019_Mar_10_1408	s	s	11	4	Capacity	13	ABS	0	0	1	3	24_1_3	NA	NA	0	1	2.5161459446	None	None	None	None	1
3.0.1	2019_Mar_10_1408	s	s	11	4	Capacity	14	ABS	0	0	1	1	24_1_1	NA	NA	0	1	0.951920032501	None	None	None	None	1
3.0.1	2019_Mar_10_1408	s	s	11	4	Capacity	15	ABS	0	0	1	4	24_1_4	NA	NA	0	1	1.29741311073	None	None	None	None	1
3.0.1	2019_Mar_10_1408	s	s	11	4	Capacity	16	ABS	0	0	1	4	24_1_4	NA	NA	0	1	0.834400892258	None	None	None	None	1
3.0.1	2019_Mar_10_1408	s	s	11	4	Capacity	17	1_2	1	2	1	3	23_1_3	0	1	0	1	2.18015408516	393.0	114.0	None	None	0
3.0.1	2019_Mar_10_1408	s	s	11	4	Capacity	18	1_4	1	4	1	3	23_1_3	0	1	1	0	0.987217187881	142.0	-337.0	148.0	-334.0	1
3.0.1	2019_Mar_10_1408	s	s	11	4	Capacity	19	ABS	0	0	1	3	24_1_3	NA	NA	0	1	1.90874099731	None	None	None	None	1
3.0.1	2019_Mar_10_1408	s	s	11	4	Capacity	20	1_4	1	4	1	2	23_1_2	0	2	1	0	0.861197948456	299.0	-406.0	300.0	-419.0	1
3.0.1	2019_Mar_10_1408	s	s	11	4	Capacity	21	ABS	0	0	1	2	24_1_2	NA	NA	0	1	1.87519097328	None	None	None	None	1
3.0.1	2019_Mar_10_1408	s	s	11	4	Capacity	22	1_1	1	1	1	2	23_1_2	0	1	0	1	2.83370089531	-121.0	-197.0	None	None	0
3.0.1	2019_Mar_10_1408	s	s	11	4	Capacity	23	ABS	0	0	1	3	24_1_3	NA	NA	0	1	2.91937708855	None	None	None	None	1
3.0.1	2019_Mar_10_1408	s	s	11	4	Capacity	24	1_3	1	3	1	2	23_1_2	0	1	0	1	2.38048005104	241.0	36.0	None	None	0
3.0.1	2019_Mar_10_1408	s	s	11	4	Capacity	25	ABS	0	0	1	3	24_1_3	NA	NA	0	1	2.82201814651	None	None	None	None	1
3.0.1	2019_Mar_10_1408	s	s	11	4	Capacity	26	1_1	1	1	1	3	23_1_3	0	2	1	0	0.704918146133	381.0	69.0	379.0	67.0	1
3.0.1	2019_Mar_10_1408	s	s	11	4	Capacity	27	ABS	0	0	1	2	24_1_2	NA	NA	0	1	1.64586091042	None	None	None	None	1
3.0.1	2019_Mar_10_1408	s	s	11	4	Capacity	28	1_3	1	3	1	2	23_1_2	0	1	0	1	1.5399928093	259.0	-340.0	None	None	0
3.0.1	2019_Mar_10_1408	s	s	11	4	Capacity	29	ABS	0	0	1	1	24_1_1	NA	NA	0	1	0.864216089249	None	None	None	None	1
3.0.1	2019_Mar_10_1408	s	s	11	4	Capacity	30	ABS	0	0	1	3	24_1_3	NA	NA	0	1	2.22727108002	None	None	None	None	1
3.0.1	2019_Mar_10_1408	s	s	11	4	Capacity	31	1_1	1	1	1	4	23_1_4	0	3	1	0	0.519573926926	447.0	215.0	452.0	208.0	1
3.0.1	2019_Mar_10_1408	s	s	11	4	Capacity	32	ABS	0	0	1	2	24_1_2	NA	NA	0	1	2.10360407829	None	None	None	None	1
3.0.1	2019_Mar_10_1408	s	s	11	4	Capacity	33	1_4	1	4	1	1	23_1_1	0	3	1	0	0.822479963303	242.0	316.0	253.0	316.0	1
3.0.1	2019_Mar_10_1408	s	s	11	4	Capacity	34	1_2	1	2	1	4	23_1_4	0	2	1	0	1.11156201363	-97.0	-365.0	-106.0	-369.0	1
3.0.1	2019_Mar_10_1408	s	s	11	4	Capacity	35	1_4	1	4	1	3	23_1_3	0	1	1	0	0.57554602623	14.0	246.0	17.0	247.0	1
3.0.1	2019_Mar_10_1408	s	s	11	4	Capacity	36	ABS	0	0	1	4	24_1_4	NA	NA	0	1	0.869561910629	None	None	None	None	1
3.0.1	2019_Mar_10_1408	s	s	11	4	Capacity	37	ABS	0	0	1	1	24_1_1	NA	NA	0	1	1.39256501198	None	None	None	None	1
3.0.1	2019_Mar_10_1408	s	s	11	4	Capacity	38	ABS	0	0	1	2	24_1_2	NA	NA	0	1	2.93965482712	None	None	None	None	1
3.0.1	2019_Mar_10_1408	s	s	11	4	Capacity	39	ABS	0	0	1	4	24_1_4	NA	NA	0	1	2.05052900314	None	None	None	None	1
3.0.1	2019_Mar_10_1408	s	s	11	4	Capacity	40	1_3	1	3	1	4	23_1_4	0	-1	1	0	0.540377140045	-427.0	180.0	-421.0	183.0	1
3.0.1	2019_Mar_10_1408	s	s	11	4	Capacity	41	ABS	0	0	1	4	24_1_4	NA	NA	0	1	0.916670084	None	None	None	None	1
3.0.1	2019_Mar_10_1408	s	s	11	4	Capacity	42	1_1	1	1	1	2	23_1_2	0	1	0	1	1.63414001465	230.0	-127.0	None	None	0
3.0.1	2019_Mar_10_1408	s	s	11	4	Capacity	43	ABS	0	0	1	1	24_1_1	NA	NA	0	1	0.804692029953	None	None	None	None	1
3.0.1	2019_Mar_10_1408	s	s	11	4	Capacity	44	1_4	1	4	1	2	23_1_2	0	2	1	0	0.763756990433	-338.0	-134.0	-340.0	-136.0	1
3.0.1	2019_Mar_10_1408	s	s	11	4	Capacity	45	1_3	1	3	1	1	23_1_1	0	2	0	1	0.75860786438	181.0	395.0	None	None	0
3.0.1	2019_Mar_10_1408	s	s	11	4	Capacity	46	1_2	1	2	1	1	23_1_1	0	-1	0	1	0.676466941833	293.0	-202.0	None	None	0
3.0.1	2019_Mar_10_1408	s	s	11	4	Capacity	47	1_2	1	2	1	3	23_1_3	0	1	0	1	2.75135111809	-12.0	338.0	None	None	0
3.0.1	2019_Mar_10_1408	s	s	11	4	Capacity	48	ABS	0	0	1	3	24_1_3	NA	NA	0	1	3.8686850071	None	None	None	None	1
3.0.1	2019_Mar_10_1408	s	s	11	4	Capacity	49	1_4	1	4	1	1	23_1_1	0	3	1	0	0.681363105774	-137.0	-98.0	-138.0	-91.0	1
3.0.1	2019_Mar_10_1408	s	s	11	4	Capacity	50	ABS	0	0	1	1	24_1_1	NA	NA	0	1	0.780742883682	None	None	None	None	1
3.0.1	2019_Mar_10_1408	s	s	11	4	Capacity	51	ABS	0	0	1	3	24_1_3	NA	NA	0	1	2.01041483879	None	None	None	None	1
3.0.1	2019_Mar_10_1408	s	s	11	4	Capacity	52	1_2	1	2	1	3	23_1_3	0	1	1	0	1.96853590012	146.0	-234.0	154.0	-224.0	1
3.0.1	2019_Mar_10_1408	s	s	11	4	Capacity	53	1_2	1	2	1	1	23_1_1	0	-1	1	0	1.19221401215	-264.0	-157.0	-253.0	-153.0	1
3.0.1	2019_Mar_10_1408	s	s	11	4	Capacity	54	ABS	0	0	1	2	24_1_2	NA	NA	0	1	2.0222299099	None	None	None	None	1
3.0.1	2019_Mar_10_1408	s	s	11	4	Capacity	55	1_1	1	1	1	3	23_1_3	0	2	1	0	0.716709852219	311.0	191.0	313.0	189.0	1
3.0.1	2019_Mar_10_1408	s	s	11	4	Capacity	56	ABS	0	0	1	4	24_1_4	NA	NA	0	1	1.24592518806	None	None	None	None	1
3.0.1	2019_Mar_10_1408	s	s	11	4	Capacity	57	ABS	0	0	1	3	24_1_3	NA	NA	0	1	2.9747800827	None	None	None	None	1
3.0.1	2019_Mar_10_1408	s	s	11	4	Capacity	58	ABS	0	0	1	1	24_1_1	NA	NA	0	1	0.907778978348	None	None	None	None	1
3.0.1	2019_Mar_10_1408	s	s	11	4	Capacity	59	ABS	0	0	1	1	24_1_1	NA	NA	0	1	0.934422969818	None	None	None	None	1
3.0.1	2019_Mar_10_1408	s	s	11	4	Capacity	60	1_1	1	1	1	2	23_1_2	0	1	1	0	1.76344203949	155.0	-401.0	153.0	-395.0	1
3.0.1	2019_Mar_10_1408	s	s	11	4	Capacity	61	ABS	0	0	1	2	24_1_2	NA	NA	0	1	2.93070578575	None	None	None	None	1
3.0.1	2019_Mar_10_1408	s	s	11	4	Capacity	62	1_4	1	4	1	3	23_1_3	0	1	1	0	1.28129887581	-518.0	230.0	-521.0	230.0	1
3.0.1	2019_Mar_10_1408	s	s	11	4	Capacity	63	ABS	0	0	1	3	24_1_3	NA	NA	0	1	3.32772302628	None	None	None	None	1
3.0.1	2019_Mar_10_1408	s	s	11	4	Capacity	64	ABS	0	0	1	2	24_1_2	NA	NA	0	1	2.3279440403	None	None	None	None	1
3.0.1	2019_Mar_10_1408	s	s	11	4	Capacity	65	1_3	1	3	1	2	23_1_2	0	1	0	1	2.97478890419	-512.0	-110.0	None	None	0
3.0.1	2019_Mar_10_1408	s	s	11	4	Capacity	66	1_3	1	3	1	4	23_1_4	0	-1	1	0	0.848984003067	-323.0	-288.0	-327.0	-289.0	1
3.0.1	2019_Mar_10_1408	s	s	11	4	Capacity	67	1_1	1	1	1	4	23_1_4	0	3	1	0	0.50984621048	-472.0	-67.0	-476.0	-73.0	1
3.0.1	2019_Mar_10_1408	s	s	11	4	Capacity	68	1_3	1	3	1	1	23_1_1	0	2	1	0	0.8578748703	260.0	121.0	262.0	127.0	1
3.0.1	2019_Mar_10_1408	s	s	11	4	Capacity	69	ABS	0	0	1	4	24_1_4	NA	NA	0	1	0.886175870895	None	None	None	None	1
3.0.1	2019_Mar_10_1408	s	s	11	4	Capacity	70	1_2	1	2	1	4	23_1_4	0	2	1	0	0.54034280777	-80.0	332.0	-78.0	342.0	1
3.0.1	2019_Mar_10_1408	s	s	11	4	Capacity	71	1_4	1	4	1	2	23_1_2	0	2	1	0	1.48800492287	12.0	187.0	8.0	190.0	1
3.0.1	2019_Mar_10_1408	s	s	11	4	Capacity	72	ABS	0	0	1	4	24_1_4	NA	NA	0	1	1.1938970089	None	None	None	None	1
3.0.1	2019_Mar_10_1408	s	s	11	4	Capacity	73	1_2	1	2	1	3	23_1_3	0	1	1	0	2.96355104446	53.0	-217.0	46.0	-214.0	1
3.0.1	2019_Mar_10_1408	s	s	11	4	Capacity	74	1_1	1	1	1	3	23_1_3	0	2	1	0	1.2278649807	-423.0	-352.0	-423.0	-359.0	1
3.0.1	2019_Mar_10_1408	s	s	11	4	Capacity	75	ABS	0	0	1	4	24_1_4	NA	NA	0	1	1.28806304932	None	None	None	None	1
3.0.1	2019_Mar_10_1408	s	s	11	4	Capacity	76	1_3	1	3	1	4	23_1_4	0	-1	1	0	0.62261390686	-425.0	207.0	-433.0	210.0	1
3.0.1	2019_Mar_10_1408	s	s	11	4	Capacity	77	ABS	0	0	1	3	24_1_3	NA	NA	0	1	3.54366493225	None	None	None	None	1
3.0.1	2019_Mar_10_1408	s	s	11	4	Capacity	78	ABS	0	0	1	3	24_1_3	NA	NA	0	1	1.82636809349	None	None	None	None	1
3.0.1	2019_Mar_10_1408	s	s	11	4	Capacity	79	1_3	1	3	1	1	23_1_1	0	2	0	1	0.857806921005	418.0	-207.0	None	None	0
3.0.1	2019_Mar_10_1408	s	s	11	4	Capacity	80	ABS	0	0	1	4	24_1_4	NA	NA	0	1	0.991369009018	None	None	None	None	1
3.0.1	2019_Mar_10_1408	s	s	11	4	Capacity	81	1_2	1	2	1	4	23_1_4	0	2	1	0	0.528537988663	92.0	162.0	99.0	159.0	1
3.0.1	2019_Mar_10_1408	s	s	11	4	Capacity	82	ABS	0	0	1	3	24_1_3	NA	NA	0	1	1.74383401871	None	None	None	None	1
3.0.1	2019_Mar_10_1408	s	s	11	4	Capacity	83	ABS	0	0	1	1	24_1_1	NA	NA	0	1	1.05771589279	None	None	None	None	1
3.0.1	2019_Mar_10_1408	s	s	11	4	Capacity	84	1_3	1	3	1	2	23_1_2	0	1	1	0	2.11624789238	-345.0	98.0	-334.0	107.0	1
3.0.1	2019_Mar_10_1408	s	s	11	4	Capacity	85	ABS	0	0	1	2	24_1_2	NA	NA	0	1	2.25248503685	None	None	None	None	1
3.0.1	2019_Mar_10_1408	s	s	11	4	Capacity	86	1_1	1	1	1	2	23_1_2	0	1	0	1	2.42717909813	353.0	85.0	None	None	0
3.0.1	2019_Mar_10_1408	s	s	11	4	Capacity	87	ABS	0	0	1	1	24_1_1	NA	NA	0	1	0.966578006744	None	None	None	None	1
3.0.1	2019_Mar_10_1408	s	s	11	4	Capacity	88	1_4	1	4	1	2	23_1_2	0	2	1	0	1.39249205589	-187.0	-205.0	-180.0	-201.0	1
3.0.1	2019_Mar_10_1408	s	s	11	4	Capacity	89	ABS	0	0	1	1	24_1_1	NA	NA	0	1	0.646160125732	None	None	None	None	1
3.0.1	2019_Mar_10_1408	s	s	11	4	Capacity	90	ABS	0	0	1	4	24_1_4	NA	NA	0	1	0.864233970642	None	None	None	None	1
3.0.1	2019_Mar_10_1408	s	s	11	4	Capacity	91	1_2	1	2	1	1	23_1_1	0	-1	0	1	0.75880408287	470.0	154.0	None	None	0
3.0.1	2019_Mar_10_1408	s	s	11	4	Capacity	92	1_4	1	4	1	1	23_1_1	0	3	1	0	0.52001786232	-139.0	87.0	-129.0	88.0	1
3.0.1	2019_Mar_10_1408	s	s	11	4	Capacity	93	1_1	1	1	1	4	23_1_4	0	3	1	0	0.613759994507	-330.0	-341.0	-328.0	-341.0	1
3.0.1	2019_Mar_10_1408	s	s	11	4	Capacity	94	1_4	1	4	1	3	23_1_3	0	1	1	0	1.15188407898	-500.0	62.0	-495.0	63.0	1
3.0.1	2019_Mar_10_1408	s	s	11	4	Capacity	95	ABS	0	0	1	2	24_1_2	NA	NA	0	1	1.18095207214	None	None	None	None	1
3.0.1	2019_Mar_10_1408	s	s	11	4	Capacity	96	ABS	0	0	1	2	24_1_2	NA	NA	0	1	1.17540502548	None	None	None	None	1
3.0.1	2019_Mar_10_1408	s	s	11	4	SIC	1	2_2	2	2	3	3	23_3_3	1	1	1	0	0.716814994812	138.0	-385.0	137.0	-383.0	1
3.0.1	2019_Mar_10_1408	s	s	11	4	SIC	2	3_3	3	3	1	4	23_1_4	2	-1	1	0	0.516714096069	6.0	257.0	1.0	258.0	1
3.0.1	2019_Mar_10_1408	s	s	11	4	SIC	3	3_3	3	3	1	1	23_1_1	2	2	1	0	0.446214914322	-138.0	386.0	-136.0	384.0	1
3.0.1	2019_Mar_10_1408	s	s	11	4	SIC	4	ABS	0	0	1	1	24_1_1	NA	NA	0	1	0.622730970383	None	None	None	None	1
3.0.1	2019_Mar_10_1408	s	s	11	4	SIC	5	1_3	1	3	1	1	23_1_1	0	2	1	0	1.01345801353	27.0	-130.0	26.0	-123.0	1
3.0.1	2019_Mar_10_1408	s	s	11	4	SIC	6	ABS	0	0	2	3	24_2_3	NA	NA	0	1	1.73329615593	None	None	None	None	1
3.0.1	2019_Mar_10_1408	s	s	11	4	SIC	7	3_1	3	1	1	3	23_1_3	2	2	1	0	0.757353067398	-142.0	257.0	-140.0	250.0	1
3.0.1	2019_Mar_10_1408	s	s	11	4	SIC	8	ABS	0	0	1	3	24_1_3	NA	NA	0	1	2.02512097359	None	None	None	None	1
3.0.1	2019_Mar_10_1408	s	s	11	4	SIC	9	ABS	0	0	3	4	24_3_4	NA	NA	0	1	0.991121053696	None	None	None	None	1
3.0.1	2019_Mar_10_1408	s	s	11	4	SIC	10	ABS	0	0	4	4	24_4_4	NA	NA	0	1	0.681427955627	None	None	None	None	1
3.0.1	2019_Mar_10_1408	s	s	11	4	SIC	11	ABS	0	0	4	2	24_4_2	NA	NA	0	1	0.829351902008	None	None	None	None	1
3.0.1	2019_Mar_10_1408	s	s	11	4	SIC	12	3_2	3	2	1	2	23_1_2	2	0	1	0	0.510381937027	-70.0	230.0	-68.0	228.0	1
3.0.1	2019_Mar_10_1408	s	s	11	4	SIC	13	4_3	4	3	1	3	23_1_3	3	0	1	0	0.486842870712	-422.0	83.0	-420.0	79.0	1
3.0.1	2019_Mar_10_1408	s	s	11	4	SIC	14	4_1	4	1	1	1	23_1_1	3	0	1	0	0.44248008728	214.0	-361.0	222.0	-361.0	1
3.0.1	2019_Mar_10_1408	s	s	11	4	SIC	15	ABS	0	0	2	1	24_2_1	NA	NA	0	1	0.810833215714	None	None	None	None	1
3.0.1	2019_Mar_10_1408	s	s	11	4	SIC	16	4_3	4	3	2	4	23_2_4	2	-1	1	0	0.481477975845	-514.0	-189.0	-512.0	-194.0	1
3.0.1	2019_Mar_10_1408	s	s	11	4	SIC	17	ABS	0	0	4	3	24_4_3	NA	NA	0	1	0.9077501297	None	None	None	None	1
3.0.1	2019_Mar_10_1408	s	s	11	4	SIC	18	4_2	4	2	1	1	23_1_1	3	-1	1	0	0.42812204361	-255.0	-58.0	-252.0	-52.0	1
3.0.1	2019_Mar_10_1408	s	s	11	4	SIC	19	ABS	0	0	4	1	24_4_1	NA	NA	0	1	0.557433843613	None	None	None	None	1
3.0.1	2019_Mar_10_1408	s	s	11	4	SIC	20	ABS	0	0	3	1	24_3_1	NA	NA	0	1	0.62019610405	None	None	None	None	1
3.0.1	2019_Mar_10_1408	s	s	11	4	SIC	21	ABS	0	0	2	4	24_2_4	NA	NA	0	1	0.740242004395	None	None	None	None	1
3.0.1	2019_Mar_10_1408	s	s	11	4	SIC	22	ABS	0	0	3	2	24_3_2	NA	NA	0	1	0.822585105896	None	None	None	None	1
3.0.1	2019_Mar_10_1408	s	s	11	4	SIC	23	ABS	0	0	1	2	24_1_2	NA	NA	0	1	0.967032909393	None	None	None	None	1
3.0.1	2019_Mar_10_1408	s	s	11	4	SIC	24	ABS	0	0	4	3	24_4_3	NA	NA	0	1	1.05781197548	None	None	None	None	1
3.0.1	2019_Mar_10_1408	s	s	11	4	SIC	25	1_3	1	3	4	3	23_4_3	3	0	1	0	0.470156908035	-450.0	-143.0	-444.0	-142.0	1
3.0.1	2019_Mar_10_1408	s	s	11	4	SIC	26	ABS	0	0	1	3	24_1_3	NA	NA	0	1	1.01072478294	None	None	None	None	1
3.0.1	2019_Mar_10_1408	s	s	11	4	SIC	27	2_1	2	1	4	4	23_4_4	2	3	1	0	0.429533004761	-133.0	-270.0	-137.0	-264.0	1
3.0.1	2019_Mar_10_1408	s	s	11	4	SIC	28	ABS	0	0	4	2	24_4_2	NA	NA	0	1	0.89310503006	None	None	None	None	1
3.0.1	2019_Mar_10_1408	s	s	11	4	SIC	29	ABS	0	0	1	1	24_1_1	NA	NA	0	1	0.637357950211	None	None	None	None	1
3.0.1	2019_Mar_10_1408	s	s	11	4	SIC	30	1_3	1	3	3	4	23_3_4	2	-1	1	0	0.552521944046	537.0	128.0	538.0	130.0	1
3.0.1	2019_Mar_10_1408	s	s	11	4	SIC	31	1_4	1	4	2	3	23_2_3	1	1	1	0	2.50730013847	-201.0	-395.0	-207.0	-395.0	1
3.0.1	2019_Mar_10_1408	s	s	11	4	SIC	32	ABS	0	0	4	3	24_4_3	NA	NA	0	1	1.37534785271	None	None	None	None	1
3.0.1	2019_Mar_10_1408	s	s	11	4	SIC	33	ABS	0	0	3	3	24_3_3	NA	NA	0	1	1.41065502167	None	None	None	None	1
3.0.1	2019_Mar_10_1408	s	s	11	4	SIC	34	ABS	0	0	1	1	24_1_1	NA	NA	0	1	1.19253897667	None	None	None	None	1
3.0.1	2019_Mar_10_1408	s	s	11	4	SIC	35	ABS	0	0	4	2	24_4_2	NA	NA	0	1	0.969012975693	None	None	None	None	1
3.0.1	2019_Mar_10_1408	s	s	11	4	SIC	36	3_1	3	1	4	3	23_4_3	-1	2	1	0	0.49618601799	21.0	287.0	27.0	287.0	1
3.0.1	2019_Mar_10_1408	s	s	11	4	SIC	37	ABS	0	0	4	1	24_4_1	NA	NA	0	1	0.790191888809	None	None	None	None	1
3.0.1	2019_Mar_10_1408	s	s	11	4	SIC	38	ABS	0	0	4	2	24_4_2	NA	NA	0	1	0.757442951202	None	None	None	None	1
3.0.1	2019_Mar_10_1408	s	s	11	4	SIC	39	4_4	4	4	2	4	23_2_4	2	0	1	0	0.516750812531	366.0	381.0	377.0	385.0	1
3.0.1	2019_Mar_10_1408	s	s	11	4	SIC	40	4_4	4	4	3	3	23_3_3	1	1	1	0	0.481567144394	261.0	-377.0	256.0	-381.0	1
3.0.1	2019_Mar_10_1408	s	s	11	4	SIC	41	2_1	2	1	1	3	23_1_3	-1	2	1	0	0.874377965927	-361.0	-128.0	-369.0	-123.0	1
3.0.1	2019_Mar_10_1408	s	s	11	4	SIC	42	ABS	0	0	4	1	24_4_1	NA	NA	0	1	0.592436790466	None	None	None	None	1
3.0.1	2019_Mar_10_1408	s	s	11	4	SIC	43	1_4	1	4	2	4	23_2_4	1	0	0	1	0.775508880615	-108.0	-400.0	None	None	0
3.0.1	2019_Mar_10_1408	s	s	11	4	SIC	44	ABS	0	0	1	4	24_1_4	NA	NA	0	1	0.83439207077	None	None	None	None	1
3.0.1	2019_Mar_10_1408	s	s	11	4	SIC	45	2_2	2	2	1	4	23_1_4	-1	2	1	0	0.50922703743	-140.0	-178.0	-149.0	-177.0	1
3.0.1	2019_Mar_10_1408	s	s	11	4	SIC	46	3_2	3	2	2	2	23_2_2	1	0	1	0	0.752018928528	444.0	-412.0	445.0	-405.0	1
3.0.1	2019_Mar_10_1408	s	s	11	4	SIC	47	ABS	0	0	4	4	24_4_4	NA	NA	0	1	0.9572660923	None	None	None	None	1
3.0.1	2019_Mar_10_1408	s	s	11	4	SIC	48	ABS	0	0	2	2	24_2_2	NA	NA	0	1	1.3988070488	None	None	None	None	1
3.0.1	2019_Mar_10_1408	s	s	11	4	SIC	49	ABS	0	0	1	1	24_1_1	NA	NA	0	1	0.815469026566	None	None	None	None	1
3.0.1	2019_Mar_10_1408	s	s	11	4	SIC	50	3_1	3	1	4	2	23_4_2	-1	1	1	0	0.452577829361	-11.0	343.0	-9.0	351.0	1
3.0.1	2019_Mar_10_1408	s	s	11	4	SIC	51	4_1	4	1	3	2	23_3_2	1	1	1	0	0.451138019562	-66.0	341.0	-58.0	345.0	1
3.0.1	2019_Mar_10_1408	s	s	11	4	SIC	52	ABS	0	0	3	3	24_3_3	NA	NA	0	1	1.90465497971	None	None	None	None	1
3.0.1	2019_Mar_10_1408	s	s	11	4	SIC	53	4_4	4	4	2	1	23_2_1	2	3	1	0	0.646095991135	-408.0	-58.0	-414.0	-55.0	1
3.0.1	2019_Mar_10_1408	s	s	11	4	SIC	54	ABS	0	0	2	3	24_2_3	NA	NA	0	1	1.73611903191	None	None	None	None	1
3.0.1	2019_Mar_10_1408	s	s	11	4	SIC	55	ABS	0	0	4	1	24_4_1	NA	NA	0	1	0.693185806274	None	None	None	None	1
3.0.1	2019_Mar_10_1408	s	s	11	4	SIC	56	ABS	0	0	1	1	24_1_1	NA	NA	0	1	0.822540998459	None	None	None	None	1
3.0.1	2019_Mar_10_1408	s	s	11	4	SIC	57	4_2	4	2	4	1	23_4_1	0	-1	0	1	0.780779123306	-55.0	241.0	None	None	0
3.0.1	2019_Mar_10_1408	s	s	11	4	SIC	58	ABS	0	0	4	2	24_4_2	NA	NA	0	1	1.35666799545	None	None	None	None	1
3.0.1	2019_Mar_10_1408	s	s	11	4	SIC	59	3_4	3	4	2	2	23_2_2	1	2	1	0	0.556854009628	341.0	-303.0	349.0	-305.0	1
3.0.1	2019_Mar_10_1408	s	s	11	4	SIC	60	ABS	0	0	3	1	24_3_1	NA	NA	0	1	0.775552034378	None	None	None	None	1
3.0.1	2019_Mar_10_1408	s	s	11	4	SIC	61	ABS	0	0	4	3	24_4_3	NA	NA	0	1	0.872998952866	None	None	None	None	1
3.0.1	2019_Mar_10_1408	s	s	11	4	SIC	62	1_2	1	2	2	3	23_2_3	1	1	0	1	1.25773310661	-446.0	246.0	None	None	0
3.0.1	2019_Mar_10_1408	s	s	11	4	SIC	63	2_2	2	2	2	1	23_2_1	0	-1	0	1	0.704921960831	-523.0	328.0	None	None	0
3.0.1	2019_Mar_10_1408	s	s	11	4	SIC	64	4_1	4	1	2	4	23_2_4	2	3	1	0	0.513463020325	-501.0	-233.0	-499.0	-230.0	1
3.0.1	2019_Mar_10_1408	s	s	11	4	SIC	65	ABS	0	0	3	1	24_3_1	NA	NA	0	1	1.36368584633	None	None	None	None	1
3.0.1	2019_Mar_10_1408	s	s	11	4	SIC	66	1_2	1	2	2	2	23_2_2	1	0	0	1	1.53996896744	473.0	395.0	None	None	0
3.0.1	2019_Mar_10_1408	s	s	11	4	SIC	67	ABS	0	0	1	3	24_1_3	NA	NA	0	1	1.75166606903	None	None	None	None	1
3.0.1	2019_Mar_10_1408	s	s	11	4	SIC	68	ABS	0	0	1	3	24_1_3	NA	NA	0	1	1.16873598099	None	None	None	None	1
3.0.1	2019_Mar_10_1408	s	s	11	4	SIC	69	ABS	0	0	1	4	24_1_4	NA	NA	0	1	0.704941034317	None	None	None	None	1
3.0.1	2019_Mar_10_1408	s	s	11	4	SIC	70	ABS	0	0	2	1	24_2_1	NA	NA	0	1	0.696700811386	None	None	None	None	1
3.0.1	2019_Mar_10_1408	s	s	11	4	SIC	71	ABS	0	0	3	4	24_3_4	NA	NA	0	1	0.716751098633	None	None	None	None	1
3.0.1	2019_Mar_10_1408	s	s	11	4	SIC	72	2_3	2	3	1	1	23_1_1	-1	2	1	0	0.98721408844	461.0	40.0	468.0	47.0	1
3.0.1	2019_Mar_10_1408	s	s	11	4	SIC	73	4_4	4	4	1	3	23_1_3	3	1	1	0	0.469742059708	4.0	35.0	6.0	37.0	1
3.0.1	2019_Mar_10_1408	s	s	11	4	SIC	74	ABS	0	0	4	3	24_4_3	NA	NA	0	1	0.721840858459	None	None	None	None	1
3.0.1	2019_Mar_10_1408	s	s	11	4	SIC	75	4_2	4	2	3	1	23_3_1	1	-1	1	0	0.458005905151	-31.0	188.0	-26.0	179.0	1
3.0.1	2019_Mar_10_1408	s	s	11	4	SIC	76	ABS	0	0	4	1	24_4_1	NA	NA	0	1	0.73141002655	None	None	None	None	1
3.0.1	2019_Mar_10_1408	s	s	11	4	SIC	77	3_1	3	1	1	1	23_1_1	2	0	1	0	0.661775112152	519.0	-381.0	530.0	-381.0	1
3.0.1	2019_Mar_10_1408	s	s	11	4	SIC	78	ABS	0	0	2	2	24_2_2	NA	NA	0	1	0.817560911179	None	None	None	None	1
3.0.1	2019_Mar_10_1408	s	s	11	4	SIC	79	1_2	1	2	1	4	23_1_4	0	2	1	0	0.640332937241	480.0	-380.0	476.0	-379.0	1
3.0.1	2019_Mar_10_1408	s	s	11	4	SIC	80	ABS	0	0	4	2	24_4_2	NA	NA	0	1	0.885725975037	None	None	None	None	1
3.0.1	2019_Mar_10_1408	s	s	11	4	SIC	81	ABS	0	0	2	3	24_2_3	NA	NA	0	1	1.1872048378	None	None	None	None	1
3.0.1	2019_Mar_10_1408	s	s	11	4	SIC	82	ABS	0	0	2	3	24_2_3	NA	NA	0	1	0.677659034729	None	None	None	None	1
3.0.1	2019_Mar_10_1408	s	s	11	4	SIC	83	ABS	0	0	1	1	24_1_1	NA	NA	0	1	1.12054610252	None	None	None	None	1
3.0.1	2019_Mar_10_1408	s	s	11	4	SIC	84	3_4	3	4	3	2	23_3_2	0	2	1	0	0.575553178787	146.0	331.0	144.0	333.0	1
3.0.1	2019_Mar_10_1408	s	s	11	4	SIC	85	ABS	0	0	1	2	24_1_2	NA	NA	0	1	1.46296811104	None	None	None	None	1
3.0.1	2019_Mar_10_1408	s	s	11	4	SIC	86	4_2	4	2	2	1	23_2_1	2	-1	1	0	0.44128203392	500.0	-408.0	505.0	-401.0	1
3.0.1	2019_Mar_10_1408	s	s	11	4	SIC	87	ABS	0	0	3	3	24_3_3	NA	NA	0	1	1.76343894005	None	None	None	None	1
3.0.1	2019_Mar_10_1408	s	s	11	4	SIC	88	2_3	2	3	4	2	23_4_2	2	1	1	0	0.453509092331	70.0	382.0	73.0	374.0	1
3.0.1	2019_Mar_10_1408	s	s	11	4	SIC	89	ABS	0	0	1	1	24_1_1	NA	NA	0	1	0.769224882126	None	None	None	None	1
3.0.1	2019_Mar_10_1408	s	s	11	4	SIC	90	ABS	0	0	4	2	24_4_2	NA	NA	0	1	1.26060605049	None	None	None	None	1
3.0.1	2019_Mar_10_1408	s	s	11	4	SIC	91	3_4	3	4	4	2	23_4_2	-1	2	1	0	0.465051174164	-239.0	250.0	-237.0	242.0	1
3.0.1	2019_Mar_10_1408	s	s	11	4	SIC	92	4_3	4	3	3	3	23_3_3	1	0	1	0	0.474020957947	-155.0	167.0	-154.0	150.0	1
3.0.1	2019_Mar_10_1408	s	s	11	4	SIC	93	ABS	0	0	3	4	24_3_4	NA	NA	0	1	1.50966000557	None	None	None	None	1
3.0.1	2019_Mar_10_1408	s	s	11	4	SIC	94	4_2	4	2	1	3	23_1_3	3	1	1	0	0.457999229431	290.0	-17.0	289.0	-21.0	1
3.0.1	2019_Mar_10_1408	s	s	11	4	SIC	95	ABS	0	0	1	4	24_1_4	NA	NA	0	1	0.916666030884	None	None	None	None	1
3.0.1	2019_Mar_10_1408	s	s	11	4	SIC	96	2_1	2	1	3	4	23_3_4	1	3	1	0	0.481516838074	-66.0	202.0	-71.0	197.0	1
3.0.1	2019_Mar_10_1408	s	s	11	4	SIC	97	4_3	4	3	3	2	23_3_2	1	1	1	0	0.505050897598	339.0	-165.0	341.0	-166.0	1
3.0.1	2019_Mar_10_1408	s	s	11	4	SIC	98	ABS	0	0	4	3	24_4_3	NA	NA	0	1	0.662967920303	None	None	None	None	1
3.0.1	2019_Mar_10_1408	s	s	11	4	SIC	99	ABS	0	0	3	4	24_3_4	NA	NA	0	1	0.810845136642	None	None	None	None	1
3.0.1	2019_Mar_10_1408	s	s	11	4	SIC	100	3_2	3	2	1	1	23_1_1	2	-1	1	0	0.5456199646	495.0	-6.0	500.0	3.0	1
3.0.1	2019_Mar_10_1408	s	s	11	4	SIC	101	1_3	1	3	4	1	23_4_1	3	2	1	0	0.474601984024	6.0	-257.0	14.0	-254.0	1
3.0.1	2019_Mar_10_1408	s	s	11	4	SIC	102	ABS	0	0	4	3	24_4_3	NA	NA	0	1	0.951946973801	None	None	None	None	1
3.0.1	2019_Mar_10_1408	s	s	11	4	SIC	103	1_2	1	2	2	4	23_2_4	1	2	1	0	0.681446790695	69.0	-125.0	68.0	-129.0	1
3.0.1	2019_Mar_10_1408	s	s	11	4	SIC	104	ABS	0	0	4	2	24_4_2	NA	NA	0	1	1.51651287079	None	None	None	None	1
3.0.1	2019_Mar_10_1408	s	s	11	4	SIC	105	ABS	0	0	2	1	24_2_1	NA	NA	0	1	1.36996507645	None	None	None	None	1
3.0.1	2019_Mar_10_1408	s	s	11	4	SIC	106	ABS	0	0	1	1	24_1_1	NA	NA	0	1	0.940197944641	None	None	None	None	1
3.0.1	2019_Mar_10_1408	s	s	11	4	SIC	107	ABS	0	0	1	1	24_1_1	NA	NA	0	1	0.634448051453	None	None	None	None	1
3.0.1	2019_Mar_10_1408	s	s	11	4	SIC	108	2_3	2	3	1	4	23_1_4	-1	-1	1	0	0.822532892227	522.0	-257.0	527.0	-264.0	1
3.0.1	2019_Mar_10_1408	s	s	11	4	SIC	109	ABS	0	0	4	2	24_4_2	NA	NA	0	1	1.49584102631	None	None	None	None	1
3.0.1	2019_Mar_10_1408	s	s	11	4	SIC	110	ABS	0	0	3	3	24_3_3	NA	NA	0	1	1.95651197433	None	None	None	None	1
3.0.1	2019_Mar_10_1408	s	s	11	4	SIC	111	3_2	3	2	1	3	23_1_3	2	1	1	0	0.669595003128	-487.0	248.0	-484.0	257.0	1
3.0.1	2019_Mar_10_1408	s	s	11	4	SIC	112	ABS	0	0	2	4	24_2_4	NA	NA	0	1	0.834318161011	None	None	None	None	1
3.0.1	2019_Mar_10_1408	s	s	11	4	SIC	113	2_3	2	3	2	1	23_2_1	0	2	1	0	1.06949996948	536.0	-290.0	538.0	-291.0	1
3.0.1	2019_Mar_10_1408	s	s	11	4	SIC	114	ABS	0	0	2	4	24_2_4	NA	NA	0	1	0.705347061157	None	None	None	None	1
3.0.1	2019_Mar_10_1408	s	s	11	4	SIC	115	ABS	0	0	1	3	24_1_3	NA	NA	0	1	1.21733307838	None	None	None	None	1
3.0.1	2019_Mar_10_1408	s	s	11	4	SIC	116	3_4	3	4	2	4	23_2_4	1	0	1	0	0.662963151932	391.0	-23.0	399.0	-27.0	1
3.0.1	2019_Mar_10_1408	s	s	11	4	SIC	117	3_4	3	4	2	1	23_2_1	1	3	1	0	0.51064491272	355.0	122.0	352.0	123.0	1
3.0.1	2019_Mar_10_1408	s	s	11	4	SIC	118	1_3	1	3	2	3	23_2_3	1	0	0	1	0.959900856018	-191.0	-45.0	None	None	0
3.0.1	2019_Mar_10_1408	s	s	11	4	SIC	119	4_1	4	1	4	2	23_4_2	0	1	0	1	1.63405990601	-222.0	-42.0	None	None	0
3.0.1	2019_Mar_10_1408	s	s	11	4	SIC	120	ABS	0	0	1	2	24_1_2	NA	NA	0	1	1.166451931	None	None	None	None	1
3.0.1	2019_Mar_10_1408	s	s	11	4	SIC	121	2_1	2	1	4	2	23_4_2	2	1	1	0	0.458033084869	-226.0	-81.0	-220.0	-83.0	1
3.0.1	2019_Mar_10_1408	s	s	11	4	SIC	122	ABS	0	0	2	1	24_2_1	NA	NA	0	1	0.79899096489	None	None	None	None	1
3.0.1	2019_Mar_10_1408	s	s	11	4	SIC	123	4_3	4	3	3	1	23_3_1	1	2	1	0	0.485978841782	-9.0	-315.0	-5.0	-320.0	1
3.0.1	2019_Mar_10_1408	s	s	11	4	SIC	124	1_3	1	3	2	2	23_2_2	1	1	1	0	1.8975379467	471.0	-376.0	463.0	-378.0	1
3.0.1	2019_Mar_10_1408	s	s	11	4	SIC	125	1_1	1	1	4	2	23_4_2	3	1	1	0	0.481503009796	107.0	219.0	111.0	225.0	1
3.0.1	2019_Mar_10_1408	s	s	11	4	SIC	126	1_2	1	2	3	1	23_3_1	2	-1	1	0	0.521687030792	266.0	-157.0	274.0	-156.0	1
3.0.1	2019_Mar_10_1408	s	s	11	4	SIC	127	ABS	0	0	3	4	24_3_4	NA	NA	0	1	1.11659312248	None	None	None	None	1
3.0.1	2019_Mar_10_1408	s	s	11	4	SIC	128	ABS	0	0	2	4	24_2_4	NA	NA	0	1	0.951884031296	None	None	None	None	1
3.0.1	2019_Mar_10_1408	s	s	11	4	SIC	129	2_4	2	4	2	3	23_2_3	0	1	1	0	0.763822078705	-352.0	-112.0	-356.0	-103.0	1
3.0.1	2019_Mar_10_1408	s	s	11	4	SIC	130	4_2	4	2	1	2	23_1_2	3	0	1	0	0.474804878235	-2.0	-378.0	-8.0	-370.0	1
3.0.1	2019_Mar_10_1408	s	s	11	4	SIC	131	ABS	0	0	3	3	24_3_3	NA	NA	0	1	2.36324381828	None	None	None	None	1
3.0.1	2019_Mar_10_1408	s	s	11	4	SIC	132	1_1	1	1	2	2	23_2_2	1	1	1	0	0.646113157272	322.0	-35.0	315.0	-36.0	1
3.0.1	2019_Mar_10_1408	s	s	11	4	SIC	133	3_3	3	3	4	2	23_4_2	-1	1	1	0	0.532528162003	344.0	190.0	337.0	191.0	1
3.0.1	2019_Mar_10_1408	s	s	11	4	SIC	134	ABS	0	0	3	3	24_3_3	NA	NA	0	1	1.8223490715	None	None	None	None	1
3.0.1	2019_Mar_10_1408	s	s	11	4	SIC	135	ABS	0	0	2	2	24_2_2	NA	NA	0	1	1.33413290977	None	None	None	None	1
3.0.1	2019_Mar_10_1408	s	s	11	4	SIC	136	3_3	3	3	1	3	23_1_3	2	0	1	0	0.473984003067	-261.0	-26.0	-262.0	-26.0	1
3.0.1	2019_Mar_10_1408	s	s	11	4	SIC	137	4_4	4	4	1	4	23_1_4	3	0	1	0	0.437362194061	-224.0	-294.0	-224.0	-294.0	1
3.0.1	2019_Mar_10_1408	s	s	11	4	SIC	138	2_1	2	1	2	2	23_2_2	0	1	0	1	1.0755739212	398.0	175.0	None	None	0
3.0.1	2019_Mar_10_1408	s	s	11	4	SIC	139	ABS	0	0	4	4	24_4_4	NA	NA	0	1	0.740228891373	None	None	None	None	1
3.0.1	2019_Mar_10_1408	s	s	11	4	SIC	140	3_4	3	4	1	3	23_1_3	2	1	1	0	0.469712018967	353.0	-16.0	350.0	-14.0	1
3.0.1	2019_Mar_10_1408	s	s	11	4	SIC	141	1_4	1	4	3	4	23_3_4	2	0	1	0	0.481455802917	-168.0	178.0	-167.0	184.0	1
3.0.1	2019_Mar_10_1408	s	s	11	4	SIC	142	3_4	3	4	2	3	23_2_3	1	1	1	0	0.848995923996	-447.0	-159.0	-446.0	-157.0	1
3.0.1	2019_Mar_10_1408	s	s	11	4	SIC	143	1_1	1	1	2	4	23_2_4	1	3	1	0	0.587692975998	-151.0	-56.0	-143.0	-48.0	1
3.0.1	2019_Mar_10_1408	s	s	11	4	SIC	144	ABS	0	0	3	1	24_3_1	NA	NA	0	1	0.886543035507	None	None	None	None	1
3.0.1	2019_Mar_10_1408	s	s	11	4	SIC	145	1_4	1	4	4	4	23_4_4	3	0	1	0	0.434540987015	-429.0	-71.0	-430.0	-61.0	1
3.0.1	2019_Mar_10_1408	s	s	11	4	SIC	146	ABS	0	0	3	1	24_3_1	NA	NA	0	1	0.775590896606	None	None	None	None	1
3.0.1	2019_Mar_10_1408	s	s	11	4	SIC	147	ABS	0	0	2	4	24_2_4	NA	NA	0	1	0.728448152542	None	None	None	None	1
3.0.1	2019_Mar_10_1408	s	s	11	4	SIC	148	3_1	3	1	3	2	23_3_2	0	1	0	1	1.26066589355	-530.0	217.0	None	None	0
3.0.1	2019_Mar_10_1408	s	s	11	4	SIC	149	3_4	3	4	3	3	23_3_3	0	1	1	0	0.822640895844	3.0	-340.0	7.0	-343.0	1
3.0.1	2019_Mar_10_1408	s	s	11	4	SIC	150	1_1	1	1	1	2	23_1_2	0	1	0	1	1.32616209984	-427.0	-375.0	None	None	0
3.0.1	2019_Mar_10_1408	s	s	11	4	SIC	151	2_3	2	3	3	1	23_3_1	1	2	1	0	0.731398105621	196.0	235.0	201.0	235.0	1
3.0.1	2019_Mar_10_1408	s	s	11	4	SIC	152	2_1	2	1	1	4	23_1_4	-1	3	1	0	0.488590955734	171.0	-142.0	177.0	-144.0	1
3.0.1	2019_Mar_10_1408	s	s	11	4	SIC	153	2_3	2	3	4	3	23_4_3	2	0	1	0	0.40372800827	165.0	61.0	171.0	60.0	1
3.0.1	2019_Mar_10_1408	s	s	11	4	SIC	154	ABS	0	0	1	2	24_1_2	NA	NA	0	1	1.57529401779	None	None	None	None	1
3.0.1	2019_Mar_10_1408	s	s	11	4	SIC	155	2_3	2	3	1	2	23_1_2	-1	1	1	0	2.66217803955	-286.0	-236.0	-274.0	-234.0	1
3.0.1	2019_Mar_10_1408	s	s	11	4	SIC	156	ABS	0	0	4	3	24_4_3	NA	NA	0	1	1.55736494064	None	None	None	None	1
3.0.1	2019_Mar_10_1408	s	s	11	4	SIC	157	4_3	4	3	2	2	23_2_2	2	1	1	0	0.48835682869	-10.0	195.0	-5.0	204.0	1
3.0.1	2019_Mar_10_1408	s	s	11	4	SIC	158	ABS	0	0	1	4	24_1_4	NA	NA	0	1	0.869727134705	None	None	None	None	1
3.0.1	2019_Mar_10_1408	s	s	11	4	SIC	159	ABS	0	0	4	1	24_4_1	NA	NA	0	1	0.940188884735	None	None	None	None	1
3.0.1	2019_Mar_10_1408	s	s	11	4	SIC	160	ABS	0	0	4	1	24_4_1	NA	NA	0	1	0.998981952667	None	None	None	None	1
3.0.1	2019_Mar_10_1408	s	s	11	4	SIC	161	ABS	0	0	2	1	24_2_1	NA	NA	0	1	0.855782032013	None	None	None	None	1
3.0.1	2019_Mar_10_1408	s	s	11	4	SIC	162	ABS	0	0	3	4	24_3_4	NA	NA	0	1	1.00576806068	None	None	None	None	1
3.0.1	2019_Mar_10_1408	s	s	11	4	SIC	163	2_4	2	4	3	1	23_3_1	1	3	1	0	0.528515100479	346.0	-348.0	340.0	-348.0	1
3.0.1	2019_Mar_10_1408	s	s	11	4	SIC	164	ABS	0	0	3	2	24_3_2	NA	NA	0	1	1.59920787811	None	None	None	None	1
3.0.1	2019_Mar_10_1408	s	s	11	4	SIC	165	ABS	0	0	2	3	24_2_3	NA	NA	0	1	2.00548291206	None	None	None	None	1
3.0.1	2019_Mar_10_1408	s	s	11	4	SIC	166	ABS	0	0	2	3	24_2_3	NA	NA	0	1	2.7043530941	None	None	None	None	1
3.0.1	2019_Mar_10_1408	s	s	11	4	SIC	167	3_4	3	4	3	1	23_3_1	0	3	1	0	0.704926013947	427.0	131.0	432.0	125.0	1
3.0.1	2019_Mar_10_1408	s	s	11	4	SIC	168	4_3	4	3	1	1	23_1_1	3	2	1	0	0.452469110489	-141.0	-222.0	-145.0	-220.0	1
3.0.1	2019_Mar_10_1408	s	s	11	4	SIC	169	1_4	1	4	1	1	23_1_1	0	3	1	0	0.693331956863	519.0	-411.0	514.0	-406.0	1
3.0.1	2019_Mar_10_1408	s	s	11	4	SIC	170	ABS	0	0	2	3	24_2_3	NA	NA	0	1	1.41060185432	None	None	None	None	1
3.0.1	2019_Mar_10_1408	s	s	11	4	SIC	171	ABS	0	0	2	3	24_2_3	NA	NA	0	1	1.6223590374	None	None	None	None	1
3.0.1	2019_Mar_10_1408	s	s	11	4	SIC	172	1_4	1	4	3	2	23_3_2	2	2	1	0	0.458409786224	23.0	306.0	30.0	310.0	1
3.0.1	2019_Mar_10_1408	s	s	11	4	SIC	173	ABS	0	0	1	1	24_1_1	NA	NA	0	1	0.834378004074	None	None	None	None	1
3.0.1	2019_Mar_10_1408	s	s	11	4	SIC	174	1_2	1	2	1	1	23_1_1	0	-1	0	1	0.869564056396	103.0	-199.0	None	None	0
3.0.1	2019_Mar_10_1408	s	s	11	4	SIC	175	ABS	0	0	1	3	24_1_3	NA	NA	0	1	1.19200706482	None	None	None	None	1
3.0.1	2019_Mar_10_1408	s	s	11	4	SIC	176	ABS	0	0	3	4	24_3_4	NA	NA	0	1	0.740668058395	None	None	None	None	1
3.0.1	2019_Mar_10_1408	s	s	11	4	SIC	177	ABS	0	0	3	3	24_3_3	NA	NA	0	1	1.15187096596	None	None	None	None	1
3.0.1	2019_Mar_10_1408	s	s	11	4	SIC	178	4_2	4	2	4	3	23_4_3	0	1	0	1	1.14890503883	-322.0	165.0	None	None	0
3.0.1	2019_Mar_10_1408	s	s	11	4	SIC	179	ABS	0	0	3	2	24_3_2	NA	NA	0	1	1.52237010002	None	None	None	None	1
3.0.1	2019_Mar_10_1408	s	s	11	4	SIC	180	3_2	3	2	2	4	23_2_4	1	2	1	0	0.531466007233	-26.0	236.0	-31.0	235.0	1
3.0.1	2019_Mar_10_1408	s	s	11	4	SIC	181	ABS	0	0	2	3	24_2_3	NA	NA	0	1	1.02668190002	None	None	None	None	1
3.0.1	2019_Mar_10_1408	s	s	11	4	SIC	182	ABS	0	0	3	2	24_3_2	NA	NA	0	1	1.28792881966	None	None	None	None	1
3.0.1	2019_Mar_10_1408	s	s	11	4	SIC	183	3_3	3	3	2	2	23_2_2	1	1	1	0	0.790208101273	317.0	-295.0	320.0	-304.0	1
3.0.1	2019_Mar_10_1408	s	s	11	4	SIC	184	ABS	0	0	2	4	24_2_4	NA	NA	0	1	0.782350063324	None	None	None	None	1
3.0.1	2019_Mar_10_1408	s	s	11	4	SIC	185	2_4	2	4	2	2	23_2_2	0	2	1	0	0.681431055069	-171.0	-188.0	-166.0	-192.0	1
3.0.1	2019_Mar_10_1408	s	s	11	4	SIC	186	4_1	4	1	1	3	23_1_3	3	2	1	0	0.416079998016	272.0	48.0	258.0	57.0	1
3.0.1	2019_Mar_10_1408	s	s	11	4	SIC	187	ABS	0	0	3	1	24_3_1	NA	NA	0	1	0.619377851486	None	None	None	None	1
3.0.1	2019_Mar_10_1408	s	s	11	4	SIC	188	ABS	0	0	1	1	24_1_1	NA	NA	0	1	0.685300111771	None	None	None	None	1
3.0.1	2019_Mar_10_1408	s	s	11	4	SIC	189	1_1	1	1	2	3	23_2_3	1	2	1	0	1.16859602928	-367.0	-167.0	-359.0	-167.0	1
3.0.1	2019_Mar_10_1408	s	s	11	4	SIC	190	4_2	4	2	2	4	23_2_4	2	2	1	0	0.469811916351	-156.0	367.0	-151.0	365.0	1
3.0.1	2019_Mar_10_1408	s	s	11	4	SIC	191	ABS	0	0	2	1	24_2_1	NA	NA	0	1	0.592148065567	None	None	None	None	1
3.0.1	2019_Mar_10_1408	s	s	11	4	SIC	192	ABS	0	0	4	3	24_4_3	NA	NA	0	1	0.74024105072	None	None	None	None	1
3.0.1	2019_Mar_10_1408	s	s	11	4	SIC	193	1_1	1	1	2	1	23_2_1	1	0	0	1	0.893244981766	174.0	175.0	None	None	0
3.0.1	2019_Mar_10_1408	s	s	11	4	SIC	194	3_1	3	1	2	4	23_2_4	1	3	1	0	0.545430183411	79.0	-295.0	82.0	-294.0	1
3.0.1	2019_Mar_10_1408	s	s	11	4	SIC	195	ABS	0	0	1	3	24_1_3	NA	NA	0	1	1.15231490135	None	None	None	None	1
3.0.1	2019_Mar_10_1408	s	s	11	4	SIC	196	ABS	0	0	3	3	24_3_3	NA	NA	0	1	2.81518483162	None	None	None	None	1
3.0.1	2019_Mar_10_1408	s	s	11	4	SIC	197	3_2	3	2	2	1	23_2_1	1	-1	1	0	0.885423898697	-166.0	-33.0	-161.0	-40.0	1
3.0.1	2019_Mar_10_1408	s	s	11	4	SIC	198	ABS	0	0	1	3	24_1_3	NA	NA	0	1	1.71650099754	None	None	None	None	1
3.0.1	2019_Mar_10_1408	s	s	11	4	SIC	199	ABS	0	0	1	4	24_1_4	NA	NA	0	1	0.937842845917	None	None	None	None	1
3.0.1	2019_Mar_10_1408	s	s	11	4	SIC	200	ABS	0	0	2	4	24_2_4	NA	NA	0	1	0.627576828003	None	None	None	None	1
3.0.1	2019_Mar_10_1408	s	s	11	4	SIC	201	4_4	4	4	1	2	23_1_2	3	2	1	0	0.474617958069	-333.0	-232.0	-324.0	-229.0	1
3.0.1	2019_Mar_10_1408	s	s	11	4	SIC	202	ABS	0	0	1	2	24_1_2	NA	NA	0	1	1.63409900665	None	None	None	None	1
3.0.1	2019_Mar_10_1408	s	s	11	4	SIC	203	4_2	4	2	2	3	23_2_3	2	1	1	0	0.437345981598	-134.0	-167.0	-128.0	-167.0	1
3.0.1	2019_Mar_10_1408	s	s	11	4	SIC	204	ABS	0	0	3	2	24_3_2	NA	NA	0	1	0.731332063675	None	None	None	None	1
3.0.1	2019_Mar_10_1408	s	s	11	4	SIC	205	ABS	0	0	4	4	24_4_4	NA	NA	0	1	1.17539000511	None	None	None	None	1
3.0.1	2019_Mar_10_1408	s	s	11	4	SIC	206	ABS	0	0	2	3	24_2_3	NA	NA	0	1	1.51931285858	None	None	None	None	1
3.0.1	2019_Mar_10_1408	s	s	11	4	SIC	207	1_1	1	1	1	4	23_1_4	0	3	1	0	0.502127885818	133.0	-116.0	133.0	-108.0	1
3.0.1	2019_Mar_10_1408	s	s	11	4	SIC	208	3_4	3	4	1	4	23_1_4	2	0	1	0	0.627491950989	-359.0	326.0	-357.0	327.0	1
3.0.1	2019_Mar_10_1408	s	s	11	4	SIC	209	ABS	0	0	3	3	24_3_3	NA	NA	0	1	2.29283690453	None	None	None	None	1
3.0.1	2019_Mar_10_1408	s	s	11	4	SIC	210	ABS	0	0	1	4	24_1_4	NA	NA	0	1	1.17537713051	None	None	None	None	1
3.0.1	2019_Mar_10_1408	s	s	11	4	SIC	211	ABS	0	0	2	2	24_2_2	NA	NA	0	1	1.99866199493	None	None	None	None	1
3.0.1	2019_Mar_10_1408	s	s	11	4	SIC	212	ABS	0	0	2	2	24_2_2	NA	NA	0	1	2.20725703239	None	None	None	None	1
3.0.1	2019_Mar_10_1408	s	s	11	4	SIC	213	3_2	3	2	4	4	23_4_4	-1	2	1	0	0.638609886169	226.0	63.0	228.0	61.0	1
3.0.1	2019_Mar_10_1408	s	s	11	4	SIC	214	2_4	2	4	3	3	23_3_3	1	1	1	0	0.528546094894	164.0	323.0	168.0	325.0	1
3.0.1	2019_Mar_10_1408	s	s	11	4	SIC	215	ABS	0	0	3	2	24_3_2	NA	NA	0	1	0.94016289711	None	None	None	None	1
3.0.1	2019_Mar_10_1408	s	s	11	4	SIC	216	ABS	0	0	2	2	24_2_2	NA	NA	0	1	1.93985390663	None	None	None	None	1
3.0.1	2019_Mar_10_1408	s	s	11	4	SIC	217	3_4	3	4	1	2	23_1_2	2	2	1	0	0.558127880096	132.0	374.0	127.0	371.0	1
3.0.1	2019_Mar_10_1408	s	s	11	4	SIC	218	2_1	2	1	2	4	23_2_4	0	3	1	0	0.528496026993	-188.0	-348.0	-190.0	-347.0	1
3.0.1	2019_Mar_10_1408	s	s	11	4	SIC	219	1_2	1	2	3	2	23_3_2	2	0	1	0	0.540316104889	-253.0	180.0	-265.0	181.0	1
3.0.1	2019_Mar_10_1408	s	s	11	4	SIC	220	ABS	0	0	2	2	24_2_2	NA	NA	0	1	2.27646398544	None	None	None	None	1
3.0.1	2019_Mar_10_1408	s	s	11	4	SIC	221	1_4	1	4	2	2	23_2_2	1	2	1	0	1.15731811523	-8.0	-255.0	-11.0	-262.0	1
3.0.1	2019_Mar_10_1408	s	s	11	4	SIC	222	1_1	1	1	3	1	23_3_1	2	0	1	0	0.893085002899	367.0	-342.0	370.0	-343.0	1
3.0.1	2019_Mar_10_1408	s	s	11	4	SIC	223	2_3	2	3	2	2	23_2_2	0	1	1	0	1.62232708931	-90.0	-240.0	-93.0	-248.0	1
3.0.1	2019_Mar_10_1408	s	s	11	4	SIC	224	ABS	0	0	3	4	24_3_4	NA	NA	0	1	1.14019799232	None	None	None	None	1
3.0.1	2019_Mar_10_1408	s	s	11	4	SIC	225	4_4	4	4	1	1	23_1_1	3	3	1	0	0.540287017822	273.0	278.0	278.0	278.0	1
3.0.1	2019_Mar_10_1408	s	s	11	4	SIC	226	ABS	0	0	2	4	24_2_4	NA	NA	0	1	0.940160989761	None	None	None	None	1
3.0.1	2019_Mar_10_1408	s	s	11	4	SIC	227	3_3	3	3	2	1	23_2_1	1	2	1	0	0.756963968277	-335.0	355.0	-336.0	364.0	1
3.0.1	2019_Mar_10_1408	s	s	11	4	SIC	228	1_3	1	3	2	1	23_2_1	1	2	0	1	0.968792915344	459.0	-117.0	None	None	0
3.0.1	2019_Mar_10_1408	s	s	11	4	SIC	229	ABS	0	0	2	2	24_2_2	NA	NA	0	1	2.57150506973	None	None	None	None	1
3.0.1	2019_Mar_10_1408	s	s	11	4	SIC	230	ABS	0	0	3	3	24_3_3	NA	NA	0	1	1.32582783699	None	None	None	None	1
3.0.1	2019_Mar_10_1408	s	s	11	4	SIC	231	ABS	0	0	4	4	24_4_4	NA	NA	0	1	0.674903154373	None	None	None	None	1
3.0.1	2019_Mar_10_1408	s	s	11	4	SIC	232	ABS	0	0	4	4	24_4_4	NA	NA	0	1	0.763767004013	None	None	None	None	1
3.0.1	2019_Mar_10_1408	s	s	11	4	SIC	233	4_2	4	2	1	4	23_1_4	3	2	1	0	0.521447181702	-265.0	-16.0	-269.0	-15.0	1
3.0.1	2019_Mar_10_1408	s	s	11	4	SIC	234	2_3	2	3	3	4	23_3_4	1	-1	1	0	0.528645992279	-354.0	171.0	-358.0	171.0	1
3.0.1	2019_Mar_10_1408	s	s	11	4	SIC	235	ABS	0	0	3	3	24_3_3	NA	NA	0	1	1.3803858757	None	None	None	None	1
3.0.1	2019_Mar_10_1408	s	s	11	4	SIC	236	3_2	3	2	4	1	23_4_1	-1	-1	1	0	0.54034280777	-540.0	-186.0	-548.0	-188.0	1
3.0.1	2019_Mar_10_1408	s	s	11	4	SIC	237	4_4	4	4	4	2	23_4_2	0	2	1	0	0.545120954514	174.0	-156.0	187.0	-148.0	1
3.0.1	2019_Mar_10_1408	s	s	11	4	SIC	238	4_4	4	4	2	3	23_2_3	2	1	1	0	0.580495119095	537.0	293.0	535.0	296.0	1
3.0.1	2019_Mar_10_1408	s	s	11	4	SIC	239	3_1	3	1	4	4	23_4_4	-1	3	1	0	0.442734003067	536.0	243.0	532.0	238.0	1
3.0.1	2019_Mar_10_1408	s	s	11	4	SIC	240	ABS	0	0	1	4	24_1_4	NA	NA	0	1	0.810708999634	None	None	None	None	1
3.0.1	2019_Mar_10_1408	s	s	11	4	SIC	241	ABS	0	0	1	4	24_1_4	NA	NA	0	1	0.92834687233	None	None	None	None	1
3.0.1	2019_Mar_10_1408	s	s	11	4	SIC	242	4_1	4	1	2	3	23_2_3	2	2	1	0	0.607939004898	-488.0	-43.0	-486.0	-47.0	1
3.0.1	2019_Mar_10_1408	s	s	11	4	SIC	243	ABS	0	0	4	4	24_4_4	NA	NA	0	1	0.672537088394	None	None	None	None	1
3.0.1	2019_Mar_10_1408	s	s	11	4	SIC	244	4_1	4	1	3	4	23_3_4	1	3	1	0	0.474107980728	-139.0	323.0	-141.0	316.0	1
3.0.1	2019_Mar_10_1408	s	s	11	4	SIC	245	1_3	1	3	3	2	23_3_2	2	1	1	0	0.599045038223	-504.0	36.0	-507.0	30.0	1
3.0.1	2019_Mar_10_1408	s	s	11	4	SIC	246	ABS	0	0	3	1	24_3_1	NA	NA	0	1	0.67826795578	None	None	None	None	1
3.0.1	2019_Mar_10_1408	s	s	11	4	SIC	247	1_2	1	2	3	3	23_3_3	2	1	1	0	0.613708019257	-479.0	284.0	-474.0	280.0	1
3.0.1	2019_Mar_10_1408	s	s	11	4	SIC	248	ABS	0	0	4	3	24_4_3	NA	NA	0	1	1.12841081619	None	None	None	None	1
3.0.1	2019_Mar_10_1408	s	s	11	4	SIC	249	3_1	3	1	4	1	23_4_1	-1	0	1	0	0.672567129135	-1.0	173.0	4.0	176.0	1
3.0.1	2019_Mar_10_1408	s	s	11	4	SIC	250	4_2	4	2	3	2	23_3_2	1	0	1	0	0.510601997375	460.0	-385.0	461.0	-387.0	1
3.0.1	2019_Mar_10_1408	s	s	11	4	SIC	251	2_2	2	2	1	1	23_1_1	-1	-1	0	1	0.808454036713	40.0	-412.0	None	None	0
3.0.1	2019_Mar_10_1408	s	s	11	4	SIC	252	ABS	0	0	2	1	24_2_1	NA	NA	0	1	0.790382146835	None	None	None	None	1
3.0.1	2019_Mar_10_1408	s	s	11	4	SIC	253	1_3	1	3	3	3	23_3_3	2	0	0	1	0.00808095932007	-141.0	80.0	None	None	0
3.0.1	2019_Mar_10_1408	s	s	11	4	SIC	254	ABS	0	0	2	4	24_2_4	NA	NA	0	1	1.03044199944	None	None	None	None	1
3.0.1	2019_Mar_10_1408	s	s	11	4	SIC	255	ABS	0	0	1	4	24_1_4	NA	NA	0	1	0.822550058365	None	None	None	None	1
3.0.1	2019_Mar_10_1408	s	s	11	4	SIC	256	4_4	4	4	4	1	23_4_1	0	3	1	0	0.722270965576	-184.0	-322.0	-191.0	-317.0	1
3.0.1	2019_Mar_10_1408	s	s	11	4	SIC	257	ABS	0	0	4	4	24_4_4	NA	NA	0	1	0.790163040161	None	None	None	None	1
3.0.1	2019_Mar_10_1408	s	s	11	4	SIC	258	ABS	0	0	4	1	24_4_1	NA	NA	0	1	0.59915804863	None	None	None	None	1
3.0.1	2019_Mar_10_1408	s	s	11	4	SIC	259	4_2	4	2	3	4	23_3_4	1	2	1	0	0.528505086899	485.0	-201.0	486.0	-192.0	1
3.0.1	2019_Mar_10_1408	s	s	11	4	SIC	260	ABS	0	0	4	2	24_4_2	NA	NA	0	1	1.18720197678	None	None	None	None	1
3.0.1	2019_Mar_10_1408	s	s	11	4	SIC	261	ABS	0	0	2	3	24_2_3	NA	NA	0	1	1.56860899925	None	None	None	None	1
3.0.1	2019_Mar_10_1408	s	s	11	4	SIC	262	ABS	0	0	1	3	24_1_3	NA	NA	0	1	1.15191912651	None	None	None	None	1
3.0.1	2019_Mar_10_1408	s	s	11	4	SIC	263	ABS	0	0	4	3	24_4_3	NA	NA	0	1	0.672599077225	None	None	None	None	1
3.0.1	2019_Mar_10_1408	s	s	11	4	SIC	264	ABS	0	0	1	4	24_1_4	NA	NA	0	1	0.921949863434	None	None	None	None	1
3.0.1	2019_Mar_10_1408	s	s	11	4	SIC	265	ABS	0	0	2	1	24_2_1	NA	NA	0	1	0.775604009628	None	None	None	None	1
3.0.1	2019_Mar_10_1408	s	s	11	4	SIC	266	1_4	1	4	4	1	23_4_1	3	3	1	0	0.686543941498	-59.0	-218.0	-59.0	-210.0	1
3.0.1	2019_Mar_10_1408	s	s	11	4	SIC	267	2_3	2	3	3	2	23_3_2	1	1	1	0	0.540382862091	-395.0	226.0	-391.0	216.0	1
3.0.1	2019_Mar_10_1408	s	s	11	4	SIC	268	ABS	0	0	2	2	24_2_2	NA	NA	0	1	1.35859584808	None	None	None	None	1
3.0.1	2019_Mar_10_1408	s	s	11	4	SIC	269	ABS	0	0	4	4	24_4_4	NA	NA	0	1	0.575548887253	None	None	None	None	1
3.0.1	2019_Mar_10_1408	s	s	11	4	SIC	270	ABS	0	0	2	1	24_2_1	NA	NA	0	1	0.757567167282	None	None	None	None	1
3.0.1	2019_Mar_10_1408	s	s	11	4	SIC	271	2_2	2	2	2	4	23_2_4	0	2	1	0	0.523059129715	93.0	14.0	95.0	13.0	1
3.0.1	2019_Mar_10_1408	s	s	11	4	SIC	272	ABS	0	0	2	1	24_2_1	NA	NA	0	1	0.792968034744	None	None	None	None	1
3.0.1	2019_Mar_10_1408	s	s	11	4	SIC	273	ABS	0	0	2	4	24_2_4	NA	NA	0	1	0.657846212387	None	None	None	None	1
3.0.1	2019_Mar_10_1408	s	s	11	4	SIC	274	2_3	2	3	4	1	23_4_1	2	2	1	0	0.469721078873	-54.0	-282.0	-54.0	-279.0	1
3.0.1	2019_Mar_10_1408	s	s	11	4	SIC	275	ABS	0	0	1	2	24_1_2	NA	NA	0	1	1.42899489403	None	None	None	None	1
3.0.1	2019_Mar_10_1408	s	s	11	4	SIC	276	4_2	4	2	3	3	23_3_3	1	1	1	0	0.69996714592	238.0	304.0	236.0	307.0	1
3.0.1	2019_Mar_10_1408	s	s	11	4	SIC	277	1_3	1	3	1	4	23_1_4	0	-1	1	0	0.775553941727	75.0	-292.0	71.0	-289.0	1
3.0.1	2019_Mar_10_1408	s	s	11	4	SIC	278	ABS	0	0	1	2	24_1_2	NA	NA	0	1	2.33964204788	None	None	None	None	1
3.0.1	2019_Mar_10_1408	s	s	11	4	SIC	279	1_2	1	2	4	1	23_4_1	3	-1	1	0	0.437256097794	-94.0	-259.0	-100.0	-257.0	1
3.0.1	2019_Mar_10_1408	s	s	11	4	SIC	280	2_2	2	2	2	3	23_2_3	0	1	0	1	1.70463204384	139.0	398.0	None	None	0
3.0.1	2019_Mar_10_1408	s	s	11	4	SIC	281	4_4	4	4	3	1	23_3_1	1	3	1	0	0.474778175354	78.0	233.0	80.0	230.0	1
3.0.1	2019_Mar_10_1408	s	s	11	4	SIC	282	2_2	2	2	1	3	23_1_3	-1	1	1	0	2.49254798889	-43.0	182.0	-46.0	188.0	1
3.0.1	2019_Mar_10_1408	s	s	11	4	SIC	283	1_2	1	2	3	4	23_3_4	2	2	1	0	0.519794940948	-248.0	-38.0	-251.0	-32.0	1
3.0.1	2019_Mar_10_1408	s	s	11	4	SIC	284	4_3	4	3	4	4	23_4_4	0	-1	1	0	0.592170000076	116.0	366.0	119.0	367.0	1
3.0.1	2019_Mar_10_1408	s	s	11	4	SIC	285	ABS	0	0	2	2	24_2_2	NA	NA	0	1	1.31945204735	None	None	None	None	1
3.0.1	2019_Mar_10_1408	s	s	11	4	SIC	286	ABS	0	0	4	1	24_4_1	NA	NA	0	1	0.799059152603	None	None	None	None	1
3.0.1	2019_Mar_10_1408	s	s	11	4	SIC	287	3_2	3	2	3	3	23_3_3	0	1	1	0	1.6576499939	-130.0	251.0	-128.0	258.0	1
3.0.1	2019_Mar_10_1408	s	s	11	4	SIC	288	3_2	3	2	2	3	23_2_3	1	1	1	0	0.857848882675	437.0	-278.0	434.0	-274.0	1
3.0.1	2019_Mar_10_1408	s	s	11	4	SIC	289	1_2	1	2	1	3	23_1_3	0	1	1	0	2.17932987213	82.0	271.0	75.0	264.0	1
3.0.1	2019_Mar_10_1408	s	s	11	4	SIC	290	ABS	0	0	3	4	24_3_4	NA	NA	0	1	1.33474802971	None	None	None	None	1
3.0.1	2019_Mar_10_1408	s	s	11	4	SIC	291	2_1	2	1	4	3	23_4_3	2	2	1	0	0.504963874817	79.0	-183.0	79.0	-182.0	1
3.0.1	2019_Mar_10_1408	s	s	11	4	SIC	292	2_4	2	4	1	2	23_1_2	-1	2	1	0	0.73703289032	-364.0	217.0	-371.0	220.0	1
3.0.1	2019_Mar_10_1408	s	s	11	4	SIC	293	ABS	0	0	1	4	24_1_4	NA	NA	0	1	1.11110782623	None	None	None	None	1
3.0.1	2019_Mar_10_1408	s	s	11	4	SIC	294	3_1	3	1	3	4	23_3_4	0	3	1	0	0.693166017532	511.0	70.0	516.0	65.0	1
3.0.1	2019_Mar_10_1408	s	s	11	4	SIC	295	4_3	4	3	4	2	23_4_2	0	1	1	0	2.80427718163	228.0	-394.0	235.0	-400.0	1
3.0.1	2019_Mar_10_1408	s	s	11	4	SIC	296	ABS	0	0	4	2	24_4_2	NA	NA	0	1	1.97542715073	None	None	None	None	1
3.0.1	2019_Mar_10_1408	s	s	11	4	SIC	297	1_4	1	4	4	3	23_4_3	3	1	1	0	0.523754119873	137.0	-140.0	136.0	-142.0	1
3.0.1	2019_Mar_10_1408	s	s	11	4	SIC	298	ABS	0	0	3	2	24_3_2	NA	NA	0	1	2.84553718567	None	None	None	None	1
3.0.1	2019_Mar_10_1408	s	s	11	4	SIC	299	ABS	0	0	3	4	24_3_4	NA	NA	0	1	1.03426384926	None	None	None	None	1
3.0.1	2019_Mar_10_1408	s	s	11	4	SIC	300	2_1	2	1	3	3	23_3_3	1	2	1	0	0.532454013824	-379.0	126.0	-378.0	132.0	1
3.0.1	2019_Mar_10_1408	s	s	11	4	SIC	301	1_3	1	3	1	2	23_1_2	0	1	1	0	3.29242610931	-355.0	195.0	-358.0	196.0	1
3.0.1	2019_Mar_10_1408	s	s	11	4	SIC	302	ABS	0	0	1	4	24_1_4	NA	NA	0	1	0.9586789608	None	None	None	None	1
3.0.1	2019_Mar_10_1408	s	s	11	4	SIC	303	4_4	4	4	2	2	23_2_2	2	2	1	0	0.469595909119	223.0	161.0	221.0	161.0	1
3.0.1	2019_Mar_10_1408	s	s	11	4	SIC	304	1_2	1	2	4	2	23_4_2	3	0	1	0	0.743170976639	-73.0	-409.0	-72.0	-406.0	1
3.0.1	2019_Mar_10_1408	s	s	11	4	SIC	305	ABS	0	0	2	2	24_2_2	NA	NA	0	1	1.64586400986	None	None	None	None	1
3.0.1	2019_Mar_10_1408	s	s	11	4	SIC	306	ABS	0	0	4	3	24_4_3	NA	NA	0	1	2.88373088837	None	None	None	None	1
3.0.1	2019_Mar_10_1408	s	s	11	4	SIC	307	ABS	0	0	3	4	24_3_4	NA	NA	0	1	0.799052000046	None	None	None	None	1
3.0.1	2019_Mar_10_1408	s	s	11	4	SIC	308	1_3	1	3	4	4	23_4_4	3	-1	1	0	0.451476812363	-89.0	-108.0	-91.0	-102.0	1
3.0.1	2019_Mar_10_1408	s	s	11	4	SIC	309	ABS	0	0	4	1	24_4_1	NA	NA	0	1	0.781568050385	None	None	None	None	1
3.0.1	2019_Mar_10_1408	s	s	11	4	SIC	310	4_3	4	3	1	2	23_1_2	3	1	1	0	0.470226049423	-457.0	70.0	-469.0	73.0	1
3.0.1	2019_Mar_10_1408	s	s	11	4	SIC	311	ABS	0	0	4	2	24_4_2	NA	NA	0	1	1.48631906509	None	None	None	None	1
3.0.1	2019_Mar_10_1408	s	s	11	4	SIC	312	ABS	0	0	2	2	24_2_2	NA	NA	0	1	1.96338796616	None	None	None	None	1
3.0.1	2019_Mar_10_1408	s	s	11	4	SIC	313	1_4	1	4	1	2	23_1_2	0	2	1	0	0.533756017685	-319.0	16.0	-311.0	11.0	1
3.0.1	2019_Mar_10_1408	s	s	11	4	SIC	314	3_2	3	2	3	4	23_3_4	0	2	1	0	0.646132946014	100.0	-120.0	102.0	-117.0	1
3.0.1	2019_Mar_10_1408	s	s	11	4	SIC	315	4_1	4	1	2	2	23_2_2	2	1	1	0	0.486930847168	54.0	-262.0	60.0	-263.0	1
3.0.1	2019_Mar_10_1408	s	s	11	4	SIC	316	ABS	0	0	3	1	24_3_1	NA	NA	0	1	0.763724088669	None	None	None	None	1
3.0.1	2019_Mar_10_1408	s	s	11	4	SIC	317	ABS	0	0	1	1	24_1_1	NA	NA	0	1	0.834313869476	None	None	None	None	1
3.0.1	2019_Mar_10_1408	s	s	11	4	SIC	318	1_3	1	3	4	2	23_4_2	3	1	1	0	0.599164009094	382.0	340.0	383.0	341.0	1
3.0.1	2019_Mar_10_1408	s	s	11	4	SIC	319	2_4	2	4	2	1	23_2_1	0	3	1	0	0.622659921646	82.0	-368.0	82.0	-369.0	1
3.0.1	2019_Mar_10_1408	s	s	11	4	SIC	320	3_3	3	3	4	3	23_4_3	-1	0	1	0	0.460839033127	-216.0	201.0	-215.0	209.0	1
3.0.1	2019_Mar_10_1408	s	s	11	4	SIC	321	1_3	1	3	3	1	23_3_1	2	2	1	0	0.505447864532	54.0	162.0	64.0	162.0	1
3.0.1	2019_Mar_10_1408	s	s	11	4	SIC	322	3_3	3	3	3	1	23_3_1	0	2	1	0	1.260627985	232.0	-337.0	238.0	-332.0	1
3.0.1	2019_Mar_10_1408	s	s	11	4	SIC	323	2_1	2	1	2	3	23_2_3	0	2	1	0	0.528522968292	277.0	157.0	165.0	179.0	0
3.0.1	2019_Mar_10_1408	s	s	11	4	SIC	324	3_3	3	3	3	2	23_3_2	0	1	0	1	2.18688893318	513.0	96.0	None	None	0
3.0.1	2019_Mar_10_1408	s	s	11	4	SIC	325	3_4	3	4	1	1	23_1_1	2	3	1	0	0.547198057175	218.0	-346.0	220.0	-359.0	1
3.0.1	2019_Mar_10_1408	s	s	11	4	SIC	326	ABS	0	0	2	1	24_2_1	NA	NA	0	1	0.94021987915	None	None	None	None	1
3.0.1	2019_Mar_10_1408	s	s	11	4	SIC	327	ABS	0	0	1	3	24_1_3	NA	NA	0	1	1.47537684441	None	None	None	None	1
3.0.1	2019_Mar_10_1408	s	s	11	4	SIC	328	3_3	3	3	3	4	23_3_4	0	-1	1	0	0.554913043976	237.0	-16.0	225.0	-7.0	1
3.0.1	2019_Mar_10_1408	s	s	11	4	SIC	329	2_2	2	2	4	2	23_4_2	2	0	1	0	0.481540203094	-99.0	-45.0	-91.0	-47.0	1
3.0.1	2019_Mar_10_1408	s	s	11	4	SIC	330	ABS	0	0	4	1	24_4_1	NA	NA	0	1	0.755274057388	None	None	None	None	1
3.0.1	2019_Mar_10_1408	s	s	11	4	SIC	331	ABS	0	0	4	4	24_4_4	NA	NA	0	1	0.84898519516	None	None	None	None	1
3.0.1	2019_Mar_10_1408	s	s	11	4	SIC	332	4_2	4	2	4	4	23_4_4	0	2	1	0	0.622637987137	-371.0	-253.0	-372.0	-246.0	1
3.0.1	2019_Mar_10_1408	s	s	11	4	SIC	333	ABS	0	0	2	1	24_2_1	NA	NA	0	1	1.09302592278	None	None	None	None	1
3.0.1	2019_Mar_10_1408	s	s	11	4	SIC	334	ABS	0	0	1	4	24_1_4	NA	NA	0	1	0.882424116135	None	None	None	None	1
3.0.1	2019_Mar_10_1408	s	s	11	4	SIC	335	ABS	0	0	2	4	24_2_4	NA	NA	0	1	0.869648933411	None	None	None	None	1
3.0.1	2019_Mar_10_1408	s	s	11	4	SIC	336	ABS	0	0	3	3	24_3_3	NA	NA	0	1	2.60423088074	None	None	None	None	1
3.0.1	2019_Mar_10_1408	s	s	11	4	SIC	337	2_3	2	3	4	4	23_4_4	2	-1	1	0	0.509215116501	-38.0	360.0	-48.0	359.0	1
3.0.1	2019_Mar_10_1408	s	s	11	4	SIC	338	ABS	0	0	3	2	24_3_2	NA	NA	0	1	1.37820005417	None	None	None	None	1
3.0.1	2019_Mar_10_1408	s	s	11	4	SIC	339	ABS	0	0	3	3	24_3_3	NA	NA	0	1	1.36362791061	None	None	None	None	1
3.0.1	2019_Mar_10_1408	s	s	11	4	SIC	340	ABS	0	0	1	4	24_1_4	NA	NA	0	1	1.05297493935	None	None	None	None	1
3.0.1	2019_Mar_10_1408	s	s	11	4	SIC	341	1_1	1	1	4	3	23_4_3	3	2	1	0	0.704934835434	89.0	380.0	87.0	390.0	1
3.0.1	2019_Mar_10_1408	s	s	11	4	SIC	342	2_4	2	4	4	4	23_4_4	2	0	1	0	0.516706943512	0.0	118.0	-5.0	109.0	1
3.0.1	2019_Mar_10_1408	s	s	11	4	SIC	343	ABS	0	0	4	3	24_4_3	NA	NA	0	1	1.29308104515	None	None	None	None	1
3.0.1	2019_Mar_10_1408	s	s	11	4	SIC	344	2_1	2	1	3	2	23_3_2	1	1	1	0	0.740212917328	332.0	252.0	328.0	256.0	1
3.0.1	2019_Mar_10_1408	s	s	11	4	SIC	345	ABS	0	0	2	2	24_2_2	NA	NA	0	1	2.09274792671	None	None	None	None	1
3.0.1	2019_Mar_10_1408	s	s	11	4	SIC	346	2_2	2	2	4	1	23_4_1	2	-1	1	0	0.722198963165	-412.0	-302.0	-418.0	-301.0	1
3.0.1	2019_Mar_10_1408	s	s	11	4	SIC	347	ABS	0	0	1	2	24_1_2	NA	NA	0	1	1.40501499176	None	None	None	None	1
3.0.1	2019_Mar_10_1408	s	s	11	4	SIC	348	ABS	0	0	4	1	24_4_1	NA	NA	0	1	0.723660945892	None	None	None	None	1
3.0.1	2019_Mar_10_1408	s	s	11	4	SIC	349	2_3	2	3	3	3	23_3_3	1	0	1	0	1.03427696228	131.0	-395.0	129.0	-405.0	1
3.0.1	2019_Mar_10_1408	s	s	11	4	SIC	350	3_2	3	2	1	4	23_1_4	2	2	1	0	0.510316133499	-32.0	54.0	-32.0	51.0	1
3.0.1	2019_Mar_10_1408	s	s	11	4	SIC	351	1_4	1	4	4	2	23_4_2	3	2	1	0	0.446192026138	-108.0	75.0	-103.0	70.0	1
3.0.1	2019_Mar_10_1408	s	s	11	4	SIC	352	ABS	0	0	3	4	24_3_4	NA	NA	0	1	1.09818816185	None	None	None	None	1
3.0.1	2019_Mar_10_1408	s	s	11	4	SIC	353	4_3	4	3	2	1	23_2_1	2	2	1	0	0.533822059631	-203.0	27.0	-206.0	22.0	1
3.0.1	2019_Mar_10_1408	s	s	11	4	SIC	354	ABS	0	0	3	2	24_3_2	NA	NA	0	1	2.17506480217	None	None	None	None	1
3.0.1	2019_Mar_10_1408	s	s	11	4	SIC	355	3_4	3	4	4	3	23_4_3	-1	1	1	0	0.591772079468	-514.0	-335.0	-514.0	-333.0	1
3.0.1	2019_Mar_10_1408	s	s	11	4	SIC	356	4_4	4	4	3	2	23_3_2	1	2	1	0	0.517148017883	-70.0	-126.0	-72.0	-122.0	1
3.0.1	2019_Mar_10_1408	s	s	11	4	SIC	357	4_4	4	4	3	4	23_3_4	1	0	1	0	0.437366962433	259.0	-46.0	266.0	-48.0	1
3.0.1	2019_Mar_10_1408	s	s	11	4	SIC	358	2_1	2	1	1	1	23_1_1	-1	0	0	1	0.869520902634	-181.0	82.0	None	None	0
3.0.1	2019_Mar_10_1408	s	s	11	4	SIC	359	ABS	0	0	3	4	24_3_4	NA	NA	0	1	0.716824054718	None	None	None	None	1
3.0.1	2019_Mar_10_1408	s	s	11	4	SIC	360	ABS	0	0	4	4	24_4_4	NA	NA	0	1	0.599097967148	None	None	None	None	1
3.0.1	2019_Mar_10_1408	s	s	11	4	SIC	361	ABS	0	0	3	2	24_3_2	NA	NA	0	1	1.33388495445	None	None	None	None	1
3.0.1	2019_Mar_10_1408	s	s	11	4	SIC	362	ABS	0	0	4	4	24_4_4	NA	NA	0	1	0.646144151688	None	None	None	None	1
3.0.1	2019_Mar_10_1408	s	s	11	4	SIC	363	1_1	1	1	1	3	23_1_3	0	2	1	0	1.21355700493	243.0	-310.0	244.0	-313.0	1
3.0.1	2019_Mar_10_1408	s	s	11	4	SIC	364	ABS	0	0	4	1	24_4_1	NA	NA	0	1	0.854922056198	None	None	None	None	1
3.0.1	2019_Mar_10_1408	s	s	11	4	SIC	365	ABS	0	0	3	1	24_3_1	NA	NA	0	1	0.646108865738	None	None	None	None	1
3.0.1	2019_Mar_10_1408	s	s	11	4	SIC	366	4_3	4	3	1	4	23_1_4	3	-1	1	0	0.869656801224	502.0	383.0	505.0	393.0	1
3.0.1	2019_Mar_10_1408	s	s	11	4	SIC	367	2_4	2	4	4	1	23_4_1	2	3	1	0	0.528516054153	36.0	-390.0	27.0	-390.0	1
3.0.1	2019_Mar_10_1408	s	s	11	4	SIC	368	ABS	0	0	2	1	24_2_1	NA	NA	0	1	0.98721408844	None	None	None	None	1
3.0.1	2019_Mar_10_1408	s	s	11	4	SIC	369	4_1	4	1	1	2	23_1_2	3	1	1	0	0.446246862411	-419.0	281.0	-426.0	282.0	1
3.0.1	2019_Mar_10_1408	s	s	11	4	SIC	370	ABS	0	0	1	3	24_1_3	NA	NA	0	1	1.10485196114	None	None	None	None	1
3.0.1	2019_Mar_10_1408	s	s	11	4	SIC	371	3_2	3	2	3	1	23_3_1	0	-1	0	1	0.851179122925	-492.0	172.0	None	None	0
3.0.1	2019_Mar_10_1408	s	s	11	4	SIC	372	ABS	0	0	2	4	24_2_4	NA	NA	0	1	0.928380012512	None	None	None	None	1
3.0.1	2019_Mar_10_1408	s	s	11	4	SIC	373	3_1	3	1	2	1	23_2_1	1	0	1	0	0.615983963013	-161.0	182.0	-156.0	183.0	1
3.0.1	2019_Mar_10_1408	s	s	11	4	SIC	374	ABS	0	0	1	2	24_1_2	NA	NA	0	1	1.88118505478	None	None	None	None	1
3.0.1	2019_Mar_10_1408	s	s	11	4	SIC	375	4_1	4	1	3	3	23_3_3	1	2	1	0	0.49149107933	360.0	-178.0	356.0	-177.0	1
3.0.1	2019_Mar_10_1408	s	s	11	4	SIC	376	ABS	0	0	1	1	24_1_1	NA	NA	0	1	0.987154960632	None	None	None	None	1
3.0.1	2019_Mar_10_1408	s	s	11	4	SIC	377	2_2	2	2	1	2	23_1_2	-1	0	0	1	1.39041900635	143.0	-336.0	None	None	0
3.0.1	2019_Mar_10_1408	s	s	11	4	SIC	378	2_4	2	4	1	3	23_1_3	-1	1	1	0	1.10483908653	399.0	5.0	391.0	2.0	1
3.0.1	2019_Mar_10_1408	s	s	11	4	SIC	379	ABS	0	0	4	1	24_4_1	NA	NA	0	1	0.731348991394	None	None	None	None	1
3.0.1	2019_Mar_10_1408	s	s	11	4	SIC	380	ABS	0	0	3	3	24_3_3	NA	NA	0	1	1.44110298157	None	None	None	None	1
3.0.1	2019_Mar_10_1408	s	s	11	4	SIC	381	1_1	1	1	3	3	23_3_3	2	2	1	0	0.907869100571	535.0	-134.0	535.0	-134.0	1
3.0.1	2019_Mar_10_1408	s	s	11	4	SIC	382	ABS	0	0	2	4	24_2_4	NA	NA	0	1	1.06161403656	None	None	None	None	1
3.0.1	2019_Mar_10_1408	s	s	11	4	SIC	383	ABS	0	0	1	2	24_1_2	NA	NA	0	1	1.88104891777	None	None	None	None	1
3.0.1	2019_Mar_10_1408	s	s	11	4	SIC	384	ABS	0	0	2	2	24_2_2	NA	NA	0	1	1.79917597771	None	None	None	None	1
3.0.1	2019_Mar_10_1408	s	s	11	4	SIC	385	4_1	4	1	1	4	23_1_4	3	3	1	0	0.662738084793	-283.0	110.0	-283.0	103.0	1
3.0.1	2019_Mar_10_1408	s	s	11	4	SIC	386	ABS	0	0	1	2	24_1_2	NA	NA	0	1	1.84579801559	None	None	None	None	1
3.0.1	2019_Mar_10_1408	s	s	11	4	SIC	387	ABS	0	0	1	3	24_1_3	NA	NA	0	1	7.51165509224	None	None	None	None	1
3.0.1	2019_Mar_10_1408	s	s	11	4	SIC	388	ABS	0	0	3	1	24_3_1	NA	NA	0	1	0.751931190491	None	None	None	None	1
3.0.1	2019_Mar_10_1408	s	s	11	4	SIC	389	2_2	2	2	3	2	23_3_2	1	0	1	0	0.822548151016	108.0	174.0	106.0	178.0	1
3.0.1	2019_Mar_10_1408	s	s	11	4	SIC	390	3_4	3	4	4	1	23_4_1	-1	3	1	0	0.54031586647	-73.0	-227.0	-65.0	-225.0	1
3.0.1	2019_Mar_10_1408	s	s	11	4	SIC	391	ABS	0	0	1	4	24_1_4	NA	NA	0	1	1.11013698578	None	None	None	None	1
3.0.1	2019_Mar_10_1408	s	s	11	4	SIC	392	ABS	0	0	3	3	24_3_3	NA	NA	0	1	1.12836098671	None	None	None	None	1
3.0.1	2019_Mar_10_1408	s	s	11	4	SIC	393	ABS	0	0	4	1	24_4_1	NA	NA	0	1	0.681345939636	None	None	None	None	1
3.0.1	2019_Mar_10_1408	s	s	11	4	SIC	394	ABS	0	0	3	2	24_3_2	NA	NA	0	1	1.36366200447	None	None	None	None	1
3.0.1	2019_Mar_10_1408	s	s	11	4	SIC	395	4_1	4	1	4	3	23_4_3	0	2	0	1	0.945267915726	-472.0	114.0	None	None	0
3.0.1	2019_Mar_10_1408	s	s	11	4	SIC	396	3_1	3	1	1	2	23_1_2	2	1	1	0	0.599099874496	-274.0	-215.0	-283.0	-210.0	1
3.0.1	2019_Mar_10_1408	s	s	11	4	SIC	397	2_2	2	2	3	4	23_3_4	1	2	1	0	0.540323019028	82.0	320.0	90.0	326.0	1
3.0.1	2019_Mar_10_1408	s	s	11	4	SIC	398	ABS	0	0	4	4	24_4_4	NA	NA	0	1	0.884742021561	None	None	None	None	1
3.0.1	2019_Mar_10_1408	s	s	11	4	SIC	399	ABS	0	0	4	4	24_4_4	NA	NA	0	1	0.934479951859	None	None	None	None	1
3.0.1	2019_Mar_10_1408	s	s	11	4	SIC	400	4_3	4	3	3	4	23_3_4	1	-1	1	0	0.505057096481	-49.0	29.0	-50.0	12.0	1
3.0.1	2019_Mar_10_1408	s	s	11	4	SIC	401	ABS	0	0	2	3	24_2_3	NA	NA	0	1	1.73210406303	None	None	None	None	1
3.0.1	2019_Mar_10_1408	s	s	11	4	SIC	402	ABS	0	0	3	4	24_3_4	NA	NA	0	1	0.775516986847	None	None	None	None	1
3.0.1	2019_Mar_10_1408	s	s	11	4	SIC	403	2_1	2	1	1	2	23_1_2	-1	1	0	1	1.19938802719	-538.0	44.0	None	None	0
3.0.1	2019_Mar_10_1408	s	s	11	4	SIC	404	ABS	0	0	1	3	24_1_3	NA	NA	0	1	2.0986661911	None	None	None	None	1
3.0.1	2019_Mar_10_1408	s	s	11	4	SIC	405	1_2	1	2	4	3	23_4_3	3	1	1	0	0.533600091934	-534.0	-135.0	-539.0	-132.0	1
3.0.1	2019_Mar_10_1408	s	s	11	4	SIC	406	ABS	0	0	1	3	24_1_3	NA	NA	0	1	1.93983411789	None	None	None	None	1
3.0.1	2019_Mar_10_1408	s	s	11	4	SIC	407	1_1	1	1	4	4	23_4_4	3	3	1	0	0.47413611412	208.0	-70.0	211.0	-62.0	1
3.0.1	2019_Mar_10_1408	s	s	11	4	SIC	408	ABS	0	0	4	4	24_4_4	NA	NA	0	1	0.756046056747	None	None	None	None	1
3.0.1	2019_Mar_10_1408	s	s	11	4	SIC	409	2_4	2	4	4	2	23_4_2	2	2	1	0	0.481518030167	176.0	-94.0	169.0	-90.0	1
3.0.1	2019_Mar_10_1408	s	s	11	4	SIC	410	ABS	0	0	4	2	24_4_2	NA	NA	0	1	2.51173996925	None	None	None	None	1
3.0.1	2019_Mar_10_1408	s	s	11	4	SIC	411	3_1	3	1	1	4	23_1_4	2	3	1	0	0.52849984169	-367.0	316.0	-372.0	319.0	1
3.0.1	2019_Mar_10_1408	s	s	11	4	SIC	412	1_4	1	4	1	3	23_1_3	0	1	1	0	0.634341955185	328.0	291.0	336.0	296.0	1
3.0.1	2019_Mar_10_1408	s	s	11	4	SIC	413	ABS	0	0	1	2	24_1_2	NA	NA	0	1	2.23396706581	None	None	None	None	1
3.0.1	2019_Mar_10_1408	s	s	11	4	SIC	414	1_2	1	2	2	1	23_2_1	1	-1	0	1	0.934988021851	347.0	-229.0	None	None	0
3.0.1	2019_Mar_10_1408	s	s	11	4	SIC	415	ABS	0	0	4	2	24_4_2	NA	NA	0	1	1.52825903893	None	None	None	None	1
3.0.1	2019_Mar_10_1408	s	s	11	4	SIC	416	ABS	0	0	3	2	24_3_2	NA	NA	0	1	1.50072598457	None	None	None	None	1
3.0.1	2019_Mar_10_1408	s	s	11	4	SIC	417	2_2	2	2	4	3	23_4_3	2	1	1	0	0.569051980972	-344.0	-361.0	-357.0	-352.0	1
3.0.1	2019_Mar_10_1408	s	s	11	4	SIC	418	2_4	2	4	3	4	23_3_4	1	0	1	0	0.86515712738	-123.0	341.0	-119.0	335.0	1
3.0.1	2019_Mar_10_1408	s	s	11	4	SIC	419	ABS	0	0	3	2	24_3_2	NA	NA	0	1	1.86968302727	None	None	None	None	1
3.0.1	2019_Mar_10_1408	s	s	11	4	SIC	420	ABS	0	0	4	3	24_4_3	NA	NA	0	1	1.41521215439	None	None	None	None	1
3.0.1	2019_Mar_10_1408	s	s	11	4	SIC	421	4_1	4	1	4	4	23_4_4	0	3	1	0	0.505094766617	167.0	226.0	166.0	218.0	1
3.0.1	2019_Mar_10_1408	s	s	11	4	SIC	422	3_2	3	2	4	2	23_4_2	-1	0	1	0	0.486862897873	-148.0	-36.0	-140.0	-33.0	1
3.0.1	2019_Mar_10_1408	s	s	11	4	SIC	423	1_3	1	3	2	4	23_2_4	1	-1	1	0	0.568305969238	-322.0	409.0	-320.0	408.0	1
3.0.1	2019_Mar_10_1408	s	s	11	4	SIC	424	4_4	4	4	4	3	23_4_3	0	1	1	0	0.975592851639	-451.0	378.0	-447.0	376.0	1
3.0.1	2019_Mar_10_1408	s	s	11	4	SIC	425	2_2	2	2	4	4	23_4_4	2	2	1	0	0.454681873322	-522.0	-111.0	-525.0	-116.0	1
3.0.1	2019_Mar_10_1408	s	s	11	4	SIC	426	2_3	2	3	1	3	23_1_3	-1	0	0	1	2.23386907578	180.0	300.0	None	None	0
3.0.1	2019_Mar_10_1408	s	s	11	4	SIC	427	ABS	0	0	3	2	24_3_2	NA	NA	0	1	1.95155692101	None	None	None	None	1
3.0.1	2019_Mar_10_1408	s	s	11	4	SIC	428	2_4	2	4	3	2	23_3_2	1	2	1	0	0.615905046463	417.0	-64.0	419.0	-64.0	1
3.0.1	2019_Mar_10_1408	s	s	11	4	SIC	429	3_3	3	3	4	1	23_4_1	-1	2	1	0	0.728487014771	-388.0	211.0	-397.0	221.0	1
3.0.1	2019_Mar_10_1408	s	s	11	4	SIC	430	ABS	0	0	1	1	24_1_1	NA	NA	0	1	0.931333065033	None	None	None	None	1
3.0.1	2019_Mar_10_1408	s	s	11	4	SIC	431	ABS	0	0	2	4	24_2_4	NA	NA	0	1	0.751951932907	None	None	None	None	1
3.0.1	2019_Mar_10_1408	s	s	11	4	SIC	432	3_3	3	3	2	3	23_2_3	1	0	1	0	1.39883804321	-430.0	344.0	-430.0	328.0	1
3.0.1	2019_Mar_10_1408	s	s	11	4	SIC	433	2_2	2	2	3	1	23_3_1	1	-1	1	0	0.575638055801	227.0	-8.0	218.0	-5.0	1
3.0.1	2019_Mar_10_1408	s	s	11	4	SIC	434	ABS	0	0	3	1	24_3_1	NA	NA	0	1	0.728438138962	None	None	None	None	1
3.0.1	2019_Mar_10_1408	s	s	11	4	SIC	435	1_2	1	2	4	4	23_4_4	3	2	1	0	0.446340084076	-370.0	186.0	-375.0	183.0	1
3.0.1	2019_Mar_10_1408	s	s	11	4	SIC	436	2_4	2	4	1	1	23_1_1	-1	3	1	0	0.528530836105	89.0	386.0	100.0	396.0	1
3.0.1	2019_Mar_10_1408	s	s	11	4	SIC	437	2_4	2	4	1	4	23_1_4	-1	0	0	1	0.907763957977	-510.0	-135.0	None	None	0
3.0.1	2019_Mar_10_1408	s	s	11	4	SIC	438	4_1	4	1	2	1	23_2_1	2	0	1	0	0.457952976227	418.0	325.0	410.0	328.0	1
3.0.1	2019_Mar_10_1408	s	s	11	4	SIC	439	1_4	1	4	3	3	23_3_3	2	1	1	0	0.599172115326	-311.0	403.0	-316.0	400.0	1
3.0.1	2019_Mar_10_1408	s	s	11	4	SIC	440	ABS	0	0	1	2	24_1_2	NA	NA	0	1	1.80287408829	None	None	None	None	1
3.0.1	2019_Mar_10_1408	s	s	11	4	SIC	441	ABS	0	0	4	2	24_4_2	NA	NA	0	1	1.34503817558	None	None	None	None	1
3.0.1	2019_Mar_10_1408	s	s	11	4	SIC	442	4_1	4	1	3	1	23_3_1	1	0	1	0	0.48152589798	287.0	197.0	287.0	197.0	1
3.0.1	2019_Mar_10_1408	s	s	11	4	SIC	443	4_3	4	3	4	1	23_4_1	0	2	0	1	0.634267807007	173.0	-373.0	None	None	0
3.0.1	2019_Mar_10_1408	s	s	11	4	SIC	444	3_3	3	3	4	4	23_4_4	-1	-1	1	0	0.579299926758	-203.0	-152.0	-207.0	-152.0	1
3.0.1	2019_Mar_10_1408	s	s	11	4	SIC	445	2_4	2	4	4	3	23_4_3	2	1	1	0	0.474538087845	494.0	0.0	494.0	-5.0	1
3.0.1	2019_Mar_10_1408	s	s	11	4	SIC	446	4_2	4	2	2	2	23_2_2	2	0	1	0	0.486382007599	-283.0	-396.0	-288.0	-398.0	1
3.0.1	2019_Mar_10_1408	s	s	11	4	SIC	447	ABS	0	0	3	1	24_3_1	NA	NA	0	1	0.913051843643	None	None	None	None	1
3.0.1	2019_Mar_10_1408	s	s	11	4	SIC	448	ABS	0	0	2	1	24_2_1	NA	NA	0	1	0.693155050278	None	None	None	None	1
3.0.1	2019_Mar_10_1408	s	s	11	4	SIC	449	ABS	0	0	1	2	24_1_2	NA	NA	0	1	0.652926921844	None	None	None	None	1
3.0.1	2019_Mar_10_1408	s	s	11	4	SIC	450	ABS	0	0	1	2	24_1_2	NA	NA	0	1	0.757899999619	None	None	None	None	1
3.0.1	2019_Mar_10_1408	s	s	11	4	SIC	451	ABS	0	0	3	4	24_3_4	NA	NA	0	1	0.587353944778	None	None	None	None	1
3.0.1	2019_Mar_10_1408	s	s	11	4	SIC	452	3_1	3	1	2	3	23_2_3	1	2	1	0	0.497467041016	-92.0	26.0	-95.0	26.0	1
3.0.1	2019_Mar_10_1408	s	s	11	4	SIC	453	ABS	0	0	2	2	24_2_2	NA	NA	0	1	0.849025011063	None	None	None	None	1
3.0.1	2019_Mar_10_1408	s	s	11	4	SIC	454	3_1	3	1	2	2	23_2_2	1	1	1	0	0.493195056915	-50.0	81.0	-43.0	77.0	1
3.0.1	2019_Mar_10_1408	s	s	11	4	SIC	455	2_3	2	3	2	4	23_2_4	0	-1	1	0	1.06956291199	220.0	-380.0	225.0	-383.0	1
3.0.1	2019_Mar_10_1408	s	s	11	4	SIC	456	ABS	0	0	3	2	24_3_2	NA	NA	0	1	1.18048596382	None	None	None	None	1
3.0.1	2019_Mar_10_1408	s	s	11	4	SIC	457	1_1	1	1	3	2	23_3_2	2	1	1	0	0.674921035767	-462.0	376.0	-466.0	381.0	1
3.0.1	2019_Mar_10_1408	s	s	11	4	SIC	458	ABS	0	0	1	1	24_1_1	NA	NA	0	1	0.763808965683	None	None	None	None	1
3.0.1	2019_Mar_10_1408	s	s	11	4	SIC	459	ABS	0	0	3	1	24_3_1	NA	NA	0	1	0.716753959656	None	None	None	None	1
3.0.1	2019_Mar_10_1408	s	s	11	4	SIC	460	ABS	0	0	2	3	24_2_3	NA	NA	0	1	1.51639199257	None	None	None	None	1
3.0.1	2019_Mar_10_1408	s	s	11	4	SIC	461	2_1	2	1	3	1	23_3_1	1	0	1	0	1.06950712204	519.0	-354.0	524.0	-352.0	1
3.0.1	2019_Mar_10_1408	s	s	11	4	SIC	462	ABS	0	0	4	3	24_4_3	NA	NA	0	1	0.925074100494	None	None	None	None	1
3.0.1	2019_Mar_10_1408	s	s	11	4	SIC	463	1_4	1	4	2	1	23_2_1	1	3	1	0	0.575522899628	-524.0	-21.0	-532.0	-18.0	1
3.0.1	2019_Mar_10_1408	s	s	11	4	SIC	464	3_2	3	2	4	3	23_4_3	-1	1	1	0	0.481513023376	213.0	304.0	201.0	305.0	1
3.0.1	2019_Mar_10_1408	s	s	11	4	SIC	465	ABS	0	0	2	1	24_2_1	NA	NA	0	1	0.790147066116	None	None	None	None	1
3.0.1	2019_Mar_10_1408	s	s	11	4	SIC	466	ABS	0	0	3	1	24_3_1	NA	NA	0	1	0.65078997612	None	None	None	None	1
3.0.1	2019_Mar_10_1408	s	s	11	4	SIC	467	1_1	1	1	3	4	23_3_4	2	3	1	0	0.646095991135	88.0	269.0	87.0	258.0	1
3.0.1	2019_Mar_10_1408	s	s	11	4	SIC	468	1_1	1	1	4	1	23_4_1	3	0	1	0	0.672566890717	414.0	-284.0	409.0	-282.0	1
3.0.1	2019_Mar_10_1408	s	s	11	4	SIC	469	1_4	1	4	3	1	23_3_1	2	3	1	0	0.469758033752	81.0	347.0	80.0	357.0	1
3.0.1	2019_Mar_10_1408	s	s	11	4	SIC	470	3_3	3	3	1	2	23_1_2	2	1	1	0	0.502457141876	-295.0	121.0	-303.0	127.0	1
3.0.1	2019_Mar_10_1408	s	s	11	4	SIC	471	2_1	2	1	4	1	23_4_1	2	0	1	0	0.575572013855	161.0	-373.0	160.0	-383.0	1
3.0.1	2019_Mar_10_1408	s	s	11	4	SIC	472	4_3	4	3	2	3	23_2_3	2	0	1	0	0.599117994308	-533.0	146.0	-538.0	147.0	1
3.0.1	2019_Mar_10_1408	s	s	11	4	SIC	473	ABS	0	0	2	3	24_2_3	NA	NA	0	1	1.74704790115	None	None	None	None	1
3.0.1	2019_Mar_10_1408	s	s	11	4	SIC	474	ABS	0	0	2	4	24_2_4	NA	NA	0	1	0.821269035339	None	None	None	None	1
3.0.1	2019_Mar_10_1408	s	s	11	4	SIC	475	3_4	3	4	4	4	23_4_4	-1	0	1	0	0.499009132385	175.0	270.0	170.0	270.0	1
3.0.1	2019_Mar_10_1408	s	s	11	4	SIC	476	ABS	0	0	2	3	24_2_3	NA	NA	0	1	2.51614499092	None	None	None	None	1
3.0.1	2019_Mar_10_1408	s	s	11	4	SIC	477	3_3	3	3	2	4	23_2_4	1	-1	1	0	0.497433185577	384.0	165.0	386.0	162.0	1
3.0.1	2019_Mar_10_1408	s	s	11	4	SIC	478	ABS	0	0	3	1	24_3_1	NA	NA	0	1	1.10890412331	None	None	None	None	1
3.0.1	2019_Mar_10_1408	s	s	11	4	SIC	479	ABS	0	0	1	3	24_1_3	NA	NA	0	1	1.77518796921	None	None	None	None	1
3.0.1	2019_Mar_10_1408	s	s	11	4	SIC	480	3_1	3	1	3	3	23_3_3	0	2	1	0	1.02758908272	-171.0	-8.0	-165.0	-5.0	1
