Version	Date	Stimuli	Method	Subject	Session	Condition	Trial	Target	TColor	TShape	DColor	DShape	Distractors	Channel1	Channel2	LMouseButton	RMouseButton	RT	TargetX	TargetY	ResponseX	ResponseY	Correct
3.0.1	2019_Mar_08_1404	s	s	11	2	Capacity	1	1_4	1	4	1	3	23_1_3	0	1	1	0	1.246062994	379.0	287.0	386.0	285.0	1
3.0.1	2019_Mar_08_1404	s	s	11	2	Capacity	2	1_4	1	4	1	2	23_1_2	0	2	1	0	0.731462001801	-273.0	151.0	-289.0	161.0	1
3.0.1	2019_Mar_08_1404	s	s	11	2	Capacity	3	1_3	1	3	1	4	23_1_4	0	-1	1	0	0.81080698967	-172.0	286.0	-168.0	280.0	1
3.0.1	2019_Mar_08_1404	s	s	11	2	Capacity	4	ABS	0	0	1	3	24_1_3	NA	NA	0	1	2.54265999794	None	None	None	None	1
3.0.1	2019_Mar_08_1404	s	s	11	2	Capacity	5	1_1	1	1	1	4	23_1_4	0	3	1	0	1.07610416412	311.0	-254.0	317.0	-254.0	1
3.0.1	2019_Mar_08_1404	s	s	11	2	Capacity	6	1_1	1	1	1	2	23_1_2	0	1	0	1	2.20772981644	-185.0	-111.0	None	None	0
3.0.1	2019_Mar_08_1404	s	s	11	2	Capacity	7	ABS	0	0	1	4	24_1_4	NA	NA	0	1	1.81049013138	None	None	None	None	1
3.0.1	2019_Mar_08_1404	s	s	11	2	Capacity	8	ABS	0	0	1	4	24_1_4	NA	NA	0	1	1.71696901321	None	None	None	None	1
3.0.1	2019_Mar_08_1404	s	s	11	2	Capacity	9	1_2	1	2	1	1	23_1_1	0	-1	0	1	2.01045298576	396.0	336.0	None	None	0
3.0.1	2019_Mar_08_1404	s	s	11	2	Capacity	10	ABS	0	0	1	1	24_1_1	NA	NA	0	1	1.30480980873	None	None	None	None	1
3.0.1	2019_Mar_08_1404	s	s	11	2	Capacity	11	ABS	0	0	1	2	24_1_2	NA	NA	0	1	2.2222161293	None	None	None	None	1
3.0.1	2019_Mar_08_1404	s	s	11	2	Capacity	12	ABS	0	0	1	1	24_1_1	NA	NA	0	1	2.10961699486	None	None	None	None	1
3.0.1	2019_Mar_08_1404	s	s	11	2	Capacity	13	ABS	0	0	1	3	24_1_3	NA	NA	0	1	2.78404998779	None	None	None	None	1
3.0.1	2019_Mar_08_1404	s	s	11	2	Capacity	14	ABS	0	0	1	1	24_1_1	NA	NA	0	1	1.98693108559	None	None	None	None	1
3.0.1	2019_Mar_08_1404	s	s	11	2	Capacity	15	ABS	0	0	1	2	24_1_2	NA	NA	0	1	2.89542818069	None	None	None	None	1
3.0.1	2019_Mar_08_1404	s	s	11	2	Capacity	16	1_3	1	3	1	1	23_1_1	0	2	1	0	1.00313687325	246.0	249.0	237.0	252.0	1
3.0.1	2019_Mar_08_1404	s	s	11	2	Capacity	17	1_2	1	2	1	4	23_1_4	0	2	1	0	0.872658967972	-288.0	-147.0	-284.0	-144.0	1
3.0.1	2019_Mar_08_1404	s	s	11	2	Capacity	18	ABS	0	0	1	3	24_1_3	NA	NA	0	1	2.3779399395	None	None	None	None	1
3.0.1	2019_Mar_08_1404	s	s	11	2	Capacity	19	1_3	1	3	1	2	23_1_2	0	1	1	0	2.96606898308	115.0	-226.0	125.0	-222.0	1
3.0.1	2019_Mar_08_1404	s	s	11	2	Capacity	20	1_1	1	1	1	3	23_1_3	0	2	1	0	0.775553941727	26.0	102.0	29.0	93.0	1
3.0.1	2019_Mar_08_1404	s	s	11	2	Capacity	21	1_2	1	2	1	3	23_1_3	0	1	1	0	2.54609894753	-30.0	352.0	-30.0	362.0	1
3.0.1	2019_Mar_08_1404	s	s	11	2	Capacity	22	1_4	1	4	1	1	23_1_1	0	3	1	0	1.33384490013	-77.0	355.0	-77.0	350.0	1
3.0.1	2019_Mar_08_1404	s	s	11	2	Capacity	23	ABS	0	0	1	2	24_1_2	NA	NA	0	1	1.66423106194	None	None	None	None	1
3.0.1	2019_Mar_08_1404	s	s	11	2	Capacity	24	ABS	0	0	1	4	24_1_4	NA	NA	0	1	2.41030693054	None	None	None	None	1
3.0.1	2019_Mar_08_1404	s	s	11	2	Capacity	25	ABS	0	0	1	4	24_1_4	NA	NA	0	1	1.21076011658	None	None	None	None	1
3.0.1	2019_Mar_08_1404	s	s	11	2	Capacity	26	1_3	1	3	1	4	23_1_4	0	-1	1	0	1.06301116943	469.0	-249.0	466.0	-252.0	1
3.0.1	2019_Mar_08_1404	s	s	11	2	Capacity	27	1_1	1	1	1	4	23_1_4	0	3	1	0	0.587337017059	68.0	87.0	61.0	86.0	1
3.0.1	2019_Mar_08_1404	s	s	11	2	Capacity	28	ABS	0	0	1	3	24_1_3	NA	NA	0	1	3.34458899498	None	None	None	None	1
3.0.1	2019_Mar_08_1404	s	s	11	2	Capacity	29	1_2	1	2	1	1	23_1_1	0	-1	0	1	1.3194630146	-381.0	-292.0	None	None	0
3.0.1	2019_Mar_08_1404	s	s	11	2	Capacity	30	1_1	1	1	1	3	23_1_3	0	2	1	0	2.15167593956	-215.0	88.0	-226.0	89.0	1
3.0.1	2019_Mar_08_1404	s	s	11	2	Capacity	31	ABS	0	0	1	2	24_1_2	NA	NA	0	1	2.26138710976	None	None	None	None	1
3.0.1	2019_Mar_08_1404	s	s	11	2	Capacity	32	ABS	0	0	1	1	24_1_1	NA	NA	0	1	1.40169405937	None	None	None	None	1
3.0.1	2019_Mar_08_1404	s	s	11	2	Capacity	33	1_2	1	2	1	3	23_1_3	0	1	1	0	3.46895694733	-58.0	-63.0	-45.0	-54.0	1
3.0.1	2019_Mar_08_1404	s	s	11	2	Capacity	34	ABS	0	0	1	2	24_1_2	NA	NA	0	1	2.75610995293	None	None	None	None	1
3.0.1	2019_Mar_08_1404	s	s	11	2	Capacity	35	1_4	1	4	1	3	23_1_3	0	1	1	0	1.28137302399	479.0	-319.0	477.0	-314.0	1
3.0.1	2019_Mar_08_1404	s	s	11	2	Capacity	36	ABS	0	0	1	3	24_1_3	NA	NA	0	1	2.21063995361	None	None	None	None	1
3.0.1	2019_Mar_08_1404	s	s	11	2	Capacity	37	1_3	1	3	1	1	23_1_1	0	2	1	0	0.987226009369	225.0	241.0	222.0	239.0	1
3.0.1	2019_Mar_08_1404	s	s	11	2	Capacity	38	ABS	0	0	1	1	24_1_1	NA	NA	0	1	1.75170302391	None	None	None	None	1
3.0.1	2019_Mar_08_1404	s	s	11	2	Capacity	39	ABS	0	0	1	4	24_1_4	NA	NA	0	1	1.61347794533	None	None	None	None	1
3.0.1	2019_Mar_08_1404	s	s	11	2	Capacity	40	ABS	0	0	1	2	24_1_2	NA	NA	0	1	2.96319293976	None	None	None	None	1
3.0.1	2019_Mar_08_1404	s	s	11	2	Capacity	41	1_4	1	4	1	1	23_1_1	0	3	1	0	0.874844074249	305.0	323.0	304.0	324.0	1
3.0.1	2019_Mar_08_1404	s	s	11	2	Capacity	42	ABS	0	0	1	1	24_1_1	NA	NA	0	1	1.37531089783	None	None	None	None	1
3.0.1	2019_Mar_08_1404	s	s	11	2	Capacity	43	ABS	0	0	1	3	24_1_3	NA	NA	0	1	2.48096585274	None	None	None	None	1
3.0.1	2019_Mar_08_1404	s	s	11	2	Capacity	44	1_4	1	4	1	2	23_1_2	0	2	1	0	0.7098300457	-32.0	219.0	-26.0	218.0	1
3.0.1	2019_Mar_08_1404	s	s	11	2	Capacity	45	ABS	0	0	1	4	24_1_4	NA	NA	0	1	1.10485887527	None	None	None	None	1
3.0.1	2019_Mar_08_1404	s	s	11	2	Capacity	46	1_3	1	3	1	2	23_1_2	0	1	1	0	2.59860706329	517.0	-336.0	521.0	-341.0	1
3.0.1	2019_Mar_08_1404	s	s	11	2	Capacity	47	1_1	1	1	1	2	23_1_2	0	1	0	1	2.3238260746	-95.0	82.0	None	None	0
3.0.1	2019_Mar_08_1404	s	s	11	2	Capacity	48	1_2	1	2	1	4	23_1_4	0	2	1	0	0.763828039169	-1.0	256.0	9.0	263.0	1
3.0.1	2019_Mar_08_1404	s	s	11	2	Capacity	49	1_1	1	1	1	4	23_1_4	0	3	1	0	0.651322841644	-309.0	383.0	-306.0	377.0	1
3.0.1	2019_Mar_08_1404	s	s	11	2	Capacity	50	1_2	1	2	1	3	23_1_3	0	1	0	1	2.59170889854	457.0	6.0	None	None	0
3.0.1	2019_Mar_08_1404	s	s	11	2	Capacity	51	1_4	1	4	1	3	23_1_3	0	1	1	0	0.746900081635	39.0	411.0	36.0	411.0	1
3.0.1	2019_Mar_08_1404	s	s	11	2	Capacity	52	1_1	1	1	1	3	23_1_3	0	2	1	0	1.92804002762	-115.0	-107.0	-113.0	-99.0	1
3.0.1	2019_Mar_08_1404	s	s	11	2	Capacity	53	1_2	1	2	1	1	23_1_1	0	-1	0	1	1.36356496811	-116.0	81.0	None	None	0
3.0.1	2019_Mar_08_1404	s	s	11	2	Capacity	54	ABS	0	0	1	1	24_1_1	NA	NA	0	1	1.51036381721	None	None	None	None	1
3.0.1	2019_Mar_08_1404	s	s	11	2	Capacity	55	1_3	1	3	1	4	23_1_4	0	-1	1	0	1.04614210129	178.0	-200.0	176.0	-190.0	1
3.0.1	2019_Mar_08_1404	s	s	11	2	Capacity	56	1_1	1	1	1	2	23_1_2	0	1	1	0	0.849025964737	-288.0	256.0	-277.0	260.0	1
3.0.1	2019_Mar_08_1404	s	s	11	2	Capacity	57	ABS	0	0	1	3	24_1_3	NA	NA	0	1	2.47334313393	None	None	None	None	1
3.0.1	2019_Mar_08_1404	s	s	11	2	Capacity	58	ABS	0	0	1	2	24_1_2	NA	NA	0	1	2.480905056	None	None	None	None	1
3.0.1	2019_Mar_08_1404	s	s	11	2	Capacity	59	ABS	0	0	1	1	24_1_1	NA	NA	0	1	1.30978608131	None	None	None	None	1
3.0.1	2019_Mar_08_1404	s	s	11	2	Capacity	60	1_3	1	3	1	1	23_1_1	0	2	1	0	0.881469011307	-205.0	164.0	-205.0	158.0	1
3.0.1	2019_Mar_08_1404	s	s	11	2	Capacity	61	ABS	0	0	1	3	24_1_3	NA	NA	0	1	2.14280295372	None	None	None	None	1
3.0.1	2019_Mar_08_1404	s	s	11	2	Capacity	62	ABS	0	0	1	2	24_1_2	NA	NA	0	1	2.47671103477	None	None	None	None	1
3.0.1	2019_Mar_08_1404	s	s	11	2	Capacity	63	ABS	0	0	1	4	24_1_4	NA	NA	0	1	1.37556886673	None	None	None	None	1
3.0.1	2019_Mar_08_1404	s	s	11	2	Capacity	64	1_3	1	3	1	2	23_1_2	0	1	0	1	2.67201495171	-462.0	86.0	None	None	0
3.0.1	2019_Mar_08_1404	s	s	11	2	Capacity	65	ABS	0	0	1	3	24_1_3	NA	NA	0	1	2.48654294014	None	None	None	None	1
3.0.1	2019_Mar_08_1404	s	s	11	2	Capacity	66	ABS	0	0	1	4	24_1_4	NA	NA	0	1	1.85760188103	None	None	None	None	1
3.0.1	2019_Mar_08_1404	s	s	11	2	Capacity	67	1_4	1	4	1	2	23_1_2	0	2	1	0	0.921550989151	260.0	-157.0	273.0	-153.0	1
3.0.1	2019_Mar_08_1404	s	s	11	2	Capacity	68	ABS	0	0	1	1	24_1_1	NA	NA	0	1	0.975435018539	None	None	None	None	1
3.0.1	2019_Mar_08_1404	s	s	11	2	Capacity	69	1_4	1	4	1	1	23_1_1	0	3	1	0	0.908782958984	343.0	-291.0	340.0	-287.0	1
3.0.1	2019_Mar_08_1404	s	s	11	2	Capacity	70	ABS	0	0	1	2	24_1_2	NA	NA	0	1	1.92223501205	None	None	None	None	1
3.0.1	2019_Mar_08_1404	s	s	11	2	Capacity	71	1_2	1	2	1	4	23_1_4	0	2	1	0	0.650541067123	-272.0	373.0	-277.0	364.0	1
3.0.1	2019_Mar_08_1404	s	s	11	2	Capacity	72	ABS	0	0	1	4	24_1_4	NA	NA	0	1	2.03155088425	None	None	None	None	1
3.0.1	2019_Mar_08_1404	s	s	11	2	Capacity	73	ABS	0	0	1	2	24_1_2	NA	NA	0	1	2.67759895325	None	None	None	None	1
3.0.1	2019_Mar_08_1404	s	s	11	2	Capacity	74	1_1	1	1	1	4	23_1_4	0	3	1	0	0.622581958771	-344.0	120.0	-341.0	124.0	1
3.0.1	2019_Mar_08_1404	s	s	11	2	Capacity	75	ABS	0	0	1	1	24_1_1	NA	NA	0	1	0.9284760952	None	None	None	None	1
3.0.1	2019_Mar_08_1404	s	s	11	2	Capacity	76	ABS	0	0	1	2	24_1_2	NA	NA	0	1	1.56225800514	None	None	None	None	1
3.0.1	2019_Mar_08_1404	s	s	11	2	Capacity	77	1_2	1	2	1	3	23_1_3	0	1	1	0	2.44560408592	403.0	221.0	410.0	228.0	1
3.0.1	2019_Mar_08_1404	s	s	11	2	Capacity	78	ABS	0	0	1	1	24_1_1	NA	NA	0	1	1.37836289406	None	None	None	None	1
3.0.1	2019_Mar_08_1404	s	s	11	2	Capacity	79	1_3	1	3	1	4	23_1_4	0	-1	1	0	0.696681976318	218.0	86.0	209.0	91.0	1
3.0.1	2019_Mar_08_1404	s	s	11	2	Capacity	80	1_2	1	2	1	4	23_1_4	0	2	1	0	1.13331413269	455.0	-184.0	452.0	-179.0	1
3.0.1	2019_Mar_08_1404	s	s	11	2	Capacity	81	1_3	1	3	1	1	23_1_1	0	2	0	1	0.898778915405	-110.0	-310.0	None	None	0
3.0.1	2019_Mar_08_1404	s	s	11	2	Capacity	82	1_1	1	1	1	3	23_1_3	0	2	1	0	1.62724089622	166.0	-110.0	165.0	-105.0	1
3.0.1	2019_Mar_08_1404	s	s	11	2	Capacity	83	ABS	0	0	1	2	24_1_2	NA	NA	0	1	3.76137900352	None	None	None	None	1
3.0.1	2019_Mar_08_1404	s	s	11	2	Capacity	84	1_4	1	4	1	1	23_1_1	0	3	1	0	0.735271930695	279.0	-320.0	274.0	-318.0	1
3.0.1	2019_Mar_08_1404	s	s	11	2	Capacity	85	ABS	0	0	1	1	24_1_1	NA	NA	0	1	0.86953496933	None	None	None	None	1
3.0.1	2019_Mar_08_1404	s	s	11	2	Capacity	86	1_1	1	1	1	2	23_1_2	0	1	0	1	2.05275893211	-247.0	-162.0	None	None	0
3.0.1	2019_Mar_08_1404	s	s	11	2	Capacity	87	ABS	0	0	1	4	24_1_4	NA	NA	0	1	1.30991196632	None	None	None	None	1
3.0.1	2019_Mar_08_1404	s	s	11	2	Capacity	88	ABS	0	0	1	3	24_1_3	NA	NA	0	1	3.73590397835	None	None	None	None	1
3.0.1	2019_Mar_08_1404	s	s	11	2	Capacity	89	1_2	1	2	1	1	23_1_1	0	-1	0	1	1.57528090477	-101.0	295.0	None	None	0
3.0.1	2019_Mar_08_1404	s	s	11	2	Capacity	90	ABS	0	0	1	4	24_1_4	NA	NA	0	1	1.61821913719	None	None	None	None	1
3.0.1	2019_Mar_08_1404	s	s	11	2	Capacity	91	1_4	1	4	1	2	23_1_2	0	2	1	0	0.731383085251	143.0	-211.0	155.0	-206.0	1
3.0.1	2019_Mar_08_1404	s	s	11	2	Capacity	92	ABS	0	0	1	4	24_1_4	NA	NA	0	1	0.864424943924	None	None	None	None	1
3.0.1	2019_Mar_08_1404	s	s	11	2	Capacity	93	ABS	0	0	1	3	24_1_3	NA	NA	0	1	2.41459608078	None	None	None	None	1
3.0.1	2019_Mar_08_1404	s	s	11	2	Capacity	94	1_3	1	3	1	2	23_1_2	0	1	1	0	6.56716895103	423.0	-65.0	430.0	-56.0	1
3.0.1	2019_Mar_08_1404	s	s	11	2	Capacity	95	1_4	1	4	1	3	23_1_3	0	1	1	0	0.740352153778	254.0	31.0	251.0	31.0	1
3.0.1	2019_Mar_08_1404	s	s	11	2	Capacity	96	ABS	0	0	1	3	24_1_3	NA	NA	0	1	2.12100219727	None	None	None	None	1
3.0.1	2019_Mar_08_1404	s	s	11	2	Capacity	1	2_1	2	1	3	1	23_3_1	1	0	1	0	1.22254896164	-90.0	-357.0	-98.0	-348.0	1
3.0.1	2019_Mar_08_1404	s	s	11	2	Capacity	2	ABS	0	0	4	1	24_4_1	NA	NA	0	1	1.07000803947	None	None	None	None	1
3.0.1	2019_Mar_08_1404	s	s	11	2	Capacity	3	ABS	0	0	3	1	24_3_1	NA	NA	0	1	2.49603009224	None	None	None	None	1
3.0.1	2019_Mar_08_1404	s	s	11	2	Capacity	4	3_1	3	1	4	1	23_4_1	-1	0	1	0	0.61377286911	289.0	-21.0	283.0	-23.0	1
3.0.1	2019_Mar_08_1404	s	s	11	2	Capacity	5	3_1	3	1	2	1	23_2_1	1	0	1	0	0.554972887039	259.0	-76.0	256.0	-71.0	1
3.0.1	2019_Mar_08_1404	s	s	11	2	Capacity	6	4_1	4	1	1	1	23_1_1	3	0	1	0	0.501153945923	483.0	311.0	481.0	315.0	1
3.0.1	2019_Mar_08_1404	s	s	11	2	Capacity	7	ABS	0	0	1	1	24_1_1	NA	NA	0	1	1.08423495293	None	None	None	None	1
3.0.1	2019_Mar_08_1404	s	s	11	2	Capacity	8	ABS	0	0	3	1	24_3_1	NA	NA	0	1	1.15193009377	None	None	None	None	1
3.0.1	2019_Mar_08_1404	s	s	11	2	Capacity	9	2_1	2	1	4	1	23_4_1	2	0	1	0	0.520521879196	-440.0	107.0	-438.0	108.0	1
3.0.1	2019_Mar_08_1404	s	s	11	2	Capacity	10	2_1	2	1	1	1	23_1_1	-1	0	0	1	0.822624921799	162.0	169.0	None	None	0
3.0.1	2019_Mar_08_1404	s	s	11	2	Capacity	11	ABS	0	0	3	1	24_3_1	NA	NA	0	1	0.998963832855	None	None	None	None	1
3.0.1	2019_Mar_08_1404	s	s	11	2	Capacity	12	ABS	0	0	2	1	24_2_1	NA	NA	0	1	0.966768980026	None	None	None	None	1
3.0.1	2019_Mar_08_1404	s	s	11	2	Capacity	13	1_1	1	1	4	1	23_4_1	3	0	1	0	0.543261051178	466.0	302.0	470.0	310.0	1
3.0.1	2019_Mar_08_1404	s	s	11	2	Capacity	14	1_1	1	1	3	1	23_3_1	2	0	1	0	0.604264974594	531.0	-152.0	527.0	-157.0	1
3.0.1	2019_Mar_08_1404	s	s	11	2	Capacity	15	4_1	4	1	3	1	23_3_1	1	0	1	0	0.674854040146	186.0	-367.0	182.0	-372.0	1
3.0.1	2019_Mar_08_1404	s	s	11	2	Capacity	16	ABS	0	0	4	1	24_4_1	NA	NA	0	1	1.03428506851	None	None	None	None	1
3.0.1	2019_Mar_08_1404	s	s	11	2	Capacity	17	1_1	1	1	2	1	23_2_1	1	0	0	1	2.74005198479	-2.0	-68.0	None	None	0
3.0.1	2019_Mar_08_1404	s	s	11	2	Capacity	18	ABS	0	0	2	1	24_2_1	NA	NA	0	1	1.43422603607	None	None	None	None	1
3.0.1	2019_Mar_08_1404	s	s	11	2	Capacity	19	3_1	3	1	1	1	23_1_1	2	0	1	0	0.628501176834	-192.0	212.0	-180.0	214.0	1
3.0.1	2019_Mar_08_1404	s	s	11	2	Capacity	20	4_1	4	1	2	1	23_2_1	2	0	1	0	0.613775014877	-138.0	130.0	-131.0	129.0	1
3.0.1	2019_Mar_08_1404	s	s	11	2	Capacity	21	ABS	0	0	2	1	24_2_1	NA	NA	0	1	0.599138021469	None	None	None	None	1
3.0.1	2019_Mar_08_1404	s	s	11	2	Capacity	22	ABS	0	0	4	1	24_4_1	NA	NA	0	1	0.987264871597	None	None	None	None	1
3.0.1	2019_Mar_08_1404	s	s	11	2	Capacity	23	ABS	0	0	1	1	24_1_1	NA	NA	0	1	1.00347495079	None	None	None	None	1
3.0.1	2019_Mar_08_1404	s	s	11	2	Capacity	24	ABS	0	0	1	1	24_1_1	NA	NA	0	1	1.28126311302	None	None	None	None	1
3.0.1	2019_Mar_08_1404	s	s	11	2	Capacity	25	ABS	0	0	2	1	24_2_1	NA	NA	0	1	1.03431987762	None	None	None	None	1
3.0.1	2019_Mar_08_1404	s	s	11	2	Capacity	26	3_1	3	1	1	1	23_1_1	2	0	1	0	0.711646080017	-503.0	386.0	-507.0	395.0	1
3.0.1	2019_Mar_08_1404	s	s	11	2	Capacity	27	ABS	0	0	4	1	24_4_1	NA	NA	0	1	0.780770778656	None	None	None	None	1
3.0.1	2019_Mar_08_1404	s	s	11	2	Capacity	28	1_1	1	1	4	1	23_4_1	3	0	1	0	0.545540809631	-422.0	-251.0	-420.0	-248.0	1
3.0.1	2019_Mar_08_1404	s	s	11	2	Capacity	29	4_1	4	1	3	1	23_3_1	1	0	1	0	0.578444957733	-425.0	-122.0	-420.0	-124.0	1
3.0.1	2019_Mar_08_1404	s	s	11	2	Capacity	30	1_1	1	1	3	1	23_3_1	2	0	1	0	0.498722076416	-42.0	-278.0	-41.0	-275.0	1
3.0.1	2019_Mar_08_1404	s	s	11	2	Capacity	31	ABS	0	0	3	1	24_3_1	NA	NA	0	1	1.03426623344	None	None	None	None	1
3.0.1	2019_Mar_08_1404	s	s	11	2	Capacity	32	ABS	0	0	4	1	24_4_1	NA	NA	0	1	1.01075601578	None	None	None	None	1
3.0.1	2019_Mar_08_1404	s	s	11	2	Capacity	33	2_1	2	1	4	1	23_4_1	2	0	1	0	0.481564998627	113.0	239.0	110.0	243.0	1
3.0.1	2019_Mar_08_1404	s	s	11	2	Capacity	34	4_1	4	1	2	1	23_2_1	2	0	1	0	0.457956075668	-215.0	55.0	-221.0	48.0	1
3.0.1	2019_Mar_08_1404	s	s	11	2	Capacity	35	ABS	0	0	1	1	24_1_1	NA	NA	0	1	0.795866966248	None	None	None	None	1
3.0.1	2019_Mar_08_1404	s	s	11	2	Capacity	36	ABS	0	0	1	1	24_1_1	NA	NA	0	1	1.26552915573	None	None	None	None	1
3.0.1	2019_Mar_08_1404	s	s	11	2	Capacity	37	2_1	2	1	3	1	23_3_1	1	0	1	0	0.966548919678	378.0	-348.0	371.0	-350.0	1
3.0.1	2019_Mar_08_1404	s	s	11	2	Capacity	38	ABS	0	0	3	1	24_3_1	NA	NA	0	1	1.1098151207	None	None	None	None	1
3.0.1	2019_Mar_08_1404	s	s	11	2	Capacity	39	ABS	0	0	2	1	24_2_1	NA	NA	0	1	0.881410121918	None	None	None	None	1
3.0.1	2019_Mar_08_1404	s	s	11	2	Capacity	40	3_1	3	1	4	1	23_4_1	-1	0	1	0	0.51163816452	421.0	-78.0	427.0	-71.0	1
3.0.1	2019_Mar_08_1404	s	s	11	2	Capacity	41	2_1	2	1	1	1	23_1_1	-1	0	0	1	0.863800048828	313.0	-225.0	None	None	0
3.0.1	2019_Mar_08_1404	s	s	11	2	Capacity	42	1_1	1	1	2	1	23_2_1	1	0	0	1	0.622936964035	-274.0	352.0	None	None	0
3.0.1	2019_Mar_08_1404	s	s	11	2	Capacity	43	ABS	0	0	3	1	24_3_1	NA	NA	0	1	0.946777105331	None	None	None	None	1
3.0.1	2019_Mar_08_1404	s	s	11	2	Capacity	44	3_1	3	1	2	1	23_2_1	1	0	1	0	0.540276050568	-317.0	87.0	-312.0	92.0	1
3.0.1	2019_Mar_08_1404	s	s	11	2	Capacity	45	ABS	0	0	4	1	24_4_1	NA	NA	0	1	0.74028301239	None	None	None	None	1
3.0.1	2019_Mar_08_1404	s	s	11	2	Capacity	46	4_1	4	1	1	1	23_1_1	3	0	1	0	0.487994194031	222.0	359.0	227.0	361.0	1
3.0.1	2019_Mar_08_1404	s	s	11	2	Capacity	47	ABS	0	0	1	1	24_1_1	NA	NA	0	1	0.670060157776	None	None	None	None	1
3.0.1	2019_Mar_08_1404	s	s	11	2	Capacity	48	ABS	0	0	2	1	24_2_1	NA	NA	0	1	0.681449890137	None	None	None	None	1
3.0.1	2019_Mar_08_1404	s	s	11	2	Capacity	49	1_1	1	1	2	1	23_2_1	1	0	0	1	0.922757148743	-494.0	16.0	None	None	0
3.0.1	2019_Mar_08_1404	s	s	11	2	Capacity	50	2_1	2	1	3	1	23_3_1	1	0	1	0	0.657986879349	147.0	-148.0	142.0	-147.0	1
3.0.1	2019_Mar_08_1404	s	s	11	2	Capacity	51	ABS	0	0	2	1	24_2_1	NA	NA	0	1	0.790170192719	None	None	None	None	1
3.0.1	2019_Mar_08_1404	s	s	11	2	Capacity	52	ABS	0	0	2	1	24_2_1	NA	NA	0	1	0.793028831482	None	None	None	None	1
3.0.1	2019_Mar_08_1404	s	s	11	2	Capacity	53	2_1	2	1	1	1	23_1_1	-1	0	0	1	1.12084102631	138.0	-255.0	None	None	0
3.0.1	2019_Mar_08_1404	s	s	11	2	Capacity	54	3_1	3	1	1	1	23_1_1	2	0	1	0	0.563844919205	272.0	378.0	275.0	382.0	1
3.0.1	2019_Mar_08_1404	s	s	11	2	Capacity	55	ABS	0	0	1	1	24_1_1	NA	NA	0	1	1.37539315224	None	None	None	None	1
3.0.1	2019_Mar_08_1404	s	s	11	2	Capacity	56	2_1	2	1	4	1	23_4_1	2	0	1	0	0.552094936371	-78.0	-137.0	-81.0	-139.0	1
3.0.1	2019_Mar_08_1404	s	s	11	2	Capacity	57	ABS	0	0	4	1	24_4_1	NA	NA	0	1	0.899965047836	None	None	None	None	1
3.0.1	2019_Mar_08_1404	s	s	11	2	Capacity	58	ABS	0	0	4	1	24_4_1	NA	NA	0	1	0.651207923889	None	None	None	None	1
3.0.1	2019_Mar_08_1404	s	s	11	2	Capacity	59	ABS	0	0	3	1	24_3_1	NA	NA	0	1	1.01613092422	None	None	None	None	1
3.0.1	2019_Mar_08_1404	s	s	11	2	Capacity	60	1_1	1	1	3	1	23_3_1	2	0	1	0	0.638963937759	252.0	163.0	258.0	166.0	1
3.0.1	2019_Mar_08_1404	s	s	11	2	Capacity	61	4_1	4	1	3	1	23_3_1	1	0	1	0	0.560520172119	406.0	328.0	403.0	330.0	1
3.0.1	2019_Mar_08_1404	s	s	11	2	Capacity	62	3_1	3	1	4	1	23_4_1	-1	0	1	0	0.516701936722	-160.0	-24.0	-157.0	-24.0	1
3.0.1	2019_Mar_08_1404	s	s	11	2	Capacity	63	ABS	0	0	1	1	24_1_1	NA	NA	0	1	0.629115104675	None	None	None	None	1
3.0.1	2019_Mar_08_1404	s	s	11	2	Capacity	64	ABS	0	0	2	1	24_2_1	NA	NA	0	1	0.62707901001	None	None	None	None	1
3.0.1	2019_Mar_08_1404	s	s	11	2	Capacity	65	4_1	4	1	1	1	23_1_1	3	0	1	0	0.474711894989	-291.0	192.0	-291.0	196.0	1
3.0.1	2019_Mar_08_1404	s	s	11	2	Capacity	66	ABS	0	0	3	1	24_3_1	NA	NA	0	1	0.885648012161	None	None	None	None	1
3.0.1	2019_Mar_08_1404	s	s	11	2	Capacity	67	ABS	0	0	3	1	24_3_1	NA	NA	0	1	1.14919304848	None	None	None	None	1
3.0.1	2019_Mar_08_1404	s	s	11	2	Capacity	68	4_1	4	1	2	1	23_2_1	2	0	1	0	0.451883077621	-193.0	-201.0	-195.0	-209.0	1
3.0.1	2019_Mar_08_1404	s	s	11	2	Capacity	69	3_1	3	1	2	1	23_2_1	1	0	1	0	0.587389945984	519.0	-75.0	529.0	-77.0	1
3.0.1	2019_Mar_08_1404	s	s	11	2	Capacity	70	1_1	1	1	4	1	23_4_1	3	0	1	0	0.532823085785	226.0	-117.0	229.0	-107.0	1
3.0.1	2019_Mar_08_1404	s	s	11	2	Capacity	71	ABS	0	0	4	1	24_4_1	NA	NA	0	1	1.14019179344	None	None	None	None	1
3.0.1	2019_Mar_08_1404	s	s	11	2	Capacity	72	ABS	0	0	1	1	24_1_1	NA	NA	0	1	1.49814414978	None	None	None	None	1
3.0.1	2019_Mar_08_1404	s	s	11	2	Capacity	73	ABS	0	0	2	1	24_2_1	NA	NA	0	1	0.751975059509	None	None	None	None	1
3.0.1	2019_Mar_08_1404	s	s	11	2	Capacity	74	2_1	2	1	3	1	23_3_1	1	0	1	0	1.03209996223	-84.0	-192.0	-92.0	-187.0	1
3.0.1	2019_Mar_08_1404	s	s	11	2	Capacity	75	ABS	0	0	1	1	24_1_1	NA	NA	0	1	1.68406486511	None	None	None	None	1
3.0.1	2019_Mar_08_1404	s	s	11	2	Capacity	76	ABS	0	0	1	1	24_1_1	NA	NA	0	1	1.12076401711	None	None	None	None	1
3.0.1	2019_Mar_08_1404	s	s	11	2	Capacity	77	3_1	3	1	2	1	23_2_1	1	0	1	0	0.599127054214	454.0	376.0	458.0	386.0	1
3.0.1	2019_Mar_08_1404	s	s	11	2	Capacity	78	1_1	1	1	3	1	23_3_1	2	0	1	0	0.672611951828	226.0	331.0	234.0	332.0	1
3.0.1	2019_Mar_08_1404	s	s	11	2	Capacity	79	ABS	0	0	4	1	24_4_1	NA	NA	0	1	0.672569990158	None	None	None	None	1
3.0.1	2019_Mar_08_1404	s	s	11	2	Capacity	80	4_1	4	1	3	1	23_3_1	1	0	1	0	0.587472915649	202.0	-8.0	199.0	-8.0	1
3.0.1	2019_Mar_08_1404	s	s	11	2	Capacity	81	ABS	0	0	3	1	24_3_1	NA	NA	0	1	0.940168857574	None	None	None	None	1
3.0.1	2019_Mar_08_1404	s	s	11	2	Capacity	82	3_1	3	1	1	1	23_1_1	2	0	1	0	0.58164191246	-108.0	-120.0	-99.0	-119.0	1
3.0.1	2019_Mar_08_1404	s	s	11	2	Capacity	83	ABS	0	0	4	1	24_4_1	NA	NA	0	1	0.768022060394	None	None	None	None	1
3.0.1	2019_Mar_08_1404	s	s	11	2	Capacity	84	1_1	1	1	2	1	23_2_1	1	0	0	1	0.987251996994	331.0	353.0	None	None	0
3.0.1	2019_Mar_08_1404	s	s	11	2	Capacity	85	ABS	0	0	3	1	24_3_1	NA	NA	0	1	0.803722858429	None	None	None	None	1
3.0.1	2019_Mar_08_1404	s	s	11	2	Capacity	86	2_1	2	1	4	1	23_4_1	2	0	1	0	0.451147079468	-137.0	82.0	-144.0	89.0	1
3.0.1	2019_Mar_08_1404	s	s	11	2	Capacity	87	2_1	2	1	1	1	23_1_1	-1	0	0	1	0.663527011871	-514.0	214.0	None	None	0
3.0.1	2019_Mar_08_1404	s	s	11	2	Capacity	88	ABS	0	0	2	1	24_2_1	NA	NA	0	1	1.51647019386	None	None	None	None	1
3.0.1	2019_Mar_08_1404	s	s	11	2	Capacity	89	4_1	4	1	1	1	23_1_1	3	0	1	0	0.481560945511	418.0	46.0	416.0	47.0	1
3.0.1	2019_Mar_08_1404	s	s	11	2	Capacity	90	ABS	0	0	4	1	24_4_1	NA	NA	0	1	0.716719150543	None	None	None	None	1
3.0.1	2019_Mar_08_1404	s	s	11	2	Capacity	91	3_1	3	1	4	1	23_4_1	-1	0	1	0	1.1401078701	65.0	-264.0	69.0	-269.0	1
3.0.1	2019_Mar_08_1404	s	s	11	2	Capacity	92	1_1	1	1	4	1	23_4_1	3	0	1	0	0.481514930725	-102.0	-144.0	-96.0	-144.0	1
3.0.1	2019_Mar_08_1404	s	s	11	2	Capacity	93	ABS	0	0	1	1	24_1_1	NA	NA	0	1	0.76669883728	None	None	None	None	1
3.0.1	2019_Mar_08_1404	s	s	11	2	Capacity	94	ABS	0	0	3	1	24_3_1	NA	NA	0	1	1.55180001259	None	None	None	None	1
3.0.1	2019_Mar_08_1404	s	s	11	2	Capacity	95	ABS	0	0	2	1	24_2_1	NA	NA	0	1	1.28125786781	None	None	None	None	1
3.0.1	2019_Mar_08_1404	s	s	11	2	Capacity	96	4_1	4	1	2	1	23_2_1	2	0	1	0	0.510203838348	305.0	92.0	307.0	87.0	1
3.0.1	2019_Mar_08_1404	s	s	11	2	SIC	1	1_2	1	2	4	2	23_4_2	3	0	1	0	0.987264156342	291.0	-409.0	293.0	-405.0	1
3.0.1	2019_Mar_08_1404	s	s	11	2	SIC	2	4_1	4	1	3	4	23_3_4	1	3	1	0	1.6928601265	90.0	-113.0	95.0	-118.0	1
3.0.1	2019_Mar_08_1404	s	s	11	2	SIC	3	1_3	1	3	2	4	23_2_4	1	-1	1	0	0.907793998718	501.0	-379.0	508.0	-379.0	1
3.0.1	2019_Mar_08_1404	s	s	11	2	SIC	4	3_1	3	1	3	2	23_3_2	0	1	1	0	1.50476312637	-59.0	-20.0	-68.0	-15.0	1
3.0.1	2019_Mar_08_1404	s	s	11	2	SIC	5	ABS	0	0	2	4	24_2_4	NA	NA	0	1	2.10730695724	None	None	None	None	1
3.0.1	2019_Mar_08_1404	s	s	11	2	SIC	6	3_4	3	4	1	2	23_1_2	2	2	1	0	0.657990932465	-468.0	74.0	-478.0	75.0	1
3.0.1	2019_Mar_08_1404	s	s	11	2	SIC	7	ABS	0	0	4	2	24_4_2	NA	NA	0	1	3.32465004921	None	None	None	None	1
3.0.1	2019_Mar_08_1404	s	s	11	2	SIC	8	ABS	0	0	3	3	24_3_3	NA	NA	0	1	3.35119485855	None	None	None	None	1
3.0.1	2019_Mar_08_1404	s	s	11	2	SIC	9	ABS	0	0	4	1	24_4_1	NA	NA	0	1	1.0843129158	None	None	None	None	1
3.0.1	2019_Mar_08_1404	s	s	11	2	SIC	10	1_1	1	1	1	4	23_1_4	0	3	1	0	0.657976150513	476.0	-293.0	476.0	-293.0	1
3.0.1	2019_Mar_08_1404	s	s	11	2	SIC	11	1_3	1	3	3	2	23_3_2	2	1	1	0	0.0698878765106	191.0	-166.0	33.0	40.0	0
3.0.1	2019_Mar_08_1404	s	s	11	2	SIC	12	ABS	0	0	2	3	24_2_3	NA	NA	0	1	2.78034687042	None	None	None	None	1
3.0.1	2019_Mar_08_1404	s	s	11	2	SIC	13	4_1	4	1	3	3	23_3_3	1	2	1	0	0.615214824677	395.0	83.0	397.0	88.0	1
3.0.1	2019_Mar_08_1404	s	s	11	2	SIC	14	3_1	3	1	4	3	23_4_3	-1	2	1	0	1.01611590385	-69.0	-141.0	-67.0	-146.0	1
3.0.1	2019_Mar_08_1404	s	s	11	2	SIC	15	ABS	0	0	4	1	24_4_1	NA	NA	0	1	1.92806005478	None	None	None	None	1
3.0.1	2019_Mar_08_1404	s	s	11	2	SIC	16	ABS	0	0	4	4	24_4_4	NA	NA	0	1	3.44162392616	None	None	None	None	1
3.0.1	2019_Mar_08_1404	s	s	11	2	SIC	17	1_4	1	4	3	3	23_3_3	2	1	1	0	0.599184036255	-165.0	124.0	-160.0	124.0	1
3.0.1	2019_Mar_08_1404	s	s	11	2	SIC	18	ABS	0	0	3	4	24_3_4	NA	NA	0	1	1.89288401604	None	None	None	None	1
3.0.1	2019_Mar_08_1404	s	s	11	2	SIC	19	1_4	1	4	1	2	23_1_2	0	2	1	0	0.681411981583	376.0	-8.0	379.0	-14.0	1
3.0.1	2019_Mar_08_1404	s	s	11	2	SIC	20	ABS	0	0	2	3	24_2_3	NA	NA	0	1	2.5328040123	None	None	None	None	1
3.0.1	2019_Mar_08_1404	s	s	11	2	SIC	21	ABS	0	0	2	2	24_2_2	NA	NA	0	1	2.78966188431	None	None	None	None	1
3.0.1	2019_Mar_08_1404	s	s	11	2	SIC	22	3_4	3	4	1	3	23_1_3	2	1	1	0	0.740262985229	179.0	-253.0	171.0	-249.0	1
3.0.1	2019_Mar_08_1404	s	s	11	2	SIC	23	1_1	1	1	2	3	23_2_3	1	2	1	0	0.708712100983	150.0	-63.0	149.0	-57.0	1
3.0.1	2019_Mar_08_1404	s	s	11	2	SIC	24	ABS	0	0	1	4	24_1_4	NA	NA	0	1	1.22243595123	None	None	None	None	1
3.0.1	2019_Mar_08_1404	s	s	11	2	SIC	25	4_1	4	1	1	3	23_1_3	3	2	1	0	0.497298002243	431.0	108.0	426.0	103.0	1
3.0.1	2019_Mar_08_1404	s	s	11	2	SIC	26	ABS	0	0	1	4	24_1_4	NA	NA	0	1	1.15655398369	None	None	None	None	1
3.0.1	2019_Mar_08_1404	s	s	11	2	SIC	27	ABS	0	0	3	1	24_3_1	NA	NA	0	1	1.87229299545	None	None	None	None	1
3.0.1	2019_Mar_08_1404	s	s	11	2	SIC	28	ABS	0	0	3	1	24_3_1	NA	NA	0	1	1.97988891602	None	None	None	None	1
3.0.1	2019_Mar_08_1404	s	s	11	2	SIC	29	ABS	0	0	4	2	24_4_2	NA	NA	0	1	2.33980488777	None	None	None	None	1
3.0.1	2019_Mar_08_1404	s	s	11	2	SIC	30	ABS	0	0	4	2	24_4_2	NA	NA	0	1	2.09061384201	None	None	None	None	1
3.0.1	2019_Mar_08_1404	s	s	11	2	SIC	31	ABS	0	0	1	4	24_1_4	NA	NA	0	1	1.52835702896	None	None	None	None	1
3.0.1	2019_Mar_08_1404	s	s	11	2	SIC	32	ABS	0	0	1	3	24_1_3	NA	NA	0	1	3.19177007675	None	None	None	None	1
3.0.1	2019_Mar_08_1404	s	s	11	2	SIC	33	4_4	4	4	4	1	23_4_1	0	3	1	0	0.756938934326	523.0	-32.0	518.0	-33.0	1
3.0.1	2019_Mar_08_1404	s	s	11	2	SIC	34	2_3	2	3	3	2	23_3_2	1	1	1	0	0.97193312645	50.0	27.0	47.0	24.0	1
3.0.1	2019_Mar_08_1404	s	s	11	2	SIC	35	3_3	3	3	3	4	23_3_4	0	-1	1	0	0.822587966919	420.0	-48.0	420.0	-39.0	1
3.0.1	2019_Mar_08_1404	s	s	11	2	SIC	36	2_1	2	1	4	1	23_4_1	2	0	1	0	0.557507991791	-64.0	-204.0	-66.0	-200.0	1
3.0.1	2019_Mar_08_1404	s	s	11	2	SIC	37	ABS	0	0	1	1	24_1_1	NA	NA	0	1	1.42531704903	None	None	None	None	1
3.0.1	2019_Mar_08_1404	s	s	11	2	SIC	38	4_2	4	2	2	2	23_2_2	2	0	1	0	0.516715049744	31.0	-149.0	36.0	-147.0	1
3.0.1	2019_Mar_08_1404	s	s	11	2	SIC	39	2_1	2	1	3	4	23_3_4	1	3	1	0	0.73281288147	-435.0	-197.0	-438.0	-188.0	1
3.0.1	2019_Mar_08_1404	s	s	11	2	SIC	40	2_4	2	4	4	2	23_4_2	2	2	1	0	0.613773107529	497.0	396.0	497.0	405.0	1
3.0.1	2019_Mar_08_1404	s	s	11	2	SIC	41	ABS	0	0	3	3	24_3_3	NA	NA	0	1	2.45776581764	None	None	None	None	1
3.0.1	2019_Mar_08_1404	s	s	11	2	SIC	42	4_2	4	2	2	1	23_2_1	2	-1	1	0	0.634398937225	-196.0	-354.0	-190.0	-347.0	1
3.0.1	2019_Mar_08_1404	s	s	11	2	SIC	43	2_3	2	3	1	1	23_1_1	-1	2	1	0	1.39198994637	-167.0	183.0	-170.0	185.0	1
3.0.1	2019_Mar_08_1404	s	s	11	2	SIC	44	3_3	3	3	2	3	23_2_3	1	0	1	0	0.722386837006	-309.0	193.0	-311.0	193.0	1
3.0.1	2019_Mar_08_1404	s	s	11	2	SIC	45	ABS	0	0	3	2	24_3_2	NA	NA	0	1	2.6573638916	None	None	None	None	1
3.0.1	2019_Mar_08_1404	s	s	11	2	SIC	46	ABS	0	0	1	1	24_1_1	NA	NA	0	1	1.62744998932	None	None	None	None	1
3.0.1	2019_Mar_08_1404	s	s	11	2	SIC	47	ABS	0	0	3	3	24_3_3	NA	NA	0	1	2.51619410515	None	None	None	None	1
3.0.1	2019_Mar_08_1404	s	s	11	2	SIC	48	3_2	3	2	1	3	23_1_3	2	1	1	0	0.67259812355	116.0	83.0	121.0	77.0	1
3.0.1	2019_Mar_08_1404	s	s	11	2	SIC	49	3_3	3	3	3	2	23_3_2	0	1	0	1	2.14272093773	-278.0	-36.0	None	None	0
3.0.1	2019_Mar_08_1404	s	s	11	2	SIC	50	4_1	4	1	2	1	23_2_1	2	0	1	0	0.509804010391	-33.0	175.0	-31.0	170.0	1
3.0.1	2019_Mar_08_1404	s	s	11	2	SIC	51	ABS	0	0	2	1	24_2_1	NA	NA	0	1	1.39329600334	None	None	None	None	1
3.0.1	2019_Mar_08_1404	s	s	11	2	SIC	52	2_4	2	4	1	3	23_1_3	-1	1	1	0	0.796720981598	93.0	-201.0	90.0	-200.0	1
3.0.1	2019_Mar_08_1404	s	s	11	2	SIC	53	ABS	0	0	3	2	24_3_2	NA	NA	0	1	2.22721004486	None	None	None	None	1
3.0.1	2019_Mar_08_1404	s	s	11	2	SIC	54	ABS	0	0	3	3	24_3_3	NA	NA	0	1	2.76312279701	None	None	None	None	1
3.0.1	2019_Mar_08_1404	s	s	11	2	SIC	55	2_2	2	2	1	2	23_1_2	-1	0	0	1	2.53975176811	-447.0	-76.0	None	None	0
3.0.1	2019_Mar_08_1404	s	s	11	2	SIC	56	1_3	1	3	1	4	23_1_4	0	-1	1	0	1.16846299171	-262.0	-360.0	-264.0	-360.0	1
3.0.1	2019_Mar_08_1404	s	s	11	2	SIC	57	ABS	0	0	4	4	24_4_4	NA	NA	0	1	1.37825584412	None	None	None	None	1
3.0.1	2019_Mar_08_1404	s	s	11	2	SIC	58	4_1	4	1	1	4	23_1_4	3	3	1	0	0.540261030197	284.0	-343.0	291.0	-344.0	1
3.0.1	2019_Mar_08_1404	s	s	11	2	SIC	59	2_2	2	2	2	4	23_2_4	0	2	1	0	0.791945934296	74.0	365.0	83.0	373.0	1
3.0.1	2019_Mar_08_1404	s	s	11	2	SIC	60	ABS	0	0	4	4	24_4_4	NA	NA	0	1	1.06958198547	None	None	None	None	1
3.0.1	2019_Mar_08_1404	s	s	11	2	SIC	61	4_2	4	2	4	4	23_4_4	0	2	1	0	0.602056980133	-491.0	173.0	-490.0	173.0	1
3.0.1	2019_Mar_08_1404	s	s	11	2	SIC	62	ABS	0	0	1	4	24_1_4	NA	NA	0	1	1.26066184044	None	None	None	None	1
3.0.1	2019_Mar_08_1404	s	s	11	2	SIC	63	ABS	0	0	2	3	24_2_3	NA	NA	0	1	2.61326003075	None	None	None	None	1
3.0.1	2019_Mar_08_1404	s	s	11	2	SIC	64	1_4	1	4	3	1	23_3_1	2	3	1	0	0.653131961823	-217.0	-189.0	-214.0	-190.0	1
3.0.1	2019_Mar_08_1404	s	s	11	2	SIC	65	ABS	0	0	1	3	24_1_3	NA	NA	0	1	1.59132099152	None	None	None	None	1
3.0.1	2019_Mar_08_1404	s	s	11	2	SIC	66	ABS	0	0	4	1	24_4_1	NA	NA	0	1	1.22243189812	None	None	None	None	1
3.0.1	2019_Mar_08_1404	s	s	11	2	SIC	67	4_4	4	4	3	3	23_3_3	1	1	1	0	0.815503835678	-480.0	-394.0	-483.0	-394.0	1
3.0.1	2019_Mar_08_1404	s	s	11	2	SIC	68	ABS	0	0	1	4	24_1_4	NA	NA	0	1	1.18719816208	None	None	None	None	1
3.0.1	2019_Mar_08_1404	s	s	11	2	SIC	69	3_2	3	2	2	1	23_2_1	1	-1	1	0	0.620193004608	-62.0	221.0	-54.0	221.0	1
3.0.1	2019_Mar_08_1404	s	s	11	2	SIC	70	2_3	2	3	4	4	23_4_4	2	-1	1	0	0.487233877182	71.0	122.0	70.0	113.0	1
3.0.1	2019_Mar_08_1404	s	s	11	2	SIC	71	ABS	0	0	4	1	24_4_1	NA	NA	0	1	0.775495052338	None	None	None	None	1
3.0.1	2019_Mar_08_1404	s	s	11	2	SIC	72	4_2	4	2	1	1	23_1_1	3	-1	1	0	0.545696973801	154.0	331.0	157.0	323.0	1
3.0.1	2019_Mar_08_1404	s	s	11	2	SIC	73	2_3	2	3	4	2	23_4_2	2	1	1	0	0.457964897156	-304.0	28.0	-298.0	31.0	1
3.0.1	2019_Mar_08_1404	s	s	11	2	SIC	74	ABS	0	0	2	1	24_2_1	NA	NA	0	1	1.14015102386	None	None	None	None	1
3.0.1	2019_Mar_08_1404	s	s	11	2	SIC	75	ABS	0	0	2	2	24_2_2	NA	NA	0	1	2.90890002251	None	None	None	None	1
3.0.1	2019_Mar_08_1404	s	s	11	2	SIC	76	3_3	3	3	2	2	23_2_2	1	1	1	0	0.578454017639	357.0	326.0	361.0	318.0	1
3.0.1	2019_Mar_08_1404	s	s	11	2	SIC	77	2_4	2	4	3	4	23_3_4	1	0	1	0	0.790215015411	-405.0	-10.0	-405.0	-10.0	1
3.0.1	2019_Mar_08_1404	s	s	11	2	SIC	78	3_3	3	3	4	4	23_4_4	-1	-1	1	0	0.501654863358	108.0	-276.0	113.0	-269.0	1
3.0.1	2019_Mar_08_1404	s	s	11	2	SIC	79	ABS	0	0	1	1	24_1_1	NA	NA	0	1	0.775562047958	None	None	None	None	1
3.0.1	2019_Mar_08_1404	s	s	11	2	SIC	80	ABS	0	0	3	1	24_3_1	NA	NA	0	1	1.58756494522	None	None	None	None	1
3.0.1	2019_Mar_08_1404	s	s	11	2	SIC	81	ABS	0	0	2	2	24_2_2	NA	NA	0	1	1.5082089901	None	None	None	None	1
3.0.1	2019_Mar_08_1404	s	s	11	2	SIC	82	2_4	2	4	4	4	23_4_4	2	0	1	0	0.528820991516	357.0	389.0	351.0	393.0	1
3.0.1	2019_Mar_08_1404	s	s	11	2	SIC	83	1_3	1	3	1	1	23_1_1	0	2	0	1	1.20179796219	-160.0	-411.0	None	None	0
3.0.1	2019_Mar_08_1404	s	s	11	2	SIC	84	ABS	0	0	2	3	24_2_3	NA	NA	0	1	1.65005803108	None	None	None	None	1
3.0.1	2019_Mar_08_1404	s	s	11	2	SIC	85	ABS	0	0	4	3	24_4_3	NA	NA	0	1	1.81446695328	None	None	None	None	1
3.0.1	2019_Mar_08_1404	s	s	11	2	SIC	86	ABS	0	0	1	3	24_1_3	NA	NA	0	1	2.05067205429	None	None	None	None	1
3.0.1	2019_Mar_08_1404	s	s	11	2	SIC	87	ABS	0	0	4	4	24_4_4	NA	NA	0	1	1.67731690407	None	None	None	None	1
3.0.1	2019_Mar_08_1404	s	s	11	2	SIC	88	4_3	4	3	1	1	23_1_1	3	2	1	0	0.575615167618	-343.0	-27.0	-337.0	-31.0	1
3.0.1	2019_Mar_08_1404	s	s	11	2	SIC	89	ABS	0	0	4	2	24_4_2	NA	NA	0	1	1.72148489952	None	None	None	None	1
3.0.1	2019_Mar_08_1404	s	s	11	2	SIC	90	4_2	4	2	2	4	23_2_4	2	2	1	0	0.580012798309	486.0	323.0	484.0	315.0	1
3.0.1	2019_Mar_08_1404	s	s	11	2	SIC	91	ABS	0	0	2	1	24_2_1	NA	NA	0	1	0.915022850037	None	None	None	None	1
3.0.1	2019_Mar_08_1404	s	s	11	2	SIC	92	2_3	2	3	2	4	23_2_4	0	-1	1	0	0.841089963913	-315.0	-168.0	-314.0	-164.0	1
3.0.1	2019_Mar_08_1404	s	s	11	2	SIC	93	3_2	3	2	3	1	23_3_1	0	-1	0	1	1.76345086098	132.0	-229.0	None	None	0
3.0.1	2019_Mar_08_1404	s	s	11	2	SIC	94	ABS	0	0	4	2	24_4_2	NA	NA	0	1	1.52102684975	None	None	None	None	1
3.0.1	2019_Mar_08_1404	s	s	11	2	SIC	95	ABS	0	0	2	4	24_2_4	NA	NA	0	1	0.756968021393	None	None	None	None	1
3.0.1	2019_Mar_08_1404	s	s	11	2	SIC	96	1_1	1	1	4	4	23_4_4	3	3	1	0	0.498338937759	-482.0	355.0	-486.0	358.0	1
3.0.1	2019_Mar_08_1404	s	s	11	2	SIC	97	4_1	4	1	1	2	23_1_2	3	1	1	0	0.780803918839	419.0	202.0	418.0	203.0	1
3.0.1	2019_Mar_08_1404	s	s	11	2	SIC	98	ABS	0	0	1	3	24_1_3	NA	NA	0	1	1.31003904343	None	None	None	None	1
3.0.1	2019_Mar_08_1404	s	s	11	2	SIC	99	3_3	3	3	4	1	23_4_1	-1	2	1	0	1.0225379467	-20.0	205.0	-22.0	213.0	1
3.0.1	2019_Mar_08_1404	s	s	11	2	SIC	100	3_3	3	3	4	2	23_4_2	-1	1	1	0	0.626864910126	383.0	-239.0	383.0	-236.0	1
3.0.1	2019_Mar_08_1404	s	s	11	2	SIC	101	ABS	0	0	2	1	24_2_1	NA	NA	0	1	0.925327062607	None	None	None	None	1
3.0.1	2019_Mar_08_1404	s	s	11	2	SIC	102	ABS	0	0	4	2	24_4_2	NA	NA	0	1	1.40382814407	None	None	None	None	1
3.0.1	2019_Mar_08_1404	s	s	11	2	SIC	103	ABS	0	0	1	1	24_1_1	NA	NA	0	1	1.69581389427	None	None	None	None	1
3.0.1	2019_Mar_08_1404	s	s	11	2	SIC	104	ABS	0	0	3	2	24_3_2	NA	NA	0	1	1.99912595749	None	None	None	None	1
3.0.1	2019_Mar_08_1404	s	s	11	2	SIC	105	1_4	1	4	3	4	23_3_4	2	0	1	0	0.834336042404	198.0	-344.0	190.0	-350.0	1
3.0.1	2019_Mar_08_1404	s	s	11	2	SIC	106	2_1	2	1	4	3	23_4_3	2	2	1	0	0.508002996445	156.0	229.0	144.0	232.0	1
3.0.1	2019_Mar_08_1404	s	s	11	2	SIC	107	2_1	2	1	1	3	23_1_3	-1	2	1	0	1.62036395073	-341.0	27.0	-348.0	35.0	1
3.0.1	2019_Mar_08_1404	s	s	11	2	SIC	108	ABS	0	0	3	1	24_3_1	NA	NA	0	1	1.92253398895	None	None	None	None	1
3.0.1	2019_Mar_08_1404	s	s	11	2	SIC	109	4_1	4	1	2	3	23_2_3	2	2	1	0	0.563817977905	-19.0	122.0	-17.0	124.0	1
3.0.1	2019_Mar_08_1404	s	s	11	2	SIC	110	ABS	0	0	1	3	24_1_3	NA	NA	0	1	2.2980427742	None	None	None	None	1
3.0.1	2019_Mar_08_1404	s	s	11	2	SIC	111	2_2	2	2	4	3	23_4_3	2	1	1	0	0.514605045319	-539.0	-58.0	-549.0	-57.0	1
3.0.1	2019_Mar_08_1404	s	s	11	2	SIC	112	ABS	0	0	4	3	24_4_3	NA	NA	0	1	2.42218112946	None	None	None	None	1
3.0.1	2019_Mar_08_1404	s	s	11	2	SIC	113	2_4	2	4	4	3	23_4_3	2	1	1	0	0.54048705101	454.0	79.0	455.0	75.0	1
3.0.1	2019_Mar_08_1404	s	s	11	2	SIC	114	ABS	0	0	1	2	24_1_2	NA	NA	0	1	4.79122114182	None	None	None	None	1
3.0.1	2019_Mar_08_1404	s	s	11	2	SIC	115	1_2	1	2	2	2	23_2_2	1	0	0	1	2.02739691734	303.0	312.0	None	None	0
3.0.1	2019_Mar_08_1404	s	s	11	2	SIC	116	ABS	0	0	1	1	24_1_1	NA	NA	0	1	0.928422927856	None	None	None	None	1
3.0.1	2019_Mar_08_1404	s	s	11	2	SIC	117	ABS	0	0	3	3	24_3_3	NA	NA	0	1	3.22468400002	None	None	None	None	1
3.0.1	2019_Mar_08_1404	s	s	11	2	SIC	118	2_3	2	3	4	1	23_4_1	2	2	1	0	0.493309020996	114.0	62.0	121.0	57.0	1
3.0.1	2019_Mar_08_1404	s	s	11	2	SIC	119	ABS	0	0	1	4	24_1_4	NA	NA	0	1	1.21560502052	None	None	None	None	1
3.0.1	2019_Mar_08_1404	s	s	11	2	SIC	120	3_1	3	1	1	4	23_1_4	2	3	1	0	0.69325709343	-535.0	339.0	-537.0	332.0	1
3.0.1	2019_Mar_08_1404	s	s	11	2	SIC	121	4_3	4	3	4	4	23_4_4	0	-1	1	0	1.23907709122	41.0	-355.0	34.0	-354.0	1
3.0.1	2019_Mar_08_1404	s	s	11	2	SIC	122	ABS	0	0	2	2	24_2_2	NA	NA	0	1	2.46388101578	None	None	None	None	1
3.0.1	2019_Mar_08_1404	s	s	11	2	SIC	123	ABS	0	0	2	1	24_2_1	NA	NA	0	1	1.26065206528	None	None	None	None	1
3.0.1	2019_Mar_08_1404	s	s	11	2	SIC	124	3_4	3	4	3	3	23_3_3	0	1	1	0	0.782101154327	155.0	154.0	147.0	153.0	1
3.0.1	2019_Mar_08_1404	s	s	11	2	SIC	125	3_2	3	2	3	4	23_3_4	0	2	1	0	0.546509027481	309.0	-32.0	299.0	-28.0	1
3.0.1	2019_Mar_08_1404	s	s	11	2	SIC	126	3_2	3	2	2	2	23_2_2	1	0	1	0	0.657939910889	414.0	330.0	412.0	338.0	1
3.0.1	2019_Mar_08_1404	s	s	11	2	SIC	127	1_1	1	1	4	1	23_4_1	3	0	1	0	0.52854013443	464.0	-368.0	468.0	-372.0	1
3.0.1	2019_Mar_08_1404	s	s	11	2	SIC	128	4_2	4	2	1	3	23_1_3	3	1	1	0	0.603228092194	-188.0	-336.0	-181.0	-328.0	1
3.0.1	2019_Mar_08_1404	s	s	11	2	SIC	129	1_4	1	4	1	3	23_1_3	0	1	1	0	1.42249202728	-107.0	-198.0	-99.0	-194.0	1
3.0.1	2019_Mar_08_1404	s	s	11	2	SIC	130	1_2	1	2	3	2	23_3_2	2	0	1	0	0.604291915894	347.0	182.0	349.0	184.0	1
3.0.1	2019_Mar_08_1404	s	s	11	2	SIC	131	4_2	4	2	3	1	23_3_1	1	-1	1	0	0.790215015411	-446.0	-401.0	-444.0	-397.0	1
3.0.1	2019_Mar_08_1404	s	s	11	2	SIC	132	3_1	3	1	4	2	23_4_2	-1	1	1	0	0.587353944778	49.0	-166.0	55.0	-169.0	1
3.0.1	2019_Mar_08_1404	s	s	11	2	SIC	133	ABS	0	0	1	2	24_1_2	NA	NA	0	1	2.48092699051	None	None	None	None	1
3.0.1	2019_Mar_08_1404	s	s	11	2	SIC	134	ABS	0	0	2	4	24_2_4	NA	NA	0	1	1.38042712212	None	None	None	None	1
3.0.1	2019_Mar_08_1404	s	s	11	2	SIC	135	1_2	1	2	2	1	23_2_1	1	-1	1	0	1.33352589607	-29.0	144.0	-27.0	146.0	1
3.0.1	2019_Mar_08_1404	s	s	11	2	SIC	136	2_2	2	2	4	2	23_4_2	2	0	1	0	0.477591991425	259.0	124.0	257.0	120.0	1
3.0.1	2019_Mar_08_1404	s	s	11	2	SIC	137	ABS	0	0	2	4	24_2_4	NA	NA	0	1	0.763787031174	None	None	None	None	1
3.0.1	2019_Mar_08_1404	s	s	11	2	SIC	138	ABS	0	0	4	4	24_4_4	NA	NA	0	1	0.705375909805	None	None	None	None	1
3.0.1	2019_Mar_08_1404	s	s	11	2	SIC	139	ABS	0	0	4	4	24_4_4	NA	NA	0	1	0.752009153366	None	None	None	None	1
3.0.1	2019_Mar_08_1404	s	s	11	2	SIC	140	4_2	4	2	4	1	23_4_1	0	-1	0	1	0.799064159393	-163.0	-337.0	None	None	0
3.0.1	2019_Mar_08_1404	s	s	11	2	SIC	141	2_3	2	3	4	3	23_4_3	2	0	1	0	0.666265010834	321.0	-351.0	316.0	-344.0	1
3.0.1	2019_Mar_08_1404	s	s	11	2	SIC	142	1_4	1	4	4	3	23_4_3	3	1	1	0	0.540334939957	-78.0	-374.0	-82.0	-379.0	1
3.0.1	2019_Mar_08_1404	s	s	11	2	SIC	143	ABS	0	0	3	4	24_3_4	NA	NA	0	1	0.780655145645	None	None	None	None	1
3.0.1	2019_Mar_08_1404	s	s	11	2	SIC	144	3_3	3	3	1	2	23_1_2	2	1	1	0	0.559864044189	113.0	-96.0	110.0	-89.0	1
3.0.1	2019_Mar_08_1404	s	s	11	2	SIC	145	ABS	0	0	2	4	24_2_4	NA	NA	0	1	0.780118227005	None	None	None	None	1
3.0.1	2019_Mar_08_1404	s	s	11	2	SIC	146	ABS	0	0	1	4	24_1_4	NA	NA	0	1	1.01593589783	None	None	None	None	1
3.0.1	2019_Mar_08_1404	s	s	11	2	SIC	147	ABS	0	0	1	1	24_1_1	NA	NA	0	1	1.4106400013	None	None	None	None	1
3.0.1	2019_Mar_08_1404	s	s	11	2	SIC	148	ABS	0	0	2	1	24_2_1	NA	NA	0	1	0.88134098053	None	None	None	None	1
3.0.1	2019_Mar_08_1404	s	s	11	2	SIC	149	ABS	0	0	1	2	24_1_2	NA	NA	0	1	1.85767793655	None	None	None	None	1
3.0.1	2019_Mar_08_1404	s	s	11	2	SIC	150	3_3	3	3	3	1	23_3_1	0	2	0	1	0.913363933563	-452.0	-157.0	None	None	0
3.0.1	2019_Mar_08_1404	s	s	11	2	SIC	151	2_2	2	2	1	1	23_1_1	-1	-1	0	1	0.787329912186	-64.0	203.0	None	None	0
3.0.1	2019_Mar_08_1404	s	s	11	2	SIC	152	1_3	1	3	2	3	23_2_3	1	0	0	1	2.10994410515	-502.0	-306.0	None	None	0
3.0.1	2019_Mar_08_1404	s	s	11	2	SIC	153	1_3	1	3	1	2	23_1_2	0	1	1	0	2.40371108055	85.0	-296.0	81.0	-297.0	1
3.0.1	2019_Mar_08_1404	s	s	11	2	SIC	154	ABS	0	0	3	2	24_3_2	NA	NA	0	1	1.67879295349	None	None	None	None	1
3.0.1	2019_Mar_08_1404	s	s	11	2	SIC	155	2_1	2	1	2	3	23_2_3	0	2	1	0	3.30710101128	-225.0	355.0	-230.0	351.0	1
3.0.1	2019_Mar_08_1404	s	s	11	2	SIC	156	4_3	4	3	2	3	23_2_3	2	0	1	0	0.615967988968	-359.0	-46.0	-366.0	-52.0	1
3.0.1	2019_Mar_08_1404	s	s	11	2	SIC	157	2_3	2	3	1	2	23_1_2	-1	1	1	0	1.75176787376	-81.0	224.0	-76.0	221.0	1
3.0.1	2019_Mar_08_1404	s	s	11	2	SIC	158	1_4	1	4	2	3	23_2_3	1	1	1	0	0.686735153198	241.0	121.0	234.0	124.0	1
3.0.1	2019_Mar_08_1404	s	s	11	2	SIC	159	ABS	0	0	2	3	24_2_3	NA	NA	0	1	1.60335493088	None	None	None	None	1
3.0.1	2019_Mar_08_1404	s	s	11	2	SIC	160	ABS	0	0	1	4	24_1_4	NA	NA	0	1	1.93303990364	None	None	None	None	1
3.0.1	2019_Mar_08_1404	s	s	11	2	SIC	161	ABS	0	0	2	3	24_2_3	NA	NA	0	1	3.90696191788	None	None	None	None	1
3.0.1	2019_Mar_08_1404	s	s	11	2	SIC	162	2_2	2	2	4	4	23_4_4	2	2	1	0	0.52897310257	-477.0	180.0	-479.0	185.0	1
3.0.1	2019_Mar_08_1404	s	s	11	2	SIC	163	ABS	0	0	4	4	24_4_4	NA	NA	0	1	0.775589942932	None	None	None	None	1
3.0.1	2019_Mar_08_1404	s	s	11	2	SIC	164	ABS	0	0	3	2	24_3_2	NA	NA	0	1	2.71050190926	None	None	None	None	1
3.0.1	2019_Mar_08_1404	s	s	11	2	SIC	165	3_2	3	2	3	3	23_3_3	0	1	1	0	3.18009305	370.0	135.0	377.0	130.0	1
3.0.1	2019_Mar_08_1404	s	s	11	2	SIC	166	3_2	3	2	2	3	23_2_3	1	1	1	0	0.681452989578	513.0	52.0	517.0	51.0	1
3.0.1	2019_Mar_08_1404	s	s	11	2	SIC	167	ABS	0	0	4	2	24_4_2	NA	NA	0	1	2.32089090347	None	None	None	None	1
3.0.1	2019_Mar_08_1404	s	s	11	2	SIC	168	ABS	0	0	1	3	24_1_3	NA	NA	0	1	3.23367595673	None	None	None	None	1
3.0.1	2019_Mar_08_1404	s	s	11	2	SIC	169	ABS	0	0	4	1	24_4_1	NA	NA	0	1	0.872380971909	None	None	None	None	1
3.0.1	2019_Mar_08_1404	s	s	11	2	SIC	170	ABS	0	0	1	4	24_1_4	NA	NA	0	1	1.45805001259	None	None	None	None	1
3.0.1	2019_Mar_08_1404	s	s	11	2	SIC	171	1_2	1	2	4	1	23_4_1	3	-1	1	0	0.555009841919	-44.0	327.0	-40.0	323.0	1
3.0.1	2019_Mar_08_1404	s	s	11	2	SIC	172	ABS	0	0	3	2	24_3_2	NA	NA	0	1	1.42246103287	None	None	None	None	1
3.0.1	2019_Mar_08_1404	s	s	11	2	SIC	173	ABS	0	0	3	2	24_3_2	NA	NA	0	1	2.08678793907	None	None	None	None	1
3.0.1	2019_Mar_08_1404	s	s	11	2	SIC	174	3_3	3	3	2	1	23_2_1	1	2	1	0	1.07454109192	496.0	-394.0	496.0	-394.0	1
3.0.1	2019_Mar_08_1404	s	s	11	2	SIC	175	ABS	0	0	4	3	24_4_3	NA	NA	0	1	1.46940588951	None	None	None	None	1
3.0.1	2019_Mar_08_1404	s	s	11	2	SIC	176	4_3	4	3	3	1	23_3_1	1	2	1	0	0.751992940903	396.0	-325.0	398.0	-322.0	1
3.0.1	2019_Mar_08_1404	s	s	11	2	SIC	177	ABS	0	0	4	1	24_4_1	NA	NA	0	1	1.06389403343	None	None	None	None	1
3.0.1	2019_Mar_08_1404	s	s	11	2	SIC	178	4_4	4	4	4	2	23_4_2	0	2	1	0	0.998903036118	-258.0	-331.0	-263.0	-321.0	1
3.0.1	2019_Mar_08_1404	s	s	11	2	SIC	179	1_4	1	4	3	2	23_3_2	2	2	1	0	0.528991937637	125.0	-129.0	129.0	-130.0	1
3.0.1	2019_Mar_08_1404	s	s	11	2	SIC	180	ABS	0	0	3	3	24_3_3	NA	NA	0	1	1.37823915482	None	None	None	None	1
3.0.1	2019_Mar_08_1404	s	s	11	2	SIC	181	1_3	1	3	2	1	23_2_1	1	2	1	0	1.13416695595	-348.0	223.0	-349.0	228.0	1
3.0.1	2019_Mar_08_1404	s	s	11	2	SIC	182	ABS	0	0	4	4	24_4_4	NA	NA	0	1	0.896465063095	None	None	None	None	1
3.0.1	2019_Mar_08_1404	s	s	11	2	SIC	183	1_3	1	3	4	2	23_4_2	3	1	1	0	0.51680803299	-149.0	-284.0	-154.0	-287.0	1
3.0.1	2019_Mar_08_1404	s	s	11	2	SIC	184	3_1	3	1	1	1	23_1_1	2	0	1	0	0.646116018295	-74.0	18.0	-71.0	22.0	1
3.0.1	2019_Mar_08_1404	s	s	11	2	SIC	185	ABS	0	0	1	2	24_1_2	NA	NA	0	1	3.16303610802	None	None	None	None	1
3.0.1	2019_Mar_08_1404	s	s	11	2	SIC	186	ABS	0	0	2	4	24_2_4	NA	NA	0	1	1.39880681038	None	None	None	None	1
3.0.1	2019_Mar_08_1404	s	s	11	2	SIC	187	1_3	1	3	3	4	23_3_4	2	-1	1	0	0.555436849594	312.0	40.0	307.0	41.0	1
3.0.1	2019_Mar_08_1404	s	s	11	2	SIC	188	ABS	0	0	1	3	24_1_3	NA	NA	0	1	2.01045107841	None	None	None	None	1
3.0.1	2019_Mar_08_1404	s	s	11	2	SIC	189	1_1	1	1	4	3	23_4_3	3	2	1	0	0.451214075089	-267.0	141.0	-270.0	147.0	1
3.0.1	2019_Mar_08_1404	s	s	11	2	SIC	190	2_4	2	4	1	2	23_1_2	-1	2	1	0	1.16364002228	-345.0	-273.0	-337.0	-275.0	1
3.0.1	2019_Mar_08_1404	s	s	11	2	SIC	191	ABS	0	0	2	3	24_2_3	NA	NA	0	1	1.70457792282	None	None	None	None	1
3.0.1	2019_Mar_08_1404	s	s	11	2	SIC	192	4_3	4	3	2	4	23_2_4	2	-1	1	0	0.516773939133	223.0	-343.0	219.0	-335.0	1
3.0.1	2019_Mar_08_1404	s	s	11	2	SIC	193	3_1	3	1	4	4	23_4_4	-1	3	1	0	0.461606025696	76.0	300.0	77.0	303.0	1
3.0.1	2019_Mar_08_1404	s	s	11	2	SIC	194	3_2	3	2	4	4	23_4_4	-1	2	1	0	0.46976017952	359.0	288.0	359.0	292.0	1
3.0.1	2019_Mar_08_1404	s	s	11	2	SIC	195	ABS	0	0	4	3	24_4_3	NA	NA	0	1	0.822560071945	None	None	None	None	1
3.0.1	2019_Mar_08_1404	s	s	11	2	SIC	196	ABS	0	0	4	1	24_4_1	NA	NA	0	1	0.769016981125	None	None	None	None	1
3.0.1	2019_Mar_08_1404	s	s	11	2	SIC	197	ABS	0	0	3	4	24_3_4	NA	NA	0	1	0.827511072159	None	None	None	None	1
3.0.1	2019_Mar_08_1404	s	s	11	2	SIC	198	ABS	0	0	3	2	24_3_2	NA	NA	0	1	1.34367799759	None	None	None	None	1
3.0.1	2019_Mar_08_1404	s	s	11	2	SIC	199	1_2	1	2	4	4	23_4_4	3	2	1	0	0.462938070297	-421.0	-59.0	-420.0	-50.0	1
3.0.1	2019_Mar_08_1404	s	s	11	2	SIC	200	3_4	3	4	4	4	23_4_4	-1	0	1	0	0.510123968124	-380.0	53.0	-383.0	55.0	1
3.0.1	2019_Mar_08_1404	s	s	11	2	SIC	201	ABS	0	0	2	3	24_2_3	NA	NA	0	1	2.24579310417	None	None	None	None	1
3.0.1	2019_Mar_08_1404	s	s	11	2	SIC	202	2_3	2	3	2	2	23_2_2	0	1	0	1	3.26002502441	-526.0	-377.0	None	None	0
3.0.1	2019_Mar_08_1404	s	s	11	2	SIC	203	ABS	0	0	4	2	24_4_2	NA	NA	0	1	0.972123146057	None	None	None	None	1
3.0.1	2019_Mar_08_1404	s	s	11	2	SIC	204	ABS	0	0	3	3	24_3_3	NA	NA	0	1	1.05776715279	None	None	None	None	1
3.0.1	2019_Mar_08_1404	s	s	11	2	SIC	205	ABS	0	0	1	3	24_1_3	NA	NA	0	1	1.02641820908	None	None	None	None	1
3.0.1	2019_Mar_08_1404	s	s	11	2	SIC	206	ABS	0	0	1	1	24_1_1	NA	NA	0	1	1.03429317474	None	None	None	None	1
3.0.1	2019_Mar_08_1404	s	s	11	2	SIC	207	ABS	0	0	2	4	24_2_4	NA	NA	0	1	0.907867908478	None	None	None	None	1
3.0.1	2019_Mar_08_1404	s	s	11	2	SIC	208	4_4	4	4	2	1	23_2_1	2	3	1	0	0.672550916672	-329.0	-56.0	-326.0	-61.0	1
3.0.1	2019_Mar_08_1404	s	s	11	2	SIC	209	1_3	1	3	3	1	23_3_1	2	2	1	0	0.63803601265	51.0	162.0	50.0	168.0	1
3.0.1	2019_Mar_08_1404	s	s	11	2	SIC	210	ABS	0	0	2	3	24_2_3	NA	NA	0	1	1.16908097267	None	None	None	None	1
3.0.1	2019_Mar_08_1404	s	s	11	2	SIC	211	ABS	0	0	2	1	24_2_1	NA	NA	0	1	0.839814901352	None	None	None	None	1
3.0.1	2019_Mar_08_1404	s	s	11	2	SIC	212	ABS	0	0	3	4	24_3_4	NA	NA	0	1	0.85786986351	None	None	None	None	1
3.0.1	2019_Mar_08_1404	s	s	11	2	SIC	213	ABS	0	0	2	4	24_2_4	NA	NA	0	1	0.851261854172	None	None	None	None	1
3.0.1	2019_Mar_08_1404	s	s	11	2	SIC	214	ABS	0	0	1	3	24_1_3	NA	NA	0	1	1.6784799099	None	None	None	None	1
3.0.1	2019_Mar_08_1404	s	s	11	2	SIC	215	1_1	1	1	3	1	23_3_1	2	0	1	0	0.510924100876	-514.0	-108.0	-517.0	-102.0	1
3.0.1	2019_Mar_08_1404	s	s	11	2	SIC	216	ABS	0	0	1	4	24_1_4	NA	NA	0	1	0.799032926559	None	None	None	None	1
3.0.1	2019_Mar_08_1404	s	s	11	2	SIC	217	4_3	4	3	2	1	23_2_1	2	2	1	0	0.443755865097	-394.0	-118.0	-396.0	-123.0	1
3.0.1	2019_Mar_08_1404	s	s	11	2	SIC	218	3_4	3	4	2	3	23_2_3	1	1	1	0	0.528546094894	169.0	-86.0	174.0	-92.0	1
3.0.1	2019_Mar_08_1404	s	s	11	2	SIC	219	4_3	4	3	3	2	23_3_2	1	1	1	0	0.545480012894	-388.0	-266.0	-391.0	-267.0	1
3.0.1	2019_Mar_08_1404	s	s	11	2	SIC	220	ABS	0	0	4	4	24_4_4	NA	NA	0	1	0.944246053696	None	None	None	None	1
3.0.1	2019_Mar_08_1404	s	s	11	2	SIC	221	ABS	0	0	1	3	24_1_3	NA	NA	0	1	1.94395804405	None	None	None	None	1
3.0.1	2019_Mar_08_1404	s	s	11	2	SIC	222	1_2	1	2	3	3	23_3_3	2	1	1	0	0.687364816666	450.0	185.0	451.0	192.0	1
3.0.1	2019_Mar_08_1404	s	s	11	2	SIC	223	ABS	0	0	3	4	24_3_4	NA	NA	0	1	0.896052837372	None	None	None	None	1
3.0.1	2019_Mar_08_1404	s	s	11	2	SIC	224	ABS	0	0	2	3	24_2_3	NA	NA	0	1	1.27562093735	None	None	None	None	1
3.0.1	2019_Mar_08_1404	s	s	11	2	SIC	225	1_2	1	2	4	3	23_4_3	3	1	1	0	0.516765117645	363.0	-303.0	360.0	-305.0	1
3.0.1	2019_Mar_08_1404	s	s	11	2	SIC	226	1_1	1	1	1	2	23_1_2	0	1	0	1	1.02539777756	-346.0	25.0	None	None	0
3.0.1	2019_Mar_08_1404	s	s	11	2	SIC	227	ABS	0	0	2	2	24_2_2	NA	NA	0	1	1.39891409874	None	None	None	None	1
3.0.1	2019_Mar_08_1404	s	s	11	2	SIC	228	3_2	3	2	1	4	23_1_4	2	2	1	0	0.622735023499	401.0	-72.0	399.0	-70.0	1
3.0.1	2019_Mar_08_1404	s	s	11	2	SIC	229	3_2	3	2	1	1	23_1_1	2	-1	1	0	0.48153090477	426.0	-174.0	430.0	-180.0	1
3.0.1	2019_Mar_08_1404	s	s	11	2	SIC	230	ABS	0	0	3	4	24_3_4	NA	NA	0	1	0.881633043289	None	None	None	None	1
3.0.1	2019_Mar_08_1404	s	s	11	2	SIC	231	ABS	0	0	1	1	24_1_1	NA	NA	0	1	0.885380983353	None	None	None	None	1
3.0.1	2019_Mar_08_1404	s	s	11	2	SIC	232	4_4	4	4	3	1	23_3_1	1	3	1	0	0.634481906891	-222.0	-282.0	-226.0	-278.0	1
3.0.1	2019_Mar_08_1404	s	s	11	2	SIC	233	4_3	4	3	1	4	23_1_4	3	-1	1	0	0.451357126236	-349.0	-143.0	-355.0	-139.0	1
3.0.1	2019_Mar_08_1404	s	s	11	2	SIC	234	2_1	2	1	3	2	23_3_2	1	1	1	0	0.834444046021	-329.0	363.0	-337.0	359.0	1
3.0.1	2019_Mar_08_1404	s	s	11	2	SIC	235	4_2	4	2	3	2	23_3_2	1	0	1	0	0.501277923584	-94.0	14.0	-86.0	18.0	1
3.0.1	2019_Mar_08_1404	s	s	11	2	SIC	236	ABS	0	0	4	1	24_4_1	NA	NA	0	1	0.693176031113	None	None	None	None	1
3.0.1	2019_Mar_08_1404	s	s	11	2	SIC	237	ABS	0	0	1	2	24_1_2	NA	NA	0	1	1.01734495163	None	None	None	None	1
3.0.1	2019_Mar_08_1404	s	s	11	2	SIC	238	1_2	1	2	3	1	23_3_1	2	-1	1	0	0.54527592659	16.0	150.0	25.0	147.0	1
3.0.1	2019_Mar_08_1404	s	s	11	2	SIC	239	3_4	3	4	3	2	23_3_2	0	2	1	0	0.6137611866	141.0	8.0	142.0	9.0	1
3.0.1	2019_Mar_08_1404	s	s	11	2	SIC	240	1_1	1	1	2	2	23_2_2	1	1	0	1	0.910947084427	-527.0	-79.0	None	None	0
3.0.1	2019_Mar_08_1404	s	s	11	2	SIC	241	ABS	0	0	3	4	24_3_4	NA	NA	0	1	0.869630098343	None	None	None	None	1
3.0.1	2019_Mar_08_1404	s	s	11	2	SIC	242	ABS	0	0	4	3	24_4_3	NA	NA	0	1	0.74552488327	None	None	None	None	1
3.0.1	2019_Mar_08_1404	s	s	11	2	SIC	243	1_2	1	2	1	1	23_1_1	0	-1	0	1	0.747001171112	185.0	198.0	None	None	0
3.0.1	2019_Mar_08_1404	s	s	11	2	SIC	244	4_4	4	4	2	4	23_2_4	2	0	1	0	0.42796087265	-265.0	294.0	-264.0	285.0	1
3.0.1	2019_Mar_08_1404	s	s	11	2	SIC	245	ABS	0	0	2	4	24_2_4	NA	NA	0	1	0.646587133408	None	None	None	None	1
3.0.1	2019_Mar_08_1404	s	s	11	2	SIC	246	ABS	0	0	3	2	24_3_2	NA	NA	0	1	1.060587883	None	None	None	None	1
3.0.1	2019_Mar_08_1404	s	s	11	2	SIC	247	ABS	0	0	3	1	24_3_1	NA	NA	0	1	0.560703992844	None	None	None	None	1
3.0.1	2019_Mar_08_1404	s	s	11	2	SIC	248	2_3	2	3	1	4	23_1_4	-1	-1	1	0	0.854224205017	396.0	-11.0	396.0	-16.0	1
3.0.1	2019_Mar_08_1404	s	s	11	2	SIC	249	ABS	0	0	2	2	24_2_2	NA	NA	0	1	0.646228075027	None	None	None	None	1
3.0.1	2019_Mar_08_1404	s	s	11	2	SIC	250	1_4	1	4	4	4	23_4_4	3	0	1	0	0.646140098572	-466.0	-341.0	-470.0	-341.0	1
3.0.1	2019_Mar_08_1404	s	s	11	2	SIC	251	2_1	2	1	3	3	23_3_3	1	2	1	0	0.855808019638	-524.0	372.0	-528.0	370.0	1
3.0.1	2019_Mar_08_1404	s	s	11	2	SIC	252	1_2	1	2	2	4	23_2_4	1	2	1	0	0.752023220062	355.0	-371.0	358.0	-361.0	1
3.0.1	2019_Mar_08_1404	s	s	11	2	SIC	253	3_4	3	4	2	4	23_2_4	1	0	1	0	0.528549909592	208.0	251.0	210.0	250.0	1
3.0.1	2019_Mar_08_1404	s	s	11	2	SIC	254	ABS	0	0	1	1	24_1_1	NA	NA	0	1	0.731403112411	None	None	None	None	1
3.0.1	2019_Mar_08_1404	s	s	11	2	SIC	255	ABS	0	0	4	2	24_4_2	NA	NA	0	1	0.973186969757	None	None	None	None	1
3.0.1	2019_Mar_08_1404	s	s	11	2	SIC	256	ABS	0	0	4	2	24_4_2	NA	NA	0	1	0.728615045547	None	None	None	None	1
3.0.1	2019_Mar_08_1404	s	s	11	2	SIC	257	2_2	2	2	3	2	23_3_2	1	0	1	0	0.587368011475	-271.0	68.0	-277.0	74.0	1
3.0.1	2019_Mar_08_1404	s	s	11	2	SIC	258	ABS	0	0	3	3	24_3_3	NA	NA	0	1	1.24606704712	None	None	None	None	1
3.0.1	2019_Mar_08_1404	s	s	11	2	SIC	259	1_2	1	2	2	3	23_2_3	1	1	1	0	1.31949019432	120.0	-187.0	115.0	-193.0	1
3.0.1	2019_Mar_08_1404	s	s	11	2	SIC	260	2_4	2	4	1	1	23_1_1	-1	3	1	0	0.780899047852	-531.0	-53.0	-531.0	-45.0	1
3.0.1	2019_Mar_08_1404	s	s	11	2	SIC	261	3_1	3	1	2	3	23_2_3	1	2	1	0	0.481451034546	-457.0	157.0	-461.0	146.0	1
3.0.1	2019_Mar_08_1404	s	s	11	2	SIC	262	ABS	0	0	4	1	24_4_1	NA	NA	0	1	0.559976816177	None	None	None	None	1
3.0.1	2019_Mar_08_1404	s	s	11	2	SIC	263	1_3	1	3	3	3	23_3_3	2	0	1	0	0.646236896515	-334.0	-382.0	-338.0	-385.0	1
3.0.1	2019_Mar_08_1404	s	s	11	2	SIC	264	2_2	2	2	3	3	23_3_3	1	1	1	0	0.486857891083	-351.0	14.0	-349.0	12.0	1
3.0.1	2019_Mar_08_1404	s	s	11	2	SIC	265	ABS	0	0	2	1	24_2_1	NA	NA	0	1	0.839534044266	None	None	None	None	1
3.0.1	2019_Mar_08_1404	s	s	11	2	SIC	266	3_4	3	4	4	3	23_4_3	-1	1	1	0	0.59170293808	-294.0	-75.0	-288.0	-69.0	1
3.0.1	2019_Mar_08_1404	s	s	11	2	SIC	267	2_1	2	1	1	4	23_1_4	-1	3	1	0	0.44255399704	-473.0	-59.0	-474.0	-60.0	1
3.0.1	2019_Mar_08_1404	s	s	11	2	SIC	268	2_1	2	1	4	2	23_4_2	2	1	1	0	0.496208906174	409.0	-343.0	419.0	-344.0	1
3.0.1	2019_Mar_08_1404	s	s	11	2	SIC	269	3_1	3	1	2	1	23_2_1	1	0	1	0	0.650462865829	493.0	100.0	485.0	102.0	1
3.0.1	2019_Mar_08_1404	s	s	11	2	SIC	270	4_2	4	2	3	4	23_3_4	1	2	1	0	0.422908067703	365.0	68.0	366.0	65.0	1
3.0.1	2019_Mar_08_1404	s	s	11	2	SIC	271	ABS	0	0	3	4	24_3_4	NA	NA	0	1	1.00313901901	None	None	None	None	1
3.0.1	2019_Mar_08_1404	s	s	11	2	SIC	272	ABS	0	0	4	2	24_4_2	NA	NA	0	1	1.54627299309	None	None	None	None	1
3.0.1	2019_Mar_08_1404	s	s	11	2	SIC	273	ABS	0	0	2	4	24_2_4	NA	NA	0	1	1.17988777161	None	None	None	None	1
3.0.1	2019_Mar_08_1404	s	s	11	2	SIC	274	2_1	2	1	1	2	23_1_2	-1	1	1	0	1.30483484268	-61.0	-102.0	-71.0	-99.0	1
3.0.1	2019_Mar_08_1404	s	s	11	2	SIC	275	ABS	0	0	4	3	24_4_3	NA	NA	0	1	0.763770103455	None	None	None	None	1
3.0.1	2019_Mar_08_1404	s	s	11	2	SIC	276	ABS	0	0	4	3	24_4_3	NA	NA	0	1	1.04602098465	None	None	None	None	1
3.0.1	2019_Mar_08_1404	s	s	11	2	SIC	277	2_2	2	2	2	1	23_2_1	0	-1	0	1	1.36861681938	-378.0	289.0	None	None	0
3.0.1	2019_Mar_08_1404	s	s	11	2	SIC	278	ABS	0	0	3	1	24_3_1	NA	NA	0	1	0.697998046875	None	None	None	None	1
3.0.1	2019_Mar_08_1404	s	s	11	2	SIC	279	ABS	0	0	1	2	24_1_2	NA	NA	0	1	2.15593194962	None	None	None	None	1
3.0.1	2019_Mar_08_1404	s	s	11	2	SIC	280	1_2	1	2	3	4	23_3_4	2	2	1	0	0.719581127167	383.0	221.0	392.0	220.0	1
3.0.1	2019_Mar_08_1404	s	s	11	2	SIC	281	ABS	0	0	2	2	24_2_2	NA	NA	0	1	1.13522005081	None	None	None	None	1
3.0.1	2019_Mar_08_1404	s	s	11	2	SIC	282	ABS	0	0	3	2	24_3_2	NA	NA	0	1	1.96629214287	None	None	None	None	1
3.0.1	2019_Mar_08_1404	s	s	11	2	SIC	283	3_2	3	2	2	4	23_2_4	1	2	1	0	0.540453910828	453.0	-39.0	459.0	-35.0	1
3.0.1	2019_Mar_08_1404	s	s	11	2	SIC	284	ABS	0	0	4	4	24_4_4	NA	NA	0	1	0.916674137115	None	None	None	None	1
3.0.1	2019_Mar_08_1404	s	s	11	2	SIC	285	1_3	1	3	4	4	23_4_4	3	-1	1	0	0.481651067734	317.0	75.0	307.0	76.0	1
3.0.1	2019_Mar_08_1404	s	s	11	2	SIC	286	1_1	1	1	1	3	23_1_3	0	2	1	0	1.70460796356	345.0	-257.0	346.0	-251.0	1
3.0.1	2019_Mar_08_1404	s	s	11	2	SIC	287	3_1	3	1	1	3	23_1_3	2	2	1	0	0.587443828583	-385.0	-242.0	-383.0	-236.0	1
3.0.1	2019_Mar_08_1404	s	s	11	2	SIC	288	ABS	0	0	4	3	24_4_3	NA	NA	0	1	1.54001617432	None	None	None	None	1
3.0.1	2019_Mar_08_1404	s	s	11	2	SIC	289	ABS	0	0	3	3	24_3_3	NA	NA	0	1	2.68102002144	None	None	None	None	1
3.0.1	2019_Mar_08_1404	s	s	11	2	SIC	290	4_1	4	1	1	1	23_1_1	3	0	1	0	0.552125930786	302.0	342.0	295.0	347.0	1
3.0.1	2019_Mar_08_1404	s	s	11	2	SIC	291	ABS	0	0	4	2	24_4_2	NA	NA	0	1	1.5020608902	None	None	None	None	1
3.0.1	2019_Mar_08_1404	s	s	11	2	SIC	292	ABS	0	0	2	2	24_2_2	NA	NA	0	1	1.51013088226	None	None	None	None	1
3.0.1	2019_Mar_08_1404	s	s	11	2	SIC	293	ABS	0	0	1	2	24_1_2	NA	NA	0	1	0.731406927109	None	None	None	None	1
3.0.1	2019_Mar_08_1404	s	s	11	2	SIC	294	2_2	2	2	1	4	23_1_4	-1	2	1	0	0.554972887039	-384.0	111.0	-382.0	105.0	1
3.0.1	2019_Mar_08_1404	s	s	11	2	SIC	295	ABS	0	0	2	1	24_2_1	NA	NA	0	1	0.790204048157	None	None	None	None	1
3.0.1	2019_Mar_08_1404	s	s	11	2	SIC	296	1_1	1	1	3	3	23_3_3	2	2	1	0	0.587358951569	331.0	-169.0	337.0	-174.0	1
3.0.1	2019_Mar_08_1404	s	s	11	2	SIC	297	ABS	0	0	2	1	24_2_1	NA	NA	0	1	0.805240154266	None	None	None	None	1
3.0.1	2019_Mar_08_1404	s	s	11	2	SIC	298	2_3	2	3	3	4	23_3_4	1	-1	1	0	0.99121594429	452.0	359.0	455.0	369.0	1
3.0.1	2019_Mar_08_1404	s	s	11	2	SIC	299	1_4	1	4	4	2	23_4_2	3	2	1	0	0.528563022614	-244.0	-178.0	-236.0	-183.0	1
3.0.1	2019_Mar_08_1404	s	s	11	2	SIC	300	3_2	3	2	1	2	23_1_2	2	0	1	0	0.540359020233	215.0	-190.0	224.0	-188.0	1
3.0.1	2019_Mar_08_1404	s	s	11	2	SIC	301	4_4	4	4	3	4	23_3_4	1	0	1	0	0.599176883698	380.0	182.0	379.0	185.0	1
3.0.1	2019_Mar_08_1404	s	s	11	2	SIC	302	ABS	0	0	4	1	24_4_1	NA	NA	0	1	0.743072032928	None	None	None	None	1
3.0.1	2019_Mar_08_1404	s	s	11	2	SIC	303	4_3	4	3	2	2	23_2_2	2	1	1	0	0.486180067062	-263.0	-21.0	-264.0	-24.0	1
3.0.1	2019_Mar_08_1404	s	s	11	2	SIC	304	4_3	4	3	3	3	23_3_3	1	0	1	0	0.489863872528	-294.0	-290.0	-301.0	-282.0	1
3.0.1	2019_Mar_08_1404	s	s	11	2	SIC	305	4_4	4	4	1	2	23_1_2	3	2	1	0	0.469778060913	303.0	-169.0	312.0	-167.0	1
3.0.1	2019_Mar_08_1404	s	s	11	2	SIC	306	ABS	0	0	4	3	24_4_3	NA	NA	0	1	1.00311803818	None	None	None	None	1
3.0.1	2019_Mar_08_1404	s	s	11	2	SIC	307	4_4	4	4	1	4	23_1_4	3	0	1	0	0.469814062119	67.0	-27.0	62.0	-22.0	1
3.0.1	2019_Mar_08_1404	s	s	11	2	SIC	308	ABS	0	0	1	1	24_1_1	NA	NA	0	1	0.731666088104	None	None	None	None	1
3.0.1	2019_Mar_08_1404	s	s	11	2	SIC	309	ABS	0	0	3	1	24_3_1	NA	NA	0	1	0.951967000961	None	None	None	None	1
3.0.1	2019_Mar_08_1404	s	s	11	2	SIC	310	ABS	0	0	1	4	24_1_4	NA	NA	0	1	0.846549034119	None	None	None	None	1
3.0.1	2019_Mar_08_1404	s	s	11	2	SIC	311	4_2	4	2	4	3	23_4_3	0	1	0	1	0.826637983322	-237.0	-341.0	None	None	0
3.0.1	2019_Mar_08_1404	s	s	11	2	SIC	312	4_3	4	3	3	4	23_3_4	1	-1	1	0	0.519636869431	-184.0	69.0	-190.0	64.0	1
3.0.1	2019_Mar_08_1404	s	s	11	2	SIC	313	ABS	0	0	2	3	24_2_3	NA	NA	0	1	1.04876995087	None	None	None	None	1
3.0.1	2019_Mar_08_1404	s	s	11	2	SIC	314	4_1	4	1	4	3	23_4_3	0	2	0	1	1.41056799889	-291.0	-207.0	None	None	0
3.0.1	2019_Mar_08_1404	s	s	11	2	SIC	315	ABS	0	0	1	4	24_1_4	NA	NA	0	1	0.622658014297	None	None	None	None	1
3.0.1	2019_Mar_08_1404	s	s	11	2	SIC	316	ABS	0	0	2	3	24_2_3	NA	NA	0	1	1.65767407417	None	None	None	None	1
3.0.1	2019_Mar_08_1404	s	s	11	2	SIC	317	1_1	1	1	3	4	23_3_4	2	3	1	0	0.696598052979	-476.0	162.0	-476.0	170.0	1
3.0.1	2019_Mar_08_1404	s	s	11	2	SIC	318	2_4	2	4	3	2	23_3_2	1	2	1	0	0.679254055023	-20.0	-58.0	-19.0	-60.0	1
3.0.1	2019_Mar_08_1404	s	s	11	2	SIC	319	ABS	0	0	2	1	24_2_1	NA	NA	0	1	0.667534828186	None	None	None	None	1
3.0.1	2019_Mar_08_1404	s	s	11	2	SIC	320	2_4	2	4	2	1	23_2_1	0	3	1	0	0.546860933304	233.0	-59.0	240.0	-51.0	1
3.0.1	2019_Mar_08_1404	s	s	11	2	SIC	321	ABS	0	0	3	4	24_3_4	NA	NA	0	1	0.615759134293	None	None	None	None	1
3.0.1	2019_Mar_08_1404	s	s	11	2	SIC	322	2_3	2	3	1	3	23_1_3	-1	0	0	1	1.79881191254	413.0	319.0	None	None	0
3.0.1	2019_Mar_08_1404	s	s	11	2	SIC	323	2_1	2	1	2	2	23_2_2	0	1	0	1	1.38057208061	-44.0	-120.0	None	None	0
3.0.1	2019_Mar_08_1404	s	s	11	2	SIC	324	2_4	2	4	3	3	23_3_3	1	1	1	0	0.790214061737	-42.0	-308.0	-37.0	-303.0	1
3.0.1	2019_Mar_08_1404	s	s	11	2	SIC	325	ABS	0	0	1	3	24_1_3	NA	NA	0	1	0.704993009567	None	None	None	None	1
3.0.1	2019_Mar_08_1404	s	s	11	2	SIC	326	4_4	4	4	4	3	23_4_3	0	1	1	0	0.704974889755	351.0	-4.0	358.0	4.0	1
3.0.1	2019_Mar_08_1404	s	s	11	2	SIC	327	ABS	0	0	4	3	24_4_3	NA	NA	0	1	1.26625609398	None	None	None	None	1
3.0.1	2019_Mar_08_1404	s	s	11	2	SIC	328	2_2	2	2	3	4	23_3_4	1	2	1	0	0.528666973114	532.0	-23.0	536.0	-24.0	1
3.0.1	2019_Mar_08_1404	s	s	11	2	SIC	329	4_1	4	1	2	4	23_2_4	2	3	1	0	0.516846895218	-441.0	-395.0	-449.0	-390.0	1
3.0.1	2019_Mar_08_1404	s	s	11	2	SIC	330	ABS	0	0	2	2	24_2_2	NA	NA	0	1	1.2526550293	None	None	None	None	1
3.0.1	2019_Mar_08_1404	s	s	11	2	SIC	331	ABS	0	0	3	1	24_3_1	NA	NA	0	1	1.00568604469	None	None	None	None	1
3.0.1	2019_Mar_08_1404	s	s	11	2	SIC	332	3_3	3	3	1	4	23_1_4	2	-1	1	0	0.599171876907	198.0	368.0	199.0	366.0	1
3.0.1	2019_Mar_08_1404	s	s	11	2	SIC	333	ABS	0	0	3	2	24_3_2	NA	NA	0	1	1.19899296761	None	None	None	None	1
3.0.1	2019_Mar_08_1404	s	s	11	2	SIC	334	3_2	3	2	4	2	23_4_2	-1	0	1	0	0.796247005463	463.0	59.0	459.0	60.0	1
3.0.1	2019_Mar_08_1404	s	s	11	2	SIC	335	ABS	0	0	3	4	24_3_4	NA	NA	0	1	0.740277051926	None	None	None	None	1
3.0.1	2019_Mar_08_1404	s	s	11	2	SIC	336	4_2	4	2	2	3	23_2_3	2	1	1	0	0.533802986145	-324.0	-412.0	-316.0	-408.0	1
3.0.1	2019_Mar_08_1404	s	s	11	2	SIC	337	3_4	3	4	4	1	23_4_1	-1	3	1	0	0.622671842575	-150.0	267.0	-148.0	265.0	1
3.0.1	2019_Mar_08_1404	s	s	11	2	SIC	338	2_2	2	2	2	3	23_2_3	0	1	1	0	1.36366677284	-33.0	325.0	-29.0	318.0	1
3.0.1	2019_Mar_08_1404	s	s	11	2	SIC	339	ABS	0	0	2	2	24_2_2	NA	NA	0	1	1.16837406158	None	None	None	None	1
3.0.1	2019_Mar_08_1404	s	s	11	2	SIC	340	ABS	0	0	3	1	24_3_1	NA	NA	0	1	0.897049188614	None	None	None	None	1
3.0.1	2019_Mar_08_1404	s	s	11	2	SIC	341	2_1	2	1	4	4	23_4_4	2	3	1	0	0.497135162354	250.0	218.0	259.0	224.0	1
3.0.1	2019_Mar_08_1404	s	s	11	2	SIC	342	ABS	0	0	2	3	24_2_3	NA	NA	0	1	0.731403112411	None	None	None	None	1
3.0.1	2019_Mar_08_1404	s	s	11	2	SIC	343	ABS	0	0	3	3	24_3_3	NA	NA	0	1	1.29732012749	None	None	None	None	1
3.0.1	2019_Mar_08_1404	s	s	11	2	SIC	344	2_1	2	1	2	4	23_2_4	0	3	1	0	0.496147155762	63.0	105.0	58.0	110.0	1
3.0.1	2019_Mar_08_1404	s	s	11	2	SIC	345	ABS	0	0	3	1	24_3_1	NA	NA	0	1	0.731378078461	None	None	None	None	1
3.0.1	2019_Mar_08_1404	s	s	11	2	SIC	346	4_2	4	2	1	4	23_1_4	3	2	1	0	0.605842113495	-129.0	-194.0	-124.0	-200.0	1
3.0.1	2019_Mar_08_1404	s	s	11	2	SIC	347	ABS	0	0	3	1	24_3_1	NA	NA	0	1	0.679259061813	None	None	None	None	1
3.0.1	2019_Mar_08_1404	s	s	11	2	SIC	348	ABS	0	0	1	2	24_1_2	NA	NA	0	1	1.75169301033	None	None	None	None	1
3.0.1	2019_Mar_08_1404	s	s	11	2	SIC	349	ABS	0	0	3	3	24_3_3	NA	NA	0	1	1.29304289818	None	None	None	None	1
3.0.1	2019_Mar_08_1404	s	s	11	2	SIC	350	ABS	0	0	3	2	24_3_2	NA	NA	0	1	1.46987605095	None	None	None	None	1
3.0.1	2019_Mar_08_1404	s	s	11	2	SIC	351	3_2	3	2	4	1	23_4_1	-1	-1	1	0	0.498629808426	-95.0	-2.0	-101.0	3.0	1
3.0.1	2019_Mar_08_1404	s	s	11	2	SIC	352	ABS	0	0	2	4	24_2_4	NA	NA	0	1	0.747206926346	None	None	None	None	1
3.0.1	2019_Mar_08_1404	s	s	11	2	SIC	353	1_3	1	3	2	2	23_2_2	1	1	1	0	1.81052899361	210.0	-23.0	217.0	-17.0	1
3.0.1	2019_Mar_08_1404	s	s	11	2	SIC	354	4_1	4	1	3	2	23_3_2	1	1	1	0	0.555000066757	420.0	148.0	424.0	153.0	1
3.0.1	2019_Mar_08_1404	s	s	11	2	SIC	355	ABS	0	0	1	3	24_1_3	NA	NA	0	1	0.904911994934	None	None	None	None	1
3.0.1	2019_Mar_08_1404	s	s	11	2	SIC	356	3_1	3	1	1	2	23_1_2	2	1	1	0	0.55500793457	12.0	268.0	9.0	268.0	1
3.0.1	2019_Mar_08_1404	s	s	11	2	SIC	357	ABS	0	0	3	4	24_3_4	NA	NA	0	1	1.20845293999	None	None	None	None	1
3.0.1	2019_Mar_08_1404	s	s	11	2	SIC	358	2_3	2	3	3	1	23_3_1	1	2	1	0	0.775572061539	-12.0	147.0	-14.0	148.0	1
3.0.1	2019_Mar_08_1404	s	s	11	2	SIC	359	3_4	3	4	1	1	23_1_1	2	3	1	0	0.488197088242	45.0	295.0	41.0	289.0	1
3.0.1	2019_Mar_08_1404	s	s	11	2	SIC	360	3_1	3	1	3	3	23_3_3	0	2	1	0	1.38712906837	475.0	-227.0	466.0	-220.0	1
3.0.1	2019_Mar_08_1404	s	s	11	2	SIC	361	ABS	0	0	1	2	24_1_2	NA	NA	0	1	2.77122306824	None	None	None	None	1
3.0.1	2019_Mar_08_1404	s	s	11	2	SIC	362	3_3	3	3	2	4	23_2_4	1	-1	1	0	0.622689962387	-191.0	-368.0	-193.0	-366.0	1
3.0.1	2019_Mar_08_1404	s	s	11	2	SIC	363	ABS	0	0	1	2	24_1_2	NA	NA	0	1	2.50957012177	None	None	None	None	1
3.0.1	2019_Mar_08_1404	s	s	11	2	SIC	364	ABS	0	0	1	3	24_1_3	NA	NA	0	1	0.893300056458	None	None	None	None	1
3.0.1	2019_Mar_08_1404	s	s	11	2	SIC	365	2_4	2	4	1	4	23_1_4	-1	0	0	1	0.834455013275	461.0	-303.0	None	None	0
3.0.1	2019_Mar_08_1404	s	s	11	2	SIC	366	2_4	2	4	4	1	23_4_1	2	3	1	0	0.510321855545	-274.0	-180.0	-266.0	-175.0	1
3.0.1	2019_Mar_08_1404	s	s	11	2	SIC	367	1_2	1	2	1	3	23_1_3	0	1	0	1	1.25098705292	80.0	-331.0	None	None	0
3.0.1	2019_Mar_08_1404	s	s	11	2	SIC	368	2_2	2	2	3	1	23_3_1	1	-1	1	0	0.740313053131	478.0	15.0	483.0	25.0	1
3.0.1	2019_Mar_08_1404	s	s	11	2	SIC	369	ABS	0	0	4	1	24_4_1	NA	NA	0	1	0.793518066406	None	None	None	None	1
3.0.1	2019_Mar_08_1404	s	s	11	2	SIC	370	ABS	0	0	4	2	24_4_2	NA	NA	0	1	1.33479499817	None	None	None	None	1
3.0.1	2019_Mar_08_1404	s	s	11	2	SIC	371	ABS	0	0	3	3	24_3_3	NA	NA	0	1	1.04202413559	None	None	None	None	1
3.0.1	2019_Mar_08_1404	s	s	11	2	SIC	372	ABS	0	0	4	4	24_4_4	NA	NA	0	1	1.01082491875	None	None	None	None	1
3.0.1	2019_Mar_08_1404	s	s	11	2	SIC	373	3_4	3	4	3	1	23_3_1	0	3	1	0	1.06218099594	341.0	-289.0	342.0	-292.0	1
3.0.1	2019_Mar_08_1404	s	s	11	2	SIC	374	ABS	0	0	3	1	24_3_1	NA	NA	0	1	1.26951503754	None	None	None	None	1
3.0.1	2019_Mar_08_1404	s	s	11	2	SIC	375	ABS	0	0	4	4	24_4_4	NA	NA	0	1	0.752006053925	None	None	None	None	1
3.0.1	2019_Mar_08_1404	s	s	11	2	SIC	376	3_2	3	2	4	3	23_4_3	-1	1	1	0	0.737205982208	-85.0	-216.0	-78.0	-210.0	1
3.0.1	2019_Mar_08_1404	s	s	11	2	SIC	377	ABS	0	0	4	3	24_4_3	NA	NA	0	1	1.89808607101	None	None	None	None	1
3.0.1	2019_Mar_08_1404	s	s	11	2	SIC	378	ABS	0	0	1	4	24_1_4	NA	NA	0	1	0.822651863098	None	None	None	None	1
3.0.1	2019_Mar_08_1404	s	s	11	2	SIC	379	4_3	4	3	4	2	23_4_2	0	1	0	1	1.21509408951	-428.0	-272.0	None	None	0
3.0.1	2019_Mar_08_1404	s	s	11	2	SIC	380	2_3	2	3	3	3	23_3_3	1	0	1	0	0.790223836899	-395.0	186.0	-389.0	187.0	1
3.0.1	2019_Mar_08_1404	s	s	11	2	SIC	381	2_1	2	1	3	1	23_3_1	1	0	1	0	0.780225992203	280.0	-204.0	282.0	-203.0	1
3.0.1	2019_Mar_08_1404	s	s	11	2	SIC	382	ABS	0	0	3	2	24_3_2	NA	NA	0	1	1.35411000252	None	None	None	None	1
3.0.1	2019_Mar_08_1404	s	s	11	2	SIC	383	ABS	0	0	2	2	24_2_2	NA	NA	0	1	1.01079201698	None	None	None	None	1
3.0.1	2019_Mar_08_1404	s	s	11	2	SIC	384	1_4	1	4	2	4	23_2_4	1	0	0	1	0.686636924744	507.0	-181.0	None	None	0
3.0.1	2019_Mar_08_1404	s	s	11	2	SIC	385	ABS	0	0	2	2	24_2_2	NA	NA	0	1	1.03941607475	None	None	None	None	1
3.0.1	2019_Mar_08_1404	s	s	11	2	SIC	386	1_2	1	2	1	4	23_1_4	0	2	1	0	0.73143196106	12.0	10.0	14.0	19.0	1
3.0.1	2019_Mar_08_1404	s	s	11	2	SIC	387	ABS	0	0	1	4	24_1_4	NA	NA	0	1	0.697517156601	None	None	None	None	1
3.0.1	2019_Mar_08_1404	s	s	11	2	SIC	388	2_2	2	2	1	3	23_1_3	-1	1	0	1	1.5545899868	411.0	103.0	None	None	0
3.0.1	2019_Mar_08_1404	s	s	11	2	SIC	389	4_1	4	1	3	1	23_3_1	1	0	1	0	0.540367841721	-2.0	-350.0	0.0	-345.0	1
3.0.1	2019_Mar_08_1404	s	s	11	2	SIC	390	ABS	0	0	4	1	24_4_1	NA	NA	0	1	0.693265199661	None	None	None	None	1
3.0.1	2019_Mar_08_1404	s	s	11	2	SIC	391	1_3	1	3	4	3	23_4_3	3	0	1	0	0.469825029373	-235.0	341.0	-241.0	344.0	1
3.0.1	2019_Mar_08_1404	s	s	11	2	SIC	392	2_3	2	3	2	1	23_2_1	0	2	0	1	0.626013994217	519.0	-406.0	None	None	0
3.0.1	2019_Mar_08_1404	s	s	11	2	SIC	393	4_2	4	2	1	2	23_1_2	3	0	1	0	0.481595039368	135.0	109.0	144.0	107.0	1
3.0.1	2019_Mar_08_1404	s	s	11	2	SIC	394	ABS	0	0	2	2	24_2_2	NA	NA	0	1	0.799050092697	None	None	None	None	1
3.0.1	2019_Mar_08_1404	s	s	11	2	SIC	395	3_4	3	4	4	2	23_4_2	-1	2	1	0	0.563864946365	-392.0	-123.0	-382.0	-118.0	1
3.0.1	2019_Mar_08_1404	s	s	11	2	SIC	396	ABS	0	0	2	3	24_2_3	NA	NA	0	1	1.17037796974	None	None	None	None	1
3.0.1	2019_Mar_08_1404	s	s	11	2	SIC	397	ABS	0	0	1	2	24_1_2	NA	NA	0	1	2.10444092751	None	None	None	None	1
3.0.1	2019_Mar_08_1404	s	s	11	2	SIC	398	ABS	0	0	3	1	24_3_1	NA	NA	0	1	0.662137985229	None	None	None	None	1
3.0.1	2019_Mar_08_1404	s	s	11	2	SIC	399	ABS	0	0	3	1	24_3_1	NA	NA	0	1	0.604240179062	None	None	None	None	1
3.0.1	2019_Mar_08_1404	s	s	11	2	SIC	400	3_1	3	1	4	1	23_4_1	-1	0	1	0	0.625576972961	191.0	226.0	193.0	235.0	1
3.0.1	2019_Mar_08_1404	s	s	11	2	SIC	401	ABS	0	0	2	4	24_2_4	NA	NA	0	1	0.687453985214	None	None	None	None	1
3.0.1	2019_Mar_08_1404	s	s	11	2	SIC	402	ABS	0	0	2	2	24_2_2	NA	NA	0	1	0.790200948715	None	None	None	None	1
3.0.1	2019_Mar_08_1404	s	s	11	2	SIC	403	4_3	4	3	1	2	23_1_2	3	1	1	0	0.521774053574	535.0	-114.0	549.0	-108.0	1
3.0.1	2019_Mar_08_1404	s	s	11	2	SIC	404	2_4	2	4	2	2	23_2_2	0	2	1	0	0.756942033768	506.0	-219.0	494.0	-218.0	1
3.0.1	2019_Mar_08_1404	s	s	11	2	SIC	405	1_3	1	3	4	1	23_4_1	3	2	1	0	0.451391935349	-28.0	53.0	-33.0	60.0	1
3.0.1	2019_Mar_08_1404	s	s	11	2	SIC	406	ABS	0	0	4	2	24_4_2	NA	NA	0	1	1.5618917942	None	None	None	None	1
3.0.1	2019_Mar_08_1404	s	s	11	2	SIC	407	3_4	3	4	2	2	23_2_2	1	2	1	0	1.07482481003	-438.0	129.0	-448.0	131.0	1
3.0.1	2019_Mar_08_1404	s	s	11	2	SIC	408	ABS	0	0	2	1	24_2_1	NA	NA	0	1	0.84898686409	None	None	None	None	1
3.0.1	2019_Mar_08_1404	s	s	11	2	SIC	409	1_4	1	4	2	2	23_2_2	1	2	1	0	0.705064058304	306.0	-317.0	311.0	-310.0	1
3.0.1	2019_Mar_08_1404	s	s	11	2	SIC	410	ABS	0	0	3	3	24_3_3	NA	NA	0	1	2.04579591751	None	None	None	None	1
3.0.1	2019_Mar_08_1404	s	s	11	2	SIC	411	ABS	0	0	2	4	24_2_4	NA	NA	0	1	0.881380796432	None	None	None	None	1
3.0.1	2019_Mar_08_1404	s	s	11	2	SIC	412	3_3	3	3	1	3	23_1_3	2	0	1	0	0.599142074585	-59.0	-228.0	-52.0	-224.0	1
3.0.1	2019_Mar_08_1404	s	s	11	2	SIC	413	ABS	0	0	4	4	24_4_4	NA	NA	0	1	0.58095908165	None	None	None	None	1
3.0.1	2019_Mar_08_1404	s	s	11	2	SIC	414	ABS	0	0	1	1	24_1_1	NA	NA	0	1	0.98050904274	None	None	None	None	1
3.0.1	2019_Mar_08_1404	s	s	11	2	SIC	415	ABS	0	0	4	3	24_4_3	NA	NA	0	1	1.20187091827	None	None	None	None	1
3.0.1	2019_Mar_08_1404	s	s	11	2	SIC	416	ABS	0	0	3	4	24_3_4	NA	NA	0	1	1.27469611168	None	None	None	None	1
3.0.1	2019_Mar_08_1404	s	s	11	2	SIC	417	ABS	0	0	1	1	24_1_1	NA	NA	0	1	1.51031208038	None	None	None	None	1
3.0.1	2019_Mar_08_1404	s	s	11	2	SIC	418	1_4	1	4	1	1	23_1_1	0	3	1	0	0.602030992508	-401.0	-384.0	-410.0	-374.0	1
3.0.1	2019_Mar_08_1404	s	s	11	2	SIC	419	ABS	0	0	1	2	24_1_2	NA	NA	0	1	1.93302989006	None	None	None	None	1
3.0.1	2019_Mar_08_1404	s	s	11	2	SIC	420	ABS	0	0	4	1	24_4_1	NA	NA	0	1	0.672590017319	None	None	None	None	1
3.0.1	2019_Mar_08_1404	s	s	11	2	SIC	421	ABS	0	0	3	2	24_3_2	NA	NA	0	1	2.7514398098	None	None	None	None	1
3.0.1	2019_Mar_08_1404	s	s	11	2	SIC	422	4_3	4	3	4	1	23_4_1	0	2	1	0	1.26065397263	16.0	-189.0	25.0	-183.0	1
3.0.1	2019_Mar_08_1404	s	s	11	2	SIC	423	3_3	3	3	4	3	23_4_3	-1	0	1	0	0.53283905983	62.0	-186.0	55.0	-191.0	1
3.0.1	2019_Mar_08_1404	s	s	11	2	SIC	424	4_1	4	1	4	4	23_4_4	0	3	1	0	1.03834700584	-490.0	411.0	-492.0	408.0	1
3.0.1	2019_Mar_08_1404	s	s	11	2	SIC	425	ABS	0	0	2	3	24_2_3	NA	NA	0	1	2.28511214256	None	None	None	None	1
3.0.1	2019_Mar_08_1404	s	s	11	2	SIC	426	3_1	3	1	3	4	23_3_4	0	3	1	0	0.613750934601	155.0	39.0	161.0	41.0	1
3.0.1	2019_Mar_08_1404	s	s	11	2	SIC	427	ABS	0	0	1	1	24_1_1	NA	NA	0	1	1.70463418961	None	None	None	None	1
3.0.1	2019_Mar_08_1404	s	s	11	2	SIC	428	ABS	0	0	2	1	24_2_1	NA	NA	0	1	1.01542592049	None	None	None	None	1
3.0.1	2019_Mar_08_1404	s	s	11	2	SIC	429	4_2	4	2	3	3	23_3_3	1	1	1	0	0.496174812317	-317.0	4.0	-324.0	2.0	1
3.0.1	2019_Mar_08_1404	s	s	11	2	SIC	430	ABS	0	0	3	2	24_3_2	NA	NA	0	1	1.77529788017	None	None	None	None	1
3.0.1	2019_Mar_08_1404	s	s	11	2	SIC	431	ABS	0	0	3	4	24_3_4	NA	NA	0	1	0.775514125824	None	None	None	None	1
3.0.1	2019_Mar_08_1404	s	s	11	2	SIC	432	ABS	0	0	4	4	24_4_4	NA	NA	0	1	0.658167123795	None	None	None	None	1
3.0.1	2019_Mar_08_1404	s	s	11	2	SIC	433	4_1	4	1	2	2	23_2_2	2	1	1	0	0.517216920853	-173.0	-217.0	-167.0	-210.0	1
3.0.1	2019_Mar_08_1404	s	s	11	2	SIC	434	ABS	0	0	1	1	24_1_1	NA	NA	0	1	1.00477194786	None	None	None	None	1
3.0.1	2019_Mar_08_1404	s	s	11	2	SIC	435	3_1	3	1	2	2	23_2_2	1	1	1	0	0.502732992172	-131.0	-28.0	-131.0	-38.0	1
3.0.1	2019_Mar_08_1404	s	s	11	2	SIC	436	ABS	0	0	4	3	24_4_3	NA	NA	0	1	1.26063919067	None	None	None	None	1
3.0.1	2019_Mar_08_1404	s	s	11	2	SIC	437	ABS	0	0	3	4	24_3_4	NA	NA	0	1	0.678703784943	None	None	None	None	1
3.0.1	2019_Mar_08_1404	s	s	11	2	SIC	438	ABS	0	0	4	1	24_4_1	NA	NA	0	1	0.646189928055	None	None	None	None	1
3.0.1	2019_Mar_08_1404	s	s	11	2	SIC	439	4_1	4	1	4	2	23_4_2	0	1	1	0	0.89829492569	397.0	-126.0	401.0	-128.0	1
3.0.1	2019_Mar_08_1404	s	s	11	2	SIC	440	ABS	0	0	1	3	24_1_3	NA	NA	0	1	1.35175895691	None	None	None	None	1
3.0.1	2019_Mar_08_1404	s	s	11	2	SIC	441	4_4	4	4	2	2	23_2_2	2	2	1	0	0.490694999695	10.0	324.0	11.0	324.0	1
3.0.1	2019_Mar_08_1404	s	s	11	2	SIC	442	ABS	0	0	1	4	24_1_4	NA	NA	0	1	0.697309970856	None	None	None	None	1
3.0.1	2019_Mar_08_1404	s	s	11	2	SIC	443	4_4	4	4	1	1	23_1_1	3	3	1	0	0.469753980637	-302.0	-194.0	-300.0	-201.0	1
3.0.1	2019_Mar_08_1404	s	s	11	2	SIC	444	2_1	2	1	1	1	23_1_1	-1	0	0	1	0.822491168976	292.0	309.0	None	None	0
3.0.1	2019_Mar_08_1404	s	s	11	2	SIC	445	4_3	4	3	1	3	23_1_3	3	0	1	0	0.481561183929	-49.0	204.0	-48.0	199.0	1
3.0.1	2019_Mar_08_1404	s	s	11	2	SIC	446	1_4	1	4	4	1	23_4_1	3	3	1	0	0.488111972809	-316.0	402.0	-319.0	400.0	1
3.0.1	2019_Mar_08_1404	s	s	11	2	SIC	447	3_4	3	4	2	1	23_2_1	1	3	1	0	0.510947942734	276.0	404.0	277.0	406.0	1
3.0.1	2019_Mar_08_1404	s	s	11	2	SIC	448	ABS	0	0	3	4	24_3_4	NA	NA	0	1	0.672576904297	None	None	None	None	1
3.0.1	2019_Mar_08_1404	s	s	11	2	SIC	449	ABS	0	0	4	1	24_4_1	NA	NA	0	1	0.614200115204	None	None	None	None	1
3.0.1	2019_Mar_08_1404	s	s	11	2	SIC	450	ABS	0	0	1	2	24_1_2	NA	NA	0	1	1.10480594635	None	None	None	None	1
3.0.1	2019_Mar_08_1404	s	s	11	2	SIC	451	ABS	0	0	1	1	24_1_1	NA	NA	0	1	0.599157094955	None	None	None	None	1
3.0.1	2019_Mar_08_1404	s	s	11	2	SIC	452	ABS	0	0	1	2	24_1_2	NA	NA	0	1	1.06960296631	None	None	None	None	1
3.0.1	2019_Mar_08_1404	s	s	11	2	SIC	453	ABS	0	0	3	3	24_3_3	NA	NA	0	1	0.768079996109	None	None	None	None	1
3.0.1	2019_Mar_08_1404	s	s	11	2	SIC	454	1_1	1	1	3	2	23_3_2	2	1	1	0	0.593976020813	-342.0	-210.0	-338.0	-212.0	1
3.0.1	2019_Mar_08_1404	s	s	11	2	SIC	455	ABS	0	0	2	2	24_2_2	NA	NA	0	1	1.06277489662	None	None	None	None	1
3.0.1	2019_Mar_08_1404	s	s	11	2	SIC	456	ABS	0	0	4	3	24_4_3	NA	NA	0	1	1.356164217	None	None	None	None	1
3.0.1	2019_Mar_08_1404	s	s	11	2	SIC	457	ABS	0	0	1	2	24_1_2	NA	NA	0	1	1.33878493309	None	None	None	None	1
3.0.1	2019_Mar_08_1404	s	s	11	2	SIC	458	ABS	0	0	3	3	24_3_3	NA	NA	0	1	0.752022027969	None	None	None	None	1
3.0.1	2019_Mar_08_1404	s	s	11	2	SIC	459	ABS	0	0	4	3	24_4_3	NA	NA	0	1	0.70497584343	None	None	None	None	1
3.0.1	2019_Mar_08_1404	s	s	11	2	SIC	460	1_1	1	1	2	4	23_2_4	1	3	1	0	0.650316953659	208.0	117.0	209.0	118.0	1
3.0.1	2019_Mar_08_1404	s	s	11	2	SIC	461	ABS	0	0	2	4	24_2_4	NA	NA	0	1	0.711599111557	None	None	None	None	1
3.0.1	2019_Mar_08_1404	s	s	11	2	SIC	462	3_1	3	1	2	4	23_2_4	1	3	1	0	0.528522968292	276.0	339.0	283.0	338.0	1
3.0.1	2019_Mar_08_1404	s	s	11	2	SIC	463	2_4	2	4	3	1	23_3_1	1	3	1	0	0.54033780098	364.0	-328.0	369.0	-333.0	1
3.0.1	2019_Mar_08_1404	s	s	11	2	SIC	464	ABS	0	0	3	1	24_3_1	NA	NA	0	1	0.94025182724	None	None	None	None	1
3.0.1	2019_Mar_08_1404	s	s	11	2	SIC	465	2_4	2	4	2	3	23_2_3	0	1	1	0	0.688042879105	347.0	-62.0	342.0	-52.0	1
3.0.1	2019_Mar_08_1404	s	s	11	2	SIC	466	3_4	3	4	1	4	23_1_4	2	0	1	0	0.563839912415	518.0	-212.0	521.0	-219.0	1
3.0.1	2019_Mar_08_1404	s	s	11	2	SIC	467	4_4	4	4	1	3	23_1_3	3	1	1	0	0.501489877701	68.0	32.0	58.0	32.0	1
3.0.1	2019_Mar_08_1404	s	s	11	2	SIC	468	1_1	1	1	4	2	23_4_2	3	1	1	0	0.428493022919	266.0	-152.0	261.0	-153.0	1
3.0.1	2019_Mar_08_1404	s	s	11	2	SIC	469	1_1	1	1	2	1	23_2_1	1	0	0	1	1.05263996124	-488.0	292.0	None	None	0
3.0.1	2019_Mar_08_1404	s	s	11	2	SIC	470	ABS	0	0	2	4	24_2_4	NA	NA	0	1	0.640604019165	None	None	None	None	1
3.0.1	2019_Mar_08_1404	s	s	11	2	SIC	471	ABS	0	0	4	4	24_4_4	NA	NA	0	1	0.672616958618	None	None	None	None	1
3.0.1	2019_Mar_08_1404	s	s	11	2	SIC	472	ABS	0	0	2	1	24_2_1	NA	NA	0	1	0.822578907013	None	None	None	None	1
3.0.1	2019_Mar_08_1404	s	s	11	2	SIC	473	2_2	2	2	4	1	23_4_1	2	-1	1	0	0.64618396759	495.0	-142.0	490.0	-141.0	1
3.0.1	2019_Mar_08_1404	s	s	11	2	SIC	474	4_4	4	4	3	2	23_3_2	1	2	1	0	0.486443996429	-34.0	317.0	-41.0	322.0	1
3.0.1	2019_Mar_08_1404	s	s	11	2	SIC	475	ABS	0	0	1	3	24_1_3	NA	NA	0	1	1.28124809265	None	None	None	None	1
3.0.1	2019_Mar_08_1404	s	s	11	2	SIC	476	ABS	0	0	2	1	24_2_1	NA	NA	0	1	0.672516107559	None	None	None	None	1
3.0.1	2019_Mar_08_1404	s	s	11	2	SIC	477	ABS	0	0	4	2	24_4_2	NA	NA	0	1	0.952036857605	None	None	None	None	1
3.0.1	2019_Mar_08_1404	s	s	11	2	SIC	478	1_4	1	4	2	1	23_2_1	1	3	1	0	0.709869146347	-158.0	-184.0	-155.0	-186.0	1
3.0.1	2019_Mar_08_1404	s	s	11	2	SIC	479	4_4	4	4	2	3	23_2_3	2	1	1	0	0.464035987854	-52.0	265.0	-57.0	265.0	1
3.0.1	2019_Mar_08_1404	s	s	11	2	SIC	480	3_3	3	3	1	1	23_1_1	2	2	1	0	0.497688055038	-216.0	-181.0	-218.0	-182.0	1
