Version	Date	Stimuli	Method	Subject	Session	Condition	Trial	Target	TColor	TShape	DColor	DShape	Distractors	Channel1	Channel2	LMouseButton	RMouseButton	RT	TargetX	TargetY	ResponseX	ResponseY	Correct
3.0.1	2019_Mar_07_1326	s	s	11	1	Capacity	1	4_1	4	1	2	1	23_2_1	2	0	1	0	1.14876794815	121.0	275.0	123.0	282.0	1
3.0.1	2019_Mar_07_1326	s	s	11	1	Capacity	2	2_1	2	1	4	1	23_4_1	2	0	1	0	1.15224480629	79.0	-283.0	76.0	-285.0	1
3.0.1	2019_Mar_07_1326	s	s	11	1	Capacity	3	2_1	2	1	1	1	23_1_1	-1	0	0	1	1.91635894775	-525.0	290.0	None	None	0
3.0.1	2019_Mar_07_1326	s	s	11	1	Capacity	4	ABS	0	0	1	1	24_1_1	NA	NA	0	1	2.38364315033	None	None	None	None	1
3.0.1	2019_Mar_07_1326	s	s	11	1	Capacity	5	ABS	0	0	3	1	24_3_1	NA	NA	0	1	4.11595010757	None	None	None	None	1
3.0.1	2019_Mar_07_1326	s	s	11	1	Capacity	6	2_1	2	1	3	1	23_3_1	1	0	1	0	1.48620414734	-462.0	22.0	-464.0	26.0	1
3.0.1	2019_Mar_07_1326	s	s	11	1	Capacity	7	ABS	0	0	4	1	24_4_1	NA	NA	0	1	2.1804330349	None	None	None	None	1
3.0.1	2019_Mar_07_1326	s	s	11	1	Capacity	8	1_1	1	1	3	1	23_3_1	2	0	1	0	1.17541909218	-353.0	-343.0	-358.0	-349.0	1
3.0.1	2019_Mar_07_1326	s	s	11	1	Capacity	9	ABS	0	0	2	1	24_2_1	NA	NA	0	1	3.64518690109	None	None	None	None	1
3.0.1	2019_Mar_07_1326	s	s	11	1	Capacity	10	ABS	0	0	2	1	24_2_1	NA	NA	0	1	3.14340496063	None	None	None	None	1
3.0.1	2019_Mar_07_1326	s	s	11	1	Capacity	11	1_1	1	1	4	1	23_4_1	3	0	1	0	1.03428697586	-289.0	-267.0	-292.0	-269.0	1
3.0.1	2019_Mar_07_1326	s	s	11	1	Capacity	12	ABS	0	0	4	1	24_4_1	NA	NA	0	1	2.41037988663	None	None	None	None	1
3.0.1	2019_Mar_07_1326	s	s	11	1	Capacity	13	3_1	3	1	1	1	23_1_1	2	0	1	0	0.956838130951	26.0	-136.0	25.0	-129.0	1
3.0.1	2019_Mar_07_1326	s	s	11	1	Capacity	14	1_1	1	1	2	1	23_2_1	1	0	0	1	2.03887796402	246.0	-349.0	None	None	0
3.0.1	2019_Mar_07_1326	s	s	11	1	Capacity	15	4_1	4	1	1	1	23_1_1	3	0	1	0	0.91671204567	-53.0	382.0	-43.0	386.0	1
3.0.1	2019_Mar_07_1326	s	s	11	1	Capacity	16	4_1	4	1	3	1	23_3_1	1	0	1	0	1.73999094963	-107.0	240.0	-100.0	236.0	1
3.0.1	2019_Mar_07_1326	s	s	11	1	Capacity	17	3_1	3	1	4	1	23_4_1	-1	0	1	0	0.990220069885	-414.0	137.0	-414.0	133.0	1
3.0.1	2019_Mar_07_1326	s	s	11	1	Capacity	18	ABS	0	0	3	1	24_3_1	NA	NA	0	1	3.58132600784	None	None	None	None	1
3.0.1	2019_Mar_07_1326	s	s	11	1	Capacity	19	ABS	0	0	4	1	24_4_1	NA	NA	0	1	2.56838512421	None	None	None	None	1
3.0.1	2019_Mar_07_1326	s	s	11	1	Capacity	20	ABS	0	0	1	1	24_1_1	NA	NA	0	1	2.17940115929	None	None	None	None	1
3.0.1	2019_Mar_07_1326	s	s	11	1	Capacity	21	ABS	0	0	3	1	24_3_1	NA	NA	0	1	3.22184586525	None	None	None	None	1
3.0.1	2019_Mar_07_1326	s	s	11	1	Capacity	22	ABS	0	0	2	1	24_2_1	NA	NA	0	1	4.57440400124	None	None	None	None	1
3.0.1	2019_Mar_07_1326	s	s	11	1	Capacity	23	ABS	0	0	1	1	24_1_1	NA	NA	0	1	4.68546104431	None	None	None	None	1
3.0.1	2019_Mar_07_1326	s	s	11	1	Capacity	24	3_1	3	1	2	1	23_2_1	1	0	1	0	1.25776195526	158.0	-9.0	147.0	-8.0	1
3.0.1	2019_Mar_07_1326	s	s	11	1	Capacity	25	ABS	0	0	2	1	24_2_1	NA	NA	0	1	2.80527305603	None	None	None	None	1
3.0.1	2019_Mar_07_1326	s	s	11	1	Capacity	26	2_1	2	1	4	1	23_4_1	2	0	1	0	0.928478956223	293.0	-377.0	296.0	-377.0	1
3.0.1	2019_Mar_07_1326	s	s	11	1	Capacity	27	ABS	0	0	1	1	24_1_1	NA	NA	0	1	2.20308184624	None	None	None	None	1
3.0.1	2019_Mar_07_1326	s	s	11	1	Capacity	28	4_1	4	1	1	1	23_1_1	3	0	1	0	0.834481954575	-508.0	-170.0	-512.0	-173.0	1
3.0.1	2019_Mar_07_1326	s	s	11	1	Capacity	29	1_1	1	1	4	1	23_4_1	3	0	1	0	0.834374904633	25.0	-120.0	25.0	-116.0	1
3.0.1	2019_Mar_07_1326	s	s	11	1	Capacity	30	3_1	3	1	1	1	23_1_1	2	0	1	0	0.869793176651	-284.0	350.0	-283.0	356.0	1
3.0.1	2019_Mar_07_1326	s	s	11	1	Capacity	31	2_1	2	1	3	1	23_3_1	1	0	1	0	0.84614610672	202.0	-130.0	200.0	-128.0	1
3.0.1	2019_Mar_07_1326	s	s	11	1	Capacity	32	ABS	0	0	4	1	24_4_1	NA	NA	0	1	2.20150995255	None	None	None	None	1
3.0.1	2019_Mar_07_1326	s	s	11	1	Capacity	33	3_1	3	1	2	1	23_2_1	1	0	1	0	0.757051944733	-183.0	-209.0	-183.0	-202.0	1
3.0.1	2019_Mar_07_1326	s	s	11	1	Capacity	34	ABS	0	0	4	1	24_4_1	NA	NA	0	1	2.98664593697	None	None	None	None	1
3.0.1	2019_Mar_07_1326	s	s	11	1	Capacity	35	2_1	2	1	1	1	23_1_1	-1	0	0	1	3.0035431385	72.0	-118.0	None	None	0
3.0.1	2019_Mar_07_1326	s	s	11	1	Capacity	36	ABS	0	0	3	1	24_3_1	NA	NA	0	1	2.60448479652	None	None	None	None	1
3.0.1	2019_Mar_07_1326	s	s	11	1	Capacity	37	3_1	3	1	4	1	23_4_1	-1	0	1	0	0.622675180435	-487.0	152.0	-478.0	150.0	1
3.0.1	2019_Mar_07_1326	s	s	11	1	Capacity	38	ABS	0	0	2	1	24_2_1	NA	NA	0	1	1.62748289108	None	None	None	None	1
3.0.1	2019_Mar_07_1326	s	s	11	1	Capacity	39	4_1	4	1	3	1	23_3_1	1	0	1	0	0.98725104332	-356.0	-338.0	-360.0	-350.0	1
3.0.1	2019_Mar_07_1326	s	s	11	1	Capacity	40	ABS	0	0	1	1	24_1_1	NA	NA	0	1	1.78989005089	None	None	None	None	1
3.0.1	2019_Mar_07_1326	s	s	11	1	Capacity	41	ABS	0	0	3	1	24_3_1	NA	NA	0	1	2.13303899765	None	None	None	None	1
3.0.1	2019_Mar_07_1326	s	s	11	1	Capacity	42	4_1	4	1	2	1	23_2_1	2	0	1	0	0.716780900955	187.0	257.0	189.0	263.0	1
3.0.1	2019_Mar_07_1326	s	s	11	1	Capacity	43	ABS	0	0	4	1	24_4_1	NA	NA	0	1	1.50471997261	None	None	None	None	1
3.0.1	2019_Mar_07_1326	s	s	11	1	Capacity	44	1_1	1	1	3	1	23_3_1	2	0	1	0	0.958678007126	-171.0	-129.0	-169.0	-122.0	1
3.0.1	2019_Mar_07_1326	s	s	11	1	Capacity	45	ABS	0	0	1	1	24_1_1	NA	NA	0	1	1.58708906174	None	None	None	None	1
3.0.1	2019_Mar_07_1326	s	s	11	1	Capacity	46	ABS	0	0	3	1	24_3_1	NA	NA	0	1	1.78005099297	None	None	None	None	1
3.0.1	2019_Mar_07_1326	s	s	11	1	Capacity	47	ABS	0	0	2	1	24_2_1	NA	NA	0	1	1.48417592049	None	None	None	None	1
3.0.1	2019_Mar_07_1326	s	s	11	1	Capacity	48	1_1	1	1	2	1	23_2_1	1	0	0	1	1.70880508423	-375.0	-169.0	None	None	0
3.0.1	2019_Mar_07_1326	s	s	11	1	Capacity	49	2_1	2	1	4	1	23_4_1	2	0	1	0	0.827659130096	157.0	-206.0	150.0	-202.0	1
3.0.1	2019_Mar_07_1326	s	s	11	1	Capacity	50	ABS	0	0	3	1	24_3_1	NA	NA	0	1	2.33393406868	None	None	None	None	1
3.0.1	2019_Mar_07_1326	s	s	11	1	Capacity	51	4_1	4	1	2	1	23_2_1	2	0	1	0	0.722049951553	325.0	-135.0	320.0	-136.0	1
3.0.1	2019_Mar_07_1326	s	s	11	1	Capacity	52	ABS	0	0	4	1	24_4_1	NA	NA	0	1	1.58073496819	None	None	None	None	1
3.0.1	2019_Mar_07_1326	s	s	11	1	Capacity	53	4_1	4	1	3	1	23_3_1	1	0	1	0	1.06971311569	-60.0	84.0	-54.0	91.0	1
3.0.1	2019_Mar_07_1326	s	s	11	1	Capacity	54	ABS	0	0	4	1	24_4_1	NA	NA	0	1	1.58706998825	None	None	None	None	1
3.0.1	2019_Mar_07_1326	s	s	11	1	Capacity	55	ABS	0	0	1	1	24_1_1	NA	NA	0	1	1.81048703194	None	None	None	None	1
3.0.1	2019_Mar_07_1326	s	s	11	1	Capacity	56	3_1	3	1	1	1	23_1_1	2	0	1	0	0.827543020248	505.0	-405.0	500.0	-416.0	1
3.0.1	2019_Mar_07_1326	s	s	11	1	Capacity	57	ABS	0	0	2	1	24_2_1	NA	NA	0	1	1.93991804123	None	None	None	None	1
3.0.1	2019_Mar_07_1326	s	s	11	1	Capacity	58	ABS	0	0	2	1	24_2_1	NA	NA	0	1	1.76823687553	None	None	None	None	1
3.0.1	2019_Mar_07_1326	s	s	11	1	Capacity	59	ABS	0	0	2	1	24_2_1	NA	NA	0	1	1.43000984192	None	None	None	None	1
3.0.1	2019_Mar_07_1326	s	s	11	1	Capacity	60	ABS	0	0	1	1	24_1_1	NA	NA	0	1	1.02254199982	None	None	None	None	1
3.0.1	2019_Mar_07_1326	s	s	11	1	Capacity	61	3_1	3	1	2	1	23_2_1	1	0	1	0	0.678572893143	-57.0	-167.0	-54.0	-174.0	1
3.0.1	2019_Mar_07_1326	s	s	11	1	Capacity	62	1_1	1	1	2	1	23_2_1	1	0	0	1	1.60384607315	-187.0	-342.0	None	None	0
3.0.1	2019_Mar_07_1326	s	s	11	1	Capacity	63	2_1	2	1	3	1	23_3_1	1	0	1	0	0.838240861893	-409.0	75.0	-395.0	85.0	1
3.0.1	2019_Mar_07_1326	s	s	11	1	Capacity	64	1_1	1	1	3	1	23_3_1	2	0	1	0	0.767772912979	467.0	-87.0	466.0	-84.0	1
3.0.1	2019_Mar_07_1326	s	s	11	1	Capacity	65	3_1	3	1	4	1	23_4_1	-1	0	1	0	0.604639053345	409.0	-164.0	402.0	-168.0	1
3.0.1	2019_Mar_07_1326	s	s	11	1	Capacity	66	2_1	2	1	1	1	23_1_1	-1	0	0	1	1.42528986931	361.0	65.0	None	None	0
3.0.1	2019_Mar_07_1326	s	s	11	1	Capacity	67	4_1	4	1	1	1	23_1_1	3	0	1	0	0.528544902802	-12.0	334.0	-15.0	323.0	1
3.0.1	2019_Mar_07_1326	s	s	11	1	Capacity	68	ABS	0	0	4	1	24_4_1	NA	NA	0	1	1.64582800865	None	None	None	None	1
3.0.1	2019_Mar_07_1326	s	s	11	1	Capacity	69	1_1	1	1	4	1	23_4_1	3	0	1	0	0.575577974319	-411.0	-113.0	-415.0	-110.0	1
3.0.1	2019_Mar_07_1326	s	s	11	1	Capacity	70	ABS	0	0	3	1	24_3_1	NA	NA	0	1	2.01052212715	None	None	None	None	1
3.0.1	2019_Mar_07_1326	s	s	11	1	Capacity	71	ABS	0	0	1	1	24_1_1	NA	NA	0	1	1.8644888401	None	None	None	None	1
3.0.1	2019_Mar_07_1326	s	s	11	1	Capacity	72	ABS	0	0	3	1	24_3_1	NA	NA	0	1	3.26149201393	None	None	None	None	1
3.0.1	2019_Mar_07_1326	s	s	11	1	Capacity	73	1_1	1	1	2	1	23_2_1	1	0	0	1	4.09831619263	-532.0	114.0	None	None	0
3.0.1	2019_Mar_07_1326	s	s	11	1	Capacity	74	1_1	1	1	4	1	23_4_1	3	0	1	0	0.987221956253	-446.0	-228.0	-441.0	-227.0	1
3.0.1	2019_Mar_07_1326	s	s	11	1	Capacity	75	2_1	2	1	3	1	23_3_1	1	0	1	0	1.24600601196	339.0	-356.0	340.0	-357.0	1
3.0.1	2019_Mar_07_1326	s	s	11	1	Capacity	76	ABS	0	0	3	1	24_3_1	NA	NA	0	1	2.65737819672	None	None	None	None	1
3.0.1	2019_Mar_07_1326	s	s	11	1	Capacity	77	ABS	0	0	2	1	24_2_1	NA	NA	0	1	1.41591000557	None	None	None	None	1
3.0.1	2019_Mar_07_1326	s	s	11	1	Capacity	78	ABS	0	0	1	1	24_1_1	NA	NA	0	1	1.2107000351	None	None	None	None	1
3.0.1	2019_Mar_07_1326	s	s	11	1	Capacity	79	2_1	2	1	4	1	23_4_1	2	0	1	0	0.909783124924	-398.0	156.0	-407.0	157.0	1
3.0.1	2019_Mar_07_1326	s	s	11	1	Capacity	80	ABS	0	0	1	1	24_1_1	NA	NA	0	1	0.928467035294	None	None	None	None	1
3.0.1	2019_Mar_07_1326	s	s	11	1	Capacity	81	ABS	0	0	4	1	24_4_1	NA	NA	0	1	1.64589500427	None	None	None	None	1
3.0.1	2019_Mar_07_1326	s	s	11	1	Capacity	82	3_1	3	1	4	1	23_4_1	-1	0	1	0	0.693207025528	7.0	-178.0	16.0	-175.0	1
3.0.1	2019_Mar_07_1326	s	s	11	1	Capacity	83	ABS	0	0	3	1	24_3_1	NA	NA	0	1	1.38464713097	None	None	None	None	1
3.0.1	2019_Mar_07_1326	s	s	11	1	Capacity	84	ABS	0	0	2	1	24_2_1	NA	NA	0	1	1.18722987175	None	None	None	None	1
3.0.1	2019_Mar_07_1326	s	s	11	1	Capacity	85	4_1	4	1	1	1	23_1_1	3	0	1	0	0.604200124741	-12.0	-255.0	0.0	-247.0	1
3.0.1	2019_Mar_07_1326	s	s	11	1	Capacity	86	4_1	4	1	3	1	23_3_1	1	0	1	0	0.975404024124	-421.0	-317.0	-426.0	-311.0	1
3.0.1	2019_Mar_07_1326	s	s	11	1	Capacity	87	3_1	3	1	1	1	23_1_1	2	0	1	0	0.704986095428	-117.0	291.0	-105.0	293.0	1
3.0.1	2019_Mar_07_1326	s	s	11	1	Capacity	88	1_1	1	1	3	1	23_3_1	2	0	1	0	0.681495189667	-488.0	-248.0	-483.0	-243.0	1
3.0.1	2019_Mar_07_1326	s	s	11	1	Capacity	89	ABS	0	0	4	1	24_4_1	NA	NA	0	1	1.14859199524	None	None	None	None	1
3.0.1	2019_Mar_07_1326	s	s	11	1	Capacity	90	ABS	0	0	2	1	24_2_1	NA	NA	0	1	1.22246193886	None	None	None	None	1
3.0.1	2019_Mar_07_1326	s	s	11	1	Capacity	91	ABS	0	0	3	1	24_3_1	NA	NA	0	1	1.46935606003	None	None	None	None	1
3.0.1	2019_Mar_07_1326	s	s	11	1	Capacity	92	3_1	3	1	2	1	23_2_1	1	0	1	0	0.673640966415	-31.0	-351.0	-23.0	-341.0	1
3.0.1	2019_Mar_07_1326	s	s	11	1	Capacity	93	ABS	0	0	4	1	24_4_1	NA	NA	0	1	1.15189790726	None	None	None	None	1
3.0.1	2019_Mar_07_1326	s	s	11	1	Capacity	94	4_1	4	1	2	1	23_2_1	2	0	1	0	0.587280988693	291.0	-26.0	288.0	-20.0	1
3.0.1	2019_Mar_07_1326	s	s	11	1	Capacity	95	ABS	0	0	1	1	24_1_1	NA	NA	0	1	1.08547210693	None	None	None	None	1
3.0.1	2019_Mar_07_1326	s	s	11	1	Capacity	96	2_1	2	1	1	1	23_1_1	-1	0	0	1	0.904986858368	143.0	-408.0	None	None	0
3.0.1	2019_Mar_07_1326	s	s	11	1	Capacity	1	ABS	0	0	1	3	24_1_3	NA	NA	0	1	6.75022006035	None	None	None	None	1
3.0.1	2019_Mar_07_1326	s	s	11	1	Capacity	2	1_4	1	4	1	1	23_1_1	0	3	1	0	0.854239940643	428.0	-112.0	424.0	-111.0	1
3.0.1	2019_Mar_07_1326	s	s	11	1	Capacity	3	ABS	0	0	1	1	24_1_1	NA	NA	0	1	3.63805294037	None	None	None	None	1
3.0.1	2019_Mar_07_1326	s	s	11	1	Capacity	4	ABS	0	0	1	1	24_1_1	NA	NA	0	1	3.57466411591	None	None	None	None	1
3.0.1	2019_Mar_07_1326	s	s	11	1	Capacity	5	1_3	1	3	1	1	23_1_1	0	2	1	0	1.35732007027	-496.0	-136.0	-498.0	-137.0	1
3.0.1	2019_Mar_07_1326	s	s	11	1	Capacity	6	1_4	1	4	1	2	23_1_2	0	2	1	0	1.20186305046	444.0	242.0	445.0	251.0	1
3.0.1	2019_Mar_07_1326	s	s	11	1	Capacity	7	1_1	1	1	1	2	23_1_2	0	1	1	0	5.6654779911	-57.0	-219.0	-54.0	-224.0	1
3.0.1	2019_Mar_07_1326	s	s	11	1	Capacity	8	1_3	1	3	1	4	23_1_4	0	-1	1	0	1.53329014778	313.0	-104.0	320.0	-106.0	1
3.0.1	2019_Mar_07_1326	s	s	11	1	Capacity	9	1_3	1	3	1	2	23_1_2	0	1	1	0	8.79955601692	-174.0	-325.0	-172.0	-323.0	1
3.0.1	2019_Mar_07_1326	s	s	11	1	Capacity	10	1_1	1	1	1	4	23_1_4	0	3	1	0	0.873545885086	92.0	-69.0	86.0	-63.0	1
3.0.1	2019_Mar_07_1326	s	s	11	1	Capacity	11	1_2	1	2	1	4	23_1_4	0	2	1	0	1.2279419899	-394.0	102.0	-387.0	100.0	1
3.0.1	2019_Mar_07_1326	s	s	11	1	Capacity	12	1_2	1	2	1	1	23_1_1	0	-1	1	0	2.4955739975	-329.0	-278.0	-335.0	-277.0	1
3.0.1	2019_Mar_07_1326	s	s	11	1	Capacity	13	ABS	0	0	1	3	24_1_3	NA	NA	0	1	7.44454503059	None	None	None	None	1
3.0.1	2019_Mar_07_1326	s	s	11	1	Capacity	14	ABS	0	0	1	2	24_1_2	NA	NA	0	1	4.5926129818	None	None	None	None	1
3.0.1	2019_Mar_07_1326	s	s	11	1	Capacity	15	ABS	0	0	1	4	24_1_4	NA	NA	0	1	3.67268204689	None	None	None	None	1
3.0.1	2019_Mar_07_1326	s	s	11	1	Capacity	16	ABS	0	0	1	4	24_1_4	NA	NA	0	1	2.82629203796	None	None	None	None	1
3.0.1	2019_Mar_07_1326	s	s	11	1	Capacity	17	ABS	0	0	1	4	24_1_4	NA	NA	0	1	2.80357003212	None	None	None	None	1
3.0.1	2019_Mar_07_1326	s	s	11	1	Capacity	18	1_1	1	1	1	3	23_1_3	0	2	1	0	1.19256305695	446.0	163.0	440.0	159.0	1
3.0.1	2019_Mar_07_1326	s	s	11	1	Capacity	19	1_2	1	2	1	3	23_1_3	0	1	1	0	6.3151371479	-331.0	353.0	-338.0	348.0	1
3.0.1	2019_Mar_07_1326	s	s	11	1	Capacity	20	1_4	1	4	1	3	23_1_3	0	1	1	0	1.37829685211	353.0	237.0	363.0	243.0	1
3.0.1	2019_Mar_07_1326	s	s	11	1	Capacity	21	ABS	0	0	1	2	24_1_2	NA	NA	0	1	6.03826785088	None	None	None	None	1
3.0.1	2019_Mar_07_1326	s	s	11	1	Capacity	22	ABS	0	0	1	1	24_1_1	NA	NA	0	1	3.16309690475	None	None	None	None	1
3.0.1	2019_Mar_07_1326	s	s	11	1	Capacity	23	ABS	0	0	1	3	24_1_3	NA	NA	0	1	5.82622599602	None	None	None	None	1
3.0.1	2019_Mar_07_1326	s	s	11	1	Capacity	24	ABS	0	0	1	2	24_1_2	NA	NA	0	1	5.58583498001	None	None	None	None	1
3.0.1	2019_Mar_07_1326	s	s	11	1	Capacity	25	1_3	1	3	1	4	23_1_4	0	-1	1	0	1.57533407211	337.0	103.0	329.0	107.0	1
3.0.1	2019_Mar_07_1326	s	s	11	1	Capacity	26	ABS	0	0	1	4	24_1_4	NA	NA	0	1	2.3779540062	None	None	None	None	1
3.0.1	2019_Mar_07_1326	s	s	11	1	Capacity	27	ABS	0	0	1	4	24_1_4	NA	NA	0	1	2.09028792381	None	None	None	None	1
3.0.1	2019_Mar_07_1326	s	s	11	1	Capacity	28	1_1	1	1	1	2	23_1_2	0	1	1	0	3.71054792404	-178.0	106.0	-176.0	102.0	1
3.0.1	2019_Mar_07_1326	s	s	11	1	Capacity	29	1_4	1	4	1	3	23_1_3	0	1	1	0	1.82626700401	-362.0	116.0	-368.0	109.0	1
3.0.1	2019_Mar_07_1326	s	s	11	1	Capacity	30	1_1	1	1	1	4	23_1_4	0	3	1	0	1.74447607994	-384.0	-265.0	-379.0	-262.0	1
3.0.1	2019_Mar_07_1326	s	s	11	1	Capacity	31	ABS	0	0	1	2	24_1_2	NA	NA	0	1	4.6504099369	None	None	None	None	1
3.0.1	2019_Mar_07_1326	s	s	11	1	Capacity	32	ABS	0	0	1	2	24_1_2	NA	NA	0	1	6.83256196976	None	None	None	None	1
3.0.1	2019_Mar_07_1326	s	s	11	1	Capacity	33	ABS	0	0	1	2	24_1_2	NA	NA	0	1	3.12011480331	None	None	None	None	1
3.0.1	2019_Mar_07_1326	s	s	11	1	Capacity	34	ABS	0	0	1	1	24_1_1	NA	NA	0	1	3.44837117195	None	None	None	None	1
3.0.1	2019_Mar_07_1326	s	s	11	1	Capacity	35	1_3	1	3	1	2	23_1_2	0	1	0	1	4.13214993477	191.0	382.0	None	None	0
3.0.1	2019_Mar_07_1326	s	s	11	1	Capacity	36	ABS	0	0	1	4	24_1_4	NA	NA	0	1	3.1866312027	None	None	None	None	1
3.0.1	2019_Mar_07_1326	s	s	11	1	Capacity	37	1_4	1	4	1	2	23_1_2	0	2	1	0	2.26220703125	188.0	-268.0	189.0	-275.0	1
3.0.1	2019_Mar_07_1326	s	s	11	1	Capacity	38	1_2	1	2	1	4	23_1_4	0	2	1	0	0.8931889534	16.0	185.0	7.0	188.0	1
3.0.1	2019_Mar_07_1326	s	s	11	1	Capacity	39	1_2	1	2	1	3	23_1_3	0	1	1	0	6.10631608963	68.0	-365.0	66.0	-368.0	1
3.0.1	2019_Mar_07_1326	s	s	11	1	Capacity	40	1_3	1	3	1	1	23_1_1	0	2	1	0	1.59888100624	23.0	87.0	20.0	85.0	1
3.0.1	2019_Mar_07_1326	s	s	11	1	Capacity	41	ABS	0	0	1	1	24_1_1	NA	NA	0	1	2.82196903229	None	None	None	None	1
3.0.1	2019_Mar_07_1326	s	s	11	1	Capacity	42	ABS	0	0	1	3	24_1_3	NA	NA	0	1	7.96923017502	None	None	None	None	1
3.0.1	2019_Mar_07_1326	s	s	11	1	Capacity	43	ABS	0	0	1	3	24_1_3	NA	NA	0	1	4.36269903183	None	None	None	None	1
3.0.1	2019_Mar_07_1326	s	s	11	1	Capacity	44	ABS	0	0	1	3	24_1_3	NA	NA	0	1	4.20097208023	None	None	None	None	1
3.0.1	2019_Mar_07_1326	s	s	11	1	Capacity	45	1_2	1	2	1	1	23_1_1	0	-1	1	0	2.54505419731	-83.0	-300.0	-86.0	-290.0	1
3.0.1	2019_Mar_07_1326	s	s	11	1	Capacity	46	1_1	1	1	1	3	23_1_3	0	2	1	0	0.952038049698	-218.0	309.0	-222.0	306.0	1
3.0.1	2019_Mar_07_1326	s	s	11	1	Capacity	47	1_4	1	4	1	1	23_1_1	0	3	1	0	1.26063799858	396.0	-404.0	395.0	-400.0	1
3.0.1	2019_Mar_07_1326	s	s	11	1	Capacity	48	ABS	0	0	1	1	24_1_1	NA	NA	0	1	1.57535290718	None	None	None	None	1
3.0.1	2019_Mar_07_1326	s	s	11	1	Capacity	49	ABS	0	0	1	3	24_1_3	NA	NA	0	1	7.79688310623	None	None	None	None	1
3.0.1	2019_Mar_07_1326	s	s	11	1	Capacity	50	ABS	0	0	1	4	24_1_4	NA	NA	0	1	2.99846410751	None	None	None	None	1
3.0.1	2019_Mar_07_1326	s	s	11	1	Capacity	51	ABS	0	0	1	1	24_1_1	NA	NA	0	1	1.5917289257	None	None	None	None	1
3.0.1	2019_Mar_07_1326	s	s	11	1	Capacity	52	ABS	0	0	1	3	24_1_3	NA	NA	0	1	3.94441103935	None	None	None	None	1
3.0.1	2019_Mar_07_1326	s	s	11	1	Capacity	53	ABS	0	0	1	1	24_1_1	NA	NA	0	1	2.01882100105	None	None	None	None	1
3.0.1	2019_Mar_07_1326	s	s	11	1	Capacity	54	ABS	0	0	1	2	24_1_2	NA	NA	0	1	4.08481001854	None	None	None	None	1
3.0.1	2019_Mar_07_1326	s	s	11	1	Capacity	55	1_3	1	3	1	1	23_1_1	0	2	1	0	1.45774197578	321.0	277.0	318.0	274.0	1
3.0.1	2019_Mar_07_1326	s	s	11	1	Capacity	56	1_2	1	2	1	1	23_1_1	0	-1	0	1	3.08107113838	234.0	-344.0	None	None	0
3.0.1	2019_Mar_07_1326	s	s	11	1	Capacity	57	ABS	0	0	1	4	24_1_4	NA	NA	0	1	3.40314602852	None	None	None	None	1
3.0.1	2019_Mar_07_1326	s	s	11	1	Capacity	58	1_2	1	2	1	4	23_1_4	0	2	1	0	1.16368699074	95.0	46.0	96.0	42.0	1
3.0.1	2019_Mar_07_1326	s	s	11	1	Capacity	59	1_1	1	1	1	4	23_1_4	0	3	1	0	0.795655965805	-235.0	406.0	-230.0	408.0	1
3.0.1	2019_Mar_07_1326	s	s	11	1	Capacity	60	1_4	1	4	1	3	23_1_3	0	1	1	0	1.25781488419	3.0	172.0	-1.0	170.0	1
3.0.1	2019_Mar_07_1326	s	s	11	1	Capacity	61	ABS	0	0	1	3	24_1_3	NA	NA	0	1	4.23337006569	None	None	None	None	1
3.0.1	2019_Mar_07_1326	s	s	11	1	Capacity	62	ABS	0	0	1	1	24_1_1	NA	NA	0	1	2.61318898201	None	None	None	None	1
3.0.1	2019_Mar_07_1326	s	s	11	1	Capacity	63	1_3	1	3	1	4	23_1_4	0	-1	1	0	4.53918194771	-407.0	-359.0	-399.0	-355.0	1
3.0.1	2019_Mar_07_1326	s	s	11	1	Capacity	64	ABS	0	0	1	2	24_1_2	NA	NA	0	1	5.36901497841	None	None	None	None	1
3.0.1	2019_Mar_07_1326	s	s	11	1	Capacity	65	ABS	0	0	1	4	24_1_4	NA	NA	0	1	2.53165912628	None	None	None	None	1
3.0.1	2019_Mar_07_1326	s	s	11	1	Capacity	66	1_2	1	2	1	3	23_1_3	0	1	0	1	6.21492099762	-188.0	-348.0	None	None	0
3.0.1	2019_Mar_07_1326	s	s	11	1	Capacity	67	ABS	0	0	1	2	24_1_2	NA	NA	0	1	4.99783802032	None	None	None	None	1
3.0.1	2019_Mar_07_1326	s	s	11	1	Capacity	68	1_4	1	4	1	1	23_1_1	0	3	1	0	1.17546701431	-515.0	-290.0	-509.0	-286.0	1
3.0.1	2019_Mar_07_1326	s	s	11	1	Capacity	69	1_3	1	3	1	2	23_1_2	0	1	0	1	3.52762293816	244.0	111.0	None	None	0
3.0.1	2019_Mar_07_1326	s	s	11	1	Capacity	70	1_1	1	1	1	3	23_1_3	0	2	1	0	1.3988339901	-458.0	-169.0	-452.0	-175.0	1
3.0.1	2019_Mar_07_1326	s	s	11	1	Capacity	71	1_1	1	1	1	2	23_1_2	0	1	0	1	3.86875104904	58.0	228.0	None	None	0
3.0.1	2019_Mar_07_1326	s	s	11	1	Capacity	72	1_4	1	4	1	2	23_1_2	0	2	1	0	0.92845582962	11.0	-202.0	8.0	-208.0	1
3.0.1	2019_Mar_07_1326	s	s	11	1	Capacity	73	1_2	1	2	1	4	23_1_4	0	2	1	0	1.38489794731	204.0	-333.0	213.0	-333.0	1
3.0.1	2019_Mar_07_1326	s	s	11	1	Capacity	74	ABS	0	0	1	3	24_1_3	NA	NA	0	1	2.75144720078	None	None	None	None	1
3.0.1	2019_Mar_07_1326	s	s	11	1	Capacity	75	ABS	0	0	1	4	24_1_4	NA	NA	0	1	1.88643908501	None	None	None	None	1
3.0.1	2019_Mar_07_1326	s	s	11	1	Capacity	76	ABS	0	0	1	2	24_1_2	NA	NA	0	1	4.73907899857	None	None	None	None	1
3.0.1	2019_Mar_07_1326	s	s	11	1	Capacity	77	1_4	1	4	1	2	23_1_2	0	2	1	0	0.704998016357	-73.0	5.0	-67.0	5.0	1
3.0.1	2019_Mar_07_1326	s	s	11	1	Capacity	78	ABS	0	0	1	1	24_1_1	NA	NA	0	1	1.43421888351	None	None	None	None	1
3.0.1	2019_Mar_07_1326	s	s	11	1	Capacity	79	ABS	0	0	1	1	24_1_1	NA	NA	0	1	1.78991580009	None	None	None	None	1
3.0.1	2019_Mar_07_1326	s	s	11	1	Capacity	80	ABS	0	0	1	3	24_1_3	NA	NA	0	1	6.23273682594	None	None	None	None	1
3.0.1	2019_Mar_07_1326	s	s	11	1	Capacity	81	ABS	0	0	1	1	24_1_1	NA	NA	0	1	2.08394002914	None	None	None	None	1
3.0.1	2019_Mar_07_1326	s	s	11	1	Capacity	82	ABS	0	0	1	2	24_1_2	NA	NA	0	1	3.9863319397	None	None	None	None	1
3.0.1	2019_Mar_07_1326	s	s	11	1	Capacity	83	ABS	0	0	1	4	24_1_4	NA	NA	0	1	2.51035690308	None	None	None	None	1
3.0.1	2019_Mar_07_1326	s	s	11	1	Capacity	84	1_3	1	3	1	1	23_1_1	0	2	1	0	1.29304504395	228.0	318.0	219.0	322.0	1
3.0.1	2019_Mar_07_1326	s	s	11	1	Capacity	85	ABS	0	0	1	2	24_1_2	NA	NA	0	1	3.98033809662	None	None	None	None	1
3.0.1	2019_Mar_07_1326	s	s	11	1	Capacity	86	1_1	1	1	1	3	23_1_3	0	2	1	0	4.90658211708	-281.0	401.0	-281.0	393.0	1
3.0.1	2019_Mar_07_1326	s	s	11	1	Capacity	87	1_2	1	2	1	3	23_1_3	0	1	1	0	2.10978507996	-335.0	-30.0	-332.0	-27.0	1
3.0.1	2019_Mar_07_1326	s	s	11	1	Capacity	88	1_3	1	3	1	2	23_1_2	0	1	0	1	3.7158639431	-245.0	-394.0	None	None	0
3.0.1	2019_Mar_07_1326	s	s	11	1	Capacity	89	ABS	0	0	1	3	24_1_3	NA	NA	0	1	3.70808696747	None	None	None	None	1
3.0.1	2019_Mar_07_1326	s	s	11	1	Capacity	90	1_3	1	3	1	4	23_1_4	0	-1	1	0	1.69297003746	403.0	-9.0	402.0	-12.0	1
3.0.1	2019_Mar_07_1326	s	s	11	1	Capacity	91	1_1	1	1	1	4	23_1_4	0	3	1	0	0.778463840485	108.0	279.0	107.0	274.0	1
3.0.1	2019_Mar_07_1326	s	s	11	1	Capacity	92	1_4	1	4	1	3	23_1_3	0	1	1	0	1.50953888893	413.0	-310.0	418.0	-300.0	1
3.0.1	2019_Mar_07_1326	s	s	11	1	Capacity	93	1_1	1	1	1	2	23_1_2	0	1	1	0	2.19865202904	-67.0	-68.0	-62.0	-64.0	1
3.0.1	2019_Mar_07_1326	s	s	11	1	Capacity	94	1_4	1	4	1	1	23_1_1	0	3	1	0	1.1636288166	462.0	300.0	456.0	302.0	1
3.0.1	2019_Mar_07_1326	s	s	11	1	Capacity	95	1_2	1	2	1	1	23_1_1	0	-1	0	1	3.05720901489	285.0	126.0	None	None	0
3.0.1	2019_Mar_07_1326	s	s	11	1	Capacity	96	ABS	0	0	1	4	24_1_4	NA	NA	0	1	0.928618907928	None	None	None	None	1
3.0.1	2019_Mar_07_1326	s	s	11	1	SIC	1	ABS	0	0	4	1	24_4_1	NA	NA	0	1	1.14434719086	None	None	None	None	1
3.0.1	2019_Mar_07_1326	s	s	11	1	SIC	2	ABS	0	0	2	3	24_2_3	NA	NA	1	0	3.84816598892	None	None	-97.0	-8.0	0
3.0.1	2019_Mar_07_1326	s	s	11	1	SIC	3	ABS	0	0	1	1	24_1_1	NA	NA	0	1	2.02554106712	None	None	None	None	1
3.0.1	2019_Mar_07_1326	s	s	11	1	SIC	4	1_2	1	2	2	2	23_2_2	1	0	0	1	3.67401194572	133.0	-251.0	None	None	0
3.0.1	2019_Mar_07_1326	s	s	11	1	SIC	5	1_4	1	4	3	4	23_3_4	2	0	1	0	0.999049901962	265.0	-83.0	273.0	-88.0	1
3.0.1	2019_Mar_07_1326	s	s	11	1	SIC	6	ABS	0	0	2	3	24_2_3	NA	NA	0	1	3.11132597923	None	None	None	None	1
3.0.1	2019_Mar_07_1326	s	s	11	1	SIC	7	ABS	0	0	2	3	24_2_3	NA	NA	0	1	3.22194504738	None	None	None	None	1
3.0.1	2019_Mar_07_1326	s	s	11	1	SIC	8	3_2	3	2	1	1	23_1_1	2	-1	1	0	0.799134969711	239.0	172.0	234.0	176.0	1
3.0.1	2019_Mar_07_1326	s	s	11	1	SIC	9	3_4	3	4	1	2	23_1_2	2	2	1	0	0.893180847168	-509.0	342.0	-513.0	343.0	1
3.0.1	2019_Mar_07_1326	s	s	11	1	SIC	10	ABS	0	0	4	2	24_4_2	NA	NA	0	1	2.25748181343	None	None	None	None	1
3.0.1	2019_Mar_07_1326	s	s	11	1	SIC	11	2_3	2	3	3	1	23_3_1	1	2	1	0	1.16365003586	60.0	-392.0	70.0	-390.0	1
3.0.1	2019_Mar_07_1326	s	s	11	1	SIC	12	3_2	3	2	3	4	23_3_4	0	2	1	0	1.36362504959	-464.0	-277.0	-465.0	-274.0	1
3.0.1	2019_Mar_07_1326	s	s	11	1	SIC	13	2_1	2	1	1	4	23_1_4	-1	3	1	0	0.945307970047	313.0	224.0	309.0	225.0	1
3.0.1	2019_Mar_07_1326	s	s	11	1	SIC	14	1_4	1	4	2	2	23_2_2	1	2	1	0	0.998997926712	-270.0	92.0	-266.0	87.0	1
3.0.1	2019_Mar_07_1326	s	s	11	1	SIC	15	4_1	4	1	2	4	23_2_4	2	3	1	0	0.59258890152	97.0	-49.0	105.0	-47.0	1
3.0.1	2019_Mar_07_1326	s	s	11	1	SIC	16	ABS	0	0	1	2	24_1_2	NA	NA	0	1	4.20135211945	None	None	None	None	1
3.0.1	2019_Mar_07_1326	s	s	11	1	SIC	17	1_4	1	4	2	3	23_2_3	1	1	1	0	0.980926990509	-310.0	29.0	-306.0	26.0	1
3.0.1	2019_Mar_07_1326	s	s	11	1	SIC	18	3_4	3	4	3	2	23_3_2	0	2	1	0	0.796447992325	249.0	-162.0	263.0	-152.0	1
3.0.1	2019_Mar_07_1326	s	s	11	1	SIC	19	1_2	1	2	3	2	23_3_2	2	0	1	0	1.65766000748	20.0	-197.0	20.0	-193.0	1
3.0.1	2019_Mar_07_1326	s	s	11	1	SIC	20	4_2	4	2	3	4	23_3_4	1	2	1	0	1.03994011879	-528.0	168.0	-531.0	173.0	1
3.0.1	2019_Mar_07_1326	s	s	11	1	SIC	21	1_3	1	3	1	2	23_1_2	0	1	1	0	4.50127196312	-53.0	-292.0	-47.0	-293.0	1
3.0.1	2019_Mar_07_1326	s	s	11	1	SIC	22	3_2	3	2	1	4	23_1_4	2	2	1	0	0.76381611824	-337.0	-366.0	-342.0	-361.0	1
3.0.1	2019_Mar_07_1326	s	s	11	1	SIC	23	ABS	0	0	2	4	24_2_4	NA	NA	0	1	1.63411211967	None	None	None	None	1
3.0.1	2019_Mar_07_1326	s	s	11	1	SIC	24	ABS	0	0	1	2	24_1_2	NA	NA	0	1	3.32776808739	None	None	None	None	1
3.0.1	2019_Mar_07_1326	s	s	11	1	SIC	25	2_3	2	3	2	4	23_2_4	0	-1	1	0	0.999006986618	346.0	195.0	352.0	189.0	1
3.0.1	2019_Mar_07_1326	s	s	11	1	SIC	26	ABS	0	0	4	3	24_4_3	NA	NA	0	1	5.20218992233	None	None	None	None	1
3.0.1	2019_Mar_07_1326	s	s	11	1	SIC	27	ABS	0	0	3	3	24_3_3	NA	NA	0	1	2.46216797829	None	None	None	None	1
3.0.1	2019_Mar_07_1326	s	s	11	1	SIC	28	ABS	0	0	4	1	24_4_1	NA	NA	0	1	1.83877420425	None	None	None	None	1
3.0.1	2019_Mar_07_1326	s	s	11	1	SIC	29	ABS	0	0	2	2	24_2_2	NA	NA	0	1	2.61844992638	None	None	None	None	1
3.0.1	2019_Mar_07_1326	s	s	11	1	SIC	30	1_3	1	3	3	2	23_3_2	2	1	1	0	0.731424093246	-213.0	-103.0	-215.0	-112.0	1
3.0.1	2019_Mar_07_1326	s	s	11	1	SIC	31	4_1	4	1	3	1	23_3_1	1	0	1	0	0.646226167679	-38.0	187.0	-30.0	189.0	1
3.0.1	2019_Mar_07_1326	s	s	11	1	SIC	32	1_4	1	4	1	2	23_1_2	0	2	1	0	1.14881801605	-472.0	-209.0	-463.0	-208.0	1
3.0.1	2019_Mar_07_1326	s	s	11	1	SIC	33	1_2	1	2	2	1	23_2_1	1	-1	0	1	2.28099298477	408.0	-235.0	None	None	0
3.0.1	2019_Mar_07_1326	s	s	11	1	SIC	34	4_4	4	4	1	2	23_1_2	3	2	1	0	0.559416055679	-216.0	-343.0	-206.0	-342.0	1
3.0.1	2019_Mar_07_1326	s	s	11	1	SIC	35	ABS	0	0	4	1	24_4_1	NA	NA	0	1	1.93336606026	None	None	None	None	1
3.0.1	2019_Mar_07_1326	s	s	11	1	SIC	36	2_1	2	1	4	3	23_4_3	2	2	1	0	0.575644016266	481.0	-173.0	484.0	-167.0	1
3.0.1	2019_Mar_07_1326	s	s	11	1	SIC	37	3_3	3	3	1	1	23_1_1	2	2	1	0	0.763844966888	55.0	-9.0	58.0	-5.0	1
3.0.1	2019_Mar_07_1326	s	s	11	1	SIC	38	ABS	0	0	1	3	24_1_3	NA	NA	0	1	2.2548789978	None	None	None	None	1
3.0.1	2019_Mar_07_1326	s	s	11	1	SIC	39	ABS	0	0	4	1	24_4_1	NA	NA	0	1	0.987255096436	None	None	None	None	1
3.0.1	2019_Mar_07_1326	s	s	11	1	SIC	40	2_3	2	3	4	1	23_4_1	2	2	1	0	0.607454061508	99.0	-180.0	97.0	-175.0	1
3.0.1	2019_Mar_07_1326	s	s	11	1	SIC	41	ABS	0	0	4	4	24_4_4	NA	NA	0	1	1.63964891434	None	None	None	None	1
3.0.1	2019_Mar_07_1326	s	s	11	1	SIC	42	2_4	2	4	4	1	23_4_1	2	3	1	0	0.64618897438	504.0	-138.0	498.0	-128.0	1
3.0.1	2019_Mar_07_1326	s	s	11	1	SIC	43	ABS	0	0	1	4	24_1_4	NA	NA	0	1	1.89766192436	None	None	None	None	1
3.0.1	2019_Mar_07_1326	s	s	11	1	SIC	44	4_2	4	2	3	1	23_3_1	1	-1	1	0	0.591310977936	-283.0	337.0	-286.0	335.0	1
3.0.1	2019_Mar_07_1326	s	s	11	1	SIC	45	2_4	2	4	1	1	23_1_1	-1	3	1	0	0.916780948639	140.0	-392.0	144.0	-388.0	1
3.0.1	2019_Mar_07_1326	s	s	11	1	SIC	46	ABS	0	0	4	2	24_4_2	NA	NA	0	1	2.26443219185	None	None	None	None	1
3.0.1	2019_Mar_07_1326	s	s	11	1	SIC	47	ABS	0	0	1	1	24_1_1	NA	NA	0	1	1.93285918236	None	None	None	None	1
3.0.1	2019_Mar_07_1326	s	s	11	1	SIC	48	ABS	0	0	4	3	24_4_3	NA	NA	0	1	1.86936616898	None	None	None	None	1
3.0.1	2019_Mar_07_1326	s	s	11	1	SIC	49	ABS	0	0	3	1	24_3_1	NA	NA	0	1	1.78987598419	None	None	None	None	1
3.0.1	2019_Mar_07_1326	s	s	11	1	SIC	50	3_4	3	4	4	4	23_4_4	-1	0	1	0	0.731422901154	-329.0	-260.0	-323.0	-255.0	1
3.0.1	2019_Mar_07_1326	s	s	11	1	SIC	51	ABS	0	0	3	2	24_3_2	NA	NA	0	1	2.72225785255	None	None	None	None	1
3.0.1	2019_Mar_07_1326	s	s	11	1	SIC	52	ABS	0	0	3	2	24_3_2	NA	NA	0	1	1.51660394669	None	None	None	None	1
3.0.1	2019_Mar_07_1326	s	s	11	1	SIC	53	ABS	0	0	2	1	24_2_1	NA	NA	0	1	1.7910721302	None	None	None	None	1
3.0.1	2019_Mar_07_1326	s	s	11	1	SIC	54	2_3	2	3	4	3	23_4_3	2	0	1	0	0.602010011673	448.0	142.0	448.0	144.0	1
3.0.1	2019_Mar_07_1326	s	s	11	1	SIC	55	2_1	2	1	3	1	23_3_1	1	0	1	0	1.0254099369	-250.0	62.0	-244.0	54.0	1
3.0.1	2019_Mar_07_1326	s	s	11	1	SIC	56	ABS	0	0	2	4	24_2_4	NA	NA	0	1	1.76355981827	None	None	None	None	1
3.0.1	2019_Mar_07_1326	s	s	11	1	SIC	57	2_3	2	3	1	1	23_1_1	-1	2	1	0	1.06153392792	-293.0	-206.0	-294.0	-202.0	1
3.0.1	2019_Mar_07_1326	s	s	11	1	SIC	58	ABS	0	0	1	1	24_1_1	NA	NA	0	1	2.62203788757	None	None	None	None	1
3.0.1	2019_Mar_07_1326	s	s	11	1	SIC	59	3_4	3	4	2	1	23_2_1	1	3	1	0	0.599127054214	-37.0	4.0	-32.0	4.0	1
3.0.1	2019_Mar_07_1326	s	s	11	1	SIC	60	ABS	0	0	4	4	24_4_4	NA	NA	0	1	1.37825489044	None	None	None	None	1
3.0.1	2019_Mar_07_1326	s	s	11	1	SIC	61	ABS	0	0	4	4	24_4_4	NA	NA	0	1	1.03109002113	None	None	None	None	1
3.0.1	2019_Mar_07_1326	s	s	11	1	SIC	62	3_1	3	1	4	3	23_4_3	-1	2	1	0	0.752015113831	-255.0	-311.0	-242.0	-307.0	1
3.0.1	2019_Mar_07_1326	s	s	11	1	SIC	63	ABS	0	0	4	1	24_4_1	NA	NA	0	1	0.637969970703	None	None	None	None	1
3.0.1	2019_Mar_07_1326	s	s	11	1	SIC	64	1_3	1	3	3	3	23_3_3	2	0	1	0	0.575661182404	-276.0	-161.0	-269.0	-156.0	1
3.0.1	2019_Mar_07_1326	s	s	11	1	SIC	65	3_3	3	3	4	4	23_4_4	-1	-1	1	0	0.554912090302	-104.0	-145.0	-93.0	-140.0	1
3.0.1	2019_Mar_07_1326	s	s	11	1	SIC	66	3_3	3	3	2	1	23_2_1	1	2	1	0	0.555010080338	159.0	104.0	162.0	105.0	1
3.0.1	2019_Mar_07_1326	s	s	11	1	SIC	67	3_1	3	1	1	3	23_1_3	2	2	1	0	0.663067817688	-507.0	-360.0	-498.0	-351.0	1
3.0.1	2019_Mar_07_1326	s	s	11	1	SIC	68	ABS	0	0	1	4	24_1_4	NA	NA	0	1	1.13404393196	None	None	None	None	1
3.0.1	2019_Mar_07_1326	s	s	11	1	SIC	69	ABS	0	0	4	4	24_4_4	NA	NA	0	1	1.09129405022	None	None	None	None	1
3.0.1	2019_Mar_07_1326	s	s	11	1	SIC	70	2_4	2	4	3	2	23_3_2	1	2	1	0	0.857848167419	-215.0	-161.0	-209.0	-167.0	1
3.0.1	2019_Mar_07_1326	s	s	11	1	SIC	71	1_1	1	1	2	3	23_2_3	1	2	0	1	2.70962095261	-89.0	312.0	None	None	0
3.0.1	2019_Mar_07_1326	s	s	11	1	SIC	72	ABS	0	0	4	3	24_4_3	NA	NA	0	1	1.0641450882	None	None	None	None	1
3.0.1	2019_Mar_07_1326	s	s	11	1	SIC	73	ABS	0	0	1	1	24_1_1	NA	NA	0	1	1.63888406754	None	None	None	None	1
3.0.1	2019_Mar_07_1326	s	s	11	1	SIC	74	ABS	0	0	2	3	24_2_3	NA	NA	0	1	0.775577068329	None	None	None	None	1
3.0.1	2019_Mar_07_1326	s	s	11	1	SIC	75	2_3	2	3	3	4	23_3_4	1	-1	1	0	1.06962990761	251.0	311.0	257.0	313.0	1
3.0.1	2019_Mar_07_1326	s	s	11	1	SIC	76	2_1	2	1	1	2	23_1_2	-1	1	0	1	1.56840109825	63.0	2.0	None	None	0
3.0.1	2019_Mar_07_1326	s	s	11	1	SIC	77	3_2	3	2	3	3	23_3_3	0	1	0	1	1.79000520706	-353.0	300.0	None	None	0
3.0.1	2019_Mar_07_1326	s	s	11	1	SIC	78	2_3	2	3	1	2	23_1_2	-1	1	0	1	1.5988919735	-325.0	-387.0	None	None	0
3.0.1	2019_Mar_07_1326	s	s	11	1	SIC	79	2_1	2	1	1	3	23_1_3	-1	2	1	0	0.966633081436	327.0	-64.0	332.0	-65.0	1
3.0.1	2019_Mar_07_1326	s	s	11	1	SIC	80	ABS	0	0	4	1	24_4_1	NA	NA	0	1	1.01960301399	None	None	None	None	1
3.0.1	2019_Mar_07_1326	s	s	11	1	SIC	81	4_2	4	2	2	4	23_2_4	2	2	1	0	0.752048015594	428.0	-364.0	416.0	-361.0	1
3.0.1	2019_Mar_07_1326	s	s	11	1	SIC	82	3_3	3	3	2	4	23_2_4	1	-1	1	0	0.65799498558	-448.0	-53.0	-447.0	-45.0	1
3.0.1	2019_Mar_07_1326	s	s	11	1	SIC	83	1_3	1	3	4	1	23_4_1	3	2	1	0	1.01539707184	504.0	-194.0	511.0	-190.0	1
3.0.1	2019_Mar_07_1326	s	s	11	1	SIC	84	ABS	0	0	4	1	24_4_1	NA	NA	0	1	0.896062850952	None	None	None	None	1
3.0.1	2019_Mar_07_1326	s	s	11	1	SIC	85	ABS	0	0	4	4	24_4_4	NA	NA	0	1	1.50989890099	None	None	None	None	1
3.0.1	2019_Mar_07_1326	s	s	11	1	SIC	86	ABS	0	0	3	2	24_3_2	NA	NA	0	1	0.940223932266	None	None	None	None	1
3.0.1	2019_Mar_07_1326	s	s	11	1	SIC	87	1_1	1	1	2	1	23_2_1	1	0	0	1	0.958411216736	139.0	-181.0	None	None	0
3.0.1	2019_Mar_07_1326	s	s	11	1	SIC	88	2_3	2	3	3	2	23_3_2	1	1	1	0	0.811165809631	-207.0	-183.0	-219.0	-173.0	1
3.0.1	2019_Mar_07_1326	s	s	11	1	SIC	89	ABS	0	0	3	4	24_3_4	NA	NA	0	1	1.14880108833	None	None	None	None	1
3.0.1	2019_Mar_07_1326	s	s	11	1	SIC	90	ABS	0	0	1	4	24_1_4	NA	NA	0	1	0.899777889252	None	None	None	None	1
3.0.1	2019_Mar_07_1326	s	s	11	1	SIC	91	ABS	0	0	3	1	24_3_1	NA	NA	0	1	1.0900747776	None	None	None	None	1
3.0.1	2019_Mar_07_1326	s	s	11	1	SIC	92	ABS	0	0	2	3	24_2_3	NA	NA	0	1	2.60146284103	None	None	None	None	1
3.0.1	2019_Mar_07_1326	s	s	11	1	SIC	93	ABS	0	0	4	3	24_4_3	NA	NA	0	1	1.11661505699	None	None	None	None	1
3.0.1	2019_Mar_07_1326	s	s	11	1	SIC	94	2_1	2	1	2	2	23_2_2	0	1	0	1	2.01049995422	-431.0	261.0	None	None	0
3.0.1	2019_Mar_07_1326	s	s	11	1	SIC	95	ABS	0	0	2	1	24_2_1	NA	NA	0	1	1.78039288521	None	None	None	None	1
3.0.1	2019_Mar_07_1326	s	s	11	1	SIC	96	ABS	0	0	4	1	24_4_1	NA	NA	0	1	1.3687980175	None	None	None	None	1
3.0.1	2019_Mar_07_1326	s	s	11	1	SIC	97	ABS	0	0	3	2	24_3_2	NA	NA	0	1	2.57503604889	None	None	None	None	1
3.0.1	2019_Mar_07_1326	s	s	11	1	SIC	98	1_2	1	2	3	4	23_3_4	2	2	1	0	0.673623085022	-404.0	381.0	-397.0	383.0	1
3.0.1	2019_Mar_07_1326	s	s	11	1	SIC	99	4_4	4	4	4	3	23_4_3	0	1	1	0	1.15618300438	184.0	126.0	182.0	129.0	1
3.0.1	2019_Mar_07_1326	s	s	11	1	SIC	100	4_1	4	1	4	3	23_4_3	0	2	1	0	1.46940302849	25.0	-177.0	31.0	-173.0	1
3.0.1	2019_Mar_07_1326	s	s	11	1	SIC	101	ABS	0	0	2	2	24_2_2	NA	NA	0	1	2.27322602272	None	None	None	None	1
3.0.1	2019_Mar_07_1326	s	s	11	1	SIC	102	ABS	0	0	2	3	24_2_3	NA	NA	0	1	1.82228899002	None	None	None	None	1
3.0.1	2019_Mar_07_1326	s	s	11	1	SIC	103	ABS	0	0	4	3	24_4_3	NA	NA	0	1	3.63348007202	None	None	None	None	1
3.0.1	2019_Mar_07_1326	s	s	11	1	SIC	104	ABS	0	0	1	2	24_1_2	NA	NA	0	1	4.35766410828	None	None	None	None	1
3.0.1	2019_Mar_07_1326	s	s	11	1	SIC	105	ABS	0	0	4	4	24_4_4	NA	NA	0	1	1.7517478466	None	None	None	None	1
3.0.1	2019_Mar_07_1326	s	s	11	1	SIC	106	4_4	4	4	2	3	23_2_3	2	1	1	0	0.61381816864	-267.0	252.0	-270.0	253.0	1
3.0.1	2019_Mar_07_1326	s	s	11	1	SIC	107	ABS	0	0	4	3	24_4_3	NA	NA	0	1	1.29303193092	None	None	None	None	1
3.0.1	2019_Mar_07_1326	s	s	11	1	SIC	108	ABS	0	0	4	1	24_4_1	NA	NA	0	1	1.48138284683	None	None	None	None	1
3.0.1	2019_Mar_07_1326	s	s	11	1	SIC	109	4_3	4	3	2	3	23_2_3	2	0	1	0	0.587400197983	411.0	87.0	418.0	89.0	1
3.0.1	2019_Mar_07_1326	s	s	11	1	SIC	110	ABS	0	0	3	3	24_3_3	NA	NA	0	1	1.86935305595	None	None	None	None	1
3.0.1	2019_Mar_07_1326	s	s	11	1	SIC	111	3_3	3	3	1	2	23_1_2	2	1	1	0	0.728514194489	-367.0	-166.0	-375.0	-163.0	1
3.0.1	2019_Mar_07_1326	s	s	11	1	SIC	112	4_3	4	3	1	2	23_1_2	3	1	1	0	0.568936109543	-76.0	-262.0	-78.0	-259.0	1
3.0.1	2019_Mar_07_1326	s	s	11	1	SIC	113	ABS	0	0	3	3	24_3_3	NA	NA	0	1	1.66157388687	None	None	None	None	1
3.0.1	2019_Mar_07_1326	s	s	11	1	SIC	114	ABS	0	0	2	1	24_2_1	NA	NA	0	1	1.43930006027	None	None	None	None	1
3.0.1	2019_Mar_07_1326	s	s	11	1	SIC	115	3_3	3	3	3	4	23_3_4	0	-1	1	0	1.0264980793	-243.0	41.0	-237.0	40.0	1
3.0.1	2019_Mar_07_1326	s	s	11	1	SIC	116	ABS	0	0	2	2	24_2_2	NA	NA	0	1	3.04062700272	None	None	None	None	1
3.0.1	2019_Mar_07_1326	s	s	11	1	SIC	117	ABS	0	0	1	3	24_1_3	NA	NA	0	1	1.83407592773	None	None	None	None	1
3.0.1	2019_Mar_07_1326	s	s	11	1	SIC	118	4_3	4	3	3	4	23_3_4	1	-1	1	0	0.944627046585	530.0	344.0	529.0	345.0	1
3.0.1	2019_Mar_07_1326	s	s	11	1	SIC	119	3_3	3	3	4	2	23_4_2	-1	1	1	0	0.705013036728	-139.0	-197.0	-137.0	-190.0	1
3.0.1	2019_Mar_07_1326	s	s	11	1	SIC	120	2_4	2	4	2	3	23_2_3	0	1	1	0	2.30744600296	-463.0	73.0	33.0	223.0	0
3.0.1	2019_Mar_07_1326	s	s	11	1	SIC	121	ABS	0	0	3	1	24_3_1	NA	NA	0	1	1.03472805023	None	None	None	None	1
3.0.1	2019_Mar_07_1326	s	s	11	1	SIC	122	3_2	3	2	2	3	23_2_3	1	1	1	0	0.874120950699	110.0	224.0	108.0	219.0	1
3.0.1	2019_Mar_07_1326	s	s	11	1	SIC	123	2_4	2	4	2	1	23_2_1	0	3	1	0	0.716794967651	230.0	318.0	218.0	323.0	1
3.0.1	2019_Mar_07_1326	s	s	11	1	SIC	124	ABS	0	0	2	1	24_2_1	NA	NA	0	1	1.26720404625	None	None	None	None	1
3.0.1	2019_Mar_07_1326	s	s	11	1	SIC	125	3_1	3	1	3	4	23_3_4	0	3	1	0	1.24605584145	-95.0	-254.0	-102.0	-252.0	1
3.0.1	2019_Mar_07_1326	s	s	11	1	SIC	126	3_4	3	4	1	1	23_1_1	2	3	1	0	0.66445684433	-478.0	-227.0	-483.0	-227.0	1
3.0.1	2019_Mar_07_1326	s	s	11	1	SIC	127	ABS	0	0	3	2	24_3_2	NA	NA	0	1	1.86266517639	None	None	None	None	1
3.0.1	2019_Mar_07_1326	s	s	11	1	SIC	128	ABS	0	0	1	1	24_1_1	NA	NA	0	1	1.31943893433	None	None	None	None	1
3.0.1	2019_Mar_07_1326	s	s	11	1	SIC	129	ABS	0	0	3	4	24_3_4	NA	NA	0	1	1.26413393021	None	None	None	None	1
3.0.1	2019_Mar_07_1326	s	s	11	1	SIC	130	2_4	2	4	4	3	23_4_3	2	1	1	0	0.725631952286	289.0	132.0	301.0	140.0	1
3.0.1	2019_Mar_07_1326	s	s	11	1	SIC	131	1_1	1	1	1	3	23_1_3	0	2	1	0	1.86929988861	52.0	-298.0	49.0	-298.0	1
3.0.1	2019_Mar_07_1326	s	s	11	1	SIC	132	ABS	0	0	4	4	24_4_4	NA	NA	0	1	1.6312789917	None	None	None	None	1
3.0.1	2019_Mar_07_1326	s	s	11	1	SIC	133	ABS	0	0	2	2	24_2_2	NA	NA	0	1	2.22213697433	None	None	None	None	1
3.0.1	2019_Mar_07_1326	s	s	11	1	SIC	134	2_3	2	3	4	2	23_4_2	2	1	1	0	0.599435091019	318.0	34.0	323.0	35.0	1
3.0.1	2019_Mar_07_1326	s	s	11	1	SIC	135	1_2	1	2	1	4	23_1_4	0	2	1	0	1.03870201111	-197.0	-293.0	-195.0	-295.0	1
3.0.1	2019_Mar_07_1326	s	s	11	1	SIC	136	3_2	3	2	3	1	23_3_1	0	-1	0	1	1.04596304893	-375.0	-320.0	None	None	0
3.0.1	2019_Mar_07_1326	s	s	11	1	SIC	137	1_1	1	1	2	4	23_2_4	1	3	1	0	0.704930067062	-257.0	391.0	-265.0	397.0	1
3.0.1	2019_Mar_07_1326	s	s	11	1	SIC	138	ABS	0	0	4	1	24_4_1	NA	NA	0	1	0.839555978775	None	None	None	None	1
3.0.1	2019_Mar_07_1326	s	s	11	1	SIC	139	2_2	2	2	2	4	23_2_4	0	2	1	0	1.11668205261	-490.0	-172.0	-488.0	-175.0	1
3.0.1	2019_Mar_07_1326	s	s	11	1	SIC	140	ABS	0	0	1	2	24_1_2	NA	NA	0	1	2.42788696289	None	None	None	None	1
3.0.1	2019_Mar_07_1326	s	s	11	1	SIC	141	4_4	4	4	2	2	23_2_2	2	2	1	0	0.65798997879	222.0	112.0	220.0	119.0	1
3.0.1	2019_Mar_07_1326	s	s	11	1	SIC	142	ABS	0	0	1	3	24_1_3	NA	NA	0	1	1.29713106155	None	None	None	None	1
3.0.1	2019_Mar_07_1326	s	s	11	1	SIC	143	ABS	0	0	4	2	24_4_2	NA	NA	0	1	0.853656053543	None	None	None	None	1
3.0.1	2019_Mar_07_1326	s	s	11	1	SIC	144	1_1	1	1	4	1	23_4_1	3	0	1	0	0.622720956802	-147.0	194.0	-150.0	198.0	1
3.0.1	2019_Mar_07_1326	s	s	11	1	SIC	145	1_2	1	2	4	2	23_4_2	3	0	1	0	0.681399106979	-194.0	-318.0	-185.0	-317.0	1
3.0.1	2019_Mar_07_1326	s	s	11	1	SIC	146	ABS	0	0	1	3	24_1_3	NA	NA	0	1	1.41058707237	None	None	None	None	1
3.0.1	2019_Mar_07_1326	s	s	11	1	SIC	147	ABS	0	0	2	1	24_2_1	NA	NA	0	1	1.222468853	None	None	None	None	1
3.0.1	2019_Mar_07_1326	s	s	11	1	SIC	148	3_1	3	1	3	2	23_3_2	0	1	0	1	0.763806819916	37.0	338.0	None	None	0
3.0.1	2019_Mar_07_1326	s	s	11	1	SIC	149	ABS	0	0	3	2	24_3_2	NA	NA	0	1	1.02542519569	None	None	None	None	1
3.0.1	2019_Mar_07_1326	s	s	11	1	SIC	150	4_1	4	1	1	1	23_1_1	3	0	1	0	0.721974134445	-464.0	-411.0	-466.0	-413.0	1
3.0.1	2019_Mar_07_1326	s	s	11	1	SIC	151	ABS	0	0	1	1	24_1_1	NA	NA	0	1	1.54494786263	None	None	None	None	1
3.0.1	2019_Mar_07_1326	s	s	11	1	SIC	152	ABS	0	0	1	1	24_1_1	NA	NA	0	1	0.775568008423	None	None	None	None	1
3.0.1	2019_Mar_07_1326	s	s	11	1	SIC	153	4_2	4	2	4	1	23_4_1	0	-1	0	1	0.710199117661	-345.0	375.0	None	None	0
3.0.1	2019_Mar_07_1326	s	s	11	1	SIC	154	ABS	0	0	3	2	24_3_2	NA	NA	0	1	1.19897913933	None	None	None	None	1
3.0.1	2019_Mar_07_1326	s	s	11	1	SIC	155	ABS	0	0	4	2	24_4_2	NA	NA	0	1	0.775830030441	None	None	None	None	1
3.0.1	2019_Mar_07_1326	s	s	11	1	SIC	156	ABS	0	0	3	3	24_3_3	NA	NA	0	1	0.956836938858	None	None	None	None	1
3.0.1	2019_Mar_07_1326	s	s	11	1	SIC	157	2_2	2	2	4	3	23_4_3	2	1	1	0	0.669775009155	-35.0	-264.0	-26.0	-262.0	1
3.0.1	2019_Mar_07_1326	s	s	11	1	SIC	158	2_2	2	2	1	1	23_1_1	-1	-1	0	1	1.0461139679	141.0	-164.0	None	None	0
3.0.1	2019_Mar_07_1326	s	s	11	1	SIC	159	ABS	0	0	1	3	24_1_3	NA	NA	0	1	1.58709001541	None	None	None	None	1
3.0.1	2019_Mar_07_1326	s	s	11	1	SIC	160	ABS	0	0	1	1	24_1_1	NA	NA	0	1	1.14307689667	None	None	None	None	1
3.0.1	2019_Mar_07_1326	s	s	11	1	SIC	161	4_1	4	1	3	2	23_3_2	1	1	1	0	0.913458108902	242.0	-326.0	247.0	-326.0	1
3.0.1	2019_Mar_07_1326	s	s	11	1	SIC	162	ABS	0	0	3	3	24_3_3	NA	NA	0	1	1.81048202515	None	None	None	None	1
3.0.1	2019_Mar_07_1326	s	s	11	1	SIC	163	2_1	2	1	4	4	23_4_4	2	3	1	0	0.540499925613	-423.0	31.0	-418.0	28.0	1
3.0.1	2019_Mar_07_1326	s	s	11	1	SIC	164	ABS	0	0	1	3	24_1_3	NA	NA	0	1	1.6766371727	None	None	None	None	1
3.0.1	2019_Mar_07_1326	s	s	11	1	SIC	165	ABS	0	0	1	4	24_1_4	NA	NA	0	1	1.49681282043	None	None	None	None	1
3.0.1	2019_Mar_07_1326	s	s	11	1	SIC	166	ABS	0	0	2	1	24_2_1	NA	NA	0	1	1.57527208328	None	None	None	None	1
3.0.1	2019_Mar_07_1326	s	s	11	1	SIC	167	ABS	0	0	3	3	24_3_3	NA	NA	0	1	1.98692393303	None	None	None	None	1
3.0.1	2019_Mar_07_1326	s	s	11	1	SIC	168	1_1	1	1	3	1	23_3_1	2	0	1	0	0.872447013855	260.0	-229.0	266.0	-220.0	1
3.0.1	2019_Mar_07_1326	s	s	11	1	SIC	169	ABS	0	0	4	2	24_4_2	NA	NA	0	1	2.51615405083	None	None	None	None	1
3.0.1	2019_Mar_07_1326	s	s	11	1	SIC	170	4_3	4	3	2	2	23_2_2	2	1	1	0	0.666146993637	483.0	93.0	477.0	96.0	1
3.0.1	2019_Mar_07_1326	s	s	11	1	SIC	171	ABS	0	0	3	3	24_3_3	NA	NA	0	1	1.63409805298	None	None	None	None	1
3.0.1	2019_Mar_07_1326	s	s	11	1	SIC	172	2_2	2	2	3	2	23_3_2	1	0	1	0	0.895990133286	163.0	398.0	158.0	397.0	1
3.0.1	2019_Mar_07_1326	s	s	11	1	SIC	173	3_2	3	2	2	2	23_2_2	1	0	1	0	0.944132804871	-123.0	-186.0	-115.0	-182.0	1
3.0.1	2019_Mar_07_1326	s	s	11	1	SIC	174	4_2	4	2	4	3	23_4_3	0	1	0	1	1.63408899307	-215.0	329.0	None	None	0
3.0.1	2019_Mar_07_1326	s	s	11	1	SIC	175	2_4	2	4	3	4	23_3_4	1	0	1	0	0.693211078644	533.0	254.0	540.0	258.0	1
3.0.1	2019_Mar_07_1326	s	s	11	1	SIC	176	ABS	0	0	1	2	24_1_2	NA	NA	0	1	3.12087392807	None	None	None	None	1
3.0.1	2019_Mar_07_1326	s	s	11	1	SIC	177	3_1	3	1	1	2	23_1_2	2	1	1	0	0.738586902618	-79.0	-37.0	-80.0	-32.0	1
3.0.1	2019_Mar_07_1326	s	s	11	1	SIC	178	ABS	0	0	2	2	24_2_2	NA	NA	0	1	3.65708112717	None	None	None	None	1
3.0.1	2019_Mar_07_1326	s	s	11	1	SIC	179	3_1	3	1	4	2	23_4_2	-1	1	1	0	0.767544031143	-127.0	-90.0	-121.0	-82.0	1
3.0.1	2019_Mar_07_1326	s	s	11	1	SIC	180	ABS	0	0	1	3	24_1_3	NA	NA	0	1	2.63380980492	None	None	None	None	1
3.0.1	2019_Mar_07_1326	s	s	11	1	SIC	181	ABS	0	0	3	1	24_3_1	NA	NA	0	1	1.05784797668	None	None	None	None	1
3.0.1	2019_Mar_07_1326	s	s	11	1	SIC	182	ABS	0	0	4	1	24_4_1	NA	NA	0	1	0.86967086792	None	None	None	None	1
3.0.1	2019_Mar_07_1326	s	s	11	1	SIC	183	ABS	0	0	2	4	24_2_4	NA	NA	0	1	1.14312291145	None	None	None	None	1
3.0.1	2019_Mar_07_1326	s	s	11	1	SIC	184	3_3	3	3	3	1	23_3_1	0	2	1	0	1.19010686874	-443.0	55.0	-449.0	48.0	1
3.0.1	2019_Mar_07_1326	s	s	11	1	SIC	185	1_2	1	2	4	1	23_4_1	3	-1	1	0	0.67255115509	308.0	291.0	307.0	293.0	1
3.0.1	2019_Mar_07_1326	s	s	11	1	SIC	186	2_1	2	1	4	2	23_4_2	2	1	1	0	0.543215990067	-71.0	227.0	-69.0	229.0	1
3.0.1	2019_Mar_07_1326	s	s	11	1	SIC	187	2_4	2	4	3	1	23_3_1	1	3	1	0	0.568544864655	334.0	337.0	338.0	327.0	1
3.0.1	2019_Mar_07_1326	s	s	11	1	SIC	188	ABS	0	0	1	4	24_1_4	NA	NA	0	1	1.03943800926	None	None	None	None	1
3.0.1	2019_Mar_07_1326	s	s	11	1	SIC	189	4_2	4	2	3	3	23_3_3	1	1	1	0	0.622638940811	-394.0	-345.0	-396.0	-344.0	1
3.0.1	2019_Mar_07_1326	s	s	11	1	SIC	190	3_3	3	3	4	3	23_4_3	-1	0	1	0	0.555004119873	-151.0	25.0	-143.0	27.0	1
3.0.1	2019_Mar_07_1326	s	s	11	1	SIC	191	ABS	0	0	2	2	24_2_2	NA	NA	0	1	2.53162503242	None	None	None	None	1
3.0.1	2019_Mar_07_1326	s	s	11	1	SIC	192	ABS	0	0	2	3	24_2_3	NA	NA	0	1	2.4104719162	None	None	None	None	1
3.0.1	2019_Mar_07_1326	s	s	11	1	SIC	193	ABS	0	0	1	2	24_1_2	NA	NA	0	1	3.41002392769	None	None	None	None	1
3.0.1	2019_Mar_07_1326	s	s	11	1	SIC	194	3_2	3	2	4	3	23_4_3	-1	1	1	0	2.03407502174	-87.0	-34.0	-85.0	-34.0	1
3.0.1	2019_Mar_07_1326	s	s	11	1	SIC	195	ABS	0	0	4	3	24_4_3	NA	NA	0	1	1.34523916245	None	None	None	None	1
3.0.1	2019_Mar_07_1326	s	s	11	1	SIC	196	4_2	4	2	4	4	23_4_4	0	2	1	0	0.657931089401	-13.0	232.0	-10.0	234.0	1
3.0.1	2019_Mar_07_1326	s	s	11	1	SIC	197	1_2	1	2	2	3	23_2_3	1	1	0	1	2.20155501366	-372.0	-185.0	None	None	0
3.0.1	2019_Mar_07_1326	s	s	11	1	SIC	198	ABS	0	0	2	2	24_2_2	NA	NA	0	1	3.39199709892	None	None	None	None	1
3.0.1	2019_Mar_07_1326	s	s	11	1	SIC	199	1_4	1	4	1	3	23_1_3	0	1	1	0	1.11662912369	375.0	158.0	376.0	159.0	1
3.0.1	2019_Mar_07_1326	s	s	11	1	SIC	200	3_3	3	3	2	2	23_2_2	1	1	1	0	0.916752815247	501.0	271.0	496.0	275.0	1
3.0.1	2019_Mar_07_1326	s	s	11	1	SIC	201	3_2	3	2	1	2	23_1_2	2	0	1	0	0.604546785355	-123.0	-141.0	-118.0	-147.0	1
3.0.1	2019_Mar_07_1326	s	s	11	1	SIC	202	1_2	1	2	4	4	23_4_4	3	2	1	0	0.528609991074	-159.0	-298.0	-158.0	-307.0	1
3.0.1	2019_Mar_07_1326	s	s	11	1	SIC	203	ABS	0	0	2	4	24_2_4	NA	NA	0	1	1.89329504967	None	None	None	None	1
3.0.1	2019_Mar_07_1326	s	s	11	1	SIC	204	ABS	0	0	1	3	24_1_3	NA	NA	0	1	2.33290910721	None	None	None	None	1
3.0.1	2019_Mar_07_1326	s	s	11	1	SIC	205	1_1	1	1	4	2	23_4_2	3	1	1	0	0.627531051636	-230.0	-374.0	-234.0	-368.0	1
3.0.1	2019_Mar_07_1326	s	s	11	1	SIC	206	ABS	0	0	4	4	24_4_4	NA	NA	0	1	1.75174593925	None	None	None	None	1
3.0.1	2019_Mar_07_1326	s	s	11	1	SIC	207	ABS	0	0	1	1	24_1_1	NA	NA	0	1	1.42734909058	None	None	None	None	1
3.0.1	2019_Mar_07_1326	s	s	11	1	SIC	208	ABS	0	0	2	4	24_2_4	NA	NA	0	1	1.57535505295	None	None	None	None	1
3.0.1	2019_Mar_07_1326	s	s	11	1	SIC	209	3_3	3	3	2	3	23_2_3	1	0	1	0	0.952033042908	-344.0	-191.0	-352.0	-194.0	1
3.0.1	2019_Mar_07_1326	s	s	11	1	SIC	210	4_1	4	1	2	3	23_2_3	2	2	1	0	1.77528691292	-410.0	50.0	-401.0	54.0	1
3.0.1	2019_Mar_07_1326	s	s	11	1	SIC	211	ABS	0	0	2	2	24_2_2	NA	NA	0	1	1.48132991791	None	None	None	None	1
3.0.1	2019_Mar_07_1326	s	s	11	1	SIC	212	3_1	3	1	1	1	23_1_1	2	0	1	0	0.622609853745	-200.0	193.0	-202.0	191.0	1
3.0.1	2019_Mar_07_1326	s	s	11	1	SIC	213	ABS	0	0	2	3	24_2_3	NA	NA	0	1	1.31947803497	None	None	None	None	1
3.0.1	2019_Mar_07_1326	s	s	11	1	SIC	214	3_4	3	4	1	3	23_1_3	2	1	1	0	0.605924129486	-249.0	386.0	-245.0	393.0	1
3.0.1	2019_Mar_07_1326	s	s	11	1	SIC	215	4_1	4	1	1	3	23_1_3	3	2	1	0	0.528562068939	-405.0	94.0	-405.0	86.0	1
3.0.1	2019_Mar_07_1326	s	s	11	1	SIC	216	2_1	2	1	4	1	23_4_1	2	0	1	0	0.64616394043	384.0	143.0	386.0	141.0	1
3.0.1	2019_Mar_07_1326	s	s	11	1	SIC	217	1_3	1	3	4	4	23_4_4	3	-1	1	0	0.507844924927	473.0	378.0	461.0	387.0	1
3.0.1	2019_Mar_07_1326	s	s	11	1	SIC	218	3_2	3	2	4	4	23_4_4	-1	2	1	0	0.545636892319	-498.0	-212.0	-490.0	-212.0	1
3.0.1	2019_Mar_07_1326	s	s	11	1	SIC	219	ABS	0	0	1	2	24_1_2	NA	NA	0	1	2.25181317329	None	None	None	None	1
3.0.1	2019_Mar_07_1326	s	s	11	1	SIC	220	ABS	0	0	3	2	24_3_2	NA	NA	0	1	1.6341240406	None	None	None	None	1
3.0.1	2019_Mar_07_1326	s	s	11	1	SIC	221	3_3	3	3	1	3	23_1_3	2	0	1	0	0.619868993759	154.0	-173.0	158.0	-168.0	1
3.0.1	2019_Mar_07_1326	s	s	11	1	SIC	222	ABS	0	0	4	4	24_4_4	NA	NA	0	1	1.99049711227	None	None	None	None	1
3.0.1	2019_Mar_07_1326	s	s	11	1	SIC	223	ABS	0	0	1	4	24_1_4	NA	NA	0	1	1.62779808044	None	None	None	None	1
3.0.1	2019_Mar_07_1326	s	s	11	1	SIC	224	4_1	4	1	1	2	23_1_2	3	1	1	0	0.485454082489	-162.0	27.0	-159.0	13.0	1
3.0.1	2019_Mar_07_1326	s	s	11	1	SIC	225	4_1	4	1	2	1	23_2_1	2	0	1	0	0.48752117157	-31.0	280.0	-28.0	274.0	1
3.0.1	2019_Mar_07_1326	s	s	11	1	SIC	226	ABS	0	0	2	1	24_2_1	NA	NA	0	1	1.73110604286	None	None	None	None	1
3.0.1	2019_Mar_07_1326	s	s	11	1	SIC	227	1_3	1	3	2	4	23_2_4	1	-1	1	0	1.54003500938	479.0	-405.0	479.0	-411.0	1
3.0.1	2019_Mar_07_1326	s	s	11	1	SIC	228	1_4	1	4	2	4	23_2_4	1	0	0	1	1.73995304108	424.0	321.0	None	None	0
3.0.1	2019_Mar_07_1326	s	s	11	1	SIC	229	1_1	1	1	4	4	23_4_4	3	3	1	0	0.611030817032	-355.0	202.0	-365.0	202.0	1
3.0.1	2019_Mar_07_1326	s	s	11	1	SIC	230	2_2	2	2	3	1	23_3_1	1	-1	1	0	0.928428888321	-135.0	-160.0	-126.0	-158.0	1
3.0.1	2019_Mar_07_1326	s	s	11	1	SIC	231	1_4	1	4	3	1	23_3_1	2	3	1	0	0.559515953064	37.0	-97.0	32.0	-91.0	1
3.0.1	2019_Mar_07_1326	s	s	11	1	SIC	232	1_3	1	3	1	1	23_1_1	0	2	1	0	0.966607093811	-220.0	-134.0	-215.0	-132.0	1
3.0.1	2019_Mar_07_1326	s	s	11	1	SIC	233	1_2	1	2	1	1	23_1_1	0	-1	0	1	1.75521588326	77.0	-101.0	None	None	0
3.0.1	2019_Mar_07_1326	s	s	11	1	SIC	234	4_2	4	2	2	1	23_2_1	2	-1	1	0	0.505021810532	-487.0	-117.0	-491.0	-115.0	1
3.0.1	2019_Mar_07_1326	s	s	11	1	SIC	235	4_4	4	4	4	2	23_4_2	0	2	1	0	0.587353944778	-19.0	-81.0	-13.0	-90.0	1
3.0.1	2019_Mar_07_1326	s	s	11	1	SIC	236	ABS	0	0	4	3	24_4_3	NA	NA	0	1	3.48062801361	None	None	None	None	1
3.0.1	2019_Mar_07_1326	s	s	11	1	SIC	237	ABS	0	0	4	4	24_4_4	NA	NA	0	1	2.5326628685	None	None	None	None	1
3.0.1	2019_Mar_07_1326	s	s	11	1	SIC	238	4_3	4	3	2	1	23_2_1	2	2	1	0	0.672617912292	398.0	135.0	393.0	142.0	1
3.0.1	2019_Mar_07_1326	s	s	11	1	SIC	239	2_2	2	2	3	4	23_3_4	1	2	1	0	0.899629831314	290.0	-257.0	291.0	-254.0	1
3.0.1	2019_Mar_07_1326	s	s	11	1	SIC	240	4_4	4	4	4	1	23_4_1	0	3	1	0	0.810844182968	316.0	344.0	319.0	347.0	1
3.0.1	2019_Mar_07_1326	s	s	11	1	SIC	241	2_4	2	4	1	2	23_1_2	-1	2	1	0	1.72818279266	-160.0	-390.0	-161.0	-391.0	1
3.0.1	2019_Mar_07_1326	s	s	11	1	SIC	242	ABS	0	0	2	4	24_2_4	NA	NA	0	1	2.24052500725	None	None	None	None	1
3.0.1	2019_Mar_07_1326	s	s	11	1	SIC	243	ABS	0	0	1	3	24_1_3	NA	NA	0	1	2.30449199677	None	None	None	None	1
3.0.1	2019_Mar_07_1326	s	s	11	1	SIC	244	4_1	4	1	1	4	23_1_4	3	3	1	0	0.587469100952	-196.0	-96.0	-183.0	-91.0	1
3.0.1	2019_Mar_07_1326	s	s	11	1	SIC	245	ABS	0	0	1	2	24_1_2	NA	NA	0	1	2.09701991081	None	None	None	None	1
3.0.1	2019_Mar_07_1326	s	s	11	1	SIC	246	4_4	4	4	3	2	23_3_2	1	2	1	0	0.76397895813	527.0	183.0	516.0	189.0	1
3.0.1	2019_Mar_07_1326	s	s	11	1	SIC	247	ABS	0	0	4	3	24_4_3	NA	NA	0	1	1.92805695534	None	None	None	None	1
3.0.1	2019_Mar_07_1326	s	s	11	1	SIC	248	2_2	2	2	1	4	23_1_4	-1	2	1	0	0.956983804703	354.0	53.0	345.0	51.0	1
3.0.1	2019_Mar_07_1326	s	s	11	1	SIC	249	ABS	0	0	1	4	24_1_4	NA	NA	0	1	4.15588021278	None	None	None	None	1
3.0.1	2019_Mar_07_1326	s	s	11	1	SIC	250	1_4	1	4	4	3	23_4_3	3	1	1	0	0.716758012772	232.0	251.0	223.0	255.0	1
3.0.1	2019_Mar_07_1326	s	s	11	1	SIC	251	3_2	3	2	4	1	23_4_1	-1	-1	1	0	0.60623216629	-468.0	-204.0	-469.0	-209.0	1
3.0.1	2019_Mar_07_1326	s	s	11	1	SIC	252	ABS	0	0	4	2	24_4_2	NA	NA	0	1	0.907870054245	None	None	None	None	1
3.0.1	2019_Mar_07_1326	s	s	11	1	SIC	253	ABS	0	0	2	3	24_2_3	NA	NA	0	1	1.81044816971	None	None	None	None	1
3.0.1	2019_Mar_07_1326	s	s	11	1	SIC	254	3_4	3	4	3	3	23_3_3	0	1	1	0	0.763950109482	461.0	234.0	455.0	237.0	1
3.0.1	2019_Mar_07_1326	s	s	11	1	SIC	255	3_3	3	3	1	4	23_1_4	2	-1	1	0	0.928505897522	115.0	-403.0	111.0	-394.0	1
3.0.1	2019_Mar_07_1326	s	s	11	1	SIC	256	4_4	4	4	1	1	23_1_1	3	3	1	0	0.559669017792	47.0	-350.0	45.0	-350.0	1
3.0.1	2019_Mar_07_1326	s	s	11	1	SIC	257	ABS	0	0	2	4	24_2_4	NA	NA	0	1	1.65081381798	None	None	None	None	1
3.0.1	2019_Mar_07_1326	s	s	11	1	SIC	258	ABS	0	0	4	3	24_4_3	NA	NA	0	1	2.67195391655	None	None	None	None	1
3.0.1	2019_Mar_07_1326	s	s	11	1	SIC	259	3_4	3	4	3	1	23_3_1	0	3	1	0	0.681886911392	-1.0	-38.0	-13.0	-30.0	1
3.0.1	2019_Mar_07_1326	s	s	11	1	SIC	260	2_4	2	4	1	3	23_1_3	-1	1	1	0	1.07632112503	515.0	265.0	519.0	264.0	1
3.0.1	2019_Mar_07_1326	s	s	11	1	SIC	261	ABS	0	0	3	1	24_3_1	NA	NA	0	1	1.17018318176	None	None	None	None	1
3.0.1	2019_Mar_07_1326	s	s	11	1	SIC	262	ABS	0	0	4	4	24_4_4	NA	NA	0	1	1.86934709549	None	None	None	None	1
3.0.1	2019_Mar_07_1326	s	s	11	1	SIC	263	4_1	4	1	4	2	23_4_2	0	1	1	0	1.58705282211	496.0	263.0	493.0	271.0	1
3.0.1	2019_Mar_07_1326	s	s	11	1	SIC	264	1_2	1	2	3	1	23_3_1	2	-1	1	0	0.863633871078	532.0	-143.0	532.0	-144.0	1
3.0.1	2019_Mar_07_1326	s	s	11	1	SIC	265	3_4	3	4	4	2	23_4_2	-1	2	1	0	0.638548135757	-238.0	273.0	-244.0	277.0	1
3.0.1	2019_Mar_07_1326	s	s	11	1	SIC	266	ABS	0	0	1	3	24_1_3	NA	NA	0	1	1.65766692162	None	None	None	None	1
3.0.1	2019_Mar_07_1326	s	s	11	1	SIC	267	2_1	2	1	2	4	23_2_4	0	3	1	0	0.928470134735	-35.0	-412.0	-28.0	-405.0	1
3.0.1	2019_Mar_07_1326	s	s	11	1	SIC	268	3_4	3	4	2	2	23_2_2	1	2	1	0	0.540431976318	-205.0	185.0	-198.0	178.0	1
3.0.1	2019_Mar_07_1326	s	s	11	1	SIC	269	ABS	0	0	3	1	24_3_1	NA	NA	0	1	1.60661411285	None	None	None	None	1
3.0.1	2019_Mar_07_1326	s	s	11	1	SIC	270	ABS	0	0	1	4	24_1_4	NA	NA	0	1	1.41056513786	None	None	None	None	1
3.0.1	2019_Mar_07_1326	s	s	11	1	SIC	271	ABS	0	0	1	2	24_1_2	NA	NA	0	1	3.22194385529	None	None	None	None	1
3.0.1	2019_Mar_07_1326	s	s	11	1	SIC	272	3_1	3	1	3	3	23_3_3	0	2	1	0	1.128428936	-354.0	2.0	-353.0	6.0	1
3.0.1	2019_Mar_07_1326	s	s	11	1	SIC	273	ABS	0	0	2	1	24_2_1	NA	NA	0	1	1.48126101494	None	None	None	None	1
3.0.1	2019_Mar_07_1326	s	s	11	1	SIC	274	1_4	1	4	4	2	23_4_2	3	2	1	0	0.487755060196	-445.0	-9.0	-436.0	-13.0	1
3.0.1	2019_Mar_07_1326	s	s	11	1	SIC	275	4_4	4	4	3	1	23_3_1	1	3	1	0	0.613783121109	-480.0	-391.0	-490.0	-392.0	1
3.0.1	2019_Mar_07_1326	s	s	11	1	SIC	276	4_2	4	2	2	3	23_2_3	2	1	1	0	0.646575927734	47.0	-362.0	57.0	-358.0	1
3.0.1	2019_Mar_07_1326	s	s	11	1	SIC	277	ABS	0	0	3	3	24_3_3	NA	NA	0	1	3.71976804733	None	None	None	None	1
3.0.1	2019_Mar_07_1326	s	s	11	1	SIC	278	2_2	2	2	1	3	23_1_3	-1	1	1	0	4.20985794067	323.0	316.0	323.0	323.0	1
3.0.1	2019_Mar_07_1326	s	s	11	1	SIC	279	ABS	0	0	4	4	24_4_4	NA	NA	0	1	2.85058712959	None	None	None	None	1
3.0.1	2019_Mar_07_1326	s	s	11	1	SIC	280	ABS	0	0	1	1	24_1_1	NA	NA	0	1	1.95187497139	None	None	None	None	1
3.0.1	2019_Mar_07_1326	s	s	11	1	SIC	281	ABS	0	0	3	4	24_3_4	NA	NA	0	1	1.37038397789	None	None	None	None	1
3.0.1	2019_Mar_07_1326	s	s	11	1	SIC	282	2_2	2	2	3	3	23_3_3	1	1	1	0	1.01372385025	366.0	62.0	365.0	58.0	1
3.0.1	2019_Mar_07_1326	s	s	11	1	SIC	283	ABS	0	0	2	4	24_2_4	NA	NA	0	1	1.20189094543	None	None	None	None	1
3.0.1	2019_Mar_07_1326	s	s	11	1	SIC	284	3_1	3	1	1	4	23_1_4	2	3	1	0	0.528553962708	-277.0	-34.0	-271.0	-33.0	1
3.0.1	2019_Mar_07_1326	s	s	11	1	SIC	285	2_3	2	3	2	1	23_2_1	0	2	0	1	1.01365709305	-532.0	271.0	None	None	0
3.0.1	2019_Mar_07_1326	s	s	11	1	SIC	286	3_1	3	1	4	1	23_4_1	-1	0	1	0	0.685034990311	-67.0	-389.0	-56.0	-383.0	1
3.0.1	2019_Mar_07_1326	s	s	11	1	SIC	287	ABS	0	0	2	3	24_2_3	NA	NA	0	1	3.79397320747	None	None	None	None	1
3.0.1	2019_Mar_07_1326	s	s	11	1	SIC	288	ABS	0	0	4	3	24_4_3	NA	NA	0	1	1.71942281723	None	None	None	None	1
3.0.1	2019_Mar_07_1326	s	s	11	1	SIC	289	3_1	3	1	2	1	23_2_1	1	0	1	0	0.802362918854	-395.0	-146.0	-386.0	-138.0	1
3.0.1	2019_Mar_07_1326	s	s	11	1	SIC	290	ABS	0	0	3	4	24_3_4	NA	NA	0	1	1.23846197128	None	None	None	None	1
3.0.1	2019_Mar_07_1326	s	s	11	1	SIC	291	ABS	0	0	3	1	24_3_1	NA	NA	0	1	1.06963777542	None	None	None	None	1
3.0.1	2019_Mar_07_1326	s	s	11	1	SIC	292	3_1	3	1	2	4	23_2_4	1	3	1	0	0.614091157913	-336.0	-171.0	-330.0	-170.0	1
3.0.1	2019_Mar_07_1326	s	s	11	1	SIC	293	2_4	2	4	4	2	23_4_2	2	2	1	0	0.555064916611	347.0	305.0	350.0	309.0	1
3.0.1	2019_Mar_07_1326	s	s	11	1	SIC	294	2_1	2	1	3	4	23_3_4	1	3	1	0	0.528566837311	395.0	-298.0	395.0	-290.0	1
3.0.1	2019_Mar_07_1326	s	s	11	1	SIC	295	2_3	2	3	1	4	23_1_4	-1	-1	1	0	1.4438700676	389.0	135.0	389.0	145.0	1
3.0.1	2019_Mar_07_1326	s	s	11	1	SIC	296	ABS	0	0	1	1	24_1_1	NA	NA	0	1	0.907799005508	None	None	None	None	1
3.0.1	2019_Mar_07_1326	s	s	11	1	SIC	297	ABS	0	0	3	4	24_3_4	NA	NA	0	1	0.952435016632	None	None	None	None	1
3.0.1	2019_Mar_07_1326	s	s	11	1	SIC	298	2_1	2	1	1	1	23_1_1	-1	0	0	1	0.893218040466	438.0	377.0	None	None	0
3.0.1	2019_Mar_07_1326	s	s	11	1	SIC	299	2_3	2	3	2	2	23_2_2	0	1	1	0	5.87990999222	266.0	-275.0	268.0	-273.0	1
3.0.1	2019_Mar_07_1326	s	s	11	1	SIC	300	3_2	3	2	1	3	23_1_3	2	1	1	0	0.666262865067	352.0	-25.0	342.0	-19.0	1
3.0.1	2019_Mar_07_1326	s	s	11	1	SIC	301	1_1	1	1	1	4	23_1_4	0	3	1	0	0.613795042038	-519.0	-95.0	-513.0	-93.0	1
3.0.1	2019_Mar_07_1326	s	s	11	1	SIC	302	ABS	0	0	3	1	24_3_1	NA	NA	0	1	1.72305893898	None	None	None	None	1
3.0.1	2019_Mar_07_1326	s	s	11	1	SIC	303	ABS	0	0	1	2	24_1_2	NA	NA	0	1	4.58620405197	None	None	None	None	1
3.0.1	2019_Mar_07_1326	s	s	11	1	SIC	304	1_2	1	2	4	3	23_4_3	3	1	1	0	0.705363988876	301.0	-138.0	291.0	-135.0	1
3.0.1	2019_Mar_07_1326	s	s	11	1	SIC	305	ABS	0	0	2	2	24_2_2	NA	NA	0	1	1.73209500313	None	None	None	None	1
3.0.1	2019_Mar_07_1326	s	s	11	1	SIC	306	ABS	0	0	2	3	24_2_3	NA	NA	0	1	1.51643395424	None	None	None	None	1
3.0.1	2019_Mar_07_1326	s	s	11	1	SIC	307	4_4	4	4	2	1	23_2_1	2	3	1	0	0.578461885452	274.0	-118.0	280.0	-116.0	1
3.0.1	2019_Mar_07_1326	s	s	11	1	SIC	308	1_3	1	3	1	4	23_1_4	0	-1	1	0	1.84585213661	-487.0	-353.0	-492.0	-345.0	1
3.0.1	2019_Mar_07_1326	s	s	11	1	SIC	309	ABS	0	0	4	2	24_4_2	NA	NA	0	1	2.10457181931	None	None	None	None	1
3.0.1	2019_Mar_07_1326	s	s	11	1	SIC	310	ABS	0	0	2	4	24_2_4	NA	NA	0	1	1.77538013458	None	None	None	None	1
3.0.1	2019_Mar_07_1326	s	s	11	1	SIC	311	4_1	4	1	2	2	23_2_2	2	1	1	0	0.605601072311	-350.0	243.0	-353.0	245.0	1
3.0.1	2019_Mar_07_1326	s	s	11	1	SIC	312	ABS	0	0	3	3	24_3_3	NA	NA	0	1	4.00230288506	None	None	None	None	1
3.0.1	2019_Mar_07_1326	s	s	11	1	SIC	313	ABS	0	0	4	1	24_4_1	NA	NA	0	1	1.14312791824	None	None	None	None	1
3.0.1	2019_Mar_07_1326	s	s	11	1	SIC	314	3_1	3	1	2	3	23_2_3	1	2	1	0	0.763803005219	283.0	383.0	288.0	392.0	1
3.0.1	2019_Mar_07_1326	s	s	11	1	SIC	315	ABS	0	0	1	4	24_1_4	NA	NA	0	1	2.04576706886	None	None	None	None	1
3.0.1	2019_Mar_07_1326	s	s	11	1	SIC	316	1_1	1	1	2	2	23_2_2	1	1	1	0	4.57439613342	-273.0	-293.0	-270.0	-300.0	1
3.0.1	2019_Mar_07_1326	s	s	11	1	SIC	317	ABS	0	0	1	3	24_1_3	NA	NA	0	1	2.66910600662	None	None	None	None	1
3.0.1	2019_Mar_07_1326	s	s	11	1	SIC	318	1_2	1	2	1	3	23_1_3	0	1	0	1	3.42180895805	-266.0	231.0	None	None	0
3.0.1	2019_Mar_07_1326	s	s	11	1	SIC	319	ABS	0	0	1	4	24_1_4	NA	NA	0	1	1.88108897209	None	None	None	None	1
3.0.1	2019_Mar_07_1326	s	s	11	1	SIC	320	ABS	0	0	1	2	24_1_2	NA	NA	0	1	2.727902174	None	None	None	None	1
3.0.1	2019_Mar_07_1326	s	s	11	1	SIC	321	ABS	0	0	4	3	24_4_3	NA	NA	0	1	2.22707390785	None	None	None	None	1
3.0.1	2019_Mar_07_1326	s	s	11	1	SIC	322	3_3	3	3	3	2	23_3_2	0	1	0	1	2.28111505508	208.0	386.0	None	None	0
3.0.1	2019_Mar_07_1326	s	s	11	1	SIC	323	ABS	0	0	1	2	24_1_2	NA	NA	0	1	3.21016001701	None	None	None	None	1
3.0.1	2019_Mar_07_1326	s	s	11	1	SIC	324	1_1	1	1	1	2	23_1_2	0	1	0	1	4.43336105347	-490.0	338.0	None	None	0
3.0.1	2019_Mar_07_1326	s	s	11	1	SIC	325	ABS	0	0	1	4	24_1_4	NA	NA	0	1	2.73280000687	None	None	None	None	1
3.0.1	2019_Mar_07_1326	s	s	11	1	SIC	326	4_3	4	3	4	4	23_4_4	0	-1	1	0	1.20620989799	-366.0	173.0	-369.0	169.0	1
3.0.1	2019_Mar_07_1326	s	s	11	1	SIC	327	1_3	1	3	4	3	23_4_3	3	0	1	0	0.751978158951	539.0	279.0	541.0	282.0	1
3.0.1	2019_Mar_07_1326	s	s	11	1	SIC	328	ABS	0	0	3	2	24_3_2	NA	NA	0	1	2.49136686325	None	None	None	None	1
3.0.1	2019_Mar_07_1326	s	s	11	1	SIC	329	ABS	0	0	2	4	24_2_4	NA	NA	0	1	1.45090985298	None	None	None	None	1
3.0.1	2019_Mar_07_1326	s	s	11	1	SIC	330	ABS	0	0	1	3	24_1_3	NA	NA	0	1	2.68086385727	None	None	None	None	1
3.0.1	2019_Mar_07_1326	s	s	11	1	SIC	331	ABS	0	0	1	1	24_1_1	NA	NA	0	1	2.06935095787	None	None	None	None	1
3.0.1	2019_Mar_07_1326	s	s	11	1	SIC	332	2_4	2	4	1	4	23_1_4	-1	0	0	1	1.76805400848	433.0	1.0	None	None	0
3.0.1	2019_Mar_07_1326	s	s	11	1	SIC	333	ABS	0	0	1	2	24_1_2	NA	NA	0	1	5.73470807076	None	None	None	None	1
3.0.1	2019_Mar_07_1326	s	s	11	1	SIC	334	ABS	0	0	1	3	24_1_3	NA	NA	0	1	4.55580687523	None	None	None	None	1
3.0.1	2019_Mar_07_1326	s	s	11	1	SIC	335	ABS	0	0	3	4	24_3_4	NA	NA	0	1	2.29278802872	None	None	None	None	1
3.0.1	2019_Mar_07_1326	s	s	11	1	SIC	336	4_2	4	2	1	4	23_1_4	3	2	1	0	0.83958697319	200.0	359.0	205.0	357.0	1
3.0.1	2019_Mar_07_1326	s	s	11	1	SIC	337	4_1	4	1	4	4	23_4_4	0	3	1	0	0.696860074997	203.0	242.0	206.0	237.0	1
3.0.1	2019_Mar_07_1326	s	s	11	1	SIC	338	ABS	0	0	4	4	24_4_4	NA	NA	0	1	2.26925396919	None	None	None	None	1
3.0.1	2019_Mar_07_1326	s	s	11	1	SIC	339	1_1	1	1	3	4	23_3_4	2	3	1	0	0.592088937759	-377.0	-88.0	-377.0	-94.0	1
3.0.1	2019_Mar_07_1326	s	s	11	1	SIC	340	1_2	1	2	3	3	23_3_3	2	1	1	0	0.885093927383	529.0	117.0	538.0	114.0	1
3.0.1	2019_Mar_07_1326	s	s	11	1	SIC	341	ABS	0	0	3	2	24_3_2	NA	NA	0	1	1.88104987144	None	None	None	None	1
3.0.1	2019_Mar_07_1326	s	s	11	1	SIC	342	1_4	1	4	3	3	23_3_3	2	1	1	0	0.704940080643	-147.0	26.0	-155.0	29.0	1
3.0.1	2019_Mar_07_1326	s	s	11	1	SIC	343	ABS	0	0	3	4	24_3_4	NA	NA	0	1	1.67231488228	None	None	None	None	1
3.0.1	2019_Mar_07_1326	s	s	11	1	SIC	344	ABS	0	0	3	4	24_3_4	NA	NA	0	1	0.958174943924	None	None	None	None	1
3.0.1	2019_Mar_07_1326	s	s	11	1	SIC	345	2_2	2	2	4	4	23_4_4	2	2	1	0	0.496205091476	-16.0	-406.0	-14.0	-411.0	1
3.0.1	2019_Mar_07_1326	s	s	11	1	SIC	346	4_2	4	2	1	1	23_1_1	3	-1	1	0	0.528576850891	107.0	-82.0	105.0	-91.0	1
3.0.1	2019_Mar_07_1326	s	s	11	1	SIC	347	4_2	4	2	1	3	23_1_3	3	1	1	0	0.505444049835	-222.0	-289.0	-220.0	-291.0	1
3.0.1	2019_Mar_07_1326	s	s	11	1	SIC	348	ABS	0	0	3	4	24_3_4	NA	NA	0	1	1.55731201172	None	None	None	None	1
3.0.1	2019_Mar_07_1326	s	s	11	1	SIC	349	ABS	0	0	1	4	24_1_4	NA	NA	0	1	1.61969995499	None	None	None	None	1
3.0.1	2019_Mar_07_1326	s	s	11	1	SIC	350	ABS	0	0	4	3	24_4_3	NA	NA	0	1	1.88112711906	None	None	None	None	1
3.0.1	2019_Mar_07_1326	s	s	11	1	SIC	351	ABS	0	0	2	3	24_2_3	NA	NA	0	1	2.57499480247	None	None	None	None	1
3.0.1	2019_Mar_07_1326	s	s	11	1	SIC	352	2_2	2	2	1	2	23_1_2	-1	0	0	1	2.37517619133	131.0	-36.0	None	None	0
3.0.1	2019_Mar_07_1326	s	s	11	1	SIC	353	ABS	0	0	2	3	24_2_3	NA	NA	0	1	2.70439910889	None	None	None	None	1
3.0.1	2019_Mar_07_1326	s	s	11	1	SIC	354	ABS	0	0	2	4	24_2_4	NA	NA	0	1	2.05252599716	None	None	None	None	1
3.0.1	2019_Mar_07_1326	s	s	11	1	SIC	355	ABS	0	0	3	1	24_3_1	NA	NA	0	1	1.53323698044	None	None	None	None	1
3.0.1	2019_Mar_07_1326	s	s	11	1	SIC	356	ABS	0	0	3	4	24_3_4	NA	NA	0	1	1.09743499756	None	None	None	None	1
3.0.1	2019_Mar_07_1326	s	s	11	1	SIC	357	1_1	1	1	3	3	23_3_3	2	2	1	0	0.810819864273	48.0	-123.0	45.0	-123.0	1
3.0.1	2019_Mar_07_1326	s	s	11	1	SIC	358	ABS	0	0	4	2	24_4_2	NA	NA	0	1	1.48128986359	None	None	None	None	1
3.0.1	2019_Mar_07_1326	s	s	11	1	SIC	359	2_4	2	4	4	4	23_4_4	2	0	1	0	0.71972489357	-506.0	-287.0	-496.0	-286.0	1
3.0.1	2019_Mar_07_1326	s	s	11	1	SIC	360	ABS	0	0	3	2	24_3_2	NA	NA	0	1	1.44202113152	None	None	None	None	1
3.0.1	2019_Mar_07_1326	s	s	11	1	SIC	361	ABS	0	0	3	4	24_3_4	NA	NA	0	1	1.29307889938	None	None	None	None	1
3.0.1	2019_Mar_07_1326	s	s	11	1	SIC	362	ABS	0	0	2	1	24_2_1	NA	NA	0	1	0.863059997559	None	None	None	None	1
3.0.1	2019_Mar_07_1326	s	s	11	1	SIC	363	ABS	0	0	1	3	24_1_3	NA	NA	0	1	1.42758107185	None	None	None	None	1
3.0.1	2019_Mar_07_1326	s	s	11	1	SIC	364	2_3	2	3	4	4	23_4_4	2	-1	1	0	0.646251916885	116.0	35.0	126.0	35.0	1
3.0.1	2019_Mar_07_1326	s	s	11	1	SIC	365	ABS	0	0	2	2	24_2_2	NA	NA	0	1	1.71646404266	None	None	None	None	1
3.0.1	2019_Mar_07_1326	s	s	11	1	SIC	366	4_4	4	4	2	4	23_2_4	2	0	1	0	0.634356021881	-370.0	-123.0	-371.0	-131.0	1
3.0.1	2019_Mar_07_1326	s	s	11	1	SIC	367	1_3	1	3	2	3	23_2_3	1	0	0	1	1.06439399719	519.0	372.0	None	None	0
3.0.1	2019_Mar_07_1326	s	s	11	1	SIC	368	ABS	0	0	2	2	24_2_2	NA	NA	0	1	0.662780046463	None	None	None	None	1
3.0.1	2019_Mar_07_1326	s	s	11	1	SIC	369	2_3	2	3	3	3	23_3_3	1	0	1	0	1.47429203987	242.0	-137.0	255.0	-131.0	1
3.0.1	2019_Mar_07_1326	s	s	11	1	SIC	370	ABS	0	0	1	2	24_1_2	NA	NA	0	1	2.95144701004	None	None	None	None	1
3.0.1	2019_Mar_07_1326	s	s	11	1	SIC	371	ABS	0	0	2	2	24_2_2	NA	NA	0	1	1.48645401001	None	None	None	None	1
3.0.1	2019_Mar_07_1326	s	s	11	1	SIC	372	ABS	0	0	2	4	24_2_4	NA	NA	0	1	1.94404196739	None	None	None	None	1
3.0.1	2019_Mar_07_1326	s	s	11	1	SIC	373	ABS	0	0	2	4	24_2_4	NA	NA	0	1	1.29721689224	None	None	None	None	1
3.0.1	2019_Mar_07_1326	s	s	11	1	SIC	374	1_3	1	3	2	1	23_2_1	1	2	0	1	0.946390151978	292.0	110.0	None	None	0
3.0.1	2019_Mar_07_1326	s	s	11	1	SIC	375	2_4	2	4	2	2	23_2_2	0	2	1	0	0.98729801178	454.0	31.0	445.0	32.0	1
3.0.1	2019_Mar_07_1326	s	s	11	1	SIC	376	4_3	4	3	1	1	23_1_1	3	2	1	0	0.554959058762	-126.0	-112.0	-121.0	-108.0	1
3.0.1	2019_Mar_07_1326	s	s	11	1	SIC	377	4_3	4	3	1	3	23_1_3	3	0	1	0	0.474921941757	303.0	343.0	312.0	353.0	1
3.0.1	2019_Mar_07_1326	s	s	11	1	SIC	378	4_3	4	3	2	4	23_2_4	2	-1	1	0	0.481696844101	498.0	213.0	488.0	221.0	1
3.0.1	2019_Mar_07_1326	s	s	11	1	SIC	379	ABS	0	0	2	1	24_2_1	NA	NA	0	1	0.763792037964	None	None	None	None	1
3.0.1	2019_Mar_07_1326	s	s	11	1	SIC	380	4_4	4	4	1	3	23_1_3	3	1	1	0	0.505035877228	-304.0	276.0	-298.0	286.0	1
3.0.1	2019_Mar_07_1326	s	s	11	1	SIC	381	3_3	3	3	4	1	23_4_1	-1	2	1	0	0.505038022995	-290.0	-151.0	-292.0	-152.0	1
3.0.1	2019_Mar_07_1326	s	s	11	1	SIC	382	3_4	3	4	4	1	23_4_1	-1	3	1	0	0.561757087708	35.0	299.0	35.0	306.0	1
3.0.1	2019_Mar_07_1326	s	s	11	1	SIC	383	1_4	1	4	4	1	23_4_1	3	3	1	0	0.49619603157	200.0	-153.0	197.0	-151.0	1
3.0.1	2019_Mar_07_1326	s	s	11	1	SIC	384	ABS	0	0	3	2	24_3_2	NA	NA	0	1	0.901588916779	None	None	None	None	1
3.0.1	2019_Mar_07_1326	s	s	11	1	SIC	385	ABS	0	0	3	1	24_3_1	NA	NA	0	1	0.944008111954	None	None	None	None	1
3.0.1	2019_Mar_07_1326	s	s	11	1	SIC	386	ABS	0	0	3	4	24_3_4	NA	NA	0	1	1.02548098564	None	None	None	None	1
3.0.1	2019_Mar_07_1326	s	s	11	1	SIC	387	ABS	0	0	1	1	24_1_1	NA	NA	0	1	0.7872838974	None	None	None	None	1
3.0.1	2019_Mar_07_1326	s	s	11	1	SIC	388	ABS	0	0	1	4	24_1_4	NA	NA	0	1	0.716786146164	None	None	None	None	1
3.0.1	2019_Mar_07_1326	s	s	11	1	SIC	389	4_2	4	2	3	2	23_3_2	1	0	1	0	0.580352067947	-317.0	-401.0	-320.0	-396.0	1
3.0.1	2019_Mar_07_1326	s	s	11	1	SIC	390	1_4	1	4	2	1	23_2_1	1	3	1	0	0.752048969269	491.0	261.0	494.0	271.0	1
3.0.1	2019_Mar_07_1326	s	s	11	1	SIC	391	1_3	1	3	2	2	23_2_2	1	1	0	1	1.15690612793	363.0	78.0	None	None	0
3.0.1	2019_Mar_07_1326	s	s	11	1	SIC	392	1_3	1	3	3	1	23_3_1	2	2	1	0	0.634329080582	241.0	376.0	244.0	378.0	1
3.0.1	2019_Mar_07_1326	s	s	11	1	SIC	393	1_3	1	3	4	2	23_4_2	3	1	1	0	0.474916219711	5.0	384.0	8.0	379.0	1
3.0.1	2019_Mar_07_1326	s	s	11	1	SIC	394	2_2	2	2	4	1	23_4_1	2	-1	1	0	0.450871944427	141.0	-31.0	132.0	-28.0	1
3.0.1	2019_Mar_07_1326	s	s	11	1	SIC	395	1_4	1	4	1	1	23_1_1	0	3	1	0	0.716773986816	-189.0	-124.0	-191.0	-125.0	1
3.0.1	2019_Mar_07_1326	s	s	11	1	SIC	396	4_3	4	3	4	2	23_4_2	0	1	0	1	0.790210962296	-463.0	-306.0	None	None	0
3.0.1	2019_Mar_07_1326	s	s	11	1	SIC	397	ABS	0	0	4	4	24_4_4	NA	NA	0	1	0.814399003983	None	None	None	None	1
3.0.1	2019_Mar_07_1326	s	s	11	1	SIC	398	ABS	0	0	1	2	24_1_2	NA	NA	0	1	0.639297008514	None	None	None	None	1
3.0.1	2019_Mar_07_1326	s	s	11	1	SIC	399	2_2	2	2	2	1	23_2_1	0	-1	0	1	0.88655090332	-372.0	-301.0	None	None	0
3.0.1	2019_Mar_07_1326	s	s	11	1	SIC	400	ABS	0	0	3	3	24_3_3	NA	NA	0	1	0.987249851227	None	None	None	None	1
3.0.1	2019_Mar_07_1326	s	s	11	1	SIC	401	1_4	1	4	4	4	23_4_4	3	0	1	0	0.49622297287	-299.0	-318.0	-305.0	-309.0	1
3.0.1	2019_Mar_07_1326	s	s	11	1	SIC	402	3_4	3	4	4	3	23_4_3	-1	1	1	0	0.482007980347	-252.0	-248.0	-246.0	-248.0	1
3.0.1	2019_Mar_07_1326	s	s	11	1	SIC	403	2_2	2	2	2	3	23_2_3	0	1	0	1	1.1518778801	-20.0	-124.0	None	None	0
3.0.1	2019_Mar_07_1326	s	s	11	1	SIC	404	ABS	0	0	2	1	24_2_1	NA	NA	0	1	1.98696398735	None	None	None	None	1
3.0.1	2019_Mar_07_1326	s	s	11	1	SIC	405	4_2	4	2	1	2	23_1_2	3	0	1	0	0.528631925583	-346.0	254.0	-346.0	246.0	1
3.0.1	2019_Mar_07_1326	s	s	11	1	SIC	406	ABS	0	0	4	2	24_4_2	NA	NA	0	1	1.10495710373	None	None	None	None	1
3.0.1	2019_Mar_07_1326	s	s	11	1	SIC	407	ABS	0	0	2	4	24_2_4	NA	NA	0	1	1.55953001976	None	None	None	None	1
3.0.1	2019_Mar_07_1326	s	s	11	1	SIC	408	3_4	3	4	2	3	23_2_3	1	1	1	0	0.736804962158	13.0	-340.0	10.0	-338.0	1
3.0.1	2019_Mar_07_1326	s	s	11	1	SIC	409	ABS	0	0	1	1	24_1_1	NA	NA	0	1	1.31667494774	None	None	None	None	1
3.0.1	2019_Mar_07_1326	s	s	11	1	SIC	410	ABS	0	0	2	1	24_2_1	NA	NA	0	1	1.51940917969	None	None	None	None	1
3.0.1	2019_Mar_07_1326	s	s	11	1	SIC	411	ABS	0	0	3	3	24_3_3	NA	NA	0	1	2.51949596405	None	None	None	None	1
3.0.1	2019_Mar_07_1326	s	s	11	1	SIC	412	3_4	3	4	2	4	23_2_4	1	0	1	0	1.28132510185	507.0	-301.0	511.0	-299.0	1
3.0.1	2019_Mar_07_1326	s	s	11	1	SIC	413	4_4	4	4	3	4	23_3_4	1	0	1	0	0.613749027252	150.0	-278.0	141.0	-270.0	1
3.0.1	2019_Mar_07_1326	s	s	11	1	SIC	414	ABS	0	0	2	2	24_2_2	NA	NA	0	1	4.00294399261	None	None	None	None	1
3.0.1	2019_Mar_07_1326	s	s	11	1	SIC	415	ABS	0	0	2	2	24_2_2	NA	NA	0	1	2.4281680584	None	None	None	None	1
3.0.1	2019_Mar_07_1326	s	s	11	1	SIC	416	1_2	1	2	2	4	23_2_4	1	2	1	0	1.22249984741	-526.0	411.0	-521.0	411.0	1
3.0.1	2019_Mar_07_1326	s	s	11	1	SIC	417	ABS	0	0	1	3	24_1_3	NA	NA	0	1	3.2519030571	None	None	None	None	1
3.0.1	2019_Mar_07_1326	s	s	11	1	SIC	418	4_3	4	3	3	3	23_3_3	1	0	1	0	0.693276882172	185.0	-80.0	188.0	-79.0	1
3.0.1	2019_Mar_07_1326	s	s	11	1	SIC	419	3_1	3	1	4	4	23_4_4	-1	3	1	0	0.533827066422	411.0	-77.0	406.0	-68.0	1
3.0.1	2019_Mar_07_1326	s	s	11	1	SIC	420	ABS	0	0	3	1	24_3_1	NA	NA	0	1	1.63999295235	None	None	None	None	1
3.0.1	2019_Mar_07_1326	s	s	11	1	SIC	421	ABS	0	0	4	2	24_4_2	NA	NA	0	1	2.33973693848	None	None	None	None	1
3.0.1	2019_Mar_07_1326	s	s	11	1	SIC	422	ABS	0	0	3	2	24_3_2	NA	NA	0	1	2.54503798485	None	None	None	None	1
3.0.1	2019_Mar_07_1326	s	s	11	1	SIC	423	ABS	0	0	3	3	24_3_3	NA	NA	0	1	2.16337394714	None	None	None	None	1
3.0.1	2019_Mar_07_1326	s	s	11	1	SIC	424	ABS	0	0	4	2	24_4_2	NA	NA	0	1	1.98694396019	None	None	None	None	1
3.0.1	2019_Mar_07_1326	s	s	11	1	SIC	425	3_2	3	2	4	2	23_4_2	-1	0	1	0	0.681427001953	-18.0	110.0	-8.0	120.0	1
3.0.1	2019_Mar_07_1326	s	s	11	1	SIC	426	2_1	2	1	3	3	23_3_3	1	2	1	0	0.603940963745	25.0	112.0	27.0	105.0	1
3.0.1	2019_Mar_07_1326	s	s	11	1	SIC	427	ABS	0	0	3	3	24_3_3	NA	NA	0	1	1.17835783958	None	None	None	None	1
3.0.1	2019_Mar_07_1326	s	s	11	1	SIC	428	ABS	0	0	3	4	24_3_4	NA	NA	0	1	0.980441093445	None	None	None	None	1
3.0.1	2019_Mar_07_1326	s	s	11	1	SIC	429	4_3	4	3	1	4	23_1_4	3	-1	1	0	0.517247915268	231.0	-69.0	224.0	-67.0	1
3.0.1	2019_Mar_07_1326	s	s	11	1	SIC	430	ABS	0	0	3	1	24_3_1	NA	NA	0	1	1.65760302544	None	None	None	None	1
3.0.1	2019_Mar_07_1326	s	s	11	1	SIC	431	ABS	0	0	2	2	24_2_2	NA	NA	0	1	0.792547941208	None	None	None	None	1
3.0.1	2019_Mar_07_1326	s	s	11	1	SIC	432	ABS	0	0	3	3	24_3_3	NA	NA	0	1	1.59881210327	None	None	None	None	1
3.0.1	2019_Mar_07_1326	s	s	11	1	SIC	433	ABS	0	0	4	3	24_4_3	NA	NA	0	1	0.763813972473	None	None	None	None	1
3.0.1	2019_Mar_07_1326	s	s	11	1	SIC	434	4_1	4	1	3	4	23_3_4	1	3	1	0	0.646182060242	-361.0	274.0	-367.0	274.0	1
3.0.1	2019_Mar_07_1326	s	s	11	1	SIC	435	3_2	3	2	2	1	23_2_1	1	-1	1	0	1.13371491432	235.0	-186.0	248.0	-180.0	1
3.0.1	2019_Mar_07_1326	s	s	11	1	SIC	436	ABS	0	0	4	2	24_4_2	NA	NA	0	1	0.704967975616	None	None	None	None	1
3.0.1	2019_Mar_07_1326	s	s	11	1	SIC	437	4_3	4	3	3	1	23_3_1	1	2	1	0	0.592353820801	-515.0	223.0	-513.0	213.0	1
3.0.1	2019_Mar_07_1326	s	s	11	1	SIC	438	2_1	2	1	2	3	23_2_3	0	2	1	0	1.69329094887	325.0	405.0	332.0	404.0	1
3.0.1	2019_Mar_07_1326	s	s	11	1	SIC	439	3_4	3	4	1	4	23_1_4	2	0	1	0	0.646237850189	-106.0	-115.0	-98.0	-113.0	1
3.0.1	2019_Mar_07_1326	s	s	11	1	SIC	440	ABS	0	0	2	1	24_2_1	NA	NA	0	1	0.893211841583	None	None	None	None	1
3.0.1	2019_Mar_07_1326	s	s	11	1	SIC	441	ABS	0	0	2	1	24_2_1	NA	NA	0	1	0.97549700737	None	None	None	None	1
3.0.1	2019_Mar_07_1326	s	s	11	1	SIC	442	2_3	2	3	1	3	23_1_3	-1	0	0	1	2.04068398476	-433.0	8.0	None	None	0
3.0.1	2019_Mar_07_1326	s	s	11	1	SIC	443	ABS	0	0	4	1	24_4_1	NA	NA	0	1	0.863945007324	None	None	None	None	1
3.0.1	2019_Mar_07_1326	s	s	11	1	SIC	444	1_3	1	3	3	4	23_3_4	2	-1	1	0	0.554908037186	-262.0	304.0	-266.0	294.0	1
3.0.1	2019_Mar_07_1326	s	s	11	1	SIC	445	ABS	0	0	3	4	24_3_4	NA	NA	0	1	1.18722009659	None	None	None	None	1
3.0.1	2019_Mar_07_1326	s	s	11	1	SIC	446	4_4	4	4	3	3	23_3_3	1	1	1	0	0.627140045166	-525.0	-248.0	-528.0	-249.0	1
3.0.1	2019_Mar_07_1326	s	s	11	1	SIC	447	ABS	0	0	4	3	24_4_3	NA	NA	0	1	1.76343822479	None	None	None	None	1
3.0.1	2019_Mar_07_1326	s	s	11	1	SIC	448	1_1	1	1	4	3	23_4_3	3	2	1	0	0.599253177643	-189.0	-327.0	-186.0	-329.0	1
3.0.1	2019_Mar_07_1326	s	s	11	1	SIC	449	ABS	0	0	2	3	24_2_3	NA	NA	0	1	1.12836813927	None	None	None	None	1
3.0.1	2019_Mar_07_1326	s	s	11	1	SIC	450	ABS	0	0	1	4	24_1_4	NA	NA	0	1	0.973298072815	None	None	None	None	1
3.0.1	2019_Mar_07_1326	s	s	11	1	SIC	451	ABS	0	0	3	2	24_3_2	NA	NA	0	1	0.0324509143829	None	None	None	None	1
3.0.1	2019_Mar_07_1326	s	s	11	1	SIC	452	4_3	4	3	4	1	23_4_1	0	2	0	1	0.752058982849	-473.0	-320.0	None	None	0
3.0.1	2019_Mar_07_1326	s	s	11	1	SIC	453	4_2	4	2	2	2	23_2_2	2	0	1	0	0.634440898895	-354.0	211.0	-346.0	214.0	1
3.0.1	2019_Mar_07_1326	s	s	11	1	SIC	454	ABS	0	0	4	1	24_4_1	NA	NA	0	1	0.893224954605	None	None	None	None	1
3.0.1	2019_Mar_07_1326	s	s	11	1	SIC	455	ABS	0	0	4	2	24_4_2	NA	NA	0	1	1.05785489082	None	None	None	None	1
3.0.1	2019_Mar_07_1326	s	s	11	1	SIC	456	ABS	0	0	2	3	24_2_3	NA	NA	0	1	1.82223701477	None	None	None	None	1
3.0.1	2019_Mar_07_1326	s	s	11	1	SIC	457	ABS	0	0	3	1	24_3_1	NA	NA	0	1	1.49301791191	None	None	None	None	1
3.0.1	2019_Mar_07_1326	s	s	11	1	SIC	458	ABS	0	0	1	1	24_1_1	NA	NA	0	1	1.70469307899	None	None	None	None	1
3.0.1	2019_Mar_07_1326	s	s	11	1	SIC	459	ABS	0	0	3	1	24_3_1	NA	NA	0	1	2.12260293961	None	None	None	None	1
3.0.1	2019_Mar_07_1326	s	s	11	1	SIC	460	3_2	3	2	2	4	23_2_4	1	2	1	0	0.662872076035	395.0	-366.0	399.0	-374.0	1
3.0.1	2019_Mar_07_1326	s	s	11	1	SIC	461	ABS	0	0	3	2	24_3_2	NA	NA	0	1	2.24865913391	None	None	None	None	1
3.0.1	2019_Mar_07_1326	s	s	11	1	SIC	462	2_2	2	2	4	2	23_4_2	2	0	1	0	0.481515169144	295.0	143.0	287.0	152.0	1
3.0.1	2019_Mar_07_1326	s	s	11	1	SIC	463	ABS	0	0	4	2	24_4_2	NA	NA	0	1	0.746397018433	None	None	None	None	1
3.0.1	2019_Mar_07_1326	s	s	11	1	SIC	464	ABS	0	0	4	1	24_4_1	NA	NA	0	1	1.01089215279	None	None	None	None	1
3.0.1	2019_Mar_07_1326	s	s	11	1	SIC	465	ABS	0	0	2	4	24_2_4	NA	NA	0	1	0.975530862808	None	None	None	None	1
3.0.1	2019_Mar_07_1326	s	s	11	1	SIC	466	ABS	0	0	3	3	24_3_3	NA	NA	0	1	1.42904210091	None	None	None	None	1
3.0.1	2019_Mar_07_1326	s	s	11	1	SIC	467	4_4	4	4	1	4	23_1_4	3	0	1	0	0.696501016617	-520.0	-341.0	-514.0	-347.0	1
3.0.1	2019_Mar_07_1326	s	s	11	1	SIC	468	ABS	0	0	4	4	24_4_4	NA	NA	0	1	0.849481105804	None	None	None	None	1
3.0.1	2019_Mar_07_1326	s	s	11	1	SIC	469	4_3	4	3	3	2	23_3_2	1	1	1	0	0.646095991135	450.0	-54.0	458.0	-54.0	1
3.0.1	2019_Mar_07_1326	s	s	11	1	SIC	470	ABS	0	0	3	1	24_3_1	NA	NA	0	1	1.08986997604	None	None	None	None	1
3.0.1	2019_Mar_07_1326	s	s	11	1	SIC	471	ABS	0	0	3	4	24_3_4	NA	NA	0	1	1.12696695328	None	None	None	None	1
3.0.1	2019_Mar_07_1326	s	s	11	1	SIC	472	ABS	0	0	4	2	24_4_2	NA	NA	0	1	0.849043130875	None	None	None	None	1
3.0.1	2019_Mar_07_1326	s	s	11	1	SIC	473	1_4	1	4	3	2	23_3_2	2	2	1	0	0.719717979431	499.0	103.0	497.0	108.0	1
3.0.1	2019_Mar_07_1326	s	s	11	1	SIC	474	2_4	2	4	3	3	23_3_3	1	1	1	0	0.795109033585	-517.0	-386.0	-515.0	-382.0	1
3.0.1	2019_Mar_07_1326	s	s	11	1	SIC	475	2_1	2	1	3	2	23_3_2	1	1	1	0	0.533665180206	182.0	89.0	169.0	93.0	1
3.0.1	2019_Mar_07_1326	s	s	11	1	SIC	476	ABS	0	0	1	4	24_1_4	NA	NA	0	1	1.09801197052	None	None	None	None	1
3.0.1	2019_Mar_07_1326	s	s	11	1	SIC	477	3_1	3	1	2	2	23_2_2	1	1	1	0	0.563868045807	86.0	-132.0	79.0	-127.0	1
3.0.1	2019_Mar_07_1326	s	s	11	1	SIC	478	4_1	4	1	3	3	23_3_3	1	2	1	0	0.463172197342	-378.0	-134.0	-386.0	-130.0	1
3.0.1	2019_Mar_07_1326	s	s	11	1	SIC	479	1_1	1	1	3	2	23_3_2	2	1	1	0	0.778981924057	148.0	331.0	147.0	339.0	1
3.0.1	2019_Mar_07_1326	s	s	11	1	SIC	480	ABS	0	0	2	1	24_2_1	NA	NA	0	1	1.46037387848	None	None	None	None	1
