Version	Date	Stimuli	Method	Subject	Session	Condition	Trial	Target	TColor	TShape	DColor	DShape	Distractors	Channel1	Channel2	LMouseButton	RMouseButton	RT	TargetX	TargetY	ResponseX	ResponseY	Correct
3.0.1	2019_Mar_09_1739	s	s	11	3	Capacity	1	1_2	1	2	1	4	23_1_4	0	2	1	0	0.79652094841	183.0	-106.0	175.0	-104.0	1
3.0.1	2019_Mar_09_1739	s	s	11	3	Capacity	2	ABS	0	0	1	2	24_1_2	NA	NA	0	1	1.29302978516	None	None	None	None	1
3.0.1	2019_Mar_09_1739	s	s	11	3	Capacity	3	1_4	1	4	1	3	23_1_3	0	1	1	0	0.677474975586	-12.0	-8.0	-6.0	-9.0	1
3.0.1	2019_Mar_09_1739	s	s	11	3	Capacity	4	1_1	1	1	1	2	23_1_2	0	1	1	0	0.992128133774	-22.0	95.0	-17.0	99.0	1
3.0.1	2019_Mar_09_1739	s	s	11	3	Capacity	5	1_3	1	3	1	2	23_1_2	0	1	0	1	1.4436340332	7.0	389.0	None	None	0
3.0.1	2019_Mar_09_1739	s	s	11	3	Capacity	6	ABS	0	0	1	3	24_1_3	NA	NA	0	1	1.5330657959	None	None	None	None	1
3.0.1	2019_Mar_09_1739	s	s	11	3	Capacity	7	1_4	1	4	1	1	23_1_1	0	3	1	0	0.874418020248	-407.0	246.0	-407.0	254.0	1
3.0.1	2019_Mar_09_1739	s	s	11	3	Capacity	8	ABS	0	0	1	3	24_1_3	NA	NA	0	1	1.32833099365	None	None	None	None	1
3.0.1	2019_Mar_09_1739	s	s	11	3	Capacity	9	1_1	1	1	1	4	23_1_4	0	3	1	0	0.563893795013	-250.0	256.0	-248.0	256.0	1
3.0.1	2019_Mar_09_1739	s	s	11	3	Capacity	10	1_1	1	1	1	3	23_1_3	0	2	1	0	2.38456892967	6.0	79.0	11.0	79.0	1
3.0.1	2019_Mar_09_1739	s	s	11	3	Capacity	11	ABS	0	0	1	3	24_1_3	NA	NA	0	1	2.65050792694	None	None	None	None	1
3.0.1	2019_Mar_09_1739	s	s	11	3	Capacity	12	ABS	0	0	1	4	24_1_4	NA	NA	0	1	1.57535004616	None	None	None	None	1
3.0.1	2019_Mar_09_1739	s	s	11	3	Capacity	13	ABS	0	0	1	2	24_1_2	NA	NA	0	1	3.30910611153	None	None	None	None	1
3.0.1	2019_Mar_09_1739	s	s	11	3	Capacity	14	1_4	1	4	1	2	23_1_2	0	2	1	0	0.857894897461	193.0	281.0	190.0	280.0	1
3.0.1	2019_Mar_09_1739	s	s	11	3	Capacity	15	1_2	1	2	1	3	23_1_3	0	1	0	1	1.88568687439	189.0	-232.0	None	None	0
3.0.1	2019_Mar_09_1739	s	s	11	3	Capacity	16	ABS	0	0	1	4	24_1_4	NA	NA	0	1	2.02507901192	None	None	None	None	1
3.0.1	2019_Mar_09_1739	s	s	11	3	Capacity	17	ABS	0	0	1	1	24_1_1	NA	NA	0	1	1.26947999001	None	None	None	None	1
3.0.1	2019_Mar_09_1739	s	s	11	3	Capacity	18	1_2	1	2	1	1	23_1_1	0	-1	0	1	0.963752031326	192.0	-393.0	None	None	0
3.0.1	2019_Mar_09_1739	s	s	11	3	Capacity	19	1_3	1	3	1	1	23_1_1	0	2	0	1	1.06290602684	188.0	-276.0	None	None	0
3.0.1	2019_Mar_09_1739	s	s	11	3	Capacity	20	1_3	1	3	1	4	23_1_4	0	-1	1	0	1.04604005814	488.0	394.0	483.0	396.0	1
3.0.1	2019_Mar_09_1739	s	s	11	3	Capacity	21	ABS	0	0	1	2	24_1_2	NA	NA	0	1	1.88105177879	None	None	None	None	1
3.0.1	2019_Mar_09_1739	s	s	11	3	Capacity	22	ABS	0	0	1	4	24_1_4	NA	NA	0	1	1.29303216934	None	None	None	None	1
3.0.1	2019_Mar_09_1739	s	s	11	3	Capacity	23	ABS	0	0	1	1	24_1_1	NA	NA	0	1	0.881776094437	None	None	None	None	1
3.0.1	2019_Mar_09_1739	s	s	11	3	Capacity	24	ABS	0	0	1	1	24_1_1	NA	NA	0	1	0.846137046814	None	None	None	None	1
3.0.1	2019_Mar_09_1739	s	s	11	3	Capacity	25	ABS	0	0	1	4	24_1_4	NA	NA	0	1	1.60174489021	None	None	None	None	1
3.0.1	2019_Mar_09_1739	s	s	11	3	Capacity	26	1_1	1	1	1	2	23_1_2	0	1	0	1	2.05752587318	67.0	-287.0	None	None	0
3.0.1	2019_Mar_09_1739	s	s	11	3	Capacity	27	1_1	1	1	1	3	23_1_3	0	2	1	0	1.532558918	440.0	203.0	433.0	200.0	1
3.0.1	2019_Mar_09_1739	s	s	11	3	Capacity	28	1_4	1	4	1	1	23_1_1	0	3	1	0	0.775928974152	-204.0	-225.0	-205.0	-230.0	1
3.0.1	2019_Mar_09_1739	s	s	11	3	Capacity	29	ABS	0	0	1	2	24_1_2	NA	NA	0	1	1.8026099205	None	None	None	None	1
3.0.1	2019_Mar_09_1739	s	s	11	3	Capacity	30	ABS	0	0	1	4	24_1_4	NA	NA	0	1	1.20186901093	None	None	None	None	1
3.0.1	2019_Mar_09_1739	s	s	11	3	Capacity	31	1_1	1	1	1	4	23_1_4	0	3	1	0	0.849398851395	535.0	-28.0	534.0	-26.0	1
3.0.1	2019_Mar_09_1739	s	s	11	3	Capacity	32	ABS	0	0	1	1	24_1_1	NA	NA	0	1	1.02542090416	None	None	None	None	1
3.0.1	2019_Mar_09_1739	s	s	11	3	Capacity	33	ABS	0	0	1	3	24_1_3	NA	NA	0	1	1.42735385895	None	None	None	None	1
3.0.1	2019_Mar_09_1739	s	s	11	3	Capacity	34	ABS	0	0	1	4	24_1_4	NA	NA	0	1	1.23423600197	None	None	None	None	1
3.0.1	2019_Mar_09_1739	s	s	11	3	Capacity	35	ABS	0	0	1	3	24_1_3	NA	NA	0	1	2.74874591827	None	None	None	None	1
3.0.1	2019_Mar_09_1739	s	s	11	3	Capacity	36	1_4	1	4	1	2	23_1_2	0	2	1	0	1.51652908325	-386.0	-134.0	-388.0	-126.0	1
3.0.1	2019_Mar_09_1739	s	s	11	3	Capacity	37	1_2	1	2	1	1	23_1_1	0	-1	0	1	1.15215802193	-290.0	-388.0	None	None	0
3.0.1	2019_Mar_09_1739	s	s	11	3	Capacity	38	1_3	1	3	1	1	23_1_1	0	2	1	0	1.45037388802	437.0	63.0	433.0	60.0	1
3.0.1	2019_Mar_09_1739	s	s	11	3	Capacity	39	ABS	0	0	1	1	24_1_1	NA	NA	0	1	1.84066915512	None	None	None	None	1
3.0.1	2019_Mar_09_1739	s	s	11	3	Capacity	40	1_2	1	2	1	3	23_1_3	0	1	1	0	4.28434109688	491.0	352.0	486.0	347.0	1
3.0.1	2019_Mar_09_1739	s	s	11	3	Capacity	41	ABS	0	0	1	1	24_1_1	NA	NA	0	1	0.857862949371	None	None	None	None	1
3.0.1	2019_Mar_09_1739	s	s	11	3	Capacity	42	1_3	1	3	1	2	23_1_2	0	1	0	1	3.77949905396	235.0	-306.0	None	None	0
3.0.1	2019_Mar_09_1739	s	s	11	3	Capacity	43	1_3	1	3	1	4	23_1_4	0	-1	1	0	1.67426991463	218.0	350.0	222.0	348.0	1
3.0.1	2019_Mar_09_1739	s	s	11	3	Capacity	44	1_4	1	4	1	3	23_1_3	0	1	1	0	2.0927760601	-68.0	-268.0	-67.0	-277.0	1
3.0.1	2019_Mar_09_1739	s	s	11	3	Capacity	45	ABS	0	0	1	2	24_1_2	NA	NA	0	1	2.75830006599	None	None	None	None	1
3.0.1	2019_Mar_09_1739	s	s	11	3	Capacity	46	ABS	0	0	1	2	24_1_2	NA	NA	0	1	3.05036592484	None	None	None	None	1
3.0.1	2019_Mar_09_1739	s	s	11	3	Capacity	47	1_2	1	2	1	4	23_1_4	0	2	1	0	0.963741064072	338.0	-325.0	334.0	-329.0	1
3.0.1	2019_Mar_09_1739	s	s	11	3	Capacity	48	ABS	0	0	1	3	24_1_3	NA	NA	0	1	4.1274330616	None	None	None	None	1
3.0.1	2019_Mar_09_1739	s	s	11	3	Capacity	49	1_3	1	3	1	2	23_1_2	0	1	0	1	3.09260416031	-297.0	331.0	None	None	0
3.0.1	2019_Mar_09_1739	s	s	11	3	Capacity	50	ABS	0	0	1	2	24_1_2	NA	NA	0	1	2.70439219475	None	None	None	None	1
3.0.1	2019_Mar_09_1739	s	s	11	3	Capacity	51	1_4	1	4	1	2	23_1_2	0	2	1	0	0.673726081848	231.0	381.0	232.0	385.0	1
3.0.1	2019_Mar_09_1739	s	s	11	3	Capacity	52	ABS	0	0	1	3	24_1_3	NA	NA	0	1	2.42850899696	None	None	None	None	1
3.0.1	2019_Mar_09_1739	s	s	11	3	Capacity	53	1_2	1	2	1	3	23_1_3	0	1	1	0	4.30398488045	94.0	223.0	98.0	223.0	1
3.0.1	2019_Mar_09_1739	s	s	11	3	Capacity	54	ABS	0	0	1	1	24_1_1	NA	NA	0	1	1.48126602173	None	None	None	None	1
3.0.1	2019_Mar_09_1739	s	s	11	3	Capacity	55	ABS	0	0	1	2	24_1_2	NA	NA	0	1	2.85266208649	None	None	None	None	1
3.0.1	2019_Mar_09_1739	s	s	11	3	Capacity	56	1_4	1	4	1	1	23_1_1	0	3	1	0	0.603095054626	-323.0	191.0	-323.0	191.0	1
3.0.1	2019_Mar_09_1739	s	s	11	3	Capacity	57	1_4	1	4	1	3	23_1_3	0	1	1	0	0.940288066864	466.0	66.0	462.0	60.0	1
3.0.1	2019_Mar_09_1739	s	s	11	3	Capacity	58	ABS	0	0	1	3	24_1_3	NA	NA	0	1	1.28411602974	None	None	None	None	1
3.0.1	2019_Mar_09_1739	s	s	11	3	Capacity	59	1_3	1	3	1	1	23_1_1	0	2	1	0	1.17973899841	-2.0	218.0	4.0	209.0	1
3.0.1	2019_Mar_09_1739	s	s	11	3	Capacity	60	ABS	0	0	1	4	24_1_4	NA	NA	0	1	1.32821393013	None	None	None	None	1
3.0.1	2019_Mar_09_1739	s	s	11	3	Capacity	61	ABS	0	0	1	3	24_1_3	NA	NA	0	1	2.33376693726	None	None	None	None	1
3.0.1	2019_Mar_09_1739	s	s	11	3	Capacity	62	1_2	1	2	1	4	23_1_4	0	2	1	0	0.698586940765	-219.0	182.0	-217.0	181.0	1
3.0.1	2019_Mar_09_1739	s	s	11	3	Capacity	63	1_1	1	1	1	4	23_1_4	0	3	1	0	0.684124946594	154.0	-111.0	152.0	-106.0	1
3.0.1	2019_Mar_09_1739	s	s	11	3	Capacity	64	1_2	1	2	1	1	23_1_1	0	-1	0	1	2.18687486649	-73.0	-42.0	None	None	0
3.0.1	2019_Mar_09_1739	s	s	11	3	Capacity	65	ABS	0	0	1	1	24_1_1	NA	NA	0	1	1.30476903915	None	None	None	None	1
3.0.1	2019_Mar_09_1739	s	s	11	3	Capacity	66	ABS	0	0	1	1	24_1_1	NA	NA	0	1	0.945330142975	None	None	None	None	1
3.0.1	2019_Mar_09_1739	s	s	11	3	Capacity	67	1_1	1	1	1	3	23_1_3	0	2	1	0	1.62237095833	-90.0	-151.0	-99.0	-150.0	1
3.0.1	2019_Mar_09_1739	s	s	11	3	Capacity	68	1_1	1	1	1	2	23_1_2	0	1	1	0	1.51643490791	-116.0	240.0	-110.0	243.0	1
3.0.1	2019_Mar_09_1739	s	s	11	3	Capacity	69	1_3	1	3	1	4	23_1_4	0	-1	1	0	1.34508895874	-514.0	-268.0	-508.0	-266.0	1
3.0.1	2019_Mar_09_1739	s	s	11	3	Capacity	70	ABS	0	0	1	2	24_1_2	NA	NA	0	1	3.14252901077	None	None	None	None	1
3.0.1	2019_Mar_09_1739	s	s	11	3	Capacity	71	ABS	0	0	1	4	24_1_4	NA	NA	0	1	1.06287908554	None	None	None	None	1
3.0.1	2019_Mar_09_1739	s	s	11	3	Capacity	72	ABS	0	0	1	4	24_1_4	NA	NA	0	1	1.55466294289	None	None	None	None	1
3.0.1	2019_Mar_09_1739	s	s	11	3	Capacity	73	ABS	0	0	1	2	24_1_2	NA	NA	0	1	2.44567084312	None	None	None	None	1
3.0.1	2019_Mar_09_1739	s	s	11	3	Capacity	74	1_4	1	4	1	1	23_1_1	0	3	1	0	0.907826185226	-89.0	-262.0	-83.0	-255.0	1
3.0.1	2019_Mar_09_1739	s	s	11	3	Capacity	75	ABS	0	0	1	3	24_1_3	NA	NA	0	1	1.40353393555	None	None	None	None	1
3.0.1	2019_Mar_09_1739	s	s	11	3	Capacity	76	ABS	0	0	1	1	24_1_1	NA	NA	0	1	1.6272521019	None	None	None	None	1
3.0.1	2019_Mar_09_1739	s	s	11	3	Capacity	77	ABS	0	0	1	3	24_1_3	NA	NA	0	1	1.81564307213	None	None	None	None	1
3.0.1	2019_Mar_09_1739	s	s	11	3	Capacity	78	1_4	1	4	1	3	23_1_3	0	1	1	0	0.78090596199	-206.0	-194.0	-204.0	-189.0	1
3.0.1	2019_Mar_09_1739	s	s	11	3	Capacity	79	ABS	0	0	1	3	24_1_3	NA	NA	0	1	2.74339103699	None	None	None	None	1
3.0.1	2019_Mar_09_1739	s	s	11	3	Capacity	80	ABS	0	0	1	1	24_1_1	NA	NA	0	1	1.79281902313	None	None	None	None	1
3.0.1	2019_Mar_09_1739	s	s	11	3	Capacity	81	1_3	1	3	1	4	23_1_4	0	-1	1	0	1.57528805733	8.0	104.0	12.0	95.0	1
3.0.1	2019_Mar_09_1739	s	s	11	3	Capacity	82	1_1	1	1	1	4	23_1_4	0	3	1	0	0.709459066391	-469.0	-144.0	-465.0	-145.0	1
3.0.1	2019_Mar_09_1739	s	s	11	3	Capacity	83	1_2	1	2	1	1	23_1_1	0	-1	1	0	1.84250092506	43.0	89.0	52.0	95.0	1
3.0.1	2019_Mar_09_1739	s	s	11	3	Capacity	84	ABS	0	0	1	4	24_1_4	NA	NA	0	1	1.34005093575	None	None	None	None	1
3.0.1	2019_Mar_09_1739	s	s	11	3	Capacity	85	1_4	1	4	1	2	23_1_2	0	2	1	0	1.04914021492	248.0	341.0	245.0	332.0	1
3.0.1	2019_Mar_09_1739	s	s	11	3	Capacity	86	ABS	0	0	1	2	24_1_2	NA	NA	0	1	2.48782896996	None	None	None	None	1
3.0.1	2019_Mar_09_1739	s	s	11	3	Capacity	87	ABS	0	0	1	4	24_1_4	NA	NA	0	1	1.86939096451	None	None	None	None	1
3.0.1	2019_Mar_09_1739	s	s	11	3	Capacity	88	1_2	1	2	1	4	23_1_4	0	2	1	0	0.65810418129	-422.0	56.0	-415.0	53.0	1
3.0.1	2019_Mar_09_1739	s	s	11	3	Capacity	89	ABS	0	0	1	1	24_1_1	NA	NA	0	1	1.10758900642	None	None	None	None	1
3.0.1	2019_Mar_09_1739	s	s	11	3	Capacity	90	1_1	1	1	1	2	23_1_2	0	1	0	1	2.77494907379	-180.0	-192.0	None	None	0
3.0.1	2019_Mar_09_1739	s	s	11	3	Capacity	91	1_2	1	2	1	3	23_1_3	0	1	1	0	2.13982105255	-5.0	-354.0	0.0	-357.0	1
3.0.1	2019_Mar_09_1739	s	s	11	3	Capacity	92	ABS	0	0	1	2	24_1_2	NA	NA	0	1	1.46936917305	None	None	None	None	1
3.0.1	2019_Mar_09_1739	s	s	11	3	Capacity	93	1_1	1	1	1	3	23_1_3	0	2	1	0	1.55469584465	341.0	-33.0	333.0	-29.0	1
3.0.1	2019_Mar_09_1739	s	s	11	3	Capacity	94	ABS	0	0	1	4	24_1_4	NA	NA	0	1	1.02542805672	None	None	None	None	1
3.0.1	2019_Mar_09_1739	s	s	11	3	Capacity	95	1_3	1	3	1	1	23_1_1	0	2	0	1	0.881809949875	539.0	215.0	None	None	0
3.0.1	2019_Mar_09_1739	s	s	11	3	Capacity	96	1_3	1	3	1	2	23_1_2	0	1	0	1	2.96019792557	266.0	367.0	None	None	0
3.0.1	2019_Mar_09_1739	s	s	11	3	Capacity	1	4_1	4	1	2	1	23_2_1	2	0	1	0	0.52857208252	194.0	-300.0	196.0	-292.0	1
3.0.1	2019_Mar_09_1739	s	s	11	3	Capacity	2	ABS	0	0	2	1	24_2_1	NA	NA	0	1	0.966622114182	None	None	None	None	1
3.0.1	2019_Mar_09_1739	s	s	11	3	Capacity	3	1_1	1	1	4	1	23_4_1	3	0	1	0	0.499345064163	538.0	143.0	544.0	145.0	1
3.0.1	2019_Mar_09_1739	s	s	11	3	Capacity	4	ABS	0	0	1	1	24_1_1	NA	NA	0	1	0.822629928589	None	None	None	None	1
3.0.1	2019_Mar_09_1739	s	s	11	3	Capacity	5	ABS	0	0	3	1	24_3_1	NA	NA	0	1	0.863360881805	None	None	None	None	1
3.0.1	2019_Mar_09_1739	s	s	11	3	Capacity	6	2_1	2	1	3	1	23_3_1	1	0	1	0	0.758540153503	-531.0	-149.0	-529.0	-144.0	1
3.0.1	2019_Mar_09_1739	s	s	11	3	Capacity	7	ABS	0	0	2	1	24_2_1	NA	NA	0	1	0.881386995316	None	None	None	None	1
3.0.1	2019_Mar_09_1739	s	s	11	3	Capacity	8	ABS	0	0	4	1	24_4_1	NA	NA	0	1	0.650828123093	None	None	None	None	1
3.0.1	2019_Mar_09_1739	s	s	11	3	Capacity	9	1_1	1	1	3	1	23_3_1	2	0	1	0	0.752073049545	12.0	-291.0	26.0	-284.0	1
3.0.1	2019_Mar_09_1739	s	s	11	3	Capacity	10	ABS	0	0	4	1	24_4_1	NA	NA	0	1	0.752108097076	None	None	None	None	1
3.0.1	2019_Mar_09_1739	s	s	11	3	Capacity	11	3_1	3	1	4	1	23_4_1	-1	0	1	0	0.658318042755	-87.0	-287.0	-78.0	-288.0	1
3.0.1	2019_Mar_09_1739	s	s	11	3	Capacity	12	3_1	3	1	2	1	23_2_1	1	0	1	0	0.89945602417	-526.0	217.0	-523.0	213.0	1
3.0.1	2019_Mar_09_1739	s	s	11	3	Capacity	13	ABS	0	0	3	1	24_3_1	NA	NA	0	1	0.869598150253	None	None	None	None	1
3.0.1	2019_Mar_09_1739	s	s	11	3	Capacity	14	2_1	2	1	4	1	23_4_1	2	0	1	0	0.528533935547	-524.0	-9.0	-514.0	-6.0	1
3.0.1	2019_Mar_09_1739	s	s	11	3	Capacity	15	2_1	2	1	1	1	23_1_1	-1	0	0	1	0.963896036148	24.0	-52.0	None	None	0
3.0.1	2019_Mar_09_1739	s	s	11	3	Capacity	16	ABS	0	0	4	1	24_4_1	NA	NA	0	1	1.15810203552	None	None	None	None	1
3.0.1	2019_Mar_09_1739	s	s	11	3	Capacity	17	3_1	3	1	1	1	23_1_1	2	0	1	0	0.722083091736	225.0	-9.0	220.0	-6.0	1
3.0.1	2019_Mar_09_1739	s	s	11	3	Capacity	18	4_1	4	1	3	1	23_3_1	1	0	1	0	0.607093811035	-181.0	-341.0	-169.0	-335.0	1
3.0.1	2019_Mar_09_1739	s	s	11	3	Capacity	19	ABS	0	0	1	1	24_1_1	NA	NA	0	1	0.966628074646	None	None	None	None	1
3.0.1	2019_Mar_09_1739	s	s	11	3	Capacity	20	ABS	0	0	1	1	24_1_1	NA	NA	0	1	0.705046892166	None	None	None	None	1
3.0.1	2019_Mar_09_1739	s	s	11	3	Capacity	21	1_1	1	1	2	1	23_2_1	1	0	0	1	0.849020004272	-151.0	6.0	None	None	0
3.0.1	2019_Mar_09_1739	s	s	11	3	Capacity	22	4_1	4	1	1	1	23_1_1	3	0	1	0	0.505191087723	-385.0	62.0	-382.0	57.0	1
3.0.1	2019_Mar_09_1739	s	s	11	3	Capacity	23	ABS	0	0	3	1	24_3_1	NA	NA	0	1	0.82652592659	None	None	None	None	1
3.0.1	2019_Mar_09_1739	s	s	11	3	Capacity	24	ABS	0	0	2	1	24_2_1	NA	NA	0	1	0.799049854279	None	None	None	None	1
3.0.1	2019_Mar_09_1739	s	s	11	3	Capacity	25	2_1	2	1	4	1	23_4_1	2	0	1	0	0.650686979294	-474.0	241.0	-465.0	247.0	1
3.0.1	2019_Mar_09_1739	s	s	11	3	Capacity	26	ABS	0	0	4	1	24_4_1	NA	NA	0	1	0.731373786926	None	None	None	None	1
3.0.1	2019_Mar_09_1739	s	s	11	3	Capacity	27	ABS	0	0	3	1	24_3_1	NA	NA	0	1	0.657983064651	None	None	None	None	1
3.0.1	2019_Mar_09_1739	s	s	11	3	Capacity	28	3_1	3	1	4	1	23_4_1	-1	0	1	0	0.481571912766	-277.0	288.0	-280.0	284.0	1
3.0.1	2019_Mar_09_1739	s	s	11	3	Capacity	29	4_1	4	1	1	1	23_1_1	3	0	1	0	0.469811916351	0.0	70.0	10.0	70.0	1
3.0.1	2019_Mar_09_1739	s	s	11	3	Capacity	30	4_1	4	1	3	1	23_3_1	1	0	1	0	0.434481143951	-381.0	369.0	-372.0	371.0	1
3.0.1	2019_Mar_09_1739	s	s	11	3	Capacity	31	ABS	0	0	2	1	24_2_1	NA	NA	0	1	0.662800788879	None	None	None	None	1
3.0.1	2019_Mar_09_1739	s	s	11	3	Capacity	32	ABS	0	0	3	1	24_3_1	NA	NA	0	1	0.810817956924	None	None	None	None	1
3.0.1	2019_Mar_09_1739	s	s	11	3	Capacity	33	3_1	3	1	2	1	23_2_1	1	0	1	0	0.803961992264	490.0	-405.0	494.0	-409.0	1
3.0.1	2019_Mar_09_1739	s	s	11	3	Capacity	34	2_1	2	1	1	1	23_1_1	-1	0	0	1	0.763760089874	-354.0	11.0	None	None	0
3.0.1	2019_Mar_09_1739	s	s	11	3	Capacity	35	ABS	0	0	3	1	24_3_1	NA	NA	0	1	0.940216064453	None	None	None	None	1
3.0.1	2019_Mar_09_1739	s	s	11	3	Capacity	36	1_1	1	1	3	1	23_3_1	2	0	1	0	0.716956138611	336.0	331.0	335.0	339.0	1
3.0.1	2019_Mar_09_1739	s	s	11	3	Capacity	37	1_1	1	1	2	1	23_2_1	1	0	0	1	0.610934972763	-422.0	0.0	None	None	0
3.0.1	2019_Mar_09_1739	s	s	11	3	Capacity	38	ABS	0	0	2	1	24_2_1	NA	NA	0	1	0.86967086792	None	None	None	None	1
3.0.1	2019_Mar_09_1739	s	s	11	3	Capacity	39	3_1	3	1	1	1	23_1_1	2	0	1	0	0.605623960495	-100.0	364.0	-104.0	367.0	1
3.0.1	2019_Mar_09_1739	s	s	11	3	Capacity	40	ABS	0	0	1	1	24_1_1	NA	NA	0	1	1.21559500694	None	None	None	None	1
3.0.1	2019_Mar_09_1739	s	s	11	3	Capacity	41	ABS	0	0	4	1	24_4_1	NA	NA	0	1	1.03432297707	None	None	None	None	1
3.0.1	2019_Mar_09_1739	s	s	11	3	Capacity	42	ABS	0	0	2	1	24_2_1	NA	NA	0	1	0.66283082962	None	None	None	None	1
3.0.1	2019_Mar_09_1739	s	s	11	3	Capacity	43	4_1	4	1	2	1	23_2_1	2	0	1	0	0.578508138657	-520.0	254.0	-514.0	263.0	1
3.0.1	2019_Mar_09_1739	s	s	11	3	Capacity	44	ABS	0	0	4	1	24_4_1	NA	NA	0	1	0.862411975861	None	None	None	None	1
3.0.1	2019_Mar_09_1739	s	s	11	3	Capacity	45	2_1	2	1	3	1	23_3_1	1	0	1	0	1.23717498779	166.0	341.0	162.0	341.0	1
3.0.1	2019_Mar_09_1739	s	s	11	3	Capacity	46	ABS	0	0	1	1	24_1_1	NA	NA	0	1	0.693161964417	None	None	None	None	1
3.0.1	2019_Mar_09_1739	s	s	11	3	Capacity	47	1_1	1	1	4	1	23_4_1	3	0	1	0	0.562264919281	-32.0	38.0	-30.0	46.0	1
3.0.1	2019_Mar_09_1739	s	s	11	3	Capacity	48	ABS	0	0	1	1	24_1_1	NA	NA	0	1	0.696967124939	None	None	None	None	1
3.0.1	2019_Mar_09_1739	s	s	11	3	Capacity	49	ABS	0	0	4	1	24_4_1	NA	NA	0	1	0.723463058472	None	None	None	None	1
3.0.1	2019_Mar_09_1739	s	s	11	3	Capacity	50	3_1	3	1	2	1	23_2_1	1	0	1	0	1.01082801819	-534.0	-18.0	-531.0	-18.0	1
3.0.1	2019_Mar_09_1739	s	s	11	3	Capacity	51	ABS	0	0	4	1	24_4_1	NA	NA	0	1	0.677561044693	None	None	None	None	1
3.0.1	2019_Mar_09_1739	s	s	11	3	Capacity	52	ABS	0	0	3	1	24_3_1	NA	NA	0	1	0.9402551651	None	None	None	None	1
3.0.1	2019_Mar_09_1739	s	s	11	3	Capacity	53	1_1	1	1	3	1	23_3_1	2	0	1	0	0.634408950806	-242.0	41.0	-230.0	50.0	1
3.0.1	2019_Mar_09_1739	s	s	11	3	Capacity	54	ABS	0	0	1	1	24_1_1	NA	NA	0	1	0.688109874725	None	None	None	None	1
3.0.1	2019_Mar_09_1739	s	s	11	3	Capacity	55	4_1	4	1	1	1	23_1_1	3	0	1	0	0.481500148773	-284.0	280.0	-287.0	283.0	1
3.0.1	2019_Mar_09_1739	s	s	11	3	Capacity	56	3_1	3	1	1	1	23_1_1	2	0	1	0	0.952031135559	-257.0	-312.0	-254.0	-318.0	1
3.0.1	2019_Mar_09_1739	s	s	11	3	Capacity	57	ABS	0	0	3	1	24_3_1	NA	NA	0	1	2.08619093895	None	None	None	None	1
3.0.1	2019_Mar_09_1739	s	s	11	3	Capacity	58	2_1	2	1	3	1	23_3_1	1	0	1	0	1.56659698486	262.0	-253.0	267.0	-246.0	1
3.0.1	2019_Mar_09_1739	s	s	11	3	Capacity	59	ABS	0	0	1	1	24_1_1	NA	NA	0	1	1.78989005089	None	None	None	None	1
3.0.1	2019_Mar_09_1739	s	s	11	3	Capacity	60	4_1	4	1	2	1	23_2_1	2	0	1	0	0.540366888046	-80.0	-32.0	-75.0	-32.0	1
3.0.1	2019_Mar_09_1739	s	s	11	3	Capacity	61	ABS	0	0	2	1	24_2_1	NA	NA	0	1	1.3402299881	None	None	None	None	1
3.0.1	2019_Mar_09_1739	s	s	11	3	Capacity	62	2_1	2	1	1	1	23_1_1	-1	0	0	1	2.10454511642	-402.0	-187.0	None	None	0
3.0.1	2019_Mar_09_1739	s	s	11	3	Capacity	63	ABS	0	0	2	1	24_2_1	NA	NA	0	1	0.966620206833	None	None	None	None	1
3.0.1	2019_Mar_09_1739	s	s	11	3	Capacity	64	2_1	2	1	4	1	23_4_1	2	0	1	0	0.545299053192	533.0	-390.0	525.0	-385.0	1
3.0.1	2019_Mar_09_1739	s	s	11	3	Capacity	65	3_1	3	1	4	1	23_4_1	-1	0	1	0	0.672619104385	194.0	-219.0	191.0	-225.0	1
3.0.1	2019_Mar_09_1739	s	s	11	3	Capacity	66	ABS	0	0	2	1	24_2_1	NA	NA	0	1	0.886325120926	None	None	None	None	1
3.0.1	2019_Mar_09_1739	s	s	11	3	Capacity	67	ABS	0	0	4	1	24_4_1	NA	NA	0	1	0.796812057495	None	None	None	None	1
3.0.1	2019_Mar_09_1739	s	s	11	3	Capacity	68	ABS	0	0	1	1	24_1_1	NA	NA	0	1	0.731388807297	None	None	None	None	1
3.0.1	2019_Mar_09_1739	s	s	11	3	Capacity	69	4_1	4	1	3	1	23_3_1	1	0	1	0	0.717125892639	434.0	-342.0	427.0	-337.0	1
3.0.1	2019_Mar_09_1739	s	s	11	3	Capacity	70	ABS	0	0	3	1	24_3_1	NA	NA	0	1	0.896054029465	None	None	None	None	1
3.0.1	2019_Mar_09_1739	s	s	11	3	Capacity	71	1_1	1	1	4	1	23_4_1	3	0	1	0	0.534799098969	-228.0	24.0	-225.0	17.0	1
3.0.1	2019_Mar_09_1739	s	s	11	3	Capacity	72	1_1	1	1	2	1	23_2_1	1	0	0	1	0.810819864273	469.0	143.0	None	None	0
3.0.1	2019_Mar_09_1739	s	s	11	3	Capacity	73	ABS	0	0	1	1	24_1_1	NA	NA	0	1	0.721986055374	None	None	None	None	1
3.0.1	2019_Mar_09_1739	s	s	11	3	Capacity	74	2_1	2	1	3	1	23_3_1	1	0	1	0	0.822929143906	116.0	-186.0	122.0	-186.0	1
3.0.1	2019_Mar_09_1739	s	s	11	3	Capacity	75	1_1	1	1	3	1	23_3_1	2	0	1	0	1.14530801773	432.0	291.0	424.0	300.0	1
3.0.1	2019_Mar_09_1739	s	s	11	3	Capacity	76	3_1	3	1	1	1	23_1_1	2	0	1	0	0.709142923355	464.0	-74.0	467.0	-68.0	1
3.0.1	2019_Mar_09_1739	s	s	11	3	Capacity	77	ABS	0	0	4	1	24_4_1	NA	NA	0	1	0.757156848907	None	None	None	None	1
3.0.1	2019_Mar_09_1739	s	s	11	3	Capacity	78	ABS	0	0	2	1	24_2_1	NA	NA	0	1	0.716724157333	None	None	None	None	1
3.0.1	2019_Mar_09_1739	s	s	11	3	Capacity	79	1_1	1	1	4	1	23_4_1	3	0	1	0	0.672585964203	-57.0	-246.0	-60.0	-259.0	1
3.0.1	2019_Mar_09_1739	s	s	11	3	Capacity	80	ABS	0	0	4	1	24_4_1	NA	NA	0	1	0.650666952133	None	None	None	None	1
3.0.1	2019_Mar_09_1739	s	s	11	3	Capacity	81	2_1	2	1	1	1	23_1_1	-1	0	0	1	0.658070087433	71.0	269.0	None	None	0
3.0.1	2019_Mar_09_1739	s	s	11	3	Capacity	82	4_1	4	1	3	1	23_3_1	1	0	1	0	0.826798915863	445.0	280.0	442.0	289.0	1
3.0.1	2019_Mar_09_1739	s	s	11	3	Capacity	83	2_1	2	1	4	1	23_4_1	2	0	1	0	0.521899223328	-21.0	-283.0	-26.0	-284.0	1
3.0.1	2019_Mar_09_1739	s	s	11	3	Capacity	84	ABS	0	0	4	1	24_4_1	NA	NA	0	1	0.587356090546	None	None	None	None	1
3.0.1	2019_Mar_09_1739	s	s	11	3	Capacity	85	ABS	0	0	3	1	24_3_1	NA	NA	0	1	1.24602198601	None	None	None	None	1
3.0.1	2019_Mar_09_1739	s	s	11	3	Capacity	86	ABS	0	0	3	1	24_3_1	NA	NA	0	1	0.913240909576	None	None	None	None	1
3.0.1	2019_Mar_09_1739	s	s	11	3	Capacity	87	4_1	4	1	2	1	23_2_1	2	0	1	0	0.709850072861	505.0	-356.0	500.0	-347.0	1
3.0.1	2019_Mar_09_1739	s	s	11	3	Capacity	88	3_1	3	1	2	1	23_2_1	1	0	1	0	1.20182204247	284.0	260.0	279.0	269.0	1
3.0.1	2019_Mar_09_1739	s	s	11	3	Capacity	89	4_1	4	1	1	1	23_1_1	3	0	1	0	0.639532089233	99.0	90.0	96.0	90.0	1
3.0.1	2019_Mar_09_1739	s	s	11	3	Capacity	90	1_1	1	1	2	1	23_2_1	1	0	0	1	0.963827848434	504.0	-197.0	None	None	0
3.0.1	2019_Mar_09_1739	s	s	11	3	Capacity	91	ABS	0	0	1	1	24_1_1	NA	NA	0	1	0.987223148346	None	None	None	None	1
3.0.1	2019_Mar_09_1739	s	s	11	3	Capacity	92	ABS	0	0	3	1	24_3_1	NA	NA	0	1	1.20648789406	None	None	None	None	1
3.0.1	2019_Mar_09_1739	s	s	11	3	Capacity	93	ABS	0	0	2	1	24_2_1	NA	NA	0	1	0.787331819534	None	None	None	None	1
3.0.1	2019_Mar_09_1739	s	s	11	3	Capacity	94	ABS	0	0	2	1	24_2_1	NA	NA	0	1	1.08137917519	None	None	None	None	1
3.0.1	2019_Mar_09_1739	s	s	11	3	Capacity	95	ABS	0	0	1	1	24_1_1	NA	NA	0	1	0.719778060913	None	None	None	None	1
3.0.1	2019_Mar_09_1739	s	s	11	3	Capacity	96	3_1	3	1	4	1	23_4_1	-1	0	1	0	0.603888034821	-356.0	242.0	-361.0	238.0	1
3.0.1	2019_Mar_09_1739	s	s	11	3	SIC	1	ABS	0	0	3	2	24_3_2	NA	NA	0	1	2.1284070015	None	None	None	None	1
3.0.1	2019_Mar_09_1739	s	s	11	3	SIC	2	ABS	0	0	4	3	24_4_3	NA	NA	0	1	0.87436914444	None	None	None	None	1
3.0.1	2019_Mar_09_1739	s	s	11	3	SIC	3	ABS	0	0	3	3	24_3_3	NA	NA	0	1	1.86302185059	None	None	None	None	1
3.0.1	2019_Mar_09_1739	s	s	11	3	SIC	4	2_4	2	4	1	4	23_1_4	-1	0	0	1	1.53997206688	-177.0	-381.0	None	None	0
3.0.1	2019_Mar_09_1739	s	s	11	3	SIC	5	ABS	0	0	3	3	24_3_3	NA	NA	0	1	2.48101186752	None	None	None	None	1
3.0.1	2019_Mar_09_1739	s	s	11	3	SIC	6	ABS	0	0	4	2	24_4_2	NA	NA	0	1	4.17452192307	None	None	None	None	1
3.0.1	2019_Mar_09_1739	s	s	11	3	SIC	7	ABS	0	0	2	1	24_2_1	NA	NA	0	1	4.56783795357	None	None	None	None	1
3.0.1	2019_Mar_09_1739	s	s	11	3	SIC	8	ABS	0	0	1	3	24_1_3	NA	NA	0	1	5.20067691803	None	None	None	None	1
3.0.1	2019_Mar_09_1739	s	s	11	3	SIC	9	ABS	0	0	3	1	24_3_1	NA	NA	0	1	3.4571120739	None	None	None	None	1
3.0.1	2019_Mar_09_1739	s	s	11	3	SIC	10	1_2	1	2	2	2	23_2_2	1	0	0	1	4.37995696068	114.0	-236.0	None	None	0
3.0.1	2019_Mar_09_1739	s	s	11	3	SIC	11	ABS	0	0	4	3	24_4_3	NA	NA	0	1	3.12786507607	None	None	None	None	1
3.0.1	2019_Mar_09_1739	s	s	11	3	SIC	12	1_2	1	2	2	4	23_2_4	1	2	1	0	0.869609117508	440.0	-81.0	453.0	-73.0	1
3.0.1	2019_Mar_09_1739	s	s	11	3	SIC	13	ABS	0	0	4	2	24_4_2	NA	NA	0	1	2.46911787987	None	None	None	None	1
3.0.1	2019_Mar_09_1739	s	s	11	3	SIC	14	4_1	4	1	2	4	23_2_4	2	3	1	0	0.591565847397	359.0	-284.0	367.0	-284.0	1
3.0.1	2019_Mar_09_1739	s	s	11	3	SIC	15	ABS	0	0	1	3	24_1_3	NA	NA	0	1	3.90693092346	None	None	None	None	1
3.0.1	2019_Mar_09_1739	s	s	11	3	SIC	16	ABS	0	0	1	2	24_1_2	NA	NA	0	1	2.4984998703	None	None	None	None	1
3.0.1	2019_Mar_09_1739	s	s	11	3	SIC	17	4_2	4	2	1	4	23_1_4	3	2	1	0	0.52161693573	-446.0	-132.0	-443.0	-127.0	1
3.0.1	2019_Mar_09_1739	s	s	11	3	SIC	18	3_4	3	4	4	4	23_4_4	-1	0	1	0	0.681524991989	351.0	324.0	344.0	332.0	1
3.0.1	2019_Mar_09_1739	s	s	11	3	SIC	19	ABS	0	0	4	2	24_4_2	NA	NA	0	1	5.15567302704	None	None	None	None	1
3.0.1	2019_Mar_09_1739	s	s	11	3	SIC	20	4_4	4	4	3	4	23_3_4	1	0	1	0	0.86276102066	246.0	398.0	236.0	397.0	1
3.0.1	2019_Mar_09_1739	s	s	11	3	SIC	21	1_1	1	1	3	2	23_3_2	2	1	1	0	0.790190935135	-207.0	-212.0	-211.0	-211.0	1
3.0.1	2019_Mar_09_1739	s	s	11	3	SIC	22	ABS	0	0	1	1	24_1_1	NA	NA	0	1	2.13709306717	None	None	None	None	1
3.0.1	2019_Mar_09_1739	s	s	11	3	SIC	23	ABS	0	0	4	1	24_4_1	NA	NA	0	1	1.39884781837	None	None	None	None	1
3.0.1	2019_Mar_09_1739	s	s	11	3	SIC	24	2_3	2	3	4	3	23_4_3	2	0	1	0	0.693201065063	-489.0	-388.0	-495.0	-380.0	1
3.0.1	2019_Mar_09_1739	s	s	11	3	SIC	25	3_1	3	1	1	4	23_1_4	2	3	1	0	0.540326833725	495.0	315.0	501.0	311.0	1
3.0.1	2019_Mar_09_1739	s	s	11	3	SIC	26	ABS	0	0	3	2	24_3_2	NA	NA	0	1	2.30963897705	None	None	None	None	1
3.0.1	2019_Mar_09_1739	s	s	11	3	SIC	27	ABS	0	0	4	3	24_4_3	NA	NA	0	1	2.02507209778	None	None	None	None	1
3.0.1	2019_Mar_09_1739	s	s	11	3	SIC	28	ABS	0	0	2	3	24_2_3	NA	NA	0	1	2.4144089222	None	None	None	None	1
3.0.1	2019_Mar_09_1739	s	s	11	3	SIC	29	1_4	1	4	4	2	23_4_2	3	2	1	0	0.650256872177	148.0	333.0	140.0	337.0	1
3.0.1	2019_Mar_09_1739	s	s	11	3	SIC	30	1_3	1	3	3	1	23_3_1	2	2	1	0	0.752039909363	-29.0	-154.0	-38.0	-152.0	1
3.0.1	2019_Mar_09_1739	s	s	11	3	SIC	31	4_4	4	4	4	1	23_4_1	0	3	1	0	0.754916906357	-496.0	-313.0	-500.0	-311.0	1
3.0.1	2019_Mar_09_1739	s	s	11	3	SIC	32	1_2	1	2	3	3	23_3_3	2	1	1	0	0.563848018646	-187.0	-20.0	-183.0	-20.0	1
3.0.1	2019_Mar_09_1739	s	s	11	3	SIC	33	3_4	3	4	4	1	23_4_1	-1	3	1	0	0.457966089249	-105.0	52.0	-97.0	51.0	1
3.0.1	2019_Mar_09_1739	s	s	11	3	SIC	34	2_2	2	2	2	3	23_2_3	0	1	1	0	2.78202986717	104.0	-73.0	106.0	-68.0	1
3.0.1	2019_Mar_09_1739	s	s	11	3	SIC	35	ABS	0	0	3	4	24_3_4	NA	NA	0	1	1.03427004814	None	None	None	None	1
3.0.1	2019_Mar_09_1739	s	s	11	3	SIC	36	ABS	0	0	2	3	24_2_3	NA	NA	0	1	2.27517819405	None	None	None	None	1
3.0.1	2019_Mar_09_1739	s	s	11	3	SIC	37	3_1	3	1	3	4	23_3_4	0	3	1	0	0.540353059769	88.0	-83.0	88.0	-75.0	1
3.0.1	2019_Mar_09_1739	s	s	11	3	SIC	38	2_3	2	3	1	3	23_1_3	-1	0	0	1	2.51895284653	135.0	169.0	None	None	0
3.0.1	2019_Mar_09_1739	s	s	11	3	SIC	39	3_3	3	3	4	4	23_4_4	-1	-1	1	0	0.605797052383	313.0	116.0	317.0	118.0	1
3.0.1	2019_Mar_09_1739	s	s	11	3	SIC	40	2_1	2	1	2	3	23_2_3	0	2	1	0	0.795531988144	227.0	327.0	225.0	321.0	1
3.0.1	2019_Mar_09_1739	s	s	11	3	SIC	41	ABS	0	0	1	4	24_1_4	NA	NA	0	1	1.1048309803	None	None	None	None	1
3.0.1	2019_Mar_09_1739	s	s	11	3	SIC	42	ABS	0	0	3	2	24_3_2	NA	NA	0	1	3.72096300125	None	None	None	None	1
3.0.1	2019_Mar_09_1739	s	s	11	3	SIC	43	4_3	4	3	4	1	23_4_1	0	2	1	0	1.20453596115	130.0	-109.0	127.0	-107.0	1
3.0.1	2019_Mar_09_1739	s	s	11	3	SIC	44	1_1	1	1	4	2	23_4_2	3	1	1	0	0.51682305336	-133.0	-291.0	-131.0	-295.0	1
3.0.1	2019_Mar_09_1739	s	s	11	3	SIC	45	1_1	1	1	2	3	23_2_3	1	2	0	1	1.42900300026	398.0	402.0	None	None	0
3.0.1	2019_Mar_09_1739	s	s	11	3	SIC	46	4_1	4	1	2	3	23_2_3	2	2	1	0	0.521024942398	-231.0	-142.0	-226.0	-140.0	1
3.0.1	2019_Mar_09_1739	s	s	11	3	SIC	47	3_4	3	4	3	1	23_3_1	0	3	1	0	0.782096147537	308.0	-138.0	298.0	-133.0	1
3.0.1	2019_Mar_09_1739	s	s	11	3	SIC	48	3_1	3	1	3	2	23_3_2	0	1	1	0	2.53973412514	538.0	-303.0	541.0	-301.0	1
3.0.1	2019_Mar_09_1739	s	s	11	3	SIC	49	1_2	1	2	4	2	23_4_2	3	0	1	0	0.555000066757	465.0	375.0	467.0	366.0	1
3.0.1	2019_Mar_09_1739	s	s	11	3	SIC	50	1_2	1	2	1	3	23_1_3	0	1	1	0	2.25746202469	300.0	-185.0	300.0	-176.0	1
3.0.1	2019_Mar_09_1739	s	s	11	3	SIC	51	ABS	0	0	4	1	24_4_1	NA	NA	0	1	1.05079197884	None	None	None	None	1
3.0.1	2019_Mar_09_1739	s	s	11	3	SIC	52	2_2	2	2	1	4	23_1_4	-1	2	1	0	0.782067060471	-399.0	-48.0	-399.0	-50.0	1
3.0.1	2019_Mar_09_1739	s	s	11	3	SIC	53	ABS	0	0	1	2	24_1_2	NA	NA	0	1	1.77523303032	None	None	None	None	1
3.0.1	2019_Mar_09_1739	s	s	11	3	SIC	54	ABS	0	0	1	3	24_1_3	NA	NA	0	1	3.12784481049	None	None	None	None	1
3.0.1	2019_Mar_09_1739	s	s	11	3	SIC	55	ABS	0	0	3	3	24_3_3	NA	NA	0	1	2.5543859005	None	None	None	None	1
3.0.1	2019_Mar_09_1739	s	s	11	3	SIC	56	2_3	2	3	4	4	23_4_4	2	-1	1	0	0.569706916809	169.0	346.0	177.0	351.0	1
3.0.1	2019_Mar_09_1739	s	s	11	3	SIC	57	3_1	3	1	2	3	23_2_3	1	2	1	0	0.634428024292	250.0	174.0	252.0	179.0	1
3.0.1	2019_Mar_09_1739	s	s	11	3	SIC	58	1_1	1	1	4	3	23_4_3	3	2	1	0	0.481523990631	-427.0	196.0	-425.0	201.0	1
3.0.1	2019_Mar_09_1739	s	s	11	3	SIC	59	2_1	2	1	1	2	23_1_2	-1	1	1	0	1.03917694092	233.0	251.0	234.0	247.0	1
3.0.1	2019_Mar_09_1739	s	s	11	3	SIC	60	ABS	0	0	2	2	24_2_2	NA	NA	0	1	3.30020308495	None	None	None	None	1
3.0.1	2019_Mar_09_1739	s	s	11	3	SIC	61	ABS	0	0	4	4	24_4_4	NA	NA	0	1	0.999125957489	None	None	None	None	1
3.0.1	2019_Mar_09_1739	s	s	11	3	SIC	62	1_2	1	2	4	1	23_4_1	3	-1	1	0	0.672639846802	-456.0	-79.0	-459.0	-69.0	1
3.0.1	2019_Mar_09_1739	s	s	11	3	SIC	63	3_2	3	2	2	3	23_2_3	1	1	1	0	0.921822071075	-205.0	-161.0	-210.0	-157.0	1
3.0.1	2019_Mar_09_1739	s	s	11	3	SIC	64	ABS	0	0	2	1	24_2_1	NA	NA	0	1	1.26407289505	None	None	None	None	1
3.0.1	2019_Mar_09_1739	s	s	11	3	SIC	65	ABS	0	0	1	2	24_1_2	NA	NA	0	1	1.42897200584	None	None	None	None	1
3.0.1	2019_Mar_09_1739	s	s	11	3	SIC	66	3_2	3	2	2	2	23_2_2	1	0	1	0	0.775570869446	484.0	338.0	478.0	330.0	1
3.0.1	2019_Mar_09_1739	s	s	11	3	SIC	67	ABS	0	0	4	4	24_4_4	NA	NA	0	1	0.763783931732	None	None	None	None	1
3.0.1	2019_Mar_09_1739	s	s	11	3	SIC	68	1_2	1	2	3	1	23_3_1	2	-1	1	0	0.723448038101	-121.0	-135.0	-119.0	-140.0	1
3.0.1	2019_Mar_09_1739	s	s	11	3	SIC	69	3_3	3	3	2	4	23_2_4	1	-1	1	0	0.638518095016	-133.0	-275.0	-136.0	-285.0	1
3.0.1	2019_Mar_09_1739	s	s	11	3	SIC	70	2_4	2	4	2	1	23_2_1	0	3	1	0	1.07500505447	325.0	347.0	325.0	350.0	1
3.0.1	2019_Mar_09_1739	s	s	11	3	SIC	71	ABS	0	0	2	3	24_2_3	NA	NA	0	1	1.50246500969	None	None	None	None	1
3.0.1	2019_Mar_09_1739	s	s	11	3	SIC	72	ABS	0	0	1	4	24_1_4	NA	NA	0	1	1.20191192627	None	None	None	None	1
3.0.1	2019_Mar_09_1739	s	s	11	3	SIC	73	4_4	4	4	3	3	23_3_3	1	1	1	0	0.67816901207	-352.0	299.0	-347.0	305.0	1
3.0.1	2019_Mar_09_1739	s	s	11	3	SIC	74	3_1	3	1	1	2	23_1_2	2	1	1	0	0.58732509613	240.0	-60.0	234.0	-62.0	1
3.0.1	2019_Mar_09_1739	s	s	11	3	SIC	75	1_4	1	4	1	2	23_1_2	0	2	1	0	1.63406395912	-79.0	-23.0	-82.0	-32.0	1
3.0.1	2019_Mar_09_1739	s	s	11	3	SIC	76	4_3	4	3	4	2	23_4_2	0	1	0	1	1.02255105972	161.0	267.0	None	None	0
3.0.1	2019_Mar_09_1739	s	s	11	3	SIC	77	ABS	0	0	4	4	24_4_4	NA	NA	0	1	0.843420982361	None	None	None	None	1
3.0.1	2019_Mar_09_1739	s	s	11	3	SIC	78	ABS	0	0	2	3	24_2_3	NA	NA	0	1	1.31948804855	None	None	None	None	1
3.0.1	2019_Mar_09_1739	s	s	11	3	SIC	79	1_3	1	3	3	4	23_3_4	2	-1	1	0	0.57560801506	-131.0	-117.0	-124.0	-114.0	1
3.0.1	2019_Mar_09_1739	s	s	11	3	SIC	80	3_1	3	1	1	1	23_1_1	2	0	1	0	0.851337909698	516.0	169.0	513.0	172.0	1
3.0.1	2019_Mar_09_1739	s	s	11	3	SIC	81	1_3	1	3	2	1	23_2_1	1	2	1	0	1.4812271595	-251.0	-37.0	-260.0	-34.0	1
3.0.1	2019_Mar_09_1739	s	s	11	3	SIC	82	ABS	0	0	3	1	24_3_1	NA	NA	0	1	1.12847399712	None	None	None	None	1
3.0.1	2019_Mar_09_1739	s	s	11	3	SIC	83	3_4	3	4	2	1	23_2_1	1	3	1	0	0.881453990936	-319.0	-268.0	-313.0	-258.0	1
3.0.1	2019_Mar_09_1739	s	s	11	3	SIC	84	ABS	0	0	1	2	24_1_2	NA	NA	1	0	0.881443977356	None	None	-196.0	-40.0	0
3.0.1	2019_Mar_09_1739	s	s	11	3	SIC	85	ABS	0	0	2	3	24_2_3	NA	NA	0	1	2.0391740799	None	None	None	None	1
3.0.1	2019_Mar_09_1739	s	s	11	3	SIC	86	ABS	0	0	3	2	24_3_2	NA	NA	0	1	2.06158399582	None	None	None	None	1
3.0.1	2019_Mar_09_1739	s	s	11	3	SIC	87	1_2	1	2	1	4	23_1_4	0	2	1	0	0.622681856155	-282.0	63.0	-280.0	55.0	1
3.0.1	2019_Mar_09_1739	s	s	11	3	SIC	88	ABS	0	0	2	2	24_2_2	NA	NA	0	1	1.14863801003	None	None	None	None	1
3.0.1	2019_Mar_09_1739	s	s	11	3	SIC	89	ABS	0	0	2	3	24_2_3	NA	NA	0	1	1.23422312737	None	None	None	None	1
3.0.1	2019_Mar_09_1739	s	s	11	3	SIC	90	ABS	0	0	4	4	24_4_4	NA	NA	0	1	0.710088014603	None	None	None	None	1
3.0.1	2019_Mar_09_1739	s	s	11	3	SIC	91	3_2	3	2	1	4	23_1_4	2	2	1	0	0.76785492897	430.0	-393.0	432.0	-402.0	1
3.0.1	2019_Mar_09_1739	s	s	11	3	SIC	92	4_1	4	1	1	1	23_1_1	3	0	1	0	0.505039930344	339.0	-25.0	346.0	-23.0	1
3.0.1	2019_Mar_09_1739	s	s	11	3	SIC	93	ABS	0	0	4	3	24_4_3	NA	NA	0	1	0.822558164597	None	None	None	None	1
3.0.1	2019_Mar_09_1739	s	s	11	3	SIC	94	2_4	2	4	2	3	23_2_3	0	1	1	0	1.05796694756	478.0	-311.0	474.0	-305.0	1
3.0.1	2019_Mar_09_1739	s	s	11	3	SIC	95	ABS	0	0	3	1	24_3_1	NA	NA	0	1	0.907813072205	None	None	None	None	1
3.0.1	2019_Mar_09_1739	s	s	11	3	SIC	96	ABS	0	0	4	1	24_4_1	NA	NA	0	1	0.763803005219	None	None	None	None	1
3.0.1	2019_Mar_09_1739	s	s	11	3	SIC	97	2_1	2	1	2	2	23_2_2	0	1	1	0	1.49814510345	536.0	-195.0	533.0	-185.0	1
3.0.1	2019_Mar_09_1739	s	s	11	3	SIC	98	ABS	0	0	3	3	24_3_3	NA	NA	0	1	1.61089611053	None	None	None	None	1
3.0.1	2019_Mar_09_1739	s	s	11	3	SIC	99	ABS	0	0	1	1	24_1_1	NA	NA	0	1	1.20596885681	None	None	None	None	1
3.0.1	2019_Mar_09_1739	s	s	11	3	SIC	100	4_4	4	4	1	3	23_1_3	3	1	1	0	0.510207176208	-122.0	265.0	-122.0	272.0	1
3.0.1	2019_Mar_09_1739	s	s	11	3	SIC	101	1_2	1	2	3	2	23_3_2	2	0	1	0	0.796928167343	-12.0	-360.0	-14.0	-370.0	1
3.0.1	2019_Mar_09_1739	s	s	11	3	SIC	102	4_4	4	4	1	2	23_1_2	3	2	1	0	0.502249956131	-321.0	-273.0	-322.0	-270.0	1
3.0.1	2019_Mar_09_1739	s	s	11	3	SIC	103	2_4	2	4	3	3	23_3_3	1	1	1	0	0.516819000244	-420.0	-24.0	-416.0	-27.0	1
3.0.1	2019_Mar_09_1739	s	s	11	3	SIC	104	ABS	0	0	2	2	24_2_2	NA	NA	0	1	2.29278588295	None	None	None	None	1
3.0.1	2019_Mar_09_1739	s	s	11	3	SIC	105	ABS	0	0	4	2	24_4_2	NA	NA	0	1	1.0852060318	None	None	None	None	1
3.0.1	2019_Mar_09_1739	s	s	11	3	SIC	106	2_3	2	3	1	2	23_1_2	-1	1	0	1	2.70859003067	-158.0	337.0	None	None	0
3.0.1	2019_Mar_09_1739	s	s	11	3	SIC	107	ABS	0	0	4	1	24_4_1	NA	NA	0	1	1.52826285362	None	None	None	None	1
3.0.1	2019_Mar_09_1739	s	s	11	3	SIC	108	ABS	0	0	2	4	24_2_4	NA	NA	0	1	1.28598308563	None	None	None	None	1
3.0.1	2019_Mar_09_1739	s	s	11	3	SIC	109	1_4	1	4	2	3	23_2_3	1	1	1	0	1.61353516579	80.0	229.0	89.0	234.0	1
3.0.1	2019_Mar_09_1739	s	s	11	3	SIC	110	ABS	0	0	4	2	24_4_2	NA	NA	0	1	1.52816486359	None	None	None	None	1
3.0.1	2019_Mar_09_1739	s	s	11	3	SIC	111	3_1	3	1	3	3	23_3_3	0	2	1	0	1.34045314789	-130.0	334.0	-136.0	341.0	1
3.0.1	2019_Mar_09_1739	s	s	11	3	SIC	112	ABS	0	0	4	4	24_4_4	NA	NA	0	1	0.999011993408	None	None	None	None	1
3.0.1	2019_Mar_09_1739	s	s	11	3	SIC	113	3_4	3	4	3	2	23_3_2	0	2	1	0	1.64589309692	-409.0	-209.0	-404.0	-209.0	1
3.0.1	2019_Mar_09_1739	s	s	11	3	SIC	114	4_1	4	1	4	3	23_4_3	0	2	1	0	1.69566893578	-489.0	-141.0	-484.0	-141.0	1
3.0.1	2019_Mar_09_1739	s	s	11	3	SIC	115	4_1	4	1	4	2	23_4_2	0	1	1	0	2.4610748291	-84.0	7.0	-80.0	9.0	1
3.0.1	2019_Mar_09_1739	s	s	11	3	SIC	116	ABS	0	0	2	4	24_2_4	NA	NA	0	1	1.23814201355	None	None	None	None	1
3.0.1	2019_Mar_09_1739	s	s	11	3	SIC	117	ABS	0	0	2	3	24_2_3	NA	NA	0	1	2.02223277092	None	None	None	None	1
3.0.1	2019_Mar_09_1739	s	s	11	3	SIC	118	ABS	0	0	1	4	24_1_4	NA	NA	0	1	0.909874916077	None	None	None	None	1
3.0.1	2019_Mar_09_1739	s	s	11	3	SIC	119	1_3	1	3	1	4	23_1_4	0	-1	1	0	0.857946157455	147.0	297.0	151.0	292.0	1
3.0.1	2019_Mar_09_1739	s	s	11	3	SIC	120	4_4	4	4	2	2	23_2_2	2	2	1	0	0.545747041702	-223.0	112.0	-217.0	106.0	1
3.0.1	2019_Mar_09_1739	s	s	11	3	SIC	121	2_1	2	1	1	1	23_1_1	-1	0	0	1	1.05783605576	420.0	-35.0	None	None	0
3.0.1	2019_Mar_09_1739	s	s	11	3	SIC	122	3_3	3	3	3	4	23_3_4	0	-1	1	0	0.855180025101	354.0	-89.0	364.0	-86.0	1
3.0.1	2019_Mar_09_1739	s	s	11	3	SIC	123	2_2	2	2	4	2	23_4_2	2	0	1	0	0.481529951096	16.0	294.0	11.0	286.0	1
3.0.1	2019_Mar_09_1739	s	s	11	3	SIC	124	2_4	2	4	2	2	23_2_2	0	2	1	0	0.591452121735	242.0	-61.0	234.0	-53.0	1
3.0.1	2019_Mar_09_1739	s	s	11	3	SIC	125	1_4	1	4	2	4	23_2_4	1	0	0	1	0.693171024323	-114.0	38.0	None	None	0
3.0.1	2019_Mar_09_1739	s	s	11	3	SIC	126	ABS	0	0	2	2	24_2_2	NA	NA	0	1	1.59923005104	None	None	None	None	1
3.0.1	2019_Mar_09_1739	s	s	11	3	SIC	127	ABS	0	0	1	4	24_1_4	NA	NA	0	1	0.767694950104	None	None	None	None	1
3.0.1	2019_Mar_09_1739	s	s	11	3	SIC	128	4_1	4	1	1	2	23_1_2	3	1	1	0	0.57848405838	-30.0	-114.0	-35.0	-108.0	1
3.0.1	2019_Mar_09_1739	s	s	11	3	SIC	129	4_2	4	2	2	4	23_2_4	2	2	1	0	0.481564044952	165.0	-295.0	165.0	-300.0	1
3.0.1	2019_Mar_09_1739	s	s	11	3	SIC	130	ABS	0	0	2	4	24_2_4	NA	NA	0	1	0.619463920593	None	None	None	None	1
3.0.1	2019_Mar_09_1739	s	s	11	3	SIC	131	ABS	0	0	1	3	24_1_3	NA	NA	0	1	1.48509001732	None	None	None	None	1
3.0.1	2019_Mar_09_1739	s	s	11	3	SIC	132	ABS	0	0	2	1	24_2_1	NA	NA	0	1	1.05782198906	None	None	None	None	1
3.0.1	2019_Mar_09_1739	s	s	11	3	SIC	133	ABS	0	0	2	2	24_2_2	NA	NA	0	1	2.16333198547	None	None	None	None	1
3.0.1	2019_Mar_09_1739	s	s	11	3	SIC	134	3_1	3	1	2	4	23_2_4	1	3	1	0	0.69325709343	212.0	267.0	202.0	275.0	1
3.0.1	2019_Mar_09_1739	s	s	11	3	SIC	135	ABS	0	0	1	1	24_1_1	NA	NA	0	1	0.861110925674	None	None	None	None	1
3.0.1	2019_Mar_09_1739	s	s	11	3	SIC	136	ABS	0	0	4	3	24_4_3	NA	NA	0	1	1.79497599602	None	None	None	None	1
3.0.1	2019_Mar_09_1739	s	s	11	3	SIC	137	ABS	0	0	1	2	24_1_2	NA	NA	0	1	1.90754199028	None	None	None	None	1
3.0.1	2019_Mar_09_1739	s	s	11	3	SIC	138	ABS	0	0	4	4	24_4_4	NA	NA	0	1	0.827792882919	None	None	None	None	1
3.0.1	2019_Mar_09_1739	s	s	11	3	SIC	139	1_3	1	3	4	3	23_4_3	3	0	1	0	0.613794088364	-214.0	98.0	-221.0	92.0	1
3.0.1	2019_Mar_09_1739	s	s	11	3	SIC	140	ABS	0	0	1	2	24_1_2	NA	NA	0	1	1.73113298416	None	None	None	None	1
3.0.1	2019_Mar_09_1739	s	s	11	3	SIC	141	1_3	1	3	2	2	23_2_2	1	1	1	0	3.15144014359	205.0	-299.0	200.0	-296.0	1
3.0.1	2019_Mar_09_1739	s	s	11	3	SIC	142	ABS	0	0	1	1	24_1_1	NA	NA	0	1	0.854158163071	None	None	None	None	1
3.0.1	2019_Mar_09_1739	s	s	11	3	SIC	143	ABS	0	0	4	2	24_4_2	NA	NA	0	1	2.46934294701	None	None	None	None	1
3.0.1	2019_Mar_09_1739	s	s	11	3	SIC	144	ABS	0	0	2	4	24_2_4	NA	NA	0	1	0.89316701889	None	None	None	None	1
3.0.1	2019_Mar_09_1739	s	s	11	3	SIC	145	3_3	3	3	1	2	23_1_2	2	1	1	0	0.721760034561	352.0	128.0	355.0	126.0	1
3.0.1	2019_Mar_09_1739	s	s	11	3	SIC	146	ABS	0	0	2	4	24_2_4	NA	NA	0	1	0.693214893341	None	None	None	None	1
3.0.1	2019_Mar_09_1739	s	s	11	3	SIC	147	1_4	1	4	3	4	23_3_4	2	0	1	0	1.04607510567	110.0	82.0	110.0	77.0	1
3.0.1	2019_Mar_09_1739	s	s	11	3	SIC	148	ABS	0	0	3	1	24_3_1	NA	NA	0	1	0.679276943207	None	None	None	None	1
3.0.1	2019_Mar_09_1739	s	s	11	3	SIC	149	ABS	0	0	3	4	24_3_4	NA	NA	0	1	0.587303876877	None	None	None	None	1
3.0.1	2019_Mar_09_1739	s	s	11	3	SIC	150	ABS	0	0	2	4	24_2_4	NA	NA	0	1	0.613754987717	None	None	None	None	1
3.0.1	2019_Mar_09_1739	s	s	11	3	SIC	151	4_3	4	3	3	4	23_3_4	1	-1	1	0	0.580935001373	-18.0	262.0	-10.0	265.0	1
3.0.1	2019_Mar_09_1739	s	s	11	3	SIC	152	ABS	0	0	4	1	24_4_1	NA	NA	0	1	0.599594831467	None	None	None	None	1
3.0.1	2019_Mar_09_1739	s	s	11	3	SIC	153	ABS	0	0	4	3	24_4_3	NA	NA	0	1	1.08648896217	None	None	None	None	1
3.0.1	2019_Mar_09_1739	s	s	11	3	SIC	154	3_1	3	1	2	2	23_2_2	1	1	1	0	0.639181137085	161.0	34.0	165.0	37.0	1
3.0.1	2019_Mar_09_1739	s	s	11	3	SIC	155	4_3	4	3	3	3	23_3_3	1	0	1	0	0.563850879669	-525.0	-350.0	-530.0	-342.0	1
3.0.1	2019_Mar_09_1739	s	s	11	3	SIC	156	4_2	4	2	1	3	23_1_3	3	1	1	0	0.443795919418	19.0	205.0	30.0	213.0	1
3.0.1	2019_Mar_09_1739	s	s	11	3	SIC	157	4_1	4	1	3	3	23_3_3	1	2	1	0	0.496167898178	-16.0	-314.0	-22.0	-306.0	1
3.0.1	2019_Mar_09_1739	s	s	11	3	SIC	158	1_2	1	2	4	3	23_4_3	3	1	1	0	0.516807079315	318.0	294.0	318.0	295.0	1
3.0.1	2019_Mar_09_1739	s	s	11	3	SIC	159	3_2	3	2	4	2	23_4_2	-1	0	1	0	0.505057096481	328.0	-147.0	328.0	-148.0	1
3.0.1	2019_Mar_09_1739	s	s	11	3	SIC	160	3_2	3	2	3	4	23_3_4	0	2	1	0	0.768674135208	32.0	42.0	29.0	40.0	1
3.0.1	2019_Mar_09_1739	s	s	11	3	SIC	161	4_2	4	2	3	2	23_3_2	1	0	1	0	0.555415868759	-334.0	-402.0	-342.0	-402.0	1
3.0.1	2019_Mar_09_1739	s	s	11	3	SIC	162	2_2	2	2	4	1	23_4_1	2	-1	1	0	0.481528043747	-201.0	180.0	-201.0	171.0	1
3.0.1	2019_Mar_09_1739	s	s	11	3	SIC	163	4_3	4	3	1	4	23_1_4	3	-1	1	0	0.587369918823	323.0	-218.0	332.0	-217.0	1
3.0.1	2019_Mar_09_1739	s	s	11	3	SIC	164	1_4	1	4	1	3	23_1_3	0	1	1	0	0.952035903931	-278.0	-38.0	-274.0	-34.0	1
3.0.1	2019_Mar_09_1739	s	s	11	3	SIC	165	4_1	4	1	3	2	23_3_2	1	1	1	0	0.528609991074	393.0	339.0	393.0	332.0	1
3.0.1	2019_Mar_09_1739	s	s	11	3	SIC	166	1_1	1	1	2	2	23_2_2	1	1	0	1	1.76788210869	-479.0	311.0	None	None	0
3.0.1	2019_Mar_09_1739	s	s	11	3	SIC	167	ABS	0	0	1	3	24_1_3	NA	NA	0	1	2.2574570179	None	None	None	None	1
3.0.1	2019_Mar_09_1739	s	s	11	3	SIC	168	4_3	4	3	3	1	23_3_1	1	2	1	0	0.575594902039	-294.0	-237.0	-291.0	-234.0	1
3.0.1	2019_Mar_09_1739	s	s	11	3	SIC	169	2_4	2	4	1	1	23_1_1	-1	3	1	0	0.592265129089	-167.0	196.0	-160.0	190.0	1
3.0.1	2019_Mar_09_1739	s	s	11	3	SIC	170	ABS	0	0	4	4	24_4_4	NA	NA	0	1	0.599143981934	None	None	None	None	1
3.0.1	2019_Mar_09_1739	s	s	11	3	SIC	171	ABS	0	0	3	1	24_3_1	NA	NA	0	1	1.216121912	None	None	None	None	1
3.0.1	2019_Mar_09_1739	s	s	11	3	SIC	172	ABS	0	0	3	3	24_3_3	NA	NA	0	1	1.42754101753	None	None	None	None	1
3.0.1	2019_Mar_09_1739	s	s	11	3	SIC	173	1_3	1	3	4	2	23_4_2	3	1	1	0	0.520025968552	-507.0	83.0	-505.0	77.0	1
3.0.1	2019_Mar_09_1739	s	s	11	3	SIC	174	1_3	1	3	4	1	23_4_1	3	2	1	0	0.446251869202	198.0	-35.0	197.0	-41.0	1
3.0.1	2019_Mar_09_1739	s	s	11	3	SIC	175	ABS	0	0	4	4	24_4_4	NA	NA	0	1	0.804670095444	None	None	None	None	1
3.0.1	2019_Mar_09_1739	s	s	11	3	SIC	176	3_4	3	4	1	4	23_1_4	2	0	1	0	0.496176958084	-131.0	178.0	-130.0	175.0	1
3.0.1	2019_Mar_09_1739	s	s	11	3	SIC	177	ABS	0	0	1	3	24_1_3	NA	NA	0	1	1.53199291229	None	None	None	None	1
3.0.1	2019_Mar_09_1739	s	s	11	3	SIC	178	ABS	0	0	3	4	24_3_4	NA	NA	0	1	0.738703966141	None	None	None	None	1
3.0.1	2019_Mar_09_1739	s	s	11	3	SIC	179	ABS	0	0	2	2	24_2_2	NA	NA	0	1	1.33275198936	None	None	None	None	1
3.0.1	2019_Mar_09_1739	s	s	11	3	SIC	180	ABS	0	0	2	4	24_2_4	NA	NA	0	1	0.684834003448	None	None	None	None	1
3.0.1	2019_Mar_09_1739	s	s	11	3	SIC	181	ABS	0	0	2	4	24_2_4	NA	NA	0	1	0.657999992371	None	None	None	None	1
3.0.1	2019_Mar_09_1739	s	s	11	3	SIC	182	2_2	2	2	1	2	23_1_2	-1	0	0	1	0.575660943985	173.0	-295.0	None	None	0
3.0.1	2019_Mar_09_1739	s	s	11	3	SIC	183	1_3	1	3	2	3	23_2_3	1	0	0	1	2.24573016167	-445.0	-173.0	None	None	0
3.0.1	2019_Mar_09_1739	s	s	11	3	SIC	184	3_1	3	1	4	3	23_4_3	-1	2	1	0	0.496147871017	-355.0	192.0	-351.0	191.0	1
3.0.1	2019_Mar_09_1739	s	s	11	3	SIC	185	ABS	0	0	4	4	24_4_4	NA	NA	0	1	0.705085039139	None	None	None	None	1
3.0.1	2019_Mar_09_1739	s	s	11	3	SIC	186	1_4	1	4	4	3	23_4_3	3	1	1	0	0.486620187759	-363.0	13.0	-355.0	16.0	1
3.0.1	2019_Mar_09_1739	s	s	11	3	SIC	187	ABS	0	0	1	1	24_1_1	NA	NA	0	1	0.881364107132	None	None	None	None	1
3.0.1	2019_Mar_09_1739	s	s	11	3	SIC	188	3_4	3	4	2	2	23_2_2	1	2	1	0	0.514595031738	-168.0	170.0	-168.0	160.0	1
3.0.1	2019_Mar_09_1739	s	s	11	3	SIC	189	ABS	0	0	1	4	24_1_4	NA	NA	0	1	0.780797958374	None	None	None	None	1
3.0.1	2019_Mar_09_1739	s	s	11	3	SIC	190	4_1	4	1	1	4	23_1_4	3	3	1	0	0.592417001724	-186.0	373.0	-184.0	375.0	1
3.0.1	2019_Mar_09_1739	s	s	11	3	SIC	191	3_1	3	1	1	3	23_1_3	2	2	1	0	0.532778024673	-261.0	86.0	-255.0	77.0	1
3.0.1	2019_Mar_09_1739	s	s	11	3	SIC	192	1_1	1	1	2	1	23_2_1	1	0	0	1	0.622685909271	267.0	275.0	None	None	0
3.0.1	2019_Mar_09_1739	s	s	11	3	SIC	193	ABS	0	0	1	3	24_1_3	NA	NA	0	1	2.07397580147	None	None	None	None	1
3.0.1	2019_Mar_09_1739	s	s	11	3	SIC	194	3_2	3	2	4	1	23_4_1	-1	-1	1	0	1.1872279644	-314.0	257.0	-314.0	247.0	1
3.0.1	2019_Mar_09_1739	s	s	11	3	SIC	195	2_2	2	2	2	4	23_2_4	0	2	1	0	0.886626005173	310.0	-262.0	305.0	-259.0	1
3.0.1	2019_Mar_09_1739	s	s	11	3	SIC	196	4_1	4	1	3	4	23_3_4	1	3	1	0	0.5549659729	-163.0	209.0	-161.0	208.0	1
3.0.1	2019_Mar_09_1739	s	s	11	3	SIC	197	1_4	1	4	1	1	23_1_1	0	3	1	0	0.740242004395	415.0	-386.0	418.0	-398.0	1
3.0.1	2019_Mar_09_1739	s	s	11	3	SIC	198	ABS	0	0	1	2	24_1_2	NA	NA	0	1	2.01616692543	None	None	None	None	1
3.0.1	2019_Mar_09_1739	s	s	11	3	SIC	199	ABS	0	0	4	1	24_4_1	NA	NA	0	1	0.658106088638	None	None	None	None	1
3.0.1	2019_Mar_09_1739	s	s	11	3	SIC	200	1_2	1	2	3	4	23_3_4	2	2	1	0	0.587429046631	193.0	-328.0	191.0	-323.0	1
3.0.1	2019_Mar_09_1739	s	s	11	3	SIC	201	ABS	0	0	1	3	24_1_3	NA	NA	0	1	1.19377708435	None	None	None	None	1
3.0.1	2019_Mar_09_1739	s	s	11	3	SIC	202	ABS	0	0	2	4	24_2_4	NA	NA	0	1	0.634421825409	None	None	None	None	1
3.0.1	2019_Mar_09_1739	s	s	11	3	SIC	203	ABS	0	0	1	4	24_1_4	NA	NA	0	1	0.893296957016	None	None	None	None	1
3.0.1	2019_Mar_09_1739	s	s	11	3	SIC	204	ABS	0	0	2	3	24_2_3	NA	NA	0	1	1.88105177879	None	None	None	None	1
3.0.1	2019_Mar_09_1739	s	s	11	3	SIC	205	ABS	0	0	3	1	24_3_1	NA	NA	0	1	1.31989002228	None	None	None	None	1
3.0.1	2019_Mar_09_1739	s	s	11	3	SIC	206	2_4	2	4	1	3	23_1_3	-1	1	1	0	1.0578250885	414.0	210.0	404.0	213.0	1
3.0.1	2019_Mar_09_1739	s	s	11	3	SIC	207	ABS	0	0	4	2	24_4_2	NA	NA	0	1	0.687439918518	None	None	None	None	1
3.0.1	2019_Mar_09_1739	s	s	11	3	SIC	208	ABS	0	0	3	4	24_3_4	NA	NA	0	1	0.716763019562	None	None	None	None	1
3.0.1	2019_Mar_09_1739	s	s	11	3	SIC	209	2_4	2	4	3	1	23_3_1	1	3	1	0	0.628702878952	-189.0	-229.0	-188.0	-226.0	1
3.0.1	2019_Mar_09_1739	s	s	11	3	SIC	210	3_3	3	3	1	1	23_1_1	2	2	0	1	0.128713130951	493.0	147.0	None	None	0
3.0.1	2019_Mar_09_1739	s	s	11	3	SIC	211	1_3	1	3	4	4	23_4_4	3	-1	1	0	0.505054950714	68.0	123.0	63.0	132.0	1
3.0.1	2019_Mar_09_1739	s	s	11	3	SIC	212	ABS	0	0	3	4	24_3_4	NA	NA	0	1	0.775614976883	None	None	None	None	1
3.0.1	2019_Mar_09_1739	s	s	11	3	SIC	213	2_2	2	2	1	1	23_1_1	-1	-1	0	1	0.693160057068	-114.0	311.0	None	None	0
3.0.1	2019_Mar_09_1739	s	s	11	3	SIC	214	ABS	0	0	4	1	24_4_1	NA	NA	0	1	0.87601685524	None	None	None	None	1
3.0.1	2019_Mar_09_1739	s	s	11	3	SIC	215	4_2	4	2	1	1	23_1_1	3	-1	1	0	0.516853094101	-241.0	-175.0	-237.0	-174.0	1
3.0.1	2019_Mar_09_1739	s	s	11	3	SIC	216	ABS	0	0	4	1	24_4_1	NA	NA	0	1	0.693201065063	None	None	None	None	1
3.0.1	2019_Mar_09_1739	s	s	11	3	SIC	217	4_3	4	3	1	1	23_1_1	3	2	1	0	0.516781806946	-154.0	6.0	-155.0	-5.0	1
3.0.1	2019_Mar_09_1739	s	s	11	3	SIC	218	3_4	3	4	2	3	23_2_3	1	1	1	0	0.722414016724	416.0	0.0	414.0	2.0	1
3.0.1	2019_Mar_09_1739	s	s	11	3	SIC	219	ABS	0	0	3	1	24_3_1	NA	NA	0	1	0.908836841583	None	None	None	None	1
3.0.1	2019_Mar_09_1739	s	s	11	3	SIC	220	4_1	4	1	2	2	23_2_2	2	1	1	0	0.516802072525	-18.0	399.0	-25.0	405.0	1
3.0.1	2019_Mar_09_1739	s	s	11	3	SIC	221	ABS	0	0	1	3	24_1_3	NA	NA	0	1	1.39385509491	None	None	None	None	1
3.0.1	2019_Mar_09_1739	s	s	11	3	SIC	222	3_2	3	2	2	1	23_2_1	1	-1	1	0	0.751942873001	442.0	38.0	432.0	45.0	1
3.0.1	2019_Mar_09_1739	s	s	11	3	SIC	223	ABS	0	0	3	3	24_3_3	NA	NA	0	1	1.33998298645	None	None	None	None	1
3.0.1	2019_Mar_09_1739	s	s	11	3	SIC	224	1_1	1	1	2	4	23_2_4	1	3	1	0	0.738180875778	-407.0	231.0	-413.0	226.0	1
3.0.1	2019_Mar_09_1739	s	s	11	3	SIC	225	2_3	2	3	3	2	23_3_2	1	1	1	0	1.06964802742	-310.0	98.0	-305.0	92.0	1
3.0.1	2019_Mar_09_1739	s	s	11	3	SIC	226	ABS	0	0	2	1	24_2_1	NA	NA	0	1	0.980876922607	None	None	None	None	1
3.0.1	2019_Mar_09_1739	s	s	11	3	SIC	227	1_4	1	4	4	1	23_4_1	3	3	1	0	0.469843149185	221.0	107.0	219.0	105.0	1
3.0.1	2019_Mar_09_1739	s	s	11	3	SIC	228	ABS	0	0	2	1	24_2_1	NA	NA	0	1	0.857870817184	None	None	None	None	1
3.0.1	2019_Mar_09_1739	s	s	11	3	SIC	229	ABS	0	0	4	1	24_4_1	NA	NA	0	1	0.561275959015	None	None	None	None	1
3.0.1	2019_Mar_09_1739	s	s	11	3	SIC	230	ABS	0	0	3	2	24_3_2	NA	NA	0	1	0.83944606781	None	None	None	None	1
3.0.1	2019_Mar_09_1739	s	s	11	3	SIC	231	ABS	0	0	1	1	24_1_1	NA	NA	0	1	0.658015012741	None	None	None	None	1
3.0.1	2019_Mar_09_1739	s	s	11	3	SIC	232	ABS	0	0	3	1	24_3_1	NA	NA	0	1	0.545500993729	None	None	None	None	1
3.0.1	2019_Mar_09_1739	s	s	11	3	SIC	233	ABS	0	0	3	1	24_3_1	NA	NA	0	1	0.622695922852	None	None	None	None	1
3.0.1	2019_Mar_09_1739	s	s	11	3	SIC	234	ABS	0	0	1	1	24_1_1	NA	NA	0	1	0.957134008408	None	None	None	None	1
3.0.1	2019_Mar_09_1739	s	s	11	3	SIC	235	4_1	4	1	4	4	23_4_4	0	3	1	0	0.622611999512	-148.0	-245.0	-142.0	-242.0	1
3.0.1	2019_Mar_09_1739	s	s	11	3	SIC	236	ABS	0	0	4	3	24_4_3	NA	NA	0	1	2.43382096291	None	None	None	None	1
3.0.1	2019_Mar_09_1739	s	s	11	3	SIC	237	ABS	0	0	1	2	24_1_2	NA	NA	0	1	0.658411026001	None	None	None	None	1
3.0.1	2019_Mar_09_1739	s	s	11	3	SIC	238	2_3	2	3	3	3	23_3_3	1	0	1	0	0.966642856598	-240.0	-234.0	-238.0	-230.0	1
3.0.1	2019_Mar_09_1739	s	s	11	3	SIC	239	3_4	3	4	1	1	23_1_1	2	3	1	0	0.516719102859	-113.0	56.0	-117.0	54.0	1
3.0.1	2019_Mar_09_1739	s	s	11	3	SIC	240	3_2	3	2	2	4	23_2_4	1	2	1	0	0.510708808899	-176.0	78.0	-175.0	72.0	1
3.0.1	2019_Mar_09_1739	s	s	11	3	SIC	241	2_1	2	1	3	2	23_3_2	1	1	1	0	1.16827011108	-349.0	210.0	-349.0	219.0	1
3.0.1	2019_Mar_09_1739	s	s	11	3	SIC	242	ABS	0	0	4	2	24_4_2	NA	NA	0	1	0.857882022858	None	None	None	None	1
3.0.1	2019_Mar_09_1739	s	s	11	3	SIC	243	3_3	3	3	1	4	23_1_4	2	-1	1	0	0.563863039017	-316.0	361.0	-317.0	352.0	1
3.0.1	2019_Mar_09_1739	s	s	11	3	SIC	244	2_3	2	3	3	1	23_3_1	1	2	1	0	0.533270120621	66.0	-98.0	66.0	-106.0	1
3.0.1	2019_Mar_09_1739	s	s	11	3	SIC	245	2_1	2	1	4	2	23_4_2	2	1	1	0	0.556968927383	216.0	-253.0	210.0	-245.0	1
3.0.1	2019_Mar_09_1739	s	s	11	3	SIC	246	3_2	3	2	1	3	23_1_3	2	1	1	0	0.716768980026	523.0	-333.0	525.0	-334.0	1
3.0.1	2019_Mar_09_1739	s	s	11	3	SIC	247	2_1	2	1	1	3	23_1_3	-1	2	1	0	1.04028606415	-378.0	-187.0	-379.0	-196.0	1
3.0.1	2019_Mar_09_1739	s	s	11	3	SIC	248	3_4	3	4	3	3	23_3_3	0	1	1	0	0.768010139465	476.0	283.0	466.0	291.0	1
3.0.1	2019_Mar_09_1739	s	s	11	3	SIC	249	4_4	4	4	3	1	23_3_1	1	3	1	0	0.451289892197	23.0	289.0	26.0	281.0	1
3.0.1	2019_Mar_09_1739	s	s	11	3	SIC	250	ABS	0	0	3	1	24_3_1	NA	NA	0	1	1.05783104897	None	None	None	None	1
3.0.1	2019_Mar_09_1739	s	s	11	3	SIC	251	ABS	0	0	4	2	24_4_2	NA	NA	0	1	1.34314322472	None	None	None	None	1
3.0.1	2019_Mar_09_1739	s	s	11	3	SIC	252	2_3	2	3	1	4	23_1_4	-1	-1	1	0	0.721876859665	252.0	158.0	254.0	154.0	1
3.0.1	2019_Mar_09_1739	s	s	11	3	SIC	253	2_2	2	2	4	4	23_4_4	2	2	1	0	0.486130952835	188.0	-46.0	187.0	-40.0	1
3.0.1	2019_Mar_09_1739	s	s	11	3	SIC	254	2_4	2	4	4	3	23_4_3	2	1	1	0	0.469726800919	342.0	343.0	337.0	342.0	1
3.0.1	2019_Mar_09_1739	s	s	11	3	SIC	255	ABS	0	0	3	4	24_3_4	NA	NA	0	1	0.967610120773	None	None	None	None	1
3.0.1	2019_Mar_09_1739	s	s	11	3	SIC	256	ABS	0	0	4	2	24_4_2	NA	NA	0	1	1.54000520706	None	None	None	None	1
3.0.1	2019_Mar_09_1739	s	s	11	3	SIC	257	2_4	2	4	4	2	23_4_2	2	2	1	0	0.813635110855	-491.0	-342.0	-499.0	-346.0	1
3.0.1	2019_Mar_09_1739	s	s	11	3	SIC	258	4_4	4	4	2	1	23_2_1	2	3	1	0	0.442445993423	458.0	-141.0	461.0	-135.0	1
3.0.1	2019_Mar_09_1739	s	s	11	3	SIC	259	1_4	1	4	3	3	23_3_3	2	1	1	0	0.496609926224	-159.0	379.0	-162.0	370.0	1
3.0.1	2019_Mar_09_1739	s	s	11	3	SIC	260	ABS	0	0	3	3	24_3_3	NA	NA	0	1	1.62842583656	None	None	None	None	1
3.0.1	2019_Mar_09_1739	s	s	11	3	SIC	261	ABS	0	0	1	2	24_1_2	NA	NA	0	1	2.36335682869	None	None	None	None	1
3.0.1	2019_Mar_09_1739	s	s	11	3	SIC	262	1_3	1	3	1	2	23_1_2	0	1	0	1	1.24599909782	-357.0	-233.0	None	None	0
3.0.1	2019_Mar_09_1739	s	s	11	3	SIC	263	2_3	2	3	4	2	23_4_2	2	1	1	0	0.505062818527	-258.0	-242.0	-258.0	-240.0	1
3.0.1	2019_Mar_09_1739	s	s	11	3	SIC	264	1_1	1	1	3	1	23_3_1	2	0	1	0	0.540311813354	-35.0	-412.0	-33.0	-412.0	1
3.0.1	2019_Mar_09_1739	s	s	11	3	SIC	265	3_2	3	2	3	1	23_3_1	0	-1	0	1	0.934190988541	-385.0	-46.0	None	None	0
3.0.1	2019_Mar_09_1739	s	s	11	3	SIC	266	ABS	0	0	2	4	24_2_4	NA	NA	0	1	0.869623184204	None	None	None	None	1
3.0.1	2019_Mar_09_1739	s	s	11	3	SIC	267	ABS	0	0	1	4	24_1_4	NA	NA	0	1	0.885752916336	None	None	None	None	1
3.0.1	2019_Mar_09_1739	s	s	11	3	SIC	268	ABS	0	0	3	2	24_3_2	NA	NA	0	1	1.78070116043	None	None	None	None	1
3.0.1	2019_Mar_09_1739	s	s	11	3	SIC	269	4_2	4	2	3	4	23_3_4	1	2	1	0	0.677922964096	194.0	-301.0	200.0	-310.0	1
3.0.1	2019_Mar_09_1739	s	s	11	3	SIC	270	1_2	1	2	2	1	23_2_1	1	-1	0	1	0.693228960037	-209.0	39.0	None	None	0
3.0.1	2019_Mar_09_1739	s	s	11	3	SIC	271	4_4	4	4	4	3	23_4_3	0	1	1	0	1.78538894653	-519.0	212.0	-517.0	211.0	1
3.0.1	2019_Mar_09_1739	s	s	11	3	SIC	272	ABS	0	0	4	3	24_4_3	NA	NA	0	1	2.32512784004	None	None	None	None	1
3.0.1	2019_Mar_09_1739	s	s	11	3	SIC	273	ABS	0	0	2	1	24_2_1	NA	NA	0	1	1.07257294655	None	None	None	None	1
3.0.1	2019_Mar_09_1739	s	s	11	3	SIC	274	4_4	4	4	4	2	23_4_2	0	2	1	0	0.634388923645	199.0	-95.0	195.0	-90.0	1
3.0.1	2019_Mar_09_1739	s	s	11	3	SIC	275	ABS	0	0	3	2	24_3_2	NA	NA	0	1	2.01709914207	None	None	None	None	1
3.0.1	2019_Mar_09_1739	s	s	11	3	SIC	276	ABS	0	0	2	3	24_2_3	NA	NA	0	1	1.67230296135	None	None	None	None	1
3.0.1	2019_Mar_09_1739	s	s	11	3	SIC	277	ABS	0	0	1	1	24_1_1	NA	NA	0	1	0.67262506485	None	None	None	None	1
3.0.1	2019_Mar_09_1739	s	s	11	3	SIC	278	3_4	3	4	1	3	23_1_3	2	1	1	0	0.599148035049	412.0	202.0	420.0	196.0	1
3.0.1	2019_Mar_09_1739	s	s	11	3	SIC	279	ABS	0	0	3	3	24_3_3	NA	NA	0	1	2.02511906624	None	None	None	None	1
3.0.1	2019_Mar_09_1739	s	s	11	3	SIC	280	1_3	1	3	2	4	23_2_4	1	-1	1	0	0.782260894775	394.0	-154.0	391.0	-156.0	1
3.0.1	2019_Mar_09_1739	s	s	11	3	SIC	281	3_2	3	2	4	4	23_4_4	-1	2	1	0	0.460753917694	-440.0	54.0	-440.0	56.0	1
3.0.1	2019_Mar_09_1739	s	s	11	3	SIC	282	ABS	0	0	3	3	24_3_3	NA	NA	0	1	2.33267092705	None	None	None	None	1
3.0.1	2019_Mar_09_1739	s	s	11	3	SIC	283	ABS	0	0	2	2	24_2_2	NA	NA	0	1	2.25081396103	None	None	None	None	1
3.0.1	2019_Mar_09_1739	s	s	11	3	SIC	284	2_1	2	1	3	3	23_3_3	1	2	1	0	0.797679901123	-243.0	83.0	-248.0	85.0	1
3.0.1	2019_Mar_09_1739	s	s	11	3	SIC	285	4_2	4	2	1	2	23_1_2	3	0	1	0	0.457993984222	-77.0	-130.0	-73.0	-130.0	1
3.0.1	2019_Mar_09_1739	s	s	11	3	SIC	286	ABS	0	0	1	3	24_1_3	NA	NA	0	1	1.31648993492	None	None	None	None	1
3.0.1	2019_Mar_09_1739	s	s	11	3	SIC	287	3_4	3	4	4	3	23_4_3	-1	1	1	0	0.533672094345	-462.0	396.0	-463.0	392.0	1
3.0.1	2019_Mar_09_1739	s	s	11	3	SIC	288	4_4	4	4	2	4	23_2_4	2	0	1	0	0.505003929138	76.0	-280.0	70.0	-278.0	1
3.0.1	2019_Mar_09_1739	s	s	11	3	SIC	289	ABS	0	0	3	2	24_3_2	NA	NA	0	1	1.96635508537	None	None	None	None	1
3.0.1	2019_Mar_09_1739	s	s	11	3	SIC	290	2_1	2	1	1	4	23_1_4	-1	3	1	0	0.55504488945	253.0	-202.0	248.0	-195.0	1
3.0.1	2019_Mar_09_1739	s	s	11	3	SIC	291	ABS	0	0	3	4	24_3_4	NA	NA	0	1	0.928395986557	None	None	None	None	1
3.0.1	2019_Mar_09_1739	s	s	11	3	SIC	292	ABS	0	0	4	1	24_4_1	NA	NA	0	1	0.599578142166	None	None	None	None	1
3.0.1	2019_Mar_09_1739	s	s	11	3	SIC	293	ABS	0	0	2	3	24_2_3	NA	NA	0	1	1.67237210274	None	None	None	None	1
3.0.1	2019_Mar_09_1739	s	s	11	3	SIC	294	2_2	2	2	3	1	23_3_1	1	-1	1	0	0.804568052292	280.0	197.0	278.0	197.0	1
3.0.1	2019_Mar_09_1739	s	s	11	3	SIC	295	ABS	0	0	2	4	24_2_4	NA	NA	0	1	0.908083200455	None	None	None	None	1
3.0.1	2019_Mar_09_1739	s	s	11	3	SIC	296	3_3	3	3	3	2	23_3_2	0	1	1	0	4.50789380074	31.0	410.0	26.0	411.0	1
3.0.1	2019_Mar_09_1739	s	s	11	3	SIC	297	ABS	0	0	1	2	24_1_2	NA	NA	0	1	2.01695799828	None	None	None	None	1
3.0.1	2019_Mar_09_1739	s	s	11	3	SIC	298	ABS	0	0	3	4	24_3_4	NA	NA	0	1	0.90783905983	None	None	None	None	1
3.0.1	2019_Mar_09_1739	s	s	11	3	SIC	299	3_1	3	1	2	1	23_2_1	1	0	1	0	0.693361997604	198.0	-42.0	195.0	-46.0	1
3.0.1	2019_Mar_09_1739	s	s	11	3	SIC	300	3_3	3	3	2	1	23_2_1	1	2	1	0	0.775558948517	-45.0	-70.0	-45.0	-71.0	1
3.0.1	2019_Mar_09_1739	s	s	11	3	SIC	301	3_1	3	1	4	1	23_4_1	-1	0	1	0	0.528571128845	225.0	-296.0	225.0	-288.0	1
3.0.1	2019_Mar_09_1739	s	s	11	3	SIC	302	ABS	0	0	3	3	24_3_3	NA	NA	0	1	1.12841582298	None	None	None	None	1
3.0.1	2019_Mar_09_1739	s	s	11	3	SIC	303	ABS	0	0	4	2	24_4_2	NA	NA	0	1	2.41473197937	None	None	None	None	1
3.0.1	2019_Mar_09_1739	s	s	11	3	SIC	304	ABS	0	0	3	3	24_3_3	NA	NA	0	1	1.65764904022	None	None	None	None	1
3.0.1	2019_Mar_09_1739	s	s	11	3	SIC	305	ABS	0	0	1	2	24_1_2	NA	NA	0	1	2.09281587601	None	None	None	None	1
3.0.1	2019_Mar_09_1739	s	s	11	3	SIC	306	ABS	0	0	1	3	24_1_3	NA	NA	0	1	1.56902313232	None	None	None	None	1
3.0.1	2019_Mar_09_1739	s	s	11	3	SIC	307	3_2	3	2	4	3	23_4_3	-1	1	1	0	0.658006906509	-49.0	-291.0	-51.0	-282.0	1
3.0.1	2019_Mar_09_1739	s	s	11	3	SIC	308	ABS	0	0	1	4	24_1_4	NA	NA	0	1	1.20210504532	None	None	None	None	1
3.0.1	2019_Mar_09_1739	s	s	11	3	SIC	309	ABS	0	0	4	3	24_4_3	NA	NA	0	1	1.34006404877	None	None	None	None	1
3.0.1	2019_Mar_09_1739	s	s	11	3	SIC	310	ABS	0	0	2	2	24_2_2	NA	NA	0	1	2.19622516632	None	None	None	None	1
3.0.1	2019_Mar_09_1739	s	s	11	3	SIC	311	ABS	0	0	2	1	24_2_1	NA	NA	0	1	1.00392508507	None	None	None	None	1
3.0.1	2019_Mar_09_1739	s	s	11	3	SIC	312	ABS	0	0	4	4	24_4_4	NA	NA	0	1	1.05147194862	None	None	None	None	1
3.0.1	2019_Mar_09_1739	s	s	11	3	SIC	313	ABS	0	0	4	2	24_4_2	NA	NA	0	1	1.45770311356	None	None	None	None	1
3.0.1	2019_Mar_09_1739	s	s	11	3	SIC	314	ABS	0	0	4	1	24_4_1	NA	NA	0	1	0.945138931274	None	None	None	None	1
3.0.1	2019_Mar_09_1739	s	s	11	3	SIC	315	ABS	0	0	3	2	24_3_2	NA	NA	0	1	1.18721389771	None	None	None	None	1
3.0.1	2019_Mar_09_1739	s	s	11	3	SIC	316	3_3	3	3	4	3	23_4_3	-1	0	1	0	0.496222019196	177.0	354.0	169.0	348.0	1
3.0.1	2019_Mar_09_1739	s	s	11	3	SIC	317	4_1	4	1	2	1	23_2_1	2	0	1	0	0.457931995392	84.0	34.0	89.0	31.0	1
3.0.1	2019_Mar_09_1739	s	s	11	3	SIC	318	3_2	3	2	1	2	23_1_2	2	0	1	0	0.999040126801	398.0	-249.0	398.0	-255.0	1
3.0.1	2019_Mar_09_1739	s	s	11	3	SIC	319	ABS	0	0	1	4	24_1_4	NA	NA	0	1	1.07611680031	None	None	None	None	1
3.0.1	2019_Mar_09_1739	s	s	11	3	SIC	320	ABS	0	0	4	4	24_4_4	NA	NA	0	1	0.699721813202	None	None	None	None	1
3.0.1	2019_Mar_09_1739	s	s	11	3	SIC	321	ABS	0	0	1	2	24_1_2	NA	NA	0	1	1.0843269825	None	None	None	None	1
3.0.1	2019_Mar_09_1739	s	s	11	3	SIC	322	ABS	0	0	1	3	24_1_3	NA	NA	0	1	1.23962712288	None	None	None	None	1
3.0.1	2019_Mar_09_1739	s	s	11	3	SIC	323	ABS	0	0	4	3	24_4_3	NA	NA	0	1	2.52183103561	None	None	None	None	1
3.0.1	2019_Mar_09_1739	s	s	11	3	SIC	324	ABS	0	0	2	1	24_2_1	NA	NA	0	1	0.731719970703	None	None	None	None	1
3.0.1	2019_Mar_09_1739	s	s	11	3	SIC	325	4_3	4	3	2	1	23_2_1	2	2	1	0	0.509578943253	-106.0	-106.0	-112.0	-97.0	1
3.0.1	2019_Mar_09_1739	s	s	11	3	SIC	326	ABS	0	0	2	2	24_2_2	NA	NA	0	1	1.3918800354	None	None	None	None	1
3.0.1	2019_Mar_09_1739	s	s	11	3	SIC	327	1_3	1	3	1	1	23_1_1	0	2	0	1	0.575551986694	-460.0	-304.0	None	None	0
3.0.1	2019_Mar_09_1739	s	s	11	3	SIC	328	ABS	0	0	4	1	24_4_1	NA	NA	0	1	0.613771915436	None	None	None	None	1
3.0.1	2019_Mar_09_1739	s	s	11	3	SIC	329	ABS	0	0	1	2	24_1_2	NA	NA	0	1	0.769806146622	None	None	None	None	1
3.0.1	2019_Mar_09_1739	s	s	11	3	SIC	330	ABS	0	0	3	2	24_3_2	NA	NA	0	1	1.02850484848	None	None	None	None	1
3.0.1	2019_Mar_09_1739	s	s	11	3	SIC	331	4_2	4	2	2	3	23_2_3	2	1	1	0	0.474784851074	-535.0	-199.0	-537.0	-196.0	1
3.0.1	2019_Mar_09_1739	s	s	11	3	SIC	332	ABS	0	0	3	1	24_3_1	NA	NA	0	1	0.67258810997	None	None	None	None	1
3.0.1	2019_Mar_09_1739	s	s	11	3	SIC	333	ABS	0	0	2	4	24_2_4	NA	NA	0	1	0.634416103363	None	None	None	None	1
3.0.1	2019_Mar_09_1739	s	s	11	3	SIC	334	ABS	0	0	4	4	24_4_4	NA	NA	0	1	0.716840028763	None	None	None	None	1
3.0.1	2019_Mar_09_1739	s	s	11	3	SIC	335	ABS	0	0	2	2	24_2_2	NA	NA	0	1	2.86899995804	None	None	None	None	1
3.0.1	2019_Mar_09_1739	s	s	11	3	SIC	336	ABS	0	0	2	3	24_2_3	NA	NA	0	1	1.74464988708	None	None	None	None	1
3.0.1	2019_Mar_09_1739	s	s	11	3	SIC	337	3_4	3	4	1	2	23_1_2	2	2	1	0	0.610919952393	-315.0	113.0	-316.0	113.0	1
3.0.1	2019_Mar_09_1739	s	s	11	3	SIC	338	ABS	0	0	3	2	24_3_2	NA	NA	0	1	1.65074896812	None	None	None	None	1
3.0.1	2019_Mar_09_1739	s	s	11	3	SIC	339	ABS	0	0	1	1	24_1_1	NA	NA	0	1	0.738700866699	None	None	None	None	1
3.0.1	2019_Mar_09_1739	s	s	11	3	SIC	340	ABS	0	0	2	4	24_2_4	NA	NA	0	1	1.14854097366	None	None	None	None	1
3.0.1	2019_Mar_09_1739	s	s	11	3	SIC	341	ABS	0	0	4	3	24_4_3	NA	NA	0	1	1.85368394852	None	None	None	None	1
3.0.1	2019_Mar_09_1739	s	s	11	3	SIC	342	ABS	0	0	1	1	24_1_1	NA	NA	0	1	0.893181085587	None	None	None	None	1
3.0.1	2019_Mar_09_1739	s	s	11	3	SIC	343	2_2	2	2	1	3	23_1_3	-1	1	0	1	1.51651597023	277.0	323.0	None	None	0
3.0.1	2019_Mar_09_1739	s	s	11	3	SIC	344	ABS	0	0	4	4	24_4_4	NA	NA	0	1	0.751992940903	None	None	None	None	1
3.0.1	2019_Mar_09_1739	s	s	11	3	SIC	345	1_2	1	2	1	1	23_1_1	0	-1	0	1	2.03399205208	12.0	-36.0	None	None	0
3.0.1	2019_Mar_09_1739	s	s	11	3	SIC	346	ABS	0	0	3	2	24_3_2	NA	NA	0	1	1.67405986786	None	None	None	None	1
3.0.1	2019_Mar_09_1739	s	s	11	3	SIC	347	ABS	0	0	2	3	24_2_3	NA	NA	0	1	1.89803385735	None	None	None	None	1
3.0.1	2019_Mar_09_1739	s	s	11	3	SIC	348	ABS	0	0	4	3	24_4_3	NA	NA	0	1	1.89780712128	None	None	None	None	1
3.0.1	2019_Mar_09_1739	s	s	11	3	SIC	349	ABS	0	0	1	4	24_1_4	NA	NA	0	1	1.49593496323	None	None	None	None	1
3.0.1	2019_Mar_09_1739	s	s	11	3	SIC	350	ABS	0	0	3	4	24_3_4	NA	NA	0	1	1.37872695923	None	None	None	None	1
3.0.1	2019_Mar_09_1739	s	s	11	3	SIC	351	2_4	2	4	4	1	23_4_1	2	3	1	0	0.52850818634	483.0	-58.0	487.0	-55.0	1
3.0.1	2019_Mar_09_1739	s	s	11	3	SIC	352	2_1	2	1	3	4	23_3_4	1	3	1	0	0.509858131409	62.0	-90.0	71.0	-93.0	1
3.0.1	2019_Mar_09_1739	s	s	11	3	SIC	353	3_4	3	4	4	2	23_4_2	-1	2	1	0	0.469767093658	4.0	83.0	15.0	92.0	1
3.0.1	2019_Mar_09_1739	s	s	11	3	SIC	354	4_3	4	3	2	3	23_2_3	2	0	1	0	0.545459985733	369.0	-78.0	364.0	-76.0	1
3.0.1	2019_Mar_09_1739	s	s	11	3	SIC	355	2_2	2	2	4	3	23_4_3	2	1	1	0	0.45812702179	-336.0	20.0	-339.0	17.0	1
3.0.1	2019_Mar_09_1739	s	s	11	3	SIC	356	4_3	4	3	2	4	23_2_4	2	-1	1	0	0.457940816879	241.0	-402.0	234.0	-404.0	1
3.0.1	2019_Mar_09_1739	s	s	11	3	SIC	357	ABS	0	0	3	2	24_3_2	NA	NA	0	1	2.16334080696	None	None	None	None	1
3.0.1	2019_Mar_09_1739	s	s	11	3	SIC	358	2_2	2	2	3	3	23_3_3	1	1	1	0	0.614799022675	215.0	166.0	212.0	174.0	1
3.0.1	2019_Mar_09_1739	s	s	11	3	SIC	359	4_3	4	3	1	3	23_1_3	3	0	1	0	0.43446803093	-104.0	200.0	-107.0	199.0	1
3.0.1	2019_Mar_09_1739	s	s	11	3	SIC	360	3_4	3	4	2	4	23_2_4	1	0	1	0	0.916718959808	-447.0	-120.0	-443.0	-122.0	1
3.0.1	2019_Mar_09_1739	s	s	11	3	SIC	361	ABS	0	0	2	2	24_2_2	NA	NA	0	1	1.74532604218	None	None	None	None	1
3.0.1	2019_Mar_09_1739	s	s	11	3	SIC	362	2_1	2	1	3	1	23_3_1	1	0	1	0	0.79905796051	84.0	-286.0	94.0	-283.0	1
3.0.1	2019_Mar_09_1739	s	s	11	3	SIC	363	3_3	3	3	2	3	23_2_3	1	0	1	0	1.46950101852	-346.0	80.0	-346.0	86.0	1
3.0.1	2019_Mar_09_1739	s	s	11	3	SIC	364	1_4	1	4	2	2	23_2_2	1	2	1	0	1.37867093086	-356.0	-400.0	-354.0	-396.0	1
3.0.1	2019_Mar_09_1739	s	s	11	3	SIC	365	ABS	0	0	3	2	24_3_2	NA	NA	0	1	2.23390984535	None	None	None	None	1
3.0.1	2019_Mar_09_1739	s	s	11	3	SIC	366	ABS	0	0	4	3	24_4_3	NA	NA	0	1	2.78999900818	None	None	None	None	1
3.0.1	2019_Mar_09_1739	s	s	11	3	SIC	367	ABS	0	0	2	3	24_2_3	NA	NA	0	1	2.55602502823	None	None	None	None	1
3.0.1	2019_Mar_09_1739	s	s	11	3	SIC	368	4_2	4	2	3	3	23_3_3	1	1	1	0	0.716783046722	-515.0	-52.0	-515.0	-43.0	1
3.0.1	2019_Mar_09_1739	s	s	11	3	SIC	369	ABS	0	0	3	2	24_3_2	NA	NA	0	1	0.916764974594	None	None	None	None	1
3.0.1	2019_Mar_09_1739	s	s	11	3	SIC	370	ABS	0	0	4	1	24_4_1	NA	NA	0	1	1.15198993683	None	None	None	None	1
3.0.1	2019_Mar_09_1739	s	s	11	3	SIC	371	ABS	0	0	2	1	24_2_1	NA	NA	0	1	0.646134138107	None	None	None	None	1
3.0.1	2019_Mar_09_1739	s	s	11	3	SIC	372	ABS	0	0	4	3	24_4_3	NA	NA	0	1	1.11666798592	None	None	None	None	1
3.0.1	2019_Mar_09_1739	s	s	11	3	SIC	373	3_3	3	3	1	3	23_1_3	2	0	1	0	0.604724884033	-320.0	-27.0	-315.0	-18.0	1
3.0.1	2019_Mar_09_1739	s	s	11	3	SIC	374	ABS	0	0	4	2	24_4_2	NA	NA	0	1	1.11662793159	None	None	None	None	1
3.0.1	2019_Mar_09_1739	s	s	11	3	SIC	375	ABS	0	0	1	4	24_1_4	NA	NA	0	1	0.849998950958	None	None	None	None	1
3.0.1	2019_Mar_09_1739	s	s	11	3	SIC	376	1_4	1	4	3	2	23_3_2	2	2	1	0	0.599164009094	355.0	-242.0	360.0	-237.0	1
3.0.1	2019_Mar_09_1739	s	s	11	3	SIC	377	2_3	2	3	2	1	23_2_1	0	2	1	0	0.829118967056	251.0	-76.0	243.0	-68.0	1
3.0.1	2019_Mar_09_1739	s	s	11	3	SIC	378	ABS	0	0	3	4	24_3_4	NA	NA	0	1	1.05772304535	None	None	None	None	1
3.0.1	2019_Mar_09_1739	s	s	11	3	SIC	379	3_3	3	3	4	1	23_4_1	-1	2	1	0	0.627848863602	447.0	206.0	443.0	208.0	1
3.0.1	2019_Mar_09_1739	s	s	11	3	SIC	380	ABS	0	0	2	2	24_2_2	NA	NA	0	1	1.39889001846	None	None	None	None	1
3.0.1	2019_Mar_09_1739	s	s	11	3	SIC	381	ABS	0	0	1	4	24_1_4	NA	NA	0	1	0.687021017075	None	None	None	None	1
3.0.1	2019_Mar_09_1739	s	s	11	3	SIC	382	3_1	3	1	4	4	23_4_4	-1	3	1	0	0.469736814499	-356.0	296.0	-361.0	295.0	1
3.0.1	2019_Mar_09_1739	s	s	11	3	SIC	383	2_3	2	3	2	4	23_2_4	0	-1	0	1	0.928438186646	-182.0	393.0	None	None	0
3.0.1	2019_Mar_09_1739	s	s	11	3	SIC	384	4_2	4	2	2	1	23_2_1	2	-1	1	0	0.446245908737	-106.0	-14.0	-95.0	-10.0	1
3.0.1	2019_Mar_09_1739	s	s	11	3	SIC	385	4_3	4	3	3	2	23_3_2	1	1	1	0	0.481597900391	-303.0	-109.0	-301.0	-114.0	1
3.0.1	2019_Mar_09_1739	s	s	11	3	SIC	386	ABS	0	0	3	4	24_3_4	NA	NA	0	1	0.834369897842	None	None	None	None	1
3.0.1	2019_Mar_09_1739	s	s	11	3	SIC	387	4_4	4	4	1	4	23_1_4	3	0	1	0	0.496217012405	-41.0	32.0	-41.0	32.0	1
3.0.1	2019_Mar_09_1739	s	s	11	3	SIC	388	ABS	0	0	3	3	24_3_3	NA	NA	0	1	1.24609494209	None	None	None	None	1
3.0.1	2019_Mar_09_1739	s	s	11	3	SIC	389	2_2	2	2	3	4	23_3_4	1	2	1	0	0.546846151352	538.0	323.0	544.0	322.0	1
3.0.1	2019_Mar_09_1739	s	s	11	3	SIC	390	ABS	0	0	3	4	24_3_4	NA	NA	0	1	0.966683149338	None	None	None	None	1
3.0.1	2019_Mar_09_1739	s	s	11	3	SIC	391	4_1	4	1	3	1	23_3_1	1	0	1	0	0.469864845276	-419.0	-144.0	-414.0	-144.0	1
3.0.1	2019_Mar_09_1739	s	s	11	3	SIC	392	1_1	1	1	1	2	23_1_2	0	1	0	1	1.86331105232	-509.0	-302.0	None	None	0
3.0.1	2019_Mar_09_1739	s	s	11	3	SIC	393	ABS	0	0	1	4	24_1_4	NA	NA	0	1	0.94527220726	None	None	None	None	1
3.0.1	2019_Mar_09_1739	s	s	11	3	SIC	394	1_1	1	1	4	1	23_4_1	3	0	1	0	0.622745037079	200.0	-258.0	189.0	-250.0	1
3.0.1	2019_Mar_09_1739	s	s	11	3	SIC	395	2_1	2	1	2	4	23_2_4	0	3	1	0	0.945526838303	-116.0	-336.0	-115.0	-338.0	1
3.0.1	2019_Mar_09_1739	s	s	11	3	SIC	396	2_2	2	2	3	2	23_3_2	1	0	1	0	0.827833175659	72.0	-101.0	63.0	-92.0	1
3.0.1	2019_Mar_09_1739	s	s	11	3	SIC	397	2_1	2	1	4	4	23_4_4	2	3	1	0	0.48153591156	-139.0	-235.0	-139.0	-226.0	1
3.0.1	2019_Mar_09_1739	s	s	11	3	SIC	398	4_3	4	3	2	2	23_2_2	2	1	1	0	0.457951068878	-357.0	-175.0	-348.0	-165.0	1
3.0.1	2019_Mar_09_1739	s	s	11	3	SIC	399	ABS	0	0	1	4	24_1_4	NA	NA	0	1	1.04019188881	None	None	None	None	1
3.0.1	2019_Mar_09_1739	s	s	11	3	SIC	400	1_4	1	4	4	4	23_4_4	3	0	1	0	0.627671957016	-477.0	243.0	-475.0	245.0	1
3.0.1	2019_Mar_09_1739	s	s	11	3	SIC	401	ABS	0	0	2	1	24_2_1	NA	NA	0	1	0.775609016418	None	None	None	None	1
3.0.1	2019_Mar_09_1739	s	s	11	3	SIC	402	ABS	0	0	4	2	24_4_2	NA	NA	0	1	0.679713010788	None	None	None	None	1
3.0.1	2019_Mar_09_1739	s	s	11	3	SIC	403	3_3	3	3	4	2	23_4_2	-1	1	1	0	0.75200510025	-288.0	389.0	-286.0	393.0	1
3.0.1	2019_Mar_09_1739	s	s	11	3	SIC	404	1_1	1	1	3	4	23_3_4	2	3	1	0	0.481603860855	241.0	138.0	243.0	134.0	1
3.0.1	2019_Mar_09_1739	s	s	11	3	SIC	405	ABS	0	0	2	2	24_2_2	NA	NA	0	1	1.14547204971	None	None	None	None	1
3.0.1	2019_Mar_09_1739	s	s	11	3	SIC	406	ABS	0	0	2	2	24_2_2	NA	NA	0	1	1.42540192604	None	None	None	None	1
3.0.1	2019_Mar_09_1739	s	s	11	3	SIC	407	4_2	4	2	2	2	23_2_2	2	0	1	0	0.629440069199	-119.0	-34.0	-126.0	-38.0	1
3.0.1	2019_Mar_09_1739	s	s	11	3	SIC	408	ABS	0	0	2	1	24_2_1	NA	NA	0	1	1.29302978516	None	None	None	None	1
3.0.1	2019_Mar_09_1739	s	s	11	3	SIC	409	3_2	3	2	3	3	23_3_3	0	1	0	1	1.8545088768	465.0	215.0	None	None	0
3.0.1	2019_Mar_09_1739	s	s	11	3	SIC	410	ABS	0	0	4	1	24_4_1	NA	NA	0	1	0.746325016022	None	None	None	None	1
3.0.1	2019_Mar_09_1739	s	s	11	3	SIC	411	ABS	0	0	3	1	24_3_1	NA	NA	0	1	0.775628089905	None	None	None	None	1
3.0.1	2019_Mar_09_1739	s	s	11	3	SIC	412	4_1	4	1	1	3	23_1_3	3	2	1	0	0.451435089111	385.0	-157.0	371.0	-152.0	1
3.0.1	2019_Mar_09_1739	s	s	11	3	SIC	413	2_4	2	4	1	2	23_1_2	-1	2	1	0	0.679095983505	-238.0	317.0	-251.0	325.0	1
3.0.1	2019_Mar_09_1739	s	s	11	3	SIC	414	1_1	1	1	4	4	23_4_4	3	3	1	0	0.399118900299	42.0	-215.0	32.0	-217.0	1
3.0.1	2019_Mar_09_1739	s	s	11	3	SIC	415	ABS	0	0	1	2	24_1_2	NA	NA	0	1	0.834442853928	None	None	None	None	1
3.0.1	2019_Mar_09_1739	s	s	11	3	SIC	416	ABS	0	0	4	4	24_4_4	NA	NA	0	1	0.849172830582	None	None	None	None	1
3.0.1	2019_Mar_09_1739	s	s	11	3	SIC	417	2_4	2	4	3	4	23_3_4	1	0	1	0	0.790223121643	-171.0	394.0	-179.0	388.0	1
3.0.1	2019_Mar_09_1739	s	s	11	3	SIC	418	1_4	1	4	2	1	23_2_1	1	3	1	0	0.71673989296	303.0	-337.0	308.0	-341.0	1
3.0.1	2019_Mar_09_1739	s	s	11	3	SIC	419	2_3	2	3	1	1	23_1_1	-1	2	1	0	1.86932015419	-5.0	-46.0	-14.0	-43.0	1
3.0.1	2019_Mar_09_1739	s	s	11	3	SIC	420	2_3	2	3	3	4	23_3_4	1	-1	1	0	0.575568199158	-439.0	-13.0	-442.0	-11.0	1
3.0.1	2019_Mar_09_1739	s	s	11	3	SIC	421	ABS	0	0	1	1	24_1_1	NA	NA	0	1	1.1167280674	None	None	None	None	1
3.0.1	2019_Mar_09_1739	s	s	11	3	SIC	422	1_2	1	2	2	3	23_2_3	1	1	0	1	1.44586896896	-423.0	-130.0	None	None	0
3.0.1	2019_Mar_09_1739	s	s	11	3	SIC	423	4_4	4	4	2	3	23_2_3	2	1	1	0	0.516777992249	347.0	88.0	347.0	94.0	1
3.0.1	2019_Mar_09_1739	s	s	11	3	SIC	424	3_2	3	2	1	1	23_1_1	2	-1	1	0	0.481546163559	-436.0	47.0	-436.0	49.0	1
3.0.1	2019_Mar_09_1739	s	s	11	3	SIC	425	ABS	0	0	1	3	24_1_3	NA	NA	0	1	0.932718038559	None	None	None	None	1
3.0.1	2019_Mar_09_1739	s	s	11	3	SIC	426	ABS	0	0	3	1	24_3_1	NA	NA	0	1	1.12847399712	None	None	None	None	1
3.0.1	2019_Mar_09_1739	s	s	11	3	SIC	427	ABS	0	0	3	3	24_3_3	NA	NA	0	1	1.61816596985	None	None	None	None	1
3.0.1	2019_Mar_09_1739	s	s	11	3	SIC	428	ABS	0	0	3	3	24_3_3	NA	NA	0	1	1.41063594818	None	None	None	None	1
3.0.1	2019_Mar_09_1739	s	s	11	3	SIC	429	2_2	2	2	2	1	23_2_1	0	-1	0	1	0.853292942047	96.0	62.0	None	None	0
3.0.1	2019_Mar_09_1739	s	s	11	3	SIC	430	4_4	4	4	3	2	23_3_2	1	2	1	0	0.503458976746	490.0	83.0	487.0	86.0	1
3.0.1	2019_Mar_09_1739	s	s	11	3	SIC	431	ABS	0	0	1	3	24_1_3	NA	NA	0	1	2.53972101212	None	None	None	None	1
3.0.1	2019_Mar_09_1739	s	s	11	3	SIC	432	1_2	1	2	4	4	23_4_4	3	2	1	0	0.493395090103	116.0	101.0	110.0	105.0	1
3.0.1	2019_Mar_09_1739	s	s	11	3	SIC	433	ABS	0	0	1	3	24_1_3	NA	NA	0	1	1.5400660038	None	None	None	None	1
3.0.1	2019_Mar_09_1739	s	s	11	3	SIC	434	1_1	1	1	3	3	23_3_3	2	2	1	0	0.615779876709	-508.0	-391.0	-510.0	-407.0	1
3.0.1	2019_Mar_09_1739	s	s	11	3	SIC	435	ABS	0	0	2	3	24_2_3	NA	NA	0	1	1.79186606407	None	None	None	None	1
3.0.1	2019_Mar_09_1739	s	s	11	3	SIC	436	ABS	0	0	4	2	24_4_2	NA	NA	0	1	0.916735172272	None	None	None	None	1
3.0.1	2019_Mar_09_1739	s	s	11	3	SIC	437	ABS	0	0	3	1	24_3_1	NA	NA	0	1	1.09321498871	None	None	None	None	1
3.0.1	2019_Mar_09_1739	s	s	11	3	SIC	438	ABS	0	0	2	1	24_2_1	NA	NA	0	1	1.23423409462	None	None	None	None	1
3.0.1	2019_Mar_09_1739	s	s	11	3	SIC	439	ABS	0	0	2	4	24_2_4	NA	NA	0	1	1.8222849369	None	None	None	None	1
3.0.1	2019_Mar_09_1739	s	s	11	3	SIC	440	ABS	0	0	2	2	24_2_2	NA	NA	0	1	2.1317679882	None	None	None	None	1
3.0.1	2019_Mar_09_1739	s	s	11	3	SIC	441	ABS	0	0	1	1	24_1_1	NA	NA	0	1	0.834413051605	None	None	None	None	1
3.0.1	2019_Mar_09_1739	s	s	11	3	SIC	442	ABS	0	0	3	3	24_3_3	NA	NA	0	1	2.38683199883	None	None	None	None	1
3.0.1	2019_Mar_09_1739	s	s	11	3	SIC	443	ABS	0	0	1	1	24_1_1	NA	NA	0	1	1.65773296356	None	None	None	None	1
3.0.1	2019_Mar_09_1739	s	s	11	3	SIC	444	ABS	0	0	1	1	24_1_1	NA	NA	0	1	1.07450199127	None	None	None	None	1
3.0.1	2019_Mar_09_1739	s	s	11	3	SIC	445	ABS	0	0	1	4	24_1_4	NA	NA	0	1	0.716799974442	None	None	None	None	1
3.0.1	2019_Mar_09_1739	s	s	11	3	SIC	446	4_2	4	2	4	3	23_4_3	0	1	0	1	1.94011306763	-338.0	-62.0	None	None	0
3.0.1	2019_Mar_09_1739	s	s	11	3	SIC	447	ABS	0	0	4	1	24_4_1	NA	NA	0	1	0.822521924973	None	None	None	None	1
3.0.1	2019_Mar_09_1739	s	s	11	3	SIC	448	3_3	3	3	2	2	23_2_2	1	1	1	0	1.89293313026	-217.0	289.0	-217.0	296.0	1
3.0.1	2019_Mar_09_1739	s	s	11	3	SIC	449	ABS	0	0	1	2	24_1_2	NA	NA	0	1	0.881373882294	None	None	None	None	1
3.0.1	2019_Mar_09_1739	s	s	11	3	SIC	450	1_4	1	4	3	1	23_3_1	2	3	1	0	0.672850131989	203.0	-310.0	194.0	-313.0	1
3.0.1	2019_Mar_09_1739	s	s	11	3	SIC	451	ABS	0	0	4	3	24_4_3	NA	NA	0	1	1.75173187256	None	None	None	None	1
3.0.1	2019_Mar_09_1739	s	s	11	3	SIC	452	1_1	1	1	1	4	23_1_4	0	3	0	1	0.799081087112	-10.0	-401.0	None	None	0
3.0.1	2019_Mar_09_1739	s	s	11	3	SIC	453	ABS	0	0	3	4	24_3_4	NA	NA	0	1	0.790283918381	None	None	None	None	1
3.0.1	2019_Mar_09_1739	s	s	11	3	SIC	454	1_1	1	1	1	3	23_1_3	0	2	0	1	1.37820291519	-55.0	-387.0	None	None	0
3.0.1	2019_Mar_09_1739	s	s	11	3	SIC	455	2_3	2	3	4	1	23_4_1	2	2	1	0	0.604031085968	-388.0	99.0	-394.0	93.0	1
3.0.1	2019_Mar_09_1739	s	s	11	3	SIC	456	ABS	0	0	2	1	24_2_1	NA	NA	0	1	0.931181907654	None	None	None	None	1
3.0.1	2019_Mar_09_1739	s	s	11	3	SIC	457	4_2	4	2	4	4	23_4_4	0	2	1	0	0.790181875229	-346.0	183.0	-344.0	191.0	1
3.0.1	2019_Mar_09_1739	s	s	11	3	SIC	458	2_1	2	1	4	1	23_4_1	2	0	1	0	0.58734703064	315.0	358.0	320.0	363.0	1
3.0.1	2019_Mar_09_1739	s	s	11	3	SIC	459	ABS	0	0	3	4	24_3_4	NA	NA	0	1	0.763799905777	None	None	None	None	1
3.0.1	2019_Mar_09_1739	s	s	11	3	SIC	460	1_3	1	3	3	3	23_3_3	2	0	1	0	0.521889209747	61.0	352.0	58.0	354.0	1
3.0.1	2019_Mar_09_1739	s	s	11	3	SIC	461	4_2	4	2	4	1	23_4_1	0	-1	0	1	1.56781816483	117.0	278.0	None	None	0
3.0.1	2019_Mar_09_1739	s	s	11	3	SIC	462	3_3	3	3	3	1	23_3_1	0	2	1	0	0.973238229752	59.0	313.0	62.0	314.0	1
3.0.1	2019_Mar_09_1739	s	s	11	3	SIC	463	4_3	4	3	1	2	23_1_2	3	1	1	0	0.451418161392	-12.0	235.0	-17.0	237.0	1
3.0.1	2019_Mar_09_1739	s	s	11	3	SIC	464	2_3	2	3	2	2	23_2_2	0	1	0	1	1.86935400963	492.0	-56.0	None	None	0
3.0.1	2019_Mar_09_1739	s	s	11	3	SIC	465	2_4	2	4	3	2	23_3_2	1	2	1	0	0.886554002762	-538.0	-144.0	-541.0	-151.0	1
3.0.1	2019_Mar_09_1739	s	s	11	3	SIC	466	ABS	0	0	3	1	24_3_1	NA	NA	0	1	1.28667211533	None	None	None	None	1
3.0.1	2019_Mar_09_1739	s	s	11	3	SIC	467	4_2	4	2	3	1	23_3_1	1	-1	1	0	0.528595209122	405.0	217.0	412.0	220.0	1
3.0.1	2019_Mar_09_1739	s	s	11	3	SIC	468	4_4	4	4	1	1	23_1_1	3	3	1	0	0.437388896942	11.0	285.0	5.0	290.0	1
3.0.1	2019_Mar_09_1739	s	s	11	3	SIC	469	ABS	0	0	2	3	24_2_3	NA	NA	0	1	2.54492592812	None	None	None	None	1
3.0.1	2019_Mar_09_1739	s	s	11	3	SIC	470	2_4	2	4	4	4	23_4_4	2	0	1	0	0.528610944748	149.0	173.0	141.0	177.0	1
3.0.1	2019_Mar_09_1739	s	s	11	3	SIC	471	2_1	2	1	4	3	23_4_3	2	2	1	0	0.395254135132	-159.0	249.0	-152.0	252.0	1
3.0.1	2019_Mar_09_1739	s	s	11	3	SIC	472	1_3	1	3	3	2	23_3_2	2	1	1	0	0.496188879013	262.0	290.0	257.0	298.0	1
3.0.1	2019_Mar_09_1739	s	s	11	3	SIC	473	ABS	0	0	2	4	24_2_4	NA	NA	0	1	0.981816053391	None	None	None	None	1
3.0.1	2019_Mar_09_1739	s	s	11	3	SIC	474	ABS	0	0	3	4	24_3_4	NA	NA	0	1	1.03256988525	None	None	None	None	1
3.0.1	2019_Mar_09_1739	s	s	11	3	SIC	475	ABS	0	0	1	1	24_1_1	NA	NA	0	1	1.20180296898	None	None	None	None	1
3.0.1	2019_Mar_09_1739	s	s	11	3	SIC	476	ABS	0	0	4	4	24_4_4	NA	NA	0	1	0.710165977478	None	None	None	None	1
3.0.1	2019_Mar_09_1739	s	s	11	3	SIC	477	4_3	4	3	4	4	23_4_4	0	-1	1	0	0.815524101257	-313.0	205.0	-307.0	198.0	1
3.0.1	2019_Mar_09_1739	s	s	11	3	SIC	478	3_1	3	1	4	2	23_4_2	-1	1	1	0	0.568983078003	89.0	373.0	91.0	382.0	1
3.0.1	2019_Mar_09_1739	s	s	11	3	SIC	479	ABS	0	0	2	1	24_2_1	NA	NA	0	1	0.672605991364	None	None	None	None	1
3.0.1	2019_Mar_09_1739	s	s	11	3	SIC	480	ABS	0	0	2	1	24_2_1	NA	NA	0	1	1.21589899063	None	None	None	None	1
