Version	Date	Stimuli	Method	Subject	Session	Condition	Trial	Target	TColor	TShape	DColor	DShape	Distractors	Channel1	Channel2	LMouseButton	RMouseButton	RT	TargetX	TargetY	ResponseX	ResponseY	Correct
3.0.1	2019_Mar_09_1112	s	s	12	2	Capacity	1	1_1	1	1	1	4	23_1_4	0	3	1	0	0.616030931473	-88.0	14.0	-94.0	16.0	1
3.0.1	2019_Mar_09_1112	s	s	12	2	Capacity	2	ABS	0	0	1	3	24_1_3	NA	NA	0	1	2.42243790627	None	None	None	None	1
3.0.1	2019_Mar_09_1112	s	s	12	2	Capacity	3	1_3	1	3	1	4	23_1_4	0	-1	1	0	0.575580120087	-478.0	65.0	-486.0	67.0	1
3.0.1	2019_Mar_09_1112	s	s	12	2	Capacity	4	ABS	0	0	1	2	24_1_2	NA	NA	0	1	1.98695993423	None	None	None	None	1
3.0.1	2019_Mar_09_1112	s	s	12	2	Capacity	5	1_4	1	4	1	2	23_1_2	0	2	1	0	1.07253813744	-196.0	316.0	-190.0	314.0	1
3.0.1	2019_Mar_09_1112	s	s	12	2	Capacity	6	1_2	1	2	1	4	23_1_4	0	2	1	0	0.783569097519	56.0	375.0	53.0	383.0	1
3.0.1	2019_Mar_09_1112	s	s	12	2	Capacity	7	1_2	1	2	1	1	23_1_1	0	-1	0	1	1.07248401642	-145.0	-340.0	None	None	0
3.0.1	2019_Mar_09_1112	s	s	12	2	Capacity	8	1_3	1	3	1	2	23_1_2	0	1	1	0	3.93251895905	-78.0	-339.0	-69.0	-338.0	1
3.0.1	2019_Mar_09_1112	s	s	12	2	Capacity	9	ABS	0	0	1	3	24_1_3	NA	NA	0	1	3.46205687523	None	None	None	None	1
3.0.1	2019_Mar_09_1112	s	s	12	2	Capacity	10	ABS	0	0	1	1	24_1_1	NA	NA	0	1	1.12844109535	None	None	None	None	1
3.0.1	2019_Mar_09_1112	s	s	12	2	Capacity	11	ABS	0	0	1	4	24_1_4	NA	NA	0	1	1.22758603096	None	None	None	None	1
3.0.1	2019_Mar_09_1112	s	s	12	2	Capacity	12	ABS	0	0	1	1	24_1_1	NA	NA	0	1	2.36339116096	None	None	None	None	1
3.0.1	2019_Mar_09_1112	s	s	12	2	Capacity	13	ABS	0	0	1	4	24_1_4	NA	NA	0	1	1.19254899025	None	None	None	None	1
3.0.1	2019_Mar_09_1112	s	s	12	2	Capacity	14	ABS	0	0	1	3	24_1_3	NA	NA	0	1	1.99275708199	None	None	None	None	1
3.0.1	2019_Mar_09_1112	s	s	12	2	Capacity	15	ABS	0	0	1	4	24_1_4	NA	NA	0	1	1.64583110809	None	None	None	None	1
3.0.1	2019_Mar_09_1112	s	s	12	2	Capacity	16	1_2	1	2	1	3	23_1_3	0	1	1	0	1.41068005562	404.0	-182.0	408.0	-183.0	1
3.0.1	2019_Mar_09_1112	s	s	12	2	Capacity	17	ABS	0	0	1	1	24_1_1	NA	NA	0	1	1.92814707756	None	None	None	None	1
3.0.1	2019_Mar_09_1112	s	s	12	2	Capacity	18	1_1	1	1	1	3	23_1_3	0	2	1	0	1.1520152092	-88.0	-40.0	-95.0	-40.0	1
3.0.1	2019_Mar_09_1112	s	s	12	2	Capacity	19	ABS	0	0	1	2	24_1_2	NA	NA	0	1	2.67195081711	None	None	None	None	1
3.0.1	2019_Mar_09_1112	s	s	12	2	Capacity	20	1_4	1	4	1	3	23_1_3	0	1	1	0	2.19319295883	-403.0	-325.0	-405.0	-334.0	1
3.0.1	2019_Mar_09_1112	s	s	12	2	Capacity	21	1_1	1	1	1	2	23_1_2	0	1	1	0	1.29289603233	201.0	28.0	190.0	37.0	1
3.0.1	2019_Mar_09_1112	s	s	12	2	Capacity	22	ABS	0	0	1	2	24_1_2	NA	NA	0	1	3.76778292656	None	None	None	None	1
3.0.1	2019_Mar_09_1112	s	s	12	2	Capacity	23	1_3	1	3	1	1	23_1_1	0	2	1	0	1.72151899338	-155.0	109.0	-147.0	117.0	1
3.0.1	2019_Mar_09_1112	s	s	12	2	Capacity	24	1_4	1	4	1	1	23_1_1	0	3	1	0	0.657975912094	-232.0	80.0	-220.0	81.0	1
3.0.1	2019_Mar_09_1112	s	s	12	2	Capacity	25	ABS	0	0	1	2	24_1_2	NA	NA	0	1	3.25000095367	None	None	None	None	1
3.0.1	2019_Mar_09_1112	s	s	12	2	Capacity	26	1_3	1	3	1	2	23_1_2	0	1	1	0	2.9683740139	87.0	-208.0	91.0	-200.0	1
3.0.1	2019_Mar_09_1112	s	s	12	2	Capacity	27	ABS	0	0	1	2	24_1_2	NA	NA	0	1	2.67196297646	None	None	None	None	1
3.0.1	2019_Mar_09_1112	s	s	12	2	Capacity	28	1_1	1	1	1	4	23_1_4	0	3	1	0	0.543281793594	22.0	87.0	24.0	85.0	1
3.0.1	2019_Mar_09_1112	s	s	12	2	Capacity	29	1_3	1	3	1	1	23_1_1	0	2	0	1	1.10481286049	377.0	363.0	None	None	0
3.0.1	2019_Mar_09_1112	s	s	12	2	Capacity	30	1_2	1	2	1	4	23_1_4	0	2	1	0	0.65286397934	-86.0	174.0	-91.0	175.0	1
3.0.1	2019_Mar_09_1112	s	s	12	2	Capacity	31	ABS	0	0	1	4	24_1_4	NA	NA	0	1	2.47400808334	None	None	None	None	1
3.0.1	2019_Mar_09_1112	s	s	12	2	Capacity	32	ABS	0	0	1	4	24_1_4	NA	NA	0	1	4.33919286728	None	None	None	None	1
3.0.1	2019_Mar_09_1112	s	s	12	2	Capacity	33	1_2	1	2	1	3	23_1_3	0	1	1	0	4.15099596977	-500.0	-243.0	-492.0	-237.0	1
3.0.1	2019_Mar_09_1112	s	s	12	2	Capacity	34	1_1	1	1	1	2	23_1_2	0	1	1	0	1.67593002319	-84.0	-61.0	-75.0	-54.0	1
3.0.1	2019_Mar_09_1112	s	s	12	2	Capacity	35	1_2	1	2	1	1	23_1_1	0	-1	0	1	1.20865893364	63.0	-370.0	None	None	0
3.0.1	2019_Mar_09_1112	s	s	12	2	Capacity	36	ABS	0	0	1	3	24_1_3	NA	NA	0	1	5.22129297256	None	None	None	None	1
3.0.1	2019_Mar_09_1112	s	s	12	2	Capacity	37	1_4	1	4	1	3	23_1_3	0	1	1	0	1.51643300056	-530.0	310.0	-539.0	308.0	1
3.0.1	2019_Mar_09_1112	s	s	12	2	Capacity	38	1_4	1	4	1	2	23_1_2	0	2	1	0	1.35181999207	-504.0	276.0	-504.0	271.0	1
3.0.1	2019_Mar_09_1112	s	s	12	2	Capacity	39	ABS	0	0	1	1	24_1_1	NA	NA	0	1	1.0304069519	None	None	None	None	1
3.0.1	2019_Mar_09_1112	s	s	12	2	Capacity	40	ABS	0	0	1	3	24_1_3	NA	NA	0	1	3.10441207886	None	None	None	None	1
3.0.1	2019_Mar_09_1112	s	s	12	2	Capacity	41	ABS	0	0	1	4	24_1_4	NA	NA	0	1	2.10929894447	None	None	None	None	1
3.0.1	2019_Mar_09_1112	s	s	12	2	Capacity	42	1_1	1	1	1	3	23_1_3	0	2	1	0	1.60413694382	389.0	-406.0	395.0	-408.0	1
3.0.1	2019_Mar_09_1112	s	s	12	2	Capacity	43	ABS	0	0	1	1	24_1_1	NA	NA	0	1	1.35599684715	None	None	None	None	1
3.0.1	2019_Mar_09_1112	s	s	12	2	Capacity	44	ABS	0	0	1	2	24_1_2	NA	NA	0	1	4.71557784081	None	None	None	None	1
3.0.1	2019_Mar_09_1112	s	s	12	2	Capacity	45	1_3	1	3	1	4	23_1_4	0	-1	1	0	1.05779886246	99.0	395.0	87.0	400.0	1
3.0.1	2019_Mar_09_1112	s	s	12	2	Capacity	46	1_4	1	4	1	1	23_1_1	0	3	1	0	0.775569200516	-425.0	-9.0	-426.0	-16.0	1
3.0.1	2019_Mar_09_1112	s	s	12	2	Capacity	47	ABS	0	0	1	3	24_1_3	NA	NA	0	1	3.32767391205	None	None	None	None	1
3.0.1	2019_Mar_09_1112	s	s	12	2	Capacity	48	ABS	0	0	1	1	24_1_1	NA	NA	0	1	3.94466996193	None	None	None	None	1
3.0.1	2019_Mar_09_1112	s	s	12	2	Capacity	49	ABS	0	0	1	2	24_1_2	NA	NA	0	1	3.03955817223	None	None	None	None	1
3.0.1	2019_Mar_09_1112	s	s	12	2	Capacity	50	ABS	0	0	1	4	24_1_4	NA	NA	0	1	2.79846692085	None	None	None	None	1
3.0.1	2019_Mar_09_1112	s	s	12	2	Capacity	51	1_4	1	4	1	2	23_1_2	0	2	1	0	1.53332591057	481.0	-16.0	484.0	-18.0	1
3.0.1	2019_Mar_09_1112	s	s	12	2	Capacity	52	ABS	0	0	1	1	24_1_1	NA	NA	0	1	1.10485386848	None	None	None	None	1
3.0.1	2019_Mar_09_1112	s	s	12	2	Capacity	53	ABS	0	0	1	2	24_1_2	NA	NA	0	1	3.08978414536	None	None	None	None	1
3.0.1	2019_Mar_09_1112	s	s	12	2	Capacity	54	1_1	1	1	1	4	23_1_4	0	3	1	0	0.657985210419	-393.0	222.0	-387.0	219.0	1
3.0.1	2019_Mar_09_1112	s	s	12	2	Capacity	55	1_2	1	2	1	4	23_1_4	0	2	1	0	1.34319090843	343.0	374.0	349.0	370.0	1
3.0.1	2019_Mar_09_1112	s	s	12	2	Capacity	56	ABS	0	0	1	1	24_1_1	NA	NA	0	1	0.869639873505	None	None	None	None	1
3.0.1	2019_Mar_09_1112	s	s	12	2	Capacity	57	ABS	0	0	1	4	24_1_4	NA	NA	0	1	1.26952910423	None	None	None	None	1
3.0.1	2019_Mar_09_1112	s	s	12	2	Capacity	58	ABS	0	0	1	3	24_1_3	NA	NA	0	1	1.40175008774	None	None	None	None	1
3.0.1	2019_Mar_09_1112	s	s	12	2	Capacity	59	1_1	1	1	1	3	23_1_3	0	2	1	0	0.966701984406	-19.0	215.0	-18.0	203.0	1
3.0.1	2019_Mar_09_1112	s	s	12	2	Capacity	60	1_3	1	3	1	4	23_1_4	0	-1	1	0	0.693223953247	-241.0	359.0	-252.0	360.0	1
3.0.1	2019_Mar_09_1112	s	s	12	2	Capacity	61	ABS	0	0	1	2	24_1_2	NA	NA	0	1	1.22285914421	None	None	None	None	1
3.0.1	2019_Mar_09_1112	s	s	12	2	Capacity	62	ABS	0	0	1	1	24_1_1	NA	NA	0	1	1.22244787216	None	None	None	None	1
3.0.1	2019_Mar_09_1112	s	s	12	2	Capacity	63	1_2	1	2	1	3	23_1_3	0	1	0	1	4.83320593834	-472.0	-157.0	None	None	0
3.0.1	2019_Mar_09_1112	s	s	12	2	Capacity	64	1_2	1	2	1	1	23_1_1	0	-1	0	1	0.646203994751	-381.0	-359.0	None	None	0
3.0.1	2019_Mar_09_1112	s	s	12	2	Capacity	65	1_4	1	4	1	3	23_1_3	0	1	0	1	1.08750987053	255.0	363.0	None	None	0
3.0.1	2019_Mar_09_1112	s	s	12	2	Capacity	66	1_3	1	3	1	1	23_1_1	0	2	0	1	0.88658285141	-317.0	-291.0	None	None	0
3.0.1	2019_Mar_09_1112	s	s	12	2	Capacity	67	1_3	1	3	1	2	23_1_2	0	1	0	1	4.08083605766	-249.0	-210.0	None	None	0
3.0.1	2019_Mar_09_1112	s	s	12	2	Capacity	68	ABS	0	0	1	3	24_1_3	NA	NA	0	1	0.992483854294	None	None	None	None	1
3.0.1	2019_Mar_09_1112	s	s	12	2	Capacity	69	ABS	0	0	1	4	24_1_4	NA	NA	0	1	1.73110198975	None	None	None	None	1
3.0.1	2019_Mar_09_1112	s	s	12	2	Capacity	70	ABS	0	0	1	3	24_1_3	NA	NA	0	1	1.96333599091	None	None	None	None	1
3.0.1	2019_Mar_09_1112	s	s	12	2	Capacity	71	1_1	1	1	1	2	23_1_2	0	1	1	0	1.60379505157	202.0	-4.0	190.0	4.0	1
3.0.1	2019_Mar_09_1112	s	s	12	2	Capacity	72	1_4	1	4	1	1	23_1_1	0	3	0	1	1.010835886	-375.0	-258.0	None	None	0
3.0.1	2019_Mar_09_1112	s	s	12	2	Capacity	73	ABS	0	0	1	4	24_1_4	NA	NA	0	1	2.38372898102	None	None	None	None	1
3.0.1	2019_Mar_09_1112	s	s	12	2	Capacity	74	1_3	1	3	1	1	23_1_1	0	2	1	0	1.14011597633	121.0	394.0	122.0	395.0	1
3.0.1	2019_Mar_09_1112	s	s	12	2	Capacity	75	ABS	0	0	1	4	24_1_4	NA	NA	0	1	1.32833814621	None	None	None	None	1
3.0.1	2019_Mar_09_1112	s	s	12	2	Capacity	76	1_2	1	2	1	4	23_1_4	0	2	1	0	0.650983095169	-470.0	-189.0	-464.0	-192.0	1
3.0.1	2019_Mar_09_1112	s	s	12	2	Capacity	77	1_1	1	1	1	2	23_1_2	0	1	0	1	1.54004216194	198.0	-78.0	None	None	0
3.0.1	2019_Mar_09_1112	s	s	12	2	Capacity	78	1_1	1	1	1	4	23_1_4	0	3	1	0	0.555063009262	244.0	-19.0	258.0	-11.0	1
3.0.1	2019_Mar_09_1112	s	s	12	2	Capacity	79	ABS	0	0	1	3	24_1_3	NA	NA	0	1	2.1310069561	None	None	None	None	1
3.0.1	2019_Mar_09_1112	s	s	12	2	Capacity	80	ABS	0	0	1	1	24_1_1	NA	NA	0	1	1.54679489136	None	None	None	None	1
3.0.1	2019_Mar_09_1112	s	s	12	2	Capacity	81	1_4	1	4	1	2	23_1_2	0	2	1	0	1.3782479763	-533.0	-266.0	-531.0	-266.0	1
3.0.1	2019_Mar_09_1112	s	s	12	2	Capacity	82	ABS	0	0	1	2	24_1_2	NA	NA	0	1	3.49525094032	None	None	None	None	1
3.0.1	2019_Mar_09_1112	s	s	12	2	Capacity	83	1_3	1	3	1	2	23_1_2	0	1	0	1	1.35192394257	133.0	-262.0	None	None	0
3.0.1	2019_Mar_09_1112	s	s	12	2	Capacity	84	1_4	1	4	1	3	23_1_3	0	1	1	0	0.688421010971	-515.0	-40.0	-522.0	-32.0	1
3.0.1	2019_Mar_09_1112	s	s	12	2	Capacity	85	ABS	0	0	1	4	24_1_4	NA	NA	0	1	1.21074295044	None	None	None	None	1
3.0.1	2019_Mar_09_1112	s	s	12	2	Capacity	86	ABS	0	0	1	3	24_1_3	NA	NA	0	1	2.03830885887	None	None	None	None	1
3.0.1	2019_Mar_09_1112	s	s	12	2	Capacity	87	ABS	0	0	1	1	24_1_1	NA	NA	0	1	0.723484039307	None	None	None	None	1
3.0.1	2019_Mar_09_1112	s	s	12	2	Capacity	88	1_2	1	2	1	3	23_1_3	0	1	0	1	0.928548812866	46.0	235.0	None	None	0
3.0.1	2019_Mar_09_1112	s	s	12	2	Capacity	89	1_4	1	4	1	1	23_1_1	0	3	1	0	1.04629802704	227.0	248.0	225.0	248.0	1
3.0.1	2019_Mar_09_1112	s	s	12	2	Capacity	90	1_1	1	1	1	3	23_1_3	0	2	1	0	2.12808799744	-392.0	-95.0	-389.0	-102.0	1
3.0.1	2019_Mar_09_1112	s	s	12	2	Capacity	91	ABS	0	0	1	3	24_1_3	NA	NA	0	1	2.04576420784	None	None	None	None	1
3.0.1	2019_Mar_09_1112	s	s	12	2	Capacity	92	1_2	1	2	1	1	23_1_1	0	-1	0	1	0.704995155334	-213.0	39.0	None	None	0
3.0.1	2019_Mar_09_1112	s	s	12	2	Capacity	93	1_3	1	3	1	4	23_1_4	0	-1	1	0	0.799430131912	275.0	-359.0	284.0	-357.0	1
3.0.1	2019_Mar_09_1112	s	s	12	2	Capacity	94	ABS	0	0	1	2	24_1_2	NA	NA	0	1	2.06277608871	None	None	None	None	1
3.0.1	2019_Mar_09_1112	s	s	12	2	Capacity	95	ABS	0	0	1	1	24_1_1	NA	NA	0	1	0.822704792023	None	None	None	None	1
3.0.1	2019_Mar_09_1112	s	s	12	2	Capacity	96	ABS	0	0	1	2	24_1_2	NA	NA	0	1	1.20190596581	None	None	None	None	1
3.0.1	2019_Mar_09_1112	s	s	12	2	Capacity	1	1_1	1	1	4	1	23_4_1	3	0	1	0	0.516838788986	-176.0	-392.0	-181.0	-395.0	1
3.0.1	2019_Mar_09_1112	s	s	12	2	Capacity	2	3_1	3	1	1	1	23_1_1	2	0	1	0	0.532179117203	123.0	-206.0	123.0	-211.0	1
3.0.1	2019_Mar_09_1112	s	s	12	2	Capacity	3	ABS	0	0	2	1	24_2_1	NA	NA	0	1	0.940310955048	None	None	None	None	1
3.0.1	2019_Mar_09_1112	s	s	12	2	Capacity	4	ABS	0	0	1	1	24_1_1	NA	NA	0	1	0.731378078461	None	None	None	None	1
3.0.1	2019_Mar_09_1112	s	s	12	2	Capacity	5	1_1	1	1	3	1	23_3_1	2	0	1	0	0.563817977905	119.0	-92.0	121.0	-85.0	1
3.0.1	2019_Mar_09_1112	s	s	12	2	Capacity	6	ABS	0	0	2	1	24_2_1	NA	NA	0	1	1.02065491676	None	None	None	None	1
3.0.1	2019_Mar_09_1112	s	s	12	2	Capacity	7	ABS	0	0	4	1	24_4_1	NA	NA	0	1	1.31655216217	None	None	None	None	1
3.0.1	2019_Mar_09_1112	s	s	12	2	Capacity	8	ABS	0	0	4	1	24_4_1	NA	NA	0	1	0.568781137466	None	None	None	None	1
3.0.1	2019_Mar_09_1112	s	s	12	2	Capacity	9	3_1	3	1	2	1	23_2_1	1	0	1	0	0.516836881638	-110.0	237.0	-110.0	244.0	1
3.0.1	2019_Mar_09_1112	s	s	12	2	Capacity	10	ABS	0	0	3	1	24_3_1	NA	NA	0	1	0.622632980347	None	None	None	None	1
3.0.1	2019_Mar_09_1112	s	s	12	2	Capacity	11	4_1	4	1	2	1	23_2_1	2	0	1	0	0.444144010544	-28.0	-264.0	-31.0	-264.0	1
3.0.1	2019_Mar_09_1112	s	s	12	2	Capacity	12	2_1	2	1	4	1	23_4_1	2	0	1	0	0.469697952271	314.0	28.0	308.0	26.0	1
3.0.1	2019_Mar_09_1112	s	s	12	2	Capacity	13	4_1	4	1	3	1	23_3_1	1	0	1	0	0.560588121414	-92.0	260.0	-98.0	258.0	1
3.0.1	2019_Mar_09_1112	s	s	12	2	Capacity	14	ABS	0	0	4	1	24_4_1	NA	NA	1	0	0.628052949905	None	None	22.0	-45.0	0
3.0.1	2019_Mar_09_1112	s	s	12	2	Capacity	15	4_1	4	1	1	1	23_1_1	3	0	1	0	0.533405065536	347.0	262.0	351.0	263.0	1
3.0.1	2019_Mar_09_1112	s	s	12	2	Capacity	16	2_1	2	1	3	1	23_3_1	1	0	1	0	0.754963159561	198.0	346.0	204.0	349.0	1
3.0.1	2019_Mar_09_1112	s	s	12	2	Capacity	17	2_1	2	1	1	1	23_1_1	-1	0	0	1	1.18725299835	-44.0	12.0	None	None	0
3.0.1	2019_Mar_09_1112	s	s	12	2	Capacity	18	ABS	0	0	3	1	24_3_1	NA	NA	0	1	0.460877180099	None	None	None	None	1
3.0.1	2019_Mar_09_1112	s	s	12	2	Capacity	19	ABS	0	0	3	1	24_3_1	NA	NA	0	1	0.752009868622	None	None	None	None	1
3.0.1	2019_Mar_09_1112	s	s	12	2	Capacity	20	ABS	0	0	2	1	24_2_1	NA	NA	0	1	0.775582075119	None	None	None	None	1
3.0.1	2019_Mar_09_1112	s	s	12	2	Capacity	21	1_1	1	1	2	1	23_2_1	1	0	0	1	0.528537034988	-138.0	-201.0	None	None	0
3.0.1	2019_Mar_09_1112	s	s	12	2	Capacity	22	3_1	3	1	4	1	23_4_1	-1	0	1	0	0.516798019409	500.0	342.0	500.0	337.0	1
3.0.1	2019_Mar_09_1112	s	s	12	2	Capacity	23	ABS	0	0	1	1	24_1_1	NA	NA	0	1	0.731384038925	None	None	None	None	1
3.0.1	2019_Mar_09_1112	s	s	12	2	Capacity	24	ABS	0	0	1	1	24_1_1	NA	NA	0	1	0.481603860855	None	None	None	None	1
3.0.1	2019_Mar_09_1112	s	s	12	2	Capacity	25	1_1	1	1	2	1	23_2_1	1	0	0	1	0.511472940445	211.0	340.0	None	None	0
3.0.1	2019_Mar_09_1112	s	s	12	2	Capacity	26	4_1	4	1	1	1	23_1_1	3	0	1	0	0.437402009964	303.0	189.0	307.0	192.0	1
3.0.1	2019_Mar_09_1112	s	s	12	2	Capacity	27	2_1	2	1	3	1	23_3_1	1	0	1	0	1.49691319466	244.0	356.0	249.0	360.0	1
3.0.1	2019_Mar_09_1112	s	s	12	2	Capacity	28	1_1	1	1	3	1	23_3_1	2	0	1	0	0.705036878586	428.0	134.0	424.0	129.0	1
3.0.1	2019_Mar_09_1112	s	s	12	2	Capacity	29	3_1	3	1	2	1	23_2_1	1	0	1	0	0.560199975967	-417.0	12.0	-422.0	3.0	1
3.0.1	2019_Mar_09_1112	s	s	12	2	Capacity	30	ABS	0	0	1	1	24_1_1	NA	NA	0	1	0.768974065781	None	None	None	None	1
3.0.1	2019_Mar_09_1112	s	s	12	2	Capacity	31	ABS	0	0	1	1	24_1_1	NA	NA	0	1	0.516820907593	None	None	None	None	1
3.0.1	2019_Mar_09_1112	s	s	12	2	Capacity	32	ABS	0	0	2	1	24_2_1	NA	NA	0	1	1.23426485062	None	None	None	None	1
3.0.1	2019_Mar_09_1112	s	s	12	2	Capacity	33	3_1	3	1	1	1	23_1_1	2	0	1	0	0.790200948715	-350.0	-359.0	-344.0	-367.0	1
3.0.1	2019_Mar_09_1112	s	s	12	2	Capacity	34	ABS	0	0	1	1	24_1_1	NA	NA	0	1	0.567929983139	None	None	None	None	1
3.0.1	2019_Mar_09_1112	s	s	12	2	Capacity	35	1_1	1	1	4	1	23_4_1	3	0	1	0	0.496203184128	512.0	-388.0	513.0	-392.0	1
3.0.1	2019_Mar_09_1112	s	s	12	2	Capacity	36	ABS	0	0	2	1	24_2_1	NA	NA	0	1	0.731479883194	None	None	None	None	1
3.0.1	2019_Mar_09_1112	s	s	12	2	Capacity	37	3_1	3	1	4	1	23_4_1	-1	0	1	0	0.587373018265	-92.0	288.0	-85.0	289.0	1
3.0.1	2019_Mar_09_1112	s	s	12	2	Capacity	38	4_1	4	1	3	1	23_3_1	1	0	1	0	0.496237039566	-176.0	-231.0	-170.0	-232.0	1
3.0.1	2019_Mar_09_1112	s	s	12	2	Capacity	39	ABS	0	0	3	1	24_3_1	NA	NA	0	1	0.510240077972	None	None	None	None	1
3.0.1	2019_Mar_09_1112	s	s	12	2	Capacity	40	ABS	0	0	2	1	24_2_1	NA	NA	0	1	0.521776914597	None	None	None	None	1
3.0.1	2019_Mar_09_1112	s	s	12	2	Capacity	41	2_1	2	1	4	1	23_4_1	2	0	1	0	0.457978010178	-125.0	411.0	-114.0	413.0	1
3.0.1	2019_Mar_09_1112	s	s	12	2	Capacity	42	ABS	0	0	4	1	24_4_1	NA	NA	0	1	0.528574943542	None	None	None	None	1
3.0.1	2019_Mar_09_1112	s	s	12	2	Capacity	43	4_1	4	1	2	1	23_2_1	2	0	1	0	0.422836065292	103.0	-380.0	98.0	-383.0	1
3.0.1	2019_Mar_09_1112	s	s	12	2	Capacity	44	2_1	2	1	1	1	23_1_1	-1	0	0	1	0.709501028061	380.0	316.0	None	None	0
3.0.1	2019_Mar_09_1112	s	s	12	2	Capacity	45	ABS	0	0	3	1	24_3_1	NA	NA	0	1	0.604156017303	None	None	None	None	1
3.0.1	2019_Mar_09_1112	s	s	12	2	Capacity	46	ABS	0	0	3	1	24_3_1	NA	NA	0	1	0.500953197479	None	None	None	None	1
3.0.1	2019_Mar_09_1112	s	s	12	2	Capacity	47	ABS	0	0	4	1	24_4_1	NA	NA	0	1	0.422780036926	None	None	None	None	1
3.0.1	2019_Mar_09_1112	s	s	12	2	Capacity	48	ABS	0	0	4	1	24_4_1	NA	NA	0	1	0.415372133255	None	None	None	None	1
3.0.1	2019_Mar_09_1112	s	s	12	2	Capacity	49	3_1	3	1	2	1	23_2_1	1	0	1	0	0.528540849686	470.0	244.0	466.0	252.0	1
3.0.1	2019_Mar_09_1112	s	s	12	2	Capacity	50	2_1	2	1	1	1	23_1_1	-1	0	0	1	0.434415102005	476.0	157.0	None	None	0
3.0.1	2019_Mar_09_1112	s	s	12	2	Capacity	51	ABS	0	0	2	1	24_2_1	NA	NA	0	1	0.64622592926	None	None	None	None	1
3.0.1	2019_Mar_09_1112	s	s	12	2	Capacity	52	ABS	0	0	1	1	24_1_1	NA	NA	0	1	0.841151952744	None	None	None	None	1
3.0.1	2019_Mar_09_1112	s	s	12	2	Capacity	53	4_1	4	1	1	1	23_1_1	3	0	1	0	0.48156785965	-423.0	24.0	-419.0	25.0	1
3.0.1	2019_Mar_09_1112	s	s	12	2	Capacity	54	ABS	0	0	4	1	24_4_1	NA	NA	0	1	0.716773033142	None	None	None	None	1
3.0.1	2019_Mar_09_1112	s	s	12	2	Capacity	55	1_1	1	1	2	1	23_2_1	1	0	0	1	0.546340942383	451.0	-331.0	None	None	0
3.0.1	2019_Mar_09_1112	s	s	12	2	Capacity	56	4_1	4	1	3	1	23_3_1	1	0	1	0	0.473097085953	214.0	-180.0	216.0	-181.0	1
3.0.1	2019_Mar_09_1112	s	s	12	2	Capacity	57	4_1	4	1	2	1	23_2_1	2	0	1	0	0.496212005615	319.0	-71.0	308.0	-69.0	1
3.0.1	2019_Mar_09_1112	s	s	12	2	Capacity	58	2_1	2	1	3	1	23_3_1	1	0	1	0	0.546539068222	238.0	45.0	248.0	45.0	1
3.0.1	2019_Mar_09_1112	s	s	12	2	Capacity	59	3_1	3	1	4	1	23_4_1	-1	0	1	0	0.55500292778	-149.0	-15.0	-141.0	-20.0	1
3.0.1	2019_Mar_09_1112	s	s	12	2	Capacity	60	ABS	0	0	2	1	24_2_1	NA	NA	0	1	0.587360858917	None	None	None	None	1
3.0.1	2019_Mar_09_1112	s	s	12	2	Capacity	61	ABS	0	0	3	1	24_3_1	NA	NA	0	1	0.575661182404	None	None	None	None	1
3.0.1	2019_Mar_09_1112	s	s	12	2	Capacity	62	ABS	0	0	3	1	24_3_1	NA	NA	0	1	0.646111011505	None	None	None	None	1
3.0.1	2019_Mar_09_1112	s	s	12	2	Capacity	63	1_1	1	1	4	1	23_4_1	3	0	1	0	0.65034198761	-349.0	-190.0	-345.0	-203.0	1
3.0.1	2019_Mar_09_1112	s	s	12	2	Capacity	64	ABS	0	0	1	1	24_1_1	NA	NA	0	1	0.628429889679	None	None	None	None	1
3.0.1	2019_Mar_09_1112	s	s	12	2	Capacity	65	ABS	0	0	2	1	24_2_1	NA	NA	0	1	0.56383395195	None	None	None	None	1
3.0.1	2019_Mar_09_1112	s	s	12	2	Capacity	66	ABS	0	0	4	1	24_4_1	NA	NA	0	1	0.569718122482	None	None	None	None	1
3.0.1	2019_Mar_09_1112	s	s	12	2	Capacity	67	ABS	0	0	3	1	24_3_1	NA	NA	0	1	0.646142959595	None	None	None	None	1
3.0.1	2019_Mar_09_1112	s	s	12	2	Capacity	68	3_1	3	1	1	1	23_1_1	2	0	1	0	0.756494045258	-105.0	-369.0	-117.0	-365.0	1
3.0.1	2019_Mar_09_1112	s	s	12	2	Capacity	69	2_1	2	1	4	1	23_4_1	2	0	1	0	0.427771091461	-377.0	144.0	-380.0	140.0	1
3.0.1	2019_Mar_09_1112	s	s	12	2	Capacity	70	ABS	0	0	1	1	24_1_1	NA	NA	0	1	0.540327072144	None	None	None	None	1
3.0.1	2019_Mar_09_1112	s	s	12	2	Capacity	71	ABS	0	0	4	1	24_4_1	NA	NA	0	1	0.54034614563	None	None	None	None	1
3.0.1	2019_Mar_09_1112	s	s	12	2	Capacity	72	1_1	1	1	3	1	23_3_1	2	0	0	1	0.0518598556519	420.0	-249.0	None	None	0
3.0.1	2019_Mar_09_1112	s	s	12	2	Capacity	73	4_1	4	1	3	1	23_3_1	1	0	1	0	0.451120138168	28.0	-93.0	22.0	-93.0	1
3.0.1	2019_Mar_09_1112	s	s	12	2	Capacity	74	ABS	0	0	3	1	24_3_1	NA	NA	0	1	0.599138975143	None	None	None	None	1
3.0.1	2019_Mar_09_1112	s	s	12	2	Capacity	75	3_1	3	1	4	1	23_4_1	-1	0	1	0	0.56090593338	85.0	333.0	85.0	328.0	1
3.0.1	2019_Mar_09_1112	s	s	12	2	Capacity	76	2_1	2	1	1	1	23_1_1	-1	0	0	1	0.540798902512	530.0	210.0	None	None	0
3.0.1	2019_Mar_09_1112	s	s	12	2	Capacity	77	ABS	0	0	4	1	24_4_1	NA	NA	0	1	0.547007083893	None	None	None	None	1
3.0.1	2019_Mar_09_1112	s	s	12	2	Capacity	78	ABS	0	0	1	1	24_1_1	NA	NA	0	1	0.672631978989	None	None	None	None	1
3.0.1	2019_Mar_09_1112	s	s	12	2	Capacity	79	ABS	0	0	1	1	24_1_1	NA	NA	0	1	0.638423204422	None	None	None	None	1
3.0.1	2019_Mar_09_1112	s	s	12	2	Capacity	80	ABS	0	0	1	1	24_1_1	NA	NA	0	1	0.73141002655	None	None	None	None	1
3.0.1	2019_Mar_09_1112	s	s	12	2	Capacity	81	ABS	0	0	4	1	24_4_1	NA	NA	0	1	0.587393045425	None	None	None	None	1
3.0.1	2019_Mar_09_1112	s	s	12	2	Capacity	82	3_1	3	1	2	1	23_2_1	1	0	1	0	0.846617937088	532.0	-13.0	535.0	-13.0	1
3.0.1	2019_Mar_09_1112	s	s	12	2	Capacity	83	2_1	2	1	4	1	23_4_1	2	0	1	0	0.516753196716	-401.0	352.0	-403.0	340.0	1
3.0.1	2019_Mar_09_1112	s	s	12	2	Capacity	84	2_1	2	1	3	1	23_3_1	1	0	1	0	0.834388017654	299.0	240.0	310.0	241.0	1
3.0.1	2019_Mar_09_1112	s	s	12	2	Capacity	85	1_1	1	1	3	1	23_3_1	2	0	1	0	0.475092887878	107.0	-345.0	110.0	-343.0	1
3.0.1	2019_Mar_09_1112	s	s	12	2	Capacity	86	4_1	4	1	1	1	23_1_1	3	0	1	0	0.463470935822	213.0	177.0	203.0	181.0	1
3.0.1	2019_Mar_09_1112	s	s	12	2	Capacity	87	1_1	1	1	2	1	23_2_1	1	0	0	1	0.634477853775	-448.0	364.0	None	None	0
3.0.1	2019_Mar_09_1112	s	s	12	2	Capacity	88	ABS	0	0	2	1	24_2_1	NA	NA	0	1	0.669925928116	None	None	None	None	1
3.0.1	2019_Mar_09_1112	s	s	12	2	Capacity	89	1_1	1	1	4	1	23_4_1	3	0	1	0	0.657975196838	333.0	-80.0	338.0	-80.0	1
3.0.1	2019_Mar_09_1112	s	s	12	2	Capacity	90	3_1	3	1	1	1	23_1_1	2	0	1	0	0.486720085144	-469.0	79.0	-460.0	78.0	1
3.0.1	2019_Mar_09_1112	s	s	12	2	Capacity	91	ABS	0	0	4	1	24_4_1	NA	NA	0	1	0.493276119232	None	None	None	None	1
3.0.1	2019_Mar_09_1112	s	s	12	2	Capacity	92	ABS	0	0	2	1	24_2_1	NA	NA	0	1	0.528539180756	None	None	None	None	1
3.0.1	2019_Mar_09_1112	s	s	12	2	Capacity	93	ABS	0	0	3	1	24_3_1	NA	NA	0	1	0.58194899559	None	None	None	None	1
3.0.1	2019_Mar_09_1112	s	s	12	2	Capacity	94	4_1	4	1	2	1	23_2_1	2	0	1	0	0.587319135666	282.0	-27.0	279.0	-31.0	1
3.0.1	2019_Mar_09_1112	s	s	12	2	Capacity	95	ABS	0	0	3	1	24_3_1	NA	NA	0	1	0.67259311676	None	None	None	None	1
3.0.1	2019_Mar_09_1112	s	s	12	2	Capacity	96	ABS	0	0	2	1	24_2_1	NA	NA	0	1	0.716771125793	None	None	None	None	1
3.0.1	2019_Mar_09_1112	s	s	12	2	SIC	1	ABS	0	0	4	4	24_4_4	NA	NA	0	1	0.893220901489	None	None	None	None	1
3.0.1	2019_Mar_09_1112	s	s	12	2	SIC	2	3_1	3	1	2	2	23_2_2	1	1	1	0	0.5671479702	128.0	199.0	129.0	194.0	1
3.0.1	2019_Mar_09_1112	s	s	12	2	SIC	3	2_3	2	3	3	4	23_3_4	1	-1	1	0	0.893167972565	528.0	97.0	534.0	90.0	1
3.0.1	2019_Mar_09_1112	s	s	12	2	SIC	4	ABS	0	0	1	3	24_1_3	NA	NA	1	0	1.75170302391	None	None	-121.0	-67.0	0
3.0.1	2019_Mar_09_1112	s	s	12	2	SIC	5	3_1	3	1	1	3	23_1_3	2	2	1	0	0.5688560009	-33.0	245.0	-25.0	247.0	1
3.0.1	2019_Mar_09_1112	s	s	12	2	SIC	6	1_2	1	2	1	3	23_1_3	0	1	1	0	2.69269108772	249.0	-131.0	241.0	-127.0	1
3.0.1	2019_Mar_09_1112	s	s	12	2	SIC	7	ABS	0	0	4	1	24_4_1	NA	NA	0	1	0.698121070862	None	None	None	None	1
3.0.1	2019_Mar_09_1112	s	s	12	2	SIC	8	4_1	4	1	2	4	23_2_4	2	3	1	0	0.5402739048	260.0	82.0	262.0	68.0	1
3.0.1	2019_Mar_09_1112	s	s	12	2	SIC	9	2_4	2	4	1	4	23_1_4	-1	0	0	1	0.881386041641	285.0	-400.0	None	None	0
3.0.1	2019_Mar_09_1112	s	s	12	2	SIC	10	ABS	0	0	2	4	24_2_4	NA	NA	0	1	0.775557994843	None	None	None	None	1
3.0.1	2019_Mar_09_1112	s	s	12	2	SIC	11	4_1	4	1	2	1	23_2_1	2	0	1	0	0.385046958923	0.0	-195.0	12.0	-185.0	1
3.0.1	2019_Mar_09_1112	s	s	12	2	SIC	12	1_1	1	1	2	3	23_2_3	1	2	1	0	0.71673989296	-94.0	20.0	-90.0	18.0	1
3.0.1	2019_Mar_09_1112	s	s	12	2	SIC	13	ABS	0	0	3	3	24_3_3	NA	NA	0	1	3.0690009594	None	None	None	None	1
3.0.1	2019_Mar_09_1112	s	s	12	2	SIC	14	1_4	1	4	1	2	23_1_2	0	2	1	0	0.869614124298	-101.0	-80.0	-109.0	-81.0	1
3.0.1	2019_Mar_09_1112	s	s	12	2	SIC	15	ABS	0	0	1	4	24_1_4	NA	NA	0	1	1.38317704201	None	None	None	None	1
3.0.1	2019_Mar_09_1112	s	s	12	2	SIC	16	ABS	0	0	2	2	24_2_2	NA	NA	0	1	4.46160006523	None	None	None	None	1
3.0.1	2019_Mar_09_1112	s	s	12	2	SIC	17	2_1	2	1	4	1	23_4_1	2	0	1	0	0.693229913712	-310.0	-40.0	-303.0	-31.0	1
3.0.1	2019_Mar_09_1112	s	s	12	2	SIC	18	1_4	1	4	4	3	23_4_3	3	1	1	0	0.462881088257	-66.0	399.0	-72.0	398.0	1
3.0.1	2019_Mar_09_1112	s	s	12	2	SIC	19	4_2	4	2	3	1	23_3_1	1	-1	1	0	0.422791004181	161.0	-41.0	171.0	-42.0	1
3.0.1	2019_Mar_09_1112	s	s	12	2	SIC	20	3_1	3	1	4	4	23_4_4	-1	3	1	0	0.422872781754	-11.0	327.0	-11.0	319.0	1
3.0.1	2019_Mar_09_1112	s	s	12	2	SIC	21	ABS	0	0	4	2	24_4_2	NA	NA	0	1	1.25119805336	None	None	None	None	1
3.0.1	2019_Mar_09_1112	s	s	12	2	SIC	22	3_1	3	1	4	3	23_4_3	-1	2	1	0	0.619016885757	427.0	384.0	430.0	379.0	1
3.0.1	2019_Mar_09_1112	s	s	12	2	SIC	23	4_4	4	4	4	1	23_4_1	0	3	1	0	2.81514978409	-55.0	153.0	-57.0	159.0	1
3.0.1	2019_Mar_09_1112	s	s	12	2	SIC	24	ABS	0	0	3	1	24_3_1	NA	NA	0	1	2.05070400238	None	None	None	None	1
3.0.1	2019_Mar_09_1112	s	s	12	2	SIC	25	ABS	0	0	4	2	24_4_2	NA	NA	0	1	1.8369140625	None	None	None	None	1
3.0.1	2019_Mar_09_1112	s	s	12	2	SIC	26	2_4	2	4	4	4	23_4_4	2	0	1	0	0.528946876526	157.0	-395.0	156.0	-405.0	1
3.0.1	2019_Mar_09_1112	s	s	12	2	SIC	27	ABS	0	0	4	2	24_4_2	NA	NA	0	1	0.533583879471	None	None	None	None	1
3.0.1	2019_Mar_09_1112	s	s	12	2	SIC	28	3_3	3	3	3	4	23_3_4	0	-1	0	1	0.62265086174	526.0	-347.0	None	None	0
3.0.1	2019_Mar_09_1112	s	s	12	2	SIC	29	2_1	2	1	1	2	23_1_2	-1	1	0	1	1.18721699715	-1.0	-151.0	None	None	0
3.0.1	2019_Mar_09_1112	s	s	12	2	SIC	30	2_3	2	3	4	4	23_4_4	2	-1	1	0	0.505208015442	-486.0	357.0	-491.0	354.0	1
3.0.1	2019_Mar_09_1112	s	s	12	2	SIC	31	ABS	0	0	3	2	24_3_2	NA	NA	0	1	0.720591068268	None	None	None	None	1
3.0.1	2019_Mar_09_1112	s	s	12	2	SIC	32	1_1	1	1	2	1	23_2_1	1	0	0	1	0.569895029068	-418.0	325.0	None	None	0
3.0.1	2019_Mar_09_1112	s	s	12	2	SIC	33	ABS	0	0	2	2	24_2_2	NA	NA	0	1	0.604357004166	None	None	None	None	1
3.0.1	2019_Mar_09_1112	s	s	12	2	SIC	34	ABS	0	0	1	3	24_1_3	NA	NA	0	1	0.528632164001	None	None	None	None	1
3.0.1	2019_Mar_09_1112	s	s	12	2	SIC	35	1_1	1	1	1	2	23_1_2	0	1	0	1	1.85711598396	519.0	316.0	None	None	0
3.0.1	2019_Mar_09_1112	s	s	12	2	SIC	36	2_3	2	3	2	2	23_2_2	0	1	0	1	2.05048179626	511.0	210.0	None	None	0
3.0.1	2019_Mar_09_1112	s	s	12	2	SIC	37	1_3	1	3	3	1	23_3_1	2	2	1	0	0.716866016388	122.0	-349.0	126.0	-349.0	1
3.0.1	2019_Mar_09_1112	s	s	12	2	SIC	38	ABS	0	0	3	4	24_3_4	NA	NA	0	1	0.738011837006	None	None	None	None	1
3.0.1	2019_Mar_09_1112	s	s	12	2	SIC	39	1_1	1	1	3	3	23_3_3	2	2	1	0	0.458010196686	68.0	-166.0	60.0	-168.0	1
3.0.1	2019_Mar_09_1112	s	s	12	2	SIC	40	ABS	0	0	4	3	24_4_3	NA	NA	0	1	0.528534173965	None	None	None	None	1
3.0.1	2019_Mar_09_1112	s	s	12	2	SIC	41	ABS	0	0	4	1	24_4_1	NA	NA	0	1	0.604418039322	None	None	None	None	1
3.0.1	2019_Mar_09_1112	s	s	12	2	SIC	42	1_1	1	1	3	2	23_3_2	2	1	1	0	0.481985807419	-89.0	67.0	-97.0	66.0	1
3.0.1	2019_Mar_09_1112	s	s	12	2	SIC	43	ABS	0	0	3	1	24_3_1	NA	NA	0	1	0.532732963562	None	None	None	None	1
3.0.1	2019_Mar_09_1112	s	s	12	2	SIC	44	4_1	4	1	3	2	23_3_2	1	1	1	0	0.457926988602	-211.0	-88.0	-210.0	-91.0	1
3.0.1	2019_Mar_09_1112	s	s	12	2	SIC	45	ABS	0	0	2	4	24_2_4	NA	NA	0	1	0.544559955597	None	None	None	None	1
3.0.1	2019_Mar_09_1112	s	s	12	2	SIC	46	ABS	0	0	2	1	24_2_1	NA	NA	0	1	0.516941070557	None	None	None	None	1
3.0.1	2019_Mar_09_1112	s	s	12	2	SIC	47	2_2	2	2	2	4	23_2_4	0	2	1	0	0.481575965881	282.0	-205.0	287.0	-195.0	1
3.0.1	2019_Mar_09_1112	s	s	12	2	SIC	48	ABS	0	0	3	4	24_3_4	NA	NA	0	1	0.528575897217	None	None	None	None	1
3.0.1	2019_Mar_09_1112	s	s	12	2	SIC	49	ABS	0	0	1	2	24_1_2	NA	NA	0	1	0.966678142548	None	None	None	None	1
3.0.1	2019_Mar_09_1112	s	s	12	2	SIC	50	4_3	4	3	3	2	23_3_2	1	1	1	0	0.637718915939	-449.0	-401.0	-451.0	-406.0	1
3.0.1	2019_Mar_09_1112	s	s	12	2	SIC	51	2_3	2	3	1	2	23_1_2	-1	1	0	1	0.677533864975	268.0	307.0	None	None	0
3.0.1	2019_Mar_09_1112	s	s	12	2	SIC	52	ABS	0	0	3	1	24_3_1	NA	NA	0	1	0.602043151855	None	None	None	None	1
3.0.1	2019_Mar_09_1112	s	s	12	2	SIC	53	1_4	1	4	3	4	23_3_4	2	0	1	0	0.520627975464	124.0	252.0	133.0	255.0	1
3.0.1	2019_Mar_09_1112	s	s	12	2	SIC	54	ABS	0	0	1	2	24_1_2	NA	NA	0	1	3.41012001038	None	None	None	None	1
3.0.1	2019_Mar_09_1112	s	s	12	2	SIC	55	ABS	0	0	1	2	24_1_2	NA	NA	0	1	1.73650789261	None	None	None	None	1
3.0.1	2019_Mar_09_1112	s	s	12	2	SIC	56	1_1	1	1	4	3	23_4_3	3	2	1	0	0.568504095078	-319.0	72.0	-307.0	73.0	1
3.0.1	2019_Mar_09_1112	s	s	12	2	SIC	57	3_3	3	3	4	4	23_4_4	-1	-1	1	0	0.469730854034	308.0	47.0	315.0	46.0	1
3.0.1	2019_Mar_09_1112	s	s	12	2	SIC	58	3_4	3	4	4	2	23_4_2	-1	2	1	0	0.511157989502	78.0	-262.0	69.0	-265.0	1
3.0.1	2019_Mar_09_1112	s	s	12	2	SIC	59	2_1	2	1	1	3	23_1_3	-1	2	1	0	1.22287607193	-19.0	166.0	-16.0	165.0	1
3.0.1	2019_Mar_09_1112	s	s	12	2	SIC	60	2_4	2	4	1	3	23_1_3	-1	1	1	0	0.646196842194	-185.0	96.0	-185.0	98.0	1
3.0.1	2019_Mar_09_1112	s	s	12	2	SIC	61	ABS	0	0	4	4	24_4_4	NA	NA	0	1	0.916684865952	None	None	None	None	1
3.0.1	2019_Mar_09_1112	s	s	12	2	SIC	62	ABS	0	0	4	4	24_4_4	NA	NA	0	1	0.61390209198	None	None	None	None	1
3.0.1	2019_Mar_09_1112	s	s	12	2	SIC	63	2_1	2	1	4	3	23_4_3	2	2	1	0	0.613771915436	-495.0	370.0	-487.0	368.0	1
3.0.1	2019_Mar_09_1112	s	s	12	2	SIC	64	1_4	1	4	4	4	23_4_4	3	0	1	0	0.458008050919	36.0	-334.0	41.0	-324.0	1
3.0.1	2019_Mar_09_1112	s	s	12	2	SIC	65	1_1	1	1	4	2	23_4_2	3	1	1	0	0.410946846008	410.0	2.0	411.0	10.0	1
3.0.1	2019_Mar_09_1112	s	s	12	2	SIC	66	ABS	0	0	1	4	24_1_4	NA	NA	0	1	0.693180084229	None	None	None	None	1
3.0.1	2019_Mar_09_1112	s	s	12	2	SIC	67	ABS	0	0	3	1	24_3_1	NA	NA	0	1	0.709182977676	None	None	None	None	1
3.0.1	2019_Mar_09_1112	s	s	12	2	SIC	68	4_3	4	3	3	4	23_3_4	1	-1	1	0	0.457978010178	88.0	203.0	79.0	199.0	1
3.0.1	2019_Mar_09_1112	s	s	12	2	SIC	69	ABS	0	0	3	1	24_3_1	NA	NA	0	1	0.563966989517	None	None	None	None	1
3.0.1	2019_Mar_09_1112	s	s	12	2	SIC	70	ABS	0	0	1	1	24_1_1	NA	NA	0	1	0.581022977829	None	None	None	None	1
3.0.1	2019_Mar_09_1112	s	s	12	2	SIC	71	ABS	0	0	4	3	24_4_3	NA	NA	0	1	0.768647909164	None	None	None	None	1
3.0.1	2019_Mar_09_1112	s	s	12	2	SIC	72	1_2	1	2	2	1	23_2_1	1	-1	0	1	0.540395021439	480.0	173.0	None	None	0
3.0.1	2019_Mar_09_1112	s	s	12	2	SIC	73	3_1	3	1	1	1	23_1_1	2	0	1	0	0.799075841904	326.0	326.0	336.0	328.0	1
3.0.1	2019_Mar_09_1112	s	s	12	2	SIC	74	4_3	4	3	3	1	23_3_1	1	2	1	0	0.410912036896	444.0	313.0	454.0	323.0	1
3.0.1	2019_Mar_09_1112	s	s	12	2	SIC	75	4_3	4	3	1	2	23_1_2	3	1	1	0	0.384074926376	-217.0	57.0	-215.0	63.0	1
3.0.1	2019_Mar_09_1112	s	s	12	2	SIC	76	ABS	0	0	4	1	24_4_1	NA	NA	0	1	0.569520950317	None	None	None	None	1
3.0.1	2019_Mar_09_1112	s	s	12	2	SIC	77	3_3	3	3	2	1	23_2_1	1	2	1	0	0.521749019623	-201.0	-84.0	-201.0	-84.0	1
3.0.1	2019_Mar_09_1112	s	s	12	2	SIC	78	2_1	2	1	2	2	23_2_2	0	1	0	1	0.709921121597	-494.0	-383.0	None	None	0
3.0.1	2019_Mar_09_1112	s	s	12	2	SIC	79	1_1	1	1	3	1	23_3_1	2	0	1	0	0.497317075729	-323.0	222.0	-327.0	218.0	1
3.0.1	2019_Mar_09_1112	s	s	12	2	SIC	80	ABS	0	0	4	2	24_4_2	NA	NA	0	1	2.48093605042	None	None	None	None	1
3.0.1	2019_Mar_09_1112	s	s	12	2	SIC	81	3_3	3	3	3	1	23_3_1	0	2	0	1	1.00403594971	381.0	11.0	None	None	0
3.0.1	2019_Mar_09_1112	s	s	12	2	SIC	82	ABS	0	0	4	3	24_4_3	NA	NA	0	1	1.37832212448	None	None	None	None	1
3.0.1	2019_Mar_09_1112	s	s	12	2	SIC	83	4_1	4	1	3	3	23_3_3	1	2	1	0	0.469738006592	-428.0	5.0	-422.0	6.0	1
3.0.1	2019_Mar_09_1112	s	s	12	2	SIC	84	ABS	0	0	4	1	24_4_1	NA	NA	0	1	1.51674985886	None	None	None	None	1
3.0.1	2019_Mar_09_1112	s	s	12	2	SIC	85	4_4	4	4	2	1	23_2_1	2	3	1	0	0.561327934265	-534.0	342.0	-532.0	345.0	1
3.0.1	2019_Mar_09_1112	s	s	12	2	SIC	86	ABS	0	0	3	3	24_3_3	NA	NA	0	1	1.77529883385	None	None	None	None	1
3.0.1	2019_Mar_09_1112	s	s	12	2	SIC	87	1_2	1	2	4	4	23_4_4	3	2	1	0	0.399265050888	-112.0	394.0	-122.0	396.0	1
3.0.1	2019_Mar_09_1112	s	s	12	2	SIC	88	3_1	3	1	1	2	23_1_2	2	1	1	0	0.516775846481	241.0	33.0	235.0	34.0	1
3.0.1	2019_Mar_09_1112	s	s	12	2	SIC	89	1_4	1	4	4	2	23_4_2	3	2	1	0	0.381017923355	243.0	209.0	236.0	207.0	1
3.0.1	2019_Mar_09_1112	s	s	12	2	SIC	90	ABS	0	0	1	2	24_1_2	NA	NA	0	1	1.38720703125	None	None	None	None	1
3.0.1	2019_Mar_09_1112	s	s	12	2	SIC	91	2_1	2	1	2	3	23_2_3	0	2	1	0	2.44962787628	198.0	-324.0	201.0	-323.0	1
3.0.1	2019_Mar_09_1112	s	s	12	2	SIC	92	ABS	0	0	3	4	24_3_4	NA	NA	0	1	0.763790130615	None	None	None	None	1
3.0.1	2019_Mar_09_1112	s	s	12	2	SIC	93	3_1	3	1	3	2	23_3_2	0	1	1	0	1.59886908531	310.0	-372.0	306.0	-377.0	1
3.0.1	2019_Mar_09_1112	s	s	12	2	SIC	94	1_3	1	3	4	3	23_4_3	3	0	1	0	0.458029985428	-435.0	333.0	-437.0	337.0	1
3.0.1	2019_Mar_09_1112	s	s	12	2	SIC	95	ABS	0	0	1	4	24_1_4	NA	NA	0	1	0.952032089233	None	None	None	None	1
3.0.1	2019_Mar_09_1112	s	s	12	2	SIC	96	ABS	0	0	2	1	24_2_1	NA	NA	0	1	1.22249412537	None	None	None	None	1
3.0.1	2019_Mar_09_1112	s	s	12	2	SIC	97	ABS	0	0	1	4	24_1_4	NA	NA	0	1	0.769573926926	None	None	None	None	1
3.0.1	2019_Mar_09_1112	s	s	12	2	SIC	98	4_4	4	4	1	4	23_1_4	3	0	1	0	0.493813037872	269.0	-370.0	262.0	-377.0	1
3.0.1	2019_Mar_09_1112	s	s	12	2	SIC	99	4_3	4	3	2	2	23_2_2	2	1	1	0	0.379582166672	-112.0	396.0	-119.0	391.0	1
3.0.1	2019_Mar_09_1112	s	s	12	2	SIC	100	ABS	0	0	3	3	24_3_3	NA	NA	0	1	1.52071213722	None	None	None	None	1
3.0.1	2019_Mar_09_1112	s	s	12	2	SIC	101	ABS	0	0	4	2	24_4_2	NA	NA	0	1	2.61316895485	None	None	None	None	1
3.0.1	2019_Mar_09_1112	s	s	12	2	SIC	102	2_2	2	2	3	2	23_3_2	1	0	1	0	0.560812950134	84.0	38.0	89.0	30.0	1
3.0.1	2019_Mar_09_1112	s	s	12	2	SIC	103	1_4	1	4	1	1	23_1_1	0	3	1	0	1.39890313148	-388.0	46.0	-382.0	46.0	1
3.0.1	2019_Mar_09_1112	s	s	12	2	SIC	104	2_2	2	2	4	4	23_4_4	2	2	1	0	0.43098783493	309.0	65.0	315.0	66.0	1
3.0.1	2019_Mar_09_1112	s	s	12	2	SIC	105	4_1	4	1	1	4	23_1_4	3	3	1	0	0.352125167847	-346.0	25.0	-345.0	24.0	1
3.0.1	2019_Mar_09_1112	s	s	12	2	SIC	106	4_2	4	2	1	2	23_1_2	3	0	1	0	0.399151086807	317.0	-128.0	312.0	-130.0	1
3.0.1	2019_Mar_09_1112	s	s	12	2	SIC	107	2_3	2	3	2	4	23_2_4	0	-1	1	0	1.36368298531	-106.0	206.0	-101.0	205.0	1
3.0.1	2019_Mar_09_1112	s	s	12	2	SIC	108	2_2	2	2	4	1	23_4_1	2	-1	1	0	0.500905990601	-299.0	-408.0	-300.0	-410.0	1
3.0.1	2019_Mar_09_1112	s	s	12	2	SIC	109	ABS	0	0	4	2	24_4_2	NA	NA	0	1	3.54608511925	None	None	None	None	1
3.0.1	2019_Mar_09_1112	s	s	12	2	SIC	110	3_2	3	2	3	1	23_3_1	0	-1	0	1	1.00436711311	232.0	-327.0	None	None	0
3.0.1	2019_Mar_09_1112	s	s	12	2	SIC	111	ABS	0	0	4	4	24_4_4	NA	NA	0	1	0.64625787735	None	None	None	None	1
3.0.1	2019_Mar_09_1112	s	s	12	2	SIC	112	4_3	4	3	4	4	23_4_4	0	-1	1	0	1.36364817619	440.0	-55.0	452.0	-50.0	1
3.0.1	2019_Mar_09_1112	s	s	12	2	SIC	113	ABS	0	0	1	4	24_1_4	NA	NA	0	1	2.10452413559	None	None	None	None	1
3.0.1	2019_Mar_09_1112	s	s	12	2	SIC	114	ABS	0	0	4	1	24_4_1	NA	NA	0	1	3.75102710724	None	None	None	None	1
3.0.1	2019_Mar_09_1112	s	s	12	2	SIC	115	ABS	0	0	2	4	24_2_4	NA	NA	0	1	0.619204044342	None	None	None	None	1
3.0.1	2019_Mar_09_1112	s	s	12	2	SIC	116	1_4	1	4	2	3	23_2_3	1	1	1	0	0.646157979965	246.0	46.0	243.0	46.0	1
3.0.1	2019_Mar_09_1112	s	s	12	2	SIC	117	3_2	3	2	2	3	23_2_3	1	1	1	0	1.51649403572	-506.0	123.0	-521.0	130.0	1
3.0.1	2019_Mar_09_1112	s	s	12	2	SIC	118	4_3	4	3	3	3	23_3_3	1	0	1	0	0.410933971405	162.0	30.0	165.0	32.0	1
3.0.1	2019_Mar_09_1112	s	s	12	2	SIC	119	ABS	0	0	4	1	24_4_1	NA	NA	0	1	0.6273188591	None	None	None	None	1
3.0.1	2019_Mar_09_1112	s	s	12	2	SIC	120	ABS	0	0	4	3	24_4_3	NA	NA	0	1	1.21069216728	None	None	None	None	1
3.0.1	2019_Mar_09_1112	s	s	12	2	SIC	121	ABS	0	0	4	4	24_4_4	NA	NA	0	1	3.33949398994	None	None	None	None	1
3.0.1	2019_Mar_09_1112	s	s	12	2	SIC	122	2_3	2	3	4	1	23_4_1	2	2	1	0	0.521719932556	88.0	85.0	87.0	85.0	1
3.0.1	2019_Mar_09_1112	s	s	12	2	SIC	123	2_1	2	1	4	2	23_4_2	2	1	1	0	0.799077987671	-408.0	259.0	-411.0	262.0	1
3.0.1	2019_Mar_09_1112	s	s	12	2	SIC	124	3_3	3	3	1	2	23_1_2	2	1	1	0	0.639332056046	64.0	299.0	66.0	292.0	1
3.0.1	2019_Mar_09_1112	s	s	12	2	SIC	125	ABS	0	0	2	2	24_2_2	NA	NA	0	1	3.51586294174	None	None	None	None	1
3.0.1	2019_Mar_09_1112	s	s	12	2	SIC	126	3_3	3	3	4	2	23_4_2	-1	1	1	0	0.563919067383	425.0	302.0	427.0	299.0	1
3.0.1	2019_Mar_09_1112	s	s	12	2	SIC	127	4_1	4	1	4	4	23_4_4	0	3	1	0	0.516752004623	-285.0	-136.0	-287.0	-131.0	1
3.0.1	2019_Mar_09_1112	s	s	12	2	SIC	128	4_3	4	3	2	4	23_2_4	2	-1	1	0	0.622649908066	-58.0	112.0	-66.0	110.0	1
3.0.1	2019_Mar_09_1112	s	s	12	2	SIC	129	3_2	3	2	3	3	23_3_3	0	1	0	1	2.04563903809	-39.0	-217.0	None	None	0
3.0.1	2019_Mar_09_1112	s	s	12	2	SIC	130	4_2	4	2	2	2	23_2_2	2	0	1	0	0.458011865616	436.0	208.0	425.0	218.0	1
3.0.1	2019_Mar_09_1112	s	s	12	2	SIC	131	4_1	4	1	3	1	23_3_1	1	0	1	0	0.463186979294	463.0	-103.0	454.0	-104.0	1
3.0.1	2019_Mar_09_1112	s	s	12	2	SIC	132	1_1	1	1	4	4	23_4_4	3	3	1	0	0.411401033401	125.0	154.0	130.0	164.0	1
3.0.1	2019_Mar_09_1112	s	s	12	2	SIC	133	ABS	0	0	2	3	24_2_3	NA	NA	0	1	2.84842586517	None	None	None	None	1
3.0.1	2019_Mar_09_1112	s	s	12	2	SIC	134	ABS	0	0	2	2	24_2_2	NA	NA	0	1	3.88593888283	None	None	None	None	1
3.0.1	2019_Mar_09_1112	s	s	12	2	SIC	135	ABS	0	0	4	3	24_4_3	NA	NA	0	1	4.51556396484	None	None	None	None	1
3.0.1	2019_Mar_09_1112	s	s	12	2	SIC	136	2_1	2	1	3	2	23_3_2	1	1	1	0	0.660833120346	-69.0	251.0	-73.0	254.0	1
3.0.1	2019_Mar_09_1112	s	s	12	2	SIC	137	4_1	4	1	1	1	23_1_1	3	0	1	0	0.45790719986	-403.0	-359.0	-404.0	-360.0	1
3.0.1	2019_Mar_09_1112	s	s	12	2	SIC	138	ABS	0	0	4	1	24_4_1	NA	NA	0	1	1.11653614044	None	None	None	None	1
3.0.1	2019_Mar_09_1112	s	s	12	2	SIC	139	ABS	0	0	4	2	24_4_2	NA	NA	0	1	0.58740901947	None	None	None	None	1
3.0.1	2019_Mar_09_1112	s	s	12	2	SIC	140	2_2	2	2	4	2	23_4_2	2	0	1	0	0.487220048904	-412.0	235.0	-412.0	239.0	1
3.0.1	2019_Mar_09_1112	s	s	12	2	SIC	141	2_3	2	3	1	4	23_1_4	-1	-1	1	0	0.616351127625	-66.0	-246.0	-70.0	-246.0	1
3.0.1	2019_Mar_09_1112	s	s	12	2	SIC	142	ABS	0	0	1	2	24_1_2	NA	NA	0	1	2.14822411537	None	None	None	None	1
3.0.1	2019_Mar_09_1112	s	s	12	2	SIC	143	ABS	0	0	2	2	24_2_2	NA	NA	0	1	0.810821056366	None	None	None	None	1
3.0.1	2019_Mar_09_1112	s	s	12	2	SIC	144	ABS	0	0	1	1	24_1_1	NA	NA	0	1	0.587325811386	None	None	None	None	1
3.0.1	2019_Mar_09_1112	s	s	12	2	SIC	145	1_3	1	3	4	4	23_4_4	3	-1	1	0	0.62885594368	488.0	276.0	496.0	280.0	1
3.0.1	2019_Mar_09_1112	s	s	12	2	SIC	146	ABS	0	0	3	1	24_3_1	NA	NA	0	1	0.893220901489	None	None	None	None	1
3.0.1	2019_Mar_09_1112	s	s	12	2	SIC	147	3_3	3	3	1	1	23_1_1	2	2	1	0	0.502530097961	280.0	17.0	288.0	17.0	1
3.0.1	2019_Mar_09_1112	s	s	12	2	SIC	148	3_1	3	1	3	3	23_3_3	0	2	0	1	1.39888501167	-86.0	296.0	None	None	0
3.0.1	2019_Mar_09_1112	s	s	12	2	SIC	149	ABS	0	0	2	4	24_2_4	NA	NA	0	1	1.0754339695	None	None	None	None	1
3.0.1	2019_Mar_09_1112	s	s	12	2	SIC	150	ABS	0	0	3	1	24_3_1	NA	NA	0	1	2.08826804161	None	None	None	None	1
3.0.1	2019_Mar_09_1112	s	s	12	2	SIC	151	3_3	3	3	1	4	23_1_4	2	-1	1	0	0.628697872162	-260.0	-358.0	-255.0	-361.0	1
3.0.1	2019_Mar_09_1112	s	s	12	2	SIC	152	2_2	2	2	2	1	23_2_1	0	-1	0	1	3.52763795853	170.0	-113.0	None	None	0
3.0.1	2019_Mar_09_1112	s	s	12	2	SIC	153	2_2	2	2	1	1	23_1_1	-1	-1	0	1	0.521428108215	177.0	-407.0	None	None	0
3.0.1	2019_Mar_09_1112	s	s	12	2	SIC	154	2_3	2	3	1	1	23_1_1	-1	2	0	1	0.869680166245	-470.0	-282.0	None	None	0
3.0.1	2019_Mar_09_1112	s	s	12	2	SIC	155	4_1	4	1	4	2	23_4_2	0	1	0	1	2.63375520706	327.0	257.0	None	None	0
3.0.1	2019_Mar_09_1112	s	s	12	2	SIC	156	1_1	1	1	3	4	23_3_4	2	3	1	0	0.457980155945	195.0	-136.0	197.0	-135.0	1
3.0.1	2019_Mar_09_1112	s	s	12	2	SIC	157	ABS	0	0	1	3	24_1_3	NA	NA	0	1	1.01586318016	None	None	None	None	1
3.0.1	2019_Mar_09_1112	s	s	12	2	SIC	158	ABS	0	0	2	2	24_2_2	NA	NA	0	1	2.78012180328	None	None	None	None	1
3.0.1	2019_Mar_09_1112	s	s	12	2	SIC	159	ABS	0	0	3	2	24_3_2	NA	NA	0	1	0.496243953705	None	None	None	None	1
3.0.1	2019_Mar_09_1112	s	s	12	2	SIC	160	3_2	3	2	4	2	23_4_2	-1	0	1	0	0.555042982101	-187.0	63.0	-186.0	57.0	1
3.0.1	2019_Mar_09_1112	s	s	12	2	SIC	161	ABS	0	0	3	1	24_3_1	NA	NA	0	1	0.516803979874	None	None	None	None	1
3.0.1	2019_Mar_09_1112	s	s	12	2	SIC	162	ABS	0	0	2	3	24_2_3	NA	NA	0	1	1.32613801956	None	None	None	None	1
3.0.1	2019_Mar_09_1112	s	s	12	2	SIC	163	ABS	0	0	1	3	24_1_3	NA	NA	0	1	1.24606704712	None	None	None	None	1
3.0.1	2019_Mar_09_1112	s	s	12	2	SIC	164	ABS	0	0	1	3	24_1_3	NA	NA	0	1	0.849023103714	None	None	None	None	1
3.0.1	2019_Mar_09_1112	s	s	12	2	SIC	165	ABS	0	0	2	4	24_2_4	NA	NA	0	1	0.781404018402	None	None	None	None	1
3.0.1	2019_Mar_09_1112	s	s	12	2	SIC	166	2_4	2	4	2	3	23_2_3	0	1	1	0	1.06962203979	0.0	-109.0	-4.0	-110.0	1
3.0.1	2019_Mar_09_1112	s	s	12	2	SIC	167	3_1	3	1	1	4	23_1_4	2	3	1	0	0.587347984314	308.0	-124.0	307.0	-125.0	1
3.0.1	2019_Mar_09_1112	s	s	12	2	SIC	168	4_3	4	3	4	1	23_4_1	0	2	1	0	0.940168142319	263.0	180.0	271.0	175.0	1
3.0.1	2019_Mar_09_1112	s	s	12	2	SIC	169	2_1	2	1	1	1	23_1_1	-1	0	0	1	0.856340885162	-50.0	25.0	None	None	0
3.0.1	2019_Mar_09_1112	s	s	12	2	SIC	170	ABS	0	0	1	4	24_1_4	NA	NA	0	1	1.85518312454	None	None	None	None	1
3.0.1	2019_Mar_09_1112	s	s	12	2	SIC	171	ABS	0	0	2	3	24_2_3	NA	NA	0	1	2.69757604599	None	None	None	None	1
3.0.1	2019_Mar_09_1112	s	s	12	2	SIC	172	ABS	0	0	2	1	24_2_1	NA	NA	0	1	0.6980509758	None	None	None	None	1
3.0.1	2019_Mar_09_1112	s	s	12	2	SIC	173	ABS	0	0	4	3	24_4_3	NA	NA	0	1	1.69296097755	None	None	None	None	1
3.0.1	2019_Mar_09_1112	s	s	12	2	SIC	174	ABS	0	0	4	2	24_4_2	NA	NA	0	1	2.36334395409	None	None	None	None	1
3.0.1	2019_Mar_09_1112	s	s	12	2	SIC	175	4_2	4	2	1	3	23_1_3	3	1	1	0	2.3946518898	497.0	-103.0	500.0	-106.0	1
3.0.1	2019_Mar_09_1112	s	s	12	2	SIC	176	3_2	3	2	4	4	23_4_4	-1	2	1	0	0.522439002991	-153.0	99.0	-146.0	107.0	1
3.0.1	2019_Mar_09_1112	s	s	12	2	SIC	177	ABS	0	0	2	4	24_2_4	NA	NA	0	1	0.814840078354	None	None	None	None	1
3.0.1	2019_Mar_09_1112	s	s	12	2	SIC	178	2_1	2	1	3	4	23_3_4	1	3	1	0	0.399208068848	-193.0	76.0	-192.0	75.0	1
3.0.1	2019_Mar_09_1112	s	s	12	2	SIC	179	ABS	0	0	2	1	24_2_1	NA	NA	0	1	0.599273920059	None	None	None	None	1
3.0.1	2019_Mar_09_1112	s	s	12	2	SIC	180	3_1	3	1	2	4	23_2_4	1	3	1	0	0.457998991013	262.0	-15.0	269.0	-21.0	1
3.0.1	2019_Mar_09_1112	s	s	12	2	SIC	181	ABS	0	0	2	1	24_2_1	NA	NA	0	1	0.528648138046	None	None	None	None	1
3.0.1	2019_Mar_09_1112	s	s	12	2	SIC	182	ABS	0	0	4	4	24_4_4	NA	NA	0	1	0.593346834183	None	None	None	None	1
3.0.1	2019_Mar_09_1112	s	s	12	2	SIC	183	ABS	0	0	4	3	24_4_3	NA	NA	0	1	1.0842359066	None	None	None	None	1
3.0.1	2019_Mar_09_1112	s	s	12	2	SIC	184	ABS	0	0	2	1	24_2_1	NA	NA	0	1	0.999039173126	None	None	None	None	1
3.0.1	2019_Mar_09_1112	s	s	12	2	SIC	185	ABS	0	0	3	4	24_3_4	NA	NA	0	1	0.763768196106	None	None	None	None	1
3.0.1	2019_Mar_09_1112	s	s	12	2	SIC	186	1_3	1	3	4	1	23_4_1	3	2	1	0	0.756997823715	-360.0	374.0	-359.0	381.0	1
3.0.1	2019_Mar_09_1112	s	s	12	2	SIC	187	3_4	3	4	2	4	23_2_4	1	0	0	1	0.610867023468	333.0	-272.0	None	None	0
3.0.1	2019_Mar_09_1112	s	s	12	2	SIC	188	4_1	4	1	3	4	23_3_4	1	3	1	0	0.469722032547	-463.0	287.0	-458.0	281.0	1
3.0.1	2019_Mar_09_1112	s	s	12	2	SIC	189	4_4	4	4	2	4	23_2_4	2	0	1	0	0.378527164459	187.0	125.0	188.0	118.0	1
3.0.1	2019_Mar_09_1112	s	s	12	2	SIC	190	2_3	2	3	3	1	23_3_1	1	2	0	1	1.1401951313	-463.0	-63.0	None	None	0
3.0.1	2019_Mar_09_1112	s	s	12	2	SIC	191	1_3	1	3	1	1	23_1_1	0	2	1	0	0.757272005081	-432.0	-31.0	-427.0	-33.0	1
3.0.1	2019_Mar_09_1112	s	s	12	2	SIC	192	ABS	0	0	3	2	24_3_2	NA	NA	1	0	0.893647909164	None	None	-515.0	-235.0	0
3.0.1	2019_Mar_09_1112	s	s	12	2	SIC	193	1_2	1	2	1	4	23_1_4	0	2	1	0	0.731378078461	265.0	-364.0	254.0	-359.0	1
3.0.1	2019_Mar_09_1112	s	s	12	2	SIC	194	4_2	4	2	3	4	23_3_4	1	2	1	0	0.457978010178	-311.0	-400.0	-317.0	-402.0	1
3.0.1	2019_Mar_09_1112	s	s	12	2	SIC	195	4_1	4	1	4	3	23_4_3	0	2	1	0	0.519768953323	519.0	-171.0	-38.0	13.0	0
3.0.1	2019_Mar_09_1112	s	s	12	2	SIC	196	3_3	3	3	2	2	23_2_2	1	1	1	0	0.795695781708	-230.0	87.0	-228.0	75.0	1
3.0.1	2019_Mar_09_1112	s	s	12	2	SIC	197	1_1	1	1	1	3	23_1_3	0	2	1	0	3.86871600151	46.0	-90.0	43.0	-90.0	1
3.0.1	2019_Mar_09_1112	s	s	12	2	SIC	198	1_4	1	4	3	2	23_3_2	2	2	1	0	1.18715810776	361.0	-387.0	357.0	-385.0	1
3.0.1	2019_Mar_09_1112	s	s	12	2	SIC	199	ABS	0	0	1	1	24_1_1	NA	NA	0	1	1.28131604195	None	None	None	None	1
3.0.1	2019_Mar_09_1112	s	s	12	2	SIC	200	ABS	0	0	3	2	24_3_2	NA	NA	0	1	2.59857201576	None	None	None	None	1
3.0.1	2019_Mar_09_1112	s	s	12	2	SIC	201	3_4	3	4	3	1	23_3_1	0	3	1	0	0.599149942398	-468.0	-94.0	-463.0	-92.0	1
3.0.1	2019_Mar_09_1112	s	s	12	2	SIC	202	ABS	0	0	4	3	24_4_3	NA	NA	0	1	1.65123200417	None	None	None	None	1
3.0.1	2019_Mar_09_1112	s	s	12	2	SIC	203	ABS	0	0	2	3	24_2_3	NA	NA	0	1	2.21334195137	None	None	None	None	1
3.0.1	2019_Mar_09_1112	s	s	12	2	SIC	204	4_2	4	2	2	1	23_2_1	2	-1	1	0	0.457977056503	-233.0	374.0	-225.0	377.0	1
3.0.1	2019_Mar_09_1112	s	s	12	2	SIC	205	ABS	0	0	4	1	24_4_1	NA	NA	0	1	2.51615381241	None	None	None	None	1
3.0.1	2019_Mar_09_1112	s	s	12	2	SIC	206	3_2	3	2	1	3	23_1_3	2	1	1	0	0.634361982346	231.0	270.0	226.0	271.0	1
3.0.1	2019_Mar_09_1112	s	s	12	2	SIC	207	ABS	0	0	3	4	24_3_4	NA	NA	0	1	0.613780975342	None	None	None	None	1
3.0.1	2019_Mar_09_1112	s	s	12	2	SIC	208	1_2	1	2	1	1	23_1_1	0	-1	0	1	0.587373018265	10.0	362.0	None	None	0
3.0.1	2019_Mar_09_1112	s	s	12	2	SIC	209	2_2	2	2	3	3	23_3_3	1	1	1	0	0.945371866226	283.0	-269.0	279.0	-271.0	1
3.0.1	2019_Mar_09_1112	s	s	12	2	SIC	210	1_2	1	2	2	4	23_2_4	1	2	1	0	0.763781070709	-313.0	-399.0	-305.0	-401.0	1
3.0.1	2019_Mar_09_1112	s	s	12	2	SIC	211	ABS	0	0	4	2	24_4_2	NA	NA	0	1	0.619276046753	None	None	None	None	1
3.0.1	2019_Mar_09_1112	s	s	12	2	SIC	212	ABS	0	0	3	4	24_3_4	NA	NA	0	1	0.496219873428	None	None	None	None	1
3.0.1	2019_Mar_09_1112	s	s	12	2	SIC	213	ABS	0	0	1	2	24_1_2	NA	NA	0	1	0.532418012619	None	None	None	None	1
3.0.1	2019_Mar_09_1112	s	s	12	2	SIC	214	2_2	2	2	3	1	23_3_1	1	-1	1	0	0.554970979691	286.0	-247.0	284.0	-237.0	1
3.0.1	2019_Mar_09_1112	s	s	12	2	SIC	215	3_3	3	3	2	3	23_2_3	1	0	1	0	1.05781388283	21.0	-258.0	33.0	-255.0	1
3.0.1	2019_Mar_09_1112	s	s	12	2	SIC	216	ABS	0	0	2	3	24_2_3	NA	NA	0	1	2.8982770443	None	None	None	None	1
3.0.1	2019_Mar_09_1112	s	s	12	2	SIC	217	ABS	0	0	3	2	24_3_2	NA	NA	0	1	0.613774061203	None	None	None	None	1
3.0.1	2019_Mar_09_1112	s	s	12	2	SIC	218	ABS	0	0	1	1	24_1_1	NA	NA	0	1	1.10971212387	None	None	None	None	1
3.0.1	2019_Mar_09_1112	s	s	12	2	SIC	219	ABS	0	0	1	4	24_1_4	NA	NA	0	1	0.731391191483	None	None	None	None	1
3.0.1	2019_Mar_09_1112	s	s	12	2	SIC	220	ABS	0	0	4	1	24_4_1	NA	NA	0	1	1.71664500237	None	None	None	None	1
3.0.1	2019_Mar_09_1112	s	s	12	2	SIC	221	ABS	0	0	3	3	24_3_3	NA	NA	0	1	0.693253993988	None	None	None	None	1
3.0.1	2019_Mar_09_1112	s	s	12	2	SIC	222	1_2	1	2	2	2	23_2_2	1	0	0	1	1.61343502998	396.0	-147.0	None	None	0
3.0.1	2019_Mar_09_1112	s	s	12	2	SIC	223	ABS	0	0	2	4	24_2_4	NA	NA	0	1	0.672613143921	None	None	None	None	1
3.0.1	2019_Mar_09_1112	s	s	12	2	SIC	224	ABS	0	0	4	3	24_4_3	NA	NA	0	1	1.20186805725	None	None	None	None	1
3.0.1	2019_Mar_09_1112	s	s	12	2	SIC	225	2_3	2	3	2	1	23_2_1	0	2	0	1	1.43023109436	-432.0	-28.0	None	None	0
3.0.1	2019_Mar_09_1112	s	s	12	2	SIC	226	3_3	3	3	4	1	23_4_1	-1	2	1	0	0.516792058945	-134.0	215.0	-131.0	220.0	1
3.0.1	2019_Mar_09_1112	s	s	12	2	SIC	227	ABS	0	0	3	2	24_3_2	NA	NA	0	1	1.48122286797	None	None	None	None	1
3.0.1	2019_Mar_09_1112	s	s	12	2	SIC	228	2_3	2	3	4	3	23_4_3	2	0	1	0	0.437349796295	-309.0	122.0	-308.0	121.0	1
3.0.1	2019_Mar_09_1112	s	s	12	2	SIC	229	4_4	4	4	4	2	23_4_2	0	2	1	0	0.587357997894	221.0	132.0	225.0	131.0	1
3.0.1	2019_Mar_09_1112	s	s	12	2	SIC	230	2_4	2	4	4	3	23_4_3	2	1	1	0	0.481575965881	288.0	-62.0	281.0	-59.0	1
3.0.1	2019_Mar_09_1112	s	s	12	2	SIC	231	ABS	0	0	1	2	24_1_2	NA	NA	0	1	0.731439113617	None	None	None	None	1
3.0.1	2019_Mar_09_1112	s	s	12	2	SIC	232	ABS	0	0	2	2	24_2_2	NA	NA	0	1	1.68013596535	None	None	None	None	1
3.0.1	2019_Mar_09_1112	s	s	12	2	SIC	233	ABS	0	0	4	2	24_4_2	NA	NA	0	1	1.02262401581	None	None	None	None	1
3.0.1	2019_Mar_09_1112	s	s	12	2	SIC	234	ABS	0	0	1	1	24_1_1	NA	NA	0	1	0.587396860123	None	None	None	None	1
3.0.1	2019_Mar_09_1112	s	s	12	2	SIC	235	ABS	0	0	2	3	24_2_3	NA	NA	0	1	1.14301419258	None	None	None	None	1
3.0.1	2019_Mar_09_1112	s	s	12	2	SIC	236	3_3	3	3	3	2	23_3_2	0	1	0	1	1.49585795403	-93.0	-49.0	None	None	0
3.0.1	2019_Mar_09_1112	s	s	12	2	SIC	237	ABS	0	0	3	4	24_3_4	NA	NA	0	1	0.66437292099	None	None	None	None	1
3.0.1	2019_Mar_09_1112	s	s	12	2	SIC	238	1_3	1	3	2	3	23_2_3	1	0	0	1	0.599181175232	-65.0	-294.0	None	None	0
3.0.1	2019_Mar_09_1112	s	s	12	2	SIC	239	ABS	0	0	4	4	24_4_4	NA	NA	0	1	0.637297868729	None	None	None	None	1
3.0.1	2019_Mar_09_1112	s	s	12	2	SIC	240	ABS	0	0	1	1	24_1_1	NA	NA	0	1	0.756688117981	None	None	None	None	1
3.0.1	2019_Mar_09_1112	s	s	12	2	SIC	241	1_1	1	1	1	4	23_1_4	0	3	1	0	0.975527048111	-334.0	-316.0	-346.0	-314.0	1
3.0.1	2019_Mar_09_1112	s	s	12	2	SIC	242	ABS	0	0	3	3	24_3_3	NA	NA	0	1	2.24574685097	None	None	None	None	1
3.0.1	2019_Mar_09_1112	s	s	12	2	SIC	243	3_1	3	1	2	3	23_2_3	1	2	1	0	0.528562068939	-379.0	215.0	-370.0	214.0	1
3.0.1	2019_Mar_09_1112	s	s	12	2	SIC	244	ABS	0	0	3	3	24_3_3	NA	NA	0	1	1.57536411285	None	None	None	None	1
3.0.1	2019_Mar_09_1112	s	s	12	2	SIC	245	2_4	2	4	3	1	23_3_1	1	3	1	0	0.487850904465	43.0	216.0	28.0	226.0	1
3.0.1	2019_Mar_09_1112	s	s	12	2	SIC	246	3_4	3	4	2	3	23_2_3	1	1	1	0	0.516750097275	134.0	-269.0	142.0	-270.0	1
3.0.1	2019_Mar_09_1112	s	s	12	2	SIC	247	ABS	0	0	3	3	24_3_3	NA	NA	0	1	1.54009890556	None	None	None	None	1
3.0.1	2019_Mar_09_1112	s	s	12	2	SIC	248	ABS	0	0	2	1	24_2_1	NA	NA	0	1	0.775954961777	None	None	None	None	1
3.0.1	2019_Mar_09_1112	s	s	12	2	SIC	249	ABS	0	0	4	4	24_4_4	NA	NA	0	1	0.975480079651	None	None	None	None	1
3.0.1	2019_Mar_09_1112	s	s	12	2	SIC	250	ABS	0	0	2	1	24_2_1	NA	NA	0	1	0.733433961868	None	None	None	None	1
3.0.1	2019_Mar_09_1112	s	s	12	2	SIC	251	ABS	0	0	2	4	24_2_4	NA	NA	0	1	0.992099046707	None	None	None	None	1
3.0.1	2019_Mar_09_1112	s	s	12	2	SIC	252	ABS	0	0	3	2	24_3_2	NA	NA	0	1	2.11633300781	None	None	None	None	1
3.0.1	2019_Mar_09_1112	s	s	12	2	SIC	253	ABS	0	0	2	4	24_2_4	NA	NA	0	1	0.846124887466	None	None	None	None	1
3.0.1	2019_Mar_09_1112	s	s	12	2	SIC	254	ABS	0	0	1	4	24_1_4	NA	NA	0	1	1.31664991379	None	None	None	None	1
3.0.1	2019_Mar_09_1112	s	s	12	2	SIC	255	4_3	4	3	2	3	23_2_3	2	0	1	0	0.511698007584	112.0	-92.0	116.0	-104.0	1
3.0.1	2019_Mar_09_1112	s	s	12	2	SIC	256	3_3	3	3	2	4	23_2_4	1	-1	1	0	0.827874898911	503.0	77.0	504.0	76.0	1
3.0.1	2019_Mar_09_1112	s	s	12	2	SIC	257	1_4	1	4	3	3	23_3_3	2	1	1	0	0.893174886703	379.0	291.0	378.0	292.0	1
3.0.1	2019_Mar_09_1112	s	s	12	2	SIC	258	ABS	0	0	1	4	24_1_4	NA	NA	0	1	0.752104043961	None	None	None	None	1
3.0.1	2019_Mar_09_1112	s	s	12	2	SIC	259	1_2	1	2	3	1	23_3_1	2	-1	1	0	0.469733953476	389.0	-71.0	390.0	-71.0	1
3.0.1	2019_Mar_09_1112	s	s	12	2	SIC	260	4_2	4	2	3	2	23_3_2	1	0	1	0	0.51312994957	-263.0	-133.0	-259.0	-123.0	1
3.0.1	2019_Mar_09_1112	s	s	12	2	SIC	261	ABS	0	0	4	1	24_4_1	NA	NA	0	1	0.634378910065	None	None	None	None	1
3.0.1	2019_Mar_09_1112	s	s	12	2	SIC	262	3_2	3	2	3	4	23_3_4	0	2	1	0	0.646132946014	375.0	-260.0	385.0	-254.0	1
3.0.1	2019_Mar_09_1112	s	s	12	2	SIC	263	3_3	3	3	4	3	23_4_3	-1	0	1	0	0.711481809616	-43.0	-303.0	-36.0	-301.0	1
3.0.1	2019_Mar_09_1112	s	s	12	2	SIC	264	4_4	4	4	1	3	23_1_3	3	1	1	0	0.503413915634	525.0	-268.0	534.0	-260.0	1
3.0.1	2019_Mar_09_1112	s	s	12	2	SIC	265	4_3	4	3	4	2	23_4_2	0	1	0	1	2.88494896889	-200.0	-385.0	None	None	0
3.0.1	2019_Mar_09_1112	s	s	12	2	SIC	266	1_4	1	4	2	4	23_2_4	1	0	0	1	1.51649999619	-237.0	363.0	None	None	0
3.0.1	2019_Mar_09_1112	s	s	12	2	SIC	267	2_2	2	2	3	4	23_3_4	1	2	1	0	0.558799028397	-18.0	131.0	-29.0	132.0	1
3.0.1	2019_Mar_09_1112	s	s	12	2	SIC	268	ABS	0	0	2	4	24_2_4	NA	NA	0	1	1.34015512466	None	None	None	None	1
3.0.1	2019_Mar_09_1112	s	s	12	2	SIC	269	ABS	0	0	3	3	24_3_3	NA	NA	0	1	3.13612699509	None	None	None	None	1
3.0.1	2019_Mar_09_1112	s	s	12	2	SIC	270	ABS	0	0	1	2	24_1_2	NA	NA	0	1	2.17512607574	None	None	None	None	1
3.0.1	2019_Mar_09_1112	s	s	12	2	SIC	271	ABS	0	0	2	1	24_2_1	NA	NA	0	1	0.681499004364	None	None	None	None	1
3.0.1	2019_Mar_09_1112	s	s	12	2	SIC	272	4_4	4	4	3	1	23_3_1	1	3	1	0	0.458014011383	396.0	-263.0	393.0	-268.0	1
3.0.1	2019_Mar_09_1112	s	s	12	2	SIC	273	2_4	2	4	3	3	23_3_3	1	1	1	0	0.496175050735	171.0	-275.0	175.0	-279.0	1
3.0.1	2019_Mar_09_1112	s	s	12	2	SIC	274	ABS	0	0	2	4	24_2_4	NA	NA	1	0	0.634416103363	None	None	86.0	-34.0	0
3.0.1	2019_Mar_09_1112	s	s	12	2	SIC	275	1_4	1	4	3	1	23_3_1	2	3	1	0	0.768764019012	-342.0	249.0	-342.0	240.0	1
3.0.1	2019_Mar_09_1112	s	s	12	2	SIC	276	1_3	1	3	1	2	23_1_2	0	1	0	1	1.08624100685	523.0	294.0	None	None	0
3.0.1	2019_Mar_09_1112	s	s	12	2	SIC	277	4_1	4	1	1	3	23_1_3	3	2	1	0	0.551994085312	-336.0	313.0	-328.0	307.0	1
3.0.1	2019_Mar_09_1112	s	s	12	2	SIC	278	ABS	0	0	4	4	24_4_4	NA	NA	0	1	0.721712827682	None	None	None	None	1
3.0.1	2019_Mar_09_1112	s	s	12	2	SIC	279	ABS	0	0	1	3	24_1_3	NA	NA	0	1	2.2090010643	None	None	None	None	1
3.0.1	2019_Mar_09_1112	s	s	12	2	SIC	280	3_2	3	2	1	4	23_1_4	2	2	1	0	0.48162984848	256.0	-134.0	263.0	-138.0	1
3.0.1	2019_Mar_09_1112	s	s	12	2	SIC	281	1_3	1	3	3	3	23_3_3	2	0	1	0	0.469751119614	112.0	-217.0	120.0	-210.0	1
3.0.1	2019_Mar_09_1112	s	s	12	2	SIC	282	4_4	4	4	3	3	23_3_3	1	1	1	0	0.39913392067	62.0	106.0	64.0	105.0	1
3.0.1	2019_Mar_09_1112	s	s	12	2	SIC	283	ABS	0	0	4	4	24_4_4	NA	NA	0	1	0.721865177155	None	None	None	None	1
3.0.1	2019_Mar_09_1112	s	s	12	2	SIC	284	ABS	0	0	1	2	24_1_2	NA	NA	0	1	0.733591079712	None	None	None	None	1
3.0.1	2019_Mar_09_1112	s	s	12	2	SIC	285	ABS	0	0	3	4	24_3_4	NA	NA	0	1	0.738150835037	None	None	None	None	1
3.0.1	2019_Mar_09_1112	s	s	12	2	SIC	286	4_4	4	4	3	4	23_3_4	1	0	1	0	0.545198917389	-43.0	384.0	-38.0	390.0	1
3.0.1	2019_Mar_09_1112	s	s	12	2	SIC	287	ABS	0	0	3	4	24_3_4	NA	NA	1	0	0.775578975677	None	None	27.0	-66.0	0
3.0.1	2019_Mar_09_1112	s	s	12	2	SIC	288	3_1	3	1	4	2	23_4_2	-1	1	1	0	0.751949071884	356.0	232.0	361.0	237.0	1
3.0.1	2019_Mar_09_1112	s	s	12	2	SIC	289	ABS	0	0	4	1	24_4_1	NA	NA	0	1	0.99942111969	None	None	None	None	1
3.0.1	2019_Mar_09_1112	s	s	12	2	SIC	290	4_3	4	3	1	3	23_1_3	3	0	1	0	0.592555046082	450.0	204.0	445.0	206.0	1
3.0.1	2019_Mar_09_1112	s	s	12	2	SIC	291	ABS	0	0	3	2	24_3_2	NA	NA	0	1	1.06262111664	None	None	None	None	1
3.0.1	2019_Mar_09_1112	s	s	12	2	SIC	292	1_1	1	1	2	2	23_2_2	1	1	1	0	2.42826199532	522.0	193.0	521.0	197.0	1
3.0.1	2019_Mar_09_1112	s	s	12	2	SIC	293	2_1	2	1	3	3	23_3_3	1	2	1	0	0.662770986557	-378.0	-254.0	-380.0	-256.0	1
3.0.1	2019_Mar_09_1112	s	s	12	2	SIC	294	2_1	2	1	2	4	23_2_4	0	3	1	0	0.591433048248	349.0	-36.0	350.0	-31.0	1
3.0.1	2019_Mar_09_1112	s	s	12	2	SIC	295	1_4	1	4	2	1	23_2_1	1	3	1	0	1.3282930851	88.0	170.0	83.0	159.0	1
3.0.1	2019_Mar_09_1112	s	s	12	2	SIC	296	4_1	4	1	2	2	23_2_2	2	1	1	0	0.427582979202	448.0	224.0	453.0	216.0	1
3.0.1	2019_Mar_09_1112	s	s	12	2	SIC	297	4_3	4	3	1	1	23_1_1	3	2	1	0	0.403888225555	250.0	115.0	248.0	106.0	1
3.0.1	2019_Mar_09_1112	s	s	12	2	SIC	298	ABS	0	0	3	3	24_3_3	NA	NA	0	1	2.3104968071	None	None	None	None	1
3.0.1	2019_Mar_09_1112	s	s	12	2	SIC	299	2_3	2	3	4	2	23_4_2	2	1	1	0	0.44083404541	-418.0	176.0	-421.0	164.0	1
3.0.1	2019_Mar_09_1112	s	s	12	2	SIC	300	ABS	0	0	1	2	24_1_2	NA	NA	0	1	0.720069885254	None	None	None	None	1
3.0.1	2019_Mar_09_1112	s	s	12	2	SIC	301	4_4	4	4	4	3	23_4_3	0	1	1	0	0.605702161789	71.0	-12.0	79.0	-10.0	1
3.0.1	2019_Mar_09_1112	s	s	12	2	SIC	302	1_1	1	1	2	4	23_2_4	1	3	1	0	0.540389060974	-345.0	117.0	-341.0	112.0	1
3.0.1	2019_Mar_09_1112	s	s	12	2	SIC	303	ABS	0	0	3	3	24_3_3	NA	NA	0	1	1.1485118866	None	None	None	None	1
3.0.1	2019_Mar_09_1112	s	s	12	2	SIC	304	3_2	3	2	2	1	23_2_1	1	-1	1	0	0.509870052338	255.0	-69.0	250.0	-68.0	1
3.0.1	2019_Mar_09_1112	s	s	12	2	SIC	305	ABS	0	0	2	2	24_2_2	NA	NA	0	1	0.987287044525	None	None	None	None	1
3.0.1	2019_Mar_09_1112	s	s	12	2	SIC	306	ABS	0	0	1	4	24_1_4	NA	NA	0	1	0.746651887894	None	None	None	None	1
3.0.1	2019_Mar_09_1112	s	s	12	2	SIC	307	ABS	0	0	4	2	24_4_2	NA	NA	0	1	0.940247058868	None	None	None	None	1
3.0.1	2019_Mar_09_1112	s	s	12	2	SIC	308	3_2	3	2	4	1	23_4_1	-1	-1	1	0	0.591534852982	249.0	-13.0	258.0	-12.0	1
3.0.1	2019_Mar_09_1112	s	s	12	2	SIC	309	ABS	0	0	2	3	24_2_3	NA	NA	0	1	3.10422205925	None	None	None	None	1
3.0.1	2019_Mar_09_1112	s	s	12	2	SIC	310	2_1	2	1	1	4	23_1_4	-1	3	1	0	0.681407928467	-54.0	273.0	-58.0	269.0	1
3.0.1	2019_Mar_09_1112	s	s	12	2	SIC	311	ABS	0	0	1	2	24_1_2	NA	NA	0	1	1.42889285088	None	None	None	None	1
3.0.1	2019_Mar_09_1112	s	s	12	2	SIC	312	ABS	0	0	1	4	24_1_4	NA	NA	0	1	1.44636201859	None	None	None	None	1
3.0.1	2019_Mar_09_1112	s	s	12	2	SIC	313	ABS	0	0	3	1	24_3_1	NA	NA	0	1	0.63446187973	None	None	None	None	1
3.0.1	2019_Mar_09_1112	s	s	12	2	SIC	314	4_2	4	2	4	3	23_4_3	0	1	0	1	0.664481163025	496.0	58.0	None	None	0
3.0.1	2019_Mar_09_1112	s	s	12	2	SIC	315	2_4	2	4	3	4	23_3_4	1	0	0	1	0.578547000885	473.0	-223.0	None	None	0
3.0.1	2019_Mar_09_1112	s	s	12	2	SIC	316	ABS	0	0	4	4	24_4_4	NA	NA	0	1	0.560565948486	None	None	None	None	1
3.0.1	2019_Mar_09_1112	s	s	12	2	SIC	317	ABS	0	0	3	4	24_3_4	NA	NA	0	1	0.71966791153	None	None	None	None	1
3.0.1	2019_Mar_09_1112	s	s	12	2	SIC	318	3_4	3	4	4	3	23_4_3	-1	1	1	0	0.496205091476	498.0	-131.0	505.0	-132.0	1
3.0.1	2019_Mar_09_1112	s	s	12	2	SIC	319	4_1	4	1	2	3	23_2_3	2	2	1	0	0.446222066879	174.0	-73.0	169.0	-70.0	1
3.0.1	2019_Mar_09_1112	s	s	12	2	SIC	320	4_1	4	1	1	2	23_1_2	3	1	1	0	0.410849809647	333.0	101.0	325.0	102.0	1
3.0.1	2019_Mar_09_1112	s	s	12	2	SIC	321	ABS	0	0	2	3	24_2_3	NA	NA	0	1	0.599167108536	None	None	None	None	1
3.0.1	2019_Mar_09_1112	s	s	12	2	SIC	322	ABS	0	0	4	3	24_4_3	NA	NA	0	1	0.592456817627	None	None	None	None	1
3.0.1	2019_Mar_09_1112	s	s	12	2	SIC	323	ABS	0	0	3	1	24_3_1	NA	NA	0	1	0.578452825546	None	None	None	None	1
3.0.1	2019_Mar_09_1112	s	s	12	2	SIC	324	ABS	0	0	1	3	24_1_3	NA	NA	0	1	0.587371110916	None	None	None	None	1
3.0.1	2019_Mar_09_1112	s	s	12	2	SIC	325	ABS	0	0	3	1	24_3_1	NA	NA	0	1	1.51650595665	None	None	None	None	1
3.0.1	2019_Mar_09_1112	s	s	12	2	SIC	326	ABS	0	0	2	3	24_2_3	NA	NA	0	1	2.10749793053	None	None	None	None	1
3.0.1	2019_Mar_09_1112	s	s	12	2	SIC	327	4_2	4	2	1	1	23_1_1	3	-1	1	0	0.508589982986	-540.0	133.0	-548.0	131.0	1
3.0.1	2019_Mar_09_1112	s	s	12	2	SIC	328	ABS	0	0	2	3	24_2_3	NA	NA	0	1	0.51060795784	None	None	None	None	1
3.0.1	2019_Mar_09_1112	s	s	12	2	SIC	329	4_3	4	3	2	1	23_2_1	2	2	1	0	0.474796056747	231.0	-210.0	242.0	-203.0	1
3.0.1	2019_Mar_09_1112	s	s	12	2	SIC	330	4_2	4	2	3	3	23_3_3	1	1	1	0	0.451730966568	-510.0	-226.0	-520.0	-227.0	1
3.0.1	2019_Mar_09_1112	s	s	12	2	SIC	331	ABS	0	0	3	4	24_3_4	NA	NA	0	1	0.552509069443	None	None	None	None	1
3.0.1	2019_Mar_09_1112	s	s	12	2	SIC	332	2_3	2	3	3	3	23_3_3	1	0	0	1	0.704921960831	-160.0	-343.0	None	None	0
3.0.1	2019_Mar_09_1112	s	s	12	2	SIC	333	1_2	1	2	3	4	23_3_4	2	2	1	0	0.464666843414	274.0	353.0	268.0	352.0	1
3.0.1	2019_Mar_09_1112	s	s	12	2	SIC	334	3_4	3	4	2	2	23_2_2	1	2	0	1	0.587333202362	420.0	-233.0	None	None	0
3.0.1	2019_Mar_09_1112	s	s	12	2	SIC	335	ABS	0	0	3	4	24_3_4	NA	NA	0	1	0.944905996323	None	None	None	None	1
3.0.1	2019_Mar_09_1112	s	s	12	2	SIC	336	ABS	0	0	1	3	24_1_3	NA	NA	0	1	1.09816503525	None	None	None	None	1
3.0.1	2019_Mar_09_1112	s	s	12	2	SIC	337	ABS	0	0	4	1	24_4_1	NA	NA	0	1	0.634778022766	None	None	None	None	1
3.0.1	2019_Mar_09_1112	s	s	12	2	SIC	338	3_1	3	1	2	1	23_2_1	1	0	1	0	0.505267858505	-220.0	-181.0	-231.0	-173.0	1
3.0.1	2019_Mar_09_1112	s	s	12	2	SIC	339	1_2	1	2	4	3	23_4_3	3	1	1	0	0.493191957474	-116.0	-402.0	-110.0	-404.0	1
3.0.1	2019_Mar_09_1112	s	s	12	2	SIC	340	4_4	4	4	1	1	23_1_1	3	3	1	0	0.422713041306	-201.0	-334.0	-208.0	-340.0	1
3.0.1	2019_Mar_09_1112	s	s	12	2	SIC	341	2_2	2	2	1	3	23_1_3	-1	1	0	1	1.52823710442	44.0	213.0	None	None	0
3.0.1	2019_Mar_09_1112	s	s	12	2	SIC	342	2_2	2	2	1	2	23_1_2	-1	0	0	1	1.4957780838	236.0	314.0	None	None	0
3.0.1	2019_Mar_09_1112	s	s	12	2	SIC	343	ABS	0	0	3	1	24_3_1	NA	NA	0	1	0.797868967056	None	None	None	None	1
3.0.1	2019_Mar_09_1112	s	s	12	2	SIC	344	ABS	0	0	2	3	24_2_3	NA	NA	0	1	1.17547702789	None	None	None	None	1
3.0.1	2019_Mar_09_1112	s	s	12	2	SIC	345	3_4	3	4	4	4	23_4_4	-1	0	1	0	0.487304925919	243.0	-258.0	258.0	-249.0	1
3.0.1	2019_Mar_09_1112	s	s	12	2	SIC	346	ABS	0	0	3	3	24_3_3	NA	NA	0	1	0.792241096497	None	None	None	None	1
3.0.1	2019_Mar_09_1112	s	s	12	2	SIC	347	ABS	0	0	3	1	24_3_1	NA	NA	0	1	0.963766813278	None	None	None	None	1
3.0.1	2019_Mar_09_1112	s	s	12	2	SIC	348	ABS	0	0	4	1	24_4_1	NA	NA	0	1	0.751999855042	None	None	None	None	1
3.0.1	2019_Mar_09_1112	s	s	12	2	SIC	349	ABS	0	0	1	3	24_1_3	NA	NA	0	1	0.795387983322	None	None	None	None	1
3.0.1	2019_Mar_09_1112	s	s	12	2	SIC	350	ABS	0	0	1	1	24_1_1	NA	NA	0	1	0.469769954681	None	None	None	None	1
3.0.1	2019_Mar_09_1112	s	s	12	2	SIC	351	ABS	0	0	4	4	24_4_4	NA	NA	0	1	0.493719100952	None	None	None	None	1
3.0.1	2019_Mar_09_1112	s	s	12	2	SIC	352	3_1	3	1	4	1	23_4_1	-1	0	1	0	0.554989099503	30.0	379.0	40.0	387.0	1
3.0.1	2019_Mar_09_1112	s	s	12	2	SIC	353	4_4	4	4	1	2	23_1_2	3	2	1	0	0.442885875702	358.0	-92.0	360.0	-89.0	1
3.0.1	2019_Mar_09_1112	s	s	12	2	SIC	354	ABS	0	0	4	2	24_4_2	NA	NA	0	1	2.20153808594	None	None	None	None	1
3.0.1	2019_Mar_09_1112	s	s	12	2	SIC	355	3_4	3	4	1	1	23_1_1	2	3	1	0	0.555994033813	142.0	-352.0	132.0	-351.0	1
3.0.1	2019_Mar_09_1112	s	s	12	2	SIC	356	ABS	0	0	2	2	24_2_2	NA	NA	0	1	1.32831692696	None	None	None	None	1
3.0.1	2019_Mar_09_1112	s	s	12	2	SIC	357	2_4	2	4	4	1	23_4_1	2	3	1	0	0.481528043747	-492.0	-377.0	-497.0	-374.0	1
3.0.1	2019_Mar_09_1112	s	s	12	2	SIC	358	ABS	0	0	3	3	24_3_3	NA	NA	0	1	0.60364484787	None	None	None	None	1
3.0.1	2019_Mar_09_1112	s	s	12	2	SIC	359	2_4	2	4	3	2	23_3_2	1	2	1	0	1.15756011009	-138.0	229.0	-145.0	230.0	1
3.0.1	2019_Mar_09_1112	s	s	12	2	SIC	360	ABS	0	0	1	4	24_1_4	NA	NA	0	1	0.634387969971	None	None	None	None	1
3.0.1	2019_Mar_09_1112	s	s	12	2	SIC	361	ABS	0	0	1	2	24_1_2	NA	NA	0	1	0.686442136765	None	None	None	None	1
3.0.1	2019_Mar_09_1112	s	s	12	2	SIC	362	3_2	3	2	2	2	23_2_2	1	0	1	0	0.846122026443	7.0	210.0	4.0	201.0	1
3.0.1	2019_Mar_09_1112	s	s	12	2	SIC	363	3_2	3	2	4	3	23_4_3	-1	1	1	0	0.469806909561	315.0	135.0	312.0	139.0	1
3.0.1	2019_Mar_09_1112	s	s	12	2	SIC	364	ABS	0	0	1	3	24_1_3	NA	NA	0	1	0.881414890289	None	None	None	None	1
3.0.1	2019_Mar_09_1112	s	s	12	2	SIC	365	4_4	4	4	3	2	23_3_2	1	2	1	0	0.411358118057	244.0	236.0	250.0	228.0	1
3.0.1	2019_Mar_09_1112	s	s	12	2	SIC	366	ABS	0	0	4	3	24_4_3	NA	NA	0	1	1.56997799873	None	None	None	None	1
3.0.1	2019_Mar_09_1112	s	s	12	2	SIC	367	ABS	0	0	3	2	24_3_2	NA	NA	0	1	0.61119222641	None	None	None	None	1
3.0.1	2019_Mar_09_1112	s	s	12	2	SIC	368	ABS	0	0	2	1	24_2_1	NA	NA	0	1	0.503313064575	None	None	None	None	1
3.0.1	2019_Mar_09_1112	s	s	12	2	SIC	369	ABS	0	0	3	3	24_3_3	NA	NA	0	1	0.916718959808	None	None	None	None	1
3.0.1	2019_Mar_09_1112	s	s	12	2	SIC	370	ABS	0	0	4	4	24_4_4	NA	NA	0	1	0.778489112854	None	None	None	None	1
3.0.1	2019_Mar_09_1112	s	s	12	2	SIC	371	2_4	2	4	2	2	23_2_2	0	2	1	0	0.7561211586	126.0	370.0	131.0	363.0	1
3.0.1	2019_Mar_09_1112	s	s	12	2	SIC	372	ABS	0	0	2	3	24_2_3	NA	NA	0	1	0.795176029205	None	None	None	None	1
3.0.1	2019_Mar_09_1112	s	s	12	2	SIC	373	ABS	0	0	1	4	24_1_4	NA	NA	0	1	0.575613021851	None	None	None	None	1
3.0.1	2019_Mar_09_1112	s	s	12	2	SIC	374	ABS	0	0	4	1	24_4_1	NA	NA	0	1	0.907829046249	None	None	None	None	1
3.0.1	2019_Mar_09_1112	s	s	12	2	SIC	375	3_4	3	4	1	3	23_1_3	2	1	1	0	0.639691114426	-180.0	-346.0	-183.0	-354.0	1
3.0.1	2019_Mar_09_1112	s	s	12	2	SIC	376	ABS	0	0	2	3	24_2_3	NA	NA	0	1	0.675606012344	None	None	None	None	1
3.0.1	2019_Mar_09_1112	s	s	12	2	SIC	377	ABS	0	0	3	2	24_3_2	NA	NA	0	1	0.650593996048	None	None	None	None	1
3.0.1	2019_Mar_09_1112	s	s	12	2	SIC	378	1_3	1	3	2	2	23_2_2	1	1	1	0	1.18725299835	-40.0	-306.0	-45.0	-305.0	1
3.0.1	2019_Mar_09_1112	s	s	12	2	SIC	379	ABS	0	0	1	2	24_1_2	NA	NA	0	1	0.854108810425	None	None	None	None	1
3.0.1	2019_Mar_09_1112	s	s	12	2	SIC	380	ABS	0	0	3	3	24_3_3	NA	NA	0	1	0.804961919785	None	None	None	None	1
3.0.1	2019_Mar_09_1112	s	s	12	2	SIC	381	ABS	0	0	4	3	24_4_3	NA	NA	0	1	0.966624975204	None	None	None	None	1
3.0.1	2019_Mar_09_1112	s	s	12	2	SIC	382	ABS	0	0	1	1	24_1_1	NA	NA	0	1	1.48130297661	None	None	None	None	1
3.0.1	2019_Mar_09_1112	s	s	12	2	SIC	383	ABS	0	0	2	2	24_2_2	NA	NA	0	1	0.528552055359	None	None	None	None	1
3.0.1	2019_Mar_09_1112	s	s	12	2	SIC	384	ABS	0	0	4	3	24_4_3	NA	NA	0	1	0.662648916245	None	None	None	None	1
3.0.1	2019_Mar_09_1112	s	s	12	2	SIC	385	ABS	0	0	3	4	24_3_4	NA	NA	0	1	0.693223953247	None	None	None	None	1
3.0.1	2019_Mar_09_1112	s	s	12	2	SIC	386	4_2	4	2	2	4	23_2_4	2	2	1	0	0.501410007477	-57.0	-54.0	-52.0	-50.0	1
3.0.1	2019_Mar_09_1112	s	s	12	2	SIC	387	4_2	4	2	1	4	23_1_4	3	2	1	0	0.399134159088	56.0	263.0	60.0	265.0	1
3.0.1	2019_Mar_09_1112	s	s	12	2	SIC	388	3_2	3	2	1	1	23_1_1	2	-1	0	1	0.568477869034	498.0	195.0	None	None	0
3.0.1	2019_Mar_09_1112	s	s	12	2	SIC	389	ABS	0	0	3	2	24_3_2	NA	NA	0	1	0.657975912094	None	None	None	None	1
3.0.1	2019_Mar_09_1112	s	s	12	2	SIC	390	ABS	0	0	1	4	24_1_4	NA	NA	0	1	0.799385070801	None	None	None	None	1
3.0.1	2019_Mar_09_1112	s	s	12	2	SIC	391	1_2	1	2	4	2	23_4_2	3	0	1	0	0.410929918289	122.0	12.0	131.0	16.0	1
3.0.1	2019_Mar_09_1112	s	s	12	2	SIC	392	ABS	0	0	2	3	24_2_3	NA	NA	0	1	0.599552869797	None	None	None	None	1
3.0.1	2019_Mar_09_1112	s	s	12	2	SIC	393	1_2	1	2	3	3	23_3_3	2	1	1	0	0.499382972717	-375.0	294.0	-368.0	304.0	1
3.0.1	2019_Mar_09_1112	s	s	12	2	SIC	394	ABS	0	0	1	4	24_1_4	NA	NA	0	1	0.615777015686	None	None	None	None	1
3.0.1	2019_Mar_09_1112	s	s	12	2	SIC	395	2_4	2	4	1	1	23_1_1	-1	3	1	0	0.693171977997	-302.0	-93.0	-308.0	-101.0	1
3.0.1	2019_Mar_09_1112	s	s	12	2	SIC	396	ABS	0	0	1	1	24_1_1	NA	NA	0	1	0.59921002388	None	None	None	None	1
3.0.1	2019_Mar_09_1112	s	s	12	2	SIC	397	3_2	3	2	2	4	23_2_4	1	2	1	0	0.763650178909	269.0	379.0	259.0	388.0	1
3.0.1	2019_Mar_09_1112	s	s	12	2	SIC	398	3_1	3	1	3	4	23_3_4	0	3	1	0	0.885084152222	-528.0	-114.0	-532.0	-111.0	1
3.0.1	2019_Mar_09_1112	s	s	12	2	SIC	399	4_2	4	2	2	3	23_2_3	2	1	1	0	0.427670001984	341.0	-29.0	340.0	-25.0	1
3.0.1	2019_Mar_09_1112	s	s	12	2	SIC	400	1_3	1	3	4	2	23_4_2	3	1	1	0	0.443181991577	533.0	150.0	530.0	145.0	1
3.0.1	2019_Mar_09_1112	s	s	12	2	SIC	401	ABS	0	0	2	4	24_2_4	NA	NA	0	1	0.834408998489	None	None	None	None	1
3.0.1	2019_Mar_09_1112	s	s	12	2	SIC	402	4_4	4	4	2	3	23_2_3	2	1	1	0	0.370481967926	147.0	-154.0	146.0	-156.0	1
3.0.1	2019_Mar_09_1112	s	s	12	2	SIC	403	3_4	3	4	2	1	23_2_1	1	3	1	0	0.775590896606	-223.0	-215.0	-223.0	-214.0	1
3.0.1	2019_Mar_09_1112	s	s	12	2	SIC	404	ABS	0	0	2	1	24_2_1	NA	NA	0	1	0.555010080338	None	None	None	None	1
3.0.1	2019_Mar_09_1112	s	s	12	2	SIC	405	1_3	1	3	1	4	23_1_4	0	-1	1	0	0.496216058731	-286.0	-61.0	-283.0	-66.0	1
3.0.1	2019_Mar_09_1112	s	s	12	2	SIC	406	2_1	2	1	4	4	23_4_4	2	3	1	0	0.363895893097	171.0	23.0	182.0	27.0	1
3.0.1	2019_Mar_09_1112	s	s	12	2	SIC	407	ABS	0	0	2	4	24_2_4	NA	NA	0	1	0.697762012482	None	None	None	None	1
3.0.1	2019_Mar_09_1112	s	s	12	2	SIC	408	ABS	0	0	2	4	24_2_4	NA	NA	0	1	1.7753431797	None	None	None	None	1
3.0.1	2019_Mar_09_1112	s	s	12	2	SIC	409	2_4	2	4	1	2	23_1_2	-1	2	1	0	1.05783820152	-18.0	-82.0	-16.0	-87.0	1
3.0.1	2019_Mar_09_1112	s	s	12	2	SIC	410	3_4	3	4	1	2	23_1_2	2	2	1	0	0.555001020432	403.0	97.0	407.0	89.0	1
3.0.1	2019_Mar_09_1112	s	s	12	2	SIC	411	ABS	0	0	2	4	24_2_4	NA	NA	0	1	0.80421090126	None	None	None	None	1
3.0.1	2019_Mar_09_1112	s	s	12	2	SIC	412	2_3	2	3	1	3	23_1_3	-1	0	0	1	0.940160989761	157.0	-112.0	None	None	0
3.0.1	2019_Mar_09_1112	s	s	12	2	SIC	413	1_3	1	3	2	4	23_2_4	1	-1	1	0	0.567168951035	-336.0	-316.0	-336.0	-320.0	1
3.0.1	2019_Mar_09_1112	s	s	12	2	SIC	414	ABS	0	0	4	4	24_4_4	NA	NA	0	1	0.928798913956	None	None	None	None	1
3.0.1	2019_Mar_09_1112	s	s	12	2	SIC	415	3_4	3	4	1	4	23_1_4	2	0	1	0	0.511497974396	-301.0	9.0	-294.0	9.0	1
3.0.1	2019_Mar_09_1112	s	s	12	2	SIC	416	ABS	0	0	1	3	24_1_3	NA	NA	1	0	0.575777053833	None	None	-63.0	65.0	0
3.0.1	2019_Mar_09_1112	s	s	12	2	SIC	417	ABS	0	0	4	1	24_4_1	NA	NA	0	1	0.637100934982	None	None	None	None	1
3.0.1	2019_Mar_09_1112	s	s	12	2	SIC	418	ABS	0	0	3	4	24_3_4	NA	NA	0	1	0.568749904633	None	None	None	None	1
3.0.1	2019_Mar_09_1112	s	s	12	2	SIC	419	ABS	0	0	4	3	24_4_3	NA	NA	0	1	0.987224817276	None	None	None	None	1
3.0.1	2019_Mar_09_1112	s	s	12	2	SIC	420	1_2	1	2	4	1	23_4_1	3	-1	1	0	0.556068181992	114.0	-298.0	115.0	-292.0	1
3.0.1	2019_Mar_09_1112	s	s	12	2	SIC	421	1_4	1	4	1	3	23_1_3	0	1	1	0	0.728492975235	-326.0	-394.0	-319.0	-400.0	1
3.0.1	2019_Mar_09_1112	s	s	12	2	SIC	422	ABS	0	0	1	1	24_1_1	NA	NA	0	1	0.634417057037	None	None	None	None	1
3.0.1	2019_Mar_09_1112	s	s	12	2	SIC	423	3_4	3	4	3	2	23_3_2	0	2	1	0	0.699325084686	430.0	165.0	432.0	171.0	1
3.0.1	2019_Mar_09_1112	s	s	12	2	SIC	424	4_3	4	3	1	4	23_1_4	3	-1	1	0	0.610877037048	-502.0	-262.0	-497.0	-265.0	1
3.0.1	2019_Mar_09_1112	s	s	12	2	SIC	425	ABS	0	0	3	1	24_3_1	NA	NA	0	1	0.634516954422	None	None	None	None	1
3.0.1	2019_Mar_09_1112	s	s	12	2	SIC	426	4_2	4	2	4	4	23_4_4	0	2	1	0	0.860831975937	300.0	-249.0	292.0	-253.0	1
3.0.1	2019_Mar_09_1112	s	s	12	2	SIC	427	ABS	0	0	1	2	24_1_2	NA	NA	0	1	0.592314004898	None	None	None	None	1
3.0.1	2019_Mar_09_1112	s	s	12	2	SIC	428	ABS	0	0	3	2	24_3_2	NA	NA	0	1	0.681456804276	None	None	None	None	1
3.0.1	2019_Mar_09_1112	s	s	12	2	SIC	429	1_4	1	4	2	2	23_2_2	1	2	1	0	0.540359973907	466.0	139.0	475.0	136.0	1
3.0.1	2019_Mar_09_1112	s	s	12	2	SIC	430	1_3	1	3	3	4	23_3_4	2	-1	1	0	0.496261835098	-95.0	276.0	-91.0	270.0	1
3.0.1	2019_Mar_09_1112	s	s	12	2	SIC	431	3_4	3	4	3	3	23_3_3	0	1	1	0	0.575572967529	147.0	277.0	157.0	279.0	1
3.0.1	2019_Mar_09_1112	s	s	12	2	SIC	432	ABS	0	0	1	1	24_1_1	NA	NA	0	1	0.881379127502	None	None	None	None	1
3.0.1	2019_Mar_09_1112	s	s	12	2	SIC	433	ABS	0	0	2	1	24_2_1	NA	NA	0	1	0.709943056107	None	None	None	None	1
3.0.1	2019_Mar_09_1112	s	s	12	2	SIC	434	ABS	0	0	3	2	24_3_2	NA	NA	0	1	0.634328842163	None	None	None	None	1
3.0.1	2019_Mar_09_1112	s	s	12	2	SIC	435	ABS	0	0	2	2	24_2_2	NA	NA	0	1	1.67760682106	None	None	None	None	1
3.0.1	2019_Mar_09_1112	s	s	12	2	SIC	436	ABS	0	0	3	4	24_3_4	NA	NA	0	1	0.681432962418	None	None	None	None	1
3.0.1	2019_Mar_09_1112	s	s	12	2	SIC	437	1_4	1	4	4	1	23_4_1	3	3	1	0	0.486602067947	373.0	-270.0	378.0	-271.0	1
3.0.1	2019_Mar_09_1112	s	s	12	2	SIC	438	2_2	2	2	1	4	23_1_4	-1	2	1	0	0.669666051865	-407.0	-81.0	-414.0	-83.0	1
3.0.1	2019_Mar_09_1112	s	s	12	2	SIC	439	ABS	0	0	2	2	24_2_2	NA	NA	0	1	5.20164012909	None	None	None	None	1
3.0.1	2019_Mar_09_1112	s	s	12	2	SIC	440	1_2	1	2	3	2	23_3_2	2	0	1	0	0.54523897171	-220.0	-95.0	-215.0	-99.0	1
3.0.1	2019_Mar_09_1112	s	s	12	2	SIC	441	1_3	1	3	2	1	23_2_1	1	2	1	0	0.469791889191	-135.0	24.0	-135.0	24.0	1
3.0.1	2019_Mar_09_1112	s	s	12	2	SIC	442	3_4	3	4	4	1	23_4_1	-1	3	1	0	0.604431867599	-435.0	295.0	-432.0	303.0	1
3.0.1	2019_Mar_09_1112	s	s	12	2	SIC	443	ABS	0	0	2	1	24_2_1	NA	NA	0	1	0.737238883972	None	None	None	None	1
3.0.1	2019_Mar_09_1112	s	s	12	2	SIC	444	2_4	2	4	4	2	23_4_2	2	2	1	0	0.443653821945	39.0	-333.0	49.0	-332.0	1
3.0.1	2019_Mar_09_1112	s	s	12	2	SIC	445	ABS	0	0	3	3	24_3_3	NA	NA	0	1	0.646105051041	None	None	None	None	1
3.0.1	2019_Mar_09_1112	s	s	12	2	SIC	446	1_1	1	1	4	1	23_4_1	3	0	1	0	0.469796895981	242.0	-24.0	238.0	-25.0	1
3.0.1	2019_Mar_09_1112	s	s	12	2	SIC	447	ABS	0	0	3	2	24_3_2	NA	NA	0	1	1.45123815536	None	None	None	None	1
3.0.1	2019_Mar_09_1112	s	s	12	2	SIC	448	ABS	0	0	2	2	24_2_2	NA	NA	0	1	0.751994132996	None	None	None	None	1
3.0.1	2019_Mar_09_1112	s	s	12	2	SIC	449	ABS	0	0	1	1	24_1_1	NA	NA	0	1	0.650712966919	None	None	None	None	1
3.0.1	2019_Mar_09_1112	s	s	12	2	SIC	450	ABS	0	0	4	2	24_4_2	NA	NA	0	1	0.58776807785	None	None	None	None	1
3.0.1	2019_Mar_09_1112	s	s	12	2	SIC	451	2_4	2	4	2	1	23_2_1	0	3	1	0	0.627981901169	381.0	-267.0	388.0	-266.0	1
3.0.1	2019_Mar_09_1112	s	s	12	2	SIC	452	2_2	2	2	2	3	23_2_3	0	1	0	1	0.575566053391	6.0	-245.0	None	None	0
3.0.1	2019_Mar_09_1112	s	s	12	2	SIC	453	ABS	0	0	1	1	24_1_1	NA	NA	0	1	0.486281871796	None	None	None	None	1
3.0.1	2019_Mar_09_1112	s	s	12	2	SIC	454	ABS	0	0	4	2	24_4_2	NA	NA	0	1	0.592326164246	None	None	None	None	1
3.0.1	2019_Mar_09_1112	s	s	12	2	SIC	455	ABS	0	0	1	3	24_1_3	NA	NA	0	1	0.634398937225	None	None	None	None	1
3.0.1	2019_Mar_09_1112	s	s	12	2	SIC	456	1_2	1	2	2	3	23_2_3	1	1	1	0	1.09703397751	-398.0	-291.0	-397.0	-289.0	1
3.0.1	2019_Mar_09_1112	s	s	12	2	SIC	457	ABS	0	0	1	1	24_1_1	NA	NA	0	1	0.505295991898	None	None	None	None	1
3.0.1	2019_Mar_09_1112	s	s	12	2	SIC	458	ABS	0	0	2	2	24_2_2	NA	NA	0	1	0.555444002151	None	None	None	None	1
3.0.1	2019_Mar_09_1112	s	s	12	2	SIC	459	2_3	2	3	3	2	23_3_2	1	1	1	0	0.51679110527	169.0	-142.0	182.0	-135.0	1
3.0.1	2019_Mar_09_1112	s	s	12	2	SIC	460	ABS	0	0	1	3	24_1_3	NA	NA	0	1	0.516798019409	None	None	None	None	1
3.0.1	2019_Mar_09_1112	s	s	12	2	SIC	461	ABS	0	0	2	3	24_2_3	NA	NA	0	1	0.693186998367	None	None	None	None	1
3.0.1	2019_Mar_09_1112	s	s	12	2	SIC	462	2_1	2	1	3	1	23_3_1	1	0	0	1	0.545342922211	112.0	-357.0	None	None	0
3.0.1	2019_Mar_09_1112	s	s	12	2	SIC	463	4_4	4	4	2	2	23_2_2	2	2	1	0	0.414865970612	30.0	313.0	36.0	306.0	1
3.0.1	2019_Mar_09_1112	s	s	12	2	SIC	464	ABS	0	0	1	3	24_1_3	NA	NA	0	1	1.09823393822	None	None	None	None	1
3.0.1	2019_Mar_09_1112	s	s	12	2	SIC	465	4_2	4	2	4	1	23_4_1	0	-1	0	1	0.546950101852	47.0	-71.0	None	None	0
3.0.1	2019_Mar_09_1112	s	s	12	2	SIC	466	3_2	3	2	1	2	23_1_2	2	0	1	0	0.822527885437	523.0	69.0	528.0	64.0	1
3.0.1	2019_Mar_09_1112	s	s	12	2	SIC	467	ABS	0	0	4	2	24_4_2	NA	NA	0	1	0.613793134689	None	None	None	None	1
3.0.1	2019_Mar_09_1112	s	s	12	2	SIC	468	ABS	0	0	1	1	24_1_1	NA	NA	0	1	0.770370960236	None	None	None	None	1
3.0.1	2019_Mar_09_1112	s	s	12	2	SIC	469	ABS	0	0	2	2	24_2_2	NA	NA	0	1	0.496228933334	None	None	None	None	1
3.0.1	2019_Mar_09_1112	s	s	12	2	SIC	470	ABS	0	0	1	3	24_1_3	NA	NA	0	1	0.780475139618	None	None	None	None	1
3.0.1	2019_Mar_09_1112	s	s	12	2	SIC	471	1_3	1	3	3	2	23_3_2	2	1	1	0	0.822573900223	-468.0	265.0	-459.0	271.0	1
3.0.1	2019_Mar_09_1112	s	s	12	2	SIC	472	ABS	0	0	2	1	24_2_1	NA	NA	0	1	0.528521060944	None	None	None	None	1
3.0.1	2019_Mar_09_1112	s	s	12	2	SIC	473	ABS	0	0	3	2	24_3_2	NA	NA	0	1	1.08943605423	None	None	None	None	1
3.0.1	2019_Mar_09_1112	s	s	12	2	SIC	474	ABS	0	0	2	1	24_2_1	NA	NA	0	1	0.849030017853	None	None	None	None	1
3.0.1	2019_Mar_09_1112	s	s	12	2	SIC	475	ABS	0	0	1	2	24_1_2	NA	NA	0	1	0.634427070618	None	None	None	None	1
3.0.1	2019_Mar_09_1112	s	s	12	2	SIC	476	ABS	0	0	3	1	24_3_1	NA	NA	0	1	0.57857298851	None	None	None	None	1
3.0.1	2019_Mar_09_1112	s	s	12	2	SIC	477	ABS	0	0	4	3	24_4_3	NA	NA	0	1	0.686881065369	None	None	None	None	1
3.0.1	2019_Mar_09_1112	s	s	12	2	SIC	478	2_2	2	2	4	3	23_4_3	2	1	1	0	0.646255016327	81.0	-153.0	73.0	-155.0	1
3.0.1	2019_Mar_09_1112	s	s	12	2	SIC	479	ABS	0	0	4	4	24_4_4	NA	NA	0	1	0.64618897438	None	None	None	None	1
3.0.1	2019_Mar_09_1112	s	s	12	2	SIC	480	3_3	3	3	1	3	23_1_3	2	0	0	1	0.532804012299	-539.0	-275.0	None	None	0
