Version	Date	Stimuli	Method	Subject	Session	Condition	Trial	Target	TColor	TShape	DColor	DShape	Distractors	Channel1	Channel2	LMouseButton	RMouseButton	RT	TargetX	TargetY	ResponseX	ResponseY	Correct
3.0.1	2019_Mar_12_1657	s	s	12	3	Capacity	1	ABS	0	0	1	4	24_1_4	NA	NA	0	1	2.57507991791	None	None	None	None	1
3.0.1	2019_Mar_12_1657	s	s	12	3	Capacity	2	ABS	0	0	1	3	24_1_3	NA	NA	0	1	2.29272007942	None	None	None	None	1
3.0.1	2019_Mar_12_1657	s	s	12	3	Capacity	3	1_1	1	1	1	3	23_1_3	0	2	1	0	1.10794782639	-45.0	-152.0	-44.0	-149.0	1
3.0.1	2019_Mar_12_1657	s	s	12	3	Capacity	4	1_4	1	4	1	1	23_1_1	0	3	1	0	0.980175971985	-510.0	279.0	-506.0	285.0	1
3.0.1	2019_Mar_12_1657	s	s	12	3	Capacity	5	1_4	1	4	1	3	23_1_3	0	1	1	0	0.543204069138	-333.0	261.0	-327.0	268.0	1
3.0.1	2019_Mar_12_1657	s	s	12	3	Capacity	6	ABS	0	0	1	2	24_1_2	NA	NA	0	1	4.08330202103	None	None	None	None	1
3.0.1	2019_Mar_12_1657	s	s	12	3	Capacity	7	ABS	0	0	1	4	24_1_4	NA	NA	0	1	2.3754029274	None	None	None	None	1
3.0.1	2019_Mar_12_1657	s	s	12	3	Capacity	8	ABS	0	0	1	2	24_1_2	NA	NA	0	1	2.42590808868	None	None	None	None	1
3.0.1	2019_Mar_12_1657	s	s	12	3	Capacity	9	1_3	1	3	1	2	23_1_2	0	1	0	1	1.61019206047	475.0	58.0	None	None	0
3.0.1	2019_Mar_12_1657	s	s	12	3	Capacity	10	1_2	1	2	1	4	23_1_4	0	2	1	0	0.744731903076	318.0	-297.0	325.0	-301.0	1
3.0.1	2019_Mar_12_1657	s	s	12	3	Capacity	11	1_2	1	2	1	1	23_1_1	0	-1	1	0	1.45767402649	-375.0	-353.0	-373.0	-356.0	1
3.0.1	2019_Mar_12_1657	s	s	12	3	Capacity	12	ABS	0	0	1	4	24_1_4	NA	NA	0	1	1.38710784912	None	None	None	None	1
3.0.1	2019_Mar_12_1657	s	s	12	3	Capacity	13	ABS	0	0	1	3	24_1_3	NA	NA	0	1	4.56267786026	None	None	None	None	1
3.0.1	2019_Mar_12_1657	s	s	12	3	Capacity	14	ABS	0	0	1	1	24_1_1	NA	NA	0	1	1.14306306839	None	None	None	None	1
3.0.1	2019_Mar_12_1657	s	s	12	3	Capacity	15	1_4	1	4	1	2	23_1_2	0	2	1	0	0.822575092316	89.0	368.0	87.0	371.0	1
3.0.1	2019_Mar_12_1657	s	s	12	3	Capacity	16	1_3	1	3	1	4	23_1_4	0	-1	1	0	1.17541193962	-21.0	196.0	-28.0	191.0	1
3.0.1	2019_Mar_12_1657	s	s	12	3	Capacity	17	1_2	1	2	1	3	23_1_3	0	1	0	1	3.37482714653	-415.0	385.0	None	None	0
3.0.1	2019_Mar_12_1657	s	s	12	3	Capacity	18	1_1	1	1	1	4	23_1_4	0	3	1	0	0.511058092117	-332.0	163.0	-337.0	162.0	1
3.0.1	2019_Mar_12_1657	s	s	12	3	Capacity	19	ABS	0	0	1	1	24_1_1	NA	NA	0	1	2.83375406265	None	None	None	None	1
3.0.1	2019_Mar_12_1657	s	s	12	3	Capacity	20	ABS	0	0	1	2	24_1_2	NA	NA	0	1	2.28106880188	None	None	None	None	1
3.0.1	2019_Mar_12_1657	s	s	12	3	Capacity	21	1_3	1	3	1	1	23_1_1	0	2	0	1	1.97306799889	141.0	-302.0	None	None	0
3.0.1	2019_Mar_12_1657	s	s	12	3	Capacity	22	ABS	0	0	1	1	24_1_1	NA	NA	0	1	2.10496997833	None	None	None	None	1
3.0.1	2019_Mar_12_1657	s	s	12	3	Capacity	23	1_1	1	1	1	2	23_1_2	0	1	1	0	0.966613054276	-118.0	-20.0	-127.0	-14.0	1
3.0.1	2019_Mar_12_1657	s	s	12	3	Capacity	24	ABS	0	0	1	3	24_1_3	NA	NA	0	1	4.45675110817	None	None	None	None	1
3.0.1	2019_Mar_12_1657	s	s	12	3	Capacity	25	1_3	1	3	1	1	23_1_1	0	2	1	0	1.21073198318	187.0	-71.0	195.0	-68.0	1
3.0.1	2019_Mar_12_1657	s	s	12	3	Capacity	26	ABS	0	0	1	3	24_1_3	NA	NA	0	1	2.50441098213	None	None	None	None	1
3.0.1	2019_Mar_12_1657	s	s	12	3	Capacity	27	1_2	1	2	1	1	23_1_1	0	-1	0	1	2.11642313004	-452.0	175.0	None	None	0
3.0.1	2019_Mar_12_1657	s	s	12	3	Capacity	28	1_4	1	4	1	3	23_1_3	0	1	1	0	0.885452032089	392.0	107.0	388.0	105.0	1
3.0.1	2019_Mar_12_1657	s	s	12	3	Capacity	29	ABS	0	0	1	1	24_1_1	NA	NA	0	1	0.840533018112	None	None	None	None	1
3.0.1	2019_Mar_12_1657	s	s	12	3	Capacity	30	1_1	1	1	1	4	23_1_4	0	3	1	0	0.496336936951	89.0	247.0	95.0	241.0	1
3.0.1	2019_Mar_12_1657	s	s	12	3	Capacity	31	ABS	0	0	1	3	24_1_3	NA	NA	0	1	2.03908395767	None	None	None	None	1
3.0.1	2019_Mar_12_1657	s	s	12	3	Capacity	32	ABS	0	0	1	4	24_1_4	NA	NA	0	1	1.08531880379	None	None	None	None	1
3.0.1	2019_Mar_12_1657	s	s	12	3	Capacity	33	ABS	0	0	1	4	24_1_4	NA	NA	0	1	1.1492190361	None	None	None	None	1
3.0.1	2019_Mar_12_1657	s	s	12	3	Capacity	34	1_4	1	4	1	1	23_1_1	0	3	1	0	0.780736923218	382.0	-297.0	387.0	-291.0	1
3.0.1	2019_Mar_12_1657	s	s	12	3	Capacity	35	1_2	1	2	1	4	23_1_4	0	2	1	0	0.505042076111	-456.0	193.0	-452.0	203.0	1
3.0.1	2019_Mar_12_1657	s	s	12	3	Capacity	36	1_2	1	2	1	3	23_1_3	0	1	1	0	5.35573196411	45.0	-105.0	54.0	-105.0	1
3.0.1	2019_Mar_12_1657	s	s	12	3	Capacity	37	1_3	1	3	1	2	23_1_2	0	1	0	1	2.26249313354	466.0	4.0	None	None	0
3.0.1	2019_Mar_12_1657	s	s	12	3	Capacity	38	ABS	0	0	1	2	24_1_2	NA	NA	0	1	5.29193997383	None	None	None	None	1
3.0.1	2019_Mar_12_1657	s	s	12	3	Capacity	39	ABS	0	0	1	1	24_1_1	NA	NA	0	1	1.91305303574	None	None	None	None	1
3.0.1	2019_Mar_12_1657	s	s	12	3	Capacity	40	1_1	1	1	1	3	23_1_3	0	2	1	0	1.00334692001	207.0	288.0	220.0	291.0	1
3.0.1	2019_Mar_12_1657	s	s	12	3	Capacity	41	ABS	0	0	1	4	24_1_4	NA	NA	0	1	1.21499490738	None	None	None	None	1
3.0.1	2019_Mar_12_1657	s	s	12	3	Capacity	42	1_1	1	1	1	2	23_1_2	0	1	0	1	2.49804496765	-296.0	67.0	None	None	0
3.0.1	2019_Mar_12_1657	s	s	12	3	Capacity	43	ABS	0	0	1	3	24_1_3	NA	NA	0	1	1.98121714592	None	None	None	None	1
3.0.1	2019_Mar_12_1657	s	s	12	3	Capacity	44	ABS	0	0	1	1	24_1_1	NA	NA	0	1	2.37799406052	None	None	None	None	1
3.0.1	2019_Mar_12_1657	s	s	12	3	Capacity	45	1_4	1	4	1	2	23_1_2	0	2	1	0	0.528594970703	67.0	147.0	70.0	149.0	1
3.0.1	2019_Mar_12_1657	s	s	12	3	Capacity	46	ABS	0	0	1	2	24_1_2	NA	NA	0	1	3.36304712296	None	None	None	None	1
3.0.1	2019_Mar_12_1657	s	s	12	3	Capacity	47	1_3	1	3	1	4	23_1_4	0	-1	1	0	1.74325585365	188.0	-39.0	190.0	-39.0	1
3.0.1	2019_Mar_12_1657	s	s	12	3	Capacity	48	ABS	0	0	1	2	24_1_2	NA	NA	0	1	3.23767018318	None	None	None	None	1
3.0.1	2019_Mar_12_1657	s	s	12	3	Capacity	49	1_3	1	3	1	2	23_1_2	0	1	0	1	4.07677221298	-189.0	-205.0	None	None	0
3.0.1	2019_Mar_12_1657	s	s	12	3	Capacity	50	1_3	1	3	1	4	23_1_4	0	-1	1	0	0.908724069595	-257.0	329.0	-259.0	320.0	1
3.0.1	2019_Mar_12_1657	s	s	12	3	Capacity	51	ABS	0	0	1	1	24_1_1	NA	NA	0	1	2.77496480942	None	None	None	None	1
3.0.1	2019_Mar_12_1657	s	s	12	3	Capacity	52	1_3	1	3	1	1	23_1_1	0	2	0	1	1.29301714897	-392.0	-376.0	None	None	0
3.0.1	2019_Mar_12_1657	s	s	12	3	Capacity	53	1_2	1	2	1	1	23_1_1	0	-1	0	1	2.71912789345	-27.0	280.0	None	None	0
3.0.1	2019_Mar_12_1657	s	s	12	3	Capacity	54	ABS	0	0	1	4	24_1_4	NA	NA	0	1	2.90726613998	None	None	None	None	1
3.0.1	2019_Mar_12_1657	s	s	12	3	Capacity	55	ABS	0	0	1	1	24_1_1	NA	NA	0	1	0.616120100021	None	None	None	None	1
3.0.1	2019_Mar_12_1657	s	s	12	3	Capacity	56	1_2	1	2	1	3	23_1_3	0	1	0	1	2.29275894165	-397.0	-70.0	None	None	0
3.0.1	2019_Mar_12_1657	s	s	12	3	Capacity	57	ABS	0	0	1	3	24_1_3	NA	NA	0	1	1.89575886726	None	None	None	None	1
3.0.1	2019_Mar_12_1657	s	s	12	3	Capacity	58	ABS	0	0	1	2	24_1_2	NA	NA	0	1	2.40147399902	None	None	None	None	1
3.0.1	2019_Mar_12_1657	s	s	12	3	Capacity	59	1_4	1	4	1	2	23_1_2	0	2	1	0	0.618723869324	-97.0	175.0	-107.0	175.0	1
3.0.1	2019_Mar_12_1657	s	s	12	3	Capacity	60	1_4	1	4	1	1	23_1_1	0	3	1	0	0.779865980148	-505.0	116.0	-503.0	100.0	1
3.0.1	2019_Mar_12_1657	s	s	12	3	Capacity	61	1_4	1	4	1	3	23_1_3	0	1	1	0	0.677541971207	-373.0	179.0	-374.0	179.0	1
3.0.1	2019_Mar_12_1657	s	s	12	3	Capacity	62	1_1	1	1	1	4	23_1_4	0	3	1	0	1.83407783508	-406.0	299.0	-268.0	287.0	0
3.0.1	2019_Mar_12_1657	s	s	12	3	Capacity	63	ABS	0	0	1	3	24_1_3	NA	NA	0	1	5.06844711304	None	None	None	None	1
3.0.1	2019_Mar_12_1657	s	s	12	3	Capacity	64	1_2	1	2	1	4	23_1_4	0	2	1	0	0.567120075226	-100.0	215.0	-99.0	214.0	1
3.0.1	2019_Mar_12_1657	s	s	12	3	Capacity	65	ABS	0	0	1	4	24_1_4	NA	NA	0	1	2.78143382072	None	None	None	None	1
3.0.1	2019_Mar_12_1657	s	s	12	3	Capacity	66	ABS	0	0	1	3	24_1_3	NA	NA	0	1	2.81022405624	None	None	None	None	1
3.0.1	2019_Mar_12_1657	s	s	12	3	Capacity	67	1_1	1	1	1	3	23_1_3	0	2	1	0	1.59879803658	-398.0	-55.0	-390.0	-58.0	1
3.0.1	2019_Mar_12_1657	s	s	12	3	Capacity	68	ABS	0	0	1	2	24_1_2	NA	NA	0	1	5.59100103378	None	None	None	None	1
3.0.1	2019_Mar_12_1657	s	s	12	3	Capacity	69	ABS	0	0	1	1	24_1_1	NA	NA	0	1	2.76318883896	None	None	None	None	1
3.0.1	2019_Mar_12_1657	s	s	12	3	Capacity	70	1_1	1	1	1	2	23_1_2	0	1	0	1	3.16301989555	-106.0	-245.0	None	None	0
3.0.1	2019_Mar_12_1657	s	s	12	3	Capacity	71	ABS	0	0	1	2	24_1_2	NA	NA	0	1	1.48115897179	None	None	None	None	1
3.0.1	2019_Mar_12_1657	s	s	12	3	Capacity	72	ABS	0	0	1	4	24_1_4	NA	NA	0	1	1.39884591103	None	None	None	None	1
3.0.1	2019_Mar_12_1657	s	s	12	3	Capacity	73	ABS	0	0	1	2	24_1_2	NA	NA	0	1	2.24573111534	None	None	None	None	1
3.0.1	2019_Mar_12_1657	s	s	12	3	Capacity	74	1_2	1	2	1	1	23_1_1	0	-1	0	1	0.99005484581	444.0	206.0	None	None	0
3.0.1	2019_Mar_12_1657	s	s	12	3	Capacity	75	ABS	0	0	1	1	24_1_1	NA	NA	0	1	1.05786395073	None	None	None	None	1
3.0.1	2019_Mar_12_1657	s	s	12	3	Capacity	76	ABS	0	0	1	2	24_1_2	NA	NA	0	1	1.26064610481	None	None	None	None	1
3.0.1	2019_Mar_12_1657	s	s	12	3	Capacity	77	1_3	1	3	1	2	23_1_2	0	1	0	1	2.10455107689	331.0	-280.0	None	None	0
3.0.1	2019_Mar_12_1657	s	s	12	3	Capacity	78	1_1	1	1	1	4	23_1_4	0	3	1	0	0.496195793152	-389.0	95.0	-394.0	85.0	1
3.0.1	2019_Mar_12_1657	s	s	12	3	Capacity	79	1_3	1	3	1	1	23_1_1	0	2	1	0	0.822565078735	279.0	-110.0	276.0	-101.0	1
3.0.1	2019_Mar_12_1657	s	s	12	3	Capacity	80	1_4	1	4	1	1	23_1_1	0	3	1	0	0.604448795319	134.0	-230.0	135.0	-241.0	1
3.0.1	2019_Mar_12_1657	s	s	12	3	Capacity	81	ABS	0	0	1	4	24_1_4	NA	NA	0	1	1.85755610466	None	None	None	None	1
3.0.1	2019_Mar_12_1657	s	s	12	3	Capacity	82	ABS	0	0	1	4	24_1_4	NA	NA	0	1	1.41069197655	None	None	None	None	1
3.0.1	2019_Mar_12_1657	s	s	12	3	Capacity	83	ABS	0	0	1	3	24_1_3	NA	NA	0	1	2.96893501282	None	None	None	None	1
3.0.1	2019_Mar_12_1657	s	s	12	3	Capacity	84	ABS	0	0	1	1	24_1_1	NA	NA	0	1	0.839189052582	None	None	None	None	1
3.0.1	2019_Mar_12_1657	s	s	12	3	Capacity	85	1_2	1	2	1	3	23_1_3	0	1	0	1	4.21969103813	108.0	-167.0	None	None	0
3.0.1	2019_Mar_12_1657	s	s	12	3	Capacity	86	1_4	1	4	1	2	23_1_2	0	2	1	0	0.716742992401	288.0	-285.0	297.0	-282.0	1
3.0.1	2019_Mar_12_1657	s	s	12	3	Capacity	87	ABS	0	0	1	4	24_1_4	NA	NA	0	1	1.0813369751	None	None	None	None	1
3.0.1	2019_Mar_12_1657	s	s	12	3	Capacity	88	1_3	1	3	1	4	23_1_4	0	-1	1	0	1.37542200089	415.0	310.0	411.0	315.0	1
3.0.1	2019_Mar_12_1657	s	s	12	3	Capacity	89	ABS	0	0	1	2	24_1_2	NA	NA	0	1	2.75146794319	None	None	None	None	1
3.0.1	2019_Mar_12_1657	s	s	12	3	Capacity	90	ABS	0	0	1	1	24_1_1	NA	NA	0	1	2.10114407539	None	None	None	None	1
3.0.1	2019_Mar_12_1657	s	s	12	3	Capacity	91	ABS	0	0	1	3	24_1_3	NA	NA	0	1	1.76343202591	None	None	None	None	1
3.0.1	2019_Mar_12_1657	s	s	12	3	Capacity	92	1_2	1	2	1	4	23_1_4	0	2	1	0	0.545464992523	-264.0	-191.0	-269.0	-194.0	1
3.0.1	2019_Mar_12_1657	s	s	12	3	Capacity	93	1_4	1	4	1	3	23_1_3	0	1	1	0	0.677561998367	102.0	244.0	101.0	246.0	1
3.0.1	2019_Mar_12_1657	s	s	12	3	Capacity	94	ABS	0	0	1	3	24_1_3	NA	NA	0	1	1.70485091209	None	None	None	None	1
3.0.1	2019_Mar_12_1657	s	s	12	3	Capacity	95	1_1	1	1	1	3	23_1_3	0	2	0	1	2.42877984047	-49.0	38.0	None	None	0
3.0.1	2019_Mar_12_1657	s	s	12	3	Capacity	96	1_1	1	1	1	2	23_1_2	0	1	1	0	2.51619791985	-85.0	-18.0	-76.0	-20.0	1
3.0.1	2019_Mar_12_1657	s	s	12	3	Capacity	1	ABS	0	0	2	1	24_2_1	NA	NA	0	1	0.787631034851	None	None	None	None	1
3.0.1	2019_Mar_12_1657	s	s	12	3	Capacity	2	2_1	2	1	1	1	23_1_1	-1	0	1	0	1.57529902458	-465.0	405.0	-475.0	413.0	1
3.0.1	2019_Mar_12_1657	s	s	12	3	Capacity	3	ABS	0	0	2	1	24_2_1	NA	NA	0	1	1.08623790741	None	None	None	None	1
3.0.1	2019_Mar_12_1657	s	s	12	3	Capacity	4	1_1	1	1	3	1	23_3_1	2	0	1	0	0.50501704216	-264.0	-56.0	-255.0	-48.0	1
3.0.1	2019_Mar_12_1657	s	s	12	3	Capacity	5	ABS	0	0	4	1	24_4_1	NA	NA	0	1	0.756817817688	None	None	None	None	1
3.0.1	2019_Mar_12_1657	s	s	12	3	Capacity	6	ABS	0	0	3	1	24_3_1	NA	NA	0	1	2.12118411064	None	None	None	None	1
3.0.1	2019_Mar_12_1657	s	s	12	3	Capacity	7	ABS	0	0	3	1	24_3_1	NA	NA	0	1	1.8265349865	None	None	None	None	1
3.0.1	2019_Mar_12_1657	s	s	12	3	Capacity	8	ABS	0	0	1	1	24_1_1	NA	NA	0	1	1.20185685158	None	None	None	None	1
3.0.1	2019_Mar_12_1657	s	s	12	3	Capacity	9	1_1	1	1	4	1	23_4_1	3	0	1	0	0.560021162033	505.0	346.0	511.0	348.0	1
3.0.1	2019_Mar_12_1657	s	s	12	3	Capacity	10	4_1	4	1	3	1	23_3_1	1	0	1	0	0.508641958237	-477.0	165.0	-481.0	156.0	1
3.0.1	2019_Mar_12_1657	s	s	12	3	Capacity	11	ABS	0	0	2	1	24_2_1	NA	NA	0	1	1.72306895256	None	None	None	None	1
3.0.1	2019_Mar_12_1657	s	s	12	3	Capacity	12	ABS	0	0	1	1	24_1_1	NA	NA	0	1	0.998956918716	None	None	None	None	1
3.0.1	2019_Mar_12_1657	s	s	12	3	Capacity	13	1_1	1	1	2	1	23_2_1	1	0	0	1	0.71691608429	97.0	269.0	None	None	0
3.0.1	2019_Mar_12_1657	s	s	12	3	Capacity	14	3_1	3	1	1	1	23_1_1	2	0	1	0	0.446280002594	-144.0	43.0	-149.0	47.0	1
3.0.1	2019_Mar_12_1657	s	s	12	3	Capacity	15	ABS	0	0	4	1	24_4_1	NA	NA	0	1	0.532847881317	None	None	None	None	1
3.0.1	2019_Mar_12_1657	s	s	12	3	Capacity	16	ABS	0	0	3	1	24_3_1	NA	NA	0	1	0.704899072647	None	None	None	None	1
3.0.1	2019_Mar_12_1657	s	s	12	3	Capacity	17	2_1	2	1	3	1	23_3_1	1	0	1	0	0.545274019241	203.0	83.0	200.0	84.0	1
3.0.1	2019_Mar_12_1657	s	s	12	3	Capacity	18	ABS	0	0	1	1	24_1_1	NA	NA	0	1	0.646575927734	None	None	None	None	1
3.0.1	2019_Mar_12_1657	s	s	12	3	Capacity	19	4_1	4	1	1	1	23_1_1	3	0	1	0	0.410961866379	-276.0	-307.0	-266.0	-306.0	1
3.0.1	2019_Mar_12_1657	s	s	12	3	Capacity	20	4_1	4	1	2	1	23_2_1	2	0	1	0	0.540331840515	-277.0	394.0	-278.0	399.0	1
3.0.1	2019_Mar_12_1657	s	s	12	3	Capacity	21	2_1	2	1	4	1	23_4_1	2	0	1	0	0.569604158401	167.0	-310.0	173.0	-318.0	1
3.0.1	2019_Mar_12_1657	s	s	12	3	Capacity	22	ABS	0	0	4	1	24_4_1	NA	NA	0	1	0.634267091751	None	None	None	None	1
3.0.1	2019_Mar_12_1657	s	s	12	3	Capacity	23	3_1	3	1	4	1	23_4_1	-1	0	1	0	0.481560945511	200.0	-197.0	199.0	-198.0	1
3.0.1	2019_Mar_12_1657	s	s	12	3	Capacity	24	3_1	3	1	2	1	23_2_1	1	0	1	0	0.486895084381	-366.0	-118.0	-366.0	-118.0	1
3.0.1	2019_Mar_12_1657	s	s	12	3	Capacity	25	2_1	2	1	4	1	23_4_1	2	0	1	0	0.410930156708	65.0	-172.0	74.0	-175.0	1
3.0.1	2019_Mar_12_1657	s	s	12	3	Capacity	26	ABS	0	0	2	1	24_2_1	NA	NA	0	1	0.592678070068	None	None	None	None	1
3.0.1	2019_Mar_12_1657	s	s	12	3	Capacity	27	ABS	0	0	1	1	24_1_1	NA	NA	0	1	0.620074987411	None	None	None	None	1
3.0.1	2019_Mar_12_1657	s	s	12	3	Capacity	28	1_1	1	1	3	1	23_3_1	2	0	1	0	0.496230840683	-17.0	-279.0	-22.0	-276.0	1
3.0.1	2019_Mar_12_1657	s	s	12	3	Capacity	29	4_1	4	1	2	1	23_2_1	2	0	1	0	0.496145009995	473.0	-314.0	477.0	-318.0	1
3.0.1	2019_Mar_12_1657	s	s	12	3	Capacity	30	ABS	0	0	4	1	24_4_1	NA	NA	0	1	1.36854791641	None	None	None	None	1
3.0.1	2019_Mar_12_1657	s	s	12	3	Capacity	31	4_1	4	1	3	1	23_3_1	1	0	1	0	0.491008043289	443.0	252.0	445.0	255.0	1
3.0.1	2019_Mar_12_1657	s	s	12	3	Capacity	32	ABS	0	0	1	1	24_1_1	NA	NA	0	1	0.975543022156	None	None	None	None	1
3.0.1	2019_Mar_12_1657	s	s	12	3	Capacity	33	ABS	0	0	2	1	24_2_1	NA	NA	0	1	0.907816886902	None	None	None	None	1
3.0.1	2019_Mar_12_1657	s	s	12	3	Capacity	34	2_1	2	1	3	1	23_3_1	1	0	1	0	0.5289311409	240.0	-65.0	241.0	-57.0	1
3.0.1	2019_Mar_12_1657	s	s	12	3	Capacity	35	1_1	1	1	2	1	23_2_1	1	0	0	1	0.605391979218	99.0	-412.0	None	None	0
3.0.1	2019_Mar_12_1657	s	s	12	3	Capacity	36	3_1	3	1	2	1	23_2_1	1	0	1	0	0.47014093399	-384.0	364.0	-387.0	366.0	1
3.0.1	2019_Mar_12_1657	s	s	12	3	Capacity	37	4_1	4	1	1	1	23_1_1	3	0	1	0	0.658151865005	295.0	27.0	299.0	26.0	1
3.0.1	2019_Mar_12_1657	s	s	12	3	Capacity	38	ABS	0	0	4	1	24_4_1	NA	NA	0	1	2.13985109329	None	None	None	None	1
3.0.1	2019_Mar_12_1657	s	s	12	3	Capacity	39	ABS	0	0	2	1	24_2_1	NA	NA	0	1	0.613729953766	None	None	None	None	1
3.0.1	2019_Mar_12_1657	s	s	12	3	Capacity	40	ABS	0	0	1	1	24_1_1	NA	NA	0	1	0.664332866669	None	None	None	None	1
3.0.1	2019_Mar_12_1657	s	s	12	3	Capacity	41	2_1	2	1	1	1	23_1_1	-1	0	0	1	0.981570005417	299.0	377.0	None	None	0
3.0.1	2019_Mar_12_1657	s	s	12	3	Capacity	42	ABS	0	0	3	1	24_3_1	NA	NA	0	1	0.646149873734	None	None	None	None	1
3.0.1	2019_Mar_12_1657	s	s	12	3	Capacity	43	3_1	3	1	4	1	23_4_1	-1	0	1	0	0.486999988556	157.0	-339.0	163.0	-336.0	1
3.0.1	2019_Mar_12_1657	s	s	12	3	Capacity	44	ABS	0	0	3	1	24_3_1	NA	NA	0	1	0.687227964401	None	None	None	None	1
3.0.1	2019_Mar_12_1657	s	s	12	3	Capacity	45	ABS	0	0	4	1	24_4_1	NA	NA	0	1	0.679942131042	None	None	None	None	1
3.0.1	2019_Mar_12_1657	s	s	12	3	Capacity	46	ABS	0	0	3	1	24_3_1	NA	NA	0	1	0.51676607132	None	None	None	None	1
3.0.1	2019_Mar_12_1657	s	s	12	3	Capacity	47	3_1	3	1	1	1	23_1_1	2	0	1	0	0.693422079086	-179.0	-351.0	-175.0	-355.0	1
3.0.1	2019_Mar_12_1657	s	s	12	3	Capacity	48	1_1	1	1	4	1	23_4_1	3	0	1	0	0.444597005844	-19.0	-131.0	-18.0	-139.0	1
3.0.1	2019_Mar_12_1657	s	s	12	3	Capacity	49	ABS	0	0	1	1	24_1_1	NA	NA	0	1	2.9749121666	None	None	None	None	1
3.0.1	2019_Mar_12_1657	s	s	12	3	Capacity	50	1_1	1	1	4	1	23_4_1	3	0	1	0	0.469845056534	64.0	-224.0	70.0	-218.0	1
3.0.1	2019_Mar_12_1657	s	s	12	3	Capacity	51	3_1	3	1	4	1	23_4_1	-1	0	1	0	0.481534004211	-398.0	206.0	-409.0	210.0	1
3.0.1	2019_Mar_12_1657	s	s	12	3	Capacity	52	ABS	0	0	3	1	24_3_1	NA	NA	0	1	3.41005897522	None	None	None	None	1
3.0.1	2019_Mar_12_1657	s	s	12	3	Capacity	53	1_1	1	1	2	1	23_2_1	1	0	1	0	3.48500204086	212.0	127.0	215.0	120.0	1
3.0.1	2019_Mar_12_1657	s	s	12	3	Capacity	54	4_1	4	1	2	1	23_2_1	2	0	1	0	0.410939216614	422.0	-131.0	416.0	-129.0	1
3.0.1	2019_Mar_12_1657	s	s	12	3	Capacity	55	4_1	4	1	1	1	23_1_1	3	0	1	0	0.41101193428	0.0	168.0	9.0	167.0	1
3.0.1	2019_Mar_12_1657	s	s	12	3	Capacity	56	ABS	0	0	2	1	24_2_1	NA	NA	0	1	0.686384916306	None	None	None	None	1
3.0.1	2019_Mar_12_1657	s	s	12	3	Capacity	57	2_1	2	1	1	1	23_1_1	-1	0	1	0	1.25177001953	280.0	48.0	22.0	-7.0	0
3.0.1	2019_Mar_12_1657	s	s	12	3	Capacity	58	3_1	3	1	2	1	23_2_1	1	0	1	0	0.790242910385	497.0	-127.0	501.0	-121.0	1
3.0.1	2019_Mar_12_1657	s	s	12	3	Capacity	59	ABS	0	0	4	1	24_4_1	NA	NA	0	1	0.580887794495	None	None	None	None	1
3.0.1	2019_Mar_12_1657	s	s	12	3	Capacity	60	ABS	0	0	2	1	24_2_1	NA	NA	0	1	0.627876996994	None	None	None	None	1
3.0.1	2019_Mar_12_1657	s	s	12	3	Capacity	61	3_1	3	1	1	1	23_1_1	2	0	1	0	0.469828128815	-167.0	95.0	-174.0	88.0	1
3.0.1	2019_Mar_12_1657	s	s	12	3	Capacity	62	ABS	0	0	2	1	24_2_1	NA	NA	0	1	1.10485601425	None	None	None	None	1
3.0.1	2019_Mar_12_1657	s	s	12	3	Capacity	63	ABS	0	0	3	1	24_3_1	NA	NA	0	1	0.556006908417	None	None	None	None	1
3.0.1	2019_Mar_12_1657	s	s	12	3	Capacity	64	2_1	2	1	4	1	23_4_1	2	0	1	0	0.451970100403	477.0	-322.0	477.0	-320.0	1
3.0.1	2019_Mar_12_1657	s	s	12	3	Capacity	65	ABS	0	0	4	1	24_4_1	NA	NA	0	1	0.575572013855	None	None	None	None	1
3.0.1	2019_Mar_12_1657	s	s	12	3	Capacity	66	ABS	0	0	3	1	24_3_1	NA	NA	0	1	0.987166166306	None	None	None	None	1
3.0.1	2019_Mar_12_1657	s	s	12	3	Capacity	67	ABS	0	0	1	1	24_1_1	NA	NA	0	1	3.16313505173	None	None	None	None	1
3.0.1	2019_Mar_12_1657	s	s	12	3	Capacity	68	ABS	0	0	1	1	24_1_1	NA	NA	0	1	0.599179983139	None	None	None	None	1
3.0.1	2019_Mar_12_1657	s	s	12	3	Capacity	69	2_1	2	1	3	1	23_3_1	1	0	1	0	0.805197954178	-253.0	210.0	-249.0	211.0	1
3.0.1	2019_Mar_12_1657	s	s	12	3	Capacity	70	ABS	0	0	4	1	24_4_1	NA	NA	0	1	0.796689987183	None	None	None	None	1
3.0.1	2019_Mar_12_1657	s	s	12	3	Capacity	71	4_1	4	1	3	1	23_3_1	1	0	1	0	0.438042879105	271.0	-203.0	269.0	-209.0	1
3.0.1	2019_Mar_12_1657	s	s	12	3	Capacity	72	1_1	1	1	3	1	23_3_1	2	0	1	0	0.517138004303	36.0	376.0	46.0	374.0	1
3.0.1	2019_Mar_12_1657	s	s	12	3	Capacity	73	3_1	3	1	1	1	23_1_1	2	0	1	0	0.469763040543	146.0	174.0	151.0	171.0	1
3.0.1	2019_Mar_12_1657	s	s	12	3	Capacity	74	ABS	0	0	3	1	24_3_1	NA	NA	0	1	0.569936990738	None	None	None	None	1
3.0.1	2019_Mar_12_1657	s	s	12	3	Capacity	75	ABS	0	0	4	1	24_4_1	NA	NA	0	1	0.967626094818	None	None	None	None	1
3.0.1	2019_Mar_12_1657	s	s	12	3	Capacity	76	3_1	3	1	2	1	23_2_1	1	0	1	0	0.768507003784	530.0	-290.0	539.0	-283.0	1
3.0.1	2019_Mar_12_1657	s	s	12	3	Capacity	77	ABS	0	0	2	1	24_2_1	NA	NA	0	1	1.6878490448	None	None	None	None	1
3.0.1	2019_Mar_12_1657	s	s	12	3	Capacity	78	ABS	0	0	1	1	24_1_1	NA	NA	0	1	0.95198392868	None	None	None	None	1
3.0.1	2019_Mar_12_1657	s	s	12	3	Capacity	79	ABS	0	0	2	1	24_2_1	NA	NA	0	1	3.22183895111	None	None	None	None	1
3.0.1	2019_Mar_12_1657	s	s	12	3	Capacity	80	ABS	0	0	2	1	24_2_1	NA	NA	0	1	0.557040929794	None	None	None	None	1
3.0.1	2019_Mar_12_1657	s	s	12	3	Capacity	81	ABS	0	0	3	1	24_3_1	NA	NA	0	1	0.745275974274	None	None	None	None	1
3.0.1	2019_Mar_12_1657	s	s	12	3	Capacity	82	4_1	4	1	2	1	23_2_1	2	0	1	0	0.387501001358	138.0	146.0	134.0	142.0	1
3.0.1	2019_Mar_12_1657	s	s	12	3	Capacity	83	2_1	2	1	1	1	23_1_1	-1	0	0	1	1.01079916954	-324.0	-142.0	None	None	0
3.0.1	2019_Mar_12_1657	s	s	12	3	Capacity	84	ABS	0	0	4	1	24_4_1	NA	NA	0	1	2.35517191887	None	None	None	None	1
3.0.1	2019_Mar_12_1657	s	s	12	3	Capacity	85	1_1	1	1	2	1	23_2_1	1	0	0	1	0.721984863281	434.0	407.0	None	None	0
3.0.1	2019_Mar_12_1657	s	s	12	3	Capacity	86	2_1	2	1	4	1	23_4_1	2	0	1	0	0.440253019333	-200.0	274.0	-204.0	270.0	1
3.0.1	2019_Mar_12_1657	s	s	12	3	Capacity	87	ABS	0	0	3	1	24_3_1	NA	NA	0	1	0.93353509903	None	None	None	None	1
3.0.1	2019_Mar_12_1657	s	s	12	3	Capacity	88	ABS	0	0	1	1	24_1_1	NA	NA	0	1	1.06277108192	None	None	None	None	1
3.0.1	2019_Mar_12_1657	s	s	12	3	Capacity	89	3_1	3	1	4	1	23_4_1	-1	0	1	0	0.446253061295	253.0	67.0	252.0	70.0	1
3.0.1	2019_Mar_12_1657	s	s	12	3	Capacity	90	ABS	0	0	1	1	24_1_1	NA	NA	0	1	1.11005997658	None	None	None	None	1
3.0.1	2019_Mar_12_1657	s	s	12	3	Capacity	91	4_1	4	1	1	1	23_1_1	3	0	1	0	0.497308015823	300.0	123.0	308.0	123.0	1
3.0.1	2019_Mar_12_1657	s	s	12	3	Capacity	92	1_1	1	1	3	1	23_3_1	2	0	0	1	0.563852071762	486.0	107.0	None	None	0
3.0.1	2019_Mar_12_1657	s	s	12	3	Capacity	93	ABS	0	0	4	1	24_4_1	NA	NA	0	1	0.672608137131	None	None	None	None	1
3.0.1	2019_Mar_12_1657	s	s	12	3	Capacity	94	4_1	4	1	3	1	23_3_1	1	0	1	0	3.76809287071	531.0	5.0	526.0	5.0	1
3.0.1	2019_Mar_12_1657	s	s	12	3	Capacity	95	2_1	2	1	3	1	23_3_1	1	0	0	1	0.560045957565	310.0	386.0	None	None	0
3.0.1	2019_Mar_12_1657	s	s	12	3	Capacity	96	1_1	1	1	4	1	23_4_1	3	0	1	0	0.496244907379	5.0	-409.0	7.0	-405.0	1
3.0.1	2019_Mar_12_1657	s	s	12	3	SIC	1	ABS	0	0	1	3	24_1_3	NA	NA	0	1	2.36335802078	None	None	None	None	1
3.0.1	2019_Mar_12_1657	s	s	12	3	SIC	2	4_4	4	4	4	1	23_4_1	0	3	1	0	0.578455924988	275.0	401.0	280.0	400.0	1
3.0.1	2019_Mar_12_1657	s	s	12	3	SIC	3	ABS	0	0	3	2	24_3_2	NA	NA	0	1	1.61095285416	None	None	None	None	1
3.0.1	2019_Mar_12_1657	s	s	12	3	SIC	4	ABS	0	0	4	2	24_4_2	NA	NA	0	1	1.67235398293	None	None	None	None	1
3.0.1	2019_Mar_12_1657	s	s	12	3	SIC	5	ABS	0	0	3	2	24_3_2	NA	NA	0	1	1.59887909889	None	None	None	None	1
3.0.1	2019_Mar_12_1657	s	s	12	3	SIC	6	2_2	2	2	4	2	23_4_2	2	0	1	0	0.503768920898	-426.0	169.0	-434.0	166.0	1
3.0.1	2019_Mar_12_1657	s	s	12	3	SIC	7	ABS	0	0	4	1	24_4_1	NA	NA	0	1	0.622623920441	None	None	None	None	1
3.0.1	2019_Mar_12_1657	s	s	12	3	SIC	8	2_1	2	1	1	2	23_1_2	-1	1	0	1	1.23420000076	277.0	315.0	None	None	0
3.0.1	2019_Mar_12_1657	s	s	12	3	SIC	9	1_2	1	2	4	2	23_4_2	3	0	1	0	0.437413930893	313.0	-251.0	314.0	-263.0	1
3.0.1	2019_Mar_12_1657	s	s	12	3	SIC	10	3_2	3	2	4	4	23_4_4	-1	2	1	0	0.57563996315	391.0	113.0	383.0	120.0	1
3.0.1	2019_Mar_12_1657	s	s	12	3	SIC	11	3_4	3	4	1	2	23_1_2	2	2	1	0	0.622686862946	126.0	-337.0	128.0	-342.0	1
3.0.1	2019_Mar_12_1657	s	s	12	3	SIC	12	ABS	0	0	2	3	24_2_3	NA	NA	0	1	1.3923368454	None	None	None	None	1
3.0.1	2019_Mar_12_1657	s	s	12	3	SIC	13	ABS	0	0	4	1	24_4_1	NA	NA	0	1	1.02542519569	None	None	None	None	1
3.0.1	2019_Mar_12_1657	s	s	12	3	SIC	14	2_2	2	2	3	2	23_3_2	1	0	1	0	0.481561183929	-207.0	89.0	-215.0	84.0	1
3.0.1	2019_Mar_12_1657	s	s	12	3	SIC	15	3_4	3	4	3	2	23_3_2	0	2	1	0	0.575590133667	-201.0	107.0	-198.0	106.0	1
3.0.1	2019_Mar_12_1657	s	s	12	3	SIC	16	4_4	4	4	3	4	23_3_4	1	0	1	0	0.438282966614	-437.0	198.0	-444.0	199.0	1
3.0.1	2019_Mar_12_1657	s	s	12	3	SIC	17	ABS	0	0	3	1	24_3_1	NA	NA	0	1	2.03080105782	None	None	None	None	1
3.0.1	2019_Mar_12_1657	s	s	12	3	SIC	18	3_2	3	2	2	1	23_2_1	1	-1	1	0	1.00438404083	-231.0	307.0	-227.0	312.0	1
3.0.1	2019_Mar_12_1657	s	s	12	3	SIC	19	ABS	0	0	4	3	24_4_3	NA	NA	0	1	1.8928630352	None	None	None	None	1
3.0.1	2019_Mar_12_1657	s	s	12	3	SIC	20	3_2	3	2	1	1	23_1_1	2	-1	1	0	0.47503900528	347.0	42.0	345.0	37.0	1
3.0.1	2019_Mar_12_1657	s	s	12	3	SIC	21	3_2	3	2	4	2	23_4_2	-1	0	1	0	0.516810894012	-320.0	-177.0	-319.0	-175.0	1
3.0.1	2019_Mar_12_1657	s	s	12	3	SIC	22	ABS	0	0	1	1	24_1_1	NA	NA	0	1	0.68146109581	None	None	None	None	1
3.0.1	2019_Mar_12_1657	s	s	12	3	SIC	23	4_4	4	4	4	3	23_4_3	0	1	1	0	0.834404945374	376.0	-373.0	370.0	-377.0	1
3.0.1	2019_Mar_12_1657	s	s	12	3	SIC	24	ABS	0	0	4	1	24_4_1	NA	NA	0	1	0.775541782379	None	None	None	None	1
3.0.1	2019_Mar_12_1657	s	s	12	3	SIC	25	3_2	3	2	3	3	23_3_3	0	1	0	1	1.68627500534	385.0	-23.0	None	None	0
3.0.1	2019_Mar_12_1657	s	s	12	3	SIC	26	3_3	3	3	1	3	23_1_3	2	0	1	0	0.50542807579	-284.0	285.0	-291.0	278.0	1
3.0.1	2019_Mar_12_1657	s	s	12	3	SIC	27	1_2	1	2	2	3	23_2_3	1	1	1	0	1.77813315392	-221.0	48.0	-214.0	53.0	1
3.0.1	2019_Mar_12_1657	s	s	12	3	SIC	28	4_1	4	1	2	1	23_2_1	2	0	1	0	0.403826951981	-162.0	14.0	-153.0	14.0	1
3.0.1	2019_Mar_12_1657	s	s	12	3	SIC	29	ABS	0	0	3	2	24_3_2	NA	NA	0	1	1.28432798386	None	None	None	None	1
3.0.1	2019_Mar_12_1657	s	s	12	3	SIC	30	ABS	0	0	4	2	24_4_2	NA	NA	0	1	1.51067709923	None	None	None	None	1
3.0.1	2019_Mar_12_1657	s	s	12	3	SIC	31	2_4	2	4	1	3	23_1_3	-1	1	1	0	0.587358951569	-369.0	-73.0	-376.0	-80.0	1
3.0.1	2019_Mar_12_1657	s	s	12	3	SIC	32	ABS	0	0	2	1	24_2_1	NA	NA	0	1	1.21072697639	None	None	None	None	1
3.0.1	2019_Mar_12_1657	s	s	12	3	SIC	33	2_3	2	3	3	4	23_3_4	1	-1	1	0	0.528574943542	-95.0	-55.0	-92.0	-58.0	1
3.0.1	2019_Mar_12_1657	s	s	12	3	SIC	34	ABS	0	0	2	1	24_2_1	NA	NA	0	1	2.52784991264	None	None	None	None	1
3.0.1	2019_Mar_12_1657	s	s	12	3	SIC	35	3_1	3	1	1	4	23_1_4	2	3	1	0	0.52875995636	-402.0	-172.0	-396.0	-163.0	1
3.0.1	2019_Mar_12_1657	s	s	12	3	SIC	36	ABS	0	0	3	1	24_3_1	NA	NA	0	1	0.951964139938	None	None	None	None	1
3.0.1	2019_Mar_12_1657	s	s	12	3	SIC	37	1_1	1	1	4	1	23_4_1	3	0	1	0	0.48154592514	-419.0	345.0	-427.0	344.0	1
3.0.1	2019_Mar_12_1657	s	s	12	3	SIC	38	2_1	2	1	4	3	23_4_3	2	2	1	0	0.45794916153	-42.0	357.0	-34.0	359.0	1
3.0.1	2019_Mar_12_1657	s	s	12	3	SIC	39	2_2	2	2	4	4	23_4_4	2	2	1	0	0.48636507988	509.0	269.0	512.0	269.0	1
3.0.1	2019_Mar_12_1657	s	s	12	3	SIC	40	1_4	1	4	2	1	23_2_1	1	3	1	0	0.510814905167	-398.0	-190.0	-404.0	-187.0	1
3.0.1	2019_Mar_12_1657	s	s	12	3	SIC	41	ABS	0	0	1	3	24_1_3	NA	NA	0	1	1.9868350029	None	None	None	None	1
3.0.1	2019_Mar_12_1657	s	s	12	3	SIC	42	3_3	3	3	2	2	23_2_2	1	1	1	0	0.488755941391	243.0	139.0	251.0	149.0	1
3.0.1	2019_Mar_12_1657	s	s	12	3	SIC	43	3_4	3	4	1	1	23_1_1	2	3	1	0	0.45792889595	-302.0	44.0	-309.0	39.0	1
3.0.1	2019_Mar_12_1657	s	s	12	3	SIC	44	2_1	2	1	2	2	23_2_2	0	1	0	1	2.08494210243	378.0	-182.0	None	None	0
3.0.1	2019_Mar_12_1657	s	s	12	3	SIC	45	2_3	2	3	3	1	23_3_1	1	2	1	0	0.469714164734	29.0	-85.0	28.0	-94.0	1
3.0.1	2019_Mar_12_1657	s	s	12	3	SIC	46	3_1	3	1	2	2	23_2_2	1	1	1	0	0.496177911758	177.0	-151.0	184.0	-152.0	1
3.0.1	2019_Mar_12_1657	s	s	12	3	SIC	47	ABS	0	0	1	3	24_1_3	NA	NA	0	1	1.43804597855	None	None	None	None	1
3.0.1	2019_Mar_12_1657	s	s	12	3	SIC	48	ABS	0	0	1	4	24_1_4	NA	NA	0	1	0.987277030945	None	None	None	None	1
3.0.1	2019_Mar_12_1657	s	s	12	3	SIC	49	4_3	4	3	4	2	23_4_2	0	1	0	1	1.85617589951	487.0	294.0	None	None	0
3.0.1	2019_Mar_12_1657	s	s	12	3	SIC	50	ABS	0	0	2	1	24_2_1	NA	NA	0	1	0.916891813278	None	None	None	None	1
3.0.1	2019_Mar_12_1657	s	s	12	3	SIC	51	ABS	0	0	2	2	24_2_2	NA	NA	0	1	1.46952295303	None	None	None	None	1
3.0.1	2019_Mar_12_1657	s	s	12	3	SIC	52	3_2	3	2	1	4	23_1_4	2	2	1	0	0.469734191895	217.0	146.0	216.0	136.0	1
3.0.1	2019_Mar_12_1657	s	s	12	3	SIC	53	ABS	0	0	1	4	24_1_4	NA	NA	0	1	1.25786399841	None	None	None	None	1
3.0.1	2019_Mar_12_1657	s	s	12	3	SIC	54	1_3	1	3	4	4	23_4_4	3	-1	1	0	0.469708919525	26.0	-405.0	29.0	-405.0	1
3.0.1	2019_Mar_12_1657	s	s	12	3	SIC	55	4_2	4	2	4	1	23_4_1	0	-1	0	1	0.56046795845	47.0	-311.0	None	None	0
3.0.1	2019_Mar_12_1657	s	s	12	3	SIC	56	3_3	3	3	3	1	23_3_1	0	2	0	1	0.699702978134	-397.0	276.0	None	None	0
3.0.1	2019_Mar_12_1657	s	s	12	3	SIC	57	ABS	0	0	4	3	24_4_3	NA	NA	0	1	1.78993701935	None	None	None	None	1
3.0.1	2019_Mar_12_1657	s	s	12	3	SIC	58	2_3	2	3	1	3	23_1_3	-1	0	0	1	2.48102593422	358.0	-74.0	None	None	0
3.0.1	2019_Mar_12_1657	s	s	12	3	SIC	59	ABS	0	0	3	4	24_3_4	NA	NA	0	1	1.14527702332	None	None	None	None	1
3.0.1	2019_Mar_12_1657	s	s	12	3	SIC	60	3_2	3	2	1	2	23_1_2	2	0	1	0	0.58741402626	398.0	-402.0	406.0	-407.0	1
3.0.1	2019_Mar_12_1657	s	s	12	3	SIC	61	4_4	4	4	2	2	23_2_2	2	2	1	0	0.392271995544	36.0	-204.0	40.0	-215.0	1
3.0.1	2019_Mar_12_1657	s	s	12	3	SIC	62	3_3	3	3	3	4	23_3_4	0	-1	1	0	0.686553001404	190.0	73.0	193.0	74.0	1
3.0.1	2019_Mar_12_1657	s	s	12	3	SIC	63	2_4	2	4	4	3	23_4_3	2	1	1	0	0.469738006592	288.0	177.0	288.0	178.0	1
3.0.1	2019_Mar_12_1657	s	s	12	3	SIC	64	ABS	0	0	1	3	24_1_3	NA	NA	0	1	3.89225196838	None	None	None	None	1
3.0.1	2019_Mar_12_1657	s	s	12	3	SIC	65	2_4	2	4	2	1	23_2_1	0	3	1	0	0.958806037903	-145.0	-3.0	-148.0	-8.0	1
3.0.1	2019_Mar_12_1657	s	s	12	3	SIC	66	4_3	4	3	2	2	23_2_2	2	1	1	0	0.528553962708	-340.0	293.0	-340.0	297.0	1
3.0.1	2019_Mar_12_1657	s	s	12	3	SIC	67	ABS	0	0	3	3	24_3_3	NA	NA	1	0	0.505060911179	None	None	106.0	-77.0	0
3.0.1	2019_Mar_12_1657	s	s	12	3	SIC	68	3_3	3	3	4	2	23_4_2	-1	1	1	0	0.505082130432	40.0	-326.0	36.0	-328.0	1
3.0.1	2019_Mar_12_1657	s	s	12	3	SIC	69	ABS	0	0	2	1	24_2_1	NA	NA	0	1	0.907953977585	None	None	None	None	1
3.0.1	2019_Mar_12_1657	s	s	12	3	SIC	70	ABS	0	0	4	4	24_4_4	NA	NA	0	1	2.41478013992	None	None	None	None	1
3.0.1	2019_Mar_12_1657	s	s	12	3	SIC	71	1_2	1	2	3	4	23_3_4	2	2	1	0	0.505043983459	297.0	385.0	299.0	374.0	1
3.0.1	2019_Mar_12_1657	s	s	12	3	SIC	72	4_4	4	4	4	2	23_4_2	0	2	1	0	0.599102020264	523.0	-108.0	536.0	-105.0	1
3.0.1	2019_Mar_12_1657	s	s	12	3	SIC	73	1_2	1	2	4	1	23_4_1	3	-1	1	0	0.410933971405	-370.0	66.0	-368.0	61.0	1
3.0.1	2019_Mar_12_1657	s	s	12	3	SIC	74	3_1	3	1	4	1	23_4_1	-1	0	1	0	0.422760009766	-191.0	305.0	-204.0	309.0	1
3.0.1	2019_Mar_12_1657	s	s	12	3	SIC	75	1_3	1	3	1	1	23_1_1	0	2	1	0	1.77526903152	69.0	391.0	62.0	391.0	1
3.0.1	2019_Mar_12_1657	s	s	12	3	SIC	76	4_2	4	2	1	1	23_1_1	3	-1	1	0	0.410967111588	-235.0	296.0	-237.0	298.0	1
3.0.1	2019_Mar_12_1657	s	s	12	3	SIC	77	4_3	4	3	2	3	23_2_3	2	0	1	0	0.378551006317	323.0	347.0	313.0	345.0	1
3.0.1	2019_Mar_12_1657	s	s	12	3	SIC	78	4_2	4	2	2	3	23_2_3	2	1	1	0	0.490162134171	-287.0	-57.0	-287.0	-61.0	1
3.0.1	2019_Mar_12_1657	s	s	12	3	SIC	79	1_4	1	4	4	2	23_4_2	3	2	1	0	0.378575086594	523.0	-141.0	528.0	-149.0	1
3.0.1	2019_Mar_12_1657	s	s	12	3	SIC	80	ABS	0	0	1	2	24_1_2	NA	NA	0	1	3.39821982384	None	None	None	None	1
3.0.1	2019_Mar_12_1657	s	s	12	3	SIC	81	ABS	0	0	2	3	24_2_3	NA	NA	0	1	1.38715195656	None	None	None	None	1
3.0.1	2019_Mar_12_1657	s	s	12	3	SIC	82	4_1	4	1	4	4	23_4_4	0	3	1	0	0.810791969299	-252.0	372.0	-251.0	366.0	1
3.0.1	2019_Mar_12_1657	s	s	12	3	SIC	83	4_1	4	1	3	1	23_3_1	1	0	1	0	0.516805171967	-479.0	316.0	-487.0	312.0	1
3.0.1	2019_Mar_12_1657	s	s	12	3	SIC	84	ABS	0	0	2	4	24_2_4	NA	NA	0	1	1.23833918571	None	None	None	None	1
3.0.1	2019_Mar_12_1657	s	s	12	3	SIC	85	3_3	3	3	2	1	23_2_1	1	2	1	0	0.51673412323	197.0	47.0	201.0	48.0	1
3.0.1	2019_Mar_12_1657	s	s	12	3	SIC	86	2_3	2	3	2	4	23_2_4	0	-1	1	0	0.736270904541	-127.0	322.0	-127.0	321.0	1
3.0.1	2019_Mar_12_1657	s	s	12	3	SIC	87	1_4	1	4	4	3	23_4_3	3	1	1	0	0.443111181259	330.0	398.0	332.0	392.0	1
3.0.1	2019_Mar_12_1657	s	s	12	3	SIC	88	3_3	3	3	4	4	23_4_4	-1	-1	1	0	0.416184186935	506.0	-315.0	514.0	-310.0	1
3.0.1	2019_Mar_12_1657	s	s	12	3	SIC	89	4_3	4	3	3	1	23_3_1	1	2	1	0	0.45133805275	-283.0	-400.0	-281.0	-397.0	1
3.0.1	2019_Mar_12_1657	s	s	12	3	SIC	90	2_4	2	4	1	2	23_1_2	-1	2	1	0	0.686177968979	-513.0	317.0	-508.0	315.0	1
3.0.1	2019_Mar_12_1657	s	s	12	3	SIC	91	4_1	4	1	2	4	23_2_4	2	3	1	0	0.369384050369	265.0	-373.0	259.0	-365.0	1
3.0.1	2019_Mar_12_1657	s	s	12	3	SIC	92	ABS	0	0	1	2	24_1_2	NA	NA	0	1	3.85992407799	None	None	None	None	1
3.0.1	2019_Mar_12_1657	s	s	12	3	SIC	93	ABS	0	0	1	1	24_1_1	NA	NA	0	1	0.682044029236	None	None	None	None	1
3.0.1	2019_Mar_12_1657	s	s	12	3	SIC	94	3_4	3	4	2	3	23_2_3	1	1	1	0	0.457960128784	290.0	-81.0	291.0	-78.0	1
3.0.1	2019_Mar_12_1657	s	s	12	3	SIC	95	ABS	0	0	4	3	24_4_3	NA	NA	0	1	0.941156148911	None	None	None	None	1
3.0.1	2019_Mar_12_1657	s	s	12	3	SIC	96	ABS	0	0	3	4	24_3_4	NA	NA	0	1	1.01568484306	None	None	None	None	1
3.0.1	2019_Mar_12_1657	s	s	12	3	SIC	97	3_2	3	2	2	4	23_2_4	1	2	1	0	0.473843097687	-259.0	281.0	-252.0	274.0	1
3.0.1	2019_Mar_12_1657	s	s	12	3	SIC	98	ABS	0	0	4	2	24_4_2	NA	NA	0	1	1.58076190948	None	None	None	None	1
3.0.1	2019_Mar_12_1657	s	s	12	3	SIC	99	ABS	0	0	3	4	24_3_4	NA	NA	0	1	0.634350061417	None	None	None	None	1
3.0.1	2019_Mar_12_1657	s	s	12	3	SIC	100	1_1	1	1	2	1	23_2_1	1	0	0	1	2.78947997093	150.0	-138.0	None	None	0
3.0.1	2019_Mar_12_1657	s	s	12	3	SIC	101	1_1	1	1	3	4	23_3_4	2	3	1	0	0.591735124588	256.0	80.0	255.0	68.0	1
3.0.1	2019_Mar_12_1657	s	s	12	3	SIC	102	ABS	0	0	1	4	24_1_4	NA	NA	0	1	0.767991065979	None	None	None	None	1
3.0.1	2019_Mar_12_1657	s	s	12	3	SIC	103	3_2	3	2	4	3	23_4_3	-1	1	1	0	0.528465032578	66.0	-156.0	74.0	-156.0	1
3.0.1	2019_Mar_12_1657	s	s	12	3	SIC	104	ABS	0	0	1	2	24_1_2	NA	NA	0	1	0.849014997482	None	None	None	None	1
3.0.1	2019_Mar_12_1657	s	s	12	3	SIC	105	ABS	0	0	4	4	24_4_4	NA	NA	0	1	0.928461074829	None	None	None	None	1
3.0.1	2019_Mar_12_1657	s	s	12	3	SIC	106	ABS	0	0	1	4	24_1_4	NA	NA	0	1	0.934547901154	None	None	None	None	1
3.0.1	2019_Mar_12_1657	s	s	12	3	SIC	107	ABS	0	0	3	2	24_3_2	NA	NA	0	1	1.93983912468	None	None	None	None	1
3.0.1	2019_Mar_12_1657	s	s	12	3	SIC	108	4_3	4	3	4	1	23_4_1	0	2	0	1	0.813655853271	363.0	-5.0	None	None	0
3.0.1	2019_Mar_12_1657	s	s	12	3	SIC	109	2_1	2	1	3	2	23_3_2	1	1	1	0	0.540380001068	114.0	330.0	109.0	326.0	1
3.0.1	2019_Mar_12_1657	s	s	12	3	SIC	110	ABS	0	0	2	4	24_2_4	NA	NA	0	1	1.08430695534	None	None	None	None	1
3.0.1	2019_Mar_12_1657	s	s	12	3	SIC	111	ABS	0	0	2	4	24_2_4	NA	NA	0	1	1.88105297089	None	None	None	None	1
3.0.1	2019_Mar_12_1657	s	s	12	3	SIC	112	3_4	3	4	3	3	23_3_3	0	1	1	0	1.01082396507	175.0	-277.0	186.0	-277.0	1
3.0.1	2019_Mar_12_1657	s	s	12	3	SIC	113	ABS	0	0	2	4	24_2_4	NA	NA	0	1	1.13300490379	None	None	None	None	1
3.0.1	2019_Mar_12_1657	s	s	12	3	SIC	114	ABS	0	0	2	3	24_2_3	NA	NA	0	1	1.58706998825	None	None	None	None	1
3.0.1	2019_Mar_12_1657	s	s	12	3	SIC	115	ABS	0	0	2	2	24_2_2	NA	NA	0	1	1.78984904289	None	None	None	None	1
3.0.1	2019_Mar_12_1657	s	s	12	3	SIC	116	ABS	0	0	1	4	24_1_4	NA	NA	0	1	1.26957392693	None	None	None	None	1
3.0.1	2019_Mar_12_1657	s	s	12	3	SIC	117	4_4	4	4	2	3	23_2_3	2	1	1	0	0.579250097275	-205.0	-45.0	-204.0	-43.0	1
3.0.1	2019_Mar_12_1657	s	s	12	3	SIC	118	ABS	0	0	3	3	24_3_3	NA	NA	0	1	1.90721106529	None	None	None	None	1
3.0.1	2019_Mar_12_1657	s	s	12	3	SIC	119	2_1	2	1	2	4	23_2_4	0	3	1	0	0.837238788605	40.0	363.0	40.0	365.0	1
3.0.1	2019_Mar_12_1657	s	s	12	3	SIC	120	ABS	0	0	2	2	24_2_2	NA	NA	0	1	2.4809589386	None	None	None	None	1
3.0.1	2019_Mar_12_1657	s	s	12	3	SIC	121	2_1	2	1	3	4	23_3_4	1	3	1	0	0.528536081314	336.0	318.0	337.0	318.0	1
3.0.1	2019_Mar_12_1657	s	s	12	3	SIC	122	ABS	0	0	2	4	24_2_4	NA	NA	0	1	1.46941494942	None	None	None	None	1
3.0.1	2019_Mar_12_1657	s	s	12	3	SIC	123	2_4	2	4	4	4	23_4_4	2	0	1	0	0.587426900864	-233.0	212.0	-225.0	210.0	1
3.0.1	2019_Mar_12_1657	s	s	12	3	SIC	124	ABS	0	0	4	2	24_4_2	NA	NA	0	1	2.38675999641	None	None	None	None	1
3.0.1	2019_Mar_12_1657	s	s	12	3	SIC	125	4_2	4	2	2	1	23_2_1	2	-1	1	0	0.414049863815	-396.0	156.0	-403.0	151.0	1
3.0.1	2019_Mar_12_1657	s	s	12	3	SIC	126	ABS	0	0	3	2	24_3_2	NA	NA	0	1	0.881469011307	None	None	None	None	1
3.0.1	2019_Mar_12_1657	s	s	12	3	SIC	127	3_1	3	1	1	2	23_1_2	2	1	1	0	0.474858999252	487.0	0.0	494.0	5.0	1
3.0.1	2019_Mar_12_1657	s	s	12	3	SIC	128	ABS	0	0	1	4	24_1_4	NA	NA	0	1	0.657986879349	None	None	None	None	1
3.0.1	2019_Mar_12_1657	s	s	12	3	SIC	129	1_4	1	4	4	1	23_4_1	3	3	1	0	0.432693004608	-508.0	-177.0	-511.0	-191.0	1
3.0.1	2019_Mar_12_1657	s	s	12	3	SIC	130	4_4	4	4	1	2	23_1_2	3	2	1	0	0.790194034576	-507.0	233.0	-512.0	228.0	1
3.0.1	2019_Mar_12_1657	s	s	12	3	SIC	131	ABS	0	0	4	3	24_4_3	NA	NA	0	1	1.0307738781	None	None	None	None	1
3.0.1	2019_Mar_12_1657	s	s	12	3	SIC	132	ABS	0	0	4	1	24_4_1	NA	NA	0	1	0.716772079468	None	None	None	None	1
3.0.1	2019_Mar_12_1657	s	s	12	3	SIC	133	ABS	0	0	2	2	24_2_2	NA	NA	0	1	0.775939941406	None	None	None	None	1
3.0.1	2019_Mar_12_1657	s	s	12	3	SIC	134	3_4	3	4	2	1	23_2_1	1	3	1	0	0.575549125671	-430.0	-31.0	-438.0	-37.0	1
3.0.1	2019_Mar_12_1657	s	s	12	3	SIC	135	ABS	0	0	2	1	24_2_1	NA	NA	0	1	0.795382976532	None	None	None	None	1
3.0.1	2019_Mar_12_1657	s	s	12	3	SIC	136	2_3	2	3	1	4	23_1_4	-1	-1	1	0	0.89962387085	344.0	-356.0	344.0	-355.0	1
3.0.1	2019_Mar_12_1657	s	s	12	3	SIC	137	ABS	0	0	1	4	24_1_4	NA	NA	0	1	0.693248987198	None	None	None	None	1
3.0.1	2019_Mar_12_1657	s	s	12	3	SIC	138	1_1	1	1	2	4	23_2_4	1	3	1	0	0.458036184311	406.0	-116.0	408.0	-110.0	1
3.0.1	2019_Mar_12_1657	s	s	12	3	SIC	139	1_3	1	3	2	2	23_2_2	1	1	0	1	1.35606813431	-203.0	-59.0	None	None	0
3.0.1	2019_Mar_12_1657	s	s	12	3	SIC	140	1_1	1	1	3	2	23_3_2	2	1	1	0	0.505043029785	-406.0	-3.0	-409.0	-8.0	1
3.0.1	2019_Mar_12_1657	s	s	12	3	SIC	141	3_1	3	1	2	4	23_2_4	1	3	1	0	0.462664842606	358.0	-87.0	361.0	-93.0	1
3.0.1	2019_Mar_12_1657	s	s	12	3	SIC	142	4_2	4	2	3	1	23_3_1	1	-1	1	0	0.368766069412	-110.0	-82.0	-110.0	-84.0	1
3.0.1	2019_Mar_12_1657	s	s	12	3	SIC	143	ABS	0	0	3	3	24_3_3	NA	NA	0	1	2.09280800819	None	None	None	None	1
3.0.1	2019_Mar_12_1657	s	s	12	3	SIC	144	ABS	0	0	1	3	24_1_3	NA	NA	0	1	3.35513687134	None	None	None	None	1
3.0.1	2019_Mar_12_1657	s	s	12	3	SIC	145	1_4	1	4	3	4	23_3_4	2	0	1	0	0.505044221878	-369.0	-112.0	-367.0	-106.0	1
3.0.1	2019_Mar_12_1657	s	s	12	3	SIC	146	2_1	2	1	1	1	23_1_1	-1	0	0	1	1.57534980774	175.0	14.0	None	None	0
3.0.1	2019_Mar_12_1657	s	s	12	3	SIC	147	3_4	3	4	4	3	23_4_3	-1	1	1	0	0.457926034927	455.0	-377.0	452.0	-374.0	1
3.0.1	2019_Mar_12_1657	s	s	12	3	SIC	148	2_2	2	2	3	1	23_3_1	1	-1	1	0	0.505323886871	171.0	-297.0	176.0	-292.0	1
3.0.1	2019_Mar_12_1657	s	s	12	3	SIC	149	1_3	1	3	1	2	23_1_2	0	1	0	1	3.12786197662	71.0	359.0	None	None	0
3.0.1	2019_Mar_12_1657	s	s	12	3	SIC	150	ABS	0	0	2	1	24_2_1	NA	NA	0	1	0.699162006378	None	None	None	None	1
3.0.1	2019_Mar_12_1657	s	s	12	3	SIC	151	1_2	1	2	2	2	23_2_2	1	0	0	1	2.31638097763	25.0	-143.0	None	None	0
3.0.1	2019_Mar_12_1657	s	s	12	3	SIC	152	ABS	0	0	4	1	24_4_1	NA	NA	0	1	0.610913991928	None	None	None	None	1
3.0.1	2019_Mar_12_1657	s	s	12	3	SIC	153	ABS	0	0	2	2	24_2_2	NA	NA	0	1	0.64615893364	None	None	None	None	1
3.0.1	2019_Mar_12_1657	s	s	12	3	SIC	154	ABS	0	0	4	1	24_4_1	NA	NA	0	1	0.6461789608	None	None	None	None	1
3.0.1	2019_Mar_12_1657	s	s	12	3	SIC	155	ABS	0	0	4	4	24_4_4	NA	NA	0	1	0.839692831039	None	None	None	None	1
3.0.1	2019_Mar_12_1657	s	s	12	3	SIC	156	3_3	3	3	4	3	23_4_3	-1	0	1	0	0.579814910889	-123.0	-399.0	-128.0	-392.0	1
3.0.1	2019_Mar_12_1657	s	s	12	3	SIC	157	ABS	0	0	4	3	24_4_3	NA	NA	0	1	1.41557502747	None	None	None	None	1
3.0.1	2019_Mar_12_1657	s	s	12	3	SIC	158	4_2	4	2	4	4	23_4_4	0	2	1	0	0.914407014847	-57.0	113.0	-53.0	117.0	1
3.0.1	2019_Mar_12_1657	s	s	12	3	SIC	159	ABS	0	0	3	2	24_3_2	NA	NA	0	1	1.10969781876	None	None	None	None	1
3.0.1	2019_Mar_12_1657	s	s	12	3	SIC	160	ABS	0	0	3	1	24_3_1	NA	NA	0	1	0.834379911423	None	None	None	None	1
3.0.1	2019_Mar_12_1657	s	s	12	3	SIC	161	1_1	1	1	4	2	23_4_2	3	1	1	0	0.481994867325	-436.0	-283.0	-441.0	-288.0	1
3.0.1	2019_Mar_12_1657	s	s	12	3	SIC	162	ABS	0	0	2	3	24_2_3	NA	NA	0	1	2.11629915237	None	None	None	None	1
3.0.1	2019_Mar_12_1657	s	s	12	3	SIC	163	ABS	0	0	2	3	24_2_3	NA	NA	0	1	1.49592494965	None	None	None	None	1
3.0.1	2019_Mar_12_1657	s	s	12	3	SIC	164	ABS	0	0	1	2	24_1_2	NA	NA	0	1	4.03198695183	None	None	None	None	1
3.0.1	2019_Mar_12_1657	s	s	12	3	SIC	165	ABS	0	0	4	4	24_4_4	NA	NA	0	1	0.822623968124	None	None	None	None	1
3.0.1	2019_Mar_12_1657	s	s	12	3	SIC	166	ABS	0	0	4	2	24_4_2	NA	NA	0	1	1.78016591072	None	None	None	None	1
3.0.1	2019_Mar_12_1657	s	s	12	3	SIC	167	ABS	0	0	2	1	24_2_1	NA	NA	0	1	0.875504016876	None	None	None	None	1
3.0.1	2019_Mar_12_1657	s	s	12	3	SIC	168	1_4	1	4	4	4	23_4_4	3	0	1	0	0.457953929901	164.0	171.0	164.0	155.0	1
3.0.1	2019_Mar_12_1657	s	s	12	3	SIC	169	4_2	4	2	3	3	23_3_3	1	1	1	0	0.575517892838	395.0	209.0	400.0	204.0	1
3.0.1	2019_Mar_12_1657	s	s	12	3	SIC	170	3_1	3	1	2	1	23_2_1	1	0	1	0	0.716758012772	-392.0	-184.0	-387.0	-183.0	1
3.0.1	2019_Mar_12_1657	s	s	12	3	SIC	171	ABS	0	0	3	2	24_3_2	NA	NA	0	1	0.86269402504	None	None	None	None	1
3.0.1	2019_Mar_12_1657	s	s	12	3	SIC	172	2_2	2	2	2	1	23_2_1	0	-1	1	0	1.38562893867	344.0	-66.0	352.0	-68.0	1
3.0.1	2019_Mar_12_1657	s	s	12	3	SIC	173	4_1	4	1	1	3	23_1_3	3	2	1	0	0.422699928284	61.0	-309.0	61.0	-311.0	1
3.0.1	2019_Mar_12_1657	s	s	12	3	SIC	174	ABS	0	0	4	1	24_4_1	NA	NA	0	1	0.804932832718	None	None	None	None	1
3.0.1	2019_Mar_12_1657	s	s	12	3	SIC	175	4_1	4	1	4	2	23_4_2	0	1	0	1	1.32040691376	-144.0	80.0	None	None	0
3.0.1	2019_Mar_12_1657	s	s	12	3	SIC	176	ABS	0	0	2	2	24_2_2	NA	NA	0	1	0.698431968689	None	None	None	None	1
3.0.1	2019_Mar_12_1657	s	s	12	3	SIC	177	ABS	0	0	4	4	24_4_4	NA	NA	0	1	0.555344820023	None	None	None	None	1
3.0.1	2019_Mar_12_1657	s	s	12	3	SIC	178	ABS	0	0	1	1	24_1_1	NA	NA	0	1	0.68675494194	None	None	None	None	1
3.0.1	2019_Mar_12_1657	s	s	12	3	SIC	179	ABS	0	0	4	2	24_4_2	NA	NA	0	1	0.599153995514	None	None	None	None	1
3.0.1	2019_Mar_12_1657	s	s	12	3	SIC	180	ABS	0	0	1	1	24_1_1	NA	NA	0	1	0.554996013641	None	None	None	None	1
3.0.1	2019_Mar_12_1657	s	s	12	3	SIC	181	ABS	0	0	2	2	24_2_2	NA	NA	0	1	2.51621294022	None	None	None	None	1
3.0.1	2019_Mar_12_1657	s	s	12	3	SIC	182	ABS	0	0	2	4	24_2_4	NA	NA	0	1	0.610835075378	None	None	None	None	1
3.0.1	2019_Mar_12_1657	s	s	12	3	SIC	183	ABS	0	0	1	3	24_1_3	NA	NA	0	1	2.74583697319	None	None	None	None	1
3.0.1	2019_Mar_12_1657	s	s	12	3	SIC	184	4_4	4	4	1	1	23_1_1	3	3	1	0	0.56100320816	434.0	-54.0	443.0	-53.0	1
3.0.1	2019_Mar_12_1657	s	s	12	3	SIC	185	1_3	1	3	2	1	23_2_1	1	2	1	0	0.848932027817	203.0	211.0	214.0	214.0	1
3.0.1	2019_Mar_12_1657	s	s	12	3	SIC	186	ABS	0	0	1	4	24_1_4	NA	NA	0	1	1.28129386902	None	None	None	None	1
3.0.1	2019_Mar_12_1657	s	s	12	3	SIC	187	ABS	0	0	3	4	24_3_4	NA	NA	0	1	0.999006032944	None	None	None	None	1
3.0.1	2019_Mar_12_1657	s	s	12	3	SIC	188	4_1	4	1	3	3	23_3_3	1	2	1	0	0.481528043747	93.0	-135.0	96.0	-126.0	1
3.0.1	2019_Mar_12_1657	s	s	12	3	SIC	189	4_2	4	2	1	4	23_1_4	3	2	1	0	0.369051933289	93.0	29.0	88.0	37.0	1
3.0.1	2019_Mar_12_1657	s	s	12	3	SIC	190	4_3	4	3	1	3	23_1_3	3	0	1	0	0.410905838013	60.0	-349.0	52.0	-347.0	1
3.0.1	2019_Mar_12_1657	s	s	12	3	SIC	191	3_4	3	4	2	2	23_2_2	1	2	1	0	0.474611997604	94.0	230.0	104.0	240.0	1
3.0.1	2019_Mar_12_1657	s	s	12	3	SIC	192	ABS	0	0	2	2	24_2_2	NA	NA	0	1	1.04606294632	None	None	None	None	1
3.0.1	2019_Mar_12_1657	s	s	12	3	SIC	193	2_1	2	1	1	3	23_1_3	-1	2	0	1	0.920407056808	376.0	290.0	None	None	0
3.0.1	2019_Mar_12_1657	s	s	12	3	SIC	194	ABS	0	0	2	3	24_2_3	NA	NA	0	1	2.32268691063	None	None	None	None	1
3.0.1	2019_Mar_12_1657	s	s	12	3	SIC	195	2_4	2	4	3	3	23_3_3	1	1	1	0	1.32832694054	-416.0	378.0	-413.0	371.0	1
3.0.1	2019_Mar_12_1657	s	s	12	3	SIC	196	ABS	0	0	1	4	24_1_4	NA	NA	0	1	0.857918024063	None	None	None	None	1
3.0.1	2019_Mar_12_1657	s	s	12	3	SIC	197	ABS	0	0	2	1	24_2_1	NA	NA	0	1	0.757107973099	None	None	None	None	1
3.0.1	2019_Mar_12_1657	s	s	12	3	SIC	198	2_4	2	4	2	2	23_2_2	0	2	1	0	0.881402015686	-22.0	-128.0	-27.0	-133.0	1
3.0.1	2019_Mar_12_1657	s	s	12	3	SIC	199	1_3	1	3	3	3	23_3_3	2	0	0	1	0.484444856644	451.0	21.0	None	None	0
3.0.1	2019_Mar_12_1657	s	s	12	3	SIC	200	4_3	4	3	3	4	23_3_4	1	-1	1	0	0.414994001389	-130.0	197.0	-122.0	199.0	1
3.0.1	2019_Mar_12_1657	s	s	12	3	SIC	201	2_3	2	3	2	1	23_2_1	0	2	1	0	1.76346707344	-480.0	208.0	-479.0	202.0	1
3.0.1	2019_Mar_12_1657	s	s	12	3	SIC	202	ABS	0	0	4	3	24_4_3	NA	NA	0	1	2.01039195061	None	None	None	None	1
3.0.1	2019_Mar_12_1657	s	s	12	3	SIC	203	4_3	4	3	4	4	23_4_4	0	-1	1	0	0.697510004044	48.0	340.0	48.0	335.0	1
3.0.1	2019_Mar_12_1657	s	s	12	3	SIC	204	ABS	0	0	4	4	24_4_4	NA	NA	0	1	1.31947612762	None	None	None	None	1
3.0.1	2019_Mar_12_1657	s	s	12	3	SIC	205	1_4	1	4	1	1	23_1_1	0	3	1	0	0.604396104813	535.0	182.0	533.0	180.0	1
3.0.1	2019_Mar_12_1657	s	s	12	3	SIC	206	ABS	0	0	3	4	24_3_4	NA	NA	0	1	0.951927185059	None	None	None	None	1
3.0.1	2019_Mar_12_1657	s	s	12	3	SIC	207	ABS	0	0	1	2	24_1_2	NA	NA	0	1	2.83842301369	None	None	None	None	1
3.0.1	2019_Mar_12_1657	s	s	12	3	SIC	208	4_2	4	2	2	2	23_2_2	2	0	1	0	0.496182918549	-389.0	318.0	-392.0	313.0	1
3.0.1	2019_Mar_12_1657	s	s	12	3	SIC	209	ABS	0	0	1	1	24_1_1	NA	NA	0	1	1.37829017639	None	None	None	None	1
3.0.1	2019_Mar_12_1657	s	s	12	3	SIC	210	ABS	0	0	1	1	24_1_1	NA	NA	0	1	1.37032699585	None	None	None	None	1
3.0.1	2019_Mar_12_1657	s	s	12	3	SIC	211	ABS	0	0	4	1	24_4_1	NA	NA	0	1	1.42244100571	None	None	None	None	1
3.0.1	2019_Mar_12_1657	s	s	12	3	SIC	212	ABS	0	0	3	1	24_3_1	NA	NA	0	1	0.763771057129	None	None	None	None	1
3.0.1	2019_Mar_12_1657	s	s	12	3	SIC	213	ABS	0	0	1	3	24_1_3	NA	NA	0	1	1.76815295219	None	None	None	None	1
3.0.1	2019_Mar_12_1657	s	s	12	3	SIC	214	4_4	4	4	3	1	23_3_1	1	3	1	0	0.487287044525	414.0	-81.0	418.0	-80.0	1
3.0.1	2019_Mar_12_1657	s	s	12	3	SIC	215	ABS	0	0	2	1	24_2_1	NA	NA	0	1	1.03434300423	None	None	None	None	1
3.0.1	2019_Mar_12_1657	s	s	12	3	SIC	216	4_1	4	1	4	3	23_4_3	0	2	1	0	2.29273104668	151.0	-325.0	158.0	-325.0	1
3.0.1	2019_Mar_12_1657	s	s	12	3	SIC	217	ABS	0	0	3	3	24_3_3	NA	NA	0	1	3.39830708504	None	None	None	None	1
3.0.1	2019_Mar_12_1657	s	s	12	3	SIC	218	ABS	0	0	4	2	24_4_2	NA	NA	0	1	2.744754076	None	None	None	None	1
3.0.1	2019_Mar_12_1657	s	s	12	3	SIC	219	2_4	2	4	2	3	23_2_3	0	1	1	0	0.698379993439	205.0	151.0	197.0	152.0	1
3.0.1	2019_Mar_12_1657	s	s	12	3	SIC	220	ABS	0	0	2	4	24_2_4	NA	NA	0	1	3.1278989315	None	None	None	None	1
3.0.1	2019_Mar_12_1657	s	s	12	3	SIC	221	ABS	0	0	1	4	24_1_4	NA	NA	0	1	0.763823986053	None	None	None	None	1
3.0.1	2019_Mar_12_1657	s	s	12	3	SIC	222	ABS	0	0	1	1	24_1_1	NA	NA	0	1	1.56028199196	None	None	None	None	1
3.0.1	2019_Mar_12_1657	s	s	12	3	SIC	223	ABS	0	0	1	3	24_1_3	NA	NA	0	1	2.23877096176	None	None	None	None	1
3.0.1	2019_Mar_12_1657	s	s	12	3	SIC	224	ABS	0	0	3	3	24_3_3	NA	NA	0	1	2.12082791328	None	None	None	None	1
3.0.1	2019_Mar_12_1657	s	s	12	3	SIC	225	ABS	0	0	2	3	24_2_3	NA	NA	0	1	1.07443284988	None	None	None	None	1
3.0.1	2019_Mar_12_1657	s	s	12	3	SIC	226	1_3	1	3	4	2	23_4_2	3	1	1	0	0.473592996597	28.0	326.0	29.0	336.0	1
3.0.1	2019_Mar_12_1657	s	s	12	3	SIC	227	4_2	4	2	1	3	23_1_3	3	1	1	0	0.422793149948	-146.0	-369.0	-141.0	-372.0	1
3.0.1	2019_Mar_12_1657	s	s	12	3	SIC	228	ABS	0	0	3	3	24_3_3	NA	NA	0	1	1.52826499939	None	None	None	None	1
3.0.1	2019_Mar_12_1657	s	s	12	3	SIC	229	ABS	0	0	3	1	24_3_1	NA	NA	0	1	0.575583934784	None	None	None	None	1
3.0.1	2019_Mar_12_1657	s	s	12	3	SIC	230	ABS	0	0	3	1	24_3_1	NA	NA	0	1	0.81081700325	None	None	None	None	1
3.0.1	2019_Mar_12_1657	s	s	12	3	SIC	231	1_1	1	1	2	2	23_2_2	1	1	1	0	1.57572197914	313.0	-220.0	326.0	-217.0	1
3.0.1	2019_Mar_12_1657	s	s	12	3	SIC	232	ABS	0	0	2	3	24_2_3	NA	NA	0	1	3.57463502884	None	None	None	None	1
3.0.1	2019_Mar_12_1657	s	s	12	3	SIC	233	ABS	0	0	1	1	24_1_1	NA	NA	0	1	0.58734703064	None	None	None	None	1
3.0.1	2019_Mar_12_1657	s	s	12	3	SIC	234	ABS	0	0	2	4	24_2_4	NA	NA	0	1	1.74506521225	None	None	None	None	1
3.0.1	2019_Mar_12_1657	s	s	12	3	SIC	235	ABS	0	0	3	1	24_3_1	NA	NA	0	1	1.00391888618	None	None	None	None	1
3.0.1	2019_Mar_12_1657	s	s	12	3	SIC	236	1_1	1	1	1	2	23_1_2	0	1	1	0	1.73445701599	221.0	314.0	229.0	324.0	1
3.0.1	2019_Mar_12_1657	s	s	12	3	SIC	237	2_2	2	2	3	4	23_3_4	1	2	1	0	0.76390004158	-99.0	270.0	-103.0	266.0	1
3.0.1	2019_Mar_12_1657	s	s	12	3	SIC	238	ABS	0	0	3	2	24_3_2	NA	NA	0	1	1.94017386436	None	None	None	None	1
3.0.1	2019_Mar_12_1657	s	s	12	3	SIC	239	ABS	0	0	2	3	24_2_3	NA	NA	0	1	2.61321401596	None	None	None	None	1
3.0.1	2019_Mar_12_1657	s	s	12	3	SIC	240	2_2	2	2	2	3	23_2_3	0	1	0	1	2.2221288681	450.0	-326.0	None	None	0
3.0.1	2019_Mar_12_1657	s	s	12	3	SIC	241	2_1	2	1	3	1	23_3_1	1	0	1	0	0.693654060364	442.0	-60.0	438.0	-73.0	1
3.0.1	2019_Mar_12_1657	s	s	12	3	SIC	242	2_2	2	2	4	1	23_4_1	2	-1	1	0	0.427835941315	-540.0	-354.0	-537.0	-357.0	1
3.0.1	2019_Mar_12_1657	s	s	12	3	SIC	243	ABS	0	0	1	2	24_1_2	NA	NA	0	1	0.846135854721	None	None	None	None	1
3.0.1	2019_Mar_12_1657	s	s	12	3	SIC	244	ABS	0	0	4	4	24_4_4	NA	NA	0	1	2.28602910042	None	None	None	None	1
3.0.1	2019_Mar_12_1657	s	s	12	3	SIC	245	ABS	0	0	4	4	24_4_4	NA	NA	0	1	0.56932592392	None	None	None	None	1
3.0.1	2019_Mar_12_1657	s	s	12	3	SIC	246	ABS	0	0	4	4	24_4_4	NA	NA	0	1	0.604269981384	None	None	None	None	1
3.0.1	2019_Mar_12_1657	s	s	12	3	SIC	247	ABS	0	0	3	1	24_3_1	NA	NA	0	1	0.569587945938	None	None	None	None	1
3.0.1	2019_Mar_12_1657	s	s	12	3	SIC	248	4_1	4	1	1	1	23_1_1	3	0	1	0	0.437376022339	-301.0	-110.0	-288.0	-106.0	1
3.0.1	2019_Mar_12_1657	s	s	12	3	SIC	249	ABS	0	0	4	3	24_4_3	NA	NA	0	1	1.44375300407	None	None	None	None	1
3.0.1	2019_Mar_12_1657	s	s	12	3	SIC	250	ABS	0	0	4	4	24_4_4	NA	NA	0	1	0.52187204361	None	None	None	None	1
3.0.1	2019_Mar_12_1657	s	s	12	3	SIC	251	ABS	0	0	4	2	24_4_2	NA	NA	0	1	0.613823890686	None	None	None	None	1
3.0.1	2019_Mar_12_1657	s	s	12	3	SIC	252	ABS	0	0	3	2	24_3_2	NA	NA	0	1	0.61478304863	None	None	None	None	1
3.0.1	2019_Mar_12_1657	s	s	12	3	SIC	253	ABS	0	0	1	1	24_1_1	NA	NA	0	1	0.672596931458	None	None	None	None	1
3.0.1	2019_Mar_12_1657	s	s	12	3	SIC	254	4_4	4	4	2	4	23_2_4	2	0	1	0	0.452275037766	-118.0	-136.0	-109.0	-130.0	1
3.0.1	2019_Mar_12_1657	s	s	12	3	SIC	255	3_1	3	1	1	1	23_1_1	2	0	1	0	0.481603860855	-241.0	52.0	-239.0	45.0	1
3.0.1	2019_Mar_12_1657	s	s	12	3	SIC	256	2_4	2	4	3	1	23_3_1	1	3	1	0	0.556993961334	-452.0	-246.0	-456.0	-243.0	1
3.0.1	2019_Mar_12_1657	s	s	12	3	SIC	257	1_4	1	4	3	1	23_3_1	2	3	1	0	0.599164962769	279.0	-154.0	281.0	-158.0	1
3.0.1	2019_Mar_12_1657	s	s	12	3	SIC	258	4_3	4	3	1	4	23_1_4	3	-1	1	0	0.378575086594	-38.0	-138.0	-34.0	-138.0	1
3.0.1	2019_Mar_12_1657	s	s	12	3	SIC	259	ABS	0	0	1	4	24_1_4	NA	NA	0	1	0.613739967346	None	None	None	None	1
3.0.1	2019_Mar_12_1657	s	s	12	3	SIC	260	4_4	4	4	2	1	23_2_1	2	3	1	0	0.403625011444	-406.0	-4.0	-398.0	-2.0	1
3.0.1	2019_Mar_12_1657	s	s	12	3	SIC	261	2_2	2	2	1	1	23_1_1	-1	-1	1	0	1.08416390419	428.0	-225.0	421.0	-232.0	1
3.0.1	2019_Mar_12_1657	s	s	12	3	SIC	262	ABS	0	0	2	3	24_2_3	NA	NA	0	1	1.8870511055	None	None	None	None	1
3.0.1	2019_Mar_12_1657	s	s	12	3	SIC	263	2_2	2	2	1	4	23_1_4	-1	2	1	0	0.540303945541	200.0	236.0	214.0	243.0	1
3.0.1	2019_Mar_12_1657	s	s	12	3	SIC	264	ABS	0	0	1	2	24_1_2	NA	NA	0	1	2.19201397896	None	None	None	None	1
3.0.1	2019_Mar_12_1657	s	s	12	3	SIC	265	4_4	4	4	3	3	23_3_3	1	1	1	0	0.398630857468	335.0	55.0	321.0	60.0	1
3.0.1	2019_Mar_12_1657	s	s	12	3	SIC	266	ABS	0	0	2	4	24_2_4	NA	NA	0	1	1.0399389267	None	None	None	None	1
3.0.1	2019_Mar_12_1657	s	s	12	3	SIC	267	2_3	2	3	2	2	23_2_2	0	1	0	1	0.863296031952	469.0	81.0	None	None	0
3.0.1	2019_Mar_12_1657	s	s	12	3	SIC	268	2_3	2	3	1	1	23_1_1	-1	2	1	0	1.17540192604	-137.0	126.0	-127.0	130.0	1
3.0.1	2019_Mar_12_1657	s	s	12	3	SIC	269	ABS	0	0	2	1	24_2_1	NA	NA	0	1	1.10765504837	None	None	None	None	1
3.0.1	2019_Mar_12_1657	s	s	12	3	SIC	270	2_4	2	4	4	1	23_4_1	2	3	1	0	0.402049064636	-281.0	-105.0	-270.0	-104.0	1
3.0.1	2019_Mar_12_1657	s	s	12	3	SIC	271	4_1	4	1	1	4	23_1_4	3	3	1	0	0.334351062775	-428.0	-81.0	-436.0	-86.0	1
3.0.1	2019_Mar_12_1657	s	s	12	3	SIC	272	ABS	0	0	4	1	24_4_1	NA	NA	0	1	0.637391090393	None	None	None	None	1
3.0.1	2019_Mar_12_1657	s	s	12	3	SIC	273	ABS	0	0	1	2	24_1_2	NA	NA	0	1	3.80386590958	None	None	None	None	1
3.0.1	2019_Mar_12_1657	s	s	12	3	SIC	274	4_2	4	2	3	4	23_3_4	1	2	1	0	0.533723115921	-408.0	-105.0	-402.0	-107.0	1
3.0.1	2019_Mar_12_1657	s	s	12	3	SIC	275	ABS	0	0	1	3	24_1_3	NA	NA	0	1	1.47446584702	None	None	None	None	1
3.0.1	2019_Mar_12_1657	s	s	12	3	SIC	276	ABS	0	0	4	3	24_4_3	NA	NA	0	1	1.01701307297	None	None	None	None	1
3.0.1	2019_Mar_12_1657	s	s	12	3	SIC	277	1_1	1	1	2	3	23_2_3	1	2	1	0	1.54003787041	-320.0	-374.0	-315.0	-376.0	1
3.0.1	2019_Mar_12_1657	s	s	12	3	SIC	278	ABS	0	0	3	4	24_3_4	NA	NA	0	1	0.763731002808	None	None	None	None	1
3.0.1	2019_Mar_12_1657	s	s	12	3	SIC	279	ABS	0	0	4	2	24_4_2	NA	NA	0	1	2.54015183449	None	None	None	None	1
3.0.1	2019_Mar_12_1657	s	s	12	3	SIC	280	1_2	1	2	1	1	23_1_1	0	-1	0	1	2.17515802383	-394.0	-220.0	None	None	0
3.0.1	2019_Mar_12_1657	s	s	12	3	SIC	281	3_2	3	2	1	3	23_1_3	2	1	1	0	0.562230825424	-446.0	119.0	-441.0	121.0	1
3.0.1	2019_Mar_12_1657	s	s	12	3	SIC	282	ABS	0	0	4	2	24_4_2	NA	NA	0	1	1.26574802399	None	None	None	None	1
3.0.1	2019_Mar_12_1657	s	s	12	3	SIC	283	1_4	1	4	1	3	23_1_3	0	1	1	0	0.64049911499	-470.0	76.0	-479.0	72.0	1
3.0.1	2019_Mar_12_1657	s	s	12	3	SIC	284	3_1	3	1	1	3	23_1_3	2	2	1	0	0.415220022202	-374.0	119.0	-359.0	126.0	1
3.0.1	2019_Mar_12_1657	s	s	12	3	SIC	285	ABS	0	0	3	3	24_3_3	NA	NA	0	1	8.45556497574	None	None	None	None	1
3.0.1	2019_Mar_12_1657	s	s	12	3	SIC	286	ABS	0	0	3	2	24_3_2	NA	NA	0	1	1.39890599251	None	None	None	None	1
3.0.1	2019_Mar_12_1657	s	s	12	3	SIC	287	1_3	1	3	3	2	23_3_2	2	1	1	0	0.545897006989	-538.0	-213.0	-535.0	-210.0	1
3.0.1	2019_Mar_12_1657	s	s	12	3	SIC	288	ABS	0	0	4	3	24_4_3	NA	NA	0	1	2.13350510597	None	None	None	None	1
3.0.1	2019_Mar_12_1657	s	s	12	3	SIC	289	ABS	0	0	3	1	24_3_1	NA	NA	0	1	1.4958717823	None	None	None	None	1
3.0.1	2019_Mar_12_1657	s	s	12	3	SIC	290	ABS	0	0	3	1	24_3_1	NA	NA	0	1	1.25267791748	None	None	None	None	1
3.0.1	2019_Mar_12_1657	s	s	12	3	SIC	291	ABS	0	0	1	3	24_1_3	NA	NA	0	1	1.8274679184	None	None	None	None	1
3.0.1	2019_Mar_12_1657	s	s	12	3	SIC	292	ABS	0	0	1	1	24_1_1	NA	NA	0	1	1.32149600983	None	None	None	None	1
3.0.1	2019_Mar_12_1657	s	s	12	3	SIC	293	4_4	4	4	1	3	23_1_3	3	1	1	0	0.451581001282	-483.0	-106.0	-492.0	-99.0	1
3.0.1	2019_Mar_12_1657	s	s	12	3	SIC	294	ABS	0	0	2	4	24_2_4	NA	NA	0	1	0.658010959625	None	None	None	None	1
3.0.1	2019_Mar_12_1657	s	s	12	3	SIC	295	2_4	2	4	3	4	23_3_4	1	0	1	0	1.35187005997	280.0	-392.0	337.0	-219.0	0
3.0.1	2019_Mar_12_1657	s	s	12	3	SIC	296	2_1	2	1	4	1	23_4_1	2	0	1	0	0.42765212059	167.0	-13.0	177.0	-15.0	1
3.0.1	2019_Mar_12_1657	s	s	12	3	SIC	297	4_1	4	1	1	2	23_1_2	3	1	1	0	0.410902023315	-154.0	-168.0	-154.0	-174.0	1
3.0.1	2019_Mar_12_1657	s	s	12	3	SIC	298	ABS	0	0	3	2	24_3_2	NA	NA	0	1	4.14208102226	None	None	None	None	1
3.0.1	2019_Mar_12_1657	s	s	12	3	SIC	299	ABS	0	0	4	1	24_4_1	NA	NA	0	1	7.76641702652	None	None	None	None	1
3.0.1	2019_Mar_12_1657	s	s	12	3	SIC	300	ABS	0	0	1	2	24_1_2	NA	NA	0	1	6.5620341301	None	None	None	None	1
3.0.1	2019_Mar_12_1657	s	s	12	3	SIC	301	ABS	0	0	1	3	24_1_3	NA	NA	0	1	2.95140004158	None	None	None	None	1
3.0.1	2019_Mar_12_1657	s	s	12	3	SIC	302	4_1	4	1	3	2	23_3_2	1	1	1	0	0.511018037796	482.0	106.0	478.0	107.0	1
3.0.1	2019_Mar_12_1657	s	s	12	3	SIC	303	1_4	1	4	2	4	23_2_4	1	0	0	1	3.74114990234	64.0	-397.0	None	None	0
3.0.1	2019_Mar_12_1657	s	s	12	3	SIC	304	ABS	0	0	3	2	24_3_2	NA	NA	0	1	3.40932703018	None	None	None	None	1
3.0.1	2019_Mar_12_1657	s	s	12	3	SIC	305	ABS	0	0	2	2	24_2_2	NA	NA	0	1	3.52768802643	None	None	None	None	1
3.0.1	2019_Mar_12_1657	s	s	12	3	SIC	306	ABS	0	0	3	4	24_3_4	NA	NA	0	1	2.01581096649	None	None	None	None	1
3.0.1	2019_Mar_12_1657	s	s	12	3	SIC	307	1_1	1	1	3	3	23_3_3	2	2	1	0	0.52140879631	-252.0	64.0	-258.0	70.0	1
3.0.1	2019_Mar_12_1657	s	s	12	3	SIC	308	ABS	0	0	4	1	24_4_1	NA	NA	0	1	0.646161794662	None	None	None	None	1
3.0.1	2019_Mar_12_1657	s	s	12	3	SIC	309	ABS	0	0	1	3	24_1_3	NA	NA	0	1	2.67867302895	None	None	None	None	1
3.0.1	2019_Mar_12_1657	s	s	12	3	SIC	310	1_1	1	1	4	4	23_4_4	3	3	1	0	0.540394067764	-16.0	175.0	-21.0	177.0	1
3.0.1	2019_Mar_12_1657	s	s	12	3	SIC	311	2_2	2	2	1	3	23_1_3	-1	1	1	0	1.5988368988	-103.0	219.0	-106.0	212.0	1
3.0.1	2019_Mar_12_1657	s	s	12	3	SIC	312	3_2	3	2	3	1	23_3_1	0	-1	0	1	0.775557994843	-226.0	171.0	None	None	0
3.0.1	2019_Mar_12_1657	s	s	12	3	SIC	313	ABS	0	0	3	4	24_3_4	NA	NA	0	1	1.31704592705	None	None	None	None	1
3.0.1	2019_Mar_12_1657	s	s	12	3	SIC	314	1_2	1	2	4	4	23_4_4	3	2	1	0	0.469720125198	290.0	-8.0	297.0	-2.0	1
3.0.1	2019_Mar_12_1657	s	s	12	3	SIC	315	ABS	0	0	2	1	24_2_1	NA	NA	0	1	2.33219504356	None	None	None	None	1
3.0.1	2019_Mar_12_1657	s	s	12	3	SIC	316	ABS	0	0	3	3	24_3_3	NA	NA	0	1	1.49585390091	None	None	None	None	1
3.0.1	2019_Mar_12_1657	s	s	12	3	SIC	317	3_1	3	1	4	2	23_4_2	-1	1	1	0	0.446285963058	-354.0	-288.0	-362.0	-283.0	1
3.0.1	2019_Mar_12_1657	s	s	12	3	SIC	318	ABS	0	0	3	3	24_3_3	NA	NA	0	1	3.23881196976	None	None	None	None	1
3.0.1	2019_Mar_12_1657	s	s	12	3	SIC	319	ABS	0	0	2	3	24_2_3	NA	NA	0	1	4.93896389008	None	None	None	None	1
3.0.1	2019_Mar_12_1657	s	s	12	3	SIC	320	2_1	2	1	4	2	23_4_2	2	1	1	0	0.458016872406	-447.0	190.0	-442.0	182.0	1
3.0.1	2019_Mar_12_1657	s	s	12	3	SIC	321	1_2	1	2	1	4	23_1_4	0	2	1	0	0.604073047638	285.0	206.0	297.0	207.0	1
3.0.1	2019_Mar_12_1657	s	s	12	3	SIC	322	1_4	1	4	2	2	23_2_2	1	2	1	0	1.38712120056	239.0	-188.0	252.0	-185.0	1
3.0.1	2019_Mar_12_1657	s	s	12	3	SIC	323	ABS	0	0	4	2	24_4_2	NA	NA	0	1	5.2852768898	None	None	None	None	1
3.0.1	2019_Mar_12_1657	s	s	12	3	SIC	324	4_2	4	2	2	4	23_2_4	2	2	1	0	0.410921096802	154.0	350.0	155.0	352.0	1
3.0.1	2019_Mar_12_1657	s	s	12	3	SIC	325	ABS	0	0	2	2	24_2_2	NA	NA	0	1	3.93931317329	None	None	None	None	1
3.0.1	2019_Mar_12_1657	s	s	12	3	SIC	326	1_1	1	1	1	3	23_1_3	0	2	1	0	1.07553005219	73.0	-404.0	81.0	-410.0	1
3.0.1	2019_Mar_12_1657	s	s	12	3	SIC	327	ABS	0	0	3	2	24_3_2	NA	NA	0	1	5.48008704185	None	None	None	None	1
3.0.1	2019_Mar_12_1657	s	s	12	3	SIC	328	1_3	1	3	4	1	23_4_1	3	2	1	0	0.46976184845	279.0	-326.0	294.0	-316.0	1
3.0.1	2019_Mar_12_1657	s	s	12	3	SIC	329	ABS	0	0	4	4	24_4_4	NA	NA	0	1	0.795852899551	None	None	None	None	1
3.0.1	2019_Mar_12_1657	s	s	12	3	SIC	330	ABS	0	0	3	3	24_3_3	NA	NA	0	1	0.987231969833	None	None	None	None	1
3.0.1	2019_Mar_12_1657	s	s	12	3	SIC	331	2_2	2	2	2	4	23_2_4	0	2	1	0	0.575594902039	-492.0	-32.0	-484.0	-22.0	1
3.0.1	2019_Mar_12_1657	s	s	12	3	SIC	332	1_4	1	4	3	2	23_3_2	2	2	1	0	0.428023099899	-71.0	243.0	-71.0	242.0	1
3.0.1	2019_Mar_12_1657	s	s	12	3	SIC	333	ABS	0	0	4	4	24_4_4	NA	NA	0	1	0.916648864746	None	None	None	None	1
3.0.1	2019_Mar_12_1657	s	s	12	3	SIC	334	ABS	0	0	3	4	24_3_4	NA	NA	0	1	0.903209209442	None	None	None	None	1
3.0.1	2019_Mar_12_1657	s	s	12	3	SIC	335	2_1	2	1	1	4	23_1_4	-1	3	1	0	0.457952022552	-65.0	-37.0	-63.0	-39.0	1
3.0.1	2019_Mar_12_1657	s	s	12	3	SIC	336	3_2	3	2	2	3	23_2_3	1	1	1	0	0.469743013382	190.0	27.0	201.0	33.0	1
3.0.1	2019_Mar_12_1657	s	s	12	3	SIC	337	2_1	2	1	4	4	23_4_4	2	3	1	0	0.422700881958	-412.0	-154.0	-408.0	-156.0	1
3.0.1	2019_Mar_12_1657	s	s	12	3	SIC	338	ABS	0	0	3	4	24_3_4	NA	NA	0	1	0.975969076157	None	None	None	None	1
3.0.1	2019_Mar_12_1657	s	s	12	3	SIC	339	3_1	3	1	2	3	23_2_3	1	2	1	0	0.725699901581	495.0	-300.0	504.0	-296.0	1
3.0.1	2019_Mar_12_1657	s	s	12	3	SIC	340	ABS	0	0	1	4	24_1_4	NA	NA	0	1	1.25077700615	None	None	None	None	1
3.0.1	2019_Mar_12_1657	s	s	12	3	SIC	341	4_3	4	3	3	3	23_3_3	1	0	1	0	0.410825967789	59.0	145.0	63.0	151.0	1
3.0.1	2019_Mar_12_1657	s	s	12	3	SIC	342	ABS	0	0	3	4	24_3_4	NA	NA	0	1	0.966651916504	None	None	None	None	1
3.0.1	2019_Mar_12_1657	s	s	12	3	SIC	343	4_2	4	2	4	3	23_4_3	0	1	1	0	0.628367185593	-333.0	130.0	-334.0	138.0	1
3.0.1	2019_Mar_12_1657	s	s	12	3	SIC	344	2_2	2	2	1	2	23_1_2	-1	0	0	1	1.79188513756	-481.0	349.0	None	None	0
3.0.1	2019_Mar_12_1657	s	s	12	3	SIC	345	2_3	2	3	4	4	23_4_4	2	-1	1	0	0.469907045364	176.0	-279.0	176.0	-277.0	1
3.0.1	2019_Mar_12_1657	s	s	12	3	SIC	346	3_2	3	2	2	2	23_2_2	1	0	1	0	0.485976934433	-498.0	-180.0	-490.0	-177.0	1
3.0.1	2019_Mar_12_1657	s	s	12	3	SIC	347	ABS	0	0	1	2	24_1_2	NA	NA	0	1	2.09040117264	None	None	None	None	1
3.0.1	2019_Mar_12_1657	s	s	12	3	SIC	348	ABS	0	0	4	3	24_4_3	NA	NA	0	1	2.36838388443	None	None	None	None	1
3.0.1	2019_Mar_12_1657	s	s	12	3	SIC	349	4_3	4	3	2	4	23_2_4	2	-1	1	0	0.437408924103	449.0	110.0	454.0	109.0	1
3.0.1	2019_Mar_12_1657	s	s	12	3	SIC	350	1_2	1	2	2	4	23_2_4	1	2	1	0	1.1636531353	-288.0	116.0	-289.0	120.0	1
3.0.1	2019_Mar_12_1657	s	s	12	3	SIC	351	ABS	0	0	2	3	24_2_3	NA	NA	0	1	2.04602003098	None	None	None	None	1
3.0.1	2019_Mar_12_1657	s	s	12	3	SIC	352	ABS	0	0	3	1	24_3_1	NA	NA	0	1	1.80530190468	None	None	None	None	1
3.0.1	2019_Mar_12_1657	s	s	12	3	SIC	353	ABS	0	0	3	3	24_3_3	NA	NA	0	1	0.869668006897	None	None	None	None	1
3.0.1	2019_Mar_12_1657	s	s	12	3	SIC	354	4_1	4	1	2	2	23_2_2	2	1	1	0	0.462551116943	-127.0	-349.0	-131.0	-352.0	1
3.0.1	2019_Mar_12_1657	s	s	12	3	SIC	355	3_4	3	4	4	1	23_4_1	-1	3	1	0	0.485152959824	-403.0	-204.0	-419.0	-196.0	1
3.0.1	2019_Mar_12_1657	s	s	12	3	SIC	356	ABS	0	0	4	3	24_4_3	NA	NA	0	1	1.46950697899	None	None	None	None	1
3.0.1	2019_Mar_12_1657	s	s	12	3	SIC	357	4_3	4	3	1	2	23_1_2	3	1	1	0	0.415605068207	259.0	-91.0	258.0	-92.0	1
3.0.1	2019_Mar_12_1657	s	s	12	3	SIC	358	ABS	0	0	1	4	24_1_4	NA	NA	0	1	1.14011001587	None	None	None	None	1
3.0.1	2019_Mar_12_1657	s	s	12	3	SIC	359	1_2	1	2	1	3	23_1_3	0	1	0	1	1.73120594025	502.0	-28.0	None	None	0
3.0.1	2019_Mar_12_1657	s	s	12	3	SIC	360	3_2	3	2	4	1	23_4_1	-1	-1	1	0	0.442817926407	491.0	-202.0	483.0	-204.0	1
3.0.1	2019_Mar_12_1657	s	s	12	3	SIC	361	ABS	0	0	2	2	24_2_2	NA	NA	0	1	1.81555199623	None	None	None	None	1
3.0.1	2019_Mar_12_1657	s	s	12	3	SIC	362	ABS	0	0	4	1	24_4_1	NA	NA	0	1	0.563920974731	None	None	None	None	1
3.0.1	2019_Mar_12_1657	s	s	12	3	SIC	363	1_3	1	3	4	3	23_4_3	3	0	1	0	0.422704935074	-222.0	-101.0	-229.0	-99.0	1
3.0.1	2019_Mar_12_1657	s	s	12	3	SIC	364	1_3	1	3	3	1	23_3_1	2	2	1	0	0.437345981598	-268.0	168.0	-279.0	168.0	1
3.0.1	2019_Mar_12_1657	s	s	12	3	SIC	365	ABS	0	0	2	2	24_2_2	NA	NA	0	1	2.31632900238	None	None	None	None	1
3.0.1	2019_Mar_12_1657	s	s	12	3	SIC	366	2_1	2	1	2	3	23_2_3	0	2	1	0	1.59186792374	-462.0	15.0	-464.0	15.0	1
3.0.1	2019_Mar_12_1657	s	s	12	3	SIC	367	ABS	0	0	2	4	24_2_4	NA	NA	0	1	0.810856819153	None	None	None	None	1
3.0.1	2019_Mar_12_1657	s	s	12	3	SIC	368	3_3	3	3	4	1	23_4_1	-1	2	1	0	0.437430858612	291.0	-306.0	291.0	-301.0	1
3.0.1	2019_Mar_12_1657	s	s	12	3	SIC	369	ABS	0	0	1	1	24_1_1	NA	NA	0	1	2.05748605728	None	None	None	None	1
3.0.1	2019_Mar_12_1657	s	s	12	3	SIC	370	ABS	0	0	2	4	24_2_4	NA	NA	0	1	0.945328950882	None	None	None	None	1
3.0.1	2019_Mar_12_1657	s	s	12	3	SIC	371	4_2	4	2	1	2	23_1_2	3	0	1	0	0.443482160568	-245.0	-260.0	-245.0	-263.0	1
3.0.1	2019_Mar_12_1657	s	s	12	3	SIC	372	3_2	3	2	3	4	23_3_4	0	2	1	0	0.613764047623	-358.0	383.0	-358.0	391.0	1
3.0.1	2019_Mar_12_1657	s	s	12	3	SIC	373	3_4	3	4	1	3	23_1_3	2	1	1	0	1.36362409592	56.0	405.0	54.0	397.0	1
3.0.1	2019_Mar_12_1657	s	s	12	3	SIC	374	ABS	0	0	2	2	24_2_2	NA	NA	0	1	2.49309802055	None	None	None	None	1
3.0.1	2019_Mar_12_1657	s	s	12	3	SIC	375	4_3	4	3	3	2	23_3_2	1	1	1	0	0.434511899948	-359.0	84.0	-353.0	77.0	1
3.0.1	2019_Mar_12_1657	s	s	12	3	SIC	376	ABS	0	0	4	2	24_4_2	NA	NA	0	1	2.92784309387	None	None	None	None	1
3.0.1	2019_Mar_12_1657	s	s	12	3	SIC	377	ABS	0	0	4	2	24_4_2	NA	NA	0	1	2.33981204033	None	None	None	None	1
3.0.1	2019_Mar_12_1657	s	s	12	3	SIC	378	ABS	0	0	4	3	24_4_3	NA	NA	0	1	3.71596598625	None	None	None	None	1
3.0.1	2019_Mar_12_1657	s	s	12	3	SIC	379	2_1	2	1	3	3	23_3_3	1	2	1	0	0.628022909164	-383.0	-54.0	-376.0	-58.0	1
3.0.1	2019_Mar_12_1657	s	s	12	3	SIC	380	ABS	0	0	4	3	24_4_3	NA	NA	0	1	2.67297196388	None	None	None	None	1
3.0.1	2019_Mar_12_1657	s	s	12	3	SIC	381	2_3	2	3	4	2	23_4_2	2	1	1	0	0.496412992477	524.0	-224.0	533.0	-219.0	1
3.0.1	2019_Mar_12_1657	s	s	12	3	SIC	382	ABS	0	0	4	2	24_4_2	NA	NA	0	1	2.33972597122	None	None	None	None	1
3.0.1	2019_Mar_12_1657	s	s	12	3	SIC	383	ABS	0	0	3	1	24_3_1	NA	NA	0	1	0.587321996689	None	None	None	None	1
3.0.1	2019_Mar_12_1657	s	s	12	3	SIC	384	1_2	1	2	3	2	23_3_2	2	0	1	0	0.481588840485	99.0	248.0	103.0	249.0	1
3.0.1	2019_Mar_12_1657	s	s	12	3	SIC	385	3_1	3	1	4	4	23_4_4	-1	3	1	0	0.410913944244	498.0	108.0	505.0	107.0	1
3.0.1	2019_Mar_12_1657	s	s	12	3	SIC	386	ABS	0	0	3	3	24_3_3	NA	NA	0	1	1.0976421833	None	None	None	None	1
3.0.1	2019_Mar_12_1657	s	s	12	3	SIC	387	1_4	1	4	2	3	23_2_3	1	1	1	0	0.921595096588	-53.0	-373.0	-51.0	-377.0	1
3.0.1	2019_Mar_12_1657	s	s	12	3	SIC	388	ABS	0	0	3	4	24_3_4	NA	NA	0	1	1.0107820034	None	None	None	None	1
3.0.1	2019_Mar_12_1657	s	s	12	3	SIC	389	3_4	3	4	4	2	23_4_2	-1	2	1	0	0.620131969452	339.0	-298.0	338.0	-295.0	1
3.0.1	2019_Mar_12_1657	s	s	12	3	SIC	390	ABS	0	0	3	2	24_3_2	NA	NA	0	1	1.53299999237	None	None	None	None	1
3.0.1	2019_Mar_12_1657	s	s	12	3	SIC	391	ABS	0	0	2	4	24_2_4	NA	NA	0	1	0.679781913757	None	None	None	None	1
3.0.1	2019_Mar_12_1657	s	s	12	3	SIC	392	2_3	2	3	3	2	23_3_2	1	1	1	0	0.496193885803	-58.0	152.0	-56.0	159.0	1
3.0.1	2019_Mar_12_1657	s	s	12	3	SIC	393	ABS	0	0	2	4	24_2_4	NA	NA	0	1	0.944740056992	None	None	None	None	1
3.0.1	2019_Mar_12_1657	s	s	12	3	SIC	394	ABS	0	0	3	3	24_3_3	NA	NA	0	1	1.00296401978	None	None	None	None	1
3.0.1	2019_Mar_12_1657	s	s	12	3	SIC	395	ABS	0	0	1	1	24_1_1	NA	NA	0	1	0.709209918976	None	None	None	None	1
3.0.1	2019_Mar_12_1657	s	s	12	3	SIC	396	1_2	1	2	3	3	23_3_3	2	1	1	0	0.505028009415	-154.0	-9.0	-154.0	-12.0	1
3.0.1	2019_Mar_12_1657	s	s	12	3	SIC	397	1_4	1	4	1	2	23_1_2	0	2	1	0	0.599187850952	-263.0	-391.0	-266.0	-382.0	1
3.0.1	2019_Mar_12_1657	s	s	12	3	SIC	398	1_3	1	3	3	4	23_3_4	2	-1	1	0	0.457969903946	-196.0	-364.0	-194.0	-356.0	1
3.0.1	2019_Mar_12_1657	s	s	12	3	SIC	399	ABS	0	0	1	2	24_1_2	NA	NA	0	1	0.909241914749	None	None	None	None	1
3.0.1	2019_Mar_12_1657	s	s	12	3	SIC	400	2_3	2	3	4	1	23_4_1	2	2	1	0	0.387456178665	-112.0	-101.0	-106.0	-105.0	1
3.0.1	2019_Mar_12_1657	s	s	12	3	SIC	401	2_3	2	3	3	3	23_3_3	1	0	1	0	0.519683122635	-25.0	-366.0	-29.0	-367.0	1
3.0.1	2019_Mar_12_1657	s	s	12	3	SIC	402	ABS	0	0	2	1	24_2_1	NA	NA	0	1	1.0695848465	None	None	None	None	1
3.0.1	2019_Mar_12_1657	s	s	12	3	SIC	403	ABS	0	0	2	3	24_2_3	NA	NA	0	1	1.31663107872	None	None	None	None	1
3.0.1	2019_Mar_12_1657	s	s	12	3	SIC	404	ABS	0	0	4	1	24_4_1	NA	NA	0	1	0.728533983231	None	None	None	None	1
3.0.1	2019_Mar_12_1657	s	s	12	3	SIC	405	1_4	1	4	3	3	23_3_3	2	1	1	0	0.442221879959	-275.0	160.0	-281.0	151.0	1
3.0.1	2019_Mar_12_1657	s	s	12	3	SIC	406	2_4	2	4	3	2	23_3_2	1	2	1	0	0.693158149719	-66.0	400.0	-73.0	400.0	1
3.0.1	2019_Mar_12_1657	s	s	12	3	SIC	407	1_2	1	2	3	1	23_3_1	2	-1	1	0	0.422719955444	-16.0	-90.0	-9.0	-92.0	1
3.0.1	2019_Mar_12_1657	s	s	12	3	SIC	408	2_2	2	2	4	3	23_4_3	2	1	1	0	0.369074106216	-428.0	-188.0	-423.0	-179.0	1
3.0.1	2019_Mar_12_1657	s	s	12	3	SIC	409	4_4	4	4	1	4	23_1_4	3	0	1	0	0.356966018677	-70.0	-94.0	-70.0	-95.0	1
3.0.1	2019_Mar_12_1657	s	s	12	3	SIC	410	3_4	3	4	2	4	23_2_4	1	0	1	0	1.06962895393	285.0	-380.0	291.0	-378.0	1
3.0.1	2019_Mar_12_1657	s	s	12	3	SIC	411	ABS	0	0	4	1	24_4_1	NA	NA	0	1	0.881350040436	None	None	None	None	1
3.0.1	2019_Mar_12_1657	s	s	12	3	SIC	412	ABS	0	0	3	1	24_3_1	NA	NA	0	1	1.61060404778	None	None	None	None	1
3.0.1	2019_Mar_12_1657	s	s	12	3	SIC	413	ABS	0	0	1	4	24_1_4	NA	NA	0	1	0.680027961731	None	None	None	None	1
3.0.1	2019_Mar_12_1657	s	s	12	3	SIC	414	ABS	0	0	4	2	24_4_2	NA	NA	0	1	1.20869612694	None	None	None	None	1
3.0.1	2019_Mar_12_1657	s	s	12	3	SIC	415	ABS	0	0	1	2	24_1_2	NA	NA	0	1	0.849992036819	None	None	None	None	1
3.0.1	2019_Mar_12_1657	s	s	12	3	SIC	416	4_2	4	2	3	2	23_3_2	1	0	1	0	0.469863891602	56.0	200.0	60.0	192.0	1
3.0.1	2019_Mar_12_1657	s	s	12	3	SIC	417	4_3	4	3	1	1	23_1_1	3	2	1	0	0.368841171265	-41.0	-67.0	-37.0	-58.0	1
3.0.1	2019_Mar_12_1657	s	s	12	3	SIC	418	2_4	2	4	4	2	23_4_2	2	2	1	0	0.437388181686	391.0	-299.0	382.0	-302.0	1
3.0.1	2019_Mar_12_1657	s	s	12	3	SIC	419	3_4	3	4	3	1	23_3_1	0	3	1	0	0.556997060776	153.0	-32.0	147.0	-34.0	1
3.0.1	2019_Mar_12_1657	s	s	12	3	SIC	420	ABS	0	0	4	1	24_4_1	NA	NA	0	1	0.898833990097	None	None	None	None	1
3.0.1	2019_Mar_12_1657	s	s	12	3	SIC	421	3_1	3	1	3	2	23_3_2	0	1	0	1	1.51636910439	-440.0	-229.0	None	None	0
3.0.1	2019_Mar_12_1657	s	s	12	3	SIC	422	3_3	3	3	1	4	23_1_4	2	-1	1	0	0.561235904694	-120.0	-316.0	-107.0	-311.0	1
3.0.1	2019_Mar_12_1657	s	s	12	3	SIC	423	ABS	0	0	1	2	24_1_2	NA	NA	0	1	1.37536501884	None	None	None	None	1
3.0.1	2019_Mar_12_1657	s	s	12	3	SIC	424	3_3	3	3	2	3	23_2_3	1	0	1	0	1.52828097343	-430.0	262.0	-430.0	263.0	1
3.0.1	2019_Mar_12_1657	s	s	12	3	SIC	425	ABS	0	0	1	4	24_1_4	NA	NA	0	1	0.999002933502	None	None	None	None	1
3.0.1	2019_Mar_12_1657	s	s	12	3	SIC	426	1_1	1	1	4	3	23_4_3	3	2	1	0	0.410959005356	-6.0	362.0	-19.0	371.0	1
3.0.1	2019_Mar_12_1657	s	s	12	3	SIC	427	2_2	2	2	3	3	23_3_3	1	1	1	0	0.698085069656	-178.0	-18.0	-181.0	-17.0	1
3.0.1	2019_Mar_12_1657	s	s	12	3	SIC	428	ABS	0	0	3	2	24_3_2	NA	NA	0	1	2.62845611572	None	None	None	None	1
3.0.1	2019_Mar_12_1657	s	s	12	3	SIC	429	ABS	0	0	4	4	24_4_4	NA	NA	0	1	1.3711669445	None	None	None	None	1
3.0.1	2019_Mar_12_1657	s	s	12	3	SIC	430	ABS	0	0	3	4	24_3_4	NA	NA	0	1	1.17021083832	None	None	None	None	1
3.0.1	2019_Mar_12_1657	s	s	12	3	SIC	431	3_1	3	1	3	3	23_3_3	0	2	0	1	1.11662387848	453.0	-78.0	None	None	0
3.0.1	2019_Mar_12_1657	s	s	12	3	SIC	432	3_3	3	3	3	2	23_3_2	0	1	0	1	3.67169690132	520.0	-112.0	None	None	0
3.0.1	2019_Mar_12_1657	s	s	12	3	SIC	433	3_3	3	3	2	4	23_2_4	1	-1	1	0	0.869614839554	-536.0	79.0	-519.0	89.0	1
3.0.1	2019_Mar_12_1657	s	s	12	3	SIC	434	ABS	0	0	1	1	24_1_1	NA	NA	0	1	0.916832923889	None	None	None	None	1
3.0.1	2019_Mar_12_1657	s	s	12	3	SIC	435	3_4	3	4	4	4	23_4_4	-1	0	1	0	0.516849994659	-300.0	-401.0	-309.0	-402.0	1
3.0.1	2019_Mar_12_1657	s	s	12	3	SIC	436	3_1	3	1	3	4	23_3_4	0	3	1	0	0.54545378685	-94.0	309.0	-90.0	309.0	1
3.0.1	2019_Mar_12_1657	s	s	12	3	SIC	437	1_3	1	3	2	4	23_2_4	1	-1	1	0	0.496196985245	199.0	-86.0	202.0	-88.0	1
3.0.1	2019_Mar_12_1657	s	s	12	3	SIC	438	ABS	0	0	3	4	24_3_4	NA	NA	0	1	1.59892678261	None	None	None	None	1
3.0.1	2019_Mar_12_1657	s	s	12	3	SIC	439	ABS	0	0	1	2	24_1_2	NA	NA	0	1	3.92755699158	None	None	None	None	1
3.0.1	2019_Mar_12_1657	s	s	12	3	SIC	440	2_4	2	4	1	1	23_1_1	-1	3	1	0	0.893168926239	-477.0	-231.0	-480.0	-229.0	1
3.0.1	2019_Mar_12_1657	s	s	12	3	SIC	441	ABS	0	0	4	3	24_4_3	NA	NA	0	1	1.07246398926	None	None	None	None	1
3.0.1	2019_Mar_12_1657	s	s	12	3	SIC	442	ABS	0	0	3	3	24_3_3	NA	NA	0	1	0.599119901657	None	None	None	None	1
3.0.1	2019_Mar_12_1657	s	s	12	3	SIC	443	2_3	2	3	4	3	23_4_3	2	0	1	0	0.451171875	-153.0	-294.0	-155.0	-297.0	1
3.0.1	2019_Mar_12_1657	s	s	12	3	SIC	444	1_1	1	1	1	4	23_1_4	0	3	1	0	0.469745159149	-465.0	338.0	-463.0	334.0	1
3.0.1	2019_Mar_12_1657	s	s	12	3	SIC	445	ABS	0	0	1	3	24_1_3	NA	NA	0	1	2.3559858799	None	None	None	None	1
3.0.1	2019_Mar_12_1657	s	s	12	3	SIC	446	ABS	0	0	2	1	24_2_1	NA	NA	0	1	1.6134660244	None	None	None	None	1
3.0.1	2019_Mar_12_1657	s	s	12	3	SIC	447	4_1	4	1	3	4	23_3_4	1	3	1	0	0.44365811348	418.0	278.0	428.0	281.0	1
3.0.1	2019_Mar_12_1657	s	s	12	3	SIC	448	ABS	0	0	2	3	24_2_3	NA	NA	0	1	1.97291994095	None	None	None	None	1
3.0.1	2019_Mar_12_1657	s	s	12	3	SIC	449	1_3	1	3	1	4	23_1_4	0	-1	1	0	0.914939165115	389.0	339.0	391.0	331.0	1
3.0.1	2019_Mar_12_1657	s	s	12	3	SIC	450	ABS	0	0	3	1	24_3_1	NA	NA	0	1	2.79072594643	None	None	None	None	1
3.0.1	2019_Mar_12_1657	s	s	12	3	SIC	451	ABS	0	0	4	4	24_4_4	NA	NA	0	1	0.698348999023	None	None	None	None	1
3.0.1	2019_Mar_12_1657	s	s	12	3	SIC	452	4_4	4	4	3	2	23_3_2	1	2	1	0	0.422723054886	-459.0	355.0	-458.0	365.0	1
3.0.1	2019_Mar_12_1657	s	s	12	3	SIC	453	ABS	0	0	2	3	24_2_3	NA	NA	0	1	1.15190505981	None	None	None	None	1
3.0.1	2019_Mar_12_1657	s	s	12	3	SIC	454	ABS	0	0	2	1	24_2_1	NA	NA	0	1	0.620166063309	None	None	None	None	1
3.0.1	2019_Mar_12_1657	s	s	12	3	SIC	455	ABS	0	0	3	3	24_3_3	NA	NA	0	1	0.60450387001	None	None	None	None	1
3.0.1	2019_Mar_12_1657	s	s	12	3	SIC	456	1_1	1	1	3	1	23_3_1	2	0	1	0	0.516791820526	144.0	378.0	131.0	381.0	1
3.0.1	2019_Mar_12_1657	s	s	12	3	SIC	457	ABS	0	0	2	2	24_2_2	NA	NA	0	1	0.599257946014	None	None	None	None	1
3.0.1	2019_Mar_12_1657	s	s	12	3	SIC	458	ABS	0	0	3	4	24_3_4	NA	NA	0	1	0.599154949188	None	None	None	None	1
3.0.1	2019_Mar_12_1657	s	s	12	3	SIC	459	3_1	3	1	4	3	23_4_3	-1	2	1	0	0.487825870514	-369.0	112.0	-369.0	122.0	1
3.0.1	2019_Mar_12_1657	s	s	12	3	SIC	460	ABS	0	0	1	2	24_1_2	NA	NA	0	1	0.552060127258	None	None	None	None	1
3.0.1	2019_Mar_12_1657	s	s	12	3	SIC	461	ABS	0	0	1	3	24_1_3	NA	NA	0	1	0.563841819763	None	None	None	None	1
3.0.1	2019_Mar_12_1657	s	s	12	3	SIC	462	ABS	0	0	1	1	24_1_1	NA	NA	0	1	0.568966150284	None	None	None	None	1
3.0.1	2019_Mar_12_1657	s	s	12	3	SIC	463	4_3	4	3	2	1	23_2_1	2	2	1	0	0.499774932861	-333.0	-148.0	-326.0	-146.0	1
3.0.1	2019_Mar_12_1657	s	s	12	3	SIC	464	ABS	0	0	3	1	24_3_1	NA	NA	0	1	0.534042835236	None	None	None	None	1
3.0.1	2019_Mar_12_1657	s	s	12	3	SIC	465	3_3	3	3	1	2	23_1_2	2	1	1	0	0.810849189758	502.0	164.0	502.0	167.0	1
3.0.1	2019_Mar_12_1657	s	s	12	3	SIC	466	ABS	0	0	2	4	24_2_4	NA	NA	0	1	0.850010871887	None	None	None	None	1
3.0.1	2019_Mar_12_1657	s	s	12	3	SIC	467	ABS	0	0	2	1	24_2_1	NA	NA	0	1	0.740279197693	None	None	None	None	1
3.0.1	2019_Mar_12_1657	s	s	12	3	SIC	468	ABS	0	0	4	4	24_4_4	NA	NA	0	1	0.7820789814	None	None	None	None	1
3.0.1	2019_Mar_12_1657	s	s	12	3	SIC	469	1_2	1	2	4	3	23_4_3	3	1	1	0	0.422754049301	280.0	-184.0	288.0	-185.0	1
3.0.1	2019_Mar_12_1657	s	s	12	3	SIC	470	1_3	1	3	2	3	23_2_3	1	0	0	1	1.4370200634	348.0	105.0	None	None	0
3.0.1	2019_Mar_12_1657	s	s	12	3	SIC	471	ABS	0	0	4	3	24_4_3	NA	NA	0	1	0.628306865692	None	None	None	None	1
3.0.1	2019_Mar_12_1657	s	s	12	3	SIC	472	ABS	0	0	1	1	24_1_1	NA	NA	0	1	0.599112033844	None	None	None	None	1
3.0.1	2019_Mar_12_1657	s	s	12	3	SIC	473	ABS	0	0	2	2	24_2_2	NA	NA	0	1	0.735091924667	None	None	None	None	1
3.0.1	2019_Mar_12_1657	s	s	12	3	SIC	474	4_1	4	1	2	3	23_2_3	2	2	1	0	0.422755002975	326.0	167.0	324.0	166.0	1
3.0.1	2019_Mar_12_1657	s	s	12	3	SIC	475	1_2	1	2	2	1	23_2_1	1	-1	0	1	0.62263584137	-325.0	56.0	None	None	0
3.0.1	2019_Mar_12_1657	s	s	12	3	SIC	476	2_3	2	3	1	2	23_1_2	-1	1	0	1	0.973253965378	330.0	-379.0	None	None	0
3.0.1	2019_Mar_12_1657	s	s	12	3	SIC	477	3_3	3	3	1	1	23_1_1	2	2	1	0	0.534389972687	153.0	158.0	145.0	152.0	1
3.0.1	2019_Mar_12_1657	s	s	12	3	SIC	478	ABS	0	0	1	3	24_1_3	NA	NA	0	1	1.92814302444	None	None	None	None	1
3.0.1	2019_Mar_12_1657	s	s	12	3	SIC	479	3_4	3	4	1	4	23_1_4	2	0	1	0	3.21589207649	-103.0	350.0	-102.0	357.0	1
3.0.1	2019_Mar_12_1657	s	s	12	3	SIC	480	2_4	2	4	1	4	23_1_4	-1	0	0	1	0.775579214096	247.0	199.0	None	None	0
