Version	Date	Stimuli	Method	Subject	Session	Condition	Trial	Target	TColor	TShape	DColor	DShape	Distractors	Channel1	Channel2	LMouseButton	RMouseButton	RT	TargetX	TargetY	ResponseX	ResponseY	Correct
3.0.1	2019_Mar_08_0844	s	s	12	1	Capacity	1	1_1	1	1	4	1	23_4_1	3	0	1	0	0.787353992462	-6.0	-98.0	-16.0	-90.0	1
3.0.1	2019_Mar_08_0844	s	s	12	1	Capacity	2	4_1	4	1	1	1	23_1_1	3	0	1	0	0.849010229111	150.0	96.0	156.0	90.0	1
3.0.1	2019_Mar_08_0844	s	s	12	1	Capacity	3	2_1	2	1	3	1	23_3_1	1	0	1	0	0.785474061966	-28.0	-279.0	-21.0	-273.0	1
3.0.1	2019_Mar_08_0844	s	s	12	1	Capacity	4	ABS	0	0	3	1	24_3_1	NA	NA	0	1	1.01079010963	None	None	None	None	1
3.0.1	2019_Mar_08_0844	s	s	12	1	Capacity	5	3_1	3	1	1	1	23_1_1	2	0	1	0	0.634449005127	123.0	-29.0	124.0	-30.0	1
3.0.1	2019_Mar_08_0844	s	s	12	1	Capacity	6	2_1	2	1	4	1	23_4_1	2	0	1	0	0.592262983322	-106.0	-178.0	-108.0	-179.0	1
3.0.1	2019_Mar_08_0844	s	s	12	1	Capacity	7	4_1	4	1	2	1	23_2_1	2	0	1	0	0.575635910034	-157.0	-131.0	-161.0	-140.0	1
3.0.1	2019_Mar_08_0844	s	s	12	1	Capacity	8	ABS	0	0	4	1	24_4_1	NA	NA	0	1	1.03115200996	None	None	None	None	1
3.0.1	2019_Mar_08_0844	s	s	12	1	Capacity	9	ABS	0	0	3	1	24_3_1	NA	NA	0	1	1.04098701477	None	None	None	None	1
3.0.1	2019_Mar_08_0844	s	s	12	1	Capacity	10	ABS	0	0	3	1	24_3_1	NA	NA	0	1	0.874043941498	None	None	None	None	1
3.0.1	2019_Mar_08_0844	s	s	12	1	Capacity	11	ABS	0	0	2	1	24_2_1	NA	NA	0	1	1.44247984886	None	None	None	None	1
3.0.1	2019_Mar_08_0844	s	s	12	1	Capacity	12	ABS	0	0	1	1	24_1_1	NA	NA	0	1	0.672555923462	None	None	None	None	1
3.0.1	2019_Mar_08_0844	s	s	12	1	Capacity	13	4_1	4	1	3	1	23_3_1	1	0	1	0	0.737084150314	-460.0	-361.0	-469.0	-359.0	1
3.0.1	2019_Mar_08_0844	s	s	12	1	Capacity	14	ABS	0	0	2	1	24_2_1	NA	NA	0	1	1.28121805191	None	None	None	None	1
3.0.1	2019_Mar_08_0844	s	s	12	1	Capacity	15	3_1	3	1	2	1	23_2_1	1	0	1	0	0.822546005249	-202.0	213.0	-196.0	221.0	1
3.0.1	2019_Mar_08_0844	s	s	12	1	Capacity	16	ABS	0	0	1	1	24_1_1	NA	NA	0	1	0.857836961746	None	None	None	None	1
3.0.1	2019_Mar_08_0844	s	s	12	1	Capacity	17	ABS	0	0	4	1	24_4_1	NA	NA	0	1	0.97424697876	None	None	None	None	1
3.0.1	2019_Mar_08_0844	s	s	12	1	Capacity	18	3_1	3	1	4	1	23_4_1	-1	0	1	0	0.998920202255	-452.0	-299.0	-447.0	-299.0	1
3.0.1	2019_Mar_08_0844	s	s	12	1	Capacity	19	2_1	2	1	1	1	23_1_1	-1	0	0	1	0.874793052673	-231.0	10.0	None	None	0
3.0.1	2019_Mar_08_0844	s	s	12	1	Capacity	20	ABS	0	0	1	1	24_1_1	NA	NA	0	1	0.763751029968	None	None	None	None	1
3.0.1	2019_Mar_08_0844	s	s	12	1	Capacity	21	1_1	1	1	3	1	23_3_1	2	0	1	0	0.652895927429	-238.0	-181.0	-241.0	-177.0	1
3.0.1	2019_Mar_08_0844	s	s	12	1	Capacity	22	ABS	0	0	2	1	24_2_1	NA	NA	0	1	0.672559022903	None	None	None	None	1
3.0.1	2019_Mar_08_0844	s	s	12	1	Capacity	23	1_1	1	1	2	1	23_2_1	1	0	0	1	1.14297699928	-202.0	15.0	None	None	0
3.0.1	2019_Mar_08_0844	s	s	12	1	Capacity	24	ABS	0	0	4	1	24_4_1	NA	NA	0	1	0.869874954224	None	None	None	None	1
3.0.1	2019_Mar_08_0844	s	s	12	1	Capacity	25	3_1	3	1	4	1	23_4_1	-1	0	1	0	0.822546958923	237.0	203.0	245.0	202.0	1
3.0.1	2019_Mar_08_0844	s	s	12	1	Capacity	26	3_1	3	1	1	1	23_1_1	2	0	1	0	1.03423690796	29.0	-74.0	35.0	-80.0	1
3.0.1	2019_Mar_08_0844	s	s	12	1	Capacity	27	1_1	1	1	3	1	23_3_1	2	0	1	0	1.16841602325	391.0	317.0	391.0	317.0	1
3.0.1	2019_Mar_08_0844	s	s	12	1	Capacity	28	ABS	0	0	3	1	24_3_1	NA	NA	0	1	0.780949115753	None	None	None	None	1
3.0.1	2019_Mar_08_0844	s	s	12	1	Capacity	29	ABS	0	0	1	1	24_1_1	NA	NA	0	1	0.874670982361	None	None	None	None	1
3.0.1	2019_Mar_08_0844	s	s	12	1	Capacity	30	ABS	0	0	3	1	24_3_1	NA	NA	0	1	0.693124055862	None	None	None	None	1
3.0.1	2019_Mar_08_0844	s	s	12	1	Capacity	31	ABS	0	0	4	1	24_4_1	NA	NA	0	1	0.775538921356	None	None	None	None	1
3.0.1	2019_Mar_08_0844	s	s	12	1	Capacity	32	ABS	0	0	1	1	24_1_1	NA	NA	0	1	0.978322982788	None	None	None	None	1
3.0.1	2019_Mar_08_0844	s	s	12	1	Capacity	33	4_1	4	1	3	1	23_3_1	1	0	1	0	0.722030878067	193.0	-393.0	192.0	-393.0	1
3.0.1	2019_Mar_08_0844	s	s	12	1	Capacity	34	ABS	0	0	4	1	24_4_1	NA	NA	0	1	0.575593948364	None	None	None	None	1
3.0.1	2019_Mar_08_0844	s	s	12	1	Capacity	35	2_1	2	1	1	1	23_1_1	-1	0	0	1	0.681416988373	499.0	400.0	None	None	0
3.0.1	2019_Mar_08_0844	s	s	12	1	Capacity	36	ABS	0	0	2	1	24_2_1	NA	NA	0	1	0.511734008789	None	None	None	None	1
3.0.1	2019_Mar_08_0844	s	s	12	1	Capacity	37	ABS	0	0	2	1	24_2_1	NA	NA	0	1	0.78028011322	None	None	None	None	1
3.0.1	2019_Mar_08_0844	s	s	12	1	Capacity	38	4_1	4	1	1	1	23_1_1	3	0	1	0	0.869558811188	521.0	56.0	524.0	52.0	1
3.0.1	2019_Mar_08_0844	s	s	12	1	Capacity	39	ABS	0	0	4	1	24_4_1	NA	NA	0	1	1.7193300724	None	None	None	None	1
3.0.1	2019_Mar_08_0844	s	s	12	1	Capacity	40	1_1	1	1	4	1	23_4_1	3	0	1	0	0.769259929657	-245.0	211.0	-253.0	211.0	1
3.0.1	2019_Mar_08_0844	s	s	12	1	Capacity	41	ABS	0	0	3	1	24_3_1	NA	NA	0	1	0.662842035294	None	None	None	None	1
3.0.1	2019_Mar_08_0844	s	s	12	1	Capacity	42	2_1	2	1	3	1	23_3_1	1	0	1	0	0.693169116974	385.0	61.0	389.0	63.0	1
3.0.1	2019_Mar_08_0844	s	s	12	1	Capacity	43	4_1	4	1	2	1	23_2_1	2	0	1	0	1.08705210686	-529.0	-63.0	-526.0	-72.0	1
3.0.1	2019_Mar_08_0844	s	s	12	1	Capacity	44	3_1	3	1	2	1	23_2_1	1	0	1	0	0.928365945816	-430.0	-217.0	-425.0	-214.0	1
3.0.1	2019_Mar_08_0844	s	s	12	1	Capacity	45	ABS	0	0	1	1	24_1_1	NA	NA	0	1	0.998995065689	None	None	None	None	1
3.0.1	2019_Mar_08_0844	s	s	12	1	Capacity	46	2_1	2	1	4	1	23_4_1	2	0	1	0	0.700304031372	282.0	179.0	279.0	180.0	1
3.0.1	2019_Mar_08_0844	s	s	12	1	Capacity	47	1_1	1	1	2	1	23_2_1	1	0	0	1	2.63371396065	-526.0	71.0	None	None	0
3.0.1	2019_Mar_08_0844	s	s	12	1	Capacity	48	ABS	0	0	2	1	24_2_1	NA	NA	0	1	0.857819080353	None	None	None	None	1
3.0.1	2019_Mar_08_0844	s	s	12	1	Capacity	49	3_1	3	1	1	1	23_1_1	2	0	1	0	1.08401703835	-483.0	-330.0	-479.0	-336.0	1
3.0.1	2019_Mar_08_0844	s	s	12	1	Capacity	50	ABS	0	0	4	1	24_4_1	NA	NA	0	1	1.41061496735	None	None	None	None	1
3.0.1	2019_Mar_08_0844	s	s	12	1	Capacity	51	3_1	3	1	2	1	23_2_1	1	0	1	0	0.688288211823	-421.0	-1.0	-432.0	0.0	1
3.0.1	2019_Mar_08_0844	s	s	12	1	Capacity	52	ABS	0	0	1	1	24_1_1	NA	NA	0	1	0.554913043976	None	None	None	None	1
3.0.1	2019_Mar_08_0844	s	s	12	1	Capacity	53	ABS	0	0	2	1	24_2_1	NA	NA	0	1	1.31152915955	None	None	None	None	1
3.0.1	2019_Mar_08_0844	s	s	12	1	Capacity	54	2_1	2	1	3	1	23_3_1	1	0	0	1	1.47415590286	-167.0	119.0	None	None	0
3.0.1	2019_Mar_08_0844	s	s	12	1	Capacity	55	4_1	4	1	2	1	23_2_1	2	0	1	0	0.540791034698	475.0	-290.0	472.0	-294.0	1
3.0.1	2019_Mar_08_0844	s	s	12	1	Capacity	56	1_1	1	1	4	1	23_4_1	3	0	1	0	0.795623064041	261.0	357.0	258.0	359.0	1
3.0.1	2019_Mar_08_0844	s	s	12	1	Capacity	57	ABS	0	0	3	1	24_3_1	NA	NA	0	1	0.780781984329	None	None	None	None	1
3.0.1	2019_Mar_08_0844	s	s	12	1	Capacity	58	1_1	1	1	2	1	23_2_1	1	0	0	1	2.00347614288	-271.0	-141.0	None	None	0
3.0.1	2019_Mar_08_0844	s	s	12	1	Capacity	59	ABS	0	0	4	1	24_4_1	NA	NA	0	1	0.775874137878	None	None	None	None	1
3.0.1	2019_Mar_08_0844	s	s	12	1	Capacity	60	ABS	0	0	2	1	24_2_1	NA	NA	0	1	1.08706498146	None	None	None	None	1
3.0.1	2019_Mar_08_0844	s	s	12	1	Capacity	61	ABS	0	0	2	1	24_2_1	NA	NA	0	1	0.660794973373	None	None	None	None	1
3.0.1	2019_Mar_08_0844	s	s	12	1	Capacity	62	2_1	2	1	4	1	23_4_1	2	0	1	0	0.563807964325	325.0	-399.0	329.0	-402.0	1
3.0.1	2019_Mar_08_0844	s	s	12	1	Capacity	63	ABS	0	0	3	1	24_3_1	NA	NA	0	1	1.15189504623	None	None	None	None	1
3.0.1	2019_Mar_08_0844	s	s	12	1	Capacity	64	ABS	0	0	1	1	24_1_1	NA	NA	0	1	0.775549173355	None	None	None	None	1
3.0.1	2019_Mar_08_0844	s	s	12	1	Capacity	65	ABS	0	0	4	1	24_4_1	NA	NA	0	1	0.681396007538	None	None	None	None	1
3.0.1	2019_Mar_08_0844	s	s	12	1	Capacity	66	ABS	0	0	3	1	24_3_1	NA	NA	0	1	0.619716882706	None	None	None	None	1
3.0.1	2019_Mar_08_0844	s	s	12	1	Capacity	67	3_1	3	1	4	1	23_4_1	-1	0	1	0	0.605010032654	327.0	-215.0	324.0	-223.0	1
3.0.1	2019_Mar_08_0844	s	s	12	1	Capacity	68	4_1	4	1	3	1	23_3_1	1	0	1	0	1.11011910439	314.0	-319.0	319.0	-318.0	1
3.0.1	2019_Mar_08_0844	s	s	12	1	Capacity	69	4_1	4	1	1	1	23_1_1	3	0	1	0	0.88137793541	-158.0	82.0	-168.0	80.0	1
3.0.1	2019_Mar_08_0844	s	s	12	1	Capacity	70	ABS	0	0	1	1	24_1_1	NA	NA	0	1	0.827810049057	None	None	None	None	1
3.0.1	2019_Mar_08_0844	s	s	12	1	Capacity	71	2_1	2	1	1	1	23_1_1	-1	0	0	1	5.29171299934	-449.0	-137.0	None	None	0
3.0.1	2019_Mar_08_0844	s	s	12	1	Capacity	72	1_1	1	1	3	1	23_3_1	2	0	1	0	0.790148019791	453.0	49.0	456.0	48.0	1
3.0.1	2019_Mar_08_0844	s	s	12	1	Capacity	73	ABS	0	0	4	1	24_4_1	NA	NA	0	1	1.57523703575	None	None	None	None	1
3.0.1	2019_Mar_08_0844	s	s	12	1	Capacity	74	2_1	2	1	1	1	23_1_1	-1	0	0	1	2.35630607605	75.0	-101.0	None	None	0
3.0.1	2019_Mar_08_0844	s	s	12	1	Capacity	75	4_1	4	1	2	1	23_2_1	2	0	1	0	0.634531974792	192.0	276.0	199.0	280.0	1
3.0.1	2019_Mar_08_0844	s	s	12	1	Capacity	76	ABS	0	0	4	1	24_4_1	NA	NA	0	1	1.29308986664	None	None	None	None	1
3.0.1	2019_Mar_08_0844	s	s	12	1	Capacity	77	3_1	3	1	4	1	23_4_1	-1	0	1	0	0.599539041519	374.0	-213.0	381.0	-212.0	1
3.0.1	2019_Mar_08_0844	s	s	12	1	Capacity	78	ABS	0	0	2	1	24_2_1	NA	NA	0	1	0.73136305809	None	None	None	None	1
3.0.1	2019_Mar_08_0844	s	s	12	1	Capacity	79	ABS	0	0	2	1	24_2_1	NA	NA	0	1	0.899764060974	None	None	None	None	1
3.0.1	2019_Mar_08_0844	s	s	12	1	Capacity	80	2_1	2	1	3	1	23_3_1	1	0	1	0	2.19913101196	389.0	-158.0	397.0	-161.0	1
3.0.1	2019_Mar_08_0844	s	s	12	1	Capacity	81	1_1	1	1	3	1	23_3_1	2	0	1	0	0.629693031311	51.0	-211.0	49.0	-216.0	1
3.0.1	2019_Mar_08_0844	s	s	12	1	Capacity	82	ABS	0	0	3	1	24_3_1	NA	NA	0	1	2.33967900276	None	None	None	None	1
3.0.1	2019_Mar_08_0844	s	s	12	1	Capacity	83	ABS	0	0	4	1	24_4_1	NA	NA	0	1	0.840753078461	None	None	None	None	1
3.0.1	2019_Mar_08_0844	s	s	12	1	Capacity	84	4_1	4	1	3	1	23_3_1	1	0	1	0	1.32040500641	-160.0	-359.0	-165.0	-360.0	1
3.0.1	2019_Mar_08_0844	s	s	12	1	Capacity	85	4_1	4	1	1	1	23_1_1	3	0	1	0	0.662837028503	-132.0	-356.0	-120.0	-353.0	1
3.0.1	2019_Mar_08_0844	s	s	12	1	Capacity	86	3_1	3	1	1	1	23_1_1	2	0	1	0	0.709712982178	-516.0	-114.0	-526.0	-114.0	1
3.0.1	2019_Mar_08_0844	s	s	12	1	Capacity	87	1_1	1	1	2	1	23_2_1	1	0	0	1	0.928345918655	389.0	-145.0	None	None	0
3.0.1	2019_Mar_08_0844	s	s	12	1	Capacity	88	ABS	0	0	1	1	24_1_1	NA	NA	0	1	0.951972007751	None	None	None	None	1
3.0.1	2019_Mar_08_0844	s	s	12	1	Capacity	89	ABS	0	0	3	1	24_3_1	NA	NA	0	1	1.34509110451	None	None	None	None	1
3.0.1	2019_Mar_08_0844	s	s	12	1	Capacity	90	ABS	0	0	2	1	24_2_1	NA	NA	0	1	0.604393005371	None	None	None	None	1
3.0.1	2019_Mar_08_0844	s	s	12	1	Capacity	91	1_1	1	1	4	1	23_4_1	3	0	1	0	0.619328022003	-213.0	-314.0	-203.0	-310.0	1
3.0.1	2019_Mar_08_0844	s	s	12	1	Capacity	92	ABS	0	0	1	1	24_1_1	NA	NA	0	1	0.609889984131	None	None	None	None	1
3.0.1	2019_Mar_08_0844	s	s	12	1	Capacity	93	ABS	0	0	3	1	24_3_1	NA	NA	0	1	0.646106958389	None	None	None	None	1
3.0.1	2019_Mar_08_0844	s	s	12	1	Capacity	94	2_1	2	1	4	1	23_4_1	2	0	1	0	0.599203109741	-276.0	-70.0	-263.0	-64.0	1
3.0.1	2019_Mar_08_0844	s	s	12	1	Capacity	95	3_1	3	1	2	1	23_2_1	1	0	1	0	1.70986890793	132.0	229.0	137.0	228.0	1
3.0.1	2019_Mar_08_0844	s	s	12	1	Capacity	96	ABS	0	0	1	1	24_1_1	NA	NA	0	1	0.940229177475	None	None	None	None	1
3.0.1	2019_Mar_08_0844	s	s	12	1	Capacity	1	ABS	0	0	1	4	24_1_4	NA	NA	0	1	2.59854006767	None	None	None	None	1
3.0.1	2019_Mar_08_0844	s	s	12	1	Capacity	2	ABS	0	0	1	3	24_1_3	NA	NA	0	1	5.27334499359	None	None	None	None	1
3.0.1	2019_Mar_08_0844	s	s	12	1	Capacity	3	ABS	0	0	1	1	24_1_1	NA	NA	0	1	2.17511701584	None	None	None	None	1
3.0.1	2019_Mar_08_0844	s	s	12	1	Capacity	4	ABS	0	0	1	2	24_1_2	NA	NA	0	1	5.09056806564	None	None	None	None	1
3.0.1	2019_Mar_08_0844	s	s	12	1	Capacity	5	1_2	1	2	1	1	23_1_1	0	-1	1	0	2.53960990906	22.0	-89.0	31.0	-93.0	1
3.0.1	2019_Mar_08_0844	s	s	12	1	Capacity	6	ABS	0	0	1	1	24_1_1	NA	NA	0	1	1.38046598434	None	None	None	None	1
3.0.1	2019_Mar_08_0844	s	s	12	1	Capacity	7	1_3	1	3	1	2	23_1_2	0	1	0	1	5.58003807068	18.0	354.0	None	None	0
3.0.1	2019_Mar_08_0844	s	s	12	1	Capacity	8	1_4	1	4	1	2	23_1_2	0	2	1	0	5.40938401222	-9.0	131.0	-14.0	124.0	1
3.0.1	2019_Mar_08_0844	s	s	12	1	Capacity	9	ABS	0	0	1	3	24_1_3	NA	NA	0	1	11.8780779839	None	None	None	None	1
3.0.1	2019_Mar_08_0844	s	s	12	1	Capacity	10	ABS	0	0	1	2	24_1_2	NA	NA	0	1	9.59644818306	None	None	None	None	1
3.0.1	2019_Mar_08_0844	s	s	12	1	Capacity	11	ABS	0	0	1	2	24_1_2	NA	NA	0	1	7.56736898422	None	None	None	None	1
3.0.1	2019_Mar_08_0844	s	s	12	1	Capacity	12	ABS	0	0	1	1	24_1_1	NA	NA	0	1	1.8340818882	None	None	None	None	1
3.0.1	2019_Mar_08_0844	s	s	12	1	Capacity	13	1_1	1	1	1	2	23_1_2	0	1	1	0	2.37523698807	365.0	371.0	364.0	368.0	1
3.0.1	2019_Mar_08_0844	s	s	12	1	Capacity	14	1_2	1	2	1	4	23_1_4	0	2	1	0	1.46936416626	-308.0	-395.0	-293.0	-389.0	1
3.0.1	2019_Mar_08_0844	s	s	12	1	Capacity	15	1_1	1	1	1	3	23_1_3	0	2	1	0	2.03996610641	423.0	-407.0	425.0	-409.0	1
3.0.1	2019_Mar_08_0844	s	s	12	1	Capacity	16	1_1	1	1	1	4	23_1_4	0	3	1	0	0.893177032471	-295.0	199.0	-287.0	205.0	1
3.0.1	2019_Mar_08_0844	s	s	12	1	Capacity	17	1_4	1	4	1	1	23_1_1	0	3	1	0	1.03429102898	220.0	10.0	222.0	12.0	1
3.0.1	2019_Mar_08_0844	s	s	12	1	Capacity	18	ABS	0	0	1	3	24_1_3	NA	NA	0	1	7.29631090164	None	None	None	None	1
3.0.1	2019_Mar_08_0844	s	s	12	1	Capacity	19	1_2	1	2	1	3	23_1_3	0	1	1	0	6.4826002121	410.0	272.0	416.0	275.0	1
3.0.1	2019_Mar_08_0844	s	s	12	1	Capacity	20	1_3	1	3	1	1	23_1_1	0	2	1	0	1.20622205734	171.0	289.0	163.0	286.0	1
3.0.1	2019_Mar_08_0844	s	s	12	1	Capacity	21	1_4	1	4	1	3	23_1_3	0	1	1	0	3.88043618202	-410.0	-52.0	-403.0	-47.0	1
3.0.1	2019_Mar_08_0844	s	s	12	1	Capacity	22	1_3	1	3	1	4	23_1_4	0	-1	1	0	1.64580392838	367.0	-191.0	365.0	-189.0	1
3.0.1	2019_Mar_08_0844	s	s	12	1	Capacity	23	ABS	0	0	1	4	24_1_4	NA	NA	0	1	8.02631115913	None	None	None	None	1
3.0.1	2019_Mar_08_0844	s	s	12	1	Capacity	24	ABS	0	0	1	4	24_1_4	NA	NA	0	1	5.00276207924	None	None	None	None	1
3.0.1	2019_Mar_08_0844	s	s	12	1	Capacity	25	1_4	1	4	1	3	23_1_3	0	1	1	0	2.65063905716	-130.0	203.0	-126.0	202.0	1
3.0.1	2019_Mar_08_0844	s	s	12	1	Capacity	26	1_1	1	1	1	4	23_1_4	0	3	1	0	0.853322029114	110.0	342.0	117.0	336.0	1
3.0.1	2019_Mar_08_0844	s	s	12	1	Capacity	27	ABS	0	0	1	3	24_1_3	NA	NA	0	1	3.89226102829	None	None	None	None	1
3.0.1	2019_Mar_08_0844	s	s	12	1	Capacity	28	ABS	0	0	1	3	24_1_3	NA	NA	0	1	6.98531508446	None	None	None	None	1
3.0.1	2019_Mar_08_0844	s	s	12	1	Capacity	29	ABS	0	0	1	2	24_1_2	NA	NA	0	1	8.8515958786	None	None	None	None	1
3.0.1	2019_Mar_08_0844	s	s	12	1	Capacity	30	1_4	1	4	1	2	23_1_2	0	2	1	0	1.85427117348	-105.0	-133.0	-108.0	-142.0	1
3.0.1	2019_Mar_08_0844	s	s	12	1	Capacity	31	1_1	1	1	1	3	23_1_3	0	2	1	0	2.0339140892	269.0	-310.0	266.0	-306.0	1
3.0.1	2019_Mar_08_0844	s	s	12	1	Capacity	32	ABS	0	0	1	1	24_1_1	NA	NA	0	1	1.2972099781	None	None	None	None	1
3.0.1	2019_Mar_08_0844	s	s	12	1	Capacity	33	ABS	0	0	1	2	24_1_2	NA	NA	0	1	1.5546681881	None	None	None	None	1
3.0.1	2019_Mar_08_0844	s	s	12	1	Capacity	34	ABS	0	0	1	3	24_1_3	NA	NA	0	1	1.48123311996	None	None	None	None	1
3.0.1	2019_Mar_08_0844	s	s	12	1	Capacity	35	1_1	1	1	1	2	23_1_2	0	1	0	1	0.731383085251	463.0	153.0	None	None	0
3.0.1	2019_Mar_08_0844	s	s	12	1	Capacity	36	1_2	1	2	1	1	23_1_1	0	-1	1	0	1.88100099564	-228.0	149.0	-232.0	149.0	1
3.0.1	2019_Mar_08_0844	s	s	12	1	Capacity	37	ABS	0	0	1	1	24_1_1	NA	NA	0	1	0.619144916534	None	None	None	None	1
3.0.1	2019_Mar_08_0844	s	s	12	1	Capacity	38	1_2	1	2	1	3	23_1_3	0	1	0	1	1.20177793503	-465.0	-104.0	None	None	0
3.0.1	2019_Mar_08_0844	s	s	12	1	Capacity	39	ABS	0	0	1	2	24_1_2	NA	NA	0	1	1.02540397644	None	None	None	None	1
3.0.1	2019_Mar_08_0844	s	s	12	1	Capacity	40	ABS	0	0	1	4	24_1_4	NA	NA	0	1	1.90459895134	None	None	None	None	1
3.0.1	2019_Mar_08_0844	s	s	12	1	Capacity	41	ABS	0	0	1	1	24_1_1	NA	NA	0	1	0.893153905869	None	None	None	None	1
3.0.1	2019_Mar_08_0844	s	s	12	1	Capacity	42	1_2	1	2	1	4	23_1_4	0	2	1	0	1.5918109417	-379.0	50.0	-385.0	54.0	1
3.0.1	2019_Mar_08_0844	s	s	12	1	Capacity	43	1_4	1	4	1	1	23_1_1	0	3	1	0	0.854593992233	-219.0	-178.0	-220.0	-176.0	1
3.0.1	2019_Mar_08_0844	s	s	12	1	Capacity	44	1_3	1	3	1	4	23_1_4	0	-1	1	0	1.06963181496	-415.0	258.0	-416.0	263.0	1
3.0.1	2019_Mar_08_0844	s	s	12	1	Capacity	45	ABS	0	0	1	4	24_1_4	NA	NA	0	1	2.20254993439	None	None	None	None	1
3.0.1	2019_Mar_08_0844	s	s	12	1	Capacity	46	1_3	1	3	1	1	23_1_1	0	2	1	0	1.88765501976	149.0	-262.0	156.0	-253.0	1
3.0.1	2019_Mar_08_0844	s	s	12	1	Capacity	47	ABS	0	0	1	4	24_1_4	NA	NA	0	1	0.618988037109	None	None	None	None	1
3.0.1	2019_Mar_08_0844	s	s	12	1	Capacity	48	1_3	1	3	1	2	23_1_2	0	1	0	1	2.86187601089	276.0	53.0	None	None	0
3.0.1	2019_Mar_08_0844	s	s	12	1	Capacity	49	ABS	0	0	1	4	24_1_4	NA	NA	0	1	1.16364097595	None	None	None	None	1
3.0.1	2019_Mar_08_0844	s	s	12	1	Capacity	50	ABS	0	0	1	4	24_1_4	NA	NA	0	1	1.99863195419	None	None	None	None	1
3.0.1	2019_Mar_08_0844	s	s	12	1	Capacity	51	1_3	1	3	1	1	23_1_1	0	2	1	0	0.780106782913	21.0	154.0	6.0	161.0	1
3.0.1	2019_Mar_08_0844	s	s	12	1	Capacity	52	ABS	0	0	1	1	24_1_1	NA	NA	0	1	1.62664580345	None	None	None	None	1
3.0.1	2019_Mar_08_0844	s	s	12	1	Capacity	53	1_1	1	1	1	2	23_1_2	0	1	1	0	3.02902793884	-341.0	280.0	-348.0	276.0	1
3.0.1	2019_Mar_08_0844	s	s	12	1	Capacity	54	ABS	0	0	1	4	24_1_4	NA	NA	0	1	2.50437307358	None	None	None	None	1
3.0.1	2019_Mar_08_0844	s	s	12	1	Capacity	55	1_2	1	2	1	1	23_1_1	0	-1	1	0	0.998945951462	-389.0	-90.0	-20.0	-23.0	0
3.0.1	2019_Mar_08_0844	s	s	12	1	Capacity	56	ABS	0	0	1	2	24_1_2	NA	NA	0	1	5.46820402145	None	None	None	None	1
3.0.1	2019_Mar_08_0844	s	s	12	1	Capacity	57	ABS	0	0	1	3	24_1_3	NA	NA	0	1	1.28647017479	None	None	None	None	1
3.0.1	2019_Mar_08_0844	s	s	12	1	Capacity	58	1_3	1	3	1	4	23_1_4	0	-1	1	0	1.29304504395	-101.0	11.0	-94.0	4.0	1
3.0.1	2019_Mar_08_0844	s	s	12	1	Capacity	59	ABS	0	0	1	1	24_1_1	NA	NA	0	1	1.08516311646	None	None	None	None	1
3.0.1	2019_Mar_08_0844	s	s	12	1	Capacity	60	ABS	0	0	1	2	24_1_2	NA	NA	0	1	3.80992984772	None	None	None	None	1
3.0.1	2019_Mar_08_0844	s	s	12	1	Capacity	61	1_4	1	4	1	2	23_1_2	0	2	1	0	1.14063692093	-126.0	-11.0	-125.0	-3.0	1
3.0.1	2019_Mar_08_0844	s	s	12	1	Capacity	62	1_1	1	1	1	3	23_1_3	0	2	1	0	1.37241911888	400.0	-199.0	401.0	-195.0	1
3.0.1	2019_Mar_08_0844	s	s	12	1	Capacity	63	1_3	1	3	1	2	23_1_2	0	1	0	1	2.37792181969	-515.0	-219.0	None	None	0
3.0.1	2019_Mar_08_0844	s	s	12	1	Capacity	64	1_4	1	4	1	3	23_1_3	0	1	1	0	1.04605603218	-444.0	-331.0	-433.0	-324.0	1
3.0.1	2019_Mar_08_0844	s	s	12	1	Capacity	65	ABS	0	0	1	3	24_1_3	NA	NA	0	1	3.54603505135	None	None	None	None	1
3.0.1	2019_Mar_08_0844	s	s	12	1	Capacity	66	1_1	1	1	1	4	23_1_4	0	3	1	0	0.65790104866	-214.0	65.0	-211.0	72.0	1
3.0.1	2019_Mar_08_0844	s	s	12	1	Capacity	67	ABS	0	0	1	2	24_1_2	NA	NA	0	1	4.50148200989	None	None	None	None	1
3.0.1	2019_Mar_08_0844	s	s	12	1	Capacity	68	1_2	1	2	1	4	23_1_4	0	2	1	0	1.14011216164	-309.0	-406.0	-304.0	-406.0	1
3.0.1	2019_Mar_08_0844	s	s	12	1	Capacity	69	ABS	0	0	1	3	24_1_3	NA	NA	0	1	1.97327184677	None	None	None	None	1
3.0.1	2019_Mar_08_0844	s	s	12	1	Capacity	70	1_2	1	2	1	3	23_1_3	0	1	1	0	3.90988302231	-90.0	179.0	-101.0	180.0	1
3.0.1	2019_Mar_08_0844	s	s	12	1	Capacity	71	1_4	1	4	1	1	23_1_1	0	3	1	0	0.805594205856	-56.0	253.0	-68.0	254.0	1
3.0.1	2019_Mar_08_0844	s	s	12	1	Capacity	72	ABS	0	0	1	1	24_1_1	NA	NA	0	1	0.681469917297	None	None	None	None	1
3.0.1	2019_Mar_08_0844	s	s	12	1	Capacity	73	ABS	0	0	1	4	24_1_4	NA	NA	0	1	1.5674328804	None	None	None	None	1
3.0.1	2019_Mar_08_0844	s	s	12	1	Capacity	74	1_3	1	3	1	4	23_1_4	0	-1	1	0	0.739250898361	-235.0	83.0	-240.0	72.0	1
3.0.1	2019_Mar_08_0844	s	s	12	1	Capacity	75	ABS	0	0	1	2	24_1_2	NA	NA	0	1	1.24594593048	None	None	None	None	1
3.0.1	2019_Mar_08_0844	s	s	12	1	Capacity	76	1_4	1	4	1	1	23_1_1	0	3	1	0	0.768296003342	-287.0	381.0	-293.0	378.0	1
3.0.1	2019_Mar_08_0844	s	s	12	1	Capacity	77	ABS	0	0	1	4	24_1_4	NA	NA	0	1	0.944920063019	None	None	None	None	1
3.0.1	2019_Mar_08_0844	s	s	12	1	Capacity	78	ABS	0	0	1	1	24_1_1	NA	NA	0	1	1.63446998596	None	None	None	None	1
3.0.1	2019_Mar_08_0844	s	s	12	1	Capacity	79	1_3	1	3	1	1	23_1_1	0	2	0	1	1.09317779541	539.0	-347.0	None	None	0
3.0.1	2019_Mar_08_0844	s	s	12	1	Capacity	80	1_1	1	1	1	2	23_1_2	0	1	1	0	4.10910892487	-400.0	200.0	-408.0	203.0	1
3.0.1	2019_Mar_08_0844	s	s	12	1	Capacity	81	1_1	1	1	1	3	23_1_3	0	2	1	0	3.31978106499	94.0	-392.0	96.0	-407.0	1
3.0.1	2019_Mar_08_0844	s	s	12	1	Capacity	82	ABS	0	0	1	2	24_1_2	NA	NA	0	1	5.72985696793	None	None	None	None	1
3.0.1	2019_Mar_08_0844	s	s	12	1	Capacity	83	1_4	1	4	1	2	23_1_2	0	2	1	0	0.737933158875	18.0	244.0	15.0	233.0	1
3.0.1	2019_Mar_08_0844	s	s	12	1	Capacity	84	ABS	0	0	1	3	24_1_3	NA	NA	0	1	1.96733808517	None	None	None	None	1
3.0.1	2019_Mar_08_0844	s	s	12	1	Capacity	85	1_2	1	2	1	3	23_1_3	0	1	1	0	2.64562487602	-129.0	-38.0	-125.0	-42.0	1
3.0.1	2019_Mar_08_0844	s	s	12	1	Capacity	86	ABS	0	0	1	1	24_1_1	NA	NA	0	1	0.998936891556	None	None	None	None	1
3.0.1	2019_Mar_08_0844	s	s	12	1	Capacity	87	1_1	1	1	1	4	23_1_4	0	3	1	0	0.686534166336	-73.0	-223.0	-77.0	-233.0	1
3.0.1	2019_Mar_08_0844	s	s	12	1	Capacity	88	1_2	1	2	1	1	23_1_1	0	-1	0	1	0.775489807129	-206.0	-244.0	None	None	0
3.0.1	2019_Mar_08_0844	s	s	12	1	Capacity	89	ABS	0	0	1	3	24_1_3	NA	NA	0	1	2.91381788254	None	None	None	None	1
3.0.1	2019_Mar_08_0844	s	s	12	1	Capacity	90	ABS	0	0	1	4	24_1_4	NA	NA	0	1	2.37507081032	None	None	None	None	1
3.0.1	2019_Mar_08_0844	s	s	12	1	Capacity	91	ABS	0	0	1	2	24_1_2	NA	NA	0	1	6.1785838604	None	None	None	None	1
3.0.1	2019_Mar_08_0844	s	s	12	1	Capacity	92	1_4	1	4	1	3	23_1_3	0	1	1	0	1.71640992165	476.0	-159.0	477.0	-149.0	1
3.0.1	2019_Mar_08_0844	s	s	12	1	Capacity	93	1_3	1	3	1	2	23_1_2	0	1	1	0	3.33056282997	-165.0	-192.0	-168.0	-205.0	1
3.0.1	2019_Mar_08_0844	s	s	12	1	Capacity	94	1_2	1	2	1	4	23_1_4	0	2	1	0	0.815961837769	-223.0	135.0	-220.0	128.0	1
3.0.1	2019_Mar_08_0844	s	s	12	1	Capacity	95	ABS	0	0	1	1	24_1_1	NA	NA	0	1	1.35707497597	None	None	None	None	1
3.0.1	2019_Mar_08_0844	s	s	12	1	Capacity	96	ABS	0	0	1	3	24_1_3	NA	NA	0	1	2.70433092117	None	None	None	None	1
3.0.1	2019_Mar_08_0844	s	s	12	1	SIC	1	ABS	0	0	4	1	24_4_1	NA	NA	0	1	1.0342798233	None	None	None	None	1
3.0.1	2019_Mar_08_0844	s	s	12	1	SIC	2	ABS	0	0	2	4	24_2_4	NA	NA	0	1	2.77781701088	None	None	None	None	1
3.0.1	2019_Mar_08_0844	s	s	12	1	SIC	3	ABS	0	0	1	1	24_1_1	NA	NA	0	1	0.899724960327	None	None	None	None	1
3.0.1	2019_Mar_08_0844	s	s	12	1	SIC	4	4_3	4	3	4	2	23_4_2	0	1	1	0	2.83411502838	248.0	353.0	260.0	359.0	1
3.0.1	2019_Mar_08_0844	s	s	12	1	SIC	5	ABS	0	0	4	1	24_4_1	NA	NA	0	1	1.13311910629	None	None	None	None	1
3.0.1	2019_Mar_08_0844	s	s	12	1	SIC	6	ABS	0	0	1	2	24_1_2	NA	NA	0	1	3.89744305611	None	None	None	None	1
3.0.1	2019_Mar_08_0844	s	s	12	1	SIC	7	ABS	0	0	1	2	24_1_2	NA	NA	0	1	5.83817601204	None	None	None	None	1
3.0.1	2019_Mar_08_0844	s	s	12	1	SIC	8	ABS	0	0	1	4	24_1_4	NA	NA	0	1	1.92808794975	None	None	None	None	1
3.0.1	2019_Mar_08_0844	s	s	12	1	SIC	9	ABS	0	0	3	2	24_3_2	NA	NA	0	1	3.58636903763	None	None	None	None	1
3.0.1	2019_Mar_08_0844	s	s	12	1	SIC	10	ABS	0	0	2	1	24_2_1	NA	NA	0	1	1.0970890522	None	None	None	None	1
3.0.1	2019_Mar_08_0844	s	s	12	1	SIC	11	3_3	3	3	1	1	23_1_1	2	2	1	0	0.795065879822	428.0	139.0	429.0	137.0	1
3.0.1	2019_Mar_08_0844	s	s	12	1	SIC	12	ABS	0	0	3	2	24_3_2	NA	NA	0	1	3.52752995491	None	None	None	None	1
3.0.1	2019_Mar_08_0844	s	s	12	1	SIC	13	4_3	4	3	1	4	23_1_4	3	-1	1	0	0.613786935806	149.0	187.0	143.0	189.0	1
3.0.1	2019_Mar_08_0844	s	s	12	1	SIC	14	ABS	0	0	1	4	24_1_4	NA	NA	0	1	4.30969309807	None	None	None	None	1
3.0.1	2019_Mar_08_0844	s	s	12	1	SIC	15	2_3	2	3	1	3	23_1_3	-1	0	0	1	9.26709198952	-361.0	-358.0	None	None	0
3.0.1	2019_Mar_08_0844	s	s	12	1	SIC	16	1_1	1	1	2	1	23_2_1	1	0	0	1	0.735895872116	-153.0	406.0	None	None	0
3.0.1	2019_Mar_08_0844	s	s	12	1	SIC	17	ABS	0	0	1	4	24_1_4	NA	NA	0	1	2.59859204292	None	None	None	None	1
3.0.1	2019_Mar_08_0844	s	s	12	1	SIC	18	1_2	1	2	4	2	23_4_2	3	0	1	0	2.00359106064	486.0	-216.0	478.0	-222.0	1
3.0.1	2019_Mar_08_0844	s	s	12	1	SIC	19	2_1	2	1	3	1	23_3_1	1	0	1	0	1.66932582855	387.0	13.0	384.0	12.0	1
3.0.1	2019_Mar_08_0844	s	s	12	1	SIC	20	ABS	0	0	4	2	24_4_2	NA	NA	0	1	6.5031979084	None	None	None	None	1
3.0.1	2019_Mar_08_0844	s	s	12	1	SIC	21	ABS	0	0	1	4	24_1_4	NA	NA	0	1	0.795015096664	None	None	None	None	1
3.0.1	2019_Mar_08_0844	s	s	12	1	SIC	22	ABS	0	0	1	3	24_1_3	NA	NA	0	1	5.92689704895	None	None	None	None	1
3.0.1	2019_Mar_08_0844	s	s	12	1	SIC	23	3_1	3	1	4	1	23_4_1	-1	0	1	0	0.732763051987	-53.0	-318.0	-49.0	-329.0	1
3.0.1	2019_Mar_08_0844	s	s	12	1	SIC	24	ABS	0	0	3	1	24_3_1	NA	NA	0	1	0.619436979294	None	None	None	None	1
3.0.1	2019_Mar_08_0844	s	s	12	1	SIC	25	ABS	0	0	4	3	24_4_3	NA	NA	0	1	1.10481595993	None	None	None	None	1
3.0.1	2019_Mar_08_0844	s	s	12	1	SIC	26	1_3	1	3	4	3	23_4_3	3	0	1	0	0.846018075943	-228.0	-115.0	-219.0	-112.0	1
3.0.1	2019_Mar_08_0844	s	s	12	1	SIC	27	ABS	0	0	3	3	24_3_3	NA	NA	0	1	0.97549200058	None	None	None	None	1
3.0.1	2019_Mar_08_0844	s	s	12	1	SIC	28	ABS	0	0	2	4	24_2_4	NA	NA	0	1	0.757879018784	None	None	None	None	1
3.0.1	2019_Mar_08_0844	s	s	12	1	SIC	29	ABS	0	0	4	3	24_4_3	NA	NA	0	1	2.68087601662	None	None	None	None	1
3.0.1	2019_Mar_08_0844	s	s	12	1	SIC	30	ABS	0	0	1	3	24_1_3	NA	NA	0	1	3.45047307014	None	None	None	None	1
3.0.1	2019_Mar_08_0844	s	s	12	1	SIC	31	ABS	0	0	2	1	24_2_1	NA	NA	0	1	3.65700697899	None	None	None	None	1
3.0.1	2019_Mar_08_0844	s	s	12	1	SIC	32	ABS	0	0	1	1	24_1_1	NA	NA	0	1	0.86967086792	None	None	None	None	1
3.0.1	2019_Mar_08_0844	s	s	12	1	SIC	33	2_2	2	2	3	4	23_3_4	1	2	1	0	0.763750076294	482.0	183.0	484.0	186.0	1
3.0.1	2019_Mar_08_0844	s	s	12	1	SIC	34	ABS	0	0	4	4	24_4_4	NA	NA	0	1	0.516737937927	None	None	None	None	1
3.0.1	2019_Mar_08_0844	s	s	12	1	SIC	35	2_2	2	2	2	4	23_2_4	0	2	1	0	0.799077987671	-45.0	319.0	-52.0	317.0	1
3.0.1	2019_Mar_08_0844	s	s	12	1	SIC	36	ABS	0	0	4	1	24_4_1	NA	NA	0	1	0.740223884583	None	None	None	None	1
3.0.1	2019_Mar_08_0844	s	s	12	1	SIC	37	1_3	1	3	1	2	23_1_2	0	1	0	1	1.70466184616	-412.0	-44.0	None	None	0
3.0.1	2019_Mar_08_0844	s	s	12	1	SIC	38	2_1	2	1	3	2	23_3_2	1	1	1	0	0.728501081467	-1.0	109.0	2.0	105.0	1
3.0.1	2019_Mar_08_0844	s	s	12	1	SIC	39	4_4	4	4	1	3	23_1_3	3	1	1	0	0.82793712616	71.0	-118.0	77.0	-115.0	1
3.0.1	2019_Mar_08_0844	s	s	12	1	SIC	40	ABS	0	0	2	3	24_2_3	NA	NA	0	1	0.954643011093	None	None	None	None	1
3.0.1	2019_Mar_08_0844	s	s	12	1	SIC	41	4_2	4	2	1	3	23_1_3	3	1	1	0	0.717087984085	-479.0	-363.0	-479.0	-366.0	1
3.0.1	2019_Mar_08_0844	s	s	12	1	SIC	42	1_2	1	2	3	2	23_3_2	2	0	1	0	0.681459903717	267.0	373.0	264.0	371.0	1
3.0.1	2019_Mar_08_0844	s	s	12	1	SIC	43	ABS	0	0	2	2	24_2_2	NA	NA	0	1	0.893133878708	None	None	None	None	1
3.0.1	2019_Mar_08_0844	s	s	12	1	SIC	44	2_4	2	4	2	2	23_2_2	0	2	1	0	1.20586705208	421.0	163.0	425.0	164.0	1
3.0.1	2019_Mar_08_0844	s	s	12	1	SIC	45	ABS	0	0	4	3	24_4_3	NA	NA	0	1	1.26954317093	None	None	None	None	1
3.0.1	2019_Mar_08_0844	s	s	12	1	SIC	46	4_1	4	1	2	2	23_2_2	2	1	1	0	0.555953979492	-179.0	-403.0	-168.0	-399.0	1
3.0.1	2019_Mar_08_0844	s	s	12	1	SIC	47	1_2	1	2	1	3	23_1_3	0	1	0	1	0.65793800354	-356.0	303.0	None	None	0
3.0.1	2019_Mar_08_0844	s	s	12	1	SIC	48	4_3	4	3	2	2	23_2_2	2	1	1	0	0.732412099838	446.0	-148.0	447.0	-154.0	1
3.0.1	2019_Mar_08_0844	s	s	12	1	SIC	49	3_4	3	4	1	4	23_1_4	2	0	1	0	0.815021038055	94.0	379.0	107.0	385.0	1
3.0.1	2019_Mar_08_0844	s	s	12	1	SIC	50	2_1	2	1	4	4	23_4_4	2	3	1	0	0.504945039749	-103.0	403.0	-112.0	401.0	1
3.0.1	2019_Mar_08_0844	s	s	12	1	SIC	51	ABS	0	0	2	1	24_2_1	NA	NA	0	1	0.799045085907	None	None	None	None	1
3.0.1	2019_Mar_08_0844	s	s	12	1	SIC	52	3_2	3	2	3	4	23_3_4	0	2	1	0	1.18718099594	-501.0	1.0	-502.0	-10.0	1
3.0.1	2019_Mar_08_0844	s	s	12	1	SIC	53	2_3	2	3	1	4	23_1_4	-1	-1	1	0	2.33269000053	58.0	110.0	67.0	114.0	1
3.0.1	2019_Mar_08_0844	s	s	12	1	SIC	54	1_2	1	2	1	1	23_1_1	0	-1	1	0	0.913868904114	127.0	201.0	137.0	201.0	1
3.0.1	2019_Mar_08_0844	s	s	12	1	SIC	55	ABS	0	0	3	3	24_3_3	NA	NA	0	1	2.86902713776	None	None	None	None	1
3.0.1	2019_Mar_08_0844	s	s	12	1	SIC	56	ABS	0	0	1	3	24_1_3	NA	NA	0	1	3.41009879112	None	None	None	None	1
3.0.1	2019_Mar_08_0844	s	s	12	1	SIC	57	ABS	0	0	2	3	24_2_3	NA	NA	0	1	5.4485578537	None	None	None	None	1
3.0.1	2019_Mar_08_0844	s	s	12	1	SIC	58	3_3	3	3	2	1	23_2_1	1	2	1	0	2.97011399269	267.0	192.0	269.0	201.0	1
3.0.1	2019_Mar_08_0844	s	s	12	1	SIC	59	4_3	4	3	4	4	23_4_4	0	-1	1	0	1.28122711182	-518.0	261.0	-512.0	265.0	1
3.0.1	2019_Mar_08_0844	s	s	12	1	SIC	60	1_4	1	4	1	1	23_1_1	0	3	1	0	0.790165185928	-74.0	-212.0	-73.0	-202.0	1
3.0.1	2019_Mar_08_0844	s	s	12	1	SIC	61	3_4	3	4	2	1	23_2_1	1	3	1	0	0.563848018646	-125.0	-199.0	-130.0	-204.0	1
3.0.1	2019_Mar_08_0844	s	s	12	1	SIC	62	ABS	0	0	2	1	24_2_1	NA	NA	0	1	0.815764904022	None	None	None	None	1
3.0.1	2019_Mar_08_0844	s	s	12	1	SIC	63	4_2	4	2	2	2	23_2_2	2	0	1	0	0.521084070206	-512.0	-318.0	-511.0	-322.0	1
3.0.1	2019_Mar_08_0844	s	s	12	1	SIC	64	ABS	0	0	4	2	24_4_2	NA	NA	0	1	1.70462393761	None	None	None	None	1
3.0.1	2019_Mar_08_0844	s	s	12	1	SIC	65	2_4	2	4	1	4	23_1_4	-1	0	0	1	1.41514086723	-168.0	260.0	None	None	0
3.0.1	2019_Mar_08_0844	s	s	12	1	SIC	66	ABS	0	0	3	2	24_3_2	NA	NA	0	1	1.99004387856	None	None	None	None	1
3.0.1	2019_Mar_08_0844	s	s	12	1	SIC	67	ABS	0	0	2	4	24_2_4	NA	NA	0	1	0.951951026917	None	None	None	None	1
3.0.1	2019_Mar_08_0844	s	s	12	1	SIC	68	ABS	0	0	2	3	24_2_3	NA	NA	0	1	1.83442592621	None	None	None	None	1
3.0.1	2019_Mar_08_0844	s	s	12	1	SIC	69	1_4	1	4	3	2	23_3_2	2	2	1	0	0.580692052841	-404.0	-175.0	-403.0	-181.0	1
3.0.1	2019_Mar_08_0844	s	s	12	1	SIC	70	3_4	3	4	3	1	23_3_1	0	3	1	0	0.672614097595	194.0	380.0	196.0	386.0	1
3.0.1	2019_Mar_08_0844	s	s	12	1	SIC	71	ABS	0	0	2	2	24_2_2	NA	NA	0	1	1.91311311722	None	None	None	None	1
3.0.1	2019_Mar_08_0844	s	s	12	1	SIC	72	ABS	0	0	3	4	24_3_4	NA	NA	0	1	1.20770597458	None	None	None	None	1
3.0.1	2019_Mar_08_0844	s	s	12	1	SIC	73	ABS	0	0	1	1	24_1_1	NA	NA	0	1	0.885673046112	None	None	None	None	1
3.0.1	2019_Mar_08_0844	s	s	12	1	SIC	74	2_3	2	3	2	4	23_2_4	0	-1	1	0	0.851639032364	524.0	68.0	521.0	71.0	1
3.0.1	2019_Mar_08_0844	s	s	12	1	SIC	75	1_1	1	1	1	3	23_1_3	0	2	1	0	1.79215812683	-309.0	-58.0	-300.0	-53.0	1
3.0.1	2019_Mar_08_0844	s	s	12	1	SIC	76	1_4	1	4	3	4	23_3_4	2	0	1	0	0.586949825287	472.0	-62.0	469.0	-62.0	1
3.0.1	2019_Mar_08_0844	s	s	12	1	SIC	77	1_4	1	4	2	1	23_2_1	1	3	1	0	0.954807043076	123.0	-321.0	120.0	-327.0	1
3.0.1	2019_Mar_08_0844	s	s	12	1	SIC	78	ABS	0	0	3	1	24_3_1	NA	NA	0	1	0.710572004318	None	None	None	None	1
3.0.1	2019_Mar_08_0844	s	s	12	1	SIC	79	ABS	0	0	4	2	24_4_2	NA	NA	0	1	1.18721103668	None	None	None	None	1
3.0.1	2019_Mar_08_0844	s	s	12	1	SIC	80	ABS	0	0	1	3	24_1_3	NA	NA	0	1	2.20153188705	None	None	None	None	1
3.0.1	2019_Mar_08_0844	s	s	12	1	SIC	81	ABS	0	0	4	2	24_4_2	NA	NA	0	1	3.01014900208	None	None	None	None	1
3.0.1	2019_Mar_08_0844	s	s	12	1	SIC	82	ABS	0	0	4	1	24_4_1	NA	NA	0	1	1.15194797516	None	None	None	None	1
3.0.1	2019_Mar_08_0844	s	s	12	1	SIC	83	ABS	0	0	3	4	24_3_4	NA	NA	0	1	4.91538310051	None	None	None	None	1
3.0.1	2019_Mar_08_0844	s	s	12	1	SIC	84	1_1	1	1	1	4	23_1_4	0	3	1	0	4.22154402733	-296.0	-77.0	-301.0	-73.0	1
3.0.1	2019_Mar_08_0844	s	s	12	1	SIC	85	3_3	3	3	1	3	23_1_3	2	0	1	0	0.646105051041	0.0	106.0	3.0	102.0	1
3.0.1	2019_Mar_08_0844	s	s	12	1	SIC	86	ABS	0	0	1	2	24_1_2	NA	NA	0	1	1.21615600586	None	None	None	None	1
3.0.1	2019_Mar_08_0844	s	s	12	1	SIC	87	ABS	0	0	2	4	24_2_4	NA	NA	0	1	1.86926817894	None	None	None	None	1
3.0.1	2019_Mar_08_0844	s	s	12	1	SIC	88	ABS	0	0	1	4	24_1_4	NA	NA	0	1	0.839112997055	None	None	None	None	1
3.0.1	2019_Mar_08_0844	s	s	12	1	SIC	89	1_1	1	1	2	3	23_2_3	1	2	1	0	1.17543005943	117.0	-214.0	112.0	-215.0	1
3.0.1	2019_Mar_08_0844	s	s	12	1	SIC	90	ABS	0	0	1	3	24_1_3	NA	NA	0	1	3.31593203545	None	None	None	None	1
3.0.1	2019_Mar_08_0844	s	s	12	1	SIC	91	ABS	0	0	4	4	24_4_4	NA	NA	0	1	1.56387400627	None	None	None	None	1
3.0.1	2019_Mar_08_0844	s	s	12	1	SIC	92	ABS	0	0	4	3	24_4_3	NA	NA	0	1	3.85456299782	None	None	None	None	1
3.0.1	2019_Mar_08_0844	s	s	12	1	SIC	93	3_2	3	2	2	3	23_2_3	1	1	1	0	0.837297201157	353.0	-68.0	349.0	-68.0	1
3.0.1	2019_Mar_08_0844	s	s	12	1	SIC	94	2_3	2	3	2	1	23_2_1	0	2	1	0	1.62233901024	289.0	139.0	291.0	140.0	1
3.0.1	2019_Mar_08_0844	s	s	12	1	SIC	95	3_1	3	1	3	2	23_3_2	0	1	0	1	1.06254816055	31.0	-250.0	None	None	0
3.0.1	2019_Mar_08_0844	s	s	12	1	SIC	96	ABS	0	0	1	1	24_1_1	NA	NA	0	1	0.951971054077	None	None	None	None	1
3.0.1	2019_Mar_08_0844	s	s	12	1	SIC	97	ABS	0	0	1	1	24_1_1	NA	NA	0	1	0.658132076263	None	None	None	None	1
3.0.1	2019_Mar_08_0844	s	s	12	1	SIC	98	1_3	1	3	1	1	23_1_1	0	2	1	0	2.16624307632	-377.0	364.0	-375.0	360.0	1
3.0.1	2019_Mar_08_0844	s	s	12	1	SIC	99	ABS	0	0	1	3	24_1_3	NA	NA	0	1	3.39323592186	None	None	None	None	1
3.0.1	2019_Mar_08_0844	s	s	12	1	SIC	100	ABS	0	0	3	4	24_3_4	NA	NA	0	1	1.1926138401	None	None	None	None	1
3.0.1	2019_Mar_08_0844	s	s	12	1	SIC	101	4_3	4	3	1	1	23_1_1	3	2	1	0	0.657814979553	83.0	389.0	91.0	391.0	1
3.0.1	2019_Mar_08_0844	s	s	12	1	SIC	102	4_2	4	2	1	2	23_1_2	3	0	1	0	0.580837011337	-400.0	321.0	-402.0	313.0	1
3.0.1	2019_Mar_08_0844	s	s	12	1	SIC	103	3_1	3	1	4	4	23_4_4	-1	3	1	0	0.810744047165	-2.0	-371.0	-6.0	-378.0	1
3.0.1	2019_Mar_08_0844	s	s	12	1	SIC	104	ABS	0	0	3	3	24_3_3	NA	NA	0	1	3.82169699669	None	None	None	None	1
3.0.1	2019_Mar_08_0844	s	s	12	1	SIC	105	ABS	0	0	1	3	24_1_3	NA	NA	0	1	1.95193600655	None	None	None	None	1
3.0.1	2019_Mar_08_0844	s	s	12	1	SIC	106	2_4	2	4	1	3	23_1_3	-1	1	1	0	0.822563886642	-497.0	354.0	-507.0	362.0	1
3.0.1	2019_Mar_08_0844	s	s	12	1	SIC	107	ABS	0	0	1	4	24_1_4	NA	NA	0	1	2.52795004845	None	None	None	None	1
3.0.1	2019_Mar_08_0844	s	s	12	1	SIC	108	ABS	0	0	3	1	24_3_1	NA	NA	0	1	1.01078510284	None	None	None	None	1
3.0.1	2019_Mar_08_0844	s	s	12	1	SIC	109	ABS	0	0	3	4	24_3_4	NA	NA	0	1	0.744248867035	None	None	None	None	1
3.0.1	2019_Mar_08_0844	s	s	12	1	SIC	110	ABS	0	0	4	2	24_4_2	NA	NA	0	1	1.37251901627	None	None	None	None	1
3.0.1	2019_Mar_08_0844	s	s	12	1	SIC	111	ABS	0	0	3	3	24_3_3	NA	NA	0	1	0.627889156342	None	None	None	None	1
3.0.1	2019_Mar_08_0844	s	s	12	1	SIC	112	3_2	3	2	1	2	23_1_2	2	0	0	1	0.987205028534	475.0	-81.0	None	None	0
3.0.1	2019_Mar_08_0844	s	s	12	1	SIC	113	ABS	0	0	4	1	24_4_1	NA	NA	0	1	0.822531938553	None	None	None	None	1
3.0.1	2019_Mar_08_0844	s	s	12	1	SIC	114	ABS	0	0	4	3	24_4_3	NA	NA	0	1	2.33970713615	None	None	None	None	1
3.0.1	2019_Mar_08_0844	s	s	12	1	SIC	115	ABS	0	0	4	1	24_4_1	NA	NA	0	1	0.752068042755	None	None	None	None	1
3.0.1	2019_Mar_08_0844	s	s	12	1	SIC	116	ABS	0	0	1	4	24_1_4	NA	NA	0	1	2.47433114052	None	None	None	None	1
3.0.1	2019_Mar_08_0844	s	s	12	1	SIC	117	ABS	0	0	4	2	24_4_2	NA	NA	0	1	5.31527996063	None	None	None	None	1
3.0.1	2019_Mar_08_0844	s	s	12	1	SIC	118	3_4	3	4	1	1	23_1_1	2	3	1	0	0.716734886169	88.0	-99.0	96.0	-101.0	1
3.0.1	2019_Mar_08_0844	s	s	12	1	SIC	119	4_3	4	3	3	4	23_3_4	1	-1	1	0	0.704960823059	-296.0	45.0	-293.0	54.0	1
3.0.1	2019_Mar_08_0844	s	s	12	1	SIC	120	ABS	0	0	1	3	24_1_3	NA	NA	0	1	2.89770913124	None	None	None	None	1
3.0.1	2019_Mar_08_0844	s	s	12	1	SIC	121	2_1	2	1	1	4	23_1_4	-1	3	1	0	0.963750123978	338.0	-242.0	350.0	-234.0	1
3.0.1	2019_Mar_08_0844	s	s	12	1	SIC	122	1_4	1	4	2	4	23_2_4	1	0	0	1	2.04097485542	-94.0	212.0	None	None	0
3.0.1	2019_Mar_08_0844	s	s	12	1	SIC	123	ABS	0	0	3	2	24_3_2	NA	NA	0	1	2.61318922043	None	None	None	None	1
3.0.1	2019_Mar_08_0844	s	s	12	1	SIC	124	ABS	0	0	4	1	24_4_1	NA	NA	0	1	1.36869502068	None	None	None	None	1
3.0.1	2019_Mar_08_0844	s	s	12	1	SIC	125	3_2	3	2	2	1	23_2_1	1	-1	1	0	1.7987511158	-266.0	-333.0	-260.0	-342.0	1
3.0.1	2019_Mar_08_0844	s	s	12	1	SIC	126	ABS	0	0	1	4	24_1_4	NA	NA	0	1	4.44501686096	None	None	None	None	1
3.0.1	2019_Mar_08_0844	s	s	12	1	SIC	127	1_1	1	1	4	2	23_4_2	3	1	1	0	0.634391069412	236.0	-304.0	241.0	-298.0	1
3.0.1	2019_Mar_08_0844	s	s	12	1	SIC	128	3_3	3	3	3	1	23_3_1	0	2	1	0	0.957243919373	162.0	-143.0	164.0	-147.0	1
3.0.1	2019_Mar_08_0844	s	s	12	1	SIC	129	1_3	1	3	4	4	23_4_4	3	-1	1	0	0.555006980896	-515.0	177.0	-509.0	178.0	1
3.0.1	2019_Mar_08_0844	s	s	12	1	SIC	130	2_4	2	4	4	3	23_4_3	2	1	1	0	0.662850141525	520.0	74.0	519.0	72.0	1
3.0.1	2019_Mar_08_0844	s	s	12	1	SIC	131	ABS	0	0	4	3	24_4_3	NA	NA	0	1	2.98668694496	None	None	None	None	1
3.0.1	2019_Mar_08_0844	s	s	12	1	SIC	132	4_2	4	2	3	4	23_3_4	1	2	1	0	0.599149942398	100.0	-233.0	95.0	-232.0	1
3.0.1	2019_Mar_08_0844	s	s	12	1	SIC	133	ABS	0	0	3	2	24_3_2	NA	NA	0	1	4.82577991486	None	None	None	None	1
3.0.1	2019_Mar_08_0844	s	s	12	1	SIC	134	1_1	1	1	3	2	23_3_2	2	1	1	0	0.76735496521	-473.0	331.0	-479.0	340.0	1
3.0.1	2019_Mar_08_0844	s	s	12	1	SIC	135	ABS	0	0	3	1	24_3_1	NA	NA	0	1	0.954792976379	None	None	None	None	1
3.0.1	2019_Mar_08_0844	s	s	12	1	SIC	136	ABS	0	0	2	2	24_2_2	NA	NA	0	1	3.71583795547	None	None	None	None	1
3.0.1	2019_Mar_08_0844	s	s	12	1	SIC	137	4_3	4	3	1	3	23_1_3	3	0	1	0	0.681313037872	484.0	-72.0	499.0	-65.0	1
3.0.1	2019_Mar_08_0844	s	s	12	1	SIC	138	2_3	2	3	3	1	23_3_1	1	2	1	0	0.940160989761	-232.0	210.0	-229.0	206.0	1
3.0.1	2019_Mar_08_0844	s	s	12	1	SIC	139	3_4	3	4	2	3	23_2_3	1	1	1	0	0.874579906464	-49.0	-26.0	-42.0	-27.0	1
3.0.1	2019_Mar_08_0844	s	s	12	1	SIC	140	2_3	2	3	4	3	23_4_3	2	0	1	0	0.599133968353	-144.0	-3.0	-143.0	2.0	1
3.0.1	2019_Mar_08_0844	s	s	12	1	SIC	141	3_2	3	2	1	3	23_1_3	2	1	1	0	0.540313005447	408.0	-172.0	416.0	-169.0	1
3.0.1	2019_Mar_08_0844	s	s	12	1	SIC	142	ABS	0	0	4	2	24_4_2	NA	NA	0	1	0.803645849228	None	None	None	None	1
3.0.1	2019_Mar_08_0844	s	s	12	1	SIC	143	4_1	4	1	3	3	23_3_3	1	2	1	0	0.531272888184	-418.0	-327.0	-421.0	-318.0	1
3.0.1	2019_Mar_08_0844	s	s	12	1	SIC	144	4_1	4	1	3	2	23_3_2	1	1	1	0	0.619693040848	-161.0	-347.0	-153.0	-348.0	1
3.0.1	2019_Mar_08_0844	s	s	12	1	SIC	145	ABS	0	0	4	3	24_4_3	NA	NA	0	1	1.76387810707	None	None	None	None	1
3.0.1	2019_Mar_08_0844	s	s	12	1	SIC	146	1_3	1	3	2	1	23_2_1	1	2	0	1	0.687803983688	341.0	-252.0	None	None	0
3.0.1	2019_Mar_08_0844	s	s	12	1	SIC	147	ABS	0	0	3	4	24_3_4	NA	NA	0	1	0.578474998474	None	None	None	None	1
3.0.1	2019_Mar_08_0844	s	s	12	1	SIC	148	1_2	1	2	3	1	23_3_1	2	-1	1	0	0.699858903885	-360.0	-178.0	-365.0	-189.0	1
3.0.1	2019_Mar_08_0844	s	s	12	1	SIC	149	3_4	3	4	4	2	23_4_2	-1	2	1	0	0.681895017624	128.0	347.0	128.0	342.0	1
3.0.1	2019_Mar_08_0844	s	s	12	1	SIC	150	ABS	0	0	2	4	24_2_4	NA	NA	0	1	1.88109993935	None	None	None	None	1
3.0.1	2019_Mar_08_0844	s	s	12	1	SIC	151	2_3	2	3	1	1	23_1_1	-1	2	0	1	0.736821889877	-74.0	-287.0	None	None	0
3.0.1	2019_Mar_08_0844	s	s	12	1	SIC	152	2_4	2	4	4	4	23_4_4	2	0	1	0	0.672538042068	-186.0	74.0	-185.0	78.0	1
3.0.1	2019_Mar_08_0844	s	s	12	1	SIC	153	ABS	0	0	3	2	24_3_2	NA	NA	0	1	0.944379806519	None	None	None	None	1
3.0.1	2019_Mar_08_0844	s	s	12	1	SIC	154	2_4	2	4	4	1	23_4_1	2	3	1	0	0.763728141785	322.0	-130.0	327.0	-130.0	1
3.0.1	2019_Mar_08_0844	s	s	12	1	SIC	155	4_3	4	3	3	1	23_3_1	1	2	1	0	0.627055883408	160.0	223.0	148.0	229.0	1
3.0.1	2019_Mar_08_0844	s	s	12	1	SIC	156	2_1	2	1	3	4	23_3_4	1	3	1	0	0.523149967194	131.0	-91.0	125.0	-93.0	1
3.0.1	2019_Mar_08_0844	s	s	12	1	SIC	157	4_2	4	2	2	1	23_2_1	2	-1	1	0	0.532741069794	237.0	40.0	241.0	41.0	1
3.0.1	2019_Mar_08_0844	s	s	12	1	SIC	158	ABS	0	0	4	1	24_4_1	NA	NA	0	1	1.51099705696	None	None	None	None	1
3.0.1	2019_Mar_08_0844	s	s	12	1	SIC	159	ABS	0	0	3	4	24_3_4	NA	NA	0	1	0.993225097656	None	None	None	None	1
3.0.1	2019_Mar_08_0844	s	s	12	1	SIC	160	3_3	3	3	3	4	23_3_4	0	-1	1	0	0.881403207779	-86.0	-324.0	-84.0	-331.0	1
3.0.1	2019_Mar_08_0844	s	s	12	1	SIC	161	ABS	0	0	4	4	24_4_4	NA	NA	0	1	0.981696844101	None	None	None	None	1
3.0.1	2019_Mar_08_0844	s	s	12	1	SIC	162	ABS	0	0	3	3	24_3_3	NA	NA	0	1	1.6987760067	None	None	None	None	1
3.0.1	2019_Mar_08_0844	s	s	12	1	SIC	163	1_2	1	2	4	1	23_4_1	3	-1	1	0	0.533704042435	30.0	-271.0	36.0	-280.0	1
3.0.1	2019_Mar_08_0844	s	s	12	1	SIC	164	2_2	2	2	4	1	23_4_1	2	-1	1	0	0.564166069031	374.0	322.0	383.0	328.0	1
3.0.1	2019_Mar_08_0844	s	s	12	1	SIC	165	2_4	2	4	3	2	23_3_2	1	2	1	0	0.66078209877	494.0	290.0	499.0	297.0	1
3.0.1	2019_Mar_08_0844	s	s	12	1	SIC	166	4_3	4	3	2	3	23_2_3	2	0	1	0	0.473956823349	118.0	-169.0	124.0	-178.0	1
3.0.1	2019_Mar_08_0844	s	s	12	1	SIC	167	3_4	3	4	1	3	23_1_3	2	1	1	0	0.521749019623	197.0	-147.0	195.0	-148.0	1
3.0.1	2019_Mar_08_0844	s	s	12	1	SIC	168	4_4	4	4	4	1	23_4_1	0	3	1	0	0.579746961594	281.0	187.0	285.0	190.0	1
3.0.1	2019_Mar_08_0844	s	s	12	1	SIC	169	3_2	3	2	3	3	23_3_3	0	1	0	1	4.10820102692	-232.0	-49.0	None	None	0
3.0.1	2019_Mar_08_0844	s	s	12	1	SIC	170	2_2	2	2	4	4	23_4_4	2	2	1	0	0.533275842667	-249.0	186.0	-253.0	183.0	1
3.0.1	2019_Mar_08_0844	s	s	12	1	SIC	171	ABS	0	0	2	3	24_2_3	NA	NA	0	1	3.03818202019	None	None	None	None	1
3.0.1	2019_Mar_08_0844	s	s	12	1	SIC	172	1_4	1	4	2	2	23_2_2	1	2	1	0	1.78979611397	-6.0	106.0	-7.0	100.0	1
3.0.1	2019_Mar_08_0844	s	s	12	1	SIC	173	ABS	0	0	2	4	24_2_4	NA	NA	0	1	1.14297199249	None	None	None	None	1
3.0.1	2019_Mar_08_0844	s	s	12	1	SIC	174	ABS	0	0	2	2	24_2_2	NA	NA	0	1	2.64981794357	None	None	None	None	1
3.0.1	2019_Mar_08_0844	s	s	12	1	SIC	175	ABS	0	0	1	3	24_1_3	NA	NA	0	1	1.17536091805	None	None	None	None	1
3.0.1	2019_Mar_08_0844	s	s	12	1	SIC	176	2_3	2	3	3	3	23_3_3	1	0	1	0	1.49584698677	372.0	284.0	380.0	286.0	1
3.0.1	2019_Mar_08_0844	s	s	12	1	SIC	177	ABS	0	0	1	1	24_1_1	NA	NA	0	1	8.55246710777	None	None	None	None	1
3.0.1	2019_Mar_08_0844	s	s	12	1	SIC	178	ABS	0	0	4	2	24_4_2	NA	NA	0	1	1.54675602913	None	None	None	None	1
3.0.1	2019_Mar_08_0844	s	s	12	1	SIC	179	2_2	2	2	3	2	23_3_2	1	0	1	0	1.26743507385	-307.0	203.0	-303.0	200.0	1
3.0.1	2019_Mar_08_0844	s	s	12	1	SIC	180	4_1	4	1	1	1	23_1_1	3	0	1	0	0.64950799942	-471.0	-254.0	-461.0	-256.0	1
3.0.1	2019_Mar_08_0844	s	s	12	1	SIC	181	ABS	0	0	1	2	24_1_2	NA	NA	0	1	1.0990459919	None	None	None	None	1
3.0.1	2019_Mar_08_0844	s	s	12	1	SIC	182	1_1	1	1	2	4	23_2_4	1	3	1	0	0.63432598114	-203.0	-345.0	-206.0	-349.0	1
3.0.1	2019_Mar_08_0844	s	s	12	1	SIC	183	3_4	3	4	4	4	23_4_4	-1	0	1	0	0.540304899216	181.0	-247.0	180.0	-246.0	1
3.0.1	2019_Mar_08_0844	s	s	12	1	SIC	184	3_3	3	3	2	2	23_2_2	1	1	1	0	0.999269008636	-233.0	138.0	-234.0	139.0	1
3.0.1	2019_Mar_08_0844	s	s	12	1	SIC	185	2_1	2	1	4	1	23_4_1	2	0	1	0	0.545349836349	-537.0	-16.0	-529.0	-11.0	1
3.0.1	2019_Mar_08_0844	s	s	12	1	SIC	186	3_1	3	1	2	3	23_2_3	1	2	1	0	0.587312936783	-407.0	92.0	-417.0	97.0	1
3.0.1	2019_Mar_08_0844	s	s	12	1	SIC	187	2_2	2	2	1	1	23_1_1	-1	-1	1	0	1.23421096802	357.0	199.0	358.0	196.0	1
3.0.1	2019_Mar_08_0844	s	s	12	1	SIC	188	3_2	3	2	4	2	23_4_2	-1	0	1	0	0.55496096611	286.0	-238.0	290.0	-242.0	1
3.0.1	2019_Mar_08_0844	s	s	12	1	SIC	189	ABS	0	0	3	1	24_3_1	NA	NA	0	1	0.881384134293	None	None	None	None	1
3.0.1	2019_Mar_08_0844	s	s	12	1	SIC	190	ABS	0	0	4	2	24_4_2	NA	NA	0	1	2.35153102875	None	None	None	None	1
3.0.1	2019_Mar_08_0844	s	s	12	1	SIC	191	4_2	4	2	2	3	23_2_3	2	1	1	0	0.634354114532	200.0	-269.0	198.0	-275.0	1
3.0.1	2019_Mar_08_0844	s	s	12	1	SIC	192	ABS	0	0	2	1	24_2_1	NA	NA	0	1	1.20190501213	None	None	None	None	1
3.0.1	2019_Mar_08_0844	s	s	12	1	SIC	193	3_1	3	1	3	4	23_3_4	0	3	1	0	0.563886165619	-141.0	-322.0	-143.0	-319.0	1
3.0.1	2019_Mar_08_0844	s	s	12	1	SIC	194	1_4	1	4	4	2	23_4_2	3	2	1	0	0.736570119858	-79.0	-33.0	-74.0	-39.0	1
3.0.1	2019_Mar_08_0844	s	s	12	1	SIC	195	ABS	0	0	2	3	24_2_3	NA	NA	0	1	2.92018389702	None	None	None	None	1
3.0.1	2019_Mar_08_0844	s	s	12	1	SIC	196	ABS	0	0	2	4	24_2_4	NA	NA	0	1	0.816118955612	None	None	None	None	1
3.0.1	2019_Mar_08_0844	s	s	12	1	SIC	197	1_4	1	4	1	3	23_1_3	0	1	1	0	0.971690893173	-185.0	-184.0	-183.0	-178.0	1
3.0.1	2019_Mar_08_0844	s	s	12	1	SIC	198	ABS	0	0	1	1	24_1_1	NA	NA	0	1	1.50060606003	None	None	None	None	1
3.0.1	2019_Mar_08_0844	s	s	12	1	SIC	199	ABS	0	0	2	3	24_2_3	NA	NA	0	1	1.2273888588	None	None	None	None	1
3.0.1	2019_Mar_08_0844	s	s	12	1	SIC	200	1_3	1	3	2	3	23_2_3	1	0	0	1	3.55762600899	325.0	387.0	None	None	0
3.0.1	2019_Mar_08_0844	s	s	12	1	SIC	201	ABS	0	0	1	4	24_1_4	NA	NA	0	1	0.745194911957	None	None	None	None	1
3.0.1	2019_Mar_08_0844	s	s	12	1	SIC	202	3_4	3	4	4	1	23_4_1	-1	3	1	0	0.599128961563	377.0	-210.0	376.0	-207.0	1
3.0.1	2019_Mar_08_0844	s	s	12	1	SIC	203	ABS	0	0	4	1	24_4_1	NA	NA	0	1	1.83406710625	None	None	None	None	1
3.0.1	2019_Mar_08_0844	s	s	12	1	SIC	204	2_2	2	2	4	2	23_4_2	2	0	1	0	0.756613016129	348.0	-204.0	357.0	-208.0	1
3.0.1	2019_Mar_08_0844	s	s	12	1	SIC	205	4_1	4	1	4	3	23_4_3	0	2	1	0	2.18683695793	-400.0	-121.0	-394.0	-115.0	1
3.0.1	2019_Mar_08_0844	s	s	12	1	SIC	206	ABS	0	0	3	3	24_3_3	NA	NA	0	1	3.32766485214	None	None	None	None	1
3.0.1	2019_Mar_08_0844	s	s	12	1	SIC	207	2_1	2	1	4	3	23_4_3	2	2	1	0	0.557038068771	322.0	411.0	319.0	418.0	1
3.0.1	2019_Mar_08_0844	s	s	12	1	SIC	208	ABS	0	0	2	3	24_2_3	NA	NA	0	1	2.66903185844	None	None	None	None	1
3.0.1	2019_Mar_08_0844	s	s	12	1	SIC	209	4_3	4	3	3	2	23_3_2	1	1	1	0	0.681926965714	308.0	361.0	299.0	364.0	1
3.0.1	2019_Mar_08_0844	s	s	12	1	SIC	210	4_2	4	2	4	1	23_4_1	0	-1	1	0	2.03394794464	428.0	80.0	437.0	78.0	1
3.0.1	2019_Mar_08_0844	s	s	12	1	SIC	211	ABS	0	0	2	1	24_2_1	NA	NA	0	1	0.869670152664	None	None	None	None	1
3.0.1	2019_Mar_08_0844	s	s	12	1	SIC	212	ABS	0	0	2	1	24_2_1	NA	NA	0	1	1.14534592628	None	None	None	None	1
3.0.1	2019_Mar_08_0844	s	s	12	1	SIC	213	2_3	2	3	3	4	23_3_4	1	-1	1	0	0.751984119415	-198.0	408.0	-197.0	409.0	1
3.0.1	2019_Mar_08_0844	s	s	12	1	SIC	214	ABS	0	0	3	2	24_3_2	NA	NA	0	1	1.59884810448	None	None	None	None	1
3.0.1	2019_Mar_08_0844	s	s	12	1	SIC	215	1_4	1	4	1	2	23_1_2	0	2	1	0	0.954860925674	162.0	52.0	155.0	49.0	1
3.0.1	2019_Mar_08_0844	s	s	12	1	SIC	216	4_4	4	4	2	4	23_2_4	2	0	1	0	0.646151065826	291.0	-298.0	299.0	-298.0	1
3.0.1	2019_Mar_08_0844	s	s	12	1	SIC	217	3_3	3	3	4	2	23_4_2	-1	1	1	0	0.544651985168	80.0	155.0	70.0	156.0	1
3.0.1	2019_Mar_08_0844	s	s	12	1	SIC	218	ABS	0	0	4	3	24_4_3	NA	NA	0	1	2.75606513023	None	None	None	None	1
3.0.1	2019_Mar_08_0844	s	s	12	1	SIC	219	1_3	1	3	4	2	23_4_2	3	1	1	0	0.610843896866	-6.0	197.0	0.0	190.0	1
3.0.1	2019_Mar_08_0844	s	s	12	1	SIC	220	ABS	0	0	3	1	24_3_1	NA	NA	0	1	1.3209028244	None	None	None	None	1
3.0.1	2019_Mar_08_0844	s	s	12	1	SIC	221	4_1	4	1	2	4	23_2_4	2	3	1	0	0.537930965424	1.0	401.0	-3.0	391.0	1
3.0.1	2019_Mar_08_0844	s	s	12	1	SIC	222	ABS	0	0	1	2	24_1_2	NA	NA	0	1	2.05087995529	None	None	None	None	1
3.0.1	2019_Mar_08_0844	s	s	12	1	SIC	223	ABS	0	0	4	4	24_4_4	NA	NA	0	1	0.634440898895	None	None	None	None	1
3.0.1	2019_Mar_08_0844	s	s	12	1	SIC	224	ABS	0	0	2	3	24_2_3	NA	NA	0	1	4.10384011269	None	None	None	None	1
3.0.1	2019_Mar_08_0844	s	s	12	1	SIC	225	1_2	1	2	4	3	23_4_3	3	1	1	0	0.554970026016	-160.0	137.0	-159.0	137.0	1
3.0.1	2019_Mar_08_0844	s	s	12	1	SIC	226	ABS	0	0	4	2	24_4_2	NA	NA	0	1	0.810791015625	None	None	None	None	1
3.0.1	2019_Mar_08_0844	s	s	12	1	SIC	227	ABS	0	0	3	4	24_3_4	NA	NA	0	1	0.646154165268	None	None	None	None	1
3.0.1	2019_Mar_08_0844	s	s	12	1	SIC	228	2_2	2	2	1	4	23_1_4	-1	2	1	0	0.733503818512	-139.0	-403.0	-135.0	-413.0	1
3.0.1	2019_Mar_08_0844	s	s	12	1	SIC	229	1_1	1	1	3	4	23_3_4	2	3	1	0	0.763771057129	-279.0	-201.0	-281.0	-212.0	1
3.0.1	2019_Mar_08_0844	s	s	12	1	SIC	230	4_1	4	1	4	4	23_4_4	0	3	1	0	3.06223082542	523.0	-189.0	516.0	-188.0	1
3.0.1	2019_Mar_08_0844	s	s	12	1	SIC	231	ABS	0	0	2	4	24_2_4	NA	NA	0	1	1.06282186508	None	None	None	None	1
3.0.1	2019_Mar_08_0844	s	s	12	1	SIC	232	ABS	0	0	3	3	24_3_3	NA	NA	0	1	1.09852719307	None	None	None	None	1
3.0.1	2019_Mar_08_0844	s	s	12	1	SIC	233	3_1	3	1	4	3	23_4_3	-1	2	1	0	0.634287834167	223.0	-206.0	214.0	-201.0	1
3.0.1	2019_Mar_08_0844	s	s	12	1	SIC	234	1_2	1	2	2	3	23_2_3	1	1	0	1	0.972090959549	519.0	2.0	None	None	0
3.0.1	2019_Mar_08_0844	s	s	12	1	SIC	235	ABS	0	0	3	4	24_3_4	NA	NA	0	1	0.747380018234	None	None	None	None	1
3.0.1	2019_Mar_08_0844	s	s	12	1	SIC	236	ABS	0	0	3	3	24_3_3	NA	NA	0	1	4.50056195259	None	None	None	None	1
3.0.1	2019_Mar_08_0844	s	s	12	1	SIC	237	3_1	3	1	4	2	23_4_2	-1	1	1	0	0.63431096077	35.0	230.0	33.0	235.0	1
3.0.1	2019_Mar_08_0844	s	s	12	1	SIC	238	1_1	1	1	1	2	23_1_2	0	1	1	0	3.0960791111	158.0	117.0	166.0	117.0	1
3.0.1	2019_Mar_08_0844	s	s	12	1	SIC	239	4_3	4	3	4	1	23_4_1	0	2	1	0	3.10701799393	-477.0	68.0	-480.0	75.0	1
3.0.1	2019_Mar_08_0844	s	s	12	1	SIC	240	1_4	1	4	3	3	23_3_3	2	1	1	0	0.587311029434	209.0	117.0	208.0	117.0	1
3.0.1	2019_Mar_08_0844	s	s	12	1	SIC	241	1_3	1	3	3	1	23_3_1	2	2	1	0	1.19244217873	-229.0	-132.0	-222.0	-137.0	1
3.0.1	2019_Mar_08_0844	s	s	12	1	SIC	242	2_1	2	1	4	2	23_4_2	2	1	1	0	0.533881902695	316.0	-170.0	313.0	-171.0	1
3.0.1	2019_Mar_08_0844	s	s	12	1	SIC	243	3_1	3	1	1	4	23_1_4	2	3	1	0	0.669631004333	-527.0	196.0	-532.0	194.0	1
3.0.1	2019_Mar_08_0844	s	s	12	1	SIC	244	ABS	0	0	2	1	24_2_1	NA	NA	0	1	0.849957942963	None	None	None	None	1
3.0.1	2019_Mar_08_0844	s	s	12	1	SIC	245	ABS	0	0	4	4	24_4_4	NA	NA	0	1	0.951917886734	None	None	None	None	1
3.0.1	2019_Mar_08_0844	s	s	12	1	SIC	246	ABS	0	0	3	3	24_3_3	NA	NA	0	1	0.669633150101	None	None	None	None	1
3.0.1	2019_Mar_08_0844	s	s	12	1	SIC	247	ABS	0	0	2	2	24_2_2	NA	NA	0	1	3.9708571434	None	None	None	None	1
3.0.1	2019_Mar_08_0844	s	s	12	1	SIC	248	ABS	0	0	1	2	24_1_2	NA	NA	0	1	2.18686914444	None	None	None	None	1
3.0.1	2019_Mar_08_0844	s	s	12	1	SIC	249	4_4	4	4	2	3	23_2_3	2	1	1	0	0.599147081375	56.0	-265.0	66.0	-262.0	1
3.0.1	2019_Mar_08_0844	s	s	12	1	SIC	250	ABS	0	0	1	1	24_1_1	NA	NA	0	1	2.56316399574	None	None	None	None	1
3.0.1	2019_Mar_08_0844	s	s	12	1	SIC	251	4_4	4	4	2	2	23_2_2	2	2	1	0	0.540334939957	-272.0	-264.0	-264.0	-267.0	1
3.0.1	2019_Mar_08_0844	s	s	12	1	SIC	252	ABS	0	0	1	4	24_1_4	NA	NA	0	1	0.696991920471	None	None	None	None	1
3.0.1	2019_Mar_08_0844	s	s	12	1	SIC	253	1_1	1	1	2	2	23_2_2	1	1	0	1	0.716755867004	-365.0	-209.0	None	None	0
3.0.1	2019_Mar_08_0844	s	s	12	1	SIC	254	ABS	0	0	1	4	24_1_4	NA	NA	0	1	1.4224460125	None	None	None	None	1
3.0.1	2019_Mar_08_0844	s	s	12	1	SIC	255	4_2	4	2	1	4	23_1_4	3	2	1	0	0.575599908829	221.0	313.0	234.0	317.0	1
3.0.1	2019_Mar_08_0844	s	s	12	1	SIC	256	2_1	2	1	2	4	23_2_4	0	3	1	0	0.804338932037	-383.0	-363.0	-391.0	-358.0	1
3.0.1	2019_Mar_08_0844	s	s	12	1	SIC	257	3_3	3	3	4	4	23_4_4	-1	-1	1	0	0.475337982178	290.0	-238.0	290.0	-237.0	1
3.0.1	2019_Mar_08_0844	s	s	12	1	SIC	258	4_3	4	3	2	1	23_2_1	2	2	1	0	0.521332025528	-208.0	356.0	-207.0	354.0	1
3.0.1	2019_Mar_08_0844	s	s	12	1	SIC	259	ABS	0	0	4	4	24_4_4	NA	NA	0	1	2.59055399895	None	None	None	None	1
3.0.1	2019_Mar_08_0844	s	s	12	1	SIC	260	2_1	2	1	1	3	23_1_3	-1	2	1	0	1.89802789688	-292.0	-393.0	-286.0	-391.0	1
3.0.1	2019_Mar_08_0844	s	s	12	1	SIC	261	ABS	0	0	3	2	24_3_2	NA	NA	0	1	1.17539215088	None	None	None	None	1
3.0.1	2019_Mar_08_0844	s	s	12	1	SIC	262	3_2	3	2	2	4	23_2_4	1	2	1	0	0.528525829315	32.0	-226.0	34.0	-231.0	1
3.0.1	2019_Mar_08_0844	s	s	12	1	SIC	263	1_4	1	4	4	4	23_4_4	3	0	1	0	0.469725131989	-178.0	90.0	-183.0	92.0	1
3.0.1	2019_Mar_08_0844	s	s	12	1	SIC	264	ABS	0	0	4	1	24_4_1	NA	NA	0	1	0.975472211838	None	None	None	None	1
3.0.1	2019_Mar_08_0844	s	s	12	1	SIC	265	4_4	4	4	3	4	23_3_4	1	0	1	0	0.568800926208	26.0	354.0	32.0	360.0	1
3.0.1	2019_Mar_08_0844	s	s	12	1	SIC	266	2_3	2	3	3	2	23_3_2	1	1	0	1	0.968361139297	367.0	-402.0	None	None	0
3.0.1	2019_Mar_08_0844	s	s	12	1	SIC	267	ABS	0	0	3	3	24_3_3	NA	NA	0	1	1.57534813881	None	None	None	None	1
3.0.1	2019_Mar_08_0844	s	s	12	1	SIC	268	3_4	3	4	1	2	23_1_2	2	2	1	0	0.650847911835	316.0	274.0	326.0	281.0	1
3.0.1	2019_Mar_08_0844	s	s	12	1	SIC	269	2_4	2	4	2	1	23_2_1	0	3	1	0	0.677273988724	-232.0	345.0	-232.0	352.0	1
3.0.1	2019_Mar_08_0844	s	s	12	1	SIC	270	1_2	1	2	1	4	23_1_4	0	2	1	0	1.27431702614	-198.0	-62.0	-203.0	-61.0	1
3.0.1	2019_Mar_08_0844	s	s	12	1	SIC	271	ABS	0	0	2	2	24_2_2	NA	NA	0	1	1.26057100296	None	None	None	None	1
3.0.1	2019_Mar_08_0844	s	s	12	1	SIC	272	ABS	0	0	2	1	24_2_1	NA	NA	0	1	2.14272713661	None	None	None	None	1
3.0.1	2019_Mar_08_0844	s	s	12	1	SIC	273	ABS	0	0	2	2	24_2_2	NA	NA	0	1	2.69258117676	None	None	None	None	1
3.0.1	2019_Mar_08_0844	s	s	12	1	SIC	274	4_3	4	3	2	4	23_2_4	2	-1	1	0	1.13326501846	-9.0	41.0	4.0	45.0	1
3.0.1	2019_Mar_08_0844	s	s	12	1	SIC	275	4_2	4	2	1	1	23_1_1	3	-1	1	0	0.543260812759	-181.0	-206.0	-183.0	-207.0	1
3.0.1	2019_Mar_08_0844	s	s	12	1	SIC	276	3_4	3	4	2	2	23_2_2	1	2	1	0	0.661289215088	-48.0	243.0	-34.0	250.0	1
3.0.1	2019_Mar_08_0844	s	s	12	1	SIC	277	2_4	2	4	4	2	23_4_2	2	2	1	0	0.751946926117	504.0	-320.0	497.0	-318.0	1
3.0.1	2019_Mar_08_0844	s	s	12	1	SIC	278	ABS	0	0	1	3	24_1_3	NA	NA	0	1	1.09306907654	None	None	None	None	1
3.0.1	2019_Mar_08_0844	s	s	12	1	SIC	279	2_4	2	4	3	4	23_3_4	1	0	1	0	1.13279104233	-183.0	-171.0	-180.0	-182.0	1
3.0.1	2019_Mar_08_0844	s	s	12	1	SIC	280	2_3	2	3	1	2	23_1_2	-1	1	0	1	1.42730998993	228.0	-309.0	None	None	0
3.0.1	2019_Mar_08_0844	s	s	12	1	SIC	281	4_4	4	4	3	1	23_3_1	1	3	1	0	0.599153995514	155.0	76.0	154.0	75.0	1
3.0.1	2019_Mar_08_0844	s	s	12	1	SIC	282	ABS	0	0	1	1	24_1_1	NA	NA	0	1	2.7395939827	None	None	None	None	1
3.0.1	2019_Mar_08_0844	s	s	12	1	SIC	283	ABS	0	0	3	1	24_3_1	NA	NA	0	1	0.992201089859	None	None	None	None	1
3.0.1	2019_Mar_08_0844	s	s	12	1	SIC	284	2_3	2	3	4	1	23_4_1	2	2	1	0	0.496148109436	140.0	37.0	140.0	27.0	1
3.0.1	2019_Mar_08_0844	s	s	12	1	SIC	285	ABS	0	0	4	3	24_4_3	NA	NA	0	1	0.650696992874	None	None	None	None	1
3.0.1	2019_Mar_08_0844	s	s	12	1	SIC	286	ABS	0	0	3	1	24_3_1	NA	NA	0	1	0.56384396553	None	None	None	None	1
3.0.1	2019_Mar_08_0844	s	s	12	1	SIC	287	ABS	0	0	3	2	24_3_2	NA	NA	0	1	0.599002838135	None	None	None	None	1
3.0.1	2019_Mar_08_0844	s	s	12	1	SIC	288	ABS	0	0	4	2	24_4_2	NA	NA	0	1	0.768508911133	None	None	None	None	1
3.0.1	2019_Mar_08_0844	s	s	12	1	SIC	289	ABS	0	0	1	4	24_1_4	NA	NA	0	1	0.827488183975	None	None	None	None	1
3.0.1	2019_Mar_08_0844	s	s	12	1	SIC	290	ABS	0	0	1	3	24_1_3	NA	NA	0	1	1.86224579811	None	None	None	None	1
3.0.1	2019_Mar_08_0844	s	s	12	1	SIC	291	ABS	0	0	2	3	24_2_3	NA	NA	0	1	1.20185709	None	None	None	None	1
3.0.1	2019_Mar_08_0844	s	s	12	1	SIC	292	4_1	4	1	4	2	23_4_2	0	1	0	1	2.13299202919	418.0	-4.0	None	None	0
3.0.1	2019_Mar_08_0844	s	s	12	1	SIC	293	1_2	1	2	2	4	23_2_4	1	2	1	0	0.76390004158	-374.0	263.0	-377.0	273.0	1
3.0.1	2019_Mar_08_0844	s	s	12	1	SIC	294	ABS	0	0	2	2	24_2_2	NA	NA	0	1	4.26851010323	None	None	None	None	1
3.0.1	2019_Mar_08_0844	s	s	12	1	SIC	295	3_3	3	3	3	2	23_3_2	0	1	0	1	3.00223207474	-404.0	-93.0	None	None	0
3.0.1	2019_Mar_08_0844	s	s	12	1	SIC	296	ABS	0	0	3	2	24_3_2	NA	NA	0	1	1.45765590668	None	None	None	None	1
3.0.1	2019_Mar_08_0844	s	s	12	1	SIC	297	ABS	0	0	1	1	24_1_1	NA	NA	0	1	2.30972290039	None	None	None	None	1
3.0.1	2019_Mar_08_0844	s	s	12	1	SIC	298	ABS	0	0	2	1	24_2_1	NA	NA	0	1	0.599167108536	None	None	None	None	1
3.0.1	2019_Mar_08_0844	s	s	12	1	SIC	299	ABS	0	0	3	4	24_3_4	NA	NA	0	1	1.21336698532	None	None	None	None	1
3.0.1	2019_Mar_08_0844	s	s	12	1	SIC	300	ABS	0	0	2	4	24_2_4	NA	NA	0	1	1.35179519653	None	None	None	None	1
3.0.1	2019_Mar_08_0844	s	s	12	1	SIC	301	ABS	0	0	2	4	24_2_4	NA	NA	0	1	0.634569883347	None	None	None	None	1
3.0.1	2019_Mar_08_0844	s	s	12	1	SIC	302	3_3	3	3	4	1	23_4_1	-1	2	1	0	0.587317943573	-5.0	166.0	-3.0	176.0	1
3.0.1	2019_Mar_08_0844	s	s	12	1	SIC	303	3_2	3	2	2	2	23_2_2	1	0	1	0	0.933125019073	-184.0	-210.0	-192.0	-214.0	1
3.0.1	2019_Mar_08_0844	s	s	12	1	SIC	304	2_2	2	2	3	3	23_3_3	1	1	1	0	0.58069896698	93.0	-199.0	84.0	-199.0	1
3.0.1	2019_Mar_08_0844	s	s	12	1	SIC	305	1_3	1	3	2	4	23_2_4	1	-1	1	0	1.36841988564	425.0	320.0	428.0	321.0	1
3.0.1	2019_Mar_08_0844	s	s	12	1	SIC	306	3_1	3	1	2	1	23_2_1	1	0	1	0	0.599094152451	39.0	122.0	37.0	126.0	1
3.0.1	2019_Mar_08_0844	s	s	12	1	SIC	307	ABS	0	0	3	2	24_3_2	NA	NA	0	1	3.31880688667	None	None	None	None	1
3.0.1	2019_Mar_08_0844	s	s	12	1	SIC	308	2_1	2	1	2	3	23_2_3	0	2	1	0	1.28850483894	454.0	297.0	454.0	299.0	1
3.0.1	2019_Mar_08_0844	s	s	12	1	SIC	309	ABS	0	0	2	1	24_2_1	NA	NA	0	1	1.56972002983	None	None	None	None	1
3.0.1	2019_Mar_08_0844	s	s	12	1	SIC	310	ABS	0	0	1	1	24_1_1	NA	NA	0	1	1.69292092323	None	None	None	None	1
3.0.1	2019_Mar_08_0844	s	s	12	1	SIC	311	ABS	0	0	3	2	24_3_2	NA	NA	0	1	7.79689002037	None	None	None	None	1
3.0.1	2019_Mar_08_0844	s	s	12	1	SIC	312	ABS	0	0	2	3	24_2_3	NA	NA	0	1	2.35148310661	None	None	None	None	1
3.0.1	2019_Mar_08_0844	s	s	12	1	SIC	313	4_2	4	2	3	1	23_3_1	1	-1	1	0	0.613696098328	-519.0	-150.0	-524.0	-154.0	1
3.0.1	2019_Mar_08_0844	s	s	12	1	SIC	314	4_4	4	4	1	4	23_1_4	3	0	1	0	0.540267944336	25.0	-50.0	25.0	-46.0	1
3.0.1	2019_Mar_08_0844	s	s	12	1	SIC	315	ABS	0	0	4	4	24_4_4	NA	NA	0	1	1.2459769249	None	None	None	None	1
3.0.1	2019_Mar_08_0844	s	s	12	1	SIC	316	ABS	0	0	3	1	24_3_1	NA	NA	0	1	1.91528487206	None	None	None	None	1
3.0.1	2019_Mar_08_0844	s	s	12	1	SIC	317	ABS	0	0	3	1	24_3_1	NA	NA	0	1	0.693205118179	None	None	None	None	1
3.0.1	2019_Mar_08_0844	s	s	12	1	SIC	318	ABS	0	0	1	1	24_1_1	NA	NA	0	1	1.1753950119	None	None	None	None	1
3.0.1	2019_Mar_08_0844	s	s	12	1	SIC	319	1_3	1	3	2	2	23_2_2	1	1	1	0	0.898591995239	-262.0	-257.0	-254.0	-248.0	1
3.0.1	2019_Mar_08_0844	s	s	12	1	SIC	320	ABS	0	0	2	1	24_2_1	NA	NA	0	1	2.46910500526	None	None	None	None	1
3.0.1	2019_Mar_08_0844	s	s	12	1	SIC	321	2_3	2	3	4	4	23_4_4	2	-1	1	0	0.634484052658	407.0	-147.0	413.0	-145.0	1
3.0.1	2019_Mar_08_0844	s	s	12	1	SIC	322	ABS	0	0	4	4	24_4_4	NA	NA	0	1	1.95169901848	None	None	None	None	1
3.0.1	2019_Mar_08_0844	s	s	12	1	SIC	323	ABS	0	0	1	4	24_1_4	NA	NA	0	1	1.23425006866	None	None	None	None	1
3.0.1	2019_Mar_08_0844	s	s	12	1	SIC	324	ABS	0	0	1	2	24_1_2	NA	NA	0	1	3.30457401276	None	None	None	None	1
3.0.1	2019_Mar_08_0844	s	s	12	1	SIC	325	3_2	3	2	4	1	23_4_1	-1	-1	1	0	0.716706037521	-484.0	19.0	-485.0	24.0	1
3.0.1	2019_Mar_08_0844	s	s	12	1	SIC	326	3_1	3	1	2	4	23_2_4	1	3	1	0	0.708964824677	226.0	161.0	229.0	154.0	1
3.0.1	2019_Mar_08_0844	s	s	12	1	SIC	327	1_4	1	4	4	3	23_4_3	3	1	1	0	0.496145009995	-290.0	-228.0	-292.0	-233.0	1
3.0.1	2019_Mar_08_0844	s	s	12	1	SIC	328	3_4	3	4	3	2	23_3_2	0	2	1	0	0.587316036224	287.0	364.0	293.0	356.0	1
3.0.1	2019_Mar_08_0844	s	s	12	1	SIC	329	ABS	0	0	3	1	24_3_1	NA	NA	0	1	0.704934120178	None	None	None	None	1
3.0.1	2019_Mar_08_0844	s	s	12	1	SIC	330	1_3	1	3	3	4	23_3_4	2	-1	1	0	0.626494884491	-162.0	240.0	-168.0	235.0	1
3.0.1	2019_Mar_08_0844	s	s	12	1	SIC	331	ABS	0	0	4	2	24_4_2	NA	NA	0	1	0.968678951263	None	None	None	None	1
3.0.1	2019_Mar_08_0844	s	s	12	1	SIC	332	3_3	3	3	4	3	23_4_3	-1	0	1	0	0.651063919067	372.0	-371.0	381.0	-368.0	1
3.0.1	2019_Mar_08_0844	s	s	12	1	SIC	333	ABS	0	0	1	4	24_1_4	NA	NA	0	1	1.59883189201	None	None	None	None	1
3.0.1	2019_Mar_08_0844	s	s	12	1	SIC	334	1_1	1	1	4	1	23_4_1	3	0	1	0	0.461971998215	-116.0	315.0	-111.0	313.0	1
3.0.1	2019_Mar_08_0844	s	s	12	1	SIC	335	ABS	0	0	2	2	24_2_2	NA	NA	0	1	4.54433202744	None	None	None	None	1
3.0.1	2019_Mar_08_0844	s	s	12	1	SIC	336	4_2	4	2	4	4	23_4_4	0	2	1	0	0.605856180191	-55.0	348.0	-52.0	354.0	1
3.0.1	2019_Mar_08_0844	s	s	12	1	SIC	337	ABS	0	0	2	1	24_2_1	NA	NA	0	1	0.93231010437	None	None	None	None	1
3.0.1	2019_Mar_08_0844	s	s	12	1	SIC	338	ABS	0	0	1	3	24_1_3	NA	NA	0	1	1.58705711365	None	None	None	None	1
3.0.1	2019_Mar_08_0844	s	s	12	1	SIC	339	ABS	0	0	4	2	24_4_2	NA	NA	0	1	5.14186906815	None	None	None	None	1
3.0.1	2019_Mar_08_0844	s	s	12	1	SIC	340	4_1	4	1	1	3	23_1_3	3	2	1	0	0.575539112091	444.0	-87.0	437.0	-91.0	1
3.0.1	2019_Mar_08_0844	s	s	12	1	SIC	341	4_2	4	2	3	2	23_3_2	1	0	1	0	3.35515594482	200.0	368.0	210.0	366.0	1
3.0.1	2019_Mar_08_0844	s	s	12	1	SIC	342	2_1	2	1	1	1	23_1_1	-1	0	0	1	0.604248046875	-528.0	-142.0	None	None	0
3.0.1	2019_Mar_08_0844	s	s	12	1	SIC	343	ABS	0	0	2	2	24_2_2	NA	NA	0	1	1.07250714302	None	None	None	None	1
3.0.1	2019_Mar_08_0844	s	s	12	1	SIC	344	ABS	0	0	4	2	24_4_2	NA	NA	0	1	0.5755610466	None	None	None	None	1
3.0.1	2019_Mar_08_0844	s	s	12	1	SIC	345	3_3	3	3	1	4	23_1_4	2	-1	1	0	0.64614200592	-270.0	67.0	-267.0	66.0	1
3.0.1	2019_Mar_08_0844	s	s	12	1	SIC	346	ABS	0	0	4	4	24_4_4	NA	NA	0	1	2.08391594887	None	None	None	None	1
3.0.1	2019_Mar_08_0844	s	s	12	1	SIC	347	ABS	0	0	3	4	24_3_4	NA	NA	0	1	0.723336935043	None	None	None	None	1
3.0.1	2019_Mar_08_0844	s	s	12	1	SIC	348	2_2	2	2	3	1	23_3_1	1	-1	1	0	0.61372089386	28.0	99.0	41.0	102.0	1
3.0.1	2019_Mar_08_0844	s	s	12	1	SIC	349	ABS	0	0	4	3	24_4_3	NA	NA	0	1	1.78986001015	None	None	None	None	1
3.0.1	2019_Mar_08_0844	s	s	12	1	SIC	350	2_3	2	3	4	2	23_4_2	2	1	1	0	0.523318767548	-156.0	144.0	-159.0	141.0	1
3.0.1	2019_Mar_08_0844	s	s	12	1	SIC	351	ABS	0	0	4	4	24_4_4	NA	NA	0	1	0.681345939636	None	None	None	None	1
3.0.1	2019_Mar_08_0844	s	s	12	1	SIC	352	4_1	4	1	3	1	23_3_1	1	0	1	0	0.599152088165	157.0	-201.0	161.0	-210.0	1
3.0.1	2019_Mar_08_0844	s	s	12	1	SIC	353	1_3	1	3	3	2	23_3_2	2	1	1	0	0.77560710907	516.0	-332.0	520.0	-323.0	1
3.0.1	2019_Mar_08_0844	s	s	12	1	SIC	354	ABS	0	0	1	1	24_1_1	NA	NA	0	1	1.0911231041	None	None	None	None	1
3.0.1	2019_Mar_08_0844	s	s	12	1	SIC	355	ABS	0	0	3	3	24_3_3	NA	NA	0	1	0.810831069946	None	None	None	None	1
3.0.1	2019_Mar_08_0844	s	s	12	1	SIC	356	ABS	0	0	3	1	24_3_1	NA	NA	0	1	0.97256398201	None	None	None	None	1
3.0.1	2019_Mar_08_0844	s	s	12	1	SIC	357	1_4	1	4	4	1	23_4_1	3	3	1	0	0.552055120468	-261.0	-334.0	-260.0	-334.0	1
3.0.1	2019_Mar_08_0844	s	s	12	1	SIC	358	4_2	4	2	3	3	23_3_3	1	1	1	0	0.587330102921	127.0	-57.0	126.0	-60.0	1
3.0.1	2019_Mar_08_0844	s	s	12	1	SIC	359	3_2	3	2	3	1	23_3_1	0	-1	0	1	0.916657924652	378.0	22.0	None	None	0
3.0.1	2019_Mar_08_0844	s	s	12	1	SIC	360	ABS	0	0	2	2	24_2_2	NA	NA	0	1	0.693199872971	None	None	None	None	1
3.0.1	2019_Mar_08_0844	s	s	12	1	SIC	361	4_4	4	4	4	3	23_4_3	0	1	1	0	0.590599060059	-10.0	361.0	1.0	368.0	1
3.0.1	2019_Mar_08_0844	s	s	12	1	SIC	362	2_4	2	4	3	1	23_3_1	1	3	1	0	0.62923002243	-438.0	351.0	-441.0	360.0	1
3.0.1	2019_Mar_08_0844	s	s	12	1	SIC	363	1_1	1	1	4	3	23_4_3	3	2	1	0	0.469866991043	-177.0	163.0	-172.0	162.0	1
3.0.1	2019_Mar_08_0844	s	s	12	1	SIC	364	4_1	4	1	1	4	23_1_4	3	3	1	0	0.410836935043	234.0	22.0	237.0	24.0	1
3.0.1	2019_Mar_08_0844	s	s	12	1	SIC	365	ABS	0	0	4	3	24_4_3	NA	NA	0	1	3.39825987816	None	None	None	None	1
3.0.1	2019_Mar_08_0844	s	s	12	1	SIC	366	4_4	4	4	3	3	23_3_3	1	1	1	0	0.606701135635	281.0	366.0	286.0	364.0	1
3.0.1	2019_Mar_08_0844	s	s	12	1	SIC	367	ABS	0	0	2	2	24_2_2	NA	NA	0	1	3.63961100578	None	None	None	None	1
3.0.1	2019_Mar_08_0844	s	s	12	1	SIC	368	2_1	2	1	3	3	23_3_3	1	2	1	0	0.587321043015	346.0	157.0	348.0	160.0	1
3.0.1	2019_Mar_08_0844	s	s	12	1	SIC	369	1_2	1	2	2	2	23_2_2	1	0	0	1	1.43700790405	396.0	-341.0	None	None	0
3.0.1	2019_Mar_08_0844	s	s	12	1	SIC	370	1_3	1	3	1	4	23_1_4	0	-1	0	1	3.03946805	498.0	-46.0	None	None	0
3.0.1	2019_Mar_08_0844	s	s	12	1	SIC	371	1_1	1	1	4	4	23_4_4	3	3	1	0	0.540333032608	360.0	270.0	366.0	267.0	1
3.0.1	2019_Mar_08_0844	s	s	12	1	SIC	372	ABS	0	0	3	4	24_3_4	NA	NA	0	1	2.20356106758	None	None	None	None	1
3.0.1	2019_Mar_08_0844	s	s	12	1	SIC	373	ABS	0	0	4	1	24_4_1	NA	NA	0	1	1.2459859848	None	None	None	None	1
3.0.1	2019_Mar_08_0844	s	s	12	1	SIC	374	ABS	0	0	4	4	24_4_4	NA	NA	0	1	1.01758694649	None	None	None	None	1
3.0.1	2019_Mar_08_0844	s	s	12	1	SIC	375	ABS	0	0	3	3	24_3_3	NA	NA	0	1	2.82218813896	None	None	None	None	1
3.0.1	2019_Mar_08_0844	s	s	12	1	SIC	376	ABS	0	0	3	3	24_3_3	NA	NA	0	1	2.91607499123	None	None	None	None	1
3.0.1	2019_Mar_08_0844	s	s	12	1	SIC	377	ABS	0	0	3	2	24_3_2	NA	NA	0	1	5.65629196167	None	None	None	None	1
3.0.1	2019_Mar_08_0844	s	s	12	1	SIC	378	2_4	2	4	1	1	23_1_1	-1	3	1	0	0.752012014389	187.0	-4.0	190.0	-6.0	1
3.0.1	2019_Mar_08_0844	s	s	12	1	SIC	379	ABS	0	0	2	2	24_2_2	NA	NA	0	1	1.46937298775	None	None	None	None	1
3.0.1	2019_Mar_08_0844	s	s	12	1	SIC	380	4_4	4	4	4	2	23_4_2	0	2	1	0	0.604303121567	-278.0	111.0	-282.0	120.0	1
3.0.1	2019_Mar_08_0844	s	s	12	1	SIC	381	ABS	0	0	2	3	24_2_3	NA	NA	0	1	1.01074886322	None	None	None	None	1
3.0.1	2019_Mar_08_0844	s	s	12	1	SIC	382	ABS	0	0	3	1	24_3_1	NA	NA	0	1	0.634403944016	None	None	None	None	1
3.0.1	2019_Mar_08_0844	s	s	12	1	SIC	383	1_4	1	4	2	3	23_2_3	1	1	1	0	1.54519987106	-151.0	188.0	-142.0	196.0	1
3.0.1	2019_Mar_08_0844	s	s	12	1	SIC	384	3_2	3	2	4	4	23_4_4	-1	2	1	0	0.516764879227	60.0	207.0	56.0	200.0	1
3.0.1	2019_Mar_08_0844	s	s	12	1	SIC	385	1_3	1	3	4	1	23_4_1	3	2	1	0	0.488202095032	447.0	280.0	450.0	274.0	1
3.0.1	2019_Mar_08_0844	s	s	12	1	SIC	386	ABS	0	0	2	3	24_2_3	NA	NA	0	1	2.37508702278	None	None	None	None	1
3.0.1	2019_Mar_08_0844	s	s	12	1	SIC	387	ABS	0	0	1	2	24_1_2	NA	NA	0	1	2.34855604172	None	None	None	None	1
3.0.1	2019_Mar_08_0844	s	s	12	1	SIC	388	ABS	0	0	2	1	24_2_1	NA	NA	0	1	0.790117025375	None	None	None	None	1
3.0.1	2019_Mar_08_0844	s	s	12	1	SIC	389	3_2	3	2	1	1	23_1_1	2	-1	1	0	1.09780693054	-236.0	-316.0	-235.0	-323.0	1
3.0.1	2019_Mar_08_0844	s	s	12	1	SIC	390	4_1	4	1	2	1	23_2_1	2	0	1	0	0.474987983704	464.0	81.0	467.0	86.0	1
3.0.1	2019_Mar_08_0844	s	s	12	1	SIC	391	1_3	1	3	3	3	23_3_3	2	0	1	0	0.853284835815	386.0	-251.0	395.0	-253.0	1
3.0.1	2019_Mar_08_0844	s	s	12	1	SIC	392	2_1	2	1	1	2	23_1_2	-1	1	1	0	1.18036389351	4.0	156.0	6.0	158.0	1
3.0.1	2019_Mar_08_0844	s	s	12	1	SIC	393	ABS	0	0	1	3	24_1_3	NA	NA	0	1	2.76932692528	None	None	None	None	1
3.0.1	2019_Mar_08_0844	s	s	12	1	SIC	394	ABS	0	0	3	1	24_3_1	NA	NA	0	1	1.04605507851	None	None	None	None	1
3.0.1	2019_Mar_08_0844	s	s	12	1	SIC	395	ABS	0	0	4	1	24_4_1	NA	NA	0	1	0.740297079086	None	None	None	None	1
3.0.1	2019_Mar_08_0844	s	s	12	1	SIC	396	3_1	3	1	1	2	23_1_2	2	1	1	0	0.907937049866	-487.0	364.0	-495.0	358.0	1
3.0.1	2019_Mar_08_0844	s	s	12	1	SIC	397	3_1	3	1	2	2	23_2_2	1	1	1	0	0.64614200592	188.0	-201.0	197.0	-205.0	1
3.0.1	2019_Mar_08_0844	s	s	12	1	SIC	398	2_2	2	2	1	2	23_1_2	-1	0	0	1	4.06126093864	-433.0	-122.0	None	None	0
3.0.1	2019_Mar_08_0844	s	s	12	1	SIC	399	ABS	0	0	4	3	24_4_3	NA	NA	0	1	1.76346087456	None	None	None	None	1
3.0.1	2019_Mar_08_0844	s	s	12	1	SIC	400	ABS	0	0	4	3	24_4_3	NA	NA	0	1	4.64888191223	None	None	None	None	1
3.0.1	2019_Mar_08_0844	s	s	12	1	SIC	401	ABS	0	0	2	2	24_2_2	NA	NA	0	1	3.76307606697	None	None	None	None	1
3.0.1	2019_Mar_08_0844	s	s	12	1	SIC	402	1_2	1	2	3	4	23_3_4	2	2	1	0	0.599398851395	-483.0	33.0	-484.0	35.0	1
3.0.1	2019_Mar_08_0844	s	s	12	1	SIC	403	2_4	2	4	3	3	23_3_3	1	1	1	0	0.634427070618	362.0	-108.0	363.0	-101.0	1
3.0.1	2019_Mar_08_0844	s	s	12	1	SIC	404	3_1	3	1	3	3	23_3_3	0	2	1	0	0.731355905533	124.0	-189.0	132.0	-186.0	1
3.0.1	2019_Mar_08_0844	s	s	12	1	SIC	405	ABS	0	0	3	4	24_3_4	NA	NA	0	1	1.58699893951	None	None	None	None	1
3.0.1	2019_Mar_08_0844	s	s	12	1	SIC	406	3_4	3	4	2	4	23_2_4	1	0	0	1	1.18722295761	-398.0	-98.0	None	None	0
3.0.1	2019_Mar_08_0844	s	s	12	1	SIC	407	3_3	3	3	1	2	23_1_2	2	1	1	0	1.22246718407	269.0	-392.0	280.0	-391.0	1
3.0.1	2019_Mar_08_0844	s	s	12	1	SIC	408	ABS	0	0	2	2	24_2_2	NA	NA	0	1	3.66298508644	None	None	None	None	1
3.0.1	2019_Mar_08_0844	s	s	12	1	SIC	409	ABS	0	0	4	4	24_4_4	NA	NA	0	1	0.874794960022	None	None	None	None	1
3.0.1	2019_Mar_08_0844	s	s	12	1	SIC	410	4_4	4	4	2	1	23_2_1	2	3	1	0	0.52855014801	-267.0	-41.0	-256.0	-35.0	1
3.0.1	2019_Mar_08_0844	s	s	12	1	SIC	411	3_3	3	3	2	3	23_2_3	1	0	1	0	0.728540897369	144.0	234.0	142.0	234.0	1
3.0.1	2019_Mar_08_0844	s	s	12	1	SIC	412	ABS	0	0	4	4	24_4_4	NA	NA	0	1	1.22244286537	None	None	None	None	1
3.0.1	2019_Mar_08_0844	s	s	12	1	SIC	413	ABS	0	0	3	4	24_3_4	NA	NA	0	1	0.849407911301	None	None	None	None	1
3.0.1	2019_Mar_08_0844	s	s	12	1	SIC	414	ABS	0	0	2	4	24_2_4	NA	NA	0	1	0.627377986908	None	None	None	None	1
3.0.1	2019_Mar_08_0844	s	s	12	1	SIC	415	1_2	1	2	3	3	23_3_3	2	1	1	0	0.575627803802	124.0	11.0	131.0	12.0	1
3.0.1	2019_Mar_08_0844	s	s	12	1	SIC	416	ABS	0	0	1	3	24_1_3	NA	NA	0	1	1.26949596405	None	None	None	None	1
3.0.1	2019_Mar_08_0844	s	s	12	1	SIC	417	ABS	0	0	1	2	24_1_2	NA	NA	1	0	0.568842887878	None	None	60.0	-11.0	0
3.0.1	2019_Mar_08_0844	s	s	12	1	SIC	418	4_2	4	2	4	3	23_4_3	0	1	0	1	1.05768990517	488.0	-407.0	None	None	0
3.0.1	2019_Mar_08_0844	s	s	12	1	SIC	419	4_1	4	1	3	4	23_3_4	1	3	1	0	0.587331056595	-367.0	135.0	-374.0	131.0	1
3.0.1	2019_Mar_08_0844	s	s	12	1	SIC	420	ABS	0	0	4	1	24_4_1	NA	NA	0	1	1.03430104256	None	None	None	None	1
3.0.1	2019_Mar_08_0844	s	s	12	1	SIC	421	3_4	3	4	3	3	23_3_3	0	1	1	0	1.95635104179	176.0	54.0	183.0	54.0	1
3.0.1	2019_Mar_08_0844	s	s	12	1	SIC	422	4_2	4	2	2	4	23_2_4	2	2	1	0	0.517022132874	403.0	281.0	405.0	285.0	1
3.0.1	2019_Mar_08_0844	s	s	12	1	SIC	423	ABS	0	0	4	4	24_4_4	NA	NA	0	1	1.21569800377	None	None	None	None	1
3.0.1	2019_Mar_08_0844	s	s	12	1	SIC	424	ABS	0	0	1	2	24_1_2	NA	NA	0	1	1.59932899475	None	None	None	None	1
3.0.1	2019_Mar_08_0844	s	s	12	1	SIC	425	1_1	1	1	3	3	23_3_3	2	2	1	0	0.649597883224	228.0	25.0	220.0	20.0	1
3.0.1	2019_Mar_08_0844	s	s	12	1	SIC	426	ABS	0	0	1	2	24_1_2	NA	NA	0	1	2.51615285873	None	None	None	None	1
3.0.1	2019_Mar_08_0844	s	s	12	1	SIC	427	1_2	1	2	4	4	23_4_4	3	2	1	0	0.511857032776	-533.0	105.0	-536.0	100.0	1
3.0.1	2019_Mar_08_0844	s	s	12	1	SIC	428	2_2	2	2	4	3	23_4_3	2	1	1	0	0.45218205452	-30.0	31.0	-31.0	28.0	1
3.0.1	2019_Mar_08_0844	s	s	12	1	SIC	429	3_2	3	2	4	3	23_4_3	-1	1	1	0	0.484747886658	-176.0	102.0	-181.0	99.0	1
3.0.1	2019_Mar_08_0844	s	s	12	1	SIC	430	4_4	4	4	1	1	23_1_1	3	3	1	0	0.498354196548	-377.0	411.0	-371.0	404.0	1
3.0.1	2019_Mar_08_0844	s	s	12	1	SIC	431	3_4	3	4	4	3	23_4_3	-1	1	1	0	0.540099859238	505.0	-29.0	499.0	-24.0	1
3.0.1	2019_Mar_08_0844	s	s	12	1	SIC	432	2_4	2	4	2	3	23_2_3	0	1	1	0	0.79907989502	-108.0	272.0	-105.0	259.0	1
3.0.1	2019_Mar_08_0844	s	s	12	1	SIC	433	2_1	2	1	2	2	23_2_2	0	1	0	1	2.5278840065	12.0	296.0	None	None	0
3.0.1	2019_Mar_08_0844	s	s	12	1	SIC	434	2_2	2	2	2	1	23_2_1	0	-1	1	0	1.67230319977	491.0	157.0	498.0	158.0	1
3.0.1	2019_Mar_08_0844	s	s	12	1	SIC	435	ABS	0	0	3	3	24_3_3	NA	NA	0	1	1.79874491692	None	None	None	None	1
3.0.1	2019_Mar_08_0844	s	s	12	1	SIC	436	3_1	3	1	1	1	23_1_1	2	0	1	0	0.528548955917	-72.0	273.0	-76.0	274.0	1
3.0.1	2019_Mar_08_0844	s	s	12	1	SIC	437	4_3	4	3	1	2	23_1_2	3	1	1	0	0.731342077255	-348.0	-340.0	-350.0	-346.0	1
3.0.1	2019_Mar_08_0844	s	s	12	1	SIC	438	ABS	0	0	2	4	24_2_4	NA	NA	0	1	1.15660786629	None	None	None	None	1
3.0.1	2019_Mar_08_0844	s	s	12	1	SIC	439	2_4	2	4	1	2	23_1_2	-1	2	1	0	0.6030189991	-234.0	-282.0	-238.0	-280.0	1
3.0.1	2019_Mar_08_0844	s	s	12	1	SIC	440	ABS	0	0	4	4	24_4_4	NA	NA	0	1	1.20186805725	None	None	None	None	1
3.0.1	2019_Mar_08_0844	s	s	12	1	SIC	441	3_1	3	1	1	3	23_1_3	2	2	1	0	0.782121896744	-296.0	-172.0	-293.0	-174.0	1
3.0.1	2019_Mar_08_0844	s	s	12	1	SIC	442	ABS	0	0	3	2	24_3_2	NA	NA	0	1	2.05742192268	None	None	None	None	1
3.0.1	2019_Mar_08_0844	s	s	12	1	SIC	443	ABS	0	0	2	4	24_2_4	NA	NA	0	1	0.790158987045	None	None	None	None	1
3.0.1	2019_Mar_08_0844	s	s	12	1	SIC	444	ABS	0	0	2	3	24_2_3	NA	NA	0	1	0.708112001419	None	None	None	None	1
3.0.1	2019_Mar_08_0844	s	s	12	1	SIC	445	ABS	0	0	1	4	24_1_4	NA	NA	0	1	0.58731508255	None	None	None	None	1
3.0.1	2019_Mar_08_0844	s	s	12	1	SIC	446	4_1	4	1	2	3	23_2_3	2	2	1	0	0.516729831696	-266.0	188.0	-257.0	185.0	1
3.0.1	2019_Mar_08_0844	s	s	12	1	SIC	447	ABS	0	0	2	3	24_2_3	NA	NA	0	1	1.73989796638	None	None	None	None	1
3.0.1	2019_Mar_08_0844	s	s	12	1	SIC	448	ABS	0	0	1	2	24_1_2	NA	NA	0	1	1.85752105713	None	None	None	None	1
3.0.1	2019_Mar_08_0844	s	s	12	1	SIC	449	4_4	4	4	1	2	23_1_2	3	2	1	0	0.519728899002	-55.0	-1.0	-45.0	5.0	1
3.0.1	2019_Mar_08_0844	s	s	12	1	SIC	450	ABS	0	0	1	1	24_1_1	NA	NA	0	1	0.591630935669	None	None	None	None	1
3.0.1	2019_Mar_08_0844	s	s	12	1	SIC	451	ABS	0	0	1	2	24_1_2	NA	NA	0	1	0.69313788414	None	None	None	None	1
3.0.1	2019_Mar_08_0844	s	s	12	1	SIC	452	ABS	0	0	3	4	24_3_4	NA	NA	0	1	0.731360912323	None	None	None	None	1
3.0.1	2019_Mar_08_0844	s	s	12	1	SIC	453	4_1	4	1	1	2	23_1_2	3	1	1	0	0.516714096069	-472.0	393.0	-474.0	398.0	1
3.0.1	2019_Mar_08_0844	s	s	12	1	SIC	454	2_2	2	2	2	3	23_2_3	0	1	0	1	0.916641950607	-189.0	201.0	None	None	0
3.0.1	2019_Mar_08_0844	s	s	12	1	SIC	455	2_2	2	2	1	3	23_1_3	-1	1	0	1	0.634387969971	62.0	-123.0	None	None	0
3.0.1	2019_Mar_08_0844	s	s	12	1	SIC	456	ABS	0	0	1	1	24_1_1	NA	NA	0	1	0.827065229416	None	None	None	None	1
3.0.1	2019_Mar_08_0844	s	s	12	1	SIC	457	4_4	4	4	3	2	23_3_2	1	2	1	0	0.56386590004	-346.0	-119.0	-341.0	-120.0	1
3.0.1	2019_Mar_08_0844	s	s	12	1	SIC	458	ABS	0	0	3	2	24_3_2	NA	NA	0	1	0.639084100723	None	None	None	None	1
3.0.1	2019_Mar_08_0844	s	s	12	1	SIC	459	ABS	0	0	4	1	24_4_1	NA	NA	0	1	0.764008998871	None	None	None	None	1
3.0.1	2019_Mar_08_0844	s	s	12	1	SIC	460	ABS	0	0	2	4	24_2_4	NA	NA	0	1	0.634374856949	None	None	None	None	1
3.0.1	2019_Mar_08_0844	s	s	12	1	SIC	461	ABS	0	0	3	3	24_3_3	NA	NA	0	1	0.804344892502	None	None	None	None	1
3.0.1	2019_Mar_08_0844	s	s	12	1	SIC	462	ABS	0	0	1	2	24_1_2	NA	NA	0	1	0.622643947601	None	None	None	None	1
3.0.1	2019_Mar_08_0844	s	s	12	1	SIC	463	ABS	0	0	1	2	24_1_2	NA	NA	0	1	0.837227106094	None	None	None	None	1
3.0.1	2019_Mar_08_0844	s	s	12	1	SIC	464	ABS	0	0	2	3	24_2_3	NA	NA	0	1	0.657966136932	None	None	None	None	1
3.0.1	2019_Mar_08_0844	s	s	12	1	SIC	465	ABS	0	0	3	1	24_3_1	NA	NA	0	1	0.575532913208	None	None	None	None	1
3.0.1	2019_Mar_08_0844	s	s	12	1	SIC	466	1_1	1	1	3	1	23_3_1	2	0	1	0	0.634423971176	-81.0	268.0	-72.0	269.0	1
3.0.1	2019_Mar_08_0844	s	s	12	1	SIC	467	ABS	0	0	4	2	24_4_2	NA	NA	0	1	0.469676971436	None	None	None	None	1
3.0.1	2019_Mar_08_0844	s	s	12	1	SIC	468	ABS	0	0	3	4	24_3_4	NA	NA	0	1	1.55568194389	None	None	None	None	1
3.0.1	2019_Mar_08_0844	s	s	12	1	SIC	469	ABS	0	0	4	3	24_4_3	NA	NA	0	1	0.916670084	None	None	None	None	1
3.0.1	2019_Mar_08_0844	s	s	12	1	SIC	470	ABS	0	0	2	1	24_2_1	NA	NA	0	1	0.790185213089	None	None	None	None	1
3.0.1	2019_Mar_08_0844	s	s	12	1	SIC	471	ABS	0	0	2	4	24_2_4	NA	NA	0	1	0.681431055069	None	None	None	None	1
3.0.1	2019_Mar_08_0844	s	s	12	1	SIC	472	3_2	3	2	1	4	23_1_4	2	2	1	0	0.528495073318	158.0	-21.0	170.0	-17.0	1
3.0.1	2019_Mar_08_0844	s	s	12	1	SIC	473	1_2	1	2	2	1	23_2_1	1	-1	0	1	1.32825994492	251.0	-365.0	None	None	0
3.0.1	2019_Mar_08_0844	s	s	12	1	SIC	474	ABS	0	0	4	3	24_4_3	NA	NA	0	1	2.21495079994	None	None	None	None	1
3.0.1	2019_Mar_08_0844	s	s	12	1	SIC	475	ABS	0	0	1	3	24_1_3	NA	NA	0	1	2.26935100555	None	None	None	None	1
3.0.1	2019_Mar_08_0844	s	s	12	1	SIC	476	1_4	1	4	3	1	23_3_1	2	3	1	0	0.728960990906	323.0	-335.0	329.0	-337.0	1
3.0.1	2019_Mar_08_0844	s	s	12	1	SIC	477	3_3	3	3	2	4	23_2_4	1	-1	1	0	1.00304603577	-477.0	169.0	-485.0	166.0	1
3.0.1	2019_Mar_08_0844	s	s	12	1	SIC	478	4_3	4	3	3	3	23_3_3	1	0	1	0	0.550350904465	106.0	-384.0	104.0	-384.0	1
3.0.1	2019_Mar_08_0844	s	s	12	1	SIC	479	ABS	0	0	4	1	24_4_1	NA	NA	0	1	1.21534204483	None	None	None	None	1
3.0.1	2019_Mar_08_0844	s	s	12	1	SIC	480	2_3	2	3	2	2	23_2_2	0	1	1	0	2.05766701698	-48.0	254.0	-41.0	259.0	1
