Version	Date	Stimuli	Method	Subject	Session	Condition	Trial	Target	TColor	TShape	DColor	DShape	Distractors	Channel1	Channel2	LMouseButton	RMouseButton	RT	TargetX	TargetY	ResponseX	ResponseY	Correct
3.0.1	2019_Mar_14_1400	s	s	12	4	Capacity	1	ABS	0	0	1	4	24_1_4	NA	NA	0	1	2.46953415871	None	None	None	None	1
3.0.1	2019_Mar_14_1400	s	s	12	4	Capacity	2	ABS	0	0	1	4	24_1_4	NA	NA	0	1	2.07404899597	None	None	None	None	1
3.0.1	2019_Mar_14_1400	s	s	12	4	Capacity	3	ABS	0	0	1	2	24_1_2	NA	NA	0	1	3.3395550251	None	None	None	None	1
3.0.1	2019_Mar_14_1400	s	s	12	4	Capacity	4	1_3	1	3	1	4	23_1_4	0	-1	1	0	0.57444691658	-203.0	235.0	-213.0	237.0	1
3.0.1	2019_Mar_14_1400	s	s	12	4	Capacity	5	ABS	0	0	1	1	24_1_1	NA	NA	0	1	2.03072190285	None	None	None	None	1
3.0.1	2019_Mar_14_1400	s	s	12	4	Capacity	6	ABS	0	0	1	3	24_1_3	NA	NA	0	1	4.62670302391	None	None	None	None	1
3.0.1	2019_Mar_14_1400	s	s	12	4	Capacity	7	1_1	1	1	1	3	23_1_3	0	2	1	0	2.03989219666	-174.0	-239.0	-177.0	-241.0	1
3.0.1	2019_Mar_14_1400	s	s	12	4	Capacity	8	1_2	1	2	1	1	23_1_1	0	-1	0	1	2.13311195374	449.0	-381.0	None	None	0
3.0.1	2019_Mar_14_1400	s	s	12	4	Capacity	9	1_3	1	3	1	1	23_1_1	0	2	1	0	0.735001087189	-135.0	-4.0	-133.0	1.0	1
3.0.1	2019_Mar_14_1400	s	s	12	4	Capacity	10	ABS	0	0	1	1	24_1_1	NA	NA	0	1	2.13446497917	None	None	None	None	1
3.0.1	2019_Mar_14_1400	s	s	12	4	Capacity	11	1_4	1	4	1	2	23_1_2	0	2	1	0	0.60458612442	-12.0	253.0	-9.0	249.0	1
3.0.1	2019_Mar_14_1400	s	s	12	4	Capacity	12	ABS	0	0	1	3	24_1_3	NA	NA	0	1	3.69231700897	None	None	None	None	1
3.0.1	2019_Mar_14_1400	s	s	12	4	Capacity	13	1_3	1	3	1	2	23_1_2	0	1	1	0	2.43675589561	459.0	-352.0	465.0	-355.0	1
3.0.1	2019_Mar_14_1400	s	s	12	4	Capacity	14	1_2	1	2	1	4	23_1_4	0	2	1	0	0.790202140808	-455.0	-315.0	-456.0	-316.0	1
3.0.1	2019_Mar_14_1400	s	s	12	4	Capacity	15	ABS	0	0	1	2	24_1_2	NA	NA	0	1	3.06900000572	None	None	None	None	1
3.0.1	2019_Mar_14_1400	s	s	12	4	Capacity	16	1_4	1	4	1	3	23_1_3	0	1	1	0	0.503132104874	-361.0	55.0	-356.0	52.0	1
3.0.1	2019_Mar_14_1400	s	s	12	4	Capacity	17	ABS	0	0	1	1	24_1_1	NA	NA	0	1	3.06318593025	None	None	None	None	1
3.0.1	2019_Mar_14_1400	s	s	12	4	Capacity	18	1_1	1	1	1	4	23_1_4	0	3	1	0	0.634807109833	337.0	265.0	327.0	269.0	1
3.0.1	2019_Mar_14_1400	s	s	12	4	Capacity	19	ABS	0	0	1	4	24_1_4	NA	NA	0	1	1.26952004433	None	None	None	None	1
3.0.1	2019_Mar_14_1400	s	s	12	4	Capacity	20	1_2	1	2	1	3	23_1_3	0	1	1	0	7.77345585823	415.0	181.0	410.0	186.0	1
3.0.1	2019_Mar_14_1400	s	s	12	4	Capacity	21	ABS	0	0	1	3	24_1_3	NA	NA	0	1	4.151045084	None	None	None	None	1
3.0.1	2019_Mar_14_1400	s	s	12	4	Capacity	22	1_1	1	1	1	2	23_1_2	0	1	1	0	1.238063097	412.0	-407.0	406.0	-415.0	1
3.0.1	2019_Mar_14_1400	s	s	12	4	Capacity	23	ABS	0	0	1	2	24_1_2	NA	NA	0	1	2.96746206284	None	None	None	None	1
3.0.1	2019_Mar_14_1400	s	s	12	4	Capacity	24	1_4	1	4	1	1	23_1_1	0	3	1	0	0.545175790787	-329.0	289.0	-335.0	299.0	1
3.0.1	2019_Mar_14_1400	s	s	12	4	Capacity	25	ABS	0	0	1	4	24_1_4	NA	NA	0	1	2.12011408806	None	None	None	None	1
3.0.1	2019_Mar_14_1400	s	s	12	4	Capacity	26	1_2	1	2	1	1	23_1_1	0	-1	1	0	1.58705687523	478.0	-359.0	478.0	-352.0	1
3.0.1	2019_Mar_14_1400	s	s	12	4	Capacity	27	ABS	0	0	1	3	24_1_3	NA	NA	0	1	4.81394505501	None	None	None	None	1
3.0.1	2019_Mar_14_1400	s	s	12	4	Capacity	28	ABS	0	0	1	4	24_1_4	NA	NA	0	1	2.6069560051	None	None	None	None	1
3.0.1	2019_Mar_14_1400	s	s	12	4	Capacity	29	1_3	1	3	1	1	23_1_1	0	2	1	0	1.14299416542	-399.0	-87.0	-408.0	-88.0	1
3.0.1	2019_Mar_14_1400	s	s	12	4	Capacity	30	1_2	1	2	1	4	23_1_4	0	2	1	0	0.505419969559	-217.0	-191.0	-209.0	-193.0	1
3.0.1	2019_Mar_14_1400	s	s	12	4	Capacity	31	1_4	1	4	1	2	23_1_2	0	2	1	0	0.916646003723	268.0	-382.0	271.0	-395.0	1
3.0.1	2019_Mar_14_1400	s	s	12	4	Capacity	32	1_1	1	1	1	3	23_1_3	0	2	1	0	3.22183609009	-83.0	-359.0	-78.0	-369.0	1
3.0.1	2019_Mar_14_1400	s	s	12	4	Capacity	33	ABS	0	0	1	2	24_1_2	NA	NA	0	1	4.44493579865	None	None	None	None	1
3.0.1	2019_Mar_14_1400	s	s	12	4	Capacity	34	ABS	0	0	1	1	24_1_1	NA	NA	0	1	1.68550300598	None	None	None	None	1
3.0.1	2019_Mar_14_1400	s	s	12	4	Capacity	35	ABS	0	0	1	1	24_1_1	NA	NA	0	1	1.28122401237	None	None	None	None	1
3.0.1	2019_Mar_14_1400	s	s	12	4	Capacity	36	1_4	1	4	1	3	23_1_3	0	1	1	0	0.638682126999	226.0	15.0	225.0	13.0	1
3.0.1	2019_Mar_14_1400	s	s	12	4	Capacity	37	1_1	1	1	1	4	23_1_4	0	3	1	0	0.86350107193	76.0	-127.0	73.0	-122.0	1
3.0.1	2019_Mar_14_1400	s	s	12	4	Capacity	38	ABS	0	0	1	2	24_1_2	NA	NA	0	1	2.76321315765	None	None	None	None	1
3.0.1	2019_Mar_14_1400	s	s	12	4	Capacity	39	ABS	0	0	1	2	24_1_2	NA	NA	0	1	3.49232196808	None	None	None	None	1
3.0.1	2019_Mar_14_1400	s	s	12	4	Capacity	40	ABS	0	0	1	3	24_1_3	NA	NA	0	1	3.60193395615	None	None	None	None	1
3.0.1	2019_Mar_14_1400	s	s	12	4	Capacity	41	1_3	1	3	1	2	23_1_2	0	1	1	0	4.54905581474	103.0	-36.0	92.0	-28.0	1
3.0.1	2019_Mar_14_1400	s	s	12	4	Capacity	42	ABS	0	0	1	3	24_1_3	NA	NA	0	1	2.37794280052	None	None	None	None	1
3.0.1	2019_Mar_14_1400	s	s	12	4	Capacity	43	ABS	0	0	1	1	24_1_1	NA	NA	0	1	6.73849797249	None	None	None	None	1
3.0.1	2019_Mar_14_1400	s	s	12	4	Capacity	44	1_4	1	4	1	1	23_1_1	0	3	1	0	0.744365930557	441.0	-312.0	453.0	-309.0	1
3.0.1	2019_Mar_14_1400	s	s	12	4	Capacity	45	ABS	0	0	1	4	24_1_4	NA	NA	0	1	1.67327690125	None	None	None	None	1
3.0.1	2019_Mar_14_1400	s	s	12	4	Capacity	46	1_2	1	2	1	3	23_1_3	0	1	1	0	3.73925995827	-85.0	108.0	-86.0	108.0	1
3.0.1	2019_Mar_14_1400	s	s	12	4	Capacity	47	1_3	1	3	1	4	23_1_4	0	-1	1	0	1.52822399139	146.0	-14.0	141.0	-21.0	1
3.0.1	2019_Mar_14_1400	s	s	12	4	Capacity	48	1_1	1	1	1	2	23_1_2	0	1	1	0	1.26169681549	494.0	-125.0	506.0	-118.0	1
3.0.1	2019_Mar_14_1400	s	s	12	4	Capacity	49	1_1	1	1	1	4	23_1_4	0	3	1	0	0.470204114914	463.0	-149.0	476.0	-145.0	1
3.0.1	2019_Mar_14_1400	s	s	12	4	Capacity	50	1_4	1	4	1	1	23_1_1	0	3	1	0	1.15728998184	37.0	133.0	47.0	136.0	1
3.0.1	2019_Mar_14_1400	s	s	12	4	Capacity	51	1_3	1	3	1	4	23_1_4	0	-1	1	0	0.545613050461	-3.0	-19.0	-3.0	-38.0	1
3.0.1	2019_Mar_14_1400	s	s	12	4	Capacity	52	ABS	0	0	1	2	24_1_2	NA	NA	0	1	5.43292188644	None	None	None	None	1
3.0.1	2019_Mar_14_1400	s	s	12	4	Capacity	53	ABS	0	0	1	4	24_1_4	NA	NA	0	1	2.50178408623	None	None	None	None	1
3.0.1	2019_Mar_14_1400	s	s	12	4	Capacity	54	1_3	1	3	1	1	23_1_1	0	2	1	0	0.987236022949	110.0	267.0	109.0	265.0	1
3.0.1	2019_Mar_14_1400	s	s	12	4	Capacity	55	1_4	1	4	1	2	23_1_2	0	2	1	0	0.622668981552	-188.0	-47.0	-180.0	-48.0	1
3.0.1	2019_Mar_14_1400	s	s	12	4	Capacity	56	ABS	0	0	1	1	24_1_1	NA	NA	0	1	1.76348114014	None	None	None	None	1
3.0.1	2019_Mar_14_1400	s	s	12	4	Capacity	57	ABS	0	0	1	1	24_1_1	NA	NA	0	1	2.43385410309	None	None	None	None	1
3.0.1	2019_Mar_14_1400	s	s	12	4	Capacity	58	ABS	0	0	1	2	24_1_2	NA	NA	1	0	0.857954025269	None	None	-72.0	-2.0	0
3.0.1	2019_Mar_14_1400	s	s	12	4	Capacity	59	1_1	1	1	1	2	23_1_2	0	1	1	0	2.91632199287	194.0	361.0	195.0	358.0	1
3.0.1	2019_Mar_14_1400	s	s	12	4	Capacity	60	ABS	0	0	1	4	24_1_4	NA	NA	0	1	0.995777130127	None	None	None	None	1
3.0.1	2019_Mar_14_1400	s	s	12	4	Capacity	61	1_1	1	1	1	3	23_1_3	0	2	1	0	1.19350814819	-96.0	-259.0	-95.0	-263.0	1
3.0.1	2019_Mar_14_1400	s	s	12	4	Capacity	62	1_3	1	3	1	2	23_1_2	0	1	1	0	1.48764705658	491.0	-379.0	493.0	-382.0	1
3.0.1	2019_Mar_14_1400	s	s	12	4	Capacity	63	ABS	0	0	1	1	24_1_1	NA	NA	0	1	1.55659508705	None	None	None	None	1
3.0.1	2019_Mar_14_1400	s	s	12	4	Capacity	64	ABS	0	0	1	4	24_1_4	NA	NA	0	1	2.41079211235	None	None	None	None	1
3.0.1	2019_Mar_14_1400	s	s	12	4	Capacity	65	ABS	0	0	1	3	24_1_3	NA	NA	0	1	3.07403111458	None	None	None	None	1
3.0.1	2019_Mar_14_1400	s	s	12	4	Capacity	66	ABS	0	0	1	3	24_1_3	NA	NA	0	1	3.21011209488	None	None	None	None	1
3.0.1	2019_Mar_14_1400	s	s	12	4	Capacity	67	1_2	1	2	1	1	23_1_1	0	-1	1	0	1.20432806015	330.0	-137.0	322.0	-129.0	1
3.0.1	2019_Mar_14_1400	s	s	12	4	Capacity	68	1_4	1	4	1	3	23_1_3	0	1	1	0	0.778906106949	-17.0	-22.0	-8.0	-19.0	1
3.0.1	2019_Mar_14_1400	s	s	12	4	Capacity	69	1_2	1	2	1	3	23_1_3	0	1	1	0	3.19665813446	-446.0	-368.0	-436.0	-363.0	1
3.0.1	2019_Mar_14_1400	s	s	12	4	Capacity	70	ABS	0	0	1	3	24_1_3	NA	NA	0	1	3.86887216568	None	None	None	None	1
3.0.1	2019_Mar_14_1400	s	s	12	4	Capacity	71	ABS	0	0	1	2	24_1_2	NA	NA	0	1	5.72336888313	None	None	None	None	1
3.0.1	2019_Mar_14_1400	s	s	12	4	Capacity	72	1_2	1	2	1	4	23_1_4	0	2	1	0	0.555129051208	-221.0	-165.0	-218.0	-175.0	1
3.0.1	2019_Mar_14_1400	s	s	12	4	Capacity	73	1_4	1	4	1	1	23_1_1	0	3	1	0	0.693097829819	-334.0	260.0	-326.0	258.0	1
3.0.1	2019_Mar_14_1400	s	s	12	4	Capacity	74	ABS	0	0	1	4	24_1_4	NA	NA	0	1	1.05040407181	None	None	None	None	1
3.0.1	2019_Mar_14_1400	s	s	12	4	Capacity	75	1_2	1	2	1	4	23_1_4	0	2	1	0	0.462996006012	-445.0	40.0	-437.0	40.0	1
3.0.1	2019_Mar_14_1400	s	s	12	4	Capacity	76	1_1	1	1	1	3	23_1_3	0	2	1	0	0.716738939285	64.0	-16.0	72.0	-15.0	1
3.0.1	2019_Mar_14_1400	s	s	12	4	Capacity	77	1_1	1	1	1	4	23_1_4	0	3	1	0	0.44220495224	-34.0	-265.0	-38.0	-274.0	1
3.0.1	2019_Mar_14_1400	s	s	12	4	Capacity	78	1_4	1	4	1	3	23_1_3	0	1	1	0	2.08421587944	419.0	-329.0	423.0	-326.0	1
3.0.1	2019_Mar_14_1400	s	s	12	4	Capacity	79	ABS	0	0	1	2	24_1_2	NA	NA	0	1	4.49496197701	None	None	None	None	1
3.0.1	2019_Mar_14_1400	s	s	12	4	Capacity	80	ABS	0	0	1	3	24_1_3	NA	NA	0	1	7.67594981194	None	None	None	None	1
3.0.1	2019_Mar_14_1400	s	s	12	4	Capacity	81	1_3	1	3	1	2	23_1_2	0	1	0	1	4.28523206711	-463.0	75.0	None	None	0
3.0.1	2019_Mar_14_1400	s	s	12	4	Capacity	82	ABS	0	0	1	3	24_1_3	NA	NA	0	1	1.31084108353	None	None	None	None	1
3.0.1	2019_Mar_14_1400	s	s	12	4	Capacity	83	1_2	1	2	1	3	23_1_3	0	1	0	1	3.15129590034	-253.0	160.0	None	None	0
3.0.1	2019_Mar_14_1400	s	s	12	4	Capacity	84	1_3	1	3	1	1	23_1_1	0	2	1	0	1.71655392647	388.0	120.0	392.0	117.0	1
3.0.1	2019_Mar_14_1400	s	s	12	4	Capacity	85	1_4	1	4	1	2	23_1_2	0	2	1	0	0.658067941666	468.0	-36.0	467.0	-33.0	1
3.0.1	2019_Mar_14_1400	s	s	12	4	Capacity	86	1_1	1	1	1	2	23_1_2	0	1	0	1	2.20752692223	515.0	175.0	None	None	0
3.0.1	2019_Mar_14_1400	s	s	12	4	Capacity	87	ABS	0	0	1	4	24_1_4	NA	NA	0	1	1.90942788124	None	None	None	None	1
3.0.1	2019_Mar_14_1400	s	s	12	4	Capacity	88	ABS	0	0	1	1	24_1_1	NA	NA	0	1	1.42238283157	None	None	None	None	1
3.0.1	2019_Mar_14_1400	s	s	12	4	Capacity	89	ABS	0	0	1	2	24_1_2	NA	NA	0	1	6.69138097763	None	None	None	None	1
3.0.1	2019_Mar_14_1400	s	s	12	4	Capacity	90	1_2	1	2	1	1	23_1_1	0	-1	1	0	1.93988990784	169.0	-92.0	160.0	-86.0	1
3.0.1	2019_Mar_14_1400	s	s	12	4	Capacity	91	ABS	0	0	1	3	24_1_3	NA	NA	0	1	3.28085207939	None	None	None	None	1
3.0.1	2019_Mar_14_1400	s	s	12	4	Capacity	92	ABS	0	0	1	2	24_1_2	NA	NA	0	1	4.5321791172	None	None	None	None	1
3.0.1	2019_Mar_14_1400	s	s	12	4	Capacity	93	1_3	1	3	1	4	23_1_4	0	-1	1	0	0.705016851425	108.0	332.0	104.0	328.0	1
3.0.1	2019_Mar_14_1400	s	s	12	4	Capacity	94	ABS	0	0	1	1	24_1_1	NA	NA	0	1	1.48773813248	None	None	None	None	1
3.0.1	2019_Mar_14_1400	s	s	12	4	Capacity	95	ABS	0	0	1	4	24_1_4	NA	NA	0	1	2.30968523026	None	None	None	None	1
3.0.1	2019_Mar_14_1400	s	s	12	4	Capacity	96	ABS	0	0	1	1	24_1_1	NA	NA	0	1	0.863173961639	None	None	None	None	1
3.0.1	2019_Mar_14_1400	s	s	12	4	Capacity	1	3_1	3	1	1	1	23_1_1	2	0	1	0	0.476382017136	-28.0	315.0	-27.0	318.0	1
3.0.1	2019_Mar_14_1400	s	s	12	4	Capacity	2	2_1	2	1	3	1	23_3_1	1	0	1	0	0.548712015152	30.0	-292.0	27.0	-293.0	1
3.0.1	2019_Mar_14_1400	s	s	12	4	Capacity	3	ABS	0	0	2	1	24_2_1	NA	NA	0	1	3.31049108505	None	None	None	None	1
3.0.1	2019_Mar_14_1400	s	s	12	4	Capacity	4	2_1	2	1	4	1	23_4_1	2	0	1	0	0.404272794724	-332.0	18.0	-324.0	18.0	1
3.0.1	2019_Mar_14_1400	s	s	12	4	Capacity	5	ABS	0	0	2	1	24_2_1	NA	NA	0	1	0.944935798645	None	None	None	None	1
3.0.1	2019_Mar_14_1400	s	s	12	4	Capacity	6	ABS	0	0	1	1	24_1_1	NA	NA	0	1	1.24890899658	None	None	None	None	1
3.0.1	2019_Mar_14_1400	s	s	12	4	Capacity	7	ABS	0	0	4	1	24_4_1	NA	NA	0	1	0.560368061066	None	None	None	None	1
3.0.1	2019_Mar_14_1400	s	s	12	4	Capacity	8	1_1	1	1	3	1	23_3_1	2	0	1	0	0.474822044373	280.0	-356.0	283.0	-370.0	1
3.0.1	2019_Mar_14_1400	s	s	12	4	Capacity	9	ABS	0	0	1	1	24_1_1	NA	NA	0	1	0.563925027847	None	None	None	None	1
3.0.1	2019_Mar_14_1400	s	s	12	4	Capacity	10	4_1	4	1	2	1	23_2_1	2	0	1	0	0.375678062439	127.0	272.0	120.0	266.0	1
3.0.1	2019_Mar_14_1400	s	s	12	4	Capacity	11	ABS	0	0	3	1	24_3_1	NA	NA	0	1	0.716751098633	None	None	None	None	1
3.0.1	2019_Mar_14_1400	s	s	12	4	Capacity	12	1_1	1	1	2	1	23_2_1	1	0	0	1	1.41072201729	-354.0	343.0	None	None	0
3.0.1	2019_Mar_14_1400	s	s	12	4	Capacity	13	4_1	4	1	1	1	23_1_1	3	0	1	0	0.417551994324	-269.0	-55.0	-263.0	-54.0	1
3.0.1	2019_Mar_14_1400	s	s	12	4	Capacity	14	2_1	2	1	1	1	23_1_1	-1	0	0	1	0.481554031372	157.0	346.0	None	None	0
3.0.1	2019_Mar_14_1400	s	s	12	4	Capacity	15	3_1	3	1	4	1	23_4_1	-1	0	1	0	0.496120214462	300.0	394.0	310.0	399.0	1
3.0.1	2019_Mar_14_1400	s	s	12	4	Capacity	16	4_1	4	1	3	1	23_3_1	1	0	1	0	0.73353099823	-6.0	368.0	-3.0	366.0	1
3.0.1	2019_Mar_14_1400	s	s	12	4	Capacity	17	ABS	0	0	4	1	24_4_1	NA	NA	0	1	1.21566510201	None	None	None	None	1
3.0.1	2019_Mar_14_1400	s	s	12	4	Capacity	18	ABS	0	0	3	1	24_3_1	NA	NA	0	1	1.96640896797	None	None	None	None	1
3.0.1	2019_Mar_14_1400	s	s	12	4	Capacity	19	1_1	1	1	4	1	23_4_1	3	0	1	0	0.587419986725	-17.0	-253.0	-24.0	-256.0	1
3.0.1	2019_Mar_14_1400	s	s	12	4	Capacity	20	ABS	0	0	1	1	24_1_1	NA	NA	0	1	1.58710312843	None	None	None	None	1
3.0.1	2019_Mar_14_1400	s	s	12	4	Capacity	21	ABS	0	0	3	1	24_3_1	NA	NA	0	1	1.15484809875	None	None	None	None	1
3.0.1	2019_Mar_14_1400	s	s	12	4	Capacity	22	3_1	3	1	2	1	23_2_1	1	0	1	0	1.33390617371	417.0	381.0	405.0	382.0	1
3.0.1	2019_Mar_14_1400	s	s	12	4	Capacity	23	ABS	0	0	4	1	24_4_1	NA	NA	0	1	1.87432789803	None	None	None	None	1
3.0.1	2019_Mar_14_1400	s	s	12	4	Capacity	24	ABS	0	0	2	1	24_2_1	NA	NA	0	1	2.29277992249	None	None	None	None	1
3.0.1	2019_Mar_14_1400	s	s	12	4	Capacity	25	ABS	0	0	2	1	24_2_1	NA	NA	0	1	0.849020004272	None	None	None	None	1
3.0.1	2019_Mar_14_1400	s	s	12	4	Capacity	26	3_1	3	1	4	1	23_4_1	-1	0	1	0	0.469741106033	-53.0	-56.0	-57.0	-60.0	1
3.0.1	2019_Mar_14_1400	s	s	12	4	Capacity	27	ABS	0	0	3	1	24_3_1	NA	NA	0	1	0.972109079361	None	None	None	None	1
3.0.1	2019_Mar_14_1400	s	s	12	4	Capacity	28	3_1	3	1	2	1	23_2_1	1	0	1	0	0.446233034134	285.0	86.0	298.0	91.0	1
3.0.1	2019_Mar_14_1400	s	s	12	4	Capacity	29	2_1	2	1	4	1	23_4_1	2	0	1	0	0.399264097214	-102.0	-151.0	-104.0	-150.0	1
3.0.1	2019_Mar_14_1400	s	s	12	4	Capacity	30	ABS	0	0	2	1	24_2_1	NA	NA	0	1	0.726907968521	None	None	None	None	1
3.0.1	2019_Mar_14_1400	s	s	12	4	Capacity	31	ABS	0	0	2	1	24_2_1	NA	NA	0	1	0.587395906448	None	None	None	None	1
3.0.1	2019_Mar_14_1400	s	s	12	4	Capacity	32	ABS	0	0	4	1	24_4_1	NA	NA	0	1	0.528539896011	None	None	None	None	1
3.0.1	2019_Mar_14_1400	s	s	12	4	Capacity	33	1_1	1	1	4	1	23_4_1	3	0	1	0	0.42312002182	81.0	266.0	80.0	270.0	1
3.0.1	2019_Mar_14_1400	s	s	12	4	Capacity	34	1_1	1	1	2	1	23_2_1	1	0	0	1	1.81043696404	435.0	203.0	None	None	0
3.0.1	2019_Mar_14_1400	s	s	12	4	Capacity	35	ABS	0	0	3	1	24_3_1	NA	NA	0	1	0.646466970444	None	None	None	None	1
3.0.1	2019_Mar_14_1400	s	s	12	4	Capacity	36	2_1	2	1	3	1	23_3_1	1	0	1	0	0.893185138702	23.0	-381.0	23.0	-375.0	1
3.0.1	2019_Mar_14_1400	s	s	12	4	Capacity	37	ABS	0	0	1	1	24_1_1	NA	NA	0	1	0.613802194595	None	None	None	None	1
3.0.1	2019_Mar_14_1400	s	s	12	4	Capacity	38	1_1	1	1	3	1	23_3_1	2	0	1	0	0.48443198204	157.0	3.0	145.0	8.0	1
3.0.1	2019_Mar_14_1400	s	s	12	4	Capacity	39	4_1	4	1	3	1	23_3_1	1	0	1	0	0.520781993866	214.0	371.0	220.0	366.0	1
3.0.1	2019_Mar_14_1400	s	s	12	4	Capacity	40	ABS	0	0	3	1	24_3_1	NA	NA	0	1	1.68112897873	None	None	None	None	1
3.0.1	2019_Mar_14_1400	s	s	12	4	Capacity	41	ABS	0	0	4	1	24_4_1	NA	NA	0	1	0.886440038681	None	None	None	None	1
3.0.1	2019_Mar_14_1400	s	s	12	4	Capacity	42	ABS	0	0	4	1	24_4_1	NA	NA	0	1	0.599231958389	None	None	None	None	1
3.0.1	2019_Mar_14_1400	s	s	12	4	Capacity	43	2_1	2	1	1	1	23_1_1	-1	0	1	0	0.983350992203	-159.0	124.0	-149.0	124.0	1
3.0.1	2019_Mar_14_1400	s	s	12	4	Capacity	44	ABS	0	0	1	1	24_1_1	NA	NA	0	1	1.28165602684	None	None	None	None	1
3.0.1	2019_Mar_14_1400	s	s	12	4	Capacity	45	4_1	4	1	1	1	23_1_1	3	0	1	0	0.429134130478	100.0	-321.0	88.0	-319.0	1
3.0.1	2019_Mar_14_1400	s	s	12	4	Capacity	46	4_1	4	1	2	1	23_2_1	2	0	1	0	0.410933971405	410.0	-206.0	410.0	-196.0	1
3.0.1	2019_Mar_14_1400	s	s	12	4	Capacity	47	3_1	3	1	1	1	23_1_1	2	0	1	0	0.545483112335	304.0	353.0	304.0	339.0	1
3.0.1	2019_Mar_14_1400	s	s	12	4	Capacity	48	ABS	0	0	1	1	24_1_1	NA	NA	0	1	0.663254976273	None	None	None	None	1
3.0.1	2019_Mar_14_1400	s	s	12	4	Capacity	49	2_1	2	1	3	1	23_3_1	1	0	1	0	0.652709007263	-118.0	182.0	-116.0	186.0	1
3.0.1	2019_Mar_14_1400	s	s	12	4	Capacity	50	1_1	1	1	3	1	23_3_1	2	0	1	0	0.428340911865	-257.0	100.0	-247.0	103.0	1
3.0.1	2019_Mar_14_1400	s	s	12	4	Capacity	51	ABS	0	0	2	1	24_2_1	NA	NA	0	1	1.88583612442	None	None	None	None	1
3.0.1	2019_Mar_14_1400	s	s	12	4	Capacity	52	ABS	0	0	4	1	24_4_1	NA	NA	0	1	2.09279608727	None	None	None	None	1
3.0.1	2019_Mar_14_1400	s	s	12	4	Capacity	53	3_1	3	1	1	1	23_1_1	2	0	1	0	0.591574192047	-203.0	369.0	-194.0	377.0	1
3.0.1	2019_Mar_14_1400	s	s	12	4	Capacity	54	2_1	2	1	1	1	23_1_1	-1	0	0	1	0.646185874939	-430.0	132.0	None	None	0
3.0.1	2019_Mar_14_1400	s	s	12	4	Capacity	55	3_1	3	1	4	1	23_4_1	-1	0	1	0	0.427920103073	206.0	-64.0	214.0	-59.0	1
3.0.1	2019_Mar_14_1400	s	s	12	4	Capacity	56	4_1	4	1	1	1	23_1_1	3	0	1	0	0.387428998947	464.0	27.0	457.0	24.0	1
3.0.1	2019_Mar_14_1400	s	s	12	4	Capacity	57	ABS	0	0	2	1	24_2_1	NA	NA	0	1	1.1567928791	None	None	None	None	1
3.0.1	2019_Mar_14_1400	s	s	12	4	Capacity	58	ABS	0	0	1	1	24_1_1	NA	NA	0	1	1.17266082764	None	None	None	None	1
3.0.1	2019_Mar_14_1400	s	s	12	4	Capacity	59	ABS	0	0	4	1	24_4_1	NA	NA	0	1	0.501002073288	None	None	None	None	1
3.0.1	2019_Mar_14_1400	s	s	12	4	Capacity	60	4_1	4	1	2	1	23_2_1	2	0	1	0	0.429272890091	197.0	369.0	206.0	370.0	1
3.0.1	2019_Mar_14_1400	s	s	12	4	Capacity	61	ABS	0	0	1	1	24_1_1	NA	NA	0	1	0.662751913071	None	None	None	None	1
3.0.1	2019_Mar_14_1400	s	s	12	4	Capacity	62	ABS	0	0	3	1	24_3_1	NA	NA	0	1	0.646232843399	None	None	None	None	1
3.0.1	2019_Mar_14_1400	s	s	12	4	Capacity	63	2_1	2	1	4	1	23_4_1	2	0	1	0	0.410892963409	-153.0	-116.0	-147.0	-121.0	1
3.0.1	2019_Mar_14_1400	s	s	12	4	Capacity	64	3_1	3	1	2	1	23_2_1	1	0	1	0	0.516789197922	-26.0	-50.0	-27.0	-51.0	1
3.0.1	2019_Mar_14_1400	s	s	12	4	Capacity	65	1_1	1	1	4	1	23_4_1	3	0	1	0	0.62765789032	-342.0	347.0	-346.0	341.0	1
3.0.1	2019_Mar_14_1400	s	s	12	4	Capacity	66	1_1	1	1	2	1	23_2_1	1	0	0	1	0.693192005157	272.0	272.0	None	None	0
3.0.1	2019_Mar_14_1400	s	s	12	4	Capacity	67	ABS	0	0	1	1	24_1_1	NA	NA	0	1	1.05782008171	None	None	None	None	1
3.0.1	2019_Mar_14_1400	s	s	12	4	Capacity	68	ABS	0	0	3	1	24_3_1	NA	NA	0	1	0.619421005249	None	None	None	None	1
3.0.1	2019_Mar_14_1400	s	s	12	4	Capacity	69	ABS	0	0	4	1	24_4_1	NA	NA	0	1	0.540339946747	None	None	None	None	1
3.0.1	2019_Mar_14_1400	s	s	12	4	Capacity	70	ABS	0	0	3	1	24_3_1	NA	NA	0	1	0.604301929474	None	None	None	None	1
3.0.1	2019_Mar_14_1400	s	s	12	4	Capacity	71	4_1	4	1	3	1	23_3_1	1	0	1	0	0.486764907837	-350.0	256.0	-355.0	245.0	1
3.0.1	2019_Mar_14_1400	s	s	12	4	Capacity	72	ABS	0	0	2	1	24_2_1	NA	NA	0	1	0.74594783783	None	None	None	None	1
3.0.1	2019_Mar_14_1400	s	s	12	4	Capacity	73	2_1	2	1	1	1	23_1_1	-1	0	1	0	0.915704011917	28.0	-123.0	25.0	-131.0	1
3.0.1	2019_Mar_14_1400	s	s	12	4	Capacity	74	ABS	0	0	3	1	24_3_1	NA	NA	0	1	2.29266691208	None	None	None	None	1
3.0.1	2019_Mar_14_1400	s	s	12	4	Capacity	75	ABS	0	0	2	1	24_2_1	NA	NA	0	1	0.627850055695	None	None	None	None	1
3.0.1	2019_Mar_14_1400	s	s	12	4	Capacity	76	1_1	1	1	4	1	23_4_1	3	0	1	0	0.410984992981	-177.0	-305.0	-184.0	-304.0	1
3.0.1	2019_Mar_14_1400	s	s	12	4	Capacity	77	ABS	0	0	2	1	24_2_1	NA	NA	0	1	0.881433963776	None	None	None	None	1
3.0.1	2019_Mar_14_1400	s	s	12	4	Capacity	78	2_1	2	1	3	1	23_3_1	1	0	1	0	0.481751918793	266.0	191.0	262.0	198.0	1
3.0.1	2019_Mar_14_1400	s	s	12	4	Capacity	79	1_1	1	1	3	1	23_3_1	2	0	1	0	0.410953044891	66.0	245.0	73.0	253.0	1
3.0.1	2019_Mar_14_1400	s	s	12	4	Capacity	80	3_1	3	1	1	1	23_1_1	2	0	1	0	0.502239227295	-468.0	-118.0	-470.0	-127.0	1
3.0.1	2019_Mar_14_1400	s	s	12	4	Capacity	81	3_1	3	1	4	1	23_4_1	-1	0	1	0	0.501652956009	-255.0	-363.0	-265.0	-353.0	1
3.0.1	2019_Mar_14_1400	s	s	12	4	Capacity	82	ABS	0	0	2	1	24_2_1	NA	NA	0	1	0.846058130264	None	None	None	None	1
3.0.1	2019_Mar_14_1400	s	s	12	4	Capacity	83	ABS	0	0	1	1	24_1_1	NA	NA	0	1	0.651169061661	None	None	None	None	1
3.0.1	2019_Mar_14_1400	s	s	12	4	Capacity	84	2_1	2	1	4	1	23_4_1	2	0	1	0	0.427967071533	-508.0	-316.0	-518.0	-313.0	1
3.0.1	2019_Mar_14_1400	s	s	12	4	Capacity	85	4_1	4	1	2	1	23_2_1	2	0	1	0	0.387379169464	-419.0	385.0	-407.0	390.0	1
3.0.1	2019_Mar_14_1400	s	s	12	4	Capacity	86	ABS	0	0	3	1	24_3_1	NA	NA	0	1	1.06966996193	None	None	None	None	1
3.0.1	2019_Mar_14_1400	s	s	12	4	Capacity	87	1_1	1	1	2	1	23_2_1	1	0	1	0	2.51104712486	-501.0	-277.0	-504.0	-275.0	1
3.0.1	2019_Mar_14_1400	s	s	12	4	Capacity	88	ABS	0	0	4	1	24_4_1	NA	NA	0	1	0.681458950043	None	None	None	None	1
3.0.1	2019_Mar_14_1400	s	s	12	4	Capacity	89	ABS	0	0	1	1	24_1_1	NA	NA	0	1	0.629130125046	None	None	None	None	1
3.0.1	2019_Mar_14_1400	s	s	12	4	Capacity	90	ABS	0	0	1	1	24_1_1	NA	NA	0	1	0.53379201889	None	None	None	None	1
3.0.1	2019_Mar_14_1400	s	s	12	4	Capacity	91	ABS	0	0	4	1	24_4_1	NA	NA	0	1	0.587341070175	None	None	None	None	1
3.0.1	2019_Mar_14_1400	s	s	12	4	Capacity	92	4_1	4	1	3	1	23_3_1	1	0	1	0	0.469722986221	370.0	-107.0	370.0	-108.0	1
3.0.1	2019_Mar_14_1400	s	s	12	4	Capacity	93	4_1	4	1	1	1	23_1_1	3	0	1	0	0.369090080261	-409.0	16.0	-420.0	16.0	1
3.0.1	2019_Mar_14_1400	s	s	12	4	Capacity	94	ABS	0	0	3	1	24_3_1	NA	NA	0	1	0.775528907776	None	None	None	None	1
3.0.1	2019_Mar_14_1400	s	s	12	4	Capacity	95	3_1	3	1	2	1	23_2_1	1	0	1	0	0.587383985519	205.0	309.0	209.0	296.0	1
3.0.1	2019_Mar_14_1400	s	s	12	4	Capacity	96	ABS	0	0	4	1	24_4_1	NA	NA	0	1	0.721475839615	None	None	None	None	1
3.0.1	2019_Mar_14_1400	s	s	12	4	SIC	1	ABS	0	0	3	2	24_3_2	NA	NA	0	1	1.43701505661	None	None	None	None	1
3.0.1	2019_Mar_14_1400	s	s	12	4	SIC	2	2_2	2	2	2	3	23_2_3	0	1	1	0	4.20658707619	299.0	-404.0	301.0	-399.0	1
3.0.1	2019_Mar_14_1400	s	s	12	4	SIC	3	ABS	0	0	1	3	24_1_3	NA	NA	1	0	10.9959881306	None	None	-118.0	187.0	0
3.0.1	2019_Mar_14_1400	s	s	12	4	SIC	4	ABS	0	0	2	1	24_2_1	NA	NA	0	1	2.10122585297	None	None	None	None	1
3.0.1	2019_Mar_14_1400	s	s	12	4	SIC	5	ABS	0	0	3	1	24_3_1	NA	NA	0	1	0.999014854431	None	None	None	None	1
3.0.1	2019_Mar_14_1400	s	s	12	4	SIC	6	ABS	0	0	3	4	24_3_4	NA	NA	0	1	0.639220952988	None	None	None	None	1
3.0.1	2019_Mar_14_1400	s	s	12	4	SIC	7	2_3	2	3	1	2	23_1_2	-1	1	1	0	1.86934113503	65.0	-287.0	65.0	-299.0	1
3.0.1	2019_Mar_14_1400	s	s	12	4	SIC	8	3_2	3	2	4	1	23_4_1	-1	-1	1	0	0.744823932648	537.0	273.0	538.0	281.0	1
3.0.1	2019_Mar_14_1400	s	s	12	4	SIC	9	1_3	1	3	2	3	23_2_3	1	0	1	0	0.556680202484	132.0	-14.0	136.0	-13.0	1
3.0.1	2019_Mar_14_1400	s	s	12	4	SIC	10	ABS	0	0	1	2	24_1_2	NA	NA	0	1	4.449873209	None	None	None	None	1
3.0.1	2019_Mar_14_1400	s	s	12	4	SIC	11	3_2	3	2	4	3	23_4_3	-1	1	1	0	0.463412046432	430.0	-24.0	422.0	-28.0	1
3.0.1	2019_Mar_14_1400	s	s	12	4	SIC	12	ABS	0	0	4	1	24_4_1	NA	NA	0	1	1.66437196732	None	None	None	None	1
3.0.1	2019_Mar_14_1400	s	s	12	4	SIC	13	1_3	1	3	1	4	23_1_4	0	-1	1	0	0.933071136475	223.0	284.0	225.0	282.0	1
3.0.1	2019_Mar_14_1400	s	s	12	4	SIC	14	ABS	0	0	1	1	24_1_1	NA	NA	0	1	1.90456295013	None	None	None	None	1
3.0.1	2019_Mar_14_1400	s	s	12	4	SIC	15	1_1	1	1	3	2	23_3_2	2	1	1	0	0.446185112	-331.0	269.0	-333.0	267.0	1
3.0.1	2019_Mar_14_1400	s	s	12	4	SIC	16	ABS	0	0	3	1	24_3_1	NA	NA	0	1	1.19223499298	None	None	None	None	1
3.0.1	2019_Mar_14_1400	s	s	12	4	SIC	17	ABS	0	0	3	4	24_3_4	NA	NA	0	1	0.605113983154	None	None	None	None	1
3.0.1	2019_Mar_14_1400	s	s	12	4	SIC	18	ABS	0	0	3	4	24_3_4	NA	NA	0	1	0.848968982697	None	None	None	None	1
3.0.1	2019_Mar_14_1400	s	s	12	4	SIC	19	ABS	0	0	4	2	24_4_2	NA	NA	0	1	4.72729992867	None	None	None	None	1
3.0.1	2019_Mar_14_1400	s	s	12	4	SIC	20	4_1	4	1	2	1	23_2_1	2	0	1	0	0.426750898361	389.0	-151.0	390.0	-142.0	1
3.0.1	2019_Mar_14_1400	s	s	12	4	SIC	21	3_2	3	2	2	1	23_2_1	1	-1	1	0	0.427776098251	-445.0	207.0	-453.0	202.0	1
3.0.1	2019_Mar_14_1400	s	s	12	4	SIC	22	4_2	4	2	3	4	23_3_4	1	2	1	0	0.378518104553	-433.0	241.0	-428.0	248.0	1
3.0.1	2019_Mar_14_1400	s	s	12	4	SIC	23	ABS	0	0	2	3	24_2_3	NA	NA	0	1	6.08274817467	None	None	None	None	1
3.0.1	2019_Mar_14_1400	s	s	12	4	SIC	24	2_4	2	4	2	2	23_2_2	0	2	1	0	0.693222999573	-12.0	-383.0	-6.0	-380.0	1
3.0.1	2019_Mar_14_1400	s	s	12	4	SIC	25	ABS	0	0	2	3	24_2_3	NA	NA	0	1	4.43615102768	None	None	None	None	1
3.0.1	2019_Mar_14_1400	s	s	12	4	SIC	26	4_1	4	1	1	1	23_1_1	3	0	1	0	0.399410009384	-403.0	199.0	-399.0	197.0	1
3.0.1	2019_Mar_14_1400	s	s	12	4	SIC	27	2_4	2	4	2	3	23_2_3	0	1	1	0	0.672689914703	-362.0	-249.0	-357.0	-253.0	1
3.0.1	2019_Mar_14_1400	s	s	12	4	SIC	28	ABS	0	0	3	1	24_3_1	NA	NA	0	1	1.31941413879	None	None	None	None	1
3.0.1	2019_Mar_14_1400	s	s	12	4	SIC	29	4_3	4	3	2	3	23_2_3	2	0	1	0	0.399926185608	55.0	71.0	62.0	66.0	1
3.0.1	2019_Mar_14_1400	s	s	12	4	SIC	30	4_4	4	4	2	3	23_2_3	2	1	1	0	0.363916873932	-231.0	102.0	-233.0	91.0	1
3.0.1	2019_Mar_14_1400	s	s	12	4	SIC	31	ABS	0	0	2	3	24_2_3	NA	NA	0	1	2.19084596634	None	None	None	None	1
3.0.1	2019_Mar_14_1400	s	s	12	4	SIC	32	4_2	4	2	1	2	23_1_2	3	0	1	0	0.446371078491	410.0	274.0	419.0	271.0	1
3.0.1	2019_Mar_14_1400	s	s	12	4	SIC	33	ABS	0	0	4	1	24_4_1	NA	NA	0	1	0.716747999191	None	None	None	None	1
3.0.1	2019_Mar_14_1400	s	s	12	4	SIC	34	3_1	3	1	2	3	23_2_3	1	2	1	0	0.481463193893	36.0	346.0	41.0	341.0	1
3.0.1	2019_Mar_14_1400	s	s	12	4	SIC	35	2_4	2	4	4	3	23_4_3	2	1	1	0	0.392353057861	-34.0	-180.0	-35.0	-190.0	1
3.0.1	2019_Mar_14_1400	s	s	12	4	SIC	36	2_3	2	3	1	1	23_1_1	-1	2	0	1	0.792053937912	-428.0	196.0	None	None	0
3.0.1	2019_Mar_14_1400	s	s	12	4	SIC	37	ABS	0	0	2	4	24_2_4	NA	NA	0	1	1.2509958744	None	None	None	None	1
3.0.1	2019_Mar_14_1400	s	s	12	4	SIC	38	4_2	4	2	2	2	23_2_2	2	0	1	0	0.560845136642	311.0	15.0	308.0	25.0	1
3.0.1	2019_Mar_14_1400	s	s	12	4	SIC	39	3_2	3	2	3	3	23_3_3	0	1	1	0	3.50804877281	-139.0	35.0	-146.0	42.0	1
3.0.1	2019_Mar_14_1400	s	s	12	4	SIC	40	4_4	4	4	2	4	23_2_4	2	0	1	0	0.705034971237	222.0	380.0	220.0	375.0	1
3.0.1	2019_Mar_14_1400	s	s	12	4	SIC	41	2_1	2	1	3	1	23_3_1	1	0	1	0	0.657898187637	-289.0	282.0	-292.0	274.0	1
3.0.1	2019_Mar_14_1400	s	s	12	4	SIC	42	ABS	0	0	2	2	24_2_2	NA	NA	0	1	6.18558597565	None	None	None	None	1
3.0.1	2019_Mar_14_1400	s	s	12	4	SIC	43	4_1	4	1	1	2	23_1_2	3	1	1	0	0.451889038086	369.0	-88.0	371.0	-104.0	1
3.0.1	2019_Mar_14_1400	s	s	12	4	SIC	44	4_1	4	1	2	2	23_2_2	2	1	1	0	0.399142026901	-280.0	-146.0	-277.0	-150.0	1
3.0.1	2019_Mar_14_1400	s	s	12	4	SIC	45	3_4	3	4	2	4	23_2_4	1	0	1	0	0.481521129608	43.0	130.0	42.0	136.0	1
3.0.1	2019_Mar_14_1400	s	s	12	4	SIC	46	1_3	1	3	2	1	23_2_1	1	2	1	0	0.870017051697	195.0	159.0	186.0	156.0	1
3.0.1	2019_Mar_14_1400	s	s	12	4	SIC	47	ABS	0	0	1	1	24_1_1	NA	NA	0	1	3.4805419445	None	None	None	None	1
3.0.1	2019_Mar_14_1400	s	s	12	4	SIC	48	ABS	0	0	2	4	24_2_4	NA	NA	0	1	1.27537798882	None	None	None	None	1
3.0.1	2019_Mar_14_1400	s	s	12	4	SIC	49	ABS	0	0	4	4	24_4_4	NA	NA	0	1	0.849142074585	None	None	None	None	1
3.0.1	2019_Mar_14_1400	s	s	12	4	SIC	50	ABS	0	0	2	1	24_2_1	NA	NA	0	1	0.757541894913	None	None	None	None	1
3.0.1	2019_Mar_14_1400	s	s	12	4	SIC	51	ABS	0	0	2	2	24_2_2	NA	NA	0	1	6.37886595726	None	None	None	None	1
3.0.1	2019_Mar_14_1400	s	s	12	4	SIC	52	ABS	0	0	2	3	24_2_3	NA	NA	0	1	7.17365312576	None	None	None	None	1
3.0.1	2019_Mar_14_1400	s	s	12	4	SIC	53	2_2	2	2	1	2	23_1_2	-1	0	1	0	1.08905410767	-290.0	-112.0	-283.0	-114.0	1
3.0.1	2019_Mar_14_1400	s	s	12	4	SIC	54	ABS	0	0	3	3	24_3_3	NA	NA	0	1	4.21440887451	None	None	None	None	1
3.0.1	2019_Mar_14_1400	s	s	12	4	SIC	55	1_1	1	1	4	1	23_4_1	3	0	1	0	0.417804956436	199.0	-103.0	202.0	-106.0	1
3.0.1	2019_Mar_14_1400	s	s	12	4	SIC	56	ABS	0	0	4	1	24_4_1	NA	NA	0	1	1.96637606621	None	None	None	None	1
3.0.1	2019_Mar_14_1400	s	s	12	4	SIC	57	2_3	2	3	1	3	23_1_3	-1	0	1	0	1.02543020248	-476.0	124.0	-502.0	238.0	0
3.0.1	2019_Mar_14_1400	s	s	12	4	SIC	58	ABS	0	0	4	1	24_4_1	NA	NA	0	1	0.860549926758	None	None	None	None	1
3.0.1	2019_Mar_14_1400	s	s	12	4	SIC	59	2_2	2	2	1	4	23_1_4	-1	2	1	0	0.510769128799	91.0	-53.0	95.0	-48.0	1
3.0.1	2019_Mar_14_1400	s	s	12	4	SIC	60	4_1	4	1	3	2	23_3_2	1	1	1	0	0.485483884811	-163.0	23.0	-156.0	16.0	1
3.0.1	2019_Mar_14_1400	s	s	12	4	SIC	61	3_3	3	3	4	3	23_4_3	-1	0	1	0	0.48443198204	-380.0	70.0	-391.0	70.0	1
3.0.1	2019_Mar_14_1400	s	s	12	4	SIC	62	ABS	0	0	4	2	24_4_2	NA	NA	0	1	1.42734098434	None	None	None	None	1
3.0.1	2019_Mar_14_1400	s	s	12	4	SIC	63	ABS	0	0	1	2	24_1_2	NA	NA	0	1	1.97966504097	None	None	None	None	1
3.0.1	2019_Mar_14_1400	s	s	12	4	SIC	64	ABS	0	0	3	4	24_3_4	NA	NA	0	1	0.721935987473	None	None	None	None	1
3.0.1	2019_Mar_14_1400	s	s	12	4	SIC	65	ABS	0	0	3	3	24_3_3	NA	NA	0	1	0.928515911102	None	None	None	None	1
3.0.1	2019_Mar_14_1400	s	s	12	4	SIC	66	ABS	0	0	4	2	24_4_2	NA	NA	0	1	0.854382038116	None	None	None	None	1
3.0.1	2019_Mar_14_1400	s	s	12	4	SIC	67	ABS	0	0	4	4	24_4_4	NA	NA	0	1	0.673544168472	None	None	None	None	1
3.0.1	2019_Mar_14_1400	s	s	12	4	SIC	68	ABS	0	0	2	1	24_2_1	NA	NA	0	1	1.84866595268	None	None	None	None	1
3.0.1	2019_Mar_14_1400	s	s	12	4	SIC	69	ABS	0	0	3	1	24_3_1	NA	NA	0	1	0.956876039505	None	None	None	None	1
3.0.1	2019_Mar_14_1400	s	s	12	4	SIC	70	1_4	1	4	2	2	23_2_2	1	2	1	0	0.634366035461	-231.0	-300.0	-233.0	-306.0	1
3.0.1	2019_Mar_14_1400	s	s	12	4	SIC	71	ABS	0	0	2	4	24_2_4	NA	NA	0	1	0.731426954269	None	None	None	None	1
3.0.1	2019_Mar_14_1400	s	s	12	4	SIC	72	ABS	0	0	2	2	24_2_2	NA	NA	0	1	3.70808815956	None	None	None	None	1
3.0.1	2019_Mar_14_1400	s	s	12	4	SIC	73	3_3	3	3	4	4	23_4_4	-1	-1	1	0	0.540373086929	-31.0	398.0	-35.0	402.0	1
3.0.1	2019_Mar_14_1400	s	s	12	4	SIC	74	2_4	2	4	4	1	23_4_1	2	3	1	0	0.503329992294	-353.0	-412.0	-349.0	-418.0	1
3.0.1	2019_Mar_14_1400	s	s	12	4	SIC	75	ABS	0	0	3	2	24_3_2	NA	NA	0	1	1.26650094986	None	None	None	None	1
3.0.1	2019_Mar_14_1400	s	s	12	4	SIC	76	1_2	1	2	3	2	23_3_2	2	0	1	0	0.399114847183	-447.0	-309.0	-440.0	-309.0	1
3.0.1	2019_Mar_14_1400	s	s	12	4	SIC	77	1_3	1	3	2	4	23_2_4	1	-1	1	0	0.669646978378	-537.0	-6.0	-535.0	-7.0	1
3.0.1	2019_Mar_14_1400	s	s	12	4	SIC	78	3_2	3	2	2	4	23_2_4	1	2	1	0	0.446283102036	-11.0	230.0	-6.0	221.0	1
3.0.1	2019_Mar_14_1400	s	s	12	4	SIC	79	3_4	3	4	1	2	23_1_2	2	2	1	0	0.45160984993	93.0	214.0	96.0	211.0	1
3.0.1	2019_Mar_14_1400	s	s	12	4	SIC	80	ABS	0	0	1	1	24_1_1	NA	NA	0	1	1.08424305916	None	None	None	None	1
3.0.1	2019_Mar_14_1400	s	s	12	4	SIC	81	ABS	0	0	3	1	24_3_1	NA	NA	1	0	0.672573804855	None	None	-22.0	82.0	0
3.0.1	2019_Mar_14_1400	s	s	12	4	SIC	82	ABS	0	0	1	4	24_1_4	NA	NA	0	1	3.01640605927	None	None	None	None	1
3.0.1	2019_Mar_14_1400	s	s	12	4	SIC	83	2_4	2	4	3	1	23_3_1	1	3	1	0	0.496126890182	-355.0	175.0	-350.0	166.0	1
3.0.1	2019_Mar_14_1400	s	s	12	4	SIC	84	ABS	0	0	1	3	24_1_3	NA	NA	0	1	3.20118403435	None	None	None	None	1
3.0.1	2019_Mar_14_1400	s	s	12	4	SIC	85	1_4	1	4	1	3	23_1_3	0	1	1	0	1.56357383728	-18.0	9.0	-20.0	-4.0	1
3.0.1	2019_Mar_14_1400	s	s	12	4	SIC	86	1_1	1	1	2	4	23_2_4	1	3	1	0	0.627841949463	148.0	408.0	166.0	-41.0	0
3.0.1	2019_Mar_14_1400	s	s	12	4	SIC	87	2_1	2	1	3	4	23_3_4	1	3	1	0	0.457983016968	139.0	260.0	149.0	260.0	1
3.0.1	2019_Mar_14_1400	s	s	12	4	SIC	88	4_4	4	4	3	3	23_3_3	1	1	1	0	0.440372943878	-424.0	130.0	-408.0	140.0	1
3.0.1	2019_Mar_14_1400	s	s	12	4	SIC	89	ABS	0	0	4	4	24_4_4	NA	NA	1	0	1.56864786148	None	None	-66.0	-7.0	0
3.0.1	2019_Mar_14_1400	s	s	12	4	SIC	90	1_1	1	1	3	4	23_3_4	2	3	1	0	0.646173000336	-464.0	-74.0	-477.0	-64.0	1
3.0.1	2019_Mar_14_1400	s	s	12	4	SIC	91	3_4	3	4	3	1	23_3_1	0	3	1	0	0.687232971191	148.0	276.0	152.0	271.0	1
3.0.1	2019_Mar_14_1400	s	s	12	4	SIC	92	ABS	0	0	3	2	24_3_2	NA	NA	0	1	4.71559309959	None	None	None	None	1
3.0.1	2019_Mar_14_1400	s	s	12	4	SIC	93	ABS	0	0	1	3	24_1_3	NA	NA	0	1	4.89195680618	None	None	None	None	1
3.0.1	2019_Mar_14_1400	s	s	12	4	SIC	94	1_1	1	1	1	3	23_1_3	0	2	0	1	1.68516206741	322.0	319.0	None	None	0
3.0.1	2019_Mar_14_1400	s	s	12	4	SIC	95	1_2	1	2	4	2	23_4_2	3	0	1	0	0.582258939743	432.0	402.0	417.0	410.0	1
3.0.1	2019_Mar_14_1400	s	s	12	4	SIC	96	ABS	0	0	1	3	24_1_3	NA	NA	0	1	4.02452206612	None	None	None	None	1
3.0.1	2019_Mar_14_1400	s	s	12	4	SIC	97	3_2	3	2	1	1	23_1_1	2	-1	1	0	0.545172929764	-292.0	360.0	-293.0	360.0	1
3.0.1	2019_Mar_14_1400	s	s	12	4	SIC	98	ABS	0	0	3	3	24_3_3	NA	NA	0	1	2.04580497742	None	None	None	None	1
3.0.1	2019_Mar_14_1400	s	s	12	4	SIC	99	ABS	0	0	1	2	24_1_2	NA	NA	0	1	1.15194702148	None	None	None	None	1
3.0.1	2019_Mar_14_1400	s	s	12	4	SIC	100	3_2	3	2	1	2	23_1_2	2	0	1	0	1.10478305817	186.0	326.0	180.0	322.0	1
3.0.1	2019_Mar_14_1400	s	s	12	4	SIC	101	ABS	0	0	1	1	24_1_1	NA	NA	0	1	0.899657011032	None	None	None	None	1
3.0.1	2019_Mar_14_1400	s	s	12	4	SIC	102	4_3	4	3	4	1	23_4_1	0	2	0	1	0.575651884079	197.0	212.0	None	None	0
3.0.1	2019_Mar_14_1400	s	s	12	4	SIC	103	ABS	0	0	1	2	24_1_2	NA	NA	0	1	3.97751092911	None	None	None	None	1
3.0.1	2019_Mar_14_1400	s	s	12	4	SIC	104	4_1	4	1	1	3	23_1_3	3	2	1	0	0.499132156372	19.0	251.0	12.0	245.0	1
3.0.1	2019_Mar_14_1400	s	s	12	4	SIC	105	4_1	4	1	4	4	23_4_4	0	3	1	0	0.519738912582	-342.0	313.0	-341.0	299.0	1
3.0.1	2019_Mar_14_1400	s	s	12	4	SIC	106	3_3	3	3	4	2	23_4_2	-1	1	1	0	0.462566137314	366.0	-33.0	375.0	-34.0	1
3.0.1	2019_Mar_14_1400	s	s	12	4	SIC	107	ABS	0	0	2	2	24_2_2	NA	NA	0	1	3.36894392967	None	None	None	None	1
3.0.1	2019_Mar_14_1400	s	s	12	4	SIC	108	2_1	2	1	1	1	23_1_1	-1	0	0	1	1.31708407402	-122.0	68.0	None	None	0
3.0.1	2019_Mar_14_1400	s	s	12	4	SIC	109	4_2	4	2	1	4	23_1_4	3	2	1	0	0.402764081955	-460.0	-216.0	-462.0	-226.0	1
3.0.1	2019_Mar_14_1400	s	s	12	4	SIC	110	ABS	0	0	2	3	24_2_3	NA	NA	0	1	2.03387594223	None	None	None	None	1
3.0.1	2019_Mar_14_1400	s	s	12	4	SIC	111	ABS	0	0	3	3	24_3_3	NA	NA	0	1	4.17446804047	None	None	None	None	1
3.0.1	2019_Mar_14_1400	s	s	12	4	SIC	112	ABS	0	0	3	1	24_3_1	NA	NA	0	1	1.34014511108	None	None	None	None	1
3.0.1	2019_Mar_14_1400	s	s	12	4	SIC	113	ABS	0	0	3	3	24_3_3	NA	NA	0	1	1.37867498398	None	None	None	None	1
3.0.1	2019_Mar_14_1400	s	s	12	4	SIC	114	3_1	3	1	1	3	23_1_3	2	2	1	0	0.940231084824	-424.0	305.0	-430.0	304.0	1
3.0.1	2019_Mar_14_1400	s	s	12	4	SIC	115	ABS	0	0	3	1	24_3_1	NA	NA	0	1	1.81048202515	None	None	None	None	1
3.0.1	2019_Mar_14_1400	s	s	12	4	SIC	116	2_1	2	1	4	2	23_4_2	2	1	1	0	0.528609991074	-477.0	299.0	-468.0	301.0	1
3.0.1	2019_Mar_14_1400	s	s	12	4	SIC	117	1_1	1	1	2	3	23_2_3	1	2	1	0	1.45767188072	231.0	-333.0	240.0	-336.0	1
3.0.1	2019_Mar_14_1400	s	s	12	4	SIC	118	ABS	0	0	1	2	24_1_2	NA	NA	0	1	2.06946802139	None	None	None	None	1
3.0.1	2019_Mar_14_1400	s	s	12	4	SIC	119	ABS	0	0	4	4	24_4_4	NA	NA	0	1	1.01678180695	None	None	None	None	1
3.0.1	2019_Mar_14_1400	s	s	12	4	SIC	120	3_4	3	4	3	2	23_3_2	0	2	1	0	0.899629116058	533.0	310.0	543.0	308.0	1
3.0.1	2019_Mar_14_1400	s	s	12	4	SIC	121	ABS	0	0	3	1	24_3_1	NA	NA	0	1	1.42531204224	None	None	None	None	1
3.0.1	2019_Mar_14_1400	s	s	12	4	SIC	122	ABS	0	0	3	2	24_3_2	NA	NA	0	1	3.76291298866	None	None	None	None	1
3.0.1	2019_Mar_14_1400	s	s	12	4	SIC	123	1_1	1	1	3	1	23_3_1	2	0	1	0	0.651783943176	-286.0	-84.0	-283.0	-89.0	1
3.0.1	2019_Mar_14_1400	s	s	12	4	SIC	124	ABS	0	0	2	3	24_2_3	NA	NA	0	1	1.52837085724	None	None	None	None	1
3.0.1	2019_Mar_14_1400	s	s	12	4	SIC	125	ABS	0	0	1	3	24_1_3	NA	NA	0	1	1.20185399055	None	None	None	None	1
3.0.1	2019_Mar_14_1400	s	s	12	4	SIC	126	ABS	0	0	1	2	24_1_2	NA	NA	0	1	2.1633169651	None	None	None	None	1
3.0.1	2019_Mar_14_1400	s	s	12	4	SIC	127	4_2	4	2	4	3	23_4_3	0	1	0	1	1.093490839	-78.0	166.0	None	None	0
3.0.1	2019_Mar_14_1400	s	s	12	4	SIC	128	1_2	1	2	2	2	23_2_2	1	0	1	0	3.34599804878	-275.0	-188.0	-262.0	-179.0	1
3.0.1	2019_Mar_14_1400	s	s	12	4	SIC	129	ABS	0	0	2	4	24_2_4	NA	NA	0	1	0.8813829422	None	None	None	None	1
3.0.1	2019_Mar_14_1400	s	s	12	4	SIC	130	ABS	0	0	2	4	24_2_4	NA	NA	0	1	0.745490074158	None	None	None	None	1
3.0.1	2019_Mar_14_1400	s	s	12	4	SIC	131	ABS	0	0	2	3	24_2_3	NA	NA	0	1	1.78999209404	None	None	None	None	1
3.0.1	2019_Mar_14_1400	s	s	12	4	SIC	132	ABS	0	0	3	2	24_3_2	NA	NA	0	1	1.12129998207	None	None	None	None	1
3.0.1	2019_Mar_14_1400	s	s	12	4	SIC	133	ABS	0	0	2	2	24_2_2	NA	NA	0	1	1.24596595764	None	None	None	None	1
3.0.1	2019_Mar_14_1400	s	s	12	4	SIC	134	4_3	4	3	4	4	23_4_4	0	-1	1	0	0.731364011765	-257.0	-220.0	-259.0	-218.0	1
3.0.1	2019_Mar_14_1400	s	s	12	4	SIC	135	1_2	1	2	3	3	23_3_3	2	1	1	0	0.460772037506	-420.0	-99.0	-420.0	-108.0	1
3.0.1	2019_Mar_14_1400	s	s	12	4	SIC	136	ABS	0	0	1	2	24_1_2	NA	NA	0	1	4.25691986084	None	None	None	None	1
3.0.1	2019_Mar_14_1400	s	s	12	4	SIC	137	ABS	0	0	1	2	24_1_2	NA	NA	0	1	1.67835283279	None	None	None	None	1
3.0.1	2019_Mar_14_1400	s	s	12	4	SIC	138	ABS	0	0	4	4	24_4_4	NA	NA	0	1	1.28488898277	None	None	None	None	1
3.0.1	2019_Mar_14_1400	s	s	12	4	SIC	139	ABS	0	0	1	3	24_1_3	NA	NA	0	1	1.91253900528	None	None	None	None	1
3.0.1	2019_Mar_14_1400	s	s	12	4	SIC	140	4_1	4	1	2	4	23_2_4	2	3	1	0	0.457958936691	201.0	385.0	199.0	395.0	1
3.0.1	2019_Mar_14_1400	s	s	12	4	SIC	141	ABS	0	0	4	4	24_4_4	NA	NA	0	1	0.710428953171	None	None	None	None	1
3.0.1	2019_Mar_14_1400	s	s	12	4	SIC	142	ABS	0	0	2	3	24_2_3	NA	NA	0	1	0.723222970963	None	None	None	None	1
3.0.1	2019_Mar_14_1400	s	s	12	4	SIC	143	ABS	0	0	2	2	24_2_2	NA	NA	0	1	2.1516289711	None	None	None	None	1
3.0.1	2019_Mar_14_1400	s	s	12	4	SIC	144	3_1	3	1	3	2	23_3_2	0	1	1	0	0.568922042847	453.0	-144.0	452.0	-140.0	1
3.0.1	2019_Mar_14_1400	s	s	12	4	SIC	145	1_2	1	2	2	1	23_2_1	1	-1	0	1	0.651070833206	-528.0	359.0	None	None	0
3.0.1	2019_Mar_14_1400	s	s	12	4	SIC	146	4_2	4	2	3	2	23_3_2	1	0	1	0	0.519446134567	265.0	202.0	254.0	204.0	1
3.0.1	2019_Mar_14_1400	s	s	12	4	SIC	147	ABS	0	0	2	4	24_2_4	NA	NA	0	1	0.769451141357	None	None	None	None	1
3.0.1	2019_Mar_14_1400	s	s	12	4	SIC	148	ABS	0	0	1	4	24_1_4	NA	NA	0	1	1.10974884033	None	None	None	None	1
3.0.1	2019_Mar_14_1400	s	s	12	4	SIC	149	ABS	0	0	1	1	24_1_1	NA	NA	0	1	1.02544903755	None	None	None	None	1
3.0.1	2019_Mar_14_1400	s	s	12	4	SIC	150	2_2	2	2	1	3	23_1_3	-1	1	1	0	1.60593986511	44.0	-358.0	31.0	-355.0	1
3.0.1	2019_Mar_14_1400	s	s	12	4	SIC	151	ABS	0	0	3	1	24_3_1	NA	NA	0	1	0.693217992783	None	None	None	None	1
3.0.1	2019_Mar_14_1400	s	s	12	4	SIC	152	3_1	3	1	1	2	23_1_2	2	1	1	0	0.462246894836	-68.0	50.0	-68.0	35.0	1
3.0.1	2019_Mar_14_1400	s	s	12	4	SIC	153	ABS	0	0	3	3	24_3_3	NA	NA	0	1	1.9492380619	None	None	None	None	1
3.0.1	2019_Mar_14_1400	s	s	12	4	SIC	154	2_2	2	2	4	4	23_4_4	2	2	1	0	0.411063194275	-34.0	104.0	-33.0	96.0	1
3.0.1	2019_Mar_14_1400	s	s	12	4	SIC	155	4_4	4	4	3	1	23_3_1	1	3	1	0	0.614817857742	329.0	90.0	334.0	91.0	1
3.0.1	2019_Mar_14_1400	s	s	12	4	SIC	156	ABS	0	0	1	1	24_1_1	NA	NA	0	1	0.587428092957	None	None	None	None	1
3.0.1	2019_Mar_14_1400	s	s	12	4	SIC	157	1_3	1	3	4	1	23_4_1	3	2	1	0	0.384766101837	-467.0	7.0	-468.0	5.0	1
3.0.1	2019_Mar_14_1400	s	s	12	4	SIC	158	ABS	0	0	4	2	24_4_2	NA	NA	0	1	3.50455093384	None	None	None	None	1
3.0.1	2019_Mar_14_1400	s	s	12	4	SIC	159	ABS	0	0	3	3	24_3_3	NA	NA	0	1	2.83377289772	None	None	None	None	1
3.0.1	2019_Mar_14_1400	s	s	12	4	SIC	160	ABS	0	0	1	3	24_1_3	NA	NA	0	1	3.69231700897	None	None	None	None	1
3.0.1	2019_Mar_14_1400	s	s	12	4	SIC	161	ABS	0	0	4	1	24_4_1	NA	NA	0	1	1.74486494064	None	None	None	None	1
3.0.1	2019_Mar_14_1400	s	s	12	4	SIC	162	2_3	2	3	4	4	23_4_4	2	-1	1	0	0.416092157364	317.0	-282.0	328.0	-278.0	1
3.0.1	2019_Mar_14_1400	s	s	12	4	SIC	163	ABS	0	0	3	4	24_3_4	NA	NA	0	1	0.678221940994	None	None	None	None	1
3.0.1	2019_Mar_14_1400	s	s	12	4	SIC	164	1_4	1	4	4	3	23_4_3	3	1	1	0	0.375726222992	438.0	-35.0	430.0	-41.0	1
3.0.1	2019_Mar_14_1400	s	s	12	4	SIC	165	4_4	4	4	4	2	23_4_2	0	2	1	0	0.562201023102	-22.0	-328.0	-18.0	-318.0	1
3.0.1	2019_Mar_14_1400	s	s	12	4	SIC	166	ABS	0	0	4	3	24_4_3	NA	NA	0	1	2.82188510895	None	None	None	None	1
3.0.1	2019_Mar_14_1400	s	s	12	4	SIC	167	ABS	0	0	3	2	24_3_2	NA	NA	0	1	1.08428406715	None	None	None	None	1
3.0.1	2019_Mar_14_1400	s	s	12	4	SIC	168	ABS	0	0	1	1	24_1_1	NA	NA	0	1	0.751971006393	None	None	None	None	1
3.0.1	2019_Mar_14_1400	s	s	12	4	SIC	169	ABS	0	0	3	3	24_3_3	NA	NA	0	1	1.76348400116	None	None	None	None	1
3.0.1	2019_Mar_14_1400	s	s	12	4	SIC	170	1_3	1	3	3	1	23_3_1	2	2	1	0	0.43447804451	-365.0	18.0	-364.0	15.0	1
3.0.1	2019_Mar_14_1400	s	s	12	4	SIC	171	ABS	0	0	2	2	24_2_2	NA	NA	0	1	1.17968702316	None	None	None	None	1
3.0.1	2019_Mar_14_1400	s	s	12	4	SIC	172	4_4	4	4	2	2	23_2_2	2	2	1	0	0.423149108887	-229.0	-131.0	-239.0	-130.0	1
3.0.1	2019_Mar_14_1400	s	s	12	4	SIC	173	ABS	0	0	3	4	24_3_4	NA	NA	0	1	0.614794015884	None	None	None	None	1
3.0.1	2019_Mar_14_1400	s	s	12	4	SIC	174	2_3	2	3	3	1	23_3_1	1	2	1	0	1.39886498451	-7.0	325.0	-10.0	313.0	1
3.0.1	2019_Mar_14_1400	s	s	12	4	SIC	175	2_3	2	3	3	4	23_3_4	1	-1	1	0	0.555000066757	-434.0	158.0	-439.0	160.0	1
3.0.1	2019_Mar_14_1400	s	s	12	4	SIC	176	ABS	0	0	1	4	24_1_4	NA	NA	0	1	0.740483045578	None	None	None	None	1
3.0.1	2019_Mar_14_1400	s	s	12	4	SIC	177	ABS	0	0	4	2	24_4_2	NA	NA	0	1	0.587366104126	None	None	None	None	1
3.0.1	2019_Mar_14_1400	s	s	12	4	SIC	178	2_1	2	1	2	2	23_2_2	0	1	0	1	3.66206502914	173.0	-72.0	None	None	0
3.0.1	2019_Mar_14_1400	s	s	12	4	SIC	179	3_4	3	4	2	3	23_2_3	1	1	1	0	1.50942397118	139.0	-349.0	146.0	-354.0	1
3.0.1	2019_Mar_14_1400	s	s	12	4	SIC	180	ABS	0	0	3	2	24_3_2	NA	NA	0	1	0.599072933197	None	None	None	None	1
3.0.1	2019_Mar_14_1400	s	s	12	4	SIC	181	2_3	2	3	2	4	23_2_4	0	-1	1	0	1.61052584648	453.0	-145.0	458.0	-150.0	1
3.0.1	2019_Mar_14_1400	s	s	12	4	SIC	182	ABS	0	0	3	3	24_3_3	NA	NA	0	1	1.55470204353	None	None	None	None	1
3.0.1	2019_Mar_14_1400	s	s	12	4	SIC	183	2_2	2	2	3	1	23_3_1	1	-1	1	0	0.987232923508	-261.0	389.0	-266.0	394.0	1
3.0.1	2019_Mar_14_1400	s	s	12	4	SIC	184	ABS	0	0	1	1	24_1_1	NA	NA	0	1	1.72819900513	None	None	None	None	1
3.0.1	2019_Mar_14_1400	s	s	12	4	SIC	185	1_4	1	4	1	2	23_1_2	0	2	1	0	0.546844005585	-98.0	-404.0	-95.0	-405.0	1
3.0.1	2019_Mar_14_1400	s	s	12	4	SIC	186	4_2	4	2	2	1	23_2_1	2	-1	1	0	0.410931110382	412.0	-95.0	423.0	-86.0	1
3.0.1	2019_Mar_14_1400	s	s	12	4	SIC	187	ABS	0	0	3	1	24_3_1	NA	NA	0	1	0.783622026443	None	None	None	None	1
3.0.1	2019_Mar_14_1400	s	s	12	4	SIC	188	4_1	4	1	1	4	23_1_4	3	3	1	0	0.446202993393	18.0	-17.0	15.0	-28.0	1
3.0.1	2019_Mar_14_1400	s	s	12	4	SIC	189	ABS	0	0	1	4	24_1_4	NA	NA	0	1	2.13267302513	None	None	None	None	1
3.0.1	2019_Mar_14_1400	s	s	12	4	SIC	190	1_3	1	3	4	4	23_4_4	3	-1	1	0	0.410989046097	266.0	80.0	274.0	77.0	1
3.0.1	2019_Mar_14_1400	s	s	12	4	SIC	191	ABS	0	0	3	2	24_3_2	NA	NA	0	1	1.35185313225	None	None	None	None	1
3.0.1	2019_Mar_14_1400	s	s	12	4	SIC	192	ABS	0	0	2	4	24_2_4	NA	NA	0	1	2.13445091248	None	None	None	None	1
3.0.1	2019_Mar_14_1400	s	s	12	4	SIC	193	2_2	2	2	3	2	23_3_2	1	0	1	0	0.496153116226	-85.0	216.0	-102.0	226.0	1
3.0.1	2019_Mar_14_1400	s	s	12	4	SIC	194	2_1	2	1	3	2	23_3_2	1	1	1	0	0.426072120667	-346.0	-7.0	-341.0	-7.0	1
3.0.1	2019_Mar_14_1400	s	s	12	4	SIC	195	ABS	0	0	3	2	24_3_2	NA	NA	0	1	0.966653823853	None	None	None	None	1
3.0.1	2019_Mar_14_1400	s	s	12	4	SIC	196	4_2	4	2	2	3	23_2_3	2	1	1	0	0.363945007324	-21.0	6.0	-28.0	6.0	1
3.0.1	2019_Mar_14_1400	s	s	12	4	SIC	197	2_4	2	4	1	4	23_1_4	-1	0	0	1	1.26070308685	-310.0	-291.0	None	None	0
3.0.1	2019_Mar_14_1400	s	s	12	4	SIC	198	ABS	0	0	3	3	24_3_3	NA	NA	0	1	0.619948863983	None	None	None	None	1
3.0.1	2019_Mar_14_1400	s	s	12	4	SIC	199	3_3	3	3	1	4	23_1_4	2	-1	1	0	0.410908937454	83.0	163.0	93.0	165.0	1
3.0.1	2019_Mar_14_1400	s	s	12	4	SIC	200	1_1	1	1	4	2	23_4_2	3	1	1	0	0.363924980164	91.0	219.0	89.0	216.0	1
3.0.1	2019_Mar_14_1400	s	s	12	4	SIC	201	2_3	2	3	1	4	23_1_4	-1	-1	1	0	0.751992940903	449.0	-172.0	461.0	-169.0	1
3.0.1	2019_Mar_14_1400	s	s	12	4	SIC	202	ABS	0	0	2	3	24_2_3	NA	NA	1	0	1.68113613129	None	None	162.0	-93.0	0
3.0.1	2019_Mar_14_1400	s	s	12	4	SIC	203	1_4	1	4	2	3	23_2_3	1	1	1	0	0.716850042343	40.0	185.0	43.0	177.0	1
3.0.1	2019_Mar_14_1400	s	s	12	4	SIC	204	ABS	0	0	1	4	24_1_4	NA	NA	0	1	1.37826108932	None	None	None	None	1
3.0.1	2019_Mar_14_1400	s	s	12	4	SIC	205	3_1	3	1	2	4	23_2_4	1	3	1	0	0.422775030136	-29.0	248.0	-22.0	247.0	1
3.0.1	2019_Mar_14_1400	s	s	12	4	SIC	206	ABS	0	0	4	3	24_4_3	NA	NA	0	1	1.87198495865	None	None	None	None	1
3.0.1	2019_Mar_14_1400	s	s	12	4	SIC	207	3_3	3	3	1	2	23_1_2	2	1	1	0	0.540427923203	-200.0	-281.0	-203.0	-282.0	1
3.0.1	2019_Mar_14_1400	s	s	12	4	SIC	208	2_4	2	4	1	3	23_1_3	-1	1	1	0	1.18715906143	-276.0	362.0	-270.0	365.0	1
3.0.1	2019_Mar_14_1400	s	s	12	4	SIC	209	ABS	0	0	1	2	24_1_2	NA	NA	0	1	1.10487103462	None	None	None	None	1
3.0.1	2019_Mar_14_1400	s	s	12	4	SIC	210	2_2	2	2	2	1	23_2_1	0	-1	0	1	2.43386697769	-520.0	302.0	None	None	0
3.0.1	2019_Mar_14_1400	s	s	12	4	SIC	211	3_4	3	4	4	4	23_4_4	-1	0	1	0	0.481583118439	-134.0	410.0	-129.0	419.0	1
3.0.1	2019_Mar_14_1400	s	s	12	4	SIC	212	2_4	2	4	1	2	23_1_2	-1	2	1	0	0.622722864151	448.0	313.0	457.0	318.0	1
3.0.1	2019_Mar_14_1400	s	s	12	4	SIC	213	1_3	1	3	3	4	23_3_4	2	-1	1	0	0.399151086807	-36.0	355.0	-37.0	354.0	1
3.0.1	2019_Mar_14_1400	s	s	12	4	SIC	214	ABS	0	0	2	1	24_2_1	NA	NA	0	1	1.23422193527	None	None	None	None	1
3.0.1	2019_Mar_14_1400	s	s	12	4	SIC	215	3_4	3	4	2	1	23_2_1	1	3	1	0	0.587373971939	430.0	250.0	435.0	249.0	1
3.0.1	2019_Mar_14_1400	s	s	12	4	SIC	216	ABS	0	0	1	3	24_1_3	NA	NA	0	1	2.10462403297	None	None	None	None	1
3.0.1	2019_Mar_14_1400	s	s	12	4	SIC	217	ABS	0	0	3	1	24_3_1	NA	NA	0	1	0.779700994492	None	None	None	None	1
3.0.1	2019_Mar_14_1400	s	s	12	4	SIC	218	2_1	2	1	4	3	23_4_3	2	2	1	0	0.399168968201	-91.0	-55.0	-88.0	-64.0	1
3.0.1	2019_Mar_14_1400	s	s	12	4	SIC	219	ABS	0	0	4	3	24_4_3	NA	NA	0	1	3.77954316139	None	None	None	None	1
3.0.1	2019_Mar_14_1400	s	s	12	4	SIC	220	3_1	3	1	3	4	23_3_4	0	3	1	0	0.563853979111	99.0	-27.0	103.0	-29.0	1
3.0.1	2019_Mar_14_1400	s	s	12	4	SIC	221	ABS	0	0	1	2	24_1_2	NA	NA	0	1	3.03103208542	None	None	None	None	1
3.0.1	2019_Mar_14_1400	s	s	12	4	SIC	222	4_2	4	2	3	3	23_3_3	1	1	1	0	0.411012887955	-74.0	-103.0	-71.0	-113.0	1
3.0.1	2019_Mar_14_1400	s	s	12	4	SIC	223	ABS	0	0	4	2	24_4_2	NA	NA	0	1	1.80230998993	None	None	None	None	1
3.0.1	2019_Mar_14_1400	s	s	12	4	SIC	224	ABS	0	0	4	3	24_4_3	NA	NA	0	1	1.32349395752	None	None	None	None	1
3.0.1	2019_Mar_14_1400	s	s	12	4	SIC	225	ABS	0	0	2	2	24_2_2	NA	NA	0	1	1.50159502029	None	None	None	None	1
3.0.1	2019_Mar_14_1400	s	s	12	4	SIC	226	ABS	0	0	1	1	24_1_1	NA	NA	0	1	1.08423900604	None	None	None	None	1
3.0.1	2019_Mar_14_1400	s	s	12	4	SIC	227	1_1	1	1	2	1	23_2_1	1	0	0	1	0.592185020447	-147.0	-146.0	None	None	0
3.0.1	2019_Mar_14_1400	s	s	12	4	SIC	228	1_2	1	2	4	3	23_4_3	3	1	1	0	0.392373085022	223.0	66.0	227.0	71.0	1
3.0.1	2019_Mar_14_1400	s	s	12	4	SIC	229	4_3	4	3	1	2	23_1_2	3	1	1	0	0.399140119553	120.0	105.0	121.0	95.0	1
3.0.1	2019_Mar_14_1400	s	s	12	4	SIC	230	4_4	4	4	3	4	23_3_4	1	0	1	0	0.345041036606	295.0	183.0	292.0	185.0	1
3.0.1	2019_Mar_14_1400	s	s	12	4	SIC	231	1_1	1	1	2	2	23_2_2	1	1	1	0	0.799074888229	28.0	82.0	37.0	88.0	1
3.0.1	2019_Mar_14_1400	s	s	12	4	SIC	232	2_1	2	1	3	3	23_3_3	1	2	1	0	1.06961107254	-525.0	-15.0	-522.0	-21.0	1
3.0.1	2019_Mar_14_1400	s	s	12	4	SIC	233	4_1	4	1	3	1	23_3_1	1	0	1	0	0.427336931229	-456.0	-52.0	-458.0	-51.0	1
3.0.1	2019_Mar_14_1400	s	s	12	4	SIC	234	1_3	1	3	3	2	23_3_2	2	1	1	0	0.519742965698	-86.0	-411.0	-87.0	-415.0	1
3.0.1	2019_Mar_14_1400	s	s	12	4	SIC	235	2_1	2	1	4	1	23_4_1	2	0	1	0	0.41096997261	-270.0	248.0	-276.0	250.0	1
3.0.1	2019_Mar_14_1400	s	s	12	4	SIC	236	ABS	0	0	3	2	24_3_2	NA	NA	0	1	1.23850893974	None	None	None	None	1
3.0.1	2019_Mar_14_1400	s	s	12	4	SIC	237	ABS	0	0	4	1	24_4_1	NA	NA	0	1	0.88139295578	None	None	None	None	1
3.0.1	2019_Mar_14_1400	s	s	12	4	SIC	238	4_3	4	3	3	1	23_3_1	1	2	1	0	0.475364923477	54.0	376.0	51.0	378.0	1
3.0.1	2019_Mar_14_1400	s	s	12	4	SIC	239	ABS	0	0	3	1	24_3_1	NA	NA	0	1	1.08594894409	None	None	None	None	1
3.0.1	2019_Mar_14_1400	s	s	12	4	SIC	240	4_1	4	1	4	2	23_4_2	0	1	0	1	4.33149909973	-324.0	287.0	None	None	0
3.0.1	2019_Mar_14_1400	s	s	12	4	SIC	241	4_2	4	2	3	1	23_3_1	1	-1	1	0	0.457934141159	349.0	117.0	360.0	117.0	1
3.0.1	2019_Mar_14_1400	s	s	12	4	SIC	242	4_4	4	4	1	4	23_1_4	3	0	1	0	0.399261951447	142.0	-338.0	133.0	-340.0	1
3.0.1	2019_Mar_14_1400	s	s	12	4	SIC	243	4_4	4	4	4	3	23_4_3	0	1	1	0	0.672587871552	426.0	-148.0	428.0	-152.0	1
3.0.1	2019_Mar_14_1400	s	s	12	4	SIC	244	ABS	0	0	4	4	24_4_4	NA	NA	0	1	1.2107129097	None	None	None	None	1
3.0.1	2019_Mar_14_1400	s	s	12	4	SIC	245	ABS	0	0	4	4	24_4_4	NA	NA	0	1	0.638608217239	None	None	None	None	1
3.0.1	2019_Mar_14_1400	s	s	12	4	SIC	246	3_3	3	3	1	1	23_1_1	2	2	1	0	0.881550073624	-515.0	16.0	-522.0	19.0	1
3.0.1	2019_Mar_14_1400	s	s	12	4	SIC	247	ABS	0	0	4	1	24_4_1	NA	NA	0	1	0.981940031052	None	None	None	None	1
3.0.1	2019_Mar_14_1400	s	s	12	4	SIC	248	ABS	0	0	3	4	24_3_4	NA	NA	0	1	0.992660999298	None	None	None	None	1
3.0.1	2019_Mar_14_1400	s	s	12	4	SIC	249	1_4	1	4	3	1	23_3_1	2	3	0	1	0.422706127167	75.0	180.0	None	None	0
3.0.1	2019_Mar_14_1400	s	s	12	4	SIC	250	3_3	3	3	1	3	23_1_3	2	0	1	0	0.790368080139	471.0	-338.0	477.0	-329.0	1
3.0.1	2019_Mar_14_1400	s	s	12	4	SIC	251	4_1	4	1	2	3	23_2_3	2	2	1	0	0.378537893295	179.0	-345.0	172.0	-345.0	1
3.0.1	2019_Mar_14_1400	s	s	12	4	SIC	252	3_4	3	4	1	3	23_1_3	2	1	1	0	0.485417127609	-300.0	-208.0	-296.0	-208.0	1
3.0.1	2019_Mar_14_1400	s	s	12	4	SIC	253	3_2	3	2	4	2	23_4_2	-1	0	1	0	0.446603059769	-243.0	406.0	-247.0	409.0	1
3.0.1	2019_Mar_14_1400	s	s	12	4	SIC	254	4_3	4	3	2	4	23_2_4	2	-1	1	0	0.392506837845	399.0	-263.0	406.0	-270.0	1
3.0.1	2019_Mar_14_1400	s	s	12	4	SIC	255	ABS	0	0	2	3	24_2_3	NA	NA	0	1	3.30417704582	None	None	None	None	1
3.0.1	2019_Mar_14_1400	s	s	12	4	SIC	256	2_4	2	4	1	1	23_1_1	-1	3	1	0	0.580402135849	-103.0	-358.0	-110.0	-355.0	1
3.0.1	2019_Mar_14_1400	s	s	12	4	SIC	257	ABS	0	0	2	1	24_2_1	NA	NA	0	1	0.728895187378	None	None	None	None	1
3.0.1	2019_Mar_14_1400	s	s	12	4	SIC	258	2_2	2	2	4	2	23_4_2	2	0	1	0	0.380692005157	-283.0	-199.0	-283.0	-202.0	1
3.0.1	2019_Mar_14_1400	s	s	12	4	SIC	259	4_3	4	3	3	2	23_3_2	1	1	1	0	0.378583192825	288.0	110.0	278.0	109.0	1
3.0.1	2019_Mar_14_1400	s	s	12	4	SIC	260	4_2	4	2	2	4	23_2_4	2	2	1	0	0.378554105759	169.0	-318.0	167.0	-311.0	1
3.0.1	2019_Mar_14_1400	s	s	12	4	SIC	261	ABS	0	0	3	4	24_3_4	NA	NA	0	1	0.910224914551	None	None	None	None	1
3.0.1	2019_Mar_14_1400	s	s	12	4	SIC	262	ABS	0	0	2	1	24_2_1	NA	NA	0	1	0.575608968735	None	None	None	None	1
3.0.1	2019_Mar_14_1400	s	s	12	4	SIC	263	ABS	0	0	4	1	24_4_1	NA	NA	0	1	0.787411928177	None	None	None	None	1
3.0.1	2019_Mar_14_1400	s	s	12	4	SIC	264	3_2	3	2	2	2	23_2_2	1	0	1	0	0.790186882019	-310.0	89.0	-309.0	88.0	1
3.0.1	2019_Mar_14_1400	s	s	12	4	SIC	265	3_3	3	3	2	2	23_2_2	1	1	1	0	1.01645112038	508.0	411.0	513.0	416.0	1
3.0.1	2019_Mar_14_1400	s	s	12	4	SIC	266	1_4	1	4	3	3	23_3_3	2	1	1	0	0.496181964874	-44.0	158.0	-50.0	168.0	1
3.0.1	2019_Mar_14_1400	s	s	12	4	SIC	267	3_4	3	4	3	3	23_3_3	0	1	1	0	1.26063609123	-527.0	213.0	-530.0	213.0	1
3.0.1	2019_Mar_14_1400	s	s	12	4	SIC	268	3_4	3	4	4	1	23_4_1	-1	3	1	0	0.383143186569	-220.0	265.0	-224.0	271.0	1
3.0.1	2019_Mar_14_1400	s	s	12	4	SIC	269	2_3	2	3	4	2	23_4_2	2	1	1	0	0.378616094589	-358.0	80.0	-356.0	77.0	1
3.0.1	2019_Mar_14_1400	s	s	12	4	SIC	270	ABS	0	0	2	4	24_2_4	NA	NA	0	1	0.780195951462	None	None	None	None	1
3.0.1	2019_Mar_14_1400	s	s	12	4	SIC	271	ABS	0	0	4	1	24_4_1	NA	NA	0	1	0.528538942337	None	None	None	None	1
3.0.1	2019_Mar_14_1400	s	s	12	4	SIC	272	ABS	0	0	4	3	24_4_3	NA	NA	0	1	0.677604198456	None	None	None	None	1
3.0.1	2019_Mar_14_1400	s	s	12	4	SIC	273	ABS	0	0	4	2	24_4_2	NA	NA	0	1	0.545410871506	None	None	None	None	1
3.0.1	2019_Mar_14_1400	s	s	12	4	SIC	274	3_2	3	2	3	4	23_3_4	0	2	1	0	0.443680047989	-212.0	-235.0	-218.0	-231.0	1
3.0.1	2019_Mar_14_1400	s	s	12	4	SIC	275	ABS	0	0	2	2	24_2_2	NA	NA	0	1	1.44271397591	None	None	None	None	1
3.0.1	2019_Mar_14_1400	s	s	12	4	SIC	276	1_2	1	2	4	4	23_4_4	3	2	1	0	0.379539966583	-378.0	393.0	-377.0	393.0	1
3.0.1	2019_Mar_14_1400	s	s	12	4	SIC	277	ABS	0	0	2	1	24_2_1	NA	NA	0	1	1.04609203339	None	None	None	None	1
3.0.1	2019_Mar_14_1400	s	s	12	4	SIC	278	ABS	0	0	3	4	24_3_4	NA	NA	0	1	0.840335845947	None	None	None	None	1
3.0.1	2019_Mar_14_1400	s	s	12	4	SIC	279	ABS	0	0	4	2	24_4_2	NA	NA	0	1	1.23924803734	None	None	None	None	1
3.0.1	2019_Mar_14_1400	s	s	12	4	SIC	280	ABS	0	0	1	1	24_1_1	NA	NA	0	1	1.95167398453	None	None	None	None	1
3.0.1	2019_Mar_14_1400	s	s	12	4	SIC	281	ABS	0	0	4	4	24_4_4	NA	NA	0	1	0.657956123352	None	None	None	None	1
3.0.1	2019_Mar_14_1400	s	s	12	4	SIC	282	3_1	3	1	4	1	23_4_1	-1	0	1	0	0.501775979996	491.0	106.0	498.0	103.0	1
3.0.1	2019_Mar_14_1400	s	s	12	4	SIC	283	3_4	3	4	4	3	23_4_3	-1	1	1	0	0.754807949066	17.0	236.0	15.0	236.0	1
3.0.1	2019_Mar_14_1400	s	s	12	4	SIC	284	ABS	0	0	3	4	24_3_4	NA	NA	0	1	2.57785797119	None	None	None	None	1
3.0.1	2019_Mar_14_1400	s	s	12	4	SIC	285	2_1	2	1	1	4	23_1_4	-1	3	1	0	0.62824010849	-224.0	348.0	-224.0	355.0	1
3.0.1	2019_Mar_14_1400	s	s	12	4	SIC	286	1_3	1	3	2	2	23_2_2	1	1	1	0	3.02495384216	76.0	-354.0	83.0	-350.0	1
3.0.1	2019_Mar_14_1400	s	s	12	4	SIC	287	3_3	3	3	4	1	23_4_1	-1	2	1	0	0.657894134521	422.0	-277.0	424.0	-293.0	1
3.0.1	2019_Mar_14_1400	s	s	12	4	SIC	288	2_3	2	3	3	2	23_3_2	1	1	1	0	0.955384969711	248.0	250.0	258.0	249.0	1
3.0.1	2019_Mar_14_1400	s	s	12	4	SIC	289	1_4	1	4	2	1	23_2_1	1	3	1	0	1.28120517731	408.0	-256.0	419.0	-248.0	1
3.0.1	2019_Mar_14_1400	s	s	12	4	SIC	290	2_2	2	2	4	3	23_4_3	2	1	1	0	0.416104078293	-539.0	-310.0	-543.0	-310.0	1
3.0.1	2019_Mar_14_1400	s	s	12	4	SIC	291	ABS	0	0	4	3	24_4_3	NA	NA	0	1	2.26915693283	None	None	None	None	1
3.0.1	2019_Mar_14_1400	s	s	12	4	SIC	292	ABS	0	0	2	2	24_2_2	NA	NA	0	1	4.11569094658	None	None	None	None	1
3.0.1	2019_Mar_14_1400	s	s	12	4	SIC	293	ABS	0	0	2	1	24_2_1	NA	NA	0	1	0.768102884293	None	None	None	None	1
3.0.1	2019_Mar_14_1400	s	s	12	4	SIC	294	ABS	0	0	1	4	24_1_4	NA	NA	0	1	0.987273931503	None	None	None	None	1
3.0.1	2019_Mar_14_1400	s	s	12	4	SIC	295	ABS	0	0	3	3	24_3_3	NA	NA	1	0	0.952028989792	None	None	27.0	51.0	0
3.0.1	2019_Mar_14_1400	s	s	12	4	SIC	296	ABS	0	0	2	1	24_2_1	NA	NA	0	1	1.4811398983	None	None	None	None	1
3.0.1	2019_Mar_14_1400	s	s	12	4	SIC	297	ABS	0	0	1	3	24_1_3	NA	NA	0	1	2.02224802971	None	None	None	None	1
3.0.1	2019_Mar_14_1400	s	s	12	4	SIC	298	ABS	0	0	1	3	24_1_3	NA	NA	0	1	0.674675941467	None	None	None	None	1
3.0.1	2019_Mar_14_1400	s	s	12	4	SIC	299	1_2	1	2	1	1	23_1_1	0	-1	0	1	1.45057106018	-270.0	164.0	None	None	0
3.0.1	2019_Mar_14_1400	s	s	12	4	SIC	300	3_1	3	1	2	2	23_2_2	1	1	1	0	0.516757011414	362.0	-139.0	375.0	-136.0	1
3.0.1	2019_Mar_14_1400	s	s	12	4	SIC	301	ABS	0	0	4	2	24_4_2	NA	NA	0	1	1.23419713974	None	None	None	None	1
3.0.1	2019_Mar_14_1400	s	s	12	4	SIC	302	ABS	0	0	1	4	24_1_4	NA	NA	0	1	0.592724084854	None	None	None	None	1
3.0.1	2019_Mar_14_1400	s	s	12	4	SIC	303	ABS	0	0	2	4	24_2_4	NA	NA	0	1	0.599200963974	None	None	None	None	1
3.0.1	2019_Mar_14_1400	s	s	12	4	SIC	304	2_4	2	4	3	2	23_3_2	1	2	1	0	0.587307929993	-165.0	173.0	-172.0	175.0	1
3.0.1	2019_Mar_14_1400	s	s	12	4	SIC	305	4_4	4	4	1	3	23_1_3	3	1	1	0	0.427597999573	344.0	93.0	349.0	91.0	1
3.0.1	2019_Mar_14_1400	s	s	12	4	SIC	306	ABS	0	0	2	3	24_2_3	NA	NA	0	1	2.7513449192	None	None	None	None	1
3.0.1	2019_Mar_14_1400	s	s	12	4	SIC	307	1_3	1	3	4	3	23_4_3	3	0	1	0	0.384076833725	304.0	-329.0	299.0	-335.0	1
3.0.1	2019_Mar_14_1400	s	s	12	4	SIC	308	ABS	0	0	4	2	24_4_2	NA	NA	0	1	0.681457996368	None	None	None	None	1
3.0.1	2019_Mar_14_1400	s	s	12	4	SIC	309	4_4	4	4	3	2	23_3_2	1	2	1	0	0.442265033722	-505.0	-55.0	-514.0	-59.0	1
3.0.1	2019_Mar_14_1400	s	s	12	4	SIC	310	ABS	0	0	3	2	24_3_2	NA	NA	0	1	0.829146146774	None	None	None	None	1
3.0.1	2019_Mar_14_1400	s	s	12	4	SIC	311	ABS	0	0	4	2	24_4_2	NA	NA	0	1	0.679597139359	None	None	None	None	1
3.0.1	2019_Mar_14_1400	s	s	12	4	SIC	312	4_3	4	3	3	3	23_3_3	1	0	1	0	0.378561973572	384.0	-100.0	385.0	-98.0	1
3.0.1	2019_Mar_14_1400	s	s	12	4	SIC	313	ABS	0	0	2	4	24_2_4	NA	NA	0	1	0.575597047806	None	None	None	None	1
3.0.1	2019_Mar_14_1400	s	s	12	4	SIC	314	ABS	0	0	4	1	24_4_1	NA	NA	0	1	0.614813089371	None	None	None	None	1
3.0.1	2019_Mar_14_1400	s	s	12	4	SIC	315	3_2	3	2	1	3	23_1_3	2	1	1	0	0.437326192856	268.0	-106.0	262.0	-109.0	1
3.0.1	2019_Mar_14_1400	s	s	12	4	SIC	316	ABS	0	0	3	3	24_3_3	NA	NA	0	1	0.857918977737	None	None	None	None	1
3.0.1	2019_Mar_14_1400	s	s	12	4	SIC	317	3_3	3	3	2	3	23_2_3	1	0	1	0	0.599231958389	-318.0	-145.0	-311.0	-139.0	1
3.0.1	2019_Mar_14_1400	s	s	12	4	SIC	318	4_4	4	4	4	1	23_4_1	0	3	1	0	0.599164009094	73.0	-56.0	82.0	-51.0	1
3.0.1	2019_Mar_14_1400	s	s	12	4	SIC	319	ABS	0	0	4	4	24_4_4	NA	NA	0	1	2.82651782036	None	None	None	None	1
3.0.1	2019_Mar_14_1400	s	s	12	4	SIC	320	2_3	2	3	4	1	23_4_1	2	2	1	0	0.378562927246	88.0	-101.0	75.0	-91.0	1
3.0.1	2019_Mar_14_1400	s	s	12	4	SIC	321	ABS	0	0	4	3	24_4_3	NA	NA	0	1	0.975443124771	None	None	None	None	1
3.0.1	2019_Mar_14_1400	s	s	12	4	SIC	322	ABS	0	0	1	1	24_1_1	NA	NA	0	1	1.51650905609	None	None	None	None	1
3.0.1	2019_Mar_14_1400	s	s	12	4	SIC	323	2_1	2	1	4	4	23_4_4	2	3	1	0	0.415963888168	-186.0	229.0	-178.0	231.0	1
3.0.1	2019_Mar_14_1400	s	s	12	4	SIC	324	1_4	1	4	1	1	23_1_1	0	3	1	0	0.486644029617	279.0	-93.0	274.0	-90.0	1
3.0.1	2019_Mar_14_1400	s	s	12	4	SIC	325	ABS	0	0	3	3	24_3_3	NA	NA	0	1	0.698822021484	None	None	None	None	1
3.0.1	2019_Mar_14_1400	s	s	12	4	SIC	326	ABS	0	0	4	1	24_4_1	NA	NA	0	1	0.619968891144	None	None	None	None	1
3.0.1	2019_Mar_14_1400	s	s	12	4	SIC	327	3_2	3	2	2	3	23_2_3	1	1	1	0	0.679360151291	115.0	-252.0	109.0	-253.0	1
3.0.1	2019_Mar_14_1400	s	s	12	4	SIC	328	ABS	0	0	4	3	24_4_3	NA	NA	0	1	0.622639894485	None	None	None	None	1
3.0.1	2019_Mar_14_1400	s	s	12	4	SIC	329	3_2	3	2	3	1	23_3_1	0	-1	0	1	0.603837013245	161.0	206.0	None	None	0
3.0.1	2019_Mar_14_1400	s	s	12	4	SIC	330	ABS	0	0	2	4	24_2_4	NA	NA	0	1	1.16363096237	None	None	None	None	1
3.0.1	2019_Mar_14_1400	s	s	12	4	SIC	331	4_3	4	3	2	1	23_2_1	2	2	1	0	0.422761917114	-227.0	103.0	-225.0	101.0	1
3.0.1	2019_Mar_14_1400	s	s	12	4	SIC	332	ABS	0	0	1	2	24_1_2	NA	NA	0	1	2.9983420372	None	None	None	None	1
3.0.1	2019_Mar_14_1400	s	s	12	4	SIC	333	ABS	0	0	4	4	24_4_4	NA	NA	0	1	0.662164926529	None	None	None	None	1
3.0.1	2019_Mar_14_1400	s	s	12	4	SIC	334	1_4	1	4	4	1	23_4_1	3	3	1	0	0.591727972031	-320.0	148.0	-314.0	151.0	1
3.0.1	2019_Mar_14_1400	s	s	12	4	SIC	335	1_4	1	4	3	4	23_3_4	2	0	1	0	0.912324905396	328.0	311.0	331.0	297.0	1
3.0.1	2019_Mar_14_1400	s	s	12	4	SIC	336	2_3	2	3	4	3	23_4_3	2	0	1	0	0.437381982803	-204.0	191.0	-219.0	197.0	1
3.0.1	2019_Mar_14_1400	s	s	12	4	SIC	337	ABS	0	0	1	2	24_1_2	NA	NA	0	1	3.26889395714	None	None	None	None	1
3.0.1	2019_Mar_14_1400	s	s	12	4	SIC	338	2_1	2	1	2	4	23_2_4	0	3	1	0	0.555057048798	61.0	208.0	71.0	211.0	1
3.0.1	2019_Mar_14_1400	s	s	12	4	SIC	339	4_4	4	4	1	1	23_1_1	3	3	1	0	2.1751241684	-339.0	270.0	-338.0	255.0	1
3.0.1	2019_Mar_14_1400	s	s	12	4	SIC	340	ABS	0	0	3	3	24_3_3	NA	NA	0	1	1.63416695595	None	None	None	None	1
3.0.1	2019_Mar_14_1400	s	s	12	4	SIC	341	ABS	0	0	4	4	24_4_4	NA	NA	0	1	1.47003602982	None	None	None	None	1
3.0.1	2019_Mar_14_1400	s	s	12	4	SIC	342	2_2	2	2	3	4	23_3_4	1	2	1	0	0.437394857407	-222.0	120.0	-229.0	118.0	1
3.0.1	2019_Mar_14_1400	s	s	12	4	SIC	343	ABS	0	0	3	3	24_3_3	NA	NA	0	1	1.54965209961	None	None	None	None	1
3.0.1	2019_Mar_14_1400	s	s	12	4	SIC	344	ABS	0	0	2	3	24_2_3	NA	NA	0	1	2.95134210587	None	None	None	None	1
3.0.1	2019_Mar_14_1400	s	s	12	4	SIC	345	4_3	4	3	3	4	23_3_4	1	-1	1	0	0.399134159088	147.0	158.0	144.0	168.0	1
3.0.1	2019_Mar_14_1400	s	s	12	4	SIC	346	3_2	3	2	4	4	23_4_4	-1	2	1	0	0.410953044891	-7.0	-197.0	-6.0	-202.0	1
3.0.1	2019_Mar_14_1400	s	s	12	4	SIC	347	ABS	0	0	2	2	24_2_2	NA	NA	0	1	1.9398868084	None	None	None	None	1
3.0.1	2019_Mar_14_1400	s	s	12	4	SIC	348	1_4	1	4	3	2	23_3_2	2	2	1	0	0.410864114761	-35.0	-50.0	-36.0	-46.0	1
3.0.1	2019_Mar_14_1400	s	s	12	4	SIC	349	1_1	1	1	4	4	23_4_4	3	3	1	0	0.38489985466	355.0	43.0	354.0	37.0	1
3.0.1	2019_Mar_14_1400	s	s	12	4	SIC	350	3_3	3	3	2	4	23_2_4	1	-1	1	0	0.457938909531	-367.0	-106.0	-358.0	-106.0	1
3.0.1	2019_Mar_14_1400	s	s	12	4	SIC	351	3_4	3	4	2	2	23_2_2	1	2	1	0	0.725611925125	471.0	-8.0	332.0	160.0	0
3.0.1	2019_Mar_14_1400	s	s	12	4	SIC	352	ABS	0	0	3	2	24_3_2	NA	NA	0	1	2.05755901337	None	None	None	None	1
3.0.1	2019_Mar_14_1400	s	s	12	4	SIC	353	ABS	0	0	4	2	24_4_2	NA	NA	0	1	0.664302110672	None	None	None	None	1
3.0.1	2019_Mar_14_1400	s	s	12	4	SIC	354	ABS	0	0	3	2	24_3_2	NA	NA	0	1	2.24573087692	None	None	None	None	1
3.0.1	2019_Mar_14_1400	s	s	12	4	SIC	355	ABS	0	0	2	3	24_2_3	NA	NA	0	1	1.39246892929	None	None	None	None	1
3.0.1	2019_Mar_14_1400	s	s	12	4	SIC	356	ABS	0	0	1	3	24_1_3	NA	NA	0	1	0.646175861359	None	None	None	None	1
3.0.1	2019_Mar_14_1400	s	s	12	4	SIC	357	ABS	0	0	1	2	24_1_2	NA	NA	0	1	0.591374874115	None	None	None	None	1
3.0.1	2019_Mar_14_1400	s	s	12	4	SIC	358	ABS	0	0	4	3	24_4_3	NA	NA	0	1	2.45740890503	None	None	None	None	1
3.0.1	2019_Mar_14_1400	s	s	12	4	SIC	359	3_3	3	3	3	4	23_3_4	0	-1	1	0	0.67826294899	-363.0	291.0	-358.0	285.0	1
3.0.1	2019_Mar_14_1400	s	s	12	4	SIC	360	ABS	0	0	2	4	24_2_4	NA	NA	0	1	0.795783042908	None	None	None	None	1
3.0.1	2019_Mar_14_1400	s	s	12	4	SIC	361	2_4	2	4	4	2	23_4_2	2	2	1	0	0.437374830246	-186.0	33.0	-179.0	29.0	1
3.0.1	2019_Mar_14_1400	s	s	12	4	SIC	362	ABS	0	0	2	1	24_2_1	NA	NA	0	1	1.1283390522	None	None	None	None	1
3.0.1	2019_Mar_14_1400	s	s	12	4	SIC	363	2_2	2	2	4	1	23_4_1	2	-1	1	0	0.462843179703	376.0	408.0	371.0	415.0	1
3.0.1	2019_Mar_14_1400	s	s	12	4	SIC	364	4_1	4	1	4	3	23_4_3	0	2	0	1	1.04607701302	-280.0	-345.0	None	None	0
3.0.1	2019_Mar_14_1400	s	s	12	4	SIC	365	ABS	0	0	4	1	24_4_1	NA	NA	0	1	1.01080799103	None	None	None	None	1
3.0.1	2019_Mar_14_1400	s	s	12	4	SIC	366	3_1	3	1	1	4	23_1_4	2	3	1	0	0.546396017075	-531.0	-39.0	-540.0	-42.0	1
3.0.1	2019_Mar_14_1400	s	s	12	4	SIC	367	ABS	0	0	1	4	24_1_4	NA	NA	0	1	0.85088801384	None	None	None	None	1
3.0.1	2019_Mar_14_1400	s	s	12	4	SIC	368	ABS	0	0	4	1	24_4_1	NA	NA	0	1	0.568866968155	None	None	None	None	1
3.0.1	2019_Mar_14_1400	s	s	12	4	SIC	369	ABS	0	0	1	4	24_1_4	NA	NA	0	1	0.740311861038	None	None	None	None	1
3.0.1	2019_Mar_14_1400	s	s	12	4	SIC	370	1_2	1	2	3	4	23_3_4	2	2	1	0	0.414975166321	-159.0	-74.0	-151.0	-69.0	1
3.0.1	2019_Mar_14_1400	s	s	12	4	SIC	371	ABS	0	0	2	2	24_2_2	NA	NA	0	1	1.22247290611	None	None	None	None	1
3.0.1	2019_Mar_14_1400	s	s	12	4	SIC	372	ABS	0	0	1	1	24_1_1	NA	NA	0	1	1.01084280014	None	None	None	None	1
3.0.1	2019_Mar_14_1400	s	s	12	4	SIC	373	ABS	0	0	3	1	24_3_1	NA	NA	0	1	0.587292909622	None	None	None	None	1
3.0.1	2019_Mar_14_1400	s	s	12	4	SIC	374	ABS	0	0	1	1	24_1_1	NA	NA	0	1	2.14559984207	None	None	None	None	1
3.0.1	2019_Mar_14_1400	s	s	12	4	SIC	375	ABS	0	0	4	3	24_4_3	NA	NA	0	1	1.39191102982	None	None	None	None	1
3.0.1	2019_Mar_14_1400	s	s	12	4	SIC	376	1_2	1	2	1	4	23_1_4	0	2	1	0	0.74510383606	-8.0	1.0	-5.0	-2.0	1
3.0.1	2019_Mar_14_1400	s	s	12	4	SIC	377	ABS	0	0	2	3	24_2_3	NA	NA	0	1	1.04902005196	None	None	None	None	1
3.0.1	2019_Mar_14_1400	s	s	12	4	SIC	378	ABS	0	0	2	1	24_2_1	NA	NA	0	1	0.686457157135	None	None	None	None	1
3.0.1	2019_Mar_14_1400	s	s	12	4	SIC	379	3_2	3	2	1	4	23_1_4	2	2	1	0	0.704989910126	203.0	377.0	210.0	378.0	1
3.0.1	2019_Mar_14_1400	s	s	12	4	SIC	380	2_4	2	4	2	1	23_2_1	0	3	1	0	1.03427100182	535.0	284.0	538.0	280.0	1
3.0.1	2019_Mar_14_1400	s	s	12	4	SIC	381	4_2	4	2	1	3	23_1_3	3	1	1	0	0.452352046967	-412.0	286.0	-420.0	281.0	1
3.0.1	2019_Mar_14_1400	s	s	12	4	SIC	382	ABS	0	0	4	4	24_4_4	NA	NA	0	1	0.89644408226	None	None	None	None	1
3.0.1	2019_Mar_14_1400	s	s	12	4	SIC	383	ABS	0	0	4	3	24_4_3	NA	NA	0	1	1.1753320694	None	None	None	None	1
3.0.1	2019_Mar_14_1400	s	s	12	4	SIC	384	4_3	4	3	2	2	23_2_2	2	1	1	0	0.415792942047	-90.0	-238.0	-88.0	-228.0	1
3.0.1	2019_Mar_14_1400	s	s	12	4	SIC	385	1_2	1	2	1	3	23_1_3	0	1	0	1	1.93982887268	0.0	259.0	None	None	0
3.0.1	2019_Mar_14_1400	s	s	12	4	SIC	386	1_2	1	2	3	1	23_3_1	2	-1	1	0	0.47486615181	-282.0	-91.0	-290.0	-88.0	1
3.0.1	2019_Mar_14_1400	s	s	12	4	SIC	387	1_3	1	3	1	1	23_1_1	0	2	1	0	0.951986789703	131.0	278.0	132.0	265.0	1
3.0.1	2019_Mar_14_1400	s	s	12	4	SIC	388	3_1	3	1	4	4	23_4_4	-1	3	1	0	0.415544033051	-94.0	-176.0	-90.0	-177.0	1
3.0.1	2019_Mar_14_1400	s	s	12	4	SIC	389	ABS	0	0	1	4	24_1_4	NA	NA	0	1	0.704976081848	None	None	None	None	1
3.0.1	2019_Mar_14_1400	s	s	12	4	SIC	390	ABS	0	0	4	3	24_4_3	NA	NA	0	1	1.48595809937	None	None	None	None	1
3.0.1	2019_Mar_14_1400	s	s	12	4	SIC	391	4_2	4	2	1	1	23_1_1	3	-1	1	0	0.439377069473	453.0	-225.0	439.0	-219.0	1
3.0.1	2019_Mar_14_1400	s	s	12	4	SIC	392	4_3	4	3	1	4	23_1_4	3	-1	1	0	0.399274110794	369.0	-394.0	366.0	-398.0	1
3.0.1	2019_Mar_14_1400	s	s	12	4	SIC	393	ABS	0	0	1	3	24_1_3	NA	NA	0	1	1.79091501236	None	None	None	None	1
3.0.1	2019_Mar_14_1400	s	s	12	4	SIC	394	ABS	0	0	1	4	24_1_4	NA	NA	0	1	0.827351093292	None	None	None	None	1
3.0.1	2019_Mar_14_1400	s	s	12	4	SIC	395	2_3	2	3	3	3	23_3_3	1	0	1	0	0.912395000458	-486.0	-106.0	-487.0	-113.0	1
3.0.1	2019_Mar_14_1400	s	s	12	4	SIC	396	1_1	1	1	1	4	23_1_4	0	3	1	0	0.451099872589	60.0	-73.0	66.0	-82.0	1
3.0.1	2019_Mar_14_1400	s	s	12	4	SIC	397	2_1	2	1	1	2	23_1_2	-1	1	1	0	1.46955990791	514.0	-393.0	505.0	-396.0	1
3.0.1	2019_Mar_14_1400	s	s	12	4	SIC	398	ABS	0	0	1	1	24_1_1	NA	NA	0	1	0.86802482605	None	None	None	None	1
3.0.1	2019_Mar_14_1400	s	s	12	4	SIC	399	ABS	0	0	1	3	24_1_3	NA	NA	0	1	2.26920104027	None	None	None	None	1
3.0.1	2019_Mar_14_1400	s	s	12	4	SIC	400	2_2	2	2	1	1	23_1_1	-1	-1	0	1	0.6725730896	249.0	300.0	None	None	0
3.0.1	2019_Mar_14_1400	s	s	12	4	SIC	401	ABS	0	0	3	1	24_3_1	NA	NA	0	1	1.11143898964	None	None	None	None	1
3.0.1	2019_Mar_14_1400	s	s	12	4	SIC	402	ABS	0	0	4	3	24_4_3	NA	NA	0	1	0.874137163162	None	None	None	None	1
3.0.1	2019_Mar_14_1400	s	s	12	4	SIC	403	1_4	1	4	4	2	23_4_2	3	2	1	0	0.545659065247	476.0	30.0	468.0	36.0	1
3.0.1	2019_Mar_14_1400	s	s	12	4	SIC	404	1_1	1	1	3	3	23_3_3	2	2	1	0	0.554905891418	-276.0	297.0	-271.0	287.0	1
3.0.1	2019_Mar_14_1400	s	s	12	4	SIC	405	ABS	0	0	2	1	24_2_1	NA	NA	0	1	0.71004986763	None	None	None	None	1
3.0.1	2019_Mar_14_1400	s	s	12	4	SIC	406	2_2	2	2	2	4	23_2_4	0	2	1	0	0.49960899353	-410.0	63.0	-412.0	57.0	1
3.0.1	2019_Mar_14_1400	s	s	12	4	SIC	407	ABS	0	0	2	1	24_2_1	NA	NA	0	1	0.688606977463	None	None	None	None	1
3.0.1	2019_Mar_14_1400	s	s	12	4	SIC	408	3_3	3	3	3	2	23_3_2	0	1	1	0	0.855199098587	373.0	406.0	367.0	402.0	1
3.0.1	2019_Mar_14_1400	s	s	12	4	SIC	409	4_3	4	3	1	1	23_1_1	3	2	1	0	0.415337085724	-295.0	310.0	-288.0	303.0	1
3.0.1	2019_Mar_14_1400	s	s	12	4	SIC	410	ABS	0	0	1	2	24_1_2	NA	NA	0	1	3.26632905006	None	None	None	None	1
3.0.1	2019_Mar_14_1400	s	s	12	4	SIC	411	ABS	0	0	4	3	24_4_3	NA	NA	0	1	1.9074819088	None	None	None	None	1
3.0.1	2019_Mar_14_1400	s	s	12	4	SIC	412	1_2	1	2	2	3	23_2_3	1	1	1	0	1.84211492538	93.0	-150.0	87.0	-153.0	1
3.0.1	2019_Mar_14_1400	s	s	12	4	SIC	413	2_3	2	3	2	1	23_2_1	0	2	0	1	1.21498799324	140.0	206.0	None	None	0
3.0.1	2019_Mar_14_1400	s	s	12	4	SIC	414	ABS	0	0	2	1	24_2_1	NA	NA	0	1	0.634386062622	None	None	None	None	1
3.0.1	2019_Mar_14_1400	s	s	12	4	SIC	415	4_2	4	2	4	4	23_4_4	0	2	1	0	0.592200994492	400.0	-104.0	395.0	-95.0	1
3.0.1	2019_Mar_14_1400	s	s	12	4	SIC	416	2_2	2	2	3	3	23_3_3	1	1	1	0	0.857891798019	-76.0	148.0	-74.0	146.0	1
3.0.1	2019_Mar_14_1400	s	s	12	4	SIC	417	ABS	0	0	4	1	24_4_1	NA	NA	0	1	0.74027299881	None	None	None	None	1
3.0.1	2019_Mar_14_1400	s	s	12	4	SIC	418	1_4	1	4	2	4	23_2_4	1	0	0	1	0.534701108932	83.0	25.0	None	None	0
3.0.1	2019_Mar_14_1400	s	s	12	4	SIC	419	ABS	0	0	1	3	24_1_3	NA	NA	0	1	1.65767908096	None	None	None	None	1
3.0.1	2019_Mar_14_1400	s	s	12	4	SIC	420	4_4	4	4	2	1	23_2_1	2	3	1	0	0.540349960327	432.0	47.0	437.0	38.0	1
3.0.1	2019_Mar_14_1400	s	s	12	4	SIC	421	1_4	1	4	4	4	23_4_4	3	0	1	0	0.380254030228	-230.0	-111.0	-243.0	-101.0	1
3.0.1	2019_Mar_14_1400	s	s	12	4	SIC	422	4_3	4	3	1	3	23_1_3	3	0	1	0	0.352187156677	-273.0	-65.0	-273.0	-55.0	1
3.0.1	2019_Mar_14_1400	s	s	12	4	SIC	423	4_1	4	1	3	4	23_3_4	1	3	1	0	0.352142095566	-342.0	-177.0	-344.0	-184.0	1
3.0.1	2019_Mar_14_1400	s	s	12	4	SIC	424	ABS	0	0	3	1	24_3_1	NA	NA	1	0	0.540345907211	None	None	112.0	0.0	0
3.0.1	2019_Mar_14_1400	s	s	12	4	SIC	425	2_4	2	4	4	4	23_4_4	2	0	1	0	0.599164962769	-455.0	153.0	-469.0	158.0	1
3.0.1	2019_Mar_14_1400	s	s	12	4	SIC	426	2_4	2	4	3	3	23_3_3	1	1	1	0	0.510980844498	-108.0	-8.0	-110.0	-3.0	1
3.0.1	2019_Mar_14_1400	s	s	12	4	SIC	427	ABS	0	0	4	4	24_4_4	NA	NA	0	1	1.15780496597	None	None	None	None	1
3.0.1	2019_Mar_14_1400	s	s	12	4	SIC	428	1_3	1	3	1	2	23_1_2	0	1	1	0	1.14012503624	195.0	-123.0	187.0	-128.0	1
3.0.1	2019_Mar_14_1400	s	s	12	4	SIC	429	ABS	0	0	2	4	24_2_4	NA	NA	0	1	0.881464958191	None	None	None	None	1
3.0.1	2019_Mar_14_1400	s	s	12	4	SIC	430	3_3	3	3	3	1	23_3_1	0	2	0	1	1.05793094635	-49.0	-107.0	None	None	0
3.0.1	2019_Mar_14_1400	s	s	12	4	SIC	431	ABS	0	0	1	2	24_1_2	NA	NA	0	1	3.53939008713	None	None	None	None	1
3.0.1	2019_Mar_14_1400	s	s	12	4	SIC	432	ABS	0	0	2	2	24_2_2	NA	NA	0	1	1.67779302597	None	None	None	None	1
3.0.1	2019_Mar_14_1400	s	s	12	4	SIC	433	ABS	0	0	3	4	24_3_4	NA	NA	0	1	0.58735203743	None	None	None	None	1
3.0.1	2019_Mar_14_1400	s	s	12	4	SIC	434	3_1	3	1	4	3	23_4_3	-1	2	1	0	0.834400892258	339.0	378.0	338.0	384.0	1
3.0.1	2019_Mar_14_1400	s	s	12	4	SIC	435	ABS	0	0	2	4	24_2_4	NA	NA	0	1	1.34010195732	None	None	None	None	1
3.0.1	2019_Mar_14_1400	s	s	12	4	SIC	436	ABS	0	0	4	1	24_4_1	NA	NA	0	1	0.563894033432	None	None	None	None	1
3.0.1	2019_Mar_14_1400	s	s	12	4	SIC	437	2_4	2	4	3	4	23_3_4	1	0	1	0	0.496160030365	-225.0	-175.0	-235.0	-171.0	1
3.0.1	2019_Mar_14_1400	s	s	12	4	SIC	438	3_4	3	4	1	4	23_1_4	2	0	1	0	0.463337182999	-227.0	-362.0	-235.0	-364.0	1
3.0.1	2019_Mar_14_1400	s	s	12	4	SIC	439	ABS	0	0	2	2	24_2_2	NA	NA	0	1	0.763798952103	None	None	None	None	1
3.0.1	2019_Mar_14_1400	s	s	12	4	SIC	440	ABS	0	0	1	4	24_1_4	NA	NA	0	1	0.717091083527	None	None	None	None	1
3.0.1	2019_Mar_14_1400	s	s	12	4	SIC	441	2_3	2	3	2	2	23_2_2	0	1	1	0	1.35694694519	-116.0	-179.0	-107.0	-183.0	1
3.0.1	2019_Mar_14_1400	s	s	12	4	SIC	442	ABS	0	0	3	2	24_3_2	NA	NA	0	1	1.1636660099	None	None	None	None	1
3.0.1	2019_Mar_14_1400	s	s	12	4	SIC	443	3_1	3	1	3	3	23_3_3	0	2	0	1	2.34508299828	-344.0	37.0	None	None	0
3.0.1	2019_Mar_14_1400	s	s	12	4	SIC	444	1_1	1	1	4	3	23_4_3	3	2	1	0	0.401854991913	67.0	319.0	81.0	328.0	1
3.0.1	2019_Mar_14_1400	s	s	12	4	SIC	445	ABS	0	0	3	2	24_3_2	NA	NA	0	1	1.35680294037	None	None	None	None	1
3.0.1	2019_Mar_14_1400	s	s	12	4	SIC	446	3_1	3	1	1	1	23_1_1	2	0	1	0	0.834713935852	536.0	116.0	545.0	118.0	1
3.0.1	2019_Mar_14_1400	s	s	12	4	SIC	447	3_4	3	4	1	1	23_1_1	2	3	1	0	0.563856840134	292.0	203.0	289.0	198.0	1
3.0.1	2019_Mar_14_1400	s	s	12	4	SIC	448	3_1	3	1	4	2	23_4_2	-1	1	1	0	0.399075031281	-166.0	-240.0	-171.0	-236.0	1
3.0.1	2019_Mar_14_1400	s	s	12	4	SIC	449	ABS	0	0	3	4	24_3_4	NA	NA	0	1	0.646198987961	None	None	None	None	1
3.0.1	2019_Mar_14_1400	s	s	12	4	SIC	450	ABS	0	0	1	4	24_1_4	NA	NA	0	1	0.614824056625	None	None	None	None	1
3.0.1	2019_Mar_14_1400	s	s	12	4	SIC	451	4_3	4	3	4	2	23_4_2	0	1	0	1	0.54657793045	-483.0	-138.0	None	None	0
3.0.1	2019_Mar_14_1400	s	s	12	4	SIC	452	1_3	1	3	3	3	23_3_3	2	0	1	0	0.498131990433	-60.0	-160.0	-53.0	-160.0	1
3.0.1	2019_Mar_14_1400	s	s	12	4	SIC	453	3_4	3	4	4	2	23_4_2	-1	2	1	0	0.44624209404	-326.0	70.0	-329.0	64.0	1
3.0.1	2019_Mar_14_1400	s	s	12	4	SIC	454	ABS	0	0	4	2	24_4_2	NA	NA	0	1	1.37831807137	None	None	None	None	1
3.0.1	2019_Mar_14_1400	s	s	12	4	SIC	455	ABS	0	0	1	1	24_1_1	NA	NA	0	1	1.23824691772	None	None	None	None	1
3.0.1	2019_Mar_14_1400	s	s	12	4	SIC	456	ABS	0	0	3	4	24_3_4	NA	NA	0	1	0.634392023087	None	None	None	None	1
3.0.1	2019_Mar_14_1400	s	s	12	4	SIC	457	2_1	2	1	2	3	23_2_3	0	2	0	1	0.769614934921	534.0	-398.0	None	None	0
3.0.1	2019_Mar_14_1400	s	s	12	4	SIC	458	ABS	0	0	2	4	24_2_4	NA	NA	0	1	0.646414995193	None	None	None	None	1
3.0.1	2019_Mar_14_1400	s	s	12	4	SIC	459	ABS	0	0	3	4	24_3_4	NA	NA	0	1	0.563848018646	None	None	None	None	1
3.0.1	2019_Mar_14_1400	s	s	12	4	SIC	460	ABS	0	0	4	2	24_4_2	NA	NA	0	1	0.604197025299	None	None	None	None	1
3.0.1	2019_Mar_14_1400	s	s	12	4	SIC	461	3_1	3	1	2	1	23_2_1	1	0	1	0	0.672559022903	431.0	133.0	431.0	134.0	1
3.0.1	2019_Mar_14_1400	s	s	12	4	SIC	462	ABS	0	0	1	4	24_1_4	NA	NA	0	1	0.540360212326	None	None	None	None	1
3.0.1	2019_Mar_14_1400	s	s	12	4	SIC	463	ABS	0	0	2	3	24_2_3	NA	NA	0	1	0.827378988266	None	None	None	None	1
3.0.1	2019_Mar_14_1400	s	s	12	4	SIC	464	ABS	0	0	2	1	24_2_1	NA	NA	0	1	0.74434876442	None	None	None	None	1
3.0.1	2019_Mar_14_1400	s	s	12	4	SIC	465	ABS	0	0	1	4	24_1_4	NA	NA	0	1	0.555217027664	None	None	None	None	1
3.0.1	2019_Mar_14_1400	s	s	12	4	SIC	466	2_1	2	1	1	3	23_1_3	-1	2	1	0	1.10482096672	-172.0	-294.0	-188.0	-285.0	1
3.0.1	2019_Mar_14_1400	s	s	12	4	SIC	467	4_4	4	4	1	2	23_1_2	3	2	1	0	0.422791004181	-52.0	321.0	-52.0	330.0	1
3.0.1	2019_Mar_14_1400	s	s	12	4	SIC	468	ABS	0	0	3	4	24_3_4	NA	NA	0	1	0.516830921173	None	None	None	None	1
3.0.1	2019_Mar_14_1400	s	s	12	4	SIC	469	3_3	3	3	2	1	23_2_1	1	2	1	0	0.599226951599	-323.0	-276.0	-328.0	-269.0	1
3.0.1	2019_Mar_14_1400	s	s	12	4	SIC	470	ABS	0	0	4	3	24_4_3	NA	NA	0	1	0.568667888641	None	None	None	None	1
3.0.1	2019_Mar_14_1400	s	s	12	4	SIC	471	ABS	0	0	2	2	24_2_2	NA	NA	1	0	0.475033998489	None	None	-51.0	-79.0	0
3.0.1	2019_Mar_14_1400	s	s	12	4	SIC	472	1_1	1	1	1	2	23_1_2	0	1	0	1	0.43732213974	122.0	-283.0	None	None	0
3.0.1	2019_Mar_14_1400	s	s	12	4	SIC	473	1_2	1	2	4	1	23_4_1	3	-1	1	0	0.444782018661	34.0	-410.0	44.0	-408.0	1
3.0.1	2019_Mar_14_1400	s	s	12	4	SIC	474	ABS	0	0	4	2	24_4_2	NA	NA	0	1	1.44295787811	None	None	None	None	1
3.0.1	2019_Mar_14_1400	s	s	12	4	SIC	475	4_2	4	2	4	1	23_4_1	0	-1	0	1	0.509824991226	-25.0	-140.0	None	None	0
3.0.1	2019_Mar_14_1400	s	s	12	4	SIC	476	ABS	0	0	4	4	24_4_4	NA	NA	0	1	0.628639936447	None	None	None	None	1
3.0.1	2019_Mar_14_1400	s	s	12	4	SIC	477	1_2	1	2	2	4	23_2_4	1	2	1	0	0.528542041779	-16.0	398.0	-10.0	408.0	1
3.0.1	2019_Mar_14_1400	s	s	12	4	SIC	478	1_3	1	3	4	2	23_4_2	3	1	1	0	0.437617063522	-538.0	75.0	-543.0	65.0	1
3.0.1	2019_Mar_14_1400	s	s	12	4	SIC	479	4_1	4	1	3	3	23_3_3	1	2	1	0	0.42276597023	-119.0	-48.0	-108.0	-48.0	1
3.0.1	2019_Mar_14_1400	s	s	12	4	SIC	480	ABS	0	0	1	3	24_1_3	NA	NA	1	0	1.49631476402	None	None	2.0	47.0	0
