Version	Date	Stimuli	Method	Subject	Session	Condition	Trial	Target	TColor	TShape	DColor	DShape	Distractors	Channel1	Channel2	LMouseButton	RMouseButton	RT	TargetX	TargetY	ResponseX	ResponseY	Correct
3.0.1	2019_Mar_07_1015	s	s	13	2	Capacity	1	ABS	0	0	1	2	24_1_2	NA	NA	0	1	3.65997600555	None	None	None	None	1
3.0.1	2019_Mar_07_1015	s	s	13	2	Capacity	2	ABS	0	0	1	4	24_1_4	NA	NA	0	1	3.47413492203	None	None	None	None	1
3.0.1	2019_Mar_07_1015	s	s	13	2	Capacity	3	1_3	1	3	1	1	23_1_1	0	2	1	0	1.07013297081	-181.0	129.0	-178.0	131.0	1
3.0.1	2019_Mar_07_1015	s	s	13	2	Capacity	4	1_4	1	4	1	2	23_1_2	0	2	1	0	0.657974004745	-522.0	173.0	-519.0	170.0	1
3.0.1	2019_Mar_07_1015	s	s	13	2	Capacity	5	ABS	0	0	1	4	24_1_4	NA	NA	0	1	2.3868560791	None	None	None	None	1
3.0.1	2019_Mar_07_1015	s	s	13	2	Capacity	6	1_2	1	2	1	3	23_1_3	0	1	0	1	4.04929590225	68.0	-67.0	None	None	0
3.0.1	2019_Mar_07_1015	s	s	13	2	Capacity	7	1_2	1	2	1	4	23_1_4	0	2	1	0	0.704997777939	-293.0	-195.0	-290.0	-195.0	1
3.0.1	2019_Mar_07_1015	s	s	13	2	Capacity	8	ABS	0	0	1	3	24_1_3	NA	NA	0	1	2.97120499611	None	None	None	None	1
3.0.1	2019_Mar_07_1015	s	s	13	2	Capacity	9	ABS	0	0	1	4	24_1_4	NA	NA	0	1	2.42508387566	None	None	None	None	1
3.0.1	2019_Mar_07_1015	s	s	13	2	Capacity	10	ABS	0	0	1	1	24_1_1	NA	NA	0	1	2.89544701576	None	None	None	None	1
3.0.1	2019_Mar_07_1015	s	s	13	2	Capacity	11	1_2	1	2	1	1	23_1_1	0	-1	1	0	1.59148406982	189.0	-321.0	189.0	-323.0	1
3.0.1	2019_Mar_07_1015	s	s	13	2	Capacity	12	ABS	0	0	1	1	24_1_1	NA	NA	0	1	2.60364198685	None	None	None	None	1
3.0.1	2019_Mar_07_1015	s	s	13	2	Capacity	13	1_1	1	1	1	3	23_1_3	0	2	1	0	0.898072957993	-293.0	0.0	-303.0	2.0	1
3.0.1	2019_Mar_07_1015	s	s	13	2	Capacity	14	1_4	1	4	1	1	23_1_1	0	3	1	0	0.705015897751	288.0	-113.0	297.0	-115.0	1
3.0.1	2019_Mar_07_1015	s	s	13	2	Capacity	15	ABS	0	0	1	1	24_1_1	NA	NA	0	1	1.92815995216	None	None	None	None	1
3.0.1	2019_Mar_07_1015	s	s	13	2	Capacity	16	1_4	1	4	1	3	23_1_3	0	1	1	0	0.740280866623	-512.0	-70.0	-515.0	-68.0	1
3.0.1	2019_Mar_07_1015	s	s	13	2	Capacity	17	ABS	0	0	1	2	24_1_2	NA	NA	0	1	2.84838986397	None	None	None	None	1
3.0.1	2019_Mar_07_1015	s	s	13	2	Capacity	18	1_1	1	1	1	2	23_1_2	0	1	1	0	1.18723583221	-444.0	-81.0	-455.0	-80.0	1
3.0.1	2019_Mar_07_1015	s	s	13	2	Capacity	19	1_1	1	1	1	4	23_1_4	0	3	1	0	0.639135837555	-169.0	85.0	-169.0	92.0	1
3.0.1	2019_Mar_07_1015	s	s	13	2	Capacity	20	ABS	0	0	1	3	24_1_3	NA	NA	0	1	2.07542514801	None	None	None	None	1
3.0.1	2019_Mar_07_1015	s	s	13	2	Capacity	21	ABS	0	0	1	2	24_1_2	NA	NA	0	1	3.7090139389	None	None	None	None	1
3.0.1	2019_Mar_07_1015	s	s	13	2	Capacity	22	ABS	0	0	1	3	24_1_3	NA	NA	0	1	2.57499098778	None	None	None	None	1
3.0.1	2019_Mar_07_1015	s	s	13	2	Capacity	23	1_3	1	3	1	2	23_1_2	0	1	0	1	3.05721998215	140.0	-40.0	None	None	0
3.0.1	2019_Mar_07_1015	s	s	13	2	Capacity	24	1_3	1	3	1	4	23_1_4	0	-1	1	0	0.881412029266	93.0	195.0	92.0	197.0	1
3.0.1	2019_Mar_07_1015	s	s	13	2	Capacity	25	ABS	0	0	1	1	24_1_1	NA	NA	0	1	2.28685092926	None	None	None	None	1
3.0.1	2019_Mar_07_1015	s	s	13	2	Capacity	26	1_2	1	2	1	1	23_1_1	0	-1	0	1	2.06268501282	70.0	-64.0	None	None	0
3.0.1	2019_Mar_07_1015	s	s	13	2	Capacity	27	ABS	0	0	1	3	24_1_3	NA	NA	0	1	4.36274695396	None	None	None	None	1
3.0.1	2019_Mar_07_1015	s	s	13	2	Capacity	28	ABS	0	0	1	3	24_1_3	NA	NA	0	1	3.01574802399	None	None	None	None	1
3.0.1	2019_Mar_07_1015	s	s	13	2	Capacity	29	1_4	1	4	1	2	23_1_2	0	2	1	0	2.39860796928	276.0	335.0	284.0	335.0	1
3.0.1	2019_Mar_07_1015	s	s	13	2	Capacity	30	ABS	0	0	1	4	24_1_4	NA	NA	0	1	1.77522587776	None	None	None	None	1
3.0.1	2019_Mar_07_1015	s	s	13	2	Capacity	31	ABS	0	0	1	1	24_1_1	NA	NA	0	1	1.82727408409	None	None	None	None	1
3.0.1	2019_Mar_07_1015	s	s	13	2	Capacity	32	1_3	1	3	1	2	23_1_2	0	1	1	0	3.08077692986	237.0	374.0	243.0	374.0	1
3.0.1	2019_Mar_07_1015	s	s	13	2	Capacity	33	1_1	1	1	1	4	23_1_4	0	3	1	0	0.898166894913	-247.0	409.0	-245.0	407.0	1
3.0.1	2019_Mar_07_1015	s	s	13	2	Capacity	34	ABS	0	0	1	4	24_1_4	NA	NA	0	1	1.36650705338	None	None	None	None	1
3.0.1	2019_Mar_07_1015	s	s	13	2	Capacity	35	ABS	0	0	1	2	24_1_2	NA	NA	0	1	4.95113301277	None	None	None	None	1
3.0.1	2019_Mar_07_1015	s	s	13	2	Capacity	36	1_2	1	2	1	3	23_1_3	0	1	1	0	3.83862996101	-532.0	182.0	-534.0	175.0	1
3.0.1	2019_Mar_07_1015	s	s	13	2	Capacity	37	ABS	0	0	1	2	24_1_2	NA	NA	0	1	4.23331403732	None	None	None	None	1
3.0.1	2019_Mar_07_1015	s	s	13	2	Capacity	38	1_2	1	2	1	4	23_1_4	0	2	1	0	0.672595977783	-191.0	23.0	-188.0	25.0	1
3.0.1	2019_Mar_07_1015	s	s	13	2	Capacity	39	1_4	1	4	1	3	23_1_3	0	1	1	0	0.752004861832	157.0	112.0	158.0	116.0	1
3.0.1	2019_Mar_07_1015	s	s	13	2	Capacity	40	1_3	1	3	1	4	23_1_4	0	-1	1	0	1.29301691055	514.0	167.0	505.0	169.0	1
3.0.1	2019_Mar_07_1015	s	s	13	2	Capacity	41	ABS	0	0	1	4	24_1_4	NA	NA	0	1	3.44826602936	None	None	None	None	1
3.0.1	2019_Mar_07_1015	s	s	13	2	Capacity	42	1_3	1	3	1	1	23_1_1	0	2	0	1	2.8690559864	376.0	-90.0	None	None	0
3.0.1	2019_Mar_07_1015	s	s	13	2	Capacity	43	ABS	0	0	1	1	24_1_1	NA	NA	0	1	2.35159182549	None	None	None	None	1
3.0.1	2019_Mar_07_1015	s	s	13	2	Capacity	44	1_1	1	1	1	2	23_1_2	0	1	0	1	3.90686416626	53.0	185.0	None	None	0
3.0.1	2019_Mar_07_1015	s	s	13	2	Capacity	45	1_1	1	1	1	3	23_1_3	0	2	1	0	4.89804911613	52.0	-239.0	45.0	-239.0	1
3.0.1	2019_Mar_07_1015	s	s	13	2	Capacity	46	ABS	0	0	1	2	24_1_2	NA	NA	0	1	3.49244904518	None	None	None	None	1
3.0.1	2019_Mar_07_1015	s	s	13	2	Capacity	47	1_4	1	4	1	1	23_1_1	0	3	1	0	1.53342485428	490.0	-324.0	491.0	-322.0	1
3.0.1	2019_Mar_07_1015	s	s	13	2	Capacity	48	ABS	0	0	1	3	24_1_3	NA	NA	0	1	4.55419206619	None	None	None	None	1
3.0.1	2019_Mar_07_1015	s	s	13	2	Capacity	49	ABS	0	0	1	4	24_1_4	NA	NA	0	1	2.37796998024	None	None	None	None	1
3.0.1	2019_Mar_07_1015	s	s	13	2	Capacity	50	1_1	1	1	1	3	23_1_3	0	2	1	0	0.999073982239	171.0	6.0	171.0	5.0	1
3.0.1	2019_Mar_07_1015	s	s	13	2	Capacity	51	1_2	1	2	1	1	23_1_1	0	-1	1	0	1.4694378376	213.0	243.0	212.0	243.0	1
3.0.1	2019_Mar_07_1015	s	s	13	2	Capacity	52	1_2	1	2	1	4	23_1_4	0	2	1	0	1.08423018456	-463.0	181.0	-463.0	189.0	1
3.0.1	2019_Mar_07_1015	s	s	13	2	Capacity	53	ABS	0	0	1	1	24_1_1	NA	NA	0	1	10.6549429893	None	None	None	None	1
3.0.1	2019_Mar_07_1015	s	s	13	2	Capacity	54	1_1	1	1	1	2	23_1_2	0	1	0	1	2.28550601006	-396.0	-152.0	None	None	0
3.0.1	2019_Mar_07_1015	s	s	13	2	Capacity	55	1_1	1	1	1	4	23_1_4	0	3	1	0	2.75531816483	438.0	-308.0	439.0	-316.0	1
3.0.1	2019_Mar_07_1015	s	s	13	2	Capacity	56	ABS	0	0	1	4	24_1_4	NA	NA	0	1	2.66250801086	None	None	None	None	1
3.0.1	2019_Mar_07_1015	s	s	13	2	Capacity	57	ABS	0	0	1	1	24_1_1	NA	NA	0	1	1.66057109833	None	None	None	None	1
3.0.1	2019_Mar_07_1015	s	s	13	2	Capacity	58	ABS	0	0	1	2	24_1_2	NA	NA	0	1	4.74501991272	None	None	None	None	1
3.0.1	2019_Mar_07_1015	s	s	13	2	Capacity	59	ABS	0	0	1	3	24_1_3	NA	NA	0	1	7.59712505341	None	None	None	None	1
3.0.1	2019_Mar_07_1015	s	s	13	2	Capacity	60	1_3	1	3	1	1	23_1_1	0	2	1	0	2.21042299271	127.0	-404.0	129.0	-407.0	1
3.0.1	2019_Mar_07_1015	s	s	13	2	Capacity	61	1_4	1	4	1	3	23_1_3	0	1	1	0	1.78052520752	398.0	-368.0	405.0	-366.0	1
3.0.1	2019_Mar_07_1015	s	s	13	2	Capacity	62	1_4	1	4	1	1	23_1_1	0	3	1	0	0.754855871201	421.0	-84.0	414.0	-80.0	1
3.0.1	2019_Mar_07_1015	s	s	13	2	Capacity	63	ABS	0	0	1	1	24_1_1	NA	NA	0	1	2.13100790977	None	None	None	None	1
3.0.1	2019_Mar_07_1015	s	s	13	2	Capacity	64	ABS	0	0	1	3	24_1_3	NA	NA	0	1	3.67783904076	None	None	None	None	1
3.0.1	2019_Mar_07_1015	s	s	13	2	Capacity	65	ABS	0	0	1	3	24_1_3	NA	NA	0	1	3.12817788124	None	None	None	None	1
3.0.1	2019_Mar_07_1015	s	s	13	2	Capacity	66	ABS	0	0	1	2	24_1_2	NA	NA	0	1	2.76011705399	None	None	None	None	1
3.0.1	2019_Mar_07_1015	s	s	13	2	Capacity	67	1_2	1	2	1	3	23_1_3	0	1	0	1	3.85032010078	-529.0	-336.0	None	None	0
3.0.1	2019_Mar_07_1015	s	s	13	2	Capacity	68	1_3	1	3	1	2	23_1_2	0	1	1	0	2.05753588676	-280.0	-403.0	-281.0	-406.0	1
3.0.1	2019_Mar_07_1015	s	s	13	2	Capacity	69	1_4	1	4	1	2	23_1_2	0	2	1	0	1.95166993141	348.0	275.0	345.0	279.0	1
3.0.1	2019_Mar_07_1015	s	s	13	2	Capacity	70	ABS	0	0	1	4	24_1_4	NA	NA	0	1	2.57502794266	None	None	None	None	1
3.0.1	2019_Mar_07_1015	s	s	13	2	Capacity	71	ABS	0	0	1	2	24_1_2	NA	NA	0	1	3.92753720284	None	None	None	None	1
3.0.1	2019_Mar_07_1015	s	s	13	2	Capacity	72	1_3	1	3	1	4	23_1_4	0	-1	1	0	0.908023834229	222.0	26.0	217.0	26.0	1
3.0.1	2019_Mar_07_1015	s	s	13	2	Capacity	73	ABS	0	0	1	3	24_1_3	NA	NA	0	1	2.83389616013	None	None	None	None	1
3.0.1	2019_Mar_07_1015	s	s	13	2	Capacity	74	1_3	1	3	1	2	23_1_2	0	1	1	0	3.71593284607	28.0	-287.0	28.0	-284.0	1
3.0.1	2019_Mar_07_1015	s	s	13	2	Capacity	75	1_2	1	2	1	1	23_1_1	0	-1	1	0	1.71645212173	-30.0	-300.0	-34.0	-310.0	1
3.0.1	2019_Mar_07_1015	s	s	13	2	Capacity	76	ABS	0	0	1	1	24_1_1	NA	NA	0	1	3.19307208061	None	None	None	None	1
3.0.1	2019_Mar_07_1015	s	s	13	2	Capacity	77	1_2	1	2	1	3	23_1_3	0	1	1	0	1.81629896164	-514.0	-17.0	-514.0	-15.0	1
3.0.1	2019_Mar_07_1015	s	s	13	2	Capacity	78	1_1	1	1	1	4	23_1_4	0	3	1	0	1.12844896317	525.0	337.0	522.0	323.0	1
3.0.1	2019_Mar_07_1015	s	s	13	2	Capacity	79	1_1	1	1	1	2	23_1_2	0	1	0	1	3.19309520721	132.0	22.0	None	None	0
3.0.1	2019_Mar_07_1015	s	s	13	2	Capacity	80	ABS	0	0	1	2	24_1_2	NA	NA	0	1	3.89723396301	None	None	None	None	1
3.0.1	2019_Mar_07_1015	s	s	13	2	Capacity	81	ABS	0	0	1	2	24_1_2	NA	NA	0	1	3.15423297882	None	None	None	None	1
3.0.1	2019_Mar_07_1015	s	s	13	2	Capacity	82	ABS	0	0	1	4	24_1_4	NA	NA	0	1	1.82268381119	None	None	None	None	1
3.0.1	2019_Mar_07_1015	s	s	13	2	Capacity	83	1_4	1	4	1	3	23_1_3	0	1	1	0	0.968739032745	-195.0	6.0	-201.0	3.0	1
3.0.1	2019_Mar_07_1015	s	s	13	2	Capacity	84	ABS	0	0	1	4	24_1_4	NA	NA	0	1	1.95841097832	None	None	None	None	1
3.0.1	2019_Mar_07_1015	s	s	13	2	Capacity	85	1_2	1	2	1	4	23_1_4	0	2	1	0	0.5992000103	85.0	-75.0	82.0	-72.0	1
3.0.1	2019_Mar_07_1015	s	s	13	2	Capacity	86	ABS	0	0	1	3	24_1_3	NA	NA	0	1	5.06839108467	None	None	None	None	1
3.0.1	2019_Mar_07_1015	s	s	13	2	Capacity	87	ABS	0	0	1	3	24_1_3	NA	NA	0	1	3.53954410553	None	None	None	None	1
3.0.1	2019_Mar_07_1015	s	s	13	2	Capacity	88	ABS	0	0	1	1	24_1_1	NA	NA	0	1	1.63409805298	None	None	None	None	1
3.0.1	2019_Mar_07_1015	s	s	13	2	Capacity	89	1_1	1	1	1	3	23_1_3	0	2	1	0	1.29304480553	-73.0	-353.0	-78.0	-352.0	1
3.0.1	2019_Mar_07_1015	s	s	13	2	Capacity	90	ABS	0	0	1	1	24_1_1	NA	NA	0	1	1.93978214264	None	None	None	None	1
3.0.1	2019_Mar_07_1015	s	s	13	2	Capacity	91	1_3	1	3	1	4	23_1_4	0	-1	1	0	0.775584936142	-142.0	224.0	-146.0	226.0	1
3.0.1	2019_Mar_07_1015	s	s	13	2	Capacity	92	1_3	1	3	1	1	23_1_1	0	2	1	0	1.08428192139	-469.0	184.0	-478.0	184.0	1
3.0.1	2019_Mar_07_1015	s	s	13	2	Capacity	93	1_4	1	4	1	2	23_1_2	0	2	1	0	0.646085977554	226.0	72.0	232.0	81.0	1
3.0.1	2019_Mar_07_1015	s	s	13	2	Capacity	94	1_4	1	4	1	1	23_1_1	0	3	1	0	0.563815832138	-41.0	263.0	-46.0	270.0	1
3.0.1	2019_Mar_07_1015	s	s	13	2	Capacity	95	ABS	0	0	1	4	24_1_4	NA	NA	0	1	1.80400800705	None	None	None	None	1
3.0.1	2019_Mar_07_1015	s	s	13	2	Capacity	96	ABS	0	0	1	2	24_1_2	NA	NA	0	1	4.49678301811	None	None	None	None	1
3.0.1	2019_Mar_07_1015	s	s	13	2	Capacity	1	1_1	1	1	2	1	23_2_1	1	0	1	0	4.67127990723	-297.0	-271.0	-291.0	-271.0	1
3.0.1	2019_Mar_07_1015	s	s	13	2	Capacity	2	2_1	2	1	1	1	23_1_1	-1	0	0	1	1.67230296135	-117.0	57.0	None	None	0
3.0.1	2019_Mar_07_1015	s	s	13	2	Capacity	3	ABS	0	0	1	1	24_1_1	NA	NA	0	1	1.21601700783	None	None	None	None	1
3.0.1	2019_Mar_07_1015	s	s	13	2	Capacity	4	4_1	4	1	1	1	23_1_1	3	0	1	0	0.680217981339	117.0	260.0	120.0	256.0	1
3.0.1	2019_Mar_07_1015	s	s	13	2	Capacity	5	ABS	0	0	2	1	24_2_1	NA	NA	0	1	0.849031925201	None	None	None	None	1
3.0.1	2019_Mar_07_1015	s	s	13	2	Capacity	6	ABS	0	0	3	1	24_3_1	NA	NA	0	1	1.30973100662	None	None	None	None	1
3.0.1	2019_Mar_07_1015	s	s	13	2	Capacity	7	3_1	3	1	2	1	23_2_1	1	0	1	0	0.443664073944	94.0	-26.0	102.0	-26.0	1
3.0.1	2019_Mar_07_1015	s	s	13	2	Capacity	8	ABS	0	0	3	1	24_3_1	NA	NA	0	1	0.82262301445	None	None	None	None	1
3.0.1	2019_Mar_07_1015	s	s	13	2	Capacity	9	ABS	0	0	4	1	24_4_1	NA	NA	0	1	0.76824092865	None	None	None	None	1
3.0.1	2019_Mar_07_1015	s	s	13	2	Capacity	10	ABS	0	0	3	1	24_3_1	NA	NA	0	1	0.810862064362	None	None	None	None	1
3.0.1	2019_Mar_07_1015	s	s	13	2	Capacity	11	ABS	0	0	2	1	24_2_1	NA	NA	0	1	0.928430080414	None	None	None	None	1
3.0.1	2019_Mar_07_1015	s	s	13	2	Capacity	12	ABS	0	0	1	1	24_1_1	NA	NA	0	1	0.681427955627	None	None	None	None	1
3.0.1	2019_Mar_07_1015	s	s	13	2	Capacity	13	1_1	1	1	4	1	23_4_1	3	0	1	0	0.516807079315	-217.0	-69.0	-221.0	-79.0	1
3.0.1	2019_Mar_07_1015	s	s	13	2	Capacity	14	ABS	0	0	4	1	24_4_1	NA	NA	0	1	0.54550909996	None	None	None	None	1
3.0.1	2019_Mar_07_1015	s	s	13	2	Capacity	15	3_1	3	1	1	1	23_1_1	2	0	1	0	0.469746112823	177.0	-225.0	177.0	-238.0	1
3.0.1	2019_Mar_07_1015	s	s	13	2	Capacity	16	ABS	0	0	2	1	24_2_1	NA	NA	0	1	0.928436994553	None	None	None	None	1
3.0.1	2019_Mar_07_1015	s	s	13	2	Capacity	17	2_1	2	1	4	1	23_4_1	2	0	1	0	0.546800136566	308.0	-169.0	308.0	-170.0	1
3.0.1	2019_Mar_07_1015	s	s	13	2	Capacity	18	4_1	4	1	3	1	23_3_1	1	0	1	0	0.587402820587	356.0	160.0	359.0	149.0	1
3.0.1	2019_Mar_07_1015	s	s	13	2	Capacity	19	2_1	2	1	3	1	23_3_1	1	0	1	0	0.604547977448	-290.0	236.0	-288.0	243.0	1
3.0.1	2019_Mar_07_1015	s	s	13	2	Capacity	20	ABS	0	0	1	1	24_1_1	NA	NA	0	1	0.716814994812	None	None	None	None	1
3.0.1	2019_Mar_07_1015	s	s	13	2	Capacity	21	4_1	4	1	2	1	23_2_1	2	0	1	0	0.481676101685	222.0	10.0	216.0	7.0	1
3.0.1	2019_Mar_07_1015	s	s	13	2	Capacity	22	ABS	0	0	4	1	24_4_1	NA	NA	0	1	0.814682006836	None	None	None	None	1
3.0.1	2019_Mar_07_1015	s	s	13	2	Capacity	23	3_1	3	1	4	1	23_4_1	-1	0	1	0	0.55496096611	-511.0	-141.0	-504.0	-139.0	1
3.0.1	2019_Mar_07_1015	s	s	13	2	Capacity	24	1_1	1	1	3	1	23_3_1	2	0	1	0	0.628236055374	-442.0	73.0	-446.0	70.0	1
3.0.1	2019_Mar_07_1015	s	s	13	2	Capacity	25	ABS	0	0	1	1	24_1_1	NA	NA	0	1	1.36368703842	None	None	None	None	1
3.0.1	2019_Mar_07_1015	s	s	13	2	Capacity	26	ABS	0	0	4	1	24_4_1	NA	NA	0	1	0.608408927917	None	None	None	None	1
3.0.1	2019_Mar_07_1015	s	s	13	2	Capacity	27	2_1	2	1	1	1	23_1_1	-1	0	0	1	0.91671705246	6.0	-307.0	None	None	0
3.0.1	2019_Mar_07_1015	s	s	13	2	Capacity	28	1_1	1	1	3	1	23_3_1	2	0	1	0	0.504992008209	-122.0	-61.0	-115.0	-59.0	1
3.0.1	2019_Mar_07_1015	s	s	13	2	Capacity	29	ABS	0	0	2	1	24_2_1	NA	NA	0	1	2.13297390938	None	None	None	None	1
3.0.1	2019_Mar_07_1015	s	s	13	2	Capacity	30	ABS	0	0	3	1	24_3_1	NA	NA	0	1	0.933532953262	None	None	None	None	1
3.0.1	2019_Mar_07_1015	s	s	13	2	Capacity	31	1_1	1	1	4	1	23_4_1	3	0	1	0	0.579221963882	498.0	-233.0	504.0	-233.0	1
3.0.1	2019_Mar_07_1015	s	s	13	2	Capacity	32	4_1	4	1	1	1	23_1_1	3	0	1	0	0.474623203278	-438.0	-17.0	-433.0	-21.0	1
3.0.1	2019_Mar_07_1015	s	s	13	2	Capacity	33	4_1	4	1	2	1	23_2_1	2	0	1	0	0.496168851852	-67.0	-234.0	-69.0	-237.0	1
3.0.1	2019_Mar_07_1015	s	s	13	2	Capacity	34	3_1	3	1	1	1	23_1_1	2	0	1	0	0.799121856689	65.0	152.0	71.0	150.0	1
3.0.1	2019_Mar_07_1015	s	s	13	2	Capacity	35	ABS	0	0	3	1	24_3_1	NA	NA	0	1	0.775560855865	None	None	None	None	1
3.0.1	2019_Mar_07_1015	s	s	13	2	Capacity	36	ABS	0	0	1	1	24_1_1	NA	NA	0	1	0.869673013687	None	None	None	None	1
3.0.1	2019_Mar_07_1015	s	s	13	2	Capacity	37	2_1	2	1	4	1	23_4_1	2	0	1	0	0.485893011093	28.0	140.0	34.0	149.0	1
3.0.1	2019_Mar_07_1015	s	s	13	2	Capacity	38	ABS	0	0	4	1	24_4_1	NA	NA	0	1	0.519536972046	None	None	None	None	1
3.0.1	2019_Mar_07_1015	s	s	13	2	Capacity	39	3_1	3	1	2	1	23_2_1	1	0	1	0	0.893249988556	479.0	-24.0	480.0	-28.0	1
3.0.1	2019_Mar_07_1015	s	s	13	2	Capacity	40	3_1	3	1	4	1	23_4_1	-1	0	1	0	0.496222019196	-408.0	64.0	-406.0	74.0	1
3.0.1	2019_Mar_07_1015	s	s	13	2	Capacity	41	1_1	1	1	2	1	23_2_1	1	0	0	1	1.99223303795	24.0	-38.0	None	None	0
3.0.1	2019_Mar_07_1015	s	s	13	2	Capacity	42	2_1	2	1	3	1	23_3_1	1	0	1	0	1.31942987442	-281.0	-93.0	-276.0	-100.0	1
3.0.1	2019_Mar_07_1015	s	s	13	2	Capacity	43	4_1	4	1	3	1	23_3_1	1	0	1	0	0.474972963333	-472.0	-163.0	-475.0	-167.0	1
3.0.1	2019_Mar_07_1015	s	s	13	2	Capacity	44	ABS	0	0	1	1	24_1_1	NA	NA	0	1	1.31950688362	None	None	None	None	1
3.0.1	2019_Mar_07_1015	s	s	13	2	Capacity	45	ABS	0	0	2	1	24_2_1	NA	NA	0	1	0.834423780441	None	None	None	None	1
3.0.1	2019_Mar_07_1015	s	s	13	2	Capacity	46	ABS	0	0	4	1	24_4_1	NA	NA	0	1	0.5755879879	None	None	None	None	1
3.0.1	2019_Mar_07_1015	s	s	13	2	Capacity	47	ABS	0	0	3	1	24_3_1	NA	NA	0	1	0.613810062408	None	None	None	None	1
3.0.1	2019_Mar_07_1015	s	s	13	2	Capacity	48	ABS	0	0	2	1	24_2_1	NA	NA	0	1	1.6459209919	None	None	None	None	1
3.0.1	2019_Mar_07_1015	s	s	13	2	Capacity	49	ABS	0	0	3	1	24_3_1	NA	NA	0	1	0.636976003647	None	None	None	None	1
3.0.1	2019_Mar_07_1015	s	s	13	2	Capacity	50	ABS	0	0	4	1	24_4_1	NA	NA	0	1	0.41500210762	None	None	None	None	1
3.0.1	2019_Mar_07_1015	s	s	13	2	Capacity	51	1_1	1	1	3	1	23_3_1	2	0	1	0	0.540436029434	-105.0	-85.0	-105.0	-92.0	1
3.0.1	2019_Mar_07_1015	s	s	13	2	Capacity	52	3_1	3	1	2	1	23_2_1	1	0	1	0	0.613873958588	-209.0	-39.0	-205.0	-40.0	1
3.0.1	2019_Mar_07_1015	s	s	13	2	Capacity	53	ABS	0	0	2	1	24_2_1	NA	NA	0	1	1.02546405792	None	None	None	None	1
3.0.1	2019_Mar_07_1015	s	s	13	2	Capacity	54	ABS	0	0	1	1	24_1_1	NA	NA	0	1	0.781526088715	None	None	None	None	1
3.0.1	2019_Mar_07_1015	s	s	13	2	Capacity	55	ABS	0	0	1	1	24_1_1	NA	NA	0	1	0.693623065948	None	None	None	None	1
3.0.1	2019_Mar_07_1015	s	s	13	2	Capacity	56	2_1	2	1	4	1	23_4_1	2	0	1	0	0.569317102432	-195.0	-47.0	-199.0	-52.0	1
3.0.1	2019_Mar_07_1015	s	s	13	2	Capacity	57	ABS	0	0	1	1	24_1_1	NA	NA	0	1	0.731417179108	None	None	None	None	1
3.0.1	2019_Mar_07_1015	s	s	13	2	Capacity	58	ABS	0	0	3	1	24_3_1	NA	NA	0	1	0.799096107483	None	None	None	None	1
3.0.1	2019_Mar_07_1015	s	s	13	2	Capacity	59	ABS	0	0	2	1	24_2_1	NA	NA	0	1	1.02547502518	None	None	None	None	1
3.0.1	2019_Mar_07_1015	s	s	13	2	Capacity	60	ABS	0	0	3	1	24_3_1	NA	NA	0	1	0.646191120148	None	None	None	None	1
3.0.1	2019_Mar_07_1015	s	s	13	2	Capacity	61	4_1	4	1	3	1	23_3_1	1	0	1	0	0.575602054596	-106.0	409.0	-104.0	417.0	1
3.0.1	2019_Mar_07_1015	s	s	13	2	Capacity	62	ABS	0	0	4	1	24_4_1	NA	NA	0	1	0.646266937256	None	None	None	None	1
3.0.1	2019_Mar_07_1015	s	s	13	2	Capacity	63	2_1	2	1	3	1	23_3_1	1	0	1	0	0.591866970062	494.0	-231.0	492.0	-227.0	1
3.0.1	2019_Mar_07_1015	s	s	13	2	Capacity	64	1_1	1	1	4	1	23_4_1	3	0	1	0	0.500924110413	-177.0	-351.0	-176.0	-354.0	1
3.0.1	2019_Mar_07_1015	s	s	13	2	Capacity	65	3_1	3	1	4	1	23_4_1	-1	0	1	0	0.711014032364	62.0	-58.0	61.0	-59.0	1
3.0.1	2019_Mar_07_1015	s	s	13	2	Capacity	66	4_1	4	1	2	1	23_2_1	2	0	1	0	0.496147871017	110.0	250.0	114.0	256.0	1
3.0.1	2019_Mar_07_1015	s	s	13	2	Capacity	67	4_1	4	1	1	1	23_1_1	3	0	1	0	0.59258890152	-46.0	343.0	-47.0	347.0	1
3.0.1	2019_Mar_07_1015	s	s	13	2	Capacity	68	3_1	3	1	1	1	23_1_1	2	0	1	0	0.693166971207	434.0	-242.0	437.0	-240.0	1
3.0.1	2019_Mar_07_1015	s	s	13	2	Capacity	69	1_1	1	1	2	1	23_2_1	1	0	0	1	1.55470490456	341.0	-371.0	None	None	0
3.0.1	2019_Mar_07_1015	s	s	13	2	Capacity	70	ABS	0	0	4	1	24_4_1	NA	NA	0	1	0.752022981644	None	None	None	None	1
3.0.1	2019_Mar_07_1015	s	s	13	2	Capacity	71	ABS	0	0	2	1	24_2_1	NA	NA	0	1	0.914431810379	None	None	None	None	1
3.0.1	2019_Mar_07_1015	s	s	13	2	Capacity	72	2_1	2	1	1	1	23_1_1	-1	0	0	1	1.57567405701	-237.0	108.0	None	None	0
3.0.1	2019_Mar_07_1015	s	s	13	2	Capacity	73	ABS	0	0	2	1	24_2_1	NA	NA	0	1	0.790204048157	None	None	None	None	1
3.0.1	2019_Mar_07_1015	s	s	13	2	Capacity	74	2_1	2	1	4	1	23_4_1	2	0	1	0	0.563910961151	-434.0	180.0	-431.0	174.0	1
3.0.1	2019_Mar_07_1015	s	s	13	2	Capacity	75	ABS	0	0	1	1	24_1_1	NA	NA	0	1	0.790243864059	None	None	None	None	1
3.0.1	2019_Mar_07_1015	s	s	13	2	Capacity	76	3_1	3	1	2	1	23_2_1	1	0	1	0	0.599291086197	311.0	-64.0	308.0	-68.0	1
3.0.1	2019_Mar_07_1015	s	s	13	2	Capacity	77	2_1	2	1	1	1	23_1_1	-1	0	0	1	0.799045085907	-111.0	-330.0	None	None	0
3.0.1	2019_Mar_07_1015	s	s	13	2	Capacity	78	3_1	3	1	4	1	23_4_1	-1	0	1	0	0.533408164978	506.0	60.0	503.0	60.0	1
3.0.1	2019_Mar_07_1015	s	s	13	2	Capacity	79	1_1	1	1	4	1	23_4_1	3	0	1	0	0.52854013443	220.0	-75.0	228.0	-77.0	1
3.0.1	2019_Mar_07_1015	s	s	13	2	Capacity	80	4_1	4	1	3	1	23_3_1	1	0	1	0	0.481581926346	428.0	-83.0	432.0	-87.0	1
3.0.1	2019_Mar_07_1015	s	s	13	2	Capacity	81	ABS	0	0	2	1	24_2_1	NA	NA	0	1	1.17541599274	None	None	None	None	1
3.0.1	2019_Mar_07_1015	s	s	13	2	Capacity	82	ABS	0	0	4	1	24_4_1	NA	NA	0	1	0.528572797775	None	None	None	None	1
3.0.1	2019_Mar_07_1015	s	s	13	2	Capacity	83	ABS	0	0	1	1	24_1_1	NA	NA	0	1	0.921779870987	None	None	None	None	1
3.0.1	2019_Mar_07_1015	s	s	13	2	Capacity	84	3_1	3	1	1	1	23_1_1	2	0	1	0	0.640799045563	206.0	238.0	218.0	243.0	1
3.0.1	2019_Mar_07_1015	s	s	13	2	Capacity	85	1_1	1	1	3	1	23_3_1	2	0	1	0	0.481563091278	-291.0	-103.0	-285.0	-102.0	1
3.0.1	2019_Mar_07_1015	s	s	13	2	Capacity	86	ABS	0	0	3	1	24_3_1	NA	NA	0	1	1.56640005112	None	None	None	None	1
3.0.1	2019_Mar_07_1015	s	s	13	2	Capacity	87	2_1	2	1	3	1	23_3_1	1	0	1	0	0.510384082794	54.0	78.0	50.0	78.0	1
3.0.1	2019_Mar_07_1015	s	s	13	2	Capacity	88	ABS	0	0	1	1	24_1_1	NA	NA	0	1	1.07484102249	None	None	None	None	1
3.0.1	2019_Mar_07_1015	s	s	13	2	Capacity	89	4_1	4	1	1	1	23_1_1	3	0	1	0	0.457962989807	365.0	389.0	366.0	394.0	1
3.0.1	2019_Mar_07_1015	s	s	13	2	Capacity	90	1_1	1	1	2	1	23_2_1	1	0	0	1	0.95192694664	-485.0	91.0	None	None	0
3.0.1	2019_Mar_07_1015	s	s	13	2	Capacity	91	ABS	0	0	3	1	24_3_1	NA	NA	0	1	0.721632957458	None	None	None	None	1
3.0.1	2019_Mar_07_1015	s	s	13	2	Capacity	92	ABS	0	0	2	1	24_2_1	NA	NA	0	1	0.74030995369	None	None	None	None	1
3.0.1	2019_Mar_07_1015	s	s	13	2	Capacity	93	ABS	0	0	3	1	24_3_1	NA	NA	0	1	0.646209955215	None	None	None	None	1
3.0.1	2019_Mar_07_1015	s	s	13	2	Capacity	94	ABS	0	0	4	1	24_4_1	NA	NA	0	1	0.517195940018	None	None	None	None	1
3.0.1	2019_Mar_07_1015	s	s	13	2	Capacity	95	4_1	4	1	2	1	23_2_1	2	0	1	0	0.469740867615	-3.0	-57.0	-11.0	-60.0	1
3.0.1	2019_Mar_07_1015	s	s	13	2	Capacity	96	ABS	0	0	4	1	24_4_1	NA	NA	0	1	0.599161863327	None	None	None	None	1
3.0.1	2019_Mar_07_1015	s	s	13	2	SIC	1	ABS	0	0	2	4	24_2_4	NA	NA	0	1	2.14731311798	None	None	None	None	1
3.0.1	2019_Mar_07_1015	s	s	13	2	SIC	2	3_1	3	1	3	3	23_3_3	0	2	1	0	1.58701992035	307.0	-54.0	305.0	-52.0	1
3.0.1	2019_Mar_07_1015	s	s	13	2	SIC	3	ABS	0	0	4	3	24_4_3	NA	NA	0	1	4.04506802559	None	None	None	None	1
3.0.1	2019_Mar_07_1015	s	s	13	2	SIC	4	4_3	4	3	1	2	23_1_2	3	1	1	0	0.505036115646	-170.0	196.0	-170.0	186.0	1
3.0.1	2019_Mar_07_1015	s	s	13	2	SIC	5	2_1	2	1	2	2	23_2_2	0	1	0	1	3.15636706352	-437.0	213.0	None	None	0
3.0.1	2019_Mar_07_1015	s	s	13	2	SIC	6	4_2	4	2	2	3	23_2_3	2	1	1	0	0.450828075409	-290.0	105.0	-288.0	107.0	1
3.0.1	2019_Mar_07_1015	s	s	13	2	SIC	7	ABS	0	0	4	4	24_4_4	NA	NA	0	1	1.89284992218	None	None	None	None	1
3.0.1	2019_Mar_07_1015	s	s	13	2	SIC	8	ABS	0	0	3	2	24_3_2	NA	NA	0	1	3.41398596764	None	None	None	None	1
3.0.1	2019_Mar_07_1015	s	s	13	2	SIC	9	ABS	0	0	1	4	24_1_4	NA	NA	0	1	1.63412380219	None	None	None	None	1
3.0.1	2019_Mar_07_1015	s	s	13	2	SIC	10	ABS	0	0	1	4	24_1_4	NA	NA	0	1	1.87445497513	None	None	None	None	1
3.0.1	2019_Mar_07_1015	s	s	13	2	SIC	11	4_3	4	3	3	1	23_3_1	1	2	1	0	0.716917991638	-116.0	-101.0	-115.0	-100.0	1
3.0.1	2019_Mar_07_1015	s	s	13	2	SIC	12	ABS	0	0	1	2	24_1_2	NA	NA	0	1	3.25184988976	None	None	None	None	1
3.0.1	2019_Mar_07_1015	s	s	13	2	SIC	13	2_1	2	1	1	4	23_1_4	-1	3	1	0	0.58040189743	182.0	-398.0	188.0	-390.0	1
3.0.1	2019_Mar_07_1015	s	s	13	2	SIC	14	ABS	0	0	4	4	24_4_4	NA	NA	0	1	1.11660289764	None	None	None	None	1
3.0.1	2019_Mar_07_1015	s	s	13	2	SIC	15	ABS	0	0	3	4	24_3_4	NA	NA	0	1	1.19410610199	None	None	None	None	1
3.0.1	2019_Mar_07_1015	s	s	13	2	SIC	16	ABS	0	0	1	1	24_1_1	NA	NA	0	1	1.39891386032	None	None	None	None	1
3.0.1	2019_Mar_07_1015	s	s	13	2	SIC	17	4_4	4	4	2	3	23_2_3	2	1	1	0	0.613830804825	349.0	294.0	347.0	291.0	1
3.0.1	2019_Mar_07_1015	s	s	13	2	SIC	18	3_3	3	3	3	1	23_3_1	0	2	1	0	1.11663794518	346.0	-36.0	353.0	-33.0	1
3.0.1	2019_Mar_07_1015	s	s	13	2	SIC	19	2_3	2	3	1	4	23_1_4	-1	-1	1	0	0.893191099167	433.0	247.0	435.0	243.0	1
3.0.1	2019_Mar_07_1015	s	s	13	2	SIC	20	4_4	4	4	3	3	23_3_3	1	1	1	0	0.510895013809	-176.0	-141.0	-166.0	-140.0	1
3.0.1	2019_Mar_07_1015	s	s	13	2	SIC	21	3_2	3	2	2	4	23_2_4	1	2	1	0	0.556934833527	-530.0	-321.0	-534.0	-328.0	1
3.0.1	2019_Mar_07_1015	s	s	13	2	SIC	22	ABS	0	0	1	2	24_1_2	NA	NA	0	1	3.45706701279	None	None	None	None	1
3.0.1	2019_Mar_07_1015	s	s	13	2	SIC	23	ABS	0	0	3	4	24_3_4	NA	NA	0	1	1.40570497513	None	None	None	None	1
3.0.1	2019_Mar_07_1015	s	s	13	2	SIC	24	1_4	1	4	3	1	23_3_1	2	3	1	0	0.501257896423	-113.0	-134.0	-101.0	-130.0	1
3.0.1	2019_Mar_07_1015	s	s	13	2	SIC	25	ABS	0	0	2	1	24_2_1	NA	NA	0	1	1.42244696617	None	None	None	None	1
3.0.1	2019_Mar_07_1015	s	s	13	2	SIC	26	4_1	4	1	3	4	23_3_4	1	3	1	0	0.458010911942	-351.0	-360.0	-347.0	-362.0	1
3.0.1	2019_Mar_07_1015	s	s	13	2	SIC	27	1_3	1	3	1	4	23_1_4	0	-1	1	0	0.469735860825	-25.0	-193.0	-26.0	-192.0	1
3.0.1	2019_Mar_07_1015	s	s	13	2	SIC	28	ABS	0	0	3	4	24_3_4	NA	NA	0	1	1.43705391884	None	None	None	None	1
3.0.1	2019_Mar_07_1015	s	s	13	2	SIC	29	ABS	0	0	3	1	24_3_1	NA	NA	0	1	1.31946492195	None	None	None	None	1
3.0.1	2019_Mar_07_1015	s	s	13	2	SIC	30	3_1	3	1	1	2	23_1_2	2	1	1	0	0.473985910416	132.0	-164.0	135.0	-156.0	1
3.0.1	2019_Mar_07_1015	s	s	13	2	SIC	31	ABS	0	0	1	2	24_1_2	NA	NA	0	1	3.10458898544	None	None	None	None	1
3.0.1	2019_Mar_07_1015	s	s	13	2	SIC	32	1_1	1	1	2	1	23_2_1	1	0	1	0	1.65795993805	-432.0	255.0	-427.0	252.0	1
3.0.1	2019_Mar_07_1015	s	s	13	2	SIC	33	ABS	0	0	4	3	24_4_3	NA	NA	0	1	3.74401593208	None	None	None	None	1
3.0.1	2019_Mar_07_1015	s	s	13	2	SIC	34	ABS	0	0	1	3	24_1_3	NA	NA	0	1	2.76319789886	None	None	None	None	1
3.0.1	2019_Mar_07_1015	s	s	13	2	SIC	35	3_4	3	4	4	3	23_4_3	-1	1	1	0	0.528610944748	328.0	-311.0	335.0	-305.0	1
3.0.1	2019_Mar_07_1015	s	s	13	2	SIC	36	ABS	0	0	4	1	24_4_1	NA	NA	0	1	1.33366894722	None	None	None	None	1
3.0.1	2019_Mar_07_1015	s	s	13	2	SIC	37	ABS	0	0	1	4	24_1_4	NA	NA	0	1	1.8487739563	None	None	None	None	1
3.0.1	2019_Mar_07_1015	s	s	13	2	SIC	38	ABS	0	0	2	1	24_2_1	NA	NA	0	1	1.85430598259	None	None	None	None	1
3.0.1	2019_Mar_07_1015	s	s	13	2	SIC	39	ABS	0	0	3	3	24_3_3	NA	NA	0	1	2.49561882019	None	None	None	None	1
3.0.1	2019_Mar_07_1015	s	s	13	2	SIC	40	ABS	0	0	4	3	24_4_3	NA	NA	0	1	4.1745300293	None	None	None	None	1
3.0.1	2019_Mar_07_1015	s	s	13	2	SIC	41	ABS	0	0	4	1	24_4_1	NA	NA	0	1	1.9636080265	None	None	None	None	1
3.0.1	2019_Mar_07_1015	s	s	13	2	SIC	42	ABS	0	0	4	4	24_4_4	NA	NA	0	1	1.66278195381	None	None	None	None	1
3.0.1	2019_Mar_07_1015	s	s	13	2	SIC	43	ABS	0	0	4	2	24_4_2	NA	NA	0	1	2.96373605728	None	None	None	None	1
3.0.1	2019_Mar_07_1015	s	s	13	2	SIC	44	ABS	0	0	4	4	24_4_4	NA	NA	0	1	1.48131799698	None	None	None	None	1
3.0.1	2019_Mar_07_1015	s	s	13	2	SIC	45	ABS	0	0	3	3	24_3_3	NA	NA	0	1	2.88469195366	None	None	None	None	1
3.0.1	2019_Mar_07_1015	s	s	13	2	SIC	46	ABS	0	0	1	2	24_1_2	NA	NA	0	1	3.44993305206	None	None	None	None	1
3.0.1	2019_Mar_07_1015	s	s	13	2	SIC	47	ABS	0	0	3	3	24_3_3	NA	NA	0	1	2.83933997154	None	None	None	None	1
3.0.1	2019_Mar_07_1015	s	s	13	2	SIC	48	ABS	0	0	3	4	24_3_4	NA	NA	0	1	0.0111529827118	None	None	None	None	1
3.0.1	2019_Mar_07_1015	s	s	13	2	SIC	49	1_2	1	2	3	2	23_3_2	2	0	1	0	0.705024003983	144.0	54.0	143.0	53.0	1
3.0.1	2019_Mar_07_1015	s	s	13	2	SIC	50	4_4	4	4	3	2	23_3_2	1	2	1	0	0.463376045227	-36.0	19.0	-34.0	21.0	1
3.0.1	2019_Mar_07_1015	s	s	13	2	SIC	51	ABS	0	0	3	4	24_3_4	NA	NA	0	1	1.32624292374	None	None	None	None	1
3.0.1	2019_Mar_07_1015	s	s	13	2	SIC	52	ABS	0	0	4	1	24_4_1	NA	NA	0	1	2.63868403435	None	None	None	None	1
3.0.1	2019_Mar_07_1015	s	s	13	2	SIC	53	ABS	0	0	2	2	24_2_2	NA	NA	0	1	3.00310206413	None	None	None	None	1
3.0.1	2019_Mar_07_1015	s	s	13	2	SIC	54	ABS	0	0	3	1	24_3_1	NA	NA	0	1	1.39891386032	None	None	None	None	1
3.0.1	2019_Mar_07_1015	s	s	13	2	SIC	55	ABS	0	0	2	3	24_2_3	NA	NA	0	1	3.26257205009	None	None	None	None	1
3.0.1	2019_Mar_07_1015	s	s	13	2	SIC	56	2_1	2	1	3	4	23_3_4	1	3	1	0	0.672642946243	178.0	-258.0	183.0	-257.0	1
3.0.1	2019_Mar_07_1015	s	s	13	2	SIC	57	2_1	2	1	4	1	23_4_1	2	0	1	0	0.474819898605	-158.0	-356.0	-151.0	-358.0	1
3.0.1	2019_Mar_07_1015	s	s	13	2	SIC	58	3_2	3	2	4	4	23_4_4	-1	2	1	0	0.752137899399	-447.0	371.0	-448.0	376.0	1
3.0.1	2019_Mar_07_1015	s	s	13	2	SIC	59	ABS	0	0	1	4	24_1_4	NA	NA	0	1	1.31656193733	None	None	None	None	1
3.0.1	2019_Mar_07_1015	s	s	13	2	SIC	60	2_3	2	3	3	4	23_3_4	1	-1	1	0	0.438415050507	-513.0	-380.0	-505.0	-374.0	1
3.0.1	2019_Mar_07_1015	s	s	13	2	SIC	61	ABS	0	0	4	2	24_4_2	NA	NA	0	1	2.87520694733	None	None	None	None	1
3.0.1	2019_Mar_07_1015	s	s	13	2	SIC	62	4_2	4	2	2	2	23_2_2	2	0	1	0	0.427904129028	138.0	182.0	134.0	173.0	1
3.0.1	2019_Mar_07_1015	s	s	13	2	SIC	63	3_1	3	1	1	4	23_1_4	2	3	1	0	0.457990169525	284.0	55.0	292.0	55.0	1
3.0.1	2019_Mar_07_1015	s	s	13	2	SIC	64	ABS	0	0	4	1	24_4_1	NA	NA	0	1	1.47460103035	None	None	None	None	1
3.0.1	2019_Mar_07_1015	s	s	13	2	SIC	65	ABS	0	0	1	1	24_1_1	NA	NA	0	1	1.66941595078	None	None	None	None	1
3.0.1	2019_Mar_07_1015	s	s	13	2	SIC	66	ABS	0	0	4	4	24_4_4	NA	NA	0	1	1.64013004303	None	None	None	None	1
3.0.1	2019_Mar_07_1015	s	s	13	2	SIC	67	3_1	3	1	2	4	23_2_4	1	3	1	0	0.516782999039	-476.0	-299.0	-476.0	-296.0	1
3.0.1	2019_Mar_07_1015	s	s	13	2	SIC	68	ABS	0	0	3	4	24_3_4	NA	NA	0	1	1.43704485893	None	None	None	None	1
3.0.1	2019_Mar_07_1015	s	s	13	2	SIC	69	4_4	4	4	1	2	23_1_2	3	2	1	0	0.555052995682	281.0	-135.0	283.0	-127.0	1
3.0.1	2019_Mar_07_1015	s	s	13	2	SIC	70	ABS	0	0	1	1	24_1_1	NA	NA	0	1	1.69290494919	None	None	None	None	1
3.0.1	2019_Mar_07_1015	s	s	13	2	SIC	71	3_3	3	3	4	2	23_4_2	-1	1	1	0	0.587386131287	-366.0	400.0	-364.0	403.0	1
3.0.1	2019_Mar_07_1015	s	s	13	2	SIC	72	3_4	3	4	3	2	23_3_2	0	2	1	0	0.740339994431	440.0	101.0	448.0	105.0	1
3.0.1	2019_Mar_07_1015	s	s	13	2	SIC	73	ABS	0	0	1	4	24_1_4	NA	NA	0	1	1.26690602303	None	None	None	None	1
3.0.1	2019_Mar_07_1015	s	s	13	2	SIC	74	1_2	1	2	4	2	23_4_2	3	0	1	0	0.602018117905	321.0	-74.0	320.0	-72.0	1
3.0.1	2019_Mar_07_1015	s	s	13	2	SIC	75	ABS	0	0	4	1	24_4_1	NA	NA	0	1	1.17541503906	None	None	None	None	1
3.0.1	2019_Mar_07_1015	s	s	13	2	SIC	76	2_4	2	4	4	2	23_4_2	2	2	1	0	0.487401008606	-508.0	366.0	-509.0	357.0	1
3.0.1	2019_Mar_07_1015	s	s	13	2	SIC	77	ABS	0	0	1	2	24_1_2	NA	NA	0	1	2.93956398964	None	None	None	None	1
3.0.1	2019_Mar_07_1015	s	s	13	2	SIC	78	1_3	1	3	2	2	23_2_2	1	1	1	0	1.25114989281	479.0	196.0	483.0	190.0	1
3.0.1	2019_Mar_07_1015	s	s	13	2	SIC	79	ABS	0	0	2	3	24_2_3	NA	NA	0	1	3.36303591728	None	None	None	None	1
3.0.1	2019_Mar_07_1015	s	s	13	2	SIC	80	ABS	0	0	3	3	24_3_3	NA	NA	0	1	2.84557199478	None	None	None	None	1
3.0.1	2019_Mar_07_1015	s	s	13	2	SIC	81	4_2	4	2	2	1	23_2_1	2	-1	1	0	0.723304986954	-388.0	-246.0	-388.0	-247.0	1
3.0.1	2019_Mar_07_1015	s	s	13	2	SIC	82	ABS	0	0	3	4	24_3_4	NA	NA	0	1	3.70812702179	None	None	None	None	1
3.0.1	2019_Mar_07_1015	s	s	13	2	SIC	83	1_1	1	1	3	4	23_3_4	2	3	1	0	0.582335948944	-85.0	-234.0	-80.0	-231.0	1
3.0.1	2019_Mar_07_1015	s	s	13	2	SIC	84	ABS	0	0	3	2	24_3_2	NA	NA	0	1	2.97256803513	None	None	None	None	1
3.0.1	2019_Mar_07_1015	s	s	13	2	SIC	85	ABS	0	0	1	4	24_1_4	NA	NA	0	1	1.17540097237	None	None	None	None	1
3.0.1	2019_Mar_07_1015	s	s	13	2	SIC	86	ABS	0	0	1	1	24_1_1	NA	NA	0	1	1.59239411354	None	None	None	None	1
3.0.1	2019_Mar_07_1015	s	s	13	2	SIC	87	1_1	1	1	1	2	23_1_2	0	1	1	0	3.07384681702	-381.0	129.0	-373.0	132.0	1
3.0.1	2019_Mar_07_1015	s	s	13	2	SIC	88	ABS	0	0	4	2	24_4_2	NA	NA	0	1	0.993447065353	None	None	None	None	1
3.0.1	2019_Mar_07_1015	s	s	13	2	SIC	89	1_4	1	4	4	4	23_4_4	3	0	1	0	0.502865791321	318.0	138.0	320.0	144.0	1
3.0.1	2019_Mar_07_1015	s	s	13	2	SIC	90	ABS	0	0	1	4	24_1_4	NA	NA	0	1	1.57931804657	None	None	None	None	1
3.0.1	2019_Mar_07_1015	s	s	13	2	SIC	91	ABS	0	0	1	2	24_1_2	NA	NA	0	1	3.26007819176	None	None	None	None	1
3.0.1	2019_Mar_07_1015	s	s	13	2	SIC	92	ABS	0	0	2	3	24_2_3	NA	NA	0	1	1.98059105873	None	None	None	None	1
3.0.1	2019_Mar_07_1015	s	s	13	2	SIC	93	2_3	2	3	2	4	23_2_4	0	-1	1	0	2.26675796509	502.0	-251.0	500.0	-255.0	1
3.0.1	2019_Mar_07_1015	s	s	13	2	SIC	94	2_2	2	2	3	4	23_3_4	1	2	1	0	0.85552406311	368.0	-100.0	369.0	-102.0	1
3.0.1	2019_Mar_07_1015	s	s	13	2	SIC	95	4_4	4	4	2	2	23_2_2	2	2	1	0	0.540459156036	60.0	358.0	59.0	359.0	1
3.0.1	2019_Mar_07_1015	s	s	13	2	SIC	96	2_4	2	4	1	4	23_1_4	-1	0	0	1	1.64580988884	-230.0	20.0	None	None	0
3.0.1	2019_Mar_07_1015	s	s	13	2	SIC	97	ABS	0	0	3	2	24_3_2	NA	NA	0	1	2.93959999084	None	None	None	None	1
3.0.1	2019_Mar_07_1015	s	s	13	2	SIC	98	2_4	2	4	2	1	23_2_1	0	3	1	0	0.693248987198	106.0	-75.0	108.0	-70.0	1
3.0.1	2019_Mar_07_1015	s	s	13	2	SIC	99	ABS	0	0	4	3	24_4_3	NA	NA	0	1	2.29272508621	None	None	None	None	1
3.0.1	2019_Mar_07_1015	s	s	13	2	SIC	100	ABS	0	0	1	2	24_1_2	NA	NA	0	1	3.08363413811	None	None	None	None	1
3.0.1	2019_Mar_07_1015	s	s	13	2	SIC	101	3_3	3	3	4	3	23_4_3	-1	0	1	0	0.561362981796	228.0	-169.0	227.0	-164.0	1
3.0.1	2019_Mar_07_1015	s	s	13	2	SIC	102	ABS	0	0	2	3	24_2_3	NA	NA	0	1	2.50450205803	None	None	None	None	1
3.0.1	2019_Mar_07_1015	s	s	13	2	SIC	103	ABS	0	0	3	1	24_3_1	NA	NA	0	1	0.907876968384	None	None	None	None	1
3.0.1	2019_Mar_07_1015	s	s	13	2	SIC	104	4_2	4	2	1	3	23_1_3	3	1	1	0	0.554951190948	170.0	-330.0	174.0	-324.0	1
3.0.1	2019_Mar_07_1015	s	s	13	2	SIC	105	ABS	0	0	2	3	24_2_3	NA	NA	0	1	2.88562107086	None	None	None	None	1
3.0.1	2019_Mar_07_1015	s	s	13	2	SIC	106	2_1	2	1	3	2	23_3_2	1	1	1	0	0.672679185867	144.0	-255.0	153.0	-248.0	1
3.0.1	2019_Mar_07_1015	s	s	13	2	SIC	107	4_1	4	1	2	4	23_2_4	2	3	1	0	0.46338391304	-341.0	36.0	-334.0	32.0	1
3.0.1	2019_Mar_07_1015	s	s	13	2	SIC	108	3_3	3	3	2	2	23_2_2	1	1	1	0	0.56050992012	245.0	-164.0	238.0	-163.0	1
3.0.1	2019_Mar_07_1015	s	s	13	2	SIC	109	ABS	0	0	4	4	24_4_4	NA	NA	0	1	1.06959104538	None	None	None	None	1
3.0.1	2019_Mar_07_1015	s	s	13	2	SIC	110	2_3	2	3	4	3	23_4_3	2	0	1	0	0.473896980286	259.0	-53.0	267.0	-50.0	1
3.0.1	2019_Mar_07_1015	s	s	13	2	SIC	111	4_3	4	3	4	1	23_4_1	0	2	1	0	1.48123884201	367.0	388.0	371.0	388.0	1
3.0.1	2019_Mar_07_1015	s	s	13	2	SIC	112	ABS	0	0	2	4	24_2_4	NA	NA	0	1	1.26083016396	None	None	None	None	1
3.0.1	2019_Mar_07_1015	s	s	13	2	SIC	113	3_4	3	4	4	2	23_4_2	-1	2	1	0	0.469732999802	15.0	102.0	14.0	104.0	1
3.0.1	2019_Mar_07_1015	s	s	13	2	SIC	114	ABS	0	0	1	1	24_1_1	NA	NA	0	1	1.15192198753	None	None	None	None	1
3.0.1	2019_Mar_07_1015	s	s	13	2	SIC	115	1_3	1	3	4	2	23_4_2	3	1	1	0	0.528622865677	-77.0	176.0	-75.0	177.0	1
3.0.1	2019_Mar_07_1015	s	s	13	2	SIC	116	ABS	0	0	3	1	24_3_1	NA	NA	0	1	1.41969299316	None	None	None	None	1
3.0.1	2019_Mar_07_1015	s	s	13	2	SIC	117	ABS	0	0	2	4	24_2_4	NA	NA	0	1	1.5817630291	None	None	None	None	1
3.0.1	2019_Mar_07_1015	s	s	13	2	SIC	118	3_2	3	2	3	4	23_3_4	0	2	1	0	0.697062015533	291.0	161.0	290.0	159.0	1
3.0.1	2019_Mar_07_1015	s	s	13	2	SIC	119	ABS	0	0	1	2	24_1_2	NA	NA	0	1	2.44578719139	None	None	None	None	1
3.0.1	2019_Mar_07_1015	s	s	13	2	SIC	120	ABS	0	0	4	2	24_4_2	NA	NA	0	1	1.89876103401	None	None	None	None	1
3.0.1	2019_Mar_07_1015	s	s	13	2	SIC	121	ABS	0	0	1	1	24_1_1	NA	NA	0	1	1.72487783432	None	None	None	None	1
3.0.1	2019_Mar_07_1015	s	s	13	2	SIC	122	ABS	0	0	3	1	24_3_1	NA	NA	0	1	1.41058707237	None	None	None	None	1
3.0.1	2019_Mar_07_1015	s	s	13	2	SIC	123	3_3	3	3	1	2	23_1_2	2	1	1	0	0.599565029144	-64.0	-236.0	-58.0	-239.0	1
3.0.1	2019_Mar_07_1015	s	s	13	2	SIC	124	3_2	3	2	3	1	23_3_1	0	-1	0	1	1.20186305046	-241.0	-231.0	None	None	0
3.0.1	2019_Mar_07_1015	s	s	13	2	SIC	125	1_3	1	3	3	2	23_3_2	2	1	1	0	0.604782819748	-210.0	-292.0	-211.0	-293.0	1
3.0.1	2019_Mar_07_1015	s	s	13	2	SIC	126	ABS	0	0	2	1	24_2_1	NA	NA	0	1	1.98162412643	None	None	None	None	1
3.0.1	2019_Mar_07_1015	s	s	13	2	SIC	127	ABS	0	0	2	4	24_2_4	NA	NA	0	1	2.63785219193	None	None	None	None	1
3.0.1	2019_Mar_07_1015	s	s	13	2	SIC	128	2_4	2	4	4	3	23_4_3	2	1	1	0	0.540337085724	-222.0	156.0	-229.0	164.0	1
3.0.1	2019_Mar_07_1015	s	s	13	2	SIC	129	2_3	2	3	3	3	23_3_3	1	0	1	0	0.604233026505	-185.0	-106.0	-187.0	-104.0	1
3.0.1	2019_Mar_07_1015	s	s	13	2	SIC	130	1_2	1	2	2	2	23_2_2	1	0	0	1	3.67272210121	258.0	81.0	None	None	0
3.0.1	2019_Mar_07_1015	s	s	13	2	SIC	131	1_2	1	2	4	1	23_4_1	3	-1	1	0	0.496189117432	120.0	219.0	119.0	225.0	1
3.0.1	2019_Mar_07_1015	s	s	13	2	SIC	132	3_4	3	4	2	2	23_2_2	1	2	1	0	0.5992000103	-330.0	-97.0	-330.0	-98.0	1
3.0.1	2019_Mar_07_1015	s	s	13	2	SIC	133	1_2	1	2	4	3	23_4_3	3	1	1	0	0.470145940781	35.0	-375.0	32.0	-380.0	1
3.0.1	2019_Mar_07_1015	s	s	13	2	SIC	134	ABS	0	0	4	2	24_4_2	NA	NA	0	1	2.58160209656	None	None	None	None	1
3.0.1	2019_Mar_07_1015	s	s	13	2	SIC	135	4_4	4	4	2	1	23_2_1	2	3	1	0	0.599157094955	-448.0	140.0	-441.0	142.0	1
3.0.1	2019_Mar_07_1015	s	s	13	2	SIC	136	4_2	4	2	3	3	23_3_3	1	1	1	0	0.501329898834	433.0	223.0	438.0	222.0	1
3.0.1	2019_Mar_07_1015	s	s	13	2	SIC	137	1_4	1	4	1	2	23_1_2	0	2	1	0	0.568698167801	-509.0	145.0	-510.0	150.0	1
3.0.1	2019_Mar_07_1015	s	s	13	2	SIC	138	ABS	0	0	3	2	24_3_2	NA	NA	0	1	3.08543801308	None	None	None	None	1
3.0.1	2019_Mar_07_1015	s	s	13	2	SIC	139	ABS	0	0	4	1	24_4_1	NA	NA	0	1	2.47413110733	None	None	None	None	1
3.0.1	2019_Mar_07_1015	s	s	13	2	SIC	140	2_4	2	4	4	4	23_4_4	2	0	1	0	0.434524059296	458.0	61.0	465.0	66.0	1
3.0.1	2019_Mar_07_1015	s	s	13	2	SIC	141	ABS	0	0	4	3	24_4_3	NA	NA	0	1	1.08991599083	None	None	None	None	1
3.0.1	2019_Mar_07_1015	s	s	13	2	SIC	142	4_1	4	1	1	3	23_1_3	3	2	1	0	0.496150016785	358.0	-18.0	356.0	-21.0	1
3.0.1	2019_Mar_07_1015	s	s	13	2	SIC	143	2_1	2	1	2	4	23_2_4	0	3	1	0	0.775572061539	-527.0	-134.0	-523.0	-134.0	1
3.0.1	2019_Mar_07_1015	s	s	13	2	SIC	144	3_3	3	3	1	4	23_1_4	2	-1	1	0	0.510432958603	-51.0	-98.0	-55.0	-103.0	1
3.0.1	2019_Mar_07_1015	s	s	13	2	SIC	145	3_4	3	4	2	4	23_2_4	1	0	1	0	1.81048703194	-459.0	261.0	-455.0	253.0	1
3.0.1	2019_Mar_07_1015	s	s	13	2	SIC	146	ABS	0	0	1	3	24_1_3	NA	NA	0	1	2.02524709702	None	None	None	None	1
3.0.1	2019_Mar_07_1015	s	s	13	2	SIC	147	ABS	0	0	4	1	24_4_1	NA	NA	0	1	1.16367816925	None	None	None	None	1
3.0.1	2019_Mar_07_1015	s	s	13	2	SIC	148	ABS	0	0	2	4	24_2_4	NA	NA	0	1	1.95166182518	None	None	None	None	1
3.0.1	2019_Mar_07_1015	s	s	13	2	SIC	149	ABS	0	0	4	1	24_4_1	NA	NA	0	1	0.799176931381	None	None	None	None	1
3.0.1	2019_Mar_07_1015	s	s	13	2	SIC	150	ABS	0	0	3	2	24_3_2	NA	NA	0	1	1.40187311172	None	None	None	None	1
3.0.1	2019_Mar_07_1015	s	s	13	2	SIC	151	ABS	0	0	3	2	24_3_2	NA	NA	0	1	0.86639380455	None	None	None	None	1
3.0.1	2019_Mar_07_1015	s	s	13	2	SIC	152	2_4	2	4	4	1	23_4_1	2	3	1	0	0.511207103729	-339.0	-278.0	-334.0	-277.0	1
3.0.1	2019_Mar_07_1015	s	s	13	2	SIC	153	ABS	0	0	2	1	24_2_1	NA	NA	0	1	1.15199995041	None	None	None	None	1
3.0.1	2019_Mar_07_1015	s	s	13	2	SIC	154	2_2	2	2	1	2	23_1_2	-1	0	1	0	1.48782682419	-201.0	-55.0	-199.0	-50.0	1
3.0.1	2019_Mar_07_1015	s	s	13	2	SIC	155	4_3	4	3	4	2	23_4_2	0	1	0	1	1.05182600021	-376.0	215.0	None	None	0
3.0.1	2019_Mar_07_1015	s	s	13	2	SIC	156	ABS	0	0	2	4	24_2_4	NA	NA	0	1	0.98725605011	None	None	None	None	1
3.0.1	2019_Mar_07_1015	s	s	13	2	SIC	157	ABS	0	0	2	1	24_2_1	NA	NA	0	1	1.52837300301	None	None	None	None	1
3.0.1	2019_Mar_07_1015	s	s	13	2	SIC	158	2_2	2	2	4	2	23_4_2	2	0	1	0	0.481611013412	298.0	-149.0	300.0	-150.0	1
3.0.1	2019_Mar_07_1015	s	s	13	2	SIC	159	4_3	4	3	2	1	23_2_1	2	2	1	0	0.481547117233	-185.0	80.0	-193.0	77.0	1
3.0.1	2019_Mar_07_1015	s	s	13	2	SIC	160	ABS	0	0	1	1	24_1_1	NA	NA	0	1	1.77008605003	None	None	None	None	1
3.0.1	2019_Mar_07_1015	s	s	13	2	SIC	161	ABS	0	0	2	1	24_2_1	NA	NA	0	1	1.05074501038	None	None	None	None	1
3.0.1	2019_Mar_07_1015	s	s	13	2	SIC	162	ABS	0	0	3	2	24_3_2	NA	NA	0	1	2.97819590569	None	None	None	None	1
3.0.1	2019_Mar_07_1015	s	s	13	2	SIC	163	ABS	0	0	2	4	24_2_4	NA	NA	0	1	1.54004693031	None	None	None	None	1
3.0.1	2019_Mar_07_1015	s	s	13	2	SIC	164	2_3	2	3	3	2	23_3_2	1	1	1	0	1.05782794952	90.0	252.0	99.0	257.0	1
3.0.1	2019_Mar_07_1015	s	s	13	2	SIC	165	2_2	2	2	2	4	23_2_4	0	2	1	0	0.907835006714	36.0	342.0	32.0	340.0	1
3.0.1	2019_Mar_07_1015	s	s	13	2	SIC	166	ABS	0	0	1	3	24_1_3	NA	NA	0	1	3.37766885757	None	None	None	None	1
3.0.1	2019_Mar_07_1015	s	s	13	2	SIC	167	1_3	1	3	2	1	23_2_1	1	2	1	0	1.36850094795	285.0	-126.0	294.0	-130.0	1
3.0.1	2019_Mar_07_1015	s	s	13	2	SIC	168	ABS	0	0	2	3	24_2_3	NA	NA	0	1	2.92801499367	None	None	None	None	1
3.0.1	2019_Mar_07_1015	s	s	13	2	SIC	169	ABS	0	0	1	3	24_1_3	NA	NA	0	1	5.11581087112	None	None	None	None	1
3.0.1	2019_Mar_07_1015	s	s	13	2	SIC	170	ABS	0	0	3	4	24_3_4	NA	NA	0	1	1.45798802376	None	None	None	None	1
3.0.1	2019_Mar_07_1015	s	s	13	2	SIC	171	ABS	0	0	2	2	24_2_2	NA	NA	0	1	5.12723302841	None	None	None	None	1
3.0.1	2019_Mar_07_1015	s	s	13	2	SIC	172	1_4	1	4	3	2	23_3_2	2	2	1	0	0.790217876434	-401.0	-330.0	-402.0	-331.0	1
3.0.1	2019_Mar_07_1015	s	s	13	2	SIC	173	ABS	0	0	2	2	24_2_2	NA	NA	0	1	6.40274596214	None	None	None	None	1
3.0.1	2019_Mar_07_1015	s	s	13	2	SIC	174	ABS	0	0	2	1	24_2_1	NA	NA	0	1	1.92813205719	None	None	None	None	1
3.0.1	2019_Mar_07_1015	s	s	13	2	SIC	175	1_2	1	2	4	4	23_4_4	3	2	1	0	0.528547048569	-347.0	210.0	-339.0	209.0	1
3.0.1	2019_Mar_07_1015	s	s	13	2	SIC	176	ABS	0	0	3	3	24_3_3	NA	NA	0	1	2.90755009651	None	None	None	None	1
3.0.1	2019_Mar_07_1015	s	s	13	2	SIC	177	1_1	1	1	4	3	23_4_3	3	2	1	0	0.42280292511	180.0	-216.0	188.0	-212.0	1
3.0.1	2019_Mar_07_1015	s	s	13	2	SIC	178	ABS	0	0	1	2	24_1_2	NA	NA	0	1	3.04812002182	None	None	None	None	1
3.0.1	2019_Mar_07_1015	s	s	13	2	SIC	179	ABS	0	0	4	3	24_4_3	NA	NA	0	1	2.22214794159	None	None	None	None	1
3.0.1	2019_Mar_07_1015	s	s	13	2	SIC	180	1_1	1	1	1	4	23_1_4	0	3	1	0	0.63436293602	-454.0	96.0	-452.0	99.0	1
3.0.1	2019_Mar_07_1015	s	s	13	2	SIC	181	ABS	0	0	3	1	24_3_1	NA	NA	0	1	1.497838974	None	None	None	None	1
3.0.1	2019_Mar_07_1015	s	s	13	2	SIC	182	3_4	3	4	3	3	23_3_3	0	1	1	0	0.857943058014	-512.0	-70.0	-511.0	-65.0	1
3.0.1	2019_Mar_07_1015	s	s	13	2	SIC	183	ABS	0	0	3	4	24_3_4	NA	NA	0	1	1.63419890404	None	None	None	None	1
3.0.1	2019_Mar_07_1015	s	s	13	2	SIC	184	4_2	4	2	3	1	23_3_1	1	-1	1	0	0.510049819946	-91.0	61.0	-95.0	62.0	1
3.0.1	2019_Mar_07_1015	s	s	13	2	SIC	185	ABS	0	0	2	3	24_2_3	NA	NA	0	1	3.52759504318	None	None	None	None	1
3.0.1	2019_Mar_07_1015	s	s	13	2	SIC	186	ABS	0	0	4	2	24_4_2	NA	NA	0	1	1.90751791	None	None	None	None	1
3.0.1	2019_Mar_07_1015	s	s	13	2	SIC	187	3_4	3	4	2	1	23_2_1	1	3	1	0	0.533720016479	206.0	-226.0	200.0	-221.0	1
3.0.1	2019_Mar_07_1015	s	s	13	2	SIC	188	ABS	0	0	4	4	24_4_4	NA	NA	0	1	1.62909817696	None	None	None	None	1
3.0.1	2019_Mar_07_1015	s	s	13	2	SIC	189	4_2	4	2	2	4	23_2_4	2	2	1	0	0.681041955948	355.0	288.0	362.0	287.0	1
3.0.1	2019_Mar_07_1015	s	s	13	2	SIC	190	2_1	2	1	3	3	23_3_3	1	2	1	0	0.693158149719	-13.0	-197.0	-16.0	-197.0	1
3.0.1	2019_Mar_07_1015	s	s	13	2	SIC	191	2_2	2	2	2	3	23_2_3	0	1	0	1	2.66258502007	427.0	406.0	None	None	0
3.0.1	2019_Mar_07_1015	s	s	13	2	SIC	192	3_3	3	3	1	1	23_1_1	2	2	1	0	0.599065065384	310.0	-193.0	310.0	-189.0	1
3.0.1	2019_Mar_07_1015	s	s	13	2	SIC	193	1_4	1	4	4	3	23_4_3	3	1	1	0	0.559298992157	-369.0	55.0	-370.0	56.0	1
3.0.1	2019_Mar_07_1015	s	s	13	2	SIC	194	ABS	0	0	1	2	24_1_2	NA	NA	0	1	3.24543809891	None	None	None	None	1
3.0.1	2019_Mar_07_1015	s	s	13	2	SIC	195	ABS	0	0	4	4	24_4_4	NA	NA	0	1	1.3559448719	None	None	None	None	1
3.0.1	2019_Mar_07_1015	s	s	13	2	SIC	196	1_4	1	4	1	1	23_1_1	0	3	1	0	1.32868099213	256.0	-372.0	258.0	-369.0	1
3.0.1	2019_Mar_07_1015	s	s	13	2	SIC	197	2_3	2	3	1	2	23_1_2	-1	1	1	0	1.75173997879	-35.0	-188.0	-36.0	-187.0	1
3.0.1	2019_Mar_07_1015	s	s	13	2	SIC	198	2_3	2	3	1	3	23_1_3	-1	0	0	1	4.6331820488	108.0	-324.0	None	None	0
3.0.1	2019_Mar_07_1015	s	s	13	2	SIC	199	2_1	2	1	4	4	23_4_4	2	3	1	0	0.602053165436	-372.0	129.0	-370.0	125.0	1
3.0.1	2019_Mar_07_1015	s	s	13	2	SIC	200	ABS	0	0	4	1	24_4_1	NA	NA	0	1	1.83405685425	None	None	None	None	1
3.0.1	2019_Mar_07_1015	s	s	13	2	SIC	201	ABS	0	0	2	2	24_2_2	NA	NA	0	1	1.64584803581	None	None	None	None	1
3.0.1	2019_Mar_07_1015	s	s	13	2	SIC	202	ABS	0	0	2	2	24_2_2	NA	NA	0	1	3.88349699974	None	None	None	None	1
3.0.1	2019_Mar_07_1015	s	s	13	2	SIC	203	2_3	2	3	2	2	23_2_2	0	1	1	0	1.47367596626	-25.0	-160.0	-27.0	-162.0	1
3.0.1	2019_Mar_07_1015	s	s	13	2	SIC	204	1_2	1	2	1	3	23_1_3	0	1	1	0	0.604420185089	-110.0	13.0	-107.0	16.0	1
3.0.1	2019_Mar_07_1015	s	s	13	2	SIC	205	ABS	0	0	3	2	24_3_2	NA	NA	0	1	2.82662701607	None	None	None	None	1
3.0.1	2019_Mar_07_1015	s	s	13	2	SIC	206	2_2	2	2	3	1	23_3_1	1	-1	1	0	1.10495996475	-495.0	-213.0	-501.0	-212.0	1
3.0.1	2019_Mar_07_1015	s	s	13	2	SIC	207	ABS	0	0	4	2	24_4_2	NA	NA	0	1	2.6723151207	None	None	None	None	1
3.0.1	2019_Mar_07_1015	s	s	13	2	SIC	208	1_3	1	3	4	1	23_4_1	3	2	1	0	0.543259859085	-397.0	294.0	-393.0	294.0	1
3.0.1	2019_Mar_07_1015	s	s	13	2	SIC	209	2_3	2	3	4	1	23_4_1	2	2	1	0	0.511291027069	-136.0	164.0	-136.0	161.0	1
3.0.1	2019_Mar_07_1015	s	s	13	2	SIC	210	ABS	0	0	1	2	24_1_2	NA	NA	0	1	3.62174487114	None	None	None	None	1
3.0.1	2019_Mar_07_1015	s	s	13	2	SIC	211	ABS	0	0	3	3	24_3_3	NA	NA	0	1	3.25720000267	None	None	None	None	1
3.0.1	2019_Mar_07_1015	s	s	13	2	SIC	212	ABS	0	0	1	1	24_1_1	NA	NA	0	1	1.78703999519	None	None	None	None	1
3.0.1	2019_Mar_07_1015	s	s	13	2	SIC	213	4_3	4	3	3	4	23_3_4	1	-1	1	0	0.599129199982	-373.0	310.0	-379.0	307.0	1
3.0.1	2019_Mar_07_1015	s	s	13	2	SIC	214	ABS	0	0	4	4	24_4_4	NA	NA	0	1	1.44600892067	None	None	None	None	1
3.0.1	2019_Mar_07_1015	s	s	13	2	SIC	215	4_1	4	1	1	4	23_1_4	3	3	1	0	0.415663003922	-139.0	-135.0	-134.0	-136.0	1
3.0.1	2019_Mar_07_1015	s	s	13	2	SIC	216	ABS	0	0	1	3	24_1_3	NA	NA	0	1	3.35984015465	None	None	None	None	1
3.0.1	2019_Mar_07_1015	s	s	13	2	SIC	217	ABS	0	0	2	2	24_2_2	NA	NA	0	1	4.16276216507	None	None	None	None	1
3.0.1	2019_Mar_07_1015	s	s	13	2	SIC	218	ABS	0	0	4	3	24_4_3	NA	NA	0	1	3.55410981178	None	None	None	None	1
3.0.1	2019_Mar_07_1015	s	s	13	2	SIC	219	ABS	0	0	2	1	24_2_1	NA	NA	0	1	1.6625649929	None	None	None	None	1
3.0.1	2019_Mar_07_1015	s	s	13	2	SIC	220	ABS	0	0	2	1	24_2_1	NA	NA	0	1	1.51654100418	None	None	None	None	1
3.0.1	2019_Mar_07_1015	s	s	13	2	SIC	221	1_2	1	2	3	4	23_3_4	2	2	1	0	0.736492872238	539.0	-251.0	543.0	-254.0	1
3.0.1	2019_Mar_07_1015	s	s	13	2	SIC	222	1_3	1	3	1	2	23_1_2	0	1	0	1	2.05798006058	-474.0	-279.0	None	None	0
3.0.1	2019_Mar_07_1015	s	s	13	2	SIC	223	ABS	0	0	3	3	24_3_3	NA	NA	0	1	2.91206884384	None	None	None	None	1
3.0.1	2019_Mar_07_1015	s	s	13	2	SIC	224	ABS	0	0	2	3	24_2_3	NA	NA	0	1	2.54550886154	None	None	None	None	1
3.0.1	2019_Mar_07_1015	s	s	13	2	SIC	225	3_4	3	4	1	4	23_1_4	2	0	1	0	1.04881596565	-100.0	284.0	-107.0	283.0	1
3.0.1	2019_Mar_07_1015	s	s	13	2	SIC	226	3_2	3	2	4	3	23_4_3	-1	1	1	0	0.587354898453	-412.0	202.0	-414.0	205.0	1
3.0.1	2019_Mar_07_1015	s	s	13	2	SIC	227	1_3	1	3	2	4	23_2_4	1	-1	1	0	0.780229091644	364.0	87.0	366.0	87.0	1
3.0.1	2019_Mar_07_1015	s	s	13	2	SIC	228	ABS	0	0	4	2	24_4_2	NA	NA	0	1	2.292760849	None	None	None	None	1
3.0.1	2019_Mar_07_1015	s	s	13	2	SIC	229	3_3	3	3	1	3	23_1_3	2	0	1	0	0.834417104721	92.0	-195.0	86.0	-192.0	1
3.0.1	2019_Mar_07_1015	s	s	13	2	SIC	230	1_4	1	4	2	3	23_2_3	1	1	1	0	0.672833919525	148.0	91.0	144.0	96.0	1
3.0.1	2019_Mar_07_1015	s	s	13	2	SIC	231	4_1	4	1	4	4	23_4_4	0	3	1	0	0.672638893127	269.0	-136.0	271.0	-140.0	1
3.0.1	2019_Mar_07_1015	s	s	13	2	SIC	232	ABS	0	0	2	2	24_2_2	NA	NA	0	1	2.14402198792	None	None	None	None	1
3.0.1	2019_Mar_07_1015	s	s	13	2	SIC	233	ABS	0	0	2	1	24_2_1	NA	NA	0	1	1.42759799957	None	None	None	None	1
3.0.1	2019_Mar_07_1015	s	s	13	2	SIC	234	ABS	0	0	1	3	24_1_3	NA	NA	0	1	2.24576807022	None	None	None	None	1
3.0.1	2019_Mar_07_1015	s	s	13	2	SIC	235	3_4	3	4	1	2	23_1_2	2	2	1	0	0.73760008812	284.0	354.0	284.0	356.0	1
3.0.1	2019_Mar_07_1015	s	s	13	2	SIC	236	ABS	0	0	2	4	24_2_4	NA	NA	0	1	1.59885406494	None	None	None	None	1
3.0.1	2019_Mar_07_1015	s	s	13	2	SIC	237	2_4	2	4	3	3	23_3_3	1	1	1	0	0.592468976974	-60.0	-27.0	-57.0	-24.0	1
3.0.1	2019_Mar_07_1015	s	s	13	2	SIC	238	2_1	2	1	1	1	23_1_1	-1	0	0	1	1.57049703598	-359.0	-292.0	None	None	0
3.0.1	2019_Mar_07_1015	s	s	13	2	SIC	239	ABS	0	0	3	1	24_3_1	NA	NA	0	1	1.20188999176	None	None	None	None	1
3.0.1	2019_Mar_07_1015	s	s	13	2	SIC	240	ABS	0	0	3	3	24_3_3	NA	NA	0	1	2.35150909424	None	None	None	None	1
3.0.1	2019_Mar_07_1015	s	s	13	2	SIC	241	ABS	0	0	1	3	24_1_3	NA	NA	0	1	2.77543711662	None	None	None	None	1
3.0.1	2019_Mar_07_1015	s	s	13	2	SIC	242	1_2	1	2	2	1	23_2_1	1	-1	0	1	1.67224287987	83.0	-243.0	None	None	0
3.0.1	2019_Mar_07_1015	s	s	13	2	SIC	243	4_1	4	1	2	3	23_2_3	2	2	1	0	0.634341001511	-171.0	181.0	-170.0	180.0	1
3.0.1	2019_Mar_07_1015	s	s	13	2	SIC	244	4_4	4	4	4	3	23_4_3	0	1	1	0	0.916609048843	137.0	-100.0	139.0	-100.0	1
3.0.1	2019_Mar_07_1015	s	s	13	2	SIC	245	3_3	3	3	3	2	23_3_2	0	1	0	1	1.7088739872	515.0	8.0	None	None	0
3.0.1	2019_Mar_07_1015	s	s	13	2	SIC	246	3_1	3	1	2	2	23_2_2	1	1	1	0	0.566663980484	5.0	125.0	5.0	116.0	1
3.0.1	2019_Mar_07_1015	s	s	13	2	SIC	247	3_2	3	2	1	1	23_1_1	2	-1	1	0	0.799155950546	395.0	-346.0	403.0	-336.0	1
3.0.1	2019_Mar_07_1015	s	s	13	2	SIC	248	ABS	0	0	3	3	24_3_3	NA	NA	0	1	1.8994820118	None	None	None	None	1
3.0.1	2019_Mar_07_1015	s	s	13	2	SIC	249	ABS	0	0	4	1	24_4_1	NA	NA	0	1	1.23834109306	None	None	None	None	1
3.0.1	2019_Mar_07_1015	s	s	13	2	SIC	250	4_4	4	4	1	4	23_1_4	3	0	1	0	0.540303945541	-164.0	-27.0	-159.0	-34.0	1
3.0.1	2019_Mar_07_1015	s	s	13	2	SIC	251	ABS	0	0	4	3	24_4_3	NA	NA	0	1	2.07420897484	None	None	None	None	1
3.0.1	2019_Mar_07_1015	s	s	13	2	SIC	252	2_1	2	1	4	2	23_4_2	2	1	1	0	0.416305065155	38.0	-251.0	36.0	-251.0	1
3.0.1	2019_Mar_07_1015	s	s	13	2	SIC	253	ABS	0	0	3	1	24_3_1	NA	NA	0	1	1.0107820034	None	None	None	None	1
3.0.1	2019_Mar_07_1015	s	s	13	2	SIC	254	ABS	0	0	2	4	24_2_4	NA	NA	0	1	1.54005408287	None	None	None	None	1
3.0.1	2019_Mar_07_1015	s	s	13	2	SIC	255	4_2	4	2	3	2	23_3_2	1	0	1	0	0.591689109802	505.0	-98.0	501.0	-101.0	1
3.0.1	2019_Mar_07_1015	s	s	13	2	SIC	256	4_4	4	4	3	1	23_3_1	1	3	1	0	0.487416028976	-354.0	58.0	-353.0	62.0	1
3.0.1	2019_Mar_07_1015	s	s	13	2	SIC	257	3_1	3	1	2	3	23_2_3	1	2	1	0	0.931361913681	109.0	233.0	110.0	242.0	1
3.0.1	2019_Mar_07_1015	s	s	13	2	SIC	258	1_1	1	1	4	4	23_4_4	3	3	1	0	0.501942157745	-126.0	-165.0	-121.0	-163.0	1
3.0.1	2019_Mar_07_1015	s	s	13	2	SIC	259	2_3	2	3	2	1	23_2_1	0	2	1	0	1.23926615715	-278.0	355.0	-282.0	352.0	1
3.0.1	2019_Mar_07_1015	s	s	13	2	SIC	260	1_1	1	1	2	4	23_2_4	1	3	1	0	0.650392055511	-465.0	292.0	-461.0	291.0	1
3.0.1	2019_Mar_07_1015	s	s	13	2	SIC	261	ABS	0	0	3	1	24_3_1	NA	NA	0	1	0.763817071915	None	None	None	None	1
3.0.1	2019_Mar_07_1015	s	s	13	2	SIC	262	1_4	1	4	3	4	23_3_4	2	0	1	0	0.646117925644	134.0	117.0	137.0	121.0	1
3.0.1	2019_Mar_07_1015	s	s	13	2	SIC	263	3_4	3	4	1	3	23_1_3	2	1	1	0	0.510926008224	116.0	305.0	125.0	307.0	1
3.0.1	2019_Mar_07_1015	s	s	13	2	SIC	264	ABS	0	0	1	4	24_1_4	NA	NA	0	1	1.67795395851	None	None	None	None	1
3.0.1	2019_Mar_07_1015	s	s	13	2	SIC	265	ABS	0	0	2	2	24_2_2	NA	NA	0	1	1.4627020359	None	None	None	None	1
3.0.1	2019_Mar_07_1015	s	s	13	2	SIC	266	1_2	1	2	2	4	23_2_4	1	2	1	0	0.673038005829	57.0	391.0	56.0	397.0	1
3.0.1	2019_Mar_07_1015	s	s	13	2	SIC	267	1_4	1	4	2	2	23_2_2	1	2	1	0	2.52113485336	-180.0	-191.0	-174.0	-195.0	1
3.0.1	2019_Mar_07_1015	s	s	13	2	SIC	268	ABS	0	0	2	3	24_2_3	NA	NA	0	1	9.25532793999	None	None	None	None	1
3.0.1	2019_Mar_07_1015	s	s	13	2	SIC	269	ABS	0	0	4	4	24_4_4	NA	NA	0	1	6.40915203094	None	None	None	None	1
3.0.1	2019_Mar_07_1015	s	s	13	2	SIC	270	2_2	2	2	2	1	23_2_1	0	-1	0	1	1.65792989731	-453.0	60.0	None	None	0
3.0.1	2019_Mar_07_1015	s	s	13	2	SIC	271	2_4	2	4	3	1	23_3_1	1	3	1	0	0.725267887115	-472.0	-229.0	-474.0	-231.0	1
3.0.1	2019_Mar_07_1015	s	s	13	2	SIC	272	ABS	0	0	1	4	24_1_4	NA	NA	0	1	1.21074295044	None	None	None	None	1
3.0.1	2019_Mar_07_1015	s	s	13	2	SIC	273	ABS	0	0	2	1	24_2_1	NA	NA	0	1	1.49587512016	None	None	None	None	1
3.0.1	2019_Mar_07_1015	s	s	13	2	SIC	274	1_1	1	1	4	2	23_4_2	3	1	1	0	0.429436922073	-114.0	-218.0	-110.0	-224.0	1
3.0.1	2019_Mar_07_1015	s	s	13	2	SIC	275	3_1	3	1	4	4	23_4_4	-1	3	1	0	0.462898015976	-115.0	406.0	-109.0	410.0	1
3.0.1	2019_Mar_07_1015	s	s	13	2	SIC	276	4_4	4	4	2	4	23_2_4	2	0	1	0	0.446277141571	-63.0	24.0	-64.0	17.0	1
3.0.1	2019_Mar_07_1015	s	s	13	2	SIC	277	3_1	3	1	4	3	23_4_3	-1	2	1	0	0.458012104034	57.0	-303.0	55.0	-300.0	1
3.0.1	2019_Mar_07_1015	s	s	13	2	SIC	278	4_2	4	2	4	4	23_4_4	0	2	1	0	0.846144914627	465.0	-371.0	468.0	-364.0	1
3.0.1	2019_Mar_07_1015	s	s	13	2	SIC	279	ABS	0	0	2	3	24_2_3	NA	NA	0	1	2.2457280159	None	None	None	None	1
3.0.1	2019_Mar_07_1015	s	s	13	2	SIC	280	3_2	3	2	2	2	23_2_2	1	0	1	0	0.685221910477	-445.0	-179.0	-438.0	-185.0	1
3.0.1	2019_Mar_07_1015	s	s	13	2	SIC	281	4_2	4	2	3	4	23_3_4	1	2	1	0	0.510186910629	-33.0	400.0	-34.0	399.0	1
3.0.1	2019_Mar_07_1015	s	s	13	2	SIC	282	1_1	1	1	2	2	23_2_2	1	1	1	0	2.20792913437	-261.0	266.0	-260.0	266.0	1
3.0.1	2019_Mar_07_1015	s	s	13	2	SIC	283	3_2	3	2	1	3	23_1_3	2	1	1	0	0.496217012405	-46.0	-87.0	-48.0	-86.0	1
3.0.1	2019_Mar_07_1015	s	s	13	2	SIC	284	ABS	0	0	1	4	24_1_4	NA	NA	0	1	1.82721400261	None	None	None	None	1
3.0.1	2019_Mar_07_1015	s	s	13	2	SIC	285	3_1	3	1	2	1	23_2_1	1	0	1	0	0.848985910416	-158.0	-343.0	-166.0	-337.0	1
3.0.1	2019_Mar_07_1015	s	s	13	2	SIC	286	ABS	0	0	4	2	24_4_2	NA	NA	0	1	2.05055999756	None	None	None	None	1
3.0.1	2019_Mar_07_1015	s	s	13	2	SIC	287	1_2	1	2	3	3	23_3_3	2	1	1	0	0.516832828522	226.0	-401.0	228.0	-401.0	1
3.0.1	2019_Mar_07_1015	s	s	13	2	SIC	288	ABS	0	0	4	2	24_4_2	NA	NA	0	1	1.32610607147	None	None	None	None	1
3.0.1	2019_Mar_07_1015	s	s	13	2	SIC	289	4_3	4	3	2	2	23_2_2	2	1	1	0	0.460723876953	-296.0	-321.0	-293.0	-320.0	1
3.0.1	2019_Mar_07_1015	s	s	13	2	SIC	290	ABS	0	0	1	3	24_1_3	NA	NA	0	1	3.03246712685	None	None	None	None	1
3.0.1	2019_Mar_07_1015	s	s	13	2	SIC	291	4_3	4	3	1	3	23_1_3	3	0	1	0	0.555463075638	457.0	376.0	458.0	374.0	1
3.0.1	2019_Mar_07_1015	s	s	13	2	SIC	292	ABS	0	0	2	1	24_2_1	NA	NA	0	1	1.85554599762	None	None	None	None	1
3.0.1	2019_Mar_07_1015	s	s	13	2	SIC	293	ABS	0	0	3	3	24_3_3	NA	NA	0	1	2.73339915276	None	None	None	None	1
3.0.1	2019_Mar_07_1015	s	s	13	2	SIC	294	ABS	0	0	1	1	24_1_1	NA	NA	0	1	1.72421813011	None	None	None	None	1
3.0.1	2019_Mar_07_1015	s	s	13	2	SIC	295	2_1	2	1	2	3	23_2_3	0	2	0	1	2.01056694984	533.0	272.0	None	None	0
3.0.1	2019_Mar_07_1015	s	s	13	2	SIC	296	3_3	3	3	2	1	23_2_1	1	2	1	0	0.84623003006	-515.0	50.0	-518.0	51.0	1
3.0.1	2019_Mar_07_1015	s	s	13	2	SIC	297	1_4	1	4	2	1	23_2_1	1	3	1	0	0.604229211807	131.0	285.0	132.0	287.0	1
3.0.1	2019_Mar_07_1015	s	s	13	2	SIC	298	ABS	0	0	4	3	24_4_3	NA	NA	0	1	4.08433198929	None	None	None	None	1
3.0.1	2019_Mar_07_1015	s	s	13	2	SIC	299	4_4	4	4	1	1	23_1_1	3	3	1	0	0.522783994675	438.0	-254.0	443.0	-254.0	1
3.0.1	2019_Mar_07_1015	s	s	13	2	SIC	300	3_2	3	2	3	3	23_3_3	0	1	1	0	2.3240339756	-157.0	407.0	-155.0	411.0	1
3.0.1	2019_Mar_07_1015	s	s	13	2	SIC	301	ABS	0	0	1	4	24_1_4	NA	NA	0	1	2.02223300934	None	None	None	None	1
3.0.1	2019_Mar_07_1015	s	s	13	2	SIC	302	ABS	0	0	2	1	24_2_1	NA	NA	0	1	1.63928103447	None	None	None	None	1
3.0.1	2019_Mar_07_1015	s	s	13	2	SIC	303	3_4	3	4	1	1	23_1_1	2	3	1	0	0.605926036835	-208.0	-361.0	-217.0	-361.0	1
3.0.1	2019_Mar_07_1015	s	s	13	2	SIC	304	1_1	1	1	2	3	23_2_3	1	2	1	0	3.19849181175	487.0	-14.0	492.0	-21.0	1
3.0.1	2019_Mar_07_1015	s	s	13	2	SIC	305	ABS	0	0	4	3	24_4_3	NA	NA	0	1	5.04490995407	None	None	None	None	1
3.0.1	2019_Mar_07_1015	s	s	13	2	SIC	306	ABS	0	0	3	1	24_3_1	NA	NA	0	1	3.98628306389	None	None	None	None	1
3.0.1	2019_Mar_07_1015	s	s	13	2	SIC	307	ABS	0	0	3	2	24_3_2	NA	NA	0	1	2.92813396454	None	None	None	None	1
3.0.1	2019_Mar_07_1015	s	s	13	2	SIC	308	2_1	2	1	3	1	23_3_1	1	0	1	0	0.999026060104	-526.0	329.0	-515.0	330.0	1
3.0.1	2019_Mar_07_1015	s	s	13	2	SIC	309	1_2	1	2	1	1	23_1_1	0	-1	0	1	1.48114705086	117.0	125.0	None	None	0
3.0.1	2019_Mar_07_1015	s	s	13	2	SIC	310	3_3	3	3	3	4	23_3_4	0	-1	1	0	0.803447008133	-457.0	380.0	-454.0	381.0	1
3.0.1	2019_Mar_07_1015	s	s	13	2	SIC	311	4_1	4	1	4	3	23_4_3	0	2	1	0	1.73112511635	414.0	-193.0	414.0	-184.0	1
3.0.1	2019_Mar_07_1015	s	s	13	2	SIC	312	ABS	0	0	3	2	24_3_2	NA	NA	0	1	2.91603207588	None	None	None	None	1
3.0.1	2019_Mar_07_1015	s	s	13	2	SIC	313	1_2	1	2	1	4	23_1_4	0	2	1	0	0.592312097549	-196.0	-200.0	-195.0	-202.0	1
3.0.1	2019_Mar_07_1015	s	s	13	2	SIC	314	3_3	3	3	2	3	23_2_3	1	0	1	0	0.78071308136	-83.0	245.0	-73.0	247.0	1
3.0.1	2019_Mar_07_1015	s	s	13	2	SIC	315	4_1	4	1	2	2	23_2_2	2	1	1	0	0.540355920792	-520.0	-240.0	-528.0	-241.0	1
3.0.1	2019_Mar_07_1015	s	s	13	2	SIC	316	ABS	0	0	2	2	24_2_2	NA	NA	0	1	2.49268889427	None	None	None	None	1
3.0.1	2019_Mar_07_1015	s	s	13	2	SIC	317	1_3	1	3	3	1	23_3_1	2	2	1	0	0.528617143631	-233.0	-21.0	-235.0	-25.0	1
3.0.1	2019_Mar_07_1015	s	s	13	2	SIC	318	2_2	2	2	3	3	23_3_3	1	1	1	0	0.873847961426	360.0	-141.0	367.0	-138.0	1
3.0.1	2019_Mar_07_1015	s	s	13	2	SIC	319	3_4	3	4	2	3	23_2_3	1	1	1	0	0.782983064651	146.0	-13.0	151.0	-12.0	1
3.0.1	2019_Mar_07_1015	s	s	13	2	SIC	320	3_1	3	1	3	2	23_3_2	0	1	0	1	2.44559812546	-79.0	-368.0	None	None	0
3.0.1	2019_Mar_07_1015	s	s	13	2	SIC	321	2_2	2	2	1	4	23_1_4	-1	2	1	0	0.84107708931	-22.0	-343.0	-30.0	-335.0	1
3.0.1	2019_Mar_07_1015	s	s	13	2	SIC	322	4_3	4	3	2	4	23_2_4	2	-1	1	0	0.505449056625	-455.0	-190.0	-455.0	-189.0	1
3.0.1	2019_Mar_07_1015	s	s	13	2	SIC	323	ABS	0	0	4	1	24_4_1	NA	NA	0	1	1.58712697029	None	None	None	None	1
3.0.1	2019_Mar_07_1015	s	s	13	2	SIC	324	ABS	0	0	2	2	24_2_2	NA	NA	0	1	2.76960897446	None	None	None	None	1
3.0.1	2019_Mar_07_1015	s	s	13	2	SIC	325	1_1	1	1	3	1	23_3_1	2	0	1	0	0.678644895554	-55.0	-209.0	-50.0	-214.0	1
3.0.1	2019_Mar_07_1015	s	s	13	2	SIC	326	ABS	0	0	3	2	24_3_2	NA	NA	0	1	2.71622610092	None	None	None	None	1
3.0.1	2019_Mar_07_1015	s	s	13	2	SIC	327	2_2	2	2	4	3	23_4_3	2	1	1	0	0.528497934341	-511.0	-12.0	-505.0	-14.0	1
3.0.1	2019_Mar_07_1015	s	s	13	2	SIC	328	1_4	1	4	3	3	23_3_3	2	1	1	0	0.533445119858	379.0	87.0	381.0	85.0	1
3.0.1	2019_Mar_07_1015	s	s	13	2	SIC	329	ABS	0	0	4	1	24_4_1	NA	NA	0	1	1.42240905762	None	None	None	None	1
3.0.1	2019_Mar_07_1015	s	s	13	2	SIC	330	ABS	0	0	1	3	24_1_3	NA	NA	0	1	3.29844689369	None	None	None	None	1
3.0.1	2019_Mar_07_1015	s	s	13	2	SIC	331	2_2	2	2	4	4	23_4_4	2	2	1	0	0.58744597435	400.0	-376.0	404.0	-378.0	1
3.0.1	2019_Mar_07_1015	s	s	13	2	SIC	332	ABS	0	0	4	3	24_4_3	NA	NA	0	1	2.80270600319	None	None	None	None	1
3.0.1	2019_Mar_07_1015	s	s	13	2	SIC	333	4_3	4	3	1	4	23_1_4	3	-1	1	0	0.446269989014	141.0	96.0	141.0	98.0	1
3.0.1	2019_Mar_07_1015	s	s	13	2	SIC	334	2_3	2	3	4	2	23_4_2	2	1	1	0	0.392367124557	-237.0	35.0	-232.0	33.0	1
3.0.1	2019_Mar_07_1015	s	s	13	2	SIC	335	3_2	3	2	1	4	23_1_4	2	2	1	0	0.481703042984	42.0	-90.0	47.0	-89.0	1
3.0.1	2019_Mar_07_1015	s	s	13	2	SIC	336	ABS	0	0	2	2	24_2_2	NA	NA	0	1	4.08334612846	None	None	None	None	1
3.0.1	2019_Mar_07_1015	s	s	13	2	SIC	337	2_1	2	1	1	2	23_1_2	-1	1	1	0	1.02542996407	315.0	-82.0	318.0	-86.0	1
3.0.1	2019_Mar_07_1015	s	s	13	2	SIC	338	3_2	3	2	4	1	23_4_1	-1	-1	1	0	0.587824106216	-241.0	-377.0	-238.0	-380.0	1
3.0.1	2019_Mar_07_1015	s	s	13	2	SIC	339	4_1	4	1	1	1	23_1_1	3	0	1	0	0.458003997803	-395.0	141.0	-397.0	137.0	1
3.0.1	2019_Mar_07_1015	s	s	13	2	SIC	340	ABS	0	0	3	3	24_3_3	NA	NA	0	1	4.0569229126	None	None	None	None	1
3.0.1	2019_Mar_07_1015	s	s	13	2	SIC	341	ABS	0	0	1	2	24_1_2	NA	NA	0	1	2.52796912193	None	None	None	None	1
3.0.1	2019_Mar_07_1015	s	s	13	2	SIC	342	4_1	4	1	3	1	23_3_1	1	0	1	0	0.481577157974	460.0	238.0	465.0	242.0	1
3.0.1	2019_Mar_07_1015	s	s	13	2	SIC	343	ABS	0	0	3	3	24_3_3	NA	NA	0	1	1.6392531395	None	None	None	None	1
3.0.1	2019_Mar_07_1015	s	s	13	2	SIC	344	3_1	3	1	1	3	23_1_3	2	2	1	0	0.469924926758	225.0	-83.0	228.0	-84.0	1
3.0.1	2019_Mar_07_1015	s	s	13	2	SIC	345	ABS	0	0	2	3	24_2_3	NA	NA	0	1	2.77496099472	None	None	None	None	1
3.0.1	2019_Mar_07_1015	s	s	13	2	SIC	346	1_3	1	3	3	4	23_3_4	2	-1	1	0	0.438914060593	-294.0	47.0	-292.0	48.0	1
3.0.1	2019_Mar_07_1015	s	s	13	2	SIC	347	4_3	4	3	3	2	23_3_2	1	1	1	0	0.469769954681	-509.0	-408.0	-515.0	-404.0	1
3.0.1	2019_Mar_07_1015	s	s	13	2	SIC	348	ABS	0	0	3	4	24_3_4	NA	NA	0	1	1.48124909401	None	None	None	None	1
3.0.1	2019_Mar_07_1015	s	s	13	2	SIC	349	ABS	0	0	3	1	24_3_1	NA	NA	0	1	1.35180902481	None	None	None	None	1
3.0.1	2019_Mar_07_1015	s	s	13	2	SIC	350	4_4	4	4	4	2	23_4_2	0	2	1	0	0.810872077942	210.0	-365.0	212.0	-362.0	1
3.0.1	2019_Mar_07_1015	s	s	13	2	SIC	351	ABS	0	0	2	3	24_2_3	NA	NA	0	1	3.09589886665	None	None	None	None	1
3.0.1	2019_Mar_07_1015	s	s	13	2	SIC	352	1_3	1	3	1	1	23_1_1	0	2	1	0	1.26067185402	-350.0	105.0	-343.0	103.0	1
3.0.1	2019_Mar_07_1015	s	s	13	2	SIC	353	3_4	3	4	4	4	23_4_4	-1	0	1	0	0.469743013382	-319.0	114.0	-318.0	108.0	1
3.0.1	2019_Mar_07_1015	s	s	13	2	SIC	354	ABS	0	0	3	3	24_3_3	NA	NA	0	1	3.79662108421	None	None	None	None	1
3.0.1	2019_Mar_07_1015	s	s	13	2	SIC	355	ABS	0	0	3	1	24_3_1	NA	NA	0	1	1.76343512535	None	None	None	None	1
3.0.1	2019_Mar_07_1015	s	s	13	2	SIC	356	ABS	0	0	1	4	24_1_4	NA	NA	0	1	1.96340990067	None	None	None	None	1
3.0.1	2019_Mar_07_1015	s	s	13	2	SIC	357	ABS	0	0	2	4	24_2_4	NA	NA	0	1	1.55181002617	None	None	None	None	1
3.0.1	2019_Mar_07_1015	s	s	13	2	SIC	358	4_3	4	3	4	4	23_4_4	0	-1	1	0	0.752018928528	98.0	385.0	96.0	389.0	1
3.0.1	2019_Mar_07_1015	s	s	13	2	SIC	359	ABS	0	0	1	2	24_1_2	NA	NA	0	1	2.39855003357	None	None	None	None	1
3.0.1	2019_Mar_07_1015	s	s	13	2	SIC	360	4_2	4	2	4	3	23_4_3	0	1	1	0	2.71617102623	-438.0	295.0	-439.0	287.0	1
3.0.1	2019_Mar_07_1015	s	s	13	2	SIC	361	2_4	2	4	2	3	23_2_3	0	1	1	0	0.704998016357	-21.0	191.0	-24.0	194.0	1
3.0.1	2019_Mar_07_1015	s	s	13	2	SIC	362	4_3	4	3	2	3	23_2_3	2	0	1	0	0.509448051453	515.0	-118.0	519.0	-119.0	1
3.0.1	2019_Mar_07_1015	s	s	13	2	SIC	363	ABS	0	0	4	3	24_4_3	NA	NA	0	1	3.08458018303	None	None	None	None	1
3.0.1	2019_Mar_07_1015	s	s	13	2	SIC	364	ABS	0	0	3	2	24_3_2	NA	NA	0	1	3.32774186134	None	None	None	None	1
3.0.1	2019_Mar_07_1015	s	s	13	2	SIC	365	3_2	3	2	1	2	23_1_2	2	0	1	0	0.693390130997	260.0	-256.0	253.0	-250.0	1
3.0.1	2019_Mar_07_1015	s	s	13	2	SIC	366	ABS	0	0	4	3	24_4_3	NA	NA	0	1	3.41016602516	None	None	None	None	1
3.0.1	2019_Mar_07_1015	s	s	13	2	SIC	367	ABS	0	0	3	2	24_3_2	NA	NA	0	1	2.61050891876	None	None	None	None	1
3.0.1	2019_Mar_07_1015	s	s	13	2	SIC	368	ABS	0	0	4	2	24_4_2	NA	NA	0	1	2.22512292862	None	None	None	None	1
3.0.1	2019_Mar_07_1015	s	s	13	2	SIC	369	ABS	0	0	1	2	24_1_2	NA	NA	0	1	2.34494900703	None	None	None	None	1
3.0.1	2019_Mar_07_1015	s	s	13	2	SIC	370	2_4	2	4	3	2	23_3_2	1	2	1	0	0.579987049103	11.0	-145.0	9.0	-140.0	1
3.0.1	2019_Mar_07_1015	s	s	13	2	SIC	371	ABS	0	0	3	3	24_3_3	NA	NA	0	1	1.83940386772	None	None	None	None	1
3.0.1	2019_Mar_07_1015	s	s	13	2	SIC	372	ABS	0	0	1	1	24_1_1	NA	NA	0	1	2.18694114685	None	None	None	None	1
3.0.1	2019_Mar_07_1015	s	s	13	2	SIC	373	ABS	0	0	1	2	24_1_2	NA	NA	0	1	4.33919000626	None	None	None	None	1
3.0.1	2019_Mar_07_1015	s	s	13	2	SIC	374	1_4	1	4	4	1	23_4_1	3	3	1	0	0.469878911972	-176.0	-188.0	-181.0	-194.0	1
3.0.1	2019_Mar_07_1015	s	s	13	2	SIC	375	4_4	4	4	3	4	23_3_4	1	0	1	0	0.511038064957	170.0	275.0	167.0	275.0	1
3.0.1	2019_Mar_07_1015	s	s	13	2	SIC	376	4_4	4	4	4	1	23_4_1	0	3	1	0	0.568709135056	57.0	-71.0	50.0	-71.0	1
3.0.1	2019_Mar_07_1015	s	s	13	2	SIC	377	ABS	0	0	3	4	24_3_4	NA	NA	0	1	1.91181397438	None	None	None	None	1
3.0.1	2019_Mar_07_1015	s	s	13	2	SIC	378	4_1	4	1	3	3	23_3_3	1	2	1	0	0.634391069412	220.0	-308.0	216.0	-313.0	1
3.0.1	2019_Mar_07_1015	s	s	13	2	SIC	379	1_2	1	2	2	3	23_2_3	1	1	1	0	1.51651597023	309.0	-88.0	310.0	-88.0	1
3.0.1	2019_Mar_07_1015	s	s	13	2	SIC	380	ABS	0	0	1	3	24_1_3	NA	NA	0	1	3.79030799866	None	None	None	None	1
3.0.1	2019_Mar_07_1015	s	s	13	2	SIC	381	ABS	0	0	3	3	24_3_3	NA	NA	0	1	3.12782883644	None	None	None	None	1
3.0.1	2019_Mar_07_1015	s	s	13	2	SIC	382	ABS	0	0	2	3	24_2_3	NA	NA	0	1	2.68099308014	None	None	None	None	1
3.0.1	2019_Mar_07_1015	s	s	13	2	SIC	383	ABS	0	0	4	2	24_4_2	NA	NA	0	1	2.99843811989	None	None	None	None	1
3.0.1	2019_Mar_07_1015	s	s	13	2	SIC	384	ABS	0	0	4	2	24_4_2	NA	NA	0	1	2.28102397919	None	None	None	None	1
3.0.1	2019_Mar_07_1015	s	s	13	2	SIC	385	ABS	0	0	2	1	24_2_1	NA	NA	0	1	1.869328022	None	None	None	None	1
3.0.1	2019_Mar_07_1015	s	s	13	2	SIC	386	ABS	0	0	4	4	24_4_4	NA	NA	0	1	1.67434310913	None	None	None	None	1
3.0.1	2019_Mar_07_1015	s	s	13	2	SIC	387	ABS	0	0	4	1	24_4_1	NA	NA	0	1	1.00424408913	None	None	None	None	1
3.0.1	2019_Mar_07_1015	s	s	13	2	SIC	388	ABS	0	0	3	4	24_3_4	NA	NA	0	1	1.88104891777	None	None	None	None	1
3.0.1	2019_Mar_07_1015	s	s	13	2	SIC	389	1_2	1	2	3	1	23_3_1	2	-1	1	0	0.469782829285	-103.0	-352.0	-107.0	-355.0	1
3.0.1	2019_Mar_07_1015	s	s	13	2	SIC	390	3_1	3	1	1	1	23_1_1	2	0	1	0	0.540422916412	-311.0	21.0	-311.0	19.0	1
3.0.1	2019_Mar_07_1015	s	s	13	2	SIC	391	2_1	2	1	1	3	23_1_3	-1	2	1	0	0.634356021881	93.0	-118.0	93.0	-123.0	1
3.0.1	2019_Mar_07_1015	s	s	13	2	SIC	392	ABS	0	0	3	4	24_3_4	NA	NA	0	1	1.84873390198	None	None	None	None	1
3.0.1	2019_Mar_07_1015	s	s	13	2	SIC	393	ABS	0	0	2	4	24_2_4	NA	NA	0	1	1.44090604782	None	None	None	None	1
3.0.1	2019_Mar_07_1015	s	s	13	2	SIC	394	ABS	0	0	1	3	24_1_3	NA	NA	0	1	2.78366088867	None	None	None	None	1
3.0.1	2019_Mar_07_1015	s	s	13	2	SIC	395	ABS	0	0	4	1	24_4_1	NA	NA	0	1	1.55940294266	None	None	None	None	1
3.0.1	2019_Mar_07_1015	s	s	13	2	SIC	396	2_2	2	2	3	2	23_3_2	1	0	1	0	1.22247195244	524.0	279.0	526.0	278.0	1
3.0.1	2019_Mar_07_1015	s	s	13	2	SIC	397	ABS	0	0	1	1	24_1_1	NA	NA	0	1	1.10483908653	None	None	None	None	1
3.0.1	2019_Mar_07_1015	s	s	13	2	SIC	398	ABS	0	0	3	4	24_3_4	NA	NA	0	1	0.834406852722	None	None	None	None	1
3.0.1	2019_Mar_07_1015	s	s	13	2	SIC	399	ABS	0	0	3	2	24_3_2	NA	NA	0	1	2.85429596901	None	None	None	None	1
3.0.1	2019_Mar_07_1015	s	s	13	2	SIC	400	ABS	0	0	4	4	24_4_4	NA	NA	0	1	1.28423714638	None	None	None	None	1
3.0.1	2019_Mar_07_1015	s	s	13	2	SIC	401	ABS	0	0	1	1	24_1_1	NA	NA	0	1	1.69300699234	None	None	None	None	1
3.0.1	2019_Mar_07_1015	s	s	13	2	SIC	402	4_2	4	2	1	4	23_1_4	3	2	1	0	0.660873889923	-525.0	-345.0	-523.0	-346.0	1
3.0.1	2019_Mar_07_1015	s	s	13	2	SIC	403	ABS	0	0	1	3	24_1_3	NA	NA	0	1	3.74584007263	None	None	None	None	1
3.0.1	2019_Mar_07_1015	s	s	13	2	SIC	404	2_4	2	4	3	4	23_3_4	1	0	1	0	0.855875015259	-415.0	-302.0	-421.0	-310.0	1
3.0.1	2019_Mar_07_1015	s	s	13	2	SIC	405	1_1	1	1	4	1	23_4_1	3	0	1	0	0.522084951401	-283.0	-295.0	-278.0	-298.0	1
3.0.1	2019_Mar_07_1015	s	s	13	2	SIC	406	3_2	3	2	2	1	23_2_1	1	-1	1	0	0.940139055252	47.0	-323.0	45.0	-328.0	1
3.0.1	2019_Mar_07_1015	s	s	13	2	SIC	407	2_4	2	4	2	2	23_2_2	0	2	1	0	0.966637849808	277.0	-358.0	275.0	-369.0	1
3.0.1	2019_Mar_07_1015	s	s	13	2	SIC	408	ABS	0	0	4	4	24_4_4	NA	NA	0	1	1.20196914673	None	None	None	None	1
3.0.1	2019_Mar_07_1015	s	s	13	2	SIC	409	2_3	2	3	1	1	23_1_1	-1	2	1	0	0.958728075027	-65.0	45.0	-61.0	43.0	1
3.0.1	2019_Mar_07_1015	s	s	13	2	SIC	410	3_3	3	3	2	4	23_2_4	1	-1	1	0	0.782157182693	-49.0	-348.0	-47.0	-355.0	1
3.0.1	2019_Mar_07_1015	s	s	13	2	SIC	411	ABS	0	0	4	3	24_4_3	NA	NA	0	1	1.73372101784	None	None	None	None	1
3.0.1	2019_Mar_07_1015	s	s	13	2	SIC	412	3_4	3	4	4	1	23_4_1	-1	3	1	0	0.528563976288	-186.0	-325.0	-185.0	-323.0	1
3.0.1	2019_Mar_07_1015	s	s	13	2	SIC	413	1_1	1	1	3	2	23_3_2	2	1	1	0	0.505040884018	-164.0	-13.0	-162.0	-9.0	1
3.0.1	2019_Mar_07_1015	s	s	13	2	SIC	414	ABS	0	0	2	2	24_2_2	NA	NA	0	1	2.15455794334	None	None	None	None	1
3.0.1	2019_Mar_07_1015	s	s	13	2	SIC	415	2_2	2	2	1	1	23_1_1	-1	-1	1	0	1.9327890873	336.0	379.0	336.0	379.0	1
3.0.1	2019_Mar_07_1015	s	s	13	2	SIC	416	ABS	0	0	3	2	24_3_2	NA	NA	0	1	1.22251987457	None	None	None	None	1
3.0.1	2019_Mar_07_1015	s	s	13	2	SIC	417	ABS	0	0	2	4	24_2_4	NA	NA	0	1	1.31947803497	None	None	None	None	1
3.0.1	2019_Mar_07_1015	s	s	13	2	SIC	418	ABS	0	0	1	4	24_1_4	NA	NA	0	1	1.40339589119	None	None	None	None	1
3.0.1	2019_Mar_07_1015	s	s	13	2	SIC	419	3_1	3	1	4	2	23_4_2	-1	1	1	0	0.604346036911	285.0	331.0	289.0	334.0	1
3.0.1	2019_Mar_07_1015	s	s	13	2	SIC	420	ABS	0	0	2	4	24_2_4	NA	NA	0	1	1.14829182625	None	None	None	None	1
3.0.1	2019_Mar_07_1015	s	s	13	2	SIC	421	4_1	4	1	2	1	23_2_1	2	0	1	0	0.555035114288	203.0	-289.0	200.0	-285.0	1
3.0.1	2019_Mar_07_1015	s	s	13	2	SIC	422	4_1	4	1	4	2	23_4_2	0	1	0	1	2.85468411446	479.0	-216.0	None	None	0
3.0.1	2019_Mar_07_1015	s	s	13	2	SIC	423	1_4	1	4	1	3	23_1_3	0	1	1	0	1.07609200478	-100.0	-202.0	-101.0	-196.0	1
3.0.1	2019_Mar_07_1015	s	s	13	2	SIC	424	4_2	4	2	1	2	23_1_2	3	0	1	0	0.672585964203	272.0	-403.0	266.0	-401.0	1
3.0.1	2019_Mar_07_1015	s	s	13	2	SIC	425	ABS	0	0	2	3	24_2_3	NA	NA	0	1	2.32580089569	None	None	None	None	1
3.0.1	2019_Mar_07_1015	s	s	13	2	SIC	426	4_1	4	1	1	2	23_1_2	3	1	1	0	0.523543119431	-267.0	-165.0	-273.0	-168.0	1
3.0.1	2019_Mar_07_1015	s	s	13	2	SIC	427	ABS	0	0	2	1	24_2_1	NA	NA	0	1	1.2606959343	None	None	None	None	1
3.0.1	2019_Mar_07_1015	s	s	13	2	SIC	428	2_3	2	3	3	1	23_3_1	1	2	1	0	0.673629045486	-277.0	-264.0	-279.0	-268.0	1
3.0.1	2019_Mar_07_1015	s	s	13	2	SIC	429	4_1	4	1	3	2	23_3_2	1	1	1	0	0.4961810112	-509.0	43.0	-510.0	38.0	1
3.0.1	2019_Mar_07_1015	s	s	13	2	SIC	430	ABS	0	0	4	1	24_4_1	NA	NA	0	1	0.709290981293	None	None	None	None	1
3.0.1	2019_Mar_07_1015	s	s	13	2	SIC	431	ABS	0	0	2	2	24_2_2	NA	NA	0	1	1.37927103043	None	None	None	None	1
3.0.1	2019_Mar_07_1015	s	s	13	2	SIC	432	3_1	3	1	3	4	23_3_4	0	3	1	0	0.83438706398	154.0	350.0	152.0	348.0	1
3.0.1	2019_Mar_07_1015	s	s	13	2	SIC	433	ABS	0	0	3	4	24_3_4	NA	NA	0	1	1.2929880619	None	None	None	None	1
3.0.1	2019_Mar_07_1015	s	s	13	2	SIC	434	1_3	1	3	2	3	23_2_3	1	0	0	1	3.15128684044	-275.0	-391.0	None	None	0
3.0.1	2019_Mar_07_1015	s	s	13	2	SIC	435	4_2	4	2	4	1	23_4_1	0	-1	0	1	0.966607093811	-445.0	-271.0	None	None	0
3.0.1	2019_Mar_07_1015	s	s	13	2	SIC	436	2_4	2	4	1	2	23_1_2	-1	2	1	0	0.629231929779	-416.0	237.0	-418.0	232.0	1
3.0.1	2019_Mar_07_1015	s	s	13	2	SIC	437	3_1	3	1	4	1	23_4_1	-1	0	1	0	0.481534004211	-236.0	372.0	-235.0	377.0	1
3.0.1	2019_Mar_07_1015	s	s	13	2	SIC	438	ABS	0	0	2	4	24_2_4	NA	NA	0	1	1.8693189621	None	None	None	None	1
3.0.1	2019_Mar_07_1015	s	s	13	2	SIC	439	1_3	1	3	4	4	23_4_4	3	-1	1	0	0.637250900269	128.0	-198.0	125.0	-205.0	1
3.0.1	2019_Mar_07_1015	s	s	13	2	SIC	440	ABS	0	0	1	3	24_1_3	NA	NA	0	1	2.87273812294	None	None	None	None	1
3.0.1	2019_Mar_07_1015	s	s	13	2	SIC	441	ABS	0	0	1	3	24_1_3	NA	NA	0	1	3.15133094788	None	None	None	None	1
3.0.1	2019_Mar_07_1015	s	s	13	2	SIC	442	ABS	0	0	4	3	24_4_3	NA	NA	0	1	4.01278591156	None	None	None	None	1
3.0.1	2019_Mar_07_1015	s	s	13	2	SIC	443	1_4	1	4	2	4	23_2_4	1	0	0	1	1.91256284714	471.0	390.0	None	None	0
3.0.1	2019_Mar_07_1015	s	s	13	2	SIC	444	1_3	1	3	3	3	23_3_3	2	0	1	0	0.580412864685	395.0	-160.0	398.0	-157.0	1
3.0.1	2019_Mar_07_1015	s	s	13	2	SIC	445	ABS	0	0	2	2	24_2_2	NA	NA	0	1	3.46216416359	None	None	None	None	1
3.0.1	2019_Mar_07_1015	s	s	13	2	SIC	446	ABS	0	0	2	2	24_2_2	NA	NA	0	1	2.24613595009	None	None	None	None	1
3.0.1	2019_Mar_07_1015	s	s	13	2	SIC	447	ABS	0	0	4	4	24_4_4	NA	NA	0	1	1.17545294762	None	None	None	None	1
3.0.1	2019_Mar_07_1015	s	s	13	2	SIC	448	ABS	0	0	4	4	24_4_4	NA	NA	0	1	1.35637307167	None	None	None	None	1
3.0.1	2019_Mar_07_1015	s	s	13	2	SIC	449	ABS	0	0	2	4	24_2_4	NA	NA	0	1	1.31107401848	None	None	None	None	1
3.0.1	2019_Mar_07_1015	s	s	13	2	SIC	450	2_4	2	4	1	3	23_1_3	-1	1	1	0	2.13251709938	350.0	-335.0	351.0	-336.0	1
3.0.1	2019_Mar_07_1015	s	s	13	2	SIC	451	ABS	0	0	1	1	24_1_1	NA	NA	0	1	1.40463995934	None	None	None	None	1
3.0.1	2019_Mar_07_1015	s	s	13	2	SIC	452	ABS	0	0	2	3	24_2_3	NA	NA	0	1	3.64533615112	None	None	None	None	1
3.0.1	2019_Mar_07_1015	s	s	13	2	SIC	453	1_1	1	1	1	3	23_1_3	0	2	1	0	1.37827301025	-352.0	-212.0	-352.0	-214.0	1
3.0.1	2019_Mar_07_1015	s	s	13	2	SIC	454	1_3	1	3	4	3	23_4_3	3	0	1	0	0.534436941147	68.0	124.0	62.0	127.0	1
3.0.1	2019_Mar_07_1015	s	s	13	2	SIC	455	ABS	0	0	1	3	24_1_3	NA	NA	0	1	3.42801094055	None	None	None	None	1
3.0.1	2019_Mar_07_1015	s	s	13	2	SIC	456	ABS	0	0	4	2	24_4_2	NA	NA	0	1	4.03843808174	None	None	None	None	1
3.0.1	2019_Mar_07_1015	s	s	13	2	SIC	457	4_4	4	4	1	3	23_1_3	3	1	1	0	0.493310928345	-379.0	-201.0	-378.0	-208.0	1
3.0.1	2019_Mar_07_1015	s	s	13	2	SIC	458	2_2	2	2	4	1	23_4_1	2	-1	1	0	0.462882041931	416.0	-45.0	421.0	-50.0	1
3.0.1	2019_Mar_07_1015	s	s	13	2	SIC	459	4_3	4	3	3	3	23_3_3	1	0	1	0	0.587401151657	119.0	-360.0	116.0	-359.0	1
3.0.1	2019_Mar_07_1015	s	s	13	2	SIC	460	1_4	1	4	4	2	23_4_2	3	2	1	0	0.446254968643	199.0	-126.0	201.0	-129.0	1
3.0.1	2019_Mar_07_1015	s	s	13	2	SIC	461	3_3	3	3	4	4	23_4_4	-1	-1	1	0	0.423166036606	152.0	-110.0	146.0	-110.0	1
3.0.1	2019_Mar_07_1015	s	s	13	2	SIC	462	2_2	2	2	1	3	23_1_3	-1	1	1	0	3.29242897034	-287.0	279.0	-286.0	280.0	1
3.0.1	2019_Mar_07_1015	s	s	13	2	SIC	463	ABS	0	0	3	1	24_3_1	NA	NA	0	1	1.94386792183	None	None	None	None	1
3.0.1	2019_Mar_07_1015	s	s	13	2	SIC	464	3_2	3	2	4	2	23_4_2	-1	0	1	0	0.503247022629	507.0	160.0	514.0	159.0	1
3.0.1	2019_Mar_07_1015	s	s	13	2	SIC	465	ABS	0	0	3	1	24_3_1	NA	NA	0	1	1.22880792618	None	None	None	None	1
3.0.1	2019_Mar_07_1015	s	s	13	2	SIC	466	ABS	0	0	4	2	24_4_2	NA	NA	0	1	3.20147418976	None	None	None	None	1
3.0.1	2019_Mar_07_1015	s	s	13	2	SIC	467	3_2	3	2	2	3	23_2_3	1	1	1	0	0.628811120987	97.0	122.0	91.0	117.0	1
3.0.1	2019_Mar_07_1015	s	s	13	2	SIC	468	3_3	3	3	4	1	23_4_1	-1	2	1	0	0.554959058762	-422.0	-411.0	-428.0	-410.0	1
3.0.1	2019_Mar_07_1015	s	s	13	2	SIC	469	3_4	3	4	3	1	23_3_1	0	3	1	0	0.427609920502	25.0	-49.0	29.0	-49.0	1
3.0.1	2019_Mar_07_1015	s	s	13	2	SIC	470	4_2	4	2	1	1	23_1_1	3	-1	1	0	0.46980881691	-316.0	206.0	-319.0	206.0	1
3.0.1	2019_Mar_07_1015	s	s	13	2	SIC	471	2_3	2	3	4	4	23_4_4	2	-1	1	0	0.446243047714	-262.0	-398.0	-265.0	-395.0	1
3.0.1	2019_Mar_07_1015	s	s	13	2	SIC	472	ABS	0	0	1	1	24_1_1	NA	NA	0	1	2.05742502213	None	None	None	None	1
3.0.1	2019_Mar_07_1015	s	s	13	2	SIC	473	ABS	0	0	3	1	24_3_1	NA	NA	0	1	1.50015592575	None	None	None	None	1
3.0.1	2019_Mar_07_1015	s	s	13	2	SIC	474	2_4	2	4	1	1	23_1_1	-1	3	1	0	0.599195957184	516.0	307.0	507.0	306.0	1
3.0.1	2019_Mar_07_1015	s	s	13	2	SIC	475	2_1	2	1	4	3	23_4_3	2	2	1	0	0.427498102188	-148.0	88.0	-154.0	87.0	1
3.0.1	2019_Mar_07_1015	s	s	13	2	SIC	476	ABS	0	0	1	4	24_1_4	NA	NA	0	1	1.62766599655	None	None	None	None	1
3.0.1	2019_Mar_07_1015	s	s	13	2	SIC	477	ABS	0	0	1	4	24_1_4	NA	NA	0	1	1.25112605095	None	None	None	None	1
3.0.1	2019_Mar_07_1015	s	s	13	2	SIC	478	1_1	1	1	3	3	23_3_3	2	2	1	0	0.481578111649	64.0	327.0	60.0	322.0	1
3.0.1	2019_Mar_07_1015	s	s	13	2	SIC	479	ABS	0	0	1	1	24_1_1	NA	NA	0	1	1.96340107918	None	None	None	None	1
3.0.1	2019_Mar_07_1015	s	s	13	2	SIC	480	4_3	4	3	1	1	23_1_1	3	2	1	0	0.442785978317	14.0	-59.0	12.0	-59.0	1
