Version	Date	Stimuli	Method	Subject	Session	Condition	Trial	Target	TColor	TShape	DColor	DShape	Distractors	Channel1	Channel2	LMouseButton	RMouseButton	RT	TargetX	TargetY	ResponseX	ResponseY	Correct
3.0.1	2019_Mar_09_1309	s	s	13	4	Capacity	1	ABS	0	0	1	4	24_1_4	NA	NA	0	1	1.04597687721	None	None	None	None	1
3.0.1	2019_Mar_09_1309	s	s	13	4	Capacity	2	1_4	1	4	1	1	23_1_1	0	3	1	0	0.663033008575	-141.0	220.0	-139.0	222.0	1
3.0.1	2019_Mar_09_1309	s	s	13	4	Capacity	3	ABS	0	0	1	4	24_1_4	NA	NA	0	1	1.340102911	None	None	None	None	1
3.0.1	2019_Mar_09_1309	s	s	13	4	Capacity	4	ABS	0	0	1	3	24_1_3	NA	NA	0	1	3.09778189659	None	None	None	None	1
3.0.1	2019_Mar_09_1309	s	s	13	4	Capacity	5	1_2	1	2	1	1	23_1_1	0	-1	1	0	1.07483792305	-251.0	31.0	-239.0	32.0	1
3.0.1	2019_Mar_09_1309	s	s	13	4	Capacity	6	1_1	1	1	1	4	23_1_4	0	3	1	0	0.496176958084	120.0	-149.0	124.0	-147.0	1
3.0.1	2019_Mar_09_1309	s	s	13	4	Capacity	7	1_1	1	1	1	2	23_1_2	0	1	0	1	2.18693995476	-448.0	79.0	None	None	0
3.0.1	2019_Mar_09_1309	s	s	13	4	Capacity	8	ABS	0	0	1	1	24_1_1	NA	NA	0	1	2.17513489723	None	None	None	None	1
3.0.1	2019_Mar_09_1309	s	s	13	4	Capacity	9	ABS	0	0	1	3	24_1_3	NA	NA	0	1	3.55413103104	None	None	None	None	1
3.0.1	2019_Mar_09_1309	s	s	13	4	Capacity	10	1_4	1	4	1	3	23_1_3	0	1	1	0	0.893291950226	406.0	-228.0	409.0	-232.0	1
3.0.1	2019_Mar_09_1309	s	s	13	4	Capacity	11	ABS	0	0	1	3	24_1_3	NA	NA	0	1	3.3188791275	None	None	None	None	1
3.0.1	2019_Mar_09_1309	s	s	13	4	Capacity	12	ABS	0	0	1	2	24_1_2	NA	NA	0	1	3.73061585426	None	None	None	None	1
3.0.1	2019_Mar_09_1309	s	s	13	4	Capacity	13	ABS	0	0	1	2	24_1_2	NA	NA	0	1	2.67439603806	None	None	None	None	1
3.0.1	2019_Mar_09_1309	s	s	13	4	Capacity	14	ABS	0	0	1	1	24_1_1	NA	NA	0	1	1.7517991066	None	None	None	None	1
3.0.1	2019_Mar_09_1309	s	s	13	4	Capacity	15	1_2	1	2	1	4	23_1_4	0	2	1	0	0.613801956177	443.0	-206.0	443.0	-207.0	1
3.0.1	2019_Mar_09_1309	s	s	13	4	Capacity	16	ABS	0	0	1	1	24_1_1	NA	NA	0	1	1.99876594543	None	None	None	None	1
3.0.1	2019_Mar_09_1309	s	s	13	4	Capacity	17	ABS	0	0	1	4	24_1_4	NA	NA	0	1	1.66191697121	None	None	None	None	1
3.0.1	2019_Mar_09_1309	s	s	13	4	Capacity	18	1_2	1	2	1	3	23_1_3	0	1	1	0	3.93933391571	-426.0	-167.0	-420.0	-171.0	1
3.0.1	2019_Mar_09_1309	s	s	13	4	Capacity	19	1_1	1	1	1	3	23_1_3	0	2	1	0	1.16902208328	-492.0	127.0	-495.0	122.0	1
3.0.1	2019_Mar_09_1309	s	s	13	4	Capacity	20	1_3	1	3	1	2	23_1_2	0	1	0	1	3.76286888123	-128.0	-241.0	None	None	0
3.0.1	2019_Mar_09_1309	s	s	13	4	Capacity	21	ABS	0	0	1	2	24_1_2	NA	NA	0	1	2.59865808487	None	None	None	None	1
3.0.1	2019_Mar_09_1309	s	s	13	4	Capacity	22	1_4	1	4	1	2	23_1_2	0	2	1	0	0.672604084015	-452.0	166.0	-451.0	173.0	1
3.0.1	2019_Mar_09_1309	s	s	13	4	Capacity	23	1_3	1	3	1	1	23_1_1	0	2	1	0	1.14307689667	-69.0	-341.0	-71.0	-338.0	1
3.0.1	2019_Mar_09_1309	s	s	13	4	Capacity	24	1_3	1	3	1	4	23_1_4	0	-1	1	0	0.587410926819	-19.0	198.0	-21.0	200.0	1
3.0.1	2019_Mar_09_1309	s	s	13	4	Capacity	25	ABS	0	0	1	3	24_1_3	NA	NA	0	1	3.05718016624	None	None	None	None	1
3.0.1	2019_Mar_09_1309	s	s	13	4	Capacity	26	1_3	1	3	1	2	23_1_2	0	1	1	0	1.2606921196	-373.0	331.0	-373.0	332.0	1
3.0.1	2019_Mar_09_1309	s	s	13	4	Capacity	27	ABS	0	0	1	1	24_1_1	NA	NA	0	1	1.88105583191	None	None	None	None	1
3.0.1	2019_Mar_09_1309	s	s	13	4	Capacity	28	ABS	0	0	1	1	24_1_1	NA	NA	0	1	1.68116497993	None	None	None	None	1
3.0.1	2019_Mar_09_1309	s	s	13	4	Capacity	29	ABS	0	0	1	4	24_1_4	NA	NA	0	1	1.54467797279	None	None	None	None	1
3.0.1	2019_Mar_09_1309	s	s	13	4	Capacity	30	1_1	1	1	1	2	23_1_2	0	1	0	1	2.84938502312	174.0	-138.0	None	None	0
3.0.1	2019_Mar_09_1309	s	s	13	4	Capacity	31	ABS	0	0	1	4	24_1_4	NA	NA	0	1	1.51652407646	None	None	None	None	1
3.0.1	2019_Mar_09_1309	s	s	13	4	Capacity	32	ABS	0	0	1	4	24_1_4	NA	NA	0	1	1.19577217102	None	None	None	None	1
3.0.1	2019_Mar_09_1309	s	s	13	4	Capacity	33	1_2	1	2	1	1	23_1_1	0	-1	1	0	1.32397389412	-397.0	181.0	-394.0	179.0	1
3.0.1	2019_Mar_09_1309	s	s	13	4	Capacity	34	1_2	1	2	1	3	23_1_3	0	1	0	1	1.6875770092	356.0	346.0	None	None	0
3.0.1	2019_Mar_09_1309	s	s	13	4	Capacity	35	1_4	1	4	1	2	23_1_2	0	2	1	0	0.622654914856	453.0	154.0	456.0	159.0	1
3.0.1	2019_Mar_09_1309	s	s	13	4	Capacity	36	ABS	0	0	1	2	24_1_2	NA	NA	0	1	2.57764482498	None	None	None	None	1
3.0.1	2019_Mar_09_1309	s	s	13	4	Capacity	37	1_1	1	1	1	4	23_1_4	0	3	1	0	0.540765047073	-96.0	-11.0	-93.0	-17.0	1
3.0.1	2019_Mar_09_1309	s	s	13	4	Capacity	38	1_4	1	4	1	3	23_1_3	0	1	1	0	0.775572061539	-162.0	-275.0	-162.0	-280.0	1
3.0.1	2019_Mar_09_1309	s	s	13	4	Capacity	39	ABS	0	0	1	3	24_1_3	NA	NA	0	1	2.52081799507	None	None	None	None	1
3.0.1	2019_Mar_09_1309	s	s	13	4	Capacity	40	1_3	1	3	1	1	23_1_1	0	2	1	0	0.561100959778	-230.0	38.0	-230.0	37.0	1
3.0.1	2019_Mar_09_1309	s	s	13	4	Capacity	41	ABS	0	0	1	2	24_1_2	NA	NA	0	1	3.37936997414	None	None	None	None	1
3.0.1	2019_Mar_09_1309	s	s	13	4	Capacity	42	ABS	0	0	1	3	24_1_3	NA	NA	0	1	3.49916601181	None	None	None	None	1
3.0.1	2019_Mar_09_1309	s	s	13	4	Capacity	43	1_2	1	2	1	4	23_1_4	0	2	1	0	0.65034198761	138.0	348.0	136.0	344.0	1
3.0.1	2019_Mar_09_1309	s	s	13	4	Capacity	44	1_1	1	1	1	3	23_1_3	0	2	1	0	0.804413795471	-310.0	-47.0	-304.0	-40.0	1
3.0.1	2019_Mar_09_1309	s	s	13	4	Capacity	45	ABS	0	0	1	1	24_1_1	NA	NA	0	1	2.49271678925	None	None	None	None	1
3.0.1	2019_Mar_09_1309	s	s	13	4	Capacity	46	1_4	1	4	1	1	23_1_1	0	3	1	0	0.474807977676	224.0	-91.0	230.0	-97.0	1
3.0.1	2019_Mar_09_1309	s	s	13	4	Capacity	47	ABS	0	0	1	2	24_1_2	NA	NA	0	1	2.35153794289	None	None	None	None	1
3.0.1	2019_Mar_09_1309	s	s	13	4	Capacity	48	1_3	1	3	1	4	23_1_4	0	-1	1	0	0.65153002739	-376.0	278.0	-369.0	282.0	1
3.0.1	2019_Mar_09_1309	s	s	13	4	Capacity	49	ABS	0	0	1	4	24_1_4	NA	NA	0	1	1.56356811523	None	None	None	None	1
3.0.1	2019_Mar_09_1309	s	s	13	4	Capacity	50	ABS	0	0	1	1	24_1_1	NA	NA	0	1	2.56367492676	None	None	None	None	1
3.0.1	2019_Mar_09_1309	s	s	13	4	Capacity	51	ABS	0	0	1	4	24_1_4	NA	NA	0	1	1.83410191536	None	None	None	None	1
3.0.1	2019_Mar_09_1309	s	s	13	4	Capacity	52	1_3	1	3	1	2	23_1_2	0	1	0	1	4.83896684647	-210.0	407.0	None	None	0
3.0.1	2019_Mar_09_1309	s	s	13	4	Capacity	53	1_1	1	1	1	4	23_1_4	0	3	1	0	0.516906023026	455.0	34.0	456.0	35.0	1
3.0.1	2019_Mar_09_1309	s	s	13	4	Capacity	54	ABS	0	0	1	1	24_1_1	NA	NA	0	1	1.77527284622	None	None	None	None	1
3.0.1	2019_Mar_09_1309	s	s	13	4	Capacity	55	1_2	1	2	1	3	23_1_3	0	1	0	1	3.18657684326	-260.0	-10.0	None	None	0
3.0.1	2019_Mar_09_1309	s	s	13	4	Capacity	56	ABS	0	0	1	2	24_1_2	NA	NA	0	1	3.2677230835	None	None	None	None	1
3.0.1	2019_Mar_09_1309	s	s	13	4	Capacity	57	1_2	1	2	1	1	23_1_1	0	-1	0	1	1.90971922874	-250.0	230.0	None	None	0
3.0.1	2019_Mar_09_1309	s	s	13	4	Capacity	58	ABS	0	0	1	4	24_1_4	NA	NA	0	1	1.38708996773	None	None	None	None	1
3.0.1	2019_Mar_09_1309	s	s	13	4	Capacity	59	ABS	0	0	1	3	24_1_3	NA	NA	0	1	2.23396492004	None	None	None	None	1
3.0.1	2019_Mar_09_1309	s	s	13	4	Capacity	60	1_4	1	4	1	3	23_1_3	0	1	1	0	0.799108982086	-426.0	-368.0	-426.0	-373.0	1
3.0.1	2019_Mar_09_1309	s	s	13	4	Capacity	61	ABS	0	0	1	2	24_1_2	NA	NA	0	1	3.23367786407	None	None	None	None	1
3.0.1	2019_Mar_09_1309	s	s	13	4	Capacity	62	1_1	1	1	1	2	23_1_2	0	1	0	1	3.08078789711	-262.0	-152.0	None	None	0
3.0.1	2019_Mar_09_1309	s	s	13	4	Capacity	63	ABS	0	0	1	2	24_1_2	NA	NA	0	1	3.36297416687	None	None	None	None	1
3.0.1	2019_Mar_09_1309	s	s	13	4	Capacity	64	1_4	1	4	1	2	23_1_2	0	2	1	0	1.30488300323	-77.0	175.0	-82.0	171.0	1
3.0.1	2019_Mar_09_1309	s	s	13	4	Capacity	65	1_4	1	4	1	1	23_1_1	0	3	1	0	0.575676202774	49.0	-213.0	48.0	-218.0	1
3.0.1	2019_Mar_09_1309	s	s	13	4	Capacity	66	1_3	1	3	1	4	23_1_4	0	-1	1	0	0.657993078232	529.0	-12.0	534.0	-17.0	1
3.0.1	2019_Mar_09_1309	s	s	13	4	Capacity	67	ABS	0	0	1	3	24_1_3	NA	NA	0	1	3.22235393524	None	None	None	None	1
3.0.1	2019_Mar_09_1309	s	s	13	4	Capacity	68	ABS	0	0	1	3	24_1_3	NA	NA	0	1	2.41037797928	None	None	None	None	1
3.0.1	2019_Mar_09_1309	s	s	13	4	Capacity	69	ABS	0	0	1	1	24_1_1	NA	NA	0	1	1.64588809013	None	None	None	None	1
3.0.1	2019_Mar_09_1309	s	s	13	4	Capacity	70	1_2	1	2	1	4	23_1_4	0	2	1	0	0.599238872528	363.0	-404.0	366.0	-405.0	1
3.0.1	2019_Mar_09_1309	s	s	13	4	Capacity	71	1_1	1	1	1	3	23_1_3	0	2	1	0	0.599166870117	-47.0	182.0	-47.0	183.0	1
3.0.1	2019_Mar_09_1309	s	s	13	4	Capacity	72	1_3	1	3	1	1	23_1_1	0	2	1	0	2.17507219315	-192.0	-340.0	-184.0	-342.0	1
3.0.1	2019_Mar_09_1309	s	s	13	4	Capacity	73	ABS	0	0	1	2	24_1_2	NA	NA	0	1	3.29245901108	None	None	None	None	1
3.0.1	2019_Mar_09_1309	s	s	13	4	Capacity	74	1_2	1	2	1	3	23_1_3	0	1	0	1	3.96329379082	240.0	-263.0	None	None	0
3.0.1	2019_Mar_09_1309	s	s	13	4	Capacity	75	1_4	1	4	1	2	23_1_2	0	2	1	0	0.816679000854	92.0	125.0	90.0	126.0	1
3.0.1	2019_Mar_09_1309	s	s	13	4	Capacity	76	1_2	1	2	1	1	23_1_1	0	-1	1	0	3.77752804756	-258.0	-235.0	-258.0	-235.0	1
3.0.1	2019_Mar_09_1309	s	s	13	4	Capacity	77	1_3	1	3	1	4	23_1_4	0	-1	1	0	1.06956195831	-320.0	-268.0	-318.0	-276.0	1
3.0.1	2019_Mar_09_1309	s	s	13	4	Capacity	78	ABS	0	0	1	3	24_1_3	NA	NA	0	1	4.19129705429	None	None	None	None	1
3.0.1	2019_Mar_09_1309	s	s	13	4	Capacity	79	ABS	0	0	1	3	24_1_3	NA	NA	0	1	3.65706896782	None	None	None	None	1
3.0.1	2019_Mar_09_1309	s	s	13	4	Capacity	80	1_1	1	1	1	4	23_1_4	0	3	1	0	0.516752004623	122.0	-240.0	119.0	-235.0	1
3.0.1	2019_Mar_09_1309	s	s	13	4	Capacity	81	ABS	0	0	1	4	24_1_4	NA	NA	0	1	1.62840795517	None	None	None	None	1
3.0.1	2019_Mar_09_1309	s	s	13	4	Capacity	82	1_3	1	3	1	2	23_1_2	0	1	1	0	1.75527381897	-479.0	224.0	-475.0	225.0	1
3.0.1	2019_Mar_09_1309	s	s	13	4	Capacity	83	1_1	1	1	1	3	23_1_3	0	2	1	0	0.92264008522	303.0	-41.0	305.0	-46.0	1
3.0.1	2019_Mar_09_1309	s	s	13	4	Capacity	84	1_2	1	2	1	4	23_1_4	0	2	1	0	0.65029501915	458.0	-374.0	464.0	-373.0	1
3.0.1	2019_Mar_09_1309	s	s	13	4	Capacity	85	ABS	0	0	1	4	24_1_4	NA	NA	0	1	1.51650691032	None	None	None	None	1
3.0.1	2019_Mar_09_1309	s	s	13	4	Capacity	86	ABS	0	0	1	1	24_1_1	NA	NA	0	1	2.46918082237	None	None	None	None	1
3.0.1	2019_Mar_09_1309	s	s	13	4	Capacity	87	ABS	0	0	1	4	24_1_4	NA	NA	0	1	1.17547392845	None	None	None	None	1
3.0.1	2019_Mar_09_1309	s	s	13	4	Capacity	88	1_3	1	3	1	1	23_1_1	0	2	1	0	1.5521709919	-421.0	299.0	-418.0	301.0	1
3.0.1	2019_Mar_09_1309	s	s	13	4	Capacity	89	ABS	0	0	1	1	24_1_1	NA	NA	0	1	1.64605617523	None	None	None	None	1
3.0.1	2019_Mar_09_1309	s	s	13	4	Capacity	90	1_1	1	1	1	2	23_1_2	0	1	0	1	2.95647287369	443.0	297.0	None	None	0
3.0.1	2019_Mar_09_1309	s	s	13	4	Capacity	91	ABS	0	0	1	2	24_1_2	NA	NA	0	1	3.13955998421	None	None	None	None	1
3.0.1	2019_Mar_09_1309	s	s	13	4	Capacity	92	1_4	1	4	1	1	23_1_1	0	3	1	0	0.569036006927	-115.0	-36.0	-111.0	-41.0	1
3.0.1	2019_Mar_09_1309	s	s	13	4	Capacity	93	ABS	0	0	1	1	24_1_1	NA	NA	0	1	2.11924099922	None	None	None	None	1
3.0.1	2019_Mar_09_1309	s	s	13	4	Capacity	94	ABS	0	0	1	2	24_1_2	NA	NA	0	1	3.71587300301	None	None	None	None	1
3.0.1	2019_Mar_09_1309	s	s	13	4	Capacity	95	1_4	1	4	1	3	23_1_3	0	1	1	0	0.627861022949	-331.0	214.0	-335.0	217.0	1
3.0.1	2019_Mar_09_1309	s	s	13	4	Capacity	96	ABS	0	0	1	3	24_1_3	NA	NA	0	1	3.09757995605	None	None	None	None	1
3.0.1	2019_Mar_09_1309	s	s	13	4	Capacity	1	1_1	1	1	4	1	23_4_1	3	0	1	0	0.611377954483	168.0	48.0	169.0	52.0	1
3.0.1	2019_Mar_09_1309	s	s	13	4	Capacity	2	3_1	3	1	2	1	23_2_1	1	0	1	0	0.587371110916	-217.0	192.0	-222.0	190.0	1
3.0.1	2019_Mar_09_1309	s	s	13	4	Capacity	3	2_1	2	1	1	1	23_1_1	-1	0	0	1	5.03305101395	-193.0	161.0	None	None	0
3.0.1	2019_Mar_09_1309	s	s	13	4	Capacity	4	3_1	3	1	4	1	23_4_1	-1	0	1	0	0.554985046387	-98.0	-77.0	-101.0	-87.0	1
3.0.1	2019_Mar_09_1309	s	s	13	4	Capacity	5	ABS	0	0	3	1	24_3_1	NA	NA	0	1	1.43708300591	None	None	None	None	1
3.0.1	2019_Mar_09_1309	s	s	13	4	Capacity	6	ABS	0	0	1	1	24_1_1	NA	NA	0	1	1.92814993858	None	None	None	None	1
3.0.1	2019_Mar_09_1309	s	s	13	4	Capacity	7	ABS	0	0	2	1	24_2_1	NA	NA	0	1	1.35188484192	None	None	None	None	1
3.0.1	2019_Mar_09_1309	s	s	13	4	Capacity	8	4_1	4	1	2	1	23_2_1	2	0	1	0	0.522123813629	25.0	-393.0	27.0	-399.0	1
3.0.1	2019_Mar_09_1309	s	s	13	4	Capacity	9	ABS	0	0	4	1	24_4_1	NA	NA	0	1	0.693264007568	None	None	None	None	1
3.0.1	2019_Mar_09_1309	s	s	13	4	Capacity	10	4_1	4	1	3	1	23_3_1	1	0	1	0	0.496575117111	-413.0	234.0	-411.0	238.0	1
3.0.1	2019_Mar_09_1309	s	s	13	4	Capacity	11	ABS	0	0	4	1	24_4_1	NA	NA	0	1	0.736880064011	None	None	None	None	1
3.0.1	2019_Mar_09_1309	s	s	13	4	Capacity	12	ABS	0	0	3	1	24_3_1	NA	NA	0	1	1.13504695892	None	None	None	None	1
3.0.1	2019_Mar_09_1309	s	s	13	4	Capacity	13	2_1	2	1	3	1	23_3_1	1	0	1	0	0.637233018875	-105.0	-410.0	-108.0	-413.0	1
3.0.1	2019_Mar_09_1309	s	s	13	4	Capacity	14	ABS	0	0	1	1	24_1_1	NA	NA	0	1	1.37008786201	None	None	None	None	1
3.0.1	2019_Mar_09_1309	s	s	13	4	Capacity	15	4_1	4	1	1	1	23_1_1	3	0	1	0	0.451340913773	381.0	8.0	374.0	7.0	1
3.0.1	2019_Mar_09_1309	s	s	13	4	Capacity	16	2_1	2	1	4	1	23_4_1	2	0	1	0	0.484384059906	-425.0	329.0	-421.0	326.0	1
3.0.1	2019_Mar_09_1309	s	s	13	4	Capacity	17	ABS	0	0	4	1	24_4_1	NA	NA	0	1	0.709860086441	None	None	None	None	1
3.0.1	2019_Mar_09_1309	s	s	13	4	Capacity	18	ABS	0	0	2	1	24_2_1	NA	NA	0	1	1.7235519886	None	None	None	None	1
3.0.1	2019_Mar_09_1309	s	s	13	4	Capacity	19	1_1	1	1	3	1	23_3_1	2	0	1	0	0.622797012329	116.0	-21.0	122.0	-24.0	1
3.0.1	2019_Mar_09_1309	s	s	13	4	Capacity	20	1_1	1	1	2	1	23_2_1	1	0	1	0	4.08687496185	-172.0	220.0	-169.0	221.0	1
3.0.1	2019_Mar_09_1309	s	s	13	4	Capacity	21	ABS	0	0	2	1	24_2_1	NA	NA	0	1	1.90755200386	None	None	None	None	1
3.0.1	2019_Mar_09_1309	s	s	13	4	Capacity	22	3_1	3	1	1	1	23_1_1	2	0	1	0	0.521209001541	-192.0	-409.0	-190.0	-414.0	1
3.0.1	2019_Mar_09_1309	s	s	13	4	Capacity	23	ABS	0	0	3	1	24_3_1	NA	NA	0	1	1.03994607925	None	None	None	None	1
3.0.1	2019_Mar_09_1309	s	s	13	4	Capacity	24	ABS	0	0	1	1	24_1_1	NA	NA	0	1	1.04607701302	None	None	None	None	1
3.0.1	2019_Mar_09_1309	s	s	13	4	Capacity	25	ABS	0	0	2	1	24_2_1	NA	NA	0	1	0.898288011551	None	None	None	None	1
3.0.1	2019_Mar_09_1309	s	s	13	4	Capacity	26	2_1	2	1	1	1	23_1_1	-1	0	0	1	1.09669494629	-522.0	-156.0	None	None	0
3.0.1	2019_Mar_09_1309	s	s	13	4	Capacity	27	ABS	0	0	3	1	24_3_1	NA	NA	0	1	0.780709981918	None	None	None	None	1
3.0.1	2019_Mar_09_1309	s	s	13	4	Capacity	28	ABS	0	0	4	1	24_4_1	NA	NA	0	1	0.744829177856	None	None	None	None	1
3.0.1	2019_Mar_09_1309	s	s	13	4	Capacity	29	4_1	4	1	2	1	23_2_1	2	0	1	0	0.557241916656	141.0	376.0	140.0	370.0	1
3.0.1	2019_Mar_09_1309	s	s	13	4	Capacity	30	ABS	0	0	3	1	24_3_1	NA	NA	0	1	0.834480047226	None	None	None	None	1
3.0.1	2019_Mar_09_1309	s	s	13	4	Capacity	31	3_1	3	1	2	1	23_2_1	1	0	1	0	0.791220903397	408.0	233.0	405.0	232.0	1
3.0.1	2019_Mar_09_1309	s	s	13	4	Capacity	32	ABS	0	0	3	1	24_3_1	NA	NA	0	1	0.687527179718	None	None	None	None	1
3.0.1	2019_Mar_09_1309	s	s	13	4	Capacity	33	1_1	1	1	4	1	23_4_1	3	0	1	0	0.44629406929	405.0	230.0	408.0	229.0	1
3.0.1	2019_Mar_09_1309	s	s	13	4	Capacity	34	3_1	3	1	4	1	23_4_1	-1	0	1	0	0.540385961533	300.0	208.0	308.0	205.0	1
3.0.1	2019_Mar_09_1309	s	s	13	4	Capacity	35	2_1	2	1	4	1	23_4_1	2	0	1	0	0.486613035202	-297.0	-250.0	-297.0	-257.0	1
3.0.1	2019_Mar_09_1309	s	s	13	4	Capacity	36	ABS	0	0	1	1	24_1_1	NA	NA	0	1	1.14015102386	None	None	None	None	1
3.0.1	2019_Mar_09_1309	s	s	13	4	Capacity	37	4_1	4	1	1	1	23_1_1	3	0	1	0	0.422766208649	-381.0	312.0	-386.0	308.0	1
3.0.1	2019_Mar_09_1309	s	s	13	4	Capacity	38	ABS	0	0	1	1	24_1_1	NA	NA	0	1	0.886160135269	None	None	None	None	1
3.0.1	2019_Mar_09_1309	s	s	13	4	Capacity	39	3_1	3	1	1	1	23_1_1	2	0	1	0	0.481539011002	-111.0	80.0	-111.0	82.0	1
3.0.1	2019_Mar_09_1309	s	s	13	4	Capacity	40	ABS	0	0	1	1	24_1_1	NA	NA	0	1	0.88136100769	None	None	None	None	1
3.0.1	2019_Mar_09_1309	s	s	13	4	Capacity	41	ABS	0	0	2	1	24_2_1	NA	NA	0	1	0.975487947464	None	None	None	None	1
3.0.1	2019_Mar_09_1309	s	s	13	4	Capacity	42	1_1	1	1	2	1	23_2_1	1	0	0	1	1.0112349987	108.0	297.0	None	None	0
3.0.1	2019_Mar_09_1309	s	s	13	4	Capacity	43	2_1	2	1	3	1	23_3_1	1	0	0	1	0.269835948944	-279.0	-75.0	None	None	0
3.0.1	2019_Mar_09_1309	s	s	13	4	Capacity	44	ABS	0	0	4	1	24_4_1	NA	NA	0	1	0.731400966644	None	None	None	None	1
3.0.1	2019_Mar_09_1309	s	s	13	4	Capacity	45	4_1	4	1	3	1	23_3_1	1	0	1	0	0.516820907593	-539.0	-307.0	-541.0	-311.0	1
3.0.1	2019_Mar_09_1309	s	s	13	4	Capacity	46	1_1	1	1	3	1	23_3_1	2	0	1	0	0.59916305542	-298.0	-321.0	-295.0	-330.0	1
3.0.1	2019_Mar_09_1309	s	s	13	4	Capacity	47	ABS	0	0	2	1	24_2_1	NA	NA	0	1	1.70468902588	None	None	None	None	1
3.0.1	2019_Mar_09_1309	s	s	13	4	Capacity	48	ABS	0	0	4	1	24_4_1	NA	NA	0	1	0.775612831116	None	None	None	None	1
3.0.1	2019_Mar_09_1309	s	s	13	4	Capacity	49	ABS	0	0	3	1	24_3_1	NA	NA	0	1	0.898183822632	None	None	None	None	1
3.0.1	2019_Mar_09_1309	s	s	13	4	Capacity	50	ABS	0	0	3	1	24_3_1	NA	NA	0	1	0.51685500145	None	None	None	None	1
3.0.1	2019_Mar_09_1309	s	s	13	4	Capacity	51	ABS	0	0	2	1	24_2_1	NA	NA	0	1	0.790279865265	None	None	None	None	1
3.0.1	2019_Mar_09_1309	s	s	13	4	Capacity	52	ABS	0	0	4	1	24_4_1	NA	NA	0	1	0.457988977432	None	None	None	None	1
3.0.1	2019_Mar_09_1309	s	s	13	4	Capacity	53	1_1	1	1	4	1	23_4_1	3	0	1	0	0.540361166	447.0	347.0	449.0	351.0	1
3.0.1	2019_Mar_09_1309	s	s	13	4	Capacity	54	3_1	3	1	2	1	23_2_1	1	0	1	0	0.587459087372	524.0	146.0	532.0	142.0	1
3.0.1	2019_Mar_09_1309	s	s	13	4	Capacity	55	ABS	0	0	2	1	24_2_1	NA	NA	0	1	1.15694904327	None	None	None	None	1
3.0.1	2019_Mar_09_1309	s	s	13	4	Capacity	56	4_1	4	1	3	1	23_3_1	1	0	1	0	0.587376832962	392.0	-113.0	391.0	-113.0	1
3.0.1	2019_Mar_09_1309	s	s	13	4	Capacity	57	ABS	0	0	4	1	24_4_1	NA	NA	0	1	0.698268890381	None	None	None	None	1
3.0.1	2019_Mar_09_1309	s	s	13	4	Capacity	58	1_1	1	1	3	1	23_3_1	2	0	1	0	0.505057096481	-106.0	215.0	-111.0	215.0	1
3.0.1	2019_Mar_09_1309	s	s	13	4	Capacity	59	ABS	0	0	1	1	24_1_1	NA	NA	0	1	0.869609117508	None	None	None	None	1
3.0.1	2019_Mar_09_1309	s	s	13	4	Capacity	60	ABS	0	0	2	1	24_2_1	NA	NA	0	1	1.20187091827	None	None	None	None	1
3.0.1	2019_Mar_09_1309	s	s	13	4	Capacity	61	2_1	2	1	3	1	23_3_1	1	0	1	0	0.981085777283	-278.0	-342.0	-286.0	-344.0	1
3.0.1	2019_Mar_09_1309	s	s	13	4	Capacity	62	4_1	4	1	1	1	23_1_1	3	0	1	0	0.591352939606	-337.0	395.0	-342.0	393.0	1
3.0.1	2019_Mar_09_1309	s	s	13	4	Capacity	63	2_1	2	1	1	1	23_1_1	-1	0	0	1	1.4106900692	39.0	-389.0	None	None	0
3.0.1	2019_Mar_09_1309	s	s	13	4	Capacity	64	4_1	4	1	2	1	23_2_1	2	0	1	0	0.474549055099	-463.0	-229.0	-460.0	-225.0	1
3.0.1	2019_Mar_09_1309	s	s	13	4	Capacity	65	1_1	1	1	2	1	23_2_1	1	0	0	1	1.16363406181	367.0	-186.0	None	None	0
3.0.1	2019_Mar_09_1309	s	s	13	4	Capacity	66	ABS	0	0	3	1	24_3_1	NA	NA	0	1	0.775669813156	None	None	None	None	1
3.0.1	2019_Mar_09_1309	s	s	13	4	Capacity	67	ABS	0	0	4	1	24_4_1	NA	NA	0	1	1.02542901039	None	None	None	None	1
3.0.1	2019_Mar_09_1309	s	s	13	4	Capacity	68	ABS	0	0	1	1	24_1_1	NA	NA	0	1	1.0578520298	None	None	None	None	1
3.0.1	2019_Mar_09_1309	s	s	13	4	Capacity	69	ABS	0	0	1	1	24_1_1	NA	NA	0	1	0.681639909744	None	None	None	None	1
3.0.1	2019_Mar_09_1309	s	s	13	4	Capacity	70	3_1	3	1	4	1	23_4_1	-1	0	1	0	0.646255016327	496.0	159.0	493.0	165.0	1
3.0.1	2019_Mar_09_1309	s	s	13	4	Capacity	71	3_1	3	1	1	1	23_1_1	2	0	1	0	0.746163129807	-419.0	-299.0	-417.0	-303.0	1
3.0.1	2019_Mar_09_1309	s	s	13	4	Capacity	72	2_1	2	1	4	1	23_4_1	2	0	1	0	0.563865184784	77.0	-381.0	71.0	-382.0	1
3.0.1	2019_Mar_09_1309	s	s	13	4	Capacity	73	3_1	3	1	4	1	23_4_1	-1	0	1	0	0.422749996185	-299.0	68.0	-297.0	63.0	1
3.0.1	2019_Mar_09_1309	s	s	13	4	Capacity	74	1_1	1	1	4	1	23_4_1	3	0	1	0	0.422668933868	242.0	-397.0	243.0	-400.0	1
3.0.1	2019_Mar_09_1309	s	s	13	4	Capacity	75	ABS	0	0	4	1	24_4_1	NA	NA	0	1	0.678175926208	None	None	None	None	1
3.0.1	2019_Mar_09_1309	s	s	13	4	Capacity	76	1_1	1	1	3	1	23_3_1	2	0	1	0	0.587351083755	159.0	315.0	160.0	310.0	1
3.0.1	2019_Mar_09_1309	s	s	13	4	Capacity	77	3_1	3	1	1	1	23_1_1	2	0	1	0	0.496234893799	120.0	-161.0	116.0	-162.0	1
3.0.1	2019_Mar_09_1309	s	s	13	4	Capacity	78	ABS	0	0	4	1	24_4_1	NA	NA	0	1	0.67871594429	None	None	None	None	1
3.0.1	2019_Mar_09_1309	s	s	13	4	Capacity	79	3_1	3	1	2	1	23_2_1	1	0	1	0	0.560949802399	-204.0	193.0	-198.0	191.0	1
3.0.1	2019_Mar_09_1309	s	s	13	4	Capacity	80	ABS	0	0	2	1	24_2_1	NA	NA	0	1	1.16381192207	None	None	None	None	1
3.0.1	2019_Mar_09_1309	s	s	13	4	Capacity	81	ABS	0	0	1	1	24_1_1	NA	NA	0	1	0.775638103485	None	None	None	None	1
3.0.1	2019_Mar_09_1309	s	s	13	4	Capacity	82	ABS	0	0	3	1	24_3_1	NA	NA	0	1	0.672645807266	None	None	None	None	1
3.0.1	2019_Mar_09_1309	s	s	13	4	Capacity	83	ABS	0	0	3	1	24_3_1	NA	NA	0	1	0.716816902161	None	None	None	None	1
3.0.1	2019_Mar_09_1309	s	s	13	4	Capacity	84	ABS	0	0	3	1	24_3_1	NA	NA	0	1	0.681468963623	None	None	None	None	1
3.0.1	2019_Mar_09_1309	s	s	13	4	Capacity	85	4_1	4	1	3	1	23_3_1	1	0	1	0	0.528632879257	162.0	-112.0	170.0	-117.0	1
3.0.1	2019_Mar_09_1309	s	s	13	4	Capacity	86	4_1	4	1	2	1	23_2_1	2	0	1	0	0.469835042953	18.0	-360.0	13.0	-358.0	1
3.0.1	2019_Mar_09_1309	s	s	13	4	Capacity	87	ABS	0	0	4	1	24_4_1	NA	NA	0	1	0.651357889175	None	None	None	None	1
3.0.1	2019_Mar_09_1309	s	s	13	4	Capacity	88	2_1	2	1	1	1	23_1_1	-1	0	1	0	1.01087117195	-391.0	189.0	-394.0	185.0	1
3.0.1	2019_Mar_09_1309	s	s	13	4	Capacity	89	ABS	0	0	2	1	24_2_1	NA	NA	0	1	1.62845993042	None	None	None	None	1
3.0.1	2019_Mar_09_1309	s	s	13	4	Capacity	90	2_1	2	1	3	1	23_3_1	1	0	1	0	0.621104001999	288.0	102.0	289.0	101.0	1
3.0.1	2019_Mar_09_1309	s	s	13	4	Capacity	91	ABS	0	0	1	1	24_1_1	NA	NA	0	1	1.02841496468	None	None	None	None	1
3.0.1	2019_Mar_09_1309	s	s	13	4	Capacity	92	1_1	1	1	2	1	23_2_1	1	0	0	1	0.928417921066	93.0	-234.0	None	None	0
3.0.1	2019_Mar_09_1309	s	s	13	4	Capacity	93	4_1	4	1	1	1	23_1_1	3	0	1	0	0.505604028702	443.0	356.0	446.0	355.0	1
3.0.1	2019_Mar_09_1309	s	s	13	4	Capacity	94	ABS	0	0	2	1	24_2_1	NA	NA	0	1	1.22248697281	None	None	None	None	1
3.0.1	2019_Mar_09_1309	s	s	13	4	Capacity	95	ABS	0	0	1	1	24_1_1	NA	NA	0	1	0.709784984589	None	None	None	None	1
3.0.1	2019_Mar_09_1309	s	s	13	4	Capacity	96	2_1	2	1	4	1	23_4_1	2	0	1	0	0.563863992691	506.0	-350.0	507.0	-348.0	1
3.0.1	2019_Mar_09_1309	s	s	13	4	SIC	1	4_4	4	4	3	2	23_3_2	1	2	1	0	0.496549844742	155.0	349.0	150.0	347.0	1
3.0.1	2019_Mar_09_1309	s	s	13	4	SIC	2	1_2	1	2	4	2	23_4_2	3	0	1	0	0.392735004425	-467.0	171.0	-465.0	169.0	1
3.0.1	2019_Mar_09_1309	s	s	13	4	SIC	3	2_4	2	4	3	4	23_3_4	1	0	1	0	0.501215934753	160.0	-168.0	158.0	-171.0	1
3.0.1	2019_Mar_09_1309	s	s	13	4	SIC	4	ABS	0	0	4	4	24_4_4	NA	NA	0	1	1.20297408104	None	None	None	None	1
3.0.1	2019_Mar_09_1309	s	s	13	4	SIC	5	ABS	0	0	3	2	24_3_2	NA	NA	0	1	3.93090415001	None	None	None	None	1
3.0.1	2019_Mar_09_1309	s	s	13	4	SIC	6	ABS	0	0	2	2	24_2_2	NA	NA	0	1	4.32067203522	None	None	None	None	1
3.0.1	2019_Mar_09_1309	s	s	13	4	SIC	7	2_3	2	3	2	4	23_2_4	0	-1	1	0	0.716827869415	-228.0	71.0	-230.0	67.0	1
3.0.1	2019_Mar_09_1309	s	s	13	4	SIC	8	4_1	4	1	3	2	23_3_2	1	1	1	0	0.496232032776	-467.0	290.0	-468.0	292.0	1
3.0.1	2019_Mar_09_1309	s	s	13	4	SIC	9	1_3	1	3	1	1	23_1_1	0	2	1	0	2.71905994415	475.0	394.0	482.0	397.0	1
3.0.1	2019_Mar_09_1309	s	s	13	4	SIC	10	ABS	0	0	4	4	24_4_4	NA	NA	0	1	1.71649217606	None	None	None	None	1
3.0.1	2019_Mar_09_1309	s	s	13	4	SIC	11	ABS	0	0	3	3	24_3_3	NA	NA	0	1	3.16305994987	None	None	None	None	1
3.0.1	2019_Mar_09_1309	s	s	13	4	SIC	12	ABS	0	0	2	2	24_2_2	NA	NA	0	1	3.06899404526	None	None	None	None	1
3.0.1	2019_Mar_09_1309	s	s	13	4	SIC	13	4_3	4	3	2	2	23_2_2	2	1	1	0	0.563889980316	-173.0	-142.0	-171.0	-143.0	1
3.0.1	2019_Mar_09_1309	s	s	13	4	SIC	14	ABS	0	0	3	4	24_3_4	NA	NA	0	1	1.71646404266	None	None	None	None	1
3.0.1	2019_Mar_09_1309	s	s	13	4	SIC	15	ABS	0	0	3	1	24_3_1	NA	NA	0	1	1.9634540081	None	None	None	None	1
3.0.1	2019_Mar_09_1309	s	s	13	4	SIC	16	ABS	0	0	1	4	24_1_4	NA	NA	0	1	1.49304795265	None	None	None	None	1
3.0.1	2019_Mar_09_1309	s	s	13	4	SIC	17	ABS	0	0	1	1	24_1_1	NA	NA	0	1	2.71619391441	None	None	None	None	1
3.0.1	2019_Mar_09_1309	s	s	13	4	SIC	18	4_3	4	3	1	1	23_1_1	3	2	1	0	0.54042506218	229.0	-336.0	235.0	-338.0	1
3.0.1	2019_Mar_09_1309	s	s	13	4	SIC	19	ABS	0	0	2	1	24_2_1	NA	NA	0	1	1.81044793129	None	None	None	None	1
3.0.1	2019_Mar_09_1309	s	s	13	4	SIC	20	2_2	2	2	1	4	23_1_4	-1	2	1	0	0.54690694809	-70.0	-117.0	-70.0	-121.0	1
3.0.1	2019_Mar_09_1309	s	s	13	4	SIC	21	1_4	1	4	2	2	23_2_2	1	2	1	0	0.587810993195	-531.0	-40.0	-528.0	-37.0	1
3.0.1	2019_Mar_09_1309	s	s	13	4	SIC	22	2_2	2	2	1	3	23_1_3	-1	1	1	0	1.38462400436	432.0	-280.0	440.0	-280.0	1
3.0.1	2019_Mar_09_1309	s	s	13	4	SIC	23	ABS	0	0	2	1	24_2_1	NA	NA	0	1	2.14272713661	None	None	None	None	1
3.0.1	2019_Mar_09_1309	s	s	13	4	SIC	24	ABS	0	0	2	3	24_2_3	NA	NA	0	1	3.95107102394	None	None	None	None	1
3.0.1	2019_Mar_09_1309	s	s	13	4	SIC	25	ABS	0	0	1	4	24_1_4	NA	NA	0	1	1.98990893364	None	None	None	None	1
3.0.1	2019_Mar_09_1309	s	s	13	4	SIC	26	ABS	0	0	2	3	24_2_3	NA	NA	0	1	3.53994417191	None	None	None	None	1
3.0.1	2019_Mar_09_1309	s	s	13	4	SIC	27	ABS	0	0	1	4	24_1_4	NA	NA	0	1	2.01049399376	None	None	None	None	1
3.0.1	2019_Mar_09_1309	s	s	13	4	SIC	28	2_2	2	2	4	1	23_4_1	2	-1	1	0	0.563910007477	483.0	-276.0	488.0	-279.0	1
3.0.1	2019_Mar_09_1309	s	s	13	4	SIC	29	ABS	0	0	3	2	24_3_2	NA	NA	0	1	3.46888399124	None	None	None	None	1
3.0.1	2019_Mar_09_1309	s	s	13	4	SIC	30	ABS	0	0	3	3	24_3_3	NA	NA	0	1	3.29255104065	None	None	None	None	1
3.0.1	2019_Mar_09_1309	s	s	13	4	SIC	31	1_4	1	4	1	2	23_1_2	0	2	1	0	0.634346961975	-191.0	178.0	-186.0	176.0	1
3.0.1	2019_Mar_09_1309	s	s	13	4	SIC	32	3_2	3	2	3	4	23_3_4	0	2	1	0	0.687145233154	-331.0	-213.0	-336.0	-204.0	1
3.0.1	2019_Mar_09_1309	s	s	13	4	SIC	33	4_4	4	4	2	2	23_2_2	2	2	1	0	0.437412023544	-177.0	2.0	-167.0	0.0	1
3.0.1	2019_Mar_09_1309	s	s	13	4	SIC	34	4_1	4	1	2	2	23_2_2	2	1	1	0	0.46976017952	352.0	-239.0	353.0	-244.0	1
3.0.1	2019_Mar_09_1309	s	s	13	4	SIC	35	1_1	1	1	3	4	23_3_4	2	3	1	0	0.458027124405	-434.0	-118.0	-438.0	-120.0	1
3.0.1	2019_Mar_09_1309	s	s	13	4	SIC	36	2_2	2	2	3	2	23_3_2	1	0	1	0	0.928519964218	-373.0	135.0	-371.0	131.0	1
3.0.1	2019_Mar_09_1309	s	s	13	4	SIC	37	2_2	2	2	2	3	23_2_3	0	1	1	0	2.92068004608	-316.0	-411.0	-315.0	-416.0	1
3.0.1	2019_Mar_09_1309	s	s	13	4	SIC	38	ABS	0	0	1	4	24_1_4	NA	NA	0	1	1.54522609711	None	None	None	None	1
3.0.1	2019_Mar_09_1309	s	s	13	4	SIC	39	ABS	0	0	4	3	24_4_3	NA	NA	0	1	3.59822511673	None	None	None	None	1
3.0.1	2019_Mar_09_1309	s	s	13	4	SIC	40	1_1	1	1	2	4	23_2_4	1	3	1	0	0.61093211174	512.0	377.0	518.0	378.0	1
3.0.1	2019_Mar_09_1309	s	s	13	4	SIC	41	ABS	0	0	4	3	24_4_3	NA	NA	0	1	3.39828300476	None	None	None	None	1
3.0.1	2019_Mar_09_1309	s	s	13	4	SIC	42	ABS	0	0	2	4	24_2_4	NA	NA	0	1	1.91356611252	None	None	None	None	1
3.0.1	2019_Mar_09_1309	s	s	13	4	SIC	43	4_1	4	1	4	4	23_4_4	0	3	1	0	0.605559110641	-159.0	410.0	-161.0	409.0	1
3.0.1	2019_Mar_09_1309	s	s	13	4	SIC	44	ABS	0	0	2	1	24_2_1	NA	NA	0	1	1.91284894943	None	None	None	None	1
3.0.1	2019_Mar_09_1309	s	s	13	4	SIC	45	1_2	1	2	2	3	23_2_3	1	1	1	0	1.45769286156	202.0	156.0	198.0	157.0	1
3.0.1	2019_Mar_09_1309	s	s	13	4	SIC	46	3_2	3	2	1	3	23_1_3	2	1	1	0	0.570349931717	236.0	-105.0	232.0	-106.0	1
3.0.1	2019_Mar_09_1309	s	s	13	4	SIC	47	4_4	4	4	4	2	23_4_2	0	2	1	0	0.775757074356	70.0	-291.0	64.0	-292.0	1
3.0.1	2019_Mar_09_1309	s	s	13	4	SIC	48	ABS	0	0	2	3	24_2_3	NA	NA	0	1	4.12742710114	None	None	None	None	1
3.0.1	2019_Mar_09_1309	s	s	13	4	SIC	49	3_4	3	4	1	4	23_1_4	2	0	1	0	1.23805999756	258.0	251.0	254.0	249.0	1
3.0.1	2019_Mar_09_1309	s	s	13	4	SIC	50	ABS	0	0	1	3	24_1_3	NA	NA	0	1	4.43623185158	None	None	None	None	1
3.0.1	2019_Mar_09_1309	s	s	13	4	SIC	51	2_1	2	1	2	3	23_2_3	0	2	1	0	1.44596195221	232.0	-288.0	232.0	-291.0	1
3.0.1	2019_Mar_09_1309	s	s	13	4	SIC	52	ABS	0	0	1	4	24_1_4	NA	NA	0	1	2.11630892754	None	None	None	None	1
3.0.1	2019_Mar_09_1309	s	s	13	4	SIC	53	2_3	2	3	2	1	23_2_1	0	2	1	0	1.2668068409	368.0	178.0	367.0	183.0	1
3.0.1	2019_Mar_09_1309	s	s	13	4	SIC	54	2_4	2	4	4	2	23_4_2	2	2	1	0	0.578906059265	-532.0	184.0	-533.0	189.0	1
3.0.1	2019_Mar_09_1309	s	s	13	4	SIC	55	2_3	2	3	2	2	23_2_2	0	1	0	1	4.76744890213	455.0	-185.0	None	None	0
3.0.1	2019_Mar_09_1309	s	s	13	4	SIC	56	ABS	0	0	4	1	24_4_1	NA	NA	0	1	2.01054596901	None	None	None	None	1
3.0.1	2019_Mar_09_1309	s	s	13	4	SIC	57	2_4	2	4	2	1	23_2_1	0	3	1	0	0.622788906097	-410.0	-119.0	-412.0	-119.0	1
3.0.1	2019_Mar_09_1309	s	s	13	4	SIC	58	ABS	0	0	2	1	24_2_1	NA	NA	0	1	2.03863811493	None	None	None	None	1
3.0.1	2019_Mar_09_1309	s	s	13	4	SIC	59	ABS	0	0	3	4	24_3_4	NA	NA	0	1	1.0460858345	None	None	None	None	1
3.0.1	2019_Mar_09_1309	s	s	13	4	SIC	60	ABS	0	0	2	2	24_2_2	NA	NA	0	1	3.85429382324	None	None	None	None	1
3.0.1	2019_Mar_09_1309	s	s	13	4	SIC	61	ABS	0	0	3	2	24_3_2	NA	NA	0	1	3.26012301445	None	None	None	None	1
3.0.1	2019_Mar_09_1309	s	s	13	4	SIC	62	2_1	2	1	1	2	23_1_2	-1	1	1	0	4.66220378876	-300.0	124.0	-305.0	122.0	1
3.0.1	2019_Mar_09_1309	s	s	13	4	SIC	63	1_3	1	3	2	3	23_2_3	1	0	0	1	4.06126213074	490.0	-131.0	None	None	0
3.0.1	2019_Mar_09_1309	s	s	13	4	SIC	64	2_2	2	2	3	3	23_3_3	1	1	1	0	0.921920061111	-16.0	310.0	-17.0	310.0	1
3.0.1	2019_Mar_09_1309	s	s	13	4	SIC	65	4_2	4	2	4	3	23_4_3	0	1	1	0	4.33919692039	469.0	-52.0	477.0	-56.0	1
3.0.1	2019_Mar_09_1309	s	s	13	4	SIC	66	4_2	4	2	1	4	23_1_4	3	2	1	0	0.705034971237	272.0	-348.0	276.0	-351.0	1
3.0.1	2019_Mar_09_1309	s	s	13	4	SIC	67	ABS	0	0	3	3	24_3_3	NA	NA	0	1	4.80354690552	None	None	None	None	1
3.0.1	2019_Mar_09_1309	s	s	13	4	SIC	68	4_3	4	3	3	2	23_3_2	1	1	1	0	0.497169971466	-463.0	-328.0	-457.0	-328.0	1
3.0.1	2019_Mar_09_1309	s	s	13	4	SIC	69	ABS	0	0	3	1	24_3_1	NA	NA	0	1	2.22638392448	None	None	None	None	1
3.0.1	2019_Mar_09_1309	s	s	13	4	SIC	70	3_3	3	3	4	4	23_4_4	-1	-1	1	0	0.567708969116	-37.0	-340.0	-32.0	-350.0	1
3.0.1	2019_Mar_09_1309	s	s	13	4	SIC	71	3_3	3	3	4	2	23_4_2	-1	1	1	0	0.42752790451	-6.0	-40.0	-1.0	-43.0	1
3.0.1	2019_Mar_09_1309	s	s	13	4	SIC	72	ABS	0	0	3	3	24_3_3	NA	NA	0	1	3.87321591377	None	None	None	None	1
3.0.1	2019_Mar_09_1309	s	s	13	4	SIC	73	3_2	3	2	2	3	23_2_3	1	1	1	0	0.646239995956	377.0	-350.0	382.0	-355.0	1
3.0.1	2019_Mar_09_1309	s	s	13	4	SIC	74	ABS	0	0	3	2	24_3_2	NA	NA	0	1	3.60997700691	None	None	None	None	1
3.0.1	2019_Mar_09_1309	s	s	13	4	SIC	75	ABS	0	0	1	3	24_1_3	NA	NA	0	1	4.03762507439	None	None	None	None	1
3.0.1	2019_Mar_09_1309	s	s	13	4	SIC	76	4_1	4	1	4	2	23_4_2	0	1	1	0	2.08398795128	247.0	-355.0	248.0	-351.0	1
3.0.1	2019_Mar_09_1309	s	s	13	4	SIC	77	ABS	0	0	3	3	24_3_3	NA	NA	0	1	3.78935909271	None	None	None	None	1
3.0.1	2019_Mar_09_1309	s	s	13	4	SIC	78	ABS	0	0	2	1	24_2_1	NA	NA	0	1	1.8340959549	None	None	None	None	1
3.0.1	2019_Mar_09_1309	s	s	13	4	SIC	79	4_3	4	3	1	3	23_1_3	3	0	1	0	0.563913106918	-44.0	325.0	-38.0	321.0	1
3.0.1	2019_Mar_09_1309	s	s	13	4	SIC	80	3_1	3	1	3	3	23_3_3	0	2	1	0	1.22247982025	-428.0	-44.0	-425.0	-41.0	1
3.0.1	2019_Mar_09_1309	s	s	13	4	SIC	81	ABS	0	0	4	2	24_4_2	NA	NA	0	1	3.93260002136	None	None	None	None	1
3.0.1	2019_Mar_09_1309	s	s	13	4	SIC	82	4_4	4	4	1	1	23_1_1	3	3	1	0	0.505025148392	-511.0	184.0	-507.0	185.0	1
3.0.1	2019_Mar_09_1309	s	s	13	4	SIC	83	3_1	3	1	3	2	23_3_2	0	1	1	0	3.94227004051	87.0	-175.0	88.0	-179.0	1
3.0.1	2019_Mar_09_1309	s	s	13	4	SIC	84	2_1	2	1	4	4	23_4_4	2	3	1	0	0.52854514122	-261.0	-51.0	-268.0	-51.0	1
3.0.1	2019_Mar_09_1309	s	s	13	4	SIC	85	ABS	0	0	4	4	24_4_4	NA	NA	0	1	1.95809221268	None	None	None	None	1
3.0.1	2019_Mar_09_1309	s	s	13	4	SIC	86	3_1	3	1	4	2	23_4_2	-1	1	1	0	0.487826824188	173.0	-128.0	181.0	-127.0	1
3.0.1	2019_Mar_09_1309	s	s	13	4	SIC	87	3_1	3	1	2	1	23_2_1	1	0	1	0	0.775621175766	-224.0	165.0	-223.0	167.0	1
3.0.1	2019_Mar_09_1309	s	s	13	4	SIC	88	4_3	4	3	2	4	23_2_4	2	-1	1	0	0.528679847717	200.0	-258.0	199.0	-261.0	1
3.0.1	2019_Mar_09_1309	s	s	13	4	SIC	89	ABS	0	0	1	2	24_1_2	NA	NA	0	1	3.58651590347	None	None	None	None	1
3.0.1	2019_Mar_09_1309	s	s	13	4	SIC	90	3_4	3	4	4	2	23_4_2	-1	2	1	0	0.528568983078	-376.0	326.0	-376.0	323.0	1
3.0.1	2019_Mar_09_1309	s	s	13	4	SIC	91	2_3	2	3	4	1	23_4_1	2	2	1	0	0.437381982803	12.0	-34.0	3.0	-30.0	1
3.0.1	2019_Mar_09_1309	s	s	13	4	SIC	92	3_1	3	1	1	3	23_1_3	2	2	1	0	0.473890781403	-301.0	-206.0	-292.0	-206.0	1
3.0.1	2019_Mar_09_1309	s	s	13	4	SIC	93	ABS	0	0	1	2	24_1_2	NA	NA	0	1	5.00250816345	None	None	None	None	1
3.0.1	2019_Mar_09_1309	s	s	13	4	SIC	94	4_1	4	1	3	1	23_3_1	1	0	1	0	0.575651884079	348.0	-20.0	347.0	-26.0	1
3.0.1	2019_Mar_09_1309	s	s	13	4	SIC	95	ABS	0	0	1	4	24_1_4	NA	NA	0	1	1.55185389519	None	None	None	None	1
3.0.1	2019_Mar_09_1309	s	s	13	4	SIC	96	ABS	0	0	4	1	24_4_1	NA	NA	0	1	1.19311690331	None	None	None	None	1
3.0.1	2019_Mar_09_1309	s	s	13	4	SIC	97	ABS	0	0	2	1	24_2_1	NA	NA	0	1	1.34514212608	None	None	None	None	1
3.0.1	2019_Mar_09_1309	s	s	13	4	SIC	98	ABS	0	0	4	4	24_4_4	NA	NA	0	1	0.905337810516	None	None	None	None	1
3.0.1	2019_Mar_09_1309	s	s	13	4	SIC	99	ABS	0	0	3	3	24_3_3	NA	NA	0	1	3.13275790215	None	None	None	None	1
3.0.1	2019_Mar_09_1309	s	s	13	4	SIC	100	ABS	0	0	3	4	24_3_4	NA	NA	0	1	1.15193295479	None	None	None	None	1
3.0.1	2019_Mar_09_1309	s	s	13	4	SIC	101	1_4	1	4	2	3	23_2_3	1	1	1	0	0.940251111984	-394.0	-76.0	-389.0	-79.0	1
3.0.1	2019_Mar_09_1309	s	s	13	4	SIC	102	ABS	0	0	3	1	24_3_1	NA	NA	0	1	1.35185194016	None	None	None	None	1
3.0.1	2019_Mar_09_1309	s	s	13	4	SIC	103	2_4	2	4	3	1	23_3_1	1	3	1	0	0.660821199417	62.0	-371.0	62.0	-377.0	1
3.0.1	2019_Mar_09_1309	s	s	13	4	SIC	104	ABS	0	0	2	2	24_2_2	NA	NA	0	1	4.20676589012	None	None	None	None	1
3.0.1	2019_Mar_09_1309	s	s	13	4	SIC	105	ABS	0	0	2	3	24_2_3	NA	NA	0	1	4.339220047	None	None	None	None	1
3.0.1	2019_Mar_09_1309	s	s	13	4	SIC	106	ABS	0	0	4	1	24_4_1	NA	NA	0	1	1.51652789116	None	None	None	None	1
3.0.1	2019_Mar_09_1309	s	s	13	4	SIC	107	ABS	0	0	4	1	24_4_1	NA	NA	0	1	1.53474903107	None	None	None	None	1
3.0.1	2019_Mar_09_1309	s	s	13	4	SIC	108	1_2	1	2	3	2	23_3_2	2	0	1	0	0.646186828613	-25.0	-350.0	-27.0	-354.0	1
3.0.1	2019_Mar_09_1309	s	s	13	4	SIC	109	4_3	4	3	3	4	23_3_4	1	-1	1	0	0.474643945694	-290.0	-287.0	-292.0	-284.0	1
3.0.1	2019_Mar_09_1309	s	s	13	4	SIC	110	ABS	0	0	1	2	24_1_2	NA	NA	0	1	4.30392003059	None	None	None	None	1
3.0.1	2019_Mar_09_1309	s	s	13	4	SIC	111	2_1	2	1	2	4	23_2_4	0	3	1	0	0.481698036194	77.0	-227.0	78.0	-222.0	1
3.0.1	2019_Mar_09_1309	s	s	13	4	SIC	112	ABS	0	0	1	3	24_1_3	NA	NA	0	1	4.13932585716	None	None	None	None	1
3.0.1	2019_Mar_09_1309	s	s	13	4	SIC	113	ABS	0	0	2	2	24_2_2	NA	NA	0	1	3.71592116356	None	None	None	None	1
3.0.1	2019_Mar_09_1309	s	s	13	4	SIC	114	ABS	0	0	2	4	24_2_4	NA	NA	0	1	1.44587993622	None	None	None	None	1
3.0.1	2019_Mar_09_1309	s	s	13	4	SIC	115	ABS	0	0	2	4	24_2_4	NA	NA	0	1	1.96632790565	None	None	None	None	1
3.0.1	2019_Mar_09_1309	s	s	13	4	SIC	116	ABS	0	0	1	3	24_1_3	NA	NA	0	1	4.72322392464	None	None	None	None	1
3.0.1	2019_Mar_09_1309	s	s	13	4	SIC	117	1_2	1	2	1	3	23_1_3	0	1	0	1	3.72191309929	141.0	-133.0	None	None	0
3.0.1	2019_Mar_09_1309	s	s	13	4	SIC	118	1_4	1	4	1	3	23_1_3	0	1	1	0	0.599193811417	-207.0	50.0	-200.0	54.0	1
3.0.1	2019_Mar_09_1309	s	s	13	4	SIC	119	ABS	0	0	2	1	24_2_1	NA	NA	0	1	1.89293313026	None	None	None	None	1
3.0.1	2019_Mar_09_1309	s	s	13	4	SIC	120	ABS	0	0	3	3	24_3_3	NA	NA	0	1	3.78936004639	None	None	None	None	1
3.0.1	2019_Mar_09_1309	s	s	13	4	SIC	121	ABS	0	0	1	3	24_1_3	NA	NA	0	1	2.21045207977	None	None	None	None	1
3.0.1	2019_Mar_09_1309	s	s	13	4	SIC	122	2_1	2	1	3	2	23_3_2	1	1	1	0	0.650405168533	-347.0	96.0	-349.0	95.0	1
3.0.1	2019_Mar_09_1309	s	s	13	4	SIC	123	ABS	0	0	1	1	24_1_1	NA	NA	0	1	2.2859351635	None	None	None	None	1
3.0.1	2019_Mar_09_1309	s	s	13	4	SIC	124	ABS	0	0	1	3	24_1_3	NA	NA	0	1	5.44478797913	None	None	None	None	1
3.0.1	2019_Mar_09_1309	s	s	13	4	SIC	125	4_3	4	3	4	2	23_4_2	0	1	1	0	2.3045809269	-49.0	-105.0	-48.0	-104.0	1
3.0.1	2019_Mar_09_1309	s	s	13	4	SIC	126	3_3	3	3	2	2	23_2_2	1	1	1	0	0.98770403862	28.0	-231.0	30.0	-232.0	1
3.0.1	2019_Mar_09_1309	s	s	13	4	SIC	127	ABS	0	0	1	1	24_1_1	NA	NA	0	1	2.61326003075	None	None	None	None	1
3.0.1	2019_Mar_09_1309	s	s	13	4	SIC	128	ABS	0	0	2	4	24_2_4	NA	NA	0	1	3.38924717903	None	None	None	None	1
3.0.1	2019_Mar_09_1309	s	s	13	4	SIC	129	3_4	3	4	2	2	23_2_2	1	2	1	0	0.767743825912	-455.0	-195.0	-452.0	-192.0	1
3.0.1	2019_Mar_09_1309	s	s	13	4	SIC	130	ABS	0	0	3	1	24_3_1	NA	NA	0	1	1.75168704987	None	None	None	None	1
3.0.1	2019_Mar_09_1309	s	s	13	4	SIC	131	1_2	1	2	3	3	23_3_3	2	1	1	0	0.55502820015	16.0	-197.0	14.0	-201.0	1
3.0.1	2019_Mar_09_1309	s	s	13	4	SIC	132	ABS	0	0	2	1	24_2_1	NA	NA	0	1	1.78135490417	None	None	None	None	1
3.0.1	2019_Mar_09_1309	s	s	13	4	SIC	133	ABS	0	0	3	1	24_3_1	NA	NA	0	1	1.2106590271	None	None	None	None	1
3.0.1	2019_Mar_09_1309	s	s	13	4	SIC	134	2_1	2	1	4	3	23_4_3	2	2	1	0	0.505094051361	157.0	-28.0	154.0	-28.0	1
3.0.1	2019_Mar_09_1309	s	s	13	4	SIC	135	ABS	0	0	2	1	24_2_1	NA	NA	0	1	1.26950621605	None	None	None	None	1
3.0.1	2019_Mar_09_1309	s	s	13	4	SIC	136	ABS	0	0	3	1	24_3_1	NA	NA	0	1	0.705058813095	None	None	None	None	1
3.0.1	2019_Mar_09_1309	s	s	13	4	SIC	137	ABS	0	0	1	1	24_1_1	NA	NA	0	1	1.08431601524	None	None	None	None	1
3.0.1	2019_Mar_09_1309	s	s	13	4	SIC	138	1_1	1	1	3	2	23_3_2	2	1	1	0	0.554994106293	217.0	-144.0	213.0	-141.0	1
3.0.1	2019_Mar_09_1309	s	s	13	4	SIC	139	ABS	0	0	1	1	24_1_1	NA	NA	0	1	1.1333220005	None	None	None	None	1
3.0.1	2019_Mar_09_1309	s	s	13	4	SIC	140	4_2	4	2	1	2	23_1_2	3	0	1	0	0.469784975052	-243.0	76.0	-238.0	77.0	1
3.0.1	2019_Mar_09_1309	s	s	13	4	SIC	141	4_1	4	1	1	2	23_1_2	3	1	1	0	0.501075029373	-107.0	-356.0	-107.0	-355.0	1
3.0.1	2019_Mar_09_1309	s	s	13	4	SIC	142	3_3	3	3	2	4	23_2_4	1	-1	1	0	0.484810113907	-83.0	-216.0	-84.0	-208.0	1
3.0.1	2019_Mar_09_1309	s	s	13	4	SIC	143	ABS	0	0	1	4	24_1_4	NA	NA	0	1	1.18720507622	None	None	None	None	1
3.0.1	2019_Mar_09_1309	s	s	13	4	SIC	144	1_1	1	1	4	3	23_4_3	3	2	1	0	0.560291051865	401.0	-145.0	404.0	-147.0	1
3.0.1	2019_Mar_09_1309	s	s	13	4	SIC	145	ABS	0	0	1	4	24_1_4	NA	NA	0	1	1.26957392693	None	None	None	None	1
3.0.1	2019_Mar_09_1309	s	s	13	4	SIC	146	4_3	4	3	1	2	23_1_2	3	1	1	0	0.422820806503	-406.0	41.0	-405.0	40.0	1
3.0.1	2019_Mar_09_1309	s	s	13	4	SIC	147	ABS	0	0	3	4	24_3_4	NA	NA	0	1	1.16365599632	None	None	None	None	1
3.0.1	2019_Mar_09_1309	s	s	13	4	SIC	148	ABS	0	0	2	3	24_2_3	NA	NA	0	1	2.30747199059	None	None	None	None	1
3.0.1	2019_Mar_09_1309	s	s	13	4	SIC	149	2_3	2	3	1	2	23_1_2	-1	1	1	0	1.07464289665	52.0	70.0	53.0	71.0	1
3.0.1	2019_Mar_09_1309	s	s	13	4	SIC	150	ABS	0	0	1	1	24_1_1	NA	NA	0	1	1.68120408058	None	None	None	None	1
3.0.1	2019_Mar_09_1309	s	s	13	4	SIC	151	2_3	2	3	4	4	23_4_4	2	-1	1	0	0.568534135818	-486.0	-36.0	-480.0	-40.0	1
3.0.1	2019_Mar_09_1309	s	s	13	4	SIC	152	ABS	0	0	1	3	24_1_3	NA	NA	0	1	3.07534909248	None	None	None	None	1
3.0.1	2019_Mar_09_1309	s	s	13	4	SIC	153	ABS	0	0	2	2	24_2_2	NA	NA	0	1	3.14452195168	None	None	None	None	1
3.0.1	2019_Mar_09_1309	s	s	13	4	SIC	154	ABS	0	0	1	4	24_1_4	NA	NA	0	1	1.01079702377	None	None	None	None	1
3.0.1	2019_Mar_09_1309	s	s	13	4	SIC	155	3_2	3	2	4	3	23_4_3	-1	1	1	0	0.458073139191	-226.0	-208.0	-222.0	-209.0	1
3.0.1	2019_Mar_09_1309	s	s	13	4	SIC	156	2_4	2	4	2	3	23_2_3	0	1	1	0	0.792459011078	219.0	-273.0	223.0	-271.0	1
3.0.1	2019_Mar_09_1309	s	s	13	4	SIC	157	ABS	0	0	2	3	24_2_3	NA	NA	0	1	3.10416698456	None	None	None	None	1
3.0.1	2019_Mar_09_1309	s	s	13	4	SIC	158	2_4	2	4	4	4	23_4_4	2	0	1	0	0.505576848984	247.0	-257.0	246.0	-258.0	1
3.0.1	2019_Mar_09_1309	s	s	13	4	SIC	159	1_4	1	4	3	4	23_3_4	2	0	1	0	0.528600931168	-114.0	46.0	-111.0	34.0	1
3.0.1	2019_Mar_09_1309	s	s	13	4	SIC	160	ABS	0	0	2	3	24_2_3	NA	NA	0	1	3.48686385155	None	None	None	None	1
3.0.1	2019_Mar_09_1309	s	s	13	4	SIC	161	ABS	0	0	2	3	24_2_3	NA	NA	0	1	2.5632610321	None	None	None	None	1
3.0.1	2019_Mar_09_1309	s	s	13	4	SIC	162	ABS	0	0	3	2	24_3_2	NA	NA	0	1	2.67300701141	None	None	None	None	1
3.0.1	2019_Mar_09_1309	s	s	13	4	SIC	163	ABS	0	0	4	1	24_4_1	NA	NA	0	1	1.42538809776	None	None	None	None	1
3.0.1	2019_Mar_09_1309	s	s	13	4	SIC	164	1_1	1	1	2	3	23_2_3	1	2	1	0	0.873944997787	-492.0	30.0	-486.0	23.0	1
3.0.1	2019_Mar_09_1309	s	s	13	4	SIC	165	ABS	0	0	4	2	24_4_2	NA	NA	0	1	4.92725920677	None	None	None	None	1
3.0.1	2019_Mar_09_1309	s	s	13	4	SIC	166	1_2	1	2	2	1	23_2_1	1	-1	1	0	1.33338308334	-122.0	222.0	-123.0	221.0	1
3.0.1	2019_Mar_09_1309	s	s	13	4	SIC	167	ABS	0	0	2	1	24_2_1	NA	NA	0	1	2.95779395103	None	None	None	None	1
3.0.1	2019_Mar_09_1309	s	s	13	4	SIC	168	1_2	1	2	1	1	23_1_1	0	-1	1	0	1.35186004639	175.0	14.0	175.0	18.0	1
3.0.1	2019_Mar_09_1309	s	s	13	4	SIC	169	ABS	0	0	3	2	24_3_2	NA	NA	0	1	3.57995009422	None	None	None	None	1
3.0.1	2019_Mar_09_1309	s	s	13	4	SIC	170	ABS	0	0	3	4	24_3_4	NA	NA	0	1	1.4224729538	None	None	None	None	1
3.0.1	2019_Mar_09_1309	s	s	13	4	SIC	171	ABS	0	0	1	4	24_1_4	NA	NA	0	1	1.09074115753	None	None	None	None	1
3.0.1	2019_Mar_09_1309	s	s	13	4	SIC	172	ABS	0	0	4	3	24_4_3	NA	NA	0	1	4.00990104675	None	None	None	None	1
3.0.1	2019_Mar_09_1309	s	s	13	4	SIC	173	ABS	0	0	4	1	24_4_1	NA	NA	0	1	2.37504220009	None	None	None	None	1
3.0.1	2019_Mar_09_1309	s	s	13	4	SIC	174	3_1	3	1	2	2	23_2_2	1	1	1	0	0.646253824234	-41.0	159.0	-35.0	151.0	1
3.0.1	2019_Mar_09_1309	s	s	13	4	SIC	175	1_3	1	3	4	3	23_4_3	3	0	1	0	0.473882913589	-352.0	-346.0	-355.0	-355.0	1
3.0.1	2019_Mar_09_1309	s	s	13	4	SIC	176	ABS	0	0	3	4	24_3_4	NA	NA	0	1	0.869567155838	None	None	None	None	1
3.0.1	2019_Mar_09_1309	s	s	13	4	SIC	177	4_1	4	1	1	4	23_1_4	3	3	1	0	0.425646066666	-449.0	111.0	-451.0	105.0	1
3.0.1	2019_Mar_09_1309	s	s	13	4	SIC	178	ABS	0	0	4	2	24_4_2	NA	NA	0	1	3.48073101044	None	None	None	None	1
3.0.1	2019_Mar_09_1309	s	s	13	4	SIC	179	4_2	4	2	2	4	23_2_4	2	2	1	0	0.563842058182	-126.0	-363.0	-128.0	-369.0	1
3.0.1	2019_Mar_09_1309	s	s	13	4	SIC	180	3_3	3	3	1	2	23_1_2	2	1	1	0	1.1286740303	-417.0	203.0	-416.0	205.0	1
3.0.1	2019_Mar_09_1309	s	s	13	4	SIC	181	ABS	0	0	4	4	24_4_4	NA	NA	0	1	1.98694491386	None	None	None	None	1
3.0.1	2019_Mar_09_1309	s	s	13	4	SIC	182	2_2	2	2	1	1	23_1_1	-1	-1	0	1	3.06036615372	433.0	65.0	None	None	0
3.0.1	2019_Mar_09_1309	s	s	13	4	SIC	183	2_4	2	4	4	1	23_4_1	2	3	1	0	0.563889980316	370.0	280.0	375.0	278.0	1
3.0.1	2019_Mar_09_1309	s	s	13	4	SIC	184	3_3	3	3	2	3	23_2_3	1	0	1	0	0.89319896698	438.0	-340.0	443.0	-335.0	1
3.0.1	2019_Mar_09_1309	s	s	13	4	SIC	185	ABS	0	0	2	4	24_2_4	NA	NA	0	1	1.24896979332	None	None	None	None	1
3.0.1	2019_Mar_09_1309	s	s	13	4	SIC	186	1_1	1	1	1	3	23_1_3	0	2	1	0	1.14404988289	145.0	-206.0	138.0	-203.0	1
3.0.1	2019_Mar_09_1309	s	s	13	4	SIC	187	4_4	4	4	3	1	23_3_1	1	3	1	0	0.863878965378	-208.0	175.0	-212.0	172.0	1
3.0.1	2019_Mar_09_1309	s	s	13	4	SIC	188	ABS	0	0	2	4	24_2_4	NA	NA	0	1	2.89903497696	None	None	None	None	1
3.0.1	2019_Mar_09_1309	s	s	13	4	SIC	189	2_4	2	4	1	4	23_1_4	-1	0	0	1	1.86941099167	84.0	262.0	None	None	0
3.0.1	2019_Mar_09_1309	s	s	13	4	SIC	190	3_3	3	3	1	1	23_1_1	2	2	1	0	0.533097982407	62.0	-42.0	62.0	-41.0	1
3.0.1	2019_Mar_09_1309	s	s	13	4	SIC	191	ABS	0	0	1	2	24_1_2	NA	NA	0	1	4.708963871	None	None	None	None	1
3.0.1	2019_Mar_09_1309	s	s	13	4	SIC	192	ABS	0	0	3	3	24_3_3	NA	NA	0	1	3.71588182449	None	None	None	None	1
3.0.1	2019_Mar_09_1309	s	s	13	4	SIC	193	ABS	0	0	1	3	24_1_3	NA	NA	0	1	2.56866407394	None	None	None	None	1
3.0.1	2019_Mar_09_1309	s	s	13	4	SIC	194	ABS	0	0	3	1	24_3_1	NA	NA	0	1	2.16337108612	None	None	None	None	1
3.0.1	2019_Mar_09_1309	s	s	13	4	SIC	195	3_2	3	2	4	2	23_4_2	-1	0	1	0	0.560171842575	20.0	17.0	17.0	12.0	1
3.0.1	2019_Mar_09_1309	s	s	13	4	SIC	196	ABS	0	0	3	1	24_3_1	NA	NA	0	1	2.21038603783	None	None	None	None	1
3.0.1	2019_Mar_09_1309	s	s	13	4	SIC	197	2_2	2	2	3	1	23_3_1	1	-1	1	0	0.533149003983	95.0	8.0	102.0	3.0	1
3.0.1	2019_Mar_09_1309	s	s	13	4	SIC	198	ABS	0	0	1	1	24_1_1	NA	NA	0	1	1.74301505089	None	None	None	None	1
3.0.1	2019_Mar_09_1309	s	s	13	4	SIC	199	ABS	0	0	2	3	24_2_3	NA	NA	0	1	3.32772994041	None	None	None	None	1
3.0.1	2019_Mar_09_1309	s	s	13	4	SIC	200	ABS	0	0	2	4	24_2_4	NA	NA	0	1	1.09314393997	None	None	None	None	1
3.0.1	2019_Mar_09_1309	s	s	13	4	SIC	201	ABS	0	0	3	2	24_3_2	NA	NA	0	1	3.93938088417	None	None	None	None	1
3.0.1	2019_Mar_09_1309	s	s	13	4	SIC	202	ABS	0	0	3	2	24_3_2	NA	NA	0	1	2.93324589729	None	None	None	None	1
3.0.1	2019_Mar_09_1309	s	s	13	4	SIC	203	2_1	2	1	3	3	23_3_3	1	2	1	0	0.693264961243	-302.0	332.0	-304.0	329.0	1
3.0.1	2019_Mar_09_1309	s	s	13	4	SIC	204	ABS	0	0	1	2	24_1_2	NA	NA	0	1	3.73941206932	None	None	None	None	1
3.0.1	2019_Mar_09_1309	s	s	13	4	SIC	205	2_3	2	3	1	4	23_1_4	-1	-1	1	0	0.740350961685	-1.0	227.0	-3.0	231.0	1
3.0.1	2019_Mar_09_1309	s	s	13	4	SIC	206	ABS	0	0	1	1	24_1_1	NA	NA	0	1	2.52797317505	None	None	None	None	1
3.0.1	2019_Mar_09_1309	s	s	13	4	SIC	207	ABS	0	0	1	2	24_1_2	NA	NA	0	1	3.876486063	None	None	None	None	1
3.0.1	2019_Mar_09_1309	s	s	13	4	SIC	208	ABS	0	0	3	4	24_3_4	NA	NA	0	1	1.35187911987	None	None	None	None	1
3.0.1	2019_Mar_09_1309	s	s	13	4	SIC	209	ABS	0	0	2	1	24_2_1	NA	NA	0	1	1.75170707703	None	None	None	None	1
3.0.1	2019_Mar_09_1309	s	s	13	4	SIC	210	ABS	0	0	3	3	24_3_3	NA	NA	0	1	4.53218603134	None	None	None	None	1
3.0.1	2019_Mar_09_1309	s	s	13	4	SIC	211	3_1	3	1	1	1	23_1_1	2	0	1	0	0.591283082962	409.0	-168.0	412.0	-169.0	1
3.0.1	2019_Mar_09_1309	s	s	13	4	SIC	212	ABS	0	0	4	3	24_4_3	NA	NA	0	1	3.60463094711	None	None	None	None	1
3.0.1	2019_Mar_09_1309	s	s	13	4	SIC	213	ABS	0	0	2	3	24_2_3	NA	NA	0	1	3.73049712181	None	None	None	None	1
3.0.1	2019_Mar_09_1309	s	s	13	4	SIC	214	ABS	0	0	3	1	24_3_1	NA	NA	0	1	1.70880007744	None	None	None	None	1
3.0.1	2019_Mar_09_1309	s	s	13	4	SIC	215	ABS	0	0	3	3	24_3_3	NA	NA	0	1	2.91610383987	None	None	None	None	1
3.0.1	2019_Mar_09_1309	s	s	13	4	SIC	216	ABS	0	0	3	4	24_3_4	NA	NA	0	1	1.15190601349	None	None	None	None	1
3.0.1	2019_Mar_09_1309	s	s	13	4	SIC	217	ABS	0	0	4	2	24_4_2	NA	NA	0	1	3.9069340229	None	None	None	None	1
3.0.1	2019_Mar_09_1309	s	s	13	4	SIC	218	2_1	2	1	2	2	23_2_2	0	1	1	0	2.85726308823	-410.0	306.0	-412.0	305.0	1
3.0.1	2019_Mar_09_1309	s	s	13	4	SIC	219	3_3	3	3	2	1	23_2_1	1	2	1	0	0.6727039814	-520.0	-108.0	-517.0	-110.0	1
3.0.1	2019_Mar_09_1309	s	s	13	4	SIC	220	ABS	0	0	1	2	24_1_2	NA	NA	0	1	3.90692901611	None	None	None	None	1
3.0.1	2019_Mar_09_1309	s	s	13	4	SIC	221	2_4	2	4	4	3	23_4_3	2	1	1	0	0.502023935318	467.0	201.0	474.0	199.0	1
3.0.1	2019_Mar_09_1309	s	s	13	4	SIC	222	ABS	0	0	4	1	24_4_1	NA	NA	0	1	1.4395968914	None	None	None	None	1
3.0.1	2019_Mar_09_1309	s	s	13	4	SIC	223	ABS	0	0	1	2	24_1_2	NA	NA	0	1	2.70841097832	None	None	None	None	1
3.0.1	2019_Mar_09_1309	s	s	13	4	SIC	224	ABS	0	0	4	4	24_4_4	NA	NA	0	1	0.768177032471	None	None	None	None	1
3.0.1	2019_Mar_09_1309	s	s	13	4	SIC	225	4_4	4	4	3	3	23_3_3	1	1	1	0	0.516840934753	-361.0	20.0	-355.0	24.0	1
3.0.1	2019_Mar_09_1309	s	s	13	4	SIC	226	2_4	2	4	3	2	23_3_2	1	2	1	0	0.528596878052	-242.0	-350.0	-241.0	-357.0	1
3.0.1	2019_Mar_09_1309	s	s	13	4	SIC	227	4_1	4	1	2	1	23_2_1	2	0	1	0	0.469805002213	-504.0	394.0	-507.0	388.0	1
3.0.1	2019_Mar_09_1309	s	s	13	4	SIC	228	ABS	0	0	4	3	24_4_3	NA	NA	0	1	4.49500989914	None	None	None	None	1
3.0.1	2019_Mar_09_1309	s	s	13	4	SIC	229	ABS	0	0	1	2	24_1_2	NA	NA	0	1	5.33891510963	None	None	None	None	1
3.0.1	2019_Mar_09_1309	s	s	13	4	SIC	230	ABS	0	0	1	4	24_1_4	NA	NA	0	1	1.14872002602	None	None	None	None	1
3.0.1	2019_Mar_09_1309	s	s	13	4	SIC	231	2_3	2	3	3	2	23_3_2	1	1	1	0	0.746681928635	-389.0	198.0	-391.0	199.0	1
3.0.1	2019_Mar_09_1309	s	s	13	4	SIC	232	3_4	3	4	4	1	23_4_1	-1	3	1	0	0.475847959518	189.0	164.0	189.0	158.0	1
3.0.1	2019_Mar_09_1309	s	s	13	4	SIC	233	4_1	4	1	1	1	23_1_1	3	0	1	0	0.481575012207	382.0	2.0	380.0	5.0	1
3.0.1	2019_Mar_09_1309	s	s	13	4	SIC	234	4_1	4	1	3	4	23_3_4	1	3	1	0	0.469794034958	261.0	-322.0	259.0	-320.0	1
3.0.1	2019_Mar_09_1309	s	s	13	4	SIC	235	1_3	1	3	2	1	23_2_1	1	2	1	0	0.752129077911	-266.0	-72.0	-271.0	-73.0	1
3.0.1	2019_Mar_09_1309	s	s	13	4	SIC	236	ABS	0	0	1	3	24_1_3	NA	NA	0	1	3.42831897736	None	None	None	None	1
3.0.1	2019_Mar_09_1309	s	s	13	4	SIC	237	4_4	4	4	4	1	23_4_1	0	3	1	0	0.496191978455	173.0	183.0	174.0	191.0	1
3.0.1	2019_Mar_09_1309	s	s	13	4	SIC	238	ABS	0	0	1	1	24_1_1	NA	NA	0	1	1.64588189125	None	None	None	None	1
3.0.1	2019_Mar_09_1309	s	s	13	4	SIC	239	4_2	4	2	3	1	23_3_1	1	-1	1	0	0.458034992218	184.0	160.0	191.0	159.0	1
3.0.1	2019_Mar_09_1309	s	s	13	4	SIC	240	1_4	1	4	4	4	23_4_4	3	0	1	0	0.458045005798	180.0	217.0	178.0	214.0	1
3.0.1	2019_Mar_09_1309	s	s	13	4	SIC	241	1_3	1	3	4	4	23_4_4	3	-1	1	0	0.568524837494	116.0	329.0	116.0	335.0	1
3.0.1	2019_Mar_09_1309	s	s	13	4	SIC	242	ABS	0	0	3	2	24_3_2	NA	NA	0	1	1.69289708138	None	None	None	None	1
3.0.1	2019_Mar_09_1309	s	s	13	4	SIC	243	4_3	4	3	1	4	23_1_4	3	-1	1	0	0.516819953918	-195.0	384.0	-191.0	379.0	1
3.0.1	2019_Mar_09_1309	s	s	13	4	SIC	244	ABS	0	0	2	1	24_2_1	NA	NA	0	1	1.44274520874	None	None	None	None	1
3.0.1	2019_Mar_09_1309	s	s	13	4	SIC	245	ABS	0	0	4	4	24_4_4	NA	NA	0	1	1.22246193886	None	None	None	None	1
3.0.1	2019_Mar_09_1309	s	s	13	4	SIC	246	ABS	0	0	1	4	24_1_4	NA	NA	0	1	0.822603940964	None	None	None	None	1
3.0.1	2019_Mar_09_1309	s	s	13	4	SIC	247	ABS	0	0	2	1	24_2_1	NA	NA	0	1	1.56358385086	None	None	None	None	1
3.0.1	2019_Mar_09_1309	s	s	13	4	SIC	248	1_4	1	4	4	1	23_4_1	3	3	1	0	0.810842990875	20.0	-147.0	22.0	-152.0	1
3.0.1	2019_Mar_09_1309	s	s	13	4	SIC	249	1_1	1	1	2	1	23_2_1	1	0	0	1	1.42726683617	204.0	93.0	None	None	0
3.0.1	2019_Mar_09_1309	s	s	13	4	SIC	250	ABS	0	0	4	3	24_4_3	NA	NA	0	1	2.62060379982	None	None	None	None	1
3.0.1	2019_Mar_09_1309	s	s	13	4	SIC	251	4_3	4	3	2	1	23_2_1	2	2	1	0	0.587465047836	-289.0	-121.0	-286.0	-121.0	1
3.0.1	2019_Mar_09_1309	s	s	13	4	SIC	252	ABS	0	0	3	2	24_3_2	NA	NA	0	1	1.84585213661	None	None	None	None	1
3.0.1	2019_Mar_09_1309	s	s	13	4	SIC	253	ABS	0	0	2	2	24_2_2	NA	NA	0	1	2.91261696815	None	None	None	None	1
3.0.1	2019_Mar_09_1309	s	s	13	4	SIC	254	ABS	0	0	4	1	24_4_1	NA	NA	0	1	1.69736790657	None	None	None	None	1
3.0.1	2019_Mar_09_1309	s	s	13	4	SIC	255	3_4	3	4	3	3	23_3_3	0	1	1	0	0.731745004654	-470.0	86.0	-469.0	76.0	1
3.0.1	2019_Mar_09_1309	s	s	13	4	SIC	256	ABS	0	0	4	3	24_4_3	NA	NA	0	1	1.98692202568	None	None	None	None	1
3.0.1	2019_Mar_09_1309	s	s	13	4	SIC	257	ABS	0	0	4	1	24_4_1	NA	NA	0	1	1.55504894257	None	None	None	None	1
3.0.1	2019_Mar_09_1309	s	s	13	4	SIC	258	ABS	0	0	2	4	24_2_4	NA	NA	0	1	0.958084106445	None	None	None	None	1
3.0.1	2019_Mar_09_1309	s	s	13	4	SIC	259	2_1	2	1	1	4	23_1_4	-1	3	1	0	0.599221944809	411.0	410.0	413.0	407.0	1
3.0.1	2019_Mar_09_1309	s	s	13	4	SIC	260	3_3	3	3	1	4	23_1_4	2	-1	1	0	1.06957006454	371.0	141.0	368.0	139.0	1
3.0.1	2019_Mar_09_1309	s	s	13	4	SIC	261	3_1	3	1	2	4	23_2_4	1	3	1	0	0.582274913788	307.0	281.0	302.0	284.0	1
3.0.1	2019_Mar_09_1309	s	s	13	4	SIC	262	ABS	0	0	1	2	24_1_2	NA	NA	0	1	3.10426211357	None	None	None	None	1
3.0.1	2019_Mar_09_1309	s	s	13	4	SIC	263	1_3	1	3	1	2	23_1_2	0	1	1	0	4.18922996521	-1.0	-11.0	6.0	-11.0	1
3.0.1	2019_Mar_09_1309	s	s	13	4	SIC	264	ABS	0	0	2	4	24_2_4	NA	NA	0	1	1.88104510307	None	None	None	None	1
3.0.1	2019_Mar_09_1309	s	s	13	4	SIC	265	3_4	3	4	3	2	23_3_2	0	2	1	0	0.973634004593	-107.0	17.0	-100.0	15.0	1
3.0.1	2019_Mar_09_1309	s	s	13	4	SIC	266	1_3	1	3	2	4	23_2_4	1	-1	1	0	0.55687379837	-114.0	39.0	-113.0	37.0	1
3.0.1	2019_Mar_09_1309	s	s	13	4	SIC	267	ABS	0	0	2	4	24_2_4	NA	NA	0	1	1.13274908066	None	None	None	None	1
3.0.1	2019_Mar_09_1309	s	s	13	4	SIC	268	ABS	0	0	1	1	24_1_1	NA	NA	0	1	2.62207102776	None	None	None	None	1
3.0.1	2019_Mar_09_1309	s	s	13	4	SIC	269	ABS	0	0	2	4	24_2_4	NA	NA	0	1	1.37827897072	None	None	None	None	1
3.0.1	2019_Mar_09_1309	s	s	13	4	SIC	270	4_4	4	4	1	4	23_1_4	3	0	1	0	0.567857980728	-449.0	-356.0	-451.0	-360.0	1
3.0.1	2019_Mar_09_1309	s	s	13	4	SIC	271	1_3	1	3	3	1	23_3_1	2	2	1	0	0.681465148926	-77.0	-405.0	-79.0	-407.0	1
3.0.1	2019_Mar_09_1309	s	s	13	4	SIC	272	4_2	4	2	3	2	23_3_2	1	0	1	0	0.740295886993	525.0	-412.0	526.0	-417.0	1
3.0.1	2019_Mar_09_1309	s	s	13	4	SIC	273	1_1	1	1	4	2	23_4_2	3	1	1	0	0.575575113297	522.0	-93.0	528.0	-95.0	1
3.0.1	2019_Mar_09_1309	s	s	13	4	SIC	274	3_2	3	2	4	1	23_4_1	-1	-1	1	0	0.768306016922	118.0	-367.0	122.0	-371.0	1
3.0.1	2019_Mar_09_1309	s	s	13	4	SIC	275	ABS	0	0	4	1	24_4_1	NA	NA	0	1	2.03399991989	None	None	None	None	1
3.0.1	2019_Mar_09_1309	s	s	13	4	SIC	276	ABS	0	0	1	3	24_1_3	NA	NA	0	1	3.56000781059	None	None	None	None	1
3.0.1	2019_Mar_09_1309	s	s	13	4	SIC	277	ABS	0	0	4	3	24_4_3	NA	NA	0	1	4.08961892128	None	None	None	None	1
3.0.1	2019_Mar_09_1309	s	s	13	4	SIC	278	2_1	2	1	4	2	23_4_2	2	1	1	0	0.503237962723	300.0	1.0	301.0	-3.0	1
3.0.1	2019_Mar_09_1309	s	s	13	4	SIC	279	4_4	4	4	1	3	23_1_3	3	1	1	0	0.6027739048	-491.0	-109.0	-487.0	-109.0	1
3.0.1	2019_Mar_09_1309	s	s	13	4	SIC	280	ABS	0	0	3	1	24_3_1	NA	NA	0	1	1.86932992935	None	None	None	None	1
3.0.1	2019_Mar_09_1309	s	s	13	4	SIC	281	1_2	1	2	4	3	23_4_3	3	1	1	0	0.521924972534	519.0	206.0	515.0	201.0	1
3.0.1	2019_Mar_09_1309	s	s	13	4	SIC	282	4_4	4	4	2	3	23_2_3	2	1	1	0	0.587376832962	488.0	52.0	496.0	51.0	1
3.0.1	2019_Mar_09_1309	s	s	13	4	SIC	283	2_3	2	3	4	3	23_4_3	2	0	1	0	0.519646883011	-250.0	-171.0	-252.0	-178.0	1
3.0.1	2019_Mar_09_1309	s	s	13	4	SIC	284	2_1	2	1	1	1	23_1_1	-1	0	0	1	1.45058488846	-12.0	376.0	None	None	0
3.0.1	2019_Mar_09_1309	s	s	13	4	SIC	285	2_4	2	4	3	3	23_3_3	1	1	1	0	0.752043008804	334.0	-399.0	340.0	-400.0	1
3.0.1	2019_Mar_09_1309	s	s	13	4	SIC	286	1_3	1	3	4	1	23_4_1	3	2	1	0	0.540333986282	-259.0	401.0	-253.0	404.0	1
3.0.1	2019_Mar_09_1309	s	s	13	4	SIC	287	ABS	0	0	2	3	24_2_3	NA	NA	0	1	2.30994200706	None	None	None	None	1
3.0.1	2019_Mar_09_1309	s	s	13	4	SIC	288	ABS	0	0	4	3	24_4_3	NA	NA	0	1	2.69816207886	None	None	None	None	1
3.0.1	2019_Mar_09_1309	s	s	13	4	SIC	289	3_3	3	3	3	1	23_3_1	0	2	1	0	2.62207889557	-461.0	292.0	-463.0	290.0	1
3.0.1	2019_Mar_09_1309	s	s	13	4	SIC	290	3_1	3	1	1	4	23_1_4	2	3	1	0	0.91351890564	496.0	-52.0	496.0	-53.0	1
3.0.1	2019_Mar_09_1309	s	s	13	4	SIC	291	ABS	0	0	4	4	24_4_4	NA	NA	0	1	2.01054310799	None	None	None	None	1
3.0.1	2019_Mar_09_1309	s	s	13	4	SIC	292	1_3	1	3	3	3	23_3_3	2	0	1	0	0.735991001129	335.0	-237.0	339.0	-240.0	1
3.0.1	2019_Mar_09_1309	s	s	13	4	SIC	293	2_1	2	1	3	4	23_3_4	1	3	1	0	0.862545967102	534.0	166.0	539.0	160.0	1
3.0.1	2019_Mar_09_1309	s	s	13	4	SIC	294	2_2	2	2	4	2	23_4_2	2	0	1	0	0.698108911514	-391.0	61.0	-395.0	61.0	1
3.0.1	2019_Mar_09_1309	s	s	13	4	SIC	295	1_1	1	1	4	4	23_4_4	3	3	1	0	0.709021091461	-334.0	164.0	-328.0	163.0	1
3.0.1	2019_Mar_09_1309	s	s	13	4	SIC	296	2_4	2	4	1	1	23_1_1	-1	3	1	0	0.646234989166	332.0	213.0	335.0	216.0	1
3.0.1	2019_Mar_09_1309	s	s	13	4	SIC	297	ABS	0	0	3	1	24_3_1	NA	NA	0	1	2.0343079567	None	None	None	None	1
3.0.1	2019_Mar_09_1309	s	s	13	4	SIC	298	3_4	3	4	1	3	23_1_3	2	1	1	0	0.658035993576	435.0	-124.0	438.0	-130.0	1
3.0.1	2019_Mar_09_1309	s	s	13	4	SIC	299	ABS	0	0	2	3	24_2_3	NA	NA	0	1	2.52797198296	None	None	None	None	1
3.0.1	2019_Mar_09_1309	s	s	13	4	SIC	300	1_4	1	4	4	3	23_4_3	3	1	1	0	0.540426015854	-63.0	-190.0	-56.0	-197.0	1
3.0.1	2019_Mar_09_1309	s	s	13	4	SIC	301	2_1	2	1	3	1	23_3_1	1	0	1	0	0.834376096725	528.0	328.0	526.0	329.0	1
3.0.1	2019_Mar_09_1309	s	s	13	4	SIC	302	ABS	0	0	4	2	24_4_2	NA	NA	0	1	3.03080201149	None	None	None	None	1
3.0.1	2019_Mar_09_1309	s	s	13	4	SIC	303	2_1	2	1	4	1	23_4_1	2	0	1	0	0.540311098099	-248.0	251.0	-251.0	250.0	1
3.0.1	2019_Mar_09_1309	s	s	13	4	SIC	304	2_2	2	2	1	2	23_1_2	-1	0	0	1	3.46877503395	181.0	-35.0	None	None	0
3.0.1	2019_Mar_09_1309	s	s	13	4	SIC	305	3_4	3	4	2	3	23_2_3	1	1	1	0	0.516814947128	408.0	387.0	408.0	384.0	1
3.0.1	2019_Mar_09_1309	s	s	13	4	SIC	306	ABS	0	0	1	3	24_1_3	NA	NA	0	1	3.28068399429	None	None	None	None	1
3.0.1	2019_Mar_09_1309	s	s	13	4	SIC	307	ABS	0	0	2	2	24_2_2	NA	NA	0	1	3.39821600914	None	None	None	None	1
3.0.1	2019_Mar_09_1309	s	s	13	4	SIC	308	ABS	0	0	2	4	24_2_4	NA	NA	0	1	1.79496502876	None	None	None	None	1
3.0.1	2019_Mar_09_1309	s	s	13	4	SIC	309	2_2	2	2	4	3	23_4_3	2	1	1	0	0.486577033997	52.0	67.0	49.0	63.0	1
3.0.1	2019_Mar_09_1309	s	s	13	4	SIC	310	4_3	4	3	4	4	23_4_4	0	-1	1	0	1.02548909187	-16.0	-273.0	-18.0	-277.0	1
3.0.1	2019_Mar_09_1309	s	s	13	4	SIC	311	ABS	0	0	4	4	24_4_4	NA	NA	0	1	1.26069307327	None	None	None	None	1
3.0.1	2019_Mar_09_1309	s	s	13	4	SIC	312	1_3	1	3	3	4	23_3_4	2	-1	1	0	0.634363889694	493.0	72.0	493.0	75.0	1
3.0.1	2019_Mar_09_1309	s	s	13	4	SIC	313	ABS	0	0	4	4	24_4_4	NA	NA	0	1	1.01720905304	None	None	None	None	1
3.0.1	2019_Mar_09_1309	s	s	13	4	SIC	314	ABS	0	0	2	2	24_2_2	NA	NA	0	1	3.99811911583	None	None	None	None	1
3.0.1	2019_Mar_09_1309	s	s	13	4	SIC	315	ABS	0	0	3	3	24_3_3	NA	NA	0	1	3.41541004181	None	None	None	None	1
3.0.1	2019_Mar_09_1309	s	s	13	4	SIC	316	4_2	4	2	4	4	23_4_4	0	2	1	0	0.752002000809	179.0	-371.0	190.0	-366.0	1
3.0.1	2019_Mar_09_1309	s	s	13	4	SIC	317	1_2	1	2	4	4	23_4_4	3	2	1	0	0.528601884842	437.0	284.0	436.0	281.0	1
3.0.1	2019_Mar_09_1309	s	s	13	4	SIC	318	ABS	0	0	2	2	24_2_2	NA	NA	0	1	3.89226484299	None	None	None	None	1
3.0.1	2019_Mar_09_1309	s	s	13	4	SIC	319	1_4	1	4	4	2	23_4_2	3	2	1	0	0.651290893555	-214.0	-367.0	-213.0	-373.0	1
3.0.1	2019_Mar_09_1309	s	s	13	4	SIC	320	2_4	2	4	2	2	23_2_2	0	2	1	0	0.580438137054	-36.0	306.0	-29.0	305.0	1
3.0.1	2019_Mar_09_1309	s	s	13	4	SIC	321	4_4	4	4	2	4	23_2_4	2	0	1	0	0.799058914185	91.0	-278.0	97.0	-275.0	1
3.0.1	2019_Mar_09_1309	s	s	13	4	SIC	322	ABS	0	0	1	1	24_1_1	NA	NA	0	1	2.29913187027	None	None	None	None	1
3.0.1	2019_Mar_09_1309	s	s	13	4	SIC	323	2_1	2	1	1	3	23_1_3	-1	2	1	0	1.08418703079	-483.0	46.0	-487.0	44.0	1
3.0.1	2019_Mar_09_1309	s	s	13	4	SIC	324	3_2	3	2	1	2	23_1_2	2	0	1	0	0.569353103638	95.0	41.0	93.0	43.0	1
3.0.1	2019_Mar_09_1309	s	s	13	4	SIC	325	3_3	3	3	4	1	23_4_1	-1	2	1	0	0.48439002037	-457.0	41.0	-460.0	43.0	1
3.0.1	2019_Mar_09_1309	s	s	13	4	SIC	326	4_3	4	3	3	1	23_3_1	1	2	1	0	0.458020925522	116.0	-390.0	119.0	-388.0	1
3.0.1	2019_Mar_09_1309	s	s	13	4	SIC	327	ABS	0	0	2	3	24_2_3	NA	NA	0	1	4.32541894913	None	None	None	None	1
3.0.1	2019_Mar_09_1309	s	s	13	4	SIC	328	1_2	1	2	1	4	23_1_4	0	2	1	0	0.627556085587	432.0	-154.0	436.0	-156.0	1
3.0.1	2019_Mar_09_1309	s	s	13	4	SIC	329	4_1	4	1	2	3	23_2_3	2	2	1	0	0.457957029343	-395.0	69.0	-387.0	66.0	1
3.0.1	2019_Mar_09_1309	s	s	13	4	SIC	330	ABS	0	0	1	1	24_1_1	NA	NA	0	1	2.09296107292	None	None	None	None	1
3.0.1	2019_Mar_09_1309	s	s	13	4	SIC	331	ABS	0	0	4	2	24_4_2	NA	NA	0	1	3.4598031044	None	None	None	None	1
3.0.1	2019_Mar_09_1309	s	s	13	4	SIC	332	ABS	0	0	4	1	24_4_1	NA	NA	0	1	1.41467404366	None	None	None	None	1
3.0.1	2019_Mar_09_1309	s	s	13	4	SIC	333	ABS	0	0	4	3	24_4_3	NA	NA	0	1	4.35704994202	None	None	None	None	1
3.0.1	2019_Mar_09_1309	s	s	13	4	SIC	334	ABS	0	0	2	3	24_2_3	NA	NA	0	1	3.692278862	None	None	None	None	1
3.0.1	2019_Mar_09_1309	s	s	13	4	SIC	335	ABS	0	0	1	3	24_1_3	NA	NA	0	1	2.79264688492	None	None	None	None	1
3.0.1	2019_Mar_09_1309	s	s	13	4	SIC	336	ABS	0	0	2	2	24_2_2	NA	NA	0	1	3.80266690254	None	None	None	None	1
3.0.1	2019_Mar_09_1309	s	s	13	4	SIC	337	ABS	0	0	1	3	24_1_3	NA	NA	0	1	3.56761908531	None	None	None	None	1
3.0.1	2019_Mar_09_1309	s	s	13	4	SIC	338	ABS	0	0	2	2	24_2_2	NA	NA	0	1	3.76579403877	None	None	None	None	1
3.0.1	2019_Mar_09_1309	s	s	13	4	SIC	339	ABS	0	0	2	2	24_2_2	NA	NA	0	1	4.3208129406	None	None	None	None	1
3.0.1	2019_Mar_09_1309	s	s	13	4	SIC	340	1_4	1	4	1	1	23_1_1	0	3	1	0	0.775593996048	480.0	-304.0	474.0	-311.0	1
3.0.1	2019_Mar_09_1309	s	s	13	4	SIC	341	ABS	0	0	4	4	24_4_4	NA	NA	0	1	1.86938500404	None	None	None	None	1
3.0.1	2019_Mar_09_1309	s	s	13	4	SIC	342	ABS	0	0	4	1	24_4_1	NA	NA	0	1	2.43683004379	None	None	None	None	1
3.0.1	2019_Mar_09_1309	s	s	13	4	SIC	343	ABS	0	0	3	3	24_3_3	NA	NA	0	1	3.96999406815	None	None	None	None	1
3.0.1	2019_Mar_09_1309	s	s	13	4	SIC	344	ABS	0	0	3	4	24_3_4	NA	NA	0	1	0.95852804184	None	None	None	None	1
3.0.1	2019_Mar_09_1309	s	s	13	4	SIC	345	ABS	0	0	1	2	24_1_2	NA	NA	0	1	2.6156308651	None	None	None	None	1
3.0.1	2019_Mar_09_1309	s	s	13	4	SIC	346	3_2	3	2	1	1	23_1_1	2	-1	1	0	0.59921503067	116.0	-155.0	118.0	-153.0	1
3.0.1	2019_Mar_09_1309	s	s	13	4	SIC	347	2_2	2	2	4	4	23_4_4	2	2	0	1	0.484436035156	458.0	383.0	None	None	0
3.0.1	2019_Mar_09_1309	s	s	13	4	SIC	348	ABS	0	0	3	4	24_3_4	NA	NA	0	1	1.06293201447	None	None	None	None	1
3.0.1	2019_Mar_09_1309	s	s	13	4	SIC	349	1_4	1	4	2	4	23_2_4	1	0	0	1	0.956847906113	-148.0	-87.0	None	None	0
3.0.1	2019_Mar_09_1309	s	s	13	4	SIC	350	1_2	1	2	2	2	23_2_2	1	0	0	1	3.40327501297	-463.0	-272.0	None	None	0
3.0.1	2019_Mar_09_1309	s	s	13	4	SIC	351	ABS	0	0	1	1	24_1_1	NA	NA	0	1	1.59875512123	None	None	None	None	1
3.0.1	2019_Mar_09_1309	s	s	13	4	SIC	352	2_3	2	3	3	3	23_3_3	1	0	1	0	1.14301419258	-522.0	-26.0	-532.0	-25.0	1
3.0.1	2019_Mar_09_1309	s	s	13	4	SIC	353	ABS	0	0	4	2	24_4_2	NA	NA	0	1	2.87400984764	None	None	None	None	1
3.0.1	2019_Mar_09_1309	s	s	13	4	SIC	354	ABS	0	0	2	4	24_2_4	NA	NA	0	1	1.56912112236	None	None	None	None	1
3.0.1	2019_Mar_09_1309	s	s	13	4	SIC	355	ABS	0	0	2	1	24_2_1	NA	NA	0	1	1.89927506447	None	None	None	None	1
3.0.1	2019_Mar_09_1309	s	s	13	4	SIC	356	3_2	3	2	2	2	23_2_2	1	0	1	0	0.857944965363	-76.0	107.0	-77.0	103.0	1
3.0.1	2019_Mar_09_1309	s	s	13	4	SIC	357	3_3	3	3	3	4	23_3_4	0	-1	1	0	0.966594934464	393.0	-195.0	398.0	-191.0	1
3.0.1	2019_Mar_09_1309	s	s	13	4	SIC	358	3_1	3	1	4	4	23_4_4	-1	3	1	0	0.446264028549	422.0	-117.0	426.0	-116.0	1
3.0.1	2019_Mar_09_1309	s	s	13	4	SIC	359	ABS	0	0	3	2	24_3_2	NA	NA	0	1	3.09681081772	None	None	None	None	1
3.0.1	2019_Mar_09_1309	s	s	13	4	SIC	360	4_4	4	4	3	4	23_3_4	1	0	1	0	0.516836881638	-474.0	208.0	-471.0	202.0	1
3.0.1	2019_Mar_09_1309	s	s	13	4	SIC	361	4_1	4	1	4	3	23_4_3	0	2	1	0	1.88754820824	-468.0	-30.0	-477.0	-34.0	1
3.0.1	2019_Mar_09_1309	s	s	13	4	SIC	362	3_2	3	2	1	4	23_1_4	2	2	1	0	0.490514993668	-70.0	-47.0	-66.0	-52.0	1
3.0.1	2019_Mar_09_1309	s	s	13	4	SIC	363	4_2	4	2	3	3	23_3_3	1	1	1	0	0.437427997589	85.0	-119.0	79.0	-117.0	1
3.0.1	2019_Mar_09_1309	s	s	13	4	SIC	364	ABS	0	0	4	4	24_4_4	NA	NA	0	1	1.34011507034	None	None	None	None	1
3.0.1	2019_Mar_09_1309	s	s	13	4	SIC	365	1_3	1	3	4	2	23_4_2	3	1	1	0	0.48161315918	-205.0	-399.0	-204.0	-397.0	1
3.0.1	2019_Mar_09_1309	s	s	13	4	SIC	366	ABS	0	0	4	2	24_4_2	NA	NA	0	1	3.76585817337	None	None	None	None	1
3.0.1	2019_Mar_09_1309	s	s	13	4	SIC	367	1_4	1	4	3	2	23_3_2	2	2	1	0	0.587368011475	-456.0	-401.0	-462.0	-406.0	1
3.0.1	2019_Mar_09_1309	s	s	13	4	SIC	368	ABS	0	0	3	4	24_3_4	NA	NA	0	1	1.92817401886	None	None	None	None	1
3.0.1	2019_Mar_09_1309	s	s	13	4	SIC	369	ABS	0	0	4	2	24_4_2	NA	NA	0	1	3.41004395485	None	None	None	None	1
3.0.1	2019_Mar_09_1309	s	s	13	4	SIC	370	ABS	0	0	3	3	24_3_3	NA	NA	0	1	3.00482201576	None	None	None	None	1
3.0.1	2019_Mar_09_1309	s	s	13	4	SIC	371	ABS	0	0	1	2	24_1_2	NA	NA	0	1	4.58359599113	None	None	None	None	1
3.0.1	2019_Mar_09_1309	s	s	13	4	SIC	372	2_2	2	2	2	4	23_2_4	0	2	1	0	0.764130830765	258.0	-398.0	266.0	-400.0	1
3.0.1	2019_Mar_09_1309	s	s	13	4	SIC	373	1_2	1	2	4	1	23_4_1	3	-1	1	0	0.452522039413	44.0	-101.0	41.0	-103.0	1
3.0.1	2019_Mar_09_1309	s	s	13	4	SIC	374	2_2	2	2	3	4	23_3_4	1	2	1	0	0.528611898422	-75.0	342.0	-76.0	343.0	1
3.0.1	2019_Mar_09_1309	s	s	13	4	SIC	375	ABS	0	0	3	3	24_3_3	NA	NA	0	1	3.2923810482	None	None	None	None	1
3.0.1	2019_Mar_09_1309	s	s	13	4	SIC	376	1_3	1	3	1	4	23_1_4	0	-1	1	0	0.628572940826	157.0	-62.0	160.0	-64.0	1
3.0.1	2019_Mar_09_1309	s	s	13	4	SIC	377	3_4	3	4	4	4	23_4_4	-1	0	1	0	0.528592824936	-474.0	156.0	-479.0	159.0	1
3.0.1	2019_Mar_09_1309	s	s	13	4	SIC	378	ABS	0	0	2	2	24_2_2	NA	NA	0	1	3.79831504822	None	None	None	None	1
3.0.1	2019_Mar_09_1309	s	s	13	4	SIC	379	ABS	0	0	1	2	24_1_2	NA	NA	0	1	3.90695691109	None	None	None	None	1
3.0.1	2019_Mar_09_1309	s	s	13	4	SIC	380	4_2	4	2	3	4	23_3_4	1	2	1	0	0.446288108826	-446.0	-31.0	-447.0	-33.0	1
3.0.1	2019_Mar_09_1309	s	s	13	4	SIC	381	ABS	0	0	1	1	24_1_1	NA	NA	0	1	1.68118309975	None	None	None	None	1
3.0.1	2019_Mar_09_1309	s	s	13	4	SIC	382	1_2	1	2	3	4	23_3_4	2	2	1	0	0.516876935959	361.0	171.0	362.0	168.0	1
3.0.1	2019_Mar_09_1309	s	s	13	4	SIC	383	ABS	0	0	1	4	24_1_4	NA	NA	0	1	1.30488681793	None	None	None	None	1
3.0.1	2019_Mar_09_1309	s	s	13	4	SIC	384	1_1	1	1	4	1	23_4_1	3	0	1	0	0.45804810524	-496.0	61.0	-500.0	55.0	1
3.0.1	2019_Mar_09_1309	s	s	13	4	SIC	385	ABS	0	0	3	3	24_3_3	NA	NA	0	1	2.65741896629	None	None	None	None	1
3.0.1	2019_Mar_09_1309	s	s	13	4	SIC	386	3_4	3	4	4	3	23_4_3	-1	1	1	0	0.503278017044	-321.0	324.0	-323.0	321.0	1
3.0.1	2019_Mar_09_1309	s	s	13	4	SIC	387	1_1	1	1	3	3	23_3_3	2	2	1	0	0.496191978455	172.0	377.0	171.0	381.0	1
3.0.1	2019_Mar_09_1309	s	s	13	4	SIC	388	ABS	0	0	3	4	24_3_4	NA	NA	0	1	1.16370296478	None	None	None	None	1
3.0.1	2019_Mar_09_1309	s	s	13	4	SIC	389	ABS	0	0	3	1	24_3_1	NA	NA	0	1	2.31919503212	None	None	None	None	1
3.0.1	2019_Mar_09_1309	s	s	13	4	SIC	390	ABS	0	0	4	3	24_4_3	NA	NA	0	1	3.60459780693	None	None	None	None	1
3.0.1	2019_Mar_09_1309	s	s	13	4	SIC	391	ABS	0	0	3	2	24_3_2	NA	NA	0	1	3.42824196815	None	None	None	None	1
3.0.1	2019_Mar_09_1309	s	s	13	4	SIC	392	ABS	0	0	2	4	24_2_4	NA	NA	0	1	1.66301584244	None	None	None	None	1
3.0.1	2019_Mar_09_1309	s	s	13	4	SIC	393	4_2	4	2	2	3	23_2_3	2	1	1	0	0.481618881226	334.0	34.0	335.0	29.0	1
3.0.1	2019_Mar_09_1309	s	s	13	4	SIC	394	3_3	3	3	3	2	23_3_2	0	1	1	0	2.20470285416	20.0	249.0	21.0	246.0	1
3.0.1	2019_Mar_09_1309	s	s	13	4	SIC	395	2_3	2	3	3	4	23_3_4	1	-1	1	0	0.639430999756	-428.0	-2.0	-431.0	-2.0	1
3.0.1	2019_Mar_09_1309	s	s	13	4	SIC	396	ABS	0	0	4	2	24_4_2	NA	NA	0	1	4.73910999298	None	None	None	None	1
3.0.1	2019_Mar_09_1309	s	s	13	4	SIC	397	ABS	0	0	1	3	24_1_3	NA	NA	0	1	4.67146587372	None	None	None	None	1
3.0.1	2019_Mar_09_1309	s	s	13	4	SIC	398	3_1	3	1	1	2	23_1_2	2	1	1	0	0.546561956406	-254.0	-145.0	-248.0	-142.0	1
3.0.1	2019_Mar_09_1309	s	s	13	4	SIC	399	4_2	4	2	2	2	23_2_2	2	0	1	0	0.82262301445	345.0	349.0	338.0	347.0	1
3.0.1	2019_Mar_09_1309	s	s	13	4	SIC	400	ABS	0	0	1	1	24_1_1	NA	NA	0	1	1.43711805344	None	None	None	None	1
3.0.1	2019_Mar_09_1309	s	s	13	4	SIC	401	ABS	0	0	2	3	24_2_3	NA	NA	0	1	0.469732046127	None	None	None	None	1
3.0.1	2019_Mar_09_1309	s	s	13	4	SIC	402	3_1	3	1	4	1	23_4_1	-1	0	1	0	0.457989931107	-522.0	-261.0	-528.0	-263.0	1
3.0.1	2019_Mar_09_1309	s	s	13	4	SIC	403	ABS	0	0	4	1	24_4_1	NA	NA	0	1	1.35577607155	None	None	None	None	1
3.0.1	2019_Mar_09_1309	s	s	13	4	SIC	404	4_2	4	2	4	1	23_4_1	0	-1	1	0	2.19518280029	-250.0	-162.0	-250.0	-168.0	1
3.0.1	2019_Mar_09_1309	s	s	13	4	SIC	405	3_4	3	4	2	4	23_2_4	1	0	1	0	0.752053022385	-327.0	-172.0	-325.0	-174.0	1
3.0.1	2019_Mar_09_1309	s	s	13	4	SIC	406	3_3	3	3	4	3	23_4_3	-1	0	1	0	0.460649967194	-129.0	-236.0	-127.0	-243.0	1
3.0.1	2019_Mar_09_1309	s	s	13	4	SIC	407	1_4	1	4	3	3	23_3_3	2	1	1	0	0.450814008713	-537.0	-19.0	-542.0	-20.0	1
3.0.1	2019_Mar_09_1309	s	s	13	4	SIC	408	4_1	4	1	1	3	23_1_3	3	2	1	0	0.57559800148	512.0	114.0	515.0	118.0	1
3.0.1	2019_Mar_09_1309	s	s	13	4	SIC	409	1_1	1	1	3	1	23_3_1	2	0	1	0	0.496218919754	66.0	253.0	66.0	251.0	1
3.0.1	2019_Mar_09_1309	s	s	13	4	SIC	410	1_2	1	2	2	4	23_2_4	1	2	1	0	0.567909002304	-119.0	-219.0	-116.0	-224.0	1
3.0.1	2019_Mar_09_1309	s	s	13	4	SIC	411	ABS	0	0	2	2	24_2_2	NA	NA	0	1	4.2216129303	None	None	None	None	1
3.0.1	2019_Mar_09_1309	s	s	13	4	SIC	412	2_3	2	3	1	1	23_1_1	-1	2	0	1	2.39862418175	493.0	345.0	None	None	0
3.0.1	2019_Mar_09_1309	s	s	13	4	SIC	413	ABS	0	0	4	4	24_4_4	NA	NA	0	1	1.11664199829	None	None	None	None	1
3.0.1	2019_Mar_09_1309	s	s	13	4	SIC	414	ABS	0	0	4	4	24_4_4	NA	NA	0	1	1.08838605881	None	None	None	None	1
3.0.1	2019_Mar_09_1309	s	s	13	4	SIC	415	3_4	3	4	2	1	23_2_1	1	3	1	0	0.540370941162	-139.0	-331.0	-139.0	-322.0	1
3.0.1	2019_Mar_09_1309	s	s	13	4	SIC	416	4_2	4	2	1	1	23_1_1	3	-1	1	0	0.446263790131	-182.0	-378.0	-176.0	-376.0	1
3.0.1	2019_Mar_09_1309	s	s	13	4	SIC	417	ABS	0	0	2	1	24_2_1	NA	NA	0	1	1.53314495087	None	None	None	None	1
3.0.1	2019_Mar_09_1309	s	s	13	4	SIC	418	ABS	0	0	1	4	24_1_4	NA	NA	0	1	1.11658596992	None	None	None	None	1
3.0.1	2019_Mar_09_1309	s	s	13	4	SIC	419	4_2	4	2	2	1	23_2_1	2	-1	1	0	0.540317773819	505.0	385.0	509.0	388.0	1
3.0.1	2019_Mar_09_1309	s	s	13	4	SIC	420	1_4	1	4	2	1	23_2_1	1	3	1	0	0.599184989929	-104.0	317.0	-105.0	323.0	1
3.0.1	2019_Mar_09_1309	s	s	13	4	SIC	421	4_3	4	3	2	3	23_2_3	2	0	1	0	0.427973985672	408.0	-133.0	414.0	-132.0	1
3.0.1	2019_Mar_09_1309	s	s	13	4	SIC	422	ABS	0	0	4	1	24_4_1	NA	NA	0	1	2.29756999016	None	None	None	None	1
3.0.1	2019_Mar_09_1309	s	s	13	4	SIC	423	4_1	4	1	2	4	23_2_4	2	3	1	0	0.443659067154	287.0	325.0	293.0	319.0	1
3.0.1	2019_Mar_09_1309	s	s	13	4	SIC	424	2_4	2	4	1	3	23_1_3	-1	1	1	0	0.587419986725	-237.0	-139.0	-235.0	-140.0	1
3.0.1	2019_Mar_09_1309	s	s	13	4	SIC	425	ABS	0	0	4	2	24_4_2	NA	NA	0	1	4.97041988373	None	None	None	None	1
3.0.1	2019_Mar_09_1309	s	s	13	4	SIC	426	1_1	1	1	1	4	23_1_4	0	3	1	0	0.613820075989	-189.0	-55.0	-195.0	-53.0	1
3.0.1	2019_Mar_09_1309	s	s	13	4	SIC	427	ABS	0	0	2	4	24_2_4	NA	NA	0	1	1.77526116371	None	None	None	None	1
3.0.1	2019_Mar_09_1309	s	s	13	4	SIC	428	2_3	2	3	1	3	23_1_3	-1	0	0	1	5.04777479172	47.0	-405.0	None	None	0
3.0.1	2019_Mar_09_1309	s	s	13	4	SIC	429	ABS	0	0	3	4	24_3_4	NA	NA	0	1	0.999028205872	None	None	None	None	1
3.0.1	2019_Mar_09_1309	s	s	13	4	SIC	430	3_2	3	2	3	1	23_3_1	0	-1	1	0	1.75657486916	-289.0	-264.0	-285.0	-260.0	1
3.0.1	2019_Mar_09_1309	s	s	13	4	SIC	431	2_4	2	4	1	2	23_1_2	-1	2	1	0	0.631839990616	57.0	100.0	59.0	94.0	1
3.0.1	2019_Mar_09_1309	s	s	13	4	SIC	432	ABS	0	0	4	2	24_4_2	NA	NA	0	1	3.50413990021	None	None	None	None	1
3.0.1	2019_Mar_09_1309	s	s	13	4	SIC	433	2_2	2	2	2	1	23_2_1	0	-1	1	0	1.26668787003	315.0	163.0	314.0	160.0	1
3.0.1	2019_Mar_09_1309	s	s	13	4	SIC	434	ABS	0	0	4	3	24_4_3	NA	NA	0	1	4.63321495056	None	None	None	None	1
3.0.1	2019_Mar_09_1309	s	s	13	4	SIC	435	ABS	0	0	3	1	24_3_1	NA	NA	0	1	3.21025490761	None	None	None	None	1
3.0.1	2019_Mar_09_1309	s	s	13	4	SIC	436	ABS	0	0	1	4	24_1_4	NA	NA	0	1	1.26073789597	None	None	None	None	1
3.0.1	2019_Mar_09_1309	s	s	13	4	SIC	437	ABS	0	0	4	2	24_4_2	NA	NA	0	1	4.64503407478	None	None	None	None	1
3.0.1	2019_Mar_09_1309	s	s	13	4	SIC	438	ABS	0	0	1	3	24_1_3	NA	NA	0	1	2.88560390472	None	None	None	None	1
3.0.1	2019_Mar_09_1309	s	s	13	4	SIC	439	4_2	4	2	1	3	23_1_3	3	1	1	0	0.540424108505	313.0	210.0	318.0	203.0	1
3.0.1	2019_Mar_09_1309	s	s	13	4	SIC	440	1_1	1	1	1	2	23_1_2	0	1	0	1	4.42714595795	-195.0	-127.0	None	None	0
3.0.1	2019_Mar_09_1309	s	s	13	4	SIC	441	4_3	4	3	3	3	23_3_3	1	0	1	0	0.510421037674	-155.0	-190.0	-158.0	-192.0	1
3.0.1	2019_Mar_09_1309	s	s	13	4	SIC	442	3_2	3	2	3	3	23_3_3	0	1	1	0	2.8755569458	538.0	325.0	539.0	324.0	1
3.0.1	2019_Mar_09_1309	s	s	13	4	SIC	443	3_1	3	1	2	3	23_2_3	1	2	1	0	0.716805934906	-260.0	405.0	-264.0	400.0	1
3.0.1	2019_Mar_09_1309	s	s	13	4	SIC	444	1_2	1	2	3	1	23_3_1	2	-1	1	0	0.693411827087	175.0	-216.0	179.0	-219.0	1
3.0.1	2019_Mar_09_1309	s	s	13	4	SIC	445	4_3	4	3	4	1	23_4_1	0	2	1	0	0.605326890945	-88.0	-67.0	-94.0	-74.0	1
3.0.1	2019_Mar_09_1309	s	s	13	4	SIC	446	1_3	1	3	2	2	23_2_2	1	1	1	0	0.83439207077	-342.0	-154.0	-340.0	-154.0	1
3.0.1	2019_Mar_09_1309	s	s	13	4	SIC	447	2_3	2	3	3	1	23_3_1	1	2	1	0	0.804127216339	-403.0	-1.0	-409.0	-2.0	1
3.0.1	2019_Mar_09_1309	s	s	13	4	SIC	448	3_2	3	2	2	4	23_2_4	1	2	1	0	0.469782829285	253.0	-12.0	255.0	-14.0	1
3.0.1	2019_Mar_09_1309	s	s	13	4	SIC	449	4_4	4	4	2	1	23_2_1	2	3	1	0	0.431251049042	392.0	-158.0	398.0	-160.0	1
3.0.1	2019_Mar_09_1309	s	s	13	4	SIC	450	ABS	0	0	3	4	24_3_4	NA	NA	0	1	1.65769815445	None	None	None	None	1
3.0.1	2019_Mar_09_1309	s	s	13	4	SIC	451	3_4	3	4	1	1	23_1_1	2	3	1	0	0.646355867386	60.0	-376.0	63.0	-381.0	1
3.0.1	2019_Mar_09_1309	s	s	13	4	SIC	452	3_1	3	1	4	3	23_4_3	-1	2	1	0	0.486531019211	521.0	239.0	529.0	233.0	1
3.0.1	2019_Mar_09_1309	s	s	13	4	SIC	453	ABS	0	0	4	2	24_4_2	NA	NA	0	1	5.20953297615	None	None	None	None	1
3.0.1	2019_Mar_09_1309	s	s	13	4	SIC	454	2_3	2	3	4	2	23_4_2	2	1	1	0	0.442050933838	449.0	-219.0	458.0	-215.0	1
3.0.1	2019_Mar_09_1309	s	s	13	4	SIC	455	1_3	1	3	3	2	23_3_2	2	1	1	0	0.410984992981	142.0	-107.0	142.0	-108.0	1
3.0.1	2019_Mar_09_1309	s	s	13	4	SIC	456	ABS	0	0	3	2	24_3_2	NA	NA	0	1	3.39025592804	None	None	None	None	1
3.0.1	2019_Mar_09_1309	s	s	13	4	SIC	457	ABS	0	0	4	3	24_4_3	NA	NA	0	1	3.17946791649	None	None	None	None	1
3.0.1	2019_Mar_09_1309	s	s	13	4	SIC	458	ABS	0	0	4	3	24_4_3	NA	NA	0	1	4.05696296692	None	None	None	None	1
3.0.1	2019_Mar_09_1309	s	s	13	4	SIC	459	ABS	0	0	3	1	24_3_1	NA	NA	0	1	2.08399581909	None	None	None	None	1
3.0.1	2019_Mar_09_1309	s	s	13	4	SIC	460	ABS	0	0	3	2	24_3_2	NA	NA	0	1	4.02457714081	None	None	None	None	1
3.0.1	2019_Mar_09_1309	s	s	13	4	SIC	461	4_4	4	4	4	3	23_4_3	0	1	1	0	0.628480911255	-246.0	141.0	-249.0	145.0	1
3.0.1	2019_Mar_09_1309	s	s	13	4	SIC	462	ABS	0	0	1	2	24_1_2	NA	NA	0	1	4.22637414932	None	None	None	None	1
3.0.1	2019_Mar_09_1309	s	s	13	4	SIC	463	3_1	3	1	3	4	23_3_4	0	3	1	0	0.575998067856	-272.0	238.0	-265.0	242.0	1
3.0.1	2019_Mar_09_1309	s	s	13	4	SIC	464	ABS	0	0	4	3	24_4_3	NA	NA	0	1	4.49500799179	None	None	None	None	1
3.0.1	2019_Mar_09_1309	s	s	13	4	SIC	465	4_4	4	4	1	2	23_1_2	3	2	1	0	0.540451049805	362.0	99.0	366.0	97.0	1
3.0.1	2019_Mar_09_1309	s	s	13	4	SIC	466	3_4	3	4	1	2	23_1_2	2	2	1	0	0.928473949432	-88.0	-190.0	-84.0	-193.0	1
3.0.1	2019_Mar_09_1309	s	s	13	4	SIC	467	1_1	1	1	2	2	23_2_2	1	1	0	1	3.71587610245	465.0	353.0	None	None	0
3.0.1	2019_Mar_09_1309	s	s	13	4	SIC	468	ABS	0	0	1	2	24_1_2	NA	NA	0	1	2.60354590416	None	None	None	None	1
3.0.1	2019_Mar_09_1309	s	s	13	4	SIC	469	ABS	0	0	3	4	24_3_4	NA	NA	0	1	1.01073503494	None	None	None	None	1
3.0.1	2019_Mar_09_1309	s	s	13	4	SIC	470	ABS	0	0	3	2	24_3_2	NA	NA	0	1	3.5987329483	None	None	None	None	1
3.0.1	2019_Mar_09_1309	s	s	13	4	SIC	471	ABS	0	0	3	1	24_3_1	NA	NA	0	1	0.913838863373	None	None	None	None	1
3.0.1	2019_Mar_09_1309	s	s	13	4	SIC	472	1_4	1	4	3	1	23_3_1	2	3	1	0	0.587499856949	-526.0	-232.0	-520.0	-239.0	1
3.0.1	2019_Mar_09_1309	s	s	13	4	SIC	473	3_4	3	4	3	1	23_3_1	0	3	1	0	0.556010007858	165.0	326.0	167.0	326.0	1
3.0.1	2019_Mar_09_1309	s	s	13	4	SIC	474	ABS	0	0	4	4	24_4_4	NA	NA	0	1	1.14314889908	None	None	None	None	1
3.0.1	2019_Mar_09_1309	s	s	13	4	SIC	475	ABS	0	0	4	1	24_4_1	NA	NA	0	1	3.04547905922	None	None	None	None	1
3.0.1	2019_Mar_09_1309	s	s	13	4	SIC	476	3_2	3	2	2	1	23_2_1	1	-1	1	0	0.775578022003	227.0	-40.0	228.0	-45.0	1
3.0.1	2019_Mar_09_1309	s	s	13	4	SIC	477	3_3	3	3	1	3	23_1_3	2	0	1	0	0.569122076035	451.0	98.0	449.0	101.0	1
3.0.1	2019_Mar_09_1309	s	s	13	4	SIC	478	ABS	0	0	4	2	24_4_2	NA	NA	0	1	3.76695013046	None	None	None	None	1
3.0.1	2019_Mar_09_1309	s	s	13	4	SIC	479	3_2	3	2	4	4	23_4_4	-1	2	1	0	0.568021059036	-240.0	266.0	-241.0	270.0	1
3.0.1	2019_Mar_09_1309	s	s	13	4	SIC	480	4_1	4	1	3	3	23_3_3	1	2	1	0	0.399193048477	-282.0	248.0	-282.0	248.0	1
