Version	Date	Stimuli	Method	Subject	Session	Condition	Trial	Target	TColor	TShape	DColor	DShape	Distractors	Channel1	Channel2	LMouseButton	RMouseButton	RT	TargetX	TargetY	ResponseX	ResponseY	Correct
3.0.1	2019_Mar_06_1503	s	s	13	1	Capacity	1	1_1	1	1	2	1	23_2_1	1	0	0	1	1.10519909859	78.0	270.0	None	None	0
3.0.1	2019_Mar_06_1503	s	s	13	1	Capacity	2	3_1	3	1	4	1	23_4_1	-1	0	1	0	0.850980997086	472.0	54.0	477.0	48.0	1
3.0.1	2019_Mar_06_1503	s	s	13	1	Capacity	3	ABS	0	0	2	1	24_2_1	NA	NA	0	1	1.05123496056	None	None	None	None	1
3.0.1	2019_Mar_06_1503	s	s	13	1	Capacity	4	ABS	0	0	4	1	24_4_1	NA	NA	0	1	1.57533097267	None	None	None	None	1
3.0.1	2019_Mar_06_1503	s	s	13	1	Capacity	5	ABS	0	0	3	1	24_3_1	NA	NA	0	1	1.42244195938	None	None	None	None	1
3.0.1	2019_Mar_06_1503	s	s	13	1	Capacity	6	3_1	3	1	2	1	23_2_1	1	0	1	0	0.849174976349	-202.0	315.0	-206.0	321.0	1
3.0.1	2019_Mar_06_1503	s	s	13	1	Capacity	7	4_1	4	1	2	1	23_2_1	2	0	1	0	0.857898950577	448.0	-404.0	451.0	-409.0	1
3.0.1	2019_Mar_06_1503	s	s	13	1	Capacity	8	1_1	1	1	3	1	23_3_1	2	0	1	0	0.763821840286	-255.0	-82.0	-257.0	-83.0	1
3.0.1	2019_Mar_06_1503	s	s	13	1	Capacity	9	ABS	0	0	3	1	24_3_1	NA	NA	0	1	1.06188488007	None	None	None	None	1
3.0.1	2019_Mar_06_1503	s	s	13	1	Capacity	10	ABS	0	0	1	1	24_1_1	NA	NA	0	1	1.27595591545	None	None	None	None	1
3.0.1	2019_Mar_06_1503	s	s	13	1	Capacity	11	3_1	3	1	1	1	23_1_1	2	0	1	0	0.569926023483	-219.0	124.0	-220.0	129.0	1
3.0.1	2019_Mar_06_1503	s	s	13	1	Capacity	12	ABS	0	0	2	1	24_2_1	NA	NA	0	1	0.896086931229	None	None	None	None	1
3.0.1	2019_Mar_06_1503	s	s	13	1	Capacity	13	4_1	4	1	1	1	23_1_1	3	0	1	0	0.658025979996	-464.0	-343.0	-459.0	-340.0	1
3.0.1	2019_Mar_06_1503	s	s	13	1	Capacity	14	2_1	2	1	1	1	23_1_1	-1	0	0	1	0.957366943359	121.0	374.0	None	None	0
3.0.1	2019_Mar_06_1503	s	s	13	1	Capacity	15	ABS	0	0	3	1	24_3_1	NA	NA	0	1	1.25116682053	None	None	None	None	1
3.0.1	2019_Mar_06_1503	s	s	13	1	Capacity	16	ABS	0	0	2	1	24_2_1	NA	NA	0	1	1.6722137928	None	None	None	None	1
3.0.1	2019_Mar_06_1503	s	s	13	1	Capacity	17	1_1	1	1	4	1	23_4_1	3	0	1	0	0.608384847641	414.0	-102.0	415.0	-107.0	1
3.0.1	2019_Mar_06_1503	s	s	13	1	Capacity	18	4_1	4	1	3	1	23_3_1	1	0	1	0	0.646189928055	422.0	-333.0	431.0	-334.0	1
3.0.1	2019_Mar_06_1503	s	s	13	1	Capacity	19	ABS	0	0	4	1	24_4_1	NA	NA	0	1	1.21074700356	None	None	None	None	1
3.0.1	2019_Mar_06_1503	s	s	13	1	Capacity	20	ABS	0	0	1	1	24_1_1	NA	NA	0	1	1.01790595055	None	None	None	None	1
3.0.1	2019_Mar_06_1503	s	s	13	1	Capacity	21	2_1	2	1	4	1	23_4_1	2	0	1	0	0.446318864822	-184.0	109.0	-184.0	105.0	1
3.0.1	2019_Mar_06_1503	s	s	13	1	Capacity	22	ABS	0	0	1	1	24_1_1	NA	NA	0	1	0.940258979797	None	None	None	None	1
3.0.1	2019_Mar_06_1503	s	s	13	1	Capacity	23	2_1	2	1	3	1	23_3_1	1	0	1	0	0.490578889847	-110.0	-37.0	-111.0	-38.0	1
3.0.1	2019_Mar_06_1503	s	s	13	1	Capacity	24	ABS	0	0	4	1	24_4_1	NA	NA	0	1	0.716778039932	None	None	None	None	1
3.0.1	2019_Mar_06_1503	s	s	13	1	Capacity	25	1_1	1	1	3	1	23_3_1	2	0	1	0	0.523427009583	53.0	-134.0	59.0	-137.0	1
3.0.1	2019_Mar_06_1503	s	s	13	1	Capacity	26	ABS	0	0	4	1	24_4_1	NA	NA	0	1	0.672651052475	None	None	None	None	1
3.0.1	2019_Mar_06_1503	s	s	13	1	Capacity	27	1_1	1	1	2	1	23_2_1	1	0	0	1	0.93349981308	-138.0	-254.0	None	None	0
3.0.1	2019_Mar_06_1503	s	s	13	1	Capacity	28	ABS	0	0	2	1	24_2_1	NA	NA	0	1	0.764237880707	None	None	None	None	1
3.0.1	2019_Mar_06_1503	s	s	13	1	Capacity	29	ABS	0	0	4	1	24_4_1	NA	NA	0	1	1.06967401505	None	None	None	None	1
3.0.1	2019_Mar_06_1503	s	s	13	1	Capacity	30	ABS	0	0	1	1	24_1_1	NA	NA	0	1	1.31107592583	None	None	None	None	1
3.0.1	2019_Mar_06_1503	s	s	13	1	Capacity	31	3_1	3	1	1	1	23_1_1	2	0	1	0	0.745018005371	20.0	8.0	30.0	8.0	1
3.0.1	2019_Mar_06_1503	s	s	13	1	Capacity	32	1_1	1	1	4	1	23_4_1	3	0	1	0	0.723129987717	-282.0	-256.0	-280.0	-256.0	1
3.0.1	2019_Mar_06_1503	s	s	13	1	Capacity	33	ABS	0	0	1	1	24_1_1	NA	NA	0	1	0.82262802124	None	None	None	None	1
3.0.1	2019_Mar_06_1503	s	s	13	1	Capacity	34	3_1	3	1	2	1	23_2_1	1	0	1	0	0.723453044891	-385.0	202.0	-384.0	204.0	1
3.0.1	2019_Mar_06_1503	s	s	13	1	Capacity	35	4_1	4	1	1	1	23_1_1	3	0	1	0	0.834396123886	41.0	374.0	40.0	371.0	1
3.0.1	2019_Mar_06_1503	s	s	13	1	Capacity	36	3_1	3	1	4	1	23_4_1	-1	0	1	0	0.869660139084	261.0	-211.0	261.0	-218.0	1
3.0.1	2019_Mar_06_1503	s	s	13	1	Capacity	37	4_1	4	1	3	1	23_3_1	1	0	1	0	0.41518497467	-416.0	215.0	-410.0	212.0	1
3.0.1	2019_Mar_06_1503	s	s	13	1	Capacity	38	2_1	2	1	1	1	23_1_1	-1	0	0	1	0.998987913132	-193.0	273.0	None	None	0
3.0.1	2019_Mar_06_1503	s	s	13	1	Capacity	39	4_1	4	1	2	1	23_2_1	2	0	1	0	0.393018007278	289.0	-314.0	280.0	-318.0	1
3.0.1	2019_Mar_06_1503	s	s	13	1	Capacity	40	ABS	0	0	2	1	24_2_1	NA	NA	0	1	0.634351968765	None	None	None	None	1
3.0.1	2019_Mar_06_1503	s	s	13	1	Capacity	41	2_1	2	1	3	1	23_3_1	1	0	1	0	1.00531601906	247.0	271.0	250.0	278.0	1
3.0.1	2019_Mar_06_1503	s	s	13	1	Capacity	42	ABS	0	0	2	1	24_2_1	NA	NA	0	1	1.01363897324	None	None	None	None	1
3.0.1	2019_Mar_06_1503	s	s	13	1	Capacity	43	ABS	0	0	3	1	24_3_1	NA	NA	0	1	0.899877071381	None	None	None	None	1
3.0.1	2019_Mar_06_1503	s	s	13	1	Capacity	44	ABS	0	0	3	1	24_3_1	NA	NA	0	1	0.975510120392	None	None	None	None	1
3.0.1	2019_Mar_06_1503	s	s	13	1	Capacity	45	ABS	0	0	4	1	24_4_1	NA	NA	0	1	0.97551202774	None	None	None	None	1
3.0.1	2019_Mar_06_1503	s	s	13	1	Capacity	46	ABS	0	0	1	1	24_1_1	NA	NA	0	1	1.00405192375	None	None	None	None	1
3.0.1	2019_Mar_06_1503	s	s	13	1	Capacity	47	2_1	2	1	4	1	23_4_1	2	0	1	0	0.446223020554	469.0	36.0	468.0	40.0	1
3.0.1	2019_Mar_06_1503	s	s	13	1	Capacity	48	ABS	0	0	3	1	24_3_1	NA	NA	0	1	0.864148855209	None	None	None	None	1
3.0.1	2019_Mar_06_1503	s	s	13	1	Capacity	49	ABS	0	0	2	1	24_2_1	NA	NA	0	1	1.39914512634	None	None	None	None	1
3.0.1	2019_Mar_06_1503	s	s	13	1	Capacity	50	4_1	4	1	1	1	23_1_1	3	0	1	0	0.39967918396	-379.0	-106.0	-372.0	-112.0	1
3.0.1	2019_Mar_06_1503	s	s	13	1	Capacity	51	ABS	0	0	3	1	24_3_1	NA	NA	0	1	0.763768911362	None	None	None	None	1
3.0.1	2019_Mar_06_1503	s	s	13	1	Capacity	52	ABS	0	0	1	1	24_1_1	NA	NA	0	1	1.08429002762	None	None	None	None	1
3.0.1	2019_Mar_06_1503	s	s	13	1	Capacity	53	ABS	0	0	3	1	24_3_1	NA	NA	0	1	0.917024850845	None	None	None	None	1
3.0.1	2019_Mar_06_1503	s	s	13	1	Capacity	54	3_1	3	1	1	1	23_1_1	2	0	1	0	0.722554922104	-482.0	380.0	-482.0	376.0	1
3.0.1	2019_Mar_06_1503	s	s	13	1	Capacity	55	3_1	3	1	2	1	23_2_1	1	0	1	0	0.613801002502	284.0	341.0	288.0	342.0	1
3.0.1	2019_Mar_06_1503	s	s	13	1	Capacity	56	1_1	1	1	4	1	23_4_1	3	0	1	0	0.728491067886	-218.0	83.0	-219.0	87.0	1
3.0.1	2019_Mar_06_1503	s	s	13	1	Capacity	57	1_1	1	1	3	1	23_3_1	2	0	1	0	0.622678995132	41.0	375.0	48.0	369.0	1
3.0.1	2019_Mar_06_1503	s	s	13	1	Capacity	58	ABS	0	0	2	1	24_2_1	NA	NA	0	1	1.0273270607	None	None	None	None	1
3.0.1	2019_Mar_06_1503	s	s	13	1	Capacity	59	ABS	0	0	3	1	24_3_1	NA	NA	0	1	1.01072192192	None	None	None	None	1
3.0.1	2019_Mar_06_1503	s	s	13	1	Capacity	60	2_1	2	1	4	1	23_4_1	2	0	1	0	0.442262172699	-10.0	-13.0	-9.0	-11.0	1
3.0.1	2019_Mar_06_1503	s	s	13	1	Capacity	61	ABS	0	0	1	1	24_1_1	NA	NA	0	1	0.869663953781	None	None	None	None	1
3.0.1	2019_Mar_06_1503	s	s	13	1	Capacity	62	2_1	2	1	1	1	23_1_1	-1	0	0	1	1.73108506203	42.0	186.0	None	None	0
3.0.1	2019_Mar_06_1503	s	s	13	1	Capacity	63	4_1	4	1	3	1	23_3_1	1	0	1	0	0.437381982803	349.0	-331.0	353.0	-329.0	1
3.0.1	2019_Mar_06_1503	s	s	13	1	Capacity	64	3_1	3	1	4	1	23_4_1	-1	0	1	0	0.62263417244	-384.0	-285.0	-378.0	-287.0	1
3.0.1	2019_Mar_06_1503	s	s	13	1	Capacity	65	1_1	1	1	2	1	23_2_1	1	0	0	1	1.08423995972	288.0	-130.0	None	None	0
3.0.1	2019_Mar_06_1503	s	s	13	1	Capacity	66	2_1	2	1	3	1	23_3_1	1	0	1	0	1.23429203033	245.0	-243.0	249.0	-240.0	1
3.0.1	2019_Mar_06_1503	s	s	13	1	Capacity	67	ABS	0	0	1	1	24_1_1	NA	NA	0	1	1.02548718452	None	None	None	None	1
3.0.1	2019_Mar_06_1503	s	s	13	1	Capacity	68	ABS	0	0	4	1	24_4_1	NA	NA	0	1	0.958507061005	None	None	None	None	1
3.0.1	2019_Mar_06_1503	s	s	13	1	Capacity	69	ABS	0	0	2	1	24_2_1	NA	NA	0	1	1.09755396843	None	None	None	None	1
3.0.1	2019_Mar_06_1503	s	s	13	1	Capacity	70	4_1	4	1	2	1	23_2_1	2	0	1	0	0.434508085251	487.0	306.0	489.0	302.0	1
3.0.1	2019_Mar_06_1503	s	s	13	1	Capacity	71	ABS	0	0	4	1	24_4_1	NA	NA	0	1	0.957750797272	None	None	None	None	1
3.0.1	2019_Mar_06_1503	s	s	13	1	Capacity	72	ABS	0	0	4	1	24_4_1	NA	NA	0	1	0.916581869125	None	None	None	None	1
3.0.1	2019_Mar_06_1503	s	s	13	1	Capacity	73	1_1	1	1	4	1	23_4_1	3	0	1	0	0.481665849686	-498.0	-190.0	-494.0	-195.0	1
3.0.1	2019_Mar_06_1503	s	s	13	1	Capacity	74	ABS	0	0	2	1	24_2_1	NA	NA	0	1	1.14304804802	None	None	None	None	1
3.0.1	2019_Mar_06_1503	s	s	13	1	Capacity	75	ABS	0	0	3	1	24_3_1	NA	NA	0	1	0.893386125565	None	None	None	None	1
3.0.1	2019_Mar_06_1503	s	s	13	1	Capacity	76	4_1	4	1	1	1	23_1_1	3	0	1	0	0.552563905716	-40.0	-59.0	-37.0	-60.0	1
3.0.1	2019_Mar_06_1503	s	s	13	1	Capacity	77	ABS	0	0	2	1	24_2_1	NA	NA	0	1	1.00478601456	None	None	None	None	1
3.0.1	2019_Mar_06_1503	s	s	13	1	Capacity	78	ABS	0	0	4	1	24_4_1	NA	NA	0	1	0.85258603096	None	None	None	None	1
3.0.1	2019_Mar_06_1503	s	s	13	1	Capacity	79	ABS	0	0	3	1	24_3_1	NA	NA	0	1	1.72181797028	None	None	None	None	1
3.0.1	2019_Mar_06_1503	s	s	13	1	Capacity	80	2_1	2	1	3	1	23_3_1	1	0	1	0	0.782157182693	378.0	210.0	383.0	206.0	1
3.0.1	2019_Mar_06_1503	s	s	13	1	Capacity	81	3_1	3	1	1	1	23_1_1	2	0	1	0	0.540394067764	-362.0	188.0	-370.0	194.0	1
3.0.1	2019_Mar_06_1503	s	s	13	1	Capacity	82	ABS	0	0	4	1	24_4_1	NA	NA	0	1	0.672610998154	None	None	None	None	1
3.0.1	2019_Mar_06_1503	s	s	13	1	Capacity	83	1_1	1	1	3	1	23_3_1	2	0	1	0	0.592492818832	-388.0	-16.0	-393.0	-16.0	1
3.0.1	2019_Mar_06_1503	s	s	13	1	Capacity	84	ABS	0	0	1	1	24_1_1	NA	NA	0	1	0.915281057358	None	None	None	None	1
3.0.1	2019_Mar_06_1503	s	s	13	1	Capacity	85	ABS	0	0	1	1	24_1_1	NA	NA	0	1	1.05780291557	None	None	None	None	1
3.0.1	2019_Mar_06_1503	s	s	13	1	Capacity	86	3_1	3	1	2	1	23_2_1	1	0	1	0	0.893155813217	162.0	-330.0	170.0	-330.0	1
3.0.1	2019_Mar_06_1503	s	s	13	1	Capacity	87	ABS	0	0	3	1	24_3_1	NA	NA	0	1	0.987271785736	None	None	None	None	1
3.0.1	2019_Mar_06_1503	s	s	13	1	Capacity	88	2_1	2	1	4	1	23_4_1	2	0	1	0	0.472743988037	-288.0	145.0	-292.0	145.0	1
3.0.1	2019_Mar_06_1503	s	s	13	1	Capacity	89	3_1	3	1	4	1	23_4_1	-1	0	1	0	0.854022979736	100.0	-376.0	100.0	-384.0	1
3.0.1	2019_Mar_06_1503	s	s	13	1	Capacity	90	4_1	4	1	2	1	23_2_1	2	0	1	0	0.469788074493	436.0	132.0	439.0	124.0	1
3.0.1	2019_Mar_06_1503	s	s	13	1	Capacity	91	ABS	0	0	4	1	24_4_1	NA	NA	0	1	0.681465148926	None	None	None	None	1
3.0.1	2019_Mar_06_1503	s	s	13	1	Capacity	92	4_1	4	1	3	1	23_3_1	1	0	1	0	0.48644900322	-102.0	238.0	-100.0	238.0	1
3.0.1	2019_Mar_06_1503	s	s	13	1	Capacity	93	ABS	0	0	1	1	24_1_1	NA	NA	0	1	0.783820152283	None	None	None	None	1
3.0.1	2019_Mar_06_1503	s	s	13	1	Capacity	94	2_1	2	1	1	1	23_1_1	-1	0	0	1	1.09308600426	30.0	105.0	None	None	0
3.0.1	2019_Mar_06_1503	s	s	13	1	Capacity	95	1_1	1	1	2	1	23_2_1	1	0	0	1	1.2980260849	-405.0	-322.0	None	None	0
3.0.1	2019_Mar_06_1503	s	s	13	1	Capacity	96	ABS	0	0	2	1	24_2_1	NA	NA	0	1	0.99902009964	None	None	None	None	1
3.0.1	2019_Mar_06_1503	s	s	13	1	Capacity	1	1_3	1	3	1	2	23_1_2	0	1	0	1	2.20166397095	218.0	-409.0	None	None	0
3.0.1	2019_Mar_06_1503	s	s	13	1	Capacity	2	ABS	0	0	1	4	24_1_4	NA	NA	0	1	3.1514351368	None	None	None	None	1
3.0.1	2019_Mar_06_1503	s	s	13	1	Capacity	3	ABS	0	0	1	1	24_1_1	NA	NA	0	1	2.46234297752	None	None	None	None	1
3.0.1	2019_Mar_06_1503	s	s	13	1	Capacity	4	ABS	0	0	1	2	24_1_2	NA	NA	0	1	3.03375506401	None	None	None	None	1
3.0.1	2019_Mar_06_1503	s	s	13	1	Capacity	5	ABS	0	0	1	4	24_1_4	NA	NA	0	1	3.19186306	None	None	None	None	1
3.0.1	2019_Mar_06_1503	s	s	13	1	Capacity	6	1_1	1	1	1	2	23_1_2	0	1	0	1	3.05722594261	104.0	-378.0	None	None	0
3.0.1	2019_Mar_06_1503	s	s	13	1	Capacity	7	ABS	0	0	1	3	24_1_3	NA	NA	0	1	3.64530706406	None	None	None	None	1
3.0.1	2019_Mar_06_1503	s	s	13	1	Capacity	8	ABS	0	0	1	2	24_1_2	NA	NA	0	1	4.4507830143	None	None	None	None	1
3.0.1	2019_Mar_06_1503	s	s	13	1	Capacity	9	ABS	0	0	1	3	24_1_3	NA	NA	0	1	2.89775896072	None	None	None	None	1
3.0.1	2019_Mar_06_1503	s	s	13	1	Capacity	10	1_4	1	4	1	3	23_1_3	0	1	1	0	0.857892036438	216.0	201.0	217.0	204.0	1
3.0.1	2019_Mar_06_1503	s	s	13	1	Capacity	11	ABS	0	0	1	1	24_1_1	NA	NA	0	1	2.37897515297	None	None	None	None	1
3.0.1	2019_Mar_06_1503	s	s	13	1	Capacity	12	1_2	1	2	1	1	23_1_1	0	-1	0	1	1.87444400787	424.0	249.0	None	None	0
3.0.1	2019_Mar_06_1503	s	s	13	1	Capacity	13	1_3	1	3	1	4	23_1_4	0	-1	1	0	1.2930958271	369.0	-345.0	370.0	-350.0	1
3.0.1	2019_Mar_06_1503	s	s	13	1	Capacity	14	1_2	1	2	1	3	23_1_3	0	1	1	0	2.71614313126	60.0	-280.0	59.0	-277.0	1
3.0.1	2019_Mar_06_1503	s	s	13	1	Capacity	15	1_3	1	3	1	1	23_1_1	0	2	0	1	2.35546088219	322.0	-98.0	None	None	0
3.0.1	2019_Mar_06_1503	s	s	13	1	Capacity	16	1_4	1	4	1	2	23_1_2	0	2	1	0	2.36966395378	357.0	406.0	366.0	403.0	1
3.0.1	2019_Mar_06_1503	s	s	13	1	Capacity	17	1_1	1	1	1	3	23_1_3	0	2	1	0	1.38711190224	-305.0	324.0	-304.0	322.0	1
3.0.1	2019_Mar_06_1503	s	s	13	1	Capacity	18	ABS	0	0	1	4	24_1_4	NA	NA	0	1	3.33949899673	None	None	None	None	1
3.0.1	2019_Mar_06_1503	s	s	13	1	Capacity	19	ABS	0	0	1	3	24_1_3	NA	NA	0	1	4.86844205856	None	None	None	None	1
3.0.1	2019_Mar_06_1503	s	s	13	1	Capacity	20	1_4	1	4	1	1	23_1_1	0	3	1	0	0.857969999313	-38.0	-320.0	-38.0	-318.0	1
3.0.1	2019_Mar_06_1503	s	s	13	1	Capacity	21	ABS	0	0	1	2	24_1_2	NA	NA	0	1	5.20264983177	None	None	None	None	1
3.0.1	2019_Mar_06_1503	s	s	13	1	Capacity	22	1_1	1	1	1	4	23_1_4	0	3	1	0	0.804376125336	-492.0	262.0	-492.0	258.0	1
3.0.1	2019_Mar_06_1503	s	s	13	1	Capacity	23	ABS	0	0	1	1	24_1_1	NA	NA	0	1	3.67778587341	None	None	None	None	1
3.0.1	2019_Mar_06_1503	s	s	13	1	Capacity	24	1_2	1	2	1	4	23_1_4	0	2	1	0	0.646209001541	-474.0	118.0	-480.0	115.0	1
3.0.1	2019_Mar_06_1503	s	s	13	1	Capacity	25	ABS	0	0	1	1	24_1_1	NA	NA	0	1	2.25094294548	None	None	None	None	1
3.0.1	2019_Mar_06_1503	s	s	13	1	Capacity	26	1_2	1	2	1	4	23_1_4	0	2	1	0	0.775601148605	-235.0	-14.0	-242.0	-17.0	1
3.0.1	2019_Mar_06_1503	s	s	13	1	Capacity	27	1_1	1	1	1	4	23_1_4	0	3	1	0	0.869656085968	-11.0	-292.0	-15.0	-295.0	1
3.0.1	2019_Mar_06_1503	s	s	13	1	Capacity	28	1_3	1	3	1	2	23_1_2	0	1	0	1	5.49709200859	151.0	334.0	None	None	0
3.0.1	2019_Mar_06_1503	s	s	13	1	Capacity	29	1_4	1	4	1	1	23_1_1	0	3	1	0	0.752501010895	-536.0	281.0	-528.0	281.0	1
3.0.1	2019_Mar_06_1503	s	s	13	1	Capacity	30	ABS	0	0	1	4	24_1_4	NA	NA	0	1	2.93970012665	None	None	None	None	1
3.0.1	2019_Mar_06_1503	s	s	13	1	Capacity	31	ABS	0	0	1	4	24_1_4	NA	NA	0	1	2.03947806358	None	None	None	None	1
3.0.1	2019_Mar_06_1503	s	s	13	1	Capacity	32	1_4	1	4	1	2	23_1_2	0	2	1	0	0.763819932938	-488.0	-227.0	-487.0	-228.0	1
3.0.1	2019_Mar_06_1503	s	s	13	1	Capacity	33	ABS	0	0	1	1	24_1_1	NA	NA	0	1	2.58679389954	None	None	None	None	1
3.0.1	2019_Mar_06_1503	s	s	13	1	Capacity	34	1_4	1	4	1	3	23_1_3	0	1	1	0	1.140157938	26.0	245.0	33.0	245.0	1
3.0.1	2019_Mar_06_1503	s	s	13	1	Capacity	35	ABS	0	0	1	3	24_1_3	NA	NA	0	1	4.02674508095	None	None	None	None	1
3.0.1	2019_Mar_06_1503	s	s	13	1	Capacity	36	ABS	0	0	1	2	24_1_2	NA	NA	0	1	3.84860515594	None	None	None	None	1
3.0.1	2019_Mar_06_1503	s	s	13	1	Capacity	37	ABS	0	0	1	1	24_1_1	NA	NA	0	1	2.11637687683	None	None	None	None	1
3.0.1	2019_Mar_06_1503	s	s	13	1	Capacity	38	1_3	1	3	1	4	23_1_4	0	-1	1	0	0.855371952057	-9.0	-134.0	-6.0	-140.0	1
3.0.1	2019_Mar_06_1503	s	s	13	1	Capacity	39	1_2	1	2	1	1	23_1_1	0	-1	0	1	2.17504692078	-397.0	-380.0	None	None	0
3.0.1	2019_Mar_06_1503	s	s	13	1	Capacity	40	ABS	0	0	1	2	24_1_2	NA	NA	0	1	3.56844305992	None	None	None	None	1
3.0.1	2019_Mar_06_1503	s	s	13	1	Capacity	41	1_1	1	1	1	3	23_1_3	0	2	1	0	0.696927070618	-268.0	115.0	-268.0	115.0	1
3.0.1	2019_Mar_06_1503	s	s	13	1	Capacity	42	1_1	1	1	1	2	23_1_2	0	1	1	0	2.7957341671	454.0	296.0	447.0	296.0	1
3.0.1	2019_Mar_06_1503	s	s	13	1	Capacity	43	ABS	0	0	1	2	24_1_2	NA	NA	0	1	4.49729585648	None	None	None	None	1
3.0.1	2019_Mar_06_1503	s	s	13	1	Capacity	44	1_2	1	2	1	3	23_1_3	0	1	1	0	4.30692982674	-463.0	388.0	-465.0	389.0	1
3.0.1	2019_Mar_06_1503	s	s	13	1	Capacity	45	1_3	1	3	1	1	23_1_1	0	2	1	0	1.78991293907	-194.0	24.0	-202.0	24.0	1
3.0.1	2019_Mar_06_1503	s	s	13	1	Capacity	46	ABS	0	0	1	4	24_1_4	NA	NA	0	1	2.88472509384	None	None	None	None	1
3.0.1	2019_Mar_06_1503	s	s	13	1	Capacity	47	ABS	0	0	1	3	24_1_3	NA	NA	0	1	4.72138881683	None	None	None	None	1
3.0.1	2019_Mar_06_1503	s	s	13	1	Capacity	48	ABS	0	0	1	3	24_1_3	NA	NA	0	1	4.89192318916	None	None	None	None	1
3.0.1	2019_Mar_06_1503	s	s	13	1	Capacity	49	ABS	0	0	1	3	24_1_3	NA	NA	0	1	4.60973286629	None	None	None	None	1
3.0.1	2019_Mar_06_1503	s	s	13	1	Capacity	50	ABS	0	0	1	4	24_1_4	NA	NA	0	1	3.59829998016	None	None	None	None	1
3.0.1	2019_Mar_06_1503	s	s	13	1	Capacity	51	ABS	0	0	1	2	24_1_2	NA	NA	0	1	4.22165179253	None	None	None	None	1
3.0.1	2019_Mar_06_1503	s	s	13	1	Capacity	52	1_3	1	3	1	4	23_1_4	0	-1	1	0	1.59227895737	481.0	83.0	482.0	77.0	1
3.0.1	2019_Mar_06_1503	s	s	13	1	Capacity	53	1_4	1	4	1	1	23_1_1	0	3	1	0	1.1920170784	283.0	245.0	285.0	247.0	1
3.0.1	2019_Mar_06_1503	s	s	13	1	Capacity	54	ABS	0	0	1	4	24_1_4	NA	NA	0	1	1.70970797539	None	None	None	None	1
3.0.1	2019_Mar_06_1503	s	s	13	1	Capacity	55	1_4	1	4	1	3	23_1_3	0	1	1	0	0.738190174103	327.0	309.0	322.0	310.0	1
3.0.1	2019_Mar_06_1503	s	s	13	1	Capacity	56	1_4	1	4	1	2	23_1_2	0	2	1	0	0.725625991821	355.0	272.0	351.0	264.0	1
3.0.1	2019_Mar_06_1503	s	s	13	1	Capacity	57	1_3	1	3	1	2	23_1_2	0	1	1	0	3.44176793098	453.0	392.0	449.0	390.0	1
3.0.1	2019_Mar_06_1503	s	s	13	1	Capacity	58	1_1	1	1	1	3	23_1_3	0	2	1	0	2.95627713203	456.0	-214.0	449.0	-211.0	1
3.0.1	2019_Mar_06_1503	s	s	13	1	Capacity	59	ABS	0	0	1	4	24_1_4	NA	NA	0	1	3.4453291893	None	None	None	None	1
3.0.1	2019_Mar_06_1503	s	s	13	1	Capacity	60	1_3	1	3	1	1	23_1_1	0	2	1	0	1.38721990585	-76.0	327.0	-83.0	328.0	1
3.0.1	2019_Mar_06_1503	s	s	13	1	Capacity	61	ABS	0	0	1	1	24_1_1	NA	NA	0	1	3.25461506844	None	None	None	None	1
3.0.1	2019_Mar_06_1503	s	s	13	1	Capacity	62	ABS	0	0	1	1	24_1_1	NA	NA	0	1	1.92818188667	None	None	None	None	1
3.0.1	2019_Mar_06_1503	s	s	13	1	Capacity	63	ABS	0	0	1	3	24_1_3	NA	NA	0	1	3.92757606506	None	None	None	None	1
3.0.1	2019_Mar_06_1503	s	s	13	1	Capacity	64	ABS	0	0	1	2	24_1_2	NA	NA	0	1	4.1539080143	None	None	None	None	1
3.0.1	2019_Mar_06_1503	s	s	13	1	Capacity	65	ABS	0	0	1	3	24_1_3	NA	NA	0	1	5.03148007393	None	None	None	None	1
3.0.1	2019_Mar_06_1503	s	s	13	1	Capacity	66	1_1	1	1	1	2	23_1_2	0	1	1	0	2.52797698975	-182.0	51.0	-186.0	55.0	1
3.0.1	2019_Mar_06_1503	s	s	13	1	Capacity	67	ABS	0	0	1	2	24_1_2	NA	NA	0	1	5.10370111465	None	None	None	None	1
3.0.1	2019_Mar_06_1503	s	s	13	1	Capacity	68	1_2	1	2	1	3	23_1_3	0	1	1	0	4.80292606354	-321.0	102.0	-320.0	98.0	1
3.0.1	2019_Mar_06_1503	s	s	13	1	Capacity	69	1_2	1	2	1	4	23_1_4	0	2	1	0	0.804016113281	-327.0	1.0	-336.0	-1.0	1
3.0.1	2019_Mar_06_1503	s	s	13	1	Capacity	70	1_2	1	2	1	1	23_1_1	0	-1	0	1	2.62207317352	319.0	213.0	None	None	0
3.0.1	2019_Mar_06_1503	s	s	13	1	Capacity	71	ABS	0	0	1	1	24_1_1	NA	NA	0	1	3.46888303757	None	None	None	None	1
3.0.1	2019_Mar_06_1503	s	s	13	1	Capacity	72	1_1	1	1	1	4	23_1_4	0	3	1	0	0.775889873505	80.0	45.0	87.0	45.0	1
3.0.1	2019_Mar_06_1503	s	s	13	1	Capacity	73	ABS	0	0	1	1	24_1_1	NA	NA	0	1	3.70405006409	None	None	None	None	1
3.0.1	2019_Mar_06_1503	s	s	13	1	Capacity	74	1_2	1	2	1	1	23_1_1	0	-1	1	0	2.27574586868	60.0	163.0	72.0	166.0	1
3.0.1	2019_Mar_06_1503	s	s	13	1	Capacity	75	1_3	1	3	1	4	23_1_4	0	-1	1	0	0.863901138306	-334.0	-100.0	-335.0	-105.0	1
3.0.1	2019_Mar_06_1503	s	s	13	1	Capacity	76	ABS	0	0	1	4	24_1_4	NA	NA	0	1	2.49663305283	None	None	None	None	1
3.0.1	2019_Mar_06_1503	s	s	13	1	Capacity	77	ABS	0	0	1	2	24_1_2	NA	NA	0	1	4.33673405647	None	None	None	None	1
3.0.1	2019_Mar_06_1503	s	s	13	1	Capacity	78	ABS	0	0	1	3	24_1_3	NA	NA	0	1	5.35066008568	None	None	None	None	1
3.0.1	2019_Mar_06_1503	s	s	13	1	Capacity	79	ABS	0	0	1	3	24_1_3	NA	NA	0	1	4.53238487244	None	None	None	None	1
3.0.1	2019_Mar_06_1503	s	s	13	1	Capacity	80	ABS	0	0	1	4	24_1_4	NA	NA	0	1	2.07403993607	None	None	None	None	1
3.0.1	2019_Mar_06_1503	s	s	13	1	Capacity	81	ABS	0	0	1	2	24_1_2	NA	NA	0	1	4.20985484123	None	None	None	None	1
3.0.1	2019_Mar_06_1503	s	s	13	1	Capacity	82	1_4	1	4	1	3	23_1_3	0	1	1	0	3.76289606094	128.0	-371.0	132.0	-374.0	1
3.0.1	2019_Mar_06_1503	s	s	13	1	Capacity	83	1_1	1	1	1	4	23_1_4	0	3	1	0	0.940171957016	-52.0	332.0	-50.0	331.0	1
3.0.1	2019_Mar_06_1503	s	s	13	1	Capacity	84	ABS	0	0	1	1	24_1_1	NA	NA	0	1	2.97377991676	None	None	None	None	1
3.0.1	2019_Mar_06_1503	s	s	13	1	Capacity	85	1_1	1	1	1	3	23_1_3	0	2	1	0	2.6457118988	-357.0	-110.0	-357.0	-115.0	1
3.0.1	2019_Mar_06_1503	s	s	13	1	Capacity	86	1_2	1	2	1	3	23_1_3	0	1	1	0	2.5162229538	-94.0	-91.0	-91.0	-93.0	1
3.0.1	2019_Mar_06_1503	s	s	13	1	Capacity	87	ABS	0	0	1	2	24_1_2	NA	NA	0	1	4.52007699013	None	None	None	None	1
3.0.1	2019_Mar_06_1503	s	s	13	1	Capacity	88	ABS	0	0	1	4	24_1_4	NA	NA	0	1	2.73783397675	None	None	None	None	1
3.0.1	2019_Mar_06_1503	s	s	13	1	Capacity	89	1_3	1	3	1	2	23_1_2	0	1	1	0	2.02518391609	155.0	-368.0	156.0	-370.0	1
3.0.1	2019_Mar_06_1503	s	s	13	1	Capacity	90	1_2	1	2	1	4	23_1_4	0	2	1	0	1.02548193932	512.0	-229.0	513.0	-234.0	1
3.0.1	2019_Mar_06_1503	s	s	13	1	Capacity	91	1_4	1	4	1	2	23_1_2	0	2	1	0	0.863646030426	-69.0	25.0	-72.0	27.0	1
3.0.1	2019_Mar_06_1503	s	s	13	1	Capacity	92	1_1	1	1	1	2	23_1_2	0	1	1	0	1.58703804016	-60.0	-132.0	-62.0	-134.0	1
3.0.1	2019_Mar_06_1503	s	s	13	1	Capacity	93	1_4	1	4	1	1	23_1_1	0	3	1	0	0.810938119888	385.0	-19.0	389.0	-16.0	1
3.0.1	2019_Mar_06_1503	s	s	13	1	Capacity	94	ABS	0	0	1	1	24_1_1	NA	NA	0	1	2.45069789886	None	None	None	None	1
3.0.1	2019_Mar_06_1503	s	s	13	1	Capacity	95	ABS	0	0	1	3	24_1_3	NA	NA	0	1	4.77956700325	None	None	None	None	1
3.0.1	2019_Mar_06_1503	s	s	13	1	Capacity	96	1_3	1	3	1	1	23_1_1	0	2	1	0	2.71910190582	162.0	-396.0	155.0	-395.0	1
3.0.1	2019_Mar_06_1503	s	s	13	1	SIC	1	ABS	0	0	2	2	24_2_2	NA	NA	0	1	4.99816894531	None	None	None	None	1
3.0.1	2019_Mar_06_1503	s	s	13	1	SIC	2	ABS	0	0	4	4	24_4_4	NA	NA	0	1	1.89289903641	None	None	None	None	1
3.0.1	2019_Mar_06_1503	s	s	13	1	SIC	3	ABS	0	0	3	2	24_3_2	NA	NA	0	1	4.75084805489	None	None	None	None	1
3.0.1	2019_Mar_06_1503	s	s	13	1	SIC	4	1_3	1	3	2	3	23_2_3	1	0	0	1	5.56233811378	482.0	353.0	None	None	0
3.0.1	2019_Mar_06_1503	s	s	13	1	SIC	5	ABS	0	0	4	3	24_4_3	NA	NA	0	1	4.70857906342	None	None	None	None	1
3.0.1	2019_Mar_06_1503	s	s	13	1	SIC	6	ABS	0	0	3	1	24_3_1	NA	NA	0	1	2.46369600296	None	None	None	None	1
3.0.1	2019_Mar_06_1503	s	s	13	1	SIC	7	ABS	0	0	1	3	24_1_3	NA	NA	0	1	5.06840515137	None	None	None	None	1
3.0.1	2019_Mar_06_1503	s	s	13	1	SIC	8	1_2	1	2	2	4	23_2_4	1	2	1	0	0.790243148804	247.0	-150.0	248.0	-152.0	1
3.0.1	2019_Mar_06_1503	s	s	13	1	SIC	9	2_3	2	3	4	1	23_4_1	2	2	1	0	0.587369918823	528.0	-34.0	532.0	-36.0	1
3.0.1	2019_Mar_06_1503	s	s	13	1	SIC	10	3_1	3	1	3	2	23_3_2	0	1	1	0	5.20313596725	7.0	-138.0	8.0	-146.0	1
3.0.1	2019_Mar_06_1503	s	s	13	1	SIC	11	ABS	0	0	2	4	24_2_4	NA	NA	0	1	2.28098511696	None	None	None	None	1
3.0.1	2019_Mar_06_1503	s	s	13	1	SIC	12	2_3	2	3	2	4	23_2_4	0	-1	1	0	0.816073894501	161.0	-352.0	164.0	-355.0	1
3.0.1	2019_Mar_06_1503	s	s	13	1	SIC	13	1_3	1	3	4	4	23_4_4	3	-1	1	0	0.557036161423	300.0	-361.0	306.0	-360.0	1
3.0.1	2019_Mar_06_1503	s	s	13	1	SIC	14	ABS	0	0	3	1	24_3_1	NA	NA	0	1	3.22481584549	None	None	None	None	1
3.0.1	2019_Mar_06_1503	s	s	13	1	SIC	15	1_4	1	4	4	1	23_4_1	3	3	1	0	0.552151203156	108.0	0.0	106.0	3.0	1
3.0.1	2019_Mar_06_1503	s	s	13	1	SIC	16	ABS	0	0	3	4	24_3_4	NA	NA	0	1	1.92818307877	None	None	None	None	1
3.0.1	2019_Mar_06_1503	s	s	13	1	SIC	17	2_3	2	3	4	2	23_4_2	2	1	1	0	0.50542807579	-357.0	230.0	-354.0	239.0	1
3.0.1	2019_Mar_06_1503	s	s	13	1	SIC	18	1_1	1	1	2	1	23_2_1	1	0	1	0	6.00926804543	225.0	-369.0	223.0	-370.0	1
3.0.1	2019_Mar_06_1503	s	s	13	1	SIC	19	ABS	0	0	3	2	24_3_2	NA	NA	0	1	4.14216589928	None	None	None	None	1
3.0.1	2019_Mar_06_1503	s	s	13	1	SIC	20	4_3	4	3	1	3	23_1_3	3	0	1	0	0.481574058533	-530.0	-350.0	-536.0	-345.0	1
3.0.1	2019_Mar_06_1503	s	s	13	1	SIC	21	ABS	0	0	1	3	24_1_3	NA	NA	0	1	5.19080400467	None	None	None	None	1
3.0.1	2019_Mar_06_1503	s	s	13	1	SIC	22	2_4	2	4	4	1	23_4_1	2	3	1	0	0.569015979767	245.0	-226.0	249.0	-227.0	1
3.0.1	2019_Mar_06_1503	s	s	13	1	SIC	23	ABS	0	0	4	1	24_4_1	NA	NA	0	1	3.7091190815	None	None	None	None	1
3.0.1	2019_Mar_06_1503	s	s	13	1	SIC	24	ABS	0	0	4	2	24_4_2	NA	NA	0	1	5.1805331707	None	None	None	None	1
3.0.1	2019_Mar_06_1503	s	s	13	1	SIC	25	3_3	3	3	1	4	23_1_4	2	-1	1	0	0.75211596489	-461.0	-60.0	-462.0	-65.0	1
3.0.1	2019_Mar_06_1503	s	s	13	1	SIC	26	ABS	0	0	1	3	24_1_3	NA	NA	0	1	4.4597029686	None	None	None	None	1
3.0.1	2019_Mar_06_1503	s	s	13	1	SIC	27	3_4	3	4	1	1	23_1_1	2	3	1	0	0.681418180466	301.0	30.0	301.0	28.0	1
3.0.1	2019_Mar_06_1503	s	s	13	1	SIC	28	ABS	0	0	2	3	24_2_3	NA	NA	0	1	3.73932003975	None	None	None	None	1
3.0.1	2019_Mar_06_1503	s	s	13	1	SIC	29	3_1	3	1	4	3	23_4_3	-1	2	1	0	0.634366989136	-362.0	407.0	-361.0	412.0	1
3.0.1	2019_Mar_06_1503	s	s	13	1	SIC	30	4_4	4	4	2	3	23_2_3	2	1	1	0	0.591626882553	299.0	100.0	300.0	110.0	1
3.0.1	2019_Mar_06_1503	s	s	13	1	SIC	31	ABS	0	0	2	4	24_2_4	NA	NA	0	1	2.26033711433	None	None	None	None	1
3.0.1	2019_Mar_06_1503	s	s	13	1	SIC	32	ABS	0	0	2	2	24_2_2	NA	NA	0	1	4.98107385635	None	None	None	None	1
3.0.1	2019_Mar_06_1503	s	s	13	1	SIC	33	ABS	0	0	3	4	24_3_4	NA	NA	0	1	1.62657284737	None	None	None	None	1
3.0.1	2019_Mar_06_1503	s	s	13	1	SIC	34	ABS	0	0	4	2	24_4_2	NA	NA	0	1	5.02956700325	None	None	None	None	1
3.0.1	2019_Mar_06_1503	s	s	13	1	SIC	35	1_2	1	2	4	1	23_4_1	3	-1	1	0	0.554972887039	516.0	-197.0	521.0	-197.0	1
3.0.1	2019_Mar_06_1503	s	s	13	1	SIC	36	4_4	4	4	2	1	23_2_1	2	3	1	0	0.521582126617	262.0	-347.0	263.0	-349.0	1
3.0.1	2019_Mar_06_1503	s	s	13	1	SIC	37	ABS	0	0	1	2	24_1_2	NA	NA	0	1	4.56886100769	None	None	None	None	1
3.0.1	2019_Mar_06_1503	s	s	13	1	SIC	38	ABS	0	0	4	1	24_4_1	NA	NA	0	1	3.06243991852	None	None	None	None	1
3.0.1	2019_Mar_06_1503	s	s	13	1	SIC	39	ABS	0	0	3	2	24_3_2	NA	NA	0	1	4.08043694496	None	None	None	None	1
3.0.1	2019_Mar_06_1503	s	s	13	1	SIC	40	ABS	0	0	1	4	24_1_4	NA	NA	0	1	2.05754899979	None	None	None	None	1
3.0.1	2019_Mar_06_1503	s	s	13	1	SIC	41	2_2	2	2	3	4	23_3_4	1	2	1	0	0.696079015732	446.0	-193.0	452.0	-186.0	1
3.0.1	2019_Mar_06_1503	s	s	13	1	SIC	42	3_3	3	3	4	1	23_4_1	-1	2	1	0	0.85830116272	-140.0	-35.0	-151.0	-29.0	1
3.0.1	2019_Mar_06_1503	s	s	13	1	SIC	43	ABS	0	0	2	3	24_2_3	NA	NA	0	1	5.02908682823	None	None	None	None	1
3.0.1	2019_Mar_06_1503	s	s	13	1	SIC	44	ABS	0	0	1	4	24_1_4	NA	NA	0	1	1.76777291298	None	None	None	None	1
3.0.1	2019_Mar_06_1503	s	s	13	1	SIC	45	4_1	4	1	3	3	23_3_3	1	2	1	0	0.634435892105	-459.0	-79.0	-463.0	-82.0	1
3.0.1	2019_Mar_06_1503	s	s	13	1	SIC	46	ABS	0	0	1	1	24_1_1	NA	NA	0	1	3.06148195267	None	None	None	None	1
3.0.1	2019_Mar_06_1503	s	s	13	1	SIC	47	1_1	1	1	3	1	23_3_1	2	0	1	0	0.672646999359	479.0	-36.0	483.0	-39.0	1
3.0.1	2019_Mar_06_1503	s	s	13	1	SIC	48	3_2	3	2	2	3	23_2_3	1	1	1	0	1.16361308098	12.0	-255.0	19.0	-254.0	1
3.0.1	2019_Mar_06_1503	s	s	13	1	SIC	49	2_1	2	1	4	4	23_4_4	2	3	1	0	0.519622087479	268.0	58.0	271.0	61.0	1
3.0.1	2019_Mar_06_1503	s	s	13	1	SIC	50	ABS	0	0	3	1	24_3_1	NA	NA	0	1	3.01464009285	None	None	None	None	1
3.0.1	2019_Mar_06_1503	s	s	13	1	SIC	51	ABS	0	0	2	1	24_2_1	NA	NA	0	1	2.1310300827	None	None	None	None	1
3.0.1	2019_Mar_06_1503	s	s	13	1	SIC	52	2_3	2	3	1	3	23_1_3	-1	0	0	1	4.55577301979	-312.0	-254.0	None	None	0
3.0.1	2019_Mar_06_1503	s	s	13	1	SIC	53	3_4	3	4	2	4	23_2_4	1	0	1	0	2.35177516937	464.0	93.0	461.0	96.0	1
3.0.1	2019_Mar_06_1503	s	s	13	1	SIC	54	4_4	4	4	2	2	23_2_2	2	2	1	0	0.669717073441	355.0	-102.0	364.0	-99.0	1
3.0.1	2019_Mar_06_1503	s	s	13	1	SIC	55	ABS	0	0	3	3	24_3_3	NA	NA	0	1	4.8394639492	None	None	None	None	1
3.0.1	2019_Mar_06_1503	s	s	13	1	SIC	56	4_3	4	3	2	1	23_2_1	2	2	1	0	0.540277957916	144.0	71.0	141.0	75.0	1
3.0.1	2019_Mar_06_1503	s	s	13	1	SIC	57	ABS	0	0	1	2	24_1_2	NA	NA	0	1	3.74492716789	None	None	None	None	1
3.0.1	2019_Mar_06_1503	s	s	13	1	SIC	58	3_2	3	2	1	1	23_1_1	2	-1	1	0	0.672626018524	287.0	231.0	285.0	235.0	1
3.0.1	2019_Mar_06_1503	s	s	13	1	SIC	59	ABS	0	0	3	1	24_3_1	NA	NA	0	1	2.14476108551	None	None	None	None	1
3.0.1	2019_Mar_06_1503	s	s	13	1	SIC	60	4_3	4	3	3	3	23_3_3	1	0	1	0	0.498476982117	396.0	-356.0	403.0	-356.0	1
3.0.1	2019_Mar_06_1503	s	s	13	1	SIC	61	2_1	2	1	1	3	23_1_3	-1	2	1	0	1.85764718056	-74.0	401.0	-81.0	401.0	1
3.0.1	2019_Mar_06_1503	s	s	13	1	SIC	62	2_4	2	4	3	4	23_3_4	1	0	1	0	1.67813515663	-222.0	405.0	-224.0	400.0	1
3.0.1	2019_Mar_06_1503	s	s	13	1	SIC	63	ABS	0	0	4	2	24_4_2	NA	NA	0	1	3.92753195763	None	None	None	None	1
3.0.1	2019_Mar_06_1503	s	s	13	1	SIC	64	ABS	0	0	2	2	24_2_2	NA	NA	0	1	3.05043101311	None	None	None	None	1
3.0.1	2019_Mar_06_1503	s	s	13	1	SIC	65	3_3	3	3	1	2	23_1_2	2	1	1	0	1.10491704941	-8.0	287.0	-7.0	287.0	1
3.0.1	2019_Mar_06_1503	s	s	13	1	SIC	66	2_4	2	4	2	3	23_2_3	0	1	1	0	0.834446907043	-42.0	280.0	-36.0	274.0	1
3.0.1	2019_Mar_06_1503	s	s	13	1	SIC	67	ABS	0	0	1	4	24_1_4	NA	NA	0	1	2.48591208458	None	None	None	None	1
3.0.1	2019_Mar_06_1503	s	s	13	1	SIC	68	1_1	1	1	4	4	23_4_4	3	3	1	0	0.581722021103	-230.0	-286.0	-229.0	-287.0	1
3.0.1	2019_Mar_06_1503	s	s	13	1	SIC	69	ABS	0	0	2	1	24_2_1	NA	NA	0	1	2.17509388924	None	None	None	None	1
3.0.1	2019_Mar_06_1503	s	s	13	1	SIC	70	1_1	1	1	4	1	23_4_1	3	0	1	0	0.451524019241	-297.0	360.0	-287.0	358.0	1
3.0.1	2019_Mar_06_1503	s	s	13	1	SIC	71	ABS	0	0	4	1	24_4_1	NA	NA	0	1	1.85505199432	None	None	None	None	1
3.0.1	2019_Mar_06_1503	s	s	13	1	SIC	72	ABS	0	0	1	1	24_1_1	NA	NA	0	1	2.3985710144	None	None	None	None	1
3.0.1	2019_Mar_06_1503	s	s	13	1	SIC	73	ABS	0	0	1	2	24_1_2	NA	NA	0	1	3.95771598816	None	None	None	None	1
3.0.1	2019_Mar_06_1503	s	s	13	1	SIC	74	ABS	0	0	2	3	24_2_3	NA	NA	0	1	4.82642912865	None	None	None	None	1
3.0.1	2019_Mar_06_1503	s	s	13	1	SIC	75	1_3	1	3	3	1	23_3_1	2	2	1	0	0.794925928116	-313.0	-226.0	-316.0	-233.0	1
3.0.1	2019_Mar_06_1503	s	s	13	1	SIC	76	ABS	0	0	1	2	24_1_2	NA	NA	0	1	4.42156600952	None	None	None	None	1
3.0.1	2019_Mar_06_1503	s	s	13	1	SIC	77	1_2	1	2	3	4	23_3_4	2	2	1	0	0.660958051682	197.0	-87.0	196.0	-92.0	1
3.0.1	2019_Mar_06_1503	s	s	13	1	SIC	78	ABS	0	0	1	1	24_1_1	NA	NA	0	1	6.70790505409	None	None	None	None	1
3.0.1	2019_Mar_06_1503	s	s	13	1	SIC	79	3_4	3	4	4	3	23_4_3	-1	1	1	0	0.804296016693	81.0	330.0	81.0	331.0	1
3.0.1	2019_Mar_06_1503	s	s	13	1	SIC	80	ABS	0	0	4	4	24_4_4	NA	NA	0	1	2.33982300758	None	None	None	None	1
3.0.1	2019_Mar_06_1503	s	s	13	1	SIC	81	ABS	0	0	1	4	24_1_4	NA	NA	0	1	2.37540483475	None	None	None	None	1
3.0.1	2019_Mar_06_1503	s	s	13	1	SIC	82	ABS	0	0	2	4	24_2_4	NA	NA	0	1	2.86906695366	None	None	None	None	1
3.0.1	2019_Mar_06_1503	s	s	13	1	SIC	83	4_3	4	3	1	4	23_1_4	3	-1	1	0	1.01085305214	-460.0	174.0	-456.0	176.0	1
3.0.1	2019_Mar_06_1503	s	s	13	1	SIC	84	ABS	0	0	3	4	24_3_4	NA	NA	0	1	2.54562592506	None	None	None	None	1
3.0.1	2019_Mar_06_1503	s	s	13	1	SIC	85	ABS	0	0	2	1	24_2_1	NA	NA	0	1	2.51067590714	None	None	None	None	1
3.0.1	2019_Mar_06_1503	s	s	13	1	SIC	86	ABS	0	0	3	4	24_3_4	NA	NA	0	1	2.09644508362	None	None	None	None	1
3.0.1	2019_Mar_06_1503	s	s	13	1	SIC	87	1_1	1	1	1	4	23_1_4	0	3	1	0	0.815816164017	125.0	373.0	131.0	367.0	1
3.0.1	2019_Mar_06_1503	s	s	13	1	SIC	88	3_1	3	1	3	4	23_3_4	0	3	1	0	0.672716140747	181.0	248.0	182.0	249.0	1
3.0.1	2019_Mar_06_1503	s	s	13	1	SIC	89	1_4	1	4	3	3	23_3_3	2	1	1	0	0.634463071823	10.0	-135.0	4.0	-135.0	1
3.0.1	2019_Mar_06_1503	s	s	13	1	SIC	90	1_4	1	4	2	3	23_2_3	1	1	1	0	1.35184788704	-149.0	352.0	-143.0	355.0	1
3.0.1	2019_Mar_06_1503	s	s	13	1	SIC	91	3_3	3	3	3	2	23_3_2	0	1	0	1	2.90460205078	237.0	-196.0	None	None	0
3.0.1	2019_Mar_06_1503	s	s	13	1	SIC	92	ABS	0	0	2	2	24_2_2	NA	NA	0	1	1.92034006119	None	None	None	None	1
3.0.1	2019_Mar_06_1503	s	s	13	1	SIC	93	ABS	0	0	1	3	24_1_3	NA	NA	0	1	4.31047296524	None	None	None	None	1
3.0.1	2019_Mar_06_1503	s	s	13	1	SIC	94	2_1	2	1	3	1	23_3_1	1	0	1	0	1.01085996628	-27.0	-237.0	-22.0	-234.0	1
3.0.1	2019_Mar_06_1503	s	s	13	1	SIC	95	1_2	1	2	1	3	23_1_3	0	1	0	1	3.53948402405	-390.0	-365.0	None	None	0
3.0.1	2019_Mar_06_1503	s	s	13	1	SIC	96	1_1	1	1	1	2	23_1_2	0	1	0	1	3.88049507141	-94.0	-272.0	None	None	0
3.0.1	2019_Mar_06_1503	s	s	13	1	SIC	97	ABS	0	0	3	1	24_3_1	NA	NA	0	1	2.30451798439	None	None	None	None	1
3.0.1	2019_Mar_06_1503	s	s	13	1	SIC	98	ABS	0	0	3	4	24_3_4	NA	NA	0	1	1.89784908295	None	None	None	None	1
3.0.1	2019_Mar_06_1503	s	s	13	1	SIC	99	3_1	3	1	4	1	23_4_1	-1	0	1	0	0.698492050171	32.0	-81.0	22.0	-76.0	1
3.0.1	2019_Mar_06_1503	s	s	13	1	SIC	100	ABS	0	0	1	1	24_1_1	NA	NA	0	1	2.01050400734	None	None	None	None	1
3.0.1	2019_Mar_06_1503	s	s	13	1	SIC	101	4_2	4	2	4	1	23_4_1	0	-1	0	1	1.91639900208	-307.0	-138.0	None	None	0
3.0.1	2019_Mar_06_1503	s	s	13	1	SIC	102	1_2	1	2	4	2	23_4_2	3	0	1	0	0.907804012299	263.0	-389.0	263.0	-391.0	1
3.0.1	2019_Mar_06_1503	s	s	13	1	SIC	103	ABS	0	0	3	3	24_3_3	NA	NA	0	1	5.00948691368	None	None	None	None	1
3.0.1	2019_Mar_06_1503	s	s	13	1	SIC	104	ABS	0	0	2	1	24_2_1	NA	NA	0	1	3.28074407578	None	None	None	None	1
3.0.1	2019_Mar_06_1503	s	s	13	1	SIC	105	2_2	2	2	1	3	23_1_3	-1	1	1	0	7.74210977554	-310.0	42.0	-309.0	45.0	1
3.0.1	2019_Mar_06_1503	s	s	13	1	SIC	106	ABS	0	0	4	3	24_4_3	NA	NA	0	1	6.04739189148	None	None	None	None	1
3.0.1	2019_Mar_06_1503	s	s	13	1	SIC	107	ABS	0	0	4	2	24_4_2	NA	NA	0	1	4.39799690247	None	None	None	None	1
3.0.1	2019_Mar_06_1503	s	s	13	1	SIC	108	ABS	0	0	4	4	24_4_4	NA	NA	0	1	1.69324707985	None	None	None	None	1
3.0.1	2019_Mar_06_1503	s	s	13	1	SIC	109	ABS	0	0	2	1	24_2_1	NA	NA	0	1	3.25017595291	None	None	None	None	1
3.0.1	2019_Mar_06_1503	s	s	13	1	SIC	110	1_4	1	4	2	2	23_2_2	1	2	1	0	0.802358865738	233.0	-134.0	234.0	-137.0	1
3.0.1	2019_Mar_06_1503	s	s	13	1	SIC	111	1_3	1	3	4	3	23_4_3	3	0	1	0	0.752058982849	514.0	389.0	521.0	391.0	1
3.0.1	2019_Mar_06_1503	s	s	13	1	SIC	112	4_2	4	2	2	1	23_2_1	2	-1	1	0	0.810781002045	189.0	370.0	194.0	367.0	1
3.0.1	2019_Mar_06_1503	s	s	13	1	SIC	113	4_4	4	4	1	3	23_1_3	3	1	1	0	0.752064943314	-122.0	374.0	-121.0	375.0	1
3.0.1	2019_Mar_06_1503	s	s	13	1	SIC	114	4_3	4	3	2	2	23_2_2	2	1	1	0	0.88142490387	-401.0	-76.0	-408.0	-81.0	1
3.0.1	2019_Mar_06_1503	s	s	13	1	SIC	115	ABS	0	0	4	2	24_4_2	NA	NA	0	1	5.259567976	None	None	None	None	1
3.0.1	2019_Mar_06_1503	s	s	13	1	SIC	116	4_1	4	1	1	4	23_1_4	3	3	1	0	0.693204164505	347.0	6.0	340.0	2.0	1
3.0.1	2019_Mar_06_1503	s	s	13	1	SIC	117	ABS	0	0	2	2	24_2_2	NA	NA	0	1	3.95107412338	None	None	None	None	1
3.0.1	2019_Mar_06_1503	s	s	13	1	SIC	118	ABS	0	0	1	3	24_1_3	NA	NA	0	1	4.51010203362	None	None	None	None	1
3.0.1	2019_Mar_06_1503	s	s	13	1	SIC	119	ABS	0	0	2	3	24_2_3	NA	NA	0	1	4.04509782791	None	None	None	None	1
3.0.1	2019_Mar_06_1503	s	s	13	1	SIC	120	ABS	0	0	1	3	24_1_3	NA	NA	0	1	3.97955703735	None	None	None	None	1
3.0.1	2019_Mar_06_1503	s	s	13	1	SIC	121	ABS	0	0	4	3	24_4_3	NA	NA	0	1	4.9664440155	None	None	None	None	1
3.0.1	2019_Mar_06_1503	s	s	13	1	SIC	122	1_1	1	1	3	4	23_3_4	2	3	1	0	0.562390089035	-47.0	-102.0	-49.0	-93.0	1
3.0.1	2019_Mar_06_1503	s	s	13	1	SIC	123	2_1	2	1	1	1	23_1_1	-1	0	0	1	4.59289193153	-404.0	308.0	None	None	0
3.0.1	2019_Mar_06_1503	s	s	13	1	SIC	124	ABS	0	0	4	2	24_4_2	NA	NA	0	1	5.05666995049	None	None	None	None	1
3.0.1	2019_Mar_06_1503	s	s	13	1	SIC	125	2_4	2	4	2	2	23_2_2	0	2	1	0	1.15190792084	-341.0	309.0	-346.0	312.0	1
3.0.1	2019_Mar_06_1503	s	s	13	1	SIC	126	ABS	0	0	1	4	24_1_4	NA	NA	0	1	2.11630702019	None	None	None	None	1
3.0.1	2019_Mar_06_1503	s	s	13	1	SIC	127	3_2	3	2	3	4	23_3_4	0	2	1	0	1.04084801674	436.0	-265.0	441.0	-267.0	1
3.0.1	2019_Mar_06_1503	s	s	13	1	SIC	128	ABS	0	0	3	1	24_3_1	NA	NA	0	1	2.73074793816	None	None	None	None	1
3.0.1	2019_Mar_06_1503	s	s	13	1	SIC	129	ABS	0	0	4	1	24_4_1	NA	NA	0	1	2.21041607857	None	None	None	None	1
3.0.1	2019_Mar_06_1503	s	s	13	1	SIC	130	ABS	0	0	4	2	24_4_2	NA	NA	0	1	4.99774503708	None	None	None	None	1
3.0.1	2019_Mar_06_1503	s	s	13	1	SIC	131	4_2	4	2	1	4	23_1_4	3	2	1	0	0.693265914917	-79.0	283.0	-77.0	293.0	1
3.0.1	2019_Mar_06_1503	s	s	13	1	SIC	132	ABS	0	0	2	1	24_2_1	NA	NA	0	1	2.79884600639	None	None	None	None	1
3.0.1	2019_Mar_06_1503	s	s	13	1	SIC	133	2_4	2	4	4	2	23_4_2	2	2	1	0	0.634401082993	258.0	-303.0	259.0	-303.0	1
3.0.1	2019_Mar_06_1503	s	s	13	1	SIC	134	ABS	0	0	1	4	24_1_4	NA	NA	0	1	4.06102609634	None	None	None	None	1
3.0.1	2019_Mar_06_1503	s	s	13	1	SIC	135	3_2	3	2	3	1	23_3_1	0	-1	0	1	2.25248003006	30.0	207.0	None	None	0
3.0.1	2019_Mar_06_1503	s	s	13	1	SIC	136	2_1	2	1	3	4	23_3_4	1	3	1	0	0.646103143692	338.0	267.0	341.0	276.0	1
3.0.1	2019_Mar_06_1503	s	s	13	1	SIC	137	4_3	4	3	2	4	23_2_4	2	-1	1	0	0.57563996315	-254.0	-152.0	-253.0	-146.0	1
3.0.1	2019_Mar_06_1503	s	s	13	1	SIC	138	ABS	0	0	3	3	24_3_3	NA	NA	0	1	5.43583607674	None	None	None	None	1
3.0.1	2019_Mar_06_1503	s	s	13	1	SIC	139	2_2	2	2	2	4	23_2_4	0	2	1	0	1.46053600311	-5.0	-391.0	-3.0	-394.0	1
3.0.1	2019_Mar_06_1503	s	s	13	1	SIC	140	1_3	1	3	2	4	23_2_4	1	-1	1	0	1.0842461586	451.0	-220.0	448.0	-218.0	1
3.0.1	2019_Mar_06_1503	s	s	13	1	SIC	141	ABS	0	0	1	2	24_1_2	NA	NA	0	1	4.28555798531	None	None	None	None	1
3.0.1	2019_Mar_06_1503	s	s	13	1	SIC	142	ABS	0	0	2	2	24_2_2	NA	NA	0	1	3.8338239193	None	None	None	None	1
3.0.1	2019_Mar_06_1503	s	s	13	1	SIC	143	ABS	0	0	3	1	24_3_1	NA	NA	0	1	2.04575490952	None	None	None	None	1
3.0.1	2019_Mar_06_1503	s	s	13	1	SIC	144	ABS	0	0	4	1	24_4_1	NA	NA	0	1	1.98685097694	None	None	None	None	1
3.0.1	2019_Mar_06_1503	s	s	13	1	SIC	145	4_3	4	3	3	2	23_3_2	1	1	1	0	0.618028879166	-106.0	356.0	-110.0	353.0	1
3.0.1	2019_Mar_06_1503	s	s	13	1	SIC	146	ABS	0	0	3	3	24_3_3	NA	NA	0	1	4.22153997421	None	None	None	None	1
3.0.1	2019_Mar_06_1503	s	s	13	1	SIC	147	ABS	0	0	3	3	24_3_3	NA	NA	0	1	4.57849287987	None	None	None	None	1
3.0.1	2019_Mar_06_1503	s	s	13	1	SIC	148	4_4	4	4	4	2	23_4_2	0	2	1	0	0.881455898285	-519.0	247.0	-518.0	241.0	1
3.0.1	2019_Mar_06_1503	s	s	13	1	SIC	149	ABS	0	0	1	4	24_1_4	NA	NA	0	1	2.0963139534	None	None	None	None	1
3.0.1	2019_Mar_06_1503	s	s	13	1	SIC	150	1_2	1	2	1	1	23_1_1	0	-1	1	0	1.96397399902	98.0	-376.0	103.0	-383.0	1
3.0.1	2019_Mar_06_1503	s	s	13	1	SIC	151	2_1	2	1	2	2	23_2_2	0	1	1	0	1.95694994926	1.0	-315.0	-101.0	-403.0	0
3.0.1	2019_Mar_06_1503	s	s	13	1	SIC	152	1_3	1	3	2	2	23_2_2	1	1	0	1	3.69671916962	-335.0	-257.0	None	None	0
3.0.1	2019_Mar_06_1503	s	s	13	1	SIC	153	1_3	1	3	3	2	23_3_2	2	1	1	0	0.80343580246	88.0	-20.0	90.0	-14.0	1
3.0.1	2019_Mar_06_1503	s	s	13	1	SIC	154	3_3	3	3	2	3	23_2_3	1	0	1	0	0.98722410202	0.0	56.0	4.0	61.0	1
3.0.1	2019_Mar_06_1503	s	s	13	1	SIC	155	1_2	1	2	4	3	23_4_3	3	1	1	0	0.625468969345	-305.0	287.0	-314.0	292.0	1
3.0.1	2019_Mar_06_1503	s	s	13	1	SIC	156	3_1	3	1	2	4	23_2_4	1	3	1	0	0.70964884758	-534.0	-76.0	-527.0	-76.0	1
3.0.1	2019_Mar_06_1503	s	s	13	1	SIC	157	1_1	1	1	2	2	23_2_2	1	1	1	0	1.96624016762	-289.0	-155.0	-289.0	-164.0	1
3.0.1	2019_Mar_06_1503	s	s	13	1	SIC	158	ABS	0	0	4	2	24_4_2	NA	NA	0	1	3.20882201195	None	None	None	None	1
3.0.1	2019_Mar_06_1503	s	s	13	1	SIC	159	ABS	0	0	4	3	24_4_3	NA	NA	0	1	3.10435009003	None	None	None	None	1
3.0.1	2019_Mar_06_1503	s	s	13	1	SIC	160	ABS	0	0	2	3	24_2_3	NA	NA	0	1	4.36266589165	None	None	None	None	1
3.0.1	2019_Mar_06_1503	s	s	13	1	SIC	161	2_1	2	1	4	2	23_4_2	2	1	1	0	0.56821513176	295.0	354.0	296.0	352.0	1
3.0.1	2019_Mar_06_1503	s	s	13	1	SIC	162	ABS	0	0	2	3	24_2_3	NA	NA	0	1	4.65517306328	None	None	None	None	1
3.0.1	2019_Mar_06_1503	s	s	13	1	SIC	163	ABS	0	0	4	4	24_4_4	NA	NA	0	1	1.44875001907	None	None	None	None	1
3.0.1	2019_Mar_06_1503	s	s	13	1	SIC	164	2_3	2	3	1	1	23_1_1	-1	2	1	0	1.17553305626	181.0	-365.0	183.0	-362.0	1
3.0.1	2019_Mar_06_1503	s	s	13	1	SIC	165	3_2	3	2	4	3	23_4_3	-1	1	1	0	0.646177053452	-89.0	-225.0	-89.0	-222.0	1
3.0.1	2019_Mar_06_1503	s	s	13	1	SIC	166	ABS	0	0	2	4	24_2_4	NA	NA	0	1	2.08397102356	None	None	None	None	1
3.0.1	2019_Mar_06_1503	s	s	13	1	SIC	167	3_3	3	3	4	2	23_4_2	-1	1	1	0	0.732403039932	-259.0	-322.0	-257.0	-324.0	1
3.0.1	2019_Mar_06_1503	s	s	13	1	SIC	168	4_1	4	1	2	3	23_2_3	2	2	1	0	0.85001707077	284.0	319.0	283.0	313.0	1
3.0.1	2019_Mar_06_1503	s	s	13	1	SIC	169	ABS	0	0	3	1	24_3_1	NA	NA	0	1	2.0316529274	None	None	None	None	1
3.0.1	2019_Mar_06_1503	s	s	13	1	SIC	170	1_3	1	3	4	2	23_4_2	3	1	1	0	0.570043087006	317.0	336.0	318.0	346.0	1
3.0.1	2019_Mar_06_1503	s	s	13	1	SIC	171	ABS	0	0	2	1	24_2_1	NA	NA	0	1	1.91496300697	None	None	None	None	1
3.0.1	2019_Mar_06_1503	s	s	13	1	SIC	172	ABS	0	0	4	3	24_4_3	NA	NA	0	1	3.73046994209	None	None	None	None	1
3.0.1	2019_Mar_06_1503	s	s	13	1	SIC	173	3_1	3	1	4	2	23_4_2	-1	1	1	0	0.775624036789	-346.0	344.0	-350.0	334.0	1
3.0.1	2019_Mar_06_1503	s	s	13	1	SIC	174	4_3	4	3	3	4	23_3_4	1	-1	1	0	0.822630882263	411.0	216.0	409.0	220.0	1
3.0.1	2019_Mar_06_1503	s	s	13	1	SIC	175	4_3	4	3	2	3	23_2_3	2	0	1	0	0.555106163025	500.0	-182.0	508.0	-183.0	1
3.0.1	2019_Mar_06_1503	s	s	13	1	SIC	176	1_2	1	2	2	1	23_2_1	1	-1	1	0	1.65107297897	531.0	111.0	529.0	103.0	1
3.0.1	2019_Mar_06_1503	s	s	13	1	SIC	177	ABS	0	0	1	2	24_1_2	NA	NA	0	1	4.33922886848	None	None	None	None	1
3.0.1	2019_Mar_06_1503	s	s	13	1	SIC	178	3_3	3	3	3	1	23_3_1	0	2	1	0	0.999260187149	-485.0	-110.0	-481.0	-106.0	1
3.0.1	2019_Mar_06_1503	s	s	13	1	SIC	179	ABS	0	0	2	3	24_2_3	NA	NA	0	1	2.99328184128	None	None	None	None	1
3.0.1	2019_Mar_06_1503	s	s	13	1	SIC	180	ABS	0	0	2	3	24_2_3	NA	NA	0	1	4.3234128952	None	None	None	None	1
3.0.1	2019_Mar_06_1503	s	s	13	1	SIC	181	ABS	0	0	3	3	24_3_3	NA	NA	0	1	3.80987787247	None	None	None	None	1
3.0.1	2019_Mar_06_1503	s	s	13	1	SIC	182	ABS	0	0	3	2	24_3_2	NA	NA	0	1	3.45217394829	None	None	None	None	1
3.0.1	2019_Mar_06_1503	s	s	13	1	SIC	183	3_4	3	4	2	2	23_2_2	1	2	1	0	0.973032951355	-534.0	-279.0	-535.0	-277.0	1
3.0.1	2019_Mar_06_1503	s	s	13	1	SIC	184	1_2	1	2	2	2	23_2_2	1	0	0	1	3.2522149086	94.0	-373.0	None	None	0
3.0.1	2019_Mar_06_1503	s	s	13	1	SIC	185	4_1	4	1	2	2	23_2_2	2	1	1	0	0.488415002823	-506.0	121.0	-507.0	114.0	1
3.0.1	2019_Mar_06_1503	s	s	13	1	SIC	186	ABS	0	0	3	2	24_3_2	NA	NA	0	1	3.43646001816	None	None	None	None	1
3.0.1	2019_Mar_06_1503	s	s	13	1	SIC	187	3_3	3	3	2	2	23_2_2	1	1	1	0	0.893234968185	-360.0	318.0	-359.0	314.0	1
3.0.1	2019_Mar_06_1503	s	s	13	1	SIC	188	ABS	0	0	2	3	24_2_3	NA	NA	0	1	4.62841296196	None	None	None	None	1
3.0.1	2019_Mar_06_1503	s	s	13	1	SIC	189	ABS	0	0	1	1	24_1_1	NA	NA	0	1	2.76321482658	None	None	None	None	1
3.0.1	2019_Mar_06_1503	s	s	13	1	SIC	190	2_3	2	3	3	1	23_3_1	1	2	1	0	0.775849103928	-341.0	321.0	-348.0	324.0	1
3.0.1	2019_Mar_06_1503	s	s	13	1	SIC	191	1_4	1	4	2	1	23_2_1	1	3	1	0	0.613810062408	-64.0	401.0	-71.0	401.0	1
3.0.1	2019_Mar_06_1503	s	s	13	1	SIC	192	ABS	0	0	3	4	24_3_4	NA	NA	0	1	1.74549794197	None	None	None	None	1
3.0.1	2019_Mar_06_1503	s	s	13	1	SIC	193	ABS	0	0	3	1	24_3_1	NA	NA	0	1	2.57502603531	None	None	None	None	1
3.0.1	2019_Mar_06_1503	s	s	13	1	SIC	194	ABS	0	0	4	3	24_4_3	NA	NA	0	1	3.74575209618	None	None	None	None	1
3.0.1	2019_Mar_06_1503	s	s	13	1	SIC	195	2_2	2	2	2	1	23_2_1	0	-1	1	0	1.68116188049	329.0	338.0	325.0	336.0	1
3.0.1	2019_Mar_06_1503	s	s	13	1	SIC	196	4_1	4	1	3	4	23_3_4	1	3	1	0	0.561038970947	-502.0	345.0	-500.0	349.0	1
3.0.1	2019_Mar_06_1503	s	s	13	1	SIC	197	ABS	0	0	3	4	24_3_4	NA	NA	0	1	2.06231498718	None	None	None	None	1
3.0.1	2019_Mar_06_1503	s	s	13	1	SIC	198	1_1	1	1	2	3	23_2_3	1	2	1	0	0.627642869949	-61.0	-39.0	-52.0	-37.0	1
3.0.1	2019_Mar_06_1503	s	s	13	1	SIC	199	ABS	0	0	4	4	24_4_4	NA	NA	0	1	1.74501514435	None	None	None	None	1
3.0.1	2019_Mar_06_1503	s	s	13	1	SIC	200	ABS	0	0	1	2	24_1_2	NA	NA	0	1	3.95144104958	None	None	None	None	1
3.0.1	2019_Mar_06_1503	s	s	13	1	SIC	201	ABS	0	0	3	3	24_3_3	NA	NA	0	1	3.61292314529	None	None	None	None	1
3.0.1	2019_Mar_06_1503	s	s	13	1	SIC	202	1_3	1	3	1	2	23_1_2	0	1	1	0	3.08406305313	-219.0	380.0	-223.0	373.0	1
3.0.1	2019_Mar_06_1503	s	s	13	1	SIC	203	ABS	0	0	3	4	24_3_4	NA	NA	0	1	1.615858078	None	None	None	None	1
3.0.1	2019_Mar_06_1503	s	s	13	1	SIC	204	ABS	0	0	3	1	24_3_1	NA	NA	0	1	1.8741440773	None	None	None	None	1
3.0.1	2019_Mar_06_1503	s	s	13	1	SIC	205	4_2	4	2	2	4	23_2_4	2	2	1	0	0.555070877075	76.0	-344.0	77.0	-348.0	1
3.0.1	2019_Mar_06_1503	s	s	13	1	SIC	206	2_3	2	3	1	4	23_1_4	-1	-1	1	0	0.963786125183	32.0	70.0	34.0	63.0	1
3.0.1	2019_Mar_06_1503	s	s	13	1	SIC	207	2_4	2	4	3	3	23_3_3	1	1	1	0	0.71681189537	-374.0	74.0	-378.0	77.0	1
3.0.1	2019_Mar_06_1503	s	s	13	1	SIC	208	ABS	0	0	1	2	24_1_2	NA	NA	0	1	2.64573001862	None	None	None	None	1
3.0.1	2019_Mar_06_1503	s	s	13	1	SIC	209	ABS	0	0	4	3	24_4_3	NA	NA	0	1	4.0292198658	None	None	None	None	1
3.0.1	2019_Mar_06_1503	s	s	13	1	SIC	210	ABS	0	0	3	2	24_3_2	NA	NA	0	1	2.82717514038	None	None	None	None	1
3.0.1	2019_Mar_06_1503	s	s	13	1	SIC	211	ABS	0	0	2	2	24_2_2	NA	NA	0	1	3.54471898079	None	None	None	None	1
3.0.1	2019_Mar_06_1503	s	s	13	1	SIC	212	ABS	0	0	1	1	24_1_1	NA	NA	0	1	1.9571018219	None	None	None	None	1
3.0.1	2019_Mar_06_1503	s	s	13	1	SIC	213	ABS	0	0	1	2	24_1_2	NA	NA	0	1	3.33982396126	None	None	None	None	1
3.0.1	2019_Mar_06_1503	s	s	13	1	SIC	214	ABS	0	0	2	4	24_2_4	NA	NA	0	1	1.24600696564	None	None	None	None	1
3.0.1	2019_Mar_06_1503	s	s	13	1	SIC	215	3_2	3	2	1	2	23_1_2	2	0	1	0	0.764172077179	-174.0	-338.0	-171.0	-344.0	1
3.0.1	2019_Mar_06_1503	s	s	13	1	SIC	216	ABS	0	0	1	4	24_1_4	NA	NA	0	1	2.46914196014	None	None	None	None	1
3.0.1	2019_Mar_06_1503	s	s	13	1	SIC	217	2_2	2	2	1	4	23_1_4	-1	2	1	0	0.71681189537	-427.0	-206.0	-421.0	-214.0	1
3.0.1	2019_Mar_06_1503	s	s	13	1	SIC	218	4_4	4	4	1	4	23_1_4	3	0	1	0	0.533807039261	372.0	114.0	375.0	109.0	1
3.0.1	2019_Mar_06_1503	s	s	13	1	SIC	219	ABS	0	0	3	3	24_3_3	NA	NA	0	1	3.55670785904	None	None	None	None	1
3.0.1	2019_Mar_06_1503	s	s	13	1	SIC	220	ABS	0	0	3	1	24_3_1	NA	NA	0	1	2.41536593437	None	None	None	None	1
3.0.1	2019_Mar_06_1503	s	s	13	1	SIC	221	ABS	0	0	1	2	24_1_2	NA	NA	0	1	3.67172217369	None	None	None	None	1
3.0.1	2019_Mar_06_1503	s	s	13	1	SIC	222	ABS	0	0	3	1	24_3_1	NA	NA	0	1	1.60548615456	None	None	None	None	1
3.0.1	2019_Mar_06_1503	s	s	13	1	SIC	223	ABS	0	0	4	3	24_4_3	NA	NA	0	1	3.39829301834	None	None	None	None	1
3.0.1	2019_Mar_06_1503	s	s	13	1	SIC	224	ABS	0	0	1	1	24_1_1	NA	NA	0	1	1.56241703033	None	None	None	None	1
3.0.1	2019_Mar_06_1503	s	s	13	1	SIC	225	ABS	0	0	3	4	24_3_4	NA	NA	0	1	2.12127590179	None	None	None	None	1
3.0.1	2019_Mar_06_1503	s	s	13	1	SIC	226	ABS	0	0	4	4	24_4_4	NA	NA	0	1	1.858096838	None	None	None	None	1
3.0.1	2019_Mar_06_1503	s	s	13	1	SIC	227	ABS	0	0	4	2	24_4_2	NA	NA	0	1	4.52744603157	None	None	None	None	1
3.0.1	2019_Mar_06_1503	s	s	13	1	SIC	228	ABS	0	0	4	3	24_4_3	NA	NA	0	1	3.48737716675	None	None	None	None	1
3.0.1	2019_Mar_06_1503	s	s	13	1	SIC	229	ABS	0	0	3	2	24_3_2	NA	NA	0	1	3.04549384117	None	None	None	None	1
3.0.1	2019_Mar_06_1503	s	s	13	1	SIC	230	ABS	0	0	2	3	24_2_3	NA	NA	0	1	3.37482714653	None	None	None	None	1
3.0.1	2019_Mar_06_1503	s	s	13	1	SIC	231	ABS	0	0	1	3	24_1_3	NA	NA	0	1	3.83988785744	None	None	None	None	1
3.0.1	2019_Mar_06_1503	s	s	13	1	SIC	232	ABS	0	0	2	1	24_2_1	NA	NA	0	1	1.33300209045	None	None	None	None	1
3.0.1	2019_Mar_06_1503	s	s	13	1	SIC	233	ABS	0	0	4	4	24_4_4	NA	NA	0	1	1.22744989395	None	None	None	None	1
3.0.1	2019_Mar_06_1503	s	s	13	1	SIC	234	ABS	0	0	4	2	24_4_2	NA	NA	0	1	3.46886491776	None	None	None	None	1
3.0.1	2019_Mar_06_1503	s	s	13	1	SIC	235	ABS	0	0	2	4	24_2_4	NA	NA	0	1	1.65004301071	None	None	None	None	1
3.0.1	2019_Mar_06_1503	s	s	13	1	SIC	236	2_1	2	1	3	3	23_3_3	1	2	1	0	0.791224002838	-128.0	27.0	-122.0	25.0	1
3.0.1	2019_Mar_06_1503	s	s	13	1	SIC	237	4_2	4	2	2	2	23_2_2	2	0	1	0	0.555016040802	-69.0	-172.0	-74.0	-175.0	1
3.0.1	2019_Mar_06_1503	s	s	13	1	SIC	238	2_3	2	3	3	3	23_3_3	1	0	1	0	1.15191793442	292.0	252.0	293.0	257.0	1
3.0.1	2019_Mar_06_1503	s	s	13	1	SIC	239	2_3	2	3	4	4	23_4_4	2	-1	1	0	0.49622297287	449.0	-304.0	455.0	-304.0	1
3.0.1	2019_Mar_06_1503	s	s	13	1	SIC	240	ABS	0	0	4	1	24_4_1	NA	NA	0	1	1.51057195663	None	None	None	None	1
3.0.1	2019_Mar_06_1503	s	s	13	1	SIC	241	1_2	1	2	3	3	23_3_3	2	1	1	0	0.857887029648	198.0	184.0	199.0	188.0	1
3.0.1	2019_Mar_06_1503	s	s	13	1	SIC	242	2_4	2	4	4	4	23_4_4	2	0	1	0	0.437403917313	-199.0	141.0	-201.0	144.0	1
3.0.1	2019_Mar_06_1503	s	s	13	1	SIC	243	ABS	0	0	1	1	24_1_1	NA	NA	0	1	2.22208786011	None	None	None	None	1
3.0.1	2019_Mar_06_1503	s	s	13	1	SIC	244	ABS	0	0	4	1	24_4_1	NA	NA	0	1	1.29768705368	None	None	None	None	1
3.0.1	2019_Mar_06_1503	s	s	13	1	SIC	245	2_2	2	2	3	3	23_3_3	1	1	1	0	0.634455919266	400.0	-315.0	401.0	-319.0	1
3.0.1	2019_Mar_06_1503	s	s	13	1	SIC	246	ABS	0	0	2	1	24_2_1	NA	NA	0	1	2.48638796806	None	None	None	None	1
3.0.1	2019_Mar_06_1503	s	s	13	1	SIC	247	3_4	3	4	1	3	23_1_3	2	1	1	0	0.913373947144	487.0	229.0	490.0	225.0	1
3.0.1	2019_Mar_06_1503	s	s	13	1	SIC	248	2_3	2	3	2	2	23_2_2	0	1	1	0	2.2339220047	452.0	157.0	450.0	166.0	1
3.0.1	2019_Mar_06_1503	s	s	13	1	SIC	249	1_1	1	1	4	2	23_4_2	3	1	1	0	0.528747797012	537.0	360.0	547.0	363.0	1
3.0.1	2019_Mar_06_1503	s	s	13	1	SIC	250	ABS	0	0	4	4	24_4_4	NA	NA	0	1	1.11665010452	None	None	None	None	1
3.0.1	2019_Mar_06_1503	s	s	13	1	SIC	251	2_3	2	3	1	2	23_1_2	-1	1	1	0	2.48084282875	171.0	115.0	172.0	112.0	1
3.0.1	2019_Mar_06_1503	s	s	13	1	SIC	252	1_3	1	3	3	3	23_3_3	2	0	1	0	1.00299811363	-294.0	-274.0	-295.0	-272.0	1
3.0.1	2019_Mar_06_1503	s	s	13	1	SIC	253	3_1	3	1	4	4	23_4_4	-1	3	1	0	0.881785869598	-188.0	-300.0	-189.0	-299.0	1
3.0.1	2019_Mar_06_1503	s	s	13	1	SIC	254	ABS	0	0	1	3	24_1_3	NA	NA	0	1	2.83385396004	None	None	None	None	1
3.0.1	2019_Mar_06_1503	s	s	13	1	SIC	255	2_2	2	2	4	2	23_4_2	2	0	1	0	0.733170032501	-275.0	-275.0	-271.0	-277.0	1
3.0.1	2019_Mar_06_1503	s	s	13	1	SIC	256	2_2	2	2	3	1	23_3_1	1	-1	1	0	0.817178010941	209.0	139.0	221.0	143.0	1
3.0.1	2019_Mar_06_1503	s	s	13	1	SIC	257	ABS	0	0	1	1	24_1_1	NA	NA	0	1	3.10426902771	None	None	None	None	1
3.0.1	2019_Mar_06_1503	s	s	13	1	SIC	258	ABS	0	0	3	1	24_3_1	NA	NA	0	1	1.46444702148	None	None	None	None	1
3.0.1	2019_Mar_06_1503	s	s	13	1	SIC	259	3_2	3	2	4	4	23_4_4	-1	2	1	0	0.599107027054	314.0	42.0	318.0	46.0	1
3.0.1	2019_Mar_06_1503	s	s	13	1	SIC	260	ABS	0	0	4	2	24_4_2	NA	NA	0	1	3.46880197525	None	None	None	None	1
3.0.1	2019_Mar_06_1503	s	s	13	1	SIC	261	1_2	1	2	4	4	23_4_4	3	2	1	0	0.587348937988	-357.0	394.0	-358.0	395.0	1
3.0.1	2019_Mar_06_1503	s	s	13	1	SIC	262	ABS	0	0	2	4	24_2_4	NA	NA	0	1	2.58109998703	None	None	None	None	1
3.0.1	2019_Mar_06_1503	s	s	13	1	SIC	263	1_4	1	4	4	4	23_4_4	3	0	1	0	0.575581073761	-523.0	-136.0	-519.0	-133.0	1
3.0.1	2019_Mar_06_1503	s	s	13	1	SIC	264	ABS	0	0	2	2	24_2_2	NA	NA	0	1	3.29250478745	None	None	None	None	1
3.0.1	2019_Mar_06_1503	s	s	13	1	SIC	265	4_4	4	4	1	1	23_1_1	3	3	1	0	0.540496110916	159.0	111.0	163.0	111.0	1
3.0.1	2019_Mar_06_1503	s	s	13	1	SIC	266	3_1	3	1	2	2	23_2_2	1	1	1	0	1.05779004097	491.0	306.0	497.0	310.0	1
3.0.1	2019_Mar_06_1503	s	s	13	1	SIC	267	ABS	0	0	3	3	24_3_3	NA	NA	0	1	3.55698204041	None	None	None	None	1
3.0.1	2019_Mar_06_1503	s	s	13	1	SIC	268	ABS	0	0	3	2	24_3_2	NA	NA	0	1	3.32771611214	None	None	None	None	1
3.0.1	2019_Mar_06_1503	s	s	13	1	SIC	269	ABS	0	0	1	4	24_1_4	NA	NA	0	1	1.37989711761	None	None	None	None	1
3.0.1	2019_Mar_06_1503	s	s	13	1	SIC	270	4_2	4	2	3	2	23_3_2	1	0	1	0	0.561128854752	-408.0	-376.0	-407.0	-379.0	1
3.0.1	2019_Mar_06_1503	s	s	13	1	SIC	271	ABS	0	0	3	4	24_3_4	NA	NA	0	1	2.08495616913	None	None	None	None	1
3.0.1	2019_Mar_06_1503	s	s	13	1	SIC	272	ABS	0	0	1	2	24_1_2	NA	NA	0	1	3.95400214195	None	None	None	None	1
3.0.1	2019_Mar_06_1503	s	s	13	1	SIC	273	ABS	0	0	1	2	24_1_2	NA	NA	0	1	2.5696709156	None	None	None	None	1
3.0.1	2019_Mar_06_1503	s	s	13	1	SIC	274	ABS	0	0	4	3	24_4_3	NA	NA	0	1	3.32555198669	None	None	None	None	1
3.0.1	2019_Mar_06_1503	s	s	13	1	SIC	275	ABS	0	0	4	1	24_4_1	NA	NA	0	1	1.46940898895	None	None	None	None	1
3.0.1	2019_Mar_06_1503	s	s	13	1	SIC	276	4_1	4	1	4	4	23_4_4	0	3	1	0	1.07512307167	150.0	389.0	151.0	382.0	1
3.0.1	2019_Mar_06_1503	s	s	13	1	SIC	277	ABS	0	0	2	4	24_2_4	NA	NA	0	1	1.69295716286	None	None	None	None	1
3.0.1	2019_Mar_06_1503	s	s	13	1	SIC	278	ABS	0	0	1	3	24_1_3	NA	NA	0	1	3.2220261097	None	None	None	None	1
3.0.1	2019_Mar_06_1503	s	s	13	1	SIC	279	2_4	2	4	1	3	23_1_3	-1	1	1	0	1.13506603241	267.0	-59.0	268.0	-61.0	1
3.0.1	2019_Mar_06_1503	s	s	13	1	SIC	280	2_2	2	2	2	3	23_2_3	0	1	1	0	3.26889681816	45.0	-268.0	42.0	-266.0	1
3.0.1	2019_Mar_06_1503	s	s	13	1	SIC	281	3_4	3	4	2	1	23_2_1	1	3	1	0	0.696715116501	-237.0	-60.0	-239.0	-63.0	1
3.0.1	2019_Mar_06_1503	s	s	13	1	SIC	282	4_2	4	2	4	4	23_4_4	0	2	1	0	0.79536318779	148.0	-35.0	152.0	-38.0	1
3.0.1	2019_Mar_06_1503	s	s	13	1	SIC	283	4_3	4	3	1	2	23_1_2	3	1	1	0	0.822602033615	-192.0	-377.0	-192.0	-387.0	1
3.0.1	2019_Mar_06_1503	s	s	13	1	SIC	284	1_4	1	4	3	4	23_3_4	2	0	1	0	0.775609970093	-39.0	68.0	-45.0	72.0	1
3.0.1	2019_Mar_06_1503	s	s	13	1	SIC	285	ABS	0	0	4	2	24_4_2	NA	NA	0	1	2.08406615257	None	None	None	None	1
3.0.1	2019_Mar_06_1503	s	s	13	1	SIC	286	4_1	4	1	3	1	23_3_1	1	0	1	0	0.533058166504	294.0	-342.0	294.0	-344.0	1
3.0.1	2019_Mar_06_1503	s	s	13	1	SIC	287	ABS	0	0	3	3	24_3_3	NA	NA	0	1	3.99808001518	None	None	None	None	1
3.0.1	2019_Mar_06_1503	s	s	13	1	SIC	288	ABS	0	0	1	2	24_1_2	NA	NA	0	1	3.01023387909	None	None	None	None	1
3.0.1	2019_Mar_06_1503	s	s	13	1	SIC	289	4_3	4	3	4	4	23_4_4	0	-1	1	0	1.29309606552	303.0	-411.0	304.0	-413.0	1
3.0.1	2019_Mar_06_1503	s	s	13	1	SIC	290	2_2	2	2	3	2	23_3_2	1	0	1	0	1.50126099586	-14.0	375.0	-10.0	373.0	1
3.0.1	2019_Mar_06_1503	s	s	13	1	SIC	291	ABS	0	0	2	4	24_2_4	NA	NA	0	1	2.5799100399	None	None	None	None	1
3.0.1	2019_Mar_06_1503	s	s	13	1	SIC	292	3_3	3	3	3	4	23_3_4	0	-1	1	0	0.944480895996	-32.0	212.0	-30.0	212.0	1
3.0.1	2019_Mar_06_1503	s	s	13	1	SIC	293	ABS	0	0	4	2	24_4_2	NA	NA	0	1	4.12194395065	None	None	None	None	1
3.0.1	2019_Mar_06_1503	s	s	13	1	SIC	294	2_2	2	2	4	1	23_4_1	2	-1	1	0	0.547618150711	29.0	25.0	33.0	27.0	1
3.0.1	2019_Mar_06_1503	s	s	13	1	SIC	295	4_2	4	2	3	4	23_3_4	1	2	1	0	0.528603076935	144.0	-406.0	143.0	-406.0	1
3.0.1	2019_Mar_06_1503	s	s	13	1	SIC	296	ABS	0	0	2	2	24_2_2	NA	NA	0	1	3.14244103432	None	None	None	None	1
3.0.1	2019_Mar_06_1503	s	s	13	1	SIC	297	ABS	0	0	3	4	24_3_4	NA	NA	0	1	2.2810280323	None	None	None	None	1
3.0.1	2019_Mar_06_1503	s	s	13	1	SIC	298	ABS	0	0	3	2	24_3_2	NA	NA	0	1	3.3555521965	None	None	None	None	1
3.0.1	2019_Mar_06_1503	s	s	13	1	SIC	299	ABS	0	0	1	4	24_1_4	NA	NA	0	1	2.43775582314	None	None	None	None	1
3.0.1	2019_Mar_06_1503	s	s	13	1	SIC	300	2_1	2	1	3	2	23_3_2	1	1	1	0	0.834407806396	-215.0	-32.0	-215.0	-31.0	1
3.0.1	2019_Mar_06_1503	s	s	13	1	SIC	301	1_1	1	1	2	4	23_2_4	1	3	1	0	0.745892047882	-417.0	-170.0	-424.0	-177.0	1
3.0.1	2019_Mar_06_1503	s	s	13	1	SIC	302	ABS	0	0	1	4	24_1_4	NA	NA	0	1	2.2457420826	None	None	None	None	1
3.0.1	2019_Mar_06_1503	s	s	13	1	SIC	303	3_2	3	2	1	3	23_1_3	2	1	1	0	0.66964507103	488.0	-216.0	486.0	-219.0	1
3.0.1	2019_Mar_06_1503	s	s	13	1	SIC	304	4_4	4	4	3	3	23_3_3	1	1	1	0	0.716747999191	327.0	-190.0	331.0	-189.0	1
3.0.1	2019_Mar_06_1503	s	s	13	1	SIC	305	3_2	3	2	1	4	23_1_4	2	2	1	0	0.493310928345	24.0	-74.0	25.0	-75.0	1
3.0.1	2019_Mar_06_1503	s	s	13	1	SIC	306	3_1	3	1	1	2	23_1_2	2	1	1	0	0.521759033203	255.0	73.0	262.0	77.0	1
3.0.1	2019_Mar_06_1503	s	s	13	1	SIC	307	ABS	0	0	2	2	24_2_2	NA	NA	0	1	3.6570649147	None	None	None	None	1
3.0.1	2019_Mar_06_1503	s	s	13	1	SIC	308	2_1	2	1	2	3	23_2_3	0	2	1	0	1.42255711555	-73.0	256.0	-71.0	263.0	1
3.0.1	2019_Mar_06_1503	s	s	13	1	SIC	309	ABS	0	0	3	3	24_3_3	NA	NA	0	1	3.48063397408	None	None	None	None	1
3.0.1	2019_Mar_06_1503	s	s	13	1	SIC	310	ABS	0	0	2	1	24_2_1	NA	NA	0	1	2.10460495949	None	None	None	None	1
3.0.1	2019_Mar_06_1503	s	s	13	1	SIC	311	4_1	4	1	1	1	23_1_1	3	0	1	0	0.599189043045	459.0	238.0	455.0	238.0	1
3.0.1	2019_Mar_06_1503	s	s	13	1	SIC	312	ABS	0	0	4	1	24_4_1	NA	NA	0	1	1.7380669117	None	None	None	None	1
3.0.1	2019_Mar_06_1503	s	s	13	1	SIC	313	1_2	1	2	3	2	23_3_2	2	0	1	0	0.664591789246	-45.0	-261.0	-46.0	-264.0	1
3.0.1	2019_Mar_06_1503	s	s	13	1	SIC	314	ABS	0	0	2	4	24_2_4	NA	NA	0	1	2.80367898941	None	None	None	None	1
3.0.1	2019_Mar_06_1503	s	s	13	1	SIC	315	1_4	1	4	1	2	23_1_2	0	2	1	0	1.32546186447	508.0	-199.0	509.0	-196.0	1
3.0.1	2019_Mar_06_1503	s	s	13	1	SIC	316	4_4	4	4	3	4	23_3_4	1	0	1	0	0.804682016373	45.0	-183.0	40.0	-187.0	1
3.0.1	2019_Mar_06_1503	s	s	13	1	SIC	317	ABS	0	0	1	1	24_1_1	NA	NA	0	1	1.78064084053	None	None	None	None	1
3.0.1	2019_Mar_06_1503	s	s	13	1	SIC	318	4_3	4	3	3	1	23_3_1	1	2	1	0	0.587435007095	-72.0	232.0	-72.0	229.0	1
3.0.1	2019_Mar_06_1503	s	s	13	1	SIC	319	ABS	0	0	3	3	24_3_3	NA	NA	0	1	2.11627912521	None	None	None	None	1
3.0.1	2019_Mar_06_1503	s	s	13	1	SIC	320	ABS	0	0	2	2	24_2_2	NA	NA	0	1	3.69533896446	None	None	None	None	1
3.0.1	2019_Mar_06_1503	s	s	13	1	SIC	321	2_4	2	4	1	4	23_1_4	-1	0	0	1	1.4224998951	172.0	344.0	None	None	0
3.0.1	2019_Mar_06_1503	s	s	13	1	SIC	322	4_4	4	4	1	2	23_1_2	3	2	1	0	0.522613048553	-101.0	-38.0	-104.0	-40.0	1
3.0.1	2019_Mar_06_1503	s	s	13	1	SIC	323	3_3	3	3	4	4	23_4_4	-1	-1	1	0	0.575611114502	-170.0	-330.0	-161.0	-323.0	1
3.0.1	2019_Mar_06_1503	s	s	13	1	SIC	324	ABS	0	0	4	1	24_4_1	NA	NA	0	1	1.29798603058	None	None	None	None	1
3.0.1	2019_Mar_06_1503	s	s	13	1	SIC	325	2_2	2	2	4	4	23_4_4	2	2	1	0	0.578568935394	-16.0	-403.0	-18.0	-403.0	1
3.0.1	2019_Mar_06_1503	s	s	13	1	SIC	326	3_1	3	1	2	1	23_2_1	1	0	1	0	0.827488899231	-390.0	-50.0	-388.0	-49.0	1
3.0.1	2019_Mar_06_1503	s	s	13	1	SIC	327	3_3	3	3	4	3	23_4_3	-1	0	1	0	0.540312051773	-203.0	-85.0	-199.0	-87.0	1
3.0.1	2019_Mar_06_1503	s	s	13	1	SIC	328	ABS	0	0	2	3	24_2_3	NA	NA	0	1	3.04821205139	None	None	None	None	1
3.0.1	2019_Mar_06_1503	s	s	13	1	SIC	329	3_4	3	4	3	2	23_3_2	0	2	1	0	0.650447130203	-254.0	354.0	-253.0	353.0	1
3.0.1	2019_Mar_06_1503	s	s	13	1	SIC	330	ABS	0	0	4	4	24_4_4	NA	NA	0	1	1.00383615494	None	None	None	None	1
3.0.1	2019_Mar_06_1503	s	s	13	1	SIC	331	1_4	1	4	3	1	23_3_1	2	3	1	0	0.56241106987	54.0	234.0	53.0	236.0	1
3.0.1	2019_Mar_06_1503	s	s	13	1	SIC	332	3_4	3	4	4	2	23_4_2	-1	2	1	0	0.496177911758	16.0	280.0	17.0	281.0	1
3.0.1	2019_Mar_06_1503	s	s	13	1	SIC	333	1_2	1	2	3	1	23_3_1	2	-1	1	0	0.662931919098	338.0	360.0	339.0	362.0	1
3.0.1	2019_Mar_06_1503	s	s	13	1	SIC	334	4_1	4	1	4	2	23_4_2	0	1	0	1	2.27616405487	-338.0	249.0	None	None	0
3.0.1	2019_Mar_06_1503	s	s	13	1	SIC	335	ABS	0	0	4	4	24_4_4	NA	NA	0	1	1.55570411682	None	None	None	None	1
3.0.1	2019_Mar_06_1503	s	s	13	1	SIC	336	ABS	0	0	4	4	24_4_4	NA	NA	0	1	1.77541303635	None	None	None	None	1
3.0.1	2019_Mar_06_1503	s	s	13	1	SIC	337	1_4	1	4	4	2	23_4_2	3	2	1	0	0.457967042923	-170.0	268.0	-167.0	264.0	1
3.0.1	2019_Mar_06_1503	s	s	13	1	SIC	338	ABS	0	0	2	4	24_2_4	NA	NA	0	1	1.25560903549	None	None	None	None	1
3.0.1	2019_Mar_06_1503	s	s	13	1	SIC	339	3_4	3	4	1	2	23_1_2	2	2	1	0	0.592427968979	-386.0	91.0	-381.0	84.0	1
3.0.1	2019_Mar_06_1503	s	s	13	1	SIC	340	4_2	4	2	3	3	23_3_3	1	1	1	0	0.752090930939	365.0	61.0	366.0	67.0	1
3.0.1	2019_Mar_06_1503	s	s	13	1	SIC	341	ABS	0	0	1	4	24_1_4	NA	NA	0	1	1.73108792305	None	None	None	None	1
3.0.1	2019_Mar_06_1503	s	s	13	1	SIC	342	ABS	0	0	2	3	24_2_3	NA	NA	0	1	3.42180085182	None	None	None	None	1
3.0.1	2019_Mar_06_1503	s	s	13	1	SIC	343	1_3	1	3	3	4	23_3_4	2	-1	1	0	0.664590120316	-354.0	293.0	-359.0	284.0	1
3.0.1	2019_Mar_06_1503	s	s	13	1	SIC	344	4_4	4	4	3	1	23_3_1	1	3	1	0	0.599274873734	140.0	-238.0	141.0	-237.0	1
3.0.1	2019_Mar_06_1503	s	s	13	1	SIC	345	1_4	1	4	2	4	23_2_4	1	0	0	1	1.6106069088	378.0	-405.0	None	None	0
3.0.1	2019_Mar_06_1503	s	s	13	1	SIC	346	ABS	0	0	3	3	24_3_3	NA	NA	0	1	2.92792892456	None	None	None	None	1
3.0.1	2019_Mar_06_1503	s	s	13	1	SIC	347	ABS	0	0	4	3	24_4_3	NA	NA	0	1	2.96608686447	None	None	None	None	1
3.0.1	2019_Mar_06_1503	s	s	13	1	SIC	348	3_1	3	1	1	1	23_1_1	2	0	1	0	0.75205206871	-90.0	-349.0	-86.0	-349.0	1
3.0.1	2019_Mar_06_1503	s	s	13	1	SIC	349	1_4	1	4	1	1	23_1_1	0	3	1	0	0.658006906509	6.0	-97.0	0.0	-92.0	1
3.0.1	2019_Mar_06_1503	s	s	13	1	SIC	350	3_3	3	3	1	1	23_1_1	2	2	1	0	0.528506994247	-29.0	-46.0	-22.0	-43.0	1
3.0.1	2019_Mar_06_1503	s	s	13	1	SIC	351	2_1	2	1	2	4	23_2_4	0	3	1	0	0.528522014618	-7.0	25.0	-6.0	24.0	1
3.0.1	2019_Mar_06_1503	s	s	13	1	SIC	352	ABS	0	0	2	1	24_2_1	NA	NA	0	1	2.96706318855	None	None	None	None	1
3.0.1	2019_Mar_06_1503	s	s	13	1	SIC	353	3_1	3	1	2	3	23_2_3	1	2	1	0	0.958434820175	504.0	28.0	511.0	31.0	1
3.0.1	2019_Mar_06_1503	s	s	13	1	SIC	354	2_3	2	3	2	1	23_2_1	0	2	1	0	2.07519507408	-50.0	401.0	-48.0	403.0	1
3.0.1	2019_Mar_06_1503	s	s	13	1	SIC	355	ABS	0	0	2	2	24_2_2	NA	NA	0	1	3.28068804741	None	None	None	None	1
3.0.1	2019_Mar_06_1503	s	s	13	1	SIC	356	ABS	0	0	4	1	24_4_1	NA	NA	0	1	1.91307401657	None	None	None	None	1
3.0.1	2019_Mar_06_1503	s	s	13	1	SIC	357	1_2	1	2	1	4	23_1_4	0	2	1	0	1.104804039	460.0	-57.0	461.0	-59.0	1
3.0.1	2019_Mar_06_1503	s	s	13	1	SIC	358	3_4	3	4	4	4	23_4_4	-1	0	1	0	0.639460086823	266.0	-169.0	267.0	-170.0	1
3.0.1	2019_Mar_06_1503	s	s	13	1	SIC	359	ABS	0	0	3	2	24_3_2	NA	NA	0	1	2.7162899971	None	None	None	None	1
3.0.1	2019_Mar_06_1503	s	s	13	1	SIC	360	ABS	0	0	1	1	24_1_1	NA	NA	0	1	2.08436489105	None	None	None	None	1
3.0.1	2019_Mar_06_1503	s	s	13	1	SIC	361	ABS	0	0	2	2	24_2_2	NA	NA	0	1	1.85296297073	None	None	None	None	1
3.0.1	2019_Mar_06_1503	s	s	13	1	SIC	362	3_2	3	2	2	1	23_2_1	1	-1	1	0	0.869611024857	447.0	-26.0	440.0	-27.0	1
3.0.1	2019_Mar_06_1503	s	s	13	1	SIC	363	ABS	0	0	1	2	24_1_2	NA	NA	0	1	1.94487905502	None	None	None	None	1
3.0.1	2019_Mar_06_1503	s	s	13	1	SIC	364	2_4	2	4	4	3	23_4_3	2	1	1	0	0.558130979538	493.0	377.0	491.0	377.0	1
3.0.1	2019_Mar_06_1503	s	s	13	1	SIC	365	1_4	1	4	3	2	23_3_2	2	2	1	0	0.564033031464	203.0	172.0	200.0	167.0	1
3.0.1	2019_Mar_06_1503	s	s	13	1	SIC	366	3_2	3	2	2	2	23_2_2	1	0	1	0	0.752043962479	235.0	111.0	239.0	115.0	1
3.0.1	2019_Mar_06_1503	s	s	13	1	SIC	367	2_3	2	3	4	3	23_4_3	2	0	1	0	0.557096004486	-107.0	-21.0	-115.0	-22.0	1
3.0.1	2019_Mar_06_1503	s	s	13	1	SIC	368	4_4	4	4	3	2	23_3_2	1	2	1	0	0.563840866089	260.0	-142.0	256.0	-135.0	1
3.0.1	2019_Mar_06_1503	s	s	13	1	SIC	369	2_3	2	3	3	2	23_3_2	1	1	1	0	1.00330805779	-262.0	-163.0	-259.0	-161.0	1
3.0.1	2019_Mar_06_1503	s	s	13	1	SIC	370	2_4	2	4	3	2	23_3_2	1	2	1	0	0.56004691124	317.0	-95.0	319.0	-92.0	1
3.0.1	2019_Mar_06_1503	s	s	13	1	SIC	371	1_4	1	4	4	3	23_4_3	3	1	1	0	0.543152093887	316.0	256.0	313.0	259.0	1
3.0.1	2019_Mar_06_1503	s	s	13	1	SIC	372	3_3	3	3	2	4	23_2_4	1	-1	1	0	1.16366291046	203.0	397.0	202.0	396.0	1
3.0.1	2019_Mar_06_1503	s	s	13	1	SIC	373	ABS	0	0	2	1	24_2_1	NA	NA	0	1	2.53220391273	None	None	None	None	1
3.0.1	2019_Mar_06_1503	s	s	13	1	SIC	374	ABS	0	0	4	2	24_4_2	NA	NA	0	1	2.32662010193	None	None	None	None	1
3.0.1	2019_Mar_06_1503	s	s	13	1	SIC	375	ABS	0	0	2	4	24_2_4	NA	NA	0	1	2.20356798172	None	None	None	None	1
3.0.1	2019_Mar_06_1503	s	s	13	1	SIC	376	ABS	0	0	3	2	24_3_2	NA	NA	0	1	2.53291106224	None	None	None	None	1
3.0.1	2019_Mar_06_1503	s	s	13	1	SIC	377	ABS	0	0	1	1	24_1_1	NA	NA	0	1	1.80403590202	None	None	None	None	1
3.0.1	2019_Mar_06_1503	s	s	13	1	SIC	378	ABS	0	0	1	2	24_1_2	NA	NA	0	1	2.34466290474	None	None	None	None	1
3.0.1	2019_Mar_06_1503	s	s	13	1	SIC	379	3_1	3	1	3	3	23_3_3	0	2	0	1	2.4378080368	-319.0	112.0	None	None	0
3.0.1	2019_Mar_06_1503	s	s	13	1	SIC	380	1_2	1	2	2	3	23_2_3	1	1	1	0	2.31922578812	280.0	-122.0	276.0	-127.0	1
3.0.1	2019_Mar_06_1503	s	s	13	1	SIC	381	ABS	0	0	2	2	24_2_2	NA	NA	0	1	3.0168838501	None	None	None	None	1
3.0.1	2019_Mar_06_1503	s	s	13	1	SIC	382	1_1	1	1	3	2	23_3_2	2	1	1	0	0.581813812256	-206.0	101.0	-207.0	101.0	1
3.0.1	2019_Mar_06_1503	s	s	13	1	SIC	383	3_4	3	4	3	3	23_3_3	0	1	1	0	0.814918041229	222.0	290.0	230.0	289.0	1
3.0.1	2019_Mar_06_1503	s	s	13	1	SIC	384	ABS	0	0	3	2	24_3_2	NA	NA	0	1	2.64563298225	None	None	None	None	1
3.0.1	2019_Mar_06_1503	s	s	13	1	SIC	385	ABS	0	0	2	4	24_2_4	NA	NA	0	1	1.42234396935	None	None	None	None	1
3.0.1	2019_Mar_06_1503	s	s	13	1	SIC	386	2_1	2	1	4	3	23_4_3	2	2	1	0	0.56732916832	-84.0	-252.0	-80.0	-251.0	1
3.0.1	2019_Mar_06_1503	s	s	13	1	SIC	387	ABS	0	0	1	4	24_1_4	NA	NA	0	1	1.59178090096	None	None	None	None	1
3.0.1	2019_Mar_06_1503	s	s	13	1	SIC	388	ABS	0	0	4	4	24_4_4	NA	NA	0	1	0.951993227005	None	None	None	None	1
3.0.1	2019_Mar_06_1503	s	s	13	1	SIC	389	ABS	0	0	3	3	24_3_3	NA	NA	0	1	2.48487901688	None	None	None	None	1
3.0.1	2019_Mar_06_1503	s	s	13	1	SIC	390	4_2	4	2	1	2	23_1_2	3	0	1	0	0.5356798172	-425.0	-185.0	-427.0	-191.0	1
3.0.1	2019_Mar_06_1503	s	s	13	1	SIC	391	2_1	2	1	1	4	23_1_4	-1	3	1	0	1.1088180542	-444.0	391.0	-447.0	395.0	1
3.0.1	2019_Mar_06_1503	s	s	13	1	SIC	392	4_2	4	2	3	1	23_3_1	1	-1	1	0	0.563898086548	-50.0	55.0	-48.0	53.0	1
3.0.1	2019_Mar_06_1503	s	s	13	1	SIC	393	4_4	4	4	2	4	23_2_4	2	0	1	0	0.488196134567	-7.0	-172.0	-4.0	-174.0	1
3.0.1	2019_Mar_06_1503	s	s	13	1	SIC	394	ABS	0	0	3	2	24_3_2	NA	NA	0	1	2.48087096214	None	None	None	None	1
3.0.1	2019_Mar_06_1503	s	s	13	1	SIC	395	3_4	3	4	3	1	23_3_1	0	3	1	0	1.01571798325	-193.0	354.0	-202.0	350.0	1
3.0.1	2019_Mar_06_1503	s	s	13	1	SIC	396	4_1	4	1	2	4	23_2_4	2	3	1	0	0.496167898178	-20.0	178.0	-27.0	187.0	1
3.0.1	2019_Mar_06_1503	s	s	13	1	SIC	397	ABS	0	0	3	4	24_3_4	NA	NA	0	1	1.83699393272	None	None	None	None	1
3.0.1	2019_Mar_06_1503	s	s	13	1	SIC	398	ABS	0	0	1	3	24_1_3	NA	NA	0	1	4.4215221405	None	None	None	None	1
3.0.1	2019_Mar_06_1503	s	s	13	1	SIC	399	2_1	2	1	4	1	23_4_1	2	0	1	0	0.519674777985	160.0	75.0	173.0	80.0	1
3.0.1	2019_Mar_06_1503	s	s	13	1	SIC	400	4_1	4	1	1	2	23_1_2	3	1	1	0	0.481559038162	198.0	-109.0	198.0	-100.0	1
3.0.1	2019_Mar_06_1503	s	s	13	1	SIC	401	ABS	0	0	1	1	24_1_1	NA	NA	0	1	1.67231988907	None	None	None	None	1
3.0.1	2019_Mar_06_1503	s	s	13	1	SIC	402	ABS	0	0	3	1	24_3_1	NA	NA	0	1	1.48126196861	None	None	None	None	1
3.0.1	2019_Mar_06_1503	s	s	13	1	SIC	403	ABS	0	0	4	3	24_4_3	NA	NA	0	1	1.76339697838	None	None	None	None	1
3.0.1	2019_Mar_06_1503	s	s	13	1	SIC	404	ABS	0	0	4	1	24_4_1	NA	NA	0	1	1.10884714127	None	None	None	None	1
3.0.1	2019_Mar_06_1503	s	s	13	1	SIC	405	2_4	2	4	1	1	23_1_1	-1	3	1	0	0.799422979355	-333.0	231.0	-334.0	235.0	1
3.0.1	2019_Mar_06_1503	s	s	13	1	SIC	406	3_2	3	2	3	3	23_3_3	0	1	0	1	1.37831306458	292.0	127.0	None	None	0
3.0.1	2019_Mar_06_1503	s	s	13	1	SIC	407	1_1	1	1	3	3	23_3_3	2	2	1	0	0.545682907104	466.0	125.0	467.0	129.0	1
3.0.1	2019_Mar_06_1503	s	s	13	1	SIC	408	ABS	0	0	2	3	24_2_3	NA	NA	0	1	1.41699504852	None	None	None	None	1
3.0.1	2019_Mar_06_1503	s	s	13	1	SIC	409	ABS	0	0	3	1	24_3_1	NA	NA	0	1	1.52318191528	None	None	None	None	1
3.0.1	2019_Mar_06_1503	s	s	13	1	SIC	410	1_3	1	3	1	1	23_1_1	0	2	0	1	1.18728494644	359.0	341.0	None	None	0
3.0.1	2019_Mar_06_1503	s	s	13	1	SIC	411	ABS	0	0	3	4	24_3_4	NA	NA	0	1	1.3403198719	None	None	None	None	1
3.0.1	2019_Mar_06_1503	s	s	13	1	SIC	412	ABS	0	0	2	1	24_2_1	NA	NA	0	1	1.51031208038	None	None	None	None	1
3.0.1	2019_Mar_06_1503	s	s	13	1	SIC	413	4_1	4	1	1	3	23_1_3	3	2	1	0	0.781865119934	-173.0	-374.0	-176.0	-386.0	1
3.0.1	2019_Mar_06_1503	s	s	13	1	SIC	414	ABS	0	0	1	3	24_1_3	NA	NA	0	1	3.07382297516	None	None	None	None	1
3.0.1	2019_Mar_06_1503	s	s	13	1	SIC	415	3_1	3	1	1	4	23_1_4	2	3	1	0	0.999004125595	374.0	326.0	371.0	327.0	1
3.0.1	2019_Mar_06_1503	s	s	13	1	SIC	416	ABS	0	0	4	1	24_4_1	NA	NA	0	1	1.85379481316	None	None	None	None	1
3.0.1	2019_Mar_06_1503	s	s	13	1	SIC	417	4_2	4	2	1	1	23_1_1	3	-1	1	0	0.528558969498	-173.0	-255.0	-179.0	-260.0	1
3.0.1	2019_Mar_06_1503	s	s	13	1	SIC	418	4_3	4	3	4	2	23_4_2	0	1	1	0	2.01376008987	214.0	-393.0	217.0	-384.0	1
3.0.1	2019_Mar_06_1503	s	s	13	1	SIC	419	4_3	4	3	1	1	23_1_1	3	2	1	0	0.540328979492	204.0	22.0	204.0	26.0	1
3.0.1	2019_Mar_06_1503	s	s	13	1	SIC	420	ABS	0	0	4	4	24_4_4	NA	NA	0	1	1.26081180573	None	None	None	None	1
3.0.1	2019_Mar_06_1503	s	s	13	1	SIC	421	ABS	0	0	1	4	24_1_4	NA	NA	0	1	1.78995084763	None	None	None	None	1
3.0.1	2019_Mar_06_1503	s	s	13	1	SIC	422	1_4	1	4	1	3	23_1_3	0	1	1	0	0.815509080887	122.0	57.0	114.0	51.0	1
3.0.1	2019_Mar_06_1503	s	s	13	1	SIC	423	ABS	0	0	2	4	24_2_4	NA	NA	0	1	1.62794399261	None	None	None	None	1
3.0.1	2019_Mar_06_1503	s	s	13	1	SIC	424	3_4	3	4	2	3	23_2_3	1	1	1	0	0.58740901947	-327.0	51.0	-330.0	55.0	1
3.0.1	2019_Mar_06_1503	s	s	13	1	SIC	425	ABS	0	0	1	3	24_1_3	NA	NA	0	1	3.05719995499	None	None	None	None	1
3.0.1	2019_Mar_06_1503	s	s	13	1	SIC	426	2_2	2	2	1	2	23_1_2	-1	0	0	1	4.09551000595	8.0	-102.0	None	None	0
3.0.1	2019_Mar_06_1503	s	s	13	1	SIC	427	ABS	0	0	2	3	24_2_3	NA	NA	0	1	3.35528302193	None	None	None	None	1
3.0.1	2019_Mar_06_1503	s	s	13	1	SIC	428	3_2	3	2	2	4	23_2_4	1	2	1	0	0.790280103683	-431.0	-189.0	-425.0	-189.0	1
3.0.1	2019_Mar_06_1503	s	s	13	1	SIC	429	3_4	3	4	4	1	23_4_1	-1	3	1	0	0.628328084946	176.0	-356.0	180.0	-355.0	1
3.0.1	2019_Mar_06_1503	s	s	13	1	SIC	430	ABS	0	0	1	1	24_1_1	NA	NA	0	1	3.11606693268	None	None	None	None	1
3.0.1	2019_Mar_06_1503	s	s	13	1	SIC	431	2_2	2	2	4	3	23_4_3	2	1	1	0	1.21086502075	150.0	-215.0	151.0	-216.0	1
3.0.1	2019_Mar_06_1503	s	s	13	1	SIC	432	4_4	4	4	4	1	23_4_1	0	3	1	0	0.881367206573	-532.0	354.0	-526.0	353.0	1
3.0.1	2019_Mar_06_1503	s	s	13	1	SIC	433	ABS	0	0	4	3	24_4_3	NA	NA	0	1	2.83382892609	None	None	None	None	1
3.0.1	2019_Mar_06_1503	s	s	13	1	SIC	434	3_3	3	3	2	1	23_2_1	1	2	1	0	0.822622060776	-66.0	320.0	-59.0	325.0	1
3.0.1	2019_Mar_06_1503	s	s	13	1	SIC	435	4_2	4	2	1	3	23_1_3	3	1	1	0	0.657957077026	39.0	-411.0	36.0	-410.0	1
3.0.1	2019_Mar_06_1503	s	s	13	1	SIC	436	ABS	0	0	1	4	24_1_4	NA	NA	0	1	2.8751168251	None	None	None	None	1
3.0.1	2019_Mar_06_1503	s	s	13	1	SIC	437	1_3	1	3	2	1	23_2_1	1	2	1	0	0.957864999771	-414.0	251.0	-406.0	248.0	1
3.0.1	2019_Mar_06_1503	s	s	13	1	SIC	438	ABS	0	0	4	3	24_4_3	NA	NA	0	1	2.88083600998	None	None	None	None	1
3.0.1	2019_Mar_06_1503	s	s	13	1	SIC	439	3_2	3	2	4	1	23_4_1	-1	-1	1	0	0.48440694809	-343.0	149.0	-344.0	155.0	1
3.0.1	2019_Mar_06_1503	s	s	13	1	SIC	440	1_1	1	1	4	3	23_4_3	3	2	1	0	0.486408948898	-93.0	78.0	-89.0	77.0	1
3.0.1	2019_Mar_06_1503	s	s	13	1	SIC	441	4_2	4	2	4	3	23_4_3	0	1	0	1	2.83379507065	-324.0	-288.0	None	None	0
3.0.1	2019_Mar_06_1503	s	s	13	1	SIC	442	ABS	0	0	3	4	24_3_4	NA	NA	0	1	1.84882521629	None	None	None	None	1
3.0.1	2019_Mar_06_1503	s	s	13	1	SIC	443	ABS	0	0	4	1	24_4_1	NA	NA	0	1	1.03445506096	None	None	None	None	1
3.0.1	2019_Mar_06_1503	s	s	13	1	SIC	444	ABS	0	0	3	2	24_3_2	NA	NA	0	1	1.71648406982	None	None	None	None	1
3.0.1	2019_Mar_06_1503	s	s	13	1	SIC	445	4_1	4	1	4	3	23_4_3	0	2	1	0	1.50900912285	-430.0	-402.0	-427.0	-402.0	1
3.0.1	2019_Mar_06_1503	s	s	13	1	SIC	446	4_1	4	1	3	2	23_3_2	1	1	1	0	0.569845914841	523.0	224.0	518.0	219.0	1
3.0.1	2019_Mar_06_1503	s	s	13	1	SIC	447	4_2	4	2	2	3	23_2_3	2	1	1	0	0.587152004242	-508.0	-8.0	-517.0	-9.0	1
3.0.1	2019_Mar_06_1503	s	s	13	1	SIC	448	ABS	0	0	3	2	24_3_2	NA	NA	0	1	3.15662097931	None	None	None	None	1
3.0.1	2019_Mar_06_1503	s	s	13	1	SIC	449	ABS	0	0	2	1	24_2_1	NA	NA	0	1	1.65022611618	None	None	None	None	1
3.0.1	2019_Mar_06_1503	s	s	13	1	SIC	450	2_4	2	4	1	2	23_1_2	-1	2	1	0	0.864373207092	142.0	-401.0	141.0	-396.0	1
3.0.1	2019_Mar_06_1503	s	s	13	1	SIC	451	ABS	0	0	4	4	24_4_4	NA	NA	0	1	1.20285797119	None	None	None	None	1
3.0.1	2019_Mar_06_1503	s	s	13	1	SIC	452	4_3	4	3	4	1	23_4_1	0	2	0	1	1.27242207527	464.0	53.0	None	None	0
3.0.1	2019_Mar_06_1503	s	s	13	1	SIC	453	4_1	4	1	2	1	23_2_1	2	0	1	0	0.540340900421	519.0	110.0	520.0	110.0	1
3.0.1	2019_Mar_06_1503	s	s	13	1	SIC	454	ABS	0	0	4	2	24_4_2	NA	NA	0	1	3.1629550457	None	None	None	None	1
3.0.1	2019_Mar_06_1503	s	s	13	1	SIC	455	3_3	3	3	1	3	23_1_3	2	0	1	0	0.592664003372	76.0	-259.0	70.0	-257.0	1
3.0.1	2019_Mar_06_1503	s	s	13	1	SIC	456	2_4	2	4	3	1	23_3_1	1	3	1	0	0.547596931458	400.0	-178.0	395.0	-169.0	1
3.0.1	2019_Mar_06_1503	s	s	13	1	SIC	457	1_3	1	3	1	4	23_1_4	0	-1	1	0	0.681514024734	-190.0	-49.0	-189.0	-52.0	1
3.0.1	2019_Mar_06_1503	s	s	13	1	SIC	458	ABS	0	0	4	3	24_4_3	NA	NA	0	1	3.73956513405	None	None	None	None	1
3.0.1	2019_Mar_06_1503	s	s	13	1	SIC	459	ABS	0	0	1	3	24_1_3	NA	NA	0	1	3.8266479969	None	None	None	None	1
3.0.1	2019_Mar_06_1503	s	s	13	1	SIC	460	ABS	0	0	1	3	24_1_3	NA	NA	0	1	4.02648711205	None	None	None	None	1
3.0.1	2019_Mar_06_1503	s	s	13	1	SIC	461	ABS	0	0	2	3	24_2_3	NA	NA	0	1	3.61293005943	None	None	None	None	1
3.0.1	2019_Mar_06_1503	s	s	13	1	SIC	462	3_4	3	4	1	4	23_1_4	2	0	1	0	0.797345876694	263.0	118.0	265.0	124.0	1
3.0.1	2019_Mar_06_1503	s	s	13	1	SIC	463	2_4	2	4	2	1	23_2_1	0	3	1	0	0.587344169617	-445.0	120.0	-437.0	118.0	1
3.0.1	2019_Mar_06_1503	s	s	13	1	SIC	464	3_1	3	1	1	3	23_1_3	2	2	1	0	1.23427915573	-83.0	355.0	-81.0	357.0	1
3.0.1	2019_Mar_06_1503	s	s	13	1	SIC	465	3_2	3	2	4	2	23_4_2	-1	0	1	0	0.638448953629	70.0	33.0	67.0	30.0	1
3.0.1	2019_Mar_06_1503	s	s	13	1	SIC	466	ABS	0	0	3	3	24_3_3	NA	NA	0	1	3.70414113998	None	None	None	None	1
3.0.1	2019_Mar_06_1503	s	s	13	1	SIC	467	ABS	0	0	2	4	24_2_4	NA	NA	0	1	1.59199285507	None	None	None	None	1
3.0.1	2019_Mar_06_1503	s	s	13	1	SIC	468	ABS	0	0	2	2	24_2_2	NA	NA	0	1	2.95148086548	None	None	None	None	1
3.0.1	2019_Mar_06_1503	s	s	13	1	SIC	469	ABS	0	0	1	3	24_1_3	NA	NA	0	1	4.36305308342	None	None	None	None	1
3.0.1	2019_Mar_06_1503	s	s	13	1	SIC	470	2_1	2	1	1	2	23_1_2	-1	1	0	1	2.74305200577	-380.0	-196.0	None	None	0
3.0.1	2019_Mar_06_1503	s	s	13	1	SIC	471	ABS	0	0	4	1	24_4_1	NA	NA	0	1	1.2813501358	None	None	None	None	1
3.0.1	2019_Mar_06_1503	s	s	13	1	SIC	472	1_1	1	1	1	3	23_1_3	0	2	1	0	0.940216064453	-278.0	86.0	-279.0	81.0	1
3.0.1	2019_Mar_06_1503	s	s	13	1	SIC	473	4_4	4	4	4	3	23_4_3	0	1	1	0	0.622715950012	-452.0	-17.0	-456.0	-13.0	1
3.0.1	2019_Mar_06_1503	s	s	13	1	SIC	474	ABS	0	0	1	1	24_1_1	NA	NA	0	1	1.15196800232	None	None	None	None	1
3.0.1	2019_Mar_06_1503	s	s	13	1	SIC	475	ABS	0	0	2	1	24_2_1	NA	NA	0	1	1.43701696396	None	None	None	None	1
3.0.1	2019_Mar_06_1503	s	s	13	1	SIC	476	ABS	0	0	3	4	24_3_4	NA	NA	0	1	1.48127412796	None	None	None	None	1
3.0.1	2019_Mar_06_1503	s	s	13	1	SIC	477	2_3	2	3	3	4	23_3_4	1	-1	1	0	0.96867108345	242.0	-187.0	244.0	-189.0	1
3.0.1	2019_Mar_06_1503	s	s	13	1	SIC	478	2_2	2	2	1	1	23_1_1	-1	-1	0	1	1.93269181252	-266.0	200.0	None	None	0
3.0.1	2019_Mar_06_1503	s	s	13	1	SIC	479	ABS	0	0	4	4	24_4_4	NA	NA	0	1	1.17900085449	None	None	None	None	1
3.0.1	2019_Mar_06_1503	s	s	13	1	SIC	480	1_3	1	3	4	1	23_4_1	3	2	1	0	0.505094051361	-452.0	177.0	-452.0	179.0	1
