Version	Date	Stimuli	Method	Subject	Session	Condition	Trial	Target	TColor	TShape	DColor	DShape	Distractors	Channel1	Channel2	LMouseButton	RMouseButton	RT	TargetX	TargetY	ResponseX	ResponseY	Correct
3.0.1	2019_Mar_08_1508	s	s	13	3	Capacity	1	ABS	0	0	1	1	24_1_1	NA	NA	0	1	1.06270098686	None	None	None	None	1
3.0.1	2019_Mar_08_1508	s	s	13	3	Capacity	2	ABS	0	0	1	1	24_1_1	NA	NA	0	1	0.967671871185	None	None	None	None	1
3.0.1	2019_Mar_08_1508	s	s	13	3	Capacity	3	3_1	3	1	2	1	23_2_1	1	0	1	0	0.731760978699	15.0	133.0	16.0	140.0	1
3.0.1	2019_Mar_08_1508	s	s	13	3	Capacity	4	1_1	1	1	3	1	23_3_1	2	0	1	0	0.500670909882	-164.0	46.0	-161.0	45.0	1
3.0.1	2019_Mar_08_1508	s	s	13	3	Capacity	5	2_1	2	1	1	1	23_1_1	-1	0	1	0	1.26063394547	354.0	-135.0	354.0	-138.0	1
3.0.1	2019_Mar_08_1508	s	s	13	3	Capacity	6	4_1	4	1	2	1	23_2_1	2	0	1	0	0.469859838486	66.0	-11.0	66.0	-16.0	1
3.0.1	2019_Mar_08_1508	s	s	13	3	Capacity	7	2_1	2	1	3	1	23_3_1	1	0	1	0	1.04604816437	217.0	-243.0	224.0	-241.0	1
3.0.1	2019_Mar_08_1508	s	s	13	3	Capacity	8	4_1	4	1	1	1	23_1_1	3	0	1	0	0.522068977356	-54.0	-300.0	-59.0	-306.0	1
3.0.1	2019_Mar_08_1508	s	s	13	3	Capacity	9	1_1	1	1	2	1	23_2_1	1	0	1	0	2.75683999062	219.0	91.0	223.0	84.0	1
3.0.1	2019_Mar_08_1508	s	s	13	3	Capacity	10	ABS	0	0	2	1	24_2_1	NA	NA	0	1	1.9913520813	None	None	None	None	1
3.0.1	2019_Mar_08_1508	s	s	13	3	Capacity	11	ABS	0	0	3	1	24_3_1	NA	NA	0	1	1.02536606789	None	None	None	None	1
3.0.1	2019_Mar_08_1508	s	s	13	3	Capacity	12	2_1	2	1	4	1	23_4_1	2	0	1	0	0.457993984222	-528.0	-232.0	-521.0	-238.0	1
3.0.1	2019_Mar_08_1508	s	s	13	3	Capacity	13	3_1	3	1	1	1	23_1_1	2	0	1	0	0.634442090988	82.0	-301.0	73.0	-305.0	1
3.0.1	2019_Mar_08_1508	s	s	13	3	Capacity	14	ABS	0	0	4	1	24_4_1	NA	NA	0	1	0.634436130524	None	None	None	None	1
3.0.1	2019_Mar_08_1508	s	s	13	3	Capacity	15	3_1	3	1	4	1	23_4_1	-1	0	1	0	0.59206700325	96.0	403.0	98.0	403.0	1
3.0.1	2019_Mar_08_1508	s	s	13	3	Capacity	16	ABS	0	0	3	1	24_3_1	NA	NA	0	1	1.24606013298	None	None	None	None	1
3.0.1	2019_Mar_08_1508	s	s	13	3	Capacity	17	4_1	4	1	3	1	23_3_1	1	0	1	0	0.422692060471	-393.0	282.0	-386.0	278.0	1
3.0.1	2019_Mar_08_1508	s	s	13	3	Capacity	18	ABS	0	0	2	1	24_2_1	NA	NA	0	1	1.07633304596	None	None	None	None	1
3.0.1	2019_Mar_08_1508	s	s	13	3	Capacity	19	ABS	0	0	4	1	24_4_1	NA	NA	0	1	0.868585109711	None	None	None	None	1
3.0.1	2019_Mar_08_1508	s	s	13	3	Capacity	20	ABS	0	0	3	1	24_3_1	NA	NA	0	1	0.775604963303	None	None	None	None	1
3.0.1	2019_Mar_08_1508	s	s	13	3	Capacity	21	1_1	1	1	4	1	23_4_1	3	0	1	0	0.423125982285	-475.0	315.0	-479.0	308.0	1
3.0.1	2019_Mar_08_1508	s	s	13	3	Capacity	22	ABS	0	0	1	1	24_1_1	NA	NA	0	1	1.41063714027	None	None	None	None	1
3.0.1	2019_Mar_08_1508	s	s	13	3	Capacity	23	ABS	0	0	4	1	24_4_1	NA	NA	0	1	0.651379108429	None	None	None	None	1
3.0.1	2019_Mar_08_1508	s	s	13	3	Capacity	24	ABS	0	0	2	1	24_2_1	NA	NA	0	1	1.06967401505	None	None	None	None	1
3.0.1	2019_Mar_08_1508	s	s	13	3	Capacity	25	1_1	1	1	3	1	23_3_1	2	0	1	0	0.481649875641	261.0	38.0	254.0	35.0	1
3.0.1	2019_Mar_08_1508	s	s	13	3	Capacity	26	3_1	3	1	4	1	23_4_1	-1	0	1	0	0.457931041718	262.0	-201.0	255.0	-205.0	1
3.0.1	2019_Mar_08_1508	s	s	13	3	Capacity	27	2_1	2	1	1	1	23_1_1	-1	0	0	1	1.12201189995	168.0	-200.0	None	None	0
3.0.1	2019_Mar_08_1508	s	s	13	3	Capacity	28	ABS	0	0	2	1	24_2_1	NA	NA	0	1	0.999050140381	None	None	None	None	1
3.0.1	2019_Mar_08_1508	s	s	13	3	Capacity	29	1_1	1	1	4	1	23_4_1	3	0	1	0	0.545219898224	394.0	388.0	391.0	387.0	1
3.0.1	2019_Mar_08_1508	s	s	13	3	Capacity	30	1_1	1	1	2	1	23_2_1	1	0	0	1	0.940189838409	-409.0	-88.0	None	None	0
3.0.1	2019_Mar_08_1508	s	s	13	3	Capacity	31	ABS	0	0	3	1	24_3_1	NA	NA	0	1	1.02538204193	None	None	None	None	1
3.0.1	2019_Mar_08_1508	s	s	13	3	Capacity	32	2_1	2	1	4	1	23_4_1	2	0	1	0	0.555045127869	-138.0	-150.0	-142.0	-155.0	1
3.0.1	2019_Mar_08_1508	s	s	13	3	Capacity	33	ABS	0	0	1	1	24_1_1	NA	NA	0	1	0.767802000046	None	None	None	None	1
3.0.1	2019_Mar_08_1508	s	s	13	3	Capacity	34	ABS	0	0	1	1	24_1_1	NA	NA	0	1	1.01083302498	None	None	None	None	1
3.0.1	2019_Mar_08_1508	s	s	13	3	Capacity	35	ABS	0	0	2	1	24_2_1	NA	NA	0	1	1.47473287582	None	None	None	None	1
3.0.1	2019_Mar_08_1508	s	s	13	3	Capacity	36	ABS	0	0	4	1	24_4_1	NA	NA	0	1	0.613847970963	None	None	None	None	1
3.0.1	2019_Mar_08_1508	s	s	13	3	Capacity	37	4_1	4	1	1	1	23_1_1	3	0	1	0	0.481714963913	-156.0	-66.0	-154.0	-66.0	1
3.0.1	2019_Mar_08_1508	s	s	13	3	Capacity	38	4_1	4	1	3	1	23_3_1	1	0	1	0	0.516848087311	335.0	-187.0	330.0	-196.0	1
3.0.1	2019_Mar_08_1508	s	s	13	3	Capacity	39	3_1	3	1	2	1	23_2_1	1	0	1	0	0.75519990921	250.0	298.0	251.0	296.0	1
3.0.1	2019_Mar_08_1508	s	s	13	3	Capacity	40	ABS	0	0	2	1	24_2_1	NA	NA	0	1	1.48122501373	None	None	None	None	1
3.0.1	2019_Mar_08_1508	s	s	13	3	Capacity	41	ABS	0	0	1	1	24_1_1	NA	NA	0	1	1.27449893951	None	None	None	None	1
3.0.1	2019_Mar_08_1508	s	s	13	3	Capacity	42	3_1	3	1	1	1	23_1_1	2	0	1	0	0.766673803329	-274.0	301.0	-269.0	302.0	1
3.0.1	2019_Mar_08_1508	s	s	13	3	Capacity	43	4_1	4	1	2	1	23_2_1	2	0	1	0	0.469789981842	30.0	-124.0	36.0	-123.0	1
3.0.1	2019_Mar_08_1508	s	s	13	3	Capacity	44	ABS	0	0	4	1	24_4_1	NA	NA	0	1	0.897957086563	None	None	None	None	1
3.0.1	2019_Mar_08_1508	s	s	13	3	Capacity	45	ABS	0	0	4	1	24_4_1	NA	NA	0	1	0.790235996246	None	None	None	None	1
3.0.1	2019_Mar_08_1508	s	s	13	3	Capacity	46	2_1	2	1	3	1	23_3_1	1	0	1	0	0.79119515419	105.0	286.0	111.0	277.0	1
3.0.1	2019_Mar_08_1508	s	s	13	3	Capacity	47	ABS	0	0	3	1	24_3_1	NA	NA	0	1	0.805313110352	None	None	None	None	1
3.0.1	2019_Mar_08_1508	s	s	13	3	Capacity	48	ABS	0	0	3	1	24_3_1	NA	NA	0	1	0.822584867477	None	None	None	None	1
3.0.1	2019_Mar_08_1508	s	s	13	3	Capacity	49	ABS	0	0	1	1	24_1_1	NA	NA	0	1	2.04074311256	None	None	None	None	1
3.0.1	2019_Mar_08_1508	s	s	13	3	Capacity	50	ABS	0	0	1	1	24_1_1	NA	NA	0	1	1.08422684669	None	None	None	None	1
3.0.1	2019_Mar_08_1508	s	s	13	3	Capacity	51	ABS	0	0	2	1	24_2_1	NA	NA	0	1	1.38726210594	None	None	None	None	1
3.0.1	2019_Mar_08_1508	s	s	13	3	Capacity	52	3_1	3	1	1	1	23_1_1	2	0	1	0	0.543215990067	-525.0	-255.0	-523.0	-254.0	1
3.0.1	2019_Mar_08_1508	s	s	13	3	Capacity	53	2_1	2	1	3	1	23_3_1	1	0	1	0	0.863227844238	188.0	-59.0	195.0	-59.0	1
3.0.1	2019_Mar_08_1508	s	s	13	3	Capacity	54	ABS	0	0	4	1	24_4_1	NA	NA	0	1	0.710011005402	None	None	None	None	1
3.0.1	2019_Mar_08_1508	s	s	13	3	Capacity	55	1_1	1	1	2	1	23_2_1	1	0	0	1	1.35181999207	480.0	-181.0	None	None	0
3.0.1	2019_Mar_08_1508	s	s	13	3	Capacity	56	ABS	0	0	1	1	24_1_1	NA	NA	0	1	1.24603223801	None	None	None	None	1
3.0.1	2019_Mar_08_1508	s	s	13	3	Capacity	57	ABS	0	0	3	1	24_3_1	NA	NA	0	1	0.780523777008	None	None	None	None	1
3.0.1	2019_Mar_08_1508	s	s	13	3	Capacity	58	ABS	0	0	2	1	24_2_1	NA	NA	0	1	1.12101912498	None	None	None	None	1
3.0.1	2019_Mar_08_1508	s	s	13	3	Capacity	59	2_1	2	1	4	1	23_4_1	2	0	1	0	0.48160815239	-221.0	221.0	-225.0	229.0	1
3.0.1	2019_Mar_08_1508	s	s	13	3	Capacity	60	ABS	0	0	3	1	24_3_1	NA	NA	0	1	1.58709692955	None	None	None	None	1
3.0.1	2019_Mar_08_1508	s	s	13	3	Capacity	61	3_1	3	1	2	1	23_2_1	1	0	1	0	0.59273481369	86.0	42.0	81.0	46.0	1
3.0.1	2019_Mar_08_1508	s	s	13	3	Capacity	62	4_1	4	1	1	1	23_1_1	3	0	1	0	0.463227987289	172.0	42.0	180.0	42.0	1
3.0.1	2019_Mar_08_1508	s	s	13	3	Capacity	63	ABS	0	0	4	1	24_4_1	NA	NA	0	1	0.71689581871	None	None	None	None	1
3.0.1	2019_Mar_08_1508	s	s	13	3	Capacity	64	ABS	0	0	2	1	24_2_1	NA	NA	0	1	1.60387182236	None	None	None	None	1
3.0.1	2019_Mar_08_1508	s	s	13	3	Capacity	65	1_1	1	1	3	1	23_3_1	2	0	1	0	0.528545856476	-258.0	-186.0	-256.0	-184.0	1
3.0.1	2019_Mar_08_1508	s	s	13	3	Capacity	66	ABS	0	0	3	1	24_3_1	NA	NA	0	1	1.03439188004	None	None	None	None	1
3.0.1	2019_Mar_08_1508	s	s	13	3	Capacity	67	4_1	4	1	3	1	23_3_1	1	0	1	0	0.481627941132	-246.0	-271.0	-251.0	-272.0	1
3.0.1	2019_Mar_08_1508	s	s	13	3	Capacity	68	2_1	2	1	1	1	23_1_1	-1	0	0	1	3.75705885887	-290.0	-340.0	None	None	0
3.0.1	2019_Mar_08_1508	s	s	13	3	Capacity	69	4_1	4	1	2	1	23_2_1	2	0	1	0	0.469795942307	-70.0	-176.0	-73.0	-180.0	1
3.0.1	2019_Mar_08_1508	s	s	13	3	Capacity	70	3_1	3	1	4	1	23_4_1	-1	0	1	0	0.474523067474	-379.0	391.0	-382.0	396.0	1
3.0.1	2019_Mar_08_1508	s	s	13	3	Capacity	71	1_1	1	1	4	1	23_4_1	3	0	1	0	0.437310934067	196.0	389.0	192.0	389.0	1
3.0.1	2019_Mar_08_1508	s	s	13	3	Capacity	72	ABS	0	0	4	1	24_4_1	NA	NA	0	1	0.94023680687	None	None	None	None	1
3.0.1	2019_Mar_08_1508	s	s	13	3	Capacity	73	ABS	0	0	4	1	24_4_1	NA	NA	0	1	0.893344163895	None	None	None	None	1
3.0.1	2019_Mar_08_1508	s	s	13	3	Capacity	74	4_1	4	1	2	1	23_2_1	2	0	1	0	0.410983800888	-347.0	-139.0	-344.0	-144.0	1
3.0.1	2019_Mar_08_1508	s	s	13	3	Capacity	75	1_1	1	1	3	1	23_3_1	2	0	1	0	0.907804965973	-35.0	214.0	-39.0	213.0	1
3.0.1	2019_Mar_08_1508	s	s	13	3	Capacity	76	ABS	0	0	3	1	24_3_1	NA	NA	0	1	1.09105992317	None	None	None	None	1
3.0.1	2019_Mar_08_1508	s	s	13	3	Capacity	77	ABS	0	0	3	1	24_3_1	NA	NA	0	1	0.928436994553	None	None	None	None	1
3.0.1	2019_Mar_08_1508	s	s	13	3	Capacity	78	ABS	0	0	2	1	24_2_1	NA	NA	0	1	1.70506691933	None	None	None	None	1
3.0.1	2019_Mar_08_1508	s	s	13	3	Capacity	79	1_1	1	1	2	1	23_2_1	1	0	0	1	2.62821793556	-233.0	135.0	None	None	0
3.0.1	2019_Mar_08_1508	s	s	13	3	Capacity	80	4_1	4	1	3	1	23_3_1	1	0	1	0	0.657968044281	283.0	-88.0	286.0	-83.0	1
3.0.1	2019_Mar_08_1508	s	s	13	3	Capacity	81	ABS	0	0	4	1	24_4_1	NA	NA	0	1	0.826828956604	None	None	None	None	1
3.0.1	2019_Mar_08_1508	s	s	13	3	Capacity	82	ABS	0	0	2	1	24_2_1	NA	NA	0	1	1.06222701073	None	None	None	None	1
3.0.1	2019_Mar_08_1508	s	s	13	3	Capacity	83	3_1	3	1	4	1	23_4_1	-1	0	1	0	0.559616088867	-297.0	-57.0	-300.0	-61.0	1
3.0.1	2019_Mar_08_1508	s	s	13	3	Capacity	84	4_1	4	1	1	1	23_1_1	3	0	1	0	0.64611697197	-161.0	105.0	-170.0	112.0	1
3.0.1	2019_Mar_08_1508	s	s	13	3	Capacity	85	ABS	0	0	1	1	24_1_1	NA	NA	0	1	1.15733289719	None	None	None	None	1
3.0.1	2019_Mar_08_1508	s	s	13	3	Capacity	86	ABS	0	0	4	1	24_4_1	NA	NA	0	1	0.755410909653	None	None	None	None	1
3.0.1	2019_Mar_08_1508	s	s	13	3	Capacity	87	ABS	0	0	2	1	24_2_1	NA	NA	0	1	1.89292001724	None	None	None	None	1
3.0.1	2019_Mar_08_1508	s	s	13	3	Capacity	88	2_1	2	1	1	1	23_1_1	-1	0	0	1	0.993798971176	-447.0	240.0	None	None	0
3.0.1	2019_Mar_08_1508	s	s	13	3	Capacity	89	2_1	2	1	4	1	23_4_1	2	0	1	0	0.563916921616	55.0	-301.0	62.0	-301.0	1
3.0.1	2019_Mar_08_1508	s	s	13	3	Capacity	90	ABS	0	0	1	1	24_1_1	NA	NA	0	1	0.931390047073	None	None	None	None	1
3.0.1	2019_Mar_08_1508	s	s	13	3	Capacity	91	3_1	3	1	1	1	23_1_1	2	0	1	0	0.528688907623	-49.0	-220.0	-49.0	-221.0	1
3.0.1	2019_Mar_08_1508	s	s	13	3	Capacity	92	1_1	1	1	4	1	23_4_1	3	0	0	1	0.500605106354	376.0	-339.0	None	None	0
3.0.1	2019_Mar_08_1508	s	s	13	3	Capacity	93	ABS	0	0	3	1	24_3_1	NA	NA	0	1	0.752048015594	None	None	None	None	1
3.0.1	2019_Mar_08_1508	s	s	13	3	Capacity	94	ABS	0	0	1	1	24_1_1	NA	NA	0	1	1.27422094345	None	None	None	None	1
3.0.1	2019_Mar_08_1508	s	s	13	3	Capacity	95	2_1	2	1	3	1	23_3_1	1	0	1	0	0.475052118301	-22.0	-18.0	-18.0	-25.0	1
3.0.1	2019_Mar_08_1508	s	s	13	3	Capacity	96	3_1	3	1	2	1	23_2_1	1	0	1	0	0.857936859131	498.0	230.0	495.0	234.0	1
3.0.1	2019_Mar_08_1508	s	s	13	3	Capacity	1	ABS	0	0	1	2	24_1_2	NA	NA	0	1	4.36928892136	None	None	None	None	1
3.0.1	2019_Mar_08_1508	s	s	13	3	Capacity	2	ABS	0	0	1	4	24_1_4	NA	NA	0	1	2.24991703033	None	None	None	None	1
3.0.1	2019_Mar_08_1508	s	s	13	3	Capacity	3	1_4	1	4	1	3	23_1_3	0	1	1	0	0.810859918594	-19.0	-277.0	-21.0	-272.0	1
3.0.1	2019_Mar_08_1508	s	s	13	3	Capacity	4	1_2	1	2	1	1	23_1_1	0	-1	1	0	1.3636469841	230.0	151.0	231.0	157.0	1
3.0.1	2019_Mar_08_1508	s	s	13	3	Capacity	5	1_4	1	4	1	1	23_1_1	0	3	1	0	0.528535842896	-15.0	118.0	-16.0	120.0	1
3.0.1	2019_Mar_08_1508	s	s	13	3	Capacity	6	ABS	0	0	1	2	24_1_2	NA	NA	0	1	4.6417028904	None	None	None	None	1
3.0.1	2019_Mar_08_1508	s	s	13	3	Capacity	7	ABS	0	0	1	3	24_1_3	NA	NA	0	1	3.21579098701	None	None	None	None	1
3.0.1	2019_Mar_08_1508	s	s	13	3	Capacity	8	1_1	1	1	1	4	23_1_4	0	3	1	0	0.545608043671	-125.0	196.0	-128.0	203.0	1
3.0.1	2019_Mar_08_1508	s	s	13	3	Capacity	9	ABS	0	0	1	3	24_1_3	NA	NA	0	1	1.97520112991	None	None	None	None	1
3.0.1	2019_Mar_08_1508	s	s	13	3	Capacity	10	1_3	1	3	1	1	23_1_1	0	2	0	1	2.71618199348	-527.0	-256.0	None	None	0
3.0.1	2019_Mar_08_1508	s	s	13	3	Capacity	11	ABS	0	0	1	3	24_1_3	NA	NA	0	1	4.07364916801	None	None	None	None	1
3.0.1	2019_Mar_08_1508	s	s	13	3	Capacity	12	1_4	1	4	1	2	23_1_2	0	2	1	0	0.610893964767	-256.0	179.0	-256.0	185.0	1
3.0.1	2019_Mar_08_1508	s	s	13	3	Capacity	13	ABS	0	0	1	4	24_1_4	NA	NA	0	1	2.21044397354	None	None	None	None	1
3.0.1	2019_Mar_08_1508	s	s	13	3	Capacity	14	1_1	1	1	1	2	23_1_2	0	1	0	1	3.48590421677	-133.0	-205.0	None	None	0
3.0.1	2019_Mar_08_1508	s	s	13	3	Capacity	15	ABS	0	0	1	4	24_1_4	NA	NA	0	1	1.27619504929	None	None	None	None	1
3.0.1	2019_Mar_08_1508	s	s	13	3	Capacity	16	1_2	1	2	1	4	23_1_4	0	2	1	0	0.874615907669	-102.0	341.0	-105.0	337.0	1
3.0.1	2019_Mar_08_1508	s	s	13	3	Capacity	17	ABS	0	0	1	1	24_1_1	NA	NA	0	1	3.73239302635	None	None	None	None	1
3.0.1	2019_Mar_08_1508	s	s	13	3	Capacity	18	1_1	1	1	1	3	23_1_3	0	2	1	0	2.81030297279	86.0	223.0	95.0	222.0	1
3.0.1	2019_Mar_08_1508	s	s	13	3	Capacity	19	1_3	1	3	1	4	23_1_4	0	-1	1	0	0.921163082123	314.0	294.0	312.0	300.0	1
3.0.1	2019_Mar_08_1508	s	s	13	3	Capacity	20	1_3	1	3	1	2	23_1_2	0	1	1	0	2.28089094162	196.0	-363.0	198.0	-361.0	1
3.0.1	2019_Mar_08_1508	s	s	13	3	Capacity	21	ABS	0	0	1	1	24_1_1	NA	NA	0	1	2.48094797134	None	None	None	None	1
3.0.1	2019_Mar_08_1508	s	s	13	3	Capacity	22	1_2	1	2	1	3	23_1_3	0	1	1	0	2.06931304932	-522.0	-19.0	-526.0	-19.0	1
3.0.1	2019_Mar_08_1508	s	s	13	3	Capacity	23	ABS	0	0	1	1	24_1_1	NA	NA	0	1	2.30442595482	None	None	None	None	1
3.0.1	2019_Mar_08_1508	s	s	13	3	Capacity	24	ABS	0	0	1	2	24_1_2	NA	NA	0	1	3.45702981949	None	None	None	None	1
3.0.1	2019_Mar_08_1508	s	s	13	3	Capacity	25	1_4	1	4	1	1	23_1_1	0	3	1	0	0.587347984314	-369.0	31.0	-372.0	32.0	1
3.0.1	2019_Mar_08_1508	s	s	13	3	Capacity	26	ABS	0	0	1	1	24_1_1	NA	NA	0	1	2.29282188416	None	None	None	None	1
3.0.1	2019_Mar_08_1508	s	s	13	3	Capacity	27	ABS	0	0	1	1	24_1_1	NA	NA	0	1	2.77496910095	None	None	None	None	1
3.0.1	2019_Mar_08_1508	s	s	13	3	Capacity	28	ABS	0	0	1	4	24_1_4	NA	NA	0	1	1.88108515739	None	None	None	None	1
3.0.1	2019_Mar_08_1508	s	s	13	3	Capacity	29	ABS	0	0	1	4	24_1_4	NA	NA	0	1	1.83413004875	None	None	None	None	1
3.0.1	2019_Mar_08_1508	s	s	13	3	Capacity	30	ABS	0	0	1	3	24_1_3	NA	NA	0	1	2.78023195267	None	None	None	None	1
3.0.1	2019_Mar_08_1508	s	s	13	3	Capacity	31	ABS	0	0	1	2	24_1_2	NA	NA	0	1	2.68668413162	None	None	None	None	1
3.0.1	2019_Mar_08_1508	s	s	13	3	Capacity	32	ABS	0	0	1	2	24_1_2	NA	NA	0	1	2.768419981	None	None	None	None	1
3.0.1	2019_Mar_08_1508	s	s	13	3	Capacity	33	1_3	1	3	1	2	23_1_2	0	1	1	0	2.78962802887	479.0	-363.0	482.0	-371.0	1
3.0.1	2019_Mar_08_1508	s	s	13	3	Capacity	34	ABS	0	0	1	3	24_1_3	NA	NA	0	1	3.87293720245	None	None	None	None	1
3.0.1	2019_Mar_08_1508	s	s	13	3	Capacity	35	1_1	1	1	1	3	23_1_3	0	2	0	1	3.11604094505	48.0	241.0	None	None	0
3.0.1	2019_Mar_08_1508	s	s	13	3	Capacity	36	1_2	1	2	1	4	23_1_4	0	2	1	0	0.672641992569	294.0	-366.0	301.0	-372.0	1
3.0.1	2019_Mar_08_1508	s	s	13	3	Capacity	37	1_1	1	1	1	2	23_1_2	0	1	0	1	3.84837698936	-99.0	243.0	None	None	0
3.0.1	2019_Mar_08_1508	s	s	13	3	Capacity	38	1_3	1	3	1	4	23_1_4	0	-1	1	0	0.834487915039	397.0	137.0	394.0	143.0	1
3.0.1	2019_Mar_08_1508	s	s	13	3	Capacity	39	ABS	0	0	1	4	24_1_4	NA	NA	0	1	1.91368889809	None	None	None	None	1
3.0.1	2019_Mar_08_1508	s	s	13	3	Capacity	40	1_4	1	4	1	3	23_1_3	0	1	1	0	0.787263870239	-40.0	-164.0	-41.0	-161.0	1
3.0.1	2019_Mar_08_1508	s	s	13	3	Capacity	41	1_2	1	2	1	1	23_1_1	0	-1	1	0	0.960503101349	56.0	-116.0	52.0	-124.0	1
3.0.1	2019_Mar_08_1508	s	s	13	3	Capacity	42	ABS	0	0	1	2	24_1_2	NA	NA	0	1	3.63348317146	None	None	None	None	1
3.0.1	2019_Mar_08_1508	s	s	13	3	Capacity	43	1_4	1	4	1	2	23_1_2	0	2	1	0	0.516795158386	-4.0	-108.0	-6.0	-117.0	1
3.0.1	2019_Mar_08_1508	s	s	13	3	Capacity	44	1_3	1	3	1	1	23_1_1	0	2	1	0	1.50185108185	-396.0	207.0	-404.0	212.0	1
3.0.1	2019_Mar_08_1508	s	s	13	3	Capacity	45	1_2	1	2	1	3	23_1_3	0	1	1	0	2.51154112816	-274.0	-311.0	-273.0	-317.0	1
3.0.1	2019_Mar_08_1508	s	s	13	3	Capacity	46	ABS	0	0	1	3	24_1_3	NA	NA	0	1	3.04547595978	None	None	None	None	1
3.0.1	2019_Mar_08_1508	s	s	13	3	Capacity	47	ABS	0	0	1	1	24_1_1	NA	NA	0	1	2.04575204849	None	None	None	None	1
3.0.1	2019_Mar_08_1508	s	s	13	3	Capacity	48	1_1	1	1	1	4	23_1_4	0	3	1	0	0.587398052216	-125.0	-325.0	-120.0	-325.0	1
3.0.1	2019_Mar_08_1508	s	s	13	3	Capacity	49	ABS	0	0	1	4	24_1_4	NA	NA	0	1	1.91385483742	None	None	None	None	1
3.0.1	2019_Mar_08_1508	s	s	13	3	Capacity	50	ABS	0	0	1	2	24_1_2	NA	NA	0	1	4.1558098793	None	None	None	None	1
3.0.1	2019_Mar_08_1508	s	s	13	3	Capacity	51	ABS	0	0	1	1	24_1_1	NA	NA	0	1	2.10455322266	None	None	None	None	1
3.0.1	2019_Mar_08_1508	s	s	13	3	Capacity	52	1_2	1	2	1	1	23_1_1	0	-1	1	0	0.853358983994	297.0	-192.0	301.0	-194.0	1
3.0.1	2019_Mar_08_1508	s	s	13	3	Capacity	53	ABS	0	0	1	4	24_1_4	NA	NA	0	1	1.68791890144	None	None	None	None	1
3.0.1	2019_Mar_08_1508	s	s	13	3	Capacity	54	1_1	1	1	1	2	23_1_2	0	1	1	0	3.31889104843	-140.0	-337.0	-145.0	-336.0	1
3.0.1	2019_Mar_08_1508	s	s	13	3	Capacity	55	1_3	1	3	1	4	23_1_4	0	-1	1	0	1.06197690964	-35.0	-12.0	-31.0	-8.0	1
3.0.1	2019_Mar_08_1508	s	s	13	3	Capacity	56	1_4	1	4	1	2	23_1_2	0	2	1	0	0.933517932892	134.0	-397.0	140.0	-405.0	1
3.0.1	2019_Mar_08_1508	s	s	13	3	Capacity	57	ABS	0	0	1	1	24_1_1	NA	NA	0	1	2.67942404747	None	None	None	None	1
3.0.1	2019_Mar_08_1508	s	s	13	3	Capacity	58	ABS	0	0	1	2	24_1_2	NA	NA	0	1	3.26586079597	None	None	None	None	1
3.0.1	2019_Mar_08_1508	s	s	13	3	Capacity	59	ABS	0	0	1	1	24_1_1	NA	NA	0	1	1.71601605415	None	None	None	None	1
3.0.1	2019_Mar_08_1508	s	s	13	3	Capacity	60	1_1	1	1	1	4	23_1_4	0	3	1	0	0.790230989456	35.0	-378.0	31.0	-378.0	1
3.0.1	2019_Mar_08_1508	s	s	13	3	Capacity	61	ABS	0	0	1	3	24_1_3	NA	NA	0	1	4.10861110687	None	None	None	None	1
3.0.1	2019_Mar_08_1508	s	s	13	3	Capacity	62	1_4	1	4	1	1	23_1_1	0	3	1	0	0.76379609108	-489.0	369.0	-488.0	368.0	1
3.0.1	2019_Mar_08_1508	s	s	13	3	Capacity	63	1_2	1	2	1	4	23_1_4	0	2	1	0	0.604378223419	109.0	111.0	114.0	120.0	1
3.0.1	2019_Mar_08_1508	s	s	13	3	Capacity	64	ABS	0	0	1	3	24_1_3	NA	NA	0	1	2.17507886887	None	None	None	None	1
3.0.1	2019_Mar_08_1508	s	s	13	3	Capacity	65	1_3	1	3	1	1	23_1_1	0	2	1	0	1.3047940731	140.0	324.0	145.0	321.0	1
3.0.1	2019_Mar_08_1508	s	s	13	3	Capacity	66	ABS	0	0	1	4	24_1_4	NA	NA	0	1	1.89286708832	None	None	None	None	1
3.0.1	2019_Mar_08_1508	s	s	13	3	Capacity	67	1_1	1	1	1	3	23_1_3	0	2	1	0	2.38689303398	-442.0	-306.0	-443.0	-305.0	1
3.0.1	2019_Mar_08_1508	s	s	13	3	Capacity	68	ABS	0	0	1	2	24_1_2	NA	NA	0	1	3.95107221603	None	None	None	None	1
3.0.1	2019_Mar_08_1508	s	s	13	3	Capacity	69	1_4	1	4	1	3	23_1_3	0	1	1	0	0.768846035004	-488.0	-233.0	-489.0	-232.0	1
3.0.1	2019_Mar_08_1508	s	s	13	3	Capacity	70	1_2	1	2	1	3	23_1_3	0	1	0	1	2.66907310486	-384.0	24.0	None	None	0
3.0.1	2019_Mar_08_1508	s	s	13	3	Capacity	71	ABS	0	0	1	3	24_1_3	NA	NA	0	1	2.05220985413	None	None	None	None	1
3.0.1	2019_Mar_08_1508	s	s	13	3	Capacity	72	1_3	1	3	1	2	23_1_2	0	1	1	0	1.90752792358	334.0	255.0	329.0	255.0	1
3.0.1	2019_Mar_08_1508	s	s	13	3	Capacity	73	1_4	1	4	1	2	23_1_2	0	2	1	0	0.840162038803	-426.0	-247.0	-434.0	-251.0	1
3.0.1	2019_Mar_08_1508	s	s	13	3	Capacity	74	ABS	0	0	1	2	24_1_2	NA	NA	0	1	3.2928211689	None	None	None	None	1
3.0.1	2019_Mar_08_1508	s	s	13	3	Capacity	75	1_1	1	1	1	2	23_1_2	0	1	1	0	2.65063595772	313.0	-207.0	318.0	-213.0	1
3.0.1	2019_Mar_08_1508	s	s	13	3	Capacity	76	ABS	0	0	1	1	24_1_1	NA	NA	0	1	1.73784208298	None	None	None	None	1
3.0.1	2019_Mar_08_1508	s	s	13	3	Capacity	77	1_3	1	3	1	1	23_1_1	0	2	1	0	1.75846791267	458.0	-188.0	461.0	-192.0	1
3.0.1	2019_Mar_08_1508	s	s	13	3	Capacity	78	1_1	1	1	1	3	23_1_3	0	2	1	0	1.93423104286	536.0	-367.0	538.0	-360.0	1
3.0.1	2019_Mar_08_1508	s	s	13	3	Capacity	79	ABS	0	0	1	4	24_1_4	NA	NA	0	1	1.81052994728	None	None	None	None	1
3.0.1	2019_Mar_08_1508	s	s	13	3	Capacity	80	1_2	1	2	1	1	23_1_1	0	-1	1	0	1.37914204597	-118.0	-275.0	-119.0	-268.0	1
3.0.1	2019_Mar_08_1508	s	s	13	3	Capacity	81	1_2	1	2	1	3	23_1_3	0	1	1	0	2.73073816299	171.0	240.0	169.0	246.0	1
3.0.1	2019_Mar_08_1508	s	s	13	3	Capacity	82	1_3	1	3	1	4	23_1_4	0	-1	1	0	0.869729042053	-41.0	208.0	-40.0	209.0	1
3.0.1	2019_Mar_08_1508	s	s	13	3	Capacity	83	1_1	1	1	1	4	23_1_4	0	3	1	0	0.559772014618	265.0	285.0	268.0	286.0	1
3.0.1	2019_Mar_08_1508	s	s	13	3	Capacity	84	ABS	0	0	1	2	24_1_2	NA	NA	0	1	4.44506788254	None	None	None	None	1
3.0.1	2019_Mar_08_1508	s	s	13	3	Capacity	85	ABS	0	0	1	2	24_1_2	NA	NA	0	1	4.88503289223	None	None	None	None	1
3.0.1	2019_Mar_08_1508	s	s	13	3	Capacity	86	ABS	0	0	1	3	24_1_3	NA	NA	0	1	4.20104289055	None	None	None	None	1
3.0.1	2019_Mar_08_1508	s	s	13	3	Capacity	87	ABS	0	0	1	3	24_1_3	NA	NA	0	1	2.46027898788	None	None	None	None	1
3.0.1	2019_Mar_08_1508	s	s	13	3	Capacity	88	ABS	0	0	1	3	24_1_3	NA	NA	0	1	4.0385620594	None	None	None	None	1
3.0.1	2019_Mar_08_1508	s	s	13	3	Capacity	89	ABS	0	0	1	4	24_1_4	NA	NA	0	1	1.5801050663	None	None	None	None	1
3.0.1	2019_Mar_08_1508	s	s	13	3	Capacity	90	1_4	1	4	1	1	23_1_1	0	3	1	0	0.652826070786	31.0	233.0	38.0	236.0	1
3.0.1	2019_Mar_08_1508	s	s	13	3	Capacity	91	ABS	0	0	1	4	24_1_4	NA	NA	0	1	1.61439800262	None	None	None	None	1
3.0.1	2019_Mar_08_1508	s	s	13	3	Capacity	92	ABS	0	0	1	1	24_1_1	NA	NA	0	1	2.02511405945	None	None	None	None	1
3.0.1	2019_Mar_08_1508	s	s	13	3	Capacity	93	1_3	1	3	1	2	23_1_2	0	1	1	0	2.60143709183	-209.0	325.0	-210.0	320.0	1
3.0.1	2019_Mar_08_1508	s	s	13	3	Capacity	94	1_4	1	4	1	3	23_1_3	0	1	1	0	1.01118683815	-456.0	-183.0	-446.0	-181.0	1
3.0.1	2019_Mar_08_1508	s	s	13	3	Capacity	95	1_2	1	2	1	4	23_1_4	0	2	1	0	0.971420049667	-13.0	99.0	-13.0	98.0	1
3.0.1	2019_Mar_08_1508	s	s	13	3	Capacity	96	ABS	0	0	1	1	24_1_1	NA	NA	0	1	1.85621905327	None	None	None	None	1
3.0.1	2019_Mar_08_1508	s	s	13	3	SIC	1	ABS	0	0	1	1	24_1_1	NA	NA	0	1	2.31916904449	None	None	None	None	1
3.0.1	2019_Mar_08_1508	s	s	13	3	SIC	2	4_1	4	1	1	4	23_1_4	3	3	1	0	0.487776994705	205.0	-362.0	206.0	-360.0	1
3.0.1	2019_Mar_08_1508	s	s	13	3	SIC	3	1_3	1	3	3	1	23_3_1	2	2	1	0	0.509797096252	286.0	35.0	290.0	38.0	1
3.0.1	2019_Mar_08_1508	s	s	13	3	SIC	4	1_4	1	4	4	1	23_4_1	3	3	1	0	0.463536024094	-517.0	-173.0	-517.0	-175.0	1
3.0.1	2019_Mar_08_1508	s	s	13	3	SIC	5	ABS	0	0	2	4	24_2_4	NA	NA	0	1	1.60499811172	None	None	None	None	1
3.0.1	2019_Mar_08_1508	s	s	13	3	SIC	6	1_2	1	2	1	4	23_1_4	0	2	1	0	0.587373971939	245.0	-97.0	245.0	-99.0	1
3.0.1	2019_Mar_08_1508	s	s	13	3	SIC	7	ABS	0	0	2	4	24_2_4	NA	NA	0	1	1.62708306313	None	None	None	None	1
3.0.1	2019_Mar_08_1508	s	s	13	3	SIC	8	ABS	0	0	3	4	24_3_4	NA	NA	0	1	1.63413000107	None	None	None	None	1
3.0.1	2019_Mar_08_1508	s	s	13	3	SIC	9	ABS	0	0	4	2	24_4_2	NA	NA	0	1	3.30827116966	None	None	None	None	1
3.0.1	2019_Mar_08_1508	s	s	13	3	SIC	10	3_4	3	4	4	2	23_4_2	-1	2	1	0	0.563879013062	525.0	244.0	533.0	244.0	1
3.0.1	2019_Mar_08_1508	s	s	13	3	SIC	11	1_3	1	3	1	2	23_1_2	0	1	0	1	3.2374329567	-314.0	-141.0	None	None	0
3.0.1	2019_Mar_08_1508	s	s	13	3	SIC	12	ABS	0	0	4	3	24_4_3	NA	NA	0	1	3.77474093437	None	None	None	None	1
3.0.1	2019_Mar_08_1508	s	s	13	3	SIC	13	ABS	0	0	4	1	24_4_1	NA	NA	0	1	1.96346497536	None	None	None	None	1
3.0.1	2019_Mar_08_1508	s	s	13	3	SIC	14	ABS	0	0	2	4	24_2_4	NA	NA	0	1	1.18724584579	None	None	None	None	1
3.0.1	2019_Mar_08_1508	s	s	13	3	SIC	15	3_3	3	3	1	3	23_1_3	2	0	1	0	0.613785982132	485.0	-139.0	484.0	-136.0	1
3.0.1	2019_Mar_08_1508	s	s	13	3	SIC	16	1_1	1	1	4	1	23_4_1	3	0	1	0	0.451307058334	-395.0	83.0	-402.0	80.0	1
3.0.1	2019_Mar_08_1508	s	s	13	3	SIC	17	ABS	0	0	4	1	24_4_1	NA	NA	0	1	1.3249630928	None	None	None	None	1
3.0.1	2019_Mar_08_1508	s	s	13	3	SIC	18	2_3	2	3	1	2	23_1_2	-1	1	1	0	1.16368293762	33.0	-161.0	41.0	-166.0	1
3.0.1	2019_Mar_08_1508	s	s	13	3	SIC	19	ABS	0	0	2	3	24_2_3	NA	NA	0	1	2.76783680916	None	None	None	None	1
3.0.1	2019_Mar_08_1508	s	s	13	3	SIC	20	ABS	0	0	4	1	24_4_1	NA	NA	0	1	0.854733943939	None	None	None	None	1
3.0.1	2019_Mar_08_1508	s	s	13	3	SIC	21	3_3	3	3	1	1	23_1_1	2	2	1	0	0.634390830994	70.0	-105.0	66.0	-98.0	1
3.0.1	2019_Mar_08_1508	s	s	13	3	SIC	22	ABS	0	0	4	1	24_4_1	NA	NA	0	1	1.15189814568	None	None	None	None	1
3.0.1	2019_Mar_08_1508	s	s	13	3	SIC	23	ABS	0	0	1	3	24_1_3	NA	NA	0	1	3.02484202385	None	None	None	None	1
3.0.1	2019_Mar_08_1508	s	s	13	3	SIC	24	ABS	0	0	4	2	24_4_2	NA	NA	0	1	2.7308280468	None	None	None	None	1
3.0.1	2019_Mar_08_1508	s	s	13	3	SIC	25	4_2	4	2	4	1	23_4_1	0	-1	0	1	1.24605298042	142.0	102.0	None	None	0
3.0.1	2019_Mar_08_1508	s	s	13	3	SIC	26	2_4	2	4	1	4	23_1_4	-1	0	0	1	1.34410595894	61.0	242.0	None	None	0
3.0.1	2019_Mar_08_1508	s	s	13	3	SIC	27	ABS	0	0	3	3	24_3_3	NA	NA	0	1	3.28065490723	None	None	None	None	1
3.0.1	2019_Mar_08_1508	s	s	13	3	SIC	28	3_1	3	1	1	1	23_1_1	2	0	1	0	0.799070119858	431.0	-372.0	436.0	-368.0	1
3.0.1	2019_Mar_08_1508	s	s	13	3	SIC	29	1_2	1	2	1	1	23_1_1	0	-1	0	1	1.50472807884	408.0	-345.0	None	None	0
3.0.1	2019_Mar_08_1508	s	s	13	3	SIC	30	ABS	0	0	3	4	24_3_4	NA	NA	0	1	1.09598088264	None	None	None	None	1
3.0.1	2019_Mar_08_1508	s	s	13	3	SIC	31	ABS	0	0	1	2	24_1_2	NA	NA	0	1	3.64529418945	None	None	None	None	1
3.0.1	2019_Mar_08_1508	s	s	13	3	SIC	32	4_2	4	2	2	1	23_2_1	2	-1	1	0	0.52862906456	-175.0	-186.0	-180.0	-189.0	1
3.0.1	2019_Mar_08_1508	s	s	13	3	SIC	33	ABS	0	0	2	1	24_2_1	NA	NA	0	1	1.81064105034	None	None	None	None	1
3.0.1	2019_Mar_08_1508	s	s	13	3	SIC	34	ABS	0	0	1	2	24_1_2	NA	NA	0	1	3.18660497665	None	None	None	None	1
3.0.1	2019_Mar_08_1508	s	s	13	3	SIC	35	4_1	4	1	2	3	23_2_3	2	2	1	0	0.555473089218	402.0	103.0	410.0	97.0	1
3.0.1	2019_Mar_08_1508	s	s	13	3	SIC	36	ABS	0	0	1	1	24_1_1	NA	NA	0	1	1.37536597252	None	None	None	None	1
3.0.1	2019_Mar_08_1508	s	s	13	3	SIC	37	1_4	1	4	4	3	23_4_3	3	1	1	0	0.41094493866	315.0	80.0	321.0	90.0	1
3.0.1	2019_Mar_08_1508	s	s	13	3	SIC	38	ABS	0	0	1	3	24_1_3	NA	NA	0	1	3.20769691467	None	None	None	None	1
3.0.1	2019_Mar_08_1508	s	s	13	3	SIC	39	ABS	0	0	3	1	24_3_1	NA	NA	0	1	1.43704795837	None	None	None	None	1
3.0.1	2019_Mar_08_1508	s	s	13	3	SIC	40	2_4	2	4	3	2	23_3_2	1	2	1	0	0.677572011948	-345.0	148.0	-351.0	145.0	1
3.0.1	2019_Mar_08_1508	s	s	13	3	SIC	41	ABS	0	0	2	2	24_2_2	NA	NA	0	1	2.79354596138	None	None	None	None	1
3.0.1	2019_Mar_08_1508	s	s	13	3	SIC	42	1_4	1	4	1	1	23_1_1	0	3	1	0	0.505110025406	-384.0	8.0	-384.0	0.0	1
3.0.1	2019_Mar_08_1508	s	s	13	3	SIC	43	1_3	1	3	2	4	23_2_4	1	-1	1	0	0.646242856979	247.0	238.0	247.0	244.0	1
3.0.1	2019_Mar_08_1508	s	s	13	3	SIC	44	ABS	0	0	1	4	24_1_4	NA	NA	0	1	1.70473003387	None	None	None	None	1
3.0.1	2019_Mar_08_1508	s	s	13	3	SIC	45	2_1	2	1	4	1	23_4_1	2	0	1	0	0.657949924469	410.0	-335.0	412.0	-332.0	1
3.0.1	2019_Mar_08_1508	s	s	13	3	SIC	46	ABS	0	0	2	3	24_2_3	NA	NA	0	1	3.56775999069	None	None	None	None	1
3.0.1	2019_Mar_08_1508	s	s	13	3	SIC	47	1_2	1	2	3	1	23_3_1	2	-1	1	0	0.72852396965	-461.0	-229.0	-465.0	-233.0	1
3.0.1	2019_Mar_08_1508	s	s	13	3	SIC	48	4_2	4	2	1	1	23_1_1	3	-1	1	0	0.490761995316	101.0	201.0	96.0	200.0	1
3.0.1	2019_Mar_08_1508	s	s	13	3	SIC	49	3_1	3	1	4	4	23_4_4	-1	3	1	0	0.451369047165	23.0	-170.0	28.0	-176.0	1
3.0.1	2019_Mar_08_1508	s	s	13	3	SIC	50	4_1	4	1	4	4	23_4_4	0	3	1	0	0.516812086105	-418.0	395.0	-421.0	395.0	1
3.0.1	2019_Mar_08_1508	s	s	13	3	SIC	51	ABS	0	0	4	4	24_4_4	NA	NA	0	1	1.55567979813	None	None	None	None	1
3.0.1	2019_Mar_08_1508	s	s	13	3	SIC	52	3_3	3	3	2	2	23_2_2	1	1	1	0	0.547183990479	-115.0	190.0	-121.0	188.0	1
3.0.1	2019_Mar_08_1508	s	s	13	3	SIC	53	ABS	0	0	1	3	24_1_3	NA	NA	0	1	3.80989813805	None	None	None	None	1
3.0.1	2019_Mar_08_1508	s	s	13	3	SIC	54	4_2	4	2	3	1	23_3_1	1	-1	1	0	0.438417196274	-372.0	1.0	-369.0	-2.0	1
3.0.1	2019_Mar_08_1508	s	s	13	3	SIC	55	ABS	0	0	2	1	24_2_1	NA	NA	0	1	1.58023786545	None	None	None	None	1
3.0.1	2019_Mar_08_1508	s	s	13	3	SIC	56	ABS	0	0	3	2	24_3_2	NA	NA	0	1	2.85727095604	None	None	None	None	1
3.0.1	2019_Mar_08_1508	s	s	13	3	SIC	57	ABS	0	0	4	3	24_4_3	NA	NA	0	1	2.39860105515	None	None	None	None	1
3.0.1	2019_Mar_08_1508	s	s	13	3	SIC	58	4_3	4	3	2	2	23_2_2	2	1	1	0	0.604156970978	-342.0	132.0	-337.0	134.0	1
3.0.1	2019_Mar_08_1508	s	s	13	3	SIC	59	ABS	0	0	3	2	24_3_2	NA	NA	0	1	3.82173895836	None	None	None	None	1
3.0.1	2019_Mar_08_1508	s	s	13	3	SIC	60	ABS	0	0	2	4	24_2_4	NA	NA	0	1	1.65769600868	None	None	None	None	1
3.0.1	2019_Mar_08_1508	s	s	13	3	SIC	61	1_4	1	4	3	2	23_3_2	2	2	1	0	0.560325145721	207.0	-63.0	203.0	-64.0	1
3.0.1	2019_Mar_08_1508	s	s	13	3	SIC	62	3_4	3	4	1	4	23_1_4	2	0	1	0	1.06267905235	86.0	177.0	92.0	180.0	1
3.0.1	2019_Mar_08_1508	s	s	13	3	SIC	63	1_2	1	2	4	2	23_4_2	3	0	1	0	0.462028026581	-183.0	125.0	-181.0	129.0	1
3.0.1	2019_Mar_08_1508	s	s	13	3	SIC	64	ABS	0	0	1	2	24_1_2	NA	NA	0	1	3.50255203247	None	None	None	None	1
3.0.1	2019_Mar_08_1508	s	s	13	3	SIC	65	ABS	0	0	3	3	24_3_3	NA	NA	0	1	3.93251991272	None	None	None	None	1
3.0.1	2019_Mar_08_1508	s	s	13	3	SIC	66	3_2	3	2	2	2	23_2_2	1	0	1	0	1.08433818817	-326.0	-235.0	-324.0	-242.0	1
3.0.1	2019_Mar_08_1508	s	s	13	3	SIC	67	1_4	1	4	4	4	23_4_4	3	0	1	0	0.469810009003	-176.0	69.0	-170.0	67.0	1
3.0.1	2019_Mar_08_1508	s	s	13	3	SIC	68	4_2	4	2	1	4	23_1_4	3	2	1	0	0.437320947647	-251.0	-137.0	-248.0	-141.0	1
3.0.1	2019_Mar_08_1508	s	s	13	3	SIC	69	ABS	0	0	1	1	24_1_1	NA	NA	0	1	1.58721995354	None	None	None	None	1
3.0.1	2019_Mar_08_1508	s	s	13	3	SIC	70	ABS	0	0	4	3	24_4_3	NA	NA	0	1	1.39893698692	None	None	None	None	1
3.0.1	2019_Mar_08_1508	s	s	13	3	SIC	71	3_4	3	4	4	3	23_4_3	-1	1	1	0	0.528542995453	-367.0	-230.0	-363.0	-229.0	1
3.0.1	2019_Mar_08_1508	s	s	13	3	SIC	72	2_1	2	1	4	4	23_4_4	2	3	1	0	0.469758987427	-234.0	121.0	-227.0	118.0	1
3.0.1	2019_Mar_08_1508	s	s	13	3	SIC	73	ABS	0	0	4	1	24_4_1	NA	NA	0	1	0.839789867401	None	None	None	None	1
3.0.1	2019_Mar_08_1508	s	s	13	3	SIC	74	ABS	0	0	1	3	24_1_3	NA	NA	0	1	3.55120778084	None	None	None	None	1
3.0.1	2019_Mar_08_1508	s	s	13	3	SIC	75	3_1	3	1	2	4	23_2_4	1	3	1	0	0.502550840378	-383.0	-151.0	-385.0	-152.0	1
3.0.1	2019_Mar_08_1508	s	s	13	3	SIC	76	ABS	0	0	2	2	24_2_2	NA	NA	0	1	3.27573013306	None	None	None	None	1
3.0.1	2019_Mar_08_1508	s	s	13	3	SIC	77	ABS	0	0	4	4	24_4_4	NA	NA	0	1	1.30523610115	None	None	None	None	1
3.0.1	2019_Mar_08_1508	s	s	13	3	SIC	78	1_1	1	1	2	2	23_2_2	1	1	1	0	1.5922369957	38.0	-121.0	40.0	-124.0	1
3.0.1	2019_Mar_08_1508	s	s	13	3	SIC	79	ABS	0	0	2	1	24_2_1	NA	NA	0	1	1.40281391144	None	None	None	None	1
3.0.1	2019_Mar_08_1508	s	s	13	3	SIC	80	ABS	0	0	2	1	24_2_1	NA	NA	0	1	1.40395402908	None	None	None	None	1
3.0.1	2019_Mar_08_1508	s	s	13	3	SIC	81	ABS	0	0	2	2	24_2_2	NA	NA	0	1	3.35542488098	None	None	None	None	1
3.0.1	2019_Mar_08_1508	s	s	13	3	SIC	82	ABS	0	0	4	4	24_4_4	NA	NA	0	1	1.2756459713	None	None	None	None	1
3.0.1	2019_Mar_08_1508	s	s	13	3	SIC	83	ABS	0	0	2	4	24_2_4	NA	NA	0	1	1.28126502037	None	None	None	None	1
3.0.1	2019_Mar_08_1508	s	s	13	3	SIC	84	2_2	2	2	4	2	23_4_2	2	0	1	0	0.458037853241	-466.0	-45.0	-470.0	-47.0	1
3.0.1	2019_Mar_08_1508	s	s	13	3	SIC	85	ABS	0	0	1	3	24_1_3	NA	NA	0	1	2.86910009384	None	None	None	None	1
3.0.1	2019_Mar_08_1508	s	s	13	3	SIC	86	ABS	0	0	2	2	24_2_2	NA	NA	0	1	2.50742912292	None	None	None	None	1
3.0.1	2019_Mar_08_1508	s	s	13	3	SIC	87	2_3	2	3	4	3	23_4_3	2	0	1	0	0.516856908798	-343.0	-373.0	-335.0	-371.0	1
3.0.1	2019_Mar_08_1508	s	s	13	3	SIC	88	3_2	3	2	2	3	23_2_3	1	1	1	0	0.763779163361	138.0	345.0	150.0	347.0	1
3.0.1	2019_Mar_08_1508	s	s	13	3	SIC	89	2_3	2	3	4	4	23_4_4	2	-1	1	0	0.496161937714	341.0	-264.0	338.0	-261.0	1
3.0.1	2019_Mar_08_1508	s	s	13	3	SIC	90	ABS	0	0	1	2	24_1_2	NA	NA	0	1	3.97323012352	None	None	None	None	1
3.0.1	2019_Mar_08_1508	s	s	13	3	SIC	91	1_3	1	3	4	4	23_4_4	3	-1	1	0	0.469795942307	491.0	-396.0	493.0	-399.0	1
3.0.1	2019_Mar_08_1508	s	s	13	3	SIC	92	ABS	0	0	3	3	24_3_3	NA	NA	0	1	3.15131092072	None	None	None	None	1
3.0.1	2019_Mar_08_1508	s	s	13	3	SIC	93	ABS	0	0	4	1	24_4_1	NA	NA	0	1	1.29749202728	None	None	None	None	1
3.0.1	2019_Mar_08_1508	s	s	13	3	SIC	94	3_1	3	1	2	3	23_2_3	1	2	1	0	0.625597000122	-522.0	-170.0	-528.0	-167.0	1
3.0.1	2019_Mar_08_1508	s	s	13	3	SIC	95	2_3	2	3	2	1	23_2_1	0	2	1	0	0.634401082993	84.0	188.0	87.0	190.0	1
3.0.1	2019_Mar_08_1508	s	s	13	3	SIC	96	ABS	0	0	3	4	24_3_4	NA	NA	0	1	1.14346504211	None	None	None	None	1
3.0.1	2019_Mar_08_1508	s	s	13	3	SIC	97	ABS	0	0	3	2	24_3_2	NA	NA	0	1	2.6219830513	None	None	None	None	1
3.0.1	2019_Mar_08_1508	s	s	13	3	SIC	98	2_2	2	2	4	4	23_4_4	2	2	1	0	0.511219978333	-335.0	409.0	-337.0	398.0	1
3.0.1	2019_Mar_08_1508	s	s	13	3	SIC	99	2_1	2	1	1	3	23_1_3	-1	2	1	0	2.08119797707	518.0	-238.0	516.0	-237.0	1
3.0.1	2019_Mar_08_1508	s	s	13	3	SIC	100	4_4	4	4	3	1	23_3_1	1	3	1	0	0.51678109169	-383.0	-336.0	-385.0	-337.0	1
3.0.1	2019_Mar_08_1508	s	s	13	3	SIC	101	3_1	3	1	1	3	23_1_3	2	2	1	0	0.757082939148	-129.0	-411.0	-129.0	-410.0	1
3.0.1	2019_Mar_08_1508	s	s	13	3	SIC	102	2_1	2	1	3	2	23_3_2	1	1	1	0	1.10487508774	474.0	185.0	465.0	193.0	1
3.0.1	2019_Mar_08_1508	s	s	13	3	SIC	103	ABS	0	0	3	3	24_3_3	NA	NA	0	1	2.83374714851	None	None	None	None	1
3.0.1	2019_Mar_08_1508	s	s	13	3	SIC	104	ABS	0	0	2	4	24_2_4	NA	NA	0	1	1.27737808228	None	None	None	None	1
3.0.1	2019_Mar_08_1508	s	s	13	3	SIC	105	ABS	0	0	3	2	24_3_2	NA	NA	0	1	3.77764201164	None	None	None	None	1
3.0.1	2019_Mar_08_1508	s	s	13	3	SIC	106	1_2	1	2	3	2	23_3_2	2	0	1	0	0.422751903534	186.0	-43.0	181.0	-42.0	1
3.0.1	2019_Mar_08_1508	s	s	13	3	SIC	107	ABS	0	0	1	4	24_1_4	NA	NA	0	1	1.28495907784	None	None	None	None	1
3.0.1	2019_Mar_08_1508	s	s	13	3	SIC	108	ABS	0	0	1	4	24_1_4	NA	NA	0	1	1.45770215988	None	None	None	None	1
3.0.1	2019_Mar_08_1508	s	s	13	3	SIC	109	2_2	2	2	1	1	23_1_1	-1	-1	1	0	1.23421788216	-27.0	184.0	-25.0	182.0	1
3.0.1	2019_Mar_08_1508	s	s	13	3	SIC	110	ABS	0	0	1	2	24_1_2	NA	NA	0	1	3.83349299431	None	None	None	None	1
3.0.1	2019_Mar_08_1508	s	s	13	3	SIC	111	1_4	1	4	3	3	23_3_3	2	1	1	0	0.545623064041	-265.0	267.0	-264.0	263.0	1
3.0.1	2019_Mar_08_1508	s	s	13	3	SIC	112	ABS	0	0	1	4	24_1_4	NA	NA	0	1	2.14936494827	None	None	None	None	1
3.0.1	2019_Mar_08_1508	s	s	13	3	SIC	113	ABS	0	0	1	4	24_1_4	NA	NA	0	1	1.6605451107	None	None	None	None	1
3.0.1	2019_Mar_08_1508	s	s	13	3	SIC	114	1_1	1	1	3	1	23_3_1	2	0	1	0	0.676980018616	526.0	69.0	527.0	67.0	1
3.0.1	2019_Mar_08_1508	s	s	13	3	SIC	115	2_1	2	1	3	3	23_3_3	1	2	1	0	0.516765832901	-261.0	260.0	-255.0	254.0	1
3.0.1	2019_Mar_08_1508	s	s	13	3	SIC	116	2_1	2	1	3	4	23_3_4	1	3	1	0	0.496216773987	109.0	241.0	111.0	243.0	1
3.0.1	2019_Mar_08_1508	s	s	13	3	SIC	117	ABS	0	0	2	3	24_2_3	NA	NA	1	0	0.998987913132	None	None	-534.0	-52.0	0
3.0.1	2019_Mar_08_1508	s	s	13	3	SIC	118	ABS	0	0	4	4	24_4_4	NA	NA	0	1	1.08423709869	None	None	None	None	1
3.0.1	2019_Mar_08_1508	s	s	13	3	SIC	119	ABS	0	0	4	3	24_4_3	NA	NA	0	1	3.75115084648	None	None	None	None	1
3.0.1	2019_Mar_08_1508	s	s	13	3	SIC	120	4_2	4	2	3	2	23_3_2	1	0	1	0	0.528571844101	83.0	-325.0	91.0	-323.0	1
3.0.1	2019_Mar_08_1508	s	s	13	3	SIC	121	ABS	0	0	3	2	24_3_2	NA	NA	0	1	2.98663401604	None	None	None	None	1
3.0.1	2019_Mar_08_1508	s	s	13	3	SIC	122	3_3	3	3	1	4	23_1_4	2	-1	1	0	0.516794919968	-326.0	147.0	-319.0	148.0	1
3.0.1	2019_Mar_08_1508	s	s	13	3	SIC	123	3_2	3	2	1	1	23_1_1	2	-1	1	0	0.634809970856	-445.0	-233.0	-439.0	-229.0	1
3.0.1	2019_Mar_08_1508	s	s	13	3	SIC	124	ABS	0	0	4	1	24_4_1	NA	NA	0	1	1.77526402473	None	None	None	None	1
3.0.1	2019_Mar_08_1508	s	s	13	3	SIC	125	ABS	0	0	4	3	24_4_3	NA	NA	0	1	2.36710500717	None	None	None	None	1
3.0.1	2019_Mar_08_1508	s	s	13	3	SIC	126	ABS	0	0	1	1	24_1_1	NA	NA	0	1	1.54051589966	None	None	None	None	1
3.0.1	2019_Mar_08_1508	s	s	13	3	SIC	127	ABS	0	0	1	1	24_1_1	NA	NA	0	1	1.28127288818	None	None	None	None	1
3.0.1	2019_Mar_08_1508	s	s	13	3	SIC	128	3_1	3	1	4	1	23_4_1	-1	0	1	0	0.575647115707	-206.0	-408.0	-212.0	-417.0	1
3.0.1	2019_Mar_08_1508	s	s	13	3	SIC	129	1_2	1	2	3	4	23_3_4	2	2	1	0	0.502060890198	370.0	-291.0	372.0	-290.0	1
3.0.1	2019_Mar_08_1508	s	s	13	3	SIC	130	2_2	2	2	2	1	23_2_1	0	-1	1	0	1.22242903709	-478.0	-168.0	-472.0	-169.0	1
3.0.1	2019_Mar_08_1508	s	s	13	3	SIC	131	ABS	0	0	1	3	24_1_3	NA	NA	0	1	2.89269900322	None	None	None	None	1
3.0.1	2019_Mar_08_1508	s	s	13	3	SIC	132	3_4	3	4	2	4	23_2_4	1	0	1	0	1.83694195747	461.0	202.0	460.0	204.0	1
3.0.1	2019_Mar_08_1508	s	s	13	3	SIC	133	ABS	0	0	2	3	24_2_3	NA	NA	0	1	3.17480802536	None	None	None	None	1
3.0.1	2019_Mar_08_1508	s	s	13	3	SIC	134	4_2	4	2	3	4	23_3_4	1	2	1	0	0.469633817673	95.0	178.0	94.0	180.0	1
3.0.1	2019_Mar_08_1508	s	s	13	3	SIC	135	ABS	0	0	1	3	24_1_3	NA	NA	0	1	2.98702597618	None	None	None	None	1
3.0.1	2019_Mar_08_1508	s	s	13	3	SIC	136	4_3	4	3	3	2	23_3_2	1	1	1	0	0.44938492775	39.0	371.0	40.0	365.0	1
3.0.1	2019_Mar_08_1508	s	s	13	3	SIC	137	ABS	0	0	3	4	24_3_4	NA	NA	0	1	1.40476703644	None	None	None	None	1
3.0.1	2019_Mar_08_1508	s	s	13	3	SIC	138	ABS	0	0	1	1	24_1_1	NA	NA	0	1	1.35180497169	None	None	None	None	1
3.0.1	2019_Mar_08_1508	s	s	13	3	SIC	139	2_3	2	3	1	3	23_1_3	-1	0	0	1	6.21446013451	511.0	-121.0	None	None	0
3.0.1	2019_Mar_08_1508	s	s	13	3	SIC	140	ABS	0	0	3	2	24_3_2	NA	NA	0	1	2.78002500534	None	None	None	None	1
3.0.1	2019_Mar_08_1508	s	s	13	3	SIC	141	ABS	0	0	1	3	24_1_3	NA	NA	0	1	3.41002607346	None	None	None	None	1
3.0.1	2019_Mar_08_1508	s	s	13	3	SIC	142	ABS	0	0	1	3	24_1_3	NA	NA	0	1	3.1203789711	None	None	None	None	1
3.0.1	2019_Mar_08_1508	s	s	13	3	SIC	143	2_3	2	3	3	1	23_3_1	1	2	1	0	0.794996023178	29.0	-255.0	34.0	-252.0	1
3.0.1	2019_Mar_08_1508	s	s	13	3	SIC	144	ABS	0	0	2	4	24_2_4	NA	NA	0	1	2.01624011993	None	None	None	None	1
3.0.1	2019_Mar_08_1508	s	s	13	3	SIC	145	ABS	0	0	2	4	24_2_4	NA	NA	0	1	1.52185297012	None	None	None	None	1
3.0.1	2019_Mar_08_1508	s	s	13	3	SIC	146	4_1	4	1	2	1	23_2_1	2	0	1	0	0.481546163559	331.0	322.0	334.0	322.0	1
3.0.1	2019_Mar_08_1508	s	s	13	3	SIC	147	ABS	0	0	2	2	24_2_2	NA	NA	0	1	2.79635810852	None	None	None	None	1
3.0.1	2019_Mar_08_1508	s	s	13	3	SIC	148	ABS	0	0	3	2	24_3_2	NA	NA	0	1	3.47388792038	None	None	None	None	1
3.0.1	2019_Mar_08_1508	s	s	13	3	SIC	149	1_2	1	2	4	4	23_4_4	3	2	1	0	0.481533050537	237.0	-313.0	228.0	-316.0	1
3.0.1	2019_Mar_08_1508	s	s	13	3	SIC	150	ABS	0	0	1	2	24_1_2	NA	NA	0	1	3.56997799873	None	None	None	None	1
3.0.1	2019_Mar_08_1508	s	s	13	3	SIC	151	ABS	0	0	2	1	24_2_1	NA	NA	0	1	1.17550396919	None	None	None	None	1
3.0.1	2019_Mar_08_1508	s	s	13	3	SIC	152	ABS	0	0	2	1	24_2_1	NA	NA	0	1	0.940240859985	None	None	None	None	1
3.0.1	2019_Mar_08_1508	s	s	13	3	SIC	153	1_2	1	2	1	3	23_1_3	0	1	0	1	2.97496199608	362.0	-3.0	None	None	0
3.0.1	2019_Mar_08_1508	s	s	13	3	SIC	154	ABS	0	0	3	2	24_3_2	NA	NA	0	1	2.77978992462	None	None	None	None	1
3.0.1	2019_Mar_08_1508	s	s	13	3	SIC	155	3_4	3	4	4	4	23_4_4	-1	0	1	0	0.622665166855	-110.0	-189.0	-117.0	-189.0	1
3.0.1	2019_Mar_08_1508	s	s	13	3	SIC	156	1_4	1	4	3	1	23_3_1	2	3	1	0	0.49323797226	203.0	148.0	196.0	152.0	1
3.0.1	2019_Mar_08_1508	s	s	13	3	SIC	157	1_1	1	1	1	4	23_1_4	0	3	1	0	0.613775014877	-518.0	44.0	-527.0	42.0	1
3.0.1	2019_Mar_08_1508	s	s	13	3	SIC	158	1_3	1	3	3	3	23_3_3	2	0	1	0	0.646198034286	-1.0	1.0	-5.0	-1.0	1
3.0.1	2019_Mar_08_1508	s	s	13	3	SIC	159	4_1	4	1	4	2	23_4_2	0	1	1	0	1.46946597099	-332.0	-115.0	-177.0	-167.0	0
3.0.1	2019_Mar_08_1508	s	s	13	3	SIC	160	ABS	0	0	2	2	24_2_2	NA	NA	0	1	3.10879588127	None	None	None	None	1
3.0.1	2019_Mar_08_1508	s	s	13	3	SIC	161	ABS	0	0	1	2	24_1_2	NA	NA	0	1	1.97961807251	None	None	None	None	1
3.0.1	2019_Mar_08_1508	s	s	13	3	SIC	162	ABS	0	0	3	1	24_3_1	NA	NA	0	1	1.77526903152	None	None	None	None	1
3.0.1	2019_Mar_08_1508	s	s	13	3	SIC	163	ABS	0	0	3	3	24_3_3	NA	NA	0	1	3.44941711426	None	None	None	None	1
3.0.1	2019_Mar_08_1508	s	s	13	3	SIC	164	ABS	0	0	3	2	24_3_2	NA	NA	0	1	3.06904602051	None	None	None	None	1
3.0.1	2019_Mar_08_1508	s	s	13	3	SIC	165	ABS	0	0	3	4	24_3_4	NA	NA	0	1	0.991858005524	None	None	None	None	1
3.0.1	2019_Mar_08_1508	s	s	13	3	SIC	166	ABS	0	0	4	2	24_4_2	NA	NA	0	1	3.51596188545	None	None	None	None	1
3.0.1	2019_Mar_08_1508	s	s	13	3	SIC	167	ABS	0	0	3	2	24_3_2	NA	NA	0	1	4.20088291168	None	None	None	None	1
3.0.1	2019_Mar_08_1508	s	s	13	3	SIC	168	1_3	1	3	1	1	23_1_1	0	2	1	0	1.26955795288	-173.0	-350.0	-176.0	-355.0	1
3.0.1	2019_Mar_08_1508	s	s	13	3	SIC	169	3_3	3	3	2	3	23_2_3	1	0	1	0	0.916666984558	416.0	306.0	419.0	309.0	1
3.0.1	2019_Mar_08_1508	s	s	13	3	SIC	170	4_3	4	3	3	3	23_3_3	1	0	1	0	0.545314073563	-392.0	62.0	-392.0	63.0	1
3.0.1	2019_Mar_08_1508	s	s	13	3	SIC	171	ABS	0	0	2	1	24_2_1	NA	NA	0	1	2.08592295647	None	None	None	None	1
3.0.1	2019_Mar_08_1508	s	s	13	3	SIC	172	3_2	3	2	3	4	23_3_4	0	2	1	0	0.834396839142	497.0	-363.0	501.0	-364.0	1
3.0.1	2019_Mar_08_1508	s	s	13	3	SIC	173	2_2	2	2	2	4	23_2_4	0	2	1	0	0.587382078171	-141.0	223.0	-141.0	223.0	1
3.0.1	2019_Mar_08_1508	s	s	13	3	SIC	174	ABS	0	0	3	1	24_3_1	NA	NA	0	1	1.89577102661	None	None	None	None	1
3.0.1	2019_Mar_08_1508	s	s	13	3	SIC	175	3_1	3	1	3	3	23_3_3	0	2	1	0	0.957183837891	-65.0	-320.0	-65.0	-323.0	1
3.0.1	2019_Mar_08_1508	s	s	13	3	SIC	176	ABS	0	0	3	4	24_3_4	NA	NA	0	1	2.25749588013	None	None	None	None	1
3.0.1	2019_Mar_08_1508	s	s	13	3	SIC	177	4_3	4	3	2	1	23_2_1	2	2	1	0	0.613811969757	-469.0	-180.0	-467.0	-182.0	1
3.0.1	2019_Mar_08_1508	s	s	13	3	SIC	178	ABS	0	0	3	4	24_3_4	NA	NA	0	1	1.81062102318	None	None	None	None	1
3.0.1	2019_Mar_08_1508	s	s	13	3	SIC	179	3_4	3	4	2	1	23_2_1	1	3	1	0	0.681385040283	352.0	286.0	349.0	285.0	1
3.0.1	2019_Mar_08_1508	s	s	13	3	SIC	180	ABS	0	0	1	4	24_1_4	NA	NA	0	1	1.48804283142	None	None	None	None	1
3.0.1	2019_Mar_08_1508	s	s	13	3	SIC	181	1_1	1	1	4	3	23_4_3	3	2	1	0	0.46977186203	246.0	325.0	244.0	316.0	1
3.0.1	2019_Mar_08_1508	s	s	13	3	SIC	182	4_1	4	1	3	3	23_3_3	1	2	1	0	0.416238069534	169.0	215.0	168.0	221.0	1
3.0.1	2019_Mar_08_1508	s	s	13	3	SIC	183	ABS	0	0	3	4	24_3_4	NA	NA	0	1	1.78002381325	None	None	None	None	1
3.0.1	2019_Mar_08_1508	s	s	13	3	SIC	184	ABS	0	0	3	2	24_3_2	NA	NA	0	1	4.20452809334	None	None	None	None	1
3.0.1	2019_Mar_08_1508	s	s	13	3	SIC	185	3_4	3	4	1	2	23_1_2	2	2	1	0	0.646101951599	186.0	-369.0	182.0	-371.0	1
3.0.1	2019_Mar_08_1508	s	s	13	3	SIC	186	ABS	0	0	3	3	24_3_3	NA	NA	0	1	2.86902499199	None	None	None	None	1
3.0.1	2019_Mar_08_1508	s	s	13	3	SIC	187	ABS	0	0	1	3	24_1_3	NA	NA	0	1	3.68060183525	None	None	None	None	1
3.0.1	2019_Mar_08_1508	s	s	13	3	SIC	188	ABS	0	0	3	4	24_3_4	NA	NA	0	1	1.77524280548	None	None	None	None	1
3.0.1	2019_Mar_08_1508	s	s	13	3	SIC	189	3_1	3	1	1	4	23_1_4	2	3	1	0	0.496205091476	-353.0	-188.0	-353.0	-186.0	1
3.0.1	2019_Mar_08_1508	s	s	13	3	SIC	190	1_4	1	4	2	2	23_2_2	1	2	1	0	0.661260128021	-202.0	-381.0	-206.0	-382.0	1
3.0.1	2019_Mar_08_1508	s	s	13	3	SIC	191	ABS	0	0	2	2	24_2_2	NA	NA	0	1	3.33950090408	None	None	None	None	1
3.0.1	2019_Mar_08_1508	s	s	13	3	SIC	192	ABS	0	0	4	3	24_4_3	NA	NA	0	1	3.42226314545	None	None	None	None	1
3.0.1	2019_Mar_08_1508	s	s	13	3	SIC	193	ABS	0	0	4	4	24_4_4	NA	NA	0	1	1.69288706779	None	None	None	None	1
3.0.1	2019_Mar_08_1508	s	s	13	3	SIC	194	1_4	1	4	3	4	23_3_4	2	0	1	0	0.763695955276	127.0	146.0	137.0	146.0	1
3.0.1	2019_Mar_08_1508	s	s	13	3	SIC	195	ABS	0	0	4	4	24_4_4	NA	NA	0	1	1.26065397263	None	None	None	None	1
3.0.1	2019_Mar_08_1508	s	s	13	3	SIC	196	2_1	2	1	4	3	23_4_3	2	2	1	0	0.533536195755	460.0	321.0	453.0	323.0	1
3.0.1	2019_Mar_08_1508	s	s	13	3	SIC	197	4_4	4	4	2	1	23_2_1	2	3	1	0	0.53324007988	87.0	-130.0	94.0	-128.0	1
3.0.1	2019_Mar_08_1508	s	s	13	3	SIC	198	1_2	1	2	2	1	23_2_1	1	-1	1	0	1.92806005478	85.0	-382.0	91.0	-375.0	1
3.0.1	2019_Mar_08_1508	s	s	13	3	SIC	199	2_1	2	1	3	1	23_3_1	1	0	1	0	1.75171303749	-497.0	-72.0	-497.0	-76.0	1
3.0.1	2019_Mar_08_1508	s	s	13	3	SIC	200	ABS	0	0	1	3	24_1_3	NA	NA	0	1	4.09929800034	None	None	None	None	1
3.0.1	2019_Mar_08_1508	s	s	13	3	SIC	201	3_4	3	4	3	1	23_3_1	0	3	1	0	0.900110960007	310.0	-283.0	318.0	-283.0	1
3.0.1	2019_Mar_08_1508	s	s	13	3	SIC	202	3_2	3	2	1	2	23_1_2	2	0	1	0	0.738034009933	-253.0	213.0	-254.0	212.0	1
3.0.1	2019_Mar_08_1508	s	s	13	3	SIC	203	4_1	4	1	3	4	23_3_4	1	3	1	0	0.650375127792	471.0	78.0	467.0	82.0	1
3.0.1	2019_Mar_08_1508	s	s	13	3	SIC	204	ABS	0	0	2	2	24_2_2	NA	NA	0	1	3.17470097542	None	None	None	None	1
3.0.1	2019_Mar_08_1508	s	s	13	3	SIC	205	4_3	4	3	1	4	23_1_4	3	-1	1	0	0.47368812561	-470.0	-270.0	-468.0	-271.0	1
3.0.1	2019_Mar_08_1508	s	s	13	3	SIC	206	2_2	2	2	4	1	23_4_1	2	-1	1	0	0.469751834869	-63.0	177.0	-63.0	172.0	1
3.0.1	2019_Mar_08_1508	s	s	13	3	SIC	207	1_3	1	3	3	2	23_3_2	2	1	1	0	0.469753026962	206.0	-57.0	210.0	-52.0	1
3.0.1	2019_Mar_08_1508	s	s	13	3	SIC	208	ABS	0	0	3	2	24_3_2	NA	NA	0	1	2.7984688282	None	None	None	None	1
3.0.1	2019_Mar_08_1508	s	s	13	3	SIC	209	ABS	0	0	3	2	24_3_2	NA	NA	0	1	2.88629698753	None	None	None	None	1
3.0.1	2019_Mar_08_1508	s	s	13	3	SIC	210	3_4	3	4	1	3	23_1_3	2	1	1	0	0.563912153244	-45.0	175.0	-46.0	176.0	1
3.0.1	2019_Mar_08_1508	s	s	13	3	SIC	211	2_2	2	2	1	4	23_1_4	-1	2	1	0	0.851526021957	431.0	247.0	436.0	244.0	1
3.0.1	2019_Mar_08_1508	s	s	13	3	SIC	212	1_1	1	1	2	4	23_2_4	1	3	1	0	0.561100006104	202.0	340.0	195.0	342.0	1
3.0.1	2019_Mar_08_1508	s	s	13	3	SIC	213	3_4	3	4	4	1	23_4_1	-1	3	1	0	0.768105983734	-416.0	-348.0	-419.0	-350.0	1
3.0.1	2019_Mar_08_1508	s	s	13	3	SIC	214	ABS	0	0	3	2	24_3_2	NA	NA	0	1	3.59062504768	None	None	None	None	1
3.0.1	2019_Mar_08_1508	s	s	13	3	SIC	215	3_3	3	3	2	1	23_2_1	1	2	1	0	0.634380102158	61.0	253.0	65.0	245.0	1
3.0.1	2019_Mar_08_1508	s	s	13	3	SIC	216	ABS	0	0	2	1	24_2_1	NA	NA	0	1	1.86928892136	None	None	None	None	1
3.0.1	2019_Mar_08_1508	s	s	13	3	SIC	217	ABS	0	0	4	1	24_4_1	NA	NA	0	1	1.15525507927	None	None	None	None	1
3.0.1	2019_Mar_08_1508	s	s	13	3	SIC	218	4_4	4	4	4	3	23_4_3	0	1	1	0	0.849063873291	-477.0	404.0	-476.0	400.0	1
3.0.1	2019_Mar_08_1508	s	s	13	3	SIC	219	3_4	3	4	2	3	23_2_3	1	1	1	0	0.51025390625	-168.0	-187.0	-171.0	-185.0	1
3.0.1	2019_Mar_08_1508	s	s	13	3	SIC	220	2_1	2	1	2	2	23_2_2	0	1	1	0	2.0815050602	145.0	393.0	137.0	390.0	1
3.0.1	2019_Mar_08_1508	s	s	13	3	SIC	221	2_1	2	1	2	4	23_2_4	0	3	1	0	0.481564044952	19.0	204.0	24.0	195.0	1
3.0.1	2019_Mar_08_1508	s	s	13	3	SIC	222	ABS	0	0	3	1	24_3_1	NA	NA	0	1	1.38718819618	None	None	None	None	1
3.0.1	2019_Mar_08_1508	s	s	13	3	SIC	223	4_2	4	2	2	4	23_2_4	2	2	1	0	0.457979917526	350.0	1.0	338.0	5.0	1
3.0.1	2019_Mar_08_1508	s	s	13	3	SIC	224	2_4	2	4	1	3	23_1_3	-1	1	1	0	0.83441400528	-331.0	-371.0	-330.0	-369.0	1
3.0.1	2019_Mar_08_1508	s	s	13	3	SIC	225	4_4	4	4	4	2	23_4_2	0	2	1	0	0.650417089462	178.0	15.0	180.0	18.0	1
3.0.1	2019_Mar_08_1508	s	s	13	3	SIC	226	ABS	0	0	2	3	24_2_3	NA	NA	0	1	2.84836387634	None	None	None	None	1
3.0.1	2019_Mar_08_1508	s	s	13	3	SIC	227	4_3	4	3	3	4	23_3_4	1	-1	1	0	0.427847862244	-370.0	-39.0	-368.0	-48.0	1
3.0.1	2019_Mar_08_1508	s	s	13	3	SIC	228	ABS	0	0	2	4	24_2_4	NA	NA	0	1	1.32484102249	None	None	None	None	1
3.0.1	2019_Mar_08_1508	s	s	13	3	SIC	229	ABS	0	0	2	4	24_2_4	NA	NA	0	1	1.41567587852	None	None	None	None	1
3.0.1	2019_Mar_08_1508	s	s	13	3	SIC	230	ABS	0	0	3	3	24_3_3	NA	NA	0	1	2.26140499115	None	None	None	None	1
3.0.1	2019_Mar_08_1508	s	s	13	3	SIC	231	ABS	0	0	1	2	24_1_2	NA	NA	0	1	2.38690805435	None	None	None	None	1
3.0.1	2019_Mar_08_1508	s	s	13	3	SIC	232	4_4	4	4	1	4	23_1_4	3	0	1	0	0.502553939819	95.0	297.0	91.0	301.0	1
3.0.1	2019_Mar_08_1508	s	s	13	3	SIC	233	2_1	2	1	1	2	23_1_2	-1	1	0	1	2.45742106438	-382.0	288.0	None	None	0
3.0.1	2019_Mar_08_1508	s	s	13	3	SIC	234	ABS	0	0	3	2	24_3_2	NA	NA	0	1	2.61029911041	None	None	None	None	1
3.0.1	2019_Mar_08_1508	s	s	13	3	SIC	235	ABS	0	0	4	1	24_4_1	NA	NA	0	1	1.82238817215	None	None	None	None	1
3.0.1	2019_Mar_08_1508	s	s	13	3	SIC	236	3_3	3	3	4	1	23_4_1	-1	2	1	0	0.556002855301	-297.0	189.0	-296.0	185.0	1
3.0.1	2019_Mar_08_1508	s	s	13	3	SIC	237	ABS	0	0	2	3	24_2_3	NA	NA	0	1	4.30391311646	None	None	None	None	1
3.0.1	2019_Mar_08_1508	s	s	13	3	SIC	238	ABS	0	0	1	2	24_1_2	NA	NA	0	1	2.18690705299	None	None	None	None	1
3.0.1	2019_Mar_08_1508	s	s	13	3	SIC	239	ABS	0	0	2	3	24_2_3	NA	NA	0	1	2.64561009407	None	None	None	None	1
3.0.1	2019_Mar_08_1508	s	s	13	3	SIC	240	ABS	0	0	2	3	24_2_3	NA	NA	0	1	2.76324295998	None	None	None	None	1
3.0.1	2019_Mar_08_1508	s	s	13	3	SIC	241	2_3	2	3	4	1	23_4_1	2	2	1	0	1.26595783234	423.0	368.0	419.0	374.0	1
3.0.1	2019_Mar_08_1508	s	s	13	3	SIC	242	4_2	4	2	1	2	23_1_2	3	0	1	0	0.634418964386	-416.0	-310.0	-412.0	-314.0	1
3.0.1	2019_Mar_08_1508	s	s	13	3	SIC	243	ABS	0	0	4	1	24_4_1	NA	NA	0	1	2.18689703941	None	None	None	None	1
3.0.1	2019_Mar_08_1508	s	s	13	3	SIC	244	1_1	1	1	4	4	23_4_4	3	3	1	0	0.399096012115	-317.0	44.0	-308.0	44.0	1
3.0.1	2019_Mar_08_1508	s	s	13	3	SIC	245	3_1	3	1	2	2	23_2_2	1	1	1	0	0.481864929199	-307.0	-27.0	-313.0	-34.0	1
3.0.1	2019_Mar_08_1508	s	s	13	3	SIC	246	3_1	3	1	4	3	23_4_3	-1	2	1	0	0.460777044296	388.0	-411.0	387.0	-408.0	1
3.0.1	2019_Mar_08_1508	s	s	13	3	SIC	247	ABS	0	0	1	1	24_1_1	NA	NA	0	1	1.86936497688	None	None	None	None	1
3.0.1	2019_Mar_08_1508	s	s	13	3	SIC	248	1_3	1	3	2	2	23_2_2	1	1	0	1	2.55154681206	333.0	-362.0	None	None	0
3.0.1	2019_Mar_08_1508	s	s	13	3	SIC	249	ABS	0	0	2	3	24_2_3	NA	NA	0	1	2.58685803413	None	None	None	None	1
3.0.1	2019_Mar_08_1508	s	s	13	3	SIC	250	4_4	4	4	2	2	23_2_2	2	2	1	0	0.637925863266	-440.0	220.0	-437.0	218.0	1
3.0.1	2019_Mar_08_1508	s	s	13	3	SIC	251	ABS	0	0	3	3	24_3_3	NA	NA	0	1	2.0104970932	None	None	None	None	1
3.0.1	2019_Mar_08_1508	s	s	13	3	SIC	252	ABS	0	0	1	3	24_1_3	NA	NA	0	1	1.95169401169	None	None	None	None	1
3.0.1	2019_Mar_08_1508	s	s	13	3	SIC	253	2_4	2	4	4	3	23_4_3	2	1	1	0	0.634443998337	-345.0	335.0	-348.0	335.0	1
3.0.1	2019_Mar_08_1508	s	s	13	3	SIC	254	ABS	0	0	2	2	24_2_2	NA	NA	0	1	2.2603161335	None	None	None	None	1
3.0.1	2019_Mar_08_1508	s	s	13	3	SIC	255	ABS	0	0	1	1	24_1_1	NA	NA	0	1	1.94511198997	None	None	None	None	1
3.0.1	2019_Mar_08_1508	s	s	13	3	SIC	256	ABS	0	0	3	3	24_3_3	NA	NA	0	1	2.90725398064	None	None	None	None	1
3.0.1	2019_Mar_08_1508	s	s	13	3	SIC	257	ABS	0	0	1	1	24_1_1	NA	NA	0	1	1.95175981522	None	None	None	None	1
3.0.1	2019_Mar_08_1508	s	s	13	3	SIC	258	1_3	1	3	3	4	23_3_4	2	-1	1	0	0.510869979858	129.0	245.0	133.0	239.0	1
3.0.1	2019_Mar_08_1508	s	s	13	3	SIC	259	ABS	0	0	2	1	24_2_1	NA	NA	0	1	1.71650004387	None	None	None	None	1
3.0.1	2019_Mar_08_1508	s	s	13	3	SIC	260	ABS	0	0	4	3	24_4_3	NA	NA	0	1	2.49559211731	None	None	None	None	1
3.0.1	2019_Mar_08_1508	s	s	13	3	SIC	261	ABS	0	0	1	4	24_1_4	NA	NA	0	1	1.72168087959	None	None	None	None	1
3.0.1	2019_Mar_08_1508	s	s	13	3	SIC	262	ABS	0	0	4	1	24_4_1	NA	NA	0	1	1.43417310715	None	None	None	None	1
3.0.1	2019_Mar_08_1508	s	s	13	3	SIC	263	2_4	2	4	4	2	23_4_2	2	2	1	0	0.768852949142	179.0	-202.0	181.0	-206.0	1
3.0.1	2019_Mar_08_1508	s	s	13	3	SIC	264	1_3	1	3	4	2	23_4_2	3	1	1	0	0.545660018921	-135.0	-286.0	-140.0	-287.0	1
3.0.1	2019_Mar_08_1508	s	s	13	3	SIC	265	4_3	4	3	2	4	23_2_4	2	-1	1	0	0.62802696228	-452.0	-80.0	-462.0	-82.0	1
3.0.1	2019_Mar_08_1508	s	s	13	3	SIC	266	1_4	1	4	2	4	23_2_4	1	0	0	1	1.62849283218	197.0	220.0	None	None	0
3.0.1	2019_Mar_08_1508	s	s	13	3	SIC	267	1_4	1	4	4	2	23_4_2	3	2	1	0	0.528536081314	-467.0	-131.0	-469.0	-131.0	1
3.0.1	2019_Mar_08_1508	s	s	13	3	SIC	268	4_4	4	4	3	3	23_3_3	1	1	1	0	0.587370157242	-102.0	396.0	-101.0	390.0	1
3.0.1	2019_Mar_08_1508	s	s	13	3	SIC	269	1_3	1	3	2	1	23_2_1	1	2	1	0	0.881373167038	54.0	119.0	47.0	124.0	1
3.0.1	2019_Mar_08_1508	s	s	13	3	SIC	270	ABS	0	0	2	3	24_2_3	NA	NA	0	1	2.93953680992	None	None	None	None	1
3.0.1	2019_Mar_08_1508	s	s	13	3	SIC	271	ABS	0	0	1	4	24_1_4	NA	NA	0	1	1.97850203514	None	None	None	None	1
3.0.1	2019_Mar_08_1508	s	s	13	3	SIC	272	4_1	4	1	1	2	23_1_2	3	1	1	0	0.496165990829	335.0	193.0	339.0	197.0	1
3.0.1	2019_Mar_08_1508	s	s	13	3	SIC	273	ABS	0	0	1	2	24_1_2	NA	NA	0	1	2.70439720154	None	None	None	None	1
3.0.1	2019_Mar_08_1508	s	s	13	3	SIC	274	2_2	2	2	1	3	23_1_3	-1	1	1	0	2.49751210213	414.0	123.0	427.0	129.0	1
3.0.1	2019_Mar_08_1508	s	s	13	3	SIC	275	1_2	1	2	2	2	23_2_2	1	0	1	0	4.80377793312	482.0	332.0	477.0	333.0	1
3.0.1	2019_Mar_08_1508	s	s	13	3	SIC	276	ABS	0	0	4	1	24_4_1	NA	NA	0	1	1.8556330204	None	None	None	None	1
3.0.1	2019_Mar_08_1508	s	s	13	3	SIC	277	1_4	1	4	2	3	23_2_3	1	1	1	0	0.505258083344	450.0	180.0	455.0	183.0	1
3.0.1	2019_Mar_08_1508	s	s	13	3	SIC	278	ABS	0	0	1	4	24_1_4	NA	NA	0	1	1.45118117332	None	None	None	None	1
3.0.1	2019_Mar_08_1508	s	s	13	3	SIC	279	4_1	4	1	1	1	23_1_1	3	0	1	0	0.516841173172	-51.0	369.0	-55.0	369.0	1
3.0.1	2019_Mar_08_1508	s	s	13	3	SIC	280	2_1	2	1	4	2	23_4_2	2	1	1	0	0.599169969559	-56.0	-264.0	-58.0	-266.0	1
3.0.1	2019_Mar_08_1508	s	s	13	3	SIC	281	4_3	4	3	4	4	23_4_4	0	-1	1	0	1.03887891769	496.0	399.0	498.0	397.0	1
3.0.1	2019_Mar_08_1508	s	s	13	3	SIC	282	ABS	0	0	3	1	24_3_1	NA	NA	0	1	1.38711810112	None	None	None	None	1
3.0.1	2019_Mar_08_1508	s	s	13	3	SIC	283	3_2	3	2	1	3	23_1_3	2	1	1	0	0.613825082779	-357.0	33.0	-357.0	31.0	1
3.0.1	2019_Mar_08_1508	s	s	13	3	SIC	284	2_2	2	2	4	3	23_4_3	2	1	1	0	0.510566949844	-196.0	-104.0	-194.0	-108.0	1
3.0.1	2019_Mar_08_1508	s	s	13	3	SIC	285	ABS	0	0	3	3	24_3_3	NA	NA	0	1	1.35192608833	None	None	None	None	1
3.0.1	2019_Mar_08_1508	s	s	13	3	SIC	286	4_4	4	4	3	4	23_3_4	1	0	1	0	0.559971094131	-345.0	-250.0	-350.0	-258.0	1
3.0.1	2019_Mar_08_1508	s	s	13	3	SIC	287	1_3	1	3	4	1	23_4_1	3	2	1	0	0.427632808685	-486.0	162.0	-492.0	154.0	1
3.0.1	2019_Mar_08_1508	s	s	13	3	SIC	288	1_1	1	1	2	1	23_2_1	1	0	0	1	1.59892201424	360.0	-273.0	None	None	0
3.0.1	2019_Mar_08_1508	s	s	13	3	SIC	289	ABS	0	0	4	4	24_4_4	NA	NA	0	1	1.24596595764	None	None	None	None	1
3.0.1	2019_Mar_08_1508	s	s	13	3	SIC	290	4_3	4	3	4	2	23_4_2	0	1	0	1	1.75184392929	84.0	357.0	None	None	0
3.0.1	2019_Mar_08_1508	s	s	13	3	SIC	291	4_4	4	4	1	1	23_1_1	3	3	1	0	0.474912166595	47.0	-179.0	47.0	-183.0	1
3.0.1	2019_Mar_08_1508	s	s	13	3	SIC	292	4_2	4	2	4	4	23_4_4	0	2	1	0	0.569815158844	120.0	-213.0	119.0	-221.0	1
3.0.1	2019_Mar_08_1508	s	s	13	3	SIC	293	2_4	2	4	1	1	23_1_1	-1	3	1	0	0.657934904099	-181.0	-147.0	-186.0	-151.0	1
3.0.1	2019_Mar_08_1508	s	s	13	3	SIC	294	3_2	3	2	4	2	23_4_2	-1	0	1	0	0.599228143692	-153.0	14.0	-145.0	10.0	1
3.0.1	2019_Mar_08_1508	s	s	13	3	SIC	295	3_2	3	2	4	3	23_4_3	-1	1	1	0	0.481983184814	341.0	-50.0	339.0	-52.0	1
3.0.1	2019_Mar_08_1508	s	s	13	3	SIC	296	3_2	3	2	4	4	23_4_4	-1	2	1	0	0.554946184158	72.0	62.0	69.0	68.0	1
3.0.1	2019_Mar_08_1508	s	s	13	3	SIC	297	ABS	0	0	3	4	24_3_4	NA	NA	0	1	1.70463109016	None	None	None	None	1
3.0.1	2019_Mar_08_1508	s	s	13	3	SIC	298	ABS	0	0	1	3	24_1_3	NA	NA	0	1	3.47368311882	None	None	None	None	1
3.0.1	2019_Mar_08_1508	s	s	13	3	SIC	299	ABS	0	0	3	3	24_3_3	NA	NA	0	1	3.36345791817	None	None	None	None	1
3.0.1	2019_Mar_08_1508	s	s	13	3	SIC	300	ABS	0	0	4	3	24_4_3	NA	NA	0	1	2.95147514343	None	None	None	None	1
3.0.1	2019_Mar_08_1508	s	s	13	3	SIC	301	ABS	0	0	3	4	24_3_4	NA	NA	0	1	1.46945905685	None	None	None	None	1
3.0.1	2019_Mar_08_1508	s	s	13	3	SIC	302	4_3	4	3	2	3	23_2_3	2	0	1	0	0.562524080276	-107.0	407.0	-108.0	408.0	1
3.0.1	2019_Mar_08_1508	s	s	13	3	SIC	303	ABS	0	0	2	3	24_2_3	NA	NA	0	1	2.78158402443	None	None	None	None	1
3.0.1	2019_Mar_08_1508	s	s	13	3	SIC	304	3_2	3	2	1	4	23_1_4	2	2	1	0	0.613800048828	-115.0	-215.0	-117.0	-221.0	1
3.0.1	2019_Mar_08_1508	s	s	13	3	SIC	305	ABS	0	0	3	4	24_3_4	NA	NA	0	1	1.4577999115	None	None	None	None	1
3.0.1	2019_Mar_08_1508	s	s	13	3	SIC	306	ABS	0	0	4	2	24_4_2	NA	NA	0	1	2.99841117859	None	None	None	None	1
3.0.1	2019_Mar_08_1508	s	s	13	3	SIC	307	ABS	0	0	4	4	24_4_4	NA	NA	0	1	1.48790192604	None	None	None	None	1
3.0.1	2019_Mar_08_1508	s	s	13	3	SIC	308	3_3	3	3	4	2	23_4_2	-1	1	1	0	0.469742059708	276.0	125.0	272.0	124.0	1
3.0.1	2019_Mar_08_1508	s	s	13	3	SIC	309	ABS	0	0	2	3	24_2_3	NA	NA	0	1	2.86906981468	None	None	None	None	1
3.0.1	2019_Mar_08_1508	s	s	13	3	SIC	310	2_1	2	1	2	3	23_2_3	0	2	1	0	0.55495095253	248.0	-68.0	251.0	-72.0	1
3.0.1	2019_Mar_08_1508	s	s	13	3	SIC	311	ABS	0	0	1	4	24_1_4	NA	NA	0	1	1.35618185997	None	None	None	None	1
3.0.1	2019_Mar_08_1508	s	s	13	3	SIC	312	3_3	3	3	3	1	23_3_1	0	2	1	0	1.30477595329	-529.0	126.0	-529.0	122.0	1
3.0.1	2019_Mar_08_1508	s	s	13	3	SIC	313	2_2	2	2	2	3	23_2_3	0	1	1	0	1.90854787827	-127.0	-88.0	-121.0	-92.0	1
3.0.1	2019_Mar_08_1508	s	s	13	3	SIC	314	4_3	4	3	1	1	23_1_1	3	2	1	0	0.540426969528	366.0	-167.0	359.0	-166.0	1
3.0.1	2019_Mar_08_1508	s	s	13	3	SIC	315	4_1	4	1	3	1	23_3_1	1	0	1	0	0.603092193604	219.0	58.0	219.0	53.0	1
3.0.1	2019_Mar_08_1508	s	s	13	3	SIC	316	3_1	3	1	3	4	23_3_4	0	3	1	0	0.490038871765	244.0	-382.0	248.0	-384.0	1
3.0.1	2019_Mar_08_1508	s	s	13	3	SIC	317	1_4	1	4	1	3	23_1_3	0	1	1	0	1.41524195671	-533.0	-50.0	-538.0	-52.0	1
3.0.1	2019_Mar_08_1508	s	s	13	3	SIC	318	2_4	2	4	2	1	23_2_1	0	3	1	0	0.639279127121	-293.0	362.0	-286.0	360.0	1
3.0.1	2019_Mar_08_1508	s	s	13	3	SIC	319	ABS	0	0	1	4	24_1_4	NA	NA	0	1	1.66306114197	None	None	None	None	1
3.0.1	2019_Mar_08_1508	s	s	13	3	SIC	320	ABS	0	0	3	1	24_3_1	NA	NA	0	1	1.6811439991	None	None	None	None	1
3.0.1	2019_Mar_08_1508	s	s	13	3	SIC	321	3_2	3	2	2	4	23_2_4	1	2	1	0	0.602826833725	-382.0	-404.0	-377.0	-405.0	1
3.0.1	2019_Mar_08_1508	s	s	13	3	SIC	322	4_3	4	3	1	2	23_1_2	3	1	1	0	0.458034038544	-316.0	192.0	-315.0	193.0	1
3.0.1	2019_Mar_08_1508	s	s	13	3	SIC	323	2_2	2	2	1	2	23_1_2	-1	0	0	1	2.82204008102	144.0	-63.0	None	None	0
3.0.1	2019_Mar_08_1508	s	s	13	3	SIC	324	ABS	0	0	4	2	24_4_2	NA	NA	0	1	2.01586699486	None	None	None	None	1
3.0.1	2019_Mar_08_1508	s	s	13	3	SIC	325	1_1	1	1	1	2	23_1_2	0	1	1	0	3.77475881577	312.0	-285.0	320.0	-286.0	1
3.0.1	2019_Mar_08_1508	s	s	13	3	SIC	326	ABS	0	0	3	3	24_3_3	NA	NA	0	1	2.7042889595	None	None	None	None	1
3.0.1	2019_Mar_08_1508	s	s	13	3	SIC	327	ABS	0	0	3	3	24_3_3	NA	NA	0	1	3.56685495377	None	None	None	None	1
3.0.1	2019_Mar_08_1508	s	s	13	3	SIC	328	ABS	0	0	4	4	24_4_4	NA	NA	0	1	1.64585804939	None	None	None	None	1
3.0.1	2019_Mar_08_1508	s	s	13	3	SIC	329	2_4	2	4	1	2	23_1_2	-1	2	1	0	0.627382993698	-391.0	147.0	-389.0	144.0	1
3.0.1	2019_Mar_08_1508	s	s	13	3	SIC	330	ABS	0	0	2	1	24_2_1	NA	NA	0	1	1.73106789589	None	None	None	None	1
3.0.1	2019_Mar_08_1508	s	s	13	3	SIC	331	4_3	4	3	4	1	23_4_1	0	2	1	0	1.35588884354	34.0	-359.0	31.0	-355.0	1
3.0.1	2019_Mar_08_1508	s	s	13	3	SIC	332	1_1	1	1	4	2	23_4_2	3	1	1	0	0.469737052917	429.0	-86.0	425.0	-82.0	1
3.0.1	2019_Mar_08_1508	s	s	13	3	SIC	333	2_4	2	4	4	1	23_4_1	2	3	1	0	0.44627404213	460.0	138.0	465.0	136.0	1
3.0.1	2019_Mar_08_1508	s	s	13	3	SIC	334	1_1	1	1	3	2	23_3_2	2	1	1	0	0.657915830612	-522.0	-174.0	-520.0	-175.0	1
3.0.1	2019_Mar_08_1508	s	s	13	3	SIC	335	ABS	0	0	4	2	24_4_2	NA	NA	0	1	2.49272298813	None	None	None	None	1
3.0.1	2019_Mar_08_1508	s	s	13	3	SIC	336	2_4	2	4	3	4	23_3_4	1	0	1	0	0.505103111267	-168.0	-183.0	-167.0	-183.0	1
3.0.1	2019_Mar_08_1508	s	s	13	3	SIC	337	ABS	0	0	4	2	24_4_2	NA	NA	0	1	3.09935998917	None	None	None	None	1
3.0.1	2019_Mar_08_1508	s	s	13	3	SIC	338	ABS	0	0	2	2	24_2_2	NA	NA	0	1	3.23360896111	None	None	None	None	1
3.0.1	2019_Mar_08_1508	s	s	13	3	SIC	339	ABS	0	0	1	1	24_1_1	NA	NA	0	1	2.48618888855	None	None	None	None	1
3.0.1	2019_Mar_08_1508	s	s	13	3	SIC	340	2_2	2	2	3	4	23_3_4	1	2	1	0	0.540365934372	-175.0	88.0	-168.0	86.0	1
3.0.1	2019_Mar_08_1508	s	s	13	3	SIC	341	ABS	0	0	2	2	24_2_2	NA	NA	0	1	3.42185521126	None	None	None	None	1
3.0.1	2019_Mar_08_1508	s	s	13	3	SIC	342	1_3	1	3	1	4	23_1_4	0	-1	1	0	0.799259185791	-346.0	-331.0	-341.0	-334.0	1
3.0.1	2019_Mar_08_1508	s	s	13	3	SIC	343	ABS	0	0	1	1	24_1_1	NA	NA	0	1	2.30452203751	None	None	None	None	1
3.0.1	2019_Mar_08_1508	s	s	13	3	SIC	344	ABS	0	0	2	1	24_2_1	NA	NA	0	1	1.34479689598	None	None	None	None	1
3.0.1	2019_Mar_08_1508	s	s	13	3	SIC	345	ABS	0	0	4	4	24_4_4	NA	NA	0	1	1.31948590279	None	None	None	None	1
3.0.1	2019_Mar_08_1508	s	s	13	3	SIC	346	ABS	0	0	3	4	24_3_4	NA	NA	0	1	1.26073694229	None	None	None	None	1
3.0.1	2019_Mar_08_1508	s	s	13	3	SIC	347	ABS	0	0	1	1	24_1_1	NA	NA	0	1	1.72144889832	None	None	None	None	1
3.0.1	2019_Mar_08_1508	s	s	13	3	SIC	348	ABS	0	0	3	1	24_3_1	NA	NA	0	1	1.46947002411	None	None	None	None	1
3.0.1	2019_Mar_08_1508	s	s	13	3	SIC	349	ABS	0	0	2	1	24_2_1	NA	NA	0	1	1.4815428257	None	None	None	None	1
3.0.1	2019_Mar_08_1508	s	s	13	3	SIC	350	4_3	4	3	1	3	23_1_3	3	0	1	0	0.587373018265	14.0	-206.0	18.0	-216.0	1
3.0.1	2019_Mar_08_1508	s	s	13	3	SIC	351	ABS	0	0	4	3	24_4_3	NA	NA	0	1	2.45540690422	None	None	None	None	1
3.0.1	2019_Mar_08_1508	s	s	13	3	SIC	352	ABS	0	0	4	2	24_4_2	NA	NA	0	1	1.70467305183	None	None	None	None	1
3.0.1	2019_Mar_08_1508	s	s	13	3	SIC	353	ABS	0	0	4	3	24_4_3	NA	NA	0	1	3.54467821121	None	None	None	None	1
3.0.1	2019_Mar_08_1508	s	s	13	3	SIC	354	2_3	2	3	3	4	23_3_4	1	-1	1	0	0.604425907135	324.0	232.0	336.0	237.0	1
3.0.1	2019_Mar_08_1508	s	s	13	3	SIC	355	2_2	2	2	3	1	23_3_1	1	-1	1	0	0.95830488205	470.0	-189.0	481.0	-189.0	1
3.0.1	2019_Mar_08_1508	s	s	13	3	SIC	356	2_4	2	4	3	3	23_3_3	1	1	1	0	0.62842798233	537.0	-125.0	532.0	-125.0	1
3.0.1	2019_Mar_08_1508	s	s	13	3	SIC	357	ABS	0	0	3	4	24_3_4	NA	NA	0	1	1.69812011719	None	None	None	None	1
3.0.1	2019_Mar_08_1508	s	s	13	3	SIC	358	4_4	4	4	1	2	23_1_2	3	2	1	0	0.737249851227	420.0	-261.0	429.0	-261.0	1
3.0.1	2019_Mar_08_1508	s	s	13	3	SIC	359	4_1	4	1	4	3	23_4_3	0	2	1	0	2.66397309303	397.0	255.0	397.0	251.0	1
3.0.1	2019_Mar_08_1508	s	s	13	3	SIC	360	4_1	4	1	2	2	23_2_2	2	1	1	0	0.457957983017	167.0	-139.0	168.0	-134.0	1
3.0.1	2019_Mar_08_1508	s	s	13	3	SIC	361	1_1	1	1	3	3	23_3_3	2	2	1	0	0.474509954453	-44.0	180.0	-39.0	180.0	1
3.0.1	2019_Mar_08_1508	s	s	13	3	SIC	362	3_4	3	4	3	2	23_3_2	0	2	1	0	0.769068956375	-184.0	-261.0	-187.0	-269.0	1
3.0.1	2019_Mar_08_1508	s	s	13	3	SIC	363	ABS	0	0	4	4	24_4_4	NA	NA	0	1	1.48127484322	None	None	None	None	1
3.0.1	2019_Mar_08_1508	s	s	13	3	SIC	364	4_2	4	2	2	2	23_2_2	2	0	1	0	0.469758033752	-124.0	-233.0	-123.0	-235.0	1
3.0.1	2019_Mar_08_1508	s	s	13	3	SIC	365	ABS	0	0	3	1	24_3_1	NA	NA	0	1	2.18691515923	None	None	None	None	1
3.0.1	2019_Mar_08_1508	s	s	13	3	SIC	366	3_2	3	2	3	1	23_3_1	0	-1	0	1	1.2694709301	302.0	32.0	None	None	0
3.0.1	2019_Mar_08_1508	s	s	13	3	SIC	367	2_3	2	3	2	2	23_2_2	0	1	1	0	1.76346707344	-269.0	91.0	-271.0	89.0	1
3.0.1	2019_Mar_08_1508	s	s	13	3	SIC	368	ABS	0	0	3	1	24_3_1	NA	NA	0	1	1.77526712418	None	None	None	None	1
3.0.1	2019_Mar_08_1508	s	s	13	3	SIC	369	ABS	0	0	4	3	24_4_3	NA	NA	0	1	2.63667917252	None	None	None	None	1
3.0.1	2019_Mar_08_1508	s	s	13	3	SIC	370	ABS	0	0	1	2	24_1_2	NA	NA	0	1	3.24551892281	None	None	None	None	1
3.0.1	2019_Mar_08_1508	s	s	13	3	SIC	371	4_3	4	3	3	1	23_3_1	1	2	1	0	0.763794898987	377.0	-404.0	377.0	-407.0	1
3.0.1	2019_Mar_08_1508	s	s	13	3	SIC	372	ABS	0	0	1	3	24_1_3	NA	NA	0	1	3.04566311836	None	None	None	None	1
3.0.1	2019_Mar_08_1508	s	s	13	3	SIC	373	ABS	0	0	2	4	24_2_4	NA	NA	0	1	1.20192193985	None	None	None	None	1
3.0.1	2019_Mar_08_1508	s	s	13	3	SIC	374	3_2	3	2	4	1	23_4_1	-1	-1	1	0	0.601975917816	-486.0	396.0	-480.0	400.0	1
3.0.1	2019_Mar_08_1508	s	s	13	3	SIC	375	ABS	0	0	3	1	24_3_1	NA	NA	0	1	1.12133002281	None	None	None	None	1
3.0.1	2019_Mar_08_1508	s	s	13	3	SIC	376	ABS	0	0	3	3	24_3_3	NA	NA	0	1	4.86844205856	None	None	None	None	1
3.0.1	2019_Mar_08_1508	s	s	13	3	SIC	377	ABS	0	0	4	2	24_4_2	NA	NA	0	1	3.41014003754	None	None	None	None	1
3.0.1	2019_Mar_08_1508	s	s	13	3	SIC	378	ABS	0	0	4	1	24_4_1	NA	NA	0	1	1.7635140419	None	None	None	None	1
3.0.1	2019_Mar_08_1508	s	s	13	3	SIC	379	1_4	1	4	1	2	23_1_2	0	2	1	0	0.58776807785	212.0	-166.0	212.0	-170.0	1
3.0.1	2019_Mar_08_1508	s	s	13	3	SIC	380	ABS	0	0	4	2	24_4_2	NA	NA	0	1	2.61036419868	None	None	None	None	1
3.0.1	2019_Mar_08_1508	s	s	13	3	SIC	381	3_3	3	3	4	3	23_4_3	-1	0	1	0	0.587435007095	-8.0	148.0	-6.0	140.0	1
3.0.1	2019_Mar_08_1508	s	s	13	3	SIC	382	2_3	2	3	4	2	23_4_2	2	1	1	0	0.646183013916	356.0	-283.0	360.0	-287.0	1
3.0.1	2019_Mar_08_1508	s	s	13	3	SIC	383	3_3	3	3	2	4	23_2_4	1	-1	1	0	0.646189928055	18.0	-373.0	12.0	-368.0	1
3.0.1	2019_Mar_08_1508	s	s	13	3	SIC	384	2_4	2	4	4	4	23_4_4	2	0	1	0	0.446283102036	252.0	-322.0	256.0	-332.0	1
3.0.1	2019_Mar_08_1508	s	s	13	3	SIC	385	ABS	0	0	4	3	24_4_3	NA	NA	0	1	2.90821504593	None	None	None	None	1
3.0.1	2019_Mar_08_1508	s	s	13	3	SIC	386	3_1	3	1	4	2	23_4_2	-1	1	1	0	0.427540063858	-428.0	-56.0	-428.0	-53.0	1
3.0.1	2019_Mar_08_1508	s	s	13	3	SIC	387	ABS	0	0	2	3	24_2_3	NA	NA	0	1	2.42891907692	None	None	None	None	1
3.0.1	2019_Mar_08_1508	s	s	13	3	SIC	388	ABS	0	0	1	1	24_1_1	NA	NA	0	1	1.30485296249	None	None	None	None	1
3.0.1	2019_Mar_08_1508	s	s	13	3	SIC	389	ABS	0	0	3	1	24_3_1	NA	NA	0	1	1.50150299072	None	None	None	None	1
3.0.1	2019_Mar_08_1508	s	s	13	3	SIC	390	ABS	0	0	3	1	24_3_1	NA	NA	0	1	1.24605798721	None	None	None	None	1
3.0.1	2019_Mar_08_1508	s	s	13	3	SIC	391	1_1	1	1	1	3	23_1_3	0	2	1	0	3.60357308388	-100.0	212.0	-99.0	213.0	1
3.0.1	2019_Mar_08_1508	s	s	13	3	SIC	392	ABS	0	0	1	2	24_1_2	NA	NA	0	1	3.77898597717	None	None	None	None	1
3.0.1	2019_Mar_08_1508	s	s	13	3	SIC	393	ABS	0	0	4	1	24_4_1	NA	NA	0	1	1.48422288895	None	None	None	None	1
3.0.1	2019_Mar_08_1508	s	s	13	3	SIC	394	ABS	0	0	2	4	24_2_4	NA	NA	0	1	1.51654815674	None	None	None	None	1
3.0.1	2019_Mar_08_1508	s	s	13	3	SIC	395	3_1	3	1	2	1	23_2_1	1	0	1	0	0.966650009155	107.0	-359.0	109.0	-361.0	1
3.0.1	2019_Mar_08_1508	s	s	13	3	SIC	396	ABS	0	0	3	1	24_3_1	NA	NA	0	1	1.49294090271	None	None	None	None	1
3.0.1	2019_Mar_08_1508	s	s	13	3	SIC	397	1_2	1	2	2	4	23_2_4	1	2	1	0	0.738411903381	55.0	184.0	58.0	182.0	1
3.0.1	2019_Mar_08_1508	s	s	13	3	SIC	398	ABS	0	0	2	1	24_2_1	NA	NA	0	1	1.93993282318	None	None	None	None	1
3.0.1	2019_Mar_08_1508	s	s	13	3	SIC	399	ABS	0	0	2	1	24_2_1	NA	NA	0	1	2.36746501923	None	None	None	None	1
3.0.1	2019_Mar_08_1508	s	s	13	3	SIC	400	2_1	2	1	1	4	23_1_4	-1	3	1	0	0.795372009277	363.0	-303.0	360.0	-303.0	1
3.0.1	2019_Mar_08_1508	s	s	13	3	SIC	401	ABS	0	0	3	4	24_3_4	NA	NA	0	1	1.1336979866	None	None	None	None	1
3.0.1	2019_Mar_08_1508	s	s	13	3	SIC	402	4_4	4	4	4	1	23_4_1	0	3	1	0	1.2606511116	-492.0	-345.0	-495.0	-353.0	1
3.0.1	2019_Mar_08_1508	s	s	13	3	SIC	403	ABS	0	0	2	2	24_2_2	NA	NA	0	1	4.08852505684	None	None	None	None	1
3.0.1	2019_Mar_08_1508	s	s	13	3	SIC	404	1_1	1	1	3	4	23_3_4	2	3	1	0	0.651416063309	306.0	152.0	302.0	161.0	1
3.0.1	2019_Mar_08_1508	s	s	13	3	SIC	405	ABS	0	0	4	3	24_4_3	NA	NA	0	1	3.87158203125	None	None	None	None	1
3.0.1	2019_Mar_08_1508	s	s	13	3	SIC	406	2_3	2	3	3	3	23_3_3	1	0	1	0	0.912972211838	-492.0	-145.0	-488.0	-145.0	1
3.0.1	2019_Mar_08_1508	s	s	13	3	SIC	407	4_4	4	4	2	4	23_2_4	2	0	1	0	0.613810062408	40.0	-278.0	44.0	-279.0	1
3.0.1	2019_Mar_08_1508	s	s	13	3	SIC	408	4_4	4	4	3	2	23_3_2	1	2	1	0	0.497910022736	91.0	-339.0	86.0	-339.0	1
3.0.1	2019_Mar_08_1508	s	s	13	3	SIC	409	ABS	0	0	3	3	24_3_3	NA	NA	0	1	1.41066384315	None	None	None	None	1
3.0.1	2019_Mar_08_1508	s	s	13	3	SIC	410	ABS	0	0	1	4	24_1_4	NA	NA	0	1	1.12088799477	None	None	None	None	1
3.0.1	2019_Mar_08_1508	s	s	13	3	SIC	411	2_4	2	4	2	2	23_2_2	0	2	1	0	0.893180847168	-441.0	-121.0	-434.0	-120.0	1
3.0.1	2019_Mar_08_1508	s	s	13	3	SIC	412	ABS	0	0	2	1	24_2_1	NA	NA	0	1	2.61424303055	None	None	None	None	1
3.0.1	2019_Mar_08_1508	s	s	13	3	SIC	413	ABS	0	0	4	2	24_4_2	NA	NA	0	1	4.66077399254	None	None	None	None	1
3.0.1	2019_Mar_08_1508	s	s	13	3	SIC	414	ABS	0	0	1	2	24_1_2	NA	NA	0	1	4.42152714729	None	None	None	None	1
3.0.1	2019_Mar_08_1508	s	s	13	3	SIC	415	ABS	0	0	1	4	24_1_4	NA	NA	0	1	2.78685307503	None	None	None	None	1
3.0.1	2019_Mar_08_1508	s	s	13	3	SIC	416	1_2	1	2	4	3	23_4_3	3	1	1	0	0.666741847992	518.0	390.0	512.0	387.0	1
3.0.1	2019_Mar_08_1508	s	s	13	3	SIC	417	ABS	0	0	2	4	24_2_4	NA	NA	0	1	1.36355495453	None	None	None	None	1
3.0.1	2019_Mar_08_1508	s	s	13	3	SIC	418	ABS	0	0	2	4	24_2_4	NA	NA	0	1	1.43707489967	None	None	None	None	1
3.0.1	2019_Mar_08_1508	s	s	13	3	SIC	419	4_4	4	4	1	3	23_1_3	3	1	1	0	0.473639965057	19.0	-183.0	21.0	-184.0	1
3.0.1	2019_Mar_08_1508	s	s	13	3	SIC	420	3_4	3	4	1	1	23_1_1	2	3	1	0	0.547127008438	127.0	92.0	125.0	90.0	1
3.0.1	2019_Mar_08_1508	s	s	13	3	SIC	421	ABS	0	0	1	2	24_1_2	NA	NA	0	1	1.40230703354	None	None	None	None	1
3.0.1	2019_Mar_08_1508	s	s	13	3	SIC	422	ABS	0	0	2	2	24_2_2	NA	NA	0	1	4.08891010284	None	None	None	None	1
3.0.1	2019_Mar_08_1508	s	s	13	3	SIC	423	ABS	0	0	4	3	24_4_3	NA	NA	0	1	3.73048591614	None	None	None	None	1
3.0.1	2019_Mar_08_1508	s	s	13	3	SIC	424	4_1	4	1	1	3	23_1_3	3	2	1	0	0.481482982635	329.0	-55.0	332.0	-57.0	1
3.0.1	2019_Mar_08_1508	s	s	13	3	SIC	425	3_3	3	3	3	2	23_3_2	0	1	0	1	2.85767698288	-430.0	192.0	None	None	0
3.0.1	2019_Mar_08_1508	s	s	13	3	SIC	426	1_2	1	2	4	1	23_4_1	3	-1	1	0	0.62957406044	-73.0	33.0	-71.0	25.0	1
3.0.1	2019_Mar_08_1508	s	s	13	3	SIC	427	ABS	0	0	2	2	24_2_2	NA	NA	0	1	3.24832391739	None	None	None	None	1
3.0.1	2019_Mar_08_1508	s	s	13	3	SIC	428	2_3	2	3	2	4	23_2_4	0	-1	1	0	0.827485084534	-372.0	-232.0	-372.0	-239.0	1
3.0.1	2019_Mar_08_1508	s	s	13	3	SIC	429	2_3	2	3	1	4	23_1_4	-1	-1	1	0	0.73642206192	-360.0	-12.0	-355.0	-11.0	1
3.0.1	2019_Mar_08_1508	s	s	13	3	SIC	430	ABS	0	0	1	1	24_1_1	NA	NA	0	1	2.23396515846	None	None	None	None	1
3.0.1	2019_Mar_08_1508	s	s	13	3	SIC	431	1_4	1	4	2	1	23_2_1	1	3	1	0	0.622719049454	-122.0	-192.0	-124.0	-196.0	1
3.0.1	2019_Mar_08_1508	s	s	13	3	SIC	432	2_3	2	3	3	2	23_3_2	1	1	1	0	0.660830020905	272.0	138.0	269.0	144.0	1
3.0.1	2019_Mar_08_1508	s	s	13	3	SIC	433	ABS	0	0	4	1	24_4_1	NA	NA	0	1	1.69655299187	None	None	None	None	1
3.0.1	2019_Mar_08_1508	s	s	13	3	SIC	434	3_2	3	2	3	3	23_3_3	0	1	0	1	3.57100987434	-100.0	154.0	None	None	0
3.0.1	2019_Mar_08_1508	s	s	13	3	SIC	435	4_4	4	4	2	3	23_2_3	2	1	1	0	0.469779968262	-63.0	318.0	-64.0	318.0	1
3.0.1	2019_Mar_08_1508	s	s	13	3	SIC	436	ABS	0	0	2	4	24_2_4	NA	NA	0	1	2.44852685928	None	None	None	None	1
3.0.1	2019_Mar_08_1508	s	s	13	3	SIC	437	ABS	0	0	2	3	24_2_3	NA	NA	0	1	2.85741519928	None	None	None	None	1
3.0.1	2019_Mar_08_1508	s	s	13	3	SIC	438	3_4	3	4	2	2	23_2_2	1	2	1	0	0.622671127319	494.0	-174.0	490.0	-173.0	1
3.0.1	2019_Mar_08_1508	s	s	13	3	SIC	439	3_1	3	1	3	2	23_3_2	0	1	0	1	2.95139098167	476.0	7.0	None	None	0
3.0.1	2019_Mar_08_1508	s	s	13	3	SIC	440	2_3	2	3	1	1	23_1_1	-1	2	1	0	1.20194411278	225.0	156.0	223.0	158.0	1
3.0.1	2019_Mar_08_1508	s	s	13	3	SIC	441	3_2	3	2	2	1	23_2_1	1	-1	1	0	0.528947114944	-199.0	39.0	-197.0	38.0	1
3.0.1	2019_Mar_08_1508	s	s	13	3	SIC	442	2_4	2	4	2	3	23_2_3	0	1	1	0	0.731815099716	-28.0	405.0	-29.0	405.0	1
3.0.1	2019_Mar_08_1508	s	s	13	3	SIC	443	1_2	1	2	3	3	23_3_3	2	1	1	0	0.613850831985	431.0	-247.0	432.0	-256.0	1
3.0.1	2019_Mar_08_1508	s	s	13	3	SIC	444	2_2	2	2	3	3	23_3_3	1	1	1	0	0.677718877792	451.0	56.0	460.0	56.0	1
3.0.1	2019_Mar_08_1508	s	s	13	3	SIC	445	ABS	0	0	4	4	24_4_4	NA	NA	0	1	2.1162788868	None	None	None	None	1
3.0.1	2019_Mar_08_1508	s	s	13	3	SIC	446	ABS	0	0	1	2	24_1_2	NA	NA	0	1	4.29214406013	None	None	None	None	1
3.0.1	2019_Mar_08_1508	s	s	13	3	SIC	447	ABS	0	0	4	2	24_4_2	NA	NA	0	1	2.68090510368	None	None	None	None	1
3.0.1	2019_Mar_08_1508	s	s	13	3	SIC	448	ABS	0	0	1	4	24_1_4	NA	NA	0	1	1.38345479965	None	None	None	None	1
3.0.1	2019_Mar_08_1508	s	s	13	3	SIC	449	ABS	0	0	3	1	24_3_1	NA	NA	0	1	1.41067409515	None	None	None	None	1
3.0.1	2019_Mar_08_1508	s	s	13	3	SIC	450	ABS	0	0	1	4	24_1_4	NA	NA	0	1	1.28578686714	None	None	None	None	1
3.0.1	2019_Mar_08_1508	s	s	13	3	SIC	451	ABS	0	0	4	2	24_4_2	NA	NA	0	1	2.85729718208	None	None	None	None	1
3.0.1	2019_Mar_08_1508	s	s	13	3	SIC	452	ABS	0	0	2	2	24_2_2	NA	NA	0	1	2.77498698235	None	None	None	None	1
3.0.1	2019_Mar_08_1508	s	s	13	3	SIC	453	3_3	3	3	1	2	23_1_2	2	1	1	0	0.696984052658	-446.0	22.0	-445.0	24.0	1
3.0.1	2019_Mar_08_1508	s	s	13	3	SIC	454	1_1	1	1	2	3	23_2_3	1	2	1	0	1.19468688965	-510.0	-95.0	-518.0	-94.0	1
3.0.1	2019_Mar_08_1508	s	s	13	3	SIC	455	4_2	4	2	1	3	23_1_3	3	1	1	0	0.505043029785	138.0	350.0	136.0	354.0	1
3.0.1	2019_Mar_08_1508	s	s	13	3	SIC	456	4_2	4	2	4	3	23_4_3	0	1	1	0	4.16784405708	114.0	-322.0	112.0	-323.0	1
3.0.1	2019_Mar_08_1508	s	s	13	3	SIC	457	ABS	0	0	4	2	24_4_2	NA	NA	0	1	3.70405817032	None	None	None	None	1
3.0.1	2019_Mar_08_1508	s	s	13	3	SIC	458	2_2	2	2	3	2	23_3_2	1	0	1	0	0.664638996124	191.0	-24.0	193.0	-25.0	1
3.0.1	2019_Mar_08_1508	s	s	13	3	SIC	459	3_3	3	3	3	4	23_3_4	0	-1	1	0	0.587403059006	8.0	-166.0	1.0	-165.0	1
3.0.1	2019_Mar_08_1508	s	s	13	3	SIC	460	ABS	0	0	1	3	24_1_3	NA	NA	0	1	3.57963180542	None	None	None	None	1
3.0.1	2019_Mar_08_1508	s	s	13	3	SIC	461	4_2	4	2	2	3	23_2_3	2	1	1	0	0.481664180756	148.0	88.0	155.0	88.0	1
3.0.1	2019_Mar_08_1508	s	s	13	3	SIC	462	1_3	1	3	4	3	23_4_3	3	0	1	0	0.464612007141	302.0	-241.0	299.0	-241.0	1
3.0.1	2019_Mar_08_1508	s	s	13	3	SIC	463	3_3	3	3	4	4	23_4_4	-1	-1	1	0	0.481575965881	-361.0	223.0	-366.0	226.0	1
3.0.1	2019_Mar_08_1508	s	s	13	3	SIC	464	1_2	1	2	2	3	23_2_3	1	1	1	0	1.08148193359	5.0	179.0	0.0	181.0	1
3.0.1	2019_Mar_08_1508	s	s	13	3	SIC	465	3_1	3	1	1	2	23_1_2	2	1	1	0	0.693377971649	384.0	-386.0	381.0	-386.0	1
3.0.1	2019_Mar_08_1508	s	s	13	3	SIC	466	4_1	4	1	3	2	23_3_2	1	1	1	0	0.540364027023	-86.0	192.0	-82.0	189.0	1
3.0.1	2019_Mar_08_1508	s	s	13	3	SIC	467	4_2	4	2	3	3	23_3_3	1	1	1	0	0.38352894783	-300.0	30.0	-305.0	26.0	1
3.0.1	2019_Mar_08_1508	s	s	13	3	SIC	468	2_1	2	1	1	1	23_1_1	-1	0	1	0	7.02359700203	-532.0	233.0	-536.0	231.0	1
3.0.1	2019_Mar_08_1508	s	s	13	3	SIC	469	ABS	0	0	1	1	24_1_1	NA	NA	0	1	1.96733498573	None	None	None	None	1
3.0.1	2019_Mar_08_1508	s	s	13	3	SIC	470	ABS	0	0	4	3	24_4_3	NA	NA	0	1	3.92758393288	None	None	None	None	1
3.0.1	2019_Mar_08_1508	s	s	13	3	SIC	471	ABS	0	0	4	4	24_4_4	NA	NA	0	1	1.72829794884	None	None	None	None	1
3.0.1	2019_Mar_08_1508	s	s	13	3	SIC	472	4_1	4	1	2	4	23_2_4	2	3	1	0	0.484418869019	473.0	-296.0	475.0	-289.0	1
3.0.1	2019_Mar_08_1508	s	s	13	3	SIC	473	ABS	0	0	4	4	24_4_4	NA	NA	0	1	1.0842359066	None	None	None	None	1
3.0.1	2019_Mar_08_1508	s	s	13	3	SIC	474	1_3	1	3	2	3	23_2_3	1	0	0	1	3.5187702179	436.0	211.0	None	None	0
3.0.1	2019_Mar_08_1508	s	s	13	3	SIC	475	ABS	0	0	2	3	24_2_3	NA	NA	0	1	3.54582595825	None	None	None	None	1
3.0.1	2019_Mar_08_1508	s	s	13	3	SIC	476	ABS	0	0	3	1	24_3_1	NA	NA	0	1	1.65003609657	None	None	None	None	1
3.0.1	2019_Mar_08_1508	s	s	13	3	SIC	477	ABS	0	0	4	2	24_4_2	NA	NA	0	1	3.3689789772	None	None	None	None	1
3.0.1	2019_Mar_08_1508	s	s	13	3	SIC	478	2_4	2	4	3	1	23_3_1	1	3	1	0	0.737534046173	-494.0	-39.0	-498.0	-41.0	1
3.0.1	2019_Mar_08_1508	s	s	13	3	SIC	479	3_4	3	4	3	3	23_3_3	0	1	1	0	0.60431098938	-375.0	-46.0	-380.0	-53.0	1
3.0.1	2019_Mar_08_1508	s	s	13	3	SIC	480	ABS	0	0	4	4	24_4_4	NA	NA	0	1	1.79393601418	None	None	None	None	1
