Version	Date	Stimuli	Method	Subject	Session	Condition	Trial	Target	TColor	TShape	DColor	DShape	Distractors	Channel1	Channel2	LMouseButton	RMouseButton	RT	TargetX	TargetY	ResponseX	ResponseY	Correct
3.0.1	2019_Mar_09_1201	s	s	14	4	Capacity	1	3_1	3	1	2	1	23_2_1	1	0	1	0	0.775820970535	397.0	266.0	402.0	259.0	1
3.0.1	2019_Mar_09_1201	s	s	14	4	Capacity	2	4_1	4	1	2	1	23_2_1	2	0	1	0	0.437375068665	34.0	125.0	46.0	131.0	1
3.0.1	2019_Mar_09_1201	s	s	14	4	Capacity	3	1_1	1	1	3	1	23_3_1	2	0	1	0	0.6461789608	167.0	353.0	170.0	358.0	1
3.0.1	2019_Mar_09_1201	s	s	14	4	Capacity	4	2_1	2	1	4	1	23_4_1	2	0	1	0	0.422715902328	-500.0	56.0	-501.0	40.0	1
3.0.1	2019_Mar_09_1201	s	s	14	4	Capacity	5	1_1	1	1	2	1	23_2_1	1	0	0	1	0.709821939468	-476.0	-36.0	None	None	0
3.0.1	2019_Mar_09_1201	s	s	14	4	Capacity	6	ABS	0	0	3	1	24_3_1	NA	NA	0	1	1.18722200394	None	None	None	None	1
3.0.1	2019_Mar_09_1201	s	s	14	4	Capacity	7	ABS	0	0	2	1	24_2_1	NA	NA	0	1	0.561327934265	None	None	None	None	1
3.0.1	2019_Mar_09_1201	s	s	14	4	Capacity	8	ABS	0	0	4	1	24_4_1	NA	NA	1	0	1.36379003525	None	None	-199.0	134.0	0
3.0.1	2019_Mar_09_1201	s	s	14	4	Capacity	9	1_1	1	1	4	1	23_4_1	3	0	1	0	0.422738075256	523.0	-249.0	516.0	-243.0	1
3.0.1	2019_Mar_09_1201	s	s	14	4	Capacity	10	ABS	0	0	3	1	24_3_1	NA	NA	0	1	0.704964876175	None	None	None	None	1
3.0.1	2019_Mar_09_1201	s	s	14	4	Capacity	11	ABS	0	0	1	1	24_1_1	NA	NA	0	1	1.12154984474	None	None	None	None	1
3.0.1	2019_Mar_09_1201	s	s	14	4	Capacity	12	3_1	3	1	4	1	23_4_1	-1	0	1	0	0.496106863022	150.0	-246.0	158.0	-250.0	1
3.0.1	2019_Mar_09_1201	s	s	14	4	Capacity	13	ABS	0	0	4	1	24_4_1	NA	NA	0	1	0.966625928879	None	None	None	None	1
3.0.1	2019_Mar_09_1201	s	s	14	4	Capacity	14	4_1	4	1	1	1	23_1_1	3	0	1	0	0.425653219223	-521.0	-207.0	-515.0	-205.0	1
3.0.1	2019_Mar_09_1201	s	s	14	4	Capacity	15	2_1	2	1	3	1	23_3_1	1	0	1	0	0.97203707695	377.0	-62.0	375.0	-60.0	1
3.0.1	2019_Mar_09_1201	s	s	14	4	Capacity	16	2_1	2	1	1	1	23_1_1	-1	0	0	1	0.83441400528	273.0	-336.0	None	None	0
3.0.1	2019_Mar_09_1201	s	s	14	4	Capacity	17	3_1	3	1	1	1	23_1_1	2	0	1	0	0.442258119583	-212.0	-6.0	-207.0	-5.0	1
3.0.1	2019_Mar_09_1201	s	s	14	4	Capacity	18	ABS	0	0	1	1	24_1_1	NA	NA	0	1	0.933407068253	None	None	None	None	1
3.0.1	2019_Mar_09_1201	s	s	14	4	Capacity	19	ABS	0	0	2	1	24_2_1	NA	NA	0	1	1.43710589409	None	None	None	None	1
3.0.1	2019_Mar_09_1201	s	s	14	4	Capacity	20	ABS	0	0	4	1	24_4_1	NA	NA	0	1	0.837259054184	None	None	None	None	1
3.0.1	2019_Mar_09_1201	s	s	14	4	Capacity	21	4_1	4	1	3	1	23_3_1	1	0	1	0	0.481600999832	354.0	38.0	358.0	36.0	1
3.0.1	2019_Mar_09_1201	s	s	14	4	Capacity	22	ABS	0	0	1	1	24_1_1	NA	NA	0	1	1.08142185211	None	None	None	None	1
3.0.1	2019_Mar_09_1201	s	s	14	4	Capacity	23	ABS	0	0	3	1	24_3_1	NA	NA	0	1	1.62239980698	None	None	None	None	1
3.0.1	2019_Mar_09_1201	s	s	14	4	Capacity	24	ABS	0	0	2	1	24_2_1	NA	NA	0	1	1.82229399681	None	None	None	None	1
3.0.1	2019_Mar_09_1201	s	s	14	4	Capacity	25	ABS	0	0	1	1	24_1_1	NA	NA	0	1	1.88122200966	None	None	None	None	1
3.0.1	2019_Mar_09_1201	s	s	14	4	Capacity	26	ABS	0	0	4	1	24_4_1	NA	NA	0	1	1.08422899246	None	None	None	None	1
3.0.1	2019_Mar_09_1201	s	s	14	4	Capacity	27	ABS	0	0	1	1	24_1_1	NA	NA	0	1	1.49693393707	None	None	None	None	1
3.0.1	2019_Mar_09_1201	s	s	14	4	Capacity	28	4_1	4	1	1	1	23_1_1	3	0	1	0	0.438416004181	28.0	-168.0	36.0	-166.0	1
3.0.1	2019_Mar_09_1201	s	s	14	4	Capacity	29	3_1	3	1	4	1	23_4_1	-1	0	1	0	0.402909040451	129.0	-131.0	133.0	-125.0	1
3.0.1	2019_Mar_09_1201	s	s	14	4	Capacity	30	ABS	0	0	1	1	24_1_1	NA	NA	0	1	1.437073946	None	None	None	None	1
3.0.1	2019_Mar_09_1201	s	s	14	4	Capacity	31	ABS	0	0	2	1	24_2_1	NA	NA	0	1	1.50992894173	None	None	None	None	1
3.0.1	2019_Mar_09_1201	s	s	14	4	Capacity	32	ABS	0	0	2	1	24_2_1	NA	NA	0	1	1.85759711266	None	None	None	None	1
3.0.1	2019_Mar_09_1201	s	s	14	4	Capacity	33	ABS	0	0	4	1	24_4_1	NA	NA	1	0	0.940189123154	None	None	-145.0	38.0	0
3.0.1	2019_Mar_09_1201	s	s	14	4	Capacity	34	ABS	0	0	2	1	24_2_1	NA	NA	0	1	2.39207601547	None	None	None	None	1
3.0.1	2019_Mar_09_1201	s	s	14	4	Capacity	35	ABS	0	0	3	1	24_3_1	NA	NA	0	1	1.39092493057	None	None	None	None	1
3.0.1	2019_Mar_09_1201	s	s	14	4	Capacity	36	2_1	2	1	1	1	23_1_1	-1	0	0	1	2.63374996185	1.0	-122.0	None	None	0
3.0.1	2019_Mar_09_1201	s	s	14	4	Capacity	37	4_1	4	1	3	1	23_3_1	1	0	1	0	0.404069900513	-474.0	263.0	-474.0	268.0	1
3.0.1	2019_Mar_09_1201	s	s	14	4	Capacity	38	ABS	0	0	4	1	24_4_1	NA	NA	0	1	2.81020903587	None	None	None	None	1
3.0.1	2019_Mar_09_1201	s	s	14	4	Capacity	39	3_1	3	1	2	1	23_2_1	1	0	1	0	0.446516036987	85.0	-91.0	83.0	-102.0	1
3.0.1	2019_Mar_09_1201	s	s	14	4	Capacity	40	2_1	2	1	3	1	23_3_1	1	0	1	0	0.907837867737	353.0	145.0	362.0	147.0	1
3.0.1	2019_Mar_09_1201	s	s	14	4	Capacity	41	1_1	1	1	2	1	23_2_1	1	0	0	1	1.5702419281	476.0	-287.0	None	None	0
3.0.1	2019_Mar_09_1201	s	s	14	4	Capacity	42	3_1	3	1	1	1	23_1_1	2	0	1	0	0.469758033752	49.0	151.0	57.0	150.0	1
3.0.1	2019_Mar_09_1201	s	s	14	4	Capacity	43	1_1	1	1	3	1	23_3_1	2	0	1	0	0.474876880646	80.0	165.0	88.0	159.0	1
3.0.1	2019_Mar_09_1201	s	s	14	4	Capacity	44	4_1	4	1	2	1	23_2_1	2	0	1	0	0.375665903091	462.0	-166.0	458.0	-167.0	1
3.0.1	2019_Mar_09_1201	s	s	14	4	Capacity	45	ABS	0	0	3	1	24_3_1	NA	NA	1	0	0.540379047394	None	None	-43.0	5.0	0
3.0.1	2019_Mar_09_1201	s	s	14	4	Capacity	46	1_1	1	1	4	1	23_4_1	3	0	1	0	0.427655935287	199.0	377.0	200.0	382.0	1
3.0.1	2019_Mar_09_1201	s	s	14	4	Capacity	47	ABS	0	0	3	1	24_3_1	NA	NA	0	1	1.65187907219	None	None	None	None	1
3.0.1	2019_Mar_09_1201	s	s	14	4	Capacity	48	2_1	2	1	4	1	23_4_1	2	0	1	0	0.574417829514	-397.0	-29.0	-399.0	-39.0	1
3.0.1	2019_Mar_09_1201	s	s	14	4	Capacity	49	ABS	0	0	3	1	24_3_1	NA	NA	0	1	0.795283079147	None	None	None	None	1
3.0.1	2019_Mar_09_1201	s	s	14	4	Capacity	50	1_1	1	1	3	1	23_3_1	2	0	1	0	0.450523138046	-276.0	-112.0	-279.0	-110.0	1
3.0.1	2019_Mar_09_1201	s	s	14	4	Capacity	51	ABS	0	0	2	1	24_2_1	NA	NA	0	1	1.25788497925	None	None	None	None	1
3.0.1	2019_Mar_09_1201	s	s	14	4	Capacity	52	2_1	2	1	4	1	23_4_1	2	0	1	0	0.457967996597	-185.0	-222.0	-180.0	-213.0	1
3.0.1	2019_Mar_09_1201	s	s	14	4	Capacity	53	ABS	0	0	4	1	24_4_1	NA	NA	0	1	0.999023914337	None	None	None	None	1
3.0.1	2019_Mar_09_1201	s	s	14	4	Capacity	54	ABS	0	0	1	1	24_1_1	NA	NA	0	1	0.922684907913	None	None	None	None	1
3.0.1	2019_Mar_09_1201	s	s	14	4	Capacity	55	ABS	0	0	1	1	24_1_1	NA	NA	1	0	5.45647311211	None	None	-40.0	408.0	0
3.0.1	2019_Mar_09_1201	s	s	14	4	Capacity	56	ABS	0	0	4	1	24_4_1	NA	NA	0	1	3.28550601006	None	None	None	None	1
3.0.1	2019_Mar_09_1201	s	s	14	4	Capacity	57	3_1	3	1	1	1	23_1_1	2	0	1	0	0.516849040985	360.0	279.0	365.0	277.0	1
3.0.1	2019_Mar_09_1201	s	s	14	4	Capacity	58	3_1	3	1	2	1	23_2_1	1	0	1	0	0.634383916855	-142.0	-33.0	-136.0	-33.0	1
3.0.1	2019_Mar_09_1201	s	s	14	4	Capacity	59	ABS	0	0	3	1	24_3_1	NA	NA	0	1	1.33434700966	None	None	None	None	1
3.0.1	2019_Mar_09_1201	s	s	14	4	Capacity	60	3_1	3	1	4	1	23_4_1	-1	0	1	0	0.393437862396	-326.0	406.0	-329.0	402.0	1
3.0.1	2019_Mar_09_1201	s	s	14	4	Capacity	61	ABS	0	0	2	1	24_2_1	NA	NA	0	1	1.61882209778	None	None	None	None	1
3.0.1	2019_Mar_09_1201	s	s	14	4	Capacity	62	1_1	1	1	4	1	23_4_1	3	0	1	0	0.399206161499	472.0	319.0	477.0	322.0	1
3.0.1	2019_Mar_09_1201	s	s	14	4	Capacity	63	2_1	2	1	3	1	23_3_1	1	0	1	0	0.505036830902	-362.0	1.0	-360.0	3.0	1
3.0.1	2019_Mar_09_1201	s	s	14	4	Capacity	64	ABS	0	0	4	1	24_4_1	NA	NA	0	1	1.14011693001	None	None	None	None	1
3.0.1	2019_Mar_09_1201	s	s	14	4	Capacity	65	1_1	1	1	2	1	23_2_1	1	0	1	0	0.417500972748	231.0	-31.0	-28.0	-7.0	0
3.0.1	2019_Mar_09_1201	s	s	14	4	Capacity	66	ABS	0	0	2	1	24_2_1	NA	NA	0	1	2.26649093628	None	None	None	None	1
3.0.1	2019_Mar_09_1201	s	s	14	4	Capacity	67	2_1	2	1	1	1	23_1_1	-1	0	0	1	2.92094302177	166.0	277.0	None	None	0
3.0.1	2019_Mar_09_1201	s	s	14	4	Capacity	68	4_1	4	1	1	1	23_1_1	3	0	1	0	0.437409877777	-239.0	-337.0	-240.0	-334.0	1
3.0.1	2019_Mar_09_1201	s	s	14	4	Capacity	69	4_1	4	1	2	1	23_2_1	2	0	1	0	0.383191823959	-49.0	-105.0	-48.0	-97.0	1
3.0.1	2019_Mar_09_1201	s	s	14	4	Capacity	70	4_1	4	1	3	1	23_3_1	1	0	1	0	0.426576137543	359.0	54.0	371.0	55.0	1
3.0.1	2019_Mar_09_1201	s	s	14	4	Capacity	71	ABS	0	0	1	1	24_1_1	NA	NA	0	1	1.78991699219	None	None	None	None	1
3.0.1	2019_Mar_09_1201	s	s	14	4	Capacity	72	ABS	0	0	3	1	24_3_1	NA	NA	0	1	2.16339898109	None	None	None	None	1
3.0.1	2019_Mar_09_1201	s	s	14	4	Capacity	73	ABS	0	0	3	1	24_3_1	NA	NA	0	1	1.77566385269	None	None	None	None	1
3.0.1	2019_Mar_09_1201	s	s	14	4	Capacity	74	ABS	0	0	4	1	24_4_1	NA	NA	0	1	2.31620788574	None	None	None	None	1
3.0.1	2019_Mar_09_1201	s	s	14	4	Capacity	75	3_1	3	1	4	1	23_4_1	-1	0	1	0	0.428687810898	-384.0	-156.0	-388.0	-160.0	1
3.0.1	2019_Mar_09_1201	s	s	14	4	Capacity	76	3_1	3	1	2	1	23_2_1	1	0	1	0	1.04030799866	-529.0	279.0	-531.0	274.0	1
3.0.1	2019_Mar_09_1201	s	s	14	4	Capacity	77	2_1	2	1	3	1	23_3_1	1	0	1	0	0.71155500412	-82.0	-223.0	-80.0	-229.0	1
3.0.1	2019_Mar_09_1201	s	s	14	4	Capacity	78	1_1	1	1	3	1	23_3_1	2	0	1	0	0.493272781372	-8.0	-207.0	-5.0	-207.0	1
3.0.1	2019_Mar_09_1201	s	s	14	4	Capacity	79	ABS	0	0	3	1	24_3_1	NA	NA	0	1	1.54004001617	None	None	None	None	1
3.0.1	2019_Mar_09_1201	s	s	14	4	Capacity	80	1_1	1	1	4	1	23_4_1	3	0	1	0	0.441792011261	85.0	359.0	87.0	369.0	1
3.0.1	2019_Mar_09_1201	s	s	14	4	Capacity	81	ABS	0	0	4	1	24_4_1	NA	NA	0	1	1.736784935	None	None	None	None	1
3.0.1	2019_Mar_09_1201	s	s	14	4	Capacity	82	ABS	0	0	2	1	24_2_1	NA	NA	0	1	2.02508187294	None	None	None	None	1
3.0.1	2019_Mar_09_1201	s	s	14	4	Capacity	83	ABS	0	0	3	1	24_3_1	NA	NA	0	1	1.82220196724	None	None	None	None	1
3.0.1	2019_Mar_09_1201	s	s	14	4	Capacity	84	ABS	0	0	1	1	24_1_1	NA	NA	0	1	2.37813305855	None	None	None	None	1
3.0.1	2019_Mar_09_1201	s	s	14	4	Capacity	85	ABS	0	0	1	1	24_1_1	NA	NA	0	1	2.42218613625	None	None	None	None	1
3.0.1	2019_Mar_09_1201	s	s	14	4	Capacity	86	2_1	2	1	1	1	23_1_1	-1	0	0	1	2.09287500381	-444.0	-199.0	None	None	0
3.0.1	2019_Mar_09_1201	s	s	14	4	Capacity	87	ABS	0	0	2	1	24_2_1	NA	NA	0	1	1.6781308651	None	None	None	None	1
3.0.1	2019_Mar_09_1201	s	s	14	4	Capacity	88	4_1	4	1	1	1	23_1_1	3	0	1	0	0.540374040604	441.0	-309.0	443.0	-303.0	1
3.0.1	2019_Mar_09_1201	s	s	14	4	Capacity	89	ABS	0	0	4	1	24_4_1	NA	NA	0	1	2.69264507294	None	None	None	None	1
3.0.1	2019_Mar_09_1201	s	s	14	4	Capacity	90	3_1	3	1	1	1	23_1_1	2	0	1	0	0.543266057968	77.0	170.0	83.0	169.0	1
3.0.1	2019_Mar_09_1201	s	s	14	4	Capacity	91	2_1	2	1	4	1	23_4_1	2	0	1	0	0.387452840805	120.0	2.0	130.0	0.0	1
3.0.1	2019_Mar_09_1201	s	s	14	4	Capacity	92	4_1	4	1	2	1	23_2_1	2	0	1	0	0.40354180336	-539.0	-241.0	-535.0	-244.0	1
3.0.1	2019_Mar_09_1201	s	s	14	4	Capacity	93	ABS	0	0	1	1	24_1_1	NA	NA	0	1	0.907845973969	None	None	None	None	1
3.0.1	2019_Mar_09_1201	s	s	14	4	Capacity	94	ABS	0	0	2	1	24_2_1	NA	NA	0	1	1.68119597435	None	None	None	None	1
3.0.1	2019_Mar_09_1201	s	s	14	4	Capacity	95	1_1	1	1	2	1	23_2_1	1	0	0	1	1.10491800308	-182.0	-290.0	None	None	0
3.0.1	2019_Mar_09_1201	s	s	14	4	Capacity	96	4_1	4	1	3	1	23_3_1	1	0	1	0	0.469852924347	429.0	-3.0	432.0	-3.0	1
3.0.1	2019_Mar_09_1201	s	s	14	4	Capacity	1	1_3	1	3	1	2	23_1_2	0	1	0	1	1.99874591827	-497.0	113.0	None	None	0
3.0.1	2019_Mar_09_1201	s	s	14	4	Capacity	2	1_1	1	1	1	4	23_1_4	0	3	1	0	0.563757181168	-75.0	-205.0	-70.0	-206.0	1
3.0.1	2019_Mar_09_1201	s	s	14	4	Capacity	3	ABS	0	0	1	4	24_1_4	NA	NA	0	1	2.457447052	None	None	None	None	1
3.0.1	2019_Mar_09_1201	s	s	14	4	Capacity	4	1_1	1	1	1	2	23_1_2	0	1	1	0	1.91637992859	-436.0	-387.0	-422.0	-382.0	1
3.0.1	2019_Mar_09_1201	s	s	14	4	Capacity	5	ABS	0	0	1	1	24_1_1	NA	NA	0	1	2.28108096123	None	None	None	None	1
3.0.1	2019_Mar_09_1201	s	s	14	4	Capacity	6	ABS	0	0	1	2	24_1_2	NA	NA	0	1	3.15139293671	None	None	None	None	1
3.0.1	2019_Mar_09_1201	s	s	14	4	Capacity	7	ABS	0	0	1	3	24_1_3	NA	NA	0	1	3.29826402664	None	None	None	None	1
3.0.1	2019_Mar_09_1201	s	s	14	4	Capacity	8	ABS	0	0	1	4	24_1_4	NA	NA	0	1	3.05714201927	None	None	None	None	1
3.0.1	2019_Mar_09_1201	s	s	14	4	Capacity	9	1_3	1	3	1	1	23_1_1	0	2	1	0	0.592285871506	-201.0	138.0	-206.0	131.0	1
3.0.1	2019_Mar_09_1201	s	s	14	4	Capacity	10	1_2	1	2	1	3	23_1_3	0	1	1	0	3.03368616104	11.0	-383.0	17.0	-385.0	1
3.0.1	2019_Mar_09_1201	s	s	14	4	Capacity	11	1_2	1	2	1	4	23_1_4	0	2	1	0	0.575682878494	40.0	146.0	40.0	128.0	1
3.0.1	2019_Mar_09_1201	s	s	14	4	Capacity	12	1_1	1	1	1	3	23_1_3	0	2	1	0	2.12135219574	-52.0	-392.0	-57.0	-396.0	1
3.0.1	2019_Mar_09_1201	s	s	14	4	Capacity	13	1_4	1	4	1	2	23_1_2	0	2	1	0	1.43704891205	-73.0	-135.0	-67.0	-132.0	1
3.0.1	2019_Mar_09_1201	s	s	14	4	Capacity	14	1_2	1	2	1	1	23_1_1	0	-1	0	1	3.08367919922	287.0	13.0	None	None	0
3.0.1	2019_Mar_09_1201	s	s	14	4	Capacity	15	ABS	0	0	1	2	24_1_2	NA	NA	0	1	2.79083514214	None	None	None	None	1
3.0.1	2019_Mar_09_1201	s	s	14	4	Capacity	16	ABS	0	0	1	2	24_1_2	NA	NA	0	1	2.60386300087	None	None	None	None	1
3.0.1	2019_Mar_09_1201	s	s	14	4	Capacity	17	ABS	0	0	1	3	24_1_3	NA	NA	0	1	3.0163898468	None	None	None	None	1
3.0.1	2019_Mar_09_1201	s	s	14	4	Capacity	18	1_4	1	4	1	3	23_1_3	0	1	1	0	2.87442588806	502.0	-37.0	510.0	-34.0	1
3.0.1	2019_Mar_09_1201	s	s	14	4	Capacity	19	1_4	1	4	1	1	23_1_1	0	3	1	0	0.80578994751	285.0	314.0	294.0	312.0	1
3.0.1	2019_Mar_09_1201	s	s	14	4	Capacity	20	ABS	0	0	1	3	24_1_3	NA	NA	0	1	2.07221102715	None	None	None	None	1
3.0.1	2019_Mar_09_1201	s	s	14	4	Capacity	21	ABS	0	0	1	1	24_1_1	NA	NA	0	1	1.96645092964	None	None	None	None	1
3.0.1	2019_Mar_09_1201	s	s	14	4	Capacity	22	ABS	0	0	1	4	24_1_4	NA	NA	0	1	1.7754099369	None	None	None	None	1
3.0.1	2019_Mar_09_1201	s	s	14	4	Capacity	23	ABS	0	0	1	1	24_1_1	NA	NA	0	1	1.86420297623	None	None	None	None	1
3.0.1	2019_Mar_09_1201	s	s	14	4	Capacity	24	1_3	1	3	1	4	23_1_4	0	-1	1	0	0.555958986282	19.0	179.0	16.0	168.0	1
3.0.1	2019_Mar_09_1201	s	s	14	4	Capacity	25	1_3	1	3	1	1	23_1_1	0	2	0	1	1.78990483284	100.0	336.0	None	None	0
3.0.1	2019_Mar_09_1201	s	s	14	4	Capacity	26	ABS	0	0	1	1	24_1_1	NA	NA	0	1	1.57521414757	None	None	None	None	1
3.0.1	2019_Mar_09_1201	s	s	14	4	Capacity	27	ABS	0	0	1	4	24_1_4	NA	NA	0	1	1.21413397789	None	None	None	None	1
3.0.1	2019_Mar_09_1201	s	s	14	4	Capacity	28	1_4	1	4	1	3	23_1_3	0	1	1	0	0.646111965179	286.0	-363.0	289.0	-373.0	1
3.0.1	2019_Mar_09_1201	s	s	14	4	Capacity	29	ABS	0	0	1	2	24_1_2	NA	NA	0	1	2.49265193939	None	None	None	None	1
3.0.1	2019_Mar_09_1201	s	s	14	4	Capacity	30	1_1	1	1	1	3	23_1_3	0	2	1	0	0.874572992325	-436.0	42.0	-443.0	40.0	1
3.0.1	2019_Mar_09_1201	s	s	14	4	Capacity	31	1_1	1	1	1	2	23_1_2	0	1	0	1	2.04053902626	418.0	88.0	None	None	0
3.0.1	2019_Mar_09_1201	s	s	14	4	Capacity	32	1_3	1	3	1	2	23_1_2	0	1	0	1	2.59858798981	186.0	-206.0	None	None	0
3.0.1	2019_Mar_09_1201	s	s	14	4	Capacity	33	ABS	0	0	1	4	24_1_4	NA	NA	0	1	1.84583091736	None	None	None	None	1
3.0.1	2019_Mar_09_1201	s	s	14	4	Capacity	34	ABS	0	0	1	3	24_1_3	NA	NA	0	1	2.64979791641	None	None	None	None	1
3.0.1	2019_Mar_09_1201	s	s	14	4	Capacity	35	1_2	1	2	1	3	23_1_3	0	1	0	1	3.10419392586	-351.0	-225.0	None	None	0
3.0.1	2019_Mar_09_1201	s	s	14	4	Capacity	36	ABS	0	0	1	3	24_1_3	NA	NA	0	1	3.28070783615	None	None	None	None	1
3.0.1	2019_Mar_09_1201	s	s	14	4	Capacity	37	1_4	1	4	1	1	23_1_1	0	3	1	0	0.634417057037	-489.0	339.0	-486.0	338.0	1
3.0.1	2019_Mar_09_1201	s	s	14	4	Capacity	38	ABS	0	0	1	1	24_1_1	NA	NA	0	1	1.68153810501	None	None	None	None	1
3.0.1	2019_Mar_09_1201	s	s	14	4	Capacity	39	1_3	1	3	1	4	23_1_4	0	-1	1	0	0.575742006302	-266.0	174.0	-271.0	178.0	1
3.0.1	2019_Mar_09_1201	s	s	14	4	Capacity	40	ABS	0	0	1	4	24_1_4	NA	NA	0	1	2.18690705299	None	None	None	None	1
3.0.1	2019_Mar_09_1201	s	s	14	4	Capacity	41	ABS	0	0	1	3	24_1_3	NA	NA	0	1	2.24610090256	None	None	None	None	1
3.0.1	2019_Mar_09_1201	s	s	14	4	Capacity	42	1_1	1	1	1	4	23_1_4	0	3	1	0	0.42799115181	-108.0	118.0	-113.0	126.0	1
3.0.1	2019_Mar_09_1201	s	s	14	4	Capacity	43	ABS	0	0	1	2	24_1_2	NA	NA	0	1	2.30454206467	None	None	None	None	1
3.0.1	2019_Mar_09_1201	s	s	14	4	Capacity	44	ABS	0	0	1	1	24_1_1	NA	NA	0	1	1.46955013275	None	None	None	None	1
3.0.1	2019_Mar_09_1201	s	s	14	4	Capacity	45	ABS	0	0	1	2	24_1_2	NA	NA	0	1	2.73179888725	None	None	None	None	1
3.0.1	2019_Mar_09_1201	s	s	14	4	Capacity	46	1_2	1	2	1	4	23_1_4	0	2	1	0	0.849123001099	496.0	58.0	500.0	63.0	1
3.0.1	2019_Mar_09_1201	s	s	14	4	Capacity	47	1_2	1	2	1	1	23_1_1	0	-1	0	1	2.02225899696	108.0	86.0	None	None	0
3.0.1	2019_Mar_09_1201	s	s	14	4	Capacity	48	1_4	1	4	1	2	23_1_2	0	2	1	0	0.575664043427	100.0	-142.0	106.0	-150.0	1
3.0.1	2019_Mar_09_1201	s	s	14	4	Capacity	49	1_2	1	2	1	4	23_1_4	0	2	1	0	0.731435060501	-321.0	-261.0	-316.0	-259.0	1
3.0.1	2019_Mar_09_1201	s	s	14	4	Capacity	50	ABS	0	0	1	1	24_1_1	NA	NA	0	1	1.42245602608	None	None	None	None	1
3.0.1	2019_Mar_09_1201	s	s	14	4	Capacity	51	1_1	1	1	1	2	23_1_2	0	1	0	1	1.54000592232	435.0	342.0	None	None	0
3.0.1	2019_Mar_09_1201	s	s	14	4	Capacity	52	ABS	0	0	1	2	24_1_2	NA	NA	0	1	2.90439486504	None	None	None	None	1
3.0.1	2019_Mar_09_1201	s	s	14	4	Capacity	53	ABS	0	0	1	1	24_1_1	NA	NA	0	1	2.83382701874	None	None	None	None	1
3.0.1	2019_Mar_09_1201	s	s	14	4	Capacity	54	1_4	1	4	1	1	23_1_1	0	3	1	0	0.575603961945	379.0	139.0	378.0	130.0	1
3.0.1	2019_Mar_09_1201	s	s	14	4	Capacity	55	ABS	0	0	1	3	24_1_3	NA	NA	0	1	2.01718211174	None	None	None	None	1
3.0.1	2019_Mar_09_1201	s	s	14	4	Capacity	56	1_1	1	1	1	3	23_1_3	0	2	1	0	1.63899612427	135.0	-141.0	142.0	-138.0	1
3.0.1	2019_Mar_09_1201	s	s	14	4	Capacity	57	ABS	0	0	1	3	24_1_3	NA	NA	0	1	2.33315396309	None	None	None	None	1
3.0.1	2019_Mar_09_1201	s	s	14	4	Capacity	58	1_3	1	3	1	2	23_1_2	0	1	0	1	4.32613587379	175.0	257.0	None	None	0
3.0.1	2019_Mar_09_1201	s	s	14	4	Capacity	59	1_2	1	2	1	3	23_1_3	0	1	0	1	2.49602603912	-254.0	-308.0	None	None	0
3.0.1	2019_Mar_09_1201	s	s	14	4	Capacity	60	ABS	0	0	1	2	24_1_2	NA	NA	0	1	3.29243588448	None	None	None	None	1
3.0.1	2019_Mar_09_1201	s	s	14	4	Capacity	61	ABS	0	0	1	4	24_1_4	NA	NA	0	1	3.86266613007	None	None	None	None	1
3.0.1	2019_Mar_09_1201	s	s	14	4	Capacity	62	ABS	0	0	1	4	24_1_4	NA	NA	0	1	2.78968214989	None	None	None	None	1
3.0.1	2019_Mar_09_1201	s	s	14	4	Capacity	63	1_4	1	4	1	3	23_1_3	0	1	1	0	0.834411144257	-16.0	-315.0	-16.0	-317.0	1
3.0.1	2019_Mar_09_1201	s	s	14	4	Capacity	64	ABS	0	0	1	4	24_1_4	NA	NA	0	1	3.01022291183	None	None	None	None	1
3.0.1	2019_Mar_09_1201	s	s	14	4	Capacity	65	1_3	1	3	1	4	23_1_4	0	-1	1	0	1.20807218552	265.0	-94.0	271.0	-96.0	1
3.0.1	2019_Mar_09_1201	s	s	14	4	Capacity	66	ABS	0	0	1	3	24_1_3	NA	NA	0	1	3.07289195061	None	None	None	None	1
3.0.1	2019_Mar_09_1201	s	s	14	4	Capacity	67	1_2	1	2	1	1	23_1_1	0	-1	0	1	2.17502903938	200.0	-52.0	None	None	0
3.0.1	2019_Mar_09_1201	s	s	14	4	Capacity	68	1_4	1	4	1	2	23_1_2	0	2	1	0	0.516826868057	254.0	308.0	254.0	302.0	1
3.0.1	2019_Mar_09_1201	s	s	14	4	Capacity	69	1_1	1	1	1	4	23_1_4	0	3	1	0	0.439419031143	129.0	92.0	122.0	85.0	1
3.0.1	2019_Mar_09_1201	s	s	14	4	Capacity	70	ABS	0	0	1	1	24_1_1	NA	NA	0	1	1.19235682487	None	None	None	None	1
3.0.1	2019_Mar_09_1201	s	s	14	4	Capacity	71	ABS	0	0	1	2	24_1_2	NA	NA	0	1	1.79880285263	None	None	None	None	1
3.0.1	2019_Mar_09_1201	s	s	14	4	Capacity	72	1_3	1	3	1	1	23_1_1	0	2	1	0	0.881383180618	-146.0	-44.0	-134.0	-43.0	1
3.0.1	2019_Mar_09_1201	s	s	14	4	Capacity	73	1_2	1	2	1	3	23_1_3	0	1	0	1	1.39892101288	-318.0	189.0	None	None	0
3.0.1	2019_Mar_09_1201	s	s	14	4	Capacity	74	1_1	1	1	1	4	23_1_4	0	3	1	0	0.73305606842	357.0	332.0	361.0	334.0	1
3.0.1	2019_Mar_09_1201	s	s	14	4	Capacity	75	1_1	1	1	1	2	23_1_2	0	1	1	0	1.95821094513	263.0	-193.0	268.0	-196.0	1
3.0.1	2019_Mar_09_1201	s	s	14	4	Capacity	76	1_2	1	2	1	4	23_1_4	0	2	1	0	0.563847064972	-500.0	-82.0	-498.0	-89.0	1
3.0.1	2019_Mar_09_1201	s	s	14	4	Capacity	77	ABS	0	0	1	1	24_1_1	NA	NA	0	1	1.30483388901	None	None	None	None	1
3.0.1	2019_Mar_09_1201	s	s	14	4	Capacity	78	ABS	0	0	1	4	24_1_4	NA	NA	0	1	2.67869114876	None	None	None	None	1
3.0.1	2019_Mar_09_1201	s	s	14	4	Capacity	79	ABS	0	0	1	1	24_1_1	NA	NA	0	1	2.32802796364	None	None	None	None	1
3.0.1	2019_Mar_09_1201	s	s	14	4	Capacity	80	ABS	0	0	1	3	24_1_3	NA	NA	0	1	2.57507395744	None	None	None	None	1
3.0.1	2019_Mar_09_1201	s	s	14	4	Capacity	81	ABS	0	0	1	4	24_1_4	NA	NA	0	1	1.64625597	None	None	None	None	1
3.0.1	2019_Mar_09_1201	s	s	14	4	Capacity	82	1_2	1	2	1	1	23_1_1	0	-1	0	1	1.82260394096	-277.0	2.0	None	None	0
3.0.1	2019_Mar_09_1201	s	s	14	4	Capacity	83	ABS	0	0	1	3	24_1_3	NA	NA	0	1	2.49006986618	None	None	None	None	1
3.0.1	2019_Mar_09_1201	s	s	14	4	Capacity	84	1_1	1	1	1	3	23_1_3	0	2	1	0	1.07479310036	-465.0	312.0	-467.0	304.0	1
3.0.1	2019_Mar_09_1201	s	s	14	4	Capacity	85	ABS	0	0	1	4	24_1_4	NA	NA	0	1	1.98690390587	None	None	None	None	1
3.0.1	2019_Mar_09_1201	s	s	14	4	Capacity	86	ABS	0	0	1	1	24_1_1	NA	NA	0	1	1.62228393555	None	None	None	None	1
3.0.1	2019_Mar_09_1201	s	s	14	4	Capacity	87	1_4	1	4	1	3	23_1_3	0	1	1	0	0.857923984528	365.0	-372.0	360.0	-372.0	1
3.0.1	2019_Mar_09_1201	s	s	14	4	Capacity	88	1_3	1	3	1	2	23_1_2	0	1	1	0	2.96602392197	-272.0	126.0	-160.0	71.0	0
3.0.1	2019_Mar_09_1201	s	s	14	4	Capacity	89	1_4	1	4	1	1	23_1_1	0	3	1	0	0.552114009857	348.0	143.0	351.0	147.0	1
3.0.1	2019_Mar_09_1201	s	s	14	4	Capacity	90	1_3	1	3	1	1	23_1_1	0	2	1	0	1.9164288044	435.0	223.0	445.0	221.0	1
3.0.1	2019_Mar_09_1201	s	s	14	4	Capacity	91	ABS	0	0	1	2	24_1_2	NA	NA	0	1	4.40089488029	None	None	None	None	1
3.0.1	2019_Mar_09_1201	s	s	14	4	Capacity	92	1_3	1	3	1	4	23_1_4	0	-1	1	0	0.602121114731	-63.0	336.0	-74.0	336.0	1
3.0.1	2019_Mar_09_1201	s	s	14	4	Capacity	93	ABS	0	0	1	3	24_1_3	NA	NA	0	1	3.35114002228	None	None	None	None	1
3.0.1	2019_Mar_09_1201	s	s	14	4	Capacity	94	ABS	0	0	1	2	24_1_2	NA	NA	0	1	3.66365909576	None	None	None	None	1
3.0.1	2019_Mar_09_1201	s	s	14	4	Capacity	95	1_4	1	4	1	2	23_1_2	0	2	1	0	0.575663805008	-445.0	191.0	-449.0	196.0	1
3.0.1	2019_Mar_09_1201	s	s	14	4	Capacity	96	ABS	0	0	1	2	24_1_2	NA	NA	0	1	3.56298112869	None	None	None	None	1
3.0.1	2019_Mar_09_1201	s	s	14	4	SIC	1	ABS	0	0	4	1	24_4_1	NA	NA	0	1	1.37551593781	None	None	None	None	1
3.0.1	2019_Mar_09_1201	s	s	14	4	SIC	2	2_4	2	4	1	1	23_1_1	-1	3	1	0	0.693299055099	-422.0	325.0	-433.0	326.0	1
3.0.1	2019_Mar_09_1201	s	s	14	4	SIC	3	1_2	1	2	4	3	23_4_3	3	1	1	0	0.410955190659	186.0	219.0	193.0	225.0	1
3.0.1	2019_Mar_09_1201	s	s	14	4	SIC	4	ABS	0	0	1	2	24_1_2	NA	NA	0	1	2.04573893547	None	None	None	None	1
3.0.1	2019_Mar_09_1201	s	s	14	4	SIC	5	3_2	3	2	2	4	23_2_4	1	2	1	0	0.48800611496	-386.0	-229.0	-387.0	-235.0	1
3.0.1	2019_Mar_09_1201	s	s	14	4	SIC	6	ABS	0	0	3	4	24_3_4	NA	NA	0	1	1.54010796547	None	None	None	None	1
3.0.1	2019_Mar_09_1201	s	s	14	4	SIC	7	4_1	4	1	2	2	23_2_2	2	1	1	0	0.392399072647	-180.0	30.0	-181.0	29.0	1
3.0.1	2019_Mar_09_1201	s	s	14	4	SIC	8	1_2	1	2	3	3	23_3_3	2	1	1	0	0.775601863861	414.0	-318.0	406.0	-321.0	1
3.0.1	2019_Mar_09_1201	s	s	14	4	SIC	9	4_3	4	3	1	2	23_1_2	3	1	1	0	0.410971879959	-407.0	-309.0	-409.0	-305.0	1
3.0.1	2019_Mar_09_1201	s	s	14	4	SIC	10	ABS	0	0	4	3	24_4_3	NA	NA	0	1	2.28558111191	None	None	None	None	1
3.0.1	2019_Mar_09_1201	s	s	14	4	SIC	11	4_3	4	3	3	4	23_3_4	1	-1	1	0	0.393527984619	54.0	2.0	63.0	2.0	1
3.0.1	2019_Mar_09_1201	s	s	14	4	SIC	12	ABS	0	0	4	3	24_4_3	NA	NA	0	1	1.69778990746	None	None	None	None	1
3.0.1	2019_Mar_09_1201	s	s	14	4	SIC	13	ABS	0	0	2	3	24_2_3	NA	NA	0	1	1.65767788887	None	None	None	None	1
3.0.1	2019_Mar_09_1201	s	s	14	4	SIC	14	ABS	0	0	2	3	24_2_3	NA	NA	0	1	2.39856004715	None	None	None	None	1
3.0.1	2019_Mar_09_1201	s	s	14	4	SIC	15	ABS	0	0	1	1	24_1_1	NA	NA	0	1	1.52826309204	None	None	None	None	1
3.0.1	2019_Mar_09_1201	s	s	14	4	SIC	16	3_1	3	1	2	1	23_2_1	1	0	1	0	0.428153038025	-23.0	284.0	-27.0	287.0	1
3.0.1	2019_Mar_09_1201	s	s	14	4	SIC	17	4_1	4	1	3	1	23_3_1	1	0	1	0	0.411412000656	245.0	-301.0	250.0	-295.0	1
3.0.1	2019_Mar_09_1201	s	s	14	4	SIC	18	3_1	3	1	4	3	23_4_3	-1	2	1	0	0.457902908325	-64.0	49.0	-58.0	53.0	1
3.0.1	2019_Mar_09_1201	s	s	14	4	SIC	19	1_2	1	2	3	2	23_3_2	2	0	1	0	0.481576919556	-182.0	-350.0	-179.0	-350.0	1
3.0.1	2019_Mar_09_1201	s	s	14	4	SIC	20	2_3	2	3	4	1	23_4_1	2	2	1	0	0.387402057648	319.0	296.0	320.0	294.0	1
3.0.1	2019_Mar_09_1201	s	s	14	4	SIC	21	ABS	0	0	4	1	24_4_1	NA	NA	0	1	1.01575803757	None	None	None	None	1
3.0.1	2019_Mar_09_1201	s	s	14	4	SIC	22	4_3	4	3	2	4	23_2_4	2	-1	1	0	0.410989999771	-358.0	-260.0	-362.0	-260.0	1
3.0.1	2019_Mar_09_1201	s	s	14	4	SIC	23	3_2	3	2	4	3	23_4_3	-1	1	1	0	0.410958051682	-180.0	206.0	-179.0	210.0	1
3.0.1	2019_Mar_09_1201	s	s	14	4	SIC	24	ABS	0	0	1	3	24_1_3	NA	NA	0	1	1.97196102142	None	None	None	None	1
3.0.1	2019_Mar_09_1201	s	s	14	4	SIC	25	ABS	0	0	3	1	24_3_1	NA	NA	0	1	1.18728494644	None	None	None	None	1
3.0.1	2019_Mar_09_1201	s	s	14	4	SIC	26	1_4	1	4	2	2	23_2_2	1	2	1	0	0.54060292244	534.0	-59.0	540.0	-56.0	1
3.0.1	2019_Mar_09_1201	s	s	14	4	SIC	27	ABS	0	0	4	3	24_4_3	NA	NA	0	1	2.01054596901	None	None	None	None	1
3.0.1	2019_Mar_09_1201	s	s	14	4	SIC	28	4_2	4	2	4	4	23_4_4	0	2	1	0	0.95491194725	-349.0	-388.0	-345.0	-380.0	1
3.0.1	2019_Mar_09_1201	s	s	14	4	SIC	29	ABS	0	0	4	2	24_4_2	NA	NA	0	1	1.56871700287	None	None	None	None	1
3.0.1	2019_Mar_09_1201	s	s	14	4	SIC	30	4_1	4	1	4	2	23_4_2	0	1	1	0	1.06385111809	314.0	186.0	312.0	190.0	1
3.0.1	2019_Mar_09_1201	s	s	14	4	SIC	31	4_3	4	3	2	1	23_2_1	2	2	1	0	0.437394142151	217.0	-281.0	224.0	-282.0	1
3.0.1	2019_Mar_09_1201	s	s	14	4	SIC	32	3_2	3	2	2	1	23_2_1	1	-1	1	0	0.559108018875	-214.0	-115.0	-206.0	-121.0	1
3.0.1	2019_Mar_09_1201	s	s	14	4	SIC	33	2_2	2	2	1	4	23_1_4	-1	2	1	0	0.801953792572	521.0	-189.0	520.0	-181.0	1
3.0.1	2019_Mar_09_1201	s	s	14	4	SIC	34	ABS	0	0	1	4	24_1_4	NA	NA	0	1	1.82224798203	None	None	None	None	1
3.0.1	2019_Mar_09_1201	s	s	14	4	SIC	35	ABS	0	0	1	4	24_1_4	NA	NA	0	1	2.14906001091	None	None	None	None	1
3.0.1	2019_Mar_09_1201	s	s	14	4	SIC	36	ABS	0	0	4	2	24_4_2	NA	NA	0	1	1.751734972	None	None	None	None	1
3.0.1	2019_Mar_09_1201	s	s	14	4	SIC	37	4_3	4	3	2	3	23_2_3	2	0	1	0	0.410973072052	-489.0	-319.0	-485.0	-318.0	1
3.0.1	2019_Mar_09_1201	s	s	14	4	SIC	38	ABS	0	0	4	2	24_4_2	NA	NA	0	1	1.37829995155	None	None	None	None	1
3.0.1	2019_Mar_09_1201	s	s	14	4	SIC	39	3_2	3	2	4	2	23_4_2	-1	0	1	0	0.422845125198	-109.0	241.0	-114.0	236.0	1
3.0.1	2019_Mar_09_1201	s	s	14	4	SIC	40	ABS	0	0	2	3	24_2_3	NA	NA	0	1	2.01558303833	None	None	None	None	1
3.0.1	2019_Mar_09_1201	s	s	14	4	SIC	41	1_1	1	1	1	3	23_1_3	0	2	1	0	1.06966996193	-73.0	217.0	-73.0	222.0	1
3.0.1	2019_Mar_09_1201	s	s	14	4	SIC	42	1_1	1	1	4	4	23_4_4	3	3	1	0	0.427506923676	-306.0	306.0	-307.0	306.0	1
3.0.1	2019_Mar_09_1201	s	s	14	4	SIC	43	ABS	0	0	2	4	24_2_4	NA	NA	0	1	1.38389492035	None	None	None	None	1
3.0.1	2019_Mar_09_1201	s	s	14	4	SIC	44	2_3	2	3	3	4	23_3_4	1	-1	1	0	1.11664104462	499.0	326.0	496.0	326.0	1
3.0.1	2019_Mar_09_1201	s	s	14	4	SIC	45	2_2	2	2	3	4	23_3_4	1	2	1	0	0.517217874527	440.0	229.0	440.0	224.0	1
3.0.1	2019_Mar_09_1201	s	s	14	4	SIC	46	1_2	1	2	4	1	23_4_1	3	-1	1	0	0.41140294075	438.0	89.0	437.0	93.0	1
3.0.1	2019_Mar_09_1201	s	s	14	4	SIC	47	3_1	3	1	1	1	23_1_1	2	0	1	0	0.672679901123	413.0	-321.0	409.0	-319.0	1
3.0.1	2019_Mar_09_1201	s	s	14	4	SIC	48	ABS	0	0	4	4	24_4_4	NA	NA	0	1	1.88515400887	None	None	None	None	1
3.0.1	2019_Mar_09_1201	s	s	14	4	SIC	49	1_1	1	1	4	3	23_4_3	3	2	1	0	0.399248123169	376.0	40.0	388.0	41.0	1
3.0.1	2019_Mar_09_1201	s	s	14	4	SIC	50	ABS	0	0	4	2	24_4_2	NA	NA	0	1	2.58678293228	None	None	None	None	1
3.0.1	2019_Mar_09_1201	s	s	14	4	SIC	51	ABS	0	0	3	2	24_3_2	NA	NA	0	1	2.5908768177	None	None	None	None	1
3.0.1	2019_Mar_09_1201	s	s	14	4	SIC	52	ABS	0	0	2	3	24_2_3	NA	NA	0	1	1.697660923	None	None	None	None	1
3.0.1	2019_Mar_09_1201	s	s	14	4	SIC	53	ABS	0	0	3	1	24_3_1	NA	NA	0	1	1.30479001999	None	None	None	None	1
3.0.1	2019_Mar_09_1201	s	s	14	4	SIC	54	1_2	1	2	1	4	23_1_4	0	2	1	0	0.657984972	287.0	-199.0	285.0	-197.0	1
3.0.1	2019_Mar_09_1201	s	s	14	4	SIC	55	2_1	2	1	1	3	23_1_3	-1	2	1	0	1.66437911987	-107.0	-194.0	-101.0	-189.0	1
3.0.1	2019_Mar_09_1201	s	s	14	4	SIC	56	4_1	4	1	2	3	23_2_3	2	2	1	0	0.452244997025	-516.0	-51.0	-516.0	-54.0	1
3.0.1	2019_Mar_09_1201	s	s	14	4	SIC	57	4_3	4	3	3	3	23_3_3	1	0	1	0	0.413650035858	-215.0	337.0	-223.0	333.0	1
3.0.1	2019_Mar_09_1201	s	s	14	4	SIC	58	4_2	4	2	1	1	23_1_1	3	-1	1	0	0.451915025711	9.0	-401.0	14.0	-407.0	1
3.0.1	2019_Mar_09_1201	s	s	14	4	SIC	59	ABS	0	0	1	3	24_1_3	NA	NA	0	1	2.13306212425	None	None	None	None	1
3.0.1	2019_Mar_09_1201	s	s	14	4	SIC	60	1_3	1	3	1	2	23_1_2	0	1	0	1	1.34015989304	-54.0	322.0	None	None	0
3.0.1	2019_Mar_09_1201	s	s	14	4	SIC	61	ABS	0	0	4	4	24_4_4	NA	NA	0	1	1.75179290771	None	None	None	None	1
3.0.1	2019_Mar_09_1201	s	s	14	4	SIC	62	3_1	3	1	1	2	23_1_2	2	1	1	0	0.505079030991	-131.0	294.0	-126.0	289.0	1
3.0.1	2019_Mar_09_1201	s	s	14	4	SIC	63	ABS	0	0	4	1	24_4_1	NA	NA	0	1	2.54628705978	None	None	None	None	1
3.0.1	2019_Mar_09_1201	s	s	14	4	SIC	64	1_1	1	1	1	2	23_1_2	0	1	0	1	2.59184288979	-372.0	-290.0	None	None	0
3.0.1	2019_Mar_09_1201	s	s	14	4	SIC	65	ABS	0	0	3	1	24_3_1	NA	NA	0	1	2.04866194725	None	None	None	None	1
3.0.1	2019_Mar_09_1201	s	s	14	4	SIC	66	2_1	2	1	2	2	23_2_2	0	1	0	1	3.60496807098	-535.0	72.0	None	None	0
3.0.1	2019_Mar_09_1201	s	s	14	4	SIC	67	ABS	0	0	3	3	24_3_3	NA	NA	0	1	2.92783212662	None	None	None	None	1
3.0.1	2019_Mar_09_1201	s	s	14	4	SIC	68	2_4	2	4	3	4	23_3_4	1	0	1	0	1.92819786072	-327.0	-223.0	-322.0	-215.0	1
3.0.1	2019_Mar_09_1201	s	s	14	4	SIC	69	1_4	1	4	4	4	23_4_4	3	0	1	0	0.587393045425	275.0	51.0	270.0	51.0	1
3.0.1	2019_Mar_09_1201	s	s	14	4	SIC	70	ABS	0	0	2	4	24_2_4	NA	NA	0	1	1.83696389198	None	None	None	None	1
3.0.1	2019_Mar_09_1201	s	s	14	4	SIC	71	3_3	3	3	4	4	23_4_4	-1	-1	1	0	0.490746021271	493.0	121.0	497.0	123.0	1
3.0.1	2019_Mar_09_1201	s	s	14	4	SIC	72	ABS	0	0	1	1	24_1_1	NA	NA	0	1	2.9866027832	None	None	None	None	1
3.0.1	2019_Mar_09_1201	s	s	14	4	SIC	73	ABS	0	0	4	2	24_4_2	NA	NA	0	1	1.64588403702	None	None	None	None	1
3.0.1	2019_Mar_09_1201	s	s	14	4	SIC	74	3_1	3	1	2	2	23_2_2	1	1	1	0	0.481565952301	-389.0	90.0	-388.0	94.0	1
3.0.1	2019_Mar_09_1201	s	s	14	4	SIC	75	3_3	3	3	2	3	23_2_3	1	0	1	0	0.473780870438	-248.0	357.0	-241.0	357.0	1
3.0.1	2019_Mar_09_1201	s	s	14	4	SIC	76	ABS	0	0	3	1	24_3_1	NA	NA	0	1	1.41475820541	None	None	None	None	1
3.0.1	2019_Mar_09_1201	s	s	14	4	SIC	77	3_4	3	4	2	4	23_2_4	1	0	1	0	1.06964612007	480.0	-226.0	486.0	-235.0	1
3.0.1	2019_Mar_09_1201	s	s	14	4	SIC	78	4_2	4	2	3	3	23_3_3	1	1	1	0	0.470221996307	-413.0	179.0	-407.0	175.0	1
3.0.1	2019_Mar_09_1201	s	s	14	4	SIC	79	1_4	1	4	3	4	23_3_4	2	0	1	0	0.441606998444	-29.0	201.0	-26.0	199.0	1
3.0.1	2019_Mar_09_1201	s	s	14	4	SIC	80	3_2	3	2	3	4	23_3_4	0	2	1	0	0.790246963501	-418.0	203.0	-419.0	210.0	1
3.0.1	2019_Mar_09_1201	s	s	14	4	SIC	81	2_2	2	2	3	1	23_3_1	1	-1	1	0	0.957132101059	339.0	-230.0	337.0	-228.0	1
3.0.1	2019_Mar_09_1201	s	s	14	4	SIC	82	ABS	0	0	2	4	24_2_4	NA	NA	0	1	2.46232509613	None	None	None	None	1
3.0.1	2019_Mar_09_1201	s	s	14	4	SIC	83	3_4	3	4	4	2	23_4_2	-1	2	1	0	0.469829082489	385.0	135.0	381.0	135.0	1
3.0.1	2019_Mar_09_1201	s	s	14	4	SIC	84	ABS	0	0	3	3	24_3_3	NA	NA	0	1	2.09752082825	None	None	None	None	1
3.0.1	2019_Mar_09_1201	s	s	14	4	SIC	85	ABS	0	0	1	1	24_1_1	NA	NA	0	1	1.84059500694	None	None	None	None	1
3.0.1	2019_Mar_09_1201	s	s	14	4	SIC	86	ABS	0	0	4	2	24_4_2	NA	NA	0	1	2.16608190536	None	None	None	None	1
3.0.1	2019_Mar_09_1201	s	s	14	4	SIC	87	ABS	0	0	3	4	24_3_4	NA	NA	0	1	2.06931209564	None	None	None	None	1
3.0.1	2019_Mar_09_1201	s	s	14	4	SIC	88	ABS	0	0	1	3	24_1_3	NA	NA	0	1	2.38294100761	None	None	None	None	1
3.0.1	2019_Mar_09_1201	s	s	14	4	SIC	89	4_4	4	4	2	3	23_2_3	2	1	1	0	0.434890031815	-107.0	-37.0	-104.0	-41.0	1
3.0.1	2019_Mar_09_1201	s	s	14	4	SIC	90	2_2	2	2	4	4	23_4_4	2	2	1	0	0.622625112534	-404.0	-139.0	-397.0	-133.0	1
3.0.1	2019_Mar_09_1201	s	s	14	4	SIC	91	ABS	0	0	3	3	24_3_3	NA	NA	0	1	2.86088109016	None	None	None	None	1
3.0.1	2019_Mar_09_1201	s	s	14	4	SIC	92	ABS	0	0	4	1	24_4_1	NA	NA	0	1	0.797334909439	None	None	None	None	1
3.0.1	2019_Mar_09_1201	s	s	14	4	SIC	93	2_4	2	4	1	3	23_1_3	-1	1	1	0	1.54008698463	-109.0	-76.0	-104.0	-78.0	1
3.0.1	2019_Mar_09_1201	s	s	14	4	SIC	94	3_1	3	1	4	1	23_4_1	-1	0	1	0	0.443264961243	-47.0	-284.0	-35.0	-282.0	1
3.0.1	2019_Mar_09_1201	s	s	14	4	SIC	95	4_1	4	1	1	1	23_1_1	3	0	1	0	0.540423154831	-117.0	370.0	-114.0	356.0	1
3.0.1	2019_Mar_09_1201	s	s	14	4	SIC	96	1_2	1	2	3	4	23_3_4	2	2	1	0	0.410904169083	-244.0	375.0	-235.0	371.0	1
3.0.1	2019_Mar_09_1201	s	s	14	4	SIC	97	4_1	4	1	2	1	23_2_1	2	0	1	0	0.378592967987	-186.0	114.0	-182.0	111.0	1
3.0.1	2019_Mar_09_1201	s	s	14	4	SIC	98	ABS	0	0	4	4	24_4_4	NA	NA	0	1	1.17540407181	None	None	None	None	1
3.0.1	2019_Mar_09_1201	s	s	14	4	SIC	99	ABS	0	0	4	3	24_4_3	NA	NA	0	1	0.834385871887	None	None	None	None	1
3.0.1	2019_Mar_09_1201	s	s	14	4	SIC	100	ABS	0	0	4	3	24_4_3	NA	NA	0	1	1.30528497696	None	None	None	None	1
3.0.1	2019_Mar_09_1201	s	s	14	4	SIC	101	ABS	0	0	4	2	24_4_2	NA	NA	0	1	1.10502886772	None	None	None	None	1
3.0.1	2019_Mar_09_1201	s	s	14	4	SIC	102	ABS	0	0	3	4	24_3_4	NA	NA	0	1	1.37831497192	None	None	None	None	1
3.0.1	2019_Mar_09_1201	s	s	14	4	SIC	103	ABS	0	0	1	1	24_1_1	NA	NA	0	1	1.34007310867	None	None	None	None	1
3.0.1	2019_Mar_09_1201	s	s	14	4	SIC	104	2_2	2	2	1	3	23_1_3	-1	1	1	0	1.54535794258	-207.0	-340.0	-202.0	-333.0	1
3.0.1	2019_Mar_09_1201	s	s	14	4	SIC	105	1_3	1	3	3	2	23_3_2	2	1	1	0	0.587383985519	-150.0	-211.0	-153.0	-206.0	1
3.0.1	2019_Mar_09_1201	s	s	14	4	SIC	106	ABS	0	0	3	1	24_3_1	NA	NA	0	1	1.24612307549	None	None	None	None	1
3.0.1	2019_Mar_09_1201	s	s	14	4	SIC	107	2_3	2	3	3	3	23_3_3	1	0	0	1	0.509881973267	224.0	131.0	None	None	0
3.0.1	2019_Mar_09_1201	s	s	14	4	SIC	108	1_4	1	4	3	3	23_3_3	2	1	1	0	0.629451990128	-352.0	59.0	-363.0	61.0	1
3.0.1	2019_Mar_09_1201	s	s	14	4	SIC	109	3_3	3	3	1	1	23_1_1	2	2	1	0	0.474003076553	436.0	-5.0	434.0	-5.0	1
3.0.1	2019_Mar_09_1201	s	s	14	4	SIC	110	3_3	3	3	2	2	23_2_2	1	1	1	0	0.575630903244	118.0	-183.0	123.0	-180.0	1
3.0.1	2019_Mar_09_1201	s	s	14	4	SIC	111	ABS	0	0	3	2	24_3_2	NA	NA	0	1	1.18029499054	None	None	None	None	1
3.0.1	2019_Mar_09_1201	s	s	14	4	SIC	112	2_1	2	1	1	4	23_1_4	-1	3	1	0	0.434477806091	150.0	141.0	145.0	142.0	1
3.0.1	2019_Mar_09_1201	s	s	14	4	SIC	113	3_3	3	3	4	3	23_4_3	-1	0	1	0	0.422791004181	179.0	-233.0	176.0	-228.0	1
3.0.1	2019_Mar_09_1201	s	s	14	4	SIC	114	3_1	3	1	4	2	23_4_2	-1	1	1	0	0.375653982162	14.0	2.0	25.0	7.0	1
3.0.1	2019_Mar_09_1201	s	s	14	4	SIC	115	ABS	0	0	3	4	24_3_4	NA	NA	0	1	2.86906099319	None	None	None	None	1
3.0.1	2019_Mar_09_1201	s	s	14	4	SIC	116	ABS	0	0	1	1	24_1_1	NA	NA	0	1	2.0744509697	None	None	None	None	1
3.0.1	2019_Mar_09_1201	s	s	14	4	SIC	117	1_1	1	1	2	1	23_2_1	1	0	1	0	4.10388302803	490.0	-12.0	488.0	-7.0	1
3.0.1	2019_Mar_09_1201	s	s	14	4	SIC	118	ABS	0	0	3	1	24_3_1	NA	NA	0	1	1.2606549263	None	None	None	None	1
3.0.1	2019_Mar_09_1201	s	s	14	4	SIC	119	ABS	0	0	4	1	24_4_1	NA	NA	0	1	0.886372804642	None	None	None	None	1
3.0.1	2019_Mar_09_1201	s	s	14	4	SIC	120	ABS	0	0	3	1	24_3_1	NA	NA	0	1	1.49855399132	None	None	None	None	1
3.0.1	2019_Mar_09_1201	s	s	14	4	SIC	121	4_2	4	2	2	2	23_2_2	2	0	1	0	0.450484037399	-247.0	-327.0	-243.0	-337.0	1
3.0.1	2019_Mar_09_1201	s	s	14	4	SIC	122	ABS	0	0	1	4	24_1_4	NA	NA	0	1	1.37828779221	None	None	None	None	1
3.0.1	2019_Mar_09_1201	s	s	14	4	SIC	123	ABS	0	0	3	3	24_3_3	NA	NA	0	1	2.66538786888	None	None	None	None	1
3.0.1	2019_Mar_09_1201	s	s	14	4	SIC	124	ABS	0	0	2	1	24_2_1	NA	NA	0	1	1.36363101006	None	None	None	None	1
3.0.1	2019_Mar_09_1201	s	s	14	4	SIC	125	ABS	0	0	2	1	24_2_1	NA	NA	0	1	1.55465602875	None	None	None	None	1
3.0.1	2019_Mar_09_1201	s	s	14	4	SIC	126	4_4	4	4	2	1	23_2_1	2	3	1	0	0.46977186203	82.0	22.0	79.0	23.0	1
3.0.1	2019_Mar_09_1201	s	s	14	4	SIC	127	ABS	0	0	4	4	24_4_4	NA	NA	0	1	1.20187401772	None	None	None	None	1
3.0.1	2019_Mar_09_1201	s	s	14	4	SIC	128	1_1	1	1	4	1	23_4_1	3	0	1	0	0.410921096802	-147.0	214.0	-153.0	210.0	1
3.0.1	2019_Mar_09_1201	s	s	14	4	SIC	129	3_3	3	3	1	3	23_1_3	2	0	1	0	0.975456953049	-374.0	-366.0	-377.0	-364.0	1
3.0.1	2019_Mar_09_1201	s	s	14	4	SIC	130	4_4	4	4	4	2	23_4_2	0	2	1	0	0.587373971939	276.0	-47.0	264.0	-39.0	1
3.0.1	2019_Mar_09_1201	s	s	14	4	SIC	131	ABS	0	0	2	4	24_2_4	NA	NA	0	1	2.33390808105	None	None	None	None	1
3.0.1	2019_Mar_09_1201	s	s	14	4	SIC	132	ABS	0	0	1	2	24_1_2	NA	NA	0	1	2.87565803528	None	None	None	None	1
3.0.1	2019_Mar_09_1201	s	s	14	4	SIC	133	ABS	0	0	2	1	24_2_1	NA	NA	0	1	1.81050395966	None	None	None	None	1
3.0.1	2019_Mar_09_1201	s	s	14	4	SIC	134	1_3	1	3	3	4	23_3_4	2	-1	1	0	0.545575141907	-129.0	375.0	-131.0	372.0	1
3.0.1	2019_Mar_09_1201	s	s	14	4	SIC	135	ABS	0	0	3	2	24_3_2	NA	NA	0	1	2.82888388634	None	None	None	None	1
3.0.1	2019_Mar_09_1201	s	s	14	4	SIC	136	4_3	4	3	4	1	23_4_1	0	2	1	0	1.75176596642	-116.0	-130.0	-103.0	-127.0	1
3.0.1	2019_Mar_09_1201	s	s	14	4	SIC	137	ABS	0	0	1	4	24_1_4	NA	NA	0	1	2.11039018631	None	None	None	None	1
3.0.1	2019_Mar_09_1201	s	s	14	4	SIC	138	ABS	0	0	4	3	24_4_3	NA	NA	0	1	1.58708500862	None	None	None	None	1
3.0.1	2019_Mar_09_1201	s	s	14	4	SIC	139	ABS	0	0	3	1	24_3_1	NA	NA	0	1	1.97563409805	None	None	None	None	1
3.0.1	2019_Mar_09_1201	s	s	14	4	SIC	140	2_3	2	3	2	1	23_2_1	0	2	0	1	1.61926007271	180.0	29.0	None	None	0
3.0.1	2019_Mar_09_1201	s	s	14	4	SIC	141	2_4	2	4	2	2	23_2_2	0	2	1	0	0.578501939774	369.0	45.0	366.0	49.0	1
3.0.1	2019_Mar_09_1201	s	s	14	4	SIC	142	2_2	2	2	4	2	23_4_2	2	0	1	0	0.42272901535	20.0	-336.0	23.0	-333.0	1
3.0.1	2019_Mar_09_1201	s	s	14	4	SIC	143	2_4	2	4	4	2	23_4_2	2	2	1	0	0.427798986435	-395.0	-289.0	-391.0	-288.0	1
3.0.1	2019_Mar_09_1201	s	s	14	4	SIC	144	4_1	4	1	3	3	23_3_3	1	2	1	0	0.540423154831	227.0	405.0	233.0	406.0	1
3.0.1	2019_Mar_09_1201	s	s	14	4	SIC	145	ABS	0	0	4	3	24_4_3	NA	NA	0	1	2.33310604095	None	None	None	None	1
3.0.1	2019_Mar_09_1201	s	s	14	4	SIC	146	1_2	1	2	2	2	23_2_2	1	0	0	1	3.4288110733	-157.0	-394.0	None	None	0
3.0.1	2019_Mar_09_1201	s	s	14	4	SIC	147	ABS	0	0	1	4	24_1_4	NA	NA	0	1	2.62610793114	None	None	None	None	1
3.0.1	2019_Mar_09_1201	s	s	14	4	SIC	148	4_2	4	2	3	2	23_3_2	1	0	1	0	0.487978935242	-258.0	353.0	-260.0	353.0	1
3.0.1	2019_Mar_09_1201	s	s	14	4	SIC	149	2_4	2	4	3	3	23_3_3	1	1	1	0	0.916661977768	-191.0	205.0	-187.0	192.0	1
3.0.1	2019_Mar_09_1201	s	s	14	4	SIC	150	ABS	0	0	1	1	24_1_1	NA	NA	0	1	3.55508899689	None	None	None	None	1
3.0.1	2019_Mar_09_1201	s	s	14	4	SIC	151	1_2	1	2	1	1	23_1_1	0	-1	0	1	2.61984395981	91.0	352.0	None	None	0
3.0.1	2019_Mar_09_1201	s	s	14	4	SIC	152	ABS	0	0	2	1	24_2_1	NA	NA	0	1	3.39824700356	None	None	None	None	1
3.0.1	2019_Mar_09_1201	s	s	14	4	SIC	153	ABS	0	0	1	2	24_1_2	NA	NA	0	1	3.92063307762	None	None	None	None	1
3.0.1	2019_Mar_09_1201	s	s	14	4	SIC	154	ABS	0	0	4	4	24_4_4	NA	NA	0	1	1.83421087265	None	None	None	None	1
3.0.1	2019_Mar_09_1201	s	s	14	4	SIC	155	2_4	2	4	4	4	23_4_4	2	0	1	0	0.457967996597	-515.0	274.0	-514.0	272.0	1
3.0.1	2019_Mar_09_1201	s	s	14	4	SIC	156	1_2	1	2	3	1	23_3_1	2	-1	1	0	0.568978786469	461.0	-119.0	459.0	-117.0	1
3.0.1	2019_Mar_09_1201	s	s	14	4	SIC	157	ABS	0	0	4	3	24_4_3	NA	NA	0	1	1.79876184464	None	None	None	None	1
3.0.1	2019_Mar_09_1201	s	s	14	4	SIC	158	2_2	2	2	1	2	23_1_2	-1	0	1	0	2.692663908	-222.0	-222.0	-223.0	-221.0	1
3.0.1	2019_Mar_09_1201	s	s	14	4	SIC	159	ABS	0	0	4	4	24_4_4	NA	NA	0	1	2.81442093849	None	None	None	None	1
3.0.1	2019_Mar_09_1201	s	s	14	4	SIC	160	ABS	0	0	4	4	24_4_4	NA	NA	0	1	1.91464400291	None	None	None	None	1
3.0.1	2019_Mar_09_1201	s	s	14	4	SIC	161	ABS	0	0	2	2	24_2_2	NA	NA	0	1	2.87274098396	None	None	None	None	1
3.0.1	2019_Mar_09_1201	s	s	14	4	SIC	162	3_3	3	3	3	1	23_3_1	0	2	1	0	1.57847905159	312.0	265.0	322.0	263.0	1
3.0.1	2019_Mar_09_1201	s	s	14	4	SIC	163	4_1	4	1	2	4	23_2_4	2	3	1	0	0.416229963303	-388.0	-40.0	-374.0	-31.0	1
3.0.1	2019_Mar_09_1201	s	s	14	4	SIC	164	ABS	0	0	1	3	24_1_3	NA	NA	0	1	1.57524585724	None	None	None	None	1
3.0.1	2019_Mar_09_1201	s	s	14	4	SIC	165	1_4	1	4	1	1	23_1_1	0	3	1	0	0.5873670578	441.0	-45.0	449.0	-42.0	1
3.0.1	2019_Mar_09_1201	s	s	14	4	SIC	166	4_2	4	2	1	4	23_1_4	3	2	1	0	0.627753973007	-256.0	346.0	-253.0	334.0	1
3.0.1	2019_Mar_09_1201	s	s	14	4	SIC	167	ABS	0	0	3	3	24_3_3	NA	NA	0	1	1.96774411201	None	None	None	None	1
3.0.1	2019_Mar_09_1201	s	s	14	4	SIC	168	ABS	0	0	2	4	24_2_4	NA	NA	0	1	2.93962407112	None	None	None	None	1
3.0.1	2019_Mar_09_1201	s	s	14	4	SIC	169	2_3	2	3	3	1	23_3_1	1	2	1	0	0.587315797806	-134.0	-28.0	-136.0	-43.0	1
3.0.1	2019_Mar_09_1201	s	s	14	4	SIC	170	ABS	0	0	2	4	24_2_4	NA	NA	0	1	1.54488897324	None	None	None	None	1
3.0.1	2019_Mar_09_1201	s	s	14	4	SIC	171	3_4	3	4	1	3	23_1_3	2	1	1	0	0.593863964081	-32.0	41.0	-38.0	41.0	1
3.0.1	2019_Mar_09_1201	s	s	14	4	SIC	172	ABS	0	0	2	4	24_2_4	NA	NA	1	0	3.38660788536	None	None	-99.0	5.0	0
3.0.1	2019_Mar_09_1201	s	s	14	4	SIC	173	4_3	4	3	4	4	23_4_4	0	-1	1	0	0.957275867462	-67.0	-352.0	-61.0	-349.0	1
3.0.1	2019_Mar_09_1201	s	s	14	4	SIC	174	1_4	1	4	2	4	23_2_4	1	0	0	1	2.39899015427	-482.0	-342.0	None	None	0
3.0.1	2019_Mar_09_1201	s	s	14	4	SIC	175	ABS	0	0	1	2	24_1_2	NA	NA	0	1	5.57411813736	None	None	None	None	1
3.0.1	2019_Mar_09_1201	s	s	14	4	SIC	176	ABS	0	0	2	2	24_2_2	NA	NA	0	1	2.69257092476	None	None	None	None	1
3.0.1	2019_Mar_09_1201	s	s	14	4	SIC	177	ABS	0	0	3	4	24_3_4	NA	NA	0	1	2.9984869957	None	None	None	None	1
3.0.1	2019_Mar_09_1201	s	s	14	4	SIC	178	ABS	0	0	3	4	24_3_4	NA	NA	0	1	3.49229311943	None	None	None	None	1
3.0.1	2019_Mar_09_1201	s	s	14	4	SIC	179	4_2	4	2	2	1	23_2_1	2	-1	1	0	0.437381029129	-184.0	-139.0	-179.0	-149.0	1
3.0.1	2019_Mar_09_1201	s	s	14	4	SIC	180	ABS	0	0	2	4	24_2_4	NA	NA	0	1	2.25435495377	None	None	None	None	1
3.0.1	2019_Mar_09_1201	s	s	14	4	SIC	181	3_1	3	1	1	4	23_1_4	2	3	1	0	0.488430023193	-349.0	-233.0	-351.0	-240.0	1
3.0.1	2019_Mar_09_1201	s	s	14	4	SIC	182	2_3	2	3	4	4	23_4_4	2	-1	1	0	0.457972049713	162.0	405.0	156.0	397.0	1
3.0.1	2019_Mar_09_1201	s	s	14	4	SIC	183	ABS	0	0	3	3	24_3_3	NA	NA	0	1	2.14280295372	None	None	None	None	1
3.0.1	2019_Mar_09_1201	s	s	14	4	SIC	184	ABS	0	0	4	1	24_4_1	NA	NA	0	1	1.79500794411	None	None	None	None	1
3.0.1	2019_Mar_09_1201	s	s	14	4	SIC	185	ABS	0	0	4	2	24_4_2	NA	NA	0	1	3.06097698212	None	None	None	None	1
3.0.1	2019_Mar_09_1201	s	s	14	4	SIC	186	ABS	0	0	4	2	24_4_2	NA	NA	0	1	3.05204677582	None	None	None	None	1
3.0.1	2019_Mar_09_1201	s	s	14	4	SIC	187	4_3	4	3	3	1	23_3_1	1	2	1	0	0.496233940125	-237.0	-65.0	-233.0	-65.0	1
3.0.1	2019_Mar_09_1201	s	s	14	4	SIC	188	1_2	1	2	2	3	23_2_3	1	1	0	1	2.70440602303	285.0	340.0	None	None	0
3.0.1	2019_Mar_09_1201	s	s	14	4	SIC	189	1_3	1	3	2	3	23_2_3	1	0	1	0	0.902557849884	-219.0	106.0	-223.0	110.0	1
3.0.1	2019_Mar_09_1201	s	s	14	4	SIC	190	2_2	2	2	2	1	23_2_1	0	-1	1	0	1.4727678299	-413.0	-305.0	-403.0	-300.0	1
3.0.1	2019_Mar_09_1201	s	s	14	4	SIC	191	ABS	0	0	1	1	24_1_1	NA	NA	0	1	1.85347294807	None	None	None	None	1
3.0.1	2019_Mar_09_1201	s	s	14	4	SIC	192	3_4	3	4	1	4	23_1_4	2	0	1	0	1.44307804108	524.0	-330.0	522.0	-320.0	1
3.0.1	2019_Mar_09_1201	s	s	14	4	SIC	193	3_1	3	1	2	3	23_2_3	1	2	1	0	1.08426594734	416.0	-222.0	424.0	-226.0	1
3.0.1	2019_Mar_09_1201	s	s	14	4	SIC	194	ABS	0	0	3	1	24_3_1	NA	NA	0	1	2.71947193146	None	None	None	None	1
3.0.1	2019_Mar_09_1201	s	s	14	4	SIC	195	ABS	0	0	2	2	24_2_2	NA	NA	1	0	1.41067409515	None	None	248.0	127.0	0
3.0.1	2019_Mar_09_1201	s	s	14	4	SIC	196	ABS	0	0	2	2	24_2_2	NA	NA	0	1	2.47566795349	None	None	None	None	1
3.0.1	2019_Mar_09_1201	s	s	14	4	SIC	197	ABS	0	0	4	1	24_4_1	NA	NA	1	0	3.08864879608	None	None	173.0	91.0	0
3.0.1	2019_Mar_09_1201	s	s	14	4	SIC	198	1_2	1	2	4	4	23_4_4	3	2	1	0	0.427896976471	248.0	295.0	250.0	302.0	1
3.0.1	2019_Mar_09_1201	s	s	14	4	SIC	199	4_4	4	4	1	1	23_1_1	3	3	1	0	0.422803878784	-494.0	-119.0	-493.0	-125.0	1
3.0.1	2019_Mar_09_1201	s	s	14	4	SIC	200	ABS	0	0	2	2	24_2_2	NA	NA	0	1	2.1476790905	None	None	None	None	1
3.0.1	2019_Mar_09_1201	s	s	14	4	SIC	201	ABS	0	0	2	4	24_2_4	NA	NA	0	1	1.52304697037	None	None	None	None	1
3.0.1	2019_Mar_09_1201	s	s	14	4	SIC	202	ABS	0	0	3	3	24_3_3	NA	NA	1	0	2.54469394684	None	None	6.0	0.0	0
3.0.1	2019_Mar_09_1201	s	s	14	4	SIC	203	ABS	0	0	3	4	24_3_4	NA	NA	0	1	1.78044891357	None	None	None	None	1
3.0.1	2019_Mar_09_1201	s	s	14	4	SIC	204	3_4	3	4	3	2	23_3_2	0	2	1	0	0.591513872147	-431.0	56.0	-427.0	50.0	1
3.0.1	2019_Mar_09_1201	s	s	14	4	SIC	205	4_3	4	3	1	1	23_1_1	3	2	1	0	0.437402009964	-211.0	202.0	-202.0	210.0	1
3.0.1	2019_Mar_09_1201	s	s	14	4	SIC	206	2_1	2	1	1	1	23_1_1	-1	0	1	0	1.47461009026	-96.0	280.0	-98.0	278.0	1
3.0.1	2019_Mar_09_1201	s	s	14	4	SIC	207	2_3	2	3	2	4	23_2_4	0	-1	1	0	0.834413766861	190.0	138.0	194.0	127.0	1
3.0.1	2019_Mar_09_1201	s	s	14	4	SIC	208	1_4	1	4	1	2	23_1_2	0	2	1	0	0.481529951096	29.0	-16.0	39.0	-13.0	1
3.0.1	2019_Mar_09_1201	s	s	14	4	SIC	209	4_4	4	4	1	4	23_1_4	3	0	1	0	0.493311882019	187.0	-13.0	199.0	-11.0	1
3.0.1	2019_Mar_09_1201	s	s	14	4	SIC	210	3_1	3	1	4	4	23_4_4	-1	3	1	0	0.451104164124	-265.0	-244.0	-262.0	-242.0	1
3.0.1	2019_Mar_09_1201	s	s	14	4	SIC	211	ABS	0	0	1	3	24_1_3	NA	NA	0	1	1.23426103592	None	None	None	None	1
3.0.1	2019_Mar_09_1201	s	s	14	4	SIC	212	ABS	0	0	2	1	24_2_1	NA	NA	0	1	1.17542910576	None	None	None	None	1
3.0.1	2019_Mar_09_1201	s	s	14	4	SIC	213	3_4	3	4	4	3	23_4_3	-1	1	1	0	0.681712150574	-57.0	-271.0	-55.0	-262.0	1
3.0.1	2019_Mar_09_1201	s	s	14	4	SIC	214	ABS	0	0	4	1	24_4_1	NA	NA	1	0	1.2695710659	None	None	-475.0	76.0	0
3.0.1	2019_Mar_09_1201	s	s	14	4	SIC	215	4_4	4	4	3	4	23_3_4	1	0	1	0	0.469811201096	-25.0	176.0	-26.0	181.0	1
3.0.1	2019_Mar_09_1201	s	s	14	4	SIC	216	2_2	2	2	3	2	23_3_2	1	0	1	0	0.528570175171	160.0	-22.0	162.0	-13.0	1
3.0.1	2019_Mar_09_1201	s	s	14	4	SIC	217	ABS	0	0	2	3	24_2_3	NA	NA	0	1	2.67783284187	None	None	None	None	1
3.0.1	2019_Mar_09_1201	s	s	14	4	SIC	218	ABS	0	0	2	2	24_2_2	NA	NA	0	1	3.26910114288	None	None	None	None	1
3.0.1	2019_Mar_09_1201	s	s	14	4	SIC	219	3_2	3	2	4	4	23_4_4	-1	2	1	0	0.634461164474	-322.0	-51.0	-322.0	-49.0	1
3.0.1	2019_Mar_09_1201	s	s	14	4	SIC	220	ABS	0	0	2	3	24_2_3	NA	NA	0	1	2.18698787689	None	None	None	None	1
3.0.1	2019_Mar_09_1201	s	s	14	4	SIC	221	3_2	3	2	2	3	23_2_3	1	1	1	0	0.693248987198	-25.0	76.0	-28.0	75.0	1
3.0.1	2019_Mar_09_1201	s	s	14	4	SIC	222	4_4	4	4	4	1	23_4_1	0	3	1	0	0.535333156586	348.0	-83.0	348.0	-84.0	1
3.0.1	2019_Mar_09_1201	s	s	14	4	SIC	223	ABS	0	0	1	4	24_1_4	NA	NA	0	1	1.72821307182	None	None	None	None	1
3.0.1	2019_Mar_09_1201	s	s	14	4	SIC	224	3_4	3	4	2	3	23_2_3	1	1	1	0	0.881417989731	-384.0	-83.0	-381.0	-80.0	1
3.0.1	2019_Mar_09_1201	s	s	14	4	SIC	225	4_1	4	1	3	2	23_3_2	1	1	1	0	0.434494018555	290.0	-412.0	292.0	-414.0	1
3.0.1	2019_Mar_09_1201	s	s	14	4	SIC	226	2_1	2	1	4	2	23_4_2	2	1	1	0	0.380655050278	320.0	-218.0	321.0	-226.0	1
3.0.1	2019_Mar_09_1201	s	s	14	4	SIC	227	2_2	2	2	2	4	23_2_4	0	2	1	0	0.971512794495	-212.0	-370.0	-218.0	-369.0	1
3.0.1	2019_Mar_09_1201	s	s	14	4	SIC	228	3_2	3	2	1	1	23_1_1	2	-1	1	0	0.709474802017	-147.0	-355.0	-149.0	-352.0	1
3.0.1	2019_Mar_09_1201	s	s	14	4	SIC	229	3_3	3	3	3	4	23_3_4	0	-1	1	0	0.569074869156	95.0	-185.0	104.0	-179.0	1
3.0.1	2019_Mar_09_1201	s	s	14	4	SIC	230	4_4	4	4	4	3	23_4_3	0	1	1	0	0.63444018364	-151.0	121.0	-150.0	120.0	1
3.0.1	2019_Mar_09_1201	s	s	14	4	SIC	231	ABS	0	0	3	3	24_3_3	NA	NA	0	1	3.03368210793	None	None	None	None	1
3.0.1	2019_Mar_09_1201	s	s	14	4	SIC	232	ABS	0	0	2	3	24_2_3	NA	NA	0	1	2.28098988533	None	None	None	None	1
3.0.1	2019_Mar_09_1201	s	s	14	4	SIC	233	ABS	0	0	1	3	24_1_3	NA	NA	0	1	4.12746095657	None	None	None	None	1
3.0.1	2019_Mar_09_1201	s	s	14	4	SIC	234	2_3	2	3	2	2	23_2_2	0	1	0	1	3.31080913544	-201.0	160.0	None	None	0
3.0.1	2019_Mar_09_1201	s	s	14	4	SIC	235	ABS	0	0	4	3	24_4_3	NA	NA	0	1	2.54266190529	None	None	None	None	1
3.0.1	2019_Mar_09_1201	s	s	14	4	SIC	236	ABS	0	0	4	3	24_4_3	NA	NA	0	1	2.58679389954	None	None	None	None	1
3.0.1	2019_Mar_09_1201	s	s	14	4	SIC	237	ABS	0	0	2	1	24_2_1	NA	NA	0	1	2.11627578735	None	None	None	None	1
3.0.1	2019_Mar_09_1201	s	s	14	4	SIC	238	1_3	1	3	4	1	23_4_1	3	2	1	0	0.437450170517	-78.0	-33.0	-72.0	-33.0	1
3.0.1	2019_Mar_09_1201	s	s	14	4	SIC	239	ABS	0	0	2	3	24_2_3	NA	NA	0	1	2.14505600929	None	None	None	None	1
3.0.1	2019_Mar_09_1201	s	s	14	4	SIC	240	ABS	0	0	2	1	24_2_1	NA	NA	0	1	1.76643514633	None	None	None	None	1
3.0.1	2019_Mar_09_1201	s	s	14	4	SIC	241	1_3	1	3	1	4	23_1_4	0	-1	1	0	1.18729400635	426.0	-396.0	426.0	-400.0	1
3.0.1	2019_Mar_09_1201	s	s	14	4	SIC	242	1_4	1	4	2	1	23_2_1	1	3	1	0	0.693112134933	-512.0	380.0	-517.0	382.0	1
3.0.1	2019_Mar_09_1201	s	s	14	4	SIC	243	1_1	1	1	4	2	23_4_2	3	1	1	0	0.402626037598	-502.0	-121.0	-502.0	-116.0	1
3.0.1	2019_Mar_09_1201	s	s	14	4	SIC	244	ABS	0	0	1	3	24_1_3	NA	NA	0	1	2.55551481247	None	None	None	None	1
3.0.1	2019_Mar_09_1201	s	s	14	4	SIC	245	ABS	0	0	1	1	24_1_1	NA	NA	0	1	2.0578520298	None	None	None	None	1
3.0.1	2019_Mar_09_1201	s	s	14	4	SIC	246	1_3	1	3	4	2	23_4_2	3	1	1	0	0.540392875671	452.0	-106.0	457.0	-113.0	1
3.0.1	2019_Mar_09_1201	s	s	14	4	SIC	247	1_3	1	3	2	1	23_2_1	1	2	1	0	0.481531143188	-159.0	329.0	-155.0	316.0	1
3.0.1	2019_Mar_09_1201	s	s	14	4	SIC	248	1_4	1	4	2	3	23_2_3	1	1	1	0	1.32529306412	-64.0	-220.0	-68.0	-221.0	1
3.0.1	2019_Mar_09_1201	s	s	14	4	SIC	249	4_1	4	1	3	4	23_3_4	1	3	1	0	0.402176856995	-39.0	339.0	-40.0	345.0	1
3.0.1	2019_Mar_09_1201	s	s	14	4	SIC	250	ABS	0	0	3	4	24_3_4	NA	NA	0	1	1.9095389843	None	None	None	None	1
3.0.1	2019_Mar_09_1201	s	s	14	4	SIC	251	ABS	0	0	1	2	24_1_2	NA	NA	0	1	1.75698304176	None	None	None	None	1
3.0.1	2019_Mar_09_1201	s	s	14	4	SIC	252	4_1	4	1	1	2	23_1_2	3	1	1	0	0.404145956039	-60.0	-135.0	-57.0	-133.0	1
3.0.1	2019_Mar_09_1201	s	s	14	4	SIC	253	ABS	0	0	3	2	24_3_2	NA	NA	0	1	1.51652598381	None	None	None	None	1
3.0.1	2019_Mar_09_1201	s	s	14	4	SIC	254	ABS	0	0	4	1	24_4_1	NA	NA	0	1	1.03431606293	None	None	None	None	1
3.0.1	2019_Mar_09_1201	s	s	14	4	SIC	255	2_3	2	3	1	1	23_1_1	-1	2	1	0	2.02511286736	423.0	142.0	428.0	148.0	1
3.0.1	2019_Mar_09_1201	s	s	14	4	SIC	256	2_1	2	1	3	4	23_3_4	1	3	1	0	0.428164958954	-174.0	178.0	-166.0	174.0	1
3.0.1	2019_Mar_09_1201	s	s	14	4	SIC	257	ABS	0	0	4	2	24_4_2	NA	NA	0	1	1.8966960907	None	None	None	None	1
3.0.1	2019_Mar_09_1201	s	s	14	4	SIC	258	ABS	0	0	3	3	24_3_3	NA	NA	0	1	1.45769500732	None	None	None	None	1
3.0.1	2019_Mar_09_1201	s	s	14	4	SIC	259	ABS	0	0	4	4	24_4_4	NA	NA	0	1	1.58062410355	None	None	None	None	1
3.0.1	2019_Mar_09_1201	s	s	14	4	SIC	260	4_3	4	3	2	2	23_2_2	2	1	1	0	0.434535980225	-29.0	-165.0	-29.0	-167.0	1
3.0.1	2019_Mar_09_1201	s	s	14	4	SIC	261	1_3	1	3	2	2	23_2_2	1	1	0	1	1.45204210281	539.0	348.0	None	None	0
3.0.1	2019_Mar_09_1201	s	s	14	4	SIC	262	ABS	0	0	2	1	24_2_1	NA	NA	0	1	1.97809910774	None	None	None	None	1
3.0.1	2019_Mar_09_1201	s	s	14	4	SIC	263	1_2	1	2	1	3	23_1_3	0	1	0	1	2.31632590294	-460.0	92.0	None	None	0
3.0.1	2019_Mar_09_1201	s	s	14	4	SIC	264	1_4	1	4	1	3	23_1_3	0	1	1	0	1.42243885994	-203.0	-395.0	-207.0	-399.0	1
3.0.1	2019_Mar_09_1201	s	s	14	4	SIC	265	ABS	0	0	1	4	24_1_4	NA	NA	0	1	2.08390808105	None	None	None	None	1
3.0.1	2019_Mar_09_1201	s	s	14	4	SIC	266	2_1	2	1	4	1	23_4_1	2	0	1	0	0.379593849182	251.0	159.0	251.0	156.0	1
3.0.1	2019_Mar_09_1201	s	s	14	4	SIC	267	ABS	0	0	2	3	24_2_3	NA	NA	0	1	1.95680594444	None	None	None	None	1
3.0.1	2019_Mar_09_1201	s	s	14	4	SIC	268	ABS	0	0	4	3	24_4_3	NA	NA	0	1	2.50742506981	None	None	None	None	1
3.0.1	2019_Mar_09_1201	s	s	14	4	SIC	269	ABS	0	0	2	2	24_2_2	NA	NA	0	1	3.31886601448	None	None	None	None	1
3.0.1	2019_Mar_09_1201	s	s	14	4	SIC	270	ABS	0	0	1	4	24_1_4	NA	NA	0	1	1.8863389492	None	None	None	None	1
3.0.1	2019_Mar_09_1201	s	s	14	4	SIC	271	4_3	4	3	4	2	23_4_2	0	1	0	1	2.26039290428	272.0	-297.0	None	None	0
3.0.1	2019_Mar_09_1201	s	s	14	4	SIC	272	3_1	3	1	3	4	23_3_4	0	3	1	0	0.575655937195	224.0	-21.0	217.0	-17.0	1
3.0.1	2019_Mar_09_1201	s	s	14	4	SIC	273	1_3	1	3	4	4	23_4_4	3	-1	1	0	0.493361949921	425.0	-291.0	418.0	-290.0	1
3.0.1	2019_Mar_09_1201	s	s	14	4	SIC	274	1_4	1	4	3	2	23_3_2	2	2	1	0	0.639348983765	-403.0	-183.0	-409.0	-192.0	1
3.0.1	2019_Mar_09_1201	s	s	14	4	SIC	275	ABS	0	0	3	2	24_3_2	NA	NA	0	1	2.0028731823	None	None	None	None	1
3.0.1	2019_Mar_09_1201	s	s	14	4	SIC	276	4_2	4	2	1	3	23_1_3	3	1	1	0	0.399132013321	-362.0	371.0	-356.0	363.0	1
3.0.1	2019_Mar_09_1201	s	s	14	4	SIC	277	4_4	4	4	3	2	23_3_2	1	2	1	0	0.422760009766	-461.0	264.0	-465.0	266.0	1
3.0.1	2019_Mar_09_1201	s	s	14	4	SIC	278	ABS	0	0	3	3	24_3_3	NA	NA	0	1	3.02484917641	None	None	None	None	1
3.0.1	2019_Mar_09_1201	s	s	14	4	SIC	279	1_2	1	2	4	2	23_4_2	3	0	1	0	0.452294826508	391.0	-343.0	384.0	-345.0	1
3.0.1	2019_Mar_09_1201	s	s	14	4	SIC	280	ABS	0	0	1	2	24_1_2	NA	NA	0	1	1.81059193611	None	None	None	None	1
3.0.1	2019_Mar_09_1201	s	s	14	4	SIC	281	3_2	3	2	4	1	23_4_1	-1	-1	1	0	0.469854831696	-431.0	207.0	-428.0	208.0	1
3.0.1	2019_Mar_09_1201	s	s	14	4	SIC	282	ABS	0	0	3	4	24_3_4	NA	NA	0	1	1.39898300171	None	None	None	None	1
3.0.1	2019_Mar_09_1201	s	s	14	4	SIC	283	ABS	0	0	3	2	24_3_2	NA	NA	0	1	2.50548100471	None	None	None	None	1
3.0.1	2019_Mar_09_1201	s	s	14	4	SIC	284	ABS	0	0	2	3	24_2_3	NA	NA	0	1	2.25331497192	None	None	None	None	1
3.0.1	2019_Mar_09_1201	s	s	14	4	SIC	285	ABS	0	0	1	2	24_1_2	NA	NA	0	1	2.33306717873	None	None	None	None	1
3.0.1	2019_Mar_09_1201	s	s	14	4	SIC	286	ABS	0	0	2	2	24_2_2	NA	NA	0	1	2.30972909927	None	None	None	None	1
3.0.1	2019_Mar_09_1201	s	s	14	4	SIC	287	4_4	4	4	3	1	23_3_1	1	3	1	0	0.545427083969	-238.0	92.0	-234.0	88.0	1
3.0.1	2019_Mar_09_1201	s	s	14	4	SIC	288	ABS	0	0	3	4	24_3_4	NA	NA	0	1	1.55472898483	None	None	None	None	1
3.0.1	2019_Mar_09_1201	s	s	14	4	SIC	289	2_2	2	2	1	1	23_1_1	-1	-1	0	1	2.73972916603	-155.0	-18.0	None	None	0
3.0.1	2019_Mar_09_1201	s	s	14	4	SIC	290	ABS	0	0	3	2	24_3_2	NA	NA	0	1	1.53359794617	None	None	None	None	1
3.0.1	2019_Mar_09_1201	s	s	14	4	SIC	291	1_2	1	2	2	4	23_2_4	1	2	1	0	0.587755918503	59.0	205.0	59.0	215.0	1
3.0.1	2019_Mar_09_1201	s	s	14	4	SIC	292	ABS	0	0	3	2	24_3_2	NA	NA	0	1	2.97998023033	None	None	None	None	1
3.0.1	2019_Mar_09_1201	s	s	14	4	SIC	293	ABS	0	0	1	4	24_1_4	NA	NA	0	1	2.32150387764	None	None	None	None	1
3.0.1	2019_Mar_09_1201	s	s	14	4	SIC	294	2_2	2	2	4	3	23_4_3	2	1	1	0	0.451205015182	450.0	-348.0	459.0	-348.0	1
3.0.1	2019_Mar_09_1201	s	s	14	4	SIC	295	ABS	0	0	1	3	24_1_3	NA	NA	0	1	2.09607505798	None	None	None	None	1
3.0.1	2019_Mar_09_1201	s	s	14	4	SIC	296	1_3	1	3	2	4	23_2_4	1	-1	1	0	0.975496053696	264.0	-331.0	263.0	-340.0	1
3.0.1	2019_Mar_09_1201	s	s	14	4	SIC	297	1_1	1	1	2	4	23_2_4	1	3	1	0	0.66972899437	-107.0	-185.0	-103.0	-186.0	1
3.0.1	2019_Mar_09_1201	s	s	14	4	SIC	298	4_1	4	1	1	4	23_1_4	3	3	1	0	0.411049127579	368.0	335.0	366.0	337.0	1
3.0.1	2019_Mar_09_1201	s	s	14	4	SIC	299	ABS	0	0	2	4	24_2_4	NA	NA	0	1	1.26595211029	None	None	None	None	1
3.0.1	2019_Mar_09_1201	s	s	14	4	SIC	300	ABS	0	0	3	2	24_3_2	NA	NA	0	1	1.510171175	None	None	None	None	1
3.0.1	2019_Mar_09_1201	s	s	14	4	SIC	301	ABS	0	0	1	2	24_1_2	NA	NA	0	1	1.87441897392	None	None	None	None	1
3.0.1	2019_Mar_09_1201	s	s	14	4	SIC	302	1_1	1	1	2	2	23_2_2	1	1	1	0	2.58676600456	-108.0	-51.0	-92.0	-43.0	1
3.0.1	2019_Mar_09_1201	s	s	14	4	SIC	303	ABS	0	0	1	2	24_1_2	NA	NA	0	1	1.46952414513	None	None	None	None	1
3.0.1	2019_Mar_09_1201	s	s	14	4	SIC	304	ABS	0	0	2	4	24_2_4	NA	NA	0	1	1.83787798882	None	None	None	None	1
3.0.1	2019_Mar_09_1201	s	s	14	4	SIC	305	2_3	2	3	1	3	23_1_3	-1	0	0	1	2.90431690216	422.0	-352.0	None	None	0
3.0.1	2019_Mar_09_1201	s	s	14	4	SIC	306	ABS	0	0	3	1	24_3_1	NA	NA	0	1	2.02554392815	None	None	None	None	1
3.0.1	2019_Mar_09_1201	s	s	14	4	SIC	307	3_1	3	1	3	2	23_3_2	0	1	0	1	2.03170204163	219.0	-161.0	None	None	0
3.0.1	2019_Mar_09_1201	s	s	14	4	SIC	308	1_4	1	4	4	3	23_4_3	3	1	1	0	0.437331914902	-470.0	298.0	-470.0	286.0	1
3.0.1	2019_Mar_09_1201	s	s	14	4	SIC	309	ABS	0	0	3	2	24_3_2	NA	NA	0	1	1.73115301132	None	None	None	None	1
3.0.1	2019_Mar_09_1201	s	s	14	4	SIC	310	2_3	2	3	1	2	23_1_2	-1	1	0	1	2.02224302292	-506.0	-177.0	None	None	0
3.0.1	2019_Mar_09_1201	s	s	14	4	SIC	311	ABS	0	0	2	3	24_2_3	NA	NA	0	1	2.43881201744	None	None	None	None	1
3.0.1	2019_Mar_09_1201	s	s	14	4	SIC	312	3_4	3	4	4	1	23_4_1	-1	3	1	0	0.782127141953	103.0	-311.0	111.0	-313.0	1
3.0.1	2019_Mar_09_1201	s	s	14	4	SIC	313	ABS	0	0	2	2	24_2_2	NA	NA	0	1	2.44560098648	None	None	None	None	1
3.0.1	2019_Mar_09_1201	s	s	14	4	SIC	314	2_3	2	3	4	3	23_4_3	2	0	1	0	0.434484004974	142.0	297.0	146.0	302.0	1
3.0.1	2019_Mar_09_1201	s	s	14	4	SIC	315	ABS	0	0	2	1	24_2_1	NA	NA	0	1	1.69285488129	None	None	None	None	1
3.0.1	2019_Mar_09_1201	s	s	14	4	SIC	316	ABS	0	0	1	2	24_1_2	NA	NA	0	1	2.26035189629	None	None	None	None	1
3.0.1	2019_Mar_09_1201	s	s	14	4	SIC	317	ABS	0	0	2	3	24_2_3	NA	NA	0	1	2.66262698174	None	None	None	None	1
3.0.1	2019_Mar_09_1201	s	s	14	4	SIC	318	3_3	3	3	4	2	23_4_2	-1	1	1	0	0.429328918457	194.0	30.0	185.0	26.0	1
3.0.1	2019_Mar_09_1201	s	s	14	4	SIC	319	ABS	0	0	2	4	24_2_4	NA	NA	0	1	2.0251250267	None	None	None	None	1
3.0.1	2019_Mar_09_1201	s	s	14	4	SIC	320	ABS	0	0	3	2	24_3_2	NA	NA	0	1	2.08396220207	None	None	None	None	1
3.0.1	2019_Mar_09_1201	s	s	14	4	SIC	321	2_1	2	1	3	3	23_3_3	1	2	1	0	0.73649597168	133.0	-77.0	131.0	-86.0	1
3.0.1	2019_Mar_09_1201	s	s	14	4	SIC	322	ABS	0	0	4	3	24_4_3	NA	NA	0	1	1.65769195557	None	None	None	None	1
3.0.1	2019_Mar_09_1201	s	s	14	4	SIC	323	ABS	0	0	2	1	24_2_1	NA	NA	0	1	1.48128986359	None	None	None	None	1
3.0.1	2019_Mar_09_1201	s	s	14	4	SIC	324	ABS	0	0	2	1	24_2_1	NA	NA	0	1	2.15807890892	None	None	None	None	1
3.0.1	2019_Mar_09_1201	s	s	14	4	SIC	325	ABS	0	0	3	4	24_3_4	NA	NA	0	1	2.26921606064	None	None	None	None	1
3.0.1	2019_Mar_09_1201	s	s	14	4	SIC	326	ABS	0	0	3	2	24_3_2	NA	NA	1	0	1.82230210304	None	None	-152.0	-259.0	0
3.0.1	2019_Mar_09_1201	s	s	14	4	SIC	327	ABS	0	0	1	3	24_1_3	NA	NA	0	1	2.25753188133	None	None	None	None	1
3.0.1	2019_Mar_09_1201	s	s	14	4	SIC	328	1_1	1	1	3	4	23_3_4	2	3	1	0	0.469782114029	-173.0	136.0	-173.0	135.0	1
3.0.1	2019_Mar_09_1201	s	s	14	4	SIC	329	4_1	4	1	4	4	23_4_4	0	3	1	0	0.764272928238	369.0	150.0	371.0	153.0	1
3.0.1	2019_Mar_09_1201	s	s	14	4	SIC	330	ABS	0	0	1	3	24_1_3	NA	NA	0	1	2.04592394829	None	None	None	None	1
3.0.1	2019_Mar_09_1201	s	s	14	4	SIC	331	ABS	0	0	3	2	24_3_2	NA	NA	0	1	2.24573802948	None	None	None	None	1
3.0.1	2019_Mar_09_1201	s	s	14	4	SIC	332	ABS	0	0	1	2	24_1_2	NA	NA	0	1	2.01338195801	None	None	None	None	1
3.0.1	2019_Mar_09_1201	s	s	14	4	SIC	333	ABS	0	0	3	3	24_3_3	NA	NA	0	1	2.05113005638	None	None	None	None	1
3.0.1	2019_Mar_09_1201	s	s	14	4	SIC	334	ABS	0	0	4	1	24_4_1	NA	NA	0	1	2.07614898682	None	None	None	None	1
3.0.1	2019_Mar_09_1201	s	s	14	4	SIC	335	4_2	4	2	2	3	23_2_3	2	1	1	0	0.446578979492	125.0	-43.0	134.0	-38.0	1
3.0.1	2019_Mar_09_1201	s	s	14	4	SIC	336	3_3	3	3	4	1	23_4_1	-1	2	1	0	0.411413908005	240.0	-12.0	233.0	-14.0	1
3.0.1	2019_Mar_09_1201	s	s	14	4	SIC	337	ABS	0	0	4	4	24_4_4	NA	NA	0	1	2.16338920593	None	None	None	None	1
3.0.1	2019_Mar_09_1201	s	s	14	4	SIC	338	2_2	2	2	2	3	23_2_3	0	1	0	1	2.30458498001	-157.0	355.0	None	None	0
3.0.1	2019_Mar_09_1201	s	s	14	4	SIC	339	4_2	4	2	4	3	23_4_3	0	1	0	1	1.97302484512	-163.0	330.0	None	None	0
3.0.1	2019_Mar_09_1201	s	s	14	4	SIC	340	ABS	0	0	4	2	24_4_2	NA	NA	0	1	2.12812900543	None	None	None	None	1
3.0.1	2019_Mar_09_1201	s	s	14	4	SIC	341	3_4	3	4	2	2	23_2_2	1	2	1	0	0.555072069168	171.0	-230.0	173.0	-228.0	1
3.0.1	2019_Mar_09_1201	s	s	14	4	SIC	342	ABS	0	0	2	2	24_2_2	NA	NA	0	1	2.34003686905	None	None	None	None	1
3.0.1	2019_Mar_09_1201	s	s	14	4	SIC	343	ABS	0	0	1	3	24_1_3	NA	NA	0	1	2.01335406303	None	None	None	None	1
3.0.1	2019_Mar_09_1201	s	s	14	4	SIC	344	ABS	0	0	2	3	24_2_3	NA	NA	0	1	2.07472491264	None	None	None	None	1
3.0.1	2019_Mar_09_1201	s	s	14	4	SIC	345	ABS	0	0	4	3	24_4_3	NA	NA	0	1	3.18664193153	None	None	None	None	1
3.0.1	2019_Mar_09_1201	s	s	14	4	SIC	346	1_1	1	1	3	2	23_3_2	2	1	1	0	0.496187925339	-125.0	160.0	-121.0	161.0	1
3.0.1	2019_Mar_09_1201	s	s	14	4	SIC	347	ABS	0	0	3	4	24_3_4	NA	NA	0	1	1.82234787941	None	None	None	None	1
3.0.1	2019_Mar_09_1201	s	s	14	4	SIC	348	3_3	3	3	1	4	23_1_4	2	-1	1	0	0.481529951096	-60.0	313.0	-68.0	313.0	1
3.0.1	2019_Mar_09_1201	s	s	14	4	SIC	349	3_2	3	2	3	3	23_3_3	0	1	0	1	4.08332705498	-126.0	-359.0	None	None	0
3.0.1	2019_Mar_09_1201	s	s	14	4	SIC	350	ABS	0	0	2	2	24_2_2	NA	NA	0	1	2.76320695877	None	None	None	None	1
3.0.1	2019_Mar_09_1201	s	s	14	4	SIC	351	ABS	0	0	1	3	24_1_3	NA	NA	0	1	2.4381608963	None	None	None	None	1
3.0.1	2019_Mar_09_1201	s	s	14	4	SIC	352	ABS	0	0	2	1	24_2_1	NA	NA	0	1	2.80307817459	None	None	None	None	1
3.0.1	2019_Mar_09_1201	s	s	14	4	SIC	353	4_2	4	2	2	4	23_2_4	2	2	1	0	0.696074008942	251.0	-315.0	257.0	-321.0	1
3.0.1	2019_Mar_09_1201	s	s	14	4	SIC	354	ABS	0	0	3	1	24_3_1	NA	NA	0	1	2.1088078022	None	None	None	None	1
3.0.1	2019_Mar_09_1201	s	s	14	4	SIC	355	ABS	0	0	2	4	24_2_4	NA	NA	0	1	2.04576015472	None	None	None	None	1
3.0.1	2019_Mar_09_1201	s	s	14	4	SIC	356	ABS	0	0	3	1	24_3_1	NA	NA	0	1	1.74544095993	None	None	None	None	1
3.0.1	2019_Mar_09_1201	s	s	14	4	SIC	357	2_1	2	1	2	4	23_2_4	0	3	1	0	0.540421009064	-330.0	94.0	-329.0	93.0	1
3.0.1	2019_Mar_09_1201	s	s	14	4	SIC	358	ABS	0	0	2	1	24_2_1	NA	NA	0	1	1.87590312958	None	None	None	None	1
3.0.1	2019_Mar_09_1201	s	s	14	4	SIC	359	ABS	0	0	3	1	24_3_1	NA	NA	0	1	1.42249894142	None	None	None	None	1
3.0.1	2019_Mar_09_1201	s	s	14	4	SIC	360	1_1	1	1	1	4	23_1_4	0	3	1	0	0.634392023087	-56.0	-204.0	-47.0	-195.0	1
3.0.1	2019_Mar_09_1201	s	s	14	4	SIC	361	3_4	3	4	3	1	23_3_1	0	3	1	0	1.10483384132	256.0	-63.0	255.0	-63.0	1
3.0.1	2019_Mar_09_1201	s	s	14	4	SIC	362	ABS	0	0	2	2	24_2_2	NA	NA	0	1	1.41063284874	None	None	None	None	1
3.0.1	2019_Mar_09_1201	s	s	14	4	SIC	363	4_4	4	4	2	4	23_2_4	2	0	1	0	0.434476137161	-89.0	-55.0	-82.0	-51.0	1
3.0.1	2019_Mar_09_1201	s	s	14	4	SIC	364	1_3	1	3	3	3	23_3_3	2	0	1	0	0.47457408905	-7.0	-58.0	-7.0	-56.0	1
3.0.1	2019_Mar_09_1201	s	s	14	4	SIC	365	ABS	0	0	1	1	24_1_1	NA	NA	0	1	2.43677306175	None	None	None	None	1
3.0.1	2019_Mar_09_1201	s	s	14	4	SIC	366	1_3	1	3	4	3	23_4_3	3	0	1	0	0.428855895996	469.0	128.0	471.0	130.0	1
3.0.1	2019_Mar_09_1201	s	s	14	4	SIC	367	ABS	0	0	3	3	24_3_3	NA	NA	0	1	2.35560393333	None	None	None	None	1
3.0.1	2019_Mar_09_1201	s	s	14	4	SIC	368	2_4	2	4	1	4	23_1_4	-1	0	0	1	1.99867010117	-135.0	-329.0	None	None	0
3.0.1	2019_Mar_09_1201	s	s	14	4	SIC	369	2_4	2	4	4	1	23_4_1	2	3	1	0	0.469766139984	16.0	-206.0	11.0	-215.0	1
3.0.1	2019_Mar_09_1201	s	s	14	4	SIC	370	ABS	0	0	1	2	24_1_2	NA	NA	0	1	1.78317117691	None	None	None	None	1
3.0.1	2019_Mar_09_1201	s	s	14	4	SIC	371	1_1	1	1	3	3	23_3_3	2	2	1	0	0.763746023178	-210.0	264.0	-199.0	265.0	1
3.0.1	2019_Mar_09_1201	s	s	14	4	SIC	372	1_4	1	4	4	2	23_4_2	3	2	1	0	0.427456855774	-77.0	384.0	-74.0	374.0	1
3.0.1	2019_Mar_09_1201	s	s	14	4	SIC	373	1_3	1	3	3	1	23_3_1	2	2	1	0	1.19261717796	498.0	-300.0	505.0	-301.0	1
3.0.1	2019_Mar_09_1201	s	s	14	4	SIC	374	ABS	0	0	3	4	24_3_4	NA	NA	0	1	1.91302108765	None	None	None	None	1
3.0.1	2019_Mar_09_1201	s	s	14	4	SIC	375	ABS	0	0	2	2	24_2_2	NA	NA	0	1	1.96633386612	None	None	None	None	1
3.0.1	2019_Mar_09_1201	s	s	14	4	SIC	376	ABS	0	0	1	1	24_1_1	NA	NA	0	1	2.11638903618	None	None	None	None	1
3.0.1	2019_Mar_09_1201	s	s	14	4	SIC	377	ABS	0	0	1	2	24_1_2	NA	NA	0	1	3.39277720451	None	None	None	None	1
3.0.1	2019_Mar_09_1201	s	s	14	4	SIC	378	ABS	0	0	1	4	24_1_4	NA	NA	0	1	2.3514919281	None	None	None	None	1
3.0.1	2019_Mar_09_1201	s	s	14	4	SIC	379	ABS	0	0	3	3	24_3_3	NA	NA	0	1	2.29274582863	None	None	None	None	1
3.0.1	2019_Mar_09_1201	s	s	14	4	SIC	380	2_3	2	3	1	4	23_1_4	-1	-1	0	1	2.98703813553	20.0	397.0	None	None	0
3.0.1	2019_Mar_09_1201	s	s	14	4	SIC	381	ABS	0	0	4	2	24_4_2	NA	NA	0	1	2.95138812065	None	None	None	None	1
3.0.1	2019_Mar_09_1201	s	s	14	4	SIC	382	3_1	3	1	3	3	23_3_3	0	2	0	1	1.32826709747	-273.0	335.0	None	None	0
3.0.1	2019_Mar_09_1201	s	s	14	4	SIC	383	3_4	3	4	2	1	23_2_1	1	3	1	0	0.587375164032	-115.0	356.0	-115.0	337.0	1
3.0.1	2019_Mar_09_1201	s	s	14	4	SIC	384	2_4	2	4	4	3	23_4_3	2	1	1	0	0.427840948105	2.0	-99.0	5.0	-108.0	1
3.0.1	2019_Mar_09_1201	s	s	14	4	SIC	385	ABS	0	0	2	2	24_2_2	NA	NA	0	1	1.6785390377	None	None	None	None	1
3.0.1	2019_Mar_09_1201	s	s	14	4	SIC	386	ABS	0	0	4	4	24_4_4	NA	NA	0	1	1.78528904915	None	None	None	None	1
3.0.1	2019_Mar_09_1201	s	s	14	4	SIC	387	ABS	0	0	4	1	24_4_1	NA	NA	0	1	1.6723549366	None	None	None	None	1
3.0.1	2019_Mar_09_1201	s	s	14	4	SIC	388	4_3	4	3	1	4	23_1_4	3	-1	1	0	0.45112991333	538.0	-107.0	543.0	-108.0	1
3.0.1	2019_Mar_09_1201	s	s	14	4	SIC	389	4_4	4	4	3	3	23_3_3	1	1	1	0	0.768609046936	206.0	-366.0	211.0	-367.0	1
3.0.1	2019_Mar_09_1201	s	s	14	4	SIC	390	ABS	0	0	1	4	24_1_4	NA	NA	0	1	1.29814505577	None	None	None	None	1
3.0.1	2019_Mar_09_1201	s	s	14	4	SIC	391	3_2	3	2	3	1	23_3_1	0	-1	0	1	1.53252696991	104.0	-284.0	None	None	0
3.0.1	2019_Mar_09_1201	s	s	14	4	SIC	392	4_3	4	3	3	2	23_3_2	1	1	1	0	0.446701049805	101.0	-249.0	97.0	-249.0	1
3.0.1	2019_Mar_09_1201	s	s	14	4	SIC	393	3_4	3	4	1	1	23_1_1	2	3	1	0	0.528554916382	340.0	18.0	335.0	10.0	1
3.0.1	2019_Mar_09_1201	s	s	14	4	SIC	394	ABS	0	0	1	3	24_1_3	NA	NA	0	1	2.85460996628	None	None	None	None	1
3.0.1	2019_Mar_09_1201	s	s	14	4	SIC	395	ABS	0	0	3	4	24_3_4	NA	NA	0	1	1.20808887482	None	None	None	None	1
3.0.1	2019_Mar_09_1201	s	s	14	4	SIC	396	ABS	0	0	4	1	24_4_1	NA	NA	0	1	1.54013800621	None	None	None	None	1
3.0.1	2019_Mar_09_1201	s	s	14	4	SIC	397	3_4	3	4	4	4	23_4_4	-1	0	1	0	0.693196058273	482.0	-150.0	487.0	-149.0	1
3.0.1	2019_Mar_09_1201	s	s	14	4	SIC	398	ABS	0	0	2	3	24_2_3	NA	NA	0	1	1.14638614655	None	None	None	None	1
3.0.1	2019_Mar_09_1201	s	s	14	4	SIC	399	3_1	3	1	2	4	23_2_4	1	3	1	0	0.497175931931	-384.0	-14.0	-378.0	-19.0	1
3.0.1	2019_Mar_09_1201	s	s	14	4	SIC	400	ABS	0	0	4	4	24_4_4	NA	NA	0	1	1.32879400253	None	None	None	None	1
3.0.1	2019_Mar_09_1201	s	s	14	4	SIC	401	ABS	0	0	1	1	24_1_1	NA	NA	0	1	1.09313392639	None	None	None	None	1
3.0.1	2019_Mar_09_1201	s	s	14	4	SIC	402	3_2	3	2	1	2	23_1_2	2	0	1	0	1.01571512222	346.0	-282.0	350.0	-281.0	1
3.0.1	2019_Mar_09_1201	s	s	14	4	SIC	403	2_4	2	4	3	1	23_3_1	1	3	1	0	0.622641086578	165.0	55.0	165.0	45.0	1
3.0.1	2019_Mar_09_1201	s	s	14	4	SIC	404	ABS	0	0	4	4	24_4_4	NA	NA	0	1	1.05780982971	None	None	None	None	1
3.0.1	2019_Mar_09_1201	s	s	14	4	SIC	405	ABS	0	0	1	1	24_1_1	NA	NA	0	1	1.14919996262	None	None	None	None	1
3.0.1	2019_Mar_09_1201	s	s	14	4	SIC	406	2_4	2	4	2	3	23_2_3	0	1	1	0	0.613809108734	99.0	52.0	98.0	43.0	1
3.0.1	2019_Mar_09_1201	s	s	14	4	SIC	407	ABS	0	0	4	2	24_4_2	NA	NA	0	1	1.29303193092	None	None	None	None	1
3.0.1	2019_Mar_09_1201	s	s	14	4	SIC	408	2_1	2	1	4	4	23_4_4	2	3	1	0	0.423157930374	-401.0	64.0	-402.0	56.0	1
3.0.1	2019_Mar_09_1201	s	s	14	4	SIC	409	2_1	2	1	3	1	23_3_1	1	0	1	0	0.569858074188	35.0	161.0	39.0	162.0	1
3.0.1	2019_Mar_09_1201	s	s	14	4	SIC	410	1_4	1	4	3	1	23_3_1	2	3	1	0	0.458457946777	-269.0	-13.0	-266.0	-9.0	1
3.0.1	2019_Mar_09_1201	s	s	14	4	SIC	411	ABS	0	0	1	1	24_1_1	NA	NA	0	1	1.19012999535	None	None	None	None	1
3.0.1	2019_Mar_09_1201	s	s	14	4	SIC	412	2_2	2	2	4	1	23_4_1	2	-1	1	0	0.390269041061	-247.0	190.0	-239.0	190.0	1
3.0.1	2019_Mar_09_1201	s	s	14	4	SIC	413	ABS	0	0	4	2	24_4_2	NA	NA	0	1	1.15691900253	None	None	None	None	1
3.0.1	2019_Mar_09_1201	s	s	14	4	SIC	414	4_3	4	3	1	3	23_1_3	3	0	1	0	0.46980881691	267.0	-257.0	278.0	-247.0	1
3.0.1	2019_Mar_09_1201	s	s	14	4	SIC	415	ABS	0	0	2	4	24_2_4	NA	NA	0	1	1.08429503441	None	None	None	None	1
3.0.1	2019_Mar_09_1201	s	s	14	4	SIC	416	3_2	3	2	1	3	23_1_3	2	1	1	0	0.486886024475	20.0	98.0	21.0	93.0	1
3.0.1	2019_Mar_09_1201	s	s	14	4	SIC	417	3_3	3	3	2	1	23_2_1	1	2	1	0	0.966716051102	-404.0	164.0	-406.0	157.0	1
3.0.1	2019_Mar_09_1201	s	s	14	4	SIC	418	ABS	0	0	3	3	24_3_3	NA	NA	0	1	1.45773506165	None	None	None	None	1
3.0.1	2019_Mar_09_1201	s	s	14	4	SIC	419	3_3	3	3	1	2	23_1_2	2	1	1	0	0.516775846481	250.0	56.0	255.0	55.0	1
3.0.1	2019_Mar_09_1201	s	s	14	4	SIC	420	ABS	0	0	2	1	24_2_1	NA	NA	0	1	1.5005068779	None	None	None	None	1
3.0.1	2019_Mar_09_1201	s	s	14	4	SIC	421	1_4	1	4	4	1	23_4_1	3	3	1	0	0.410916090012	-89.0	-293.0	-88.0	-296.0	1
3.0.1	2019_Mar_09_1201	s	s	14	4	SIC	422	3_4	3	4	3	3	23_3_3	0	1	0	1	1.64582920074	-442.0	-121.0	None	None	0
3.0.1	2019_Mar_09_1201	s	s	14	4	SIC	423	4_4	4	4	1	2	23_1_2	3	2	1	0	0.745214939117	535.0	411.0	529.0	407.0	1
3.0.1	2019_Mar_09_1201	s	s	14	4	SIC	424	ABS	0	0	1	3	24_1_3	NA	NA	0	1	1.50148510933	None	None	None	None	1
3.0.1	2019_Mar_09_1201	s	s	14	4	SIC	425	3_2	3	2	2	2	23_2_2	1	0	1	0	0.709050178528	128.0	337.0	127.0	330.0	1
3.0.1	2019_Mar_09_1201	s	s	14	4	SIC	426	ABS	0	0	1	4	24_1_4	NA	NA	0	1	2.04604816437	None	None	None	None	1
3.0.1	2019_Mar_09_1201	s	s	14	4	SIC	427	ABS	0	0	2	2	24_2_2	NA	NA	0	1	1.2929930687	None	None	None	None	1
3.0.1	2019_Mar_09_1201	s	s	14	4	SIC	428	ABS	0	0	1	1	24_1_1	NA	NA	0	1	0.907850027084	None	None	None	None	1
3.0.1	2019_Mar_09_1201	s	s	14	4	SIC	429	ABS	0	0	3	1	24_3_1	NA	NA	0	1	1.86937904358	None	None	None	None	1
3.0.1	2019_Mar_09_1201	s	s	14	4	SIC	430	3_1	3	1	1	3	23_1_3	2	2	1	0	0.619698047638	326.0	151.0	331.0	149.0	1
3.0.1	2019_Mar_09_1201	s	s	14	4	SIC	431	ABS	0	0	2	4	24_2_4	NA	NA	0	1	1.61671805382	None	None	None	None	1
3.0.1	2019_Mar_09_1201	s	s	14	4	SIC	432	4_2	4	2	1	2	23_1_2	3	0	1	0	0.463212013245	48.0	-138.0	50.0	-130.0	1
3.0.1	2019_Mar_09_1201	s	s	14	4	SIC	433	4_1	4	1	1	3	23_1_3	3	2	1	0	0.399605035782	350.0	41.0	363.0	49.0	1
3.0.1	2019_Mar_09_1201	s	s	14	4	SIC	434	ABS	0	0	2	1	24_2_1	NA	NA	0	1	1.50125694275	None	None	None	None	1
3.0.1	2019_Mar_09_1201	s	s	14	4	SIC	435	ABS	0	0	4	3	24_4_3	NA	NA	0	1	1.71643781662	None	None	None	None	1
3.0.1	2019_Mar_09_1201	s	s	14	4	SIC	436	2_4	2	4	1	2	23_1_2	-1	2	1	0	0.533200979233	-23.0	36.0	-24.0	35.0	1
3.0.1	2019_Mar_09_1201	s	s	14	4	SIC	437	ABS	0	0	3	1	24_3_1	NA	NA	0	1	2.05785894394	None	None	None	None	1
3.0.1	2019_Mar_09_1201	s	s	14	4	SIC	438	1_1	1	1	2	3	23_2_3	1	2	1	0	1.1025390625	-364.0	405.0	-362.0	390.0	1
3.0.1	2019_Mar_09_1201	s	s	14	4	SIC	439	ABS	0	0	1	4	24_1_4	NA	NA	0	1	1.60448694229	None	None	None	None	1
3.0.1	2019_Mar_09_1201	s	s	14	4	SIC	440	ABS	0	0	3	2	24_3_2	NA	NA	0	1	1.89888596535	None	None	None	None	1
3.0.1	2019_Mar_09_1201	s	s	14	4	SIC	441	ABS	0	0	1	4	24_1_4	NA	NA	0	1	1.99635696411	None	None	None	None	1
3.0.1	2019_Mar_09_1201	s	s	14	4	SIC	442	4_4	4	4	1	3	23_1_3	3	1	1	0	0.470173835754	-449.0	-181.0	-447.0	-181.0	1
3.0.1	2019_Mar_09_1201	s	s	14	4	SIC	443	ABS	0	0	4	1	24_4_1	NA	NA	0	1	2.00448608398	None	None	None	None	1
3.0.1	2019_Mar_09_1201	s	s	14	4	SIC	444	ABS	0	0	4	1	24_4_1	NA	NA	0	1	1.48775219917	None	None	None	None	1
3.0.1	2019_Mar_09_1201	s	s	14	4	SIC	445	ABS	0	0	4	3	24_4_3	NA	NA	0	1	1.81060099602	None	None	None	None	1
3.0.1	2019_Mar_09_1201	s	s	14	4	SIC	446	2_1	2	1	3	2	23_3_2	1	1	1	0	1.03434491158	-153.0	-299.0	-153.0	-295.0	1
3.0.1	2019_Mar_09_1201	s	s	14	4	SIC	447	ABS	0	0	2	3	24_2_3	NA	NA	0	1	3.56036806107	None	None	None	None	1
3.0.1	2019_Mar_09_1201	s	s	14	4	SIC	448	ABS	0	0	3	4	24_3_4	NA	NA	0	1	1.67237591743	None	None	None	None	1
3.0.1	2019_Mar_09_1201	s	s	14	4	SIC	449	ABS	0	0	1	2	24_1_2	NA	NA	0	1	1.4812951088	None	None	None	None	1
3.0.1	2019_Mar_09_1201	s	s	14	4	SIC	450	4_4	4	4	2	2	23_2_2	2	2	1	0	0.415937185287	-444.0	-260.0	-444.0	-257.0	1
3.0.1	2019_Mar_09_1201	s	s	14	4	SIC	451	ABS	0	0	1	3	24_1_3	NA	NA	0	1	2.64552998543	None	None	None	None	1
3.0.1	2019_Mar_09_1201	s	s	14	4	SIC	452	1_1	1	1	3	1	23_3_1	2	0	1	0	0.575611114502	-452.0	24.0	-442.0	23.0	1
3.0.1	2019_Mar_09_1201	s	s	14	4	SIC	453	ABS	0	0	4	1	24_4_1	NA	NA	0	1	1.486369133	None	None	None	None	1
3.0.1	2019_Mar_09_1201	s	s	14	4	SIC	454	3_3	3	3	3	2	23_3_2	0	1	1	0	1.36365413666	267.0	372.0	274.0	367.0	1
3.0.1	2019_Mar_09_1201	s	s	14	4	SIC	455	4_1	4	1	4	3	23_4_3	0	2	0	1	2.44589686394	248.0	338.0	None	None	0
3.0.1	2019_Mar_09_1201	s	s	14	4	SIC	456	ABS	0	0	1	1	24_1_1	NA	NA	0	1	1.71648001671	None	None	None	None	1
3.0.1	2019_Mar_09_1201	s	s	14	4	SIC	457	ABS	0	0	4	4	24_4_4	NA	NA	0	1	1.29819107056	None	None	None	None	1
3.0.1	2019_Mar_09_1201	s	s	14	4	SIC	458	2_4	2	4	3	2	23_3_2	1	2	1	0	0.509932041168	-341.0	91.0	-357.0	99.0	1
3.0.1	2019_Mar_09_1201	s	s	14	4	SIC	459	ABS	0	0	1	2	24_1_2	NA	NA	0	1	2.5632648468	None	None	None	None	1
3.0.1	2019_Mar_09_1201	s	s	14	4	SIC	460	3_2	3	2	1	4	23_1_4	2	2	1	0	0.505092144012	-254.0	366.0	-250.0	360.0	1
3.0.1	2019_Mar_09_1201	s	s	14	4	SIC	461	1_2	1	2	2	1	23_2_1	1	-1	0	1	1.76818704605	-494.0	-219.0	None	None	0
3.0.1	2019_Mar_09_1201	s	s	14	4	SIC	462	ABS	0	0	3	3	24_3_3	NA	NA	1	0	0.822880029678	None	None	-165.0	218.0	0
3.0.1	2019_Mar_09_1201	s	s	14	4	SIC	463	2_3	2	3	4	2	23_4_2	2	1	1	0	0.505105018616	-290.0	18.0	-285.0	10.0	1
3.0.1	2019_Mar_09_1201	s	s	14	4	SIC	464	2_3	2	3	3	2	23_3_2	1	1	1	0	0.737180948257	94.0	313.0	103.0	310.0	1
3.0.1	2019_Mar_09_1201	s	s	14	4	SIC	465	2_1	2	1	1	2	23_1_2	-1	1	0	1	1.2342209816	5.0	-272.0	None	None	0
3.0.1	2019_Mar_09_1201	s	s	14	4	SIC	466	3_3	3	3	2	4	23_2_4	1	-1	1	0	0.587357997894	-358.0	-375.0	-359.0	-388.0	1
3.0.1	2019_Mar_09_1201	s	s	14	4	SIC	467	2_1	2	1	4	3	23_4_3	2	2	1	0	0.458047151566	421.0	-329.0	423.0	-324.0	1
3.0.1	2019_Mar_09_1201	s	s	14	4	SIC	468	ABS	0	0	4	4	24_4_4	NA	NA	0	1	1.49587488174	None	None	None	None	1
3.0.1	2019_Mar_09_1201	s	s	14	4	SIC	469	2_1	2	1	2	3	23_2_3	0	2	1	0	1.0254611969	-100.0	209.0	-105.0	204.0	1
3.0.1	2019_Mar_09_1201	s	s	14	4	SIC	470	2_4	2	4	2	1	23_2_1	0	3	1	0	0.613790988922	-524.0	409.0	-518.0	403.0	1
3.0.1	2019_Mar_09_1201	s	s	14	4	SIC	471	ABS	0	0	3	2	24_3_2	NA	NA	0	1	1.93981695175	None	None	None	None	1
3.0.1	2019_Mar_09_1201	s	s	14	4	SIC	472	ABS	0	0	4	2	24_4_2	NA	NA	0	1	2.7044069767	None	None	None	None	1
3.0.1	2019_Mar_09_1201	s	s	14	4	SIC	473	1_3	1	3	1	1	23_1_1	0	2	0	1	1.24608802795	457.0	-357.0	None	None	0
3.0.1	2019_Mar_09_1201	s	s	14	4	SIC	474	4_2	4	2	4	1	23_4_1	0	-1	1	0	1.0699930191	244.0	64.0	-131.0	99.0	0
3.0.1	2019_Mar_09_1201	s	s	14	4	SIC	475	3_4	3	4	1	2	23_1_2	2	2	1	0	0.54035115242	-333.0	-106.0	-330.0	-105.0	1
3.0.1	2019_Mar_09_1201	s	s	14	4	SIC	476	ABS	0	0	1	4	24_1_4	NA	NA	0	1	2.32807302475	None	None	None	None	1
3.0.1	2019_Mar_09_1201	s	s	14	4	SIC	477	4_2	4	2	3	4	23_3_4	1	2	1	0	0.481634140015	318.0	-276.0	319.0	-280.0	1
3.0.1	2019_Mar_09_1201	s	s	14	4	SIC	478	4_2	4	2	3	1	23_3_1	1	-1	1	0	0.437394142151	74.0	-87.0	69.0	-85.0	1
3.0.1	2019_Mar_09_1201	s	s	14	4	SIC	479	ABS	0	0	4	4	24_4_4	NA	NA	0	1	2.28578710556	None	None	None	None	1
3.0.1	2019_Mar_09_1201	s	s	14	4	SIC	480	2_2	2	2	3	3	23_3_3	1	1	1	0	2.24390506744	467.0	-335.0	480.0	-331.0	1
