Version	Date	Stimuli	Method	Subject	Session	Condition	Trial	Target	TColor	TShape	DColor	DShape	Distractors	Channel1	Channel2	LMouseButton	RMouseButton	RT	TargetX	TargetY	ResponseX	ResponseY	Correct
3.0.1	2019_Mar_08_1658	s	s	14	3	Capacity	1	ABS	0	0	2	1	24_2_1	NA	NA	1	0	0.940645933151	None	None	-181.0	189.0	0
3.0.1	2019_Mar_08_1658	s	s	14	3	Capacity	2	ABS	0	0	2	1	24_2_1	NA	NA	0	1	1.48646712303	None	None	None	None	1
3.0.1	2019_Mar_08_1658	s	s	14	3	Capacity	3	ABS	0	0	3	1	24_3_1	NA	NA	1	0	1.99874591827	None	None	299.0	-68.0	0
3.0.1	2019_Mar_08_1658	s	s	14	3	Capacity	4	2_1	2	1	1	1	23_1_1	-1	0	0	1	2.00345301628	140.0	-394.0	None	None	0
3.0.1	2019_Mar_08_1658	s	s	14	3	Capacity	5	ABS	0	0	4	1	24_4_1	NA	NA	1	0	0.966645956039	None	None	-255.0	72.0	0
3.0.1	2019_Mar_08_1658	s	s	14	3	Capacity	6	3_1	3	1	2	1	23_2_1	1	0	1	0	0.627811908722	321.0	208.0	329.0	205.0	1
3.0.1	2019_Mar_08_1658	s	s	14	3	Capacity	7	3_1	3	1	1	1	23_1_1	2	0	1	0	0.510237932205	320.0	143.0	324.0	143.0	1
3.0.1	2019_Mar_08_1658	s	s	14	3	Capacity	8	1_1	1	1	3	1	23_3_1	2	0	1	0	0.469696998596	-224.0	82.0	-223.0	87.0	1
3.0.1	2019_Mar_08_1658	s	s	14	3	Capacity	9	4_1	4	1	1	1	23_1_1	3	0	1	0	0.501908063889	60.0	81.0	59.0	81.0	1
3.0.1	2019_Mar_08_1658	s	s	14	3	Capacity	10	ABS	0	0	1	1	24_1_1	NA	NA	0	1	1.01408886909	None	None	None	None	1
3.0.1	2019_Mar_08_1658	s	s	14	3	Capacity	11	4_1	4	1	2	1	23_2_1	2	0	1	0	0.469876050949	-234.0	14.0	-239.0	3.0	1
3.0.1	2019_Mar_08_1658	s	s	14	3	Capacity	12	ABS	0	0	1	1	24_1_1	NA	NA	0	1	1.38714599609	None	None	None	None	1
3.0.1	2019_Mar_08_1658	s	s	14	3	Capacity	13	3_1	3	1	4	1	23_4_1	-1	0	1	0	0.385992050171	-103.0	-107.0	-98.0	-107.0	1
3.0.1	2019_Mar_08_1658	s	s	14	3	Capacity	14	2_1	2	1	3	1	23_3_1	1	0	1	0	1.21078300476	466.0	346.0	468.0	347.0	1
3.0.1	2019_Mar_08_1658	s	s	14	3	Capacity	15	ABS	0	0	1	1	24_1_1	NA	NA	1	0	0.822777986526	None	None	-87.0	157.0	0
3.0.1	2019_Mar_08_1658	s	s	14	3	Capacity	16	2_1	2	1	4	1	23_4_1	2	0	1	0	0.387309074402	-273.0	25.0	-274.0	16.0	1
3.0.1	2019_Mar_08_1658	s	s	14	3	Capacity	17	ABS	0	0	3	1	24_3_1	NA	NA	0	1	1.02585482597	None	None	None	None	1
3.0.1	2019_Mar_08_1658	s	s	14	3	Capacity	18	ABS	0	0	4	1	24_4_1	NA	NA	0	1	0.634426116943	None	None	None	None	1
3.0.1	2019_Mar_08_1658	s	s	14	3	Capacity	19	1_1	1	1	4	1	23_4_1	3	0	1	0	0.437348127365	-131.0	-277.0	-120.0	-274.0	1
3.0.1	2019_Mar_08_1658	s	s	14	3	Capacity	20	1_1	1	1	2	1	23_2_1	1	0	0	1	1.28129911423	-151.0	330.0	None	None	0
3.0.1	2019_Mar_08_1658	s	s	14	3	Capacity	21	4_1	4	1	3	1	23_3_1	1	0	1	0	0.43452501297	-485.0	-343.0	-479.0	-346.0	1
3.0.1	2019_Mar_08_1658	s	s	14	3	Capacity	22	ABS	0	0	3	1	24_3_1	NA	NA	0	1	0.999081134796	None	None	None	None	1
3.0.1	2019_Mar_08_1658	s	s	14	3	Capacity	23	ABS	0	0	2	1	24_2_1	NA	NA	0	1	0.679520845413	None	None	None	None	1
3.0.1	2019_Mar_08_1658	s	s	14	3	Capacity	24	ABS	0	0	4	1	24_4_1	NA	NA	1	0	1.49589204788	None	None	-147.0	123.0	0
3.0.1	2019_Mar_08_1658	s	s	14	3	Capacity	25	3_1	3	1	4	1	23_4_1	-1	0	1	0	0.575575113297	-310.0	230.0	-311.0	222.0	1
3.0.1	2019_Mar_08_1658	s	s	14	3	Capacity	26	2_1	2	1	1	1	23_1_1	-1	0	0	1	0.757051944733	275.0	-129.0	None	None	0
3.0.1	2019_Mar_08_1658	s	s	14	3	Capacity	27	ABS	0	0	4	1	24_4_1	NA	NA	0	1	0.587356090546	None	None	None	None	1
3.0.1	2019_Mar_08_1658	s	s	14	3	Capacity	28	ABS	0	0	2	1	24_2_1	NA	NA	0	1	0.884468793869	None	None	None	None	1
3.0.1	2019_Mar_08_1658	s	s	14	3	Capacity	29	ABS	0	0	4	1	24_4_1	NA	NA	0	1	1.32855606079	None	None	None	None	1
3.0.1	2019_Mar_08_1658	s	s	14	3	Capacity	30	2_1	2	1	4	1	23_4_1	2	0	1	0	0.410932064056	337.0	-366.0	340.0	-365.0	1
3.0.1	2019_Mar_08_1658	s	s	14	3	Capacity	31	ABS	0	0	1	1	24_1_1	NA	NA	0	1	1.66691613197	None	None	None	None	1
3.0.1	2019_Mar_08_1658	s	s	14	3	Capacity	32	4_1	4	1	3	1	23_3_1	1	0	1	0	0.516942024231	435.0	-181.0	435.0	-184.0	1
3.0.1	2019_Mar_08_1658	s	s	14	3	Capacity	33	ABS	0	0	3	1	24_3_1	NA	NA	0	1	0.972550153732	None	None	None	None	1
3.0.1	2019_Mar_08_1658	s	s	14	3	Capacity	34	ABS	0	0	1	1	24_1_1	NA	NA	0	1	1.20186400414	None	None	None	None	1
3.0.1	2019_Mar_08_1658	s	s	14	3	Capacity	35	3_1	3	1	2	1	23_2_1	1	0	1	0	0.575590848923	-298.0	120.0	-293.0	119.0	1
3.0.1	2019_Mar_08_1658	s	s	14	3	Capacity	36	1_1	1	1	4	1	23_4_1	3	0	1	0	0.451158046722	490.0	82.0	493.0	78.0	1
3.0.1	2019_Mar_08_1658	s	s	14	3	Capacity	37	ABS	0	0	2	1	24_2_1	NA	NA	0	1	1.4812040329	None	None	None	None	1
3.0.1	2019_Mar_08_1658	s	s	14	3	Capacity	38	4_1	4	1	1	1	23_1_1	3	0	1	0	0.437474966049	-318.0	-27.0	-320.0	-43.0	1
3.0.1	2019_Mar_08_1658	s	s	14	3	Capacity	39	1_1	1	1	3	1	23_3_1	2	0	1	0	0.848949193954	445.0	90.0	450.0	90.0	1
3.0.1	2019_Mar_08_1658	s	s	14	3	Capacity	40	ABS	0	0	3	1	24_3_1	NA	NA	0	1	0.905286073685	None	None	None	None	1
3.0.1	2019_Mar_08_1658	s	s	14	3	Capacity	41	4_1	4	1	2	1	23_2_1	2	0	1	0	0.39319896698	-442.0	-219.0	-447.0	-226.0	1
3.0.1	2019_Mar_08_1658	s	s	14	3	Capacity	42	ABS	0	0	4	1	24_4_1	NA	NA	0	1	1.04603600502	None	None	None	None	1
3.0.1	2019_Mar_08_1658	s	s	14	3	Capacity	43	ABS	0	0	2	1	24_2_1	NA	NA	0	1	0.913484096527	None	None	None	None	1
3.0.1	2019_Mar_08_1658	s	s	14	3	Capacity	44	3_1	3	1	1	1	23_1_1	2	0	1	0	0.613869905472	427.0	-262.0	434.0	-263.0	1
3.0.1	2019_Mar_08_1658	s	s	14	3	Capacity	45	ABS	0	0	1	1	24_1_1	NA	NA	0	1	2.46192193031	None	None	None	None	1
3.0.1	2019_Mar_08_1658	s	s	14	3	Capacity	46	1_1	1	1	2	1	23_2_1	1	0	0	1	2.58676409721	319.0	-137.0	None	None	0
3.0.1	2019_Mar_08_1658	s	s	14	3	Capacity	47	ABS	0	0	3	1	24_3_1	NA	NA	1	0	2.76322817802	None	None	360.0	-308.0	0
3.0.1	2019_Mar_08_1658	s	s	14	3	Capacity	48	2_1	2	1	3	1	23_3_1	1	0	1	0	0.896493196487	235.0	146.0	237.0	145.0	1
3.0.1	2019_Mar_08_1658	s	s	14	3	Capacity	49	ABS	0	0	4	1	24_4_1	NA	NA	0	1	1.00495505333	None	None	None	None	1
3.0.1	2019_Mar_08_1658	s	s	14	3	Capacity	50	4_1	4	1	1	1	23_1_1	3	0	1	0	0.481573104858	40.0	338.0	45.0	331.0	1
3.0.1	2019_Mar_08_1658	s	s	14	3	Capacity	51	3_1	3	1	4	1	23_4_1	-1	0	1	0	0.769073963165	-536.0	-187.0	-530.0	-188.0	1
3.0.1	2019_Mar_08_1658	s	s	14	3	Capacity	52	2_1	2	1	4	1	23_4_1	2	0	1	0	0.410984039307	-534.0	-266.0	-531.0	-266.0	1
3.0.1	2019_Mar_08_1658	s	s	14	3	Capacity	53	4_1	4	1	3	1	23_3_1	1	0	1	0	0.41618180275	454.0	71.0	453.0	69.0	1
3.0.1	2019_Mar_08_1658	s	s	14	3	Capacity	54	2_1	2	1	1	1	23_1_1	-1	0	0	1	1.17957997322	170.0	362.0	None	None	0
3.0.1	2019_Mar_08_1658	s	s	14	3	Capacity	55	ABS	0	0	4	1	24_4_1	NA	NA	0	1	1.26786708832	None	None	None	None	1
3.0.1	2019_Mar_08_1658	s	s	14	3	Capacity	56	ABS	0	0	2	1	24_2_1	NA	NA	0	1	1.31654596329	None	None	None	None	1
3.0.1	2019_Mar_08_1658	s	s	14	3	Capacity	57	ABS	0	0	3	1	24_3_1	NA	NA	0	1	1.25136899948	None	None	None	None	1
3.0.1	2019_Mar_08_1658	s	s	14	3	Capacity	58	1_1	1	1	2	1	23_2_1	1	0	1	0	1.29305005074	100.0	-127.0	-243.0	68.0	0
3.0.1	2019_Mar_08_1658	s	s	14	3	Capacity	59	3_1	3	1	2	1	23_2_1	1	0	1	0	1.04609584808	-460.0	-197.0	-461.0	-205.0	1
3.0.1	2019_Mar_08_1658	s	s	14	3	Capacity	60	ABS	0	0	1	1	24_1_1	NA	NA	0	1	1.35175919533	None	None	None	None	1
3.0.1	2019_Mar_08_1658	s	s	14	3	Capacity	61	4_1	4	1	2	1	23_2_1	2	0	1	0	0.545420885086	305.0	46.0	311.0	53.0	1
3.0.1	2019_Mar_08_1658	s	s	14	3	Capacity	62	1_1	1	1	4	1	23_4_1	3	0	1	0	0.404442071915	-196.0	102.0	-205.0	104.0	1
3.0.1	2019_Mar_08_1658	s	s	14	3	Capacity	63	2_1	2	1	3	1	23_3_1	1	0	1	0	0.709151029587	-132.0	-267.0	-134.0	-262.0	1
3.0.1	2019_Mar_08_1658	s	s	14	3	Capacity	64	ABS	0	0	2	1	24_2_1	NA	NA	0	1	1.43705415726	None	None	None	None	1
3.0.1	2019_Mar_08_1658	s	s	14	3	Capacity	65	ABS	0	0	1	1	24_1_1	NA	NA	0	1	1.3333799839	None	None	None	None	1
3.0.1	2019_Mar_08_1658	s	s	14	3	Capacity	66	ABS	0	0	2	1	24_2_1	NA	NA	0	1	1.3316450119	None	None	None	None	1
3.0.1	2019_Mar_08_1658	s	s	14	3	Capacity	67	ABS	0	0	3	1	24_3_1	NA	NA	0	1	1.45759010315	None	None	None	None	1
3.0.1	2019_Mar_08_1658	s	s	14	3	Capacity	68	ABS	0	0	4	1	24_4_1	NA	NA	0	1	1.57529497147	None	None	None	None	1
3.0.1	2019_Mar_08_1658	s	s	14	3	Capacity	69	ABS	0	0	1	1	24_1_1	NA	NA	0	1	1.22248387337	None	None	None	None	1
3.0.1	2019_Mar_08_1658	s	s	14	3	Capacity	70	3_1	3	1	1	1	23_1_1	2	0	1	0	0.540413856506	63.0	-35.0	54.0	-34.0	1
3.0.1	2019_Mar_08_1658	s	s	14	3	Capacity	71	ABS	0	0	3	1	24_3_1	NA	NA	0	1	2.38406300545	None	None	None	None	1
3.0.1	2019_Mar_08_1658	s	s	14	3	Capacity	72	1_1	1	1	3	1	23_3_1	2	0	1	0	0.82763004303	-463.0	69.0	-459.0	64.0	1
3.0.1	2019_Mar_08_1658	s	s	14	3	Capacity	73	1_1	1	1	3	1	23_3_1	2	0	1	0	0.414449930191	-91.0	265.0	-81.0	263.0	1
3.0.1	2019_Mar_08_1658	s	s	14	3	Capacity	74	ABS	0	0	3	1	24_3_1	NA	NA	0	1	1.41062688828	None	None	None	None	1
3.0.1	2019_Mar_08_1658	s	s	14	3	Capacity	75	1_1	1	1	4	1	23_4_1	3	0	1	0	0.376080036163	-106.0	199.0	-103.0	191.0	1
3.0.1	2019_Mar_08_1658	s	s	14	3	Capacity	76	3_1	3	1	4	1	23_4_1	-1	0	1	0	0.399194002151	270.0	364.0	264.0	359.0	1
3.0.1	2019_Mar_08_1658	s	s	14	3	Capacity	77	4_1	4	1	1	1	23_1_1	3	0	1	0	0.380450963974	239.0	-336.0	237.0	-334.0	1
3.0.1	2019_Mar_08_1658	s	s	14	3	Capacity	78	1_1	1	1	2	1	23_2_1	1	0	1	0	2.01057887077	-16.0	-64.0	-12.0	-66.0	1
3.0.1	2019_Mar_08_1658	s	s	14	3	Capacity	79	ABS	0	0	4	1	24_4_1	NA	NA	0	1	1.0579199791	None	None	None	None	1
3.0.1	2019_Mar_08_1658	s	s	14	3	Capacity	80	ABS	0	0	4	1	24_4_1	NA	NA	0	1	1.35183906555	None	None	None	None	1
3.0.1	2019_Mar_08_1658	s	s	14	3	Capacity	81	ABS	0	0	2	1	24_2_1	NA	NA	0	1	2.04572296143	None	None	None	None	1
3.0.1	2019_Mar_08_1658	s	s	14	3	Capacity	82	ABS	0	0	1	1	24_1_1	NA	NA	0	1	0.857928991318	None	None	None	None	1
3.0.1	2019_Mar_08_1658	s	s	14	3	Capacity	83	ABS	0	0	1	1	24_1_1	NA	NA	1	0	1.90507793427	None	None	15.0	-256.0	0
3.0.1	2019_Mar_08_1658	s	s	14	3	Capacity	84	2_1	2	1	1	1	23_1_1	-1	0	0	1	0.6043009758	-327.0	127.0	None	None	0
3.0.1	2019_Mar_08_1658	s	s	14	3	Capacity	85	ABS	0	0	1	1	24_1_1	NA	NA	0	1	0.904956102371	None	None	None	None	1
3.0.1	2019_Mar_08_1658	s	s	14	3	Capacity	86	3_1	3	1	2	1	23_2_1	1	0	1	0	0.521836042404	366.0	73.0	363.0	71.0	1
3.0.1	2019_Mar_08_1658	s	s	14	3	Capacity	87	ABS	0	0	2	1	24_2_1	NA	NA	0	1	1.14304280281	None	None	None	None	1
3.0.1	2019_Mar_08_1658	s	s	14	3	Capacity	88	ABS	0	0	2	1	24_2_1	NA	NA	0	1	0.881453037262	None	None	None	None	1
3.0.1	2019_Mar_08_1658	s	s	14	3	Capacity	89	ABS	0	0	3	1	24_3_1	NA	NA	0	1	1.25827097893	None	None	None	None	1
3.0.1	2019_Mar_08_1658	s	s	14	3	Capacity	90	4_1	4	1	3	1	23_3_1	1	0	1	0	0.437362909317	53.0	-223.0	61.0	-226.0	1
3.0.1	2019_Mar_08_1658	s	s	14	3	Capacity	91	2_1	2	1	4	1	23_4_1	2	0	1	0	0.425628900528	-318.0	-259.0	-308.0	-260.0	1
3.0.1	2019_Mar_08_1658	s	s	14	3	Capacity	92	ABS	0	0	3	1	24_3_1	NA	NA	0	1	1.31007909775	None	None	None	None	1
3.0.1	2019_Mar_08_1658	s	s	14	3	Capacity	93	2_1	2	1	3	1	23_3_1	1	0	1	0	0.517270088196	487.0	-21.0	495.0	-21.0	1
3.0.1	2019_Mar_08_1658	s	s	14	3	Capacity	94	4_1	4	1	2	1	23_2_1	2	0	1	0	0.368900060654	282.0	-152.0	284.0	-142.0	1
3.0.1	2019_Mar_08_1658	s	s	14	3	Capacity	95	ABS	0	0	4	1	24_4_1	NA	NA	0	1	1.10487389565	None	None	None	None	1
3.0.1	2019_Mar_08_1658	s	s	14	3	Capacity	96	3_1	3	1	1	1	23_1_1	2	0	1	0	0.534381151199	336.0	139.0	328.0	145.0	1
3.0.1	2019_Mar_08_1658	s	s	14	3	Capacity	1	ABS	0	0	1	3	24_1_3	NA	NA	0	1	2.15802097321	None	None	None	None	1
3.0.1	2019_Mar_08_1658	s	s	14	3	Capacity	2	1_4	1	4	1	3	23_1_3	0	1	1	0	0.543268918991	-237.0	240.0	-236.0	239.0	1
3.0.1	2019_Mar_08_1658	s	s	14	3	Capacity	3	ABS	0	0	1	1	24_1_1	NA	NA	0	1	3.83354687691	None	None	None	None	1
3.0.1	2019_Mar_08_1658	s	s	14	3	Capacity	4	ABS	0	0	1	1	24_1_1	NA	NA	0	1	3.25722289085	None	None	None	None	1
3.0.1	2019_Mar_08_1658	s	s	14	3	Capacity	5	1_2	1	2	1	1	23_1_1	0	-1	1	0	2.93963193893	395.0	398.0	399.0	395.0	1
3.0.1	2019_Mar_08_1658	s	s	14	3	Capacity	6	ABS	0	0	1	2	24_1_2	NA	NA	0	1	4.36726307869	None	None	None	None	1
3.0.1	2019_Mar_08_1658	s	s	14	3	Capacity	7	1_3	1	3	1	4	23_1_4	0	-1	1	0	0.752348184586	-256.0	27.0	-262.0	22.0	1
3.0.1	2019_Mar_08_1658	s	s	14	3	Capacity	8	ABS	0	0	1	4	24_1_4	NA	NA	0	1	1.95162796974	None	None	None	None	1
3.0.1	2019_Mar_08_1658	s	s	14	3	Capacity	9	1_4	1	4	1	2	23_1_2	0	2	1	0	1.91372609138	495.0	-217.0	506.0	-212.0	1
3.0.1	2019_Mar_08_1658	s	s	14	3	Capacity	10	ABS	0	0	1	2	24_1_2	NA	NA	1	0	6.82463598251	None	None	-13.0	97.0	0
3.0.1	2019_Mar_08_1658	s	s	14	3	Capacity	11	ABS	0	0	1	4	24_1_4	NA	NA	0	1	4.13229203224	None	None	None	None	1
3.0.1	2019_Mar_08_1658	s	s	14	3	Capacity	12	ABS	0	0	1	1	24_1_1	NA	NA	0	1	2.19542217255	None	None	None	None	1
3.0.1	2019_Mar_08_1658	s	s	14	3	Capacity	13	ABS	0	0	1	2	24_1_2	NA	NA	0	1	4.41469597816	None	None	None	None	1
3.0.1	2019_Mar_08_1658	s	s	14	3	Capacity	14	1_1	1	1	1	3	23_1_3	0	2	1	0	1.80200195312	-499.0	187.0	-505.0	178.0	1
3.0.1	2019_Mar_08_1658	s	s	14	3	Capacity	15	1_1	1	1	1	4	23_1_4	0	3	1	0	0.776026964188	-47.0	-406.0	-53.0	-409.0	1
3.0.1	2019_Mar_08_1658	s	s	14	3	Capacity	16	1_4	1	4	1	1	23_1_1	0	3	1	0	0.613852024078	179.0	78.0	185.0	71.0	1
3.0.1	2019_Mar_08_1658	s	s	14	3	Capacity	17	ABS	0	0	1	3	24_1_3	NA	NA	0	1	3.88477897644	None	None	None	None	1
3.0.1	2019_Mar_08_1658	s	s	14	3	Capacity	18	ABS	0	0	1	3	24_1_3	NA	NA	0	1	5.00961303711	None	None	None	None	1
3.0.1	2019_Mar_08_1658	s	s	14	3	Capacity	19	1_2	1	2	1	3	23_1_3	0	1	1	0	1.56771612167	329.0	183.0	321.0	182.0	1
3.0.1	2019_Mar_08_1658	s	s	14	3	Capacity	20	1_3	1	3	1	2	23_1_2	0	1	0	1	2.9983818531	509.0	204.0	None	None	0
3.0.1	2019_Mar_08_1658	s	s	14	3	Capacity	21	1_1	1	1	1	2	23_1_2	0	1	0	1	3.80473899841	199.0	-398.0	None	None	0
3.0.1	2019_Mar_08_1658	s	s	14	3	Capacity	22	1_2	1	2	1	4	23_1_4	0	2	1	0	0.604288101196	105.0	257.0	104.0	251.0	1
3.0.1	2019_Mar_08_1658	s	s	14	3	Capacity	23	ABS	0	0	1	4	24_1_4	NA	NA	0	1	3.30424785614	None	None	None	None	1
3.0.1	2019_Mar_08_1658	s	s	14	3	Capacity	24	1_3	1	3	1	1	23_1_1	0	2	1	0	1.19297194481	75.0	-105.0	87.0	-103.0	1
3.0.1	2019_Mar_08_1658	s	s	14	3	Capacity	25	1_3	1	3	1	4	23_1_4	0	-1	1	0	0.805065870285	4.0	-69.0	9.0	-69.0	1
3.0.1	2019_Mar_08_1658	s	s	14	3	Capacity	26	1_2	1	2	1	4	23_1_4	0	2	1	0	0.528579950333	101.0	208.0	103.0	201.0	1
3.0.1	2019_Mar_08_1658	s	s	14	3	Capacity	27	1_1	1	1	1	3	23_1_3	0	2	1	0	0.966633796692	-436.0	357.0	-433.0	349.0	1
3.0.1	2019_Mar_08_1658	s	s	14	3	Capacity	28	ABS	0	0	1	3	24_1_3	NA	NA	0	1	3.51589393616	None	None	None	None	1
3.0.1	2019_Mar_08_1658	s	s	14	3	Capacity	29	ABS	0	0	1	2	24_1_2	NA	NA	0	1	3.92087602615	None	None	None	None	1
3.0.1	2019_Mar_08_1658	s	s	14	3	Capacity	30	1_1	1	1	1	4	23_1_4	0	3	1	0	0.563887119293	-424.0	176.0	-431.0	175.0	1
3.0.1	2019_Mar_08_1658	s	s	14	3	Capacity	31	ABS	0	0	1	1	24_1_1	NA	NA	0	1	2.54631590843	None	None	None	None	1
3.0.1	2019_Mar_08_1658	s	s	14	3	Capacity	32	1_2	1	2	1	3	23_1_3	0	1	1	0	3.17949199677	403.0	-388.0	401.0	-388.0	1
3.0.1	2019_Mar_08_1658	s	s	14	3	Capacity	33	ABS	0	0	1	4	24_1_4	NA	NA	0	1	3.3394908905	None	None	None	None	1
3.0.1	2019_Mar_08_1658	s	s	14	3	Capacity	34	1_2	1	2	1	1	23_1_1	0	-1	0	1	2.50187802315	211.0	-126.0	None	None	0
3.0.1	2019_Mar_08_1658	s	s	14	3	Capacity	35	1_4	1	4	1	1	23_1_1	0	3	1	0	0.613807916641	129.0	-83.0	120.0	-85.0	1
3.0.1	2019_Mar_08_1658	s	s	14	3	Capacity	36	ABS	0	0	1	3	24_1_3	NA	NA	0	1	4.5674469471	None	None	None	None	1
3.0.1	2019_Mar_08_1658	s	s	14	3	Capacity	37	ABS	0	0	1	4	24_1_4	NA	NA	0	1	3.98074221611	None	None	None	None	1
3.0.1	2019_Mar_08_1658	s	s	14	3	Capacity	38	ABS	0	0	1	2	24_1_2	NA	NA	0	1	5.23295116425	None	None	None	None	1
3.0.1	2019_Mar_08_1658	s	s	14	3	Capacity	39	1_1	1	1	1	2	23_1_2	0	1	1	0	2.09281682968	-387.0	-248.0	-390.0	-251.0	1
3.0.1	2019_Mar_08_1658	s	s	14	3	Capacity	40	ABS	0	0	1	3	24_1_3	NA	NA	0	1	3.47378802299	None	None	None	None	1
3.0.1	2019_Mar_08_1658	s	s	14	3	Capacity	41	1_3	1	3	1	2	23_1_2	0	1	0	1	5.03733611107	-330.0	-329.0	None	None	0
3.0.1	2019_Mar_08_1658	s	s	14	3	Capacity	42	1_3	1	3	1	1	23_1_1	0	2	1	0	0.716746091843	-144.0	242.0	-146.0	248.0	1
3.0.1	2019_Mar_08_1658	s	s	14	3	Capacity	43	1_4	1	4	1	2	23_1_2	0	2	1	0	1.22252893448	-538.0	-338.0	-528.0	-334.0	1
3.0.1	2019_Mar_08_1658	s	s	14	3	Capacity	44	ABS	0	0	1	4	24_1_4	NA	NA	0	1	2.48099207878	None	None	None	None	1
3.0.1	2019_Mar_08_1658	s	s	14	3	Capacity	45	ABS	0	0	1	1	24_1_1	NA	NA	0	1	1.67506098747	None	None	None	None	1
3.0.1	2019_Mar_08_1658	s	s	14	3	Capacity	46	ABS	0	0	1	1	24_1_1	NA	NA	0	1	2.17505502701	None	None	None	None	1
3.0.1	2019_Mar_08_1658	s	s	14	3	Capacity	47	1_4	1	4	1	3	23_1_3	0	1	1	0	0.746434211731	-226.0	351.0	-217.0	354.0	1
3.0.1	2019_Mar_08_1658	s	s	14	3	Capacity	48	ABS	0	0	1	2	24_1_2	NA	NA	0	1	3.31680107117	None	None	None	None	1
3.0.1	2019_Mar_08_1658	s	s	14	3	Capacity	49	1_2	1	2	1	1	23_1_1	0	-1	0	1	2.49558901787	166.0	286.0	None	None	0
3.0.1	2019_Mar_08_1658	s	s	14	3	Capacity	50	1_4	1	4	1	1	23_1_1	0	3	1	0	0.601958990097	-275.0	224.0	-272.0	218.0	1
3.0.1	2019_Mar_08_1658	s	s	14	3	Capacity	51	1_4	1	4	1	2	23_1_2	0	2	1	0	0.687922000885	-357.0	407.0	-358.0	410.0	1
3.0.1	2019_Mar_08_1658	s	s	14	3	Capacity	52	1_2	1	2	1	3	23_1_3	0	1	0	1	4.30899095535	344.0	-136.0	None	None	0
3.0.1	2019_Mar_08_1658	s	s	14	3	Capacity	53	1_1	1	1	1	4	23_1_4	0	3	1	0	0.587347984314	-369.0	-5.0	-363.0	-4.0	1
3.0.1	2019_Mar_08_1658	s	s	14	3	Capacity	54	1_2	1	2	1	4	23_1_4	0	2	1	0	0.710015058517	-500.0	253.0	-493.0	247.0	1
3.0.1	2019_Mar_08_1658	s	s	14	3	Capacity	55	ABS	0	0	1	2	24_1_2	NA	NA	0	1	2.51619696617	None	None	None	None	1
3.0.1	2019_Mar_08_1658	s	s	14	3	Capacity	56	ABS	0	0	1	3	24_1_3	NA	NA	0	1	4.14216899872	None	None	None	None	1
3.0.1	2019_Mar_08_1658	s	s	14	3	Capacity	57	ABS	0	0	1	1	24_1_1	NA	NA	0	1	1.82232618332	None	None	None	None	1
3.0.1	2019_Mar_08_1658	s	s	14	3	Capacity	58	1_4	1	4	1	3	23_1_3	0	1	1	0	1.44602394104	327.0	110.0	326.0	107.0	1
3.0.1	2019_Mar_08_1658	s	s	14	3	Capacity	59	1_1	1	1	1	2	23_1_2	0	1	1	0	1.7310860157	-70.0	-63.0	-69.0	-60.0	1
3.0.1	2019_Mar_08_1658	s	s	14	3	Capacity	60	1_3	1	3	1	4	23_1_4	0	-1	1	0	0.579362154007	-497.0	256.0	-495.0	263.0	1
3.0.1	2019_Mar_08_1658	s	s	14	3	Capacity	61	ABS	0	0	1	3	24_1_3	NA	NA	0	1	4.68817901611	None	None	None	None	1
3.0.1	2019_Mar_08_1658	s	s	14	3	Capacity	62	ABS	0	0	1	4	24_1_4	NA	NA	0	1	2.28410196304	None	None	None	None	1
3.0.1	2019_Mar_08_1658	s	s	14	3	Capacity	63	1_3	1	3	1	2	23_1_2	0	1	1	0	1.12844705582	240.0	-43.0	236.0	-40.0	1
3.0.1	2019_Mar_08_1658	s	s	14	3	Capacity	64	ABS	0	0	1	1	24_1_1	NA	NA	0	1	1.84874415398	None	None	None	None	1
3.0.1	2019_Mar_08_1658	s	s	14	3	Capacity	65	ABS	0	0	1	1	24_1_1	NA	NA	0	1	2.48099303246	None	None	None	None	1
3.0.1	2019_Mar_08_1658	s	s	14	3	Capacity	66	ABS	0	0	1	3	24_1_3	NA	NA	0	1	0.944175004959	None	None	None	None	1
3.0.1	2019_Mar_08_1658	s	s	14	3	Capacity	67	1_3	1	3	1	1	23_1_1	0	2	1	0	1.32311797142	313.0	-303.0	321.0	-299.0	1
3.0.1	2019_Mar_08_1658	s	s	14	3	Capacity	68	ABS	0	0	1	4	24_1_4	NA	NA	0	1	3.10427904129	None	None	None	None	1
3.0.1	2019_Mar_08_1658	s	s	14	3	Capacity	69	ABS	0	0	1	2	24_1_2	NA	NA	0	1	3.76294183731	None	None	None	None	1
3.0.1	2019_Mar_08_1658	s	s	14	3	Capacity	70	1_1	1	1	1	3	23_1_3	0	2	1	0	0.916713953018	-361.0	63.0	-364.0	58.0	1
3.0.1	2019_Mar_08_1658	s	s	14	3	Capacity	71	ABS	0	0	1	2	24_1_2	NA	NA	0	1	3.74521708488	None	None	None	None	1
3.0.1	2019_Mar_08_1658	s	s	14	3	Capacity	72	ABS	0	0	1	4	24_1_4	NA	NA	0	1	3.5512149334	None	None	None	None	1
3.0.1	2019_Mar_08_1658	s	s	14	3	Capacity	73	ABS	0	0	1	4	24_1_4	NA	NA	0	1	2.56618595123	None	None	None	None	1
3.0.1	2019_Mar_08_1658	s	s	14	3	Capacity	74	ABS	0	0	1	4	24_1_4	NA	NA	0	1	2.2457280159	None	None	None	None	1
3.0.1	2019_Mar_08_1658	s	s	14	3	Capacity	75	1_1	1	1	1	4	23_1_4	0	3	1	0	0.543277025223	326.0	47.0	318.0	50.0	1
3.0.1	2019_Mar_08_1658	s	s	14	3	Capacity	76	1_4	1	4	1	2	23_1_2	0	2	1	0	0.834419965744	461.0	78.0	466.0	70.0	1
3.0.1	2019_Mar_08_1658	s	s	14	3	Capacity	77	ABS	0	0	1	4	24_1_4	NA	NA	0	1	3.95535993576	None	None	None	None	1
3.0.1	2019_Mar_08_1658	s	s	14	3	Capacity	78	1_1	1	1	1	3	23_1_3	0	2	1	0	0.555051088333	-56.0	156.0	-53.0	143.0	1
3.0.1	2019_Mar_08_1658	s	s	14	3	Capacity	79	1_4	1	4	1	3	23_1_3	0	1	1	0	0.799138784409	-336.0	-128.0	-327.0	-126.0	1
3.0.1	2019_Mar_08_1658	s	s	14	3	Capacity	80	ABS	0	0	1	2	24_1_2	NA	NA	0	1	5.88364982605	None	None	None	None	1
3.0.1	2019_Mar_08_1658	s	s	14	3	Capacity	81	1_2	1	2	1	4	23_1_4	0	2	1	0	0.634416103363	-515.0	234.0	-514.0	239.0	1
3.0.1	2019_Mar_08_1658	s	s	14	3	Capacity	82	1_3	1	3	1	4	23_1_4	0	-1	1	0	0.486926078796	-208.0	-72.0	-208.0	-72.0	1
3.0.1	2019_Mar_08_1658	s	s	14	3	Capacity	83	1_1	1	1	1	2	23_1_2	0	1	1	0	3.03376412392	239.0	400.0	236.0	395.0	1
3.0.1	2019_Mar_08_1658	s	s	14	3	Capacity	84	ABS	0	0	1	3	24_1_3	NA	NA	0	1	2.95622301102	None	None	None	None	1
3.0.1	2019_Mar_08_1658	s	s	14	3	Capacity	85	1_2	1	2	1	3	23_1_3	0	1	0	1	1.0317671299	283.0	157.0	None	None	0
3.0.1	2019_Mar_08_1658	s	s	14	3	Capacity	86	ABS	0	0	1	1	24_1_1	NA	NA	0	1	1.78991484642	None	None	None	None	1
3.0.1	2019_Mar_08_1658	s	s	14	3	Capacity	87	ABS	0	0	1	3	24_1_3	NA	NA	0	1	1.95170998573	None	None	None	None	1
3.0.1	2019_Mar_08_1658	s	s	14	3	Capacity	88	1_3	1	3	1	1	23_1_1	0	2	0	1	1.69550013542	417.0	-250.0	None	None	0
3.0.1	2019_Mar_08_1658	s	s	14	3	Capacity	89	ABS	0	0	1	3	24_1_3	NA	NA	0	1	2.57532286644	None	None	None	None	1
3.0.1	2019_Mar_08_1658	s	s	14	3	Capacity	90	ABS	0	0	1	2	24_1_2	NA	NA	0	1	1.71689105034	None	None	None	None	1
3.0.1	2019_Mar_08_1658	s	s	14	3	Capacity	91	1_2	1	2	1	1	23_1_1	0	-1	0	1	2.23394393921	136.0	-101.0	None	None	0
3.0.1	2019_Mar_08_1658	s	s	14	3	Capacity	92	1_3	1	3	1	2	23_1_2	0	1	0	1	3.31599092484	-493.0	181.0	None	None	0
3.0.1	2019_Mar_08_1658	s	s	14	3	Capacity	93	ABS	0	0	1	2	24_1_2	NA	NA	0	1	2.92790794373	None	None	None	None	1
3.0.1	2019_Mar_08_1658	s	s	14	3	Capacity	94	ABS	0	0	1	1	24_1_1	NA	NA	0	1	2.66290307045	None	None	None	None	1
3.0.1	2019_Mar_08_1658	s	s	14	3	Capacity	95	ABS	0	0	1	1	24_1_1	NA	NA	0	1	3.26229906082	None	None	None	None	1
3.0.1	2019_Mar_08_1658	s	s	14	3	Capacity	96	1_4	1	4	1	1	23_1_1	0	3	1	0	1.45006608963	114.0	-362.0	110.0	-365.0	1
3.0.1	2019_Mar_08_1658	s	s	14	3	SIC	1	ABS	0	0	3	3	24_3_3	NA	NA	0	1	1.22248387337	None	None	None	None	1
3.0.1	2019_Mar_08_1658	s	s	14	3	SIC	2	2_1	2	1	2	4	23_2_4	0	3	1	0	0.0386970043182	-222.0	-262.0	20.0	27.0	0
3.0.1	2019_Mar_08_1658	s	s	14	3	SIC	3	ABS	0	0	1	4	24_1_4	NA	NA	0	1	2.65751600266	None	None	None	None	1
3.0.1	2019_Mar_08_1658	s	s	14	3	SIC	4	3_1	3	1	3	3	23_3_3	0	2	1	0	1.20187115669	520.0	339.0	524.0	334.0	1
3.0.1	2019_Mar_08_1658	s	s	14	3	SIC	5	ABS	0	0	4	2	24_4_2	NA	NA	0	1	3.29824495316	None	None	None	None	1
3.0.1	2019_Mar_08_1658	s	s	14	3	SIC	6	ABS	0	0	4	3	24_4_3	NA	NA	0	1	3.59828996658	None	None	None	None	1
3.0.1	2019_Mar_08_1658	s	s	14	3	SIC	7	4_2	4	2	4	1	23_4_1	0	-1	0	1	1.85002183914	367.0	389.0	None	None	0
3.0.1	2019_Mar_08_1658	s	s	14	3	SIC	8	1_4	1	4	2	2	23_2_2	1	2	1	0	0.548153877258	270.0	-221.0	271.0	-220.0	1
3.0.1	2019_Mar_08_1658	s	s	14	3	SIC	9	ABS	0	0	3	4	24_3_4	NA	NA	0	1	1.54496192932	None	None	None	None	1
3.0.1	2019_Mar_08_1658	s	s	14	3	SIC	10	4_3	4	3	4	2	23_4_2	0	1	0	1	4.04521989822	-522.0	-253.0	None	None	0
3.0.1	2019_Mar_08_1658	s	s	14	3	SIC	11	1_4	1	4	4	4	23_4_4	3	0	1	0	0.437366962433	-17.0	-200.0	-18.0	-204.0	1
3.0.1	2019_Mar_08_1658	s	s	14	3	SIC	12	3_4	3	4	4	1	23_4_1	-1	3	1	0	0.458003997803	243.0	286.0	250.0	282.0	1
3.0.1	2019_Mar_08_1658	s	s	14	3	SIC	13	3_1	3	1	4	2	23_4_2	-1	1	1	0	0.48149394989	-29.0	-314.0	-31.0	-317.0	1
3.0.1	2019_Mar_08_1658	s	s	14	3	SIC	14	ABS	0	0	1	4	24_1_4	NA	NA	0	1	2.30448198318	None	None	None	None	1
3.0.1	2019_Mar_08_1658	s	s	14	3	SIC	15	ABS	0	0	3	1	24_3_1	NA	NA	0	1	1.39333891869	None	None	None	None	1
3.0.1	2019_Mar_08_1658	s	s	14	3	SIC	16	ABS	0	0	1	4	24_1_4	NA	NA	1	0	1.579818964	None	None	-62.0	10.0	0
3.0.1	2019_Mar_08_1658	s	s	14	3	SIC	17	ABS	0	0	4	1	24_4_1	NA	NA	0	1	1.45164608955	None	None	None	None	1
3.0.1	2019_Mar_08_1658	s	s	14	3	SIC	18	ABS	0	0	4	1	24_4_1	NA	NA	0	1	1.60514593124	None	None	None	None	1
3.0.1	2019_Mar_08_1658	s	s	14	3	SIC	19	1_2	1	2	4	2	23_4_2	3	0	1	0	0.458466053009	255.0	-292.0	259.0	-296.0	1
3.0.1	2019_Mar_08_1658	s	s	14	3	SIC	20	ABS	0	0	1	1	24_1_1	NA	NA	0	1	2.29274010658	None	None	None	None	1
3.0.1	2019_Mar_08_1658	s	s	14	3	SIC	21	3_3	3	3	1	1	23_1_1	2	2	1	0	0.540391921997	-242.0	248.0	-238.0	250.0	1
3.0.1	2019_Mar_08_1658	s	s	14	3	SIC	22	4_1	4	1	1	4	23_1_4	3	3	1	0	0.410979032516	428.0	-240.0	441.0	-237.0	1
3.0.1	2019_Mar_08_1658	s	s	14	3	SIC	23	ABS	0	0	1	2	24_1_2	NA	NA	0	1	2.67858290672	None	None	None	None	1
3.0.1	2019_Mar_08_1658	s	s	14	3	SIC	24	ABS	0	0	1	4	24_1_4	NA	NA	0	1	1.64577507973	None	None	None	None	1
3.0.1	2019_Mar_08_1658	s	s	14	3	SIC	25	1_2	1	2	3	1	23_3_1	2	-1	1	0	0.450985908508	151.0	-123.0	159.0	-117.0	1
3.0.1	2019_Mar_08_1658	s	s	14	3	SIC	26	ABS	0	0	2	3	24_2_3	NA	NA	0	1	3.62179088593	None	None	None	None	1
3.0.1	2019_Mar_08_1658	s	s	14	3	SIC	27	ABS	0	0	3	2	24_3_2	NA	NA	0	1	1.71932983398	None	None	None	None	1
3.0.1	2019_Mar_08_1658	s	s	14	3	SIC	28	1_4	1	4	3	2	23_3_2	2	2	1	0	0.69255900383	-197.0	261.0	-201.0	261.0	1
3.0.1	2019_Mar_08_1658	s	s	14	3	SIC	29	1_2	1	2	2	3	23_2_3	1	1	1	0	2.37941002846	-69.0	-252.0	-74.0	-244.0	1
3.0.1	2019_Mar_08_1658	s	s	14	3	SIC	30	ABS	0	0	1	4	24_1_4	NA	NA	0	1	2.25747513771	None	None	None	None	1
3.0.1	2019_Mar_08_1658	s	s	14	3	SIC	31	2_2	2	2	2	4	23_2_4	0	2	1	0	0.462934970856	-106.0	10.0	-108.0	10.0	1
3.0.1	2019_Mar_08_1658	s	s	14	3	SIC	32	4_4	4	4	1	4	23_1_4	3	0	1	0	0.43740606308	-507.0	118.0	-503.0	120.0	1
3.0.1	2019_Mar_08_1658	s	s	14	3	SIC	33	4_4	4	4	2	4	23_2_4	2	0	1	0	0.442276000977	361.0	116.0	358.0	118.0	1
3.0.1	2019_Mar_08_1658	s	s	14	3	SIC	34	2_1	2	1	1	4	23_1_4	-1	3	1	0	0.516761064529	266.0	255.0	266.0	245.0	1
3.0.1	2019_Mar_08_1658	s	s	14	3	SIC	35	ABS	0	0	3	1	24_3_1	NA	NA	0	1	1.63415002823	None	None	None	None	1
3.0.1	2019_Mar_08_1658	s	s	14	3	SIC	36	ABS	0	0	3	4	24_3_4	NA	NA	0	1	1.72308897972	None	None	None	None	1
3.0.1	2019_Mar_08_1658	s	s	14	3	SIC	37	2_2	2	2	1	2	23_1_2	-1	0	0	1	3.08944797516	286.0	-311.0	None	None	0
3.0.1	2019_Mar_08_1658	s	s	14	3	SIC	38	ABS	0	0	1	3	24_1_3	NA	NA	0	1	3.33259510994	None	None	None	None	1
3.0.1	2019_Mar_08_1658	s	s	14	3	SIC	39	2_4	2	4	1	4	23_1_4	-1	0	0	1	3.30708694458	475.0	411.0	None	None	0
3.0.1	2019_Mar_08_1658	s	s	14	3	SIC	40	ABS	0	0	4	4	24_4_4	NA	NA	0	1	3.09580898285	None	None	None	None	1
3.0.1	2019_Mar_08_1658	s	s	14	3	SIC	41	4_1	4	1	3	2	23_3_2	1	1	1	0	0.441544055939	-320.0	84.0	-324.0	83.0	1
3.0.1	2019_Mar_08_1658	s	s	14	3	SIC	42	ABS	0	0	1	2	24_1_2	NA	NA	0	1	2.92788481712	None	None	None	None	1
3.0.1	2019_Mar_08_1658	s	s	14	3	SIC	43	4_4	4	4	1	3	23_1_3	3	1	1	0	0.457988023758	344.0	309.0	352.0	303.0	1
3.0.1	2019_Mar_08_1658	s	s	14	3	SIC	44	4_3	4	3	2	2	23_2_2	2	1	1	0	0.410948038101	-463.0	-195.0	-458.0	-198.0	1
3.0.1	2019_Mar_08_1658	s	s	14	3	SIC	45	ABS	0	0	4	3	24_4_3	NA	NA	0	1	2.35154914856	None	None	None	None	1
3.0.1	2019_Mar_08_1658	s	s	14	3	SIC	46	ABS	0	0	1	2	24_1_2	NA	NA	0	1	1.50058603287	None	None	None	None	1
3.0.1	2019_Mar_08_1658	s	s	14	3	SIC	47	ABS	0	0	1	1	24_1_1	NA	NA	0	1	1.41557192802	None	None	None	None	1
3.0.1	2019_Mar_08_1658	s	s	14	3	SIC	48	1_2	1	2	3	2	23_3_2	2	0	1	0	0.560313940048	211.0	-111.0	200.0	-108.0	1
3.0.1	2019_Mar_08_1658	s	s	14	3	SIC	49	1_1	1	1	2	2	23_2_2	1	1	0	1	3.82164406776	241.0	-96.0	None	None	0
3.0.1	2019_Mar_08_1658	s	s	14	3	SIC	50	3_3	3	3	1	2	23_1_2	2	1	1	0	0.62010884285	146.0	-178.0	142.0	-169.0	1
3.0.1	2019_Mar_08_1658	s	s	14	3	SIC	51	4_1	4	1	2	1	23_2_1	2	0	1	0	0.599170923233	478.0	-167.0	479.0	-174.0	1
3.0.1	2019_Mar_08_1658	s	s	14	3	SIC	52	3_2	3	2	4	3	23_4_3	-1	1	1	0	0.426950931549	219.0	-188.0	220.0	-192.0	1
3.0.1	2019_Mar_08_1658	s	s	14	3	SIC	53	1_3	1	3	4	3	23_4_3	3	0	1	0	0.41489315033	-102.0	233.0	-107.0	243.0	1
3.0.1	2019_Mar_08_1658	s	s	14	3	SIC	54	1_3	1	3	4	4	23_4_4	3	-1	1	0	0.404883146286	218.0	406.0	221.0	408.0	1
3.0.1	2019_Mar_08_1658	s	s	14	3	SIC	55	ABS	0	0	2	1	24_2_1	NA	NA	0	1	2.82189893723	None	None	None	None	1
3.0.1	2019_Mar_08_1658	s	s	14	3	SIC	56	ABS	0	0	2	2	24_2_2	NA	NA	0	1	3.65703201294	None	None	None	None	1
3.0.1	2019_Mar_08_1658	s	s	14	3	SIC	57	2_3	2	3	4	1	23_4_1	2	2	1	0	0.481539964676	-289.0	10.0	-291.0	7.0	1
3.0.1	2019_Mar_08_1658	s	s	14	3	SIC	58	ABS	0	0	1	4	24_1_4	NA	NA	0	1	2.01512694359	None	None	None	None	1
3.0.1	2019_Mar_08_1658	s	s	14	3	SIC	59	3_3	3	3	1	4	23_1_4	2	-1	1	0	0.521573066711	-326.0	213.0	-329.0	205.0	1
3.0.1	2019_Mar_08_1658	s	s	14	3	SIC	60	2_3	2	3	1	2	23_1_2	-1	1	1	0	3.73052406311	-393.0	-226.0	-399.0	-226.0	1
3.0.1	2019_Mar_08_1658	s	s	14	3	SIC	61	1_4	1	4	2	3	23_2_3	1	1	1	0	0.579612016678	164.0	288.0	-99.0	411.0	0
3.0.1	2019_Mar_08_1658	s	s	14	3	SIC	62	ABS	0	0	1	4	24_1_4	NA	NA	0	1	2.27541995049	None	None	None	None	1
3.0.1	2019_Mar_08_1658	s	s	14	3	SIC	63	ABS	0	0	2	4	24_2_4	NA	NA	0	1	2.26301598549	None	None	None	None	1
3.0.1	2019_Mar_08_1658	s	s	14	3	SIC	64	4_2	4	2	1	2	23_1_2	3	0	1	0	0.627012968063	452.0	22.0	454.0	31.0	1
3.0.1	2019_Mar_08_1658	s	s	14	3	SIC	65	ABS	0	0	4	1	24_4_1	NA	NA	0	1	1.0460460186	None	None	None	None	1
3.0.1	2019_Mar_08_1658	s	s	14	3	SIC	66	ABS	0	0	2	3	24_2_3	NA	NA	0	1	1.91362905502	None	None	None	None	1
3.0.1	2019_Mar_08_1658	s	s	14	3	SIC	67	3_4	3	4	1	2	23_1_2	2	2	1	0	0.505116939545	218.0	70.0	229.0	71.0	1
3.0.1	2019_Mar_08_1658	s	s	14	3	SIC	68	3_1	3	1	2	3	23_2_3	1	2	1	0	0.552109003067	352.0	-68.0	346.0	-69.0	1
3.0.1	2019_Mar_08_1658	s	s	14	3	SIC	69	ABS	0	0	4	2	24_4_2	NA	NA	0	1	2.13400793076	None	None	None	None	1
3.0.1	2019_Mar_08_1658	s	s	14	3	SIC	70	ABS	0	0	2	1	24_2_1	NA	NA	0	1	1.59885501862	None	None	None	None	1
3.0.1	2019_Mar_08_1658	s	s	14	3	SIC	71	3_3	3	3	4	2	23_4_2	-1	1	1	0	0.521453857422	-480.0	-118.0	-480.0	-114.0	1
3.0.1	2019_Mar_08_1658	s	s	14	3	SIC	72	4_3	4	3	1	1	23_1_1	3	2	1	0	0.45795583725	366.0	-404.0	373.0	-407.0	1
3.0.1	2019_Mar_08_1658	s	s	14	3	SIC	73	ABS	0	0	1	2	24_1_2	NA	NA	0	1	1.76346302032	None	None	None	None	1
3.0.1	2019_Mar_08_1658	s	s	14	3	SIC	74	ABS	0	0	2	2	24_2_2	NA	NA	0	1	1.15200591087	None	None	None	None	1
3.0.1	2019_Mar_08_1658	s	s	14	3	SIC	75	ABS	0	0	1	2	24_1_2	NA	NA	0	1	1.67235684395	None	None	None	None	1
3.0.1	2019_Mar_08_1658	s	s	14	3	SIC	76	3_1	3	1	4	4	23_4_4	-1	3	1	0	0.463042020798	-81.0	30.0	-84.0	28.0	1
3.0.1	2019_Mar_08_1658	s	s	14	3	SIC	77	1_2	1	2	4	4	23_4_4	3	2	1	0	0.897840023041	-456.0	-105.0	-457.0	-104.0	1
3.0.1	2019_Mar_08_1658	s	s	14	3	SIC	78	2_4	2	4	4	2	23_4_2	2	2	1	0	0.410908222198	326.0	-318.0	321.0	-309.0	1
3.0.1	2019_Mar_08_1658	s	s	14	3	SIC	79	3_4	3	4	4	3	23_4_3	-1	1	1	0	0.422790765762	-132.0	362.0	-125.0	363.0	1
3.0.1	2019_Mar_08_1658	s	s	14	3	SIC	80	ABS	0	0	3	3	24_3_3	NA	NA	0	1	2.16335082054	None	None	None	None	1
3.0.1	2019_Mar_08_1658	s	s	14	3	SIC	81	2_1	2	1	3	1	23_3_1	1	0	1	0	0.834422111511	184.0	379.0	182.0	378.0	1
3.0.1	2019_Mar_08_1658	s	s	14	3	SIC	82	2_1	2	1	1	2	23_1_2	-1	1	0	1	3.31882309914	-117.0	111.0	None	None	0
3.0.1	2019_Mar_08_1658	s	s	14	3	SIC	83	4_4	4	4	3	4	23_3_4	1	0	1	0	0.446262836456	-504.0	-96.0	-502.0	-98.0	1
3.0.1	2019_Mar_08_1658	s	s	14	3	SIC	84	2_4	2	4	3	3	23_3_3	1	1	1	0	0.710127830505	-350.0	-99.0	-356.0	-96.0	1
3.0.1	2019_Mar_08_1658	s	s	14	3	SIC	85	1_4	1	4	1	3	23_1_3	0	1	1	0	1.0391600132	-261.0	-389.0	-261.0	-387.0	1
3.0.1	2019_Mar_08_1658	s	s	14	3	SIC	86	2_2	2	2	2	1	23_2_1	0	-1	0	1	2.30733704567	-404.0	-352.0	None	None	0
3.0.1	2019_Mar_08_1658	s	s	14	3	SIC	87	ABS	0	0	4	2	24_4_2	NA	NA	0	1	1.75171017647	None	None	None	None	1
3.0.1	2019_Mar_08_1658	s	s	14	3	SIC	88	ABS	0	0	3	1	24_3_1	NA	NA	0	1	1.35186505318	None	None	None	None	1
3.0.1	2019_Mar_08_1658	s	s	14	3	SIC	89	4_1	4	1	1	2	23_1_2	3	1	0	1	0.462867021561	-306.0	-243.0	None	None	0
3.0.1	2019_Mar_08_1658	s	s	14	3	SIC	90	ABS	0	0	1	3	24_1_3	NA	NA	0	1	1.49295592308	None	None	None	None	1
3.0.1	2019_Mar_08_1658	s	s	14	3	SIC	91	1_3	1	3	3	3	23_3_3	2	0	1	0	0.59247803688	-469.0	-196.0	-466.0	-196.0	1
3.0.1	2019_Mar_08_1658	s	s	14	3	SIC	92	4_3	4	3	3	4	23_3_4	1	-1	1	0	0.446259021759	257.0	-348.0	253.0	-344.0	1
3.0.1	2019_Mar_08_1658	s	s	14	3	SIC	93	2_1	2	1	4	4	23_4_4	2	3	1	0	0.425572872162	-524.0	-263.0	-524.0	-269.0	1
3.0.1	2019_Mar_08_1658	s	s	14	3	SIC	94	2_4	2	4	4	1	23_4_1	2	3	1	0	0.410848855972	168.0	-401.0	168.0	-412.0	1
3.0.1	2019_Mar_08_1658	s	s	14	3	SIC	95	ABS	0	0	1	1	24_1_1	NA	NA	0	1	1.76348400116	None	None	None	None	1
3.0.1	2019_Mar_08_1658	s	s	14	3	SIC	96	3_4	3	4	1	1	23_1_1	2	3	1	0	0.457973957062	-276.0	149.0	-274.0	148.0	1
3.0.1	2019_Mar_08_1658	s	s	14	3	SIC	97	2_3	2	3	3	4	23_3_4	1	-1	1	0	0.768091917038	-538.0	-283.0	-538.0	-288.0	1
3.0.1	2019_Mar_08_1658	s	s	14	3	SIC	98	4_2	4	2	3	3	23_3_3	1	1	1	0	0.716750144958	-289.0	140.0	-285.0	137.0	1
3.0.1	2019_Mar_08_1658	s	s	14	3	SIC	99	3_1	3	1	2	1	23_2_1	1	0	1	0	0.451138973236	-20.0	168.0	-15.0	165.0	1
3.0.1	2019_Mar_08_1658	s	s	14	3	SIC	100	ABS	0	0	3	4	24_3_4	NA	NA	0	1	1.99200701714	None	None	None	None	1
3.0.1	2019_Mar_08_1658	s	s	14	3	SIC	101	1_3	1	3	2	4	23_2_4	1	-1	1	0	0.57550907135	115.0	223.0	-538.0	-187.0	0
3.0.1	2019_Mar_08_1658	s	s	14	3	SIC	102	3_3	3	3	2	3	23_2_3	1	0	1	0	0.458112001419	-216.0	-128.0	-221.0	-126.0	1
3.0.1	2019_Mar_08_1658	s	s	14	3	SIC	103	ABS	0	0	1	2	24_1_2	NA	NA	0	1	1.52015399933	None	None	None	None	1
3.0.1	2019_Mar_08_1658	s	s	14	3	SIC	104	4_3	4	3	1	2	23_1_2	3	1	1	0	0.587404966354	435.0	-1.0	446.0	-1.0	1
3.0.1	2019_Mar_08_1658	s	s	14	3	SIC	105	ABS	0	0	2	2	24_2_2	NA	NA	0	1	1.39889192581	None	None	None	None	1
3.0.1	2019_Mar_08_1658	s	s	14	3	SIC	106	ABS	0	0	2	2	24_2_2	NA	NA	0	1	2.45744919777	None	None	None	None	1
3.0.1	2019_Mar_08_1658	s	s	14	3	SIC	107	ABS	0	0	2	2	24_2_2	NA	NA	0	1	2.88080382347	None	None	None	None	1
3.0.1	2019_Mar_08_1658	s	s	14	3	SIC	108	4_2	4	2	3	4	23_3_4	1	2	1	0	0.469681024551	-276.0	-184.0	-270.0	-187.0	1
3.0.1	2019_Mar_08_1658	s	s	14	3	SIC	109	3_2	3	2	1	3	23_1_3	2	1	1	0	0.481570959091	-241.0	146.0	-246.0	152.0	1
3.0.1	2019_Mar_08_1658	s	s	14	3	SIC	110	2_1	2	1	2	3	23_2_3	0	2	0	1	1.78992700577	-371.0	-86.0	None	None	0
3.0.1	2019_Mar_08_1658	s	s	14	3	SIC	111	3_1	3	1	1	4	23_1_4	2	3	1	0	0.580800056458	-277.0	-138.0	-277.0	-145.0	1
3.0.1	2019_Mar_08_1658	s	s	14	3	SIC	112	3_3	3	3	2	1	23_2_1	1	2	1	0	0.528522014618	340.0	100.0	346.0	100.0	1
3.0.1	2019_Mar_08_1658	s	s	14	3	SIC	113	2_3	2	3	1	3	23_1_3	-1	0	0	1	1.30489802361	8.0	-188.0	None	None	0
3.0.1	2019_Mar_08_1658	s	s	14	3	SIC	114	ABS	0	0	1	2	24_1_2	NA	NA	0	1	1.59883403778	None	None	None	None	1
3.0.1	2019_Mar_08_1658	s	s	14	3	SIC	115	2_1	2	1	1	3	23_1_3	-1	2	1	0	1.78994894028	-345.0	-328.0	-347.0	-324.0	1
3.0.1	2019_Mar_08_1658	s	s	14	3	SIC	116	4_2	4	2	2	4	23_2_4	2	2	1	0	0.498234987259	-7.0	65.0	-9.0	60.0	1
3.0.1	2019_Mar_08_1658	s	s	14	3	SIC	117	3_3	3	3	2	4	23_2_4	1	-1	1	0	0.756951093674	369.0	85.0	364.0	94.0	1
3.0.1	2019_Mar_08_1658	s	s	14	3	SIC	118	ABS	0	0	1	1	24_1_1	NA	NA	0	1	2.5162191391	None	None	None	None	1
3.0.1	2019_Mar_08_1658	s	s	14	3	SIC	119	ABS	0	0	2	2	24_2_2	NA	NA	0	1	1.5096719265	None	None	None	None	1
3.0.1	2019_Mar_08_1658	s	s	14	3	SIC	120	ABS	0	0	3	1	24_3_1	NA	NA	0	1	1.31945896149	None	None	None	None	1
3.0.1	2019_Mar_08_1658	s	s	14	3	SIC	121	ABS	0	0	3	4	24_3_4	NA	NA	0	1	1.24634814262	None	None	None	None	1
3.0.1	2019_Mar_08_1658	s	s	14	3	SIC	122	1_4	1	4	4	3	23_4_3	3	1	0	1	0.470154047012	118.0	-74.0	None	None	0
3.0.1	2019_Mar_08_1658	s	s	14	3	SIC	123	ABS	0	0	2	4	24_2_4	NA	NA	0	1	1.88111615181	None	None	None	None	1
3.0.1	2019_Mar_08_1658	s	s	14	3	SIC	124	ABS	0	0	2	3	24_2_3	NA	NA	0	1	3.39259982109	None	None	None	None	1
3.0.1	2019_Mar_08_1658	s	s	14	3	SIC	125	2_1	2	1	1	1	23_1_1	-1	0	0	1	2.49554800987	63.0	48.0	None	None	0
3.0.1	2019_Mar_08_1658	s	s	14	3	SIC	126	ABS	0	0	3	1	24_3_1	NA	NA	0	1	2.89773106575	None	None	None	None	1
3.0.1	2019_Mar_08_1658	s	s	14	3	SIC	127	3_4	3	4	4	4	23_4_4	-1	0	1	0	0.545537948608	-43.0	250.0	-49.0	248.0	1
3.0.1	2019_Mar_08_1658	s	s	14	3	SIC	128	ABS	0	0	4	4	24_4_4	NA	NA	0	1	1.94477009773	None	None	None	None	1
3.0.1	2019_Mar_08_1658	s	s	14	3	SIC	129	4_3	4	3	1	3	23_1_3	3	0	1	0	0.405164003372	-263.0	66.0	-269.0	64.0	1
3.0.1	2019_Mar_08_1658	s	s	14	3	SIC	130	4_4	4	4	3	1	23_3_1	1	3	1	0	0.516778945923	-209.0	-211.0	-202.0	-204.0	1
3.0.1	2019_Mar_08_1658	s	s	14	3	SIC	131	ABS	0	0	2	2	24_2_2	NA	NA	0	1	1.86928391457	None	None	None	None	1
3.0.1	2019_Mar_08_1658	s	s	14	3	SIC	132	ABS	0	0	3	4	24_3_4	NA	NA	0	1	2.26528000832	None	None	None	None	1
3.0.1	2019_Mar_08_1658	s	s	14	3	SIC	133	3_2	3	2	2	2	23_2_2	1	0	1	0	0.554973125458	539.0	274.0	-468.0	-382.0	0
3.0.1	2019_Mar_08_1658	s	s	14	3	SIC	134	2_1	2	1	3	3	23_3_3	1	2	1	0	0.473685026169	-368.0	266.0	-371.0	269.0	1
3.0.1	2019_Mar_08_1658	s	s	14	3	SIC	135	ABS	0	0	4	3	24_4_3	NA	NA	1	0	3.64530801773	None	None	-139.0	152.0	0
3.0.1	2019_Mar_08_1658	s	s	14	3	SIC	136	4_2	4	2	4	3	23_4_3	0	1	1	0	5.1742579937	261.0	-132.0	260.0	-124.0	1
3.0.1	2019_Mar_08_1658	s	s	14	3	SIC	137	4_2	4	2	2	2	23_2_2	2	0	1	0	0.446254014969	431.0	-383.0	435.0	-380.0	1
3.0.1	2019_Mar_08_1658	s	s	14	3	SIC	138	2_2	2	2	1	3	23_1_3	-1	1	0	1	1.70466089249	-87.0	108.0	None	None	0
3.0.1	2019_Mar_08_1658	s	s	14	3	SIC	139	4_1	4	1	2	2	23_2_2	2	1	1	0	0.41591501236	56.0	29.0	60.0	23.0	1
3.0.1	2019_Mar_08_1658	s	s	14	3	SIC	140	1_2	1	2	4	3	23_4_3	3	1	1	0	0.464343070984	148.0	-201.0	149.0	-197.0	1
3.0.1	2019_Mar_08_1658	s	s	14	3	SIC	141	ABS	0	0	4	1	24_4_1	NA	NA	0	1	1.58701395988	None	None	None	None	1
3.0.1	2019_Mar_08_1658	s	s	14	3	SIC	142	ABS	0	0	2	1	24_2_1	NA	NA	0	1	3.40391898155	None	None	None	None	1
3.0.1	2019_Mar_08_1658	s	s	14	3	SIC	143	ABS	0	0	2	2	24_2_2	NA	NA	0	1	2.63376283646	None	None	None	None	1
3.0.1	2019_Mar_08_1658	s	s	14	3	SIC	144	ABS	0	0	1	2	24_1_2	NA	NA	0	1	2.08397316933	None	None	None	None	1
3.0.1	2019_Mar_08_1658	s	s	14	3	SIC	145	ABS	0	0	1	3	24_1_3	NA	NA	0	1	1.49586606026	None	None	None	None	1
3.0.1	2019_Mar_08_1658	s	s	14	3	SIC	146	4_1	4	1	4	2	23_4_2	0	1	0	1	2.52798986435	-186.0	-130.0	None	None	0
3.0.1	2019_Mar_08_1658	s	s	14	3	SIC	147	2_2	2	2	4	2	23_4_2	2	0	1	0	0.5285820961	-536.0	20.0	-537.0	17.0	1
3.0.1	2019_Mar_08_1658	s	s	14	3	SIC	148	1_4	1	4	4	2	23_4_2	3	2	1	0	0.378561973572	-202.0	-67.0	-199.0	-67.0	1
3.0.1	2019_Mar_08_1658	s	s	14	3	SIC	149	ABS	0	0	3	2	24_3_2	NA	NA	0	1	2.21041107178	None	None	None	None	1
3.0.1	2019_Mar_08_1658	s	s	14	3	SIC	150	ABS	0	0	4	1	24_4_1	NA	NA	0	1	1.16669821739	None	None	None	None	1
3.0.1	2019_Mar_08_1658	s	s	14	3	SIC	151	ABS	0	0	4	2	24_4_2	NA	NA	0	1	1.82270598412	None	None	None	None	1
3.0.1	2019_Mar_08_1658	s	s	14	3	SIC	152	4_4	4	4	2	3	23_2_3	2	1	1	0	0.502846002579	149.0	-371.0	157.0	-365.0	1
3.0.1	2019_Mar_08_1658	s	s	14	3	SIC	153	ABS	0	0	2	1	24_2_1	NA	NA	0	1	2.46218705177	None	None	None	None	1
3.0.1	2019_Mar_08_1658	s	s	14	3	SIC	154	1_3	1	3	2	3	23_2_3	1	0	0	1	2.41026592255	-169.0	-142.0	None	None	0
3.0.1	2019_Mar_08_1658	s	s	14	3	SIC	155	4_2	4	2	3	2	23_3_2	1	0	1	0	0.646327972412	429.0	-218.0	431.0	-220.0	1
3.0.1	2019_Mar_08_1658	s	s	14	3	SIC	156	ABS	0	0	4	1	24_4_1	NA	NA	0	1	1.84871912003	None	None	None	None	1
3.0.1	2019_Mar_08_1658	s	s	14	3	SIC	157	ABS	0	0	4	4	24_4_4	NA	NA	0	1	2.12082099915	None	None	None	None	1
3.0.1	2019_Mar_08_1658	s	s	14	3	SIC	158	3_4	3	4	2	1	23_2_1	1	3	1	0	0.540400028229	-442.0	181.0	-448.0	185.0	1
3.0.1	2019_Mar_08_1658	s	s	14	3	SIC	159	3_2	3	2	4	2	23_4_2	-1	0	1	0	0.533481121063	-458.0	-148.0	-453.0	-143.0	1
3.0.1	2019_Mar_08_1658	s	s	14	3	SIC	160	ABS	0	0	3	4	24_3_4	NA	NA	0	1	1.77939081192	None	None	None	None	1
3.0.1	2019_Mar_08_1658	s	s	14	3	SIC	161	ABS	0	0	4	1	24_4_1	NA	NA	0	1	2.24574804306	None	None	None	None	1
3.0.1	2019_Mar_08_1658	s	s	14	3	SIC	162	4_2	4	2	2	3	23_2_3	2	1	1	0	0.481513023376	-242.0	228.0	-235.0	221.0	1
3.0.1	2019_Mar_08_1658	s	s	14	3	SIC	163	ABS	0	0	2	1	24_2_1	NA	NA	0	1	1.04602408409	None	None	None	None	1
3.0.1	2019_Mar_08_1658	s	s	14	3	SIC	164	ABS	0	0	3	2	24_3_2	NA	NA	0	1	2.61417603493	None	None	None	None	1
3.0.1	2019_Mar_08_1658	s	s	14	3	SIC	165	3_3	3	3	2	2	23_2_2	1	1	1	0	0.575604915619	-161.0	-24.0	-161.0	-29.0	1
3.0.1	2019_Mar_08_1658	s	s	14	3	SIC	166	1_4	1	4	1	1	23_1_1	0	3	1	0	1.18722510338	502.0	-358.0	503.0	-360.0	1
3.0.1	2019_Mar_08_1658	s	s	14	3	SIC	167	2_2	2	2	3	2	23_3_2	1	0	1	0	0.634384155273	302.0	291.0	304.0	290.0	1
3.0.1	2019_Mar_08_1658	s	s	14	3	SIC	168	1_1	1	1	3	3	23_3_3	2	2	1	0	0.587417125702	255.0	-383.0	253.0	-388.0	1
3.0.1	2019_Mar_08_1658	s	s	14	3	SIC	169	ABS	0	0	4	4	24_4_4	NA	NA	0	1	1.7685918808	None	None	None	None	1
3.0.1	2019_Mar_08_1658	s	s	14	3	SIC	170	4_1	4	1	1	1	23_1_1	3	0	1	0	0.410956144333	299.0	49.0	305.0	49.0	1
3.0.1	2019_Mar_08_1658	s	s	14	3	SIC	171	1_4	1	4	3	1	23_3_1	2	3	1	0	0.731444835663	389.0	-353.0	397.0	-354.0	1
3.0.1	2019_Mar_08_1658	s	s	14	3	SIC	172	2_2	2	2	4	1	23_4_1	2	-1	1	0	0.474989891052	-504.0	-268.0	-507.0	-277.0	1
3.0.1	2019_Mar_08_1658	s	s	14	3	SIC	173	2_3	2	3	3	3	23_3_3	1	0	1	0	0.522068023682	-233.0	-69.0	-245.0	-67.0	1
3.0.1	2019_Mar_08_1658	s	s	14	3	SIC	174	1_1	1	1	4	1	23_4_1	3	0	1	0	0.441309928894	34.0	346.0	40.0	341.0	1
3.0.1	2019_Mar_08_1658	s	s	14	3	SIC	175	3_2	3	2	2	3	23_2_3	1	1	1	0	0.693285942078	320.0	310.0	315.0	320.0	1
3.0.1	2019_Mar_08_1658	s	s	14	3	SIC	176	ABS	0	0	2	2	24_2_2	NA	NA	0	1	1.10768985748	None	None	None	None	1
3.0.1	2019_Mar_08_1658	s	s	14	3	SIC	177	2_4	2	4	4	4	23_4_4	2	0	1	0	0.505079984665	112.0	-299.0	115.0	-304.0	1
3.0.1	2019_Mar_08_1658	s	s	14	3	SIC	178	ABS	0	0	2	1	24_2_1	NA	NA	0	1	1.46240091324	None	None	None	None	1
3.0.1	2019_Mar_08_1658	s	s	14	3	SIC	179	ABS	0	0	2	4	24_2_4	NA	NA	0	1	1.21554398537	None	None	None	None	1
3.0.1	2019_Mar_08_1658	s	s	14	3	SIC	180	1_2	1	2	2	1	23_2_1	1	-1	0	1	0.874578952789	-241.0	343.0	None	None	0
3.0.1	2019_Mar_08_1658	s	s	14	3	SIC	181	2_2	2	2	1	1	23_1_1	-1	-1	1	0	1.2460269928	-13.0	255.0	-16.0	259.0	1
3.0.1	2019_Mar_08_1658	s	s	14	3	SIC	182	ABS	0	0	4	2	24_4_2	NA	NA	0	1	1.91634488106	None	None	None	None	1
3.0.1	2019_Mar_08_1658	s	s	14	3	SIC	183	4_3	4	3	3	1	23_3_1	1	2	1	0	0.697788000107	462.0	367.0	463.0	366.0	1
3.0.1	2019_Mar_08_1658	s	s	14	3	SIC	184	ABS	0	0	1	4	24_1_4	NA	NA	0	1	1.86921882629	None	None	None	None	1
3.0.1	2019_Mar_08_1658	s	s	14	3	SIC	185	1_1	1	1	3	2	23_3_2	2	1	1	0	0.504964828491	-173.0	294.0	-168.0	302.0	1
3.0.1	2019_Mar_08_1658	s	s	14	3	SIC	186	1_4	1	4	3	3	23_3_3	2	1	1	0	0.428014039993	31.0	148.0	27.0	139.0	1
3.0.1	2019_Mar_08_1658	s	s	14	3	SIC	187	ABS	0	0	1	3	24_1_3	NA	NA	0	1	2.60499095917	None	None	None	None	1
3.0.1	2019_Mar_08_1658	s	s	14	3	SIC	188	1_4	1	4	3	4	23_3_4	2	0	1	0	1.02545189857	160.0	235.0	157.0	233.0	1
3.0.1	2019_Mar_08_1658	s	s	14	3	SIC	189	4_1	4	1	2	3	23_2_3	2	2	1	0	0.399132966995	45.0	-228.0	46.0	-226.0	1
3.0.1	2019_Mar_08_1658	s	s	14	3	SIC	190	ABS	0	0	3	4	24_3_4	NA	NA	0	1	1.9398329258	None	None	None	None	1
3.0.1	2019_Mar_08_1658	s	s	14	3	SIC	191	2_1	2	1	2	2	23_2_2	0	1	1	0	1.13477301598	-80.0	129.0	92.0	362.0	0
3.0.1	2019_Mar_08_1658	s	s	14	3	SIC	192	ABS	0	0	4	3	24_4_3	NA	NA	0	1	1.55569696426	None	None	None	None	1
3.0.1	2019_Mar_08_1658	s	s	14	3	SIC	193	ABS	0	0	1	1	24_1_1	NA	NA	0	1	2.2809419632	None	None	None	None	1
3.0.1	2019_Mar_08_1658	s	s	14	3	SIC	194	1_4	1	4	2	1	23_2_1	1	3	1	0	0.869671106339	114.0	-189.0	113.0	-189.0	1
3.0.1	2019_Mar_08_1658	s	s	14	3	SIC	195	ABS	0	0	4	3	24_4_3	NA	NA	0	1	1.5282971859	None	None	None	None	1
3.0.1	2019_Mar_08_1658	s	s	14	3	SIC	196	ABS	0	0	4	2	24_4_2	NA	NA	0	1	2.0039870739	None	None	None	None	1
3.0.1	2019_Mar_08_1658	s	s	14	3	SIC	197	1_1	1	1	2	3	23_2_3	1	2	1	0	1.95849490166	508.0	-108.0	505.0	-111.0	1
3.0.1	2019_Mar_08_1658	s	s	14	3	SIC	198	ABS	0	0	2	1	24_2_1	NA	NA	0	1	2.61836504936	None	None	None	None	1
3.0.1	2019_Mar_08_1658	s	s	14	3	SIC	199	3_4	3	4	2	3	23_2_3	1	1	1	0	1.53998994827	535.0	-376.0	524.0	-376.0	1
3.0.1	2019_Mar_08_1658	s	s	14	3	SIC	200	3_2	3	2	4	4	23_4_4	-1	2	1	0	0.810791969299	282.0	-353.0	272.0	-354.0	1
3.0.1	2019_Mar_08_1658	s	s	14	3	SIC	201	2_4	2	4	2	2	23_2_2	0	2	1	0	0.822660207748	-444.0	56.0	-440.0	43.0	1
3.0.1	2019_Mar_08_1658	s	s	14	3	SIC	202	3_2	3	2	3	4	23_3_4	0	2	1	0	0.758051156998	-435.0	-214.0	-438.0	-216.0	1
3.0.1	2019_Mar_08_1658	s	s	14	3	SIC	203	1_4	1	4	4	1	23_4_1	3	3	1	0	0.613821029663	468.0	122.0	466.0	121.0	1
3.0.1	2019_Mar_08_1658	s	s	14	3	SIC	204	ABS	0	0	2	4	24_2_4	NA	NA	0	1	1.62741088867	None	None	None	None	1
3.0.1	2019_Mar_08_1658	s	s	14	3	SIC	205	ABS	0	0	3	1	24_3_1	NA	NA	0	1	1.53198599815	None	None	None	None	1
3.0.1	2019_Mar_08_1658	s	s	14	3	SIC	206	ABS	0	0	3	1	24_3_1	NA	NA	0	1	2.07678198814	None	None	None	None	1
3.0.1	2019_Mar_08_1658	s	s	14	3	SIC	207	ABS	0	0	2	3	24_2_3	NA	NA	0	1	3.10983896255	None	None	None	None	1
3.0.1	2019_Mar_08_1658	s	s	14	3	SIC	208	2_1	2	1	4	1	23_4_1	2	0	1	0	0.481556177139	298.0	374.0	304.0	367.0	1
3.0.1	2019_Mar_08_1658	s	s	14	3	SIC	209	ABS	0	0	3	4	24_3_4	NA	NA	0	1	2.28139710426	None	None	None	None	1
3.0.1	2019_Mar_08_1658	s	s	14	3	SIC	210	1_1	1	1	3	4	23_3_4	2	3	1	0	0.437402009964	-239.0	-107.0	-239.0	-106.0	1
3.0.1	2019_Mar_08_1658	s	s	14	3	SIC	211	2_4	2	4	3	1	23_3_1	1	3	1	0	0.496141195297	-437.0	157.0	-427.0	157.0	1
3.0.1	2019_Mar_08_1658	s	s	14	3	SIC	212	ABS	0	0	2	2	24_2_2	NA	NA	0	1	3.18025708199	None	None	None	None	1
3.0.1	2019_Mar_08_1658	s	s	14	3	SIC	213	ABS	0	0	4	2	24_4_2	NA	NA	0	1	1.80390191078	None	None	None	None	1
3.0.1	2019_Mar_08_1658	s	s	14	3	SIC	214	3_1	3	1	1	3	23_1_3	2	2	1	0	0.540448188782	320.0	49.0	318.0	50.0	1
3.0.1	2019_Mar_08_1658	s	s	14	3	SIC	215	4_4	4	4	1	1	23_1_1	3	3	1	0	0.422657966614	-285.0	64.0	-276.0	74.0	1
3.0.1	2019_Mar_08_1658	s	s	14	3	SIC	216	ABS	0	0	4	4	24_4_4	NA	NA	0	1	2.81623005867	None	None	None	None	1
3.0.1	2019_Mar_08_1658	s	s	14	3	SIC	217	3_3	3	3	1	3	23_1_3	2	0	1	0	1.36836314201	455.0	-338.0	453.0	-343.0	1
3.0.1	2019_Mar_08_1658	s	s	14	3	SIC	218	ABS	0	0	1	3	24_1_3	NA	NA	0	1	2.36810994148	None	None	None	None	1
3.0.1	2019_Mar_08_1658	s	s	14	3	SIC	219	2_3	2	3	4	4	23_4_4	2	-1	1	0	0.561527967453	123.0	327.0	121.0	325.0	1
3.0.1	2019_Mar_08_1658	s	s	14	3	SIC	220	3_4	3	4	3	3	23_3_3	0	1	1	0	1.15661001205	-424.0	280.0	-417.0	279.0	1
3.0.1	2019_Mar_08_1658	s	s	14	3	SIC	221	ABS	0	0	4	4	24_4_4	NA	NA	0	1	2.06978392601	None	None	None	None	1
3.0.1	2019_Mar_08_1658	s	s	14	3	SIC	222	3_2	3	2	1	1	23_1_1	2	-1	1	0	0.660813093185	147.0	347.0	147.0	344.0	1
3.0.1	2019_Mar_08_1658	s	s	14	3	SIC	223	ABS	0	0	1	3	24_1_3	NA	NA	0	1	2.35647511482	None	None	None	None	1
3.0.1	2019_Mar_08_1658	s	s	14	3	SIC	224	2_3	2	3	3	2	23_3_2	1	1	1	0	1.23426103592	71.0	-372.0	78.0	-373.0	1
3.0.1	2019_Mar_08_1658	s	s	14	3	SIC	225	ABS	0	0	1	4	24_1_4	NA	NA	0	1	2.19876599312	None	None	None	None	1
3.0.1	2019_Mar_08_1658	s	s	14	3	SIC	226	1_4	1	4	2	4	23_2_4	1	0	0	1	2.3462369442	-458.0	-245.0	None	None	0
3.0.1	2019_Mar_08_1658	s	s	14	3	SIC	227	ABS	0	0	2	1	24_2_1	NA	NA	0	1	2.45033097267	None	None	None	None	1
3.0.1	2019_Mar_08_1658	s	s	14	3	SIC	228	ABS	0	0	2	2	24_2_2	NA	NA	0	1	2.66913104057	None	None	None	None	1
3.0.1	2019_Mar_08_1658	s	s	14	3	SIC	229	3_2	3	2	1	2	23_1_2	2	0	1	0	0.731620073318	311.0	-405.0	302.0	-407.0	1
3.0.1	2019_Mar_08_1658	s	s	14	3	SIC	230	3_2	3	2	3	3	23_3_3	0	1	0	1	2.23390197754	-469.0	199.0	None	None	0
3.0.1	2019_Mar_08_1658	s	s	14	3	SIC	231	4_3	4	3	4	4	23_4_4	0	-1	1	0	1.54625797272	-87.0	-33.0	-80.0	-28.0	1
3.0.1	2019_Mar_08_1658	s	s	14	3	SIC	232	ABS	0	0	3	3	24_3_3	NA	NA	0	1	2.93209290504	None	None	None	None	1
3.0.1	2019_Mar_08_1658	s	s	14	3	SIC	233	ABS	0	0	3	2	24_3_2	NA	NA	0	1	1.42788791656	None	None	None	None	1
3.0.1	2019_Mar_08_1658	s	s	14	3	SIC	234	1_1	1	1	3	1	23_3_1	2	0	1	0	0.540436983109	-362.0	249.0	-375.0	253.0	1
3.0.1	2019_Mar_08_1658	s	s	14	3	SIC	235	1_1	1	1	4	4	23_4_4	3	3	1	0	0.392803907394	80.0	-203.0	81.0	-212.0	1
3.0.1	2019_Mar_08_1658	s	s	14	3	SIC	236	ABS	0	0	3	1	24_3_1	NA	NA	0	1	1.9569299221	None	None	None	None	1
3.0.1	2019_Mar_08_1658	s	s	14	3	SIC	237	2_3	2	3	1	4	23_1_4	-1	-1	1	0	0.834427118301	-32.0	161.0	-29.0	168.0	1
3.0.1	2019_Mar_08_1658	s	s	14	3	SIC	238	3_2	3	2	1	4	23_1_4	2	2	1	0	0.658003091812	-123.0	-375.0	-123.0	-373.0	1
3.0.1	2019_Mar_08_1658	s	s	14	3	SIC	239	ABS	0	0	3	4	24_3_4	NA	NA	0	1	2.03992319107	None	None	None	None	1
3.0.1	2019_Mar_08_1658	s	s	14	3	SIC	240	1_1	1	1	4	3	23_4_3	3	2	1	0	0.429275035858	181.0	294.0	186.0	291.0	1
3.0.1	2019_Mar_08_1658	s	s	14	3	SIC	241	1_1	1	1	1	4	23_1_4	0	3	1	0	0.528609037399	-158.0	269.0	-156.0	267.0	1
3.0.1	2019_Mar_08_1658	s	s	14	3	SIC	242	2_1	2	1	4	2	23_4_2	2	1	1	0	0.446238040924	-104.0	275.0	-104.0	260.0	1
3.0.1	2019_Mar_08_1658	s	s	14	3	SIC	243	1_2	1	2	1	3	23_1_3	0	1	0	1	2.25219583511	-396.0	-265.0	None	None	0
3.0.1	2019_Mar_08_1658	s	s	14	3	SIC	244	4_2	4	2	3	1	23_3_1	1	-1	1	0	0.613896846771	-432.0	-317.0	-438.0	-319.0	1
3.0.1	2019_Mar_08_1658	s	s	14	3	SIC	245	ABS	0	0	4	2	24_4_2	NA	NA	0	1	1.24602293968	None	None	None	None	1
3.0.1	2019_Mar_08_1658	s	s	14	3	SIC	246	ABS	0	0	1	1	24_1_1	NA	NA	0	1	1.75686478615	None	None	None	None	1
3.0.1	2019_Mar_08_1658	s	s	14	3	SIC	247	1_2	1	2	2	4	23_2_4	1	2	1	0	1.02832198143	475.0	-346.0	466.0	-345.0	1
3.0.1	2019_Mar_08_1658	s	s	14	3	SIC	248	ABS	0	0	4	4	24_4_4	NA	NA	0	1	1.29302787781	None	None	None	None	1
3.0.1	2019_Mar_08_1658	s	s	14	3	SIC	249	ABS	0	0	4	1	24_4_1	NA	NA	0	1	1.12855911255	None	None	None	None	1
3.0.1	2019_Mar_08_1658	s	s	14	3	SIC	250	ABS	0	0	3	4	24_3_4	NA	NA	0	1	2.51619696617	None	None	None	None	1
3.0.1	2019_Mar_08_1658	s	s	14	3	SIC	251	ABS	0	0	1	1	24_1_1	NA	NA	0	1	2.55653309822	None	None	None	None	1
3.0.1	2019_Mar_08_1658	s	s	14	3	SIC	252	4_2	4	2	1	1	23_1_1	3	-1	1	0	0.587397098541	-19.0	111.0	-19.0	116.0	1
3.0.1	2019_Mar_08_1658	s	s	14	3	SIC	253	ABS	0	0	2	3	24_2_3	NA	NA	0	1	1.89285302162	None	None	None	None	1
3.0.1	2019_Mar_08_1658	s	s	14	3	SIC	254	ABS	0	0	1	1	24_1_1	NA	NA	0	1	1.35182213783	None	None	None	None	1
3.0.1	2019_Mar_08_1658	s	s	14	3	SIC	255	ABS	0	0	2	1	24_2_1	NA	NA	0	1	1.51112318039	None	None	None	None	1
3.0.1	2019_Mar_08_1658	s	s	14	3	SIC	256	2_3	2	3	4	2	23_4_2	2	1	1	0	0.516796112061	-539.0	283.0	-542.0	282.0	1
3.0.1	2019_Mar_08_1658	s	s	14	3	SIC	257	2_1	2	1	4	3	23_4_3	2	2	1	0	0.484405040741	405.0	-26.0	403.0	-24.0	1
3.0.1	2019_Mar_08_1658	s	s	14	3	SIC	258	1_2	1	2	3	4	23_3_4	2	2	1	0	0.457990884781	242.0	297.0	243.0	292.0	1
3.0.1	2019_Mar_08_1658	s	s	14	3	SIC	259	ABS	0	0	4	2	24_4_2	NA	NA	0	1	1.89943790436	None	None	None	None	1
3.0.1	2019_Mar_08_1658	s	s	14	3	SIC	260	1_3	1	3	1	4	23_1_4	0	-1	1	0	0.796458959579	-265.0	350.0	-259.0	347.0	1
3.0.1	2019_Mar_08_1658	s	s	14	3	SIC	261	4_3	4	3	1	4	23_1_4	3	-1	1	0	0.453256130219	-384.0	250.0	-384.0	252.0	1
3.0.1	2019_Mar_08_1658	s	s	14	3	SIC	262	ABS	0	0	3	3	24_3_3	NA	NA	0	1	1.88608813286	None	None	None	None	1
3.0.1	2019_Mar_08_1658	s	s	14	3	SIC	263	2_3	2	3	1	1	23_1_1	-1	2	1	0	1.09822010994	-460.0	79.0	-461.0	84.0	1
3.0.1	2019_Mar_08_1658	s	s	14	3	SIC	264	4_2	4	2	4	4	23_4_4	0	2	1	0	0.486671924591	-314.0	50.0	-315.0	52.0	1
3.0.1	2019_Mar_08_1658	s	s	14	3	SIC	265	3_4	3	4	2	2	23_2_2	1	2	1	0	0.556860923767	330.0	239.0	332.0	242.0	1
3.0.1	2019_Mar_08_1658	s	s	14	3	SIC	266	3_3	3	3	4	4	23_4_4	-1	-1	1	0	0.474720001221	-420.0	-51.0	-422.0	-50.0	1
3.0.1	2019_Mar_08_1658	s	s	14	3	SIC	267	ABS	0	0	4	3	24_4_3	NA	NA	0	1	1.59889888763	None	None	None	None	1
3.0.1	2019_Mar_08_1658	s	s	14	3	SIC	268	3_2	3	2	2	1	23_2_1	1	-1	1	0	0.763818979263	527.0	-138.0	529.0	-135.0	1
3.0.1	2019_Mar_08_1658	s	s	14	3	SIC	269	1_3	1	3	3	2	23_3_2	2	1	1	0	2.73960900307	-217.0	339.0	-220.0	338.0	1
3.0.1	2019_Mar_08_1658	s	s	14	3	SIC	270	ABS	0	0	2	4	24_2_4	NA	NA	0	1	2.01045393944	None	None	None	None	1
3.0.1	2019_Mar_08_1658	s	s	14	3	SIC	271	ABS	0	0	2	2	24_2_2	NA	NA	0	1	1.96347689629	None	None	None	None	1
3.0.1	2019_Mar_08_1658	s	s	14	3	SIC	272	1_1	1	1	2	4	23_2_4	1	3	1	0	0.775707006454	285.0	-89.0	280.0	-94.0	1
3.0.1	2019_Mar_08_1658	s	s	14	3	SIC	273	2_4	2	4	2	3	23_2_3	0	1	0	1	1.5008919239	-329.0	-73.0	None	None	0
3.0.1	2019_Mar_08_1658	s	s	14	3	SIC	274	ABS	0	0	3	1	24_3_1	NA	NA	0	1	1.75218200684	None	None	None	None	1
3.0.1	2019_Mar_08_1658	s	s	14	3	SIC	275	2_4	2	4	3	4	23_3_4	1	0	1	0	0.863141059875	-481.0	396.0	-481.0	391.0	1
3.0.1	2019_Mar_08_1658	s	s	14	3	SIC	276	2_3	2	3	2	1	23_2_1	0	2	0	1	2.4573700428	-117.0	-33.0	None	None	0
3.0.1	2019_Mar_08_1658	s	s	14	3	SIC	277	ABS	0	0	4	4	24_4_4	NA	NA	1	0	1.6135559082	None	None	-16.0	12.0	0
3.0.1	2019_Mar_08_1658	s	s	14	3	SIC	278	ABS	0	0	2	1	24_2_1	NA	NA	0	1	1.37829399109	None	None	None	None	1
3.0.1	2019_Mar_08_1658	s	s	14	3	SIC	279	ABS	0	0	2	4	24_2_4	NA	NA	0	1	3.04575300217	None	None	None	None	1
3.0.1	2019_Mar_08_1658	s	s	14	3	SIC	280	3_1	3	1	4	1	23_4_1	-1	0	1	0	0.52862405777	-110.0	362.0	-106.0	353.0	1
3.0.1	2019_Mar_08_1658	s	s	14	3	SIC	281	ABS	0	0	3	3	24_3_3	NA	NA	0	1	3.53937482834	None	None	None	None	1
3.0.1	2019_Mar_08_1658	s	s	14	3	SIC	282	ABS	0	0	3	3	24_3_3	NA	NA	0	1	2.24579310417	None	None	None	None	1
3.0.1	2019_Mar_08_1658	s	s	14	3	SIC	283	ABS	0	0	3	2	24_3_2	NA	NA	0	1	1.53998303413	None	None	None	None	1
3.0.1	2019_Mar_08_1658	s	s	14	3	SIC	284	4_4	4	4	4	3	23_4_3	0	1	1	0	1.29566717148	120.0	-155.0	114.0	-150.0	1
3.0.1	2019_Mar_08_1658	s	s	14	3	SIC	285	1_3	1	3	1	2	23_1_2	0	1	0	1	2.69775509834	523.0	165.0	None	None	0
3.0.1	2019_Mar_08_1658	s	s	14	3	SIC	286	ABS	0	0	4	3	24_4_3	NA	NA	0	1	1.84529209137	None	None	None	None	1
3.0.1	2019_Mar_08_1658	s	s	14	3	SIC	287	ABS	0	0	4	4	24_4_4	NA	NA	0	1	2.2390089035	None	None	None	None	1
3.0.1	2019_Mar_08_1658	s	s	14	3	SIC	288	1_3	1	3	2	1	23_2_1	1	2	1	0	2.08790183067	-231.0	-343.0	-228.0	-346.0	1
3.0.1	2019_Mar_08_1658	s	s	14	3	SIC	289	ABS	0	0	4	4	24_4_4	NA	NA	0	1	1.64594507217	None	None	None	None	1
3.0.1	2019_Mar_08_1658	s	s	14	3	SIC	290	ABS	0	0	2	1	24_2_1	NA	NA	0	1	1.85777902603	None	None	None	None	1
3.0.1	2019_Mar_08_1658	s	s	14	3	SIC	291	ABS	0	0	2	3	24_2_3	NA	NA	0	1	2.19868588448	None	None	None	None	1
3.0.1	2019_Mar_08_1658	s	s	14	3	SIC	292	ABS	0	0	4	3	24_4_3	NA	NA	0	1	3.44829201698	None	None	None	None	1
3.0.1	2019_Mar_08_1658	s	s	14	3	SIC	293	ABS	0	0	1	2	24_1_2	NA	NA	0	1	1.83409786224	None	None	None	None	1
3.0.1	2019_Mar_08_1658	s	s	14	3	SIC	294	4_1	4	1	3	1	23_3_1	1	0	1	0	0.487699985504	-121.0	363.0	-121.0	362.0	1
3.0.1	2019_Mar_08_1658	s	s	14	3	SIC	295	2_1	2	1	3	4	23_3_4	1	3	1	0	0.849020004272	412.0	-135.0	408.0	-125.0	1
3.0.1	2019_Mar_08_1658	s	s	14	3	SIC	296	ABS	0	0	3	3	24_3_3	NA	NA	0	1	3.34348797798	None	None	None	None	1
3.0.1	2019_Mar_08_1658	s	s	14	3	SIC	297	ABS	0	0	3	3	24_3_3	NA	NA	0	1	1.73208808899	None	None	None	None	1
3.0.1	2019_Mar_08_1658	s	s	14	3	SIC	298	ABS	0	0	2	4	24_2_4	NA	NA	0	1	2.73082613945	None	None	None	None	1
3.0.1	2019_Mar_08_1658	s	s	14	3	SIC	299	ABS	0	0	4	1	24_4_1	NA	NA	0	1	2.86911702156	None	None	None	None	1
3.0.1	2019_Mar_08_1658	s	s	14	3	SIC	300	ABS	0	0	4	3	24_4_3	NA	NA	0	1	2.83890914917	None	None	None	None	1
3.0.1	2019_Mar_08_1658	s	s	14	3	SIC	301	1_2	1	2	2	2	23_2_2	1	0	1	0	3.48483705521	-397.0	-44.0	-396.0	-37.0	1
3.0.1	2019_Mar_08_1658	s	s	14	3	SIC	302	ABS	0	0	2	4	24_2_4	NA	NA	0	1	2.63378596306	None	None	None	None	1
3.0.1	2019_Mar_08_1658	s	s	14	3	SIC	303	ABS	0	0	2	1	24_2_1	NA	NA	0	1	3.08068704605	None	None	None	None	1
3.0.1	2019_Mar_08_1658	s	s	14	3	SIC	304	ABS	0	0	4	1	24_4_1	NA	NA	0	1	3.26897406578	None	None	None	None	1
3.0.1	2019_Mar_08_1658	s	s	14	3	SIC	305	2_4	2	4	1	2	23_1_2	-1	2	1	0	0.637311935425	-4.0	182.0	-6.0	172.0	1
3.0.1	2019_Mar_08_1658	s	s	14	3	SIC	306	4_1	4	1	4	3	23_4_3	0	2	1	0	2.43688392639	-215.0	-144.0	-210.0	-134.0	1
3.0.1	2019_Mar_08_1658	s	s	14	3	SIC	307	2_3	2	3	3	1	23_3_1	1	2	1	0	0.581713199615	85.0	-29.0	92.0	-36.0	1
3.0.1	2019_Mar_08_1658	s	s	14	3	SIC	308	ABS	0	0	1	1	24_1_1	NA	NA	0	1	2.93875002861	None	None	None	None	1
3.0.1	2019_Mar_08_1658	s	s	14	3	SIC	309	3_4	3	4	2	4	23_2_4	1	0	1	0	0.731419086456	251.0	363.0	248.0	351.0	1
3.0.1	2019_Mar_08_1658	s	s	14	3	SIC	310	4_4	4	4	4	1	23_4_1	0	3	1	0	0.628663063049	-486.0	-164.0	-486.0	-169.0	1
3.0.1	2019_Mar_08_1658	s	s	14	3	SIC	311	4_4	4	4	3	3	23_3_3	1	1	1	0	0.451406002045	-317.0	-104.0	-310.0	-101.0	1
3.0.1	2019_Mar_08_1658	s	s	14	3	SIC	312	ABS	0	0	3	1	24_3_1	NA	NA	0	1	1.91306686401	None	None	None	None	1
3.0.1	2019_Mar_08_1658	s	s	14	3	SIC	313	4_4	4	4	3	2	23_3_2	1	2	1	0	0.462236166	441.0	-282.0	444.0	-289.0	1
3.0.1	2019_Mar_08_1658	s	s	14	3	SIC	314	1_1	1	1	4	2	23_4_2	3	1	1	0	0.545360088348	-497.0	-90.0	-501.0	-102.0	1
3.0.1	2019_Mar_08_1658	s	s	14	3	SIC	315	ABS	0	0	1	2	24_1_2	NA	NA	0	1	2.79056477547	None	None	None	None	1
3.0.1	2019_Mar_08_1658	s	s	14	3	SIC	316	ABS	0	0	2	4	24_2_4	NA	NA	0	1	1.82242107391	None	None	None	None	1
3.0.1	2019_Mar_08_1658	s	s	14	3	SIC	317	ABS	0	0	1	3	24_1_3	NA	NA	0	1	2.52799606323	None	None	None	None	1
3.0.1	2019_Mar_08_1658	s	s	14	3	SIC	318	ABS	0	0	2	2	24_2_2	NA	NA	0	1	3.2505428791	None	None	None	None	1
3.0.1	2019_Mar_08_1658	s	s	14	3	SIC	319	4_2	4	2	1	4	23_1_4	3	2	1	0	0.474036931992	-274.0	-178.0	-279.0	-179.0	1
3.0.1	2019_Mar_08_1658	s	s	14	3	SIC	320	ABS	0	0	4	4	24_4_4	NA	NA	0	1	3.62694692612	None	None	None	None	1
3.0.1	2019_Mar_08_1658	s	s	14	3	SIC	321	3_4	3	4	1	3	23_1_3	2	1	1	0	0.540474891663	-65.0	219.0	-68.0	207.0	1
3.0.1	2019_Mar_08_1658	s	s	14	3	SIC	322	ABS	0	0	3	1	24_3_1	NA	NA	0	1	2.52795410156	None	None	None	None	1
3.0.1	2019_Mar_08_1658	s	s	14	3	SIC	323	4_1	4	1	2	4	23_2_4	2	3	1	0	0.698143005371	-38.0	-150.0	-36.0	-152.0	1
3.0.1	2019_Mar_08_1658	s	s	14	3	SIC	324	3_1	3	1	2	2	23_2_2	1	1	1	0	0.755313158035	-530.0	242.0	-533.0	232.0	1
3.0.1	2019_Mar_08_1658	s	s	14	3	SIC	325	ABS	0	0	2	3	24_2_3	NA	NA	0	1	2.148832798	None	None	None	None	1
3.0.1	2019_Mar_08_1658	s	s	14	3	SIC	326	ABS	0	0	4	2	24_4_2	NA	NA	0	1	1.92314600945	None	None	None	None	1
3.0.1	2019_Mar_08_1658	s	s	14	3	SIC	327	ABS	0	0	1	2	24_1_2	NA	NA	0	1	1.92811107635	None	None	None	None	1
3.0.1	2019_Mar_08_1658	s	s	14	3	SIC	328	ABS	0	0	1	1	24_1_1	NA	NA	0	1	1.24619603157	None	None	None	None	1
3.0.1	2019_Mar_08_1658	s	s	14	3	SIC	329	1_1	1	1	1	2	23_1_2	0	1	0	1	1.92806696892	-495.0	-157.0	None	None	0
3.0.1	2019_Mar_08_1658	s	s	14	3	SIC	330	ABS	0	0	2	3	24_2_3	NA	NA	0	1	2.2861468792	None	None	None	None	1
3.0.1	2019_Mar_08_1658	s	s	14	3	SIC	331	4_3	4	3	3	2	23_3_2	1	1	1	0	0.74636888504	392.0	404.0	393.0	402.0	1
3.0.1	2019_Mar_08_1658	s	s	14	3	SIC	332	4_1	4	1	3	3	23_3_3	1	2	1	0	0.461586952209	-112.0	-325.0	-112.0	-333.0	1
3.0.1	2019_Mar_08_1658	s	s	14	3	SIC	333	3_4	3	4	4	2	23_4_2	-1	2	1	0	0.533263921738	88.0	211.0	86.0	214.0	1
3.0.1	2019_Mar_08_1658	s	s	14	3	SIC	334	2_4	2	4	2	1	23_2_1	0	3	1	0	0.563879966736	-379.0	-143.0	-386.0	-148.0	1
3.0.1	2019_Mar_08_1658	s	s	14	3	SIC	335	ABS	0	0	1	1	24_1_1	NA	NA	0	1	1.84581804276	None	None	None	None	1
3.0.1	2019_Mar_08_1658	s	s	14	3	SIC	336	ABS	0	0	1	2	24_1_2	NA	NA	0	1	2.20768404007	None	None	None	None	1
3.0.1	2019_Mar_08_1658	s	s	14	3	SIC	337	ABS	0	0	2	3	24_2_3	NA	NA	0	1	3.18659496307	None	None	None	None	1
3.0.1	2019_Mar_08_1658	s	s	14	3	SIC	338	ABS	0	0	2	2	24_2_2	NA	NA	0	1	2.22228503227	None	None	None	None	1
3.0.1	2019_Mar_08_1658	s	s	14	3	SIC	339	ABS	0	0	1	2	24_1_2	NA	NA	0	1	2.163189888	None	None	None	None	1
3.0.1	2019_Mar_08_1658	s	s	14	3	SIC	340	3_3	3	3	4	3	23_4_3	-1	0	1	0	0.614852905273	-77.0	106.0	-70.0	110.0	1
3.0.1	2019_Mar_08_1658	s	s	14	3	SIC	341	ABS	0	0	4	1	24_4_1	NA	NA	0	1	1.49590396881	None	None	None	None	1
3.0.1	2019_Mar_08_1658	s	s	14	3	SIC	342	ABS	0	0	4	3	24_4_3	NA	NA	0	1	2.02515006065	None	None	None	None	1
3.0.1	2019_Mar_08_1658	s	s	14	3	SIC	343	ABS	0	0	1	4	24_1_4	NA	NA	0	1	3.39232897758	None	None	None	None	1
3.0.1	2019_Mar_08_1658	s	s	14	3	SIC	344	ABS	0	0	3	4	24_3_4	NA	NA	0	1	1.14297389984	None	None	None	None	1
3.0.1	2019_Mar_08_1658	s	s	14	3	SIC	345	3_1	3	1	3	4	23_3_4	0	3	1	0	0.815997123718	76.0	367.0	72.0	360.0	1
3.0.1	2019_Mar_08_1658	s	s	14	3	SIC	346	ABS	0	0	3	3	24_3_3	NA	NA	0	1	2.74463105202	None	None	None	None	1
3.0.1	2019_Mar_08_1658	s	s	14	3	SIC	347	3_3	3	3	4	1	23_4_1	-1	2	1	0	0.528532981873	62.0	-381.0	60.0	-391.0	1
3.0.1	2019_Mar_08_1658	s	s	14	3	SIC	348	ABS	0	0	4	1	24_4_1	NA	NA	0	1	1.22256278992	None	None	None	None	1
3.0.1	2019_Mar_08_1658	s	s	14	3	SIC	349	ABS	0	0	3	4	24_3_4	NA	NA	0	1	2.11634302139	None	None	None	None	1
3.0.1	2019_Mar_08_1658	s	s	14	3	SIC	350	ABS	0	0	4	2	24_4_2	NA	NA	0	1	1.77538204193	None	None	None	None	1
3.0.1	2019_Mar_08_1658	s	s	14	3	SIC	351	ABS	0	0	2	3	24_2_3	NA	NA	0	1	2.26033401489	None	None	None	None	1
3.0.1	2019_Mar_08_1658	s	s	14	3	SIC	352	2_3	2	3	4	3	23_4_3	2	0	1	0	0.658169984818	264.0	128.0	266.0	116.0	1
3.0.1	2019_Mar_08_1658	s	s	14	3	SIC	353	ABS	0	0	1	3	24_1_3	NA	NA	0	1	2.29278206825	None	None	None	None	1
3.0.1	2019_Mar_08_1658	s	s	14	3	SIC	354	1_4	1	4	1	2	23_1_2	0	2	1	0	0.870075941086	-406.0	-131.0	-407.0	-134.0	1
3.0.1	2019_Mar_08_1658	s	s	14	3	SIC	355	ABS	0	0	3	2	24_3_2	NA	NA	0	1	2.43890595436	None	None	None	None	1
3.0.1	2019_Mar_08_1658	s	s	14	3	SIC	356	ABS	0	0	2	4	24_2_4	NA	NA	0	1	1.95841908455	None	None	None	None	1
3.0.1	2019_Mar_08_1658	s	s	14	3	SIC	357	ABS	0	0	1	4	24_1_4	NA	NA	0	1	1.99874782562	None	None	None	None	1
3.0.1	2019_Mar_08_1658	s	s	14	3	SIC	358	4_4	4	4	2	1	23_2_1	2	3	1	0	0.493310928345	-462.0	-189.0	-461.0	-191.0	1
3.0.1	2019_Mar_08_1658	s	s	14	3	SIC	359	ABS	0	0	2	4	24_2_4	NA	NA	0	1	1.85759210587	None	None	None	None	1
3.0.1	2019_Mar_08_1658	s	s	14	3	SIC	360	ABS	0	0	2	2	24_2_2	NA	NA	0	1	2.61415600777	None	None	None	None	1
3.0.1	2019_Mar_08_1658	s	s	14	3	SIC	361	ABS	0	0	1	3	24_1_3	NA	NA	0	1	2.50878310204	None	None	None	None	1
3.0.1	2019_Mar_08_1658	s	s	14	3	SIC	362	ABS	0	0	3	1	24_3_1	NA	NA	0	1	1.53324103355	None	None	None	None	1
3.0.1	2019_Mar_08_1658	s	s	14	3	SIC	363	2_4	2	4	3	2	23_3_2	1	2	1	0	0.646265983582	50.0	362.0	54.0	354.0	1
3.0.1	2019_Mar_08_1658	s	s	14	3	SIC	364	3_2	3	2	3	1	23_3_1	0	-1	0	1	1.06963205338	92.0	204.0	None	None	0
3.0.1	2019_Mar_08_1658	s	s	14	3	SIC	365	ABS	0	0	2	4	24_2_4	NA	NA	0	1	1.3194899559	None	None	None	None	1
3.0.1	2019_Mar_08_1658	s	s	14	3	SIC	366	3_4	3	4	1	4	23_1_4	2	0	1	0	0.48185801506	-485.0	-184.0	-487.0	-184.0	1
3.0.1	2019_Mar_08_1658	s	s	14	3	SIC	367	ABS	0	0	3	2	24_3_2	NA	NA	0	1	2.7636051178	None	None	None	None	1
3.0.1	2019_Mar_08_1658	s	s	14	3	SIC	368	1_1	1	1	2	1	23_2_1	1	0	0	1	1.84969592094	-230.0	-54.0	None	None	0
3.0.1	2019_Mar_08_1658	s	s	14	3	SIC	369	ABS	0	0	3	2	24_3_2	NA	NA	0	1	1.56885504723	None	None	None	None	1
3.0.1	2019_Mar_08_1658	s	s	14	3	SIC	370	ABS	0	0	4	1	24_4_1	NA	NA	0	1	2.92780399323	None	None	None	None	1
3.0.1	2019_Mar_08_1658	s	s	14	3	SIC	371	3_3	3	3	3	1	23_3_1	0	2	0	1	3.05723690987	253.0	-203.0	None	None	0
3.0.1	2019_Mar_08_1658	s	s	14	3	SIC	372	1_3	1	3	3	1	23_3_1	2	2	1	0	0.945708990097	200.0	360.0	201.0	345.0	1
3.0.1	2019_Mar_08_1658	s	s	14	3	SIC	373	ABS	0	0	1	3	24_1_3	NA	NA	0	1	2.37505292892	None	None	None	None	1
3.0.1	2019_Mar_08_1658	s	s	14	3	SIC	374	ABS	0	0	2	3	24_2_3	NA	NA	0	1	4.00988411903	None	None	None	None	1
3.0.1	2019_Mar_08_1658	s	s	14	3	SIC	375	4_3	4	3	2	3	23_2_3	2	0	1	0	0.651384115219	509.0	43.0	502.0	47.0	1
3.0.1	2019_Mar_08_1658	s	s	14	3	SIC	376	ABS	0	0	4	2	24_4_2	NA	NA	0	1	1.7635819912	None	None	None	None	1
3.0.1	2019_Mar_08_1658	s	s	14	3	SIC	377	ABS	0	0	2	3	24_2_3	NA	NA	0	1	3.46930503845	None	None	None	None	1
3.0.1	2019_Mar_08_1658	s	s	14	3	SIC	378	ABS	0	0	4	3	24_4_3	NA	NA	0	1	4.26608681679	None	None	None	None	1
3.0.1	2019_Mar_08_1658	s	s	14	3	SIC	379	ABS	0	0	1	1	24_1_1	NA	NA	0	1	2.55430316925	None	None	None	None	1
3.0.1	2019_Mar_08_1658	s	s	14	3	SIC	380	ABS	0	0	3	2	24_3_2	NA	NA	0	1	2.55967116356	None	None	None	None	1
3.0.1	2019_Mar_08_1658	s	s	14	3	SIC	381	ABS	0	0	4	3	24_4_3	NA	NA	0	1	3.20668888092	None	None	None	None	1
3.0.1	2019_Mar_08_1658	s	s	14	3	SIC	382	1_1	1	1	1	3	23_1_3	0	2	0	1	4.06874394417	151.0	160.0	None	None	0
3.0.1	2019_Mar_08_1658	s	s	14	3	SIC	383	4_1	4	1	4	4	23_4_4	0	3	1	0	0.563845157623	-100.0	316.0	-100.0	312.0	1
3.0.1	2019_Mar_08_1658	s	s	14	3	SIC	384	3_1	3	1	2	4	23_2_4	1	3	1	0	0.516983032227	-404.0	-77.0	-398.0	-68.0	1
3.0.1	2019_Mar_08_1658	s	s	14	3	SIC	385	4_3	4	3	2	1	23_2_1	2	2	1	0	0.509691953659	387.0	305.0	390.0	307.0	1
3.0.1	2019_Mar_08_1658	s	s	14	3	SIC	386	ABS	0	0	1	1	24_1_1	NA	NA	0	1	1.66093087196	None	None	None	None	1
3.0.1	2019_Mar_08_1658	s	s	14	3	SIC	387	2_3	2	3	2	4	23_2_4	0	-1	1	0	1.96637105942	-264.0	-272.0	-261.0	-280.0	1
3.0.1	2019_Mar_08_1658	s	s	14	3	SIC	388	ABS	0	0	1	3	24_1_3	NA	NA	0	1	2.59324002266	None	None	None	None	1
3.0.1	2019_Mar_08_1658	s	s	14	3	SIC	389	4_2	4	2	1	3	23_1_3	3	1	1	0	0.429219007492	495.0	91.0	505.0	100.0	1
3.0.1	2019_Mar_08_1658	s	s	14	3	SIC	390	4_4	4	4	4	2	23_4_2	0	2	1	0	0.496182918549	256.0	410.0	254.0	413.0	1
3.0.1	2019_Mar_08_1658	s	s	14	3	SIC	391	1_3	1	3	4	2	23_4_2	3	1	1	0	0.410960197449	241.0	-78.0	245.0	-70.0	1
3.0.1	2019_Mar_08_1658	s	s	14	3	SIC	392	ABS	0	0	3	2	24_3_2	NA	NA	0	1	1.89286398888	None	None	None	None	1
3.0.1	2019_Mar_08_1658	s	s	14	3	SIC	393	ABS	0	0	3	1	24_3_1	NA	NA	0	1	2.33984208107	None	None	None	None	1
3.0.1	2019_Mar_08_1658	s	s	14	3	SIC	394	ABS	0	0	1	4	24_1_4	NA	NA	0	1	2.36992287636	None	None	None	None	1
3.0.1	2019_Mar_08_1658	s	s	14	3	SIC	395	4_3	4	3	3	3	23_3_3	1	0	1	0	0.422801971436	102.0	-145.0	113.0	-136.0	1
3.0.1	2019_Mar_08_1658	s	s	14	3	SIC	396	ABS	0	0	3	2	24_3_2	NA	NA	0	1	2.10492992401	None	None	None	None	1
3.0.1	2019_Mar_08_1658	s	s	14	3	SIC	397	1_3	1	3	3	4	23_3_4	2	-1	1	0	0.505044937134	249.0	-219.0	255.0	-228.0	1
3.0.1	2019_Mar_08_1658	s	s	14	3	SIC	398	2_4	2	4	1	1	23_1_1	-1	3	1	0	0.919667959213	380.0	-160.0	378.0	-160.0	1
3.0.1	2019_Mar_08_1658	s	s	14	3	SIC	399	ABS	0	0	4	3	24_4_3	NA	NA	0	1	2.67195606232	None	None	None	None	1
3.0.1	2019_Mar_08_1658	s	s	14	3	SIC	400	ABS	0	0	1	4	24_1_4	NA	NA	0	1	1.90748596191	None	None	None	None	1
3.0.1	2019_Mar_08_1658	s	s	14	3	SIC	401	2_2	2	2	4	3	23_4_3	2	1	1	0	0.613861083984	-265.0	181.0	-264.0	181.0	1
3.0.1	2019_Mar_08_1658	s	s	14	3	SIC	402	ABS	0	0	2	4	24_2_4	NA	NA	0	1	2.57881903648	None	None	None	None	1
3.0.1	2019_Mar_08_1658	s	s	14	3	SIC	403	ABS	0	0	2	4	24_2_4	NA	NA	0	1	1.45202088356	None	None	None	None	1
3.0.1	2019_Mar_08_1658	s	s	14	3	SIC	404	ABS	0	0	2	1	24_2_1	NA	NA	0	1	2.22218203545	None	None	None	None	1
3.0.1	2019_Mar_08_1658	s	s	14	3	SIC	405	ABS	0	0	3	3	24_3_3	NA	NA	0	1	2.30460309982	None	None	None	None	1
3.0.1	2019_Mar_08_1658	s	s	14	3	SIC	406	4_3	4	3	4	1	23_4_1	0	2	1	0	0.763739109039	-398.0	137.0	-392.0	138.0	1
3.0.1	2019_Mar_08_1658	s	s	14	3	SIC	407	ABS	0	0	3	1	24_3_1	NA	NA	0	1	2.14275598526	None	None	None	None	1
3.0.1	2019_Mar_08_1658	s	s	14	3	SIC	408	3_1	3	1	3	2	23_3_2	0	1	0	1	2.07418298721	421.0	-57.0	None	None	0
3.0.1	2019_Mar_08_1658	s	s	14	3	SIC	409	ABS	0	0	3	2	24_3_2	NA	NA	0	1	2.5399119854	None	None	None	None	1
3.0.1	2019_Mar_08_1658	s	s	14	3	SIC	410	ABS	0	0	1	4	24_1_4	NA	NA	0	1	2.31630802155	None	None	None	None	1
3.0.1	2019_Mar_08_1658	s	s	14	3	SIC	411	ABS	0	0	3	2	24_3_2	NA	NA	0	1	1.99880313873	None	None	None	None	1
3.0.1	2019_Mar_08_1658	s	s	14	3	SIC	412	ABS	0	0	4	3	24_4_3	NA	NA	0	1	2.25061297417	None	None	None	None	1
3.0.1	2019_Mar_08_1658	s	s	14	3	SIC	413	ABS	0	0	4	3	24_4_3	NA	NA	0	1	2.09288215637	None	None	None	None	1
3.0.1	2019_Mar_08_1658	s	s	14	3	SIC	414	ABS	0	0	4	1	24_4_1	NA	NA	0	1	2.4456949234	None	None	None	None	1
3.0.1	2019_Mar_08_1658	s	s	14	3	SIC	415	2_2	2	2	3	4	23_3_4	1	2	1	0	0.580939054489	-73.0	-104.0	-63.0	-101.0	1
3.0.1	2019_Mar_08_1658	s	s	14	3	SIC	416	1_3	1	3	1	1	23_1_1	0	2	1	0	0.90779209137	79.0	-161.0	84.0	-151.0	1
3.0.1	2019_Mar_08_1658	s	s	14	3	SIC	417	1_2	1	2	4	1	23_4_1	3	-1	1	0	0.462963104248	-264.0	-144.0	-257.0	-148.0	1
3.0.1	2019_Mar_08_1658	s	s	14	3	SIC	418	3_2	3	2	4	1	23_4_1	-1	-1	1	0	0.528563976288	-123.0	203.0	-122.0	200.0	1
3.0.1	2019_Mar_08_1658	s	s	14	3	SIC	419	2_3	2	3	2	2	23_2_2	0	1	0	1	2.64561891556	24.0	-362.0	None	None	0
3.0.1	2019_Mar_08_1658	s	s	14	3	SIC	420	ABS	0	0	4	4	24_4_4	NA	NA	0	1	2.31101584435	None	None	None	None	1
3.0.1	2019_Mar_08_1658	s	s	14	3	SIC	421	ABS	0	0	1	1	24_1_1	NA	NA	0	1	1.66286110878	None	None	None	None	1
3.0.1	2019_Mar_08_1658	s	s	14	3	SIC	422	3_2	3	2	2	4	23_2_4	1	2	1	0	0.662630796432	143.0	48.0	133.0	50.0	1
3.0.1	2019_Mar_08_1658	s	s	14	3	SIC	423	1_3	1	3	4	1	23_4_1	3	2	1	0	0.57559800148	-361.0	-145.0	-360.0	-154.0	1
3.0.1	2019_Mar_08_1658	s	s	14	3	SIC	424	ABS	0	0	4	2	24_4_2	NA	NA	0	1	2.12814116478	None	None	None	None	1
3.0.1	2019_Mar_08_1658	s	s	14	3	SIC	425	1_3	1	3	2	2	23_2_2	1	1	0	1	2.46910405159	-172.0	-143.0	None	None	0
3.0.1	2019_Mar_08_1658	s	s	14	3	SIC	426	2_1	2	1	3	2	23_3_2	1	1	1	0	1.21496891975	18.0	390.0	27.0	389.0	1
3.0.1	2019_Mar_08_1658	s	s	14	3	SIC	427	ABS	0	0	4	2	24_4_2	NA	NA	0	1	2.63376808167	None	None	None	None	1
3.0.1	2019_Mar_08_1658	s	s	14	3	SIC	428	3_1	3	1	1	2	23_1_2	2	1	1	0	0.622586965561	424.0	-33.0	433.0	-27.0	1
3.0.1	2019_Mar_08_1658	s	s	14	3	SIC	429	ABS	0	0	3	3	24_3_3	NA	NA	0	1	2.64566516876	None	None	None	None	1
3.0.1	2019_Mar_08_1658	s	s	14	3	SIC	430	ABS	0	0	1	3	24_1_3	NA	NA	0	1	1.95163798332	None	None	None	None	1
3.0.1	2019_Mar_08_1658	s	s	14	3	SIC	431	3_4	3	4	3	2	23_3_2	0	2	1	0	0.805150985718	371.0	282.0	370.0	280.0	1
3.0.1	2019_Mar_08_1658	s	s	14	3	SIC	432	ABS	0	0	3	4	24_3_4	NA	NA	0	1	2.21513414383	None	None	None	None	1
3.0.1	2019_Mar_08_1658	s	s	14	3	SIC	433	3_1	3	1	1	1	23_1_1	2	0	1	0	0.599419116974	-309.0	-169.0	-308.0	-161.0	1
3.0.1	2019_Mar_08_1658	s	s	14	3	SIC	434	2_2	2	2	1	4	23_1_4	-1	2	1	0	0.587343931198	428.0	-94.0	424.0	-96.0	1
3.0.1	2019_Mar_08_1658	s	s	14	3	SIC	435	2_4	2	4	1	3	23_1_3	-1	1	0	1	4.13925504684	441.0	-364.0	None	None	0
3.0.1	2019_Mar_08_1658	s	s	14	3	SIC	436	ABS	0	0	3	2	24_3_2	NA	NA	0	1	1.87582707405	None	None	None	None	1
3.0.1	2019_Mar_08_1658	s	s	14	3	SIC	437	4_2	4	2	2	1	23_2_1	2	-1	1	0	0.496231794357	25.0	277.0	31.0	272.0	1
3.0.1	2019_Mar_08_1658	s	s	14	3	SIC	438	ABS	0	0	4	4	24_4_4	NA	NA	0	1	2.57779884338	None	None	None	None	1
3.0.1	2019_Mar_08_1658	s	s	14	3	SIC	439	ABS	0	0	1	3	24_1_3	NA	NA	0	1	4.09044694901	None	None	None	None	1
3.0.1	2019_Mar_08_1658	s	s	14	3	SIC	440	1_2	1	2	1	4	23_1_4	0	2	1	0	0.5465528965	37.0	213.0	30.0	211.0	1
3.0.1	2019_Mar_08_1658	s	s	14	3	SIC	441	2_4	2	4	4	3	23_4_3	2	1	1	0	0.544908046722	-438.0	-317.0	-442.0	-325.0	1
3.0.1	2019_Mar_08_1658	s	s	14	3	SIC	442	ABS	0	0	3	1	24_3_1	NA	NA	1	0	2.04573512077	None	None	-53.0	33.0	0
3.0.1	2019_Mar_08_1658	s	s	14	3	SIC	443	2_2	2	2	2	3	23_2_3	0	1	0	1	2.39857292175	-370.0	245.0	None	None	0
3.0.1	2019_Mar_08_1658	s	s	14	3	SIC	444	ABS	0	0	1	2	24_1_2	NA	NA	1	0	1.73105406761	None	None	16.0	90.0	0
3.0.1	2019_Mar_08_1658	s	s	14	3	SIC	445	2_2	2	2	3	3	23_3_3	1	1	1	0	0.922513961792	11.0	-409.0	13.0	-403.0	1
3.0.1	2019_Mar_08_1658	s	s	14	3	SIC	446	2_2	2	2	4	4	23_4_4	2	2	1	0	0.410946846008	-56.0	-218.0	-54.0	-217.0	1
3.0.1	2019_Mar_08_1658	s	s	14	3	SIC	447	ABS	0	0	3	3	24_3_3	NA	NA	0	1	1.81052589417	None	None	None	None	1
3.0.1	2019_Mar_08_1658	s	s	14	3	SIC	448	ABS	0	0	2	3	24_2_3	NA	NA	0	1	2.59133601189	None	None	None	None	1
3.0.1	2019_Mar_08_1658	s	s	14	3	SIC	449	ABS	0	0	4	1	24_4_1	NA	NA	0	1	1.99888586998	None	None	None	None	1
3.0.1	2019_Mar_08_1658	s	s	14	3	SIC	450	ABS	0	0	2	3	24_2_3	NA	NA	0	1	3.04536104202	None	None	None	None	1
3.0.1	2019_Mar_08_1658	s	s	14	3	SIC	451	ABS	0	0	3	3	24_3_3	NA	NA	0	1	2.48973417282	None	None	None	None	1
3.0.1	2019_Mar_08_1658	s	s	14	3	SIC	452	4_3	4	3	2	4	23_2_4	2	-1	1	0	0.476040124893	-200.0	28.0	-197.0	27.0	1
3.0.1	2019_Mar_08_1658	s	s	14	3	SIC	453	ABS	0	0	1	2	24_1_2	NA	NA	0	1	1.59927415848	None	None	None	None	1
3.0.1	2019_Mar_08_1658	s	s	14	3	SIC	454	1_2	1	2	3	3	23_3_3	2	1	1	0	1.24893689156	298.0	130.0	295.0	130.0	1
3.0.1	2019_Mar_08_1658	s	s	14	3	SIC	455	ABS	0	0	4	2	24_4_2	NA	NA	0	1	0.987231969833	None	None	None	None	1
3.0.1	2019_Mar_08_1658	s	s	14	3	SIC	456	3_3	3	3	3	2	23_3_2	0	1	0	1	1.12845110893	-77.0	113.0	None	None	0
3.0.1	2019_Mar_08_1658	s	s	14	3	SIC	457	ABS	0	0	3	3	24_3_3	NA	NA	0	1	2.36794185638	None	None	None	None	1
3.0.1	2019_Mar_08_1658	s	s	14	3	SIC	458	ABS	0	0	1	3	24_1_3	NA	NA	0	1	1.88111710548	None	None	None	None	1
3.0.1	2019_Mar_08_1658	s	s	14	3	SIC	459	ABS	0	0	4	4	24_4_4	NA	NA	0	1	1.54671001434	None	None	None	None	1
3.0.1	2019_Mar_08_1658	s	s	14	3	SIC	460	ABS	0	0	2	1	24_2_1	NA	NA	0	1	1.21659898758	None	None	None	None	1
3.0.1	2019_Mar_08_1658	s	s	14	3	SIC	461	ABS	0	0	1	3	24_1_3	NA	NA	0	1	2.37797999382	None	None	None	None	1
3.0.1	2019_Mar_08_1658	s	s	14	3	SIC	462	ABS	0	0	3	4	24_3_4	NA	NA	0	1	2.08408498764	None	None	None	None	1
3.0.1	2019_Mar_08_1658	s	s	14	3	SIC	463	ABS	0	0	2	1	24_2_1	NA	NA	0	1	1.6224899292	None	None	None	None	1
3.0.1	2019_Mar_08_1658	s	s	14	3	SIC	464	ABS	0	0	3	4	24_3_4	NA	NA	0	1	2.25760793686	None	None	None	None	1
3.0.1	2019_Mar_08_1658	s	s	14	3	SIC	465	1_2	1	2	1	1	23_1_1	0	-1	0	1	1.56100082397	32.0	-375.0	None	None	0
3.0.1	2019_Mar_08_1658	s	s	14	3	SIC	466	ABS	0	0	2	3	24_2_3	NA	NA	0	1	3.47291898727	None	None	None	None	1
3.0.1	2019_Mar_08_1658	s	s	14	3	SIC	467	3_1	3	1	4	3	23_4_3	-1	2	0	1	0.000123977661133	43.0	-206.0	None	None	0
3.0.1	2019_Mar_08_1658	s	s	14	3	SIC	468	4_1	4	1	1	3	23_1_3	3	2	1	0	0.563891887665	-405.0	377.0	-406.0	367.0	1
3.0.1	2019_Mar_08_1658	s	s	14	3	SIC	469	4_4	4	4	2	2	23_2_2	2	2	1	0	0.486729860306	334.0	177.0	328.0	176.0	1
3.0.1	2019_Mar_08_1658	s	s	14	3	SIC	470	ABS	0	0	1	4	24_1_4	NA	NA	0	1	2.30983304977	None	None	None	None	1
3.0.1	2019_Mar_08_1658	s	s	14	3	SIC	471	ABS	0	0	3	3	24_3_3	NA	NA	0	1	3.03040790558	None	None	None	None	1
3.0.1	2019_Mar_08_1658	s	s	14	3	SIC	472	4_4	4	4	1	2	23_1_2	3	2	1	0	0.446213006973	425.0	381.0	427.0	375.0	1
3.0.1	2019_Mar_08_1658	s	s	14	3	SIC	473	2_2	2	2	3	1	23_3_1	1	-1	1	0	0.56670999527	-319.0	-293.0	-313.0	-297.0	1
3.0.1	2019_Mar_08_1658	s	s	14	3	SIC	474	ABS	0	0	1	1	24_1_1	NA	NA	0	1	2.70441794395	None	None	None	None	1
3.0.1	2019_Mar_08_1658	s	s	14	3	SIC	475	ABS	0	0	4	4	24_4_4	NA	NA	0	1	1.58129405975	None	None	None	None	1
3.0.1	2019_Mar_08_1658	s	s	14	3	SIC	476	4_1	4	1	3	4	23_3_4	1	3	1	0	0.143755912781	206.0	309.0	208.0	296.0	1
3.0.1	2019_Mar_08_1658	s	s	14	3	SIC	477	ABS	0	0	3	2	24_3_2	NA	NA	0	1	3.27263593674	None	None	None	None	1
3.0.1	2019_Mar_08_1658	s	s	14	3	SIC	478	3_4	3	4	3	1	23_3_1	0	3	1	0	0.555322885513	373.0	91.0	373.0	84.0	1
3.0.1	2019_Mar_08_1658	s	s	14	3	SIC	479	3_3	3	3	3	4	23_3_4	0	-1	1	0	0.678323984146	113.0	206.0	120.0	199.0	1
3.0.1	2019_Mar_08_1658	s	s	14	3	SIC	480	ABS	0	0	2	4	24_2_4	NA	NA	0	1	2.75138711929	None	None	None	None	1
