Version	Date	Stimuli	Method	Subject	Session	Condition	Trial	Target	TColor	TShape	DColor	DShape	Distractors	Channel1	Channel2	LMouseButton	RMouseButton	RT	TargetX	TargetY	ResponseX	ResponseY	Correct
3.0.1	2019_Mar_06_1202	s	s	14	1	Capacity	1	ABS	0	0	4	1	24_4_1	NA	NA	1	0	1.99878001213	None	None	137.0	188.0	0
3.0.1	2019_Mar_06_1202	s	s	14	1	Capacity	2	3_1	3	1	1	1	23_1_1	2	0	1	0	0.88624215126	-399.0	331.0	-391.0	332.0	1
3.0.1	2019_Mar_06_1202	s	s	14	1	Capacity	3	ABS	0	0	2	1	24_2_1	NA	NA	0	1	4.68021202087	None	None	None	None	1
3.0.1	2019_Mar_06_1202	s	s	14	1	Capacity	4	4_1	4	1	1	1	23_1_1	3	0	1	0	0.65793299675	-211.0	-360.0	-215.0	-370.0	1
3.0.1	2019_Mar_06_1202	s	s	14	1	Capacity	5	1_1	1	1	2	1	23_2_1	1	0	0	1	2.97485589981	-373.0	-10.0	None	None	0
3.0.1	2019_Mar_06_1202	s	s	14	1	Capacity	6	2_1	2	1	4	1	23_4_1	2	0	1	0	0.634350061417	418.0	-199.0	417.0	-195.0	1
3.0.1	2019_Mar_06_1202	s	s	14	1	Capacity	7	3_1	3	1	4	1	23_4_1	-1	0	1	0	0.634323120117	247.0	-358.0	238.0	-357.0	1
3.0.1	2019_Mar_06_1202	s	s	14	1	Capacity	8	4_1	4	1	3	1	23_3_1	1	0	1	0	0.569144010544	-507.0	194.0	-518.0	198.0	1
3.0.1	2019_Mar_06_1202	s	s	14	1	Capacity	9	2_1	2	1	1	1	23_1_1	-1	0	0	1	6.80486416817	70.0	325.0	None	None	0
3.0.1	2019_Mar_06_1202	s	s	14	1	Capacity	10	ABS	0	0	1	1	24_1_1	NA	NA	0	1	4.95074105263	None	None	None	None	1
3.0.1	2019_Mar_06_1202	s	s	14	1	Capacity	11	ABS	0	0	1	1	24_1_1	NA	NA	0	1	4.26187491417	None	None	None	None	1
3.0.1	2019_Mar_06_1202	s	s	14	1	Capacity	12	ABS	0	0	1	1	24_1_1	NA	NA	0	1	3.80990314484	None	None	None	None	1
3.0.1	2019_Mar_06_1202	s	s	14	1	Capacity	13	ABS	0	0	2	1	24_2_1	NA	NA	0	1	4.29221391678	None	None	None	None	1
3.0.1	2019_Mar_06_1202	s	s	14	1	Capacity	14	ABS	0	0	3	1	24_3_1	NA	NA	1	0	4.43806004524	None	None	-73.0	-313.0	0
3.0.1	2019_Mar_06_1202	s	s	14	1	Capacity	15	2_1	2	1	3	1	23_3_1	1	0	0	1	1.39882683754	-102.0	-412.0	None	None	0
3.0.1	2019_Mar_06_1202	s	s	14	1	Capacity	16	1_1	1	1	3	1	23_3_1	2	0	1	0	0.716776847839	-320.0	77.0	-318.0	77.0	1
3.0.1	2019_Mar_06_1202	s	s	14	1	Capacity	17	3_1	3	1	2	1	23_2_1	1	0	1	0	0.58089184761	161.0	-34.0	167.0	-41.0	1
3.0.1	2019_Mar_06_1202	s	s	14	1	Capacity	18	ABS	0	0	3	1	24_3_1	NA	NA	0	1	4.02457094193	None	None	None	None	1
3.0.1	2019_Mar_06_1202	s	s	14	1	Capacity	19	1_1	1	1	4	1	23_4_1	3	0	1	0	0.618853092194	492.0	279.0	485.0	277.0	1
3.0.1	2019_Mar_06_1202	s	s	14	1	Capacity	20	ABS	0	0	4	1	24_4_1	NA	NA	1	0	1.38706588745	None	None	-376.0	267.0	0
3.0.1	2019_Mar_06_1202	s	s	14	1	Capacity	21	ABS	0	0	3	1	24_3_1	NA	NA	0	1	4.52024888992	None	None	None	None	1
3.0.1	2019_Mar_06_1202	s	s	14	1	Capacity	22	ABS	0	0	2	1	24_2_1	NA	NA	0	1	3.46223306656	None	None	None	None	1
3.0.1	2019_Mar_06_1202	s	s	14	1	Capacity	23	ABS	0	0	4	1	24_4_1	NA	NA	1	0	1.25190210342	None	None	-177.0	11.0	0
3.0.1	2019_Mar_06_1202	s	s	14	1	Capacity	24	4_1	4	1	2	1	23_2_1	2	0	1	0	0.839415073395	133.0	258.0	146.0	263.0	1
3.0.1	2019_Mar_06_1202	s	s	14	1	Capacity	25	ABS	0	0	4	1	24_4_1	NA	NA	1	0	0.810795068741	None	None	-68.0	95.0	0
3.0.1	2019_Mar_06_1202	s	s	14	1	Capacity	26	1_1	1	1	2	1	23_2_1	1	0	1	0	3.12589788437	177.0	-406.0	171.0	-409.0	1
3.0.1	2019_Mar_06_1202	s	s	14	1	Capacity	27	3_1	3	1	1	1	23_1_1	2	0	1	0	0.581031084061	-273.0	13.0	-265.0	14.0	1
3.0.1	2019_Mar_06_1202	s	s	14	1	Capacity	28	ABS	0	0	1	1	24_1_1	NA	NA	0	1	4.82509803772	None	None	None	None	1
3.0.1	2019_Mar_06_1202	s	s	14	1	Capacity	29	ABS	0	0	3	1	24_3_1	NA	NA	0	1	4.14638185501	None	None	None	None	1
3.0.1	2019_Mar_06_1202	s	s	14	1	Capacity	30	ABS	0	0	2	1	24_2_1	NA	NA	0	1	8.05986213684	None	None	None	None	1
3.0.1	2019_Mar_06_1202	s	s	14	1	Capacity	31	3_1	3	1	2	1	23_2_1	1	0	1	0	0.802751064301	-169.0	-190.0	-160.0	-187.0	1
3.0.1	2019_Mar_06_1202	s	s	14	1	Capacity	32	ABS	0	0	2	1	24_2_1	NA	NA	0	1	3.07549190521	None	None	None	None	1
3.0.1	2019_Mar_06_1202	s	s	14	1	Capacity	33	4_1	4	1	3	1	23_3_1	1	0	1	0	0.675487995148	261.0	399.0	266.0	397.0	1
3.0.1	2019_Mar_06_1202	s	s	14	1	Capacity	34	ABS	0	0	3	1	24_3_1	NA	NA	0	1	4.95071196556	None	None	None	None	1
3.0.1	2019_Mar_06_1202	s	s	14	1	Capacity	35	ABS	0	0	1	1	24_1_1	NA	NA	0	1	3.6183822155	None	None	None	None	1
3.0.1	2019_Mar_06_1202	s	s	14	1	Capacity	36	ABS	0	0	2	1	24_2_1	NA	NA	1	0	5.96513295174	None	None	-336.0	-15.0	0
3.0.1	2019_Mar_06_1202	s	s	14	1	Capacity	37	4_1	4	1	1	1	23_1_1	3	0	1	0	0.618798017502	-402.0	-134.0	-406.0	-130.0	1
3.0.1	2019_Mar_06_1202	s	s	14	1	Capacity	38	1_1	1	1	3	1	23_3_1	2	0	1	0	1.22561907768	-377.0	-291.0	-373.0	-295.0	1
3.0.1	2019_Mar_06_1202	s	s	14	1	Capacity	39	ABS	0	0	4	1	24_4_1	NA	NA	1	0	0.908000946045	None	None	-179.0	1.0	0
3.0.1	2019_Mar_06_1202	s	s	14	1	Capacity	40	ABS	0	0	3	1	24_3_1	NA	NA	0	1	5.62765979767	None	None	None	None	1
3.0.1	2019_Mar_06_1202	s	s	14	1	Capacity	41	2_1	2	1	1	1	23_1_1	-1	0	1	0	4.55949187279	94.0	-278.0	99.0	-269.0	1
3.0.1	2019_Mar_06_1202	s	s	14	1	Capacity	42	1_1	1	1	4	1	23_4_1	3	0	1	0	0.629487037659	404.0	-38.0	416.0	-36.0	1
3.0.1	2019_Mar_06_1202	s	s	14	1	Capacity	43	3_1	3	1	4	1	23_4_1	-1	0	1	0	0.781000137329	-529.0	382.0	-528.0	378.0	1
3.0.1	2019_Mar_06_1202	s	s	14	1	Capacity	44	2_1	2	1	3	1	23_3_1	1	0	1	0	1.69285488129	269.0	107.0	276.0	112.0	1
3.0.1	2019_Mar_06_1202	s	s	14	1	Capacity	45	4_1	4	1	2	1	23_2_1	2	0	1	0	0.540338993073	-495.0	-221.0	-501.0	-218.0	1
3.0.1	2019_Mar_06_1202	s	s	14	1	Capacity	46	ABS	0	0	1	1	24_1_1	NA	NA	0	1	5.30355596542	None	None	None	None	1
3.0.1	2019_Mar_06_1202	s	s	14	1	Capacity	47	ABS	0	0	4	1	24_4_1	NA	NA	1	0	2.61828303337	None	None	37.0	-285.0	0
3.0.1	2019_Mar_06_1202	s	s	14	1	Capacity	48	2_1	2	1	4	1	23_4_1	2	0	1	0	0.575618028641	170.0	-213.0	173.0	-210.0	1
3.0.1	2019_Mar_06_1202	s	s	14	1	Capacity	49	2_1	2	1	3	1	23_3_1	1	0	1	0	0.716752052307	-53.0	-140.0	-47.0	-140.0	1
3.0.1	2019_Mar_06_1202	s	s	14	1	Capacity	50	3_1	3	1	4	1	23_4_1	-1	0	1	0	0.528532981873	2.0	-6.0	2.0	-6.0	1
3.0.1	2019_Mar_06_1202	s	s	14	1	Capacity	51	ABS	0	0	3	1	24_3_1	NA	NA	1	0	1.84871006012	None	None	138.0	21.0	0
3.0.1	2019_Mar_06_1202	s	s	14	1	Capacity	52	2_1	2	1	1	1	23_1_1	-1	0	0	1	3.90700817108	-444.0	-311.0	None	None	0
3.0.1	2019_Mar_06_1202	s	s	14	1	Capacity	53	ABS	0	0	4	1	24_4_1	NA	NA	0	1	5.3416891098	None	None	None	None	1
3.0.1	2019_Mar_06_1202	s	s	14	1	Capacity	54	1_1	1	1	2	1	23_2_1	1	0	0	1	6.71491599083	370.0	-211.0	None	None	0
3.0.1	2019_Mar_06_1202	s	s	14	1	Capacity	55	2_1	2	1	4	1	23_4_1	2	0	1	0	0.62764787674	241.0	-356.0	232.0	-355.0	1
3.0.1	2019_Mar_06_1202	s	s	14	1	Capacity	56	3_1	3	1	1	1	23_1_1	2	0	1	0	0.940173149109	522.0	-359.0	524.0	-358.0	1
3.0.1	2019_Mar_06_1202	s	s	14	1	Capacity	57	ABS	0	0	3	1	24_3_1	NA	NA	0	1	4.42607307434	None	None	None	None	1
3.0.1	2019_Mar_06_1202	s	s	14	1	Capacity	58	ABS	0	0	2	1	24_2_1	NA	NA	0	1	7.98219799995	None	None	None	None	1
3.0.1	2019_Mar_06_1202	s	s	14	1	Capacity	59	4_1	4	1	2	1	23_2_1	2	0	1	0	0.634339094162	266.0	-54.0	262.0	-61.0	1
3.0.1	2019_Mar_06_1202	s	s	14	1	Capacity	60	ABS	0	0	1	1	24_1_1	NA	NA	0	1	2.99155402184	None	None	None	None	1
3.0.1	2019_Mar_06_1202	s	s	14	1	Capacity	61	ABS	0	0	3	1	24_3_1	NA	NA	0	1	6.08492684364	None	None	None	None	1
3.0.1	2019_Mar_06_1202	s	s	14	1	Capacity	62	ABS	0	0	4	1	24_4_1	NA	NA	0	1	7.77886104584	None	None	None	None	1
3.0.1	2019_Mar_06_1202	s	s	14	1	Capacity	63	ABS	0	0	4	1	24_4_1	NA	NA	0	1	6.3321928978	None	None	None	None	1
3.0.1	2019_Mar_06_1202	s	s	14	1	Capacity	64	4_1	4	1	3	1	23_3_1	1	0	1	0	0.681467056274	340.0	-63.0	327.0	-54.0	1
3.0.1	2019_Mar_06_1202	s	s	14	1	Capacity	65	1_1	1	1	4	1	23_4_1	3	0	1	0	0.545133113861	-516.0	105.0	-521.0	103.0	1
3.0.1	2019_Mar_06_1202	s	s	14	1	Capacity	66	ABS	0	0	1	1	24_1_1	NA	NA	1	0	3.42854094505	None	None	-316.0	-258.0	0
3.0.1	2019_Mar_06_1202	s	s	14	1	Capacity	67	ABS	0	0	2	1	24_2_1	NA	NA	0	1	6.59241199493	None	None	None	None	1
3.0.1	2019_Mar_06_1202	s	s	14	1	Capacity	68	1_1	1	1	3	1	23_3_1	2	0	1	0	0.752002000809	-420.0	-138.0	-426.0	-138.0	1
3.0.1	2019_Mar_06_1202	s	s	14	1	Capacity	69	ABS	0	0	2	1	24_2_1	NA	NA	0	1	3.89224886894	None	None	None	None	1
3.0.1	2019_Mar_06_1202	s	s	14	1	Capacity	70	ABS	0	0	1	1	24_1_1	NA	NA	0	1	4.37838411331	None	None	None	None	1
3.0.1	2019_Mar_06_1202	s	s	14	1	Capacity	71	4_1	4	1	1	1	23_1_1	3	0	1	0	0.599031925201	-208.0	-98.0	-209.0	-100.0	1
3.0.1	2019_Mar_06_1202	s	s	14	1	Capacity	72	3_1	3	1	2	1	23_2_1	1	0	1	0	0.686794042587	76.0	-212.0	87.0	-202.0	1
3.0.1	2019_Mar_06_1202	s	s	14	1	Capacity	73	ABS	0	0	4	1	24_4_1	NA	NA	0	1	3.68345403671	None	None	None	None	1
3.0.1	2019_Mar_06_1202	s	s	14	1	Capacity	74	ABS	0	0	2	1	24_2_1	NA	NA	0	1	7.16512918472	None	None	None	None	1
3.0.1	2019_Mar_06_1202	s	s	14	1	Capacity	75	ABS	0	0	1	1	24_1_1	NA	NA	0	1	5.80922698975	None	None	None	None	1
3.0.1	2019_Mar_06_1202	s	s	14	1	Capacity	76	ABS	0	0	2	1	24_2_1	NA	NA	0	1	8.42490196228	None	None	None	None	1
3.0.1	2019_Mar_06_1202	s	s	14	1	Capacity	77	2_1	2	1	1	1	23_1_1	-1	0	0	1	6.29145598412	227.0	-137.0	None	None	0
3.0.1	2019_Mar_06_1202	s	s	14	1	Capacity	78	2_1	2	1	4	1	23_4_1	2	0	1	0	0.881378889084	-178.0	195.0	-187.0	199.0	1
3.0.1	2019_Mar_06_1202	s	s	14	1	Capacity	79	3_1	3	1	1	1	23_1_1	2	0	1	0	0.734050989151	255.0	127.0	255.0	123.0	1
3.0.1	2019_Mar_06_1202	s	s	14	1	Capacity	80	ABS	0	0	4	1	24_4_1	NA	NA	0	1	4.88488912582	None	None	None	None	1
3.0.1	2019_Mar_06_1202	s	s	14	1	Capacity	81	ABS	0	0	3	1	24_3_1	NA	NA	0	1	5.62642407417	None	None	None	None	1
3.0.1	2019_Mar_06_1202	s	s	14	1	Capacity	82	4_1	4	1	2	1	23_2_1	2	0	1	0	0.604191064835	-371.0	327.0	-373.0	322.0	1
3.0.1	2019_Mar_06_1202	s	s	14	1	Capacity	83	3_1	3	1	2	1	23_2_1	1	0	1	0	4.82676911354	-155.0	-336.0	-148.0	-330.0	1
3.0.1	2019_Mar_06_1202	s	s	14	1	Capacity	84	4_1	4	1	1	1	23_1_1	3	0	1	0	0.504987001419	-313.0	-343.0	-312.0	-346.0	1
3.0.1	2019_Mar_06_1202	s	s	14	1	Capacity	85	ABS	0	0	3	1	24_3_1	NA	NA	0	1	6.10622906685	None	None	None	None	1
3.0.1	2019_Mar_06_1202	s	s	14	1	Capacity	86	2_1	2	1	3	1	23_3_1	1	0	1	0	5.0498790741	475.0	97.0	473.0	95.0	1
3.0.1	2019_Mar_06_1202	s	s	14	1	Capacity	87	1_1	1	1	4	1	23_4_1	3	0	1	0	0.628861904144	487.0	266.0	494.0	273.0	1
3.0.1	2019_Mar_06_1202	s	s	14	1	Capacity	88	1_1	1	1	2	1	23_2_1	1	0	1	0	2.33977293968	-180.0	-140.0	-178.0	-145.0	1
3.0.1	2019_Mar_06_1202	s	s	14	1	Capacity	89	ABS	0	0	3	1	24_3_1	NA	NA	0	1	4.18630695343	None	None	None	None	1
3.0.1	2019_Mar_06_1202	s	s	14	1	Capacity	90	3_1	3	1	4	1	23_4_1	-1	0	1	0	0.672766208649	331.0	128.0	334.0	127.0	1
3.0.1	2019_Mar_06_1202	s	s	14	1	Capacity	91	ABS	0	0	1	1	24_1_1	NA	NA	0	1	3.98137307167	None	None	None	None	1
3.0.1	2019_Mar_06_1202	s	s	14	1	Capacity	92	1_1	1	1	3	1	23_3_1	2	0	1	0	0.881789922714	-263.0	-367.0	-268.0	-377.0	1
3.0.1	2019_Mar_06_1202	s	s	14	1	Capacity	93	ABS	0	0	1	1	24_1_1	NA	NA	1	0	4.9742629528	None	None	325.0	291.0	0
3.0.1	2019_Mar_06_1202	s	s	14	1	Capacity	94	4_1	4	1	3	1	23_3_1	1	0	1	0	0.516754150391	-10.0	282.0	-3.0	280.0	1
3.0.1	2019_Mar_06_1202	s	s	14	1	Capacity	95	ABS	0	0	4	1	24_4_1	NA	NA	0	1	5.22507810593	None	None	None	None	1
3.0.1	2019_Mar_06_1202	s	s	14	1	Capacity	96	ABS	0	0	2	1	24_2_1	NA	NA	0	1	7.27103209496	None	None	None	None	1
3.0.1	2019_Mar_06_1202	s	s	14	1	Capacity	1	ABS	0	0	1	3	24_1_3	NA	NA	1	0	4.31073498726	None	None	-66.0	-27.0	0
3.0.1	2019_Mar_06_1202	s	s	14	1	Capacity	2	ABS	0	0	1	3	24_1_3	NA	NA	0	1	5.4564678669	None	None	None	None	1
3.0.1	2019_Mar_06_1202	s	s	14	1	Capacity	3	ABS	0	0	1	2	24_1_2	NA	NA	0	1	8.40243887901	None	None	None	None	1
3.0.1	2019_Mar_06_1202	s	s	14	1	Capacity	4	ABS	0	0	1	2	24_1_2	NA	NA	0	1	6.44344496727	None	None	None	None	1
3.0.1	2019_Mar_06_1202	s	s	14	1	Capacity	5	1_1	1	1	1	2	23_1_2	0	1	1	0	5.28009200096	442.0	-130.0	447.0	-128.0	1
3.0.1	2019_Mar_06_1202	s	s	14	1	Capacity	6	1_1	1	1	1	3	23_1_3	0	2	1	0	3.1748239994	-191.0	-185.0	-189.0	-185.0	1
3.0.1	2019_Mar_06_1202	s	s	14	1	Capacity	7	ABS	0	0	1	1	24_1_1	NA	NA	0	1	5.69166898727	None	None	None	None	1
3.0.1	2019_Mar_06_1202	s	s	14	1	Capacity	8	1_2	1	2	1	1	23_1_1	0	-1	1	0	6.55317401886	154.0	225.0	157.0	222.0	1
3.0.1	2019_Mar_06_1202	s	s	14	1	Capacity	9	1_2	1	2	1	3	23_1_3	0	1	1	0	4.93411207199	457.0	-275.0	458.0	-273.0	1
3.0.1	2019_Mar_06_1202	s	s	14	1	Capacity	10	ABS	0	0	1	4	24_1_4	NA	NA	0	1	6.36701512337	None	None	None	None	1
3.0.1	2019_Mar_06_1202	s	s	14	1	Capacity	11	1_2	1	2	1	4	23_1_4	0	2	1	0	0.951916217804	41.0	-241.0	43.0	-233.0	1
3.0.1	2019_Mar_06_1202	s	s	14	1	Capacity	12	ABS	0	0	1	1	24_1_1	NA	NA	0	1	5.67721319199	None	None	None	None	1
3.0.1	2019_Mar_06_1202	s	s	14	1	Capacity	13	ABS	0	0	1	1	24_1_1	NA	NA	0	1	5.81355810165	None	None	None	None	1
3.0.1	2019_Mar_06_1202	s	s	14	1	Capacity	14	1_3	1	3	1	1	23_1_1	0	2	1	0	1.71637797356	-47.0	315.0	-50.0	315.0	1
3.0.1	2019_Mar_06_1202	s	s	14	1	Capacity	15	1_1	1	1	1	4	23_1_4	0	3	1	0	0.999034881592	539.0	165.0	543.0	162.0	1
3.0.1	2019_Mar_06_1202	s	s	14	1	Capacity	16	1_4	1	4	1	1	23_1_1	0	3	1	0	1.05780291557	197.0	307.0	200.0	297.0	1
3.0.1	2019_Mar_06_1202	s	s	14	1	Capacity	17	1_3	1	3	1	4	23_1_4	0	-1	1	0	3.15523195267	423.0	-49.0	429.0	-44.0	1
3.0.1	2019_Mar_06_1202	s	s	14	1	Capacity	18	1_3	1	3	1	2	23_1_2	0	1	1	0	7.0751478672	-161.0	-175.0	-161.0	-181.0	1
3.0.1	2019_Mar_06_1202	s	s	14	1	Capacity	19	1_4	1	4	1	3	23_1_3	0	1	1	0	1.9279999733	-477.0	74.0	-469.0	83.0	1
3.0.1	2019_Mar_06_1202	s	s	14	1	Capacity	20	ABS	0	0	1	4	24_1_4	NA	NA	0	1	5.92028999329	None	None	None	None	1
3.0.1	2019_Mar_06_1202	s	s	14	1	Capacity	21	1_4	1	4	1	2	23_1_2	0	2	1	0	1.0058131218	534.0	-85.0	537.0	-80.0	1
3.0.1	2019_Mar_06_1202	s	s	14	1	Capacity	22	ABS	0	0	1	2	24_1_2	NA	NA	0	1	5.97398114204	None	None	None	None	1
3.0.1	2019_Mar_06_1202	s	s	14	1	Capacity	23	ABS	0	0	1	4	24_1_4	NA	NA	0	1	5.78878903389	None	None	None	None	1
3.0.1	2019_Mar_06_1202	s	s	14	1	Capacity	24	ABS	0	0	1	3	24_1_3	NA	NA	0	1	6.2037460804	None	None	None	None	1
3.0.1	2019_Mar_06_1202	s	s	14	1	Capacity	25	1_2	1	2	1	4	23_1_4	0	2	1	0	0.804393053055	-45.0	295.0	-47.0	300.0	1
3.0.1	2019_Mar_06_1202	s	s	14	1	Capacity	26	ABS	0	0	1	2	24_1_2	NA	NA	0	1	6.75023198128	None	None	None	None	1
3.0.1	2019_Mar_06_1202	s	s	14	1	Capacity	27	1_4	1	4	1	3	23_1_3	0	1	1	0	0.881421089172	-540.0	-105.0	-538.0	-106.0	1
3.0.1	2019_Mar_06_1202	s	s	14	1	Capacity	28	1_3	1	3	1	1	23_1_1	0	2	1	0	3.48561906815	-473.0	272.0	-486.0	275.0	1
3.0.1	2019_Mar_06_1202	s	s	14	1	Capacity	29	ABS	0	0	1	1	24_1_1	NA	NA	0	1	5.59757089615	None	None	None	None	1
3.0.1	2019_Mar_06_1202	s	s	14	1	Capacity	30	ABS	0	0	1	1	24_1_1	NA	NA	0	1	4.40365600586	None	None	None	None	1
3.0.1	2019_Mar_06_1202	s	s	14	1	Capacity	31	ABS	0	0	1	2	24_1_2	NA	NA	0	1	7.35001087189	None	None	None	None	1
3.0.1	2019_Mar_06_1202	s	s	14	1	Capacity	32	1_1	1	1	1	2	23_1_2	0	1	1	0	4.01350188255	-457.0	58.0	-449.0	56.0	1
3.0.1	2019_Mar_06_1202	s	s	14	1	Capacity	33	1_1	1	1	1	3	23_1_3	0	2	1	0	5.32717514038	90.0	-75.0	88.0	-72.0	1
3.0.1	2019_Mar_06_1202	s	s	14	1	Capacity	34	ABS	0	0	1	4	24_1_4	NA	NA	0	1	4.86840701103	None	None	None	None	1
3.0.1	2019_Mar_06_1202	s	s	14	1	Capacity	35	1_4	1	4	1	1	23_1_1	0	3	1	0	0.693644046783	-477.0	-96.0	-486.0	-100.0	1
3.0.1	2019_Mar_06_1202	s	s	14	1	Capacity	36	1_2	1	2	1	1	23_1_1	0	-1	1	0	4.04301285744	-15.0	277.0	-12.0	267.0	1
3.0.1	2019_Mar_06_1202	s	s	14	1	Capacity	37	ABS	0	0	1	3	24_1_3	NA	NA	0	1	4.49692106247	None	None	None	None	1
3.0.1	2019_Mar_06_1202	s	s	14	1	Capacity	38	1_2	1	2	1	3	23_1_3	0	1	1	0	4.34656381607	2.0	81.0	3.0	76.0	1
3.0.1	2019_Mar_06_1202	s	s	14	1	Capacity	39	ABS	0	0	1	1	24_1_1	NA	NA	0	1	4.25687408447	None	None	None	None	1
3.0.1	2019_Mar_06_1202	s	s	14	1	Capacity	40	ABS	0	0	1	4	24_1_4	NA	NA	0	1	5.27994608879	None	None	None	None	1
3.0.1	2019_Mar_06_1202	s	s	14	1	Capacity	41	1_3	1	3	1	2	23_1_2	0	1	1	0	2.6506690979	-519.0	161.0	-514.0	166.0	1
3.0.1	2019_Mar_06_1202	s	s	14	1	Capacity	42	ABS	0	0	1	2	24_1_2	NA	NA	0	1	6.67508292198	None	None	None	None	1
3.0.1	2019_Mar_06_1202	s	s	14	1	Capacity	43	1_1	1	1	1	4	23_1_4	0	3	1	0	1.02246594429	-79.0	-394.0	-78.0	-390.0	1
3.0.1	2019_Mar_06_1202	s	s	14	1	Capacity	44	ABS	0	0	1	4	24_1_4	NA	NA	0	1	2.62975001335	None	None	None	None	1
3.0.1	2019_Mar_06_1202	s	s	14	1	Capacity	45	ABS	0	0	1	3	24_1_3	NA	NA	0	1	4.68710803986	None	None	None	None	1
3.0.1	2019_Mar_06_1202	s	s	14	1	Capacity	46	1_4	1	4	1	2	23_1_2	0	2	1	0	0.927089929581	-534.0	234.0	-535.0	235.0	1
3.0.1	2019_Mar_06_1202	s	s	14	1	Capacity	47	1_3	1	3	1	4	23_1_4	0	-1	1	0	1.39886713028	-15.0	396.0	-16.0	397.0	1
3.0.1	2019_Mar_06_1202	s	s	14	1	Capacity	48	ABS	0	0	1	3	24_1_3	NA	NA	0	1	8.05990099907	None	None	None	None	1
3.0.1	2019_Mar_06_1202	s	s	14	1	Capacity	49	1_3	1	3	1	1	23_1_1	0	2	1	0	1.19137001038	173.0	95.0	182.0	102.0	1
3.0.1	2019_Mar_06_1202	s	s	14	1	Capacity	50	ABS	0	0	1	3	24_1_3	NA	NA	1	0	6.82076191902	None	None	-108.0	-53.0	0
3.0.1	2019_Mar_06_1202	s	s	14	1	Capacity	51	ABS	0	0	1	4	24_1_4	NA	NA	0	1	5.50345897675	None	None	None	None	1
3.0.1	2019_Mar_06_1202	s	s	14	1	Capacity	52	ABS	0	0	1	3	24_1_3	NA	NA	0	1	8.18995380402	None	None	None	None	1
3.0.1	2019_Mar_06_1202	s	s	14	1	Capacity	53	1_2	1	2	1	1	23_1_1	0	-1	1	0	2.82200694084	-423.0	-233.0	-420.0	-231.0	1
3.0.1	2019_Mar_06_1202	s	s	14	1	Capacity	54	ABS	0	0	1	1	24_1_1	NA	NA	0	1	4.16262102127	None	None	None	None	1
3.0.1	2019_Mar_06_1202	s	s	14	1	Capacity	55	1_1	1	1	1	3	23_1_3	0	2	1	0	2.91491913795	34.0	-319.0	35.0	-314.0	1
3.0.1	2019_Mar_06_1202	s	s	14	1	Capacity	56	1_2	1	2	1	3	23_1_3	0	1	1	0	2.61309289932	-91.0	257.0	-82.0	254.0	1
3.0.1	2019_Mar_06_1202	s	s	14	1	Capacity	57	1_3	1	3	1	4	23_1_4	0	-1	1	0	1.57527017593	353.0	-325.0	357.0	-328.0	1
3.0.1	2019_Mar_06_1202	s	s	14	1	Capacity	58	1_2	1	2	1	4	23_1_4	0	2	1	0	0.650561094284	178.0	-102.0	172.0	-111.0	1
3.0.1	2019_Mar_06_1202	s	s	14	1	Capacity	59	ABS	0	0	1	2	24_1_2	NA	NA	0	1	9.23834013939	None	None	None	None	1
3.0.1	2019_Mar_06_1202	s	s	14	1	Capacity	60	ABS	0	0	1	2	24_1_2	NA	NA	0	1	4.93402695656	None	None	None	None	1
3.0.1	2019_Mar_06_1202	s	s	14	1	Capacity	61	1_4	1	4	1	3	23_1_3	0	1	1	0	1.0519080162	-405.0	-119.0	-400.0	-115.0	1
3.0.1	2019_Mar_06_1202	s	s	14	1	Capacity	62	ABS	0	0	1	4	24_1_4	NA	NA	0	1	3.52116203308	None	None	None	None	1
3.0.1	2019_Mar_06_1202	s	s	14	1	Capacity	63	ABS	0	0	1	4	24_1_4	NA	NA	0	1	3.29531407356	None	None	None	None	1
3.0.1	2019_Mar_06_1202	s	s	14	1	Capacity	64	ABS	0	0	1	1	24_1_1	NA	NA	0	1	2.67677783966	None	None	None	None	1
3.0.1	2019_Mar_06_1202	s	s	14	1	Capacity	65	ABS	0	0	1	3	24_1_3	NA	NA	0	1	5.51355791092	None	None	None	None	1
3.0.1	2019_Mar_06_1202	s	s	14	1	Capacity	66	1_3	1	3	1	2	23_1_2	0	1	1	0	1.69973087311	-302.0	255.0	-303.0	258.0	1
3.0.1	2019_Mar_06_1202	s	s	14	1	Capacity	67	1_4	1	4	1	1	23_1_1	0	3	1	0	0.709789037704	365.0	-134.0	371.0	-135.0	1
3.0.1	2019_Mar_06_1202	s	s	14	1	Capacity	68	1_4	1	4	1	2	23_1_2	0	2	1	0	0.987290143967	368.0	362.0	362.0	361.0	1
3.0.1	2019_Mar_06_1202	s	s	14	1	Capacity	69	ABS	0	0	1	1	24_1_1	NA	NA	0	1	4.76711821556	None	None	None	None	1
3.0.1	2019_Mar_06_1202	s	s	14	1	Capacity	70	1_1	1	1	1	2	23_1_2	0	1	1	0	2.47570204735	166.0	179.0	157.0	181.0	1
3.0.1	2019_Mar_06_1202	s	s	14	1	Capacity	71	1_1	1	1	1	4	23_1_4	0	3	1	0	1.75679397583	499.0	-374.0	503.0	-385.0	1
3.0.1	2019_Mar_06_1202	s	s	14	1	Capacity	72	ABS	0	0	1	2	24_1_2	NA	NA	0	1	7.02580213547	None	None	None	None	1
3.0.1	2019_Mar_06_1202	s	s	14	1	Capacity	73	1_2	1	2	1	1	23_1_1	0	-1	1	0	2.32798910141	266.0	142.0	265.0	138.0	1
3.0.1	2019_Mar_06_1202	s	s	14	1	Capacity	74	1_1	1	1	1	3	23_1_3	0	2	1	0	1.54002022743	526.0	189.0	531.0	190.0	1
3.0.1	2019_Mar_06_1202	s	s	14	1	Capacity	75	ABS	0	0	1	1	24_1_1	NA	NA	0	1	3.59826493263	None	None	None	None	1
3.0.1	2019_Mar_06_1202	s	s	14	1	Capacity	76	ABS	0	0	1	3	24_1_3	NA	NA	1	0	5.55588388443	None	None	-2.0	-87.0	0
3.0.1	2019_Mar_06_1202	s	s	14	1	Capacity	77	1_1	1	1	1	2	23_1_2	0	1	1	0	2.66916513443	-186.0	-218.0	-185.0	-224.0	1
3.0.1	2019_Mar_06_1202	s	s	14	1	Capacity	78	1_2	1	2	1	4	23_1_4	0	2	1	0	1.23990511894	387.0	401.0	388.0	399.0	1
3.0.1	2019_Mar_06_1202	s	s	14	1	Capacity	79	ABS	0	0	1	2	24_1_2	NA	NA	0	1	8.22705483437	None	None	None	None	1
3.0.1	2019_Mar_06_1202	s	s	14	1	Capacity	80	1_2	1	2	1	3	23_1_3	0	1	1	0	1.75163984299	205.0	-17.0	215.0	-13.0	1
3.0.1	2019_Mar_06_1202	s	s	14	1	Capacity	81	ABS	0	0	1	1	24_1_1	NA	NA	0	1	4.15619802475	None	None	None	None	1
3.0.1	2019_Mar_06_1202	s	s	14	1	Capacity	82	1_4	1	4	1	3	23_1_3	0	1	1	0	0.857846021652	351.0	19.0	354.0	19.0	1
3.0.1	2019_Mar_06_1202	s	s	14	1	Capacity	83	ABS	0	0	1	2	24_1_2	NA	NA	0	1	7.74981689453	None	None	None	None	1
3.0.1	2019_Mar_06_1202	s	s	14	1	Capacity	84	1_1	1	1	1	4	23_1_4	0	3	1	0	1.2341799736	318.0	-244.0	317.0	-248.0	1
3.0.1	2019_Mar_06_1202	s	s	14	1	Capacity	85	ABS	0	0	1	1	24_1_1	NA	NA	0	1	7.74984884262	None	None	None	None	1
3.0.1	2019_Mar_06_1202	s	s	14	1	Capacity	86	ABS	0	0	1	2	24_1_2	NA	NA	1	0	1.11656689644	None	None	-49.0	84.0	0
3.0.1	2019_Mar_06_1202	s	s	14	1	Capacity	87	1_3	1	3	1	1	23_1_1	0	2	1	0	3.09532308578	241.0	401.0	236.0	399.0	1
3.0.1	2019_Mar_06_1202	s	s	14	1	Capacity	88	1_3	1	3	1	2	23_1_2	0	1	0	1	8.70593905449	-310.0	-270.0	None	None	0
3.0.1	2019_Mar_06_1202	s	s	14	1	Capacity	89	ABS	0	0	1	3	24_1_3	NA	NA	1	0	5.6485209465	None	None	-39.0	-108.0	0
3.0.1	2019_Mar_06_1202	s	s	14	1	Capacity	90	1_4	1	4	1	1	23_1_1	0	3	1	0	0.723714828491	-359.0	-28.0	-367.0	-31.0	1
3.0.1	2019_Mar_06_1202	s	s	14	1	Capacity	91	1_4	1	4	1	2	23_1_2	0	2	1	0	0.681507110596	-455.0	-220.0	-453.0	-214.0	1
3.0.1	2019_Mar_06_1202	s	s	14	1	Capacity	92	1_3	1	3	1	4	23_1_4	0	-1	1	0	0.763812065125	-315.0	154.0	-311.0	143.0	1
3.0.1	2019_Mar_06_1202	s	s	14	1	Capacity	93	ABS	0	0	1	4	24_1_4	NA	NA	0	1	5.45652294159	None	None	None	None	1
3.0.1	2019_Mar_06_1202	s	s	14	1	Capacity	94	ABS	0	0	1	4	24_1_4	NA	NA	0	1	4.73906803131	None	None	None	None	1
3.0.1	2019_Mar_06_1202	s	s	14	1	Capacity	95	ABS	0	0	1	3	24_1_3	NA	NA	0	1	6.03948187828	None	None	None	None	1
3.0.1	2019_Mar_06_1202	s	s	14	1	Capacity	96	ABS	0	0	1	4	24_1_4	NA	NA	0	1	4.67540407181	None	None	None	None	1
3.0.1	2019_Mar_06_1202	s	s	14	1	SIC	1	3_3	3	3	1	2	23_1_2	2	1	1	0	1.31940293312	523.0	-106.0	526.0	-111.0	1
3.0.1	2019_Mar_06_1202	s	s	14	1	SIC	2	4_3	4	3	4	4	23_4_4	0	-1	1	0	0.951965093613	-318.0	-95.0	-311.0	-93.0	1
3.0.1	2019_Mar_06_1202	s	s	14	1	SIC	3	ABS	0	0	3	1	24_3_1	NA	NA	0	1	2.07792496681	None	None	None	None	1
3.0.1	2019_Mar_06_1202	s	s	14	1	SIC	4	1_1	1	1	3	3	23_3_3	2	2	1	0	0.666064977646	-280.0	-369.0	-285.0	-375.0	1
3.0.1	2019_Mar_06_1202	s	s	14	1	SIC	5	ABS	0	0	2	4	24_2_4	NA	NA	0	1	4.62145495415	None	None	None	None	1
3.0.1	2019_Mar_06_1202	s	s	14	1	SIC	6	3_1	3	1	4	3	23_4_3	-1	2	1	0	0.505063056946	-33.0	93.0	-25.0	91.0	1
3.0.1	2019_Mar_06_1202	s	s	14	1	SIC	7	ABS	0	0	4	2	24_4_2	NA	NA	0	1	5.05668520927	None	None	None	None	1
3.0.1	2019_Mar_06_1202	s	s	14	1	SIC	8	ABS	0	0	2	4	24_2_4	NA	NA	0	1	3.39828896523	None	None	None	None	1
3.0.1	2019_Mar_06_1202	s	s	14	1	SIC	9	ABS	0	0	2	3	24_2_3	NA	NA	0	1	6.26805186272	None	None	None	None	1
3.0.1	2019_Mar_06_1202	s	s	14	1	SIC	10	2_2	2	2	1	3	23_1_3	-1	1	1	0	2.47511601448	434.0	-353.0	435.0	-352.0	1
3.0.1	2019_Mar_06_1202	s	s	14	1	SIC	11	1_1	1	1	3	4	23_3_4	2	3	1	0	0.751991033554	399.0	164.0	391.0	158.0	1
3.0.1	2019_Mar_06_1202	s	s	14	1	SIC	12	2_4	2	4	2	3	23_2_3	0	1	1	0	0.775589942932	322.0	204.0	325.0	196.0	1
3.0.1	2019_Mar_06_1202	s	s	14	1	SIC	13	ABS	0	0	4	4	24_4_4	NA	NA	0	1	3.99802708626	None	None	None	None	1
3.0.1	2019_Mar_06_1202	s	s	14	1	SIC	14	1_4	1	4	1	1	23_1_1	0	3	1	0	0.928478956223	309.0	24.0	304.0	27.0	1
3.0.1	2019_Mar_06_1202	s	s	14	1	SIC	15	ABS	0	0	1	4	24_1_4	NA	NA	0	1	4.00986385345	None	None	None	None	1
3.0.1	2019_Mar_06_1202	s	s	14	1	SIC	16	ABS	0	0	1	2	24_1_2	NA	NA	0	1	4.52736711502	None	None	None	None	1
3.0.1	2019_Mar_06_1202	s	s	14	1	SIC	17	3_3	3	3	1	1	23_1_1	2	2	1	0	1.03436303139	-284.0	-31.0	-276.0	-36.0	1
3.0.1	2019_Mar_06_1202	s	s	14	1	SIC	18	1_1	1	1	1	4	23_1_4	0	3	1	0	0.722559928894	-278.0	318.0	-268.0	322.0	1
3.0.1	2019_Mar_06_1202	s	s	14	1	SIC	19	ABS	0	0	1	1	24_1_1	NA	NA	0	1	2.11628890038	None	None	None	None	1
3.0.1	2019_Mar_06_1202	s	s	14	1	SIC	20	ABS	0	0	4	4	24_4_4	NA	NA	0	1	4.08528399467	None	None	None	None	1
3.0.1	2019_Mar_06_1202	s	s	14	1	SIC	21	ABS	0	0	3	2	24_3_2	NA	NA	1	0	6.33848690987	None	None	51.0	234.0	0
3.0.1	2019_Mar_06_1202	s	s	14	1	SIC	22	ABS	0	0	2	3	24_2_3	NA	NA	0	1	5.18590307236	None	None	None	None	1
3.0.1	2019_Mar_06_1202	s	s	14	1	SIC	23	ABS	0	0	4	1	24_4_1	NA	NA	0	1	4.16573190689	None	None	None	None	1
3.0.1	2019_Mar_06_1202	s	s	14	1	SIC	24	4_2	4	2	4	3	23_4_3	0	1	1	0	2.50442790985	231.0	-399.0	233.0	-393.0	1
3.0.1	2019_Mar_06_1202	s	s	14	1	SIC	25	3_1	3	1	1	1	23_1_1	2	0	1	0	0.710314035416	144.0	-167.0	134.0	-167.0	1
3.0.1	2019_Mar_06_1202	s	s	14	1	SIC	26	2_1	2	1	3	4	23_3_4	1	3	1	0	0.870057821274	-206.0	374.0	-198.0	375.0	1
3.0.1	2019_Mar_06_1202	s	s	14	1	SIC	27	3_2	3	2	1	3	23_1_3	2	1	1	0	0.578757047653	-109.0	59.0	-107.0	59.0	1
3.0.1	2019_Mar_06_1202	s	s	14	1	SIC	28	3_2	3	2	1	1	23_1_1	2	-1	1	0	0.907832145691	370.0	36.0	369.0	36.0	1
3.0.1	2019_Mar_06_1202	s	s	14	1	SIC	29	4_4	4	4	1	2	23_1_2	3	2	1	0	0.508686065674	487.0	-92.0	499.0	-90.0	1
3.0.1	2019_Mar_06_1202	s	s	14	1	SIC	30	ABS	0	0	2	2	24_2_2	NA	NA	1	0	4.10407114029	None	None	508.0	286.0	0
3.0.1	2019_Mar_06_1202	s	s	14	1	SIC	31	ABS	0	0	4	3	24_4_3	NA	NA	0	1	6.00922298431	None	None	None	None	1
3.0.1	2019_Mar_06_1202	s	s	14	1	SIC	32	1_3	1	3	1	2	23_1_2	0	1	0	1	6.45615196228	152.0	-130.0	None	None	0
3.0.1	2019_Mar_06_1202	s	s	14	1	SIC	33	ABS	0	0	2	3	24_2_3	NA	NA	0	1	3.26428294182	None	None	None	None	1
3.0.1	2019_Mar_06_1202	s	s	14	1	SIC	34	ABS	0	0	1	1	24_1_1	NA	NA	0	1	3.13263988495	None	None	None	None	1
3.0.1	2019_Mar_06_1202	s	s	14	1	SIC	35	1_4	1	4	3	1	23_3_1	2	3	1	0	1.00414180756	-477.0	-391.0	-469.0	-390.0	1
3.0.1	2019_Mar_06_1202	s	s	14	1	SIC	36	1_1	1	1	2	4	23_2_4	1	3	1	0	0.613690137863	26.0	-54.0	29.0	-45.0	1
3.0.1	2019_Mar_06_1202	s	s	14	1	SIC	37	ABS	0	0	2	1	24_2_1	NA	NA	0	1	2.93958091736	None	None	None	None	1
3.0.1	2019_Mar_06_1202	s	s	14	1	SIC	38	ABS	0	0	2	4	24_2_4	NA	NA	0	1	4.26887917519	None	None	None	None	1
3.0.1	2019_Mar_06_1202	s	s	14	1	SIC	39	ABS	0	0	1	2	24_1_2	NA	NA	0	1	5.12732720375	None	None	None	None	1
3.0.1	2019_Mar_06_1202	s	s	14	1	SIC	40	3_4	3	4	3	3	23_3_3	0	1	1	0	1.17969799042	211.0	104.0	209.0	104.0	1
3.0.1	2019_Mar_06_1202	s	s	14	1	SIC	41	3_4	3	4	3	2	23_3_2	0	2	1	0	1.11656999588	22.0	263.0	29.0	264.0	1
3.0.1	2019_Mar_06_1202	s	s	14	1	SIC	42	3_3	3	3	1	4	23_1_4	2	-1	1	0	0.587769031525	153.0	-86.0	153.0	-100.0	1
3.0.1	2019_Mar_06_1202	s	s	14	1	SIC	43	4_4	4	4	4	1	23_4_1	0	3	1	0	0.822580099106	-215.0	39.0	-218.0	36.0	1
3.0.1	2019_Mar_06_1202	s	s	14	1	SIC	44	ABS	0	0	1	2	24_1_2	NA	NA	1	0	0.804065942764	None	None	-102.0	169.0	0
3.0.1	2019_Mar_06_1202	s	s	14	1	SIC	45	2_4	2	4	2	2	23_2_2	0	2	1	0	0.646188020706	-95.0	312.0	-92.0	311.0	1
3.0.1	2019_Mar_06_1202	s	s	14	1	SIC	46	ABS	0	0	3	2	24_3_2	NA	NA	1	0	1.35179805756	None	None	-151.0	199.0	0
3.0.1	2019_Mar_06_1202	s	s	14	1	SIC	47	ABS	0	0	2	1	24_2_1	NA	NA	0	1	4.40971207619	None	None	None	None	1
3.0.1	2019_Mar_06_1202	s	s	14	1	SIC	48	4_3	4	3	1	1	23_1_1	3	2	1	0	0.978846788406	-418.0	-307.0	-410.0	-299.0	1
3.0.1	2019_Mar_06_1202	s	s	14	1	SIC	49	ABS	0	0	1	3	24_1_3	NA	NA	0	1	8.7260890007	None	None	None	None	1
3.0.1	2019_Mar_06_1202	s	s	14	1	SIC	50	2_1	2	1	1	3	23_1_3	-1	2	0	1	4.21012091637	147.0	-374.0	None	None	0
3.0.1	2019_Mar_06_1202	s	s	14	1	SIC	51	ABS	0	0	4	3	24_4_3	NA	NA	1	0	13.5717339516	None	None	321.0	-162.0	0
3.0.1	2019_Mar_06_1202	s	s	14	1	SIC	52	1_3	1	3	3	3	23_3_3	2	0	1	0	0.556915998459	-106.0	29.0	-107.0	39.0	1
3.0.1	2019_Mar_06_1202	s	s	14	1	SIC	53	2_4	2	4	3	2	23_3_2	1	2	1	0	0.533651828766	-438.0	-169.0	-445.0	-172.0	1
3.0.1	2019_Mar_06_1202	s	s	14	1	SIC	54	ABS	0	0	1	3	24_1_3	NA	NA	0	1	4.62865996361	None	None	None	None	1
3.0.1	2019_Mar_06_1202	s	s	14	1	SIC	55	1_1	1	1	2	1	23_2_1	1	0	1	0	0.893139123917	-387.0	-245.0	-399.0	-244.0	1
3.0.1	2019_Mar_06_1202	s	s	14	1	SIC	56	4_3	4	3	3	4	23_3_4	1	-1	1	0	0.560343980789	105.0	-154.0	107.0	-155.0	1
3.0.1	2019_Mar_06_1202	s	s	14	1	SIC	57	4_3	4	3	1	4	23_1_4	3	-1	1	0	0.532598972321	73.0	-397.0	64.0	-397.0	1
3.0.1	2019_Mar_06_1202	s	s	14	1	SIC	58	1_3	1	3	4	2	23_4_2	3	1	1	0	0.458060026169	-454.0	400.0	-455.0	401.0	1
3.0.1	2019_Mar_06_1202	s	s	14	1	SIC	59	ABS	0	0	2	3	24_2_3	NA	NA	0	1	6.05921316147	None	None	None	None	1
3.0.1	2019_Mar_06_1202	s	s	14	1	SIC	60	4_1	4	1	1	2	23_1_2	3	1	1	0	0.568864107132	-511.0	-128.0	-508.0	-130.0	1
3.0.1	2019_Mar_06_1202	s	s	14	1	SIC	61	3_4	3	4	4	4	23_4_4	-1	0	1	0	0.446218967438	-157.0	178.0	-155.0	179.0	1
3.0.1	2019_Mar_06_1202	s	s	14	1	SIC	62	1_4	1	4	3	4	23_3_4	2	0	1	0	0.474358081818	-78.0	202.0	-71.0	199.0	1
3.0.1	2019_Mar_06_1202	s	s	14	1	SIC	63	ABS	0	0	3	4	24_3_4	NA	NA	0	1	7.02460098267	None	None	None	None	1
3.0.1	2019_Mar_06_1202	s	s	14	1	SIC	64	2_3	2	3	1	4	23_1_4	-1	-1	1	0	1.26162004471	6.0	-19.0	16.0	-21.0	1
3.0.1	2019_Mar_06_1202	s	s	14	1	SIC	65	2_4	2	4	4	3	23_4_3	2	1	1	0	0.484427928925	-412.0	-109.0	-399.0	-101.0	1
3.0.1	2019_Mar_06_1202	s	s	14	1	SIC	66	3_4	3	4	1	3	23_1_3	2	1	1	0	0.928434848785	477.0	-155.0	485.0	-154.0	1
3.0.1	2019_Mar_06_1202	s	s	14	1	SIC	67	2_2	2	2	1	4	23_1_4	-1	2	1	0	0.839267015457	485.0	375.0	491.0	368.0	1
3.0.1	2019_Mar_06_1202	s	s	14	1	SIC	68	ABS	0	0	2	3	24_2_3	NA	NA	0	1	5.84844708443	None	None	None	None	1
3.0.1	2019_Mar_06_1202	s	s	14	1	SIC	69	4_2	4	2	1	4	23_1_4	3	2	1	0	0.446263790131	-112.0	121.0	-119.0	116.0	1
3.0.1	2019_Mar_06_1202	s	s	14	1	SIC	70	ABS	0	0	2	2	24_2_2	NA	NA	0	1	2.78961896896	None	None	None	None	1
3.0.1	2019_Mar_06_1202	s	s	14	1	SIC	71	ABS	0	0	3	1	24_3_1	NA	NA	0	1	2.63386392593	None	None	None	None	1
3.0.1	2019_Mar_06_1202	s	s	14	1	SIC	72	ABS	0	0	3	2	24_3_2	NA	NA	0	1	3.37472915649	None	None	None	None	1
3.0.1	2019_Mar_06_1202	s	s	14	1	SIC	73	1_3	1	3	4	4	23_4_4	3	-1	1	0	0.484433889389	-213.0	89.0	-218.0	92.0	1
3.0.1	2019_Mar_06_1202	s	s	14	1	SIC	74	2_2	2	2	3	3	23_3_3	1	1	1	0	1.22242808342	-4.0	-126.0	4.0	-128.0	1
3.0.1	2019_Mar_06_1202	s	s	14	1	SIC	75	2_2	2	2	4	4	23_4_4	2	2	1	0	0.587353229523	493.0	171.0	496.0	176.0	1
3.0.1	2019_Mar_06_1202	s	s	14	1	SIC	76	ABS	0	0	3	2	24_3_2	NA	NA	0	1	1.45760703087	None	None	None	None	1
3.0.1	2019_Mar_06_1202	s	s	14	1	SIC	77	ABS	0	0	3	4	24_3_4	NA	NA	0	1	3.04034900665	None	None	None	None	1
3.0.1	2019_Mar_06_1202	s	s	14	1	SIC	78	4_1	4	1	3	3	23_3_3	1	2	1	0	0.481724023819	-184.0	76.0	-192.0	70.0	1
3.0.1	2019_Mar_06_1202	s	s	14	1	SIC	79	1_4	1	4	2	2	23_2_2	1	2	1	0	0.637302875519	145.0	183.0	158.0	187.0	1
3.0.1	2019_Mar_06_1202	s	s	14	1	SIC	80	4_2	4	2	2	2	23_2_2	2	0	1	0	0.484889984131	-17.0	-147.0	-5.0	-145.0	1
3.0.1	2019_Mar_06_1202	s	s	14	1	SIC	81	ABS	0	0	3	2	24_3_2	NA	NA	0	1	2.63370704651	None	None	None	None	1
3.0.1	2019_Mar_06_1202	s	s	14	1	SIC	82	ABS	0	0	2	1	24_2_1	NA	NA	0	1	2.74450993538	None	None	None	None	1
3.0.1	2019_Mar_06_1202	s	s	14	1	SIC	83	ABS	0	0	2	2	24_2_2	NA	NA	1	0	1.70465898514	None	None	-337.0	-160.0	0
3.0.1	2019_Mar_06_1202	s	s	14	1	SIC	84	3_2	3	2	3	1	23_3_1	0	-1	0	1	2.31624507904	-38.0	298.0	None	None	0
3.0.1	2019_Mar_06_1202	s	s	14	1	SIC	85	3_1	3	1	4	1	23_4_1	-1	0	1	0	0.481544971466	-172.0	327.0	-168.0	320.0	1
3.0.1	2019_Mar_06_1202	s	s	14	1	SIC	86	ABS	0	0	3	3	24_3_3	NA	NA	0	1	4.71553707123	None	None	None	None	1
3.0.1	2019_Mar_06_1202	s	s	14	1	SIC	87	ABS	0	0	1	4	24_1_4	NA	NA	0	1	2.78533792496	None	None	None	None	1
3.0.1	2019_Mar_06_1202	s	s	14	1	SIC	88	4_4	4	4	4	3	23_4_3	0	1	1	0	0.841524124146	-77.0	298.0	-78.0	297.0	1
3.0.1	2019_Mar_06_1202	s	s	14	1	SIC	89	ABS	0	0	3	1	24_3_1	NA	NA	0	1	3.02568793297	None	None	None	None	1
3.0.1	2019_Mar_06_1202	s	s	14	1	SIC	90	ABS	0	0	3	2	24_3_2	NA	NA	0	1	3.99802589417	None	None	None	None	1
3.0.1	2019_Mar_06_1202	s	s	14	1	SIC	91	4_3	4	3	3	3	23_3_3	1	0	1	0	0.533399105072	-349.0	-320.0	-347.0	-333.0	1
3.0.1	2019_Mar_06_1202	s	s	14	1	SIC	92	1_4	1	4	2	4	23_2_4	1	0	0	1	4.08030700684	460.0	-292.0	None	None	0
3.0.1	2019_Mar_06_1202	s	s	14	1	SIC	93	ABS	0	0	4	2	24_4_2	NA	NA	0	1	4.98620700836	None	None	None	None	1
3.0.1	2019_Mar_06_1202	s	s	14	1	SIC	94	3_1	3	1	1	2	23_1_2	2	1	1	0	1.67230200768	-534.0	-369.0	-531.0	-374.0	1
3.0.1	2019_Mar_06_1202	s	s	14	1	SIC	95	3_1	3	1	4	4	23_4_4	-1	3	1	0	0.790188789368	440.0	-316.0	438.0	-314.0	1
3.0.1	2019_Mar_06_1202	s	s	14	1	SIC	96	3_4	3	4	1	4	23_1_4	2	0	1	0	2.23394489288	383.0	-207.0	394.0	-207.0	1
3.0.1	2019_Mar_06_1202	s	s	14	1	SIC	97	2_2	2	2	3	4	23_3_4	1	2	1	0	0.763936042786	469.0	-41.0	463.0	-44.0	1
3.0.1	2019_Mar_06_1202	s	s	14	1	SIC	98	ABS	0	0	3	2	24_3_2	NA	NA	0	1	4.48055100441	None	None	None	None	1
3.0.1	2019_Mar_06_1202	s	s	14	1	SIC	99	2_2	2	2	2	4	23_2_4	0	2	1	0	1.08421397209	24.0	377.0	25.0	363.0	1
3.0.1	2019_Mar_06_1202	s	s	14	1	SIC	100	ABS	0	0	4	2	24_4_2	NA	NA	0	1	4.54361510277	None	None	None	None	1
3.0.1	2019_Mar_06_1202	s	s	14	1	SIC	101	ABS	0	0	1	1	24_1_1	NA	NA	0	1	4.2923169136	None	None	None	None	1
3.0.1	2019_Mar_06_1202	s	s	14	1	SIC	102	3_1	3	1	3	3	23_3_3	0	2	1	0	2.56128287315	55.0	-293.0	48.0	-300.0	1
3.0.1	2019_Mar_06_1202	s	s	14	1	SIC	103	4_3	4	3	2	3	23_2_3	2	0	1	0	0.646161079407	-214.0	166.0	-214.0	169.0	1
3.0.1	2019_Mar_06_1202	s	s	14	1	SIC	104	1_3	1	3	4	1	23_4_1	3	2	1	0	0.505220890045	-159.0	250.0	-150.0	247.0	1
3.0.1	2019_Mar_06_1202	s	s	14	1	SIC	105	ABS	0	0	2	2	24_2_2	NA	NA	0	1	5.95561099052	None	None	None	None	1
3.0.1	2019_Mar_06_1202	s	s	14	1	SIC	106	ABS	0	0	3	1	24_3_1	NA	NA	1	0	3.61388206482	None	None	-73.0	134.0	0
3.0.1	2019_Mar_06_1202	s	s	14	1	SIC	107	3_2	3	2	4	1	23_4_1	-1	-1	1	0	0.704957008362	-106.0	-113.0	-108.0	-112.0	1
3.0.1	2019_Mar_06_1202	s	s	14	1	SIC	108	ABS	0	0	4	3	24_4_3	NA	NA	0	1	4.76252198219	None	None	None	None	1
3.0.1	2019_Mar_06_1202	s	s	14	1	SIC	109	ABS	0	0	3	4	24_3_4	NA	NA	0	1	2.85486006737	None	None	None	None	1
3.0.1	2019_Mar_06_1202	s	s	14	1	SIC	110	ABS	0	0	1	2	24_1_2	NA	NA	0	1	5.50047707558	None	None	None	None	1
3.0.1	2019_Mar_06_1202	s	s	14	1	SIC	111	2_4	2	4	1	4	23_1_4	-1	0	1	0	6.0979218483	57.0	-397.0	115.0	107.0	0
3.0.1	2019_Mar_06_1202	s	s	14	1	SIC	112	2_3	2	3	4	1	23_4_1	2	2	1	0	0.693186044693	-232.0	73.0	-238.0	71.0	1
3.0.1	2019_Mar_06_1202	s	s	14	1	SIC	113	ABS	0	0	1	1	24_1_1	NA	NA	0	1	2.85717606544	None	None	None	None	1
3.0.1	2019_Mar_06_1202	s	s	14	1	SIC	114	ABS	0	0	4	1	24_4_1	NA	NA	0	1	1.57222104073	None	None	None	None	1
3.0.1	2019_Mar_06_1202	s	s	14	1	SIC	115	4_3	4	3	1	2	23_1_2	3	1	1	0	0.622740030289	221.0	-26.0	223.0	-25.0	1
3.0.1	2019_Mar_06_1202	s	s	14	1	SIC	116	4_4	4	4	3	3	23_3_3	1	1	1	0	0.517216920853	1.0	-159.0	4.0	-160.0	1
3.0.1	2019_Mar_06_1202	s	s	14	1	SIC	117	ABS	0	0	4	2	24_4_2	NA	NA	0	1	5.8092880249	None	None	None	None	1
3.0.1	2019_Mar_06_1202	s	s	14	1	SIC	118	2_3	2	3	4	2	23_4_2	2	1	1	0	0.487015962601	-178.0	97.0	-173.0	88.0	1
3.0.1	2019_Mar_06_1202	s	s	14	1	SIC	119	ABS	0	0	1	1	24_1_1	NA	NA	0	1	5.60275578499	None	None	None	None	1
3.0.1	2019_Mar_06_1202	s	s	14	1	SIC	120	ABS	0	0	3	1	24_3_1	NA	NA	0	1	3.68694210052	None	None	None	None	1
3.0.1	2019_Mar_06_1202	s	s	14	1	SIC	121	4_1	4	1	4	3	23_4_3	0	2	1	0	1.73993492126	-63.0	-235.0	-64.0	-237.0	1
3.0.1	2019_Mar_06_1202	s	s	14	1	SIC	122	3_1	3	1	1	3	23_1_3	2	2	1	0	0.629284858704	-336.0	-23.0	-328.0	-15.0	1
3.0.1	2019_Mar_06_1202	s	s	14	1	SIC	123	ABS	0	0	4	2	24_4_2	NA	NA	0	1	2.99839496613	None	None	None	None	1
3.0.1	2019_Mar_06_1202	s	s	14	1	SIC	124	ABS	0	0	3	4	24_3_4	NA	NA	0	1	5.37959504128	None	None	None	None	1
3.0.1	2019_Mar_06_1202	s	s	14	1	SIC	125	ABS	0	0	2	1	24_2_1	NA	NA	0	1	4.15689992905	None	None	None	None	1
3.0.1	2019_Mar_06_1202	s	s	14	1	SIC	126	2_4	2	4	3	4	23_3_4	1	0	0	1	0.981022119522	321.0	-103.0	None	None	0
3.0.1	2019_Mar_06_1202	s	s	14	1	SIC	127	1_3	1	3	2	2	23_2_2	1	1	0	1	6.85264801979	312.0	-378.0	None	None	0
3.0.1	2019_Mar_06_1202	s	s	14	1	SIC	128	2_3	2	3	2	2	23_2_2	0	1	1	0	4.08080792427	182.0	91.0	185.0	94.0	1
3.0.1	2019_Mar_06_1202	s	s	14	1	SIC	129	ABS	0	0	1	3	24_1_3	NA	NA	0	1	5.92685508728	None	None	None	None	1
3.0.1	2019_Mar_06_1202	s	s	14	1	SIC	130	3_3	3	3	1	3	23_1_3	2	0	1	0	0.897606134415	-518.0	310.0	-525.0	309.0	1
3.0.1	2019_Mar_06_1202	s	s	14	1	SIC	131	3_2	3	2	3	3	23_3_3	0	1	1	0	5.45645999908	525.0	-11.0	535.0	-10.0	1
3.0.1	2019_Mar_06_1202	s	s	14	1	SIC	132	2_1	2	1	3	3	23_3_3	1	2	1	0	2.81025886536	-295.0	-363.0	-293.0	-363.0	1
3.0.1	2019_Mar_06_1202	s	s	14	1	SIC	133	4_1	4	1	2	2	23_2_2	2	1	1	0	0.618568897247	-504.0	-406.0	-507.0	-401.0	1
3.0.1	2019_Mar_06_1202	s	s	14	1	SIC	134	1_2	1	2	4	4	23_4_4	3	2	1	0	0.822572946548	485.0	-333.0	480.0	-334.0	1
3.0.1	2019_Mar_06_1202	s	s	14	1	SIC	135	3_3	3	3	4	3	23_4_3	-1	0	1	0	1.08616399765	-134.0	-299.0	-133.0	-302.0	1
3.0.1	2019_Mar_06_1202	s	s	14	1	SIC	136	2_1	2	1	2	3	23_2_3	0	2	1	0	1.25244688988	467.0	264.0	477.0	273.0	1
3.0.1	2019_Mar_06_1202	s	s	14	1	SIC	137	2_4	2	4	1	3	23_1_3	-1	1	1	0	2.19202303886	-34.0	-65.0	-41.0	-69.0	1
3.0.1	2019_Mar_06_1202	s	s	14	1	SIC	138	ABS	0	0	4	3	24_4_3	NA	NA	0	1	5.41462111473	None	None	None	None	1
3.0.1	2019_Mar_06_1202	s	s	14	1	SIC	139	ABS	0	0	3	4	24_3_4	NA	NA	0	1	5.44087004662	None	None	None	None	1
3.0.1	2019_Mar_06_1202	s	s	14	1	SIC	140	4_2	4	2	3	2	23_3_2	1	0	1	0	0.756793022156	36.0	381.0	41.0	374.0	1
3.0.1	2019_Mar_06_1202	s	s	14	1	SIC	141	ABS	0	0	4	2	24_4_2	NA	NA	0	1	5.24465298653	None	None	None	None	1
3.0.1	2019_Mar_06_1202	s	s	14	1	SIC	142	2_2	2	2	1	1	23_1_1	-1	-1	1	0	3.12769603729	-333.0	-106.0	-335.0	-114.0	1
3.0.1	2019_Mar_06_1202	s	s	14	1	SIC	143	ABS	0	0	4	3	24_4_3	NA	NA	0	1	5.6564040184	None	None	None	None	1
3.0.1	2019_Mar_06_1202	s	s	14	1	SIC	144	ABS	0	0	4	1	24_4_1	NA	NA	0	1	4.16697883606	None	None	None	None	1
3.0.1	2019_Mar_06_1202	s	s	14	1	SIC	145	4_3	4	3	2	2	23_2_2	2	1	1	0	0.587343931198	-16.0	-291.0	-12.0	-292.0	1
3.0.1	2019_Mar_06_1202	s	s	14	1	SIC	146	ABS	0	0	2	4	24_2_4	NA	NA	0	1	3.45043683052	None	None	None	None	1
3.0.1	2019_Mar_06_1202	s	s	14	1	SIC	147	3_3	3	3	2	3	23_2_3	1	0	1	0	1.1096329689	254.0	229.0	260.0	228.0	1
3.0.1	2019_Mar_06_1202	s	s	14	1	SIC	148	3_3	3	3	3	2	23_3_2	0	1	0	1	5.12715601921	-527.0	233.0	None	None	0
3.0.1	2019_Mar_06_1202	s	s	14	1	SIC	149	ABS	0	0	1	1	24_1_1	NA	NA	0	1	3.88048100471	None	None	None	None	1
3.0.1	2019_Mar_06_1202	s	s	14	1	SIC	150	1_3	1	3	3	1	23_3_1	2	2	1	0	1.05779504776	-22.0	-378.0	-22.0	-381.0	1
3.0.1	2019_Mar_06_1202	s	s	14	1	SIC	151	4_2	4	2	1	1	23_1_1	3	-1	1	0	0.528526067734	-212.0	295.0	-212.0	297.0	1
3.0.1	2019_Mar_06_1202	s	s	14	1	SIC	152	ABS	0	0	2	3	24_2_3	NA	NA	0	1	6.836550951	None	None	None	None	1
3.0.1	2019_Mar_06_1202	s	s	14	1	SIC	153	ABS	0	0	4	2	24_4_2	NA	NA	0	1	6.17381691933	None	None	None	None	1
3.0.1	2019_Mar_06_1202	s	s	14	1	SIC	154	ABS	0	0	2	4	24_2_4	NA	NA	0	1	5.06828904152	None	None	None	None	1
3.0.1	2019_Mar_06_1202	s	s	14	1	SIC	155	ABS	0	0	3	3	24_3_3	NA	NA	0	1	4.40959787369	None	None	None	None	1
3.0.1	2019_Mar_06_1202	s	s	14	1	SIC	156	3_2	3	2	4	3	23_4_3	-1	1	1	0	0.775532960892	-242.0	33.0	-233.0	39.0	1
3.0.1	2019_Mar_06_1202	s	s	14	1	SIC	157	3_4	3	4	1	1	23_1_1	2	3	1	0	0.559070825577	-151.0	-23.0	-142.0	-23.0	1
3.0.1	2019_Mar_06_1202	s	s	14	1	SIC	158	ABS	0	0	2	4	24_2_4	NA	NA	0	1	4.48045301437	None	None	None	None	1
3.0.1	2019_Mar_06_1202	s	s	14	1	SIC	159	ABS	0	0	4	1	24_4_1	NA	NA	1	0	0.922065973282	None	None	-203.0	131.0	0
3.0.1	2019_Mar_06_1202	s	s	14	1	SIC	160	1_1	1	1	4	3	23_4_3	3	2	1	0	0.469727039337	-495.0	-237.0	-493.0	-235.0	1
3.0.1	2019_Mar_06_1202	s	s	14	1	SIC	161	2_3	2	3	4	4	23_4_4	2	-1	1	0	0.48156785965	-256.0	-278.0	-266.0	-277.0	1
3.0.1	2019_Mar_06_1202	s	s	14	1	SIC	162	4_1	4	1	2	3	23_2_3	2	2	1	0	0.563802957535	437.0	377.0	433.0	379.0	1
3.0.1	2019_Mar_06_1202	s	s	14	1	SIC	163	ABS	0	0	3	1	24_3_1	NA	NA	0	1	3.04540300369	None	None	None	None	1
3.0.1	2019_Mar_06_1202	s	s	14	1	SIC	164	ABS	0	0	4	4	24_4_4	NA	NA	0	1	3.35556793213	None	None	None	None	1
3.0.1	2019_Mar_06_1202	s	s	14	1	SIC	165	ABS	0	0	1	1	24_1_1	NA	NA	0	1	3.52765107155	None	None	None	None	1
3.0.1	2019_Mar_06_1202	s	s	14	1	SIC	166	ABS	0	0	4	4	24_4_4	NA	NA	0	1	6.69598484039	None	None	None	None	1
3.0.1	2019_Mar_06_1202	s	s	14	1	SIC	167	2_1	2	1	3	2	23_3_2	1	1	1	0	0.716763973236	-424.0	56.0	-427.0	50.0	1
3.0.1	2019_Mar_06_1202	s	s	14	1	SIC	168	ABS	0	0	4	4	24_4_4	NA	NA	0	1	5.11541104317	None	None	None	None	1
3.0.1	2019_Mar_06_1202	s	s	14	1	SIC	169	ABS	0	0	1	4	24_1_4	NA	NA	0	1	5.34571313858	None	None	None	None	1
3.0.1	2019_Mar_06_1202	s	s	14	1	SIC	170	3_2	3	2	2	1	23_2_1	1	-1	1	0	2.38029694557	440.0	-409.0	450.0	-408.0	1
3.0.1	2019_Mar_06_1202	s	s	14	1	SIC	171	ABS	0	0	4	3	24_4_3	NA	NA	0	1	5.09758901596	None	None	None	None	1
3.0.1	2019_Mar_06_1202	s	s	14	1	SIC	172	1_4	1	4	4	3	23_4_3	3	1	1	0	0.563853979111	-66.0	-65.0	-62.0	-65.0	1
3.0.1	2019_Mar_06_1202	s	s	14	1	SIC	173	ABS	0	0	2	3	24_2_3	NA	NA	0	1	5.92686581612	None	None	None	None	1
3.0.1	2019_Mar_06_1202	s	s	14	1	SIC	174	ABS	0	0	1	3	24_1_3	NA	NA	0	1	3.81334900856	None	None	None	None	1
3.0.1	2019_Mar_06_1202	s	s	14	1	SIC	175	ABS	0	0	4	2	24_4_2	NA	NA	0	1	4.65076613426	None	None	None	None	1
3.0.1	2019_Mar_06_1202	s	s	14	1	SIC	176	3_3	3	3	4	4	23_4_4	-1	-1	1	0	0.627449035645	-26.0	271.0	-26.0	265.0	1
3.0.1	2019_Mar_06_1202	s	s	14	1	SIC	177	ABS	0	0	4	4	24_4_4	NA	NA	0	1	5.30347681046	None	None	None	None	1
3.0.1	2019_Mar_06_1202	s	s	14	1	SIC	178	ABS	0	0	3	2	24_3_2	NA	NA	0	1	4.49206995964	None	None	None	None	1
3.0.1	2019_Mar_06_1202	s	s	14	1	SIC	179	ABS	0	0	3	4	24_3_4	NA	NA	0	1	4.23330497742	None	None	None	None	1
3.0.1	2019_Mar_06_1202	s	s	14	1	SIC	180	ABS	0	0	2	1	24_2_1	NA	NA	1	0	3.13066196442	None	None	-108.0	-26.0	0
3.0.1	2019_Mar_06_1202	s	s	14	1	SIC	181	ABS	0	0	1	1	24_1_1	NA	NA	0	1	2.76359510422	None	None	None	None	1
3.0.1	2019_Mar_06_1202	s	s	14	1	SIC	182	ABS	0	0	2	3	24_2_3	NA	NA	0	1	3.81009507179	None	None	None	None	1
3.0.1	2019_Mar_06_1202	s	s	14	1	SIC	183	1_3	1	3	2	4	23_2_4	1	-1	1	0	1.04965186119	250.0	284.0	256.0	277.0	1
3.0.1	2019_Mar_06_1202	s	s	14	1	SIC	184	ABS	0	0	2	2	24_2_2	NA	NA	0	1	3.42854905128	None	None	None	None	1
3.0.1	2019_Mar_06_1202	s	s	14	1	SIC	185	ABS	0	0	1	2	24_1_2	NA	NA	0	1	4.4567861557	None	None	None	None	1
3.0.1	2019_Mar_06_1202	s	s	14	1	SIC	186	2_2	2	2	1	2	23_1_2	-1	0	0	1	4.19806909561	22.0	395.0	None	None	0
3.0.1	2019_Mar_06_1202	s	s	14	1	SIC	187	ABS	0	0	1	4	24_1_4	NA	NA	0	1	3.46927309036	None	None	None	None	1
3.0.1	2019_Mar_06_1202	s	s	14	1	SIC	188	1_2	1	2	1	4	23_1_4	0	2	1	0	3.02193307877	271.0	-352.0	261.0	-350.0	1
3.0.1	2019_Mar_06_1202	s	s	14	1	SIC	189	ABS	0	0	1	1	24_1_1	NA	NA	0	1	3.33943104744	None	None	None	None	1
3.0.1	2019_Mar_06_1202	s	s	14	1	SIC	190	4_1	4	1	3	1	23_3_1	1	0	1	0	0.805855989456	-347.0	-241.0	-343.0	-240.0	1
3.0.1	2019_Mar_06_1202	s	s	14	1	SIC	191	ABS	0	0	3	1	24_3_1	NA	NA	0	1	4.1514749527	None	None	None	None	1
3.0.1	2019_Mar_06_1202	s	s	14	1	SIC	192	4_2	4	2	1	3	23_1_3	3	1	1	0	0.740221977234	153.0	-270.0	154.0	-267.0	1
3.0.1	2019_Mar_06_1202	s	s	14	1	SIC	193	2_4	2	4	3	3	23_3_3	1	1	1	0	0.854688882828	-316.0	229.0	-315.0	224.0	1
3.0.1	2019_Mar_06_1202	s	s	14	1	SIC	194	2_4	2	4	4	1	23_4_1	2	3	1	0	0.543678998947	335.0	394.0	339.0	400.0	1
3.0.1	2019_Mar_06_1202	s	s	14	1	SIC	195	ABS	0	0	4	2	24_4_2	NA	NA	0	1	3.79809784889	None	None	None	None	1
3.0.1	2019_Mar_06_1202	s	s	14	1	SIC	196	ABS	0	0	4	4	24_4_4	NA	NA	0	1	3.69768404961	None	None	None	None	1
3.0.1	2019_Mar_06_1202	s	s	14	1	SIC	197	ABS	0	0	2	3	24_2_3	NA	NA	0	1	4.52721810341	None	None	None	None	1
3.0.1	2019_Mar_06_1202	s	s	14	1	SIC	198	2_2	2	2	2	3	23_2_3	0	1	1	0	1.63400816917	-325.0	-264.0	-326.0	-269.0	1
3.0.1	2019_Mar_06_1202	s	s	14	1	SIC	199	ABS	0	0	1	2	24_1_2	NA	NA	1	0	3.65991711617	None	None	-125.0	144.0	0
3.0.1	2019_Mar_06_1202	s	s	14	1	SIC	200	3_3	3	3	2	2	23_2_2	1	1	1	0	0.747267007828	96.0	66.0	93.0	61.0	1
3.0.1	2019_Mar_06_1202	s	s	14	1	SIC	201	ABS	0	0	2	4	24_2_4	NA	NA	0	1	3.46929979324	None	None	None	None	1
3.0.1	2019_Mar_06_1202	s	s	14	1	SIC	202	2_1	2	1	2	4	23_2_4	0	3	1	0	1.02640891075	14.0	403.0	6.0	411.0	1
3.0.1	2019_Mar_06_1202	s	s	14	1	SIC	203	3_4	3	4	4	1	23_4_1	-1	3	1	0	0.716732978821	-200.0	-404.0	-194.0	-407.0	1
3.0.1	2019_Mar_06_1202	s	s	14	1	SIC	204	1_2	1	2	1	1	23_1_1	0	-1	1	0	4.82664394379	91.0	-7.0	85.0	-3.0	1
3.0.1	2019_Mar_06_1202	s	s	14	1	SIC	205	ABS	0	0	1	2	24_1_2	NA	NA	0	1	4.61868882179	None	None	None	None	1
3.0.1	2019_Mar_06_1202	s	s	14	1	SIC	206	4_4	4	4	2	4	23_2_4	2	0	1	0	0.676692962646	-421.0	398.0	-419.0	398.0	1
3.0.1	2019_Mar_06_1202	s	s	14	1	SIC	207	ABS	0	0	2	4	24_2_4	NA	NA	0	1	4.9791970253	None	None	None	None	1
3.0.1	2019_Mar_06_1202	s	s	14	1	SIC	208	ABS	0	0	4	1	24_4_1	NA	NA	0	1	3.8926460743	None	None	None	None	1
3.0.1	2019_Mar_06_1202	s	s	14	1	SIC	209	ABS	0	0	1	2	24_1_2	NA	NA	0	1	9.65003299713	None	None	None	None	1
3.0.1	2019_Mar_06_1202	s	s	14	1	SIC	210	ABS	0	0	2	3	24_2_3	NA	NA	0	1	4.63686013222	None	None	None	None	1
3.0.1	2019_Mar_06_1202	s	s	14	1	SIC	211	ABS	0	0	2	1	24_2_1	NA	NA	0	1	3.82853603363	None	None	None	None	1
3.0.1	2019_Mar_06_1202	s	s	14	1	SIC	212	ABS	0	0	4	1	24_4_1	NA	NA	0	1	2.2575070858	None	None	None	None	1
3.0.1	2019_Mar_06_1202	s	s	14	1	SIC	213	ABS	0	0	1	3	24_1_3	NA	NA	0	1	7.90286612511	None	None	None	None	1
3.0.1	2019_Mar_06_1202	s	s	14	1	SIC	214	4_1	4	1	1	4	23_1_4	3	3	1	0	0.528867006302	69.0	-310.0	76.0	-312.0	1
3.0.1	2019_Mar_06_1202	s	s	14	1	SIC	215	3_2	3	2	2	3	23_2_3	1	1	1	0	0.827486991882	431.0	142.0	427.0	139.0	1
3.0.1	2019_Mar_06_1202	s	s	14	1	SIC	216	ABS	0	0	2	4	24_2_4	NA	NA	0	1	5.32024979591	None	None	None	None	1
3.0.1	2019_Mar_06_1202	s	s	14	1	SIC	217	4_3	4	3	4	1	23_4_1	0	2	1	0	2.19223284721	171.0	-372.0	170.0	-371.0	1
3.0.1	2019_Mar_06_1202	s	s	14	1	SIC	218	2_1	2	1	2	2	23_2_2	0	1	0	1	6.04765701294	-196.0	104.0	None	None	0
3.0.1	2019_Mar_06_1202	s	s	14	1	SIC	219	ABS	0	0	1	2	24_1_2	NA	NA	0	1	4.33320593834	None	None	None	None	1
3.0.1	2019_Mar_06_1202	s	s	14	1	SIC	220	1_1	1	1	4	4	23_4_4	3	3	1	0	0.52899980545	-434.0	-257.0	-432.0	-265.0	1
3.0.1	2019_Mar_06_1202	s	s	14	1	SIC	221	2_3	2	3	4	3	23_4_3	2	0	1	0	0.500906944275	-354.0	159.0	-356.0	151.0	1
3.0.1	2019_Mar_06_1202	s	s	14	1	SIC	222	ABS	0	0	1	4	24_1_4	NA	NA	0	1	3.59817409515	None	None	None	None	1
3.0.1	2019_Mar_06_1202	s	s	14	1	SIC	223	3_4	3	4	3	1	23_3_1	0	3	1	0	0.791177034378	-85.0	350.0	-79.0	351.0	1
3.0.1	2019_Mar_06_1202	s	s	14	1	SIC	224	4_4	4	4	1	1	23_1_1	3	3	1	0	0.602459907532	117.0	290.0	120.0	286.0	1
3.0.1	2019_Mar_06_1202	s	s	14	1	SIC	225	ABS	0	0	4	1	24_4_1	NA	NA	0	1	3.82162284851	None	None	None	None	1
3.0.1	2019_Mar_06_1202	s	s	14	1	SIC	226	2_1	2	1	1	2	23_1_2	-1	1	1	0	3.36802911758	296.0	107.0	294.0	95.0	1
3.0.1	2019_Mar_06_1202	s	s	14	1	SIC	227	3_2	3	2	1	4	23_1_4	2	2	1	0	0.657993078232	-260.0	330.0	-251.0	334.0	1
3.0.1	2019_Mar_06_1202	s	s	14	1	SIC	228	ABS	0	0	2	3	24_2_3	NA	NA	0	1	3.61283683777	None	None	None	None	1
3.0.1	2019_Mar_06_1202	s	s	14	1	SIC	229	ABS	0	0	3	3	24_3_3	NA	NA	0	1	2.58016586304	None	None	None	None	1
3.0.1	2019_Mar_06_1202	s	s	14	1	SIC	230	ABS	0	0	1	1	24_1_1	NA	NA	0	1	3.66880297661	None	None	None	None	1
3.0.1	2019_Mar_06_1202	s	s	14	1	SIC	231	ABS	0	0	2	2	24_2_2	NA	NA	0	1	7.32929992676	None	None	None	None	1
3.0.1	2019_Mar_06_1202	s	s	14	1	SIC	232	ABS	0	0	1	2	24_1_2	NA	NA	0	1	8.59675788879	None	None	None	None	1
3.0.1	2019_Mar_06_1202	s	s	14	1	SIC	233	ABS	0	0	1	1	24_1_1	NA	NA	0	1	4.97007489204	None	None	None	None	1
3.0.1	2019_Mar_06_1202	s	s	14	1	SIC	234	ABS	0	0	3	3	24_3_3	NA	NA	1	0	1.29304909706	None	None	-471.0	69.0	0
3.0.1	2019_Mar_06_1202	s	s	14	1	SIC	235	4_1	4	1	1	3	23_1_3	3	2	1	0	0.67357301712	527.0	337.0	535.0	340.0	1
3.0.1	2019_Mar_06_1202	s	s	14	1	SIC	236	2_3	2	3	1	3	23_1_3	-1	0	0	1	3.12779593468	161.0	260.0	None	None	0
3.0.1	2019_Mar_06_1202	s	s	14	1	SIC	237	ABS	0	0	4	2	24_4_2	NA	NA	0	1	3.26001405716	None	None	None	None	1
3.0.1	2019_Mar_06_1202	s	s	14	1	SIC	238	ABS	0	0	2	4	24_2_4	NA	NA	0	1	4.6295979023	None	None	None	None	1
3.0.1	2019_Mar_06_1202	s	s	14	1	SIC	239	ABS	0	0	3	1	24_3_1	NA	NA	0	1	3.86864209175	None	None	None	None	1
3.0.1	2019_Mar_06_1202	s	s	14	1	SIC	240	ABS	0	0	2	4	24_2_4	NA	NA	0	1	4.1392519474	None	None	None	None	1
3.0.1	2019_Mar_06_1202	s	s	14	1	SIC	241	2_4	2	4	1	2	23_1_2	-1	2	1	0	1.01117491722	370.0	-54.0	371.0	-54.0	1
3.0.1	2019_Mar_06_1202	s	s	14	1	SIC	242	ABS	0	0	1	1	24_1_1	NA	NA	0	1	2.7162539959	None	None	None	None	1
3.0.1	2019_Mar_06_1202	s	s	14	1	SIC	243	3_4	3	4	2	4	23_2_4	1	0	1	0	0.82261800766	134.0	299.0	134.0	299.0	1
3.0.1	2019_Mar_06_1202	s	s	14	1	SIC	244	4_2	4	2	2	1	23_2_1	2	-1	1	0	0.546738862991	236.0	390.0	240.0	388.0	1
3.0.1	2019_Mar_06_1202	s	s	14	1	SIC	245	ABS	0	0	3	3	24_3_3	NA	NA	0	1	3.58141517639	None	None	None	None	1
3.0.1	2019_Mar_06_1202	s	s	14	1	SIC	246	1_2	1	2	3	4	23_3_4	2	2	1	0	0.699767827988	-422.0	213.0	-416.0	214.0	1
3.0.1	2019_Mar_06_1202	s	s	14	1	SIC	247	ABS	0	0	3	1	24_3_1	NA	NA	0	1	3.24541497231	None	None	None	None	1
3.0.1	2019_Mar_06_1202	s	s	14	1	SIC	248	ABS	0	0	4	1	24_4_1	NA	NA	1	0	4.24507403374	None	None	-441.0	98.0	0
3.0.1	2019_Mar_06_1202	s	s	14	1	SIC	249	ABS	0	0	4	2	24_4_2	NA	NA	0	1	4.45675992966	None	None	None	None	1
3.0.1	2019_Mar_06_1202	s	s	14	1	SIC	250	3_2	3	2	3	4	23_3_4	0	2	1	0	1.04649806023	-486.0	275.0	-490.0	274.0	1
3.0.1	2019_Mar_06_1202	s	s	14	1	SIC	251	1_1	1	1	4	1	23_4_1	3	0	1	0	0.496167898178	-507.0	-71.0	-498.0	-64.0	1
3.0.1	2019_Mar_06_1202	s	s	14	1	SIC	252	2_3	2	3	3	4	23_3_4	1	-1	1	0	0.77555513382	-296.0	-300.0	-290.0	-292.0	1
3.0.1	2019_Mar_06_1202	s	s	14	1	SIC	253	1_2	1	2	2	4	23_2_4	1	2	1	0	0.907707929611	-298.0	-310.0	-296.0	-315.0	1
3.0.1	2019_Mar_06_1202	s	s	14	1	SIC	254	1_2	1	2	2	3	23_2_3	1	1	1	0	2.6455488205	421.0	90.0	420.0	97.0	1
3.0.1	2019_Mar_06_1202	s	s	14	1	SIC	255	ABS	0	0	1	3	24_1_3	NA	NA	0	1	5.22124886513	None	None	None	None	1
3.0.1	2019_Mar_06_1202	s	s	14	1	SIC	256	ABS	0	0	3	3	24_3_3	NA	NA	0	1	4.60310196877	None	None	None	None	1
3.0.1	2019_Mar_06_1202	s	s	14	1	SIC	257	1_2	1	2	1	3	23_1_3	0	1	1	0	4.02677702904	-82.0	-129.0	-76.0	-129.0	1
3.0.1	2019_Mar_06_1202	s	s	14	1	SIC	258	4_1	4	1	3	4	23_3_4	1	3	1	0	0.469763994217	238.0	-162.0	243.0	-166.0	1
3.0.1	2019_Mar_06_1202	s	s	14	1	SIC	259	ABS	0	0	3	4	24_3_4	NA	NA	0	1	5.4971871376	None	None	None	None	1
3.0.1	2019_Mar_06_1202	s	s	14	1	SIC	260	1_2	1	2	2	1	23_2_1	1	-1	1	0	2.80365490913	242.0	-272.0	239.0	-265.0	1
3.0.1	2019_Mar_06_1202	s	s	14	1	SIC	261	ABS	0	0	3	1	24_3_1	NA	NA	0	1	3.48066091537	None	None	None	None	1
3.0.1	2019_Mar_06_1202	s	s	14	1	SIC	262	ABS	0	0	4	3	24_4_3	NA	NA	0	1	7.05088496208	None	None	None	None	1
3.0.1	2019_Mar_06_1202	s	s	14	1	SIC	263	ABS	0	0	1	3	24_1_3	NA	NA	0	1	4.31563782692	None	None	None	None	1
3.0.1	2019_Mar_06_1202	s	s	14	1	SIC	264	1_4	1	4	3	3	23_3_3	2	1	1	0	0.886145114899	386.0	148.0	385.0	147.0	1
3.0.1	2019_Mar_06_1202	s	s	14	1	SIC	265	3_3	3	3	4	1	23_4_1	-1	2	1	0	0.519697189331	-398.0	-86.0	-393.0	-78.0	1
3.0.1	2019_Mar_06_1202	s	s	14	1	SIC	266	ABS	0	0	2	2	24_2_2	NA	NA	0	1	3.0336830616	None	None	None	None	1
3.0.1	2019_Mar_06_1202	s	s	14	1	SIC	267	ABS	0	0	2	3	24_2_3	NA	NA	0	1	3.97452306747	None	None	None	None	1
3.0.1	2019_Mar_06_1202	s	s	14	1	SIC	268	4_1	4	1	2	4	23_2_4	2	3	1	0	0.55702996254	-282.0	-238.0	-274.0	-240.0	1
3.0.1	2019_Mar_06_1202	s	s	14	1	SIC	269	1_3	1	3	1	4	23_1_4	0	-1	1	0	2.02227497101	-342.0	-69.0	-332.0	-69.0	1
3.0.1	2019_Mar_06_1202	s	s	14	1	SIC	270	4_4	4	4	4	2	23_4_2	0	2	1	0	0.849978923798	-24.0	-20.0	-26.0	-20.0	1
3.0.1	2019_Mar_06_1202	s	s	14	1	SIC	271	ABS	0	0	1	3	24_1_3	NA	NA	0	1	5.87988400459	None	None	None	None	1
3.0.1	2019_Mar_06_1202	s	s	14	1	SIC	272	ABS	0	0	2	2	24_2_2	NA	NA	0	1	5.8680729866	None	None	None	None	1
3.0.1	2019_Mar_06_1202	s	s	14	1	SIC	273	ABS	0	0	4	1	24_4_1	NA	NA	1	0	3.19295597076	None	None	-41.0	-36.0	0
3.0.1	2019_Mar_06_1202	s	s	14	1	SIC	274	3_3	3	3	3	4	23_3_4	0	-1	1	0	0.799068927765	-9.0	130.0	-15.0	127.0	1
3.0.1	2019_Mar_06_1202	s	s	14	1	SIC	275	ABS	0	0	1	3	24_1_3	NA	NA	0	1	3.68055415154	None	None	None	None	1
3.0.1	2019_Mar_06_1202	s	s	14	1	SIC	276	ABS	0	0	3	1	24_3_1	NA	NA	0	1	4.39801096916	None	None	None	None	1
3.0.1	2019_Mar_06_1202	s	s	14	1	SIC	277	2_4	2	4	1	1	23_1_1	-1	3	1	0	0.907836914062	427.0	274.0	432.0	268.0	1
3.0.1	2019_Mar_06_1202	s	s	14	1	SIC	278	3_4	3	4	4	3	23_4_3	-1	1	1	0	0.693229913712	67.0	-381.0	70.0	-385.0	1
3.0.1	2019_Mar_06_1202	s	s	14	1	SIC	279	ABS	0	0	3	3	24_3_3	NA	NA	0	1	2.78951597214	None	None	None	None	1
3.0.1	2019_Mar_06_1202	s	s	14	1	SIC	280	2_1	2	1	3	1	23_3_1	1	0	1	0	0.881371021271	192.0	-50.0	201.0	-54.0	1
3.0.1	2019_Mar_06_1202	s	s	14	1	SIC	281	ABS	0	0	4	3	24_4_3	NA	NA	0	1	3.90931296349	None	None	None	None	1
3.0.1	2019_Mar_06_1202	s	s	14	1	SIC	282	1_4	1	4	4	4	23_4_4	3	0	1	0	0.481527805328	232.0	-54.0	240.0	-54.0	1
3.0.1	2019_Mar_06_1202	s	s	14	1	SIC	283	3_1	3	1	3	2	23_3_2	0	1	0	1	5.06376409531	-218.0	-326.0	None	None	0
3.0.1	2019_Mar_06_1202	s	s	14	1	SIC	284	ABS	0	0	1	3	24_1_3	NA	NA	0	1	3.37981700897	None	None	None	None	1
3.0.1	2019_Mar_06_1202	s	s	14	1	SIC	285	4_4	4	4	3	2	23_3_2	1	2	1	0	0.563891172409	-94.0	141.0	-98.0	129.0	1
3.0.1	2019_Mar_06_1202	s	s	14	1	SIC	286	4_3	4	3	1	3	23_1_3	3	0	1	0	0.474110126495	228.0	263.0	227.0	267.0	1
3.0.1	2019_Mar_06_1202	s	s	14	1	SIC	287	ABS	0	0	2	4	24_2_4	NA	NA	0	1	3.50409698486	None	None	None	None	1
3.0.1	2019_Mar_06_1202	s	s	14	1	SIC	288	4_2	4	2	4	4	23_4_4	0	2	1	0	2.52122807503	539.0	-329.0	539.0	-329.0	1
3.0.1	2019_Mar_06_1202	s	s	14	1	SIC	289	1_1	1	1	2	3	23_2_3	1	2	1	0	0.540363073349	-215.0	146.0	-209.0	143.0	1
3.0.1	2019_Mar_06_1202	s	s	14	1	SIC	290	ABS	0	0	4	4	24_4_4	NA	NA	0	1	3.97301292419	None	None	None	None	1
3.0.1	2019_Mar_06_1202	s	s	14	1	SIC	291	ABS	0	0	3	3	24_3_3	NA	NA	0	1	6.92940211296	None	None	None	None	1
3.0.1	2019_Mar_06_1202	s	s	14	1	SIC	292	ABS	0	0	2	4	24_2_4	NA	NA	0	1	4.79776120186	None	None	None	None	1
3.0.1	2019_Mar_06_1202	s	s	14	1	SIC	293	ABS	0	0	2	4	24_2_4	NA	NA	0	1	3.93926620483	None	None	None	None	1
3.0.1	2019_Mar_06_1202	s	s	14	1	SIC	294	ABS	0	0	2	1	24_2_1	NA	NA	0	1	3.42188096046	None	None	None	None	1
3.0.1	2019_Mar_06_1202	s	s	14	1	SIC	295	ABS	0	0	3	1	24_3_1	NA	NA	0	1	3.65704011917	None	None	None	None	1
3.0.1	2019_Mar_06_1202	s	s	14	1	SIC	296	3_1	3	1	1	4	23_1_4	2	3	1	0	1.01077890396	501.0	-175.0	506.0	-177.0	1
3.0.1	2019_Mar_06_1202	s	s	14	1	SIC	297	2_1	2	1	1	1	23_1_1	-1	0	0	1	5.16242098808	-164.0	-20.0	None	None	0
3.0.1	2019_Mar_06_1202	s	s	14	1	SIC	298	ABS	0	0	1	4	24_1_4	NA	NA	0	1	4.71966195107	None	None	None	None	1
3.0.1	2019_Mar_06_1202	s	s	14	1	SIC	299	1_4	1	4	4	2	23_4_2	3	2	1	0	0.533694028854	124.0	-121.0	116.0	-124.0	1
3.0.1	2019_Mar_06_1202	s	s	14	1	SIC	300	2_3	2	3	1	2	23_1_2	-1	1	1	0	3.6386859417	302.0	167.0	297.0	174.0	1
3.0.1	2019_Mar_06_1202	s	s	14	1	SIC	301	1_1	1	1	2	2	23_2_2	1	1	1	0	2.48756313324	-449.0	-361.0	-440.0	-364.0	1
3.0.1	2019_Mar_06_1202	s	s	14	1	SIC	302	4_2	4	2	2	3	23_2_3	2	1	1	0	0.599503993988	313.0	-275.0	312.0	-274.0	1
3.0.1	2019_Mar_06_1202	s	s	14	1	SIC	303	4_4	4	4	2	1	23_2_1	2	3	1	0	0.496132135391	492.0	20.0	479.0	25.0	1
3.0.1	2019_Mar_06_1202	s	s	14	1	SIC	304	2_2	2	2	4	2	23_4_2	2	0	1	0	0.502201795578	30.0	267.0	29.0	261.0	1
3.0.1	2019_Mar_06_1202	s	s	14	1	SIC	305	ABS	0	0	1	3	24_1_3	NA	NA	0	1	5.83282518387	None	None	None	None	1
3.0.1	2019_Mar_06_1202	s	s	14	1	SIC	306	ABS	0	0	3	1	24_3_1	NA	NA	0	1	1.24090790749	None	None	None	None	1
3.0.1	2019_Mar_06_1202	s	s	14	1	SIC	307	ABS	0	0	1	4	24_1_4	NA	NA	0	1	3.8637740612	None	None	None	None	1
3.0.1	2019_Mar_06_1202	s	s	14	1	SIC	308	ABS	0	0	1	4	24_1_4	NA	NA	0	1	4.86222600937	None	None	None	None	1
3.0.1	2019_Mar_06_1202	s	s	14	1	SIC	309	ABS	0	0	4	4	24_4_4	NA	NA	0	1	3.53252100945	None	None	None	None	1
3.0.1	2019_Mar_06_1202	s	s	14	1	SIC	310	ABS	0	0	2	2	24_2_2	NA	NA	0	1	4.36310505867	None	None	None	None	1
3.0.1	2019_Mar_06_1202	s	s	14	1	SIC	311	1_2	1	2	4	2	23_4_2	3	0	1	0	0.545216083527	238.0	352.0	238.0	344.0	1
3.0.1	2019_Mar_06_1202	s	s	14	1	SIC	312	ABS	0	0	1	2	24_1_2	NA	NA	0	1	4.41531896591	None	None	None	None	1
3.0.1	2019_Mar_06_1202	s	s	14	1	SIC	313	ABS	0	0	1	4	24_1_4	NA	NA	0	1	3.21045804024	None	None	None	None	1
3.0.1	2019_Mar_06_1202	s	s	14	1	SIC	314	1_2	1	2	4	3	23_4_3	3	1	1	0	0.587368965149	-223.0	39.0	-218.0	35.0	1
3.0.1	2019_Mar_06_1202	s	s	14	1	SIC	315	3_1	3	1	2	4	23_2_4	1	3	1	0	0.481494903564	-307.0	121.0	-303.0	121.0	1
3.0.1	2019_Mar_06_1202	s	s	14	1	SIC	316	4_4	4	4	3	1	23_3_1	1	3	1	0	0.458000898361	306.0	-188.0	308.0	-192.0	1
3.0.1	2019_Mar_06_1202	s	s	14	1	SIC	317	ABS	0	0	3	2	24_3_2	NA	NA	0	1	5.05952596664	None	None	None	None	1
3.0.1	2019_Mar_06_1202	s	s	14	1	SIC	318	2_2	2	2	4	1	23_4_1	2	-1	1	0	0.570046901703	-429.0	327.0	-438.0	337.0	1
3.0.1	2019_Mar_06_1202	s	s	14	1	SIC	319	ABS	0	0	4	4	24_4_4	NA	NA	0	1	5.91033196449	None	None	None	None	1
3.0.1	2019_Mar_06_1202	s	s	14	1	SIC	320	3_2	3	2	2	4	23_2_4	1	2	1	0	1.04610300064	257.0	359.0	253.0	361.0	1
3.0.1	2019_Mar_06_1202	s	s	14	1	SIC	321	4_4	4	4	2	2	23_2_2	2	2	1	0	0.469686031342	-254.0	-50.0	-250.0	-50.0	1
3.0.1	2019_Mar_06_1202	s	s	14	1	SIC	322	ABS	0	0	4	3	24_4_3	NA	NA	0	1	5.8475830555	None	None	None	None	1
3.0.1	2019_Mar_06_1202	s	s	14	1	SIC	323	3_1	3	1	3	4	23_3_4	0	3	1	0	0.684755802155	207.0	-278.0	219.0	-277.0	1
3.0.1	2019_Mar_06_1202	s	s	14	1	SIC	324	2_4	2	4	4	4	23_4_4	2	0	1	0	0.575547933578	320.0	-276.0	313.0	-271.0	1
3.0.1	2019_Mar_06_1202	s	s	14	1	SIC	325	ABS	0	0	4	4	24_4_4	NA	NA	0	1	4.49499797821	None	None	None	None	1
3.0.1	2019_Mar_06_1202	s	s	14	1	SIC	326	4_4	4	4	3	4	23_3_4	1	0	1	0	0.591604948044	337.0	306.0	341.0	309.0	1
3.0.1	2019_Mar_06_1202	s	s	14	1	SIC	327	ABS	0	0	4	1	24_4_1	NA	NA	1	0	2.84858179092	None	None	-103.0	-50.0	0
3.0.1	2019_Mar_06_1202	s	s	14	1	SIC	328	4_3	4	3	2	1	23_2_1	2	2	1	0	0.496172189713	183.0	2.0	174.0	1.0	1
3.0.1	2019_Mar_06_1202	s	s	14	1	SIC	329	ABS	0	0	1	2	24_1_2	NA	NA	0	1	2.91608786583	None	None	None	None	1
3.0.1	2019_Mar_06_1202	s	s	14	1	SIC	330	4_3	4	3	3	2	23_3_2	1	1	1	0	0.534536123276	-133.0	-235.0	-135.0	-244.0	1
3.0.1	2019_Mar_06_1202	s	s	14	1	SIC	331	ABS	0	0	1	1	24_1_1	NA	NA	0	1	2.1751499176	None	None	None	None	1
3.0.1	2019_Mar_06_1202	s	s	14	1	SIC	332	1_3	1	3	2	3	23_2_3	1	0	0	1	3.20223402977	-537.0	270.0	None	None	0
3.0.1	2019_Mar_06_1202	s	s	14	1	SIC	333	3_3	3	3	4	2	23_4_2	-1	1	1	0	0.555009841919	-326.0	-59.0	-329.0	-56.0	1
3.0.1	2019_Mar_06_1202	s	s	14	1	SIC	334	3_1	3	1	2	3	23_2_3	1	2	1	0	0.613812923431	-355.0	-179.0	-349.0	-183.0	1
3.0.1	2019_Mar_06_1202	s	s	14	1	SIC	335	ABS	0	0	4	3	24_4_3	NA	NA	0	1	2.9865629673	None	None	None	None	1
3.0.1	2019_Mar_06_1202	s	s	14	1	SIC	336	4_4	4	4	1	4	23_1_4	3	0	1	0	0.469964981079	-402.0	-156.0	-408.0	-156.0	1
3.0.1	2019_Mar_06_1202	s	s	14	1	SIC	337	ABS	0	0	3	2	24_3_2	NA	NA	0	1	4.20574188232	None	None	None	None	1
3.0.1	2019_Mar_06_1202	s	s	14	1	SIC	338	ABS	0	0	1	1	24_1_1	NA	NA	0	1	2.2664000988	None	None	None	None	1
3.0.1	2019_Mar_06_1202	s	s	14	1	SIC	339	ABS	0	0	1	3	24_1_3	NA	NA	0	1	2.64553308487	None	None	None	None	1
3.0.1	2019_Mar_06_1202	s	s	14	1	SIC	340	1_1	1	1	1	2	23_1_2	0	1	0	1	4.26859116554	232.0	-256.0	None	None	0
3.0.1	2019_Mar_06_1202	s	s	14	1	SIC	341	ABS	0	0	4	1	24_4_1	NA	NA	0	1	4.59791398048	None	None	None	None	1
3.0.1	2019_Mar_06_1202	s	s	14	1	SIC	342	ABS	0	0	1	4	24_1_4	NA	NA	0	1	4.7390191555	None	None	None	None	1
3.0.1	2019_Mar_06_1202	s	s	14	1	SIC	343	3_4	3	4	2	2	23_2_2	1	2	1	0	0.613743066788	84.0	65.0	88.0	66.0	1
3.0.1	2019_Mar_06_1202	s	s	14	1	SIC	344	ABS	0	0	4	2	24_4_2	NA	NA	1	0	2.41036701202	None	None	-468.0	-134.0	0
3.0.1	2019_Mar_06_1202	s	s	14	1	SIC	345	ABS	0	0	4	1	24_4_1	NA	NA	0	1	3.45026612282	None	None	None	None	1
3.0.1	2019_Mar_06_1202	s	s	14	1	SIC	346	ABS	0	0	4	3	24_4_3	NA	NA	0	1	5.31531596184	None	None	None	None	1
3.0.1	2019_Mar_06_1202	s	s	14	1	SIC	347	1_3	1	3	3	2	23_3_2	2	1	1	0	0.681432008743	459.0	-91.0	458.0	-92.0	1
3.0.1	2019_Mar_06_1202	s	s	14	1	SIC	348	1_4	1	4	3	2	23_3_2	2	2	1	0	0.740275144577	-14.0	-306.0	-3.0	-305.0	1
3.0.1	2019_Mar_06_1202	s	s	14	1	SIC	349	ABS	0	0	3	2	24_3_2	NA	NA	0	1	3.01018714905	None	None	None	None	1
3.0.1	2019_Mar_06_1202	s	s	14	1	SIC	350	4_4	4	4	1	3	23_1_3	3	1	1	0	0.740286111832	297.0	62.0	300.0	72.0	1
3.0.1	2019_Mar_06_1202	s	s	14	1	SIC	351	4_2	4	2	1	2	23_1_2	3	0	1	0	0.510246992111	356.0	-184.0	354.0	-182.0	1
3.0.1	2019_Mar_06_1202	s	s	14	1	SIC	352	2_3	2	3	2	4	23_2_4	0	-1	0	1	2.43678379059	-235.0	-155.0	None	None	0
3.0.1	2019_Mar_06_1202	s	s	14	1	SIC	353	4_4	4	4	2	3	23_2_3	2	1	1	0	0.716824054718	238.0	-14.0	243.0	-18.0	1
3.0.1	2019_Mar_06_1202	s	s	14	1	SIC	354	ABS	0	0	1	4	24_1_4	NA	NA	0	1	5.38584399223	None	None	None	None	1
3.0.1	2019_Mar_06_1202	s	s	14	1	SIC	355	4_3	4	3	3	1	23_3_1	1	2	1	0	0.486626148224	-122.0	64.0	-120.0	66.0	1
3.0.1	2019_Mar_06_1202	s	s	14	1	SIC	356	3_2	3	2	1	2	23_1_2	2	0	1	0	0.69322013855	-261.0	-134.0	-263.0	-134.0	1
3.0.1	2019_Mar_06_1202	s	s	14	1	SIC	357	ABS	0	0	3	3	24_3_3	NA	NA	0	1	5.04984712601	None	None	None	None	1
3.0.1	2019_Mar_06_1202	s	s	14	1	SIC	358	ABS	0	0	1	2	24_1_2	NA	NA	0	1	4.43069410324	None	None	None	None	1
3.0.1	2019_Mar_06_1202	s	s	14	1	SIC	359	1_2	1	2	2	2	23_2_2	1	0	0	1	5.32276415825	-263.0	-4.0	None	None	0
3.0.1	2019_Mar_06_1202	s	s	14	1	SIC	360	3_1	3	1	4	2	23_4_2	-1	1	1	0	0.587366104126	29.0	-377.0	30.0	-367.0	1
3.0.1	2019_Mar_06_1202	s	s	14	1	SIC	361	3_3	3	3	2	1	23_2_1	1	2	1	0	1.06956410408	206.0	339.0	202.0	341.0	1
3.0.1	2019_Mar_06_1202	s	s	14	1	SIC	362	1_2	1	2	3	1	23_3_1	2	-1	1	0	0.874879837036	-87.0	-382.0	-86.0	-383.0	1
3.0.1	2019_Mar_06_1202	s	s	14	1	SIC	363	ABS	0	0	3	4	24_3_4	NA	NA	0	1	4.14223694801	None	None	None	None	1
3.0.1	2019_Mar_06_1202	s	s	14	1	SIC	364	2_3	2	3	2	1	23_2_1	0	2	1	0	0.92346906662	217.0	-103.0	216.0	-109.0	1
3.0.1	2019_Mar_06_1202	s	s	14	1	SIC	365	ABS	0	0	3	4	24_3_4	NA	NA	0	1	4.45684599876	None	None	None	None	1
3.0.1	2019_Mar_06_1202	s	s	14	1	SIC	366	ABS	0	0	4	2	24_4_2	NA	NA	0	1	1.80374979973	None	None	None	None	1
3.0.1	2019_Mar_06_1202	s	s	14	1	SIC	367	ABS	0	0	2	1	24_2_1	NA	NA	0	1	3.41512417793	None	None	None	None	1
3.0.1	2019_Mar_06_1202	s	s	14	1	SIC	368	1_4	1	4	1	2	23_1_2	0	2	1	0	0.610872983932	196.0	355.0	199.0	354.0	1
3.0.1	2019_Mar_06_1202	s	s	14	1	SIC	369	ABS	0	0	1	1	24_1_1	NA	NA	0	1	4.02165102959	None	None	None	None	1
3.0.1	2019_Mar_06_1202	s	s	14	1	SIC	370	1_4	1	4	1	3	23_1_3	0	1	1	0	0.763755083084	-189.0	143.0	-194.0	144.0	1
3.0.1	2019_Mar_06_1202	s	s	14	1	SIC	371	2_4	2	4	4	2	23_4_2	2	2	1	0	0.505402803421	-431.0	261.0	-442.0	261.0	1
3.0.1	2019_Mar_06_1202	s	s	14	1	SIC	372	ABS	0	0	3	4	24_3_4	NA	NA	0	1	4.06867694855	None	None	None	None	1
3.0.1	2019_Mar_06_1202	s	s	14	1	SIC	373	ABS	0	0	3	4	24_3_4	NA	NA	0	1	3.76287198067	None	None	None	None	1
3.0.1	2019_Mar_06_1202	s	s	14	1	SIC	374	ABS	0	0	2	3	24_2_3	NA	NA	0	1	4.76645207405	None	None	None	None	1
3.0.1	2019_Mar_06_1202	s	s	14	1	SIC	375	1_4	1	4	2	1	23_2_1	1	3	1	0	0.952016830444	473.0	-142.0	484.0	-137.0	1
3.0.1	2019_Mar_06_1202	s	s	14	1	SIC	376	4_2	4	2	3	3	23_3_3	1	1	1	0	0.54457116127	95.0	-64.0	105.0	-66.0	1
3.0.1	2019_Mar_06_1202	s	s	14	1	SIC	377	ABS	0	0	2	3	24_2_3	NA	NA	0	1	4.97442984581	None	None	None	None	1
3.0.1	2019_Mar_06_1202	s	s	14	1	SIC	378	4_2	4	2	3	1	23_3_1	1	-1	1	0	0.649695158005	237.0	-126.0	245.0	-121.0	1
3.0.1	2019_Mar_06_1202	s	s	14	1	SIC	379	4_1	4	1	2	1	23_2_1	2	0	1	0	0.399137973785	-64.0	-16.0	-60.0	-9.0	1
3.0.1	2019_Mar_06_1202	s	s	14	1	SIC	380	ABS	0	0	2	1	24_2_1	NA	NA	0	1	3.1665289402	None	None	None	None	1
3.0.1	2019_Mar_06_1202	s	s	14	1	SIC	381	2_2	2	2	4	3	23_4_3	2	1	1	0	0.561289787292	292.0	-31.0	283.0	-26.0	1
3.0.1	2019_Mar_06_1202	s	s	14	1	SIC	382	ABS	0	0	1	3	24_1_3	NA	NA	0	1	4.55900502205	None	None	None	None	1
3.0.1	2019_Mar_06_1202	s	s	14	1	SIC	383	1_3	1	3	3	4	23_3_4	2	-1	1	0	0.519882917404	176.0	-169.0	175.0	-167.0	1
3.0.1	2019_Mar_06_1202	s	s	14	1	SIC	384	ABS	0	0	1	2	24_1_2	NA	NA	0	1	3.50097489357	None	None	None	None	1
3.0.1	2019_Mar_06_1202	s	s	14	1	SIC	385	ABS	0	0	4	4	24_4_4	NA	NA	0	1	3.56035995483	None	None	None	None	1
3.0.1	2019_Mar_06_1202	s	s	14	1	SIC	386	3_2	3	2	4	2	23_4_2	-1	0	1	0	0.657953023911	67.0	-297.0	56.0	-292.0	1
3.0.1	2019_Mar_06_1202	s	s	14	1	SIC	387	ABS	0	0	2	1	24_2_1	NA	NA	0	1	3.12041902542	None	None	None	None	1
3.0.1	2019_Mar_06_1202	s	s	14	1	SIC	388	1_4	1	4	2	3	23_2_3	1	1	1	0	0.768629074097	416.0	50.0	420.0	50.0	1
3.0.1	2019_Mar_06_1202	s	s	14	1	SIC	389	ABS	0	0	3	2	24_3_2	NA	NA	0	1	2.8493680954	None	None	None	None	1
3.0.1	2019_Mar_06_1202	s	s	14	1	SIC	390	1_1	1	1	4	2	23_4_2	3	1	1	0	0.4696829319	-139.0	-308.0	-133.0	-306.0	1
3.0.1	2019_Mar_06_1202	s	s	14	1	SIC	391	3_2	3	2	4	4	23_4_4	-1	2	1	0	0.475230932236	516.0	47.0	506.0	46.0	1
3.0.1	2019_Mar_06_1202	s	s	14	1	SIC	392	2_2	2	2	2	1	23_2_1	0	-1	1	0	3.01311707497	-98.0	-211.0	-98.0	-211.0	1
3.0.1	2019_Mar_06_1202	s	s	14	1	SIC	393	ABS	0	0	2	1	24_2_1	NA	NA	0	1	3.1571521759	None	None	None	None	1
3.0.1	2019_Mar_06_1202	s	s	14	1	SIC	394	ABS	0	0	2	1	24_2_1	NA	NA	0	1	3.85695385933	None	None	None	None	1
3.0.1	2019_Mar_06_1202	s	s	14	1	SIC	395	ABS	0	0	1	4	24_1_4	NA	NA	0	1	3.06892991066	None	None	None	None	1
3.0.1	2019_Mar_06_1202	s	s	14	1	SIC	396	ABS	0	0	2	2	24_2_2	NA	NA	0	1	3.55110406876	None	None	None	None	1
3.0.1	2019_Mar_06_1202	s	s	14	1	SIC	397	ABS	0	0	3	1	24_3_1	NA	NA	0	1	4.72733283043	None	None	None	None	1
3.0.1	2019_Mar_06_1202	s	s	14	1	SIC	398	2_3	2	3	3	3	23_3_3	1	0	1	0	0.881465911865	-539.0	209.0	-529.0	213.0	1
3.0.1	2019_Mar_06_1202	s	s	14	1	SIC	399	ABS	0	0	2	4	24_2_4	NA	NA	0	1	4.5743188858	None	None	None	None	1
3.0.1	2019_Mar_06_1202	s	s	14	1	SIC	400	ABS	0	0	1	3	24_1_3	NA	NA	0	1	3.95148086548	None	None	None	None	1
3.0.1	2019_Mar_06_1202	s	s	14	1	SIC	401	ABS	0	0	3	3	24_3_3	NA	NA	0	1	4.60470294952	None	None	None	None	1
3.0.1	2019_Mar_06_1202	s	s	14	1	SIC	402	2_4	2	4	3	1	23_3_1	1	3	1	0	0.85099196434	-126.0	339.0	-130.0	334.0	1
3.0.1	2019_Mar_06_1202	s	s	14	1	SIC	403	4_1	4	1	4	4	23_4_4	0	3	1	0	0.869618177414	44.0	-299.0	47.0	-313.0	1
3.0.1	2019_Mar_06_1202	s	s	14	1	SIC	404	ABS	0	0	2	2	24_2_2	NA	NA	0	1	6.81212711334	None	None	None	None	1
3.0.1	2019_Mar_06_1202	s	s	14	1	SIC	405	1_2	1	2	3	3	23_3_3	2	1	1	0	0.561581850052	-120.0	-255.0	-119.0	-249.0	1
3.0.1	2019_Mar_06_1202	s	s	14	1	SIC	406	ABS	0	0	4	4	24_4_4	NA	NA	0	1	3.66210818291	None	None	None	None	1
3.0.1	2019_Mar_06_1202	s	s	14	1	SIC	407	4_2	4	2	3	4	23_3_4	1	2	1	0	0.516891956329	93.0	-146.0	97.0	-148.0	1
3.0.1	2019_Mar_06_1202	s	s	14	1	SIC	408	4_1	4	1	1	1	23_1_1	3	0	1	0	0.555001974106	102.0	145.0	107.0	141.0	1
3.0.1	2019_Mar_06_1202	s	s	14	1	SIC	409	ABS	0	0	4	4	24_4_4	NA	NA	0	1	3.4217247963	None	None	None	None	1
3.0.1	2019_Mar_06_1202	s	s	14	1	SIC	410	3_3	3	3	3	1	23_3_1	0	2	1	0	1.70857906342	539.0	-288.0	533.0	-291.0	1
3.0.1	2019_Mar_06_1202	s	s	14	1	SIC	411	ABS	0	0	2	1	24_2_1	NA	NA	0	1	3.28060388565	None	None	None	None	1
3.0.1	2019_Mar_06_1202	s	s	14	1	SIC	412	ABS	0	0	3	3	24_3_3	NA	NA	0	1	3.14558815956	None	None	None	None	1
3.0.1	2019_Mar_06_1202	s	s	14	1	SIC	413	ABS	0	0	2	2	24_2_2	NA	NA	0	1	5.44515681267	None	None	None	None	1
3.0.1	2019_Mar_06_1202	s	s	14	1	SIC	414	ABS	0	0	4	2	24_4_2	NA	NA	0	1	7.69630503654	None	None	None	None	1
3.0.1	2019_Mar_06_1202	s	s	14	1	SIC	415	3_1	3	1	2	1	23_2_1	1	0	1	0	1.85515189171	180.0	-353.0	186.0	-351.0	1
3.0.1	2019_Mar_06_1202	s	s	14	1	SIC	416	2_1	2	1	4	2	23_4_2	2	1	1	0	0.554960012436	324.0	210.0	328.0	212.0	1
3.0.1	2019_Mar_06_1202	s	s	14	1	SIC	417	ABS	0	0	4	3	24_4_3	NA	NA	0	1	3.94445204735	None	None	None	None	1
3.0.1	2019_Mar_06_1202	s	s	14	1	SIC	418	ABS	0	0	2	2	24_2_2	NA	NA	0	1	3.93408489227	None	None	None	None	1
3.0.1	2019_Mar_06_1202	s	s	14	1	SIC	419	2_4	2	4	2	1	23_2_1	0	3	1	0	1.30480480194	431.0	-115.0	430.0	-106.0	1
3.0.1	2019_Mar_06_1202	s	s	14	1	SIC	420	ABS	0	0	4	3	24_4_3	NA	NA	0	1	4.62142801285	None	None	None	None	1
3.0.1	2019_Mar_06_1202	s	s	14	1	SIC	421	1_4	1	4	4	1	23_4_1	3	3	1	0	0.783962011337	-490.0	355.0	-492.0	352.0	1
3.0.1	2019_Mar_06_1202	s	s	14	1	SIC	422	4_3	4	3	4	2	23_4_2	0	1	1	0	5.36855101585	88.0	65.0	79.0	61.0	1
3.0.1	2019_Mar_06_1202	s	s	14	1	SIC	423	ABS	0	0	1	2	24_1_2	NA	NA	0	1	3.92623496056	None	None	None	None	1
3.0.1	2019_Mar_06_1202	s	s	14	1	SIC	424	ABS	0	0	3	3	24_3_3	NA	NA	0	1	5.28579306602	None	None	None	None	1
3.0.1	2019_Mar_06_1202	s	s	14	1	SIC	425	ABS	0	0	3	2	24_3_2	NA	NA	0	1	3.35664510727	None	None	None	None	1
3.0.1	2019_Mar_06_1202	s	s	14	1	SIC	426	ABS	0	0	3	2	24_3_2	NA	NA	0	1	3.15116691589	None	None	None	None	1
3.0.1	2019_Mar_06_1202	s	s	14	1	SIC	427	ABS	0	0	2	2	24_2_2	NA	NA	0	1	4.06075501442	None	None	None	None	1
3.0.1	2019_Mar_06_1202	s	s	14	1	SIC	428	ABS	0	0	2	1	24_2_1	NA	NA	0	1	4.11571192741	None	None	None	None	1
3.0.1	2019_Mar_06_1202	s	s	14	1	SIC	429	3_4	3	4	2	1	23_2_1	1	3	1	0	0.678292989731	-340.0	217.0	-332.0	212.0	1
3.0.1	2019_Mar_06_1202	s	s	14	1	SIC	430	ABS	0	0	3	3	24_3_3	NA	NA	0	1	4.70751690865	None	None	None	None	1
3.0.1	2019_Mar_06_1202	s	s	14	1	SIC	431	ABS	0	0	2	2	24_2_2	NA	NA	0	1	3.1093070507	None	None	None	None	1
3.0.1	2019_Mar_06_1202	s	s	14	1	SIC	432	2_1	2	1	4	4	23_4_4	2	3	1	0	0.498421192169	476.0	204.0	479.0	199.0	1
3.0.1	2019_Mar_06_1202	s	s	14	1	SIC	433	ABS	0	0	4	2	24_4_2	NA	NA	0	1	3.63395690918	None	None	None	None	1
3.0.1	2019_Mar_06_1202	s	s	14	1	SIC	434	ABS	0	0	4	3	24_4_3	NA	NA	0	1	3.74650192261	None	None	None	None	1
3.0.1	2019_Mar_06_1202	s	s	14	1	SIC	435	ABS	0	0	3	4	24_3_4	NA	NA	0	1	4.39409804344	None	None	None	None	1
3.0.1	2019_Mar_06_1202	s	s	14	1	SIC	436	ABS	0	0	1	4	24_1_4	NA	NA	0	1	3.93926906586	None	None	None	None	1
3.0.1	2019_Mar_06_1202	s	s	14	1	SIC	437	2_3	2	3	1	1	23_1_1	-1	2	1	0	1.23799610138	233.0	263.0	227.0	265.0	1
3.0.1	2019_Mar_06_1202	s	s	14	1	SIC	438	3_4	3	4	1	2	23_1_2	2	2	1	0	0.599182128906	-153.0	130.0	-157.0	118.0	1
3.0.1	2019_Mar_06_1202	s	s	14	1	SIC	439	ABS	0	0	2	3	24_2_3	NA	NA	0	1	4.10704898834	None	None	None	None	1
3.0.1	2019_Mar_06_1202	s	s	14	1	SIC	440	ABS	0	0	3	1	24_3_1	NA	NA	0	1	2.53970789909	None	None	None	None	1
3.0.1	2019_Mar_06_1202	s	s	14	1	SIC	441	ABS	0	0	4	1	24_4_1	NA	NA	0	1	4.34391713142	None	None	None	None	1
3.0.1	2019_Mar_06_1202	s	s	14	1	SIC	442	1_1	1	1	3	1	23_3_1	2	0	1	0	0.650560855865	-264.0	-196.0	-265.0	-197.0	1
3.0.1	2019_Mar_06_1202	s	s	14	1	SIC	443	ABS	0	0	1	4	24_1_4	NA	NA	0	1	3.72514796257	None	None	None	None	1
3.0.1	2019_Mar_06_1202	s	s	14	1	SIC	444	1_2	1	2	4	1	23_4_1	3	-1	1	0	0.575618028641	-197.0	-263.0	-201.0	-268.0	1
3.0.1	2019_Mar_06_1202	s	s	14	1	SIC	445	4_1	4	1	4	2	23_4_2	0	1	1	0	3.22177910805	-257.0	243.0	-260.0	241.0	1
3.0.1	2019_Mar_06_1202	s	s	14	1	SIC	446	3_4	3	4	4	2	23_4_2	-1	2	1	0	0.686030864716	-271.0	265.0	-269.0	267.0	1
3.0.1	2019_Mar_06_1202	s	s	14	1	SIC	447	1_3	1	3	4	3	23_4_3	3	0	1	0	0.610934019089	-214.0	89.0	-212.0	93.0	1
3.0.1	2019_Mar_06_1202	s	s	14	1	SIC	448	1_1	1	1	1	3	23_1_3	0	2	1	0	1.93344688416	274.0	245.0	263.0	249.0	1
3.0.1	2019_Mar_06_1202	s	s	14	1	SIC	449	3_4	3	4	2	3	23_2_3	1	1	1	0	0.4395570755	-91.0	208.0	-95.0	208.0	1
3.0.1	2019_Mar_06_1202	s	s	14	1	SIC	450	ABS	0	0	3	3	24_3_3	NA	NA	0	1	3.23857808113	None	None	None	None	1
3.0.1	2019_Mar_06_1202	s	s	14	1	SIC	451	1_3	1	3	1	1	23_1_1	0	2	1	0	1.64587402344	321.0	331.0	320.0	328.0	1
3.0.1	2019_Mar_06_1202	s	s	14	1	SIC	452	2_3	2	3	3	2	23_3_2	1	1	1	0	1.86288404465	445.0	251.0	449.0	254.0	1
3.0.1	2019_Mar_06_1202	s	s	14	1	SIC	453	4_2	4	2	2	4	23_2_4	2	2	1	0	0.442733049393	266.0	-32.0	273.0	-38.0	1
3.0.1	2019_Mar_06_1202	s	s	14	1	SIC	454	ABS	0	0	4	1	24_4_1	NA	NA	0	1	3.61689996719	None	None	None	None	1
3.0.1	2019_Mar_06_1202	s	s	14	1	SIC	455	ABS	0	0	4	4	24_4_4	NA	NA	0	1	5.19274091721	None	None	None	None	1
3.0.1	2019_Mar_06_1202	s	s	14	1	SIC	456	ABS	0	0	1	3	24_1_3	NA	NA	0	1	4.78608083725	None	None	None	None	1
3.0.1	2019_Mar_06_1202	s	s	14	1	SIC	457	ABS	0	0	2	1	24_2_1	NA	NA	0	1	4.64495897293	None	None	None	None	1
3.0.1	2019_Mar_06_1202	s	s	14	1	SIC	458	4_1	4	1	3	2	23_3_2	1	1	1	0	0.5196788311	-518.0	334.0	-513.0	335.0	1
3.0.1	2019_Mar_06_1202	s	s	14	1	SIC	459	2_2	2	2	3	1	23_3_1	1	-1	1	0	1.22764515877	127.0	101.0	127.0	90.0	1
3.0.1	2019_Mar_06_1202	s	s	14	1	SIC	460	2_3	2	3	3	1	23_3_1	1	2	1	0	1.16363692284	432.0	-173.0	438.0	-167.0	1
3.0.1	2019_Mar_06_1202	s	s	14	1	SIC	461	2_2	2	2	3	2	23_3_2	1	0	1	0	1.46155309677	62.0	-138.0	62.0	-141.0	1
3.0.1	2019_Mar_06_1202	s	s	14	1	SIC	462	2_1	2	1	4	3	23_4_3	2	2	1	0	0.481489896774	-317.0	6.0	-322.0	-1.0	1
3.0.1	2019_Mar_06_1202	s	s	14	1	SIC	463	ABS	0	0	3	4	24_3_4	NA	NA	0	1	4.65673708916	None	None	None	None	1
3.0.1	2019_Mar_06_1202	s	s	14	1	SIC	464	ABS	0	0	4	3	24_4_3	NA	NA	0	1	5.29181909561	None	None	None	None	1
3.0.1	2019_Mar_06_1202	s	s	14	1	SIC	465	ABS	0	0	3	3	24_3_3	NA	NA	0	1	1.67321705818	None	None	None	None	1
3.0.1	2019_Mar_06_1202	s	s	14	1	SIC	466	1_1	1	1	3	2	23_3_2	2	1	1	0	1.1098959446	388.0	170.0	394.0	180.0	1
3.0.1	2019_Mar_06_1202	s	s	14	1	SIC	467	2_1	2	1	1	4	23_1_4	-1	3	1	0	0.86453795433	374.0	-43.0	379.0	-44.0	1
3.0.1	2019_Mar_06_1202	s	s	14	1	SIC	468	2_1	2	1	4	1	23_4_1	2	0	1	0	0.481570959091	91.0	-196.0	85.0	-194.0	1
3.0.1	2019_Mar_06_1202	s	s	14	1	SIC	469	ABS	0	0	3	2	24_3_2	NA	NA	0	1	2.83701109886	None	None	None	None	1
3.0.1	2019_Mar_06_1202	s	s	14	1	SIC	470	3_2	3	2	2	2	23_2_2	1	0	1	0	1.15773582458	-223.0	116.0	-221.0	117.0	1
3.0.1	2019_Mar_06_1202	s	s	14	1	SIC	471	ABS	0	0	3	4	24_3_4	NA	NA	0	1	1.82229495049	None	None	None	None	1
3.0.1	2019_Mar_06_1202	s	s	14	1	SIC	472	1_3	1	3	2	1	23_2_1	1	2	1	0	1.35833406448	184.0	-76.0	185.0	-88.0	1
3.0.1	2019_Mar_06_1202	s	s	14	1	SIC	473	ABS	0	0	3	4	24_3_4	NA	NA	0	1	5.75346302986	None	None	None	None	1
3.0.1	2019_Mar_06_1202	s	s	14	1	SIC	474	3_3	3	3	2	4	23_2_4	1	-1	1	0	1.06961202621	-521.0	-200.0	-524.0	-195.0	1
3.0.1	2019_Mar_06_1202	s	s	14	1	SIC	475	4_2	4	2	4	1	23_4_1	0	-1	0	1	4.59038686752	461.0	108.0	None	None	0
3.0.1	2019_Mar_06_1202	s	s	14	1	SIC	476	4_3	4	3	2	4	23_2_4	2	-1	1	0	0.567144870758	-331.0	379.0	-328.0	366.0	1
3.0.1	2019_Mar_06_1202	s	s	14	1	SIC	477	ABS	0	0	1	4	24_1_4	NA	NA	0	1	3.44534397125	None	None	None	None	1
3.0.1	2019_Mar_06_1202	s	s	14	1	SIC	478	3_1	3	1	2	2	23_2_2	1	1	1	0	0.509565830231	-355.0	-91.0	-357.0	-82.0	1
3.0.1	2019_Mar_06_1202	s	s	14	1	SIC	479	1_2	1	2	3	2	23_3_2	2	0	1	0	0.618829965591	154.0	32.0	159.0	38.0	1
3.0.1	2019_Mar_06_1202	s	s	14	1	SIC	480	ABS	0	0	4	1	24_4_1	NA	NA	0	1	3.069024086	None	None	None	None	1
