Version	Date	Stimuli	Method	Subject	Session	Condition	Trial	Target	TColor	TShape	DColor	DShape	Distractors	Channel1	Channel2	LMouseButton	RMouseButton	RT	TargetX	TargetY	ResponseX	ResponseY	Correct
3.0.1	2019_Mar_07_1203	s	s	14	2	Capacity	1	ABS	0	0	1	1	24_1_1	NA	NA	1	0	1.58711385727	None	None	-185.0	233.0	0
3.0.1	2019_Mar_07_1203	s	s	14	2	Capacity	2	ABS	0	0	3	1	24_3_1	NA	NA	1	0	3.76783108711	None	None	-74.0	142.0	0
3.0.1	2019_Mar_07_1203	s	s	14	2	Capacity	3	1_1	1	1	3	1	23_3_1	2	0	1	0	0.740304946899	50.0	10.0	46.0	4.0	1
3.0.1	2019_Mar_07_1203	s	s	14	2	Capacity	4	ABS	0	0	1	1	24_1_1	NA	NA	1	0	1.74283504486	None	None	19.0	-23.0	0
3.0.1	2019_Mar_07_1203	s	s	14	2	Capacity	5	ABS	0	0	3	1	24_3_1	NA	NA	0	1	1.22247004509	None	None	None	None	1
3.0.1	2019_Mar_07_1203	s	s	14	2	Capacity	6	ABS	0	0	3	1	24_3_1	NA	NA	0	1	2.35157608986	None	None	None	None	1
3.0.1	2019_Mar_07_1203	s	s	14	2	Capacity	7	ABS	0	0	4	1	24_4_1	NA	NA	0	1	2.23393201828	None	None	None	None	1
3.0.1	2019_Mar_07_1203	s	s	14	2	Capacity	8	4_1	4	1	2	1	23_2_1	2	0	1	0	0.592751026154	374.0	313.0	370.0	316.0	1
3.0.1	2019_Mar_07_1203	s	s	14	2	Capacity	9	1_1	1	1	4	1	23_4_1	3	0	1	0	0.475547075272	-264.0	-189.0	-258.0	-185.0	1
3.0.1	2019_Mar_07_1203	s	s	14	2	Capacity	10	1_1	1	1	2	1	23_2_1	1	0	1	0	1.07247805595	-184.0	219.0	-187.0	218.0	1
3.0.1	2019_Mar_07_1203	s	s	14	2	Capacity	11	2_1	2	1	3	1	23_3_1	1	0	1	0	0.980901002884	523.0	-335.0	529.0	-335.0	1
3.0.1	2019_Mar_07_1203	s	s	14	2	Capacity	12	4_1	4	1	3	1	23_3_1	1	0	1	0	0.575531005859	469.0	87.0	469.0	88.0	1
3.0.1	2019_Mar_07_1203	s	s	14	2	Capacity	13	3_1	3	1	1	1	23_1_1	2	0	1	0	0.452250957489	-165.0	-74.0	-167.0	-67.0	1
3.0.1	2019_Mar_07_1203	s	s	14	2	Capacity	14	ABS	0	0	2	1	24_2_1	NA	NA	0	1	2.32804512978	None	None	None	None	1
3.0.1	2019_Mar_07_1203	s	s	14	2	Capacity	15	4_1	4	1	1	1	23_1_1	3	0	1	0	0.510056972504	-6.0	274.0	0.0	280.0	1
3.0.1	2019_Mar_07_1203	s	s	14	2	Capacity	16	ABS	0	0	2	1	24_2_1	NA	NA	1	0	1.22243285179	None	None	-108.0	227.0	0
3.0.1	2019_Mar_07_1203	s	s	14	2	Capacity	17	2_1	2	1	4	1	23_4_1	2	0	1	0	0.452285051346	-113.0	311.0	-117.0	315.0	1
3.0.1	2019_Mar_07_1203	s	s	14	2	Capacity	18	ABS	0	0	4	1	24_4_1	NA	NA	1	0	0.77564406395	None	None	8.0	48.0	0
3.0.1	2019_Mar_07_1203	s	s	14	2	Capacity	19	3_1	3	1	2	1	23_2_1	1	0	1	0	0.898056030273	-120.0	-286.0	-112.0	-291.0	1
3.0.1	2019_Mar_07_1203	s	s	14	2	Capacity	20	2_1	2	1	1	1	23_1_1	-1	0	0	1	3.30427503586	162.0	378.0	None	None	0
3.0.1	2019_Mar_07_1203	s	s	14	2	Capacity	21	ABS	0	0	2	1	24_2_1	NA	NA	1	0	2.44553303719	None	None	43.0	100.0	0
3.0.1	2019_Mar_07_1203	s	s	14	2	Capacity	22	ABS	0	0	4	1	24_4_1	NA	NA	1	0	1.17545104027	None	None	-31.0	79.0	0
3.0.1	2019_Mar_07_1203	s	s	14	2	Capacity	23	ABS	0	0	1	1	24_1_1	NA	NA	0	1	2.10751199722	None	None	None	None	1
3.0.1	2019_Mar_07_1203	s	s	14	2	Capacity	24	3_1	3	1	4	1	23_4_1	-1	0	1	0	0.556036949158	-389.0	86.0	-391.0	88.0	1
3.0.1	2019_Mar_07_1203	s	s	14	2	Capacity	25	3_1	3	1	2	1	23_2_1	1	0	1	0	0.63444685936	-183.0	394.0	-184.0	393.0	1
3.0.1	2019_Mar_07_1203	s	s	14	2	Capacity	26	ABS	0	0	3	1	24_3_1	NA	NA	0	1	1.78992700577	None	None	None	None	1
3.0.1	2019_Mar_07_1203	s	s	14	2	Capacity	27	ABS	0	0	1	1	24_1_1	NA	NA	0	1	1.25817799568	None	None	None	None	1
3.0.1	2019_Mar_07_1203	s	s	14	2	Capacity	28	3_1	3	1	4	1	23_4_1	-1	0	1	0	0.488254785538	-137.0	-65.0	-132.0	-68.0	1
3.0.1	2019_Mar_07_1203	s	s	14	2	Capacity	29	ABS	0	0	2	1	24_2_1	NA	NA	0	1	1.36647200584	None	None	None	None	1
3.0.1	2019_Mar_07_1203	s	s	14	2	Capacity	30	1_1	1	1	3	1	23_3_1	2	0	1	0	0.62780714035	-370.0	-212.0	-376.0	-212.0	1
3.0.1	2019_Mar_07_1203	s	s	14	2	Capacity	31	ABS	0	0	2	1	24_2_1	NA	NA	0	1	1.54654192924	None	None	None	None	1
3.0.1	2019_Mar_07_1203	s	s	14	2	Capacity	32	ABS	0	0	1	1	24_1_1	NA	NA	0	1	2.02232313156	None	None	None	None	1
3.0.1	2019_Mar_07_1203	s	s	14	2	Capacity	33	ABS	0	0	3	1	24_3_1	NA	NA	0	1	1.58708000183	None	None	None	None	1
3.0.1	2019_Mar_07_1203	s	s	14	2	Capacity	34	2_1	2	1	3	1	23_3_1	1	0	1	0	0.944580078125	83.0	279.0	89.0	287.0	1
3.0.1	2019_Mar_07_1203	s	s	14	2	Capacity	35	2_1	2	1	1	1	23_1_1	-1	0	1	0	1.73114299774	-368.0	-189.0	-377.0	-190.0	1
3.0.1	2019_Mar_07_1203	s	s	14	2	Capacity	36	4_1	4	1	2	1	23_2_1	2	0	1	0	0.545658111572	-42.0	169.0	-41.0	174.0	1
3.0.1	2019_Mar_07_1203	s	s	14	2	Capacity	37	1_1	1	1	4	1	23_4_1	3	0	1	0	0.822602987289	-83.0	362.0	-90.0	363.0	1
3.0.1	2019_Mar_07_1203	s	s	14	2	Capacity	38	ABS	0	0	4	1	24_4_1	NA	NA	1	0	0.567625045776	None	None	-59.0	74.0	0
3.0.1	2019_Mar_07_1203	s	s	14	2	Capacity	39	2_1	2	1	4	1	23_4_1	2	0	1	0	0.446272850037	-88.0	-209.0	-91.0	-210.0	1
3.0.1	2019_Mar_07_1203	s	s	14	2	Capacity	40	ABS	0	0	3	1	24_3_1	NA	NA	0	1	2.23395609856	None	None	None	None	1
3.0.1	2019_Mar_07_1203	s	s	14	2	Capacity	41	4_1	4	1	3	1	23_3_1	1	0	1	0	0.54042506218	-516.0	-241.0	-509.0	-235.0	1
3.0.1	2019_Mar_07_1203	s	s	14	2	Capacity	42	ABS	0	0	4	1	24_4_1	NA	NA	0	1	3.68444705009	None	None	None	None	1
3.0.1	2019_Mar_07_1203	s	s	14	2	Capacity	43	3_1	3	1	1	1	23_1_1	2	0	1	0	0.731416940689	157.0	253.0	163.0	249.0	1
3.0.1	2019_Mar_07_1203	s	s	14	2	Capacity	44	4_1	4	1	1	1	23_1_1	3	0	1	0	0.451400995255	-415.0	-312.0	-411.0	-311.0	1
3.0.1	2019_Mar_07_1203	s	s	14	2	Capacity	45	ABS	0	0	4	1	24_4_1	NA	NA	0	1	2.30739307404	None	None	None	None	1
3.0.1	2019_Mar_07_1203	s	s	14	2	Capacity	46	ABS	0	0	2	1	24_2_1	NA	NA	0	1	3.098954916	None	None	None	None	1
3.0.1	2019_Mar_07_1203	s	s	14	2	Capacity	47	1_1	1	1	2	1	23_2_1	1	0	0	1	2.69277405739	209.0	-198.0	None	None	0
3.0.1	2019_Mar_07_1203	s	s	14	2	Capacity	48	ABS	0	0	1	1	24_1_1	NA	NA	0	1	2.59153199196	None	None	None	None	1
3.0.1	2019_Mar_07_1203	s	s	14	2	Capacity	49	ABS	0	0	4	1	24_4_1	NA	NA	0	1	3.33307409286	None	None	None	None	1
3.0.1	2019_Mar_07_1203	s	s	14	2	Capacity	50	2_1	2	1	3	1	23_3_1	1	0	1	0	0.698429107666	-82.0	-29.0	-72.0	-27.0	1
3.0.1	2019_Mar_07_1203	s	s	14	2	Capacity	51	4_1	4	1	2	1	23_2_1	2	0	1	0	0.521481990814	363.0	206.0	359.0	194.0	1
3.0.1	2019_Mar_07_1203	s	s	14	2	Capacity	52	ABS	0	0	2	1	24_2_1	NA	NA	0	1	2.31921100616	None	None	None	None	1
3.0.1	2019_Mar_07_1203	s	s	14	2	Capacity	53	ABS	0	0	2	1	24_2_1	NA	NA	0	1	2.03145813942	None	None	None	None	1
3.0.1	2019_Mar_07_1203	s	s	14	2	Capacity	54	1_1	1	1	2	1	23_2_1	1	0	0	1	3.13295197487	300.0	-337.0	None	None	0
3.0.1	2019_Mar_07_1203	s	s	14	2	Capacity	55	4_1	4	1	1	1	23_1_1	3	0	1	0	0.517134189606	-405.0	340.0	-409.0	339.0	1
3.0.1	2019_Mar_07_1203	s	s	14	2	Capacity	56	ABS	0	0	3	1	24_3_1	NA	NA	0	1	2.84839987755	None	None	None	None	1
3.0.1	2019_Mar_07_1203	s	s	14	2	Capacity	57	ABS	0	0	1	1	24_1_1	NA	NA	0	1	1.54284882545	None	None	None	None	1
3.0.1	2019_Mar_07_1203	s	s	14	2	Capacity	58	3_1	3	1	4	1	23_4_1	-1	0	1	0	0.515664100647	-449.0	154.0	-460.0	160.0	1
3.0.1	2019_Mar_07_1203	s	s	14	2	Capacity	59	ABS	0	0	3	1	24_3_1	NA	NA	0	1	3.42790198326	None	None	None	None	1
3.0.1	2019_Mar_07_1203	s	s	14	2	Capacity	60	1_1	1	1	4	1	23_4_1	3	0	1	0	0.528579950333	116.0	2.0	106.0	2.0	1
3.0.1	2019_Mar_07_1203	s	s	14	2	Capacity	61	3_1	3	1	2	1	23_2_1	1	0	1	0	0.736959934235	404.0	-133.0	401.0	-133.0	1
3.0.1	2019_Mar_07_1203	s	s	14	2	Capacity	62	1_1	1	1	3	1	23_3_1	2	0	1	0	0.752000808716	247.0	-129.0	258.0	-126.0	1
3.0.1	2019_Mar_07_1203	s	s	14	2	Capacity	63	2_1	2	1	1	1	23_1_1	-1	0	0	1	3.19324684143	253.0	323.0	None	None	0
3.0.1	2019_Mar_07_1203	s	s	14	2	Capacity	64	ABS	0	0	1	1	24_1_1	NA	NA	0	1	2.85731387138	None	None	None	None	1
3.0.1	2019_Mar_07_1203	s	s	14	2	Capacity	65	ABS	0	0	1	1	24_1_1	NA	NA	0	1	1.61063408852	None	None	None	None	1
3.0.1	2019_Mar_07_1203	s	s	14	2	Capacity	66	ABS	0	0	4	1	24_4_1	NA	NA	0	1	1.40488100052	None	None	None	None	1
3.0.1	2019_Mar_07_1203	s	s	14	2	Capacity	67	ABS	0	0	3	1	24_3_1	NA	NA	0	1	1.3316450119	None	None	None	None	1
3.0.1	2019_Mar_07_1203	s	s	14	2	Capacity	68	4_1	4	1	3	1	23_3_1	1	0	1	0	0.460884809494	298.0	-261.0	304.0	-265.0	1
3.0.1	2019_Mar_07_1203	s	s	14	2	Capacity	69	2_1	2	1	4	1	23_4_1	2	0	1	0	0.496220111847	279.0	-8.0	280.0	-3.0	1
3.0.1	2019_Mar_07_1203	s	s	14	2	Capacity	70	ABS	0	0	2	1	24_2_1	NA	NA	0	1	1.99873304367	None	None	None	None	1
3.0.1	2019_Mar_07_1203	s	s	14	2	Capacity	71	ABS	0	0	4	1	24_4_1	NA	NA	0	1	1.03874206543	None	None	None	None	1
3.0.1	2019_Mar_07_1203	s	s	14	2	Capacity	72	3_1	3	1	1	1	23_1_1	2	0	1	0	0.634464025497	-356.0	-339.0	-359.0	-337.0	1
3.0.1	2019_Mar_07_1203	s	s	14	2	Capacity	73	ABS	0	0	2	1	24_2_1	NA	NA	0	1	1.93997192383	None	None	None	None	1
3.0.1	2019_Mar_07_1203	s	s	14	2	Capacity	74	1_1	1	1	4	1	23_4_1	3	0	1	0	0.610945940018	255.0	125.0	243.0	132.0	1
3.0.1	2019_Mar_07_1203	s	s	14	2	Capacity	75	ABS	0	0	3	1	24_3_1	NA	NA	0	1	1.04605507851	None	None	None	None	1
3.0.1	2019_Mar_07_1203	s	s	14	2	Capacity	76	ABS	0	0	2	1	24_2_1	NA	NA	0	1	3.480727911	None	None	None	None	1
3.0.1	2019_Mar_07_1203	s	s	14	2	Capacity	77	ABS	0	0	1	1	24_1_1	NA	NA	0	1	2.78960394859	None	None	None	None	1
3.0.1	2019_Mar_07_1203	s	s	14	2	Capacity	78	3_1	3	1	4	1	23_4_1	-1	0	1	0	0.63444685936	526.0	-169.0	533.0	-166.0	1
3.0.1	2019_Mar_07_1203	s	s	14	2	Capacity	79	4_1	4	1	2	1	23_2_1	2	0	1	0	0.451273918152	-369.0	151.0	-359.0	150.0	1
3.0.1	2019_Mar_07_1203	s	s	14	2	Capacity	80	2_1	2	1	1	1	23_1_1	-1	0	0	1	2.5397810936	271.0	-362.0	None	None	0
3.0.1	2019_Mar_07_1203	s	s	14	2	Capacity	81	1_1	1	1	3	1	23_3_1	2	0	1	0	0.850183010101	309.0	126.0	315.0	125.0	1
3.0.1	2019_Mar_07_1203	s	s	14	2	Capacity	82	ABS	0	0	4	1	24_4_1	NA	NA	0	1	1.82666301727	None	None	None	None	1
3.0.1	2019_Mar_07_1203	s	s	14	2	Capacity	83	2_1	2	1	4	1	23_4_1	2	0	1	0	0.49849820137	113.0	-163.0	118.0	-159.0	1
3.0.1	2019_Mar_07_1203	s	s	14	2	Capacity	84	2_1	2	1	3	1	23_3_1	1	0	1	0	0.628753185272	267.0	-32.0	272.0	-38.0	1
3.0.1	2019_Mar_07_1203	s	s	14	2	Capacity	85	ABS	0	0	3	1	24_3_1	NA	NA	0	1	2.25593304634	None	None	None	None	1
3.0.1	2019_Mar_07_1203	s	s	14	2	Capacity	86	ABS	0	0	2	1	24_2_1	NA	NA	0	1	2.61527609825	None	None	None	None	1
3.0.1	2019_Mar_07_1203	s	s	14	2	Capacity	87	ABS	0	0	4	1	24_4_1	NA	NA	0	1	1.56957578659	None	None	None	None	1
3.0.1	2019_Mar_07_1203	s	s	14	2	Capacity	88	ABS	0	0	4	1	24_4_1	NA	NA	0	1	2.2658059597	None	None	None	None	1
3.0.1	2019_Mar_07_1203	s	s	14	2	Capacity	89	ABS	0	0	1	1	24_1_1	NA	NA	0	1	2.76321196556	None	None	None	None	1
3.0.1	2019_Mar_07_1203	s	s	14	2	Capacity	90	1_1	1	1	2	1	23_2_1	1	0	1	0	2.08885788918	-508.0	405.0	-508.0	408.0	1
3.0.1	2019_Mar_07_1203	s	s	14	2	Capacity	91	4_1	4	1	1	1	23_1_1	3	0	1	0	0.496243953705	-87.0	274.0	-89.0	270.0	1
3.0.1	2019_Mar_07_1203	s	s	14	2	Capacity	92	3_1	3	1	1	1	23_1_1	2	0	1	0	0.540291070938	-524.0	-292.0	-517.0	-288.0	1
3.0.1	2019_Mar_07_1203	s	s	14	2	Capacity	93	ABS	0	0	1	1	24_1_1	NA	NA	0	1	2.33978390694	None	None	None	None	1
3.0.1	2019_Mar_07_1203	s	s	14	2	Capacity	94	4_1	4	1	3	1	23_3_1	1	0	1	0	0.613697052002	336.0	-139.0	342.0	-136.0	1
3.0.1	2019_Mar_07_1203	s	s	14	2	Capacity	95	3_1	3	1	2	1	23_2_1	1	0	1	0	0.554964065552	225.0	-87.0	230.0	-90.0	1
3.0.1	2019_Mar_07_1203	s	s	14	2	Capacity	96	ABS	0	0	3	1	24_3_1	NA	NA	0	1	2.86899495125	None	None	None	None	1
3.0.1	2019_Mar_07_1203	s	s	14	2	Capacity	1	ABS	0	0	1	4	24_1_4	NA	NA	0	1	2.61319112778	None	None	None	None	1
3.0.1	2019_Mar_07_1203	s	s	14	2	Capacity	2	ABS	0	0	1	1	24_1_1	NA	NA	0	1	2.57498502731	None	None	None	None	1
3.0.1	2019_Mar_07_1203	s	s	14	2	Capacity	3	ABS	0	0	1	3	24_1_3	NA	NA	0	1	3.36795306206	None	None	None	None	1
3.0.1	2019_Mar_07_1203	s	s	14	2	Capacity	4	ABS	0	0	1	3	24_1_3	NA	NA	0	1	3.95111107826	None	None	None	None	1
3.0.1	2019_Mar_07_1203	s	s	14	2	Capacity	5	1_1	1	1	1	2	23_1_2	0	1	1	0	4.09225416183	195.0	294.0	205.0	292.0	1
3.0.1	2019_Mar_07_1203	s	s	14	2	Capacity	6	1_4	1	4	1	1	23_1_1	0	3	1	0	1.57531094551	481.0	-412.0	489.0	-414.0	1
3.0.1	2019_Mar_07_1203	s	s	14	2	Capacity	7	1_3	1	3	1	4	23_1_4	0	-1	1	0	1.63438200951	-73.0	-20.0	-71.0	-35.0	1
3.0.1	2019_Mar_07_1203	s	s	14	2	Capacity	8	1_1	1	1	1	4	23_1_4	0	3	1	0	0.540436029434	0.0	-32.0	8.0	-31.0	1
3.0.1	2019_Mar_07_1203	s	s	14	2	Capacity	9	1_2	1	2	1	1	23_1_1	0	-1	1	0	0.8049659729	-129.0	212.0	-131.0	196.0	1
3.0.1	2019_Mar_07_1203	s	s	14	2	Capacity	10	1_1	1	1	1	3	23_1_3	0	2	1	0	0.763755083084	-37.0	223.0	-43.0	223.0	1
3.0.1	2019_Mar_07_1203	s	s	14	2	Capacity	11	ABS	0	0	1	1	24_1_1	NA	NA	0	1	2.70850610733	None	None	None	None	1
3.0.1	2019_Mar_07_1203	s	s	14	2	Capacity	12	1_4	1	4	1	3	23_1_3	0	1	1	0	1.96634912491	466.0	-127.0	469.0	-128.0	1
3.0.1	2019_Mar_07_1203	s	s	14	2	Capacity	13	ABS	0	0	1	4	24_1_4	NA	NA	0	1	3.68550014496	None	None	None	None	1
3.0.1	2019_Mar_07_1203	s	s	14	2	Capacity	14	ABS	0	0	1	4	24_1_4	NA	NA	0	1	3.04536604881	None	None	None	None	1
3.0.1	2019_Mar_07_1203	s	s	14	2	Capacity	15	1_3	1	3	1	2	23_1_2	0	1	1	0	1.1088950634	109.0	-157.0	-206.0	176.0	0
3.0.1	2019_Mar_07_1203	s	s	14	2	Capacity	16	ABS	0	0	1	3	24_1_3	NA	NA	0	1	3.6867249012	None	None	None	None	1
3.0.1	2019_Mar_07_1203	s	s	14	2	Capacity	17	1_2	1	2	1	4	23_1_4	0	2	1	0	0.95848608017	532.0	208.0	534.0	216.0	1
3.0.1	2019_Mar_07_1203	s	s	14	2	Capacity	18	1_2	1	2	1	3	23_1_3	0	1	0	1	3.79641103745	-321.0	14.0	None	None	0
3.0.1	2019_Mar_07_1203	s	s	14	2	Capacity	19	ABS	0	0	1	1	24_1_1	NA	NA	0	1	3.25177884102	None	None	None	None	1
3.0.1	2019_Mar_07_1203	s	s	14	2	Capacity	20	ABS	0	0	1	2	24_1_2	NA	NA	1	0	1.22781920433	None	None	389.0	405.0	0
3.0.1	2019_Mar_07_1203	s	s	14	2	Capacity	21	ABS	0	0	1	2	24_1_2	NA	NA	0	1	3.50705504417	None	None	None	None	1
3.0.1	2019_Mar_07_1203	s	s	14	2	Capacity	22	ABS	0	0	1	2	24_1_2	NA	NA	0	1	3.79528999329	None	None	None	None	1
3.0.1	2019_Mar_07_1203	s	s	14	2	Capacity	23	1_4	1	4	1	2	23_1_2	0	2	1	0	0.698168992996	-279.0	319.0	-284.0	324.0	1
3.0.1	2019_Mar_07_1203	s	s	14	2	Capacity	24	1_3	1	3	1	1	23_1_1	0	2	1	0	2.71624207497	-73.0	-166.0	-74.0	-163.0	1
3.0.1	2019_Mar_07_1203	s	s	14	2	Capacity	25	1_1	1	1	1	2	23_1_2	0	1	0	1	3.15746593475	-438.0	-52.0	None	None	0
3.0.1	2019_Mar_07_1203	s	s	14	2	Capacity	26	1_3	1	3	1	2	23_1_2	0	1	1	0	4.22156095505	-60.0	-77.0	-69.0	-74.0	1
3.0.1	2019_Mar_07_1203	s	s	14	2	Capacity	27	ABS	0	0	1	1	24_1_1	NA	NA	0	1	3.92752194405	None	None	None	None	1
3.0.1	2019_Mar_07_1203	s	s	14	2	Capacity	28	1_3	1	3	1	4	23_1_4	0	-1	1	0	1.2679040432	306.0	15.0	302.0	14.0	1
3.0.1	2019_Mar_07_1203	s	s	14	2	Capacity	29	ABS	0	0	1	4	24_1_4	NA	NA	0	1	4.93893790245	None	None	None	None	1
3.0.1	2019_Mar_07_1203	s	s	14	2	Capacity	30	1_1	1	1	1	3	23_1_3	0	2	1	0	0.916912078857	-194.0	369.0	-188.0	364.0	1
3.0.1	2019_Mar_07_1203	s	s	14	2	Capacity	31	1_2	1	2	1	1	23_1_1	0	-1	0	1	3.80402708054	-135.0	-48.0	None	None	0
3.0.1	2019_Mar_07_1203	s	s	14	2	Capacity	32	1_2	1	2	1	4	23_1_4	0	2	1	0	0.593947887421	282.0	-66.0	292.0	-64.0	1
3.0.1	2019_Mar_07_1203	s	s	14	2	Capacity	33	ABS	0	0	1	2	24_1_2	NA	NA	0	1	4.1556828022	None	None	None	None	1
3.0.1	2019_Mar_07_1203	s	s	14	2	Capacity	34	ABS	0	0	1	4	24_1_4	NA	NA	0	1	3.94598603249	None	None	None	None	1
3.0.1	2019_Mar_07_1203	s	s	14	2	Capacity	35	1_4	1	4	1	3	23_1_3	0	1	1	0	3.13961100578	-79.0	-290.0	-75.0	-293.0	1
3.0.1	2019_Mar_07_1203	s	s	14	2	Capacity	36	ABS	0	0	1	3	24_1_3	NA	NA	0	1	3.96283197403	None	None	None	None	1
3.0.1	2019_Mar_07_1203	s	s	14	2	Capacity	37	1_3	1	3	1	1	23_1_1	0	2	1	0	0.907794952393	-164.0	349.0	-167.0	353.0	1
3.0.1	2019_Mar_07_1203	s	s	14	2	Capacity	38	ABS	0	0	1	2	24_1_2	NA	NA	0	1	3.90930819511	None	None	None	None	1
3.0.1	2019_Mar_07_1203	s	s	14	2	Capacity	39	ABS	0	0	1	3	24_1_3	NA	NA	0	1	4.15109682083	None	None	None	None	1
3.0.1	2019_Mar_07_1203	s	s	14	2	Capacity	40	1_4	1	4	1	1	23_1_1	0	3	1	0	0.616113185883	-39.0	382.0	-38.0	381.0	1
3.0.1	2019_Mar_07_1203	s	s	14	2	Capacity	41	ABS	0	0	1	2	24_1_2	NA	NA	0	1	5.42413401604	None	None	None	None	1
3.0.1	2019_Mar_07_1203	s	s	14	2	Capacity	42	ABS	0	0	1	1	24_1_1	NA	NA	0	1	3.06226801872	None	None	None	None	1
3.0.1	2019_Mar_07_1203	s	s	14	2	Capacity	43	ABS	0	0	1	3	24_1_3	NA	NA	0	1	2.62746715546	None	None	None	None	1
3.0.1	2019_Mar_07_1203	s	s	14	2	Capacity	44	ABS	0	0	1	4	24_1_4	NA	NA	0	1	3.14389491081	None	None	None	None	1
3.0.1	2019_Mar_07_1203	s	s	14	2	Capacity	45	ABS	0	0	1	1	24_1_1	NA	NA	0	1	3.68066596985	None	None	None	None	1
3.0.1	2019_Mar_07_1203	s	s	14	2	Capacity	46	1_1	1	1	1	4	23_1_4	0	3	1	0	0.917040109634	501.0	131.0	504.0	123.0	1
3.0.1	2019_Mar_07_1203	s	s	14	2	Capacity	47	1_4	1	4	1	2	23_1_2	0	2	1	0	1.04607701302	467.0	336.0	478.0	346.0	1
3.0.1	2019_Mar_07_1203	s	s	14	2	Capacity	48	1_2	1	2	1	3	23_1_3	0	1	1	0	3.17969417572	-261.0	-296.0	-264.0	-308.0	1
3.0.1	2019_Mar_07_1203	s	s	14	2	Capacity	49	1_4	1	4	1	2	23_1_2	0	2	1	0	0.987276077271	-469.0	-394.0	-475.0	-403.0	1
3.0.1	2019_Mar_07_1203	s	s	14	2	Capacity	50	1_4	1	4	1	1	23_1_1	0	3	1	0	0.7637758255	-521.0	278.0	-513.0	273.0	1
3.0.1	2019_Mar_07_1203	s	s	14	2	Capacity	51	ABS	0	0	1	3	24_1_3	NA	NA	0	1	2.86916399002	None	None	None	None	1
3.0.1	2019_Mar_07_1203	s	s	14	2	Capacity	52	ABS	0	0	1	4	24_1_4	NA	NA	0	1	4.04512906075	None	None	None	None	1
3.0.1	2019_Mar_07_1203	s	s	14	2	Capacity	53	ABS	0	0	1	1	24_1_1	NA	NA	0	1	2.68087315559	None	None	None	None	1
3.0.1	2019_Mar_07_1203	s	s	14	2	Capacity	54	ABS	0	0	1	1	24_1_1	NA	NA	0	1	2.30496907234	None	None	None	None	1
3.0.1	2019_Mar_07_1203	s	s	14	2	Capacity	55	ABS	0	0	1	4	24_1_4	NA	NA	0	1	2.31944084167	None	None	None	None	1
3.0.1	2019_Mar_07_1203	s	s	14	2	Capacity	56	ABS	0	0	1	2	24_1_2	NA	NA	0	1	4.0245859623	None	None	None	None	1
3.0.1	2019_Mar_07_1203	s	s	14	2	Capacity	57	1_3	1	3	1	4	23_1_4	0	-1	1	0	0.78214097023	393.0	-235.0	386.0	-234.0	1
3.0.1	2019_Mar_07_1203	s	s	14	2	Capacity	58	ABS	0	0	1	1	24_1_1	NA	NA	0	1	3.09868192673	None	None	None	None	1
3.0.1	2019_Mar_07_1203	s	s	14	2	Capacity	59	ABS	0	0	1	3	24_1_3	NA	NA	0	1	3.35126709938	None	None	None	None	1
3.0.1	2019_Mar_07_1203	s	s	14	2	Capacity	60	1_2	1	2	1	3	23_1_3	0	1	1	0	2.8249771595	133.0	162.0	492.0	-397.0	0
3.0.1	2019_Mar_07_1203	s	s	14	2	Capacity	61	ABS	0	0	1	4	24_1_4	NA	NA	0	1	2.92186999321	None	None	None	None	1
3.0.1	2019_Mar_07_1203	s	s	14	2	Capacity	62	1_1	1	1	1	4	23_1_4	0	3	1	0	0.634423017502	-104.0	404.0	-97.0	407.0	1
3.0.1	2019_Mar_07_1203	s	s	14	2	Capacity	63	ABS	0	0	1	2	24_1_2	NA	NA	0	1	4.00363206863	None	None	None	None	1
3.0.1	2019_Mar_07_1203	s	s	14	2	Capacity	64	1_2	1	2	1	1	23_1_1	0	-1	0	1	3.88572692871	343.0	-260.0	None	None	0
3.0.1	2019_Mar_07_1203	s	s	14	2	Capacity	65	1_2	1	2	1	4	23_1_4	0	2	1	0	0.520967006683	156.0	-7.0	155.0	-12.0	1
3.0.1	2019_Mar_07_1203	s	s	14	2	Capacity	66	1_4	1	4	1	3	23_1_3	0	1	1	0	0.763778924942	237.0	-135.0	238.0	-142.0	1
3.0.1	2019_Mar_07_1203	s	s	14	2	Capacity	67	1_1	1	1	1	3	23_1_3	0	2	1	0	2.19344687462	9.0	-322.0	13.0	-327.0	1
3.0.1	2019_Mar_07_1203	s	s	14	2	Capacity	68	1_3	1	3	1	1	23_1_1	0	2	1	0	1.01763796806	191.0	316.0	183.0	314.0	1
3.0.1	2019_Mar_07_1203	s	s	14	2	Capacity	69	ABS	0	0	1	2	24_1_2	NA	NA	0	1	5.19775795937	None	None	None	None	1
3.0.1	2019_Mar_07_1203	s	s	14	2	Capacity	70	ABS	0	0	1	3	24_1_3	NA	NA	0	1	2.84845209122	None	None	None	None	1
3.0.1	2019_Mar_07_1203	s	s	14	2	Capacity	71	1_3	1	3	1	2	23_1_2	0	1	0	1	4.04516196251	-112.0	-275.0	None	None	0
3.0.1	2019_Mar_07_1203	s	s	14	2	Capacity	72	1_1	1	1	1	2	23_1_2	0	1	0	1	4.41434311867	-465.0	-380.0	None	None	0
3.0.1	2019_Mar_07_1203	s	s	14	2	Capacity	73	ABS	0	0	1	2	24_1_2	NA	NA	1	0	4.67144298553	None	None	10.0	55.0	0
3.0.1	2019_Mar_07_1203	s	s	14	2	Capacity	74	1_4	1	4	1	1	23_1_1	0	3	1	0	0.693199872971	-487.0	325.0	-483.0	321.0	1
3.0.1	2019_Mar_07_1203	s	s	14	2	Capacity	75	1_1	1	1	1	3	23_1_3	0	2	1	0	2.92783093452	135.0	-326.0	134.0	-319.0	1
3.0.1	2019_Mar_07_1203	s	s	14	2	Capacity	76	ABS	0	0	1	1	24_1_1	NA	NA	0	1	3.23796200752	None	None	None	None	1
3.0.1	2019_Mar_07_1203	s	s	14	2	Capacity	77	ABS	0	0	1	1	24_1_1	NA	NA	0	1	2.58034801483	None	None	None	None	1
3.0.1	2019_Mar_07_1203	s	s	14	2	Capacity	78	ABS	0	0	1	1	24_1_1	NA	NA	0	1	2.97820496559	None	None	None	None	1
3.0.1	2019_Mar_07_1203	s	s	14	2	Capacity	79	ABS	0	0	1	4	24_1_4	NA	NA	0	1	2.57844996452	None	None	None	None	1
3.0.1	2019_Mar_07_1203	s	s	14	2	Capacity	80	ABS	0	0	1	4	24_1_4	NA	NA	0	1	3.72115588188	None	None	None	None	1
3.0.1	2019_Mar_07_1203	s	s	14	2	Capacity	81	ABS	0	0	1	2	24_1_2	NA	NA	0	1	2.8219909668	None	None	None	None	1
3.0.1	2019_Mar_07_1203	s	s	14	2	Capacity	82	1_4	1	4	1	3	23_1_3	0	1	1	0	1.1924290657	27.0	172.0	34.0	167.0	1
3.0.1	2019_Mar_07_1203	s	s	14	2	Capacity	83	1_2	1	2	1	1	23_1_1	0	-1	0	1	3.13283610344	234.0	36.0	None	None	0
3.0.1	2019_Mar_07_1203	s	s	14	2	Capacity	84	1_2	1	2	1	4	23_1_4	0	2	1	0	0.73134803772	-149.0	-174.0	-146.0	-180.0	1
3.0.1	2019_Mar_07_1203	s	s	14	2	Capacity	85	ABS	0	0	1	2	24_1_2	NA	NA	0	1	3.36299610138	None	None	None	None	1
3.0.1	2019_Mar_07_1203	s	s	14	2	Capacity	86	1_3	1	3	1	1	23_1_1	0	2	1	0	2.57811689377	393.0	282.0	391.0	287.0	1
3.0.1	2019_Mar_07_1203	s	s	14	2	Capacity	87	1_2	1	2	1	3	23_1_3	0	1	1	0	1.0254650116	-303.0	245.0	-297.0	245.0	1
3.0.1	2019_Mar_07_1203	s	s	14	2	Capacity	88	ABS	0	0	1	3	24_1_3	NA	NA	0	1	2.99069404602	None	None	None	None	1
3.0.1	2019_Mar_07_1203	s	s	14	2	Capacity	89	1_3	1	3	1	4	23_1_4	0	-1	1	0	1.97854304314	184.0	-287.0	188.0	-287.0	1
3.0.1	2019_Mar_07_1203	s	s	14	2	Capacity	90	1_1	1	1	1	4	23_1_4	0	3	1	0	0.622706890106	453.0	-21.0	458.0	-25.0	1
3.0.1	2019_Mar_07_1203	s	s	14	2	Capacity	91	ABS	0	0	1	4	24_1_4	NA	NA	0	1	3.17495393753	None	None	None	None	1
3.0.1	2019_Mar_07_1203	s	s	14	2	Capacity	92	ABS	0	0	1	3	24_1_3	NA	NA	0	1	3.95109200478	None	None	None	None	1
3.0.1	2019_Mar_07_1203	s	s	14	2	Capacity	93	1_1	1	1	1	2	23_1_2	0	1	1	0	1.28779220581	-182.0	231.0	93.0	269.0	0
3.0.1	2019_Mar_07_1203	s	s	14	2	Capacity	94	1_3	1	3	1	2	23_1_2	0	1	1	0	4.34406900406	431.0	-273.0	430.0	-270.0	1
3.0.1	2019_Mar_07_1203	s	s	14	2	Capacity	95	ABS	0	0	1	3	24_1_3	NA	NA	0	1	5.70351600647	None	None	None	None	1
3.0.1	2019_Mar_07_1203	s	s	14	2	Capacity	96	1_4	1	4	1	2	23_1_2	0	2	1	0	0.705116987228	-496.0	-306.0	-484.0	-304.0	1
3.0.1	2019_Mar_07_1203	s	s	14	2	SIC	1	4_2	4	2	2	1	23_2_1	2	-1	1	0	0.444084882736	-397.0	136.0	-403.0	145.0	1
3.0.1	2019_Mar_07_1203	s	s	14	2	SIC	2	ABS	0	0	1	1	24_1_1	NA	NA	0	1	2.10835599899	None	None	None	None	1
3.0.1	2019_Mar_07_1203	s	s	14	2	SIC	3	ABS	0	0	4	4	24_4_4	NA	NA	0	1	2.97045588493	None	None	None	None	1
3.0.1	2019_Mar_07_1203	s	s	14	2	SIC	4	ABS	0	0	4	4	24_4_4	NA	NA	1	0	2.78012800217	None	None	130.0	-97.0	0
3.0.1	2019_Mar_07_1203	s	s	14	2	SIC	5	1_3	1	3	3	4	23_3_4	2	-1	1	0	0.493324995041	-162.0	106.0	-171.0	104.0	1
3.0.1	2019_Mar_07_1203	s	s	14	2	SIC	6	ABS	0	0	2	2	24_2_2	NA	NA	0	1	3.41508102417	None	None	None	None	1
3.0.1	2019_Mar_07_1203	s	s	14	2	SIC	7	ABS	0	0	1	2	24_1_2	NA	NA	0	1	4.10395789146	None	None	None	None	1
3.0.1	2019_Mar_07_1203	s	s	14	2	SIC	8	1_4	1	4	3	1	23_3_1	2	3	1	0	0.543250083923	-349.0	223.0	-346.0	222.0	1
3.0.1	2019_Mar_07_1203	s	s	14	2	SIC	9	ABS	0	0	2	2	24_2_2	NA	NA	0	1	2.42575716972	None	None	None	None	1
3.0.1	2019_Mar_07_1203	s	s	14	2	SIC	10	ABS	0	0	3	4	24_3_4	NA	NA	0	1	2.90816783905	None	None	None	None	1
3.0.1	2019_Mar_07_1203	s	s	14	2	SIC	11	ABS	0	0	1	4	24_1_4	NA	NA	0	1	2.61423611641	None	None	None	None	1
3.0.1	2019_Mar_07_1203	s	s	14	2	SIC	12	4_2	4	2	3	1	23_3_1	1	-1	1	0	0.547432899475	513.0	-230.0	517.0	-234.0	1
3.0.1	2019_Mar_07_1203	s	s	14	2	SIC	13	ABS	0	0	1	4	24_1_4	NA	NA	0	1	3.36752915382	None	None	None	None	1
3.0.1	2019_Mar_07_1203	s	s	14	2	SIC	14	ABS	0	0	1	1	24_1_1	NA	NA	1	0	2.58090591431	None	None	-51.0	43.0	0
3.0.1	2019_Mar_07_1203	s	s	14	2	SIC	15	3_1	3	1	3	4	23_3_4	0	3	1	0	0.521635055542	-347.0	-4.0	-352.0	-7.0	1
3.0.1	2019_Mar_07_1203	s	s	14	2	SIC	16	ABS	0	0	4	4	24_4_4	NA	NA	0	1	2.36831402779	None	None	None	None	1
3.0.1	2019_Mar_07_1203	s	s	14	2	SIC	17	ABS	0	0	1	4	24_1_4	NA	NA	0	1	3.70934295654	None	None	None	None	1
3.0.1	2019_Mar_07_1203	s	s	14	2	SIC	18	ABS	0	0	4	3	24_4_3	NA	NA	1	0	5.34257006645	None	None	-361.0	77.0	0
3.0.1	2019_Mar_07_1203	s	s	14	2	SIC	19	3_1	3	1	4	1	23_4_1	-1	0	1	0	0.486493825912	477.0	-19.0	475.0	-21.0	1
3.0.1	2019_Mar_07_1203	s	s	14	2	SIC	20	ABS	0	0	2	1	24_2_1	NA	NA	0	1	2.39861989021	None	None	None	None	1
3.0.1	2019_Mar_07_1203	s	s	14	2	SIC	21	4_2	4	2	4	1	23_4_1	0	-1	0	1	2.5161280632	293.0	-144.0	None	None	0
3.0.1	2019_Mar_07_1203	s	s	14	2	SIC	22	2_1	2	1	1	2	23_1_2	-1	1	1	0	0.634459018707	491.0	206.0	-122.0	54.0	0
3.0.1	2019_Mar_07_1203	s	s	14	2	SIC	23	ABS	0	0	4	4	24_4_4	NA	NA	0	1	2.55539798737	None	None	None	None	1
3.0.1	2019_Mar_07_1203	s	s	14	2	SIC	24	1_3	1	3	1	4	23_1_4	0	-1	1	0	1.18021297455	401.0	-300.0	395.0	-298.0	1
3.0.1	2019_Mar_07_1203	s	s	14	2	SIC	25	1_3	1	3	3	1	23_3_1	2	2	1	0	0.481574773788	146.0	41.0	155.0	42.0	1
3.0.1	2019_Mar_07_1203	s	s	14	2	SIC	26	ABS	0	0	4	1	24_4_1	NA	NA	0	1	2.39345598221	None	None	None	None	1
3.0.1	2019_Mar_07_1203	s	s	14	2	SIC	27	3_1	3	1	3	2	23_3_2	0	1	1	0	1.8929028511	480.0	-351.0	474.0	-348.0	1
3.0.1	2019_Mar_07_1203	s	s	14	2	SIC	28	1_2	1	2	1	3	23_1_3	0	1	1	0	3.39828085899	-383.0	-363.0	-389.0	-370.0	1
3.0.1	2019_Mar_07_1203	s	s	14	2	SIC	29	2_1	2	1	3	2	23_3_2	1	1	1	0	1.08419299126	224.0	152.0	232.0	150.0	1
3.0.1	2019_Mar_07_1203	s	s	14	2	SIC	30	ABS	0	0	2	1	24_2_1	NA	NA	0	1	2.71621513367	None	None	None	None	1
3.0.1	2019_Mar_07_1203	s	s	14	2	SIC	31	4_3	4	3	4	1	23_4_1	0	2	1	0	1.79870700836	-340.0	-130.0	-334.0	-135.0	1
3.0.1	2019_Mar_07_1203	s	s	14	2	SIC	32	1_4	1	4	2	1	23_2_1	1	3	1	0	0.51680803299	-441.0	-99.0	-442.0	-99.0	1
3.0.1	2019_Mar_07_1203	s	s	14	2	SIC	33	ABS	0	0	3	4	24_3_4	NA	NA	0	1	3.53946590424	None	None	None	None	1
3.0.1	2019_Mar_07_1203	s	s	14	2	SIC	34	4_2	4	2	4	3	23_4_3	0	1	1	0	3.19293999672	-466.0	-198.0	-474.0	-203.0	1
3.0.1	2019_Mar_07_1203	s	s	14	2	SIC	35	ABS	0	0	1	2	24_1_2	NA	NA	0	1	5.14421606064	None	None	None	None	1
3.0.1	2019_Mar_07_1203	s	s	14	2	SIC	36	4_3	4	3	1	4	23_1_4	3	-1	1	0	0.516782999039	74.0	345.0	75.0	335.0	1
3.0.1	2019_Mar_07_1203	s	s	14	2	SIC	37	1_4	1	4	1	2	23_1_2	0	2	1	0	0.810844898224	418.0	0.0	414.0	0.0	1
3.0.1	2019_Mar_07_1203	s	s	14	2	SIC	38	ABS	0	0	2	3	24_2_3	NA	NA	0	1	4.08347702026	None	None	None	None	1
3.0.1	2019_Mar_07_1203	s	s	14	2	SIC	39	ABS	0	0	3	4	24_3_4	NA	NA	0	1	4.26864314079	None	None	None	None	1
3.0.1	2019_Mar_07_1203	s	s	14	2	SIC	40	3_1	3	1	3	3	23_3_3	0	2	1	0	0.599202871323	-111.0	5.0	-109.0	-2.0	1
3.0.1	2019_Mar_07_1203	s	s	14	2	SIC	41	ABS	0	0	3	4	24_3_4	NA	NA	0	1	3.42467904091	None	None	None	None	1
3.0.1	2019_Mar_07_1203	s	s	14	2	SIC	42	4_1	4	1	1	1	23_1_1	3	0	1	0	0.660779953003	36.0	-35.0	32.0	-39.0	1
3.0.1	2019_Mar_07_1203	s	s	14	2	SIC	43	3_3	3	3	3	2	23_3_2	0	1	0	1	3.57506489754	-134.0	285.0	None	None	0
3.0.1	2019_Mar_07_1203	s	s	14	2	SIC	44	ABS	0	0	1	2	24_1_2	NA	NA	0	1	3.65055990219	None	None	None	None	1
3.0.1	2019_Mar_07_1203	s	s	14	2	SIC	45	ABS	0	0	2	3	24_2_3	NA	NA	0	1	4.14216804504	None	None	None	None	1
3.0.1	2019_Mar_07_1203	s	s	14	2	SIC	46	ABS	0	0	1	4	24_1_4	NA	NA	0	1	3.56630396843	None	None	None	None	1
3.0.1	2019_Mar_07_1203	s	s	14	2	SIC	47	ABS	0	0	2	1	24_2_1	NA	NA	0	1	4.17449307442	None	None	None	None	1
3.0.1	2019_Mar_07_1203	s	s	14	2	SIC	48	4_3	4	3	4	2	23_4_2	0	1	1	0	1.1674079895	-76.0	262.0	-70.0	267.0	1
3.0.1	2019_Mar_07_1203	s	s	14	2	SIC	49	3_2	3	2	4	2	23_4_2	-1	0	1	0	0.740672826767	-499.0	-152.0	-507.0	-153.0	1
3.0.1	2019_Mar_07_1203	s	s	14	2	SIC	50	ABS	0	0	2	3	24_2_3	NA	NA	1	0	3.93931508064	None	None	-476.0	-18.0	0
3.0.1	2019_Mar_07_1203	s	s	14	2	SIC	51	ABS	0	0	3	3	24_3_3	NA	NA	0	1	4.24506807327	None	None	None	None	1
3.0.1	2019_Mar_07_1203	s	s	14	2	SIC	52	4_1	4	1	4	2	23_4_2	0	1	0	1	3.68053102493	-165.0	236.0	None	None	0
3.0.1	2019_Mar_07_1203	s	s	14	2	SIC	53	ABS	0	0	4	4	24_4_4	NA	NA	0	1	2.77507591248	None	None	None	None	1
3.0.1	2019_Mar_07_1203	s	s	14	2	SIC	54	2_3	2	3	1	3	23_1_3	-1	0	0	1	2.66357398033	15.0	-325.0	None	None	0
3.0.1	2019_Mar_07_1203	s	s	14	2	SIC	55	2_2	2	2	1	2	23_1_2	-1	0	0	1	3.33942079544	-10.0	-8.0	None	None	0
3.0.1	2019_Mar_07_1203	s	s	14	2	SIC	56	ABS	0	0	1	1	24_1_1	NA	NA	0	1	1.91647410393	None	None	None	None	1
3.0.1	2019_Mar_07_1203	s	s	14	2	SIC	57	ABS	0	0	1	3	24_1_3	NA	NA	0	1	3.43845701218	None	None	None	None	1
3.0.1	2019_Mar_07_1203	s	s	14	2	SIC	58	2_3	2	3	4	4	23_4_4	2	-1	1	0	0.556555986404	-538.0	-254.0	-532.0	-262.0	1
3.0.1	2019_Mar_07_1203	s	s	14	2	SIC	59	4_2	4	2	2	2	23_2_2	2	0	1	0	0.501317024231	-212.0	100.0	-209.0	102.0	1
3.0.1	2019_Mar_07_1203	s	s	14	2	SIC	60	2_3	2	3	3	4	23_3_4	1	-1	1	0	0.646217107773	484.0	-140.0	481.0	-147.0	1
3.0.1	2019_Mar_07_1203	s	s	14	2	SIC	61	3_1	3	1	4	4	23_4_4	-1	3	1	0	0.422847032547	-276.0	99.0	-272.0	87.0	1
3.0.1	2019_Mar_07_1203	s	s	14	2	SIC	62	ABS	0	0	4	3	24_4_3	NA	NA	0	1	3.39864897728	None	None	None	None	1
3.0.1	2019_Mar_07_1203	s	s	14	2	SIC	63	ABS	0	0	1	1	24_1_1	NA	NA	0	1	2.41036105156	None	None	None	None	1
3.0.1	2019_Mar_07_1203	s	s	14	2	SIC	64	4_2	4	2	2	4	23_2_4	2	2	1	0	0.675049066544	-342.0	-276.0	-347.0	-278.0	1
3.0.1	2019_Mar_07_1203	s	s	14	2	SIC	65	3_4	3	4	2	2	23_2_2	1	2	1	0	0.533219099045	-342.0	-306.0	-335.0	-305.0	1
3.0.1	2019_Mar_07_1203	s	s	14	2	SIC	66	4_1	4	1	3	2	23_3_2	1	1	1	0	0.458013057709	404.0	60.0	414.0	64.0	1
3.0.1	2019_Mar_07_1203	s	s	14	2	SIC	67	4_1	4	1	2	2	23_2_2	2	1	1	0	0.415901899338	-392.0	-126.0	-390.0	-131.0	1
3.0.1	2019_Mar_07_1203	s	s	14	2	SIC	68	ABS	0	0	4	3	24_4_3	NA	NA	0	1	2.47541213036	None	None	None	None	1
3.0.1	2019_Mar_07_1203	s	s	14	2	SIC	69	2_2	2	2	1	4	23_1_4	-1	2	1	0	0.662819862366	475.0	-185.0	479.0	-188.0	1
3.0.1	2019_Mar_07_1203	s	s	14	2	SIC	70	ABS	0	0	3	1	24_3_1	NA	NA	0	1	1.99874520302	None	None	None	None	1
3.0.1	2019_Mar_07_1203	s	s	14	2	SIC	71	2_4	2	4	3	2	23_3_2	1	2	1	0	0.944664001465	-174.0	-322.0	-170.0	-335.0	1
3.0.1	2019_Mar_07_1203	s	s	14	2	SIC	72	1_1	1	1	1	4	23_1_4	0	3	1	0	0.731440067291	445.0	395.0	449.0	391.0	1
3.0.1	2019_Mar_07_1203	s	s	14	2	SIC	73	ABS	0	0	3	3	24_3_3	NA	NA	0	1	4.33249497414	None	None	None	None	1
3.0.1	2019_Mar_07_1203	s	s	14	2	SIC	74	2_2	2	2	3	1	23_3_1	1	-1	1	0	0.940171003342	260.0	35.0	261.0	41.0	1
3.0.1	2019_Mar_07_1203	s	s	14	2	SIC	75	ABS	0	0	3	2	24_3_2	NA	NA	0	1	2.7095348835	None	None	None	None	1
3.0.1	2019_Mar_07_1203	s	s	14	2	SIC	76	1_2	1	2	3	4	23_3_4	2	2	1	0	0.575616836548	-380.0	-160.0	-378.0	-168.0	1
3.0.1	2019_Mar_07_1203	s	s	14	2	SIC	77	ABS	0	0	4	2	24_4_2	NA	NA	0	1	2.30455493927	None	None	None	None	1
3.0.1	2019_Mar_07_1203	s	s	14	2	SIC	78	1_2	1	2	3	2	23_3_2	2	0	1	0	0.442919969559	-108.0	-158.0	-103.0	-150.0	1
3.0.1	2019_Mar_07_1203	s	s	14	2	SIC	79	ABS	0	0	3	4	24_3_4	NA	NA	0	1	1.23423099518	None	None	None	None	1
3.0.1	2019_Mar_07_1203	s	s	14	2	SIC	80	ABS	0	0	1	2	24_1_2	NA	NA	0	1	3.1079120636	None	None	None	None	1
3.0.1	2019_Mar_07_1203	s	s	14	2	SIC	81	ABS	0	0	4	2	24_4_2	NA	NA	0	1	3.39326310158	None	None	None	None	1
3.0.1	2019_Mar_07_1203	s	s	14	2	SIC	82	2_1	2	1	3	3	23_3_3	1	2	1	0	0.843420028687	-44.0	-238.0	-45.0	-241.0	1
3.0.1	2019_Mar_07_1203	s	s	14	2	SIC	83	4_3	4	3	2	2	23_2_2	2	1	1	0	1.09315681458	-169.0	-260.0	-163.0	-263.0	1
3.0.1	2019_Mar_07_1203	s	s	14	2	SIC	84	2_3	2	3	4	1	23_4_1	2	2	1	0	0.443550109863	391.0	-50.0	401.0	-52.0	1
3.0.1	2019_Mar_07_1203	s	s	14	2	SIC	85	ABS	0	0	1	1	24_1_1	NA	NA	0	1	2.13989686966	None	None	None	None	1
3.0.1	2019_Mar_07_1203	s	s	14	2	SIC	86	2_3	2	3	3	1	23_3_1	1	2	1	0	0.728520870209	-467.0	-99.0	-473.0	-97.0	1
3.0.1	2019_Mar_07_1203	s	s	14	2	SIC	87	ABS	0	0	4	2	24_4_2	NA	NA	0	1	3.55408287048	None	None	None	None	1
3.0.1	2019_Mar_07_1203	s	s	14	2	SIC	88	ABS	0	0	2	3	24_2_3	NA	NA	0	1	3.72234106064	None	None	None	None	1
3.0.1	2019_Mar_07_1203	s	s	14	2	SIC	89	ABS	0	0	4	1	24_4_1	NA	NA	0	1	3.49926400185	None	None	None	None	1
3.0.1	2019_Mar_07_1203	s	s	14	2	SIC	90	2_4	2	4	3	3	23_3_3	1	1	1	0	0.54696393013	486.0	-271.0	484.0	-276.0	1
3.0.1	2019_Mar_07_1203	s	s	14	2	SIC	91	1_3	1	3	2	2	23_2_2	1	1	1	0	4.60445904732	422.0	57.0	428.0	56.0	1
3.0.1	2019_Mar_07_1203	s	s	14	2	SIC	92	3_2	3	2	1	2	23_1_2	2	0	1	0	1.61354494095	-56.0	-396.0	-48.0	-399.0	1
3.0.1	2019_Mar_07_1203	s	s	14	2	SIC	93	ABS	0	0	4	4	24_4_4	NA	NA	0	1	4.08334493637	None	None	None	None	1
3.0.1	2019_Mar_07_1203	s	s	14	2	SIC	94	3_4	3	4	4	3	23_4_3	-1	1	1	0	0.569888114929	372.0	256.0	381.0	254.0	1
3.0.1	2019_Mar_07_1203	s	s	14	2	SIC	95	ABS	0	0	4	4	24_4_4	NA	NA	0	1	3.31001091003	None	None	None	None	1
3.0.1	2019_Mar_07_1203	s	s	14	2	SIC	96	2_3	2	3	2	1	23_2_1	0	2	1	0	0.629861116409	-131.0	23.0	-135.0	26.0	1
3.0.1	2019_Mar_07_1203	s	s	14	2	SIC	97	ABS	0	0	3	3	24_3_3	NA	NA	0	1	2.88078784943	None	None	None	None	1
3.0.1	2019_Mar_07_1203	s	s	14	2	SIC	98	2_2	2	2	1	1	23_1_1	-1	-1	0	1	2.33366513252	89.0	-205.0	None	None	0
3.0.1	2019_Mar_07_1203	s	s	14	2	SIC	99	2_2	2	2	3	4	23_3_4	1	2	1	0	0.717204093933	455.0	332.0	454.0	337.0	1
3.0.1	2019_Mar_07_1203	s	s	14	2	SIC	100	ABS	0	0	1	4	24_1_4	NA	NA	0	1	1.99005699158	None	None	None	None	1
3.0.1	2019_Mar_07_1203	s	s	14	2	SIC	101	ABS	0	0	1	2	24_1_2	NA	NA	0	1	2.82635092735	None	None	None	None	1
3.0.1	2019_Mar_07_1203	s	s	14	2	SIC	102	ABS	0	0	3	3	24_3_3	NA	NA	0	1	2.20149302483	None	None	None	None	1
3.0.1	2019_Mar_07_1203	s	s	14	2	SIC	103	4_3	4	3	1	2	23_1_2	3	1	1	0	0.462880134583	40.0	-221.0	41.0	-223.0	1
3.0.1	2019_Mar_07_1203	s	s	14	2	SIC	104	ABS	0	0	3	2	24_3_2	NA	NA	0	1	3.03366994858	None	None	None	None	1
3.0.1	2019_Mar_07_1203	s	s	14	2	SIC	105	3_1	3	1	1	1	23_1_1	2	0	1	0	0.599205970764	162.0	280.0	171.0	276.0	1
3.0.1	2019_Mar_07_1203	s	s	14	2	SIC	106	4_2	4	2	3	2	23_3_2	1	0	1	0	0.496202945709	336.0	-354.0	342.0	-349.0	1
3.0.1	2019_Mar_07_1203	s	s	14	2	SIC	107	2_2	2	2	3	3	23_3_3	1	1	1	0	0.651406049728	295.0	205.0	297.0	197.0	1
3.0.1	2019_Mar_07_1203	s	s	14	2	SIC	108	ABS	0	0	1	3	24_1_3	NA	NA	0	1	2.66364502907	None	None	None	None	1
3.0.1	2019_Mar_07_1203	s	s	14	2	SIC	109	ABS	0	0	4	4	24_4_4	NA	NA	1	0	2.15155982971	None	None	51.0	-43.0	0
3.0.1	2019_Mar_07_1203	s	s	14	2	SIC	110	2_1	2	1	4	2	23_4_2	2	1	1	0	0.705003976822	305.0	139.0	304.0	129.0	1
3.0.1	2019_Mar_07_1203	s	s	14	2	SIC	111	ABS	0	0	3	3	24_3_3	NA	NA	0	1	2.80349493027	None	None	None	None	1
3.0.1	2019_Mar_07_1203	s	s	14	2	SIC	112	ABS	0	0	1	3	24_1_3	NA	NA	0	1	2.2338809967	None	None	None	None	1
3.0.1	2019_Mar_07_1203	s	s	14	2	SIC	113	ABS	0	0	4	4	24_4_4	NA	NA	0	1	2.49563717842	None	None	None	None	1
3.0.1	2019_Mar_07_1203	s	s	14	2	SIC	114	ABS	0	0	4	2	24_4_2	NA	NA	0	1	2.90726804733	None	None	None	None	1
3.0.1	2019_Mar_07_1203	s	s	14	2	SIC	115	ABS	0	0	4	4	24_4_4	NA	NA	0	1	2.569054842	None	None	None	None	1
3.0.1	2019_Mar_07_1203	s	s	14	2	SIC	116	ABS	0	0	4	2	24_4_2	NA	NA	0	1	2.50999999046	None	None	None	None	1
3.0.1	2019_Mar_07_1203	s	s	14	2	SIC	117	ABS	0	0	2	3	24_2_3	NA	NA	0	1	3.08366107941	None	None	None	None	1
3.0.1	2019_Mar_07_1203	s	s	14	2	SIC	118	ABS	0	0	2	1	24_2_1	NA	NA	0	1	3.52765107155	None	None	None	None	1
3.0.1	2019_Mar_07_1203	s	s	14	2	SIC	119	1_4	1	4	3	4	23_3_4	2	0	1	0	1.02549481392	289.0	-261.0	289.0	-259.0	1
3.0.1	2019_Mar_07_1203	s	s	14	2	SIC	120	ABS	0	0	3	2	24_3_2	NA	NA	0	1	5.46413612366	None	None	None	None	1
3.0.1	2019_Mar_07_1203	s	s	14	2	SIC	121	4_1	4	1	4	3	23_4_3	0	2	1	0	1.82235693932	-492.0	334.0	-496.0	331.0	1
3.0.1	2019_Mar_07_1203	s	s	14	2	SIC	122	3_4	3	4	1	3	23_1_3	2	1	1	0	0.560041904449	-449.0	240.0	-454.0	236.0	1
3.0.1	2019_Mar_07_1203	s	s	14	2	SIC	123	ABS	0	0	3	1	24_3_1	NA	NA	0	1	2.94466304779	None	None	None	None	1
3.0.1	2019_Mar_07_1203	s	s	14	2	SIC	124	ABS	0	0	2	1	24_2_1	NA	NA	0	1	2.40340399742	None	None	None	None	1
3.0.1	2019_Mar_07_1203	s	s	14	2	SIC	125	1_3	1	3	4	1	23_4_1	3	2	1	0	0.540395975113	406.0	-181.0	416.0	-177.0	1
3.0.1	2019_Mar_07_1203	s	s	14	2	SIC	126	ABS	0	0	2	2	24_2_2	NA	NA	0	1	2.26050710678	None	None	None	None	1
3.0.1	2019_Mar_07_1203	s	s	14	2	SIC	127	3_1	3	1	2	1	23_2_1	1	0	1	0	0.731413841248	-121.0	-156.0	-116.0	-161.0	1
3.0.1	2019_Mar_07_1203	s	s	14	2	SIC	128	2_4	2	4	1	3	23_1_3	-1	1	1	0	2.4382019043	-239.0	-161.0	-230.0	-151.0	1
3.0.1	2019_Mar_07_1203	s	s	14	2	SIC	129	1_1	1	1	4	3	23_4_3	3	2	1	0	0.422784090042	-77.0	17.0	-76.0	22.0	1
3.0.1	2019_Mar_07_1203	s	s	14	2	SIC	130	3_3	3	3	4	1	23_4_1	-1	2	1	0	0.881432056427	468.0	385.0	472.0	380.0	1
3.0.1	2019_Mar_07_1203	s	s	14	2	SIC	131	2_1	2	1	2	3	23_2_3	0	2	0	1	4.2922308445	266.0	-405.0	None	None	0
3.0.1	2019_Mar_07_1203	s	s	14	2	SIC	132	ABS	0	0	2	2	24_2_2	NA	NA	0	1	2.28100395203	None	None	None	None	1
3.0.1	2019_Mar_07_1203	s	s	14	2	SIC	133	ABS	0	0	3	1	24_3_1	NA	NA	0	1	2.64956593513	None	None	None	None	1
3.0.1	2019_Mar_07_1203	s	s	14	2	SIC	134	ABS	0	0	3	2	24_3_2	NA	NA	0	1	3.38654899597	None	None	None	None	1
3.0.1	2019_Mar_07_1203	s	s	14	2	SIC	135	3_2	3	2	2	3	23_2_3	1	1	1	0	0.757086992264	101.0	304.0	108.0	301.0	1
3.0.1	2019_Mar_07_1203	s	s	14	2	SIC	136	1_1	1	1	3	2	23_3_2	2	1	1	0	0.528560161591	221.0	-55.0	219.0	-64.0	1
3.0.1	2019_Mar_07_1203	s	s	14	2	SIC	137	2_1	2	1	2	4	23_2_4	0	3	1	0	0.613797903061	-156.0	196.0	-146.0	197.0	1
3.0.1	2019_Mar_07_1203	s	s	14	2	SIC	138	ABS	0	0	1	3	24_1_3	NA	NA	0	1	2.36830687523	None	None	None	None	1
3.0.1	2019_Mar_07_1203	s	s	14	2	SIC	139	ABS	0	0	3	4	24_3_4	NA	NA	0	1	4.05692195892	None	None	None	None	1
3.0.1	2019_Mar_07_1203	s	s	14	2	SIC	140	ABS	0	0	3	1	24_3_1	NA	NA	0	1	2.86905908585	None	None	None	None	1
3.0.1	2019_Mar_07_1203	s	s	14	2	SIC	141	ABS	0	0	2	3	24_2_3	NA	NA	0	1	3.56900811195	None	None	None	None	1
3.0.1	2019_Mar_07_1203	s	s	14	2	SIC	142	ABS	0	0	4	1	24_4_1	NA	NA	0	1	3.02196407318	None	None	None	None	1
3.0.1	2019_Mar_07_1203	s	s	14	2	SIC	143	ABS	0	0	3	3	24_3_3	NA	NA	0	1	3.67176818848	None	None	None	None	1
3.0.1	2019_Mar_07_1203	s	s	14	2	SIC	144	ABS	0	0	2	4	24_2_4	NA	NA	0	1	3.02482891083	None	None	None	None	1
3.0.1	2019_Mar_07_1203	s	s	14	2	SIC	145	2_1	2	1	4	1	23_4_1	2	0	1	0	0.52858710289	338.0	58.0	336.0	60.0	1
3.0.1	2019_Mar_07_1203	s	s	14	2	SIC	146	ABS	0	0	4	2	24_4_2	NA	NA	0	1	4.38192605972	None	None	None	None	1
3.0.1	2019_Mar_07_1203	s	s	14	2	SIC	147	2_4	2	4	1	2	23_1_2	-1	2	1	0	0.849007844925	371.0	-190.0	366.0	-192.0	1
3.0.1	2019_Mar_07_1203	s	s	14	2	SIC	148	ABS	0	0	1	3	24_1_3	NA	NA	0	1	4.92768192291	None	None	None	None	1
3.0.1	2019_Mar_07_1203	s	s	14	2	SIC	149	ABS	0	0	3	3	24_3_3	NA	NA	0	1	4.48032617569	None	None	None	None	1
3.0.1	2019_Mar_07_1203	s	s	14	2	SIC	150	4_2	4	2	1	2	23_1_2	3	0	1	0	0.458069086075	-324.0	183.0	-312.0	186.0	1
3.0.1	2019_Mar_07_1203	s	s	14	2	SIC	151	ABS	0	0	2	4	24_2_4	NA	NA	0	1	3.26582384109	None	None	None	None	1
3.0.1	2019_Mar_07_1203	s	s	14	2	SIC	152	1_2	1	2	4	1	23_4_1	3	-1	1	0	0.493352174759	-470.0	214.0	-469.0	211.0	1
3.0.1	2019_Mar_07_1203	s	s	14	2	SIC	153	ABS	0	0	4	3	24_4_3	NA	NA	0	1	2.75650191307	None	None	None	None	1
3.0.1	2019_Mar_07_1203	s	s	14	2	SIC	154	ABS	0	0	1	2	24_1_2	NA	NA	0	1	4.30901002884	None	None	None	None	1
3.0.1	2019_Mar_07_1203	s	s	14	2	SIC	155	1_1	1	1	2	2	23_2_2	1	1	1	0	1.10486102104	149.0	359.0	152.0	355.0	1
3.0.1	2019_Mar_07_1203	s	s	14	2	SIC	156	ABS	0	0	2	4	24_2_4	NA	NA	0	1	2.70949888229	None	None	None	None	1
3.0.1	2019_Mar_07_1203	s	s	14	2	SIC	157	2_3	2	3	1	1	23_1_1	-1	2	1	0	0.945519924164	-238.0	333.0	-240.0	328.0	1
3.0.1	2019_Mar_07_1203	s	s	14	2	SIC	158	2_4	2	4	1	4	23_1_4	-1	0	0	1	3.09253716469	111.0	267.0	None	None	0
3.0.1	2019_Mar_07_1203	s	s	14	2	SIC	159	1_1	1	1	2	1	23_2_1	1	0	1	0	3.11601901054	-144.0	34.0	-139.0	32.0	1
3.0.1	2019_Mar_07_1203	s	s	14	2	SIC	160	1_2	1	2	2	4	23_2_4	1	2	1	0	0.613827228546	-137.0	-160.0	-130.0	-164.0	1
3.0.1	2019_Mar_07_1203	s	s	14	2	SIC	161	ABS	0	0	1	3	24_1_3	NA	NA	0	1	2.80377697945	None	None	None	None	1
3.0.1	2019_Mar_07_1203	s	s	14	2	SIC	162	2_1	2	1	4	3	23_4_3	2	2	1	0	0.47018289566	-286.0	-314.0	-287.0	-307.0	1
3.0.1	2019_Mar_07_1203	s	s	14	2	SIC	163	4_1	4	1	3	3	23_3_3	1	2	1	0	0.462875127792	-533.0	401.0	-538.0	403.0	1
3.0.1	2019_Mar_07_1203	s	s	14	2	SIC	164	4_1	4	1	1	2	23_1_2	3	1	1	0	0.469839096069	214.0	-109.0	213.0	-115.0	1
3.0.1	2019_Mar_07_1203	s	s	14	2	SIC	165	3_2	3	2	2	1	23_2_1	1	-1	1	0	0.60431599617	-516.0	-59.0	-520.0	-62.0	1
3.0.1	2019_Mar_07_1203	s	s	14	2	SIC	166	2_1	2	1	1	1	23_1_1	-1	0	0	1	2.53977179527	-307.0	43.0	None	None	0
3.0.1	2019_Mar_07_1203	s	s	14	2	SIC	167	ABS	0	0	1	3	24_1_3	NA	NA	0	1	2.41516900063	None	None	None	None	1
3.0.1	2019_Mar_07_1203	s	s	14	2	SIC	168	ABS	0	0	3	1	24_3_1	NA	NA	0	1	3.22185492516	None	None	None	None	1
3.0.1	2019_Mar_07_1203	s	s	14	2	SIC	169	2_4	2	4	2	2	23_2_2	0	2	1	0	0.705008029938	401.0	311.0	393.0	317.0	1
3.0.1	2019_Mar_07_1203	s	s	14	2	SIC	170	1_2	1	2	4	4	23_4_4	3	2	1	0	0.481565952301	-529.0	-365.0	-524.0	-366.0	1
3.0.1	2019_Mar_07_1203	s	s	14	2	SIC	171	ABS	0	0	2	1	24_2_1	NA	NA	0	1	2.81462001801	None	None	None	None	1
3.0.1	2019_Mar_07_1203	s	s	14	2	SIC	172	ABS	0	0	4	2	24_4_2	NA	NA	0	1	3.25739407539	None	None	None	None	1
3.0.1	2019_Mar_07_1203	s	s	14	2	SIC	173	ABS	0	0	1	1	24_1_1	NA	NA	0	1	2.32625699043	None	None	None	None	1
3.0.1	2019_Mar_07_1203	s	s	14	2	SIC	174	ABS	0	0	2	4	24_2_4	NA	NA	0	1	2.8219602108	None	None	None	None	1
3.0.1	2019_Mar_07_1203	s	s	14	2	SIC	175	ABS	0	0	4	4	24_4_4	NA	NA	0	1	2.98008108139	None	None	None	None	1
3.0.1	2019_Mar_07_1203	s	s	14	2	SIC	176	ABS	0	0	4	3	24_4_3	NA	NA	0	1	3.03377485275	None	None	None	None	1
3.0.1	2019_Mar_07_1203	s	s	14	2	SIC	177	ABS	0	0	2	1	24_2_1	NA	NA	0	1	2.17935395241	None	None	None	None	1
3.0.1	2019_Mar_07_1203	s	s	14	2	SIC	178	ABS	0	0	4	3	24_4_3	NA	NA	0	1	4.2740650177	None	None	None	None	1
3.0.1	2019_Mar_07_1203	s	s	14	2	SIC	179	ABS	0	0	2	2	24_2_2	NA	NA	0	1	3.10425496101	None	None	None	None	1
3.0.1	2019_Mar_07_1203	s	s	14	2	SIC	180	2_2	2	2	4	4	23_4_4	2	2	1	0	0.53324007988	288.0	51.0	290.0	50.0	1
3.0.1	2019_Mar_07_1203	s	s	14	2	SIC	181	ABS	0	0	2	4	24_2_4	NA	NA	0	1	4.05697178841	None	None	None	None	1
3.0.1	2019_Mar_07_1203	s	s	14	2	SIC	182	4_4	4	4	3	4	23_3_4	1	0	1	0	0.446655035019	-438.0	19.0	-435.0	8.0	1
3.0.1	2019_Mar_07_1203	s	s	14	2	SIC	183	ABS	0	0	4	3	24_4_3	NA	NA	0	1	4.88408899307	None	None	None	None	1
3.0.1	2019_Mar_07_1203	s	s	14	2	SIC	184	1_4	1	4	3	2	23_3_2	2	2	1	0	0.685590982437	266.0	-331.0	274.0	-328.0	1
3.0.1	2019_Mar_07_1203	s	s	14	2	SIC	185	ABS	0	0	3	2	24_3_2	NA	NA	0	1	3.37860703468	None	None	None	None	1
3.0.1	2019_Mar_07_1203	s	s	14	2	SIC	186	3_4	3	4	2	3	23_2_3	1	1	1	0	0.923249006271	441.0	-377.0	449.0	-372.0	1
3.0.1	2019_Mar_07_1203	s	s	14	2	SIC	187	ABS	0	0	4	3	24_4_3	NA	NA	0	1	5.86339116096	None	None	None	None	1
3.0.1	2019_Mar_07_1203	s	s	14	2	SIC	188	4_2	4	2	4	4	23_4_4	0	2	1	0	1.03464388847	322.0	-388.0	315.0	-391.0	1
3.0.1	2019_Mar_07_1203	s	s	14	2	SIC	189	4_3	4	3	4	4	23_4_4	0	-1	1	0	1.01076793671	-244.0	291.0	-245.0	291.0	1
3.0.1	2019_Mar_07_1203	s	s	14	2	SIC	190	1_1	1	1	4	4	23_4_4	3	3	1	0	0.437465906143	46.0	-220.0	46.0	-223.0	1
3.0.1	2019_Mar_07_1203	s	s	14	2	SIC	191	ABS	0	0	2	2	24_2_2	NA	NA	0	1	2.90434098244	None	None	None	None	1
3.0.1	2019_Mar_07_1203	s	s	14	2	SIC	192	ABS	0	0	1	3	24_1_3	NA	NA	0	1	3.50714898109	None	None	None	None	1
3.0.1	2019_Mar_07_1203	s	s	14	2	SIC	193	ABS	0	0	4	2	24_4_2	NA	NA	0	1	3.92099905014	None	None	None	None	1
3.0.1	2019_Mar_07_1203	s	s	14	2	SIC	194	ABS	0	0	4	2	24_4_2	NA	NA	0	1	3.86208200455	None	None	None	None	1
3.0.1	2019_Mar_07_1203	s	s	14	2	SIC	195	3_2	3	2	2	4	23_2_4	1	2	1	0	0.575704097748	-304.0	103.0	-313.0	105.0	1
3.0.1	2019_Mar_07_1203	s	s	14	2	SIC	196	ABS	0	0	1	2	24_1_2	NA	NA	0	1	3.49534487724	None	None	None	None	1
3.0.1	2019_Mar_07_1203	s	s	14	2	SIC	197	ABS	0	0	2	4	24_2_4	NA	NA	0	1	4.07397985458	None	None	None	None	1
3.0.1	2019_Mar_07_1203	s	s	14	2	SIC	198	ABS	0	0	1	4	24_1_4	NA	NA	0	1	2.4956009388	None	None	None	None	1
3.0.1	2019_Mar_07_1203	s	s	14	2	SIC	199	1_2	1	2	4	3	23_4_3	3	1	1	0	0.462941169739	41.0	-125.0	49.0	-128.0	1
3.0.1	2019_Mar_07_1203	s	s	14	2	SIC	200	ABS	0	0	1	4	24_1_4	NA	NA	0	1	2.85142111778	None	None	None	None	1
3.0.1	2019_Mar_07_1203	s	s	14	2	SIC	201	ABS	0	0	3	1	24_3_1	NA	NA	0	1	2.70453095436	None	None	None	None	1
3.0.1	2019_Mar_07_1203	s	s	14	2	SIC	202	ABS	0	0	1	1	24_1_1	NA	NA	0	1	2.33480501175	None	None	None	None	1
3.0.1	2019_Mar_07_1203	s	s	14	2	SIC	203	ABS	0	0	2	2	24_2_2	NA	NA	0	1	2.62225294113	None	None	None	None	1
3.0.1	2019_Mar_07_1203	s	s	14	2	SIC	204	ABS	0	0	1	1	24_1_1	NA	NA	0	1	1.91676402092	None	None	None	None	1
3.0.1	2019_Mar_07_1203	s	s	14	2	SIC	205	ABS	0	0	1	2	24_1_2	NA	NA	0	1	2.51619410515	None	None	None	None	1
3.0.1	2019_Mar_07_1203	s	s	14	2	SIC	206	ABS	0	0	2	4	24_2_4	NA	NA	0	1	1.99872899055	None	None	None	None	1
3.0.1	2019_Mar_07_1203	s	s	14	2	SIC	207	2_1	2	1	3	1	23_3_1	1	0	1	0	0.660803079605	-313.0	-181.0	-318.0	-188.0	1
3.0.1	2019_Mar_07_1203	s	s	14	2	SIC	208	ABS	0	0	2	2	24_2_2	NA	NA	0	1	2.91157603264	None	None	None	None	1
3.0.1	2019_Mar_07_1203	s	s	14	2	SIC	209	1_4	1	4	4	1	23_4_1	3	3	1	0	0.646546840668	363.0	-313.0	367.0	-319.0	1
3.0.1	2019_Mar_07_1203	s	s	14	2	SIC	210	4_4	4	4	4	1	23_4_1	0	3	1	0	0.602052927017	310.0	-91.0	312.0	-84.0	1
3.0.1	2019_Mar_07_1203	s	s	14	2	SIC	211	ABS	0	0	3	4	24_3_4	NA	NA	0	1	1.92162394524	None	None	None	None	1
3.0.1	2019_Mar_07_1203	s	s	14	2	SIC	212	3_3	3	3	2	2	23_2_2	1	1	1	0	0.622675895691	-155.0	-275.0	-154.0	-280.0	1
3.0.1	2019_Mar_07_1203	s	s	14	2	SIC	213	2_4	2	4	1	1	23_1_1	-1	3	1	0	0.552176952362	-423.0	-311.0	-428.0	-315.0	1
3.0.1	2019_Mar_07_1203	s	s	14	2	SIC	214	ABS	0	0	1	4	24_1_4	NA	NA	0	1	2.9748737812	None	None	None	None	1
3.0.1	2019_Mar_07_1203	s	s	14	2	SIC	215	3_3	3	3	2	1	23_2_1	1	2	1	0	0.563957929611	-447.0	114.0	-447.0	112.0	1
3.0.1	2019_Mar_07_1203	s	s	14	2	SIC	216	ABS	0	0	2	3	24_2_3	NA	NA	0	1	3.0454249382	None	None	None	None	1
3.0.1	2019_Mar_07_1203	s	s	14	2	SIC	217	1_3	1	3	2	4	23_2_4	1	-1	1	0	1.49593091011	402.0	87.0	394.0	89.0	1
3.0.1	2019_Mar_07_1203	s	s	14	2	SIC	218	ABS	0	0	1	2	24_1_2	NA	NA	1	0	4.98603701591	None	None	-9.0	18.0	0
3.0.1	2019_Mar_07_1203	s	s	14	2	SIC	219	ABS	0	0	2	4	24_2_4	NA	NA	0	1	2.16340589523	None	None	None	None	1
3.0.1	2019_Mar_07_1203	s	s	14	2	SIC	220	3_4	3	4	2	4	23_2_4	1	0	1	0	0.614855051041	-204.0	-27.0	-205.0	-32.0	1
3.0.1	2019_Mar_07_1203	s	s	14	2	SIC	221	3_4	3	4	1	1	23_1_1	2	3	1	0	0.59917807579	-513.0	10.0	-521.0	16.0	1
3.0.1	2019_Mar_07_1203	s	s	14	2	SIC	222	ABS	0	0	1	4	24_1_4	NA	NA	0	1	1.24606990814	None	None	None	None	1
3.0.1	2019_Mar_07_1203	s	s	14	2	SIC	223	ABS	0	0	4	2	24_4_2	NA	NA	0	1	1.61352396011	None	None	None	None	1
3.0.1	2019_Mar_07_1203	s	s	14	2	SIC	224	ABS	0	0	4	3	24_4_3	NA	NA	0	1	2.97212982178	None	None	None	None	1
3.0.1	2019_Mar_07_1203	s	s	14	2	SIC	225	2_2	2	2	1	3	23_1_3	-1	1	0	1	2.44585704803	-5.0	342.0	None	None	0
3.0.1	2019_Mar_07_1203	s	s	14	2	SIC	226	2_4	2	4	2	3	23_2_3	0	1	1	0	0.651164054871	-382.0	-226.0	-376.0	-222.0	1
3.0.1	2019_Mar_07_1203	s	s	14	2	SIC	227	1_2	1	2	1	1	23_1_1	0	-1	0	1	2.45784902573	170.0	352.0	None	None	0
3.0.1	2019_Mar_07_1203	s	s	14	2	SIC	228	ABS	0	0	2	4	24_2_4	NA	NA	0	1	3.65705990791	None	None	None	None	1
3.0.1	2019_Mar_07_1203	s	s	14	2	SIC	229	1_2	1	2	2	3	23_2_3	1	1	1	0	1.34001612663	-429.0	-319.0	-433.0	-320.0	1
3.0.1	2019_Mar_07_1203	s	s	14	2	SIC	230	ABS	0	0	1	4	24_1_4	NA	NA	0	1	2.64553308487	None	None	None	None	1
3.0.1	2019_Mar_07_1203	s	s	14	2	SIC	231	3_2	3	2	3	1	23_3_1	0	-1	0	1	2.51198506355	-121.0	373.0	None	None	0
3.0.1	2019_Mar_07_1203	s	s	14	2	SIC	232	4_4	4	4	4	2	23_4_2	0	2	1	0	0.881488084793	-372.0	54.0	-374.0	54.0	1
3.0.1	2019_Mar_07_1203	s	s	14	2	SIC	233	ABS	0	0	1	4	24_1_4	NA	NA	0	1	2.32390213013	None	None	None	None	1
3.0.1	2019_Mar_07_1203	s	s	14	2	SIC	234	ABS	0	0	2	4	24_2_4	NA	NA	0	1	2.51627612114	None	None	None	None	1
3.0.1	2019_Mar_07_1203	s	s	14	2	SIC	235	ABS	0	0	1	3	24_1_3	NA	NA	0	1	3.22679018974	None	None	None	None	1
3.0.1	2019_Mar_07_1203	s	s	14	2	SIC	236	ABS	0	0	3	2	24_3_2	NA	NA	0	1	3.54441213608	None	None	None	None	1
3.0.1	2019_Mar_07_1203	s	s	14	2	SIC	237	4_4	4	4	4	3	23_4_3	0	1	1	0	0.650384902954	297.0	-286.0	304.0	-279.0	1
3.0.1	2019_Mar_07_1203	s	s	14	2	SIC	238	1_3	1	3	1	1	23_1_1	0	2	0	1	2.38325476646	-407.0	-11.0	None	None	0
3.0.1	2019_Mar_07_1203	s	s	14	2	SIC	239	4_1	4	1	4	4	23_4_4	0	3	1	0	0.556024074554	-50.0	-179.0	-40.0	-177.0	1
3.0.1	2019_Mar_07_1203	s	s	14	2	SIC	240	3_2	3	2	4	3	23_4_3	-1	1	1	0	0.622675180435	-473.0	395.0	-473.0	405.0	1
3.0.1	2019_Mar_07_1203	s	s	14	2	SIC	241	2_3	2	3	4	3	23_4_3	2	0	1	0	0.614223003387	-323.0	360.0	-318.0	362.0	1
3.0.1	2019_Mar_07_1203	s	s	14	2	SIC	242	ABS	0	0	3	1	24_3_1	NA	NA	0	1	0.922062158585	None	None	None	None	1
3.0.1	2019_Mar_07_1203	s	s	14	2	SIC	243	ABS	0	0	3	4	24_3_4	NA	NA	0	1	2.37803506851	None	None	None	None	1
3.0.1	2019_Mar_07_1203	s	s	14	2	SIC	244	2_3	2	3	3	3	23_3_3	1	0	1	0	0.973474979401	185.0	328.0	192.0	326.0	1
3.0.1	2019_Mar_07_1203	s	s	14	2	SIC	245	1_4	1	4	1	3	23_1_3	0	1	1	0	0.77560210228	313.0	130.0	316.0	124.0	1
3.0.1	2019_Mar_07_1203	s	s	14	2	SIC	246	ABS	0	0	4	3	24_4_3	NA	NA	1	0	0.904956102371	None	None	-139.0	111.0	0
3.0.1	2019_Mar_07_1203	s	s	14	2	SIC	247	ABS	0	0	3	3	24_3_3	NA	NA	0	1	1.73435902596	None	None	None	None	1
3.0.1	2019_Mar_07_1203	s	s	14	2	SIC	248	ABS	0	0	1	4	24_1_4	NA	NA	0	1	2.84843993187	None	None	None	None	1
3.0.1	2019_Mar_07_1203	s	s	14	2	SIC	249	ABS	0	0	2	1	24_2_1	NA	NA	1	0	2.37802481651	None	None	-71.0	-51.0	0
3.0.1	2019_Mar_07_1203	s	s	14	2	SIC	250	ABS	0	0	1	2	24_1_2	NA	NA	0	1	2.79166007042	None	None	None	None	1
3.0.1	2019_Mar_07_1203	s	s	14	2	SIC	251	ABS	0	0	3	1	24_3_1	NA	NA	0	1	4.20183992386	None	None	None	None	1
3.0.1	2019_Mar_07_1203	s	s	14	2	SIC	252	ABS	0	0	3	3	24_3_3	NA	NA	0	1	5.13902187347	None	None	None	None	1
3.0.1	2019_Mar_07_1203	s	s	14	2	SIC	253	ABS	0	0	1	2	24_1_2	NA	NA	0	1	2.22218084335	None	None	None	None	1
3.0.1	2019_Mar_07_1203	s	s	14	2	SIC	254	2_2	2	2	4	3	23_4_3	2	1	1	0	0.592490911484	470.0	327.0	470.0	331.0	1
3.0.1	2019_Mar_07_1203	s	s	14	2	SIC	255	ABS	0	0	4	1	24_4_1	NA	NA	0	1	2.58682703972	None	None	None	None	1
3.0.1	2019_Mar_07_1203	s	s	14	2	SIC	256	1_1	1	1	1	3	23_1_3	0	2	1	0	2.03155994415	-221.0	-339.0	-219.0	-348.0	1
3.0.1	2019_Mar_07_1203	s	s	14	2	SIC	257	4_3	4	3	3	3	23_3_3	1	0	1	0	0.587316989899	361.0	122.0	370.0	124.0	1
3.0.1	2019_Mar_07_1203	s	s	14	2	SIC	258	ABS	0	0	3	4	24_3_4	NA	NA	0	1	1.75174093246	None	None	None	None	1
3.0.1	2019_Mar_07_1203	s	s	14	2	SIC	259	4_1	4	1	3	1	23_3_1	1	0	1	0	0.437432050705	-420.0	185.0	-429.0	181.0	1
3.0.1	2019_Mar_07_1203	s	s	14	2	SIC	260	ABS	0	0	1	1	24_1_1	NA	NA	0	1	2.92791008949	None	None	None	None	1
3.0.1	2019_Mar_07_1203	s	s	14	2	SIC	261	ABS	0	0	1	1	24_1_1	NA	NA	0	1	2.88074111938	None	None	None	None	1
3.0.1	2019_Mar_07_1203	s	s	14	2	SIC	262	2_4	2	4	4	1	23_4_1	2	3	1	0	0.52858710289	-362.0	252.0	-360.0	242.0	1
3.0.1	2019_Mar_07_1203	s	s	14	2	SIC	263	ABS	0	0	2	3	24_2_3	NA	NA	0	1	3.81524395943	None	None	None	None	1
3.0.1	2019_Mar_07_1203	s	s	14	2	SIC	264	1_4	1	4	2	3	23_2_3	1	1	1	0	0.872776985168	-179.0	-17.0	-178.0	-16.0	1
3.0.1	2019_Mar_07_1203	s	s	14	2	SIC	265	ABS	0	0	1	1	24_1_1	NA	NA	0	1	2.78077912331	None	None	None	None	1
3.0.1	2019_Mar_07_1203	s	s	14	2	SIC	266	3_4	3	4	3	1	23_3_1	0	3	1	0	0.674911975861	-380.0	-397.0	-378.0	-413.0	1
3.0.1	2019_Mar_07_1203	s	s	14	2	SIC	267	ABS	0	0	2	3	24_2_3	NA	NA	0	1	2.65023803711	None	None	None	None	1
3.0.1	2019_Mar_07_1203	s	s	14	2	SIC	268	4_3	4	3	1	1	23_1_1	3	2	1	0	0.496207952499	-157.0	339.0	-161.0	344.0	1
3.0.1	2019_Mar_07_1203	s	s	14	2	SIC	269	2_2	2	2	2	4	23_2_4	0	2	1	0	1.34043717384	453.0	-372.0	446.0	-364.0	1
3.0.1	2019_Mar_07_1203	s	s	14	2	SIC	270	4_1	4	1	2	3	23_2_3	2	2	1	0	0.442579984665	-370.0	-199.0	-379.0	-197.0	1
3.0.1	2019_Mar_07_1203	s	s	14	2	SIC	271	ABS	0	0	4	1	24_4_1	NA	NA	0	1	2.04573512077	None	None	None	None	1
3.0.1	2019_Mar_07_1203	s	s	14	2	SIC	272	ABS	0	0	1	3	24_1_3	NA	NA	0	1	2.53968095779	None	None	None	None	1
3.0.1	2019_Mar_07_1203	s	s	14	2	SIC	273	ABS	0	0	4	1	24_4_1	NA	NA	0	1	2.21039915085	None	None	None	None	1
3.0.1	2019_Mar_07_1203	s	s	14	2	SIC	274	ABS	0	0	1	2	24_1_2	NA	NA	0	1	1.98694896698	None	None	None	None	1
3.0.1	2019_Mar_07_1203	s	s	14	2	SIC	275	ABS	0	0	3	1	24_3_1	NA	NA	0	1	2.52159404755	None	None	None	None	1
3.0.1	2019_Mar_07_1203	s	s	14	2	SIC	276	ABS	0	0	3	2	24_3_2	NA	NA	0	1	3.42190599442	None	None	None	None	1
3.0.1	2019_Mar_07_1203	s	s	14	2	SIC	277	ABS	0	0	4	2	24_4_2	NA	NA	0	1	2.86906790733	None	None	None	None	1
3.0.1	2019_Mar_07_1203	s	s	14	2	SIC	278	2_1	2	1	3	4	23_3_4	1	3	1	0	0.618932962418	-87.0	-122.0	-79.0	-116.0	1
3.0.1	2019_Mar_07_1203	s	s	14	2	SIC	279	ABS	0	0	3	1	24_3_1	NA	NA	0	1	2.97997617722	None	None	None	None	1
3.0.1	2019_Mar_07_1203	s	s	14	2	SIC	280	1_1	1	1	2	4	23_2_4	1	3	1	0	0.881507873535	-416.0	-380.0	-421.0	-381.0	1
3.0.1	2019_Mar_07_1203	s	s	14	2	SIC	281	3_3	3	3	4	3	23_4_3	-1	0	1	0	0.602513074875	-536.0	-143.0	-537.0	-144.0	1
3.0.1	2019_Mar_07_1203	s	s	14	2	SIC	282	1_3	1	3	4	3	23_4_3	3	0	1	0	0.446292877197	116.0	-325.0	113.0	-321.0	1
3.0.1	2019_Mar_07_1203	s	s	14	2	SIC	283	3_4	3	4	3	3	23_3_3	0	1	1	0	0.613855838776	-289.0	-318.0	-284.0	-312.0	1
3.0.1	2019_Mar_07_1203	s	s	14	2	SIC	284	4_4	4	4	1	1	23_1_1	3	3	1	0	0.458236217499	-418.0	-79.0	-417.0	-79.0	1
3.0.1	2019_Mar_07_1203	s	s	14	2	SIC	285	1_1	1	1	3	4	23_3_4	2	3	1	0	0.469816923141	-223.0	-378.0	-218.0	-377.0	1
3.0.1	2019_Mar_07_1203	s	s	14	2	SIC	286	ABS	0	0	4	1	24_4_1	NA	NA	1	0	2.01341104507	None	None	-6.0	90.0	0
3.0.1	2019_Mar_07_1203	s	s	14	2	SIC	287	ABS	0	0	4	4	24_4_4	NA	NA	0	1	2.49660301208	None	None	None	None	1
3.0.1	2019_Mar_07_1203	s	s	14	2	SIC	288	ABS	0	0	3	1	24_3_1	NA	NA	0	1	1.38440203667	None	None	None	None	1
3.0.1	2019_Mar_07_1203	s	s	14	2	SIC	289	2_3	2	3	2	2	23_2_2	0	1	0	1	2.65744900703	481.0	300.0	None	None	0
3.0.1	2019_Mar_07_1203	s	s	14	2	SIC	290	ABS	0	0	4	4	24_4_4	NA	NA	0	1	2.22629189491	None	None	None	None	1
3.0.1	2019_Mar_07_1203	s	s	14	2	SIC	291	3_2	3	2	1	1	23_1_1	2	-1	1	0	1.44924402237	517.0	73.0	514.0	68.0	1
3.0.1	2019_Mar_07_1203	s	s	14	2	SIC	292	1_4	1	4	4	4	23_4_4	3	0	1	0	0.399290800095	-1.0	6.0	7.0	3.0	1
3.0.1	2019_Mar_07_1203	s	s	14	2	SIC	293	4_4	4	4	2	3	23_2_3	2	1	1	0	0.428025960922	275.0	117.0	275.0	113.0	1
3.0.1	2019_Mar_07_1203	s	s	14	2	SIC	294	4_3	4	3	3	2	23_3_2	1	1	1	0	0.475178003311	460.0	146.0	469.0	154.0	1
3.0.1	2019_Mar_07_1203	s	s	14	2	SIC	295	ABS	0	0	3	2	24_3_2	NA	NA	0	1	1.57529711723	None	None	None	None	1
3.0.1	2019_Mar_07_1203	s	s	14	2	SIC	296	2_2	2	2	2	3	23_2_3	0	1	0	1	1.72242379189	518.0	-206.0	None	None	0
3.0.1	2019_Mar_07_1203	s	s	14	2	SIC	297	1_4	1	4	3	3	23_3_3	2	1	1	0	0.591586112976	310.0	-318.0	308.0	-317.0	1
3.0.1	2019_Mar_07_1203	s	s	14	2	SIC	298	3_3	3	3	3	4	23_3_4	0	-1	1	0	0.493731021881	-362.0	-168.0	-364.0	-158.0	1
3.0.1	2019_Mar_07_1203	s	s	14	2	SIC	299	3_2	3	2	2	2	23_2_2	1	0	1	0	0.863018989563	-318.0	287.0	-317.0	282.0	1
3.0.1	2019_Mar_07_1203	s	s	14	2	SIC	300	1_2	1	2	2	2	23_2_2	1	0	0	1	1.61063814163	-448.0	173.0	None	None	0
3.0.1	2019_Mar_07_1203	s	s	14	2	SIC	301	1_2	1	2	1	4	23_1_4	0	2	1	0	0.634395122528	301.0	91.0	299.0	79.0	1
3.0.1	2019_Mar_07_1203	s	s	14	2	SIC	302	ABS	0	0	2	2	24_2_2	NA	NA	0	1	2.58703899384	None	None	None	None	1
3.0.1	2019_Mar_07_1203	s	s	14	2	SIC	303	4_1	4	1	1	4	23_1_4	3	3	1	0	0.443763971329	152.0	195.0	155.0	197.0	1
3.0.1	2019_Mar_07_1203	s	s	14	2	SIC	304	3_2	3	2	1	4	23_1_4	2	2	1	0	0.55943608284	28.0	-299.0	32.0	-311.0	1
3.0.1	2019_Mar_07_1203	s	s	14	2	SIC	305	ABS	0	0	1	1	24_1_1	NA	NA	0	1	1.8987622261	None	None	None	None	1
3.0.1	2019_Mar_07_1203	s	s	14	2	SIC	306	ABS	0	0	3	3	24_3_3	NA	NA	0	1	1.82590293884	None	None	None	None	1
3.0.1	2019_Mar_07_1203	s	s	14	2	SIC	307	3_2	3	2	4	1	23_4_1	-1	-1	1	0	0.458060979843	247.0	302.0	253.0	305.0	1
3.0.1	2019_Mar_07_1203	s	s	14	2	SIC	308	2_2	2	2	4	2	23_4_2	2	0	1	0	0.442281007767	78.0	276.0	83.0	268.0	1
3.0.1	2019_Mar_07_1203	s	s	14	2	SIC	309	2_4	2	4	3	1	23_3_1	1	3	1	0	0.540337085724	448.0	-213.0	453.0	-220.0	1
3.0.1	2019_Mar_07_1203	s	s	14	2	SIC	310	3_4	3	4	1	4	23_1_4	2	0	1	0	0.516978025436	-240.0	-102.0	-247.0	-108.0	1
3.0.1	2019_Mar_07_1203	s	s	14	2	SIC	311	ABS	0	0	2	3	24_2_3	NA	NA	0	1	1.31948709488	None	None	None	None	1
3.0.1	2019_Mar_07_1203	s	s	14	2	SIC	312	2_1	2	1	1	3	23_1_3	-1	2	0	1	1.58711695671	173.0	206.0	None	None	0
3.0.1	2019_Mar_07_1203	s	s	14	2	SIC	313	ABS	0	0	2	2	24_2_2	NA	NA	0	1	2.25127720833	None	None	None	None	1
3.0.1	2019_Mar_07_1203	s	s	14	2	SIC	314	ABS	0	0	2	3	24_2_3	NA	NA	0	1	2.60143995285	None	None	None	None	1
3.0.1	2019_Mar_07_1203	s	s	14	2	SIC	315	3_3	3	3	1	4	23_1_4	2	-1	1	0	0.56387090683	-337.0	-260.0	-342.0	-266.0	1
3.0.1	2019_Mar_07_1203	s	s	14	2	SIC	316	ABS	0	0	1	2	24_1_2	NA	NA	0	1	2.33976411819	None	None	None	None	1
3.0.1	2019_Mar_07_1203	s	s	14	2	SIC	317	ABS	0	0	3	4	24_3_4	NA	NA	0	1	2.1281080246	None	None	None	None	1
3.0.1	2019_Mar_07_1203	s	s	14	2	SIC	318	1_4	1	4	1	1	23_1_1	0	3	1	0	0.505486011505	-42.0	13.0	-40.0	4.0	1
3.0.1	2019_Mar_07_1203	s	s	14	2	SIC	319	ABS	0	0	1	4	24_1_4	NA	NA	0	1	2.34631609917	None	None	None	None	1
3.0.1	2019_Mar_07_1203	s	s	14	2	SIC	320	ABS	0	0	3	1	24_3_1	NA	NA	0	1	2.00270414352	None	None	None	None	1
3.0.1	2019_Mar_07_1203	s	s	14	2	SIC	321	ABS	0	0	3	1	24_3_1	NA	NA	0	1	1.94615912437	None	None	None	None	1
3.0.1	2019_Mar_07_1203	s	s	14	2	SIC	322	2_4	2	4	4	3	23_4_3	2	1	1	0	0.738957881927	-46.0	-49.0	-42.0	-52.0	1
3.0.1	2019_Mar_07_1203	s	s	14	2	SIC	323	ABS	0	0	2	2	24_2_2	NA	NA	0	1	2.21731996536	None	None	None	None	1
3.0.1	2019_Mar_07_1203	s	s	14	2	SIC	324	ABS	0	0	2	3	24_2_3	NA	NA	0	1	2.01052880287	None	None	None	None	1
3.0.1	2019_Mar_07_1203	s	s	14	2	SIC	325	2_4	2	4	4	2	23_4_2	2	2	1	0	0.49619603157	-462.0	-213.0	-456.0	-221.0	1
3.0.1	2019_Mar_07_1203	s	s	14	2	SIC	326	ABS	0	0	4	4	24_4_4	NA	NA	0	1	2.30454111099	None	None	None	None	1
3.0.1	2019_Mar_07_1203	s	s	14	2	SIC	327	3_4	3	4	3	2	23_3_2	0	2	1	0	0.481580018997	-95.0	258.0	-95.0	254.0	1
3.0.1	2019_Mar_07_1203	s	s	14	2	SIC	328	1_1	1	1	4	1	23_4_1	3	0	1	0	0.469799041748	530.0	216.0	530.0	212.0	1
3.0.1	2019_Mar_07_1203	s	s	14	2	SIC	329	4_4	4	4	1	3	23_1_3	3	1	1	0	0.385943889618	-248.0	-1.0	-245.0	-3.0	1
3.0.1	2019_Mar_07_1203	s	s	14	2	SIC	330	ABS	0	0	4	1	24_4_1	NA	NA	0	1	1.22770810127	None	None	None	None	1
3.0.1	2019_Mar_07_1203	s	s	14	2	SIC	331	ABS	0	0	4	3	24_4_3	NA	NA	0	1	1.40334415436	None	None	None	None	1
3.0.1	2019_Mar_07_1203	s	s	14	2	SIC	332	1_3	1	3	3	2	23_3_2	2	1	1	0	0.555082082748	-106.0	166.0	-108.0	154.0	1
3.0.1	2019_Mar_07_1203	s	s	14	2	SIC	333	ABS	0	0	4	3	24_4_3	NA	NA	0	1	2.45169615746	None	None	None	None	1
3.0.1	2019_Mar_07_1203	s	s	14	2	SIC	334	ABS	0	0	1	2	24_1_2	NA	NA	0	1	1.99871587753	None	None	None	None	1
3.0.1	2019_Mar_07_1203	s	s	14	2	SIC	335	3_2	3	2	3	4	23_3_4	0	2	1	0	0.822719812393	252.0	-247.0	253.0	-249.0	1
3.0.1	2019_Mar_07_1203	s	s	14	2	SIC	336	ABS	0	0	2	1	24_2_1	NA	NA	0	1	2.5095140934	None	None	None	None	1
3.0.1	2019_Mar_07_1203	s	s	14	2	SIC	337	1_4	1	4	4	3	23_4_3	3	1	1	0	0.664626836777	286.0	355.0	281.0	356.0	1
3.0.1	2019_Mar_07_1203	s	s	14	2	SIC	338	ABS	0	0	3	2	24_3_2	NA	NA	0	1	2.59858298302	None	None	None	None	1
3.0.1	2019_Mar_07_1203	s	s	14	2	SIC	339	ABS	0	0	2	3	24_2_3	NA	NA	0	1	2.81020903587	None	None	None	None	1
3.0.1	2019_Mar_07_1203	s	s	14	2	SIC	340	ABS	0	0	3	4	24_3_4	NA	NA	0	1	1.63956904411	None	None	None	None	1
3.0.1	2019_Mar_07_1203	s	s	14	2	SIC	341	ABS	0	0	3	2	24_3_2	NA	NA	0	1	2.33315110207	None	None	None	None	1
3.0.1	2019_Mar_07_1203	s	s	14	2	SIC	342	2_1	2	1	4	4	23_4_4	2	3	1	0	0.437434911728	113.0	-395.0	100.0	-389.0	1
3.0.1	2019_Mar_07_1203	s	s	14	2	SIC	343	ABS	0	0	3	3	24_3_3	NA	NA	0	1	2.31916379929	None	None	None	None	1
3.0.1	2019_Mar_07_1203	s	s	14	2	SIC	344	2_1	2	1	2	2	23_2_2	0	1	0	1	2.79863286018	-505.0	21.0	None	None	0
3.0.1	2019_Mar_07_1203	s	s	14	2	SIC	345	ABS	0	0	2	1	24_2_1	NA	NA	0	1	1.55769300461	None	None	None	None	1
3.0.1	2019_Mar_07_1203	s	s	14	2	SIC	346	2_3	2	3	1	4	23_1_4	-1	-1	1	0	1.42915391922	21.0	-323.0	24.0	-321.0	1
3.0.1	2019_Mar_07_1203	s	s	14	2	SIC	347	1_3	1	3	4	2	23_4_2	3	1	1	0	0.528836011887	15.0	-188.0	18.0	-191.0	1
3.0.1	2019_Mar_07_1203	s	s	14	2	SIC	348	ABS	0	0	3	4	24_3_4	NA	NA	0	1	2.49566292763	None	None	None	None	1
3.0.1	2019_Mar_07_1203	s	s	14	2	SIC	349	3_4	3	4	4	4	23_4_4	-1	0	1	0	0.528596878052	412.0	-4.0	420.0	-2.0	1
3.0.1	2019_Mar_07_1203	s	s	14	2	SIC	350	ABS	0	0	4	1	24_4_1	NA	NA	0	1	1.67233204842	None	None	None	None	1
3.0.1	2019_Mar_07_1203	s	s	14	2	SIC	351	4_3	4	3	2	3	23_2_3	2	0	1	0	0.437390089035	325.0	115.0	334.0	122.0	1
3.0.1	2019_Mar_07_1203	s	s	14	2	SIC	352	3_1	3	1	1	2	23_1_2	2	1	1	0	0.461630821228	-537.0	-181.0	-530.0	-177.0	1
3.0.1	2019_Mar_07_1203	s	s	14	2	SIC	353	2_2	2	2	2	1	23_2_1	0	-1	0	1	1.63411712646	-306.0	-34.0	None	None	0
3.0.1	2019_Mar_07_1203	s	s	14	2	SIC	354	4_3	4	3	2	1	23_2_1	2	2	1	0	0.384341001511	59.0	-132.0	69.0	-132.0	1
3.0.1	2019_Mar_07_1203	s	s	14	2	SIC	355	3_1	3	1	1	4	23_1_4	2	3	1	0	0.51699090004	-399.0	251.0	-392.0	244.0	1
3.0.1	2019_Mar_07_1203	s	s	14	2	SIC	356	3_1	3	1	2	3	23_2_3	1	2	1	0	0.622684955597	-538.0	410.0	-542.0	408.0	1
3.0.1	2019_Mar_07_1203	s	s	14	2	SIC	357	2_4	2	4	2	1	23_2_1	0	3	1	0	0.956701040268	-136.0	333.0	-131.0	330.0	1
3.0.1	2019_Mar_07_1203	s	s	14	2	SIC	358	1_1	1	1	1	2	23_1_2	0	1	0	1	1.68604803085	-344.0	217.0	None	None	0
3.0.1	2019_Mar_07_1203	s	s	14	2	SIC	359	3_1	3	1	4	2	23_4_2	-1	1	1	0	0.496042013168	-501.0	-222.0	-492.0	-218.0	1
3.0.1	2019_Mar_07_1203	s	s	14	2	SIC	360	ABS	0	0	3	2	24_3_2	NA	NA	0	1	2.69546508789	None	None	None	None	1
3.0.1	2019_Mar_07_1203	s	s	14	2	SIC	361	ABS	0	0	2	1	24_2_1	NA	NA	0	1	2.0693500042	None	None	None	None	1
3.0.1	2019_Mar_07_1203	s	s	14	2	SIC	362	1_4	1	4	4	2	23_4_2	3	2	1	0	0.528547048569	-449.0	276.0	-458.0	278.0	1
3.0.1	2019_Mar_07_1203	s	s	14	2	SIC	363	4_4	4	4	2	1	23_2_1	2	3	1	0	0.383712053299	-468.0	-102.0	-474.0	-105.0	1
3.0.1	2019_Mar_07_1203	s	s	14	2	SIC	364	ABS	0	0	3	4	24_3_4	NA	NA	0	1	1.89287400246	None	None	None	None	1
3.0.1	2019_Mar_07_1203	s	s	14	2	SIC	365	ABS	0	0	2	4	24_2_4	NA	NA	0	1	1.72821116447	None	None	None	None	1
3.0.1	2019_Mar_07_1203	s	s	14	2	SIC	366	3_3	3	3	4	4	23_4_4	-1	-1	1	0	0.540699958801	-516.0	-227.0	-518.0	-232.0	1
3.0.1	2019_Mar_07_1203	s	s	14	2	SIC	367	2_4	2	4	4	4	23_4_4	2	0	1	0	0.457962036133	-108.0	-374.0	-106.0	-373.0	1
3.0.1	2019_Mar_07_1203	s	s	14	2	SIC	368	1_3	1	3	2	1	23_2_1	1	2	1	0	1.02543282509	-270.0	-385.0	-267.0	-380.0	1
3.0.1	2019_Mar_07_1203	s	s	14	2	SIC	369	ABS	0	0	3	3	24_3_3	NA	NA	0	1	2.84841704369	None	None	None	None	1
3.0.1	2019_Mar_07_1203	s	s	14	2	SIC	370	ABS	0	0	4	1	24_4_1	NA	NA	0	1	1.19184994698	None	None	None	None	1
3.0.1	2019_Mar_07_1203	s	s	14	2	SIC	371	1_4	1	4	2	4	23_2_4	1	0	0	1	2.66914582253	243.0	-226.0	None	None	0
3.0.1	2019_Mar_07_1203	s	s	14	2	SIC	372	1_1	1	1	4	2	23_4_2	3	1	1	0	0.415935993195	278.0	397.0	272.0	389.0	1
3.0.1	2019_Mar_07_1203	s	s	14	2	SIC	373	1_3	1	3	3	3	23_3_3	2	0	1	0	2.27406096458	507.0	-344.0	503.0	-344.0	1
3.0.1	2019_Mar_07_1203	s	s	14	2	SIC	374	4_1	4	1	2	1	23_2_1	2	0	1	0	0.441780090332	-521.0	-338.0	-517.0	-334.0	1
3.0.1	2019_Mar_07_1203	s	s	14	2	SIC	375	3_4	3	4	4	2	23_4_2	-1	2	1	0	0.82259106636	529.0	385.0	538.0	390.0	1
3.0.1	2019_Mar_07_1203	s	s	14	2	SIC	376	4_3	4	3	2	4	23_2_4	2	-1	1	0	0.549458026886	-333.0	214.0	-332.0	204.0	1
3.0.1	2019_Mar_07_1203	s	s	14	2	SIC	377	ABS	0	0	2	3	24_2_3	NA	NA	0	1	1.90755295753	None	None	None	None	1
3.0.1	2019_Mar_07_1203	s	s	14	2	SIC	378	ABS	0	0	1	1	24_1_1	NA	NA	0	1	1.81047916412	None	None	None	None	1
3.0.1	2019_Mar_07_1203	s	s	14	2	SIC	379	3_3	3	3	1	1	23_1_1	2	2	1	0	0.672561883926	-308.0	-330.0	-306.0	-333.0	1
3.0.1	2019_Mar_07_1203	s	s	14	2	SIC	380	ABS	0	0	2	4	24_2_4	NA	NA	0	1	2.56937193871	None	None	None	None	1
3.0.1	2019_Mar_07_1203	s	s	14	2	SIC	381	ABS	0	0	3	4	24_3_4	NA	NA	0	1	2.78675198555	None	None	None	None	1
3.0.1	2019_Mar_07_1203	s	s	14	2	SIC	382	3_1	3	1	2	2	23_2_2	1	1	1	0	0.569113969803	321.0	223.0	324.0	223.0	1
3.0.1	2019_Mar_07_1203	s	s	14	2	SIC	383	1_3	1	3	4	4	23_4_4	3	-1	1	0	0.399250030518	-356.0	282.0	-362.0	277.0	1
3.0.1	2019_Mar_07_1203	s	s	14	2	SIC	384	4_2	4	2	1	4	23_1_4	3	2	1	0	0.458405971527	34.0	276.0	49.0	283.0	1
3.0.1	2019_Mar_07_1203	s	s	14	2	SIC	385	ABS	0	0	3	1	24_3_1	NA	NA	0	1	2.36823010445	None	None	None	None	1
3.0.1	2019_Mar_07_1203	s	s	14	2	SIC	386	4_3	4	3	1	3	23_1_3	3	0	1	0	0.716735839844	-309.0	-23.0	-305.0	-24.0	1
3.0.1	2019_Mar_07_1203	s	s	14	2	SIC	387	ABS	0	0	4	2	24_4_2	NA	NA	0	1	1.4159078598	None	None	None	None	1
3.0.1	2019_Mar_07_1203	s	s	14	2	SIC	388	4_2	4	2	2	3	23_2_3	2	1	1	0	0.705058097839	26.0	-283.0	25.0	-277.0	1
3.0.1	2019_Mar_07_1203	s	s	14	2	SIC	389	ABS	0	0	2	1	24_2_1	NA	NA	0	1	3.07189297676	None	None	None	None	1
3.0.1	2019_Mar_07_1203	s	s	14	2	SIC	390	ABS	0	0	3	4	24_3_4	NA	NA	0	1	2.36324906349	None	None	None	None	1
3.0.1	2019_Mar_07_1203	s	s	14	2	SIC	391	ABS	0	0	2	3	24_2_3	NA	NA	0	1	2.68694782257	None	None	None	None	1
3.0.1	2019_Mar_07_1203	s	s	14	2	SIC	392	ABS	0	0	4	1	24_4_1	NA	NA	0	1	1.46261882782	None	None	None	None	1
3.0.1	2019_Mar_07_1203	s	s	14	2	SIC	393	1_1	1	1	3	1	23_3_1	2	0	1	0	0.473917007446	-46.0	293.0	-45.0	291.0	1
3.0.1	2019_Mar_07_1203	s	s	14	2	SIC	394	4_2	4	2	3	4	23_3_4	1	2	1	0	0.416333913803	79.0	-36.0	80.0	-26.0	1
3.0.1	2019_Mar_07_1203	s	s	14	2	SIC	395	ABS	0	0	1	1	24_1_1	NA	NA	0	1	1.76353406906	None	None	None	None	1
3.0.1	2019_Mar_07_1203	s	s	14	2	SIC	396	ABS	0	0	1	3	24_1_3	NA	NA	0	1	1.65062689781	None	None	None	None	1
3.0.1	2019_Mar_07_1203	s	s	14	2	SIC	397	2_4	2	4	3	4	23_3_4	1	0	1	0	0.849004030228	-239.0	173.0	-240.0	172.0	1
3.0.1	2019_Mar_07_1203	s	s	14	2	SIC	398	3_4	3	4	2	1	23_2_1	1	3	1	0	0.622750043869	324.0	-303.0	321.0	-303.0	1
3.0.1	2019_Mar_07_1203	s	s	14	2	SIC	399	ABS	0	0	1	2	24_1_2	NA	NA	0	1	1.35183691978	None	None	None	None	1
3.0.1	2019_Mar_07_1203	s	s	14	2	SIC	400	ABS	0	0	4	1	24_4_1	NA	NA	0	1	1.15712690353	None	None	None	None	1
3.0.1	2019_Mar_07_1203	s	s	14	2	SIC	401	ABS	0	0	3	1	24_3_1	NA	NA	0	1	1.58005213737	None	None	None	None	1
3.0.1	2019_Mar_07_1203	s	s	14	2	SIC	402	1_1	1	1	3	3	23_3_3	2	2	1	0	0.437365055084	-249.0	274.0	-247.0	278.0	1
3.0.1	2019_Mar_07_1203	s	s	14	2	SIC	403	4_4	4	4	1	4	23_1_4	3	0	1	0	0.410984039307	145.0	319.0	154.0	323.0	1
3.0.1	2019_Mar_07_1203	s	s	14	2	SIC	404	2_2	2	2	4	1	23_4_1	2	-1	1	0	0.383848190308	446.0	223.0	451.0	221.0	1
3.0.1	2019_Mar_07_1203	s	s	14	2	SIC	405	ABS	0	0	1	1	24_1_1	NA	NA	0	1	1.51011586189	None	None	None	None	1
3.0.1	2019_Mar_07_1203	s	s	14	2	SIC	406	4_3	4	3	3	4	23_3_4	1	-1	1	0	0.402005910873	-342.0	144.0	-345.0	146.0	1
3.0.1	2019_Mar_07_1203	s	s	14	2	SIC	407	4_2	4	2	3	3	23_3_3	1	1	1	0	0.343080997467	-92.0	-381.0	-94.0	-379.0	1
3.0.1	2019_Mar_07_1203	s	s	14	2	SIC	408	ABS	0	0	4	2	24_4_2	NA	NA	0	1	0.913506031036	None	None	None	None	1
3.0.1	2019_Mar_07_1203	s	s	14	2	SIC	409	3_1	3	1	4	3	23_4_3	-1	2	1	0	0.41552400589	88.0	346.0	99.0	349.0	1
3.0.1	2019_Mar_07_1203	s	s	14	2	SIC	410	3_2	3	2	1	3	23_1_3	2	1	1	0	0.893137931824	-46.0	322.0	-44.0	311.0	1
3.0.1	2019_Mar_07_1203	s	s	14	2	SIC	411	ABS	0	0	4	2	24_4_2	NA	NA	0	1	0.952021121979	None	None	None	None	1
3.0.1	2019_Mar_07_1203	s	s	14	2	SIC	412	2_3	2	3	3	2	23_3_2	1	1	1	0	0.849063158035	-489.0	188.0	-489.0	183.0	1
3.0.1	2019_Mar_07_1203	s	s	14	2	SIC	413	3_3	3	3	1	2	23_1_2	2	1	1	0	0.827577114105	172.0	-234.0	181.0	-238.0	1
3.0.1	2019_Mar_07_1203	s	s	14	2	SIC	414	3_3	3	3	4	2	23_4_2	-1	1	1	0	0.42795586586	-159.0	-58.0	-160.0	-59.0	1
3.0.1	2019_Mar_07_1203	s	s	14	2	SIC	415	1_2	1	2	2	1	23_2_1	1	-1	0	1	1.33310890198	-180.0	-73.0	None	None	0
3.0.1	2019_Mar_07_1203	s	s	14	2	SIC	416	ABS	0	0	4	1	24_4_1	NA	NA	0	1	1.01084494591	None	None	None	None	1
3.0.1	2019_Mar_07_1203	s	s	14	2	SIC	417	4_4	4	4	3	1	23_3_1	1	3	1	0	0.429483890533	480.0	33.0	470.0	34.0	1
3.0.1	2019_Mar_07_1203	s	s	14	2	SIC	418	ABS	0	0	1	3	24_1_3	NA	NA	0	1	1.91634202003	None	None	None	None	1
3.0.1	2019_Mar_07_1203	s	s	14	2	SIC	419	ABS	0	0	2	1	24_2_1	NA	NA	0	1	1.18727493286	None	None	None	None	1
3.0.1	2019_Mar_07_1203	s	s	14	2	SIC	420	ABS	0	0	2	4	24_2_4	NA	NA	0	1	1.89950704575	None	None	None	None	1
3.0.1	2019_Mar_07_1203	s	s	14	2	SIC	421	ABS	0	0	3	3	24_3_3	NA	NA	0	1	2.18736290932	None	None	None	None	1
3.0.1	2019_Mar_07_1203	s	s	14	2	SIC	422	4_1	4	1	3	4	23_3_4	1	3	1	0	0.870105028152	-489.0	373.0	-481.0	372.0	1
3.0.1	2019_Mar_07_1203	s	s	14	2	SIC	423	4_4	4	4	1	2	23_1_2	3	2	1	0	0.457999944687	280.0	-380.0	286.0	-377.0	1
3.0.1	2019_Mar_07_1203	s	s	14	2	SIC	424	2_2	2	2	3	2	23_3_2	1	0	1	0	0.634438037872	141.0	333.0	151.0	332.0	1
3.0.1	2019_Mar_07_1203	s	s	14	2	SIC	425	1_2	1	2	3	1	23_3_1	2	-1	1	0	0.634824991226	-293.0	-90.0	-292.0	-93.0	1
3.0.1	2019_Mar_07_1203	s	s	14	2	SIC	426	ABS	0	0	3	2	24_3_2	NA	NA	0	1	1.50990700722	None	None	None	None	1
3.0.1	2019_Mar_07_1203	s	s	14	2	SIC	427	ABS	0	0	3	3	24_3_3	NA	NA	0	1	2.29747986794	None	None	None	None	1
3.0.1	2019_Mar_07_1203	s	s	14	2	SIC	428	ABS	0	0	4	4	24_4_4	NA	NA	0	1	2.11625814438	None	None	None	None	1
3.0.1	2019_Mar_07_1203	s	s	14	2	SIC	429	ABS	0	0	4	3	24_4_3	NA	NA	0	1	2.14275503159	None	None	None	None	1
3.0.1	2019_Mar_07_1203	s	s	14	2	SIC	430	3_2	3	2	4	4	23_4_4	-1	2	1	0	0.469790935516	123.0	143.0	131.0	144.0	1
3.0.1	2019_Mar_07_1203	s	s	14	2	SIC	431	3_4	3	4	1	2	23_1_2	2	2	1	0	0.663413047791	-159.0	-223.0	-157.0	-225.0	1
3.0.1	2019_Mar_07_1203	s	s	14	2	SIC	432	ABS	0	0	1	4	24_1_4	NA	NA	0	1	1.29304909706	None	None	None	None	1
3.0.1	2019_Mar_07_1203	s	s	14	2	SIC	433	ABS	0	0	4	2	24_4_2	NA	NA	0	1	1.14329695702	None	None	None	None	1
3.0.1	2019_Mar_07_1203	s	s	14	2	SIC	434	3_3	3	3	2	3	23_2_3	1	0	1	0	0.547006130219	110.0	-110.0	113.0	-112.0	1
3.0.1	2019_Mar_07_1203	s	s	14	2	SIC	435	2_3	2	3	2	4	23_2_4	0	-1	1	0	1.21071004868	-111.0	59.0	-109.0	57.0	1
3.0.1	2019_Mar_07_1203	s	s	14	2	SIC	436	ABS	0	0	1	3	24_1_3	NA	NA	0	1	2.77508592606	None	None	None	None	1
3.0.1	2019_Mar_07_1203	s	s	14	2	SIC	437	ABS	0	0	2	1	24_2_1	NA	NA	0	1	1.25212097168	None	None	None	None	1
3.0.1	2019_Mar_07_1203	s	s	14	2	SIC	438	4_2	4	2	1	1	23_1_1	3	-1	1	0	0.469753026962	301.0	-344.0	311.0	-345.0	1
3.0.1	2019_Mar_07_1203	s	s	14	2	SIC	439	4_2	4	2	1	3	23_1_3	3	1	1	0	0.731436014175	7.0	-261.0	5.0	-260.0	1
3.0.1	2019_Mar_07_1203	s	s	14	2	SIC	440	1_2	1	2	4	2	23_4_2	3	0	1	0	0.399259090424	-31.0	-250.0	-23.0	-249.0	1
3.0.1	2019_Mar_07_1203	s	s	14	2	SIC	441	1_3	1	3	1	2	23_1_2	0	1	0	1	0.790246963501	196.0	-232.0	None	None	0
3.0.1	2019_Mar_07_1203	s	s	14	2	SIC	442	ABS	0	0	3	2	24_3_2	NA	NA	0	1	0.827624797821	None	None	None	None	1
3.0.1	2019_Mar_07_1203	s	s	14	2	SIC	443	ABS	0	0	4	1	24_4_1	NA	NA	0	1	0.802016973495	None	None	None	None	1
3.0.1	2019_Mar_07_1203	s	s	14	2	SIC	444	ABS	0	0	3	3	24_3_3	NA	NA	0	1	1.73110413551	None	None	None	None	1
3.0.1	2019_Mar_07_1203	s	s	14	2	SIC	445	2_3	2	3	1	2	23_1_2	-1	1	1	0	1.93097186089	411.0	-315.0	405.0	-313.0	1
3.0.1	2019_Mar_07_1203	s	s	14	2	SIC	446	2_1	2	1	1	4	23_1_4	-1	3	1	0	0.511148929596	-283.0	-15.0	-287.0	-19.0	1
3.0.1	2019_Mar_07_1203	s	s	14	2	SIC	447	3_2	3	2	3	3	23_3_3	0	1	0	1	2.21066403389	67.0	-201.0	None	None	0
3.0.1	2019_Mar_07_1203	s	s	14	2	SIC	448	ABS	0	0	1	3	24_1_3	NA	NA	0	1	1.4648270607	None	None	None	None	1
3.0.1	2019_Mar_07_1203	s	s	14	2	SIC	449	2_3	2	3	4	2	23_4_2	2	1	1	0	0.446226119995	-94.0	-253.0	-95.0	-253.0	1
3.0.1	2019_Mar_07_1203	s	s	14	2	SIC	450	4_4	4	4	2	2	23_2_2	2	2	1	0	0.446251869202	-89.0	-85.0	-80.0	-88.0	1
3.0.1	2019_Mar_07_1203	s	s	14	2	SIC	451	4_1	4	1	2	4	23_2_4	2	3	1	0	0.399210929871	-201.0	-185.0	-201.0	-189.0	1
3.0.1	2019_Mar_07_1203	s	s	14	2	SIC	452	ABS	0	0	4	1	24_4_1	NA	NA	0	1	1.36835694313	None	None	None	None	1
3.0.1	2019_Mar_07_1203	s	s	14	2	SIC	453	1_3	1	3	2	3	23_2_3	1	0	1	0	0.592006921768	6.0	12.0	1.0	3.0	1
3.0.1	2019_Mar_07_1203	s	s	14	2	SIC	454	ABS	0	0	2	1	24_2_1	NA	NA	0	1	1.47234177589	None	None	None	None	1
3.0.1	2019_Mar_07_1203	s	s	14	2	SIC	455	3_1	3	1	1	3	23_1_3	2	2	1	0	0.49618601799	-147.0	-202.0	-148.0	-209.0	1
3.0.1	2019_Mar_07_1203	s	s	14	2	SIC	456	3_3	3	3	3	1	23_3_1	0	2	1	0	0.780035972595	-273.0	-42.0	-276.0	-47.0	1
3.0.1	2019_Mar_07_1203	s	s	14	2	SIC	457	3_3	3	3	2	4	23_2_4	1	-1	1	0	0.509831905365	305.0	-313.0	312.0	-310.0	1
3.0.1	2019_Mar_07_1203	s	s	14	2	SIC	458	1_4	1	4	2	2	23_2_2	1	2	1	0	0.756810903549	312.0	244.0	319.0	246.0	1
3.0.1	2019_Mar_07_1203	s	s	14	2	SIC	459	ABS	0	0	2	2	24_2_2	NA	NA	0	1	1.93116402626	None	None	None	None	1
3.0.1	2019_Mar_07_1203	s	s	14	2	SIC	460	4_4	4	4	3	2	23_3_2	1	2	1	0	0.40207695961	283.0	280.0	289.0	284.0	1
3.0.1	2019_Mar_07_1203	s	s	14	2	SIC	461	1_1	1	1	2	3	23_2_3	1	2	1	0	1.39886283875	-206.0	-324.0	-202.0	-321.0	1
3.0.1	2019_Mar_07_1203	s	s	14	2	SIC	462	ABS	0	0	4	3	24_4_3	NA	NA	0	1	2.29898691177	None	None	None	None	1
3.0.1	2019_Mar_07_1203	s	s	14	2	SIC	463	ABS	0	0	2	4	24_2_4	NA	NA	0	1	2.716173172	None	None	None	None	1
3.0.1	2019_Mar_07_1203	s	s	14	2	SIC	464	4_3	4	3	3	1	23_3_1	1	2	1	0	0.41112613678	-464.0	311.0	-474.0	310.0	1
3.0.1	2019_Mar_07_1203	s	s	14	2	SIC	465	4_4	4	4	2	4	23_2_4	2	0	1	0	0.40367102623	35.0	-38.0	39.0	-39.0	1
3.0.1	2019_Mar_07_1203	s	s	14	2	SIC	466	ABS	0	0	1	3	24_1_3	NA	NA	0	1	1.95171189308	None	None	None	None	1
3.0.1	2019_Mar_07_1203	s	s	14	2	SIC	467	ABS	0	0	2	2	24_2_2	NA	NA	0	1	1.65769982338	None	None	None	None	1
3.0.1	2019_Mar_07_1203	s	s	14	2	SIC	468	ABS	0	0	2	2	24_2_2	NA	NA	0	1	2.99846601486	None	None	None	None	1
3.0.1	2019_Mar_07_1203	s	s	14	2	SIC	469	ABS	0	0	3	2	24_3_2	NA	NA	0	1	4.65682697296	None	None	None	None	1
3.0.1	2019_Mar_07_1203	s	s	14	2	SIC	470	3_1	3	1	2	4	23_2_4	1	3	1	0	0.91360616684	-328.0	-352.0	-321.0	-348.0	1
3.0.1	2019_Mar_07_1203	s	s	14	2	SIC	471	3_3	3	3	1	3	23_1_3	2	0	1	0	0.73144197464	-486.0	-251.0	-484.0	-246.0	1
3.0.1	2019_Mar_07_1203	s	s	14	2	SIC	472	3_4	3	4	4	1	23_4_1	-1	3	1	0	0.650403022766	70.0	-399.0	61.0	-403.0	1
3.0.1	2019_Mar_07_1203	s	s	14	2	SIC	473	ABS	0	0	2	2	24_2_2	NA	NA	0	1	2.76769685745	None	None	None	None	1
3.0.1	2019_Mar_07_1203	s	s	14	2	SIC	474	4_1	4	1	1	3	23_1_3	3	2	1	0	0.434552907944	-329.0	257.0	-319.0	263.0	1
3.0.1	2019_Mar_07_1203	s	s	14	2	SIC	475	1_2	1	2	3	3	23_3_3	2	1	1	0	1.46943902969	-403.0	-171.0	-395.0	-169.0	1
3.0.1	2019_Mar_07_1203	s	s	14	2	SIC	476	ABS	0	0	2	4	24_2_4	NA	NA	0	1	1.54674196243	None	None	None	None	1
3.0.1	2019_Mar_07_1203	s	s	14	2	SIC	477	4_4	4	4	3	3	23_3_3	1	1	0	1	0.56104016304	-322.0	-395.0	None	None	0
3.0.1	2019_Mar_07_1203	s	s	14	2	SIC	478	ABS	0	0	1	4	24_1_4	NA	NA	1	0	1.20858693123	None	None	30.0	-19.0	0
3.0.1	2019_Mar_07_1203	s	s	14	2	SIC	479	ABS	0	0	3	2	24_3_2	NA	NA	0	1	2.39860296249	None	None	None	None	1
3.0.1	2019_Mar_07_1203	s	s	14	2	SIC	480	ABS	0	0	4	3	24_4_3	NA	NA	0	1	2.20774698257	None	None	None	None	1
