Version	Date	Stimuli	Method	Subject	Session	Condition	Trial	Target	TColor	TShape	DColor	DShape	Distractors	Channel1	Channel2	LMouseButton	RMouseButton	RT	TargetX	TargetY	ResponseX	ResponseY	Correct
3.0.1	2019_Mar_12_1601	s	s	15	2	Capacity	1	1_4	1	4	1	2	23_1_2	0	2	1	0	0.869994878769	-348.0	-97.0	-348.0	-97.0	1
3.0.1	2019_Mar_12_1601	s	s	15	2	Capacity	2	1_4	1	4	1	3	23_1_3	0	1	1	0	1.70463490486	178.0	171.0	171.0	172.0	1
3.0.1	2019_Mar_12_1601	s	s	15	2	Capacity	3	1_4	1	4	1	1	23_1_1	0	3	1	0	1.26629400253	303.0	-336.0	309.0	-333.0	1
3.0.1	2019_Mar_12_1601	s	s	15	2	Capacity	4	1_2	1	2	1	1	23_1_1	0	-1	1	0	3.00272393227	-371.0	-84.0	-377.0	-86.0	1
3.0.1	2019_Mar_12_1601	s	s	15	2	Capacity	5	1_2	1	2	1	3	23_1_3	0	1	0	1	4.6684820652	202.0	132.0	None	None	0
3.0.1	2019_Mar_12_1601	s	s	15	2	Capacity	6	ABS	0	0	1	2	24_1_2	NA	NA	0	1	3.83337593079	None	None	None	None	1
3.0.1	2019_Mar_12_1601	s	s	15	2	Capacity	7	ABS	0	0	1	3	24_1_3	NA	NA	0	1	3.19841384888	None	None	None	None	1
3.0.1	2019_Mar_12_1601	s	s	15	2	Capacity	8	1_3	1	3	1	1	23_1_1	0	2	0	1	3.76283311844	223.0	161.0	None	None	0
3.0.1	2019_Mar_12_1601	s	s	15	2	Capacity	9	ABS	0	0	1	4	24_1_4	NA	NA	0	1	2.66221618652	None	None	None	None	1
3.0.1	2019_Mar_12_1601	s	s	15	2	Capacity	10	ABS	0	0	1	3	24_1_3	NA	NA	0	1	3.01581597328	None	None	None	None	1
3.0.1	2019_Mar_12_1601	s	s	15	2	Capacity	11	ABS	0	0	1	3	24_1_3	NA	NA	0	1	2.36332607269	None	None	None	None	1
3.0.1	2019_Mar_12_1601	s	s	15	2	Capacity	12	ABS	0	0	1	2	24_1_2	NA	NA	0	1	1.8927719593	None	None	None	None	1
3.0.1	2019_Mar_12_1601	s	s	15	2	Capacity	13	ABS	0	0	1	4	24_1_4	NA	NA	0	1	1.44278597832	None	None	None	None	1
3.0.1	2019_Mar_12_1601	s	s	15	2	Capacity	14	1_1	1	1	1	2	23_1_2	0	1	0	1	3.13328814507	102.0	-173.0	None	None	0
3.0.1	2019_Mar_12_1601	s	s	15	2	Capacity	15	1_2	1	2	1	4	23_1_4	0	2	1	0	1.2108540535	495.0	62.0	494.0	61.0	1
3.0.1	2019_Mar_12_1601	s	s	15	2	Capacity	16	1_1	1	1	1	3	23_1_3	0	2	0	1	4.56261515617	137.0	44.0	None	None	0
3.0.1	2019_Mar_12_1601	s	s	15	2	Capacity	17	ABS	0	0	1	1	24_1_1	NA	NA	0	1	2.56847810745	None	None	None	None	1
3.0.1	2019_Mar_12_1601	s	s	15	2	Capacity	18	1_1	1	1	1	4	23_1_4	0	3	1	0	0.834219932556	-94.0	-111.0	-102.0	-114.0	1
3.0.1	2019_Mar_12_1601	s	s	15	2	Capacity	19	ABS	0	0	1	4	24_1_4	NA	NA	0	1	2.19860100746	None	None	None	None	1
3.0.1	2019_Mar_12_1601	s	s	15	2	Capacity	20	ABS	0	0	1	2	24_1_2	NA	NA	0	1	4.69660687447	None	None	None	None	1
3.0.1	2019_Mar_12_1601	s	s	15	2	Capacity	21	ABS	0	0	1	1	24_1_1	NA	NA	0	1	3.22677993774	None	None	None	None	1
3.0.1	2019_Mar_12_1601	s	s	15	2	Capacity	22	ABS	0	0	1	1	24_1_1	NA	NA	0	1	1.86087608337	None	None	None	None	1
3.0.1	2019_Mar_12_1601	s	s	15	2	Capacity	23	1_3	1	3	1	4	23_1_4	0	-1	1	0	0.966645956039	94.0	296.0	102.0	296.0	1
3.0.1	2019_Mar_12_1601	s	s	15	2	Capacity	24	1_3	1	3	1	2	23_1_2	0	1	0	1	5.02520704269	-536.0	-28.0	None	None	0
3.0.1	2019_Mar_12_1601	s	s	15	2	Capacity	25	ABS	0	0	1	2	24_1_2	NA	NA	0	1	3.93138217926	None	None	None	None	1
3.0.1	2019_Mar_12_1601	s	s	15	2	Capacity	26	ABS	0	0	1	4	24_1_4	NA	NA	0	1	4.23328399658	None	None	None	None	1
3.0.1	2019_Mar_12_1601	s	s	15	2	Capacity	27	ABS	0	0	1	1	24_1_1	NA	NA	0	1	2.10453891754	None	None	None	None	1
3.0.1	2019_Mar_12_1601	s	s	15	2	Capacity	28	1_4	1	4	1	1	23_1_1	0	3	1	0	0.552534103394	-310.0	310.0	-310.0	306.0	1
3.0.1	2019_Mar_12_1601	s	s	15	2	Capacity	29	1_1	1	1	1	4	23_1_4	0	3	1	0	1.43412494659	-65.0	-328.0	-56.0	-327.0	1
3.0.1	2019_Mar_12_1601	s	s	15	2	Capacity	30	ABS	0	0	1	2	24_1_2	NA	NA	0	1	4.30675697327	None	None	None	None	1
3.0.1	2019_Mar_12_1601	s	s	15	2	Capacity	31	1_3	1	3	1	2	23_1_2	0	1	0	1	4.74193906784	-280.0	-309.0	None	None	0
3.0.1	2019_Mar_12_1601	s	s	15	2	Capacity	32	ABS	0	0	1	4	24_1_4	NA	NA	0	1	2.93080806732	None	None	None	None	1
3.0.1	2019_Mar_12_1601	s	s	15	2	Capacity	33	ABS	0	0	1	1	24_1_1	NA	NA	0	1	1.42242884636	None	None	None	None	1
3.0.1	2019_Mar_12_1601	s	s	15	2	Capacity	34	1_3	1	3	1	1	23_1_1	0	2	1	0	1.43927693367	329.0	-157.0	331.0	-159.0	1
3.0.1	2019_Mar_12_1601	s	s	15	2	Capacity	35	ABS	0	0	1	3	24_1_3	NA	NA	0	1	1.89330101013	None	None	None	None	1
3.0.1	2019_Mar_12_1601	s	s	15	2	Capacity	36	ABS	0	0	1	1	24_1_1	NA	NA	0	1	1.97509288788	None	None	None	None	1
3.0.1	2019_Mar_12_1601	s	s	15	2	Capacity	37	1_1	1	1	1	3	23_1_3	0	2	0	1	2.30980801582	164.0	88.0	None	None	0
3.0.1	2019_Mar_12_1601	s	s	15	2	Capacity	38	1_4	1	4	1	2	23_1_2	0	2	1	0	2.41522192955	294.0	-143.0	303.0	-140.0	1
3.0.1	2019_Mar_12_1601	s	s	15	2	Capacity	39	1_2	1	2	1	1	23_1_1	0	-1	0	1	0.907755851746	338.0	173.0	None	None	0
3.0.1	2019_Mar_12_1601	s	s	15	2	Capacity	40	1_1	1	1	1	2	23_1_2	0	1	0	1	3.26003098488	428.0	329.0	None	None	0
3.0.1	2019_Mar_12_1601	s	s	15	2	Capacity	41	1_3	1	3	1	4	23_1_4	0	-1	1	0	0.752017021179	-302.0	176.0	-300.0	170.0	1
3.0.1	2019_Mar_12_1601	s	s	15	2	Capacity	42	1_4	1	4	1	3	23_1_3	0	1	1	0	2.04035210609	31.0	-244.0	26.0	-255.0	1
3.0.1	2019_Mar_12_1601	s	s	15	2	Capacity	43	ABS	0	0	1	3	24_1_3	NA	NA	0	1	2.81019186974	None	None	None	None	1
3.0.1	2019_Mar_12_1601	s	s	15	2	Capacity	44	ABS	0	0	1	4	24_1_4	NA	NA	0	1	2.10150408745	None	None	None	None	1
3.0.1	2019_Mar_12_1601	s	s	15	2	Capacity	45	1_2	1	2	1	4	23_1_4	0	2	1	0	1.27484607697	38.0	-331.0	41.0	-324.0	1
3.0.1	2019_Mar_12_1601	s	s	15	2	Capacity	46	ABS	0	0	1	2	24_1_2	NA	NA	0	1	1.56937503815	None	None	None	None	1
3.0.1	2019_Mar_12_1601	s	s	15	2	Capacity	47	ABS	0	0	1	3	24_1_3	NA	NA	0	1	2.58459091187	None	None	None	None	1
3.0.1	2019_Mar_12_1601	s	s	15	2	Capacity	48	1_2	1	2	1	3	23_1_3	0	1	0	1	2.50440311432	-103.0	296.0	None	None	0
3.0.1	2019_Mar_12_1601	s	s	15	2	Capacity	49	ABS	0	0	1	3	24_1_3	NA	NA	0	1	3.10426402092	None	None	None	None	1
3.0.1	2019_Mar_12_1601	s	s	15	2	Capacity	50	ABS	0	0	1	2	24_1_2	NA	NA	0	1	2.22675609589	None	None	None	None	1
3.0.1	2019_Mar_12_1601	s	s	15	2	Capacity	51	1_1	1	1	1	4	23_1_4	0	3	1	0	0.790181159973	80.0	36.0	74.0	33.0	1
3.0.1	2019_Mar_12_1601	s	s	15	2	Capacity	52	1_4	1	4	1	2	23_1_2	0	2	1	0	0.810722112656	11.0	357.0	8.0	352.0	1
3.0.1	2019_Mar_12_1601	s	s	15	2	Capacity	53	ABS	0	0	1	3	24_1_3	NA	NA	0	1	2.22223997116	None	None	None	None	1
3.0.1	2019_Mar_12_1601	s	s	15	2	Capacity	54	1_2	1	2	1	1	23_1_1	0	-1	0	1	1.59916782379	-528.0	-372.0	None	None	0
3.0.1	2019_Mar_12_1601	s	s	15	2	Capacity	55	1_1	1	1	1	2	23_1_2	0	1	0	1	2.26494884491	158.0	282.0	None	None	0
3.0.1	2019_Mar_12_1601	s	s	15	2	Capacity	56	ABS	0	0	1	4	24_1_4	NA	NA	0	1	2.5867421627	None	None	None	None	1
3.0.1	2019_Mar_12_1601	s	s	15	2	Capacity	57	ABS	0	0	1	2	24_1_2	NA	NA	0	1	4.43811893463	None	None	None	None	1
3.0.1	2019_Mar_12_1601	s	s	15	2	Capacity	58	1_4	1	4	1	1	23_1_1	0	3	1	0	1.34460711479	-392.0	-202.0	-392.0	-193.0	1
3.0.1	2019_Mar_12_1601	s	s	15	2	Capacity	59	1_2	1	2	1	4	23_1_4	0	2	1	0	0.816285133362	-318.0	-116.0	-318.0	-111.0	1
3.0.1	2019_Mar_12_1601	s	s	15	2	Capacity	60	1_1	1	1	1	3	23_1_3	0	2	0	1	2.69771885872	-338.0	-327.0	None	None	0
3.0.1	2019_Mar_12_1601	s	s	15	2	Capacity	61	1_3	1	3	1	1	23_1_1	0	2	1	0	2.08980894089	-284.0	401.0	-283.0	403.0	1
3.0.1	2019_Mar_12_1601	s	s	15	2	Capacity	62	ABS	0	0	1	2	24_1_2	NA	NA	0	1	3.83669400215	None	None	None	None	1
3.0.1	2019_Mar_12_1601	s	s	15	2	Capacity	63	1_3	1	3	1	2	23_1_2	0	1	0	1	3.73932385445	-503.0	24.0	None	None	0
3.0.1	2019_Mar_12_1601	s	s	15	2	Capacity	64	1_2	1	2	1	3	23_1_3	0	1	0	1	3.04537987709	35.0	33.0	None	None	0
3.0.1	2019_Mar_12_1601	s	s	15	2	Capacity	65	ABS	0	0	1	1	24_1_1	NA	NA	0	1	2.75141501427	None	None	None	None	1
3.0.1	2019_Mar_12_1601	s	s	15	2	Capacity	66	ABS	0	0	1	1	24_1_1	NA	NA	0	1	2.92781114578	None	None	None	None	1
3.0.1	2019_Mar_12_1601	s	s	15	2	Capacity	67	ABS	0	0	1	4	24_1_4	NA	NA	0	1	2.31143712997	None	None	None	None	1
3.0.1	2019_Mar_12_1601	s	s	15	2	Capacity	68	ABS	0	0	1	4	24_1_4	NA	NA	0	1	1.59885501862	None	None	None	None	1
3.0.1	2019_Mar_12_1601	s	s	15	2	Capacity	69	ABS	0	0	1	3	24_1_3	NA	NA	0	1	4.43322992325	None	None	None	None	1
3.0.1	2019_Mar_12_1601	s	s	15	2	Capacity	70	ABS	0	0	1	1	24_1_1	NA	NA	0	1	2.33979392052	None	None	None	None	1
3.0.1	2019_Mar_12_1601	s	s	15	2	Capacity	71	1_4	1	4	1	3	23_1_3	0	1	1	0	0.622659921646	-43.0	345.0	-48.0	337.0	1
3.0.1	2019_Mar_12_1601	s	s	15	2	Capacity	72	1_3	1	3	1	4	23_1_4	0	-1	1	0	1.92305612564	529.0	255.0	542.0	259.0	1
3.0.1	2019_Mar_12_1601	s	s	15	2	Capacity	73	ABS	0	0	1	4	24_1_4	NA	NA	0	1	2.59137296677	None	None	None	None	1
3.0.1	2019_Mar_12_1601	s	s	15	2	Capacity	74	ABS	0	0	1	2	24_1_2	NA	NA	0	1	1.90746808052	None	None	None	None	1
3.0.1	2019_Mar_12_1601	s	s	15	2	Capacity	75	1_3	1	3	1	2	23_1_2	0	1	0	1	1.45769309998	141.0	410.0	None	None	0
3.0.1	2019_Mar_12_1601	s	s	15	2	Capacity	76	1_1	1	1	1	3	23_1_3	0	2	0	1	1.48123502731	118.0	-337.0	None	None	0
3.0.1	2019_Mar_12_1601	s	s	15	2	Capacity	77	1_1	1	1	1	4	23_1_4	0	3	1	0	2.13290905952	-139.0	159.0	-130.0	155.0	1
3.0.1	2019_Mar_12_1601	s	s	15	2	Capacity	78	1_3	1	3	1	4	23_1_4	0	-1	1	0	1.03942608833	-404.0	147.0	-416.0	149.0	1
3.0.1	2019_Mar_12_1601	s	s	15	2	Capacity	79	ABS	0	0	1	1	24_1_1	NA	NA	0	1	1.09183716774	None	None	None	None	1
3.0.1	2019_Mar_12_1601	s	s	15	2	Capacity	80	1_2	1	2	1	4	23_1_4	0	2	1	0	0.944177865982	-484.0	-148.0	-487.0	-142.0	1
3.0.1	2019_Mar_12_1601	s	s	15	2	Capacity	81	ABS	0	0	1	2	24_1_2	NA	NA	0	1	2.29263401031	None	None	None	None	1
3.0.1	2019_Mar_12_1601	s	s	15	2	Capacity	82	1_4	1	4	1	2	23_1_2	0	2	1	0	1.04156208038	516.0	-297.0	508.0	-296.0	1
3.0.1	2019_Mar_12_1601	s	s	15	2	Capacity	83	1_2	1	2	1	1	23_1_1	0	-1	0	1	0.905290126801	97.0	-365.0	None	None	0
3.0.1	2019_Mar_12_1601	s	s	15	2	Capacity	84	ABS	0	0	1	3	24_1_3	NA	NA	0	1	2.84553384781	None	None	None	None	1
3.0.1	2019_Mar_12_1601	s	s	15	2	Capacity	85	ABS	0	0	1	3	24_1_3	NA	NA	0	1	1.32126402855	None	None	None	None	1
3.0.1	2019_Mar_12_1601	s	s	15	2	Capacity	86	ABS	0	0	1	4	24_1_4	NA	NA	0	1	1.89280295372	None	None	None	None	1
3.0.1	2019_Mar_12_1601	s	s	15	2	Capacity	87	ABS	0	0	1	2	24_1_2	NA	NA	0	1	1.88602590561	None	None	None	None	1
3.0.1	2019_Mar_12_1601	s	s	15	2	Capacity	88	ABS	0	0	1	3	24_1_3	NA	NA	0	1	1.54015612602	None	None	None	None	1
3.0.1	2019_Mar_12_1601	s	s	15	2	Capacity	89	ABS	0	0	1	4	24_1_4	NA	NA	0	1	2.40405917168	None	None	None	None	1
3.0.1	2019_Mar_12_1601	s	s	15	2	Capacity	90	ABS	0	0	1	1	24_1_1	NA	NA	0	1	1.71643304825	None	None	None	None	1
3.0.1	2019_Mar_12_1601	s	s	15	2	Capacity	91	1_1	1	1	1	2	23_1_2	0	1	0	1	2.77939105034	499.0	-162.0	None	None	0
3.0.1	2019_Mar_12_1601	s	s	15	2	Capacity	92	1_4	1	4	1	3	23_1_3	0	1	1	0	0.625962018967	-33.0	-70.0	-27.0	-69.0	1
3.0.1	2019_Mar_12_1601	s	s	15	2	Capacity	93	1_3	1	3	1	1	23_1_1	0	2	0	1	1.86243200302	-145.0	-375.0	None	None	0
3.0.1	2019_Mar_12_1601	s	s	15	2	Capacity	94	ABS	0	0	1	1	24_1_1	NA	NA	0	1	1.36364006996	None	None	None	None	1
3.0.1	2019_Mar_12_1601	s	s	15	2	Capacity	95	1_4	1	4	1	1	23_1_1	0	3	1	0	0.566738843918	-8.0	-132.0	-2.0	-122.0	1
3.0.1	2019_Mar_12_1601	s	s	15	2	Capacity	96	1_2	1	2	1	3	23_1_3	0	1	0	1	2.19897603989	193.0	-44.0	None	None	0
3.0.1	2019_Mar_12_1601	s	s	15	2	Capacity	1	2_1	2	1	3	1	23_3_1	1	0	1	0	0.64612698555	-424.0	260.0	-419.0	261.0	1
3.0.1	2019_Mar_12_1601	s	s	15	2	Capacity	2	ABS	0	0	1	1	24_1_1	NA	NA	0	1	1.10998606682	None	None	None	None	1
3.0.1	2019_Mar_12_1601	s	s	15	2	Capacity	3	3_1	3	1	2	1	23_2_1	1	0	1	0	0.634442090988	509.0	-29.0	503.0	-35.0	1
3.0.1	2019_Mar_12_1601	s	s	15	2	Capacity	4	ABS	0	0	2	1	24_2_1	NA	NA	0	1	1.10479211807	None	None	None	None	1
3.0.1	2019_Mar_12_1601	s	s	15	2	Capacity	5	ABS	0	0	2	1	24_2_1	NA	NA	0	1	1.65078496933	None	None	None	None	1
3.0.1	2019_Mar_12_1601	s	s	15	2	Capacity	6	4_1	4	1	2	1	23_2_1	2	0	1	0	0.567008018494	521.0	282.0	519.0	276.0	1
3.0.1	2019_Mar_12_1601	s	s	15	2	Capacity	7	ABS	0	0	1	1	24_1_1	NA	NA	0	1	0.775633811951	None	None	None	None	1
3.0.1	2019_Mar_12_1601	s	s	15	2	Capacity	8	ABS	0	0	3	1	24_3_1	NA	NA	0	1	0.606463909149	None	None	None	None	1
3.0.1	2019_Mar_12_1601	s	s	15	2	Capacity	9	4_1	4	1	1	1	23_1_1	3	0	1	0	0.516769886017	-385.0	251.0	-383.0	259.0	1
3.0.1	2019_Mar_12_1601	s	s	15	2	Capacity	10	2_1	2	1	1	1	23_1_1	-1	0	0	1	0.763763904572	412.0	23.0	None	None	0
3.0.1	2019_Mar_12_1601	s	s	15	2	Capacity	11	ABS	0	0	4	1	24_4_1	NA	NA	0	1	0.848999023438	None	None	None	None	1
3.0.1	2019_Mar_12_1601	s	s	15	2	Capacity	12	4_1	4	1	3	1	23_3_1	1	0	1	0	0.528553009033	48.0	239.0	50.0	229.0	1
3.0.1	2019_Mar_12_1601	s	s	15	2	Capacity	13	ABS	0	0	3	1	24_3_1	NA	NA	0	1	1.08427095413	None	None	None	None	1
3.0.1	2019_Mar_12_1601	s	s	15	2	Capacity	14	1_1	1	1	3	1	23_3_1	2	0	1	0	0.613791227341	256.0	-173.0	252.0	-175.0	1
3.0.1	2019_Mar_12_1601	s	s	15	2	Capacity	15	1_1	1	1	2	1	23_2_1	1	0	1	0	0.97042798996	237.0	127.0	237.0	130.0	1
3.0.1	2019_Mar_12_1601	s	s	15	2	Capacity	16	3_1	3	1	4	1	23_4_1	-1	0	1	0	0.626856088638	-375.0	-209.0	-380.0	-212.0	1
3.0.1	2019_Mar_12_1601	s	s	15	2	Capacity	17	ABS	0	0	4	1	24_4_1	NA	NA	0	1	0.799007892609	None	None	None	None	1
3.0.1	2019_Mar_12_1601	s	s	15	2	Capacity	18	ABS	0	0	3	1	24_3_1	NA	NA	0	1	1.09313201904	None	None	None	None	1
3.0.1	2019_Mar_12_1601	s	s	15	2	Capacity	19	ABS	0	0	2	1	24_2_1	NA	NA	0	1	1.23937106133	None	None	None	None	1
3.0.1	2019_Mar_12_1601	s	s	15	2	Capacity	20	1_1	1	1	4	1	23_4_1	3	0	1	0	0.516787052155	138.0	191.0	135.0	193.0	1
3.0.1	2019_Mar_12_1601	s	s	15	2	Capacity	21	2_1	2	1	4	1	23_4_1	2	0	1	0	0.523035049438	-209.0	236.0	-214.0	237.0	1
3.0.1	2019_Mar_12_1601	s	s	15	2	Capacity	22	3_1	3	1	1	1	23_1_1	2	0	1	0	0.752022027969	442.0	-329.0	438.0	-331.0	1
3.0.1	2019_Mar_12_1601	s	s	15	2	Capacity	23	ABS	0	0	1	1	24_1_1	NA	NA	0	1	0.987222194672	None	None	None	None	1
3.0.1	2019_Mar_12_1601	s	s	15	2	Capacity	24	ABS	0	0	4	1	24_4_1	NA	NA	0	1	0.65794801712	None	None	None	None	1
3.0.1	2019_Mar_12_1601	s	s	15	2	Capacity	25	ABS	0	0	3	1	24_3_1	NA	NA	0	1	0.786818027496	None	None	None	None	1
3.0.1	2019_Mar_12_1601	s	s	15	2	Capacity	26	3_1	3	1	1	1	23_1_1	2	0	1	0	0.528522968292	-330.0	100.0	-331.0	97.0	1
3.0.1	2019_Mar_12_1601	s	s	15	2	Capacity	27	4_1	4	1	3	1	23_3_1	1	0	1	0	0.61382317543	297.0	155.0	296.0	155.0	1
3.0.1	2019_Mar_12_1601	s	s	15	2	Capacity	28	4_1	4	1	1	1	23_1_1	3	0	1	0	0.486640930176	-45.0	-143.0	-54.0	-136.0	1
3.0.1	2019_Mar_12_1601	s	s	15	2	Capacity	29	1_1	1	1	4	1	23_4_1	3	0	1	0	0.452595949173	-364.0	46.0	-365.0	41.0	1
3.0.1	2019_Mar_12_1601	s	s	15	2	Capacity	30	ABS	0	0	3	1	24_3_1	NA	NA	0	1	0.885015010834	None	None	None	None	1
3.0.1	2019_Mar_12_1601	s	s	15	2	Capacity	31	ABS	0	0	2	1	24_2_1	NA	NA	0	1	0.865337848663	None	None	None	None	1
3.0.1	2019_Mar_12_1601	s	s	15	2	Capacity	32	3_1	3	1	2	1	23_2_1	1	0	1	0	0.614826917648	-259.0	-96.0	-256.0	-94.0	1
3.0.1	2019_Mar_12_1601	s	s	15	2	Capacity	33	ABS	0	0	2	1	24_2_1	NA	NA	0	1	0.77558016777	None	None	None	None	1
3.0.1	2019_Mar_12_1601	s	s	15	2	Capacity	34	4_1	4	1	2	1	23_2_1	2	0	1	0	0.493235111237	242.0	287.0	239.0	285.0	1
3.0.1	2019_Mar_12_1601	s	s	15	2	Capacity	35	ABS	0	0	1	1	24_1_1	NA	NA	0	1	0.928416013718	None	None	None	None	1
3.0.1	2019_Mar_12_1601	s	s	15	2	Capacity	36	1_1	1	1	3	1	23_3_1	2	0	1	0	0.620743989944	-351.0	-322.0	-344.0	-327.0	1
3.0.1	2019_Mar_12_1601	s	s	15	2	Capacity	37	ABS	0	0	2	1	24_2_1	NA	NA	0	1	0.855655908585	None	None	None	None	1
3.0.1	2019_Mar_12_1601	s	s	15	2	Capacity	38	3_1	3	1	4	1	23_4_1	-1	0	1	0	0.547223806381	-486.0	-364.0	-490.0	-359.0	1
3.0.1	2019_Mar_12_1601	s	s	15	2	Capacity	39	ABS	0	0	1	1	24_1_1	NA	NA	0	1	0.698905944824	None	None	None	None	1
3.0.1	2019_Mar_12_1601	s	s	15	2	Capacity	40	ABS	0	0	1	1	24_1_1	NA	NA	0	1	0.657968997955	None	None	None	None	1
3.0.1	2019_Mar_12_1601	s	s	15	2	Capacity	41	ABS	0	0	4	1	24_4_1	NA	NA	0	1	0.613791942596	None	None	None	None	1
3.0.1	2019_Mar_12_1601	s	s	15	2	Capacity	42	ABS	0	0	3	1	24_3_1	NA	NA	0	1	0.957429885864	None	None	None	None	1
3.0.1	2019_Mar_12_1601	s	s	15	2	Capacity	43	ABS	0	0	4	1	24_4_1	NA	NA	0	1	0.881365060806	None	None	None	None	1
3.0.1	2019_Mar_12_1601	s	s	15	2	Capacity	44	1_1	1	1	2	1	23_2_1	1	0	0	1	1.18039608002	41.0	-58.0	None	None	0
3.0.1	2019_Mar_12_1601	s	s	15	2	Capacity	45	2_1	2	1	4	1	23_4_1	2	0	1	0	0.587343931198	499.0	-226.0	507.0	-225.0	1
3.0.1	2019_Mar_12_1601	s	s	15	2	Capacity	46	2_1	2	1	1	1	23_1_1	-1	0	0	1	1.10485100746	377.0	20.0	None	None	0
3.0.1	2019_Mar_12_1601	s	s	15	2	Capacity	47	ABS	0	0	4	1	24_4_1	NA	NA	0	1	2.14306020737	None	None	None	None	1
3.0.1	2019_Mar_12_1601	s	s	15	2	Capacity	48	2_1	2	1	3	1	23_3_1	1	0	1	0	0.716755867004	481.0	-163.0	476.0	-161.0	1
3.0.1	2019_Mar_12_1601	s	s	15	2	Capacity	49	ABS	0	0	2	1	24_2_1	NA	NA	0	1	1.10477614403	None	None	None	None	1
3.0.1	2019_Mar_12_1601	s	s	15	2	Capacity	50	1_1	1	1	3	1	23_3_1	2	0	1	0	0.620333194733	-345.0	-117.0	-329.0	-108.0	1
3.0.1	2019_Mar_12_1601	s	s	15	2	Capacity	51	ABS	0	0	4	1	24_4_1	NA	NA	0	1	0.704909086227	None	None	None	None	1
3.0.1	2019_Mar_12_1601	s	s	15	2	Capacity	52	2_1	2	1	4	1	23_4_1	2	0	1	0	0.496154069901	-74.0	224.0	-68.0	225.0	1
3.0.1	2019_Mar_12_1601	s	s	15	2	Capacity	53	1_1	1	1	4	1	23_4_1	3	0	1	0	0.499246120453	204.0	129.0	200.0	132.0	1
3.0.1	2019_Mar_12_1601	s	s	15	2	Capacity	54	3_1	3	1	4	1	23_4_1	-1	0	1	0	0.569873809814	429.0	-402.0	433.0	-401.0	1
3.0.1	2019_Mar_12_1601	s	s	15	2	Capacity	55	2_1	2	1	1	1	23_1_1	-1	0	1	0	0.991834163666	493.0	407.0	490.0	400.0	1
3.0.1	2019_Mar_12_1601	s	s	15	2	Capacity	56	4_1	4	1	1	1	23_1_1	3	0	1	0	0.599143981934	-418.0	-289.0	-416.0	-292.0	1
3.0.1	2019_Mar_12_1601	s	s	15	2	Capacity	57	ABS	0	0	4	1	24_4_1	NA	NA	0	1	1.02760887146	None	None	None	None	1
3.0.1	2019_Mar_12_1601	s	s	15	2	Capacity	58	ABS	0	0	2	1	24_2_1	NA	NA	0	1	1.18720507622	None	None	None	None	1
3.0.1	2019_Mar_12_1601	s	s	15	2	Capacity	59	ABS	0	0	3	1	24_3_1	NA	NA	0	1	0.870009899139	None	None	None	None	1
3.0.1	2019_Mar_12_1601	s	s	15	2	Capacity	60	ABS	0	0	1	1	24_1_1	NA	NA	0	1	0.913466215134	None	None	None	None	1
3.0.1	2019_Mar_12_1601	s	s	15	2	Capacity	61	ABS	0	0	3	1	24_3_1	NA	NA	0	1	0.728525876999	None	None	None	None	1
3.0.1	2019_Mar_12_1601	s	s	15	2	Capacity	62	2_1	2	1	3	1	23_3_1	1	0	0	1	0.740330934525	47.0	36.0	None	None	0
3.0.1	2019_Mar_12_1601	s	s	15	2	Capacity	63	3_1	3	1	1	1	23_1_1	2	0	1	0	0.693403959274	450.0	220.0	458.0	223.0	1
3.0.1	2019_Mar_12_1601	s	s	15	2	Capacity	64	ABS	0	0	1	1	24_1_1	NA	NA	0	1	0.991943836212	None	None	None	None	1
3.0.1	2019_Mar_12_1601	s	s	15	2	Capacity	65	ABS	0	0	3	1	24_3_1	NA	NA	0	1	1.21066498756	None	None	None	None	1
3.0.1	2019_Mar_12_1601	s	s	15	2	Capacity	66	3_1	3	1	2	1	23_2_1	1	0	1	0	0.872326135635	-153.0	-352.0	-157.0	-347.0	1
3.0.1	2019_Mar_12_1601	s	s	15	2	Capacity	67	ABS	0	0	2	1	24_2_1	NA	NA	0	1	1.18720006943	None	None	None	None	1
3.0.1	2019_Mar_12_1601	s	s	15	2	Capacity	68	ABS	0	0	4	1	24_4_1	NA	NA	0	1	1.11063599586	None	None	None	None	1
3.0.1	2019_Mar_12_1601	s	s	15	2	Capacity	69	ABS	0	0	1	1	24_1_1	NA	NA	0	1	0.964154005051	None	None	None	None	1
3.0.1	2019_Mar_12_1601	s	s	15	2	Capacity	70	4_1	4	1	2	1	23_2_1	2	0	1	0	0.496179819107	-529.0	264.0	-525.0	259.0	1
3.0.1	2019_Mar_12_1601	s	s	15	2	Capacity	71	4_1	4	1	3	1	23_3_1	1	0	1	0	0.540316104889	-158.0	-160.0	-157.0	-154.0	1
3.0.1	2019_Mar_12_1601	s	s	15	2	Capacity	72	1_1	1	1	2	1	23_2_1	1	0	0	1	0.922958135605	-257.0	-287.0	None	None	0
3.0.1	2019_Mar_12_1601	s	s	15	2	Capacity	73	2_1	2	1	4	1	23_4_1	2	0	1	0	0.58731508255	433.0	-231.0	426.0	-227.0	1
3.0.1	2019_Mar_12_1601	s	s	15	2	Capacity	74	ABS	0	0	1	1	24_1_1	NA	NA	0	1	1.00444102287	None	None	None	None	1
3.0.1	2019_Mar_12_1601	s	s	15	2	Capacity	75	4_1	4	1	1	1	23_1_1	3	0	1	0	0.457960128784	196.0	243.0	192.0	240.0	1
3.0.1	2019_Mar_12_1601	s	s	15	2	Capacity	76	3_1	3	1	1	1	23_1_1	2	0	1	0	0.693167924881	-38.0	-112.0	-46.0	-107.0	1
3.0.1	2019_Mar_12_1601	s	s	15	2	Capacity	77	ABS	0	0	2	1	24_2_1	NA	NA	0	1	0.849041938782	None	None	None	None	1
3.0.1	2019_Mar_12_1601	s	s	15	2	Capacity	78	4_1	4	1	3	1	23_3_1	1	0	1	0	0.488366127014	529.0	-211.0	527.0	-211.0	1
3.0.1	2019_Mar_12_1601	s	s	15	2	Capacity	79	2_1	2	1	3	1	23_3_1	1	0	1	0	1.41644501686	-52.0	110.0	-48.0	97.0	1
3.0.1	2019_Mar_12_1601	s	s	15	2	Capacity	80	ABS	0	0	1	1	24_1_1	NA	NA	0	1	0.922069787979	None	None	None	None	1
3.0.1	2019_Mar_12_1601	s	s	15	2	Capacity	81	ABS	0	0	3	1	24_3_1	NA	NA	0	1	0.916641950607	None	None	None	None	1
3.0.1	2019_Mar_12_1601	s	s	15	2	Capacity	82	ABS	0	0	3	1	24_3_1	NA	NA	0	1	0.626836061478	None	None	None	None	1
3.0.1	2019_Mar_12_1601	s	s	15	2	Capacity	83	1_1	1	1	2	1	23_2_1	1	0	0	1	1.05054807663	-489.0	221.0	None	None	0
3.0.1	2019_Mar_12_1601	s	s	15	2	Capacity	84	1_1	1	1	3	1	23_3_1	2	0	1	0	0.619287967682	-486.0	350.0	-489.0	343.0	1
3.0.1	2019_Mar_12_1601	s	s	15	2	Capacity	85	2_1	2	1	1	1	23_1_1	-1	0	1	0	3.23371911049	303.0	91.0	290.0	98.0	1
3.0.1	2019_Mar_12_1601	s	s	15	2	Capacity	86	ABS	0	0	2	1	24_2_1	NA	NA	0	1	0.864782094955	None	None	None	None	1
3.0.1	2019_Mar_12_1601	s	s	15	2	Capacity	87	ABS	0	0	2	1	24_2_1	NA	NA	0	1	1.19896006584	None	None	None	None	1
3.0.1	2019_Mar_12_1601	s	s	15	2	Capacity	88	ABS	0	0	1	1	24_1_1	NA	NA	0	1	1.16874599457	None	None	None	None	1
3.0.1	2019_Mar_12_1601	s	s	15	2	Capacity	89	ABS	0	0	4	1	24_4_1	NA	NA	0	1	1.1430079937	None	None	None	None	1
3.0.1	2019_Mar_12_1601	s	s	15	2	Capacity	90	ABS	0	0	4	1	24_4_1	NA	NA	0	1	0.864518880844	None	None	None	None	1
3.0.1	2019_Mar_12_1601	s	s	15	2	Capacity	91	3_1	3	1	2	1	23_2_1	1	0	1	0	1.17542219162	282.0	-396.0	293.0	-394.0	1
3.0.1	2019_Mar_12_1601	s	s	15	2	Capacity	92	3_1	3	1	4	1	23_4_1	-1	0	1	0	0.71673989296	504.0	-288.0	509.0	-299.0	1
3.0.1	2019_Mar_12_1601	s	s	15	2	Capacity	93	ABS	0	0	3	1	24_3_1	NA	NA	0	1	1.3871049881	None	None	None	None	1
3.0.1	2019_Mar_12_1601	s	s	15	2	Capacity	94	4_1	4	1	2	1	23_2_1	2	0	1	0	0.521895170212	-320.0	103.0	-313.0	102.0	1
3.0.1	2019_Mar_12_1601	s	s	15	2	Capacity	95	ABS	0	0	4	1	24_4_1	NA	NA	0	1	0.849024057388	None	None	None	None	1
3.0.1	2019_Mar_12_1601	s	s	15	2	Capacity	96	1_1	1	1	4	1	23_4_1	3	0	1	0	0.488283157349	-534.0	395.0	-535.0	398.0	1
3.0.1	2019_Mar_12_1601	s	s	15	2	SIC	1	ABS	0	0	3	4	24_3_4	NA	NA	0	1	2.63397288322	None	None	None	None	1
3.0.1	2019_Mar_12_1601	s	s	15	2	SIC	2	1_2	1	2	3	4	23_3_4	2	2	1	0	0.686717033386	10.0	308.0	6.0	306.0	1
3.0.1	2019_Mar_12_1601	s	s	15	2	SIC	3	ABS	0	0	1	1	24_1_1	NA	NA	0	1	2.14269995689	None	None	None	None	1
3.0.1	2019_Mar_12_1601	s	s	15	2	SIC	4	ABS	0	0	4	3	24_4_3	NA	NA	0	1	2.88754606247	None	None	None	None	1
3.0.1	2019_Mar_12_1601	s	s	15	2	SIC	5	ABS	0	0	4	1	24_4_1	NA	NA	0	1	2.23394298553	None	None	None	None	1
3.0.1	2019_Mar_12_1601	s	s	15	2	SIC	6	1_1	1	1	1	4	23_1_4	0	3	1	0	0.693137168884	116.0	301.0	111.0	292.0	1
3.0.1	2019_Mar_12_1601	s	s	15	2	SIC	7	ABS	0	0	4	2	24_4_2	NA	NA	0	1	2.04572081566	None	None	None	None	1
3.0.1	2019_Mar_12_1601	s	s	15	2	SIC	8	1_2	1	2	2	2	23_2_2	1	0	0	1	2.67567896843	-384.0	-176.0	None	None	0
3.0.1	2019_Mar_12_1601	s	s	15	2	SIC	9	ABS	0	0	3	4	24_3_4	NA	NA	0	1	2.79958105087	None	None	None	None	1
3.0.1	2019_Mar_12_1601	s	s	15	2	SIC	10	ABS	0	0	4	1	24_4_1	NA	NA	0	1	3.42184019089	None	None	None	None	1
3.0.1	2019_Mar_12_1601	s	s	15	2	SIC	11	ABS	0	0	2	1	24_2_1	NA	NA	0	1	3.10428714752	None	None	None	None	1
3.0.1	2019_Mar_12_1601	s	s	15	2	SIC	12	2_1	2	1	1	4	23_1_4	-1	3	1	0	0.940294981003	-153.0	407.0	-158.0	409.0	1
3.0.1	2019_Mar_12_1601	s	s	15	2	SIC	13	2_1	2	1	4	4	23_4_4	2	3	1	0	0.657983064651	526.0	-33.0	526.0	-34.0	1
3.0.1	2019_Mar_12_1601	s	s	15	2	SIC	14	ABS	0	0	1	2	24_1_2	NA	NA	0	1	4.70909905434	None	None	None	None	1
3.0.1	2019_Mar_12_1601	s	s	15	2	SIC	15	3_3	3	3	2	3	23_2_3	1	0	1	0	1.08423495293	376.0	-284.0	372.0	-288.0	1
3.0.1	2019_Mar_12_1601	s	s	15	2	SIC	16	4_2	4	2	2	3	23_2_3	2	1	1	0	0.547240018845	48.0	-103.0	49.0	-108.0	1
3.0.1	2019_Mar_12_1601	s	s	15	2	SIC	17	2_2	2	2	4	3	23_4_3	2	1	1	0	0.554965019226	523.0	365.0	527.0	370.0	1
3.0.1	2019_Mar_12_1601	s	s	15	2	SIC	18	ABS	0	0	2	4	24_2_4	NA	NA	0	1	1.9399368763	None	None	None	None	1
3.0.1	2019_Mar_12_1601	s	s	15	2	SIC	19	ABS	0	0	1	1	24_1_1	NA	NA	0	1	2.90429091454	None	None	None	None	1
3.0.1	2019_Mar_12_1601	s	s	15	2	SIC	20	3_3	3	3	4	1	23_4_1	-1	2	1	0	0.68138885498	82.0	-60.0	73.0	-58.0	1
3.0.1	2019_Mar_12_1601	s	s	15	2	SIC	21	3_4	3	4	1	3	23_1_3	2	1	1	0	0.716763973236	-134.0	406.0	-137.0	408.0	1
3.0.1	2019_Mar_12_1601	s	s	15	2	SIC	22	ABS	0	0	2	3	24_2_3	NA	NA	0	1	2.90837812424	None	None	None	None	1
3.0.1	2019_Mar_12_1601	s	s	15	2	SIC	23	ABS	0	0	4	1	24_4_1	NA	NA	0	1	2.75146913528	None	None	None	None	1
3.0.1	2019_Mar_12_1601	s	s	15	2	SIC	24	ABS	0	0	2	3	24_2_3	NA	NA	0	1	2.12157392502	None	None	None	None	1
3.0.1	2019_Mar_12_1601	s	s	15	2	SIC	25	ABS	0	0	1	2	24_1_2	NA	NA	0	1	4.17450499535	None	None	None	None	1
3.0.1	2019_Mar_12_1601	s	s	15	2	SIC	26	ABS	0	0	2	2	24_2_2	NA	NA	0	1	2.72068214417	None	None	None	None	1
3.0.1	2019_Mar_12_1601	s	s	15	2	SIC	27	ABS	0	0	1	1	24_1_1	NA	NA	0	1	2.81023406982	None	None	None	None	1
3.0.1	2019_Mar_12_1601	s	s	15	2	SIC	28	1_1	1	1	2	1	23_2_1	1	0	0	1	1.47501397133	289.0	-223.0	None	None	0
3.0.1	2019_Mar_12_1601	s	s	15	2	SIC	29	ABS	0	0	3	2	24_3_2	NA	NA	0	1	3.74476909637	None	None	None	None	1
3.0.1	2019_Mar_12_1601	s	s	15	2	SIC	30	ABS	0	0	3	4	24_3_4	NA	NA	0	1	2.18691492081	None	None	None	None	1
3.0.1	2019_Mar_12_1601	s	s	15	2	SIC	31	3_4	3	4	2	3	23_2_3	1	1	1	0	0.75201010704	-276.0	91.0	-272.0	88.0	1
3.0.1	2019_Mar_12_1601	s	s	15	2	SIC	32	4_2	4	2	4	1	23_4_1	0	-1	1	0	3.95102787018	8.0	54.0	-1.0	56.0	1
3.0.1	2019_Mar_12_1601	s	s	15	2	SIC	33	ABS	0	0	3	2	24_3_2	NA	NA	0	1	3.4104950428	None	None	None	None	1
3.0.1	2019_Mar_12_1601	s	s	15	2	SIC	34	2_2	2	2	4	4	23_4_4	2	2	1	0	0.575525045395	-484.0	403.0	-482.0	405.0	1
3.0.1	2019_Mar_12_1601	s	s	15	2	SIC	35	1_1	1	1	3	3	23_3_3	2	2	1	0	0.846037864685	-477.0	84.0	-484.0	90.0	1
3.0.1	2019_Mar_12_1601	s	s	15	2	SIC	36	3_1	3	1	4	2	23_4_2	-1	1	1	0	0.575609922409	-2.0	408.0	-6.0	406.0	1
3.0.1	2019_Mar_12_1601	s	s	15	2	SIC	37	ABS	0	0	3	3	24_3_3	NA	NA	0	1	2.77505993843	None	None	None	None	1
3.0.1	2019_Mar_12_1601	s	s	15	2	SIC	38	ABS	0	0	2	2	24_2_2	NA	NA	0	1	2.69800400734	None	None	None	None	1
3.0.1	2019_Mar_12_1601	s	s	15	2	SIC	39	2_4	2	4	1	4	23_1_4	-1	0	0	1	1.54014515877	488.0	-150.0	None	None	0
3.0.1	2019_Mar_12_1601	s	s	15	2	SIC	40	1_1	1	1	4	1	23_4_1	3	0	1	0	0.484400987625	483.0	367.0	488.0	363.0	1
3.0.1	2019_Mar_12_1601	s	s	15	2	SIC	41	3_1	3	1	2	2	23_2_2	1	1	1	0	0.581924200058	60.0	-224.0	55.0	-226.0	1
3.0.1	2019_Mar_12_1601	s	s	15	2	SIC	42	4_3	4	3	4	4	23_4_4	0	-1	1	0	1.66940307617	25.0	-131.0	22.0	-134.0	1
3.0.1	2019_Mar_12_1601	s	s	15	2	SIC	43	3_1	3	1	4	3	23_4_3	-1	2	1	0	0.493240118027	-51.0	167.0	-48.0	164.0	1
3.0.1	2019_Mar_12_1601	s	s	15	2	SIC	44	1_3	1	3	3	1	23_3_1	2	2	1	0	0.857899904251	465.0	-385.0	468.0	-387.0	1
3.0.1	2019_Mar_12_1601	s	s	15	2	SIC	45	ABS	0	0	1	4	24_1_4	NA	NA	0	1	1.28647708893	None	None	None	None	1
3.0.1	2019_Mar_12_1601	s	s	15	2	SIC	46	4_4	4	4	3	1	23_3_1	1	3	1	0	0.481472969055	-465.0	-145.0	-465.0	-141.0	1
3.0.1	2019_Mar_12_1601	s	s	15	2	SIC	47	4_1	4	1	3	2	23_3_2	1	1	1	0	0.446205854416	225.0	37.0	227.0	42.0	1
3.0.1	2019_Mar_12_1601	s	s	15	2	SIC	48	ABS	0	0	3	3	24_3_3	NA	NA	0	1	3.47311806679	None	None	None	None	1
3.0.1	2019_Mar_12_1601	s	s	15	2	SIC	49	ABS	0	0	2	3	24_2_3	NA	NA	0	1	3.05126214027	None	None	None	None	1
3.0.1	2019_Mar_12_1601	s	s	15	2	SIC	50	4_1	4	1	2	3	23_2_3	2	2	1	0	0.516747951508	5.0	-305.0	13.0	-304.0	1
3.0.1	2019_Mar_12_1601	s	s	15	2	SIC	51	1_4	1	4	1	2	23_1_2	0	2	1	0	1.91638684273	531.0	194.0	525.0	188.0	1
3.0.1	2019_Mar_12_1601	s	s	15	2	SIC	52	ABS	0	0	3	3	24_3_3	NA	NA	0	1	2.57531905174	None	None	None	None	1
3.0.1	2019_Mar_12_1601	s	s	15	2	SIC	53	ABS	0	0	1	1	24_1_1	NA	NA	0	1	2.14269995689	None	None	None	None	1
3.0.1	2019_Mar_12_1601	s	s	15	2	SIC	54	4_2	4	2	1	2	23_1_2	3	0	1	0	0.563868999481	489.0	272.0	497.0	268.0	1
3.0.1	2019_Mar_12_1601	s	s	15	2	SIC	55	3_1	3	1	2	4	23_2_4	1	3	1	0	0.704963922501	95.0	166.0	96.0	160.0	1
3.0.1	2019_Mar_12_1601	s	s	15	2	SIC	56	2_2	2	2	1	1	23_1_1	-1	-1	1	0	1.45761585236	250.0	157.0	256.0	148.0	1
3.0.1	2019_Mar_12_1601	s	s	15	2	SIC	57	ABS	0	0	4	2	24_4_2	NA	NA	0	1	2.46908688545	None	None	None	None	1
3.0.1	2019_Mar_12_1601	s	s	15	2	SIC	58	ABS	0	0	4	1	24_4_1	NA	NA	0	1	2.15154385567	None	None	None	None	1
3.0.1	2019_Mar_12_1601	s	s	15	2	SIC	59	3_3	3	3	1	3	23_1_3	2	0	1	0	0.657863855362	-537.0	317.0	-532.0	321.0	1
3.0.1	2019_Mar_12_1601	s	s	15	2	SIC	60	ABS	0	0	4	4	24_4_4	NA	NA	0	1	2.47458100319	None	None	None	None	1
3.0.1	2019_Mar_12_1601	s	s	15	2	SIC	61	1_2	1	2	3	2	23_3_2	2	0	1	0	0.505045890808	368.0	-248.0	360.0	-254.0	1
3.0.1	2019_Mar_12_1601	s	s	15	2	SIC	62	4_1	4	1	3	1	23_3_1	1	0	1	0	0.504958868027	-222.0	-196.0	-213.0	-192.0	1
3.0.1	2019_Mar_12_1601	s	s	15	2	SIC	63	4_3	4	3	2	3	23_2_3	2	0	1	0	0.434475898743	-456.0	69.0	-454.0	67.0	1
3.0.1	2019_Mar_12_1601	s	s	15	2	SIC	64	3_2	3	2	4	4	23_4_4	-1	2	1	0	0.493258953094	-377.0	-10.0	-384.0	-9.0	1
3.0.1	2019_Mar_12_1601	s	s	15	2	SIC	65	ABS	0	0	2	2	24_2_2	NA	NA	0	1	3.15508389473	None	None	None	None	1
3.0.1	2019_Mar_12_1601	s	s	15	2	SIC	66	1_1	1	1	2	2	23_2_2	1	1	0	1	2.85717391968	-79.0	267.0	None	None	0
3.0.1	2019_Mar_12_1601	s	s	15	2	SIC	67	3_2	3	2	3	4	23_3_4	0	2	1	0	1.20183992386	-116.0	117.0	-116.0	122.0	1
3.0.1	2019_Mar_12_1601	s	s	15	2	SIC	68	3_3	3	3	1	4	23_1_4	2	-1	1	0	0.545121908188	-161.0	250.0	-157.0	244.0	1
3.0.1	2019_Mar_12_1601	s	s	15	2	SIC	69	ABS	0	0	1	3	24_1_3	NA	NA	0	1	3.3394639492	None	None	None	None	1
3.0.1	2019_Mar_12_1601	s	s	15	2	SIC	70	4_2	4	2	4	4	23_4_4	0	2	1	0	1.13337516785	-256.0	403.0	-247.0	400.0	1
3.0.1	2019_Mar_12_1601	s	s	15	2	SIC	71	ABS	0	0	1	3	24_1_3	NA	NA	0	1	1.59191799164	None	None	None	None	1
3.0.1	2019_Mar_12_1601	s	s	15	2	SIC	72	ABS	0	0	3	2	24_3_2	NA	NA	0	1	2.57272195816	None	None	None	None	1
3.0.1	2019_Mar_12_1601	s	s	15	2	SIC	73	3_4	3	4	3	3	23_3_3	0	1	1	0	1.62764596939	-134.0	89.0	-140.0	84.0	1
3.0.1	2019_Mar_12_1601	s	s	15	2	SIC	74	ABS	0	0	3	1	24_3_1	NA	NA	0	1	1.5753159523	None	None	None	None	1
3.0.1	2019_Mar_12_1601	s	s	15	2	SIC	75	3_4	3	4	2	2	23_2_2	1	2	1	0	0.615221977234	-171.0	-151.0	-167.0	-147.0	1
3.0.1	2019_Mar_12_1601	s	s	15	2	SIC	76	ABS	0	0	2	2	24_2_2	NA	NA	0	1	1.17550706863	None	None	None	None	1
3.0.1	2019_Mar_12_1601	s	s	15	2	SIC	77	1_1	1	1	3	2	23_3_2	2	1	1	0	0.575566053391	387.0	395.0	394.0	401.0	1
3.0.1	2019_Mar_12_1601	s	s	15	2	SIC	78	ABS	0	0	2	2	24_2_2	NA	NA	0	1	2.56319093704	None	None	None	None	1
3.0.1	2019_Mar_12_1601	s	s	15	2	SIC	79	3_1	3	1	3	2	23_3_2	0	1	1	0	3.415984869	356.0	158.0	351.0	149.0	1
3.0.1	2019_Mar_12_1601	s	s	15	2	SIC	80	3_4	3	4	3	1	23_3_1	0	3	1	0	0.646097898483	-29.0	-165.0	-24.0	-161.0	1
3.0.1	2019_Mar_12_1601	s	s	15	2	SIC	81	3_3	3	3	1	2	23_1_2	2	1	1	0	0.569385051727	194.0	-37.0	190.0	-37.0	1
3.0.1	2019_Mar_12_1601	s	s	15	2	SIC	82	ABS	0	0	3	4	24_3_4	NA	NA	0	1	1.75164985657	None	None	None	None	1
3.0.1	2019_Mar_12_1601	s	s	15	2	SIC	83	3_4	3	4	1	2	23_1_2	2	2	1	0	0.540328979492	-90.0	199.0	-95.0	192.0	1
3.0.1	2019_Mar_12_1601	s	s	15	2	SIC	84	ABS	0	0	4	3	24_4_3	NA	NA	0	1	2.91112494469	None	None	None	None	1
3.0.1	2019_Mar_12_1601	s	s	15	2	SIC	85	3_4	3	4	4	3	23_4_3	-1	1	1	0	0.457979917526	57.0	308.0	51.0	309.0	1
3.0.1	2019_Mar_12_1601	s	s	15	2	SIC	86	1_3	1	3	4	2	23_4_2	3	1	1	0	0.516859769821	159.0	25.0	151.0	25.0	1
3.0.1	2019_Mar_12_1601	s	s	15	2	SIC	87	3_2	3	2	2	1	23_2_1	1	-1	1	0	0.716761827469	-55.0	-347.0	-59.0	-340.0	1
3.0.1	2019_Mar_12_1601	s	s	15	2	SIC	88	ABS	0	0	2	1	24_2_1	NA	NA	0	1	1.71645402908	None	None	None	None	1
3.0.1	2019_Mar_12_1601	s	s	15	2	SIC	89	ABS	0	0	1	2	24_1_2	NA	NA	0	1	3.86255502701	None	None	None	None	1
3.0.1	2019_Mar_12_1601	s	s	15	2	SIC	90	ABS	0	0	3	3	24_3_3	NA	NA	0	1	1.88507008553	None	None	None	None	1
3.0.1	2019_Mar_12_1601	s	s	15	2	SIC	91	ABS	0	0	3	2	24_3_2	NA	NA	0	1	2.49554681778	None	None	None	None	1
3.0.1	2019_Mar_12_1601	s	s	15	2	SIC	92	2_2	2	2	3	3	23_3_3	1	1	1	0	0.613789796829	-434.0	-25.0	-433.0	-20.0	1
3.0.1	2019_Mar_12_1601	s	s	15	2	SIC	93	ABS	0	0	1	3	24_1_3	NA	NA	0	1	1.810516119	None	None	None	None	1
3.0.1	2019_Mar_12_1601	s	s	15	2	SIC	94	ABS	0	0	3	3	24_3_3	NA	NA	0	1	2.46907401085	None	None	None	None	1
3.0.1	2019_Mar_12_1601	s	s	15	2	SIC	95	2_1	2	1	4	2	23_4_2	2	1	1	0	0.462881088257	421.0	379.0	419.0	381.0	1
3.0.1	2019_Mar_12_1601	s	s	15	2	SIC	96	ABS	0	0	2	2	24_2_2	NA	NA	0	1	3.15828800201	None	None	None	None	1
3.0.1	2019_Mar_12_1601	s	s	15	2	SIC	97	ABS	0	0	1	4	24_1_4	NA	NA	0	1	2.38039803505	None	None	None	None	1
3.0.1	2019_Mar_12_1601	s	s	15	2	SIC	98	1_2	1	2	2	3	23_2_3	1	1	0	1	4.01285004616	-110.0	-399.0	None	None	0
3.0.1	2019_Mar_12_1601	s	s	15	2	SIC	99	ABS	0	0	4	3	24_4_3	NA	NA	0	1	2.98667097092	None	None	None	None	1
3.0.1	2019_Mar_12_1601	s	s	15	2	SIC	100	4_1	4	1	2	1	23_2_1	2	0	1	0	0.493302106857	-86.0	410.0	-90.0	405.0	1
3.0.1	2019_Mar_12_1601	s	s	15	2	SIC	101	2_4	2	4	3	4	23_3_4	1	0	1	0	0.57842206955	-62.0	109.0	-52.0	114.0	1
3.0.1	2019_Mar_12_1601	s	s	15	2	SIC	102	ABS	0	0	2	4	24_2_4	NA	NA	0	1	1.74109816551	None	None	None	None	1
3.0.1	2019_Mar_12_1601	s	s	15	2	SIC	103	3_3	3	3	2	4	23_2_4	1	-1	1	0	0.599091053009	311.0	407.0	307.0	411.0	1
3.0.1	2019_Mar_12_1601	s	s	15	2	SIC	104	ABS	0	0	2	4	24_2_4	NA	NA	0	1	1.26459288597	None	None	None	None	1
3.0.1	2019_Mar_12_1601	s	s	15	2	SIC	105	2_2	2	2	2	3	23_2_3	0	1	0	1	2.42759990692	122.0	15.0	None	None	0
3.0.1	2019_Mar_12_1601	s	s	15	2	SIC	106	1_3	1	3	2	1	23_2_1	1	2	1	0	1.79478883743	275.0	-182.0	265.0	-180.0	1
3.0.1	2019_Mar_12_1601	s	s	15	2	SIC	107	ABS	0	0	1	2	24_1_2	NA	NA	0	1	2.78036999702	None	None	None	None	1
3.0.1	2019_Mar_12_1601	s	s	15	2	SIC	108	ABS	0	0	2	2	24_2_2	NA	NA	0	1	2.34322810173	None	None	None	None	1
3.0.1	2019_Mar_12_1601	s	s	15	2	SIC	109	ABS	0	0	1	1	24_1_1	NA	NA	0	1	2.58674407005	None	None	None	None	1
3.0.1	2019_Mar_12_1601	s	s	15	2	SIC	110	3_1	3	1	2	3	23_2_3	1	2	1	0	0.592665195465	-217.0	310.0	-216.0	306.0	1
3.0.1	2019_Mar_12_1601	s	s	15	2	SIC	111	ABS	0	0	2	1	24_2_1	NA	NA	0	1	0.907788038254	None	None	None	None	1
3.0.1	2019_Mar_12_1601	s	s	15	2	SIC	112	ABS	0	0	4	3	24_4_3	NA	NA	0	1	2.97486805916	None	None	None	None	1
3.0.1	2019_Mar_12_1601	s	s	15	2	SIC	113	1_2	1	2	1	4	23_1_4	0	2	1	0	0.857861995697	-211.0	313.0	-210.0	306.0	1
3.0.1	2019_Mar_12_1601	s	s	15	2	SIC	114	2_3	2	3	2	4	23_2_4	0	-1	0	1	2.2014670372	524.0	159.0	None	None	0
3.0.1	2019_Mar_12_1601	s	s	15	2	SIC	115	ABS	0	0	1	2	24_1_2	NA	NA	0	1	2.33093690872	None	None	None	None	1
3.0.1	2019_Mar_12_1601	s	s	15	2	SIC	116	3_1	3	1	3	3	23_3_3	0	2	1	0	1.438975811	292.0	187.0	300.0	192.0	1
3.0.1	2019_Mar_12_1601	s	s	15	2	SIC	117	4_1	4	1	1	3	23_1_3	3	2	1	0	0.520733833313	482.0	-382.0	477.0	-390.0	1
3.0.1	2019_Mar_12_1601	s	s	15	2	SIC	118	3_3	3	3	4	2	23_4_2	-1	1	1	0	0.587343931198	177.0	139.0	187.0	138.0	1
3.0.1	2019_Mar_12_1601	s	s	15	2	SIC	119	1_3	1	3	3	4	23_3_4	2	-1	1	0	0.533411979675	287.0	239.0	289.0	245.0	1
3.0.1	2019_Mar_12_1601	s	s	15	2	SIC	120	ABS	0	0	1	3	24_1_3	NA	NA	0	1	3.26892113686	None	None	None	None	1
3.0.1	2019_Mar_12_1601	s	s	15	2	SIC	121	ABS	0	0	1	2	24_1_2	NA	NA	0	1	1.91939997673	None	None	None	None	1
3.0.1	2019_Mar_12_1601	s	s	15	2	SIC	122	3_2	3	2	1	4	23_1_4	2	2	1	0	0.505105018616	394.0	358.0	400.0	360.0	1
3.0.1	2019_Mar_12_1601	s	s	15	2	SIC	123	ABS	0	0	2	3	24_2_3	NA	NA	0	1	2.12806010246	None	None	None	None	1
3.0.1	2019_Mar_12_1601	s	s	15	2	SIC	124	3_1	3	1	4	4	23_4_4	-1	3	1	0	0.469655990601	-174.0	251.0	-168.0	243.0	1
3.0.1	2019_Mar_12_1601	s	s	15	2	SIC	125	4_3	4	3	2	2	23_2_2	2	1	1	0	0.437366962433	-86.0	150.0	-78.0	150.0	1
3.0.1	2019_Mar_12_1601	s	s	15	2	SIC	126	ABS	0	0	1	2	24_1_2	NA	NA	0	1	1.64581012726	None	None	None	None	1
3.0.1	2019_Mar_12_1601	s	s	15	2	SIC	127	ABS	0	0	4	1	24_4_1	NA	NA	0	1	1.61050200462	None	None	None	None	1
3.0.1	2019_Mar_12_1601	s	s	15	2	SIC	128	1_3	1	3	4	3	23_4_3	3	0	1	0	0.481575012207	297.0	-143.0	296.0	-143.0	1
3.0.1	2019_Mar_12_1601	s	s	15	2	SIC	129	ABS	0	0	1	4	24_1_4	NA	NA	0	1	2.37388396263	None	None	None	None	1
3.0.1	2019_Mar_12_1601	s	s	15	2	SIC	130	2_3	2	3	4	4	23_4_4	2	-1	1	0	0.516811847687	511.0	-316.0	500.0	-311.0	1
3.0.1	2019_Mar_12_1601	s	s	15	2	SIC	131	ABS	0	0	2	2	24_2_2	NA	NA	0	1	2.14780402184	None	None	None	None	1
3.0.1	2019_Mar_12_1601	s	s	15	2	SIC	132	ABS	0	0	4	4	24_4_4	NA	NA	0	1	1.33318209648	None	None	None	None	1
3.0.1	2019_Mar_12_1601	s	s	15	2	SIC	133	2_3	2	3	4	2	23_4_2	2	1	1	0	0.481561899185	-461.0	-358.0	-471.0	-353.0	1
3.0.1	2019_Mar_12_1601	s	s	15	2	SIC	134	1_3	1	3	3	3	23_3_3	2	0	1	0	0.563872098923	494.0	-184.0	493.0	-175.0	1
3.0.1	2019_Mar_12_1601	s	s	15	2	SIC	135	ABS	0	0	4	1	24_4_1	NA	NA	0	1	1.28614711761	None	None	None	None	1
3.0.1	2019_Mar_12_1601	s	s	15	2	SIC	136	1_1	1	1	3	1	23_3_1	2	0	1	0	0.457925796509	-101.0	-8.0	-105.0	-11.0	1
3.0.1	2019_Mar_12_1601	s	s	15	2	SIC	137	1_3	1	3	4	4	23_4_4	3	-1	1	0	0.599092006683	186.0	359.0	184.0	358.0	1
3.0.1	2019_Mar_12_1601	s	s	15	2	SIC	138	2_1	2	1	1	3	23_1_3	-1	2	0	1	2.85046315193	378.0	-212.0	None	None	0
3.0.1	2019_Mar_12_1601	s	s	15	2	SIC	139	1_4	1	4	3	2	23_3_2	2	2	1	0	0.545302152634	-507.0	-54.0	-510.0	-50.0	1
3.0.1	2019_Mar_12_1601	s	s	15	2	SIC	140	4_3	4	3	3	3	23_3_3	1	0	1	0	0.578741073608	-399.0	101.0	-397.0	102.0	1
3.0.1	2019_Mar_12_1601	s	s	15	2	SIC	141	4_4	4	4	1	4	23_1_4	3	0	1	0	0.580659866333	352.0	-239.0	351.0	-233.0	1
3.0.1	2019_Mar_12_1601	s	s	15	2	SIC	142	ABS	0	0	1	2	24_1_2	NA	NA	0	1	2.07558107376	None	None	None	None	1
3.0.1	2019_Mar_12_1601	s	s	15	2	SIC	143	1_3	1	3	2	4	23_2_4	1	-1	1	0	1.58741807938	-257.0	405.0	-255.0	410.0	1
3.0.1	2019_Mar_12_1601	s	s	15	2	SIC	144	ABS	0	0	4	3	24_4_3	NA	NA	0	1	2.63981580734	None	None	None	None	1
3.0.1	2019_Mar_12_1601	s	s	15	2	SIC	145	ABS	0	0	3	1	24_3_1	NA	NA	0	1	1.26945114136	None	None	None	None	1
3.0.1	2019_Mar_12_1601	s	s	15	2	SIC	146	2_4	2	4	1	3	23_1_3	-1	1	1	0	1.06182289124	-424.0	99.0	-423.0	97.0	1
3.0.1	2019_Mar_12_1601	s	s	15	2	SIC	147	ABS	0	0	2	2	24_2_2	NA	NA	0	1	1.98119878769	None	None	None	None	1
3.0.1	2019_Mar_12_1601	s	s	15	2	SIC	148	4_1	4	1	1	2	23_1_2	3	1	1	0	0.476721048355	525.0	-271.0	525.0	-277.0	1
3.0.1	2019_Mar_12_1601	s	s	15	2	SIC	149	ABS	0	0	1	3	24_1_3	NA	NA	0	1	1.33998203278	None	None	None	None	1
3.0.1	2019_Mar_12_1601	s	s	15	2	SIC	150	ABS	0	0	1	4	24_1_4	NA	NA	0	1	1.58703804016	None	None	None	None	1
3.0.1	2019_Mar_12_1601	s	s	15	2	SIC	151	ABS	0	0	2	3	24_2_3	NA	NA	0	1	1.61353588104	None	None	None	None	1
3.0.1	2019_Mar_12_1601	s	s	15	2	SIC	152	ABS	0	0	4	2	24_4_2	NA	NA	0	1	1.76757884026	None	None	None	None	1
3.0.1	2019_Mar_12_1601	s	s	15	2	SIC	153	ABS	0	0	2	1	24_2_1	NA	NA	0	1	1.49905490875	None	None	None	None	1
3.0.1	2019_Mar_12_1601	s	s	15	2	SIC	154	4_3	4	3	3	1	23_3_1	1	2	1	0	0.528541088104	-262.0	398.0	-271.0	405.0	1
3.0.1	2019_Mar_12_1601	s	s	15	2	SIC	155	3_2	3	2	4	2	23_4_2	-1	0	1	0	0.516758918762	-281.0	-390.0	-276.0	-401.0	1
3.0.1	2019_Mar_12_1601	s	s	15	2	SIC	156	ABS	0	0	1	1	24_1_1	NA	NA	0	1	1.01110601425	None	None	None	None	1
3.0.1	2019_Mar_12_1601	s	s	15	2	SIC	157	ABS	0	0	2	3	24_2_3	NA	NA	0	1	2.63388490677	None	None	None	None	1
3.0.1	2019_Mar_12_1601	s	s	15	2	SIC	158	ABS	0	0	1	3	24_1_3	NA	NA	0	1	1.65765595436	None	None	None	None	1
3.0.1	2019_Mar_12_1601	s	s	15	2	SIC	159	4_3	4	3	3	2	23_3_2	1	1	1	0	0.481528043747	-85.0	-80.0	-76.0	-71.0	1
3.0.1	2019_Mar_12_1601	s	s	15	2	SIC	160	4_2	4	2	3	1	23_3_1	1	-1	1	0	0.476150989532	-26.0	266.0	-35.0	262.0	1
3.0.1	2019_Mar_12_1601	s	s	15	2	SIC	161	3_1	3	1	1	3	23_1_3	2	2	1	0	0.55495095253	226.0	318.0	227.0	315.0	1
3.0.1	2019_Mar_12_1601	s	s	15	2	SIC	162	3_3	3	3	4	3	23_4_3	-1	0	1	0	0.528544187546	471.0	-351.0	465.0	-345.0	1
3.0.1	2019_Mar_12_1601	s	s	15	2	SIC	163	2_3	2	3	4	1	23_4_1	2	2	1	0	0.457938909531	333.0	-138.0	335.0	-136.0	1
3.0.1	2019_Mar_12_1601	s	s	15	2	SIC	164	4_4	4	4	1	3	23_1_3	3	1	1	0	0.481508016586	-24.0	-218.0	-27.0	-210.0	1
3.0.1	2019_Mar_12_1601	s	s	15	2	SIC	165	ABS	0	0	2	4	24_2_4	NA	NA	0	1	2.00379776955	None	None	None	None	1
3.0.1	2019_Mar_12_1601	s	s	15	2	SIC	166	4_2	4	2	2	2	23_2_2	2	0	1	0	0.427555084229	-48.0	222.0	-52.0	217.0	1
3.0.1	2019_Mar_12_1601	s	s	15	2	SIC	167	3_4	3	4	2	4	23_2_4	1	0	1	0	0.481536149979	16.0	-111.0	11.0	-117.0	1
3.0.1	2019_Mar_12_1601	s	s	15	2	SIC	168	ABS	0	0	1	3	24_1_3	NA	NA	0	1	1.66270899773	None	None	None	None	1
3.0.1	2019_Mar_12_1601	s	s	15	2	SIC	169	ABS	0	0	2	2	24_2_2	NA	NA	0	1	1.3636469841	None	None	None	None	1
3.0.1	2019_Mar_12_1601	s	s	15	2	SIC	170	ABS	0	0	1	2	24_1_2	NA	NA	0	1	1.41068887711	None	None	None	None	1
3.0.1	2019_Mar_12_1601	s	s	15	2	SIC	171	ABS	0	0	1	2	24_1_2	NA	NA	0	1	1.25132393837	None	None	None	None	1
3.0.1	2019_Mar_12_1601	s	s	15	2	SIC	172	4_3	4	3	2	1	23_2_1	2	2	1	0	0.509518146515	223.0	-139.0	217.0	-142.0	1
3.0.1	2019_Mar_12_1601	s	s	15	2	SIC	173	1_2	1	2	3	1	23_3_1	2	-1	1	0	0.846029996872	325.0	-77.0	325.0	-77.0	1
3.0.1	2019_Mar_12_1601	s	s	15	2	SIC	174	ABS	0	0	3	4	24_3_4	NA	NA	0	1	1.65768814087	None	None	None	None	1
3.0.1	2019_Mar_12_1601	s	s	15	2	SIC	175	2_4	2	4	2	3	23_2_3	0	1	1	0	0.808967113495	-118.0	393.0	-125.0	390.0	1
3.0.1	2019_Mar_12_1601	s	s	15	2	SIC	176	3_1	3	1	1	4	23_1_4	2	3	1	0	0.569757938385	468.0	116.0	468.0	105.0	1
3.0.1	2019_Mar_12_1601	s	s	15	2	SIC	177	ABS	0	0	1	4	24_1_4	NA	NA	0	1	1.18728899956	None	None	None	None	1
3.0.1	2019_Mar_12_1601	s	s	15	2	SIC	178	ABS	0	0	1	1	24_1_1	NA	NA	0	1	1.49991798401	None	None	None	None	1
3.0.1	2019_Mar_12_1601	s	s	15	2	SIC	179	ABS	0	0	2	2	24_2_2	NA	NA	0	1	1.01362299919	None	None	None	None	1
3.0.1	2019_Mar_12_1601	s	s	15	2	SIC	180	ABS	0	0	3	4	24_3_4	NA	NA	0	1	1.36358904839	None	None	None	None	1
3.0.1	2019_Mar_12_1601	s	s	15	2	SIC	181	ABS	0	0	3	3	24_3_3	NA	NA	0	1	2.20192098618	None	None	None	None	1
3.0.1	2019_Mar_12_1601	s	s	15	2	SIC	182	1_4	1	4	4	3	23_4_3	3	1	1	0	0.528516054153	465.0	340.0	458.0	342.0	1
3.0.1	2019_Mar_12_1601	s	s	15	2	SIC	183	3_2	3	2	2	3	23_2_3	1	1	1	0	0.578665018082	258.0	76.0	262.0	78.0	1
3.0.1	2019_Mar_12_1601	s	s	15	2	SIC	184	2_3	2	3	1	2	23_1_2	-1	1	1	0	4.00490999222	-213.0	297.0	-219.0	292.0	1
3.0.1	2019_Mar_12_1601	s	s	15	2	SIC	185	1_4	1	4	3	4	23_3_4	2	0	1	0	0.810866117477	185.0	167.0	174.0	168.0	1
3.0.1	2019_Mar_12_1601	s	s	15	2	SIC	186	ABS	0	0	1	1	24_1_1	NA	NA	0	1	2.01048207283	None	None	None	None	1
3.0.1	2019_Mar_12_1601	s	s	15	2	SIC	187	ABS	0	0	4	2	24_4_2	NA	NA	0	1	2.18032598495	None	None	None	None	1
3.0.1	2019_Mar_12_1601	s	s	15	2	SIC	188	4_1	4	1	2	4	23_2_4	2	3	1	0	0.496163845062	-53.0	-356.0	-53.0	-348.0	1
3.0.1	2019_Mar_12_1601	s	s	15	2	SIC	189	ABS	0	0	3	2	24_3_2	NA	NA	0	1	1.53257799149	None	None	None	None	1
3.0.1	2019_Mar_12_1601	s	s	15	2	SIC	190	1_1	1	1	2	3	23_2_3	1	2	1	0	1.08628296852	-439.0	146.0	-434.0	150.0	1
3.0.1	2019_Mar_12_1601	s	s	15	2	SIC	191	ABS	0	0	3	2	24_3_2	NA	NA	0	1	1.40501999855	None	None	None	None	1
3.0.1	2019_Mar_12_1601	s	s	15	2	SIC	192	1_1	1	1	4	2	23_4_2	3	1	1	0	0.415174007416	-423.0	-103.0	-427.0	-108.0	1
3.0.1	2019_Mar_12_1601	s	s	15	2	SIC	193	4_1	4	1	3	4	23_3_4	1	3	1	0	0.469845056534	-434.0	-191.0	-430.0	-193.0	1
3.0.1	2019_Mar_12_1601	s	s	15	2	SIC	194	ABS	0	0	3	4	24_3_4	NA	NA	0	1	1.30875396729	None	None	None	None	1
3.0.1	2019_Mar_12_1601	s	s	15	2	SIC	195	1_2	1	2	2	1	23_2_1	1	-1	1	0	1.82884812355	138.0	-355.0	134.0	-352.0	1
3.0.1	2019_Mar_12_1601	s	s	15	2	SIC	196	1_4	1	4	3	3	23_3_3	2	1	1	0	0.496159076691	322.0	257.0	328.0	251.0	1
3.0.1	2019_Mar_12_1601	s	s	15	2	SIC	197	2_1	2	1	3	2	23_3_2	1	1	1	0	0.681432008743	531.0	335.0	531.0	331.0	1
3.0.1	2019_Mar_12_1601	s	s	15	2	SIC	198	2_3	2	3	3	1	23_3_1	1	2	1	0	0.746719121933	-400.0	13.0	-388.0	20.0	1
3.0.1	2019_Mar_12_1601	s	s	15	2	SIC	199	4_2	4	2	3	4	23_3_4	1	2	1	0	0.496176958084	-357.0	48.0	-351.0	45.0	1
3.0.1	2019_Mar_12_1601	s	s	15	2	SIC	200	2_3	2	3	3	2	23_3_2	1	1	1	0	0.545511007309	338.0	-371.0	338.0	-368.0	1
3.0.1	2019_Mar_12_1601	s	s	15	2	SIC	201	1_2	1	2	4	1	23_4_1	3	-1	1	0	0.378542900085	194.0	94.0	191.0	98.0	1
3.0.1	2019_Mar_12_1601	s	s	15	2	SIC	202	1_2	1	2	3	3	23_3_3	2	1	1	0	0.481638908386	-306.0	113.0	-313.0	113.0	1
3.0.1	2019_Mar_12_1601	s	s	15	2	SIC	203	ABS	0	0	1	4	24_1_4	NA	NA	0	1	1.70483493805	None	None	None	None	1
3.0.1	2019_Mar_12_1601	s	s	15	2	SIC	204	3_2	3	2	2	2	23_2_2	1	0	1	0	1.20356893539	209.0	-367.0	209.0	-366.0	1
3.0.1	2019_Mar_12_1601	s	s	15	2	SIC	205	ABS	0	0	4	3	24_4_3	NA	NA	0	1	1.16368293762	None	None	None	None	1
3.0.1	2019_Mar_12_1601	s	s	15	2	SIC	206	ABS	0	0	3	4	24_3_4	NA	NA	0	1	1.21761989594	None	None	None	None	1
3.0.1	2019_Mar_12_1601	s	s	15	2	SIC	207	ABS	0	0	4	2	24_4_2	NA	NA	0	1	1.95696997643	None	None	None	None	1
3.0.1	2019_Mar_12_1601	s	s	15	2	SIC	208	ABS	0	0	2	2	24_2_2	NA	NA	0	1	2.16339492798	None	None	None	None	1
3.0.1	2019_Mar_12_1601	s	s	15	2	SIC	209	4_1	4	1	4	2	23_4_2	0	1	0	1	2.33308696747	-59.0	-152.0	None	None	0
3.0.1	2019_Mar_12_1601	s	s	15	2	SIC	210	3_4	3	4	4	1	23_4_1	-1	3	1	0	0.449239969254	76.0	-258.0	77.0	-250.0	1
3.0.1	2019_Mar_12_1601	s	s	15	2	SIC	211	ABS	0	0	2	3	24_2_3	NA	NA	0	1	2.04571413994	None	None	None	None	1
3.0.1	2019_Mar_12_1601	s	s	15	2	SIC	212	4_4	4	4	3	3	23_3_3	1	1	1	0	0.552076101303	501.0	396.0	505.0	399.0	1
3.0.1	2019_Mar_12_1601	s	s	15	2	SIC	213	2_2	2	2	3	1	23_3_1	1	-1	1	0	0.61952495575	414.0	-159.0	419.0	-154.0	1
3.0.1	2019_Mar_12_1601	s	s	15	2	SIC	214	ABS	0	0	1	3	24_1_3	NA	NA	0	1	1.58039808273	None	None	None	None	1
3.0.1	2019_Mar_12_1601	s	s	15	2	SIC	215	1_1	1	1	1	2	23_1_2	0	1	0	1	2.03408694267	351.0	68.0	None	None	0
3.0.1	2019_Mar_12_1601	s	s	15	2	SIC	216	ABS	0	0	3	3	24_3_3	NA	NA	0	1	1.35689902306	None	None	None	None	1
3.0.1	2019_Mar_12_1601	s	s	15	2	SIC	217	ABS	0	0	4	1	24_4_1	NA	NA	0	1	1.61661195755	None	None	None	None	1
3.0.1	2019_Mar_12_1601	s	s	15	2	SIC	218	ABS	0	0	1	3	24_1_3	NA	NA	0	1	2.91611003876	None	None	None	None	1
3.0.1	2019_Mar_12_1601	s	s	15	2	SIC	219	4_2	4	2	2	1	23_2_1	2	-1	1	0	0.450547933578	-273.0	-173.0	-283.0	-170.0	1
3.0.1	2019_Mar_12_1601	s	s	15	2	SIC	220	3_1	3	1	1	2	23_1_2	2	1	1	0	0.578619003296	435.0	-86.0	442.0	-88.0	1
3.0.1	2019_Mar_12_1601	s	s	15	2	SIC	221	ABS	0	0	4	4	24_4_4	NA	NA	0	1	1.85753202438	None	None	None	None	1
3.0.1	2019_Mar_12_1601	s	s	15	2	SIC	222	4_4	4	4	4	2	23_4_2	0	2	1	0	2.48138022423	519.0	310.0	517.0	305.0	1
3.0.1	2019_Mar_12_1601	s	s	15	2	SIC	223	2_2	2	2	3	4	23_3_4	1	2	1	0	0.721821784973	256.0	-305.0	248.0	-297.0	1
3.0.1	2019_Mar_12_1601	s	s	15	2	SIC	224	ABS	0	0	1	3	24_1_3	NA	NA	0	1	2.42213606834	None	None	None	None	1
3.0.1	2019_Mar_12_1601	s	s	15	2	SIC	225	3_3	3	3	1	1	23_1_1	2	2	1	0	0.599164009094	-243.0	-203.0	-238.0	-203.0	1
3.0.1	2019_Mar_12_1601	s	s	15	2	SIC	226	ABS	0	0	1	4	24_1_4	NA	NA	0	1	1.6575820446	None	None	None	None	1
3.0.1	2019_Mar_12_1601	s	s	15	2	SIC	227	ABS	0	0	2	4	24_2_4	NA	NA	0	1	1.59209489822	None	None	None	None	1
3.0.1	2019_Mar_12_1601	s	s	15	2	SIC	228	ABS	0	0	1	1	24_1_1	NA	NA	0	1	1.15192818642	None	None	None	None	1
3.0.1	2019_Mar_12_1601	s	s	15	2	SIC	229	3_2	3	2	1	2	23_1_2	2	0	1	0	0.557418823242	-246.0	260.0	-240.0	260.0	1
3.0.1	2019_Mar_12_1601	s	s	15	2	SIC	230	ABS	0	0	3	3	24_3_3	NA	NA	0	1	1.09771418571	None	None	None	None	1
3.0.1	2019_Mar_12_1601	s	s	15	2	SIC	231	2_4	2	4	3	1	23_3_1	1	3	1	0	0.59938287735	-244.0	407.0	-241.0	396.0	1
3.0.1	2019_Mar_12_1601	s	s	15	2	SIC	232	ABS	0	0	1	1	24_1_1	NA	NA	0	1	1.0459690094	None	None	None	None	1
3.0.1	2019_Mar_12_1601	s	s	15	2	SIC	233	ABS	0	0	4	4	24_4_4	NA	NA	0	1	1.0488960743	None	None	None	None	1
3.0.1	2019_Mar_12_1601	s	s	15	2	SIC	234	4_4	4	4	4	3	23_4_3	0	1	1	0	0.834391832352	-519.0	-104.0	-519.0	-105.0	1
3.0.1	2019_Mar_12_1601	s	s	15	2	SIC	235	ABS	0	0	1	3	24_1_3	NA	NA	0	1	1.65760803223	None	None	None	None	1
3.0.1	2019_Mar_12_1601	s	s	15	2	SIC	236	2_4	2	4	4	2	23_4_2	2	2	1	0	0.403921127319	208.0	-16.0	210.0	-12.0	1
3.0.1	2019_Mar_12_1601	s	s	15	2	SIC	237	1_3	1	3	3	2	23_3_2	2	1	1	0	0.564312934875	-134.0	-289.0	-140.0	-291.0	1
3.0.1	2019_Mar_12_1601	s	s	15	2	SIC	238	2_1	2	1	3	1	23_3_1	1	0	1	0	0.721666097641	-503.0	-53.0	-498.0	-53.0	1
3.0.1	2019_Mar_12_1601	s	s	15	2	SIC	239	ABS	0	0	4	3	24_4_3	NA	NA	0	1	2.37512183189	None	None	None	None	1
3.0.1	2019_Mar_12_1601	s	s	15	2	SIC	240	ABS	0	0	4	2	24_4_2	NA	NA	0	1	1.80585885048	None	None	None	None	1
3.0.1	2019_Mar_12_1601	s	s	15	2	SIC	241	3_2	3	2	1	1	23_1_1	2	-1	1	0	0.540277004242	-23.0	-48.0	-21.0	-38.0	1
3.0.1	2019_Mar_12_1601	s	s	15	2	SIC	242	ABS	0	0	3	3	24_3_3	NA	NA	0	1	2.15055203438	None	None	None	None	1
3.0.1	2019_Mar_12_1601	s	s	15	2	SIC	243	ABS	0	0	2	3	24_2_3	NA	NA	0	1	2.68122410774	None	None	None	None	1
3.0.1	2019_Mar_12_1601	s	s	15	2	SIC	244	2_2	2	2	1	3	23_1_3	-1	1	0	1	2.10457515717	182.0	-91.0	None	None	0
3.0.1	2019_Mar_12_1601	s	s	15	2	SIC	245	2_4	2	4	3	3	23_3_3	1	1	1	0	0.614770889282	-342.0	-221.0	-339.0	-218.0	1
3.0.1	2019_Mar_12_1601	s	s	15	2	SIC	246	1_4	1	4	2	2	23_2_2	1	2	1	0	0.628093957901	-303.0	-206.0	-303.0	-205.0	1
3.0.1	2019_Mar_12_1601	s	s	15	2	SIC	247	ABS	0	0	4	2	24_4_2	NA	NA	0	1	1.71630692482	None	None	None	None	1
3.0.1	2019_Mar_12_1601	s	s	15	2	SIC	248	2_4	2	4	4	4	23_4_4	2	0	1	0	0.449070930481	-237.0	-360.0	-242.0	-370.0	1
3.0.1	2019_Mar_12_1601	s	s	15	2	SIC	249	ABS	0	0	3	1	24_3_1	NA	NA	0	1	1.03150510788	None	None	None	None	1
3.0.1	2019_Mar_12_1601	s	s	15	2	SIC	250	ABS	0	0	1	4	24_1_4	NA	NA	0	1	1.76340103149	None	None	None	None	1
3.0.1	2019_Mar_12_1601	s	s	15	2	SIC	251	ABS	0	0	2	1	24_2_1	NA	NA	0	1	1.27630114555	None	None	None	None	1
3.0.1	2019_Mar_12_1601	s	s	15	2	SIC	252	ABS	0	0	2	3	24_2_3	NA	NA	0	1	1.86245417595	None	None	None	None	1
3.0.1	2019_Mar_12_1601	s	s	15	2	SIC	253	1_2	1	2	1	1	23_1_1	0	-1	0	1	1.16364598274	-178.0	-38.0	None	None	0
3.0.1	2019_Mar_12_1601	s	s	15	2	SIC	254	ABS	0	0	3	3	24_3_3	NA	NA	0	1	1.31947612762	None	None	None	None	1
3.0.1	2019_Mar_12_1601	s	s	15	2	SIC	255	1_3	1	3	1	1	23_1_1	0	2	1	0	1.25775790215	98.0	56.0	102.0	53.0	1
3.0.1	2019_Mar_12_1601	s	s	15	2	SIC	256	ABS	0	0	4	3	24_4_3	NA	NA	0	1	1.75173020363	None	None	None	None	1
3.0.1	2019_Mar_12_1601	s	s	15	2	SIC	257	1_3	1	3	1	4	23_1_4	0	-1	1	0	1.31947898865	-101.0	122.0	-97.0	120.0	1
3.0.1	2019_Mar_12_1601	s	s	15	2	SIC	258	ABS	0	0	2	4	24_2_4	NA	NA	0	1	1.31175112724	None	None	None	None	1
3.0.1	2019_Mar_12_1601	s	s	15	2	SIC	259	2_1	2	1	3	3	23_3_3	1	2	1	0	0.755892038345	-274.0	-240.0	-275.0	-243.0	1
3.0.1	2019_Mar_12_1601	s	s	15	2	SIC	260	4_2	4	2	3	3	23_3_3	1	1	1	0	0.554949998856	-373.0	-86.0	-370.0	-96.0	1
3.0.1	2019_Mar_12_1601	s	s	15	2	SIC	261	ABS	0	0	4	2	24_4_2	NA	NA	0	1	1.37924408913	None	None	None	None	1
3.0.1	2019_Mar_12_1601	s	s	15	2	SIC	262	ABS	0	0	3	3	24_3_3	NA	NA	0	1	1.62232398987	None	None	None	None	1
3.0.1	2019_Mar_12_1601	s	s	15	2	SIC	263	4_4	4	4	4	1	23_4_1	0	3	1	0	0.68970990181	-509.0	-147.0	-514.0	-146.0	1
3.0.1	2019_Mar_12_1601	s	s	15	2	SIC	264	3_4	3	4	2	1	23_2_1	1	3	1	0	0.716811180115	-427.0	-93.0	-428.0	-95.0	1
3.0.1	2019_Mar_12_1601	s	s	15	2	SIC	265	ABS	0	0	4	2	24_4_2	NA	NA	0	1	1.67734503746	None	None	None	None	1
3.0.1	2019_Mar_12_1601	s	s	15	2	SIC	266	ABS	0	0	4	4	24_4_4	NA	NA	0	1	1.71640586853	None	None	None	None	1
3.0.1	2019_Mar_12_1601	s	s	15	2	SIC	267	2_3	2	3	3	3	23_3_3	1	0	1	0	0.528501987457	132.0	60.0	133.0	58.0	1
3.0.1	2019_Mar_12_1601	s	s	15	2	SIC	268	ABS	0	0	2	2	24_2_2	NA	NA	0	1	1.99875187874	None	None	None	None	1
3.0.1	2019_Mar_12_1601	s	s	15	2	SIC	269	3_1	3	1	1	1	23_1_1	2	0	1	0	0.604443073273	346.0	340.0	359.0	350.0	1
3.0.1	2019_Mar_12_1601	s	s	15	2	SIC	270	4_4	4	4	1	1	23_1_1	3	3	1	0	0.481525182724	-503.0	23.0	-507.0	20.0	1
3.0.1	2019_Mar_12_1601	s	s	15	2	SIC	271	ABS	0	0	1	1	24_1_1	NA	NA	0	1	1.0307559967	None	None	None	None	1
3.0.1	2019_Mar_12_1601	s	s	15	2	SIC	272	ABS	0	0	4	1	24_4_1	NA	NA	0	1	0.899996995926	None	None	None	None	1
3.0.1	2019_Mar_12_1601	s	s	15	2	SIC	273	ABS	0	0	4	1	24_4_1	NA	NA	0	1	0.708755016327	None	None	None	None	1
3.0.1	2019_Mar_12_1601	s	s	15	2	SIC	274	ABS	0	0	1	2	24_1_2	NA	NA	0	1	3.12776708603	None	None	None	None	1
3.0.1	2019_Mar_12_1601	s	s	15	2	SIC	275	2_4	2	4	1	2	23_1_2	-1	2	1	0	0.599109888077	-352.0	42.0	-352.0	44.0	1
3.0.1	2019_Mar_12_1601	s	s	15	2	SIC	276	ABS	0	0	3	1	24_3_1	NA	NA	0	1	1.6296749115	None	None	None	None	1
3.0.1	2019_Mar_12_1601	s	s	15	2	SIC	277	ABS	0	0	3	4	24_3_4	NA	NA	0	1	1.53252506256	None	None	None	None	1
3.0.1	2019_Mar_12_1601	s	s	15	2	SIC	278	ABS	0	0	2	3	24_2_3	NA	NA	0	1	3.15611791611	None	None	None	None	1
3.0.1	2019_Mar_12_1601	s	s	15	2	SIC	279	3_2	3	2	4	3	23_4_3	-1	1	1	0	0.457997083664	-331.0	213.0	-332.0	206.0	1
3.0.1	2019_Mar_12_1601	s	s	15	2	SIC	280	2_1	2	1	2	2	23_2_2	0	1	0	1	1.60581111908	-278.0	321.0	None	None	0
3.0.1	2019_Mar_12_1601	s	s	15	2	SIC	281	ABS	0	0	2	4	24_2_4	NA	NA	0	1	1.33220505714	None	None	None	None	1
3.0.1	2019_Mar_12_1601	s	s	15	2	SIC	282	ABS	0	0	3	4	24_3_4	NA	NA	0	1	0.951929807663	None	None	None	None	1
3.0.1	2019_Mar_12_1601	s	s	15	2	SIC	283	3_4	3	4	1	1	23_1_1	2	3	1	0	0.763989925385	529.0	-383.0	522.0	-386.0	1
3.0.1	2019_Mar_12_1601	s	s	15	2	SIC	284	ABS	0	0	3	2	24_3_2	NA	NA	0	1	1.82220005989	None	None	None	None	1
3.0.1	2019_Mar_12_1601	s	s	15	2	SIC	285	ABS	0	0	4	1	24_4_1	NA	NA	0	1	1.15187978745	None	None	None	None	1
3.0.1	2019_Mar_12_1601	s	s	15	2	SIC	286	ABS	0	0	2	1	24_2_1	NA	NA	0	1	1.14816784859	None	None	None	None	1
3.0.1	2019_Mar_12_1601	s	s	15	2	SIC	287	1_4	1	4	2	4	23_2_4	1	0	0	1	1.30482983589	-537.0	-143.0	None	None	0
3.0.1	2019_Mar_12_1601	s	s	15	2	SIC	288	ABS	0	0	3	2	24_3_2	NA	NA	0	1	1.52822804451	None	None	None	None	1
3.0.1	2019_Mar_12_1601	s	s	15	2	SIC	289	2_3	2	3	1	3	23_1_3	-1	0	0	1	1.62769293785	462.0	106.0	None	None	0
3.0.1	2019_Mar_12_1601	s	s	15	2	SIC	290	3_2	3	2	3	1	23_3_1	0	-1	0	1	2.06946516037	494.0	235.0	None	None	0
3.0.1	2019_Mar_12_1601	s	s	15	2	SIC	291	1_1	1	1	3	4	23_3_4	2	3	1	0	0.672603845596	-152.0	-370.0	-154.0	-362.0	1
3.0.1	2019_Mar_12_1601	s	s	15	2	SIC	292	ABS	0	0	1	1	24_1_1	NA	NA	0	1	1.43417310715	None	None	None	None	1
3.0.1	2019_Mar_12_1601	s	s	15	2	SIC	293	3_1	3	1	3	4	23_3_4	0	3	1	0	0.951997041702	419.0	340.0	417.0	334.0	1
3.0.1	2019_Mar_12_1601	s	s	15	2	SIC	294	1_1	1	1	4	3	23_4_3	3	2	1	0	0.709158182144	-252.0	-271.0	-248.0	-271.0	1
3.0.1	2019_Mar_12_1601	s	s	15	2	SIC	295	ABS	0	0	4	2	24_4_2	NA	NA	0	1	2.23387908936	None	None	None	None	1
3.0.1	2019_Mar_12_1601	s	s	15	2	SIC	296	ABS	0	0	3	1	24_3_1	NA	NA	0	1	1.24600601196	None	None	None	None	1
3.0.1	2019_Mar_12_1601	s	s	15	2	SIC	297	ABS	0	0	2	1	24_2_1	NA	NA	0	1	1.66305613518	None	None	None	None	1
3.0.1	2019_Mar_12_1601	s	s	15	2	SIC	298	4_4	4	4	2	1	23_2_1	2	3	1	0	0.502044200897	88.0	183.0	91.0	184.0	1
3.0.1	2019_Mar_12_1601	s	s	15	2	SIC	299	1_4	1	4	1	1	23_1_1	0	3	1	0	0.863622188568	-99.0	315.0	-95.0	303.0	1
3.0.1	2019_Mar_12_1601	s	s	15	2	SIC	300	ABS	0	0	1	3	24_1_3	NA	NA	0	1	2.01710796356	None	None	None	None	1
3.0.1	2019_Mar_12_1601	s	s	15	2	SIC	301	ABS	0	0	1	4	24_1_4	NA	NA	0	1	1.20183205605	None	None	None	None	1
3.0.1	2019_Mar_12_1601	s	s	15	2	SIC	302	ABS	0	0	2	3	24_2_3	NA	NA	0	1	1.66097593307	None	None	None	None	1
3.0.1	2019_Mar_12_1601	s	s	15	2	SIC	303	4_3	4	3	1	2	23_1_2	3	1	1	0	0.458183050156	510.0	-195.0	515.0	-202.0	1
3.0.1	2019_Mar_12_1601	s	s	15	2	SIC	304	ABS	0	0	4	4	24_4_4	NA	NA	0	1	0.975508213043	None	None	None	None	1
3.0.1	2019_Mar_12_1601	s	s	15	2	SIC	305	ABS	0	0	3	4	24_3_4	NA	NA	0	1	0.980343103409	None	None	None	None	1
3.0.1	2019_Mar_12_1601	s	s	15	2	SIC	306	ABS	0	0	4	3	24_4_3	NA	NA	0	1	2.61825418472	None	None	None	None	1
3.0.1	2019_Mar_12_1601	s	s	15	2	SIC	307	1_4	1	4	2	1	23_2_1	1	3	1	0	0.975432872772	369.0	249.0	366.0	248.0	1
3.0.1	2019_Mar_12_1601	s	s	15	2	SIC	308	1_1	1	1	2	4	23_2_4	1	3	1	0	0.663345098495	-156.0	-269.0	-166.0	-267.0	1
3.0.1	2019_Mar_12_1601	s	s	15	2	SIC	309	ABS	0	0	2	1	24_2_1	NA	NA	0	1	1.08129405975	None	None	None	None	1
3.0.1	2019_Mar_12_1601	s	s	15	2	SIC	310	ABS	0	0	4	1	24_4_1	NA	NA	0	1	1.24601411819	None	None	None	None	1
3.0.1	2019_Mar_12_1601	s	s	15	2	SIC	311	2_1	2	1	1	2	23_1_2	-1	1	1	0	3.59129691124	-216.0	-99.0	-209.0	-106.0	1
3.0.1	2019_Mar_12_1601	s	s	15	2	SIC	312	ABS	0	0	1	4	24_1_4	NA	NA	0	1	1.55862498283	None	None	None	None	1
3.0.1	2019_Mar_12_1601	s	s	15	2	SIC	313	ABS	0	0	1	4	24_1_4	NA	NA	0	1	1.37827706337	None	None	None	None	1
3.0.1	2019_Mar_12_1601	s	s	15	2	SIC	314	1_3	1	3	1	2	23_1_2	0	1	0	1	3.06255507469	424.0	-202.0	None	None	0
3.0.1	2019_Mar_12_1601	s	s	15	2	SIC	315	2_3	2	3	2	1	23_2_1	0	2	1	0	1.99210906029	441.0	-228.0	448.0	-219.0	1
3.0.1	2019_Mar_12_1601	s	s	15	2	SIC	316	4_1	4	1	4	4	23_4_4	0	3	1	0	1.23408079147	-370.0	-335.0	-365.0	-330.0	1
3.0.1	2019_Mar_12_1601	s	s	15	2	SIC	317	2_1	2	1	2	4	23_2_4	0	3	1	0	0.822597980499	96.0	-270.0	89.0	-270.0	1
3.0.1	2019_Mar_12_1601	s	s	15	2	SIC	318	ABS	0	0	4	3	24_4_3	NA	NA	0	1	2.29270410538	None	None	None	None	1
3.0.1	2019_Mar_12_1601	s	s	15	2	SIC	319	ABS	0	0	2	2	24_2_2	NA	NA	0	1	1.77996301651	None	None	None	None	1
3.0.1	2019_Mar_12_1601	s	s	15	2	SIC	320	ABS	0	0	3	1	24_3_1	NA	NA	0	1	1.32399392128	None	None	None	None	1
3.0.1	2019_Mar_12_1601	s	s	15	2	SIC	321	ABS	0	0	3	3	24_3_3	NA	NA	0	1	3.02783489227	None	None	None	None	1
3.0.1	2019_Mar_12_1601	s	s	15	2	SIC	322	ABS	0	0	4	2	24_4_2	NA	NA	0	1	1.62719082832	None	None	None	None	1
3.0.1	2019_Mar_12_1601	s	s	15	2	SIC	323	2_1	2	1	2	3	23_2_3	0	2	0	1	1.85069489479	-111.0	159.0	None	None	0
3.0.1	2019_Mar_12_1601	s	s	15	2	SIC	324	ABS	0	0	4	2	24_4_2	NA	NA	0	1	1.68113613129	None	None	None	None	1
3.0.1	2019_Mar_12_1601	s	s	15	2	SIC	325	1_2	1	2	2	4	23_2_4	1	2	1	0	0.898535013199	-514.0	-133.0	-512.0	-135.0	1
3.0.1	2019_Mar_12_1601	s	s	15	2	SIC	326	4_2	4	2	3	2	23_3_2	1	0	1	0	0.496140003204	-126.0	357.0	-127.0	364.0	1
3.0.1	2019_Mar_12_1601	s	s	15	2	SIC	327	ABS	0	0	1	2	24_1_2	NA	NA	0	1	1.66941595078	None	None	None	None	1
3.0.1	2019_Mar_12_1601	s	s	15	2	SIC	328	ABS	0	0	1	2	24_1_2	NA	NA	0	1	2.44854307175	None	None	None	None	1
3.0.1	2019_Mar_12_1601	s	s	15	2	SIC	329	4_3	4	3	1	3	23_1_3	3	0	1	0	0.475126028061	291.0	-216.0	294.0	-224.0	1
3.0.1	2019_Mar_12_1601	s	s	15	2	SIC	330	ABS	0	0	2	1	24_2_1	NA	NA	0	1	2.4321680069	None	None	None	None	1
3.0.1	2019_Mar_12_1601	s	s	15	2	SIC	331	4_1	4	1	4	3	23_4_3	0	2	1	0	1.92229104042	-134.0	-325.0	-125.0	-329.0	1
3.0.1	2019_Mar_12_1601	s	s	15	2	SIC	332	3_3	3	3	3	1	23_3_1	0	2	1	0	1.05773687363	309.0	-386.0	299.0	-385.0	1
3.0.1	2019_Mar_12_1601	s	s	15	2	SIC	333	ABS	0	0	3	2	24_3_2	NA	NA	0	1	2.0457007885	None	None	None	None	1
3.0.1	2019_Mar_12_1601	s	s	15	2	SIC	334	ABS	0	0	3	4	24_3_4	NA	NA	0	1	3.79243707657	None	None	None	None	1
3.0.1	2019_Mar_12_1601	s	s	15	2	SIC	335	2_2	2	2	4	1	23_4_1	2	-1	1	0	0.460812091827	-476.0	-93.0	-479.0	-98.0	1
3.0.1	2019_Mar_12_1601	s	s	15	2	SIC	336	ABS	0	0	4	4	24_4_4	NA	NA	0	1	1.14030599594	None	None	None	None	1
3.0.1	2019_Mar_12_1601	s	s	15	2	SIC	337	ABS	0	0	4	3	24_4_3	NA	NA	0	1	2.04864501953	None	None	None	None	1
3.0.1	2019_Mar_12_1601	s	s	15	2	SIC	338	1_4	1	4	3	1	23_3_1	2	3	1	0	0.474008083344	-280.0	-91.0	-280.0	-83.0	1
3.0.1	2019_Mar_12_1601	s	s	15	2	SIC	339	2_1	2	1	4	3	23_4_3	2	2	1	0	0.474154949188	-414.0	-156.0	-413.0	-149.0	1
3.0.1	2019_Mar_12_1601	s	s	15	2	SIC	340	ABS	0	0	2	4	24_2_4	NA	NA	0	1	1.79573988914	None	None	None	None	1
3.0.1	2019_Mar_12_1601	s	s	15	2	SIC	341	ABS	0	0	3	3	24_3_3	NA	NA	0	1	1.34007978439	None	None	None	None	1
3.0.1	2019_Mar_12_1601	s	s	15	2	SIC	342	2_2	2	2	2	4	23_2_4	0	2	1	0	0.740638017654	-385.0	-58.0	-381.0	-64.0	1
3.0.1	2019_Mar_12_1601	s	s	15	2	SIC	343	4_3	4	3	2	4	23_2_4	2	-1	1	0	0.458075046539	-307.0	-155.0	-299.0	-159.0	1
3.0.1	2019_Mar_12_1601	s	s	15	2	SIC	344	3_3	3	3	3	4	23_3_4	0	-1	1	0	1.09790205956	365.0	-315.0	363.0	-316.0	1
3.0.1	2019_Mar_12_1601	s	s	15	2	SIC	345	ABS	0	0	4	2	24_4_2	NA	NA	0	1	2.15550303459	None	None	None	None	1
3.0.1	2019_Mar_12_1601	s	s	15	2	SIC	346	4_4	4	4	1	2	23_1_2	3	2	1	0	0.438814163208	82.0	-304.0	82.0	-309.0	1
3.0.1	2019_Mar_12_1601	s	s	15	2	SIC	347	1_3	1	3	2	3	23_2_3	1	0	0	1	1.13534998894	153.0	365.0	None	None	0
3.0.1	2019_Mar_12_1601	s	s	15	2	SIC	348	ABS	0	0	4	1	24_4_1	NA	NA	0	1	1.41353082657	None	None	None	None	1
3.0.1	2019_Mar_12_1601	s	s	15	2	SIC	349	ABS	0	0	1	3	24_1_3	NA	NA	0	1	3.4104719162	None	None	None	None	1
3.0.1	2019_Mar_12_1601	s	s	15	2	SIC	350	3_1	3	1	2	1	23_2_1	1	0	1	0	0.622628927231	141.0	-112.0	139.0	-115.0	1
3.0.1	2019_Mar_12_1601	s	s	15	2	SIC	351	ABS	0	0	2	4	24_2_4	NA	NA	0	1	1.6223192215	None	None	None	None	1
3.0.1	2019_Mar_12_1601	s	s	15	2	SIC	352	ABS	0	0	1	1	24_1_1	NA	NA	0	1	1.17348194122	None	None	None	None	1
3.0.1	2019_Mar_12_1601	s	s	15	2	SIC	353	4_1	4	1	1	4	23_1_4	3	3	1	0	0.451257944107	-425.0	-106.0	-426.0	-104.0	1
3.0.1	2019_Mar_12_1601	s	s	15	2	SIC	354	2_2	2	2	1	4	23_1_4	-1	2	1	0	0.716645002365	-109.0	-331.0	-105.0	-329.0	1
3.0.1	2019_Mar_12_1601	s	s	15	2	SIC	355	ABS	0	0	2	1	24_2_1	NA	NA	0	1	1.32832503319	None	None	None	None	1
3.0.1	2019_Mar_12_1601	s	s	15	2	SIC	356	ABS	0	0	3	2	24_3_2	NA	NA	0	1	0.979395866394	None	None	None	None	1
3.0.1	2019_Mar_12_1601	s	s	15	2	SIC	357	ABS	0	0	2	4	24_2_4	NA	NA	0	1	1.65134501457	None	None	None	None	1
3.0.1	2019_Mar_12_1601	s	s	15	2	SIC	358	ABS	0	0	4	3	24_4_3	NA	NA	0	1	1.55688285828	None	None	None	None	1
3.0.1	2019_Mar_12_1601	s	s	15	2	SIC	359	ABS	0	0	3	2	24_3_2	NA	NA	0	1	2.68087100983	None	None	None	None	1
3.0.1	2019_Mar_12_1601	s	s	15	2	SIC	360	3_2	3	2	2	4	23_2_4	1	2	1	0	0.545234203339	-395.0	267.0	-390.0	256.0	1
3.0.1	2019_Mar_12_1601	s	s	15	2	SIC	361	ABS	0	0	3	1	24_3_1	NA	NA	0	1	1.35232686996	None	None	None	None	1
3.0.1	2019_Mar_12_1601	s	s	15	2	SIC	362	ABS	0	0	3	3	24_3_3	NA	NA	0	1	1.80164599419	None	None	None	None	1
3.0.1	2019_Mar_12_1601	s	s	15	2	SIC	363	ABS	0	0	3	1	24_3_1	NA	NA	0	1	1.33462190628	None	None	None	None	1
3.0.1	2019_Mar_12_1601	s	s	15	2	SIC	364	ABS	0	0	3	1	24_3_1	NA	NA	0	1	1.167345047	None	None	None	None	1
3.0.1	2019_Mar_12_1601	s	s	15	2	SIC	365	ABS	0	0	3	2	24_3_2	NA	NA	0	1	2.81024599075	None	None	None	None	1
3.0.1	2019_Mar_12_1601	s	s	15	2	SIC	366	4_2	4	2	4	3	23_4_3	0	1	0	1	2.414757967	-168.0	-307.0	None	None	0
3.0.1	2019_Mar_12_1601	s	s	15	2	SIC	367	1_4	1	4	2	3	23_2_3	1	1	1	0	1.09325194359	-379.0	346.0	-378.0	342.0	1
3.0.1	2019_Mar_12_1601	s	s	15	2	SIC	368	4_4	4	4	2	4	23_2_4	2	0	1	0	0.469707965851	-235.0	58.0	-236.0	59.0	1
3.0.1	2019_Mar_12_1601	s	s	15	2	SIC	369	3_3	3	3	2	2	23_2_2	1	1	1	0	0.503715991974	-449.0	-128.0	-448.0	-130.0	1
3.0.1	2019_Mar_12_1601	s	s	15	2	SIC	370	ABS	0	0	1	1	24_1_1	NA	NA	0	1	1.4694890976	None	None	None	None	1
3.0.1	2019_Mar_12_1601	s	s	15	2	SIC	371	ABS	0	0	3	4	24_3_4	NA	NA	0	1	1.37529706955	None	None	None	None	1
3.0.1	2019_Mar_12_1601	s	s	15	2	SIC	372	2_4	2	4	1	1	23_1_1	-1	3	1	0	0.749223947525	187.0	326.0	179.0	324.0	1
3.0.1	2019_Mar_12_1601	s	s	15	2	SIC	373	ABS	0	0	2	1	24_2_1	NA	NA	0	1	1.46939182281	None	None	None	None	1
3.0.1	2019_Mar_12_1601	s	s	15	2	SIC	374	ABS	0	0	3	2	24_3_2	NA	NA	0	1	1.33796596527	None	None	None	None	1
3.0.1	2019_Mar_12_1601	s	s	15	2	SIC	375	ABS	0	0	3	4	24_3_4	NA	NA	0	1	0.981219768524	None	None	None	None	1
3.0.1	2019_Mar_12_1601	s	s	15	2	SIC	376	1_2	1	2	4	4	23_4_4	3	2	1	0	0.570509910583	67.0	-395.0	66.0	-396.0	1
3.0.1	2019_Mar_12_1601	s	s	15	2	SIC	377	ABS	0	0	4	4	24_4_4	NA	NA	0	1	0.790703058243	None	None	None	None	1
3.0.1	2019_Mar_12_1601	s	s	15	2	SIC	378	3_4	3	4	4	2	23_4_2	-1	2	1	0	0.502494096756	-182.0	208.0	-186.0	213.0	1
3.0.1	2019_Mar_12_1601	s	s	15	2	SIC	379	3_4	3	4	1	4	23_1_4	2	0	1	0	0.469732046127	52.0	12.0	48.0	8.0	1
3.0.1	2019_Mar_12_1601	s	s	15	2	SIC	380	1_3	1	3	4	1	23_4_1	3	2	1	0	0.411121845245	203.0	333.0	202.0	332.0	1
3.0.1	2019_Mar_12_1601	s	s	15	2	SIC	381	4_2	4	2	2	4	23_2_4	2	2	1	0	0.399127006531	210.0	359.0	212.0	348.0	1
3.0.1	2019_Mar_12_1601	s	s	15	2	SIC	382	2_3	2	3	3	4	23_3_4	1	-1	1	0	0.516735076904	344.0	-110.0	332.0	-100.0	1
3.0.1	2019_Mar_12_1601	s	s	15	2	SIC	383	ABS	0	0	3	1	24_3_1	NA	NA	0	1	2.39354109764	None	None	None	None	1
3.0.1	2019_Mar_12_1601	s	s	15	2	SIC	384	ABS	0	0	4	4	24_4_4	NA	NA	0	1	1.86928296089	None	None	None	None	1
3.0.1	2019_Mar_12_1601	s	s	15	2	SIC	385	ABS	0	0	4	3	24_4_3	NA	NA	0	1	2.66011404991	None	None	None	None	1
3.0.1	2019_Mar_12_1601	s	s	15	2	SIC	386	2_4	2	4	4	1	23_4_1	2	3	1	0	0.474842071533	448.0	-334.0	448.0	-342.0	1
3.0.1	2019_Mar_12_1601	s	s	15	2	SIC	387	ABS	0	0	3	3	24_3_3	NA	NA	0	1	2.34016013145	None	None	None	None	1
3.0.1	2019_Mar_12_1601	s	s	15	2	SIC	388	3_1	3	1	4	1	23_4_1	-1	0	1	0	0.547209024429	-370.0	296.0	-373.0	298.0	1
3.0.1	2019_Mar_12_1601	s	s	15	2	SIC	389	ABS	0	0	4	4	24_4_4	NA	NA	0	1	1.33427190781	None	None	None	None	1
3.0.1	2019_Mar_12_1601	s	s	15	2	SIC	390	4_1	4	1	3	3	23_3_3	1	2	1	0	0.481513977051	203.0	195.0	205.0	190.0	1
3.0.1	2019_Mar_12_1601	s	s	15	2	SIC	391	ABS	0	0	3	1	24_3_1	NA	NA	0	1	1.93414306641	None	None	None	None	1
3.0.1	2019_Mar_12_1601	s	s	15	2	SIC	392	ABS	0	0	2	4	24_2_4	NA	NA	0	1	1.20362210274	None	None	None	None	1
3.0.1	2019_Mar_12_1601	s	s	15	2	SIC	393	ABS	0	0	2	1	24_2_1	NA	NA	0	1	1.09310102463	None	None	None	None	1
3.0.1	2019_Mar_12_1601	s	s	15	2	SIC	394	3_4	3	4	3	2	23_3_2	0	2	1	0	0.486624956131	-504.0	-74.0	-512.0	-78.0	1
3.0.1	2019_Mar_12_1601	s	s	15	2	SIC	395	ABS	0	0	2	3	24_2_3	NA	NA	0	1	1.57862615585	None	None	None	None	1
3.0.1	2019_Mar_12_1601	s	s	15	2	SIC	396	ABS	0	0	3	1	24_3_1	NA	NA	0	1	1.22535920143	None	None	None	None	1
3.0.1	2019_Mar_12_1601	s	s	15	2	SIC	397	ABS	0	0	1	3	24_1_3	NA	NA	0	1	1.52246904373	None	None	None	None	1
3.0.1	2019_Mar_12_1601	s	s	15	2	SIC	398	ABS	0	0	2	4	24_2_4	NA	NA	0	1	1.15649819374	None	None	None	None	1
3.0.1	2019_Mar_12_1601	s	s	15	2	SIC	399	ABS	0	0	3	1	24_3_1	NA	NA	0	1	0.874745130539	None	None	None	None	1
3.0.1	2019_Mar_12_1601	s	s	15	2	SIC	400	ABS	0	0	3	4	24_3_4	NA	NA	0	1	1.09929800034	None	None	None	None	1
3.0.1	2019_Mar_12_1601	s	s	15	2	SIC	401	ABS	0	0	4	1	24_4_1	NA	NA	0	1	0.922284841537	None	None	None	None	1
3.0.1	2019_Mar_12_1601	s	s	15	2	SIC	402	ABS	0	0	2	3	24_2_3	NA	NA	0	1	3.18654799461	None	None	None	None	1
3.0.1	2019_Mar_12_1601	s	s	15	2	SIC	403	ABS	0	0	1	2	24_1_2	NA	NA	0	1	2.21038889885	None	None	None	None	1
3.0.1	2019_Mar_12_1601	s	s	15	2	SIC	404	ABS	0	0	3	1	24_3_1	NA	NA	0	1	1.56882786751	None	None	None	None	1
3.0.1	2019_Mar_12_1601	s	s	15	2	SIC	405	2_1	2	1	1	1	23_1_1	-1	0	0	1	1.29302501678	-204.0	-400.0	None	None	0
3.0.1	2019_Mar_12_1601	s	s	15	2	SIC	406	ABS	0	0	1	4	24_1_4	NA	NA	0	1	1.21615386009	None	None	None	None	1
3.0.1	2019_Mar_12_1601	s	s	15	2	SIC	407	2_3	2	3	1	4	23_1_4	-1	-1	1	0	0.790207862854	-373.0	-48.0	-366.0	-42.0	1
3.0.1	2019_Mar_12_1601	s	s	15	2	SIC	408	4_3	4	3	1	1	23_1_1	3	2	1	0	0.457968950272	-415.0	35.0	-408.0	33.0	1
3.0.1	2019_Mar_12_1601	s	s	15	2	SIC	409	3_2	3	2	3	3	23_3_3	0	1	0	1	1.2341709137	-394.0	87.0	None	None	0
3.0.1	2019_Mar_12_1601	s	s	15	2	SIC	410	ABS	0	0	4	2	24_4_2	NA	NA	0	1	1.19402098656	None	None	None	None	1
3.0.1	2019_Mar_12_1601	s	s	15	2	SIC	411	4_3	4	3	4	1	23_4_1	0	2	0	1	1.69291496277	509.0	-100.0	None	None	0
3.0.1	2019_Mar_12_1601	s	s	15	2	SIC	412	4_2	4	2	1	1	23_1_1	3	-1	1	0	0.470031023026	-269.0	-260.0	-263.0	-256.0	1
3.0.1	2019_Mar_12_1601	s	s	15	2	SIC	413	ABS	0	0	4	3	24_4_3	NA	NA	0	1	1.26065087318	None	None	None	None	1
3.0.1	2019_Mar_12_1601	s	s	15	2	SIC	414	1_3	1	3	2	2	23_2_2	1	1	1	0	4.17740702629	-161.0	60.0	-155.0	56.0	1
3.0.1	2019_Mar_12_1601	s	s	15	2	SIC	415	ABS	0	0	4	4	24_4_4	NA	NA	0	1	1.05774497986	None	None	None	None	1
3.0.1	2019_Mar_12_1601	s	s	15	2	SIC	416	ABS	0	0	1	4	24_1_4	NA	NA	0	1	0.928323030472	None	None	None	None	1
3.0.1	2019_Mar_12_1601	s	s	15	2	SIC	417	4_1	4	1	1	1	23_1_1	3	0	1	0	0.488675117493	357.0	407.0	356.0	412.0	1
3.0.1	2019_Mar_12_1601	s	s	15	2	SIC	418	ABS	0	0	4	2	24_4_2	NA	NA	0	1	0.839780807495	None	None	None	None	1
3.0.1	2019_Mar_12_1601	s	s	15	2	SIC	419	ABS	0	0	1	4	24_1_4	NA	NA	0	1	0.746366977692	None	None	None	None	1
3.0.1	2019_Mar_12_1601	s	s	15	2	SIC	420	ABS	0	0	2	4	24_2_4	NA	NA	0	1	1.46942996979	None	None	None	None	1
3.0.1	2019_Mar_12_1601	s	s	15	2	SIC	421	ABS	0	0	2	3	24_2_3	NA	NA	0	1	0.922708034515	None	None	None	None	1
3.0.1	2019_Mar_12_1601	s	s	15	2	SIC	422	ABS	0	0	1	2	24_1_2	NA	NA	0	1	1.17541003227	None	None	None	None	1
3.0.1	2019_Mar_12_1601	s	s	15	2	SIC	423	ABS	0	0	4	1	24_4_1	NA	NA	0	1	1.00442409515	None	None	None	None	1
3.0.1	2019_Mar_12_1601	s	s	15	2	SIC	424	2_2	2	2	3	2	23_3_2	1	0	1	0	0.744449853897	228.0	-136.0	224.0	-132.0	1
3.0.1	2019_Mar_12_1601	s	s	15	2	SIC	425	2_4	2	4	2	1	23_2_1	0	3	1	0	0.651453971863	-155.0	-168.0	-153.0	-164.0	1
3.0.1	2019_Mar_12_1601	s	s	15	2	SIC	426	ABS	0	0	2	1	24_2_1	NA	NA	0	1	0.940181016922	None	None	None	None	1
3.0.1	2019_Mar_12_1601	s	s	15	2	SIC	427	2_4	2	4	4	3	23_4_3	2	1	1	0	0.547125101089	316.0	26.0	312.0	23.0	1
3.0.1	2019_Mar_12_1601	s	s	15	2	SIC	428	3_3	3	3	4	4	23_4_4	-1	-1	1	0	0.593180894852	416.0	90.0	419.0	79.0	1
3.0.1	2019_Mar_12_1601	s	s	15	2	SIC	429	ABS	0	0	2	1	24_2_1	NA	NA	0	1	1.06302905083	None	None	None	None	1
3.0.1	2019_Mar_12_1601	s	s	15	2	SIC	430	4_2	4	2	1	4	23_1_4	3	2	1	0	0.404745101929	10.0	-91.0	8.0	-85.0	1
3.0.1	2019_Mar_12_1601	s	s	15	2	SIC	431	2_4	2	4	2	2	23_2_2	0	2	1	0	0.501376867294	-120.0	-14.0	-122.0	-16.0	1
3.0.1	2019_Mar_12_1601	s	s	15	2	SIC	432	ABS	0	0	2	3	24_2_3	NA	NA	0	1	2.23915481567	None	None	None	None	1
3.0.1	2019_Mar_12_1601	s	s	15	2	SIC	433	ABS	0	0	4	4	24_4_4	NA	NA	0	1	2.18695688248	None	None	None	None	1
3.0.1	2019_Mar_12_1601	s	s	15	2	SIC	434	2_3	2	3	4	3	23_4_3	2	0	1	0	0.437366008759	-414.0	-132.0	-420.0	-133.0	1
3.0.1	2019_Mar_12_1601	s	s	15	2	SIC	435	1_1	1	1	4	4	23_4_4	3	3	1	0	0.415395975113	-325.0	-410.0	-321.0	-405.0	1
3.0.1	2019_Mar_12_1601	s	s	15	2	SIC	436	1_4	1	4	4	1	23_4_1	3	3	1	0	0.437336921692	-226.0	183.0	-230.0	183.0	1
3.0.1	2019_Mar_12_1601	s	s	15	2	SIC	437	3_3	3	3	3	2	23_3_2	0	1	0	1	1.23416781425	-389.0	329.0	None	None	0
3.0.1	2019_Mar_12_1601	s	s	15	2	SIC	438	ABS	0	0	4	4	24_4_4	NA	NA	0	1	1.10771012306	None	None	None	None	1
3.0.1	2019_Mar_12_1601	s	s	15	2	SIC	439	2_1	2	1	3	4	23_3_4	1	3	1	0	0.614767789841	-128.0	373.0	-134.0	368.0	1
3.0.1	2019_Mar_12_1601	s	s	15	2	SIC	440	4_4	4	4	2	3	23_2_3	2	1	1	0	0.443167924881	61.0	-228.0	54.0	-228.0	1
3.0.1	2019_Mar_12_1601	s	s	15	2	SIC	441	ABS	0	0	2	4	24_2_4	NA	NA	0	1	1.01080417633	None	None	None	None	1
3.0.1	2019_Mar_12_1601	s	s	15	2	SIC	442	2_2	2	2	4	2	23_4_2	2	0	1	0	0.453205108643	-446.0	328.0	-457.0	328.0	1
3.0.1	2019_Mar_12_1601	s	s	15	2	SIC	443	ABS	0	0	3	2	24_3_2	NA	NA	0	1	0.782193899155	None	None	None	None	1
3.0.1	2019_Mar_12_1601	s	s	15	2	SIC	444	4_3	4	3	4	2	23_4_2	0	1	0	1	0.817134857178	-102.0	246.0	None	None	0
3.0.1	2019_Mar_12_1601	s	s	15	2	SIC	445	1_4	1	4	4	4	23_4_4	3	0	1	0	0.422688961029	-317.0	-409.0	-313.0	-406.0	1
3.0.1	2019_Mar_12_1601	s	s	15	2	SIC	446	ABS	0	0	4	4	24_4_4	NA	NA	0	1	0.716753005981	None	None	None	None	1
3.0.1	2019_Mar_12_1601	s	s	15	2	SIC	447	2_4	2	4	3	2	23_3_2	1	2	1	0	0.486860990524	-263.0	108.0	-262.0	113.0	1
3.0.1	2019_Mar_12_1601	s	s	15	2	SIC	448	1_2	1	2	1	3	23_1_3	0	1	0	1	1.09817004204	75.0	264.0	None	None	0
3.0.1	2019_Mar_12_1601	s	s	15	2	SIC	449	ABS	0	0	1	3	24_1_3	NA	NA	0	1	0.943134784698	None	None	None	None	1
3.0.1	2019_Mar_12_1601	s	s	15	2	SIC	450	4_3	4	3	1	4	23_1_4	3	-1	1	0	0.423074007034	408.0	116.0	415.0	114.0	1
3.0.1	2019_Mar_12_1601	s	s	15	2	SIC	451	ABS	0	0	2	2	24_2_2	NA	NA	0	1	1.11663198471	None	None	None	None	1
3.0.1	2019_Mar_12_1601	s	s	15	2	SIC	452	3_3	3	3	2	1	23_2_1	1	2	1	0	0.657883882523	243.0	303.0	241.0	308.0	1
3.0.1	2019_Mar_12_1601	s	s	15	2	SIC	453	4_2	4	2	1	3	23_1_3	3	1	1	0	0.487002849579	-508.0	258.0	-504.0	261.0	1
3.0.1	2019_Mar_12_1601	s	s	15	2	SIC	454	3_2	3	2	1	3	23_1_3	2	1	1	0	0.862972974777	477.0	-323.0	472.0	-328.0	1
3.0.1	2019_Mar_12_1601	s	s	15	2	SIC	455	ABS	0	0	1	1	24_1_1	NA	NA	0	1	0.805366039276	None	None	None	None	1
3.0.1	2019_Mar_12_1601	s	s	15	2	SIC	456	ABS	0	0	3	2	24_3_2	NA	NA	0	1	1.56356287003	None	None	None	None	1
3.0.1	2019_Mar_12_1601	s	s	15	2	SIC	457	ABS	0	0	4	4	24_4_4	NA	NA	0	1	1.54004383087	None	None	None	None	1
3.0.1	2019_Mar_12_1601	s	s	15	2	SIC	458	1_4	1	4	4	2	23_4_2	3	2	1	0	0.474625825882	231.0	-351.0	236.0	-341.0	1
3.0.1	2019_Mar_12_1601	s	s	15	2	SIC	459	ABS	0	0	4	1	24_4_1	NA	NA	0	1	0.88135099411	None	None	None	None	1
3.0.1	2019_Mar_12_1601	s	s	15	2	SIC	460	1_2	1	2	4	2	23_4_2	3	0	1	0	0.429355144501	280.0	-23.0	269.0	-14.0	1
3.0.1	2019_Mar_12_1601	s	s	15	2	SIC	461	2_1	2	1	4	1	23_4_1	2	0	1	0	0.437366962433	520.0	206.0	518.0	203.0	1
3.0.1	2019_Mar_12_1601	s	s	15	2	SIC	462	2_3	2	3	1	1	23_1_1	-1	2	0	1	1.07909202576	-7.0	370.0	None	None	0
3.0.1	2019_Mar_12_1601	s	s	15	2	SIC	463	3_2	3	2	4	1	23_4_1	-1	-1	1	0	0.429001092911	-181.0	91.0	-181.0	88.0	1
3.0.1	2019_Mar_12_1601	s	s	15	2	SIC	464	2_3	2	3	2	2	23_2_2	0	1	0	1	3.89230012894	-257.0	-104.0	None	None	0
3.0.1	2019_Mar_12_1601	s	s	15	2	SIC	465	4_4	4	4	2	2	23_2_2	2	2	1	0	0.457928180695	249.0	-207.0	255.0	-211.0	1
3.0.1	2019_Mar_12_1601	s	s	15	2	SIC	466	ABS	0	0	4	3	24_4_3	NA	NA	0	1	1.84968400002	None	None	None	None	1
3.0.1	2019_Mar_12_1601	s	s	15	2	SIC	467	ABS	0	0	3	1	24_3_1	NA	NA	0	1	1.91517496109	None	None	None	None	1
3.0.1	2019_Mar_12_1601	s	s	15	2	SIC	468	1_1	1	1	1	3	23_1_3	0	2	0	1	1.93273901939	283.0	61.0	None	None	0
3.0.1	2019_Mar_12_1601	s	s	15	2	SIC	469	2_2	2	2	1	2	23_1_2	-1	0	0	1	1.45767903328	-337.0	-82.0	None	None	0
3.0.1	2019_Mar_12_1601	s	s	15	2	SIC	470	ABS	0	0	2	4	24_2_4	NA	NA	0	1	1.02542996407	None	None	None	None	1
3.0.1	2019_Mar_12_1601	s	s	15	2	SIC	471	2_2	2	2	2	1	23_2_1	0	-1	1	0	2.02219796181	-253.0	-79.0	-258.0	-77.0	1
3.0.1	2019_Mar_12_1601	s	s	15	2	SIC	472	3_4	3	4	4	4	23_4_4	-1	0	1	0	0.59915304184	-338.0	-338.0	-346.0	-331.0	1
3.0.1	2019_Mar_12_1601	s	s	15	2	SIC	473	4_4	4	4	3	2	23_3_2	1	2	1	0	0.516765117645	-232.0	-212.0	-222.0	-213.0	1
3.0.1	2019_Mar_12_1601	s	s	15	2	SIC	474	4_3	4	3	3	4	23_3_4	1	-1	1	0	0.592724084854	-100.0	252.0	-101.0	246.0	1
3.0.1	2019_Mar_12_1601	s	s	15	2	SIC	475	1_4	1	4	1	3	23_1_3	0	1	1	0	0.922018051147	56.0	275.0	59.0	279.0	1
3.0.1	2019_Mar_12_1601	s	s	15	2	SIC	476	ABS	0	0	2	1	24_2_1	NA	NA	0	1	2.62713909149	None	None	None	None	1
3.0.1	2019_Mar_12_1601	s	s	15	2	SIC	477	4_1	4	1	2	2	23_2_2	2	1	1	0	0.486557006836	332.0	-393.0	332.0	-386.0	1
3.0.1	2019_Mar_12_1601	s	s	15	2	SIC	478	ABS	0	0	1	4	24_1_4	NA	NA	0	1	1.85755991936	None	None	None	None	1
3.0.1	2019_Mar_12_1601	s	s	15	2	SIC	479	1_2	1	2	4	3	23_4_3	3	1	1	0	0.604202985764	472.0	341.0	465.0	334.0	1
3.0.1	2019_Mar_12_1601	s	s	15	2	SIC	480	4_4	4	4	3	4	23_3_4	1	0	1	0	0.575584888458	456.0	-303.0	452.0	-297.0	1
