Version	Date	Stimuli	Method	Subject	Session	Condition	Trial	Target	TColor	TShape	DColor	DShape	Distractors	Channel1	Channel2	LMouseButton	RMouseButton	RT	TargetX	TargetY	ResponseX	ResponseY	Correct
3.0.1	2019_Mar_14_1006	s	s	15	4	Capacity	1	ABS	0	0	3	1	24_3_1	NA	NA	0	1	0.696829080582	None	None	None	None	1
3.0.1	2019_Mar_14_1006	s	s	15	4	Capacity	2	ABS	0	0	1	1	24_1_1	NA	NA	0	1	1.17540884018	None	None	None	None	1
3.0.1	2019_Mar_14_1006	s	s	15	4	Capacity	3	1_1	1	1	4	1	23_4_1	3	0	1	0	0.462924957275	129.0	-84.0	118.0	-83.0	1
3.0.1	2019_Mar_14_1006	s	s	15	4	Capacity	4	ABS	0	0	2	1	24_2_1	NA	NA	0	1	1.04645109177	None	None	None	None	1
3.0.1	2019_Mar_14_1006	s	s	15	4	Capacity	5	ABS	0	0	4	1	24_4_1	NA	NA	0	1	0.664206981659	None	None	None	None	1
3.0.1	2019_Mar_14_1006	s	s	15	4	Capacity	6	4_1	4	1	2	1	23_2_1	2	0	1	0	0.579232931137	-222.0	-284.0	-227.0	-285.0	1
3.0.1	2019_Mar_14_1006	s	s	15	4	Capacity	7	4_1	4	1	1	1	23_1_1	3	0	1	0	0.496263027191	-4.0	-170.0	5.0	-169.0	1
3.0.1	2019_Mar_14_1006	s	s	15	4	Capacity	8	2_1	2	1	3	1	23_3_1	1	0	1	0	0.88164305687	-324.0	82.0	-332.0	80.0	1
3.0.1	2019_Mar_14_1006	s	s	15	4	Capacity	9	ABS	0	0	2	1	24_2_1	NA	NA	0	1	0.893160820007	None	None	None	None	1
3.0.1	2019_Mar_14_1006	s	s	15	4	Capacity	10	1_1	1	1	3	1	23_3_1	2	0	1	0	0.556942939758	366.0	156.0	371.0	158.0	1
3.0.1	2019_Mar_14_1006	s	s	15	4	Capacity	11	3_1	3	1	4	1	23_4_1	-1	0	1	0	0.540322065353	-322.0	-102.0	-318.0	-113.0	1
3.0.1	2019_Mar_14_1006	s	s	15	4	Capacity	12	ABS	0	0	1	1	24_1_1	NA	NA	0	1	0.672601938248	None	None	None	None	1
3.0.1	2019_Mar_14_1006	s	s	15	4	Capacity	13	4_1	4	1	3	1	23_3_1	1	0	1	0	0.450636863708	-101.0	-161.0	-96.0	-162.0	1
3.0.1	2019_Mar_14_1006	s	s	15	4	Capacity	14	2_1	2	1	4	1	23_4_1	2	0	1	0	0.481487989426	461.0	28.0	461.0	26.0	1
3.0.1	2019_Mar_14_1006	s	s	15	4	Capacity	15	ABS	0	0	3	1	24_3_1	NA	NA	0	1	0.745382070541	None	None	None	None	1
3.0.1	2019_Mar_14_1006	s	s	15	4	Capacity	16	ABS	0	0	2	1	24_2_1	NA	NA	0	1	0.672602176666	None	None	None	None	1
3.0.1	2019_Mar_14_1006	s	s	15	4	Capacity	17	ABS	0	0	1	1	24_1_1	NA	NA	0	1	0.657949924469	None	None	None	None	1
3.0.1	2019_Mar_14_1006	s	s	15	4	Capacity	18	ABS	0	0	4	1	24_4_1	NA	NA	0	1	0.657936096191	None	None	None	None	1
3.0.1	2019_Mar_14_1006	s	s	15	4	Capacity	19	3_1	3	1	2	1	23_2_1	1	0	1	0	0.496154069901	-24.0	-103.0	-16.0	-101.0	1
3.0.1	2019_Mar_14_1006	s	s	15	4	Capacity	20	ABS	0	0	4	1	24_4_1	NA	NA	0	1	0.763831853867	None	None	None	None	1
3.0.1	2019_Mar_14_1006	s	s	15	4	Capacity	21	1_1	1	1	2	1	23_2_1	1	0	0	1	0.587466955185	-330.0	-292.0	None	None	0
3.0.1	2019_Mar_14_1006	s	s	15	4	Capacity	22	3_1	3	1	1	1	23_1_1	2	0	1	0	0.544998168945	-241.0	-292.0	-241.0	-288.0	1
3.0.1	2019_Mar_14_1006	s	s	15	4	Capacity	23	ABS	0	0	3	1	24_3_1	NA	NA	0	1	0.619275808334	None	None	None	None	1
3.0.1	2019_Mar_14_1006	s	s	15	4	Capacity	24	2_1	2	1	1	1	23_1_1	-1	0	0	1	0.657965898514	97.0	66.0	None	None	0
3.0.1	2019_Mar_14_1006	s	s	15	4	Capacity	25	ABS	0	0	4	1	24_4_1	NA	NA	0	1	0.634371995926	None	None	None	None	1
3.0.1	2019_Mar_14_1006	s	s	15	4	Capacity	26	ABS	0	0	2	1	24_2_1	NA	NA	0	1	0.662839889526	None	None	None	None	1
3.0.1	2019_Mar_14_1006	s	s	15	4	Capacity	27	4_1	4	1	1	1	23_1_1	3	0	1	0	0.540375947952	64.0	15.0	67.0	19.0	1
3.0.1	2019_Mar_14_1006	s	s	15	4	Capacity	28	ABS	0	0	1	1	24_1_1	NA	NA	0	1	0.764070034027	None	None	None	None	1
3.0.1	2019_Mar_14_1006	s	s	15	4	Capacity	29	ABS	0	0	4	1	24_4_1	NA	NA	0	1	0.563905954361	None	None	None	None	1
3.0.1	2019_Mar_14_1006	s	s	15	4	Capacity	30	3_1	3	1	4	1	23_4_1	-1	0	1	0	0.516764879227	156.0	24.0	150.0	17.0	1
3.0.1	2019_Mar_14_1006	s	s	15	4	Capacity	31	ABS	0	0	3	1	24_3_1	NA	NA	0	1	0.711390018463	None	None	None	None	1
3.0.1	2019_Mar_14_1006	s	s	15	4	Capacity	32	1_1	1	1	2	1	23_2_1	1	0	0	1	0.731485128403	-167.0	92.0	None	None	0
3.0.1	2019_Mar_14_1006	s	s	15	4	Capacity	33	ABS	0	0	2	1	24_2_1	NA	NA	0	1	0.625953197479	None	None	None	None	1
3.0.1	2019_Mar_14_1006	s	s	15	4	Capacity	34	2_1	2	1	4	1	23_4_1	2	0	1	0	0.475947141647	499.0	157.0	505.0	154.0	1
3.0.1	2019_Mar_14_1006	s	s	15	4	Capacity	35	3_1	3	1	1	1	23_1_1	2	0	1	0	0.554901123047	249.0	-251.0	256.0	-252.0	1
3.0.1	2019_Mar_14_1006	s	s	15	4	Capacity	36	ABS	0	0	4	1	24_4_1	NA	NA	0	1	0.554775953293	None	None	None	None	1
3.0.1	2019_Mar_14_1006	s	s	15	4	Capacity	37	1_1	1	1	3	1	23_3_1	2	0	1	0	0.731399774551	140.0	43.0	134.0	43.0	1
3.0.1	2019_Mar_14_1006	s	s	15	4	Capacity	38	2_1	2	1	1	1	23_1_1	-1	0	0	1	0.481575012207	-518.0	-137.0	None	None	0
3.0.1	2019_Mar_14_1006	s	s	15	4	Capacity	39	ABS	0	0	2	1	24_2_1	NA	NA	0	1	0.592288970947	None	None	None	None	1
3.0.1	2019_Mar_14_1006	s	s	15	4	Capacity	40	4_1	4	1	3	1	23_3_1	1	0	1	0	0.44459104538	473.0	-131.0	479.0	-135.0	1
3.0.1	2019_Mar_14_1006	s	s	15	4	Capacity	41	ABS	0	0	1	1	24_1_1	NA	NA	0	1	0.485404968262	None	None	None	None	1
3.0.1	2019_Mar_14_1006	s	s	15	4	Capacity	42	ABS	0	0	3	1	24_3_1	NA	NA	0	1	0.608364105225	None	None	None	None	1
3.0.1	2019_Mar_14_1006	s	s	15	4	Capacity	43	3_1	3	1	2	1	23_2_1	1	0	1	0	0.810832977295	14.0	395.0	12.0	393.0	1
3.0.1	2019_Mar_14_1006	s	s	15	4	Capacity	44	ABS	0	0	1	1	24_1_1	NA	NA	0	1	0.580701828003	None	None	None	None	1
3.0.1	2019_Mar_14_1006	s	s	15	4	Capacity	45	4_1	4	1	2	1	23_2_1	2	0	1	0	0.469708919525	-313.0	-25.0	-307.0	-29.0	1
3.0.1	2019_Mar_14_1006	s	s	15	4	Capacity	46	2_1	2	1	3	1	23_3_1	1	0	0	1	0.681663990021	-322.0	-330.0	None	None	0
3.0.1	2019_Mar_14_1006	s	s	15	4	Capacity	47	ABS	0	0	3	1	24_3_1	NA	NA	0	1	0.8931620121	None	None	None	None	1
3.0.1	2019_Mar_14_1006	s	s	15	4	Capacity	48	1_1	1	1	4	1	23_4_1	3	0	1	0	0.462371826172	-157.0	78.0	-162.0	81.0	1
3.0.1	2019_Mar_14_1006	s	s	15	4	Capacity	49	ABS	0	0	2	1	24_2_1	NA	NA	0	1	0.787297964096	None	None	None	None	1
3.0.1	2019_Mar_14_1006	s	s	15	4	Capacity	50	ABS	0	0	4	1	24_4_1	NA	NA	0	1	0.58066701889	None	None	None	None	1
3.0.1	2019_Mar_14_1006	s	s	15	4	Capacity	51	ABS	0	0	2	1	24_2_1	NA	NA	0	1	0.898123025894	None	None	None	None	1
3.0.1	2019_Mar_14_1006	s	s	15	4	Capacity	52	ABS	0	0	1	1	24_1_1	NA	NA	0	1	0.822592973709	None	None	None	None	1
3.0.1	2019_Mar_14_1006	s	s	15	4	Capacity	53	4_1	4	1	2	1	23_2_1	2	0	1	0	0.496170043945	-519.0	-295.0	-526.0	-290.0	1
3.0.1	2019_Mar_14_1006	s	s	15	4	Capacity	54	ABS	0	0	1	1	24_1_1	NA	NA	0	1	0.719651937485	None	None	None	None	1
3.0.1	2019_Mar_14_1006	s	s	15	4	Capacity	55	ABS	0	0	3	1	24_3_1	NA	NA	0	1	0.790179014206	None	None	None	None	1
3.0.1	2019_Mar_14_1006	s	s	15	4	Capacity	56	ABS	0	0	1	1	24_1_1	NA	NA	0	1	0.837213993073	None	None	None	None	1
3.0.1	2019_Mar_14_1006	s	s	15	4	Capacity	57	4_1	4	1	1	1	23_1_1	3	0	1	0	0.476119041443	-329.0	392.0	-324.0	400.0	1
3.0.1	2019_Mar_14_1006	s	s	15	4	Capacity	58	2_1	2	1	4	1	23_4_1	2	0	1	0	0.457940101624	190.0	-121.0	187.0	-117.0	1
3.0.1	2019_Mar_14_1006	s	s	15	4	Capacity	59	2_1	2	1	1	1	23_1_1	-1	0	0	1	0.575589895248	376.0	-307.0	None	None	0
3.0.1	2019_Mar_14_1006	s	s	15	4	Capacity	60	4_1	4	1	3	1	23_3_1	1	0	1	0	0.457983970642	71.0	-28.0	74.0	-27.0	1
3.0.1	2019_Mar_14_1006	s	s	15	4	Capacity	61	ABS	0	0	4	1	24_4_1	NA	NA	0	1	0.46999001503	None	None	None	None	1
3.0.1	2019_Mar_14_1006	s	s	15	4	Capacity	62	ABS	0	0	3	1	24_3_1	NA	NA	0	1	0.639055967331	None	None	None	None	1
3.0.1	2019_Mar_14_1006	s	s	15	4	Capacity	63	1_1	1	1	3	1	23_3_1	2	0	1	0	0.579027891159	-431.0	-72.0	-438.0	-77.0	1
3.0.1	2019_Mar_14_1006	s	s	15	4	Capacity	64	1_1	1	1	4	1	23_4_1	3	0	1	0	0.446422815323	206.0	-402.0	197.0	-405.0	1
3.0.1	2019_Mar_14_1006	s	s	15	4	Capacity	65	3_1	3	1	4	1	23_4_1	-1	0	1	0	0.599167823792	-341.0	336.0	-335.0	345.0	1
3.0.1	2019_Mar_14_1006	s	s	15	4	Capacity	66	1_1	1	1	2	1	23_2_1	1	0	1	0	0.951942920685	143.0	209.0	145.0	204.0	1
3.0.1	2019_Mar_14_1006	s	s	15	4	Capacity	67	3_1	3	1	2	1	23_2_1	1	0	1	0	0.554984092712	-108.0	149.0	-113.0	157.0	1
3.0.1	2019_Mar_14_1006	s	s	15	4	Capacity	68	3_1	3	1	1	1	23_1_1	2	0	1	0	0.618318080902	516.0	-160.0	521.0	-161.0	1
3.0.1	2019_Mar_14_1006	s	s	15	4	Capacity	69	2_1	2	1	3	1	23_3_1	1	0	1	0	0.4425740242	-23.0	-8.0	-28.0	-10.0	1
3.0.1	2019_Mar_14_1006	s	s	15	4	Capacity	70	ABS	0	0	3	1	24_3_1	NA	NA	0	1	0.693382024765	None	None	None	None	1
3.0.1	2019_Mar_14_1006	s	s	15	4	Capacity	71	ABS	0	0	4	1	24_4_1	NA	NA	0	1	0.521839141846	None	None	None	None	1
3.0.1	2019_Mar_14_1006	s	s	15	4	Capacity	72	ABS	0	0	2	1	24_2_1	NA	NA	0	1	0.669698953629	None	None	None	None	1
3.0.1	2019_Mar_14_1006	s	s	15	4	Capacity	73	3_1	3	1	4	1	23_4_1	-1	0	1	0	0.485982894897	225.0	-202.0	220.0	-199.0	1
3.0.1	2019_Mar_14_1006	s	s	15	4	Capacity	74	ABS	0	0	3	1	24_3_1	NA	NA	0	1	0.575736999512	None	None	None	None	1
3.0.1	2019_Mar_14_1006	s	s	15	4	Capacity	75	3_1	3	1	2	1	23_2_1	1	0	1	0	0.540355920792	-436.0	-381.0	-437.0	-375.0	1
3.0.1	2019_Mar_14_1006	s	s	15	4	Capacity	76	ABS	0	0	1	1	24_1_1	NA	NA	0	1	0.751971960068	None	None	None	None	1
3.0.1	2019_Mar_14_1006	s	s	15	4	Capacity	77	1_1	1	1	3	1	23_3_1	2	0	1	0	0.502117872238	-44.0	-147.0	-35.0	-149.0	1
3.0.1	2019_Mar_14_1006	s	s	15	4	Capacity	78	ABS	0	0	4	1	24_4_1	NA	NA	0	1	0.516788959503	None	None	None	None	1
3.0.1	2019_Mar_14_1006	s	s	15	4	Capacity	79	4_1	4	1	2	1	23_2_1	2	0	1	0	0.481536865234	263.0	24.0	263.0	26.0	1
3.0.1	2019_Mar_14_1006	s	s	15	4	Capacity	80	ABS	0	0	4	1	24_4_1	NA	NA	0	1	0.51092505455	None	None	None	None	1
3.0.1	2019_Mar_14_1006	s	s	15	4	Capacity	81	ABS	0	0	4	1	24_4_1	NA	NA	0	1	0.613792896271	None	None	None	None	1
3.0.1	2019_Mar_14_1006	s	s	15	4	Capacity	82	ABS	0	0	1	1	24_1_1	NA	NA	0	1	0.686761856079	None	None	None	None	1
3.0.1	2019_Mar_14_1006	s	s	15	4	Capacity	83	ABS	0	0	2	1	24_2_1	NA	NA	0	1	0.604099988937	None	None	None	None	1
3.0.1	2019_Mar_14_1006	s	s	15	4	Capacity	84	2_1	2	1	1	1	23_1_1	-1	0	0	1	0.775838136673	-126.0	248.0	None	None	0
3.0.1	2019_Mar_14_1006	s	s	15	4	Capacity	85	4_1	4	1	3	1	23_3_1	1	0	1	0	0.437391042709	-504.0	399.0	-512.0	393.0	1
3.0.1	2019_Mar_14_1006	s	s	15	4	Capacity	86	2_1	2	1	4	1	23_4_1	2	0	1	0	0.423141956329	-306.0	-198.0	-316.0	-199.0	1
3.0.1	2019_Mar_14_1006	s	s	15	4	Capacity	87	ABS	0	0	2	1	24_2_1	NA	NA	0	1	0.481543064117	None	None	None	None	1
3.0.1	2019_Mar_14_1006	s	s	15	4	Capacity	88	ABS	0	0	2	1	24_2_1	NA	NA	0	1	0.575620174408	None	None	None	None	1
3.0.1	2019_Mar_14_1006	s	s	15	4	Capacity	89	1_1	1	1	4	1	23_4_1	3	0	1	0	0.503221035004	223.0	-264.0	222.0	-264.0	1
3.0.1	2019_Mar_14_1006	s	s	15	4	Capacity	90	ABS	0	0	1	1	24_1_1	NA	NA	0	1	0.528548955917	None	None	None	None	1
3.0.1	2019_Mar_14_1006	s	s	15	4	Capacity	91	2_1	2	1	3	1	23_3_1	1	0	1	0	0.651206016541	-488.0	95.0	-486.0	89.0	1
3.0.1	2019_Mar_14_1006	s	s	15	4	Capacity	92	4_1	4	1	1	1	23_1_1	3	0	1	0	0.439626932144	10.0	-87.0	5.0	-92.0	1
3.0.1	2019_Mar_14_1006	s	s	15	4	Capacity	93	ABS	0	0	3	1	24_3_1	NA	NA	0	1	0.827169895172	None	None	None	None	1
3.0.1	2019_Mar_14_1006	s	s	15	4	Capacity	94	ABS	0	0	3	1	24_3_1	NA	NA	0	1	0.657988071442	None	None	None	None	1
3.0.1	2019_Mar_14_1006	s	s	15	4	Capacity	95	1_1	1	1	2	1	23_2_1	1	0	0	1	1.44925689697	-111.0	-37.0	None	None	0
3.0.1	2019_Mar_14_1006	s	s	15	4	Capacity	96	3_1	3	1	1	1	23_1_1	2	0	1	0	0.444047927856	-373.0	101.0	-368.0	99.0	1
3.0.1	2019_Mar_14_1006	s	s	15	4	Capacity	1	1_3	1	3	1	4	23_1_4	0	-1	1	0	0.940270185471	-128.0	327.0	-118.0	333.0	1
3.0.1	2019_Mar_14_1006	s	s	15	4	Capacity	2	ABS	0	0	1	4	24_1_4	NA	NA	0	1	1.79701685905	None	None	None	None	1
3.0.1	2019_Mar_14_1006	s	s	15	4	Capacity	3	ABS	0	0	1	4	24_1_4	NA	NA	0	1	1.76875710487	None	None	None	None	1
3.0.1	2019_Mar_14_1006	s	s	15	4	Capacity	4	ABS	0	0	1	2	24_1_2	NA	NA	0	1	2.29279112816	None	None	None	None	1
3.0.1	2019_Mar_14_1006	s	s	15	4	Capacity	5	ABS	0	0	1	2	24_1_2	NA	NA	0	1	1.61999392509	None	None	None	None	1
3.0.1	2019_Mar_14_1006	s	s	15	4	Capacity	6	ABS	0	0	1	1	24_1_1	NA	NA	0	1	2.32801604271	None	None	None	None	1
3.0.1	2019_Mar_14_1006	s	s	15	4	Capacity	7	1_1	1	1	1	4	23_1_4	0	3	1	0	0.681525945663	51.0	-230.0	55.0	-233.0	1
3.0.1	2019_Mar_14_1006	s	s	15	4	Capacity	8	ABS	0	0	1	1	24_1_1	NA	NA	0	1	1.18726396561	None	None	None	None	1
3.0.1	2019_Mar_14_1006	s	s	15	4	Capacity	9	ABS	0	0	1	3	24_1_3	NA	NA	0	1	1.78990912437	None	None	None	None	1
3.0.1	2019_Mar_14_1006	s	s	15	4	Capacity	10	ABS	0	0	1	2	24_1_2	NA	NA	0	1	2.18044495583	None	None	None	None	1
3.0.1	2019_Mar_14_1006	s	s	15	4	Capacity	11	1_4	1	4	1	2	23_1_2	0	2	1	0	0.599169969559	98.0	-8.0	106.0	-8.0	1
3.0.1	2019_Mar_14_1006	s	s	15	4	Capacity	12	1_1	1	1	1	3	23_1_3	0	2	1	0	1.62014985085	-167.0	5.0	-163.0	4.0	1
3.0.1	2019_Mar_14_1006	s	s	15	4	Capacity	13	ABS	0	0	1	1	24_1_1	NA	NA	0	1	2.01050281525	None	None	None	None	1
3.0.1	2019_Mar_14_1006	s	s	15	4	Capacity	14	1_3	1	3	1	1	23_1_1	0	2	1	0	1.04602098465	31.0	-10.0	29.0	-15.0	1
3.0.1	2019_Mar_14_1006	s	s	15	4	Capacity	15	1_3	1	3	1	2	23_1_2	0	1	0	1	5.91198801994	-147.0	-13.0	None	None	0
3.0.1	2019_Mar_14_1006	s	s	15	4	Capacity	16	ABS	0	0	1	3	24_1_3	NA	NA	0	1	2.44561505318	None	None	None	None	1
3.0.1	2019_Mar_14_1006	s	s	15	4	Capacity	17	1_1	1	1	1	2	23_1_2	0	1	0	1	2.22215890884	-253.0	263.0	None	None	0
3.0.1	2019_Mar_14_1006	s	s	15	4	Capacity	18	ABS	0	0	1	3	24_1_3	NA	NA	0	1	3.26239299774	None	None	None	None	1
3.0.1	2019_Mar_14_1006	s	s	15	4	Capacity	19	1_2	1	2	1	4	23_1_4	0	2	1	0	1.10486388206	-474.0	61.0	-481.0	61.0	1
3.0.1	2019_Mar_14_1006	s	s	15	4	Capacity	20	1_4	1	4	1	1	23_1_1	0	3	1	0	1.38237714767	132.0	-402.0	133.0	-402.0	1
3.0.1	2019_Mar_14_1006	s	s	15	4	Capacity	21	1_2	1	2	1	3	23_1_3	0	1	0	1	3.31885099411	423.0	49.0	None	None	0
3.0.1	2019_Mar_14_1006	s	s	15	4	Capacity	22	ABS	0	0	1	4	24_1_4	NA	NA	0	1	1.839001894	None	None	None	None	1
3.0.1	2019_Mar_14_1006	s	s	15	4	Capacity	23	1_4	1	4	1	3	23_1_3	0	1	1	0	1.50479698181	-331.0	183.0	-328.0	180.0	1
3.0.1	2019_Mar_14_1006	s	s	15	4	Capacity	24	1_2	1	2	1	1	23_1_1	0	-1	0	1	1.06170201302	-267.0	179.0	None	None	0
3.0.1	2019_Mar_14_1006	s	s	15	4	Capacity	25	ABS	0	0	1	4	24_1_4	NA	NA	0	1	1.06959295273	None	None	None	None	1
3.0.1	2019_Mar_14_1006	s	s	15	4	Capacity	26	ABS	0	0	1	2	24_1_2	NA	NA	0	1	2.10455608368	None	None	None	None	1
3.0.1	2019_Mar_14_1006	s	s	15	4	Capacity	27	ABS	0	0	1	1	24_1_1	NA	NA	0	1	1.35179591179	None	None	None	None	1
3.0.1	2019_Mar_14_1006	s	s	15	4	Capacity	28	1_3	1	3	1	4	23_1_4	0	-1	1	0	1.08973908424	511.0	-357.0	514.0	-349.0	1
3.0.1	2019_Mar_14_1006	s	s	15	4	Capacity	29	1_4	1	4	1	2	23_1_2	0	2	1	0	0.698908090591	-84.0	-126.0	-90.0	-127.0	1
3.0.1	2019_Mar_14_1006	s	s	15	4	Capacity	30	ABS	0	0	1	3	24_1_3	NA	NA	0	1	2.06264209747	None	None	None	None	1
3.0.1	2019_Mar_14_1006	s	s	15	4	Capacity	31	ABS	0	0	1	4	24_1_4	NA	NA	0	1	1.35177302361	None	None	None	None	1
3.0.1	2019_Mar_14_1006	s	s	15	4	Capacity	32	ABS	0	0	1	2	24_1_2	NA	NA	0	1	1.75171303749	None	None	None	None	1
3.0.1	2019_Mar_14_1006	s	s	15	4	Capacity	33	ABS	0	0	1	3	24_1_3	NA	NA	0	1	1.20582699776	None	None	None	None	1
3.0.1	2019_Mar_14_1006	s	s	15	4	Capacity	34	1_4	1	4	1	1	23_1_1	0	3	1	0	0.708899021149	266.0	-42.0	262.0	-50.0	1
3.0.1	2019_Mar_14_1006	s	s	15	4	Capacity	35	1_1	1	1	1	3	23_1_3	0	2	0	1	1.36395597458	-400.0	361.0	None	None	0
3.0.1	2019_Mar_14_1006	s	s	15	4	Capacity	36	ABS	0	0	1	4	24_1_4	NA	NA	0	1	2.05080199242	None	None	None	None	1
3.0.1	2019_Mar_14_1006	s	s	15	4	Capacity	37	1_2	1	2	1	3	23_1_3	0	1	0	1	2.00388789177	341.0	-115.0	None	None	0
3.0.1	2019_Mar_14_1006	s	s	15	4	Capacity	38	1_4	1	4	1	3	23_1_3	0	1	1	0	0.834367990494	9.0	89.0	19.0	89.0	1
3.0.1	2019_Mar_14_1006	s	s	15	4	Capacity	39	1_2	1	2	1	4	23_1_4	0	2	1	0	1.08430099487	-499.0	63.0	-502.0	56.0	1
3.0.1	2019_Mar_14_1006	s	s	15	4	Capacity	40	ABS	0	0	1	2	24_1_2	NA	NA	0	1	2.57507801056	None	None	None	None	1
3.0.1	2019_Mar_14_1006	s	s	15	4	Capacity	41	1_2	1	2	1	1	23_1_1	0	-1	0	1	2.37123012543	71.0	255.0	None	None	0
3.0.1	2019_Mar_14_1006	s	s	15	4	Capacity	42	ABS	0	0	1	1	24_1_1	NA	NA	0	1	2.35561704636	None	None	None	None	1
3.0.1	2019_Mar_14_1006	s	s	15	4	Capacity	43	1_3	1	3	1	2	23_1_2	0	1	0	1	3.39820098877	-256.0	-86.0	None	None	0
3.0.1	2019_Mar_14_1006	s	s	15	4	Capacity	44	ABS	0	0	1	1	24_1_1	NA	NA	0	1	1.62235093117	None	None	None	None	1
3.0.1	2019_Mar_14_1006	s	s	15	4	Capacity	45	1_3	1	3	1	1	23_1_1	0	2	1	0	1.1925971508	-515.0	-266.0	-511.0	-264.0	1
3.0.1	2019_Mar_14_1006	s	s	15	4	Capacity	46	1_1	1	1	1	2	23_1_2	0	1	0	1	4.83939695358	-203.0	69.0	None	None	0
3.0.1	2019_Mar_14_1006	s	s	15	4	Capacity	47	1_1	1	1	1	4	23_1_4	0	3	1	0	0.660889148712	153.0	-156.0	152.0	-164.0	1
3.0.1	2019_Mar_14_1006	s	s	15	4	Capacity	48	ABS	0	0	1	3	24_1_3	NA	NA	0	1	2.17508411407	None	None	None	None	1
3.0.1	2019_Mar_14_1006	s	s	15	4	Capacity	49	ABS	0	0	1	2	24_1_2	NA	NA	0	1	1.85761404037	None	None	None	None	1
3.0.1	2019_Mar_14_1006	s	s	15	4	Capacity	50	1_2	1	2	1	4	23_1_4	0	2	1	0	1.32833003998	-27.0	-159.0	-28.0	-151.0	1
3.0.1	2019_Mar_14_1006	s	s	15	4	Capacity	51	ABS	0	0	1	2	24_1_2	NA	NA	0	1	1.89774513245	None	None	None	None	1
3.0.1	2019_Mar_14_1006	s	s	15	4	Capacity	52	1_3	1	3	1	2	23_1_2	0	1	0	1	3.17999410629	-431.0	38.0	None	None	0
3.0.1	2019_Mar_14_1006	s	s	15	4	Capacity	53	ABS	0	0	1	1	24_1_1	NA	NA	0	1	1.12849402428	None	None	None	None	1
3.0.1	2019_Mar_14_1006	s	s	15	4	Capacity	54	ABS	0	0	1	4	24_1_4	NA	NA	0	1	1.33367204666	None	None	None	None	1
3.0.1	2019_Mar_14_1006	s	s	15	4	Capacity	55	1_3	1	3	1	1	23_1_1	0	2	1	0	1.37829709053	275.0	-7.0	278.0	-2.0	1
3.0.1	2019_Mar_14_1006	s	s	15	4	Capacity	56	ABS	0	0	1	1	24_1_1	NA	NA	0	1	0.958160877228	None	None	None	None	1
3.0.1	2019_Mar_14_1006	s	s	15	4	Capacity	57	1_1	1	1	1	3	23_1_3	0	2	0	1	1.88752794266	416.0	232.0	None	None	0
3.0.1	2019_Mar_14_1006	s	s	15	4	Capacity	58	1_1	1	1	1	2	23_1_2	0	1	0	1	1.82231712341	393.0	-412.0	None	None	0
3.0.1	2019_Mar_14_1006	s	s	15	4	Capacity	59	1_1	1	1	1	4	23_1_4	0	3	1	0	0.912055969238	-457.0	270.0	-454.0	266.0	1
3.0.1	2019_Mar_14_1006	s	s	15	4	Capacity	60	1_2	1	2	1	1	23_1_1	0	-1	1	0	2.23398399353	-322.0	290.0	-313.0	294.0	1
3.0.1	2019_Mar_14_1006	s	s	15	4	Capacity	61	1_4	1	4	1	2	23_1_2	0	2	1	0	0.731370925903	-306.0	47.0	-303.0	45.0	1
3.0.1	2019_Mar_14_1006	s	s	15	4	Capacity	62	1_2	1	2	1	3	23_1_3	0	1	0	1	1.92810916901	-227.0	199.0	None	None	0
3.0.1	2019_Mar_14_1006	s	s	15	4	Capacity	63	ABS	0	0	1	2	24_1_2	NA	NA	0	1	1.97274494171	None	None	None	None	1
3.0.1	2019_Mar_14_1006	s	s	15	4	Capacity	64	ABS	0	0	1	3	24_1_3	NA	NA	0	1	2.05090498924	None	None	None	None	1
3.0.1	2019_Mar_14_1006	s	s	15	4	Capacity	65	1_3	1	3	1	4	23_1_4	0	-1	1	0	0.920927047729	-258.0	367.0	-248.0	372.0	1
3.0.1	2019_Mar_14_1006	s	s	15	4	Capacity	66	1_4	1	4	1	1	23_1_1	0	3	1	0	1.15190505981	-345.0	-397.0	-354.0	-398.0	1
3.0.1	2019_Mar_14_1006	s	s	15	4	Capacity	67	ABS	0	0	1	3	24_1_3	NA	NA	0	1	1.78991293907	None	None	None	None	1
3.0.1	2019_Mar_14_1006	s	s	15	4	Capacity	68	ABS	0	0	1	1	24_1_1	NA	NA	0	1	1.25128102303	None	None	None	None	1
3.0.1	2019_Mar_14_1006	s	s	15	4	Capacity	69	ABS	0	0	1	4	24_1_4	NA	NA	0	1	1.5097091198	None	None	None	None	1
3.0.1	2019_Mar_14_1006	s	s	15	4	Capacity	70	ABS	0	0	1	3	24_1_3	NA	NA	0	1	0.893218040466	None	None	None	None	1
3.0.1	2019_Mar_14_1006	s	s	15	4	Capacity	71	ABS	0	0	1	4	24_1_4	NA	NA	0	1	1.41062498093	None	None	None	None	1
3.0.1	2019_Mar_14_1006	s	s	15	4	Capacity	72	1_4	1	4	1	3	23_1_3	0	1	1	0	3.49530005455	-23.0	-343.0	-17.0	-338.0	1
3.0.1	2019_Mar_14_1006	s	s	15	4	Capacity	73	ABS	0	0	1	4	24_1_4	NA	NA	0	1	1.01561784744	None	None	None	None	1
3.0.1	2019_Mar_14_1006	s	s	15	4	Capacity	74	1_2	1	2	1	4	23_1_4	0	2	1	0	0.816017150879	27.0	-8.0	20.0	-11.0	1
3.0.1	2019_Mar_14_1006	s	s	15	4	Capacity	75	ABS	0	0	1	3	24_1_3	NA	NA	0	1	2.02516102791	None	None	None	None	1
3.0.1	2019_Mar_14_1006	s	s	15	4	Capacity	76	ABS	0	0	1	4	24_1_4	NA	NA	0	1	2.11679577827	None	None	None	None	1
3.0.1	2019_Mar_14_1006	s	s	15	4	Capacity	77	ABS	0	0	1	2	24_1_2	NA	NA	0	1	2.59863996506	None	None	None	None	1
3.0.1	2019_Mar_14_1006	s	s	15	4	Capacity	78	1_2	1	2	1	3	23_1_3	0	1	0	1	2.48762989044	-184.0	381.0	None	None	0
3.0.1	2019_Mar_14_1006	s	s	15	4	Capacity	79	ABS	0	0	1	3	24_1_3	NA	NA	0	1	1.83405995369	None	None	None	None	1
3.0.1	2019_Mar_14_1006	s	s	15	4	Capacity	80	1_3	1	3	1	1	23_1_1	0	2	1	0	2.82710719109	-337.0	-60.0	-344.0	-58.0	1
3.0.1	2019_Mar_14_1006	s	s	15	4	Capacity	81	1_4	1	4	1	1	23_1_1	0	3	1	0	0.849396944046	52.0	-323.0	49.0	-319.0	1
3.0.1	2019_Mar_14_1006	s	s	15	4	Capacity	82	1_3	1	3	1	2	23_1_2	0	1	0	1	2.44316911697	-495.0	-25.0	None	None	0
3.0.1	2019_Mar_14_1006	s	s	15	4	Capacity	83	1_4	1	4	1	3	23_1_3	0	1	1	0	0.721548080444	-428.0	-118.0	-432.0	-123.0	1
3.0.1	2019_Mar_14_1006	s	s	15	4	Capacity	84	1_4	1	4	1	2	23_1_2	0	2	1	0	1.16365504265	-267.0	-383.0	-272.0	-387.0	1
3.0.1	2019_Mar_14_1006	s	s	15	4	Capacity	85	ABS	0	0	1	1	24_1_1	NA	NA	0	1	1.29789400101	None	None	None	None	1
3.0.1	2019_Mar_14_1006	s	s	15	4	Capacity	86	ABS	0	0	1	2	24_1_2	NA	NA	0	1	3.02482914925	None	None	None	None	1
3.0.1	2019_Mar_14_1006	s	s	15	4	Capacity	87	1_3	1	3	1	4	23_1_4	0	-1	1	0	4.1787610054	435.0	-68.0	439.0	-70.0	1
3.0.1	2019_Mar_14_1006	s	s	15	4	Capacity	88	ABS	0	0	1	1	24_1_1	NA	NA	0	1	1.03427505493	None	None	None	None	1
3.0.1	2019_Mar_14_1006	s	s	15	4	Capacity	89	1_1	1	1	1	4	23_1_4	0	3	1	0	0.782104969025	240.0	297.0	251.0	302.0	1
3.0.1	2019_Mar_14_1006	s	s	15	4	Capacity	90	ABS	0	0	1	1	24_1_1	NA	NA	0	1	1.13357210159	None	None	None	None	1
3.0.1	2019_Mar_14_1006	s	s	15	4	Capacity	91	1_2	1	2	1	1	23_1_1	0	-1	0	1	0.914255142212	291.0	132.0	None	None	0
3.0.1	2019_Mar_14_1006	s	s	15	4	Capacity	92	1_1	1	1	1	3	23_1_3	0	2	1	0	1.53375792503	338.0	286.0	329.0	288.0	1
3.0.1	2019_Mar_14_1006	s	s	15	4	Capacity	93	ABS	0	0	1	4	24_1_4	NA	NA	0	1	2.15694212914	None	None	None	None	1
3.0.1	2019_Mar_14_1006	s	s	15	4	Capacity	94	ABS	0	0	1	2	24_1_2	NA	NA	0	1	3.67633485794	None	None	None	None	1
3.0.1	2019_Mar_14_1006	s	s	15	4	Capacity	95	ABS	0	0	1	3	24_1_3	NA	NA	0	1	3.18669199944	None	None	None	None	1
3.0.1	2019_Mar_14_1006	s	s	15	4	Capacity	96	1_1	1	1	1	2	23_1_2	0	1	0	1	3.87472105026	197.0	238.0	None	None	0
3.0.1	2019_Mar_14_1006	s	s	15	4	SIC	1	ABS	0	0	3	2	24_3_2	NA	NA	0	1	3.67270612717	None	None	None	None	1
3.0.1	2019_Mar_14_1006	s	s	15	4	SIC	2	ABS	0	0	4	3	24_4_3	NA	NA	0	1	1.48128986359	None	None	None	None	1
3.0.1	2019_Mar_14_1006	s	s	15	4	SIC	3	ABS	0	0	3	2	24_3_2	NA	NA	0	1	1.77528500557	None	None	None	None	1
3.0.1	2019_Mar_14_1006	s	s	15	4	SIC	4	1_2	1	2	1	3	23_1_3	0	1	0	1	3.09853315353	345.0	-167.0	None	None	0
3.0.1	2019_Mar_14_1006	s	s	15	4	SIC	5	2_4	2	4	4	1	23_4_1	2	3	1	0	0.519778013229	146.0	-357.0	155.0	-353.0	1
3.0.1	2019_Mar_14_1006	s	s	15	4	SIC	6	ABS	0	0	2	4	24_2_4	NA	NA	0	1	1.89286088943	None	None	None	None	1
3.0.1	2019_Mar_14_1006	s	s	15	4	SIC	7	ABS	0	0	2	2	24_2_2	NA	NA	0	1	1.7567820549	None	None	None	None	1
3.0.1	2019_Mar_14_1006	s	s	15	4	SIC	8	1_4	1	4	2	3	23_2_3	1	1	1	0	1.01083493233	451.0	120.0	453.0	113.0	1
3.0.1	2019_Mar_14_1006	s	s	15	4	SIC	9	ABS	0	0	3	1	24_3_1	NA	NA	0	1	2.07601618767	None	None	None	None	1
3.0.1	2019_Mar_14_1006	s	s	15	4	SIC	10	3_4	3	4	1	4	23_1_4	2	0	1	0	0.53377699852	-400.0	-105.0	-398.0	-105.0	1
3.0.1	2019_Mar_14_1006	s	s	15	4	SIC	11	ABS	0	0	3	3	24_3_3	NA	NA	0	1	2.53973317146	None	None	None	None	1
3.0.1	2019_Mar_14_1006	s	s	15	4	SIC	12	1_3	1	3	1	4	23_1_4	0	-1	1	0	0.80339884758	229.0	-87.0	229.0	-81.0	1
3.0.1	2019_Mar_14_1006	s	s	15	4	SIC	13	3_2	3	2	1	3	23_1_3	2	1	1	0	0.568951845169	-526.0	-74.0	-518.0	-66.0	1
3.0.1	2019_Mar_14_1006	s	s	15	4	SIC	14	ABS	0	0	3	4	24_3_4	NA	NA	0	1	1.68123197556	None	None	None	None	1
3.0.1	2019_Mar_14_1006	s	s	15	4	SIC	15	1_2	1	2	1	1	23_1_1	0	-1	0	1	1.98704099655	-468.0	213.0	None	None	0
3.0.1	2019_Mar_14_1006	s	s	15	4	SIC	16	3_1	3	1	1	2	23_1_2	2	1	1	0	0.528888940811	16.0	171.0	14.0	175.0	1
3.0.1	2019_Mar_14_1006	s	s	15	4	SIC	17	ABS	0	0	4	3	24_4_3	NA	NA	0	1	1.42879414558	None	None	None	None	1
3.0.1	2019_Mar_14_1006	s	s	15	4	SIC	18	ABS	0	0	3	1	24_3_1	NA	NA	0	1	1.04608297348	None	None	None	None	1
3.0.1	2019_Mar_14_1006	s	s	15	4	SIC	19	4_4	4	4	4	1	23_4_1	0	3	1	0	0.672621011734	359.0	-1.0	356.0	1.0	1
3.0.1	2019_Mar_14_1006	s	s	15	4	SIC	20	ABS	0	0	1	1	24_1_1	NA	NA	0	1	1.65764403343	None	None	None	None	1
3.0.1	2019_Mar_14_1006	s	s	15	4	SIC	21	ABS	0	0	2	2	24_2_2	NA	NA	0	1	2.79168701172	None	None	None	None	1
3.0.1	2019_Mar_14_1006	s	s	15	4	SIC	22	ABS	0	0	1	3	24_1_3	NA	NA	0	1	3.16301107407	None	None	None	None	1
3.0.1	2019_Mar_14_1006	s	s	15	4	SIC	23	ABS	0	0	1	1	24_1_1	NA	NA	0	1	2.53287100792	None	None	None	None	1
3.0.1	2019_Mar_14_1006	s	s	15	4	SIC	24	1_4	1	4	3	3	23_3_3	2	1	1	0	0.662931203842	60.0	44.0	51.0	42.0	1
3.0.1	2019_Mar_14_1006	s	s	15	4	SIC	25	4_4	4	4	1	2	23_1_2	3	2	1	0	0.528568029404	-145.0	322.0	-144.0	307.0	1
3.0.1	2019_Mar_14_1006	s	s	15	4	SIC	26	ABS	0	0	1	2	24_1_2	NA	NA	0	1	3.57959222794	None	None	None	None	1
3.0.1	2019_Mar_14_1006	s	s	15	4	SIC	27	ABS	0	0	3	1	24_3_1	NA	NA	0	1	1.67462015152	None	None	None	None	1
3.0.1	2019_Mar_14_1006	s	s	15	4	SIC	28	4_1	4	1	2	3	23_2_3	2	2	1	0	0.469773054123	142.0	230.0	130.0	234.0	1
3.0.1	2019_Mar_14_1006	s	s	15	4	SIC	29	ABS	0	0	2	2	24_2_2	NA	NA	0	1	2.93965196609	None	None	None	None	1
3.0.1	2019_Mar_14_1006	s	s	15	4	SIC	30	1_3	1	3	4	1	23_4_1	3	2	1	0	0.481573820114	-528.0	-25.0	-524.0	-15.0	1
3.0.1	2019_Mar_14_1006	s	s	15	4	SIC	31	3_2	3	2	4	2	23_4_2	-1	0	1	0	0.437409877777	175.0	-165.0	186.0	-165.0	1
3.0.1	2019_Mar_14_1006	s	s	15	4	SIC	32	4_1	4	1	2	2	23_2_2	2	1	1	0	0.554965019226	-112.0	-48.0	-112.0	-50.0	1
3.0.1	2019_Mar_14_1006	s	s	15	4	SIC	33	2_3	2	3	2	2	23_2_2	0	1	0	1	4.56265497208	-37.0	177.0	None	None	0
3.0.1	2019_Mar_14_1006	s	s	15	4	SIC	34	4_4	4	4	4	3	23_4_3	0	1	1	0	0.751957893372	-365.0	310.0	-363.0	320.0	1
3.0.1	2019_Mar_14_1006	s	s	15	4	SIC	35	2_3	2	3	3	3	23_3_3	1	0	1	0	0.458087921143	-10.0	-292.0	-16.0	-294.0	1
3.0.1	2019_Mar_14_1006	s	s	15	4	SIC	36	ABS	0	0	3	2	24_3_2	NA	NA	0	1	2.53975510597	None	None	None	None	1
3.0.1	2019_Mar_14_1006	s	s	15	4	SIC	37	1_2	1	2	1	4	23_1_4	0	2	1	0	0.681685209274	116.0	346.0	119.0	342.0	1
3.0.1	2019_Mar_14_1006	s	s	15	4	SIC	38	4_2	4	2	4	1	23_4_1	0	-1	0	1	1.58708405495	-493.0	-3.0	None	None	0
3.0.1	2019_Mar_14_1006	s	s	15	4	SIC	39	ABS	0	0	2	4	24_2_4	NA	NA	0	1	3.50424408913	None	None	None	None	1
3.0.1	2019_Mar_14_1006	s	s	15	4	SIC	40	ABS	0	0	3	1	24_3_1	NA	NA	0	1	1.41545200348	None	None	None	None	1
3.0.1	2019_Mar_14_1006	s	s	15	4	SIC	41	3_4	3	4	4	3	23_4_3	-1	1	1	0	0.458281040192	188.0	118.0	178.0	116.0	1
3.0.1	2019_Mar_14_1006	s	s	15	4	SIC	42	4_1	4	1	2	4	23_2_4	2	3	1	0	0.457963943481	-83.0	-171.0	-91.0	-172.0	1
3.0.1	2019_Mar_14_1006	s	s	15	4	SIC	43	1_1	1	1	1	4	23_1_4	0	3	1	0	1.82223391533	25.0	-106.0	19.0	-103.0	1
3.0.1	2019_Mar_14_1006	s	s	15	4	SIC	44	ABS	0	0	2	1	24_2_1	NA	NA	0	1	1.44092702866	None	None	None	None	1
3.0.1	2019_Mar_14_1006	s	s	15	4	SIC	45	1_3	1	3	3	2	23_3_2	2	1	1	0	0.481575965881	-228.0	298.0	-218.0	298.0	1
3.0.1	2019_Mar_14_1006	s	s	15	4	SIC	46	2_3	2	3	2	1	23_2_1	0	2	1	0	1.03099513054	-351.0	-74.0	-349.0	-69.0	1
3.0.1	2019_Mar_14_1006	s	s	15	4	SIC	47	ABS	0	0	1	4	24_1_4	NA	NA	0	1	2.07214593887	None	None	None	None	1
3.0.1	2019_Mar_14_1006	s	s	15	4	SIC	48	4_4	4	4	1	3	23_1_3	3	1	1	0	0.462139844894	-529.0	1.0	-522.0	2.0	1
3.0.1	2019_Mar_14_1006	s	s	15	4	SIC	49	ABS	0	0	4	3	24_4_3	NA	NA	0	1	1.39924812317	None	None	None	None	1
3.0.1	2019_Mar_14_1006	s	s	15	4	SIC	50	ABS	0	0	2	3	24_2_3	NA	NA	0	1	1.95831108093	None	None	None	None	1
3.0.1	2019_Mar_14_1006	s	s	15	4	SIC	51	3_1	3	1	2	1	23_2_1	1	0	1	0	0.555036783218	428.0	-355.0	436.0	-355.0	1
3.0.1	2019_Mar_14_1006	s	s	15	4	SIC	52	3_3	3	3	2	1	23_2_1	1	2	1	0	0.587322950363	-214.0	-65.0	-209.0	-65.0	1
3.0.1	2019_Mar_14_1006	s	s	15	4	SIC	53	ABS	0	0	2	1	24_2_1	NA	NA	0	1	1.11660289764	None	None	None	None	1
3.0.1	2019_Mar_14_1006	s	s	15	4	SIC	54	2_2	2	2	4	2	23_4_2	2	0	1	0	0.410943984985	-107.0	-325.0	-104.0	-331.0	1
3.0.1	2019_Mar_14_1006	s	s	15	4	SIC	55	2_3	2	3	1	2	23_1_2	-1	1	0	1	1.05785512924	91.0	-186.0	None	None	0
3.0.1	2019_Mar_14_1006	s	s	15	4	SIC	56	ABS	0	0	2	4	24_2_4	NA	NA	0	1	1.01610994339	None	None	None	None	1
3.0.1	2019_Mar_14_1006	s	s	15	4	SIC	57	ABS	0	0	1	1	24_1_1	NA	NA	0	1	0.787319898605	None	None	None	None	1
3.0.1	2019_Mar_14_1006	s	s	15	4	SIC	58	ABS	0	0	1	1	24_1_1	NA	NA	0	1	1.15190696716	None	None	None	None	1
3.0.1	2019_Mar_14_1006	s	s	15	4	SIC	59	ABS	0	0	4	2	24_4_2	NA	NA	0	1	2.39297485352	None	None	None	None	1
3.0.1	2019_Mar_14_1006	s	s	15	4	SIC	60	3_3	3	3	4	1	23_4_1	-1	2	1	0	0.457890987396	-356.0	-137.0	-352.0	-138.0	1
3.0.1	2019_Mar_14_1006	s	s	15	4	SIC	61	ABS	0	0	2	4	24_2_4	NA	NA	0	1	0.803642988205	None	None	None	None	1
3.0.1	2019_Mar_14_1006	s	s	15	4	SIC	62	ABS	0	0	2	3	24_2_3	NA	NA	0	1	1.76347517967	None	None	None	None	1
3.0.1	2019_Mar_14_1006	s	s	15	4	SIC	63	ABS	0	0	4	3	24_4_3	NA	NA	0	1	2.21599888802	None	None	None	None	1
3.0.1	2019_Mar_14_1006	s	s	15	4	SIC	64	ABS	0	0	1	3	24_1_3	NA	NA	0	1	4.55584597588	None	None	None	None	1
3.0.1	2019_Mar_14_1006	s	s	15	4	SIC	65	1_1	1	1	1	3	23_1_3	0	2	1	0	1.34535908699	310.0	-98.0	303.0	-104.0	1
3.0.1	2019_Mar_14_1006	s	s	15	4	SIC	66	ABS	0	0	1	2	24_1_2	NA	NA	0	1	2.93305802345	None	None	None	None	1
3.0.1	2019_Mar_14_1006	s	s	15	4	SIC	67	ABS	0	0	3	4	24_3_4	NA	NA	0	1	2.95756912231	None	None	None	None	1
3.0.1	2019_Mar_14_1006	s	s	15	4	SIC	68	ABS	0	0	1	4	24_1_4	NA	NA	0	1	1.41107702255	None	None	None	None	1
3.0.1	2019_Mar_14_1006	s	s	15	4	SIC	69	1_1	1	1	4	1	23_4_1	3	0	1	0	0.505080223083	-223.0	108.0	-222.0	111.0	1
3.0.1	2019_Mar_14_1006	s	s	15	4	SIC	70	1_4	1	4	4	4	23_4_4	3	0	1	0	0.446275949478	328.0	352.0	325.0	356.0	1
3.0.1	2019_Mar_14_1006	s	s	15	4	SIC	71	ABS	0	0	4	2	24_4_2	NA	NA	0	1	1.61350893974	None	None	None	None	1
3.0.1	2019_Mar_14_1006	s	s	15	4	SIC	72	ABS	0	0	4	1	24_4_1	NA	NA	0	1	1.06264805794	None	None	None	None	1
3.0.1	2019_Mar_14_1006	s	s	15	4	SIC	73	ABS	0	0	4	4	24_4_4	NA	NA	0	1	0.822523117065	None	None	None	None	1
3.0.1	2019_Mar_14_1006	s	s	15	4	SIC	74	ABS	0	0	1	2	24_1_2	NA	NA	0	1	1.72423815727	None	None	None	None	1
3.0.1	2019_Mar_14_1006	s	s	15	4	SIC	75	ABS	0	0	3	3	24_3_3	NA	NA	0	1	2.14265298843	None	None	None	None	1
3.0.1	2019_Mar_14_1006	s	s	15	4	SIC	76	3_1	3	1	1	4	23_1_4	2	3	1	0	0.528537988663	-135.0	183.0	-130.0	183.0	1
3.0.1	2019_Mar_14_1006	s	s	15	4	SIC	77	3_1	3	1	4	4	23_4_4	-1	3	1	0	0.634416103363	65.0	-194.0	71.0	-189.0	1
3.0.1	2019_Mar_14_1006	s	s	15	4	SIC	78	ABS	0	0	1	1	24_1_1	NA	NA	0	1	1.34496307373	None	None	None	None	1
3.0.1	2019_Mar_14_1006	s	s	15	4	SIC	79	ABS	0	0	2	3	24_2_3	NA	NA	0	1	2.68620419502	None	None	None	None	1
3.0.1	2019_Mar_14_1006	s	s	15	4	SIC	80	ABS	0	0	2	2	24_2_2	NA	NA	0	1	2.19216895103	None	None	None	None	1
3.0.1	2019_Mar_14_1006	s	s	15	4	SIC	81	ABS	0	0	2	3	24_2_3	NA	NA	0	1	1.85065507889	None	None	None	None	1
3.0.1	2019_Mar_14_1006	s	s	15	4	SIC	82	2_4	2	4	2	3	23_2_3	0	1	1	0	1.05796408653	-262.0	378.0	-254.0	380.0	1
3.0.1	2019_Mar_14_1006	s	s	15	4	SIC	83	ABS	0	0	4	4	24_4_4	NA	NA	0	1	1.18719315529	None	None	None	None	1
3.0.1	2019_Mar_14_1006	s	s	15	4	SIC	84	4_1	4	1	1	2	23_1_2	3	1	1	0	0.481596946716	-494.0	400.0	-488.0	395.0	1
3.0.1	2019_Mar_14_1006	s	s	15	4	SIC	85	ABS	0	0	1	3	24_1_3	NA	NA	0	1	1.46234202385	None	None	None	None	1
3.0.1	2019_Mar_14_1006	s	s	15	4	SIC	86	4_1	4	1	2	1	23_2_1	2	0	1	0	0.429347991943	375.0	-252.0	375.0	-257.0	1
3.0.1	2019_Mar_14_1006	s	s	15	4	SIC	87	1_1	1	1	2	3	23_2_3	1	2	1	0	0.849020957947	-165.0	-1.0	-167.0	-5.0	1
3.0.1	2019_Mar_14_1006	s	s	15	4	SIC	88	2_3	2	3	2	4	23_2_4	0	-1	1	0	0.975892782211	-527.0	-16.0	-533.0	-21.0	1
3.0.1	2019_Mar_14_1006	s	s	15	4	SIC	89	ABS	0	0	4	4	24_4_4	NA	NA	0	1	1.55471205711	None	None	None	None	1
3.0.1	2019_Mar_14_1006	s	s	15	4	SIC	90	ABS	0	0	3	3	24_3_3	NA	NA	0	1	1.95163297653	None	None	None	None	1
3.0.1	2019_Mar_14_1006	s	s	15	4	SIC	91	ABS	0	0	2	1	24_2_1	NA	NA	0	1	1.22287583351	None	None	None	None	1
3.0.1	2019_Mar_14_1006	s	s	15	4	SIC	92	ABS	0	0	3	1	24_3_1	NA	NA	0	1	1.0343439579	None	None	None	None	1
3.0.1	2019_Mar_14_1006	s	s	15	4	SIC	93	3_4	3	4	4	2	23_4_2	-1	2	1	0	0.505061149597	388.0	-103.0	395.0	-98.0	1
3.0.1	2019_Mar_14_1006	s	s	15	4	SIC	94	3_3	3	3	3	2	23_3_2	0	1	0	1	2.621986866	-64.0	-178.0	None	None	0
3.0.1	2019_Mar_14_1006	s	s	15	4	SIC	95	4_3	4	3	4	1	23_4_1	0	2	0	1	1.26681184769	482.0	-27.0	None	None	0
3.0.1	2019_Mar_14_1006	s	s	15	4	SIC	96	2_3	2	3	3	4	23_3_4	1	-1	1	0	0.634392023087	455.0	111.0	456.0	105.0	1
3.0.1	2019_Mar_14_1006	s	s	15	4	SIC	97	ABS	0	0	1	1	24_1_1	NA	NA	0	1	1.05784201622	None	None	None	None	1
3.0.1	2019_Mar_14_1006	s	s	15	4	SIC	98	4_2	4	2	2	2	23_2_2	2	0	1	0	0.461217880249	62.0	139.0	69.0	133.0	1
3.0.1	2019_Mar_14_1006	s	s	15	4	SIC	99	ABS	0	0	2	4	24_2_4	NA	NA	0	1	1.95173883438	None	None	None	None	1
3.0.1	2019_Mar_14_1006	s	s	15	4	SIC	100	2_4	2	4	4	3	23_4_3	2	1	1	0	0.469713926315	-71.0	-261.0	-67.0	-261.0	1
3.0.1	2019_Mar_14_1006	s	s	15	4	SIC	101	ABS	0	0	1	2	24_1_2	NA	NA	0	1	1.34048604965	None	None	None	None	1
3.0.1	2019_Mar_14_1006	s	s	15	4	SIC	102	ABS	0	0	3	3	24_3_3	NA	NA	0	1	0.810897111893	None	None	None	None	1
3.0.1	2019_Mar_14_1006	s	s	15	4	SIC	103	2_4	2	4	4	4	23_4_4	2	0	1	0	0.545449018478	446.0	-294.0	446.0	-285.0	1
3.0.1	2019_Mar_14_1006	s	s	15	4	SIC	104	4_1	4	1	1	3	23_1_3	3	2	1	0	0.458426952362	-237.0	201.0	-240.0	201.0	1
3.0.1	2019_Mar_14_1006	s	s	15	4	SIC	105	1_4	1	4	2	4	23_2_4	1	0	1	0	1.37034797668	-276.0	-33.0	-277.0	-30.0	1
3.0.1	2019_Mar_14_1006	s	s	15	4	SIC	106	ABS	0	0	3	2	24_3_2	NA	NA	0	1	2.27505588531	None	None	None	None	1
3.0.1	2019_Mar_14_1006	s	s	15	4	SIC	107	4_3	4	3	2	4	23_2_4	2	-1	1	0	0.599203109741	499.0	318.0	497.0	322.0	1
3.0.1	2019_Mar_14_1006	s	s	15	4	SIC	108	ABS	0	0	1	4	24_1_4	NA	NA	0	1	1.84873509407	None	None	None	None	1
3.0.1	2019_Mar_14_1006	s	s	15	4	SIC	109	ABS	0	0	1	1	24_1_1	NA	NA	0	1	1.64594817162	None	None	None	None	1
3.0.1	2019_Mar_14_1006	s	s	15	4	SIC	110	4_1	4	1	3	4	23_3_4	1	3	1	0	0.446261882782	401.0	-77.0	396.0	-79.0	1
3.0.1	2019_Mar_14_1006	s	s	15	4	SIC	111	ABS	0	0	4	1	24_4_1	NA	NA	0	1	0.907840013504	None	None	None	None	1
3.0.1	2019_Mar_14_1006	s	s	15	4	SIC	112	4_3	4	3	4	4	23_4_4	0	-1	1	0	0.978497028351	339.0	-91.0	339.0	-92.0	1
3.0.1	2019_Mar_14_1006	s	s	15	4	SIC	113	1_3	1	3	2	3	23_2_3	1	0	0	1	0.974174022675	213.0	176.0	None	None	0
3.0.1	2019_Mar_14_1006	s	s	15	4	SIC	114	ABS	0	0	2	2	24_2_2	NA	NA	0	1	1.28124499321	None	None	None	None	1
3.0.1	2019_Mar_14_1006	s	s	15	4	SIC	115	1_2	1	2	3	2	23_3_2	2	0	1	0	0.496169090271	260.0	125.0	255.0	117.0	1
3.0.1	2019_Mar_14_1006	s	s	15	4	SIC	116	ABS	0	0	1	3	24_1_3	NA	NA	0	1	2.46909999847	None	None	None	None	1
3.0.1	2019_Mar_14_1006	s	s	15	4	SIC	117	ABS	0	0	2	1	24_2_1	NA	NA	0	1	1.09319186211	None	None	None	None	1
3.0.1	2019_Mar_14_1006	s	s	15	4	SIC	118	2_2	2	2	1	2	23_1_2	-1	0	0	1	1.82224702835	-91.0	-39.0	None	None	0
3.0.1	2019_Mar_14_1006	s	s	15	4	SIC	119	1_1	1	1	4	2	23_4_2	3	1	1	0	0.457996845245	-210.0	-97.0	-196.0	-87.0	1
3.0.1	2019_Mar_14_1006	s	s	15	4	SIC	120	ABS	0	0	1	4	24_1_4	NA	NA	0	1	1.36928200722	None	None	None	None	1
3.0.1	2019_Mar_14_1006	s	s	15	4	SIC	121	4_1	4	1	4	2	23_4_2	0	1	0	1	1.60398197174	439.0	361.0	None	None	0
3.0.1	2019_Mar_14_1006	s	s	15	4	SIC	122	3_4	3	4	2	4	23_2_4	1	0	1	0	0.546752929688	-59.0	-211.0	-55.0	-215.0	1
3.0.1	2019_Mar_14_1006	s	s	15	4	SIC	123	ABS	0	0	1	3	24_1_3	NA	NA	0	1	1.44594287872	None	None	None	None	1
3.0.1	2019_Mar_14_1006	s	s	15	4	SIC	124	4_1	4	1	4	3	23_4_3	0	2	1	0	0.940212965012	-85.0	-182.0	-91.0	-181.0	1
3.0.1	2019_Mar_14_1006	s	s	15	4	SIC	125	ABS	0	0	1	2	24_1_2	NA	NA	0	1	0.940223932266	None	None	None	None	1
3.0.1	2019_Mar_14_1006	s	s	15	4	SIC	126	3_4	3	4	3	1	23_3_1	0	3	1	0	1.48127508163	510.0	17.0	505.0	12.0	1
3.0.1	2019_Mar_14_1006	s	s	15	4	SIC	127	ABS	0	0	1	1	24_1_1	NA	NA	0	1	0.921841144562	None	None	None	None	1
3.0.1	2019_Mar_14_1006	s	s	15	4	SIC	128	3_1	3	1	4	2	23_4_2	-1	1	1	0	0.442759037018	422.0	-47.0	427.0	-49.0	1
3.0.1	2019_Mar_14_1006	s	s	15	4	SIC	129	3_1	3	1	2	2	23_2_2	1	1	1	0	0.728573083878	309.0	-113.0	309.0	-120.0	1
3.0.1	2019_Mar_14_1006	s	s	15	4	SIC	130	4_2	4	2	4	4	23_4_4	0	2	1	0	1.45775794983	-332.0	336.0	-324.0	334.0	1
3.0.1	2019_Mar_14_1006	s	s	15	4	SIC	131	3_2	3	2	4	4	23_4_4	-1	2	1	0	0.450330018997	123.0	-216.0	131.0	-221.0	1
3.0.1	2019_Mar_14_1006	s	s	15	4	SIC	132	ABS	0	0	4	4	24_4_4	NA	NA	0	1	1.29298210144	None	None	None	None	1
3.0.1	2019_Mar_14_1006	s	s	15	4	SIC	133	ABS	0	0	1	3	24_1_3	NA	NA	0	1	2.1443169117	None	None	None	None	1
3.0.1	2019_Mar_14_1006	s	s	15	4	SIC	134	ABS	0	0	1	4	24_1_4	NA	NA	0	1	1.85756087303	None	None	None	None	1
3.0.1	2019_Mar_14_1006	s	s	15	4	SIC	135	2_2	2	2	3	2	23_3_2	1	0	1	0	0.89839887619	526.0	178.0	530.0	178.0	1
3.0.1	2019_Mar_14_1006	s	s	15	4	SIC	136	1_4	1	4	3	2	23_3_2	2	2	1	0	0.474638938904	-339.0	-13.0	-344.0	-12.0	1
3.0.1	2019_Mar_14_1006	s	s	15	4	SIC	137	ABS	0	0	2	2	24_2_2	NA	NA	0	1	1.57534694672	None	None	None	None	1
3.0.1	2019_Mar_14_1006	s	s	15	4	SIC	138	1_4	1	4	1	3	23_1_3	0	1	1	0	0.568603992462	130.0	252.0	125.0	251.0	1
3.0.1	2019_Mar_14_1006	s	s	15	4	SIC	139	4_2	4	2	4	3	23_4_3	0	1	0	1	1.68708992004	-419.0	181.0	None	None	0
3.0.1	2019_Mar_14_1006	s	s	15	4	SIC	140	ABS	0	0	2	3	24_2_3	NA	NA	0	1	2.22216200829	None	None	None	None	1
3.0.1	2019_Mar_14_1006	s	s	15	4	SIC	141	ABS	0	0	3	3	24_3_3	NA	NA	0	1	2.81542897224	None	None	None	None	1
3.0.1	2019_Mar_14_1006	s	s	15	4	SIC	142	ABS	0	0	3	3	24_3_3	NA	NA	0	1	1.44924688339	None	None	None	None	1
3.0.1	2019_Mar_14_1006	s	s	15	4	SIC	143	2_1	2	1	1	4	23_1_4	-1	3	1	0	0.657979011536	-395.0	33.0	-385.0	33.0	1
3.0.1	2019_Mar_14_1006	s	s	15	4	SIC	144	ABS	0	0	3	3	24_3_3	NA	NA	0	1	0.980473041534	None	None	None	None	1
3.0.1	2019_Mar_14_1006	s	s	15	4	SIC	145	3_2	3	2	2	3	23_2_3	1	1	1	0	0.672590970993	-71.0	317.0	-81.0	319.0	1
3.0.1	2019_Mar_14_1006	s	s	15	4	SIC	146	2_1	2	1	2	2	23_2_2	0	1	0	1	1.00360298157	-464.0	-365.0	None	None	0
3.0.1	2019_Mar_14_1006	s	s	15	4	SIC	147	ABS	0	0	2	3	24_2_3	NA	NA	0	1	1.45762705803	None	None	None	None	1
3.0.1	2019_Mar_14_1006	s	s	15	4	SIC	148	ABS	0	0	3	3	24_3_3	NA	NA	0	1	0.952032089233	None	None	None	None	1
3.0.1	2019_Mar_14_1006	s	s	15	4	SIC	149	4_4	4	4	2	4	23_2_4	2	0	1	0	0.461419820786	202.0	-253.0	201.0	-254.0	1
3.0.1	2019_Mar_14_1006	s	s	15	4	SIC	150	3_3	3	3	2	2	23_2_2	1	1	1	0	0.474942922592	55.0	-214.0	51.0	-212.0	1
3.0.1	2019_Mar_14_1006	s	s	15	4	SIC	151	2_2	2	2	3	3	23_3_3	1	1	1	0	0.768009185791	-534.0	82.0	-532.0	86.0	1
3.0.1	2019_Mar_14_1006	s	s	15	4	SIC	152	ABS	0	0	1	3	24_1_3	NA	NA	0	1	1.41065692902	None	None	None	None	1
3.0.1	2019_Mar_14_1006	s	s	15	4	SIC	153	3_1	3	1	1	1	23_1_1	2	0	1	0	0.437407970428	6.0	3.0	2.0	5.0	1
3.0.1	2019_Mar_14_1006	s	s	15	4	SIC	154	2_1	2	1	4	3	23_4_3	2	2	1	0	0.575665950775	87.0	304.0	85.0	292.0	1
3.0.1	2019_Mar_14_1006	s	s	15	4	SIC	155	ABS	0	0	3	2	24_3_2	NA	NA	0	1	0.952089071274	None	None	None	None	1
3.0.1	2019_Mar_14_1006	s	s	15	4	SIC	156	ABS	0	0	4	1	24_4_1	NA	NA	0	1	0.957188844681	None	None	None	None	1
3.0.1	2019_Mar_14_1006	s	s	15	4	SIC	157	ABS	0	0	4	4	24_4_4	NA	NA	0	1	1.39879703522	None	None	None	None	1
3.0.1	2019_Mar_14_1006	s	s	15	4	SIC	158	ABS	0	0	3	1	24_3_1	NA	NA	0	1	0.999392032623	None	None	None	None	1
3.0.1	2019_Mar_14_1006	s	s	15	4	SIC	159	3_2	3	2	1	2	23_1_2	2	0	1	0	0.560765028	147.0	154.0	145.0	155.0	1
3.0.1	2019_Mar_14_1006	s	s	15	4	SIC	160	ABS	0	0	1	4	24_1_4	NA	NA	0	1	0.755970001221	None	None	None	None	1
3.0.1	2019_Mar_14_1006	s	s	15	4	SIC	161	2_3	2	3	4	1	23_4_1	2	2	1	0	0.429251909256	171.0	-226.0	165.0	-228.0	1
3.0.1	2019_Mar_14_1006	s	s	15	4	SIC	162	4_3	4	3	1	4	23_1_4	3	-1	1	0	0.457980155945	-437.0	251.0	-435.0	253.0	1
3.0.1	2019_Mar_14_1006	s	s	15	4	SIC	163	1_3	1	3	3	4	23_3_4	2	-1	1	0	0.605919837952	-163.0	206.0	-172.0	215.0	1
3.0.1	2019_Mar_14_1006	s	s	15	4	SIC	164	1_2	1	2	3	3	23_3_3	2	1	1	0	0.481528997421	333.0	26.0	322.0	27.0	1
3.0.1	2019_Mar_14_1006	s	s	15	4	SIC	165	ABS	0	0	3	4	24_3_4	NA	NA	0	1	0.893140077591	None	None	None	None	1
3.0.1	2019_Mar_14_1006	s	s	15	4	SIC	166	ABS	0	0	2	4	24_2_4	NA	NA	0	1	2.01048898697	None	None	None	None	1
3.0.1	2019_Mar_14_1006	s	s	15	4	SIC	167	3_4	3	4	3	2	23_3_2	0	2	1	0	1.09315991402	105.0	-101.0	100.0	-106.0	1
3.0.1	2019_Mar_14_1006	s	s	15	4	SIC	168	3_1	3	1	1	3	23_1_3	2	2	1	0	0.73141002655	-526.0	-272.0	-532.0	-271.0	1
3.0.1	2019_Mar_14_1006	s	s	15	4	SIC	169	ABS	0	0	2	4	24_2_4	NA	NA	0	1	1.52834296227	None	None	None	None	1
3.0.1	2019_Mar_14_1006	s	s	15	4	SIC	170	1_4	1	4	4	2	23_4_2	3	2	1	0	0.540390014648	-44.0	-76.0	-47.0	-77.0	1
3.0.1	2019_Mar_14_1006	s	s	15	4	SIC	171	1_1	1	1	2	2	23_2_2	1	1	1	0	1.14535403252	142.0	235.0	137.0	233.0	1
3.0.1	2019_Mar_14_1006	s	s	15	4	SIC	172	4_3	4	3	3	1	23_3_1	1	2	1	0	0.44640994072	91.0	-257.0	79.0	-255.0	1
3.0.1	2019_Mar_14_1006	s	s	15	4	SIC	173	ABS	0	0	1	4	24_1_4	NA	NA	0	1	1.48124790192	None	None	None	None	1
3.0.1	2019_Mar_14_1006	s	s	15	4	SIC	174	2_1	2	1	3	3	23_3_3	1	2	1	0	0.555009126663	-47.0	-119.0	-50.0	-114.0	1
3.0.1	2019_Mar_14_1006	s	s	15	4	SIC	175	ABS	0	0	2	4	24_2_4	NA	NA	0	1	0.803686857224	None	None	None	None	1
3.0.1	2019_Mar_14_1006	s	s	15	4	SIC	176	ABS	0	0	1	2	24_1_2	NA	NA	0	1	0.928358078003	None	None	None	None	1
3.0.1	2019_Mar_14_1006	s	s	15	4	SIC	177	1_2	1	2	2	3	23_2_3	1	1	0	1	2.7895860672	415.0	-167.0	None	None	0
3.0.1	2019_Mar_14_1006	s	s	15	4	SIC	178	3_3	3	3	4	4	23_4_4	-1	-1	1	0	0.575633049011	-471.0	140.0	-472.0	147.0	1
3.0.1	2019_Mar_14_1006	s	s	15	4	SIC	179	ABS	0	0	2	3	24_2_3	NA	NA	0	1	2.40226697922	None	None	None	None	1
3.0.1	2019_Mar_14_1006	s	s	15	4	SIC	180	3_4	3	4	1	1	23_1_1	2	3	1	0	0.61483001709	-518.0	94.0	-516.0	87.0	1
3.0.1	2019_Mar_14_1006	s	s	15	4	SIC	181	ABS	0	0	3	4	24_3_4	NA	NA	0	1	1.35646104813	None	None	None	None	1
3.0.1	2019_Mar_14_1006	s	s	15	4	SIC	182	ABS	0	0	4	2	24_4_2	NA	NA	0	1	1.2606420517	None	None	None	None	1
3.0.1	2019_Mar_14_1006	s	s	15	4	SIC	183	2_1	2	1	2	4	23_2_4	0	3	1	0	0.738121032715	-217.0	-362.0	-221.0	-363.0	1
3.0.1	2019_Mar_14_1006	s	s	15	4	SIC	184	1_4	1	4	3	4	23_3_4	2	0	1	0	0.592559099197	-80.0	-373.0	-78.0	-385.0	1
3.0.1	2019_Mar_14_1006	s	s	15	4	SIC	185	3_2	3	2	2	2	23_2_2	1	0	1	0	0.481584072113	49.0	12.0	51.0	12.0	1
3.0.1	2019_Mar_14_1006	s	s	15	4	SIC	186	2_1	2	1	4	1	23_4_1	2	0	1	0	0.42912197113	-135.0	-193.0	-138.0	-187.0	1
3.0.1	2019_Mar_14_1006	s	s	15	4	SIC	187	ABS	0	0	3	4	24_3_4	NA	NA	0	1	1.49585294724	None	None	None	None	1
3.0.1	2019_Mar_14_1006	s	s	15	4	SIC	188	2_4	2	4	1	1	23_1_1	-1	3	1	0	0.554938793182	-395.0	-257.0	-394.0	-253.0	1
3.0.1	2019_Mar_14_1006	s	s	15	4	SIC	189	1_4	1	4	4	3	23_4_3	3	1	1	0	1.05775403976	-194.0	334.0	-203.0	336.0	1
3.0.1	2019_Mar_14_1006	s	s	15	4	SIC	190	3_2	3	2	4	3	23_4_3	-1	1	1	0	0.452749013901	312.0	287.0	308.0	292.0	1
3.0.1	2019_Mar_14_1006	s	s	15	4	SIC	191	ABS	0	0	3	4	24_3_4	NA	NA	0	1	1.06964612007	None	None	None	None	1
3.0.1	2019_Mar_14_1006	s	s	15	4	SIC	192	ABS	0	0	2	4	24_2_4	NA	NA	0	1	1.37924098969	None	None	None	None	1
3.0.1	2019_Mar_14_1006	s	s	15	4	SIC	193	2_2	2	2	1	3	23_1_3	-1	1	0	1	1.50217986107	-152.0	-202.0	None	None	0
3.0.1	2019_Mar_14_1006	s	s	15	4	SIC	194	ABS	0	0	2	2	24_2_2	NA	NA	0	1	1.03288793564	None	None	None	None	1
3.0.1	2019_Mar_14_1006	s	s	15	4	SIC	195	ABS	0	0	2	3	24_2_3	NA	NA	0	1	0.854114055634	None	None	None	None	1
3.0.1	2019_Mar_14_1006	s	s	15	4	SIC	196	ABS	0	0	4	2	24_4_2	NA	NA	0	1	1.4500579834	None	None	None	None	1
3.0.1	2019_Mar_14_1006	s	s	15	4	SIC	197	ABS	0	0	4	3	24_4_3	NA	NA	0	1	0.881411075592	None	None	None	None	1
3.0.1	2019_Mar_14_1006	s	s	15	4	SIC	198	4_3	4	3	3	4	23_3_4	1	-1	1	0	0.488074064255	-11.0	-239.0	-11.0	-239.0	1
3.0.1	2019_Mar_14_1006	s	s	15	4	SIC	199	ABS	0	0	2	2	24_2_2	NA	NA	0	1	2.26663517952	None	None	None	None	1
3.0.1	2019_Mar_14_1006	s	s	15	4	SIC	200	ABS	0	0	4	1	24_4_1	NA	NA	0	1	1.6135160923	None	None	None	None	1
3.0.1	2019_Mar_14_1006	s	s	15	4	SIC	201	2_2	2	2	4	1	23_4_1	2	-1	1	0	0.469820976257	-492.0	23.0	-491.0	20.0	1
3.0.1	2019_Mar_14_1006	s	s	15	4	SIC	202	2_2	2	2	1	4	23_1_4	-1	2	1	0	1.63450098038	486.0	294.0	490.0	291.0	1
3.0.1	2019_Mar_14_1006	s	s	15	4	SIC	203	4_2	4	2	2	3	23_2_3	2	1	1	0	0.446221113205	-496.0	217.0	-494.0	220.0	1
3.0.1	2019_Mar_14_1006	s	s	15	4	SIC	204	1_3	1	3	3	1	23_3_1	2	2	1	0	0.751923799515	470.0	391.0	471.0	391.0	1
3.0.1	2019_Mar_14_1006	s	s	15	4	SIC	205	ABS	0	0	4	3	24_4_3	NA	NA	0	1	1.45776200294	None	None	None	None	1
3.0.1	2019_Mar_14_1006	s	s	15	4	SIC	206	ABS	0	0	4	2	24_4_2	NA	NA	0	1	1.28159189224	None	None	None	None	1
3.0.1	2019_Mar_14_1006	s	s	15	4	SIC	207	ABS	0	0	1	2	24_1_2	NA	NA	0	1	1.46939396858	None	None	None	None	1
3.0.1	2019_Mar_14_1006	s	s	15	4	SIC	208	ABS	0	0	4	3	24_4_3	NA	NA	0	1	1.30503106117	None	None	None	None	1
3.0.1	2019_Mar_14_1006	s	s	15	4	SIC	209	4_4	4	4	4	2	23_4_2	0	2	1	0	0.74625992775	-201.0	55.0	-193.0	56.0	1
3.0.1	2019_Mar_14_1006	s	s	15	4	SIC	210	ABS	0	0	4	4	24_4_4	NA	NA	0	1	1.42776989937	None	None	None	None	1
3.0.1	2019_Mar_14_1006	s	s	15	4	SIC	211	ABS	0	0	2	3	24_2_3	NA	NA	0	1	1.14307188988	None	None	None	None	1
3.0.1	2019_Mar_14_1006	s	s	15	4	SIC	212	ABS	0	0	3	1	24_3_1	NA	NA	0	1	0.951980113983	None	None	None	None	1
3.0.1	2019_Mar_14_1006	s	s	15	4	SIC	213	ABS	0	0	1	1	24_1_1	NA	NA	0	1	0.97292304039	None	None	None	None	1
3.0.1	2019_Mar_14_1006	s	s	15	4	SIC	214	ABS	0	0	4	1	24_4_1	NA	NA	0	1	1.16360592842	None	None	None	None	1
3.0.1	2019_Mar_14_1006	s	s	15	4	SIC	215	ABS	0	0	4	2	24_4_2	NA	NA	0	1	3.09806799889	None	None	None	None	1
3.0.1	2019_Mar_14_1006	s	s	15	4	SIC	216	ABS	0	0	1	2	24_1_2	NA	NA	0	1	3.50122022629	None	None	None	None	1
3.0.1	2019_Mar_14_1006	s	s	15	4	SIC	217	ABS	0	0	3	3	24_3_3	NA	NA	0	1	1.81345796585	None	None	None	None	1
3.0.1	2019_Mar_14_1006	s	s	15	4	SIC	218	ABS	0	0	2	1	24_2_1	NA	NA	0	1	3.24541497231	None	None	None	None	1
3.0.1	2019_Mar_14_1006	s	s	15	4	SIC	219	1_1	1	1	1	2	23_1_2	0	1	0	1	1.68116402626	422.0	101.0	None	None	0
3.0.1	2019_Mar_14_1006	s	s	15	4	SIC	220	ABS	0	0	3	1	24_3_1	NA	NA	0	1	1.40410590172	None	None	None	None	1
3.0.1	2019_Mar_14_1006	s	s	15	4	SIC	221	2_2	2	2	4	3	23_4_3	2	1	1	0	0.493762969971	10.0	-55.0	9.0	-50.0	1
3.0.1	2019_Mar_14_1006	s	s	15	4	SIC	222	ABS	0	0	2	4	24_2_4	NA	NA	0	1	1.31952381134	None	None	None	None	1
3.0.1	2019_Mar_14_1006	s	s	15	4	SIC	223	3_3	3	3	1	1	23_1_1	2	2	1	0	0.503566980362	-236.0	42.0	-231.0	43.0	1
3.0.1	2019_Mar_14_1006	s	s	15	4	SIC	224	ABS	0	0	2	1	24_2_1	NA	NA	0	1	1.58713698387	None	None	None	None	1
3.0.1	2019_Mar_14_1006	s	s	15	4	SIC	225	3_4	3	4	4	1	23_4_1	-1	3	1	0	0.61484503746	439.0	370.0	433.0	367.0	1
3.0.1	2019_Mar_14_1006	s	s	15	4	SIC	226	ABS	0	0	4	1	24_4_1	NA	NA	0	1	1.815294981	None	None	None	None	1
3.0.1	2019_Mar_14_1006	s	s	15	4	SIC	227	ABS	0	0	4	2	24_4_2	NA	NA	0	1	2.61986303329	None	None	None	None	1
3.0.1	2019_Mar_14_1006	s	s	15	4	SIC	228	2_3	2	3	1	3	23_1_3	-1	0	1	0	1.1171040535	-136.0	34.0	-140.0	31.0	1
3.0.1	2019_Mar_14_1006	s	s	15	4	SIC	229	ABS	0	0	4	2	24_4_2	NA	NA	0	1	1.10482811928	None	None	None	None	1
3.0.1	2019_Mar_14_1006	s	s	15	4	SIC	230	ABS	0	0	2	2	24_2_2	NA	NA	0	1	2.03104615211	None	None	None	None	1
3.0.1	2019_Mar_14_1006	s	s	15	4	SIC	231	4_3	4	3	2	3	23_2_3	2	0	1	0	0.446228027344	-74.0	-183.0	-68.0	-178.0	1
3.0.1	2019_Mar_14_1006	s	s	15	4	SIC	232	4_4	4	4	2	3	23_2_3	2	1	1	0	0.481486082077	322.0	239.0	324.0	236.0	1
3.0.1	2019_Mar_14_1006	s	s	15	4	SIC	233	2_1	2	1	1	3	23_1_3	-1	2	1	0	0.816614866257	-97.0	-102.0	-102.0	-104.0	1
3.0.1	2019_Mar_14_1006	s	s	15	4	SIC	234	2_2	2	2	4	4	23_4_4	2	2	1	0	0.481501102448	278.0	-377.0	277.0	-381.0	1
3.0.1	2019_Mar_14_1006	s	s	15	4	SIC	235	2_1	2	1	2	3	23_2_3	0	2	0	1	1.35182309151	141.0	145.0	None	None	0
3.0.1	2019_Mar_14_1006	s	s	15	4	SIC	236	ABS	0	0	2	4	24_2_4	NA	NA	0	1	0.862644910812	None	None	None	None	1
3.0.1	2019_Mar_14_1006	s	s	15	4	SIC	237	4_2	4	2	1	2	23_1_2	3	0	1	0	0.481592178345	390.0	186.0	390.0	175.0	1
3.0.1	2019_Mar_14_1006	s	s	15	4	SIC	238	ABS	0	0	3	1	24_3_1	NA	NA	0	1	0.810827970505	None	None	None	None	1
3.0.1	2019_Mar_14_1006	s	s	15	4	SIC	239	ABS	0	0	4	1	24_4_1	NA	NA	0	1	0.928480148315	None	None	None	None	1
3.0.1	2019_Mar_14_1006	s	s	15	4	SIC	240	2_4	2	4	2	2	23_2_2	0	2	1	0	1.10507297516	203.0	181.0	208.0	184.0	1
3.0.1	2019_Mar_14_1006	s	s	15	4	SIC	241	4_4	4	4	3	4	23_3_4	1	0	1	0	0.575718164444	-316.0	-79.0	-327.0	-72.0	1
3.0.1	2019_Mar_14_1006	s	s	15	4	SIC	242	4_3	4	3	2	2	23_2_2	2	1	1	0	0.496190071106	-479.0	407.0	-470.0	403.0	1
3.0.1	2019_Mar_14_1006	s	s	15	4	SIC	243	ABS	0	0	4	4	24_4_4	NA	NA	0	1	1.28622198105	None	None	None	None	1
3.0.1	2019_Mar_14_1006	s	s	15	4	SIC	244	3_4	3	4	2	1	23_2_1	1	3	1	0	0.580366134644	140.0	158.0	137.0	158.0	1
3.0.1	2019_Mar_14_1006	s	s	15	4	SIC	245	4_4	4	4	1	1	23_1_1	3	3	1	0	0.469836950302	16.0	236.0	18.0	229.0	1
3.0.1	2019_Mar_14_1006	s	s	15	4	SIC	246	ABS	0	0	3	4	24_3_4	NA	NA	0	1	2.36329507828	None	None	None	None	1
3.0.1	2019_Mar_14_1006	s	s	15	4	SIC	247	ABS	0	0	4	3	24_4_3	NA	NA	0	1	1.32849907875	None	None	None	None	1
3.0.1	2019_Mar_14_1006	s	s	15	4	SIC	248	3_3	3	3	2	4	23_2_4	1	-1	1	0	0.554955005646	17.0	28.0	20.0	28.0	1
3.0.1	2019_Mar_14_1006	s	s	15	4	SIC	249	ABS	0	0	2	2	24_2_2	NA	NA	0	1	1.51645994186	None	None	None	None	1
3.0.1	2019_Mar_14_1006	s	s	15	4	SIC	250	4_3	4	3	2	1	23_2_1	2	2	1	0	0.392873048782	96.0	225.0	97.0	226.0	1
3.0.1	2019_Mar_14_1006	s	s	15	4	SIC	251	3_3	3	3	1	2	23_1_2	2	1	1	0	0.731507062912	-300.0	200.0	-299.0	207.0	1
3.0.1	2019_Mar_14_1006	s	s	15	4	SIC	252	1_3	1	3	4	3	23_4_3	3	0	1	0	0.469708919525	-27.0	-72.0	-27.0	-74.0	1
3.0.1	2019_Mar_14_1006	s	s	15	4	SIC	253	3_3	3	3	3	4	23_3_4	0	-1	1	0	1.02552509308	-143.0	142.0	-144.0	140.0	1
3.0.1	2019_Mar_14_1006	s	s	15	4	SIC	254	1_2	1	2	2	4	23_2_4	1	2	1	0	0.657959938049	43.0	115.0	39.0	117.0	1
3.0.1	2019_Mar_14_1006	s	s	15	4	SIC	255	ABS	0	0	1	4	24_1_4	NA	NA	0	1	1.10775589943	None	None	None	None	1
3.0.1	2019_Mar_14_1006	s	s	15	4	SIC	256	ABS	0	0	1	2	24_1_2	NA	NA	0	1	0.922563076019	None	None	None	None	1
3.0.1	2019_Mar_14_1006	s	s	15	4	SIC	257	ABS	0	0	3	3	24_3_3	NA	NA	0	1	1.65761899948	None	None	None	None	1
3.0.1	2019_Mar_14_1006	s	s	15	4	SIC	258	4_2	4	2	2	4	23_2_4	2	2	1	0	0.422782897949	379.0	303.0	372.0	298.0	1
3.0.1	2019_Mar_14_1006	s	s	15	4	SIC	259	ABS	0	0	2	2	24_2_2	NA	NA	0	1	1.37539100647	None	None	None	None	1
3.0.1	2019_Mar_14_1006	s	s	15	4	SIC	260	2_4	2	4	3	1	23_3_1	1	3	1	0	0.575592041016	324.0	70.0	324.0	68.0	1
3.0.1	2019_Mar_14_1006	s	s	15	4	SIC	261	1_4	1	4	2	2	23_2_2	1	2	1	0	0.780625104904	104.0	386.0	103.0	386.0	1
3.0.1	2019_Mar_14_1006	s	s	15	4	SIC	262	ABS	0	0	1	4	24_1_4	NA	NA	0	1	1.06960320473	None	None	None	None	1
3.0.1	2019_Mar_14_1006	s	s	15	4	SIC	263	1_2	1	2	2	1	23_2_1	1	-1	1	0	1.12323403358	-32.0	13.0	-29.0	11.0	1
3.0.1	2019_Mar_14_1006	s	s	15	4	SIC	264	3_2	3	2	4	1	23_4_1	-1	-1	1	0	0.496200799942	-224.0	305.0	-224.0	303.0	1
3.0.1	2019_Mar_14_1006	s	s	15	4	SIC	265	ABS	0	0	3	2	24_3_2	NA	NA	0	1	1.55464506149	None	None	None	None	1
3.0.1	2019_Mar_14_1006	s	s	15	4	SIC	266	ABS	0	0	1	1	24_1_1	NA	NA	0	1	1.14020800591	None	None	None	None	1
3.0.1	2019_Mar_14_1006	s	s	15	4	SIC	267	ABS	0	0	4	2	24_4_2	NA	NA	0	1	2.6506459713	None	None	None	None	1
3.0.1	2019_Mar_14_1006	s	s	15	4	SIC	268	ABS	0	0	2	1	24_2_1	NA	NA	0	1	2.05044293404	None	None	None	None	1
3.0.1	2019_Mar_14_1006	s	s	15	4	SIC	269	ABS	0	0	1	3	24_1_3	NA	NA	0	1	1.63392615318	None	None	None	None	1
3.0.1	2019_Mar_14_1006	s	s	15	4	SIC	270	2_1	2	1	3	1	23_3_1	1	0	1	0	1.38715100288	-477.0	-11.0	-485.0	-17.0	1
3.0.1	2019_Mar_14_1006	s	s	15	4	SIC	271	ABS	0	0	4	4	24_4_4	NA	NA	0	1	1.66425299644	None	None	None	None	1
3.0.1	2019_Mar_14_1006	s	s	15	4	SIC	272	ABS	0	0	4	2	24_4_2	NA	NA	0	1	2.36332297325	None	None	None	None	1
3.0.1	2019_Mar_14_1006	s	s	15	4	SIC	273	4_4	4	4	3	1	23_3_1	1	3	1	0	0.481547117233	315.0	180.0	318.0	180.0	1
3.0.1	2019_Mar_14_1006	s	s	15	4	SIC	274	ABS	0	0	1	2	24_1_2	NA	NA	0	1	1.67432403564	None	None	None	None	1
3.0.1	2019_Mar_14_1006	s	s	15	4	SIC	275	ABS	0	0	3	2	24_3_2	NA	NA	0	1	2.45059204102	None	None	None	None	1
3.0.1	2019_Mar_14_1006	s	s	15	4	SIC	276	ABS	0	0	1	1	24_1_1	NA	NA	0	1	1.70719885826	None	None	None	None	1
3.0.1	2019_Mar_14_1006	s	s	15	4	SIC	277	3_2	3	2	3	1	23_3_1	0	-1	0	1	1.36371397972	530.0	294.0	None	None	0
3.0.1	2019_Mar_14_1006	s	s	15	4	SIC	278	3_1	3	1	3	4	23_3_4	0	3	1	0	1.06965208054	536.0	-166.0	527.0	-165.0	1
3.0.1	2019_Mar_14_1006	s	s	15	4	SIC	279	ABS	0	0	4	1	24_4_1	NA	NA	0	1	1.20185494423	None	None	None	None	1
3.0.1	2019_Mar_14_1006	s	s	15	4	SIC	280	1_1	1	1	2	4	23_2_4	1	3	1	0	0.666359901428	126.0	-355.0	127.0	-354.0	1
3.0.1	2019_Mar_14_1006	s	s	15	4	SIC	281	ABS	0	0	1	2	24_1_2	NA	NA	0	1	3.30423498154	None	None	None	None	1
3.0.1	2019_Mar_14_1006	s	s	15	4	SIC	282	3_2	3	2	2	4	23_2_4	1	2	1	0	0.547087907791	416.0	309.0	412.0	313.0	1
3.0.1	2019_Mar_14_1006	s	s	15	4	SIC	283	ABS	0	0	4	2	24_4_2	NA	NA	0	1	1.18034887314	None	None	None	None	1
3.0.1	2019_Mar_14_1006	s	s	15	4	SIC	284	ABS	0	0	1	4	24_1_4	NA	NA	0	1	1.46944904327	None	None	None	None	1
3.0.1	2019_Mar_14_1006	s	s	15	4	SIC	285	ABS	0	0	4	1	24_4_1	NA	NA	0	1	1.11866211891	None	None	None	None	1
3.0.1	2019_Mar_14_1006	s	s	15	4	SIC	286	1_4	1	4	2	1	23_2_1	1	3	1	0	0.516824007034	42.0	211.0	51.0	210.0	1
3.0.1	2019_Mar_14_1006	s	s	15	4	SIC	287	ABS	0	0	3	1	24_3_1	NA	NA	0	1	1.04604697227	None	None	None	None	1
3.0.1	2019_Mar_14_1006	s	s	15	4	SIC	288	1_3	1	3	1	2	23_1_2	0	1	0	1	2.95143294334	13.0	-145.0	None	None	0
3.0.1	2019_Mar_14_1006	s	s	15	4	SIC	289	ABS	0	0	3	2	24_3_2	NA	NA	0	1	1.55976295471	None	None	None	None	1
3.0.1	2019_Mar_14_1006	s	s	15	4	SIC	290	ABS	0	0	4	4	24_4_4	NA	NA	0	1	1.44591617584	None	None	None	None	1
3.0.1	2019_Mar_14_1006	s	s	15	4	SIC	291	3_4	3	4	1	3	23_1_3	2	1	1	0	0.552098989487	16.0	-230.0	11.0	-222.0	1
3.0.1	2019_Mar_14_1006	s	s	15	4	SIC	292	ABS	0	0	4	3	24_4_3	NA	NA	0	1	1.48766517639	None	None	None	None	1
3.0.1	2019_Mar_14_1006	s	s	15	4	SIC	293	ABS	0	0	3	3	24_3_3	NA	NA	0	1	1.21538591385	None	None	None	None	1
3.0.1	2019_Mar_14_1006	s	s	15	4	SIC	294	4_4	4	4	2	2	23_2_2	2	2	1	0	0.422791004181	328.0	84.0	328.0	81.0	1
3.0.1	2019_Mar_14_1006	s	s	15	4	SIC	295	1_3	1	3	2	1	23_2_1	1	2	1	0	1.88608002663	185.0	-312.0	184.0	-305.0	1
3.0.1	2019_Mar_14_1006	s	s	15	4	SIC	296	1_1	1	1	3	2	23_3_2	2	1	1	0	0.469769001007	122.0	-7.0	121.0	-17.0	1
3.0.1	2019_Mar_14_1006	s	s	15	4	SIC	297	ABS	0	0	2	4	24_2_4	NA	NA	0	1	1.34009099007	None	None	None	None	1
3.0.1	2019_Mar_14_1006	s	s	15	4	SIC	298	1_2	1	2	4	3	23_4_3	3	1	1	0	0.470145940781	-425.0	99.0	-424.0	99.0	1
3.0.1	2019_Mar_14_1006	s	s	15	4	SIC	299	ABS	0	0	1	4	24_1_4	NA	NA	0	1	1.328343153	None	None	None	None	1
3.0.1	2019_Mar_14_1006	s	s	15	4	SIC	300	ABS	0	0	3	2	24_3_2	NA	NA	0	1	1.93989992142	None	None	None	None	1
3.0.1	2019_Mar_14_1006	s	s	15	4	SIC	301	2_2	2	2	2	1	23_2_1	0	-1	0	1	1.30484604836	-381.0	69.0	None	None	0
3.0.1	2019_Mar_14_1006	s	s	15	4	SIC	302	3_4	3	4	4	4	23_4_4	-1	0	1	0	0.446262121201	208.0	311.0	206.0	300.0	1
3.0.1	2019_Mar_14_1006	s	s	15	4	SIC	303	ABS	0	0	4	2	24_4_2	NA	NA	0	1	1.63991498947	None	None	None	None	1
3.0.1	2019_Mar_14_1006	s	s	15	4	SIC	304	4_3	4	3	1	3	23_1_3	3	0	1	0	0.716840028763	-96.0	-229.0	-89.0	-231.0	1
3.0.1	2019_Mar_14_1006	s	s	15	4	SIC	305	ABS	0	0	3	1	24_3_1	NA	NA	0	1	0.898246049881	None	None	None	None	1
3.0.1	2019_Mar_14_1006	s	s	15	4	SIC	306	3_3	3	3	3	1	23_3_1	0	2	0	1	1.39874792099	-215.0	-28.0	None	None	0
3.0.1	2019_Mar_14_1006	s	s	15	4	SIC	307	3_1	3	1	3	2	23_3_2	0	1	0	1	1.59234595299	-449.0	-100.0	None	None	0
3.0.1	2019_Mar_14_1006	s	s	15	4	SIC	308	ABS	0	0	4	3	24_4_3	NA	NA	0	1	1.37011098862	None	None	None	None	1
3.0.1	2019_Mar_14_1006	s	s	15	4	SIC	309	ABS	0	0	2	3	24_2_3	NA	NA	0	1	1.31045484543	None	None	None	None	1
3.0.1	2019_Mar_14_1006	s	s	15	4	SIC	310	ABS	0	0	4	1	24_4_1	NA	NA	0	1	1.03953504562	None	None	None	None	1
3.0.1	2019_Mar_14_1006	s	s	15	4	SIC	311	3_4	3	4	1	2	23_1_2	2	2	1	0	0.651306867599	107.0	237.0	100.0	232.0	1
3.0.1	2019_Mar_14_1006	s	s	15	4	SIC	312	ABS	0	0	2	2	24_2_2	NA	NA	0	1	1.20613789558	None	None	None	None	1
3.0.1	2019_Mar_14_1006	s	s	15	4	SIC	313	2_4	2	4	2	1	23_2_1	0	3	1	0	0.839275121689	523.0	22.0	533.0	25.0	1
3.0.1	2019_Mar_14_1006	s	s	15	4	SIC	314	2_2	2	2	1	1	23_1_1	-1	-1	0	1	0.96660900116	177.0	-78.0	None	None	0
3.0.1	2019_Mar_14_1006	s	s	15	4	SIC	315	3_3	3	3	1	4	23_1_4	2	-1	1	0	0.587594032288	-339.0	294.0	-340.0	283.0	1
3.0.1	2019_Mar_14_1006	s	s	15	4	SIC	316	ABS	0	0	1	3	24_1_3	NA	NA	0	1	1.02538108826	None	None	None	None	1
3.0.1	2019_Mar_14_1006	s	s	15	4	SIC	317	ABS	0	0	3	3	24_3_3	NA	NA	0	1	1.4467830658	None	None	None	None	1
3.0.1	2019_Mar_14_1006	s	s	15	4	SIC	318	ABS	0	0	3	4	24_3_4	NA	NA	0	1	2.70925211906	None	None	None	None	1
3.0.1	2019_Mar_14_1006	s	s	15	4	SIC	319	ABS	0	0	1	1	24_1_1	NA	NA	0	1	2.50444412231	None	None	None	None	1
3.0.1	2019_Mar_14_1006	s	s	15	4	SIC	320	ABS	0	0	2	3	24_2_3	NA	NA	0	1	2.74455499649	None	None	None	None	1
3.0.1	2019_Mar_14_1006	s	s	15	4	SIC	321	4_1	4	1	3	1	23_3_1	1	0	1	0	0.575742959976	457.0	85.0	449.0	90.0	1
3.0.1	2019_Mar_14_1006	s	s	15	4	SIC	322	ABS	0	0	4	4	24_4_4	NA	NA	0	1	0.943930864334	None	None	None	None	1
3.0.1	2019_Mar_14_1006	s	s	15	4	SIC	323	4_3	4	3	3	2	23_3_2	1	1	1	0	0.46969294548	-348.0	66.0	-356.0	61.0	1
3.0.1	2019_Mar_14_1006	s	s	15	4	SIC	324	4_1	4	1	1	4	23_1_4	3	3	1	0	0.422920942307	-152.0	156.0	-158.0	153.0	1
3.0.1	2019_Mar_14_1006	s	s	15	4	SIC	325	ABS	0	0	3	1	24_3_1	NA	NA	0	1	1.02540707588	None	None	None	None	1
3.0.1	2019_Mar_14_1006	s	s	15	4	SIC	326	ABS	0	0	2	1	24_2_1	NA	NA	0	1	1.13334012032	None	None	None	None	1
3.0.1	2019_Mar_14_1006	s	s	15	4	SIC	327	4_1	4	1	4	4	23_4_4	0	3	1	0	0.686076879501	50.0	254.0	55.0	254.0	1
3.0.1	2019_Mar_14_1006	s	s	15	4	SIC	328	ABS	0	0	1	2	24_1_2	NA	NA	0	1	1.37826609612	None	None	None	None	1
3.0.1	2019_Mar_14_1006	s	s	15	4	SIC	329	1_1	1	1	4	3	23_4_3	3	2	1	0	0.401902198792	251.0	-17.0	249.0	-19.0	1
3.0.1	2019_Mar_14_1006	s	s	15	4	SIC	330	ABS	0	0	4	3	24_4_3	NA	NA	0	1	1.93987393379	None	None	None	None	1
3.0.1	2019_Mar_14_1006	s	s	15	4	SIC	331	1_1	1	1	3	3	23_3_3	2	2	1	0	0.43738079071	474.0	-157.0	475.0	-163.0	1
3.0.1	2019_Mar_14_1006	s	s	15	4	SIC	332	ABS	0	0	1	3	24_1_3	NA	NA	0	1	1.52827095985	None	None	None	None	1
3.0.1	2019_Mar_14_1006	s	s	15	4	SIC	333	1_1	1	1	4	4	23_4_4	3	3	1	0	0.410831928253	-472.0	62.0	-478.0	62.0	1
3.0.1	2019_Mar_14_1006	s	s	15	4	SIC	334	ABS	0	0	1	3	24_1_3	NA	NA	0	1	2.109333992	None	None	None	None	1
3.0.1	2019_Mar_14_1006	s	s	15	4	SIC	335	3_4	3	4	2	3	23_2_3	1	1	1	0	0.552068948746	172.0	-38.0	172.0	-33.0	1
3.0.1	2019_Mar_14_1006	s	s	15	4	SIC	336	ABS	0	0	1	3	24_1_3	NA	NA	0	1	1.99873781204	None	None	None	None	1
3.0.1	2019_Mar_14_1006	s	s	15	4	SIC	337	ABS	0	0	1	4	24_1_4	NA	NA	0	1	1.31003594398	None	None	None	None	1
3.0.1	2019_Mar_14_1006	s	s	15	4	SIC	338	ABS	0	0	3	2	24_3_2	NA	NA	0	1	2.04574608803	None	None	None	None	1
3.0.1	2019_Mar_14_1006	s	s	15	4	SIC	339	2_3	2	3	1	1	23_1_1	-1	2	0	1	1.91182088852	-168.0	229.0	None	None	0
3.0.1	2019_Mar_14_1006	s	s	15	4	SIC	340	ABS	0	0	3	4	24_3_4	NA	NA	0	1	1.32048797607	None	None	None	None	1
3.0.1	2019_Mar_14_1006	s	s	15	4	SIC	341	ABS	0	0	3	3	24_3_3	NA	NA	0	1	2.05751419067	None	None	None	None	1
3.0.1	2019_Mar_14_1006	s	s	15	4	SIC	342	ABS	0	0	2	3	24_2_3	NA	NA	0	1	2.93998908997	None	None	None	None	1
3.0.1	2019_Mar_14_1006	s	s	15	4	SIC	343	3_3	3	3	2	3	23_2_3	1	0	1	0	1.01097798347	434.0	-304.0	433.0	-301.0	1
3.0.1	2019_Mar_14_1006	s	s	15	4	SIC	344	1_2	1	2	2	2	23_2_2	1	0	1	0	2.86902999878	403.0	87.0	391.0	-390.0	0
3.0.1	2019_Mar_14_1006	s	s	15	4	SIC	345	4_1	4	1	1	1	23_1_1	3	0	1	0	0.437398910522	-287.0	279.0	-283.0	282.0	1
3.0.1	2019_Mar_14_1006	s	s	15	4	SIC	346	4_2	4	2	1	1	23_1_1	3	-1	1	0	0.437391996384	-108.0	121.0	-111.0	116.0	1
3.0.1	2019_Mar_14_1006	s	s	15	4	SIC	347	1_2	1	2	4	1	23_4_1	3	-1	1	0	0.446192979813	401.0	217.0	410.0	217.0	1
3.0.1	2019_Mar_14_1006	s	s	15	4	SIC	348	ABS	0	0	4	1	24_4_1	NA	NA	0	1	0.660858869553	None	None	None	None	1
3.0.1	2019_Mar_14_1006	s	s	15	4	SIC	349	ABS	0	0	3	4	24_3_4	NA	NA	0	1	1.03181099892	None	None	None	None	1
3.0.1	2019_Mar_14_1006	s	s	15	4	SIC	350	4_2	4	2	3	2	23_3_2	1	0	1	0	0.429582834244	356.0	371.0	353.0	377.0	1
3.0.1	2019_Mar_14_1006	s	s	15	4	SIC	351	4_4	4	4	2	1	23_2_1	2	3	1	0	0.450240135193	-187.0	-22.0	-176.0	-22.0	1
3.0.1	2019_Mar_14_1006	s	s	15	4	SIC	352	ABS	0	0	4	2	24_4_2	NA	NA	0	1	1.13306999207	None	None	None	None	1
3.0.1	2019_Mar_14_1006	s	s	15	4	SIC	353	ABS	0	0	3	1	24_3_1	NA	NA	0	1	0.849043130875	None	None	None	None	1
3.0.1	2019_Mar_14_1006	s	s	15	4	SIC	354	2_1	2	1	1	1	23_1_1	-1	0	0	1	0.869575977325	-459.0	162.0	None	None	0
3.0.1	2019_Mar_14_1006	s	s	15	4	SIC	355	3_1	3	1	3	3	23_3_3	0	2	0	1	1.17561388016	-400.0	404.0	None	None	0
3.0.1	2019_Mar_14_1006	s	s	15	4	SIC	356	2_4	2	4	1	3	23_1_3	-1	1	1	0	0.919285058975	-58.0	-161.0	-65.0	-163.0	1
3.0.1	2019_Mar_14_1006	s	s	15	4	SIC	357	4_3	4	3	4	2	23_4_2	0	1	0	1	0.928401947021	-127.0	117.0	None	None	0
3.0.1	2019_Mar_14_1006	s	s	15	4	SIC	358	4_2	4	2	2	1	23_2_1	2	-1	1	0	0.523005008698	-381.0	-286.0	-391.0	-284.0	1
3.0.1	2019_Mar_14_1006	s	s	15	4	SIC	359	ABS	0	0	1	2	24_1_2	NA	NA	0	1	1.1430079937	None	None	None	None	1
3.0.1	2019_Mar_14_1006	s	s	15	4	SIC	360	2_4	2	4	3	3	23_3_3	1	1	1	0	1.55465006828	504.0	-88.0	515.0	-86.0	1
3.0.1	2019_Mar_14_1006	s	s	15	4	SIC	361	ABS	0	0	3	4	24_3_4	NA	NA	0	1	1.03430509567	None	None	None	None	1
3.0.1	2019_Mar_14_1006	s	s	15	4	SIC	362	1_2	1	2	4	2	23_4_2	3	0	1	0	0.415170907974	497.0	-17.0	503.0	-24.0	1
3.0.1	2019_Mar_14_1006	s	s	15	4	SIC	363	ABS	0	0	4	2	24_4_2	NA	NA	0	1	2.75145316124	None	None	None	None	1
3.0.1	2019_Mar_14_1006	s	s	15	4	SIC	364	ABS	0	0	3	2	24_3_2	NA	NA	0	1	2.08143186569	None	None	None	None	1
3.0.1	2019_Mar_14_1006	s	s	15	4	SIC	365	ABS	0	0	3	1	24_3_1	NA	NA	0	1	1.52863001823	None	None	None	None	1
3.0.1	2019_Mar_14_1006	s	s	15	4	SIC	366	3_3	3	3	1	3	23_1_3	2	0	1	0	0.567119121552	-463.0	259.0	-458.0	256.0	1
3.0.1	2019_Mar_14_1006	s	s	15	4	SIC	367	3_1	3	1	4	3	23_4_3	-1	2	1	0	0.451542854309	208.0	-34.0	197.0	-29.0	1
3.0.1	2019_Mar_14_1006	s	s	15	4	SIC	368	ABS	0	0	4	4	24_4_4	NA	NA	0	1	1.08961486816	None	None	None	None	1
3.0.1	2019_Mar_14_1006	s	s	15	4	SIC	369	ABS	0	0	3	2	24_3_2	NA	NA	0	1	2.17507386208	None	None	None	None	1
3.0.1	2019_Mar_14_1006	s	s	15	4	SIC	370	ABS	0	0	1	1	24_1_1	NA	NA	0	1	1.0460729599	None	None	None	None	1
3.0.1	2019_Mar_14_1006	s	s	15	4	SIC	371	1_1	1	1	3	1	23_3_1	2	0	1	0	0.481600046158	358.0	-209.0	354.0	-208.0	1
3.0.1	2019_Mar_14_1006	s	s	15	4	SIC	372	1_4	1	4	1	1	23_1_1	0	3	1	0	0.745172977448	-521.0	322.0	-517.0	324.0	1
3.0.1	2019_Mar_14_1006	s	s	15	4	SIC	373	4_4	4	4	3	2	23_3_2	1	2	1	0	0.410999774933	147.0	-302.0	156.0	-299.0	1
3.0.1	2019_Mar_14_1006	s	s	15	4	SIC	374	1_3	1	3	3	3	23_3_3	2	0	1	0	0.618911027908	533.0	-25.0	531.0	-29.0	1
3.0.1	2019_Mar_14_1006	s	s	15	4	SIC	375	2_1	2	1	1	2	23_1_2	-1	1	1	0	1.92806696892	-253.0	272.0	-262.0	270.0	1
3.0.1	2019_Mar_14_1006	s	s	15	4	SIC	376	1_1	1	1	3	4	23_3_4	2	3	1	0	0.481732845306	99.0	313.0	104.0	310.0	1
3.0.1	2019_Mar_14_1006	s	s	15	4	SIC	377	ABS	0	0	1	3	24_1_3	NA	NA	0	1	2.04573106766	None	None	None	None	1
3.0.1	2019_Mar_14_1006	s	s	15	4	SIC	378	ABS	0	0	2	1	24_2_1	NA	NA	0	1	1.84212994576	None	None	None	None	1
3.0.1	2019_Mar_14_1006	s	s	15	4	SIC	379	2_3	2	3	4	4	23_4_4	2	-1	1	0	0.386123895645	-436.0	-45.0	-430.0	-53.0	1
3.0.1	2019_Mar_14_1006	s	s	15	4	SIC	380	4_4	4	4	3	3	23_3_3	1	1	1	0	0.403867959976	-112.0	-138.0	-109.0	-146.0	1
3.0.1	2019_Mar_14_1006	s	s	15	4	SIC	381	2_3	2	3	1	4	23_1_4	-1	-1	1	0	0.528511047363	-365.0	177.0	-363.0	171.0	1
3.0.1	2019_Mar_14_1006	s	s	15	4	SIC	382	ABS	0	0	2	2	24_2_2	NA	NA	0	1	1.3518269062	None	None	None	None	1
3.0.1	2019_Mar_14_1006	s	s	15	4	SIC	383	2_3	2	3	3	1	23_3_1	1	2	1	0	0.469662904739	203.0	269.0	205.0	265.0	1
3.0.1	2019_Mar_14_1006	s	s	15	4	SIC	384	ABS	0	0	4	1	24_4_1	NA	NA	0	1	1.06190896034	None	None	None	None	1
3.0.1	2019_Mar_14_1006	s	s	15	4	SIC	385	1_3	1	3	2	2	23_2_2	1	1	1	0	2.35159111023	156.0	-9.0	155.0	-8.0	1
3.0.1	2019_Mar_14_1006	s	s	15	4	SIC	386	ABS	0	0	1	1	24_1_1	NA	NA	0	1	1.86934709549	None	None	None	None	1
3.0.1	2019_Mar_14_1006	s	s	15	4	SIC	387	3_2	3	2	3	4	23_3_4	0	2	1	0	0.731353998184	92.0	-295.0	83.0	-288.0	1
3.0.1	2019_Mar_14_1006	s	s	15	4	SIC	388	ABS	0	0	2	2	24_2_2	NA	NA	0	1	1.89291191101	None	None	None	None	1
3.0.1	2019_Mar_14_1006	s	s	15	4	SIC	389	2_4	2	4	1	4	23_1_4	-1	0	0	1	1.31136393547	533.0	-309.0	None	None	0
3.0.1	2019_Mar_14_1006	s	s	15	4	SIC	390	ABS	0	0	4	1	24_4_1	NA	NA	0	1	0.672610998154	None	None	None	None	1
3.0.1	2019_Mar_14_1006	s	s	15	4	SIC	391	ABS	0	0	3	3	24_3_3	NA	NA	0	1	0.940133094788	None	None	None	None	1
3.0.1	2019_Mar_14_1006	s	s	15	4	SIC	392	3_4	3	4	2	2	23_2_2	1	2	1	0	0.48154592514	-534.0	-189.0	-527.0	-180.0	1
3.0.1	2019_Mar_14_1006	s	s	15	4	SIC	393	ABS	0	0	4	1	24_4_1	NA	NA	0	1	1.23932504654	None	None	None	None	1
3.0.1	2019_Mar_14_1006	s	s	15	4	SIC	394	ABS	0	0	2	3	24_2_3	NA	NA	0	1	2.23387789726	None	None	None	None	1
3.0.1	2019_Mar_14_1006	s	s	15	4	SIC	395	2_1	2	1	3	2	23_3_2	1	1	1	0	0.497948884964	-48.0	62.0	-50.0	61.0	1
3.0.1	2019_Mar_14_1006	s	s	15	4	SIC	396	4_3	4	3	1	1	23_1_1	3	2	1	0	0.493296146393	-532.0	380.0	-536.0	376.0	1
3.0.1	2019_Mar_14_1006	s	s	15	4	SIC	397	4_2	4	2	1	3	23_1_3	3	1	1	0	0.399176120758	-330.0	-44.0	-331.0	-39.0	1
3.0.1	2019_Mar_14_1006	s	s	15	4	SIC	398	ABS	0	0	4	2	24_4_2	NA	NA	0	1	2.23801088333	None	None	None	None	1
3.0.1	2019_Mar_14_1006	s	s	15	4	SIC	399	ABS	0	0	1	2	24_1_2	NA	NA	0	1	0.913617134094	None	None	None	None	1
3.0.1	2019_Mar_14_1006	s	s	15	4	SIC	400	1_2	1	2	3	1	23_3_1	2	-1	1	0	0.484497070312	-217.0	72.0	-216.0	74.0	1
3.0.1	2019_Mar_14_1006	s	s	15	4	SIC	401	2_1	2	1	3	4	23_3_4	1	3	1	0	0.51681303978	425.0	411.0	424.0	409.0	1
3.0.1	2019_Mar_14_1006	s	s	15	4	SIC	402	ABS	0	0	1	2	24_1_2	NA	NA	0	1	1.51640510559	None	None	None	None	1
3.0.1	2019_Mar_14_1006	s	s	15	4	SIC	403	3_3	3	3	4	3	23_4_3	-1	0	1	0	0.540376186371	84.0	-207.0	84.0	-206.0	1
3.0.1	2019_Mar_14_1006	s	s	15	4	SIC	404	ABS	0	0	1	3	24_1_3	NA	NA	0	1	1.57537007332	None	None	None	None	1
3.0.1	2019_Mar_14_1006	s	s	15	4	SIC	405	2_4	2	4	3	4	23_3_4	1	0	1	0	1.65033984184	-44.0	-48.0	-38.0	-42.0	1
3.0.1	2019_Mar_14_1006	s	s	15	4	SIC	406	2_2	2	2	2	3	23_2_3	0	1	0	1	1.43413209915	-527.0	338.0	None	None	0
3.0.1	2019_Mar_14_1006	s	s	15	4	SIC	407	ABS	0	0	4	4	24_4_4	NA	NA	0	1	1.09313201904	None	None	None	None	1
3.0.1	2019_Mar_14_1006	s	s	15	4	SIC	408	ABS	0	0	1	3	24_1_3	NA	NA	0	1	1.94283795357	None	None	None	None	1
3.0.1	2019_Mar_14_1006	s	s	15	4	SIC	409	ABS	0	0	2	1	24_2_1	NA	NA	0	1	1.88112711906	None	None	None	None	1
3.0.1	2019_Mar_14_1006	s	s	15	4	SIC	410	1_3	1	3	2	4	23_2_4	1	-1	1	0	0.791170835495	-324.0	366.0	-334.0	370.0	1
3.0.1	2019_Mar_14_1006	s	s	15	4	SIC	411	1_3	1	3	1	1	23_1_1	0	2	1	0	1.52296495438	230.0	-28.0	232.0	-27.0	1
3.0.1	2019_Mar_14_1006	s	s	15	4	SIC	412	ABS	0	0	3	2	24_3_2	NA	NA	0	1	1.87342000008	None	None	None	None	1
3.0.1	2019_Mar_14_1006	s	s	15	4	SIC	413	4_4	4	4	1	4	23_1_4	3	0	1	0	0.496209859848	-414.0	-306.0	-418.0	-307.0	1
3.0.1	2019_Mar_14_1006	s	s	15	4	SIC	414	ABS	0	0	4	4	24_4_4	NA	NA	0	1	1.05782580376	None	None	None	None	1
3.0.1	2019_Mar_14_1006	s	s	15	4	SIC	415	ABS	0	0	1	4	24_1_4	NA	NA	0	1	0.855283975601	None	None	None	None	1
3.0.1	2019_Mar_14_1006	s	s	15	4	SIC	416	1_4	1	4	3	1	23_3_1	2	3	1	0	0.502030134201	-149.0	265.0	-146.0	260.0	1
3.0.1	2019_Mar_14_1006	s	s	15	4	SIC	417	1_1	1	1	2	1	23_2_1	1	0	1	0	0.731446027756	345.0	-32.0	344.0	-33.0	1
3.0.1	2019_Mar_14_1006	s	s	15	4	SIC	418	ABS	0	0	3	4	24_3_4	NA	NA	0	1	0.952018976212	None	None	None	None	1
3.0.1	2019_Mar_14_1006	s	s	15	4	SIC	419	2_2	2	2	2	4	23_2_4	0	2	1	0	0.798998832703	-198.0	325.0	-196.0	319.0	1
3.0.1	2019_Mar_14_1006	s	s	15	4	SIC	420	4_2	4	2	3	3	23_3_3	1	1	1	0	0.543673992157	360.0	-175.0	357.0	-182.0	1
3.0.1	2019_Mar_14_1006	s	s	15	4	SIC	421	ABS	0	0	3	4	24_3_4	NA	NA	0	1	0.881386041641	None	None	None	None	1
3.0.1	2019_Mar_14_1006	s	s	15	4	SIC	422	ABS	0	0	3	1	24_3_1	NA	NA	0	1	1.59887909889	None	None	None	None	1
3.0.1	2019_Mar_14_1006	s	s	15	4	SIC	423	4_3	4	3	3	3	23_3_3	1	0	1	0	0.425662994385	432.0	251.0	431.0	242.0	1
3.0.1	2019_Mar_14_1006	s	s	15	4	SIC	424	1_4	1	4	1	2	23_1_2	0	2	1	0	0.746325969696	-334.0	-195.0	-322.0	-187.0	1
3.0.1	2019_Mar_14_1006	s	s	15	4	SIC	425	3_2	3	2	1	4	23_1_4	2	2	1	0	0.543204069138	-500.0	164.0	-502.0	173.0	1
3.0.1	2019_Mar_14_1006	s	s	15	4	SIC	426	3_1	3	1	4	1	23_4_1	-1	0	1	0	0.443249940872	401.0	-41.0	403.0	-38.0	1
3.0.1	2019_Mar_14_1006	s	s	15	4	SIC	427	1_3	1	3	4	4	23_4_4	3	-1	1	0	0.474591970444	239.0	131.0	243.0	128.0	1
3.0.1	2019_Mar_14_1006	s	s	15	4	SIC	428	ABS	0	0	4	1	24_4_1	NA	NA	0	1	0.790181159973	None	None	None	None	1
3.0.1	2019_Mar_14_1006	s	s	15	4	SIC	429	2_3	2	3	4	2	23_4_2	2	1	1	0	0.404333114624	321.0	-53.0	327.0	-46.0	1
3.0.1	2019_Mar_14_1006	s	s	15	4	SIC	430	ABS	0	0	2	3	24_2_3	NA	NA	0	1	1.90773296356	None	None	None	None	1
3.0.1	2019_Mar_14_1006	s	s	15	4	SIC	431	3_2	3	2	3	3	23_3_3	0	1	0	1	1.1343460083	-463.0	188.0	None	None	0
3.0.1	2019_Mar_14_1006	s	s	15	4	SIC	432	ABS	0	0	3	2	24_3_2	NA	NA	0	1	2.59172296524	None	None	None	None	1
3.0.1	2019_Mar_14_1006	s	s	15	4	SIC	433	ABS	0	0	2	4	24_2_4	NA	NA	0	1	1.46956992149	None	None	None	None	1
3.0.1	2019_Mar_14_1006	s	s	15	4	SIC	434	1_4	1	4	4	1	23_4_1	3	3	1	0	0.48153591156	395.0	-18.0	400.0	-22.0	1
3.0.1	2019_Mar_14_1006	s	s	15	4	SIC	435	ABS	0	0	4	3	24_4_3	NA	NA	0	1	1.77532100677	None	None	None	None	1
3.0.1	2019_Mar_14_1006	s	s	15	4	SIC	436	ABS	0	0	4	4	24_4_4	NA	NA	0	1	1.38738107681	None	None	None	None	1
3.0.1	2019_Mar_14_1006	s	s	15	4	SIC	437	3_2	3	2	2	1	23_2_1	1	-1	1	0	1.58702111244	-359.0	-21.0	-354.0	-12.0	1
3.0.1	2019_Mar_14_1006	s	s	15	4	SIC	438	4_3	4	3	1	2	23_1_2	3	1	1	0	0.438449144363	20.0	-223.0	15.0	-216.0	1
3.0.1	2019_Mar_14_1006	s	s	15	4	SIC	439	ABS	0	0	2	1	24_2_1	NA	NA	0	1	0.736931085587	None	None	None	None	1
3.0.1	2019_Mar_14_1006	s	s	15	4	SIC	440	ABS	0	0	2	4	24_2_4	NA	NA	0	1	1.2812628746	None	None	None	None	1
3.0.1	2019_Mar_14_1006	s	s	15	4	SIC	441	1_3	1	3	4	2	23_4_2	3	1	1	0	0.438318014145	-134.0	-89.0	-127.0	-84.0	1
3.0.1	2019_Mar_14_1006	s	s	15	4	SIC	442	2_4	2	4	4	2	23_4_2	2	2	1	0	0.45800113678	-51.0	15.0	-50.0	4.0	1
3.0.1	2019_Mar_14_1006	s	s	15	4	SIC	443	2_3	2	3	3	2	23_3_2	1	1	1	0	0.65797495842	-276.0	-233.0	-276.0	-227.0	1
3.0.1	2019_Mar_14_1006	s	s	15	4	SIC	444	3_3	3	3	4	2	23_4_2	-1	1	1	0	0.42277598381	240.0	-51.0	232.0	-44.0	1
3.0.1	2019_Mar_14_1006	s	s	15	4	SIC	445	ABS	0	0	3	2	24_3_2	NA	NA	0	1	1.03434085846	None	None	None	None	1
3.0.1	2019_Mar_14_1006	s	s	15	4	SIC	446	ABS	0	0	2	1	24_2_1	NA	NA	0	1	1.12838292122	None	None	None	None	1
3.0.1	2019_Mar_14_1006	s	s	15	4	SIC	447	ABS	0	0	4	3	24_4_3	NA	NA	0	1	0.798947095871	None	None	None	None	1
3.0.1	2019_Mar_14_1006	s	s	15	4	SIC	448	4_2	4	2	1	4	23_1_4	3	2	1	0	0.44931602478	-197.0	-213.0	-207.0	-214.0	1
3.0.1	2019_Mar_14_1006	s	s	15	4	SIC	449	4_1	4	1	3	3	23_3_3	1	2	1	0	0.516794919968	471.0	409.0	462.0	407.0	1
3.0.1	2019_Mar_14_1006	s	s	15	4	SIC	450	2_4	2	4	1	2	23_1_2	-1	2	1	0	0.685716152191	514.0	-185.0	512.0	-189.0	1
3.0.1	2019_Mar_14_1006	s	s	15	4	SIC	451	ABS	0	0	2	1	24_2_1	NA	NA	1	0	0.493705034256	None	None	-41.0	3.0	0
3.0.1	2019_Mar_14_1006	s	s	15	4	SIC	452	2_1	2	1	4	4	23_4_4	2	3	1	0	0.516834020615	356.0	-94.0	344.0	-91.0	1
3.0.1	2019_Mar_14_1006	s	s	15	4	SIC	453	ABS	0	0	4	3	24_4_3	NA	NA	0	1	2.84033799171	None	None	None	None	1
3.0.1	2019_Mar_14_1006	s	s	15	4	SIC	454	ABS	0	0	2	2	24_2_2	NA	NA	0	1	2.86906886101	None	None	None	None	1
3.0.1	2019_Mar_14_1006	s	s	15	4	SIC	455	2_1	2	1	4	2	23_4_2	2	1	1	0	0.442242860794	420.0	228.0	422.0	228.0	1
3.0.1	2019_Mar_14_1006	s	s	15	4	SIC	456	3_4	3	4	3	3	23_3_3	0	1	0	1	0.775595903397	-413.0	-377.0	None	None	0
3.0.1	2019_Mar_14_1006	s	s	15	4	SIC	457	3_2	3	2	1	1	23_1_1	2	-1	1	0	0.56050992012	276.0	-31.0	270.0	-31.0	1
3.0.1	2019_Mar_14_1006	s	s	15	4	SIC	458	2_4	2	4	3	2	23_3_2	1	2	1	0	0.496194124222	-347.0	-184.0	-340.0	-177.0	1
3.0.1	2019_Mar_14_1006	s	s	15	4	SIC	459	ABS	0	0	4	4	24_4_4	NA	NA	0	1	2.08626389503	None	None	None	None	1
3.0.1	2019_Mar_14_1006	s	s	15	4	SIC	460	ABS	0	0	1	4	24_1_4	NA	NA	0	1	1.78027415276	None	None	None	None	1
3.0.1	2019_Mar_14_1006	s	s	15	4	SIC	461	3_1	3	1	2	4	23_2_4	1	3	1	0	0.678907871246	354.0	-321.0	351.0	-319.0	1
3.0.1	2019_Mar_14_1006	s	s	15	4	SIC	462	2_2	2	2	3	4	23_3_4	1	2	1	0	0.575710058212	-294.0	207.0	-289.0	211.0	1
3.0.1	2019_Mar_14_1006	s	s	15	4	SIC	463	4_1	4	1	3	2	23_3_2	1	1	1	0	0.496228933334	375.0	2.0	377.0	-3.0	1
3.0.1	2019_Mar_14_1006	s	s	15	4	SIC	464	ABS	0	0	3	4	24_3_4	NA	NA	0	1	1.04608917236	None	None	None	None	1
3.0.1	2019_Mar_14_1006	s	s	15	4	SIC	465	4_2	4	2	3	4	23_3_4	1	2	1	0	0.458033084869	84.0	186.0	87.0	188.0	1
3.0.1	2019_Mar_14_1006	s	s	15	4	SIC	466	ABS	0	0	3	4	24_3_4	NA	NA	0	1	1.04605412483	None	None	None	None	1
3.0.1	2019_Mar_14_1006	s	s	15	4	SIC	467	ABS	0	0	2	1	24_2_1	NA	NA	0	1	1.34010887146	None	None	None	None	1
3.0.1	2019_Mar_14_1006	s	s	15	4	SIC	468	ABS	0	0	1	4	24_1_4	NA	NA	0	1	0.98729300499	None	None	None	None	1
3.0.1	2019_Mar_14_1006	s	s	15	4	SIC	469	1_2	1	2	3	4	23_3_4	2	2	1	0	0.469735860825	-105.0	-64.0	-101.0	-57.0	1
3.0.1	2019_Mar_14_1006	s	s	15	4	SIC	470	ABS	0	0	3	3	24_3_3	NA	NA	0	1	1.30493688583	None	None	None	None	1
3.0.1	2019_Mar_14_1006	s	s	15	4	SIC	471	2_2	2	2	3	1	23_3_1	1	-1	1	0	0.899760007858	258.0	278.0	249.0	277.0	1
3.0.1	2019_Mar_14_1006	s	s	15	4	SIC	472	ABS	0	0	2	1	24_2_1	NA	NA	0	1	0.893243789673	None	None	None	None	1
3.0.1	2019_Mar_14_1006	s	s	15	4	SIC	473	3_1	3	1	2	3	23_2_3	1	2	1	0	0.59929895401	-352.0	-214.0	-355.0	-226.0	1
3.0.1	2019_Mar_14_1006	s	s	15	4	SIC	474	1_2	1	2	4	4	23_4_4	3	2	1	0	0.427990913391	-507.0	154.0	-505.0	154.0	1
3.0.1	2019_Mar_14_1006	s	s	15	4	SIC	475	2_3	2	3	4	3	23_4_3	2	0	1	0	0.463032960892	401.0	-387.0	405.0	-385.0	1
3.0.1	2019_Mar_14_1006	s	s	15	4	SIC	476	ABS	0	0	1	1	24_1_1	NA	NA	0	1	1.32108402252	None	None	None	None	1
3.0.1	2019_Mar_14_1006	s	s	15	4	SIC	477	4_2	4	2	3	1	23_3_1	1	-1	1	0	0.44988322258	-21.0	352.0	-14.0	355.0	1
3.0.1	2019_Mar_14_1006	s	s	15	4	SIC	478	ABS	0	0	4	3	24_4_3	NA	NA	0	1	1.46091389656	None	None	None	None	1
3.0.1	2019_Mar_14_1006	s	s	15	4	SIC	479	ABS	0	0	2	4	24_2_4	NA	NA	0	1	1.34532308578	None	None	None	None	1
3.0.1	2019_Mar_14_1006	s	s	15	4	SIC	480	ABS	0	0	2	3	24_2_3	NA	NA	0	1	1.30967497826	None	None	None	None	1
