Version	Date	Stimuli	Method	Subject	Session	Condition	Trial	Target	TColor	TShape	DColor	DShape	Distractors	Channel1	Channel2	LMouseButton	RMouseButton	RT	TargetX	TargetY	ResponseX	ResponseY	Correct
3.0.1	2019_Mar_13_0906	s	s	15	3	Capacity	1	ABS	0	0	4	1	24_4_1	NA	NA	0	1	0.869646072388	None	None	None	None	1
3.0.1	2019_Mar_13_0906	s	s	15	3	Capacity	2	ABS	0	0	3	1	24_3_1	NA	NA	0	1	0.863430023193	None	None	None	None	1
3.0.1	2019_Mar_13_0906	s	s	15	3	Capacity	3	ABS	0	0	1	1	24_1_1	NA	NA	0	1	0.752014160156	None	None	None	None	1
3.0.1	2019_Mar_13_0906	s	s	15	3	Capacity	4	ABS	0	0	3	1	24_3_1	NA	NA	0	1	0.710134983063	None	None	None	None	1
3.0.1	2019_Mar_13_0906	s	s	15	3	Capacity	5	ABS	0	0	1	1	24_1_1	NA	NA	0	1	0.916724205017	None	None	None	None	1
3.0.1	2019_Mar_13_0906	s	s	15	3	Capacity	6	2_1	2	1	3	1	23_3_1	1	0	1	0	0.638783931732	-237.0	212.0	-234.0	217.0	1
3.0.1	2019_Mar_13_0906	s	s	15	3	Capacity	7	2_1	2	1	1	1	23_1_1	-1	0	1	0	1.00313687325	-160.0	-152.0	-157.0	-150.0	1
3.0.1	2019_Mar_13_0906	s	s	15	3	Capacity	8	4_1	4	1	1	1	23_1_1	3	0	1	0	0.516810894012	379.0	302.0	385.0	294.0	1
3.0.1	2019_Mar_13_0906	s	s	15	3	Capacity	9	ABS	0	0	1	1	24_1_1	NA	NA	0	1	0.757119894028	None	None	None	None	1
3.0.1	2019_Mar_13_0906	s	s	15	3	Capacity	10	ABS	0	0	3	1	24_3_1	NA	NA	0	1	0.677333116531	None	None	None	None	1
3.0.1	2019_Mar_13_0906	s	s	15	3	Capacity	11	3_1	3	1	4	1	23_4_1	-1	0	1	0	0.763736963272	-482.0	129.0	-486.0	128.0	1
3.0.1	2019_Mar_13_0906	s	s	15	3	Capacity	12	3_1	3	1	1	1	23_1_1	2	0	1	0	0.562335014343	377.0	261.0	379.0	258.0	1
3.0.1	2019_Mar_13_0906	s	s	15	3	Capacity	13	2_1	2	1	4	1	23_4_1	2	0	1	0	0.575618028641	-326.0	-43.0	-324.0	-47.0	1
3.0.1	2019_Mar_13_0906	s	s	15	3	Capacity	14	ABS	0	0	4	1	24_4_1	NA	NA	0	1	0.822532892227	None	None	None	None	1
3.0.1	2019_Mar_13_0906	s	s	15	3	Capacity	15	4_1	4	1	3	1	23_3_1	1	0	1	0	0.464092969894	49.0	174.0	55.0	178.0	1
3.0.1	2019_Mar_13_0906	s	s	15	3	Capacity	16	ABS	0	0	4	1	24_4_1	NA	NA	0	1	0.646137952805	None	None	None	None	1
3.0.1	2019_Mar_13_0906	s	s	15	3	Capacity	17	3_1	3	1	2	1	23_2_1	1	0	1	0	0.579429864883	-103.0	24.0	-108.0	19.0	1
3.0.1	2019_Mar_13_0906	s	s	15	3	Capacity	18	1_1	1	1	2	1	23_2_1	1	0	1	0	0.672621965408	-61.0	58.0	-68.0	52.0	1
3.0.1	2019_Mar_13_0906	s	s	15	3	Capacity	19	1_1	1	1	4	1	23_4_1	3	0	1	0	0.410902023315	459.0	39.0	450.0	41.0	1
3.0.1	2019_Mar_13_0906	s	s	15	3	Capacity	20	ABS	0	0	2	1	24_2_1	NA	NA	0	1	1.32651686668	None	None	None	None	1
3.0.1	2019_Mar_13_0906	s	s	15	3	Capacity	21	4_1	4	1	2	1	23_2_1	2	0	1	0	0.446238994598	-88.0	-192.0	-87.0	-192.0	1
3.0.1	2019_Mar_13_0906	s	s	15	3	Capacity	22	1_1	1	1	3	1	23_3_1	2	0	1	0	0.580480098724	-294.0	-335.0	-292.0	-335.0	1
3.0.1	2019_Mar_13_0906	s	s	15	3	Capacity	23	ABS	0	0	2	1	24_2_1	NA	NA	0	1	0.7520570755	None	None	None	None	1
3.0.1	2019_Mar_13_0906	s	s	15	3	Capacity	24	ABS	0	0	2	1	24_2_1	NA	NA	0	1	0.716706991196	None	None	None	None	1
3.0.1	2019_Mar_13_0906	s	s	15	3	Capacity	25	ABS	0	0	3	1	24_3_1	NA	NA	0	1	0.89320397377	None	None	None	None	1
3.0.1	2019_Mar_13_0906	s	s	15	3	Capacity	26	ABS	0	0	3	1	24_3_1	NA	NA	0	1	0.740303039551	None	None	None	None	1
3.0.1	2019_Mar_13_0906	s	s	15	3	Capacity	27	ABS	0	0	4	1	24_4_1	NA	NA	0	1	0.763939142227	None	None	None	None	1
3.0.1	2019_Mar_13_0906	s	s	15	3	Capacity	28	1_1	1	1	4	1	23_4_1	3	0	1	0	0.528558015823	-448.0	-288.0	-439.0	-282.0	1
3.0.1	2019_Mar_13_0906	s	s	15	3	Capacity	29	ABS	0	0	2	1	24_2_1	NA	NA	0	1	0.849041938782	None	None	None	None	1
3.0.1	2019_Mar_13_0906	s	s	15	3	Capacity	30	ABS	0	0	1	1	24_1_1	NA	NA	0	1	0.790269136429	None	None	None	None	1
3.0.1	2019_Mar_13_0906	s	s	15	3	Capacity	31	4_1	4	1	1	1	23_1_1	3	0	1	0	0.505059957504	-412.0	-320.0	-403.0	-313.0	1
3.0.1	2019_Mar_13_0906	s	s	15	3	Capacity	32	ABS	0	0	3	1	24_3_1	NA	NA	0	1	0.752421140671	None	None	None	None	1
3.0.1	2019_Mar_13_0906	s	s	15	3	Capacity	33	ABS	0	0	2	1	24_2_1	NA	NA	0	1	0.904009819031	None	None	None	None	1
3.0.1	2019_Mar_13_0906	s	s	15	3	Capacity	34	3_1	3	1	2	1	23_2_1	1	0	1	0	0.573070049286	287.0	222.0	286.0	218.0	1
3.0.1	2019_Mar_13_0906	s	s	15	3	Capacity	35	ABS	0	0	2	1	24_2_1	NA	NA	0	1	0.6166639328	None	None	None	None	1
3.0.1	2019_Mar_13_0906	s	s	15	3	Capacity	36	ABS	0	0	1	1	24_1_1	NA	NA	0	1	0.752039909363	None	None	None	None	1
3.0.1	2019_Mar_13_0906	s	s	15	3	Capacity	37	3_1	3	1	1	1	23_1_1	2	0	1	0	0.481568098068	-62.0	257.0	-68.0	260.0	1
3.0.1	2019_Mar_13_0906	s	s	15	3	Capacity	38	2_1	2	1	1	1	23_1_1	-1	0	0	1	0.62723493576	-181.0	78.0	None	None	0
3.0.1	2019_Mar_13_0906	s	s	15	3	Capacity	39	ABS	0	0	4	1	24_4_1	NA	NA	0	1	0.62664103508	None	None	None	None	1
3.0.1	2019_Mar_13_0906	s	s	15	3	Capacity	40	ABS	0	0	1	1	24_1_1	NA	NA	0	1	0.679850816727	None	None	None	None	1
3.0.1	2019_Mar_13_0906	s	s	15	3	Capacity	41	2_1	2	1	3	1	23_3_1	1	0	1	0	0.810834884644	-337.0	123.0	-341.0	130.0	1
3.0.1	2019_Mar_13_0906	s	s	15	3	Capacity	42	4_1	4	1	2	1	23_2_1	2	0	1	0	0.50053191185	-430.0	383.0	-426.0	383.0	1
3.0.1	2019_Mar_13_0906	s	s	15	3	Capacity	43	2_1	2	1	4	1	23_4_1	2	0	1	0	0.469857931137	287.0	-71.0	293.0	-65.0	1
3.0.1	2019_Mar_13_0906	s	s	15	3	Capacity	44	4_1	4	1	3	1	23_3_1	1	0	1	0	0.45796585083	-9.0	367.0	-12.0	366.0	1
3.0.1	2019_Mar_13_0906	s	s	15	3	Capacity	45	1_1	1	1	2	1	23_2_1	1	0	0	1	0.870021104813	-475.0	-288.0	None	None	0
3.0.1	2019_Mar_13_0906	s	s	15	3	Capacity	46	ABS	0	0	4	1	24_4_1	NA	NA	0	1	0.619849920273	None	None	None	None	1
3.0.1	2019_Mar_13_0906	s	s	15	3	Capacity	47	3_1	3	1	4	1	23_4_1	-1	0	1	0	0.540636777878	505.0	-175.0	508.0	-181.0	1
3.0.1	2019_Mar_13_0906	s	s	15	3	Capacity	48	1_1	1	1	3	1	23_3_1	2	0	1	0	0.458016872406	91.0	87.0	78.0	92.0	1
3.0.1	2019_Mar_13_0906	s	s	15	3	Capacity	49	ABS	0	0	4	1	24_4_1	NA	NA	0	1	0.555013895035	None	None	None	None	1
3.0.1	2019_Mar_13_0906	s	s	15	3	Capacity	50	ABS	0	0	1	1	24_1_1	NA	NA	0	1	0.652687072754	None	None	None	None	1
3.0.1	2019_Mar_13_0906	s	s	15	3	Capacity	51	3_1	3	1	4	1	23_4_1	-1	0	1	0	0.473867177963	303.0	383.0	299.0	377.0	1
3.0.1	2019_Mar_13_0906	s	s	15	3	Capacity	52	ABS	0	0	2	1	24_2_1	NA	NA	0	1	0.83722114563	None	None	None	None	1
3.0.1	2019_Mar_13_0906	s	s	15	3	Capacity	53	ABS	0	0	2	1	24_2_1	NA	NA	0	1	0.775620937347	None	None	None	None	1
3.0.1	2019_Mar_13_0906	s	s	15	3	Capacity	54	ABS	0	0	4	1	24_4_1	NA	NA	0	1	0.528532981873	None	None	None	None	1
3.0.1	2019_Mar_13_0906	s	s	15	3	Capacity	55	3_1	3	1	2	1	23_2_1	1	0	1	0	0.498878955841	317.0	134.0	322.0	137.0	1
3.0.1	2019_Mar_13_0906	s	s	15	3	Capacity	56	2_1	2	1	4	1	23_4_1	2	0	1	0	0.463177919388	-492.0	-235.0	-483.0	-238.0	1
3.0.1	2019_Mar_13_0906	s	s	15	3	Capacity	57	ABS	0	0	1	1	24_1_1	NA	NA	0	1	0.763774871826	None	None	None	None	1
3.0.1	2019_Mar_13_0906	s	s	15	3	Capacity	58	1_1	1	1	3	1	23_3_1	2	0	1	0	0.49661397934	-300.0	87.0	-304.0	85.0	1
3.0.1	2019_Mar_13_0906	s	s	15	3	Capacity	59	2_1	2	1	3	1	23_3_1	1	0	1	0	0.822587966919	513.0	-21.0	512.0	-13.0	1
3.0.1	2019_Mar_13_0906	s	s	15	3	Capacity	60	ABS	0	0	2	1	24_2_1	NA	NA	0	1	0.650367021561	None	None	None	None	1
3.0.1	2019_Mar_13_0906	s	s	15	3	Capacity	61	ABS	0	0	1	1	24_1_1	NA	NA	0	1	0.622669935226	None	None	None	None	1
3.0.1	2019_Mar_13_0906	s	s	15	3	Capacity	62	1_1	1	1	4	1	23_4_1	3	0	1	0	0.486718893051	-475.0	-299.0	-469.0	-301.0	1
3.0.1	2019_Mar_13_0906	s	s	15	3	Capacity	63	ABS	0	0	4	1	24_4_1	NA	NA	0	1	0.528591156006	None	None	None	None	1
3.0.1	2019_Mar_13_0906	s	s	15	3	Capacity	64	4_1	4	1	1	1	23_1_1	3	0	1	0	0.486685991287	-142.0	-195.0	-146.0	-201.0	1
3.0.1	2019_Mar_13_0906	s	s	15	3	Capacity	65	ABS	0	0	3	1	24_3_1	NA	NA	0	1	0.555968046188	None	None	None	None	1
3.0.1	2019_Mar_13_0906	s	s	15	3	Capacity	66	ABS	0	0	3	1	24_3_1	NA	NA	0	1	0.738339185715	None	None	None	None	1
3.0.1	2019_Mar_13_0906	s	s	15	3	Capacity	67	ABS	0	0	3	1	24_3_1	NA	NA	0	1	0.587446928024	None	None	None	None	1
3.0.1	2019_Mar_13_0906	s	s	15	3	Capacity	68	4_1	4	1	3	1	23_3_1	1	0	1	0	0.55503487587	79.0	102.0	84.0	102.0	1
3.0.1	2019_Mar_13_0906	s	s	15	3	Capacity	69	3_1	3	1	1	1	23_1_1	2	0	1	0	0.716832876205	273.0	-379.0	276.0	-373.0	1
3.0.1	2019_Mar_13_0906	s	s	15	3	Capacity	70	1_1	1	1	2	1	23_2_1	1	0	0	1	0.790227890015	288.0	284.0	None	None	0
3.0.1	2019_Mar_13_0906	s	s	15	3	Capacity	71	2_1	2	1	1	1	23_1_1	-1	0	1	0	1.67232203484	-452.0	-360.0	-447.0	-356.0	1
3.0.1	2019_Mar_13_0906	s	s	15	3	Capacity	72	4_1	4	1	2	1	23_2_1	2	0	1	0	0.554930925369	-69.0	-406.0	-80.0	-403.0	1
3.0.1	2019_Mar_13_0906	s	s	15	3	Capacity	73	2_1	2	1	3	1	23_3_1	1	0	1	0	0.940230846405	-79.0	-285.0	-75.0	-293.0	1
3.0.1	2019_Mar_13_0906	s	s	15	3	Capacity	74	3_1	3	1	1	1	23_1_1	2	0	1	0	0.496262073517	-53.0	179.0	-54.0	168.0	1
3.0.1	2019_Mar_13_0906	s	s	15	3	Capacity	75	2_1	2	1	1	1	23_1_1	-1	0	1	0	1.59077692032	71.0	177.0	80.0	175.0	1
3.0.1	2019_Mar_13_0906	s	s	15	3	Capacity	76	ABS	0	0	1	1	24_1_1	NA	NA	0	1	1.29680609703	None	None	None	None	1
3.0.1	2019_Mar_13_0906	s	s	15	3	Capacity	77	ABS	0	0	2	1	24_2_1	NA	NA	0	1	1.12876987457	None	None	None	None	1
3.0.1	2019_Mar_13_0906	s	s	15	3	Capacity	78	ABS	0	0	1	1	24_1_1	NA	NA	0	1	0.721882820129	None	None	None	None	1
3.0.1	2019_Mar_13_0906	s	s	15	3	Capacity	79	4_1	4	1	1	1	23_1_1	3	0	1	0	0.55507183075	-66.0	298.0	-68.0	294.0	1
3.0.1	2019_Mar_13_0906	s	s	15	3	Capacity	80	1_1	1	1	3	1	23_3_1	2	0	1	0	0.528506040573	253.0	-267.0	262.0	-259.0	1
3.0.1	2019_Mar_13_0906	s	s	15	3	Capacity	81	1_1	1	1	4	1	23_4_1	3	0	1	0	0.505125999451	-268.0	264.0	-264.0	264.0	1
3.0.1	2019_Mar_13_0906	s	s	15	3	Capacity	82	4_1	4	1	3	1	23_3_1	1	0	1	0	0.437382936478	-449.0	316.0	-450.0	316.0	1
3.0.1	2019_Mar_13_0906	s	s	15	3	Capacity	83	ABS	0	0	2	1	24_2_1	NA	NA	0	1	0.663253068924	None	None	None	None	1
3.0.1	2019_Mar_13_0906	s	s	15	3	Capacity	84	ABS	0	0	2	1	24_2_1	NA	NA	0	1	0.899864912033	None	None	None	None	1
3.0.1	2019_Mar_13_0906	s	s	15	3	Capacity	85	ABS	0	0	4	1	24_4_1	NA	NA	0	1	0.599219083786	None	None	None	None	1
3.0.1	2019_Mar_13_0906	s	s	15	3	Capacity	86	3_1	3	1	4	1	23_4_1	-1	0	1	0	0.511059999466	98.0	67.0	111.0	72.0	1
3.0.1	2019_Mar_13_0906	s	s	15	3	Capacity	87	ABS	0	0	4	1	24_4_1	NA	NA	0	1	0.545025110245	None	None	None	None	1
3.0.1	2019_Mar_13_0906	s	s	15	3	Capacity	88	ABS	0	0	4	1	24_4_1	NA	NA	0	1	0.602027893066	None	None	None	None	1
3.0.1	2019_Mar_13_0906	s	s	15	3	Capacity	89	ABS	0	0	3	1	24_3_1	NA	NA	0	1	0.593550920486	None	None	None	None	1
3.0.1	2019_Mar_13_0906	s	s	15	3	Capacity	90	1_1	1	1	2	1	23_2_1	1	0	0	1	0.855618000031	-416.0	-92.0	None	None	0
3.0.1	2019_Mar_13_0906	s	s	15	3	Capacity	91	ABS	0	0	3	1	24_3_1	NA	NA	0	1	0.663766860962	None	None	None	None	1
3.0.1	2019_Mar_13_0906	s	s	15	3	Capacity	92	3_1	3	1	2	1	23_2_1	1	0	1	0	0.638689994812	-481.0	1.0	-477.0	-2.0	1
3.0.1	2019_Mar_13_0906	s	s	15	3	Capacity	93	2_1	2	1	4	1	23_4_1	2	0	1	0	0.457957029343	480.0	233.0	489.0	229.0	1
3.0.1	2019_Mar_13_0906	s	s	15	3	Capacity	94	4_1	4	1	2	1	23_2_1	2	0	1	0	0.43447804451	273.0	56.0	274.0	59.0	1
3.0.1	2019_Mar_13_0906	s	s	15	3	Capacity	95	ABS	0	0	1	1	24_1_1	NA	NA	0	1	0.752475976944	None	None	None	None	1
3.0.1	2019_Mar_13_0906	s	s	15	3	Capacity	96	ABS	0	0	3	1	24_3_1	NA	NA	0	1	0.981954097748	None	None	None	None	1
3.0.1	2019_Mar_13_0906	s	s	15	3	Capacity	1	1_3	1	3	1	1	23_1_1	0	2	1	0	1.17002081871	298.0	78.0	297.0	70.0	1
3.0.1	2019_Mar_13_0906	s	s	15	3	Capacity	2	ABS	0	0	1	3	24_1_3	NA	NA	0	1	4.09755086899	None	None	None	None	1
3.0.1	2019_Mar_13_0906	s	s	15	3	Capacity	3	ABS	0	0	1	1	24_1_1	NA	NA	0	1	2.56327915192	None	None	None	None	1
3.0.1	2019_Mar_13_0906	s	s	15	3	Capacity	4	ABS	0	0	1	2	24_1_2	NA	NA	0	1	2.67826294899	None	None	None	None	1
3.0.1	2019_Mar_13_0906	s	s	15	3	Capacity	5	ABS	0	0	1	1	24_1_1	NA	NA	0	1	2.586810112	None	None	None	None	1
3.0.1	2019_Mar_13_0906	s	s	15	3	Capacity	6	1_4	1	4	1	3	23_1_3	0	1	1	0	0.678241968155	-284.0	312.0	-283.0	308.0	1
3.0.1	2019_Mar_13_0906	s	s	15	3	Capacity	7	ABS	0	0	1	4	24_1_4	NA	NA	0	1	1.75184297562	None	None	None	None	1
3.0.1	2019_Mar_13_0906	s	s	15	3	Capacity	8	ABS	0	0	1	4	24_1_4	NA	NA	0	1	1.260627985	None	None	None	None	1
3.0.1	2019_Mar_13_0906	s	s	15	3	Capacity	9	1_4	1	4	1	2	23_1_2	0	2	1	0	0.975471973419	-420.0	89.0	-412.0	87.0	1
3.0.1	2019_Mar_13_0906	s	s	15	3	Capacity	10	1_3	1	3	1	4	23_1_4	0	-1	1	0	0.899582147598	-270.0	-273.0	-269.0	-265.0	1
3.0.1	2019_Mar_13_0906	s	s	15	3	Capacity	11	1_2	1	2	1	1	23_1_1	0	-1	0	1	2.45746707916	168.0	-69.0	None	None	0
3.0.1	2019_Mar_13_0906	s	s	15	3	Capacity	12	ABS	0	0	1	4	24_1_4	NA	NA	0	1	1.38442015648	None	None	None	None	1
3.0.1	2019_Mar_13_0906	s	s	15	3	Capacity	13	1_1	1	1	1	3	23_1_3	0	2	1	0	2.42217087746	333.0	-3.0	334.0	1.0	1
3.0.1	2019_Mar_13_0906	s	s	15	3	Capacity	14	ABS	0	0	1	3	24_1_3	NA	NA	0	1	2.97483587265	None	None	None	None	1
3.0.1	2019_Mar_13_0906	s	s	15	3	Capacity	15	1_3	1	3	1	2	23_1_2	0	1	0	1	2.03405308723	-42.0	194.0	None	None	0
3.0.1	2019_Mar_13_0906	s	s	15	3	Capacity	16	1_1	1	1	1	4	23_1_4	0	3	1	0	1.34545207024	516.0	198.0	520.0	197.0	1
3.0.1	2019_Mar_13_0906	s	s	15	3	Capacity	17	ABS	0	0	1	2	24_1_2	NA	NA	0	1	1.46251296997	None	None	None	None	1
3.0.1	2019_Mar_13_0906	s	s	15	3	Capacity	18	1_4	1	4	1	1	23_1_1	0	3	1	0	1.25777888298	-458.0	108.0	-460.0	101.0	1
3.0.1	2019_Mar_13_0906	s	s	15	3	Capacity	19	ABS	0	0	1	1	24_1_1	NA	NA	0	1	2.06939411163	None	None	None	None	1
3.0.1	2019_Mar_13_0906	s	s	15	3	Capacity	20	1_2	1	2	1	4	23_1_4	0	2	1	0	0.752176046371	-356.0	241.0	-361.0	247.0	1
3.0.1	2019_Mar_13_0906	s	s	15	3	Capacity	21	1_1	1	1	1	2	23_1_2	0	1	0	1	2.41550183296	144.0	-232.0	None	None	0
3.0.1	2019_Mar_13_0906	s	s	15	3	Capacity	22	ABS	0	0	1	3	24_1_3	NA	NA	0	1	2.63369297981	None	None	None	None	1
3.0.1	2019_Mar_13_0906	s	s	15	3	Capacity	23	ABS	0	0	1	2	24_1_2	NA	NA	0	1	2.08418393135	None	None	None	None	1
3.0.1	2019_Mar_13_0906	s	s	15	3	Capacity	24	1_2	1	2	1	3	23_1_3	0	1	0	1	1.80328583717	-480.0	18.0	None	None	0
3.0.1	2019_Mar_13_0906	s	s	15	3	Capacity	25	ABS	0	0	1	1	24_1_1	NA	NA	0	1	1.23429012299	None	None	None	None	1
3.0.1	2019_Mar_13_0906	s	s	15	3	Capacity	26	ABS	0	0	1	4	24_1_4	NA	NA	0	1	1.84031701088	None	None	None	None	1
3.0.1	2019_Mar_13_0906	s	s	15	3	Capacity	27	1_2	1	2	1	1	23_1_1	0	-1	1	0	1.73112487793	13.0	149.0	10.0	146.0	1
3.0.1	2019_Mar_13_0906	s	s	15	3	Capacity	28	1_3	1	3	1	2	23_1_2	0	1	0	1	3.69236898422	10.0	-5.0	None	None	0
3.0.1	2019_Mar_13_0906	s	s	15	3	Capacity	29	1_1	1	1	1	2	23_1_2	0	1	0	1	2.49559903145	-148.0	-27.0	None	None	0
3.0.1	2019_Mar_13_0906	s	s	15	3	Capacity	30	1_2	1	2	1	4	23_1_4	0	2	1	0	1.52822995186	-352.0	-390.0	-360.0	-386.0	1
3.0.1	2019_Mar_13_0906	s	s	15	3	Capacity	31	ABS	0	0	1	2	24_1_2	NA	NA	0	1	1.89290213585	None	None	None	None	1
3.0.1	2019_Mar_13_0906	s	s	15	3	Capacity	32	1_2	1	2	1	3	23_1_3	0	1	0	1	1.73204708099	11.0	305.0	None	None	0
3.0.1	2019_Mar_13_0906	s	s	15	3	Capacity	33	1_1	1	1	1	3	23_1_3	0	2	1	0	0.952102184296	-57.0	-151.0	-50.0	-154.0	1
3.0.1	2019_Mar_13_0906	s	s	15	3	Capacity	34	ABS	0	0	1	3	24_1_3	NA	NA	0	1	2.22205686569	None	None	None	None	1
3.0.1	2019_Mar_13_0906	s	s	15	3	Capacity	35	ABS	0	0	1	2	24_1_2	NA	NA	0	1	4.20982813835	None	None	None	None	1
3.0.1	2019_Mar_13_0906	s	s	15	3	Capacity	36	ABS	0	0	1	4	24_1_4	NA	NA	0	1	1.54499793053	None	None	None	None	1
3.0.1	2019_Mar_13_0906	s	s	15	3	Capacity	37	ABS	0	0	1	3	24_1_3	NA	NA	0	1	2.28101491928	None	None	None	None	1
3.0.1	2019_Mar_13_0906	s	s	15	3	Capacity	38	1_4	1	4	1	2	23_1_2	0	2	1	0	0.822609186172	-466.0	68.0	-460.0	66.0	1
3.0.1	2019_Mar_13_0906	s	s	15	3	Capacity	39	ABS	0	0	1	3	24_1_3	NA	NA	0	1	1.4732568264	None	None	None	None	1
3.0.1	2019_Mar_13_0906	s	s	15	3	Capacity	40	ABS	0	0	1	1	24_1_1	NA	NA	0	1	2.89710211754	None	None	None	None	1
3.0.1	2019_Mar_13_0906	s	s	15	3	Capacity	41	ABS	0	0	1	4	24_1_4	NA	NA	0	1	1.68411278725	None	None	None	None	1
3.0.1	2019_Mar_13_0906	s	s	15	3	Capacity	42	1_4	1	4	1	1	23_1_1	0	3	1	0	0.810814857483	-206.0	-307.0	-209.0	-312.0	1
3.0.1	2019_Mar_13_0906	s	s	15	3	Capacity	43	ABS	0	0	1	1	24_1_1	NA	NA	0	1	1.28127908707	None	None	None	None	1
3.0.1	2019_Mar_13_0906	s	s	15	3	Capacity	44	1_1	1	1	1	4	23_1_4	0	3	1	0	0.640538930893	4.0	-25.0	-1.0	-17.0	1
3.0.1	2019_Mar_13_0906	s	s	15	3	Capacity	45	1_3	1	3	1	4	23_1_4	0	-1	1	0	1.50510501862	-32.0	347.0	-33.0	342.0	1
3.0.1	2019_Mar_13_0906	s	s	15	3	Capacity	46	ABS	0	0	1	2	24_1_2	NA	NA	0	1	2.9162299633	None	None	None	None	1
3.0.1	2019_Mar_13_0906	s	s	15	3	Capacity	47	1_3	1	3	1	1	23_1_1	0	2	1	0	1.8550620079	502.0	-35.0	504.0	-30.0	1
3.0.1	2019_Mar_13_0906	s	s	15	3	Capacity	48	1_4	1	4	1	3	23_1_3	0	1	1	0	0.646135091782	-504.0	-84.0	-510.0	-86.0	1
3.0.1	2019_Mar_13_0906	s	s	15	3	Capacity	49	1_2	1	2	1	4	23_1_4	0	2	1	0	1.12845301628	345.0	-108.0	342.0	-106.0	1
3.0.1	2019_Mar_13_0906	s	s	15	3	Capacity	50	1_1	1	1	1	3	23_1_3	0	2	0	1	2.17512106895	183.0	273.0	None	None	0
3.0.1	2019_Mar_13_0906	s	s	15	3	Capacity	51	ABS	0	0	1	2	24_1_2	NA	NA	0	1	3.26009917259	None	None	None	None	1
3.0.1	2019_Mar_13_0906	s	s	15	3	Capacity	52	1_3	1	3	1	4	23_1_4	0	-1	1	0	0.737843036652	269.0	-120.0	275.0	-116.0	1
3.0.1	2019_Mar_13_0906	s	s	15	3	Capacity	53	1_2	1	2	1	1	23_1_1	0	-1	0	1	1.95810699463	-167.0	78.0	None	None	0
3.0.1	2019_Mar_13_0906	s	s	15	3	Capacity	54	ABS	0	0	1	4	24_1_4	NA	NA	0	1	1.42729687691	None	None	None	None	1
3.0.1	2019_Mar_13_0906	s	s	15	3	Capacity	55	ABS	0	0	1	4	24_1_4	NA	NA	0	1	1.20730805397	None	None	None	None	1
3.0.1	2019_Mar_13_0906	s	s	15	3	Capacity	56	ABS	0	0	1	4	24_1_4	NA	NA	0	1	1.12841892242	None	None	None	None	1
3.0.1	2019_Mar_13_0906	s	s	15	3	Capacity	57	1_3	1	3	1	2	23_1_2	0	1	0	1	2.1516289711	-69.0	73.0	None	None	0
3.0.1	2019_Mar_13_0906	s	s	15	3	Capacity	58	ABS	0	0	1	3	24_1_3	NA	NA	0	1	1.71652698517	None	None	None	None	1
3.0.1	2019_Mar_13_0906	s	s	15	3	Capacity	59	ABS	0	0	1	3	24_1_3	NA	NA	0	1	1.67229509354	None	None	None	None	1
3.0.1	2019_Mar_13_0906	s	s	15	3	Capacity	60	1_4	1	4	1	2	23_1_2	0	2	1	0	0.650101900101	28.0	311.0	32.0	313.0	1
3.0.1	2019_Mar_13_0906	s	s	15	3	Capacity	61	1_3	1	3	1	1	23_1_1	0	2	1	0	1.37536501884	41.0	70.0	35.0	69.0	1
3.0.1	2019_Mar_13_0906	s	s	15	3	Capacity	62	1_1	1	1	1	4	23_1_4	0	3	1	0	0.815664052963	398.0	164.0	389.0	166.0	1
3.0.1	2019_Mar_13_0906	s	s	15	3	Capacity	63	1_4	1	4	1	1	23_1_1	0	3	1	0	0.622812986374	307.0	-27.0	318.0	-24.0	1
3.0.1	2019_Mar_13_0906	s	s	15	3	Capacity	64	ABS	0	0	1	1	24_1_1	NA	NA	0	1	1.01589894295	None	None	None	None	1
3.0.1	2019_Mar_13_0906	s	s	15	3	Capacity	65	1_1	1	1	1	2	23_1_2	0	1	0	1	2.83376002312	430.0	112.0	None	None	0
3.0.1	2019_Mar_13_0906	s	s	15	3	Capacity	66	1_2	1	2	1	3	23_1_3	0	1	0	1	3.60363602638	50.0	-399.0	None	None	0
3.0.1	2019_Mar_13_0906	s	s	15	3	Capacity	67	ABS	0	0	1	3	24_1_3	NA	NA	0	1	1.39887499809	None	None	None	None	1
3.0.1	2019_Mar_13_0906	s	s	15	3	Capacity	68	ABS	0	0	1	2	24_1_2	NA	NA	0	1	1.67430090904	None	None	None	None	1
3.0.1	2019_Mar_13_0906	s	s	15	3	Capacity	69	ABS	0	0	1	1	24_1_1	NA	NA	0	1	2.19867801666	None	None	None	None	1
3.0.1	2019_Mar_13_0906	s	s	15	3	Capacity	70	ABS	0	0	1	2	24_1_2	NA	NA	0	1	3.15692090988	None	None	None	None	1
3.0.1	2019_Mar_13_0906	s	s	15	3	Capacity	71	1_4	1	4	1	3	23_1_3	0	1	1	0	1.08731603622	-201.0	-395.0	-203.0	-392.0	1
3.0.1	2019_Mar_13_0906	s	s	15	3	Capacity	72	ABS	0	0	1	1	24_1_1	NA	NA	0	1	1.26957392693	None	None	None	None	1
3.0.1	2019_Mar_13_0906	s	s	15	3	Capacity	73	ABS	0	0	1	2	24_1_2	NA	NA	0	1	4.19810199738	None	None	None	None	1
3.0.1	2019_Mar_13_0906	s	s	15	3	Capacity	74	ABS	0	0	1	3	24_1_3	NA	NA	0	1	3.26016902924	None	None	None	None	1
3.0.1	2019_Mar_13_0906	s	s	15	3	Capacity	75	1_4	1	4	1	3	23_1_3	0	1	1	0	0.716860055923	-473.0	-366.0	-483.0	-368.0	1
3.0.1	2019_Mar_13_0906	s	s	15	3	Capacity	76	ABS	0	0	1	4	24_1_4	NA	NA	0	1	1.56785511971	None	None	None	None	1
3.0.1	2019_Mar_13_0906	s	s	15	3	Capacity	77	1_3	1	3	1	2	23_1_2	0	1	0	1	2.29301714897	-279.0	-235.0	None	None	0
3.0.1	2019_Mar_13_0906	s	s	15	3	Capacity	78	1_1	1	1	1	2	23_1_2	0	1	0	1	1.999106884	113.0	-369.0	None	None	0
3.0.1	2019_Mar_13_0906	s	s	15	3	Capacity	79	1_4	1	4	1	1	23_1_1	0	3	1	0	0.672569990158	528.0	-269.0	525.0	-268.0	1
3.0.1	2019_Mar_13_0906	s	s	15	3	Capacity	80	1_2	1	2	1	3	23_1_3	0	1	0	1	1.41070389748	367.0	-95.0	None	None	0
3.0.1	2019_Mar_13_0906	s	s	15	3	Capacity	81	1_3	1	3	1	4	23_1_4	0	-1	1	0	1.49588799477	-421.0	23.0	-416.0	22.0	1
3.0.1	2019_Mar_13_0906	s	s	15	3	Capacity	82	ABS	0	0	1	2	24_1_2	NA	NA	0	1	1.82819104195	None	None	None	None	1
3.0.1	2019_Mar_13_0906	s	s	15	3	Capacity	83	1_3	1	3	1	1	23_1_1	0	2	1	0	0.944317102432	95.0	33.0	92.0	24.0	1
3.0.1	2019_Mar_13_0906	s	s	15	3	Capacity	84	ABS	0	0	1	3	24_1_3	NA	NA	0	1	1.50242304802	None	None	None	None	1
3.0.1	2019_Mar_13_0906	s	s	15	3	Capacity	85	ABS	0	0	1	1	24_1_1	NA	NA	0	1	1.19237303734	None	None	None	None	1
3.0.1	2019_Mar_13_0906	s	s	15	3	Capacity	86	1_2	1	2	1	1	23_1_1	0	-1	0	1	1.03426599503	75.0	279.0	None	None	0
3.0.1	2019_Mar_13_0906	s	s	15	3	Capacity	87	1_4	1	4	1	2	23_1_2	0	2	1	0	0.54048204422	59.0	25.0	54.0	18.0	1
3.0.1	2019_Mar_13_0906	s	s	15	3	Capacity	88	1_1	1	1	1	3	23_1_3	0	2	1	0	2.60350680351	-208.0	-193.0	-211.0	-198.0	1
3.0.1	2019_Mar_13_0906	s	s	15	3	Capacity	89	ABS	0	0	1	3	24_1_3	NA	NA	0	1	1.44330692291	None	None	None	None	1
3.0.1	2019_Mar_13_0906	s	s	15	3	Capacity	90	ABS	0	0	1	2	24_1_2	NA	NA	0	1	1.44340896606	None	None	None	None	1
3.0.1	2019_Mar_13_0906	s	s	15	3	Capacity	91	1_2	1	2	1	4	23_1_4	0	2	1	0	0.69833612442	11.0	143.0	9.0	146.0	1
3.0.1	2019_Mar_13_0906	s	s	15	3	Capacity	92	ABS	0	0	1	1	24_1_1	NA	NA	0	1	1.12846088409	None	None	None	None	1
3.0.1	2019_Mar_13_0906	s	s	15	3	Capacity	93	ABS	0	0	1	4	24_1_4	NA	NA	0	1	1.20821905136	None	None	None	None	1
3.0.1	2019_Mar_13_0906	s	s	15	3	Capacity	94	ABS	0	0	1	1	24_1_1	NA	NA	0	1	1.20819807053	None	None	None	None	1
3.0.1	2019_Mar_13_0906	s	s	15	3	Capacity	95	ABS	0	0	1	4	24_1_4	NA	NA	0	1	1.37827992439	None	None	None	None	1
3.0.1	2019_Mar_13_0906	s	s	15	3	Capacity	96	1_1	1	1	1	4	23_1_4	0	3	1	0	0.704950094223	-392.0	381.0	-398.0	377.0	1
3.0.1	2019_Mar_13_0906	s	s	15	3	SIC	1	4_3	4	3	2	4	23_2_4	2	-1	1	0	0.493239879608	72.0	-58.0	63.0	-60.0	1
3.0.1	2019_Mar_13_0906	s	s	15	3	SIC	2	ABS	0	0	4	2	24_4_2	NA	NA	0	1	2.97996306419	None	None	None	None	1
3.0.1	2019_Mar_13_0906	s	s	15	3	SIC	3	3_2	3	2	3	3	23_3_3	0	1	0	1	2.09285306931	411.0	191.0	None	None	0
3.0.1	2019_Mar_13_0906	s	s	15	3	SIC	4	3_1	3	1	2	1	23_2_1	1	0	1	0	0.944444894791	352.0	-396.0	357.0	-397.0	1
3.0.1	2019_Mar_13_0906	s	s	15	3	SIC	5	ABS	0	0	4	4	24_4_4	NA	NA	0	1	1.31949305534	None	None	None	None	1
3.0.1	2019_Mar_13_0906	s	s	15	3	SIC	6	1_2	1	2	3	2	23_3_2	2	0	1	0	0.580826044083	-204.0	-270.0	-199.0	-266.0	1
3.0.1	2019_Mar_13_0906	s	s	15	3	SIC	7	ABS	0	0	4	4	24_4_4	NA	NA	0	1	1.24607992172	None	None	None	None	1
3.0.1	2019_Mar_13_0906	s	s	15	3	SIC	8	4_2	4	2	2	2	23_2_2	2	0	1	0	0.502325057983	-416.0	334.0	-418.0	335.0	1
3.0.1	2019_Mar_13_0906	s	s	15	3	SIC	9	ABS	0	0	4	2	24_4_2	NA	NA	0	1	2.11621999741	None	None	None	None	1
3.0.1	2019_Mar_13_0906	s	s	15	3	SIC	10	1_4	1	4	4	1	23_4_1	3	3	1	0	0.516808986664	-37.0	-223.0	-30.0	-217.0	1
3.0.1	2019_Mar_13_0906	s	s	15	3	SIC	11	2_4	2	4	4	4	23_4_4	2	0	1	0	0.45797085762	22.0	-329.0	18.0	-322.0	1
3.0.1	2019_Mar_13_0906	s	s	15	3	SIC	12	4_4	4	4	3	2	23_3_2	1	2	1	0	0.627712011337	-187.0	-352.0	-182.0	-354.0	1
3.0.1	2019_Mar_13_0906	s	s	15	3	SIC	13	ABS	0	0	3	4	24_3_4	NA	NA	0	1	1.78695297241	None	None	None	None	1
3.0.1	2019_Mar_13_0906	s	s	15	3	SIC	14	4_2	4	2	2	4	23_2_4	2	2	1	0	0.473780870438	52.0	-20.0	52.0	-14.0	1
3.0.1	2019_Mar_13_0906	s	s	15	3	SIC	15	4_4	4	4	1	4	23_1_4	3	0	1	0	0.496302127838	79.0	-223.0	71.0	-223.0	1
3.0.1	2019_Mar_13_0906	s	s	15	3	SIC	16	2_3	2	3	3	2	23_3_2	1	1	1	0	0.545986175537	-21.0	96.0	-25.0	99.0	1
3.0.1	2019_Mar_13_0906	s	s	15	3	SIC	17	ABS	0	0	3	4	24_3_4	NA	NA	0	1	1.83412718773	None	None	None	None	1
3.0.1	2019_Mar_13_0906	s	s	15	3	SIC	18	ABS	0	0	3	2	24_3_2	NA	NA	0	1	1.32087206841	None	None	None	None	1
3.0.1	2019_Mar_13_0906	s	s	15	3	SIC	19	ABS	0	0	1	4	24_1_4	NA	NA	0	1	1.08424305916	None	None	None	None	1
3.0.1	2019_Mar_13_0906	s	s	15	3	SIC	20	4_3	4	3	3	4	23_3_4	1	-1	1	0	0.457967042923	-528.0	12.0	-519.0	8.0	1
3.0.1	2019_Mar_13_0906	s	s	15	3	SIC	21	2_2	2	2	3	1	23_3_1	1	-1	1	0	0.704941034317	354.0	-162.0	354.0	-169.0	1
3.0.1	2019_Mar_13_0906	s	s	15	3	SIC	22	ABS	0	0	4	1	24_4_1	NA	NA	0	1	0.907829046249	None	None	None	None	1
3.0.1	2019_Mar_13_0906	s	s	15	3	SIC	23	ABS	0	0	1	4	24_1_4	NA	NA	0	1	0.916674852371	None	None	None	None	1
3.0.1	2019_Mar_13_0906	s	s	15	3	SIC	24	ABS	0	0	1	1	24_1_1	NA	NA	0	1	1.16366910934	None	None	None	None	1
3.0.1	2019_Mar_13_0906	s	s	15	3	SIC	25	ABS	0	0	3	4	24_3_4	NA	NA	0	1	0.834682941437	None	None	None	None	1
3.0.1	2019_Mar_13_0906	s	s	15	3	SIC	26	ABS	0	0	1	4	24_1_4	NA	NA	0	1	1.01119494438	None	None	None	None	1
3.0.1	2019_Mar_13_0906	s	s	15	3	SIC	27	ABS	0	0	2	4	24_2_4	NA	NA	0	1	0.916954994202	None	None	None	None	1
3.0.1	2019_Mar_13_0906	s	s	15	3	SIC	28	3_2	3	2	2	3	23_2_3	1	1	1	0	0.587387084961	-501.0	-74.0	-503.0	-64.0	1
3.0.1	2019_Mar_13_0906	s	s	15	3	SIC	29	1_3	1	3	1	4	23_1_4	0	-1	0	1	0.9666659832	133.0	-252.0	None	None	0
3.0.1	2019_Mar_13_0906	s	s	15	3	SIC	30	1_4	1	4	4	2	23_4_2	3	2	1	0	0.41462802887	187.0	-44.0	195.0	-43.0	1
3.0.1	2019_Mar_13_0906	s	s	15	3	SIC	31	4_3	4	3	1	1	23_1_1	3	2	1	0	0.453076124191	-432.0	-79.0	-432.0	-75.0	1
3.0.1	2019_Mar_13_0906	s	s	15	3	SIC	32	ABS	0	0	2	1	24_2_1	NA	NA	0	1	1.26065206528	None	None	None	None	1
3.0.1	2019_Mar_13_0906	s	s	15	3	SIC	33	1_3	1	3	2	1	23_2_1	1	2	1	0	1.43702292442	363.0	-411.0	361.0	-407.0	1
3.0.1	2019_Mar_13_0906	s	s	15	3	SIC	34	ABS	0	0	1	3	24_1_3	NA	NA	0	1	2.09866499901	None	None	None	None	1
3.0.1	2019_Mar_13_0906	s	s	15	3	SIC	35	ABS	0	0	2	3	24_2_3	NA	NA	0	1	1.40330600739	None	None	None	None	1
3.0.1	2019_Mar_13_0906	s	s	15	3	SIC	36	1_4	1	4	2	2	23_2_2	1	2	1	0	0.587755203247	28.0	-71.0	39.0	-68.0	1
3.0.1	2019_Mar_13_0906	s	s	15	3	SIC	37	ABS	0	0	1	2	24_1_2	NA	NA	0	1	1.26992797852	None	None	None	None	1
3.0.1	2019_Mar_13_0906	s	s	15	3	SIC	38	ABS	0	0	1	1	24_1_1	NA	NA	0	1	1.14408993721	None	None	None	None	1
3.0.1	2019_Mar_13_0906	s	s	15	3	SIC	39	ABS	0	0	2	4	24_2_4	NA	NA	0	1	1.39915013313	None	None	None	None	1
3.0.1	2019_Mar_13_0906	s	s	15	3	SIC	40	3_4	3	4	4	3	23_4_3	-1	1	1	0	0.493316888809	95.0	46.0	99.0	50.0	1
3.0.1	2019_Mar_13_0906	s	s	15	3	SIC	41	ABS	0	0	3	1	24_3_1	NA	NA	0	1	0.848964929581	None	None	None	None	1
3.0.1	2019_Mar_13_0906	s	s	15	3	SIC	42	4_1	4	1	3	1	23_3_1	1	0	1	0	0.47377705574	193.0	-309.0	192.0	-310.0	1
3.0.1	2019_Mar_13_0906	s	s	15	3	SIC	43	ABS	0	0	2	4	24_2_4	NA	NA	0	1	1.55470085144	None	None	None	None	1
3.0.1	2019_Mar_13_0906	s	s	15	3	SIC	44	1_4	1	4	4	4	23_4_4	3	0	1	0	0.516867160797	296.0	254.0	296.0	254.0	1
3.0.1	2019_Mar_13_0906	s	s	15	3	SIC	45	3_3	3	3	2	4	23_2_4	1	-1	1	0	0.587372779846	270.0	-262.0	258.0	-257.0	1
3.0.1	2019_Mar_13_0906	s	s	15	3	SIC	46	ABS	0	0	4	4	24_4_4	NA	NA	0	1	1.01628684998	None	None	None	None	1
3.0.1	2019_Mar_13_0906	s	s	15	3	SIC	47	3_4	3	4	4	2	23_4_2	-1	2	1	0	0.437420845032	-93.0	121.0	-96.0	121.0	1
3.0.1	2019_Mar_13_0906	s	s	15	3	SIC	48	1_2	1	2	3	3	23_3_3	2	1	1	0	0.516793012619	466.0	341.0	467.0	328.0	1
3.0.1	2019_Mar_13_0906	s	s	15	3	SIC	49	ABS	0	0	3	3	24_3_3	NA	NA	0	1	1.51654100418	None	None	None	None	1
3.0.1	2019_Mar_13_0906	s	s	15	3	SIC	50	ABS	0	0	3	4	24_3_4	NA	NA	0	1	1.05787992477	None	None	None	None	1
3.0.1	2019_Mar_13_0906	s	s	15	3	SIC	51	ABS	0	0	3	2	24_3_2	NA	NA	0	1	1.17979097366	None	None	None	None	1
3.0.1	2019_Mar_13_0906	s	s	15	3	SIC	52	ABS	0	0	2	3	24_2_3	NA	NA	0	1	1.10484409332	None	None	None	None	1
3.0.1	2019_Mar_13_0906	s	s	15	3	SIC	53	3_3	3	3	1	4	23_1_4	2	-1	1	0	0.52859210968	32.0	67.0	22.0	67.0	1
3.0.1	2019_Mar_13_0906	s	s	15	3	SIC	54	ABS	0	0	4	4	24_4_4	NA	NA	0	1	0.957262992859	None	None	None	None	1
3.0.1	2019_Mar_13_0906	s	s	15	3	SIC	55	ABS	0	0	1	1	24_1_1	NA	NA	0	1	1.07251691818	None	None	None	None	1
3.0.1	2019_Mar_13_0906	s	s	15	3	SIC	56	ABS	0	0	1	1	24_1_1	NA	NA	0	1	0.862888097763	None	None	None	None	1
3.0.1	2019_Mar_13_0906	s	s	15	3	SIC	57	ABS	0	0	2	3	24_2_3	NA	NA	0	1	1.11660194397	None	None	None	None	1
3.0.1	2019_Mar_13_0906	s	s	15	3	SIC	58	1_1	1	1	3	1	23_3_1	2	0	1	0	0.545384883881	314.0	-327.0	317.0	-328.0	1
3.0.1	2019_Mar_13_0906	s	s	15	3	SIC	59	ABS	0	0	4	3	24_4_3	NA	NA	0	1	0.899044036865	None	None	None	None	1
3.0.1	2019_Mar_13_0906	s	s	15	3	SIC	60	3_4	3	4	2	4	23_2_4	1	0	1	0	0.599225997925	-298.0	44.0	-290.0	41.0	1
3.0.1	2019_Mar_13_0906	s	s	15	3	SIC	61	ABS	0	0	3	2	24_3_2	NA	NA	0	1	3.04010105133	None	None	None	None	1
3.0.1	2019_Mar_13_0906	s	s	15	3	SIC	62	ABS	0	0	3	4	24_3_4	NA	NA	0	1	1.79301404953	None	None	None	None	1
3.0.1	2019_Mar_13_0906	s	s	15	3	SIC	63	ABS	0	0	4	3	24_4_3	NA	NA	0	1	2.22518110275	None	None	None	None	1
3.0.1	2019_Mar_13_0906	s	s	15	3	SIC	64	ABS	0	0	4	1	24_4_1	NA	NA	0	1	2.18735098839	None	None	None	None	1
3.0.1	2019_Mar_13_0906	s	s	15	3	SIC	65	3_2	3	2	4	2	23_4_2	-1	0	1	0	0.496629953384	491.0	339.0	499.0	341.0	1
3.0.1	2019_Mar_13_0906	s	s	15	3	SIC	66	ABS	0	0	1	3	24_1_3	NA	NA	0	1	1.67235589027	None	None	None	None	1
3.0.1	2019_Mar_13_0906	s	s	15	3	SIC	67	1_1	1	1	2	4	23_2_4	1	3	1	0	0.763727903366	-511.0	-167.0	-516.0	-162.0	1
3.0.1	2019_Mar_13_0906	s	s	15	3	SIC	68	ABS	0	0	4	2	24_4_2	NA	NA	0	1	0.822558879852	None	None	None	None	1
3.0.1	2019_Mar_13_0906	s	s	15	3	SIC	69	ABS	0	0	2	1	24_2_1	NA	NA	0	1	1.01604700089	None	None	None	None	1
3.0.1	2019_Mar_13_0906	s	s	15	3	SIC	70	4_4	4	4	3	1	23_3_1	1	3	1	0	0.469747066498	86.0	-59.0	91.0	-59.0	1
3.0.1	2019_Mar_13_0906	s	s	15	3	SIC	71	ABS	0	0	1	3	24_1_3	NA	NA	0	1	1.95669913292	None	None	None	None	1
3.0.1	2019_Mar_13_0906	s	s	15	3	SIC	72	ABS	0	0	4	1	24_4_1	NA	NA	0	1	2.32126784325	None	None	None	None	1
3.0.1	2019_Mar_13_0906	s	s	15	3	SIC	73	2_4	2	4	1	4	23_1_4	-1	0	0	1	1.18069005013	280.0	-131.0	None	None	0
3.0.1	2019_Mar_13_0906	s	s	15	3	SIC	74	ABS	0	0	3	4	24_3_4	NA	NA	0	1	0.945055007935	None	None	None	None	1
3.0.1	2019_Mar_13_0906	s	s	15	3	SIC	75	ABS	0	0	1	2	24_1_2	NA	NA	0	1	1.86308288574	None	None	None	None	1
3.0.1	2019_Mar_13_0906	s	s	15	3	SIC	76	ABS	0	0	1	4	24_1_4	NA	NA	0	1	1.61061215401	None	None	None	None	1
3.0.1	2019_Mar_13_0906	s	s	15	3	SIC	77	4_4	4	4	2	4	23_2_4	2	0	1	0	0.545169115067	151.0	394.0	152.0	395.0	1
3.0.1	2019_Mar_13_0906	s	s	15	3	SIC	78	ABS	0	0	2	4	24_2_4	NA	NA	0	1	1.36357593536	None	None	None	None	1
3.0.1	2019_Mar_13_0906	s	s	15	3	SIC	79	ABS	0	0	1	2	24_1_2	NA	NA	0	1	1.24601197243	None	None	None	None	1
3.0.1	2019_Mar_13_0906	s	s	15	3	SIC	80	4_1	4	1	1	4	23_1_4	3	3	1	0	0.443603992462	33.0	-241.0	37.0	-233.0	1
3.0.1	2019_Mar_13_0906	s	s	15	3	SIC	81	1_3	1	3	1	2	23_1_2	0	1	0	1	0.9078540802	-483.0	228.0	None	None	0
3.0.1	2019_Mar_13_0906	s	s	15	3	SIC	82	ABS	0	0	4	3	24_4_3	NA	NA	0	1	1.01104688644	None	None	None	None	1
3.0.1	2019_Mar_13_0906	s	s	15	3	SIC	83	3_4	3	4	3	2	23_3_2	0	2	1	0	0.559875011444	-366.0	273.0	-362.0	270.0	1
3.0.1	2019_Mar_13_0906	s	s	15	3	SIC	84	ABS	0	0	2	1	24_2_1	NA	NA	0	1	0.723470926285	None	None	None	None	1
3.0.1	2019_Mar_13_0906	s	s	15	3	SIC	85	ABS	0	0	1	1	24_1_1	NA	NA	0	1	1.21720695496	None	None	None	None	1
3.0.1	2019_Mar_13_0906	s	s	15	3	SIC	86	ABS	0	0	4	1	24_4_1	NA	NA	0	1	0.663855075836	None	None	None	None	1
3.0.1	2019_Mar_13_0906	s	s	15	3	SIC	87	1_3	1	3	1	1	23_1_1	0	2	0	1	0.827734947205	-476.0	-58.0	None	None	0
3.0.1	2019_Mar_13_0906	s	s	15	3	SIC	88	ABS	0	0	1	4	24_1_4	NA	NA	0	1	0.992148160934	None	None	None	None	1
3.0.1	2019_Mar_13_0906	s	s	15	3	SIC	89	3_3	3	3	4	4	23_4_4	-1	-1	1	0	0.516878128052	185.0	-296.0	183.0	-286.0	1
3.0.1	2019_Mar_13_0906	s	s	15	3	SIC	90	ABS	0	0	2	2	24_2_2	NA	NA	0	1	1.03429794312	None	None	None	None	1
3.0.1	2019_Mar_13_0906	s	s	15	3	SIC	91	ABS	0	0	4	2	24_4_2	NA	NA	0	1	1.05790114403	None	None	None	None	1
3.0.1	2019_Mar_13_0906	s	s	15	3	SIC	92	3_1	3	1	2	4	23_2_4	1	3	1	0	0.543699979782	361.0	-97.0	363.0	-91.0	1
3.0.1	2019_Mar_13_0906	s	s	15	3	SIC	93	ABS	0	0	4	4	24_4_4	NA	NA	0	1	1.01586508751	None	None	None	None	1
3.0.1	2019_Mar_13_0906	s	s	15	3	SIC	94	1_1	1	1	1	4	23_1_4	0	3	1	0	0.797502040863	350.0	-344.0	347.0	-345.0	1
3.0.1	2019_Mar_13_0906	s	s	15	3	SIC	95	ABS	0	0	4	2	24_4_2	NA	NA	0	1	2.64560818672	None	None	None	None	1
3.0.1	2019_Mar_13_0906	s	s	15	3	SIC	96	ABS	0	0	2	2	24_2_2	NA	NA	0	1	1.28616714478	None	None	None	None	1
3.0.1	2019_Mar_13_0906	s	s	15	3	SIC	97	ABS	0	0	2	4	24_2_4	NA	NA	0	1	0.940227985382	None	None	None	None	1
3.0.1	2019_Mar_13_0906	s	s	15	3	SIC	98	ABS	0	0	3	1	24_3_1	NA	NA	0	1	0.869621992111	None	None	None	None	1
3.0.1	2019_Mar_13_0906	s	s	15	3	SIC	99	4_3	4	3	4	1	23_4_1	0	2	0	1	1.26066803932	-515.0	243.0	None	None	0
3.0.1	2019_Mar_13_0906	s	s	15	3	SIC	100	2_2	2	2	4	3	23_4_3	2	1	1	0	0.516788005829	-110.0	-274.0	-119.0	-266.0	1
3.0.1	2019_Mar_13_0906	s	s	15	3	SIC	101	2_1	2	1	2	4	23_2_4	0	3	1	0	0.540352106094	395.0	38.0	389.0	37.0	1
3.0.1	2019_Mar_13_0906	s	s	15	3	SIC	102	ABS	0	0	2	2	24_2_2	NA	NA	0	1	0.952090978622	None	None	None	None	1
3.0.1	2019_Mar_13_0906	s	s	15	3	SIC	103	ABS	0	0	2	2	24_2_2	NA	NA	0	1	1.64588999748	None	None	None	None	1
3.0.1	2019_Mar_13_0906	s	s	15	3	SIC	104	2_2	2	2	1	4	23_1_4	-1	2	1	0	0.567198991776	37.0	352.0	30.0	351.0	1
3.0.1	2019_Mar_13_0906	s	s	15	3	SIC	105	ABS	0	0	4	1	24_4_1	NA	NA	0	1	1.22715806961	None	None	None	None	1
3.0.1	2019_Mar_13_0906	s	s	15	3	SIC	106	1_4	1	4	4	3	23_4_3	3	1	1	0	0.496173143387	-452.0	260.0	-449.0	253.0	1
3.0.1	2019_Mar_13_0906	s	s	15	3	SIC	107	2_1	2	1	1	2	23_1_2	-1	1	0	1	1.0254099369	45.0	-356.0	None	None	0
3.0.1	2019_Mar_13_0906	s	s	15	3	SIC	108	3_3	3	3	4	1	23_4_1	-1	2	1	0	0.504868030548	427.0	295.0	433.0	292.0	1
3.0.1	2019_Mar_13_0906	s	s	15	3	SIC	109	ABS	0	0	1	3	24_1_3	NA	NA	0	1	2.3779771328	None	None	None	None	1
3.0.1	2019_Mar_13_0906	s	s	15	3	SIC	110	ABS	0	0	3	1	24_3_1	NA	NA	0	1	0.66088104248	None	None	None	None	1
3.0.1	2019_Mar_13_0906	s	s	15	3	SIC	111	3_1	3	1	1	4	23_1_4	2	3	1	0	0.717114925385	-268.0	-94.0	-281.0	-86.0	1
3.0.1	2019_Mar_13_0906	s	s	15	3	SIC	112	4_4	4	4	2	1	23_2_1	2	3	1	0	0.442380189896	-24.0	-64.0	-21.0	-76.0	1
3.0.1	2019_Mar_13_0906	s	s	15	3	SIC	113	ABS	0	0	2	2	24_2_2	NA	NA	0	1	0.992326974869	None	None	None	None	1
3.0.1	2019_Mar_13_0906	s	s	15	3	SIC	114	ABS	0	0	1	1	24_1_1	NA	NA	0	1	0.634464979172	None	None	None	None	1
3.0.1	2019_Mar_13_0906	s	s	15	3	SIC	115	ABS	0	0	3	4	24_3_4	NA	NA	0	1	0.790198087692	None	None	None	None	1
3.0.1	2019_Mar_13_0906	s	s	15	3	SIC	116	ABS	0	0	1	1	24_1_1	NA	NA	0	1	0.972942113876	None	None	None	None	1
3.0.1	2019_Mar_13_0906	s	s	15	3	SIC	117	ABS	0	0	1	2	24_1_2	NA	NA	0	1	1.52131891251	None	None	None	None	1
3.0.1	2019_Mar_13_0906	s	s	15	3	SIC	118	2_2	2	2	3	2	23_3_2	1	0	1	0	0.775578022003	-50.0	201.0	-54.0	197.0	1
3.0.1	2019_Mar_13_0906	s	s	15	3	SIC	119	3_2	3	2	3	1	23_3_1	0	-1	0	1	1.05794215202	-234.0	71.0	None	None	0
3.0.1	2019_Mar_13_0906	s	s	15	3	SIC	120	3_1	3	1	2	2	23_2_2	1	1	1	0	1.60509395599	-488.0	-406.0	-493.0	-409.0	1
3.0.1	2019_Mar_13_0906	s	s	15	3	SIC	121	ABS	0	0	1	3	24_1_3	NA	NA	0	1	1.85757398605	None	None	None	None	1
3.0.1	2019_Mar_13_0906	s	s	15	3	SIC	122	1_4	1	4	2	4	23_2_4	1	0	0	1	1.71676492691	-424.0	-129.0	None	None	0
3.0.1	2019_Mar_13_0906	s	s	15	3	SIC	123	ABS	0	0	1	2	24_1_2	NA	NA	0	1	1.246104002	None	None	None	None	1
3.0.1	2019_Mar_13_0906	s	s	15	3	SIC	124	1_1	1	1	3	3	23_3_3	2	2	1	0	0.462553977966	222.0	-109.0	234.0	-100.0	1
3.0.1	2019_Mar_13_0906	s	s	15	3	SIC	125	ABS	0	0	1	1	24_1_1	NA	NA	0	1	1.04613089561	None	None	None	None	1
3.0.1	2019_Mar_13_0906	s	s	15	3	SIC	126	1_1	1	1	1	3	23_1_3	0	2	0	1	0.72335600853	-159.0	-193.0	None	None	0
3.0.1	2019_Mar_13_0906	s	s	15	3	SIC	127	3_1	3	1	1	3	23_1_3	2	2	1	0	0.501907110214	-407.0	256.0	-402.0	253.0	1
3.0.1	2019_Mar_13_0906	s	s	15	3	SIC	128	ABS	0	0	2	3	24_2_3	NA	NA	0	1	0.604291915894	None	None	None	None	1
3.0.1	2019_Mar_13_0906	s	s	15	3	SIC	129	ABS	0	0	2	4	24_2_4	NA	NA	0	1	1.1312930584	None	None	None	None	1
3.0.1	2019_Mar_13_0906	s	s	15	3	SIC	130	2_2	2	2	4	2	23_4_2	2	0	1	0	0.533452033997	-506.0	97.0	-498.0	92.0	1
3.0.1	2019_Mar_13_0906	s	s	15	3	SIC	131	ABS	0	0	2	4	24_2_4	NA	NA	0	1	1.04608201981	None	None	None	None	1
3.0.1	2019_Mar_13_0906	s	s	15	3	SIC	132	ABS	0	0	2	1	24_2_1	NA	NA	0	1	1.36367797852	None	None	None	None	1
3.0.1	2019_Mar_13_0906	s	s	15	3	SIC	133	ABS	0	0	3	3	24_3_3	NA	NA	0	1	1.1076362133	None	None	None	None	1
3.0.1	2019_Mar_13_0906	s	s	15	3	SIC	134	3_3	3	3	2	3	23_2_3	1	0	1	0	0.546561956406	-261.0	212.0	-250.0	212.0	1
3.0.1	2019_Mar_13_0906	s	s	15	3	SIC	135	ABS	0	0	1	3	24_1_3	NA	NA	0	1	0.672636032104	None	None	None	None	1
3.0.1	2019_Mar_13_0906	s	s	15	3	SIC	136	2_4	2	4	1	3	23_1_3	-1	1	1	0	0.705193996429	-166.0	-80.0	-174.0	-73.0	1
3.0.1	2019_Mar_13_0906	s	s	15	3	SIC	137	4_1	4	1	3	4	23_3_4	1	3	1	0	0.458010911942	-523.0	-226.0	-530.0	-225.0	1
3.0.1	2019_Mar_13_0906	s	s	15	3	SIC	138	2_3	2	3	1	4	23_1_4	-1	-1	1	0	1.48629212379	-236.0	-92.0	-227.0	-90.0	1
3.0.1	2019_Mar_13_0906	s	s	15	3	SIC	139	2_4	2	4	4	3	23_4_3	2	1	1	0	0.532591819763	395.0	-91.0	399.0	-85.0	1
3.0.1	2019_Mar_13_0906	s	s	15	3	SIC	140	ABS	0	0	1	4	24_1_4	NA	NA	0	1	0.914057016373	None	None	None	None	1
3.0.1	2019_Mar_13_0906	s	s	15	3	SIC	141	4_1	4	1	2	1	23_2_1	2	0	1	0	0.437338113785	491.0	107.0	492.0	95.0	1
3.0.1	2019_Mar_13_0906	s	s	15	3	SIC	142	ABS	0	0	4	2	24_4_2	NA	NA	0	1	1.89297699928	None	None	None	None	1
3.0.1	2019_Mar_13_0906	s	s	15	3	SIC	143	ABS	0	0	1	3	24_1_3	NA	NA	0	1	2.49559497833	None	None	None	None	1
3.0.1	2019_Mar_13_0906	s	s	15	3	SIC	144	4_3	4	3	4	4	23_4_4	0	-1	1	0	1.79896187782	6.0	-12.0	9.0	-16.0	1
3.0.1	2019_Mar_13_0906	s	s	15	3	SIC	145	ABS	0	0	3	3	24_3_3	NA	NA	0	1	1.8983309269	None	None	None	None	1
3.0.1	2019_Mar_13_0906	s	s	15	3	SIC	146	3_3	3	3	4	3	23_4_3	-1	0	1	0	0.457970142365	111.0	-248.0	111.0	-249.0	1
3.0.1	2019_Mar_13_0906	s	s	15	3	SIC	147	ABS	0	0	2	2	24_2_2	NA	NA	0	1	1.03434586525	None	None	None	None	1
3.0.1	2019_Mar_13_0906	s	s	15	3	SIC	148	ABS	0	0	4	3	24_4_3	NA	NA	0	1	0.634772062302	None	None	None	None	1
3.0.1	2019_Mar_13_0906	s	s	15	3	SIC	149	ABS	0	0	1	2	24_1_2	NA	NA	0	1	1.42717885971	None	None	None	None	1
3.0.1	2019_Mar_13_0906	s	s	15	3	SIC	150	ABS	0	0	4	2	24_4_2	NA	NA	0	1	0.909823894501	None	None	None	None	1
3.0.1	2019_Mar_13_0906	s	s	15	3	SIC	151	ABS	0	0	3	2	24_3_2	NA	NA	0	1	1.09310603142	None	None	None	None	1
3.0.1	2019_Mar_13_0906	s	s	15	3	SIC	152	2_2	2	2	2	3	23_2_3	0	1	0	1	1.47345805168	124.0	-139.0	None	None	0
3.0.1	2019_Mar_13_0906	s	s	15	3	SIC	153	2_3	2	3	2	2	23_2_2	0	1	0	1	1.84871602058	302.0	-69.0	None	None	0
3.0.1	2019_Mar_13_0906	s	s	15	3	SIC	154	4_2	4	2	1	4	23_1_4	3	2	1	0	0.510986089706	-47.0	41.0	-41.0	42.0	1
3.0.1	2019_Mar_13_0906	s	s	15	3	SIC	155	ABS	0	0	2	3	24_2_3	NA	NA	0	1	4.11579799652	None	None	None	None	1
3.0.1	2019_Mar_13_0906	s	s	15	3	SIC	156	ABS	0	0	2	3	24_2_3	NA	NA	0	1	0.999003887177	None	None	None	None	1
3.0.1	2019_Mar_13_0906	s	s	15	3	SIC	157	ABS	0	0	3	4	24_3_4	NA	NA	0	1	0.898254156113	None	None	None	None	1
3.0.1	2019_Mar_13_0906	s	s	15	3	SIC	158	2_1	2	1	3	2	23_3_2	1	1	1	0	0.578372001648	-325.0	18.0	-322.0	15.0	1
3.0.1	2019_Mar_13_0906	s	s	15	3	SIC	159	ABS	0	0	2	1	24_2_1	NA	NA	0	1	0.826514005661	None	None	None	None	1
3.0.1	2019_Mar_13_0906	s	s	15	3	SIC	160	4_3	4	3	2	1	23_2_1	2	2	1	0	0.443320989609	-516.0	-330.0	-518.0	-331.0	1
3.0.1	2019_Mar_13_0906	s	s	15	3	SIC	161	2_2	2	2	1	2	23_1_2	-1	0	0	1	0.627764940262	299.0	26.0	None	None	0
3.0.1	2019_Mar_13_0906	s	s	15	3	SIC	162	2_2	2	2	3	3	23_3_3	1	1	1	0	0.881422996521	472.0	-55.0	480.0	-49.0	1
3.0.1	2019_Mar_13_0906	s	s	15	3	SIC	163	1_3	1	3	2	3	23_2_3	1	0	1	0	1.77529001236	535.0	169.0	532.0	171.0	1
3.0.1	2019_Mar_13_0906	s	s	15	3	SIC	164	ABS	0	0	2	1	24_2_1	NA	NA	0	1	1.16853499413	None	None	None	None	1
3.0.1	2019_Mar_13_0906	s	s	15	3	SIC	165	4_3	4	3	3	3	23_3_3	1	0	1	0	0.440134048462	-455.0	-76.0	-446.0	-78.0	1
3.0.1	2019_Mar_13_0906	s	s	15	3	SIC	166	ABS	0	0	1	3	24_1_3	NA	NA	0	1	1.4515068531	None	None	None	None	1
3.0.1	2019_Mar_13_0906	s	s	15	3	SIC	167	ABS	0	0	4	3	24_4_3	NA	NA	0	1	1.70954012871	None	None	None	None	1
3.0.1	2019_Mar_13_0906	s	s	15	3	SIC	168	ABS	0	0	2	3	24_2_3	NA	NA	0	1	1.63413715363	None	None	None	None	1
3.0.1	2019_Mar_13_0906	s	s	15	3	SIC	169	ABS	0	0	3	4	24_3_4	NA	NA	0	1	0.716802835464	None	None	None	None	1
3.0.1	2019_Mar_13_0906	s	s	15	3	SIC	170	ABS	0	0	1	3	24_1_3	NA	NA	0	1	1.07547283173	None	None	None	None	1
3.0.1	2019_Mar_13_0906	s	s	15	3	SIC	171	ABS	0	0	2	1	24_2_1	NA	NA	0	1	0.881365060806	None	None	None	None	1
3.0.1	2019_Mar_13_0906	s	s	15	3	SIC	172	ABS	0	0	2	2	24_2_2	NA	NA	0	1	0.731428146362	None	None	None	None	1
3.0.1	2019_Mar_13_0906	s	s	15	3	SIC	173	2_1	2	1	1	3	23_1_3	-1	2	1	0	1.00388407707	166.0	-132.0	162.0	-138.0	1
3.0.1	2019_Mar_13_0906	s	s	15	3	SIC	174	ABS	0	0	4	3	24_4_3	NA	NA	0	1	0.907837867737	None	None	None	None	1
3.0.1	2019_Mar_13_0906	s	s	15	3	SIC	175	ABS	0	0	4	1	24_4_1	NA	NA	0	1	0.775642871857	None	None	None	None	1
3.0.1	2019_Mar_13_0906	s	s	15	3	SIC	176	1_4	1	4	1	2	23_1_2	0	2	1	0	0.559237003326	379.0	-147.0	381.0	-151.0	1
3.0.1	2019_Mar_13_0906	s	s	15	3	SIC	177	ABS	0	0	3	3	24_3_3	NA	NA	0	1	0.88557600975	None	None	None	None	1
3.0.1	2019_Mar_13_0906	s	s	15	3	SIC	178	ABS	0	0	4	4	24_4_4	NA	NA	0	1	1.2813539505	None	None	None	None	1
3.0.1	2019_Mar_13_0906	s	s	15	3	SIC	179	ABS	0	0	1	4	24_1_4	NA	NA	0	1	0.928848028183	None	None	None	None	1
3.0.1	2019_Mar_13_0906	s	s	15	3	SIC	180	ABS	0	0	1	3	24_1_3	NA	NA	0	1	2.31627011299	None	None	None	None	1
3.0.1	2019_Mar_13_0906	s	s	15	3	SIC	181	2_3	2	3	1	1	23_1_1	-1	2	0	1	1.88115310669	388.0	270.0	None	None	0
3.0.1	2019_Mar_13_0906	s	s	15	3	SIC	182	ABS	0	0	2	3	24_2_3	NA	NA	0	1	1.59898400307	None	None	None	None	1
3.0.1	2019_Mar_13_0906	s	s	15	3	SIC	183	2_2	2	2	3	4	23_3_4	1	2	1	0	0.562433004379	112.0	-355.0	105.0	-346.0	1
3.0.1	2019_Mar_13_0906	s	s	15	3	SIC	184	4_3	4	3	2	3	23_2_3	2	0	1	0	0.496170043945	-106.0	59.0	-100.0	61.0	1
3.0.1	2019_Mar_13_0906	s	s	15	3	SIC	185	ABS	0	0	2	4	24_2_4	NA	NA	0	1	0.968780040741	None	None	None	None	1
3.0.1	2019_Mar_13_0906	s	s	15	3	SIC	186	3_2	3	2	4	3	23_4_3	-1	1	1	0	0.505097866058	135.0	397.0	122.0	404.0	1
3.0.1	2019_Mar_13_0906	s	s	15	3	SIC	187	1_1	1	1	3	4	23_3_4	2	3	1	0	0.469723939896	90.0	-326.0	93.0	-321.0	1
3.0.1	2019_Mar_13_0906	s	s	15	3	SIC	188	ABS	0	0	3	1	24_3_1	NA	NA	0	1	0.975496053696	None	None	None	None	1
3.0.1	2019_Mar_13_0906	s	s	15	3	SIC	189	ABS	0	0	1	2	24_1_2	NA	NA	0	1	1.12844610214	None	None	None	None	1
3.0.1	2019_Mar_13_0906	s	s	15	3	SIC	190	3_2	3	2	1	3	23_1_3	2	1	1	0	0.560765981674	-3.0	315.0	-5.0	317.0	1
3.0.1	2019_Mar_13_0906	s	s	15	3	SIC	191	4_2	4	2	1	1	23_1_1	3	-1	1	0	0.410924911499	-38.0	122.0	-41.0	114.0	1
3.0.1	2019_Mar_13_0906	s	s	15	3	SIC	192	ABS	0	0	2	3	24_2_3	NA	NA	0	1	1.26719903946	None	None	None	None	1
3.0.1	2019_Mar_13_0906	s	s	15	3	SIC	193	2_4	2	4	2	2	23_2_2	0	2	1	0	0.546524047852	-271.0	-120.0	-280.0	-121.0	1
3.0.1	2019_Mar_13_0906	s	s	15	3	SIC	194	3_1	3	1	1	1	23_1_1	2	0	1	0	0.516757965088	-137.0	-280.0	-132.0	-278.0	1
3.0.1	2019_Mar_13_0906	s	s	15	3	SIC	195	ABS	0	0	2	2	24_2_2	NA	NA	0	1	1.31951713562	None	None	None	None	1
3.0.1	2019_Mar_13_0906	s	s	15	3	SIC	196	2_4	2	4	2	1	23_2_1	0	3	1	0	0.646184921265	-142.0	366.0	-147.0	360.0	1
3.0.1	2019_Mar_13_0906	s	s	15	3	SIC	197	1_3	1	3	3	1	23_3_1	2	2	1	0	0.516771793365	-534.0	-321.0	-537.0	-317.0	1
3.0.1	2019_Mar_13_0906	s	s	15	3	SIC	198	ABS	0	0	2	2	24_2_2	NA	NA	0	1	1.5047249794	None	None	None	None	1
3.0.1	2019_Mar_13_0906	s	s	15	3	SIC	199	ABS	0	0	1	4	24_1_4	NA	NA	0	1	1.1754629612	None	None	None	None	1
3.0.1	2019_Mar_13_0906	s	s	15	3	SIC	200	ABS	0	0	4	2	24_4_2	NA	NA	0	1	1.35622310638	None	None	None	None	1
3.0.1	2019_Mar_13_0906	s	s	15	3	SIC	201	ABS	0	0	2	3	24_2_3	NA	NA	0	1	1.08947300911	None	None	None	None	1
3.0.1	2019_Mar_13_0906	s	s	15	3	SIC	202	ABS	0	0	1	3	24_1_3	NA	NA	0	1	1.0311961174	None	None	None	None	1
3.0.1	2019_Mar_13_0906	s	s	15	3	SIC	203	ABS	0	0	3	3	24_3_3	NA	NA	0	1	1.62234902382	None	None	None	None	1
3.0.1	2019_Mar_13_0906	s	s	15	3	SIC	204	ABS	0	0	3	2	24_3_2	NA	NA	0	1	1.0696618557	None	None	None	None	1
3.0.1	2019_Mar_13_0906	s	s	15	3	SIC	205	ABS	0	0	1	4	24_1_4	NA	NA	0	1	1.29301810265	None	None	None	None	1
3.0.1	2019_Mar_13_0906	s	s	15	3	SIC	206	ABS	0	0	1	3	24_1_3	NA	NA	0	1	1.36654305458	None	None	None	None	1
3.0.1	2019_Mar_13_0906	s	s	15	3	SIC	207	ABS	0	0	2	1	24_2_1	NA	NA	0	1	1.48614192009	None	None	None	None	1
3.0.1	2019_Mar_13_0906	s	s	15	3	SIC	208	2_3	2	3	3	4	23_3_4	1	-1	1	0	0.73140001297	-307.0	338.0	-303.0	339.0	1
3.0.1	2019_Mar_13_0906	s	s	15	3	SIC	209	3_2	3	2	1	2	23_1_2	2	0	1	0	0.637445926666	197.0	-232.0	186.0	-222.0	1
3.0.1	2019_Mar_13_0906	s	s	15	3	SIC	210	ABS	0	0	3	2	24_3_2	NA	NA	0	1	1.15597915649	None	None	None	None	1
3.0.1	2019_Mar_13_0906	s	s	15	3	SIC	211	3_3	3	3	3	1	23_3_1	0	2	1	0	2.26921701431	28.0	-144.0	17.0	-139.0	1
3.0.1	2019_Mar_13_0906	s	s	15	3	SIC	212	4_1	4	1	2	4	23_2_4	2	3	1	0	0.481518983841	-197.0	144.0	-194.0	150.0	1
3.0.1	2019_Mar_13_0906	s	s	15	3	SIC	213	ABS	0	0	1	4	24_1_4	NA	NA	0	1	1.43708705902	None	None	None	None	1
3.0.1	2019_Mar_13_0906	s	s	15	3	SIC	214	ABS	0	0	1	1	24_1_1	NA	NA	0	1	1.83406400681	None	None	None	None	1
3.0.1	2019_Mar_13_0906	s	s	15	3	SIC	215	ABS	0	0	1	3	24_1_3	NA	NA	1	0	1.133259058	None	None	-37.0	60.0	0
3.0.1	2019_Mar_13_0906	s	s	15	3	SIC	216	ABS	0	0	1	1	24_1_1	NA	NA	0	1	0.827184200287	None	None	None	None	1
3.0.1	2019_Mar_13_0906	s	s	15	3	SIC	217	3_2	3	2	2	1	23_2_1	1	-1	1	0	0.926403045654	293.0	-8.0	296.0	-9.0	1
3.0.1	2019_Mar_13_0906	s	s	15	3	SIC	218	ABS	0	0	4	3	24_4_3	NA	NA	0	1	2.15755605698	None	None	None	None	1
3.0.1	2019_Mar_13_0906	s	s	15	3	SIC	219	ABS	0	0	3	1	24_3_1	NA	NA	0	1	0.899561882019	None	None	None	None	1
3.0.1	2019_Mar_13_0906	s	s	15	3	SIC	220	ABS	0	0	3	3	24_3_3	NA	NA	0	1	1.08428096771	None	None	None	None	1
3.0.1	2019_Mar_13_0906	s	s	15	3	SIC	221	4_3	4	3	3	2	23_3_2	1	1	1	0	0.481485128403	285.0	33.0	274.0	34.0	1
3.0.1	2019_Mar_13_0906	s	s	15	3	SIC	222	2_1	2	1	4	1	23_4_1	2	0	1	0	0.446269989014	505.0	-367.0	496.0	-371.0	1
3.0.1	2019_Mar_13_0906	s	s	15	3	SIC	223	ABS	0	0	1	2	24_1_2	NA	NA	0	1	1.02543902397	None	None	None	None	1
3.0.1	2019_Mar_13_0906	s	s	15	3	SIC	224	ABS	0	0	3	1	24_3_1	NA	NA	0	1	0.839803934097	None	None	None	None	1
3.0.1	2019_Mar_13_0906	s	s	15	3	SIC	225	3_3	3	3	4	2	23_4_2	-1	1	1	0	0.437341928482	284.0	-145.0	284.0	-137.0	1
3.0.1	2019_Mar_13_0906	s	s	15	3	SIC	226	2_3	2	3	1	2	23_1_2	-1	1	1	0	0.587406873703	88.0	2.0	94.0	1.0	1
3.0.1	2019_Mar_13_0906	s	s	15	3	SIC	227	3_4	3	4	2	2	23_2_2	1	2	1	0	0.646148204803	-309.0	-258.0	-307.0	-253.0	1
3.0.1	2019_Mar_13_0906	s	s	15	3	SIC	228	ABS	0	0	4	3	24_4_3	NA	NA	0	1	1.89750599861	None	None	None	None	1
3.0.1	2019_Mar_13_0906	s	s	15	3	SIC	229	ABS	0	0	2	2	24_2_2	NA	NA	0	1	1.21075296402	None	None	None	None	1
3.0.1	2019_Mar_13_0906	s	s	15	3	SIC	230	1_2	1	2	1	4	23_1_4	0	2	1	0	0.744916915894	-244.0	-30.0	-248.0	-33.0	1
3.0.1	2019_Mar_13_0906	s	s	15	3	SIC	231	ABS	0	0	1	2	24_1_2	NA	NA	0	1	1.32834911346	None	None	None	None	1
3.0.1	2019_Mar_13_0906	s	s	15	3	SIC	232	ABS	0	0	1	4	24_1_4	NA	NA	0	1	1.34011483192	None	None	None	None	1
3.0.1	2019_Mar_13_0906	s	s	15	3	SIC	233	3_2	3	2	1	1	23_1_1	2	-1	1	0	0.48700594902	107.0	126.0	119.0	128.0	1
3.0.1	2019_Mar_13_0906	s	s	15	3	SIC	234	4_2	4	2	1	2	23_1_2	3	0	1	0	0.446620941162	116.0	-296.0	110.0	-287.0	1
3.0.1	2019_Mar_13_0906	s	s	15	3	SIC	235	ABS	0	0	3	2	24_3_2	NA	NA	0	1	1.08428192139	None	None	None	None	1
3.0.1	2019_Mar_13_0906	s	s	15	3	SIC	236	ABS	0	0	1	4	24_1_4	NA	NA	0	1	1.46947002411	None	None	None	None	1
3.0.1	2019_Mar_13_0906	s	s	15	3	SIC	237	3_2	3	2	4	1	23_4_1	-1	-1	1	0	0.519487857819	183.0	-183.0	184.0	-179.0	1
3.0.1	2019_Mar_13_0906	s	s	15	3	SIC	238	1_4	1	4	3	2	23_3_2	2	2	1	0	0.505057811737	157.0	108.0	154.0	107.0	1
3.0.1	2019_Mar_13_0906	s	s	15	3	SIC	239	1_1	1	1	2	1	23_2_1	1	0	0	1	0.886294126511	-229.0	65.0	None	None	0
3.0.1	2019_Mar_13_0906	s	s	15	3	SIC	240	ABS	0	0	3	2	24_3_2	NA	NA	0	1	1.06973099709	None	None	None	None	1
3.0.1	2019_Mar_13_0906	s	s	15	3	SIC	241	4_1	4	1	4	4	23_4_4	0	3	1	0	0.839067935944	498.0	-286.0	493.0	-285.0	1
3.0.1	2019_Mar_13_0906	s	s	15	3	SIC	242	ABS	0	0	2	3	24_2_3	NA	NA	0	1	2.69264602661	None	None	None	None	1
3.0.1	2019_Mar_13_0906	s	s	15	3	SIC	243	ABS	0	0	2	4	24_2_4	NA	NA	0	1	2.81599402428	None	None	None	None	1
3.0.1	2019_Mar_13_0906	s	s	15	3	SIC	244	ABS	0	0	4	2	24_4_2	NA	NA	0	1	1.91636705399	None	None	None	None	1
3.0.1	2019_Mar_13_0906	s	s	15	3	SIC	245	ABS	0	0	4	3	24_4_3	NA	NA	0	1	0.921357870102	None	None	None	None	1
3.0.1	2019_Mar_13_0906	s	s	15	3	SIC	246	2_4	2	4	4	1	23_4_1	2	3	1	0	0.545234918594	-158.0	345.0	-159.0	355.0	1
3.0.1	2019_Mar_13_0906	s	s	15	3	SIC	247	3_1	3	1	4	4	23_4_4	-1	3	1	0	0.486764907837	-165.0	303.0	-163.0	297.0	1
3.0.1	2019_Mar_13_0906	s	s	15	3	SIC	248	1_3	1	3	3	3	23_3_3	2	0	1	0	0.560384988785	-44.0	-375.0	-47.0	-381.0	1
3.0.1	2019_Mar_13_0906	s	s	15	3	SIC	249	4_4	4	4	3	3	23_3_3	1	1	1	0	0.528599977493	371.0	68.0	371.0	68.0	1
3.0.1	2019_Mar_13_0906	s	s	15	3	SIC	250	ABS	0	0	4	4	24_4_4	NA	NA	0	1	0.907876968384	None	None	None	None	1
3.0.1	2019_Mar_13_0906	s	s	15	3	SIC	251	4_3	4	3	2	2	23_2_2	2	1	1	0	0.496202945709	482.0	307.0	476.0	298.0	1
3.0.1	2019_Mar_13_0906	s	s	15	3	SIC	252	4_2	4	2	4	3	23_4_3	0	1	0	1	1.41068196297	-116.0	239.0	None	None	0
3.0.1	2019_Mar_13_0906	s	s	15	3	SIC	253	ABS	0	0	4	1	24_4_1	NA	NA	0	1	0.992188930511	None	None	None	None	1
3.0.1	2019_Mar_13_0906	s	s	15	3	SIC	254	2_1	2	1	3	1	23_3_1	1	0	1	0	0.82260799408	421.0	-104.0	426.0	-100.0	1
3.0.1	2019_Mar_13_0906	s	s	15	3	SIC	255	ABS	0	0	2	3	24_2_3	NA	NA	0	1	0.987248897552	None	None	None	None	1
3.0.1	2019_Mar_13_0906	s	s	15	3	SIC	256	ABS	0	0	3	1	24_3_1	NA	NA	0	1	0.858352899551	None	None	None	None	1
3.0.1	2019_Mar_13_0906	s	s	15	3	SIC	257	2_1	2	1	2	3	23_2_3	0	2	1	0	1.18732500076	486.0	-371.0	491.0	-374.0	1
3.0.1	2019_Mar_13_0906	s	s	15	3	SIC	258	2_3	2	3	2	4	23_2_4	0	-1	1	0	1.30846405029	78.0	317.0	71.0	315.0	1
3.0.1	2019_Mar_13_0906	s	s	15	3	SIC	259	ABS	0	0	1	4	24_1_4	NA	NA	0	1	0.987307071686	None	None	None	None	1
3.0.1	2019_Mar_13_0906	s	s	15	3	SIC	260	3_1	3	1	3	4	23_3_4	0	3	1	0	0.52855014801	-163.0	-6.0	-166.0	-5.0	1
3.0.1	2019_Mar_13_0906	s	s	15	3	SIC	261	ABS	0	0	4	4	24_4_4	NA	NA	0	1	0.940191984177	None	None	None	None	1
3.0.1	2019_Mar_13_0906	s	s	15	3	SIC	262	ABS	0	0	2	4	24_2_4	NA	NA	0	1	0.940243005753	None	None	None	None	1
3.0.1	2019_Mar_13_0906	s	s	15	3	SIC	263	ABS	0	0	3	4	24_3_4	NA	NA	0	1	0.87637591362	None	None	None	None	1
3.0.1	2019_Mar_13_0906	s	s	15	3	SIC	264	ABS	0	0	3	1	24_3_1	NA	NA	0	1	1.29296898842	None	None	None	None	1
3.0.1	2019_Mar_13_0906	s	s	15	3	SIC	265	ABS	0	0	4	2	24_4_2	NA	NA	0	1	1.09642004967	None	None	None	None	1
3.0.1	2019_Mar_13_0906	s	s	15	3	SIC	266	2_2	2	2	1	3	23_1_3	-1	1	0	1	2.51621699333	-24.0	317.0	None	None	0
3.0.1	2019_Mar_13_0906	s	s	15	3	SIC	267	3_4	3	4	3	3	23_3_3	0	1	1	0	1.46468496323	439.0	152.0	446.0	150.0	1
3.0.1	2019_Mar_13_0906	s	s	15	3	SIC	268	ABS	0	0	3	2	24_3_2	NA	NA	0	1	1.39892315865	None	None	None	None	1
3.0.1	2019_Mar_13_0906	s	s	15	3	SIC	269	ABS	0	0	4	1	24_4_1	NA	NA	0	1	1.01471710205	None	None	None	None	1
3.0.1	2019_Mar_13_0906	s	s	15	3	SIC	270	3_1	3	1	4	1	23_4_1	-1	0	1	0	0.545861959457	205.0	88.0	208.0	98.0	1
3.0.1	2019_Mar_13_0906	s	s	15	3	SIC	271	ABS	0	0	4	4	24_4_4	NA	NA	1	0	0.916965961456	None	None	183.0	304.0	0
3.0.1	2019_Mar_13_0906	s	s	15	3	SIC	272	ABS	0	0	4	4	24_4_4	NA	NA	0	1	1.68578290939	None	None	None	None	1
3.0.1	2019_Mar_13_0906	s	s	15	3	SIC	273	ABS	0	0	2	2	24_2_2	NA	NA	0	1	3.05106806755	None	None	None	None	1
3.0.1	2019_Mar_13_0906	s	s	15	3	SIC	274	ABS	0	0	3	3	24_3_3	NA	NA	0	1	1.23461079597	None	None	None	None	1
3.0.1	2019_Mar_13_0906	s	s	15	3	SIC	275	4_1	4	1	3	3	23_3_3	1	2	1	0	0.486672878265	-338.0	199.0	-338.0	195.0	1
3.0.1	2019_Mar_13_0906	s	s	15	3	SIC	276	2_2	2	2	2	1	23_2_1	0	-1	0	1	1.13349485397	438.0	-386.0	None	None	0
3.0.1	2019_Mar_13_0906	s	s	15	3	SIC	277	1_2	1	2	4	2	23_4_2	3	0	1	0	0.458033084869	-415.0	71.0	-414.0	63.0	1
3.0.1	2019_Mar_13_0906	s	s	15	3	SIC	278	ABS	0	0	3	4	24_3_4	NA	NA	0	1	1.2508289814	None	None	None	None	1
3.0.1	2019_Mar_13_0906	s	s	15	3	SIC	279	1_3	1	3	4	1	23_4_1	3	2	1	0	0.429038047791	-51.0	-395.0	-41.0	-397.0	1
3.0.1	2019_Mar_13_0906	s	s	15	3	SIC	280	1_1	1	1	3	2	23_3_2	2	1	1	0	0.768869876862	-244.0	-244.0	-244.0	-235.0	1
3.0.1	2019_Mar_13_0906	s	s	15	3	SIC	281	ABS	0	0	3	2	24_3_2	NA	NA	0	1	1.41057395935	None	None	None	None	1
3.0.1	2019_Mar_13_0906	s	s	15	3	SIC	282	1_2	1	2	4	1	23_4_1	3	-1	1	0	0.481534957886	-269.0	231.0	-265.0	231.0	1
3.0.1	2019_Mar_13_0906	s	s	15	3	SIC	283	ABS	0	0	4	1	24_4_1	NA	NA	0	1	0.681459903717	None	None	None	None	1
3.0.1	2019_Mar_13_0906	s	s	15	3	SIC	284	4_3	4	3	1	2	23_1_2	3	1	1	0	0.458009958267	112.0	-253.0	106.0	-254.0	1
3.0.1	2019_Mar_13_0906	s	s	15	3	SIC	285	2_2	2	2	4	1	23_4_1	2	-1	1	0	0.493626832962	-104.0	204.0	-104.0	204.0	1
3.0.1	2019_Mar_13_0906	s	s	15	3	SIC	286	3_4	3	4	3	1	23_3_1	0	3	1	0	0.53303694725	199.0	-12.0	189.0	-10.0	1
3.0.1	2019_Mar_13_0906	s	s	15	3	SIC	287	4_1	4	1	2	3	23_2_3	2	2	1	0	0.521694898605	362.0	140.0	362.0	146.0	1
3.0.1	2019_Mar_13_0906	s	s	15	3	SIC	288	1_2	1	2	2	3	23_2_3	1	1	0	1	1.30966711044	-412.0	150.0	None	None	0
3.0.1	2019_Mar_13_0906	s	s	15	3	SIC	289	ABS	0	0	2	1	24_2_1	NA	NA	0	1	1.39901900291	None	None	None	None	1
3.0.1	2019_Mar_13_0906	s	s	15	3	SIC	290	4_3	4	3	3	1	23_3_1	1	2	1	0	0.693198919296	246.0	-227.0	246.0	-231.0	1
3.0.1	2019_Mar_13_0906	s	s	15	3	SIC	291	ABS	0	0	3	2	24_3_2	NA	NA	0	1	0.837646007538	None	None	None	None	1
3.0.1	2019_Mar_13_0906	s	s	15	3	SIC	292	2_3	2	3	3	3	23_3_3	1	0	1	0	0.568837881088	-191.0	228.0	-186.0	223.0	1
3.0.1	2019_Mar_13_0906	s	s	15	3	SIC	293	1_1	1	1	2	3	23_2_3	1	2	1	0	0.885377883911	-432.0	246.0	-421.0	254.0	1
3.0.1	2019_Mar_13_0906	s	s	15	3	SIC	294	ABS	0	0	3	2	24_3_2	NA	NA	0	1	1.2108130455	None	None	None	None	1
3.0.1	2019_Mar_13_0906	s	s	15	3	SIC	295	3_2	3	2	2	2	23_2_2	1	0	1	0	1.01079702377	409.0	-231.0	403.0	-230.0	1
3.0.1	2019_Mar_13_0906	s	s	15	3	SIC	296	2_4	2	4	3	4	23_3_4	1	0	1	0	0.792442083359	-296.0	-175.0	-287.0	-175.0	1
3.0.1	2019_Mar_13_0906	s	s	15	3	SIC	297	3_1	3	1	3	3	23_3_3	0	2	1	0	1.81713104248	-352.0	-125.0	-343.0	-121.0	1
3.0.1	2019_Mar_13_0906	s	s	15	3	SIC	298	4_1	4	1	2	2	23_2_2	2	1	1	0	0.446308135986	71.0	375.0	62.0	373.0	1
3.0.1	2019_Mar_13_0906	s	s	15	3	SIC	299	2_4	2	4	3	3	23_3_3	1	1	1	0	0.543200969696	-277.0	39.0	-282.0	47.0	1
3.0.1	2019_Mar_13_0906	s	s	15	3	SIC	300	ABS	0	0	3	3	24_3_3	NA	NA	0	1	1.24605298042	None	None	None	None	1
3.0.1	2019_Mar_13_0906	s	s	15	3	SIC	301	ABS	0	0	3	1	24_3_1	NA	NA	0	1	1.42249894142	None	None	None	None	1
3.0.1	2019_Mar_13_0906	s	s	15	3	SIC	302	ABS	0	0	2	4	24_2_4	NA	NA	0	1	1.23421907425	None	None	None	None	1
3.0.1	2019_Mar_13_0906	s	s	15	3	SIC	303	ABS	0	0	3	4	24_3_4	NA	NA	0	1	1.05250096321	None	None	None	None	1
3.0.1	2019_Mar_13_0906	s	s	15	3	SIC	304	4_1	4	1	3	2	23_3_2	1	1	1	0	0.458002090454	471.0	383.0	468.0	376.0	1
3.0.1	2019_Mar_13_0906	s	s	15	3	SIC	305	3_1	3	1	4	2	23_4_2	-1	1	1	0	0.516755819321	-437.0	158.0	-435.0	153.0	1
3.0.1	2019_Mar_13_0906	s	s	15	3	SIC	306	2_1	2	1	4	3	23_4_3	2	2	1	0	0.393097877502	159.0	363.0	158.0	355.0	1
3.0.1	2019_Mar_13_0906	s	s	15	3	SIC	307	3_4	3	4	1	4	23_1_4	2	0	1	0	1.10483193398	-15.0	-380.0	-20.0	-382.0	1
3.0.1	2019_Mar_13_0906	s	s	15	3	SIC	308	ABS	0	0	2	1	24_2_1	NA	NA	0	1	0.956969022751	None	None	None	None	1
3.0.1	2019_Mar_13_0906	s	s	15	3	SIC	309	2_4	2	4	3	2	23_3_2	1	2	1	0	0.464051961899	11.0	-216.0	-3.0	-209.0	1
3.0.1	2019_Mar_13_0906	s	s	15	3	SIC	310	ABS	0	0	4	2	24_4_2	NA	NA	0	1	1.04066896439	None	None	None	None	1
3.0.1	2019_Mar_13_0906	s	s	15	3	SIC	311	ABS	0	0	3	3	24_3_3	NA	NA	0	1	2.21576595306	None	None	None	None	1
3.0.1	2019_Mar_13_0906	s	s	15	3	SIC	312	1_2	1	2	2	2	23_2_2	1	0	0	1	1.33123517036	-244.0	332.0	None	None	0
3.0.1	2019_Mar_13_0906	s	s	15	3	SIC	313	3_3	3	3	1	2	23_1_2	2	1	1	0	0.613847017288	511.0	35.0	503.0	43.0	1
3.0.1	2019_Mar_13_0906	s	s	15	3	SIC	314	ABS	0	0	1	3	24_1_3	NA	NA	0	1	1.17540812492	None	None	None	None	1
3.0.1	2019_Mar_13_0906	s	s	15	3	SIC	315	4_1	4	1	1	3	23_1_3	3	2	1	0	0.469798088074	131.0	258.0	130.0	259.0	1
3.0.1	2019_Mar_13_0906	s	s	15	3	SIC	316	4_4	4	4	1	1	23_1_1	3	3	1	0	0.42271399498	203.0	174.0	203.0	175.0	1
3.0.1	2019_Mar_13_0906	s	s	15	3	SIC	317	4_3	4	3	1	4	23_1_4	3	-1	1	0	0.462848901749	326.0	140.0	337.0	145.0	1
3.0.1	2019_Mar_13_0906	s	s	15	3	SIC	318	3_2	3	2	1	4	23_1_4	2	2	1	0	0.427409887314	195.0	136.0	195.0	131.0	1
3.0.1	2019_Mar_13_0906	s	s	15	3	SIC	319	ABS	0	0	1	2	24_1_2	NA	NA	0	1	1.86955285072	None	None	None	None	1
3.0.1	2019_Mar_13_0906	s	s	15	3	SIC	320	ABS	0	0	1	2	24_1_2	NA	NA	0	1	1.6191649437	None	None	None	None	1
3.0.1	2019_Mar_13_0906	s	s	15	3	SIC	321	ABS	0	0	3	3	24_3_3	NA	NA	0	1	1.09133982658	None	None	None	None	1
3.0.1	2019_Mar_13_0906	s	s	15	3	SIC	322	2_1	2	1	3	3	23_3_3	1	2	1	0	0.606886863708	-296.0	-276.0	-298.0	-278.0	1
3.0.1	2019_Mar_13_0906	s	s	15	3	SIC	323	2_3	2	3	4	3	23_4_3	2	0	1	0	0.446246147156	389.0	163.0	400.0	170.0	1
3.0.1	2019_Mar_13_0906	s	s	15	3	SIC	324	ABS	0	0	2	3	24_2_3	NA	NA	0	1	1.37869715691	None	None	None	None	1
3.0.1	2019_Mar_13_0906	s	s	15	3	SIC	325	3_2	3	2	2	4	23_2_4	1	2	1	0	0.457921028137	92.0	133.0	94.0	142.0	1
3.0.1	2019_Mar_13_0906	s	s	15	3	SIC	326	3_3	3	3	1	3	23_1_3	2	0	1	0	0.528588056564	512.0	140.0	523.0	141.0	1
3.0.1	2019_Mar_13_0906	s	s	15	3	SIC	327	ABS	0	0	4	2	24_4_2	NA	NA	0	1	0.722129106522	None	None	None	None	1
3.0.1	2019_Mar_13_0906	s	s	15	3	SIC	328	3_4	3	4	1	2	23_1_2	2	2	1	0	0.540349006653	326.0	302.0	318.0	304.0	1
3.0.1	2019_Mar_13_0906	s	s	15	3	SIC	329	ABS	0	0	4	3	24_4_3	NA	NA	0	1	1.18717598915	None	None	None	None	1
3.0.1	2019_Mar_13_0906	s	s	15	3	SIC	330	3_3	3	3	3	4	23_3_4	0	-1	1	0	1.38473796844	-430.0	368.0	-435.0	357.0	1
3.0.1	2019_Mar_13_0906	s	s	15	3	SIC	331	3_1	3	1	1	2	23_1_2	2	1	1	0	0.775572061539	-152.0	-340.0	-153.0	-353.0	1
3.0.1	2019_Mar_13_0906	s	s	15	3	SIC	332	2_3	2	3	1	3	23_1_3	-1	0	0	1	1.30477380753	-251.0	403.0	None	None	0
3.0.1	2019_Mar_13_0906	s	s	15	3	SIC	333	2_3	2	3	4	1	23_4_1	2	2	1	0	0.46973991394	-415.0	325.0	-417.0	323.0	1
3.0.1	2019_Mar_13_0906	s	s	15	3	SIC	334	ABS	0	0	2	2	24_2_2	NA	NA	0	1	0.842756032944	None	None	None	None	1
3.0.1	2019_Mar_13_0906	s	s	15	3	SIC	335	ABS	0	0	1	1	24_1_1	NA	NA	0	1	0.848906993866	None	None	None	None	1
3.0.1	2019_Mar_13_0906	s	s	15	3	SIC	336	ABS	0	0	4	2	24_4_2	NA	NA	0	1	2.9043340683	None	None	None	None	1
3.0.1	2019_Mar_13_0906	s	s	15	3	SIC	337	ABS	0	0	2	1	24_2_1	NA	NA	0	1	1.07253313065	None	None	None	None	1
3.0.1	2019_Mar_13_0906	s	s	15	3	SIC	338	1_3	1	3	2	4	23_2_4	1	-1	1	0	1.14652490616	146.0	-370.0	141.0	-368.0	1
3.0.1	2019_Mar_13_0906	s	s	15	3	SIC	339	2_3	2	3	4	2	23_4_2	2	1	1	0	0.437399864197	538.0	-5.0	540.0	-7.0	1
3.0.1	2019_Mar_13_0906	s	s	15	3	SIC	340	4_2	4	2	1	3	23_1_3	3	1	1	0	0.498245954514	-322.0	142.0	-329.0	144.0	1
3.0.1	2019_Mar_13_0906	s	s	15	3	SIC	341	ABS	0	0	4	1	24_4_1	NA	NA	0	1	1.57983899117	None	None	None	None	1
3.0.1	2019_Mar_13_0906	s	s	15	3	SIC	342	2_4	2	4	1	1	23_1_1	-1	3	1	0	0.481552839279	-260.0	183.0	-255.0	183.0	1
3.0.1	2019_Mar_13_0906	s	s	15	3	SIC	343	2_4	2	4	1	2	23_1_2	-1	2	1	0	0.51686000824	175.0	21.0	174.0	10.0	1
3.0.1	2019_Mar_13_0906	s	s	15	3	SIC	344	ABS	0	0	1	3	24_1_3	NA	NA	0	1	1.25092101097	None	None	None	None	1
3.0.1	2019_Mar_13_0906	s	s	15	3	SIC	345	1_4	1	4	2	1	23_2_1	1	3	1	0	0.561010837555	-440.0	-227.0	-441.0	-226.0	1
3.0.1	2019_Mar_13_0906	s	s	15	3	SIC	346	ABS	0	0	4	1	24_4_1	NA	NA	0	1	0.893227815628	None	None	None	None	1
3.0.1	2019_Mar_13_0906	s	s	15	3	SIC	347	ABS	0	0	2	4	24_2_4	NA	NA	0	1	1.51642417908	None	None	None	None	1
3.0.1	2019_Mar_13_0906	s	s	15	3	SIC	348	2_4	2	4	4	2	23_4_2	2	2	1	0	0.404191970825	-190.0	-23.0	-174.0	-15.0	1
3.0.1	2019_Mar_13_0906	s	s	15	3	SIC	349	ABS	0	0	3	2	24_3_2	NA	NA	0	1	0.646113872528	None	None	None	None	1
3.0.1	2019_Mar_13_0906	s	s	15	3	SIC	350	ABS	0	0	3	4	24_3_4	NA	NA	0	1	0.966683864594	None	None	None	None	1
3.0.1	2019_Mar_13_0906	s	s	15	3	SIC	351	ABS	0	0	3	3	24_3_3	NA	NA	0	1	0.940235853195	None	None	None	None	1
3.0.1	2019_Mar_13_0906	s	s	15	3	SIC	352	4_2	4	2	4	1	23_4_1	0	-1	0	1	0.839559078217	475.0	-269.0	None	None	0
3.0.1	2019_Mar_13_0906	s	s	15	3	SIC	353	3_4	3	4	1	3	23_1_3	2	1	1	0	0.469810009003	-222.0	319.0	-225.0	314.0	1
3.0.1	2019_Mar_13_0906	s	s	15	3	SIC	354	4_2	4	2	4	4	23_4_4	0	2	0	1	0.99384188652	145.0	-368.0	None	None	0
3.0.1	2019_Mar_13_0906	s	s	15	3	SIC	355	1_1	1	1	4	2	23_4_2	3	1	1	0	0.446173906326	-447.0	28.0	-458.0	33.0	1
3.0.1	2019_Mar_13_0906	s	s	15	3	SIC	356	4_4	4	4	1	3	23_1_3	3	1	1	0	0.519534111023	473.0	383.0	469.0	387.0	1
3.0.1	2019_Mar_13_0906	s	s	15	3	SIC	357	4_4	4	4	3	4	23_3_4	1	0	1	0	0.474031925201	482.0	55.0	475.0	48.0	1
3.0.1	2019_Mar_13_0906	s	s	15	3	SIC	358	1_4	1	4	3	4	23_3_4	2	0	1	0	0.90784406662	85.0	-403.0	81.0	-400.0	1
3.0.1	2019_Mar_13_0906	s	s	15	3	SIC	359	3_3	3	3	2	1	23_2_1	1	2	1	0	1.03437614441	-284.0	406.0	-292.0	405.0	1
3.0.1	2019_Mar_13_0906	s	s	15	3	SIC	360	2_2	2	2	2	4	23_2_4	0	2	1	0	1.20283603668	474.0	370.0	475.0	371.0	1
3.0.1	2019_Mar_13_0906	s	s	15	3	SIC	361	3_4	3	4	1	1	23_1_1	2	3	1	0	0.59162902832	-66.0	-291.0	-74.0	-291.0	1
3.0.1	2019_Mar_13_0906	s	s	15	3	SIC	362	1_3	1	3	4	2	23_4_2	3	1	1	0	0.451312065125	366.0	302.0	362.0	312.0	1
3.0.1	2019_Mar_13_0906	s	s	15	3	SIC	363	3_3	3	3	3	2	23_3_2	0	1	0	1	1.15199708939	-95.0	407.0	None	None	0
3.0.1	2019_Mar_13_0906	s	s	15	3	SIC	364	1_2	1	2	1	1	23_1_1	0	-1	0	1	1.08140397072	-441.0	-309.0	None	None	0
3.0.1	2019_Mar_13_0906	s	s	15	3	SIC	365	ABS	0	0	3	3	24_3_3	NA	NA	0	1	1.34011387825	None	None	None	None	1
3.0.1	2019_Mar_13_0906	s	s	15	3	SIC	366	1_4	1	4	1	3	23_1_3	0	1	1	0	0.622684001923	-383.0	-127.0	-388.0	-126.0	1
3.0.1	2019_Mar_13_0906	s	s	15	3	SIC	367	3_1	3	1	3	2	23_3_2	0	1	0	1	0.840887069702	210.0	165.0	None	None	0
3.0.1	2019_Mar_13_0906	s	s	15	3	SIC	368	ABS	0	0	1	1	24_1_1	NA	NA	0	1	0.681394100189	None	None	None	None	1
3.0.1	2019_Mar_13_0906	s	s	15	3	SIC	369	1_1	1	1	4	4	23_4_4	3	3	1	0	0.474393129349	-355.0	377.0	-350.0	378.0	1
3.0.1	2019_Mar_13_0906	s	s	15	3	SIC	370	3_4	3	4	4	4	23_4_4	-1	0	1	0	0.580805063248	-406.0	123.0	-408.0	120.0	1
3.0.1	2019_Mar_13_0906	s	s	15	3	SIC	371	4_2	4	2	2	1	23_2_1	2	-1	1	0	0.469763994217	257.0	400.0	254.0	388.0	1
3.0.1	2019_Mar_13_0906	s	s	15	3	SIC	372	ABS	0	0	1	1	24_1_1	NA	NA	0	1	0.914880990982	None	None	None	None	1
3.0.1	2019_Mar_13_0906	s	s	15	3	SIC	373	ABS	0	0	2	1	24_2_1	NA	NA	0	1	1.01716017723	None	None	None	None	1
3.0.1	2019_Mar_13_0906	s	s	15	3	SIC	374	4_3	4	3	4	2	23_4_2	0	1	0	1	1.84062314034	234.0	392.0	None	None	0
3.0.1	2019_Mar_13_0906	s	s	15	3	SIC	375	ABS	0	0	4	4	24_4_4	NA	NA	0	1	1.37829208374	None	None	None	None	1
3.0.1	2019_Mar_13_0906	s	s	15	3	SIC	376	4_4	4	4	1	2	23_1_2	3	2	1	0	0.460700035095	466.0	188.0	470.0	183.0	1
3.0.1	2019_Mar_13_0906	s	s	15	3	SIC	377	3_2	3	2	3	4	23_3_4	0	2	1	0	0.893232107162	-159.0	60.0	-159.0	62.0	1
3.0.1	2019_Mar_13_0906	s	s	15	3	SIC	378	ABS	0	0	4	1	24_4_1	NA	NA	0	1	0.999044895172	None	None	None	None	1
3.0.1	2019_Mar_13_0906	s	s	15	3	SIC	379	4_1	4	1	1	2	23_1_2	3	1	1	0	0.446194887161	103.0	294.0	111.0	290.0	1
3.0.1	2019_Mar_13_0906	s	s	15	3	SIC	380	ABS	0	0	3	1	24_3_1	NA	NA	0	1	0.82746887207	None	None	None	None	1
3.0.1	2019_Mar_13_0906	s	s	15	3	SIC	381	1_4	1	4	3	1	23_3_1	2	3	1	0	0.497184991837	-27.0	359.0	-29.0	362.0	1
3.0.1	2019_Mar_13_0906	s	s	15	3	SIC	382	2_1	2	1	1	4	23_1_4	-1	3	1	0	0.933314085007	-486.0	-333.0	-481.0	-341.0	1
3.0.1	2019_Mar_13_0906	s	s	15	3	SIC	383	2_1	2	1	1	1	23_1_1	-1	0	0	1	0.81541800499	189.0	176.0	None	None	0
3.0.1	2019_Mar_13_0906	s	s	15	3	SIC	384	1_1	1	1	1	2	23_1_2	0	1	0	1	1.06961894035	377.0	-128.0	None	None	0
3.0.1	2019_Mar_13_0906	s	s	15	3	SIC	385	2_1	2	1	2	2	23_2_2	0	1	0	1	2.46918201447	95.0	-19.0	None	None	0
3.0.1	2019_Mar_13_0906	s	s	15	3	SIC	386	ABS	0	0	4	1	24_4_1	NA	NA	0	1	1.61574888229	None	None	None	None	1
3.0.1	2019_Mar_13_0906	s	s	15	3	SIC	387	ABS	0	0	2	2	24_2_2	NA	NA	0	1	2.29785180092	None	None	None	None	1
3.0.1	2019_Mar_13_0906	s	s	15	3	SIC	388	ABS	0	0	1	2	24_1_2	NA	NA	0	1	1.47365999222	None	None	None	None	1
3.0.1	2019_Mar_13_0906	s	s	15	3	SIC	389	ABS	0	0	3	1	24_3_1	NA	NA	0	1	1.16662597656	None	None	None	None	1
3.0.1	2019_Mar_13_0906	s	s	15	3	SIC	390	2_4	2	4	2	3	23_2_3	0	1	1	0	0.763798952103	-56.0	295.0	-61.0	287.0	1
3.0.1	2019_Mar_13_0906	s	s	15	3	SIC	391	2_2	2	2	4	4	23_4_4	2	2	1	0	0.469763994217	296.0	72.0	291.0	75.0	1
3.0.1	2019_Mar_13_0906	s	s	15	3	SIC	392	ABS	0	0	4	4	24_4_4	NA	NA	0	1	0.987230062485	None	None	None	None	1
3.0.1	2019_Mar_13_0906	s	s	15	3	SIC	393	4_2	4	2	3	4	23_3_4	1	2	1	0	0.457990884781	226.0	-298.0	216.0	-297.0	1
3.0.1	2019_Mar_13_0906	s	s	15	3	SIC	394	ABS	0	0	3	3	24_3_3	NA	NA	0	1	1.04882502556	None	None	None	None	1
3.0.1	2019_Mar_13_0906	s	s	15	3	SIC	395	ABS	0	0	4	3	24_4_3	NA	NA	0	1	0.951929092407	None	None	None	None	1
3.0.1	2019_Mar_13_0906	s	s	15	3	SIC	396	ABS	0	0	2	1	24_2_1	NA	NA	0	1	1.05815792084	None	None	None	None	1
3.0.1	2019_Mar_13_0906	s	s	15	3	SIC	397	1_2	1	2	2	4	23_2_4	1	2	1	0	0.693170070648	197.0	397.0	208.0	404.0	1
3.0.1	2019_Mar_13_0906	s	s	15	3	SIC	398	ABS	0	0	1	2	24_1_2	NA	NA	0	1	2.23407697678	None	None	None	None	1
3.0.1	2019_Mar_13_0906	s	s	15	3	SIC	399	ABS	0	0	4	1	24_4_1	NA	NA	0	1	1.3048620224	None	None	None	None	1
3.0.1	2019_Mar_13_0906	s	s	15	3	SIC	400	2_3	2	3	2	1	23_2_1	0	2	1	0	1.12837314606	-364.0	-126.0	-357.0	-123.0	1
3.0.1	2019_Mar_13_0906	s	s	15	3	SIC	401	1_2	1	2	4	4	23_4_4	3	2	1	0	0.510558128357	380.0	-150.0	379.0	-152.0	1
3.0.1	2019_Mar_13_0906	s	s	15	3	SIC	402	1_2	1	2	4	3	23_4_3	3	1	1	0	0.560220003128	-457.0	397.0	-458.0	396.0	1
3.0.1	2019_Mar_13_0906	s	s	15	3	SIC	403	ABS	0	0	3	1	24_3_1	NA	NA	0	1	1.58013606071	None	None	None	None	1
3.0.1	2019_Mar_13_0906	s	s	15	3	SIC	404	1_1	1	1	4	3	23_4_3	3	2	1	0	0.434490203857	-32.0	-193.0	-33.0	-198.0	1
3.0.1	2019_Mar_13_0906	s	s	15	3	SIC	405	ABS	0	0	4	4	24_4_4	NA	NA	0	1	0.978461027145	None	None	None	None	1
3.0.1	2019_Mar_13_0906	s	s	15	3	SIC	406	1_3	1	3	3	2	23_3_2	2	1	1	0	0.437373876572	279.0	-245.0	271.0	-245.0	1
3.0.1	2019_Mar_13_0906	s	s	15	3	SIC	407	ABS	0	0	4	3	24_4_3	NA	NA	0	1	1.02543902397	None	None	None	None	1
3.0.1	2019_Mar_13_0906	s	s	15	3	SIC	408	ABS	0	0	2	2	24_2_2	NA	NA	0	1	1.77986812592	None	None	None	None	1
3.0.1	2019_Mar_13_0906	s	s	15	3	SIC	409	3_4	3	4	2	1	23_2_1	1	3	1	0	0.540343999863	29.0	-237.0	36.0	-236.0	1
3.0.1	2019_Mar_13_0906	s	s	15	3	SIC	410	ABS	0	0	3	1	24_3_1	NA	NA	0	1	1.15021085739	None	None	None	None	1
3.0.1	2019_Mar_13_0906	s	s	15	3	SIC	411	4_2	4	2	2	3	23_2_3	2	1	1	0	0.469670057297	-358.0	-359.0	-363.0	-362.0	1
3.0.1	2019_Mar_13_0906	s	s	15	3	SIC	412	4_2	4	2	3	2	23_3_2	1	0	1	0	0.496164083481	-538.0	-175.0	-543.0	-175.0	1
3.0.1	2019_Mar_13_0906	s	s	15	3	SIC	413	2_1	2	1	4	4	23_4_4	2	3	1	0	0.463063001633	-166.0	36.0	-171.0	29.0	1
3.0.1	2019_Mar_13_0906	s	s	15	3	SIC	414	ABS	0	0	2	2	24_2_2	NA	NA	1	0	1.01078796387	None	None	-27.0	27.0	0
3.0.1	2019_Mar_13_0906	s	s	15	3	SIC	415	ABS	0	0	4	3	24_4_3	NA	NA	0	1	2.13309884071	None	None	None	None	1
3.0.1	2019_Mar_13_0906	s	s	15	3	SIC	416	ABS	0	0	4	1	24_4_1	NA	NA	0	1	1.32050299644	None	None	None	None	1
3.0.1	2019_Mar_13_0906	s	s	15	3	SIC	417	ABS	0	0	4	3	24_4_3	NA	NA	0	1	1.49341392517	None	None	None	None	1
3.0.1	2019_Mar_13_0906	s	s	15	3	SIC	418	3_4	3	4	4	1	23_4_1	-1	3	1	0	0.500724077225	489.0	64.0	481.0	65.0	1
3.0.1	2019_Mar_13_0906	s	s	15	3	SIC	419	ABS	0	0	4	2	24_4_2	NA	NA	0	1	0.907840013504	None	None	None	None	1
3.0.1	2019_Mar_13_0906	s	s	15	3	SIC	420	4_4	4	4	4	3	23_4_3	0	1	1	0	0.640815973282	-235.0	-115.0	-225.0	-115.0	1
3.0.1	2019_Mar_13_0906	s	s	15	3	SIC	421	4_4	4	4	2	3	23_2_3	2	1	1	0	0.46244597435	304.0	64.0	311.0	73.0	1
3.0.1	2019_Mar_13_0906	s	s	15	3	SIC	422	2_3	2	3	3	1	23_3_1	1	2	1	0	0.63441491127	239.0	348.0	238.0	345.0	1
3.0.1	2019_Mar_13_0906	s	s	15	3	SIC	423	4_2	4	2	3	3	23_3_3	1	1	1	0	0.474395036697	-147.0	-114.0	-157.0	-110.0	1
3.0.1	2019_Mar_13_0906	s	s	15	3	SIC	424	2_1	2	1	3	4	23_3_4	1	3	1	0	0.48149895668	-351.0	236.0	-342.0	235.0	1
3.0.1	2019_Mar_13_0906	s	s	15	3	SIC	425	4_3	4	3	1	3	23_1_3	3	0	1	0	0.450449943542	212.0	-248.0	212.0	-257.0	1
3.0.1	2019_Mar_13_0906	s	s	15	3	SIC	426	4_4	4	4	4	2	23_4_2	0	2	1	0	1.10495090485	459.0	135.0	467.0	137.0	1
3.0.1	2019_Mar_13_0906	s	s	15	3	SIC	427	3_1	3	1	4	3	23_4_3	-1	2	1	0	0.575581073761	-183.0	-71.0	-184.0	-73.0	1
3.0.1	2019_Mar_13_0906	s	s	15	3	SIC	428	ABS	0	0	3	1	24_3_1	NA	NA	0	1	1.38305807114	None	None	None	None	1
3.0.1	2019_Mar_13_0906	s	s	15	3	SIC	429	ABS	0	0	2	1	24_2_1	NA	NA	0	1	1.54007196426	None	None	None	None	1
3.0.1	2019_Mar_13_0906	s	s	15	3	SIC	430	3_3	3	3	2	2	23_2_2	1	1	1	0	1.16843295097	-77.0	161.0	-70.0	165.0	1
3.0.1	2019_Mar_13_0906	s	s	15	3	SIC	431	ABS	0	0	1	2	24_1_2	NA	NA	0	1	2.54265093803	None	None	None	None	1
3.0.1	2019_Mar_13_0906	s	s	15	3	SIC	432	4_4	4	4	4	1	23_4_1	0	3	1	0	0.96790099144	74.0	66.0	70.0	66.0	1
3.0.1	2019_Mar_13_0906	s	s	15	3	SIC	433	ABS	0	0	4	4	24_4_4	NA	NA	0	1	1.23928785324	None	None	None	None	1
3.0.1	2019_Mar_13_0906	s	s	15	3	SIC	434	ABS	0	0	1	2	24_1_2	NA	NA	0	1	0.775565862656	None	None	None	None	1
3.0.1	2019_Mar_13_0906	s	s	15	3	SIC	435	ABS	0	0	3	2	24_3_2	NA	NA	0	1	1.10493016243	None	None	None	None	1
3.0.1	2019_Mar_13_0906	s	s	15	3	SIC	436	2_2	2	2	1	1	23_1_1	-1	-1	0	1	0.826637983322	0.0	278.0	None	None	0
3.0.1	2019_Mar_13_0906	s	s	15	3	SIC	437	ABS	0	0	3	3	24_3_3	NA	NA	0	1	1.71654105186	None	None	None	None	1
3.0.1	2019_Mar_13_0906	s	s	15	3	SIC	438	4_1	4	1	1	1	23_1_1	3	0	1	0	0.497227907181	-273.0	155.0	-275.0	149.0	1
3.0.1	2019_Mar_13_0906	s	s	15	3	SIC	439	ABS	0	0	2	3	24_2_3	NA	NA	0	1	1.70476508141	None	None	None	None	1
3.0.1	2019_Mar_13_0906	s	s	15	3	SIC	440	ABS	0	0	4	2	24_4_2	NA	NA	0	1	1.21069288254	None	None	None	None	1
3.0.1	2019_Mar_13_0906	s	s	15	3	SIC	441	ABS	0	0	4	4	24_4_4	NA	NA	0	1	1.17584991455	None	None	None	None	1
3.0.1	2019_Mar_13_0906	s	s	15	3	SIC	442	3_2	3	2	4	4	23_4_4	-1	2	1	0	0.457985162735	28.0	-107.0	22.0	-108.0	1
3.0.1	2019_Mar_13_0906	s	s	15	3	SIC	443	1_2	1	2	1	3	23_1_3	0	1	0	1	2.09281611443	298.0	151.0	None	None	0
3.0.1	2019_Mar_13_0906	s	s	15	3	SIC	444	1_4	1	4	3	3	23_3_3	2	1	1	0	0.520731925964	196.0	294.0	194.0	286.0	1
3.0.1	2019_Mar_13_0906	s	s	15	3	SIC	445	ABS	0	0	1	1	24_1_1	NA	NA	0	1	1.22246003151	None	None	None	None	1
3.0.1	2019_Mar_13_0906	s	s	15	3	SIC	446	1_3	1	3	4	3	23_4_3	3	0	1	0	0.469787836075	-24.0	-18.0	-29.0	-14.0	1
3.0.1	2019_Mar_13_0906	s	s	15	3	SIC	447	3_3	3	3	1	1	23_1_1	2	2	1	0	0.854664087296	-539.0	-326.0	-528.0	-323.0	1
3.0.1	2019_Mar_13_0906	s	s	15	3	SIC	448	3_1	3	1	2	3	23_2_3	1	2	1	0	0.532803058624	61.0	-21.0	68.0	-21.0	1
3.0.1	2019_Mar_13_0906	s	s	15	3	SIC	449	1_3	1	3	4	4	23_4_4	3	-1	1	0	0.427387952805	-473.0	166.0	-484.0	166.0	1
3.0.1	2019_Mar_13_0906	s	s	15	3	SIC	450	2_4	2	4	3	1	23_3_1	1	3	1	0	0.481544971466	-54.0	284.0	-45.0	288.0	1
3.0.1	2019_Mar_13_0906	s	s	15	3	SIC	451	2_3	2	3	4	4	23_4_4	2	-1	1	0	0.416200876236	108.0	276.0	111.0	272.0	1
3.0.1	2019_Mar_13_0906	s	s	15	3	SIC	452	ABS	0	0	2	3	24_2_3	NA	NA	0	1	1.22244906425	None	None	None	None	1
3.0.1	2019_Mar_13_0906	s	s	15	3	SIC	453	4_1	4	1	4	2	23_4_2	0	1	0	1	1.4224190712	-210.0	366.0	None	None	0
3.0.1	2019_Mar_13_0906	s	s	15	3	SIC	454	ABS	0	0	1	4	24_1_4	NA	NA	0	1	1.30491805077	None	None	None	None	1
3.0.1	2019_Mar_13_0906	s	s	15	3	SIC	455	4_1	4	1	4	3	23_4_3	0	2	0	1	1.44209384918	95.0	-282.0	None	None	0
3.0.1	2019_Mar_13_0906	s	s	15	3	SIC	456	1_2	1	2	3	4	23_3_4	2	2	1	0	0.555041790009	446.0	236.0	443.0	236.0	1
3.0.1	2019_Mar_13_0906	s	s	15	3	SIC	457	ABS	0	0	2	4	24_2_4	NA	NA	0	1	1.08422994614	None	None	None	None	1
3.0.1	2019_Mar_13_0906	s	s	15	3	SIC	458	1_3	1	3	2	2	23_2_2	1	1	0	1	1.66276192665	500.0	404.0	None	None	0
3.0.1	2019_Mar_13_0906	s	s	15	3	SIC	459	1_2	1	2	3	1	23_3_1	2	-1	1	0	0.516793966293	13.0	-338.0	11.0	-331.0	1
3.0.1	2019_Mar_13_0906	s	s	15	3	SIC	460	ABS	0	0	3	4	24_3_4	NA	NA	0	1	1.04067516327	None	None	None	None	1
3.0.1	2019_Mar_13_0906	s	s	15	3	SIC	461	ABS	0	0	1	1	24_1_1	NA	NA	0	1	1.12834787369	None	None	None	None	1
3.0.1	2019_Mar_13_0906	s	s	15	3	SIC	462	ABS	0	0	1	4	24_1_4	NA	NA	0	1	0.952392816544	None	None	None	None	1
3.0.1	2019_Mar_13_0906	s	s	15	3	SIC	463	1_1	1	1	2	2	23_2_2	1	1	0	1	1.29793119431	-507.0	272.0	None	None	0
3.0.1	2019_Mar_13_0906	s	s	15	3	SIC	464	ABS	0	0	3	1	24_3_1	NA	NA	0	1	1.736358881	None	None	None	None	1
3.0.1	2019_Mar_13_0906	s	s	15	3	SIC	465	1_4	1	4	2	3	23_2_3	1	1	1	0	0.581339120865	-285.0	172.0	-291.0	176.0	1
3.0.1	2019_Mar_13_0906	s	s	15	3	SIC	466	ABS	0	0	2	1	24_2_1	NA	NA	0	1	1.08426189423	None	None	None	None	1
3.0.1	2019_Mar_13_0906	s	s	15	3	SIC	467	ABS	0	0	2	4	24_2_4	NA	NA	0	1	1.43711304665	None	None	None	None	1
3.0.1	2019_Mar_13_0906	s	s	15	3	SIC	468	4_2	4	2	3	1	23_3_1	1	-1	1	0	0.555992126465	368.0	282.0	372.0	282.0	1
3.0.1	2019_Mar_13_0906	s	s	15	3	SIC	469	1_1	1	1	4	1	23_4_1	3	0	1	0	0.49619102478	-520.0	203.0	-525.0	203.0	1
3.0.1	2019_Mar_13_0906	s	s	15	3	SIC	470	ABS	0	0	3	4	24_3_4	NA	NA	0	1	1.13353300095	None	None	None	None	1
3.0.1	2019_Mar_13_0906	s	s	15	3	SIC	471	ABS	0	0	3	2	24_3_2	NA	NA	0	1	1.48127198219	None	None	None	None	1
3.0.1	2019_Mar_13_0906	s	s	15	3	SIC	472	1_3	1	3	3	4	23_3_4	2	-1	1	0	0.613961935043	-455.0	-370.0	-452.0	-370.0	1
3.0.1	2019_Mar_13_0906	s	s	15	3	SIC	473	1_2	1	2	2	1	23_2_1	1	-1	1	0	1.58696198463	-234.0	122.0	-229.0	128.0	1
3.0.1	2019_Mar_13_0906	s	s	15	3	SIC	474	2_1	2	1	4	2	23_4_2	2	1	1	0	0.528562068939	445.0	238.0	454.0	234.0	1
3.0.1	2019_Mar_13_0906	s	s	15	3	SIC	475	4_4	4	4	2	2	23_2_2	2	2	1	0	0.559702157974	-331.0	-399.0	-317.0	-390.0	1
3.0.1	2019_Mar_13_0906	s	s	15	3	SIC	476	3_4	3	4	2	3	23_2_3	1	1	1	0	0.775623083115	-170.0	364.0	-166.0	364.0	1
3.0.1	2019_Mar_13_0906	s	s	15	3	SIC	477	ABS	0	0	2	4	24_2_4	NA	NA	0	1	1.02540707588	None	None	None	None	1
3.0.1	2019_Mar_13_0906	s	s	15	3	SIC	478	ABS	0	0	3	3	24_3_3	NA	NA	0	1	0.839223146439	None	None	None	None	1
3.0.1	2019_Mar_13_0906	s	s	15	3	SIC	479	1_4	1	4	1	1	23_1_1	0	3	1	0	1.04893803596	-439.0	-128.0	-433.0	-127.0	1
3.0.1	2019_Mar_13_0906	s	s	15	3	SIC	480	ABS	0	0	4	3	24_4_3	NA	NA	0	1	0.998996019363	None	None	None	None	1
