Version	Date	Stimuli	Method	Subject	Session	Condition	Trial	Target	TColor	TShape	DColor	DShape	Distractors	Channel1	Channel2	LMouseButton	RMouseButton	RT	TargetX	TargetY	ResponseX	ResponseY	Correct
3.0.1	2019_Mar_11_1118	s	s	15	1	Capacity	1	ABS	0	0	1	3	24_1_3	NA	NA	0	1	3.03370189667	None	None	None	None	1
3.0.1	2019_Mar_11_1118	s	s	15	1	Capacity	2	1_4	1	4	1	1	23_1_1	0	3	1	0	0.987230062485	148.0	255.0	150.0	255.0	1
3.0.1	2019_Mar_11_1118	s	s	15	1	Capacity	3	ABS	0	0	1	2	24_1_2	NA	NA	0	1	2.4692029953	None	None	None	None	1
3.0.1	2019_Mar_11_1118	s	s	15	1	Capacity	4	1_3	1	3	1	1	23_1_1	0	2	1	0	1.61481904984	-111.0	7.0	16.0	-64.0	0
3.0.1	2019_Mar_11_1118	s	s	15	1	Capacity	5	ABS	0	0	1	4	24_1_4	NA	NA	0	1	2.65071105957	None	None	None	None	1
3.0.1	2019_Mar_11_1118	s	s	15	1	Capacity	6	ABS	0	0	1	3	24_1_3	NA	NA	0	1	4.04226303101	None	None	None	None	1
3.0.1	2019_Mar_11_1118	s	s	15	1	Capacity	7	1_4	1	4	1	2	23_1_2	0	2	1	0	0.940157175064	-434.0	51.0	-438.0	50.0	1
3.0.1	2019_Mar_11_1118	s	s	15	1	Capacity	8	ABS	0	0	1	4	24_1_4	NA	NA	0	1	2.62715196609	None	None	None	None	1
3.0.1	2019_Mar_11_1118	s	s	15	1	Capacity	9	1_1	1	1	1	4	23_1_4	0	3	1	0	1.33438515663	-130.0	-171.0	-132.0	-172.0	1
3.0.1	2019_Mar_11_1118	s	s	15	1	Capacity	10	1_3	1	3	1	4	23_1_4	0	-1	1	0	2.12044382095	374.0	-221.0	378.0	-218.0	1
3.0.1	2019_Mar_11_1118	s	s	15	1	Capacity	11	ABS	0	0	1	2	24_1_2	NA	NA	0	1	3.55155396461	None	None	None	None	1
3.0.1	2019_Mar_11_1118	s	s	15	1	Capacity	12	ABS	0	0	1	4	24_1_4	NA	NA	0	1	3.21547198296	None	None	None	None	1
3.0.1	2019_Mar_11_1118	s	s	15	1	Capacity	13	1_2	1	2	1	3	23_1_3	0	1	0	1	4.19143199921	38.0	342.0	None	None	0
3.0.1	2019_Mar_11_1118	s	s	15	1	Capacity	14	1_2	1	2	1	4	23_1_4	0	2	1	0	2.98943376541	443.0	383.0	451.0	385.0	1
3.0.1	2019_Mar_11_1118	s	s	15	1	Capacity	15	1_2	1	2	1	1	23_1_1	0	-1	1	0	3.70896887779	468.0	205.0	475.0	202.0	1
3.0.1	2019_Mar_11_1118	s	s	15	1	Capacity	16	ABS	0	0	1	1	24_1_1	NA	NA	0	1	3.52765893936	None	None	None	None	1
3.0.1	2019_Mar_11_1118	s	s	15	1	Capacity	17	ABS	0	0	1	1	24_1_1	NA	NA	0	1	2.83381986618	None	None	None	None	1
3.0.1	2019_Mar_11_1118	s	s	15	1	Capacity	18	1_1	1	1	1	3	23_1_3	0	2	1	0	4.02455282211	203.0	-297.0	191.0	-288.0	1
3.0.1	2019_Mar_11_1118	s	s	15	1	Capacity	19	1_4	1	4	1	3	23_1_3	0	1	1	0	2.49264502525	212.0	57.0	206.0	59.0	1
3.0.1	2019_Mar_11_1118	s	s	15	1	Capacity	20	1_3	1	3	1	2	23_1_2	0	1	0	1	4.84499597549	-13.0	216.0	None	None	0
3.0.1	2019_Mar_11_1118	s	s	15	1	Capacity	21	ABS	0	0	1	1	24_1_1	NA	NA	0	1	2.82208609581	None	None	None	None	1
3.0.1	2019_Mar_11_1118	s	s	15	1	Capacity	22	ABS	0	0	1	2	24_1_2	NA	NA	0	1	4.67712712288	None	None	None	None	1
3.0.1	2019_Mar_11_1118	s	s	15	1	Capacity	23	1_1	1	1	1	2	23_1_2	0	1	0	1	3.54462599754	83.0	-81.0	None	None	0
3.0.1	2019_Mar_11_1118	s	s	15	1	Capacity	24	ABS	0	0	1	3	24_1_3	NA	NA	0	1	3.93932104111	None	None	None	None	1
3.0.1	2019_Mar_11_1118	s	s	15	1	Capacity	25	ABS	0	0	1	3	24_1_3	NA	NA	0	1	4.09821200371	None	None	None	None	1
3.0.1	2019_Mar_11_1118	s	s	15	1	Capacity	26	1_1	1	1	1	4	23_1_4	0	3	1	0	2.89700603485	445.0	-10.0	454.0	-13.0	1
3.0.1	2019_Mar_11_1118	s	s	15	1	Capacity	27	1_3	1	3	1	4	23_1_4	0	-1	1	0	1.50971698761	-412.0	-155.0	-416.0	-156.0	1
3.0.1	2019_Mar_11_1118	s	s	15	1	Capacity	28	ABS	0	0	1	2	24_1_2	NA	NA	0	1	3.72119092941	None	None	None	None	1
3.0.1	2019_Mar_11_1118	s	s	15	1	Capacity	29	ABS	0	0	1	2	24_1_2	NA	NA	0	1	3.90695500374	None	None	None	None	1
3.0.1	2019_Mar_11_1118	s	s	15	1	Capacity	30	ABS	0	0	1	2	24_1_2	NA	NA	0	1	4.57444000244	None	None	None	None	1
3.0.1	2019_Mar_11_1118	s	s	15	1	Capacity	31	1_4	1	4	1	1	23_1_1	0	3	1	0	1.42237520218	105.0	-16.0	95.0	-12.0	1
3.0.1	2019_Mar_11_1118	s	s	15	1	Capacity	32	1_2	1	2	1	4	23_1_4	0	2	1	0	1.41571593285	-299.0	-14.0	-300.0	-17.0	1
3.0.1	2019_Mar_11_1118	s	s	15	1	Capacity	33	ABS	0	0	1	4	24_1_4	NA	NA	0	1	2.48747801781	None	None	None	None	1
3.0.1	2019_Mar_11_1118	s	s	15	1	Capacity	34	ABS	0	0	1	3	24_1_3	NA	NA	0	1	3.71591806412	None	None	None	None	1
3.0.1	2019_Mar_11_1118	s	s	15	1	Capacity	35	1_1	1	1	1	2	23_1_2	0	1	0	1	3.4453561306	225.0	-267.0	None	None	0
3.0.1	2019_Mar_11_1118	s	s	15	1	Capacity	36	ABS	0	0	1	4	24_1_4	NA	NA	0	1	2.49564790726	None	None	None	None	1
3.0.1	2019_Mar_11_1118	s	s	15	1	Capacity	37	ABS	0	0	1	4	24_1_4	NA	NA	0	1	2.28565192223	None	None	None	None	1
3.0.1	2019_Mar_11_1118	s	s	15	1	Capacity	38	1_4	1	4	1	2	23_1_2	0	2	1	0	1.57552814484	30.0	159.0	24.0	156.0	1
3.0.1	2019_Mar_11_1118	s	s	15	1	Capacity	39	ABS	0	0	1	1	24_1_1	NA	NA	0	1	1.94524812698	None	None	None	None	1
3.0.1	2019_Mar_11_1118	s	s	15	1	Capacity	40	1_2	1	2	1	3	23_1_3	0	1	0	1	3.50409889221	-493.0	277.0	None	None	0
3.0.1	2019_Mar_11_1118	s	s	15	1	Capacity	41	ABS	0	0	1	3	24_1_3	NA	NA	0	1	2.82213592529	None	None	None	None	1
3.0.1	2019_Mar_11_1118	s	s	15	1	Capacity	42	ABS	0	0	1	1	24_1_1	NA	NA	0	1	1.96637892723	None	None	None	None	1
3.0.1	2019_Mar_11_1118	s	s	15	1	Capacity	43	1_3	1	3	1	1	23_1_1	0	2	0	1	2.21035599709	278.0	-333.0	None	None	0
3.0.1	2019_Mar_11_1118	s	s	15	1	Capacity	44	1_3	1	3	1	2	23_1_2	0	1	1	0	3.12102413177	-301.0	-206.0	-294.0	-207.0	1
3.0.1	2019_Mar_11_1118	s	s	15	1	Capacity	45	ABS	0	0	1	1	24_1_1	NA	NA	0	1	1.45769309998	None	None	None	None	1
3.0.1	2019_Mar_11_1118	s	s	15	1	Capacity	46	1_4	1	4	1	3	23_1_3	0	1	1	0	1.91490507126	387.0	-249.0	392.0	-244.0	1
3.0.1	2019_Mar_11_1118	s	s	15	1	Capacity	47	1_2	1	2	1	1	23_1_1	0	-1	0	1	2.63383603096	437.0	110.0	None	None	0
3.0.1	2019_Mar_11_1118	s	s	15	1	Capacity	48	1_1	1	1	1	3	23_1_3	0	2	1	0	3.13070201874	-121.0	-210.0	-120.0	-201.0	1
3.0.1	2019_Mar_11_1118	s	s	15	1	Capacity	49	ABS	0	0	1	4	24_1_4	NA	NA	0	1	2.18690180779	None	None	None	None	1
3.0.1	2019_Mar_11_1118	s	s	15	1	Capacity	50	ABS	0	0	1	2	24_1_2	NA	NA	0	1	3.78958487511	None	None	None	None	1
3.0.1	2019_Mar_11_1118	s	s	15	1	Capacity	51	ABS	0	0	1	2	24_1_2	NA	NA	0	1	4.65666103363	None	None	None	None	1
3.0.1	2019_Mar_11_1118	s	s	15	1	Capacity	52	ABS	0	0	1	1	24_1_1	NA	NA	0	1	3.43651509285	None	None	None	None	1
3.0.1	2019_Mar_11_1118	s	s	15	1	Capacity	53	1_3	1	3	1	2	23_1_2	0	1	0	1	3.5395359993	193.0	-230.0	None	None	0
3.0.1	2019_Mar_11_1118	s	s	15	1	Capacity	54	1_4	1	4	1	2	23_1_2	0	2	1	0	4.33902287483	325.0	-327.0	338.0	-324.0	1
3.0.1	2019_Mar_11_1118	s	s	15	1	Capacity	55	ABS	0	0	1	3	24_1_3	NA	NA	0	1	3.92749190331	None	None	None	None	1
3.0.1	2019_Mar_11_1118	s	s	15	1	Capacity	56	1_2	1	2	1	4	23_1_4	0	2	1	0	1.10493206978	-496.0	38.0	-493.0	30.0	1
3.0.1	2019_Mar_11_1118	s	s	15	1	Capacity	57	ABS	0	0	1	4	24_1_4	NA	NA	0	1	1.88109517097	None	None	None	None	1
3.0.1	2019_Mar_11_1118	s	s	15	1	Capacity	58	ABS	0	0	1	3	24_1_3	NA	NA	0	1	3.22190380096	None	None	None	None	1
3.0.1	2019_Mar_11_1118	s	s	15	1	Capacity	59	1_2	1	2	1	1	23_1_1	0	-1	0	1	1.93308997154	338.0	-176.0	None	None	0
3.0.1	2019_Mar_11_1118	s	s	15	1	Capacity	60	1_1	1	1	1	3	23_1_3	0	2	0	1	3.74450206757	7.0	405.0	None	None	0
3.0.1	2019_Mar_11_1118	s	s	15	1	Capacity	61	ABS	0	0	1	1	24_1_1	NA	NA	0	1	1.73996400833	None	None	None	None	1
3.0.1	2019_Mar_11_1118	s	s	15	1	Capacity	62	1_1	1	1	1	4	23_1_4	0	3	1	0	0.881443023682	-290.0	181.0	-284.0	176.0	1
3.0.1	2019_Mar_11_1118	s	s	15	1	Capacity	63	ABS	0	0	1	4	24_1_4	NA	NA	0	1	2.22789406776	None	None	None	None	1
3.0.1	2019_Mar_11_1118	s	s	15	1	Capacity	64	ABS	0	0	1	2	24_1_2	NA	NA	0	1	3.26892709732	None	None	None	None	1
3.0.1	2019_Mar_11_1118	s	s	15	1	Capacity	65	1_3	1	3	1	4	23_1_4	0	-1	1	0	1.09738898277	-256.0	219.0	-264.0	219.0	1
3.0.1	2019_Mar_11_1118	s	s	15	1	Capacity	66	1_2	1	2	1	3	23_1_3	0	1	0	1	3.4854528904	352.0	-337.0	None	None	0
3.0.1	2019_Mar_11_1118	s	s	15	1	Capacity	67	1_1	1	1	1	2	23_1_2	0	1	0	1	4.4685280323	522.0	239.0	None	None	0
3.0.1	2019_Mar_11_1118	s	s	15	1	Capacity	68	1_3	1	3	1	1	23_1_1	0	2	1	0	1.79886412621	362.0	-14.0	364.0	-16.0	1
3.0.1	2019_Mar_11_1118	s	s	15	1	Capacity	69	1_4	1	4	1	3	23_1_3	0	1	1	0	3.31890296936	-20.0	366.0	-17.0	365.0	1
3.0.1	2019_Mar_11_1118	s	s	15	1	Capacity	70	ABS	0	0	1	3	24_1_3	NA	NA	0	1	3.17482495308	None	None	None	None	1
3.0.1	2019_Mar_11_1118	s	s	15	1	Capacity	71	ABS	0	0	1	1	24_1_1	NA	NA	0	1	1.7216360569	None	None	None	None	1
3.0.1	2019_Mar_11_1118	s	s	15	1	Capacity	72	1_4	1	4	1	1	23_1_1	0	3	1	0	1.16366219521	-184.0	-292.0	-185.0	-287.0	1
3.0.1	2019_Mar_11_1118	s	s	15	1	Capacity	73	ABS	0	0	1	3	24_1_3	NA	NA	0	1	1.65081715584	None	None	None	None	1
3.0.1	2019_Mar_11_1118	s	s	15	1	Capacity	74	1_2	1	2	1	4	23_1_4	0	2	1	0	0.90998506546	-159.0	138.0	-159.0	139.0	1
3.0.1	2019_Mar_11_1118	s	s	15	1	Capacity	75	ABS	0	0	1	1	24_1_1	NA	NA	0	1	1.41593003273	None	None	None	None	1
3.0.1	2019_Mar_11_1118	s	s	15	1	Capacity	76	1_1	1	1	1	2	23_1_2	0	1	0	1	1.37001490593	-432.0	391.0	None	None	0
3.0.1	2019_Mar_11_1118	s	s	15	1	Capacity	77	1_3	1	3	1	2	23_1_2	0	1	0	1	2.25090909004	-261.0	315.0	None	None	0
3.0.1	2019_Mar_11_1118	s	s	15	1	Capacity	78	ABS	0	0	1	3	24_1_3	NA	NA	0	1	3.21009206772	None	None	None	None	1
3.0.1	2019_Mar_11_1118	s	s	15	1	Capacity	79	ABS	0	0	1	4	24_1_4	NA	NA	0	1	2.87313890457	None	None	None	None	1
3.0.1	2019_Mar_11_1118	s	s	15	1	Capacity	80	ABS	0	0	1	2	24_1_2	NA	NA	0	1	3.0845811367	None	None	None	None	1
3.0.1	2019_Mar_11_1118	s	s	15	1	Capacity	81	1_3	1	3	1	4	23_1_4	0	-1	1	0	2.16802716255	530.0	-96.0	535.0	-91.0	1
3.0.1	2019_Mar_11_1118	s	s	15	1	Capacity	82	1_3	1	3	1	1	23_1_1	0	2	1	0	3.26890802383	-281.0	37.0	-283.0	27.0	1
3.0.1	2019_Mar_11_1118	s	s	15	1	Capacity	83	1_1	1	1	1	4	23_1_4	0	3	1	0	1.1401591301	-505.0	410.0	-503.0	408.0	1
3.0.1	2019_Mar_11_1118	s	s	15	1	Capacity	84	ABS	0	0	1	1	24_1_1	NA	NA	0	1	2.34449601173	None	None	None	None	1
3.0.1	2019_Mar_11_1118	s	s	15	1	Capacity	85	ABS	0	0	1	1	24_1_1	NA	NA	0	1	1.98691606522	None	None	None	None	1
3.0.1	2019_Mar_11_1118	s	s	15	1	Capacity	86	1_4	1	4	1	3	23_1_3	0	1	1	0	0.944478034973	456.0	115.0	458.0	111.0	1
3.0.1	2019_Mar_11_1118	s	s	15	1	Capacity	87	ABS	0	0	1	3	24_1_3	NA	NA	0	1	2.77498316765	None	None	None	None	1
3.0.1	2019_Mar_11_1118	s	s	15	1	Capacity	88	1_4	1	4	1	2	23_1_2	0	2	1	0	2.15624403954	533.0	-280.0	528.0	-283.0	1
3.0.1	2019_Mar_11_1118	s	s	15	1	Capacity	89	ABS	0	0	1	4	24_1_4	NA	NA	0	1	2.48088502884	None	None	None	None	1
3.0.1	2019_Mar_11_1118	s	s	15	1	Capacity	90	1_4	1	4	1	1	23_1_1	0	3	1	0	0.991189002991	-414.0	288.0	-424.0	286.0	1
3.0.1	2019_Mar_11_1118	s	s	15	1	Capacity	91	ABS	0	0	1	2	24_1_2	NA	NA	0	1	3.95780396461	None	None	None	None	1
3.0.1	2019_Mar_11_1118	s	s	15	1	Capacity	92	ABS	0	0	1	2	24_1_2	NA	NA	0	1	4.09225893021	None	None	None	None	1
3.0.1	2019_Mar_11_1118	s	s	15	1	Capacity	93	1_2	1	2	1	3	23_1_3	0	1	0	1	4.01021194458	532.0	371.0	None	None	0
3.0.1	2019_Mar_11_1118	s	s	15	1	Capacity	94	1_2	1	2	1	1	23_1_1	0	-1	0	1	2.75518798828	460.0	-267.0	None	None	0
3.0.1	2019_Mar_11_1118	s	s	15	1	Capacity	95	ABS	0	0	1	4	24_1_4	NA	NA	0	1	2.68083691597	None	None	None	None	1
3.0.1	2019_Mar_11_1118	s	s	15	1	Capacity	96	1_1	1	1	1	3	23_1_3	0	2	1	0	1.2607049942	-509.0	146.0	-508.0	141.0	1
3.0.1	2019_Mar_11_1118	s	s	15	1	Capacity	1	2_1	2	1	3	1	23_3_1	1	0	1	0	0.763718128204	-425.0	-164.0	-424.0	-172.0	1
3.0.1	2019_Mar_11_1118	s	s	15	1	Capacity	2	ABS	0	0	2	1	24_2_1	NA	NA	0	1	0.931395053864	None	None	None	None	1
3.0.1	2019_Mar_11_1118	s	s	15	1	Capacity	3	ABS	0	0	3	1	24_3_1	NA	NA	0	1	0.772256851196	None	None	None	None	1
3.0.1	2019_Mar_11_1118	s	s	15	1	Capacity	4	1_1	1	1	4	1	23_4_1	3	0	1	0	0.516872167587	528.0	-91.0	535.0	-93.0	1
3.0.1	2019_Mar_11_1118	s	s	15	1	Capacity	5	ABS	0	0	1	1	24_1_1	NA	NA	0	1	0.69317483902	None	None	None	None	1
3.0.1	2019_Mar_11_1118	s	s	15	1	Capacity	6	ABS	0	0	3	1	24_3_1	NA	NA	0	1	0.646084070206	None	None	None	None	1
3.0.1	2019_Mar_11_1118	s	s	15	1	Capacity	7	ABS	0	0	4	1	24_4_1	NA	NA	0	1	0.627398014069	None	None	None	None	1
3.0.1	2019_Mar_11_1118	s	s	15	1	Capacity	8	4_1	4	1	3	1	23_3_1	1	0	1	0	0.693274021149	-238.0	-318.0	-238.0	-320.0	1
3.0.1	2019_Mar_11_1118	s	s	15	1	Capacity	9	3_1	3	1	2	1	23_2_1	1	0	1	0	0.665912866592	-24.0	-280.0	-24.0	-279.0	1
3.0.1	2019_Mar_11_1118	s	s	15	1	Capacity	10	2_1	2	1	4	1	23_4_1	2	0	1	0	0.461624860764	173.0	-56.0	165.0	-57.0	1
3.0.1	2019_Mar_11_1118	s	s	15	1	Capacity	11	ABS	0	0	3	1	24_3_1	NA	NA	0	1	0.613782167435	None	None	None	None	1
3.0.1	2019_Mar_11_1118	s	s	15	1	Capacity	12	3_1	3	1	4	1	23_4_1	-1	0	1	0	0.587351083755	253.0	39.0	257.0	36.0	1
3.0.1	2019_Mar_11_1118	s	s	15	1	Capacity	13	ABS	0	0	2	1	24_2_1	NA	NA	0	1	0.660804986954	None	None	None	None	1
3.0.1	2019_Mar_11_1118	s	s	15	1	Capacity	14	4_1	4	1	2	1	23_2_1	2	0	1	0	0.615323781967	-71.0	-232.0	-83.0	-230.0	1
3.0.1	2019_Mar_11_1118	s	s	15	1	Capacity	15	2_1	2	1	1	1	23_1_1	-1	0	0	1	0.592405080795	-445.0	-180.0	None	None	0
3.0.1	2019_Mar_11_1118	s	s	15	1	Capacity	16	4_1	4	1	1	1	23_1_1	3	0	1	0	0.540416002274	-56.0	122.0	-55.0	115.0	1
3.0.1	2019_Mar_11_1118	s	s	15	1	Capacity	17	ABS	0	0	4	1	24_4_1	NA	NA	0	1	0.61092710495	None	None	None	None	1
3.0.1	2019_Mar_11_1118	s	s	15	1	Capacity	18	1_1	1	1	2	1	23_2_1	1	0	0	1	0.679443836212	-11.0	72.0	None	None	0
3.0.1	2019_Mar_11_1118	s	s	15	1	Capacity	19	ABS	0	0	1	1	24_1_1	NA	NA	0	1	1.65767216682	None	None	None	None	1
3.0.1	2019_Mar_11_1118	s	s	15	1	Capacity	20	3_1	3	1	1	1	23_1_1	2	0	1	0	0.823020935059	-343.0	-259.0	-342.0	-261.0	1
3.0.1	2019_Mar_11_1118	s	s	15	1	Capacity	21	ABS	0	0	1	1	24_1_1	NA	NA	0	1	1.08431601524	None	None	None	None	1
3.0.1	2019_Mar_11_1118	s	s	15	1	Capacity	22	ABS	0	0	4	1	24_4_1	NA	NA	0	1	0.731408834457	None	None	None	None	1
3.0.1	2019_Mar_11_1118	s	s	15	1	Capacity	23	1_1	1	1	3	1	23_3_1	2	0	1	0	0.604296922684	512.0	273.0	515.0	266.0	1
3.0.1	2019_Mar_11_1118	s	s	15	1	Capacity	24	ABS	0	0	2	1	24_2_1	NA	NA	0	1	0.881399869919	None	None	None	None	1
3.0.1	2019_Mar_11_1118	s	s	15	1	Capacity	25	ABS	0	0	3	1	24_3_1	NA	NA	0	1	0.896113157272	None	None	None	None	1
3.0.1	2019_Mar_11_1118	s	s	15	1	Capacity	26	ABS	0	0	1	1	24_1_1	NA	NA	0	1	1.48127889633	None	None	None	None	1
3.0.1	2019_Mar_11_1118	s	s	15	1	Capacity	27	4_1	4	1	1	1	23_1_1	3	0	1	0	0.569558858871	-132.0	-229.0	-135.0	-227.0	1
3.0.1	2019_Mar_11_1118	s	s	15	1	Capacity	28	2_1	2	1	3	1	23_3_1	1	0	1	0	1.13358092308	-290.0	89.0	-285.0	83.0	1
3.0.1	2019_Mar_11_1118	s	s	15	1	Capacity	29	3_1	3	1	4	1	23_4_1	-1	0	1	0	0.875804185867	-53.0	-240.0	-56.0	-239.0	1
3.0.1	2019_Mar_11_1118	s	s	15	1	Capacity	30	2_1	2	1	1	1	23_1_1	-1	0	1	0	3.01009702682	-464.0	-154.0	-454.0	-146.0	1
3.0.1	2019_Mar_11_1118	s	s	15	1	Capacity	31	ABS	0	0	3	1	24_3_1	NA	NA	0	1	1.62237501144	None	None	None	None	1
3.0.1	2019_Mar_11_1118	s	s	15	1	Capacity	32	3_1	3	1	1	1	23_1_1	2	0	1	0	0.681453943253	-99.0	-143.0	-97.0	-146.0	1
3.0.1	2019_Mar_11_1118	s	s	15	1	Capacity	33	ABS	0	0	3	1	24_3_1	NA	NA	0	1	1.20696306229	None	None	None	None	1
3.0.1	2019_Mar_11_1118	s	s	15	1	Capacity	34	3_1	3	1	2	1	23_2_1	1	0	1	0	0.869625091553	124.0	268.0	118.0	263.0	1
3.0.1	2019_Mar_11_1118	s	s	15	1	Capacity	35	ABS	0	0	2	1	24_2_1	NA	NA	0	1	3.01021003723	None	None	None	None	1
3.0.1	2019_Mar_11_1118	s	s	15	1	Capacity	36	ABS	0	0	4	1	24_4_1	NA	NA	0	1	0.822567939758	None	None	None	None	1
3.0.1	2019_Mar_11_1118	s	s	15	1	Capacity	37	1_1	1	1	3	1	23_3_1	2	0	1	0	0.822680950165	319.0	-222.0	310.0	-220.0	1
3.0.1	2019_Mar_11_1118	s	s	15	1	Capacity	38	ABS	0	0	4	1	24_4_1	NA	NA	0	1	1.93089294434	None	None	None	None	1
3.0.1	2019_Mar_11_1118	s	s	15	1	Capacity	39	4_1	4	1	2	1	23_2_1	2	0	1	0	0.59232711792	-231.0	-332.0	-235.0	-324.0	1
3.0.1	2019_Mar_11_1118	s	s	15	1	Capacity	40	1_1	1	1	2	1	23_2_1	1	0	0	1	1.26061797142	220.0	-177.0	None	None	0
3.0.1	2019_Mar_11_1118	s	s	15	1	Capacity	41	ABS	0	0	4	1	24_4_1	NA	NA	0	1	0.966645956039	None	None	None	None	1
3.0.1	2019_Mar_11_1118	s	s	15	1	Capacity	42	2_1	2	1	4	1	23_4_1	2	0	1	0	0.505340099335	7.0	73.0	6.0	70.0	1
3.0.1	2019_Mar_11_1118	s	s	15	1	Capacity	43	ABS	0	0	2	1	24_2_1	NA	NA	0	1	1.02543497086	None	None	None	None	1
3.0.1	2019_Mar_11_1118	s	s	15	1	Capacity	44	ABS	0	0	1	1	24_1_1	NA	NA	0	1	0.806118011475	None	None	None	None	1
3.0.1	2019_Mar_11_1118	s	s	15	1	Capacity	45	ABS	0	0	2	1	24_2_1	NA	NA	0	1	0.92271900177	None	None	None	None	1
3.0.1	2019_Mar_11_1118	s	s	15	1	Capacity	46	ABS	0	0	1	1	24_1_1	NA	NA	0	1	0.849044084549	None	None	None	None	1
3.0.1	2019_Mar_11_1118	s	s	15	1	Capacity	47	4_1	4	1	3	1	23_3_1	1	0	1	0	0.710314035416	-149.0	327.0	-147.0	320.0	1
3.0.1	2019_Mar_11_1118	s	s	15	1	Capacity	48	1_1	1	1	4	1	23_4_1	3	0	1	0	0.716751098633	-359.0	-403.0	-365.0	-408.0	1
3.0.1	2019_Mar_11_1118	s	s	15	1	Capacity	49	1_1	1	1	2	1	23_2_1	1	0	0	1	0.966644048691	150.0	14.0	None	None	0
3.0.1	2019_Mar_11_1118	s	s	15	1	Capacity	50	2_1	2	1	1	1	23_1_1	-1	0	0	1	1.01080107689	-437.0	402.0	None	None	0
3.0.1	2019_Mar_11_1118	s	s	15	1	Capacity	51	4_1	4	1	3	1	23_3_1	1	0	1	0	0.675040960312	190.0	-211.0	193.0	-201.0	1
3.0.1	2019_Mar_11_1118	s	s	15	1	Capacity	52	3_1	3	1	1	1	23_1_1	2	0	1	0	0.86389708519	515.0	0.0	516.0	-2.0	1
3.0.1	2019_Mar_11_1118	s	s	15	1	Capacity	53	ABS	0	0	1	1	24_1_1	NA	NA	0	1	0.811227083206	None	None	None	None	1
3.0.1	2019_Mar_11_1118	s	s	15	1	Capacity	54	ABS	0	0	2	1	24_2_1	NA	NA	0	1	1.23953580856	None	None	None	None	1
3.0.1	2019_Mar_11_1118	s	s	15	1	Capacity	55	ABS	0	0	3	1	24_3_1	NA	NA	0	1	0.822526931763	None	None	None	None	1
3.0.1	2019_Mar_11_1118	s	s	15	1	Capacity	56	ABS	0	0	2	1	24_2_1	NA	NA	0	1	1.12840914726	None	None	None	None	1
3.0.1	2019_Mar_11_1118	s	s	15	1	Capacity	57	3_1	3	1	4	1	23_4_1	-1	0	1	0	0.650284051895	-72.0	-309.0	-78.0	-308.0	1
3.0.1	2019_Mar_11_1118	s	s	15	1	Capacity	58	ABS	0	0	1	1	24_1_1	NA	NA	0	1	1.02252602577	None	None	None	None	1
3.0.1	2019_Mar_11_1118	s	s	15	1	Capacity	59	4_1	4	1	2	1	23_2_1	2	0	1	0	0.56942486763	-471.0	256.0	-474.0	259.0	1
3.0.1	2019_Mar_11_1118	s	s	15	1	Capacity	60	2_1	2	1	4	1	23_4_1	2	0	1	0	0.775666952133	-511.0	-35.0	-516.0	-46.0	1
3.0.1	2019_Mar_11_1118	s	s	15	1	Capacity	61	ABS	0	0	4	1	24_4_1	NA	NA	0	1	0.854199171066	None	None	None	None	1
3.0.1	2019_Mar_11_1118	s	s	15	1	Capacity	62	ABS	0	0	4	1	24_4_1	NA	NA	0	1	0.822572946548	None	None	None	None	1
3.0.1	2019_Mar_11_1118	s	s	15	1	Capacity	63	1_1	1	1	4	1	23_4_1	3	0	1	0	0.505015134811	233.0	350.0	229.0	337.0	1
3.0.1	2019_Mar_11_1118	s	s	15	1	Capacity	64	4_1	4	1	1	1	23_1_1	3	0	1	0	0.616118907928	210.0	328.0	207.0	320.0	1
3.0.1	2019_Mar_11_1118	s	s	15	1	Capacity	65	ABS	0	0	1	1	24_1_1	NA	NA	0	1	0.998980045319	None	None	None	None	1
3.0.1	2019_Mar_11_1118	s	s	15	1	Capacity	66	ABS	0	0	3	1	24_3_1	NA	NA	0	1	0.869685173035	None	None	None	None	1
3.0.1	2019_Mar_11_1118	s	s	15	1	Capacity	67	2_1	2	1	3	1	23_3_1	1	0	1	0	0.622744083405	-415.0	-285.0	-415.0	-281.0	1
3.0.1	2019_Mar_11_1118	s	s	15	1	Capacity	68	1_1	1	1	3	1	23_3_1	2	0	1	0	0.628047943115	-396.0	207.0	-393.0	194.0	1
3.0.1	2019_Mar_11_1118	s	s	15	1	Capacity	69	3_1	3	1	2	1	23_2_1	1	0	1	0	0.815778017044	-230.0	-299.0	-225.0	-298.0	1
3.0.1	2019_Mar_11_1118	s	s	15	1	Capacity	70	ABS	0	0	4	1	24_4_1	NA	NA	0	1	0.60437297821	None	None	None	None	1
3.0.1	2019_Mar_11_1118	s	s	15	1	Capacity	71	ABS	0	0	2	1	24_2_1	NA	NA	0	1	1.03434419632	None	None	None	None	1
3.0.1	2019_Mar_11_1118	s	s	15	1	Capacity	72	ABS	0	0	3	1	24_3_1	NA	NA	0	1	1.07533311844	None	None	None	None	1
3.0.1	2019_Mar_11_1118	s	s	15	1	Capacity	73	1_1	1	1	4	1	23_4_1	3	0	1	0	0.548152923584	222.0	-353.0	215.0	-343.0	1
3.0.1	2019_Mar_11_1118	s	s	15	1	Capacity	74	ABS	0	0	4	1	24_4_1	NA	NA	0	1	0.791194915771	None	None	None	None	1
3.0.1	2019_Mar_11_1118	s	s	15	1	Capacity	75	ABS	0	0	1	1	24_1_1	NA	NA	0	1	0.85834312439	None	None	None	None	1
3.0.1	2019_Mar_11_1118	s	s	15	1	Capacity	76	3_1	3	1	1	1	23_1_1	2	0	1	0	0.587411880493	-190.0	108.0	-194.0	100.0	1
3.0.1	2019_Mar_11_1118	s	s	15	1	Capacity	77	ABS	0	0	2	1	24_2_1	NA	NA	0	1	1.14018082619	None	None	None	None	1
3.0.1	2019_Mar_11_1118	s	s	15	1	Capacity	78	2_1	2	1	1	1	23_1_1	-1	0	0	1	0.881393909454	100.0	166.0	None	None	0
3.0.1	2019_Mar_11_1118	s	s	15	1	Capacity	79	4_1	4	1	1	1	23_1_1	3	0	1	0	0.545677185059	-469.0	-274.0	-464.0	-276.0	1
3.0.1	2019_Mar_11_1118	s	s	15	1	Capacity	80	4_1	4	1	2	1	23_2_1	2	0	1	0	1.4694519043	-521.0	-100.0	-531.0	-102.0	1
3.0.1	2019_Mar_11_1118	s	s	15	1	Capacity	81	2_1	2	1	4	1	23_4_1	2	0	1	0	3.68526601791	351.0	-215.0	358.0	-215.0	1
3.0.1	2019_Mar_11_1118	s	s	15	1	Capacity	82	ABS	0	0	1	1	24_1_1	NA	NA	0	1	0.675008058548	None	None	None	None	1
3.0.1	2019_Mar_11_1118	s	s	15	1	Capacity	83	ABS	0	0	3	1	24_3_1	NA	NA	0	1	0.804536104202	None	None	None	None	1
3.0.1	2019_Mar_11_1118	s	s	15	1	Capacity	84	4_1	4	1	3	1	23_3_1	1	0	1	0	0.575574874878	414.0	-174.0	421.0	-176.0	1
3.0.1	2019_Mar_11_1118	s	s	15	1	Capacity	85	ABS	0	0	3	1	24_3_1	NA	NA	0	1	0.672636032104	None	None	None	None	1
3.0.1	2019_Mar_11_1118	s	s	15	1	Capacity	86	2_1	2	1	3	1	23_3_1	1	0	1	0	0.698107004166	-278.0	126.0	-278.0	123.0	1
3.0.1	2019_Mar_11_1118	s	s	15	1	Capacity	87	1_1	1	1	2	1	23_2_1	1	0	0	1	0.657967090607	280.0	-101.0	None	None	0
3.0.1	2019_Mar_11_1118	s	s	15	1	Capacity	88	1_1	1	1	3	1	23_3_1	2	0	1	0	0.608453989029	404.0	-79.0	415.0	-78.0	1
3.0.1	2019_Mar_11_1118	s	s	15	1	Capacity	89	ABS	0	0	1	1	24_1_1	NA	NA	0	1	0.540292024612	None	None	None	None	1
3.0.1	2019_Mar_11_1118	s	s	15	1	Capacity	90	3_1	3	1	2	1	23_2_1	1	0	1	0	0.591449975967	-292.0	243.0	-292.0	234.0	1
3.0.1	2019_Mar_11_1118	s	s	15	1	Capacity	91	ABS	0	0	2	1	24_2_1	NA	NA	0	1	0.826867103577	None	None	None	None	1
3.0.1	2019_Mar_11_1118	s	s	15	1	Capacity	92	ABS	0	0	2	1	24_2_1	NA	NA	0	1	0.752003908157	None	None	None	None	1
3.0.1	2019_Mar_11_1118	s	s	15	1	Capacity	93	ABS	0	0	4	1	24_4_1	NA	NA	0	1	0.721917867661	None	None	None	None	1
3.0.1	2019_Mar_11_1118	s	s	15	1	Capacity	94	ABS	0	0	4	1	24_4_1	NA	NA	0	1	0.693221092224	None	None	None	None	1
3.0.1	2019_Mar_11_1118	s	s	15	1	Capacity	95	3_1	3	1	4	1	23_4_1	-1	0	1	0	0.540591955185	211.0	-270.0	205.0	-270.0	1
3.0.1	2019_Mar_11_1118	s	s	15	1	Capacity	96	ABS	0	0	3	1	24_3_1	NA	NA	0	1	0.810841083527	None	None	None	None	1
3.0.1	2019_Mar_11_1118	s	s	15	1	SIC	1	2_2	2	2	1	4	23_1_4	-1	2	1	0	1.7215950489	226.0	-154.0	231.0	-151.0	1
3.0.1	2019_Mar_11_1118	s	s	15	1	SIC	2	1_3	1	3	1	4	23_1_4	0	-1	1	0	1.95172190666	288.0	243.0	297.0	242.0	1
3.0.1	2019_Mar_11_1118	s	s	15	1	SIC	3	ABS	0	0	3	2	24_3_2	NA	NA	0	1	2.91037487984	None	None	None	None	1
3.0.1	2019_Mar_11_1118	s	s	15	1	SIC	4	1_1	1	1	2	3	23_2_3	1	2	1	0	0.000130176544189	-46.0	-285.0	-10.0	5.0	0
3.0.1	2019_Mar_11_1118	s	s	15	1	SIC	5	ABS	0	0	4	3	24_4_3	NA	NA	0	1	3.4150159359	None	None	None	None	1
3.0.1	2019_Mar_11_1118	s	s	15	1	SIC	6	1_3	1	3	1	1	23_1_1	0	2	1	0	3.26011705399	297.0	35.0	292.0	37.0	1
3.0.1	2019_Mar_11_1118	s	s	15	1	SIC	7	ABS	0	0	4	1	24_4_1	NA	NA	0	1	2.02517008781	None	None	None	None	1
3.0.1	2019_Mar_11_1118	s	s	15	1	SIC	8	ABS	0	0	1	2	24_1_2	NA	NA	0	1	4.119795084	None	None	None	None	1
3.0.1	2019_Mar_11_1118	s	s	15	1	SIC	9	3_4	3	4	1	3	23_1_3	2	1	1	0	0.693204164505	190.0	-24.0	189.0	-21.0	1
3.0.1	2019_Mar_11_1118	s	s	15	1	SIC	10	1_2	1	2	2	1	23_2_1	1	-1	1	0	4.685983181	474.0	-98.0	480.0	-98.0	1
3.0.1	2019_Mar_11_1118	s	s	15	1	SIC	11	ABS	0	0	3	4	24_3_4	NA	NA	0	1	3.9275598526	None	None	None	None	1
3.0.1	2019_Mar_11_1118	s	s	15	1	SIC	12	1_2	1	2	4	4	23_4_4	3	2	1	0	0.587316989899	-137.0	276.0	-143.0	281.0	1
3.0.1	2019_Mar_11_1118	s	s	15	1	SIC	13	4_4	4	4	3	2	23_3_2	1	2	1	0	0.898405790329	537.0	352.0	545.0	360.0	1
3.0.1	2019_Mar_11_1118	s	s	15	1	SIC	14	4_2	4	2	1	1	23_1_1	3	-1	1	0	0.82260799408	377.0	-369.0	381.0	-372.0	1
3.0.1	2019_Mar_11_1118	s	s	15	1	SIC	15	ABS	0	0	1	3	24_1_3	NA	NA	0	1	4.55379009247	None	None	None	None	1
3.0.1	2019_Mar_11_1118	s	s	15	1	SIC	16	2_1	2	1	3	3	23_3_3	1	2	1	0	0.881498098373	443.0	-89.0	455.0	-88.0	1
3.0.1	2019_Mar_11_1118	s	s	15	1	SIC	17	ABS	0	0	2	4	24_2_4	NA	NA	0	1	2.83662390709	None	None	None	None	1
3.0.1	2019_Mar_11_1118	s	s	15	1	SIC	18	ABS	0	0	3	1	24_3_1	NA	NA	0	1	3.05022907257	None	None	None	None	1
3.0.1	2019_Mar_11_1118	s	s	15	1	SIC	19	ABS	0	0	3	4	24_3_4	NA	NA	0	1	2.12105584145	None	None	None	None	1
3.0.1	2019_Mar_11_1118	s	s	15	1	SIC	20	ABS	0	0	4	4	24_4_4	NA	NA	0	1	3.05724382401	None	None	None	None	1
3.0.1	2019_Mar_11_1118	s	s	15	1	SIC	21	3_3	3	3	4	1	23_4_1	-1	2	1	0	0.63435292244	248.0	245.0	248.0	243.0	1
3.0.1	2019_Mar_11_1118	s	s	15	1	SIC	22	ABS	0	0	2	1	24_2_1	NA	NA	0	1	3.53302502632	None	None	None	None	1
3.0.1	2019_Mar_11_1118	s	s	15	1	SIC	23	ABS	0	0	3	1	24_3_1	NA	NA	0	1	1.8692920208	None	None	None	None	1
3.0.1	2019_Mar_11_1118	s	s	15	1	SIC	24	4_2	4	2	2	1	23_2_1	2	-1	1	0	0.672638893127	446.0	-41.0	444.0	-52.0	1
3.0.1	2019_Mar_11_1118	s	s	15	1	SIC	25	3_1	3	1	2	1	23_2_1	1	0	1	0	0.716757059097	124.0	49.0	118.0	45.0	1
3.0.1	2019_Mar_11_1118	s	s	15	1	SIC	26	4_4	4	4	4	2	23_4_2	0	2	1	0	0.904935121536	-504.0	-112.0	-509.0	-116.0	1
3.0.1	2019_Mar_11_1118	s	s	15	1	SIC	27	2_4	2	4	3	3	23_3_3	1	1	1	0	0.963731050491	199.0	402.0	210.0	403.0	1
3.0.1	2019_Mar_11_1118	s	s	15	1	SIC	28	ABS	0	0	3	4	24_3_4	NA	NA	0	1	3.69239091873	None	None	None	None	1
3.0.1	2019_Mar_11_1118	s	s	15	1	SIC	29	1_2	1	2	4	3	23_4_3	3	1	1	0	0.516839027405	-250.0	84.0	-257.0	86.0	1
3.0.1	2019_Mar_11_1118	s	s	15	1	SIC	30	ABS	0	0	1	4	24_1_4	NA	NA	0	1	2.46389603615	None	None	None	None	1
3.0.1	2019_Mar_11_1118	s	s	15	1	SIC	31	3_3	3	3	1	2	23_1_2	2	1	1	0	0.849045991898	309.0	71.0	297.0	74.0	1
3.0.1	2019_Mar_11_1118	s	s	15	1	SIC	32	3_4	3	4	3	2	23_3_2	0	2	1	0	2.09102511406	377.0	-412.0	380.0	-410.0	1
3.0.1	2019_Mar_11_1118	s	s	15	1	SIC	33	ABS	0	0	3	3	24_3_3	NA	NA	0	1	2.33444309235	None	None	None	None	1
3.0.1	2019_Mar_11_1118	s	s	15	1	SIC	34	1_2	1	2	1	3	23_1_3	0	1	0	1	3.84801983833	-275.0	182.0	None	None	0
3.0.1	2019_Mar_11_1118	s	s	15	1	SIC	35	1_4	1	4	2	2	23_2_2	1	2	1	0	0.736509084702	-210.0	405.0	-221.0	406.0	1
3.0.1	2019_Mar_11_1118	s	s	15	1	SIC	36	3_2	3	2	2	1	23_2_1	1	-1	1	0	1.28422904015	65.0	-337.0	63.0	-342.0	1
3.0.1	2019_Mar_11_1118	s	s	15	1	SIC	37	3_3	3	3	1	3	23_1_3	2	0	1	0	0.580747127533	-86.0	262.0	-84.0	258.0	1
3.0.1	2019_Mar_11_1118	s	s	15	1	SIC	38	ABS	0	0	4	2	24_4_2	NA	NA	0	1	3.48062801361	None	None	None	None	1
3.0.1	2019_Mar_11_1118	s	s	15	1	SIC	39	3_3	3	3	1	1	23_1_1	2	2	1	0	0.916922807693	125.0	-279.0	123.0	-276.0	1
3.0.1	2019_Mar_11_1118	s	s	15	1	SIC	40	ABS	0	0	2	1	24_2_1	NA	NA	0	1	2.49553585052	None	None	None	None	1
3.0.1	2019_Mar_11_1118	s	s	15	1	SIC	41	2_2	2	2	2	4	23_2_4	0	2	1	0	1.44406104088	158.0	-159.0	150.0	-152.0	1
3.0.1	2019_Mar_11_1118	s	s	15	1	SIC	42	ABS	0	0	2	1	24_2_1	NA	NA	0	1	2.36334013939	None	None	None	None	1
3.0.1	2019_Mar_11_1118	s	s	15	1	SIC	43	ABS	0	0	3	2	24_3_2	NA	NA	0	1	2.65189909935	None	None	None	None	1
3.0.1	2019_Mar_11_1118	s	s	15	1	SIC	44	3_2	3	2	3	4	23_3_4	0	2	1	0	1.1284160614	-434.0	17.0	-434.0	12.0	1
3.0.1	2019_Mar_11_1118	s	s	15	1	SIC	45	ABS	0	0	3	4	24_3_4	NA	NA	0	1	2.71613001823	None	None	None	None	1
3.0.1	2019_Mar_11_1118	s	s	15	1	SIC	46	ABS	0	0	2	3	24_2_3	NA	NA	0	1	3.40431904793	None	None	None	None	1
3.0.1	2019_Mar_11_1118	s	s	15	1	SIC	47	ABS	0	0	2	2	24_2_2	NA	NA	0	1	2.67275309563	None	None	None	None	1
3.0.1	2019_Mar_11_1118	s	s	15	1	SIC	48	ABS	0	0	1	3	24_1_3	NA	NA	0	1	3.41006112099	None	None	None	None	1
3.0.1	2019_Mar_11_1118	s	s	15	1	SIC	49	ABS	0	0	2	4	24_2_4	NA	NA	0	1	2.53972005844	None	None	None	None	1
3.0.1	2019_Mar_11_1118	s	s	15	1	SIC	50	ABS	0	0	1	2	24_1_2	NA	NA	0	1	3.99812602997	None	None	None	None	1
3.0.1	2019_Mar_11_1118	s	s	15	1	SIC	51	2_4	2	4	1	4	23_1_4	-1	0	1	0	2.05760622025	-25.0	-357.0	-29.0	-360.0	1
3.0.1	2019_Mar_11_1118	s	s	15	1	SIC	52	ABS	0	0	1	4	24_1_4	NA	NA	0	1	1.92822599411	None	None	None	None	1
3.0.1	2019_Mar_11_1118	s	s	15	1	SIC	53	ABS	0	0	2	3	24_2_3	NA	NA	0	1	3.76697397232	None	None	None	None	1
3.0.1	2019_Mar_11_1118	s	s	15	1	SIC	54	2_3	2	3	3	4	23_3_4	1	-1	1	0	0.634692907333	-401.0	267.0	-403.0	271.0	1
3.0.1	2019_Mar_11_1118	s	s	15	1	SIC	55	ABS	0	0	4	1	24_4_1	NA	NA	0	1	1.43706703186	None	None	None	None	1
3.0.1	2019_Mar_11_1118	s	s	15	1	SIC	56	ABS	0	0	1	4	24_1_4	NA	NA	0	1	2.41033005714	None	None	None	None	1
3.0.1	2019_Mar_11_1118	s	s	15	1	SIC	57	4_4	4	4	2	2	23_2_2	2	2	1	0	0.563884019852	190.0	38.0	189.0	21.0	1
3.0.1	2019_Mar_11_1118	s	s	15	1	SIC	58	2_2	2	2	3	1	23_3_1	1	-1	1	0	0.834383964539	228.0	-103.0	216.0	-102.0	1
3.0.1	2019_Mar_11_1118	s	s	15	1	SIC	59	2_3	2	3	2	2	23_2_2	0	1	0	1	2.56831598282	-86.0	336.0	None	None	0
3.0.1	2019_Mar_11_1118	s	s	15	1	SIC	60	ABS	0	0	4	2	24_4_2	NA	NA	0	1	2.0692961216	None	None	None	None	1
3.0.1	2019_Mar_11_1118	s	s	15	1	SIC	61	ABS	0	0	2	2	24_2_2	NA	NA	0	1	1.76349115372	None	None	None	None	1
3.0.1	2019_Mar_11_1118	s	s	15	1	SIC	62	2_3	2	3	3	1	23_3_1	1	2	1	0	1.11661911011	425.0	82.0	422.0	79.0	1
3.0.1	2019_Mar_11_1118	s	s	15	1	SIC	63	4_2	4	2	3	1	23_3_1	1	-1	1	0	0.540673971176	102.0	11.0	104.0	6.0	1
3.0.1	2019_Mar_11_1118	s	s	15	1	SIC	64	4_1	4	1	3	2	23_3_2	1	1	1	0	0.58781003952	513.0	-340.0	513.0	-339.0	1
3.0.1	2019_Mar_11_1118	s	s	15	1	SIC	65	ABS	0	0	4	4	24_4_4	NA	NA	0	1	2.34422802925	None	None	None	None	1
3.0.1	2019_Mar_11_1118	s	s	15	1	SIC	66	2_3	2	3	4	1	23_4_1	2	2	1	0	0.528623104095	133.0	342.0	133.0	332.0	1
3.0.1	2019_Mar_11_1118	s	s	15	1	SIC	67	2_4	2	4	3	4	23_3_4	1	0	1	0	1.02548003197	21.0	-263.0	24.0	-270.0	1
3.0.1	2019_Mar_11_1118	s	s	15	1	SIC	68	1_1	1	1	4	4	23_4_4	3	3	1	0	0.752112150192	-280.0	38.0	-283.0	41.0	1
3.0.1	2019_Mar_11_1118	s	s	15	1	SIC	69	2_1	2	1	3	4	23_3_4	1	3	1	0	0.522861003876	-356.0	-91.0	-350.0	-95.0	1
3.0.1	2019_Mar_11_1118	s	s	15	1	SIC	70	1_2	1	2	2	3	23_2_3	1	1	1	0	3.49740004539	7.0	330.0	3.0	330.0	1
3.0.1	2019_Mar_11_1118	s	s	15	1	SIC	71	ABS	0	0	3	4	24_3_4	NA	NA	0	1	2.73423695564	None	None	None	None	1
3.0.1	2019_Mar_11_1118	s	s	15	1	SIC	72	ABS	0	0	2	3	24_2_3	NA	NA	0	1	5.16242218018	None	None	None	None	1
3.0.1	2019_Mar_11_1118	s	s	15	1	SIC	73	ABS	0	0	3	4	24_3_4	NA	NA	0	1	2.7093360424	None	None	None	None	1
3.0.1	2019_Mar_11_1118	s	s	15	1	SIC	74	ABS	0	0	1	3	24_1_3	NA	NA	0	1	1.66389107704	None	None	None	None	1
3.0.1	2019_Mar_11_1118	s	s	15	1	SIC	75	2_3	2	3	1	2	23_1_2	-1	1	0	1	1.87564611435	87.0	-229.0	None	None	0
3.0.1	2019_Mar_11_1118	s	s	15	1	SIC	76	ABS	0	0	3	4	24_3_4	NA	NA	0	1	1.7634510994	None	None	None	None	1
3.0.1	2019_Mar_11_1118	s	s	15	1	SIC	77	4_3	4	3	3	4	23_3_4	1	-1	1	0	0.627947092056	-332.0	-141.0	-337.0	-140.0	1
3.0.1	2019_Mar_11_1118	s	s	15	1	SIC	78	3_4	3	4	4	1	23_4_1	-1	3	1	0	0.677518129349	47.0	-367.0	42.0	-368.0	1
3.0.1	2019_Mar_11_1118	s	s	15	1	SIC	79	ABS	0	0	4	1	24_4_1	NA	NA	0	1	1.43711018562	None	None	None	None	1
3.0.1	2019_Mar_11_1118	s	s	15	1	SIC	80	ABS	0	0	3	3	24_3_3	NA	NA	0	1	1.5165438652	None	None	None	None	1
3.0.1	2019_Mar_11_1118	s	s	15	1	SIC	81	ABS	0	0	4	2	24_4_2	NA	NA	0	1	2.60351490974	None	None	None	None	1
3.0.1	2019_Mar_11_1118	s	s	15	1	SIC	82	4_2	4	2	1	2	23_1_2	3	0	1	0	0.575564861298	91.0	-302.0	88.0	-308.0	1
3.0.1	2019_Mar_11_1118	s	s	15	1	SIC	83	1_3	1	3	3	1	23_3_1	2	2	1	0	0.578454017639	-172.0	156.0	-176.0	160.0	1
3.0.1	2019_Mar_11_1118	s	s	15	1	SIC	84	3_3	3	3	4	2	23_4_2	-1	1	1	0	0.446230888367	38.0	-91.0	31.0	-98.0	1
3.0.1	2019_Mar_11_1118	s	s	15	1	SIC	85	ABS	0	0	3	4	24_3_4	NA	NA	0	1	1.12845182419	None	None	None	None	1
3.0.1	2019_Mar_11_1118	s	s	15	1	SIC	86	ABS	0	0	4	3	24_4_3	NA	NA	0	1	2.05752801895	None	None	None	None	1
3.0.1	2019_Mar_11_1118	s	s	15	1	SIC	87	4_4	4	4	3	3	23_3_3	1	1	1	0	0.545257806778	-63.0	173.0	-63.0	159.0	1
3.0.1	2019_Mar_11_1118	s	s	15	1	SIC	88	ABS	0	0	1	2	24_1_2	NA	NA	0	1	1.05138015747	None	None	None	None	1
3.0.1	2019_Mar_11_1118	s	s	15	1	SIC	89	3_2	3	2	3	3	23_3_3	0	1	0	1	4.18919992447	-479.0	216.0	None	None	0
3.0.1	2019_Mar_11_1118	s	s	15	1	SIC	90	ABS	0	0	4	1	24_4_1	NA	NA	0	1	2.90724992752	None	None	None	None	1
3.0.1	2019_Mar_11_1118	s	s	15	1	SIC	91	ABS	0	0	4	4	24_4_4	NA	NA	0	1	2.20157599449	None	None	None	None	1
3.0.1	2019_Mar_11_1118	s	s	15	1	SIC	92	ABS	0	0	2	2	24_2_2	NA	NA	0	1	1.08423018456	None	None	None	None	1
3.0.1	2019_Mar_11_1118	s	s	15	1	SIC	93	ABS	0	0	3	1	24_3_1	NA	NA	0	1	1.68801689148	None	None	None	None	1
3.0.1	2019_Mar_11_1118	s	s	15	1	SIC	94	ABS	0	0	1	2	24_1_2	NA	NA	0	1	2.28100585938	None	None	None	None	1
3.0.1	2019_Mar_11_1118	s	s	15	1	SIC	95	ABS	0	0	4	1	24_4_1	NA	NA	0	1	0.869616031647	None	None	None	None	1
3.0.1	2019_Mar_11_1118	s	s	15	1	SIC	96	ABS	0	0	1	3	24_1_3	NA	NA	0	1	3.46227693558	None	None	None	None	1
3.0.1	2019_Mar_11_1118	s	s	15	1	SIC	97	2_2	2	2	2	3	23_2_3	0	1	0	1	2.09284996986	349.0	-239.0	None	None	0
3.0.1	2019_Mar_11_1118	s	s	15	1	SIC	98	ABS	0	0	1	1	24_1_1	NA	NA	0	1	1.83410215378	None	None	None	None	1
3.0.1	2019_Mar_11_1118	s	s	15	1	SIC	99	3_3	3	3	2	1	23_2_1	1	2	1	0	0.697329998016	-11.0	-8.0	-8.0	2.0	1
3.0.1	2019_Mar_11_1118	s	s	15	1	SIC	100	1_1	1	1	1	2	23_1_2	0	1	0	1	1.234197855	372.0	53.0	None	None	0
3.0.1	2019_Mar_11_1118	s	s	15	1	SIC	101	3_3	3	3	1	4	23_1_4	2	-1	1	0	0.646191120148	150.0	216.0	150.0	212.0	1
3.0.1	2019_Mar_11_1118	s	s	15	1	SIC	102	4_3	4	3	3	3	23_3_3	1	0	1	0	0.663089036942	122.0	158.0	116.0	158.0	1
3.0.1	2019_Mar_11_1118	s	s	15	1	SIC	103	ABS	0	0	1	2	24_1_2	NA	NA	0	1	0.881412982941	None	None	None	None	1
3.0.1	2019_Mar_11_1118	s	s	15	1	SIC	104	ABS	0	0	4	2	24_4_2	NA	NA	0	1	0.763772010803	None	None	None	None	1
3.0.1	2019_Mar_11_1118	s	s	15	1	SIC	105	1_1	1	1	4	1	23_4_1	3	0	1	0	0.469865083694	302.0	-131.0	297.0	-133.0	1
3.0.1	2019_Mar_11_1118	s	s	15	1	SIC	106	3_1	3	1	3	4	23_3_4	0	3	1	0	0.804645061493	-268.0	-213.0	-267.0	-211.0	1
3.0.1	2019_Mar_11_1118	s	s	15	1	SIC	107	3_3	3	3	2	3	23_2_3	1	0	1	0	0.716736793518	471.0	-153.0	470.0	-155.0	1
3.0.1	2019_Mar_11_1118	s	s	15	1	SIC	108	2_2	2	2	2	1	23_2_1	0	-1	0	1	1.17969298363	-200.0	-236.0	None	None	0
3.0.1	2019_Mar_11_1118	s	s	15	1	SIC	109	2_1	2	1	1	2	23_1_2	-1	1	1	0	2.30451798439	-212.0	406.0	-219.0	404.0	1
3.0.1	2019_Mar_11_1118	s	s	15	1	SIC	110	ABS	0	0	3	3	24_3_3	NA	NA	0	1	2.0457098484	None	None	None	None	1
3.0.1	2019_Mar_11_1118	s	s	15	1	SIC	111	2_2	2	2	3	2	23_3_2	1	0	1	0	0.575672864914	168.0	-31.0	167.0	-33.0	1
3.0.1	2019_Mar_11_1118	s	s	15	1	SIC	112	ABS	0	0	1	1	24_1_1	NA	NA	0	1	1.93990588188	None	None	None	None	1
3.0.1	2019_Mar_11_1118	s	s	15	1	SIC	113	ABS	0	0	2	3	24_2_3	NA	NA	0	1	3.07558298111	None	None	None	None	1
3.0.1	2019_Mar_11_1118	s	s	15	1	SIC	114	ABS	0	0	4	2	24_4_2	NA	NA	0	1	2.94331002235	None	None	None	None	1
3.0.1	2019_Mar_11_1118	s	s	15	1	SIC	115	1_3	1	3	4	1	23_4_1	3	2	1	0	0.540570020676	184.0	-131.0	175.0	-129.0	1
3.0.1	2019_Mar_11_1118	s	s	15	1	SIC	116	2_2	2	2	3	4	23_3_4	1	2	1	0	0.834408044815	522.0	-382.0	527.0	-384.0	1
3.0.1	2019_Mar_11_1118	s	s	15	1	SIC	117	2_2	2	2	4	2	23_4_2	2	0	1	0	0.528524875641	-375.0	83.0	-382.0	81.0	1
3.0.1	2019_Mar_11_1118	s	s	15	1	SIC	118	ABS	0	0	4	3	24_4_3	NA	NA	0	1	3.90690803528	None	None	None	None	1
3.0.1	2019_Mar_11_1118	s	s	15	1	SIC	119	1_3	1	3	4	4	23_4_4	3	-1	1	0	0.516841173172	206.0	221.0	213.0	214.0	1
3.0.1	2019_Mar_11_1118	s	s	15	1	SIC	120	4_1	4	1	1	2	23_1_2	3	1	1	0	0.502765893936	178.0	-52.0	175.0	-45.0	1
3.0.1	2019_Mar_11_1118	s	s	15	1	SIC	121	3_2	3	2	1	4	23_1_4	2	2	1	0	0.834347963333	512.0	-221.0	511.0	-216.0	1
3.0.1	2019_Mar_11_1118	s	s	15	1	SIC	122	2_4	2	4	4	3	23_4_3	2	1	1	0	0.54364490509	-320.0	-32.0	-325.0	-27.0	1
3.0.1	2019_Mar_11_1118	s	s	15	1	SIC	123	ABS	0	0	4	3	24_4_3	NA	NA	0	1	0.628677129745	None	None	None	None	1
3.0.1	2019_Mar_11_1118	s	s	15	1	SIC	124	1_3	1	3	2	2	23_2_2	1	1	0	1	8.06740808487	132.0	-272.0	None	None	0
3.0.1	2019_Mar_11_1118	s	s	15	1	SIC	125	ABS	0	0	1	2	24_1_2	NA	NA	0	1	2.62201094627	None	None	None	None	1
3.0.1	2019_Mar_11_1118	s	s	15	1	SIC	126	ABS	0	0	4	3	24_4_3	NA	NA	0	1	2.67200517654	None	None	None	None	1
3.0.1	2019_Mar_11_1118	s	s	15	1	SIC	127	4_2	4	2	3	2	23_3_2	1	0	1	0	0.575538158417	466.0	-110.0	473.0	-112.0	1
3.0.1	2019_Mar_11_1118	s	s	15	1	SIC	128	ABS	0	0	1	3	24_1_3	NA	NA	0	1	2.07449412346	None	None	None	None	1
3.0.1	2019_Mar_11_1118	s	s	15	1	SIC	129	ABS	0	0	2	1	24_2_1	NA	NA	0	1	2.81703591347	None	None	None	None	1
3.0.1	2019_Mar_11_1118	s	s	15	1	SIC	130	4_4	4	4	3	4	23_3_4	1	0	1	0	0.516785860062	237.0	10.0	225.0	13.0	1
3.0.1	2019_Mar_11_1118	s	s	15	1	SIC	131	ABS	0	0	3	3	24_3_3	NA	NA	0	1	1.10483503342	None	None	None	None	1
3.0.1	2019_Mar_11_1118	s	s	15	1	SIC	132	ABS	0	0	4	4	24_4_4	NA	NA	0	1	1.48128700256	None	None	None	None	1
3.0.1	2019_Mar_11_1118	s	s	15	1	SIC	133	2_2	2	2	4	3	23_4_3	2	1	1	0	0.473937034607	-218.0	-171.0	-220.0	-175.0	1
3.0.1	2019_Mar_11_1118	s	s	15	1	SIC	134	ABS	0	0	4	2	24_4_2	NA	NA	0	1	1.37537717819	None	None	None	None	1
3.0.1	2019_Mar_11_1118	s	s	15	1	SIC	135	ABS	0	0	1	3	24_1_3	NA	NA	0	1	2.20408010483	None	None	None	None	1
3.0.1	2019_Mar_11_1118	s	s	15	1	SIC	136	4_2	4	2	2	3	23_2_3	2	1	1	0	0.535355091095	56.0	282.0	53.0	287.0	1
3.0.1	2019_Mar_11_1118	s	s	15	1	SIC	137	ABS	0	0	4	3	24_4_3	NA	NA	0	1	0.9990670681	None	None	None	None	1
3.0.1	2019_Mar_11_1118	s	s	15	1	SIC	138	1_1	1	1	1	3	23_1_3	0	2	0	1	1.5007750988	223.0	407.0	None	None	0
3.0.1	2019_Mar_11_1118	s	s	15	1	SIC	139	ABS	0	0	2	2	24_2_2	NA	NA	0	1	1.39316296577	None	None	None	None	1
3.0.1	2019_Mar_11_1118	s	s	15	1	SIC	140	1_4	1	4	3	3	23_3_3	2	1	1	0	0.665693998337	-447.0	-46.0	-437.0	-47.0	1
3.0.1	2019_Mar_11_1118	s	s	15	1	SIC	141	ABS	0	0	3	1	24_3_1	NA	NA	0	1	0.602020025253	None	None	None	None	1
3.0.1	2019_Mar_11_1118	s	s	15	1	SIC	142	ABS	0	0	2	4	24_2_4	NA	NA	0	1	1.0630838871	None	None	None	None	1
3.0.1	2019_Mar_11_1118	s	s	15	1	SIC	143	1_3	1	3	4	2	23_4_2	3	1	1	0	0.496213197708	-242.0	358.0	-250.0	356.0	1
3.0.1	2019_Mar_11_1118	s	s	15	1	SIC	144	3_2	3	2	1	3	23_1_3	2	1	1	0	0.693186998367	160.0	-179.0	160.0	-171.0	1
3.0.1	2019_Mar_11_1118	s	s	15	1	SIC	145	1_4	1	4	4	2	23_4_2	3	2	1	0	0.516773939133	-338.0	302.0	-339.0	299.0	1
3.0.1	2019_Mar_11_1118	s	s	15	1	SIC	146	1_2	1	2	4	1	23_4_1	3	-1	1	0	0.540410995483	-137.0	-371.0	-132.0	-381.0	1
3.0.1	2019_Mar_11_1118	s	s	15	1	SIC	147	1_4	1	4	2	1	23_2_1	1	3	1	0	1.21083188057	305.0	-327.0	302.0	-330.0	1
3.0.1	2019_Mar_11_1118	s	s	15	1	SIC	148	ABS	0	0	3	2	24_3_2	NA	NA	0	1	3.95105290413	None	None	None	None	1
3.0.1	2019_Mar_11_1118	s	s	15	1	SIC	149	2_2	2	2	1	3	23_1_3	-1	1	0	1	3.21016788483	516.0	281.0	None	None	0
3.0.1	2019_Mar_11_1118	s	s	15	1	SIC	150	ABS	0	0	3	4	24_3_4	NA	NA	0	1	2.78163313866	None	None	None	None	1
3.0.1	2019_Mar_11_1118	s	s	15	1	SIC	151	ABS	0	0	1	1	24_1_1	NA	NA	0	1	1.87221217155	None	None	None	None	1
3.0.1	2019_Mar_11_1118	s	s	15	1	SIC	152	ABS	0	0	3	2	24_3_2	NA	NA	0	1	3.58652114868	None	None	None	None	1
3.0.1	2019_Mar_11_1118	s	s	15	1	SIC	153	3_2	3	2	2	2	23_2_2	1	0	1	0	1.63924694061	539.0	-80.0	542.0	-83.0	1
3.0.1	2019_Mar_11_1118	s	s	15	1	SIC	154	ABS	0	0	4	3	24_4_3	NA	NA	0	1	2.84948086739	None	None	None	None	1
3.0.1	2019_Mar_11_1118	s	s	15	1	SIC	155	ABS	0	0	1	3	24_1_3	NA	NA	0	1	2.1104118824	None	None	None	None	1
3.0.1	2019_Mar_11_1118	s	s	15	1	SIC	156	ABS	0	0	1	4	24_1_4	NA	NA	0	1	2.23391389847	None	None	None	None	1
3.0.1	2019_Mar_11_1118	s	s	15	1	SIC	157	ABS	0	0	4	1	24_4_1	NA	NA	0	1	1.93109512329	None	None	None	None	1
3.0.1	2019_Mar_11_1118	s	s	15	1	SIC	158	4_4	4	4	2	1	23_2_1	2	3	1	0	0.504980802536	132.0	103.0	142.0	111.0	1
3.0.1	2019_Mar_11_1118	s	s	15	1	SIC	159	ABS	0	0	2	2	24_2_2	NA	NA	0	1	2.92775511742	None	None	None	None	1
3.0.1	2019_Mar_11_1118	s	s	15	1	SIC	160	ABS	0	0	4	4	24_4_4	NA	NA	0	1	2.39864802361	None	None	None	None	1
3.0.1	2019_Mar_11_1118	s	s	15	1	SIC	161	4_4	4	4	1	4	23_1_4	3	0	1	0	0.559901952744	-532.0	224.0	-529.0	229.0	1
3.0.1	2019_Mar_11_1118	s	s	15	1	SIC	162	ABS	0	0	4	3	24_4_3	NA	NA	0	1	2.69269108772	None	None	None	None	1
3.0.1	2019_Mar_11_1118	s	s	15	1	SIC	163	3_4	3	4	1	4	23_1_4	2	0	1	0	1.10482692719	181.0	-20.0	185.0	-24.0	1
3.0.1	2019_Mar_11_1118	s	s	15	1	SIC	164	2_1	2	1	2	4	23_2_4	0	3	1	0	0.693167924881	213.0	275.0	210.0	279.0	1
3.0.1	2019_Mar_11_1118	s	s	15	1	SIC	165	ABS	0	0	3	3	24_3_3	NA	NA	0	1	3.4155728817	None	None	None	None	1
3.0.1	2019_Mar_11_1118	s	s	15	1	SIC	166	ABS	0	0	2	4	24_2_4	NA	NA	0	1	2.73078203201	None	None	None	None	1
3.0.1	2019_Mar_11_1118	s	s	15	1	SIC	167	ABS	0	0	2	3	24_2_3	NA	NA	0	1	3.22185611725	None	None	None	None	1
3.0.1	2019_Mar_11_1118	s	s	15	1	SIC	168	ABS	0	0	2	2	24_2_2	NA	NA	0	1	2.76815319061	None	None	None	None	1
3.0.1	2019_Mar_11_1118	s	s	15	1	SIC	169	3_2	3	2	1	1	23_1_1	2	-1	1	0	0.587280988693	-390.0	363.0	-393.0	367.0	1
3.0.1	2019_Mar_11_1118	s	s	15	1	SIC	170	ABS	0	0	3	2	24_3_2	NA	NA	0	1	2.27414083481	None	None	None	None	1
3.0.1	2019_Mar_11_1118	s	s	15	1	SIC	171	4_4	4	4	4	1	23_4_1	0	3	1	0	0.579416036606	417.0	-31.0	415.0	-35.0	1
3.0.1	2019_Mar_11_1118	s	s	15	1	SIC	172	ABS	0	0	4	3	24_4_3	NA	NA	0	1	1.50034403801	None	None	None	None	1
3.0.1	2019_Mar_11_1118	s	s	15	1	SIC	173	4_3	4	3	2	1	23_2_1	2	2	1	0	0.516821861267	227.0	349.0	229.0	351.0	1
3.0.1	2019_Mar_11_1118	s	s	15	1	SIC	174	2_4	2	4	3	2	23_3_2	1	2	1	0	1.18721389771	405.0	243.0	401.0	234.0	1
3.0.1	2019_Mar_11_1118	s	s	15	1	SIC	175	ABS	0	0	3	2	24_3_2	NA	NA	0	1	2.09068608284	None	None	None	None	1
3.0.1	2019_Mar_11_1118	s	s	15	1	SIC	176	ABS	0	0	4	3	24_4_3	NA	NA	0	1	2.26699495316	None	None	None	None	1
3.0.1	2019_Mar_11_1118	s	s	15	1	SIC	177	ABS	0	0	2	4	24_2_4	NA	NA	0	1	2.39178204536	None	None	None	None	1
3.0.1	2019_Mar_11_1118	s	s	15	1	SIC	178	ABS	0	0	3	4	24_3_4	NA	NA	0	1	1.73503708839	None	None	None	None	1
3.0.1	2019_Mar_11_1118	s	s	15	1	SIC	179	ABS	0	0	1	4	24_1_4	NA	NA	0	1	1.44425797462	None	None	None	None	1
3.0.1	2019_Mar_11_1118	s	s	15	1	SIC	180	4_2	4	2	4	4	23_4_4	0	2	1	0	1.12054514885	220.0	333.0	221.0	327.0	1
3.0.1	2019_Mar_11_1118	s	s	15	1	SIC	181	ABS	0	0	2	4	24_2_4	NA	NA	0	1	1.62799882889	None	None	None	None	1
3.0.1	2019_Mar_11_1118	s	s	15	1	SIC	182	ABS	0	0	3	3	24_3_3	NA	NA	0	1	1.91672086716	None	None	None	None	1
3.0.1	2019_Mar_11_1118	s	s	15	1	SIC	183	ABS	0	0	2	3	24_2_3	NA	NA	0	1	3.27184700966	None	None	None	None	1
3.0.1	2019_Mar_11_1118	s	s	15	1	SIC	184	ABS	0	0	2	3	24_2_3	NA	NA	0	1	3.64529895782	None	None	None	None	1
3.0.1	2019_Mar_11_1118	s	s	15	1	SIC	185	ABS	0	0	4	2	24_4_2	NA	NA	0	1	2.54456400871	None	None	None	None	1
3.0.1	2019_Mar_11_1118	s	s	15	1	SIC	186	ABS	0	0	1	1	24_1_1	NA	NA	0	1	1.55188202858	None	None	None	None	1
3.0.1	2019_Mar_11_1118	s	s	15	1	SIC	187	1_4	1	4	2	4	23_2_4	1	0	0	1	1.61448907852	-176.0	116.0	None	None	0
3.0.1	2019_Mar_11_1118	s	s	15	1	SIC	188	1_3	1	3	2	1	23_2_1	1	2	1	0	2.10505986214	355.0	199.0	348.0	200.0	1
3.0.1	2019_Mar_11_1118	s	s	15	1	SIC	189	ABS	0	0	1	2	24_1_2	NA	NA	0	1	3.08369612694	None	None	None	None	1
3.0.1	2019_Mar_11_1118	s	s	15	1	SIC	190	2_4	2	4	3	1	23_3_1	1	3	1	0	0.60567688942	139.0	359.0	141.0	360.0	1
3.0.1	2019_Mar_11_1118	s	s	15	1	SIC	191	ABS	0	0	4	3	24_4_3	NA	NA	0	1	1.62231206894	None	None	None	None	1
3.0.1	2019_Mar_11_1118	s	s	15	1	SIC	192	1_4	1	4	3	1	23_3_1	2	3	1	0	0.619853973389	-98.0	341.0	-95.0	328.0	1
3.0.1	2019_Mar_11_1118	s	s	15	1	SIC	193	ABS	0	0	1	1	24_1_1	NA	NA	0	1	2.22218084335	None	None	None	None	1
3.0.1	2019_Mar_11_1118	s	s	15	1	SIC	194	ABS	0	0	2	3	24_2_3	NA	NA	0	1	1.56093883514	None	None	None	None	1
3.0.1	2019_Mar_11_1118	s	s	15	1	SIC	195	ABS	0	0	3	2	24_3_2	NA	NA	0	1	1.56816196442	None	None	None	None	1
3.0.1	2019_Mar_11_1118	s	s	15	1	SIC	196	ABS	0	0	2	4	24_2_4	NA	NA	0	1	1.60660409927	None	None	None	None	1
3.0.1	2019_Mar_11_1118	s	s	15	1	SIC	197	1_2	1	2	3	3	23_3_3	2	1	1	0	0.849044084549	-523.0	353.0	-528.0	345.0	1
3.0.1	2019_Mar_11_1118	s	s	15	1	SIC	198	ABS	0	0	3	2	24_3_2	NA	NA	0	1	0.944412946701	None	None	None	None	1
3.0.1	2019_Mar_11_1118	s	s	15	1	SIC	199	3_4	3	4	1	1	23_1_1	2	3	1	0	0.613816022873	54.0	209.0	55.0	205.0	1
3.0.1	2019_Mar_11_1118	s	s	15	1	SIC	200	ABS	0	0	3	3	24_3_3	NA	NA	0	1	1.84078001976	None	None	None	None	1
3.0.1	2019_Mar_11_1118	s	s	15	1	SIC	201	3_1	3	1	2	2	23_2_2	1	1	1	0	1.37538409233	385.0	-373.0	377.0	-371.0	1
3.0.1	2019_Mar_11_1118	s	s	15	1	SIC	202	4_1	4	1	2	1	23_2_1	2	0	1	0	0.533675909042	-499.0	408.0	-500.0	402.0	1
3.0.1	2019_Mar_11_1118	s	s	15	1	SIC	203	ABS	0	0	3	3	24_3_3	NA	NA	0	1	1.44885110855	None	None	None	None	1
3.0.1	2019_Mar_11_1118	s	s	15	1	SIC	204	2_1	2	1	2	3	23_2_3	0	2	0	1	2.65737605095	229.0	-391.0	None	None	0
3.0.1	2019_Mar_11_1118	s	s	15	1	SIC	205	4_1	4	1	3	4	23_3_4	1	3	1	0	0.486552000046	-290.0	189.0	-289.0	181.0	1
3.0.1	2019_Mar_11_1118	s	s	15	1	SIC	206	2_4	2	4	4	2	23_4_2	2	2	1	0	0.505044937134	82.0	-85.0	87.0	-89.0	1
3.0.1	2019_Mar_11_1118	s	s	15	1	SIC	207	2_3	2	3	1	1	23_1_1	-1	2	0	1	1.70470094681	-395.0	348.0	None	None	0
3.0.1	2019_Mar_11_1118	s	s	15	1	SIC	208	4_4	4	4	4	3	23_4_3	0	1	1	0	0.575623035431	-205.0	35.0	-200.0	40.0	1
3.0.1	2019_Mar_11_1118	s	s	15	1	SIC	209	2_2	2	2	3	3	23_3_3	1	1	1	0	1.04129099846	-16.0	-153.0	-5.0	-143.0	1
3.0.1	2019_Mar_11_1118	s	s	15	1	SIC	210	2_1	2	1	2	2	23_2_2	0	1	0	1	1.12842512131	164.0	-336.0	None	None	0
3.0.1	2019_Mar_11_1118	s	s	15	1	SIC	211	1_1	1	1	2	1	23_2_1	1	0	1	0	3.14253807068	476.0	131.0	470.0	123.0	1
3.0.1	2019_Mar_11_1118	s	s	15	1	SIC	212	ABS	0	0	2	1	24_2_1	NA	NA	0	1	1.37825989723	None	None	None	None	1
3.0.1	2019_Mar_11_1118	s	s	15	1	SIC	213	2_3	2	3	4	2	23_4_2	2	1	1	0	0.510043144226	-136.0	-58.0	-143.0	-60.0	1
3.0.1	2019_Mar_11_1118	s	s	15	1	SIC	214	3_3	3	3	2	2	23_2_2	1	1	1	0	0.885076999664	-445.0	59.0	-437.0	57.0	1
3.0.1	2019_Mar_11_1118	s	s	15	1	SIC	215	ABS	0	0	1	2	24_1_2	NA	NA	0	1	1.97849106789	None	None	None	None	1
3.0.1	2019_Mar_11_1118	s	s	15	1	SIC	216	3_2	3	2	2	3	23_2_3	1	1	1	0	0.65797495842	126.0	62.0	138.0	71.0	1
3.0.1	2019_Mar_11_1118	s	s	15	1	SIC	217	ABS	0	0	4	4	24_4_4	NA	NA	0	1	2.4457359314	None	None	None	None	1
3.0.1	2019_Mar_11_1118	s	s	15	1	SIC	218	3_1	3	1	3	2	23_3_2	0	1	0	1	1.61347317696	-360.0	268.0	None	None	0
3.0.1	2019_Mar_11_1118	s	s	15	1	SIC	219	2_4	2	4	1	3	23_1_3	-1	1	1	0	1.128428936	195.0	-280.0	191.0	-279.0	1
3.0.1	2019_Mar_11_1118	s	s	15	1	SIC	220	3_4	3	4	2	2	23_2_2	1	2	1	0	0.744809865952	444.0	153.0	447.0	148.0	1
3.0.1	2019_Mar_11_1118	s	s	15	1	SIC	221	ABS	0	0	2	3	24_2_3	NA	NA	0	1	1.35675501823	None	None	None	None	1
3.0.1	2019_Mar_11_1118	s	s	15	1	SIC	222	2_4	2	4	2	1	23_2_1	0	3	1	0	1.27615380287	465.0	-379.0	466.0	-382.0	1
3.0.1	2019_Mar_11_1118	s	s	15	1	SIC	223	ABS	0	0	2	4	24_2_4	NA	NA	0	1	1.30475401878	None	None	None	None	1
3.0.1	2019_Mar_11_1118	s	s	15	1	SIC	224	3_1	3	1	4	3	23_4_3	-1	2	1	0	0.905366897583	410.0	2.0	405.0	6.0	1
3.0.1	2019_Mar_11_1118	s	s	15	1	SIC	225	ABS	0	0	4	2	24_4_2	NA	NA	0	1	1.59925699234	None	None	None	None	1
3.0.1	2019_Mar_11_1118	s	s	15	1	SIC	226	ABS	0	0	2	4	24_2_4	NA	NA	0	1	2.05084586143	None	None	None	None	1
3.0.1	2019_Mar_11_1118	s	s	15	1	SIC	227	4_1	4	1	1	1	23_1_1	3	0	1	0	0.505038022995	524.0	163.0	525.0	162.0	1
3.0.1	2019_Mar_11_1118	s	s	15	1	SIC	228	2_2	2	2	4	4	23_4_4	2	2	1	0	0.693182945251	-182.0	-321.0	-189.0	-321.0	1
3.0.1	2019_Mar_11_1118	s	s	15	1	SIC	229	2_1	2	1	3	1	23_3_1	1	0	1	0	0.578818082809	-235.0	-195.0	-232.0	-191.0	1
3.0.1	2019_Mar_11_1118	s	s	15	1	SIC	230	4_1	4	1	3	1	23_3_1	1	0	1	0	0.532757043839	397.0	201.0	396.0	198.0	1
3.0.1	2019_Mar_11_1118	s	s	15	1	SIC	231	4_1	4	1	2	2	23_2_2	2	1	1	0	0.451614141464	304.0	30.0	301.0	28.0	1
3.0.1	2019_Mar_11_1118	s	s	15	1	SIC	232	1_4	1	4	4	4	23_4_4	3	0	1	0	0.622725963593	-522.0	-332.0	-536.0	-327.0	1
3.0.1	2019_Mar_11_1118	s	s	15	1	SIC	233	3_1	3	1	3	3	23_3_3	0	2	1	0	2.46920084953	255.0	167.0	261.0	171.0	1
3.0.1	2019_Mar_11_1118	s	s	15	1	SIC	234	1_1	1	1	2	2	23_2_2	1	1	1	0	1.54008698463	-234.0	113.0	-231.0	104.0	1
3.0.1	2019_Mar_11_1118	s	s	15	1	SIC	235	1_2	1	2	3	2	23_3_2	2	0	1	0	0.604058027267	-121.0	-103.0	-122.0	-102.0	1
3.0.1	2019_Mar_11_1118	s	s	15	1	SIC	236	3_4	3	4	1	2	23_1_2	2	2	1	0	0.813653945923	167.0	-408.0	167.0	-405.0	1
3.0.1	2019_Mar_11_1118	s	s	15	1	SIC	237	2_4	2	4	4	4	23_4_4	2	0	1	0	0.499050140381	322.0	-254.0	317.0	-252.0	1
3.0.1	2019_Mar_11_1118	s	s	15	1	SIC	238	ABS	0	0	2	4	24_2_4	NA	NA	0	1	1.82643008232	None	None	None	None	1
3.0.1	2019_Mar_11_1118	s	s	15	1	SIC	239	ABS	0	0	4	3	24_4_3	NA	NA	0	1	1.66938114166	None	None	None	None	1
3.0.1	2019_Mar_11_1118	s	s	15	1	SIC	240	2_1	2	1	4	2	23_4_2	2	1	1	0	0.521775007248	-534.0	21.0	-532.0	25.0	1
3.0.1	2019_Mar_11_1118	s	s	15	1	SIC	241	ABS	0	0	1	1	24_1_1	NA	NA	0	1	1.37265896797	None	None	None	None	1
3.0.1	2019_Mar_11_1118	s	s	15	1	SIC	242	ABS	0	0	3	3	24_3_3	NA	NA	0	1	1.36686897278	None	None	None	None	1
3.0.1	2019_Mar_11_1118	s	s	15	1	SIC	243	ABS	0	0	4	2	24_4_2	NA	NA	0	1	1.92815995216	None	None	None	None	1
3.0.1	2019_Mar_11_1118	s	s	15	1	SIC	244	ABS	0	0	3	4	24_3_4	NA	NA	0	1	2.06233215332	None	None	None	None	1
3.0.1	2019_Mar_11_1118	s	s	15	1	SIC	245	2_3	2	3	4	4	23_4_4	2	-1	1	0	0.510702133179	283.0	404.0	285.0	402.0	1
3.0.1	2019_Mar_11_1118	s	s	15	1	SIC	246	ABS	0	0	2	4	24_2_4	NA	NA	0	1	1.25111699104	None	None	None	None	1
3.0.1	2019_Mar_11_1118	s	s	15	1	SIC	247	ABS	0	0	2	2	24_2_2	NA	NA	0	1	1.35177707672	None	None	None	None	1
3.0.1	2019_Mar_11_1118	s	s	15	1	SIC	248	ABS	0	0	2	1	24_2_1	NA	NA	0	1	1.14305710793	None	None	None	None	1
3.0.1	2019_Mar_11_1118	s	s	15	1	SIC	249	ABS	0	0	1	1	24_1_1	NA	NA	0	1	0.822950124741	None	None	None	None	1
3.0.1	2019_Mar_11_1118	s	s	15	1	SIC	250	ABS	0	0	1	3	24_1_3	NA	NA	0	1	1.12056684494	None	None	None	None	1
3.0.1	2019_Mar_11_1118	s	s	15	1	SIC	251	3_3	3	3	3	4	23_3_4	0	-1	1	0	1.47439599037	172.0	-221.0	166.0	-219.0	1
3.0.1	2019_Mar_11_1118	s	s	15	1	SIC	252	1_1	1	1	3	4	23_3_4	2	3	1	0	0.587385892868	192.0	131.0	186.0	126.0	1
3.0.1	2019_Mar_11_1118	s	s	15	1	SIC	253	ABS	0	0	3	1	24_3_1	NA	NA	0	1	1.26251792908	None	None	None	None	1
3.0.1	2019_Mar_11_1118	s	s	15	1	SIC	254	4_3	4	3	1	1	23_1_1	3	2	1	0	0.620087862015	1.0	-401.0	-7.0	-403.0	1
3.0.1	2019_Mar_11_1118	s	s	15	1	SIC	255	ABS	0	0	4	1	24_4_1	NA	NA	0	1	0.638025999069	None	None	None	None	1
3.0.1	2019_Mar_11_1118	s	s	15	1	SIC	256	1_3	1	3	3	4	23_3_4	2	-1	1	0	0.622693777084	365.0	86.0	359.0	93.0	1
3.0.1	2019_Mar_11_1118	s	s	15	1	SIC	257	ABS	0	0	1	4	24_1_4	NA	NA	0	1	1.16884803772	None	None	None	None	1
3.0.1	2019_Mar_11_1118	s	s	15	1	SIC	258	ABS	0	0	1	3	24_1_3	NA	NA	0	1	1.16886115074	None	None	None	None	1
3.0.1	2019_Mar_11_1118	s	s	15	1	SIC	259	2_3	2	3	4	3	23_4_3	2	0	1	0	0.434516191483	489.0	4.0	486.0	-2.0	1
3.0.1	2019_Mar_11_1118	s	s	15	1	SIC	260	1_1	1	1	4	2	23_4_2	3	1	1	0	0.502026081085	508.0	370.0	509.0	355.0	1
3.0.1	2019_Mar_11_1118	s	s	15	1	SIC	261	ABS	0	0	3	1	24_3_1	NA	NA	0	1	0.822537899017	None	None	None	None	1
3.0.1	2019_Mar_11_1118	s	s	15	1	SIC	262	ABS	0	0	1	3	24_1_3	NA	NA	0	1	0.744910955429	None	None	None	None	1
3.0.1	2019_Mar_11_1118	s	s	15	1	SIC	263	4_4	4	4	3	1	23_3_1	1	3	1	0	0.54688000679	236.0	-385.0	231.0	-381.0	1
3.0.1	2019_Mar_11_1118	s	s	15	1	SIC	264	ABS	0	0	3	4	24_3_4	NA	NA	0	1	1.2929880619	None	None	None	None	1
3.0.1	2019_Mar_11_1118	s	s	15	1	SIC	265	ABS	0	0	1	4	24_1_4	NA	NA	0	1	1.31948399544	None	None	None	None	1
3.0.1	2019_Mar_11_1118	s	s	15	1	SIC	266	1_1	1	1	1	4	23_1_4	0	3	1	0	0.698945045471	101.0	-143.0	107.0	-135.0	1
3.0.1	2019_Mar_11_1118	s	s	15	1	SIC	267	4_3	4	3	4	4	23_4_4	0	-1	1	0	0.973796129227	-87.0	-328.0	-84.0	-332.0	1
3.0.1	2019_Mar_11_1118	s	s	15	1	SIC	268	ABS	0	0	1	1	24_1_1	NA	NA	0	1	1.00419807434	None	None	None	None	1
3.0.1	2019_Mar_11_1118	s	s	15	1	SIC	269	ABS	0	0	3	4	24_3_4	NA	NA	0	1	1.09177207947	None	None	None	None	1
3.0.1	2019_Mar_11_1118	s	s	15	1	SIC	270	3_3	3	3	2	4	23_2_4	1	-1	1	0	1.04604697227	-411.0	403.0	-414.0	399.0	1
3.0.1	2019_Mar_11_1118	s	s	15	1	SIC	271	1_1	1	1	3	1	23_3_1	2	0	1	0	0.681409835815	287.0	-266.0	290.0	-272.0	1
3.0.1	2019_Mar_11_1118	s	s	15	1	SIC	272	2_1	2	1	4	4	23_4_4	2	3	1	0	0.457957983017	-228.0	-198.0	-230.0	-200.0	1
3.0.1	2019_Mar_11_1118	s	s	15	1	SIC	273	4_2	4	2	4	3	23_4_3	0	1	0	1	1.91652703285	312.0	96.0	None	None	0
3.0.1	2019_Mar_11_1118	s	s	15	1	SIC	274	ABS	0	0	1	1	24_1_1	NA	NA	0	1	1.88111495972	None	None	None	None	1
3.0.1	2019_Mar_11_1118	s	s	15	1	SIC	275	4_2	4	2	2	4	23_2_4	2	2	1	0	0.69326710701	-180.0	-30.0	-179.0	-38.0	1
3.0.1	2019_Mar_11_1118	s	s	15	1	SIC	276	4_1	4	1	1	4	23_1_4	3	3	1	0	0.463158845901	78.0	63.0	79.0	71.0	1
3.0.1	2019_Mar_11_1118	s	s	15	1	SIC	277	2_3	2	3	3	3	23_3_3	1	0	1	0	0.909849882126	-516.0	3.0	-511.0	-3.0	1
3.0.1	2019_Mar_11_1118	s	s	15	1	SIC	278	4_4	4	4	1	2	23_1_2	3	2	1	0	0.540579080582	166.0	27.0	173.0	31.0	1
3.0.1	2019_Mar_11_1118	s	s	15	1	SIC	279	ABS	0	0	2	3	24_2_3	NA	NA	0	1	1.39884805679	None	None	None	None	1
3.0.1	2019_Mar_11_1118	s	s	15	1	SIC	280	ABS	0	0	1	2	24_1_2	NA	NA	0	1	0.899536848068	None	None	None	None	1
3.0.1	2019_Mar_11_1118	s	s	15	1	SIC	281	ABS	0	0	1	2	24_1_2	NA	NA	0	1	1.03471708298	None	None	None	None	1
3.0.1	2019_Mar_11_1118	s	s	15	1	SIC	282	4_2	4	2	3	4	23_3_4	1	2	1	0	0.449551820755	-76.0	-99.0	-68.0	-99.0	1
3.0.1	2019_Mar_11_1118	s	s	15	1	SIC	283	ABS	0	0	1	1	24_1_1	NA	NA	0	1	1.03115701675	None	None	None	None	1
3.0.1	2019_Mar_11_1118	s	s	15	1	SIC	284	1_2	1	2	3	1	23_3_1	2	-1	1	0	0.469762086868	-206.0	-25.0	-205.0	-19.0	1
3.0.1	2019_Mar_11_1118	s	s	15	1	SIC	285	ABS	0	0	4	1	24_4_1	NA	NA	0	1	0.81366109848	None	None	None	None	1
3.0.1	2019_Mar_11_1118	s	s	15	1	SIC	286	3_1	3	1	1	4	23_1_4	2	3	1	0	0.521947860718	-37.0	155.0	-39.0	154.0	1
3.0.1	2019_Mar_11_1118	s	s	15	1	SIC	287	1_2	1	2	2	4	23_2_4	1	2	1	0	0.754895925522	87.0	55.0	88.0	47.0	1
3.0.1	2019_Mar_11_1118	s	s	15	1	SIC	288	4_3	4	3	2	4	23_2_4	2	-1	1	0	0.437367916107	-17.0	-16.0	-24.0	-22.0	1
3.0.1	2019_Mar_11_1118	s	s	15	1	SIC	289	ABS	0	0	2	2	24_2_2	NA	NA	0	1	2.30457305908	None	None	None	None	1
3.0.1	2019_Mar_11_1118	s	s	15	1	SIC	290	ABS	0	0	3	1	24_3_1	NA	NA	0	1	0.920386075974	None	None	None	None	1
3.0.1	2019_Mar_11_1118	s	s	15	1	SIC	291	ABS	0	0	3	1	24_3_1	NA	NA	0	1	1.18734908104	None	None	None	None	1
3.0.1	2019_Mar_11_1118	s	s	15	1	SIC	292	1_3	1	3	2	3	23_2_3	1	0	0	1	1.09916496277	501.0	-63.0	None	None	0
3.0.1	2019_Mar_11_1118	s	s	15	1	SIC	293	ABS	0	0	1	2	24_1_2	NA	NA	0	1	0.84907913208	None	None	None	None	1
3.0.1	2019_Mar_11_1118	s	s	15	1	SIC	294	3_2	3	2	4	3	23_4_3	-1	1	1	0	0.763865947723	51.0	-287.0	64.0	-281.0	1
3.0.1	2019_Mar_11_1118	s	s	15	1	SIC	295	ABS	0	0	4	1	24_4_1	NA	NA	0	1	0.705052137375	None	None	None	None	1
3.0.1	2019_Mar_11_1118	s	s	15	1	SIC	296	4_2	4	2	1	3	23_1_3	3	1	1	0	0.469882965088	204.0	2.0	198.0	-3.0	1
3.0.1	2019_Mar_11_1118	s	s	15	1	SIC	297	2_1	2	1	4	1	23_4_1	2	0	1	0	0.469655036926	294.0	338.0	291.0	324.0	1
3.0.1	2019_Mar_11_1118	s	s	15	1	SIC	298	ABS	0	0	4	4	24_4_4	NA	NA	0	1	0.928446054459	None	None	None	None	1
3.0.1	2019_Mar_11_1118	s	s	15	1	SIC	299	4_3	4	3	4	1	23_4_1	0	2	0	1	1.09051918983	-301.0	315.0	None	None	0
3.0.1	2019_Mar_11_1118	s	s	15	1	SIC	300	ABS	0	0	2	1	24_2_1	NA	NA	0	1	1.23432993889	None	None	None	None	1
3.0.1	2019_Mar_11_1118	s	s	15	1	SIC	301	ABS	0	0	2	1	24_2_1	NA	NA	0	1	1.76346993446	None	None	None	None	1
3.0.1	2019_Mar_11_1118	s	s	15	1	SIC	302	2_2	2	2	1	1	23_1_1	-1	-1	0	1	2.29262709618	-122.0	-411.0	None	None	0
3.0.1	2019_Mar_11_1118	s	s	15	1	SIC	303	1_3	1	3	1	2	23_1_2	0	1	0	1	3.74348402023	157.0	28.0	None	None	0
3.0.1	2019_Mar_11_1118	s	s	15	1	SIC	304	2_4	2	4	1	1	23_1_1	-1	3	1	0	0.834371089935	-414.0	-140.0	-418.0	-137.0	1
3.0.1	2019_Mar_11_1118	s	s	15	1	SIC	305	ABS	0	0	1	2	24_1_2	NA	NA	0	1	0.973904132843	None	None	None	None	1
3.0.1	2019_Mar_11_1118	s	s	15	1	SIC	306	4_3	4	3	4	2	23_4_2	0	1	0	1	0.629007101059	519.0	-323.0	None	None	0
3.0.1	2019_Mar_11_1118	s	s	15	1	SIC	307	2_1	2	1	4	3	23_4_3	2	2	1	0	0.475875139236	138.0	-187.0	142.0	-193.0	1
3.0.1	2019_Mar_11_1118	s	s	15	1	SIC	308	3_1	3	1	4	1	23_4_1	-1	0	1	0	0.469752073288	474.0	-188.0	478.0	-192.0	1
3.0.1	2019_Mar_11_1118	s	s	15	1	SIC	309	4_3	4	3	3	1	23_3_1	1	2	1	0	0.57564496994	-428.0	-275.0	-437.0	-273.0	1
3.0.1	2019_Mar_11_1118	s	s	15	1	SIC	310	4_3	4	3	2	3	23_2_3	2	0	1	0	0.415189981461	-318.0	81.0	-315.0	80.0	1
3.0.1	2019_Mar_11_1118	s	s	15	1	SIC	311	1_4	1	4	4	1	23_4_1	3	3	1	0	0.399177074432	189.0	333.0	187.0	331.0	1
3.0.1	2019_Mar_11_1118	s	s	15	1	SIC	312	1_3	1	3	2	4	23_2_4	1	-1	1	0	0.510527133942	-36.0	189.0	-34.0	186.0	1
3.0.1	2019_Mar_11_1118	s	s	15	1	SIC	313	1_4	1	4	3	4	23_3_4	2	0	1	0	0.613844156265	-540.0	42.0	-546.0	39.0	1
3.0.1	2019_Mar_11_1118	s	s	15	1	SIC	314	4_4	4	4	2	3	23_2_3	2	1	1	0	0.76381111145	429.0	363.0	426.0	365.0	1
3.0.1	2019_Mar_11_1118	s	s	15	1	SIC	315	ABS	0	0	4	1	24_4_1	NA	NA	0	1	0.66979598999	None	None	None	None	1
3.0.1	2019_Mar_11_1118	s	s	15	1	SIC	316	3_3	3	3	3	2	23_3_2	0	1	0	1	1.20189881325	-77.0	205.0	None	None	0
3.0.1	2019_Mar_11_1118	s	s	15	1	SIC	317	1_3	1	3	4	3	23_4_3	3	0	1	0	0.496234178543	-175.0	-254.0	-174.0	-249.0	1
3.0.1	2019_Mar_11_1118	s	s	15	1	SIC	318	2_1	2	1	1	1	23_1_1	-1	0	0	1	0.610921144485	-160.0	142.0	None	None	0
3.0.1	2019_Mar_11_1118	s	s	15	1	SIC	319	3_2	3	2	4	1	23_4_1	-1	-1	0	1	0.587393045425	391.0	-309.0	None	None	0
3.0.1	2019_Mar_11_1118	s	s	15	1	SIC	320	4_3	4	3	1	3	23_1_3	3	0	1	0	0.505503892899	210.0	-346.0	206.0	-346.0	1
3.0.1	2019_Mar_11_1118	s	s	15	1	SIC	321	ABS	0	0	4	3	24_4_3	NA	NA	0	1	2.26030778885	None	None	None	None	1
3.0.1	2019_Mar_11_1118	s	s	15	1	SIC	322	2_3	2	3	2	1	23_2_1	0	2	0	1	1.45764112473	71.0	32.0	None	None	0
3.0.1	2019_Mar_11_1118	s	s	15	1	SIC	323	3_1	3	1	1	2	23_1_2	2	1	1	0	0.67254781723	165.0	-293.0	154.0	-289.0	1
3.0.1	2019_Mar_11_1118	s	s	15	1	SIC	324	ABS	0	0	2	4	24_2_4	NA	NA	0	1	2.61325407028	None	None	None	None	1
3.0.1	2019_Mar_11_1118	s	s	15	1	SIC	325	ABS	0	0	1	4	24_1_4	NA	NA	0	1	1.89679503441	None	None	None	None	1
3.0.1	2019_Mar_11_1118	s	s	15	1	SIC	326	ABS	0	0	3	4	24_3_4	NA	NA	0	1	1.18731498718	None	None	None	None	1
3.0.1	2019_Mar_11_1118	s	s	15	1	SIC	327	ABS	0	0	3	2	24_3_2	NA	NA	0	1	2.06965208054	None	None	None	None	1
3.0.1	2019_Mar_11_1118	s	s	15	1	SIC	328	ABS	0	0	3	3	24_3_3	NA	NA	0	1	1.76347899437	None	None	None	None	1
3.0.1	2019_Mar_11_1118	s	s	15	1	SIC	329	3_4	3	4	4	2	23_4_2	-1	2	1	0	0.637388944626	34.0	410.0	27.0	405.0	1
3.0.1	2019_Mar_11_1118	s	s	15	1	SIC	330	3_1	3	1	2	3	23_2_3	1	2	1	0	0.634438037872	348.0	239.0	346.0	246.0	1
3.0.1	2019_Mar_11_1118	s	s	15	1	SIC	331	ABS	0	0	3	2	24_3_2	NA	NA	0	1	1.89280414581	None	None	None	None	1
3.0.1	2019_Mar_11_1118	s	s	15	1	SIC	332	ABS	0	0	4	4	24_4_4	NA	NA	0	1	1.64584612846	None	None	None	None	1
3.0.1	2019_Mar_11_1118	s	s	15	1	SIC	333	ABS	0	0	4	1	24_4_1	NA	NA	0	1	1.07438397408	None	None	None	None	1
3.0.1	2019_Mar_11_1118	s	s	15	1	SIC	334	1_2	1	2	1	1	23_1_1	0	-1	0	1	1.34008693695	-181.0	-111.0	None	None	0
3.0.1	2019_Mar_11_1118	s	s	15	1	SIC	335	ABS	0	0	4	4	24_4_4	NA	NA	0	1	1.85757708549	None	None	None	None	1
3.0.1	2019_Mar_11_1118	s	s	15	1	SIC	336	ABS	0	0	3	1	24_3_1	NA	NA	0	1	1.59895801544	None	None	None	None	1
3.0.1	2019_Mar_11_1118	s	s	15	1	SIC	337	1_4	1	4	4	3	23_4_3	3	1	1	0	0.503041982651	380.0	-18.0	368.0	-14.0	1
3.0.1	2019_Mar_11_1118	s	s	15	1	SIC	338	3_1	3	1	4	2	23_4_2	-1	1	1	0	0.481580018997	-314.0	246.0	-315.0	238.0	1
3.0.1	2019_Mar_11_1118	s	s	15	1	SIC	339	ABS	0	0	4	3	24_4_3	NA	NA	0	1	1.1284558773	None	None	None	None	1
3.0.1	2019_Mar_11_1118	s	s	15	1	SIC	340	ABS	0	0	3	1	24_3_1	NA	NA	0	1	0.805234909058	None	None	None	None	1
3.0.1	2019_Mar_11_1118	s	s	15	1	SIC	341	2_1	2	1	3	2	23_3_2	1	1	1	0	0.837238788605	58.0	-283.0	53.0	-288.0	1
3.0.1	2019_Mar_11_1118	s	s	15	1	SIC	342	4_2	4	2	4	1	23_4_1	0	-1	0	1	1.57536196709	127.0	-343.0	None	None	0
3.0.1	2019_Mar_11_1118	s	s	15	1	SIC	343	ABS	0	0	3	3	24_3_3	NA	NA	0	1	0.822634935379	None	None	None	None	1
3.0.1	2019_Mar_11_1118	s	s	15	1	SIC	344	ABS	0	0	2	2	24_2_2	NA	NA	0	1	1.89289498329	None	None	None	None	1
3.0.1	2019_Mar_11_1118	s	s	15	1	SIC	345	3_2	3	2	4	2	23_4_2	-1	0	1	0	0.505114793777	388.0	-58.0	389.0	-68.0	1
3.0.1	2019_Mar_11_1118	s	s	15	1	SIC	346	1_4	1	4	2	3	23_2_3	1	1	0	1	0.705023050308	-471.0	338.0	None	None	0
3.0.1	2019_Mar_11_1118	s	s	15	1	SIC	347	2_3	2	3	3	2	23_3_2	1	1	1	0	1.09642696381	-327.0	275.0	-332.0	281.0	1
3.0.1	2019_Mar_11_1118	s	s	15	1	SIC	348	4_4	4	4	1	1	23_1_1	3	3	1	0	0.486680984497	-422.0	5.0	-432.0	12.0	1
3.0.1	2019_Mar_11_1118	s	s	15	1	SIC	349	1_2	1	2	1	4	23_1_4	0	2	1	0	1.48128604889	26.0	309.0	30.0	316.0	1
3.0.1	2019_Mar_11_1118	s	s	15	1	SIC	350	3_4	3	4	3	3	23_3_3	0	1	1	0	1.60349416733	194.0	-175.0	189.0	-175.0	1
3.0.1	2019_Mar_11_1118	s	s	15	1	SIC	351	ABS	0	0	4	4	24_4_4	NA	NA	0	1	3.42184996605	None	None	None	None	1
3.0.1	2019_Mar_11_1118	s	s	15	1	SIC	352	ABS	0	0	2	2	24_2_2	NA	NA	0	1	2.13301801682	None	None	None	None	1
3.0.1	2019_Mar_11_1118	s	s	15	1	SIC	353	4_3	4	3	1	2	23_1_2	3	1	1	0	0.496127128601	166.0	266.0	159.0	261.0	1
3.0.1	2019_Mar_11_1118	s	s	15	1	SIC	354	3_3	3	3	4	3	23_4_3	-1	0	1	0	0.552060127258	377.0	302.0	370.0	295.0	1
3.0.1	2019_Mar_11_1118	s	s	15	1	SIC	355	ABS	0	0	2	3	24_2_3	NA	NA	0	1	0.898288011551	None	None	None	None	1
3.0.1	2019_Mar_11_1118	s	s	15	1	SIC	356	ABS	0	0	4	4	24_4_4	NA	NA	0	1	1.30493211746	None	None	None	None	1
3.0.1	2019_Mar_11_1118	s	s	15	1	SIC	357	ABS	0	0	2	2	24_2_2	NA	NA	0	1	0.822631835938	None	None	None	None	1
3.0.1	2019_Mar_11_1118	s	s	15	1	SIC	358	2_4	2	4	4	1	23_4_1	2	3	1	0	0.488403081894	294.0	214.0	294.0	204.0	1
3.0.1	2019_Mar_11_1118	s	s	15	1	SIC	359	ABS	0	0	3	3	24_3_3	NA	NA	0	1	0.908179998398	None	None	None	None	1
3.0.1	2019_Mar_11_1118	s	s	15	1	SIC	360	3_1	3	1	1	3	23_1_3	2	2	1	0	0.731374025345	-113.0	258.0	-108.0	262.0	1
3.0.1	2019_Mar_11_1118	s	s	15	1	SIC	361	4_3	4	3	3	2	23_3_2	1	1	1	0	0.45801615715	-340.0	189.0	-331.0	185.0	1
3.0.1	2019_Mar_11_1118	s	s	15	1	SIC	362	ABS	0	0	1	1	24_1_1	NA	NA	0	1	0.912777900696	None	None	None	None	1
3.0.1	2019_Mar_11_1118	s	s	15	1	SIC	363	ABS	0	0	1	4	24_1_4	NA	NA	0	1	0.723961114883	None	None	None	None	1
3.0.1	2019_Mar_11_1118	s	s	15	1	SIC	364	ABS	0	0	2	3	24_2_3	NA	NA	0	1	0.646101951599	None	None	None	None	1
3.0.1	2019_Mar_11_1118	s	s	15	1	SIC	365	4_1	4	1	2	3	23_2_3	2	2	1	0	0.458410024643	-71.0	395.0	-76.0	403.0	1
3.0.1	2019_Mar_11_1118	s	s	15	1	SIC	366	4_1	4	1	4	3	23_4_3	0	2	0	1	0.834344863892	-388.0	173.0	None	None	0
3.0.1	2019_Mar_11_1118	s	s	15	1	SIC	367	ABS	0	0	1	1	24_1_1	NA	NA	0	1	1.2342479229	None	None	None	None	1
3.0.1	2019_Mar_11_1118	s	s	15	1	SIC	368	1_4	1	4	1	2	23_1_2	0	2	1	0	0.810823917389	-301.0	-265.0	-302.0	-261.0	1
3.0.1	2019_Mar_11_1118	s	s	15	1	SIC	369	3_4	3	4	2	4	23_2_4	1	0	1	0	0.54044008255	-439.0	147.0	-439.0	153.0	1
3.0.1	2019_Mar_11_1118	s	s	15	1	SIC	370	ABS	0	0	1	1	24_1_1	NA	NA	0	1	1.08426308632	None	None	None	None	1
3.0.1	2019_Mar_11_1118	s	s	15	1	SIC	371	1_2	1	2	3	4	23_3_4	2	2	1	0	0.756953954697	-373.0	43.0	-367.0	48.0	1
3.0.1	2019_Mar_11_1118	s	s	15	1	SIC	372	ABS	0	0	1	2	24_1_2	NA	NA	0	1	0.846125125885	None	None	None	None	1
3.0.1	2019_Mar_11_1118	s	s	15	1	SIC	373	1_1	1	1	3	2	23_3_2	2	1	1	0	0.863012075424	121.0	184.0	135.0	191.0	1
3.0.1	2019_Mar_11_1118	s	s	15	1	SIC	374	3_4	3	4	2	1	23_2_1	1	3	1	0	0.716745853424	412.0	25.0	417.0	20.0	1
3.0.1	2019_Mar_11_1118	s	s	15	1	SIC	375	4_1	4	1	2	4	23_2_4	2	3	1	0	0.540434837341	-459.0	-245.0	-463.0	-252.0	1
3.0.1	2019_Mar_11_1118	s	s	15	1	SIC	376	3_3	3	3	3	1	23_3_1	0	2	1	0	2.22519183159	221.0	33.0	224.0	36.0	1
3.0.1	2019_Mar_11_1118	s	s	15	1	SIC	377	2_1	2	1	1	4	23_1_4	-1	3	1	0	0.569509983063	-494.0	121.0	-485.0	122.0	1
3.0.1	2019_Mar_11_1118	s	s	15	1	SIC	378	ABS	0	0	1	3	24_1_3	NA	NA	0	1	1.34011101723	None	None	None	None	1
3.0.1	2019_Mar_11_1118	s	s	15	1	SIC	379	3_2	3	2	1	2	23_1_2	2	0	1	0	0.599164009094	-326.0	21.0	-325.0	14.0	1
3.0.1	2019_Mar_11_1118	s	s	15	1	SIC	380	ABS	0	0	4	1	24_4_1	NA	NA	0	1	0.954883813858	None	None	None	None	1
3.0.1	2019_Mar_11_1118	s	s	15	1	SIC	381	ABS	0	0	2	4	24_2_4	NA	NA	0	1	1.70462608337	None	None	None	None	1
3.0.1	2019_Mar_11_1118	s	s	15	1	SIC	382	ABS	0	0	1	3	24_1_3	NA	NA	0	1	1.61358094215	None	None	None	None	1
3.0.1	2019_Mar_11_1118	s	s	15	1	SIC	383	ABS	0	0	3	3	24_3_3	NA	NA	0	1	1.89291405678	None	None	None	None	1
3.0.1	2019_Mar_11_1118	s	s	15	1	SIC	384	3_1	3	1	2	4	23_2_4	1	3	1	0	0.587441921234	414.0	-165.0	426.0	-162.0	1
3.0.1	2019_Mar_11_1118	s	s	15	1	SIC	385	ABS	0	0	4	2	24_4_2	NA	NA	0	1	1.38714694977	None	None	None	None	1
3.0.1	2019_Mar_11_1118	s	s	15	1	SIC	386	2_3	2	3	2	4	23_2_4	0	-1	1	0	1.06970214844	-131.0	-150.0	-126.0	-150.0	1
3.0.1	2019_Mar_11_1118	s	s	15	1	SIC	387	ABS	0	0	3	2	24_3_2	NA	NA	0	1	3.00251889229	None	None	None	None	1
3.0.1	2019_Mar_11_1118	s	s	15	1	SIC	388	4_2	4	2	1	4	23_1_4	3	2	1	0	0.48802781105	74.0	-145.0	75.0	-143.0	1
3.0.1	2019_Mar_11_1118	s	s	15	1	SIC	389	ABS	0	0	2	2	24_2_2	NA	NA	0	1	2.29978299141	None	None	None	None	1
3.0.1	2019_Mar_11_1118	s	s	15	1	SIC	390	ABS	0	0	2	1	24_2_1	NA	NA	0	1	1.3690700531	None	None	None	None	1
3.0.1	2019_Mar_11_1118	s	s	15	1	SIC	391	ABS	0	0	4	1	24_4_1	NA	NA	0	1	0.907823085785	None	None	None	None	1
3.0.1	2019_Mar_11_1118	s	s	15	1	SIC	392	4_1	4	1	4	4	23_4_4	0	3	1	0	1.35184001923	143.0	44.0	140.0	46.0	1
3.0.1	2019_Mar_11_1118	s	s	15	1	SIC	393	ABS	0	0	4	2	24_4_2	NA	NA	0	1	1.23908805847	None	None	None	None	1
3.0.1	2019_Mar_11_1118	s	s	15	1	SIC	394	ABS	0	0	1	4	24_1_4	NA	NA	0	1	1.37823414803	None	None	None	None	1
3.0.1	2019_Mar_11_1118	s	s	15	1	SIC	395	ABS	0	0	2	4	24_2_4	NA	NA	0	1	1.15621089935	None	None	None	None	1
3.0.1	2019_Mar_11_1118	s	s	15	1	SIC	396	ABS	0	0	4	2	24_4_2	NA	NA	0	1	1.22692704201	None	None	None	None	1
3.0.1	2019_Mar_11_1118	s	s	15	1	SIC	397	3_4	3	4	3	1	23_3_1	0	3	1	0	1.05354809761	384.0	343.0	376.0	338.0	1
3.0.1	2019_Mar_11_1118	s	s	15	1	SIC	398	ABS	0	0	2	2	24_2_2	NA	NA	0	1	1.02975583076	None	None	None	None	1
3.0.1	2019_Mar_11_1118	s	s	15	1	SIC	399	1_2	1	2	4	2	23_4_2	3	0	1	0	0.469848871231	-492.0	-191.0	-494.0	-194.0	1
3.0.1	2019_Mar_11_1118	s	s	15	1	SIC	400	ABS	0	0	2	3	24_2_3	NA	NA	1	0	0.810837030411	None	None	-516.0	-334.0	0
3.0.1	2019_Mar_11_1118	s	s	15	1	SIC	401	3_3	3	3	4	4	23_4_4	-1	-1	1	0	0.705034017563	418.0	409.0	413.0	418.0	1
3.0.1	2019_Mar_11_1118	s	s	15	1	SIC	402	ABS	0	0	2	1	24_2_1	NA	NA	0	1	1.10488295555	None	None	None	None	1
3.0.1	2019_Mar_11_1118	s	s	15	1	SIC	403	ABS	0	0	4	2	24_4_2	NA	NA	0	1	0.9784719944	None	None	None	None	1
3.0.1	2019_Mar_11_1118	s	s	15	1	SIC	404	1_4	1	4	1	3	23_1_3	0	1	1	0	0.575608968735	226.0	-157.0	214.0	-156.0	1
3.0.1	2019_Mar_11_1118	s	s	15	1	SIC	405	ABS	0	0	2	3	24_2_3	NA	NA	0	1	1.77530288696	None	None	None	None	1
3.0.1	2019_Mar_11_1118	s	s	15	1	SIC	406	1_2	1	2	2	2	23_2_2	1	0	1	0	2.76319909096	424.0	383.0	421.0	371.0	1
3.0.1	2019_Mar_11_1118	s	s	15	1	SIC	407	3_2	3	2	4	4	23_4_4	-1	2	1	0	0.540328025818	-62.0	-149.0	-61.0	-149.0	1
3.0.1	2019_Mar_11_1118	s	s	15	1	SIC	408	3_4	3	4	2	3	23_2_3	1	1	1	0	0.575583934784	-410.0	314.0	-409.0	303.0	1
3.0.1	2019_Mar_11_1118	s	s	15	1	SIC	409	ABS	0	0	3	3	24_3_3	NA	NA	0	1	1.25096988678	None	None	None	None	1
3.0.1	2019_Mar_11_1118	s	s	15	1	SIC	410	ABS	0	0	1	3	24_1_3	NA	NA	0	1	1.52826285362	None	None	None	None	1
3.0.1	2019_Mar_11_1118	s	s	15	1	SIC	411	2_4	2	4	2	2	23_2_2	0	2	1	0	0.605218887329	320.0	353.0	322.0	362.0	1
3.0.1	2019_Mar_11_1118	s	s	15	1	SIC	412	4_1	4	1	3	3	23_3_3	1	2	1	0	0.481889009476	402.0	257.0	406.0	260.0	1
3.0.1	2019_Mar_11_1118	s	s	15	1	SIC	413	ABS	0	0	3	4	24_3_4	NA	NA	0	1	1.67232394218	None	None	None	None	1
3.0.1	2019_Mar_11_1118	s	s	15	1	SIC	414	ABS	0	0	2	2	24_2_2	NA	NA	0	1	1.21078491211	None	None	None	None	1
3.0.1	2019_Mar_11_1118	s	s	15	1	SIC	415	ABS	0	0	3	1	24_3_1	NA	NA	0	1	2.06936883926	None	None	None	None	1
3.0.1	2019_Mar_11_1118	s	s	15	1	SIC	416	4_2	4	2	2	2	23_2_2	2	0	1	0	0.52153801918	371.0	-379.0	380.0	-381.0	1
3.0.1	2019_Mar_11_1118	s	s	15	1	SIC	417	ABS	0	0	4	1	24_4_1	NA	NA	0	1	0.862023830414	None	None	None	None	1
3.0.1	2019_Mar_11_1118	s	s	15	1	SIC	418	2_1	2	1	1	3	23_1_3	-1	2	0	1	1.78984093666	-28.0	121.0	None	None	0
3.0.1	2019_Mar_11_1118	s	s	15	1	SIC	419	ABS	0	0	3	2	24_3_2	NA	NA	0	1	0.987215042114	None	None	None	None	1
3.0.1	2019_Mar_11_1118	s	s	15	1	SIC	420	ABS	0	0	3	2	24_3_2	NA	NA	0	1	1.67791008949	None	None	None	None	1
3.0.1	2019_Mar_11_1118	s	s	15	1	SIC	421	ABS	0	0	4	4	24_4_4	NA	NA	0	1	1.48510813713	None	None	None	None	1
3.0.1	2019_Mar_11_1118	s	s	15	1	SIC	422	3_1	3	1	4	4	23_4_4	-1	3	1	0	0.716794967651	-197.0	377.0	-196.0	361.0	1
3.0.1	2019_Mar_11_1118	s	s	15	1	SIC	423	ABS	0	0	3	1	24_3_1	NA	NA	0	1	0.885668992996	None	None	None	None	1
3.0.1	2019_Mar_11_1118	s	s	15	1	SIC	424	1_1	1	1	2	4	23_2_4	1	3	1	0	0.634396076202	-464.0	166.0	-455.0	167.0	1
3.0.1	2019_Mar_11_1118	s	s	15	1	SIC	425	ABS	0	0	4	1	24_4_1	NA	NA	0	1	1.13294196129	None	None	None	None	1
3.0.1	2019_Mar_11_1118	s	s	15	1	SIC	426	4_1	4	1	1	3	23_1_3	3	2	1	0	0.493292093277	305.0	-406.0	312.0	-398.0	1
3.0.1	2019_Mar_11_1118	s	s	15	1	SIC	427	2_2	2	2	4	1	23_4_1	2	-1	1	0	0.486767053604	-60.0	-334.0	-63.0	-343.0	1
3.0.1	2019_Mar_11_1118	s	s	15	1	SIC	428	ABS	0	0	4	2	24_4_2	NA	NA	0	1	1.05822491646	None	None	None	None	1
3.0.1	2019_Mar_11_1118	s	s	15	1	SIC	429	ABS	0	0	2	1	24_2_1	NA	NA	0	1	0.855901956558	None	None	None	None	1
3.0.1	2019_Mar_11_1118	s	s	15	1	SIC	430	1_4	1	4	3	2	23_3_2	2	2	1	0	0.787307977676	-416.0	403.0	-420.0	401.0	1
3.0.1	2019_Mar_11_1118	s	s	15	1	SIC	431	3_4	3	4	4	3	23_4_3	-1	1	1	0	0.446234226227	46.0	339.0	51.0	342.0	1
3.0.1	2019_Mar_11_1118	s	s	15	1	SIC	432	ABS	0	0	1	1	24_1_1	NA	NA	0	1	1.15476179123	None	None	None	None	1
3.0.1	2019_Mar_11_1118	s	s	15	1	SIC	433	2_2	2	2	1	2	23_1_2	-1	0	0	1	0.975912094116	326.0	131.0	None	None	0
3.0.1	2019_Mar_11_1118	s	s	15	1	SIC	434	4_1	4	1	4	2	23_4_2	0	1	0	1	1.34008312225	-194.0	-400.0	None	None	0
3.0.1	2019_Mar_11_1118	s	s	15	1	SIC	435	ABS	0	0	3	3	24_3_3	NA	NA	0	1	1.03431606293	None	None	None	None	1
3.0.1	2019_Mar_11_1118	s	s	15	1	SIC	436	4_4	4	4	2	4	23_2_4	2	0	1	0	0.458014011383	-459.0	-391.0	-460.0	-399.0	1
3.0.1	2019_Mar_11_1118	s	s	15	1	SIC	437	2_3	2	3	1	4	23_1_4	-1	-1	0	1	1.12069988251	-87.0	-296.0	None	None	0
3.0.1	2019_Mar_11_1118	s	s	15	1	SIC	438	2_4	2	4	1	2	23_1_2	-1	2	1	0	0.532825946808	167.0	399.0	175.0	401.0	1
3.0.1	2019_Mar_11_1118	s	s	15	1	SIC	439	ABS	0	0	2	1	24_2_1	NA	NA	0	1	0.822560071945	None	None	None	None	1
3.0.1	2019_Mar_11_1118	s	s	15	1	SIC	440	ABS	0	0	3	1	24_3_1	NA	NA	0	1	0.987243890762	None	None	None	None	1
3.0.1	2019_Mar_11_1118	s	s	15	1	SIC	441	ABS	0	0	3	2	24_3_2	NA	NA	0	1	1.69303798676	None	None	None	None	1
3.0.1	2019_Mar_11_1118	s	s	15	1	SIC	442	ABS	0	0	1	1	24_1_1	NA	NA	0	1	2.49560403824	None	None	None	None	1
3.0.1	2019_Mar_11_1118	s	s	15	1	SIC	443	1_3	1	3	3	2	23_3_2	2	1	1	0	0.840980052948	-117.0	-391.0	-114.0	-384.0	1
3.0.1	2019_Mar_11_1118	s	s	15	1	SIC	444	ABS	0	0	3	1	24_3_1	NA	NA	0	1	0.834826946259	None	None	None	None	1
3.0.1	2019_Mar_11_1118	s	s	15	1	SIC	445	1_4	1	4	1	1	23_1_1	0	3	1	0	0.664557933807	-507.0	-267.0	-509.0	-280.0	1
3.0.1	2019_Mar_11_1118	s	s	15	1	SIC	446	3_2	3	2	3	1	23_3_1	0	-1	0	1	0.951997995377	-309.0	162.0	None	None	0
3.0.1	2019_Mar_11_1118	s	s	15	1	SIC	447	ABS	0	0	1	3	24_1_3	NA	NA	0	1	2.15161919594	None	None	None	None	1
3.0.1	2019_Mar_11_1118	s	s	15	1	SIC	448	ABS	0	0	4	3	24_4_3	NA	NA	0	1	1.02545404434	None	None	None	None	1
3.0.1	2019_Mar_11_1118	s	s	15	1	SIC	449	4_3	4	3	1	4	23_1_4	3	-1	1	0	0.458015918732	-230.0	14.0	-219.0	19.0	1
3.0.1	2019_Mar_11_1118	s	s	15	1	SIC	450	ABS	0	0	4	4	24_4_4	NA	NA	0	1	1.03951501846	None	None	None	None	1
3.0.1	2019_Mar_11_1118	s	s	15	1	SIC	451	ABS	0	0	4	4	24_4_4	NA	NA	0	1	0.973016023636	None	None	None	None	1
3.0.1	2019_Mar_11_1118	s	s	15	1	SIC	452	ABS	0	0	2	4	24_2_4	NA	NA	1	0	0.90816617012	None	None	-427.0	-281.0	0
3.0.1	2019_Mar_11_1118	s	s	15	1	SIC	453	1_1	1	1	4	3	23_4_3	3	2	1	0	0.673649072647	320.0	-349.0	324.0	-344.0	1
3.0.1	2019_Mar_11_1118	s	s	15	1	SIC	454	ABS	0	0	4	2	24_4_2	NA	NA	0	1	0.928493022919	None	None	None	None	1
3.0.1	2019_Mar_11_1118	s	s	15	1	SIC	455	4_2	4	2	3	3	23_3_3	1	1	1	0	0.528507947922	-535.0	-406.0	-526.0	-405.0	1
3.0.1	2019_Mar_11_1118	s	s	15	1	SIC	456	ABS	0	0	4	4	24_4_4	NA	NA	0	1	1.06301689148	None	None	None	None	1
3.0.1	2019_Mar_11_1118	s	s	15	1	SIC	457	ABS	0	0	2	1	24_2_1	NA	NA	0	1	1.26647400856	None	None	None	None	1
3.0.1	2019_Mar_11_1118	s	s	15	1	SIC	458	ABS	0	0	3	2	24_3_2	NA	NA	0	1	0.723364114761	None	None	None	None	1
3.0.1	2019_Mar_11_1118	s	s	15	1	SIC	459	ABS	0	0	2	1	24_2_1	NA	NA	0	1	1.11656594276	None	None	None	None	1
3.0.1	2019_Mar_11_1118	s	s	15	1	SIC	460	ABS	0	0	1	4	24_1_4	NA	NA	0	1	2.23843193054	None	None	None	None	1
3.0.1	2019_Mar_11_1118	s	s	15	1	SIC	461	1_1	1	1	3	3	23_3_3	2	2	1	0	0.509166955948	-61.0	-55.0	-48.0	-49.0	1
3.0.1	2019_Mar_11_1118	s	s	15	1	SIC	462	4_4	4	4	1	3	23_1_3	3	1	1	0	0.516824960709	474.0	-170.0	469.0	-181.0	1
3.0.1	2019_Mar_11_1118	s	s	15	1	SIC	463	2_4	2	4	2	3	23_2_3	0	1	1	0	1.39161586761	-334.0	287.0	-322.0	295.0	1
3.0.1	2019_Mar_11_1118	s	s	15	1	SIC	464	ABS	0	0	3	1	24_3_1	NA	NA	0	1	1.65761899948	None	None	None	None	1
3.0.1	2019_Mar_11_1118	s	s	15	1	SIC	465	ABS	0	0	2	3	24_2_3	NA	NA	0	1	1.07599592209	None	None	None	None	1
3.0.1	2019_Mar_11_1118	s	s	15	1	SIC	466	4_3	4	3	2	2	23_2_2	2	1	1	0	0.519721031189	-479.0	-180.0	-476.0	-186.0	1
3.0.1	2019_Mar_11_1118	s	s	15	1	SIC	467	3_2	3	2	2	4	23_2_4	1	2	1	0	0.501835107803	-237.0	155.0	-234.0	155.0	1
3.0.1	2019_Mar_11_1118	s	s	15	1	SIC	468	ABS	0	0	1	4	24_1_4	NA	NA	0	1	1.26283097267	None	None	None	None	1
3.0.1	2019_Mar_11_1118	s	s	15	1	SIC	469	ABS	0	0	1	3	24_1_3	NA	NA	0	1	1.22255396843	None	None	None	None	1
3.0.1	2019_Mar_11_1118	s	s	15	1	SIC	470	3_1	3	1	1	1	23_1_1	2	0	1	0	0.782130002975	-303.0	372.0	-293.0	380.0	1
3.0.1	2019_Mar_11_1118	s	s	15	1	SIC	471	ABS	0	0	1	4	24_1_4	NA	NA	0	1	0.893198013306	None	None	None	None	1
3.0.1	2019_Mar_11_1118	s	s	15	1	SIC	472	ABS	0	0	1	2	24_1_2	NA	NA	0	1	1.31002020836	None	None	None	None	1
3.0.1	2019_Mar_11_1118	s	s	15	1	SIC	473	3_4	3	4	4	4	23_4_4	-1	0	1	0	0.619014024734	206.0	397.0	202.0	397.0	1
3.0.1	2019_Mar_11_1118	s	s	15	1	SIC	474	ABS	0	0	1	4	24_1_4	NA	NA	0	1	0.839643001556	None	None	None	None	1
3.0.1	2019_Mar_11_1118	s	s	15	1	SIC	475	ABS	0	0	2	1	24_2_1	NA	NA	0	1	0.987263917923	None	None	None	None	1
3.0.1	2019_Mar_11_1118	s	s	15	1	SIC	476	ABS	0	0	1	4	24_1_4	NA	NA	0	1	1.10880208015	None	None	None	None	1
3.0.1	2019_Mar_11_1118	s	s	15	1	SIC	477	ABS	0	0	2	2	24_2_2	NA	NA	0	1	1.35179495811	None	None	None	None	1
3.0.1	2019_Mar_11_1118	s	s	15	1	SIC	478	1_3	1	3	3	3	23_3_3	2	0	1	0	0.591812133789	323.0	-380.0	319.0	-384.0	1
3.0.1	2019_Mar_11_1118	s	s	15	1	SIC	479	2_3	2	3	1	3	23_1_3	-1	0	0	1	1.73113107681	485.0	11.0	None	None	0
3.0.1	2019_Mar_11_1118	s	s	15	1	SIC	480	ABS	0	0	1	2	24_1_2	NA	NA	0	1	1.52838802338	None	None	None	None	1
