Version	Date	Stimuli	Method	Subject	Session	Condition	Trial	Target	TColor	TShape	DColor	DShape	Distractors	Channel1	Channel2	LMouseButton	RMouseButton	RT	TargetX	TargetY	ResponseX	ResponseY	Correct
3.0.1	2019_Mar_05_1507	s	s	1	4	Capacity	1	ABS	0	0	1	1	24_1_1	NA	NA	0	1	2.15217995644	None	None	None	None	1
3.0.1	2019_Mar_05_1507	s	s	1	4	Capacity	2	ABS	0	0	1	2	24_1_2	NA	NA	0	1	4.94234585762	None	None	None	None	1
3.0.1	2019_Mar_05_1507	s	s	1	4	Capacity	3	ABS	0	0	1	4	24_1_4	NA	NA	0	1	2.41462111473	None	None	None	None	1
3.0.1	2019_Mar_05_1507	s	s	1	4	Capacity	4	1_2	1	2	1	3	23_1_3	0	1	1	0	1.91644191742	-378.0	220.0	-381.0	223.0	1
3.0.1	2019_Mar_05_1507	s	s	1	4	Capacity	5	ABS	0	0	1	4	24_1_4	NA	NA	0	1	1.45773410797	None	None	None	None	1
3.0.1	2019_Mar_05_1507	s	s	1	4	Capacity	6	1_3	1	3	1	2	23_1_2	0	1	1	0	1.24079108238	104.0	-9.0	105.0	-10.0	1
3.0.1	2019_Mar_05_1507	s	s	1	4	Capacity	7	1_2	1	2	1	1	23_1_1	0	-1	0	1	1.88108491898	-231.0	353.0	None	None	0
3.0.1	2019_Mar_05_1507	s	s	1	4	Capacity	8	ABS	0	0	1	3	24_1_3	NA	NA	0	1	3.17485713959	None	None	None	None	1
3.0.1	2019_Mar_05_1507	s	s	1	4	Capacity	9	1_3	1	3	1	4	23_1_4	0	-1	1	0	0.613801002502	0.0	228.0	6.0	224.0	1
3.0.1	2019_Mar_05_1507	s	s	1	4	Capacity	10	ABS	0	0	1	3	24_1_3	NA	NA	0	1	3.16347885132	None	None	None	None	1
3.0.1	2019_Mar_05_1507	s	s	1	4	Capacity	11	ABS	0	0	1	1	24_1_1	NA	NA	0	1	2.52256989479	None	None	None	None	1
3.0.1	2019_Mar_05_1507	s	s	1	4	Capacity	12	1_1	1	1	1	3	23_1_3	0	2	1	0	0.940572023392	367.0	172.0	374.0	174.0	1
3.0.1	2019_Mar_05_1507	s	s	1	4	Capacity	13	1_4	1	4	1	2	23_1_2	0	2	1	0	0.599198818207	-326.0	173.0	-321.0	173.0	1
3.0.1	2019_Mar_05_1507	s	s	1	4	Capacity	14	ABS	0	0	1	3	24_1_3	NA	NA	0	1	2.5280020237	None	None	None	None	1
3.0.1	2019_Mar_05_1507	s	s	1	4	Capacity	15	ABS	0	0	1	2	24_1_2	NA	NA	0	1	4.01527190208	None	None	None	None	1
3.0.1	2019_Mar_05_1507	s	s	1	4	Capacity	16	1_4	1	4	1	1	23_1_1	0	3	1	0	0.552123069763	100.0	82.0	91.0	82.0	1
3.0.1	2019_Mar_05_1507	s	s	1	4	Capacity	17	1_4	1	4	1	3	23_1_3	0	1	1	0	1.09770679474	-172.0	165.0	-172.0	158.0	1
3.0.1	2019_Mar_05_1507	s	s	1	4	Capacity	18	1_2	1	2	1	4	23_1_4	0	2	1	0	0.783286809921	-257.0	11.0	-253.0	16.0	1
3.0.1	2019_Mar_05_1507	s	s	1	4	Capacity	19	ABS	0	0	1	2	24_1_2	NA	NA	0	1	4.0451362133	None	None	None	None	1
3.0.1	2019_Mar_05_1507	s	s	1	4	Capacity	20	ABS	0	0	1	4	24_1_4	NA	NA	0	1	1.58750510216	None	None	None	None	1
3.0.1	2019_Mar_05_1507	s	s	1	4	Capacity	21	1_1	1	1	1	4	23_1_4	0	3	1	0	0.516804933548	-121.0	41.0	-113.0	39.0	1
3.0.1	2019_Mar_05_1507	s	s	1	4	Capacity	22	1_1	1	1	1	2	23_1_2	0	1	1	0	3.74596810341	181.0	-299.0	188.0	-300.0	1
3.0.1	2019_Mar_05_1507	s	s	1	4	Capacity	23	1_3	1	3	1	1	23_1_1	0	2	1	0	1.46388101578	284.0	380.0	290.0	380.0	1
3.0.1	2019_Mar_05_1507	s	s	1	4	Capacity	24	ABS	0	0	1	1	24_1_1	NA	NA	0	1	2.90823197365	None	None	None	None	1
3.0.1	2019_Mar_05_1507	s	s	1	4	Capacity	25	ABS	0	0	1	3	24_1_3	NA	NA	0	1	3.28674793243	None	None	None	None	1
3.0.1	2019_Mar_05_1507	s	s	1	4	Capacity	26	1_2	1	2	1	1	23_1_1	0	-1	1	0	1.02540612221	-19.0	370.0	-14.0	365.0	1
3.0.1	2019_Mar_05_1507	s	s	1	4	Capacity	27	1_1	1	1	1	4	23_1_4	0	3	1	0	0.619239091873	-148.0	-293.0	-148.0	-301.0	1
3.0.1	2019_Mar_05_1507	s	s	1	4	Capacity	28	1_3	1	3	1	2	23_1_2	0	1	1	0	3.09243607521	151.0	70.0	141.0	72.0	1
3.0.1	2019_Mar_05_1507	s	s	1	4	Capacity	29	1_1	1	1	1	3	23_1_3	0	2	1	0	3.41503882408	135.0	-257.0	137.0	-260.0	1
3.0.1	2019_Mar_05_1507	s	s	1	4	Capacity	30	ABS	0	0	1	4	24_1_4	NA	NA	0	1	1.92235898972	None	None	None	None	1
3.0.1	2019_Mar_05_1507	s	s	1	4	Capacity	31	ABS	0	0	1	3	24_1_3	NA	NA	0	1	5.4212179184	None	None	None	None	1
3.0.1	2019_Mar_05_1507	s	s	1	4	Capacity	32	ABS	0	0	1	3	24_1_3	NA	NA	0	1	4.2127289772	None	None	None	None	1
3.0.1	2019_Mar_05_1507	s	s	1	4	Capacity	33	ABS	0	0	1	1	24_1_1	NA	NA	0	1	2.78669500351	None	None	None	None	1
3.0.1	2019_Mar_05_1507	s	s	1	4	Capacity	34	1_2	1	2	1	4	23_1_4	0	2	1	0	0.928540945053	72.0	170.0	73.0	168.0	1
3.0.1	2019_Mar_05_1507	s	s	1	4	Capacity	35	ABS	0	0	1	4	24_1_4	NA	NA	0	1	1.86940598488	None	None	None	None	1
3.0.1	2019_Mar_05_1507	s	s	1	4	Capacity	36	1_2	1	2	1	3	23_1_3	0	1	1	0	1.9987578392	419.0	59.0	419.0	57.0	1
3.0.1	2019_Mar_05_1507	s	s	1	4	Capacity	37	1_1	1	1	1	2	23_1_2	0	1	0	1	4.66091108322	473.0	-344.0	None	None	0
3.0.1	2019_Mar_05_1507	s	s	1	4	Capacity	38	ABS	0	0	1	2	24_1_2	NA	NA	0	1	5.12086892128	None	None	None	None	1
3.0.1	2019_Mar_05_1507	s	s	1	4	Capacity	39	ABS	0	0	1	2	24_1_2	NA	NA	0	1	4.69200992584	None	None	None	None	1
3.0.1	2019_Mar_05_1507	s	s	1	4	Capacity	40	ABS	0	0	1	1	24_1_1	NA	NA	0	1	1.6812069416	None	None	None	None	1
3.0.1	2019_Mar_05_1507	s	s	1	4	Capacity	41	ABS	0	0	1	1	24_1_1	NA	NA	0	1	2.78670883179	None	None	None	None	1
3.0.1	2019_Mar_05_1507	s	s	1	4	Capacity	42	1_4	1	4	1	1	23_1_1	0	3	1	0	0.787328958511	331.0	-354.0	332.0	-355.0	1
3.0.1	2019_Mar_05_1507	s	s	1	4	Capacity	43	1_4	1	4	1	2	23_1_2	0	2	1	0	0.722107887268	240.0	-257.0	236.0	-259.0	1
3.0.1	2019_Mar_05_1507	s	s	1	4	Capacity	44	1_4	1	4	1	3	23_1_3	0	1	0	1	4.2650308609	353.0	379.0	None	None	0
3.0.1	2019_Mar_05_1507	s	s	1	4	Capacity	45	ABS	0	0	1	4	24_1_4	NA	NA	0	1	1.81054401398	None	None	None	None	1
3.0.1	2019_Mar_05_1507	s	s	1	4	Capacity	46	1_3	1	3	1	4	23_1_4	0	-1	1	0	0.604294061661	132.0	70.0	127.0	73.0	1
3.0.1	2019_Mar_05_1507	s	s	1	4	Capacity	47	1_3	1	3	1	1	23_1_1	0	2	1	0	0.775639057159	-330.0	164.0	-321.0	161.0	1
3.0.1	2019_Mar_05_1507	s	s	1	4	Capacity	48	ABS	0	0	1	2	24_1_2	NA	NA	0	1	4.98612594604	None	None	None	None	1
3.0.1	2019_Mar_05_1507	s	s	1	4	Capacity	49	1_3	1	3	1	4	23_1_4	0	-1	1	0	0.81084394455	-222.0	-143.0	-222.0	-146.0	1
3.0.1	2019_Mar_05_1507	s	s	1	4	Capacity	50	ABS	0	0	1	1	24_1_1	NA	NA	0	1	2.23394393921	None	None	None	None	1
3.0.1	2019_Mar_05_1507	s	s	1	4	Capacity	51	1_4	1	4	1	1	23_1_1	0	3	1	0	0.634392023087	322.0	269.0	331.0	266.0	1
3.0.1	2019_Mar_05_1507	s	s	1	4	Capacity	52	ABS	0	0	1	3	24_1_3	NA	NA	0	1	3.80993080139	None	None	None	None	1
3.0.1	2019_Mar_05_1507	s	s	1	4	Capacity	53	1_3	1	3	1	1	23_1_1	0	2	1	0	1.16661810875	295.0	53.0	291.0	49.0	1
3.0.1	2019_Mar_05_1507	s	s	1	4	Capacity	54	1_1	1	1	1	2	23_1_2	0	1	1	0	1.39306712151	256.0	55.0	238.0	158.0	0
3.0.1	2019_Mar_05_1507	s	s	1	4	Capacity	55	1_4	1	4	1	2	23_1_2	0	2	1	0	0.705394983292	-226.0	132.0	-219.0	126.0	1
3.0.1	2019_Mar_05_1507	s	s	1	4	Capacity	56	1_4	1	4	1	3	23_1_3	0	1	1	0	0.846639156342	-160.0	-48.0	-154.0	-39.0	1
3.0.1	2019_Mar_05_1507	s	s	1	4	Capacity	57	ABS	0	0	1	2	24_1_2	NA	NA	0	1	2.98664903641	None	None	None	None	1
3.0.1	2019_Mar_05_1507	s	s	1	4	Capacity	58	ABS	0	0	1	1	24_1_1	NA	NA	0	1	1.89294910431	None	None	None	None	1
3.0.1	2019_Mar_05_1507	s	s	1	4	Capacity	59	1_1	1	1	1	3	23_1_3	0	2	1	0	1.80419397354	-123.0	-371.0	-122.0	-374.0	1
3.0.1	2019_Mar_05_1507	s	s	1	4	Capacity	60	ABS	0	0	1	3	24_1_3	NA	NA	0	1	3.38256883621	None	None	None	None	1
3.0.1	2019_Mar_05_1507	s	s	1	4	Capacity	61	ABS	0	0	1	4	24_1_4	NA	NA	0	1	1.18722391129	None	None	None	None	1
3.0.1	2019_Mar_05_1507	s	s	1	4	Capacity	62	1_2	1	2	1	4	23_1_4	0	2	1	0	0.987283945084	482.0	-386.0	477.0	-385.0	1
3.0.1	2019_Mar_05_1507	s	s	1	4	Capacity	63	ABS	0	0	1	2	24_1_2	NA	NA	0	1	5.14187407494	None	None	None	None	1
3.0.1	2019_Mar_05_1507	s	s	1	4	Capacity	64	ABS	0	0	1	3	24_1_3	NA	NA	0	1	2.74542713165	None	None	None	None	1
3.0.1	2019_Mar_05_1507	s	s	1	4	Capacity	65	1_2	1	2	1	3	23_1_3	0	1	1	0	4.4451341629	-132.0	-366.0	-124.0	-362.0	1
3.0.1	2019_Mar_05_1507	s	s	1	4	Capacity	66	1_1	1	1	1	4	23_1_4	0	3	1	0	0.619809150696	298.0	397.0	289.0	406.0	1
3.0.1	2019_Mar_05_1507	s	s	1	4	Capacity	67	ABS	0	0	1	1	24_1_1	NA	NA	0	1	1.86292099953	None	None	None	None	1
3.0.1	2019_Mar_05_1507	s	s	1	4	Capacity	68	ABS	0	0	1	2	24_1_2	NA	NA	0	1	5.51524996758	None	None	None	None	1
3.0.1	2019_Mar_05_1507	s	s	1	4	Capacity	69	ABS	0	0	1	4	24_1_4	NA	NA	0	1	1.95816111565	None	None	None	None	1
3.0.1	2019_Mar_05_1507	s	s	1	4	Capacity	70	1_2	1	2	1	1	23_1_1	0	-1	0	1	1.99871897697	-213.0	-374.0	None	None	0
3.0.1	2019_Mar_05_1507	s	s	1	4	Capacity	71	1_3	1	3	1	2	23_1_2	0	1	1	0	3.09740805626	-433.0	-139.0	-433.0	-139.0	1
3.0.1	2019_Mar_05_1507	s	s	1	4	Capacity	72	ABS	0	0	1	4	24_1_4	NA	NA	0	1	1.73990416527	None	None	None	None	1
3.0.1	2019_Mar_05_1507	s	s	1	4	Capacity	73	ABS	0	0	1	4	24_1_4	NA	NA	0	1	1.575496912	None	None	None	None	1
3.0.1	2019_Mar_05_1507	s	s	1	4	Capacity	74	1_3	1	3	1	1	23_1_1	0	2	1	0	0.857893943787	105.0	76.0	97.0	70.0	1
3.0.1	2019_Mar_05_1507	s	s	1	4	Capacity	75	1_2	1	2	1	3	23_1_3	0	1	0	1	4.68485593796	457.0	-21.0	None	None	0
3.0.1	2019_Mar_05_1507	s	s	1	4	Capacity	76	ABS	0	0	1	3	24_1_3	NA	NA	0	1	4.63312196732	None	None	None	None	1
3.0.1	2019_Mar_05_1507	s	s	1	4	Capacity	77	ABS	0	0	1	2	24_1_2	NA	NA	0	1	6.23272895813	None	None	None	None	1
3.0.1	2019_Mar_05_1507	s	s	1	4	Capacity	78	ABS	0	0	1	1	24_1_1	NA	NA	0	1	2.19179606438	None	None	None	None	1
3.0.1	2019_Mar_05_1507	s	s	1	4	Capacity	79	ABS	0	0	1	2	24_1_2	NA	NA	0	1	5.83696198463	None	None	None	None	1
3.0.1	2019_Mar_05_1507	s	s	1	4	Capacity	80	1_1	1	1	1	2	23_1_2	0	1	1	0	1.82231807709	-90.0	343.0	-88.0	329.0	1
3.0.1	2019_Mar_05_1507	s	s	1	4	Capacity	81	1_4	1	4	1	2	23_1_2	0	2	1	0	0.827461004257	121.0	-298.0	125.0	-302.0	1
3.0.1	2019_Mar_05_1507	s	s	1	4	Capacity	82	1_2	1	2	1	4	23_1_4	0	2	1	0	0.658014059067	-453.0	219.0	-449.0	215.0	1
3.0.1	2019_Mar_05_1507	s	s	1	4	Capacity	83	ABS	0	0	1	3	24_1_3	NA	NA	0	1	3.349421978	None	None	None	None	1
3.0.1	2019_Mar_05_1507	s	s	1	4	Capacity	84	ABS	0	0	1	1	24_1_1	NA	NA	0	1	3.49247503281	None	None	None	None	1
3.0.1	2019_Mar_05_1507	s	s	1	4	Capacity	85	1_3	1	3	1	2	23_1_2	0	1	1	0	6.06811189651	-288.0	-187.0	-286.0	-189.0	1
3.0.1	2019_Mar_05_1507	s	s	1	4	Capacity	86	1_2	1	2	1	1	23_1_1	0	-1	0	1	1.95818519592	30.0	166.0	None	None	0
3.0.1	2019_Mar_05_1507	s	s	1	4	Capacity	87	1_4	1	4	1	3	23_1_3	0	1	1	0	0.73749089241	-26.0	160.0	-21.0	157.0	1
3.0.1	2019_Mar_05_1507	s	s	1	4	Capacity	88	ABS	0	0	1	3	24_1_3	NA	NA	0	1	5.81409287453	None	None	None	None	1
3.0.1	2019_Mar_05_1507	s	s	1	4	Capacity	89	1_3	1	3	1	4	23_1_4	0	-1	1	0	0.790250062943	-350.0	193.0	-344.0	190.0	1
3.0.1	2019_Mar_05_1507	s	s	1	4	Capacity	90	ABS	0	0	1	1	24_1_1	NA	NA	0	1	2.35148000717	None	None	None	None	1
3.0.1	2019_Mar_05_1507	s	s	1	4	Capacity	91	1_1	1	1	1	4	23_1_4	0	3	1	0	0.528612852097	187.0	302.0	191.0	302.0	1
3.0.1	2019_Mar_05_1507	s	s	1	4	Capacity	92	ABS	0	0	1	2	24_1_2	NA	NA	0	1	5.93868899345	None	None	None	None	1
3.0.1	2019_Mar_05_1507	s	s	1	4	Capacity	93	1_1	1	1	1	3	23_1_3	0	2	1	0	2.17511987686	260.0	-102.0	259.0	-103.0	1
3.0.1	2019_Mar_05_1507	s	s	1	4	Capacity	94	1_4	1	4	1	1	23_1_1	0	3	1	0	0.587322950363	-315.0	-112.0	-316.0	-113.0	1
3.0.1	2019_Mar_05_1507	s	s	1	4	Capacity	95	ABS	0	0	1	4	24_1_4	NA	NA	0	1	3.62167716026	None	None	None	None	1
3.0.1	2019_Mar_05_1507	s	s	1	4	Capacity	96	ABS	0	0	1	4	24_1_4	NA	NA	0	1	3.29781794548	None	None	None	None	1
3.0.1	2019_Mar_05_1507	s	s	1	4	Capacity	1	ABS	0	0	1	1	24_1_1	NA	NA	0	1	4.24515509605	None	None	None	None	1
3.0.1	2019_Mar_05_1507	s	s	1	4	Capacity	2	ABS	0	0	3	1	24_3_1	NA	NA	0	1	1.44220685959	None	None	None	None	1
3.0.1	2019_Mar_05_1507	s	s	1	4	Capacity	3	3_1	3	1	2	1	23_2_1	1	0	1	0	0.581165075302	352.0	-184.0	350.0	-190.0	1
3.0.1	2019_Mar_05_1507	s	s	1	4	Capacity	4	ABS	0	0	3	1	24_3_1	NA	NA	0	1	1.2225458622	None	None	None	None	1
3.0.1	2019_Mar_05_1507	s	s	1	4	Capacity	5	3_1	3	1	4	1	23_4_1	-1	0	1	0	0.693228960037	480.0	-138.0	476.0	-145.0	1
3.0.1	2019_Mar_05_1507	s	s	1	4	Capacity	6	ABS	0	0	1	1	24_1_1	NA	NA	0	1	5.49468111992	None	None	None	None	1
3.0.1	2019_Mar_05_1507	s	s	1	4	Capacity	7	1_1	1	1	3	1	23_3_1	2	0	1	0	0.509730100632	301.0	157.0	294.0	157.0	1
3.0.1	2019_Mar_05_1507	s	s	1	4	Capacity	8	ABS	0	0	1	1	24_1_1	NA	NA	0	1	6.55312895775	None	None	None	None	1
3.0.1	2019_Mar_05_1507	s	s	1	4	Capacity	9	1_1	1	1	2	1	23_2_1	1	0	1	0	3.23373889923	-452.0	-174.0	-452.0	-174.0	1
3.0.1	2019_Mar_05_1507	s	s	1	4	Capacity	10	ABS	0	0	2	1	24_2_1	NA	NA	0	1	6.01215910912	None	None	None	None	1
3.0.1	2019_Mar_05_1507	s	s	1	4	Capacity	11	2_1	2	1	1	1	23_1_1	-1	0	0	1	4.27412605286	-66.0	-207.0	None	None	0
3.0.1	2019_Mar_05_1507	s	s	1	4	Capacity	12	4_1	4	1	3	1	23_3_1	1	0	1	0	0.496339082718	-63.0	198.0	-65.0	195.0	1
3.0.1	2019_Mar_05_1507	s	s	1	4	Capacity	13	4_1	4	1	1	1	23_1_1	3	0	1	0	0.469733953476	-217.0	22.0	-221.0	15.0	1
3.0.1	2019_Mar_05_1507	s	s	1	4	Capacity	14	ABS	0	0	4	1	24_4_1	NA	NA	0	1	0.907871007919	None	None	None	None	1
3.0.1	2019_Mar_05_1507	s	s	1	4	Capacity	15	2_1	2	1	3	1	23_3_1	1	0	1	0	0.490659952164	-284.0	285.0	-284.0	285.0	1
3.0.1	2019_Mar_05_1507	s	s	1	4	Capacity	16	2_1	2	1	4	1	23_4_1	2	0	1	0	0.41096496582	378.0	226.0	371.0	224.0	1
3.0.1	2019_Mar_05_1507	s	s	1	4	Capacity	17	4_1	4	1	2	1	23_2_1	2	0	1	0	0.437350034714	-286.0	71.0	-289.0	72.0	1
3.0.1	2019_Mar_05_1507	s	s	1	4	Capacity	18	ABS	0	0	2	1	24_2_1	NA	NA	0	1	3.03960490227	None	None	None	None	1
3.0.1	2019_Mar_05_1507	s	s	1	4	Capacity	19	ABS	0	0	3	1	24_3_1	NA	NA	0	1	1.34007000923	None	None	None	None	1
3.0.1	2019_Mar_05_1507	s	s	1	4	Capacity	20	ABS	0	0	4	1	24_4_1	NA	NA	0	1	0.921828985214	None	None	None	None	1
3.0.1	2019_Mar_05_1507	s	s	1	4	Capacity	21	1_1	1	1	4	1	23_4_1	3	0	1	0	0.458019018173	393.0	-87.0	395.0	-92.0	1
3.0.1	2019_Mar_05_1507	s	s	1	4	Capacity	22	3_1	3	1	1	1	23_1_1	2	0	1	0	0.686091184616	527.0	-214.0	517.0	-210.0	1
3.0.1	2019_Mar_05_1507	s	s	1	4	Capacity	23	ABS	0	0	4	1	24_4_1	NA	NA	0	1	0.963731050491	None	None	None	None	1
3.0.1	2019_Mar_05_1507	s	s	1	4	Capacity	24	ABS	0	0	2	1	24_2_1	NA	NA	0	1	3.5542011261	None	None	None	None	1
3.0.1	2019_Mar_05_1507	s	s	1	4	Capacity	25	2_1	2	1	3	1	23_3_1	1	0	1	0	0.662667036057	420.0	143.0	414.0	143.0	1
3.0.1	2019_Mar_05_1507	s	s	1	4	Capacity	26	ABS	0	0	2	1	24_2_1	NA	NA	0	1	3.84176898003	None	None	None	None	1
3.0.1	2019_Mar_05_1507	s	s	1	4	Capacity	27	3_1	3	1	4	1	23_4_1	-1	0	1	0	0.502534866333	-98.0	-123.0	-96.0	-115.0	1
3.0.1	2019_Mar_05_1507	s	s	1	4	Capacity	28	ABS	0	0	2	1	24_2_1	NA	NA	0	1	4.29205083847	None	None	None	None	1
3.0.1	2019_Mar_05_1507	s	s	1	4	Capacity	29	4_1	4	1	1	1	23_1_1	3	0	1	0	0.533204078674	197.0	97.0	198.0	94.0	1
3.0.1	2019_Mar_05_1507	s	s	1	4	Capacity	30	3_1	3	1	2	1	23_2_1	1	0	1	0	0.716845989227	471.0	-106.0	473.0	-114.0	1
3.0.1	2019_Mar_05_1507	s	s	1	4	Capacity	31	ABS	0	0	3	1	24_3_1	NA	NA	0	1	2.57502818108	None	None	None	None	1
3.0.1	2019_Mar_05_1507	s	s	1	4	Capacity	32	ABS	0	0	4	1	24_4_1	NA	NA	0	1	0.954869031906	None	None	None	None	1
3.0.1	2019_Mar_05_1507	s	s	1	4	Capacity	33	ABS	0	0	2	1	24_2_1	NA	NA	0	1	5.52078080177	None	None	None	None	1
3.0.1	2019_Mar_05_1507	s	s	1	4	Capacity	34	1_1	1	1	4	1	23_4_1	3	0	1	0	0.510171890259	-60.0	400.0	-55.0	392.0	1
3.0.1	2019_Mar_05_1507	s	s	1	4	Capacity	35	4_1	4	1	2	1	23_2_1	2	0	1	0	0.474743127823	-14.0	-373.0	-3.0	-368.0	1
3.0.1	2019_Mar_05_1507	s	s	1	4	Capacity	36	2_1	2	1	1	1	23_1_1	-1	0	1	0	7.63510417938	-479.0	157.0	-472.0	160.0	1
3.0.1	2019_Mar_05_1507	s	s	1	4	Capacity	37	4_1	4	1	3	1	23_3_1	1	0	1	0	0.5018491745	-173.0	-114.0	-181.0	-113.0	1
3.0.1	2019_Mar_05_1507	s	s	1	4	Capacity	38	ABS	0	0	1	1	24_1_1	NA	NA	0	1	4.95078682899	None	None	None	None	1
3.0.1	2019_Mar_05_1507	s	s	1	4	Capacity	39	ABS	0	0	4	1	24_4_1	NA	NA	0	1	0.731455087662	None	None	None	None	1
3.0.1	2019_Mar_05_1507	s	s	1	4	Capacity	40	ABS	0	0	4	1	24_4_1	NA	NA	0	1	0.704903841019	None	None	None	None	1
3.0.1	2019_Mar_05_1507	s	s	1	4	Capacity	41	1_1	1	1	2	1	23_2_1	1	0	1	0	7.09127497673	443.0	-285.0	446.0	-283.0	1
3.0.1	2019_Mar_05_1507	s	s	1	4	Capacity	42	3_1	3	1	1	1	23_1_1	2	0	1	0	0.559399843216	-504.0	-15.0	-506.0	-16.0	1
3.0.1	2019_Mar_05_1507	s	s	1	4	Capacity	43	ABS	0	0	3	1	24_3_1	NA	NA	0	1	1.7686560154	None	None	None	None	1
3.0.1	2019_Mar_05_1507	s	s	1	4	Capacity	44	ABS	0	0	1	1	24_1_1	NA	NA	0	1	3.16312098503	None	None	None	None	1
3.0.1	2019_Mar_05_1507	s	s	1	4	Capacity	45	ABS	0	0	1	1	24_1_1	NA	NA	0	1	5.72989988327	None	None	None	None	1
3.0.1	2019_Mar_05_1507	s	s	1	4	Capacity	46	ABS	0	0	3	1	24_3_1	NA	NA	0	1	0.775584936142	None	None	None	None	1
3.0.1	2019_Mar_05_1507	s	s	1	4	Capacity	47	1_1	1	1	3	1	23_3_1	2	0	1	0	0.784399032593	296.0	-403.0	297.0	-397.0	1
3.0.1	2019_Mar_05_1507	s	s	1	4	Capacity	48	2_1	2	1	4	1	23_4_1	2	0	1	0	0.481668949127	160.0	20.0	161.0	16.0	1
3.0.1	2019_Mar_05_1507	s	s	1	4	Capacity	49	4_1	4	1	3	1	23_3_1	1	0	1	0	0.437452077866	-136.0	-212.0	-132.0	-212.0	1
3.0.1	2019_Mar_05_1507	s	s	1	4	Capacity	50	3_1	3	1	1	1	23_1_1	2	0	1	0	0.484972953796	7.0	124.0	-2.0	122.0	1
3.0.1	2019_Mar_05_1507	s	s	1	4	Capacity	51	ABS	0	0	2	1	24_2_1	NA	NA	0	1	4.35544490814	None	None	None	None	1
3.0.1	2019_Mar_05_1507	s	s	1	4	Capacity	52	ABS	0	0	1	1	24_1_1	NA	NA	1	0	0.660948038101	None	None	-482.0	-55.0	0
3.0.1	2019_Mar_05_1507	s	s	1	4	Capacity	53	ABS	0	0	4	1	24_4_1	NA	NA	0	1	0.746315002441	None	None	None	None	1
3.0.1	2019_Mar_05_1507	s	s	1	4	Capacity	54	ABS	0	0	1	1	24_1_1	NA	NA	0	1	5.53099608421	None	None	None	None	1
3.0.1	2019_Mar_05_1507	s	s	1	4	Capacity	55	ABS	0	0	4	1	24_4_1	NA	NA	0	1	0.672695875168	None	None	None	None	1
3.0.1	2019_Mar_05_1507	s	s	1	4	Capacity	56	3_1	3	1	2	1	23_2_1	1	0	1	0	0.501376152039	-32.0	-236.0	-36.0	-232.0	1
3.0.1	2019_Mar_05_1507	s	s	1	4	Capacity	57	ABS	0	0	3	1	24_3_1	NA	NA	0	1	1.81715607643	None	None	None	None	1
3.0.1	2019_Mar_05_1507	s	s	1	4	Capacity	58	ABS	0	0	2	1	24_2_1	NA	NA	0	1	4.03350281715	None	None	None	None	1
3.0.1	2019_Mar_05_1507	s	s	1	4	Capacity	59	ABS	0	0	1	1	24_1_1	NA	NA	0	1	5.58590602875	None	None	None	None	1
3.0.1	2019_Mar_05_1507	s	s	1	4	Capacity	60	ABS	0	0	4	1	24_4_1	NA	NA	0	1	0.604204893112	None	None	None	None	1
3.0.1	2019_Mar_05_1507	s	s	1	4	Capacity	61	ABS	0	0	2	1	24_2_1	NA	NA	0	1	7.42578315735	None	None	None	None	1
3.0.1	2019_Mar_05_1507	s	s	1	4	Capacity	62	ABS	0	0	3	1	24_3_1	NA	NA	0	1	2.11641716957	None	None	None	None	1
3.0.1	2019_Mar_05_1507	s	s	1	4	Capacity	63	4_1	4	1	1	1	23_1_1	3	0	1	0	0.720582962036	400.0	-61.0	393.0	-66.0	1
3.0.1	2019_Mar_05_1507	s	s	1	4	Capacity	64	2_1	2	1	1	1	23_1_1	-1	0	0	1	5.67559885979	-43.0	-409.0	None	None	0
3.0.1	2019_Mar_05_1507	s	s	1	4	Capacity	65	2_1	2	1	4	1	23_4_1	2	0	1	0	0.460842847824	-240.0	18.0	-232.0	18.0	1
3.0.1	2019_Mar_05_1507	s	s	1	4	Capacity	66	ABS	0	0	3	1	24_3_1	NA	NA	0	1	1.62905597687	None	None	None	None	1
3.0.1	2019_Mar_05_1507	s	s	1	4	Capacity	67	3_1	3	1	4	1	23_4_1	-1	0	1	0	0.51017999649	300.0	210.0	305.0	204.0	1
3.0.1	2019_Mar_05_1507	s	s	1	4	Capacity	68	1_1	1	1	4	1	23_4_1	3	0	1	0	0.469751119614	415.0	-245.0	416.0	-245.0	1
3.0.1	2019_Mar_05_1507	s	s	1	4	Capacity	69	1_1	1	1	2	1	23_2_1	1	0	1	0	2.62687015533	-147.0	157.0	-145.0	152.0	1
3.0.1	2019_Mar_05_1507	s	s	1	4	Capacity	70	2_1	2	1	3	1	23_3_1	1	0	1	0	0.862817049026	236.0	-137.0	232.0	-135.0	1
3.0.1	2019_Mar_05_1507	s	s	1	4	Capacity	71	4_1	4	1	2	1	23_2_1	2	0	1	0	0.42789721489	-530.0	-131.0	-524.0	-126.0	1
3.0.1	2019_Mar_05_1507	s	s	1	4	Capacity	72	1_1	1	1	3	1	23_3_1	2	0	1	0	0.496230125427	-155.0	93.0	-157.0	85.0	1
3.0.1	2019_Mar_05_1507	s	s	1	4	Capacity	73	4_1	4	1	1	1	23_1_1	3	0	1	0	0.457995176315	153.0	355.0	145.0	354.0	1
3.0.1	2019_Mar_05_1507	s	s	1	4	Capacity	74	2_1	2	1	4	1	23_4_1	2	0	1	0	0.434812068939	-469.0	-317.0	-471.0	-319.0	1
3.0.1	2019_Mar_05_1507	s	s	1	4	Capacity	75	ABS	0	0	2	1	24_2_1	NA	NA	0	1	6.27982020378	None	None	None	None	1
3.0.1	2019_Mar_05_1507	s	s	1	4	Capacity	76	1_1	1	1	3	1	23_3_1	2	0	1	0	0.660845041275	-529.0	-84.0	-527.0	-83.0	1
3.0.1	2019_Mar_05_1507	s	s	1	4	Capacity	77	ABS	0	0	2	1	24_2_1	NA	NA	0	1	4.744399786	None	None	None	None	1
3.0.1	2019_Mar_05_1507	s	s	1	4	Capacity	78	ABS	0	0	4	1	24_4_1	NA	NA	0	1	0.575702905655	None	None	None	None	1
3.0.1	2019_Mar_05_1507	s	s	1	4	Capacity	79	ABS	0	0	1	1	24_1_1	NA	NA	0	1	5.32311010361	None	None	None	None	1
3.0.1	2019_Mar_05_1507	s	s	1	4	Capacity	80	ABS	0	0	1	1	24_1_1	NA	NA	0	1	4.48030805588	None	None	None	None	1
3.0.1	2019_Mar_05_1507	s	s	1	4	Capacity	81	ABS	0	0	3	1	24_3_1	NA	NA	0	1	1.99872398376	None	None	None	None	1
3.0.1	2019_Mar_05_1507	s	s	1	4	Capacity	82	ABS	0	0	4	1	24_4_1	NA	NA	0	1	0.8108689785	None	None	None	None	1
3.0.1	2019_Mar_05_1507	s	s	1	4	Capacity	83	4_1	4	1	2	1	23_2_1	2	0	1	0	0.451386928558	-520.0	247.0	-519.0	240.0	1
3.0.1	2019_Mar_05_1507	s	s	1	4	Capacity	84	ABS	0	0	3	1	24_3_1	NA	NA	0	1	1.45774412155	None	None	None	None	1
3.0.1	2019_Mar_05_1507	s	s	1	4	Capacity	85	ABS	0	0	4	1	24_4_1	NA	NA	0	1	0.627572059631	None	None	None	None	1
3.0.1	2019_Mar_05_1507	s	s	1	4	Capacity	86	2_1	2	1	1	1	23_1_1	-1	0	1	0	2.24572396278	202.0	-11.0	208.0	-17.0	1
3.0.1	2019_Mar_05_1507	s	s	1	4	Capacity	87	1_1	1	1	2	1	23_2_1	1	0	1	0	4.02453279495	160.0	-217.0	167.0	-220.0	1
3.0.1	2019_Mar_05_1507	s	s	1	4	Capacity	88	3_1	3	1	1	1	23_1_1	2	0	1	0	0.545527935028	-100.0	-262.0	-106.0	-262.0	1
3.0.1	2019_Mar_05_1507	s	s	1	4	Capacity	89	1_1	1	1	4	1	23_4_1	3	0	1	0	0.587433099747	224.0	-97.0	223.0	-108.0	1
3.0.1	2019_Mar_05_1507	s	s	1	4	Capacity	90	3_1	3	1	4	1	23_4_1	-1	0	1	0	0.559335947037	450.0	319.0	447.0	316.0	1
3.0.1	2019_Mar_05_1507	s	s	1	4	Capacity	91	3_1	3	1	2	1	23_2_1	1	0	1	0	1.17547607422	384.0	146.0	381.0	141.0	1
3.0.1	2019_Mar_05_1507	s	s	1	4	Capacity	92	ABS	0	0	2	1	24_2_1	NA	NA	0	1	6.750207901	None	None	None	None	1
3.0.1	2019_Mar_05_1507	s	s	1	4	Capacity	93	2_1	2	1	3	1	23_3_1	1	0	1	0	0.614947795868	463.0	-409.0	458.0	-399.0	1
3.0.1	2019_Mar_05_1507	s	s	1	4	Capacity	94	4_1	4	1	3	1	23_3_1	1	0	1	0	0.443848848343	-401.0	188.0	-411.0	186.0	1
3.0.1	2019_Mar_05_1507	s	s	1	4	Capacity	95	ABS	0	0	3	1	24_3_1	NA	NA	0	1	1.30485606194	None	None	None	None	1
3.0.1	2019_Mar_05_1507	s	s	1	4	Capacity	96	ABS	0	0	1	1	24_1_1	NA	NA	0	1	2.88509297371	None	None	None	None	1
3.0.1	2019_Mar_05_1507	s	s	1	4	SIC	1	ABS	0	0	1	1	24_1_1	NA	NA	0	1	2.76705598831	None	None	None	None	1
3.0.1	2019_Mar_05_1507	s	s	1	4	SIC	2	ABS	0	0	3	2	24_3_2	NA	NA	0	1	3.93927502632	None	None	None	None	1
3.0.1	2019_Mar_05_1507	s	s	1	4	SIC	3	ABS	0	0	4	1	24_4_1	NA	NA	0	1	2.6174788475	None	None	None	None	1
3.0.1	2019_Mar_05_1507	s	s	1	4	SIC	4	3_2	3	2	4	1	23_4_1	-1	-1	1	0	0.676964044571	-317.0	330.0	-315.0	320.0	1
3.0.1	2019_Mar_05_1507	s	s	1	4	SIC	5	2_4	2	4	3	4	23_3_4	1	0	1	0	0.622714996338	-95.0	-317.0	-91.0	-324.0	1
3.0.1	2019_Mar_05_1507	s	s	1	4	SIC	6	ABS	0	0	2	1	24_2_1	NA	NA	0	1	2.80720686913	None	None	None	None	1
3.0.1	2019_Mar_05_1507	s	s	1	4	SIC	7	ABS	0	0	2	4	24_2_4	NA	NA	0	1	2.7801361084	None	None	None	None	1
3.0.1	2019_Mar_05_1507	s	s	1	4	SIC	8	ABS	0	0	4	2	24_4_2	NA	NA	0	1	5.80927705765	None	None	None	None	1
3.0.1	2019_Mar_05_1507	s	s	1	4	SIC	9	ABS	0	0	3	1	24_3_1	NA	NA	0	1	2.64564204216	None	None	None	None	1
3.0.1	2019_Mar_05_1507	s	s	1	4	SIC	10	1_4	1	4	3	2	23_3_2	2	2	1	0	0.52859377861	-67.0	194.0	-62.0	184.0	1
3.0.1	2019_Mar_05_1507	s	s	1	4	SIC	11	1_2	1	2	1	4	23_1_4	0	2	1	0	1.39045095444	529.0	-408.0	532.0	-403.0	1
3.0.1	2019_Mar_05_1507	s	s	1	4	SIC	12	1_4	1	4	3	3	23_3_3	2	1	1	0	0.731379985809	326.0	-65.0	317.0	-59.0	1
3.0.1	2019_Mar_05_1507	s	s	1	4	SIC	13	ABS	0	0	1	3	24_1_3	NA	NA	0	1	4.73900604248	None	None	None	None	1
3.0.1	2019_Mar_05_1507	s	s	1	4	SIC	14	4_2	4	2	3	2	23_3_2	1	0	1	0	0.437405824661	-407.0	242.0	-413.0	234.0	1
3.0.1	2019_Mar_05_1507	s	s	1	4	SIC	15	2_2	2	2	2	1	23_2_1	0	-1	1	0	1.86334896088	262.0	338.0	261.0	334.0	1
3.0.1	2019_Mar_05_1507	s	s	1	4	SIC	16	ABS	0	0	3	3	24_3_3	NA	NA	0	1	3.88460302353	None	None	None	None	1
3.0.1	2019_Mar_05_1507	s	s	1	4	SIC	17	ABS	0	0	4	2	24_4_2	NA	NA	0	1	5.89454889297	None	None	None	None	1
3.0.1	2019_Mar_05_1507	s	s	1	4	SIC	18	2_2	2	2	1	2	23_1_2	-1	0	1	0	5.72994613647	233.0	-334.0	224.0	-332.0	1
3.0.1	2019_Mar_05_1507	s	s	1	4	SIC	19	ABS	0	0	1	4	24_1_4	NA	NA	0	1	2.85542178154	None	None	None	None	1
3.0.1	2019_Mar_05_1507	s	s	1	4	SIC	20	4_3	4	3	1	4	23_1_4	3	-1	1	0	0.440529823303	210.0	242.0	212.0	243.0	1
3.0.1	2019_Mar_05_1507	s	s	1	4	SIC	21	4_2	4	2	4	1	23_4_1	0	-1	1	0	1.76711893082	-288.0	372.0	-289.0	376.0	1
3.0.1	2019_Mar_05_1507	s	s	1	4	SIC	22	ABS	0	0	2	2	24_2_2	NA	NA	0	1	5.59771203995	None	None	None	None	1
3.0.1	2019_Mar_05_1507	s	s	1	4	SIC	23	4_1	4	1	2	4	23_2_4	2	3	1	0	0.469747066498	173.0	156.0	180.0	149.0	1
3.0.1	2019_Mar_05_1507	s	s	1	4	SIC	24	1_2	1	2	4	2	23_4_2	3	0	1	0	0.481567144394	-201.0	-345.0	-192.0	-346.0	1
3.0.1	2019_Mar_05_1507	s	s	1	4	SIC	25	3_4	3	4	4	1	23_4_1	-1	3	1	0	0.563863992691	212.0	385.0	214.0	382.0	1
3.0.1	2019_Mar_05_1507	s	s	1	4	SIC	26	2_1	2	1	3	1	23_3_1	1	0	1	0	0.61382484436	-534.0	178.0	-527.0	176.0	1
3.0.1	2019_Mar_05_1507	s	s	1	4	SIC	27	3_2	3	2	3	4	23_3_4	0	2	1	0	0.92856502533	491.0	-404.0	492.0	-409.0	1
3.0.1	2019_Mar_05_1507	s	s	1	4	SIC	28	ABS	0	0	3	4	24_3_4	NA	NA	0	1	1.60293197632	None	None	None	None	1
3.0.1	2019_Mar_05_1507	s	s	1	4	SIC	29	ABS	0	0	4	3	24_4_3	NA	NA	0	1	4.78061389923	None	None	None	None	1
3.0.1	2019_Mar_05_1507	s	s	1	4	SIC	30	2_3	2	3	2	1	23_2_1	0	2	1	0	0.763787984848	244.0	-84.0	249.0	-88.0	1
3.0.1	2019_Mar_05_1507	s	s	1	4	SIC	31	ABS	0	0	3	3	24_3_3	NA	NA	0	1	2.58684682846	None	None	None	None	1
3.0.1	2019_Mar_05_1507	s	s	1	4	SIC	32	1_1	1	1	2	3	23_2_3	1	2	1	0	0.886064052582	99.0	93.0	105.0	96.0	1
3.0.1	2019_Mar_05_1507	s	s	1	4	SIC	33	4_2	4	2	4	3	23_4_3	0	1	1	0	1.72120904922	-144.0	115.0	-144.0	119.0	1
3.0.1	2019_Mar_05_1507	s	s	1	4	SIC	34	ABS	0	0	1	3	24_1_3	NA	NA	0	1	4.38664102554	None	None	None	None	1
3.0.1	2019_Mar_05_1507	s	s	1	4	SIC	35	4_1	4	1	3	3	23_3_3	1	2	1	0	0.437366962433	216.0	305.0	221.0	306.0	1
3.0.1	2019_Mar_05_1507	s	s	1	4	SIC	36	ABS	0	0	4	3	24_4_3	NA	NA	0	1	5.97397708893	None	None	None	None	1
3.0.1	2019_Mar_05_1507	s	s	1	4	SIC	37	2_1	2	1	1	1	23_1_1	-1	0	1	0	1.70971798897	-347.0	108.0	-340.0	110.0	1
3.0.1	2019_Mar_05_1507	s	s	1	4	SIC	38	ABS	0	0	4	1	24_4_1	NA	NA	0	1	1.97279381752	None	None	None	None	1
3.0.1	2019_Mar_05_1507	s	s	1	4	SIC	39	2_1	2	1	3	4	23_3_4	1	3	1	0	0.493352890015	-438.0	-166.0	-437.0	-158.0	1
3.0.1	2019_Mar_05_1507	s	s	1	4	SIC	40	ABS	0	0	1	2	24_1_2	NA	NA	0	1	6.32683396339	None	None	None	None	1
3.0.1	2019_Mar_05_1507	s	s	1	4	SIC	41	ABS	0	0	3	3	24_3_3	NA	NA	0	1	4.73217606544	None	None	None	None	1
3.0.1	2019_Mar_05_1507	s	s	1	4	SIC	42	1_1	1	1	4	1	23_4_1	3	0	1	0	0.446238994598	-249.0	-43.0	-243.0	-46.0	1
3.0.1	2019_Mar_05_1507	s	s	1	4	SIC	43	ABS	0	0	3	3	24_3_3	NA	NA	0	1	3.15774393082	None	None	None	None	1
3.0.1	2019_Mar_05_1507	s	s	1	4	SIC	44	ABS	0	0	4	4	24_4_4	NA	NA	0	1	1.63409090042	None	None	None	None	1
3.0.1	2019_Mar_05_1507	s	s	1	4	SIC	45	1_4	1	4	3	1	23_3_1	2	3	1	0	0.496173143387	79.0	-130.0	74.0	-129.0	1
3.0.1	2019_Mar_05_1507	s	s	1	4	SIC	46	2_4	2	4	1	2	23_1_2	-1	2	1	0	0.693244934082	-186.0	241.0	-182.0	239.0	1
3.0.1	2019_Mar_05_1507	s	s	1	4	SIC	47	ABS	0	0	2	2	24_2_2	NA	NA	0	1	6.88361310959	None	None	None	None	1
3.0.1	2019_Mar_05_1507	s	s	1	4	SIC	48	ABS	0	0	3	4	24_3_4	NA	NA	0	1	1.64593696594	None	None	None	None	1
3.0.1	2019_Mar_05_1507	s	s	1	4	SIC	49	4_4	4	4	2	3	23_2_3	2	1	1	0	0.587394952774	217.0	187.0	212.0	186.0	1
3.0.1	2019_Mar_05_1507	s	s	1	4	SIC	50	ABS	0	0	4	4	24_4_4	NA	NA	0	1	1.66377902031	None	None	None	None	1
3.0.1	2019_Mar_05_1507	s	s	1	4	SIC	51	3_4	3	4	4	3	23_4_3	-1	1	1	0	0.496206998825	-477.0	108.0	-472.0	102.0	1
3.0.1	2019_Mar_05_1507	s	s	1	4	SIC	52	1_4	1	4	1	3	23_1_3	0	1	1	0	1.16371297836	204.0	-136.0	198.0	-135.0	1
3.0.1	2019_Mar_05_1507	s	s	1	4	SIC	53	ABS	0	0	2	3	24_2_3	NA	NA	0	1	3.09845900536	None	None	None	None	1
3.0.1	2019_Mar_05_1507	s	s	1	4	SIC	54	ABS	0	0	3	2	24_3_2	NA	NA	0	1	2.87327408791	None	None	None	None	1
3.0.1	2019_Mar_05_1507	s	s	1	4	SIC	55	1_2	1	2	3	1	23_3_1	2	-1	1	0	0.519636869431	134.0	171.0	136.0	168.0	1
3.0.1	2019_Mar_05_1507	s	s	1	4	SIC	56	1_2	1	2	4	3	23_4_3	3	1	1	0	0.404810905457	384.0	197.0	388.0	192.0	1
3.0.1	2019_Mar_05_1507	s	s	1	4	SIC	57	2_4	2	4	4	2	23_4_2	2	2	1	0	0.469785928726	1.0	-269.0	-5.0	-262.0	1
3.0.1	2019_Mar_05_1507	s	s	1	4	SIC	58	4_2	4	2	1	3	23_1_3	3	1	1	0	0.555088996887	222.0	15.0	222.0	10.0	1
3.0.1	2019_Mar_05_1507	s	s	1	4	SIC	59	ABS	0	0	3	1	24_3_1	NA	NA	0	1	2.26040196419	None	None	None	None	1
3.0.1	2019_Mar_05_1507	s	s	1	4	SIC	60	ABS	0	0	4	4	24_4_4	NA	NA	0	1	1.08428692818	None	None	None	None	1
3.0.1	2019_Mar_05_1507	s	s	1	4	SIC	61	ABS	0	0	2	1	24_2_1	NA	NA	0	1	3.02678203583	None	None	None	None	1
3.0.1	2019_Mar_05_1507	s	s	1	4	SIC	62	ABS	0	0	3	1	24_3_1	NA	NA	0	1	1.78706002235	None	None	None	None	1
3.0.1	2019_Mar_05_1507	s	s	1	4	SIC	63	3_3	3	3	4	1	23_4_1	-1	2	1	0	0.450244903564	95.0	-296.0	87.0	-293.0	1
3.0.1	2019_Mar_05_1507	s	s	1	4	SIC	64	ABS	0	0	3	2	24_3_2	NA	NA	0	1	5.00948882103	None	None	None	None	1
3.0.1	2019_Mar_05_1507	s	s	1	4	SIC	65	1_1	1	1	4	4	23_4_4	3	3	1	0	0.434476137161	394.0	197.0	388.0	196.0	1
3.0.1	2019_Mar_05_1507	s	s	1	4	SIC	66	ABS	0	0	4	1	24_4_1	NA	NA	0	1	1.2509739399	None	None	None	None	1
3.0.1	2019_Mar_05_1507	s	s	1	4	SIC	67	2_4	2	4	4	1	23_4_1	2	3	1	0	0.387372016907	325.0	179.0	333.0	179.0	1
3.0.1	2019_Mar_05_1507	s	s	1	4	SIC	68	ABS	0	0	3	3	24_3_3	NA	NA	0	1	3.35128903389	None	None	None	None	1
3.0.1	2019_Mar_05_1507	s	s	1	4	SIC	69	2_2	2	2	1	4	23_1_4	-1	2	1	0	0.613832950592	229.0	176.0	233.0	179.0	1
3.0.1	2019_Mar_05_1507	s	s	1	4	SIC	70	3_3	3	3	1	2	23_1_2	2	1	1	0	0.569383144379	394.0	-155.0	388.0	-158.0	1
3.0.1	2019_Mar_05_1507	s	s	1	4	SIC	71	3_3	3	3	2	1	23_2_1	1	2	1	0	0.913402795792	461.0	-325.0	465.0	-327.0	1
3.0.1	2019_Mar_05_1507	s	s	1	4	SIC	72	1_4	1	4	2	3	23_2_3	1	1	1	0	2.50951504707	155.0	-91.0	161.0	-91.0	1
3.0.1	2019_Mar_05_1507	s	s	1	4	SIC	73	ABS	0	0	2	3	24_2_3	NA	NA	0	1	3.95109605789	None	None	None	None	1
3.0.1	2019_Mar_05_1507	s	s	1	4	SIC	74	3_3	3	3	3	1	23_3_1	0	2	1	0	2.29922199249	-407.0	-330.0	-401.0	-332.0	1
3.0.1	2019_Mar_05_1507	s	s	1	4	SIC	75	ABS	0	0	3	1	24_3_1	NA	NA	0	1	2.3868560791	None	None	None	None	1
3.0.1	2019_Mar_05_1507	s	s	1	4	SIC	76	ABS	0	0	1	4	24_1_4	NA	NA	0	1	2.42209601402	None	None	None	None	1
3.0.1	2019_Mar_05_1507	s	s	1	4	SIC	77	ABS	0	0	2	3	24_2_3	NA	NA	0	1	4.07389092445	None	None	None	None	1
3.0.1	2019_Mar_05_1507	s	s	1	4	SIC	78	ABS	0	0	4	1	24_4_1	NA	NA	0	1	1.0578660965	None	None	None	None	1
3.0.1	2019_Mar_05_1507	s	s	1	4	SIC	79	3_2	3	2	2	3	23_2_3	1	1	1	0	0.540374994278	69.0	119.0	71.0	116.0	1
3.0.1	2019_Mar_05_1507	s	s	1	4	SIC	80	3_3	3	3	1	1	23_1_1	2	2	1	0	0.555037021637	-115.0	-196.0	-115.0	-190.0	1
3.0.1	2019_Mar_05_1507	s	s	1	4	SIC	81	ABS	0	0	2	4	24_2_4	NA	NA	0	1	2.96314096451	None	None	None	None	1
3.0.1	2019_Mar_05_1507	s	s	1	4	SIC	82	4_1	4	1	4	2	23_4_2	0	1	0	1	2.69656610489	-84.0	-365.0	None	None	0
3.0.1	2019_Mar_05_1507	s	s	1	4	SIC	83	ABS	0	0	3	4	24_3_4	NA	NA	0	1	1.04609394073	None	None	None	None	1
3.0.1	2019_Mar_05_1507	s	s	1	4	SIC	84	ABS	0	0	3	4	24_3_4	NA	NA	0	1	1.28715991974	None	None	None	None	1
3.0.1	2019_Mar_05_1507	s	s	1	4	SIC	85	4_1	4	1	3	1	23_3_1	1	0	1	0	0.552093029022	483.0	341.0	490.0	347.0	1
3.0.1	2019_Mar_05_1507	s	s	1	4	SIC	86	3_2	3	2	2	2	23_2_2	1	0	1	0	0.505026102066	-539.0	-30.0	-532.0	-30.0	1
3.0.1	2019_Mar_05_1507	s	s	1	4	SIC	87	ABS	0	0	3	4	24_3_4	NA	NA	0	1	1.18505907059	None	None	None	None	1
3.0.1	2019_Mar_05_1507	s	s	1	4	SIC	88	ABS	0	0	2	1	24_2_1	NA	NA	0	1	6.35030698776	None	None	None	None	1
3.0.1	2019_Mar_05_1507	s	s	1	4	SIC	89	ABS	0	0	1	3	24_1_3	NA	NA	0	1	3.07505202293	None	None	None	None	1
3.0.1	2019_Mar_05_1507	s	s	1	4	SIC	90	ABS	0	0	2	2	24_2_2	NA	NA	1	0	0.0758459568024	None	None	-121.0	54.0	0
3.0.1	2019_Mar_05_1507	s	s	1	4	SIC	91	4_1	4	1	1	2	23_1_2	3	1	1	0	0.458001852036	77.0	148.0	78.0	146.0	1
3.0.1	2019_Mar_05_1507	s	s	1	4	SIC	92	ABS	0	0	4	3	24_4_3	NA	NA	0	1	3.43365812302	None	None	None	None	1
3.0.1	2019_Mar_05_1507	s	s	1	4	SIC	93	ABS	0	0	2	4	24_2_4	NA	NA	0	1	2.67203688622	None	None	None	None	1
3.0.1	2019_Mar_05_1507	s	s	1	4	SIC	94	ABS	0	0	2	4	24_2_4	NA	NA	0	1	3.20128679276	None	None	None	None	1
3.0.1	2019_Mar_05_1507	s	s	1	4	SIC	95	3_3	3	3	3	2	23_3_2	0	1	0	1	4.73506903648	503.0	332.0	None	None	0
3.0.1	2019_Mar_05_1507	s	s	1	4	SIC	96	ABS	0	0	4	4	24_4_4	NA	NA	0	1	1.0136680603	None	None	None	None	1
3.0.1	2019_Mar_05_1507	s	s	1	4	SIC	97	ABS	0	0	4	1	24_4_1	NA	NA	0	1	1.41072511673	None	None	None	None	1
3.0.1	2019_Mar_05_1507	s	s	1	4	SIC	98	2_4	2	4	2	2	23_2_2	0	2	1	0	1.9050860405	146.0	-291.0	153.0	-288.0	1
3.0.1	2019_Mar_05_1507	s	s	1	4	SIC	99	ABS	0	0	4	2	24_4_2	NA	NA	0	1	2.51658010483	None	None	None	None	1
3.0.1	2019_Mar_05_1507	s	s	1	4	SIC	100	3_3	3	3	4	2	23_4_2	-1	1	1	0	0.481585025787	-465.0	316.0	-467.0	317.0	1
3.0.1	2019_Mar_05_1507	s	s	1	4	SIC	101	ABS	0	0	3	2	24_3_2	NA	NA	0	1	2.83385396004	None	None	None	None	1
3.0.1	2019_Mar_05_1507	s	s	1	4	SIC	102	2_2	2	2	2	3	23_2_3	0	1	0	1	5.13274502754	458.0	341.0	None	None	0
3.0.1	2019_Mar_05_1507	s	s	1	4	SIC	103	2_2	2	2	3	4	23_3_4	1	2	1	0	0.89320898056	-250.0	-115.0	-243.0	-109.0	1
3.0.1	2019_Mar_05_1507	s	s	1	4	SIC	104	ABS	0	0	1	4	24_1_4	NA	NA	0	1	2.52798700333	None	None	None	None	1
3.0.1	2019_Mar_05_1507	s	s	1	4	SIC	105	ABS	0	0	3	1	24_3_1	NA	NA	0	1	1.23474502563	None	None	None	None	1
3.0.1	2019_Mar_05_1507	s	s	1	4	SIC	106	ABS	0	0	4	3	24_4_3	NA	NA	0	1	2.59892010689	None	None	None	None	1
3.0.1	2019_Mar_05_1507	s	s	1	4	SIC	107	1_3	1	3	2	2	23_2_2	1	1	1	0	2.03428196907	-294.0	88.0	-302.0	95.0	1
3.0.1	2019_Mar_05_1507	s	s	1	4	SIC	108	ABS	0	0	2	2	24_2_2	NA	NA	0	1	5.55921411514	None	None	None	None	1
3.0.1	2019_Mar_05_1507	s	s	1	4	SIC	109	ABS	0	0	4	3	24_4_3	NA	NA	0	1	2.60392403603	None	None	None	None	1
3.0.1	2019_Mar_05_1507	s	s	1	4	SIC	110	4_4	4	4	1	4	23_1_4	3	0	1	0	0.462267875671	398.0	-41.0	400.0	-47.0	1
3.0.1	2019_Mar_05_1507	s	s	1	4	SIC	111	ABS	0	0	1	3	24_1_3	NA	NA	0	1	3.70400285721	None	None	None	None	1
3.0.1	2019_Mar_05_1507	s	s	1	4	SIC	112	ABS	0	0	1	2	24_1_2	NA	NA	0	1	5.93207502365	None	None	None	None	1
3.0.1	2019_Mar_05_1507	s	s	1	4	SIC	113	4_2	4	2	3	4	23_3_4	1	2	1	0	0.999025821686	64.0	-354.0	59.0	-353.0	1
3.0.1	2019_Mar_05_1507	s	s	1	4	SIC	114	3_1	3	1	2	1	23_2_1	1	0	1	0	0.549617052078	-173.0	-281.0	-175.0	-288.0	1
3.0.1	2019_Mar_05_1507	s	s	1	4	SIC	115	ABS	0	0	1	1	24_1_1	NA	NA	0	1	3.26885414124	None	None	None	None	1
3.0.1	2019_Mar_05_1507	s	s	1	4	SIC	116	ABS	0	0	4	2	24_4_2	NA	NA	0	1	3.2268447876	None	None	None	None	1
3.0.1	2019_Mar_05_1507	s	s	1	4	SIC	117	3_1	3	1	2	3	23_2_3	1	2	1	0	0.587370872498	-343.0	245.0	-354.0	245.0	1
3.0.1	2019_Mar_05_1507	s	s	1	4	SIC	118	3_4	3	4	2	3	23_2_3	1	1	1	0	0.710266828537	213.0	326.0	217.0	321.0	1
3.0.1	2019_Mar_05_1507	s	s	1	4	SIC	119	ABS	0	0	1	2	24_1_2	NA	NA	0	1	4.50157594681	None	None	None	None	1
3.0.1	2019_Mar_05_1507	s	s	1	4	SIC	120	4_1	4	1	1	1	23_1_1	3	0	1	0	0.481981992722	372.0	176.0	371.0	176.0	1
3.0.1	2019_Mar_05_1507	s	s	1	4	SIC	121	ABS	0	0	3	4	24_3_4	NA	NA	0	1	2.67197990417	None	None	None	None	1
3.0.1	2019_Mar_05_1507	s	s	1	4	SIC	122	ABS	0	0	1	4	24_1_4	NA	NA	0	1	1.28590798378	None	None	None	None	1
3.0.1	2019_Mar_05_1507	s	s	1	4	SIC	123	ABS	0	0	1	3	24_1_3	NA	NA	0	1	3.95131587982	None	None	None	None	1
3.0.1	2019_Mar_05_1507	s	s	1	4	SIC	124	ABS	0	0	3	4	24_3_4	NA	NA	0	1	0.745359897614	None	None	None	None	1
3.0.1	2019_Mar_05_1507	s	s	1	4	SIC	125	4_1	4	1	4	3	23_4_3	0	2	1	0	1.02547693253	-459.0	130.0	-460.0	132.0	1
3.0.1	2019_Mar_05_1507	s	s	1	4	SIC	126	3_1	3	1	2	2	23_2_2	1	1	1	0	0.528570175171	-503.0	61.0	-506.0	60.0	1
3.0.1	2019_Mar_05_1507	s	s	1	4	SIC	127	ABS	0	0	3	3	24_3_3	NA	NA	0	1	3.48756790161	None	None	None	None	1
3.0.1	2019_Mar_05_1507	s	s	1	4	SIC	128	3_4	3	4	2	1	23_2_1	1	3	1	0	0.528563022614	-369.0	118.0	-368.0	112.0	1
3.0.1	2019_Mar_05_1507	s	s	1	4	SIC	129	ABS	0	0	3	4	24_3_4	NA	NA	0	1	1.69286704063	None	None	None	None	1
3.0.1	2019_Mar_05_1507	s	s	1	4	SIC	130	ABS	0	0	3	1	24_3_1	NA	NA	0	1	1.82656002045	None	None	None	None	1
3.0.1	2019_Mar_05_1507	s	s	1	4	SIC	131	2_1	2	1	1	3	23_1_3	-1	2	1	0	1.02593016624	314.0	397.0	303.0	401.0	1
3.0.1	2019_Mar_05_1507	s	s	1	4	SIC	132	3_4	3	4	1	3	23_1_3	2	1	1	0	0.768971204758	35.0	394.0	33.0	395.0	1
3.0.1	2019_Mar_05_1507	s	s	1	4	SIC	133	ABS	0	0	3	2	24_3_2	NA	NA	0	1	2.30456805229	None	None	None	None	1
3.0.1	2019_Mar_05_1507	s	s	1	4	SIC	134	1_4	1	4	4	3	23_4_3	3	1	1	0	0.546970844269	276.0	399.0	278.0	389.0	1
3.0.1	2019_Mar_05_1507	s	s	1	4	SIC	135	ABS	0	0	4	3	24_4_3	NA	NA	0	1	3.96741390228	None	None	None	None	1
3.0.1	2019_Mar_05_1507	s	s	1	4	SIC	136	2_1	2	1	2	2	23_2_2	0	1	1	0	4.19143605232	500.0	16.0	501.0	17.0	1
3.0.1	2019_Mar_05_1507	s	s	1	4	SIC	137	4_3	4	3	1	1	23_1_1	3	2	1	0	0.568703889847	-364.0	167.0	-373.0	164.0	1
3.0.1	2019_Mar_05_1507	s	s	1	4	SIC	138	2_4	2	4	2	1	23_2_1	0	3	1	0	0.790240049362	58.0	-160.0	53.0	-160.0	1
3.0.1	2019_Mar_05_1507	s	s	1	4	SIC	139	ABS	0	0	1	4	24_1_4	NA	NA	0	1	2.01339697838	None	None	None	None	1
3.0.1	2019_Mar_05_1507	s	s	1	4	SIC	140	ABS	0	0	4	2	24_4_2	NA	NA	0	1	4.44186902046	None	None	None	None	1
3.0.1	2019_Mar_05_1507	s	s	1	4	SIC	141	3_4	3	4	3	1	23_3_1	0	3	1	0	0.555016040802	-194.0	12.0	-193.0	11.0	1
3.0.1	2019_Mar_05_1507	s	s	1	4	SIC	142	2_3	2	3	1	4	23_1_4	-1	-1	1	0	1.02549004555	267.0	34.0	264.0	31.0	1
3.0.1	2019_Mar_05_1507	s	s	1	4	SIC	143	1_2	1	2	2	2	23_2_2	1	0	0	1	6.53171491623	-508.0	-354.0	None	None	0
3.0.1	2019_Mar_05_1507	s	s	1	4	SIC	144	2_4	2	4	1	3	23_1_3	-1	1	1	0	1.98030114174	-473.0	-348.0	-463.0	-348.0	1
3.0.1	2019_Mar_05_1507	s	s	1	4	SIC	145	2_2	2	2	4	1	23_4_1	2	-1	1	0	0.756982088089	-58.0	-393.0	-59.0	-395.0	1
3.0.1	2019_Mar_05_1507	s	s	1	4	SIC	146	2_3	2	3	1	2	23_1_2	-1	1	1	0	2.09576511383	7.0	-25.0	14.0	-23.0	1
3.0.1	2019_Mar_05_1507	s	s	1	4	SIC	147	ABS	0	0	1	3	24_1_3	NA	NA	0	1	4.65728616714	None	None	None	None	1
3.0.1	2019_Mar_05_1507	s	s	1	4	SIC	148	2_3	2	3	4	1	23_4_1	2	2	1	0	0.47477889061	-530.0	-38.0	-527.0	-34.0	1
3.0.1	2019_Mar_05_1507	s	s	1	4	SIC	149	4_3	4	3	4	4	23_4_4	0	-1	1	0	0.657959938049	-441.0	-20.0	-427.0	-11.0	1
3.0.1	2019_Mar_05_1507	s	s	1	4	SIC	150	ABS	0	0	4	2	24_4_2	NA	NA	0	1	4.55873990059	None	None	None	None	1
3.0.1	2019_Mar_05_1507	s	s	1	4	SIC	151	ABS	0	0	4	4	24_4_4	NA	NA	0	1	1.71643209457	None	None	None	None	1
3.0.1	2019_Mar_05_1507	s	s	1	4	SIC	152	3_3	3	3	2	3	23_2_3	1	0	1	0	0.581418991089	-117.0	145.0	-110.0	145.0	1
3.0.1	2019_Mar_05_1507	s	s	1	4	SIC	153	ABS	0	0	4	2	24_4_2	NA	NA	0	1	2.25184702873	None	None	None	None	1
3.0.1	2019_Mar_05_1507	s	s	1	4	SIC	154	1_4	1	4	4	4	23_4_4	3	0	1	0	0.422796964645	-441.0	-360.0	-430.0	-359.0	1
3.0.1	2019_Mar_05_1507	s	s	1	4	SIC	155	ABS	0	0	3	1	24_3_1	NA	NA	0	1	2.40349793434	None	None	None	None	1
3.0.1	2019_Mar_05_1507	s	s	1	4	SIC	156	ABS	0	0	3	4	24_3_4	NA	NA	0	1	2.41039013863	None	None	None	None	1
3.0.1	2019_Mar_05_1507	s	s	1	4	SIC	157	ABS	0	0	3	2	24_3_2	NA	NA	0	1	3.12108492851	None	None	None	None	1
3.0.1	2019_Mar_05_1507	s	s	1	4	SIC	158	2_3	2	3	4	2	23_4_2	2	1	1	0	0.458024978638	214.0	-204.0	213.0	-202.0	1
3.0.1	2019_Mar_05_1507	s	s	1	4	SIC	159	ABS	0	0	1	4	24_1_4	NA	NA	0	1	2.72799801826	None	None	None	None	1
3.0.1	2019_Mar_05_1507	s	s	1	4	SIC	160	1_1	1	1	2	2	23_2_2	1	1	1	0	2.06933403015	467.0	-206.0	465.0	-206.0	1
3.0.1	2019_Mar_05_1507	s	s	1	4	SIC	161	3_2	3	2	2	1	23_2_1	1	-1	1	0	0.780422925949	-511.0	138.0	-508.0	139.0	1
3.0.1	2019_Mar_05_1507	s	s	1	4	SIC	162	ABS	0	0	3	3	24_3_3	NA	NA	0	1	2.82196998596	None	None	None	None	1
3.0.1	2019_Mar_05_1507	s	s	1	4	SIC	163	ABS	0	0	2	3	24_2_3	NA	NA	0	1	4.9507188797	None	None	None	None	1
3.0.1	2019_Mar_05_1507	s	s	1	4	SIC	164	3_1	3	1	3	3	23_3_3	0	2	1	0	1.65777993202	-22.0	-384.0	-25.0	-391.0	1
3.0.1	2019_Mar_05_1507	s	s	1	4	SIC	165	ABS	0	0	2	2	24_2_2	NA	NA	0	1	6.08374595642	None	None	None	None	1
3.0.1	2019_Mar_05_1507	s	s	1	4	SIC	166	2_4	2	4	3	1	23_3_1	1	3	1	0	0.48156619072	237.0	4.0	241.0	4.0	1
3.0.1	2019_Mar_05_1507	s	s	1	4	SIC	167	2_4	2	4	1	4	23_1_4	-1	0	1	0	1.82674622536	470.0	126.0	462.0	130.0	1
3.0.1	2019_Mar_05_1507	s	s	1	4	SIC	168	ABS	0	0	1	2	24_1_2	NA	NA	0	1	3.69232487679	None	None	None	None	1
3.0.1	2019_Mar_05_1507	s	s	1	4	SIC	169	3_1	3	1	4	1	23_4_1	-1	0	1	0	0.425694942474	-226.0	262.0	-226.0	264.0	1
3.0.1	2019_Mar_05_1507	s	s	1	4	SIC	170	1_3	1	3	4	1	23_4_1	3	2	1	0	0.437472105026	-514.0	-249.0	-516.0	-247.0	1
3.0.1	2019_Mar_05_1507	s	s	1	4	SIC	171	ABS	0	0	1	3	24_1_3	NA	NA	0	1	5.86809110641	None	None	None	None	1
3.0.1	2019_Mar_05_1507	s	s	1	4	SIC	172	ABS	0	0	4	4	24_4_4	NA	NA	0	1	1.28135299683	None	None	None	None	1
3.0.1	2019_Mar_05_1507	s	s	1	4	SIC	173	ABS	0	0	4	3	24_4_3	NA	NA	0	1	3.7746450901	None	None	None	None	1
3.0.1	2019_Mar_05_1507	s	s	1	4	SIC	174	2_1	2	1	1	4	23_1_4	-1	3	1	0	0.575582027435	70.0	26.0	61.0	22.0	1
3.0.1	2019_Mar_05_1507	s	s	1	4	SIC	175	ABS	0	0	1	2	24_1_2	NA	NA	0	1	6.28294610977	None	None	None	None	1
3.0.1	2019_Mar_05_1507	s	s	1	4	SIC	176	ABS	0	0	2	2	24_2_2	NA	NA	0	1	8.5732588768	None	None	None	None	1
3.0.1	2019_Mar_05_1507	s	s	1	4	SIC	177	ABS	0	0	3	2	24_3_2	NA	NA	0	1	2.93961501122	None	None	None	None	1
3.0.1	2019_Mar_05_1507	s	s	1	4	SIC	178	1_2	1	2	1	1	23_1_1	0	-1	0	1	6.81472396851	523.0	410.0	None	None	0
3.0.1	2019_Mar_05_1507	s	s	1	4	SIC	179	2_3	2	3	2	4	23_2_4	0	-1	1	0	1.20394015312	422.0	17.0	417.0	15.0	1
3.0.1	2019_Mar_05_1507	s	s	1	4	SIC	180	ABS	0	0	4	4	24_4_4	NA	NA	0	1	1.46292805672	None	None	None	None	1
3.0.1	2019_Mar_05_1507	s	s	1	4	SIC	181	ABS	0	0	1	4	24_1_4	NA	NA	0	1	2.03403997421	None	None	None	None	1
3.0.1	2019_Mar_05_1507	s	s	1	4	SIC	182	ABS	0	0	1	4	24_1_4	NA	NA	0	1	2.72022986412	None	None	None	None	1
3.0.1	2019_Mar_05_1507	s	s	1	4	SIC	183	ABS	0	0	4	3	24_4_3	NA	NA	0	1	5.25950312614	None	None	None	None	1
3.0.1	2019_Mar_05_1507	s	s	1	4	SIC	184	ABS	0	0	1	4	24_1_4	NA	NA	0	1	4.6265630722	None	None	None	None	1
3.0.1	2019_Mar_05_1507	s	s	1	4	SIC	185	1_1	1	1	3	2	23_3_2	2	1	1	0	0.744931936264	420.0	277.0	418.0	280.0	1
3.0.1	2019_Mar_05_1507	s	s	1	4	SIC	186	ABS	0	0	2	3	24_2_3	NA	NA	0	1	4.44492888451	None	None	None	None	1
3.0.1	2019_Mar_05_1507	s	s	1	4	SIC	187	1_2	1	2	4	1	23_4_1	3	-1	1	0	0.693310976028	384.0	-376.0	389.0	-378.0	1
3.0.1	2019_Mar_05_1507	s	s	1	4	SIC	188	1_2	1	2	3	3	23_3_3	2	1	1	0	0.767851114273	-36.0	52.0	-38.0	55.0	1
3.0.1	2019_Mar_05_1507	s	s	1	4	SIC	189	2_1	2	1	4	4	23_4_4	2	3	1	0	0.678505897522	-177.0	-395.0	-169.0	-393.0	1
3.0.1	2019_Mar_05_1507	s	s	1	4	SIC	190	ABS	0	0	2	2	24_2_2	NA	NA	0	1	7.40884399414	None	None	None	None	1
3.0.1	2019_Mar_05_1507	s	s	1	4	SIC	191	2_3	2	3	3	3	23_3_3	1	0	1	0	0.614243984222	170.0	-127.0	174.0	-123.0	1
3.0.1	2019_Mar_05_1507	s	s	1	4	SIC	192	1_3	1	3	3	4	23_3_4	2	-1	1	0	0.528655052185	441.0	296.0	447.0	298.0	1
3.0.1	2019_Mar_05_1507	s	s	1	4	SIC	193	1_2	1	2	2	1	23_2_1	1	-1	1	0	2.0840690136	265.0	-117.0	253.0	-113.0	1
3.0.1	2019_Mar_05_1507	s	s	1	4	SIC	194	2_1	2	1	2	3	23_2_3	0	2	1	0	4.57440090179	444.0	318.0	447.0	322.0	1
3.0.1	2019_Mar_05_1507	s	s	1	4	SIC	195	4_4	4	4	1	2	23_1_2	3	2	1	0	0.463175058365	-111.0	18.0	-114.0	28.0	1
3.0.1	2019_Mar_05_1507	s	s	1	4	SIC	196	1_3	1	3	2	4	23_2_4	1	-1	1	0	1.92023611069	21.0	371.0	16.0	369.0	1
3.0.1	2019_Mar_05_1507	s	s	1	4	SIC	197	ABS	0	0	1	2	24_1_2	NA	NA	0	1	5.41358017921	None	None	None	None	1
3.0.1	2019_Mar_05_1507	s	s	1	4	SIC	198	ABS	0	0	1	4	24_1_4	NA	NA	0	1	2.34452104568	None	None	None	None	1
3.0.1	2019_Mar_05_1507	s	s	1	4	SIC	199	ABS	0	0	1	2	24_1_2	NA	NA	0	1	5.32719802856	None	None	None	None	1
3.0.1	2019_Mar_05_1507	s	s	1	4	SIC	200	ABS	0	0	3	4	24_3_4	NA	NA	0	1	1.02548098564	None	None	None	None	1
3.0.1	2019_Mar_05_1507	s	s	1	4	SIC	201	ABS	0	0	2	1	24_2_1	NA	NA	0	1	2.46917009354	None	None	None	None	1
3.0.1	2019_Mar_05_1507	s	s	1	4	SIC	202	ABS	0	0	3	1	24_3_1	NA	NA	0	1	1.15188097954	None	None	None	None	1
3.0.1	2019_Mar_05_1507	s	s	1	4	SIC	203	ABS	0	0	2	2	24_2_2	NA	NA	0	1	6.4258620739	None	None	None	None	1
3.0.1	2019_Mar_05_1507	s	s	1	4	SIC	204	2_4	2	4	1	1	23_1_1	-1	3	1	0	1.02538585663	-414.0	-401.0	-414.0	-418.0	1
3.0.1	2019_Mar_05_1507	s	s	1	4	SIC	205	ABS	0	0	2	1	24_2_1	NA	NA	0	1	3.16301488876	None	None	None	None	1
3.0.1	2019_Mar_05_1507	s	s	1	4	SIC	206	4_3	4	3	3	1	23_3_1	1	2	1	0	0.521054983139	340.0	231.0	332.0	230.0	1
3.0.1	2019_Mar_05_1507	s	s	1	4	SIC	207	ABS	0	0	3	2	24_3_2	NA	NA	0	1	4.99781084061	None	None	None	None	1
3.0.1	2019_Mar_05_1507	s	s	1	4	SIC	208	4_2	4	2	3	1	23_3_1	1	-1	1	0	0.422788858414	-431.0	14.0	-419.0	17.0	1
3.0.1	2019_Mar_05_1507	s	s	1	4	SIC	209	4_3	4	3	4	2	23_4_2	0	1	1	0	1.89574813843	-144.0	-142.0	-140.0	-132.0	1
3.0.1	2019_Mar_05_1507	s	s	1	4	SIC	210	ABS	0	0	4	1	24_4_1	NA	NA	0	1	1.19011306763	None	None	None	None	1
3.0.1	2019_Mar_05_1507	s	s	1	4	SIC	211	1_3	1	3	4	2	23_4_2	3	1	1	0	0.411297082901	299.0	45.0	296.0	45.0	1
3.0.1	2019_Mar_05_1507	s	s	1	4	SIC	212	ABS	0	0	3	4	24_3_4	NA	NA	0	1	1.83416390419	None	None	None	None	1
3.0.1	2019_Mar_05_1507	s	s	1	4	SIC	213	ABS	0	0	1	2	24_1_2	NA	NA	0	1	4.8214302063	None	None	None	None	1
3.0.1	2019_Mar_05_1507	s	s	1	4	SIC	214	ABS	0	0	4	3	24_4_3	NA	NA	0	1	3.96795797348	None	None	None	None	1
3.0.1	2019_Mar_05_1507	s	s	1	4	SIC	215	4_4	4	4	1	1	23_1_1	3	3	1	0	0.446260929108	195.0	4.0	198.0	-1.0	1
3.0.1	2019_Mar_05_1507	s	s	1	4	SIC	216	ABS	0	0	2	3	24_2_3	NA	NA	0	1	4.06878805161	None	None	None	None	1
3.0.1	2019_Mar_05_1507	s	s	1	4	SIC	217	ABS	0	0	1	4	24_1_4	NA	NA	1	0	1.77534890175	None	None	-508.0	59.0	0
3.0.1	2019_Mar_05_1507	s	s	1	4	SIC	218	1_3	1	3	3	2	23_3_2	2	1	1	0	0.613881826401	13.0	-409.0	17.0	-404.0	1
3.0.1	2019_Mar_05_1507	s	s	1	4	SIC	219	ABS	0	0	2	3	24_2_3	NA	NA	0	1	5.56819415092	None	None	None	None	1
3.0.1	2019_Mar_05_1507	s	s	1	4	SIC	220	ABS	0	0	1	1	24_1_1	NA	NA	1	0	0.781996965408	None	None	457.0	-269.0	0
3.0.1	2019_Mar_05_1507	s	s	1	4	SIC	221	4_3	4	3	4	1	23_4_1	0	2	1	0	1.16859793663	248.0	271.0	246.0	268.0	1
3.0.1	2019_Mar_05_1507	s	s	1	4	SIC	222	1_1	1	1	1	4	23_1_4	0	3	1	0	1.31668496132	-83.0	-328.0	-81.0	-336.0	1
3.0.1	2019_Mar_05_1507	s	s	1	4	SIC	223	ABS	0	0	3	1	24_3_1	NA	NA	0	1	1.39891910553	None	None	None	None	1
3.0.1	2019_Mar_05_1507	s	s	1	4	SIC	224	1_2	1	2	1	3	23_1_3	0	1	1	0	2.24569582939	-393.0	-345.0	-393.0	-338.0	1
3.0.1	2019_Mar_05_1507	s	s	1	4	SIC	225	ABS	0	0	1	1	24_1_1	NA	NA	0	1	2.46914887428	None	None	None	None	1
3.0.1	2019_Mar_05_1507	s	s	1	4	SIC	226	4_2	4	2	2	3	23_2_3	2	1	1	0	0.528633832932	-428.0	-95.0	-427.0	-94.0	1
3.0.1	2019_Mar_05_1507	s	s	1	4	SIC	227	ABS	0	0	2	4	24_2_4	NA	NA	0	1	2.79286503792	None	None	None	None	1
3.0.1	2019_Mar_05_1507	s	s	1	4	SIC	228	4_1	4	1	4	4	23_4_4	0	3	1	0	0.493782043457	-276.0	-324.0	-272.0	-324.0	1
3.0.1	2019_Mar_05_1507	s	s	1	4	SIC	229	ABS	0	0	4	2	24_4_2	NA	NA	0	1	5.76225209236	None	None	None	None	1
3.0.1	2019_Mar_05_1507	s	s	1	4	SIC	230	2_4	2	4	4	3	23_4_3	2	1	1	0	0.540471076965	297.0	-334.0	297.0	-337.0	1
3.0.1	2019_Mar_05_1507	s	s	1	4	SIC	231	1_1	1	1	4	3	23_4_3	3	2	1	0	0.50989484787	-50.0	245.0	-47.0	238.0	1
3.0.1	2019_Mar_05_1507	s	s	1	4	SIC	232	ABS	0	0	2	1	24_2_1	NA	NA	0	1	2.2810921669	None	None	None	None	1
3.0.1	2019_Mar_05_1507	s	s	1	4	SIC	233	4_2	4	2	2	2	23_2_2	2	0	1	0	0.496207952499	-266.0	-65.0	-261.0	-62.0	1
3.0.1	2019_Mar_05_1507	s	s	1	4	SIC	234	3_2	3	2	2	4	23_2_4	1	2	1	0	0.881423950195	57.0	-152.0	50.0	-158.0	1
3.0.1	2019_Mar_05_1507	s	s	1	4	SIC	235	ABS	0	0	4	4	24_4_4	NA	NA	0	1	1.71936583519	None	None	None	None	1
3.0.1	2019_Mar_05_1507	s	s	1	4	SIC	236	ABS	0	0	4	3	24_4_3	NA	NA	0	1	6.19063997269	None	None	None	None	1
3.0.1	2019_Mar_05_1507	s	s	1	4	SIC	237	3_4	3	4	4	4	23_4_4	-1	0	1	0	1.02555012703	-119.0	-126.0	-116.0	-120.0	1
3.0.1	2019_Mar_05_1507	s	s	1	4	SIC	238	1_4	1	4	3	4	23_3_4	2	0	1	0	0.840704917908	105.0	-384.0	112.0	-380.0	1
3.0.1	2019_Mar_05_1507	s	s	1	4	SIC	239	ABS	0	0	3	3	24_3_3	NA	NA	0	1	5.01605701447	None	None	None	None	1
3.0.1	2019_Mar_05_1507	s	s	1	4	SIC	240	2_4	2	4	3	3	23_3_3	1	1	1	0	0.587329149246	-253.0	128.0	-257.0	123.0	1
3.0.1	2019_Mar_05_1507	s	s	1	4	SIC	241	2_1	2	1	3	2	23_3_2	1	1	1	0	1.81092596054	459.0	176.0	454.0	174.0	1
3.0.1	2019_Mar_05_1507	s	s	1	4	SIC	242	ABS	0	0	1	1	24_1_1	NA	NA	1	0	5.26514005661	None	None	-527.0	326.0	0
3.0.1	2019_Mar_05_1507	s	s	1	4	SIC	243	3_2	3	2	1	3	23_1_3	2	1	1	0	1.51656723022	194.0	-412.0	199.0	-416.0	1
3.0.1	2019_Mar_05_1507	s	s	1	4	SIC	244	4_3	4	3	1	3	23_1_3	3	0	1	0	0.460816860199	-371.0	-273.0	-366.0	-270.0	1
3.0.1	2019_Mar_05_1507	s	s	1	4	SIC	245	ABS	0	0	2	1	24_2_1	NA	NA	0	1	3.0337061882	None	None	None	None	1
3.0.1	2019_Mar_05_1507	s	s	1	4	SIC	246	4_4	4	4	3	2	23_3_2	1	2	1	0	0.568778991699	392.0	-48.0	395.0	-54.0	1
3.0.1	2019_Mar_05_1507	s	s	1	4	SIC	247	ABS	0	0	4	1	24_4_1	NA	NA	0	1	2.22627806664	None	None	None	None	1
3.0.1	2019_Mar_05_1507	s	s	1	4	SIC	248	ABS	0	0	2	3	24_2_3	NA	NA	0	1	4.12752795219	None	None	None	None	1
3.0.1	2019_Mar_05_1507	s	s	1	4	SIC	249	ABS	0	0	2	2	24_2_2	NA	NA	0	1	5.32401299477	None	None	None	None	1
3.0.1	2019_Mar_05_1507	s	s	1	4	SIC	250	4_4	4	4	2	2	23_2_2	2	2	1	0	0.434479951859	-90.0	357.0	-83.0	350.0	1
3.0.1	2019_Mar_05_1507	s	s	1	4	SIC	251	ABS	0	0	1	2	24_1_2	NA	NA	0	1	7.71470212936	None	None	None	None	1
3.0.1	2019_Mar_05_1507	s	s	1	4	SIC	252	1_2	1	2	3	2	23_3_2	2	0	1	0	0.587383985519	492.0	-164.0	492.0	-167.0	1
3.0.1	2019_Mar_05_1507	s	s	1	4	SIC	253	1_1	1	1	2	1	23_2_1	1	0	1	0	5.02524185181	-233.0	101.0	-224.0	104.0	1
3.0.1	2019_Mar_05_1507	s	s	1	4	SIC	254	1_1	1	1	3	3	23_3_3	2	2	1	0	0.57039809227	285.0	-369.0	281.0	-375.0	1
3.0.1	2019_Mar_05_1507	s	s	1	4	SIC	255	ABS	0	0	1	4	24_1_4	NA	NA	0	1	3.8335340023	None	None	None	None	1
3.0.1	2019_Mar_05_1507	s	s	1	4	SIC	256	ABS	0	0	2	3	24_2_3	NA	NA	0	1	5.40941405296	None	None	None	None	1
3.0.1	2019_Mar_05_1507	s	s	1	4	SIC	257	ABS	0	0	2	2	24_2_2	NA	NA	0	1	4.45073795319	None	None	None	None	1
3.0.1	2019_Mar_05_1507	s	s	1	4	SIC	258	1_1	1	1	4	2	23_4_2	3	1	1	0	0.442240953445	-383.0	172.0	-379.0	165.0	1
3.0.1	2019_Mar_05_1507	s	s	1	4	SIC	259	1_2	1	2	3	4	23_3_4	2	2	1	0	0.469757080078	69.0	287.0	72.0	282.0	1
3.0.1	2019_Mar_05_1507	s	s	1	4	SIC	260	ABS	0	0	2	1	24_2_1	NA	NA	0	1	3.37758278847	None	None	None	None	1
3.0.1	2019_Mar_05_1507	s	s	1	4	SIC	261	3_1	3	1	4	4	23_4_4	-1	3	1	0	0.457942962646	222.0	-279.0	229.0	-273.0	1
3.0.1	2019_Mar_05_1507	s	s	1	4	SIC	262	1_2	1	2	4	4	23_4_4	3	2	1	0	0.65190911293	260.0	216.0	258.0	218.0	1
3.0.1	2019_Mar_05_1507	s	s	1	4	SIC	263	ABS	0	0	3	3	24_3_3	NA	NA	0	1	3.17491078377	None	None	None	None	1
3.0.1	2019_Mar_05_1507	s	s	1	4	SIC	264	4_3	4	3	2	3	23_2_3	2	0	1	0	0.422888040543	-217.0	-100.0	-212.0	-104.0	1
3.0.1	2019_Mar_05_1507	s	s	1	4	SIC	265	1_3	1	3	2	1	23_2_1	1	2	1	0	0.987282037735	-251.0	-349.0	-256.0	-349.0	1
3.0.1	2019_Mar_05_1507	s	s	1	4	SIC	266	ABS	0	0	1	3	24_1_3	NA	NA	0	1	9.63467097282	None	None	None	None	1
3.0.1	2019_Mar_05_1507	s	s	1	4	SIC	267	2_2	2	2	3	1	23_3_1	1	-1	1	0	0.619917869568	18.0	-311.0	17.0	-310.0	1
3.0.1	2019_Mar_05_1507	s	s	1	4	SIC	268	2_3	2	3	3	2	23_3_2	1	1	1	0	0.740323066711	403.0	375.0	403.0	372.0	1
3.0.1	2019_Mar_05_1507	s	s	1	4	SIC	269	4_4	4	4	4	3	23_4_3	0	1	1	0	1.03434610367	369.0	359.0	363.0	356.0	1
3.0.1	2019_Mar_05_1507	s	s	1	4	SIC	270	ABS	0	0	1	3	24_1_3	NA	NA	0	1	4.49224615097	None	None	None	None	1
3.0.1	2019_Mar_05_1507	s	s	1	4	SIC	271	ABS	0	0	1	2	24_1_2	NA	NA	0	1	5.68870306015	None	None	None	None	1
3.0.1	2019_Mar_05_1507	s	s	1	4	SIC	272	ABS	0	0	1	1	24_1_1	NA	NA	0	1	3.52763605118	None	None	None	None	1
3.0.1	2019_Mar_05_1507	s	s	1	4	SIC	273	4_3	4	3	1	2	23_1_2	3	1	1	0	0.474721908569	-29.0	-341.0	-35.0	-340.0	1
3.0.1	2019_Mar_05_1507	s	s	1	4	SIC	274	2_3	2	3	1	3	23_1_3	-1	0	0	1	5.10374999046	459.0	296.0	None	None	0
3.0.1	2019_Mar_05_1507	s	s	1	4	SIC	275	ABS	0	0	2	4	24_2_4	NA	NA	0	1	2.70927095413	None	None	None	None	1
3.0.1	2019_Mar_05_1507	s	s	1	4	SIC	276	ABS	0	0	2	4	24_2_4	NA	NA	0	1	2.1163520813	None	None	None	None	1
3.0.1	2019_Mar_05_1507	s	s	1	4	SIC	277	3_1	3	1	4	3	23_4_3	-1	2	1	0	0.48902797699	-255.0	340.0	-253.0	337.0	1
3.0.1	2019_Mar_05_1507	s	s	1	4	SIC	278	ABS	0	0	3	3	24_3_3	NA	NA	0	1	2.26661205292	None	None	None	None	1
3.0.1	2019_Mar_05_1507	s	s	1	4	SIC	279	4_3	4	3	3	2	23_3_2	1	1	1	0	0.810805797577	438.0	-307.0	433.0	-311.0	1
3.0.1	2019_Mar_05_1507	s	s	1	4	SIC	280	ABS	0	0	3	3	24_3_3	NA	NA	0	1	2.30453109741	None	None	None	None	1
3.0.1	2019_Mar_05_1507	s	s	1	4	SIC	281	ABS	0	0	2	2	24_2_2	NA	NA	0	1	6.54341197014	None	None	None	None	1
3.0.1	2019_Mar_05_1507	s	s	1	4	SIC	282	4_1	4	1	1	3	23_1_3	3	2	1	0	0.434502840042	-167.0	-366.0	-159.0	-367.0	1
3.0.1	2019_Mar_05_1507	s	s	1	4	SIC	283	ABS	0	0	1	1	24_1_1	NA	NA	0	1	2.37136912346	None	None	None	None	1
3.0.1	2019_Mar_05_1507	s	s	1	4	SIC	284	ABS	0	0	3	3	24_3_3	NA	NA	0	1	3.28070688248	None	None	None	None	1
3.0.1	2019_Mar_05_1507	s	s	1	4	SIC	285	ABS	0	0	4	2	24_4_2	NA	NA	0	1	1.44595789909	None	None	None	None	1
3.0.1	2019_Mar_05_1507	s	s	1	4	SIC	286	3_4	3	4	1	1	23_1_1	2	3	1	0	0.516814947128	359.0	-246.0	368.0	-244.0	1
3.0.1	2019_Mar_05_1507	s	s	1	4	SIC	287	3_1	3	1	1	3	23_1_3	2	2	1	0	0.484411001205	279.0	44.0	273.0	46.0	1
3.0.1	2019_Mar_05_1507	s	s	1	4	SIC	288	4_3	4	3	3	3	23_3_3	1	0	1	0	0.437517166138	380.0	-232.0	388.0	-231.0	1
3.0.1	2019_Mar_05_1507	s	s	1	4	SIC	289	ABS	0	0	3	4	24_3_4	NA	NA	0	1	2.69262003899	None	None	None	None	1
3.0.1	2019_Mar_05_1507	s	s	1	4	SIC	290	1_1	1	1	3	1	23_3_1	2	0	1	0	0.42816901207	-212.0	115.0	-219.0	117.0	1
3.0.1	2019_Mar_05_1507	s	s	1	4	SIC	291	ABS	0	0	3	2	24_3_2	NA	NA	0	1	3.46891188622	None	None	None	None	1
3.0.1	2019_Mar_05_1507	s	s	1	4	SIC	292	ABS	0	0	3	1	24_3_1	NA	NA	0	1	2.29703092575	None	None	None	None	1
3.0.1	2019_Mar_05_1507	s	s	1	4	SIC	293	ABS	0	0	2	3	24_2_3	NA	NA	0	1	3.94394111633	None	None	None	None	1
3.0.1	2019_Mar_05_1507	s	s	1	4	SIC	294	2_1	2	1	2	4	23_2_4	0	3	1	0	0.999042034149	517.0	234.0	519.0	234.0	1
3.0.1	2019_Mar_05_1507	s	s	1	4	SIC	295	ABS	0	0	1	3	24_1_3	NA	NA	0	1	5.08557319641	None	None	None	None	1
3.0.1	2019_Mar_05_1507	s	s	1	4	SIC	296	3_2	3	2	4	4	23_4_4	-1	2	1	0	0.505046844482	213.0	-117.0	209.0	-110.0	1
3.0.1	2019_Mar_05_1507	s	s	1	4	SIC	297	ABS	0	0	2	4	24_2_4	NA	NA	0	1	6.67084002495	None	None	None	None	1
3.0.1	2019_Mar_05_1507	s	s	1	4	SIC	298	ABS	0	0	4	1	24_4_1	NA	NA	0	1	1.49616289139	None	None	None	None	1
3.0.1	2019_Mar_05_1507	s	s	1	4	SIC	299	3_2	3	2	3	1	23_3_1	0	-1	0	1	2.04922604561	-512.0	-122.0	None	None	0
3.0.1	2019_Mar_05_1507	s	s	1	4	SIC	300	1_3	1	3	3	3	23_3_3	2	0	1	0	0.522016048431	-458.0	-401.0	-453.0	-407.0	1
3.0.1	2019_Mar_05_1507	s	s	1	4	SIC	301	ABS	0	0	3	3	24_3_3	NA	NA	0	1	3.25726699829	None	None	None	None	1
3.0.1	2019_Mar_05_1507	s	s	1	4	SIC	302	3_2	3	2	1	2	23_1_2	2	0	1	0	0.540400028229	414.0	229.0	422.0	230.0	1
3.0.1	2019_Mar_05_1507	s	s	1	4	SIC	303	4_3	4	3	2	2	23_2_2	2	1	1	0	0.469820022583	370.0	-182.0	366.0	-188.0	1
3.0.1	2019_Mar_05_1507	s	s	1	4	SIC	304	4_2	4	2	4	4	23_4_4	0	2	1	0	0.56060218811	412.0	145.0	406.0	141.0	1
3.0.1	2019_Mar_05_1507	s	s	1	4	SIC	305	ABS	0	0	1	2	24_1_2	NA	NA	0	1	4.9302110672	None	None	None	None	1
3.0.1	2019_Mar_05_1507	s	s	1	4	SIC	306	ABS	0	0	4	1	24_4_1	NA	NA	0	1	1.55986094475	None	None	None	None	1
3.0.1	2019_Mar_05_1507	s	s	1	4	SIC	307	ABS	0	0	3	3	24_3_3	NA	NA	0	1	2.43906402588	None	None	None	None	1
3.0.1	2019_Mar_05_1507	s	s	1	4	SIC	308	1_3	1	3	1	4	23_1_4	0	-1	1	0	1.38717985153	177.0	23.0	179.0	19.0	1
3.0.1	2019_Mar_05_1507	s	s	1	4	SIC	309	1_4	1	4	1	2	23_1_2	0	2	1	0	1.00315308571	-140.0	178.0	-137.0	177.0	1
3.0.1	2019_Mar_05_1507	s	s	1	4	SIC	310	4_1	4	1	1	4	23_1_4	3	3	1	0	0.410983085632	-483.0	-375.0	-478.0	-371.0	1
3.0.1	2019_Mar_05_1507	s	s	1	4	SIC	311	ABS	0	0	1	1	24_1_1	NA	NA	0	1	3.00492691994	None	None	None	None	1
3.0.1	2019_Mar_05_1507	s	s	1	4	SIC	312	2_3	2	3	3	4	23_3_4	1	-1	1	0	0.558016061783	-106.0	243.0	-110.0	235.0	1
3.0.1	2019_Mar_05_1507	s	s	1	4	SIC	313	3_2	3	2	4	2	23_4_2	-1	0	1	0	0.3991959095	266.0	213.0	274.0	218.0	1
3.0.1	2019_Mar_05_1507	s	s	1	4	SIC	314	3_4	3	4	3	2	23_3_2	0	2	1	0	0.745929956436	36.0	14.0	44.0	10.0	1
3.0.1	2019_Mar_05_1507	s	s	1	4	SIC	315	ABS	0	0	1	1	24_1_1	NA	NA	0	1	3.23895192146	None	None	None	None	1
3.0.1	2019_Mar_05_1507	s	s	1	4	SIC	316	ABS	0	0	4	2	24_4_2	NA	NA	0	1	4.33925318718	None	None	None	None	1
3.0.1	2019_Mar_05_1507	s	s	1	4	SIC	317	ABS	0	0	3	2	24_3_2	NA	NA	0	1	2.28095412254	None	None	None	None	1
3.0.1	2019_Mar_05_1507	s	s	1	4	SIC	318	ABS	0	0	3	1	24_3_1	NA	NA	0	1	2.56902098656	None	None	None	None	1
3.0.1	2019_Mar_05_1507	s	s	1	4	SIC	319	1_3	1	3	3	1	23_3_1	2	2	1	0	0.561679124832	-332.0	-156.0	-333.0	-153.0	1
3.0.1	2019_Mar_05_1507	s	s	1	4	SIC	320	4_3	4	3	2	1	23_2_1	2	2	1	0	0.658009052277	135.0	-370.0	133.0	-381.0	1
3.0.1	2019_Mar_05_1507	s	s	1	4	SIC	321	ABS	0	0	1	2	24_1_2	NA	NA	0	1	5.35567092896	None	None	None	None	1
3.0.1	2019_Mar_05_1507	s	s	1	4	SIC	322	2_2	2	2	3	2	23_3_2	1	0	1	0	0.599191904068	425.0	196.0	416.0	203.0	1
3.0.1	2019_Mar_05_1507	s	s	1	4	SIC	323	3_2	3	2	4	3	23_4_3	-1	1	1	0	0.439202070236	181.0	-296.0	177.0	-295.0	1
3.0.1	2019_Mar_05_1507	s	s	1	4	SIC	324	2_3	2	3	1	1	23_1_1	-1	2	1	0	1.90462899208	-428.0	-334.0	-431.0	-331.0	1
3.0.1	2019_Mar_05_1507	s	s	1	4	SIC	325	ABS	0	0	2	4	24_2_4	NA	NA	0	1	1.99873685837	None	None	None	None	1
3.0.1	2019_Mar_05_1507	s	s	1	4	SIC	326	1_4	1	4	4	2	23_4_2	3	2	1	0	0.41095995903	101.0	-41.0	103.0	-38.0	1
3.0.1	2019_Mar_05_1507	s	s	1	4	SIC	327	3_1	3	1	1	1	23_1_1	2	0	1	0	0.496161937714	-474.0	-345.0	-465.0	-339.0	1
3.0.1	2019_Mar_05_1507	s	s	1	4	SIC	328	ABS	0	0	2	4	24_2_4	NA	NA	0	1	2.0105111599	None	None	None	None	1
3.0.1	2019_Mar_05_1507	s	s	1	4	SIC	329	ABS	0	0	4	1	24_4_1	NA	NA	0	1	1.58711194992	None	None	None	None	1
3.0.1	2019_Mar_05_1507	s	s	1	4	SIC	330	4_1	4	1	2	2	23_2_2	2	1	1	0	0.873857021332	-112.0	120.0	-103.0	124.0	1
3.0.1	2019_Mar_05_1507	s	s	1	4	SIC	331	ABS	0	0	3	1	24_3_1	NA	NA	0	1	1.57533407211	None	None	None	None	1
3.0.1	2019_Mar_05_1507	s	s	1	4	SIC	332	2_2	2	2	4	2	23_4_2	2	0	1	0	0.437335014343	508.0	-83.0	511.0	-87.0	1
3.0.1	2019_Mar_05_1507	s	s	1	4	SIC	333	1_4	1	4	4	1	23_4_1	3	3	1	0	0.399206876755	111.0	135.0	112.0	125.0	1
3.0.1	2019_Mar_05_1507	s	s	1	4	SIC	334	ABS	0	0	3	2	24_3_2	NA	NA	0	1	5.15366697311	None	None	None	None	1
3.0.1	2019_Mar_05_1507	s	s	1	4	SIC	335	ABS	0	0	4	2	24_4_2	NA	NA	0	1	5.60942077637	None	None	None	None	1
3.0.1	2019_Mar_05_1507	s	s	1	4	SIC	336	ABS	0	0	4	3	24_4_3	NA	NA	0	1	5.5683529377	None	None	None	None	1
3.0.1	2019_Mar_05_1507	s	s	1	4	SIC	337	ABS	0	0	1	1	24_1_1	NA	NA	0	1	2.90947079659	None	None	None	None	1
3.0.1	2019_Mar_05_1507	s	s	1	4	SIC	338	4_4	4	4	1	3	23_1_3	3	1	1	0	0.46977686882	-26.0	182.0	-23.0	177.0	1
3.0.1	2019_Mar_05_1507	s	s	1	4	SIC	339	3_4	3	4	4	2	23_4_2	-1	2	1	0	0.437427997589	33.0	405.0	29.0	406.0	1
3.0.1	2019_Mar_05_1507	s	s	1	4	SIC	340	ABS	0	0	3	3	24_3_3	NA	NA	0	1	1.77534604073	None	None	None	None	1
3.0.1	2019_Mar_05_1507	s	s	1	4	SIC	341	ABS	0	0	2	1	24_2_1	NA	NA	0	1	2.49563503265	None	None	None	None	1
3.0.1	2019_Mar_05_1507	s	s	1	4	SIC	342	ABS	0	0	4	4	24_4_4	NA	NA	0	1	1.08427596092	None	None	None	None	1
3.0.1	2019_Mar_05_1507	s	s	1	4	SIC	343	3_2	3	2	3	3	23_3_3	0	1	0	1	3.09256386757	-295.0	-60.0	None	None	0
3.0.1	2019_Mar_05_1507	s	s	1	4	SIC	344	4_1	4	1	3	2	23_3_2	1	1	1	0	0.449609994888	442.0	213.0	440.0	206.0	1
3.0.1	2019_Mar_05_1507	s	s	1	4	SIC	345	3_1	3	1	1	4	23_1_4	2	3	1	0	0.44159579277	-134.0	22.0	-131.0	22.0	1
3.0.1	2019_Mar_05_1507	s	s	1	4	SIC	346	3_1	3	1	4	2	23_4_2	-1	1	1	0	0.427439928055	-354.0	-59.0	-353.0	-58.0	1
3.0.1	2019_Mar_05_1507	s	s	1	4	SIC	347	2_3	2	3	2	2	23_2_2	0	1	1	0	4.938986063	492.0	-219.0	491.0	-218.0	1
3.0.1	2019_Mar_05_1507	s	s	1	4	SIC	348	ABS	0	0	2	4	24_2_4	NA	NA	0	1	1.61946797371	None	None	None	None	1
3.0.1	2019_Mar_05_1507	s	s	1	4	SIC	349	4_2	4	2	2	4	23_2_4	2	2	1	0	0.457994937897	-379.0	52.0	-382.0	49.0	1
3.0.1	2019_Mar_05_1507	s	s	1	4	SIC	350	1_3	1	3	4	3	23_4_3	3	0	1	0	0.414855003357	-256.0	388.0	-256.0	391.0	1
3.0.1	2019_Mar_05_1507	s	s	1	4	SIC	351	ABS	0	0	4	3	24_4_3	NA	NA	0	1	5.17422580719	None	None	None	None	1
3.0.1	2019_Mar_05_1507	s	s	1	4	SIC	352	2_1	2	1	4	1	23_4_1	2	0	1	0	0.442760944366	-452.0	358.0	-448.0	356.0	1
3.0.1	2019_Mar_05_1507	s	s	1	4	SIC	353	1_4	1	4	1	1	23_1_1	0	3	1	0	1.31948399544	-424.0	-276.0	-425.0	-278.0	1
3.0.1	2019_Mar_05_1507	s	s	1	4	SIC	354	ABS	0	0	2	3	24_2_3	NA	NA	0	1	3.95762681961	None	None	None	None	1
3.0.1	2019_Mar_05_1507	s	s	1	4	SIC	355	4_1	4	1	2	1	23_2_1	2	0	1	0	0.545886993408	-233.0	16.0	-229.0	17.0	1
3.0.1	2019_Mar_05_1507	s	s	1	4	SIC	356	ABS	0	0	4	1	24_4_1	NA	NA	0	1	1.62651705742	None	None	None	None	1
3.0.1	2019_Mar_05_1507	s	s	1	4	SIC	357	3_3	3	3	2	2	23_2_2	1	1	1	0	1.29817509651	498.0	375.0	491.0	377.0	1
3.0.1	2019_Mar_05_1507	s	s	1	4	SIC	358	3_4	3	4	2	4	23_2_4	1	0	1	0	0.737190008163	501.0	126.0	501.0	128.0	1
3.0.1	2019_Mar_05_1507	s	s	1	4	SIC	359	ABS	0	0	1	1	24_1_1	NA	NA	0	1	2.54617714882	None	None	None	None	1
3.0.1	2019_Mar_05_1507	s	s	1	4	SIC	360	4_2	4	2	3	3	23_3_3	1	1	1	0	0.441780090332	228.0	300.0	228.0	301.0	1
3.0.1	2019_Mar_05_1507	s	s	1	4	SIC	361	4_4	4	4	3	3	23_3_3	1	1	1	0	0.462282896042	314.0	-247.0	314.0	-253.0	1
3.0.1	2019_Mar_05_1507	s	s	1	4	SIC	362	ABS	0	0	4	3	24_4_3	NA	NA	0	1	2.77502703667	None	None	None	None	1
3.0.1	2019_Mar_05_1507	s	s	1	4	SIC	363	3_2	3	2	1	1	23_1_1	2	-1	1	0	0.516756057739	-393.0	99.0	-393.0	103.0	1
3.0.1	2019_Mar_05_1507	s	s	1	4	SIC	364	ABS	0	0	1	3	24_1_3	NA	NA	0	1	4.84778809547	None	None	None	None	1
3.0.1	2019_Mar_05_1507	s	s	1	4	SIC	365	4_4	4	4	3	4	23_3_4	1	0	1	0	0.469813108444	-32.0	-108.0	-26.0	-111.0	1
3.0.1	2019_Mar_05_1507	s	s	1	4	SIC	366	4_2	4	2	1	1	23_1_1	3	-1	1	0	0.575600862503	-175.0	329.0	-171.0	327.0	1
3.0.1	2019_Mar_05_1507	s	s	1	4	SIC	367	ABS	0	0	3	4	24_3_4	NA	NA	0	1	1.0305929184	None	None	None	None	1
3.0.1	2019_Mar_05_1507	s	s	1	4	SIC	368	1_4	1	4	2	1	23_2_1	1	3	1	0	0.732402086258	-41.0	2.0	-43.0	-4.0	1
3.0.1	2019_Mar_05_1507	s	s	1	4	SIC	369	2_3	2	3	4	4	23_4_4	2	-1	1	0	0.422791004181	24.0	-129.0	24.0	-119.0	1
3.0.1	2019_Mar_05_1507	s	s	1	4	SIC	370	ABS	0	0	2	1	24_2_1	NA	NA	0	1	2.66911005974	None	None	None	None	1
3.0.1	2019_Mar_05_1507	s	s	1	4	SIC	371	ABS	0	0	4	2	24_4_2	NA	NA	0	1	5.4564871788	None	None	None	None	1
3.0.1	2019_Mar_05_1507	s	s	1	4	SIC	372	ABS	0	0	1	4	24_1_4	NA	NA	0	1	2.52799105644	None	None	None	None	1
3.0.1	2019_Mar_05_1507	s	s	1	4	SIC	373	2_4	2	4	2	3	23_2_3	0	1	1	0	0.870031118393	319.0	-151.0	327.0	-152.0	1
3.0.1	2019_Mar_05_1507	s	s	1	4	SIC	374	ABS	0	0	3	1	24_3_1	NA	NA	0	1	1.57818198204	None	None	None	None	1
3.0.1	2019_Mar_05_1507	s	s	1	4	SIC	375	3_1	3	1	3	2	23_3_2	0	1	1	0	1.73112392426	113.0	108.0	117.0	112.0	1
3.0.1	2019_Mar_05_1507	s	s	1	4	SIC	376	3_4	3	4	1	2	23_1_2	2	2	1	0	0.563863992691	203.0	346.0	202.0	344.0	1
3.0.1	2019_Mar_05_1507	s	s	1	4	SIC	377	ABS	0	0	4	1	24_4_1	NA	NA	0	1	2.86267709732	None	None	None	None	1
3.0.1	2019_Mar_05_1507	s	s	1	4	SIC	378	ABS	0	0	4	2	24_4_2	NA	NA	0	1	4.91570711136	None	None	None	None	1
3.0.1	2019_Mar_05_1507	s	s	1	4	SIC	379	2_4	2	4	3	2	23_3_2	1	2	1	0	0.43452000618	92.0	340.0	89.0	341.0	1
3.0.1	2019_Mar_05_1507	s	s	1	4	SIC	380	1_4	1	4	2	4	23_2_4	1	0	0	1	2.90725398064	-89.0	-318.0	None	None	0
3.0.1	2019_Mar_05_1507	s	s	1	4	SIC	381	3_3	3	3	2	4	23_2_4	1	-1	1	0	0.521265983582	154.0	340.0	151.0	344.0	1
3.0.1	2019_Mar_05_1507	s	s	1	4	SIC	382	ABS	0	0	3	2	24_3_2	NA	NA	0	1	3.97242689133	None	None	None	None	1
3.0.1	2019_Mar_05_1507	s	s	1	4	SIC	383	2_2	2	2	3	3	23_3_3	1	1	1	0	0.775691986084	253.0	250.0	247.0	249.0	1
3.0.1	2019_Mar_05_1507	s	s	1	4	SIC	384	3_3	3	3	1	4	23_1_4	2	-1	1	0	0.757079124451	34.0	-153.0	33.0	-152.0	1
3.0.1	2019_Mar_05_1507	s	s	1	4	SIC	385	4_1	4	1	3	4	23_3_4	1	3	1	0	0.43993806839	-36.0	261.0	-30.0	266.0	1
3.0.1	2019_Mar_05_1507	s	s	1	4	SIC	386	3_3	3	3	1	3	23_1_3	2	0	1	0	0.709995985031	136.0	357.0	137.0	361.0	1
3.0.1	2019_Mar_05_1507	s	s	1	4	SIC	387	1_2	1	2	2	3	23_2_3	1	1	1	0	2.1427590847	499.0	282.0	502.0	283.0	1
3.0.1	2019_Mar_05_1507	s	s	1	4	SIC	388	2_2	2	2	2	4	23_2_4	0	2	1	0	0.811243057251	-362.0	385.0	-359.0	387.0	1
3.0.1	2019_Mar_05_1507	s	s	1	4	SIC	389	4_1	4	1	2	3	23_2_3	2	2	1	0	0.422731876373	-530.0	74.0	-534.0	74.0	1
3.0.1	2019_Mar_05_1507	s	s	1	4	SIC	390	ABS	0	0	3	2	24_3_2	NA	NA	0	1	3.0620610714	None	None	None	None	1
3.0.1	2019_Mar_05_1507	s	s	1	4	SIC	391	ABS	0	0	3	2	24_3_2	NA	NA	0	1	3.61292719841	None	None	None	None	1
3.0.1	2019_Mar_05_1507	s	s	1	4	SIC	392	3_3	3	3	3	4	23_3_4	0	-1	1	0	1.26951408386	-132.0	-280.0	-127.0	-277.0	1
3.0.1	2019_Mar_05_1507	s	s	1	4	SIC	393	1_3	1	3	4	4	23_4_4	3	-1	1	0	0.428030967712	80.0	306.0	88.0	305.0	1
3.0.1	2019_Mar_05_1507	s	s	1	4	SIC	394	4_4	4	4	4	2	23_4_2	0	2	1	0	1.97530889511	400.0	-359.0	404.0	-353.0	1
3.0.1	2019_Mar_05_1507	s	s	1	4	SIC	395	2_1	2	1	3	3	23_3_3	1	2	1	0	0.517253875732	222.0	155.0	221.0	162.0	1
3.0.1	2019_Mar_05_1507	s	s	1	4	SIC	396	1_2	1	2	2	4	23_2_4	1	2	1	0	0.56390619278	-396.0	-252.0	-391.0	-249.0	1
3.0.1	2019_Mar_05_1507	s	s	1	4	SIC	397	3_4	3	4	1	4	23_1_4	2	0	1	0	0.721961021423	401.0	3.0	409.0	6.0	1
3.0.1	2019_Mar_05_1507	s	s	1	4	SIC	398	ABS	0	0	1	2	24_1_2	NA	NA	0	1	3.61294078827	None	None	None	None	1
3.0.1	2019_Mar_05_1507	s	s	1	4	SIC	399	ABS	0	0	4	3	24_4_3	NA	NA	0	1	3.95404982567	None	None	None	None	1
3.0.1	2019_Mar_05_1507	s	s	1	4	SIC	400	2_1	2	1	4	3	23_4_3	2	2	1	0	0.428202867508	433.0	283.0	434.0	273.0	1
3.0.1	2019_Mar_05_1507	s	s	1	4	SIC	401	ABS	0	0	1	4	24_1_4	NA	NA	0	1	1.64588189125	None	None	None	None	1
3.0.1	2019_Mar_05_1507	s	s	1	4	SIC	402	ABS	0	0	2	4	24_2_4	NA	NA	0	1	1.96643519402	None	None	None	None	1
3.0.1	2019_Mar_05_1507	s	s	1	4	SIC	403	ABS	0	0	1	3	24_1_3	NA	NA	0	1	4.54397010803	None	None	None	None	1
3.0.1	2019_Mar_05_1507	s	s	1	4	SIC	404	4_4	4	4	3	1	23_3_1	1	3	1	0	0.458027124405	-168.0	295.0	-171.0	291.0	1
3.0.1	2019_Mar_05_1507	s	s	1	4	SIC	405	ABS	0	0	4	2	24_4_2	NA	NA	0	1	3.58647799492	None	None	None	None	1
3.0.1	2019_Mar_05_1507	s	s	1	4	SIC	406	ABS	0	0	1	2	24_1_2	NA	NA	0	1	5.94292593002	None	None	None	None	1
3.0.1	2019_Mar_05_1507	s	s	1	4	SIC	407	1_1	1	1	2	4	23_2_4	1	3	1	0	0.62087392807	-11.0	356.0	-10.0	355.0	1
3.0.1	2019_Mar_05_1507	s	s	1	4	SIC	408	ABS	0	0	1	1	24_1_1	NA	NA	0	1	3.96573781967	None	None	None	None	1
3.0.1	2019_Mar_05_1507	s	s	1	4	SIC	409	ABS	0	0	2	3	24_2_3	NA	NA	0	1	4.86150884628	None	None	None	None	1
3.0.1	2019_Mar_05_1507	s	s	1	4	SIC	410	ABS	0	0	2	1	24_2_1	NA	NA	0	1	3.43653106689	None	None	None	None	1
3.0.1	2019_Mar_05_1507	s	s	1	4	SIC	411	3_4	3	4	3	3	23_3_3	0	1	1	0	0.987267971039	-88.0	-113.0	-76.0	-110.0	1
3.0.1	2019_Mar_05_1507	s	s	1	4	SIC	412	ABS	0	0	2	2	24_2_2	NA	NA	0	1	4.89811587334	None	None	None	None	1
3.0.1	2019_Mar_05_1507	s	s	1	4	SIC	413	ABS	0	0	3	1	24_3_1	NA	NA	0	1	1.34006285667	None	None	None	None	1
3.0.1	2019_Mar_05_1507	s	s	1	4	SIC	414	ABS	0	0	4	4	24_4_4	NA	NA	0	1	1.67616820335	None	None	None	None	1
3.0.1	2019_Mar_05_1507	s	s	1	4	SIC	415	ABS	0	0	1	1	24_1_1	NA	NA	0	1	2.97217202187	None	None	None	None	1
3.0.1	2019_Mar_05_1507	s	s	1	4	SIC	416	2_1	2	1	4	2	23_4_2	2	1	1	0	0.548591136932	-504.0	-412.0	-501.0	-411.0	1
3.0.1	2019_Mar_05_1507	s	s	1	4	SIC	417	3_3	3	3	4	4	23_4_4	-1	-1	1	0	0.443701982498	45.0	301.0	41.0	304.0	1
3.0.1	2019_Mar_05_1507	s	s	1	4	SIC	418	ABS	0	0	1	1	24_1_1	NA	NA	0	1	4.28034996986	None	None	None	None	1
3.0.1	2019_Mar_05_1507	s	s	1	4	SIC	419	4_2	4	2	2	1	23_2_1	2	-1	1	0	0.385136127472	-518.0	132.0	-513.0	124.0	1
3.0.1	2019_Mar_05_1507	s	s	1	4	SIC	420	4_2	4	2	1	4	23_1_4	3	2	1	0	0.369545936584	461.0	116.0	453.0	114.0	1
3.0.1	2019_Mar_05_1507	s	s	1	4	SIC	421	ABS	0	0	3	4	24_3_4	NA	NA	0	1	1.44016885757	None	None	None	None	1
3.0.1	2019_Mar_05_1507	s	s	1	4	SIC	422	ABS	0	0	2	1	24_2_1	NA	NA	0	1	2.12832283974	None	None	None	None	1
3.0.1	2019_Mar_05_1507	s	s	1	4	SIC	423	ABS	0	0	4	2	24_4_2	NA	NA	0	1	2.09700298309	None	None	None	None	1
3.0.1	2019_Mar_05_1507	s	s	1	4	SIC	424	2_3	2	3	4	3	23_4_3	2	0	1	0	0.434550046921	195.0	272.0	202.0	267.0	1
3.0.1	2019_Mar_05_1507	s	s	1	4	SIC	425	ABS	0	0	2	1	24_2_1	NA	NA	0	1	4.04521608353	None	None	None	None	1
3.0.1	2019_Mar_05_1507	s	s	1	4	SIC	426	ABS	0	0	4	4	24_4_4	NA	NA	0	1	1.83938908577	None	None	None	None	1
3.0.1	2019_Mar_05_1507	s	s	1	4	SIC	427	ABS	0	0	1	1	24_1_1	NA	NA	0	1	2.64560508728	None	None	None	None	1
3.0.1	2019_Mar_05_1507	s	s	1	4	SIC	428	1_1	1	1	1	3	23_1_3	0	2	1	0	1.0842730999	240.0	-95.0	245.0	-98.0	1
3.0.1	2019_Mar_05_1507	s	s	1	4	SIC	429	3_4	3	4	2	2	23_2_2	1	2	1	0	0.616940975189	163.0	14.0	161.0	12.0	1
3.0.1	2019_Mar_05_1507	s	s	1	4	SIC	430	4_4	4	4	4	1	23_4_1	0	3	1	0	0.528553009033	11.0	-233.0	18.0	-236.0	1
3.0.1	2019_Mar_05_1507	s	s	1	4	SIC	431	ABS	0	0	3	2	24_3_2	NA	NA	0	1	2.97490310669	None	None	None	None	1
3.0.1	2019_Mar_05_1507	s	s	1	4	SIC	432	ABS	0	0	2	4	24_2_4	NA	NA	0	1	1.98700380325	None	None	None	None	1
3.0.1	2019_Mar_05_1507	s	s	1	4	SIC	433	4_3	4	3	2	4	23_2_4	2	-1	1	0	0.437350988388	-403.0	121.0	-401.0	113.0	1
3.0.1	2019_Mar_05_1507	s	s	1	4	SIC	434	1_4	1	4	2	2	23_2_2	1	2	1	0	1.00518894196	-237.0	-342.0	-230.0	-339.0	1
3.0.1	2019_Mar_05_1507	s	s	1	4	SIC	435	ABS	0	0	2	1	24_2_1	NA	NA	0	1	4.7558619976	None	None	None	None	1
3.0.1	2019_Mar_05_1507	s	s	1	4	SIC	436	ABS	0	0	4	3	24_4_3	NA	NA	0	1	4.19814395905	None	None	None	None	1
3.0.1	2019_Mar_05_1507	s	s	1	4	SIC	437	ABS	0	0	2	2	24_2_2	NA	NA	0	1	4.333081007	None	None	None	None	1
3.0.1	2019_Mar_05_1507	s	s	1	4	SIC	438	ABS	0	0	4	1	24_4_1	NA	NA	0	1	1.7165119648	None	None	None	None	1
3.0.1	2019_Mar_05_1507	s	s	1	4	SIC	439	1_1	1	1	1	2	23_1_2	0	1	1	0	5.04474592209	-163.0	192.0	-155.0	189.0	1
3.0.1	2019_Mar_05_1507	s	s	1	4	SIC	440	2_3	2	3	3	1	23_3_1	1	2	1	0	0.987670898438	-114.0	342.0	-115.0	337.0	1
3.0.1	2019_Mar_05_1507	s	s	1	4	SIC	441	ABS	0	0	2	2	24_2_2	NA	NA	0	1	7.88389611244	None	None	None	None	1
3.0.1	2019_Mar_05_1507	s	s	1	4	SIC	442	ABS	0	0	2	4	24_2_4	NA	NA	0	1	2.81026005745	None	None	None	None	1
3.0.1	2019_Mar_05_1507	s	s	1	4	SIC	443	ABS	0	0	4	4	24_4_4	NA	NA	0	1	1.16806221008	None	None	None	None	1
3.0.1	2019_Mar_05_1507	s	s	1	4	SIC	444	ABS	0	0	3	1	24_3_1	NA	NA	0	1	1.84874105453	None	None	None	None	1
3.0.1	2019_Mar_05_1507	s	s	1	4	SIC	445	4_3	4	3	3	4	23_3_4	1	-1	1	0	0.509009122849	-510.0	283.0	-511.0	280.0	1
3.0.1	2019_Mar_05_1507	s	s	1	4	SIC	446	ABS	0	0	1	3	24_1_3	NA	NA	0	1	2.63379096985	None	None	None	None	1
3.0.1	2019_Mar_05_1507	s	s	1	4	SIC	447	2_2	2	2	4	4	23_4_4	2	2	1	0	0.634414196014	42.0	126.0	48.0	117.0	1
3.0.1	2019_Mar_05_1507	s	s	1	4	SIC	448	ABS	0	0	2	3	24_2_3	NA	NA	0	1	3.33944201469	None	None	None	None	1
3.0.1	2019_Mar_05_1507	s	s	1	4	SIC	449	3_1	3	1	3	4	23_3_4	0	3	1	0	0.545692205429	-289.0	120.0	-290.0	121.0	1
3.0.1	2019_Mar_05_1507	s	s	1	4	SIC	450	4_4	4	4	2	4	23_2_4	2	0	1	0	0.422746181488	440.0	360.0	433.0	355.0	1
3.0.1	2019_Mar_05_1507	s	s	1	4	SIC	451	ABS	0	0	4	4	24_4_4	NA	NA	0	1	1.0405459404	None	None	None	None	1
3.0.1	2019_Mar_05_1507	s	s	1	4	SIC	452	ABS	0	0	2	2	24_2_2	NA	NA	0	1	6.20924186707	None	None	None	None	1
3.0.1	2019_Mar_05_1507	s	s	1	4	SIC	453	2_4	2	4	4	4	23_4_4	2	0	1	0	0.616571903229	97.0	-201.0	101.0	-197.0	1
3.0.1	2019_Mar_05_1507	s	s	1	4	SIC	454	3_1	3	1	2	4	23_2_4	1	3	1	0	0.521302938461	241.0	27.0	235.0	27.0	1
3.0.1	2019_Mar_05_1507	s	s	1	4	SIC	455	2_2	2	2	4	3	23_4_3	2	1	1	0	0.415165185928	-495.0	289.0	-494.0	285.0	1
3.0.1	2019_Mar_05_1507	s	s	1	4	SIC	456	ABS	0	0	1	4	24_1_4	NA	NA	0	1	2.23391485214	None	None	None	None	1
3.0.1	2019_Mar_05_1507	s	s	1	4	SIC	457	2_2	2	2	1	1	23_1_1	-1	-1	0	1	2.24572110176	304.0	-72.0	None	None	0
3.0.1	2019_Mar_05_1507	s	s	1	4	SIC	458	ABS	0	0	1	3	24_1_3	NA	NA	0	1	3.88051605225	None	None	None	None	1
3.0.1	2019_Mar_05_1507	s	s	1	4	SIC	459	ABS	0	0	1	3	24_1_3	NA	NA	0	1	3.7040989399	None	None	None	None	1
3.0.1	2019_Mar_05_1507	s	s	1	4	SIC	460	ABS	0	0	4	1	24_4_1	NA	NA	0	1	0.904927968979	None	None	None	None	1
3.0.1	2019_Mar_05_1507	s	s	1	4	SIC	461	4_4	4	4	2	1	23_2_1	2	3	1	0	0.411008834839	-90.0	-293.0	-82.0	-285.0	1
3.0.1	2019_Mar_05_1507	s	s	1	4	SIC	462	2_2	2	2	1	3	23_1_3	-1	1	1	0	1.96735405922	-306.0	78.0	-304.0	74.0	1
3.0.1	2019_Mar_05_1507	s	s	1	4	SIC	463	ABS	0	0	4	4	24_4_4	NA	NA	0	1	1.31156682968	None	None	None	None	1
3.0.1	2019_Mar_05_1507	s	s	1	4	SIC	464	1_1	1	1	3	4	23_3_4	2	3	1	0	0.469760894775	200.0	-90.0	200.0	-95.0	1
3.0.1	2019_Mar_05_1507	s	s	1	4	SIC	465	ABS	0	0	3	4	24_3_4	NA	NA	0	1	1.187240839	None	None	None	None	1
3.0.1	2019_Mar_05_1507	s	s	1	4	SIC	466	ABS	0	0	2	3	24_2_3	NA	NA	0	1	4.88022613525	None	None	None	None	1
3.0.1	2019_Mar_05_1507	s	s	1	4	SIC	467	ABS	0	0	2	3	24_2_3	NA	NA	0	1	3.84815883636	None	None	None	None	1
3.0.1	2019_Mar_05_1507	s	s	1	4	SIC	468	ABS	0	0	4	1	24_4_1	NA	NA	0	1	1.22244000435	None	None	None	None	1
3.0.1	2019_Mar_05_1507	s	s	1	4	SIC	469	1_3	1	3	1	2	23_1_2	0	1	1	0	1.67378401756	120.0	-73.0	124.0	-63.0	1
3.0.1	2019_Mar_05_1507	s	s	1	4	SIC	470	1_3	1	3	2	3	23_2_3	1	0	1	0	4.47280788422	102.0	-38.0	98.0	-37.0	1
3.0.1	2019_Mar_05_1507	s	s	1	4	SIC	471	4_2	4	2	1	2	23_1_2	3	0	1	0	0.426217079163	66.0	294.0	57.0	292.0	1
3.0.1	2019_Mar_05_1507	s	s	1	4	SIC	472	ABS	0	0	2	4	24_2_4	NA	NA	0	1	2.01649904251	None	None	None	None	1
3.0.1	2019_Mar_05_1507	s	s	1	4	SIC	473	1_3	1	3	1	1	23_1_1	0	2	0	1	2.24615597725	510.0	171.0	None	None	0
3.0.1	2019_Mar_05_1507	s	s	1	4	SIC	474	ABS	0	0	2	1	24_2_1	NA	NA	0	1	2.78960680962	None	None	None	None	1
3.0.1	2019_Mar_05_1507	s	s	1	4	SIC	475	ABS	0	0	1	2	24_1_2	NA	NA	0	1	6.19009709358	None	None	None	None	1
3.0.1	2019_Mar_05_1507	s	s	1	4	SIC	476	2_1	2	1	1	2	23_1_2	-1	1	1	0	1.56041407585	523.0	151.0	518.0	149.0	1
3.0.1	2019_Mar_05_1507	s	s	1	4	SIC	477	3_3	3	3	4	3	23_4_3	-1	0	1	0	0.591403961182	115.0	-242.0	122.0	-232.0	1
3.0.1	2019_Mar_05_1507	s	s	1	4	SIC	478	3_1	3	1	1	2	23_1_2	2	1	1	0	0.721839904785	289.0	381.0	286.0	381.0	1
3.0.1	2019_Mar_05_1507	s	s	1	4	SIC	479	3_2	3	2	1	4	23_1_4	2	2	1	0	0.634435176849	-42.0	-373.0	-43.0	-379.0	1
3.0.1	2019_Mar_05_1507	s	s	1	4	SIC	480	ABS	0	0	4	4	24_4_4	NA	NA	0	1	1.08994293213	None	None	None	None	1
