Version	Date	Stimuli	Method	Subject	Session	Condition	Trial	Target	TColor	TShape	DColor	DShape	Distractors	Channel1	Channel2	LMouseButton	RMouseButton	RT	TargetX	TargetY	ResponseX	ResponseY	Correct
3.0.1	2019_Mar_02_1529	s	s	1	1	Capacity	1	1_4	1	4	1	2	23_1_2	0	2	1	0	1.30491089821	-332.0	58.0	-329.0	50.0	1
3.0.1	2019_Mar_02_1529	s	s	1	1	Capacity	2	ABS	0	0	1	4	24_1_4	NA	NA	0	1	2.31017589569	None	None	None	None	1
3.0.1	2019_Mar_02_1529	s	s	1	1	Capacity	3	1_4	1	4	1	3	23_1_3	0	1	1	0	2.31323194504	-300.0	94.0	-302.0	94.0	1
3.0.1	2019_Mar_02_1529	s	s	1	1	Capacity	4	ABS	0	0	1	4	24_1_4	NA	NA	0	1	1.97349691391	None	None	None	None	1
3.0.1	2019_Mar_02_1529	s	s	1	1	Capacity	5	ABS	0	0	1	1	24_1_1	NA	NA	0	1	1.76747584343	None	None	None	None	1
3.0.1	2019_Mar_02_1529	s	s	1	1	Capacity	6	ABS	0	0	1	2	24_1_2	NA	NA	0	1	4.96548509598	None	None	None	None	1
3.0.1	2019_Mar_02_1529	s	s	1	1	Capacity	7	ABS	0	0	1	1	24_1_1	NA	NA	0	1	2.36330795288	None	None	None	None	1
3.0.1	2019_Mar_02_1529	s	s	1	1	Capacity	8	1_3	1	3	1	1	23_1_1	0	2	1	0	2.30922985077	278.0	52.0	267.0	52.0	1
3.0.1	2019_Mar_02_1529	s	s	1	1	Capacity	9	1_2	1	2	1	4	23_1_4	0	2	1	0	0.881433010101	471.0	-123.0	473.0	-121.0	1
3.0.1	2019_Mar_02_1529	s	s	1	1	Capacity	10	1_4	1	4	1	1	23_1_1	0	3	1	0	1.82226681709	-537.0	51.0	-538.0	49.0	1
3.0.1	2019_Mar_02_1529	s	s	1	1	Capacity	11	1_1	1	1	1	4	23_1_4	0	3	1	0	0.886089086533	-188.0	-117.0	-188.0	-113.0	1
3.0.1	2019_Mar_02_1529	s	s	1	1	Capacity	12	ABS	0	0	1	3	24_1_3	NA	NA	0	1	4.46854496002	None	None	None	None	1
3.0.1	2019_Mar_02_1529	s	s	1	1	Capacity	13	1_3	1	3	1	2	23_1_2	0	1	0	1	5.40315198898	509.0	280.0	None	None	0
3.0.1	2019_Mar_02_1529	s	s	1	1	Capacity	14	1_2	1	2	1	3	23_1_3	0	1	1	0	4.70379018784	-5.0	132.0	-4.0	130.0	1
3.0.1	2019_Mar_02_1529	s	s	1	1	Capacity	15	1_1	1	1	1	3	23_1_3	0	2	1	0	3.66222882271	205.0	-252.0	208.0	-253.0	1
3.0.1	2019_Mar_02_1529	s	s	1	1	Capacity	16	1_1	1	1	1	2	23_1_2	0	1	1	0	1.80163502693	288.0	300.0	286.0	301.0	1
3.0.1	2019_Mar_02_1529	s	s	1	1	Capacity	17	1_2	1	2	1	1	23_1_1	0	-1	1	0	3.4806060791	-415.0	369.0	-427.0	377.0	1
3.0.1	2019_Mar_02_1529	s	s	1	1	Capacity	18	ABS	0	0	1	3	24_1_3	NA	NA	0	1	9.4905397892	None	None	None	None	1
3.0.1	2019_Mar_02_1529	s	s	1	1	Capacity	19	ABS	0	0	1	2	24_1_2	NA	NA	0	1	3.93203115463	None	None	None	None	1
3.0.1	2019_Mar_02_1529	s	s	1	1	Capacity	20	1_3	1	3	1	4	23_1_4	0	-1	1	0	1.04612493515	-510.0	381.0	-515.0	378.0	1
3.0.1	2019_Mar_02_1529	s	s	1	1	Capacity	21	ABS	0	0	1	4	24_1_4	NA	NA	0	1	2.57505488396	None	None	None	None	1
3.0.1	2019_Mar_02_1529	s	s	1	1	Capacity	22	ABS	0	0	1	2	24_1_2	NA	NA	0	1	6.20306110382	None	None	None	None	1
3.0.1	2019_Mar_02_1529	s	s	1	1	Capacity	23	ABS	0	0	1	3	24_1_3	NA	NA	0	1	5.01582813263	None	None	None	None	1
3.0.1	2019_Mar_02_1529	s	s	1	1	Capacity	24	ABS	0	0	1	1	24_1_1	NA	NA	0	1	2.50445795059	None	None	None	None	1
3.0.1	2019_Mar_02_1529	s	s	1	1	Capacity	25	1_1	1	1	1	3	23_1_3	0	2	1	0	2.50141596794	-275.0	-355.0	-276.0	-351.0	1
3.0.1	2019_Mar_02_1529	s	s	1	1	Capacity	26	1_3	1	3	1	2	23_1_2	0	1	1	0	3.51588201523	238.0	-238.0	246.0	-240.0	1
3.0.1	2019_Mar_02_1529	s	s	1	1	Capacity	27	1_4	1	4	1	3	23_1_3	0	1	1	0	3.19190001488	-360.0	-384.0	-356.0	-382.0	1
3.0.1	2019_Mar_02_1529	s	s	1	1	Capacity	28	ABS	0	0	1	3	24_1_3	NA	NA	0	1	5.868227005	None	None	None	None	1
3.0.1	2019_Mar_02_1529	s	s	1	1	Capacity	29	1_2	1	2	1	1	23_1_1	0	-1	0	1	2.10457396507	-512.0	389.0	None	None	0
3.0.1	2019_Mar_02_1529	s	s	1	1	Capacity	30	ABS	0	0	1	3	24_1_3	NA	NA	0	1	4.87178587914	None	None	None	None	1
3.0.1	2019_Mar_02_1529	s	s	1	1	Capacity	31	ABS	0	0	1	2	24_1_2	NA	NA	0	1	5.36244511604	None	None	None	None	1
3.0.1	2019_Mar_02_1529	s	s	1	1	Capacity	32	ABS	0	0	1	4	24_1_4	NA	NA	0	1	3.35124588013	None	None	None	None	1
3.0.1	2019_Mar_02_1529	s	s	1	1	Capacity	33	ABS	0	0	1	4	24_1_4	NA	NA	0	1	3.06902694702	None	None	None	None	1
3.0.1	2019_Mar_02_1529	s	s	1	1	Capacity	34	ABS	0	0	1	4	24_1_4	NA	NA	0	1	2.95138406754	None	None	None	None	1
3.0.1	2019_Mar_02_1529	s	s	1	1	Capacity	35	1_1	1	1	1	4	23_1_4	0	3	1	0	0.604337930679	-160.0	246.0	-161.0	247.0	1
3.0.1	2019_Mar_02_1529	s	s	1	1	Capacity	36	ABS	0	0	1	1	24_1_1	NA	NA	0	1	2.63382315636	None	None	None	None	1
3.0.1	2019_Mar_02_1529	s	s	1	1	Capacity	37	1_4	1	4	1	1	23_1_1	0	3	1	0	0.90099811554	246.0	387.0	248.0	386.0	1
3.0.1	2019_Mar_02_1529	s	s	1	1	Capacity	38	ABS	0	0	1	2	24_1_2	NA	NA	0	1	2.20385599136	None	None	None	None	1
3.0.1	2019_Mar_02_1529	s	s	1	1	Capacity	39	1_4	1	4	1	2	23_1_2	0	2	1	0	1.26556992531	-271.0	-325.0	-266.0	-331.0	1
3.0.1	2019_Mar_02_1529	s	s	1	1	Capacity	40	ABS	0	0	1	1	24_1_1	NA	NA	0	1	2.53183293343	None	None	None	None	1
3.0.1	2019_Mar_02_1529	s	s	1	1	Capacity	41	ABS	0	0	1	2	24_1_2	NA	NA	0	1	5.33886289597	None	None	None	None	1
3.0.1	2019_Mar_02_1529	s	s	1	1	Capacity	42	1_2	1	2	1	4	23_1_4	0	2	1	0	0.796168804169	-168.0	19.0	-165.0	15.0	1
3.0.1	2019_Mar_02_1529	s	s	1	1	Capacity	43	1_3	1	3	1	4	23_1_4	0	-1	1	0	1.28705000877	524.0	76.0	516.0	70.0	1
3.0.1	2019_Mar_02_1529	s	s	1	1	Capacity	44	ABS	0	0	1	1	24_1_1	NA	NA	0	1	2.62798500061	None	None	None	None	1
3.0.1	2019_Mar_02_1529	s	s	1	1	Capacity	45	1_1	1	1	1	2	23_1_2	0	1	1	0	2.18171906471	519.0	244.0	521.0	241.0	1
3.0.1	2019_Mar_02_1529	s	s	1	1	Capacity	46	1_3	1	3	1	1	23_1_1	0	2	1	0	1.10959482193	44.0	383.0	38.0	382.0	1
3.0.1	2019_Mar_02_1529	s	s	1	1	Capacity	47	ABS	0	0	1	3	24_1_3	NA	NA	0	1	4.82622718811	None	None	None	None	1
3.0.1	2019_Mar_02_1529	s	s	1	1	Capacity	48	1_2	1	2	1	3	23_1_3	0	1	1	0	3.21535205841	107.0	-291.0	104.0	-297.0	1
3.0.1	2019_Mar_02_1529	s	s	1	1	Capacity	49	1_4	1	4	1	3	23_1_3	0	1	1	0	1.58703899384	33.0	-307.0	36.0	-299.0	1
3.0.1	2019_Mar_02_1529	s	s	1	1	Capacity	50	1_4	1	4	1	1	23_1_1	0	3	1	0	0.9049680233	494.0	22.0	492.0	17.0	1
3.0.1	2019_Mar_02_1529	s	s	1	1	Capacity	51	1_1	1	1	1	3	23_1_3	0	2	1	0	2.73965215683	184.0	-284.0	186.0	-284.0	1
3.0.1	2019_Mar_02_1529	s	s	1	1	Capacity	52	1_3	1	3	1	2	23_1_2	0	1	0	1	3.56024217606	-21.0	-303.0	None	None	0
3.0.1	2019_Mar_02_1529	s	s	1	1	Capacity	53	ABS	0	0	1	3	24_1_3	NA	NA	0	1	4.9978890419	None	None	None	None	1
3.0.1	2019_Mar_02_1529	s	s	1	1	Capacity	54	ABS	0	0	1	1	24_1_1	NA	NA	0	1	2.85734200478	None	None	None	None	1
3.0.1	2019_Mar_02_1529	s	s	1	1	Capacity	55	ABS	0	0	1	2	24_1_2	NA	NA	0	1	5.62619495392	None	None	None	None	1
3.0.1	2019_Mar_02_1529	s	s	1	1	Capacity	56	ABS	0	0	1	4	24_1_4	NA	NA	0	1	2.89262485504	None	None	None	None	1
3.0.1	2019_Mar_02_1529	s	s	1	1	Capacity	57	ABS	0	0	1	1	24_1_1	NA	NA	0	1	3.99803185463	None	None	None	None	1
3.0.1	2019_Mar_02_1529	s	s	1	1	Capacity	58	ABS	0	0	1	2	24_1_2	NA	NA	0	1	8.62532019615	None	None	None	None	1
3.0.1	2019_Mar_02_1529	s	s	1	1	Capacity	59	ABS	0	0	1	2	24_1_2	NA	NA	0	1	6.88473701477	None	None	None	None	1
3.0.1	2019_Mar_02_1529	s	s	1	1	Capacity	60	1_2	1	2	1	1	23_1_1	0	-1	0	1	3.49520802498	-120.0	-3.0	None	None	0
3.0.1	2019_Mar_02_1529	s	s	1	1	Capacity	61	1_1	1	1	1	2	23_1_2	0	1	1	0	6.77373695374	-343.0	29.0	-334.0	27.0	1
3.0.1	2019_Mar_02_1529	s	s	1	1	Capacity	62	1_2	1	2	1	3	23_1_3	0	1	1	0	5.49183511734	-34.0	-393.0	-29.0	-399.0	1
3.0.1	2019_Mar_02_1529	s	s	1	1	Capacity	63	1_2	1	2	1	4	23_1_4	0	2	1	0	0.780685186386	315.0	350.0	320.0	352.0	1
3.0.1	2019_Mar_02_1529	s	s	1	1	Capacity	64	ABS	0	0	1	4	24_1_4	NA	NA	0	1	3.03360199928	None	None	None	None	1
3.0.1	2019_Mar_02_1529	s	s	1	1	Capacity	65	ABS	0	0	1	3	24_1_3	NA	NA	0	1	12.5532898903	None	None	None	None	1
3.0.1	2019_Mar_02_1529	s	s	1	1	Capacity	66	ABS	0	0	1	4	24_1_4	NA	NA	0	1	3.37488698959	None	None	None	None	1
3.0.1	2019_Mar_02_1529	s	s	1	1	Capacity	67	1_4	1	4	1	2	23_1_2	0	2	1	0	7.10878705978	-366.0	-308.0	-374.0	-300.0	1
3.0.1	2019_Mar_02_1529	s	s	1	1	Capacity	68	1_3	1	3	1	1	23_1_1	0	2	1	0	1.48115801811	484.0	-14.0	480.0	-14.0	1
3.0.1	2019_Mar_02_1529	s	s	1	1	Capacity	69	1_3	1	3	1	4	23_1_4	0	-1	1	0	1.22243499756	-447.0	-85.0	-453.0	-91.0	1
3.0.1	2019_Mar_02_1529	s	s	1	1	Capacity	70	ABS	0	0	1	1	24_1_1	NA	NA	0	1	3.06905698776	None	None	None	None	1
3.0.1	2019_Mar_02_1529	s	s	1	1	Capacity	71	1_1	1	1	1	4	23_1_4	0	3	1	0	0.834733963013	74.0	-114.0	68.0	-113.0	1
3.0.1	2019_Mar_02_1529	s	s	1	1	Capacity	72	ABS	0	0	1	3	24_1_3	NA	NA	0	1	5.31255412102	None	None	None	None	1
3.0.1	2019_Mar_02_1529	s	s	1	1	Capacity	73	ABS	0	0	1	3	24_1_3	NA	NA	0	1	8.25563001633	None	None	None	None	1
3.0.1	2019_Mar_02_1529	s	s	1	1	Capacity	74	ABS	0	0	1	4	24_1_4	NA	NA	0	1	1.95168495178	None	None	None	None	1
3.0.1	2019_Mar_02_1529	s	s	1	1	Capacity	75	ABS	0	0	1	1	24_1_1	NA	NA	0	1	1.82631111145	None	None	None	None	1
3.0.1	2019_Mar_02_1529	s	s	1	1	Capacity	76	1_4	1	4	1	1	23_1_1	0	3	1	0	0.619784116745	-387.0	77.0	-390.0	73.0	1
3.0.1	2019_Mar_02_1529	s	s	1	1	Capacity	77	ABS	0	0	1	1	24_1_1	NA	NA	0	1	1.20743203163	None	None	None	None	1
3.0.1	2019_Mar_02_1529	s	s	1	1	Capacity	78	ABS	0	0	1	4	24_1_4	NA	NA	0	1	1.93994402885	None	None	None	None	1
3.0.1	2019_Mar_02_1529	s	s	1	1	Capacity	79	1_1	1	1	1	3	23_1_3	0	2	1	0	1.65113186836	-396.0	9.0	-386.0	11.0	1
3.0.1	2019_Mar_02_1529	s	s	1	1	Capacity	80	1_3	1	3	1	4	23_1_4	0	-1	1	0	1.85760807991	-298.0	307.0	-305.0	302.0	1
3.0.1	2019_Mar_02_1529	s	s	1	1	Capacity	81	1_4	1	4	1	3	23_1_3	0	1	1	0	1.26068997383	-190.0	-46.0	-195.0	-47.0	1
3.0.1	2019_Mar_02_1529	s	s	1	1	Capacity	82	ABS	0	0	1	2	24_1_2	NA	NA	0	1	4.53915810585	None	None	None	None	1
3.0.1	2019_Mar_02_1529	s	s	1	1	Capacity	83	1_4	1	4	1	2	23_1_2	0	2	1	0	1.05181002617	128.0	-346.0	130.0	-360.0	1
3.0.1	2019_Mar_02_1529	s	s	1	1	Capacity	84	ABS	0	0	1	3	24_1_3	NA	NA	0	1	4.69199991226	None	None	None	None	1
3.0.1	2019_Mar_02_1529	s	s	1	1	Capacity	85	1_2	1	2	1	4	23_1_4	0	2	1	0	0.752038002014	-516.0	5.0	-517.0	7.0	1
3.0.1	2019_Mar_02_1529	s	s	1	1	Capacity	86	ABS	0	0	1	4	24_1_4	NA	NA	0	1	2.193379879	None	None	None	None	1
3.0.1	2019_Mar_02_1529	s	s	1	1	Capacity	87	ABS	0	0	1	1	24_1_1	NA	NA	0	1	2.13341498375	None	None	None	None	1
3.0.1	2019_Mar_02_1529	s	s	1	1	Capacity	88	ABS	0	0	1	2	24_1_2	NA	NA	0	1	3.56299090385	None	None	None	None	1
3.0.1	2019_Mar_02_1529	s	s	1	1	Capacity	89	1_3	1	3	1	2	23_1_2	0	1	1	0	1.90773916245	359.0	55.0	355.0	50.0	1
3.0.1	2019_Mar_02_1529	s	s	1	1	Capacity	90	ABS	0	0	1	2	24_1_2	NA	NA	0	1	4.67135882378	None	None	None	None	1
3.0.1	2019_Mar_02_1529	s	s	1	1	Capacity	91	1_1	1	1	1	2	23_1_2	0	1	1	0	3.26626086235	4.0	300.0	4.0	291.0	1
3.0.1	2019_Mar_02_1529	s	s	1	1	Capacity	92	ABS	0	0	1	3	24_1_3	NA	NA	0	1	6.15033507347	None	None	None	None	1
3.0.1	2019_Mar_02_1529	s	s	1	1	Capacity	93	1_3	1	3	1	1	23_1_1	0	2	1	0	0.840924978256	276.0	100.0	271.0	96.0	1
3.0.1	2019_Mar_02_1529	s	s	1	1	Capacity	94	1_2	1	2	1	1	23_1_1	0	-1	1	0	1.3194630146	503.0	-315.0	508.0	-313.0	1
3.0.1	2019_Mar_02_1529	s	s	1	1	Capacity	95	1_1	1	1	1	4	23_1_4	0	3	1	0	0.716717004776	-58.0	-345.0	-63.0	-348.0	1
3.0.1	2019_Mar_02_1529	s	s	1	1	Capacity	96	1_2	1	2	1	3	23_1_3	0	1	1	0	6.54142308235	233.0	-406.0	233.0	-408.0	1
3.0.1	2019_Mar_02_1529	s	s	1	1	Capacity	1	ABS	0	0	2	1	24_2_1	NA	NA	0	1	4.97433519363	None	None	None	None	1
3.0.1	2019_Mar_02_1529	s	s	1	1	Capacity	2	ABS	0	0	1	1	24_1_1	NA	NA	1	0	9.43970298767	None	None	523.0	398.0	0
3.0.1	2019_Mar_02_1529	s	s	1	1	Capacity	3	ABS	0	0	3	1	24_3_1	NA	NA	0	1	1.52837085724	None	None	None	None	1
3.0.1	2019_Mar_02_1529	s	s	1	1	Capacity	4	ABS	0	0	1	1	24_1_1	NA	NA	0	1	2.4573559761	None	None	None	None	1
3.0.1	2019_Mar_02_1529	s	s	1	1	Capacity	5	ABS	0	0	1	1	24_1_1	NA	NA	0	1	4.09227085114	None	None	None	None	1
3.0.1	2019_Mar_02_1529	s	s	1	1	Capacity	6	4_1	4	1	1	1	23_1_1	3	0	1	0	0.493288993835	-125.0	-180.0	-121.0	-183.0	1
3.0.1	2019_Mar_02_1529	s	s	1	1	Capacity	7	ABS	0	0	4	1	24_4_1	NA	NA	0	1	0.834439992905	None	None	None	None	1
3.0.1	2019_Mar_02_1529	s	s	1	1	Capacity	8	ABS	0	0	2	1	24_2_1	NA	NA	0	1	5.12727212906	None	None	None	None	1
3.0.1	2019_Mar_02_1529	s	s	1	1	Capacity	9	1_1	1	1	3	1	23_3_1	2	0	1	0	0.705064058304	388.0	286.0	395.0	292.0	1
3.0.1	2019_Mar_02_1529	s	s	1	1	Capacity	10	1_1	1	1	4	1	23_4_1	3	0	1	0	0.543241977692	220.0	358.0	214.0	351.0	1
3.0.1	2019_Mar_02_1529	s	s	1	1	Capacity	11	3_1	3	1	4	1	23_4_1	-1	0	1	0	0.592376947403	274.0	-308.0	280.0	-309.0	1
3.0.1	2019_Mar_02_1529	s	s	1	1	Capacity	12	1_1	1	1	2	1	23_2_1	1	0	1	0	5.01465296745	-71.0	-3.0	-74.0	1.0	1
3.0.1	2019_Mar_02_1529	s	s	1	1	Capacity	13	ABS	0	0	3	1	24_3_1	NA	NA	0	1	0.79922914505	None	None	None	None	1
3.0.1	2019_Mar_02_1529	s	s	1	1	Capacity	14	ABS	0	0	3	1	24_3_1	NA	NA	0	1	1.42616510391	None	None	None	None	1
3.0.1	2019_Mar_02_1529	s	s	1	1	Capacity	15	3_1	3	1	2	1	23_2_1	1	0	1	0	0.86966586113	102.0	-129.0	107.0	-127.0	1
3.0.1	2019_Mar_02_1529	s	s	1	1	Capacity	16	ABS	0	0	2	1	24_2_1	NA	NA	0	1	6.7657289505	None	None	None	None	1
3.0.1	2019_Mar_02_1529	s	s	1	1	Capacity	17	ABS	0	0	4	1	24_4_1	NA	NA	0	1	0.721539020538	None	None	None	None	1
3.0.1	2019_Mar_02_1529	s	s	1	1	Capacity	18	4_1	4	1	2	1	23_2_1	2	0	1	0	0.798903942108	70.0	-18.0	74.0	-15.0	1
3.0.1	2019_Mar_02_1529	s	s	1	1	Capacity	19	3_1	3	1	1	1	23_1_1	2	0	1	0	0.63723897934	222.0	-210.0	225.0	-208.0	1
3.0.1	2019_Mar_02_1529	s	s	1	1	Capacity	20	2_1	2	1	1	1	23_1_1	-1	0	1	0	2.73087501526	168.0	322.0	165.0	330.0	1
3.0.1	2019_Mar_02_1529	s	s	1	1	Capacity	21	2_1	2	1	4	1	23_4_1	2	0	1	0	0.587821960449	-407.0	399.0	-406.0	397.0	1
3.0.1	2019_Mar_02_1529	s	s	1	1	Capacity	22	4_1	4	1	3	1	23_3_1	1	0	1	0	0.716752052307	478.0	-103.0	478.0	-102.0	1
3.0.1	2019_Mar_02_1529	s	s	1	1	Capacity	23	ABS	0	0	4	1	24_4_1	NA	NA	0	1	2.9983921051	None	None	None	None	1
3.0.1	2019_Mar_02_1529	s	s	1	1	Capacity	24	2_1	2	1	3	1	23_3_1	1	0	1	0	0.973830938339	-403.0	-143.0	-398.0	-147.0	1
3.0.1	2019_Mar_02_1529	s	s	1	1	Capacity	25	ABS	0	0	4	1	24_4_1	NA	NA	0	1	3.64991688728	None	None	None	None	1
3.0.1	2019_Mar_02_1529	s	s	1	1	Capacity	26	ABS	0	0	3	1	24_3_1	NA	NA	0	1	2.08948802948	None	None	None	None	1
3.0.1	2019_Mar_02_1529	s	s	1	1	Capacity	27	ABS	0	0	3	1	24_3_1	NA	NA	0	1	2.53237009048	None	None	None	None	1
3.0.1	2019_Mar_02_1529	s	s	1	1	Capacity	28	ABS	0	0	2	1	24_2_1	NA	NA	0	1	11.6782069206	None	None	None	None	1
3.0.1	2019_Mar_02_1529	s	s	1	1	Capacity	29	ABS	0	0	2	1	24_2_1	NA	NA	0	0	-1	None	None	None	None	-1
3.0.1	2019_Mar_02_1529	s	s	1	1	Capacity	30	4_1	4	1	3	1	23_3_1	1	0	1	0	0.437481164932	24.0	202.0	34.0	204.0	1
3.0.1	2019_Mar_02_1529	s	s	1	1	Capacity	31	ABS	0	0	1	1	24_1_1	NA	NA	0	1	3.49528598785	None	None	None	None	1
3.0.1	2019_Mar_02_1529	s	s	1	1	Capacity	32	3_1	3	1	4	1	23_4_1	-1	0	1	0	0.540800094604	-271.0	349.0	-264.0	349.0	1
3.0.1	2019_Mar_02_1529	s	s	1	1	Capacity	33	2_1	2	1	1	1	23_1_1	-1	0	1	0	1.27478289604	-7.0	151.0	-3.0	158.0	1
3.0.1	2019_Mar_02_1529	s	s	1	1	Capacity	34	1_1	1	1	4	1	23_4_1	3	0	1	0	0.528559923172	353.0	165.0	350.0	160.0	1
3.0.1	2019_Mar_02_1529	s	s	1	1	Capacity	35	4_1	4	1	2	1	23_2_1	2	0	1	0	0.458009004593	-172.0	102.0	-164.0	105.0	1
3.0.1	2019_Mar_02_1529	s	s	1	1	Capacity	36	ABS	0	0	4	1	24_4_1	NA	NA	0	1	1.83702301979	None	None	None	None	1
3.0.1	2019_Mar_02_1529	s	s	1	1	Capacity	37	2_1	2	1	3	1	23_3_1	1	0	1	0	1.062926054	132.0	317.0	135.0	312.0	1
3.0.1	2019_Mar_02_1529	s	s	1	1	Capacity	38	ABS	0	0	4	1	24_4_1	NA	NA	0	1	1.50103282928	None	None	None	None	1
3.0.1	2019_Mar_02_1529	s	s	1	1	Capacity	39	ABS	0	0	2	1	24_2_1	NA	NA	1	0	5.7299489975	None	None	-361.0	162.0	0
3.0.1	2019_Mar_02_1529	s	s	1	1	Capacity	40	3_1	3	1	1	1	23_1_1	2	0	1	0	0.672691106796	263.0	-245.0	266.0	-247.0	1
3.0.1	2019_Mar_02_1529	s	s	1	1	Capacity	41	4_1	4	1	1	1	23_1_1	3	0	1	0	0.540363073349	37.0	-119.0	29.0	-116.0	1
3.0.1	2019_Mar_02_1529	s	s	1	1	Capacity	42	3_1	3	1	2	1	23_2_1	1	0	1	0	0.61673784256	453.0	-300.0	463.0	-296.0	1
3.0.1	2019_Mar_02_1529	s	s	1	1	Capacity	43	2_1	2	1	4	1	23_4_1	2	0	1	0	0.510215044022	-370.0	6.0	-369.0	4.0	1
3.0.1	2019_Mar_02_1529	s	s	1	1	Capacity	44	ABS	0	0	3	1	24_3_1	NA	NA	0	1	2.43777012825	None	None	None	None	1
3.0.1	2019_Mar_02_1529	s	s	1	1	Capacity	45	ABS	0	0	1	1	24_1_1	NA	NA	0	1	1.9517261982	None	None	None	None	1
3.0.1	2019_Mar_02_1529	s	s	1	1	Capacity	46	ABS	0	0	1	1	24_1_1	NA	NA	0	1	2.41040205956	None	None	None	None	1
3.0.1	2019_Mar_02_1529	s	s	1	1	Capacity	47	1_1	1	1	2	1	23_2_1	1	0	1	0	3.98638391495	321.0	-44.0	326.0	-45.0	1
3.0.1	2019_Mar_02_1529	s	s	1	1	Capacity	48	1_1	1	1	3	1	23_3_1	2	0	1	0	0.563847064972	285.0	-226.0	278.0	-224.0	1
3.0.1	2019_Mar_02_1529	s	s	1	1	Capacity	49	3_1	3	1	2	1	23_2_1	1	0	1	0	0.686712026596	-421.0	259.0	-419.0	257.0	1
3.0.1	2019_Mar_02_1529	s	s	1	1	Capacity	50	3_1	3	1	1	1	23_1_1	2	0	1	0	0.519831895828	-371.0	-45.0	-375.0	-47.0	1
3.0.1	2019_Mar_02_1529	s	s	1	1	Capacity	51	1_1	1	1	3	1	23_3_1	2	0	1	0	0.716754198074	473.0	-321.0	482.0	-315.0	1
3.0.1	2019_Mar_02_1529	s	s	1	1	Capacity	52	ABS	0	0	4	1	24_4_1	NA	NA	0	1	1.23863601685	None	None	None	None	1
3.0.1	2019_Mar_02_1529	s	s	1	1	Capacity	53	ABS	0	0	3	1	24_3_1	NA	NA	0	1	1.73427391052	None	None	None	None	1
3.0.1	2019_Mar_02_1529	s	s	1	1	Capacity	54	ABS	0	0	1	1	24_1_1	NA	NA	0	1	6.8825211525	None	None	None	None	1
3.0.1	2019_Mar_02_1529	s	s	1	1	Capacity	55	4_1	4	1	3	1	23_3_1	1	0	1	0	0.795695781708	-494.0	-47.0	-493.0	-48.0	1
3.0.1	2019_Mar_02_1529	s	s	1	1	Capacity	56	ABS	0	0	4	1	24_4_1	NA	NA	0	1	1.29302978516	None	None	None	None	1
3.0.1	2019_Mar_02_1529	s	s	1	1	Capacity	57	4_1	4	1	1	1	23_1_1	3	0	1	0	0.540387153625	-213.0	-99.0	-207.0	-96.0	1
3.0.1	2019_Mar_02_1529	s	s	1	1	Capacity	58	ABS	0	0	2	1	24_2_1	NA	NA	0	1	8.41372299194	None	None	None	None	1
3.0.1	2019_Mar_02_1529	s	s	1	1	Capacity	59	ABS	0	0	2	1	24_2_1	NA	NA	0	1	4.77473187447	None	None	None	None	1
3.0.1	2019_Mar_02_1529	s	s	1	1	Capacity	60	4_1	4	1	2	1	23_2_1	2	0	1	0	0.458010911942	-36.0	-94.0	-27.0	-94.0	1
3.0.1	2019_Mar_02_1529	s	s	1	1	Capacity	61	2_1	2	1	4	1	23_4_1	2	0	1	0	0.511049032211	-106.0	-304.0	-106.0	-303.0	1
3.0.1	2019_Mar_02_1529	s	s	1	1	Capacity	62	1_1	1	1	4	1	23_4_1	3	0	1	0	0.669683933258	261.0	318.0	265.0	323.0	1
3.0.1	2019_Mar_02_1529	s	s	1	1	Capacity	63	3_1	3	1	4	1	23_4_1	-1	0	1	0	0.486044168472	-210.0	124.0	-203.0	122.0	1
3.0.1	2019_Mar_02_1529	s	s	1	1	Capacity	64	ABS	0	0	1	1	24_1_1	NA	NA	0	1	3.43643593788	None	None	None	None	1
3.0.1	2019_Mar_02_1529	s	s	1	1	Capacity	65	ABS	0	0	3	1	24_3_1	NA	NA	0	1	2.4422659874	None	None	None	None	1
3.0.1	2019_Mar_02_1529	s	s	1	1	Capacity	66	ABS	0	0	2	1	24_2_1	NA	NA	0	1	6.6628651619	None	None	None	None	1
3.0.1	2019_Mar_02_1529	s	s	1	1	Capacity	67	1_1	1	1	2	1	23_2_1	1	0	0	1	7.46765518188	391.0	-110.0	None	None	0
3.0.1	2019_Mar_02_1529	s	s	1	1	Capacity	68	2_1	2	1	1	1	23_1_1	-1	0	1	0	2.44609808922	-530.0	-277.0	-536.0	-283.0	1
3.0.1	2019_Mar_02_1529	s	s	1	1	Capacity	69	ABS	0	0	1	1	24_1_1	NA	NA	0	1	5.96523118019	None	None	None	None	1
3.0.1	2019_Mar_02_1529	s	s	1	1	Capacity	70	2_1	2	1	3	1	23_3_1	1	0	1	0	0.790264129639	-370.0	336.0	-373.0	340.0	1
3.0.1	2019_Mar_02_1529	s	s	1	1	Capacity	71	ABS	0	0	4	1	24_4_1	NA	NA	0	1	1.22240710258	None	None	None	None	1
3.0.1	2019_Mar_02_1529	s	s	1	1	Capacity	72	ABS	0	0	3	1	24_3_1	NA	NA	0	1	0.827566146851	None	None	None	None	1
3.0.1	2019_Mar_02_1529	s	s	1	1	Capacity	73	4_1	4	1	2	1	23_2_1	2	0	1	0	0.510562181473	281.0	-180.0	282.0	-173.0	1
3.0.1	2019_Mar_02_1529	s	s	1	1	Capacity	74	3_1	3	1	4	1	23_4_1	-1	0	1	0	0.587350845337	246.0	359.0	246.0	351.0	1
3.0.1	2019_Mar_02_1529	s	s	1	1	Capacity	75	2_1	2	1	4	1	23_4_1	2	0	1	0	0.521772861481	-213.0	362.0	-216.0	361.0	1
3.0.1	2019_Mar_02_1529	s	s	1	1	Capacity	76	3_1	3	1	2	1	23_2_1	1	0	1	0	0.56045794487	-293.0	16.0	-282.0	16.0	1
3.0.1	2019_Mar_02_1529	s	s	1	1	Capacity	77	4_1	4	1	1	1	23_1_1	3	0	1	0	0.422683000565	-166.0	-87.0	-160.0	-93.0	1
3.0.1	2019_Mar_02_1529	s	s	1	1	Capacity	78	ABS	0	0	1	1	24_1_1	NA	NA	0	1	4.518460989	None	None	None	None	1
3.0.1	2019_Mar_02_1529	s	s	1	1	Capacity	79	1_1	1	1	3	1	23_3_1	2	0	1	0	0.555022001266	-161.0	-261.0	-151.0	-254.0	1
3.0.1	2019_Mar_02_1529	s	s	1	1	Capacity	80	ABS	0	0	3	1	24_3_1	NA	NA	0	1	2.42210197449	None	None	None	None	1
3.0.1	2019_Mar_02_1529	s	s	1	1	Capacity	81	ABS	0	0	1	1	24_1_1	NA	NA	0	1	4.4450469017	None	None	None	None	1
3.0.1	2019_Mar_02_1529	s	s	1	1	Capacity	82	ABS	0	0	3	1	24_3_1	NA	NA	0	1	1.26065707207	None	None	None	None	1
3.0.1	2019_Mar_02_1529	s	s	1	1	Capacity	83	ABS	0	0	4	1	24_4_1	NA	NA	0	1	0.913186073303	None	None	None	None	1
3.0.1	2019_Mar_02_1529	s	s	1	1	Capacity	84	1_1	1	1	4	1	23_4_1	3	0	1	0	0.613827943802	-476.0	-198.0	-472.0	-201.0	1
3.0.1	2019_Mar_02_1529	s	s	1	1	Capacity	85	1_1	1	1	2	1	23_2_1	1	0	0	1	2.67388391495	57.0	-396.0	None	None	0
3.0.1	2019_Mar_02_1529	s	s	1	1	Capacity	86	3_1	3	1	1	1	23_1_1	2	0	1	0	0.752434015274	17.0	-215.0	14.0	-206.0	1
3.0.1	2019_Mar_02_1529	s	s	1	1	Capacity	87	ABS	0	0	2	1	24_2_1	NA	NA	0	1	7.22062206268	None	None	None	None	1
3.0.1	2019_Mar_02_1529	s	s	1	1	Capacity	88	2_1	2	1	3	1	23_3_1	1	0	1	0	0.587344884872	17.0	182.0	19.0	181.0	1
3.0.1	2019_Mar_02_1529	s	s	1	1	Capacity	89	ABS	0	0	2	1	24_2_1	NA	NA	0	1	6.50712299347	None	None	None	None	1
3.0.1	2019_Mar_02_1529	s	s	1	1	Capacity	90	2_1	2	1	1	1	23_1_1	-1	0	1	0	2.80422902107	-372.0	-187.0	-378.0	-185.0	1
3.0.1	2019_Mar_02_1529	s	s	1	1	Capacity	91	ABS	0	0	2	1	24_2_1	NA	NA	0	1	6.54322290421	None	None	None	None	1
3.0.1	2019_Mar_02_1529	s	s	1	1	Capacity	92	ABS	0	0	1	1	24_1_1	NA	NA	0	1	2.49270200729	None	None	None	None	1
3.0.1	2019_Mar_02_1529	s	s	1	1	Capacity	93	ABS	0	0	3	1	24_3_1	NA	NA	0	1	0.999001026154	None	None	None	None	1
3.0.1	2019_Mar_02_1529	s	s	1	1	Capacity	94	4_1	4	1	3	1	23_3_1	1	0	1	0	0.533361911774	443.0	-269.0	449.0	-268.0	1
3.0.1	2019_Mar_02_1529	s	s	1	1	Capacity	95	ABS	0	0	4	1	24_4_1	NA	NA	0	1	1.29297804832	None	None	None	None	1
3.0.1	2019_Mar_02_1529	s	s	1	1	Capacity	96	ABS	0	0	4	1	24_4_1	NA	NA	0	1	0.914890050888	None	None	None	None	1
3.0.1	2019_Mar_02_1529	s	s	1	1	SIC	1	ABS	0	0	2	3	24_2_3	NA	NA	0	1	9.53097987175	None	None	None	None	1
3.0.1	2019_Mar_02_1529	s	s	1	1	SIC	2	4_2	4	2	1	1	23_1_1	3	-1	1	0	0.613783121109	-283.0	-82.0	-277.0	-80.0	1
3.0.1	2019_Mar_02_1529	s	s	1	1	SIC	3	3_3	3	3	4	1	23_4_1	-1	2	1	0	0.567281007767	-138.0	-197.0	-139.0	-198.0	1
3.0.1	2019_Mar_02_1529	s	s	1	1	SIC	4	3_3	3	3	3	2	23_3_2	0	1	1	0	3.13671183586	-307.0	51.0	-304.0	56.0	1
3.0.1	2019_Mar_02_1529	s	s	1	1	SIC	5	ABS	0	0	2	2	24_2_2	NA	NA	0	1	6.19030284882	None	None	None	None	1
3.0.1	2019_Mar_02_1529	s	s	1	1	SIC	6	ABS	0	0	2	2	24_2_2	NA	NA	0	1	7.76646184921	None	None	None	None	1
3.0.1	2019_Mar_02_1529	s	s	1	1	SIC	7	ABS	0	0	1	4	24_1_4	NA	NA	0	1	2.71625113487	None	None	None	None	1
3.0.1	2019_Mar_02_1529	s	s	1	1	SIC	8	ABS	0	0	4	2	24_4_2	NA	NA	0	1	10.0433778763	None	None	None	None	1
3.0.1	2019_Mar_02_1529	s	s	1	1	SIC	9	3_4	3	4	2	2	23_2_2	1	2	1	0	0.660844087601	150.0	25.0	151.0	25.0	1
3.0.1	2019_Mar_02_1529	s	s	1	1	SIC	10	ABS	0	0	2	4	24_2_4	NA	NA	0	1	2.95783305168	None	None	None	None	1
3.0.1	2019_Mar_02_1529	s	s	1	1	SIC	11	3_1	3	1	1	3	23_1_3	2	2	1	0	0.576086997986	14.0	-185.0	17.0	-181.0	1
3.0.1	2019_Mar_02_1529	s	s	1	1	SIC	12	ABS	0	0	4	2	24_4_2	NA	NA	0	1	8.94954299927	None	None	None	None	1
3.0.1	2019_Mar_02_1529	s	s	1	1	SIC	13	4_4	4	4	4	3	23_4_3	0	1	1	0	0.681529998779	-407.0	71.0	-398.0	67.0	1
3.0.1	2019_Mar_02_1529	s	s	1	1	SIC	14	ABS	0	0	3	2	24_3_2	NA	NA	0	1	8.69089794159	None	None	None	None	1
3.0.1	2019_Mar_02_1529	s	s	1	1	SIC	15	ABS	0	0	4	4	24_4_4	NA	NA	0	1	2.78321003914	None	None	None	None	1
3.0.1	2019_Mar_02_1529	s	s	1	1	SIC	16	1_2	1	2	2	1	23_2_1	1	-1	1	0	1.02540588379	-348.0	99.0	-348.0	102.0	1
3.0.1	2019_Mar_02_1529	s	s	1	1	SIC	17	1_1	1	1	2	1	23_2_1	1	0	1	0	3.05729818344	12.0	-188.0	13.0	-185.0	1
3.0.1	2019_Mar_02_1529	s	s	1	1	SIC	18	ABS	0	0	2	2	24_2_2	NA	NA	0	1	7.78513908386	None	None	None	None	1
3.0.1	2019_Mar_02_1529	s	s	1	1	SIC	19	ABS	0	0	1	1	24_1_1	NA	NA	0	1	6.05641198158	None	None	None	None	1
3.0.1	2019_Mar_02_1529	s	s	1	1	SIC	20	ABS	0	0	3	4	24_3_4	NA	NA	0	1	2.55941295624	None	None	None	None	1
3.0.1	2019_Mar_02_1529	s	s	1	1	SIC	21	2_2	2	2	2	4	23_2_4	0	2	1	0	0.587408065796	-116.0	-39.0	-110.0	-35.0	1
3.0.1	2019_Mar_02_1529	s	s	1	1	SIC	22	2_3	2	3	1	4	23_1_4	-1	-1	1	0	0.740345001221	-134.0	270.0	-129.0	267.0	1
3.0.1	2019_Mar_02_1529	s	s	1	1	SIC	23	1_4	1	4	4	3	23_4_3	3	1	1	0	0.628674983978	362.0	369.0	368.0	370.0	1
3.0.1	2019_Mar_02_1529	s	s	1	1	SIC	24	4_4	4	4	3	1	23_3_1	1	3	1	0	0.554973125458	-326.0	145.0	-329.0	141.0	1
3.0.1	2019_Mar_02_1529	s	s	1	1	SIC	25	3_2	3	2	1	3	23_1_3	2	1	1	0	0.517266988754	-163.0	115.0	-161.0	117.0	1
3.0.1	2019_Mar_02_1529	s	s	1	1	SIC	26	4_1	4	1	4	2	23_4_2	0	1	1	0	1.44355392456	79.0	48.0	80.0	44.0	1
3.0.1	2019_Mar_02_1529	s	s	1	1	SIC	27	ABS	0	0	1	4	24_1_4	NA	NA	0	1	6.18862104416	None	None	None	None	1
3.0.1	2019_Mar_02_1529	s	s	1	1	SIC	28	4_4	4	4	4	2	23_4_2	0	2	1	0	1.17541193962	468.0	217.0	474.0	215.0	1
3.0.1	2019_Mar_02_1529	s	s	1	1	SIC	29	2_4	2	4	1	4	23_1_4	-1	0	0	1	3.38396191597	288.0	168.0	None	None	0
3.0.1	2019_Mar_02_1529	s	s	1	1	SIC	30	4_1	4	1	4	3	23_4_3	0	2	1	0	1.95459604263	432.0	409.0	438.0	406.0	1
3.0.1	2019_Mar_02_1529	s	s	1	1	SIC	31	ABS	0	0	2	2	24_2_2	NA	NA	0	1	8.06160211563	None	None	None	None	1
3.0.1	2019_Mar_02_1529	s	s	1	1	SIC	32	ABS	0	0	2	4	24_2_4	NA	NA	0	1	2.67489385605	None	None	None	None	1
3.0.1	2019_Mar_02_1529	s	s	1	1	SIC	33	1_2	1	2	4	3	23_4_3	3	1	1	0	0.545263051987	-435.0	390.0	-443.0	389.0	1
3.0.1	2019_Mar_02_1529	s	s	1	1	SIC	34	1_2	1	2	2	2	23_2_2	1	0	0	1	9.00840878487	-354.0	-255.0	None	None	0
3.0.1	2019_Mar_02_1529	s	s	1	1	SIC	35	ABS	0	0	4	1	24_4_1	NA	NA	0	1	2.76324796677	None	None	None	None	1
3.0.1	2019_Mar_02_1529	s	s	1	1	SIC	36	ABS	0	0	4	1	24_4_1	NA	NA	0	1	3.83353495598	None	None	None	None	1
3.0.1	2019_Mar_02_1529	s	s	1	1	SIC	37	3_2	3	2	4	1	23_4_1	-1	-1	1	0	0.664655923843	-143.0	10.0	-141.0	16.0	1
3.0.1	2019_Mar_02_1529	s	s	1	1	SIC	38	ABS	0	0	3	2	24_3_2	NA	NA	0	1	6.4679350853	None	None	None	None	1
3.0.1	2019_Mar_02_1529	s	s	1	1	SIC	39	1_3	1	3	1	1	23_1_1	0	2	1	0	1.55468297005	21.0	-265.0	21.0	-266.0	1
3.0.1	2019_Mar_02_1529	s	s	1	1	SIC	40	3_3	3	3	3	1	23_3_1	0	2	1	0	1.14928507805	-233.0	-378.0	-240.0	-380.0	1
3.0.1	2019_Mar_02_1529	s	s	1	1	SIC	41	ABS	0	0	1	1	24_1_1	NA	NA	0	1	3.02202391624	None	None	None	None	1
3.0.1	2019_Mar_02_1529	s	s	1	1	SIC	42	ABS	0	0	3	1	24_3_1	NA	NA	0	1	2.14275288582	None	None	None	None	1
3.0.1	2019_Mar_02_1529	s	s	1	1	SIC	43	4_3	4	3	3	3	23_3_3	1	0	1	0	0.740254878998	479.0	236.0	475.0	231.0	1
3.0.1	2019_Mar_02_1529	s	s	1	1	SIC	44	2_4	2	4	4	4	23_4_4	2	0	1	0	0.563921928406	-349.0	65.0	-347.0	64.0	1
3.0.1	2019_Mar_02_1529	s	s	1	1	SIC	45	4_4	4	4	3	3	23_3_3	1	1	1	0	0.634445905685	467.0	-275.0	460.0	-272.0	1
3.0.1	2019_Mar_02_1529	s	s	1	1	SIC	46	ABS	0	0	1	1	24_1_1	NA	NA	0	1	3.46064209938	None	None	None	None	1
3.0.1	2019_Mar_02_1529	s	s	1	1	SIC	47	ABS	0	0	1	3	24_1_3	NA	NA	0	1	6.60912489891	None	None	None	None	1
3.0.1	2019_Mar_02_1529	s	s	1	1	SIC	48	ABS	0	0	2	1	24_2_1	NA	NA	0	1	4.12747907639	None	None	None	None	1
3.0.1	2019_Mar_02_1529	s	s	1	1	SIC	49	3_1	3	1	4	2	23_4_2	-1	1	1	0	0.611348867416	320.0	21.0	312.0	20.0	1
3.0.1	2019_Mar_02_1529	s	s	1	1	SIC	50	3_2	3	2	2	3	23_2_3	1	1	1	0	0.696163892746	389.0	41.0	388.0	34.0	1
3.0.1	2019_Mar_02_1529	s	s	1	1	SIC	51	1_3	1	3	1	2	23_1_2	0	1	1	0	4.09211111069	-241.0	-202.0	-244.0	-202.0	1
3.0.1	2019_Mar_02_1529	s	s	1	1	SIC	52	ABS	0	0	2	1	24_2_1	NA	NA	0	1	5.10364603996	None	None	None	None	1
3.0.1	2019_Mar_02_1529	s	s	1	1	SIC	53	4_4	4	4	2	4	23_2_4	2	0	1	0	0.545650959015	-436.0	278.0	-432.0	272.0	1
3.0.1	2019_Mar_02_1529	s	s	1	1	SIC	54	ABS	0	0	4	3	24_4_3	NA	NA	0	1	11.1988430023	None	None	None	None	1
3.0.1	2019_Mar_02_1529	s	s	1	1	SIC	55	ABS	0	0	1	2	24_1_2	NA	NA	0	1	7.10763597488	None	None	None	None	1
3.0.1	2019_Mar_02_1529	s	s	1	1	SIC	56	ABS	0	0	2	3	24_2_3	NA	NA	0	1	5.37932014465	None	None	None	None	1
3.0.1	2019_Mar_02_1529	s	s	1	1	SIC	57	2_2	2	2	1	2	23_1_2	-1	0	1	0	2.6573908329	186.0	108.0	186.0	106.0	1
3.0.1	2019_Mar_02_1529	s	s	1	1	SIC	58	ABS	0	0	4	1	24_4_1	NA	NA	0	1	3.33950304985	None	None	None	None	1
3.0.1	2019_Mar_02_1529	s	s	1	1	SIC	59	ABS	0	0	2	4	24_2_4	NA	NA	0	1	3.59303188324	None	None	None	None	1
3.0.1	2019_Mar_02_1529	s	s	1	1	SIC	60	3_2	3	2	2	1	23_2_1	1	-1	1	0	0.801938056946	-20.0	-103.0	-17.0	-111.0	1
3.0.1	2019_Mar_02_1529	s	s	1	1	SIC	61	2_3	2	3	3	2	23_3_2	1	1	1	0	0.637375831604	-356.0	126.0	-350.0	125.0	1
3.0.1	2019_Mar_02_1529	s	s	1	1	SIC	62	ABS	0	0	4	4	24_4_4	NA	NA	0	1	1.68674683571	None	None	None	None	1
3.0.1	2019_Mar_02_1529	s	s	1	1	SIC	63	ABS	0	0	3	4	24_3_4	NA	NA	0	1	1.94490599632	None	None	None	None	1
3.0.1	2019_Mar_02_1529	s	s	1	1	SIC	64	ABS	0	0	1	1	24_1_1	NA	NA	0	1	4.53268384933	None	None	None	None	1
3.0.1	2019_Mar_02_1529	s	s	1	1	SIC	65	3_2	3	2	4	4	23_4_4	-1	2	1	0	0.917107820511	421.0	-238.0	426.0	-236.0	1
3.0.1	2019_Mar_02_1529	s	s	1	1	SIC	66	ABS	0	0	2	4	24_2_4	NA	NA	0	1	1.83411216736	None	None	None	None	1
3.0.1	2019_Mar_02_1529	s	s	1	1	SIC	67	ABS	0	0	4	3	24_4_3	NA	NA	0	1	4.98606610298	None	None	None	None	1
3.0.1	2019_Mar_02_1529	s	s	1	1	SIC	68	ABS	0	0	3	3	24_3_3	NA	NA	0	1	6.63249993324	None	None	None	None	1
3.0.1	2019_Mar_02_1529	s	s	1	1	SIC	69	1_3	1	3	3	3	23_3_3	2	0	1	0	0.49335193634	-454.0	68.0	-454.0	64.0	1
3.0.1	2019_Mar_02_1529	s	s	1	1	SIC	70	2_4	2	4	3	1	23_3_1	1	3	1	0	0.775563955307	-328.0	89.0	-324.0	92.0	1
3.0.1	2019_Mar_02_1529	s	s	1	1	SIC	71	ABS	0	0	2	3	24_2_3	NA	NA	1	0	8.03630614281	None	None	-141.0	146.0	0
3.0.1	2019_Mar_02_1529	s	s	1	1	SIC	72	ABS	0	0	1	1	24_1_1	NA	NA	0	1	5.02529597282	None	None	None	None	1
3.0.1	2019_Mar_02_1529	s	s	1	1	SIC	73	ABS	0	0	2	3	24_2_3	NA	NA	0	1	5.3977329731	None	None	None	None	1
3.0.1	2019_Mar_02_1529	s	s	1	1	SIC	74	3_4	3	4	2	3	23_2_3	1	1	1	0	0.745100021362	277.0	262.0	275.0	254.0	1
3.0.1	2019_Mar_02_1529	s	s	1	1	SIC	75	2_1	2	1	3	2	23_3_2	1	1	1	0	0.540358066559	-360.0	-49.0	-363.0	-52.0	1
3.0.1	2019_Mar_02_1529	s	s	1	1	SIC	76	ABS	0	0	2	3	24_2_3	NA	NA	0	1	6.03282999992	None	None	None	None	1
3.0.1	2019_Mar_02_1529	s	s	1	1	SIC	77	ABS	0	0	1	2	24_1_2	NA	NA	0	1	6.86788105965	None	None	None	None	1
3.0.1	2019_Mar_02_1529	s	s	1	1	SIC	78	ABS	0	0	2	4	24_2_4	NA	NA	0	1	3.16302204132	None	None	None	None	1
3.0.1	2019_Mar_02_1529	s	s	1	1	SIC	79	2_4	2	4	2	2	23_2_2	0	2	1	0	1.05788707733	422.0	-113.0	425.0	-113.0	1
3.0.1	2019_Mar_02_1529	s	s	1	1	SIC	80	ABS	0	0	1	3	24_1_3	NA	NA	0	1	7.10313296318	None	None	None	None	1
3.0.1	2019_Mar_02_1529	s	s	1	1	SIC	81	3_3	3	3	4	2	23_4_2	-1	1	1	0	0.540386915207	415.0	13.0	411.0	9.0	1
3.0.1	2019_Mar_02_1529	s	s	1	1	SIC	82	3_3	3	3	4	3	23_4_3	-1	0	1	0	0.616354942322	-442.0	-327.0	-442.0	-333.0	1
3.0.1	2019_Mar_02_1529	s	s	1	1	SIC	83	ABS	0	0	4	2	24_4_2	NA	NA	0	1	1.70468902588	None	None	None	None	1
3.0.1	2019_Mar_02_1529	s	s	1	1	SIC	84	1_2	1	2	1	3	23_1_3	0	1	0	1	6.7619869709	437.0	-189.0	None	None	0
3.0.1	2019_Mar_02_1529	s	s	1	1	SIC	85	2_4	2	4	3	4	23_3_4	1	0	1	0	1.57810091972	345.0	232.0	344.0	228.0	1
3.0.1	2019_Mar_02_1529	s	s	1	1	SIC	86	1_2	1	2	4	2	23_4_2	3	0	1	0	0.501219034195	71.0	-47.0	70.0	-48.0	1
3.0.1	2019_Mar_02_1529	s	s	1	1	SIC	87	1_3	1	3	4	1	23_4_1	3	2	1	0	0.634346961975	446.0	370.0	442.0	366.0	1
3.0.1	2019_Mar_02_1529	s	s	1	1	SIC	88	1_3	1	3	1	4	23_1_4	0	-1	1	0	1.8692920208	-40.0	170.0	-32.0	174.0	1
3.0.1	2019_Mar_02_1529	s	s	1	1	SIC	89	2_1	2	1	4	3	23_4_3	2	2	1	0	0.510933160782	-6.0	112.0	-1.0	117.0	1
3.0.1	2019_Mar_02_1529	s	s	1	1	SIC	90	ABS	0	0	1	3	24_1_3	NA	NA	0	1	6.01640200615	None	None	None	None	1
3.0.1	2019_Mar_02_1529	s	s	1	1	SIC	91	ABS	0	0	4	3	24_4_3	NA	NA	0	1	1.45766687393	None	None	None	None	1
3.0.1	2019_Mar_02_1529	s	s	1	1	SIC	92	4_3	4	3	1	4	23_1_4	3	-1	1	0	0.516839981079	-19.0	198.0	-17.0	193.0	1
3.0.1	2019_Mar_02_1529	s	s	1	1	SIC	93	ABS	0	0	3	3	24_3_3	NA	NA	0	1	3.98072314262	None	None	None	None	1
3.0.1	2019_Mar_02_1529	s	s	1	1	SIC	94	1_2	1	2	3	4	23_3_4	2	2	1	0	0.543295860291	-36.0	-323.0	-34.0	-325.0	1
3.0.1	2019_Mar_02_1529	s	s	1	1	SIC	95	1_4	1	4	2	1	23_2_1	1	3	1	0	2.4955739975	-422.0	129.0	-426.0	126.0	1
3.0.1	2019_Mar_02_1529	s	s	1	1	SIC	96	ABS	0	0	1	1	24_1_1	NA	NA	0	1	4.05699896812	None	None	None	None	1
3.0.1	2019_Mar_02_1529	s	s	1	1	SIC	97	3_2	3	2	4	3	23_4_3	-1	1	1	0	0.599213123322	-190.0	-105.0	-195.0	-102.0	1
3.0.1	2019_Mar_02_1529	s	s	1	1	SIC	98	ABS	0	0	1	4	24_1_4	NA	NA	0	1	2.53974795341	None	None	None	None	1
3.0.1	2019_Mar_02_1529	s	s	1	1	SIC	99	4_4	4	4	1	1	23_1_1	3	3	1	0	0.458068847656	-502.0	-35.0	-494.0	-34.0	1
3.0.1	2019_Mar_02_1529	s	s	1	1	SIC	100	ABS	0	0	2	2	24_2_2	NA	NA	0	1	6.11510682106	None	None	None	None	1
3.0.1	2019_Mar_02_1529	s	s	1	1	SIC	101	ABS	0	0	1	1	24_1_1	NA	NA	0	1	4.20095014572	None	None	None	None	1
3.0.1	2019_Mar_02_1529	s	s	1	1	SIC	102	ABS	0	0	2	4	24_2_4	NA	NA	0	1	4.19162392616	None	None	None	None	1
3.0.1	2019_Mar_02_1529	s	s	1	1	SIC	103	ABS	0	0	1	2	24_1_2	NA	NA	0	1	6.46119308472	None	None	None	None	1
3.0.1	2019_Mar_02_1529	s	s	1	1	SIC	104	ABS	0	0	1	3	24_1_3	NA	NA	0	1	5.87280797958	None	None	None	None	1
3.0.1	2019_Mar_02_1529	s	s	1	1	SIC	105	1_2	1	2	3	3	23_3_3	2	1	1	0	0.987370967865	-291.0	-368.0	-284.0	-365.0	1
3.0.1	2019_Mar_02_1529	s	s	1	1	SIC	106	ABS	0	0	3	3	24_3_3	NA	NA	0	1	5.55678701401	None	None	None	None	1
3.0.1	2019_Mar_02_1529	s	s	1	1	SIC	107	ABS	0	0	3	2	24_3_2	NA	NA	0	1	6.62087917328	None	None	None	None	1
3.0.1	2019_Mar_02_1529	s	s	1	1	SIC	108	ABS	0	0	2	1	24_2_1	NA	NA	0	1	3.76778006554	None	None	None	None	1
3.0.1	2019_Mar_02_1529	s	s	1	1	SIC	109	ABS	0	0	3	2	24_3_2	NA	NA	0	1	2.8853969574	None	None	None	None	1
3.0.1	2019_Mar_02_1529	s	s	1	1	SIC	110	4_1	4	1	2	1	23_2_1	2	0	1	0	0.434520959854	389.0	145.0	392.0	144.0	1
3.0.1	2019_Mar_02_1529	s	s	1	1	SIC	111	3_2	3	2	2	2	23_2_2	1	0	1	0	0.613816022873	194.0	-42.0	198.0	-43.0	1
3.0.1	2019_Mar_02_1529	s	s	1	1	SIC	112	4_3	4	3	1	2	23_1_2	3	1	1	0	0.422761201859	421.0	181.0	427.0	181.0	1
3.0.1	2019_Mar_02_1529	s	s	1	1	SIC	113	ABS	0	0	2	3	24_2_3	NA	NA	0	1	5.28012895584	None	None	None	None	1
3.0.1	2019_Mar_02_1529	s	s	1	1	SIC	114	ABS	0	0	3	2	24_3_2	NA	NA	0	1	1.48418712616	None	None	None	None	1
3.0.1	2019_Mar_02_1529	s	s	1	1	SIC	115	ABS	0	0	1	3	24_1_3	NA	NA	0	1	6.79720807076	None	None	None	None	1
3.0.1	2019_Mar_02_1529	s	s	1	1	SIC	116	ABS	0	0	1	2	24_1_2	NA	NA	0	1	5.2595281601	None	None	None	None	1
3.0.1	2019_Mar_02_1529	s	s	1	1	SIC	117	2_2	2	2	1	4	23_1_4	-1	2	1	0	0.602024078369	-237.0	322.0	-235.0	314.0	1
3.0.1	2019_Mar_02_1529	s	s	1	1	SIC	118	2_2	2	2	3	3	23_3_3	1	1	1	0	0.77888417244	-357.0	-253.0	-359.0	-254.0	1
3.0.1	2019_Mar_02_1529	s	s	1	1	SIC	119	2_3	2	3	3	4	23_3_4	1	-1	1	0	0.545960903168	424.0	88.0	431.0	88.0	1
3.0.1	2019_Mar_02_1529	s	s	1	1	SIC	120	ABS	0	0	3	1	24_3_1	NA	NA	0	1	2.06932997704	None	None	None	None	1
3.0.1	2019_Mar_02_1529	s	s	1	1	SIC	121	ABS	0	0	3	4	24_3_4	NA	NA	0	1	2.5985660553	None	None	None	None	1
3.0.1	2019_Mar_02_1529	s	s	1	1	SIC	122	ABS	0	0	2	2	24_2_2	NA	NA	0	1	6.17388415337	None	None	None	None	1
3.0.1	2019_Mar_02_1529	s	s	1	1	SIC	123	ABS	0	0	4	3	24_4_3	NA	NA	0	1	2.53978705406	None	None	None	None	1
3.0.1	2019_Mar_02_1529	s	s	1	1	SIC	124	4_1	4	1	3	1	23_3_1	1	0	1	0	0.45799612999	-335.0	-73.0	-321.0	-66.0	1
3.0.1	2019_Mar_02_1529	s	s	1	1	SIC	125	4_4	4	4	4	1	23_4_1	0	3	1	0	0.849050998688	-81.0	87.0	-73.0	87.0	1
3.0.1	2019_Mar_02_1529	s	s	1	1	SIC	126	3_2	3	2	3	3	23_3_3	0	1	0	1	2.49656200409	-224.0	-95.0	None	None	0
3.0.1	2019_Mar_02_1529	s	s	1	1	SIC	127	ABS	0	0	3	2	24_3_2	NA	NA	0	1	3.15129494667	None	None	None	None	1
3.0.1	2019_Mar_02_1529	s	s	1	1	SIC	128	4_3	4	3	1	3	23_1_3	3	0	1	0	0.469800949097	-493.0	-389.0	-491.0	-390.0	1
3.0.1	2019_Mar_02_1529	s	s	1	1	SIC	129	ABS	0	0	4	3	24_4_3	NA	NA	0	1	3.87266492844	None	None	None	None	1
3.0.1	2019_Mar_02_1529	s	s	1	1	SIC	130	1_4	1	4	3	3	23_3_3	2	1	1	0	0.481621980667	263.0	-103.0	260.0	-104.0	1
3.0.1	2019_Mar_02_1529	s	s	1	1	SIC	131	4_3	4	3	4	2	23_4_2	0	1	0	1	3.04545712471	420.0	103.0	None	None	0
3.0.1	2019_Mar_02_1529	s	s	1	1	SIC	132	4_1	4	1	2	2	23_2_2	2	1	1	0	0.469827890396	219.0	129.0	219.0	130.0	1
3.0.1	2019_Mar_02_1529	s	s	1	1	SIC	133	ABS	0	0	4	4	24_4_4	NA	NA	0	1	1.66975688934	None	None	None	None	1
3.0.1	2019_Mar_02_1529	s	s	1	1	SIC	134	ABS	0	0	3	4	24_3_4	NA	NA	0	1	1.70504903793	None	None	None	None	1
3.0.1	2019_Mar_02_1529	s	s	1	1	SIC	135	2_1	2	1	2	2	23_2_2	0	1	1	0	3.49526500702	-318.0	112.0	-315.0	114.0	1
3.0.1	2019_Mar_02_1529	s	s	1	1	SIC	136	ABS	0	0	1	3	24_1_3	NA	NA	0	1	6.77857112885	None	None	None	None	1
3.0.1	2019_Mar_02_1529	s	s	1	1	SIC	137	1_1	1	1	1	3	23_1_3	0	2	1	0	0.932863950729	232.0	-38.0	234.0	-40.0	1
3.0.1	2019_Mar_02_1529	s	s	1	1	SIC	138	ABS	0	0	2	1	24_2_1	NA	NA	0	1	4.56561207771	None	None	None	None	1
3.0.1	2019_Mar_02_1529	s	s	1	1	SIC	139	ABS	0	0	2	4	24_2_4	NA	NA	0	1	5.56232690811	None	None	None	None	1
3.0.1	2019_Mar_02_1529	s	s	1	1	SIC	140	1_1	1	1	3	3	23_3_3	2	2	1	0	0.566702842712	-427.0	24.0	-426.0	28.0	1
3.0.1	2019_Mar_02_1529	s	s	1	1	SIC	141	4_2	4	2	1	2	23_1_2	3	0	1	0	0.651362895966	175.0	-231.0	179.0	-234.0	1
3.0.1	2019_Mar_02_1529	s	s	1	1	SIC	142	4_3	4	3	2	3	23_2_3	2	0	1	0	0.451398849487	-305.0	222.0	-303.0	224.0	1
3.0.1	2019_Mar_02_1529	s	s	1	1	SIC	143	4_1	4	1	3	2	23_3_2	1	1	1	0	0.533436059952	297.0	-132.0	300.0	-129.0	1
3.0.1	2019_Mar_02_1529	s	s	1	1	SIC	144	3_3	3	3	2	3	23_2_3	1	0	1	0	0.740258932114	399.0	-20.0	401.0	-25.0	1
3.0.1	2019_Mar_02_1529	s	s	1	1	SIC	145	1_4	1	4	1	1	23_1_1	0	3	1	0	0.752001047134	153.0	-350.0	157.0	-344.0	1
3.0.1	2019_Mar_02_1529	s	s	1	1	SIC	146	ABS	0	0	1	2	24_1_2	NA	NA	0	1	4.86195707321	None	None	None	None	1
3.0.1	2019_Mar_02_1529	s	s	1	1	SIC	147	1_3	1	3	3	1	23_3_1	2	2	1	0	0.767476081848	489.0	-353.0	493.0	-357.0	1
3.0.1	2019_Mar_02_1529	s	s	1	1	SIC	148	4_3	4	3	3	4	23_3_4	1	-1	1	0	0.540327072144	411.0	189.0	411.0	191.0	1
3.0.1	2019_Mar_02_1529	s	s	1	1	SIC	149	ABS	0	0	4	4	24_4_4	NA	NA	0	1	3.81009602547	None	None	None	None	1
3.0.1	2019_Mar_02_1529	s	s	1	1	SIC	150	1_2	1	2	4	1	23_4_1	3	-1	1	0	0.444053888321	289.0	134.0	292.0	144.0	1
3.0.1	2019_Mar_02_1529	s	s	1	1	SIC	151	ABS	0	0	2	2	24_2_2	NA	NA	0	1	4.46858096123	None	None	None	None	1
3.0.1	2019_Mar_02_1529	s	s	1	1	SIC	152	ABS	0	0	4	4	24_4_4	NA	NA	0	1	1.6732840538	None	None	None	None	1
3.0.1	2019_Mar_02_1529	s	s	1	1	SIC	153	ABS	0	0	2	1	24_2_1	NA	NA	0	1	3.16305303574	None	None	None	None	1
3.0.1	2019_Mar_02_1529	s	s	1	1	SIC	154	3_1	3	1	4	3	23_4_3	-1	2	1	0	0.481587171555	-216.0	-407.0	-208.0	-404.0	1
3.0.1	2019_Mar_02_1529	s	s	1	1	SIC	155	ABS	0	0	3	2	24_3_2	NA	NA	0	1	2.40557694435	None	None	None	None	1
3.0.1	2019_Mar_02_1529	s	s	1	1	SIC	156	4_1	4	1	2	3	23_2_3	2	2	1	0	0.473786115646	301.0	-266.0	301.0	-260.0	1
3.0.1	2019_Mar_02_1529	s	s	1	1	SIC	157	ABS	0	0	1	3	24_1_3	NA	NA	0	1	5.49468994141	None	None	None	None	1
3.0.1	2019_Mar_02_1529	s	s	1	1	SIC	158	2_4	2	4	4	3	23_4_3	2	1	1	0	0.511705875397	-532.0	-405.0	-533.0	-409.0	1
3.0.1	2019_Mar_02_1529	s	s	1	1	SIC	159	1_1	1	1	2	2	23_2_2	1	1	1	0	0.881357192993	-350.0	-357.0	-344.0	-354.0	1
3.0.1	2019_Mar_02_1529	s	s	1	1	SIC	160	3_3	3	3	4	4	23_4_4	-1	-1	1	0	0.650444984436	-172.0	-197.0	-173.0	-190.0	1
3.0.1	2019_Mar_02_1529	s	s	1	1	SIC	161	2_1	2	1	3	1	23_3_1	1	0	1	0	0.828325986862	411.0	-50.0	401.0	-52.0	1
3.0.1	2019_Mar_02_1529	s	s	1	1	SIC	162	4_1	4	1	3	3	23_3_3	1	2	1	0	0.78072309494	456.0	147.0	455.0	137.0	1
3.0.1	2019_Mar_02_1529	s	s	1	1	SIC	163	ABS	0	0	4	4	24_4_4	NA	NA	0	1	1.26065587997	None	None	None	None	1
3.0.1	2019_Mar_02_1529	s	s	1	1	SIC	164	4_1	4	1	3	4	23_3_4	1	3	1	0	0.481633901596	311.0	-241.0	305.0	-235.0	1
3.0.1	2019_Mar_02_1529	s	s	1	1	SIC	165	2_2	2	2	4	4	23_4_4	2	2	1	0	0.475583076477	-303.0	-402.0	-298.0	-399.0	1
3.0.1	2019_Mar_02_1529	s	s	1	1	SIC	166	4_2	4	2	4	3	23_4_3	0	1	1	0	3.51587915421	345.0	308.0	344.0	310.0	1
3.0.1	2019_Mar_02_1529	s	s	1	1	SIC	167	1_3	1	3	2	1	23_2_1	1	2	1	0	1.06964302063	-326.0	366.0	-328.0	367.0	1
3.0.1	2019_Mar_02_1529	s	s	1	1	SIC	168	3_2	3	2	2	4	23_2_4	1	2	1	0	0.899854183197	263.0	-132.0	267.0	-130.0	1
3.0.1	2019_Mar_02_1529	s	s	1	1	SIC	169	ABS	0	0	2	4	24_2_4	NA	NA	0	1	2.21455597878	None	None	None	None	1
3.0.1	2019_Mar_02_1529	s	s	1	1	SIC	170	2_2	2	2	4	2	23_4_2	2	0	1	0	0.457983970642	523.0	326.0	520.0	328.0	1
3.0.1	2019_Mar_02_1529	s	s	1	1	SIC	171	4_3	4	3	4	1	23_4_1	0	2	1	0	1.81054210663	486.0	133.0	485.0	136.0	1
3.0.1	2019_Mar_02_1529	s	s	1	1	SIC	172	ABS	0	0	1	4	24_1_4	NA	NA	0	1	2.01046705246	None	None	None	None	1
3.0.1	2019_Mar_02_1529	s	s	1	1	SIC	173	3_4	3	4	4	3	23_4_3	-1	1	1	0	0.669803857803	-325.0	-280.0	-334.0	-276.0	1
3.0.1	2019_Mar_02_1529	s	s	1	1	SIC	174	ABS	0	0	3	4	24_3_4	NA	NA	0	1	2.5210609436	None	None	None	None	1
3.0.1	2019_Mar_02_1529	s	s	1	1	SIC	175	3_4	3	4	2	1	23_2_1	1	3	1	0	0.4462890625	432.0	-138.0	442.0	-138.0	1
3.0.1	2019_Mar_02_1529	s	s	1	1	SIC	176	ABS	0	0	2	1	24_2_1	NA	NA	0	1	2.09572196007	None	None	None	None	1
3.0.1	2019_Mar_02_1529	s	s	1	1	SIC	177	ABS	0	0	2	1	24_2_1	NA	NA	0	1	3.42696714401	None	None	None	None	1
3.0.1	2019_Mar_02_1529	s	s	1	1	SIC	178	4_1	4	1	4	4	23_4_4	0	3	1	0	0.599139928818	-54.0	371.0	-55.0	357.0	1
3.0.1	2019_Mar_02_1529	s	s	1	1	SIC	179	2_1	2	1	1	4	23_1_4	-1	3	1	0	0.886643886566	299.0	-287.0	301.0	-284.0	1
3.0.1	2019_Mar_02_1529	s	s	1	1	SIC	180	3_4	3	4	3	1	23_3_1	0	3	1	0	0.705024003983	-439.0	-236.0	-440.0	-240.0	1
3.0.1	2019_Mar_02_1529	s	s	1	1	SIC	181	ABS	0	0	1	3	24_1_3	NA	NA	0	1	5.24481296539	None	None	None	None	1
3.0.1	2019_Mar_02_1529	s	s	1	1	SIC	182	ABS	0	0	1	2	24_1_2	NA	NA	0	1	5.33887600899	None	None	None	None	1
3.0.1	2019_Mar_02_1529	s	s	1	1	SIC	183	3_3	3	3	3	4	23_3_4	0	-1	1	0	0.916985988617	180.0	-59.0	173.0	-56.0	1
3.0.1	2019_Mar_02_1529	s	s	1	1	SIC	184	1_4	1	4	3	2	23_3_2	2	2	1	0	0.952039003372	-452.0	401.0	-453.0	395.0	1
3.0.1	2019_Mar_02_1529	s	s	1	1	SIC	185	ABS	0	0	4	1	24_4_1	NA	NA	0	1	2.93289208412	None	None	None	None	1
3.0.1	2019_Mar_02_1529	s	s	1	1	SIC	186	3_1	3	1	2	3	23_2_3	1	2	1	0	0.546869039536	-127.0	251.0	-131.0	252.0	1
3.0.1	2019_Mar_02_1529	s	s	1	1	SIC	187	2_3	2	3	4	2	23_4_2	2	1	1	0	0.484925985336	-433.0	392.0	-437.0	394.0	1
3.0.1	2019_Mar_02_1529	s	s	1	1	SIC	188	1_1	1	1	1	4	23_1_4	0	3	1	0	0.795490026474	-303.0	-171.0	-301.0	-169.0	1
3.0.1	2019_Mar_02_1529	s	s	1	1	SIC	189	ABS	0	0	3	1	24_3_1	NA	NA	0	1	2.39864492416	None	None	None	None	1
3.0.1	2019_Mar_02_1529	s	s	1	1	SIC	190	ABS	0	0	3	1	24_3_1	NA	NA	0	1	1.66982603073	None	None	None	None	1
3.0.1	2019_Mar_02_1529	s	s	1	1	SIC	191	2_2	2	2	1	1	23_1_1	-1	-1	0	1	2.41673398018	379.0	-153.0	None	None	0
3.0.1	2019_Mar_02_1529	s	s	1	1	SIC	192	ABS	0	0	4	3	24_4_3	NA	NA	0	1	4.50388288498	None	None	None	None	1
3.0.1	2019_Mar_02_1529	s	s	1	1	SIC	193	ABS	0	0	1	4	24_1_4	NA	NA	0	1	1.8694319725	None	None	None	None	1
3.0.1	2019_Mar_02_1529	s	s	1	1	SIC	194	3_2	3	2	4	2	23_4_2	-1	0	1	0	0.575685024261	-535.0	343.0	-537.0	347.0	1
3.0.1	2019_Mar_02_1529	s	s	1	1	SIC	195	ABS	0	0	3	3	24_3_3	NA	NA	0	1	3.78935694695	None	None	None	None	1
3.0.1	2019_Mar_02_1529	s	s	1	1	SIC	196	ABS	0	0	3	2	24_3_2	NA	NA	0	1	4.51565909386	None	None	None	None	1
3.0.1	2019_Mar_02_1529	s	s	1	1	SIC	197	ABS	0	0	3	1	24_3_1	NA	NA	0	1	2.92786097527	None	None	None	None	1
3.0.1	2019_Mar_02_1529	s	s	1	1	SIC	198	ABS	0	0	2	4	24_2_4	NA	NA	0	1	1.29818296432	None	None	None	None	1
3.0.1	2019_Mar_02_1529	s	s	1	1	SIC	199	ABS	0	0	1	3	24_1_3	NA	NA	0	1	4.821434021	None	None	None	None	1
3.0.1	2019_Mar_02_1529	s	s	1	1	SIC	200	ABS	0	0	4	3	24_4_3	NA	NA	0	1	5.92694687843	None	None	None	None	1
3.0.1	2019_Mar_02_1529	s	s	1	1	SIC	201	ABS	0	0	4	4	24_4_4	NA	NA	0	1	1.83410811424	None	None	None	None	1
3.0.1	2019_Mar_02_1529	s	s	1	1	SIC	202	2_3	2	3	4	4	23_4_4	2	-1	1	0	0.469792127609	111.0	-132.0	104.0	-125.0	1
3.0.1	2019_Mar_02_1529	s	s	1	1	SIC	203	1_2	1	2	1	1	23_1_1	0	-1	1	0	1.3568880558	326.0	-190.0	319.0	-183.0	1
3.0.1	2019_Mar_02_1529	s	s	1	1	SIC	204	3_3	3	3	1	1	23_1_1	2	2	1	0	1.2019200325	-253.0	-303.0	-252.0	-293.0	1
3.0.1	2019_Mar_02_1529	s	s	1	1	SIC	205	ABS	0	0	4	4	24_4_4	NA	NA	0	1	2.08104801178	None	None	None	None	1
3.0.1	2019_Mar_02_1529	s	s	1	1	SIC	206	4_2	4	2	1	3	23_1_3	3	1	1	0	0.528620958328	288.0	-331.0	295.0	-332.0	1
3.0.1	2019_Mar_02_1529	s	s	1	1	SIC	207	1_3	1	3	3	4	23_3_4	2	-1	1	0	0.46252989769	-262.0	-88.0	-255.0	-88.0	1
3.0.1	2019_Mar_02_1529	s	s	1	1	SIC	208	4_4	4	4	3	2	23_3_2	1	2	1	0	0.484504938126	394.0	116.0	400.0	119.0	1
3.0.1	2019_Mar_02_1529	s	s	1	1	SIC	209	ABS	0	0	3	3	24_3_3	NA	NA	0	1	6.36219096184	None	None	None	None	1
3.0.1	2019_Mar_02_1529	s	s	1	1	SIC	210	4_3	4	3	3	1	23_3_1	1	2	1	0	0.481549024582	-324.0	352.0	-331.0	345.0	1
3.0.1	2019_Mar_02_1529	s	s	1	1	SIC	211	3_1	3	1	4	4	23_4_4	-1	3	1	0	0.469801902771	451.0	-115.0	444.0	-113.0	1
3.0.1	2019_Mar_02_1529	s	s	1	1	SIC	212	4_3	4	3	2	2	23_2_2	2	1	1	0	0.427720785141	-216.0	40.0	-215.0	46.0	1
3.0.1	2019_Mar_02_1529	s	s	1	1	SIC	213	ABS	0	0	4	4	24_4_4	NA	NA	0	1	2.10450291634	None	None	None	None	1
3.0.1	2019_Mar_02_1529	s	s	1	1	SIC	214	1_4	1	4	4	2	23_4_2	3	2	1	0	0.422759056091	351.0	252.0	346.0	248.0	1
3.0.1	2019_Mar_02_1529	s	s	1	1	SIC	215	ABS	0	0	2	1	24_2_1	NA	NA	0	1	3.05722784996	None	None	None	None	1
3.0.1	2019_Mar_02_1529	s	s	1	1	SIC	216	1_1	1	1	3	4	23_3_4	2	3	1	0	0.481541156769	482.0	81.0	479.0	82.0	1
3.0.1	2019_Mar_02_1529	s	s	1	1	SIC	217	2_2	2	2	2	1	23_2_1	0	-1	0	1	2.14272999763	476.0	296.0	None	None	0
3.0.1	2019_Mar_02_1529	s	s	1	1	SIC	218	ABS	0	0	4	2	24_4_2	NA	NA	0	1	4.14226603508	None	None	None	None	1
3.0.1	2019_Mar_02_1529	s	s	1	1	SIC	219	ABS	0	0	4	1	24_4_1	NA	NA	0	1	1.73112797737	None	None	None	None	1
3.0.1	2019_Mar_02_1529	s	s	1	1	SIC	220	ABS	0	0	4	1	24_4_1	NA	NA	0	1	1.79882287979	None	None	None	None	1
3.0.1	2019_Mar_02_1529	s	s	1	1	SIC	221	3_2	3	2	3	4	23_3_4	0	2	1	0	0.75204706192	254.0	-136.0	250.0	-134.0	1
3.0.1	2019_Mar_02_1529	s	s	1	1	SIC	222	ABS	0	0	4	3	24_4_3	NA	NA	0	1	5.41362094879	None	None	None	None	1
3.0.1	2019_Mar_02_1529	s	s	1	1	SIC	223	ABS	0	0	2	2	24_2_2	NA	NA	0	1	4.15589690208	None	None	None	None	1
3.0.1	2019_Mar_02_1529	s	s	1	1	SIC	224	ABS	0	0	4	2	24_4_2	NA	NA	0	1	3.07421803474	None	None	None	None	1
3.0.1	2019_Mar_02_1529	s	s	1	1	SIC	225	2_3	2	3	3	1	23_3_1	1	2	1	0	0.987147092819	18.0	-201.0	15.0	-197.0	1
3.0.1	2019_Mar_02_1529	s	s	1	1	SIC	226	ABS	0	0	2	3	24_2_3	NA	NA	0	1	4.75118398666	None	None	None	None	1
3.0.1	2019_Mar_02_1529	s	s	1	1	SIC	227	3_3	3	3	1	4	23_1_4	2	-1	1	0	0.561434984207	-459.0	-57.0	-452.0	-57.0	1
3.0.1	2019_Mar_02_1529	s	s	1	1	SIC	228	1_4	1	4	4	1	23_4_1	3	3	1	0	0.501210927963	-200.0	301.0	-196.0	295.0	1
3.0.1	2019_Mar_02_1529	s	s	1	1	SIC	229	ABS	0	0	1	2	24_1_2	NA	NA	0	1	4.495429039	None	None	None	None	1
3.0.1	2019_Mar_02_1529	s	s	1	1	SIC	230	ABS	0	0	3	3	24_3_3	NA	NA	0	1	2.66224217415	None	None	None	None	1
3.0.1	2019_Mar_02_1529	s	s	1	1	SIC	231	4_1	4	1	1	1	23_1_1	3	0	1	0	0.443210124969	-87.0	26.0	-79.0	23.0	1
3.0.1	2019_Mar_02_1529	s	s	1	1	SIC	232	ABS	0	0	3	2	24_3_2	NA	NA	0	1	6.34154987335	None	None	None	None	1
3.0.1	2019_Mar_02_1529	s	s	1	1	SIC	233	ABS	0	0	2	2	24_2_2	NA	NA	0	1	5.34430193901	None	None	None	None	1
3.0.1	2019_Mar_02_1529	s	s	1	1	SIC	234	ABS	0	0	2	1	24_2_1	NA	NA	0	1	4.53913712502	None	None	None	None	1
3.0.1	2019_Mar_02_1529	s	s	1	1	SIC	235	1_4	1	4	2	4	23_2_4	1	0	1	0	5.00289392471	-507.0	-262.0	-500.0	-263.0	1
3.0.1	2019_Mar_02_1529	s	s	1	1	SIC	236	3_4	3	4	2	4	23_2_4	1	0	1	0	0.602023839951	-431.0	-6.0	-423.0	-6.0	1
3.0.1	2019_Mar_02_1529	s	s	1	1	SIC	237	ABS	0	0	1	1	24_1_1	NA	NA	0	1	2.25213503838	None	None	None	None	1
3.0.1	2019_Mar_02_1529	s	s	1	1	SIC	238	ABS	0	0	4	4	24_4_4	NA	NA	0	1	1.36367988586	None	None	None	None	1
3.0.1	2019_Mar_02_1529	s	s	1	1	SIC	239	4_2	4	2	2	3	23_2_3	2	1	1	0	0.469815015793	507.0	134.0	510.0	133.0	1
3.0.1	2019_Mar_02_1529	s	s	1	1	SIC	240	4_4	4	4	1	3	23_1_3	3	1	1	0	0.599261045456	132.0	-172.0	137.0	-165.0	1
3.0.1	2019_Mar_02_1529	s	s	1	1	SIC	241	ABS	0	0	3	3	24_3_3	NA	NA	0	1	3.10459303856	None	None	None	None	1
3.0.1	2019_Mar_02_1529	s	s	1	1	SIC	242	ABS	0	0	1	2	24_1_2	NA	NA	0	1	5.915143013	None	None	None	None	1
3.0.1	2019_Mar_02_1529	s	s	1	1	SIC	243	ABS	0	0	4	2	24_4_2	NA	NA	0	1	1.19018507004	None	None	None	None	1
3.0.1	2019_Mar_02_1529	s	s	1	1	SIC	244	ABS	0	0	4	3	24_4_3	NA	NA	0	1	3.07537794113	None	None	None	None	1
3.0.1	2019_Mar_02_1529	s	s	1	1	SIC	245	ABS	0	0	3	4	24_3_4	NA	NA	0	1	2.50444602966	None	None	None	None	1
3.0.1	2019_Mar_02_1529	s	s	1	1	SIC	246	ABS	0	0	4	4	24_4_4	NA	NA	0	1	1.86939692497	None	None	None	None	1
3.0.1	2019_Mar_02_1529	s	s	1	1	SIC	247	ABS	0	0	3	4	24_3_4	NA	NA	1	0	2.04576802254	None	None	80.0	24.0	0
3.0.1	2019_Mar_02_1529	s	s	1	1	SIC	248	2_1	2	1	4	1	23_4_1	2	0	1	0	1.12069296837	-328.0	-31.0	-326.0	-36.0	1
3.0.1	2019_Mar_02_1529	s	s	1	1	SIC	249	ABS	0	0	4	2	24_4_2	NA	NA	0	1	3.04846096039	None	None	None	None	1
3.0.1	2019_Mar_02_1529	s	s	1	1	SIC	250	ABS	0	0	3	2	24_3_2	NA	NA	0	1	2.3399078846	None	None	None	None	1
3.0.1	2019_Mar_02_1529	s	s	1	1	SIC	251	ABS	0	0	3	3	24_3_3	NA	NA	0	1	1.82228302956	None	None	None	None	1
3.0.1	2019_Mar_02_1529	s	s	1	1	SIC	252	1_3	1	3	4	4	23_4_4	3	-1	1	0	0.470171928406	-305.0	177.0	-301.0	177.0	1
3.0.1	2019_Mar_02_1529	s	s	1	1	SIC	253	ABS	0	0	2	1	24_2_1	NA	NA	0	1	3.26890087128	None	None	None	None	1
3.0.1	2019_Mar_02_1529	s	s	1	1	SIC	254	ABS	0	0	4	1	24_4_1	NA	NA	0	1	1.22244310379	None	None	None	None	1
3.0.1	2019_Mar_02_1529	s	s	1	1	SIC	255	ABS	0	0	4	4	24_4_4	NA	NA	0	1	1.66060185432	None	None	None	None	1
3.0.1	2019_Mar_02_1529	s	s	1	1	SIC	256	4_2	4	2	1	4	23_1_4	3	2	1	0	0.523367166519	98.0	311.0	95.0	316.0	1
3.0.1	2019_Mar_02_1529	s	s	1	1	SIC	257	1_1	1	1	4	4	23_4_4	3	3	1	0	0.43833899498	-20.0	-360.0	-24.0	-351.0	1
3.0.1	2019_Mar_02_1529	s	s	1	1	SIC	258	ABS	0	0	3	4	24_3_4	NA	NA	0	1	1.82712817192	None	None	None	None	1
3.0.1	2019_Mar_02_1529	s	s	1	1	SIC	259	ABS	0	0	1	4	24_1_4	NA	NA	0	1	2.45112109184	None	None	None	None	1
3.0.1	2019_Mar_02_1529	s	s	1	1	SIC	260	2_1	2	1	1	2	23_1_2	-1	1	1	0	0.934937953949	-106.0	180.0	-115.0	181.0	1
3.0.1	2019_Mar_02_1529	s	s	1	1	SIC	261	ABS	0	0	3	1	24_3_1	NA	NA	0	1	3.14243793488	None	None	None	None	1
3.0.1	2019_Mar_02_1529	s	s	1	1	SIC	262	1_1	1	1	3	2	23_3_2	2	1	1	0	0.672585964203	408.0	-262.0	410.0	-266.0	1
3.0.1	2019_Mar_02_1529	s	s	1	1	SIC	263	3_1	3	1	1	2	23_1_2	2	1	1	0	0.563819885254	99.0	69.0	91.0	67.0	1
3.0.1	2019_Mar_02_1529	s	s	1	1	SIC	264	4_2	4	2	4	4	23_4_4	0	2	1	0	0.855585098267	446.0	-255.0	449.0	-255.0	1
3.0.1	2019_Mar_02_1529	s	s	1	1	SIC	265	1_4	1	4	1	2	23_1_2	0	2	1	0	0.693197965622	64.0	173.0	58.0	172.0	1
3.0.1	2019_Mar_02_1529	s	s	1	1	SIC	266	1_1	1	1	2	4	23_2_4	1	3	1	0	0.763822793961	384.0	-128.0	390.0	-130.0	1
3.0.1	2019_Mar_02_1529	s	s	1	1	SIC	267	4_4	4	4	2	3	23_2_3	2	1	1	0	0.569454908371	38.0	-308.0	34.0	-309.0	1
3.0.1	2019_Mar_02_1529	s	s	1	1	SIC	268	ABS	0	0	4	1	24_4_1	NA	NA	0	1	2.67415499687	None	None	None	None	1
3.0.1	2019_Mar_02_1529	s	s	1	1	SIC	269	ABS	0	0	1	1	24_1_1	NA	NA	0	1	2.48102593422	None	None	None	None	1
3.0.1	2019_Mar_02_1529	s	s	1	1	SIC	270	ABS	0	0	1	4	24_1_4	NA	NA	0	1	2.90728712082	None	None	None	None	1
3.0.1	2019_Mar_02_1529	s	s	1	1	SIC	271	1_1	1	1	4	1	23_4_1	3	0	1	0	0.458005189896	-152.0	-280.0	-156.0	-277.0	1
3.0.1	2019_Mar_02_1529	s	s	1	1	SIC	272	ABS	0	0	1	1	24_1_1	NA	NA	0	1	2.87479400635	None	None	None	None	1
3.0.1	2019_Mar_02_1529	s	s	1	1	SIC	273	ABS	0	0	3	1	24_3_1	NA	NA	0	1	1.83445882797	None	None	None	None	1
3.0.1	2019_Mar_02_1529	s	s	1	1	SIC	274	1_1	1	1	1	2	23_1_2	0	1	1	0	3.42678999901	-510.0	187.0	-504.0	184.0	1
3.0.1	2019_Mar_02_1529	s	s	1	1	SIC	275	ABS	0	0	1	1	24_1_1	NA	NA	0	1	2.50883102417	None	None	None	None	1
3.0.1	2019_Mar_02_1529	s	s	1	1	SIC	276	3_1	3	1	3	3	23_3_3	0	2	1	0	1.3517229557	-470.0	-202.0	-472.0	-204.0	1
3.0.1	2019_Mar_02_1529	s	s	1	1	SIC	277	ABS	0	0	4	1	24_4_1	NA	NA	0	1	1.48128795624	None	None	None	None	1
3.0.1	2019_Mar_02_1529	s	s	1	1	SIC	278	ABS	0	0	3	2	24_3_2	NA	NA	0	1	3.94437003136	None	None	None	None	1
3.0.1	2019_Mar_02_1529	s	s	1	1	SIC	279	4_2	4	2	3	4	23_3_4	1	2	1	0	0.516844987869	-476.0	-22.0	-468.0	-19.0	1
3.0.1	2019_Mar_02_1529	s	s	1	1	SIC	280	4_4	4	4	3	4	23_3_4	1	0	1	0	0.48193192482	-171.0	-221.0	-163.0	-214.0	1
3.0.1	2019_Mar_02_1529	s	s	1	1	SIC	281	ABS	0	0	4	2	24_4_2	NA	NA	0	1	4.02171087265	None	None	None	None	1
3.0.1	2019_Mar_02_1529	s	s	1	1	SIC	282	3_3	3	3	1	3	23_1_3	2	0	1	0	0.569643974304	357.0	22.0	355.0	19.0	1
3.0.1	2019_Mar_02_1529	s	s	1	1	SIC	283	ABS	0	0	2	1	24_2_1	NA	NA	0	1	3.57470393181	None	None	None	None	1
3.0.1	2019_Mar_02_1529	s	s	1	1	SIC	284	3_4	3	4	1	3	23_1_3	2	1	1	0	0.661804914474	-204.0	-289.0	-196.0	-285.0	1
3.0.1	2019_Mar_02_1529	s	s	1	1	SIC	285	4_1	4	1	1	3	23_1_3	3	2	1	0	0.784399986267	-145.0	221.0	-145.0	221.0	1
3.0.1	2019_Mar_02_1529	s	s	1	1	SIC	286	4_1	4	1	1	2	23_1_2	3	1	1	0	0.427702903748	-210.0	334.0	-215.0	343.0	1
3.0.1	2019_Mar_02_1529	s	s	1	1	SIC	287	2_2	2	2	4	3	23_4_3	2	1	1	0	0.446221828461	-322.0	355.0	-320.0	355.0	1
3.0.1	2019_Mar_02_1529	s	s	1	1	SIC	288	ABS	0	0	3	1	24_3_1	NA	NA	0	1	1.88516712189	None	None	None	None	1
3.0.1	2019_Mar_02_1529	s	s	1	1	SIC	289	ABS	0	0	4	1	24_4_1	NA	NA	0	1	1.42249798775	None	None	None	None	1
3.0.1	2019_Mar_02_1529	s	s	1	1	SIC	290	2_4	2	4	1	2	23_1_2	-1	2	1	0	0.796260118484	-187.0	-206.0	-183.0	-209.0	1
3.0.1	2019_Mar_02_1529	s	s	1	1	SIC	291	ABS	0	0	1	2	24_1_2	NA	NA	0	1	4.41471385956	None	None	None	None	1
3.0.1	2019_Mar_02_1529	s	s	1	1	SIC	292	1_3	1	3	4	2	23_4_2	3	1	1	0	0.438410997391	-193.0	-356.0	-191.0	-353.0	1
3.0.1	2019_Mar_02_1529	s	s	1	1	SIC	293	4_3	4	3	2	4	23_2_4	2	-1	1	0	0.481712818146	227.0	-381.0	228.0	-379.0	1
3.0.1	2019_Mar_02_1529	s	s	1	1	SIC	294	3_2	3	2	1	2	23_1_2	2	0	1	0	0.528575897217	-169.0	215.0	-172.0	210.0	1
3.0.1	2019_Mar_02_1529	s	s	1	1	SIC	295	2_4	2	4	2	1	23_2_1	0	3	1	0	0.916767120361	-487.0	328.0	-485.0	326.0	1
3.0.1	2019_Mar_02_1529	s	s	1	1	SIC	296	4_2	4	2	3	3	23_3_3	1	1	1	0	0.458013057709	-144.0	-176.0	-148.0	-170.0	1
3.0.1	2019_Mar_02_1529	s	s	1	1	SIC	297	ABS	0	0	4	1	24_4_1	NA	NA	0	1	2.17516589165	None	None	None	None	1
3.0.1	2019_Mar_02_1529	s	s	1	1	SIC	298	2_1	2	1	4	2	23_4_2	2	1	1	0	0.481617927551	408.0	-259.0	401.0	-260.0	1
3.0.1	2019_Mar_02_1529	s	s	1	1	SIC	299	ABS	0	0	3	1	24_3_1	NA	NA	0	1	1.49590182304	None	None	None	None	1
3.0.1	2019_Mar_02_1529	s	s	1	1	SIC	300	1_4	1	4	1	3	23_1_3	0	1	1	0	1.66408085823	196.0	-264.0	192.0	-267.0	1
3.0.1	2019_Mar_02_1529	s	s	1	1	SIC	301	ABS	0	0	1	1	24_1_1	NA	NA	0	1	2.85370206833	None	None	None	None	1
3.0.1	2019_Mar_02_1529	s	s	1	1	SIC	302	3_4	3	4	3	3	23_3_3	0	1	1	0	2.01053714752	-405.0	196.0	-408.0	193.0	1
3.0.1	2019_Mar_02_1529	s	s	1	1	SIC	303	ABS	0	0	1	4	24_1_4	NA	NA	0	1	2.70722293854	None	None	None	None	1
3.0.1	2019_Mar_02_1529	s	s	1	1	SIC	304	ABS	0	0	3	3	24_3_3	NA	NA	0	1	3.55509614944	None	None	None	None	1
3.0.1	2019_Mar_02_1529	s	s	1	1	SIC	305	2_2	2	2	3	2	23_3_2	1	0	1	0	0.474737167358	199.0	232.0	195.0	222.0	1
3.0.1	2019_Mar_02_1529	s	s	1	1	SIC	306	ABS	0	0	1	4	24_1_4	NA	NA	0	1	3.03938484192	None	None	None	None	1
3.0.1	2019_Mar_02_1529	s	s	1	1	SIC	307	ABS	0	0	3	4	24_3_4	NA	NA	0	1	1.93087911606	None	None	None	None	1
3.0.1	2019_Mar_02_1529	s	s	1	1	SIC	308	ABS	0	0	4	3	24_4_3	NA	NA	0	1	4.21472811699	None	None	None	None	1
3.0.1	2019_Mar_02_1529	s	s	1	1	SIC	309	ABS	0	0	3	1	24_3_1	NA	NA	0	1	2.72811985016	None	None	None	None	1
3.0.1	2019_Mar_02_1529	s	s	1	1	SIC	310	ABS	0	0	4	1	24_4_1	NA	NA	0	1	1.79234313965	None	None	None	None	1
3.0.1	2019_Mar_02_1529	s	s	1	1	SIC	311	4_1	4	1	2	4	23_2_4	2	3	1	0	0.469847917557	-57.0	68.0	-58.0	62.0	1
3.0.1	2019_Mar_02_1529	s	s	1	1	SIC	312	ABS	0	0	1	4	24_1_4	NA	NA	0	1	3.85482692719	None	None	None	None	1
3.0.1	2019_Mar_02_1529	s	s	1	1	SIC	313	ABS	0	0	2	3	24_2_3	NA	NA	0	1	3.24548602104	None	None	None	None	1
3.0.1	2019_Mar_02_1529	s	s	1	1	SIC	314	ABS	0	0	1	2	24_1_2	NA	NA	0	1	3.55118894577	None	None	None	None	1
3.0.1	2019_Mar_02_1529	s	s	1	1	SIC	315	ABS	0	0	4	3	24_4_3	NA	NA	0	1	1.74292898178	None	None	None	None	1
3.0.1	2019_Mar_02_1529	s	s	1	1	SIC	316	2_4	2	4	3	2	23_3_2	1	2	1	0	0.555001974106	178.0	-1.0	178.0	1.0	1
3.0.1	2019_Mar_02_1529	s	s	1	1	SIC	317	2_3	2	3	2	4	23_2_4	0	-1	1	0	1.18724489212	335.0	-225.0	334.0	-229.0	1
3.0.1	2019_Mar_02_1529	s	s	1	1	SIC	318	ABS	0	0	3	2	24_3_2	NA	NA	0	1	4.27394104004	None	None	None	None	1
3.0.1	2019_Mar_02_1529	s	s	1	1	SIC	319	3_4	3	4	3	2	23_3_2	0	2	1	0	0.790247917175	387.0	-317.0	392.0	-318.0	1
3.0.1	2019_Mar_02_1529	s	s	1	1	SIC	320	2_3	2	3	2	2	23_2_2	0	1	1	0	3.84807109833	-209.0	251.0	-209.0	246.0	1
3.0.1	2019_Mar_02_1529	s	s	1	1	SIC	321	ABS	0	0	2	1	24_2_1	NA	NA	0	1	5.33181786537	None	None	None	None	1
3.0.1	2019_Mar_02_1529	s	s	1	1	SIC	322	ABS	0	0	3	1	24_3_1	NA	NA	0	1	2.81026101112	None	None	None	None	1
3.0.1	2019_Mar_02_1529	s	s	1	1	SIC	323	2_1	2	1	3	4	23_3_4	1	3	1	0	0.561341047287	-298.0	127.0	-306.0	131.0	1
3.0.1	2019_Mar_02_1529	s	s	1	1	SIC	324	ABS	0	0	2	3	24_2_3	NA	NA	0	1	5.7079641819	None	None	None	None	1
3.0.1	2019_Mar_02_1529	s	s	1	1	SIC	325	ABS	0	0	3	4	24_3_4	NA	NA	0	1	2.16796898842	None	None	None	None	1
3.0.1	2019_Mar_02_1529	s	s	1	1	SIC	326	1_1	1	1	2	3	23_2_3	1	2	1	0	0.778479099274	-316.0	-170.0	-319.0	-179.0	1
3.0.1	2019_Mar_02_1529	s	s	1	1	SIC	327	4_3	4	3	1	1	23_1_1	3	2	1	0	0.61380314827	-162.0	401.0	-163.0	401.0	1
3.0.1	2019_Mar_02_1529	s	s	1	1	SIC	328	1_4	1	4	4	4	23_4_4	3	0	1	0	0.493656873703	187.0	-48.0	191.0	-44.0	1
3.0.1	2019_Mar_02_1529	s	s	1	1	SIC	329	ABS	0	0	4	2	24_4_2	NA	NA	0	1	4.32195115089	None	None	None	None	1
3.0.1	2019_Mar_02_1529	s	s	1	1	SIC	330	1_1	1	1	4	2	23_4_2	3	1	1	0	1.06268405914	-150.0	-254.0	-144.0	-253.0	1
3.0.1	2019_Mar_02_1529	s	s	1	1	SIC	331	3_1	3	1	2	1	23_2_1	1	0	1	0	0.579885005951	-159.0	126.0	-160.0	131.0	1
3.0.1	2019_Mar_02_1529	s	s	1	1	SIC	332	ABS	0	0	2	4	24_2_4	NA	NA	0	1	3.37770700455	None	None	None	None	1
3.0.1	2019_Mar_02_1529	s	s	1	1	SIC	333	ABS	0	0	2	3	24_2_3	NA	NA	0	1	3.29783582687	None	None	None	None	1
3.0.1	2019_Mar_02_1529	s	s	1	1	SIC	334	ABS	0	0	3	1	24_3_1	NA	NA	0	1	1.63413190842	None	None	None	None	1
3.0.1	2019_Mar_02_1529	s	s	1	1	SIC	335	4_2	4	2	3	1	23_3_1	1	-1	1	0	0.569856882095	499.0	111.0	497.0	111.0	1
3.0.1	2019_Mar_02_1529	s	s	1	1	SIC	336	ABS	0	0	2	3	24_2_3	NA	NA	0	1	2.39851212502	None	None	None	None	1
3.0.1	2019_Mar_02_1529	s	s	1	1	SIC	337	2_3	2	3	1	2	23_1_2	-1	1	1	0	2.87440609932	323.0	-182.0	317.0	-183.0	1
3.0.1	2019_Mar_02_1529	s	s	1	1	SIC	338	ABS	0	0	1	4	24_1_4	NA	NA	0	1	2.12811398506	None	None	None	None	1
3.0.1	2019_Mar_02_1529	s	s	1	1	SIC	339	ABS	0	0	4	4	24_4_4	NA	NA	0	1	1.11661696434	None	None	None	None	1
3.0.1	2019_Mar_02_1529	s	s	1	1	SIC	340	ABS	0	0	1	2	24_1_2	NA	NA	0	1	3.96299481392	None	None	None	None	1
3.0.1	2019_Mar_02_1529	s	s	1	1	SIC	341	ABS	0	0	1	4	24_1_4	NA	NA	0	1	1.95465421677	None	None	None	None	1
3.0.1	2019_Mar_02_1529	s	s	1	1	SIC	342	3_4	3	4	4	4	23_4_4	-1	0	1	0	0.697144985199	483.0	36.0	480.0	34.0	1
3.0.1	2019_Mar_02_1529	s	s	1	1	SIC	343	ABS	0	0	1	4	24_1_4	NA	NA	0	1	1.66055893898	None	None	None	None	1
3.0.1	2019_Mar_02_1529	s	s	1	1	SIC	344	ABS	0	0	2	2	24_2_2	NA	NA	0	1	2.50930190086	None	None	None	None	1
3.0.1	2019_Mar_02_1529	s	s	1	1	SIC	345	ABS	0	0	4	3	24_4_3	NA	NA	0	1	1.85065793991	None	None	None	None	1
3.0.1	2019_Mar_02_1529	s	s	1	1	SIC	346	ABS	0	0	1	4	24_1_4	NA	NA	0	1	2.62698698044	None	None	None	None	1
3.0.1	2019_Mar_02_1529	s	s	1	1	SIC	347	2_4	2	4	3	3	23_3_3	1	1	1	0	0.56934094429	-112.0	-162.0	-111.0	-153.0	1
3.0.1	2019_Mar_02_1529	s	s	1	1	SIC	348	2_4	2	4	4	1	23_4_1	2	3	1	0	0.446187973022	14.0	3.0	16.0	0.0	1
3.0.1	2019_Mar_02_1529	s	s	1	1	SIC	349	1_1	1	1	3	1	23_3_1	2	0	1	0	0.535169839859	173.0	-33.0	177.0	-35.0	1
3.0.1	2019_Mar_02_1529	s	s	1	1	SIC	350	2_3	2	3	2	1	23_2_1	0	2	1	0	1.26067209244	340.0	-129.0	341.0	-128.0	1
3.0.1	2019_Mar_02_1529	s	s	1	1	SIC	351	1_3	1	3	2	4	23_2_4	1	-1	1	0	0.972784042358	170.0	204.0	165.0	207.0	1
3.0.1	2019_Mar_02_1529	s	s	1	1	SIC	352	3_4	3	4	1	2	23_1_2	2	2	1	0	0.881414175034	481.0	-246.0	473.0	-251.0	1
3.0.1	2019_Mar_02_1529	s	s	1	1	SIC	353	3_1	3	1	2	4	23_2_4	1	3	1	0	0.693238973618	-487.0	273.0	-484.0	272.0	1
3.0.1	2019_Mar_02_1529	s	s	1	1	SIC	354	ABS	0	0	2	2	24_2_2	NA	NA	0	1	4.98599505424	None	None	None	None	1
3.0.1	2019_Mar_02_1529	s	s	1	1	SIC	355	3_4	3	4	1	4	23_1_4	2	0	1	0	0.736509799957	-180.0	324.0	-182.0	330.0	1
3.0.1	2019_Mar_02_1529	s	s	1	1	SIC	356	2_1	2	1	4	4	23_4_4	2	3	1	0	0.473677873611	234.0	-280.0	231.0	-277.0	1
3.0.1	2019_Mar_02_1529	s	s	1	1	SIC	357	2_1	2	1	1	3	23_1_3	-1	2	1	0	1.59890604019	-481.0	-217.0	-480.0	-229.0	1
3.0.1	2019_Mar_02_1529	s	s	1	1	SIC	358	4_2	4	2	4	1	23_4_1	0	-1	1	0	1.23422503471	-164.0	26.0	-160.0	33.0	1
3.0.1	2019_Mar_02_1529	s	s	1	1	SIC	359	2_3	2	3	1	3	23_1_3	-1	0	0	1	4.19804310799	-138.0	-283.0	None	None	0
3.0.1	2019_Mar_02_1529	s	s	1	1	SIC	360	ABS	0	0	3	1	24_3_1	NA	NA	0	1	2.21455287933	None	None	None	None	1
3.0.1	2019_Mar_02_1529	s	s	1	1	SIC	361	ABS	0	0	4	3	24_4_3	NA	NA	0	1	4.36722993851	None	None	None	None	1
3.0.1	2019_Mar_02_1529	s	s	1	1	SIC	362	ABS	0	0	2	4	24_2_4	NA	NA	0	1	1.98059010506	None	None	None	None	1
3.0.1	2019_Mar_02_1529	s	s	1	1	SIC	363	ABS	0	0	1	3	24_1_3	NA	NA	0	1	3.74480509758	None	None	None	None	1
3.0.1	2019_Mar_02_1529	s	s	1	1	SIC	364	ABS	0	0	2	1	24_2_1	NA	NA	0	1	3.77468800545	None	None	None	None	1
3.0.1	2019_Mar_02_1529	s	s	1	1	SIC	365	ABS	0	0	4	4	24_4_4	NA	NA	0	1	1.41482710838	None	None	None	None	1
3.0.1	2019_Mar_02_1529	s	s	1	1	SIC	366	4_3	4	3	2	1	23_2_1	2	2	1	0	0.521878957748	50.0	210.0	54.0	208.0	1
3.0.1	2019_Mar_02_1529	s	s	1	1	SIC	367	ABS	0	0	3	3	24_3_3	NA	NA	0	1	4.51567482948	None	None	None	None	1
3.0.1	2019_Mar_02_1529	s	s	1	1	SIC	368	ABS	0	0	3	4	24_3_4	NA	NA	0	1	1.61355495453	None	None	None	None	1
3.0.1	2019_Mar_02_1529	s	s	1	1	SIC	369	3_4	3	4	4	1	23_4_1	-1	3	1	0	0.657992839813	-75.0	157.0	-71.0	151.0	1
3.0.1	2019_Mar_02_1529	s	s	1	1	SIC	370	ABS	0	0	3	4	24_3_4	NA	NA	0	1	2.16615509987	None	None	None	None	1
3.0.1	2019_Mar_02_1529	s	s	1	1	SIC	371	3_4	3	4	4	2	23_4_2	-1	2	1	0	0.528522014618	400.0	-57.0	405.0	-60.0	1
3.0.1	2019_Mar_02_1529	s	s	1	1	SIC	372	ABS	0	0	3	2	24_3_2	NA	NA	0	1	4.97429800034	None	None	None	None	1
3.0.1	2019_Mar_02_1529	s	s	1	1	SIC	373	ABS	0	0	1	3	24_1_3	NA	NA	0	1	1.84882116318	None	None	None	None	1
3.0.1	2019_Mar_02_1529	s	s	1	1	SIC	374	ABS	0	0	3	4	24_3_4	NA	NA	0	1	1.70469784737	None	None	None	None	1
3.0.1	2019_Mar_02_1529	s	s	1	1	SIC	375	3_3	3	3	2	2	23_2_2	1	1	1	0	0.533251047134	-189.0	143.0	-184.0	136.0	1
3.0.1	2019_Mar_02_1529	s	s	1	1	SIC	376	ABS	0	0	2	4	24_2_4	NA	NA	0	1	1.72823882103	None	None	None	None	1
3.0.1	2019_Mar_02_1529	s	s	1	1	SIC	377	4_4	4	4	2	2	23_2_2	2	2	1	0	0.552082061768	-285.0	-109.0	-277.0	-113.0	1
3.0.1	2019_Mar_02_1529	s	s	1	1	SIC	378	ABS	0	0	4	2	24_4_2	NA	NA	0	1	1.44271183014	None	None	None	None	1
3.0.1	2019_Mar_02_1529	s	s	1	1	SIC	379	2_2	2	2	3	4	23_3_4	1	2	1	0	0.634398937225	352.0	232.0	350.0	232.0	1
3.0.1	2019_Mar_02_1529	s	s	1	1	SIC	380	4_1	4	1	1	4	23_1_4	3	3	1	0	0.481538057327	304.0	396.0	301.0	395.0	1
3.0.1	2019_Mar_02_1529	s	s	1	1	SIC	381	2_1	2	1	2	3	23_2_3	0	2	1	0	2.59188103676	-326.0	-326.0	-314.0	-318.0	1
3.0.1	2019_Mar_02_1529	s	s	1	1	SIC	382	2_4	2	4	1	3	23_1_3	-1	1	1	0	1.01077413559	-259.0	374.0	-260.0	373.0	1
3.0.1	2019_Mar_02_1529	s	s	1	1	SIC	383	2_3	2	3	4	1	23_4_1	2	2	1	0	0.462514162064	-67.0	124.0	-61.0	126.0	1
3.0.1	2019_Mar_02_1529	s	s	1	1	SIC	384	ABS	0	0	2	1	24_2_1	NA	NA	0	1	2.44566583633	None	None	None	None	1
3.0.1	2019_Mar_02_1529	s	s	1	1	SIC	385	3_1	3	1	3	4	23_3_4	0	3	1	0	0.651090145111	-187.0	-89.0	-181.0	-97.0	1
3.0.1	2019_Mar_02_1529	s	s	1	1	SIC	386	4_3	4	3	3	2	23_3_2	1	1	1	0	0.646197795868	60.0	-39.0	65.0	-38.0	1
3.0.1	2019_Mar_02_1529	s	s	1	1	SIC	387	ABS	0	0	4	2	24_4_2	NA	NA	0	1	3.11598181725	None	None	None	None	1
3.0.1	2019_Mar_02_1529	s	s	1	1	SIC	388	ABS	0	0	1	1	24_1_1	NA	NA	0	1	2.02541303635	None	None	None	None	1
3.0.1	2019_Mar_02_1529	s	s	1	1	SIC	389	ABS	0	0	2	2	24_2_2	NA	NA	0	1	2.46234297752	None	None	None	None	1
3.0.1	2019_Mar_02_1529	s	s	1	1	SIC	390	ABS	0	0	1	3	24_1_3	NA	NA	0	1	2.94634699821	None	None	None	None	1
3.0.1	2019_Mar_02_1529	s	s	1	1	SIC	391	ABS	0	0	1	3	24_1_3	NA	NA	0	1	2.96304798126	None	None	None	None	1
3.0.1	2019_Mar_02_1529	s	s	1	1	SIC	392	2_2	2	2	2	3	23_2_3	0	1	1	0	3.17497992516	-457.0	-57.0	-452.0	-55.0	1
3.0.1	2019_Mar_02_1529	s	s	1	1	SIC	393	ABS	0	0	3	2	24_3_2	NA	NA	0	1	3.91583299637	None	None	None	None	1
3.0.1	2019_Mar_02_1529	s	s	1	1	SIC	394	1_3	1	3	3	2	23_3_2	2	1	1	0	0.522208929062	-264.0	-78.0	-272.0	-80.0	1
3.0.1	2019_Mar_02_1529	s	s	1	1	SIC	395	4_2	4	2	2	4	23_2_4	2	2	1	0	0.505072832108	-265.0	-344.0	-255.0	-345.0	1
3.0.1	2019_Mar_02_1529	s	s	1	1	SIC	396	ABS	0	0	1	3	24_1_3	NA	NA	0	1	3.66527700424	None	None	None	None	1
3.0.1	2019_Mar_02_1529	s	s	1	1	SIC	397	1_1	1	1	4	3	23_4_3	3	2	1	0	0.457963943481	332.0	63.0	327.0	62.0	1
3.0.1	2019_Mar_02_1529	s	s	1	1	SIC	398	2_4	2	4	2	3	23_2_3	0	1	1	0	2.05090904236	320.0	-307.0	322.0	-306.0	1
3.0.1	2019_Mar_02_1529	s	s	1	1	SIC	399	ABS	0	0	4	1	24_4_1	NA	NA	0	1	0.778783082962	None	None	None	None	1
3.0.1	2019_Mar_02_1529	s	s	1	1	SIC	400	ABS	0	0	1	2	24_1_2	NA	NA	0	1	7.64405703545	None	None	None	None	1
3.0.1	2019_Mar_02_1529	s	s	1	1	SIC	401	4_4	4	4	1	4	23_1_4	3	0	1	0	0.470065116882	-262.0	234.0	-270.0	241.0	1
3.0.1	2019_Mar_02_1529	s	s	1	1	SIC	402	4_2	4	2	3	2	23_3_2	1	0	1	0	0.462870836258	310.0	157.0	304.0	160.0	1
3.0.1	2019_Mar_02_1529	s	s	1	1	SIC	403	ABS	0	0	3	3	24_3_3	NA	NA	0	1	2.90823292732	None	None	None	None	1
3.0.1	2019_Mar_02_1529	s	s	1	1	SIC	404	ABS	0	0	1	2	24_1_2	NA	NA	0	1	5.9857070446	None	None	None	None	1
3.0.1	2019_Mar_02_1529	s	s	1	1	SIC	405	ABS	0	0	1	2	24_1_2	NA	NA	0	1	5.49183106422	None	None	None	None	1
3.0.1	2019_Mar_02_1529	s	s	1	1	SIC	406	ABS	0	0	4	4	24_4_4	NA	NA	0	1	1.16369700432	None	None	None	None	1
3.0.1	2019_Mar_02_1529	s	s	1	1	SIC	407	ABS	0	0	2	4	24_2_4	NA	NA	0	1	3.26579999924	None	None	None	None	1
3.0.1	2019_Mar_02_1529	s	s	1	1	SIC	408	ABS	0	0	3	3	24_3_3	NA	NA	0	1	2.19487404823	None	None	None	None	1
3.0.1	2019_Mar_02_1529	s	s	1	1	SIC	409	3_1	3	1	3	2	23_3_2	0	1	1	0	2.4927110672	368.0	-363.0	368.0	-370.0	1
3.0.1	2019_Mar_02_1529	s	s	1	1	SIC	410	ABS	0	0	4	2	24_4_2	NA	NA	0	1	6.04738402367	None	None	None	None	1
3.0.1	2019_Mar_02_1529	s	s	1	1	SIC	411	1_2	1	2	2	4	23_2_4	1	2	1	0	0.731457948685	-233.0	-151.0	-243.0	-145.0	1
3.0.1	2019_Mar_02_1529	s	s	1	1	SIC	412	1_3	1	3	2	3	23_2_3	1	0	1	0	4.8394908905	-294.0	-239.0	-294.0	-243.0	1
3.0.1	2019_Mar_02_1529	s	s	1	1	SIC	413	3_3	3	3	1	2	23_1_2	2	1	1	0	0.778949022293	114.0	304.0	118.0	303.0	1
3.0.1	2019_Mar_02_1529	s	s	1	1	SIC	414	2_3	2	3	1	1	23_1_1	-1	2	1	0	1.3344810009	-231.0	-279.0	-226.0	-274.0	1
3.0.1	2019_Mar_02_1529	s	s	1	1	SIC	415	ABS	0	0	3	4	24_3_4	NA	NA	0	1	1.6341381073	None	None	None	None	1
3.0.1	2019_Mar_02_1529	s	s	1	1	SIC	416	1_4	1	4	2	3	23_2_3	1	1	1	0	0.731379032135	-369.0	57.0	-368.0	59.0	1
3.0.1	2019_Mar_02_1529	s	s	1	1	SIC	417	ABS	0	0	3	4	24_3_4	NA	NA	0	1	1.45113992691	None	None	None	None	1
3.0.1	2019_Mar_02_1529	s	s	1	1	SIC	418	ABS	0	0	4	1	24_4_1	NA	NA	0	1	1.61059999466	None	None	None	None	1
3.0.1	2019_Mar_02_1529	s	s	1	1	SIC	419	ABS	0	0	1	2	24_1_2	NA	NA	0	1	7.4970510006	None	None	None	None	1
3.0.1	2019_Mar_02_1529	s	s	1	1	SIC	420	4_2	4	2	2	1	23_2_1	2	-1	1	0	0.516793012619	-251.0	324.0	-253.0	323.0	1
3.0.1	2019_Mar_02_1529	s	s	1	1	SIC	421	ABS	0	0	2	3	24_2_3	NA	NA	0	1	4.71016192436	None	None	None	None	1
3.0.1	2019_Mar_02_1529	s	s	1	1	SIC	422	1_4	1	4	3	4	23_3_4	2	0	1	0	0.649950027466	-480.0	194.0	-475.0	196.0	1
3.0.1	2019_Mar_02_1529	s	s	1	1	SIC	423	ABS	0	0	2	2	24_2_2	NA	NA	0	1	6.4853990078	None	None	None	None	1
3.0.1	2019_Mar_02_1529	s	s	1	1	SIC	424	1_3	1	3	4	3	23_4_3	3	0	1	0	0.634407997131	-272.0	-197.0	-283.0	-191.0	1
3.0.1	2019_Mar_02_1529	s	s	1	1	SIC	425	1_2	1	2	4	4	23_4_4	3	2	1	0	0.822665929794	434.0	-232.0	440.0	-236.0	1
3.0.1	2019_Mar_02_1529	s	s	1	1	SIC	426	2_1	2	1	3	3	23_3_3	1	2	1	0	0.516793012619	-80.0	330.0	-83.0	329.0	1
3.0.1	2019_Mar_02_1529	s	s	1	1	SIC	427	4_4	4	4	1	2	23_1_2	3	2	1	0	0.497177124023	132.0	38.0	125.0	42.0	1
3.0.1	2019_Mar_02_1529	s	s	1	1	SIC	428	ABS	0	0	3	3	24_3_3	NA	NA	0	1	3.93415498734	None	None	None	None	1
3.0.1	2019_Mar_02_1529	s	s	1	1	SIC	429	1_4	1	4	3	1	23_3_1	2	3	1	0	0.474655866623	-290.0	46.0	-282.0	49.0	1
3.0.1	2019_Mar_02_1529	s	s	1	1	SIC	430	ABS	0	0	4	2	24_4_2	NA	NA	0	1	5.47168707848	None	None	None	None	1
3.0.1	2019_Mar_02_1529	s	s	1	1	SIC	431	3_1	3	1	1	1	23_1_1	2	0	1	0	0.517017841339	-386.0	-43.0	-378.0	-44.0	1
3.0.1	2019_Mar_02_1529	s	s	1	1	SIC	432	2_2	2	2	3	1	23_3_1	1	-1	1	0	0.516746044159	-112.0	217.0	-112.0	217.0	1
3.0.1	2019_Mar_02_1529	s	s	1	1	SIC	433	2_1	2	1	1	1	23_1_1	-1	0	0	1	3.33265209198	-504.0	387.0	None	None	0
3.0.1	2019_Mar_02_1529	s	s	1	1	SIC	434	ABS	0	0	3	2	24_3_2	NA	NA	0	1	5.23309493065	None	None	None	None	1
3.0.1	2019_Mar_02_1529	s	s	1	1	SIC	435	2_4	2	4	4	2	23_4_2	2	2	1	0	0.705127954483	428.0	-37.0	431.0	-37.0	1
3.0.1	2019_Mar_02_1529	s	s	1	1	SIC	436	4_3	4	3	4	4	23_4_4	0	-1	1	0	4.17446208	246.0	-22.0	245.0	-23.0	1
3.0.1	2019_Mar_02_1529	s	s	1	1	SIC	437	4_2	4	2	2	2	23_2_2	2	0	1	0	0.533535957336	486.0	322.0	481.0	329.0	1
3.0.1	2019_Mar_02_1529	s	s	1	1	SIC	438	3_2	3	2	1	4	23_1_4	2	2	1	0	0.545742988586	420.0	96.0	410.0	100.0	1
3.0.1	2019_Mar_02_1529	s	s	1	1	SIC	439	2_2	2	2	4	1	23_4_1	2	-1	1	0	0.439417123795	-506.0	-11.0	-510.0	-8.0	1
3.0.1	2019_Mar_02_1529	s	s	1	1	SIC	440	ABS	0	0	4	3	24_4_3	NA	NA	0	1	0.999058961868	None	None	None	None	1
3.0.1	2019_Mar_02_1529	s	s	1	1	SIC	441	ABS	0	0	2	4	24_2_4	NA	NA	0	1	1.58707714081	None	None	None	None	1
3.0.1	2019_Mar_02_1529	s	s	1	1	SIC	442	ABS	0	0	2	3	24_2_3	NA	NA	0	1	2.59858083725	None	None	None	None	1
3.0.1	2019_Mar_02_1529	s	s	1	1	SIC	443	1_4	1	4	2	2	23_2_2	1	2	1	0	0.95706987381	370.0	-31.0	377.0	-30.0	1
3.0.1	2019_Mar_02_1529	s	s	1	1	SIC	444	ABS	0	0	1	3	24_1_3	NA	NA	0	1	5.23807692528	None	None	None	None	1
3.0.1	2019_Mar_02_1529	s	s	1	1	SIC	445	ABS	0	0	2	2	24_2_2	NA	NA	0	1	3.64819502831	None	None	None	None	1
3.0.1	2019_Mar_02_1529	s	s	1	1	SIC	446	1_2	1	2	1	4	23_1_4	0	2	1	0	1.12069892883	430.0	198.0	425.0	197.0	1
3.0.1	2019_Mar_02_1529	s	s	1	1	SIC	447	ABS	0	0	4	2	24_4_2	NA	NA	0	1	2.78960990906	None	None	None	None	1
3.0.1	2019_Mar_02_1529	s	s	1	1	SIC	448	ABS	0	0	1	4	24_1_4	NA	NA	0	1	1.99880504608	None	None	None	None	1
3.0.1	2019_Mar_02_1529	s	s	1	1	SIC	449	ABS	0	0	3	3	24_3_3	NA	NA	0	1	1.71645402908	None	None	None	None	1
3.0.1	2019_Mar_02_1529	s	s	1	1	SIC	450	ABS	0	0	2	1	24_2_1	NA	NA	0	1	3.09256696701	None	None	None	None	1
3.0.1	2019_Mar_02_1529	s	s	1	1	SIC	451	ABS	0	0	4	3	24_4_3	NA	NA	0	1	6.84966015816	None	None	None	None	1
3.0.1	2019_Mar_02_1529	s	s	1	1	SIC	452	ABS	0	0	1	1	24_1_1	NA	NA	0	1	3.17484211922	None	None	None	None	1
3.0.1	2019_Mar_02_1529	s	s	1	1	SIC	453	1_2	1	2	3	2	23_3_2	2	0	1	0	0.686224937439	273.0	-348.0	274.0	-346.0	1
3.0.1	2019_Mar_02_1529	s	s	1	1	SIC	454	ABS	0	0	4	2	24_4_2	NA	NA	0	1	1.10492610931	None	None	None	None	1
3.0.1	2019_Mar_02_1529	s	s	1	1	SIC	455	2_2	2	2	1	3	23_1_3	-1	1	1	0	1.69291090965	72.0	-29.0	65.0	-30.0	1
3.0.1	2019_Mar_02_1529	s	s	1	1	SIC	456	4_4	4	4	2	1	23_2_1	2	3	1	0	0.486679792404	-133.0	-179.0	-138.0	-178.0	1
3.0.1	2019_Mar_02_1529	s	s	1	1	SIC	457	ABS	0	0	3	1	24_3_1	NA	NA	0	1	1.71648812294	None	None	None	None	1
3.0.1	2019_Mar_02_1529	s	s	1	1	SIC	458	3_1	3	1	1	4	23_1_4	2	3	1	0	0.740233898163	341.0	162.0	341.0	165.0	1
3.0.1	2019_Mar_02_1529	s	s	1	1	SIC	459	ABS	0	0	3	3	24_3_3	NA	NA	0	1	2.31911993027	None	None	None	None	1
3.0.1	2019_Mar_02_1529	s	s	1	1	SIC	460	1_2	1	2	3	1	23_3_1	2	-1	1	0	0.575687885284	288.0	72.0	284.0	71.0	1
3.0.1	2019_Mar_02_1529	s	s	1	1	SIC	461	ABS	0	0	2	2	24_2_2	NA	NA	0	1	3.28540086746	None	None	None	None	1
3.0.1	2019_Mar_02_1529	s	s	1	1	SIC	462	3_3	3	3	2	1	23_2_1	1	2	1	0	0.698411941528	-455.0	83.0	-455.0	82.0	1
3.0.1	2019_Mar_02_1529	s	s	1	1	SIC	463	ABS	0	0	2	3	24_2_3	NA	NA	0	1	2.61320590973	None	None	None	None	1
3.0.1	2019_Mar_02_1529	s	s	1	1	SIC	464	3_1	3	1	2	2	23_2_2	1	1	1	0	0.72271490097	82.0	-207.0	76.0	-199.0	1
3.0.1	2019_Mar_02_1529	s	s	1	1	SIC	465	ABS	0	0	1	1	24_1_1	NA	NA	0	1	1.88611507416	None	None	None	None	1
3.0.1	2019_Mar_02_1529	s	s	1	1	SIC	466	2_3	2	3	4	3	23_4_3	2	0	1	0	0.67258810997	-351.0	-390.0	-342.0	-393.0	1
3.0.1	2019_Mar_02_1529	s	s	1	1	SIC	467	3_3	3	3	2	4	23_2_4	1	-1	1	0	1.05788707733	499.0	-208.0	496.0	-214.0	1
3.0.1	2019_Mar_02_1529	s	s	1	1	SIC	468	2_3	2	3	3	3	23_3_3	1	0	1	0	0.716727018356	-37.0	-349.0	-33.0	-353.0	1
3.0.1	2019_Mar_02_1529	s	s	1	1	SIC	469	1_3	1	3	2	2	23_2_2	1	1	1	0	3.20757389069	224.0	-23.0	224.0	-25.0	1
3.0.1	2019_Mar_02_1529	s	s	1	1	SIC	470	ABS	0	0	3	1	24_3_1	NA	NA	0	1	2.02872014046	None	None	None	None	1
3.0.1	2019_Mar_02_1529	s	s	1	1	SIC	471	3_1	3	1	4	1	23_4_1	-1	0	1	0	0.534910917282	148.0	385.0	142.0	379.0	1
3.0.1	2019_Mar_02_1529	s	s	1	1	SIC	472	ABS	0	0	4	1	24_4_1	NA	NA	0	1	1.03440189362	None	None	None	None	1
3.0.1	2019_Mar_02_1529	s	s	1	1	SIC	473	2_1	2	1	2	4	23_2_4	0	3	1	0	0.704996109009	-176.0	357.0	-174.0	353.0	1
3.0.1	2019_Mar_02_1529	s	s	1	1	SIC	474	ABS	0	0	2	3	24_2_3	NA	NA	0	1	4.31610989571	None	None	None	None	1
3.0.1	2019_Mar_02_1529	s	s	1	1	SIC	475	ABS	0	0	2	4	24_2_4	NA	NA	0	1	1.78706693649	None	None	None	None	1
3.0.1	2019_Mar_02_1529	s	s	1	1	SIC	476	3_2	3	2	3	1	23_3_1	0	-1	0	1	1.3846051693	-480.0	-128.0	None	None	0
3.0.1	2019_Mar_02_1529	s	s	1	1	SIC	477	3_2	3	2	1	1	23_1_1	2	-1	1	0	0.587290048599	-537.0	74.0	-538.0	75.0	1
3.0.1	2019_Mar_02_1529	s	s	1	1	SIC	478	1_2	1	2	2	3	23_2_3	1	1	1	0	4.64502120018	-132.0	-268.0	-119.0	-264.0	1
3.0.1	2019_Mar_02_1529	s	s	1	1	SIC	479	2_4	2	4	1	1	23_1_1	-1	3	1	0	0.817230939865	341.0	-127.0	340.0	-125.0	1
3.0.1	2019_Mar_02_1529	s	s	1	1	SIC	480	3_4	3	4	1	1	23_1_1	2	3	1	0	0.555042028427	313.0	155.0	316.0	154.0	1
