Version	Date	Stimuli	Method	Subject	Session	Condition	Trial	Target	TColor	TShape	DColor	DShape	Distractors	Channel1	Channel2	LMouseButton	RMouseButton	RT	TargetX	TargetY	ResponseX	ResponseY	Correct
3.0.1	2019_Mar_03_1505	s	s	1	2	Capacity	1	ABS	0	0	1	2	24_1_2	NA	NA	0	1	3.67202997208	None	None	None	None	1
3.0.1	2019_Mar_03_1505	s	s	1	2	Capacity	2	ABS	0	0	1	1	24_1_1	NA	NA	0	1	3.15134000778	None	None	None	None	1
3.0.1	2019_Mar_03_1505	s	s	1	2	Capacity	3	1_1	1	1	1	4	23_1_4	0	3	1	0	0.75213599205	476.0	-196.0	467.0	-193.0	1
3.0.1	2019_Mar_03_1505	s	s	1	2	Capacity	4	ABS	0	0	1	4	24_1_4	NA	NA	0	1	4.63319611549	None	None	None	None	1
3.0.1	2019_Mar_03_1505	s	s	1	2	Capacity	5	1_2	1	2	1	1	23_1_1	0	-1	1	0	1.2512691021	481.0	155.0	482.0	151.0	1
3.0.1	2019_Mar_03_1505	s	s	1	2	Capacity	6	1_4	1	4	1	3	23_1_3	0	1	1	0	0.152369022369	-210.0	-234.0	5.0	7.0	0
3.0.1	2019_Mar_03_1505	s	s	1	2	Capacity	7	1_3	1	3	1	1	23_1_1	0	2	1	0	1.15679907799	451.0	72.0	449.0	71.0	1
3.0.1	2019_Mar_03_1505	s	s	1	2	Capacity	8	1_4	1	4	1	1	23_1_1	0	3	1	0	0.82271194458	-280.0	306.0	-282.0	304.0	1
3.0.1	2019_Mar_03_1505	s	s	1	2	Capacity	9	ABS	0	0	1	3	24_1_3	NA	NA	0	1	3.14345502853	None	None	None	None	1
3.0.1	2019_Mar_03_1505	s	s	1	2	Capacity	10	ABS	0	0	1	1	24_1_1	NA	NA	0	1	3.35127019882	None	None	None	None	1
3.0.1	2019_Mar_03_1505	s	s	1	2	Capacity	11	1_1	1	1	1	3	23_1_3	0	2	1	0	1.24608802795	377.0	63.0	379.0	64.0	1
3.0.1	2019_Mar_03_1505	s	s	1	2	Capacity	12	1_2	1	2	1	3	23_1_3	0	1	1	0	5.86813998222	72.0	-407.0	74.0	-419.0	1
3.0.1	2019_Mar_03_1505	s	s	1	2	Capacity	13	1_3	1	3	1	4	23_1_4	0	-1	1	0	0.813502073288	-421.0	20.0	-422.0	17.0	1
3.0.1	2019_Mar_03_1505	s	s	1	2	Capacity	14	ABS	0	0	1	2	24_1_2	NA	NA	0	1	4.86830806732	None	None	None	None	1
3.0.1	2019_Mar_03_1505	s	s	1	2	Capacity	15	ABS	0	0	1	3	24_1_3	NA	NA	0	1	5.53884410858	None	None	None	None	1
3.0.1	2019_Mar_03_1505	s	s	1	2	Capacity	16	ABS	0	0	1	4	24_1_4	NA	NA	0	1	3.18663406372	None	None	None	None	1
3.0.1	2019_Mar_03_1505	s	s	1	2	Capacity	17	ABS	0	0	1	2	24_1_2	NA	NA	0	1	5.69168806076	None	None	None	None	1
3.0.1	2019_Mar_03_1505	s	s	1	2	Capacity	18	ABS	0	0	1	3	24_1_3	NA	NA	0	1	4.33922481537	None	None	None	None	1
3.0.1	2019_Mar_03_1505	s	s	1	2	Capacity	19	ABS	0	0	1	4	24_1_4	NA	NA	0	1	2.90721893311	None	None	None	None	1
3.0.1	2019_Mar_03_1505	s	s	1	2	Capacity	20	ABS	0	0	1	1	24_1_1	NA	NA	0	1	4.22872495651	None	None	None	None	1
3.0.1	2019_Mar_03_1505	s	s	1	2	Capacity	21	1_4	1	4	1	2	23_1_2	0	2	1	0	0.945853948593	115.0	145.0	118.0	147.0	1
3.0.1	2019_Mar_03_1505	s	s	1	2	Capacity	22	1_3	1	3	1	2	23_1_2	0	1	1	0	1.79088306427	-19.0	-114.0	-21.0	-115.0	1
3.0.1	2019_Mar_03_1505	s	s	1	2	Capacity	23	1_2	1	2	1	4	23_1_4	0	2	1	0	0.855237960815	-85.0	262.0	-83.0	261.0	1
3.0.1	2019_Mar_03_1505	s	s	1	2	Capacity	24	1_1	1	1	1	2	23_1_2	0	1	1	0	0.987200021744	-235.0	251.0	-235.0	242.0	1
3.0.1	2019_Mar_03_1505	s	s	1	2	Capacity	25	1_4	1	4	1	2	23_1_2	0	2	1	0	2.24569392204	-7.0	-387.0	-9.0	-387.0	1
3.0.1	2019_Mar_03_1505	s	s	1	2	Capacity	26	ABS	0	0	1	4	24_1_4	NA	NA	0	1	2.41715216637	None	None	None	None	1
3.0.1	2019_Mar_03_1505	s	s	1	2	Capacity	27	ABS	0	0	1	2	24_1_2	NA	NA	0	1	5.69193792343	None	None	None	None	1
3.0.1	2019_Mar_03_1505	s	s	1	2	Capacity	28	ABS	0	0	1	4	24_1_4	NA	NA	0	1	2.69780302048	None	None	None	None	1
3.0.1	2019_Mar_03_1505	s	s	1	2	Capacity	29	1_3	1	3	1	2	23_1_2	0	1	1	0	1.3343539238	180.0	-75.0	182.0	-75.0	1
3.0.1	2019_Mar_03_1505	s	s	1	2	Capacity	30	1_1	1	1	1	4	23_1_4	0	3	1	0	0.540395021439	13.0	152.0	18.0	153.0	1
3.0.1	2019_Mar_03_1505	s	s	1	2	Capacity	31	1_1	1	1	1	2	23_1_2	0	1	1	0	3.42468595505	-428.0	-224.0	-425.0	-221.0	1
3.0.1	2019_Mar_03_1505	s	s	1	2	Capacity	32	1_3	1	3	1	1	23_1_1	0	2	1	0	0.790228128433	-313.0	-202.0	-320.0	-200.0	1
3.0.1	2019_Mar_03_1505	s	s	1	2	Capacity	33	1_4	1	4	1	1	23_1_1	0	3	1	0	1.48117899895	-416.0	366.0	-411.0	362.0	1
3.0.1	2019_Mar_03_1505	s	s	1	2	Capacity	34	ABS	0	0	1	4	24_1_4	NA	NA	0	1	2.31627106667	None	None	None	None	1
3.0.1	2019_Mar_03_1505	s	s	1	2	Capacity	35	ABS	0	0	1	1	24_1_1	NA	NA	0	1	2.20363402367	None	None	None	None	1
3.0.1	2019_Mar_03_1505	s	s	1	2	Capacity	36	1_1	1	1	1	3	23_1_3	0	2	1	0	1.54002904892	149.0	-223.0	157.0	-223.0	1
3.0.1	2019_Mar_03_1505	s	s	1	2	Capacity	37	ABS	0	0	1	3	24_1_3	NA	NA	0	1	6.40235495567	None	None	None	None	1
3.0.1	2019_Mar_03_1505	s	s	1	2	Capacity	38	1_4	1	4	1	3	23_1_3	0	1	1	0	3.04831814766	323.0	-332.0	325.0	-326.0	1
3.0.1	2019_Mar_03_1505	s	s	1	2	Capacity	39	1_2	1	2	1	3	23_1_3	0	1	1	0	3.69247102737	-399.0	147.0	-408.0	146.0	1
3.0.1	2019_Mar_03_1505	s	s	1	2	Capacity	40	ABS	0	0	1	1	24_1_1	NA	NA	0	1	2.28096008301	None	None	None	None	1
3.0.1	2019_Mar_03_1505	s	s	1	2	Capacity	41	ABS	0	0	1	2	24_1_2	NA	NA	0	1	7.5029270649	None	None	None	None	1
3.0.1	2019_Mar_03_1505	s	s	1	2	Capacity	42	ABS	0	0	1	2	24_1_2	NA	NA	0	1	5.79757094383	None	None	None	None	1
3.0.1	2019_Mar_03_1505	s	s	1	2	Capacity	43	1_2	1	2	1	4	23_1_4	0	2	1	0	0.740222930908	289.0	396.0	297.0	390.0	1
3.0.1	2019_Mar_03_1505	s	s	1	2	Capacity	44	ABS	0	0	1	3	24_1_3	NA	NA	0	1	7.91191506386	None	None	None	None	1
3.0.1	2019_Mar_03_1505	s	s	1	2	Capacity	45	ABS	0	0	1	1	24_1_1	NA	NA	0	1	3.54395103455	None	None	None	None	1
3.0.1	2019_Mar_03_1505	s	s	1	2	Capacity	46	1_3	1	3	1	4	23_1_4	0	-1	1	0	0.710216999054	447.0	-14.0	450.0	-19.0	1
3.0.1	2019_Mar_03_1505	s	s	1	2	Capacity	47	1_2	1	2	1	1	23_1_1	0	-1	0	1	3.00200390816	-493.0	-3.0	None	None	0
3.0.1	2019_Mar_03_1505	s	s	1	2	Capacity	48	ABS	0	0	1	3	24_1_3	NA	NA	0	1	4.64500498772	None	None	None	None	1
3.0.1	2019_Mar_03_1505	s	s	1	2	Capacity	49	1_2	1	2	1	4	23_1_4	0	2	1	0	0.721336126328	-156.0	392.0	-155.0	393.0	1
3.0.1	2019_Mar_03_1505	s	s	1	2	Capacity	50	1_1	1	1	1	3	23_1_3	0	2	1	0	1.12843704224	-136.0	-230.0	-133.0	-227.0	1
3.0.1	2019_Mar_03_1505	s	s	1	2	Capacity	51	ABS	0	0	1	4	24_1_4	NA	NA	0	1	3.22190093994	None	None	None	None	1
3.0.1	2019_Mar_03_1505	s	s	1	2	Capacity	52	1_3	1	3	1	1	23_1_1	0	2	1	0	1.05782079697	152.0	150.0	150.0	145.0	1
3.0.1	2019_Mar_03_1505	s	s	1	2	Capacity	53	1_2	1	2	1	1	23_1_1	0	-1	0	1	1.78992390633	505.0	162.0	None	None	0
3.0.1	2019_Mar_03_1505	s	s	1	2	Capacity	54	1_1	1	1	1	4	23_1_4	0	3	1	0	0.668854951859	398.0	-67.0	400.0	-63.0	1
3.0.1	2019_Mar_03_1505	s	s	1	2	Capacity	55	ABS	0	0	1	3	24_1_3	NA	NA	0	1	4.16314482689	None	None	None	None	1
3.0.1	2019_Mar_03_1505	s	s	1	2	Capacity	56	1_3	1	3	1	4	23_1_4	0	-1	1	0	0.611315011978	449.0	63.0	443.0	62.0	1
3.0.1	2019_Mar_03_1505	s	s	1	2	Capacity	57	ABS	0	0	1	4	24_1_4	NA	NA	0	1	2.44596099854	None	None	None	None	1
3.0.1	2019_Mar_03_1505	s	s	1	2	Capacity	58	ABS	0	0	1	2	24_1_2	NA	NA	0	1	4.49215602875	None	None	None	None	1
3.0.1	2019_Mar_03_1505	s	s	1	2	Capacity	59	ABS	0	0	1	4	24_1_4	NA	NA	0	1	2.04575204849	None	None	None	None	1
3.0.1	2019_Mar_03_1505	s	s	1	2	Capacity	60	1_1	1	1	1	2	23_1_2	0	1	1	0	3.56294798851	-536.0	-260.0	-535.0	-260.0	1
3.0.1	2019_Mar_03_1505	s	s	1	2	Capacity	61	ABS	0	0	1	3	24_1_3	NA	NA	0	1	5.14816498756	None	None	None	None	1
3.0.1	2019_Mar_03_1505	s	s	1	2	Capacity	62	1_2	1	2	1	3	23_1_3	0	1	1	0	3.62654590607	349.0	87.0	350.0	87.0	1
3.0.1	2019_Mar_03_1505	s	s	1	2	Capacity	63	ABS	0	0	1	2	24_1_2	NA	NA	0	1	4.61253213882	None	None	None	None	1
3.0.1	2019_Mar_03_1505	s	s	1	2	Capacity	64	1_3	1	3	1	2	23_1_2	0	1	1	0	3.92754793167	-204.0	-324.0	-204.0	-333.0	1
3.0.1	2019_Mar_03_1505	s	s	1	2	Capacity	65	1_4	1	4	1	2	23_1_2	0	2	1	0	0.987290859222	-354.0	302.0	-353.0	301.0	1
3.0.1	2019_Mar_03_1505	s	s	1	2	Capacity	66	ABS	0	0	1	1	24_1_1	NA	NA	0	1	2.9722878933	None	None	None	None	1
3.0.1	2019_Mar_03_1505	s	s	1	2	Capacity	67	ABS	0	0	1	1	24_1_1	NA	NA	0	1	2.47307682037	None	None	None	None	1
3.0.1	2019_Mar_03_1505	s	s	1	2	Capacity	68	ABS	0	0	1	3	24_1_3	NA	NA	0	1	8.4479970932	None	None	None	None	1
3.0.1	2019_Mar_03_1505	s	s	1	2	Capacity	69	1_4	1	4	1	3	23_1_3	0	1	1	0	1.0225789547	509.0	-32.0	509.0	-32.0	1
3.0.1	2019_Mar_03_1505	s	s	1	2	Capacity	70	1_4	1	4	1	1	23_1_1	0	3	1	0	0.569035053253	293.0	137.0	293.0	143.0	1
3.0.1	2019_Mar_03_1505	s	s	1	2	Capacity	71	ABS	0	0	1	2	24_1_2	NA	NA	0	1	6.15043592453	None	None	None	None	1
3.0.1	2019_Mar_03_1505	s	s	1	2	Capacity	72	ABS	0	0	1	1	24_1_1	NA	NA	0	1	2.9278690815	None	None	None	None	1
3.0.1	2019_Mar_03_1505	s	s	1	2	Capacity	73	1_4	1	4	1	2	23_1_2	0	2	1	0	0.505008220673	-374.0	299.0	-366.0	299.0	1
3.0.1	2019_Mar_03_1505	s	s	1	2	Capacity	74	ABS	0	0	1	4	24_1_4	NA	NA	0	1	2.43458008766	None	None	None	None	1
3.0.1	2019_Mar_03_1505	s	s	1	2	Capacity	75	ABS	0	0	1	2	24_1_2	NA	NA	0	1	7.40144586563	None	None	None	None	1
3.0.1	2019_Mar_03_1505	s	s	1	2	Capacity	76	ABS	0	0	1	1	24_1_1	NA	NA	0	1	2.40273213387	None	None	None	None	1
3.0.1	2019_Mar_03_1505	s	s	1	2	Capacity	77	1_4	1	4	1	1	23_1_1	0	3	1	0	0.657941818237	-64.0	381.0	-62.0	381.0	1
3.0.1	2019_Mar_03_1505	s	s	1	2	Capacity	78	1_3	1	3	1	2	23_1_2	0	1	1	0	1.09310603142	-374.0	190.0	-377.0	190.0	1
3.0.1	2019_Mar_03_1505	s	s	1	2	Capacity	79	ABS	0	0	1	3	24_1_3	NA	NA	0	1	5.10360908508	None	None	None	None	1
3.0.1	2019_Mar_03_1505	s	s	1	2	Capacity	80	ABS	0	0	1	1	24_1_1	NA	NA	0	1	3.04540801048	None	None	None	None	1
3.0.1	2019_Mar_03_1505	s	s	1	2	Capacity	81	1_3	1	3	1	1	23_1_1	0	2	1	0	0.907813072205	-205.0	365.0	-199.0	366.0	1
3.0.1	2019_Mar_03_1505	s	s	1	2	Capacity	82	ABS	0	0	1	1	24_1_1	NA	NA	0	1	1.76344180107	None	None	None	None	1
3.0.1	2019_Mar_03_1505	s	s	1	2	Capacity	83	ABS	0	0	1	3	24_1_3	NA	NA	0	1	4.22154903412	None	None	None	None	1
3.0.1	2019_Mar_03_1505	s	s	1	2	Capacity	84	ABS	0	0	1	2	24_1_2	NA	NA	0	1	7.76168417931	None	None	None	None	1
3.0.1	2019_Mar_03_1505	s	s	1	2	Capacity	85	1_3	1	3	1	4	23_1_4	0	-1	1	0	0.651346921921	417.0	176.0	417.0	178.0	1
3.0.1	2019_Mar_03_1505	s	s	1	2	Capacity	86	ABS	0	0	1	4	24_1_4	NA	NA	0	1	1.84575986862	None	None	None	None	1
3.0.1	2019_Mar_03_1505	s	s	1	2	Capacity	87	ABS	0	0	1	3	24_1_3	NA	NA	0	1	5.50651192665	None	None	None	None	1
3.0.1	2019_Mar_03_1505	s	s	1	2	Capacity	88	1_1	1	1	1	4	23_1_4	0	3	1	0	0.855371952057	283.0	-264.0	279.0	-260.0	1
3.0.1	2019_Mar_03_1505	s	s	1	2	Capacity	89	ABS	0	0	1	2	24_1_2	NA	NA	0	1	3.06098079681	None	None	None	None	1
3.0.1	2019_Mar_03_1505	s	s	1	2	Capacity	90	1_2	1	2	1	3	23_1_3	0	1	1	0	2.17514801025	-334.0	-51.0	-337.0	-46.0	1
3.0.1	2019_Mar_03_1505	s	s	1	2	Capacity	91	1_4	1	4	1	3	23_1_3	0	1	1	0	1.04610610008	229.0	-185.0	222.0	-181.0	1
3.0.1	2019_Mar_03_1505	s	s	1	2	Capacity	92	1_2	1	2	1	4	23_1_4	0	2	1	0	0.693243026733	49.0	-234.0	49.0	-231.0	1
3.0.1	2019_Mar_03_1505	s	s	1	2	Capacity	93	1_1	1	1	1	3	23_1_3	0	2	1	0	0.940180778503	385.0	250.0	386.0	254.0	1
3.0.1	2019_Mar_03_1505	s	s	1	2	Capacity	94	1_1	1	1	1	2	23_1_2	0	1	1	0	2.11108398438	-250.0	249.0	-255.0	248.0	1
3.0.1	2019_Mar_03_1505	s	s	1	2	Capacity	95	1_2	1	2	1	1	23_1_1	0	-1	1	0	2.21039605141	380.0	295.0	380.0	292.0	1
3.0.1	2019_Mar_03_1505	s	s	1	2	Capacity	96	ABS	0	0	1	4	24_1_4	NA	NA	0	1	3.621778965	None	None	None	None	1
3.0.1	2019_Mar_03_1505	s	s	1	2	Capacity	1	ABS	0	0	1	1	24_1_1	NA	NA	0	1	3.03386211395	None	None	None	None	1
3.0.1	2019_Mar_03_1505	s	s	1	2	Capacity	2	ABS	0	0	3	1	24_3_1	NA	NA	0	1	1.14551711082	None	None	None	None	1
3.0.1	2019_Mar_03_1505	s	s	1	2	Capacity	3	ABS	0	0	3	1	24_3_1	NA	NA	0	1	1.29835510254	None	None	None	None	1
3.0.1	2019_Mar_03_1505	s	s	1	2	Capacity	4	3_1	3	1	1	1	23_1_1	2	0	1	0	0.790230989456	45.0	60.0	41.0	61.0	1
3.0.1	2019_Mar_03_1505	s	s	1	2	Capacity	5	ABS	0	0	3	1	24_3_1	NA	NA	0	1	1.83407115936	None	None	None	None	1
3.0.1	2019_Mar_03_1505	s	s	1	2	Capacity	6	ABS	0	0	4	1	24_4_1	NA	NA	0	1	0.999021053314	None	None	None	None	1
3.0.1	2019_Mar_03_1505	s	s	1	2	Capacity	7	ABS	0	0	2	1	24_2_1	NA	NA	0	1	5.97728610039	None	None	None	None	1
3.0.1	2019_Mar_03_1505	s	s	1	2	Capacity	8	ABS	0	0	4	1	24_4_1	NA	NA	0	1	1.51931500435	None	None	None	None	1
3.0.1	2019_Mar_03_1505	s	s	1	2	Capacity	9	1_1	1	1	4	1	23_4_1	3	0	1	0	0.473985910416	146.0	392.0	143.0	391.0	1
3.0.1	2019_Mar_03_1505	s	s	1	2	Capacity	10	4_1	4	1	2	1	23_2_1	2	0	1	0	0.587421894073	453.0	-76.0	449.0	-77.0	1
3.0.1	2019_Mar_03_1505	s	s	1	2	Capacity	11	4_1	4	1	3	1	23_3_1	1	0	1	0	0.540302991867	151.0	-158.0	144.0	-160.0	1
3.0.1	2019_Mar_03_1505	s	s	1	2	Capacity	12	1_1	1	1	3	1	23_3_1	2	0	1	0	0.672642946243	265.0	188.0	265.0	188.0	1
3.0.1	2019_Mar_03_1505	s	s	1	2	Capacity	13	ABS	0	0	2	1	24_2_1	NA	NA	0	1	7.58093690872	None	None	None	None	1
3.0.1	2019_Mar_03_1505	s	s	1	2	Capacity	14	ABS	0	0	1	1	24_1_1	NA	NA	0	1	4.33920001984	None	None	None	None	1
3.0.1	2019_Mar_03_1505	s	s	1	2	Capacity	15	3_1	3	1	2	1	23_2_1	1	0	1	0	1.74878287315	22.0	-404.0	23.0	-408.0	1
3.0.1	2019_Mar_03_1505	s	s	1	2	Capacity	16	3_1	3	1	4	1	23_4_1	-1	0	1	0	0.528650045395	454.0	-402.0	451.0	-403.0	1
3.0.1	2019_Mar_03_1505	s	s	1	2	Capacity	17	2_1	2	1	4	1	23_4_1	2	0	1	0	0.485341072083	31.0	298.0	23.0	296.0	1
3.0.1	2019_Mar_03_1505	s	s	1	2	Capacity	18	1_1	1	1	2	1	23_2_1	1	0	1	0	1.27427101135	65.0	-36.0	69.0	-39.0	1
3.0.1	2019_Mar_03_1505	s	s	1	2	Capacity	19	2_1	2	1	1	1	23_1_1	-1	0	1	0	1.16412782669	293.0	19.0	298.0	19.0	1
3.0.1	2019_Mar_03_1505	s	s	1	2	Capacity	20	2_1	2	1	3	1	23_3_1	1	0	1	0	0.51681303978	-384.0	103.0	-390.0	103.0	1
3.0.1	2019_Mar_03_1505	s	s	1	2	Capacity	21	4_1	4	1	1	1	23_1_1	3	0	1	0	0.505030870438	319.0	172.0	317.0	177.0	1
3.0.1	2019_Mar_03_1505	s	s	1	2	Capacity	22	ABS	0	0	2	1	24_2_1	NA	NA	0	1	6.31498193741	None	None	None	None	1
3.0.1	2019_Mar_03_1505	s	s	1	2	Capacity	23	ABS	0	0	4	1	24_4_1	NA	NA	0	1	0.967733860016	None	None	None	None	1
3.0.1	2019_Mar_03_1505	s	s	1	2	Capacity	24	ABS	0	0	1	1	24_1_1	NA	NA	0	1	3.55404901505	None	None	None	None	1
3.0.1	2019_Mar_03_1505	s	s	1	2	Capacity	25	3_1	3	1	4	1	23_4_1	-1	0	1	0	0.639376878738	13.0	-187.0	10.0	-185.0	1
3.0.1	2019_Mar_03_1505	s	s	1	2	Capacity	26	ABS	0	0	2	1	24_2_1	NA	NA	0	1	5.58018302917	None	None	None	None	1
3.0.1	2019_Mar_03_1505	s	s	1	2	Capacity	27	ABS	0	0	3	1	24_3_1	NA	NA	0	1	1.810765028	None	None	None	None	1
3.0.1	2019_Mar_03_1505	s	s	1	2	Capacity	28	ABS	0	0	2	1	24_2_1	NA	NA	0	1	7.9784309864	None	None	None	None	1
3.0.1	2019_Mar_03_1505	s	s	1	2	Capacity	29	3_1	3	1	1	1	23_1_1	2	0	1	0	0.473783969879	-353.0	176.0	-353.0	168.0	1
3.0.1	2019_Mar_03_1505	s	s	1	2	Capacity	30	ABS	0	0	1	1	24_1_1	NA	NA	0	1	2.39854717255	None	None	None	None	1
3.0.1	2019_Mar_03_1505	s	s	1	2	Capacity	31	2_1	2	1	3	1	23_3_1	1	0	1	0	0.698739051819	389.0	-323.0	398.0	-325.0	1
3.0.1	2019_Mar_03_1505	s	s	1	2	Capacity	32	1_1	1	1	3	1	23_3_1	2	0	1	0	0.57554602623	299.0	-77.0	295.0	-74.0	1
3.0.1	2019_Mar_03_1505	s	s	1	2	Capacity	33	ABS	0	0	2	1	24_2_1	NA	NA	0	1	5.68613815308	None	None	None	None	1
3.0.1	2019_Mar_03_1505	s	s	1	2	Capacity	34	4_1	4	1	2	1	23_2_1	2	0	1	0	0.430357933044	290.0	-74.0	284.0	-69.0	1
3.0.1	2019_Mar_03_1505	s	s	1	2	Capacity	35	2_1	2	1	1	1	23_1_1	-1	0	1	0	1.9403219223	211.0	-330.0	219.0	-335.0	1
3.0.1	2019_Mar_03_1505	s	s	1	2	Capacity	36	ABS	0	0	3	1	24_3_1	NA	NA	0	1	2.23433899879	None	None	None	None	1
3.0.1	2019_Mar_03_1505	s	s	1	2	Capacity	37	ABS	0	0	3	1	24_3_1	NA	NA	0	1	1.19889807701	None	None	None	None	1
3.0.1	2019_Mar_03_1505	s	s	1	2	Capacity	38	ABS	0	0	4	1	24_4_1	NA	NA	0	1	0.790251016617	None	None	None	None	1
3.0.1	2019_Mar_03_1505	s	s	1	2	Capacity	39	4_1	4	1	1	1	23_1_1	3	0	1	0	0.469730854034	166.0	23.0	170.0	20.0	1
3.0.1	2019_Mar_03_1505	s	s	1	2	Capacity	40	1_1	1	1	2	1	23_2_1	1	0	1	0	0.731418848038	-336.0	-176.0	-338.0	-167.0	1
3.0.1	2019_Mar_03_1505	s	s	1	2	Capacity	41	ABS	0	0	1	1	24_1_1	NA	NA	0	1	3.87527108192	None	None	None	None	1
3.0.1	2019_Mar_03_1505	s	s	1	2	Capacity	42	2_1	2	1	4	1	23_4_1	2	0	1	0	0.561458110809	76.0	-25.0	66.0	-26.0	1
3.0.1	2019_Mar_03_1505	s	s	1	2	Capacity	43	ABS	0	0	4	1	24_4_1	NA	NA	0	1	1.26058602333	None	None	None	None	1
3.0.1	2019_Mar_03_1505	s	s	1	2	Capacity	44	4_1	4	1	3	1	23_3_1	1	0	1	0	0.469725847244	93.0	-44.0	88.0	-36.0	1
3.0.1	2019_Mar_03_1505	s	s	1	2	Capacity	45	3_1	3	1	2	1	23_2_1	1	0	1	0	0.550019025803	79.0	235.0	76.0	230.0	1
3.0.1	2019_Mar_03_1505	s	s	1	2	Capacity	46	1_1	1	1	4	1	23_4_1	3	0	1	0	0.446290969849	-391.0	69.0	-384.0	69.0	1
3.0.1	2019_Mar_03_1505	s	s	1	2	Capacity	47	ABS	0	0	4	1	24_4_1	NA	NA	0	1	0.981712818146	None	None	None	None	1
3.0.1	2019_Mar_03_1505	s	s	1	2	Capacity	48	ABS	0	0	1	1	24_1_1	NA	NA	0	1	4.55377292633	None	None	None	None	1
3.0.1	2019_Mar_03_1505	s	s	1	2	Capacity	49	1_1	1	1	3	1	23_3_1	2	0	1	0	0.670121908188	-401.0	-349.0	-396.0	-354.0	1
3.0.1	2019_Mar_03_1505	s	s	1	2	Capacity	50	ABS	0	0	2	1	24_2_1	NA	NA	0	1	5.65646505356	None	None	None	None	1
3.0.1	2019_Mar_03_1505	s	s	1	2	Capacity	51	3_1	3	1	2	1	23_2_1	1	0	1	0	0.474892854691	-15.0	-95.0	-12.0	-92.0	1
3.0.1	2019_Mar_03_1505	s	s	1	2	Capacity	52	ABS	0	0	3	1	24_3_1	NA	NA	0	1	2.0252289772	None	None	None	None	1
3.0.1	2019_Mar_03_1505	s	s	1	2	Capacity	53	ABS	0	0	4	1	24_4_1	NA	NA	0	1	0.857846021652	None	None	None	None	1
3.0.1	2019_Mar_03_1505	s	s	1	2	Capacity	54	2_1	2	1	1	1	23_1_1	-1	0	1	0	1.17544698715	-62.0	359.0	-60.0	363.0	1
3.0.1	2019_Mar_03_1505	s	s	1	2	Capacity	55	1_1	1	1	2	1	23_2_1	1	0	0	1	3.57471299171	88.0	-265.0	None	None	0
3.0.1	2019_Mar_03_1505	s	s	1	2	Capacity	56	4_1	4	1	3	1	23_3_1	1	0	1	0	0.621438980103	-402.0	-39.0	-396.0	-34.0	1
3.0.1	2019_Mar_03_1505	s	s	1	2	Capacity	57	ABS	0	0	2	1	24_2_1	NA	NA	0	1	7.01294589043	None	None	None	None	1
3.0.1	2019_Mar_03_1505	s	s	1	2	Capacity	58	ABS	0	0	4	1	24_4_1	NA	NA	0	1	0.658047914505	None	None	None	None	1
3.0.1	2019_Mar_03_1505	s	s	1	2	Capacity	59	ABS	0	0	3	1	24_3_1	NA	NA	0	1	0.822606086731	None	None	None	None	1
3.0.1	2019_Mar_03_1505	s	s	1	2	Capacity	60	ABS	0	0	3	1	24_3_1	NA	NA	0	1	1.64584493637	None	None	None	None	1
3.0.1	2019_Mar_03_1505	s	s	1	2	Capacity	61	4_1	4	1	2	1	23_2_1	2	0	1	0	0.481965065002	-168.0	-132.0	-171.0	-134.0	1
3.0.1	2019_Mar_03_1505	s	s	1	2	Capacity	62	4_1	4	1	1	1	23_1_1	3	0	1	0	0.540353059769	-406.0	63.0	-399.0	62.0	1
3.0.1	2019_Mar_03_1505	s	s	1	2	Capacity	63	ABS	0	0	1	1	24_1_1	NA	NA	0	1	2.28449988365	None	None	None	None	1
3.0.1	2019_Mar_03_1505	s	s	1	2	Capacity	64	ABS	0	0	2	1	24_2_1	NA	NA	0	1	2.28138494492	None	None	None	None	1
3.0.1	2019_Mar_03_1505	s	s	1	2	Capacity	65	3_1	3	1	4	1	23_4_1	-1	0	1	0	0.481524944305	468.0	-70.0	464.0	-69.0	1
3.0.1	2019_Mar_03_1505	s	s	1	2	Capacity	66	3_1	3	1	1	1	23_1_1	2	0	1	0	0.591488838196	240.0	-368.0	244.0	-377.0	1
3.0.1	2019_Mar_03_1505	s	s	1	2	Capacity	67	2_1	2	1	3	1	23_3_1	1	0	1	0	0.533334970474	-31.0	22.0	-29.0	22.0	1
3.0.1	2019_Mar_03_1505	s	s	1	2	Capacity	68	ABS	0	0	1	1	24_1_1	NA	NA	0	1	4.36270499229	None	None	None	None	1
3.0.1	2019_Mar_03_1505	s	s	1	2	Capacity	69	1_1	1	1	4	1	23_4_1	3	0	1	0	0.451673984528	218.0	209.0	216.0	202.0	1
3.0.1	2019_Mar_03_1505	s	s	1	2	Capacity	70	2_1	2	1	4	1	23_4_1	2	0	1	0	0.437345981598	324.0	-215.0	331.0	-213.0	1
3.0.1	2019_Mar_03_1505	s	s	1	2	Capacity	71	ABS	0	0	4	1	24_4_1	NA	NA	0	1	1.4694378376	None	None	None	None	1
3.0.1	2019_Mar_03_1505	s	s	1	2	Capacity	72	ABS	0	0	1	1	24_1_1	NA	NA	0	1	1.8222720623	None	None	None	None	1
3.0.1	2019_Mar_03_1505	s	s	1	2	Capacity	73	ABS	0	0	3	1	24_3_1	NA	NA	0	1	1.11127996445	None	None	None	None	1
3.0.1	2019_Mar_03_1505	s	s	1	2	Capacity	74	3_1	3	1	2	1	23_2_1	1	0	1	0	0.540410995483	-291.0	-145.0	-302.0	-143.0	1
3.0.1	2019_Mar_03_1505	s	s	1	2	Capacity	75	ABS	0	0	2	1	24_2_1	NA	NA	0	1	2.496571064	None	None	None	None	1
3.0.1	2019_Mar_03_1505	s	s	1	2	Capacity	76	ABS	0	0	1	1	24_1_1	NA	NA	0	1	2.46910595894	None	None	None	None	1
3.0.1	2019_Mar_03_1505	s	s	1	2	Capacity	77	1_1	1	1	4	1	23_4_1	3	0	1	0	0.53329205513	492.0	-396.0	487.0	-387.0	1
3.0.1	2019_Mar_03_1505	s	s	1	2	Capacity	78	2_1	2	1	1	1	23_1_1	-1	0	0	1	1.73999118805	400.0	-22.0	None	None	0
3.0.1	2019_Mar_03_1505	s	s	1	2	Capacity	79	ABS	0	0	4	1	24_4_1	NA	NA	0	1	1.1092839241	None	None	None	None	1
3.0.1	2019_Mar_03_1505	s	s	1	2	Capacity	80	ABS	0	0	3	1	24_3_1	NA	NA	0	1	2.12846088409	None	None	None	None	1
3.0.1	2019_Mar_03_1505	s	s	1	2	Capacity	81	ABS	0	0	4	1	24_4_1	NA	NA	0	1	0.912986040115	None	None	None	None	1
3.0.1	2019_Mar_03_1505	s	s	1	2	Capacity	82	4_1	4	1	3	1	23_3_1	1	0	1	0	0.528602838516	109.0	-158.0	118.0	-156.0	1
3.0.1	2019_Mar_03_1505	s	s	1	2	Capacity	83	1_1	1	1	3	1	23_3_1	2	0	1	0	0.469760894775	92.0	-174.0	84.0	-165.0	1
3.0.1	2019_Mar_03_1505	s	s	1	2	Capacity	84	ABS	0	0	2	1	24_2_1	NA	NA	0	1	4.86280703545	None	None	None	None	1
3.0.1	2019_Mar_03_1505	s	s	1	2	Capacity	85	ABS	0	0	3	1	24_3_1	NA	NA	0	1	0.85448384285	None	None	None	None	1
3.0.1	2019_Mar_03_1505	s	s	1	2	Capacity	86	2_1	2	1	3	1	23_3_1	1	0	0	1	0.557507991791	281.0	-383.0	None	None	0
3.0.1	2019_Mar_03_1505	s	s	1	2	Capacity	87	ABS	0	0	1	1	24_1_1	NA	NA	0	1	1.52817893028	None	None	None	None	1
3.0.1	2019_Mar_03_1505	s	s	1	2	Capacity	88	2_1	2	1	4	1	23_4_1	2	0	1	0	0.434911966324	-113.0	183.0	-106.0	180.0	1
3.0.1	2019_Mar_03_1505	s	s	1	2	Capacity	89	ABS	0	0	2	1	24_2_1	NA	NA	0	1	3.73723006248	None	None	None	None	1
3.0.1	2019_Mar_03_1505	s	s	1	2	Capacity	90	4_1	4	1	1	1	23_1_1	3	0	1	0	0.410995006561	62.0	-233.0	58.0	-226.0	1
3.0.1	2019_Mar_03_1505	s	s	1	2	Capacity	91	3_1	3	1	4	1	23_4_1	-1	0	1	0	0.591946840286	-101.0	-378.0	-94.0	-368.0	1
3.0.1	2019_Mar_03_1505	s	s	1	2	Capacity	92	ABS	0	0	1	1	24_1_1	NA	NA	0	1	3.31861305237	None	None	None	None	1
3.0.1	2019_Mar_03_1505	s	s	1	2	Capacity	93	ABS	0	0	4	1	24_4_1	NA	NA	0	1	1.20178699493	None	None	None	None	1
3.0.1	2019_Mar_03_1505	s	s	1	2	Capacity	94	1_1	1	1	2	1	23_2_1	1	0	1	0	2.06929111481	139.0	-162.0	136.0	-162.0	1
3.0.1	2019_Mar_03_1505	s	s	1	2	Capacity	95	4_1	4	1	2	1	23_2_1	2	0	1	0	0.775595903397	322.0	-101.0	334.0	-98.0	1
3.0.1	2019_Mar_03_1505	s	s	1	2	Capacity	96	3_1	3	1	1	1	23_1_1	2	0	1	0	0.587321043015	272.0	-148.0	277.0	-145.0	1
3.0.1	2019_Mar_03_1505	s	s	1	2	SIC	1	ABS	0	0	2	4	24_2_4	NA	NA	0	1	3.45707011223	None	None	None	None	1
3.0.1	2019_Mar_03_1505	s	s	1	2	SIC	2	1_3	1	3	3	1	23_3_1	2	2	1	0	0.634453058243	-194.0	-374.0	-202.0	-380.0	1
3.0.1	2019_Mar_03_1505	s	s	1	2	SIC	3	ABS	0	0	3	1	24_3_1	NA	NA	0	1	3.322660923	None	None	None	None	1
3.0.1	2019_Mar_03_1505	s	s	1	2	SIC	4	3_3	3	3	1	3	23_1_3	2	0	1	0	0.457996845245	225.0	-107.0	222.0	-101.0	1
3.0.1	2019_Mar_03_1505	s	s	1	2	SIC	5	3_4	3	4	1	1	23_1_1	2	3	1	0	0.502060890198	224.0	-136.0	228.0	-129.0	1
3.0.1	2019_Mar_03_1505	s	s	1	2	SIC	6	2_3	2	3	1	4	23_1_4	-1	-1	1	0	0.951993942261	-391.0	-341.0	-390.0	-350.0	1
3.0.1	2019_Mar_03_1505	s	s	1	2	SIC	7	3_1	3	1	1	4	23_1_4	2	3	1	0	0.469741106033	-250.0	-200.0	-246.0	-193.0	1
3.0.1	2019_Mar_03_1505	s	s	1	2	SIC	8	ABS	0	0	2	1	24_2_1	NA	NA	0	1	7.94280004501	None	None	None	None	1
3.0.1	2019_Mar_03_1505	s	s	1	2	SIC	9	3_3	3	3	4	2	23_4_2	-1	1	1	0	0.555018901825	-281.0	-199.0	-281.0	-199.0	1
3.0.1	2019_Mar_03_1505	s	s	1	2	SIC	10	ABS	0	0	4	3	24_4_3	NA	NA	0	1	4.14735198021	None	None	None	None	1
3.0.1	2019_Mar_03_1505	s	s	1	2	SIC	11	ABS	0	0	1	4	24_1_4	NA	NA	0	1	2.44086909294	None	None	None	None	1
3.0.1	2019_Mar_03_1505	s	s	1	2	SIC	12	2_2	2	2	1	1	23_1_1	-1	-1	1	0	3.002202034	524.0	81.0	516.0	85.0	1
3.0.1	2019_Mar_03_1505	s	s	1	2	SIC	13	1_3	1	3	1	4	23_1_4	0	-1	1	0	0.987220048904	241.0	-47.0	237.0	-48.0	1
3.0.1	2019_Mar_03_1505	s	s	1	2	SIC	14	1_4	1	4	3	1	23_3_1	2	3	1	0	0.469671964645	96.0	174.0	94.0	167.0	1
3.0.1	2019_Mar_03_1505	s	s	1	2	SIC	15	4_4	4	4	2	1	23_2_1	2	3	1	0	0.469796180725	-342.0	265.0	-342.0	260.0	1
3.0.1	2019_Mar_03_1505	s	s	1	2	SIC	16	4_4	4	4	3	2	23_3_2	1	2	1	0	0.651079893112	183.0	407.0	190.0	406.0	1
3.0.1	2019_Mar_03_1505	s	s	1	2	SIC	17	ABS	0	0	2	2	24_2_2	NA	NA	0	1	7.91457509995	None	None	None	None	1
3.0.1	2019_Mar_03_1505	s	s	1	2	SIC	18	ABS	0	0	4	1	24_4_1	NA	NA	0	1	1.89304900169	None	None	None	None	1
3.0.1	2019_Mar_03_1505	s	s	1	2	SIC	19	2_4	2	4	2	3	23_2_3	0	1	1	0	1.10487508774	-463.0	-293.0	-463.0	-299.0	1
3.0.1	2019_Mar_03_1505	s	s	1	2	SIC	20	4_1	4	1	3	1	23_3_1	1	0	1	0	0.457989931107	430.0	-331.0	425.0	-323.0	1
3.0.1	2019_Mar_03_1505	s	s	1	2	SIC	21	ABS	0	0	4	4	24_4_4	NA	NA	0	1	2.90721797943	None	None	None	None	1
3.0.1	2019_Mar_03_1505	s	s	1	2	SIC	22	3_3	3	3	2	2	23_2_2	1	1	1	0	0.540395975113	-347.0	204.0	-349.0	201.0	1
3.0.1	2019_Mar_03_1505	s	s	1	2	SIC	23	ABS	0	0	1	2	24_1_2	NA	NA	0	1	5.88528203964	None	None	None	None	1
3.0.1	2019_Mar_03_1505	s	s	1	2	SIC	24	ABS	0	0	1	1	24_1_1	NA	NA	0	1	2.22616791725	None	None	None	None	1
3.0.1	2019_Mar_03_1505	s	s	1	2	SIC	25	4_2	4	2	1	3	23_1_3	3	1	1	0	0.677292108536	245.0	-170.0	252.0	-173.0	1
3.0.1	2019_Mar_03_1505	s	s	1	2	SIC	26	4_2	4	2	2	4	23_2_4	2	2	1	0	0.446298837662	-423.0	-275.0	-420.0	-267.0	1
3.0.1	2019_Mar_03_1505	s	s	1	2	SIC	27	3_2	3	2	2	4	23_2_4	1	2	1	0	0.493188858032	-190.0	-286.0	-188.0	-290.0	1
3.0.1	2019_Mar_03_1505	s	s	1	2	SIC	28	4_1	4	1	1	4	23_1_4	3	3	1	0	0.410924911499	197.0	118.0	204.0	120.0	1
3.0.1	2019_Mar_03_1505	s	s	1	2	SIC	29	ABS	0	0	2	2	24_2_2	NA	NA	0	1	5.25697398186	None	None	None	None	1
3.0.1	2019_Mar_03_1505	s	s	1	2	SIC	30	ABS	0	0	2	1	24_2_1	NA	NA	0	1	4.44187378883	None	None	None	None	1
3.0.1	2019_Mar_03_1505	s	s	1	2	SIC	31	ABS	0	0	3	2	24_3_2	NA	NA	0	1	1.77570199966	None	None	None	None	1
3.0.1	2019_Mar_03_1505	s	s	1	2	SIC	32	ABS	0	0	1	3	24_1_3	NA	NA	0	1	3.18668222427	None	None	None	None	1
3.0.1	2019_Mar_03_1505	s	s	1	2	SIC	33	3_4	3	4	3	2	23_3_2	0	2	1	0	0.87718296051	-154.0	233.0	-160.0	225.0	1
3.0.1	2019_Mar_03_1505	s	s	1	2	SIC	34	1_4	1	4	4	3	23_4_3	3	1	1	0	0.441511869431	-11.0	-375.0	-16.0	-375.0	1
3.0.1	2019_Mar_03_1505	s	s	1	2	SIC	35	4_2	4	2	1	1	23_1_1	3	-1	1	0	0.509582042694	246.0	51.0	248.0	48.0	1
3.0.1	2019_Mar_03_1505	s	s	1	2	SIC	36	ABS	0	0	1	1	24_1_1	NA	NA	0	1	3.79210996628	None	None	None	None	1
3.0.1	2019_Mar_03_1505	s	s	1	2	SIC	37	1_2	1	2	1	4	23_1_4	0	2	1	0	0.646237134933	135.0	176.0	135.0	175.0	1
3.0.1	2019_Mar_03_1505	s	s	1	2	SIC	38	ABS	0	0	1	4	24_1_4	NA	NA	0	1	3.10711598396	None	None	None	None	1
3.0.1	2019_Mar_03_1505	s	s	1	2	SIC	39	ABS	0	0	4	2	24_4_2	NA	NA	1	0	0.975440979004	None	None	124.0	-62.0	0
3.0.1	2019_Mar_03_1505	s	s	1	2	SIC	40	ABS	0	0	3	3	24_3_3	NA	NA	0	1	3.28066897392	None	None	None	None	1
3.0.1	2019_Mar_03_1505	s	s	1	2	SIC	41	ABS	0	0	3	1	24_3_1	NA	NA	0	1	1.54013490677	None	None	None	None	1
3.0.1	2019_Mar_03_1505	s	s	1	2	SIC	42	3_3	3	3	1	2	23_1_2	2	1	1	0	0.561305999756	-379.0	306.0	-372.0	306.0	1
3.0.1	2019_Mar_03_1505	s	s	1	2	SIC	43	1_4	1	4	4	4	23_4_4	3	0	1	0	0.446188926697	255.0	-109.0	261.0	-115.0	1
3.0.1	2019_Mar_03_1505	s	s	1	2	SIC	44	ABS	0	0	3	4	24_3_4	NA	NA	0	1	1.78217387199	None	None	None	None	1
3.0.1	2019_Mar_03_1505	s	s	1	2	SIC	45	4_3	4	3	3	3	23_3_3	1	0	1	0	0.464694976807	-149.0	190.0	-135.0	196.0	1
3.0.1	2019_Mar_03_1505	s	s	1	2	SIC	46	1_3	1	3	2	1	23_2_1	1	2	1	0	0.914223909378	0.0	-371.0	2.0	-376.0	1
3.0.1	2019_Mar_03_1505	s	s	1	2	SIC	47	ABS	0	0	2	2	24_2_2	NA	NA	0	1	8.29088497162	None	None	None	None	1
3.0.1	2019_Mar_03_1505	s	s	1	2	SIC	48	4_2	4	2	4	3	23_4_3	0	1	1	0	1.5870449543	235.0	250.0	228.0	247.0	1
3.0.1	2019_Mar_03_1505	s	s	1	2	SIC	49	ABS	0	0	2	2	24_2_2	NA	NA	0	1	6.54509305954	None	None	None	None	1
3.0.1	2019_Mar_03_1505	s	s	1	2	SIC	50	ABS	0	0	3	2	24_3_2	NA	NA	0	1	4.67142009735	None	None	None	None	1
3.0.1	2019_Mar_03_1505	s	s	1	2	SIC	51	4_4	4	4	1	2	23_1_2	3	2	1	0	0.484459161758	117.0	-35.0	120.0	-35.0	1
3.0.1	2019_Mar_03_1505	s	s	1	2	SIC	52	3_3	3	3	1	4	23_1_4	2	-1	1	0	0.487115859985	-477.0	-66.0	-475.0	-64.0	1
3.0.1	2019_Mar_03_1505	s	s	1	2	SIC	53	3_3	3	3	2	1	23_2_1	1	2	1	0	0.505023956299	-420.0	157.0	-412.0	151.0	1
3.0.1	2019_Mar_03_1505	s	s	1	2	SIC	54	1_2	1	2	2	3	23_2_3	1	1	1	0	2.38726496696	11.0	356.0	8.0	355.0	1
3.0.1	2019_Mar_03_1505	s	s	1	2	SIC	55	ABS	0	0	2	3	24_2_3	NA	NA	0	1	6.15318083763	None	None	None	None	1
3.0.1	2019_Mar_03_1505	s	s	1	2	SIC	56	1_4	1	4	4	1	23_4_1	3	3	1	0	0.473922014236	424.0	-162.0	423.0	-168.0	1
3.0.1	2019_Mar_03_1505	s	s	1	2	SIC	57	3_2	3	2	1	3	23_1_3	2	1	1	0	0.752002954483	323.0	381.0	324.0	385.0	1
3.0.1	2019_Mar_03_1505	s	s	1	2	SIC	58	ABS	0	0	3	2	24_3_2	NA	NA	0	1	4.23797392845	None	None	None	None	1
3.0.1	2019_Mar_03_1505	s	s	1	2	SIC	59	4_3	4	3	3	1	23_3_1	1	2	1	0	0.437402009964	108.0	206.0	102.0	204.0	1
3.0.1	2019_Mar_03_1505	s	s	1	2	SIC	60	ABS	0	0	4	4	24_4_4	NA	NA	0	1	2.00275301933	None	None	None	None	1
3.0.1	2019_Mar_03_1505	s	s	1	2	SIC	61	1_2	1	2	1	3	23_1_3	0	1	1	0	1.7636449337	264.0	247.0	262.0	251.0	1
3.0.1	2019_Mar_03_1505	s	s	1	2	SIC	62	2_1	2	1	1	2	23_1_2	-1	1	1	0	0.916611194611	-154.0	141.0	-149.0	149.0	1
3.0.1	2019_Mar_03_1505	s	s	1	2	SIC	63	2_3	2	3	2	4	23_2_4	0	-1	1	0	1.19271707535	-13.0	175.0	-7.0	180.0	1
3.0.1	2019_Mar_03_1505	s	s	1	2	SIC	64	ABS	0	0	1	3	24_1_3	NA	NA	0	1	3.56810307503	None	None	None	None	1
3.0.1	2019_Mar_03_1505	s	s	1	2	SIC	65	1_2	1	2	2	1	23_2_1	1	-1	1	0	1.28128600121	181.0	-293.0	176.0	-291.0	1
3.0.1	2019_Mar_03_1505	s	s	1	2	SIC	66	3_3	3	3	3	1	23_3_1	0	2	1	0	0.618777990341	-327.0	126.0	-327.0	125.0	1
3.0.1	2019_Mar_03_1505	s	s	1	2	SIC	67	3_3	3	3	4	3	23_4_3	-1	0	1	0	0.437434911728	-89.0	55.0	-83.0	61.0	1
3.0.1	2019_Mar_03_1505	s	s	1	2	SIC	68	ABS	0	0	1	1	24_1_1	NA	NA	0	1	4.26438784599	None	None	None	None	1
3.0.1	2019_Mar_03_1505	s	s	1	2	SIC	69	2_1	2	1	1	3	23_1_3	-1	2	1	0	2.89783287048	210.0	298.0	213.0	303.0	1
3.0.1	2019_Mar_03_1505	s	s	1	2	SIC	70	ABS	0	0	1	2	24_1_2	NA	NA	0	1	4.68515896797	None	None	None	None	1
3.0.1	2019_Mar_03_1505	s	s	1	2	SIC	71	ABS	0	0	2	4	24_2_4	NA	NA	0	1	1.75446009636	None	None	None	None	1
3.0.1	2019_Mar_03_1505	s	s	1	2	SIC	72	ABS	0	0	4	4	24_4_4	NA	NA	0	1	1.44220805168	None	None	None	None	1
3.0.1	2019_Mar_03_1505	s	s	1	2	SIC	73	ABS	0	0	3	4	24_3_4	NA	NA	0	1	1.30947589874	None	None	None	None	1
3.0.1	2019_Mar_03_1505	s	s	1	2	SIC	74	1_4	1	4	2	4	23_2_4	1	0	0	1	2.32800889015	248.0	-359.0	None	None	0
3.0.1	2019_Mar_03_1505	s	s	1	2	SIC	75	1_4	1	4	1	1	23_1_1	0	3	1	0	0.672631978989	-396.0	192.0	-401.0	198.0	1
3.0.1	2019_Mar_03_1505	s	s	1	2	SIC	76	ABS	0	0	1	2	24_1_2	NA	NA	0	1	5.33887815475	None	None	None	None	1
3.0.1	2019_Mar_03_1505	s	s	1	2	SIC	77	ABS	0	0	1	4	24_1_4	NA	NA	0	1	1.4841439724	None	None	None	None	1
3.0.1	2019_Mar_03_1505	s	s	1	2	SIC	78	3_2	3	2	1	1	23_1_1	2	-1	1	0	0.469768047333	-336.0	81.0	-335.0	84.0	1
3.0.1	2019_Mar_03_1505	s	s	1	2	SIC	79	2_3	2	3	2	1	23_2_1	0	2	1	0	2.08491611481	496.0	401.0	494.0	393.0	1
3.0.1	2019_Mar_03_1505	s	s	1	2	SIC	80	ABS	0	0	3	1	24_3_1	NA	NA	0	1	1.84068989754	None	None	None	None	1
3.0.1	2019_Mar_03_1505	s	s	1	2	SIC	81	ABS	0	0	2	2	24_2_2	NA	NA	0	1	4.73280715942	None	None	None	None	1
3.0.1	2019_Mar_03_1505	s	s	1	2	SIC	82	ABS	0	0	3	2	24_3_2	NA	NA	0	1	3.52767205238	None	None	None	None	1
3.0.1	2019_Mar_03_1505	s	s	1	2	SIC	83	ABS	0	0	1	1	24_1_1	NA	NA	0	1	2.36814594269	None	None	None	None	1
3.0.1	2019_Mar_03_1505	s	s	1	2	SIC	84	ABS	0	0	1	3	24_1_3	NA	NA	0	1	7.16185712814	None	None	None	None	1
3.0.1	2019_Mar_03_1505	s	s	1	2	SIC	85	ABS	0	0	3	2	24_3_2	NA	NA	0	1	4.24511814117	None	None	None	None	1
3.0.1	2019_Mar_03_1505	s	s	1	2	SIC	86	ABS	0	0	1	4	24_1_4	NA	NA	0	1	1.66954398155	None	None	None	None	1
3.0.1	2019_Mar_03_1505	s	s	1	2	SIC	87	ABS	0	0	4	2	24_4_2	NA	NA	0	1	5.80931186676	None	None	None	None	1
3.0.1	2019_Mar_03_1505	s	s	1	2	SIC	88	ABS	0	0	3	4	24_3_4	NA	NA	0	1	1.84872889519	None	None	None	None	1
3.0.1	2019_Mar_03_1505	s	s	1	2	SIC	89	ABS	0	0	1	3	24_1_3	NA	NA	0	1	4.96554303169	None	None	None	None	1
3.0.1	2019_Mar_03_1505	s	s	1	2	SIC	90	1_3	1	3	2	4	23_2_4	1	-1	1	0	0.898156166077	350.0	292.0	346.0	291.0	1
3.0.1	2019_Mar_03_1505	s	s	1	2	SIC	91	ABS	0	0	1	1	24_1_1	NA	NA	0	1	2.45759010315	None	None	None	None	1
3.0.1	2019_Mar_03_1505	s	s	1	2	SIC	92	ABS	0	0	3	1	24_3_1	NA	NA	0	1	1.30773806572	None	None	None	None	1
3.0.1	2019_Mar_03_1505	s	s	1	2	SIC	93	ABS	0	0	3	2	24_3_2	NA	NA	0	1	5.20065593719	None	None	None	None	1
3.0.1	2019_Mar_03_1505	s	s	1	2	SIC	94	3_2	3	2	3	3	23_3_3	0	1	1	0	2.41450595856	505.0	186.0	505.0	195.0	1
3.0.1	2019_Mar_03_1505	s	s	1	2	SIC	95	ABS	0	0	4	3	24_4_3	NA	NA	0	1	4.78607988358	None	None	None	None	1
3.0.1	2019_Mar_03_1505	s	s	1	2	SIC	96	3_4	3	4	4	2	23_4_2	-1	2	1	0	0.48682808876	340.0	201.0	337.0	199.0	1
3.0.1	2019_Mar_03_1505	s	s	1	2	SIC	97	4_2	4	2	2	1	23_2_1	2	-1	1	0	0.922219991684	-339.0	-182.0	-337.0	-173.0	1
3.0.1	2019_Mar_03_1505	s	s	1	2	SIC	98	2_4	2	4	3	4	23_3_4	1	0	1	0	0.951946020126	-181.0	214.0	-178.0	214.0	1
3.0.1	2019_Mar_03_1505	s	s	1	2	SIC	99	1_3	1	3	2	3	23_2_3	1	0	0	1	3.76681518555	-498.0	-263.0	None	None	0
3.0.1	2019_Mar_03_1505	s	s	1	2	SIC	100	ABS	0	0	4	3	24_4_3	NA	NA	0	1	1.55572795868	None	None	None	None	1
3.0.1	2019_Mar_03_1505	s	s	1	2	SIC	101	4_1	4	1	4	2	23_4_2	0	1	1	0	1.35705709457	-211.0	-208.0	-213.0	-211.0	1
3.0.1	2019_Mar_03_1505	s	s	1	2	SIC	102	3_4	3	4	2	3	23_2_3	1	1	1	0	0.568824052811	474.0	-183.0	466.0	-177.0	1
3.0.1	2019_Mar_03_1505	s	s	1	2	SIC	103	ABS	0	0	2	4	24_2_4	NA	NA	0	1	2.74920606613	None	None	None	None	1
3.0.1	2019_Mar_03_1505	s	s	1	2	SIC	104	4_3	4	3	2	4	23_2_4	2	-1	1	0	0.502926111221	380.0	-109.0	377.0	-107.0	1
3.0.1	2019_Mar_03_1505	s	s	1	2	SIC	105	ABS	0	0	3	2	24_3_2	NA	NA	0	1	4.10392689705	None	None	None	None	1
3.0.1	2019_Mar_03_1505	s	s	1	2	SIC	106	4_2	4	2	3	3	23_3_3	1	1	1	0	0.474806070328	-186.0	74.0	-188.0	80.0	1
3.0.1	2019_Mar_03_1505	s	s	1	2	SIC	107	ABS	0	0	4	2	24_4_2	NA	NA	0	1	2.58676290512	None	None	None	None	1
3.0.1	2019_Mar_03_1505	s	s	1	2	SIC	108	2_2	2	2	3	3	23_3_3	1	1	1	0	0.540380001068	-301.0	182.0	-297.0	188.0	1
3.0.1	2019_Mar_03_1505	s	s	1	2	SIC	109	ABS	0	0	2	3	24_2_3	NA	NA	0	1	3.73423695564	None	None	None	None	1
3.0.1	2019_Mar_03_1505	s	s	1	2	SIC	110	3_2	3	2	2	3	23_2_3	1	1	1	0	0.535419940948	266.0	-33.0	266.0	-31.0	1
3.0.1	2019_Mar_03_1505	s	s	1	2	SIC	111	ABS	0	0	3	4	24_3_4	NA	NA	0	1	2.2221198082	None	None	None	None	1
3.0.1	2019_Mar_03_1505	s	s	1	2	SIC	112	3_4	3	4	3	1	23_3_1	0	3	1	0	0.672566890717	-48.0	-27.0	-48.0	-26.0	1
3.0.1	2019_Mar_03_1505	s	s	1	2	SIC	113	ABS	0	0	2	1	24_2_1	NA	NA	0	1	2.23916196823	None	None	None	None	1
3.0.1	2019_Mar_03_1505	s	s	1	2	SIC	114	1_2	1	2	4	2	23_4_2	3	0	1	0	0.458111047745	-526.0	375.0	-531.0	379.0	1
3.0.1	2019_Mar_03_1505	s	s	1	2	SIC	115	2_3	2	3	4	1	23_4_1	2	2	1	0	0.442758798599	213.0	-154.0	217.0	-151.0	1
3.0.1	2019_Mar_03_1505	s	s	1	2	SIC	116	ABS	0	0	4	2	24_4_2	NA	NA	0	1	4.13291883469	None	None	None	None	1
3.0.1	2019_Mar_03_1505	s	s	1	2	SIC	117	2_2	2	2	4	1	23_4_1	2	-1	1	0	0.422785043716	-387.0	58.0	-387.0	53.0	1
3.0.1	2019_Mar_03_1505	s	s	1	2	SIC	118	1_2	1	2	3	3	23_3_3	2	1	1	0	0.443005084991	-37.0	-79.0	-28.0	-71.0	1
3.0.1	2019_Mar_03_1505	s	s	1	2	SIC	119	ABS	0	0	1	3	24_1_3	NA	NA	0	1	4.18632507324	None	None	None	None	1
3.0.1	2019_Mar_03_1505	s	s	1	2	SIC	120	ABS	0	0	1	3	24_1_3	NA	NA	0	1	3.35019516945	None	None	None	None	1
3.0.1	2019_Mar_03_1505	s	s	1	2	SIC	121	ABS	0	0	1	3	24_1_3	NA	NA	0	1	2.75146508217	None	None	None	None	1
3.0.1	2019_Mar_03_1505	s	s	1	2	SIC	122	ABS	0	0	1	4	24_1_4	NA	NA	0	1	1.88612413406	None	None	None	None	1
3.0.1	2019_Mar_03_1505	s	s	1	2	SIC	123	ABS	0	0	2	3	24_2_3	NA	NA	0	1	4.1038980484	None	None	None	None	1
3.0.1	2019_Mar_03_1505	s	s	1	2	SIC	124	4_4	4	4	1	1	23_1_1	3	3	1	0	0.907773017883	-8.0	-20.0	-9.0	-17.0	1
3.0.1	2019_Mar_03_1505	s	s	1	2	SIC	125	ABS	0	0	4	3	24_4_3	NA	NA	0	1	2.38369011879	None	None	None	None	1
3.0.1	2019_Mar_03_1505	s	s	1	2	SIC	126	4_1	4	1	2	2	23_2_2	2	1	1	0	0.486286878586	-426.0	-235.0	-424.0	-235.0	1
3.0.1	2019_Mar_03_1505	s	s	1	2	SIC	127	ABS	0	0	4	4	24_4_4	NA	NA	0	1	1.00317311287	None	None	None	None	1
3.0.1	2019_Mar_03_1505	s	s	1	2	SIC	128	3_3	3	3	3	2	23_3_2	0	1	1	0	3.69593405724	295.0	-147.0	309.0	-137.0	1
3.0.1	2019_Mar_03_1505	s	s	1	2	SIC	129	2_4	2	4	3	1	23_3_1	1	3	1	0	0.502240896225	-263.0	-237.0	-255.0	-239.0	1
3.0.1	2019_Mar_03_1505	s	s	1	2	SIC	130	2_2	2	2	4	3	23_4_3	2	1	1	0	0.462749004364	-453.0	-294.0	-441.0	-290.0	1
3.0.1	2019_Mar_03_1505	s	s	1	2	SIC	131	3_2	3	2	3	4	23_3_4	0	2	1	0	0.663246870041	179.0	190.0	178.0	189.0	1
3.0.1	2019_Mar_03_1505	s	s	1	2	SIC	132	ABS	0	0	4	3	24_4_3	NA	NA	0	1	6.30373096466	None	None	None	None	1
3.0.1	2019_Mar_03_1505	s	s	1	2	SIC	133	ABS	0	0	1	3	24_1_3	NA	NA	0	1	4.97428917885	None	None	None	None	1
3.0.1	2019_Mar_03_1505	s	s	1	2	SIC	134	2_3	2	3	3	4	23_3_4	1	-1	1	0	0.552051067352	269.0	-350.0	262.0	-348.0	1
3.0.1	2019_Mar_03_1505	s	s	1	2	SIC	135	1_3	1	3	1	1	23_1_1	0	2	1	0	1.8981730938	50.0	20.0	52.0	10.0	1
3.0.1	2019_Mar_03_1505	s	s	1	2	SIC	136	ABS	0	0	1	4	24_1_4	NA	NA	0	1	2.4743719101	None	None	None	None	1
3.0.1	2019_Mar_03_1505	s	s	1	2	SIC	137	ABS	0	0	2	2	24_2_2	NA	NA	0	1	4.88543605804	None	None	None	None	1
3.0.1	2019_Mar_03_1505	s	s	1	2	SIC	138	ABS	0	0	1	4	24_1_4	NA	NA	0	1	2.18709397316	None	None	None	None	1
3.0.1	2019_Mar_03_1505	s	s	1	2	SIC	139	4_2	4	2	4	4	23_4_4	0	2	1	0	0.687258005142	3.0	-320.0	1.0	-318.0	1
3.0.1	2019_Mar_03_1505	s	s	1	2	SIC	140	ABS	0	0	3	3	24_3_3	NA	NA	0	1	2.85731697083	None	None	None	None	1
3.0.1	2019_Mar_03_1505	s	s	1	2	SIC	141	1_1	1	1	2	2	23_2_2	1	1	1	0	1.01795506477	74.0	-28.0	73.0	-35.0	1
3.0.1	2019_Mar_03_1505	s	s	1	2	SIC	142	ABS	0	0	4	4	24_4_4	NA	NA	0	1	1.9281270504	None	None	None	None	1
3.0.1	2019_Mar_03_1505	s	s	1	2	SIC	143	ABS	0	0	1	2	24_1_2	NA	NA	0	1	4.12743997574	None	None	None	None	1
3.0.1	2019_Mar_03_1505	s	s	1	2	SIC	144	ABS	0	0	3	1	24_3_1	NA	NA	0	1	2.20158195496	None	None	None	None	1
3.0.1	2019_Mar_03_1505	s	s	1	2	SIC	145	ABS	0	0	1	2	24_1_2	NA	NA	0	1	5.33886194229	None	None	None	None	1
3.0.1	2019_Mar_03_1505	s	s	1	2	SIC	146	2_4	2	4	3	3	23_3_3	1	1	1	0	0.613817214966	414.0	-27.0	411.0	-27.0	1
3.0.1	2019_Mar_03_1505	s	s	1	2	SIC	147	1_4	1	4	1	3	23_1_3	0	1	1	0	1.0579199791	-370.0	289.0	-370.0	289.0	1
3.0.1	2019_Mar_03_1505	s	s	1	2	SIC	148	ABS	0	0	4	4	24_4_4	NA	NA	0	1	1.81582903862	None	None	None	None	1
3.0.1	2019_Mar_03_1505	s	s	1	2	SIC	149	ABS	0	0	3	3	24_3_3	NA	NA	0	1	3.26895403862	None	None	None	None	1
3.0.1	2019_Mar_03_1505	s	s	1	2	SIC	150	ABS	0	0	2	3	24_2_3	NA	NA	0	1	5.16896295547	None	None	None	None	1
3.0.1	2019_Mar_03_1505	s	s	1	2	SIC	151	4_1	4	1	1	2	23_1_2	3	1	1	0	0.534394025803	179.0	382.0	184.0	384.0	1
3.0.1	2019_Mar_03_1505	s	s	1	2	SIC	152	ABS	0	0	3	3	24_3_3	NA	NA	0	1	2.46235013008	None	None	None	None	1
3.0.1	2019_Mar_03_1505	s	s	1	2	SIC	153	ABS	0	0	2	3	24_2_3	NA	NA	0	1	3.20596790314	None	None	None	None	1
3.0.1	2019_Mar_03_1505	s	s	1	2	SIC	154	ABS	0	0	2	1	24_2_1	NA	NA	0	1	2.33973813057	None	None	None	None	1
3.0.1	2019_Mar_03_1505	s	s	1	2	SIC	155	1_2	1	2	3	1	23_3_1	2	-1	1	0	0.497977018356	-348.0	327.0	-346.0	322.0	1
3.0.1	2019_Mar_03_1505	s	s	1	2	SIC	156	4_3	4	3	1	3	23_1_3	3	0	1	0	0.457990884781	-24.0	-50.0	-20.0	-52.0	1
3.0.1	2019_Mar_03_1505	s	s	1	2	SIC	157	ABS	0	0	3	1	24_3_1	NA	NA	0	1	2.11115598679	None	None	None	None	1
3.0.1	2019_Mar_03_1505	s	s	1	2	SIC	158	1_3	1	3	4	1	23_4_1	3	2	1	0	0.442065000534	-251.0	276.0	-241.0	275.0	1
3.0.1	2019_Mar_03_1505	s	s	1	2	SIC	159	ABS	0	0	3	4	24_3_4	NA	NA	0	1	1.71166586876	None	None	None	None	1
3.0.1	2019_Mar_03_1505	s	s	1	2	SIC	160	ABS	0	0	4	1	24_4_1	NA	NA	0	1	1.26617908478	None	None	None	None	1
3.0.1	2019_Mar_03_1505	s	s	1	2	SIC	161	3_2	3	2	2	2	23_2_2	1	0	1	0	0.528509140015	161.0	-135.0	156.0	-136.0	1
3.0.1	2019_Mar_03_1505	s	s	1	2	SIC	162	ABS	0	0	2	3	24_2_3	NA	NA	0	1	2.42861104012	None	None	None	None	1
3.0.1	2019_Mar_03_1505	s	s	1	2	SIC	163	4_3	4	3	2	3	23_2_3	2	0	1	0	0.469749927521	-182.0	131.0	-178.0	128.0	1
3.0.1	2019_Mar_03_1505	s	s	1	2	SIC	164	ABS	0	0	4	2	24_4_2	NA	NA	0	1	2.08388805389	None	None	None	None	1
3.0.1	2019_Mar_03_1505	s	s	1	2	SIC	165	ABS	0	0	2	1	24_2_1	NA	NA	0	1	2.19217014313	None	None	None	None	1
3.0.1	2019_Mar_03_1505	s	s	1	2	SIC	166	ABS	0	0	1	2	24_1_2	NA	NA	0	1	4.79443192482	None	None	None	None	1
3.0.1	2019_Mar_03_1505	s	s	1	2	SIC	167	ABS	0	0	2	4	24_2_4	NA	NA	0	1	2.09277701378	None	None	None	None	1
3.0.1	2019_Mar_03_1505	s	s	1	2	SIC	168	ABS	0	0	2	3	24_2_3	NA	NA	0	1	4.04961514473	None	None	None	None	1
3.0.1	2019_Mar_03_1505	s	s	1	2	SIC	169	4_4	4	4	2	4	23_2_4	2	0	1	0	0.568923950195	-37.0	325.0	-30.0	326.0	1
3.0.1	2019_Mar_03_1505	s	s	1	2	SIC	170	1_1	1	1	2	4	23_2_4	1	3	1	0	0.822546005249	-77.0	-389.0	-78.0	-393.0	1
3.0.1	2019_Mar_03_1505	s	s	1	2	SIC	171	4_1	4	1	2	3	23_2_3	2	2	1	0	0.540317058563	474.0	261.0	473.0	254.0	1
3.0.1	2019_Mar_03_1505	s	s	1	2	SIC	172	ABS	0	0	3	1	24_3_1	NA	NA	0	1	1.68110203743	None	None	None	None	1
3.0.1	2019_Mar_03_1505	s	s	1	2	SIC	173	2_3	2	3	3	1	23_3_1	1	2	1	0	0.796429872513	-408.0	237.0	-404.0	237.0	1
3.0.1	2019_Mar_03_1505	s	s	1	2	SIC	174	2_2	2	2	3	4	23_3_4	1	2	1	0	0.958709001541	-421.0	-235.0	-421.0	-232.0	1
3.0.1	2019_Mar_03_1505	s	s	1	2	SIC	175	2_4	2	4	1	3	23_1_3	-1	1	1	0	1.71136593819	201.0	-406.0	207.0	-415.0	1
3.0.1	2019_Mar_03_1505	s	s	1	2	SIC	176	ABS	0	0	4	4	24_4_4	NA	NA	0	1	1.37826704979	None	None	None	None	1
3.0.1	2019_Mar_03_1505	s	s	1	2	SIC	177	2_3	2	3	3	2	23_3_2	1	1	1	0	0.914108991623	-60.0	350.0	-64.0	353.0	1
3.0.1	2019_Mar_03_1505	s	s	1	2	SIC	178	ABS	0	0	4	3	24_4_3	NA	NA	0	1	2.96602106094	None	None	None	None	1
3.0.1	2019_Mar_03_1505	s	s	1	2	SIC	179	ABS	0	0	1	3	24_1_3	NA	NA	0	1	2.56788611412	None	None	None	None	1
3.0.1	2019_Mar_03_1505	s	s	1	2	SIC	180	4_2	4	2	4	1	23_4_1	0	-1	1	0	0.690490961075	22.0	64.0	30.0	63.0	1
3.0.1	2019_Mar_03_1505	s	s	1	2	SIC	181	ABS	0	0	3	3	24_3_3	NA	NA	0	1	1.70465302467	None	None	None	None	1
3.0.1	2019_Mar_03_1505	s	s	1	2	SIC	182	ABS	0	0	1	1	24_1_1	NA	NA	0	1	2.26583600044	None	None	None	None	1
3.0.1	2019_Mar_03_1505	s	s	1	2	SIC	183	ABS	0	0	4	1	24_4_1	NA	NA	0	1	1.04600811005	None	None	None	None	1
3.0.1	2019_Mar_03_1505	s	s	1	2	SIC	184	ABS	0	0	1	2	24_1_2	NA	NA	0	1	5.2488489151	None	None	None	None	1
3.0.1	2019_Mar_03_1505	s	s	1	2	SIC	185	ABS	0	0	3	4	24_3_4	NA	NA	0	1	2.01050209999	None	None	None	None	1
3.0.1	2019_Mar_03_1505	s	s	1	2	SIC	186	2_2	2	2	2	3	23_2_3	0	1	1	0	2.45078992844	-80.0	273.0	-78.0	270.0	1
3.0.1	2019_Mar_03_1505	s	s	1	2	SIC	187	2_1	2	1	3	4	23_3_4	1	3	1	0	0.78040099144	79.0	-360.0	82.0	-371.0	1
3.0.1	2019_Mar_03_1505	s	s	1	2	SIC	188	1_1	1	1	4	3	23_4_3	3	2	1	0	0.657943964005	311.0	230.0	314.0	231.0	1
3.0.1	2019_Mar_03_1505	s	s	1	2	SIC	189	3_4	3	4	2	4	23_2_4	1	0	1	0	0.998970985413	152.0	-312.0	157.0	-313.0	1
3.0.1	2019_Mar_03_1505	s	s	1	2	SIC	190	4_1	4	1	3	2	23_3_2	1	1	1	0	0.681460142136	179.0	274.0	176.0	268.0	1
3.0.1	2019_Mar_03_1505	s	s	1	2	SIC	191	ABS	0	0	1	4	24_1_4	NA	NA	0	1	2.63420081139	None	None	None	None	1
3.0.1	2019_Mar_03_1505	s	s	1	2	SIC	192	2_1	2	1	2	3	23_2_3	0	2	1	0	0.957228899002	441.0	-15.0	442.0	-20.0	1
3.0.1	2019_Mar_03_1505	s	s	1	2	SIC	193	4_2	4	2	2	2	23_2_2	2	0	1	0	0.458005189896	-347.0	-257.0	-346.0	-251.0	1
3.0.1	2019_Mar_03_1505	s	s	1	2	SIC	194	ABS	0	0	3	1	24_3_1	NA	NA	0	1	1.42246890068	None	None	None	None	1
3.0.1	2019_Mar_03_1505	s	s	1	2	SIC	195	3_4	3	4	1	2	23_1_2	2	2	1	0	0.791733026505	-481.0	-330.0	-480.0	-336.0	1
3.0.1	2019_Mar_03_1505	s	s	1	2	SIC	196	ABS	0	0	3	3	24_3_3	NA	NA	0	1	2.8807220459	None	None	None	None	1
3.0.1	2019_Mar_03_1505	s	s	1	2	SIC	197	ABS	0	0	3	4	24_3_4	NA	NA	0	1	1.70970487595	None	None	None	None	1
3.0.1	2019_Mar_03_1505	s	s	1	2	SIC	198	ABS	0	0	3	3	24_3_3	NA	NA	0	1	2.63379693031	None	None	None	None	1
3.0.1	2019_Mar_03_1505	s	s	1	2	SIC	199	1_1	1	1	4	2	23_4_2	3	1	1	0	0.49619603157	-469.0	-317.0	-473.0	-321.0	1
3.0.1	2019_Mar_03_1505	s	s	1	2	SIC	200	ABS	0	0	3	1	24_3_1	NA	NA	0	1	2.19201207161	None	None	None	None	1
3.0.1	2019_Mar_03_1505	s	s	1	2	SIC	201	ABS	0	0	3	2	24_3_2	NA	NA	0	1	3.92775678635	None	None	None	None	1
3.0.1	2019_Mar_03_1505	s	s	1	2	SIC	202	3_1	3	1	4	3	23_4_3	-1	2	1	0	0.505141019821	-229.0	7.0	-237.0	14.0	1
3.0.1	2019_Mar_03_1505	s	s	1	2	SIC	203	ABS	0	0	4	4	24_4_4	NA	NA	0	1	1.73997402191	None	None	None	None	1
3.0.1	2019_Mar_03_1505	s	s	1	2	SIC	204	ABS	0	0	3	3	24_3_3	NA	NA	0	1	2.04594087601	None	None	None	None	1
3.0.1	2019_Mar_03_1505	s	s	1	2	SIC	205	ABS	0	0	1	3	24_1_3	NA	NA	0	1	2.74478888512	None	None	None	None	1
3.0.1	2019_Mar_03_1505	s	s	1	2	SIC	206	ABS	0	0	3	4	24_3_4	NA	NA	0	1	1.1048169136	None	None	None	None	1
3.0.1	2019_Mar_03_1505	s	s	1	2	SIC	207	1_4	1	4	3	4	23_3_4	2	0	1	0	0.5549929142	-274.0	23.0	-275.0	22.0	1
3.0.1	2019_Mar_03_1505	s	s	1	2	SIC	208	2_2	2	2	4	4	23_4_4	2	2	1	0	0.522020101547	-137.0	125.0	-133.0	120.0	1
3.0.1	2019_Mar_03_1505	s	s	1	2	SIC	209	3_4	3	4	4	4	23_4_4	-1	0	1	0	0.562397003174	-14.0	204.0	-3.0	206.0	1
3.0.1	2019_Mar_03_1505	s	s	1	2	SIC	210	ABS	0	0	4	1	24_4_1	NA	NA	0	1	2.00530004501	None	None	None	None	1
3.0.1	2019_Mar_03_1505	s	s	1	2	SIC	211	ABS	0	0	1	2	24_1_2	NA	NA	0	1	4.49500513077	None	None	None	None	1
3.0.1	2019_Mar_03_1505	s	s	1	2	SIC	212	2_4	2	4	4	3	23_4_3	2	1	1	0	0.657960891724	-391.0	-405.0	-395.0	-399.0	1
3.0.1	2019_Mar_03_1505	s	s	1	2	SIC	213	4_4	4	4	2	3	23_2_3	2	1	1	0	0.427865982056	136.0	-247.0	136.0	-243.0	1
3.0.1	2019_Mar_03_1505	s	s	1	2	SIC	214	ABS	0	0	3	1	24_3_1	NA	NA	0	1	2.73957109451	None	None	None	None	1
3.0.1	2019_Mar_03_1505	s	s	1	2	SIC	215	ABS	0	0	2	3	24_2_3	NA	NA	0	1	4.37466096878	None	None	None	None	1
3.0.1	2019_Mar_03_1505	s	s	1	2	SIC	216	ABS	0	0	2	3	24_2_3	NA	NA	0	1	4.60269188881	None	None	None	None	1
3.0.1	2019_Mar_03_1505	s	s	1	2	SIC	217	4_4	4	4	1	3	23_1_3	3	1	1	0	0.481594085693	433.0	-53.0	428.0	-49.0	1
3.0.1	2019_Mar_03_1505	s	s	1	2	SIC	218	2_1	2	1	4	4	23_4_4	2	3	1	0	0.446231842041	265.0	-10.0	253.0	-9.0	1
3.0.1	2019_Mar_03_1505	s	s	1	2	SIC	219	ABS	0	0	4	2	24_4_2	NA	NA	0	1	1.72816109657	None	None	None	None	1
3.0.1	2019_Mar_03_1505	s	s	1	2	SIC	220	ABS	0	0	3	3	24_3_3	NA	NA	0	1	1.73107290268	None	None	None	None	1
3.0.1	2019_Mar_03_1505	s	s	1	2	SIC	221	2_2	2	2	4	2	23_4_2	2	0	1	0	0.496624946594	-63.0	345.0	-70.0	348.0	1
3.0.1	2019_Mar_03_1505	s	s	1	2	SIC	222	ABS	0	0	3	3	24_3_3	NA	NA	0	1	1.52321887016	None	None	None	None	1
3.0.1	2019_Mar_03_1505	s	s	1	2	SIC	223	3_3	3	3	3	4	23_3_4	0	-1	1	0	1.64588308334	391.0	-172.0	390.0	-178.0	1
3.0.1	2019_Mar_03_1505	s	s	1	2	SIC	224	1_4	1	4	4	2	23_4_2	3	2	1	0	0.450627088547	36.0	-237.0	26.0	-230.0	1
3.0.1	2019_Mar_03_1505	s	s	1	2	SIC	225	4_1	4	1	4	3	23_4_3	0	2	1	0	3.5279250145	-444.0	-251.0	-444.0	-249.0	1
3.0.1	2019_Mar_03_1505	s	s	1	2	SIC	226	ABS	0	0	1	3	24_1_3	NA	NA	0	1	4.5861620903	None	None	None	None	1
3.0.1	2019_Mar_03_1505	s	s	1	2	SIC	227	2_1	2	1	1	1	23_1_1	-1	0	0	1	2.71614408493	-346.0	-357.0	None	None	0
3.0.1	2019_Mar_03_1505	s	s	1	2	SIC	228	ABS	0	0	2	3	24_2_3	NA	NA	0	1	3.08923006058	None	None	None	None	1
3.0.1	2019_Mar_03_1505	s	s	1	2	SIC	229	2_4	2	4	2	2	23_2_2	0	2	1	0	0.775736093521	477.0	286.0	472.0	280.0	1
3.0.1	2019_Mar_03_1505	s	s	1	2	SIC	230	2_3	2	3	4	4	23_4_4	2	-1	1	0	0.657957077026	202.0	-24.0	200.0	-20.0	1
3.0.1	2019_Mar_03_1505	s	s	1	2	SIC	231	ABS	0	0	2	1	24_2_1	NA	NA	0	1	2.89945101738	None	None	None	None	1
3.0.1	2019_Mar_03_1505	s	s	1	2	SIC	232	ABS	0	0	3	4	24_3_4	NA	NA	0	1	1.7752828598	None	None	None	None	1
3.0.1	2019_Mar_03_1505	s	s	1	2	SIC	233	ABS	0	0	4	3	24_4_3	NA	NA	0	1	2.44565200806	None	None	None	None	1
3.0.1	2019_Mar_03_1505	s	s	1	2	SIC	234	2_1	2	1	4	2	23_4_2	2	1	1	0	0.481564998627	-485.0	231.0	-481.0	223.0	1
3.0.1	2019_Mar_03_1505	s	s	1	2	SIC	235	ABS	0	0	4	1	24_4_1	NA	NA	0	1	1.27469801903	None	None	None	None	1
3.0.1	2019_Mar_03_1505	s	s	1	2	SIC	236	ABS	0	0	4	2	24_4_2	NA	NA	0	1	2.90429186821	None	None	None	None	1
3.0.1	2019_Mar_03_1505	s	s	1	2	SIC	237	2_2	2	2	1	4	23_1_4	-1	2	1	0	0.740272045135	-15.0	400.0	-24.0	402.0	1
3.0.1	2019_Mar_03_1505	s	s	1	2	SIC	238	ABS	0	0	4	1	24_4_1	NA	NA	0	1	1.65075421333	None	None	None	None	1
3.0.1	2019_Mar_03_1505	s	s	1	2	SIC	239	1_4	1	4	2	1	23_2_1	1	3	1	0	0.633234024048	213.0	-71.0	207.0	-68.0	1
3.0.1	2019_Mar_03_1505	s	s	1	2	SIC	240	ABS	0	0	4	1	24_4_1	NA	NA	0	1	1.32050490379	None	None	None	None	1
3.0.1	2019_Mar_03_1505	s	s	1	2	SIC	241	ABS	0	0	3	4	24_3_4	NA	NA	0	1	1.22283101082	None	None	None	None	1
3.0.1	2019_Mar_03_1505	s	s	1	2	SIC	242	3_4	3	4	4	3	23_4_3	-1	1	1	0	0.869611024857	-295.0	-388.0	-290.0	-388.0	1
3.0.1	2019_Mar_03_1505	s	s	1	2	SIC	243	4_4	4	4	4	3	23_4_3	0	1	1	0	1.14985489845	-222.0	-340.0	-229.0	-340.0	1
3.0.1	2019_Mar_03_1505	s	s	1	2	SIC	244	ABS	0	0	4	1	24_4_1	NA	NA	0	1	1.61063480377	None	None	None	None	1
3.0.1	2019_Mar_03_1505	s	s	1	2	SIC	245	ABS	0	0	1	3	24_1_3	NA	NA	0	1	3.57952904701	None	None	None	None	1
3.0.1	2019_Mar_03_1505	s	s	1	2	SIC	246	4_1	4	1	3	4	23_3_4	1	3	1	0	0.462474822998	-456.0	-327.0	-461.0	-322.0	1
3.0.1	2019_Mar_03_1505	s	s	1	2	SIC	247	ABS	0	0	1	2	24_1_2	NA	NA	0	1	2.72134780884	None	None	None	None	1
3.0.1	2019_Mar_03_1505	s	s	1	2	SIC	248	3_1	3	1	2	4	23_2_4	1	3	1	0	0.498607873917	138.0	-29.0	136.0	-26.0	1
3.0.1	2019_Mar_03_1505	s	s	1	2	SIC	249	1_1	1	1	3	2	23_3_2	2	1	1	0	0.672608137131	-115.0	-88.0	-121.0	-85.0	1
3.0.1	2019_Mar_03_1505	s	s	1	2	SIC	250	ABS	0	0	1	4	24_1_4	NA	NA	0	1	1.54692983627	None	None	None	None	1
3.0.1	2019_Mar_03_1505	s	s	1	2	SIC	251	ABS	0	0	1	3	24_1_3	NA	NA	0	1	3.83350205421	None	None	None	None	1
3.0.1	2019_Mar_03_1505	s	s	1	2	SIC	252	3_3	3	3	2	4	23_2_4	1	-1	1	0	0.528560876846	-175.0	117.0	-171.0	118.0	1
3.0.1	2019_Mar_03_1505	s	s	1	2	SIC	253	2_1	2	1	3	1	23_3_1	1	0	1	0	0.76372385025	-514.0	-153.0	-512.0	-152.0	1
3.0.1	2019_Mar_03_1505	s	s	1	2	SIC	254	ABS	0	0	1	4	24_1_4	NA	NA	0	1	2.10454916954	None	None	None	None	1
3.0.1	2019_Mar_03_1505	s	s	1	2	SIC	255	ABS	0	0	1	2	24_1_2	NA	NA	0	1	2.63831377029	None	None	None	None	1
3.0.1	2019_Mar_03_1505	s	s	1	2	SIC	256	ABS	0	0	3	4	24_3_4	NA	NA	0	1	1.36366510391	None	None	None	None	1
3.0.1	2019_Mar_03_1505	s	s	1	2	SIC	257	4_1	4	1	2	4	23_2_4	2	3	1	0	0.481562852859	-379.0	368.0	-375.0	365.0	1
3.0.1	2019_Mar_03_1505	s	s	1	2	SIC	258	4_2	4	2	3	2	23_3_2	1	0	1	0	0.509117126465	-384.0	-33.0	-382.0	-40.0	1
3.0.1	2019_Mar_03_1505	s	s	1	2	SIC	259	3_1	3	1	2	3	23_2_3	1	2	1	0	0.516825199127	-531.0	-262.0	-536.0	-267.0	1
3.0.1	2019_Mar_03_1505	s	s	1	2	SIC	260	4_3	4	3	3	2	23_3_2	1	1	1	0	0.422769069672	-240.0	287.0	-240.0	286.0	1
3.0.1	2019_Mar_03_1505	s	s	1	2	SIC	261	1_4	1	4	3	3	23_3_3	2	1	1	0	0.575798034668	-473.0	-159.0	-474.0	-163.0	1
3.0.1	2019_Mar_03_1505	s	s	1	2	SIC	262	1_2	1	2	3	2	23_3_2	2	0	1	0	0.560658931732	212.0	-373.0	214.0	-379.0	1
3.0.1	2019_Mar_03_1505	s	s	1	2	SIC	263	3_4	3	4	2	2	23_2_2	1	2	1	0	0.677833080292	272.0	-193.0	267.0	-198.0	1
3.0.1	2019_Mar_03_1505	s	s	1	2	SIC	264	ABS	0	0	1	4	24_1_4	NA	NA	0	1	1.69280815125	None	None	None	None	1
3.0.1	2019_Mar_03_1505	s	s	1	2	SIC	265	ABS	0	0	2	2	24_2_2	NA	NA	0	1	2.87419581413	None	None	None	None	1
3.0.1	2019_Mar_03_1505	s	s	1	2	SIC	266	ABS	0	0	4	4	24_4_4	NA	NA	0	1	0.966602087021	None	None	None	None	1
3.0.1	2019_Mar_03_1505	s	s	1	2	SIC	267	ABS	0	0	1	1	24_1_1	NA	NA	0	1	2.33972215652	None	None	None	None	1
3.0.1	2019_Mar_03_1505	s	s	1	2	SIC	268	ABS	0	0	4	1	24_4_1	NA	NA	0	1	1.11702084541	None	None	None	None	1
3.0.1	2019_Mar_03_1505	s	s	1	2	SIC	269	ABS	0	0	4	2	24_4_2	NA	NA	0	1	4.09674596786	None	None	None	None	1
3.0.1	2019_Mar_03_1505	s	s	1	2	SIC	270	1_1	1	1	4	4	23_4_4	3	3	1	0	0.544839143753	533.0	-261.0	538.0	-266.0	1
3.0.1	2019_Mar_03_1505	s	s	1	2	SIC	271	1_1	1	1	3	1	23_3_1	2	0	1	0	0.528517007828	-299.0	-395.0	-288.0	-392.0	1
3.0.1	2019_Mar_03_1505	s	s	1	2	SIC	272	4_1	4	1	1	1	23_1_1	3	0	1	0	0.56387591362	-461.0	410.0	-470.0	413.0	1
3.0.1	2019_Mar_03_1505	s	s	1	2	SIC	273	ABS	0	0	3	3	24_3_3	NA	NA	0	1	3.35630989075	None	None	None	None	1
3.0.1	2019_Mar_03_1505	s	s	1	2	SIC	274	ABS	0	0	4	3	24_4_3	NA	NA	0	1	1.34011101723	None	None	None	None	1
3.0.1	2019_Mar_03_1505	s	s	1	2	SIC	275	ABS	0	0	3	2	24_3_2	NA	NA	0	1	1.89773392677	None	None	None	None	1
3.0.1	2019_Mar_03_1505	s	s	1	2	SIC	276	4_3	4	3	1	1	23_1_1	3	2	1	0	0.481524944305	218.0	-268.0	216.0	-263.0	1
3.0.1	2019_Mar_03_1505	s	s	1	2	SIC	277	ABS	0	0	1	1	24_1_1	NA	NA	0	1	1.52828598022	None	None	None	None	1
3.0.1	2019_Mar_03_1505	s	s	1	2	SIC	278	ABS	0	0	1	4	24_1_4	NA	NA	0	1	1.08424901962	None	None	None	None	1
3.0.1	2019_Mar_03_1505	s	s	1	2	SIC	279	ABS	0	0	3	1	24_3_1	NA	NA	0	1	1.3988699913	None	None	None	None	1
3.0.1	2019_Mar_03_1505	s	s	1	2	SIC	280	ABS	0	0	4	4	24_4_4	NA	NA	0	1	1.11123490334	None	None	None	None	1
3.0.1	2019_Mar_03_1505	s	s	1	2	SIC	281	ABS	0	0	2	1	24_2_1	NA	NA	0	1	2.37798595428	None	None	None	None	1
3.0.1	2019_Mar_03_1505	s	s	1	2	SIC	282	2_3	2	3	4	2	23_4_2	2	1	1	0	0.591496944427	123.0	-43.0	124.0	-42.0	1
3.0.1	2019_Mar_03_1505	s	s	1	2	SIC	283	ABS	0	0	4	1	24_4_1	NA	NA	0	1	1.72103691101	None	None	None	None	1
3.0.1	2019_Mar_03_1505	s	s	1	2	SIC	284	2_2	2	2	2	1	23_2_1	0	-1	0	1	2.90965104103	464.0	362.0	None	None	0
3.0.1	2019_Mar_03_1505	s	s	1	2	SIC	285	ABS	0	0	1	2	24_1_2	NA	NA	0	1	4.38619589806	None	None	None	None	1
3.0.1	2019_Mar_03_1505	s	s	1	2	SIC	286	1_3	1	3	1	2	23_1_2	0	1	1	0	2.59217810631	185.0	-21.0	186.0	-22.0	1
3.0.1	2019_Mar_03_1505	s	s	1	2	SIC	287	3_1	3	1	1	3	23_1_3	2	2	1	0	0.52863407135	-84.0	107.0	-81.0	108.0	1
3.0.1	2019_Mar_03_1505	s	s	1	2	SIC	288	4_1	4	1	3	3	23_3_3	1	2	1	0	0.427951097488	-532.0	-232.0	-526.0	-227.0	1
3.0.1	2019_Mar_03_1505	s	s	1	2	SIC	289	ABS	0	0	2	4	24_2_4	NA	NA	0	1	2.42887806892	None	None	None	None	1
3.0.1	2019_Mar_03_1505	s	s	1	2	SIC	290	3_2	3	2	4	1	23_4_1	-1	-1	1	0	0.646203994751	242.0	344.0	239.0	349.0	1
3.0.1	2019_Mar_03_1505	s	s	1	2	SIC	291	1_3	1	3	3	3	23_3_3	2	0	1	0	0.855216026306	-368.0	-398.0	-371.0	-394.0	1
3.0.1	2019_Mar_03_1505	s	s	1	2	SIC	292	ABS	0	0	4	4	24_4_4	NA	NA	0	1	1.28126215935	None	None	None	None	1
3.0.1	2019_Mar_03_1505	s	s	1	2	SIC	293	ABS	0	0	4	4	24_4_4	NA	NA	0	1	0.826757192612	None	None	None	None	1
3.0.1	2019_Mar_03_1505	s	s	1	2	SIC	294	ABS	0	0	2	2	24_2_2	NA	NA	0	1	4.77995014191	None	None	None	None	1
3.0.1	2019_Mar_03_1505	s	s	1	2	SIC	295	ABS	0	0	3	4	24_3_4	NA	NA	0	1	0.940585136414	None	None	None	None	1
3.0.1	2019_Mar_03_1505	s	s	1	2	SIC	296	3_3	3	3	1	1	23_1_1	2	2	1	0	0.646281003952	224.0	-30.0	215.0	-33.0	1
3.0.1	2019_Mar_03_1505	s	s	1	2	SIC	297	ABS	0	0	3	3	24_3_3	NA	NA	0	1	2.02516078949	None	None	None	None	1
3.0.1	2019_Mar_03_1505	s	s	1	2	SIC	298	ABS	0	0	2	4	24_2_4	NA	NA	0	1	2.80332708359	None	None	None	None	1
3.0.1	2019_Mar_03_1505	s	s	1	2	SIC	299	3_1	3	1	2	1	23_2_1	1	0	1	0	1.25781917572	-91.0	-392.0	-91.0	-398.0	1
3.0.1	2019_Mar_03_1505	s	s	1	2	SIC	300	ABS	0	0	4	2	24_4_2	NA	NA	0	1	4.39798903465	None	None	None	None	1
3.0.1	2019_Mar_03_1505	s	s	1	2	SIC	301	1_3	1	3	4	4	23_4_4	3	-1	1	0	0.561866998672	342.0	123.0	345.0	130.0	1
3.0.1	2019_Mar_03_1505	s	s	1	2	SIC	302	ABS	0	0	2	4	24_2_4	NA	NA	0	1	4.88017201424	None	None	None	None	1
3.0.1	2019_Mar_03_1505	s	s	1	2	SIC	303	ABS	0	0	1	2	24_1_2	NA	NA	0	1	5.84931397438	None	None	None	None	1
3.0.1	2019_Mar_03_1505	s	s	1	2	SIC	304	1_1	1	1	2	1	23_2_1	1	0	1	0	4.02453613281	-178.0	175.0	-180.0	172.0	1
3.0.1	2019_Mar_03_1505	s	s	1	2	SIC	305	2_4	2	4	1	2	23_1_2	-1	2	1	0	0.981326818466	44.0	40.0	45.0	42.0	1
3.0.1	2019_Mar_03_1505	s	s	1	2	SIC	306	ABS	0	0	2	3	24_2_3	NA	NA	0	1	3.37472295761	None	None	None	None	1
3.0.1	2019_Mar_03_1505	s	s	1	2	SIC	307	ABS	0	0	2	4	24_2_4	NA	NA	0	1	7.49122786522	None	None	None	None	1
3.0.1	2019_Mar_03_1505	s	s	1	2	SIC	308	ABS	0	0	3	4	24_3_4	NA	NA	0	1	1.55690908432	None	None	None	None	1
3.0.1	2019_Mar_03_1505	s	s	1	2	SIC	309	ABS	0	0	2	2	24_2_2	NA	NA	0	1	5.62114596367	None	None	None	None	1
3.0.1	2019_Mar_03_1505	s	s	1	2	SIC	310	4_1	4	1	1	3	23_1_3	3	2	1	0	0.511873960495	-450.0	169.0	-451.0	167.0	1
3.0.1	2019_Mar_03_1505	s	s	1	2	SIC	311	3_1	3	1	3	3	23_3_3	0	2	1	0	1.08415699005	290.0	235.0	293.0	239.0	1
3.0.1	2019_Mar_03_1505	s	s	1	2	SIC	312	ABS	0	0	2	1	24_2_1	NA	NA	0	1	3.3838429451	None	None	None	None	1
3.0.1	2019_Mar_03_1505	s	s	1	2	SIC	313	3_4	3	4	2	1	23_2_1	1	3	1	0	0.737031936646	312.0	-364.0	313.0	-376.0	1
3.0.1	2019_Mar_03_1505	s	s	1	2	SIC	314	1_2	1	2	2	2	23_2_2	1	0	1	0	4.0244910717	-112.0	354.0	-105.0	355.0	1
3.0.1	2019_Mar_03_1505	s	s	1	2	SIC	315	1_2	1	2	1	1	23_1_1	0	-1	0	1	3.14872384071	340.0	-259.0	None	None	0
3.0.1	2019_Mar_03_1505	s	s	1	2	SIC	316	2_4	2	4	1	1	23_1_1	-1	3	1	0	0.563899993896	-123.0	-279.0	-115.0	-270.0	1
3.0.1	2019_Mar_03_1505	s	s	1	2	SIC	317	4_3	4	3	2	2	23_2_2	2	1	1	0	0.429352045059	257.0	-21.0	262.0	-19.0	1
3.0.1	2019_Mar_03_1505	s	s	1	2	SIC	318	4_3	4	3	3	4	23_3_4	1	-1	1	0	0.451886892319	-318.0	132.0	-316.0	131.0	1
3.0.1	2019_Mar_03_1505	s	s	1	2	SIC	319	ABS	0	0	3	3	24_3_3	NA	NA	0	1	1.56866407394	None	None	None	None	1
3.0.1	2019_Mar_03_1505	s	s	1	2	SIC	320	4_4	4	4	1	4	23_1_4	3	0	1	0	0.481420040131	380.0	152.0	376.0	156.0	1
3.0.1	2019_Mar_03_1505	s	s	1	2	SIC	321	4_1	4	1	2	1	23_2_1	2	0	1	0	0.580967903137	499.0	-341.0	500.0	-347.0	1
3.0.1	2019_Mar_03_1505	s	s	1	2	SIC	322	ABS	0	0	4	1	24_4_1	NA	NA	0	1	1.66150283813	None	None	None	None	1
3.0.1	2019_Mar_03_1505	s	s	1	2	SIC	323	3_1	3	1	1	1	23_1_1	2	0	1	0	0.511682987213	-451.0	337.0	-455.0	337.0	1
3.0.1	2019_Mar_03_1505	s	s	1	2	SIC	324	4_4	4	4	3	1	23_3_1	1	3	1	0	0.709580898285	426.0	-151.0	429.0	-154.0	1
3.0.1	2019_Mar_03_1505	s	s	1	2	SIC	325	2_4	2	4	1	4	23_1_4	-1	0	0	1	1.39177799225	-304.0	122.0	None	None	0
3.0.1	2019_Mar_03_1505	s	s	1	2	SIC	326	ABS	0	0	1	4	24_1_4	NA	NA	0	1	1.8488779068	None	None	None	None	1
3.0.1	2019_Mar_03_1505	s	s	1	2	SIC	327	1_4	1	4	2	3	23_2_3	1	1	1	0	1.75177001953	30.0	-301.0	34.0	-302.0	1
3.0.1	2019_Mar_03_1505	s	s	1	2	SIC	328	ABS	0	0	1	4	24_1_4	NA	NA	0	1	2.87176513672	None	None	None	None	1
3.0.1	2019_Mar_03_1505	s	s	1	2	SIC	329	2_4	2	4	2	1	23_2_1	0	3	1	0	0.629045009613	357.0	-170.0	361.0	-173.0	1
3.0.1	2019_Mar_03_1505	s	s	1	2	SIC	330	1_2	1	2	2	4	23_2_4	1	2	1	0	0.945264101028	-136.0	-15.0	-136.0	-14.0	1
3.0.1	2019_Mar_03_1505	s	s	1	2	SIC	331	3_1	3	1	4	4	23_4_4	-1	3	1	0	0.70498585701	494.0	-246.0	488.0	-247.0	1
3.0.1	2019_Mar_03_1505	s	s	1	2	SIC	332	4_3	4	3	1	4	23_1_4	3	-1	1	0	0.51678609848	-154.0	366.0	-158.0	369.0	1
3.0.1	2019_Mar_03_1505	s	s	1	2	SIC	333	2_3	2	3	2	2	23_2_2	0	1	1	0	1.91639304161	128.0	-99.0	121.0	-98.0	1
3.0.1	2019_Mar_03_1505	s	s	1	2	SIC	334	3_1	3	1	4	1	23_4_1	-1	0	1	0	0.474763870239	350.0	70.0	351.0	68.0	1
3.0.1	2019_Mar_03_1505	s	s	1	2	SIC	335	ABS	0	0	1	2	24_1_2	NA	NA	0	1	5.55883097649	None	None	None	None	1
3.0.1	2019_Mar_03_1505	s	s	1	2	SIC	336	4_2	4	2	1	4	23_1_4	3	2	1	0	0.496191978455	-494.0	-258.0	-487.0	-254.0	1
3.0.1	2019_Mar_03_1505	s	s	1	2	SIC	337	2_1	2	1	3	3	23_3_3	1	2	1	0	0.587327957153	-521.0	-266.0	-513.0	-263.0	1
3.0.1	2019_Mar_03_1505	s	s	1	2	SIC	338	1_3	1	3	2	2	23_2_2	1	1	1	0	1.65133094788	-229.0	139.0	-232.0	136.0	1
3.0.1	2019_Mar_03_1505	s	s	1	2	SIC	339	ABS	0	0	3	1	24_3_1	NA	NA	0	1	2.21707606316	None	None	None	None	1
3.0.1	2019_Mar_03_1505	s	s	1	2	SIC	340	ABS	0	0	2	4	24_2_4	NA	NA	0	1	2.64565205574	None	None	None	None	1
3.0.1	2019_Mar_03_1505	s	s	1	2	SIC	341	ABS	0	0	2	1	24_2_1	NA	NA	0	1	4.6387219429	None	None	None	None	1
3.0.1	2019_Mar_03_1505	s	s	1	2	SIC	342	ABS	0	0	4	3	24_4_3	NA	NA	0	1	4.527354002	None	None	None	None	1
3.0.1	2019_Mar_03_1505	s	s	1	2	SIC	343	ABS	0	0	3	2	24_3_2	NA	NA	0	1	4.95609402657	None	None	None	None	1
3.0.1	2019_Mar_03_1505	s	s	1	2	SIC	344	ABS	0	0	4	3	24_4_3	NA	NA	0	1	3.62177300453	None	None	None	None	1
3.0.1	2019_Mar_03_1505	s	s	1	2	SIC	345	1_2	1	2	4	1	23_4_1	3	-1	1	0	0.546136856079	-171.0	277.0	-172.0	275.0	1
3.0.1	2019_Mar_03_1505	s	s	1	2	SIC	346	3_2	3	2	1	4	23_1_4	2	2	1	0	0.555415153503	-398.0	-94.0	-395.0	-93.0	1
3.0.1	2019_Mar_03_1505	s	s	1	2	SIC	347	ABS	0	0	2	1	24_2_1	NA	NA	0	1	4.50796294212	None	None	None	None	1
3.0.1	2019_Mar_03_1505	s	s	1	2	SIC	348	ABS	0	0	1	1	24_1_1	NA	NA	0	1	1.66394400597	None	None	None	None	1
3.0.1	2019_Mar_03_1505	s	s	1	2	SIC	349	ABS	0	0	2	2	24_2_2	NA	NA	0	1	4.91540002823	None	None	None	None	1
3.0.1	2019_Mar_03_1505	s	s	1	2	SIC	350	3_3	3	3	4	4	23_4_4	-1	-1	1	0	0.505120038986	347.0	-47.0	351.0	-46.0	1
3.0.1	2019_Mar_03_1505	s	s	1	2	SIC	351	2_3	2	3	1	1	23_1_1	-1	2	1	0	0.932526111603	-494.0	-327.0	-494.0	-324.0	1
3.0.1	2019_Mar_03_1505	s	s	1	2	SIC	352	ABS	0	0	3	2	24_3_2	NA	NA	0	1	4.86846017838	None	None	None	None	1
3.0.1	2019_Mar_03_1505	s	s	1	2	SIC	353	2_4	2	4	4	4	23_4_4	2	0	1	0	0.446270942688	-331.0	156.0	-322.0	160.0	1
3.0.1	2019_Mar_03_1505	s	s	1	2	SIC	354	ABS	0	0	4	3	24_4_3	NA	NA	0	1	5.33151483536	None	None	None	None	1
3.0.1	2019_Mar_03_1505	s	s	1	2	SIC	355	1_1	1	1	4	1	23_4_1	3	0	1	0	0.427964925766	1.0	-167.0	9.0	-167.0	1
3.0.1	2019_Mar_03_1505	s	s	1	2	SIC	356	3_2	3	2	4	2	23_4_2	-1	0	1	0	0.422811031342	4.0	-181.0	5.0	-172.0	1
3.0.1	2019_Mar_03_1505	s	s	1	2	SIC	357	ABS	0	0	4	2	24_4_2	NA	NA	0	1	2.22490596771	None	None	None	None	1
3.0.1	2019_Mar_03_1505	s	s	1	2	SIC	358	ABS	0	0	4	4	24_4_4	NA	NA	0	1	1.8392188549	None	None	None	None	1
3.0.1	2019_Mar_03_1505	s	s	1	2	SIC	359	ABS	0	0	2	3	24_2_3	NA	NA	0	1	2.46029615402	None	None	None	None	1
3.0.1	2019_Mar_03_1505	s	s	1	2	SIC	360	ABS	0	0	1	2	24_1_2	NA	NA	0	1	4.11964511871	None	None	None	None	1
3.0.1	2019_Mar_03_1505	s	s	1	2	SIC	361	3_2	3	2	4	4	23_4_4	-1	2	1	0	0.422786951065	-87.0	102.0	-85.0	101.0	1
3.0.1	2019_Mar_03_1505	s	s	1	2	SIC	362	1_1	1	1	3	4	23_3_4	2	3	1	0	0.486453056335	-334.0	248.0	-338.0	247.0	1
3.0.1	2019_Mar_03_1505	s	s	1	2	SIC	363	ABS	0	0	2	4	24_2_4	NA	NA	0	1	1.77525901794	None	None	None	None	1
3.0.1	2019_Mar_03_1505	s	s	1	2	SIC	364	4_1	4	1	4	4	23_4_4	0	3	1	0	0.460913896561	-156.0	-47.0	-147.0	-45.0	1
3.0.1	2019_Mar_03_1505	s	s	1	2	SIC	365	ABS	0	0	2	2	24_2_2	NA	NA	0	1	5.01249909401	None	None	None	None	1
3.0.1	2019_Mar_03_1505	s	s	1	2	SIC	366	ABS	0	0	1	2	24_1_2	NA	NA	0	1	3.45713400841	None	None	None	None	1
3.0.1	2019_Mar_03_1505	s	s	1	2	SIC	367	4_4	4	4	2	2	23_2_2	2	2	1	0	0.486222982407	439.0	199.0	445.0	205.0	1
3.0.1	2019_Mar_03_1505	s	s	1	2	SIC	368	3_4	3	4	3	3	23_3_3	0	1	1	0	1.95170283318	503.0	-305.0	491.0	-297.0	1
3.0.1	2019_Mar_03_1505	s	s	1	2	SIC	369	2_4	2	4	3	2	23_3_2	1	2	1	0	0.619197130203	-140.0	367.0	-139.0	372.0	1
3.0.1	2019_Mar_03_1505	s	s	1	2	SIC	370	2_1	2	1	4	1	23_4_1	2	0	1	0	0.460806131363	323.0	169.0	320.0	166.0	1
3.0.1	2019_Mar_03_1505	s	s	1	2	SIC	371	2_2	2	2	3	1	23_3_1	1	-1	1	0	1.15864396095	-296.0	-380.0	-296.0	-381.0	1
3.0.1	2019_Mar_03_1505	s	s	1	2	SIC	372	3_4	3	4	1	4	23_1_4	2	0	1	0	0.540326833725	-354.0	44.0	-348.0	45.0	1
3.0.1	2019_Mar_03_1505	s	s	1	2	SIC	373	2_1	2	1	2	2	23_2_2	0	1	1	0	3.50099110603	503.0	-98.0	498.0	-96.0	1
3.0.1	2019_Mar_03_1505	s	s	1	2	SIC	374	3_1	3	1	3	4	23_3_4	0	3	1	0	0.957233190536	533.0	-392.0	530.0	-395.0	1
3.0.1	2019_Mar_03_1505	s	s	1	2	SIC	375	ABS	0	0	3	2	24_3_2	NA	NA	0	1	3.00322604179	None	None	None	None	1
3.0.1	2019_Mar_03_1505	s	s	1	2	SIC	376	2_4	2	4	4	2	23_4_2	2	2	1	0	0.485234022141	459.0	-132.0	461.0	-132.0	1
3.0.1	2019_Mar_03_1505	s	s	1	2	SIC	377	ABS	0	0	3	4	24_3_4	NA	NA	0	1	2.7988409996	None	None	None	None	1
3.0.1	2019_Mar_03_1505	s	s	1	2	SIC	378	ABS	0	0	4	1	24_4_1	NA	NA	0	1	1.45026183128	None	None	None	None	1
3.0.1	2019_Mar_03_1505	s	s	1	2	SIC	379	ABS	0	0	4	2	24_4_2	NA	NA	0	1	4.04510211945	None	None	None	None	1
3.0.1	2019_Mar_03_1505	s	s	1	2	SIC	380	ABS	0	0	3	2	24_3_2	NA	NA	0	1	3.64523386955	None	None	None	None	1
3.0.1	2019_Mar_03_1505	s	s	1	2	SIC	381	3_1	3	1	4	2	23_4_2	-1	1	1	0	0.505062103271	-379.0	120.0	-378.0	120.0	1
3.0.1	2019_Mar_03_1505	s	s	1	2	SIC	382	4_4	4	4	3	3	23_3_3	1	1	1	0	0.437339067459	508.0	-288.0	507.0	-280.0	1
3.0.1	2019_Mar_03_1505	s	s	1	2	SIC	383	ABS	0	0	4	2	24_4_2	NA	NA	0	1	3.4573071003	None	None	None	None	1
3.0.1	2019_Mar_03_1505	s	s	1	2	SIC	384	1_1	1	1	2	3	23_2_3	1	2	1	0	1.09810686111	-261.0	-16.0	-256.0	-16.0	1
3.0.1	2019_Mar_03_1505	s	s	1	2	SIC	385	ABS	0	0	2	4	24_2_4	NA	NA	0	1	2.13442492485	None	None	None	None	1
3.0.1	2019_Mar_03_1505	s	s	1	2	SIC	386	ABS	0	0	4	2	24_4_2	NA	NA	0	1	3.6810131073	None	None	None	None	1
3.0.1	2019_Mar_03_1505	s	s	1	2	SIC	387	ABS	0	0	2	4	24_2_4	NA	NA	0	1	1.90991091728	None	None	None	None	1
3.0.1	2019_Mar_03_1505	s	s	1	2	SIC	388	2_1	2	1	3	2	23_3_2	1	1	1	0	0.74076795578	-363.0	370.0	-371.0	364.0	1
3.0.1	2019_Mar_03_1505	s	s	1	2	SIC	389	ABS	0	0	1	1	24_1_1	NA	NA	0	1	2.30455994606	None	None	None	None	1
3.0.1	2019_Mar_03_1505	s	s	1	2	SIC	390	2_3	2	3	4	3	23_4_3	2	0	1	0	0.446256160736	457.0	346.0	465.0	344.0	1
3.0.1	2019_Mar_03_1505	s	s	1	2	SIC	391	ABS	0	0	1	4	24_1_4	NA	NA	0	1	1.99863195419	None	None	None	None	1
3.0.1	2019_Mar_03_1505	s	s	1	2	SIC	392	4_2	4	2	1	2	23_1_2	3	0	1	0	0.451645851135	-78.0	-240.0	-79.0	-233.0	1
3.0.1	2019_Mar_03_1505	s	s	1	2	SIC	393	ABS	0	0	1	1	24_1_1	NA	NA	0	1	2.29279184341	None	None	None	None	1
3.0.1	2019_Mar_03_1505	s	s	1	2	SIC	394	3_1	3	1	2	2	23_2_2	1	1	1	0	0.63440990448	124.0	-310.0	132.0	-311.0	1
3.0.1	2019_Mar_03_1505	s	s	1	2	SIC	395	ABS	0	0	4	2	24_4_2	NA	NA	0	1	2.41559290886	None	None	None	None	1
3.0.1	2019_Mar_03_1505	s	s	1	2	SIC	396	1_1	1	1	1	2	23_1_2	0	1	1	0	3.57467913628	-414.0	-410.0	-421.0	-407.0	1
3.0.1	2019_Mar_03_1505	s	s	1	2	SIC	397	2_3	2	3	3	3	23_3_3	1	0	1	0	0.716796875	-330.0	256.0	-325.0	256.0	1
3.0.1	2019_Mar_03_1505	s	s	1	2	SIC	398	ABS	0	0	2	1	24_2_1	NA	NA	0	1	4.51895594597	None	None	None	None	1
3.0.1	2019_Mar_03_1505	s	s	1	2	SIC	399	2_2	2	2	3	2	23_3_2	1	0	1	0	0.932960987091	-439.0	-38.0	-437.0	-42.0	1
3.0.1	2019_Mar_03_1505	s	s	1	2	SIC	400	4_3	4	3	4	4	23_4_4	0	-1	1	0	0.957039833069	335.0	246.0	330.0	244.0	1
3.0.1	2019_Mar_03_1505	s	s	1	2	SIC	401	1_1	1	1	1	4	23_1_4	0	3	1	0	0.590312004089	203.0	321.0	196.0	323.0	1
3.0.1	2019_Mar_03_1505	s	s	1	2	SIC	402	ABS	0	0	1	1	24_1_1	NA	NA	0	1	2.64558196068	None	None	None	None	1
3.0.1	2019_Mar_03_1505	s	s	1	2	SIC	403	4_3	4	3	2	1	23_2_1	2	2	1	0	0.634399175644	285.0	9.0	273.0	10.0	1
3.0.1	2019_Mar_03_1505	s	s	1	2	SIC	404	4_4	4	4	4	1	23_4_1	0	3	1	0	0.554965019226	397.0	-31.0	394.0	-31.0	1
3.0.1	2019_Mar_03_1505	s	s	1	2	SIC	405	3_2	3	2	4	3	23_4_3	-1	1	1	0	0.443165063858	435.0	185.0	441.0	184.0	1
3.0.1	2019_Mar_03_1505	s	s	1	2	SIC	406	ABS	0	0	4	3	24_4_3	NA	NA	0	1	3.586384058	None	None	None	None	1
3.0.1	2019_Mar_03_1505	s	s	1	2	SIC	407	3_2	3	2	1	2	23_1_2	2	0	1	0	0.740279912949	316.0	405.0	312.0	402.0	1
3.0.1	2019_Mar_03_1505	s	s	1	2	SIC	408	3_2	3	2	3	1	23_3_1	0	-1	1	0	2.10455179214	-56.0	-64.0	-57.0	-59.0	1
3.0.1	2019_Mar_03_1505	s	s	1	2	SIC	409	ABS	0	0	4	1	24_4_1	NA	NA	0	1	1.22287297249	None	None	None	None	1
3.0.1	2019_Mar_03_1505	s	s	1	2	SIC	410	3_3	3	3	4	1	23_4_1	-1	2	1	0	0.463181972504	-463.0	277.0	-465.0	274.0	1
3.0.1	2019_Mar_03_1505	s	s	1	2	SIC	411	1_4	1	4	3	2	23_3_2	2	2	1	0	0.68163895607	259.0	-130.0	262.0	-124.0	1
3.0.1	2019_Mar_03_1505	s	s	1	2	SIC	412	ABS	0	0	2	2	24_2_2	NA	NA	0	1	4.404515028	None	None	None	None	1
3.0.1	2019_Mar_03_1505	s	s	1	2	SIC	413	ABS	0	0	2	3	24_2_3	NA	NA	0	1	3.60992884636	None	None	None	None	1
3.0.1	2019_Mar_03_1505	s	s	1	2	SIC	414	ABS	0	0	2	1	24_2_1	NA	NA	0	1	2.64942789078	None	None	None	None	1
3.0.1	2019_Mar_03_1505	s	s	1	2	SIC	415	ABS	0	0	4	1	24_4_1	NA	NA	0	1	1.18025493622	None	None	None	None	1
3.0.1	2019_Mar_03_1505	s	s	1	2	SIC	416	1_2	1	2	4	4	23_4_4	3	2	1	0	0.48152589798	395.0	-62.0	403.0	-57.0	1
3.0.1	2019_Mar_03_1505	s	s	1	2	SIC	417	4_2	4	2	2	3	23_2_3	2	1	1	0	0.491827011108	-418.0	315.0	-418.0	312.0	1
3.0.1	2019_Mar_03_1505	s	s	1	2	SIC	418	1_3	1	3	4	2	23_4_2	3	1	1	0	0.540369987488	256.0	43.0	250.0	48.0	1
3.0.1	2019_Mar_03_1505	s	s	1	2	SIC	419	4_4	4	4	4	2	23_4_2	0	2	1	0	0.893184900284	-344.0	112.0	-347.0	108.0	1
3.0.1	2019_Mar_03_1505	s	s	1	2	SIC	420	2_3	2	3	1	3	23_1_3	-1	0	1	0	4.31852793694	60.0	374.0	63.0	374.0	1
3.0.1	2019_Mar_03_1505	s	s	1	2	SIC	421	ABS	0	0	1	1	24_1_1	NA	NA	0	1	3.21965503693	None	None	None	None	1
3.0.1	2019_Mar_03_1505	s	s	1	2	SIC	422	ABS	0	0	2	3	24_2_3	NA	NA	0	1	3.11641192436	None	None	None	None	1
3.0.1	2019_Mar_03_1505	s	s	1	2	SIC	423	3_4	3	4	1	3	23_1_3	2	1	1	0	0.893187999725	-397.0	-349.0	-399.0	-349.0	1
3.0.1	2019_Mar_03_1505	s	s	1	2	SIC	424	1_3	1	3	4	3	23_4_3	3	0	1	0	0.410957098007	-459.0	-7.0	-456.0	-6.0	1
3.0.1	2019_Mar_03_1505	s	s	1	2	SIC	425	4_3	4	3	4	2	23_4_2	0	1	1	0	2.91344499588	392.0	248.0	394.0	249.0	1
3.0.1	2019_Mar_03_1505	s	s	1	2	SIC	426	ABS	0	0	1	1	24_1_1	NA	NA	0	1	1.6928589344	None	None	None	None	1
3.0.1	2019_Mar_03_1505	s	s	1	2	SIC	427	ABS	0	0	3	4	24_3_4	NA	NA	0	1	1.08424592018	None	None	None	None	1
3.0.1	2019_Mar_03_1505	s	s	1	2	SIC	428	ABS	0	0	4	4	24_4_4	NA	NA	0	1	1.57529807091	None	None	None	None	1
3.0.1	2019_Mar_03_1505	s	s	1	2	SIC	429	ABS	0	0	3	1	24_3_1	NA	NA	0	1	1.85756993294	None	None	None	None	1
3.0.1	2019_Mar_03_1505	s	s	1	2	SIC	430	3_3	3	3	2	3	23_2_3	1	0	1	0	0.945513963699	-245.0	-386.0	-249.0	-382.0	1
3.0.1	2019_Mar_03_1505	s	s	1	2	SIC	431	2_3	2	3	1	2	23_1_2	-1	1	1	0	1.23863101006	56.0	-257.0	61.0	-267.0	1
3.0.1	2019_Mar_03_1505	s	s	1	2	SIC	432	ABS	0	0	1	3	24_1_3	NA	NA	0	1	2.68500304222	None	None	None	None	1
3.0.1	2019_Mar_03_1505	s	s	1	2	SIC	433	ABS	0	0	1	1	24_1_1	NA	NA	0	1	2.4575138092	None	None	None	None	1
3.0.1	2019_Mar_03_1505	s	s	1	2	SIC	434	1_4	1	4	2	2	23_2_2	1	2	1	0	0.607983827591	230.0	79.0	222.0	80.0	1
3.0.1	2019_Mar_03_1505	s	s	1	2	SIC	435	ABS	0	0	2	2	24_2_2	NA	NA	0	1	3.88427901268	None	None	None	None	1
3.0.1	2019_Mar_03_1505	s	s	1	2	SIC	436	ABS	0	0	4	3	24_4_3	NA	NA	0	1	1.71650481224	None	None	None	None	1
3.0.1	2019_Mar_03_1505	s	s	1	2	SIC	437	3_2	3	2	2	1	23_2_1	1	-1	1	0	0.663429021835	-225.0	13.0	-217.0	17.0	1
3.0.1	2019_Mar_03_1505	s	s	1	2	SIC	438	4_3	4	3	4	1	23_4_1	0	2	1	0	0.95719909668	515.0	-103.0	514.0	-105.0	1
3.0.1	2019_Mar_03_1505	s	s	1	2	SIC	439	3_1	3	1	1	2	23_1_2	2	1	1	0	0.505032062531	240.0	0.0	235.0	3.0	1
3.0.1	2019_Mar_03_1505	s	s	1	2	SIC	440	4_4	4	4	3	4	23_3_4	1	0	1	0	0.672639131546	-240.0	384.0	-237.0	390.0	1
3.0.1	2019_Mar_03_1505	s	s	1	2	SIC	441	3_4	3	4	4	1	23_4_1	-1	3	1	0	0.51069188118	-170.0	-314.0	-162.0	-309.0	1
3.0.1	2019_Mar_03_1505	s	s	1	2	SIC	442	ABS	0	0	4	3	24_4_3	NA	NA	0	1	4.31852602959	None	None	None	None	1
3.0.1	2019_Mar_03_1505	s	s	1	2	SIC	443	1_2	1	2	3	4	23_3_4	2	2	1	0	0.473427057266	201.0	-31.0	199.0	-32.0	1
3.0.1	2019_Mar_03_1505	s	s	1	2	SIC	444	1_4	1	4	1	2	23_1_2	0	2	1	0	0.752043008804	-473.0	-154.0	-464.0	-150.0	1
3.0.1	2019_Mar_03_1505	s	s	1	2	SIC	445	4_2	4	2	3	1	23_3_1	1	-1	1	0	0.423156023026	-336.0	-304.0	-338.0	-303.0	1
3.0.1	2019_Mar_03_1505	s	s	1	2	SIC	446	ABS	0	0	3	3	24_3_3	NA	NA	0	1	3.53945302963	None	None	None	None	1
3.0.1	2019_Mar_03_1505	s	s	1	2	SIC	447	1_3	1	3	3	4	23_3_4	2	-1	1	0	0.522039890289	126.0	137.0	128.0	137.0	1
3.0.1	2019_Mar_03_1505	s	s	1	2	SIC	448	1_3	1	3	3	2	23_3_2	2	1	1	0	0.474928855896	-359.0	-103.0	-352.0	-98.0	1
3.0.1	2019_Mar_03_1505	s	s	1	2	SIC	449	3_1	3	1	3	2	23_3_2	0	1	0	1	1.81484913826	-229.0	233.0	None	None	0
3.0.1	2019_Mar_03_1505	s	s	1	2	SIC	450	ABS	0	0	2	4	24_2_4	NA	NA	0	1	1.17011594772	None	None	None	None	1
3.0.1	2019_Mar_03_1505	s	s	1	2	SIC	451	ABS	0	0	3	1	24_3_1	NA	NA	0	1	1.31700801849	None	None	None	None	1
3.0.1	2019_Mar_03_1505	s	s	1	2	SIC	452	4_3	4	3	1	2	23_1_2	3	1	1	0	0.555998086929	323.0	-190.0	316.0	-184.0	1
3.0.1	2019_Mar_03_1505	s	s	1	2	SIC	453	2_1	2	1	1	4	23_1_4	-1	3	1	0	0.737498998642	116.0	-117.0	108.0	-115.0	1
3.0.1	2019_Mar_03_1505	s	s	1	2	SIC	454	ABS	0	0	4	4	24_4_4	NA	NA	0	1	1.49689817429	None	None	None	None	1
3.0.1	2019_Mar_03_1505	s	s	1	2	SIC	455	ABS	0	0	3	2	24_3_2	NA	NA	0	1	2.05059814453	None	None	None	None	1
3.0.1	2019_Mar_03_1505	s	s	1	2	SIC	456	ABS	0	0	3	2	24_3_2	NA	NA	0	1	2.13254714012	None	None	None	None	1
3.0.1	2019_Mar_03_1505	s	s	1	2	SIC	457	1_2	1	2	4	3	23_4_3	3	1	1	0	0.450546979904	-455.0	297.0	-463.0	301.0	1
3.0.1	2019_Mar_03_1505	s	s	1	2	SIC	458	ABS	0	0	2	4	24_2_4	NA	NA	0	1	1.20580410957	None	None	None	None	1
3.0.1	2019_Mar_03_1505	s	s	1	2	SIC	459	ABS	0	0	4	3	24_4_3	NA	NA	0	1	2.57493591309	None	None	None	None	1
3.0.1	2019_Mar_03_1505	s	s	1	2	SIC	460	2_2	2	2	1	2	23_1_2	-1	0	1	0	4.20529913902	-41.0	316.0	-41.0	318.0	1
3.0.1	2019_Mar_03_1505	s	s	1	2	SIC	461	ABS	0	0	2	2	24_2_2	NA	NA	0	1	2.89260387421	None	None	None	None	1
3.0.1	2019_Mar_03_1505	s	s	1	2	SIC	462	2_1	2	1	2	4	23_2_4	0	3	1	0	0.810801029205	532.0	-295.0	527.0	-295.0	1
3.0.1	2019_Mar_03_1505	s	s	1	2	SIC	463	ABS	0	0	2	2	24_2_2	NA	NA	0	1	4.99772691727	None	None	None	None	1
3.0.1	2019_Mar_03_1505	s	s	1	2	SIC	464	2_2	2	2	1	3	23_1_3	-1	1	1	0	1.32378602028	387.0	152.0	390.0	144.0	1
3.0.1	2019_Mar_03_1505	s	s	1	2	SIC	465	ABS	0	0	4	1	24_4_1	NA	NA	0	1	1.74502182007	None	None	None	None	1
3.0.1	2019_Mar_03_1505	s	s	1	2	SIC	466	ABS	0	0	2	4	24_2_4	NA	NA	0	1	1.52152705193	None	None	None	None	1
3.0.1	2019_Mar_03_1505	s	s	1	2	SIC	467	ABS	0	0	3	1	24_3_1	NA	NA	0	1	2.03995203972	None	None	None	None	1
3.0.1	2019_Mar_03_1505	s	s	1	2	SIC	468	ABS	0	0	2	3	24_2_3	NA	NA	0	1	4.49494099617	None	None	None	None	1
3.0.1	2019_Mar_03_1505	s	s	1	2	SIC	469	ABS	0	0	1	3	24_1_3	NA	NA	0	1	3.84522199631	None	None	None	None	1
3.0.1	2019_Mar_03_1505	s	s	1	2	SIC	470	2_1	2	1	4	3	23_4_3	2	2	1	0	0.545277833939	5.0	174.0	8.0	170.0	1
3.0.1	2019_Mar_03_1505	s	s	1	2	SIC	471	1_1	1	1	3	3	23_3_3	2	2	1	0	0.47465801239	46.0	83.0	41.0	72.0	1
3.0.1	2019_Mar_03_1505	s	s	1	2	SIC	472	4_2	4	2	3	4	23_3_4	1	2	1	0	0.916684865952	118.0	-264.0	125.0	-269.0	1
3.0.1	2019_Mar_03_1505	s	s	1	2	SIC	473	2_4	2	4	4	1	23_4_1	2	3	1	0	0.458016872406	-99.0	307.0	-102.0	309.0	1
3.0.1	2019_Mar_03_1505	s	s	1	2	SIC	474	ABS	0	0	2	1	24_2_1	NA	NA	0	1	4.66848802567	None	None	None	None	1
3.0.1	2019_Mar_03_1505	s	s	1	2	SIC	475	ABS	0	0	3	3	24_3_3	NA	NA	0	1	2.07735109329	None	None	None	None	1
3.0.1	2019_Mar_03_1505	s	s	1	2	SIC	476	ABS	0	0	2	1	24_2_1	NA	NA	0	1	1.91636109352	None	None	None	None	1
3.0.1	2019_Mar_03_1505	s	s	1	2	SIC	477	2_2	2	2	2	4	23_2_4	0	2	1	0	0.620104074478	13.0	-260.0	7.0	-265.0	1
3.0.1	2019_Mar_03_1505	s	s	1	2	SIC	478	ABS	0	0	4	2	24_4_2	NA	NA	0	1	3.84805393219	None	None	None	None	1
3.0.1	2019_Mar_03_1505	s	s	1	2	SIC	479	1_1	1	1	1	3	23_1_3	0	2	1	0	1.05123806	19.0	-20.0	22.0	-10.0	1
3.0.1	2019_Mar_03_1505	s	s	1	2	SIC	480	ABS	0	0	2	1	24_2_1	NA	NA	0	1	2.02223396301	None	None	None	None	1
