Version	Date	Stimuli	Method	Subject	Session	Condition	Trial	Target	TColor	TShape	DColor	DShape	Distractors	Channel1	Channel2	LMouseButton	RMouseButton	RT	TargetX	TargetY	ResponseX	ResponseY	Correct
3.0.1	2019_Mar_04_1502	s	s	1	3	Capacity	1	3_1	3	1	4	1	23_4_1	-1	0	1	0	0.496632099152	-318.0	-37.0	-312.0	-34.0	1
3.0.1	2019_Mar_04_1502	s	s	1	3	Capacity	2	1_1	1	1	4	1	23_4_1	3	0	1	0	0.65803194046	-309.0	207.0	-310.0	209.0	1
3.0.1	2019_Mar_04_1502	s	s	1	3	Capacity	3	ABS	0	0	3	1	24_3_1	NA	NA	0	1	3.37028217316	None	None	None	None	1
3.0.1	2019_Mar_04_1502	s	s	1	3	Capacity	4	ABS	0	0	2	1	24_2_1	NA	NA	0	1	4.14223098755	None	None	None	None	1
3.0.1	2019_Mar_04_1502	s	s	1	3	Capacity	5	ABS	0	0	1	1	24_1_1	NA	NA	0	1	3.85702109337	None	None	None	None	1
3.0.1	2019_Mar_04_1502	s	s	1	3	Capacity	6	ABS	0	0	2	1	24_2_1	NA	NA	0	1	3.93937897682	None	None	None	None	1
3.0.1	2019_Mar_04_1502	s	s	1	3	Capacity	7	ABS	0	0	1	1	24_1_1	NA	NA	0	1	4.37737202644	None	None	None	None	1
3.0.1	2019_Mar_04_1502	s	s	1	3	Capacity	8	ABS	0	0	4	1	24_4_1	NA	NA	0	1	2.37798690796	None	None	None	None	1
3.0.1	2019_Mar_04_1502	s	s	1	3	Capacity	9	4_1	4	1	1	1	23_1_1	3	0	1	0	0.48156619072	364.0	127.0	371.0	125.0	1
3.0.1	2019_Mar_04_1502	s	s	1	3	Capacity	10	2_1	2	1	3	1	23_3_1	1	0	1	0	0.62268614769	-328.0	-229.0	-325.0	-226.0	1
3.0.1	2019_Mar_04_1502	s	s	1	3	Capacity	11	2_1	2	1	1	1	23_1_1	-1	0	1	0	2.48760414124	495.0	194.0	498.0	196.0	1
3.0.1	2019_Mar_04_1502	s	s	1	3	Capacity	12	4_1	4	1	2	1	23_2_1	2	0	1	0	0.457992076874	-501.0	379.0	-502.0	373.0	1
3.0.1	2019_Mar_04_1502	s	s	1	3	Capacity	13	1_1	1	1	3	1	23_3_1	2	0	1	0	0.599436044693	-56.0	-73.0	-54.0	-75.0	1
3.0.1	2019_Mar_04_1502	s	s	1	3	Capacity	14	3_1	3	1	2	1	23_2_1	1	0	1	0	0.619489908218	-535.0	-248.0	-544.0	-246.0	1
3.0.1	2019_Mar_04_1502	s	s	1	3	Capacity	15	ABS	0	0	4	1	24_4_1	NA	NA	0	1	1.50320911407	None	None	None	None	1
3.0.1	2019_Mar_04_1502	s	s	1	3	Capacity	16	ABS	0	0	1	1	24_1_1	NA	NA	0	1	6.13184404373	None	None	None	None	1
3.0.1	2019_Mar_04_1502	s	s	1	3	Capacity	17	ABS	0	0	4	1	24_4_1	NA	NA	0	1	1.83697485924	None	None	None	None	1
3.0.1	2019_Mar_04_1502	s	s	1	3	Capacity	18	2_1	2	1	4	1	23_4_1	2	0	1	0	0.528560876846	421.0	-122.0	423.0	-122.0	1
3.0.1	2019_Mar_04_1502	s	s	1	3	Capacity	19	ABS	0	0	3	1	24_3_1	NA	NA	0	1	1.91639184952	None	None	None	None	1
3.0.1	2019_Mar_04_1502	s	s	1	3	Capacity	20	4_1	4	1	3	1	23_3_1	1	0	1	0	0.475334882736	63.0	262.0	61.0	254.0	1
3.0.1	2019_Mar_04_1502	s	s	1	3	Capacity	21	ABS	0	0	2	1	24_2_1	NA	NA	1	0	1.26066708565	None	None	37.0	165.0	0
3.0.1	2019_Mar_04_1502	s	s	1	3	Capacity	22	1_1	1	1	2	1	23_2_1	1	0	1	0	3.59820985794	-4.0	-183.0	-7.0	-186.0	1
3.0.1	2019_Mar_04_1502	s	s	1	3	Capacity	23	3_1	3	1	1	1	23_1_1	2	0	1	0	0.634490013123	203.0	244.0	202.0	246.0	1
3.0.1	2019_Mar_04_1502	s	s	1	3	Capacity	24	ABS	0	0	3	1	24_3_1	NA	NA	0	1	2.90723705292	None	None	None	None	1
3.0.1	2019_Mar_04_1502	s	s	1	3	Capacity	25	ABS	0	0	4	1	24_4_1	NA	NA	0	1	1.76359009743	None	None	None	None	1
3.0.1	2019_Mar_04_1502	s	s	1	3	Capacity	26	2_1	2	1	3	1	23_3_1	1	0	1	0	0.893224954605	294.0	-222.0	290.0	-217.0	1
3.0.1	2019_Mar_04_1502	s	s	1	3	Capacity	27	ABS	0	0	1	1	24_1_1	NA	NA	0	1	3.79815292358	None	None	None	None	1
3.0.1	2019_Mar_04_1502	s	s	1	3	Capacity	28	2_1	2	1	4	1	23_4_1	2	0	1	0	0.493286132812	463.0	-185.0	458.0	-186.0	1
3.0.1	2019_Mar_04_1502	s	s	1	3	Capacity	29	ABS	0	0	2	1	24_2_1	NA	NA	1	0	3.76281189919	None	None	-343.0	80.0	0
3.0.1	2019_Mar_04_1502	s	s	1	3	Capacity	30	ABS	0	0	1	1	24_1_1	NA	NA	0	1	3.41002988815	None	None	None	None	1
3.0.1	2019_Mar_04_1502	s	s	1	3	Capacity	31	ABS	0	0	3	1	24_3_1	NA	NA	0	1	1.02646613121	None	None	None	None	1
3.0.1	2019_Mar_04_1502	s	s	1	3	Capacity	32	ABS	0	0	3	1	24_3_1	NA	NA	0	1	1.63414716721	None	None	None	None	1
3.0.1	2019_Mar_04_1502	s	s	1	3	Capacity	33	4_1	4	1	2	1	23_2_1	2	0	1	0	0.516784191132	-237.0	-211.0	-238.0	-212.0	1
3.0.1	2019_Mar_04_1502	s	s	1	3	Capacity	34	3_1	3	1	1	1	23_1_1	2	0	1	0	0.533675909042	155.0	-336.0	153.0	-330.0	1
3.0.1	2019_Mar_04_1502	s	s	1	3	Capacity	35	4_1	4	1	3	1	23_3_1	1	0	1	0	0.50509595871	-522.0	31.0	-527.0	31.0	1
3.0.1	2019_Mar_04_1502	s	s	1	3	Capacity	36	2_1	2	1	1	1	23_1_1	-1	0	1	0	1.70982694626	364.0	117.0	364.0	117.0	1
3.0.1	2019_Mar_04_1502	s	s	1	3	Capacity	37	ABS	0	0	1	1	24_1_1	NA	NA	0	1	3.96570301056	None	None	None	None	1
3.0.1	2019_Mar_04_1502	s	s	1	3	Capacity	38	1_1	1	1	4	1	23_4_1	3	0	1	0	0.559301137924	355.0	-221.0	365.0	-220.0	1
3.0.1	2019_Mar_04_1502	s	s	1	3	Capacity	39	ABS	0	0	4	1	24_4_1	NA	NA	0	1	1.50470995903	None	None	None	None	1
3.0.1	2019_Mar_04_1502	s	s	1	3	Capacity	40	3_1	3	1	2	1	23_2_1	1	0	1	0	0.605780124664	-496.0	-149.0	-498.0	-147.0	1
3.0.1	2019_Mar_04_1502	s	s	1	3	Capacity	41	3_1	3	1	4	1	23_4_1	-1	0	1	0	0.516726970673	336.0	-130.0	331.0	-131.0	1
3.0.1	2019_Mar_04_1502	s	s	1	3	Capacity	42	1_1	1	1	3	1	23_3_1	2	0	1	0	0.704996824265	478.0	-88.0	479.0	-87.0	1
3.0.1	2019_Mar_04_1502	s	s	1	3	Capacity	43	ABS	0	0	3	1	24_3_1	NA	NA	0	1	2.17520284653	None	None	None	None	1
3.0.1	2019_Mar_04_1502	s	s	1	3	Capacity	44	ABS	0	0	4	1	24_4_1	NA	NA	0	1	1.67245483398	None	None	None	None	1
3.0.1	2019_Mar_04_1502	s	s	1	3	Capacity	45	1_1	1	1	2	1	23_2_1	1	0	0	1	5.14835619926	366.0	-281.0	None	None	0
3.0.1	2019_Mar_04_1502	s	s	1	3	Capacity	46	ABS	0	0	2	1	24_2_1	NA	NA	0	1	5.30357694626	None	None	None	None	1
3.0.1	2019_Mar_04_1502	s	s	1	3	Capacity	47	ABS	0	0	2	1	24_2_1	NA	NA	1	0	3.84817695618	None	None	-488.0	202.0	0
3.0.1	2019_Mar_04_1502	s	s	1	3	Capacity	48	4_1	4	1	1	1	23_1_1	3	0	1	0	0.802922964096	-255.0	-4.0	-260.0	-5.0	1
3.0.1	2019_Mar_04_1502	s	s	1	3	Capacity	49	3_1	3	1	2	1	23_2_1	1	0	1	0	0.58043885231	266.0	312.0	276.0	313.0	1
3.0.1	2019_Mar_04_1502	s	s	1	3	Capacity	50	ABS	0	0	4	1	24_4_1	NA	NA	0	1	1.1337659359	None	None	None	None	1
3.0.1	2019_Mar_04_1502	s	s	1	3	Capacity	51	1_1	1	1	4	1	23_4_1	3	0	1	0	0.415923118591	37.0	111.0	44.0	107.0	1
3.0.1	2019_Mar_04_1502	s	s	1	3	Capacity	52	ABS	0	0	3	1	24_3_1	NA	NA	0	1	1.58698797226	None	None	None	None	1
3.0.1	2019_Mar_04_1502	s	s	1	3	Capacity	53	1_1	1	1	2	1	23_2_1	1	0	1	0	1.64585995674	-427.0	-79.0	-423.0	-86.0	1
3.0.1	2019_Mar_04_1502	s	s	1	3	Capacity	54	1_1	1	1	3	1	23_3_1	2	0	1	0	0.555014133453	-148.0	59.0	-139.0	57.0	1
3.0.1	2019_Mar_04_1502	s	s	1	3	Capacity	55	ABS	0	0	1	1	24_1_1	NA	NA	0	1	3.70405721664	None	None	None	None	1
3.0.1	2019_Mar_04_1502	s	s	1	3	Capacity	56	ABS	0	0	2	1	24_2_1	NA	NA	1	0	2.42710494995	None	None	-472.0	-33.0	0
3.0.1	2019_Mar_04_1502	s	s	1	3	Capacity	57	ABS	0	0	2	1	24_2_1	NA	NA	0	1	3.66222310066	None	None	None	None	1
3.0.1	2019_Mar_04_1502	s	s	1	3	Capacity	58	2_1	2	1	3	1	23_3_1	1	0	1	0	0.568854093552	-432.0	233.0	-429.0	236.0	1
3.0.1	2019_Mar_04_1502	s	s	1	3	Capacity	59	4_1	4	1	2	1	23_2_1	2	0	1	0	0.463624954224	-14.0	-188.0	-3.0	-184.0	1
3.0.1	2019_Mar_04_1502	s	s	1	3	Capacity	60	ABS	0	0	4	1	24_4_1	NA	NA	0	1	0.752049922943	None	None	None	None	1
3.0.1	2019_Mar_04_1502	s	s	1	3	Capacity	61	ABS	0	0	2	1	24_2_1	NA	NA	0	1	4.74401593208	None	None	None	None	1
3.0.1	2019_Mar_04_1502	s	s	1	3	Capacity	62	ABS	0	0	3	1	24_3_1	NA	NA	0	1	1.49585986137	None	None	None	None	1
3.0.1	2019_Mar_04_1502	s	s	1	3	Capacity	63	4_1	4	1	1	1	23_1_1	3	0	1	0	0.415910005569	330.0	318.0	335.0	317.0	1
3.0.1	2019_Mar_04_1502	s	s	1	3	Capacity	64	ABS	0	0	1	1	24_1_1	NA	NA	0	1	2.88513302803	None	None	None	None	1
3.0.1	2019_Mar_04_1502	s	s	1	3	Capacity	65	2_1	2	1	4	1	23_4_1	2	0	1	0	0.446270942688	-447.0	336.0	-452.0	335.0	1
3.0.1	2019_Mar_04_1502	s	s	1	3	Capacity	66	ABS	0	0	4	1	24_4_1	NA	NA	0	1	0.604336023331	None	None	None	None	1
3.0.1	2019_Mar_04_1502	s	s	1	3	Capacity	67	ABS	0	0	1	1	24_1_1	NA	NA	0	1	6.13864016533	None	None	None	None	1
3.0.1	2019_Mar_04_1502	s	s	1	3	Capacity	68	3_1	3	1	1	1	23_1_1	2	0	1	0	0.74320101738	517.0	-384.0	522.0	-392.0	1
3.0.1	2019_Mar_04_1502	s	s	1	3	Capacity	69	4_1	4	1	3	1	23_3_1	1	0	1	0	0.469712972641	315.0	332.0	313.0	342.0	1
3.0.1	2019_Mar_04_1502	s	s	1	3	Capacity	70	2_1	2	1	1	1	23_1_1	-1	0	1	0	0.731524944305	173.0	245.0	169.0	239.0	1
3.0.1	2019_Mar_04_1502	s	s	1	3	Capacity	71	3_1	3	1	4	1	23_4_1	-1	0	1	0	0.545455932617	-37.0	-28.0	-38.0	-23.0	1
3.0.1	2019_Mar_04_1502	s	s	1	3	Capacity	72	ABS	0	0	3	1	24_3_1	NA	NA	0	1	2.20156288147	None	None	None	None	1
3.0.1	2019_Mar_04_1502	s	s	1	3	Capacity	73	ABS	0	0	3	1	24_3_1	NA	NA	0	1	2.41031193733	None	None	None	None	1
3.0.1	2019_Mar_04_1502	s	s	1	3	Capacity	74	ABS	0	0	4	1	24_4_1	NA	NA	0	1	1.26077795029	None	None	None	None	1
3.0.1	2019_Mar_04_1502	s	s	1	3	Capacity	75	2_1	2	1	1	1	23_1_1	-1	0	1	0	3.20610904694	-155.0	251.0	-151.0	252.0	1
3.0.1	2019_Mar_04_1502	s	s	1	3	Capacity	76	4_1	4	1	2	1	23_2_1	2	0	1	0	0.6766269207	518.0	-38.0	521.0	-40.0	1
3.0.1	2019_Mar_04_1502	s	s	1	3	Capacity	77	ABS	0	0	2	1	24_2_1	NA	NA	0	1	3.94405698776	None	None	None	None	1
3.0.1	2019_Mar_04_1502	s	s	1	3	Capacity	78	ABS	0	0	4	1	24_4_1	NA	NA	0	1	1.20184516907	None	None	None	None	1
3.0.1	2019_Mar_04_1502	s	s	1	3	Capacity	79	ABS	0	0	2	1	24_2_1	NA	NA	0	1	5.6026930809	None	None	None	None	1
3.0.1	2019_Mar_04_1502	s	s	1	3	Capacity	80	ABS	0	0	1	1	24_1_1	NA	NA	1	0	5.40347599983	None	None	-389.0	336.0	0
3.0.1	2019_Mar_04_1502	s	s	1	3	Capacity	81	3_1	3	1	1	1	23_1_1	2	0	1	0	0.604385852814	201.0	-207.0	198.0	-210.0	1
3.0.1	2019_Mar_04_1502	s	s	1	3	Capacity	82	2_1	2	1	3	1	23_3_1	1	0	1	0	0.928503036499	516.0	-147.0	522.0	-148.0	1
3.0.1	2019_Mar_04_1502	s	s	1	3	Capacity	83	3_1	3	1	2	1	23_2_1	1	0	1	0	1.75175309181	-503.0	-315.0	-499.0	-313.0	1
3.0.1	2019_Mar_04_1502	s	s	1	3	Capacity	84	4_1	4	1	1	1	23_1_1	3	0	1	0	0.516826868057	-510.0	-248.0	-498.0	-245.0	1
3.0.1	2019_Mar_04_1502	s	s	1	3	Capacity	85	ABS	0	0	2	1	24_2_1	NA	NA	0	1	6.20917105675	None	None	None	None	1
3.0.1	2019_Mar_04_1502	s	s	1	3	Capacity	86	ABS	0	0	1	1	24_1_1	NA	NA	0	1	4.82140803337	None	None	None	None	1
3.0.1	2019_Mar_04_1502	s	s	1	3	Capacity	87	3_1	3	1	4	1	23_4_1	-1	0	1	0	0.469760894775	270.0	-404.0	273.0	-412.0	1
3.0.1	2019_Mar_04_1502	s	s	1	3	Capacity	88	ABS	0	0	4	1	24_4_1	NA	NA	0	1	0.781265974045	None	None	None	None	1
3.0.1	2019_Mar_04_1502	s	s	1	3	Capacity	89	ABS	0	0	3	1	24_3_1	NA	NA	0	1	2.16344594955	None	None	None	None	1
3.0.1	2019_Mar_04_1502	s	s	1	3	Capacity	90	1_1	1	1	4	1	23_4_1	3	0	1	0	0.422744989395	317.0	277.0	314.0	276.0	1
3.0.1	2019_Mar_04_1502	s	s	1	3	Capacity	91	ABS	0	0	1	1	24_1_1	NA	NA	0	1	4.50998616219	None	None	None	None	1
3.0.1	2019_Mar_04_1502	s	s	1	3	Capacity	92	4_1	4	1	3	1	23_3_1	1	0	1	0	0.516800165176	281.0	-64.0	281.0	-64.0	1
3.0.1	2019_Mar_04_1502	s	s	1	3	Capacity	93	1_1	1	1	3	1	23_3_1	2	0	1	0	0.545377016068	283.0	280.0	289.0	288.0	1
3.0.1	2019_Mar_04_1502	s	s	1	3	Capacity	94	2_1	2	1	4	1	23_4_1	2	0	1	0	0.533741950989	494.0	-88.0	487.0	-84.0	1
3.0.1	2019_Mar_04_1502	s	s	1	3	Capacity	95	ABS	0	0	3	1	24_3_1	NA	NA	0	1	2.15163993835	None	None	None	None	1
3.0.1	2019_Mar_04_1502	s	s	1	3	Capacity	96	1_1	1	1	2	1	23_2_1	1	0	1	0	4.13940095901	416.0	169.0	411.0	172.0	1
3.0.1	2019_Mar_04_1502	s	s	1	3	Capacity	1	1_3	1	3	1	4	23_1_4	0	-1	1	0	0.721929073334	254.0	232.0	261.0	229.0	1
3.0.1	2019_Mar_04_1502	s	s	1	3	Capacity	2	ABS	0	0	1	2	24_1_2	NA	NA	0	1	5.00075602531	None	None	None	None	1
3.0.1	2019_Mar_04_1502	s	s	1	3	Capacity	3	1_1	1	1	1	4	23_1_4	0	3	1	0	0.563853025436	-253.0	-187.0	-255.0	-180.0	1
3.0.1	2019_Mar_04_1502	s	s	1	3	Capacity	4	ABS	0	0	1	4	24_1_4	NA	NA	0	1	1.69291496277	None	None	None	None	1
3.0.1	2019_Mar_04_1502	s	s	1	3	Capacity	5	1_3	1	3	1	2	23_1_2	0	1	0	1	4.62639689445	435.0	217.0	None	None	0
3.0.1	2019_Mar_04_1502	s	s	1	3	Capacity	6	ABS	0	0	1	4	24_1_4	NA	NA	0	1	1.49305510521	None	None	None	None	1
3.0.1	2019_Mar_04_1502	s	s	1	3	Capacity	7	ABS	0	0	1	3	24_1_3	NA	NA	0	1	3.62177801132	None	None	None	None	1
3.0.1	2019_Mar_04_1502	s	s	1	3	Capacity	8	1_2	1	2	1	1	23_1_1	0	-1	1	0	2.33975410461	-389.0	-339.0	-242.0	-330.0	0
3.0.1	2019_Mar_04_1502	s	s	1	3	Capacity	9	ABS	0	0	1	3	24_1_3	NA	NA	0	1	4.87208104134	None	None	None	None	1
3.0.1	2019_Mar_04_1502	s	s	1	3	Capacity	10	ABS	0	0	1	1	24_1_1	NA	NA	0	1	2.67242312431	None	None	None	None	1
3.0.1	2019_Mar_04_1502	s	s	1	3	Capacity	11	ABS	0	0	1	3	24_1_3	NA	NA	0	1	3.2600979805	None	None	None	None	1
3.0.1	2019_Mar_04_1502	s	s	1	3	Capacity	12	1_2	1	2	1	3	23_1_3	0	1	1	0	1.58024406433	329.0	-174.0	324.0	-171.0	1
3.0.1	2019_Mar_04_1502	s	s	1	3	Capacity	13	1_1	1	1	1	3	23_1_3	0	2	1	0	1.01715993881	-535.0	87.0	-525.0	86.0	1
3.0.1	2019_Mar_04_1502	s	s	1	3	Capacity	14	1_4	1	4	1	1	23_1_1	0	3	1	0	0.834426879883	271.0	-96.0	267.0	-99.0	1
3.0.1	2019_Mar_04_1502	s	s	1	3	Capacity	15	1_2	1	2	1	4	23_1_4	0	2	1	0	0.805979013443	-220.0	146.0	-220.0	149.0	1
3.0.1	2019_Mar_04_1502	s	s	1	3	Capacity	16	1_4	1	4	1	3	23_1_3	0	1	1	0	2.35655403137	-217.0	-333.0	-211.0	-338.0	1
3.0.1	2019_Mar_04_1502	s	s	1	3	Capacity	17	ABS	0	0	1	2	24_1_2	NA	NA	0	1	5.90890002251	None	None	None	None	1
3.0.1	2019_Mar_04_1502	s	s	1	3	Capacity	18	1_1	1	1	1	2	23_1_2	0	1	0	1	4.51559400558	478.0	-313.0	None	None	0
3.0.1	2019_Mar_04_1502	s	s	1	3	Capacity	19	1_4	1	4	1	2	23_1_2	0	2	1	0	0.810904026031	-483.0	-277.0	-485.0	-272.0	1
3.0.1	2019_Mar_04_1502	s	s	1	3	Capacity	20	ABS	0	0	1	1	24_1_1	NA	NA	0	1	2.22213387489	None	None	None	None	1
3.0.1	2019_Mar_04_1502	s	s	1	3	Capacity	21	ABS	0	0	1	4	24_1_4	NA	NA	0	1	1.43703603745	None	None	None	None	1
3.0.1	2019_Mar_04_1502	s	s	1	3	Capacity	22	ABS	0	0	1	1	24_1_1	NA	NA	0	1	3.0901350975	None	None	None	None	1
3.0.1	2019_Mar_04_1502	s	s	1	3	Capacity	23	ABS	0	0	1	2	24_1_2	NA	NA	0	1	5.72047996521	None	None	None	None	1
3.0.1	2019_Mar_04_1502	s	s	1	3	Capacity	24	1_3	1	3	1	1	23_1_1	0	2	1	0	1.34534716606	-208.0	-349.0	-200.0	-344.0	1
3.0.1	2019_Mar_04_1502	s	s	1	3	Capacity	25	1_2	1	2	1	4	23_1_4	0	2	1	0	0.971369028091	-149.0	-53.0	-145.0	-54.0	1
3.0.1	2019_Mar_04_1502	s	s	1	3	Capacity	26	1_1	1	1	1	4	23_1_4	0	3	1	0	0.678240060806	456.0	121.0	457.0	120.0	1
3.0.1	2019_Mar_04_1502	s	s	1	3	Capacity	27	ABS	0	0	1	4	24_1_4	NA	NA	0	1	1.88153195381	None	None	None	None	1
3.0.1	2019_Mar_04_1502	s	s	1	3	Capacity	28	1_3	1	3	1	1	23_1_1	0	2	1	0	0.945362091064	283.0	73.0	294.0	77.0	1
3.0.1	2019_Mar_04_1502	s	s	1	3	Capacity	29	ABS	0	0	1	3	24_1_3	NA	NA	0	1	5.51530313492	None	None	None	None	1
3.0.1	2019_Mar_04_1502	s	s	1	3	Capacity	30	1_2	1	2	1	1	23_1_1	0	-1	1	0	1.92224502563	447.0	-74.0	450.0	-77.0	1
3.0.1	2019_Mar_04_1502	s	s	1	3	Capacity	31	ABS	0	0	1	4	24_1_4	NA	NA	0	1	1.795347929	None	None	None	None	1
3.0.1	2019_Mar_04_1502	s	s	1	3	Capacity	32	ABS	0	0	1	1	24_1_1	NA	NA	0	1	2.81526994705	None	None	None	None	1
3.0.1	2019_Mar_04_1502	s	s	1	3	Capacity	33	1_1	1	1	1	2	23_1_2	0	1	1	0	4.7772500515	282.0	-239.0	288.0	-240.0	1
3.0.1	2019_Mar_04_1502	s	s	1	3	Capacity	34	ABS	0	0	1	2	24_1_2	NA	NA	0	1	6.45084118843	None	None	None	None	1
3.0.1	2019_Mar_04_1502	s	s	1	3	Capacity	35	1_3	1	3	1	2	23_1_2	0	1	0	1	4.70378899574	-150.0	-403.0	None	None	0
3.0.1	2019_Mar_04_1502	s	s	1	3	Capacity	36	ABS	0	0	1	1	24_1_1	NA	NA	0	1	2.13336610794	None	None	None	None	1
3.0.1	2019_Mar_04_1502	s	s	1	3	Capacity	37	1_4	1	4	1	3	23_1_3	0	1	1	0	1.15669202805	54.0	-176.0	49.0	-169.0	1
3.0.1	2019_Mar_04_1502	s	s	1	3	Capacity	38	ABS	0	0	1	3	24_1_3	NA	NA	0	1	4.71559405327	None	None	None	None	1
3.0.1	2019_Mar_04_1502	s	s	1	3	Capacity	39	1_1	1	1	1	3	23_1_3	0	2	1	0	0.96663403511	-132.0	-14.0	-130.0	-9.0	1
3.0.1	2019_Mar_04_1502	s	s	1	3	Capacity	40	1_4	1	4	1	1	23_1_1	0	3	1	0	0.803485155106	-150.0	94.0	-147.0	92.0	1
3.0.1	2019_Mar_04_1502	s	s	1	3	Capacity	41	ABS	0	0	1	2	24_1_2	NA	NA	0	1	5.56692695618	None	None	None	None	1
3.0.1	2019_Mar_04_1502	s	s	1	3	Capacity	42	1_2	1	2	1	3	23_1_3	0	1	1	0	2.46927404404	48.0	-18.0	46.0	-10.0	1
3.0.1	2019_Mar_04_1502	s	s	1	3	Capacity	43	ABS	0	0	1	1	24_1_1	NA	NA	0	1	2.06935191154	None	None	None	None	1
3.0.1	2019_Mar_04_1502	s	s	1	3	Capacity	44	ABS	0	0	1	2	24_1_2	NA	NA	0	1	6.05630707741	None	None	None	None	1
3.0.1	2019_Mar_04_1502	s	s	1	3	Capacity	45	ABS	0	0	1	3	24_1_3	NA	NA	0	1	4.4685459137	None	None	None	None	1
3.0.1	2019_Mar_04_1502	s	s	1	3	Capacity	46	1_3	1	3	1	4	23_1_4	0	-1	1	0	0.863442897797	-154.0	94.0	-151.0	94.0	1
3.0.1	2019_Mar_04_1502	s	s	1	3	Capacity	47	1_4	1	4	1	2	23_1_2	0	2	1	0	0.828025817871	169.0	-19.0	165.0	-26.0	1
3.0.1	2019_Mar_04_1502	s	s	1	3	Capacity	48	ABS	0	0	1	4	24_1_4	NA	NA	0	1	1.73846101761	None	None	None	None	1
3.0.1	2019_Mar_04_1502	s	s	1	3	Capacity	49	1_1	1	1	1	2	23_1_2	0	1	1	0	3.56770014763	196.0	-99.0	195.0	-94.0	1
3.0.1	2019_Mar_04_1502	s	s	1	3	Capacity	50	1_3	1	3	1	1	23_1_1	0	2	1	0	1.38752794266	-277.0	281.0	-280.0	284.0	1
3.0.1	2019_Mar_04_1502	s	s	1	3	Capacity	51	ABS	0	0	1	2	24_1_2	NA	NA	0	1	6.52971696854	None	None	None	None	1
3.0.1	2019_Mar_04_1502	s	s	1	3	Capacity	52	ABS	0	0	1	1	24_1_1	NA	NA	0	1	2.73317098618	None	None	None	None	1
3.0.1	2019_Mar_04_1502	s	s	1	3	Capacity	53	1_2	1	2	1	3	23_1_3	0	1	1	0	1.69318699837	-404.0	-273.0	-404.0	-272.0	1
3.0.1	2019_Mar_04_1502	s	s	1	3	Capacity	54	1_3	1	3	1	4	23_1_4	0	-1	1	0	0.678955078125	-270.0	-78.0	-257.0	-73.0	1
3.0.1	2019_Mar_04_1502	s	s	1	3	Capacity	55	ABS	0	0	1	2	24_1_2	NA	NA	0	1	4.71563100815	None	None	None	None	1
3.0.1	2019_Mar_04_1502	s	s	1	3	Capacity	56	ABS	0	0	1	4	24_1_4	NA	NA	0	1	1.97561693192	None	None	None	None	1
3.0.1	2019_Mar_04_1502	s	s	1	3	Capacity	57	1_4	1	4	1	1	23_1_1	0	3	1	0	0.675010919571	-464.0	-65.0	-458.0	-59.0	1
3.0.1	2019_Mar_04_1502	s	s	1	3	Capacity	58	1_4	1	4	1	2	23_1_2	0	2	1	0	0.834438085556	-536.0	18.0	-541.0	20.0	1
3.0.1	2019_Mar_04_1502	s	s	1	3	Capacity	59	1_3	1	3	1	2	23_1_2	0	1	1	0	3.32360005379	-513.0	337.0	-517.0	344.0	1
3.0.1	2019_Mar_04_1502	s	s	1	3	Capacity	60	ABS	0	0	1	1	24_1_1	NA	NA	0	1	1.78985500336	None	None	None	None	1
3.0.1	2019_Mar_04_1502	s	s	1	3	Capacity	61	ABS	0	0	1	4	24_1_4	NA	NA	0	1	1.88549399376	None	None	None	None	1
3.0.1	2019_Mar_04_1502	s	s	1	3	Capacity	62	ABS	0	0	1	3	24_1_3	NA	NA	0	1	5.36282515526	None	None	None	None	1
3.0.1	2019_Mar_04_1502	s	s	1	3	Capacity	63	1_2	1	2	1	4	23_1_4	0	2	1	0	1.05122590065	-348.0	-353.0	-350.0	-355.0	1
3.0.1	2019_Mar_04_1502	s	s	1	3	Capacity	64	1_1	1	1	1	4	23_1_4	0	3	1	0	0.575654983521	-507.0	-309.0	-501.0	-308.0	1
3.0.1	2019_Mar_04_1502	s	s	1	3	Capacity	65	1_4	1	4	1	3	23_1_3	0	1	1	0	0.931817054749	-337.0	161.0	-340.0	161.0	1
3.0.1	2019_Mar_04_1502	s	s	1	3	Capacity	66	ABS	0	0	1	2	24_1_2	NA	NA	0	1	4.70378684998	None	None	None	None	1
3.0.1	2019_Mar_04_1502	s	s	1	3	Capacity	67	ABS	0	0	1	3	24_1_3	NA	NA	0	1	2.80179405212	None	None	None	None	1
3.0.1	2019_Mar_04_1502	s	s	1	3	Capacity	68	1_2	1	2	1	1	23_1_1	0	-1	1	0	1.7214589119	249.0	114.0	241.0	112.0	1
3.0.1	2019_Mar_04_1502	s	s	1	3	Capacity	69	ABS	0	0	1	4	24_1_4	NA	NA	0	1	1.57572698593	None	None	None	None	1
3.0.1	2019_Mar_04_1502	s	s	1	3	Capacity	70	1_1	1	1	1	3	23_1_3	0	2	1	0	1.14971399307	-2.0	-289.0	-5.0	-295.0	1
3.0.1	2019_Mar_04_1502	s	s	1	3	Capacity	71	ABS	0	0	1	3	24_1_3	NA	NA	0	1	3.77987003326	None	None	None	None	1
3.0.1	2019_Mar_04_1502	s	s	1	3	Capacity	72	ABS	0	0	1	1	24_1_1	NA	NA	0	1	2.67201709747	None	None	None	None	1
3.0.1	2019_Mar_04_1502	s	s	1	3	Capacity	73	ABS	0	0	1	3	24_1_3	NA	NA	0	1	5.00962495804	None	None	None	None	1
3.0.1	2019_Mar_04_1502	s	s	1	3	Capacity	74	ABS	0	0	1	2	24_1_2	NA	NA	0	1	5.72988700867	None	None	None	None	1
3.0.1	2019_Mar_04_1502	s	s	1	3	Capacity	75	1_4	1	4	1	3	23_1_3	0	1	1	0	0.869621992111	4.0	264.0	11.0	258.0	1
3.0.1	2019_Mar_04_1502	s	s	1	3	Capacity	76	1_1	1	1	1	2	23_1_2	0	1	1	0	4.44502496719	233.0	-213.0	235.0	-214.0	1
3.0.1	2019_Mar_04_1502	s	s	1	3	Capacity	77	1_4	1	4	1	2	23_1_2	0	2	1	0	0.916684150696	-289.0	349.0	-294.0	356.0	1
3.0.1	2019_Mar_04_1502	s	s	1	3	Capacity	78	ABS	0	0	1	3	24_1_3	NA	NA	0	1	5.08010292053	None	None	None	None	1
3.0.1	2019_Mar_04_1502	s	s	1	3	Capacity	79	1_3	1	3	1	4	23_1_4	0	-1	1	0	1.23415899277	-330.0	76.0	-329.0	73.0	1
3.0.1	2019_Mar_04_1502	s	s	1	3	Capacity	80	ABS	0	0	1	2	24_1_2	NA	NA	0	1	4.9155189991	None	None	None	None	1
3.0.1	2019_Mar_04_1502	s	s	1	3	Capacity	81	ABS	0	0	1	1	24_1_1	NA	NA	0	1	2.28102302551	None	None	None	None	1
3.0.1	2019_Mar_04_1502	s	s	1	3	Capacity	82	1_4	1	4	1	1	23_1_1	0	3	1	0	1.0984787941	476.0	238.0	478.0	243.0	1
3.0.1	2019_Mar_04_1502	s	s	1	3	Capacity	83	ABS	0	0	1	4	24_1_4	NA	NA	0	1	3.38941693306	None	None	None	None	1
3.0.1	2019_Mar_04_1502	s	s	1	3	Capacity	84	1_2	1	2	1	4	23_1_4	0	2	1	0	1.02538585663	160.0	-257.0	160.0	-255.0	1
3.0.1	2019_Mar_04_1502	s	s	1	3	Capacity	85	1_1	1	1	1	4	23_1_4	0	3	1	0	0.849014997482	-424.0	12.0	-412.0	18.0	1
3.0.1	2019_Mar_04_1502	s	s	1	3	Capacity	86	1_1	1	1	1	3	23_1_3	0	2	1	0	3.3936021328	-514.0	-264.0	-518.0	-262.0	1
3.0.1	2019_Mar_04_1502	s	s	1	3	Capacity	87	ABS	0	0	1	4	24_1_4	NA	NA	0	1	3.24539279938	None	None	None	None	1
3.0.1	2019_Mar_04_1502	s	s	1	3	Capacity	88	1_2	1	2	1	1	23_1_1	0	-1	1	0	1.83703899384	-237.0	-246.0	-242.0	-242.0	1
3.0.1	2019_Mar_04_1502	s	s	1	3	Capacity	89	1_2	1	2	1	3	23_1_3	0	1	1	0	3.89742493629	-89.0	-373.0	-90.0	-375.0	1
3.0.1	2019_Mar_04_1502	s	s	1	3	Capacity	90	1_3	1	3	1	1	23_1_1	0	2	1	0	0.975522994995	-484.0	254.0	-483.0	256.0	1
3.0.1	2019_Mar_04_1502	s	s	1	3	Capacity	91	ABS	0	0	1	1	24_1_1	NA	NA	0	1	2.75146389008	None	None	None	None	1
3.0.1	2019_Mar_04_1502	s	s	1	3	Capacity	92	ABS	0	0	1	3	24_1_3	NA	NA	0	1	5.66115784645	None	None	None	None	1
3.0.1	2019_Mar_04_1502	s	s	1	3	Capacity	93	1_3	1	3	1	2	23_1_2	0	1	1	0	1.17978811264	-492.0	337.0	-218.0	267.0	0
3.0.1	2019_Mar_04_1502	s	s	1	3	Capacity	94	ABS	0	0	1	2	24_1_2	NA	NA	0	1	5.39807605743	None	None	None	None	1
3.0.1	2019_Mar_04_1502	s	s	1	3	Capacity	95	ABS	0	0	1	1	24_1_1	NA	NA	0	1	3.26006293297	None	None	None	None	1
3.0.1	2019_Mar_04_1502	s	s	1	3	Capacity	96	ABS	0	0	1	4	24_1_4	NA	NA	0	1	2.22216296196	None	None	None	None	1
3.0.1	2019_Mar_04_1502	s	s	1	3	SIC	1	ABS	0	0	4	4	24_4_4	NA	NA	0	1	1.13131093979	None	None	None	None	1
3.0.1	2019_Mar_04_1502	s	s	1	3	SIC	2	ABS	0	0	1	2	24_1_2	NA	NA	0	1	5.22125411034	None	None	None	None	1
3.0.1	2019_Mar_04_1502	s	s	1	3	SIC	3	2_2	2	2	4	3	23_4_3	2	1	1	0	0.575511932373	-88.0	-242.0	-86.0	-240.0	1
3.0.1	2019_Mar_04_1502	s	s	1	3	SIC	4	ABS	0	0	1	1	24_1_1	NA	NA	0	1	3.21300005913	None	None	None	None	1
3.0.1	2019_Mar_04_1502	s	s	1	3	SIC	5	ABS	0	0	4	3	24_4_3	NA	NA	0	1	2.64194107056	None	None	None	None	1
3.0.1	2019_Mar_04_1502	s	s	1	3	SIC	6	ABS	0	0	2	3	24_2_3	NA	NA	0	1	5.17421722412	None	None	None	None	1
3.0.1	2019_Mar_04_1502	s	s	1	3	SIC	7	1_3	1	3	4	1	23_4_1	3	2	1	0	0.545242071152	-426.0	-317.0	-419.0	-317.0	1
3.0.1	2019_Mar_04_1502	s	s	1	3	SIC	8	1_3	1	3	1	1	23_1_1	0	2	1	0	1.77530193329	94.0	367.0	90.0	367.0	1
3.0.1	2019_Mar_04_1502	s	s	1	3	SIC	9	ABS	0	0	3	4	24_3_4	NA	NA	0	1	1.67357897758	None	None	None	None	1
3.0.1	2019_Mar_04_1502	s	s	1	3	SIC	10	ABS	0	0	3	1	24_3_1	NA	NA	0	1	1.91662502289	None	None	None	None	1
3.0.1	2019_Mar_04_1502	s	s	1	3	SIC	11	ABS	0	0	4	2	24_4_2	NA	NA	0	1	4.98603487015	None	None	None	None	1
3.0.1	2019_Mar_04_1502	s	s	1	3	SIC	12	ABS	0	0	4	2	24_4_2	NA	NA	0	1	4.54405879974	None	None	None	None	1
3.0.1	2019_Mar_04_1502	s	s	1	3	SIC	13	ABS	0	0	2	4	24_2_4	NA	NA	0	1	2.18688702583	None	None	None	None	1
3.0.1	2019_Mar_04_1502	s	s	1	3	SIC	14	1_3	1	3	3	4	23_3_4	2	-1	1	0	0.587383985519	-414.0	-13.0	-414.0	-14.0	1
3.0.1	2019_Mar_04_1502	s	s	1	3	SIC	15	1_2	1	2	4	2	23_4_2	3	0	1	0	0.610882043839	466.0	-300.0	468.0	-302.0	1
3.0.1	2019_Mar_04_1502	s	s	1	3	SIC	16	ABS	0	0	4	4	24_4_4	NA	NA	0	1	0.909885168076	None	None	None	None	1
3.0.1	2019_Mar_04_1502	s	s	1	3	SIC	17	1_3	1	3	4	4	23_4_4	3	-1	1	0	0.51691198349	-280.0	344.0	-287.0	345.0	1
3.0.1	2019_Mar_04_1502	s	s	1	3	SIC	18	ABS	0	0	4	3	24_4_3	NA	NA	0	1	2.40491700172	None	None	None	None	1
3.0.1	2019_Mar_04_1502	s	s	1	3	SIC	19	ABS	0	0	1	3	24_1_3	NA	NA	0	1	3.10696697235	None	None	None	None	1
3.0.1	2019_Mar_04_1502	s	s	1	3	SIC	20	1_2	1	2	2	1	23_2_1	1	-1	1	0	1.40339303017	-207.0	-222.0	-203.0	-226.0	1
3.0.1	2019_Mar_04_1502	s	s	1	3	SIC	21	ABS	0	0	4	4	24_4_4	NA	NA	0	1	2.12161612511	None	None	None	None	1
3.0.1	2019_Mar_04_1502	s	s	1	3	SIC	22	1_1	1	1	4	3	23_4_3	3	2	1	0	0.650689125061	-93.0	361.0	-94.0	357.0	1
3.0.1	2019_Mar_04_1502	s	s	1	3	SIC	23	3_2	3	2	2	1	23_2_1	1	-1	1	0	0.64622092247	108.0	217.0	107.0	220.0	1
3.0.1	2019_Mar_04_1502	s	s	1	3	SIC	24	ABS	0	0	4	2	24_4_2	NA	NA	0	1	5.03608107567	None	None	None	None	1
3.0.1	2019_Mar_04_1502	s	s	1	3	SIC	25	1_1	1	1	3	2	23_3_2	2	1	1	0	0.799054145813	107.0	7.0	104.0	0.0	1
3.0.1	2019_Mar_04_1502	s	s	1	3	SIC	26	2_4	2	4	3	3	23_3_3	1	1	1	0	0.769578933716	-50.0	77.0	-50.0	80.0	1
3.0.1	2019_Mar_04_1502	s	s	1	3	SIC	27	1_1	1	1	3	4	23_3_4	2	3	1	0	0.686806917191	199.0	399.0	199.0	396.0	1
3.0.1	2019_Mar_04_1502	s	s	1	3	SIC	28	ABS	0	0	1	1	24_1_1	NA	NA	0	1	5.39771103859	None	None	None	None	1
3.0.1	2019_Mar_04_1502	s	s	1	3	SIC	29	ABS	0	0	2	3	24_2_3	NA	NA	0	1	4.74473810196	None	None	None	None	1
3.0.1	2019_Mar_04_1502	s	s	1	3	SIC	30	1_3	1	3	1	2	23_1_2	0	1	1	0	2.99883198738	-122.0	-256.0	-114.0	-257.0	1
3.0.1	2019_Mar_04_1502	s	s	1	3	SIC	31	ABS	0	0	4	2	24_4_2	NA	NA	0	1	2.32805299759	None	None	None	None	1
3.0.1	2019_Mar_04_1502	s	s	1	3	SIC	32	1_2	1	2	2	2	23_2_2	1	0	1	0	3.8263168335	366.0	168.0	369.0	171.0	1
3.0.1	2019_Mar_04_1502	s	s	1	3	SIC	33	ABS	0	0	2	4	24_2_4	NA	NA	0	1	2.77497982979	None	None	None	None	1
3.0.1	2019_Mar_04_1502	s	s	1	3	SIC	34	ABS	0	0	2	1	24_2_1	NA	NA	0	1	3.69229412079	None	None	None	None	1
3.0.1	2019_Mar_04_1502	s	s	1	3	SIC	35	ABS	0	0	4	1	24_4_1	NA	NA	0	1	1.41066718102	None	None	None	None	1
3.0.1	2019_Mar_04_1502	s	s	1	3	SIC	36	4_4	4	4	4	1	23_4_1	0	3	1	0	0.693514108658	-3.0	-48.0	-9.0	-44.0	1
3.0.1	2019_Mar_04_1502	s	s	1	3	SIC	37	ABS	0	0	4	1	24_4_1	NA	NA	0	1	1.28127789497	None	None	None	None	1
3.0.1	2019_Mar_04_1502	s	s	1	3	SIC	38	3_4	3	4	2	3	23_2_3	1	1	1	0	0.622648000717	-331.0	398.0	-326.0	403.0	1
3.0.1	2019_Mar_04_1502	s	s	1	3	SIC	39	1_2	1	2	4	1	23_4_1	3	-1	1	0	0.446251869202	-476.0	236.0	-472.0	232.0	1
3.0.1	2019_Mar_04_1502	s	s	1	3	SIC	40	ABS	0	0	3	4	24_3_4	NA	NA	0	1	2.60537385941	None	None	None	None	1
3.0.1	2019_Mar_04_1502	s	s	1	3	SIC	41	ABS	0	0	4	2	24_4_2	NA	NA	0	1	5.23304986954	None	None	None	None	1
3.0.1	2019_Mar_04_1502	s	s	1	3	SIC	42	ABS	0	0	2	2	24_2_2	NA	NA	0	1	8.06105303764	None	None	None	None	1
3.0.1	2019_Mar_04_1502	s	s	1	3	SIC	43	2_4	2	4	3	2	23_3_2	1	2	1	0	0.560749053955	-178.0	267.0	-171.0	266.0	1
3.0.1	2019_Mar_04_1502	s	s	1	3	SIC	44	2_1	2	1	4	4	23_4_4	2	3	1	0	0.67845082283	314.0	112.0	315.0	116.0	1
3.0.1	2019_Mar_04_1502	s	s	1	3	SIC	45	ABS	0	0	4	2	24_4_2	NA	NA	0	1	3.10430693626	None	None	None	None	1
3.0.1	2019_Mar_04_1502	s	s	1	3	SIC	46	3_2	3	2	4	3	23_4_3	-1	1	1	0	0.533429145813	-268.0	-365.0	-263.0	-367.0	1
3.0.1	2019_Mar_04_1502	s	s	1	3	SIC	47	ABS	0	0	2	4	24_2_4	NA	NA	0	1	3.59824991226	None	None	None	None	1
3.0.1	2019_Mar_04_1502	s	s	1	3	SIC	48	ABS	0	0	3	3	24_3_3	NA	NA	0	1	3.23981189728	None	None	None	None	1
3.0.1	2019_Mar_04_1502	s	s	1	3	SIC	49	ABS	0	0	3	4	24_3_4	NA	NA	0	1	1.42248082161	None	None	None	None	1
3.0.1	2019_Mar_04_1502	s	s	1	3	SIC	50	2_1	2	1	1	2	23_1_2	-1	1	0	1	6.40234780312	272.0	-311.0	None	None	0
3.0.1	2019_Mar_04_1502	s	s	1	3	SIC	51	4_2	4	2	1	4	23_1_4	3	2	1	0	0.657996892929	121.0	-145.0	114.0	-149.0	1
3.0.1	2019_Mar_04_1502	s	s	1	3	SIC	52	ABS	0	0	2	2	24_2_2	NA	NA	0	1	4.67142605782	None	None	None	None	1
3.0.1	2019_Mar_04_1502	s	s	1	3	SIC	53	ABS	0	0	2	4	24_2_4	NA	NA	0	1	4.72728180885	None	None	None	None	1
3.0.1	2019_Mar_04_1502	s	s	1	3	SIC	54	2_1	2	1	4	3	23_4_3	2	2	1	0	0.571506023407	460.0	364.0	469.0	363.0	1
3.0.1	2019_Mar_04_1502	s	s	1	3	SIC	55	ABS	0	0	2	1	24_2_1	NA	NA	0	1	3.92754101753	None	None	None	None	1
3.0.1	2019_Mar_04_1502	s	s	1	3	SIC	56	3_4	3	4	2	2	23_2_2	1	2	1	0	0.587366104126	524.0	26.0	517.0	26.0	1
3.0.1	2019_Mar_04_1502	s	s	1	3	SIC	57	ABS	0	0	1	3	24_1_3	NA	NA	0	1	4.87298703194	None	None	None	None	1
3.0.1	2019_Mar_04_1502	s	s	1	3	SIC	58	1_2	1	2	1	3	23_1_3	0	1	1	0	1.54010486603	-132.0	139.0	-137.0	130.0	1
3.0.1	2019_Mar_04_1502	s	s	1	3	SIC	59	ABS	0	0	3	3	24_3_3	NA	NA	0	1	1.88105916977	None	None	None	None	1
3.0.1	2019_Mar_04_1502	s	s	1	3	SIC	60	4_4	4	4	2	2	23_2_2	2	2	1	0	0.463186979294	-245.0	-41.0	-237.0	-40.0	1
3.0.1	2019_Mar_04_1502	s	s	1	3	SIC	61	ABS	0	0	1	2	24_1_2	NA	NA	0	1	5.1272008419	None	None	None	None	1
3.0.1	2019_Mar_04_1502	s	s	1	3	SIC	62	4_3	4	3	2	2	23_2_2	2	1	1	0	0.679951906204	-61.0	-384.0	-58.0	-385.0	1
3.0.1	2019_Mar_04_1502	s	s	1	3	SIC	63	3_3	3	3	4	1	23_4_1	-1	2	1	0	0.681349992752	103.0	-59.0	98.0	-59.0	1
3.0.1	2019_Mar_04_1502	s	s	1	3	SIC	64	4_3	4	3	3	3	23_3_3	1	0	1	0	0.663475036621	117.0	-213.0	123.0	-216.0	1
3.0.1	2019_Mar_04_1502	s	s	1	3	SIC	65	ABS	0	0	3	1	24_3_1	NA	NA	0	1	1.93980097771	None	None	None	None	1
3.0.1	2019_Mar_04_1502	s	s	1	3	SIC	66	4_2	4	2	1	3	23_1_3	3	1	1	0	0.516790866852	71.0	29.0	69.0	35.0	1
3.0.1	2019_Mar_04_1502	s	s	1	3	SIC	67	ABS	0	0	1	1	24_1_1	NA	NA	0	1	3.82172989845	None	None	None	None	1
3.0.1	2019_Mar_04_1502	s	s	1	3	SIC	68	ABS	0	0	1	4	24_1_4	NA	NA	0	1	2.96605205536	None	None	None	None	1
3.0.1	2019_Mar_04_1502	s	s	1	3	SIC	69	1_1	1	1	2	1	23_2_1	1	0	1	0	1.71658706665	-83.0	173.0	-86.0	181.0	1
3.0.1	2019_Mar_04_1502	s	s	1	3	SIC	70	2_2	2	2	1	1	23_1_1	-1	-1	1	0	0.907820940018	-472.0	159.0	-481.0	163.0	1
3.0.1	2019_Mar_04_1502	s	s	1	3	SIC	71	ABS	0	0	1	3	24_1_3	NA	NA	0	1	4.4145450592	None	None	None	None	1
3.0.1	2019_Mar_04_1502	s	s	1	3	SIC	72	1_3	1	3	4	2	23_4_2	3	1	1	0	0.501451969147	-458.0	-231.0	-460.0	-230.0	1
3.0.1	2019_Mar_04_1502	s	s	1	3	SIC	73	2_4	2	4	4	4	23_4_4	2	0	1	0	0.540297985077	86.0	-368.0	83.0	-366.0	1
3.0.1	2019_Mar_04_1502	s	s	1	3	SIC	74	ABS	0	0	3	4	24_3_4	NA	NA	0	1	1.73212194443	None	None	None	None	1
3.0.1	2019_Mar_04_1502	s	s	1	3	SIC	75	ABS	0	0	1	3	24_1_3	NA	NA	0	1	5.63298988342	None	None	None	None	1
3.0.1	2019_Mar_04_1502	s	s	1	3	SIC	76	ABS	0	0	1	1	24_1_1	NA	NA	0	1	4.45674800873	None	None	None	None	1
3.0.1	2019_Mar_04_1502	s	s	1	3	SIC	77	3_3	3	3	3	1	23_3_1	0	2	1	0	1.22250580788	-160.0	-266.0	-160.0	-277.0	1
3.0.1	2019_Mar_04_1502	s	s	1	3	SIC	78	ABS	0	0	3	2	24_3_2	NA	NA	0	1	4.72217011452	None	None	None	None	1
3.0.1	2019_Mar_04_1502	s	s	1	3	SIC	79	ABS	0	0	4	1	24_4_1	NA	NA	0	1	1.55194091797	None	None	None	None	1
3.0.1	2019_Mar_04_1502	s	s	1	3	SIC	80	ABS	0	0	2	4	24_2_4	NA	NA	0	1	3.17483091354	None	None	None	None	1
3.0.1	2019_Mar_04_1502	s	s	1	3	SIC	81	ABS	0	0	3	3	24_3_3	NA	NA	0	1	3.30420684814	None	None	None	None	1
3.0.1	2019_Mar_04_1502	s	s	1	3	SIC	82	ABS	0	0	2	4	24_2_4	NA	NA	0	1	2.64565992355	None	None	None	None	1
3.0.1	2019_Mar_04_1502	s	s	1	3	SIC	83	3_1	3	1	1	4	23_1_4	2	3	1	0	0.62789106369	366.0	-220.0	366.0	-215.0	1
3.0.1	2019_Mar_04_1502	s	s	1	3	SIC	84	ABS	0	0	2	2	24_2_2	NA	NA	0	1	6.36214208603	None	None	None	None	1
3.0.1	2019_Mar_04_1502	s	s	1	3	SIC	85	ABS	0	0	2	3	24_2_3	NA	NA	0	1	5.23302507401	None	None	None	None	1
3.0.1	2019_Mar_04_1502	s	s	1	3	SIC	86	ABS	0	0	3	2	24_3_2	NA	NA	0	1	5.46829581261	None	None	None	None	1
3.0.1	2019_Mar_04_1502	s	s	1	3	SIC	87	4_4	4	4	1	2	23_1_2	3	2	1	0	1.44594597816	164.0	107.0	167.0	116.0	1
3.0.1	2019_Mar_04_1502	s	s	1	3	SIC	88	ABS	0	0	1	4	24_1_4	NA	NA	0	1	2.22207999229	None	None	None	None	1
3.0.1	2019_Mar_04_1502	s	s	1	3	SIC	89	4_1	4	1	2	1	23_2_1	2	0	1	0	0.657955169678	-99.0	-223.0	-91.0	-216.0	1
3.0.1	2019_Mar_04_1502	s	s	1	3	SIC	90	ABS	0	0	1	1	24_1_1	NA	NA	0	1	3.38424992561	None	None	None	None	1
3.0.1	2019_Mar_04_1502	s	s	1	3	SIC	91	ABS	0	0	3	4	24_3_4	NA	NA	0	1	0.874936103821	None	None	None	None	1
3.0.1	2019_Mar_04_1502	s	s	1	3	SIC	92	1_3	1	3	2	4	23_2_4	1	-1	1	0	1.12845206261	-163.0	305.0	-160.0	308.0	1
3.0.1	2019_Mar_04_1502	s	s	1	3	SIC	93	2_3	2	3	1	2	23_1_2	-1	1	1	0	1.66278409958	-141.0	-2.0	-134.0	2.0	1
3.0.1	2019_Mar_04_1502	s	s	1	3	SIC	94	1_3	1	3	3	2	23_3_2	2	1	1	0	0.587361097336	-162.0	196.0	-160.0	198.0	1
3.0.1	2019_Mar_04_1502	s	s	1	3	SIC	95	4_1	4	1	4	3	23_4_3	0	2	0	1	3.36588406563	85.0	-404.0	None	None	0
3.0.1	2019_Mar_04_1502	s	s	1	3	SIC	96	3_4	3	4	2	4	23_2_4	1	0	1	0	0.755020856857	-465.0	-59.0	-459.0	-61.0	1
3.0.1	2019_Mar_04_1502	s	s	1	3	SIC	97	ABS	0	0	1	1	24_1_1	NA	NA	0	1	5.10835003853	None	None	None	None	1
3.0.1	2019_Mar_04_1502	s	s	1	3	SIC	98	1_2	1	2	3	4	23_3_4	2	2	1	0	0.575995922089	476.0	-185.0	482.0	-183.0	1
3.0.1	2019_Mar_04_1502	s	s	1	3	SIC	99	2_4	2	4	1	1	23_1_1	-1	3	1	0	0.803442955017	291.0	-322.0	288.0	-322.0	1
3.0.1	2019_Mar_04_1502	s	s	1	3	SIC	100	ABS	0	0	1	4	24_1_4	NA	NA	0	1	2.73386907578	None	None	None	None	1
3.0.1	2019_Mar_04_1502	s	s	1	3	SIC	101	ABS	0	0	4	4	24_4_4	NA	NA	0	1	1.33422017097	None	None	None	None	1
3.0.1	2019_Mar_04_1502	s	s	1	3	SIC	102	4_1	4	1	1	2	23_1_2	3	1	1	0	0.516862869263	234.0	-189.0	222.0	-188.0	1
3.0.1	2019_Mar_04_1502	s	s	1	3	SIC	103	ABS	0	0	4	1	24_4_1	NA	NA	0	1	1.22248387337	None	None	None	None	1
3.0.1	2019_Mar_04_1502	s	s	1	3	SIC	104	ABS	0	0	3	1	24_3_1	NA	NA	0	1	1.5400929451	None	None	None	None	1
3.0.1	2019_Mar_04_1502	s	s	1	3	SIC	105	ABS	0	0	4	3	24_4_3	NA	NA	0	1	3.55630993843	None	None	None	None	1
3.0.1	2019_Mar_04_1502	s	s	1	3	SIC	106	1_2	1	2	2	4	23_2_4	1	2	1	0	0.952071905136	502.0	-399.0	507.0	-404.0	1
3.0.1	2019_Mar_04_1502	s	s	1	3	SIC	107	4_3	4	3	1	3	23_1_3	3	0	1	0	0.623059034348	410.0	177.0	407.0	171.0	1
3.0.1	2019_Mar_04_1502	s	s	1	3	SIC	108	ABS	0	0	4	2	24_4_2	NA	NA	0	1	5.12718200684	None	None	None	None	1
3.0.1	2019_Mar_04_1502	s	s	1	3	SIC	109	ABS	0	0	4	1	24_4_1	NA	NA	0	1	2.39878296852	None	None	None	None	1
3.0.1	2019_Mar_04_1502	s	s	1	3	SIC	110	ABS	0	0	1	2	24_1_2	NA	NA	0	1	4.21497297287	None	None	None	None	1
3.0.1	2019_Mar_04_1502	s	s	1	3	SIC	111	2_3	2	3	2	2	23_2_2	0	1	1	0	1.61564087868	86.0	346.0	90.0	351.0	1
3.0.1	2019_Mar_04_1502	s	s	1	3	SIC	112	ABS	0	0	1	4	24_1_4	NA	NA	0	1	2.03116703033	None	None	None	None	1
3.0.1	2019_Mar_04_1502	s	s	1	3	SIC	113	3_4	3	4	3	2	23_3_2	0	2	1	0	0.751979827881	396.0	124.0	402.0	127.0	1
3.0.1	2019_Mar_04_1502	s	s	1	3	SIC	114	ABS	0	0	4	2	24_4_2	NA	NA	0	1	4.26898002625	None	None	None	None	1
3.0.1	2019_Mar_04_1502	s	s	1	3	SIC	115	2_3	2	3	3	2	23_3_2	1	1	1	0	0.931581020355	-86.0	22.0	-76.0	20.0	1
3.0.1	2019_Mar_04_1502	s	s	1	3	SIC	116	ABS	0	0	2	1	24_2_1	NA	NA	0	1	6.30852985382	None	None	None	None	1
3.0.1	2019_Mar_04_1502	s	s	1	3	SIC	117	2_4	2	4	3	4	23_3_4	1	0	1	0	0.657960891724	-197.0	-273.0	-199.0	-278.0	1
3.0.1	2019_Mar_04_1502	s	s	1	3	SIC	118	ABS	0	0	3	4	24_3_4	NA	NA	0	1	1.73826885223	None	None	None	None	1
3.0.1	2019_Mar_04_1502	s	s	1	3	SIC	119	1_3	1	3	3	3	23_3_3	2	0	1	0	0.505073070526	-284.0	89.0	-285.0	92.0	1
3.0.1	2019_Mar_04_1502	s	s	1	3	SIC	120	1_1	1	1	2	2	23_2_2	1	1	1	0	2.16330099106	-63.0	300.0	-69.0	303.0	1
3.0.1	2019_Mar_04_1502	s	s	1	3	SIC	121	4_4	4	4	1	1	23_1_1	3	3	1	0	0.752071857452	-362.0	269.0	-358.0	272.0	1
3.0.1	2019_Mar_04_1502	s	s	1	3	SIC	122	ABS	0	0	4	4	24_4_4	NA	NA	0	1	1.32275485992	None	None	None	None	1
3.0.1	2019_Mar_04_1502	s	s	1	3	SIC	123	2_1	2	1	2	4	23_2_4	0	3	1	0	0.610935926437	44.0	-94.0	46.0	-87.0	1
3.0.1	2019_Mar_04_1502	s	s	1	3	SIC	124	1_4	1	4	4	1	23_4_1	3	3	1	0	0.446264982224	-98.0	146.0	-95.0	141.0	1
3.0.1	2019_Mar_04_1502	s	s	1	3	SIC	125	ABS	0	0	2	1	24_2_1	NA	NA	0	1	4.74461984634	None	None	None	None	1
3.0.1	2019_Mar_04_1502	s	s	1	3	SIC	126	ABS	0	0	3	3	24_3_3	NA	NA	0	1	2.82738304138	None	None	None	None	1
3.0.1	2019_Mar_04_1502	s	s	1	3	SIC	127	1_3	1	3	2	1	23_2_1	1	2	1	0	0.827876091003	-291.0	-13.0	-286.0	-16.0	1
3.0.1	2019_Mar_04_1502	s	s	1	3	SIC	128	2_2	2	2	2	3	23_2_3	0	1	1	0	2.26138806343	67.0	183.0	62.0	172.0	1
3.0.1	2019_Mar_04_1502	s	s	1	3	SIC	129	ABS	0	0	2	3	24_2_3	NA	NA	0	1	3.1866748333	None	None	None	None	1
3.0.1	2019_Mar_04_1502	s	s	1	3	SIC	130	ABS	0	0	4	2	24_4_2	NA	NA	0	1	3.61813092232	None	None	None	None	1
3.0.1	2019_Mar_04_1502	s	s	1	3	SIC	131	1_4	1	4	2	1	23_2_1	1	3	1	0	0.681422948837	-387.0	294.0	-393.0	293.0	1
3.0.1	2019_Mar_04_1502	s	s	1	3	SIC	132	2_4	2	4	2	1	23_2_1	0	3	1	0	0.681900024414	-91.0	334.0	-86.0	330.0	1
3.0.1	2019_Mar_04_1502	s	s	1	3	SIC	133	ABS	0	0	1	4	24_1_4	NA	NA	0	1	1.76345205307	None	None	None	None	1
3.0.1	2019_Mar_04_1502	s	s	1	3	SIC	134	1_4	1	4	1	2	23_1_2	0	2	1	0	1.86046981812	-248.0	16.0	-247.0	20.0	1
3.0.1	2019_Mar_04_1502	s	s	1	3	SIC	135	2_2	2	2	3	3	23_3_3	1	1	1	0	1.23424291611	466.0	30.0	463.0	37.0	1
3.0.1	2019_Mar_04_1502	s	s	1	3	SIC	136	ABS	0	0	4	2	24_4_2	NA	NA	0	1	2.51153516769	None	None	None	None	1
3.0.1	2019_Mar_04_1502	s	s	1	3	SIC	137	2_1	2	1	3	3	23_3_3	1	2	1	0	0.555006027222	-243.0	276.0	-242.0	283.0	1
3.0.1	2019_Mar_04_1502	s	s	1	3	SIC	138	ABS	0	0	3	2	24_3_2	NA	NA	0	1	2.06935691833	None	None	None	None	1
3.0.1	2019_Mar_04_1502	s	s	1	3	SIC	139	ABS	0	0	4	3	24_4_3	NA	NA	0	1	3.40983295441	None	None	None	None	1
3.0.1	2019_Mar_04_1502	s	s	1	3	SIC	140	ABS	0	0	2	3	24_2_3	NA	NA	0	1	3.41046905518	None	None	None	None	1
3.0.1	2019_Mar_04_1502	s	s	1	3	SIC	141	1_2	1	2	4	3	23_4_3	3	1	1	0	0.474400997162	355.0	184.0	358.0	186.0	1
3.0.1	2019_Mar_04_1502	s	s	1	3	SIC	142	ABS	0	0	2	3	24_2_3	NA	NA	0	1	3.1102039814	None	None	None	None	1
3.0.1	2019_Mar_04_1502	s	s	1	3	SIC	143	ABS	0	0	4	3	24_4_3	NA	NA	0	1	3.06235694885	None	None	None	None	1
3.0.1	2019_Mar_04_1502	s	s	1	3	SIC	144	ABS	0	0	3	3	24_3_3	NA	NA	0	1	2.2977399826	None	None	None	None	1
3.0.1	2019_Mar_04_1502	s	s	1	3	SIC	145	ABS	0	0	3	1	24_3_1	NA	NA	0	1	1.246062994	None	None	None	None	1
3.0.1	2019_Mar_04_1502	s	s	1	3	SIC	146	ABS	0	0	3	1	24_3_1	NA	NA	0	1	2.19193506241	None	None	None	None	1
3.0.1	2019_Mar_04_1502	s	s	1	3	SIC	147	3_1	3	1	4	2	23_4_2	-1	1	1	0	0.76384305954	510.0	269.0	511.0	270.0	1
3.0.1	2019_Mar_04_1502	s	s	1	3	SIC	148	1_1	1	1	3	1	23_3_1	2	0	1	0	0.716726064682	370.0	58.0	369.0	59.0	1
3.0.1	2019_Mar_04_1502	s	s	1	3	SIC	149	1_4	1	4	4	4	23_4_4	3	0	1	0	0.446236133575	-139.0	296.0	-135.0	298.0	1
3.0.1	2019_Mar_04_1502	s	s	1	3	SIC	150	ABS	0	0	3	2	24_3_2	NA	NA	0	1	2.99180793762	None	None	None	None	1
3.0.1	2019_Mar_04_1502	s	s	1	3	SIC	151	ABS	0	0	1	3	24_1_3	NA	NA	0	1	4.16804218292	None	None	None	None	1
3.0.1	2019_Mar_04_1502	s	s	1	3	SIC	152	3_1	3	1	1	1	23_1_1	2	0	1	0	1.09841704369	360.0	251.0	358.0	255.0	1
3.0.1	2019_Mar_04_1502	s	s	1	3	SIC	153	ABS	0	0	2	2	24_2_2	NA	NA	0	1	3.67171502113	None	None	None	None	1
3.0.1	2019_Mar_04_1502	s	s	1	3	SIC	154	ABS	0	0	2	3	24_2_3	NA	NA	1	0	4.14217209816	None	None	-171.0	273.0	0
3.0.1	2019_Mar_04_1502	s	s	1	3	SIC	155	3_1	3	1	2	1	23_2_1	1	0	1	0	0.793040037155	259.0	-236.0	266.0	-236.0	1
3.0.1	2019_Mar_04_1502	s	s	1	3	SIC	156	2_3	2	3	1	1	23_1_1	-1	2	1	0	1.08421397209	356.0	208.0	353.0	205.0	1
3.0.1	2019_Mar_04_1502	s	s	1	3	SIC	157	2_3	2	3	3	1	23_3_1	1	2	1	0	1.22750592232	-139.0	-335.0	-139.0	-339.0	1
3.0.1	2019_Mar_04_1502	s	s	1	3	SIC	158	ABS	0	0	2	4	24_2_4	NA	NA	1	0	4.50908923149	None	None	-416.0	11.0	0
3.0.1	2019_Mar_04_1502	s	s	1	3	SIC	159	ABS	0	0	3	1	24_3_1	NA	NA	0	1	2.92090296745	None	None	None	None	1
3.0.1	2019_Mar_04_1502	s	s	1	3	SIC	160	1_4	1	4	1	1	23_1_1	0	3	1	0	0.545389890671	433.0	11.0	424.0	10.0	1
3.0.1	2019_Mar_04_1502	s	s	1	3	SIC	161	2_1	2	1	3	1	23_3_1	1	0	1	0	0.881366014481	-480.0	-326.0	-476.0	-322.0	1
3.0.1	2019_Mar_04_1502	s	s	1	3	SIC	162	ABS	0	0	3	4	24_3_4	NA	NA	0	1	1.46198415756	None	None	None	None	1
3.0.1	2019_Mar_04_1502	s	s	1	3	SIC	163	1_1	1	1	4	4	23_4_4	3	3	1	0	0.488168001175	58.0	-144.0	50.0	-140.0	1
3.0.1	2019_Mar_04_1502	s	s	1	3	SIC	164	3_3	3	3	1	3	23_1_3	2	0	1	0	0.58220911026	-154.0	229.0	-154.0	232.0	1
3.0.1	2019_Mar_04_1502	s	s	1	3	SIC	165	3_2	3	2	4	4	23_4_4	-1	2	1	0	0.47504901886	-305.0	-136.0	-313.0	-134.0	1
3.0.1	2019_Mar_04_1502	s	s	1	3	SIC	166	ABS	0	0	1	4	24_1_4	NA	NA	0	1	2.14279699326	None	None	None	None	1
3.0.1	2019_Mar_04_1502	s	s	1	3	SIC	167	ABS	0	0	2	2	24_2_2	NA	NA	0	1	3.64525794983	None	None	None	None	1
3.0.1	2019_Mar_04_1502	s	s	1	3	SIC	168	1_4	1	4	4	2	23_4_2	3	2	1	0	0.481501102448	-52.0	-293.0	-45.0	-288.0	1
3.0.1	2019_Mar_04_1502	s	s	1	3	SIC	169	3_1	3	1	4	4	23_4_4	-1	3	1	0	0.496200084686	-43.0	234.0	-37.0	235.0	1
3.0.1	2019_Mar_04_1502	s	s	1	3	SIC	170	ABS	0	0	4	4	24_4_4	NA	NA	0	1	1.16868686676	None	None	None	None	1
3.0.1	2019_Mar_04_1502	s	s	1	3	SIC	171	ABS	0	0	2	3	24_2_3	NA	NA	0	1	2.99184203148	None	None	None	None	1
3.0.1	2019_Mar_04_1502	s	s	1	3	SIC	172	2_2	2	2	3	4	23_3_4	1	2	1	0	0.505100011826	-236.0	-41.0	-226.0	-41.0	1
3.0.1	2019_Mar_04_1502	s	s	1	3	SIC	173	4_2	4	2	4	1	23_4_1	0	-1	1	0	0.987197875977	-115.0	276.0	-109.0	280.0	1
3.0.1	2019_Mar_04_1502	s	s	1	3	SIC	174	4_2	4	2	2	1	23_2_1	2	-1	1	0	0.516730070114	-378.0	-333.0	-374.0	-328.0	1
3.0.1	2019_Mar_04_1502	s	s	1	3	SIC	175	1_4	1	4	3	4	23_3_4	2	0	1	0	0.981410980225	-515.0	-26.0	-508.0	-24.0	1
3.0.1	2019_Mar_04_1502	s	s	1	3	SIC	176	ABS	0	0	3	2	24_3_2	NA	NA	0	1	1.98006796837	None	None	None	None	1
3.0.1	2019_Mar_04_1502	s	s	1	3	SIC	177	ABS	0	0	2	4	24_2_4	NA	NA	0	1	2.55147600174	None	None	None	None	1
3.0.1	2019_Mar_04_1502	s	s	1	3	SIC	178	ABS	0	0	3	3	24_3_3	NA	NA	0	1	2.08115887642	None	None	None	None	1
3.0.1	2019_Mar_04_1502	s	s	1	3	SIC	179	3_1	3	1	2	2	23_2_2	1	1	1	0	0.568168878555	-449.0	51.0	-443.0	52.0	1
3.0.1	2019_Mar_04_1502	s	s	1	3	SIC	180	ABS	0	0	4	3	24_4_3	NA	NA	0	1	1.5753121376	None	None	None	None	1
3.0.1	2019_Mar_04_1502	s	s	1	3	SIC	181	ABS	0	0	4	3	24_4_3	NA	NA	0	1	2.85775399208	None	None	None	None	1
3.0.1	2019_Mar_04_1502	s	s	1	3	SIC	182	ABS	0	0	1	4	24_1_4	NA	NA	0	1	1.95163798332	None	None	None	None	1
3.0.1	2019_Mar_04_1502	s	s	1	3	SIC	183	1_4	1	4	2	4	23_2_4	1	0	1	0	1.86935019493	-149.0	62.0	-515.0	60.0	0
3.0.1	2019_Mar_04_1502	s	s	1	3	SIC	184	3_2	3	2	1	2	23_1_2	2	0	1	0	0.697088003159	-1.0	-82.0	3.0	-76.0	1
3.0.1	2019_Mar_04_1502	s	s	1	3	SIC	185	3_3	3	3	2	1	23_2_1	1	2	1	0	0.646159172058	270.0	50.0	268.0	52.0	1
3.0.1	2019_Mar_04_1502	s	s	1	3	SIC	186	1_1	1	1	2	3	23_2_3	1	2	1	0	0.757151126862	-195.0	48.0	-197.0	51.0	1
3.0.1	2019_Mar_04_1502	s	s	1	3	SIC	187	ABS	0	0	3	1	24_3_1	NA	NA	0	1	1.14441919327	None	None	None	None	1
3.0.1	2019_Mar_04_1502	s	s	1	3	SIC	188	ABS	0	0	3	3	24_3_3	NA	NA	0	1	1.73724007607	None	None	None	None	1
3.0.1	2019_Mar_04_1502	s	s	1	3	SIC	189	ABS	0	0	3	3	24_3_3	NA	NA	0	1	1.89915800095	None	None	None	None	1
3.0.1	2019_Mar_04_1502	s	s	1	3	SIC	190	ABS	0	0	2	1	24_2_1	NA	NA	0	1	3.70409393311	None	None	None	None	1
3.0.1	2019_Mar_04_1502	s	s	1	3	SIC	191	2_4	2	4	2	2	23_2_2	0	2	1	0	1.37922286987	-66.0	199.0	-67.0	200.0	1
3.0.1	2019_Mar_04_1502	s	s	1	3	SIC	192	3_3	3	3	2	3	23_2_3	1	0	1	0	0.615710020065	-146.0	-74.0	-139.0	-67.0	1
3.0.1	2019_Mar_04_1502	s	s	1	3	SIC	193	4_4	4	4	3	2	23_3_2	1	2	1	0	0.566825866699	409.0	350.0	412.0	349.0	1
3.0.1	2019_Mar_04_1502	s	s	1	3	SIC	194	ABS	0	0	1	3	24_1_3	NA	NA	0	1	2.05744385719	None	None	None	None	1
3.0.1	2019_Mar_04_1502	s	s	1	3	SIC	195	ABS	0	0	4	4	24_4_4	NA	NA	0	1	1.41738605499	None	None	None	None	1
3.0.1	2019_Mar_04_1502	s	s	1	3	SIC	196	ABS	0	0	4	2	24_4_2	NA	NA	0	1	2.94397592545	None	None	None	None	1
3.0.1	2019_Mar_04_1502	s	s	1	3	SIC	197	ABS	0	0	3	1	24_3_1	NA	NA	0	1	1.61348390579	None	None	None	None	1
3.0.1	2019_Mar_04_1502	s	s	1	3	SIC	198	1_4	1	4	4	3	23_4_3	3	1	1	0	0.528468132019	504.0	-188.0	499.0	-189.0	1
3.0.1	2019_Mar_04_1502	s	s	1	3	SIC	199	ABS	0	0	2	3	24_2_3	NA	NA	0	1	3.63348293304	None	None	None	None	1
3.0.1	2019_Mar_04_1502	s	s	1	3	SIC	200	3_4	3	4	3	3	23_3_3	0	1	1	0	1.18736386299	217.0	248.0	214.0	248.0	1
3.0.1	2019_Mar_04_1502	s	s	1	3	SIC	201	1_4	1	4	3	2	23_3_2	2	2	1	0	0.504998922348	149.0	204.0	149.0	210.0	1
3.0.1	2019_Mar_04_1502	s	s	1	3	SIC	202	3_2	3	2	4	1	23_4_1	-1	-1	1	0	0.446240186691	-381.0	-71.0	-381.0	-68.0	1
3.0.1	2019_Mar_04_1502	s	s	1	3	SIC	203	1_1	1	1	4	2	23_4_2	3	1	1	0	0.4282579422	89.0	118.0	95.0	122.0	1
3.0.1	2019_Mar_04_1502	s	s	1	3	SIC	204	ABS	0	0	4	1	24_4_1	NA	NA	0	1	0.731382846832	None	None	None	None	1
3.0.1	2019_Mar_04_1502	s	s	1	3	SIC	205	ABS	0	0	2	2	24_2_2	NA	NA	0	1	3.61286306381	None	None	None	None	1
3.0.1	2019_Mar_04_1502	s	s	1	3	SIC	206	2_1	2	1	1	4	23_1_4	-1	3	1	0	0.768840074539	-152.0	-258.0	-144.0	-251.0	1
3.0.1	2019_Mar_04_1502	s	s	1	3	SIC	207	3_4	3	4	4	1	23_4_1	-1	3	1	0	0.516731977463	518.0	262.0	510.0	258.0	1
3.0.1	2019_Mar_04_1502	s	s	1	3	SIC	208	3_3	3	3	2	4	23_2_4	1	-1	1	0	0.62305688858	179.0	160.0	180.0	164.0	1
3.0.1	2019_Mar_04_1502	s	s	1	3	SIC	209	ABS	0	0	4	2	24_4_2	NA	NA	0	1	2.49769020081	None	None	None	None	1
3.0.1	2019_Mar_04_1502	s	s	1	3	SIC	210	2_4	2	4	1	3	23_1_3	-1	1	1	0	1.69292497635	279.0	-253.0	285.0	-253.0	1
3.0.1	2019_Mar_04_1502	s	s	1	3	SIC	211	ABS	0	0	3	1	24_3_1	NA	NA	0	1	1.97376585007	None	None	None	None	1
3.0.1	2019_Mar_04_1502	s	s	1	3	SIC	212	3_1	3	1	2	3	23_2_3	1	2	1	0	0.708970069885	-77.0	20.0	-82.0	20.0	1
3.0.1	2019_Mar_04_1502	s	s	1	3	SIC	213	ABS	0	0	1	1	24_1_1	NA	NA	0	1	1.41050982475	None	None	None	None	1
3.0.1	2019_Mar_04_1502	s	s	1	3	SIC	214	3_1	3	1	2	4	23_2_4	1	3	1	0	0.473062038422	-79.0	-61.0	-79.0	-51.0	1
3.0.1	2019_Mar_04_1502	s	s	1	3	SIC	215	4_3	4	3	1	1	23_1_1	3	2	1	0	0.49622297287	361.0	338.0	362.0	340.0	1
3.0.1	2019_Mar_04_1502	s	s	1	3	SIC	216	1_2	1	2	3	1	23_3_1	2	-1	1	0	0.555004119873	349.0	125.0	345.0	127.0	1
3.0.1	2019_Mar_04_1502	s	s	1	3	SIC	217	3_4	3	4	3	1	23_3_1	0	3	1	0	0.599153995514	-173.0	47.0	-182.0	52.0	1
3.0.1	2019_Mar_04_1502	s	s	1	3	SIC	218	4_3	4	3	3	1	23_3_1	1	2	1	0	0.481584072113	-454.0	128.0	-462.0	129.0	1
3.0.1	2019_Mar_04_1502	s	s	1	3	SIC	219	4_4	4	4	2	1	23_2_1	2	3	1	0	0.458047151566	-294.0	-345.0	-300.0	-349.0	1
3.0.1	2019_Mar_04_1502	s	s	1	3	SIC	220	2_3	2	3	3	4	23_3_4	1	-1	1	0	0.59921002388	196.0	342.0	199.0	346.0	1
3.0.1	2019_Mar_04_1502	s	s	1	3	SIC	221	ABS	0	0	1	2	24_1_2	NA	NA	0	1	3.35649204254	None	None	None	None	1
3.0.1	2019_Mar_04_1502	s	s	1	3	SIC	222	ABS	0	0	4	4	24_4_4	NA	NA	0	1	1.02753806114	None	None	None	None	1
3.0.1	2019_Mar_04_1502	s	s	1	3	SIC	223	1_1	1	1	2	4	23_2_4	1	3	1	0	0.498042821884	-91.0	310.0	-86.0	304.0	1
3.0.1	2019_Mar_04_1502	s	s	1	3	SIC	224	2_3	2	3	3	3	23_3_3	1	0	1	0	0.922050952911	140.0	-184.0	138.0	-180.0	1
3.0.1	2019_Mar_04_1502	s	s	1	3	SIC	225	4_4	4	4	3	3	23_3_3	1	1	1	0	0.4749751091	368.0	361.0	373.0	365.0	1
3.0.1	2019_Mar_04_1502	s	s	1	3	SIC	226	ABS	0	0	1	3	24_1_3	NA	NA	0	1	3.95106196404	None	None	None	None	1
3.0.1	2019_Mar_04_1502	s	s	1	3	SIC	227	ABS	0	0	3	1	24_3_1	NA	NA	0	1	1.57027506828	None	None	None	None	1
3.0.1	2019_Mar_04_1502	s	s	1	3	SIC	228	4_2	4	2	3	1	23_3_1	1	-1	1	0	0.496160984039	312.0	28.0	310.0	27.0	1
3.0.1	2019_Mar_04_1502	s	s	1	3	SIC	229	ABS	0	0	2	4	24_2_4	NA	NA	0	1	2.48092699051	None	None	None	None	1
3.0.1	2019_Mar_04_1502	s	s	1	3	SIC	230	3_2	3	2	1	3	23_1_3	2	1	1	0	0.568614006042	401.0	373.0	403.0	371.0	1
3.0.1	2019_Mar_04_1502	s	s	1	3	SIC	231	ABS	0	0	1	2	24_1_2	NA	NA	0	1	2.51120495796	None	None	None	None	1
3.0.1	2019_Mar_04_1502	s	s	1	3	SIC	232	4_4	4	4	2	4	23_2_4	2	0	1	0	0.417714834213	-115.0	-9.0	-105.0	-10.0	1
3.0.1	2019_Mar_04_1502	s	s	1	3	SIC	233	ABS	0	0	1	2	24_1_2	NA	NA	0	1	3.17484092712	None	None	None	None	1
3.0.1	2019_Mar_04_1502	s	s	1	3	SIC	234	3_3	3	3	3	4	23_3_4	0	-1	1	0	0.587356090546	-174.0	64.0	-169.0	57.0	1
3.0.1	2019_Mar_04_1502	s	s	1	3	SIC	235	4_1	4	1	1	1	23_1_1	3	0	1	0	0.427956104279	-106.0	178.0	-107.0	176.0	1
3.0.1	2019_Mar_04_1502	s	s	1	3	SIC	236	ABS	0	0	4	4	24_4_4	NA	NA	0	1	0.869553089142	None	None	None	None	1
3.0.1	2019_Mar_04_1502	s	s	1	3	SIC	237	ABS	0	0	4	2	24_4_2	NA	NA	0	1	3.43745398521	None	None	None	None	1
3.0.1	2019_Mar_04_1502	s	s	1	3	SIC	238	ABS	0	0	3	3	24_3_3	NA	NA	0	1	1.50127696991	None	None	None	None	1
3.0.1	2019_Mar_04_1502	s	s	1	3	SIC	239	4_2	4	2	1	2	23_1_2	3	0	1	0	0.422791957855	-336.0	221.0	-334.0	221.0	1
3.0.1	2019_Mar_04_1502	s	s	1	3	SIC	240	4_3	4	3	2	1	23_2_1	2	2	1	0	0.733498811722	417.0	-207.0	418.0	-215.0	1
3.0.1	2019_Mar_04_1502	s	s	1	3	SIC	241	4_1	4	1	4	2	23_4_2	0	1	1	0	2.10450792313	99.0	216.0	100.0	217.0	1
3.0.1	2019_Mar_04_1502	s	s	1	3	SIC	242	ABS	0	0	1	4	24_1_4	NA	NA	0	1	3.48064017296	None	None	None	None	1
3.0.1	2019_Mar_04_1502	s	s	1	3	SIC	243	ABS	0	0	3	4	24_3_4	NA	NA	0	1	2.14480805397	None	None	None	None	1
3.0.1	2019_Mar_04_1502	s	s	1	3	SIC	244	1_4	1	4	2	2	23_2_2	1	2	1	0	1.94405817986	260.0	22.0	259.0	22.0	1
3.0.1	2019_Mar_04_1502	s	s	1	3	SIC	245	3_1	3	1	4	1	23_4_1	-1	0	1	0	1.21771097183	-291.0	304.0	-290.0	295.0	1
3.0.1	2019_Mar_04_1502	s	s	1	3	SIC	246	2_1	2	1	1	1	23_1_1	-1	0	0	1	4.55587506294	524.0	-60.0	None	None	0
3.0.1	2019_Mar_04_1502	s	s	1	3	SIC	247	4_2	4	2	1	1	23_1_1	3	-1	1	0	0.4466547966	-373.0	150.0	-378.0	141.0	1
3.0.1	2019_Mar_04_1502	s	s	1	3	SIC	248	ABS	0	0	3	2	24_3_2	NA	NA	0	1	2.52797079086	None	None	None	None	1
3.0.1	2019_Mar_04_1502	s	s	1	3	SIC	249	ABS	0	0	1	1	24_1_1	NA	NA	0	1	2.9513759613	None	None	None	None	1
3.0.1	2019_Mar_04_1502	s	s	1	3	SIC	250	2_2	2	2	2	1	23_2_1	0	-1	1	0	1.53240609169	210.0	-29.0	214.0	-29.0	1
3.0.1	2019_Mar_04_1502	s	s	1	3	SIC	251	4_3	4	3	3	4	23_3_4	1	-1	1	0	0.522046089172	116.0	-181.0	116.0	-180.0	1
3.0.1	2019_Mar_04_1502	s	s	1	3	SIC	252	1_2	1	2	2	3	23_2_3	1	1	1	0	3.17223215103	-156.0	-153.0	-150.0	-150.0	1
3.0.1	2019_Mar_04_1502	s	s	1	3	SIC	253	ABS	0	0	4	4	24_4_4	NA	NA	0	1	1.91639494896	None	None	None	None	1
3.0.1	2019_Mar_04_1502	s	s	1	3	SIC	254	3_4	3	4	1	3	23_1_3	2	1	1	0	0.587374925613	-357.0	284.0	-364.0	284.0	1
3.0.1	2019_Mar_04_1502	s	s	1	3	SIC	255	ABS	0	0	3	4	24_3_4	NA	NA	0	1	1.35182404518	None	None	None	None	1
3.0.1	2019_Mar_04_1502	s	s	1	3	SIC	256	ABS	0	0	1	3	24_1_3	NA	NA	0	1	3.85443902016	None	None	None	None	1
3.0.1	2019_Mar_04_1502	s	s	1	3	SIC	257	3_2	3	2	3	1	23_3_1	0	-1	0	1	1.86935091019	415.0	93.0	None	None	0
3.0.1	2019_Mar_04_1502	s	s	1	3	SIC	258	ABS	0	0	3	3	24_3_3	NA	NA	0	1	2.78668308258	None	None	None	None	1
3.0.1	2019_Mar_04_1502	s	s	1	3	SIC	259	ABS	0	0	3	4	24_3_4	NA	NA	0	1	1.87400603294	None	None	None	None	1
3.0.1	2019_Mar_04_1502	s	s	1	3	SIC	260	ABS	0	0	1	1	24_1_1	NA	NA	0	1	3.22185993195	None	None	None	None	1
3.0.1	2019_Mar_04_1502	s	s	1	3	SIC	261	4_1	4	1	2	2	23_2_2	2	1	1	0	0.563815832138	50.0	255.0	56.0	253.0	1
3.0.1	2019_Mar_04_1502	s	s	1	3	SIC	262	ABS	0	0	3	2	24_3_2	NA	NA	0	1	5.23812317848	None	None	None	None	1
3.0.1	2019_Mar_04_1502	s	s	1	3	SIC	263	ABS	0	0	2	2	24_2_2	NA	NA	0	1	5.98574399948	None	None	None	None	1
3.0.1	2019_Mar_04_1502	s	s	1	3	SIC	264	4_4	4	4	1	4	23_1_4	3	0	1	0	0.496227025986	333.0	-238.0	327.0	-244.0	1
3.0.1	2019_Mar_04_1502	s	s	1	3	SIC	265	ABS	0	0	4	4	24_4_4	NA	NA	0	1	1.50204205513	None	None	None	None	1
3.0.1	2019_Mar_04_1502	s	s	1	3	SIC	266	ABS	0	0	1	2	24_1_2	NA	NA	0	1	3.32773017883	None	None	None	None	1
3.0.1	2019_Mar_04_1502	s	s	1	3	SIC	267	ABS	0	0	3	4	24_3_4	NA	NA	0	1	1.55721688271	None	None	None	None	1
3.0.1	2019_Mar_04_1502	s	s	1	3	SIC	268	ABS	0	0	1	4	24_1_4	NA	NA	0	1	2.33285093307	None	None	None	None	1
3.0.1	2019_Mar_04_1502	s	s	1	3	SIC	269	ABS	0	0	3	4	24_3_4	NA	NA	0	1	1.86938500404	None	None	None	None	1
3.0.1	2019_Mar_04_1502	s	s	1	3	SIC	270	ABS	0	0	3	3	24_3_3	NA	NA	0	1	2.99837517738	None	None	None	None	1
3.0.1	2019_Mar_04_1502	s	s	1	3	SIC	271	2_2	2	2	1	3	23_1_3	-1	1	1	0	1.59891605377	445.0	218.0	446.0	220.0	1
3.0.1	2019_Mar_04_1502	s	s	1	3	SIC	272	4_2	4	2	3	3	23_3_3	1	1	1	0	0.516810894012	-399.0	113.0	-404.0	114.0	1
3.0.1	2019_Mar_04_1502	s	s	1	3	SIC	273	ABS	0	0	1	4	24_1_4	NA	NA	0	1	2.35181689262	None	None	None	None	1
3.0.1	2019_Mar_04_1502	s	s	1	3	SIC	274	ABS	0	0	4	3	24_4_3	NA	NA	0	1	1.44281291962	None	None	None	None	1
3.0.1	2019_Mar_04_1502	s	s	1	3	SIC	275	2_2	2	2	1	4	23_1_4	-1	2	1	0	1.98693799973	-489.0	-393.0	-490.0	-395.0	1
3.0.1	2019_Mar_04_1502	s	s	1	3	SIC	276	ABS	0	0	3	3	24_3_3	NA	NA	0	1	3.69237303734	None	None	None	None	1
3.0.1	2019_Mar_04_1502	s	s	1	3	SIC	277	ABS	0	0	1	1	24_1_1	NA	NA	0	1	2.38325285912	None	None	None	None	1
3.0.1	2019_Mar_04_1502	s	s	1	3	SIC	278	3_1	3	1	1	3	23_1_3	2	2	1	0	0.67741394043	234.0	-367.0	230.0	-364.0	1
3.0.1	2019_Mar_04_1502	s	s	1	3	SIC	279	ABS	0	0	3	2	24_3_2	NA	NA	0	1	3.67740416527	None	None	None	None	1
3.0.1	2019_Mar_04_1502	s	s	1	3	SIC	280	4_3	4	3	4	4	23_4_4	0	-1	1	0	2.17522978783	-460.0	365.0	-469.0	369.0	1
3.0.1	2019_Mar_04_1502	s	s	1	3	SIC	281	3_3	3	3	4	2	23_4_2	-1	1	1	0	0.534218072891	-173.0	-310.0	-169.0	-300.0	1
3.0.1	2019_Mar_04_1502	s	s	1	3	SIC	282	ABS	0	0	4	4	24_4_4	NA	NA	0	1	1.88110899925	None	None	None	None	1
3.0.1	2019_Mar_04_1502	s	s	1	3	SIC	283	1_4	1	4	3	3	23_3_3	2	1	1	0	0.810878038406	-351.0	-345.0	-349.0	-352.0	1
3.0.1	2019_Mar_04_1502	s	s	1	3	SIC	284	3_2	3	2	3	3	23_3_3	0	1	1	0	2.75141406059	381.0	-386.0	386.0	-382.0	1
3.0.1	2019_Mar_04_1502	s	s	1	3	SIC	285	4_1	4	1	3	4	23_3_4	1	3	1	0	0.613839149475	406.0	-281.0	412.0	-277.0	1
3.0.1	2019_Mar_04_1502	s	s	1	3	SIC	286	4_1	4	1	3	1	23_3_1	1	0	1	0	0.913269996643	471.0	214.0	467.0	212.0	1
3.0.1	2019_Mar_04_1502	s	s	1	3	SIC	287	3_3	3	3	3	2	23_3_2	0	1	1	0	3.375467062	320.0	116.0	325.0	113.0	1
3.0.1	2019_Mar_04_1502	s	s	1	3	SIC	288	1_3	1	3	2	3	23_2_3	1	0	0	1	3.90697789192	-268.0	388.0	None	None	0
3.0.1	2019_Mar_04_1502	s	s	1	3	SIC	289	4_2	4	2	3	2	23_3_2	1	0	1	0	0.486480951309	-412.0	-106.0	-416.0	-110.0	1
3.0.1	2019_Mar_04_1502	s	s	1	3	SIC	290	ABS	0	0	2	2	24_2_2	NA	NA	0	1	6.10628986359	None	None	None	None	1
3.0.1	2019_Mar_04_1502	s	s	1	3	SIC	291	ABS	0	0	3	2	24_3_2	NA	NA	0	1	3.14248108864	None	None	None	None	1
3.0.1	2019_Mar_04_1502	s	s	1	3	SIC	292	ABS	0	0	3	2	24_3_2	NA	NA	0	1	3.76290488243	None	None	None	None	1
3.0.1	2019_Mar_04_1502	s	s	1	3	SIC	293	ABS	0	0	4	1	24_4_1	NA	NA	0	1	2.46172809601	None	None	None	None	1
3.0.1	2019_Mar_04_1502	s	s	1	3	SIC	294	4_2	4	2	2	3	23_2_3	2	1	1	0	0.569962024689	232.0	-129.0	232.0	-122.0	1
3.0.1	2019_Mar_04_1502	s	s	1	3	SIC	295	2_3	2	3	1	4	23_1_4	-1	-1	1	0	1.43750095367	-28.0	260.0	-23.0	261.0	1
3.0.1	2019_Mar_04_1502	s	s	1	3	SIC	296	ABS	0	0	4	1	24_4_1	NA	NA	0	1	1.85632109642	None	None	None	None	1
3.0.1	2019_Mar_04_1502	s	s	1	3	SIC	297	3_2	3	2	4	2	23_4_2	-1	0	1	0	0.505039930344	429.0	178.0	423.0	174.0	1
3.0.1	2019_Mar_04_1502	s	s	1	3	SIC	298	ABS	0	0	4	1	24_4_1	NA	NA	0	1	1.4577331543	None	None	None	None	1
3.0.1	2019_Mar_04_1502	s	s	1	3	SIC	299	ABS	0	0	3	1	24_3_1	NA	NA	0	1	2.80300784111	None	None	None	None	1
3.0.1	2019_Mar_04_1502	s	s	1	3	SIC	300	ABS	0	0	1	2	24_1_2	NA	NA	0	1	4.62663912773	None	None	None	None	1
3.0.1	2019_Mar_04_1502	s	s	1	3	SIC	301	ABS	0	0	2	1	24_2_1	NA	NA	0	1	4.83606386185	None	None	None	None	1
3.0.1	2019_Mar_04_1502	s	s	1	3	SIC	302	ABS	0	0	1	1	24_1_1	NA	NA	0	1	3.44198083878	None	None	None	None	1
3.0.1	2019_Mar_04_1502	s	s	1	3	SIC	303	1_2	1	2	3	3	23_3_3	2	1	1	0	0.607916116714	-386.0	301.0	-380.0	303.0	1
3.0.1	2019_Mar_04_1502	s	s	1	3	SIC	304	ABS	0	0	4	4	24_4_4	NA	NA	0	1	1.25117993355	None	None	None	None	1
3.0.1	2019_Mar_04_1502	s	s	1	3	SIC	305	4_3	4	3	4	2	23_4_2	0	1	0	1	1.89045619965	365.0	-32.0	None	None	0
3.0.1	2019_Mar_04_1502	s	s	1	3	SIC	306	ABS	0	0	2	4	24_2_4	NA	NA	0	1	1.92267298698	None	None	None	None	1
3.0.1	2019_Mar_04_1502	s	s	1	3	SIC	307	ABS	0	0	3	1	24_3_1	NA	NA	0	1	1.98699402809	None	None	None	None	1
3.0.1	2019_Mar_04_1502	s	s	1	3	SIC	308	ABS	0	0	3	2	24_3_2	NA	NA	0	1	3.67383408546	None	None	None	None	1
3.0.1	2019_Mar_04_1502	s	s	1	3	SIC	309	ABS	0	0	2	2	24_2_2	NA	NA	0	1	5.24486017227	None	None	None	None	1
3.0.1	2019_Mar_04_1502	s	s	1	3	SIC	310	ABS	0	0	2	2	24_2_2	NA	NA	0	1	5.12062120438	None	None	None	None	1
3.0.1	2019_Mar_04_1502	s	s	1	3	SIC	311	2_2	2	2	3	1	23_3_1	1	-1	1	0	1.33994698524	-272.0	306.0	-271.0	301.0	1
3.0.1	2019_Mar_04_1502	s	s	1	3	SIC	312	2_2	2	2	1	2	23_1_2	-1	0	1	0	2.70473504066	-454.0	-362.0	-447.0	-365.0	1
3.0.1	2019_Mar_04_1502	s	s	1	3	SIC	313	4_1	4	1	2	3	23_2_3	2	2	1	0	0.499438047409	-270.0	-126.0	-261.0	-125.0	1
3.0.1	2019_Mar_04_1502	s	s	1	3	SIC	314	3_4	3	4	1	2	23_1_2	2	2	1	0	0.540395975113	-310.0	249.0	-315.0	250.0	1
3.0.1	2019_Mar_04_1502	s	s	1	3	SIC	315	ABS	0	0	2	3	24_2_3	NA	NA	0	1	5.63292598724	None	None	None	None	1
3.0.1	2019_Mar_04_1502	s	s	1	3	SIC	316	1_3	1	3	1	4	23_1_4	0	-1	1	0	0.958387851715	520.0	104.0	525.0	104.0	1
3.0.1	2019_Mar_04_1502	s	s	1	3	SIC	317	4_2	4	2	4	4	23_4_4	0	2	1	0	0.69796204567	419.0	323.0	426.0	318.0	1
3.0.1	2019_Mar_04_1502	s	s	1	3	SIC	318	ABS	0	0	2	1	24_2_1	NA	NA	0	1	3.6688349247	None	None	None	None	1
3.0.1	2019_Mar_04_1502	s	s	1	3	SIC	319	4_3	4	3	1	4	23_1_4	3	-1	1	0	0.437341928482	151.0	-94.0	141.0	-94.0	1
3.0.1	2019_Mar_04_1502	s	s	1	3	SIC	320	2_4	2	4	4	3	23_4_3	2	1	1	0	0.481648921967	70.0	-389.0	72.0	-385.0	1
3.0.1	2019_Mar_04_1502	s	s	1	3	SIC	321	4_4	4	4	2	3	23_2_3	2	1	1	0	0.646178007126	-306.0	327.0	-310.0	325.0	1
3.0.1	2019_Mar_04_1502	s	s	1	3	SIC	322	ABS	0	0	4	4	24_4_4	NA	NA	0	1	1.29304099083	None	None	None	None	1
3.0.1	2019_Mar_04_1502	s	s	1	3	SIC	323	4_1	4	1	1	4	23_1_4	3	3	1	0	0.416206121445	163.0	314.0	173.0	319.0	1
3.0.1	2019_Mar_04_1502	s	s	1	3	SIC	324	ABS	0	0	2	2	24_2_2	NA	NA	0	1	4.57915902138	None	None	None	None	1
3.0.1	2019_Mar_04_1502	s	s	1	3	SIC	325	4_4	4	4	4	3	23_4_3	0	1	1	0	1.79017996788	180.0	209.0	175.0	202.0	1
3.0.1	2019_Mar_04_1502	s	s	1	3	SIC	326	ABS	0	0	2	1	24_2_1	NA	NA	0	1	3.33461999893	None	None	None	None	1
3.0.1	2019_Mar_04_1502	s	s	1	3	SIC	327	2_3	2	3	4	2	23_4_2	2	1	1	0	0.411076068878	-261.0	346.0	-253.0	343.0	1
3.0.1	2019_Mar_04_1502	s	s	1	3	SIC	328	3_1	3	1	1	2	23_1_2	2	1	1	0	1.11660194397	135.0	-349.0	140.0	-348.0	1
3.0.1	2019_Mar_04_1502	s	s	1	3	SIC	329	2_1	2	1	3	2	23_3_2	1	1	1	0	0.805377960205	-141.0	339.0	-143.0	333.0	1
3.0.1	2019_Mar_04_1502	s	s	1	3	SIC	330	3_1	3	1	3	3	23_3_3	0	2	1	0	1.54004192352	427.0	-208.0	436.0	-206.0	1
3.0.1	2019_Mar_04_1502	s	s	1	3	SIC	331	ABS	0	0	2	4	24_2_4	NA	NA	0	1	2.3842189312	None	None	None	None	1
3.0.1	2019_Mar_04_1502	s	s	1	3	SIC	332	1_3	1	3	4	3	23_4_3	3	0	1	0	0.404397010803	-160.0	365.0	-156.0	364.0	1
3.0.1	2019_Mar_04_1502	s	s	1	3	SIC	333	4_3	4	3	3	2	23_3_2	1	1	1	0	0.481569051743	413.0	219.0	411.0	219.0	1
3.0.1	2019_Mar_04_1502	s	s	1	3	SIC	334	ABS	0	0	1	2	24_1_2	NA	NA	0	1	5.08403992653	None	None	None	None	1
3.0.1	2019_Mar_04_1502	s	s	1	3	SIC	335	2_2	2	2	3	2	23_3_2	1	0	1	0	0.810847997665	-270.0	394.0	-268.0	395.0	1
3.0.1	2019_Mar_04_1502	s	s	1	3	SIC	336	3_3	3	3	1	4	23_1_4	2	-1	1	0	1.10764622688	136.0	-369.0	143.0	-368.0	1
3.0.1	2019_Mar_04_1502	s	s	1	3	SIC	337	3_3	3	3	2	2	23_2_2	1	1	1	0	1.18733882904	367.0	-256.0	369.0	-254.0	1
3.0.1	2019_Mar_04_1502	s	s	1	3	SIC	338	1_2	1	2	1	1	23_1_1	0	-1	1	0	4.19011998177	230.0	-285.0	231.0	-282.0	1
3.0.1	2019_Mar_04_1502	s	s	1	3	SIC	339	ABS	0	0	1	3	24_1_3	NA	NA	0	1	4.67402100563	None	None	None	None	1
3.0.1	2019_Mar_04_1502	s	s	1	3	SIC	340	2_1	2	1	3	4	23_3_4	1	3	1	0	0.469884872437	-129.0	345.0	-126.0	345.0	1
3.0.1	2019_Mar_04_1502	s	s	1	3	SIC	341	1_4	1	4	2	3	23_2_3	1	1	1	0	0.957044839859	167.0	14.0	162.0	10.0	1
3.0.1	2019_Mar_04_1502	s	s	1	3	SIC	342	ABS	0	0	4	3	24_4_3	NA	NA	0	1	3.9157409668	None	None	None	None	1
3.0.1	2019_Mar_04_1502	s	s	1	3	SIC	343	ABS	0	0	1	4	24_1_4	NA	NA	0	1	2.71620392799	None	None	None	None	1
3.0.1	2019_Mar_04_1502	s	s	1	3	SIC	344	ABS	0	0	1	4	24_1_4	NA	NA	0	1	1.74001598358	None	None	None	None	1
3.0.1	2019_Mar_04_1502	s	s	1	3	SIC	345	ABS	0	0	1	2	24_1_2	NA	NA	0	1	4.77431511879	None	None	None	None	1
3.0.1	2019_Mar_04_1502	s	s	1	3	SIC	346	2_3	2	3	4	4	23_4_4	2	-1	1	0	0.519742012024	-484.0	-389.0	-480.0	-388.0	1
3.0.1	2019_Mar_04_1502	s	s	1	3	SIC	347	ABS	0	0	3	2	24_3_2	NA	NA	0	1	3.33950710297	None	None	None	None	1
3.0.1	2019_Mar_04_1502	s	s	1	3	SIC	348	ABS	0	0	4	2	24_4_2	NA	NA	0	1	4.49732589722	None	None	None	None	1
3.0.1	2019_Mar_04_1502	s	s	1	3	SIC	349	3_3	3	3	1	2	23_1_2	2	1	1	0	0.481583833694	-187.0	325.0	-184.0	326.0	1
3.0.1	2019_Mar_04_1502	s	s	1	3	SIC	350	ABS	0	0	2	2	24_2_2	NA	NA	0	1	4.75083303452	None	None	None	None	1
3.0.1	2019_Mar_04_1502	s	s	1	3	SIC	351	ABS	0	0	2	4	24_2_4	NA	NA	0	1	1.9986948967	None	None	None	None	1
3.0.1	2019_Mar_04_1502	s	s	1	3	SIC	352	ABS	0	0	2	1	24_2_1	NA	NA	0	1	3.15578579903	None	None	None	None	1
3.0.1	2019_Mar_04_1502	s	s	1	3	SIC	353	ABS	0	0	2	2	24_2_2	NA	NA	0	1	3.80341005325	None	None	None	None	1
3.0.1	2019_Mar_04_1502	s	s	1	3	SIC	354	4_2	4	2	2	2	23_2_2	2	0	1	0	0.458023071289	-474.0	179.0	-472.0	178.0	1
3.0.1	2019_Mar_04_1502	s	s	1	3	SIC	355	ABS	0	0	2	3	24_2_3	NA	NA	0	1	3.95107793808	None	None	None	None	1
3.0.1	2019_Mar_04_1502	s	s	1	3	SIC	356	ABS	0	0	3	1	24_3_1	NA	NA	0	1	1.69788098335	None	None	None	None	1
3.0.1	2019_Mar_04_1502	s	s	1	3	SIC	357	ABS	0	0	4	1	24_4_1	NA	NA	0	1	1.98701500893	None	None	None	None	1
3.0.1	2019_Mar_04_1502	s	s	1	3	SIC	358	4_3	4	3	1	2	23_1_2	3	1	1	0	0.56067109108	-21.0	-347.0	-9.0	-340.0	1
3.0.1	2019_Mar_04_1502	s	s	1	3	SIC	359	4_3	4	3	4	1	23_4_1	0	2	1	0	0.587357997894	-210.0	77.0	-199.0	77.0	1
3.0.1	2019_Mar_04_1502	s	s	1	3	SIC	360	ABS	0	0	4	3	24_4_3	NA	NA	0	1	4.02452301979	None	None	None	None	1
3.0.1	2019_Mar_04_1502	s	s	1	3	SIC	361	4_1	4	1	1	3	23_1_3	3	2	1	0	0.469782114029	475.0	-360.0	485.0	-360.0	1
3.0.1	2019_Mar_04_1502	s	s	1	3	SIC	362	ABS	0	0	3	4	24_3_4	NA	NA	0	1	1.7164850235	None	None	None	None	1
3.0.1	2019_Mar_04_1502	s	s	1	3	SIC	363	ABS	0	0	4	1	24_4_1	NA	NA	0	1	1.3282430172	None	None	None	None	1
3.0.1	2019_Mar_04_1502	s	s	1	3	SIC	364	4_3	4	3	2	4	23_2_4	2	-1	1	0	0.474709033966	3.0	-380.0	6.0	-378.0	1
3.0.1	2019_Mar_04_1502	s	s	1	3	SIC	365	ABS	0	0	2	3	24_2_3	NA	NA	0	1	3.67171001434	None	None	None	None	1
3.0.1	2019_Mar_04_1502	s	s	1	3	SIC	366	4_4	4	4	4	2	23_4_2	0	2	1	0	0.78776717186	-31.0	247.0	-27.0	247.0	1
3.0.1	2019_Mar_04_1502	s	s	1	3	SIC	367	1_1	1	1	1	4	23_1_4	0	3	1	0	0.679172039032	-356.0	360.0	-352.0	366.0	1
3.0.1	2019_Mar_04_1502	s	s	1	3	SIC	368	4_1	4	1	3	2	23_3_2	1	1	1	0	0.446243047714	423.0	93.0	429.0	93.0	1
3.0.1	2019_Mar_04_1502	s	s	1	3	SIC	369	2_1	2	1	4	2	23_4_2	2	1	1	0	0.452481031418	-524.0	-285.0	-529.0	-288.0	1
3.0.1	2019_Mar_04_1502	s	s	1	3	SIC	370	ABS	0	0	4	3	24_4_3	NA	NA	0	1	3.11980819702	None	None	None	None	1
3.0.1	2019_Mar_04_1502	s	s	1	3	SIC	371	ABS	0	0	3	4	24_3_4	NA	NA	0	1	1.43871498108	None	None	None	None	1
3.0.1	2019_Mar_04_1502	s	s	1	3	SIC	372	4_3	4	3	2	3	23_2_3	2	0	1	0	0.634829998016	25.0	77.0	19.0	76.0	1
3.0.1	2019_Mar_04_1502	s	s	1	3	SIC	373	2_3	2	3	1	3	23_1_3	-1	0	1	0	3.51583099365	-536.0	190.0	-539.0	187.0	1
3.0.1	2019_Mar_04_1502	s	s	1	3	SIC	374	1_3	1	3	3	1	23_3_1	2	2	1	0	0.640353918076	-94.0	-349.0	-87.0	-347.0	1
3.0.1	2019_Mar_04_1502	s	s	1	3	SIC	375	ABS	0	0	1	4	24_1_4	NA	NA	0	1	1.81528496742	None	None	None	None	1
3.0.1	2019_Mar_04_1502	s	s	1	3	SIC	376	4_4	4	4	1	3	23_1_3	3	1	1	0	0.453063964844	-271.0	394.0	-275.0	392.0	1
3.0.1	2019_Mar_04_1502	s	s	1	3	SIC	377	ABS	0	0	2	2	24_2_2	NA	NA	0	1	4.71553397179	None	None	None	None	1
3.0.1	2019_Mar_04_1502	s	s	1	3	SIC	378	ABS	0	0	4	1	24_4_1	NA	NA	0	1	1.79507803917	None	None	None	None	1
3.0.1	2019_Mar_04_1502	s	s	1	3	SIC	379	ABS	0	0	1	3	24_1_3	NA	NA	0	1	3.17482304573	None	None	None	None	1
3.0.1	2019_Mar_04_1502	s	s	1	3	SIC	380	ABS	0	0	1	2	24_1_2	NA	NA	0	1	4.91561579704	None	None	None	None	1
3.0.1	2019_Mar_04_1502	s	s	1	3	SIC	381	ABS	0	0	1	1	24_1_1	NA	NA	0	1	2.66912293434	None	None	None	None	1
3.0.1	2019_Mar_04_1502	s	s	1	3	SIC	382	ABS	0	0	3	4	24_3_4	NA	NA	0	1	2.36955308914	None	None	None	None	1
3.0.1	2019_Mar_04_1502	s	s	1	3	SIC	383	4_2	4	2	3	4	23_3_4	1	2	1	0	0.516807079315	481.0	-356.0	485.0	-349.0	1
3.0.1	2019_Mar_04_1502	s	s	1	3	SIC	384	2_3	2	3	2	1	23_2_1	0	2	1	0	3.71585893631	-517.0	-64.0	-524.0	-58.0	1
3.0.1	2019_Mar_04_1502	s	s	1	3	SIC	385	ABS	0	0	3	3	24_3_3	NA	NA	0	1	5.83290100098	None	None	None	None	1
3.0.1	2019_Mar_04_1502	s	s	1	3	SIC	386	4_1	4	1	4	4	23_4_4	0	3	1	0	0.638261079788	291.0	368.0	293.0	364.0	1
3.0.1	2019_Mar_04_1502	s	s	1	3	SIC	387	3_3	3	3	4	3	23_4_3	-1	0	1	0	0.546019077301	-180.0	168.0	-179.0	164.0	1
3.0.1	2019_Mar_04_1502	s	s	1	3	SIC	388	2_2	2	2	2	4	23_2_4	0	2	1	0	0.613825798035	-31.0	-75.0	-28.0	-83.0	1
3.0.1	2019_Mar_04_1502	s	s	1	3	SIC	389	3_3	3	3	4	4	23_4_4	-1	-1	1	0	0.48717713356	-82.0	-397.0	-77.0	-396.0	1
3.0.1	2019_Mar_04_1502	s	s	1	3	SIC	390	1_2	1	2	1	4	23_1_4	0	2	1	0	0.540392160416	-276.0	-297.0	-271.0	-301.0	1
3.0.1	2019_Mar_04_1502	s	s	1	3	SIC	391	2_2	2	2	4	2	23_4_2	2	0	1	0	0.437440156937	-92.0	298.0	-90.0	295.0	1
3.0.1	2019_Mar_04_1502	s	s	1	3	SIC	392	ABS	0	0	2	1	24_2_1	NA	NA	0	1	2.4456410408	None	None	None	None	1
3.0.1	2019_Mar_04_1502	s	s	1	3	SIC	393	ABS	0	0	3	2	24_3_2	NA	NA	0	1	3.70407414436	None	None	None	None	1
3.0.1	2019_Mar_04_1502	s	s	1	3	SIC	394	ABS	0	0	2	4	24_2_4	NA	NA	0	1	2.54478812218	None	None	None	None	1
3.0.1	2019_Mar_04_1502	s	s	1	3	SIC	395	2_4	2	4	4	1	23_4_1	2	3	1	0	0.469751119614	475.0	85.0	469.0	84.0	1
3.0.1	2019_Mar_04_1502	s	s	1	3	SIC	396	2_1	2	1	4	1	23_4_1	2	0	1	0	0.392899036407	-127.0	113.0	-121.0	108.0	1
3.0.1	2019_Mar_04_1502	s	s	1	3	SIC	397	ABS	0	0	4	2	24_4_2	NA	NA	0	1	2.26678490639	None	None	None	None	1
3.0.1	2019_Mar_04_1502	s	s	1	3	SIC	398	3_2	3	2	3	4	23_3_4	0	2	1	0	1.28634285927	328.0	-241.0	334.0	-237.0	1
3.0.1	2019_Mar_04_1502	s	s	1	3	SIC	399	2_3	2	3	4	3	23_4_3	2	0	1	0	0.427479028702	257.0	15.0	254.0	16.0	1
3.0.1	2019_Mar_04_1502	s	s	1	3	SIC	400	ABS	0	0	3	2	24_3_2	NA	NA	0	1	1.68797492981	None	None	None	None	1
3.0.1	2019_Mar_04_1502	s	s	1	3	SIC	401	2_1	2	1	2	3	23_2_3	0	2	1	0	2.11630702019	-408.0	278.0	-407.0	274.0	1
3.0.1	2019_Mar_04_1502	s	s	1	3	SIC	402	ABS	0	0	1	1	24_1_1	NA	NA	0	1	2.96602797508	None	None	None	None	1
3.0.1	2019_Mar_04_1502	s	s	1	3	SIC	403	1_2	1	2	3	2	23_3_2	2	0	1	0	0.502458095551	-142.0	-215.0	-135.0	-209.0	1
3.0.1	2019_Mar_04_1502	s	s	1	3	SIC	404	ABS	0	0	2	1	24_2_1	NA	NA	0	1	2.49550008774	None	None	None	None	1
3.0.1	2019_Mar_04_1502	s	s	1	3	SIC	405	ABS	0	0	2	4	24_2_4	NA	NA	0	1	1.48129081726	None	None	None	None	1
3.0.1	2019_Mar_04_1502	s	s	1	3	SIC	406	ABS	0	0	1	1	24_1_1	NA	NA	0	1	1.97519183159	None	None	None	None	1
3.0.1	2019_Mar_04_1502	s	s	1	3	SIC	407	3_2	3	2	2	4	23_2_4	1	2	1	0	0.591511964798	416.0	308.0	425.0	309.0	1
3.0.1	2019_Mar_04_1502	s	s	1	3	SIC	408	3_2	3	2	1	4	23_1_4	2	2	1	0	0.646188020706	386.0	57.0	393.0	57.0	1
3.0.1	2019_Mar_04_1502	s	s	1	3	SIC	409	3_3	3	3	1	1	23_1_1	2	2	1	0	0.578463792801	485.0	-106.0	485.0	-105.0	1
3.0.1	2019_Mar_04_1502	s	s	1	3	SIC	410	3_4	3	4	4	2	23_4_2	-1	2	1	0	0.427983045578	320.0	-217.0	320.0	-217.0	1
3.0.1	2019_Mar_04_1502	s	s	1	3	SIC	411	ABS	0	0	3	1	24_3_1	NA	NA	0	1	2.3348608017	None	None	None	None	1
3.0.1	2019_Mar_04_1502	s	s	1	3	SIC	412	ABS	0	0	4	3	24_4_3	NA	NA	0	1	3.28067111969	None	None	None	None	1
3.0.1	2019_Mar_04_1502	s	s	1	3	SIC	413	ABS	0	0	2	1	24_2_1	NA	NA	0	1	3.33289813995	None	None	None	None	1
3.0.1	2019_Mar_04_1502	s	s	1	3	SIC	414	1_1	1	1	1	2	23_1_2	0	1	1	0	5.02425193787	-228.0	69.0	-225.0	69.0	1
3.0.1	2019_Mar_04_1502	s	s	1	3	SIC	415	1_2	1	2	4	4	23_4_4	3	2	1	0	0.446661949158	-146.0	296.0	-143.0	303.0	1
3.0.1	2019_Mar_04_1502	s	s	1	3	SIC	416	4_4	4	4	3	1	23_3_1	1	3	1	0	0.507840871811	-55.0	-385.0	-51.0	-387.0	1
3.0.1	2019_Mar_04_1502	s	s	1	3	SIC	417	ABS	0	0	1	2	24_1_2	NA	NA	0	1	4.71546816826	None	None	None	None	1
3.0.1	2019_Mar_04_1502	s	s	1	3	SIC	418	2_2	2	2	4	4	23_4_4	2	2	1	0	0.410881996155	-435.0	-331.0	-440.0	-327.0	1
3.0.1	2019_Mar_04_1502	s	s	1	3	SIC	419	2_4	2	4	2	3	23_2_3	0	1	1	0	0.58082985878	-97.0	-80.0	-95.0	-87.0	1
3.0.1	2019_Mar_04_1502	s	s	1	3	SIC	420	ABS	0	0	4	3	24_4_3	NA	NA	0	1	1.99257397652	None	None	None	None	1
3.0.1	2019_Mar_04_1502	s	s	1	3	SIC	421	3_2	3	2	2	2	23_2_2	1	0	1	0	0.556001186371	-437.0	-141.0	-428.0	-140.0	1
3.0.1	2019_Mar_04_1502	s	s	1	3	SIC	422	ABS	0	0	4	1	24_4_1	NA	NA	0	1	1.76792001724	None	None	None	None	1
3.0.1	2019_Mar_04_1502	s	s	1	3	SIC	423	ABS	0	0	1	4	24_1_4	NA	NA	0	1	1.14804601669	None	None	None	None	1
3.0.1	2019_Mar_04_1502	s	s	1	3	SIC	424	2_4	2	4	3	1	23_3_1	1	3	1	0	0.79581618309	508.0	334.0	503.0	332.0	1
3.0.1	2019_Mar_04_1502	s	s	1	3	SIC	425	ABS	0	0	2	1	24_2_1	NA	NA	0	1	2.48748803139	None	None	None	None	1
3.0.1	2019_Mar_04_1502	s	s	1	3	SIC	426	1_4	1	4	1	3	23_1_3	0	1	1	0	0.474786043167	107.0	155.0	99.0	157.0	1
3.0.1	2019_Mar_04_1502	s	s	1	3	SIC	427	ABS	0	0	2	1	24_2_1	NA	NA	0	1	4.29632782936	None	None	None	None	1
3.0.1	2019_Mar_04_1502	s	s	1	3	SIC	428	ABS	0	0	1	3	24_1_3	NA	NA	0	1	4.02455496788	None	None	None	None	1
3.0.1	2019_Mar_04_1502	s	s	1	3	SIC	429	ABS	0	0	4	1	24_4_1	NA	NA	0	1	0.672621965408	None	None	None	None	1
3.0.1	2019_Mar_04_1502	s	s	1	3	SIC	430	ABS	0	0	2	3	24_2_3	NA	NA	0	1	4.41464400291	None	None	None	None	1
3.0.1	2019_Mar_04_1502	s	s	1	3	SIC	431	ABS	0	0	3	1	24_3_1	NA	NA	0	1	1.69294285774	None	None	None	None	1
3.0.1	2019_Mar_04_1502	s	s	1	3	SIC	432	2_1	2	1	2	2	23_2_2	0	1	1	0	2.40152287483	-264.0	404.0	-264.0	401.0	1
3.0.1	2019_Mar_04_1502	s	s	1	3	SIC	433	ABS	0	0	3	3	24_3_3	NA	NA	0	1	3.79810810089	None	None	None	None	1
3.0.1	2019_Mar_04_1502	s	s	1	3	SIC	434	ABS	0	0	1	3	24_1_3	NA	NA	0	1	5.07357907295	None	None	None	None	1
3.0.1	2019_Mar_04_1502	s	s	1	3	SIC	435	2_1	2	1	1	3	23_1_3	-1	2	1	0	2.06935119629	-233.0	-159.0	-235.0	-154.0	1
3.0.1	2019_Mar_04_1502	s	s	1	3	SIC	436	3_4	3	4	1	4	23_1_4	2	0	1	0	0.677524805069	305.0	-350.0	306.0	-347.0	1
3.0.1	2019_Mar_04_1502	s	s	1	3	SIC	437	4_4	4	4	3	4	23_3_4	1	0	1	0	0.587378978729	-450.0	382.0	-450.0	387.0	1
3.0.1	2019_Mar_04_1502	s	s	1	3	SIC	438	2_3	2	3	2	4	23_2_4	0	-1	1	0	0.916691064835	-228.0	-266.0	-219.0	-265.0	1
3.0.1	2019_Mar_04_1502	s	s	1	3	SIC	439	ABS	0	0	4	1	24_4_1	NA	NA	0	1	1.59888720512	None	None	None	None	1
3.0.1	2019_Mar_04_1502	s	s	1	3	SIC	440	ABS	0	0	1	1	24_1_1	NA	NA	0	1	2.75442004204	None	None	None	None	1
3.0.1	2019_Mar_04_1502	s	s	1	3	SIC	441	3_2	3	2	2	3	23_2_3	1	1	1	0	0.545217990875	-358.0	365.0	-357.0	365.0	1
3.0.1	2019_Mar_04_1502	s	s	1	3	SIC	442	ABS	0	0	3	3	24_3_3	NA	NA	0	1	3.21381020546	None	None	None	None	1
3.0.1	2019_Mar_04_1502	s	s	1	3	SIC	443	2_3	2	3	4	1	23_4_1	2	2	1	0	0.43741106987	-91.0	289.0	-88.0	280.0	1
3.0.1	2019_Mar_04_1502	s	s	1	3	SIC	444	2_4	2	4	4	2	23_4_2	2	2	1	0	0.458036899567	255.0	280.0	255.0	278.0	1
3.0.1	2019_Mar_04_1502	s	s	1	3	SIC	445	1_4	1	4	3	1	23_3_1	2	3	1	0	0.516855955124	-141.0	202.0	-137.0	204.0	1
3.0.1	2019_Mar_04_1502	s	s	1	3	SIC	446	ABS	0	0	2	4	24_2_4	NA	NA	0	1	1.93362998962	None	None	None	None	1
3.0.1	2019_Mar_04_1502	s	s	1	3	SIC	447	1_1	1	1	1	3	23_1_3	0	2	1	0	1.03121900558	221.0	35.0	215.0	30.0	1
3.0.1	2019_Mar_04_1502	s	s	1	3	SIC	448	2_2	2	2	4	1	23_4_1	2	-1	1	0	0.446233034134	-436.0	318.0	-434.0	311.0	1
3.0.1	2019_Mar_04_1502	s	s	1	3	SIC	449	3_4	3	4	4	3	23_4_3	-1	1	1	0	0.41096496582	-196.0	298.0	-206.0	299.0	1
3.0.1	2019_Mar_04_1502	s	s	1	3	SIC	450	ABS	0	0	2	3	24_2_3	NA	NA	0	1	3.57920479774	None	None	None	None	1
3.0.1	2019_Mar_04_1502	s	s	1	3	SIC	451	2_4	2	4	1	2	23_1_2	-1	2	1	0	0.869663000107	141.0	197.0	147.0	207.0	1
3.0.1	2019_Mar_04_1502	s	s	1	3	SIC	452	ABS	0	0	4	4	24_4_4	NA	NA	0	1	1.01744699478	None	None	None	None	1
3.0.1	2019_Mar_04_1502	s	s	1	3	SIC	453	3_1	3	1	3	2	23_3_2	0	1	1	0	2.45086693764	37.0	250.0	40.0	246.0	1
3.0.1	2019_Mar_04_1502	s	s	1	3	SIC	454	ABS	0	0	2	1	24_2_1	NA	NA	0	1	4.88030695915	None	None	None	None	1
3.0.1	2019_Mar_04_1502	s	s	1	3	SIC	455	1_3	1	3	2	2	23_2_2	1	1	1	0	2.38686609268	-424.0	151.0	-425.0	154.0	1
3.0.1	2019_Mar_04_1502	s	s	1	3	SIC	456	3_4	3	4	2	1	23_2_1	1	3	1	0	0.846168041229	-146.0	41.0	-140.0	40.0	1
3.0.1	2019_Mar_04_1502	s	s	1	3	SIC	457	ABS	0	0	4	3	24_4_3	NA	NA	0	1	3.83961606026	None	None	None	None	1
3.0.1	2019_Mar_04_1502	s	s	1	3	SIC	458	4_1	4	1	3	3	23_3_3	1	2	1	0	0.497294187546	-44.0	125.0	-41.0	125.0	1
3.0.1	2019_Mar_04_1502	s	s	1	3	SIC	459	3_4	3	4	4	4	23_4_4	-1	0	1	0	0.505120038986	301.0	364.0	293.0	364.0	1
3.0.1	2019_Mar_04_1502	s	s	1	3	SIC	460	ABS	0	0	1	3	24_1_3	NA	NA	0	1	3.46902108192	None	None	None	None	1
3.0.1	2019_Mar_04_1502	s	s	1	3	SIC	461	ABS	0	0	1	3	24_1_3	NA	NA	0	1	2.86333799362	None	None	None	None	1
3.0.1	2019_Mar_04_1502	s	s	1	3	SIC	462	4_2	4	2	2	4	23_2_4	2	2	1	0	0.411024093628	-25.0	244.0	-18.0	247.0	1
3.0.1	2019_Mar_04_1502	s	s	1	3	SIC	463	ABS	0	0	1	2	24_1_2	NA	NA	0	1	4.88015913963	None	None	None	None	1
3.0.1	2019_Mar_04_1502	s	s	1	3	SIC	464	1_1	1	1	3	3	23_3_3	2	2	1	0	0.45806312561	441.0	281.0	443.0	282.0	1
3.0.1	2019_Mar_04_1502	s	s	1	3	SIC	465	ABS	0	0	1	3	24_1_3	NA	NA	0	1	4.74201703072	None	None	None	None	1
3.0.1	2019_Mar_04_1502	s	s	1	3	SIC	466	1_1	1	1	4	1	23_4_1	3	0	1	0	0.40424489975	76.0	26.0	81.0	18.0	1
3.0.1	2019_Mar_04_1502	s	s	1	3	SIC	467	3_4	3	4	1	1	23_1_1	2	3	1	0	0.469921827316	-178.0	-139.0	-165.0	-133.0	1
3.0.1	2019_Mar_04_1502	s	s	1	3	SIC	468	ABS	0	0	4	3	24_4_3	NA	NA	0	1	1.4577600956	None	None	None	None	1
3.0.1	2019_Mar_04_1502	s	s	1	3	SIC	469	3_1	3	1	3	4	23_3_4	0	3	1	0	0.450593948364	-3.0	44.0	2.0	49.0	1
3.0.1	2019_Mar_04_1502	s	s	1	3	SIC	470	ABS	0	0	3	2	24_3_2	NA	NA	0	1	2.73963999748	None	None	None	None	1
3.0.1	2019_Mar_04_1502	s	s	1	3	SIC	471	3_1	3	1	4	3	23_4_3	-1	2	1	0	0.469846010208	413.0	-100.0	411.0	-100.0	1
3.0.1	2019_Mar_04_1502	s	s	1	3	SIC	472	3_2	3	2	1	1	23_1_1	2	-1	1	0	0.672626018524	-504.0	-315.0	-499.0	-320.0	1
3.0.1	2019_Mar_04_1502	s	s	1	3	SIC	473	ABS	0	0	1	2	24_1_2	NA	NA	0	1	5.97281599045	None	None	None	None	1
3.0.1	2019_Mar_04_1502	s	s	1	3	SIC	474	ABS	0	0	1	4	24_1_4	NA	NA	0	1	2.0722630024	None	None	None	None	1
3.0.1	2019_Mar_04_1502	s	s	1	3	SIC	475	ABS	0	0	2	2	24_2_2	NA	NA	0	1	4.09929990768	None	None	None	None	1
3.0.1	2019_Mar_04_1502	s	s	1	3	SIC	476	ABS	0	0	1	2	24_1_2	NA	NA	0	1	3.547768116	None	None	None	None	1
3.0.1	2019_Mar_04_1502	s	s	1	3	SIC	477	4_2	4	2	4	3	23_4_3	0	1	0	1	0.646285057068	-349.0	-16.0	None	None	0
3.0.1	2019_Mar_04_1502	s	s	1	3	SIC	478	ABS	0	0	2	3	24_2_3	NA	NA	0	1	3.2806520462	None	None	None	None	1
3.0.1	2019_Mar_04_1502	s	s	1	3	SIC	479	2_4	2	4	1	4	23_1_4	-1	0	1	0	2.67197299004	-53.0	-130.0	-46.0	-128.0	1
3.0.1	2019_Mar_04_1502	s	s	1	3	SIC	480	4_1	4	1	2	4	23_2_4	2	3	1	0	0.619771957397	165.0	118.0	157.0	125.0	1
