Version	Date	Stimuli	Method	Subject	Session	Condition	Trial	Target	TColor	TShape	DColor	DShape	Distractors	Channel1	Channel2	LMouseButton	RMouseButton	RT	TargetX	TargetY	ResponseX	ResponseY	Correct
3.0.1	2019_Mar_01_1033	s	s	2	1	Capacity	1	ABS	0	0	2	1	24_2_1	NA	NA	0	1	1.02548003197	None	None	None	None	1
3.0.1	2019_Mar_01_1033	s	s	2	1	Capacity	2	ABS	0	0	1	1	24_1_1	NA	NA	0	1	1.84875392914	None	None	None	None	1
3.0.1	2019_Mar_01_1033	s	s	2	1	Capacity	3	ABS	0	0	1	1	24_1_1	NA	NA	0	1	1.76352190971	None	None	None	None	1
3.0.1	2019_Mar_01_1033	s	s	2	1	Capacity	4	1_1	1	1	4	1	23_4_1	3	0	1	0	0.634840965271	339.0	-107.0	342.0	-106.0	1
3.0.1	2019_Mar_01_1033	s	s	2	1	Capacity	5	2_1	2	1	1	1	23_1_1	-1	0	1	0	2.35565805435	-423.0	158.0	-428.0	154.0	1
3.0.1	2019_Mar_01_1033	s	s	2	1	Capacity	6	3_1	3	1	1	1	23_1_1	2	0	0	1	0.863065004349	-347.0	-166.0	None	None	0
3.0.1	2019_Mar_01_1033	s	s	2	1	Capacity	7	3_1	3	1	4	1	23_4_1	-1	0	1	0	1.17553305626	-192.0	-50.0	-197.0	-56.0	1
3.0.1	2019_Mar_01_1033	s	s	2	1	Capacity	8	1_1	1	1	3	1	23_3_1	2	0	1	0	0.811280012131	-432.0	-186.0	-429.0	-186.0	1
3.0.1	2019_Mar_01_1033	s	s	2	1	Capacity	9	ABS	0	0	2	1	24_2_1	NA	NA	0	1	4.5508928299	None	None	None	None	1
3.0.1	2019_Mar_01_1033	s	s	2	1	Capacity	10	ABS	0	0	4	1	24_4_1	NA	NA	0	1	2.4985370636	None	None	None	None	1
3.0.1	2019_Mar_01_1033	s	s	2	1	Capacity	11	ABS	0	0	4	1	24_4_1	NA	NA	0	1	1.87455797195	None	None	None	None	1
3.0.1	2019_Mar_01_1033	s	s	2	1	Capacity	12	ABS	0	0	4	1	24_4_1	NA	NA	0	1	2.06276202202	None	None	None	None	1
3.0.1	2019_Mar_01_1033	s	s	2	1	Capacity	13	1_1	1	1	2	1	23_2_1	1	0	1	0	1.37831091881	54.0	148.0	63.0	146.0	1
3.0.1	2019_Mar_01_1033	s	s	2	1	Capacity	14	ABS	0	0	3	1	24_3_1	NA	NA	0	1	3.0925719738	None	None	None	None	1
3.0.1	2019_Mar_01_1033	s	s	2	1	Capacity	15	3_1	3	1	2	1	23_2_1	1	0	1	0	1.26167607307	93.0	110.0	98.0	112.0	1
3.0.1	2019_Mar_01_1033	s	s	2	1	Capacity	16	4_1	4	1	1	1	23_1_1	3	0	1	0	0.81084895134	193.0	356.0	197.0	348.0	1
3.0.1	2019_Mar_01_1033	s	s	2	1	Capacity	17	ABS	0	0	3	1	24_3_1	NA	NA	0	1	3.09968781471	None	None	None	None	1
3.0.1	2019_Mar_01_1033	s	s	2	1	Capacity	18	4_1	4	1	2	1	23_2_1	2	0	1	0	0.849022865295	217.0	-190.0	214.0	-195.0	1
3.0.1	2019_Mar_01_1033	s	s	2	1	Capacity	19	ABS	0	0	2	1	24_2_1	NA	NA	0	1	3.03100204468	None	None	None	None	1
3.0.1	2019_Mar_01_1033	s	s	2	1	Capacity	20	ABS	0	0	1	1	24_1_1	NA	NA	0	1	3.95115303993	None	None	None	None	1
3.0.1	2019_Mar_01_1033	s	s	2	1	Capacity	21	2_1	2	1	4	1	23_4_1	2	0	1	0	0.686633110046	-398.0	-8.0	-403.0	-10.0	1
3.0.1	2019_Mar_01_1033	s	s	2	1	Capacity	22	ABS	0	0	3	1	24_3_1	NA	NA	0	1	2.69264793396	None	None	None	None	1
3.0.1	2019_Mar_01_1033	s	s	2	1	Capacity	23	2_1	2	1	3	1	23_3_1	1	0	1	0	1.49299478531	-491.0	-407.0	-489.0	-404.0	1
3.0.1	2019_Mar_01_1033	s	s	2	1	Capacity	24	4_1	4	1	3	1	23_3_1	1	0	1	0	0.752111196518	-421.0	-373.0	-416.0	-371.0	1
3.0.1	2019_Mar_01_1033	s	s	2	1	Capacity	25	4_1	4	1	1	1	23_1_1	3	0	1	0	0.639823913574	317.0	-232.0	316.0	-239.0	1
3.0.1	2019_Mar_01_1033	s	s	2	1	Capacity	26	1_1	1	1	4	1	23_4_1	3	0	1	0	0.613857030869	26.0	325.0	30.0	317.0	1
3.0.1	2019_Mar_01_1033	s	s	2	1	Capacity	27	1_1	1	1	3	1	23_3_1	2	0	1	0	0.95201420784	165.0	-214.0	168.0	-210.0	1
3.0.1	2019_Mar_01_1033	s	s	2	1	Capacity	28	4_1	4	1	3	1	23_3_1	1	0	1	0	0.554989099503	530.0	-33.0	535.0	-43.0	1
3.0.1	2019_Mar_01_1033	s	s	2	1	Capacity	29	3_1	3	1	2	1	23_2_1	1	0	1	0	1.04606699944	303.0	-178.0	308.0	-180.0	1
3.0.1	2019_Mar_01_1033	s	s	2	1	Capacity	30	ABS	0	0	4	1	24_4_1	NA	NA	0	1	1.85761713982	None	None	None	None	1
3.0.1	2019_Mar_01_1033	s	s	2	1	Capacity	31	2_1	2	1	4	1	23_4_1	2	0	1	0	0.810855150223	-167.0	-225.0	-172.0	-227.0	1
3.0.1	2019_Mar_01_1033	s	s	2	1	Capacity	32	ABS	0	0	1	1	24_1_1	NA	NA	0	1	2.72820115089	None	None	None	None	1
3.0.1	2019_Mar_01_1033	s	s	2	1	Capacity	33	ABS	0	0	2	1	24_2_1	NA	NA	0	1	2.73976993561	None	None	None	None	1
3.0.1	2019_Mar_01_1033	s	s	2	1	Capacity	34	ABS	0	0	3	1	24_3_1	NA	NA	0	1	2.6267580986	None	None	None	None	1
3.0.1	2019_Mar_01_1033	s	s	2	1	Capacity	35	ABS	0	0	1	1	24_1_1	NA	NA	0	1	3.36802911758	None	None	None	None	1
3.0.1	2019_Mar_01_1033	s	s	2	1	Capacity	36	ABS	0	0	1	1	24_1_1	NA	NA	0	1	3.86869001389	None	None	None	None	1
3.0.1	2019_Mar_01_1033	s	s	2	1	Capacity	37	ABS	0	0	2	1	24_2_1	NA	NA	0	1	2.99278712273	None	None	None	None	1
3.0.1	2019_Mar_01_1033	s	s	2	1	Capacity	38	3_1	3	1	4	1	23_4_1	-1	0	1	0	0.763797044754	-111.0	337.0	-106.0	335.0	1
3.0.1	2019_Mar_01_1033	s	s	2	1	Capacity	39	ABS	0	0	4	1	24_4_1	NA	NA	0	1	2.05757880211	None	None	None	None	1
3.0.1	2019_Mar_01_1033	s	s	2	1	Capacity	40	ABS	0	0	3	1	24_3_1	NA	NA	0	1	3.41435289383	None	None	None	None	1
3.0.1	2019_Mar_01_1033	s	s	2	1	Capacity	41	4_1	4	1	2	1	23_2_1	2	0	1	0	0.716825962067	-507.0	409.0	-507.0	411.0	1
3.0.1	2019_Mar_01_1033	s	s	2	1	Capacity	42	1_1	1	1	2	1	23_2_1	1	0	0	1	3.38650798798	379.0	-27.0	None	None	0
3.0.1	2019_Mar_01_1033	s	s	2	1	Capacity	43	3_1	3	1	1	1	23_1_1	2	0	1	0	0.775885820389	-498.0	124.0	-499.0	122.0	1
3.0.1	2019_Mar_01_1033	s	s	2	1	Capacity	44	ABS	0	0	2	1	24_2_1	NA	NA	0	1	2.26135706902	None	None	None	None	1
3.0.1	2019_Mar_01_1033	s	s	2	1	Capacity	45	ABS	0	0	4	1	24_4_1	NA	NA	0	1	1.35181212425	None	None	None	None	1
3.0.1	2019_Mar_01_1033	s	s	2	1	Capacity	46	2_1	2	1	1	1	23_1_1	-1	0	1	0	5.09197998047	-224.0	-42.0	-223.0	-41.0	1
3.0.1	2019_Mar_01_1033	s	s	2	1	Capacity	47	2_1	2	1	3	1	23_3_1	1	0	1	0	0.869697093964	-217.0	-165.0	-210.0	-162.0	1
3.0.1	2019_Mar_01_1033	s	s	2	1	Capacity	48	ABS	0	0	3	1	24_3_1	NA	NA	0	1	5.36240196228	None	None	None	None	1
3.0.1	2019_Mar_01_1033	s	s	2	1	Capacity	49	ABS	0	0	2	1	24_2_1	NA	NA	0	1	4.17452001572	None	None	None	None	1
3.0.1	2019_Mar_01_1033	s	s	2	1	Capacity	50	3_1	3	1	2	1	23_2_1	1	0	1	0	1.35194802284	109.0	-386.0	116.0	-389.0	1
3.0.1	2019_Mar_01_1033	s	s	2	1	Capacity	51	ABS	0	0	4	1	24_4_1	NA	NA	0	1	2.41040992737	None	None	None	None	1
3.0.1	2019_Mar_01_1033	s	s	2	1	Capacity	52	1_1	1	1	3	1	23_3_1	2	0	1	0	0.52864408493	-86.0	-66.0	-81.0	-69.0	1
3.0.1	2019_Mar_01_1033	s	s	2	1	Capacity	53	2_1	2	1	1	1	23_1_1	-1	0	1	0	1.20195603371	-198.0	-113.0	-193.0	-119.0	1
3.0.1	2019_Mar_01_1033	s	s	2	1	Capacity	54	ABS	0	0	2	1	24_2_1	NA	NA	0	1	5.12034201622	None	None	None	None	1
3.0.1	2019_Mar_01_1033	s	s	2	1	Capacity	55	ABS	0	0	3	1	24_3_1	NA	NA	0	1	3.71873521805	None	None	None	None	1
3.0.1	2019_Mar_01_1033	s	s	2	1	Capacity	56	1_1	1	1	4	1	23_4_1	3	0	1	0	0.679944992065	-134.0	245.0	-132.0	242.0	1
3.0.1	2019_Mar_01_1033	s	s	2	1	Capacity	57	4_1	4	1	2	1	23_2_1	2	0	1	0	0.561761856079	339.0	-286.0	346.0	-288.0	1
3.0.1	2019_Mar_01_1033	s	s	2	1	Capacity	58	4_1	4	1	1	1	23_1_1	3	0	1	0	0.543277978897	272.0	10.0	274.0	18.0	1
3.0.1	2019_Mar_01_1033	s	s	2	1	Capacity	59	3_1	3	1	4	1	23_4_1	-1	0	1	0	0.893226861954	354.0	167.0	361.0	160.0	1
3.0.1	2019_Mar_01_1033	s	s	2	1	Capacity	60	2_1	2	1	3	1	23_3_1	1	0	1	0	1.11701703072	428.0	-164.0	430.0	-164.0	1
3.0.1	2019_Mar_01_1033	s	s	2	1	Capacity	61	ABS	0	0	2	1	24_2_1	NA	NA	0	1	3.58386111259	None	None	None	None	1
3.0.1	2019_Mar_01_1033	s	s	2	1	Capacity	62	ABS	0	0	4	1	24_4_1	NA	NA	0	1	2.20158410072	None	None	None	None	1
3.0.1	2019_Mar_01_1033	s	s	2	1	Capacity	63	ABS	0	0	4	1	24_4_1	NA	NA	0	1	2.03403496742	None	None	None	None	1
3.0.1	2019_Mar_01_1033	s	s	2	1	Capacity	64	ABS	0	0	1	1	24_1_1	NA	NA	0	1	3.9510948658	None	None	None	None	1
3.0.1	2019_Mar_01_1033	s	s	2	1	Capacity	65	4_1	4	1	3	1	23_3_1	1	0	1	0	0.893219947815	-276.0	406.0	-272.0	405.0	1
3.0.1	2019_Mar_01_1033	s	s	2	1	Capacity	66	ABS	0	0	3	1	24_3_1	NA	NA	0	1	2.30459213257	None	None	None	None	1
3.0.1	2019_Mar_01_1033	s	s	2	1	Capacity	67	2_1	2	1	4	1	23_4_1	2	0	1	0	0.763810157776	120.0	-187.0	117.0	-188.0	1
3.0.1	2019_Mar_01_1033	s	s	2	1	Capacity	68	ABS	0	0	1	1	24_1_1	NA	NA	0	1	2.8858859539	None	None	None	None	1
3.0.1	2019_Mar_01_1033	s	s	2	1	Capacity	69	ABS	0	0	1	1	24_1_1	NA	NA	0	1	2.64599609375	None	None	None	None	1
3.0.1	2019_Mar_01_1033	s	s	2	1	Capacity	70	1_1	1	1	2	1	23_2_1	1	0	0	1	2.32838892937	-322.0	-55.0	None	None	0
3.0.1	2019_Mar_01_1033	s	s	2	1	Capacity	71	3_1	3	1	1	1	23_1_1	2	0	1	0	0.794968128204	423.0	192.0	418.0	192.0	1
3.0.1	2019_Mar_01_1033	s	s	2	1	Capacity	72	ABS	0	0	3	1	24_3_1	NA	NA	0	1	3.01576781273	None	None	None	None	1
3.0.1	2019_Mar_01_1033	s	s	2	1	Capacity	73	4_1	4	1	2	1	23_2_1	2	0	1	0	0.775565862656	82.0	387.0	81.0	391.0	1
3.0.1	2019_Mar_01_1033	s	s	2	1	Capacity	74	ABS	0	0	2	1	24_2_1	NA	NA	0	1	2.03920817375	None	None	None	None	1
3.0.1	2019_Mar_01_1033	s	s	2	1	Capacity	75	1_1	1	1	3	1	23_3_1	2	0	1	0	1.05795788765	-134.0	-301.0	-130.0	-300.0	1
3.0.1	2019_Mar_01_1033	s	s	2	1	Capacity	76	ABS	0	0	4	1	24_4_1	NA	NA	0	1	2.12062001228	None	None	None	None	1
3.0.1	2019_Mar_01_1033	s	s	2	1	Capacity	77	3_1	3	1	2	1	23_2_1	1	0	1	0	1.09153795242	-425.0	-51.0	-425.0	-43.0	1
3.0.1	2019_Mar_01_1033	s	s	2	1	Capacity	78	2_1	2	1	4	1	23_4_1	2	0	1	0	0.547971010208	403.0	-367.0	405.0	-370.0	1
3.0.1	2019_Mar_01_1033	s	s	2	1	Capacity	79	4_1	4	1	3	1	23_3_1	1	0	1	0	0.58736205101	-175.0	-236.0	-177.0	-239.0	1
3.0.1	2019_Mar_01_1033	s	s	2	1	Capacity	80	ABS	0	0	4	1	24_4_1	NA	NA	0	1	1.34506988525	None	None	None	None	1
3.0.1	2019_Mar_01_1033	s	s	2	1	Capacity	81	ABS	0	0	2	1	24_2_1	NA	NA	0	1	2.03164291382	None	None	None	None	1
3.0.1	2019_Mar_01_1033	s	s	2	1	Capacity	82	ABS	0	0	3	1	24_3_1	NA	NA	0	1	1.61918497086	None	None	None	None	1
3.0.1	2019_Mar_01_1033	s	s	2	1	Capacity	83	3_1	3	1	1	1	23_1_1	2	0	1	0	0.634423971176	-308.0	-148.0	-304.0	-141.0	1
3.0.1	2019_Mar_01_1033	s	s	2	1	Capacity	84	ABS	0	0	2	1	24_2_1	NA	NA	0	1	1.84076499939	None	None	None	None	1
3.0.1	2019_Mar_01_1033	s	s	2	1	Capacity	85	ABS	0	0	4	1	24_4_1	NA	NA	0	1	1.44362807274	None	None	None	None	1
3.0.1	2019_Mar_01_1033	s	s	2	1	Capacity	86	1_1	1	1	2	1	23_2_1	1	0	0	1	1.82632899284	228.0	-328.0	None	None	0
3.0.1	2019_Mar_01_1033	s	s	2	1	Capacity	87	1_1	1	1	4	1	23_4_1	3	0	1	0	0.62060213089	245.0	96.0	244.0	90.0	1
3.0.1	2019_Mar_01_1033	s	s	2	1	Capacity	88	2_1	2	1	3	1	23_3_1	1	0	1	0	1.26069283485	-271.0	383.0	-274.0	391.0	1
3.0.1	2019_Mar_01_1033	s	s	2	1	Capacity	89	2_1	2	1	1	1	23_1_1	-1	0	1	0	3.4366080761	-114.0	212.0	-109.0	213.0	1
3.0.1	2019_Mar_01_1033	s	s	2	1	Capacity	90	3_1	3	1	4	1	23_4_1	-1	0	1	0	0.822625875473	-150.0	-206.0	-147.0	-206.0	1
3.0.1	2019_Mar_01_1033	s	s	2	1	Capacity	91	4_1	4	1	1	1	23_1_1	3	0	1	0	0.576040029526	59.0	80.0	63.0	86.0	1
3.0.1	2019_Mar_01_1033	s	s	2	1	Capacity	92	ABS	0	0	1	1	24_1_1	NA	NA	0	1	2.60877013206	None	None	None	None	1
3.0.1	2019_Mar_01_1033	s	s	2	1	Capacity	93	ABS	0	0	1	1	24_1_1	NA	NA	0	1	2.35600996017	None	None	None	None	1
3.0.1	2019_Mar_01_1033	s	s	2	1	Capacity	94	ABS	0	0	1	1	24_1_1	NA	NA	0	1	2.40154695511	None	None	None	None	1
3.0.1	2019_Mar_01_1033	s	s	2	1	Capacity	95	ABS	0	0	3	1	24_3_1	NA	NA	0	1	4.25975298882	None	None	None	None	1
3.0.1	2019_Mar_01_1033	s	s	2	1	Capacity	96	ABS	0	0	3	1	24_3_1	NA	NA	0	1	3.10434103012	None	None	None	None	1
3.0.1	2019_Mar_01_1033	s	s	2	1	Capacity	1	ABS	0	0	1	1	24_1_1	NA	NA	0	1	4.36280202866	None	None	None	None	1
3.0.1	2019_Mar_01_1033	s	s	2	1	Capacity	2	ABS	0	0	1	2	24_1_2	NA	NA	0	1	9.07901000977	None	None	None	None	1
3.0.1	2019_Mar_01_1033	s	s	2	1	Capacity	3	ABS	0	0	1	4	24_1_4	NA	NA	0	1	4.75599384308	None	None	None	None	1
3.0.1	2019_Mar_01_1033	s	s	2	1	Capacity	4	1_3	1	3	1	4	23_1_4	0	-1	1	0	0.987236976624	-21.0	-294.0	-23.0	-289.0	1
3.0.1	2019_Mar_01_1033	s	s	2	1	Capacity	5	ABS	0	0	1	2	24_1_2	NA	NA	0	1	5.61233091354	None	None	None	None	1
3.0.1	2019_Mar_01_1033	s	s	2	1	Capacity	6	1_1	1	1	1	4	23_1_4	0	3	1	0	1.16658306122	192.0	194.0	191.0	190.0	1
3.0.1	2019_Mar_01_1033	s	s	2	1	Capacity	7	1_3	1	3	1	2	23_1_2	0	1	0	1	3.22193813324	-160.0	-42.0	None	None	0
3.0.1	2019_Mar_01_1033	s	s	2	1	Capacity	8	ABS	0	0	1	1	24_1_1	NA	NA	0	1	5.53887295723	None	None	None	None	1
3.0.1	2019_Mar_01_1033	s	s	2	1	Capacity	9	1_4	1	4	1	2	23_1_2	0	2	1	0	1.68604397774	471.0	246.0	471.0	250.0	1
3.0.1	2019_Mar_01_1033	s	s	2	1	Capacity	10	ABS	0	0	1	4	24_1_4	NA	NA	0	1	3.57464718819	None	None	None	None	1
3.0.1	2019_Mar_01_1033	s	s	2	1	Capacity	11	1_1	1	1	1	2	23_1_2	0	1	1	0	3.31890487671	-124.0	-121.0	-130.0	-121.0	1
3.0.1	2019_Mar_01_1033	s	s	2	1	Capacity	12	ABS	0	0	1	1	24_1_1	NA	NA	0	1	4.56268501282	None	None	None	None	1
3.0.1	2019_Mar_01_1033	s	s	2	1	Capacity	13	ABS	0	0	1	2	24_1_2	NA	NA	0	1	7.07318305969	None	None	None	None	1
3.0.1	2019_Mar_01_1033	s	s	2	1	Capacity	14	1_4	1	4	1	3	23_1_3	0	1	1	0	1.28145599365	188.0	24.0	190.0	21.0	1
3.0.1	2019_Mar_01_1033	s	s	2	1	Capacity	15	ABS	0	0	1	3	24_1_3	NA	NA	0	1	7.17365694046	None	None	None	None	1
3.0.1	2019_Mar_01_1033	s	s	2	1	Capacity	16	1_3	1	3	1	1	23_1_1	0	2	1	0	1.68408298492	-471.0	222.0	-474.0	221.0	1
3.0.1	2019_Mar_01_1033	s	s	2	1	Capacity	17	1_2	1	2	1	1	23_1_1	0	-1	1	0	2.55438494682	394.0	76.0	390.0	66.0	1
3.0.1	2019_Mar_01_1033	s	s	2	1	Capacity	18	1_2	1	2	1	4	23_1_4	0	2	1	0	1.06321191788	504.0	-202.0	506.0	-204.0	1
3.0.1	2019_Mar_01_1033	s	s	2	1	Capacity	19	1_2	1	2	1	3	23_1_3	0	1	1	0	4.35580897331	381.0	-314.0	378.0	-319.0	1
3.0.1	2019_Mar_01_1033	s	s	2	1	Capacity	20	ABS	0	0	1	4	24_1_4	NA	NA	0	1	4.48036289215	None	None	None	None	1
3.0.1	2019_Mar_01_1033	s	s	2	1	Capacity	21	1_4	1	4	1	1	23_1_1	0	3	1	0	1.11015701294	-494.0	89.0	-491.0	91.0	1
3.0.1	2019_Mar_01_1033	s	s	2	1	Capacity	22	ABS	0	0	1	3	24_1_3	NA	NA	0	1	6.38996386528	None	None	None	None	1
3.0.1	2019_Mar_01_1033	s	s	2	1	Capacity	23	ABS	0	0	1	3	24_1_3	NA	NA	0	1	3.89726901054	None	None	None	None	1
3.0.1	2019_Mar_01_1033	s	s	2	1	Capacity	24	1_1	1	1	1	3	23_1_3	0	2	1	0	3.63356590271	-431.0	86.0	-439.0	89.0	1
3.0.1	2019_Mar_01_1033	s	s	2	1	Capacity	25	ABS	0	0	1	3	24_1_3	NA	NA	0	1	8.14360594749	None	None	None	None	1
3.0.1	2019_Mar_01_1033	s	s	2	1	Capacity	26	ABS	0	0	1	1	24_1_1	NA	NA	0	1	2.67570495605	None	None	None	None	1
3.0.1	2019_Mar_01_1033	s	s	2	1	Capacity	27	ABS	0	0	1	3	24_1_3	NA	NA	0	1	5.84957122803	None	None	None	None	1
3.0.1	2019_Mar_01_1033	s	s	2	1	Capacity	28	1_4	1	4	1	3	23_1_3	0	1	1	0	2.21044802666	271.0	-391.0	264.0	-388.0	1
3.0.1	2019_Mar_01_1033	s	s	2	1	Capacity	29	1_4	1	4	1	2	23_1_2	0	2	1	0	0.967663049698	-299.0	230.0	-293.0	230.0	1
3.0.1	2019_Mar_01_1033	s	s	2	1	Capacity	30	1_1	1	1	1	2	23_1_2	0	1	1	0	2.64984798431	-86.0	-148.0	-76.0	-149.0	1
3.0.1	2019_Mar_01_1033	s	s	2	1	Capacity	31	ABS	0	0	1	2	24_1_2	NA	NA	0	1	8.04406785965	None	None	None	None	1
3.0.1	2019_Mar_01_1033	s	s	2	1	Capacity	32	ABS	0	0	1	3	24_1_3	NA	NA	0	1	3.62700891495	None	None	None	None	1
3.0.1	2019_Mar_01_1033	s	s	2	1	Capacity	33	1_1	1	1	1	3	23_1_3	0	2	1	0	0.940249919891	-11.0	-94.0	-17.0	-97.0	1
3.0.1	2019_Mar_01_1033	s	s	2	1	Capacity	34	ABS	0	0	1	2	24_1_2	NA	NA	0	1	9.47191095352	None	None	None	None	1
3.0.1	2019_Mar_01_1033	s	s	2	1	Capacity	35	1_4	1	4	1	1	23_1_1	0	3	1	0	1.29708600044	37.0	-147.0	40.0	-144.0	1
3.0.1	2019_Mar_01_1033	s	s	2	1	Capacity	36	1_3	1	3	1	1	23_1_1	0	2	1	0	1.35184216499	-302.0	-306.0	-302.0	-306.0	1
3.0.1	2019_Mar_01_1033	s	s	2	1	Capacity	37	ABS	0	0	1	4	24_1_4	NA	NA	0	1	3.6452870369	None	None	None	None	1
3.0.1	2019_Mar_01_1033	s	s	2	1	Capacity	38	1_1	1	1	1	4	23_1_4	0	3	1	0	0.568203926086	291.0	88.0	293.0	90.0	1
3.0.1	2019_Mar_01_1033	s	s	2	1	Capacity	39	1_2	1	2	1	4	23_1_4	0	2	1	0	0.673582077026	-69.0	168.0	-64.0	168.0	1
3.0.1	2019_Mar_01_1033	s	s	2	1	Capacity	40	ABS	0	0	1	2	24_1_2	NA	NA	0	1	6.90312218666	None	None	None	None	1
3.0.1	2019_Mar_01_1033	s	s	2	1	Capacity	41	ABS	0	0	1	4	24_1_4	NA	NA	0	1	5.02959799767	None	None	None	None	1
3.0.1	2019_Mar_01_1033	s	s	2	1	Capacity	42	ABS	0	0	1	1	24_1_1	NA	NA	0	1	5.68286514282	None	None	None	None	1
3.0.1	2019_Mar_01_1033	s	s	2	1	Capacity	43	1_2	1	2	1	3	23_1_3	0	1	1	0	0.957525968552	-381.0	-114.0	67.0	-60.0	0
3.0.1	2019_Mar_01_1033	s	s	2	1	Capacity	44	1_2	1	2	1	1	23_1_1	0	-1	0	1	3.26893806458	-344.0	180.0	None	None	0
3.0.1	2019_Mar_01_1033	s	s	2	1	Capacity	45	1_3	1	3	1	4	23_1_4	0	-1	1	0	1.01087093353	322.0	343.0	332.0	343.0	1
3.0.1	2019_Mar_01_1033	s	s	2	1	Capacity	46	ABS	0	0	1	1	24_1_1	NA	NA	0	1	2.00339198112	None	None	None	None	1
3.0.1	2019_Mar_01_1033	s	s	2	1	Capacity	47	1_3	1	3	1	2	23_1_2	0	1	1	0	0.775583028793	-21.0	227.0	-14.0	232.0	1
3.0.1	2019_Mar_01_1033	s	s	2	1	Capacity	48	ABS	0	0	1	4	24_1_4	NA	NA	0	1	3.28579282761	None	None	None	None	1
3.0.1	2019_Mar_01_1033	s	s	2	1	Capacity	49	ABS	0	0	1	4	24_1_4	NA	NA	0	1	2.77973794937	None	None	None	None	1
3.0.1	2019_Mar_01_1033	s	s	2	1	Capacity	50	ABS	0	0	1	4	24_1_4	NA	NA	0	1	1.65091991425	None	None	None	None	1
3.0.1	2019_Mar_01_1033	s	s	2	1	Capacity	51	ABS	0	0	1	1	24_1_1	NA	NA	0	1	2.63677978516	None	None	None	None	1
3.0.1	2019_Mar_01_1033	s	s	2	1	Capacity	52	1_2	1	2	1	3	23_1_3	0	1	1	0	4.32758402824	405.0	6.0	414.0	11.0	1
3.0.1	2019_Mar_01_1033	s	s	2	1	Capacity	53	ABS	0	0	1	3	24_1_3	NA	NA	0	1	6.14386892319	None	None	None	None	1
3.0.1	2019_Mar_01_1033	s	s	2	1	Capacity	54	1_3	1	3	1	4	23_1_4	0	-1	1	0	1.64591002464	-70.0	225.0	-74.0	231.0	1
3.0.1	2019_Mar_01_1033	s	s	2	1	Capacity	55	1_2	1	2	1	4	23_1_4	0	2	1	0	0.827526092529	-2.0	194.0	0.0	190.0	1
3.0.1	2019_Mar_01_1033	s	s	2	1	Capacity	56	1_4	1	4	1	3	23_1_3	0	1	1	0	1.42783117294	-177.0	-202.0	399.0	261.0	0
3.0.1	2019_Mar_01_1033	s	s	2	1	Capacity	57	ABS	0	0	1	2	24_1_2	NA	NA	0	1	8.85545921326	None	None	None	None	1
3.0.1	2019_Mar_01_1033	s	s	2	1	Capacity	58	ABS	0	0	1	3	24_1_3	NA	NA	1	0	1.98689818382	None	None	316.0	358.0	0
3.0.1	2019_Mar_01_1033	s	s	2	1	Capacity	59	ABS	0	0	1	2	24_1_2	NA	NA	0	1	8.17330312729	None	None	None	None	1
3.0.1	2019_Mar_01_1033	s	s	2	1	Capacity	60	1_1	1	1	1	2	23_1_2	0	1	1	0	3.67269182205	-159.0	49.0	-153.0	47.0	1
3.0.1	2019_Mar_01_1033	s	s	2	1	Capacity	61	ABS	0	0	1	1	24_1_1	NA	NA	0	1	2.97376084328	None	None	None	None	1
3.0.1	2019_Mar_01_1033	s	s	2	1	Capacity	62	ABS	0	0	1	1	24_1_1	NA	NA	0	1	3.43352413177	None	None	None	None	1
3.0.1	2019_Mar_01_1033	s	s	2	1	Capacity	63	ABS	0	0	1	4	24_1_4	NA	NA	0	1	3.36310386658	None	None	None	None	1
3.0.1	2019_Mar_01_1033	s	s	2	1	Capacity	64	1_1	1	1	1	4	23_1_4	0	3	1	0	0.559718132019	-203.0	-106.0	-202.0	-107.0	1
3.0.1	2019_Mar_01_1033	s	s	2	1	Capacity	65	1_2	1	2	1	1	23_1_1	0	-1	1	0	2.83382081985	460.0	-350.0	460.0	-351.0	1
3.0.1	2019_Mar_01_1033	s	s	2	1	Capacity	66	1_1	1	1	1	3	23_1_3	0	2	1	0	7.64909005165	-207.0	-381.0	-207.0	-381.0	1
3.0.1	2019_Mar_01_1033	s	s	2	1	Capacity	67	1_4	1	4	1	1	23_1_1	0	3	1	0	1.15811085701	-521.0	132.0	-513.0	136.0	1
3.0.1	2019_Mar_01_1033	s	s	2	1	Capacity	68	ABS	0	0	1	3	24_1_3	NA	NA	0	1	8.59673190117	None	None	None	None	1
3.0.1	2019_Mar_01_1033	s	s	2	1	Capacity	69	1_3	1	3	1	1	23_1_1	0	2	1	0	0.849054813385	-273.0	149.0	-271.0	149.0	1
3.0.1	2019_Mar_01_1033	s	s	2	1	Capacity	70	1_4	1	4	1	2	23_1_2	0	2	1	0	0.693217992783	-223.0	340.0	-225.0	336.0	1
3.0.1	2019_Mar_01_1033	s	s	2	1	Capacity	71	ABS	0	0	1	2	24_1_2	NA	NA	0	1	8.6556019783	None	None	None	None	1
3.0.1	2019_Mar_01_1033	s	s	2	1	Capacity	72	1_3	1	3	1	2	23_1_2	0	1	1	0	1.70508408546	-521.0	252.0	-526.0	252.0	1
3.0.1	2019_Mar_01_1033	s	s	2	1	Capacity	73	1_3	1	3	1	4	23_1_4	0	-1	1	0	1.59889292717	-65.0	46.0	-60.0	36.0	1
3.0.1	2019_Mar_01_1033	s	s	2	1	Capacity	74	ABS	0	0	1	4	24_1_4	NA	NA	0	1	2.0693500042	None	None	None	None	1
3.0.1	2019_Mar_01_1033	s	s	2	1	Capacity	75	1_1	1	1	1	2	23_1_2	0	1	1	0	3.61005115509	286.0	-66.0	290.0	-70.0	1
3.0.1	2019_Mar_01_1033	s	s	2	1	Capacity	76	ABS	0	0	1	2	24_1_2	NA	NA	0	1	4.50910687447	None	None	None	None	1
3.0.1	2019_Mar_01_1033	s	s	2	1	Capacity	77	ABS	0	0	1	1	24_1_1	NA	NA	0	1	3.6453101635	None	None	None	None	1
3.0.1	2019_Mar_01_1033	s	s	2	1	Capacity	78	1_2	1	2	1	3	23_1_3	0	1	1	0	2.79088711739	254.0	338.0	261.0	342.0	1
3.0.1	2019_Mar_01_1033	s	s	2	1	Capacity	79	1_1	1	1	1	4	23_1_4	0	3	1	0	0.991403102875	78.0	-382.0	74.0	-382.0	1
3.0.1	2019_Mar_01_1033	s	s	2	1	Capacity	80	ABS	0	0	1	4	24_1_4	NA	NA	0	1	1.59890294075	None	None	None	None	1
3.0.1	2019_Mar_01_1033	s	s	2	1	Capacity	81	1_3	1	3	1	2	23_1_2	0	1	1	0	1.46130990982	62.0	302.0	64.0	305.0	1
3.0.1	2019_Mar_01_1033	s	s	2	1	Capacity	82	1_4	1	4	1	2	23_1_2	0	2	1	0	1.41400194168	386.0	-48.0	392.0	-47.0	1
3.0.1	2019_Mar_01_1033	s	s	2	1	Capacity	83	ABS	0	0	1	4	24_1_4	NA	NA	0	1	1.57530903816	None	None	None	None	1
3.0.1	2019_Mar_01_1033	s	s	2	1	Capacity	84	ABS	0	0	1	3	24_1_3	NA	NA	0	1	9.97277092934	None	None	None	None	1
3.0.1	2019_Mar_01_1033	s	s	2	1	Capacity	85	ABS	0	0	1	3	24_1_3	NA	NA	0	1	7.91461896896	None	None	None	None	1
3.0.1	2019_Mar_01_1033	s	s	2	1	Capacity	86	1_1	1	1	1	3	23_1_3	0	2	1	0	1.14399003983	-337.0	173.0	-335.0	173.0	1
3.0.1	2019_Mar_01_1033	s	s	2	1	Capacity	87	1_3	1	3	1	1	23_1_1	0	2	1	0	1.19257712364	-337.0	-172.0	-344.0	-174.0	1
3.0.1	2019_Mar_01_1033	s	s	2	1	Capacity	88	1_2	1	2	1	1	23_1_1	0	-1	1	0	1.1802110672	-435.0	219.0	-438.0	217.0	1
3.0.1	2019_Mar_01_1033	s	s	2	1	Capacity	89	ABS	0	0	1	2	24_1_2	NA	NA	0	1	6.57385206223	None	None	None	None	1
3.0.1	2019_Mar_01_1033	s	s	2	1	Capacity	90	ABS	0	0	1	2	24_1_2	NA	NA	0	1	7.83726811409	None	None	None	None	1
3.0.1	2019_Mar_01_1033	s	s	2	1	Capacity	91	ABS	0	0	1	1	24_1_1	NA	NA	0	1	2.93971800804	None	None	None	None	1
3.0.1	2019_Mar_01_1033	s	s	2	1	Capacity	92	ABS	0	0	1	3	24_1_3	NA	NA	0	1	6.32685303688	None	None	None	None	1
3.0.1	2019_Mar_01_1033	s	s	2	1	Capacity	93	1_2	1	2	1	4	23_1_4	0	2	1	0	1.10489201546	-499.0	-178.0	-494.0	-179.0	1
3.0.1	2019_Mar_01_1033	s	s	2	1	Capacity	94	1_4	1	4	1	3	23_1_3	0	1	1	0	3.00250196457	36.0	280.0	32.0	274.0	1
3.0.1	2019_Mar_01_1033	s	s	2	1	Capacity	95	ABS	0	0	1	1	24_1_1	NA	NA	0	1	3.41013598442	None	None	None	None	1
3.0.1	2019_Mar_01_1033	s	s	2	1	Capacity	96	1_4	1	4	1	1	23_1_1	0	3	1	0	0.790342092514	428.0	-118.0	423.0	-120.0	1
3.0.1	2019_Mar_01_1033	s	s	2	1	SIC	1	ABS	0	0	4	3	24_4_3	NA	NA	0	1	4.86158585548	None	None	None	None	1
3.0.1	2019_Mar_01_1033	s	s	2	1	SIC	2	1_2	1	2	2	2	23_2_2	1	0	1	0	6.78554987907	-382.0	96.0	-378.0	99.0	1
3.0.1	2019_Mar_01_1033	s	s	2	1	SIC	3	4_1	4	1	3	1	23_3_1	1	0	1	0	0.672677993774	434.0	90.0	441.0	96.0	1
3.0.1	2019_Mar_01_1033	s	s	2	1	SIC	4	4_3	4	3	3	4	23_3_4	1	-1	1	0	0.575731039047	-295.0	63.0	-297.0	66.0	1
3.0.1	2019_Mar_01_1033	s	s	2	1	SIC	5	ABS	0	0	3	2	24_3_2	NA	NA	0	1	6.10334897041	None	None	None	None	1
3.0.1	2019_Mar_01_1033	s	s	2	1	SIC	6	ABS	0	0	3	3	24_3_3	NA	NA	0	1	3.9981648922	None	None	None	None	1
3.0.1	2019_Mar_01_1033	s	s	2	1	SIC	7	ABS	0	0	3	1	24_3_1	NA	NA	0	1	2.49792718887	None	None	None	None	1
3.0.1	2019_Mar_01_1033	s	s	2	1	SIC	8	ABS	0	0	1	1	24_1_1	NA	NA	0	1	3.16309404373	None	None	None	None	1
3.0.1	2019_Mar_01_1033	s	s	2	1	SIC	9	ABS	0	0	1	1	24_1_1	NA	NA	0	1	4.48028588295	None	None	None	None	1
3.0.1	2019_Mar_01_1033	s	s	2	1	SIC	10	ABS	0	0	3	4	24_3_4	NA	NA	0	1	3.40323781967	None	None	None	None	1
3.0.1	2019_Mar_01_1033	s	s	2	1	SIC	11	ABS	0	0	1	2	24_1_2	NA	NA	0	1	5.63286709785	None	None	None	None	1
3.0.1	2019_Mar_01_1033	s	s	2	1	SIC	12	ABS	0	0	3	2	24_3_2	NA	NA	0	1	7.7616751194	None	None	None	None	1
3.0.1	2019_Mar_01_1033	s	s	2	1	SIC	13	1_4	1	4	2	1	23_2_1	1	3	1	0	1.09600806236	97.0	-400.0	93.0	-399.0	1
3.0.1	2019_Mar_01_1033	s	s	2	1	SIC	14	ABS	0	0	2	2	24_2_2	NA	NA	0	1	6.85612392426	None	None	None	None	1
3.0.1	2019_Mar_01_1033	s	s	2	1	SIC	15	2_3	2	3	3	4	23_3_4	1	-1	1	0	0.687048912048	-307.0	-54.0	-314.0	-57.0	1
3.0.1	2019_Mar_01_1033	s	s	2	1	SIC	16	2_2	2	2	4	4	23_4_4	2	2	1	0	0.533890962601	437.0	-19.0	437.0	-22.0	1
3.0.1	2019_Mar_01_1033	s	s	2	1	SIC	17	2_1	2	1	1	2	23_1_2	-1	1	1	0	2.58673191071	-114.0	89.0	-115.0	92.0	1
3.0.1	2019_Mar_01_1033	s	s	2	1	SIC	18	ABS	0	0	3	4	24_3_4	NA	NA	0	1	3.56033301353	None	None	None	None	1
3.0.1	2019_Mar_01_1033	s	s	2	1	SIC	19	ABS	0	0	4	2	24_4_2	NA	NA	0	1	4.90661621094	None	None	None	None	1
3.0.1	2019_Mar_01_1033	s	s	2	1	SIC	20	ABS	0	0	1	3	24_1_3	NA	NA	0	1	7.27936887741	None	None	None	None	1
3.0.1	2019_Mar_01_1033	s	s	2	1	SIC	21	ABS	0	0	3	2	24_3_2	NA	NA	0	1	4.6920170784	None	None	None	None	1
3.0.1	2019_Mar_01_1033	s	s	2	1	SIC	22	ABS	0	0	1	1	24_1_1	NA	NA	0	1	4.67691707611	None	None	None	None	1
3.0.1	2019_Mar_01_1033	s	s	2	1	SIC	23	ABS	0	0	1	3	24_1_3	NA	NA	0	1	4.55381703377	None	None	None	None	1
3.0.1	2019_Mar_01_1033	s	s	2	1	SIC	24	4_1	4	1	4	4	23_4_4	0	3	1	0	0.672641038895	447.0	78.0	451.0	83.0	1
3.0.1	2019_Mar_01_1033	s	s	2	1	SIC	25	3_3	3	3	4	2	23_4_2	-1	1	1	0	0.603927135468	-291.0	41.0	-286.0	39.0	1
3.0.1	2019_Mar_01_1033	s	s	2	1	SIC	26	4_1	4	1	4	2	23_4_2	0	1	1	0	3.8481259346	273.0	300.0	273.0	310.0	1
3.0.1	2019_Mar_01_1033	s	s	2	1	SIC	27	ABS	0	0	1	4	24_1_4	NA	NA	0	1	3.02482199669	None	None	None	None	1
3.0.1	2019_Mar_01_1033	s	s	2	1	SIC	28	2_4	2	4	1	1	23_1_1	-1	3	1	0	1.12844896317	169.0	-286.0	165.0	-292.0	1
3.0.1	2019_Mar_01_1033	s	s	2	1	SIC	29	ABS	0	0	2	3	24_2_3	NA	NA	0	1	6.28261685371	None	None	None	None	1
3.0.1	2019_Mar_01_1033	s	s	2	1	SIC	30	4_2	4	2	3	3	23_3_3	1	1	1	0	0.581181049347	488.0	-167.0	495.0	-170.0	1
3.0.1	2019_Mar_01_1033	s	s	2	1	SIC	31	ABS	0	0	4	3	24_4_3	NA	NA	0	1	5.1036260128	None	None	None	None	1
3.0.1	2019_Mar_01_1033	s	s	2	1	SIC	32	ABS	0	0	4	1	24_4_1	NA	NA	0	1	3.72165083885	None	None	None	None	1
3.0.1	2019_Mar_01_1033	s	s	2	1	SIC	33	ABS	0	0	4	1	24_4_1	NA	NA	0	1	2.02518200874	None	None	None	None	1
3.0.1	2019_Mar_01_1033	s	s	2	1	SIC	34	ABS	0	0	2	1	24_2_1	NA	NA	0	1	3.86278104782	None	None	None	None	1
3.0.1	2019_Mar_01_1033	s	s	2	1	SIC	35	4_1	4	1	2	4	23_2_4	2	3	1	0	0.657911062241	413.0	291.0	420.0	290.0	1
3.0.1	2019_Mar_01_1033	s	s	2	1	SIC	36	2_1	2	1	4	3	23_4_3	2	2	1	0	0.575591802597	231.0	338.0	235.0	337.0	1
3.0.1	2019_Mar_01_1033	s	s	2	1	SIC	37	ABS	0	0	2	4	24_2_4	NA	NA	0	1	4.6138689518	None	None	None	None	1
3.0.1	2019_Mar_01_1033	s	s	2	1	SIC	38	4_3	4	3	1	2	23_1_2	3	1	1	0	0.778486013412	39.0	3.0	37.0	7.0	1
3.0.1	2019_Mar_01_1033	s	s	2	1	SIC	39	3_2	3	2	4	2	23_4_2	-1	0	1	0	0.528599023819	-449.0	-17.0	-451.0	-16.0	1
3.0.1	2019_Mar_01_1033	s	s	2	1	SIC	40	2_4	2	4	1	3	23_1_3	-1	1	1	0	1.14352202415	-407.0	-279.0	-405.0	-282.0	1
3.0.1	2019_Mar_01_1033	s	s	2	1	SIC	41	1_2	1	2	3	4	23_3_4	2	2	1	0	0.599205970764	468.0	228.0	467.0	230.0	1
3.0.1	2019_Mar_01_1033	s	s	2	1	SIC	42	2_2	2	2	4	1	23_4_1	2	-1	1	0	0.511085987091	-516.0	-41.0	-523.0	-37.0	1
3.0.1	2019_Mar_01_1033	s	s	2	1	SIC	43	ABS	0	0	1	1	24_1_1	NA	NA	0	1	3.48642683029	None	None	None	None	1
3.0.1	2019_Mar_01_1033	s	s	2	1	SIC	44	1_3	1	3	1	4	23_1_4	0	-1	1	0	0.664649963379	286.0	202.0	291.0	198.0	1
3.0.1	2019_Mar_01_1033	s	s	2	1	SIC	45	ABS	0	0	3	1	24_3_1	NA	NA	0	1	2.76832389832	None	None	None	None	1
3.0.1	2019_Mar_01_1033	s	s	2	1	SIC	46	4_3	4	3	3	2	23_3_2	1	1	1	0	0.517176866531	-7.0	228.0	-3.0	230.0	1
3.0.1	2019_Mar_01_1033	s	s	2	1	SIC	47	ABS	0	0	4	3	24_4_3	NA	NA	0	1	3.31926488876	None	None	None	None	1
3.0.1	2019_Mar_01_1033	s	s	2	1	SIC	48	3_4	3	4	2	4	23_2_4	1	0	1	0	1.71941184998	-496.0	8.0	-490.0	9.0	1
3.0.1	2019_Mar_01_1033	s	s	2	1	SIC	49	3_2	3	2	1	2	23_1_2	2	0	1	0	0.928372859955	451.0	-162.0	454.0	-159.0	1
3.0.1	2019_Mar_01_1033	s	s	2	1	SIC	50	ABS	0	0	2	3	24_2_3	NA	NA	0	1	3.55405211449	None	None	None	None	1
3.0.1	2019_Mar_01_1033	s	s	2	1	SIC	51	2_3	2	3	3	1	23_3_1	1	2	1	0	0.738596200943	-305.0	394.0	-306.0	397.0	1
3.0.1	2019_Mar_01_1033	s	s	2	1	SIC	52	4_3	4	3	4	4	23_4_4	0	-1	1	0	0.731451034546	-23.0	-23.0	-29.0	-18.0	1
3.0.1	2019_Mar_01_1033	s	s	2	1	SIC	53	ABS	0	0	1	3	24_1_3	NA	NA	0	1	4.44165802002	None	None	None	None	1
3.0.1	2019_Mar_01_1033	s	s	2	1	SIC	54	4_1	4	1	2	2	23_2_2	2	1	1	0	0.674787998199	-368.0	-389.0	-374.0	-392.0	1
3.0.1	2019_Mar_01_1033	s	s	2	1	SIC	55	1_3	1	3	2	2	23_2_2	1	1	0	1	4.50964903831	-161.0	87.0	None	None	0
3.0.1	2019_Mar_01_1033	s	s	2	1	SIC	56	4_2	4	2	3	1	23_3_1	1	-1	1	0	0.678735017776	80.0	-1.0	81.0	-1.0	1
3.0.1	2019_Mar_01_1033	s	s	2	1	SIC	57	4_1	4	1	3	2	23_3_2	1	1	1	0	0.581340074539	454.0	389.0	460.0	391.0	1
3.0.1	2019_Mar_01_1033	s	s	2	1	SIC	58	ABS	0	0	2	1	24_2_1	NA	NA	0	1	3.08382701874	None	None	None	None	1
3.0.1	2019_Mar_01_1033	s	s	2	1	SIC	59	2_2	2	2	4	2	23_4_2	2	0	1	0	0.580564975739	-80.0	124.0	-80.0	129.0	1
3.0.1	2019_Mar_01_1033	s	s	2	1	SIC	60	3_4	3	4	3	2	23_3_2	0	2	1	0	0.855700969696	-415.0	149.0	-411.0	157.0	1
3.0.1	2019_Mar_01_1033	s	s	2	1	SIC	61	ABS	0	0	3	4	24_3_4	NA	NA	0	1	3.07549905777	None	None	None	None	1
3.0.1	2019_Mar_01_1033	s	s	2	1	SIC	62	4_2	4	2	4	4	23_4_4	0	2	1	0	0.899570941925	406.0	354.0	407.0	354.0	1
3.0.1	2019_Mar_01_1033	s	s	2	1	SIC	63	ABS	0	0	2	4	24_2_4	NA	NA	0	1	3.14240217209	None	None	None	None	1
3.0.1	2019_Mar_01_1033	s	s	2	1	SIC	64	4_4	4	4	2	3	23_2_3	2	1	1	0	0.86257815361	246.0	-113.0	251.0	-113.0	1
3.0.1	2019_Mar_01_1033	s	s	2	1	SIC	65	ABS	0	0	2	4	24_2_4	NA	NA	0	1	2.83884978294	None	None	None	None	1
3.0.1	2019_Mar_01_1033	s	s	2	1	SIC	66	1_3	1	3	2	1	23_2_1	1	2	1	0	1.30784320831	408.0	93.0	408.0	95.0	1
3.0.1	2019_Mar_01_1033	s	s	2	1	SIC	67	2_1	2	1	2	3	23_2_3	0	2	1	0	0.827524900436	-260.0	266.0	-265.0	274.0	1
3.0.1	2019_Mar_01_1033	s	s	2	1	SIC	68	1_1	1	1	4	1	23_4_1	3	0	1	0	0.486328840256	-69.0	71.0	-68.0	76.0	1
3.0.1	2019_Mar_01_1033	s	s	2	1	SIC	69	ABS	0	0	4	2	24_4_2	NA	NA	0	1	5.06851792336	None	None	None	None	1
3.0.1	2019_Mar_01_1033	s	s	2	1	SIC	70	4_3	4	3	4	1	23_4_1	0	2	1	0	2.22218894958	-396.0	-292.0	-389.0	-289.0	1
3.0.1	2019_Mar_01_1033	s	s	2	1	SIC	71	ABS	0	0	1	4	24_1_4	NA	NA	0	1	4.95608711243	None	None	None	None	1
3.0.1	2019_Mar_01_1033	s	s	2	1	SIC	72	ABS	0	0	3	4	24_3_4	NA	NA	0	1	3.56296682358	None	None	None	None	1
3.0.1	2019_Mar_01_1033	s	s	2	1	SIC	73	ABS	0	0	4	1	24_4_1	NA	NA	0	1	3.61801600456	None	None	None	None	1
3.0.1	2019_Mar_01_1033	s	s	2	1	SIC	74	3_1	3	1	2	2	23_2_2	1	1	1	0	1.92814707756	361.0	-94.0	360.0	-85.0	1
3.0.1	2019_Mar_01_1033	s	s	2	1	SIC	75	2_1	2	1	2	4	23_2_4	0	3	1	0	0.84898686409	411.0	325.0	416.0	326.0	1
3.0.1	2019_Mar_01_1033	s	s	2	1	SIC	76	ABS	0	0	1	1	24_1_1	NA	NA	0	1	4.28077888489	None	None	None	None	1
3.0.1	2019_Mar_01_1033	s	s	2	1	SIC	77	3_3	3	3	1	2	23_1_2	2	1	1	0	0.721621990204	437.0	406.0	444.0	405.0	1
3.0.1	2019_Mar_01_1033	s	s	2	1	SIC	78	ABS	0	0	2	2	24_2_2	NA	NA	0	1	5.71521496773	None	None	None	None	1
3.0.1	2019_Mar_01_1033	s	s	2	1	SIC	79	ABS	0	0	3	3	24_3_3	NA	NA	0	1	7.85972499847	None	None	None	None	1
3.0.1	2019_Mar_01_1033	s	s	2	1	SIC	80	ABS	0	0	4	4	24_4_4	NA	NA	0	1	3.25134086609	None	None	None	None	1
3.0.1	2019_Mar_01_1033	s	s	2	1	SIC	81	4_4	4	4	3	2	23_3_2	1	2	1	0	0.634402990341	164.0	-399.0	158.0	-408.0	1
3.0.1	2019_Mar_01_1033	s	s	2	1	SIC	82	2_2	2	2	3	4	23_3_4	1	2	1	0	0.885962963104	-363.0	-128.0	-366.0	-126.0	1
3.0.1	2019_Mar_01_1033	s	s	2	1	SIC	83	ABS	0	0	4	1	24_4_1	NA	NA	0	1	2.56036186218	None	None	None	None	1
3.0.1	2019_Mar_01_1033	s	s	2	1	SIC	84	1_1	1	1	2	3	23_2_3	1	2	1	0	0.670120000839	-14.0	244.0	-10.0	248.0	1
3.0.1	2019_Mar_01_1033	s	s	2	1	SIC	85	ABS	0	0	2	3	24_2_3	NA	NA	0	1	4.42158889771	None	None	None	None	1
3.0.1	2019_Mar_01_1033	s	s	2	1	SIC	86	ABS	0	0	3	3	24_3_3	NA	NA	0	1	4.06145095825	None	None	None	None	1
3.0.1	2019_Mar_01_1033	s	s	2	1	SIC	87	ABS	0	0	3	1	24_3_1	NA	NA	0	1	3.82171583176	None	None	None	None	1
3.0.1	2019_Mar_01_1033	s	s	2	1	SIC	88	1_1	1	1	3	1	23_3_1	2	0	1	0	0.731703996658	474.0	327.0	474.0	320.0	1
3.0.1	2019_Mar_01_1033	s	s	2	1	SIC	89	ABS	0	0	3	4	24_3_4	NA	NA	0	1	2.30455803871	None	None	None	None	1
3.0.1	2019_Mar_01_1033	s	s	2	1	SIC	90	4_4	4	4	2	2	23_2_2	2	2	1	0	0.554988145828	224.0	260.0	223.0	261.0	1
3.0.1	2019_Mar_01_1033	s	s	2	1	SIC	91	4_1	4	1	2	1	23_2_1	2	0	1	0	0.51672911644	37.0	391.0	40.0	398.0	1
3.0.1	2019_Mar_01_1033	s	s	2	1	SIC	92	ABS	0	0	1	3	24_1_3	NA	NA	0	1	5.21422505379	None	None	None	None	1
3.0.1	2019_Mar_01_1033	s	s	2	1	SIC	93	1_4	1	4	1	1	23_1_1	0	3	1	0	0.796297073364	-522.0	-109.0	-526.0	-110.0	1
3.0.1	2019_Mar_01_1033	s	s	2	1	SIC	94	ABS	0	0	4	3	24_4_3	NA	NA	0	1	5.89664292336	None	None	None	None	1
3.0.1	2019_Mar_01_1033	s	s	2	1	SIC	95	ABS	0	0	4	1	24_4_1	NA	NA	0	1	3.59249401093	None	None	None	None	1
3.0.1	2019_Mar_01_1033	s	s	2	1	SIC	96	ABS	0	0	4	3	24_4_3	NA	NA	0	1	5.86806583405	None	None	None	None	1
3.0.1	2019_Mar_01_1033	s	s	2	1	SIC	97	ABS	0	0	2	2	24_2_2	NA	NA	0	1	5.31534981728	None	None	None	None	1
3.0.1	2019_Mar_01_1033	s	s	2	1	SIC	98	ABS	0	0	1	4	24_1_4	NA	NA	0	1	2.72799301147	None	None	None	None	1
3.0.1	2019_Mar_01_1033	s	s	2	1	SIC	99	1_2	1	2	2	4	23_2_4	1	2	1	0	0.958746910095	-299.0	-246.0	-298.0	-247.0	1
3.0.1	2019_Mar_01_1033	s	s	2	1	SIC	100	ABS	0	0	4	1	24_4_1	NA	NA	0	1	3.76745581627	None	None	None	None	1
3.0.1	2019_Mar_01_1033	s	s	2	1	SIC	101	ABS	0	0	1	4	24_1_4	NA	NA	0	1	5.58584308624	None	None	None	None	1
3.0.1	2019_Mar_01_1033	s	s	2	1	SIC	102	2_4	2	4	2	1	23_2_1	0	3	1	0	0.555277109146	-478.0	89.0	-475.0	93.0	1
3.0.1	2019_Mar_01_1033	s	s	2	1	SIC	103	ABS	0	0	1	3	24_1_3	NA	NA	0	1	3.61002182961	None	None	None	None	1
3.0.1	2019_Mar_01_1033	s	s	2	1	SIC	104	ABS	0	0	3	2	24_3_2	NA	NA	0	1	4.97430300713	None	None	None	None	1
3.0.1	2019_Mar_01_1033	s	s	2	1	SIC	105	ABS	0	0	1	3	24_1_3	NA	NA	0	1	3.12780404091	None	None	None	None	1
3.0.1	2019_Mar_01_1033	s	s	2	1	SIC	106	ABS	0	0	4	2	24_4_2	NA	NA	0	1	3.05037808418	None	None	None	None	1
3.0.1	2019_Mar_01_1033	s	s	2	1	SIC	107	ABS	0	0	2	4	24_2_4	NA	NA	0	1	2.64908981323	None	None	None	None	1
3.0.1	2019_Mar_01_1033	s	s	2	1	SIC	108	ABS	0	0	2	2	24_2_2	NA	NA	0	1	4.3820669651	None	None	None	None	1
3.0.1	2019_Mar_01_1033	s	s	2	1	SIC	109	2_1	2	1	3	2	23_3_2	1	1	1	0	2.30453300476	208.0	-321.0	200.0	-312.0	1
3.0.1	2019_Mar_01_1033	s	s	2	1	SIC	110	2_3	2	3	4	1	23_4_1	2	2	1	0	0.6226811409	-144.0	371.0	-147.0	370.0	1
3.0.1	2019_Mar_01_1033	s	s	2	1	SIC	111	ABS	0	0	4	2	24_4_2	NA	NA	0	1	6.54514789581	None	None	None	None	1
3.0.1	2019_Mar_01_1033	s	s	2	1	SIC	112	1_1	1	1	1	4	23_1_4	0	3	1	0	0.869652032852	-417.0	-220.0	-417.0	-218.0	1
3.0.1	2019_Mar_01_1033	s	s	2	1	SIC	113	ABS	0	0	2	3	24_2_3	NA	NA	0	1	4.19135594368	None	None	None	None	1
3.0.1	2019_Mar_01_1033	s	s	2	1	SIC	114	1_4	1	4	4	2	23_4_2	3	2	1	0	0.488111019135	-388.0	-46.0	-392.0	-43.0	1
3.0.1	2019_Mar_01_1033	s	s	2	1	SIC	115	3_4	3	4	4	4	23_4_4	-1	0	1	0	0.66291809082	454.0	-119.0	451.0	-117.0	1
3.0.1	2019_Mar_01_1033	s	s	2	1	SIC	116	ABS	0	0	3	2	24_3_2	NA	NA	0	1	6.48364019394	None	None	None	None	1
3.0.1	2019_Mar_01_1033	s	s	2	1	SIC	117	3_1	3	1	1	3	23_1_3	2	2	1	0	0.587397098541	187.0	1.0	187.0	1.0	1
3.0.1	2019_Mar_01_1033	s	s	2	1	SIC	118	4_3	4	3	3	1	23_3_1	1	2	1	0	0.516798973083	323.0	285.0	325.0	281.0	1
3.0.1	2019_Mar_01_1033	s	s	2	1	SIC	119	ABS	0	0	4	1	24_4_1	NA	NA	0	1	3.67170190811	None	None	None	None	1
3.0.1	2019_Mar_01_1033	s	s	2	1	SIC	120	3_4	3	4	3	3	23_3_3	0	1	1	0	1.48165917397	-113.0	-385.0	-122.0	-383.0	1
3.0.1	2019_Mar_01_1033	s	s	2	1	SIC	121	4_1	4	1	3	3	23_3_3	1	2	1	0	0.540367841721	-42.0	-366.0	-46.0	-367.0	1
3.0.1	2019_Mar_01_1033	s	s	2	1	SIC	122	3_3	3	3	3	4	23_3_4	0	-1	1	0	1.15204286575	156.0	-382.0	163.0	-382.0	1
3.0.1	2019_Mar_01_1033	s	s	2	1	SIC	123	3_4	3	4	4	2	23_4_2	-1	2	1	0	0.496238946915	292.0	-187.0	293.0	-194.0	1
3.0.1	2019_Mar_01_1033	s	s	2	1	SIC	124	ABS	0	0	4	3	24_4_3	NA	NA	0	1	4.52738618851	None	None	None	None	1
3.0.1	2019_Mar_01_1033	s	s	2	1	SIC	125	3_4	3	4	1	3	23_1_3	2	1	1	0	0.646236181259	-44.0	-223.0	-43.0	-224.0	1
3.0.1	2019_Mar_01_1033	s	s	2	1	SIC	126	ABS	0	0	3	2	24_3_2	NA	NA	0	1	4.18631601334	None	None	None	None	1
3.0.1	2019_Mar_01_1033	s	s	2	1	SIC	127	ABS	0	0	3	1	24_3_1	NA	NA	0	1	3.32464003563	None	None	None	None	1
3.0.1	2019_Mar_01_1033	s	s	2	1	SIC	128	ABS	0	0	4	2	24_4_2	NA	NA	0	1	2.90725493431	None	None	None	None	1
3.0.1	2019_Mar_01_1033	s	s	2	1	SIC	129	ABS	0	0	2	3	24_2_3	NA	NA	0	1	2.59853315353	None	None	None	None	1
3.0.1	2019_Mar_01_1033	s	s	2	1	SIC	130	ABS	0	0	4	2	24_4_2	NA	NA	0	1	3.22479605675	None	None	None	None	1
3.0.1	2019_Mar_01_1033	s	s	2	1	SIC	131	ABS	0	0	2	4	24_2_4	NA	NA	0	1	3.58644390106	None	None	None	None	1
3.0.1	2019_Mar_01_1033	s	s	2	1	SIC	132	2_3	2	3	3	2	23_3_2	1	1	1	0	0.780827045441	-55.0	383.0	-54.0	383.0	1
3.0.1	2019_Mar_01_1033	s	s	2	1	SIC	133	4_2	4	2	1	3	23_1_3	3	1	1	0	0.44237780571	-479.0	46.0	-486.0	44.0	1
3.0.1	2019_Mar_01_1033	s	s	2	1	SIC	134	1_3	1	3	4	4	23_4_4	3	-1	1	0	0.416079998016	297.0	383.0	304.0	383.0	1
3.0.1	2019_Mar_01_1033	s	s	2	1	SIC	135	ABS	0	0	3	4	24_3_4	NA	NA	0	1	1.53276395798	None	None	None	None	1
3.0.1	2019_Mar_01_1033	s	s	2	1	SIC	136	ABS	0	0	1	2	24_1_2	NA	NA	0	1	4.99779987335	None	None	None	None	1
3.0.1	2019_Mar_01_1033	s	s	2	1	SIC	137	ABS	0	0	4	2	24_4_2	NA	NA	0	1	2.49576807022	None	None	None	None	1
3.0.1	2019_Mar_01_1033	s	s	2	1	SIC	138	3_1	3	1	3	2	23_3_2	0	1	1	0	3.33945393562	-194.0	-79.0	-185.0	-82.0	1
3.0.1	2019_Mar_01_1033	s	s	2	1	SIC	139	3_4	3	4	4	1	23_4_1	-1	3	1	0	0.621672868729	-17.0	382.0	-10.0	386.0	1
3.0.1	2019_Mar_01_1033	s	s	2	1	SIC	140	ABS	0	0	3	1	24_3_1	NA	NA	0	1	4.42156791687	None	None	None	None	1
3.0.1	2019_Mar_01_1033	s	s	2	1	SIC	141	ABS	0	0	4	4	24_4_4	NA	NA	0	1	1.66282081604	None	None	None	None	1
3.0.1	2019_Mar_01_1033	s	s	2	1	SIC	142	ABS	0	0	4	2	24_4_2	NA	NA	0	1	5.70355296135	None	None	None	None	1
3.0.1	2019_Mar_01_1033	s	s	2	1	SIC	143	1_1	1	1	4	2	23_4_2	3	1	1	0	0.500936985016	-41.0	302.0	-38.0	304.0	1
3.0.1	2019_Mar_01_1033	s	s	2	1	SIC	144	1_4	1	4	1	3	23_1_3	0	1	1	0	0.881349802017	168.0	230.0	170.0	236.0	1
3.0.1	2019_Mar_01_1033	s	s	2	1	SIC	145	4_4	4	4	4	3	23_4_3	0	1	1	0	1.20440578461	146.0	-189.0	141.0	-189.0	1
3.0.1	2019_Mar_01_1033	s	s	2	1	SIC	146	ABS	0	0	1	4	24_1_4	NA	NA	0	1	3.01024103165	None	None	None	None	1
3.0.1	2019_Mar_01_1033	s	s	2	1	SIC	147	3_1	3	1	3	3	23_3_3	0	2	1	0	0.896185159683	537.0	144.0	533.0	143.0	1
3.0.1	2019_Mar_01_1033	s	s	2	1	SIC	148	ABS	0	0	1	4	24_1_4	NA	NA	0	1	1.73115611076	None	None	None	None	1
3.0.1	2019_Mar_01_1033	s	s	2	1	SIC	149	2_2	2	2	1	1	23_1_1	-1	-1	1	0	2.06924390793	520.0	6.0	525.0	5.0	1
3.0.1	2019_Mar_01_1033	s	s	2	1	SIC	150	ABS	0	0	1	4	24_1_4	NA	NA	0	1	2.13467693329	None	None	None	None	1
3.0.1	2019_Mar_01_1033	s	s	2	1	SIC	151	ABS	0	0	4	4	24_4_4	NA	NA	0	1	2.30951714516	None	None	None	None	1
3.0.1	2019_Mar_01_1033	s	s	2	1	SIC	152	2_2	2	2	2	1	23_2_1	0	-1	1	0	3.26578712463	-456.0	-396.0	-454.0	-396.0	1
3.0.1	2019_Mar_01_1033	s	s	2	1	SIC	153	4_2	4	2	1	1	23_1_1	3	-1	1	0	0.486896038055	202.0	-202.0	206.0	-205.0	1
3.0.1	2019_Mar_01_1033	s	s	2	1	SIC	154	1_1	1	1	3	3	23_3_3	2	2	1	0	0.457954883575	-94.0	-36.0	-96.0	-38.0	1
3.0.1	2019_Mar_01_1033	s	s	2	1	SIC	155	ABS	0	0	4	1	24_4_1	NA	NA	0	1	2.96601605415	None	None	None	None	1
3.0.1	2019_Mar_01_1033	s	s	2	1	SIC	156	ABS	0	0	1	1	24_1_1	NA	NA	0	1	4.13229393959	None	None	None	None	1
3.0.1	2019_Mar_01_1033	s	s	2	1	SIC	157	2_3	2	3	1	3	23_1_3	-1	0	0	1	4.33918905258	-201.0	21.0	None	None	0
3.0.1	2019_Mar_01_1033	s	s	2	1	SIC	158	4_2	4	2	2	1	23_2_1	2	-1	1	0	0.545336961746	434.0	-366.0	432.0	-368.0	1
3.0.1	2019_Mar_01_1033	s	s	2	1	SIC	159	3_1	3	1	1	4	23_1_4	2	3	1	0	0.404331922531	196.0	-76.0	192.0	-79.0	1
3.0.1	2019_Mar_01_1033	s	s	2	1	SIC	160	ABS	0	0	1	2	24_1_2	NA	NA	0	1	4.56559705734	None	None	None	None	1
3.0.1	2019_Mar_01_1033	s	s	2	1	SIC	161	ABS	0	0	1	4	24_1_4	NA	NA	0	1	1.99880695343	None	None	None	None	1
3.0.1	2019_Mar_01_1033	s	s	2	1	SIC	162	ABS	0	0	2	2	24_2_2	NA	NA	0	1	3.75112891197	None	None	None	None	1
3.0.1	2019_Mar_01_1033	s	s	2	1	SIC	163	ABS	0	0	2	1	24_2_1	NA	NA	0	1	1.77518010139	None	None	None	None	1
3.0.1	2019_Mar_01_1033	s	s	2	1	SIC	164	ABS	0	0	1	2	24_1_2	NA	NA	0	1	4.09225082397	None	None	None	None	1
3.0.1	2019_Mar_01_1033	s	s	2	1	SIC	165	ABS	0	0	4	3	24_4_3	NA	NA	0	1	3.0394551754	None	None	None	None	1
3.0.1	2019_Mar_01_1033	s	s	2	1	SIC	166	ABS	0	0	3	2	24_3_2	NA	NA	0	1	4.69698309898	None	None	None	None	1
3.0.1	2019_Mar_01_1033	s	s	2	1	SIC	167	ABS	0	0	3	3	24_3_3	NA	NA	0	1	4.25037479401	None	None	None	None	1
3.0.1	2019_Mar_01_1033	s	s	2	1	SIC	168	ABS	0	0	3	1	24_3_1	NA	NA	0	1	3.79454684258	None	None	None	None	1
3.0.1	2019_Mar_01_1033	s	s	2	1	SIC	169	4_4	4	4	1	3	23_1_3	3	1	1	0	0.540426969528	-8.0	376.0	-4.0	380.0	1
3.0.1	2019_Mar_01_1033	s	s	2	1	SIC	170	1_4	1	4	2	3	23_2_3	1	1	1	0	0.686990976334	85.0	396.0	89.0	394.0	1
3.0.1	2019_Mar_01_1033	s	s	2	1	SIC	171	ABS	0	0	2	4	24_2_4	NA	NA	0	1	1.44598579407	None	None	None	None	1
3.0.1	2019_Mar_01_1033	s	s	2	1	SIC	172	ABS	0	0	1	3	24_1_3	NA	NA	0	1	4.39802312851	None	None	None	None	1
3.0.1	2019_Mar_01_1033	s	s	2	1	SIC	173	ABS	0	0	3	2	24_3_2	NA	NA	0	1	5.03015995026	None	None	None	None	1
3.0.1	2019_Mar_01_1033	s	s	2	1	SIC	174	ABS	0	0	1	4	24_1_4	NA	NA	0	1	1.79879403114	None	None	None	None	1
3.0.1	2019_Mar_01_1033	s	s	2	1	SIC	175	ABS	0	0	2	1	24_2_1	NA	NA	0	1	3.04550909996	None	None	None	None	1
3.0.1	2019_Mar_01_1033	s	s	2	1	SIC	176	3_4	3	4	3	1	23_3_1	0	3	1	0	0.752032995224	-493.0	389.0	-500.0	386.0	1
3.0.1	2019_Mar_01_1033	s	s	2	1	SIC	177	4_3	4	3	2	1	23_2_1	2	2	1	0	0.560047149658	-170.0	-297.0	-168.0	-297.0	1
3.0.1	2019_Mar_01_1033	s	s	2	1	SIC	178	ABS	0	0	1	1	24_1_1	NA	NA	0	1	1.36693906784	None	None	None	None	1
3.0.1	2019_Mar_01_1033	s	s	2	1	SIC	179	2_2	2	2	1	4	23_1_4	-1	2	1	0	0.555010080338	-312.0	250.0	-315.0	249.0	1
3.0.1	2019_Mar_01_1033	s	s	2	1	SIC	180	2_1	2	1	2	2	23_2_2	0	1	1	0	3.62174892426	-454.0	-219.0	-453.0	-220.0	1
3.0.1	2019_Mar_01_1033	s	s	2	1	SIC	181	4_2	4	2	4	3	23_4_3	0	1	1	0	4.06875514984	-265.0	286.0	-264.0	292.0	1
3.0.1	2019_Mar_01_1033	s	s	2	1	SIC	182	1_1	1	1	4	4	23_4_4	3	3	1	0	0.509944200516	-295.0	338.0	-296.0	334.0	1
3.0.1	2019_Mar_01_1033	s	s	2	1	SIC	183	1_1	1	1	4	3	23_4_3	3	2	1	0	0.399219036102	318.0	100.0	322.0	95.0	1
3.0.1	2019_Mar_01_1033	s	s	2	1	SIC	184	2_1	2	1	1	4	23_1_4	-1	3	1	0	0.505089998245	-332.0	-63.0	-325.0	-61.0	1
3.0.1	2019_Mar_01_1033	s	s	2	1	SIC	185	ABS	0	0	1	1	24_1_1	NA	NA	0	1	5.22627282143	None	None	None	None	1
3.0.1	2019_Mar_01_1033	s	s	2	1	SIC	186	ABS	0	0	3	3	24_3_3	NA	NA	0	1	4.48075795174	None	None	None	None	1
3.0.1	2019_Mar_01_1033	s	s	2	1	SIC	187	1_3	1	3	4	1	23_4_1	3	2	1	0	0.519595861435	13.0	-292.0	12.0	-296.0	1
3.0.1	2019_Mar_01_1033	s	s	2	1	SIC	188	4_2	4	2	2	4	23_2_4	2	2	1	0	0.451390981674	398.0	-51.0	394.0	-55.0	1
3.0.1	2019_Mar_01_1033	s	s	2	1	SIC	189	4_4	4	4	1	2	23_1_2	3	2	1	0	0.42277097702	-254.0	368.0	-250.0	361.0	1
3.0.1	2019_Mar_01_1033	s	s	2	1	SIC	190	1_2	1	2	4	4	23_4_4	3	2	1	0	0.434581041336	145.0	336.0	152.0	339.0	1
3.0.1	2019_Mar_01_1033	s	s	2	1	SIC	191	1_4	1	4	4	4	23_4_4	3	0	1	0	0.446280002594	124.0	-121.0	114.0	-119.0	1
3.0.1	2019_Mar_01_1033	s	s	2	1	SIC	192	ABS	0	0	3	1	24_3_1	NA	NA	0	1	3.78635001183	None	None	None	None	1
3.0.1	2019_Mar_01_1033	s	s	2	1	SIC	193	ABS	0	0	3	1	24_3_1	NA	NA	0	1	2.58685421944	None	None	None	None	1
3.0.1	2019_Mar_01_1033	s	s	2	1	SIC	194	ABS	0	0	4	3	24_4_3	NA	NA	0	1	2.67561888695	None	None	None	None	1
3.0.1	2019_Mar_01_1033	s	s	2	1	SIC	195	ABS	0	0	2	3	24_2_3	NA	NA	0	1	3.20619606972	None	None	None	None	1
3.0.1	2019_Mar_01_1033	s	s	2	1	SIC	196	1_3	1	3	2	3	23_2_3	1	0	0	1	2.59139108658	146.0	99.0	None	None	0
3.0.1	2019_Mar_01_1033	s	s	2	1	SIC	197	3_4	3	4	1	1	23_1_1	2	3	1	0	1.28125	464.0	-113.0	470.0	-114.0	1
3.0.1	2019_Mar_01_1033	s	s	2	1	SIC	198	1_3	1	3	4	2	23_4_2	3	1	1	0	0.43744301796	80.0	-88.0	77.0	-84.0	1
3.0.1	2019_Mar_01_1033	s	s	2	1	SIC	199	3_2	3	2	1	3	23_1_3	2	1	1	0	0.540375947952	-409.0	91.0	-401.0	88.0	1
3.0.1	2019_Mar_01_1033	s	s	2	1	SIC	200	ABS	0	0	4	4	24_4_4	NA	NA	0	1	1.20190906525	None	None	None	None	1
3.0.1	2019_Mar_01_1033	s	s	2	1	SIC	201	2_3	2	3	2	1	23_2_1	0	2	1	0	1.18726301193	-102.0	313.0	-104.0	311.0	1
3.0.1	2019_Mar_01_1033	s	s	2	1	SIC	202	ABS	0	0	2	4	24_2_4	NA	NA	0	1	2.28092288971	None	None	None	None	1
3.0.1	2019_Mar_01_1033	s	s	2	1	SIC	203	ABS	0	0	2	2	24_2_2	NA	NA	0	1	3.88054895401	None	None	None	None	1
3.0.1	2019_Mar_01_1033	s	s	2	1	SIC	204	ABS	0	0	3	4	24_3_4	NA	NA	0	1	1.72168707848	None	None	None	None	1
3.0.1	2019_Mar_01_1033	s	s	2	1	SIC	205	1_4	1	4	3	1	23_3_1	2	3	1	0	0.510140180588	-44.0	-64.0	-36.0	-60.0	1
3.0.1	2019_Mar_01_1033	s	s	2	1	SIC	206	ABS	0	0	1	2	24_1_2	NA	NA	0	1	3.77464795113	None	None	None	None	1
3.0.1	2019_Mar_01_1033	s	s	2	1	SIC	207	4_1	4	1	2	3	23_2_3	2	2	1	0	0.38390994072	369.0	-80.0	366.0	-78.0	1
3.0.1	2019_Mar_01_1033	s	s	2	1	SIC	208	3_4	3	4	1	2	23_1_2	2	2	1	0	0.516861915588	534.0	176.0	529.0	180.0	1
3.0.1	2019_Mar_01_1033	s	s	2	1	SIC	209	ABS	0	0	2	3	24_2_3	NA	NA	0	1	4.14213895798	None	None	None	None	1
3.0.1	2019_Mar_01_1033	s	s	2	1	SIC	210	4_1	4	1	1	2	23_1_2	3	1	1	0	0.437783002853	534.0	-391.0	539.0	-390.0	1
3.0.1	2019_Mar_01_1033	s	s	2	1	SIC	211	3_4	3	4	2	1	23_2_1	1	3	1	0	0.516876935959	-276.0	11.0	-267.0	18.0	1
3.0.1	2019_Mar_01_1033	s	s	2	1	SIC	212	2_3	2	3	4	3	23_4_3	2	0	1	0	0.422811985016	-10.0	388.0	-18.0	394.0	1
3.0.1	2019_Mar_01_1033	s	s	2	1	SIC	213	1_3	1	3	3	2	23_3_2	2	1	1	0	0.587371826172	77.0	321.0	74.0	324.0	1
3.0.1	2019_Mar_01_1033	s	s	2	1	SIC	214	3_2	3	2	2	2	23_2_2	1	0	1	0	0.528575181961	453.0	167.0	457.0	168.0	1
3.0.1	2019_Mar_01_1033	s	s	2	1	SIC	215	ABS	0	0	2	2	24_2_2	NA	NA	0	1	2.43681001663	None	None	None	None	1
3.0.1	2019_Mar_01_1033	s	s	2	1	SIC	216	ABS	0	0	1	2	24_1_2	NA	NA	0	1	4.22159004211	None	None	None	None	1
3.0.1	2019_Mar_01_1033	s	s	2	1	SIC	217	ABS	0	0	1	1	24_1_1	NA	NA	0	1	4.28034996986	None	None	None	None	1
3.0.1	2019_Mar_01_1033	s	s	2	1	SIC	218	ABS	0	0	1	3	24_1_3	NA	NA	0	1	3.34440803528	None	None	None	None	1
3.0.1	2019_Mar_01_1033	s	s	2	1	SIC	219	3_3	3	3	1	1	23_1_1	2	2	1	0	1.32536101341	294.0	-317.0	300.0	-321.0	1
3.0.1	2019_Mar_01_1033	s	s	2	1	SIC	220	3_3	3	3	2	2	23_2_2	1	1	1	0	0.486509799957	-116.0	-234.0	-122.0	-243.0	1
3.0.1	2019_Mar_01_1033	s	s	2	1	SIC	221	3_2	3	2	1	1	23_1_1	2	-1	1	0	0.521564006805	148.0	-146.0	148.0	-153.0	1
3.0.1	2019_Mar_01_1033	s	s	2	1	SIC	222	4_2	4	2	3	4	23_3_4	1	2	1	0	0.486367940903	430.0	-14.0	434.0	-8.0	1
3.0.1	2019_Mar_01_1033	s	s	2	1	SIC	223	ABS	0	0	2	1	24_2_1	NA	NA	0	1	2.77505707741	None	None	None	None	1
3.0.1	2019_Mar_01_1033	s	s	2	1	SIC	224	ABS	0	0	4	3	24_4_3	NA	NA	0	1	2.60313177109	None	None	None	None	1
3.0.1	2019_Mar_01_1033	s	s	2	1	SIC	225	1_1	1	1	3	2	23_3_2	2	1	1	0	0.489554166794	234.0	-242.0	235.0	-235.0	1
3.0.1	2019_Mar_01_1033	s	s	2	1	SIC	226	ABS	0	0	2	1	24_2_1	NA	NA	0	1	3.11610078812	None	None	None	None	1
3.0.1	2019_Mar_01_1033	s	s	2	1	SIC	227	ABS	0	0	3	1	24_3_1	NA	NA	0	1	1.28130197525	None	None	None	None	1
3.0.1	2019_Mar_01_1033	s	s	2	1	SIC	228	3_1	3	1	4	3	23_4_3	-1	2	1	0	0.505094051361	424.0	-293.0	426.0	-291.0	1
3.0.1	2019_Mar_01_1033	s	s	2	1	SIC	229	2_3	2	3	4	2	23_4_2	2	1	1	0	0.486729860306	-55.0	-314.0	-61.0	-314.0	1
3.0.1	2019_Mar_01_1033	s	s	2	1	SIC	230	3_3	3	3	2	4	23_2_4	1	-1	1	0	0.555016994476	-464.0	-6.0	-463.0	-4.0	1
3.0.1	2019_Mar_01_1033	s	s	2	1	SIC	231	2_2	2	2	3	2	23_3_2	1	0	1	0	2.05751109123	516.0	256.0	517.0	257.0	1
3.0.1	2019_Mar_01_1033	s	s	2	1	SIC	232	1_3	1	3	2	4	23_2_4	1	-1	1	0	0.681458950043	124.0	310.0	125.0	311.0	1
3.0.1	2019_Mar_01_1033	s	s	2	1	SIC	233	ABS	0	0	3	3	24_3_3	NA	NA	0	1	1.98013997078	None	None	None	None	1
3.0.1	2019_Mar_01_1033	s	s	2	1	SIC	234	ABS	0	0	3	4	24_3_4	NA	NA	0	1	0.973044157028	None	None	None	None	1
3.0.1	2019_Mar_01_1033	s	s	2	1	SIC	235	2_4	2	4	4	1	23_4_1	2	3	1	0	0.446285009384	-355.0	64.0	-350.0	61.0	1
3.0.1	2019_Mar_01_1033	s	s	2	1	SIC	236	ABS	0	0	2	3	24_2_3	NA	NA	0	1	2.66918182373	None	None	None	None	1
3.0.1	2019_Mar_01_1033	s	s	2	1	SIC	237	ABS	0	0	2	4	24_2_4	NA	NA	0	1	0.82253909111	None	None	None	None	1
3.0.1	2019_Mar_01_1033	s	s	2	1	SIC	238	ABS	0	0	4	4	24_4_4	NA	NA	0	1	0.966666936874	None	None	None	None	1
3.0.1	2019_Mar_01_1033	s	s	2	1	SIC	239	ABS	0	0	3	3	24_3_3	NA	NA	0	1	1.01469111443	None	None	None	None	1
3.0.1	2019_Mar_01_1033	s	s	2	1	SIC	240	3_1	3	1	1	2	23_1_2	2	1	1	0	0.587423086166	-38.0	232.0	-44.0	232.0	1
3.0.1	2019_Mar_01_1033	s	s	2	1	SIC	241	ABS	0	0	3	3	24_3_3	NA	NA	0	1	1.5988368988	None	None	None	None	1
3.0.1	2019_Mar_01_1033	s	s	2	1	SIC	242	4_3	4	3	1	3	23_1_3	3	0	1	0	0.437331914902	296.0	-187.0	297.0	-189.0	1
3.0.1	2019_Mar_01_1033	s	s	2	1	SIC	243	ABS	0	0	4	1	24_4_1	NA	NA	0	1	3.43653106689	None	None	None	None	1
3.0.1	2019_Mar_01_1033	s	s	2	1	SIC	244	4_4	4	4	4	1	23_4_1	0	3	1	0	0.602100133896	152.0	132.0	149.0	127.0	1
3.0.1	2019_Mar_01_1033	s	s	2	1	SIC	245	ABS	0	0	3	3	24_3_3	NA	NA	0	1	1.44339299202	None	None	None	None	1
3.0.1	2019_Mar_01_1033	s	s	2	1	SIC	246	ABS	0	0	2	2	24_2_2	NA	NA	0	1	2.30989003181	None	None	None	None	1
3.0.1	2019_Mar_01_1033	s	s	2	1	SIC	247	ABS	0	0	2	4	24_2_4	NA	NA	0	1	1.45768404007	None	None	None	None	1
3.0.1	2019_Mar_01_1033	s	s	2	1	SIC	248	4_4	4	4	2	4	23_2_4	2	0	1	0	0.48154091835	-333.0	28.0	-335.0	34.0	1
3.0.1	2019_Mar_01_1033	s	s	2	1	SIC	249	ABS	0	0	1	3	24_1_3	NA	NA	0	1	3.82640790939	None	None	None	None	1
3.0.1	2019_Mar_01_1033	s	s	2	1	SIC	250	ABS	0	0	2	2	24_2_2	NA	NA	0	1	2.79873800278	None	None	None	None	1
3.0.1	2019_Mar_01_1033	s	s	2	1	SIC	251	ABS	0	0	1	4	24_1_4	NA	NA	0	1	1.38351202011	None	None	None	None	1
3.0.1	2019_Mar_01_1033	s	s	2	1	SIC	252	ABS	0	0	4	3	24_4_3	NA	NA	0	1	2.97131109238	None	None	None	None	1
3.0.1	2019_Mar_01_1033	s	s	2	1	SIC	253	ABS	0	0	2	3	24_2_3	NA	NA	0	1	2.58680796623	None	None	None	None	1
3.0.1	2019_Mar_01_1033	s	s	2	1	SIC	254	ABS	0	0	3	1	24_3_1	NA	NA	0	1	2.45741915703	None	None	None	None	1
3.0.1	2019_Mar_01_1033	s	s	2	1	SIC	255	3_4	3	4	4	3	23_4_3	-1	1	1	0	0.580786943436	-332.0	-186.0	-327.0	-182.0	1
3.0.1	2019_Mar_01_1033	s	s	2	1	SIC	256	ABS	0	0	4	4	24_4_4	NA	NA	0	1	2.50933098793	None	None	None	None	1
3.0.1	2019_Mar_01_1033	s	s	2	1	SIC	257	4_2	4	2	2	3	23_2_3	2	1	1	0	0.500165939331	284.0	-180.0	280.0	-171.0	1
3.0.1	2019_Mar_01_1033	s	s	2	1	SIC	258	3_2	3	2	2	4	23_2_4	1	2	1	0	1.22246313095	-447.0	-344.0	-439.0	-344.0	1
3.0.1	2019_Mar_01_1033	s	s	2	1	SIC	259	ABS	0	0	2	2	24_2_2	NA	NA	0	1	2.951420784	None	None	None	None	1
3.0.1	2019_Mar_01_1033	s	s	2	1	SIC	260	2_4	2	4	3	1	23_3_1	1	3	1	0	0.550894975662	-360.0	-139.0	-362.0	-135.0	1
3.0.1	2019_Mar_01_1033	s	s	2	1	SIC	261	4_4	4	4	1	4	23_1_4	3	0	1	0	0.473872184753	118.0	-237.0	114.0	-238.0	1
3.0.1	2019_Mar_01_1033	s	s	2	1	SIC	262	ABS	0	0	4	2	24_4_2	NA	NA	0	1	1.6723139286	None	None	None	None	1
3.0.1	2019_Mar_01_1033	s	s	2	1	SIC	263	3_2	3	2	2	3	23_2_3	1	1	1	0	0.966611862183	370.0	-130.0	363.0	-127.0	1
3.0.1	2019_Mar_01_1033	s	s	2	1	SIC	264	4_4	4	4	3	4	23_3_4	1	0	1	0	0.446280002594	327.0	-151.0	329.0	-147.0	1
3.0.1	2019_Mar_01_1033	s	s	2	1	SIC	265	4_2	4	2	1	4	23_1_4	3	2	1	0	0.501822948456	-131.0	-205.0	-130.0	-207.0	1
3.0.1	2019_Mar_01_1033	s	s	2	1	SIC	266	ABS	0	0	3	2	24_3_2	NA	NA	0	1	2.28595399857	None	None	None	None	1
3.0.1	2019_Mar_01_1033	s	s	2	1	SIC	267	2_3	2	3	4	4	23_4_4	2	-1	1	0	0.439610004425	-346.0	339.0	-348.0	343.0	1
3.0.1	2019_Mar_01_1033	s	s	2	1	SIC	268	ABS	0	0	2	2	24_2_2	NA	NA	0	1	2.81522202492	None	None	None	None	1
3.0.1	2019_Mar_01_1033	s	s	2	1	SIC	269	2_2	2	2	3	1	23_3_1	1	-1	1	0	0.481575965881	51.0	-6.0	54.0	-8.0	1
3.0.1	2019_Mar_01_1033	s	s	2	1	SIC	270	4_1	4	1	3	4	23_3_4	1	3	1	0	0.634464025497	-144.0	-33.0	-143.0	-28.0	1
3.0.1	2019_Mar_01_1033	s	s	2	1	SIC	271	ABS	0	0	3	2	24_3_2	NA	NA	0	1	3.36977410316	None	None	None	None	1
3.0.1	2019_Mar_01_1033	s	s	2	1	SIC	272	ABS	0	0	3	2	24_3_2	NA	NA	0	1	1.87230706215	None	None	None	None	1
3.0.1	2019_Mar_01_1033	s	s	2	1	SIC	273	2_4	2	4	3	4	23_3_4	1	0	1	0	0.481947898865	59.0	-7.0	55.0	-9.0	1
3.0.1	2019_Mar_01_1033	s	s	2	1	SIC	274	2_1	2	1	4	2	23_4_2	2	1	1	0	0.469846010208	-255.0	322.0	-253.0	323.0	1
3.0.1	2019_Mar_01_1033	s	s	2	1	SIC	275	1_2	1	2	3	2	23_3_2	2	0	1	0	0.493382930756	-48.0	385.0	-45.0	382.0	1
3.0.1	2019_Mar_01_1033	s	s	2	1	SIC	276	1_3	1	3	3	1	23_3_1	2	2	1	0	0.755002975464	-378.0	149.0	-383.0	154.0	1
3.0.1	2019_Mar_01_1033	s	s	2	1	SIC	277	ABS	0	0	1	4	24_1_4	NA	NA	0	1	1.38417887688	None	None	None	None	1
3.0.1	2019_Mar_01_1033	s	s	2	1	SIC	278	4_3	4	3	4	2	23_4_2	0	1	0	1	2.08392715454	152.0	-390.0	None	None	0
3.0.1	2019_Mar_01_1033	s	s	2	1	SIC	279	1_2	1	2	3	3	23_3_3	2	1	1	0	0.663151979446	-136.0	-12.0	-136.0	-15.0	1
3.0.1	2019_Mar_01_1033	s	s	2	1	SIC	280	ABS	0	0	1	1	24_1_1	NA	NA	0	1	2.76321697235	None	None	None	None	1
3.0.1	2019_Mar_01_1033	s	s	2	1	SIC	281	4_2	4	2	1	2	23_1_2	3	0	1	0	0.481604099274	-480.0	133.0	-480.0	125.0	1
3.0.1	2019_Mar_01_1033	s	s	2	1	SIC	282	2_2	2	2	1	3	23_1_3	-1	1	0	1	2.42866706848	96.0	189.0	None	None	0
3.0.1	2019_Mar_01_1033	s	s	2	1	SIC	283	ABS	0	0	1	3	24_1_3	NA	NA	0	1	2.01055693626	None	None	None	None	1
3.0.1	2019_Mar_01_1033	s	s	2	1	SIC	284	ABS	0	0	4	1	24_4_1	NA	NA	0	1	2.41039681435	None	None	None	None	1
3.0.1	2019_Mar_01_1033	s	s	2	1	SIC	285	ABS	0	0	3	1	24_3_1	NA	NA	0	1	1.52865290642	None	None	None	None	1
3.0.1	2019_Mar_01_1033	s	s	2	1	SIC	286	ABS	0	0	2	2	24_2_2	NA	NA	0	1	3.93934583664	None	None	None	None	1
3.0.1	2019_Mar_01_1033	s	s	2	1	SIC	287	ABS	0	0	2	1	24_2_1	NA	NA	0	1	2.54473304749	None	None	None	None	1
3.0.1	2019_Mar_01_1033	s	s	2	1	SIC	288	ABS	0	0	3	4	24_3_4	NA	NA	0	1	2.23397397995	None	None	None	None	1
3.0.1	2019_Mar_01_1033	s	s	2	1	SIC	289	ABS	0	0	4	3	24_4_3	NA	NA	0	1	3.19131207466	None	None	None	None	1
3.0.1	2019_Mar_01_1033	s	s	2	1	SIC	290	2_2	2	2	2	4	23_2_4	0	2	1	0	0.763826847076	65.0	-240.0	64.0	-230.0	1
3.0.1	2019_Mar_01_1033	s	s	2	1	SIC	291	1_4	1	4	1	2	23_1_2	0	2	1	0	0.940244913101	143.0	138.0	143.0	137.0	1
3.0.1	2019_Mar_01_1033	s	s	2	1	SIC	292	ABS	0	0	1	2	24_1_2	NA	NA	0	1	1.52822303772	None	None	None	None	1
3.0.1	2019_Mar_01_1033	s	s	2	1	SIC	293	ABS	0	0	1	2	24_1_2	NA	NA	0	1	2.59861707687	None	None	None	None	1
3.0.1	2019_Mar_01_1033	s	s	2	1	SIC	294	2_1	2	1	4	4	23_4_4	2	3	1	0	0.469773054123	-444.0	-166.0	-448.0	-165.0	1
3.0.1	2019_Mar_01_1033	s	s	2	1	SIC	295	2_1	2	1	3	1	23_3_1	1	0	0	1	0.53257393837	-201.0	348.0	None	None	0
3.0.1	2019_Mar_01_1033	s	s	2	1	SIC	296	ABS	0	0	3	2	24_3_2	NA	NA	0	1	2.82199501991	None	None	None	None	1
3.0.1	2019_Mar_01_1033	s	s	2	1	SIC	297	ABS	0	0	1	1	24_1_1	NA	NA	0	1	2.02517604828	None	None	None	None	1
3.0.1	2019_Mar_01_1033	s	s	2	1	SIC	298	3_3	3	3	2	1	23_2_1	1	2	1	0	0.72202706337	287.0	367.0	296.0	371.0	1
3.0.1	2019_Mar_01_1033	s	s	2	1	SIC	299	3_2	3	2	1	4	23_1_4	2	2	1	0	0.672634840012	431.0	-24.0	425.0	-25.0	1
3.0.1	2019_Mar_01_1033	s	s	2	1	SIC	300	1_2	1	2	1	4	23_1_4	0	2	1	0	1.24047207832	481.0	-385.0	482.0	-387.0	1
3.0.1	2019_Mar_01_1033	s	s	2	1	SIC	301	ABS	0	0	2	3	24_2_3	NA	NA	0	1	3.13962507248	None	None	None	None	1
3.0.1	2019_Mar_01_1033	s	s	2	1	SIC	302	2_4	2	4	4	4	23_4_4	2	0	1	0	0.411091089249	-146.0	308.0	-146.0	308.0	1
3.0.1	2019_Mar_01_1033	s	s	2	1	SIC	303	ABS	0	0	3	4	24_3_4	NA	NA	0	1	1.09921884537	None	None	None	None	1
3.0.1	2019_Mar_01_1033	s	s	2	1	SIC	304	ABS	0	0	4	3	24_4_3	NA	NA	0	1	2.54268193245	None	None	None	None	1
3.0.1	2019_Mar_01_1033	s	s	2	1	SIC	305	4_1	4	1	1	3	23_1_3	3	2	1	0	0.469739198685	374.0	189.0	378.0	195.0	1
3.0.1	2019_Mar_01_1033	s	s	2	1	SIC	306	ABS	0	0	4	3	24_4_3	NA	NA	0	1	2.73185300827	None	None	None	None	1
3.0.1	2019_Mar_01_1033	s	s	2	1	SIC	307	ABS	0	0	1	2	24_1_2	NA	NA	0	1	3.424710989	None	None	None	None	1
3.0.1	2019_Mar_01_1033	s	s	2	1	SIC	308	ABS	0	0	3	3	24_3_3	NA	NA	0	1	2.54469513893	None	None	None	None	1
3.0.1	2019_Mar_01_1033	s	s	2	1	SIC	309	ABS	0	0	3	2	24_3_2	NA	NA	0	1	2.39861702919	None	None	None	None	1
3.0.1	2019_Mar_01_1033	s	s	2	1	SIC	310	ABS	0	0	2	3	24_2_3	NA	NA	0	1	2.72086310387	None	None	None	None	1
3.0.1	2019_Mar_01_1033	s	s	2	1	SIC	311	4_2	4	2	2	2	23_2_2	2	0	1	0	0.481584072113	-201.0	57.0	-201.0	54.0	1
3.0.1	2019_Mar_01_1033	s	s	2	1	SIC	312	1_1	1	1	3	4	23_3_4	2	3	1	0	0.48156785965	-124.0	72.0	-137.0	75.0	1
3.0.1	2019_Mar_01_1033	s	s	2	1	SIC	313	4_3	4	3	1	4	23_1_4	3	-1	1	0	0.451007843018	262.0	227.0	257.0	221.0	1
3.0.1	2019_Mar_01_1033	s	s	2	1	SIC	314	4_3	4	3	2	2	23_2_2	2	1	1	0	0.496247053146	-291.0	-361.0	-286.0	-368.0	1
3.0.1	2019_Mar_01_1033	s	s	2	1	SIC	315	1_2	1	2	3	1	23_3_1	2	-1	1	0	0.578513860703	-111.0	339.0	-108.0	337.0	1
3.0.1	2019_Mar_01_1033	s	s	2	1	SIC	316	2_1	2	1	4	1	23_4_1	2	0	1	0	0.6392121315	315.0	-324.0	312.0	-327.0	1
3.0.1	2019_Mar_01_1033	s	s	2	1	SIC	317	3_1	3	1	4	1	23_4_1	-1	0	1	0	0.462515115738	-90.0	-230.0	-91.0	-223.0	1
3.0.1	2019_Mar_01_1033	s	s	2	1	SIC	318	ABS	0	0	1	1	24_1_1	NA	NA	0	1	2.55199813843	None	None	None	None	1
3.0.1	2019_Mar_01_1033	s	s	2	1	SIC	319	ABS	0	0	4	3	24_4_3	NA	NA	0	1	2.745210886	None	None	None	None	1
3.0.1	2019_Mar_01_1033	s	s	2	1	SIC	320	ABS	0	0	1	3	24_1_3	NA	NA	0	1	1.46957707405	None	None	None	None	1
3.0.1	2019_Mar_01_1033	s	s	2	1	SIC	321	3_2	3	2	4	1	23_4_1	-1	-1	1	0	0.422741889954	-425.0	-26.0	-426.0	-24.0	1
3.0.1	2019_Mar_01_1033	s	s	2	1	SIC	322	ABS	0	0	1	3	24_1_3	NA	NA	0	1	2.56372284889	None	None	None	None	1
3.0.1	2019_Mar_01_1033	s	s	2	1	SIC	323	3_4	3	4	1	4	23_1_4	2	0	1	0	0.446398019791	-146.0	94.0	-134.0	97.0	1
3.0.1	2019_Mar_01_1033	s	s	2	1	SIC	324	2_2	2	2	2	3	23_2_3	0	1	1	0	2.42255187035	-83.0	-220.0	-84.0	-226.0	1
3.0.1	2019_Mar_01_1033	s	s	2	1	SIC	325	ABS	0	0	4	4	24_4_4	NA	NA	0	1	2.00360012054	None	None	None	None	1
3.0.1	2019_Mar_01_1033	s	s	2	1	SIC	326	ABS	0	0	4	4	24_4_4	NA	NA	0	1	2.2222070694	None	None	None	None	1
3.0.1	2019_Mar_01_1033	s	s	2	1	SIC	327	ABS	0	0	2	1	24_2_1	NA	NA	0	1	2.59286904335	None	None	None	None	1
3.0.1	2019_Mar_01_1033	s	s	2	1	SIC	328	4_1	4	1	1	1	23_1_1	3	0	1	0	0.634407043457	-427.0	322.0	-427.0	322.0	1
3.0.1	2019_Mar_01_1033	s	s	2	1	SIC	329	ABS	0	0	3	3	24_3_3	NA	NA	0	1	3.01061010361	None	None	None	None	1
3.0.1	2019_Mar_01_1033	s	s	2	1	SIC	330	ABS	0	0	2	4	24_2_4	NA	NA	0	1	1.95169091225	None	None	None	None	1
3.0.1	2019_Mar_01_1033	s	s	2	1	SIC	331	ABS	0	0	2	3	24_2_3	NA	NA	0	1	2.37796902657	None	None	None	None	1
3.0.1	2019_Mar_01_1033	s	s	2	1	SIC	332	1_4	1	4	4	3	23_4_3	3	1	1	0	0.516832828522	72.0	152.0	79.0	152.0	1
3.0.1	2019_Mar_01_1033	s	s	2	1	SIC	333	ABS	0	0	3	1	24_3_1	NA	NA	0	1	2.52792000771	None	None	None	None	1
3.0.1	2019_Mar_01_1033	s	s	2	1	SIC	334	1_2	1	2	1	3	23_1_3	0	1	0	1	2.57794713974	117.0	-177.0	None	None	0
3.0.1	2019_Mar_01_1033	s	s	2	1	SIC	335	3_3	3	3	1	3	23_1_3	2	0	1	0	0.546959161758	54.0	243.0	56.0	244.0	1
3.0.1	2019_Mar_01_1033	s	s	2	1	SIC	336	ABS	0	0	1	4	24_1_4	NA	NA	0	1	1.34006905556	None	None	None	None	1
3.0.1	2019_Mar_01_1033	s	s	2	1	SIC	337	2_3	2	3	2	2	23_2_2	0	1	1	0	2.80501508713	100.0	146.0	97.0	144.0	1
3.0.1	2019_Mar_01_1033	s	s	2	1	SIC	338	1_4	1	4	3	2	23_3_2	2	2	1	0	1.54008698463	-75.0	-382.0	-70.0	-383.0	1
3.0.1	2019_Mar_01_1033	s	s	2	1	SIC	339	3_3	3	3	3	2	23_3_2	0	1	1	0	2.98673391342	521.0	-213.0	518.0	-217.0	1
3.0.1	2019_Mar_01_1033	s	s	2	1	SIC	340	ABS	0	0	1	2	24_1_2	NA	NA	0	1	3.70409297943	None	None	None	None	1
3.0.1	2019_Mar_01_1033	s	s	2	1	SIC	341	3_2	3	2	2	1	23_2_1	1	-1	1	0	0.540382146835	-58.0	136.0	-61.0	142.0	1
3.0.1	2019_Mar_01_1033	s	s	2	1	SIC	342	ABS	0	0	3	2	24_3_2	NA	NA	0	1	2.80285692215	None	None	None	None	1
3.0.1	2019_Mar_01_1033	s	s	2	1	SIC	343	1_2	1	2	2	1	23_2_1	1	-1	1	0	1.15669202805	500.0	-115.0	500.0	-113.0	1
3.0.1	2019_Mar_01_1033	s	s	2	1	SIC	344	ABS	0	0	4	1	24_4_1	NA	NA	0	1	2.48098301888	None	None	None	None	1
3.0.1	2019_Mar_01_1033	s	s	2	1	SIC	345	ABS	0	0	2	4	24_2_4	NA	NA	0	1	2.49562692642	None	None	None	None	1
3.0.1	2019_Mar_01_1033	s	s	2	1	SIC	346	ABS	0	0	1	4	24_1_4	NA	NA	0	1	1.82633090019	None	None	None	None	1
3.0.1	2019_Mar_01_1033	s	s	2	1	SIC	347	ABS	0	0	1	2	24_1_2	NA	NA	0	1	5.26278614998	None	None	None	None	1
3.0.1	2019_Mar_01_1033	s	s	2	1	SIC	348	ABS	0	0	3	3	24_3_3	NA	NA	0	1	5.18065404892	None	None	None	None	1
3.0.1	2019_Mar_01_1033	s	s	2	1	SIC	349	4_4	4	4	3	1	23_3_1	1	3	1	0	0.693221092224	158.0	33.0	153.0	28.0	1
3.0.1	2019_Mar_01_1033	s	s	2	1	SIC	350	ABS	0	0	2	3	24_2_3	NA	NA	0	1	3.29240703583	None	None	None	None	1
3.0.1	2019_Mar_01_1033	s	s	2	1	SIC	351	2_1	2	1	1	3	23_1_3	-1	2	1	0	0.98734498024	-153.0	-215.0	-144.0	-208.0	1
3.0.1	2019_Mar_01_1033	s	s	2	1	SIC	352	ABS	0	0	2	2	24_2_2	NA	NA	0	1	4.64968800545	None	None	None	None	1
3.0.1	2019_Mar_01_1033	s	s	2	1	SIC	353	1_1	1	1	1	3	23_1_3	0	2	1	0	0.599170923233	-10.0	329.0	-7.0	325.0	1
3.0.1	2019_Mar_01_1033	s	s	2	1	SIC	354	ABS	0	0	2	1	24_2_1	NA	NA	0	1	3.77490496635	None	None	None	None	1
3.0.1	2019_Mar_01_1033	s	s	2	1	SIC	355	3_1	3	1	4	2	23_4_2	-1	1	1	0	0.552100896835	380.0	134.0	383.0	133.0	1
3.0.1	2019_Mar_01_1033	s	s	2	1	SIC	356	4_1	4	1	4	3	23_4_3	0	2	1	0	0.780528068542	-191.0	376.0	-189.0	374.0	1
3.0.1	2019_Mar_01_1033	s	s	2	1	SIC	357	ABS	0	0	4	4	24_4_4	NA	NA	0	1	2.54633402824	None	None	None	None	1
3.0.1	2019_Mar_01_1033	s	s	2	1	SIC	358	ABS	0	0	3	1	24_3_1	NA	NA	0	1	2.86900687218	None	None	None	None	1
3.0.1	2019_Mar_01_1033	s	s	2	1	SIC	359	ABS	0	0	2	1	24_2_1	NA	NA	0	1	2.30452299118	None	None	None	None	1
3.0.1	2019_Mar_01_1033	s	s	2	1	SIC	360	4_3	4	3	2	4	23_2_4	2	-1	0	1	0.0111980438232	-349.0	-333.0	None	None	0
3.0.1	2019_Mar_01_1033	s	s	2	1	SIC	361	4_3	4	3	1	1	23_1_1	3	2	1	0	0.521586179733	-83.0	143.0	-89.0	146.0	1
3.0.1	2019_Mar_01_1033	s	s	2	1	SIC	362	1_4	1	4	2	4	23_2_4	1	0	0	1	1.7636039257	254.0	57.0	None	None	0
3.0.1	2019_Mar_01_1033	s	s	2	1	SIC	363	1_1	1	1	2	4	23_2_4	1	3	1	0	0.613737106323	318.0	-241.0	320.0	-240.0	1
3.0.1	2019_Mar_01_1033	s	s	2	1	SIC	364	4_4	4	4	3	3	23_3_3	1	1	1	0	0.47426700592	76.0	404.0	73.0	407.0	1
3.0.1	2019_Mar_01_1033	s	s	2	1	SIC	365	1_1	1	1	1	2	23_1_2	0	1	1	0	1.34572005272	499.0	360.0	497.0	361.0	1
3.0.1	2019_Mar_01_1033	s	s	2	1	SIC	366	ABS	0	0	3	4	24_3_4	NA	NA	0	1	1.45808982849	None	None	None	None	1
3.0.1	2019_Mar_01_1033	s	s	2	1	SIC	367	2_2	2	2	4	3	23_4_3	2	1	1	0	0.429676055908	60.0	55.0	57.0	54.0	1
3.0.1	2019_Mar_01_1033	s	s	2	1	SIC	368	3_3	3	3	4	3	23_4_3	-1	0	1	0	0.451416969299	290.0	-152.0	284.0	-151.0	1
3.0.1	2019_Mar_01_1033	s	s	2	1	SIC	369	ABS	0	0	4	3	24_4_3	NA	NA	0	1	2.98663902283	None	None	None	None	1
3.0.1	2019_Mar_01_1033	s	s	2	1	SIC	370	3_3	3	3	2	3	23_2_3	1	0	1	0	0.54515504837	445.0	144.0	441.0	140.0	1
3.0.1	2019_Mar_01_1033	s	s	2	1	SIC	371	ABS	0	0	3	3	24_3_3	NA	NA	0	1	2.18011498451	None	None	None	None	1
3.0.1	2019_Mar_01_1033	s	s	2	1	SIC	372	2_3	2	3	3	3	23_3_3	1	0	1	0	0.591994047165	-128.0	183.0	-127.0	184.0	1
3.0.1	2019_Mar_01_1033	s	s	2	1	SIC	373	2_4	2	4	1	4	23_1_4	-1	0	0	1	2.64561700821	295.0	-246.0	None	None	0
3.0.1	2019_Mar_01_1033	s	s	2	1	SIC	374	3_3	3	3	3	1	23_3_1	0	2	1	0	2.70433497429	94.0	-344.0	101.0	-341.0	1
3.0.1	2019_Mar_01_1033	s	s	2	1	SIC	375	2_4	2	4	3	3	23_3_3	1	1	1	0	0.799116849899	-76.0	387.0	-80.0	388.0	1
3.0.1	2019_Mar_01_1033	s	s	2	1	SIC	376	1_4	1	4	4	1	23_4_1	3	3	1	0	0.496226787567	-30.0	55.0	-26.0	60.0	1
3.0.1	2019_Mar_01_1033	s	s	2	1	SIC	377	3_4	3	4	2	3	23_2_3	1	1	1	0	0.888052940369	-421.0	-84.0	-420.0	-84.0	1
3.0.1	2019_Mar_01_1033	s	s	2	1	SIC	378	4_4	4	4	4	2	23_4_2	0	2	1	0	1.82259106636	487.0	337.0	490.0	347.0	1
3.0.1	2019_Mar_01_1033	s	s	2	1	SIC	379	1_3	1	3	3	4	23_3_4	2	-1	1	0	0.545433998108	198.0	-107.0	196.0	-109.0	1
3.0.1	2019_Mar_01_1033	s	s	2	1	SIC	380	ABS	0	0	2	3	24_2_3	NA	NA	0	1	4.05690383911	None	None	None	None	1
3.0.1	2019_Mar_01_1033	s	s	2	1	SIC	381	ABS	0	0	3	4	24_3_4	NA	NA	0	1	1.57531690598	None	None	None	None	1
3.0.1	2019_Mar_01_1033	s	s	2	1	SIC	382	2_4	2	4	4	3	23_4_3	2	1	1	0	0.473783016205	-56.0	-160.0	-59.0	-160.0	1
3.0.1	2019_Mar_01_1033	s	s	2	1	SIC	383	ABS	0	0	2	2	24_2_2	NA	NA	0	1	2.8690700531	None	None	None	None	1
3.0.1	2019_Mar_01_1033	s	s	2	1	SIC	384	2_4	2	4	2	3	23_2_3	0	1	1	0	1.11670303345	-200.0	-7.0	-197.0	-7.0	1
3.0.1	2019_Mar_01_1033	s	s	2	1	SIC	385	ABS	0	0	1	4	24_1_4	NA	NA	0	1	1.98689198494	None	None	None	None	1
3.0.1	2019_Mar_01_1033	s	s	2	1	SIC	386	ABS	0	0	1	1	24_1_1	NA	NA	0	1	2.5162460804	None	None	None	None	1
3.0.1	2019_Mar_01_1033	s	s	2	1	SIC	387	ABS	0	0	4	4	24_4_4	NA	NA	0	1	1.43420696259	None	None	None	None	1
3.0.1	2019_Mar_01_1033	s	s	2	1	SIC	388	ABS	0	0	3	3	24_3_3	NA	NA	0	1	3.88052797318	None	None	None	None	1
3.0.1	2019_Mar_01_1033	s	s	2	1	SIC	389	3_1	3	1	2	4	23_2_4	1	3	1	0	0.563867092133	353.0	-191.0	355.0	-187.0	1
3.0.1	2019_Mar_01_1033	s	s	2	1	SIC	390	ABS	0	0	2	1	24_2_1	NA	NA	0	1	2.31916093826	None	None	None	None	1
3.0.1	2019_Mar_01_1033	s	s	2	1	SIC	391	ABS	0	0	1	4	24_1_4	NA	NA	0	1	1.54005503654	None	None	None	None	1
3.0.1	2019_Mar_01_1033	s	s	2	1	SIC	392	ABS	0	0	1	2	24_1_2	NA	NA	0	1	3.64526891708	None	None	None	None	1
3.0.1	2019_Mar_01_1033	s	s	2	1	SIC	393	1_3	1	3	3	3	23_3_3	2	0	1	0	0.528887033463	-191.0	75.0	-189.0	68.0	1
3.0.1	2019_Mar_01_1033	s	s	2	1	SIC	394	1_1	1	1	2	1	23_2_1	1	0	0	1	2.11636400223	-143.0	-115.0	None	None	0
3.0.1	2019_Mar_01_1033	s	s	2	1	SIC	395	4_2	4	2	3	2	23_3_2	1	0	1	0	0.487160921097	-389.0	-95.0	-388.0	-100.0	1
3.0.1	2019_Mar_01_1033	s	s	2	1	SIC	396	ABS	0	0	4	1	24_4_1	NA	NA	0	1	1.09318113327	None	None	None	None	1
3.0.1	2019_Mar_01_1033	s	s	2	1	SIC	397	4_4	4	4	2	1	23_2_1	2	3	1	0	0.493327856064	-183.0	-35.0	-175.0	-38.0	1
3.0.1	2019_Mar_01_1033	s	s	2	1	SIC	398	ABS	0	0	4	2	24_4_2	NA	NA	0	1	2.84846401215	None	None	None	None	1
3.0.1	2019_Mar_01_1033	s	s	2	1	SIC	399	3_2	3	2	3	4	23_3_4	0	2	1	0	0.940230846405	-156.0	-324.0	-158.0	-331.0	1
3.0.1	2019_Mar_01_1033	s	s	2	1	SIC	400	1_2	1	2	4	3	23_4_3	3	1	1	0	0.49623799324	-446.0	127.0	-453.0	126.0	1
3.0.1	2019_Mar_01_1033	s	s	2	1	SIC	401	ABS	0	0	4	1	24_4_1	NA	NA	0	1	2.52076292038	None	None	None	None	1
3.0.1	2019_Mar_01_1033	s	s	2	1	SIC	402	2_3	2	3	2	4	23_2_4	0	-1	1	0	1.03920817375	431.0	401.0	432.0	403.0	1
3.0.1	2019_Mar_01_1033	s	s	2	1	SIC	403	ABS	0	0	2	1	24_2_1	NA	NA	0	1	3.85699987411	None	None	None	None	1
3.0.1	2019_Mar_01_1033	s	s	2	1	SIC	404	1_2	1	2	1	1	23_1_1	0	-1	1	0	2.34283399582	-211.0	-340.0	-216.0	-339.0	1
3.0.1	2019_Mar_01_1033	s	s	2	1	SIC	405	3_2	3	2	4	3	23_4_3	-1	1	1	0	0.496202945709	136.0	-336.0	134.0	-343.0	1
3.0.1	2019_Mar_01_1033	s	s	2	1	SIC	406	2_4	2	4	3	2	23_3_2	1	2	1	0	0.849101066589	-376.0	-384.0	-376.0	-389.0	1
3.0.1	2019_Mar_01_1033	s	s	2	1	SIC	407	ABS	0	0	3	1	24_3_1	NA	NA	0	1	3.02589201927	None	None	None	None	1
3.0.1	2019_Mar_01_1033	s	s	2	1	SIC	408	3_3	3	3	1	4	23_1_4	2	-1	1	0	0.650586128235	-275.0	-161.0	-277.0	-168.0	1
3.0.1	2019_Mar_01_1033	s	s	2	1	SIC	409	2_3	2	3	1	1	23_1_1	-1	2	1	0	1.23419904709	-457.0	-42.0	-466.0	-33.0	1
3.0.1	2019_Mar_01_1033	s	s	2	1	SIC	410	1_4	1	4	3	3	23_3_3	2	1	1	0	0.734209775925	-322.0	-393.0	-319.0	-396.0	1
3.0.1	2019_Mar_01_1033	s	s	2	1	SIC	411	3_2	3	2	3	3	23_3_3	0	1	0	1	3.33256006241	-526.0	253.0	None	None	0
3.0.1	2019_Mar_01_1033	s	s	2	1	SIC	412	ABS	0	0	4	4	24_4_4	NA	NA	0	1	1.97992491722	None	None	None	None	1
3.0.1	2019_Mar_01_1033	s	s	2	1	SIC	413	ABS	0	0	3	1	24_3_1	NA	NA	0	1	2.71623587608	None	None	None	None	1
3.0.1	2019_Mar_01_1033	s	s	2	1	SIC	414	3_2	3	2	3	1	23_3_1	0	-1	0	1	2.70853209496	-198.0	385.0	None	None	0
3.0.1	2019_Mar_01_1033	s	s	2	1	SIC	415	4_1	4	1	1	4	23_1_4	3	3	1	0	0.540338993073	243.0	160.0	244.0	164.0	1
3.0.1	2019_Mar_01_1033	s	s	2	1	SIC	416	3_1	3	1	1	1	23_1_1	2	0	1	0	0.972496032715	-318.0	-180.0	-318.0	-187.0	1
3.0.1	2019_Mar_01_1033	s	s	2	1	SIC	417	ABS	0	0	4	2	24_4_2	NA	NA	0	1	4.48043894768	None	None	None	None	1
3.0.1	2019_Mar_01_1033	s	s	2	1	SIC	418	4_3	4	3	2	3	23_2_3	2	0	1	0	0.469805002213	324.0	305.0	319.0	302.0	1
3.0.1	2019_Mar_01_1033	s	s	2	1	SIC	419	ABS	0	0	2	4	24_2_4	NA	NA	0	1	3.52767014503	None	None	None	None	1
3.0.1	2019_Mar_01_1033	s	s	2	1	SIC	420	3_3	3	3	4	1	23_4_1	-1	2	1	0	0.604384899139	-491.0	-325.0	-487.0	-330.0	1
3.0.1	2019_Mar_01_1033	s	s	2	1	SIC	421	ABS	0	0	2	3	24_2_3	NA	NA	0	1	5.29188799858	None	None	None	None	1
3.0.1	2019_Mar_01_1033	s	s	2	1	SIC	422	2_3	2	3	1	4	23_1_4	-1	-1	1	0	1.29758405685	359.0	110.0	356.0	106.0	1
3.0.1	2019_Mar_01_1033	s	s	2	1	SIC	423	3_1	3	1	2	1	23_2_1	1	0	1	0	0.502004146576	-45.0	324.0	-43.0	323.0	1
3.0.1	2019_Mar_01_1033	s	s	2	1	SIC	424	ABS	0	0	2	1	24_2_1	NA	NA	0	1	2.82193589211	None	None	None	None	1
3.0.1	2019_Mar_01_1033	s	s	2	1	SIC	425	ABS	0	0	1	1	24_1_1	NA	NA	1	0	2.06935119629	None	None	-538.0	-193.0	0
3.0.1	2019_Mar_01_1033	s	s	2	1	SIC	426	2_4	2	4	1	2	23_1_2	-1	2	1	0	0.881438970566	112.0	229.0	112.0	229.0	1
3.0.1	2019_Mar_01_1033	s	s	2	1	SIC	427	3_1	3	1	3	4	23_3_4	0	3	1	0	0.672633171082	-446.0	-377.0	-443.0	-375.0	1
3.0.1	2019_Mar_01_1033	s	s	2	1	SIC	428	ABS	0	0	1	3	24_1_3	NA	NA	0	1	4.98606801033	None	None	None	None	1
3.0.1	2019_Mar_01_1033	s	s	2	1	SIC	429	2_3	2	3	1	2	23_1_2	-1	1	1	0	2.64548301697	-434.0	342.0	-435.0	342.0	1
3.0.1	2019_Mar_01_1033	s	s	2	1	SIC	430	ABS	0	0	2	4	24_2_4	NA	NA	0	1	2.30741906166	None	None	None	None	1
3.0.1	2019_Mar_01_1033	s	s	2	1	SIC	431	ABS	0	0	4	2	24_4_2	NA	NA	0	1	3.73152494431	None	None	None	None	1
3.0.1	2019_Mar_01_1033	s	s	2	1	SIC	432	ABS	0	0	3	4	24_3_4	NA	NA	0	1	1.53284096718	None	None	None	None	1
3.0.1	2019_Mar_01_1033	s	s	2	1	SIC	433	ABS	0	0	3	4	24_3_4	NA	NA	0	1	2.55440688133	None	None	None	None	1
3.0.1	2019_Mar_01_1033	s	s	2	1	SIC	434	ABS	0	0	4	2	24_4_2	NA	NA	0	1	5.32711100578	None	None	None	None	1
3.0.1	2019_Mar_01_1033	s	s	2	1	SIC	435	1_4	1	4	3	4	23_3_4	2	0	1	0	0.587434053421	218.0	283.0	223.0	279.0	1
3.0.1	2019_Mar_01_1033	s	s	2	1	SIC	436	3_4	3	4	2	2	23_2_2	1	2	1	0	0.663161039352	-170.0	-119.0	-173.0	-113.0	1
3.0.1	2019_Mar_01_1033	s	s	2	1	SIC	437	2_1	2	1	3	3	23_3_3	1	2	1	0	0.555020809174	305.0	-10.0	299.0	-3.0	1
3.0.1	2019_Mar_01_1033	s	s	2	1	SIC	438	1_2	1	2	4	1	23_4_1	3	-1	1	0	0.39192700386	-48.0	-150.0	-54.0	-146.0	1
3.0.1	2019_Mar_01_1033	s	s	2	1	SIC	439	ABS	0	0	2	2	24_2_2	NA	NA	0	1	3.855727911	None	None	None	None	1
3.0.1	2019_Mar_01_1033	s	s	2	1	SIC	440	4_4	4	4	1	1	23_1_1	3	3	1	0	0.425625085831	83.0	-221.0	87.0	-213.0	1
3.0.1	2019_Mar_01_1033	s	s	2	1	SIC	441	ABS	0	0	2	4	24_2_4	NA	NA	0	1	1.11672997475	None	None	None	None	1
3.0.1	2019_Mar_01_1033	s	s	2	1	SIC	442	ABS	0	0	4	2	24_4_2	NA	NA	0	1	4.01769900322	None	None	None	None	1
3.0.1	2019_Mar_01_1033	s	s	2	1	SIC	443	2_2	2	2	1	2	23_1_2	-1	0	0	1	1.2255718708	122.0	-224.0	None	None	0
3.0.1	2019_Mar_01_1033	s	s	2	1	SIC	444	2_1	2	1	1	1	23_1_1	-1	0	0	1	1.89756512642	414.0	-107.0	None	None	0
3.0.1	2019_Mar_01_1033	s	s	2	1	SIC	445	1_3	1	3	1	2	23_1_2	0	1	1	0	2.08439922333	168.0	206.0	169.0	206.0	1
3.0.1	2019_Mar_01_1033	s	s	2	1	SIC	446	ABS	0	0	4	1	24_4_1	NA	NA	0	1	3.4245569706	None	None	None	None	1
3.0.1	2019_Mar_01_1033	s	s	2	1	SIC	447	ABS	0	0	1	2	24_1_2	NA	NA	0	1	3.17477703094	None	None	None	None	1
3.0.1	2019_Mar_01_1033	s	s	2	1	SIC	448	ABS	0	0	3	2	24_3_2	NA	NA	0	1	3.47229099274	None	None	None	None	1
3.0.1	2019_Mar_01_1033	s	s	2	1	SIC	449	ABS	0	0	1	2	24_1_2	NA	NA	0	1	2.18692302704	None	None	None	None	1
3.0.1	2019_Mar_01_1033	s	s	2	1	SIC	450	1_3	1	3	4	3	23_4_3	3	0	1	0	0.528571128845	-375.0	-369.0	-373.0	-367.0	1
3.0.1	2019_Mar_01_1033	s	s	2	1	SIC	451	ABS	0	0	4	4	24_4_4	NA	NA	0	1	1.78992915154	None	None	None	None	1
3.0.1	2019_Mar_01_1033	s	s	2	1	SIC	452	1_2	1	2	4	2	23_4_2	3	0	1	0	0.484516143799	-429.0	395.0	-424.0	389.0	1
3.0.1	2019_Mar_01_1033	s	s	2	1	SIC	453	ABS	0	0	4	4	24_4_4	NA	NA	0	1	2.29288911819	None	None	None	None	1
3.0.1	2019_Mar_01_1033	s	s	2	1	SIC	454	1_3	1	3	1	1	23_1_1	0	2	1	0	0.934259176254	488.0	-166.0	488.0	-172.0	1
3.0.1	2019_Mar_01_1033	s	s	2	1	SIC	455	ABS	0	0	2	1	24_2_1	NA	NA	0	1	2.48555994034	None	None	None	None	1
3.0.1	2019_Mar_01_1033	s	s	2	1	SIC	456	ABS	0	0	1	1	24_1_1	NA	NA	0	1	2.16872692108	None	None	None	None	1
3.0.1	2019_Mar_01_1033	s	s	2	1	SIC	457	ABS	0	0	1	3	24_1_3	NA	NA	0	1	4.08339810371	None	None	None	None	1
3.0.1	2019_Mar_01_1033	s	s	2	1	SIC	458	3_2	3	2	4	4	23_4_4	-1	2	1	0	0.678493976593	460.0	-13.0	455.0	-9.0	1
3.0.1	2019_Mar_01_1033	s	s	2	1	SIC	459	2_1	2	1	3	4	23_3_4	1	3	1	0	0.496184110641	-504.0	52.0	-503.0	51.0	1
3.0.1	2019_Mar_01_1033	s	s	2	1	SIC	460	ABS	0	0	4	4	24_4_4	NA	NA	0	1	1.97353601456	None	None	None	None	1
3.0.1	2019_Mar_01_1033	s	s	2	1	SIC	461	ABS	0	0	2	4	24_2_4	NA	NA	0	1	2.14279389381	None	None	None	None	1
3.0.1	2019_Mar_01_1033	s	s	2	1	SIC	462	3_1	3	1	2	3	23_2_3	1	2	1	0	0.485332965851	-510.0	-176.0	-516.0	-178.0	1
3.0.1	2019_Mar_01_1033	s	s	2	1	SIC	463	2_4	2	4	2	2	23_2_2	0	2	1	0	1.48128509521	-377.0	34.0	-384.0	30.0	1
3.0.1	2019_Mar_01_1033	s	s	2	1	SIC	464	ABS	0	0	1	3	24_1_3	NA	NA	0	1	4.94309711456	None	None	None	None	1
3.0.1	2019_Mar_01_1033	s	s	2	1	SIC	465	ABS	0	0	4	2	24_4_2	NA	NA	0	1	2.13285303116	None	None	None	None	1
3.0.1	2019_Mar_01_1033	s	s	2	1	SIC	466	ABS	0	0	3	3	24_3_3	NA	NA	0	1	5.22622084618	None	None	None	None	1
3.0.1	2019_Mar_01_1033	s	s	2	1	SIC	467	2_4	2	4	4	2	23_4_2	2	2	1	0	0.68160200119	509.0	409.0	514.0	407.0	1
3.0.1	2019_Mar_01_1033	s	s	2	1	SIC	468	4_2	4	2	4	1	23_4_1	0	-1	1	0	2.6497027874	260.0	-292.0	260.0	-290.0	1
3.0.1	2019_Mar_01_1033	s	s	2	1	SIC	469	4_3	4	3	3	3	23_3_3	1	0	1	0	0.505039930344	182.0	293.0	181.0	299.0	1
3.0.1	2019_Mar_01_1033	s	s	2	1	SIC	470	2_2	2	2	3	3	23_3_3	1	1	1	0	0.857892990112	-521.0	-88.0	-515.0	-81.0	1
3.0.1	2019_Mar_01_1033	s	s	2	1	SIC	471	3_3	3	3	4	4	23_4_4	-1	-1	1	0	0.496313095093	-346.0	-326.0	-343.0	-325.0	1
3.0.1	2019_Mar_01_1033	s	s	2	1	SIC	472	ABS	0	0	2	1	24_2_1	NA	NA	0	1	4.024559021	None	None	None	None	1
3.0.1	2019_Mar_01_1033	s	s	2	1	SIC	473	ABS	0	0	3	4	24_3_4	NA	NA	0	1	2.17899990082	None	None	None	None	1
3.0.1	2019_Mar_01_1033	s	s	2	1	SIC	474	1_1	1	1	2	2	23_2_2	1	1	1	0	0.592392921448	-200.0	5.0	-198.0	0.0	1
3.0.1	2019_Mar_01_1033	s	s	2	1	SIC	475	1_2	1	2	2	3	23_2_3	1	1	1	0	1.10965204239	-49.0	-114.0	-50.0	-115.0	1
3.0.1	2019_Mar_01_1033	s	s	2	1	SIC	476	ABS	0	0	4	1	24_4_1	NA	NA	0	1	3.87170290947	None	None	None	None	1
3.0.1	2019_Mar_01_1033	s	s	2	1	SIC	477	ABS	0	0	1	2	24_1_2	NA	NA	0	1	2.82674503326	None	None	None	None	1
3.0.1	2019_Mar_01_1033	s	s	2	1	SIC	478	ABS	0	0	4	4	24_4_4	NA	NA	0	1	1.61353111267	None	None	None	None	1
3.0.1	2019_Mar_01_1033	s	s	2	1	SIC	479	3_1	3	1	4	4	23_4_4	-1	3	1	0	0.457984924316	298.0	378.0	296.0	377.0	1
3.0.1	2019_Mar_01_1033	s	s	2	1	SIC	480	1_4	1	4	2	2	23_2_2	1	2	1	0	1.06960296631	83.0	-171.0	81.0	-162.0	1
