Version	Date	Stimuli	Method	Subject	Session	Condition	Trial	Target	TColor	TShape	DColor	DShape	Distractors	Channel1	Channel2	LMouseButton	RMouseButton	RT	TargetX	TargetY	ResponseX	ResponseY	Correct
3.0.1	2019_Mar_02_0945	s	s	2	2	Capacity	1	1_4	1	4	1	2	23_1_2	0	2	1	0	0.575917005539	-124.0	-21.0	-117.0	-21.0	1
3.0.1	2019_Mar_02_0945	s	s	2	2	Capacity	2	ABS	0	0	1	4	24_1_4	NA	NA	0	1	1.48128986359	None	None	None	None	1
3.0.1	2019_Mar_02_0945	s	s	2	2	Capacity	3	ABS	0	0	1	2	24_1_2	NA	NA	0	1	3.01536083221	None	None	None	None	1
3.0.1	2019_Mar_02_0945	s	s	2	2	Capacity	4	ABS	0	0	1	1	24_1_1	NA	NA	0	1	2.46916103363	None	None	None	None	1
3.0.1	2019_Mar_02_0945	s	s	2	2	Capacity	5	1_4	1	4	1	3	23_1_3	0	1	1	0	1.08526802063	206.0	382.0	205.0	384.0	1
3.0.1	2019_Mar_02_0945	s	s	2	2	Capacity	6	ABS	0	0	1	2	24_1_2	NA	NA	0	1	3.64533400536	None	None	None	None	1
3.0.1	2019_Mar_02_0945	s	s	2	2	Capacity	7	ABS	0	0	1	4	24_1_4	NA	NA	0	1	1.74000501633	None	None	None	None	1
3.0.1	2019_Mar_02_0945	s	s	2	2	Capacity	8	1_1	1	1	1	3	23_1_3	0	2	1	0	1.14311289787	-316.0	260.0	-319.0	260.0	1
3.0.1	2019_Mar_02_0945	s	s	2	2	Capacity	9	1_3	1	3	1	4	23_1_4	0	-1	1	0	0.913250923157	-468.0	-62.0	-459.0	-61.0	1
3.0.1	2019_Mar_02_0945	s	s	2	2	Capacity	10	1_1	1	1	1	4	23_1_4	0	3	1	0	0.780629873276	-291.0	-406.0	-293.0	-416.0	1
3.0.1	2019_Mar_02_0945	s	s	2	2	Capacity	11	1_3	1	3	1	2	23_1_2	0	1	1	0	2.94405007362	-282.0	-166.0	-277.0	-170.0	1
3.0.1	2019_Mar_02_0945	s	s	2	2	Capacity	12	ABS	0	0	1	3	24_1_3	NA	NA	0	1	4.6279540062	None	None	None	None	1
3.0.1	2019_Mar_02_0945	s	s	2	2	Capacity	13	ABS	0	0	1	2	24_1_2	NA	NA	0	1	2.02730512619	None	None	None	None	1
3.0.1	2019_Mar_02_0945	s	s	2	2	Capacity	14	ABS	0	0	1	3	24_1_3	NA	NA	0	1	3.06222581863	None	None	None	None	1
3.0.1	2019_Mar_02_0945	s	s	2	2	Capacity	15	1_2	1	2	1	3	23_1_3	0	1	1	0	2.37798094749	-216.0	-70.0	-216.0	-73.0	1
3.0.1	2019_Mar_02_0945	s	s	2	2	Capacity	16	ABS	0	0	1	4	24_1_4	NA	NA	0	1	2.92238116264	None	None	None	None	1
3.0.1	2019_Mar_02_0945	s	s	2	2	Capacity	17	ABS	0	0	1	1	24_1_1	NA	NA	0	1	3.35135889053	None	None	None	None	1
3.0.1	2019_Mar_02_0945	s	s	2	2	Capacity	18	1_1	1	1	1	2	23_1_2	0	1	1	0	4.57444882393	-96.0	-397.0	-92.0	-401.0	1
3.0.1	2019_Mar_02_0945	s	s	2	2	Capacity	19	1_3	1	3	1	1	23_1_1	0	2	1	0	1.45779490471	-510.0	263.0	-510.0	261.0	1
3.0.1	2019_Mar_02_0945	s	s	2	2	Capacity	20	ABS	0	0	1	1	24_1_1	NA	NA	0	1	2.05756497383	None	None	None	None	1
3.0.1	2019_Mar_02_0945	s	s	2	2	Capacity	21	1_2	1	2	1	1	23_1_1	0	-1	1	0	2.37794423103	-426.0	-180.0	-432.0	-179.0	1
3.0.1	2019_Mar_02_0945	s	s	2	2	Capacity	22	1_4	1	4	1	1	23_1_1	0	3	1	0	0.580966949463	246.0	83.0	250.0	86.0	1
3.0.1	2019_Mar_02_0945	s	s	2	2	Capacity	23	1_2	1	2	1	4	23_1_4	0	2	1	0	0.568424224854	-310.0	116.0	-302.0	121.0	1
3.0.1	2019_Mar_02_0945	s	s	2	2	Capacity	24	ABS	0	0	1	3	24_1_3	NA	NA	0	1	5.45033502579	None	None	None	None	1
3.0.1	2019_Mar_02_0945	s	s	2	2	Capacity	25	ABS	0	0	1	4	24_1_4	NA	NA	0	1	2.27401900291	None	None	None	None	1
3.0.1	2019_Mar_02_0945	s	s	2	2	Capacity	26	1_3	1	3	1	2	23_1_2	0	1	1	0	4.30895996094	-424.0	-223.0	-431.0	-221.0	1
3.0.1	2019_Mar_02_0945	s	s	2	2	Capacity	27	ABS	0	0	1	3	24_1_3	NA	NA	0	1	3.05208516121	None	None	None	None	1
3.0.1	2019_Mar_02_0945	s	s	2	2	Capacity	28	ABS	0	0	1	2	24_1_2	NA	NA	0	1	5.08908104897	None	None	None	None	1
3.0.1	2019_Mar_02_0945	s	s	2	2	Capacity	29	ABS	0	0	1	1	24_1_1	NA	NA	0	1	3.91579699516	None	None	None	None	1
3.0.1	2019_Mar_02_0945	s	s	2	2	Capacity	30	1_3	1	3	1	4	23_1_4	0	-1	1	0	0.896157026291	97.0	112.0	94.0	102.0	1
3.0.1	2019_Mar_02_0945	s	s	2	2	Capacity	31	ABS	0	0	1	2	24_1_2	NA	NA	0	1	3.85699295998	None	None	None	None	1
3.0.1	2019_Mar_02_0945	s	s	2	2	Capacity	32	ABS	0	0	1	1	24_1_1	NA	NA	0	1	2.84554696083	None	None	None	None	1
3.0.1	2019_Mar_02_0945	s	s	2	2	Capacity	33	1_1	1	1	1	4	23_1_4	0	3	1	0	0.501055955887	-299.0	164.0	-300.0	163.0	1
3.0.1	2019_Mar_02_0945	s	s	2	2	Capacity	34	1_2	1	2	1	3	23_1_3	0	1	1	0	1.45812416077	-511.0	-188.0	-508.0	-184.0	1
3.0.1	2019_Mar_02_0945	s	s	2	2	Capacity	35	ABS	0	0	1	3	24_1_3	NA	NA	0	1	4.51856088638	None	None	None	None	1
3.0.1	2019_Mar_02_0945	s	s	2	2	Capacity	36	1_1	1	1	1	3	23_1_3	0	2	1	0	0.822561979294	327.0	152.0	330.0	153.0	1
3.0.1	2019_Mar_02_0945	s	s	2	2	Capacity	37	1_4	1	4	1	2	23_1_2	0	2	1	0	0.705159902573	31.0	284.0	32.0	294.0	1
3.0.1	2019_Mar_02_0945	s	s	2	2	Capacity	38	ABS	0	0	1	4	24_1_4	NA	NA	0	1	1.28122901917	None	None	None	None	1
3.0.1	2019_Mar_02_0945	s	s	2	2	Capacity	39	ABS	0	0	1	1	24_1_1	NA	NA	0	1	3.37470507622	None	None	None	None	1
3.0.1	2019_Mar_02_0945	s	s	2	2	Capacity	40	1_4	1	4	1	1	23_1_1	0	3	1	0	0.782199859619	386.0	122.0	386.0	123.0	1
3.0.1	2019_Mar_02_0945	s	s	2	2	Capacity	41	1_2	1	2	1	1	23_1_1	0	-1	1	0	2.59856891632	-468.0	-407.0	-468.0	-409.0	1
3.0.1	2019_Mar_02_0945	s	s	2	2	Capacity	42	1_2	1	2	1	4	23_1_4	0	2	1	0	0.557765960693	-158.0	-207.0	-156.0	-207.0	1
3.0.1	2019_Mar_02_0945	s	s	2	2	Capacity	43	1_3	1	3	1	1	23_1_1	0	2	1	0	1.41057395935	-256.0	-379.0	-253.0	-387.0	1
3.0.1	2019_Mar_02_0945	s	s	2	2	Capacity	44	ABS	0	0	1	2	24_1_2	NA	NA	0	1	4.08336687088	None	None	None	None	1
3.0.1	2019_Mar_02_0945	s	s	2	2	Capacity	45	ABS	0	0	1	3	24_1_3	NA	NA	0	1	3.4835600853	None	None	None	None	1
3.0.1	2019_Mar_02_0945	s	s	2	2	Capacity	46	1_4	1	4	1	3	23_1_3	0	1	1	0	0.966565132141	258.0	-175.0	254.0	-175.0	1
3.0.1	2019_Mar_02_0945	s	s	2	2	Capacity	47	ABS	0	0	1	4	24_1_4	NA	NA	0	1	1.42724585533	None	None	None	None	1
3.0.1	2019_Mar_02_0945	s	s	2	2	Capacity	48	1_1	1	1	1	2	23_1_2	0	1	1	0	1.59891819954	348.0	294.0	345.0	292.0	1
3.0.1	2019_Mar_02_0945	s	s	2	2	Capacity	49	1_3	1	3	1	4	23_1_4	0	-1	1	0	0.827679872513	71.0	-293.0	63.0	-295.0	1
3.0.1	2019_Mar_02_0945	s	s	2	2	Capacity	50	ABS	0	0	1	4	24_1_4	NA	NA	0	1	2.24576210976	None	None	None	None	1
3.0.1	2019_Mar_02_0945	s	s	2	2	Capacity	51	1_1	1	1	1	4	23_1_4	0	3	1	0	0.469767808914	-368.0	-121.0	-364.0	-123.0	1
3.0.1	2019_Mar_02_0945	s	s	2	2	Capacity	52	ABS	0	0	1	1	24_1_1	NA	NA	0	1	2.35159802437	None	None	None	None	1
3.0.1	2019_Mar_02_0945	s	s	2	2	Capacity	53	1_4	1	4	1	1	23_1_1	0	3	1	0	0.592594861984	-456.0	155.0	-459.0	149.0	1
3.0.1	2019_Mar_02_0945	s	s	2	2	Capacity	54	ABS	0	0	1	4	24_1_4	NA	NA	0	1	2.12813282013	None	None	None	None	1
3.0.1	2019_Mar_02_0945	s	s	2	2	Capacity	55	1_2	1	2	1	1	23_1_1	0	-1	1	0	1.30481219292	-47.0	198.0	-53.0	194.0	1
3.0.1	2019_Mar_02_0945	s	s	2	2	Capacity	56	1_1	1	1	1	2	23_1_2	0	1	0	1	3.0101890564	195.0	-363.0	None	None	0
3.0.1	2019_Mar_02_0945	s	s	2	2	Capacity	57	ABS	0	0	1	3	24_1_3	NA	NA	0	1	4.28892111778	None	None	None	None	1
3.0.1	2019_Mar_02_0945	s	s	2	2	Capacity	58	ABS	0	0	1	2	24_1_2	NA	NA	0	1	3.46883106232	None	None	None	None	1
3.0.1	2019_Mar_02_0945	s	s	2	2	Capacity	59	1_4	1	4	1	3	23_1_3	0	1	1	0	0.662768125534	-68.0	65.0	-62.0	62.0	1
3.0.1	2019_Mar_02_0945	s	s	2	2	Capacity	60	1_4	1	4	1	2	23_1_2	0	2	1	0	0.954777002335	81.0	383.0	85.0	388.0	1
3.0.1	2019_Mar_02_0945	s	s	2	2	Capacity	61	ABS	0	0	1	4	24_1_4	NA	NA	0	1	1.95179486275	None	None	None	None	1
3.0.1	2019_Mar_02_0945	s	s	2	2	Capacity	62	ABS	0	0	1	1	24_1_1	NA	NA	0	1	3.49560809135	None	None	None	None	1
3.0.1	2019_Mar_02_0945	s	s	2	2	Capacity	63	1_3	1	3	1	1	23_1_1	0	2	1	0	1.19910097122	-446.0	385.0	-444.0	382.0	1
3.0.1	2019_Mar_02_0945	s	s	2	2	Capacity	64	ABS	0	0	1	2	24_1_2	NA	NA	0	1	4.37450313568	None	None	None	None	1
3.0.1	2019_Mar_02_0945	s	s	2	2	Capacity	65	ABS	0	0	1	1	24_1_1	NA	NA	0	1	2.66955399513	None	None	None	None	1
3.0.1	2019_Mar_02_0945	s	s	2	2	Capacity	66	ABS	0	0	1	3	24_1_3	NA	NA	0	1	2.44566988945	None	None	None	None	1
3.0.1	2019_Mar_02_0945	s	s	2	2	Capacity	67	1_3	1	3	1	2	23_1_2	0	1	1	0	2.02512288094	452.0	373.0	452.0	370.0	1
3.0.1	2019_Mar_02_0945	s	s	2	2	Capacity	68	ABS	0	0	1	3	24_1_3	NA	NA	0	1	3.96325206757	None	None	None	None	1
3.0.1	2019_Mar_02_0945	s	s	2	2	Capacity	69	1_2	1	2	1	4	23_1_4	0	2	1	0	0.966667890549	62.0	-166.0	52.0	-166.0	1
3.0.1	2019_Mar_02_0945	s	s	2	2	Capacity	70	1_1	1	1	1	3	23_1_3	0	2	1	0	1.26066088676	438.0	-285.0	434.0	-292.0	1
3.0.1	2019_Mar_02_0945	s	s	2	2	Capacity	71	1_2	1	2	1	3	23_1_3	0	1	1	0	2.0575799942	532.0	-6.0	529.0	-15.0	1
3.0.1	2019_Mar_02_0945	s	s	2	2	Capacity	72	ABS	0	0	1	2	24_1_2	NA	NA	0	1	3.77466392517	None	None	None	None	1
3.0.1	2019_Mar_02_0945	s	s	2	2	Capacity	73	ABS	0	0	1	1	24_1_1	NA	NA	0	1	2.55865812302	None	None	None	None	1
3.0.1	2019_Mar_02_0945	s	s	2	2	Capacity	74	ABS	0	0	1	3	24_1_3	NA	NA	0	1	3.75115704536	None	None	None	None	1
3.0.1	2019_Mar_02_0945	s	s	2	2	Capacity	75	ABS	0	0	1	4	24_1_4	NA	NA	0	1	2.06238079071	None	None	None	None	1
3.0.1	2019_Mar_02_0945	s	s	2	2	Capacity	76	1_3	1	3	1	2	23_1_2	0	1	1	0	2.86322879791	297.0	273.0	293.0	264.0	1
3.0.1	2019_Mar_02_0945	s	s	2	2	Capacity	77	1_2	1	2	1	1	23_1_1	0	-1	1	0	1.77812814713	-81.0	63.0	-74.0	63.0	1
3.0.1	2019_Mar_02_0945	s	s	2	2	Capacity	78	1_2	1	2	1	4	23_1_4	0	2	1	0	0.580364942551	-455.0	193.0	-458.0	194.0	1
3.0.1	2019_Mar_02_0945	s	s	2	2	Capacity	79	ABS	0	0	1	4	24_1_4	NA	NA	0	1	2.36357808113	None	None	None	None	1
3.0.1	2019_Mar_02_0945	s	s	2	2	Capacity	80	ABS	0	0	1	3	24_1_3	NA	NA	0	1	5.5976729393	None	None	None	None	1
3.0.1	2019_Mar_02_0945	s	s	2	2	Capacity	81	ABS	0	0	1	3	24_1_3	NA	NA	0	1	3.70405387878	None	None	None	None	1
3.0.1	2019_Mar_02_0945	s	s	2	2	Capacity	82	1_1	1	1	1	3	23_1_3	0	2	1	0	1.64589810371	461.0	207.0	463.0	208.0	1
3.0.1	2019_Mar_02_0945	s	s	2	2	Capacity	83	ABS	0	0	1	4	24_1_4	NA	NA	0	1	2.38287782669	None	None	None	None	1
3.0.1	2019_Mar_02_0945	s	s	2	2	Capacity	84	1_3	1	3	1	1	23_1_1	0	2	1	0	2.41448903084	-443.0	10.0	-447.0	10.0	1
3.0.1	2019_Mar_02_0945	s	s	2	2	Capacity	85	1_4	1	4	1	3	23_1_3	0	1	1	0	0.693227052689	62.0	-140.0	64.0	-141.0	1
3.0.1	2019_Mar_02_0945	s	s	2	2	Capacity	86	ABS	0	0	1	2	24_1_2	NA	NA	0	1	3.82169413567	None	None	None	None	1
3.0.1	2019_Mar_02_0945	s	s	2	2	Capacity	87	ABS	0	0	1	1	24_1_1	NA	NA	0	1	2.4691619873	None	None	None	None	1
3.0.1	2019_Mar_02_0945	s	s	2	2	Capacity	88	1_4	1	4	1	2	23_1_2	0	2	1	0	0.646568059921	-60.0	-268.0	-60.0	-266.0	1
3.0.1	2019_Mar_02_0945	s	s	2	2	Capacity	89	1_1	1	1	1	4	23_1_4	0	3	1	0	0.516814947128	-187.0	53.0	-188.0	49.0	1
3.0.1	2019_Mar_02_0945	s	s	2	2	Capacity	90	1_3	1	3	1	4	23_1_4	0	-1	1	0	0.846135139465	241.0	-39.0	241.0	-41.0	1
3.0.1	2019_Mar_02_0945	s	s	2	2	Capacity	91	ABS	0	0	1	2	24_1_2	NA	NA	0	1	2.62875509262	None	None	None	None	1
3.0.1	2019_Mar_02_0945	s	s	2	2	Capacity	92	1_1	1	1	1	2	23_1_2	0	1	1	0	2.12817406654	103.0	-181.0	99.0	-182.0	1
3.0.1	2019_Mar_02_0945	s	s	2	2	Capacity	93	1_4	1	4	1	1	23_1_1	0	3	1	0	0.804265975952	477.0	-267.0	472.0	-266.0	1
3.0.1	2019_Mar_02_0945	s	s	2	2	Capacity	94	1_2	1	2	1	3	23_1_3	0	1	1	0	2.32019996643	-367.0	-245.0	-369.0	-246.0	1
3.0.1	2019_Mar_02_0945	s	s	2	2	Capacity	95	ABS	0	0	1	2	24_1_2	NA	NA	0	1	4.12758111954	None	None	None	None	1
3.0.1	2019_Mar_02_0945	s	s	2	2	Capacity	96	ABS	0	0	1	1	24_1_1	NA	NA	0	1	2.23394203186	None	None	None	None	1
3.0.1	2019_Mar_02_0945	s	s	2	2	Capacity	1	ABS	0	0	1	1	24_1_1	NA	NA	0	1	0.613891124725	None	None	None	None	1
3.0.1	2019_Mar_02_0945	s	s	2	2	Capacity	2	1_1	1	1	2	1	23_2_1	1	0	0	1	1.06422495842	534.0	236.0	None	None	0
3.0.1	2019_Mar_02_0945	s	s	2	2	Capacity	3	4_1	4	1	1	1	23_1_1	3	0	1	0	0.320756196976	386.0	56.0	395.0	54.0	1
3.0.1	2019_Mar_02_0945	s	s	2	2	Capacity	4	ABS	0	0	4	1	24_4_1	NA	NA	0	1	0.599184989929	None	None	None	None	1
3.0.1	2019_Mar_02_0945	s	s	2	2	Capacity	5	3_1	3	1	2	1	23_2_1	1	0	1	0	0.399230003357	106.0	377.0	110.0	375.0	1
3.0.1	2019_Mar_02_0945	s	s	2	2	Capacity	6	ABS	0	0	3	1	24_3_1	NA	NA	0	1	0.622699975967	None	None	None	None	1
3.0.1	2019_Mar_02_0945	s	s	2	2	Capacity	7	2_1	2	1	1	1	23_1_1	-1	0	1	0	2.02516412735	96.0	-292.0	97.0	-295.0	1
3.0.1	2019_Mar_02_0945	s	s	2	2	Capacity	8	3_1	3	1	4	1	23_4_1	-1	0	0	1	0.434502124786	-280.0	140.0	None	None	0
3.0.1	2019_Mar_02_0945	s	s	2	2	Capacity	9	1_1	1	1	3	1	23_3_1	2	0	1	0	0.422811031342	-345.0	-14.0	-335.0	-14.0	1
3.0.1	2019_Mar_02_0945	s	s	2	2	Capacity	10	ABS	0	0	2	1	24_2_1	NA	NA	0	1	1.15639686584	None	None	None	None	1
3.0.1	2019_Mar_02_0945	s	s	2	2	Capacity	11	ABS	0	0	1	1	24_1_1	NA	NA	0	1	1.45773100853	None	None	None	None	1
3.0.1	2019_Mar_02_0945	s	s	2	2	Capacity	12	ABS	0	0	2	1	24_2_1	NA	NA	0	1	1.32488703728	None	None	None	None	1
3.0.1	2019_Mar_02_0945	s	s	2	2	Capacity	13	ABS	0	0	1	1	24_1_1	NA	NA	0	1	1.28635287285	None	None	None	None	1
3.0.1	2019_Mar_02_0945	s	s	2	2	Capacity	14	ABS	0	0	4	1	24_4_1	NA	NA	0	1	1.01523804665	None	None	None	None	1
3.0.1	2019_Mar_02_0945	s	s	2	2	Capacity	15	1_1	1	1	4	1	23_4_1	3	0	1	0	0.383373022079	373.0	312.0	375.0	314.0	1
3.0.1	2019_Mar_02_0945	s	s	2	2	Capacity	16	ABS	0	0	3	1	24_3_1	NA	NA	0	1	1.6388771534	None	None	None	None	1
3.0.1	2019_Mar_02_0945	s	s	2	2	Capacity	17	3_1	3	1	1	1	23_1_1	2	0	1	0	0.704920053482	-464.0	-370.0	-457.0	-363.0	1
3.0.1	2019_Mar_02_0945	s	s	2	2	Capacity	18	ABS	0	0	4	1	24_4_1	NA	NA	0	1	0.920357942581	None	None	None	None	1
3.0.1	2019_Mar_02_0945	s	s	2	2	Capacity	19	4_1	4	1	3	1	23_3_1	1	0	1	0	0.404605865479	223.0	119.0	229.0	117.0	1
3.0.1	2019_Mar_02_0945	s	s	2	2	Capacity	20	2_1	2	1	4	1	23_4_1	2	0	1	0	0.437418937683	-438.0	340.0	-438.0	334.0	1
3.0.1	2019_Mar_02_0945	s	s	2	2	Capacity	21	4_1	4	1	2	1	23_2_1	2	0	1	0	0.511699914932	-184.0	226.0	-176.0	228.0	1
3.0.1	2019_Mar_02_0945	s	s	2	2	Capacity	22	ABS	0	0	3	1	24_3_1	NA	NA	1	0	0.469787120819	None	None	54.0	-2.0	0
3.0.1	2019_Mar_02_0945	s	s	2	2	Capacity	23	ABS	0	0	2	1	24_2_1	NA	NA	0	1	0.84907078743	None	None	None	None	1
3.0.1	2019_Mar_02_0945	s	s	2	2	Capacity	24	2_1	2	1	3	1	23_3_1	1	0	1	0	0.646211862564	-93.0	356.0	-96.0	363.0	1
3.0.1	2019_Mar_02_0945	s	s	2	2	Capacity	25	ABS	0	0	3	1	24_3_1	NA	NA	0	1	1.60534691811	None	None	None	None	1
3.0.1	2019_Mar_02_0945	s	s	2	2	Capacity	26	ABS	0	0	3	1	24_3_1	NA	NA	0	1	1.04598212242	None	None	None	None	1
3.0.1	2019_Mar_02_0945	s	s	2	2	Capacity	27	2_1	2	1	4	1	23_4_1	2	0	1	0	0.567179203033	154.0	-124.0	150.0	-127.0	1
3.0.1	2019_Mar_02_0945	s	s	2	2	Capacity	28	ABS	0	0	1	1	24_1_1	NA	NA	0	1	1.39891004562	None	None	None	None	1
3.0.1	2019_Mar_02_0945	s	s	2	2	Capacity	29	ABS	0	0	1	1	24_1_1	NA	NA	0	1	1.36368012428	None	None	None	None	1
3.0.1	2019_Mar_02_0945	s	s	2	2	Capacity	30	3_1	3	1	2	1	23_2_1	1	0	1	0	0.606815099716	214.0	363.0	217.0	372.0	1
3.0.1	2019_Mar_02_0945	s	s	2	2	Capacity	31	ABS	0	0	4	1	24_4_1	NA	NA	0	1	1.29305696487	None	None	None	None	1
3.0.1	2019_Mar_02_0945	s	s	2	2	Capacity	32	2_1	2	1	1	1	23_1_1	-1	0	1	0	1.20187211037	-273.0	-270.0	-271.0	-267.0	1
3.0.1	2019_Mar_02_0945	s	s	2	2	Capacity	33	1_1	1	1	3	1	23_3_1	2	0	1	0	0.474048137665	-303.0	189.0	-304.0	190.0	1
3.0.1	2019_Mar_02_0945	s	s	2	2	Capacity	34	4_1	4	1	3	1	23_3_1	1	0	1	0	0.451394796371	-155.0	82.0	-154.0	79.0	1
3.0.1	2019_Mar_02_0945	s	s	2	2	Capacity	35	ABS	0	0	4	1	24_4_1	NA	NA	0	1	1.17546486855	None	None	None	None	1
3.0.1	2019_Mar_02_0945	s	s	2	2	Capacity	36	ABS	0	0	1	1	24_1_1	NA	NA	0	1	2.1045820713	None	None	None	None	1
3.0.1	2019_Mar_02_0945	s	s	2	2	Capacity	37	ABS	0	0	4	1	24_4_1	NA	NA	0	1	1.25607204437	None	None	None	None	1
3.0.1	2019_Mar_02_0945	s	s	2	2	Capacity	38	4_1	4	1	2	1	23_2_1	2	0	1	0	0.383756160736	391.0	215.0	399.0	220.0	1
3.0.1	2019_Mar_02_0945	s	s	2	2	Capacity	39	ABS	0	0	3	1	24_3_1	NA	NA	0	1	1.23427081108	None	None	None	None	1
3.0.1	2019_Mar_02_0945	s	s	2	2	Capacity	40	ABS	0	0	2	1	24_2_1	NA	NA	0	1	1.11660909653	None	None	None	None	1
3.0.1	2019_Mar_02_0945	s	s	2	2	Capacity	41	2_1	2	1	3	1	23_3_1	1	0	1	0	0.50209403038	180.0	93.0	186.0	91.0	1
3.0.1	2019_Mar_02_0945	s	s	2	2	Capacity	42	1_1	1	1	2	1	23_2_1	1	0	1	0	2.29692983627	-2.0	-85.0	-4.0	-84.0	1
3.0.1	2019_Mar_02_0945	s	s	2	2	Capacity	43	4_1	4	1	1	1	23_1_1	3	0	1	0	0.528637170792	-224.0	-400.0	-229.0	-403.0	1
3.0.1	2019_Mar_02_0945	s	s	2	2	Capacity	44	3_1	3	1	4	1	23_4_1	-1	0	1	0	0.393739938736	18.0	126.0	21.0	128.0	1
3.0.1	2019_Mar_02_0945	s	s	2	2	Capacity	45	ABS	0	0	2	1	24_2_1	NA	NA	0	1	2.05758404732	None	None	None	None	1
3.0.1	2019_Mar_02_0945	s	s	2	2	Capacity	46	ABS	0	0	2	1	24_2_1	NA	NA	0	1	1.50191116333	None	None	None	None	1
3.0.1	2019_Mar_02_0945	s	s	2	2	Capacity	47	3_1	3	1	1	1	23_1_1	2	0	1	0	0.474617958069	-67.0	82.0	-65.0	90.0	1
3.0.1	2019_Mar_02_0945	s	s	2	2	Capacity	48	1_1	1	1	4	1	23_4_1	3	0	1	0	0.458004951477	-290.0	233.0	-288.0	237.0	1
3.0.1	2019_Mar_02_0945	s	s	2	2	Capacity	49	ABS	0	0	4	1	24_4_1	NA	NA	0	1	0.822585105896	None	None	None	None	1
3.0.1	2019_Mar_02_0945	s	s	2	2	Capacity	50	ABS	0	0	4	1	24_4_1	NA	NA	0	1	1.06966304779	None	None	None	None	1
3.0.1	2019_Mar_02_0945	s	s	2	2	Capacity	51	1_1	1	1	2	1	23_2_1	1	0	0	1	1.20184397697	-71.0	-382.0	None	None	0
3.0.1	2019_Mar_02_0945	s	s	2	2	Capacity	52	2_1	2	1	1	1	23_1_1	-1	0	1	0	3.98641896248	-48.0	-83.0	-45.0	-88.0	1
3.0.1	2019_Mar_02_0945	s	s	2	2	Capacity	53	ABS	0	0	1	1	24_1_1	NA	NA	0	1	1.98114991188	None	None	None	None	1
3.0.1	2019_Mar_02_0945	s	s	2	2	Capacity	54	ABS	0	0	3	1	24_3_1	NA	NA	0	1	1.62791895866	None	None	None	None	1
3.0.1	2019_Mar_02_0945	s	s	2	2	Capacity	55	ABS	0	0	4	1	24_4_1	NA	NA	0	1	1.01098895073	None	None	None	None	1
3.0.1	2019_Mar_02_0945	s	s	2	2	Capacity	56	4_1	4	1	1	1	23_1_1	3	0	1	0	0.496128082275	-112.0	217.0	-119.0	219.0	1
3.0.1	2019_Mar_02_0945	s	s	2	2	Capacity	57	1_1	1	1	3	1	23_3_1	2	0	1	0	1.09337902069	-393.0	-374.0	-402.0	-368.0	1
3.0.1	2019_Mar_02_0945	s	s	2	2	Capacity	58	4_1	4	1	3	1	23_3_1	1	0	1	0	0.464625120163	430.0	-222.0	433.0	-230.0	1
3.0.1	2019_Mar_02_0945	s	s	2	2	Capacity	59	ABS	0	0	3	1	24_3_1	NA	NA	0	1	1.22246813774	None	None	None	None	1
3.0.1	2019_Mar_02_0945	s	s	2	2	Capacity	60	3_1	3	1	2	1	23_2_1	1	0	1	0	0.528583049774	90.0	-176.0	89.0	-175.0	1
3.0.1	2019_Mar_02_0945	s	s	2	2	Capacity	61	3_1	3	1	1	1	23_1_1	2	0	1	0	0.787312984467	-381.0	-201.0	-374.0	-197.0	1
3.0.1	2019_Mar_02_0945	s	s	2	2	Capacity	62	ABS	0	0	3	1	24_3_1	NA	NA	0	1	0.910304784775	None	None	None	None	1
3.0.1	2019_Mar_02_0945	s	s	2	2	Capacity	63	ABS	0	0	1	1	24_1_1	NA	NA	0	1	2.0693128109	None	None	None	None	1
3.0.1	2019_Mar_02_0945	s	s	2	2	Capacity	64	2_1	2	1	3	1	23_3_1	1	0	1	0	1.03965115547	23.0	-349.0	25.0	-351.0	1
3.0.1	2019_Mar_02_0945	s	s	2	2	Capacity	65	1_1	1	1	4	1	23_4_1	3	0	1	0	0.446273088455	-394.0	323.0	-397.0	330.0	1
3.0.1	2019_Mar_02_0945	s	s	2	2	Capacity	66	ABS	0	0	2	1	24_2_1	NA	NA	0	1	0.968939781189	None	None	None	None	1
3.0.1	2019_Mar_02_0945	s	s	2	2	Capacity	67	ABS	0	0	1	1	24_1_1	NA	NA	0	1	1.34009099007	None	None	None	None	1
3.0.1	2019_Mar_02_0945	s	s	2	2	Capacity	68	ABS	0	0	2	1	24_2_1	NA	NA	0	1	1.08887410164	None	None	None	None	1
3.0.1	2019_Mar_02_0945	s	s	2	2	Capacity	69	3_1	3	1	4	1	23_4_1	-1	0	1	0	0.563958883286	373.0	-269.0	374.0	-266.0	1
3.0.1	2019_Mar_02_0945	s	s	2	2	Capacity	70	2_1	2	1	4	1	23_4_1	2	0	1	0	0.427551031113	-487.0	191.0	-496.0	197.0	1
3.0.1	2019_Mar_02_0945	s	s	2	2	Capacity	71	4_1	4	1	2	1	23_2_1	2	0	1	0	0.474647045135	266.0	-109.0	269.0	-115.0	1
3.0.1	2019_Mar_02_0945	s	s	2	2	Capacity	72	ABS	0	0	2	1	24_2_1	NA	NA	0	1	1.24606013298	None	None	None	None	1
3.0.1	2019_Mar_02_0945	s	s	2	2	Capacity	73	ABS	0	0	4	1	24_4_1	NA	NA	0	1	0.72317814827	None	None	None	None	1
3.0.1	2019_Mar_02_0945	s	s	2	2	Capacity	74	3_1	3	1	2	1	23_2_1	1	0	1	0	0.716854095459	365.0	-62.0	361.0	-61.0	1
3.0.1	2019_Mar_02_0945	s	s	2	2	Capacity	75	ABS	0	0	3	1	24_3_1	NA	NA	0	1	1.06966209412	None	None	None	None	1
3.0.1	2019_Mar_02_0945	s	s	2	2	Capacity	76	ABS	0	0	1	1	24_1_1	NA	NA	0	1	1.41066503525	None	None	None	None	1
3.0.1	2019_Mar_02_0945	s	s	2	2	Capacity	77	3_1	3	1	4	1	23_4_1	-1	0	1	0	0.505345821381	449.0	330.0	448.0	333.0	1
3.0.1	2019_Mar_02_0945	s	s	2	2	Capacity	78	ABS	0	0	3	1	24_3_1	NA	NA	0	1	1.03427791595	None	None	None	None	1
3.0.1	2019_Mar_02_0945	s	s	2	2	Capacity	79	1_1	1	1	2	1	23_2_1	1	0	1	0	0.886651992798	5.0	80.0	6.0	76.0	1
3.0.1	2019_Mar_02_0945	s	s	2	2	Capacity	80	ABS	0	0	4	1	24_4_1	NA	NA	0	1	0.638618946075	None	None	None	None	1
3.0.1	2019_Mar_02_0945	s	s	2	2	Capacity	81	1_1	1	1	3	1	23_3_1	2	0	1	0	0.496592998505	-58.0	-210.0	-50.0	-207.0	1
3.0.1	2019_Mar_02_0945	s	s	2	2	Capacity	82	ABS	0	0	2	1	24_2_1	NA	NA	0	1	1.49079918861	None	None	None	None	1
3.0.1	2019_Mar_02_0945	s	s	2	2	Capacity	83	ABS	0	0	4	1	24_4_1	NA	NA	0	1	1.16366195679	None	None	None	None	1
3.0.1	2019_Mar_02_0945	s	s	2	2	Capacity	84	3_1	3	1	1	1	23_1_1	2	0	1	0	0.580842971802	79.0	160.0	88.0	157.0	1
3.0.1	2019_Mar_02_0945	s	s	2	2	Capacity	85	2_1	2	1	1	1	23_1_1	-1	0	1	0	1.76355099678	-457.0	-40.0	-451.0	-38.0	1
3.0.1	2019_Mar_02_0945	s	s	2	2	Capacity	86	2_1	2	1	4	1	23_4_1	2	0	1	0	0.629276990891	-226.0	220.0	-233.0	224.0	1
3.0.1	2019_Mar_02_0945	s	s	2	2	Capacity	87	ABS	0	0	1	1	24_1_1	NA	NA	0	1	1.84871411324	None	None	None	None	1
3.0.1	2019_Mar_02_0945	s	s	2	2	Capacity	88	ABS	0	0	2	1	24_2_1	NA	NA	0	1	1.36399412155	None	None	None	None	1
3.0.1	2019_Mar_02_0945	s	s	2	2	Capacity	89	4_1	4	1	2	1	23_2_1	2	0	1	0	0.481880187988	477.0	-7.0	476.0	-6.0	1
3.0.1	2019_Mar_02_0945	s	s	2	2	Capacity	90	1_1	1	1	4	1	23_4_1	3	0	1	0	0.486794948578	-60.0	-391.0	-62.0	-395.0	1
3.0.1	2019_Mar_02_0945	s	s	2	2	Capacity	91	ABS	0	0	2	1	24_2_1	NA	NA	0	1	0.940217018127	None	None	None	None	1
3.0.1	2019_Mar_02_0945	s	s	2	2	Capacity	92	4_1	4	1	1	1	23_1_1	3	0	1	0	0.470060110092	-521.0	-364.0	-529.0	-366.0	1
3.0.1	2019_Mar_02_0945	s	s	2	2	Capacity	93	4_1	4	1	3	1	23_3_1	1	0	1	0	0.908827066422	117.0	311.0	121.0	312.0	1
3.0.1	2019_Mar_02_0945	s	s	2	2	Capacity	94	2_1	2	1	3	1	23_3_1	1	0	1	0	0.620092868805	-463.0	48.0	-472.0	51.0	1
3.0.1	2019_Mar_02_0945	s	s	2	2	Capacity	95	ABS	0	0	1	1	24_1_1	NA	NA	0	1	1.46959996223	None	None	None	None	1
3.0.1	2019_Mar_02_0945	s	s	2	2	Capacity	96	ABS	0	0	3	1	24_3_1	NA	NA	0	1	1.65765285492	None	None	None	None	1
3.0.1	2019_Mar_02_0945	s	s	2	2	SIC	1	ABS	0	0	4	2	24_4_2	NA	NA	0	1	1.93134212494	None	None	None	None	1
3.0.1	2019_Mar_02_0945	s	s	2	2	SIC	2	3_3	3	3	4	4	23_4_4	-1	-1	1	0	0.427250862122	-57.0	-110.0	-55.0	-111.0	1
3.0.1	2019_Mar_02_0945	s	s	2	2	SIC	3	ABS	0	0	3	3	24_3_3	NA	NA	0	1	3.10433316231	None	None	None	None	1
3.0.1	2019_Mar_02_0945	s	s	2	2	SIC	4	3_4	3	4	1	2	23_1_2	2	2	1	0	0.410982131958	148.0	43.0	152.0	42.0	1
3.0.1	2019_Mar_02_0945	s	s	2	2	SIC	5	ABS	0	0	4	4	24_4_4	NA	NA	0	1	2.42768001556	None	None	None	None	1
3.0.1	2019_Mar_02_0945	s	s	2	2	SIC	6	3_3	3	3	3	4	23_3_4	0	-1	1	0	0.554991006851	-209.0	19.0	-204.0	18.0	1
3.0.1	2019_Mar_02_0945	s	s	2	2	SIC	7	ABS	0	0	1	1	24_1_1	NA	NA	0	1	3.33416414261	None	None	None	None	1
3.0.1	2019_Mar_02_0945	s	s	2	2	SIC	8	4_2	4	2	4	4	23_4_4	0	2	1	0	0.564038991928	326.0	-201.0	326.0	-201.0	1
3.0.1	2019_Mar_02_0945	s	s	2	2	SIC	9	2_2	2	2	3	4	23_3_4	1	2	1	0	0.578377008438	233.0	-407.0	236.0	-406.0	1
3.0.1	2019_Mar_02_0945	s	s	2	2	SIC	10	ABS	0	0	3	2	24_3_2	NA	NA	0	1	4.9909029007	None	None	None	None	1
3.0.1	2019_Mar_02_0945	s	s	2	2	SIC	11	ABS	0	0	1	4	24_1_4	NA	NA	0	1	1.50807905197	None	None	None	None	1
3.0.1	2019_Mar_02_0945	s	s	2	2	SIC	12	4_2	4	2	2	4	23_2_4	2	2	1	0	0.469805955887	-330.0	-235.0	-329.0	-231.0	1
3.0.1	2019_Mar_02_0945	s	s	2	2	SIC	13	ABS	0	0	2	3	24_2_3	NA	NA	0	1	3.60213494301	None	None	None	None	1
3.0.1	2019_Mar_02_0945	s	s	2	2	SIC	14	1_4	1	4	3	2	23_3_2	2	2	1	0	0.4700319767	297.0	-139.0	296.0	-135.0	1
3.0.1	2019_Mar_02_0945	s	s	2	2	SIC	15	ABS	0	0	2	4	24_2_4	NA	NA	0	1	1.4515748024	None	None	None	None	1
3.0.1	2019_Mar_02_0945	s	s	2	2	SIC	16	ABS	0	0	1	1	24_1_1	NA	NA	0	1	3.17527413368	None	None	None	None	1
3.0.1	2019_Mar_02_0945	s	s	2	2	SIC	17	ABS	0	0	4	2	24_4_2	NA	NA	0	1	2.83381605148	None	None	None	None	1
3.0.1	2019_Mar_02_0945	s	s	2	2	SIC	18	1_3	1	3	3	3	23_3_3	2	0	1	0	0.461362123489	-119.0	-332.0	-121.0	-333.0	1
3.0.1	2019_Mar_02_0945	s	s	2	2	SIC	19	ABS	0	0	1	2	24_1_2	NA	NA	0	1	3.58653378487	None	None	None	None	1
3.0.1	2019_Mar_02_0945	s	s	2	2	SIC	20	3_2	3	2	4	2	23_4_2	-1	0	1	0	0.410982847214	-208.0	342.0	-206.0	338.0	1
3.0.1	2019_Mar_02_0945	s	s	2	2	SIC	21	2_4	2	4	3	4	23_3_4	1	0	1	0	0.940190076828	421.0	-123.0	420.0	-120.0	1
3.0.1	2019_Mar_02_0945	s	s	2	2	SIC	22	ABS	0	0	1	4	24_1_4	NA	NA	0	1	1.76349878311	None	None	None	None	1
3.0.1	2019_Mar_02_0945	s	s	2	2	SIC	23	4_4	4	4	4	3	23_4_3	0	1	1	0	0.634457111359	231.0	46.0	228.0	43.0	1
3.0.1	2019_Mar_02_0945	s	s	2	2	SIC	24	ABS	0	0	2	4	24_2_4	NA	NA	0	1	1.95813918114	None	None	None	None	1
3.0.1	2019_Mar_02_0945	s	s	2	2	SIC	25	3_2	3	2	4	3	23_4_3	-1	1	1	0	0.458039045334	-204.0	76.0	-210.0	77.0	1
3.0.1	2019_Mar_02_0945	s	s	2	2	SIC	26	1_3	1	3	4	4	23_4_4	3	-1	1	0	0.410960912704	-199.0	-395.0	-199.0	-397.0	1
3.0.1	2019_Mar_02_0945	s	s	2	2	SIC	27	ABS	0	0	2	3	24_2_3	NA	NA	0	1	4.55571699142	None	None	None	None	1
3.0.1	2019_Mar_02_0945	s	s	2	2	SIC	28	1_2	1	2	2	1	23_2_1	1	-1	1	0	1.73110103607	498.0	234.0	509.0	238.0	1
3.0.1	2019_Mar_02_0945	s	s	2	2	SIC	29	4_1	4	1	4	2	23_4_2	0	1	1	0	1.2606549263	446.0	75.0	440.0	71.0	1
3.0.1	2019_Mar_02_0945	s	s	2	2	SIC	30	4_4	4	4	3	3	23_3_3	1	1	1	0	0.487641096115	-269.0	262.0	-266.0	261.0	1
3.0.1	2019_Mar_02_0945	s	s	2	2	SIC	31	1_2	1	2	2	2	23_2_2	1	0	1	0	2.73787999153	-368.0	300.0	-378.0	299.0	1
3.0.1	2019_Mar_02_0945	s	s	2	2	SIC	32	4_2	4	2	1	3	23_1_3	3	1	1	0	0.469732999802	-378.0	36.0	-380.0	41.0	1
3.0.1	2019_Mar_02_0945	s	s	2	2	SIC	33	ABS	0	0	4	3	24_4_3	NA	NA	0	1	4.59806919098	None	None	None	None	1
3.0.1	2019_Mar_02_0945	s	s	2	2	SIC	34	ABS	0	0	4	2	24_4_2	NA	NA	0	1	4.2060110569	None	None	None	None	1
3.0.1	2019_Mar_02_0945	s	s	2	2	SIC	35	ABS	0	0	2	4	24_2_4	NA	NA	0	1	2.23397898674	None	None	None	None	1
3.0.1	2019_Mar_02_0945	s	s	2	2	SIC	36	2_2	2	2	2	4	23_2_4	0	2	1	0	1.59891605377	533.0	69.0	532.0	70.0	1
3.0.1	2019_Mar_02_0945	s	s	2	2	SIC	37	ABS	0	0	2	2	24_2_2	NA	NA	0	1	4.04514813423	None	None	None	None	1
3.0.1	2019_Mar_02_0945	s	s	2	2	SIC	38	ABS	0	0	3	2	24_3_2	NA	NA	0	1	2.83379006386	None	None	None	None	1
3.0.1	2019_Mar_02_0945	s	s	2	2	SIC	39	3_2	3	2	1	4	23_1_4	2	2	1	0	0.519581079483	-30.0	-37.0	-29.0	-32.0	1
3.0.1	2019_Mar_02_0945	s	s	2	2	SIC	40	ABS	0	0	4	2	24_4_2	NA	NA	0	1	3.2888469696	None	None	None	None	1
3.0.1	2019_Mar_02_0945	s	s	2	2	SIC	41	3_3	3	3	2	2	23_2_2	1	1	1	0	0.540778875351	-422.0	24.0	-411.0	25.0	1
3.0.1	2019_Mar_02_0945	s	s	2	2	SIC	42	ABS	0	0	2	1	24_2_1	NA	NA	0	1	2.72099304199	None	None	None	None	1
3.0.1	2019_Mar_02_0945	s	s	2	2	SIC	43	4_2	4	2	1	1	23_1_1	3	-1	1	0	0.451105833054	-342.0	326.0	-335.0	326.0	1
3.0.1	2019_Mar_02_0945	s	s	2	2	SIC	44	2_1	2	1	1	1	23_1_1	-1	0	0	1	1.88107085228	-508.0	-260.0	None	None	0
3.0.1	2019_Mar_02_0945	s	s	2	2	SIC	45	3_3	3	3	3	1	23_3_1	0	2	1	0	1.111109972	-268.0	373.0	-268.0	375.0	1
3.0.1	2019_Mar_02_0945	s	s	2	2	SIC	46	2_4	2	4	2	2	23_2_2	0	2	1	0	2.85733509064	-346.0	-339.0	-341.0	-331.0	1
3.0.1	2019_Mar_02_0945	s	s	2	2	SIC	47	ABS	0	0	1	3	24_1_3	NA	NA	0	1	4.04993700981	None	None	None	None	1
3.0.1	2019_Mar_02_0945	s	s	2	2	SIC	48	2_1	2	1	3	4	23_3_4	1	3	1	0	0.446455955505	44.0	236.0	44.0	232.0	1
3.0.1	2019_Mar_02_0945	s	s	2	2	SIC	49	ABS	0	0	3	1	24_3_1	NA	NA	0	1	3.11606407166	None	None	None	None	1
3.0.1	2019_Mar_02_0945	s	s	2	2	SIC	50	ABS	0	0	1	1	24_1_1	NA	NA	0	1	2.50447797775	None	None	None	None	1
3.0.1	2019_Mar_02_0945	s	s	2	2	SIC	51	ABS	0	0	3	2	24_3_2	NA	NA	0	1	4.15098881721	None	None	None	None	1
3.0.1	2019_Mar_02_0945	s	s	2	2	SIC	52	1_2	1	2	3	4	23_3_4	2	2	1	0	0.481585979462	-206.0	-170.0	-199.0	-168.0	1
3.0.1	2019_Mar_02_0945	s	s	2	2	SIC	53	1_4	1	4	2	1	23_2_1	1	3	1	0	0.763809919357	144.0	-169.0	148.0	-170.0	1
3.0.1	2019_Mar_02_0945	s	s	2	2	SIC	54	ABS	0	0	4	2	24_4_2	NA	NA	0	1	3.99073386192	None	None	None	None	1
3.0.1	2019_Mar_02_0945	s	s	2	2	SIC	55	1_3	1	3	3	1	23_3_1	2	2	1	0	0.496227025986	148.0	-160.0	153.0	-157.0	1
3.0.1	2019_Mar_02_0945	s	s	2	2	SIC	56	1_2	1	2	4	2	23_4_2	3	0	1	0	0.505664110184	336.0	-343.0	341.0	-347.0	1
3.0.1	2019_Mar_02_0945	s	s	2	2	SIC	57	4_2	4	2	4	1	23_4_1	0	-1	1	0	1.58703613281	479.0	-208.0	475.0	-206.0	1
3.0.1	2019_Mar_02_0945	s	s	2	2	SIC	58	3_4	3	4	1	4	23_1_4	2	0	1	0	0.540367126465	-23.0	-75.0	-29.0	-70.0	1
3.0.1	2019_Mar_02_0945	s	s	2	2	SIC	59	ABS	0	0	1	1	24_1_1	NA	NA	0	1	3.82172894478	None	None	None	None	1
3.0.1	2019_Mar_02_0945	s	s	2	2	SIC	60	ABS	0	0	1	4	24_1_4	NA	NA	0	1	2.51621890068	None	None	None	None	1
3.0.1	2019_Mar_02_0945	s	s	2	2	SIC	61	3_4	3	4	1	1	23_1_1	2	3	1	0	0.496183872223	149.0	-113.0	147.0	-107.0	1
3.0.1	2019_Mar_02_0945	s	s	2	2	SIC	62	3_1	3	1	4	4	23_4_4	-1	3	1	0	0.501679182053	451.0	14.0	458.0	15.0	1
3.0.1	2019_Mar_02_0945	s	s	2	2	SIC	63	3_3	3	3	1	2	23_1_2	2	1	1	0	0.931224107742	481.0	382.0	488.0	386.0	1
3.0.1	2019_Mar_02_0945	s	s	2	2	SIC	64	2_1	2	1	4	2	23_4_2	2	1	1	0	0.411115884781	532.0	224.0	528.0	222.0	1
3.0.1	2019_Mar_02_0945	s	s	2	2	SIC	65	2_2	2	2	4	4	23_4_4	2	2	1	0	0.415738105774	-457.0	193.0	-457.0	191.0	1
3.0.1	2019_Mar_02_0945	s	s	2	2	SIC	66	ABS	0	0	2	3	24_2_3	NA	NA	0	1	3.68092703819	None	None	None	None	1
3.0.1	2019_Mar_02_0945	s	s	2	2	SIC	67	4_3	4	3	3	3	23_3_3	1	0	1	0	0.481606006622	366.0	-73.0	369.0	-72.0	1
3.0.1	2019_Mar_02_0945	s	s	2	2	SIC	68	1_3	1	3	2	2	23_2_2	1	1	1	0	2.34665584564	213.0	-158.0	217.0	-161.0	1
3.0.1	2019_Mar_02_0945	s	s	2	2	SIC	69	4_4	4	4	1	3	23_1_3	3	1	1	0	0.46976685524	483.0	-125.0	473.0	-118.0	1
3.0.1	2019_Mar_02_0945	s	s	2	2	SIC	70	ABS	0	0	4	3	24_4_3	NA	NA	0	1	2.76824903488	None	None	None	None	1
3.0.1	2019_Mar_02_0945	s	s	2	2	SIC	71	1_3	1	3	3	2	23_3_2	2	1	1	0	0.810902118683	-456.0	-14.0	-456.0	-11.0	1
3.0.1	2019_Mar_02_0945	s	s	2	2	SIC	72	ABS	0	0	1	2	24_1_2	NA	NA	0	1	4.88028597832	None	None	None	None	1
3.0.1	2019_Mar_02_0945	s	s	2	2	SIC	73	2_3	2	3	4	2	23_4_2	2	1	1	0	0.392286777496	238.0	-201.0	230.0	-201.0	1
3.0.1	2019_Mar_02_0945	s	s	2	2	SIC	74	ABS	0	0	3	1	24_3_1	NA	NA	0	1	2.79153203964	None	None	None	None	1
3.0.1	2019_Mar_02_0945	s	s	2	2	SIC	75	3_4	3	4	2	4	23_2_4	1	0	1	0	0.886029005051	-121.0	-242.0	-115.0	-236.0	1
3.0.1	2019_Mar_02_0945	s	s	2	2	SIC	76	ABS	0	0	3	2	24_3_2	NA	NA	1	0	0.693293094635	None	None	-250.0	-228.0	0
3.0.1	2019_Mar_02_0945	s	s	2	2	SIC	77	ABS	0	0	2	1	24_2_1	NA	NA	0	1	2.91342401505	None	None	None	None	1
3.0.1	2019_Mar_02_0945	s	s	2	2	SIC	78	1_3	1	3	1	4	23_1_4	0	-1	1	0	1.43050503731	-64.0	-214.0	-69.0	-217.0	1
3.0.1	2019_Mar_02_0945	s	s	2	2	SIC	79	2_3	2	3	3	4	23_3_4	1	-1	1	0	0.686340808868	456.0	128.0	451.0	126.0	1
3.0.1	2019_Mar_02_0945	s	s	2	2	SIC	80	1_3	1	3	3	4	23_3_4	2	-1	1	0	0.736221075058	-510.0	-350.0	-510.0	-351.0	1
3.0.1	2019_Mar_02_0945	s	s	2	2	SIC	81	ABS	0	0	1	1	24_1_1	NA	NA	0	1	3.51593899727	None	None	None	None	1
3.0.1	2019_Mar_02_0945	s	s	2	2	SIC	82	ABS	0	0	2	3	24_2_3	NA	NA	0	1	2.85369110107	None	None	None	None	1
3.0.1	2019_Mar_02_0945	s	s	2	2	SIC	83	1_1	1	1	2	3	23_2_3	1	2	1	0	0.49622797966	-67.0	-14.0	-68.0	-15.0	1
3.0.1	2019_Mar_02_0945	s	s	2	2	SIC	84	4_4	4	4	2	1	23_2_1	2	3	1	0	0.501340150833	521.0	-325.0	526.0	-324.0	1
3.0.1	2019_Mar_02_0945	s	s	2	2	SIC	85	ABS	0	0	2	4	24_2_4	NA	NA	0	1	1.99868607521	None	None	None	None	1
3.0.1	2019_Mar_02_0945	s	s	2	2	SIC	86	ABS	0	0	2	1	24_2_1	NA	NA	0	1	3.09769701958	None	None	None	None	1
3.0.1	2019_Mar_02_0945	s	s	2	2	SIC	87	ABS	0	0	1	2	24_1_2	NA	NA	0	1	5.23825907707	None	None	None	None	1
3.0.1	2019_Mar_02_0945	s	s	2	2	SIC	88	ABS	0	0	4	2	24_4_2	NA	NA	0	1	2.85734891891	None	None	None	None	1
3.0.1	2019_Mar_02_0945	s	s	2	2	SIC	89	ABS	0	0	2	1	24_2_1	NA	NA	0	1	2.07455420494	None	None	None	None	1
3.0.1	2019_Mar_02_0945	s	s	2	2	SIC	90	ABS	0	0	3	3	24_3_3	NA	NA	0	1	3.5540971756	None	None	None	None	1
3.0.1	2019_Mar_02_0945	s	s	2	2	SIC	91	1_3	1	3	1	2	23_1_2	0	1	1	0	2.12811803818	27.0	339.0	32.0	340.0	1
3.0.1	2019_Mar_02_0945	s	s	2	2	SIC	92	ABS	0	0	1	3	24_1_3	NA	NA	0	1	4.41516590118	None	None	None	None	1
3.0.1	2019_Mar_02_0945	s	s	2	2	SIC	93	ABS	0	0	2	2	24_2_2	NA	NA	0	1	3.6618449688	None	None	None	None	1
3.0.1	2019_Mar_02_0945	s	s	2	2	SIC	94	ABS	0	0	1	1	24_1_1	NA	NA	0	1	2.6389131546	None	None	None	None	1
3.0.1	2019_Mar_02_0945	s	s	2	2	SIC	95	ABS	0	0	3	4	24_3_4	NA	NA	0	1	2.14277815819	None	None	None	None	1
3.0.1	2019_Mar_02_0945	s	s	2	2	SIC	96	2_2	2	2	4	1	23_4_1	2	-1	1	0	0.545617103577	-194.0	184.0	-191.0	186.0	1
3.0.1	2019_Mar_02_0945	s	s	2	2	SIC	97	3_1	3	1	1	2	23_1_2	2	1	1	0	0.462354183197	-238.0	-67.0	-242.0	-61.0	1
3.0.1	2019_Mar_02_0945	s	s	2	2	SIC	98	ABS	0	0	3	3	24_3_3	NA	NA	0	1	4.39836788177	None	None	None	None	1
3.0.1	2019_Mar_02_0945	s	s	2	2	SIC	99	ABS	0	0	1	2	24_1_2	NA	NA	0	1	4.72035193443	None	None	None	None	1
3.0.1	2019_Mar_02_0945	s	s	2	2	SIC	100	1_2	1	2	3	3	23_3_3	2	1	1	0	0.563910961151	257.0	151.0	264.0	146.0	1
3.0.1	2019_Mar_02_0945	s	s	2	2	SIC	101	ABS	0	0	4	4	24_4_4	NA	NA	0	1	1.75183010101	None	None	None	None	1
3.0.1	2019_Mar_02_0945	s	s	2	2	SIC	102	ABS	0	0	4	4	24_4_4	NA	NA	0	1	2.41038107872	None	None	None	None	1
3.0.1	2019_Mar_02_0945	s	s	2	2	SIC	103	ABS	0	0	1	3	24_1_3	NA	NA	0	1	3.2336499691	None	None	None	None	1
3.0.1	2019_Mar_02_0945	s	s	2	2	SIC	104	ABS	0	0	1	2	24_1_2	NA	NA	0	1	3.9510140419	None	None	None	None	1
3.0.1	2019_Mar_02_0945	s	s	2	2	SIC	105	4_3	4	3	4	1	23_4_1	0	2	1	0	1.23938012123	406.0	309.0	407.0	302.0	1
3.0.1	2019_Mar_02_0945	s	s	2	2	SIC	106	4_4	4	4	1	2	23_1_2	3	2	1	0	0.434929132462	-191.0	32.0	-194.0	28.0	1
3.0.1	2019_Mar_02_0945	s	s	2	2	SIC	107	ABS	0	0	4	3	24_4_3	NA	NA	0	1	4.02676606178	None	None	None	None	1
3.0.1	2019_Mar_02_0945	s	s	2	2	SIC	108	3_1	3	1	3	2	23_3_2	0	1	1	0	2.07486796379	-304.0	172.0	-305.0	170.0	1
3.0.1	2019_Mar_02_0945	s	s	2	2	SIC	109	1_2	1	2	1	4	23_1_4	0	2	1	0	1.05978488922	265.0	-272.0	270.0	-274.0	1
3.0.1	2019_Mar_02_0945	s	s	2	2	SIC	110	ABS	0	0	3	2	24_3_2	NA	NA	0	1	4.0730381012	None	None	None	None	1
3.0.1	2019_Mar_02_0945	s	s	2	2	SIC	111	2_4	2	4	3	3	23_3_3	1	1	1	0	0.634541988373	-507.0	-373.0	-511.0	-374.0	1
3.0.1	2019_Mar_02_0945	s	s	2	2	SIC	112	1_2	1	2	4	3	23_4_3	3	1	1	0	0.446239948273	250.0	-188.0	254.0	-194.0	1
3.0.1	2019_Mar_02_0945	s	s	2	2	SIC	113	4_1	4	1	2	2	23_2_2	2	1	1	0	0.443719863892	330.0	-350.0	322.0	-346.0	1
3.0.1	2019_Mar_02_0945	s	s	2	2	SIC	114	ABS	0	0	2	1	24_2_1	NA	NA	0	1	3.89225482941	None	None	None	None	1
3.0.1	2019_Mar_02_0945	s	s	2	2	SIC	115	ABS	0	0	4	3	24_4_3	NA	NA	0	1	3.65014100075	None	None	None	None	1
3.0.1	2019_Mar_02_0945	s	s	2	2	SIC	116	4_4	4	4	2	2	23_2_2	2	2	1	0	0.610901832581	-200.0	-389.0	-198.0	-387.0	1
3.0.1	2019_Mar_02_0945	s	s	2	2	SIC	117	4_2	4	2	2	3	23_2_3	2	1	1	0	0.378679037094	-48.0	-52.0	-47.0	-51.0	1
3.0.1	2019_Mar_02_0945	s	s	2	2	SIC	118	4_1	4	1	3	4	23_3_4	1	3	1	0	0.39920091629	-32.0	240.0	-34.0	239.0	1
3.0.1	2019_Mar_02_0945	s	s	2	2	SIC	119	ABS	0	0	2	2	24_2_2	NA	NA	0	1	3.69275808334	None	None	None	None	1
3.0.1	2019_Mar_02_0945	s	s	2	2	SIC	120	ABS	0	0	2	2	24_2_2	NA	NA	0	1	2.46150684357	None	None	None	None	1
3.0.1	2019_Mar_02_0945	s	s	2	2	SIC	121	ABS	0	0	3	2	24_3_2	NA	NA	0	1	3.09786581993	None	None	None	None	1
3.0.1	2019_Mar_02_0945	s	s	2	2	SIC	122	ABS	0	0	4	4	24_4_4	NA	NA	0	1	1.30503702164	None	None	None	None	1
3.0.1	2019_Mar_02_0945	s	s	2	2	SIC	123	ABS	0	0	1	4	24_1_4	NA	NA	0	1	1.61578989029	None	None	None	None	1
3.0.1	2019_Mar_02_0945	s	s	2	2	SIC	124	ABS	0	0	3	3	24_3_3	NA	NA	0	1	3.93929791451	None	None	None	None	1
3.0.1	2019_Mar_02_0945	s	s	2	2	SIC	125	3_4	3	4	3	2	23_3_2	0	2	1	0	2.21665501595	-431.0	-13.0	-434.0	-17.0	1
3.0.1	2019_Mar_02_0945	s	s	2	2	SIC	126	3_3	3	3	2	4	23_2_4	1	-1	1	0	0.640012979507	404.0	-185.0	398.0	-185.0	1
3.0.1	2019_Mar_02_0945	s	s	2	2	SIC	127	2_1	2	1	3	2	23_3_2	1	1	1	0	0.963787794113	400.0	221.0	396.0	222.0	1
3.0.1	2019_Mar_02_0945	s	s	2	2	SIC	128	1_4	1	4	3	4	23_3_4	2	0	1	0	0.669777870178	150.0	-404.0	143.0	-399.0	1
3.0.1	2019_Mar_02_0945	s	s	2	2	SIC	129	ABS	0	0	3	4	24_3_4	NA	NA	0	1	2.19339418411	None	None	None	None	1
3.0.1	2019_Mar_02_0945	s	s	2	2	SIC	130	ABS	0	0	3	4	24_3_4	NA	NA	0	1	1.38712215424	None	None	None	None	1
3.0.1	2019_Mar_02_0945	s	s	2	2	SIC	131	ABS	0	0	1	3	24_1_3	NA	NA	0	1	4.31857895851	None	None	None	None	1
3.0.1	2019_Mar_02_0945	s	s	2	2	SIC	132	ABS	0	0	1	1	24_1_1	NA	NA	0	1	2.26920700073	None	None	None	None	1
3.0.1	2019_Mar_02_0945	s	s	2	2	SIC	133	1_4	1	4	3	3	23_3_3	2	1	1	0	0.59913611412	422.0	89.0	421.0	88.0	1
3.0.1	2019_Mar_02_0945	s	s	2	2	SIC	134	ABS	0	0	4	2	24_4_2	NA	NA	0	1	6.97369813919	None	None	None	None	1
3.0.1	2019_Mar_02_0945	s	s	2	2	SIC	135	ABS	0	0	2	2	24_2_2	NA	NA	0	1	3.99817991257	None	None	None	None	1
3.0.1	2019_Mar_02_0945	s	s	2	2	SIC	136	2_3	2	3	1	1	23_1_1	-1	2	1	0	1.31944203377	113.0	-140.0	107.0	-134.0	1
3.0.1	2019_Mar_02_0945	s	s	2	2	SIC	137	4_3	4	3	4	4	23_4_4	0	-1	1	0	1.29307317734	288.0	-347.0	287.0	-351.0	1
3.0.1	2019_Mar_02_0945	s	s	2	2	SIC	138	2_3	2	3	1	4	23_1_4	-1	-1	1	0	0.672606945038	283.0	-29.0	277.0	-27.0	1
3.0.1	2019_Mar_02_0945	s	s	2	2	SIC	139	1_4	1	4	4	1	23_4_1	3	3	1	0	0.45795416832	157.0	-291.0	160.0	-291.0	1
3.0.1	2019_Mar_02_0945	s	s	2	2	SIC	140	ABS	0	0	2	3	24_2_3	NA	NA	0	1	4.44166898727	None	None	None	None	1
3.0.1	2019_Mar_02_0945	s	s	2	2	SIC	141	4_1	4	1	2	1	23_2_1	2	0	1	0	0.457981109619	225.0	-363.0	229.0	-361.0	1
3.0.1	2019_Mar_02_0945	s	s	2	2	SIC	142	3_1	3	1	1	4	23_1_4	2	3	1	0	0.410892009735	-106.0	-2.0	-114.0	4.0	1
3.0.1	2019_Mar_02_0945	s	s	2	2	SIC	143	2_2	2	2	1	4	23_1_4	-1	2	1	0	0.834428071976	-298.0	375.0	-300.0	378.0	1
3.0.1	2019_Mar_02_0945	s	s	2	2	SIC	144	4_3	4	3	1	3	23_1_3	3	0	1	0	0.383941173553	-277.0	322.0	-281.0	322.0	1
3.0.1	2019_Mar_02_0945	s	s	2	2	SIC	145	3_2	3	2	2	3	23_2_3	1	1	1	0	0.437294960022	228.0	262.0	224.0	271.0	1
3.0.1	2019_Mar_02_0945	s	s	2	2	SIC	146	ABS	0	0	4	4	24_4_4	NA	NA	0	1	1.16407299042	None	None	None	None	1
3.0.1	2019_Mar_02_0945	s	s	2	2	SIC	147	ABS	0	0	2	2	24_2_2	NA	NA	0	1	4.0569460392	None	None	None	None	1
3.0.1	2019_Mar_02_0945	s	s	2	2	SIC	148	1_1	1	1	1	4	23_1_4	0	3	1	0	0.545428991318	334.0	-326.0	332.0	-332.0	1
3.0.1	2019_Mar_02_0945	s	s	2	2	SIC	149	ABS	0	0	2	4	24_2_4	NA	NA	0	1	2.46914196014	None	None	None	None	1
3.0.1	2019_Mar_02_0945	s	s	2	2	SIC	150	2_1	2	1	4	1	23_4_1	2	0	1	0	0.42925786972	158.0	231.0	157.0	225.0	1
3.0.1	2019_Mar_02_0945	s	s	2	2	SIC	151	ABS	0	0	1	2	24_1_2	NA	NA	0	1	4.37735009193	None	None	None	None	1
3.0.1	2019_Mar_02_0945	s	s	2	2	SIC	152	1_1	1	1	2	4	23_2_4	1	3	1	0	0.555960893631	-218.0	-411.0	-216.0	-408.0	1
3.0.1	2019_Mar_02_0945	s	s	2	2	SIC	153	ABS	0	0	3	4	24_3_4	NA	NA	0	1	1.93987107277	None	None	None	None	1
3.0.1	2019_Mar_02_0945	s	s	2	2	SIC	154	2_1	2	1	2	2	23_2_2	0	1	1	0	2.71620106697	-5.0	-186.0	2.0	-187.0	1
3.0.1	2019_Mar_02_0945	s	s	2	2	SIC	155	ABS	0	0	2	1	24_2_1	NA	NA	0	1	2.67300915718	None	None	None	None	1
3.0.1	2019_Mar_02_0945	s	s	2	2	SIC	156	1_2	1	2	1	1	23_1_1	0	-1	1	0	2.11657500267	-345.0	-408.0	-336.0	-411.0	1
3.0.1	2019_Mar_02_0945	s	s	2	2	SIC	157	4_2	4	2	3	2	23_3_2	1	0	1	0	0.44294500351	-239.0	-306.0	-246.0	-299.0	1
3.0.1	2019_Mar_02_0945	s	s	2	2	SIC	158	3_2	3	2	1	2	23_1_2	2	0	1	0	0.425669908524	-123.0	-63.0	-127.0	-67.0	1
3.0.1	2019_Mar_02_0945	s	s	2	2	SIC	159	4_2	4	2	1	4	23_1_4	3	2	1	0	0.481593847275	-358.0	-235.0	-355.0	-234.0	1
3.0.1	2019_Mar_02_0945	s	s	2	2	SIC	160	2_3	2	3	4	1	23_4_1	2	2	1	0	0.446212053299	-473.0	158.0	-469.0	155.0	1
3.0.1	2019_Mar_02_0945	s	s	2	2	SIC	161	ABS	0	0	4	2	24_4_2	NA	NA	0	1	4.22155094147	None	None	None	None	1
3.0.1	2019_Mar_02_0945	s	s	2	2	SIC	162	4_3	4	3	3	4	23_3_4	1	-1	1	0	0.462162017822	482.0	-62.0	481.0	-68.0	1
3.0.1	2019_Mar_02_0945	s	s	2	2	SIC	163	4_3	4	3	4	2	23_4_2	0	1	1	0	4.33918404579	-526.0	40.0	-524.0	35.0	1
3.0.1	2019_Mar_02_0945	s	s	2	2	SIC	164	4_4	4	4	2	4	23_2_4	2	0	1	0	0.474411964417	72.0	352.0	76.0	353.0	1
3.0.1	2019_Mar_02_0945	s	s	2	2	SIC	165	ABS	0	0	3	1	24_3_1	NA	NA	0	1	2.75136613846	None	None	None	None	1
3.0.1	2019_Mar_02_0945	s	s	2	2	SIC	166	2_1	2	1	2	4	23_2_4	0	3	1	0	0.484507083893	-5.0	-211.0	-7.0	-215.0	1
3.0.1	2019_Mar_02_0945	s	s	2	2	SIC	167	ABS	0	0	1	2	24_1_2	NA	NA	0	1	3.80998206139	None	None	None	None	1
3.0.1	2019_Mar_02_0945	s	s	2	2	SIC	168	ABS	0	0	2	3	24_2_3	NA	NA	0	1	3.24547481537	None	None	None	None	1
3.0.1	2019_Mar_02_0945	s	s	2	2	SIC	169	ABS	0	0	4	1	24_4_1	NA	NA	0	1	1.01083803177	None	None	None	None	1
3.0.1	2019_Mar_02_0945	s	s	2	2	SIC	170	ABS	0	0	3	2	24_3_2	NA	NA	0	1	3.26897287369	None	None	None	None	1
3.0.1	2019_Mar_02_0945	s	s	2	2	SIC	171	ABS	0	0	3	4	24_3_4	NA	NA	0	1	2.36336183548	None	None	None	None	1
3.0.1	2019_Mar_02_0945	s	s	2	2	SIC	172	ABS	0	0	4	4	24_4_4	NA	NA	0	1	1.74488306046	None	None	None	None	1
3.0.1	2019_Mar_02_0945	s	s	2	2	SIC	173	4_1	4	1	1	1	23_1_1	3	0	1	0	0.481595993042	340.0	-395.0	344.0	-401.0	1
3.0.1	2019_Mar_02_0945	s	s	2	2	SIC	174	ABS	0	0	4	1	24_4_1	NA	NA	0	1	1.96801304817	None	None	None	None	1
3.0.1	2019_Mar_02_0945	s	s	2	2	SIC	175	ABS	0	0	3	3	24_3_3	NA	NA	0	1	4.9594180584	None	None	None	None	1
3.0.1	2019_Mar_02_0945	s	s	2	2	SIC	176	ABS	0	0	4	4	24_4_4	NA	NA	0	1	1.20671892166	None	None	None	None	1
3.0.1	2019_Mar_02_0945	s	s	2	2	SIC	177	ABS	0	0	1	3	24_1_3	NA	NA	0	1	2.8484389782	None	None	None	None	1
3.0.1	2019_Mar_02_0945	s	s	2	2	SIC	178	3_1	3	1	3	3	23_3_3	0	2	1	0	1.24604392052	-429.0	-195.0	-430.0	-199.0	1
3.0.1	2019_Mar_02_0945	s	s	2	2	SIC	179	ABS	0	0	1	1	24_1_1	NA	NA	0	1	2.0810239315	None	None	None	None	1
3.0.1	2019_Mar_02_0945	s	s	2	2	SIC	180	ABS	0	0	1	3	24_1_3	NA	NA	0	1	3.05740499496	None	None	None	None	1
3.0.1	2019_Mar_02_0945	s	s	2	2	SIC	181	4_3	4	3	2	3	23_2_3	2	0	1	0	0.488037824631	457.0	375.0	457.0	371.0	1
3.0.1	2019_Mar_02_0945	s	s	2	2	SIC	182	4_3	4	3	2	4	23_2_4	2	-1	1	0	0.457998991013	349.0	90.0	349.0	90.0	1
3.0.1	2019_Mar_02_0945	s	s	2	2	SIC	183	4_4	4	4	2	3	23_2_3	2	1	1	0	0.458005189896	-491.0	-66.0	-486.0	-71.0	1
3.0.1	2019_Mar_02_0945	s	s	2	2	SIC	184	ABS	0	0	3	1	24_3_1	NA	NA	0	1	2.63389992714	None	None	None	None	1
3.0.1	2019_Mar_02_0945	s	s	2	2	SIC	185	3_1	3	1	4	2	23_4_2	-1	1	1	0	0.437404870987	-278.0	147.0	-272.0	146.0	1
3.0.1	2019_Mar_02_0945	s	s	2	2	SIC	186	1_3	1	3	4	3	23_4_3	3	0	1	0	0.41604590416	-415.0	-71.0	-423.0	-72.0	1
3.0.1	2019_Mar_02_0945	s	s	2	2	SIC	187	ABS	0	0	2	3	24_2_3	NA	NA	0	1	4.21380901337	None	None	None	None	1
3.0.1	2019_Mar_02_0945	s	s	2	2	SIC	188	ABS	0	0	4	3	24_4_3	NA	NA	0	1	3.04549789429	None	None	None	None	1
3.0.1	2019_Mar_02_0945	s	s	2	2	SIC	189	4_3	4	3	2	1	23_2_1	2	2	1	0	0.681512117386	-528.0	-165.0	-531.0	-165.0	1
3.0.1	2019_Mar_02_0945	s	s	2	2	SIC	190	ABS	0	0	4	3	24_4_3	NA	NA	0	1	3.45019412041	None	None	None	None	1
3.0.1	2019_Mar_02_0945	s	s	2	2	SIC	191	2_1	2	1	2	3	23_2_3	0	2	1	0	0.987252950668	260.0	-73.0	257.0	-71.0	1
3.0.1	2019_Mar_02_0945	s	s	2	2	SIC	192	ABS	0	0	1	3	24_1_3	NA	NA	0	1	4.24997806549	None	None	None	None	1
3.0.1	2019_Mar_02_0945	s	s	2	2	SIC	193	2_2	2	2	4	3	23_4_3	2	1	1	0	0.427162885666	-170.0	153.0	-168.0	144.0	1
3.0.1	2019_Mar_02_0945	s	s	2	2	SIC	194	2_4	2	4	4	1	23_4_1	2	3	1	0	0.410943984985	-92.0	-32.0	-94.0	-25.0	1
3.0.1	2019_Mar_02_0945	s	s	2	2	SIC	195	4_2	4	2	4	3	23_4_3	0	1	1	0	2.22874593735	171.0	-289.0	171.0	-287.0	1
3.0.1	2019_Mar_02_0945	s	s	2	2	SIC	196	ABS	0	0	1	4	24_1_4	NA	NA	0	1	2.54458904266	None	None	None	None	1
3.0.1	2019_Mar_02_0945	s	s	2	2	SIC	197	3_1	3	1	4	1	23_4_1	-1	0	1	0	0.48641204834	-161.0	-353.0	-158.0	-349.0	1
3.0.1	2019_Mar_02_0945	s	s	2	2	SIC	198	ABS	0	0	4	4	24_4_4	NA	NA	0	1	1.65087199211	None	None	None	None	1
3.0.1	2019_Mar_02_0945	s	s	2	2	SIC	199	ABS	0	0	1	1	24_1_1	NA	NA	0	1	3.65709900856	None	None	None	None	1
3.0.1	2019_Mar_02_0945	s	s	2	2	SIC	200	ABS	0	0	2	4	24_2_4	NA	NA	0	1	1.52826809883	None	None	None	None	1
3.0.1	2019_Mar_02_0945	s	s	2	2	SIC	201	ABS	0	0	2	4	24_2_4	NA	NA	0	1	1.48127317429	None	None	None	None	1
3.0.1	2019_Mar_02_0945	s	s	2	2	SIC	202	2_2	2	2	2	1	23_2_1	0	-1	1	0	2.80380606651	-325.0	-386.0	-316.0	-384.0	1
3.0.1	2019_Mar_02_0945	s	s	2	2	SIC	203	1_3	1	3	2	4	23_2_4	1	-1	1	0	0.810867071152	143.0	271.0	137.0	268.0	1
3.0.1	2019_Mar_02_0945	s	s	2	2	SIC	204	ABS	0	0	4	3	24_4_3	NA	NA	0	1	4.89198613167	None	None	None	None	1
3.0.1	2019_Mar_02_0945	s	s	2	2	SIC	205	ABS	0	0	1	4	24_1_4	NA	NA	0	1	1.32505297661	None	None	None	None	1
3.0.1	2019_Mar_02_0945	s	s	2	2	SIC	206	3_3	3	3	4	1	23_4_1	-1	2	1	0	0.509676933289	516.0	-82.0	525.0	-86.0	1
3.0.1	2019_Mar_02_0945	s	s	2	2	SIC	207	3_4	3	4	3	3	23_3_3	0	1	1	0	0.746294021606	234.0	366.0	242.0	369.0	1
3.0.1	2019_Mar_02_0945	s	s	2	2	SIC	208	3_1	3	1	2	2	23_2_2	1	1	1	0	0.563863992691	-500.0	-118.0	-497.0	-119.0	1
3.0.1	2019_Mar_02_0945	s	s	2	2	SIC	209	3_3	3	3	1	4	23_1_4	2	-1	1	0	0.461645126343	267.0	-3.0	272.0	-8.0	1
3.0.1	2019_Mar_02_0945	s	s	2	2	SIC	210	3_1	3	1	2	1	23_2_1	1	0	1	0	0.52327299118	197.0	-133.0	187.0	-132.0	1
3.0.1	2019_Mar_02_0945	s	s	2	2	SIC	211	4_1	4	1	2	3	23_2_3	2	2	1	0	0.38739991188	-400.0	367.0	-402.0	367.0	1
3.0.1	2019_Mar_02_0945	s	s	2	2	SIC	212	ABS	0	0	1	2	24_1_2	NA	NA	0	1	5.75051593781	None	None	None	None	1
3.0.1	2019_Mar_02_0945	s	s	2	2	SIC	213	3_3	3	3	1	1	23_1_1	2	2	1	0	0.763792037964	-500.0	-373.0	-493.0	-372.0	1
3.0.1	2019_Mar_02_0945	s	s	2	2	SIC	214	ABS	0	0	2	4	24_2_4	NA	NA	0	1	2.22221803665	None	None	None	None	1
3.0.1	2019_Mar_02_0945	s	s	2	2	SIC	215	1_2	1	2	2	3	23_2_3	1	1	1	0	1.58178687096	-101.0	-210.0	-101.0	-209.0	1
3.0.1	2019_Mar_02_0945	s	s	2	2	SIC	216	2_1	2	1	3	3	23_3_3	1	2	1	0	0.53339600563	-523.0	-375.0	-521.0	-372.0	1
3.0.1	2019_Mar_02_0945	s	s	2	2	SIC	217	ABS	0	0	3	4	24_3_4	NA	NA	0	1	2.01344680786	None	None	None	None	1
3.0.1	2019_Mar_02_0945	s	s	2	2	SIC	218	2_4	2	4	4	2	23_4_2	2	2	1	0	0.469777822495	483.0	126.0	476.0	126.0	1
3.0.1	2019_Mar_02_0945	s	s	2	2	SIC	219	1_3	1	3	1	1	23_1_1	0	2	1	0	2.65738797188	128.0	-383.0	125.0	-389.0	1
3.0.1	2019_Mar_02_0945	s	s	2	2	SIC	220	4_2	4	2	3	3	23_3_3	1	1	1	0	0.399216890335	170.0	-250.0	171.0	-252.0	1
3.0.1	2019_Mar_02_0945	s	s	2	2	SIC	221	ABS	0	0	3	1	24_3_1	NA	NA	0	1	2.82600498199	None	None	None	None	1
3.0.1	2019_Mar_02_0945	s	s	2	2	SIC	222	2_4	2	4	3	2	23_3_2	1	2	1	0	0.678827047348	275.0	-326.0	277.0	-328.0	1
3.0.1	2019_Mar_02_0945	s	s	2	2	SIC	223	3_3	3	3	1	3	23_1_3	2	0	1	0	0.555073976517	-260.0	-57.0	-267.0	-62.0	1
3.0.1	2019_Mar_02_0945	s	s	2	2	SIC	224	ABS	0	0	4	2	24_4_2	NA	NA	0	1	4.51072597504	None	None	None	None	1
3.0.1	2019_Mar_02_0945	s	s	2	2	SIC	225	3_1	3	1	2	4	23_2_4	1	3	1	0	0.496231079102	419.0	-391.0	423.0	-388.0	1
3.0.1	2019_Mar_02_0945	s	s	2	2	SIC	226	ABS	0	0	1	1	24_1_1	NA	NA	0	1	1.99869608879	None	None	None	None	1
3.0.1	2019_Mar_02_0945	s	s	2	2	SIC	227	1_2	1	2	3	1	23_3_1	2	-1	1	0	0.487020015717	118.0	-140.0	115.0	-145.0	1
3.0.1	2019_Mar_02_0945	s	s	2	2	SIC	228	ABS	0	0	4	1	24_4_1	NA	NA	0	1	1.86934518814	None	None	None	None	1
3.0.1	2019_Mar_02_0945	s	s	2	2	SIC	229	ABS	0	0	4	1	24_4_1	NA	NA	0	1	1.62696695328	None	None	None	None	1
3.0.1	2019_Mar_02_0945	s	s	2	2	SIC	230	ABS	0	0	1	4	24_1_4	NA	NA	0	1	2.17515301704	None	None	None	None	1
3.0.1	2019_Mar_02_0945	s	s	2	2	SIC	231	1_1	1	1	3	4	23_3_4	2	3	1	0	0.634468078613	158.0	-169.0	160.0	-172.0	1
3.0.1	2019_Mar_02_0945	s	s	2	2	SIC	232	ABS	0	0	2	1	24_2_1	NA	NA	0	1	2.70935487747	None	None	None	None	1
3.0.1	2019_Mar_02_0945	s	s	2	2	SIC	233	2_4	2	4	2	3	23_2_3	0	1	1	0	1.34014415741	504.0	-93.0	513.0	-91.0	1
3.0.1	2019_Mar_02_0945	s	s	2	2	SIC	234	2_4	2	4	4	4	23_4_4	2	0	1	0	0.469745159149	355.0	121.0	354.0	118.0	1
3.0.1	2019_Mar_02_0945	s	s	2	2	SIC	235	ABS	0	0	1	2	24_1_2	NA	NA	0	1	4.04516100883	None	None	None	None	1
3.0.1	2019_Mar_02_0945	s	s	2	2	SIC	236	ABS	0	0	1	1	24_1_1	NA	NA	0	1	2.24571585655	None	None	None	None	1
3.0.1	2019_Mar_02_0945	s	s	2	2	SIC	237	3_2	3	2	4	1	23_4_1	-1	-1	1	0	0.505187034607	-219.0	192.0	-225.0	198.0	1
3.0.1	2019_Mar_02_0945	s	s	2	2	SIC	238	ABS	0	0	1	1	24_1_1	NA	NA	0	1	3.59074401855	None	None	None	None	1
3.0.1	2019_Mar_02_0945	s	s	2	2	SIC	239	ABS	0	0	1	4	24_1_4	NA	NA	0	1	1.83410596848	None	None	None	None	1
3.0.1	2019_Mar_02_0945	s	s	2	2	SIC	240	4_3	4	3	1	1	23_1_1	3	2	1	0	0.496208906174	-519.0	354.0	-525.0	359.0	1
3.0.1	2019_Mar_02_0945	s	s	2	2	SIC	241	3_2	3	2	4	4	23_4_4	-1	2	1	0	0.427625894547	-427.0	-207.0	-428.0	-208.0	1
3.0.1	2019_Mar_02_0945	s	s	2	2	SIC	242	ABS	0	0	2	3	24_2_3	NA	NA	0	1	3.02499103546	None	None	None	None	1
3.0.1	2019_Mar_02_0945	s	s	2	2	SIC	243	2_3	2	3	3	2	23_3_2	1	1	1	0	1.3220500946	75.0	-369.0	71.0	-370.0	1
3.0.1	2019_Mar_02_0945	s	s	2	2	SIC	244	ABS	0	0	4	4	24_4_4	NA	NA	0	1	2.01085591316	None	None	None	None	1
3.0.1	2019_Mar_02_0945	s	s	2	2	SIC	245	ABS	0	0	2	3	24_2_3	NA	NA	0	1	2.81049895287	None	None	None	None	1
3.0.1	2019_Mar_02_0945	s	s	2	2	SIC	246	ABS	0	0	2	1	24_2_1	NA	NA	0	1	3.25716686249	None	None	None	None	1
3.0.1	2019_Mar_02_0945	s	s	2	2	SIC	247	1_4	1	4	1	1	23_1_1	0	3	1	0	0.481688022614	-481.0	37.0	-478.0	37.0	1
3.0.1	2019_Mar_02_0945	s	s	2	2	SIC	248	2_1	2	1	1	4	23_1_4	-1	3	1	0	1.01078295708	66.0	-173.0	68.0	-180.0	1
3.0.1	2019_Mar_02_0945	s	s	2	2	SIC	249	ABS	0	0	4	2	24_4_2	NA	NA	0	1	4.25138187408	None	None	None	None	1
3.0.1	2019_Mar_02_0945	s	s	2	2	SIC	250	ABS	0	0	1	2	24_1_2	NA	NA	0	1	4.08333396912	None	None	None	None	1
3.0.1	2019_Mar_02_0945	s	s	2	2	SIC	251	2_3	2	3	1	2	23_1_2	-1	1	1	0	2.45104002953	-360.0	-240.0	-358.0	-239.0	1
3.0.1	2019_Mar_02_0945	s	s	2	2	SIC	252	4_4	4	4	4	2	23_4_2	0	2	1	0	0.834496974945	500.0	-200.0	498.0	-209.0	1
3.0.1	2019_Mar_02_0945	s	s	2	2	SIC	253	ABS	0	0	4	1	24_4_1	NA	NA	0	1	2.5279519558	None	None	None	None	1
3.0.1	2019_Mar_02_0945	s	s	2	2	SIC	254	ABS	0	0	1	1	24_1_1	NA	NA	0	1	1.91003108025	None	None	None	None	1
3.0.1	2019_Mar_02_0945	s	s	2	2	SIC	255	4_2	4	2	2	2	23_2_2	2	0	1	0	0.442301988602	220.0	-217.0	221.0	-216.0	1
3.0.1	2019_Mar_02_0945	s	s	2	2	SIC	256	3_4	3	4	4	1	23_4_1	-1	3	1	0	0.462459087372	-41.0	143.0	-40.0	142.0	1
3.0.1	2019_Mar_02_0945	s	s	2	2	SIC	257	ABS	0	0	1	1	24_1_1	NA	NA	0	1	3.45718479156	None	None	None	None	1
3.0.1	2019_Mar_02_0945	s	s	2	2	SIC	258	4_1	4	1	2	4	23_2_4	2	3	1	0	0.399207830429	142.0	324.0	150.0	324.0	1
3.0.1	2019_Mar_02_0945	s	s	2	2	SIC	259	4_3	4	3	2	2	23_2_2	2	1	1	0	0.399166822433	-278.0	53.0	-268.0	55.0	1
3.0.1	2019_Mar_02_0945	s	s	2	2	SIC	260	ABS	0	0	3	4	24_3_4	NA	NA	0	1	3.14348101616	None	None	None	None	1
3.0.1	2019_Mar_02_0945	s	s	2	2	SIC	261	4_1	4	1	1	2	23_1_2	3	1	1	0	0.411046981812	96.0	-15.0	99.0	-14.0	1
3.0.1	2019_Mar_02_0945	s	s	2	2	SIC	262	3_1	3	1	2	3	23_2_3	1	2	1	0	0.555022954941	-87.0	70.0	-84.0	63.0	1
3.0.1	2019_Mar_02_0945	s	s	2	2	SIC	263	ABS	0	0	4	2	24_4_2	NA	NA	0	1	4.47115397453	None	None	None	None	1
3.0.1	2019_Mar_02_0945	s	s	2	2	SIC	264	ABS	0	0	1	2	24_1_2	NA	NA	0	1	2.98667001724	None	None	None	None	1
3.0.1	2019_Mar_02_0945	s	s	2	2	SIC	265	ABS	0	0	3	1	24_3_1	NA	NA	0	1	2.52792596817	None	None	None	None	1
3.0.1	2019_Mar_02_0945	s	s	2	2	SIC	266	ABS	0	0	1	2	24_1_2	NA	NA	0	1	3.95397090912	None	None	None	None	1
3.0.1	2019_Mar_02_0945	s	s	2	2	SIC	267	ABS	0	0	2	4	24_2_4	NA	NA	0	1	1.93096280098	None	None	None	None	1
3.0.1	2019_Mar_02_0945	s	s	2	2	SIC	268	ABS	0	0	2	3	24_2_3	NA	NA	0	1	4.8919069767	None	None	None	None	1
3.0.1	2019_Mar_02_0945	s	s	2	2	SIC	269	ABS	0	0	1	2	24_1_2	NA	NA	0	1	3.82171392441	None	None	None	None	1
3.0.1	2019_Mar_02_0945	s	s	2	2	SIC	270	4_2	4	2	3	4	23_3_4	1	2	1	0	0.672636985779	367.0	93.0	370.0	92.0	1
3.0.1	2019_Mar_02_0945	s	s	2	2	SIC	271	ABS	0	0	1	3	24_1_3	NA	NA	0	1	4.5597949028	None	None	None	None	1
3.0.1	2019_Mar_02_0945	s	s	2	2	SIC	272	2_1	2	1	4	3	23_4_3	2	2	1	0	0.437541007996	326.0	206.0	321.0	211.0	1
3.0.1	2019_Mar_02_0945	s	s	2	2	SIC	273	4_3	4	3	3	1	23_3_1	1	2	1	0	0.582248210907	-525.0	-372.0	-518.0	-370.0	1
3.0.1	2019_Mar_02_0945	s	s	2	2	SIC	274	2_3	2	3	2	2	23_2_2	0	1	1	0	1.31655907631	164.0	401.0	164.0	401.0	1
3.0.1	2019_Mar_02_0945	s	s	2	2	SIC	275	3_2	3	2	3	3	23_3_3	0	1	1	0	3.51927304268	341.0	375.0	330.0	378.0	1
3.0.1	2019_Mar_02_0945	s	s	2	2	SIC	276	ABS	0	0	4	3	24_4_3	NA	NA	0	1	4.56806302071	None	None	None	None	1
3.0.1	2019_Mar_02_0945	s	s	2	2	SIC	277	1_4	1	4	2	2	23_2_2	1	2	1	0	0.857924938202	62.0	95.0	68.0	96.0	1
3.0.1	2019_Mar_02_0945	s	s	2	2	SIC	278	ABS	0	0	4	3	24_4_3	NA	NA	0	1	5.95071077347	None	None	None	None	1
3.0.1	2019_Mar_02_0945	s	s	2	2	SIC	279	ABS	0	0	1	4	24_1_4	NA	NA	0	1	3.41009807587	None	None	None	None	1
3.0.1	2019_Mar_02_0945	s	s	2	2	SIC	280	ABS	0	0	1	4	24_1_4	NA	NA	0	1	3.6335170269	None	None	None	None	1
3.0.1	2019_Mar_02_0945	s	s	2	2	SIC	281	ABS	0	0	3	2	24_3_2	NA	NA	0	1	4.32740902901	None	None	None	None	1
3.0.1	2019_Mar_02_0945	s	s	2	2	SIC	282	2_4	2	4	1	2	23_1_2	-1	2	1	0	1.06960082054	224.0	-200.0	229.0	-202.0	1
3.0.1	2019_Mar_02_0945	s	s	2	2	SIC	283	1_4	1	4	2	4	23_2_4	1	0	0	1	2.06933116913	343.0	158.0	None	None	0
3.0.1	2019_Mar_02_0945	s	s	2	2	SIC	284	3_2	3	2	1	3	23_1_3	2	1	1	0	0.501980066299	-223.0	-67.0	-216.0	-64.0	1
3.0.1	2019_Mar_02_0945	s	s	2	2	SIC	285	4_1	4	1	4	3	23_4_3	0	2	1	0	1.77528882027	503.0	-271.0	504.0	-271.0	1
3.0.1	2019_Mar_02_0945	s	s	2	2	SIC	286	1_1	1	1	3	2	23_3_2	2	1	1	0	0.457998991013	-162.0	-177.0	-167.0	-188.0	1
3.0.1	2019_Mar_02_0945	s	s	2	2	SIC	287	3_3	3	3	3	2	23_3_2	0	1	1	0	3.64526581764	-427.0	-125.0	-424.0	-126.0	1
3.0.1	2019_Mar_02_0945	s	s	2	2	SIC	288	4_1	4	1	1	4	23_1_4	3	3	1	0	0.431262016296	-502.0	-401.0	-500.0	-400.0	1
3.0.1	2019_Mar_02_0945	s	s	2	2	SIC	289	2_1	2	1	4	4	23_4_4	2	3	1	0	0.437397003174	408.0	-344.0	411.0	-334.0	1
3.0.1	2019_Mar_02_0945	s	s	2	2	SIC	290	2_4	2	4	4	3	23_4_3	2	1	1	0	0.39918589592	125.0	101.0	126.0	106.0	1
3.0.1	2019_Mar_02_0945	s	s	2	2	SIC	291	ABS	0	0	3	2	24_3_2	NA	NA	0	1	4.9272210598	None	None	None	None	1
3.0.1	2019_Mar_02_0945	s	s	2	2	SIC	292	ABS	0	0	3	1	24_3_1	NA	NA	0	1	2.36333584785	None	None	None	None	1
3.0.1	2019_Mar_02_0945	s	s	2	2	SIC	293	ABS	0	0	2	4	24_2_4	NA	NA	0	1	2.44257903099	None	None	None	None	1
3.0.1	2019_Mar_02_0945	s	s	2	2	SIC	294	2_2	2	2	1	1	23_1_1	-1	-1	1	0	2.33978295326	361.0	367.0	368.0	366.0	1
3.0.1	2019_Mar_02_0945	s	s	2	2	SIC	295	2_3	2	3	4	3	23_4_3	2	0	1	0	0.49621295929	513.0	-295.0	517.0	-288.0	1
3.0.1	2019_Mar_02_0945	s	s	2	2	SIC	296	ABS	0	0	3	4	24_3_4	NA	NA	0	1	2.26513600349	None	None	None	None	1
3.0.1	2019_Mar_02_0945	s	s	2	2	SIC	297	ABS	0	0	3	1	24_3_1	NA	NA	0	1	2.84862303734	None	None	None	None	1
3.0.1	2019_Mar_02_0945	s	s	2	2	SIC	298	ABS	0	0	3	1	24_3_1	NA	NA	0	1	2.15157794952	None	None	None	None	1
3.0.1	2019_Mar_02_0945	s	s	2	2	SIC	299	1_1	1	1	4	1	23_4_1	3	0	1	0	0.474678039551	379.0	215.0	388.0	211.0	1
3.0.1	2019_Mar_02_0945	s	s	2	2	SIC	300	ABS	0	0	3	3	24_3_3	NA	NA	0	1	4.5833170414	None	None	None	None	1
3.0.1	2019_Mar_02_0945	s	s	2	2	SIC	301	ABS	0	0	2	1	24_2_1	NA	NA	0	1	3.59824299812	None	None	None	None	1
3.0.1	2019_Mar_02_0945	s	s	2	2	SIC	302	3_2	3	2	2	2	23_2_2	1	0	1	0	0.932924985886	-192.0	-162.0	-190.0	-166.0	1
3.0.1	2019_Mar_02_0945	s	s	2	2	SIC	303	ABS	0	0	1	3	24_1_3	NA	NA	0	1	3.70922112465	None	None	None	None	1
3.0.1	2019_Mar_02_0945	s	s	2	2	SIC	304	ABS	0	0	3	3	24_3_3	NA	NA	0	1	4.36304211617	None	None	None	None	1
3.0.1	2019_Mar_02_0945	s	s	2	2	SIC	305	ABS	0	0	4	1	24_4_1	NA	NA	0	1	2.68089103699	None	None	None	None	1
3.0.1	2019_Mar_02_0945	s	s	2	2	SIC	306	ABS	0	0	3	1	24_3_1	NA	NA	0	1	2.89590907097	None	None	None	None	1
3.0.1	2019_Mar_02_0945	s	s	2	2	SIC	307	ABS	0	0	1	4	24_1_4	NA	NA	0	1	3.29757404327	None	None	None	None	1
3.0.1	2019_Mar_02_0945	s	s	2	2	SIC	308	ABS	0	0	2	2	24_2_2	NA	NA	0	1	4.14218592644	None	None	None	None	1
3.0.1	2019_Mar_02_0945	s	s	2	2	SIC	309	ABS	0	0	3	2	24_3_2	NA	NA	0	1	4.30395698547	None	None	None	None	1
3.0.1	2019_Mar_02_0945	s	s	2	2	SIC	310	ABS	0	0	4	1	24_4_1	NA	NA	0	1	2.34550881386	None	None	None	None	1
3.0.1	2019_Mar_02_0945	s	s	2	2	SIC	311	ABS	0	0	3	1	24_3_1	NA	NA	0	1	2.04869699478	None	None	None	None	1
3.0.1	2019_Mar_02_0945	s	s	2	2	SIC	312	1_2	1	2	3	2	23_3_2	2	0	1	0	0.95892906189	316.0	-326.0	319.0	-321.0	1
3.0.1	2019_Mar_02_0945	s	s	2	2	SIC	313	1_3	1	3	4	1	23_4_1	3	2	1	0	0.41091299057	231.0	-92.0	228.0	-90.0	1
3.0.1	2019_Mar_02_0945	s	s	2	2	SIC	314	3_2	3	2	3	1	23_3_1	0	-1	0	1	3.93927192688	120.0	383.0	None	None	0
3.0.1	2019_Mar_02_0945	s	s	2	2	SIC	315	1_4	1	4	1	3	23_1_3	0	1	1	0	0.693253993988	145.0	383.0	151.0	378.0	1
3.0.1	2019_Mar_02_0945	s	s	2	2	SIC	316	ABS	0	0	1	4	24_1_4	NA	NA	0	1	2.12812304497	None	None	None	None	1
3.0.1	2019_Mar_02_0945	s	s	2	2	SIC	317	4_4	4	4	4	1	23_4_1	0	3	1	0	0.634417057037	395.0	-178.0	396.0	-182.0	1
3.0.1	2019_Mar_02_0945	s	s	2	2	SIC	318	ABS	0	0	3	1	24_3_1	NA	NA	0	1	2.52799010277	None	None	None	None	1
3.0.1	2019_Mar_02_0945	s	s	2	2	SIC	319	1_4	1	4	3	1	23_3_1	2	3	1	0	0.508827924728	410.0	193.0	413.0	191.0	1
3.0.1	2019_Mar_02_0945	s	s	2	2	SIC	320	ABS	0	0	3	2	24_3_2	NA	NA	0	1	3.61289906502	None	None	None	None	1
3.0.1	2019_Mar_02_0945	s	s	2	2	SIC	321	ABS	0	0	2	3	24_2_3	NA	NA	0	1	3.18960309029	None	None	None	None	1
3.0.1	2019_Mar_02_0945	s	s	2	2	SIC	322	ABS	0	0	3	3	24_3_3	NA	NA	0	1	2.55545401573	None	None	None	None	1
3.0.1	2019_Mar_02_0945	s	s	2	2	SIC	323	ABS	0	0	2	2	24_2_2	NA	NA	0	1	3.24577999115	None	None	None	None	1
3.0.1	2019_Mar_02_0945	s	s	2	2	SIC	324	ABS	0	0	3	4	24_3_4	NA	NA	0	1	1.51682806015	None	None	None	None	1
3.0.1	2019_Mar_02_0945	s	s	2	2	SIC	325	ABS	0	0	3	3	24_3_3	NA	NA	0	1	2.7671020031	None	None	None	None	1
3.0.1	2019_Mar_02_0945	s	s	2	2	SIC	326	3_1	3	1	4	3	23_4_3	-1	2	1	0	0.528541088104	-447.0	-183.0	-448.0	-179.0	1
3.0.1	2019_Mar_02_0945	s	s	2	2	SIC	327	ABS	0	0	4	1	24_4_1	NA	NA	0	1	2.01924300194	None	None	None	None	1
3.0.1	2019_Mar_02_0945	s	s	2	2	SIC	328	1_1	1	1	4	4	23_4_4	3	3	1	0	0.481600999832	212.0	241.0	212.0	239.0	1
3.0.1	2019_Mar_02_0945	s	s	2	2	SIC	329	3_3	3	3	4	2	23_4_2	-1	1	1	0	0.452069044113	422.0	136.0	430.0	144.0	1
3.0.1	2019_Mar_02_0945	s	s	2	2	SIC	330	1_3	1	3	4	2	23_4_2	3	1	1	0	0.53373003006	-512.0	274.0	-506.0	271.0	1
3.0.1	2019_Mar_02_0945	s	s	2	2	SIC	331	3_4	3	4	4	3	23_4_3	-1	1	1	0	0.53303694725	506.0	119.0	496.0	129.0	1
3.0.1	2019_Mar_02_0945	s	s	2	2	SIC	332	1_2	1	2	2	4	23_2_4	1	2	1	0	0.458055019379	461.0	258.0	463.0	257.0	1
3.0.1	2019_Mar_02_0945	s	s	2	2	SIC	333	ABS	0	0	2	2	24_2_2	NA	NA	0	1	3.2924580574	None	None	None	None	1
3.0.1	2019_Mar_02_0945	s	s	2	2	SIC	334	ABS	0	0	3	4	24_3_4	NA	NA	0	1	2.26962089539	None	None	None	None	1
3.0.1	2019_Mar_02_0945	s	s	2	2	SIC	335	ABS	0	0	1	3	24_1_3	NA	NA	0	1	4.13932204247	None	None	None	None	1
3.0.1	2019_Mar_02_0945	s	s	2	2	SIC	336	2_1	2	1	1	2	23_1_2	-1	1	0	1	3.1424639225	-330.0	312.0	None	None	0
3.0.1	2019_Mar_02_0945	s	s	2	2	SIC	337	3_4	3	4	1	3	23_1_3	2	1	1	0	0.532676935196	-261.0	330.0	-267.0	327.0	1
3.0.1	2019_Mar_02_0945	s	s	2	2	SIC	338	ABS	0	0	2	3	24_2_3	NA	NA	0	1	3.89746689796	None	None	None	None	1
3.0.1	2019_Mar_02_0945	s	s	2	2	SIC	339	ABS	0	0	4	2	24_4_2	NA	NA	0	1	3.51588606834	None	None	None	None	1
3.0.1	2019_Mar_02_0945	s	s	2	2	SIC	340	2_4	2	4	1	1	23_1_1	-1	3	1	0	0.505086898804	-211.0	152.0	-208.0	150.0	1
3.0.1	2019_Mar_02_0945	s	s	2	2	SIC	341	ABS	0	0	4	1	24_4_1	NA	NA	0	1	0.516825914383	None	None	None	None	1
3.0.1	2019_Mar_02_0945	s	s	2	2	SIC	342	ABS	0	0	2	2	24_2_2	NA	NA	0	1	3.31883406639	None	None	None	None	1
3.0.1	2019_Mar_02_0945	s	s	2	2	SIC	343	ABS	0	0	1	2	24_1_2	NA	NA	0	1	3.95108389854	None	None	None	None	1
3.0.1	2019_Mar_02_0945	s	s	2	2	SIC	344	ABS	0	0	3	4	24_3_4	NA	NA	0	1	1.66284179688	None	None	None	None	1
3.0.1	2019_Mar_02_0945	s	s	2	2	SIC	345	ABS	0	0	4	3	24_4_3	NA	NA	0	1	4.35094094276	None	None	None	None	1
3.0.1	2019_Mar_02_0945	s	s	2	2	SIC	346	3_2	3	2	2	1	23_2_1	1	-1	1	0	0.944691181183	-411.0	-269.0	-404.0	-268.0	1
3.0.1	2019_Mar_02_0945	s	s	2	2	SIC	347	4_4	4	4	3	2	23_3_2	1	2	1	0	0.446198940277	96.0	-49.0	91.0	-47.0	1
3.0.1	2019_Mar_02_0945	s	s	2	2	SIC	348	ABS	0	0	1	4	24_1_4	NA	NA	0	1	1.93990397453	None	None	None	None	1
3.0.1	2019_Mar_02_0945	s	s	2	2	SIC	349	ABS	0	0	3	4	24_3_4	NA	NA	0	1	1.26065301895	None	None	None	None	1
3.0.1	2019_Mar_02_0945	s	s	2	2	SIC	350	ABS	0	0	2	1	24_2_1	NA	NA	0	1	2.99878787994	None	None	None	None	1
3.0.1	2019_Mar_02_0945	s	s	2	2	SIC	351	1_4	1	4	1	2	23_1_2	0	2	1	0	0.810842037201	-428.0	58.0	-436.0	56.0	1
3.0.1	2019_Mar_02_0945	s	s	2	2	SIC	352	1_4	1	4	4	3	23_4_3	3	1	1	0	0.423192024231	302.0	-13.0	306.0	-18.0	1
3.0.1	2019_Mar_02_0945	s	s	2	2	SIC	353	ABS	0	0	2	2	24_2_2	NA	NA	0	1	4.20621609688	None	None	None	None	1
3.0.1	2019_Mar_02_0945	s	s	2	2	SIC	354	4_3	4	3	1	4	23_1_4	3	-1	1	0	0.457969903946	511.0	-337.0	514.0	-335.0	1
3.0.1	2019_Mar_02_0945	s	s	2	2	SIC	355	ABS	0	0	4	3	24_4_3	NA	NA	0	1	4.44979190826	None	None	None	None	1
3.0.1	2019_Mar_02_0945	s	s	2	2	SIC	356	2_3	2	3	3	3	23_3_3	1	0	1	0	0.457961797714	404.0	297.0	406.0	305.0	1
3.0.1	2019_Mar_02_0945	s	s	2	2	SIC	357	2_3	2	3	3	1	23_3_1	1	2	1	0	0.80429816246	257.0	-133.0	260.0	-137.0	1
3.0.1	2019_Mar_02_0945	s	s	2	2	SIC	358	ABS	0	0	4	3	24_4_3	NA	NA	0	1	3.88037085533	None	None	None	None	1
3.0.1	2019_Mar_02_0945	s	s	2	2	SIC	359	3_2	3	2	2	4	23_2_4	1	2	1	0	0.437335968018	230.0	174.0	234.0	172.0	1
3.0.1	2019_Mar_02_0945	s	s	2	2	SIC	360	ABS	0	0	1	3	24_1_3	NA	NA	0	1	4.6850130558	None	None	None	None	1
3.0.1	2019_Mar_02_0945	s	s	2	2	SIC	361	2_1	2	1	1	3	23_1_3	-1	2	1	0	1.76872301102	-465.0	234.0	-461.0	232.0	1
3.0.1	2019_Mar_02_0945	s	s	2	2	SIC	362	ABS	0	0	3	3	24_3_3	NA	NA	0	1	3.59127497673	None	None	None	None	1
3.0.1	2019_Mar_02_0945	s	s	2	2	SIC	363	ABS	0	0	2	4	24_2_4	NA	NA	0	1	1.32852315903	None	None	None	None	1
3.0.1	2019_Mar_02_0945	s	s	2	2	SIC	364	3_4	3	4	3	1	23_3_1	0	3	1	0	0.928466796875	-139.0	101.0	-137.0	98.0	1
3.0.1	2019_Mar_02_0945	s	s	2	2	SIC	365	ABS	0	0	4	2	24_4_2	NA	NA	0	1	1.8692381382	None	None	None	None	1
3.0.1	2019_Mar_02_0945	s	s	2	2	SIC	366	ABS	0	0	2	1	24_2_1	NA	NA	0	1	2.03402614594	None	None	None	None	1
3.0.1	2019_Mar_02_0945	s	s	2	2	SIC	367	3_4	3	4	2	1	23_2_1	1	3	1	0	0.795224905014	16.0	-301.0	16.0	-296.0	1
3.0.1	2019_Mar_02_0945	s	s	2	2	SIC	368	ABS	0	0	2	3	24_2_3	NA	NA	0	1	3.17476296425	None	None	None	None	1
3.0.1	2019_Mar_02_0945	s	s	2	2	SIC	369	2_3	2	3	1	3	23_1_3	-1	0	0	1	2.81543588638	-109.0	377.0	None	None	0
3.0.1	2019_Mar_02_0945	s	s	2	2	SIC	370	2_1	2	1	3	1	23_3_1	1	0	1	0	0.9078540802	486.0	47.0	495.0	44.0	1
3.0.1	2019_Mar_02_0945	s	s	2	2	SIC	371	3_3	3	3	2	1	23_2_1	1	2	1	0	2.15582895279	-400.0	349.0	-392.0	348.0	1
3.0.1	2019_Mar_02_0945	s	s	2	2	SIC	372	2_3	2	3	2	1	23_2_1	0	2	1	0	2.0311191082	-413.0	-196.0	-422.0	-192.0	1
3.0.1	2019_Mar_02_0945	s	s	2	2	SIC	373	4_3	4	3	1	2	23_1_2	3	1	1	0	0.39920091629	197.0	322.0	197.0	324.0	1
3.0.1	2019_Mar_02_0945	s	s	2	2	SIC	374	4_2	4	2	3	1	23_3_1	1	-1	1	0	0.403956890106	246.0	-100.0	250.0	-101.0	1
3.0.1	2019_Mar_02_0945	s	s	2	2	SIC	375	ABS	0	0	3	2	24_3_2	NA	NA	0	1	4.73016691208	None	None	None	None	1
3.0.1	2019_Mar_02_0945	s	s	2	2	SIC	376	ABS	0	0	4	4	24_4_4	NA	NA	0	1	0.951949119568	None	None	None	None	1
3.0.1	2019_Mar_02_0945	s	s	2	2	SIC	377	ABS	0	0	1	3	24_1_3	NA	NA	0	1	3.35128712654	None	None	None	None	1
3.0.1	2019_Mar_02_0945	s	s	2	2	SIC	378	1_3	1	3	2	1	23_2_1	1	2	1	0	0.944474935532	-227.0	97.0	-222.0	101.0	1
3.0.1	2019_Mar_02_0945	s	s	2	2	SIC	379	ABS	0	0	1	1	24_1_1	NA	NA	0	1	1.98699116707	None	None	None	None	1
3.0.1	2019_Mar_02_0945	s	s	2	2	SIC	380	4_4	4	4	1	1	23_1_1	3	3	1	0	0.650394201279	157.0	87.0	165.0	84.0	1
3.0.1	2019_Mar_02_0945	s	s	2	2	SIC	381	ABS	0	0	4	1	24_4_1	NA	NA	0	1	2.50177884102	None	None	None	None	1
3.0.1	2019_Mar_02_0945	s	s	2	2	SIC	382	4_1	4	1	3	3	23_3_3	1	2	1	0	0.415889024734	299.0	180.0	295.0	179.0	1
3.0.1	2019_Mar_02_0945	s	s	2	2	SIC	383	ABS	0	0	4	1	24_4_1	NA	NA	0	1	2.79063010216	None	None	None	None	1
3.0.1	2019_Mar_02_0945	s	s	2	2	SIC	384	1_1	1	1	1	3	23_1_3	0	2	1	0	2.65734004974	361.0	-339.0	369.0	-344.0	1
3.0.1	2019_Mar_02_0945	s	s	2	2	SIC	385	ABS	0	0	1	4	24_1_4	NA	NA	0	1	3.42835187912	None	None	None	None	1
3.0.1	2019_Mar_02_0945	s	s	2	2	SIC	386	ABS	0	0	4	1	24_4_1	NA	NA	0	1	3.5395758152	None	None	None	None	1
3.0.1	2019_Mar_02_0945	s	s	2	2	SIC	387	2_3	2	3	4	4	23_4_4	2	-1	1	0	0.469746112823	-2.0	232.0	-3.0	236.0	1
3.0.1	2019_Mar_02_0945	s	s	2	2	SIC	388	4_1	4	1	4	4	23_4_4	0	3	1	0	0.399112939835	-92.0	140.0	-89.0	138.0	1
3.0.1	2019_Mar_02_0945	s	s	2	2	SIC	389	1_1	1	1	2	1	23_2_1	1	0	0	1	3.2728741169	-415.0	-90.0	None	None	0
3.0.1	2019_Mar_02_0945	s	s	2	2	SIC	390	3_3	3	3	4	3	23_4_3	-1	0	1	0	0.528548955917	362.0	-268.0	368.0	-267.0	1
3.0.1	2019_Mar_02_0945	s	s	2	2	SIC	391	ABS	0	0	4	4	24_4_4	NA	NA	0	1	2.03114914894	None	None	None	None	1
3.0.1	2019_Mar_02_0945	s	s	2	2	SIC	392	ABS	0	0	4	1	24_4_1	NA	NA	0	1	1.94402384758	None	None	None	None	1
3.0.1	2019_Mar_02_0945	s	s	2	2	SIC	393	1_4	1	4	2	3	23_2_3	1	1	1	0	1.28122901917	-143.0	-117.0	-136.0	-113.0	1
3.0.1	2019_Mar_02_0945	s	s	2	2	SIC	394	3_4	3	4	2	2	23_2_2	1	2	1	0	0.554998159409	230.0	-216.0	227.0	-217.0	1
3.0.1	2019_Mar_02_0945	s	s	2	2	SIC	395	ABS	0	0	3	1	24_3_1	NA	NA	0	1	2.50439691544	None	None	None	None	1
3.0.1	2019_Mar_02_0945	s	s	2	2	SIC	396	ABS	0	0	3	1	24_3_1	NA	NA	0	1	1.79483604431	None	None	None	None	1
3.0.1	2019_Mar_02_0945	s	s	2	2	SIC	397	1_1	1	1	3	1	23_3_1	2	0	1	0	0.686517000198	-175.0	-219.0	-179.0	-219.0	1
3.0.1	2019_Mar_02_0945	s	s	2	2	SIC	398	ABS	0	0	2	4	24_2_4	NA	NA	0	1	1.96883201599	None	None	None	None	1
3.0.1	2019_Mar_02_0945	s	s	2	2	SIC	399	4_1	4	1	3	1	23_3_1	1	0	1	0	0.451631069183	-365.0	-205.0	-371.0	-209.0	1
3.0.1	2019_Mar_02_0945	s	s	2	2	SIC	400	1_1	1	1	3	3	23_3_3	2	2	1	0	0.893314123154	28.0	358.0	36.0	363.0	1
3.0.1	2019_Mar_02_0945	s	s	2	2	SIC	401	1_2	1	2	1	3	23_1_3	0	1	1	0	3.33946299553	-184.0	364.0	-191.0	371.0	1
3.0.1	2019_Mar_02_0945	s	s	2	2	SIC	402	ABS	0	0	3	3	24_3_3	NA	NA	0	1	5.14188790321	None	None	None	None	1
3.0.1	2019_Mar_02_0945	s	s	2	2	SIC	403	4_4	4	4	3	1	23_3_1	1	3	1	0	0.587378978729	463.0	82.0	465.0	89.0	1
3.0.1	2019_Mar_02_0945	s	s	2	2	SIC	404	ABS	0	0	2	2	24_2_2	NA	NA	0	1	4.30392718315	None	None	None	None	1
3.0.1	2019_Mar_02_0945	s	s	2	2	SIC	405	4_3	4	3	3	2	23_3_2	1	1	1	0	0.443927049637	103.0	370.0	103.0	367.0	1
3.0.1	2019_Mar_02_0945	s	s	2	2	SIC	406	2_2	2	2	1	3	23_1_3	-1	1	1	0	1.86283302307	-309.0	-80.0	-308.0	-86.0	1
3.0.1	2019_Mar_02_0945	s	s	2	2	SIC	407	4_1	4	1	3	2	23_3_2	1	1	1	0	0.673084020615	180.0	-307.0	172.0	-311.0	1
3.0.1	2019_Mar_02_0945	s	s	2	2	SIC	408	4_4	4	4	3	4	23_3_4	1	0	1	0	0.437392950058	-363.0	-218.0	-360.0	-214.0	1
3.0.1	2019_Mar_02_0945	s	s	2	2	SIC	409	3_4	3	4	2	3	23_2_3	1	1	1	0	0.709881067276	523.0	-289.0	530.0	-293.0	1
3.0.1	2019_Mar_02_0945	s	s	2	2	SIC	410	4_4	4	4	1	4	23_1_4	3	0	1	0	0.39919090271	329.0	-407.0	332.0	-412.0	1
3.0.1	2019_Mar_02_0945	s	s	2	2	SIC	411	1_1	1	1	2	2	23_2_2	1	1	1	0	2.49267101288	-428.0	395.0	-423.0	403.0	1
3.0.1	2019_Mar_02_0945	s	s	2	2	SIC	412	ABS	0	0	4	2	24_4_2	NA	NA	0	1	4.4450340271	None	None	None	None	1
3.0.1	2019_Mar_02_0945	s	s	2	2	SIC	413	ABS	0	0	1	3	24_1_3	NA	NA	0	1	3.73942303658	None	None	None	None	1
3.0.1	2019_Mar_02_0945	s	s	2	2	SIC	414	2_4	2	4	1	4	23_1_4	-1	0	0	1	1.57532095909	-315.0	321.0	None	None	0
3.0.1	2019_Mar_02_0945	s	s	2	2	SIC	415	3_1	3	1	3	4	23_3_4	0	3	1	0	0.567184925079	-300.0	-163.0	-289.0	-155.0	1
3.0.1	2019_Mar_02_0945	s	s	2	2	SIC	416	3_1	3	1	1	3	23_1_3	2	2	1	0	0.457957029343	-75.0	273.0	-77.0	269.0	1
3.0.1	2019_Mar_02_0945	s	s	2	2	SIC	417	2_2	2	2	3	1	23_3_1	1	-1	0	1	1.52043199539	517.0	139.0	None	None	0
3.0.1	2019_Mar_02_0945	s	s	2	2	SIC	418	ABS	0	0	4	3	24_4_3	NA	NA	0	1	3.05763101578	None	None	None	None	1
3.0.1	2019_Mar_02_0945	s	s	2	2	SIC	419	ABS	0	0	2	2	24_2_2	NA	NA	0	1	3.88056516647	None	None	None	None	1
3.0.1	2019_Mar_02_0945	s	s	2	2	SIC	420	ABS	0	0	2	4	24_2_4	NA	NA	0	1	1.81701302528	None	None	None	None	1
3.0.1	2019_Mar_02_0945	s	s	2	2	SIC	421	1_4	1	4	4	2	23_4_2	3	2	1	0	0.546830892563	444.0	237.0	445.0	237.0	1
3.0.1	2019_Mar_02_0945	s	s	2	2	SIC	422	ABS	0	0	3	3	24_3_3	NA	NA	0	1	3.55407500267	None	None	None	None	1
3.0.1	2019_Mar_02_0945	s	s	2	2	SIC	423	3_1	3	1	1	1	23_1_1	2	0	1	0	0.587357997894	-275.0	407.0	-274.0	399.0	1
3.0.1	2019_Mar_02_0945	s	s	2	2	SIC	424	3_2	3	2	1	1	23_1_1	2	-1	1	0	0.757128953934	-303.0	10.0	-304.0	19.0	1
3.0.1	2019_Mar_02_0945	s	s	2	2	SIC	425	ABS	0	0	4	4	24_4_4	NA	NA	0	1	1.28127193451	None	None	None	None	1
3.0.1	2019_Mar_02_0945	s	s	2	2	SIC	426	4_1	4	1	1	3	23_1_3	3	2	1	0	0.434439897537	92.0	246.0	89.0	243.0	1
3.0.1	2019_Mar_02_0945	s	s	2	2	SIC	427	ABS	0	0	4	3	24_4_3	NA	NA	0	1	2.26153802872	None	None	None	None	1
3.0.1	2019_Mar_02_0945	s	s	2	2	SIC	428	ABS	0	0	3	1	24_3_1	NA	NA	0	1	2.9071931839	None	None	None	None	1
3.0.1	2019_Mar_02_0945	s	s	2	2	SIC	429	ABS	0	0	2	2	24_2_2	NA	NA	0	1	3.32772994041	None	None	None	None	1
3.0.1	2019_Mar_02_0945	s	s	2	2	SIC	430	ABS	0	0	4	1	24_4_1	NA	NA	0	1	1.68598413467	None	None	None	None	1
3.0.1	2019_Mar_02_0945	s	s	2	2	SIC	431	ABS	0	0	1	3	24_1_3	NA	NA	0	1	3.44991493225	None	None	None	None	1
3.0.1	2019_Mar_02_0945	s	s	2	2	SIC	432	ABS	0	0	1	4	24_1_4	NA	NA	0	1	2.05750513077	None	None	None	None	1
3.0.1	2019_Mar_02_0945	s	s	2	2	SIC	433	ABS	0	0	4	1	24_4_1	NA	NA	0	1	1.76350402832	None	None	None	None	1
3.0.1	2019_Mar_02_0945	s	s	2	2	SIC	434	ABS	0	0	4	4	24_4_4	NA	NA	0	1	2.23833203316	None	None	None	None	1
3.0.1	2019_Mar_02_0945	s	s	2	2	SIC	435	4_2	4	2	1	2	23_1_2	3	0	1	0	0.446309089661	-500.0	135.0	-498.0	139.0	1
3.0.1	2019_Mar_02_0945	s	s	2	2	SIC	436	2_4	2	4	1	3	23_1_3	-1	1	1	0	1.23874306679	-324.0	200.0	-326.0	203.0	1
3.0.1	2019_Mar_02_0945	s	s	2	2	SIC	437	3_4	3	4	4	2	23_4_2	-1	2	1	0	0.48157119751	-334.0	-246.0	-327.0	-253.0	1
3.0.1	2019_Mar_02_0945	s	s	2	2	SIC	438	1_2	1	2	4	1	23_4_1	3	-1	1	0	0.378541946411	96.0	56.0	95.0	60.0	1
3.0.1	2019_Mar_02_0945	s	s	2	2	SIC	439	ABS	0	0	4	4	24_4_4	NA	NA	0	1	1.58036708832	None	None	None	None	1
3.0.1	2019_Mar_02_0945	s	s	2	2	SIC	440	ABS	0	0	3	2	24_3_2	NA	NA	0	1	3.72237110138	None	None	None	None	1
3.0.1	2019_Mar_02_0945	s	s	2	2	SIC	441	2_4	2	4	2	1	23_2_1	0	3	1	0	0.673494815826	-520.0	327.0	-521.0	320.0	1
3.0.1	2019_Mar_02_0945	s	s	2	2	SIC	442	ABS	0	0	3	2	24_3_2	NA	NA	0	1	4.05364894867	None	None	None	None	1
3.0.1	2019_Mar_02_0945	s	s	2	2	SIC	443	1_1	1	1	4	3	23_4_3	3	2	1	0	0.511106967926	-442.0	-331.0	-437.0	-328.0	1
3.0.1	2019_Mar_02_0945	s	s	2	2	SIC	444	1_2	1	2	4	4	23_4_4	3	2	1	0	0.387473106384	-33.0	-125.0	-36.0	-123.0	1
3.0.1	2019_Mar_02_0945	s	s	2	2	SIC	445	3_3	3	3	2	3	23_2_3	1	0	1	0	0.822642087936	-54.0	264.0	-48.0	274.0	1
3.0.1	2019_Mar_02_0945	s	s	2	2	SIC	446	ABS	0	0	3	4	24_3_4	NA	NA	0	1	2.11660790443	None	None	None	None	1
3.0.1	2019_Mar_02_0945	s	s	2	2	SIC	447	3_2	3	2	3	4	23_3_4	0	2	1	0	0.458549976349	350.0	126.0	352.0	127.0	1
3.0.1	2019_Mar_02_0945	s	s	2	2	SIC	448	ABS	0	0	2	1	24_2_1	NA	NA	0	1	3.17479205132	None	None	None	None	1
3.0.1	2019_Mar_02_0945	s	s	2	2	SIC	449	2_2	2	2	1	2	23_1_2	-1	0	0	1	3.14246106148	-106.0	-346.0	None	None	0
3.0.1	2019_Mar_02_0945	s	s	2	2	SIC	450	ABS	0	0	4	2	24_4_2	NA	NA	0	1	2.96610403061	None	None	None	None	1
3.0.1	2019_Mar_02_0945	s	s	2	2	SIC	451	ABS	0	0	2	3	24_2_3	NA	NA	0	1	3.65707778931	None	None	None	None	1
3.0.1	2019_Mar_02_0945	s	s	2	2	SIC	452	ABS	0	0	3	2	24_3_2	NA	NA	0	1	2.35154604912	None	None	None	None	1
3.0.1	2019_Mar_02_0945	s	s	2	2	SIC	453	ABS	0	0	3	3	24_3_3	NA	NA	0	1	2.74510478973	None	None	None	None	1
3.0.1	2019_Mar_02_0945	s	s	2	2	SIC	454	2_2	2	2	4	2	23_4_2	2	0	1	0	0.49621796608	39.0	-376.0	43.0	-380.0	1
3.0.1	2019_Mar_02_0945	s	s	2	2	SIC	455	4_2	4	2	2	1	23_2_1	2	-1	1	0	0.486606121063	-532.0	402.0	-532.0	396.0	1
3.0.1	2019_Mar_02_0945	s	s	2	2	SIC	456	2_3	2	3	2	4	23_2_4	0	-1	1	0	1.10128593445	-129.0	271.0	-131.0	262.0	1
3.0.1	2019_Mar_02_0945	s	s	2	2	SIC	457	ABS	0	0	2	3	24_2_3	NA	NA	0	1	3.99851918221	None	None	None	None	1
3.0.1	2019_Mar_02_0945	s	s	2	2	SIC	458	ABS	0	0	3	4	24_3_4	NA	NA	0	1	1.21530199051	None	None	None	None	1
3.0.1	2019_Mar_02_0945	s	s	2	2	SIC	459	1_3	1	3	2	3	23_2_3	1	0	0	1	2.9631421566	-61.0	-176.0	None	None	0
3.0.1	2019_Mar_02_0945	s	s	2	2	SIC	460	ABS	0	0	2	1	24_2_1	NA	NA	0	1	2.55185699463	None	None	None	None	1
3.0.1	2019_Mar_02_0945	s	s	2	2	SIC	461	ABS	0	0	3	3	24_3_3	NA	NA	0	1	2.54011201859	None	None	None	None	1
3.0.1	2019_Mar_02_0945	s	s	2	2	SIC	462	ABS	0	0	2	4	24_2_4	NA	NA	0	1	1.55469703674	None	None	None	None	1
3.0.1	2019_Mar_02_0945	s	s	2	2	SIC	463	2_2	2	2	2	3	23_2_3	0	1	1	0	1.51651406288	-226.0	-228.0	-218.0	-233.0	1
3.0.1	2019_Mar_02_0945	s	s	2	2	SIC	464	2_2	2	2	3	3	23_3_3	1	1	1	0	0.561690092087	-264.0	3.0	-255.0	-1.0	1
3.0.1	2019_Mar_02_0945	s	s	2	2	SIC	465	ABS	0	0	1	2	24_1_2	NA	NA	0	1	2.89260292053	None	None	None	None	1
3.0.1	2019_Mar_02_0945	s	s	2	2	SIC	466	ABS	0	0	3	4	24_3_4	NA	NA	0	1	1.60178303719	None	None	None	None	1
3.0.1	2019_Mar_02_0945	s	s	2	2	SIC	467	2_2	2	2	3	2	23_3_2	1	0	1	0	0.740307807922	-133.0	58.0	-131.0	58.0	1
3.0.1	2019_Mar_02_0945	s	s	2	2	SIC	468	1_4	1	4	4	4	23_4_4	3	0	1	0	0.457993030548	-444.0	-139.0	-443.0	-139.0	1
3.0.1	2019_Mar_02_0945	s	s	2	2	SIC	469	1_1	1	1	4	2	23_4_2	3	1	1	0	0.410989999771	-13.0	222.0	-5.0	223.0	1
3.0.1	2019_Mar_02_0945	s	s	2	2	SIC	470	ABS	0	0	2	1	24_2_1	NA	NA	0	1	2.15499901772	None	None	None	None	1
3.0.1	2019_Mar_02_0945	s	s	2	2	SIC	471	ABS	0	0	2	4	24_2_4	NA	NA	0	1	1.28117990494	None	None	None	None	1
3.0.1	2019_Mar_02_0945	s	s	2	2	SIC	472	1_1	1	1	1	2	23_1_2	0	1	1	0	1.05242609978	-154.0	335.0	-156.0	337.0	1
3.0.1	2019_Mar_02_0945	s	s	2	2	SIC	473	ABS	0	0	1	3	24_1_3	NA	NA	0	1	4.0854268074	None	None	None	None	1
3.0.1	2019_Mar_02_0945	s	s	2	2	SIC	474	ABS	0	0	4	3	24_4_3	NA	NA	0	1	3.23786902428	None	None	None	None	1
3.0.1	2019_Mar_02_0945	s	s	2	2	SIC	475	ABS	0	0	2	1	24_2_1	NA	NA	0	1	2.42215180397	None	None	None	None	1
3.0.1	2019_Mar_02_0945	s	s	2	2	SIC	476	3_4	3	4	4	4	23_4_4	-1	0	1	0	0.608217000961	-20.0	-384.0	-19.0	-380.0	1
3.0.1	2019_Mar_02_0945	s	s	2	2	SIC	477	ABS	0	0	4	4	24_4_4	NA	NA	0	1	1.28134012222	None	None	None	None	1
3.0.1	2019_Mar_02_0945	s	s	2	2	SIC	478	ABS	0	0	3	3	24_3_3	NA	NA	0	1	2.38465881348	None	None	None	None	1
3.0.1	2019_Mar_02_0945	s	s	2	2	SIC	479	ABS	0	0	2	2	24_2_2	NA	NA	0	1	3.70409321785	None	None	None	None	1
3.0.1	2019_Mar_02_0945	s	s	2	2	SIC	480	2_4	2	4	3	1	23_3_1	1	3	1	0	0.911150217056	267.0	-355.0	265.0	-357.0	1
