Version	Date	Stimuli	Method	Subject	Session	Condition	Trial	Target	TColor	TShape	DColor	DShape	Distractors	Channel1	Channel2	LMouseButton	RMouseButton	RT	TargetX	TargetY	ResponseX	ResponseY	Correct
3.0.1	2019_Mar_03_1022	s	s	2	3	Capacity	1	ABS	0	0	1	1	24_1_1	NA	NA	0	1	2.62949991226	None	None	None	None	1
3.0.1	2019_Mar_03_1022	s	s	2	3	Capacity	2	1_1	1	1	1	2	23_1_2	0	1	1	0	1.13324403763	480.0	-34.0	472.0	-29.0	1
3.0.1	2019_Mar_03_1022	s	s	2	3	Capacity	3	ABS	0	0	1	2	24_1_2	NA	NA	0	1	2.97477793694	None	None	None	None	1
3.0.1	2019_Mar_03_1022	s	s	2	3	Capacity	4	ABS	0	0	1	3	24_1_3	NA	NA	0	1	3.26899504662	None	None	None	None	1
3.0.1	2019_Mar_03_1022	s	s	2	3	Capacity	5	1_4	1	4	1	2	23_1_2	0	2	1	0	0.693222045898	-508.0	3.0	-503.0	1.0	1
3.0.1	2019_Mar_03_1022	s	s	2	3	Capacity	6	1_3	1	3	1	1	23_1_1	0	2	1	0	1.23417305946	248.0	312.0	250.0	318.0	1
3.0.1	2019_Mar_03_1022	s	s	2	3	Capacity	7	1_4	1	4	1	3	23_1_3	0	1	1	0	0.657916069031	500.0	-99.0	500.0	-108.0	1
3.0.1	2019_Mar_03_1022	s	s	2	3	Capacity	8	ABS	0	0	1	4	24_1_4	NA	NA	0	1	2.45739793777	None	None	None	None	1
3.0.1	2019_Mar_03_1022	s	s	2	3	Capacity	9	1_2	1	2	1	4	23_1_4	0	2	1	0	0.822531938553	535.0	30.0	532.0	28.0	1
3.0.1	2019_Mar_03_1022	s	s	2	3	Capacity	10	1_2	1	2	1	1	23_1_1	0	-1	1	0	1.53991484642	-214.0	-114.0	-212.0	-116.0	1
3.0.1	2019_Mar_03_1022	s	s	2	3	Capacity	11	1_1	1	1	1	3	23_1_3	0	2	1	0	1.48122906685	-417.0	-277.0	-419.0	-281.0	1
3.0.1	2019_Mar_03_1022	s	s	2	3	Capacity	12	ABS	0	0	1	2	24_1_2	NA	NA	0	1	3.3346350193	None	None	None	None	1
3.0.1	2019_Mar_03_1022	s	s	2	3	Capacity	13	ABS	0	0	1	3	24_1_3	NA	NA	0	1	3.13248991966	None	None	None	None	1
3.0.1	2019_Mar_03_1022	s	s	2	3	Capacity	14	ABS	0	0	1	1	24_1_1	NA	NA	0	1	3.6839029789	None	None	None	None	1
3.0.1	2019_Mar_03_1022	s	s	2	3	Capacity	15	ABS	0	0	1	2	24_1_2	NA	NA	0	1	3.55655312538	None	None	None	None	1
3.0.1	2019_Mar_03_1022	s	s	2	3	Capacity	16	1_3	1	3	1	4	23_1_4	0	-1	1	0	0.528567075729	-196.0	-49.0	-188.0	-43.0	1
3.0.1	2019_Mar_03_1022	s	s	2	3	Capacity	17	ABS	0	0	1	1	24_1_1	NA	NA	0	1	2.61317300797	None	None	None	None	1
3.0.1	2019_Mar_03_1022	s	s	2	3	Capacity	18	ABS	0	0	1	4	24_1_4	NA	NA	0	1	2.07615494728	None	None	None	None	1
3.0.1	2019_Mar_03_1022	s	s	2	3	Capacity	19	1_4	1	4	1	1	23_1_1	0	3	1	0	1.01078605652	517.0	-330.0	521.0	-326.0	1
3.0.1	2019_Mar_03_1022	s	s	2	3	Capacity	20	1_1	1	1	1	4	23_1_4	0	3	1	0	0.496179103851	197.0	-186.0	206.0	-187.0	1
3.0.1	2019_Mar_03_1022	s	s	2	3	Capacity	21	1_2	1	2	1	3	23_1_3	0	1	1	0	1.74696516991	84.0	272.0	91.0	274.0	1
3.0.1	2019_Mar_03_1022	s	s	2	3	Capacity	22	1_3	1	3	1	2	23_1_2	0	1	1	0	1.1870880127	403.0	243.0	406.0	232.0	1
3.0.1	2019_Mar_03_1022	s	s	2	3	Capacity	23	ABS	0	0	1	4	24_1_4	NA	NA	0	1	2.10936784744	None	None	None	None	1
3.0.1	2019_Mar_03_1022	s	s	2	3	Capacity	24	ABS	0	0	1	3	24_1_3	NA	NA	0	1	4.30393099785	None	None	None	None	1
3.0.1	2019_Mar_03_1022	s	s	2	3	Capacity	25	ABS	0	0	1	1	24_1_1	NA	NA	0	1	4.39796996117	None	None	None	None	1
3.0.1	2019_Mar_03_1022	s	s	2	3	Capacity	26	ABS	0	0	1	4	24_1_4	NA	NA	0	1	1.35691714287	None	None	None	None	1
3.0.1	2019_Mar_03_1022	s	s	2	3	Capacity	27	1_1	1	1	1	3	23_1_3	0	2	1	0	1.11657714844	412.0	68.0	410.0	67.0	1
3.0.1	2019_Mar_03_1022	s	s	2	3	Capacity	28	1_2	1	2	1	1	23_1_1	0	-1	1	0	2.02727508545	-231.0	137.0	-229.0	136.0	1
3.0.1	2019_Mar_03_1022	s	s	2	3	Capacity	29	1_2	1	2	1	3	23_1_3	0	1	0	1	2.10460782051	321.0	-301.0	None	None	0
3.0.1	2019_Mar_03_1022	s	s	2	3	Capacity	30	1_4	1	4	1	2	23_1_2	0	2	1	0	0.768403053284	-506.0	-191.0	-509.0	-190.0	1
3.0.1	2019_Mar_03_1022	s	s	2	3	Capacity	31	1_3	1	3	1	1	23_1_1	0	2	1	0	1.65141010284	-500.0	-377.0	-496.0	-374.0	1
3.0.1	2019_Mar_03_1022	s	s	2	3	Capacity	32	ABS	0	0	1	2	24_1_2	NA	NA	0	1	2.88082313538	None	None	None	None	1
3.0.1	2019_Mar_03_1022	s	s	2	3	Capacity	33	1_1	1	1	1	4	23_1_4	0	3	1	0	0.560148000717	261.0	317.0	259.0	314.0	1
3.0.1	2019_Mar_03_1022	s	s	2	3	Capacity	34	ABS	0	0	1	1	24_1_1	NA	NA	0	1	2.06451106071	None	None	None	None	1
3.0.1	2019_Mar_03_1022	s	s	2	3	Capacity	35	1_3	1	3	1	4	23_1_4	0	-1	1	0	0.646177053452	-260.0	-115.0	-254.0	-122.0	1
3.0.1	2019_Mar_03_1022	s	s	2	3	Capacity	36	ABS	0	0	1	3	24_1_3	NA	NA	0	1	2.39085006714	None	None	None	None	1
3.0.1	2019_Mar_03_1022	s	s	2	3	Capacity	37	1_1	1	1	1	2	23_1_2	0	1	0	1	2.97397708893	-268.0	-330.0	None	None	0
3.0.1	2019_Mar_03_1022	s	s	2	3	Capacity	38	1_2	1	2	1	4	23_1_4	0	2	1	0	0.674388885498	190.0	286.0	186.0	280.0	1
3.0.1	2019_Mar_03_1022	s	s	2	3	Capacity	39	ABS	0	0	1	4	24_1_4	NA	NA	0	1	1.70461702347	None	None	None	None	1
3.0.1	2019_Mar_03_1022	s	s	2	3	Capacity	40	ABS	0	0	1	3	24_1_3	NA	NA	0	1	2.55438113213	None	None	None	None	1
3.0.1	2019_Mar_03_1022	s	s	2	3	Capacity	41	1_4	1	4	1	1	23_1_1	0	3	1	0	0.693182945251	-509.0	264.0	-512.0	266.0	1
3.0.1	2019_Mar_03_1022	s	s	2	3	Capacity	42	ABS	0	0	1	2	24_1_2	NA	NA	0	1	2.33871006966	None	None	None	None	1
3.0.1	2019_Mar_03_1022	s	s	2	3	Capacity	43	ABS	0	0	1	4	24_1_4	NA	NA	0	1	2.06257104874	None	None	None	None	1
3.0.1	2019_Mar_03_1022	s	s	2	3	Capacity	44	ABS	0	0	1	1	24_1_1	NA	NA	0	1	3.55918383598	None	None	None	None	1
3.0.1	2019_Mar_03_1022	s	s	2	3	Capacity	45	ABS	0	0	1	2	24_1_2	NA	NA	0	1	5.23298883438	None	None	None	None	1
3.0.1	2019_Mar_03_1022	s	s	2	3	Capacity	46	1_3	1	3	1	2	23_1_2	0	1	0	1	3.83829879761	-499.0	-209.0	None	None	0
3.0.1	2019_Mar_03_1022	s	s	2	3	Capacity	47	1_4	1	4	1	3	23_1_3	0	1	1	0	0.545717000961	-216.0	107.0	-216.0	105.0	1
3.0.1	2019_Mar_03_1022	s	s	2	3	Capacity	48	ABS	0	0	1	3	24_1_3	NA	NA	0	1	3.48058414459	None	None	None	None	1
3.0.1	2019_Mar_03_1022	s	s	2	3	Capacity	49	ABS	0	0	1	3	24_1_3	NA	NA	0	1	4.29212784767	None	None	None	None	1
3.0.1	2019_Mar_03_1022	s	s	2	3	Capacity	50	ABS	0	0	1	3	24_1_3	NA	NA	0	1	3.42180490494	None	None	None	None	1
3.0.1	2019_Mar_03_1022	s	s	2	3	Capacity	51	1_4	1	4	1	2	23_1_2	0	2	1	0	0.646201848984	-265.0	254.0	-261.0	250.0	1
3.0.1	2019_Mar_03_1022	s	s	2	3	Capacity	52	1_1	1	1	1	4	23_1_4	0	3	1	0	0.811225891113	147.0	-243.0	151.0	-246.0	1
3.0.1	2019_Mar_03_1022	s	s	2	3	Capacity	53	ABS	0	0	1	3	24_1_3	NA	NA	0	1	3.77492499352	None	None	None	None	1
3.0.1	2019_Mar_03_1022	s	s	2	3	Capacity	54	1_2	1	2	1	3	23_1_3	0	1	1	0	0.972099065781	-315.0	-83.0	-311.0	-82.0	1
3.0.1	2019_Mar_03_1022	s	s	2	3	Capacity	55	1_3	1	3	1	4	23_1_4	0	-1	1	0	0.71010184288	9.0	140.0	6.0	137.0	1
3.0.1	2019_Mar_03_1022	s	s	2	3	Capacity	56	ABS	0	0	1	4	24_1_4	NA	NA	0	1	2.70947504044	None	None	None	None	1
3.0.1	2019_Mar_03_1022	s	s	2	3	Capacity	57	1_1	1	1	1	2	23_1_2	0	1	0	1	2.49787211418	119.0	-378.0	None	None	0
3.0.1	2019_Mar_03_1022	s	s	2	3	Capacity	58	1_3	1	3	1	1	23_1_1	0	2	1	0	1.26066994667	101.0	-4.0	104.0	-6.0	1
3.0.1	2019_Mar_03_1022	s	s	2	3	Capacity	59	ABS	0	0	1	4	24_1_4	NA	NA	0	1	1.85264778137	None	None	None	None	1
3.0.1	2019_Mar_03_1022	s	s	2	3	Capacity	60	1_2	1	2	1	4	23_1_4	0	2	1	0	0.501672029495	330.0	90.0	330.0	91.0	1
3.0.1	2019_Mar_03_1022	s	s	2	3	Capacity	61	1_1	1	1	1	3	23_1_3	0	2	1	0	0.599128961563	-184.0	26.0	-182.0	22.0	1
3.0.1	2019_Mar_03_1022	s	s	2	3	Capacity	62	ABS	0	0	1	1	24_1_1	NA	NA	0	1	3.02526092529	None	None	None	None	1
3.0.1	2019_Mar_03_1022	s	s	2	3	Capacity	63	ABS	0	0	1	4	24_1_4	NA	NA	0	1	1.92820978165	None	None	None	None	1
3.0.1	2019_Mar_03_1022	s	s	2	3	Capacity	64	ABS	0	0	1	2	24_1_2	NA	NA	0	1	3.5394089222	None	None	None	None	1
3.0.1	2019_Mar_03_1022	s	s	2	3	Capacity	65	ABS	0	0	1	2	24_1_2	NA	NA	0	1	3.09787893295	None	None	None	None	1
3.0.1	2019_Mar_03_1022	s	s	2	3	Capacity	66	1_4	1	4	1	1	23_1_1	0	3	1	0	1.03425717354	532.0	-140.0	528.0	-137.0	1
3.0.1	2019_Mar_03_1022	s	s	2	3	Capacity	67	ABS	0	0	1	2	24_1_2	NA	NA	0	1	4.71550393105	None	None	None	None	1
3.0.1	2019_Mar_03_1022	s	s	2	3	Capacity	68	ABS	0	0	1	1	24_1_1	NA	NA	0	1	2.1919939518	None	None	None	None	1
3.0.1	2019_Mar_03_1022	s	s	2	3	Capacity	69	1_3	1	3	1	2	23_1_2	0	1	1	0	1.49591183662	358.0	-101.0	362.0	-101.0	1
3.0.1	2019_Mar_03_1022	s	s	2	3	Capacity	70	1_2	1	2	1	1	23_1_1	0	-1	1	0	2.52798604965	490.0	375.0	487.0	369.0	1
3.0.1	2019_Mar_03_1022	s	s	2	3	Capacity	71	1_4	1	4	1	3	23_1_3	0	1	1	0	0.705018997192	-250.0	146.0	-250.0	148.0	1
3.0.1	2019_Mar_03_1022	s	s	2	3	Capacity	72	ABS	0	0	1	1	24_1_1	NA	NA	0	1	2.43389105797	None	None	None	None	1
3.0.1	2019_Mar_03_1022	s	s	2	3	Capacity	73	1_3	1	3	1	4	23_1_4	0	-1	1	0	0.587381124496	-177.0	-201.0	-175.0	-199.0	1
3.0.1	2019_Mar_03_1022	s	s	2	3	Capacity	74	ABS	0	0	1	4	24_1_4	NA	NA	0	1	2.44849085808	None	None	None	None	1
3.0.1	2019_Mar_03_1022	s	s	2	3	Capacity	75	ABS	0	0	1	3	24_1_3	NA	NA	0	1	3.17483592033	None	None	None	None	1
3.0.1	2019_Mar_03_1022	s	s	2	3	Capacity	76	ABS	0	0	1	1	24_1_1	NA	NA	0	1	4.00241303444	None	None	None	None	1
3.0.1	2019_Mar_03_1022	s	s	2	3	Capacity	77	1_3	1	3	1	2	23_1_2	0	1	1	0	1.86241602898	338.0	410.0	334.0	409.0	1
3.0.1	2019_Mar_03_1022	s	s	2	3	Capacity	78	ABS	0	0	1	3	24_1_3	NA	NA	0	1	4.81554198265	None	None	None	None	1
3.0.1	2019_Mar_03_1022	s	s	2	3	Capacity	79	ABS	0	0	1	1	24_1_1	NA	NA	0	1	2.70912098885	None	None	None	None	1
3.0.1	2019_Mar_03_1022	s	s	2	3	Capacity	80	ABS	0	0	1	2	24_1_2	NA	NA	0	1	4.39322185516	None	None	None	None	1
3.0.1	2019_Mar_03_1022	s	s	2	3	Capacity	81	ABS	0	0	1	3	24_1_3	NA	NA	0	1	3.09250688553	None	None	None	None	1
3.0.1	2019_Mar_03_1022	s	s	2	3	Capacity	82	ABS	0	0	1	4	24_1_4	NA	NA	0	1	1.8811249733	None	None	None	None	1
3.0.1	2019_Mar_03_1022	s	s	2	3	Capacity	83	1_1	1	1	1	3	23_1_3	0	2	1	0	0.740257978439	3.0	-73.0	0.0	-71.0	1
3.0.1	2019_Mar_03_1022	s	s	2	3	Capacity	84	1_2	1	2	1	3	23_1_3	0	1	1	0	2.45052313805	-508.0	-357.0	-503.0	-363.0	1
3.0.1	2019_Mar_03_1022	s	s	2	3	Capacity	85	ABS	0	0	1	1	24_1_1	NA	NA	0	1	2.69793391228	None	None	None	None	1
3.0.1	2019_Mar_03_1022	s	s	2	3	Capacity	86	1_1	1	1	1	4	23_1_4	0	3	1	0	0.862895011902	-55.0	-401.0	-55.0	-403.0	1
3.0.1	2019_Mar_03_1022	s	s	2	3	Capacity	87	ABS	0	0	1	2	24_1_2	NA	NA	0	1	3.35799407959	None	None	None	None	1
3.0.1	2019_Mar_03_1022	s	s	2	3	Capacity	88	1_1	1	1	1	2	23_1_2	0	1	1	0	1.72039818764	385.0	345.0	386.0	346.0	1
3.0.1	2019_Mar_03_1022	s	s	2	3	Capacity	89	1_2	1	2	1	1	23_1_1	0	-1	1	0	1.78985786438	-370.0	349.0	-361.0	354.0	1
3.0.1	2019_Mar_03_1022	s	s	2	3	Capacity	90	1_4	1	4	1	2	23_1_2	0	2	1	0	0.826814889908	-514.0	-52.0	-511.0	-52.0	1
3.0.1	2019_Mar_03_1022	s	s	2	3	Capacity	91	1_4	1	4	1	1	23_1_1	0	3	1	0	0.857851982117	280.0	118.0	276.0	118.0	1
3.0.1	2019_Mar_03_1022	s	s	2	3	Capacity	92	ABS	0	0	1	2	24_1_2	NA	NA	0	1	4.81422114372	None	None	None	None	1
3.0.1	2019_Mar_03_1022	s	s	2	3	Capacity	93	1_3	1	3	1	1	23_1_1	0	2	1	0	0.8755838871	-486.0	-245.0	-482.0	-246.0	1
3.0.1	2019_Mar_03_1022	s	s	2	3	Capacity	94	1_4	1	4	1	3	23_1_3	0	1	1	0	0.563888072968	236.0	168.0	241.0	169.0	1
3.0.1	2019_Mar_03_1022	s	s	2	3	Capacity	95	ABS	0	0	1	4	24_1_4	NA	NA	0	1	1.86936402321	None	None	None	None	1
3.0.1	2019_Mar_03_1022	s	s	2	3	Capacity	96	1_2	1	2	1	4	23_1_4	0	2	1	0	0.552248954773	-242.0	325.0	-238.0	318.0	1
3.0.1	2019_Mar_03_1022	s	s	2	3	Capacity	1	ABS	0	0	3	1	24_3_1	NA	NA	0	1	0.474741220474	None	None	None	None	1
3.0.1	2019_Mar_03_1022	s	s	2	3	Capacity	2	4_1	4	1	3	1	23_3_1	1	0	1	0	0.356955051422	437.0	236.0	437.0	239.0	1
3.0.1	2019_Mar_03_1022	s	s	2	3	Capacity	3	ABS	0	0	4	1	24_4_1	NA	NA	0	1	0.437700033188	None	None	None	None	1
3.0.1	2019_Mar_03_1022	s	s	2	3	Capacity	4	1_1	1	1	4	1	23_4_1	3	0	1	0	0.340321779251	452.0	-313.0	454.0	-315.0	1
3.0.1	2019_Mar_03_1022	s	s	2	3	Capacity	5	1_1	1	1	3	1	23_3_1	2	0	1	0	0.469777107239	155.0	-185.0	157.0	-184.0	1
3.0.1	2019_Mar_03_1022	s	s	2	3	Capacity	6	3_1	3	1	4	1	23_4_1	-1	0	1	0	0.352133989334	-34.0	109.0	-38.0	106.0	1
3.0.1	2019_Mar_03_1022	s	s	2	3	Capacity	7	ABS	0	0	1	1	24_1_1	NA	NA	0	1	1.59116101265	None	None	None	None	1
3.0.1	2019_Mar_03_1022	s	s	2	3	Capacity	8	2_1	2	1	1	1	23_1_1	-1	0	0	1	0.940227031708	-440.0	-390.0	None	None	0
3.0.1	2019_Mar_03_1022	s	s	2	3	Capacity	9	ABS	0	0	2	1	24_2_1	NA	NA	0	1	0.999054908752	None	None	None	None	1
3.0.1	2019_Mar_03_1022	s	s	2	3	Capacity	10	ABS	0	0	2	1	24_2_1	NA	NA	0	1	1.22248506546	None	None	None	None	1
3.0.1	2019_Mar_03_1022	s	s	2	3	Capacity	11	2_1	2	1	4	1	23_4_1	2	0	1	0	0.369261980057	102.0	28.0	103.0	27.0	1
3.0.1	2019_Mar_03_1022	s	s	2	3	Capacity	12	3_1	3	1	1	1	23_1_1	2	0	1	0	0.461514949799	150.0	-347.0	146.0	-341.0	1
3.0.1	2019_Mar_03_1022	s	s	2	3	Capacity	13	1_1	1	1	2	1	23_2_1	1	0	0	1	0.693224906921	-92.0	-222.0	None	None	0
3.0.1	2019_Mar_03_1022	s	s	2	3	Capacity	14	2_1	2	1	3	1	23_3_1	1	0	1	0	0.74020409584	259.0	-242.0	261.0	-247.0	1
3.0.1	2019_Mar_03_1022	s	s	2	3	Capacity	15	ABS	0	0	3	1	24_3_1	NA	NA	0	1	1.17546105385	None	None	None	None	1
3.0.1	2019_Mar_03_1022	s	s	2	3	Capacity	16	ABS	0	0	1	1	24_1_1	NA	NA	0	1	1.44259095192	None	None	None	None	1
3.0.1	2019_Mar_03_1022	s	s	2	3	Capacity	17	ABS	0	0	4	1	24_4_1	NA	NA	0	1	0.752034902573	None	None	None	None	1
3.0.1	2019_Mar_03_1022	s	s	2	3	Capacity	18	ABS	0	0	1	1	24_1_1	NA	NA	0	1	1.29311680794	None	None	None	None	1
3.0.1	2019_Mar_03_1022	s	s	2	3	Capacity	19	ABS	0	0	3	1	24_3_1	NA	NA	0	1	1.3988931179	None	None	None	None	1
3.0.1	2019_Mar_03_1022	s	s	2	3	Capacity	20	4_1	4	1	1	1	23_1_1	3	0	1	0	0.402092933655	-269.0	41.0	-261.0	41.0	1
3.0.1	2019_Mar_03_1022	s	s	2	3	Capacity	21	3_1	3	1	2	1	23_2_1	1	0	1	0	0.446240901947	339.0	19.0	343.0	18.0	1
3.0.1	2019_Mar_03_1022	s	s	2	3	Capacity	22	4_1	4	1	2	1	23_2_1	2	0	1	0	0.437403917313	-256.0	350.0	-255.0	346.0	1
3.0.1	2019_Mar_03_1022	s	s	2	3	Capacity	23	ABS	0	0	2	1	24_2_1	NA	NA	0	1	0.716814041138	None	None	None	None	1
3.0.1	2019_Mar_03_1022	s	s	2	3	Capacity	24	ABS	0	0	4	1	24_4_1	NA	NA	0	1	1.10239100456	None	None	None	None	1
3.0.1	2019_Mar_03_1022	s	s	2	3	Capacity	25	2_1	2	1	4	1	23_4_1	2	0	1	0	0.416002035141	537.0	282.0	529.0	288.0	1
3.0.1	2019_Mar_03_1022	s	s	2	3	Capacity	26	1_1	1	1	3	1	23_3_1	2	0	1	0	0.422691822052	-80.0	192.0	-78.0	192.0	1
3.0.1	2019_Mar_03_1022	s	s	2	3	Capacity	27	3_1	3	1	2	1	23_2_1	1	0	1	0	0.469706058502	-440.0	100.0	-440.0	101.0	1
3.0.1	2019_Mar_03_1022	s	s	2	3	Capacity	28	1_1	1	1	2	1	23_2_1	1	0	0	1	1.03082799911	151.0	-337.0	None	None	0
3.0.1	2019_Mar_03_1022	s	s	2	3	Capacity	29	ABS	0	0	2	1	24_2_1	NA	NA	0	1	0.775516033173	None	None	None	None	1
3.0.1	2019_Mar_03_1022	s	s	2	3	Capacity	30	ABS	0	0	2	1	24_2_1	NA	NA	0	1	0.854778051376	None	None	None	None	1
3.0.1	2019_Mar_03_1022	s	s	2	3	Capacity	31	2_1	2	1	3	1	23_3_1	1	0	1	0	0.587453126907	370.0	-219.0	375.0	-217.0	1
3.0.1	2019_Mar_03_1022	s	s	2	3	Capacity	32	4_1	4	1	3	1	23_3_1	1	0	1	0	0.404000997543	334.0	-37.0	336.0	-34.0	1
3.0.1	2019_Mar_03_1022	s	s	2	3	Capacity	33	4_1	4	1	1	1	23_1_1	3	0	1	0	0.391712903976	349.0	327.0	355.0	326.0	1
3.0.1	2019_Mar_03_1022	s	s	2	3	Capacity	34	4_1	4	1	2	1	23_2_1	2	0	1	0	0.357468128204	300.0	196.0	305.0	193.0	1
3.0.1	2019_Mar_03_1022	s	s	2	3	Capacity	35	ABS	0	0	1	1	24_1_1	NA	NA	0	1	0.804141044617	None	None	None	None	1
3.0.1	2019_Mar_03_1022	s	s	2	3	Capacity	36	3_1	3	1	4	1	23_4_1	-1	0	1	0	0.453118085861	305.0	-131.0	301.0	-131.0	1
3.0.1	2019_Mar_03_1022	s	s	2	3	Capacity	37	ABS	0	0	3	1	24_3_1	NA	NA	0	1	0.913546085358	None	None	None	None	1
3.0.1	2019_Mar_03_1022	s	s	2	3	Capacity	38	3_1	3	1	1	1	23_1_1	2	0	1	0	0.533488035202	378.0	263.0	370.0	265.0	1
3.0.1	2019_Mar_03_1022	s	s	2	3	Capacity	39	ABS	0	0	3	1	24_3_1	NA	NA	0	1	1.00330996513	None	None	None	None	1
3.0.1	2019_Mar_03_1022	s	s	2	3	Capacity	40	ABS	0	0	1	1	24_1_1	NA	NA	0	1	0.857904911041	None	None	None	None	1
3.0.1	2019_Mar_03_1022	s	s	2	3	Capacity	41	ABS	0	0	4	1	24_4_1	NA	NA	0	1	1.02547478676	None	None	None	None	1
3.0.1	2019_Mar_03_1022	s	s	2	3	Capacity	42	ABS	0	0	1	1	24_1_1	NA	NA	0	1	1.71640992165	None	None	None	None	1
3.0.1	2019_Mar_03_1022	s	s	2	3	Capacity	43	ABS	0	0	3	1	24_3_1	NA	NA	0	1	0.940195083618	None	None	None	None	1
3.0.1	2019_Mar_03_1022	s	s	2	3	Capacity	44	2_1	2	1	1	1	23_1_1	-1	0	1	0	1.10483217239	302.0	286.0	296.0	284.0	1
3.0.1	2019_Mar_03_1022	s	s	2	3	Capacity	45	1_1	1	1	4	1	23_4_1	3	0	1	0	0.57868885994	400.0	-47.0	408.0	-49.0	1
3.0.1	2019_Mar_03_1022	s	s	2	3	Capacity	46	ABS	0	0	4	1	24_4_1	NA	NA	0	1	0.869606971741	None	None	None	None	1
3.0.1	2019_Mar_03_1022	s	s	2	3	Capacity	47	ABS	0	0	4	1	24_4_1	NA	NA	0	1	0.857833147049	None	None	None	None	1
3.0.1	2019_Mar_03_1022	s	s	2	3	Capacity	48	ABS	0	0	2	1	24_2_1	NA	NA	0	1	1.93985199928	None	None	None	None	1
3.0.1	2019_Mar_03_1022	s	s	2	3	Capacity	49	ABS	0	0	3	1	24_3_1	NA	NA	0	1	1.20183897018	None	None	None	None	1
3.0.1	2019_Mar_03_1022	s	s	2	3	Capacity	50	ABS	0	0	1	1	24_1_1	NA	NA	0	1	1.22248911858	None	None	None	None	1
3.0.1	2019_Mar_03_1022	s	s	2	3	Capacity	51	ABS	0	0	1	1	24_1_1	NA	NA	0	1	1.41391611099	None	None	None	None	1
3.0.1	2019_Mar_03_1022	s	s	2	3	Capacity	52	2_1	2	1	3	1	23_3_1	1	0	1	0	0.768055915833	15.0	-179.0	7.0	-184.0	1
3.0.1	2019_Mar_03_1022	s	s	2	3	Capacity	53	4_1	4	1	2	1	23_2_1	2	0	1	0	0.41095995903	251.0	-207.0	243.0	-205.0	1
3.0.1	2019_Mar_03_1022	s	s	2	3	Capacity	54	ABS	0	0	3	1	24_3_1	NA	NA	0	1	0.873615980148	None	None	None	None	1
3.0.1	2019_Mar_03_1022	s	s	2	3	Capacity	55	1_1	1	1	3	1	23_3_1	2	0	1	0	0.451462030411	316.0	370.0	315.0	373.0	1
3.0.1	2019_Mar_03_1022	s	s	2	3	Capacity	56	2_1	2	1	4	1	23_4_1	2	0	1	0	0.399174928665	175.0	-98.0	177.0	-96.0	1
3.0.1	2019_Mar_03_1022	s	s	2	3	Capacity	57	4_1	4	1	3	1	23_3_1	1	0	1	0	0.366799116135	84.0	404.0	81.0	397.0	1
3.0.1	2019_Mar_03_1022	s	s	2	3	Capacity	58	2_1	2	1	1	1	23_1_1	-1	0	0	1	1.49626994133	-505.0	-305.0	None	None	0
3.0.1	2019_Mar_03_1022	s	s	2	3	Capacity	59	ABS	0	0	4	1	24_4_1	NA	NA	0	1	1.14018082619	None	None	None	None	1
3.0.1	2019_Mar_03_1022	s	s	2	3	Capacity	60	ABS	0	0	3	1	24_3_1	NA	NA	0	1	1.7164208889	None	None	None	None	1
3.0.1	2019_Mar_03_1022	s	s	2	3	Capacity	61	1_1	1	1	4	1	23_4_1	3	0	1	0	0.387427091599	71.0	-403.0	72.0	-409.0	1
3.0.1	2019_Mar_03_1022	s	s	2	3	Capacity	62	ABS	0	0	1	1	24_1_1	NA	NA	0	1	1.17550683022	None	None	None	None	1
3.0.1	2019_Mar_03_1022	s	s	2	3	Capacity	63	3_1	3	1	1	1	23_1_1	2	0	1	0	0.457980871201	182.0	-24.0	173.0	-24.0	1
3.0.1	2019_Mar_03_1022	s	s	2	3	Capacity	64	ABS	0	0	2	1	24_2_1	NA	NA	0	1	0.810847043991	None	None	None	None	1
3.0.1	2019_Mar_03_1022	s	s	2	3	Capacity	65	ABS	0	0	4	1	24_4_1	NA	NA	0	1	1.09314489365	None	None	None	None	1
3.0.1	2019_Mar_03_1022	s	s	2	3	Capacity	66	4_1	4	1	1	1	23_1_1	3	0	1	0	0.38738489151	115.0	399.0	116.0	396.0	1
3.0.1	2019_Mar_03_1022	s	s	2	3	Capacity	67	3_1	3	1	4	1	23_4_1	-1	0	1	0	0.823408126831	-504.0	-404.0	-501.0	-405.0	1
3.0.1	2019_Mar_03_1022	s	s	2	3	Capacity	68	3_1	3	1	2	1	23_2_1	1	0	1	0	0.42271399498	106.0	142.0	101.0	135.0	1
3.0.1	2019_Mar_03_1022	s	s	2	3	Capacity	69	ABS	0	0	2	1	24_2_1	NA	NA	0	1	1.36361908913	None	None	None	None	1
3.0.1	2019_Mar_03_1022	s	s	2	3	Capacity	70	1_1	1	1	2	1	23_2_1	1	0	1	0	2.25016093254	251.0	-5.0	239.0	-4.0	1
3.0.1	2019_Mar_03_1022	s	s	2	3	Capacity	71	ABS	0	0	2	1	24_2_1	NA	NA	0	1	2.19120001793	None	None	None	None	1
3.0.1	2019_Mar_03_1022	s	s	2	3	Capacity	72	ABS	0	0	4	1	24_4_1	NA	NA	0	1	1.13510990143	None	None	None	None	1
3.0.1	2019_Mar_03_1022	s	s	2	3	Capacity	73	ABS	0	0	2	1	24_2_1	NA	NA	0	1	3.55407810211	None	None	None	None	1
3.0.1	2019_Mar_03_1022	s	s	2	3	Capacity	74	ABS	0	0	2	1	24_2_1	NA	NA	0	1	4.11576080322	None	None	None	None	1
3.0.1	2019_Mar_03_1022	s	s	2	3	Capacity	75	ABS	0	0	3	1	24_3_1	NA	NA	0	1	1.22241806984	None	None	None	None	1
3.0.1	2019_Mar_03_1022	s	s	2	3	Capacity	76	2_1	2	1	4	1	23_4_1	2	0	1	0	0.500768899918	258.0	-276.0	258.0	-272.0	1
3.0.1	2019_Mar_03_1022	s	s	2	3	Capacity	77	ABS	0	0	4	1	24_4_1	NA	NA	0	1	0.846215963364	None	None	None	None	1
3.0.1	2019_Mar_03_1022	s	s	2	3	Capacity	78	ABS	0	0	1	1	24_1_1	NA	NA	0	1	2.47403311729	None	None	None	None	1
3.0.1	2019_Mar_03_1022	s	s	2	3	Capacity	79	4_1	4	1	1	1	23_1_1	3	0	1	0	0.402050971985	89.0	291.0	85.0	285.0	1
3.0.1	2019_Mar_03_1022	s	s	2	3	Capacity	80	2_1	2	1	1	1	23_1_1	-1	0	1	0	2.48560380936	-478.0	30.0	-480.0	33.0	1
3.0.1	2019_Mar_03_1022	s	s	2	3	Capacity	81	ABS	0	0	2	1	24_2_1	NA	NA	0	1	2.03406190872	None	None	None	None	1
3.0.1	2019_Mar_03_1022	s	s	2	3	Capacity	82	ABS	0	0	3	1	24_3_1	NA	NA	0	1	1.96347999573	None	None	None	None	1
3.0.1	2019_Mar_03_1022	s	s	2	3	Capacity	83	3_1	3	1	4	1	23_4_1	-1	0	1	0	0.540245056152	418.0	55.0	414.0	57.0	1
3.0.1	2019_Mar_03_1022	s	s	2	3	Capacity	84	4_1	4	1	3	1	23_3_1	1	0	1	0	0.453444004059	-351.0	-133.0	-347.0	-134.0	1
3.0.1	2019_Mar_03_1022	s	s	2	3	Capacity	85	1_1	1	1	2	1	23_2_1	1	0	0	1	0.967017889023	44.0	-226.0	None	None	0
3.0.1	2019_Mar_03_1022	s	s	2	3	Capacity	86	ABS	0	0	3	1	24_3_1	NA	NA	0	1	1.39102602005	None	None	None	None	1
3.0.1	2019_Mar_03_1022	s	s	2	3	Capacity	87	3_1	3	1	2	1	23_2_1	1	0	1	0	0.758048057556	-330.0	-184.0	-332.0	-189.0	1
3.0.1	2019_Mar_03_1022	s	s	2	3	Capacity	88	3_1	3	1	1	1	23_1_1	2	0	1	0	0.511309862137	-451.0	131.0	-453.0	140.0	1
3.0.1	2019_Mar_03_1022	s	s	2	3	Capacity	89	ABS	0	0	4	1	24_4_1	NA	NA	0	1	0.913586139679	None	None	None	None	1
3.0.1	2019_Mar_03_1022	s	s	2	3	Capacity	90	ABS	0	0	1	1	24_1_1	NA	NA	0	1	2.36337399483	None	None	None	None	1
3.0.1	2019_Mar_03_1022	s	s	2	3	Capacity	91	4_1	4	1	2	1	23_2_1	2	0	1	0	0.881381988525	-377.0	42.0	-369.0	48.0	1
3.0.1	2019_Mar_03_1022	s	s	2	3	Capacity	92	2_1	2	1	3	1	23_3_1	1	0	1	0	0.622678995132	385.0	64.0	384.0	63.0	1
3.0.1	2019_Mar_03_1022	s	s	2	3	Capacity	93	1_1	1	1	4	1	23_4_1	3	0	1	0	0.363925933838	375.0	-16.0	379.0	-7.0	1
3.0.1	2019_Mar_03_1022	s	s	2	3	Capacity	94	1_1	1	1	3	1	23_3_1	2	0	1	0	0.437380075455	152.0	378.0	151.0	384.0	1
3.0.1	2019_Mar_03_1022	s	s	2	3	Capacity	95	ABS	0	0	1	1	24_1_1	NA	NA	0	1	1.67267608643	None	None	None	None	1
3.0.1	2019_Mar_03_1022	s	s	2	3	Capacity	96	ABS	0	0	4	1	24_4_1	NA	NA	0	1	0.904960870743	None	None	None	None	1
3.0.1	2019_Mar_03_1022	s	s	2	3	SIC	1	1_2	1	2	2	2	23_2_2	1	0	1	0	1.25455307961	-405.0	213.0	-398.0	213.0	1
3.0.1	2019_Mar_03_1022	s	s	2	3	SIC	2	4_2	4	2	1	2	23_1_2	3	0	1	0	0.434442043304	-156.0	-317.0	-155.0	-323.0	1
3.0.1	2019_Mar_03_1022	s	s	2	3	SIC	3	3_2	3	2	1	1	23_1_1	2	-1	1	0	0.427114009857	-539.0	-220.0	-543.0	-214.0	1
3.0.1	2019_Mar_03_1022	s	s	2	3	SIC	4	2_1	2	1	3	3	23_3_3	1	2	1	0	0.73145198822	407.0	-28.0	408.0	-34.0	1
3.0.1	2019_Mar_03_1022	s	s	2	3	SIC	5	4_3	4	3	3	2	23_3_2	1	1	1	0	0.378569126129	148.0	98.0	149.0	103.0	1
3.0.1	2019_Mar_03_1022	s	s	2	3	SIC	6	ABS	0	0	1	4	24_1_4	NA	NA	0	1	1.41475892067	None	None	None	None	1
3.0.1	2019_Mar_03_1022	s	s	2	3	SIC	7	2_3	2	3	1	4	23_1_4	-1	-1	1	0	0.497169017792	-192.0	-54.0	-192.0	-58.0	1
3.0.1	2019_Mar_03_1022	s	s	2	3	SIC	8	4_1	4	1	4	4	23_4_4	0	3	1	0	0.387403011322	106.0	27.0	109.0	27.0	1
3.0.1	2019_Mar_03_1022	s	s	2	3	SIC	9	3_3	3	3	3	2	23_3_2	0	1	0	1	3.18654990196	-382.0	62.0	None	None	0
3.0.1	2019_Mar_03_1022	s	s	2	3	SIC	10	ABS	0	0	3	4	24_3_4	NA	NA	0	1	1.20183086395	None	None	None	None	1
3.0.1	2019_Mar_03_1022	s	s	2	3	SIC	11	ABS	0	0	2	3	24_2_3	NA	NA	0	1	2.90433907509	None	None	None	None	1
3.0.1	2019_Mar_03_1022	s	s	2	3	SIC	12	ABS	0	0	3	4	24_3_4	NA	NA	0	1	1.19200801849	None	None	None	None	1
3.0.1	2019_Mar_03_1022	s	s	2	3	SIC	13	3_3	3	3	4	1	23_4_1	-1	2	1	0	0.662812948227	483.0	-283.0	480.0	-289.0	1
3.0.1	2019_Mar_03_1022	s	s	2	3	SIC	14	ABS	0	0	1	2	24_1_2	NA	NA	0	1	3.19840717316	None	None	None	None	1
3.0.1	2019_Mar_03_1022	s	s	2	3	SIC	15	3_1	3	1	1	1	23_1_1	2	0	1	0	0.457943916321	31.0	350.0	32.0	346.0	1
3.0.1	2019_Mar_03_1022	s	s	2	3	SIC	16	1_1	1	1	1	2	23_1_2	0	1	1	0	1.14306306839	-525.0	-226.0	-527.0	-232.0	1
3.0.1	2019_Mar_03_1022	s	s	2	3	SIC	17	ABS	0	0	4	1	24_4_1	NA	NA	0	1	2.21330690384	None	None	None	None	1
3.0.1	2019_Mar_03_1022	s	s	2	3	SIC	18	ABS	0	0	2	3	24_2_3	NA	NA	0	1	3.39425992966	None	None	None	None	1
3.0.1	2019_Mar_03_1022	s	s	2	3	SIC	19	ABS	0	0	1	4	24_1_4	NA	NA	0	1	2.2069580555	None	None	None	None	1
3.0.1	2019_Mar_03_1022	s	s	2	3	SIC	20	ABS	0	0	3	2	24_3_2	NA	NA	0	1	2.71615290642	None	None	None	None	1
3.0.1	2019_Mar_03_1022	s	s	2	3	SIC	21	3_1	3	1	3	4	23_3_4	0	3	1	0	0.614778995514	266.0	-145.0	272.0	-147.0	1
3.0.1	2019_Mar_03_1022	s	s	2	3	SIC	22	ABS	0	0	1	1	24_1_1	NA	NA	0	1	2.80280399323	None	None	None	None	1
3.0.1	2019_Mar_03_1022	s	s	2	3	SIC	23	ABS	0	0	1	3	24_1_3	NA	NA	0	1	3.84523391724	None	None	None	None	1
3.0.1	2019_Mar_03_1022	s	s	2	3	SIC	24	ABS	0	0	4	3	24_4_3	NA	NA	0	1	2.11641287804	None	None	None	None	1
3.0.1	2019_Mar_03_1022	s	s	2	3	SIC	25	2_1	2	1	4	4	23_4_4	2	3	1	0	0.469735145569	-323.0	111.0	-321.0	110.0	1
3.0.1	2019_Mar_03_1022	s	s	2	3	SIC	26	4_1	4	1	1	3	23_1_3	3	2	1	0	0.399212837219	119.0	-159.0	125.0	-160.0	1
3.0.1	2019_Mar_03_1022	s	s	2	3	SIC	27	ABS	0	0	2	1	24_2_1	NA	NA	0	1	1.2343070507	None	None	None	None	1
3.0.1	2019_Mar_03_1022	s	s	2	3	SIC	28	2_4	2	4	3	2	23_3_2	1	2	1	0	0.516733884811	-183.0	-262.0	-185.0	-273.0	1
3.0.1	2019_Mar_03_1022	s	s	2	3	SIC	29	ABS	0	0	1	1	24_1_1	NA	NA	0	1	2.61716413498	None	None	None	None	1
3.0.1	2019_Mar_03_1022	s	s	2	3	SIC	30	4_4	4	4	3	2	23_3_2	1	2	1	0	0.496185064316	-454.0	184.0	-456.0	192.0	1
3.0.1	2019_Mar_03_1022	s	s	2	3	SIC	31	4_2	4	2	2	4	23_2_4	2	2	1	0	0.369467020035	71.0	166.0	76.0	164.0	1
3.0.1	2019_Mar_03_1022	s	s	2	3	SIC	32	1_1	1	1	3	1	23_3_1	2	0	1	0	0.481474161148	245.0	376.0	250.0	377.0	1
3.0.1	2019_Mar_03_1022	s	s	2	3	SIC	33	ABS	0	0	2	3	24_2_3	NA	NA	0	1	3.15816807747	None	None	None	None	1
3.0.1	2019_Mar_03_1022	s	s	2	3	SIC	34	ABS	0	0	4	2	24_4_2	NA	NA	0	1	1.19220709801	None	None	None	None	1
3.0.1	2019_Mar_03_1022	s	s	2	3	SIC	35	1_1	1	1	2	1	23_2_1	1	0	1	0	1.44925808907	163.0	-149.0	164.0	-148.0	1
3.0.1	2019_Mar_03_1022	s	s	2	3	SIC	36	ABS	0	0	1	1	24_1_1	NA	NA	0	1	3.51447701454	None	None	None	None	1
3.0.1	2019_Mar_03_1022	s	s	2	3	SIC	37	ABS	0	0	3	4	24_3_4	NA	NA	0	1	2.01053094864	None	None	None	None	1
3.0.1	2019_Mar_03_1022	s	s	2	3	SIC	38	4_4	4	4	3	4	23_3_4	1	0	1	0	0.481551885605	435.0	233.0	428.0	238.0	1
3.0.1	2019_Mar_03_1022	s	s	2	3	SIC	39	1_4	1	4	3	1	23_3_1	2	3	1	0	0.510572910309	290.0	406.0	291.0	413.0	1
3.0.1	2019_Mar_03_1022	s	s	2	3	SIC	40	ABS	0	0	3	3	24_3_3	NA	NA	0	1	3.03374481201	None	None	None	None	1
3.0.1	2019_Mar_03_1022	s	s	2	3	SIC	41	ABS	0	0	1	2	24_1_2	NA	NA	1	0	0.587324857712	None	None	267.0	329.0	0
3.0.1	2019_Mar_03_1022	s	s	2	3	SIC	42	ABS	0	0	2	1	24_2_1	NA	NA	0	1	4.40313005447	None	None	None	None	1
3.0.1	2019_Mar_03_1022	s	s	2	3	SIC	43	1_1	1	1	4	1	23_4_1	3	0	1	0	0.456586122513	310.0	384.0	301.0	387.0	1
3.0.1	2019_Mar_03_1022	s	s	2	3	SIC	44	ABS	0	0	1	3	24_1_3	NA	NA	0	1	2.93960809708	None	None	None	None	1
3.0.1	2019_Mar_03_1022	s	s	2	3	SIC	45	ABS	0	0	1	3	24_1_3	NA	NA	0	1	2.92796492577	None	None	None	None	1
3.0.1	2019_Mar_03_1022	s	s	2	3	SIC	46	1_3	1	3	4	1	23_4_1	3	2	1	0	0.481557846069	334.0	300.0	336.0	304.0	1
3.0.1	2019_Mar_03_1022	s	s	2	3	SIC	47	2_3	2	3	2	2	23_2_2	0	1	1	0	2.10322713852	468.0	242.0	461.0	242.0	1
3.0.1	2019_Mar_03_1022	s	s	2	3	SIC	48	ABS	0	0	2	4	24_2_4	NA	NA	0	1	1.97517800331	None	None	None	None	1
3.0.1	2019_Mar_03_1022	s	s	2	3	SIC	49	3_2	3	2	4	2	23_4_2	-1	0	1	0	0.452568054199	-288.0	68.0	-279.0	65.0	1
3.0.1	2019_Mar_03_1022	s	s	2	3	SIC	50	4_4	4	4	3	1	23_3_1	1	3	1	0	0.404578924179	-357.0	-110.0	-363.0	-108.0	1
3.0.1	2019_Mar_03_1022	s	s	2	3	SIC	51	ABS	0	0	4	2	24_4_2	NA	NA	0	1	3.49239015579	None	None	None	None	1
3.0.1	2019_Mar_03_1022	s	s	2	3	SIC	52	ABS	0	0	2	3	24_2_3	NA	NA	0	1	2.96319293976	None	None	None	None	1
3.0.1	2019_Mar_03_1022	s	s	2	3	SIC	53	1_3	1	3	2	1	23_2_1	1	2	1	0	1.22240805626	98.0	-385.0	102.0	-388.0	1
3.0.1	2019_Mar_03_1022	s	s	2	3	SIC	54	ABS	0	0	3	4	24_3_4	NA	NA	0	1	1.26072311401	None	None	None	None	1
3.0.1	2019_Mar_03_1022	s	s	2	3	SIC	55	ABS	0	0	4	3	24_4_3	NA	NA	0	1	3.54350495338	None	None	None	None	1
3.0.1	2019_Mar_03_1022	s	s	2	3	SIC	56	3_4	3	4	4	1	23_4_1	-1	3	1	0	0.496115922928	-62.0	52.0	-60.0	51.0	1
3.0.1	2019_Mar_03_1022	s	s	2	3	SIC	57	ABS	0	0	2	4	24_2_4	NA	NA	0	1	1.81053495407	None	None	None	None	1
3.0.1	2019_Mar_03_1022	s	s	2	3	SIC	58	ABS	0	0	2	2	24_2_2	NA	NA	0	1	4.39179205894	None	None	None	None	1
3.0.1	2019_Mar_03_1022	s	s	2	3	SIC	59	4_1	4	1	1	1	23_1_1	3	0	1	0	0.457985162735	395.0	397.0	399.0	397.0	1
3.0.1	2019_Mar_03_1022	s	s	2	3	SIC	60	2_3	2	3	2	1	23_2_1	0	2	1	0	0.767829179764	-411.0	-51.0	-409.0	-52.0	1
3.0.1	2019_Mar_03_1022	s	s	2	3	SIC	61	2_4	2	4	4	2	23_4_2	2	2	1	0	0.410964012146	539.0	324.0	543.0	320.0	1
3.0.1	2019_Mar_03_1022	s	s	2	3	SIC	62	3_2	3	2	3	3	23_3_3	0	1	1	0	4.10961484909	-186.0	246.0	-184.0	244.0	1
3.0.1	2019_Mar_03_1022	s	s	2	3	SIC	63	ABS	0	0	1	4	24_1_4	NA	NA	0	1	1.61059904099	None	None	None	None	1
3.0.1	2019_Mar_03_1022	s	s	2	3	SIC	64	ABS	0	0	4	2	24_4_2	NA	NA	0	1	4.60320997238	None	None	None	None	1
3.0.1	2019_Mar_03_1022	s	s	2	3	SIC	65	4_4	4	4	1	4	23_1_4	3	0	1	0	0.481556892395	-340.0	-106.0	-343.0	-105.0	1
3.0.1	2019_Mar_03_1022	s	s	2	3	SIC	66	1_3	1	3	1	4	23_1_4	0	-1	1	0	1.18136191368	297.0	-394.0	300.0	-391.0	1
3.0.1	2019_Mar_03_1022	s	s	2	3	SIC	67	ABS	0	0	3	2	24_3_2	NA	NA	0	1	4.10679984093	None	None	None	None	1
3.0.1	2019_Mar_03_1022	s	s	2	3	SIC	68	4_1	4	1	4	2	23_4_2	0	1	1	0	3.12008213997	402.0	242.0	401.0	242.0	1
3.0.1	2019_Mar_03_1022	s	s	2	3	SIC	69	2_1	2	1	3	4	23_3_4	1	3	1	0	0.510760068893	-21.0	-325.0	-15.0	-329.0	1
3.0.1	2019_Mar_03_1022	s	s	2	3	SIC	70	3_2	3	2	3	4	23_3_4	0	2	1	0	0.780884027481	-238.0	-411.0	-232.0	-402.0	1
3.0.1	2019_Mar_03_1022	s	s	2	3	SIC	71	ABS	0	0	3	1	24_3_1	NA	NA	0	1	3.98141098022	None	None	None	None	1
3.0.1	2019_Mar_03_1022	s	s	2	3	SIC	72	4_4	4	4	1	1	23_1_1	3	3	1	0	0.486544132233	-533.0	358.0	-530.0	354.0	1
3.0.1	2019_Mar_03_1022	s	s	2	3	SIC	73	4_4	4	4	1	3	23_1_3	3	1	1	0	0.383344888687	27.0	320.0	30.0	326.0	1
3.0.1	2019_Mar_03_1022	s	s	2	3	SIC	74	ABS	0	0	4	3	24_4_3	NA	NA	0	1	3.76284408569	None	None	None	None	1
3.0.1	2019_Mar_03_1022	s	s	2	3	SIC	75	ABS	0	0	3	2	24_3_2	NA	NA	0	1	4.06906700134	None	None	None	None	1
3.0.1	2019_Mar_03_1022	s	s	2	3	SIC	76	3_1	3	1	2	3	23_2_3	1	2	1	0	0.634392976761	-538.0	-163.0	-538.0	-162.0	1
3.0.1	2019_Mar_03_1022	s	s	2	3	SIC	77	2_2	2	2	2	3	23_2_3	0	1	1	0	0.907803058624	-327.0	-52.0	-327.0	-54.0	1
3.0.1	2019_Mar_03_1022	s	s	2	3	SIC	78	ABS	0	0	2	3	24_2_3	NA	NA	0	1	4.89238905907	None	None	None	None	1
3.0.1	2019_Mar_03_1022	s	s	2	3	SIC	79	4_3	4	3	3	3	23_3_3	1	0	1	0	0.437477111816	-461.0	-358.0	-467.0	-367.0	1
3.0.1	2019_Mar_03_1022	s	s	2	3	SIC	80	4_3	4	3	2	4	23_2_4	2	-1	1	0	0.357886075974	385.0	318.0	392.0	317.0	1
3.0.1	2019_Mar_03_1022	s	s	2	3	SIC	81	ABS	0	0	4	1	24_4_1	NA	NA	0	1	2.58186507225	None	None	None	None	1
3.0.1	2019_Mar_03_1022	s	s	2	3	SIC	82	4_3	4	3	1	3	23_1_3	3	0	1	0	0.45013999939	28.0	-132.0	29.0	-133.0	1
3.0.1	2019_Mar_03_1022	s	s	2	3	SIC	83	ABS	0	0	2	3	24_2_3	NA	NA	0	1	3.03824305534	None	None	None	None	1
3.0.1	2019_Mar_03_1022	s	s	2	3	SIC	84	ABS	0	0	3	1	24_3_1	NA	NA	0	1	2.46904182434	None	None	None	None	1
3.0.1	2019_Mar_03_1022	s	s	2	3	SIC	85	3_3	3	3	2	1	23_2_1	1	2	1	0	0.728451967239	-382.0	-403.0	-383.0	-399.0	1
3.0.1	2019_Mar_03_1022	s	s	2	3	SIC	86	ABS	0	0	4	4	24_4_4	NA	NA	0	1	2.15661621094	None	None	None	None	1
3.0.1	2019_Mar_03_1022	s	s	2	3	SIC	87	2_3	2	3	4	1	23_4_1	2	2	1	0	0.532677173615	-396.0	38.0	-398.0	40.0	1
3.0.1	2019_Mar_03_1022	s	s	2	3	SIC	88	ABS	0	0	2	1	24_2_1	NA	NA	0	1	2.21450185776	None	None	None	None	1
3.0.1	2019_Mar_03_1022	s	s	2	3	SIC	89	ABS	0	0	3	2	24_3_2	NA	NA	0	1	3.14798498154	None	None	None	None	1
3.0.1	2019_Mar_03_1022	s	s	2	3	SIC	90	2_3	2	3	4	2	23_4_2	2	1	1	0	0.42275094986	-218.0	-138.0	-226.0	-139.0	1
3.0.1	2019_Mar_03_1022	s	s	2	3	SIC	91	3_2	3	2	2	2	23_2_2	1	0	1	0	0.686985015869	-25.0	303.0	-13.0	304.0	1
3.0.1	2019_Mar_03_1022	s	s	2	3	SIC	92	1_2	1	2	4	2	23_4_2	3	0	1	0	0.42814707756	13.0	-199.0	13.0	-207.0	1
3.0.1	2019_Mar_03_1022	s	s	2	3	SIC	93	ABS	0	0	2	1	24_2_1	NA	NA	0	1	2.80505108833	None	None	None	None	1
3.0.1	2019_Mar_03_1022	s	s	2	3	SIC	94	2_2	2	2	1	2	23_1_2	-1	0	1	0	2.49286103249	-539.0	244.0	-538.0	240.0	1
3.0.1	2019_Mar_03_1022	s	s	2	3	SIC	95	2_2	2	2	2	4	23_2_4	0	2	1	0	0.740242004395	-52.0	-149.0	-52.0	-148.0	1
3.0.1	2019_Mar_03_1022	s	s	2	3	SIC	96	ABS	0	0	1	2	24_1_2	NA	NA	0	1	3.27540588379	None	None	None	None	1
3.0.1	2019_Mar_03_1022	s	s	2	3	SIC	97	ABS	0	0	1	4	24_1_4	NA	NA	0	1	1.55475687981	None	None	None	None	1
3.0.1	2019_Mar_03_1022	s	s	2	3	SIC	98	4_2	4	2	2	3	23_2_3	2	1	1	0	0.415905952454	73.0	-107.0	74.0	-101.0	1
3.0.1	2019_Mar_03_1022	s	s	2	3	SIC	99	ABS	0	0	3	1	24_3_1	NA	NA	0	1	2.27625584602	None	None	None	None	1
3.0.1	2019_Mar_03_1022	s	s	2	3	SIC	100	3_3	3	3	1	1	23_1_1	2	2	1	0	0.434499025345	-99.0	88.0	-100.0	93.0	1
3.0.1	2019_Mar_03_1022	s	s	2	3	SIC	101	4_1	4	1	2	3	23_2_3	2	2	1	0	0.358901977539	437.0	318.0	438.0	325.0	1
3.0.1	2019_Mar_03_1022	s	s	2	3	SIC	102	3_4	3	4	4	4	23_4_4	-1	0	1	0	0.49613904953	-96.0	-126.0	-94.0	-127.0	1
3.0.1	2019_Mar_03_1022	s	s	2	3	SIC	103	ABS	0	0	4	4	24_4_4	NA	NA	0	1	1.46940398216	None	None	None	None	1
3.0.1	2019_Mar_03_1022	s	s	2	3	SIC	104	3_4	3	4	3	1	23_3_1	0	3	1	0	0.916707038879	276.0	99.0	281.0	98.0	1
3.0.1	2019_Mar_03_1022	s	s	2	3	SIC	105	3_2	3	2	2	4	23_2_4	1	2	1	0	0.422768115997	272.0	-287.0	267.0	-287.0	1
3.0.1	2019_Mar_03_1022	s	s	2	3	SIC	106	ABS	0	0	4	3	24_4_3	NA	NA	0	1	4.08570814133	None	None	None	None	1
3.0.1	2019_Mar_03_1022	s	s	2	3	SIC	107	ABS	0	0	4	3	24_4_3	NA	NA	0	1	3.43865990639	None	None	None	None	1
3.0.1	2019_Mar_03_1022	s	s	2	3	SIC	108	ABS	0	0	1	3	24_1_3	NA	NA	0	1	3.19555211067	None	None	None	None	1
3.0.1	2019_Mar_03_1022	s	s	2	3	SIC	109	ABS	0	0	3	3	24_3_3	NA	NA	0	1	2.77496790886	None	None	None	None	1
3.0.1	2019_Mar_03_1022	s	s	2	3	SIC	110	4_4	4	4	2	3	23_2_3	2	1	1	0	0.45795416832	80.0	-267.0	82.0	-269.0	1
3.0.1	2019_Mar_03_1022	s	s	2	3	SIC	111	1_2	1	2	3	4	23_3_4	2	2	1	0	0.501383066177	-430.0	187.0	-430.0	192.0	1
3.0.1	2019_Mar_03_1022	s	s	2	3	SIC	112	2_2	2	2	1	1	23_1_1	-1	-1	1	0	1.43428111076	-314.0	231.0	-319.0	234.0	1
3.0.1	2019_Mar_03_1022	s	s	2	3	SIC	113	3_4	3	4	1	3	23_1_3	2	1	1	0	0.744797945023	-311.0	-298.0	-306.0	-302.0	1
3.0.1	2019_Mar_03_1022	s	s	2	3	SIC	114	ABS	0	0	1	1	24_1_1	NA	NA	0	1	3.48744392395	None	None	None	None	1
3.0.1	2019_Mar_03_1022	s	s	2	3	SIC	115	1_2	1	2	3	1	23_3_1	2	-1	1	0	1.02256083488	415.0	-269.0	419.0	-272.0	1
3.0.1	2019_Mar_03_1022	s	s	2	3	SIC	116	2_1	2	1	2	4	23_2_4	0	3	1	0	0.587368011475	-194.0	142.0	-203.0	151.0	1
3.0.1	2019_Mar_03_1022	s	s	2	3	SIC	117	4_1	4	1	3	3	23_3_3	1	2	1	0	0.410940170288	114.0	-128.0	124.0	-128.0	1
3.0.1	2019_Mar_03_1022	s	s	2	3	SIC	118	ABS	0	0	1	3	24_1_3	NA	NA	0	1	4.73774600029	None	None	None	None	1
3.0.1	2019_Mar_03_1022	s	s	2	3	SIC	119	ABS	0	0	2	1	24_2_1	NA	NA	0	1	3.12034201622	None	None	None	None	1
3.0.1	2019_Mar_03_1022	s	s	2	3	SIC	120	1_4	1	4	1	2	23_1_2	0	2	1	0	0.599193096161	466.0	71.0	464.0	73.0	1
3.0.1	2019_Mar_03_1022	s	s	2	3	SIC	121	ABS	0	0	1	1	24_1_1	NA	NA	0	1	2.11653804779	None	None	None	None	1
3.0.1	2019_Mar_03_1022	s	s	2	3	SIC	122	2_4	2	4	1	4	23_1_4	-1	0	0	1	1.57535910606	-118.0	-14.0	None	None	0
3.0.1	2019_Mar_03_1022	s	s	2	3	SIC	123	ABS	0	0	4	3	24_4_3	NA	NA	0	1	2.50125002861	None	None	None	None	1
3.0.1	2019_Mar_03_1022	s	s	2	3	SIC	124	1_4	1	4	1	1	23_1_1	0	3	1	0	0.841591119766	366.0	396.0	363.0	396.0	1
3.0.1	2019_Mar_03_1022	s	s	2	3	SIC	125	2_1	2	1	4	2	23_4_2	2	1	1	0	0.378502845764	477.0	-220.0	472.0	-223.0	1
3.0.1	2019_Mar_03_1022	s	s	2	3	SIC	126	ABS	0	0	4	2	24_4_2	NA	NA	0	1	2.86908102036	None	None	None	None	1
3.0.1	2019_Mar_03_1022	s	s	2	3	SIC	127	3_1	3	1	2	1	23_2_1	1	0	1	0	0.839558124542	435.0	-112.0	436.0	-114.0	1
3.0.1	2019_Mar_03_1022	s	s	2	3	SIC	128	3_4	3	4	3	3	23_3_3	0	1	1	0	1.06962299347	-401.0	-229.0	-402.0	-236.0	1
3.0.1	2019_Mar_03_1022	s	s	2	3	SIC	129	4_2	4	2	2	2	23_2_2	2	0	1	0	0.392544984818	459.0	-6.0	457.0	-3.0	1
3.0.1	2019_Mar_03_1022	s	s	2	3	SIC	130	3_2	3	2	2	1	23_2_1	1	-1	1	0	0.501854896545	-6.0	212.0	1.0	212.0	1
3.0.1	2019_Mar_03_1022	s	s	2	3	SIC	131	ABS	0	0	1	1	24_1_1	NA	NA	0	1	2.8690340519	None	None	None	None	1
3.0.1	2019_Mar_03_1022	s	s	2	3	SIC	132	ABS	0	0	1	1	24_1_1	NA	NA	0	1	1.50474214554	None	None	None	None	1
3.0.1	2019_Mar_03_1022	s	s	2	3	SIC	133	2_1	2	1	4	3	23_4_3	2	2	1	0	0.437362194061	29.0	-208.0	30.0	-208.0	1
3.0.1	2019_Mar_03_1022	s	s	2	3	SIC	134	2_2	2	2	3	2	23_3_2	1	0	1	0	0.620069026947	-394.0	-353.0	-392.0	-345.0	1
3.0.1	2019_Mar_03_1022	s	s	2	3	SIC	135	ABS	0	0	2	1	24_2_1	NA	NA	0	1	2.99839305878	None	None	None	None	1
3.0.1	2019_Mar_03_1022	s	s	2	3	SIC	136	1_1	1	1	3	3	23_3_3	2	2	1	0	0.457990884781	189.0	373.0	192.0	372.0	1
3.0.1	2019_Mar_03_1022	s	s	2	3	SIC	137	3_3	3	3	1	4	23_1_4	2	-1	1	0	0.810881137848	263.0	236.0	265.0	236.0	1
3.0.1	2019_Mar_03_1022	s	s	2	3	SIC	138	1_4	1	4	3	4	23_3_4	2	0	1	0	0.618891954422	514.0	60.0	507.0	58.0	1
3.0.1	2019_Mar_03_1022	s	s	2	3	SIC	139	4_4	4	4	1	2	23_1_2	3	2	1	0	0.427937030792	-155.0	-337.0	-157.0	-339.0	1
3.0.1	2019_Mar_03_1022	s	s	2	3	SIC	140	ABS	0	0	4	1	24_4_1	NA	NA	0	1	1.19419002533	None	None	None	None	1
3.0.1	2019_Mar_03_1022	s	s	2	3	SIC	141	ABS	0	0	4	1	24_4_1	NA	NA	0	1	2.64565014839	None	None	None	None	1
3.0.1	2019_Mar_03_1022	s	s	2	3	SIC	142	1_1	1	1	3	4	23_3_4	2	3	1	0	0.410928964615	421.0	81.0	419.0	80.0	1
3.0.1	2019_Mar_03_1022	s	s	2	3	SIC	143	ABS	0	0	2	4	24_2_4	NA	NA	0	1	2.8337469101	None	None	None	None	1
3.0.1	2019_Mar_03_1022	s	s	2	3	SIC	144	ABS	0	0	4	1	24_4_1	NA	NA	0	1	2.81026101112	None	None	None	None	1
3.0.1	2019_Mar_03_1022	s	s	2	3	SIC	145	ABS	0	0	2	2	24_2_2	NA	NA	0	1	6.58978796005	None	None	None	None	1
3.0.1	2019_Mar_03_1022	s	s	2	3	SIC	146	ABS	0	0	4	1	24_4_1	NA	NA	0	1	1.93990492821	None	None	None	None	1
3.0.1	2019_Mar_03_1022	s	s	2	3	SIC	147	3_2	3	2	4	1	23_4_1	-1	-1	1	0	0.443289041519	-228.0	-71.0	-235.0	-72.0	1
3.0.1	2019_Mar_03_1022	s	s	2	3	SIC	148	3_4	3	4	4	2	23_4_2	-1	2	1	0	0.399178028107	-314.0	-247.0	-317.0	-247.0	1
3.0.1	2019_Mar_03_1022	s	s	2	3	SIC	149	ABS	0	0	4	2	24_4_2	NA	NA	0	1	4.35506081581	None	None	None	None	1
3.0.1	2019_Mar_03_1022	s	s	2	3	SIC	150	3_1	3	1	4	1	23_4_1	-1	0	1	0	0.402081012726	-59.0	37.0	-54.0	33.0	1
3.0.1	2019_Mar_03_1022	s	s	2	3	SIC	151	ABS	0	0	3	4	24_3_4	NA	NA	0	1	2.31913709641	None	None	None	None	1
3.0.1	2019_Mar_03_1022	s	s	2	3	SIC	152	2_3	2	3	4	3	23_4_3	2	0	1	0	0.393353939056	-71.0	325.0	-63.0	328.0	1
3.0.1	2019_Mar_03_1022	s	s	2	3	SIC	153	ABS	0	0	3	3	24_3_3	NA	NA	0	1	3.61386799812	None	None	None	None	1
3.0.1	2019_Mar_03_1022	s	s	2	3	SIC	154	3_3	3	3	3	1	23_3_1	0	2	1	0	1.01080298424	528.0	357.0	538.0	355.0	1
3.0.1	2019_Mar_03_1022	s	s	2	3	SIC	155	1_1	1	1	4	4	23_4_4	3	3	1	0	0.404788970947	-390.0	371.0	-384.0	371.0	1
3.0.1	2019_Mar_03_1022	s	s	2	3	SIC	156	ABS	0	0	4	2	24_4_2	NA	NA	0	1	2.69258594513	None	None	None	None	1
3.0.1	2019_Mar_03_1022	s	s	2	3	SIC	157	1_4	1	4	2	4	23_2_4	1	0	0	1	2.93958687782	23.0	-222.0	None	None	0
3.0.1	2019_Mar_03_1022	s	s	2	3	SIC	158	3_3	3	3	4	4	23_4_4	-1	-1	1	0	0.622620105743	373.0	332.0	378.0	339.0	1
3.0.1	2019_Mar_03_1022	s	s	2	3	SIC	159	4_1	4	1	3	4	23_3_4	1	3	1	0	0.410978078842	-149.0	211.0	-143.0	217.0	1
3.0.1	2019_Mar_03_1022	s	s	2	3	SIC	160	1_4	1	4	1	3	23_1_3	0	1	1	0	1.04887294769	437.0	-83.0	447.0	-85.0	1
3.0.1	2019_Mar_03_1022	s	s	2	3	SIC	161	2_4	2	4	2	3	23_2_3	0	1	1	0	1.33121800423	145.0	-6.0	138.0	2.0	1
3.0.1	2019_Mar_03_1022	s	s	2	3	SIC	162	ABS	0	0	1	2	24_1_2	NA	NA	0	1	4.63315701485	None	None	None	None	1
3.0.1	2019_Mar_03_1022	s	s	2	3	SIC	163	ABS	0	0	4	4	24_4_4	NA	NA	0	1	0.94537115097	None	None	None	None	1
3.0.1	2019_Mar_03_1022	s	s	2	3	SIC	164	4_3	4	3	3	1	23_3_1	1	2	1	0	0.384757995605	-428.0	276.0	-425.0	271.0	1
3.0.1	2019_Mar_03_1022	s	s	2	3	SIC	165	ABS	0	0	1	4	24_1_4	NA	NA	0	1	1.2093629837	None	None	None	None	1
3.0.1	2019_Mar_03_1022	s	s	2	3	SIC	166	ABS	0	0	1	4	24_1_4	NA	NA	0	1	1.23935103416	None	None	None	None	1
3.0.1	2019_Mar_03_1022	s	s	2	3	SIC	167	ABS	0	0	2	2	24_2_2	NA	NA	0	1	4.84784603119	None	None	None	None	1
3.0.1	2019_Mar_03_1022	s	s	2	3	SIC	168	4_3	4	3	2	2	23_2_2	2	1	1	0	0.443917036057	140.0	217.0	142.0	215.0	1
3.0.1	2019_Mar_03_1022	s	s	2	3	SIC	169	ABS	0	0	3	1	24_3_1	NA	NA	0	1	2.45242714882	None	None	None	None	1
3.0.1	2019_Mar_03_1022	s	s	2	3	SIC	170	4_4	4	4	4	3	23_4_3	0	1	1	0	1.45507407188	-177.0	-77.0	-173.0	-81.0	1
3.0.1	2019_Mar_03_1022	s	s	2	3	SIC	171	ABS	0	0	3	2	24_3_2	NA	NA	0	1	4.83318591118	None	None	None	None	1
3.0.1	2019_Mar_03_1022	s	s	2	3	SIC	172	1_4	1	4	4	2	23_4_2	3	2	1	0	0.422759056091	-351.0	-75.0	-348.0	-71.0	1
3.0.1	2019_Mar_03_1022	s	s	2	3	SIC	173	ABS	0	0	4	4	24_4_4	NA	NA	0	1	1.67622995377	None	None	None	None	1
3.0.1	2019_Mar_03_1022	s	s	2	3	SIC	174	2_4	2	4	4	3	23_4_3	2	1	1	0	0.415642023087	8.0	31.0	0.0	25.0	1
3.0.1	2019_Mar_03_1022	s	s	2	3	SIC	175	4_3	4	3	2	3	23_2_3	2	0	1	0	0.437655925751	-506.0	15.0	-497.0	24.0	1
3.0.1	2019_Mar_03_1022	s	s	2	3	SIC	176	ABS	0	0	1	3	24_1_3	NA	NA	0	1	3.41528201103	None	None	None	None	1
3.0.1	2019_Mar_03_1022	s	s	2	3	SIC	177	ABS	0	0	3	2	24_3_2	NA	NA	0	1	3.91263604164	None	None	None	None	1
3.0.1	2019_Mar_03_1022	s	s	2	3	SIC	178	4_2	4	2	1	1	23_1_1	3	-1	1	0	0.399163961411	361.0	-199.0	365.0	-194.0	1
3.0.1	2019_Mar_03_1022	s	s	2	3	SIC	179	1_3	1	3	3	3	23_3_3	2	0	1	0	0.469749927521	-398.0	-92.0	-393.0	-88.0	1
3.0.1	2019_Mar_03_1022	s	s	2	3	SIC	180	ABS	0	0	3	2	24_3_2	NA	NA	0	1	3.02862620354	None	None	None	None	1
3.0.1	2019_Mar_03_1022	s	s	2	3	SIC	181	1_4	1	4	4	4	23_4_4	3	0	1	0	0.505010128021	-226.0	3.0	-218.0	2.0	1
3.0.1	2019_Mar_03_1022	s	s	2	3	SIC	182	2_1	2	1	3	2	23_3_2	1	1	1	0	0.562480926514	9.0	-360.0	2.0	-363.0	1
3.0.1	2019_Mar_03_1022	s	s	2	3	SIC	183	3_1	3	1	4	3	23_4_3	-1	2	1	0	0.533607006073	380.0	-332.0	387.0	-339.0	1
3.0.1	2019_Mar_03_1022	s	s	2	3	SIC	184	2_1	2	1	3	1	23_3_1	1	0	1	0	0.474516868591	131.0	-60.0	125.0	-69.0	1
3.0.1	2019_Mar_03_1022	s	s	2	3	SIC	185	4_3	4	3	2	1	23_2_1	2	2	1	0	0.399206876755	-48.0	-124.0	-44.0	-123.0	1
3.0.1	2019_Mar_03_1022	s	s	2	3	SIC	186	ABS	0	0	2	2	24_2_2	NA	NA	0	1	4.53397297859	None	None	None	None	1
3.0.1	2019_Mar_03_1022	s	s	2	3	SIC	187	ABS	0	0	4	1	24_4_1	NA	NA	0	1	1.69328808784	None	None	None	None	1
3.0.1	2019_Mar_03_1022	s	s	2	3	SIC	188	ABS	0	0	2	1	24_2_1	NA	NA	0	1	2.46427297592	None	None	None	None	1
3.0.1	2019_Mar_03_1022	s	s	2	3	SIC	189	ABS	0	0	1	3	24_1_3	NA	NA	0	1	3.30428385735	None	None	None	None	1
3.0.1	2019_Mar_03_1022	s	s	2	3	SIC	190	ABS	0	0	2	4	24_2_4	NA	NA	0	1	1.86930990219	None	None	None	None	1
3.0.1	2019_Mar_03_1022	s	s	2	3	SIC	191	ABS	0	0	3	3	24_3_3	NA	NA	0	1	3.89225387573	None	None	None	None	1
3.0.1	2019_Mar_03_1022	s	s	2	3	SIC	192	3_3	3	3	4	2	23_4_2	-1	1	1	0	0.46306180954	-321.0	176.0	-324.0	180.0	1
3.0.1	2019_Mar_03_1022	s	s	2	3	SIC	193	1_2	1	2	4	1	23_4_1	3	-1	1	0	0.399640083313	-95.0	-297.0	-90.0	-297.0	1
3.0.1	2019_Mar_03_1022	s	s	2	3	SIC	194	1_1	1	1	1	4	23_1_4	0	3	1	0	0.604581832886	198.0	-43.0	204.0	-46.0	1
3.0.1	2019_Mar_03_1022	s	s	2	3	SIC	195	3_1	3	1	1	2	23_1_2	2	1	1	0	0.639755010605	-93.0	-336.0	-91.0	-335.0	1
3.0.1	2019_Mar_03_1022	s	s	2	3	SIC	196	ABS	0	0	2	4	24_2_4	NA	NA	0	1	1.74828600883	None	None	None	None	1
3.0.1	2019_Mar_03_1022	s	s	2	3	SIC	197	2_4	2	4	1	1	23_1_1	-1	3	1	0	0.559283018112	142.0	51.0	144.0	48.0	1
3.0.1	2019_Mar_03_1022	s	s	2	3	SIC	198	ABS	0	0	4	2	24_4_2	NA	NA	0	1	3.16303777695	None	None	None	None	1
3.0.1	2019_Mar_03_1022	s	s	2	3	SIC	199	1_3	1	3	2	2	23_2_2	1	1	1	0	2.69900298119	140.0	386.0	139.0	387.0	1
3.0.1	2019_Mar_03_1022	s	s	2	3	SIC	200	ABS	0	0	3	4	24_3_4	NA	NA	0	1	1.98071098328	None	None	None	None	1
3.0.1	2019_Mar_03_1022	s	s	2	3	SIC	201	4_3	4	3	4	2	23_4_2	0	1	1	0	1.23916697502	176.0	-13.0	178.0	-13.0	1
3.0.1	2019_Mar_03_1022	s	s	2	3	SIC	202	ABS	0	0	4	4	24_4_4	NA	NA	0	1	1.42253088951	None	None	None	None	1
3.0.1	2019_Mar_03_1022	s	s	2	3	SIC	203	3_1	3	1	1	3	23_1_3	2	2	1	0	0.451760053635	-158.0	8.0	-160.0	6.0	1
3.0.1	2019_Mar_03_1022	s	s	2	3	SIC	204	4_4	4	4	4	2	23_4_2	0	2	1	0	0.921700954437	-190.0	-307.0	-193.0	-307.0	1
3.0.1	2019_Mar_03_1022	s	s	2	3	SIC	205	2_2	2	2	3	4	23_3_4	1	2	1	0	0.486001014709	106.0	-258.0	97.0	-260.0	1
3.0.1	2019_Mar_03_1022	s	s	2	3	SIC	206	4_2	4	2	4	4	23_4_4	0	2	1	0	0.579929113388	-433.0	-89.0	-436.0	-92.0	1
3.0.1	2019_Mar_03_1022	s	s	2	3	SIC	207	2_4	2	4	2	1	23_2_1	0	3	1	0	0.849014997482	-267.0	124.0	-273.0	122.0	1
3.0.1	2019_Mar_03_1022	s	s	2	3	SIC	208	3_2	3	2	3	1	23_3_1	0	-1	0	1	2.30732989311	-467.0	-377.0	None	None	0
3.0.1	2019_Mar_03_1022	s	s	2	3	SIC	209	3_3	3	3	2	4	23_2_4	1	-1	1	0	0.850964069366	533.0	6.0	524.0	7.0	1
3.0.1	2019_Mar_03_1022	s	s	2	3	SIC	210	4_1	4	1	4	3	23_4_3	0	2	1	0	0.850957155228	311.0	-114.0	-406.0	385.0	0
3.0.1	2019_Mar_03_1022	s	s	2	3	SIC	211	4_1	4	1	2	2	23_2_2	2	1	1	0	0.745325088501	-370.0	381.0	-368.0	391.0	1
3.0.1	2019_Mar_03_1022	s	s	2	3	SIC	212	ABS	0	0	2	3	24_2_3	NA	NA	0	1	3.57471299171	None	None	None	None	1
3.0.1	2019_Mar_03_1022	s	s	2	3	SIC	213	ABS	0	0	4	2	24_4_2	NA	NA	0	1	5.45648884773	None	None	None	None	1
3.0.1	2019_Mar_03_1022	s	s	2	3	SIC	214	ABS	0	0	2	4	24_2_4	NA	NA	0	1	1.50149703026	None	None	None	None	1
3.0.1	2019_Mar_03_1022	s	s	2	3	SIC	215	2_4	2	4	3	4	23_3_4	1	0	1	0	1.02542901039	362.0	409.0	355.0	407.0	1
3.0.1	2019_Mar_03_1022	s	s	2	3	SIC	216	ABS	0	0	2	3	24_2_3	NA	NA	0	1	4.51961183548	None	None	None	None	1
3.0.1	2019_Mar_03_1022	s	s	2	3	SIC	217	4_2	4	2	2	1	23_2_1	2	-1	1	0	0.54032087326	343.0	-246.0	342.0	-244.0	1
3.0.1	2019_Mar_03_1022	s	s	2	3	SIC	218	1_2	1	2	1	3	23_1_3	0	1	0	1	3.22180891037	349.0	-30.0	None	None	0
3.0.1	2019_Mar_03_1022	s	s	2	3	SIC	219	ABS	0	0	3	1	24_3_1	NA	NA	0	1	2.2091729641	None	None	None	None	1
3.0.1	2019_Mar_03_1022	s	s	2	3	SIC	220	ABS	0	0	3	4	24_3_4	NA	NA	0	1	1.60756206512	None	None	None	None	1
3.0.1	2019_Mar_03_1022	s	s	2	3	SIC	221	ABS	0	0	1	2	24_1_2	NA	NA	0	1	3.49522805214	None	None	None	None	1
3.0.1	2019_Mar_03_1022	s	s	2	3	SIC	222	ABS	0	0	3	4	24_3_4	NA	NA	0	1	1.55474114418	None	None	None	None	1
3.0.1	2019_Mar_03_1022	s	s	2	3	SIC	223	ABS	0	0	4	4	24_4_4	NA	NA	0	1	1.2266459465	None	None	None	None	1
3.0.1	2019_Mar_03_1022	s	s	2	3	SIC	224	ABS	0	0	2	4	24_2_4	NA	NA	0	1	2.9343290329	None	None	None	None	1
3.0.1	2019_Mar_03_1022	s	s	2	3	SIC	225	1_2	1	2	2	1	23_2_1	1	-1	1	0	2.75138998032	163.0	-193.0	167.0	-197.0	1
3.0.1	2019_Mar_03_1022	s	s	2	3	SIC	226	1_4	1	4	2	3	23_2_3	1	1	1	0	1.38711380959	520.0	374.0	513.0	378.0	1
3.0.1	2019_Mar_03_1022	s	s	2	3	SIC	227	ABS	0	0	2	1	24_2_1	NA	NA	0	1	3.70407819748	None	None	None	None	1
3.0.1	2019_Mar_03_1022	s	s	2	3	SIC	228	ABS	0	0	1	4	24_1_4	NA	NA	0	1	1.96351099014	None	None	None	None	1
3.0.1	2019_Mar_03_1022	s	s	2	3	SIC	229	2_4	2	4	1	2	23_1_2	-1	2	1	0	0.545468091965	-393.0	308.0	-406.0	318.0	1
3.0.1	2019_Mar_03_1022	s	s	2	3	SIC	230	ABS	0	0	1	1	24_1_1	NA	NA	0	1	3.07972884178	None	None	None	None	1
3.0.1	2019_Mar_03_1022	s	s	2	3	SIC	231	2_2	2	2	4	2	23_4_2	2	0	1	0	0.486608028412	336.0	-171.0	330.0	-168.0	1
3.0.1	2019_Mar_03_1022	s	s	2	3	SIC	232	3_3	3	3	1	2	23_1_2	2	1	1	0	0.687302112579	-450.0	83.0	-454.0	83.0	1
3.0.1	2019_Mar_03_1022	s	s	2	3	SIC	233	ABS	0	0	2	3	24_2_3	NA	NA	0	1	4.56554698944	None	None	None	None	1
3.0.1	2019_Mar_03_1022	s	s	2	3	SIC	234	1_1	1	1	4	2	23_4_2	3	1	1	0	0.42870593071	169.0	-21.0	172.0	-23.0	1
3.0.1	2019_Mar_03_1022	s	s	2	3	SIC	235	4_2	4	2	4	1	23_4_1	0	-1	0	1	2.04570293427	-10.0	-169.0	None	None	0
3.0.1	2019_Mar_03_1022	s	s	2	3	SIC	236	ABS	0	0	3	1	24_3_1	NA	NA	0	1	2.31083297729	None	None	None	None	1
3.0.1	2019_Mar_03_1022	s	s	2	3	SIC	237	2_3	2	3	1	1	23_1_1	-1	2	1	0	0.84913611412	66.0	-240.0	78.0	-232.0	1
3.0.1	2019_Mar_03_1022	s	s	2	3	SIC	238	3_2	3	2	4	4	23_4_4	-1	2	1	0	0.434548139572	-448.0	369.0	-446.0	365.0	1
3.0.1	2019_Mar_03_1022	s	s	2	3	SIC	239	ABS	0	0	2	2	24_2_2	NA	NA	0	1	4.859552145	None	None	None	None	1
3.0.1	2019_Mar_03_1022	s	s	2	3	SIC	240	ABS	0	0	3	3	24_3_3	NA	NA	0	1	3.20870184898	None	None	None	None	1
3.0.1	2019_Mar_03_1022	s	s	2	3	SIC	241	ABS	0	0	1	2	24_1_2	NA	NA	0	1	3.26181912422	None	None	None	None	1
3.0.1	2019_Mar_03_1022	s	s	2	3	SIC	242	2_4	2	4	3	1	23_3_1	1	3	1	0	0.488348007202	-487.0	-4.0	-494.0	-6.0	1
3.0.1	2019_Mar_03_1022	s	s	2	3	SIC	243	ABS	0	0	4	1	24_4_1	NA	NA	0	1	1.79774689674	None	None	None	None	1
3.0.1	2019_Mar_03_1022	s	s	2	3	SIC	244	3_2	3	2	2	3	23_2_3	1	1	1	0	0.646150112152	-329.0	-287.0	-324.0	-287.0	1
3.0.1	2019_Mar_03_1022	s	s	2	3	SIC	245	3_4	3	4	1	2	23_1_2	2	2	1	0	0.410938024521	61.0	113.0	55.0	115.0	1
3.0.1	2019_Mar_03_1022	s	s	2	3	SIC	246	ABS	0	0	1	3	24_1_3	NA	NA	0	1	2.2625041008	None	None	None	None	1
3.0.1	2019_Mar_03_1022	s	s	2	3	SIC	247	ABS	0	0	1	3	24_1_3	NA	NA	0	1	3.02487015724	None	None	None	None	1
3.0.1	2019_Mar_03_1022	s	s	2	3	SIC	248	ABS	0	0	2	4	24_2_4	NA	NA	0	1	2.22704720497	None	None	None	None	1
3.0.1	2019_Mar_03_1022	s	s	2	3	SIC	249	2_1	2	1	1	1	23_1_1	-1	0	1	0	3.53939390182	269.0	159.0	277.0	158.0	1
3.0.1	2019_Mar_03_1022	s	s	2	3	SIC	250	3_1	3	1	3	2	23_3_2	0	1	0	1	3.29242300987	49.0	409.0	None	None	0
3.0.1	2019_Mar_03_1022	s	s	2	3	SIC	251	3_1	3	1	4	4	23_4_4	-1	3	1	0	0.464938163757	223.0	-28.0	216.0	-34.0	1
3.0.1	2019_Mar_03_1022	s	s	2	3	SIC	252	ABS	0	0	2	1	24_2_1	NA	NA	0	1	2.87904310226	None	None	None	None	1
3.0.1	2019_Mar_03_1022	s	s	2	3	SIC	253	4_3	4	3	1	4	23_1_4	3	-1	1	0	0.399235010147	-385.0	148.0	-392.0	143.0	1
3.0.1	2019_Mar_03_1022	s	s	2	3	SIC	254	2_1	2	1	2	3	23_2_3	0	2	1	0	0.904959201813	-395.0	136.0	-396.0	140.0	1
3.0.1	2019_Mar_03_1022	s	s	2	3	SIC	255	ABS	0	0	3	4	24_3_4	NA	NA	0	1	2.21449398994	None	None	None	None	1
3.0.1	2019_Mar_03_1022	s	s	2	3	SIC	256	1_1	1	1	1	3	23_1_3	0	2	1	0	0.858915090561	-13.0	-13.0	-12.0	-22.0	1
3.0.1	2019_Mar_03_1022	s	s	2	3	SIC	257	3_2	3	2	1	3	23_1_3	2	1	1	0	0.555032014847	366.0	274.0	374.0	273.0	1
3.0.1	2019_Mar_03_1022	s	s	2	3	SIC	258	ABS	0	0	2	3	24_2_3	NA	NA	0	1	3.33431386948	None	None	None	None	1
3.0.1	2019_Mar_03_1022	s	s	2	3	SIC	259	ABS	0	0	4	4	24_4_4	NA	NA	0	1	0.990960121155	None	None	None	None	1
3.0.1	2019_Mar_03_1022	s	s	2	3	SIC	260	ABS	0	0	2	2	24_2_2	NA	NA	0	1	3.65057897568	None	None	None	None	1
3.0.1	2019_Mar_03_1022	s	s	2	3	SIC	261	2_1	2	1	1	2	23_1_2	-1	1	1	0	3.9908220768	425.0	-269.0	432.0	-269.0	1
3.0.1	2019_Mar_03_1022	s	s	2	3	SIC	262	ABS	0	0	4	1	24_4_1	NA	NA	0	1	1.44106912613	None	None	None	None	1
3.0.1	2019_Mar_03_1022	s	s	2	3	SIC	263	3_2	3	2	4	3	23_4_3	-1	1	1	0	0.599148988724	294.0	89.0	297.0	86.0	1
3.0.1	2019_Mar_03_1022	s	s	2	3	SIC	264	3_3	3	3	2	3	23_2_3	1	0	1	0	0.528596878052	-204.0	-254.0	-205.0	-247.0	1
3.0.1	2019_Mar_03_1022	s	s	2	3	SIC	265	ABS	0	0	4	4	24_4_4	NA	NA	0	1	2.26414704323	None	None	None	None	1
3.0.1	2019_Mar_03_1022	s	s	2	3	SIC	266	ABS	0	0	2	1	24_2_1	NA	NA	0	1	3.74579596519	None	None	None	None	1
3.0.1	2019_Mar_03_1022	s	s	2	3	SIC	267	3_4	3	4	4	3	23_4_3	-1	1	1	0	0.469920873642	-421.0	107.0	-423.0	108.0	1
3.0.1	2019_Mar_03_1022	s	s	2	3	SIC	268	ABS	0	0	1	1	24_1_1	NA	NA	0	1	3.24530482292	None	None	None	None	1
3.0.1	2019_Mar_03_1022	s	s	2	3	SIC	269	ABS	0	0	2	2	24_2_2	NA	NA	0	1	4.14813899994	None	None	None	None	1
3.0.1	2019_Mar_03_1022	s	s	2	3	SIC	270	4_1	4	1	2	4	23_2_4	2	3	1	0	0.474906921387	525.0	-67.0	528.0	-75.0	1
3.0.1	2019_Mar_03_1022	s	s	2	3	SIC	271	2_3	2	3	1	2	23_1_2	-1	1	1	0	3.40479803085	248.0	-310.0	248.0	-313.0	1
3.0.1	2019_Mar_03_1022	s	s	2	3	SIC	272	1_3	1	3	2	3	23_2_3	1	0	1	0	3.05716705322	93.0	-395.0	86.0	-400.0	1
3.0.1	2019_Mar_03_1022	s	s	2	3	SIC	273	ABS	0	0	4	1	24_4_1	NA	NA	0	1	1.65758705139	None	None	None	None	1
3.0.1	2019_Mar_03_1022	s	s	2	3	SIC	274	ABS	0	0	4	4	24_4_4	NA	NA	0	1	1.49686717987	None	None	None	None	1
3.0.1	2019_Mar_03_1022	s	s	2	3	SIC	275	ABS	0	0	3	3	24_3_3	NA	NA	0	1	3.8272550106	None	None	None	None	1
3.0.1	2019_Mar_03_1022	s	s	2	3	SIC	276	ABS	0	0	4	3	24_4_3	NA	NA	0	1	4.10700678825	None	None	None	None	1
3.0.1	2019_Mar_03_1022	s	s	2	3	SIC	277	2_2	2	2	4	1	23_4_1	2	-1	1	0	0.481602191925	144.0	289.0	148.0	287.0	1
3.0.1	2019_Mar_03_1022	s	s	2	3	SIC	278	2_3	2	3	3	2	23_3_2	1	1	1	0	0.740319013596	506.0	236.0	508.0	245.0	1
3.0.1	2019_Mar_03_1022	s	s	2	3	SIC	279	1_1	1	1	4	3	23_4_3	3	2	1	0	0.446310997009	-79.0	-163.0	-84.0	-167.0	1
3.0.1	2019_Mar_03_1022	s	s	2	3	SIC	280	ABS	0	0	4	2	24_4_2	NA	NA	0	1	5.85633707047	None	None	None	None	1
3.0.1	2019_Mar_03_1022	s	s	2	3	SIC	281	ABS	0	0	4	2	24_4_2	NA	NA	0	1	4.44796514511	None	None	None	None	1
3.0.1	2019_Mar_03_1022	s	s	2	3	SIC	282	4_4	4	4	2	1	23_2_1	2	3	1	0	0.546257019043	222.0	-161.0	227.0	-153.0	1
3.0.1	2019_Mar_03_1022	s	s	2	3	SIC	283	3_4	3	4	3	2	23_3_2	0	2	1	0	1.01567411423	-415.0	-402.0	-417.0	-405.0	1
3.0.1	2019_Mar_03_1022	s	s	2	3	SIC	284	ABS	0	0	2	3	24_2_3	NA	NA	0	1	5.25654006004	None	None	None	None	1
3.0.1	2019_Mar_03_1022	s	s	2	3	SIC	285	ABS	0	0	3	4	24_3_4	NA	NA	0	1	2.19905996323	None	None	None	None	1
3.0.1	2019_Mar_03_1022	s	s	2	3	SIC	286	ABS	0	0	1	3	24_1_3	NA	NA	0	1	4.88021206856	None	None	None	None	1
3.0.1	2019_Mar_03_1022	s	s	2	3	SIC	287	ABS	0	0	1	2	24_1_2	NA	NA	0	1	3.65708994865	None	None	None	None	1
3.0.1	2019_Mar_03_1022	s	s	2	3	SIC	288	ABS	0	0	3	4	24_3_4	NA	NA	0	1	2.26039505005	None	None	None	None	1
3.0.1	2019_Mar_03_1022	s	s	2	3	SIC	289	2_2	2	2	1	3	23_1_3	-1	1	1	0	1.78993296623	21.0	-76.0	18.0	-76.0	1
3.0.1	2019_Mar_03_1022	s	s	2	3	SIC	290	ABS	0	0	4	3	24_4_3	NA	NA	0	1	3.76821494102	None	None	None	None	1
3.0.1	2019_Mar_03_1022	s	s	2	3	SIC	291	ABS	0	0	3	1	24_3_1	NA	NA	0	1	3.5746679306	None	None	None	None	1
3.0.1	2019_Mar_03_1022	s	s	2	3	SIC	292	ABS	0	0	2	4	24_2_4	NA	NA	0	1	2.27418994904	None	None	None	None	1
3.0.1	2019_Mar_03_1022	s	s	2	3	SIC	293	ABS	0	0	4	4	24_4_4	NA	NA	0	1	1.96635389328	None	None	None	None	1
3.0.1	2019_Mar_03_1022	s	s	2	3	SIC	294	1_2	1	2	4	3	23_4_3	3	1	1	0	0.488201856613	9.0	-397.0	8.0	-408.0	1
3.0.1	2019_Mar_03_1022	s	s	2	3	SIC	295	4_3	4	3	4	1	23_4_1	0	2	0	1	1.74972891808	487.0	387.0	None	None	0
3.0.1	2019_Mar_03_1022	s	s	2	3	SIC	296	4_2	4	2	3	2	23_3_2	1	0	1	0	0.516795158386	-320.0	224.0	-320.0	228.0	1
3.0.1	2019_Mar_03_1022	s	s	2	3	SIC	297	4_3	4	3	4	4	23_4_4	0	-1	1	0	0.869687080383	396.0	-287.0	396.0	-290.0	1
3.0.1	2019_Mar_03_1022	s	s	2	3	SIC	298	1_1	1	1	3	2	23_3_2	2	1	1	0	0.575700044632	-470.0	404.0	-465.0	408.0	1
3.0.1	2019_Mar_03_1022	s	s	2	3	SIC	299	1_2	1	2	1	1	23_1_1	0	-1	1	0	2.36721801758	-524.0	-156.0	-521.0	-151.0	1
3.0.1	2019_Mar_03_1022	s	s	2	3	SIC	300	ABS	0	0	4	1	24_4_1	NA	NA	0	1	2.01050901413	None	None	None	None	1
3.0.1	2019_Mar_03_1022	s	s	2	3	SIC	301	4_1	4	1	1	2	23_1_2	3	1	1	0	0.422781944275	175.0	368.0	185.0	371.0	1
3.0.1	2019_Mar_03_1022	s	s	2	3	SIC	302	ABS	0	0	2	3	24_2_3	NA	NA	0	1	4.14596796036	None	None	None	None	1
3.0.1	2019_Mar_03_1022	s	s	2	3	SIC	303	4_3	4	3	1	2	23_1_2	3	1	1	0	0.391780853271	-468.0	-292.0	-458.0	-293.0	1
3.0.1	2019_Mar_03_1022	s	s	2	3	SIC	304	ABS	0	0	1	1	24_1_1	NA	NA	0	1	2.55645489693	None	None	None	None	1
3.0.1	2019_Mar_03_1022	s	s	2	3	SIC	305	4_3	4	3	3	4	23_3_4	1	-1	1	0	0.427932024002	-148.0	-72.0	-145.0	-67.0	1
3.0.1	2019_Mar_03_1022	s	s	2	3	SIC	306	ABS	0	0	4	1	24_4_1	NA	NA	0	1	1.35188794136	None	None	None	None	1
3.0.1	2019_Mar_03_1022	s	s	2	3	SIC	307	ABS	0	0	4	4	24_4_4	NA	NA	0	1	1.82226920128	None	None	None	None	1
3.0.1	2019_Mar_03_1022	s	s	2	3	SIC	308	ABS	0	0	3	2	24_3_2	NA	NA	0	1	4.5538020134	None	None	None	None	1
3.0.1	2019_Mar_03_1022	s	s	2	3	SIC	309	1_3	1	3	3	2	23_3_2	2	1	1	0	0.481531143188	-264.0	-101.0	-261.0	-97.0	1
3.0.1	2019_Mar_03_1022	s	s	2	3	SIC	310	1_3	1	3	4	2	23_4_2	3	1	1	0	0.427899837494	427.0	369.0	422.0	366.0	1
3.0.1	2019_Mar_03_1022	s	s	2	3	SIC	311	ABS	0	0	1	2	24_1_2	NA	NA	0	1	4.70374798775	None	None	None	None	1
3.0.1	2019_Mar_03_1022	s	s	2	3	SIC	312	2_1	2	1	1	4	23_1_4	-1	3	1	0	0.911732912064	-183.0	197.0	-186.0	198.0	1
3.0.1	2019_Mar_03_1022	s	s	2	3	SIC	313	ABS	0	0	1	2	24_1_2	NA	NA	0	1	3.93131685257	None	None	None	None	1
3.0.1	2019_Mar_03_1022	s	s	2	3	SIC	314	1_2	1	2	3	3	23_3_3	2	1	1	0	0.528578996658	-396.0	244.0	-404.0	243.0	1
3.0.1	2019_Mar_03_1022	s	s	2	3	SIC	315	ABS	0	0	2	2	24_2_2	NA	NA	0	1	4.55937385559	None	None	None	None	1
3.0.1	2019_Mar_03_1022	s	s	2	3	SIC	316	ABS	0	0	4	2	24_4_2	NA	NA	0	1	4.04115009308	None	None	None	None	1
3.0.1	2019_Mar_03_1022	s	s	2	3	SIC	317	ABS	0	0	3	2	24_3_2	NA	NA	0	1	3.18660116196	None	None	None	None	1
3.0.1	2019_Mar_03_1022	s	s	2	3	SIC	318	ABS	0	0	1	4	24_1_4	NA	NA	0	1	3.47332715988	None	None	None	None	1
3.0.1	2019_Mar_03_1022	s	s	2	3	SIC	319	3_3	3	3	1	3	23_1_3	2	0	1	0	0.545434951782	-422.0	-29.0	-429.0	-35.0	1
3.0.1	2019_Mar_03_1022	s	s	2	3	SIC	320	4_2	4	2	1	3	23_1_3	3	1	1	0	0.44331407547	524.0	99.0	528.0	100.0	1
3.0.1	2019_Mar_03_1022	s	s	2	3	SIC	321	2_2	2	2	2	1	23_2_1	0	-1	1	0	2.82200789452	-363.0	-383.0	-363.0	-389.0	1
3.0.1	2019_Mar_03_1022	s	s	2	3	SIC	322	1_3	1	3	3	1	23_3_1	2	2	1	0	0.517019033432	35.0	260.0	44.0	263.0	1
3.0.1	2019_Mar_03_1022	s	s	2	3	SIC	323	ABS	0	0	1	2	24_1_2	NA	NA	0	1	3.76796913147	None	None	None	None	1
3.0.1	2019_Mar_03_1022	s	s	2	3	SIC	324	ABS	0	0	3	3	24_3_3	NA	NA	0	1	3.53940486908	None	None	None	None	1
3.0.1	2019_Mar_03_1022	s	s	2	3	SIC	325	ABS	0	0	1	1	24_1_1	NA	NA	0	1	2.31675195694	None	None	None	None	1
3.0.1	2019_Mar_03_1022	s	s	2	3	SIC	326	2_4	2	4	1	3	23_1_3	-1	1	1	0	0.886784076691	-514.0	273.0	-515.0	270.0	1
3.0.1	2019_Mar_03_1022	s	s	2	3	SIC	327	ABS	0	0	3	1	24_3_1	NA	NA	0	1	2.17511892319	None	None	None	None	1
3.0.1	2019_Mar_03_1022	s	s	2	3	SIC	328	3_4	3	4	2	2	23_2_2	1	2	1	0	0.763759851456	509.0	104.0	510.0	103.0	1
3.0.1	2019_Mar_03_1022	s	s	2	3	SIC	329	ABS	0	0	3	2	24_3_2	NA	NA	0	1	3.31600093842	None	None	None	None	1
3.0.1	2019_Mar_03_1022	s	s	2	3	SIC	330	ABS	0	0	2	1	24_2_1	NA	NA	0	1	1.91927504539	None	None	None	None	1
3.0.1	2019_Mar_03_1022	s	s	2	3	SIC	331	ABS	0	0	3	3	24_3_3	NA	NA	0	1	2.59249091148	None	None	None	None	1
3.0.1	2019_Mar_03_1022	s	s	2	3	SIC	332	3_2	3	2	1	4	23_1_4	2	2	1	0	0.540370941162	-17.0	17.0	-19.0	16.0	1
3.0.1	2019_Mar_03_1022	s	s	2	3	SIC	333	2_4	2	4	4	1	23_4_1	2	3	1	0	0.51677107811	-305.0	290.0	-304.0	286.0	1
3.0.1	2019_Mar_03_1022	s	s	2	3	SIC	334	ABS	0	0	3	4	24_3_4	NA	NA	0	1	2.48481488228	None	None	None	None	1
3.0.1	2019_Mar_03_1022	s	s	2	3	SIC	335	3_4	3	4	1	4	23_1_4	2	0	1	0	0.569221973419	184.0	2.0	185.0	2.0	1
3.0.1	2019_Mar_03_1022	s	s	2	3	SIC	336	4_2	4	2	3	3	23_3_3	1	1	1	0	0.428100824356	-403.0	-320.0	-399.0	-324.0	1
3.0.1	2019_Mar_03_1022	s	s	2	3	SIC	337	2_3	2	3	2	4	23_2_4	0	-1	1	0	1.03177499771	-375.0	-247.0	-373.0	-246.0	1
3.0.1	2019_Mar_03_1022	s	s	2	3	SIC	338	ABS	0	0	3	1	24_3_1	NA	NA	0	1	2.77499198914	None	None	None	None	1
3.0.1	2019_Mar_03_1022	s	s	2	3	SIC	339	ABS	0	0	3	2	24_3_2	NA	NA	0	1	4.44843816757	None	None	None	None	1
3.0.1	2019_Mar_03_1022	s	s	2	3	SIC	340	ABS	0	0	1	3	24_1_3	NA	NA	0	1	4.29216098785	None	None	None	None	1
3.0.1	2019_Mar_03_1022	s	s	2	3	SIC	341	1_3	1	3	1	2	23_1_2	0	1	0	1	4.24504995346	533.0	-107.0	None	None	0
3.0.1	2019_Mar_03_1022	s	s	2	3	SIC	342	ABS	0	0	4	2	24_4_2	NA	NA	0	1	4.74420499802	None	None	None	None	1
3.0.1	2019_Mar_03_1022	s	s	2	3	SIC	343	3_4	3	4	1	1	23_1_1	2	3	1	0	0.474988937378	141.0	97.0	133.0	96.0	1
3.0.1	2019_Mar_03_1022	s	s	2	3	SIC	344	ABS	0	0	3	3	24_3_3	NA	NA	0	1	3.46207094193	None	None	None	None	1
3.0.1	2019_Mar_03_1022	s	s	2	3	SIC	345	4_1	4	1	3	2	23_3_2	1	1	1	0	0.505041122437	-44.0	98.0	-38.0	93.0	1
3.0.1	2019_Mar_03_1022	s	s	2	3	SIC	346	1_2	1	2	3	2	23_3_2	2	0	1	0	0.481463909149	292.0	266.0	294.0	262.0	1
3.0.1	2019_Mar_03_1022	s	s	2	3	SIC	347	ABS	0	0	1	3	24_1_3	NA	NA	0	1	4.91238713264	None	None	None	None	1
3.0.1	2019_Mar_03_1022	s	s	2	3	SIC	348	ABS	0	0	3	3	24_3_3	NA	NA	0	1	3.22193694115	None	None	None	None	1
3.0.1	2019_Mar_03_1022	s	s	2	3	SIC	349	3_2	3	2	1	2	23_1_2	2	0	1	0	0.73140001297	486.0	-159.0	476.0	-160.0	1
3.0.1	2019_Mar_03_1022	s	s	2	3	SIC	350	1_3	1	3	3	4	23_3_4	2	-1	1	0	0.457958936691	-464.0	231.0	-458.0	222.0	1
3.0.1	2019_Mar_03_1022	s	s	2	3	SIC	351	ABS	0	0	4	2	24_4_2	NA	NA	0	1	4.983522892	None	None	None	None	1
3.0.1	2019_Mar_03_1022	s	s	2	3	SIC	352	ABS	0	0	1	1	24_1_1	NA	NA	0	1	1.9869761467	None	None	None	None	1
3.0.1	2019_Mar_03_1022	s	s	2	3	SIC	353	2_1	2	1	1	3	23_1_3	-1	2	1	0	0.869599819183	2.0	245.0	3.0	247.0	1
3.0.1	2019_Mar_03_1022	s	s	2	3	SIC	354	ABS	0	0	2	4	24_2_4	NA	NA	0	1	2.92299103737	None	None	None	None	1
3.0.1	2019_Mar_03_1022	s	s	2	3	SIC	355	ABS	0	0	2	2	24_2_2	NA	NA	0	1	4.6298520565	None	None	None	None	1
3.0.1	2019_Mar_03_1022	s	s	2	3	SIC	356	ABS	0	0	4	1	24_4_1	NA	NA	0	1	2.24566888809	None	None	None	None	1
3.0.1	2019_Mar_03_1022	s	s	2	3	SIC	357	4_4	4	4	4	1	23_4_1	0	3	1	0	0.474577903748	-349.0	354.0	-354.0	349.0	1
3.0.1	2019_Mar_03_1022	s	s	2	3	SIC	358	ABS	0	0	2	2	24_2_2	NA	NA	0	1	4.29810786247	None	None	None	None	1
3.0.1	2019_Mar_03_1022	s	s	2	3	SIC	359	1_3	1	3	4	4	23_4_4	3	-1	1	0	0.422737836838	76.0	210.0	81.0	215.0	1
3.0.1	2019_Mar_03_1022	s	s	2	3	SIC	360	ABS	0	0	1	1	24_1_1	NA	NA	0	1	3.14654517174	None	None	None	None	1
3.0.1	2019_Mar_03_1022	s	s	2	3	SIC	361	2_1	2	1	2	2	23_2_2	0	1	1	0	4.07285094261	223.0	-410.0	217.0	-416.0	1
3.0.1	2019_Mar_03_1022	s	s	2	3	SIC	362	ABS	0	0	1	1	24_1_1	NA	NA	0	1	2.08102488518	None	None	None	None	1
3.0.1	2019_Mar_03_1022	s	s	2	3	SIC	363	ABS	0	0	3	2	24_3_2	NA	NA	0	1	4.64903712273	None	None	None	None	1
3.0.1	2019_Mar_03_1022	s	s	2	3	SIC	364	2_2	2	2	4	4	23_4_4	2	2	1	0	0.446300983429	-44.0	-237.0	-41.0	-232.0	1
3.0.1	2019_Mar_03_1022	s	s	2	3	SIC	365	1_4	1	4	4	3	23_4_3	3	1	1	0	0.378549814224	-178.0	35.0	-177.0	28.0	1
3.0.1	2019_Mar_03_1022	s	s	2	3	SIC	366	3_3	3	3	2	2	23_2_2	1	1	1	0	0.501753091812	228.0	138.0	236.0	141.0	1
3.0.1	2019_Mar_03_1022	s	s	2	3	SIC	367	2_4	2	4	2	2	23_2_2	0	2	1	0	0.639183044434	304.0	231.0	302.0	232.0	1
3.0.1	2019_Mar_03_1022	s	s	2	3	SIC	368	ABS	0	0	3	1	24_3_1	NA	NA	0	1	2.79065084457	None	None	None	None	1
3.0.1	2019_Mar_03_1022	s	s	2	3	SIC	369	4_4	4	4	2	4	23_2_4	2	0	1	0	0.458027839661	-331.0	-373.0	-324.0	-367.0	1
3.0.1	2019_Mar_03_1022	s	s	2	3	SIC	370	ABS	0	0	2	1	24_2_1	NA	NA	0	1	2.19190406799	None	None	None	None	1
3.0.1	2019_Mar_03_1022	s	s	2	3	SIC	371	ABS	0	0	1	4	24_1_4	NA	NA	0	1	1.57819914818	None	None	None	None	1
3.0.1	2019_Mar_03_1022	s	s	2	3	SIC	372	2_2	2	2	4	3	23_4_3	2	1	1	0	0.45799779892	207.0	327.0	204.0	319.0	1
3.0.1	2019_Mar_03_1022	s	s	2	3	SIC	373	ABS	0	0	1	2	24_1_2	NA	NA	0	1	3.59823489189	None	None	None	None	1
3.0.1	2019_Mar_03_1022	s	s	2	3	SIC	374	2_2	2	2	3	3	23_3_3	1	1	1	0	0.486425876617	-44.0	-222.0	-46.0	-224.0	1
3.0.1	2019_Mar_03_1022	s	s	2	3	SIC	375	ABS	0	0	4	2	24_4_2	NA	NA	0	1	2.57498908043	None	None	None	None	1
3.0.1	2019_Mar_03_1022	s	s	2	3	SIC	376	ABS	0	0	1	4	24_1_4	NA	NA	0	1	3.33998703957	None	None	None	None	1
3.0.1	2019_Mar_03_1022	s	s	2	3	SIC	377	3_1	3	1	1	4	23_1_4	2	3	1	0	0.481528997421	-420.0	-373.0	-422.0	-382.0	1
3.0.1	2019_Mar_03_1022	s	s	2	3	SIC	378	ABS	0	0	3	4	24_3_4	NA	NA	0	1	1.80346107483	None	None	None	None	1
3.0.1	2019_Mar_03_1022	s	s	2	3	SIC	379	4_2	4	2	3	4	23_3_4	1	2	1	0	0.391098976135	29.0	177.0	26.0	178.0	1
3.0.1	2019_Mar_03_1022	s	s	2	3	SIC	380	4_3	4	3	1	1	23_1_1	3	2	1	0	0.399576187134	361.0	-92.0	358.0	-101.0	1
3.0.1	2019_Mar_03_1022	s	s	2	3	SIC	381	4_1	4	1	1	4	23_1_4	3	3	1	0	0.369343042374	416.0	-187.0	425.0	-181.0	1
3.0.1	2019_Mar_03_1022	s	s	2	3	SIC	382	2_3	2	3	3	4	23_3_4	1	-1	1	0	0.48148393631	-189.0	-93.0	-183.0	-92.0	1
3.0.1	2019_Mar_03_1022	s	s	2	3	SIC	383	4_1	4	1	3	1	23_3_1	1	0	1	0	0.42797088623	-527.0	315.0	-523.0	315.0	1
3.0.1	2019_Mar_03_1022	s	s	2	3	SIC	384	ABS	0	0	4	4	24_4_4	NA	NA	0	1	1.05785298347	None	None	None	None	1
3.0.1	2019_Mar_03_1022	s	s	2	3	SIC	385	3_4	3	4	2	4	23_2_4	1	0	0	1	0.0390191078186	302.0	272.0	None	None	0
3.0.1	2019_Mar_03_1022	s	s	2	3	SIC	386	1_4	1	4	2	2	23_2_2	1	2	1	0	0.898482084274	-110.0	28.0	-108.0	21.0	1
3.0.1	2019_Mar_03_1022	s	s	2	3	SIC	387	ABS	0	0	4	3	24_4_3	NA	NA	0	1	2.7984418869	None	None	None	None	1
3.0.1	2019_Mar_03_1022	s	s	2	3	SIC	388	ABS	0	0	3	3	24_3_3	NA	NA	0	1	2.78156995773	None	None	None	None	1
3.0.1	2019_Mar_03_1022	s	s	2	3	SIC	389	ABS	0	0	2	4	24_2_4	NA	NA	0	1	1.73108410835	None	None	None	None	1
3.0.1	2019_Mar_03_1022	s	s	2	3	SIC	390	ABS	0	0	2	2	24_2_2	NA	NA	1	0	3.79496216774	None	None	113.0	-412.0	0
3.0.1	2019_Mar_03_1022	s	s	2	3	SIC	391	4_2	4	2	1	4	23_1_4	3	2	1	0	0.627290010452	128.0	163.0	128.0	167.0	1
3.0.1	2019_Mar_03_1022	s	s	2	3	SIC	392	ABS	0	0	4	3	24_4_3	NA	NA	0	1	2.4377322197	None	None	None	None	1
3.0.1	2019_Mar_03_1022	s	s	2	3	SIC	393	ABS	0	0	1	2	24_1_2	NA	NA	0	1	4.03778600693	None	None	None	None	1
3.0.1	2019_Mar_03_1022	s	s	2	3	SIC	394	ABS	0	0	1	3	24_1_3	NA	NA	0	1	2.56852483749	None	None	None	None	1
3.0.1	2019_Mar_03_1022	s	s	2	3	SIC	395	ABS	0	0	4	3	24_4_3	NA	NA	0	1	2.23394298553	None	None	None	None	1
3.0.1	2019_Mar_03_1022	s	s	2	3	SIC	396	2_3	2	3	3	3	23_3_3	1	0	1	0	0.528589963913	-264.0	410.0	-270.0	417.0	1
3.0.1	2019_Mar_03_1022	s	s	2	3	SIC	397	3_1	3	1	2	2	23_2_2	1	1	1	0	1.14349007607	529.0	-218.0	528.0	-212.0	1
3.0.1	2019_Mar_03_1022	s	s	2	3	SIC	398	4_4	4	4	3	3	23_3_3	1	1	1	0	0.378612041473	379.0	-70.0	388.0	-74.0	1
3.0.1	2019_Mar_03_1022	s	s	2	3	SIC	399	ABS	0	0	3	1	24_3_1	NA	NA	0	1	2.12808990479	None	None	None	None	1
3.0.1	2019_Mar_03_1022	s	s	2	3	SIC	400	1_2	1	2	1	4	23_1_4	0	2	1	0	0.64124417305	473.0	-311.0	482.0	-306.0	1
3.0.1	2019_Mar_03_1022	s	s	2	3	SIC	401	ABS	0	0	2	1	24_2_1	NA	NA	0	1	1.94027018547	None	None	None	None	1
3.0.1	2019_Mar_03_1022	s	s	2	3	SIC	402	2_3	2	3	4	4	23_4_4	2	-1	1	0	0.396790981293	-431.0	69.0	-437.0	66.0	1
3.0.1	2019_Mar_03_1022	s	s	2	3	SIC	403	ABS	0	0	1	4	24_1_4	NA	NA	0	1	1.20874190331	None	None	None	None	1
3.0.1	2019_Mar_03_1022	s	s	2	3	SIC	404	ABS	0	0	3	2	24_3_2	NA	NA	0	1	4.20977592468	None	None	None	None	1
3.0.1	2019_Mar_03_1022	s	s	2	3	SIC	405	1_4	1	4	3	3	23_3_3	2	1	1	0	0.481616973877	396.0	-10.0	392.0	-13.0	1
3.0.1	2019_Mar_03_1022	s	s	2	3	SIC	406	ABS	0	0	1	2	24_1_2	NA	NA	0	1	3.70203995705	None	None	None	None	1
3.0.1	2019_Mar_03_1022	s	s	2	3	SIC	407	1_3	1	3	4	3	23_4_3	3	0	1	0	0.437353134155	124.0	411.0	125.0	404.0	1
3.0.1	2019_Mar_03_1022	s	s	2	3	SIC	408	4_4	4	4	2	2	23_2_2	2	2	1	0	0.437364816666	-118.0	-220.0	-114.0	-228.0	1
3.0.1	2019_Mar_03_1022	s	s	2	3	SIC	409	ABS	0	0	4	2	24_4_2	NA	NA	0	1	4.17455983162	None	None	None	None	1
3.0.1	2019_Mar_03_1022	s	s	2	3	SIC	410	1_3	1	3	2	4	23_2_4	1	-1	1	0	1.67747092247	520.0	-380.0	519.0	-391.0	1
3.0.1	2019_Mar_03_1022	s	s	2	3	SIC	411	ABS	0	0	2	2	24_2_2	NA	NA	0	1	4.37965512276	None	None	None	None	1
3.0.1	2019_Mar_03_1022	s	s	2	3	SIC	412	ABS	0	0	1	2	24_1_2	NA	NA	0	1	3.97988605499	None	None	None	None	1
3.0.1	2019_Mar_03_1022	s	s	2	3	SIC	413	ABS	0	0	2	3	24_2_3	NA	NA	0	1	3.28419399261	None	None	None	None	1
3.0.1	2019_Mar_03_1022	s	s	2	3	SIC	414	2_4	2	4	3	3	23_3_3	1	1	1	0	0.966604948044	465.0	-21.0	466.0	-18.0	1
3.0.1	2019_Mar_03_1022	s	s	2	3	SIC	415	ABS	0	0	2	4	24_2_4	NA	NA	0	1	2.65594696999	None	None	None	None	1
3.0.1	2019_Mar_03_1022	s	s	2	3	SIC	416	ABS	0	0	2	2	24_2_2	NA	NA	0	1	3.39243507385	None	None	None	None	1
3.0.1	2019_Mar_03_1022	s	s	2	3	SIC	417	1_1	1	1	2	4	23_2_4	1	3	1	0	0.451090097427	300.0	6.0	297.0	2.0	1
3.0.1	2019_Mar_03_1022	s	s	2	3	SIC	418	ABS	0	0	4	4	24_4_4	NA	NA	0	1	1.69958305359	None	None	None	None	1
3.0.1	2019_Mar_03_1022	s	s	2	3	SIC	419	3_4	3	4	2	3	23_2_3	1	1	1	0	0.869849920273	238.0	-317.0	235.0	-330.0	1
3.0.1	2019_Mar_03_1022	s	s	2	3	SIC	420	ABS	0	0	1	4	24_1_4	NA	NA	0	1	2.72080302238	None	None	None	None	1
3.0.1	2019_Mar_03_1022	s	s	2	3	SIC	421	1_1	1	1	2	3	23_2_3	1	2	1	0	0.646257162094	-138.0	-241.0	-134.0	-243.0	1
3.0.1	2019_Mar_03_1022	s	s	2	3	SIC	422	ABS	0	0	1	4	24_1_4	NA	NA	0	1	1.58710098267	None	None	None	None	1
3.0.1	2019_Mar_03_1022	s	s	2	3	SIC	423	ABS	0	0	4	3	24_4_3	NA	NA	0	1	2.84554600716	None	None	None	None	1
3.0.1	2019_Mar_03_1022	s	s	2	3	SIC	424	3_1	3	1	2	4	23_2_4	1	3	1	0	0.439586162567	4.0	240.0	3.0	227.0	1
3.0.1	2019_Mar_03_1022	s	s	2	3	SIC	425	2_1	2	1	4	1	23_4_1	2	0	1	0	0.399176836014	-195.0	19.0	-192.0	25.0	1
3.0.1	2019_Mar_03_1022	s	s	2	3	SIC	426	ABS	0	0	3	3	24_3_3	NA	NA	0	1	3.27373695374	None	None	None	None	1
3.0.1	2019_Mar_03_1022	s	s	2	3	SIC	427	ABS	0	0	1	3	24_1_3	NA	NA	0	1	2.95596790314	None	None	None	None	1
3.0.1	2019_Mar_03_1022	s	s	2	3	SIC	428	ABS	0	0	1	4	24_1_4	NA	NA	0	1	1.39011383057	None	None	None	None	1
3.0.1	2019_Mar_03_1022	s	s	2	3	SIC	429	ABS	0	0	1	3	24_1_3	NA	NA	0	1	3.36812996864	None	None	None	None	1
3.0.1	2019_Mar_03_1022	s	s	2	3	SIC	430	1_4	1	4	3	2	23_3_2	2	2	1	0	0.834398031235	-306.0	-247.0	-309.0	-252.0	1
3.0.1	2019_Mar_03_1022	s	s	2	3	SIC	431	ABS	0	0	2	4	24_2_4	NA	NA	0	1	1.76346802711	None	None	None	None	1
3.0.1	2019_Mar_03_1022	s	s	2	3	SIC	432	ABS	0	0	4	1	24_4_1	NA	NA	0	1	1.01368308067	None	None	None	None	1
3.0.1	2019_Mar_03_1022	s	s	2	3	SIC	433	2_2	2	2	1	4	23_1_4	-1	2	1	0	0.864248991013	-350.0	-355.0	-350.0	-357.0	1
3.0.1	2019_Mar_03_1022	s	s	2	3	SIC	434	1_1	1	1	2	2	23_2_2	1	1	1	0	0.83442902565	-146.0	100.0	-148.0	95.0	1
3.0.1	2019_Mar_03_1022	s	s	2	3	SIC	435	4_1	4	1	2	1	23_2_1	2	0	1	0	0.446228027344	-1.0	-251.0	5.0	-243.0	1
3.0.1	2019_Mar_03_1022	s	s	2	3	SIC	436	ABS	0	0	4	3	24_4_3	NA	NA	0	1	3.42185497284	None	None	None	None	1
3.0.1	2019_Mar_03_1022	s	s	2	3	SIC	437	ABS	0	0	4	4	24_4_4	NA	NA	0	1	1.22248911858	None	None	None	None	1
3.0.1	2019_Mar_03_1022	s	s	2	3	SIC	438	1_2	1	2	2	3	23_2_3	1	1	1	0	0.940232038498	142.0	204.0	152.0	208.0	1
3.0.1	2019_Mar_03_1022	s	s	2	3	SIC	439	ABS	0	0	3	2	24_3_2	NA	NA	0	1	4.16275215149	None	None	None	None	1
3.0.1	2019_Mar_03_1022	s	s	2	3	SIC	440	ABS	0	0	3	1	24_3_1	NA	NA	0	1	0.121778011322	None	None	None	None	1
3.0.1	2019_Mar_03_1022	s	s	2	3	SIC	441	1_2	1	2	4	4	23_4_4	3	2	1	0	0.481537818909	283.0	-280.0	287.0	-282.0	1
3.0.1	2019_Mar_03_1022	s	s	2	3	SIC	442	ABS	0	0	2	1	24_2_1	NA	NA	0	1	2.53980398178	None	None	None	None	1
3.0.1	2019_Mar_03_1022	s	s	2	3	SIC	443	2_4	2	4	4	4	23_4_4	2	0	1	0	0.44095492363	-53.0	-73.0	-54.0	-75.0	1
3.0.1	2019_Mar_03_1022	s	s	2	3	SIC	444	1_3	1	3	1	1	23_1_1	0	2	1	0	0.933494091034	232.0	7.0	238.0	4.0	1
3.0.1	2019_Mar_03_1022	s	s	2	3	SIC	445	ABS	0	0	2	2	24_2_2	NA	NA	0	1	4.38917899132	None	None	None	None	1
3.0.1	2019_Mar_03_1022	s	s	2	3	SIC	446	ABS	0	0	1	2	24_1_2	NA	NA	0	1	3.80532693863	None	None	None	None	1
3.0.1	2019_Mar_03_1022	s	s	2	3	SIC	447	1_2	1	2	2	4	23_2_4	1	2	1	0	0.599174976349	-305.0	-341.0	-302.0	-335.0	1
3.0.1	2019_Mar_03_1022	s	s	2	3	SIC	448	ABS	0	0	3	3	24_3_3	NA	NA	0	1	2.04572892189	None	None	None	None	1
3.0.1	2019_Mar_03_1022	s	s	2	3	SIC	449	ABS	0	0	3	3	24_3_3	NA	NA	0	1	2.35149693489	None	None	None	None	1
3.0.1	2019_Mar_03_1022	s	s	2	3	SIC	450	4_2	4	2	4	3	23_4_3	0	1	1	0	2.88080215454	-50.0	-122.0	-57.0	-123.0	1
3.0.1	2019_Mar_03_1022	s	s	2	3	SIC	451	ABS	0	0	3	4	24_3_4	NA	NA	0	1	1.85064697266	None	None	None	None	1
3.0.1	2019_Mar_03_1022	s	s	2	3	SIC	452	ABS	0	0	2	3	24_2_3	NA	NA	0	1	3.25163221359	None	None	None	None	1
3.0.1	2019_Mar_03_1022	s	s	2	3	SIC	453	ABS	0	0	2	1	24_2_1	NA	NA	0	1	2.56888794899	None	None	None	None	1
3.0.1	2019_Mar_03_1022	s	s	2	3	SIC	454	4_2	4	2	3	1	23_3_1	1	-1	1	0	0.498391151428	-411.0	-381.0	-407.0	-381.0	1
3.0.1	2019_Mar_03_1022	s	s	2	3	SIC	455	ABS	0	0	2	4	24_2_4	NA	NA	0	1	1.99206590652	None	None	None	None	1
3.0.1	2019_Mar_03_1022	s	s	2	3	SIC	456	3_4	3	4	2	1	23_2_1	1	3	1	0	0.816171884537	489.0	-211.0	495.0	-217.0	1
3.0.1	2019_Mar_03_1022	s	s	2	3	SIC	457	ABS	0	0	3	1	24_3_1	NA	NA	0	1	2.39858078957	None	None	None	None	1
3.0.1	2019_Mar_03_1022	s	s	2	3	SIC	458	ABS	0	0	1	1	24_1_1	NA	NA	0	1	2.20151185989	None	None	None	None	1
3.0.1	2019_Mar_03_1022	s	s	2	3	SIC	459	ABS	0	0	2	2	24_2_2	NA	NA	0	1	4.0804028511	None	None	None	None	1
3.0.1	2019_Mar_03_1022	s	s	2	3	SIC	460	ABS	0	0	4	3	24_4_3	NA	NA	0	1	2.27214384079	None	None	None	None	1
3.0.1	2019_Mar_03_1022	s	s	2	3	SIC	461	3_3	3	3	3	4	23_3_4	0	-1	1	0	1.48125314713	-506.0	86.0	-520.0	94.0	1
3.0.1	2019_Mar_03_1022	s	s	2	3	SIC	462	3_1	3	1	4	2	23_4_2	-1	1	1	0	0.672634124756	264.0	296.0	254.0	305.0	1
3.0.1	2019_Mar_03_1022	s	s	2	3	SIC	463	1_4	1	4	4	1	23_4_1	3	3	1	0	0.415233850479	-292.0	251.0	-290.0	253.0	1
3.0.1	2019_Mar_03_1022	s	s	2	3	SIC	464	ABS	0	0	4	4	24_4_4	NA	NA	0	1	2.09494400024	None	None	None	None	1
3.0.1	2019_Mar_03_1022	s	s	2	3	SIC	465	ABS	0	0	3	4	24_3_4	NA	NA	0	1	1.33649587631	None	None	None	None	1
3.0.1	2019_Mar_03_1022	s	s	2	3	SIC	466	ABS	0	0	3	2	24_3_2	NA	NA	0	1	3.71572613716	None	None	None	None	1
3.0.1	2019_Mar_03_1022	s	s	2	3	SIC	467	ABS	0	0	1	4	24_1_4	NA	NA	0	1	1.56356692314	None	None	None	None	1
3.0.1	2019_Mar_03_1022	s	s	2	3	SIC	468	3_3	3	3	4	3	23_4_3	-1	0	1	0	0.498585939407	122.0	-53.0	112.0	-48.0	1
3.0.1	2019_Mar_03_1022	s	s	2	3	SIC	469	ABS	0	0	3	3	24_3_3	NA	NA	0	1	2.96313095093	None	None	None	None	1
3.0.1	2019_Mar_03_1022	s	s	2	3	SIC	470	2_3	2	3	3	1	23_3_1	1	2	1	0	0.881366014481	516.0	-36.0	520.0	-33.0	1
3.0.1	2019_Mar_03_1022	s	s	2	3	SIC	471	ABS	0	0	2	4	24_2_4	NA	NA	0	1	1.52826905251	None	None	None	None	1
3.0.1	2019_Mar_03_1022	s	s	2	3	SIC	472	2_3	2	3	1	3	23_1_3	-1	0	0	1	3.21011304855	109.0	-41.0	None	None	0
3.0.1	2019_Mar_03_1022	s	s	2	3	SIC	473	ABS	0	0	4	3	24_4_3	NA	NA	0	1	2.88081812859	None	None	None	None	1
3.0.1	2019_Mar_03_1022	s	s	2	3	SIC	474	ABS	0	0	3	1	24_3_1	NA	NA	0	1	2.3162560463	None	None	None	None	1
3.0.1	2019_Mar_03_1022	s	s	2	3	SIC	475	ABS	0	0	3	1	24_3_1	NA	NA	0	1	2.08392000198	None	None	None	None	1
3.0.1	2019_Mar_03_1022	s	s	2	3	SIC	476	2_2	2	2	3	1	23_3_1	1	-1	1	0	1.46082901955	-525.0	52.0	-529.0	49.0	1
3.0.1	2019_Mar_03_1022	s	s	2	3	SIC	477	ABS	0	0	4	1	24_4_1	NA	NA	0	1	2.05277204514	None	None	None	None	1
3.0.1	2019_Mar_03_1022	s	s	2	3	SIC	478	ABS	0	0	2	3	24_2_3	NA	NA	0	1	2.75136995316	None	None	None	None	1
3.0.1	2019_Mar_03_1022	s	s	2	3	SIC	479	3_1	3	1	3	3	23_3_3	0	2	1	0	1.23934197426	-17.0	-42.0	-23.0	-36.0	1
3.0.1	2019_Mar_03_1022	s	s	2	3	SIC	480	1_4	1	4	2	1	23_2_1	1	3	1	0	0.73234796524	-24.0	-53.0	-17.0	-48.0	1
