Version	Date	Stimuli	Method	Subject	Session	Condition	Trial	Target	TColor	TShape	DColor	DShape	Distractors	Channel1	Channel2	LMouseButton	RMouseButton	RT	TargetX	TargetY	ResponseX	ResponseY	Correct
3.0.1	2019_Mar_04_1228	s	s	2	4	Capacity	1	ABS	0	0	4	1	24_4_1	NA	NA	0	1	1.38712716103	None	None	None	None	1
3.0.1	2019_Mar_04_1228	s	s	2	4	Capacity	2	2_1	2	1	3	1	23_3_1	1	0	1	0	0.446228981018	2.0	-37.0	1.0	-45.0	1
3.0.1	2019_Mar_04_1228	s	s	2	4	Capacity	3	3_1	3	1	4	1	23_4_1	-1	0	1	0	0.566828012466	90.0	-105.0	95.0	-106.0	1
3.0.1	2019_Mar_04_1228	s	s	2	4	Capacity	4	ABS	0	0	4	1	24_4_1	NA	NA	0	1	1.04058003426	None	None	None	None	1
3.0.1	2019_Mar_04_1228	s	s	2	4	Capacity	5	ABS	0	0	2	1	24_2_1	NA	NA	0	1	1.59886097908	None	None	None	None	1
3.0.1	2019_Mar_04_1228	s	s	2	4	Capacity	6	ABS	0	0	3	1	24_3_1	NA	NA	0	1	1.63700914383	None	None	None	None	1
3.0.1	2019_Mar_04_1228	s	s	2	4	Capacity	7	ABS	0	0	1	1	24_1_1	NA	NA	0	1	1.96632504463	None	None	None	None	1
3.0.1	2019_Mar_04_1228	s	s	2	4	Capacity	8	3_1	3	1	1	1	23_1_1	2	0	1	0	0.481537818909	168.0	284.0	165.0	281.0	1
3.0.1	2019_Mar_04_1228	s	s	2	4	Capacity	9	ABS	0	0	3	1	24_3_1	NA	NA	0	1	2.01450490952	None	None	None	None	1
3.0.1	2019_Mar_04_1228	s	s	2	4	Capacity	10	4_1	4	1	2	1	23_2_1	2	0	1	0	0.385062932968	-531.0	63.0	-538.0	63.0	1
3.0.1	2019_Mar_04_1228	s	s	2	4	Capacity	11	ABS	0	0	2	1	24_2_1	NA	NA	0	1	2.03916192055	None	None	None	None	1
3.0.1	2019_Mar_04_1228	s	s	2	4	Capacity	12	2_1	2	1	4	1	23_4_1	2	0	1	0	0.380892038345	217.0	-252.0	205.0	-251.0	1
3.0.1	2019_Mar_04_1228	s	s	2	4	Capacity	13	1_1	1	1	3	1	23_3_1	2	0	1	0	0.637355089188	-383.0	350.0	-383.0	357.0	1
3.0.1	2019_Mar_04_1228	s	s	2	4	Capacity	14	4_1	4	1	3	1	23_3_1	1	0	1	0	0.375602960587	-488.0	361.0	-479.0	359.0	1
3.0.1	2019_Mar_04_1228	s	s	2	4	Capacity	15	1_1	1	1	4	1	23_4_1	3	0	1	0	0.381088018417	189.0	-79.0	187.0	-81.0	1
3.0.1	2019_Mar_04_1228	s	s	2	4	Capacity	16	ABS	0	0	1	1	24_1_1	NA	NA	0	1	1.16758179665	None	None	None	None	1
3.0.1	2019_Mar_04_1228	s	s	2	4	Capacity	17	ABS	0	0	4	1	24_4_1	NA	NA	0	1	1.22242689133	None	None	None	None	1
3.0.1	2019_Mar_04_1228	s	s	2	4	Capacity	18	2_1	2	1	1	1	23_1_1	-1	0	1	0	2.64549398422	-443.0	-215.0	-440.0	-216.0	1
3.0.1	2019_Mar_04_1228	s	s	2	4	Capacity	19	ABS	0	0	1	1	24_1_1	NA	NA	0	1	2.05746603012	None	None	None	None	1
3.0.1	2019_Mar_04_1228	s	s	2	4	Capacity	20	ABS	0	0	3	1	24_3_1	NA	NA	0	1	2.37511491776	None	None	None	None	1
3.0.1	2019_Mar_04_1228	s	s	2	4	Capacity	21	4_1	4	1	1	1	23_1_1	3	0	1	0	0.498421192169	-13.0	-408.0	-6.0	-406.0	1
3.0.1	2019_Mar_04_1228	s	s	2	4	Capacity	22	3_1	3	1	2	1	23_2_1	1	0	1	0	0.439164876938	-48.0	-146.0	-53.0	-148.0	1
3.0.1	2019_Mar_04_1228	s	s	2	4	Capacity	23	ABS	0	0	2	1	24_2_1	NA	NA	0	1	1.97807908058	None	None	None	None	1
3.0.1	2019_Mar_04_1228	s	s	2	4	Capacity	24	1_1	1	1	2	1	23_2_1	1	0	0	1	1.86050701141	-422.0	-251.0	None	None	0
3.0.1	2019_Mar_04_1228	s	s	2	4	Capacity	25	ABS	0	0	1	1	24_1_1	NA	NA	0	1	3.25717186928	None	None	None	None	1
3.0.1	2019_Mar_04_1228	s	s	2	4	Capacity	26	1_1	1	1	2	1	23_2_1	1	0	1	0	2.57501077652	-488.0	352.0	-492.0	351.0	1
3.0.1	2019_Mar_04_1228	s	s	2	4	Capacity	27	ABS	0	0	4	1	24_4_1	NA	NA	0	1	1.51639580727	None	None	None	None	1
3.0.1	2019_Mar_04_1228	s	s	2	4	Capacity	28	ABS	0	0	4	1	24_4_1	NA	NA	0	1	1.72823500633	None	None	None	None	1
3.0.1	2019_Mar_04_1228	s	s	2	4	Capacity	29	2_1	2	1	4	1	23_4_1	2	0	1	0	0.407058000565	266.0	-162.0	257.0	-160.0	1
3.0.1	2019_Mar_04_1228	s	s	2	4	Capacity	30	ABS	0	0	3	1	24_3_1	NA	NA	0	1	2.56218194962	None	None	None	None	1
3.0.1	2019_Mar_04_1228	s	s	2	4	Capacity	31	3_1	3	1	2	1	23_2_1	1	0	1	0	0.496185064316	-124.0	175.0	-125.0	177.0	1
3.0.1	2019_Mar_04_1228	s	s	2	4	Capacity	32	2_1	2	1	3	1	23_3_1	1	0	1	0	0.540333986282	350.0	332.0	354.0	338.0	1
3.0.1	2019_Mar_04_1228	s	s	2	4	Capacity	33	ABS	0	0	4	1	24_4_1	NA	NA	0	1	1.77523517609	None	None	None	None	1
3.0.1	2019_Mar_04_1228	s	s	2	4	Capacity	34	ABS	0	0	3	1	24_3_1	NA	NA	0	1	2.8342089653	None	None	None	None	1
3.0.1	2019_Mar_04_1228	s	s	2	4	Capacity	35	4_1	4	1	2	1	23_2_1	2	0	1	0	0.432015895844	-537.0	-301.0	-545.0	-298.0	1
3.0.1	2019_Mar_04_1228	s	s	2	4	Capacity	36	3_1	3	1	4	1	23_4_1	-1	0	1	0	0.427139997482	302.0	-60.0	300.0	-59.0	1
3.0.1	2019_Mar_04_1228	s	s	2	4	Capacity	37	4_1	4	1	1	1	23_1_1	3	0	1	0	0.415036201477	-493.0	323.0	-496.0	327.0	1
3.0.1	2019_Mar_04_1228	s	s	2	4	Capacity	38	ABS	0	0	2	1	24_2_1	NA	NA	0	1	2.79351902008	None	None	None	None	1
3.0.1	2019_Mar_04_1228	s	s	2	4	Capacity	39	ABS	0	0	3	1	24_3_1	NA	NA	0	1	2.56318497658	None	None	None	None	1
3.0.1	2019_Mar_04_1228	s	s	2	4	Capacity	40	2_1	2	1	1	1	23_1_1	-1	0	1	0	0.85714507103	54.0	74.0	56.0	76.0	1
3.0.1	2019_Mar_04_1228	s	s	2	4	Capacity	41	4_1	4	1	3	1	23_3_1	1	0	1	0	0.469786882401	68.0	234.0	66.0	229.0	1
3.0.1	2019_Mar_04_1228	s	s	2	4	Capacity	42	1_1	1	1	4	1	23_4_1	3	0	1	0	0.437359809875	-524.0	-281.0	-526.0	-281.0	1
3.0.1	2019_Mar_04_1228	s	s	2	4	Capacity	43	ABS	0	0	2	1	24_2_1	NA	NA	0	1	3.25711202621	None	None	None	None	1
3.0.1	2019_Mar_04_1228	s	s	2	4	Capacity	44	ABS	0	0	2	1	24_2_1	NA	NA	0	1	1.90789008141	None	None	None	None	1
3.0.1	2019_Mar_04_1228	s	s	2	4	Capacity	45	ABS	0	0	1	1	24_1_1	NA	NA	0	1	2.15462899208	None	None	None	None	1
3.0.1	2019_Mar_04_1228	s	s	2	4	Capacity	46	3_1	3	1	1	1	23_1_1	2	0	1	0	0.4373691082	-493.0	306.0	-492.0	298.0	1
3.0.1	2019_Mar_04_1228	s	s	2	4	Capacity	47	1_1	1	1	3	1	23_3_1	2	0	1	0	0.49617099762	-294.0	208.0	-293.0	209.0	1
3.0.1	2019_Mar_04_1228	s	s	2	4	Capacity	48	ABS	0	0	1	1	24_1_1	NA	NA	0	1	1.70465493202	None	None	None	None	1
3.0.1	2019_Mar_04_1228	s	s	2	4	Capacity	49	4_1	4	1	2	1	23_2_1	2	0	1	0	0.40404009819	-58.0	-15.0	-56.0	-14.0	1
3.0.1	2019_Mar_04_1228	s	s	2	4	Capacity	50	ABS	0	0	4	1	24_4_1	NA	NA	0	1	1.56657099724	None	None	None	None	1
3.0.1	2019_Mar_04_1228	s	s	2	4	Capacity	51	ABS	0	0	2	1	24_2_1	NA	NA	0	1	1.91065883636	None	None	None	None	1
3.0.1	2019_Mar_04_1228	s	s	2	4	Capacity	52	ABS	0	0	1	1	24_1_1	NA	NA	0	1	2.37794208527	None	None	None	None	1
3.0.1	2019_Mar_04_1228	s	s	2	4	Capacity	53	4_1	4	1	1	1	23_1_1	3	0	1	0	0.437355041504	439.0	11.0	448.0	9.0	1
3.0.1	2019_Mar_04_1228	s	s	2	4	Capacity	54	ABS	0	0	2	1	24_2_1	NA	NA	0	1	2.60136198997	None	None	None	None	1
3.0.1	2019_Mar_04_1228	s	s	2	4	Capacity	55	3_1	3	1	4	1	23_4_1	-1	0	1	0	0.496208906174	33.0	-25.0	32.0	-23.0	1
3.0.1	2019_Mar_04_1228	s	s	2	4	Capacity	56	1_1	1	1	2	1	23_2_1	1	0	1	0	2.29810881615	-214.0	-148.0	-218.0	-150.0	1
3.0.1	2019_Mar_04_1228	s	s	2	4	Capacity	57	3_1	3	1	1	1	23_1_1	2	0	1	0	0.496120929718	-165.0	-383.0	-156.0	-376.0	1
3.0.1	2019_Mar_04_1228	s	s	2	4	Capacity	58	2_1	2	1	1	1	23_1_1	-1	0	1	0	1.46937203407	296.0	-46.0	301.0	-48.0	1
3.0.1	2019_Mar_04_1228	s	s	2	4	Capacity	59	ABS	0	0	3	1	24_3_1	NA	NA	0	1	3.18104410172	None	None	None	None	1
3.0.1	2019_Mar_04_1228	s	s	2	4	Capacity	60	2_1	2	1	3	1	23_3_1	1	0	1	0	0.528521060944	-4.0	-166.0	-12.0	-165.0	1
3.0.1	2019_Mar_04_1228	s	s	2	4	Capacity	61	ABS	0	0	4	1	24_4_1	NA	NA	0	1	1.56352496147	None	None	None	None	1
3.0.1	2019_Mar_04_1228	s	s	2	4	Capacity	62	ABS	0	0	2	1	24_2_1	NA	NA	0	1	2.87393712997	None	None	None	None	1
3.0.1	2019_Mar_04_1228	s	s	2	4	Capacity	63	3_1	3	1	2	1	23_2_1	1	0	1	0	0.569430112839	17.0	-253.0	15.0	-257.0	1
3.0.1	2019_Mar_04_1228	s	s	2	4	Capacity	64	2_1	2	1	4	1	23_4_1	2	0	1	0	0.399150848389	-382.0	381.0	-389.0	381.0	1
3.0.1	2019_Mar_04_1228	s	s	2	4	Capacity	65	ABS	0	0	4	1	24_4_1	NA	NA	0	1	1.93984293938	None	None	None	None	1
3.0.1	2019_Mar_04_1228	s	s	2	4	Capacity	66	ABS	0	0	3	1	24_3_1	NA	NA	0	1	2.5430328846	None	None	None	None	1
3.0.1	2019_Mar_04_1228	s	s	2	4	Capacity	67	ABS	0	0	1	1	24_1_1	NA	NA	0	1	2.28543496132	None	None	None	None	1
3.0.1	2019_Mar_04_1228	s	s	2	4	Capacity	68	ABS	0	0	1	1	24_1_1	NA	NA	0	1	2.92278385162	None	None	None	None	1
3.0.1	2019_Mar_04_1228	s	s	2	4	Capacity	69	1_1	1	1	3	1	23_3_1	2	0	1	0	0.460955142975	-68.0	-309.0	-72.0	-310.0	1
3.0.1	2019_Mar_04_1228	s	s	2	4	Capacity	70	1_1	1	1	4	1	23_4_1	3	0	1	0	0.390399932861	219.0	-258.0	221.0	-255.0	1
3.0.1	2019_Mar_04_1228	s	s	2	4	Capacity	71	ABS	0	0	3	1	24_3_1	NA	NA	0	1	2.70436096191	None	None	None	None	1
3.0.1	2019_Mar_04_1228	s	s	2	4	Capacity	72	4_1	4	1	3	1	23_3_1	1	0	1	0	0.43727183342	450.0	-159.0	455.0	-160.0	1
3.0.1	2019_Mar_04_1228	s	s	2	4	Capacity	73	1_1	1	1	3	1	23_3_1	2	0	1	0	0.446244955063	-146.0	125.0	-141.0	119.0	1
3.0.1	2019_Mar_04_1228	s	s	2	4	Capacity	74	ABS	0	0	2	1	24_2_1	NA	NA	0	1	2.76313495636	None	None	None	None	1
3.0.1	2019_Mar_04_1228	s	s	2	4	Capacity	75	4_1	4	1	3	1	23_3_1	1	0	1	0	0.438338041306	-310.0	-278.0	-311.0	-286.0	1
3.0.1	2019_Mar_04_1228	s	s	2	4	Capacity	76	ABS	0	0	2	1	24_2_1	NA	NA	0	1	2.11634421349	None	None	None	None	1
3.0.1	2019_Mar_04_1228	s	s	2	4	Capacity	77	1_1	1	1	4	1	23_4_1	3	0	1	0	0.441416978836	-111.0	331.0	-107.0	324.0	1
3.0.1	2019_Mar_04_1228	s	s	2	4	Capacity	78	ABS	0	0	4	1	24_4_1	NA	NA	0	1	1.7935359478	None	None	None	None	1
3.0.1	2019_Mar_04_1228	s	s	2	4	Capacity	79	ABS	0	0	3	1	24_3_1	NA	NA	0	1	1.86926317215	None	None	None	None	1
3.0.1	2019_Mar_04_1228	s	s	2	4	Capacity	80	ABS	0	0	4	1	24_4_1	NA	NA	0	1	1.2657968998	None	None	None	None	1
3.0.1	2019_Mar_04_1228	s	s	2	4	Capacity	81	3_1	3	1	2	1	23_2_1	1	0	1	0	0.461236953735	-39.0	-44.0	-42.0	-48.0	1
3.0.1	2019_Mar_04_1228	s	s	2	4	Capacity	82	ABS	0	0	3	1	24_3_1	NA	NA	0	1	1.95170307159	None	None	None	None	1
3.0.1	2019_Mar_04_1228	s	s	2	4	Capacity	83	ABS	0	0	3	1	24_3_1	NA	NA	0	1	1.6462700367	None	None	None	None	1
3.0.1	2019_Mar_04_1228	s	s	2	4	Capacity	84	1_1	1	1	2	1	23_2_1	1	0	1	0	2.21039891243	-298.0	-385.0	-292.0	-390.0	1
3.0.1	2019_Mar_04_1228	s	s	2	4	Capacity	85	ABS	0	0	4	1	24_4_1	NA	NA	0	1	1.95726299286	None	None	None	None	1
3.0.1	2019_Mar_04_1228	s	s	2	4	Capacity	86	2_1	2	1	1	1	23_1_1	-1	0	1	0	1.05776882172	-182.0	362.0	-190.0	358.0	1
3.0.1	2019_Mar_04_1228	s	s	2	4	Capacity	87	3_1	3	1	4	1	23_4_1	-1	0	1	0	0.469753980637	-404.0	220.0	-409.0	227.0	1
3.0.1	2019_Mar_04_1228	s	s	2	4	Capacity	88	ABS	0	0	1	1	24_1_1	NA	NA	0	1	2.92771315575	None	None	None	None	1
3.0.1	2019_Mar_04_1228	s	s	2	4	Capacity	89	ABS	0	0	1	1	24_1_1	NA	NA	0	1	3.00330805779	None	None	None	None	1
3.0.1	2019_Mar_04_1228	s	s	2	4	Capacity	90	ABS	0	0	2	1	24_2_1	NA	NA	0	1	3.12030506134	None	None	None	None	1
3.0.1	2019_Mar_04_1228	s	s	2	4	Capacity	91	4_1	4	1	2	1	23_2_1	2	0	1	0	0.554999113083	-310.0	350.0	-299.0	355.0	1
3.0.1	2019_Mar_04_1228	s	s	2	4	Capacity	92	3_1	3	1	1	1	23_1_1	2	0	1	0	0.378511190414	-423.0	173.0	-423.0	175.0	1
3.0.1	2019_Mar_04_1228	s	s	2	4	Capacity	93	ABS	0	0	1	1	24_1_1	NA	NA	0	1	1.65753507614	None	None	None	None	1
3.0.1	2019_Mar_04_1228	s	s	2	4	Capacity	94	4_1	4	1	1	1	23_1_1	3	0	1	0	0.370948076248	-59.0	-303.0	-65.0	-304.0	1
3.0.1	2019_Mar_04_1228	s	s	2	4	Capacity	95	2_1	2	1	4	1	23_4_1	2	0	1	0	0.381669044495	-332.0	23.0	-336.0	17.0	1
3.0.1	2019_Mar_04_1228	s	s	2	4	Capacity	96	2_1	2	1	3	1	23_3_1	1	0	1	0	0.497935056686	508.0	-43.0	515.0	-48.0	1
3.0.1	2019_Mar_04_1228	s	s	2	4	Capacity	1	1_2	1	2	1	3	23_1_3	0	1	0	1	4.32781100273	-121.0	-36.0	None	None	0
3.0.1	2019_Mar_04_1228	s	s	2	4	Capacity	2	1_3	1	3	1	2	23_1_2	0	1	1	0	4.52730107307	365.0	218.0	370.0	215.0	1
3.0.1	2019_Mar_04_1228	s	s	2	4	Capacity	3	ABS	0	0	1	4	24_1_4	NA	NA	0	1	2.90432286263	None	None	None	None	1
3.0.1	2019_Mar_04_1228	s	s	2	4	Capacity	4	1_4	1	4	1	2	23_1_2	0	2	1	0	1.59888005257	430.0	-409.0	430.0	-409.0	1
3.0.1	2019_Mar_04_1228	s	s	2	4	Capacity	5	ABS	0	0	1	4	24_1_4	NA	NA	0	1	2.04065799713	None	None	None	None	1
3.0.1	2019_Mar_04_1228	s	s	2	4	Capacity	6	1_2	1	2	1	1	23_1_1	0	-1	1	0	1.57973980904	258.0	133.0	254.0	139.0	1
3.0.1	2019_Mar_04_1228	s	s	2	4	Capacity	7	ABS	0	0	1	1	24_1_1	NA	NA	0	1	2.3633108139	None	None	None	None	1
3.0.1	2019_Mar_04_1228	s	s	2	4	Capacity	8	ABS	0	0	1	3	24_1_3	NA	NA	0	1	4.76253700256	None	None	None	None	1
3.0.1	2019_Mar_04_1228	s	s	2	4	Capacity	9	ABS	0	0	1	2	24_1_2	NA	NA	0	1	4.2155418396	None	None	None	None	1
3.0.1	2019_Mar_04_1228	s	s	2	4	Capacity	10	ABS	0	0	1	2	24_1_2	NA	NA	0	1	3.98623180389	None	None	None	None	1
3.0.1	2019_Mar_04_1228	s	s	2	4	Capacity	11	ABS	0	0	1	3	24_1_3	NA	NA	0	1	3.9981238842	None	None	None	None	1
3.0.1	2019_Mar_04_1228	s	s	2	4	Capacity	12	ABS	0	0	1	1	24_1_1	NA	NA	0	1	4.80857300758	None	None	None	None	1
3.0.1	2019_Mar_04_1228	s	s	2	4	Capacity	13	1_4	1	4	1	3	23_1_3	0	1	1	0	1.90474390984	-367.0	-185.0	-364.0	-187.0	1
3.0.1	2019_Mar_04_1228	s	s	2	4	Capacity	14	1_2	1	2	1	4	23_1_4	0	2	1	0	0.693187952042	118.0	66.0	117.0	62.0	1
3.0.1	2019_Mar_04_1228	s	s	2	4	Capacity	15	1_1	1	1	1	4	23_1_4	0	3	1	0	0.893166065216	-121.0	56.0	-119.0	56.0	1
3.0.1	2019_Mar_04_1228	s	s	2	4	Capacity	16	ABS	0	0	1	1	24_1_1	NA	NA	0	1	2.72084903717	None	None	None	None	1
3.0.1	2019_Mar_04_1228	s	s	2	4	Capacity	17	1_3	1	3	1	1	23_1_1	0	2	1	0	1.21988201141	-270.0	228.0	-274.0	228.0	1
3.0.1	2019_Mar_04_1228	s	s	2	4	Capacity	18	1_1	1	1	1	3	23_1_3	0	2	1	0	1.06958198547	-204.0	-52.0	-198.0	-51.0	1
3.0.1	2019_Mar_04_1228	s	s	2	4	Capacity	19	1_1	1	1	1	2	23_1_2	0	1	1	0	3.10949015617	-204.0	-187.0	-206.0	-190.0	1
3.0.1	2019_Mar_04_1228	s	s	2	4	Capacity	20	ABS	0	0	1	4	24_1_4	NA	NA	0	1	1.92022705078	None	None	None	None	1
3.0.1	2019_Mar_04_1228	s	s	2	4	Capacity	21	ABS	0	0	1	3	24_1_3	NA	NA	0	1	3.50417208672	None	None	None	None	1
3.0.1	2019_Mar_04_1228	s	s	2	4	Capacity	22	1_4	1	4	1	1	23_1_1	0	3	1	0	1.42244291306	-501.0	-347.0	-498.0	-348.0	1
3.0.1	2019_Mar_04_1228	s	s	2	4	Capacity	23	1_3	1	3	1	4	23_1_4	0	-1	1	0	0.663340091705	355.0	378.0	361.0	377.0	1
3.0.1	2019_Mar_04_1228	s	s	2	4	Capacity	24	ABS	0	0	1	2	24_1_2	NA	NA	0	1	5.19076395035	None	None	None	None	1
3.0.1	2019_Mar_04_1228	s	s	2	4	Capacity	25	1_2	1	2	1	3	23_1_3	0	1	1	0	2.08611488342	90.0	139.0	95.0	141.0	1
3.0.1	2019_Mar_04_1228	s	s	2	4	Capacity	26	1_4	1	4	1	2	23_1_2	0	2	1	0	1.04647803307	-14.0	-176.0	-13.0	-169.0	1
3.0.1	2019_Mar_04_1228	s	s	2	4	Capacity	27	1_2	1	2	1	1	23_1_1	0	-1	1	0	3.92277812958	-444.0	-375.0	-442.0	-371.0	1
3.0.1	2019_Mar_04_1228	s	s	2	4	Capacity	28	1_4	1	4	1	1	23_1_1	0	3	1	0	0.629066228867	-173.0	281.0	-175.0	283.0	1
3.0.1	2019_Mar_04_1228	s	s	2	4	Capacity	29	1_2	1	2	1	4	23_1_4	0	2	1	0	0.829365968704	-263.0	-139.0	-262.0	-146.0	1
3.0.1	2019_Mar_04_1228	s	s	2	4	Capacity	30	1_4	1	4	1	3	23_1_3	0	1	1	0	1.45754790306	-360.0	-359.0	-283.0	34.0	0
3.0.1	2019_Mar_04_1228	s	s	2	4	Capacity	31	1_3	1	3	1	4	23_1_4	0	-1	1	0	1.41355395317	-243.0	159.0	-254.0	165.0	1
3.0.1	2019_Mar_04_1228	s	s	2	4	Capacity	32	ABS	0	0	1	1	24_1_1	NA	NA	0	1	5.26520895958	None	None	None	None	1
3.0.1	2019_Mar_04_1228	s	s	2	4	Capacity	33	1_1	1	1	1	4	23_1_4	0	3	1	0	0.704970121384	-316.0	-187.0	-318.0	-194.0	1
3.0.1	2019_Mar_04_1228	s	s	2	4	Capacity	34	ABS	0	0	1	3	24_1_3	NA	NA	0	1	4.83314299583	None	None	None	None	1
3.0.1	2019_Mar_04_1228	s	s	2	4	Capacity	35	ABS	0	0	1	3	24_1_3	NA	NA	0	1	4.88508987427	None	None	None	None	1
3.0.1	2019_Mar_04_1228	s	s	2	4	Capacity	36	ABS	0	0	1	1	24_1_1	NA	NA	0	1	2.91606497765	None	None	None	None	1
3.0.1	2019_Mar_04_1228	s	s	2	4	Capacity	37	1_3	1	3	1	2	23_1_2	0	1	1	0	4.66847610474	86.0	-311.0	89.0	-309.0	1
3.0.1	2019_Mar_04_1228	s	s	2	4	Capacity	38	ABS	0	0	1	2	24_1_2	NA	NA	0	1	6.10621500015	None	None	None	None	1
3.0.1	2019_Mar_04_1228	s	s	2	4	Capacity	39	ABS	0	0	1	1	24_1_1	NA	NA	0	1	4.07436394691	None	None	None	None	1
3.0.1	2019_Mar_04_1228	s	s	2	4	Capacity	40	ABS	0	0	1	2	24_1_2	NA	NA	0	1	5.35672307014	None	None	None	None	1
3.0.1	2019_Mar_04_1228	s	s	2	4	Capacity	41	ABS	0	0	1	3	24_1_3	NA	NA	0	1	4.65040707588	None	None	None	None	1
3.0.1	2019_Mar_04_1228	s	s	2	4	Capacity	42	1_1	1	1	1	2	23_1_2	0	1	1	0	5.47102308273	497.0	-41.0	501.0	-39.0	1
3.0.1	2019_Mar_04_1228	s	s	2	4	Capacity	43	1_3	1	3	1	1	23_1_1	0	2	1	0	1.22243118286	-373.0	135.0	-368.0	134.0	1
3.0.1	2019_Mar_04_1228	s	s	2	4	Capacity	44	ABS	0	0	1	4	24_1_4	NA	NA	0	1	2.66241693497	None	None	None	None	1
3.0.1	2019_Mar_04_1228	s	s	2	4	Capacity	45	ABS	0	0	1	4	24_1_4	NA	NA	0	1	2.33976697922	None	None	None	None	1
3.0.1	2019_Mar_04_1228	s	s	2	4	Capacity	46	ABS	0	0	1	4	24_1_4	NA	NA	0	1	2.23390483856	None	None	None	None	1
3.0.1	2019_Mar_04_1228	s	s	2	4	Capacity	47	1_1	1	1	1	3	23_1_3	0	2	1	0	2.41543197632	491.0	-385.0	487.0	-393.0	1
3.0.1	2019_Mar_04_1228	s	s	2	4	Capacity	48	ABS	0	0	1	2	24_1_2	NA	NA	0	1	4.32531309128	None	None	None	None	1
3.0.1	2019_Mar_04_1228	s	s	2	4	Capacity	49	ABS	0	0	1	2	24_1_2	NA	NA	0	1	5.40946888924	None	None	None	None	1
3.0.1	2019_Mar_04_1228	s	s	2	4	Capacity	50	1_4	1	4	1	3	23_1_3	0	1	1	0	1.77971100807	475.0	-220.0	485.0	-218.0	1
3.0.1	2019_Mar_04_1228	s	s	2	4	Capacity	51	1_2	1	2	1	4	23_1_4	0	2	1	0	0.686542987823	-341.0	229.0	-343.0	224.0	1
3.0.1	2019_Mar_04_1228	s	s	2	4	Capacity	52	1_4	1	4	1	1	23_1_1	0	3	1	0	0.854033946991	197.0	-6.0	194.0	-9.0	1
3.0.1	2019_Mar_04_1228	s	s	2	4	Capacity	53	1_2	1	2	1	1	23_1_1	0	-1	0	1	2.56321501732	519.0	22.0	None	None	0
3.0.1	2019_Mar_04_1228	s	s	2	4	Capacity	54	1_1	1	1	1	2	23_1_2	0	1	1	0	4.22673201561	-79.0	388.0	-75.0	398.0	1
3.0.1	2019_Mar_04_1228	s	s	2	4	Capacity	55	1_2	1	2	1	3	23_1_3	0	1	1	0	1.81046915054	36.0	251.0	41.0	254.0	1
3.0.1	2019_Mar_04_1228	s	s	2	4	Capacity	56	1_1	1	1	1	3	23_1_3	0	2	1	0	4.30385804176	-171.0	-283.0	-169.0	-292.0	1
3.0.1	2019_Mar_04_1228	s	s	2	4	Capacity	57	ABS	0	0	1	1	24_1_1	NA	NA	0	1	2.8690237999	None	None	None	None	1
3.0.1	2019_Mar_04_1228	s	s	2	4	Capacity	58	ABS	0	0	1	2	24_1_2	NA	NA	0	1	7.3617811203	None	None	None	None	1
3.0.1	2019_Mar_04_1228	s	s	2	4	Capacity	59	1_3	1	3	1	2	23_1_2	0	1	1	0	2.92781805992	329.0	-277.0	327.0	-276.0	1
3.0.1	2019_Mar_04_1228	s	s	2	4	Capacity	60	1_3	1	3	1	1	23_1_1	0	2	1	0	2.28558206558	455.0	-160.0	460.0	-156.0	1
3.0.1	2019_Mar_04_1228	s	s	2	4	Capacity	61	ABS	0	0	1	1	24_1_1	NA	NA	0	1	2.69254589081	None	None	None	None	1
3.0.1	2019_Mar_04_1228	s	s	2	4	Capacity	62	ABS	0	0	1	3	24_1_3	NA	NA	0	1	4.24514698982	None	None	None	None	1
3.0.1	2019_Mar_04_1228	s	s	2	4	Capacity	63	1_4	1	4	1	2	23_1_2	0	2	1	0	0.849039077759	336.0	7.0	341.0	4.0	1
3.0.1	2019_Mar_04_1228	s	s	2	4	Capacity	64	ABS	0	0	1	2	24_1_2	NA	NA	0	1	4.76748991013	None	None	None	None	1
3.0.1	2019_Mar_04_1228	s	s	2	4	Capacity	65	ABS	0	0	1	4	24_1_4	NA	NA	0	1	1.93990087509	None	None	None	None	1
3.0.1	2019_Mar_04_1228	s	s	2	4	Capacity	66	ABS	0	0	1	3	24_1_3	NA	NA	0	1	4.23329997063	None	None	None	None	1
3.0.1	2019_Mar_04_1228	s	s	2	4	Capacity	67	1_1	1	1	1	4	23_1_4	0	3	1	0	0.533408880234	-123.0	-71.0	-116.0	-76.0	1
3.0.1	2019_Mar_04_1228	s	s	2	4	Capacity	68	ABS	0	0	1	4	24_1_4	NA	NA	0	1	2.48098015785	None	None	None	None	1
3.0.1	2019_Mar_04_1228	s	s	2	4	Capacity	69	ABS	0	0	1	3	24_1_3	NA	NA	0	1	3.67166399956	None	None	None	None	1
3.0.1	2019_Mar_04_1228	s	s	2	4	Capacity	70	1_3	1	3	1	4	23_1_4	0	-1	1	0	0.634396076202	253.0	-294.0	262.0	-292.0	1
3.0.1	2019_Mar_04_1228	s	s	2	4	Capacity	71	ABS	0	0	1	4	24_1_4	NA	NA	0	1	2.07561397552	None	None	None	None	1
3.0.1	2019_Mar_04_1228	s	s	2	4	Capacity	72	ABS	0	0	1	1	24_1_1	NA	NA	0	1	3.58643317223	None	None	None	None	1
3.0.1	2019_Mar_04_1228	s	s	2	4	Capacity	73	ABS	0	0	1	1	24_1_1	NA	NA	0	1	2.60362696648	None	None	None	None	1
3.0.1	2019_Mar_04_1228	s	s	2	4	Capacity	74	1_1	1	1	1	3	23_1_3	0	2	1	0	1.43706202507	45.0	404.0	45.0	403.0	1
3.0.1	2019_Mar_04_1228	s	s	2	4	Capacity	75	1_3	1	3	1	1	23_1_1	0	2	1	0	1.77528905869	-148.0	-385.0	-147.0	-392.0	1
3.0.1	2019_Mar_04_1228	s	s	2	4	Capacity	76	ABS	0	0	1	2	24_1_2	NA	NA	0	1	5.64947199821	None	None	None	None	1
3.0.1	2019_Mar_04_1228	s	s	2	4	Capacity	77	ABS	0	0	1	1	24_1_1	NA	NA	0	1	4.15142512321	None	None	None	None	1
3.0.1	2019_Mar_04_1228	s	s	2	4	Capacity	78	1_3	1	3	1	2	23_1_2	0	1	0	1	5.59765791893	-276.0	69.0	None	None	0
3.0.1	2019_Mar_04_1228	s	s	2	4	Capacity	79	ABS	0	0	1	2	24_1_2	NA	NA	0	1	5.00954294205	None	None	None	None	1
3.0.1	2019_Mar_04_1228	s	s	2	4	Capacity	80	1_4	1	4	1	3	23_1_3	0	1	1	0	0.686310052872	2.0	177.0	6.0	179.0	1
3.0.1	2019_Mar_04_1228	s	s	2	4	Capacity	81	1_2	1	2	1	4	23_1_4	0	2	1	0	0.781180858612	409.0	256.0	400.0	259.0	1
3.0.1	2019_Mar_04_1228	s	s	2	4	Capacity	82	1_2	1	2	1	3	23_1_3	0	1	1	0	2.82195186615	-237.0	-72.0	-236.0	-70.0	1
3.0.1	2019_Mar_04_1228	s	s	2	4	Capacity	83	ABS	0	0	1	4	24_1_4	NA	NA	0	1	1.91508984566	None	None	None	None	1
3.0.1	2019_Mar_04_1228	s	s	2	4	Capacity	84	1_3	1	3	1	4	23_1_4	0	-1	1	0	0.987201929092	417.0	47.0	417.0	46.0	1
3.0.1	2019_Mar_04_1228	s	s	2	4	Capacity	85	ABS	0	0	1	3	24_1_3	NA	NA	0	1	5.08878898621	None	None	None	None	1
3.0.1	2019_Mar_04_1228	s	s	2	4	Capacity	86	ABS	0	0	1	2	24_1_2	NA	NA	0	1	3.90132117271	None	None	None	None	1
3.0.1	2019_Mar_04_1228	s	s	2	4	Capacity	87	ABS	0	0	1	4	24_1_4	NA	NA	0	1	1.71641993523	None	None	None	None	1
3.0.1	2019_Mar_04_1228	s	s	2	4	Capacity	88	1_1	1	1	1	2	23_1_2	0	1	1	0	1.16366004944	157.0	9.0	156.0	11.0	1
3.0.1	2019_Mar_04_1228	s	s	2	4	Capacity	89	ABS	0	0	1	3	24_1_3	NA	NA	0	1	4.03377914429	None	None	None	None	1
3.0.1	2019_Mar_04_1228	s	s	2	4	Capacity	90	ABS	0	0	1	1	24_1_1	NA	NA	0	1	2.12036991119	None	None	None	None	1
3.0.1	2019_Mar_04_1228	s	s	2	4	Capacity	91	1_1	1	1	1	4	23_1_4	0	3	1	0	0.657963991165	430.0	-244.0	429.0	-244.0	1
3.0.1	2019_Mar_04_1228	s	s	2	4	Capacity	92	1_4	1	4	1	2	23_1_2	0	2	1	0	0.881369113922	38.0	-200.0	29.0	-198.0	1
3.0.1	2019_Mar_04_1228	s	s	2	4	Capacity	93	ABS	0	0	1	4	24_1_4	NA	NA	0	1	1.54001998901	None	None	None	None	1
3.0.1	2019_Mar_04_1228	s	s	2	4	Capacity	94	ABS	0	0	1	3	24_1_3	NA	NA	0	1	3.42180800438	None	None	None	None	1
3.0.1	2019_Mar_04_1228	s	s	2	4	Capacity	95	1_4	1	4	1	1	23_1_1	0	3	1	0	0.693233013153	179.0	-272.0	182.0	-273.0	1
3.0.1	2019_Mar_04_1228	s	s	2	4	Capacity	96	1_2	1	2	1	1	23_1_1	0	-1	1	0	3.27530503273	269.0	401.0	273.0	402.0	1
3.0.1	2019_Mar_04_1228	s	s	2	4	SIC	1	1_2	1	2	3	3	23_3_3	2	1	1	0	0.444555044174	-110.0	0.0	-97.0	3.0	1
3.0.1	2019_Mar_04_1228	s	s	2	4	SIC	2	ABS	0	0	2	4	24_2_4	NA	NA	0	1	2.2809009552	None	None	None	None	1
3.0.1	2019_Mar_04_1228	s	s	2	4	SIC	3	ABS	0	0	2	3	24_2_3	NA	NA	0	1	4.09212207794	None	None	None	None	1
3.0.1	2019_Mar_04_1228	s	s	2	4	SIC	4	4_4	4	4	2	4	23_2_4	2	0	1	0	0.427680015564	-131.0	-51.0	-124.0	-50.0	1
3.0.1	2019_Mar_04_1228	s	s	2	4	SIC	5	ABS	0	0	4	2	24_4_2	NA	NA	0	1	5.53894710541	None	None	None	None	1
3.0.1	2019_Mar_04_1228	s	s	2	4	SIC	6	2_4	2	4	2	1	23_2_1	0	3	1	0	0.660804033279	-213.0	234.0	-214.0	238.0	1
3.0.1	2019_Mar_04_1228	s	s	2	4	SIC	7	3_2	3	2	1	4	23_1_4	2	2	1	0	0.387390851974	-162.0	235.0	-164.0	228.0	1
3.0.1	2019_Mar_04_1228	s	s	2	4	SIC	8	2_1	2	1	4	1	23_4_1	2	0	1	0	0.43740606308	439.0	-176.0	441.0	-177.0	1
3.0.1	2019_Mar_04_1228	s	s	2	4	SIC	9	4_1	4	1	1	2	23_1_2	3	1	1	0	0.369406223297	-270.0	205.0	-267.0	211.0	1
3.0.1	2019_Mar_04_1228	s	s	2	4	SIC	10	ABS	0	0	2	1	24_2_1	NA	NA	0	1	3.04538679123	None	None	None	None	1
3.0.1	2019_Mar_04_1228	s	s	2	4	SIC	11	ABS	0	0	4	3	24_4_3	NA	NA	0	1	4.21267199516	None	None	None	None	1
3.0.1	2019_Mar_04_1228	s	s	2	4	SIC	12	4_2	4	2	3	4	23_3_4	1	2	1	0	0.496180057526	477.0	-173.0	483.0	-167.0	1
3.0.1	2019_Mar_04_1228	s	s	2	4	SIC	13	2_1	2	1	2	4	23_2_4	0	3	1	0	0.782130002975	503.0	-381.0	506.0	-377.0	1
3.0.1	2019_Mar_04_1228	s	s	2	4	SIC	14	ABS	0	0	4	2	24_4_2	NA	NA	0	1	4.78894996643	None	None	None	None	1
3.0.1	2019_Mar_04_1228	s	s	2	4	SIC	15	ABS	0	0	3	4	24_3_4	NA	NA	0	1	1.74331307411	None	None	None	None	1
3.0.1	2019_Mar_04_1228	s	s	2	4	SIC	16	1_3	1	3	4	2	23_4_2	3	1	1	0	0.410897016525	-198.0	-269.0	-206.0	-265.0	1
3.0.1	2019_Mar_04_1228	s	s	2	4	SIC	17	ABS	0	0	3	2	24_3_2	NA	NA	0	1	3.84524297714	None	None	None	None	1
3.0.1	2019_Mar_04_1228	s	s	2	4	SIC	18	ABS	0	0	3	2	24_3_2	NA	NA	0	1	5.50863194466	None	None	None	None	1
3.0.1	2019_Mar_04_1228	s	s	2	4	SIC	19	ABS	0	0	1	2	24_1_2	NA	NA	0	1	4.83800411224	None	None	None	None	1
3.0.1	2019_Mar_04_1228	s	s	2	4	SIC	20	ABS	0	0	2	3	24_2_3	NA	NA	0	1	4.39802503586	None	None	None	None	1
3.0.1	2019_Mar_04_1228	s	s	2	4	SIC	21	ABS	0	0	1	1	24_1_1	NA	NA	0	1	2.04574799538	None	None	None	None	1
3.0.1	2019_Mar_04_1228	s	s	2	4	SIC	22	ABS	0	0	1	2	24_1_2	NA	NA	0	1	5.59089779854	None	None	None	None	1
3.0.1	2019_Mar_04_1228	s	s	2	4	SIC	23	3_4	3	4	2	3	23_2_3	1	1	1	0	0.775517940521	120.0	-385.0	121.0	-379.0	1
3.0.1	2019_Mar_04_1228	s	s	2	4	SIC	24	ABS	0	0	2	2	24_2_2	NA	NA	0	1	4.57437896729	None	None	None	None	1
3.0.1	2019_Mar_04_1228	s	s	2	4	SIC	25	4_1	4	1	2	4	23_2_4	2	3	1	0	0.410886049271	-296.0	41.0	-287.0	42.0	1
3.0.1	2019_Mar_04_1228	s	s	2	4	SIC	26	2_4	2	4	4	4	23_4_4	2	0	1	0	0.415214061737	174.0	-276.0	182.0	-269.0	1
3.0.1	2019_Mar_04_1228	s	s	2	4	SIC	27	ABS	0	0	1	1	24_1_1	NA	NA	0	1	4.25684595108	None	None	None	None	1
3.0.1	2019_Mar_04_1228	s	s	2	4	SIC	28	ABS	0	0	3	2	24_3_2	NA	NA	0	1	4.77949500084	None	None	None	None	1
3.0.1	2019_Mar_04_1228	s	s	2	4	SIC	29	4_3	4	3	2	3	23_2_3	2	0	1	0	0.452552080154	321.0	-281.0	326.0	-284.0	1
3.0.1	2019_Mar_04_1228	s	s	2	4	SIC	30	ABS	0	0	3	1	24_3_1	NA	NA	0	1	3.19831299782	None	None	None	None	1
3.0.1	2019_Mar_04_1228	s	s	2	4	SIC	31	ABS	0	0	3	4	24_3_4	NA	NA	0	1	1.75046896935	None	None	None	None	1
3.0.1	2019_Mar_04_1228	s	s	2	4	SIC	32	ABS	0	0	2	2	24_2_2	NA	NA	0	1	1.98149895668	None	None	None	None	1
3.0.1	2019_Mar_04_1228	s	s	2	4	SIC	33	1_3	1	3	4	4	23_4_4	3	-1	1	0	0.443219900131	-297.0	369.0	-300.0	361.0	1
3.0.1	2019_Mar_04_1228	s	s	2	4	SIC	34	ABS	0	0	3	2	24_3_2	NA	NA	0	1	4.50669407845	None	None	None	None	1
3.0.1	2019_Mar_04_1228	s	s	2	4	SIC	35	ABS	0	0	3	1	24_3_1	NA	NA	0	1	3.07186603546	None	None	None	None	1
3.0.1	2019_Mar_04_1228	s	s	2	4	SIC	36	ABS	0	0	1	4	24_1_4	NA	NA	0	1	3.14610886574	None	None	None	None	1
3.0.1	2019_Mar_04_1228	s	s	2	4	SIC	37	3_1	3	1	2	2	23_2_2	1	1	1	0	0.457984924316	298.0	111.0	290.0	116.0	1
3.0.1	2019_Mar_04_1228	s	s	2	4	SIC	38	ABS	0	0	4	4	24_4_4	NA	NA	0	1	0.916595935822	None	None	None	None	1
3.0.1	2019_Mar_04_1228	s	s	2	4	SIC	39	ABS	0	0	4	1	24_4_1	NA	NA	0	1	0.745069026947	None	None	None	None	1
3.0.1	2019_Mar_04_1228	s	s	2	4	SIC	40	ABS	0	0	3	4	24_3_4	NA	NA	0	1	1.1637301445	None	None	None	None	1
3.0.1	2019_Mar_04_1228	s	s	2	4	SIC	41	3_4	3	4	1	1	23_1_1	2	3	1	0	0.505110025406	-90.0	338.0	-91.0	337.0	1
3.0.1	2019_Mar_04_1228	s	s	2	4	SIC	42	ABS	0	0	2	3	24_2_3	NA	NA	0	1	5.05660796165	None	None	None	None	1
3.0.1	2019_Mar_04_1228	s	s	2	4	SIC	43	2_3	2	3	3	1	23_3_1	1	2	1	0	0.437365055084	-277.0	208.0	-285.0	211.0	1
3.0.1	2019_Mar_04_1228	s	s	2	4	SIC	44	1_4	1	4	2	2	23_2_2	1	2	1	0	0.634343862534	-254.0	-239.0	-252.0	-241.0	1
3.0.1	2019_Mar_04_1228	s	s	2	4	SIC	45	3_4	3	4	2	4	23_2_4	1	0	1	0	0.557190895081	-349.0	366.0	-351.0	359.0	1
3.0.1	2019_Mar_04_1228	s	s	2	4	SIC	46	4_3	4	3	3	4	23_3_4	1	-1	1	0	0.352597951889	163.0	-4.0	167.0	-5.0	1
3.0.1	2019_Mar_04_1228	s	s	2	4	SIC	47	ABS	0	0	1	2	24_1_2	NA	NA	0	1	4.52773094177	None	None	None	None	1
3.0.1	2019_Mar_04_1228	s	s	2	4	SIC	48	ABS	0	0	4	4	24_4_4	NA	NA	0	1	0.768965005875	None	None	None	None	1
3.0.1	2019_Mar_04_1228	s	s	2	4	SIC	49	ABS	0	0	4	4	24_4_4	NA	NA	0	1	1.19901490211	None	None	None	None	1
3.0.1	2019_Mar_04_1228	s	s	2	4	SIC	50	4_1	4	1	2	1	23_2_1	2	0	1	0	0.457980155945	-1.0	-339.0	2.0	-339.0	1
3.0.1	2019_Mar_04_1228	s	s	2	4	SIC	51	ABS	0	0	4	1	24_4_1	NA	NA	0	1	1.87307500839	None	None	None	None	1
3.0.1	2019_Mar_04_1228	s	s	2	4	SIC	52	ABS	0	0	4	2	24_4_2	NA	NA	0	1	4.97898602486	None	None	None	None	1
3.0.1	2019_Mar_04_1228	s	s	2	4	SIC	53	ABS	0	0	2	2	24_2_2	NA	NA	0	1	4.04504179955	None	None	None	None	1
3.0.1	2019_Mar_04_1228	s	s	2	4	SIC	54	ABS	0	0	1	4	24_1_4	NA	NA	0	1	1.09797501564	None	None	None	None	1
3.0.1	2019_Mar_04_1228	s	s	2	4	SIC	55	ABS	0	0	2	4	24_2_4	NA	NA	0	1	2.95639514923	None	None	None	None	1
3.0.1	2019_Mar_04_1228	s	s	2	4	SIC	56	ABS	0	0	3	4	24_3_4	NA	NA	0	1	1.27463412285	None	None	None	None	1
3.0.1	2019_Mar_04_1228	s	s	2	4	SIC	57	4_3	4	3	4	2	23_4_2	0	1	0	1	3.78636407852	49.0	328.0	None	None	0
3.0.1	2019_Mar_04_1228	s	s	2	4	SIC	58	ABS	0	0	4	1	24_4_1	NA	NA	0	1	1.63410806656	None	None	None	None	1
3.0.1	2019_Mar_04_1228	s	s	2	4	SIC	59	3_3	3	3	1	4	23_1_4	2	-1	1	0	0.469707965851	248.0	62.0	252.0	60.0	1
3.0.1	2019_Mar_04_1228	s	s	2	4	SIC	60	ABS	0	0	4	1	24_4_1	NA	NA	0	1	0.966611146927	None	None	None	None	1
3.0.1	2019_Mar_04_1228	s	s	2	4	SIC	61	2_4	2	4	4	1	23_4_1	2	3	1	0	0.399137020111	329.0	24.0	328.0	28.0	1
3.0.1	2019_Mar_04_1228	s	s	2	4	SIC	62	4_2	4	2	1	2	23_1_2	3	0	1	0	0.352112054825	257.0	298.0	267.0	298.0	1
3.0.1	2019_Mar_04_1228	s	s	2	4	SIC	63	ABS	0	0	3	3	24_3_3	NA	NA	0	1	2.13976407051	None	None	None	None	1
3.0.1	2019_Mar_04_1228	s	s	2	4	SIC	64	4_1	4	1	2	3	23_2_3	2	2	1	0	0.393738031387	193.0	-181.0	184.0	-184.0	1
3.0.1	2019_Mar_04_1228	s	s	2	4	SIC	65	4_4	4	4	1	2	23_1_2	3	2	1	0	0.369035959244	509.0	-220.0	510.0	-214.0	1
3.0.1	2019_Mar_04_1228	s	s	2	4	SIC	66	ABS	0	0	4	3	24_4_3	NA	NA	0	1	4.35098600388	None	None	None	None	1
3.0.1	2019_Mar_04_1228	s	s	2	4	SIC	67	1_2	1	2	4	2	23_4_2	3	0	1	0	0.411385059357	249.0	-338.0	245.0	-338.0	1
3.0.1	2019_Mar_04_1228	s	s	2	4	SIC	68	2_1	2	1	3	2	23_3_2	1	1	1	0	0.469757080078	-125.0	-89.0	-118.0	-93.0	1
3.0.1	2019_Mar_04_1228	s	s	2	4	SIC	69	4_2	4	2	1	3	23_1_3	3	1	1	0	0.340374946594	347.0	48.0	352.0	55.0	1
3.0.1	2019_Mar_04_1228	s	s	2	4	SIC	70	4_3	4	3	3	3	23_3_3	1	0	1	0	0.399152994156	-451.0	18.0	-452.0	20.0	1
3.0.1	2019_Mar_04_1228	s	s	2	4	SIC	71	ABS	0	0	1	4	24_1_4	NA	NA	0	1	2.26921892166	None	None	None	None	1
3.0.1	2019_Mar_04_1228	s	s	2	4	SIC	72	4_4	4	4	2	2	23_2_2	2	2	1	0	0.345593929291	-506.0	169.0	-499.0	170.0	1
3.0.1	2019_Mar_04_1228	s	s	2	4	SIC	73	4_3	4	3	2	2	23_2_2	2	1	1	0	0.363878965378	-5.0	387.0	-11.0	392.0	1
3.0.1	2019_Mar_04_1228	s	s	2	4	SIC	74	ABS	0	0	4	1	24_4_1	NA	NA	0	1	1.95657801628	None	None	None	None	1
3.0.1	2019_Mar_04_1228	s	s	2	4	SIC	75	3_3	3	3	2	2	23_2_2	1	1	1	0	0.414930105209	-199.0	22.0	-204.0	26.0	1
3.0.1	2019_Mar_04_1228	s	s	2	4	SIC	76	ABS	0	0	1	1	24_1_1	NA	NA	0	1	2.2174050808	None	None	None	None	1
3.0.1	2019_Mar_04_1228	s	s	2	4	SIC	77	ABS	0	0	4	2	24_4_2	NA	NA	0	1	5.34405899048	None	None	None	None	1
3.0.1	2019_Mar_04_1228	s	s	2	4	SIC	78	1_3	1	3	2	1	23_2_1	1	2	1	0	0.787369012833	-115.0	147.0	-118.0	146.0	1
3.0.1	2019_Mar_04_1228	s	s	2	4	SIC	79	ABS	0	0	2	4	24_2_4	NA	NA	0	1	1.99869585037	None	None	None	None	1
3.0.1	2019_Mar_04_1228	s	s	2	4	SIC	80	ABS	0	0	1	1	24_1_1	NA	NA	0	1	2.2813270092	None	None	None	None	1
3.0.1	2019_Mar_04_1228	s	s	2	4	SIC	81	ABS	0	0	1	1	24_1_1	NA	NA	0	1	1.25093603134	None	None	None	None	1
3.0.1	2019_Mar_04_1228	s	s	2	4	SIC	82	ABS	0	0	4	4	24_4_4	NA	NA	0	1	1.00441288948	None	None	None	None	1
3.0.1	2019_Mar_04_1228	s	s	2	4	SIC	83	ABS	0	0	4	1	24_4_1	NA	NA	0	1	1.59882497787	None	None	None	None	1
3.0.1	2019_Mar_04_1228	s	s	2	4	SIC	84	ABS	0	0	4	1	24_4_1	NA	NA	0	1	1.41571784019	None	None	None	None	1
3.0.1	2019_Mar_04_1228	s	s	2	4	SIC	85	1_3	1	3	1	1	23_1_1	0	2	1	0	1.74480295181	382.0	47.0	388.0	47.0	1
3.0.1	2019_Mar_04_1228	s	s	2	4	SIC	86	2_4	2	4	1	4	23_1_4	-1	0	0	1	2.15153503418	-262.0	-320.0	None	None	0
3.0.1	2019_Mar_04_1228	s	s	2	4	SIC	87	ABS	0	0	1	3	24_1_3	NA	NA	0	1	3.76289010048	None	None	None	None	1
3.0.1	2019_Mar_04_1228	s	s	2	4	SIC	88	4_2	4	2	1	4	23_1_4	3	2	1	0	0.43736410141	-157.0	-245.0	-153.0	-241.0	1
3.0.1	2019_Mar_04_1228	s	s	2	4	SIC	89	3_1	3	1	1	2	23_1_2	2	1	1	0	0.446224927902	-396.0	34.0	-387.0	33.0	1
3.0.1	2019_Mar_04_1228	s	s	2	4	SIC	90	1_2	1	2	4	4	23_4_4	3	2	1	0	0.393166065216	-481.0	-165.0	-484.0	-162.0	1
3.0.1	2019_Mar_04_1228	s	s	2	4	SIC	91	ABS	0	0	2	2	24_2_2	NA	NA	0	1	3.80329489708	None	None	None	None	1
3.0.1	2019_Mar_04_1228	s	s	2	4	SIC	92	ABS	0	0	2	3	24_2_3	NA	NA	0	1	2.93963694572	None	None	None	None	1
3.0.1	2019_Mar_04_1228	s	s	2	4	SIC	93	ABS	0	0	1	3	24_1_3	NA	NA	0	1	2.72484493256	None	None	None	None	1
3.0.1	2019_Mar_04_1228	s	s	2	4	SIC	94	ABS	0	0	4	3	24_4_3	NA	NA	0	1	2.15161299706	None	None	None	None	1
3.0.1	2019_Mar_04_1228	s	s	2	4	SIC	95	1_4	1	4	2	4	23_2_4	1	0	0	1	2.08396196365	342.0	-292.0	None	None	0
3.0.1	2019_Mar_04_1228	s	s	2	4	SIC	96	3_4	3	4	4	1	23_4_1	-1	3	1	0	0.704988002777	278.0	386.0	285.0	386.0	1
3.0.1	2019_Mar_04_1228	s	s	2	4	SIC	97	3_1	3	1	1	1	23_1_1	2	0	1	0	0.505231142044	-209.0	39.0	-216.0	46.0	1
3.0.1	2019_Mar_04_1228	s	s	2	4	SIC	98	1_1	1	1	2	2	23_2_2	1	1	1	0	0.991283178329	-211.0	155.0	-210.0	151.0	1
3.0.1	2019_Mar_04_1228	s	s	2	4	SIC	99	ABS	0	0	1	1	24_1_1	NA	NA	0	1	4.84785604477	None	None	None	None	1
3.0.1	2019_Mar_04_1228	s	s	2	4	SIC	100	2_3	2	3	1	1	23_1_1	-1	2	1	0	0.810819149017	-294.0	86.0	-294.0	89.0	1
3.0.1	2019_Mar_04_1228	s	s	2	4	SIC	101	3_4	3	4	3	3	23_3_3	0	1	1	0	0.575597047806	-188.0	363.0	-187.0	362.0	1
3.0.1	2019_Mar_04_1228	s	s	2	4	SIC	102	4_1	4	1	4	2	23_4_2	0	1	1	0	1.51648688316	-323.0	404.0	-328.0	400.0	1
3.0.1	2019_Mar_04_1228	s	s	2	4	SIC	103	2_1	2	1	2	3	23_2_3	0	2	1	0	1.12835288048	78.0	-51.0	84.0	-55.0	1
3.0.1	2019_Mar_04_1228	s	s	2	4	SIC	104	3_2	3	2	1	3	23_1_3	2	1	1	0	0.46092915535	-347.0	236.0	-350.0	244.0	1
3.0.1	2019_Mar_04_1228	s	s	2	4	SIC	105	ABS	0	0	1	3	24_1_3	NA	NA	0	1	3.54351782799	None	None	None	None	1
3.0.1	2019_Mar_04_1228	s	s	2	4	SIC	106	1_4	1	4	3	4	23_3_4	2	0	1	0	0.622665882111	-299.0	-362.0	-298.0	-365.0	1
3.0.1	2019_Mar_04_1228	s	s	2	4	SIC	107	ABS	0	0	3	1	24_3_1	NA	NA	0	1	2.28456687927	None	None	None	None	1
3.0.1	2019_Mar_04_1228	s	s	2	4	SIC	108	3_3	3	3	2	1	23_2_1	1	2	1	0	0.731369018555	266.0	-275.0	267.0	-284.0	1
3.0.1	2019_Mar_04_1228	s	s	2	4	SIC	109	3_4	3	4	2	2	23_2_2	1	2	1	0	0.392835140228	-102.0	110.0	-100.0	109.0	1
3.0.1	2019_Mar_04_1228	s	s	2	4	SIC	110	1_1	1	1	4	3	23_4_3	3	2	1	0	0.399298906326	-412.0	-153.0	-416.0	-160.0	1
3.0.1	2019_Mar_04_1228	s	s	2	4	SIC	111	ABS	0	0	1	1	24_1_1	NA	NA	0	1	3.20862388611	None	None	None	None	1
3.0.1	2019_Mar_04_1228	s	s	2	4	SIC	112	ABS	0	0	3	3	24_3_3	NA	NA	0	1	3.32479095459	None	None	None	None	1
3.0.1	2019_Mar_04_1228	s	s	2	4	SIC	113	ABS	0	0	1	4	24_1_4	NA	NA	0	1	3.08875083923	None	None	None	None	1
3.0.1	2019_Mar_04_1228	s	s	2	4	SIC	114	ABS	0	0	2	4	24_2_4	NA	NA	0	1	4.22772192955	None	None	None	None	1
3.0.1	2019_Mar_04_1228	s	s	2	4	SIC	115	ABS	0	0	3	3	24_3_3	NA	NA	0	1	3.28616595268	None	None	None	None	1
3.0.1	2019_Mar_04_1228	s	s	2	4	SIC	116	4_4	4	4	2	1	23_2_1	2	3	1	0	0.431401014328	318.0	219.0	326.0	219.0	1
3.0.1	2019_Mar_04_1228	s	s	2	4	SIC	117	4_1	4	1	1	1	23_1_1	3	0	1	0	0.343284130096	-205.0	357.0	-204.0	362.0	1
3.0.1	2019_Mar_04_1228	s	s	2	4	SIC	118	ABS	0	0	3	4	24_3_4	NA	NA	0	1	1.76339697838	None	None	None	None	1
3.0.1	2019_Mar_04_1228	s	s	2	4	SIC	119	2_2	2	2	4	3	23_4_3	2	1	1	0	0.379518985748	-228.0	46.0	-220.0	45.0	1
3.0.1	2019_Mar_04_1228	s	s	2	4	SIC	120	ABS	0	0	4	3	24_4_3	NA	NA	0	1	2.95777702332	None	None	None	None	1
3.0.1	2019_Mar_04_1228	s	s	2	4	SIC	121	ABS	0	0	3	2	24_3_2	NA	NA	0	1	2.90726089478	None	None	None	None	1
3.0.1	2019_Mar_04_1228	s	s	2	4	SIC	122	ABS	0	0	2	4	24_2_4	NA	NA	0	1	2.80322599411	None	None	None	None	1
3.0.1	2019_Mar_04_1228	s	s	2	4	SIC	123	3_3	3	3	3	2	23_3_2	0	1	1	0	2.36869001389	302.0	61.0	306.0	62.0	1
3.0.1	2019_Mar_04_1228	s	s	2	4	SIC	124	3_1	3	1	1	4	23_1_4	2	3	1	0	0.469728946686	-65.0	-120.0	-69.0	-117.0	1
3.0.1	2019_Mar_04_1228	s	s	2	4	SIC	125	ABS	0	0	3	4	24_3_4	NA	NA	0	1	2.75655007362	None	None	None	None	1
3.0.1	2019_Mar_04_1228	s	s	2	4	SIC	126	ABS	0	0	2	4	24_2_4	NA	NA	0	1	3.96864891052	None	None	None	None	1
3.0.1	2019_Mar_04_1228	s	s	2	4	SIC	127	3_2	3	2	2	4	23_2_4	1	2	1	0	0.458028078079	423.0	-132.0	419.0	-131.0	1
3.0.1	2019_Mar_04_1228	s	s	2	4	SIC	128	1_1	1	1	3	1	23_3_1	2	0	1	0	0.672627925873	-368.0	338.0	-365.0	333.0	1
3.0.1	2019_Mar_04_1228	s	s	2	4	SIC	129	4_2	4	2	2	3	23_2_3	2	1	1	0	0.36906504631	-186.0	115.0	-194.0	116.0	1
3.0.1	2019_Mar_04_1228	s	s	2	4	SIC	130	ABS	0	0	3	3	24_3_3	NA	NA	0	1	3.0807299614	None	None	None	None	1
3.0.1	2019_Mar_04_1228	s	s	2	4	SIC	131	ABS	0	0	3	4	24_3_4	NA	NA	0	1	2.26039505005	None	None	None	None	1
3.0.1	2019_Mar_04_1228	s	s	2	4	SIC	132	ABS	0	0	3	3	24_3_3	NA	NA	0	1	2.88076496124	None	None	None	None	1
3.0.1	2019_Mar_04_1228	s	s	2	4	SIC	133	4_4	4	4	4	3	23_4_3	0	1	1	0	1.09822583199	-528.0	16.0	-534.0	13.0	1
3.0.1	2019_Mar_04_1228	s	s	2	4	SIC	134	ABS	0	0	3	4	24_3_4	NA	NA	0	1	1.93889117241	None	None	None	None	1
3.0.1	2019_Mar_04_1228	s	s	2	4	SIC	135	ABS	0	0	4	3	24_4_3	NA	NA	0	1	3.04551887512	None	None	None	None	1
3.0.1	2019_Mar_04_1228	s	s	2	4	SIC	136	ABS	0	0	2	3	24_2_3	NA	NA	0	1	3.31594395638	None	None	None	None	1
3.0.1	2019_Mar_04_1228	s	s	2	4	SIC	137	4_1	4	1	1	4	23_1_4	3	3	1	0	0.458025932312	324.0	159.0	328.0	156.0	1
3.0.1	2019_Mar_04_1228	s	s	2	4	SIC	138	3_2	3	2	1	1	23_1_1	2	-1	1	0	0.634406089783	6.0	376.0	8.0	378.0	1
3.0.1	2019_Mar_04_1228	s	s	2	4	SIC	139	3_3	3	3	2	3	23_2_3	1	0	1	0	0.48149394989	-350.0	255.0	-346.0	259.0	1
3.0.1	2019_Mar_04_1228	s	s	2	4	SIC	140	2_4	2	4	3	4	23_3_4	1	0	1	0	2.06808400154	513.0	-335.0	511.0	-333.0	1
3.0.1	2019_Mar_04_1228	s	s	2	4	SIC	141	ABS	0	0	2	3	24_2_3	NA	NA	0	1	3.32805490494	None	None	None	None	1
3.0.1	2019_Mar_04_1228	s	s	2	4	SIC	142	1_1	1	1	1	3	23_1_3	0	2	1	0	0.787364959717	-381.0	255.0	-386.0	252.0	1
3.0.1	2019_Mar_04_1228	s	s	2	4	SIC	143	ABS	0	0	1	4	24_1_4	NA	NA	0	1	3.90397000313	None	None	None	None	1
3.0.1	2019_Mar_04_1228	s	s	2	4	SIC	144	ABS	0	0	3	2	24_3_2	NA	NA	0	1	3.14245414734	None	None	None	None	1
3.0.1	2019_Mar_04_1228	s	s	2	4	SIC	145	3_3	3	3	4	1	23_4_1	-1	2	1	0	0.430755138397	95.0	232.0	96.0	232.0	1
3.0.1	2019_Mar_04_1228	s	s	2	4	SIC	146	ABS	0	0	3	3	24_3_3	NA	NA	0	1	2.68083000183	None	None	None	None	1
3.0.1	2019_Mar_04_1228	s	s	2	4	SIC	147	4_3	4	3	1	2	23_1_2	3	1	1	0	0.507927179337	476.0	-331.0	480.0	-337.0	1
3.0.1	2019_Mar_04_1228	s	s	2	4	SIC	148	ABS	0	0	1	1	24_1_1	NA	NA	0	1	2.39856004715	None	None	None	None	1
3.0.1	2019_Mar_04_1228	s	s	2	4	SIC	149	4_3	4	3	1	1	23_1_1	3	2	1	0	0.352493047714	343.0	-199.0	344.0	-207.0	1
3.0.1	2019_Mar_04_1228	s	s	2	4	SIC	150	1_2	1	2	1	1	23_1_1	0	-1	1	0	2.4539539814	-53.0	247.0	-47.0	252.0	1
3.0.1	2019_Mar_04_1228	s	s	2	4	SIC	151	ABS	0	0	2	2	24_2_2	NA	NA	0	1	4.03987908363	None	None	None	None	1
3.0.1	2019_Mar_04_1228	s	s	2	4	SIC	152	ABS	0	0	1	3	24_1_3	NA	NA	0	1	2.97486901283	None	None	None	None	1
3.0.1	2019_Mar_04_1228	s	s	2	4	SIC	153	1_1	1	1	3	2	23_3_2	2	1	1	0	0.458009004593	33.0	240.0	36.0	239.0	1
3.0.1	2019_Mar_04_1228	s	s	2	4	SIC	154	4_4	4	4	1	1	23_1_1	3	3	1	0	0.393123865128	500.0	126.0	509.0	123.0	1
3.0.1	2019_Mar_04_1228	s	s	2	4	SIC	155	3_3	3	3	4	4	23_4_4	-1	-1	1	0	0.469715118408	331.0	307.0	338.0	310.0	1
3.0.1	2019_Mar_04_1228	s	s	2	4	SIC	156	ABS	0	0	4	2	24_4_2	NA	NA	0	1	3.92748212814	None	None	None	None	1
3.0.1	2019_Mar_04_1228	s	s	2	4	SIC	157	3_2	3	2	2	2	23_2_2	1	0	1	0	0.481617927551	-272.0	216.0	-280.0	216.0	1
3.0.1	2019_Mar_04_1228	s	s	2	4	SIC	158	2_4	2	4	3	3	23_3_3	1	1	1	0	2.09671115875	-309.0	-411.0	-319.0	-405.0	1
3.0.1	2019_Mar_04_1228	s	s	2	4	SIC	159	ABS	0	0	2	4	24_2_4	NA	NA	0	1	1.72328090668	None	None	None	None	1
3.0.1	2019_Mar_04_1228	s	s	2	4	SIC	160	4_4	4	4	3	1	23_3_1	1	3	1	0	0.399179935455	34.0	-354.0	32.0	-360.0	1
3.0.1	2019_Mar_04_1228	s	s	2	4	SIC	161	ABS	0	0	3	4	24_3_4	NA	NA	0	1	1.54003596306	None	None	None	None	1
3.0.1	2019_Mar_04_1228	s	s	2	4	SIC	162	ABS	0	0	4	4	24_4_4	NA	NA	0	1	1.2386200428	None	None	None	None	1
3.0.1	2019_Mar_04_1228	s	s	2	4	SIC	163	ABS	0	0	4	4	24_4_4	NA	NA	0	1	1.11655783653	None	None	None	None	1
3.0.1	2019_Mar_04_1228	s	s	2	4	SIC	164	3_1	3	1	2	1	23_2_1	1	0	1	0	0.568008184433	380.0	-110.0	388.0	-111.0	1
3.0.1	2019_Mar_04_1228	s	s	2	4	SIC	165	ABS	0	0	4	2	24_4_2	NA	NA	0	1	6.119328022	None	None	None	None	1
3.0.1	2019_Mar_04_1228	s	s	2	4	SIC	166	ABS	0	0	4	3	24_4_3	NA	NA	0	1	5.34179997444	None	None	None	None	1
3.0.1	2019_Mar_04_1228	s	s	2	4	SIC	167	3_4	3	4	4	2	23_4_2	-1	2	1	0	0.6578810215	507.0	-283.0	507.0	-282.0	1
3.0.1	2019_Mar_04_1228	s	s	2	4	SIC	168	4_1	4	1	4	4	23_4_4	0	3	1	0	0.427574872971	-281.0	65.0	-279.0	62.0	1
3.0.1	2019_Mar_04_1228	s	s	2	4	SIC	169	ABS	0	0	4	1	24_4_1	NA	NA	0	1	1.84579801559	None	None	None	None	1
3.0.1	2019_Mar_04_1228	s	s	2	4	SIC	170	ABS	0	0	3	2	24_3_2	NA	NA	0	1	4.12788200378	None	None	None	None	1
3.0.1	2019_Mar_04_1228	s	s	2	4	SIC	171	ABS	0	0	4	3	24_4_3	NA	NA	0	1	3.52763700485	None	None	None	None	1
3.0.1	2019_Mar_04_1228	s	s	2	4	SIC	172	ABS	0	0	3	4	24_3_4	NA	NA	0	1	1.52822995186	None	None	None	None	1
3.0.1	2019_Mar_04_1228	s	s	2	4	SIC	173	1_4	1	4	4	2	23_4_2	3	2	1	0	0.599139928818	57.0	71.0	49.0	75.0	1
3.0.1	2019_Mar_04_1228	s	s	2	4	SIC	174	ABS	0	0	3	4	24_3_4	NA	NA	0	1	1.68113589287	None	None	None	None	1
3.0.1	2019_Mar_04_1228	s	s	2	4	SIC	175	ABS	0	0	1	2	24_1_2	NA	NA	0	1	4.73029780388	None	None	None	None	1
3.0.1	2019_Mar_04_1228	s	s	2	4	SIC	176	ABS	0	0	4	2	24_4_2	NA	NA	0	1	4.30908513069	None	None	None	None	1
3.0.1	2019_Mar_04_1228	s	s	2	4	SIC	177	ABS	0	0	4	4	24_4_4	NA	NA	0	1	1.50103092194	None	None	None	None	1
3.0.1	2019_Mar_04_1228	s	s	2	4	SIC	178	1_2	1	2	2	1	23_2_1	1	-1	1	0	1.86921000481	-465.0	-384.0	-462.0	-385.0	1
3.0.1	2019_Mar_04_1228	s	s	2	4	SIC	179	2_3	2	3	2	2	23_2_2	0	1	1	0	1.52125310898	81.0	142.0	74.0	141.0	1
3.0.1	2019_Mar_04_1228	s	s	2	4	SIC	180	ABS	0	0	2	4	24_2_4	NA	NA	0	1	2.68517994881	None	None	None	None	1
3.0.1	2019_Mar_04_1228	s	s	2	4	SIC	181	2_3	2	3	1	4	23_1_4	-1	-1	1	0	1.02650594711	-462.0	-96.0	-466.0	-93.0	1
3.0.1	2019_Mar_04_1228	s	s	2	4	SIC	182	4_4	4	4	1	4	23_1_4	3	0	1	0	0.411034107208	188.0	62.0	187.0	65.0	1
3.0.1	2019_Mar_04_1228	s	s	2	4	SIC	183	ABS	0	0	2	3	24_2_3	NA	NA	0	1	2.38967585564	None	None	None	None	1
3.0.1	2019_Mar_04_1228	s	s	2	4	SIC	184	3_2	3	2	2	1	23_2_1	1	-1	1	0	0.575583934784	-334.0	43.0	-328.0	38.0	1
3.0.1	2019_Mar_04_1228	s	s	2	4	SIC	185	3_3	3	3	4	2	23_4_2	-1	1	1	0	0.422718048096	-475.0	-194.0	-473.0	-198.0	1
3.0.1	2019_Mar_04_1228	s	s	2	4	SIC	186	ABS	0	0	1	1	24_1_1	NA	NA	0	1	2.41417503357	None	None	None	None	1
3.0.1	2019_Mar_04_1228	s	s	2	4	SIC	187	3_4	3	4	1	3	23_1_3	2	1	1	0	0.900073051453	138.0	-293.0	134.0	-300.0	1
3.0.1	2019_Mar_04_1228	s	s	2	4	SIC	188	ABS	0	0	4	2	24_4_2	NA	NA	0	1	3.24540281296	None	None	None	None	1
3.0.1	2019_Mar_04_1228	s	s	2	4	SIC	189	ABS	0	0	4	3	24_4_3	NA	NA	0	1	2.902987957	None	None	None	None	1
3.0.1	2019_Mar_04_1228	s	s	2	4	SIC	190	ABS	0	0	2	2	24_2_2	NA	NA	0	1	3.15910792351	None	None	None	None	1
3.0.1	2019_Mar_04_1228	s	s	2	4	SIC	191	ABS	0	0	1	3	24_1_3	NA	NA	0	1	3.30419707298	None	None	None	None	1
3.0.1	2019_Mar_04_1228	s	s	2	4	SIC	192	1_2	1	2	3	4	23_3_4	2	2	1	0	0.469741821289	184.0	-16.0	184.0	-16.0	1
3.0.1	2019_Mar_04_1228	s	s	2	4	SIC	193	3_4	3	4	4	3	23_4_3	-1	1	1	0	0.657931089401	56.0	-382.0	47.0	-386.0	1
3.0.1	2019_Mar_04_1228	s	s	2	4	SIC	194	ABS	0	0	3	1	24_3_1	NA	NA	0	1	1.97514510155	None	None	None	None	1
3.0.1	2019_Mar_04_1228	s	s	2	4	SIC	195	1_4	1	4	1	2	23_1_2	0	2	1	0	0.619803905487	-214.0	-1.0	-214.0	-8.0	1
3.0.1	2019_Mar_04_1228	s	s	2	4	SIC	196	ABS	0	0	2	4	24_2_4	NA	NA	0	1	1.71635293961	None	None	None	None	1
3.0.1	2019_Mar_04_1228	s	s	2	4	SIC	197	2_4	2	4	4	3	23_4_3	2	1	1	0	0.458064079285	-177.0	-239.0	-179.0	-239.0	1
3.0.1	2019_Mar_04_1228	s	s	2	4	SIC	198	ABS	0	0	2	1	24_2_1	NA	NA	0	1	2.22925686836	None	None	None	None	1
3.0.1	2019_Mar_04_1228	s	s	2	4	SIC	199	ABS	0	0	2	2	24_2_2	NA	NA	0	1	3.41436004639	None	None	None	None	1
3.0.1	2019_Mar_04_1228	s	s	2	4	SIC	200	ABS	0	0	4	1	24_4_1	NA	NA	0	1	1.52823805809	None	None	None	None	1
3.0.1	2019_Mar_04_1228	s	s	2	4	SIC	201	4_4	4	4	3	3	23_3_3	1	1	1	0	0.36881685257	270.0	79.0	273.0	85.0	1
3.0.1	2019_Mar_04_1228	s	s	2	4	SIC	202	ABS	0	0	2	1	24_2_1	NA	NA	0	1	2.69603800774	None	None	None	None	1
3.0.1	2019_Mar_04_1228	s	s	2	4	SIC	203	4_2	4	2	4	1	23_4_1	0	-1	0	1	0.869590997696	-504.0	-281.0	None	None	0
3.0.1	2019_Mar_04_1228	s	s	2	4	SIC	204	ABS	0	0	1	3	24_1_3	NA	NA	0	1	3.28066706657	None	None	None	None	1
3.0.1	2019_Mar_04_1228	s	s	2	4	SIC	205	ABS	0	0	4	3	24_4_3	NA	NA	0	1	3.12108397484	None	None	None	None	1
3.0.1	2019_Mar_04_1228	s	s	2	4	SIC	206	2_1	2	1	4	4	23_4_4	2	3	1	0	0.678106069565	219.0	348.0	211.0	350.0	1
3.0.1	2019_Mar_04_1228	s	s	2	4	SIC	207	ABS	0	0	3	1	24_3_1	NA	NA	0	1	1.82896590233	None	None	None	None	1
3.0.1	2019_Mar_04_1228	s	s	2	4	SIC	208	4_3	4	3	4	4	23_4_4	0	-1	1	0	1.16385102272	-38.0	406.0	-34.0	400.0	1
3.0.1	2019_Mar_04_1228	s	s	2	4	SIC	209	4_4	4	4	2	3	23_2_3	2	1	1	0	0.463792085648	-488.0	73.0	-485.0	80.0	1
3.0.1	2019_Mar_04_1228	s	s	2	4	SIC	210	4_3	4	3	1	3	23_1_3	3	0	1	0	0.399532079697	111.0	54.0	112.0	57.0	1
3.0.1	2019_Mar_04_1228	s	s	2	4	SIC	211	ABS	0	0	3	3	24_3_3	NA	NA	0	1	2.81398010254	None	None	None	None	1
3.0.1	2019_Mar_04_1228	s	s	2	4	SIC	212	ABS	0	0	1	2	24_1_2	NA	NA	0	1	4.68318295479	None	None	None	None	1
3.0.1	2019_Mar_04_1228	s	s	2	4	SIC	213	ABS	0	0	4	2	24_4_2	NA	NA	0	1	2.63390398026	None	None	None	None	1
3.0.1	2019_Mar_04_1228	s	s	2	4	SIC	214	ABS	0	0	1	2	24_1_2	NA	NA	0	1	1.88626003265	None	None	None	None	1
3.0.1	2019_Mar_04_1228	s	s	2	4	SIC	215	ABS	0	0	2	1	24_2_1	NA	NA	0	1	2.45216298103	None	None	None	None	1
3.0.1	2019_Mar_04_1228	s	s	2	4	SIC	216	ABS	0	0	1	2	24_1_2	NA	NA	0	1	4.32072401047	None	None	None	None	1
3.0.1	2019_Mar_04_1228	s	s	2	4	SIC	217	ABS	0	0	4	2	24_4_2	NA	NA	0	1	2.8484120369	None	None	None	None	1
3.0.1	2019_Mar_04_1228	s	s	2	4	SIC	218	ABS	0	0	2	4	24_2_4	NA	NA	0	1	1.95169305801	None	None	None	None	1
3.0.1	2019_Mar_04_1228	s	s	2	4	SIC	219	2_3	2	3	4	1	23_4_1	2	2	1	0	0.458014011383	433.0	-216.0	437.0	-213.0	1
3.0.1	2019_Mar_04_1228	s	s	2	4	SIC	220	3_4	3	4	1	4	23_1_4	2	0	1	0	0.857865095139	92.0	-273.0	92.0	-282.0	1
3.0.1	2019_Mar_04_1228	s	s	2	4	SIC	221	1_3	1	3	1	4	23_1_4	0	-1	1	0	0.958461999893	86.0	310.0	83.0	299.0	1
3.0.1	2019_Mar_04_1228	s	s	2	4	SIC	222	2_3	2	3	3	2	23_3_2	1	1	1	0	0.470132112503	116.0	255.0	115.0	254.0	1
3.0.1	2019_Mar_04_1228	s	s	2	4	SIC	223	ABS	0	0	1	2	24_1_2	NA	NA	0	1	6.05623793602	None	None	None	None	1
3.0.1	2019_Mar_04_1228	s	s	2	4	SIC	224	ABS	0	0	4	3	24_4_3	NA	NA	0	1	2.82715797424	None	None	None	None	1
3.0.1	2019_Mar_04_1228	s	s	2	4	SIC	225	ABS	0	0	2	1	24_2_1	NA	NA	0	1	2.52805781364	None	None	None	None	1
3.0.1	2019_Mar_04_1228	s	s	2	4	SIC	226	ABS	0	0	4	4	24_4_4	NA	NA	0	1	1.48125004768	None	None	None	None	1
3.0.1	2019_Mar_04_1228	s	s	2	4	SIC	227	ABS	0	0	1	1	24_1_1	NA	NA	0	1	2.27448797226	None	None	None	None	1
3.0.1	2019_Mar_04_1228	s	s	2	4	SIC	228	ABS	0	0	3	1	24_3_1	NA	NA	0	1	1.56228399277	None	None	None	None	1
3.0.1	2019_Mar_04_1228	s	s	2	4	SIC	229	ABS	0	0	3	3	24_3_3	NA	NA	0	1	2.60132908821	None	None	None	None	1
3.0.1	2019_Mar_04_1228	s	s	2	4	SIC	230	1_3	1	3	3	2	23_3_2	2	1	1	0	0.569581031799	-451.0	332.0	-455.0	330.0	1
3.0.1	2019_Mar_04_1228	s	s	2	4	SIC	231	ABS	0	0	4	4	24_4_4	NA	NA	0	1	1.18719696999	None	None	None	None	1
3.0.1	2019_Mar_04_1228	s	s	2	4	SIC	232	3_1	3	1	2	4	23_2_4	1	3	1	0	0.450121164322	330.0	-55.0	326.0	-57.0	1
3.0.1	2019_Mar_04_1228	s	s	2	4	SIC	233	ABS	0	0	3	2	24_3_2	NA	NA	0	1	3.08067703247	None	None	None	None	1
3.0.1	2019_Mar_04_1228	s	s	2	4	SIC	234	1_1	1	1	1	4	23_1_4	0	3	1	0	0.557170152664	476.0	14.0	479.0	11.0	1
3.0.1	2019_Mar_04_1228	s	s	2	4	SIC	235	3_1	3	1	3	3	23_3_3	0	2	1	0	1.02255606651	-540.0	-165.0	-537.0	-162.0	1
3.0.1	2019_Mar_04_1228	s	s	2	4	SIC	236	ABS	0	0	3	3	24_3_3	NA	NA	0	1	3.41006493568	None	None	None	None	1
3.0.1	2019_Mar_04_1228	s	s	2	4	SIC	237	ABS	0	0	2	2	24_2_2	NA	NA	0	1	4.71551203728	None	None	None	None	1
3.0.1	2019_Mar_04_1228	s	s	2	4	SIC	238	ABS	0	0	3	4	24_3_4	NA	NA	0	1	1.03961396217	None	None	None	None	1
3.0.1	2019_Mar_04_1228	s	s	2	4	SIC	239	1_1	1	1	4	4	23_4_4	3	3	1	0	0.41085100174	464.0	-41.0	461.0	-44.0	1
3.0.1	2019_Mar_04_1228	s	s	2	4	SIC	240	ABS	0	0	4	1	24_4_1	NA	NA	0	1	1.12840414047	None	None	None	None	1
3.0.1	2019_Mar_04_1228	s	s	2	4	SIC	241	ABS	0	0	3	4	24_3_4	NA	NA	0	1	1.22922492027	None	None	None	None	1
3.0.1	2019_Mar_04_1228	s	s	2	4	SIC	242	ABS	0	0	3	4	24_3_4	NA	NA	0	1	1.78990197182	None	None	None	None	1
3.0.1	2019_Mar_04_1228	s	s	2	4	SIC	243	ABS	0	0	2	1	24_2_1	NA	NA	0	1	4.27413392067	None	None	None	None	1
3.0.1	2019_Mar_04_1228	s	s	2	4	SIC	244	ABS	0	0	1	1	24_1_1	NA	NA	0	1	1.8393239975	None	None	None	None	1
3.0.1	2019_Mar_04_1228	s	s	2	4	SIC	245	2_2	2	2	4	4	23_4_4	2	2	1	0	0.392559051514	-418.0	298.0	-413.0	293.0	1
3.0.1	2019_Mar_04_1228	s	s	2	4	SIC	246	ABS	0	0	1	1	24_1_1	NA	NA	0	1	2.5583460331	None	None	None	None	1
3.0.1	2019_Mar_04_1228	s	s	2	4	SIC	247	ABS	0	0	3	2	24_3_2	NA	NA	0	1	3.66234588623	None	None	None	None	1
3.0.1	2019_Mar_04_1228	s	s	2	4	SIC	248	ABS	0	0	4	4	24_4_4	NA	NA	0	1	1.19899106026	None	None	None	None	1
3.0.1	2019_Mar_04_1228	s	s	2	4	SIC	249	ABS	0	0	2	3	24_2_3	NA	NA	0	1	2.83382701874	None	None	None	None	1
3.0.1	2019_Mar_04_1228	s	s	2	4	SIC	250	4_2	4	2	3	3	23_3_3	1	1	1	0	0.399173021317	-461.0	287.0	-459.0	281.0	1
3.0.1	2019_Mar_04_1228	s	s	2	4	SIC	251	ABS	0	0	3	1	24_3_1	NA	NA	0	1	2.41040802002	None	None	None	None	1
3.0.1	2019_Mar_04_1228	s	s	2	4	SIC	252	ABS	0	0	1	3	24_1_3	NA	NA	0	1	2.52801394463	None	None	None	None	1
3.0.1	2019_Mar_04_1228	s	s	2	4	SIC	253	3_2	3	2	4	3	23_4_3	-1	1	1	0	0.425580978394	523.0	-1.0	526.0	2.0	1
3.0.1	2019_Mar_04_1228	s	s	2	4	SIC	254	1_3	1	3	4	3	23_4_3	3	0	1	0	0.375702142715	33.0	94.0	34.0	91.0	1
3.0.1	2019_Mar_04_1228	s	s	2	4	SIC	255	2_3	2	3	2	1	23_2_1	0	2	1	0	0.875039100647	308.0	-7.0	311.0	-6.0	1
3.0.1	2019_Mar_04_1228	s	s	2	4	SIC	256	2_2	2	2	4	2	23_4_2	2	0	1	0	0.457946062088	456.0	-370.0	449.0	-362.0	1
3.0.1	2019_Mar_04_1228	s	s	2	4	SIC	257	1_2	1	2	4	3	23_4_3	3	1	1	0	0.363923072815	376.0	130.0	376.0	130.0	1
3.0.1	2019_Mar_04_1228	s	s	2	4	SIC	258	ABS	0	0	1	4	24_1_4	NA	NA	0	1	2.26035499573	None	None	None	None	1
3.0.1	2019_Mar_04_1228	s	s	2	4	SIC	259	ABS	0	0	3	2	24_3_2	NA	NA	0	1	3.82167387009	None	None	None	None	1
3.0.1	2019_Mar_04_1228	s	s	2	4	SIC	260	2_2	2	2	3	3	23_3_3	1	1	1	0	0.469670057297	-177.0	-35.0	-173.0	-36.0	1
3.0.1	2019_Mar_04_1228	s	s	2	4	SIC	261	ABS	0	0	1	2	24_1_2	NA	NA	0	1	3.95111203194	None	None	None	None	1
3.0.1	2019_Mar_04_1228	s	s	2	4	SIC	262	2_4	2	4	1	1	23_1_1	-1	3	1	0	0.646198987961	-353.0	347.0	-359.0	347.0	1
3.0.1	2019_Mar_04_1228	s	s	2	4	SIC	263	ABS	0	0	3	1	24_3_1	NA	NA	0	1	1.69277715683	None	None	None	None	1
3.0.1	2019_Mar_04_1228	s	s	2	4	SIC	264	ABS	0	0	3	1	24_3_1	NA	NA	0	1	1.46291995049	None	None	None	None	1
3.0.1	2019_Mar_04_1228	s	s	2	4	SIC	265	ABS	0	0	2	3	24_2_3	NA	NA	0	1	3.23403501511	None	None	None	None	1
3.0.1	2019_Mar_04_1228	s	s	2	4	SIC	266	ABS	0	0	4	1	24_4_1	NA	NA	0	1	0.947154998779	None	None	None	None	1
3.0.1	2019_Mar_04_1228	s	s	2	4	SIC	267	ABS	0	0	3	1	24_3_1	NA	NA	0	1	1.57080507278	None	None	None	None	1
3.0.1	2019_Mar_04_1228	s	s	2	4	SIC	268	ABS	0	0	1	2	24_1_2	NA	NA	0	1	3.52040886879	None	None	None	None	1
3.0.1	2019_Mar_04_1228	s	s	2	4	SIC	269	2_2	2	2	1	3	23_1_3	-1	1	0	1	3.28100705147	-304.0	319.0	None	None	0
3.0.1	2019_Mar_04_1228	s	s	2	4	SIC	270	4_1	4	1	3	3	23_3_3	1	2	1	0	0.461860179901	75.0	-14.0	79.0	-19.0	1
3.0.1	2019_Mar_04_1228	s	s	2	4	SIC	271	ABS	0	0	3	1	24_3_1	NA	NA	0	1	2.54372906685	None	None	None	None	1
3.0.1	2019_Mar_04_1228	s	s	2	4	SIC	272	1_2	1	2	4	1	23_4_1	3	-1	1	0	0.469635009766	0.0	-154.0	-4.0	-161.0	1
3.0.1	2019_Mar_04_1228	s	s	2	4	SIC	273	3_2	3	2	3	4	23_3_4	0	2	1	0	0.73140501976	-95.0	199.0	-92.0	201.0	1
3.0.1	2019_Mar_04_1228	s	s	2	4	SIC	274	2_3	2	3	2	4	23_2_4	0	-1	1	0	1.05778384209	-77.0	75.0	-69.0	75.0	1
3.0.1	2019_Mar_04_1228	s	s	2	4	SIC	275	3_2	3	2	4	1	23_4_1	-1	-1	1	0	0.404049873352	27.0	-123.0	28.0	-131.0	1
3.0.1	2019_Mar_04_1228	s	s	2	4	SIC	276	ABS	0	0	1	2	24_1_2	NA	NA	0	1	5.05950307846	None	None	None	None	1
3.0.1	2019_Mar_04_1228	s	s	2	4	SIC	277	3_4	3	4	4	4	23_4_4	-1	0	1	0	0.496152877808	377.0	-398.0	376.0	-400.0	1
3.0.1	2019_Mar_04_1228	s	s	2	4	SIC	278	ABS	0	0	3	3	24_3_3	NA	NA	0	1	3.82176399231	None	None	None	None	1
3.0.1	2019_Mar_04_1228	s	s	2	4	SIC	279	2_1	2	1	1	3	23_1_3	-1	2	1	0	0.705000162125	-522.0	182.0	-527.0	173.0	1
3.0.1	2019_Mar_04_1228	s	s	2	4	SIC	280	1_1	1	1	4	2	23_4_2	3	1	1	0	0.399152994156	93.0	-111.0	95.0	-108.0	1
3.0.1	2019_Mar_04_1228	s	s	2	4	SIC	281	3_1	3	1	3	4	23_3_4	0	3	1	0	0.434964179993	444.0	345.0	451.0	350.0	1
3.0.1	2019_Mar_04_1228	s	s	2	4	SIC	282	2_1	2	1	3	4	23_3_4	1	3	1	0	0.375646829605	453.0	105.0	455.0	107.0	1
3.0.1	2019_Mar_04_1228	s	s	2	4	SIC	283	2_1	2	1	1	1	23_1_1	-1	0	1	0	7.00887393951	177.0	116.0	180.0	118.0	1
3.0.1	2019_Mar_04_1228	s	s	2	4	SIC	284	ABS	0	0	1	1	24_1_1	NA	NA	0	1	2.3429620266	None	None	None	None	1
3.0.1	2019_Mar_04_1228	s	s	2	4	SIC	285	ABS	0	0	1	3	24_1_3	NA	NA	0	1	3.05027484894	None	None	None	None	1
3.0.1	2019_Mar_04_1228	s	s	2	4	SIC	286	2_4	2	4	2	2	23_2_2	0	2	1	0	0.672585010529	-50.0	-282.0	-52.0	-283.0	1
3.0.1	2019_Mar_04_1228	s	s	2	4	SIC	287	4_3	4	3	4	1	23_4_1	0	2	1	0	0.787315130234	35.0	292.0	40.0	295.0	1
3.0.1	2019_Mar_04_1228	s	s	2	4	SIC	288	3_1	3	1	1	3	23_1_3	2	2	1	0	0.493389844894	385.0	112.0	384.0	103.0	1
3.0.1	2019_Mar_04_1228	s	s	2	4	SIC	289	ABS	0	0	2	1	24_2_1	NA	NA	0	1	1.75852012634	None	None	None	None	1
3.0.1	2019_Mar_04_1228	s	s	2	4	SIC	290	ABS	0	0	2	4	24_2_4	NA	NA	0	1	1.04601216316	None	None	None	None	1
3.0.1	2019_Mar_04_1228	s	s	2	4	SIC	291	2_4	2	4	3	2	23_3_2	1	2	1	0	0.940190792084	-416.0	-7.0	-404.0	2.0	1
3.0.1	2019_Mar_04_1228	s	s	2	4	SIC	292	ABS	0	0	2	2	24_2_2	NA	NA	0	1	4.15968680382	None	None	None	None	1
3.0.1	2019_Mar_04_1228	s	s	2	4	SIC	293	2_2	2	2	2	3	23_2_3	0	1	0	1	2.61313796043	-445.0	170.0	None	None	0
3.0.1	2019_Mar_04_1228	s	s	2	4	SIC	294	ABS	0	0	2	4	24_2_4	NA	NA	0	1	1.78020691872	None	None	None	None	1
3.0.1	2019_Mar_04_1228	s	s	2	4	SIC	295	4_4	4	4	4	2	23_4_2	0	2	1	0	0.790196895599	-142.0	-118.0	-140.0	-125.0	1
3.0.1	2019_Mar_04_1228	s	s	2	4	SIC	296	ABS	0	0	3	1	24_3_1	NA	NA	0	1	1.84873008728	None	None	None	None	1
3.0.1	2019_Mar_04_1228	s	s	2	4	SIC	297	2_2	2	2	1	2	23_1_2	-1	0	0	1	6.59721803665	456.0	-192.0	None	None	0
3.0.1	2019_Mar_04_1228	s	s	2	4	SIC	298	ABS	0	0	2	3	24_2_3	NA	NA	0	1	3.00360608101	None	None	None	None	1
3.0.1	2019_Mar_04_1228	s	s	2	4	SIC	299	ABS	0	0	4	4	24_4_4	NA	NA	0	1	0.672589063644	None	None	None	None	1
3.0.1	2019_Mar_04_1228	s	s	2	4	SIC	300	2_1	2	1	4	3	23_4_3	2	2	1	0	0.43742609024	202.0	191.0	202.0	196.0	1
3.0.1	2019_Mar_04_1228	s	s	2	4	SIC	301	ABS	0	0	2	3	24_2_3	NA	NA	0	1	3.58649897575	None	None	None	None	1
3.0.1	2019_Mar_04_1228	s	s	2	4	SIC	302	ABS	0	0	3	2	24_3_2	NA	NA	0	1	3.08364105225	None	None	None	None	1
3.0.1	2019_Mar_04_1228	s	s	2	4	SIC	303	ABS	0	0	3	3	24_3_3	NA	NA	0	1	2.83902406693	None	None	None	None	1
3.0.1	2019_Mar_04_1228	s	s	2	4	SIC	304	1_4	1	4	2	1	23_2_1	1	3	1	0	0.672636985779	-160.0	404.0	-168.0	406.0	1
3.0.1	2019_Mar_04_1228	s	s	2	4	SIC	305	4_3	4	3	2	4	23_2_4	2	-1	1	0	0.357481002808	128.0	367.0	125.0	372.0	1
3.0.1	2019_Mar_04_1228	s	s	2	4	SIC	306	ABS	0	0	1	4	24_1_4	NA	NA	0	1	2.21545481682	None	None	None	None	1
3.0.1	2019_Mar_04_1228	s	s	2	4	SIC	307	ABS	0	0	1	4	24_1_4	NA	NA	0	1	1.87795710564	None	None	None	None	1
3.0.1	2019_Mar_04_1228	s	s	2	4	SIC	308	ABS	0	0	3	2	24_3_2	NA	NA	0	1	2.5671069622	None	None	None	None	1
3.0.1	2019_Mar_04_1228	s	s	2	4	SIC	309	ABS	0	0	4	4	24_4_4	NA	NA	0	1	0.885643959045	None	None	None	None	1
3.0.1	2019_Mar_04_1228	s	s	2	4	SIC	310	ABS	0	0	1	3	24_1_3	NA	NA	0	1	3.9657459259	None	None	None	None	1
3.0.1	2019_Mar_04_1228	s	s	2	4	SIC	311	ABS	0	0	3	1	24_3_1	NA	NA	0	1	1.29827785492	None	None	None	None	1
3.0.1	2019_Mar_04_1228	s	s	2	4	SIC	312	3_2	3	2	3	3	23_3_3	0	1	1	0	1.9752240181	-343.0	-84.0	-334.0	-88.0	1
3.0.1	2019_Mar_04_1228	s	s	2	4	SIC	313	ABS	0	0	3	2	24_3_2	NA	NA	0	1	2.84553098679	None	None	None	None	1
3.0.1	2019_Mar_04_1228	s	s	2	4	SIC	314	ABS	0	0	1	4	24_1_4	NA	NA	0	1	1.78710389137	None	None	None	None	1
3.0.1	2019_Mar_04_1228	s	s	2	4	SIC	315	ABS	0	0	1	4	24_1_4	NA	NA	0	1	1.6722869873	None	None	None	None	1
3.0.1	2019_Mar_04_1228	s	s	2	4	SIC	316	1_4	1	4	4	3	23_4_3	3	1	1	0	0.422737121582	429.0	388.0	437.0	385.0	1
3.0.1	2019_Mar_04_1228	s	s	2	4	SIC	317	2_4	2	4	4	2	23_4_2	2	2	1	0	0.371887922287	-204.0	253.0	-207.0	258.0	1
3.0.1	2019_Mar_04_1228	s	s	2	4	SIC	318	ABS	0	0	2	2	24_2_2	NA	NA	0	1	4.89485907555	None	None	None	None	1
3.0.1	2019_Mar_04_1228	s	s	2	4	SIC	319	2_1	2	1	2	2	23_2_2	0	1	1	0	0.810806035995	-191.0	289.0	-196.0	293.0	1
3.0.1	2019_Mar_04_1228	s	s	2	4	SIC	320	ABS	0	0	2	1	24_2_1	NA	NA	0	1	5.63286399841	None	None	None	None	1
3.0.1	2019_Mar_04_1228	s	s	2	4	SIC	321	4_1	4	1	4	3	23_4_3	0	2	1	0	1.37875890732	-223.0	-367.0	-219.0	-367.0	1
3.0.1	2019_Mar_04_1228	s	s	2	4	SIC	322	ABS	0	0	2	3	24_2_3	NA	NA	0	1	2.62013912201	None	None	None	None	1
3.0.1	2019_Mar_04_1228	s	s	2	4	SIC	323	4_2	4	2	1	1	23_1_1	3	-1	1	0	0.410879135132	-269.0	-241.0	-269.0	-244.0	1
3.0.1	2019_Mar_04_1228	s	s	2	4	SIC	324	ABS	0	0	3	2	24_3_2	NA	NA	0	1	2.94625806808	None	None	None	None	1
3.0.1	2019_Mar_04_1228	s	s	2	4	SIC	325	2_1	2	1	1	4	23_1_4	-1	3	1	0	0.457983970642	59.0	394.0	66.0	397.0	1
3.0.1	2019_Mar_04_1228	s	s	2	4	SIC	326	3_3	3	3	1	1	23_1_1	2	2	1	0	0.854808092117	-24.0	-327.0	-16.0	-322.0	1
3.0.1	2019_Mar_04_1228	s	s	2	4	SIC	327	3_4	3	4	1	2	23_1_2	2	2	1	0	0.563815116882	-514.0	404.0	-511.0	399.0	1
3.0.1	2019_Mar_04_1228	s	s	2	4	SIC	328	4_1	4	1	3	2	23_3_2	1	1	1	0	0.340358972549	254.0	225.0	258.0	227.0	1
3.0.1	2019_Mar_04_1228	s	s	2	4	SIC	329	2_4	2	4	2	3	23_2_3	0	1	1	0	1.34002184868	-280.0	-323.0	-281.0	-314.0	1
3.0.1	2019_Mar_04_1228	s	s	2	4	SIC	330	3_3	3	3	1	2	23_1_2	2	1	1	0	0.755057811737	-327.0	-260.0	-323.0	-255.0	1
3.0.1	2019_Mar_04_1228	s	s	2	4	SIC	331	2_1	2	1	3	1	23_3_1	1	0	1	0	1.24602293968	471.0	-253.0	466.0	-249.0	1
3.0.1	2019_Mar_04_1228	s	s	2	4	SIC	332	ABS	0	0	4	1	24_4_1	NA	NA	0	1	1.0991871357	None	None	None	None	1
3.0.1	2019_Mar_04_1228	s	s	2	4	SIC	333	2_3	2	3	4	4	23_4_4	2	-1	1	0	0.387442111969	339.0	-401.0	343.0	-407.0	1
3.0.1	2019_Mar_04_1228	s	s	2	4	SIC	334	ABS	0	0	4	2	24_4_2	NA	NA	0	1	3.13952112198	None	None	None	None	1
3.0.1	2019_Mar_04_1228	s	s	2	4	SIC	335	ABS	0	0	1	2	24_1_2	NA	NA	0	1	3.53940200806	None	None	None	None	1
3.0.1	2019_Mar_04_1228	s	s	2	4	SIC	336	ABS	0	0	2	3	24_2_3	NA	NA	0	1	3.76285982132	None	None	None	None	1
3.0.1	2019_Mar_04_1228	s	s	2	4	SIC	337	2_2	2	2	4	1	23_4_1	2	-1	1	0	0.422778844833	-417.0	65.0	-415.0	66.0	1
3.0.1	2019_Mar_04_1228	s	s	2	4	SIC	338	ABS	0	0	1	3	24_1_3	NA	NA	0	1	2.99127817154	None	None	None	None	1
3.0.1	2019_Mar_04_1228	s	s	2	4	SIC	339	ABS	0	0	4	2	24_4_2	NA	NA	0	1	3.30438518524	None	None	None	None	1
3.0.1	2019_Mar_04_1228	s	s	2	4	SIC	340	4_1	4	1	1	3	23_1_3	3	2	1	0	0.356779813766	99.0	90.0	96.0	100.0	1
3.0.1	2019_Mar_04_1228	s	s	2	4	SIC	341	4_2	4	2	4	3	23_4_3	0	1	1	0	2.51123094559	-239.0	-361.0	-236.0	-354.0	1
3.0.1	2019_Mar_04_1228	s	s	2	4	SIC	342	3_1	3	1	4	2	23_4_2	-1	1	1	0	0.393175125122	234.0	-336.0	238.0	-328.0	1
3.0.1	2019_Mar_04_1228	s	s	2	4	SIC	343	1_1	1	1	2	3	23_2_3	1	2	1	0	0.731381177902	-275.0	-56.0	-264.0	-53.0	1
3.0.1	2019_Mar_04_1228	s	s	2	4	SIC	344	1_4	1	4	4	4	23_4_4	3	0	1	0	0.392584085464	-364.0	-207.0	-359.0	-214.0	1
3.0.1	2019_Mar_04_1228	s	s	2	4	SIC	345	ABS	0	0	1	4	24_1_4	NA	NA	0	1	1.39883804321	None	None	None	None	1
3.0.1	2019_Mar_04_1228	s	s	2	4	SIC	346	1_3	1	3	3	4	23_3_4	2	-1	1	0	0.392429828644	-129.0	174.0	-130.0	171.0	1
3.0.1	2019_Mar_04_1228	s	s	2	4	SIC	347	4_2	4	2	2	1	23_2_1	2	-1	1	0	0.399189949036	-421.0	188.0	-422.0	182.0	1
3.0.1	2019_Mar_04_1228	s	s	2	4	SIC	348	ABS	0	0	2	1	24_2_1	NA	NA	0	1	2.01585483551	None	None	None	None	1
3.0.1	2019_Mar_04_1228	s	s	2	4	SIC	349	3_4	3	4	3	2	23_3_2	0	2	1	0	0.688233137131	311.0	226.0	312.0	226.0	1
3.0.1	2019_Mar_04_1228	s	s	2	4	SIC	350	1_2	1	2	3	2	23_3_2	2	0	1	0	0.516776800156	300.0	-273.0	290.0	-273.0	1
3.0.1	2019_Mar_04_1228	s	s	2	4	SIC	351	3_1	3	1	4	3	23_4_3	-1	2	1	0	0.392218112946	472.0	-85.0	476.0	-90.0	1
3.0.1	2019_Mar_04_1228	s	s	2	4	SIC	352	2_3	2	3	4	3	23_4_3	2	0	1	0	0.378566980362	147.0	83.0	149.0	84.0	1
3.0.1	2019_Mar_04_1228	s	s	2	4	SIC	353	ABS	0	0	1	4	24_1_4	NA	NA	0	1	1.25142192841	None	None	None	None	1
3.0.1	2019_Mar_04_1228	s	s	2	4	SIC	354	4_3	4	3	1	4	23_1_4	3	-1	1	0	0.363970041275	-131.0	-22.0	-137.0	-25.0	1
3.0.1	2019_Mar_04_1228	s	s	2	4	SIC	355	1_3	1	3	3	3	23_3_3	2	0	1	0	0.474644899368	-317.0	-202.0	-317.0	-211.0	1
3.0.1	2019_Mar_04_1228	s	s	2	4	SIC	356	ABS	0	0	4	4	24_4_4	NA	NA	0	1	0.709172010422	None	None	None	None	1
3.0.1	2019_Mar_04_1228	s	s	2	4	SIC	357	ABS	0	0	2	3	24_2_3	NA	NA	0	1	2.90720701218	None	None	None	None	1
3.0.1	2019_Mar_04_1228	s	s	2	4	SIC	358	1_1	1	1	4	1	23_4_1	3	0	1	0	0.352591991425	342.0	-388.0	349.0	-390.0	1
3.0.1	2019_Mar_04_1228	s	s	2	4	SIC	359	2_1	2	1	3	3	23_3_3	1	2	1	0	0.473999023438	36.0	18.0	37.0	26.0	1
3.0.1	2019_Mar_04_1228	s	s	2	4	SIC	360	2_3	2	3	1	2	23_1_2	-1	1	1	0	1.12836503983	-340.0	-189.0	-336.0	-187.0	1
3.0.1	2019_Mar_04_1228	s	s	2	4	SIC	361	ABS	0	0	2	4	24_2_4	NA	NA	0	1	1.70473599434	None	None	None	None	1
3.0.1	2019_Mar_04_1228	s	s	2	4	SIC	362	1_1	1	1	3	3	23_3_3	2	2	1	0	0.455968856812	514.0	389.0	513.0	387.0	1
3.0.1	2019_Mar_04_1228	s	s	2	4	SIC	363	3_1	3	1	4	4	23_4_4	-1	3	1	0	0.392246007919	-315.0	-360.0	-319.0	-361.0	1
3.0.1	2019_Mar_04_1228	s	s	2	4	SIC	364	ABS	0	0	2	1	24_2_1	NA	NA	0	1	0.869632005692	None	None	None	None	1
3.0.1	2019_Mar_04_1228	s	s	2	4	SIC	365	3_2	3	2	3	1	23_3_1	0	-1	0	1	1.88119196892	219.0	52.0	None	None	0
3.0.1	2019_Mar_04_1228	s	s	2	4	SIC	366	2_3	2	3	3	3	23_3_3	1	0	1	0	0.678254842758	-465.0	63.0	-472.0	64.0	1
3.0.1	2019_Mar_04_1228	s	s	2	4	SIC	367	3_1	3	1	2	3	23_2_3	1	2	1	0	0.51678609848	273.0	-211.0	266.0	-216.0	1
3.0.1	2019_Mar_04_1228	s	s	2	4	SIC	368	3_2	3	2	4	4	23_4_4	-1	2	1	0	0.36900305748	-391.0	-312.0	-391.0	-306.0	1
3.0.1	2019_Mar_04_1228	s	s	2	4	SIC	369	4_3	4	3	3	2	23_3_2	1	1	1	0	0.393975019455	-33.0	365.0	-29.0	365.0	1
3.0.1	2019_Mar_04_1228	s	s	2	4	SIC	370	ABS	0	0	4	4	24_4_4	NA	NA	0	1	0.672590017319	None	None	None	None	1
3.0.1	2019_Mar_04_1228	s	s	2	4	SIC	371	ABS	0	0	1	4	24_1_4	NA	NA	0	1	0.881290912628	None	None	None	None	1
3.0.1	2019_Mar_04_1228	s	s	2	4	SIC	372	ABS	0	0	1	4	24_1_4	NA	NA	0	1	1.26071190834	None	None	None	None	1
3.0.1	2019_Mar_04_1228	s	s	2	4	SIC	373	3_1	3	1	4	1	23_4_1	-1	0	1	0	0.442648172379	156.0	-303.0	158.0	-305.0	1
3.0.1	2019_Mar_04_1228	s	s	2	4	SIC	374	1_2	1	2	1	3	23_1_3	0	1	1	0	1.93175196648	105.0	211.0	102.0	212.0	1
3.0.1	2019_Mar_04_1228	s	s	2	4	SIC	375	ABS	0	0	3	3	24_3_3	NA	NA	0	1	2.7513859272	None	None	None	None	1
3.0.1	2019_Mar_04_1228	s	s	2	4	SIC	376	ABS	0	0	3	2	24_3_2	NA	NA	0	1	2.91608691216	None	None	None	None	1
3.0.1	2019_Mar_04_1228	s	s	2	4	SIC	377	4_3	4	3	2	1	23_2_1	2	2	1	0	0.410943031311	-387.0	-126.0	-386.0	-123.0	1
3.0.1	2019_Mar_04_1228	s	s	2	4	SIC	378	4_4	4	4	1	3	23_1_3	3	1	1	0	0.356856107712	315.0	69.0	310.0	77.0	1
3.0.1	2019_Mar_04_1228	s	s	2	4	SIC	379	ABS	0	0	1	2	24_1_2	NA	NA	0	1	4.02163600922	None	None	None	None	1
3.0.1	2019_Mar_04_1228	s	s	2	4	SIC	380	2_4	2	4	1	3	23_1_3	-1	1	1	0	0.987264871597	-411.0	338.0	-415.0	331.0	1
3.0.1	2019_Mar_04_1228	s	s	2	4	SIC	381	1_4	1	4	2	3	23_2_3	1	1	1	0	1.35170483589	325.0	-133.0	328.0	-132.0	1
3.0.1	2019_Mar_04_1228	s	s	2	4	SIC	382	2_1	2	1	1	2	23_1_2	-1	1	1	0	2.1162788868	251.0	-111.0	257.0	-103.0	1
3.0.1	2019_Mar_04_1228	s	s	2	4	SIC	383	3_4	3	4	3	1	23_3_1	0	3	1	0	0.704999923706	508.0	-32.0	516.0	-31.0	1
3.0.1	2019_Mar_04_1228	s	s	2	4	SIC	384	ABS	0	0	2	3	24_2_3	NA	NA	0	1	3.00445008278	None	None	None	None	1
3.0.1	2019_Mar_04_1228	s	s	2	4	SIC	385	1_3	1	3	1	2	23_1_2	0	1	1	0	1.57563781738	-490.0	-56.0	-490.0	-59.0	1
3.0.1	2019_Mar_04_1228	s	s	2	4	SIC	386	ABS	0	0	1	4	24_1_4	NA	NA	0	1	1.05778980255	None	None	None	None	1
3.0.1	2019_Mar_04_1228	s	s	2	4	SIC	387	ABS	0	0	4	1	24_4_1	NA	NA	0	1	2.55437803268	None	None	None	None	1
3.0.1	2019_Mar_04_1228	s	s	2	4	SIC	388	2_3	2	3	4	2	23_4_2	2	1	1	0	0.378558158875	0.0	-19.0	-5.0	-21.0	1
3.0.1	2019_Mar_04_1228	s	s	2	4	SIC	389	2_1	2	1	4	2	23_4_2	2	1	1	0	0.378540992737	508.0	-363.0	504.0	-360.0	1
3.0.1	2019_Mar_04_1228	s	s	2	4	SIC	390	1_3	1	3	2	3	23_2_3	1	0	0	1	3.69113516808	-224.0	354.0	None	None	0
3.0.1	2019_Mar_04_1228	s	s	2	4	SIC	391	1_3	1	3	2	2	23_2_2	1	1	1	0	1.75170397758	-192.0	-4.0	-195.0	5.0	1
3.0.1	2019_Mar_04_1228	s	s	2	4	SIC	392	3_2	3	2	4	2	23_4_2	-1	0	1	0	0.427525043488	-233.0	30.0	-230.0	34.0	1
3.0.1	2019_Mar_04_1228	s	s	2	4	SIC	393	1_2	1	2	1	4	23_1_4	0	2	1	0	0.533632993698	409.0	-21.0	399.0	-17.0	1
3.0.1	2019_Mar_04_1228	s	s	2	4	SIC	394	ABS	0	0	2	2	24_2_2	NA	NA	0	1	4.46894693375	None	None	None	None	1
3.0.1	2019_Mar_04_1228	s	s	2	4	SIC	395	2_2	2	2	2	4	23_2_4	0	2	1	0	0.449155092239	-148.0	39.0	-148.0	44.0	1
3.0.1	2019_Mar_04_1228	s	s	2	4	SIC	396	3_4	3	4	2	1	23_2_1	1	3	1	0	0.415594100952	-191.0	230.0	-186.0	230.0	1
3.0.1	2019_Mar_04_1228	s	s	2	4	SIC	397	1_1	1	1	2	1	23_2_1	1	0	0	1	2.42699098587	184.0	165.0	None	None	0
3.0.1	2019_Mar_04_1228	s	s	2	4	SIC	398	ABS	0	0	3	3	24_3_3	NA	NA	0	1	2.61316084862	None	None	None	None	1
3.0.1	2019_Mar_04_1228	s	s	2	4	SIC	399	3_3	3	3	1	3	23_1_3	2	0	1	0	0.54557299614	-411.0	275.0	-419.0	275.0	1
3.0.1	2019_Mar_04_1228	s	s	2	4	SIC	400	ABS	0	0	4	2	24_4_2	NA	NA	0	1	3.01021981239	None	None	None	None	1
3.0.1	2019_Mar_04_1228	s	s	2	4	SIC	401	1_3	1	3	2	4	23_2_4	1	-1	1	0	0.669719934464	116.0	189.0	112.0	196.0	1
3.0.1	2019_Mar_04_1228	s	s	2	4	SIC	402	4_2	4	2	4	4	23_4_4	0	2	1	0	0.874686956406	228.0	203.0	223.0	202.0	1
3.0.1	2019_Mar_04_1228	s	s	2	4	SIC	403	4_2	4	2	2	2	23_2_2	2	0	1	0	0.41601395607	-293.0	-184.0	-289.0	-180.0	1
3.0.1	2019_Mar_04_1228	s	s	2	4	SIC	404	ABS	0	0	2	1	24_2_1	NA	NA	0	1	2.94588685036	None	None	None	None	1
3.0.1	2019_Mar_04_1228	s	s	2	4	SIC	405	3_3	3	3	3	1	23_3_1	0	2	1	0	0.804408073425	471.0	-7.0	471.0	-7.0	1
3.0.1	2019_Mar_04_1228	s	s	2	4	SIC	406	4_1	4	1	2	2	23_2_2	2	1	1	0	0.399181127548	116.0	237.0	121.0	237.0	1
3.0.1	2019_Mar_04_1228	s	s	2	4	SIC	407	ABS	0	0	2	1	24_2_1	NA	NA	0	1	2.52153277397	None	None	None	None	1
3.0.1	2019_Mar_04_1228	s	s	2	4	SIC	408	1_1	1	1	3	4	23_3_4	2	3	1	0	0.481560945511	250.0	-228.0	254.0	-224.0	1
3.0.1	2019_Mar_04_1228	s	s	2	4	SIC	409	ABS	0	0	1	3	24_1_3	NA	NA	0	1	3.52269005775	None	None	None	None	1
3.0.1	2019_Mar_04_1228	s	s	2	4	SIC	410	2_2	2	2	2	1	23_2_1	0	-1	1	0	1.69588899612	384.0	-28.0	393.0	-22.0	1
3.0.1	2019_Mar_04_1228	s	s	2	4	SIC	411	ABS	0	0	4	2	24_4_2	NA	NA	0	1	3.21010494232	None	None	None	None	1
3.0.1	2019_Mar_04_1228	s	s	2	4	SIC	412	ABS	0	0	4	2	24_4_2	NA	NA	0	1	2.51971888542	None	None	None	None	1
3.0.1	2019_Mar_04_1228	s	s	2	4	SIC	413	4_4	4	4	4	1	23_4_1	0	3	1	0	0.638741970062	-204.0	-98.0	-196.0	-98.0	1
3.0.1	2019_Mar_04_1228	s	s	2	4	SIC	414	1_2	1	2	2	2	23_2_2	1	0	1	0	2.12813782692	-330.0	-218.0	-326.0	-215.0	1
3.0.1	2019_Mar_04_1228	s	s	2	4	SIC	415	4_4	4	4	3	2	23_3_2	1	2	1	0	0.450930118561	-260.0	349.0	-249.0	358.0	1
3.0.1	2019_Mar_04_1228	s	s	2	4	SIC	416	4_2	4	2	3	1	23_3_1	1	-1	1	0	0.410895109177	-435.0	-133.0	-434.0	-131.0	1
3.0.1	2019_Mar_04_1228	s	s	2	4	SIC	417	1_1	1	1	2	4	23_2_4	1	3	1	0	0.410909891129	256.0	337.0	257.0	340.0	1
3.0.1	2019_Mar_04_1228	s	s	2	4	SIC	418	1_4	1	4	1	3	23_1_3	0	1	1	0	1.23425602913	100.0	-372.0	102.0	-372.0	1
3.0.1	2019_Mar_04_1228	s	s	2	4	SIC	419	ABS	0	0	1	1	24_1_1	NA	NA	0	1	3.12775802612	None	None	None	None	1
3.0.1	2019_Mar_04_1228	s	s	2	4	SIC	420	1_2	1	2	2	3	23_2_3	1	1	1	0	1.15877485275	-97.0	-218.0	-98.0	-212.0	1
3.0.1	2019_Mar_04_1228	s	s	2	4	SIC	421	ABS	0	0	1	3	24_1_3	NA	NA	0	1	3.04538106918	None	None	None	None	1
3.0.1	2019_Mar_04_1228	s	s	2	4	SIC	422	1_3	1	3	4	1	23_4_1	3	2	1	0	0.438374996185	-19.0	310.0	-20.0	306.0	1
3.0.1	2019_Mar_04_1228	s	s	2	4	SIC	423	2_2	2	2	3	2	23_3_2	1	0	1	0	0.928332090378	98.0	139.0	97.0	136.0	1
3.0.1	2019_Mar_04_1228	s	s	2	4	SIC	424	1_1	1	1	1	2	23_1_2	0	1	0	1	4.19179296494	422.0	-346.0	None	None	0
3.0.1	2019_Mar_04_1228	s	s	2	4	SIC	425	ABS	0	0	1	3	24_1_3	NA	NA	1	0	2.94531106949	None	None	106.0	4.0	0
3.0.1	2019_Mar_04_1228	s	s	2	4	SIC	426	ABS	0	0	2	4	24_2_4	NA	NA	0	1	2.3096909523	None	None	None	None	1
3.0.1	2019_Mar_04_1228	s	s	2	4	SIC	427	ABS	0	0	1	3	24_1_3	NA	NA	0	1	3.07385587692	None	None	None	None	1
3.0.1	2019_Mar_04_1228	s	s	2	4	SIC	428	ABS	0	0	2	1	24_2_1	NA	NA	0	1	2.32798099518	None	None	None	None	1
3.0.1	2019_Mar_04_1228	s	s	2	4	SIC	429	3_3	3	3	2	4	23_2_4	1	-1	1	0	0.496165037155	-181.0	-330.0	-177.0	-324.0	1
3.0.1	2019_Mar_04_1228	s	s	2	4	SIC	430	3_3	3	3	4	3	23_4_3	-1	0	1	0	0.469949007034	-502.0	87.0	-501.0	88.0	1
3.0.1	2019_Mar_04_1228	s	s	2	4	SIC	431	1_4	1	4	3	1	23_3_1	2	3	1	0	0.460839986801	-151.0	-54.0	-148.0	-61.0	1
3.0.1	2019_Mar_04_1228	s	s	2	4	SIC	432	ABS	0	0	2	2	24_2_2	NA	NA	0	1	4.70373511314	None	None	None	None	1
3.0.1	2019_Mar_04_1228	s	s	2	4	SIC	433	ABS	0	0	3	1	24_3_1	NA	NA	0	1	1.9517018795	None	None	None	None	1
3.0.1	2019_Mar_04_1228	s	s	2	4	SIC	434	ABS	0	0	4	3	24_4_3	NA	NA	0	1	3.18355798721	None	None	None	None	1
3.0.1	2019_Mar_04_1228	s	s	2	4	SIC	435	2_4	2	4	1	2	23_1_2	-1	2	1	0	0.563837051392	479.0	-51.0	485.0	-48.0	1
3.0.1	2019_Mar_04_1228	s	s	2	4	SIC	436	ABS	0	0	4	4	24_4_4	NA	NA	0	1	0.834394931793	None	None	None	None	1
3.0.1	2019_Mar_04_1228	s	s	2	4	SIC	437	ABS	0	0	2	1	24_2_1	NA	NA	0	1	2.32472419739	None	None	None	None	1
3.0.1	2019_Mar_04_1228	s	s	2	4	SIC	438	ABS	0	0	4	3	24_4_3	NA	NA	0	1	2.35154700279	None	None	None	None	1
3.0.1	2019_Mar_04_1228	s	s	2	4	SIC	439	4_3	4	3	3	1	23_3_1	1	2	1	0	0.663048028946	380.0	194.0	382.0	196.0	1
3.0.1	2019_Mar_04_1228	s	s	2	4	SIC	440	ABS	0	0	1	1	24_1_1	NA	NA	0	1	1.6723139286	None	None	None	None	1
3.0.1	2019_Mar_04_1228	s	s	2	4	SIC	441	1_2	1	2	2	4	23_2_4	1	2	1	0	0.7940928936	300.0	-148.0	299.0	-153.0	1
3.0.1	2019_Mar_04_1228	s	s	2	4	SIC	442	ABS	0	0	4	3	24_4_3	NA	NA	0	1	3.33947396278	None	None	None	None	1
3.0.1	2019_Mar_04_1228	s	s	2	4	SIC	443	ABS	0	0	1	3	24_1_3	NA	NA	0	1	3.49525499344	None	None	None	None	1
3.0.1	2019_Mar_04_1228	s	s	2	4	SIC	444	2_4	2	4	3	1	23_3_1	1	3	1	0	0.70493388176	-389.0	147.0	-386.0	148.0	1
3.0.1	2019_Mar_04_1228	s	s	2	4	SIC	445	4_1	4	1	3	4	23_3_4	1	3	1	0	0.422719955444	312.0	146.0	316.0	144.0	1
3.0.1	2019_Mar_04_1228	s	s	2	4	SIC	446	ABS	0	0	2	2	24_2_2	NA	NA	0	1	0.411379098892	None	None	None	None	1
3.0.1	2019_Mar_04_1228	s	s	2	4	SIC	447	1_4	1	4	3	3	23_3_3	2	1	1	0	0.511348962784	-379.0	356.0	-371.0	363.0	1
3.0.1	2019_Mar_04_1228	s	s	2	4	SIC	448	2_3	2	3	1	3	23_1_3	-1	0	1	0	9.18471288681	394.0	-312.0	400.0	-307.0	1
3.0.1	2019_Mar_04_1228	s	s	2	4	SIC	449	2_2	2	2	3	4	23_3_4	1	2	1	0	0.505068063736	501.0	-373.0	497.0	-377.0	1
3.0.1	2019_Mar_04_1228	s	s	2	4	SIC	450	ABS	0	0	4	1	24_4_1	NA	NA	0	1	1.90747904778	None	None	None	None	1
3.0.1	2019_Mar_04_1228	s	s	2	4	SIC	451	ABS	0	0	4	3	24_4_3	NA	NA	0	1	2.22207188606	None	None	None	None	1
3.0.1	2019_Mar_04_1228	s	s	2	4	SIC	452	1_2	1	2	3	1	23_3_1	2	-1	1	0	0.567920207977	-370.0	274.0	-371.0	278.0	1
3.0.1	2019_Mar_04_1228	s	s	2	4	SIC	453	3_1	3	1	3	2	23_3_2	0	1	0	1	3.95392203331	291.0	-134.0	None	None	0
3.0.1	2019_Mar_04_1228	s	s	2	4	SIC	454	3_2	3	2	1	2	23_1_2	2	0	1	0	0.587378978729	-517.0	362.0	-515.0	358.0	1
3.0.1	2019_Mar_04_1228	s	s	2	4	SIC	455	ABS	0	0	1	2	24_1_2	NA	NA	0	1	4.83348107338	None	None	None	None	1
3.0.1	2019_Mar_04_1228	s	s	2	4	SIC	456	ABS	0	0	3	3	24_3_3	NA	NA	0	1	1.86228394508	None	None	None	None	1
3.0.1	2019_Mar_04_1228	s	s	2	4	SIC	457	4_2	4	2	2	4	23_2_4	2	2	1	0	0.422752857208	533.0	-134.0	524.0	-138.0	1
3.0.1	2019_Mar_04_1228	s	s	2	4	SIC	458	ABS	0	0	2	2	24_2_2	NA	NA	0	1	6.2843849659	None	None	None	None	1
3.0.1	2019_Mar_04_1228	s	s	2	4	SIC	459	ABS	0	0	2	4	24_2_4	NA	NA	0	1	0.88139796257	None	None	None	None	1
3.0.1	2019_Mar_04_1228	s	s	2	4	SIC	460	2_2	2	2	1	1	23_1_1	-1	-1	1	0	1.52823495865	340.0	-151.0	342.0	-154.0	1
3.0.1	2019_Mar_04_1228	s	s	2	4	SIC	461	4_4	4	4	3	4	23_3_4	1	0	1	0	0.510323047638	-507.0	331.0	-516.0	328.0	1
3.0.1	2019_Mar_04_1228	s	s	2	4	SIC	462	ABS	0	0	2	1	24_2_1	NA	NA	0	1	2.18683505058	None	None	None	None	1
3.0.1	2019_Mar_04_1228	s	s	2	4	SIC	463	ABS	0	0	4	3	24_4_3	NA	NA	0	1	2.64552807808	None	None	None	None	1
3.0.1	2019_Mar_04_1228	s	s	2	4	SIC	464	ABS	0	0	3	1	24_3_1	NA	NA	0	1	1.2606408596	None	None	None	None	1
3.0.1	2019_Mar_04_1228	s	s	2	4	SIC	465	1_4	1	4	4	1	23_4_1	3	3	1	0	0.410963058472	-215.0	-11.0	-213.0	-8.0	1
3.0.1	2019_Mar_04_1228	s	s	2	4	SIC	466	ABS	0	0	3	4	24_3_4	NA	NA	0	1	1.23420000076	None	None	None	None	1
3.0.1	2019_Mar_04_1228	s	s	2	4	SIC	467	2_2	2	2	1	4	23_1_4	-1	2	1	0	0.469781160355	234.0	225.0	238.0	232.0	1
3.0.1	2019_Mar_04_1228	s	s	2	4	SIC	468	3_2	3	2	2	3	23_2_3	1	1	1	0	2.31916904449	-159.0	-387.0	-150.0	-384.0	1
3.0.1	2019_Mar_04_1228	s	s	2	4	SIC	469	ABS	0	0	3	3	24_3_3	NA	NA	0	1	2.95137500763	None	None	None	None	1
3.0.1	2019_Mar_04_1228	s	s	2	4	SIC	470	1_4	1	4	1	1	23_1_1	0	3	1	0	0.745817899704	-404.0	-244.0	-400.0	-245.0	1
3.0.1	2019_Mar_04_1228	s	s	2	4	SIC	471	2_2	2	2	3	1	23_3_1	1	-1	1	0	0.474550008774	269.0	17.0	268.0	10.0	1
3.0.1	2019_Mar_04_1228	s	s	2	4	SIC	472	2_3	2	3	3	4	23_3_4	1	-1	1	0	0.437356948853	-54.0	-334.0	-50.0	-325.0	1
3.0.1	2019_Mar_04_1228	s	s	2	4	SIC	473	ABS	0	0	1	2	24_1_2	NA	NA	0	1	3.58096218109	None	None	None	None	1
3.0.1	2019_Mar_04_1228	s	s	2	4	SIC	474	4_2	4	2	3	2	23_3_2	1	0	1	0	0.469762086868	-10.0	-209.0	-6.0	-208.0	1
3.0.1	2019_Mar_04_1228	s	s	2	4	SIC	475	4_1	4	1	3	1	23_3_1	1	0	1	0	0.428433895111	-458.0	282.0	-458.0	284.0	1
3.0.1	2019_Mar_04_1228	s	s	2	4	SIC	476	1_4	1	4	3	2	23_3_2	2	2	1	0	0.44403719902	145.0	330.0	143.0	332.0	1
3.0.1	2019_Mar_04_1228	s	s	2	4	SIC	477	3_3	3	3	3	4	23_3_4	0	-1	1	0	0.834403038025	528.0	316.0	527.0	322.0	1
3.0.1	2019_Mar_04_1228	s	s	2	4	SIC	478	ABS	0	0	2	2	24_2_2	NA	NA	0	1	3.71573996544	None	None	None	None	1
3.0.1	2019_Mar_04_1228	s	s	2	4	SIC	479	1_3	1	3	3	1	23_3_1	2	2	1	0	0.532824993134	93.0	-252.0	95.0	-256.0	1
3.0.1	2019_Mar_04_1228	s	s	2	4	SIC	480	ABS	0	0	4	1	24_4_1	NA	NA	0	1	1.46941208839	None	None	None	None	1
