Version	Date	Stimuli	Method	Subject	Session	Condition	Trial	Target	TColor	TShape	DColor	DShape	Distractors	Channel1	Channel2	LMouseButton	RMouseButton	RT	TargetX	TargetY	ResponseX	ResponseY	Correct
3.0.1	2019_Mar_04_1602	s	s	3	2	Capacity	1	3_1	3	1	1	1	23_1_1	2	0	1	0	0.56046295166	-57.0	-156.0	-53.0	-150.0	1
3.0.1	2019_Mar_04_1602	s	s	3	2	Capacity	2	3_1	3	1	4	1	23_4_1	-1	0	1	0	0.746351957321	442.0	181.0	439.0	177.0	1
3.0.1	2019_Mar_04_1602	s	s	3	2	Capacity	3	ABS	0	0	1	1	24_1_1	NA	NA	0	1	0.728939056396	None	None	None	None	1
3.0.1	2019_Mar_04_1602	s	s	3	2	Capacity	4	ABS	0	0	3	1	24_3_1	NA	NA	0	1	0.634423017502	None	None	None	None	1
3.0.1	2019_Mar_04_1602	s	s	3	2	Capacity	5	ABS	0	0	4	1	24_4_1	NA	NA	0	1	0.496175050735	None	None	None	None	1
3.0.1	2019_Mar_04_1602	s	s	3	2	Capacity	6	ABS	0	0	2	1	24_2_1	NA	NA	0	1	0.538858175278	None	None	None	None	1
3.0.1	2019_Mar_04_1602	s	s	3	2	Capacity	7	2_1	2	1	4	1	23_4_1	2	0	1	0	0.446207046509	-68.0	187.0	-69.0	185.0	1
3.0.1	2019_Mar_04_1602	s	s	3	2	Capacity	8	ABS	0	0	2	1	24_2_1	NA	NA	0	1	0.616008043289	None	None	None	None	1
3.0.1	2019_Mar_04_1602	s	s	3	2	Capacity	9	1_1	1	1	2	1	23_2_1	1	0	0	1	0.568605899811	-129.0	-337.0	None	None	0
3.0.1	2019_Mar_04_1602	s	s	3	2	Capacity	10	ABS	0	0	1	1	24_1_1	NA	NA	0	1	0.599190950394	None	None	None	None	1
3.0.1	2019_Mar_04_1602	s	s	3	2	Capacity	11	ABS	0	0	3	1	24_3_1	NA	NA	0	1	0.516769886017	None	None	None	None	1
3.0.1	2019_Mar_04_1602	s	s	3	2	Capacity	12	ABS	0	0	4	1	24_4_1	NA	NA	0	1	0.441879034042	None	None	None	None	1
3.0.1	2019_Mar_04_1602	s	s	3	2	Capacity	13	4_1	4	1	2	1	23_2_1	2	0	1	0	0.422770023346	-284.0	-397.0	-283.0	-398.0	1
3.0.1	2019_Mar_04_1602	s	s	3	2	Capacity	14	ABS	0	0	3	1	24_3_1	NA	NA	0	1	0.516934156418	None	None	None	None	1
3.0.1	2019_Mar_04_1602	s	s	3	2	Capacity	15	2_1	2	1	3	1	23_3_1	1	0	1	0	0.604167938232	307.0	64.0	306.0	59.0	1
3.0.1	2019_Mar_04_1602	s	s	3	2	Capacity	16	ABS	0	0	2	1	24_2_1	NA	NA	0	1	0.716830968857	None	None	None	None	1
3.0.1	2019_Mar_04_1602	s	s	3	2	Capacity	17	2_1	2	1	1	1	23_1_1	-1	0	0	1	0.57842707634	348.0	89.0	None	None	0
3.0.1	2019_Mar_04_1602	s	s	3	2	Capacity	18	4_1	4	1	1	1	23_1_1	3	0	1	0	0.481575012207	-115.0	-167.0	-105.0	-168.0	1
3.0.1	2019_Mar_04_1602	s	s	3	2	Capacity	19	1_1	1	1	4	1	23_4_1	3	0	1	0	0.469740152359	-185.0	-228.0	-187.0	-231.0	1
3.0.1	2019_Mar_04_1602	s	s	3	2	Capacity	20	1_1	1	1	3	1	23_3_1	2	0	1	0	0.672627925873	-399.0	-217.0	-402.0	-222.0	1
3.0.1	2019_Mar_04_1602	s	s	3	2	Capacity	21	ABS	0	0	4	1	24_4_1	NA	NA	0	1	0.768585920334	None	None	None	None	1
3.0.1	2019_Mar_04_1602	s	s	3	2	Capacity	22	3_1	3	1	2	1	23_2_1	1	0	1	0	0.476459026337	23.0	-71.0	20.0	-71.0	1
3.0.1	2019_Mar_04_1602	s	s	3	2	Capacity	23	4_1	4	1	3	1	23_3_1	1	0	1	0	0.437399148941	-214.0	160.0	-207.0	161.0	1
3.0.1	2019_Mar_04_1602	s	s	3	2	Capacity	24	ABS	0	0	1	1	24_1_1	NA	NA	0	1	0.874657869339	None	None	None	None	1
3.0.1	2019_Mar_04_1602	s	s	3	2	Capacity	25	2_1	2	1	4	1	23_4_1	2	0	1	0	0.575653791428	166.0	-100.0	157.0	-97.0	1
3.0.1	2019_Mar_04_1602	s	s	3	2	Capacity	26	1_1	1	1	2	1	23_2_1	1	0	0	1	0.768685102463	-91.0	391.0	None	None	0
3.0.1	2019_Mar_04_1602	s	s	3	2	Capacity	27	3_1	3	1	4	1	23_4_1	-1	0	1	0	0.428291082382	-66.0	-20.0	-66.0	-24.0	1
3.0.1	2019_Mar_04_1602	s	s	3	2	Capacity	28	ABS	0	0	2	1	24_2_1	NA	NA	0	1	0.545694828033	None	None	None	None	1
3.0.1	2019_Mar_04_1602	s	s	3	2	Capacity	29	ABS	0	0	2	1	24_2_1	NA	NA	0	1	0.59921002388	None	None	None	None	1
3.0.1	2019_Mar_04_1602	s	s	3	2	Capacity	30	ABS	0	0	4	1	24_4_1	NA	NA	0	1	0.529006004333	None	None	None	None	1
3.0.1	2019_Mar_04_1602	s	s	3	2	Capacity	31	ABS	0	0	1	1	24_1_1	NA	NA	0	1	0.50171995163	None	None	None	None	1
3.0.1	2019_Mar_04_1602	s	s	3	2	Capacity	32	ABS	0	0	3	1	24_3_1	NA	NA	0	1	0.599149942398	None	None	None	None	1
3.0.1	2019_Mar_04_1602	s	s	3	2	Capacity	33	ABS	0	0	2	1	24_2_1	NA	NA	0	1	0.5873670578	None	None	None	None	1
3.0.1	2019_Mar_04_1602	s	s	3	2	Capacity	34	ABS	0	0	4	1	24_4_1	NA	NA	0	1	0.552537918091	None	None	None	None	1
3.0.1	2019_Mar_04_1602	s	s	3	2	Capacity	35	2_1	2	1	1	1	23_1_1	-1	0	0	1	0.613857030869	-388.0	-8.0	None	None	0
3.0.1	2019_Mar_04_1602	s	s	3	2	Capacity	36	2_1	2	1	3	1	23_3_1	1	0	0	1	0.52868103981	-68.0	389.0	None	None	0
3.0.1	2019_Mar_04_1602	s	s	3	2	Capacity	37	1_1	1	1	4	1	23_4_1	3	0	1	0	0.403870105743	-73.0	129.0	-68.0	126.0	1
3.0.1	2019_Mar_04_1602	s	s	3	2	Capacity	38	ABS	0	0	1	1	24_1_1	NA	NA	0	1	0.669759988785	None	None	None	None	1
3.0.1	2019_Mar_04_1602	s	s	3	2	Capacity	39	3_1	3	1	2	1	23_2_1	1	0	1	0	0.481497049332	294.0	60.0	290.0	60.0	1
3.0.1	2019_Mar_04_1602	s	s	3	2	Capacity	40	ABS	0	0	1	1	24_1_1	NA	NA	0	1	0.73140001297	None	None	None	None	1
3.0.1	2019_Mar_04_1602	s	s	3	2	Capacity	41	ABS	0	0	3	1	24_3_1	NA	NA	0	1	1.18728685379	None	None	None	None	1
3.0.1	2019_Mar_04_1602	s	s	3	2	Capacity	42	1_1	1	1	3	1	23_3_1	2	0	1	0	0.496197938919	50.0	-104.0	54.0	-100.0	1
3.0.1	2019_Mar_04_1602	s	s	3	2	Capacity	43	3_1	3	1	1	1	23_1_1	2	0	0	1	0.869597196579	-367.0	-348.0	None	None	0
3.0.1	2019_Mar_04_1602	s	s	3	2	Capacity	44	ABS	0	0	3	1	24_3_1	NA	NA	0	1	0.839710950851	None	None	None	None	1
3.0.1	2019_Mar_04_1602	s	s	3	2	Capacity	45	4_1	4	1	3	1	23_3_1	1	0	1	0	0.469793796539	161.0	199.0	161.0	193.0	1
3.0.1	2019_Mar_04_1602	s	s	3	2	Capacity	46	ABS	0	0	4	1	24_4_1	NA	NA	0	1	0.672676086426	None	None	None	None	1
3.0.1	2019_Mar_04_1602	s	s	3	2	Capacity	47	4_1	4	1	2	1	23_2_1	2	0	1	0	0.481454849243	94.0	302.0	99.0	300.0	1
3.0.1	2019_Mar_04_1602	s	s	3	2	Capacity	48	4_1	4	1	1	1	23_1_1	3	0	1	0	0.463846921921	523.0	-257.0	521.0	-258.0	1
3.0.1	2019_Mar_04_1602	s	s	3	2	Capacity	49	1_1	1	1	2	1	23_2_1	1	0	0	1	0.775603055954	-228.0	-74.0	None	None	0
3.0.1	2019_Mar_04_1602	s	s	3	2	Capacity	50	4_1	4	1	3	1	23_3_1	1	0	1	0	0.512051105499	526.0	241.0	535.0	248.0	1
3.0.1	2019_Mar_04_1602	s	s	3	2	Capacity	51	1_1	1	1	4	1	23_4_1	3	0	1	0	0.469810009003	-202.0	119.0	-212.0	121.0	1
3.0.1	2019_Mar_04_1602	s	s	3	2	Capacity	52	ABS	0	0	3	1	24_3_1	NA	NA	0	1	0.58039522171	None	None	None	None	1
3.0.1	2019_Mar_04_1602	s	s	3	2	Capacity	53	3_1	3	1	1	1	23_1_1	2	0	1	0	0.481623888016	-125.0	-7.0	-125.0	-9.0	1
3.0.1	2019_Mar_04_1602	s	s	3	2	Capacity	54	ABS	0	0	3	1	24_3_1	NA	NA	0	1	0.528538942337	None	None	None	None	1
3.0.1	2019_Mar_04_1602	s	s	3	2	Capacity	55	2_1	2	1	1	1	23_1_1	-1	0	1	0	1.17543101311	-278.0	-117.0	-276.0	-112.0	1
3.0.1	2019_Mar_04_1602	s	s	3	2	Capacity	56	1_1	1	1	3	1	23_3_1	2	0	1	0	0.693150997162	-525.0	-71.0	-521.0	-71.0	1
3.0.1	2019_Mar_04_1602	s	s	3	2	Capacity	57	ABS	0	0	4	1	24_4_1	NA	NA	0	1	0.672592163086	None	None	None	None	1
3.0.1	2019_Mar_04_1602	s	s	3	2	Capacity	58	ABS	0	0	1	1	24_1_1	NA	NA	0	1	0.85786986351	None	None	None	None	1
3.0.1	2019_Mar_04_1602	s	s	3	2	Capacity	59	3_1	3	1	2	1	23_2_1	1	0	1	0	0.619745016098	8.0	-274.0	12.0	-274.0	1
3.0.1	2019_Mar_04_1602	s	s	3	2	Capacity	60	2_1	2	1	3	1	23_3_1	1	0	0	1	0.634308815002	319.0	83.0	None	None	0
3.0.1	2019_Mar_04_1602	s	s	3	2	Capacity	61	ABS	0	0	3	1	24_3_1	NA	NA	0	1	0.839510917664	None	None	None	None	1
3.0.1	2019_Mar_04_1602	s	s	3	2	Capacity	62	2_1	2	1	4	1	23_4_1	2	0	1	0	0.451752185822	-406.0	143.0	-402.0	139.0	1
3.0.1	2019_Mar_04_1602	s	s	3	2	Capacity	63	ABS	0	0	1	1	24_1_1	NA	NA	0	1	0.622735977173	None	None	None	None	1
3.0.1	2019_Mar_04_1602	s	s	3	2	Capacity	64	ABS	0	0	1	1	24_1_1	NA	NA	0	1	0.516786813736	None	None	None	None	1
3.0.1	2019_Mar_04_1602	s	s	3	2	Capacity	65	ABS	0	0	2	1	24_2_1	NA	NA	0	1	0.61883687973	None	None	None	None	1
3.0.1	2019_Mar_04_1602	s	s	3	2	Capacity	66	ABS	0	0	2	1	24_2_1	NA	NA	0	1	0.51687002182	None	None	None	None	1
3.0.1	2019_Mar_04_1602	s	s	3	2	Capacity	67	4_1	4	1	2	1	23_2_1	2	0	1	0	0.426474094391	184.0	220.0	181.0	226.0	1
3.0.1	2019_Mar_04_1602	s	s	3	2	Capacity	68	ABS	0	0	4	1	24_4_1	NA	NA	0	1	0.67822599411	None	None	None	None	1
3.0.1	2019_Mar_04_1602	s	s	3	2	Capacity	69	ABS	0	0	2	1	24_2_1	NA	NA	0	1	0.710186004639	None	None	None	None	1
3.0.1	2019_Mar_04_1602	s	s	3	2	Capacity	70	ABS	0	0	4	1	24_4_1	NA	NA	0	1	0.822632789612	None	None	None	None	1
3.0.1	2019_Mar_04_1602	s	s	3	2	Capacity	71	4_1	4	1	1	1	23_1_1	3	0	1	0	0.51677107811	-540.0	264.0	-541.0	263.0	1
3.0.1	2019_Mar_04_1602	s	s	3	2	Capacity	72	3_1	3	1	4	1	23_4_1	-1	0	1	0	0.43834400177	-385.0	-172.0	-382.0	-174.0	1
3.0.1	2019_Mar_04_1602	s	s	3	2	Capacity	73	ABS	0	0	1	1	24_1_1	NA	NA	0	1	1.01602005959	None	None	None	None	1
3.0.1	2019_Mar_04_1602	s	s	3	2	Capacity	74	2_1	2	1	3	1	23_3_1	1	0	1	0	0.493283033371	-57.0	-33.0	-59.0	-32.0	1
3.0.1	2019_Mar_04_1602	s	s	3	2	Capacity	75	2_1	2	1	1	1	23_1_1	-1	0	1	0	4.70848703384	-65.0	71.0	-67.0	75.0	1
3.0.1	2019_Mar_04_1602	s	s	3	2	Capacity	76	ABS	0	0	3	1	24_3_1	NA	NA	0	1	0.610949039459	None	None	None	None	1
3.0.1	2019_Mar_04_1602	s	s	3	2	Capacity	77	1_1	1	1	2	1	23_2_1	1	0	0	1	0.881349802017	120.0	126.0	None	None	0
3.0.1	2019_Mar_04_1602	s	s	3	2	Capacity	78	ABS	0	0	2	1	24_2_1	NA	NA	0	1	1.11665296555	None	None	None	None	1
3.0.1	2019_Mar_04_1602	s	s	3	2	Capacity	79	3_1	3	1	2	1	23_2_1	1	0	1	0	0.999000072479	-322.0	-300.0	-322.0	-294.0	1
3.0.1	2019_Mar_04_1602	s	s	3	2	Capacity	80	ABS	0	0	4	1	24_4_1	NA	NA	0	1	0.575552940369	None	None	None	None	1
3.0.1	2019_Mar_04_1602	s	s	3	2	Capacity	81	2_1	2	1	4	1	23_4_1	2	0	1	0	0.449558019638	-371.0	-187.0	-370.0	-194.0	1
3.0.1	2019_Mar_04_1602	s	s	3	2	Capacity	82	1_1	1	1	4	1	23_4_1	3	0	1	0	0.540373086929	213.0	79.0	216.0	86.0	1
3.0.1	2019_Mar_04_1602	s	s	3	2	Capacity	83	ABS	0	0	2	1	24_2_1	NA	NA	0	1	0.810795783997	None	None	None	None	1
3.0.1	2019_Mar_04_1602	s	s	3	2	Capacity	84	ABS	0	0	1	1	24_1_1	NA	NA	0	1	1.22521519661	None	None	None	None	1
3.0.1	2019_Mar_04_1602	s	s	3	2	Capacity	85	ABS	0	0	3	1	24_3_1	NA	NA	0	1	0.672595977783	None	None	None	None	1
3.0.1	2019_Mar_04_1602	s	s	3	2	Capacity	86	4_1	4	1	1	1	23_1_1	3	0	1	0	0.511646986008	400.0	365.0	406.0	366.0	1
3.0.1	2019_Mar_04_1602	s	s	3	2	Capacity	87	3_1	3	1	4	1	23_4_1	-1	0	1	0	0.622703075409	-159.0	-373.0	-168.0	-374.0	1
3.0.1	2019_Mar_04_1602	s	s	3	2	Capacity	88	4_1	4	1	3	1	23_3_1	1	0	1	0	0.427754163742	-150.0	285.0	-151.0	286.0	1
3.0.1	2019_Mar_04_1602	s	s	3	2	Capacity	89	ABS	0	0	4	1	24_4_1	NA	NA	0	1	0.599164962769	None	None	None	None	1
3.0.1	2019_Mar_04_1602	s	s	3	2	Capacity	90	ABS	0	0	3	1	24_3_1	NA	NA	0	1	0.591704845428	None	None	None	None	1
3.0.1	2019_Mar_04_1602	s	s	3	2	Capacity	91	ABS	0	0	4	1	24_4_1	NA	NA	0	1	0.431402921677	None	None	None	None	1
3.0.1	2019_Mar_04_1602	s	s	3	2	Capacity	92	3_1	3	1	1	1	23_1_1	2	0	1	0	0.716729164124	257.0	308.0	267.0	307.0	1
3.0.1	2019_Mar_04_1602	s	s	3	2	Capacity	93	1_1	1	1	3	1	23_3_1	2	0	1	0	0.987215042114	227.0	-396.0	217.0	-397.0	1
3.0.1	2019_Mar_04_1602	s	s	3	2	Capacity	94	ABS	0	0	2	1	24_2_1	NA	NA	0	1	0.768640041351	None	None	None	None	1
3.0.1	2019_Mar_04_1602	s	s	3	2	Capacity	95	ABS	0	0	1	1	24_1_1	NA	NA	0	1	0.540301084518	None	None	None	None	1
3.0.1	2019_Mar_04_1602	s	s	3	2	Capacity	96	4_1	4	1	2	1	23_2_1	2	0	1	0	0.46208190918	227.0	138.0	233.0	137.0	1
3.0.1	2019_Mar_04_1602	s	s	3	2	Capacity	1	1_3	1	3	1	4	23_1_4	0	-1	1	0	0.554974079132	-232.0	123.0	-240.0	129.0	1
3.0.1	2019_Mar_04_1602	s	s	3	2	Capacity	2	ABS	0	0	1	4	24_1_4	NA	NA	0	1	1.11501002312	None	None	None	None	1
3.0.1	2019_Mar_04_1602	s	s	3	2	Capacity	3	ABS	0	0	1	4	24_1_4	NA	NA	0	1	1.26072216034	None	None	None	None	1
3.0.1	2019_Mar_04_1602	s	s	3	2	Capacity	4	1_3	1	3	1	2	23_1_2	0	1	1	0	1.37871599197	-81.0	-20.0	-77.0	-21.0	1
3.0.1	2019_Mar_04_1602	s	s	3	2	Capacity	5	ABS	0	0	1	1	24_1_1	NA	NA	0	1	1.36647796631	None	None	None	None	1
3.0.1	2019_Mar_04_1602	s	s	3	2	Capacity	6	1_2	1	2	1	4	23_1_4	0	2	1	0	0.6725897789	-208.0	345.0	-214.0	344.0	1
3.0.1	2019_Mar_04_1602	s	s	3	2	Capacity	7	1_1	1	1	1	3	23_1_3	0	2	1	0	0.869602918625	-128.0	300.0	-128.0	296.0	1
3.0.1	2019_Mar_04_1602	s	s	3	2	Capacity	8	1_4	1	4	1	1	23_1_1	0	3	1	0	0.744503974915	69.0	244.0	69.0	240.0	1
3.0.1	2019_Mar_04_1602	s	s	3	2	Capacity	9	ABS	0	0	1	2	24_1_2	NA	NA	0	1	1.63696289062	None	None	None	None	1
3.0.1	2019_Mar_04_1602	s	s	3	2	Capacity	10	1_4	1	4	1	3	23_1_3	0	1	1	0	0.696056842804	247.0	290.0	247.0	284.0	1
3.0.1	2019_Mar_04_1602	s	s	3	2	Capacity	11	ABS	0	0	1	1	24_1_1	NA	NA	0	1	2.29276800156	None	None	None	None	1
3.0.1	2019_Mar_04_1602	s	s	3	2	Capacity	12	ABS	0	0	1	3	24_1_3	NA	NA	0	1	2.03402495384	None	None	None	None	1
3.0.1	2019_Mar_04_1602	s	s	3	2	Capacity	13	ABS	0	0	1	2	24_1_2	NA	NA	0	1	1.60410404205	None	None	None	None	1
3.0.1	2019_Mar_04_1602	s	s	3	2	Capacity	14	ABS	0	0	1	4	24_1_4	NA	NA	0	1	1.14306902885	None	None	None	None	1
3.0.1	2019_Mar_04_1602	s	s	3	2	Capacity	15	1_4	1	4	1	2	23_1_2	0	2	1	0	1.30948901176	415.0	-389.0	420.0	-399.0	1
3.0.1	2019_Mar_04_1602	s	s	3	2	Capacity	16	ABS	0	0	1	3	24_1_3	NA	NA	0	1	1.5165040493	None	None	None	None	1
3.0.1	2019_Mar_04_1602	s	s	3	2	Capacity	17	1_1	1	1	1	2	23_1_2	0	1	1	0	1.10481214523	12.0	71.0	11.0	76.0	1
3.0.1	2019_Mar_04_1602	s	s	3	2	Capacity	18	ABS	0	0	1	1	24_1_1	NA	NA	0	1	1.96940898895	None	None	None	None	1
3.0.1	2019_Mar_04_1602	s	s	3	2	Capacity	19	ABS	0	0	1	3	24_1_3	NA	NA	0	1	1.46946692467	None	None	None	None	1
3.0.1	2019_Mar_04_1602	s	s	3	2	Capacity	20	1_1	1	1	1	4	23_1_4	0	3	1	0	0.627975940704	119.0	-219.0	120.0	-230.0	1
3.0.1	2019_Mar_04_1602	s	s	3	2	Capacity	21	1_3	1	3	1	1	23_1_1	0	2	1	0	0.696063041687	100.0	208.0	91.0	212.0	1
3.0.1	2019_Mar_04_1602	s	s	3	2	Capacity	22	1_2	1	2	1	1	23_1_1	0	-1	0	1	1.46951198578	-158.0	-289.0	None	None	0
3.0.1	2019_Mar_04_1602	s	s	3	2	Capacity	23	ABS	0	0	1	2	24_1_2	NA	NA	0	1	1.85438013077	None	None	None	None	1
3.0.1	2019_Mar_04_1602	s	s	3	2	Capacity	24	1_2	1	2	1	3	23_1_3	0	1	0	1	1.58702492714	-141.0	-371.0	None	None	0
3.0.1	2019_Mar_04_1602	s	s	3	2	Capacity	25	ABS	0	0	1	2	24_1_2	NA	NA	0	1	1.82656693459	None	None	None	None	1
3.0.1	2019_Mar_04_1602	s	s	3	2	Capacity	26	1_3	1	3	1	2	23_1_2	0	1	0	1	1.42244315147	-101.0	173.0	None	None	0
3.0.1	2019_Mar_04_1602	s	s	3	2	Capacity	27	1_3	1	3	1	1	23_1_1	0	2	1	0	1.15185499191	159.0	157.0	158.0	153.0	1
3.0.1	2019_Mar_04_1602	s	s	3	2	Capacity	28	ABS	0	0	1	3	24_1_3	NA	NA	0	1	2.43680691719	None	None	None	None	1
3.0.1	2019_Mar_04_1602	s	s	3	2	Capacity	29	ABS	0	0	1	1	24_1_1	NA	NA	0	1	1.32605600357	None	None	None	None	1
3.0.1	2019_Mar_04_1602	s	s	3	2	Capacity	30	1_1	1	1	1	3	23_1_3	0	2	1	0	1.05025815964	524.0	352.0	531.0	355.0	1
3.0.1	2019_Mar_04_1602	s	s	3	2	Capacity	31	1_4	1	4	1	1	23_1_1	0	3	0	1	1.34401011467	-288.0	343.0	None	None	0
3.0.1	2019_Mar_04_1602	s	s	3	2	Capacity	32	1_1	1	1	1	4	23_1_4	0	3	1	0	0.74332690239	-510.0	-44.0	-499.0	-44.0	1
3.0.1	2019_Mar_04_1602	s	s	3	2	Capacity	33	1_4	1	4	1	3	23_1_3	0	1	1	0	1.04875707626	-282.0	181.0	-272.0	182.0	1
3.0.1	2019_Mar_04_1602	s	s	3	2	Capacity	34	1_2	1	2	1	1	23_1_1	0	-1	1	0	1.56956195831	71.0	-88.0	73.0	-84.0	1
3.0.1	2019_Mar_04_1602	s	s	3	2	Capacity	35	ABS	0	0	1	2	24_1_2	NA	NA	0	1	1.42240691185	None	None	None	None	1
3.0.1	2019_Mar_04_1602	s	s	3	2	Capacity	36	1_1	1	1	1	2	23_1_2	0	1	0	1	1.24595379829	248.0	-261.0	None	None	0
3.0.1	2019_Mar_04_1602	s	s	3	2	Capacity	37	1_4	1	4	1	2	23_1_2	0	2	1	0	0.705378055573	500.0	187.0	494.0	183.0	1
3.0.1	2019_Mar_04_1602	s	s	3	2	Capacity	38	1_3	1	3	1	4	23_1_4	0	-1	1	0	0.496133089066	32.0	-33.0	34.0	-30.0	1
3.0.1	2019_Mar_04_1602	s	s	3	2	Capacity	39	ABS	0	0	1	4	24_1_4	NA	NA	0	1	1.56902217865	None	None	None	None	1
3.0.1	2019_Mar_04_1602	s	s	3	2	Capacity	40	ABS	0	0	1	2	24_1_2	NA	NA	0	1	1.02545785904	None	None	None	None	1
3.0.1	2019_Mar_04_1602	s	s	3	2	Capacity	41	ABS	0	0	1	1	24_1_1	NA	NA	0	1	1.14877605438	None	None	None	None	1
3.0.1	2019_Mar_04_1602	s	s	3	2	Capacity	42	1_2	1	2	1	4	23_1_4	0	2	1	0	0.547209024429	-199.0	-36.0	-199.0	-43.0	1
3.0.1	2019_Mar_04_1602	s	s	3	2	Capacity	43	ABS	0	0	1	4	24_1_4	NA	NA	0	1	0.904893159866	None	None	None	None	1
3.0.1	2019_Mar_04_1602	s	s	3	2	Capacity	44	ABS	0	0	1	4	24_1_4	NA	NA	0	1	0.98046207428	None	None	None	None	1
3.0.1	2019_Mar_04_1602	s	s	3	2	Capacity	45	ABS	0	0	1	3	24_1_3	NA	NA	0	1	1.49307084084	None	None	None	None	1
3.0.1	2019_Mar_04_1602	s	s	3	2	Capacity	46	1_2	1	2	1	3	23_1_3	0	1	0	1	1.30527591705	-317.0	106.0	None	None	0
3.0.1	2019_Mar_04_1602	s	s	3	2	Capacity	47	ABS	0	0	1	1	24_1_1	NA	NA	0	1	1.83945989609	None	None	None	None	1
3.0.1	2019_Mar_04_1602	s	s	3	2	Capacity	48	ABS	0	0	1	3	24_1_3	NA	NA	0	1	1.24606585503	None	None	None	None	1
3.0.1	2019_Mar_04_1602	s	s	3	2	Capacity	49	1_3	1	3	1	4	23_1_4	0	-1	1	0	0.613770008087	222.0	-207.0	229.0	-209.0	1
3.0.1	2019_Mar_04_1602	s	s	3	2	Capacity	50	ABS	0	0	1	1	24_1_1	NA	NA	0	1	1.65556001663	None	None	None	None	1
3.0.1	2019_Mar_04_1602	s	s	3	2	Capacity	51	ABS	0	0	1	3	24_1_3	NA	NA	0	1	2.0622689724	None	None	None	None	1
3.0.1	2019_Mar_04_1602	s	s	3	2	Capacity	52	ABS	0	0	1	3	24_1_3	NA	NA	0	1	0.92284488678	None	None	None	None	1
3.0.1	2019_Mar_04_1602	s	s	3	2	Capacity	53	ABS	0	0	1	1	24_1_1	NA	NA	0	1	1.05219602585	None	None	None	None	1
3.0.1	2019_Mar_04_1602	s	s	3	2	Capacity	54	1_4	1	4	1	1	23_1_1	0	3	1	0	0.528596878052	84.0	131.0	86.0	137.0	1
3.0.1	2019_Mar_04_1602	s	s	3	2	Capacity	55	1_2	1	2	1	1	23_1_1	0	-1	0	1	1.06963610649	500.0	-274.0	None	None	0
3.0.1	2019_Mar_04_1602	s	s	3	2	Capacity	56	1_1	1	1	1	3	23_1_3	0	2	0	1	1.36857795715	-58.0	328.0	None	None	0
3.0.1	2019_Mar_04_1602	s	s	3	2	Capacity	57	1_1	1	1	1	2	23_1_2	0	1	1	0	1.70474696159	328.0	81.0	323.0	79.0	1
3.0.1	2019_Mar_04_1602	s	s	3	2	Capacity	58	ABS	0	0	1	4	24_1_4	NA	NA	0	1	1.65092587471	None	None	None	None	1
3.0.1	2019_Mar_04_1602	s	s	3	2	Capacity	59	1_2	1	2	1	3	23_1_3	0	1	1	0	1.53256297112	219.0	337.0	211.0	332.0	1
3.0.1	2019_Mar_04_1602	s	s	3	2	Capacity	60	1_3	1	3	1	1	23_1_1	0	2	1	0	1.3352200985	-522.0	-376.0	-518.0	-379.0	1
3.0.1	2019_Mar_04_1602	s	s	3	2	Capacity	61	ABS	0	0	1	2	24_1_2	NA	NA	0	1	2.23394298553	None	None	None	None	1
3.0.1	2019_Mar_04_1602	s	s	3	2	Capacity	62	ABS	0	0	1	4	24_1_4	NA	NA	0	1	1.45156097412	None	None	None	None	1
3.0.1	2019_Mar_04_1602	s	s	3	2	Capacity	63	ABS	0	0	1	3	24_1_3	NA	NA	0	1	2.63381910324	None	None	None	None	1
3.0.1	2019_Mar_04_1602	s	s	3	2	Capacity	64	ABS	0	0	1	1	24_1_1	NA	NA	0	1	2.03944706917	None	None	None	None	1
3.0.1	2019_Mar_04_1602	s	s	3	2	Capacity	65	1_4	1	4	1	3	23_1_3	0	1	1	0	0.634395837784	-160.0	119.0	-169.0	116.0	1
3.0.1	2019_Mar_04_1602	s	s	3	2	Capacity	66	ABS	0	0	1	2	24_1_2	NA	NA	0	1	1.99097299576	None	None	None	None	1
3.0.1	2019_Mar_04_1602	s	s	3	2	Capacity	67	ABS	0	0	1	4	24_1_4	NA	NA	0	1	0.914568185806	None	None	None	None	1
3.0.1	2019_Mar_04_1602	s	s	3	2	Capacity	68	1_3	1	3	1	2	23_1_2	0	1	1	0	1.03950500488	145.0	135.0	147.0	135.0	1
3.0.1	2019_Mar_04_1602	s	s	3	2	Capacity	69	1_4	1	4	1	2	23_1_2	0	2	1	0	0.578466892242	-185.0	34.0	-187.0	36.0	1
3.0.1	2019_Mar_04_1602	s	s	3	2	Capacity	70	1_1	1	1	1	4	23_1_4	0	3	1	0	0.587344884872	-203.0	-160.0	-194.0	-158.0	1
3.0.1	2019_Mar_04_1602	s	s	3	2	Capacity	71	1_2	1	2	1	4	23_1_4	0	2	1	0	1.16658806801	-493.0	280.0	-485.0	280.0	1
3.0.1	2019_Mar_04_1602	s	s	3	2	Capacity	72	ABS	0	0	1	2	24_1_2	NA	NA	0	1	1.6459209919	None	None	None	None	1
3.0.1	2019_Mar_04_1602	s	s	3	2	Capacity	73	1_3	1	3	1	2	23_1_2	0	1	0	1	1.74307084084	-382.0	-263.0	None	None	0
3.0.1	2019_Mar_04_1602	s	s	3	2	Capacity	74	1_3	1	3	1	1	23_1_1	0	2	1	0	1.0749771595	-470.0	-179.0	-467.0	-178.0	1
3.0.1	2019_Mar_04_1602	s	s	3	2	Capacity	75	ABS	0	0	1	2	24_1_2	NA	NA	0	1	1.69287395477	None	None	None	None	1
3.0.1	2019_Mar_04_1602	s	s	3	2	Capacity	76	ABS	0	0	1	4	24_1_4	NA	NA	0	1	1.19243001938	None	None	None	None	1
3.0.1	2019_Mar_04_1602	s	s	3	2	Capacity	77	ABS	0	0	1	1	24_1_1	NA	NA	0	1	1.69291615486	None	None	None	None	1
3.0.1	2019_Mar_04_1602	s	s	3	2	Capacity	78	ABS	0	0	1	3	24_1_3	NA	NA	0	1	2.31918311119	None	None	None	None	1
3.0.1	2019_Mar_04_1602	s	s	3	2	Capacity	79	1_1	1	1	1	4	23_1_4	0	3	1	0	0.763779878616	-494.0	338.0	-496.0	339.0	1
3.0.1	2019_Mar_04_1602	s	s	3	2	Capacity	80	1_2	1	2	1	4	23_1_4	0	2	1	0	0.672684907913	-158.0	-246.0	-157.0	-248.0	1
3.0.1	2019_Mar_04_1602	s	s	3	2	Capacity	81	1_1	1	1	1	3	23_1_3	0	2	1	0	0.618999958038	81.0	211.0	82.0	209.0	1
3.0.1	2019_Mar_04_1602	s	s	3	2	Capacity	82	ABS	0	0	1	4	24_1_4	NA	NA	0	1	1.40173816681	None	None	None	None	1
3.0.1	2019_Mar_04_1602	s	s	3	2	Capacity	83	ABS	0	0	1	2	24_1_2	NA	NA	0	1	1.6975941658	None	None	None	None	1
3.0.1	2019_Mar_04_1602	s	s	3	2	Capacity	84	1_4	1	4	1	1	23_1_1	0	3	1	0	0.881393909454	422.0	12.0	417.0	13.0	1
3.0.1	2019_Mar_04_1602	s	s	3	2	Capacity	85	ABS	0	0	1	4	24_1_4	NA	NA	0	1	1.29304218292	None	None	None	None	1
3.0.1	2019_Mar_04_1602	s	s	3	2	Capacity	86	ABS	0	0	1	1	24_1_1	NA	NA	0	1	1.52080106735	None	None	None	None	1
3.0.1	2019_Mar_04_1602	s	s	3	2	Capacity	87	ABS	0	0	1	3	24_1_3	NA	NA	0	1	1.97217202187	None	None	None	None	1
3.0.1	2019_Mar_04_1602	s	s	3	2	Capacity	88	ABS	0	0	1	1	24_1_1	NA	NA	0	1	1.51094293594	None	None	None	None	1
3.0.1	2019_Mar_04_1602	s	s	3	2	Capacity	89	1_4	1	4	1	3	23_1_3	0	1	1	0	0.602046012878	120.0	-295.0	118.0	-288.0	1
3.0.1	2019_Mar_04_1602	s	s	3	2	Capacity	90	1_3	1	3	1	4	23_1_4	0	-1	1	0	0.613831043243	-142.0	75.0	-136.0	79.0	1
3.0.1	2019_Mar_04_1602	s	s	3	2	Capacity	91	ABS	0	0	1	2	24_1_2	NA	NA	0	1	1.37829017639	None	None	None	None	1
3.0.1	2019_Mar_04_1602	s	s	3	2	Capacity	92	ABS	0	0	1	3	24_1_3	NA	NA	0	1	1.43711996078	None	None	None	None	1
3.0.1	2019_Mar_04_1602	s	s	3	2	Capacity	93	1_2	1	2	1	3	23_1_3	0	1	0	1	1.34291911125	-57.0	-122.0	None	None	0
3.0.1	2019_Mar_04_1602	s	s	3	2	Capacity	94	1_1	1	1	1	2	23_1_2	0	1	0	1	1.19379591942	359.0	-28.0	None	None	0
3.0.1	2019_Mar_04_1602	s	s	3	2	Capacity	95	1_4	1	4	1	2	23_1_2	0	2	1	0	0.61860704422	249.0	-398.0	249.0	-396.0	1
3.0.1	2019_Mar_04_1602	s	s	3	2	Capacity	96	1_2	1	2	1	1	23_1_1	0	-1	0	1	1.39296603203	-269.0	-291.0	None	None	0
3.0.1	2019_Mar_04_1602	s	s	3	2	SIC	1	ABS	0	0	1	1	24_1_1	NA	NA	0	1	1.02559995651	None	None	None	None	1
3.0.1	2019_Mar_04_1602	s	s	3	2	SIC	2	1_4	1	4	2	3	23_2_3	1	1	1	0	0.663106918335	85.0	382.0	92.0	386.0	1
3.0.1	2019_Mar_04_1602	s	s	3	2	SIC	3	ABS	0	0	4	4	24_4_4	NA	NA	0	1	0.810819149017	None	None	None	None	1
3.0.1	2019_Mar_04_1602	s	s	3	2	SIC	4	3_2	3	2	1	3	23_1_3	2	1	1	0	0.646164178848	-359.0	317.0	-366.0	314.0	1
3.0.1	2019_Mar_04_1602	s	s	3	2	SIC	5	ABS	0	0	4	3	24_4_3	NA	NA	0	1	1.21558499336	None	None	None	None	1
3.0.1	2019_Mar_04_1602	s	s	3	2	SIC	6	4_4	4	4	1	3	23_1_3	3	1	1	0	0.457890033722	-1.0	79.0	-8.0	82.0	1
3.0.1	2019_Mar_04_1602	s	s	3	2	SIC	7	ABS	0	0	1	3	24_1_3	NA	NA	0	1	0.839231967926	None	None	None	None	1
3.0.1	2019_Mar_04_1602	s	s	3	2	SIC	8	4_3	4	3	3	1	23_3_1	1	2	1	0	0.57554602623	-471.0	375.0	-476.0	375.0	1
3.0.1	2019_Mar_04_1602	s	s	3	2	SIC	9	ABS	0	0	4	2	24_4_2	NA	NA	0	1	1.25124716759	None	None	None	None	1
3.0.1	2019_Mar_04_1602	s	s	3	2	SIC	10	ABS	0	0	1	3	24_1_3	NA	NA	0	1	1.96737098694	None	None	None	None	1
3.0.1	2019_Mar_04_1602	s	s	3	2	SIC	11	ABS	0	0	4	3	24_4_3	NA	NA	0	1	1.43707108498	None	None	None	None	1
3.0.1	2019_Mar_04_1602	s	s	3	2	SIC	12	3_3	3	3	4	1	23_4_1	-1	2	1	0	0.516798973083	136.0	-222.0	147.0	-222.0	1
3.0.1	2019_Mar_04_1602	s	s	3	2	SIC	13	ABS	0	0	1	4	24_1_4	NA	NA	0	1	1.04614782333	None	None	None	None	1
3.0.1	2019_Mar_04_1602	s	s	3	2	SIC	14	2_1	2	1	3	2	23_3_2	1	1	1	0	0.470151185989	70.0	89.0	73.0	90.0	1
3.0.1	2019_Mar_04_1602	s	s	3	2	SIC	15	ABS	0	0	4	4	24_4_4	NA	NA	0	1	0.662989854813	None	None	None	None	1
3.0.1	2019_Mar_04_1602	s	s	3	2	SIC	16	ABS	0	0	1	2	24_1_2	NA	NA	0	1	0.913969039917	None	None	None	None	1
3.0.1	2019_Mar_04_1602	s	s	3	2	SIC	17	ABS	0	0	2	2	24_2_2	NA	NA	0	1	0.556515932083	None	None	None	None	1
3.0.1	2019_Mar_04_1602	s	s	3	2	SIC	18	ABS	0	0	3	4	24_3_4	NA	NA	0	1	0.516839027405	None	None	None	None	1
3.0.1	2019_Mar_04_1602	s	s	3	2	SIC	19	ABS	0	0	2	3	24_2_3	NA	NA	0	1	0.613764047623	None	None	None	None	1
3.0.1	2019_Mar_04_1602	s	s	3	2	SIC	20	2_1	2	1	2	2	23_2_2	0	1	0	1	1.26067900658	52.0	-383.0	None	None	0
3.0.1	2019_Mar_04_1602	s	s	3	2	SIC	21	ABS	0	0	2	3	24_2_3	NA	NA	0	1	1.21692204475	None	None	None	None	1
3.0.1	2019_Mar_04_1602	s	s	3	2	SIC	22	2_3	2	3	1	4	23_1_4	-1	-1	1	0	0.622925043106	187.0	131.0	182.0	132.0	1
3.0.1	2019_Mar_04_1602	s	s	3	2	SIC	23	ABS	0	0	3	4	24_3_4	NA	NA	0	1	0.910401821136	None	None	None	None	1
3.0.1	2019_Mar_04_1602	s	s	3	2	SIC	24	4_3	4	3	1	1	23_1_1	3	2	1	0	0.458070993423	66.0	170.0	70.0	173.0	1
3.0.1	2019_Mar_04_1602	s	s	3	2	SIC	25	ABS	0	0	3	2	24_3_2	NA	NA	0	1	1.53317022324	None	None	None	None	1
3.0.1	2019_Mar_04_1602	s	s	3	2	SIC	26	3_2	3	2	1	1	23_1_1	2	-1	1	0	0.547110795975	199.0	59.0	208.0	62.0	1
3.0.1	2019_Mar_04_1602	s	s	3	2	SIC	27	4_3	4	3	2	3	23_2_3	2	0	1	0	0.422756910324	37.0	118.0	36.0	111.0	1
3.0.1	2019_Mar_04_1602	s	s	3	2	SIC	28	3_4	3	4	1	2	23_1_2	2	2	1	0	0.799082994461	347.0	404.0	342.0	413.0	1
3.0.1	2019_Mar_04_1602	s	s	3	2	SIC	29	ABS	0	0	2	1	24_2_1	NA	NA	0	1	0.881438970566	None	None	None	None	1
3.0.1	2019_Mar_04_1602	s	s	3	2	SIC	30	4_1	4	1	3	1	23_3_1	1	0	1	0	0.705008029938	-94.0	-113.0	-86.0	-119.0	1
3.0.1	2019_Mar_04_1602	s	s	3	2	SIC	31	ABS	0	0	2	1	24_2_1	NA	NA	0	1	0.846132993698	None	None	None	None	1
3.0.1	2019_Mar_04_1602	s	s	3	2	SIC	32	3_1	3	1	1	4	23_1_4	2	3	1	0	0.497266054153	-351.0	34.0	-353.0	39.0	1
3.0.1	2019_Mar_04_1602	s	s	3	2	SIC	33	ABS	0	0	3	2	24_3_2	NA	NA	0	1	0.686804056168	None	None	None	None	1
3.0.1	2019_Mar_04_1602	s	s	3	2	SIC	34	ABS	0	0	4	3	24_4_3	NA	NA	0	1	0.554990053177	None	None	None	None	1
3.0.1	2019_Mar_04_1602	s	s	3	2	SIC	35	ABS	0	0	1	1	24_1_1	NA	NA	0	1	0.81082701683	None	None	None	None	1
3.0.1	2019_Mar_04_1602	s	s	3	2	SIC	36	2_1	2	1	4	2	23_4_2	2	1	1	0	0.446235895157	-282.0	336.0	-290.0	333.0	1
3.0.1	2019_Mar_04_1602	s	s	3	2	SIC	37	ABS	0	0	3	4	24_3_4	NA	NA	0	1	0.740232944489	None	None	None	None	1
3.0.1	2019_Mar_04_1602	s	s	3	2	SIC	38	4_3	4	3	4	1	23_4_1	0	2	0	1	0.646167993546	451.0	247.0	None	None	0
3.0.1	2019_Mar_04_1602	s	s	3	2	SIC	39	3_1	3	1	1	2	23_1_2	2	1	1	0	0.45237994194	298.0	-149.0	299.0	-149.0	1
3.0.1	2019_Mar_04_1602	s	s	3	2	SIC	40	ABS	0	0	3	2	24_3_2	NA	NA	0	1	0.885458946228	None	None	None	None	1
3.0.1	2019_Mar_04_1602	s	s	3	2	SIC	41	2_2	2	2	1	1	23_1_1	-1	-1	1	0	1.33231711388	-97.0	-229.0	-100.0	-230.0	1
3.0.1	2019_Mar_04_1602	s	s	3	2	SIC	42	4_4	4	4	1	1	23_1_1	3	3	1	0	0.469718933105	311.0	-131.0	316.0	-132.0	1
3.0.1	2019_Mar_04_1602	s	s	3	2	SIC	43	4_4	4	4	4	2	23_4_2	0	2	1	0	0.613797187805	173.0	-362.0	177.0	-354.0	1
3.0.1	2019_Mar_04_1602	s	s	3	2	SIC	44	3_2	3	2	4	4	23_4_4	-1	2	1	0	0.416256904602	-424.0	-244.0	-422.0	-237.0	1
3.0.1	2019_Mar_04_1602	s	s	3	2	SIC	45	3_2	3	2	2	2	23_2_2	1	0	1	0	0.740243196487	-270.0	-301.0	-270.0	-311.0	1
3.0.1	2019_Mar_04_1602	s	s	3	2	SIC	46	2_3	2	3	4	4	23_4_4	2	-1	1	0	0.410972118378	104.0	-213.0	100.0	-203.0	1
3.0.1	2019_Mar_04_1602	s	s	3	2	SIC	47	ABS	0	0	2	4	24_2_4	NA	NA	1	0	1.36903095245	None	None	72.0	96.0	0
3.0.1	2019_Mar_04_1602	s	s	3	2	SIC	48	2_4	2	4	1	4	23_1_4	-1	0	0	1	0.966646909714	-463.0	-199.0	None	None	0
3.0.1	2019_Mar_04_1602	s	s	3	2	SIC	49	2_1	2	1	2	3	23_2_3	0	2	1	0	1.59889602661	-221.0	-361.0	-212.0	-354.0	1
3.0.1	2019_Mar_04_1602	s	s	3	2	SIC	50	3_1	3	1	4	4	23_4_4	-1	3	1	0	0.528569936752	503.0	56.0	502.0	48.0	1
3.0.1	2019_Mar_04_1602	s	s	3	2	SIC	51	ABS	0	0	2	3	24_2_3	NA	NA	0	1	1.15194416046	None	None	None	None	1
3.0.1	2019_Mar_04_1602	s	s	3	2	SIC	52	ABS	0	0	1	4	24_1_4	NA	NA	0	1	0.768388032913	None	None	None	None	1
3.0.1	2019_Mar_04_1602	s	s	3	2	SIC	53	2_3	2	3	4	2	23_4_2	2	1	1	0	0.469662904739	515.0	-112.0	509.0	-113.0	1
3.0.1	2019_Mar_04_1602	s	s	3	2	SIC	54	ABS	0	0	1	3	24_1_3	NA	NA	0	1	0.81094288826	None	None	None	None	1
3.0.1	2019_Mar_04_1602	s	s	3	2	SIC	55	ABS	0	0	4	1	24_4_1	NA	NA	0	1	0.775551080704	None	None	None	None	1
3.0.1	2019_Mar_04_1602	s	s	3	2	SIC	56	1_2	1	2	3	3	23_3_3	2	1	1	0	0.696187019348	496.0	-182.0	504.0	-179.0	1
3.0.1	2019_Mar_04_1602	s	s	3	2	SIC	57	1_2	1	2	4	2	23_4_2	3	0	1	0	0.501724004745	-220.0	28.0	-217.0	30.0	1
3.0.1	2019_Mar_04_1602	s	s	3	2	SIC	58	ABS	0	0	2	1	24_2_1	NA	NA	0	1	0.853018045425	None	None	None	None	1
3.0.1	2019_Mar_04_1602	s	s	3	2	SIC	59	ABS	0	0	2	3	24_2_3	NA	NA	0	1	1.21074604988	None	None	None	None	1
3.0.1	2019_Mar_04_1602	s	s	3	2	SIC	60	ABS	0	0	1	1	24_1_1	NA	NA	0	1	1.03714799881	None	None	None	None	1
3.0.1	2019_Mar_04_1602	s	s	3	2	SIC	61	ABS	0	0	3	1	24_3_1	NA	NA	0	1	0.979769945145	None	None	None	None	1
3.0.1	2019_Mar_04_1602	s	s	3	2	SIC	62	3_4	3	4	1	1	23_1_1	2	3	1	0	0.581784009933	-443.0	348.0	-435.0	344.0	1
3.0.1	2019_Mar_04_1602	s	s	3	2	SIC	63	ABS	0	0	3	3	24_3_3	NA	NA	0	1	1.25127387047	None	None	None	None	1
3.0.1	2019_Mar_04_1602	s	s	3	2	SIC	64	ABS	0	0	1	3	24_1_3	NA	NA	0	1	1.28123903275	None	None	None	None	1
3.0.1	2019_Mar_04_1602	s	s	3	2	SIC	65	2_2	2	2	2	3	23_2_3	0	1	1	0	2.4577691555	-101.0	390.0	-105.0	394.0	1
3.0.1	2019_Mar_04_1602	s	s	3	2	SIC	66	2_1	2	1	4	1	23_4_1	2	0	1	0	0.745213031769	-421.0	-52.0	-416.0	-52.0	1
3.0.1	2019_Mar_04_1602	s	s	3	2	SIC	67	2_4	2	4	1	3	23_1_3	-1	1	1	0	0.627179861069	-8.0	168.0	-4.0	163.0	1
3.0.1	2019_Mar_04_1602	s	s	3	2	SIC	68	1_2	1	2	3	1	23_3_1	2	-1	1	0	0.615415811539	299.0	375.0	309.0	376.0	1
3.0.1	2019_Mar_04_1602	s	s	3	2	SIC	69	2_1	2	1	4	4	23_4_4	2	3	1	0	0.38736987114	368.0	-62.0	371.0	-55.0	1
3.0.1	2019_Mar_04_1602	s	s	3	2	SIC	70	ABS	0	0	4	2	24_4_2	NA	NA	0	1	0.881399154663	None	None	None	None	1
3.0.1	2019_Mar_04_1602	s	s	3	2	SIC	71	ABS	0	0	3	4	24_3_4	NA	NA	0	1	0.805771112442	None	None	None	None	1
3.0.1	2019_Mar_04_1602	s	s	3	2	SIC	72	2_3	2	3	2	1	23_2_1	0	2	1	0	0.84947180748	-231.0	-182.0	-233.0	-190.0	1
3.0.1	2019_Mar_04_1602	s	s	3	2	SIC	73	4_2	4	2	2	3	23_2_3	2	1	1	0	0.452136993408	-396.0	-408.0	-406.0	-407.0	1
3.0.1	2019_Mar_04_1602	s	s	3	2	SIC	74	ABS	0	0	1	4	24_1_4	NA	NA	0	1	0.968889951706	None	None	None	None	1
3.0.1	2019_Mar_04_1602	s	s	3	2	SIC	75	4_3	4	3	1	2	23_1_2	3	1	1	0	0.425601959229	507.0	-43.0	511.0	-42.0	1
3.0.1	2019_Mar_04_1602	s	s	3	2	SIC	76	ABS	0	0	1	4	24_1_4	NA	NA	0	1	0.944552183151	None	None	None	None	1
3.0.1	2019_Mar_04_1602	s	s	3	2	SIC	77	1_2	1	2	4	1	23_4_1	3	-1	1	0	0.370672941208	105.0	27.0	111.0	26.0	1
3.0.1	2019_Mar_04_1602	s	s	3	2	SIC	78	ABS	0	0	1	4	24_1_4	NA	NA	0	1	1.0394449234	None	None	None	None	1
3.0.1	2019_Mar_04_1602	s	s	3	2	SIC	79	ABS	0	0	4	2	24_4_2	NA	NA	0	1	2.52798581123	None	None	None	None	1
3.0.1	2019_Mar_04_1602	s	s	3	2	SIC	80	ABS	0	0	2	1	24_2_1	NA	NA	0	1	0.857880830765	None	None	None	None	1
3.0.1	2019_Mar_04_1602	s	s	3	2	SIC	81	2_2	2	2	1	2	23_1_2	-1	0	0	1	1.00353813171	-320.0	-16.0	None	None	0
3.0.1	2019_Mar_04_1602	s	s	3	2	SIC	82	ABS	0	0	2	4	24_2_4	NA	NA	0	1	0.810828924179	None	None	None	None	1
3.0.1	2019_Mar_04_1602	s	s	3	2	SIC	83	1_1	1	1	4	1	23_4_1	3	0	1	0	0.446259021759	-322.0	-57.0	-318.0	-63.0	1
3.0.1	2019_Mar_04_1602	s	s	3	2	SIC	84	ABS	0	0	1	3	24_1_3	NA	NA	0	1	0.763849020004	None	None	None	None	1
3.0.1	2019_Mar_04_1602	s	s	3	2	SIC	85	ABS	0	0	4	3	24_4_3	NA	NA	0	1	1.47361302376	None	None	None	None	1
3.0.1	2019_Mar_04_1602	s	s	3	2	SIC	86	1_3	1	3	1	2	23_1_2	0	1	1	0	1.77528500557	384.0	43.0	379.0	40.0	1
3.0.1	2019_Mar_04_1602	s	s	3	2	SIC	87	ABS	0	0	2	4	24_2_4	NA	NA	0	1	1.20178794861	None	None	None	None	1
3.0.1	2019_Mar_04_1602	s	s	3	2	SIC	88	ABS	0	0	4	4	24_4_4	NA	NA	0	1	0.613780975342	None	None	None	None	1
3.0.1	2019_Mar_04_1602	s	s	3	2	SIC	89	ABS	0	0	3	1	24_3_1	NA	NA	0	1	1.79871797562	None	None	None	None	1
3.0.1	2019_Mar_04_1602	s	s	3	2	SIC	90	ABS	0	0	2	2	24_2_2	NA	NA	0	1	2.85043382645	None	None	None	None	1
3.0.1	2019_Mar_04_1602	s	s	3	2	SIC	91	ABS	0	0	4	4	24_4_4	NA	NA	0	1	1.15198206902	None	None	None	None	1
3.0.1	2019_Mar_04_1602	s	s	3	2	SIC	92	2_4	2	4	1	1	23_1_1	-1	3	1	0	0.516788959503	350.0	-117.0	358.0	-122.0	1
3.0.1	2019_Mar_04_1602	s	s	3	2	SIC	93	1_4	1	4	3	2	23_3_2	2	2	1	0	0.427451848984	169.0	-46.0	163.0	-38.0	1
3.0.1	2019_Mar_04_1602	s	s	3	2	SIC	94	4_4	4	4	2	4	23_2_4	2	0	1	0	0.650820970535	-122.0	9.0	-130.0	4.0	1
3.0.1	2019_Mar_04_1602	s	s	3	2	SIC	95	ABS	0	0	3	1	24_3_1	NA	NA	0	1	1.60361504555	None	None	None	None	1
3.0.1	2019_Mar_04_1602	s	s	3	2	SIC	96	ABS	0	0	4	2	24_4_2	NA	NA	0	1	1.64917397499	None	None	None	None	1
3.0.1	2019_Mar_04_1602	s	s	3	2	SIC	97	ABS	0	0	3	1	24_3_1	NA	NA	0	1	1.0817899704	None	None	None	None	1
3.0.1	2019_Mar_04_1602	s	s	3	2	SIC	98	1_3	1	3	1	4	23_1_4	0	-1	1	0	0.568101167679	259.0	-107.0	252.0	-102.0	1
3.0.1	2019_Mar_04_1602	s	s	3	2	SIC	99	1_3	1	3	2	1	23_2_1	1	2	1	0	1.61349892616	163.0	-324.0	164.0	-326.0	1
3.0.1	2019_Mar_04_1602	s	s	3	2	SIC	100	ABS	0	0	1	3	24_1_3	NA	NA	0	1	1.64583802223	None	None	None	None	1
3.0.1	2019_Mar_04_1602	s	s	3	2	SIC	101	3_3	3	3	1	1	23_1_1	2	2	1	0	0.881333827972	-369.0	-271.0	-371.0	-274.0	1
3.0.1	2019_Mar_04_1602	s	s	3	2	SIC	102	4_3	4	3	2	4	23_2_4	2	-1	1	0	0.427473068237	-159.0	49.0	-160.0	45.0	1
3.0.1	2019_Mar_04_1602	s	s	3	2	SIC	103	ABS	0	0	1	3	24_1_3	NA	NA	0	1	1.41067004204	None	None	None	None	1
3.0.1	2019_Mar_04_1602	s	s	3	2	SIC	104	ABS	0	0	1	1	24_1_1	NA	NA	0	1	1.02952504158	None	None	None	None	1
3.0.1	2019_Mar_04_1602	s	s	3	2	SIC	105	1_2	1	2	4	3	23_4_3	3	1	1	0	0.563884019852	40.0	403.0	38.0	408.0	1
3.0.1	2019_Mar_04_1602	s	s	3	2	SIC	106	ABS	0	0	1	1	24_1_1	NA	NA	0	1	1.28517508507	None	None	None	None	1
3.0.1	2019_Mar_04_1602	s	s	3	2	SIC	107	2_2	2	2	4	2	23_4_2	2	0	1	0	0.437482833862	-253.0	-164.0	-258.0	-165.0	1
3.0.1	2019_Mar_04_1602	s	s	3	2	SIC	108	4_3	4	3	2	1	23_2_1	2	2	1	0	0.446259021759	-143.0	21.0	-151.0	23.0	1
3.0.1	2019_Mar_04_1602	s	s	3	2	SIC	109	ABS	0	0	4	1	24_4_1	NA	NA	0	1	0.940146207809	None	None	None	None	1
3.0.1	2019_Mar_04_1602	s	s	3	2	SIC	110	3_1	3	1	2	3	23_2_3	1	2	1	0	0.528559207916	214.0	160.0	222.0	157.0	1
3.0.1	2019_Mar_04_1602	s	s	3	2	SIC	111	ABS	0	0	4	4	24_4_4	NA	NA	0	1	0.966568946838	None	None	None	None	1
3.0.1	2019_Mar_04_1602	s	s	3	2	SIC	112	ABS	0	0	2	4	24_2_4	NA	NA	0	1	1.02543997765	None	None	None	None	1
3.0.1	2019_Mar_04_1602	s	s	3	2	SIC	113	ABS	0	0	2	2	24_2_2	NA	NA	0	1	0.74322104454	None	None	None	None	1
3.0.1	2019_Mar_04_1602	s	s	3	2	SIC	114	4_1	4	1	2	3	23_2_3	2	2	1	0	1.11013579369	-242.0	-247.0	-244.0	-241.0	1
3.0.1	2019_Mar_04_1602	s	s	3	2	SIC	115	ABS	0	0	4	3	24_4_3	NA	NA	0	1	2.36334300041	None	None	None	None	1
3.0.1	2019_Mar_04_1602	s	s	3	2	SIC	116	4_2	4	2	1	2	23_1_2	3	0	1	0	0.543246030807	-484.0	-202.0	-491.0	-205.0	1
3.0.1	2019_Mar_04_1602	s	s	3	2	SIC	117	4_2	4	2	3	1	23_3_1	1	-1	1	0	0.426074028015	-344.0	-226.0	-341.0	-225.0	1
3.0.1	2019_Mar_04_1602	s	s	3	2	SIC	118	ABS	0	0	2	3	24_2_3	NA	NA	0	1	1.42236399651	None	None	None	None	1
3.0.1	2019_Mar_04_1602	s	s	3	2	SIC	119	4_2	4	2	4	4	23_4_4	0	2	1	0	0.540319919586	-11.0	-259.0	-8.0	-253.0	1
3.0.1	2019_Mar_04_1602	s	s	3	2	SIC	120	ABS	0	0	2	3	24_2_3	NA	NA	0	1	2.2391409874	None	None	None	None	1
3.0.1	2019_Mar_04_1602	s	s	3	2	SIC	121	4_1	4	1	4	3	23_4_3	0	2	1	0	0.540349960327	199.0	69.0	202.0	69.0	1
3.0.1	2019_Mar_04_1602	s	s	3	2	SIC	122	1_1	1	1	2	1	23_2_1	1	0	0	1	1.42904996872	-51.0	263.0	None	None	0
3.0.1	2019_Mar_04_1602	s	s	3	2	SIC	123	ABS	0	0	4	4	24_4_4	NA	NA	0	1	1.10485196114	None	None	None	None	1
3.0.1	2019_Mar_04_1602	s	s	3	2	SIC	124	1_4	1	4	1	3	23_1_3	0	1	1	0	0.613814115524	464.0	-44.0	469.0	-41.0	1
3.0.1	2019_Mar_04_1602	s	s	3	2	SIC	125	ABS	0	0	4	4	24_4_4	NA	NA	0	1	0.940193891525	None	None	None	None	1
3.0.1	2019_Mar_04_1602	s	s	3	2	SIC	126	ABS	0	0	4	3	24_4_3	NA	NA	0	1	1.96864390373	None	None	None	None	1
3.0.1	2019_Mar_04_1602	s	s	3	2	SIC	127	ABS	0	0	3	3	24_3_3	NA	NA	0	1	1.65762209892	None	None	None	None	1
3.0.1	2019_Mar_04_1602	s	s	3	2	SIC	128	ABS	0	0	3	1	24_3_1	NA	NA	0	1	0.677349090576	None	None	None	None	1
3.0.1	2019_Mar_04_1602	s	s	3	2	SIC	129	3_3	3	3	1	2	23_1_2	2	1	1	0	0.790266990662	-510.0	241.0	-504.0	233.0	1
3.0.1	2019_Mar_04_1602	s	s	3	2	SIC	130	4_2	4	2	4	1	23_4_1	0	-1	0	1	0.8275141716	-121.0	-80.0	None	None	0
3.0.1	2019_Mar_04_1602	s	s	3	2	SIC	131	ABS	0	0	2	2	24_2_2	NA	NA	0	1	1.23422908783	None	None	None	None	1
3.0.1	2019_Mar_04_1602	s	s	3	2	SIC	132	ABS	0	0	1	2	24_1_2	NA	NA	0	1	0.562250852585	None	None	None	None	1
3.0.1	2019_Mar_04_1602	s	s	3	2	SIC	133	ABS	0	0	3	2	24_3_2	NA	NA	0	1	0.657947063446	None	None	None	None	1
3.0.1	2019_Mar_04_1602	s	s	3	2	SIC	134	ABS	0	0	2	4	24_2_4	NA	NA	0	1	1.24598789215	None	None	None	None	1
3.0.1	2019_Mar_04_1602	s	s	3	2	SIC	135	ABS	0	0	2	1	24_2_1	NA	NA	0	1	0.579655170441	None	None	None	None	1
3.0.1	2019_Mar_04_1602	s	s	3	2	SIC	136	ABS	0	0	4	4	24_4_4	NA	NA	0	1	0.907840967178	None	None	None	None	1
3.0.1	2019_Mar_04_1602	s	s	3	2	SIC	137	3_4	3	4	3	2	23_3_2	0	2	1	0	0.547060966492	459.0	-277.0	468.0	-280.0	1
3.0.1	2019_Mar_04_1602	s	s	3	2	SIC	138	4_1	4	1	1	3	23_1_3	3	2	1	0	0.560496091843	-430.0	71.0	-434.0	71.0	1
3.0.1	2019_Mar_04_1602	s	s	3	2	SIC	139	3_2	3	2	2	1	23_2_1	1	-1	0	1	1.04604005814	-377.0	286.0	None	None	0
3.0.1	2019_Mar_04_1602	s	s	3	2	SIC	140	ABS	0	0	1	3	24_1_3	NA	NA	0	1	1.62526798248	None	None	None	None	1
3.0.1	2019_Mar_04_1602	s	s	3	2	SIC	141	ABS	0	0	4	3	24_4_3	NA	NA	0	1	0.881478071213	None	None	None	None	1
3.0.1	2019_Mar_04_1602	s	s	3	2	SIC	142	ABS	0	0	4	3	24_4_3	NA	NA	0	1	0.799492120743	None	None	None	None	1
3.0.1	2019_Mar_04_1602	s	s	3	2	SIC	143	3_1	3	1	4	2	23_4_2	-1	1	1	0	0.815572977066	-521.0	-335.0	-505.0	-326.0	1
3.0.1	2019_Mar_04_1602	s	s	3	2	SIC	144	4_4	4	4	2	1	23_2_1	2	3	1	0	0.521222114563	250.0	212.0	262.0	220.0	1
3.0.1	2019_Mar_04_1602	s	s	3	2	SIC	145	ABS	0	0	2	3	24_2_3	NA	NA	0	1	1.71646094322	None	None	None	None	1
3.0.1	2019_Mar_04_1602	s	s	3	2	SIC	146	1_4	1	4	1	1	23_1_1	0	3	1	0	0.521301031113	414.0	-102.0	408.0	-101.0	1
3.0.1	2019_Mar_04_1602	s	s	3	2	SIC	147	ABS	0	0	4	3	24_4_3	NA	NA	0	1	0.869579076767	None	None	None	None	1
3.0.1	2019_Mar_04_1602	s	s	3	2	SIC	148	ABS	0	0	2	4	24_2_4	NA	NA	0	1	0.731408119202	None	None	None	None	1
3.0.1	2019_Mar_04_1602	s	s	3	2	SIC	149	ABS	0	0	3	2	24_3_2	NA	NA	0	1	0.822553157806	None	None	None	None	1
3.0.1	2019_Mar_04_1602	s	s	3	2	SIC	150	1_4	1	4	4	3	23_4_3	3	1	1	0	0.45796585083	170.0	-35.0	179.0	-35.0	1
3.0.1	2019_Mar_04_1602	s	s	3	2	SIC	151	4_1	4	1	1	1	23_1_1	3	0	1	0	1.03258705139	422.0	165.0	434.0	167.0	1
3.0.1	2019_Mar_04_1602	s	s	3	2	SIC	152	ABS	0	0	2	1	24_2_1	NA	NA	0	1	0.657927036285	None	None	None	None	1
3.0.1	2019_Mar_04_1602	s	s	3	2	SIC	153	1_1	1	1	2	2	23_2_2	1	1	1	0	0.816884040833	305.0	80.0	363.0	197.0	0
3.0.1	2019_Mar_04_1602	s	s	3	2	SIC	154	ABS	0	0	1	2	24_1_2	NA	NA	0	1	1.56359791756	None	None	None	None	1
3.0.1	2019_Mar_04_1602	s	s	3	2	SIC	155	ABS	0	0	1	3	24_1_3	NA	NA	0	1	1.47462296486	None	None	None	None	1
3.0.1	2019_Mar_04_1602	s	s	3	2	SIC	156	3_3	3	3	2	4	23_2_4	1	-1	1	0	0.67901802063	162.0	322.0	158.0	331.0	1
3.0.1	2019_Mar_04_1602	s	s	3	2	SIC	157	ABS	0	0	1	4	24_1_4	NA	NA	0	1	0.775624990463	None	None	None	None	1
3.0.1	2019_Mar_04_1602	s	s	3	2	SIC	158	2_4	2	4	2	3	23_2_3	0	1	1	0	0.815758943558	-525.0	387.0	-527.0	388.0	1
3.0.1	2019_Mar_04_1602	s	s	3	2	SIC	159	1_3	1	3	3	2	23_3_2	2	1	1	0	0.751989126205	426.0	59.0	430.0	53.0	1
3.0.1	2019_Mar_04_1602	s	s	3	2	SIC	160	1_2	1	2	2	4	23_2_4	1	2	1	0	0.66162109375	509.0	123.0	517.0	126.0	1
3.0.1	2019_Mar_04_1602	s	s	3	2	SIC	161	3_4	3	4	4	1	23_4_1	-1	3	1	0	0.415835857391	534.0	56.0	535.0	62.0	1
3.0.1	2019_Mar_04_1602	s	s	3	2	SIC	162	3_3	3	3	2	1	23_2_1	1	2	1	0	1.14302611351	-496.0	-279.0	-498.0	-280.0	1
3.0.1	2019_Mar_04_1602	s	s	3	2	SIC	163	ABS	0	0	1	3	24_1_3	NA	NA	1	0	0.458002090454	None	None	64.0	-20.0	0
3.0.1	2019_Mar_04_1602	s	s	3	2	SIC	164	ABS	0	0	2	4	24_2_4	NA	NA	0	1	0.885960102081	None	None	None	None	1
3.0.1	2019_Mar_04_1602	s	s	3	2	SIC	165	1_4	1	4	4	1	23_4_1	3	3	1	0	0.493339061737	363.0	195.0	358.0	194.0	1
3.0.1	2019_Mar_04_1602	s	s	3	2	SIC	166	ABS	0	0	2	4	24_2_4	NA	NA	0	1	0.854192018509	None	None	None	None	1
3.0.1	2019_Mar_04_1602	s	s	3	2	SIC	167	ABS	0	0	3	2	24_3_2	NA	NA	0	1	0.75196313858	None	None	None	None	1
3.0.1	2019_Mar_04_1602	s	s	3	2	SIC	168	ABS	0	0	2	2	24_2_2	NA	NA	0	1	1.04138684273	None	None	None	None	1
3.0.1	2019_Mar_04_1602	s	s	3	2	SIC	169	ABS	0	0	4	1	24_4_1	NA	NA	0	1	0.874402999878	None	None	None	None	1
3.0.1	2019_Mar_04_1602	s	s	3	2	SIC	170	ABS	0	0	3	3	24_3_3	NA	NA	0	1	1.35680294037	None	None	None	None	1
3.0.1	2019_Mar_04_1602	s	s	3	2	SIC	171	1_4	1	4	4	2	23_4_2	3	2	1	0	0.493283033371	273.0	-374.0	278.0	-376.0	1
3.0.1	2019_Mar_04_1602	s	s	3	2	SIC	172	ABS	0	0	3	1	24_3_1	NA	NA	0	1	1.22895288467	None	None	None	None	1
3.0.1	2019_Mar_04_1602	s	s	3	2	SIC	173	ABS	0	0	2	1	24_2_1	NA	NA	0	1	1.35181999207	None	None	None	None	1
3.0.1	2019_Mar_04_1602	s	s	3	2	SIC	174	2_4	2	4	1	2	23_1_2	-1	2	1	0	0.545732975006	-300.0	-157.0	-307.0	-161.0	1
3.0.1	2019_Mar_04_1602	s	s	3	2	SIC	175	4_2	4	2	3	4	23_3_4	1	2	1	0	0.438410043716	-357.0	-368.0	-361.0	-367.0	1
3.0.1	2019_Mar_04_1602	s	s	3	2	SIC	176	ABS	0	0	3	3	24_3_3	NA	NA	0	1	1.0842590332	None	None	None	None	1
3.0.1	2019_Mar_04_1602	s	s	3	2	SIC	177	ABS	0	0	1	1	24_1_1	NA	NA	0	1	0.664942026138	None	None	None	None	1
3.0.1	2019_Mar_04_1602	s	s	3	2	SIC	178	3_2	3	2	2	4	23_2_4	1	2	1	0	0.474276065826	372.0	123.0	370.0	125.0	1
3.0.1	2019_Mar_04_1602	s	s	3	2	SIC	179	4_2	4	2	4	3	23_4_3	0	1	0	1	0.84943985939	47.0	-279.0	None	None	0
3.0.1	2019_Mar_04_1602	s	s	3	2	SIC	180	ABS	0	0	4	2	24_4_2	NA	NA	0	1	3.50916385651	None	None	None	None	1
3.0.1	2019_Mar_04_1602	s	s	3	2	SIC	181	2_3	2	3	1	3	23_1_3	-1	0	0	1	1.16365098953	-143.0	-195.0	None	None	0
3.0.1	2019_Mar_04_1602	s	s	3	2	SIC	182	4_3	4	3	4	2	23_4_2	0	1	0	1	0.767579078674	-523.0	-225.0	None	None	0
3.0.1	2019_Mar_04_1602	s	s	3	2	SIC	183	ABS	0	0	2	1	24_2_1	NA	NA	0	1	0.896184921265	None	None	None	None	1
3.0.1	2019_Mar_04_1602	s	s	3	2	SIC	184	ABS	0	0	4	2	24_4_2	NA	NA	0	1	0.696303844452	None	None	None	None	1
3.0.1	2019_Mar_04_1602	s	s	3	2	SIC	185	ABS	0	0	1	2	24_1_2	NA	NA	0	1	0.916728973389	None	None	None	None	1
3.0.1	2019_Mar_04_1602	s	s	3	2	SIC	186	ABS	0	0	2	4	24_2_4	NA	NA	0	1	1.08609390259	None	None	None	None	1
3.0.1	2019_Mar_04_1602	s	s	3	2	SIC	187	ABS	0	0	3	3	24_3_3	NA	NA	0	1	1.77922201157	None	None	None	None	1
3.0.1	2019_Mar_04_1602	s	s	3	2	SIC	188	2_3	2	3	1	2	23_1_2	-1	1	1	0	1.12100315094	-168.0	112.0	-174.0	109.0	1
3.0.1	2019_Mar_04_1602	s	s	3	2	SIC	189	ABS	0	0	1	1	24_1_1	NA	NA	0	1	1.34008002281	None	None	None	None	1
3.0.1	2019_Mar_04_1602	s	s	3	2	SIC	190	4_1	4	1	4	2	23_4_2	0	1	0	1	1.22245502472	-167.0	-93.0	None	None	0
3.0.1	2019_Mar_04_1602	s	s	3	2	SIC	191	2_4	2	4	2	1	23_2_1	0	3	1	0	0.663269996643	-416.0	126.0	-418.0	125.0	1
3.0.1	2019_Mar_04_1602	s	s	3	2	SIC	192	ABS	0	0	3	1	24_3_1	NA	NA	0	1	1.08134198189	None	None	None	None	1
3.0.1	2019_Mar_04_1602	s	s	3	2	SIC	193	ABS	0	0	2	3	24_2_3	NA	NA	0	1	2.05138802528	None	None	None	None	1
3.0.1	2019_Mar_04_1602	s	s	3	2	SIC	194	3_3	3	3	1	4	23_1_4	2	-1	1	0	0.505070924759	-174.0	-1.0	-171.0	-8.0	1
3.0.1	2019_Mar_04_1602	s	s	3	2	SIC	195	2_2	2	2	1	4	23_1_4	-1	2	1	0	0.496165990829	191.0	-70.0	189.0	-64.0	1
3.0.1	2019_Mar_04_1602	s	s	3	2	SIC	196	1_1	1	1	4	2	23_4_2	3	1	1	0	0.442126989365	-116.0	320.0	-120.0	314.0	1
3.0.1	2019_Mar_04_1602	s	s	3	2	SIC	197	3_2	3	2	4	2	23_4_2	-1	0	1	0	0.469717025757	492.0	-170.0	494.0	-162.0	1
3.0.1	2019_Mar_04_1602	s	s	3	2	SIC	198	ABS	0	0	4	3	24_4_3	NA	NA	0	1	0.716835975647	None	None	None	None	1
3.0.1	2019_Mar_04_1602	s	s	3	2	SIC	199	4_2	4	2	1	3	23_1_3	3	1	1	0	0.437399148941	-221.0	145.0	-218.0	144.0	1
3.0.1	2019_Mar_04_1602	s	s	3	2	SIC	200	ABS	0	0	1	1	24_1_1	NA	NA	0	1	0.719640016556	None	None	None	None	1
3.0.1	2019_Mar_04_1602	s	s	3	2	SIC	201	ABS	0	0	2	1	24_2_1	NA	NA	0	1	0.664697170258	None	None	None	None	1
3.0.1	2019_Mar_04_1602	s	s	3	2	SIC	202	ABS	0	0	1	2	24_1_2	NA	NA	0	1	0.79113483429	None	None	None	None	1
3.0.1	2019_Mar_04_1602	s	s	3	2	SIC	203	ABS	0	0	1	2	24_1_2	NA	NA	0	1	0.799187898636	None	None	None	None	1
3.0.1	2019_Mar_04_1602	s	s	3	2	SIC	204	1_3	1	3	3	4	23_3_4	2	-1	1	0	0.731426000595	-434.0	-311.0	-430.0	-318.0	1
3.0.1	2019_Mar_04_1602	s	s	3	2	SIC	205	ABS	0	0	1	2	24_1_2	NA	NA	0	1	0.751997947693	None	None	None	None	1
3.0.1	2019_Mar_04_1602	s	s	3	2	SIC	206	ABS	0	0	4	4	24_4_4	NA	NA	0	1	0.763825893402	None	None	None	None	1
3.0.1	2019_Mar_04_1602	s	s	3	2	SIC	207	ABS	0	0	4	2	24_4_2	NA	NA	0	1	0.928460121155	None	None	None	None	1
3.0.1	2019_Mar_04_1602	s	s	3	2	SIC	208	ABS	0	0	2	1	24_2_1	NA	NA	0	1	1.13524007797	None	None	None	None	1
3.0.1	2019_Mar_04_1602	s	s	3	2	SIC	209	4_1	4	1	3	3	23_3_3	1	2	1	0	0.81080698967	-341.0	168.0	-340.0	170.0	1
3.0.1	2019_Mar_04_1602	s	s	3	2	SIC	210	1_1	1	1	1	2	23_1_2	0	1	0	1	3.43890285492	-518.0	397.0	None	None	0
3.0.1	2019_Mar_04_1602	s	s	3	2	SIC	211	1_3	1	3	4	1	23_4_1	3	2	1	0	0.505054950714	37.0	325.0	47.0	329.0	1
3.0.1	2019_Mar_04_1602	s	s	3	2	SIC	212	4_4	4	4	3	2	23_3_2	1	2	1	0	0.490869998932	502.0	51.0	508.0	49.0	1
3.0.1	2019_Mar_04_1602	s	s	3	2	SIC	213	ABS	0	0	4	1	24_4_1	NA	NA	0	1	0.933014154434	None	None	None	None	1
3.0.1	2019_Mar_04_1602	s	s	3	2	SIC	214	ABS	0	0	4	1	24_4_1	NA	NA	0	1	0.469748973846	None	None	None	None	1
3.0.1	2019_Mar_04_1602	s	s	3	2	SIC	215	4_1	4	1	4	4	23_4_4	0	3	1	0	0.446600914001	-182.0	-59.0	-182.0	-56.0	1
3.0.1	2019_Mar_04_1602	s	s	3	2	SIC	216	ABS	0	0	4	2	24_4_2	NA	NA	0	1	0.599174976349	None	None	None	None	1
3.0.1	2019_Mar_04_1602	s	s	3	2	SIC	217	2_1	2	1	3	1	23_3_1	1	0	1	0	0.873259067535	36.0	367.0	41.0	357.0	1
3.0.1	2019_Mar_04_1602	s	s	3	2	SIC	218	4_1	4	1	2	4	23_2_4	2	3	1	0	0.451413154602	385.0	-276.0	390.0	-275.0	1
3.0.1	2019_Mar_04_1602	s	s	3	2	SIC	219	1_4	1	4	3	4	23_3_4	2	0	1	0	0.434551000595	189.0	-212.0	186.0	-213.0	1
3.0.1	2019_Mar_04_1602	s	s	3	2	SIC	220	1_2	1	2	2	1	23_2_1	1	-1	0	1	0.940122127533	26.0	-383.0	None	None	0
3.0.1	2019_Mar_04_1602	s	s	3	2	SIC	221	3_3	3	3	4	3	23_4_3	-1	0	1	0	0.516824960709	100.0	406.0	105.0	406.0	1
3.0.1	2019_Mar_04_1602	s	s	3	2	SIC	222	4_1	4	1	2	2	23_2_2	2	1	1	0	0.404366016388	116.0	28.0	111.0	35.0	1
3.0.1	2019_Mar_04_1602	s	s	3	2	SIC	223	2_2	2	2	1	3	23_1_3	-1	1	1	0	1.42523288727	-431.0	223.0	-436.0	226.0	1
3.0.1	2019_Mar_04_1602	s	s	3	2	SIC	224	2_3	2	3	2	2	23_2_2	0	1	0	1	1.52836203575	403.0	336.0	None	None	0
3.0.1	2019_Mar_04_1602	s	s	3	2	SIC	225	ABS	0	0	3	3	24_3_3	NA	NA	0	1	0.806317090988	None	None	None	None	1
3.0.1	2019_Mar_04_1602	s	s	3	2	SIC	226	ABS	0	0	1	1	24_1_1	NA	NA	0	1	1.12830805779	None	None	None	None	1
3.0.1	2019_Mar_04_1602	s	s	3	2	SIC	227	ABS	0	0	3	1	24_3_1	NA	NA	0	1	0.839617967606	None	None	None	None	1
3.0.1	2019_Mar_04_1602	s	s	3	2	SIC	228	ABS	0	0	3	2	24_3_2	NA	NA	0	1	0.627100944519	None	None	None	None	1
3.0.1	2019_Mar_04_1602	s	s	3	2	SIC	229	ABS	0	0	1	1	24_1_1	NA	NA	0	1	0.587337017059	None	None	None	None	1
3.0.1	2019_Mar_04_1602	s	s	3	2	SIC	230	3_3	3	3	3	1	23_3_1	0	2	1	0	1.02536296844	408.0	-122.0	419.0	-120.0	1
3.0.1	2019_Mar_04_1602	s	s	3	2	SIC	231	2_1	2	1	1	4	23_1_4	-1	3	1	0	0.634356021881	-229.0	322.0	-220.0	326.0	1
3.0.1	2019_Mar_04_1602	s	s	3	2	SIC	232	ABS	0	0	1	2	24_1_2	NA	NA	0	1	1.27444005013	None	None	None	None	1
3.0.1	2019_Mar_04_1602	s	s	3	2	SIC	233	2_2	2	2	4	1	23_4_1	2	-1	1	0	0.405575990677	-37.0	3.0	-29.0	10.0	1
3.0.1	2019_Mar_04_1602	s	s	3	2	SIC	234	4_2	4	2	3	2	23_3_2	1	0	1	0	0.516751050949	531.0	266.0	528.0	269.0	1
3.0.1	2019_Mar_04_1602	s	s	3	2	SIC	235	2_1	2	1	4	3	23_4_3	2	2	1	0	0.450784921646	95.0	-330.0	86.0	-330.0	1
3.0.1	2019_Mar_04_1602	s	s	3	2	SIC	236	2_2	2	2	3	3	23_3_3	1	1	1	0	0.599128961563	-292.0	-291.0	-289.0	-301.0	1
3.0.1	2019_Mar_04_1602	s	s	3	2	SIC	237	ABS	0	0	2	2	24_2_2	NA	NA	0	1	1.86927604675	None	None	None	None	1
3.0.1	2019_Mar_04_1602	s	s	3	2	SIC	238	ABS	0	0	2	2	24_2_2	NA	NA	0	1	0.693092107773	None	None	None	None	1
3.0.1	2019_Mar_04_1602	s	s	3	2	SIC	239	3_2	3	2	3	4	23_3_4	0	2	1	0	0.481591939926	-264.0	-88.0	-264.0	-82.0	1
3.0.1	2019_Mar_04_1602	s	s	3	2	SIC	240	ABS	0	0	1	4	24_1_4	NA	NA	0	1	1.0747320652	None	None	None	None	1
3.0.1	2019_Mar_04_1602	s	s	3	2	SIC	241	3_2	3	2	4	3	23_4_3	-1	1	1	0	0.5992000103	-4.0	24.0	3.0	27.0	1
3.0.1	2019_Mar_04_1602	s	s	3	2	SIC	242	2_3	2	3	4	1	23_4_1	2	2	1	0	0.410966873169	49.0	-266.0	47.0	-269.0	1
3.0.1	2019_Mar_04_1602	s	s	3	2	SIC	243	ABS	0	0	4	1	24_4_1	NA	NA	0	1	2.03247714043	None	None	None	None	1
3.0.1	2019_Mar_04_1602	s	s	3	2	SIC	244	ABS	0	0	4	1	24_4_1	NA	NA	0	1	1.8268430233	None	None	None	None	1
3.0.1	2019_Mar_04_1602	s	s	3	2	SIC	245	ABS	0	0	1	1	24_1_1	NA	NA	0	1	1.57528996468	None	None	None	None	1
3.0.1	2019_Mar_04_1602	s	s	3	2	SIC	246	3_3	3	3	4	4	23_4_4	-1	-1	1	0	0.496232032776	194.0	130.0	194.0	131.0	1
3.0.1	2019_Mar_04_1602	s	s	3	2	SIC	247	2_3	2	3	3	2	23_3_2	1	1	1	0	0.442867040634	236.0	-87.0	229.0	-92.0	1
3.0.1	2019_Mar_04_1602	s	s	3	2	SIC	248	1_4	1	4	2	2	23_2_2	1	2	1	0	0.560534000397	424.0	308.0	422.0	308.0	1
3.0.1	2019_Mar_04_1602	s	s	3	2	SIC	249	1_3	1	3	3	3	23_3_3	2	0	1	0	0.549456119537	-459.0	-260.0	-452.0	-261.0	1
3.0.1	2019_Mar_04_1602	s	s	3	2	SIC	250	ABS	0	0	4	2	24_4_2	NA	NA	0	1	4.53918814659	None	None	None	None	1
3.0.1	2019_Mar_04_1602	s	s	3	2	SIC	251	4_2	4	2	1	4	23_1_4	3	2	1	0	0.422671079636	-438.0	0.0	-445.0	-1.0	1
3.0.1	2019_Mar_04_1602	s	s	3	2	SIC	252	1_2	1	2	2	3	23_2_3	1	1	1	0	2.24573111534	504.0	-205.0	508.0	-203.0	1
3.0.1	2019_Mar_04_1602	s	s	3	2	SIC	253	1_4	1	4	2	1	23_2_1	1	3	1	0	0.497175931931	111.0	-162.0	109.0	-165.0	1
3.0.1	2019_Mar_04_1602	s	s	3	2	SIC	254	ABS	0	0	1	4	24_1_4	NA	NA	0	1	2.28141212463	None	None	None	None	1
3.0.1	2019_Mar_04_1602	s	s	3	2	SIC	255	ABS	0	0	2	4	24_2_4	NA	NA	0	1	1.78993988037	None	None	None	None	1
3.0.1	2019_Mar_04_1602	s	s	3	2	SIC	256	4_4	4	4	3	4	23_3_4	1	0	1	0	0.687932014465	-454.0	-220.0	-448.0	-221.0	1
3.0.1	2019_Mar_04_1602	s	s	3	2	SIC	257	3_2	3	2	3	3	23_3_3	0	1	1	0	1.2082529068	-470.0	171.0	-467.0	173.0	1
3.0.1	2019_Mar_04_1602	s	s	3	2	SIC	258	ABS	0	0	2	2	24_2_2	NA	NA	0	1	3.95113801956	None	None	None	None	1
3.0.1	2019_Mar_04_1602	s	s	3	2	SIC	259	2_4	2	4	4	4	23_4_4	2	0	1	0	0.486189126968	-189.0	162.0	-188.0	161.0	1
3.0.1	2019_Mar_04_1602	s	s	3	2	SIC	260	ABS	0	0	1	1	24_1_1	NA	NA	0	1	1.76823711395	None	None	None	None	1
3.0.1	2019_Mar_04_1602	s	s	3	2	SIC	261	4_2	4	2	2	1	23_2_1	2	-1	1	0	0.415821075439	180.0	53.0	177.0	48.0	1
3.0.1	2019_Mar_04_1602	s	s	3	2	SIC	262	ABS	0	0	4	3	24_4_3	NA	NA	0	1	3.21011590958	None	None	None	None	1
3.0.1	2019_Mar_04_1602	s	s	3	2	SIC	263	ABS	0	0	4	2	24_4_2	NA	NA	0	1	3.38063001633	None	None	None	None	1
3.0.1	2019_Mar_04_1602	s	s	3	2	SIC	264	ABS	0	0	1	1	24_1_1	NA	NA	0	1	1.63407707214	None	None	None	None	1
3.0.1	2019_Mar_04_1602	s	s	3	2	SIC	265	2_4	2	4	3	1	23_3_1	1	3	1	0	0.621150016785	433.0	387.0	437.0	388.0	1
3.0.1	2019_Mar_04_1602	s	s	3	2	SIC	266	ABS	0	0	3	4	24_3_4	NA	NA	0	1	1.21665000916	None	None	None	None	1
3.0.1	2019_Mar_04_1602	s	s	3	2	SIC	267	ABS	0	0	1	3	24_1_3	NA	NA	0	1	3.24027490616	None	None	None	None	1
3.0.1	2019_Mar_04_1602	s	s	3	2	SIC	268	ABS	0	0	2	1	24_2_1	NA	NA	0	1	1.36361193657	None	None	None	None	1
3.0.1	2019_Mar_04_1602	s	s	3	2	SIC	269	3_4	3	4	1	4	23_1_4	2	0	1	0	0.599314928055	-240.0	123.0	-237.0	122.0	1
3.0.1	2019_Mar_04_1602	s	s	3	2	SIC	270	ABS	0	0	4	3	24_4_3	NA	NA	0	1	1.4461479187	None	None	None	None	1
3.0.1	2019_Mar_04_1602	s	s	3	2	SIC	271	2_2	2	2	4	4	23_4_4	2	2	1	0	0.411287069321	472.0	92.0	470.0	91.0	1
3.0.1	2019_Mar_04_1602	s	s	3	2	SIC	272	2_4	2	4	4	2	23_4_2	2	2	1	0	0.352130889893	158.0	157.0	172.0	163.0	1
3.0.1	2019_Mar_04_1602	s	s	3	2	SIC	273	2_1	2	1	1	3	23_1_3	-1	2	1	0	0.705029010773	144.0	267.0	146.0	277.0	1
3.0.1	2019_Mar_04_1602	s	s	3	2	SIC	274	ABS	0	0	4	1	24_4_1	NA	NA	0	1	3.33946299553	None	None	None	None	1
3.0.1	2019_Mar_04_1602	s	s	3	2	SIC	275	4_3	4	3	4	4	23_4_4	0	-1	1	0	0.602075815201	289.0	-289.0	283.0	-295.0	1
3.0.1	2019_Mar_04_1602	s	s	3	2	SIC	276	ABS	0	0	2	4	24_2_4	NA	NA	0	1	3.01447701454	None	None	None	None	1
3.0.1	2019_Mar_04_1602	s	s	3	2	SIC	277	ABS	0	0	3	2	24_3_2	NA	NA	0	1	2.31917500496	None	None	None	None	1
3.0.1	2019_Mar_04_1602	s	s	3	2	SIC	278	ABS	0	0	1	2	24_1_2	NA	NA	0	1	4.58620905876	None	None	None	None	1
3.0.1	2019_Mar_04_1602	s	s	3	2	SIC	279	3_1	3	1	1	3	23_1_3	2	2	1	0	0.437342882156	149.0	3.0	150.0	4.0	1
3.0.1	2019_Mar_04_1602	s	s	3	2	SIC	280	ABS	0	0	3	4	24_3_4	NA	NA	0	1	2.70429205894	None	None	None	None	1
3.0.1	2019_Mar_04_1602	s	s	3	2	SIC	281	ABS	0	0	4	4	24_4_4	NA	NA	0	1	2.49561500549	None	None	None	None	1
3.0.1	2019_Mar_04_1602	s	s	3	2	SIC	282	2_4	2	4	4	3	23_4_3	2	1	1	0	0.46201300621	-345.0	197.0	-338.0	203.0	1
3.0.1	2019_Mar_04_1602	s	s	3	2	SIC	283	ABS	0	0	3	4	24_3_4	NA	NA	0	1	0.920308113098	None	None	None	None	1
3.0.1	2019_Mar_04_1602	s	s	3	2	SIC	284	1_1	1	1	1	3	23_1_3	0	2	1	0	0.438290119171	71.0	-22.0	78.0	-23.0	1
3.0.1	2019_Mar_04_1602	s	s	3	2	SIC	285	ABS	0	0	4	4	24_4_4	NA	NA	0	1	2.26921892166	None	None	None	None	1
3.0.1	2019_Mar_04_1602	s	s	3	2	SIC	286	3_3	3	3	2	2	23_2_2	1	1	1	0	0.646140098572	366.0	181.0	379.0	186.0	1
3.0.1	2019_Mar_04_1602	s	s	3	2	SIC	287	3_2	3	2	4	1	23_4_1	-1	-1	1	0	0.496633052826	-320.0	-352.0	-330.0	-349.0	1
3.0.1	2019_Mar_04_1602	s	s	3	2	SIC	288	3_4	3	4	4	3	23_4_3	-1	1	1	0	0.437393903732	-172.0	327.0	-165.0	330.0	1
3.0.1	2019_Mar_04_1602	s	s	3	2	SIC	289	ABS	0	0	3	2	24_3_2	NA	NA	0	1	3.95107698441	None	None	None	None	1
3.0.1	2019_Mar_04_1602	s	s	3	2	SIC	290	1_2	1	2	1	4	23_1_4	0	2	1	0	0.569977998734	-168.0	-260.0	-159.0	-259.0	1
3.0.1	2019_Mar_04_1602	s	s	3	2	SIC	291	3_1	3	1	2	1	23_2_1	1	0	1	0	0.560757875443	275.0	208.0	273.0	217.0	1
3.0.1	2019_Mar_04_1602	s	s	3	2	SIC	292	2_3	2	3	2	4	23_2_4	0	-1	1	0	0.543218851089	-318.0	-294.0	-316.0	-293.0	1
3.0.1	2019_Mar_04_1602	s	s	3	2	SIC	293	1_3	1	3	2	3	23_2_3	1	0	0	1	1.457695961	-405.0	382.0	None	None	0
3.0.1	2019_Mar_04_1602	s	s	3	2	SIC	294	ABS	0	0	2	3	24_2_3	NA	NA	0	1	1.47467207909	None	None	None	None	1
3.0.1	2019_Mar_04_1602	s	s	3	2	SIC	295	1_1	1	1	2	3	23_2_3	1	2	1	0	1.69783401489	-184.0	-333.0	-188.0	-333.0	1
3.0.1	2019_Mar_04_1602	s	s	3	2	SIC	296	4_4	4	4	1	4	23_1_4	3	0	1	0	0.427947044373	205.0	-8.0	210.0	-8.0	1
3.0.1	2019_Mar_04_1602	s	s	3	2	SIC	297	ABS	0	0	2	4	24_2_4	NA	NA	0	1	2.11626005173	None	None	None	None	1
3.0.1	2019_Mar_04_1602	s	s	3	2	SIC	298	4_4	4	4	1	2	23_1_2	3	2	1	0	0.414546966553	-347.0	-316.0	-354.0	-318.0	1
3.0.1	2019_Mar_04_1602	s	s	3	2	SIC	299	ABS	0	0	3	1	24_3_1	NA	NA	0	1	1.63406395912	None	None	None	None	1
3.0.1	2019_Mar_04_1602	s	s	3	2	SIC	300	ABS	0	0	1	2	24_1_2	NA	NA	0	1	4.24509906769	None	None	None	None	1
3.0.1	2019_Mar_04_1602	s	s	3	2	SIC	301	2_1	2	1	1	1	23_1_1	-1	0	0	1	1.71643781662	-513.0	242.0	None	None	0
3.0.1	2019_Mar_04_1602	s	s	3	2	SIC	302	1_3	1	3	4	3	23_4_3	3	0	1	0	0.505012989044	-516.0	347.0	-527.0	353.0	1
3.0.1	2019_Mar_04_1602	s	s	3	2	SIC	303	1_2	1	2	1	3	23_1_3	0	1	1	0	2.7308371067	205.0	227.0	201.0	220.0	1
3.0.1	2019_Mar_04_1602	s	s	3	2	SIC	304	3_2	3	2	3	1	23_3_1	0	-1	0	1	1.43720984459	-126.0	339.0	None	None	0
3.0.1	2019_Mar_04_1602	s	s	3	2	SIC	305	2_3	2	3	4	3	23_4_3	2	0	1	0	1.05088686943	372.0	-239.0	371.0	-238.0	1
3.0.1	2019_Mar_04_1602	s	s	3	2	SIC	306	2_1	2	1	3	4	23_3_4	1	3	1	0	0.437330007553	520.0	132.0	512.0	127.0	1
3.0.1	2019_Mar_04_1602	s	s	3	2	SIC	307	ABS	0	0	3	3	24_3_3	NA	NA	0	1	2.23383998871	None	None	None	None	1
3.0.1	2019_Mar_04_1602	s	s	3	2	SIC	308	ABS	0	0	1	4	24_1_4	NA	NA	0	1	0.928442955017	None	None	None	None	1
3.0.1	2019_Mar_04_1602	s	s	3	2	SIC	309	1_1	1	1	1	4	23_1_4	0	3	1	0	0.558830976486	-21.0	-362.0	-13.0	-356.0	1
3.0.1	2019_Mar_04_1602	s	s	3	2	SIC	310	4_2	4	2	2	4	23_2_4	2	2	1	0	0.43737912178	-347.0	-354.0	-353.0	-355.0	1
3.0.1	2019_Mar_04_1602	s	s	3	2	SIC	311	4_3	4	3	3	3	23_3_3	1	0	1	0	0.384037017822	214.0	-391.0	217.0	-393.0	1
3.0.1	2019_Mar_04_1602	s	s	3	2	SIC	312	ABS	0	0	4	4	24_4_4	NA	NA	0	1	0.705070972443	None	None	None	None	1
3.0.1	2019_Mar_04_1602	s	s	3	2	SIC	313	ABS	0	0	4	2	24_4_2	NA	NA	0	1	2.06028389931	None	None	None	None	1
3.0.1	2019_Mar_04_1602	s	s	3	2	SIC	314	2_2	2	2	3	2	23_3_2	1	0	1	0	0.540643930435	-51.0	104.0	-47.0	106.0	1
3.0.1	2019_Mar_04_1602	s	s	3	2	SIC	315	4_1	4	1	3	2	23_3_2	1	1	1	0	0.410977840424	-84.0	164.0	-74.0	165.0	1
3.0.1	2019_Mar_04_1602	s	s	3	2	SIC	316	ABS	0	0	2	3	24_2_3	NA	NA	0	1	2.42841315269	None	None	None	None	1
3.0.1	2019_Mar_04_1602	s	s	3	2	SIC	317	ABS	0	0	3	2	24_3_2	NA	NA	0	1	1.31951093674	None	None	None	None	1
3.0.1	2019_Mar_04_1602	s	s	3	2	SIC	318	1_4	1	4	4	4	23_4_4	3	0	1	0	0.469806909561	535.0	103.0	538.0	108.0	1
3.0.1	2019_Mar_04_1602	s	s	3	2	SIC	319	ABS	0	0	4	1	24_4_1	NA	NA	0	1	1.71639704704	None	None	None	None	1
3.0.1	2019_Mar_04_1602	s	s	3	2	SIC	320	3_4	3	4	2	1	23_2_1	1	3	1	0	0.510434150696	536.0	93.0	536.0	89.0	1
3.0.1	2019_Mar_04_1602	s	s	3	2	SIC	321	4_3	4	3	2	2	23_2_2	2	1	1	0	0.40199804306	-370.0	-56.0	-364.0	-53.0	1
3.0.1	2019_Mar_04_1602	s	s	3	2	SIC	322	ABS	0	0	3	2	24_3_2	NA	NA	0	1	1.06959795952	None	None	None	None	1
3.0.1	2019_Mar_04_1602	s	s	3	2	SIC	323	ABS	0	0	3	2	24_3_2	NA	NA	0	1	0.716769933701	None	None	None	None	1
3.0.1	2019_Mar_04_1602	s	s	3	2	SIC	324	ABS	0	0	3	3	24_3_3	NA	NA	0	1	0.94020986557	None	None	None	None	1
3.0.1	2019_Mar_04_1602	s	s	3	2	SIC	325	4_4	4	4	3	3	23_3_3	1	1	1	0	0.60293507576	-117.0	-403.0	-109.0	-401.0	1
3.0.1	2019_Mar_04_1602	s	s	3	2	SIC	326	ABS	0	0	1	4	24_1_4	NA	NA	0	1	1.26791501045	None	None	None	None	1
3.0.1	2019_Mar_04_1602	s	s	3	2	SIC	327	4_1	4	1	2	1	23_2_1	2	0	1	0	0.457998037338	-457.0	251.0	-471.0	256.0	1
3.0.1	2019_Mar_04_1602	s	s	3	2	SIC	328	1_3	1	3	2	2	23_2_2	1	1	0	1	0.78052687645	-267.0	-18.0	None	None	0
3.0.1	2019_Mar_04_1602	s	s	3	2	SIC	329	4_3	4	3	3	4	23_3_4	1	-1	1	0	0.98024392128	330.0	341.0	327.0	338.0	1
3.0.1	2019_Mar_04_1602	s	s	3	2	SIC	330	3_1	3	1	4	3	23_4_3	-1	2	1	0	0.429280042648	314.0	400.0	318.0	398.0	1
3.0.1	2019_Mar_04_1602	s	s	3	2	SIC	331	4_4	4	4	2	2	23_2_2	2	2	1	0	0.39755988121	74.0	237.0	79.0	231.0	1
3.0.1	2019_Mar_04_1602	s	s	3	2	SIC	332	ABS	0	0	4	1	24_4_1	NA	NA	0	1	0.627362966537	None	None	None	None	1
3.0.1	2019_Mar_04_1602	s	s	3	2	SIC	333	2_3	2	3	3	4	23_3_4	1	-1	1	0	0.446558952332	-42.0	268.0	-46.0	267.0	1
3.0.1	2019_Mar_04_1602	s	s	3	2	SIC	334	1_4	1	4	1	2	23_1_2	0	2	1	0	0.73343205452	205.0	-248.0	205.0	-248.0	1
3.0.1	2019_Mar_04_1602	s	s	3	2	SIC	335	ABS	0	0	1	1	24_1_1	NA	NA	0	1	1.44596385956	None	None	None	None	1
3.0.1	2019_Mar_04_1602	s	s	3	2	SIC	336	ABS	0	0	2	2	24_2_2	NA	NA	0	1	1.65001797676	None	None	None	None	1
3.0.1	2019_Mar_04_1602	s	s	3	2	SIC	337	ABS	0	0	4	4	24_4_4	NA	NA	0	1	0.650960922241	None	None	None	None	1
3.0.1	2019_Mar_04_1602	s	s	3	2	SIC	338	3_3	3	3	2	3	23_2_3	1	0	1	0	0.681467056274	177.0	270.0	180.0	273.0	1
3.0.1	2019_Mar_04_1602	s	s	3	2	SIC	339	3_4	3	4	4	2	23_4_2	-1	2	1	0	0.46181511879	23.0	-345.0	24.0	-349.0	1
3.0.1	2019_Mar_04_1602	s	s	3	2	SIC	340	ABS	0	0	1	2	24_1_2	NA	NA	0	1	1.79878687859	None	None	None	None	1
3.0.1	2019_Mar_04_1602	s	s	3	2	SIC	341	ABS	0	0	1	4	24_1_4	NA	NA	0	1	0.945425987244	None	None	None	None	1
3.0.1	2019_Mar_04_1602	s	s	3	2	SIC	342	ABS	0	0	1	2	24_1_2	NA	NA	0	1	1.07517194748	None	None	None	None	1
3.0.1	2019_Mar_04_1602	s	s	3	2	SIC	343	ABS	0	0	4	1	24_4_1	NA	NA	0	1	1.17540311813	None	None	None	None	1
3.0.1	2019_Mar_04_1602	s	s	3	2	SIC	344	ABS	0	0	3	2	24_3_2	NA	NA	0	1	1.57536005974	None	None	None	None	1
3.0.1	2019_Mar_04_1602	s	s	3	2	SIC	345	ABS	0	0	3	4	24_3_4	NA	NA	0	1	1.10770797729	None	None	None	None	1
3.0.1	2019_Mar_04_1602	s	s	3	2	SIC	346	1_1	1	1	3	1	23_3_1	2	0	1	0	0.650344133377	-348.0	-300.0	-351.0	-296.0	1
3.0.1	2019_Mar_04_1602	s	s	3	2	SIC	347	3_1	3	1	3	4	23_3_4	0	3	1	0	0.507907867432	171.0	307.0	173.0	302.0	1
3.0.1	2019_Mar_04_1602	s	s	3	2	SIC	348	3_3	3	3	1	3	23_1_3	2	0	1	0	0.768970966339	79.0	357.0	81.0	355.0	1
3.0.1	2019_Mar_04_1602	s	s	3	2	SIC	349	ABS	0	0	2	2	24_2_2	NA	NA	0	1	2.02221989632	None	None	None	None	1
3.0.1	2019_Mar_04_1602	s	s	3	2	SIC	350	ABS	0	0	3	4	24_3_4	NA	NA	0	1	0.780599117279	None	None	None	None	1
3.0.1	2019_Mar_04_1602	s	s	3	2	SIC	351	3_4	3	4	2	2	23_2_2	1	2	1	0	0.540503025055	71.0	368.0	64.0	375.0	1
3.0.1	2019_Mar_04_1602	s	s	3	2	SIC	352	1_4	1	4	3	3	23_3_3	2	1	1	0	0.462035179138	180.0	-27.0	175.0	-25.0	1
3.0.1	2019_Mar_04_1602	s	s	3	2	SIC	353	ABS	0	0	3	3	24_3_3	NA	NA	0	1	0.758282899857	None	None	None	None	1
3.0.1	2019_Mar_04_1602	s	s	3	2	SIC	354	3_2	3	2	1	2	23_1_2	2	0	1	0	0.528536081314	372.0	-130.0	364.0	-132.0	1
3.0.1	2019_Mar_04_1602	s	s	3	2	SIC	355	ABS	0	0	2	2	24_2_2	NA	NA	0	1	0.59913611412	None	None	None	None	1
3.0.1	2019_Mar_04_1602	s	s	3	2	SIC	356	ABS	0	0	4	3	24_4_3	NA	NA	0	1	0.792037963867	None	None	None	None	1
3.0.1	2019_Mar_04_1602	s	s	3	2	SIC	357	3_1	3	1	2	2	23_2_2	1	1	1	0	0.469732046127	-158.0	87.0	-155.0	89.0	1
3.0.1	2019_Mar_04_1602	s	s	3	2	SIC	358	4_1	4	1	1	4	23_1_4	3	3	1	0	0.46338391304	95.0	75.0	99.0	73.0	1
3.0.1	2019_Mar_04_1602	s	s	3	2	SIC	359	ABS	0	0	3	1	24_3_1	NA	NA	0	1	1.12844586372	None	None	None	None	1
3.0.1	2019_Mar_04_1602	s	s	3	2	SIC	360	2_2	2	2	4	3	23_4_3	2	1	1	0	0.429395914078	124.0	366.0	130.0	365.0	1
3.0.1	2019_Mar_04_1602	s	s	3	2	SIC	361	ABS	0	0	3	1	24_3_1	NA	NA	0	1	0.998940944672	None	None	None	None	1
3.0.1	2019_Mar_04_1602	s	s	3	2	SIC	362	ABS	0	0	1	2	24_1_2	NA	NA	0	1	2.00378513336	None	None	None	None	1
3.0.1	2019_Mar_04_1602	s	s	3	2	SIC	363	ABS	0	0	1	4	24_1_4	NA	NA	0	1	0.923222064972	None	None	None	None	1
3.0.1	2019_Mar_04_1602	s	s	3	2	SIC	364	ABS	0	0	2	4	24_2_4	NA	NA	0	1	0.952009916306	None	None	None	None	1
3.0.1	2019_Mar_04_1602	s	s	3	2	SIC	365	3_4	3	4	3	3	23_3_3	0	1	1	0	1.11674499512	-147.0	86.0	-139.0	87.0	1
3.0.1	2019_Mar_04_1602	s	s	3	2	SIC	366	3_1	3	1	4	1	23_4_1	-1	0	1	0	0.485413074493	168.0	-91.0	175.0	-94.0	1
3.0.1	2019_Mar_04_1602	s	s	3	2	SIC	367	4_1	4	1	1	2	23_1_2	3	1	1	0	0.410922050476	-523.0	-136.0	-516.0	-128.0	1
3.0.1	2019_Mar_04_1602	s	s	3	2	SIC	368	ABS	0	0	3	3	24_3_3	NA	NA	0	1	0.669682025909	None	None	None	None	1
3.0.1	2019_Mar_04_1602	s	s	3	2	SIC	369	ABS	0	0	1	2	24_1_2	NA	NA	0	1	0.799023151398	None	None	None	None	1
3.0.1	2019_Mar_04_1602	s	s	3	2	SIC	370	4_3	4	3	3	2	23_3_2	1	1	1	0	0.524550914764	530.0	-208.0	531.0	-219.0	1
3.0.1	2019_Mar_04_1602	s	s	3	2	SIC	371	2_1	2	1	2	4	23_2_4	0	3	1	0	0.686643123627	355.0	-183.0	359.0	-186.0	1
3.0.1	2019_Mar_04_1602	s	s	3	2	SIC	372	ABS	0	0	2	1	24_2_1	NA	NA	0	1	1.61349892616	None	None	None	None	1
3.0.1	2019_Mar_04_1602	s	s	3	2	SIC	373	3_3	3	3	3	2	23_3_2	0	1	1	0	0.987221002579	207.0	164.0	214.0	164.0	1
3.0.1	2019_Mar_04_1602	s	s	3	2	SIC	374	ABS	0	0	1	3	24_1_3	NA	NA	0	1	1.95164704323	None	None	None	None	1
3.0.1	2019_Mar_04_1602	s	s	3	2	SIC	375	2_2	2	2	2	4	23_2_4	0	2	1	0	0.540371179581	277.0	-206.0	277.0	-204.0	1
3.0.1	2019_Mar_04_1602	s	s	3	2	SIC	376	ABS	0	0	1	3	24_1_3	NA	NA	0	1	1.68116807938	None	None	None	None	1
3.0.1	2019_Mar_04_1602	s	s	3	2	SIC	377	ABS	0	0	3	3	24_3_3	NA	NA	0	1	1.32320189476	None	None	None	None	1
3.0.1	2019_Mar_04_1602	s	s	3	2	SIC	378	ABS	0	0	3	3	24_3_3	NA	NA	0	1	1.58704805374	None	None	None	None	1
3.0.1	2019_Mar_04_1602	s	s	3	2	SIC	379	4_2	4	2	2	2	23_2_2	2	0	1	0	0.457921028137	-423.0	-86.0	-424.0	-83.0	1
3.0.1	2019_Mar_04_1602	s	s	3	2	SIC	380	3_1	3	1	3	2	23_3_2	0	1	0	1	1.02549695969	-80.0	-308.0	None	None	0
3.0.1	2019_Mar_04_1602	s	s	3	2	SIC	381	ABS	0	0	2	2	24_2_2	NA	NA	0	1	0.899865865707	None	None	None	None	1
3.0.1	2019_Mar_04_1602	s	s	3	2	SIC	382	ABS	0	0	3	2	24_3_2	NA	NA	0	1	2.8275680542	None	None	None	None	1
3.0.1	2019_Mar_04_1602	s	s	3	2	SIC	383	1_1	1	1	3	3	23_3_3	2	2	1	0	0.614974975586	464.0	-236.0	466.0	-232.0	1
3.0.1	2019_Mar_04_1602	s	s	3	2	SIC	384	ABS	0	0	3	4	24_3_4	NA	NA	0	1	1.15645909309	None	None	None	None	1
3.0.1	2019_Mar_04_1602	s	s	3	2	SIC	385	1_1	1	1	3	2	23_3_2	2	1	1	0	0.775442123413	-72.0	-401.0	-66.0	-391.0	1
3.0.1	2019_Mar_04_1602	s	s	3	2	SIC	386	ABS	0	0	2	3	24_2_3	NA	NA	0	1	2.10766792297	None	None	None	None	1
3.0.1	2019_Mar_04_1602	s	s	3	2	SIC	387	ABS	0	0	4	1	24_4_1	NA	NA	0	1	0.790397882462	None	None	None	None	1
3.0.1	2019_Mar_04_1602	s	s	3	2	SIC	388	2_3	2	3	3	3	23_3_3	1	0	1	0	2.03401994705	-304.0	152.0	-301.0	153.0	1
3.0.1	2019_Mar_04_1602	s	s	3	2	SIC	389	ABS	0	0	2	3	24_2_3	NA	NA	0	1	2.35557198524	None	None	None	None	1
3.0.1	2019_Mar_04_1602	s	s	3	2	SIC	390	2_1	2	1	3	3	23_3_3	1	2	1	0	0.834407091141	-60.0	316.0	-54.0	320.0	1
3.0.1	2019_Mar_04_1602	s	s	3	2	SIC	391	1_2	1	2	2	2	23_2_2	1	0	0	1	1.13370013237	303.0	-23.0	None	None	0
3.0.1	2019_Mar_04_1602	s	s	3	2	SIC	392	2_2	2	2	2	1	23_2_1	0	-1	0	1	0.987174034119	190.0	-362.0	None	None	0
3.0.1	2019_Mar_04_1602	s	s	3	2	SIC	393	2_2	2	2	3	4	23_3_4	1	2	1	0	0.481588125229	60.0	245.0	56.0	247.0	1
3.0.1	2019_Mar_04_1602	s	s	3	2	SIC	394	ABS	0	0	2	2	24_2_2	NA	NA	0	1	1.38732099533	None	None	None	None	1
3.0.1	2019_Mar_04_1602	s	s	3	2	SIC	395	ABS	0	0	3	4	24_3_4	NA	NA	0	1	0.826763868332	None	None	None	None	1
3.0.1	2019_Mar_04_1602	s	s	3	2	SIC	396	4_4	4	4	4	1	23_4_1	0	3	1	0	0.516761064529	-320.0	-302.0	-318.0	-309.0	1
3.0.1	2019_Mar_04_1602	s	s	3	2	SIC	397	ABS	0	0	4	1	24_4_1	NA	NA	0	1	1.61520504951	None	None	None	None	1
3.0.1	2019_Mar_04_1602	s	s	3	2	SIC	398	ABS	0	0	3	4	24_3_4	NA	NA	0	1	1.39891695976	None	None	None	None	1
3.0.1	2019_Mar_04_1602	s	s	3	2	SIC	399	ABS	0	0	3	3	24_3_3	NA	NA	0	1	1.71648001671	None	None	None	None	1
3.0.1	2019_Mar_04_1602	s	s	3	2	SIC	400	ABS	0	0	3	1	24_3_1	NA	NA	0	1	0.657967090607	None	None	None	None	1
3.0.1	2019_Mar_04_1602	s	s	3	2	SIC	401	1_2	1	2	1	1	23_1_1	0	-1	1	0	0.814172029495	-19.0	105.0	-21.0	108.0	1
3.0.1	2019_Mar_04_1602	s	s	3	2	SIC	402	4_2	4	2	3	3	23_3_3	1	1	1	0	0.410945177078	146.0	141.0	151.0	144.0	1
3.0.1	2019_Mar_04_1602	s	s	3	2	SIC	403	2_4	2	4	3	3	23_3_3	1	1	1	0	0.58740401268	27.0	-280.0	24.0	-288.0	1
3.0.1	2019_Mar_04_1602	s	s	3	2	SIC	404	1_1	1	1	4	4	23_4_4	3	3	1	0	0.458009004593	-89.0	-20.0	-88.0	-17.0	1
3.0.1	2019_Mar_04_1602	s	s	3	2	SIC	405	2_3	2	3	1	1	23_1_1	-1	2	1	0	0.540332078934	-312.0	-89.0	-307.0	-88.0	1
3.0.1	2019_Mar_04_1602	s	s	3	2	SIC	406	1_1	1	1	2	4	23_2_4	1	3	1	0	0.39915895462	22.0	2.0	18.0	-1.0	1
3.0.1	2019_Mar_04_1602	s	s	3	2	SIC	407	2_4	2	4	2	2	23_2_2	0	2	1	0	0.387375116348	68.0	37.0	74.0	43.0	1
3.0.1	2019_Mar_04_1602	s	s	3	2	SIC	408	ABS	0	0	3	2	24_3_2	NA	NA	0	1	1.31008696556	None	None	None	None	1
3.0.1	2019_Mar_04_1602	s	s	3	2	SIC	409	ABS	0	0	2	3	24_2_3	NA	NA	0	1	1.31145620346	None	None	None	None	1
3.0.1	2019_Mar_04_1602	s	s	3	2	SIC	410	ABS	0	0	3	4	24_3_4	NA	NA	0	1	1.0464348793	None	None	None	None	1
3.0.1	2019_Mar_04_1602	s	s	3	2	SIC	411	ABS	0	0	4	2	24_4_2	NA	NA	0	1	2.30451321602	None	None	None	None	1
3.0.1	2019_Mar_04_1602	s	s	3	2	SIC	412	3_4	3	4	2	4	23_2_4	1	0	1	0	2.79212594032	-506.0	287.0	-508.0	288.0	1
3.0.1	2019_Mar_04_1602	s	s	3	2	SIC	413	1_1	1	1	4	3	23_4_3	3	2	1	0	0.599224090576	480.0	373.0	486.0	373.0	1
3.0.1	2019_Mar_04_1602	s	s	3	2	SIC	414	ABS	0	0	3	1	24_3_1	NA	NA	0	1	1.21604919434	None	None	None	None	1
3.0.1	2019_Mar_04_1602	s	s	3	2	SIC	415	1_3	1	3	1	1	23_1_1	0	2	1	0	1.13405704498	-437.0	-363.0	-439.0	-363.0	1
3.0.1	2019_Mar_04_1602	s	s	3	2	SIC	416	4_1	4	1	3	4	23_3_4	1	3	1	0	0.443290948868	190.0	92.0	186.0	84.0	1
3.0.1	2019_Mar_04_1602	s	s	3	2	SIC	417	3_3	3	3	4	2	23_4_2	-1	1	1	0	0.486129045486	493.0	-255.0	497.0	-252.0	1
3.0.1	2019_Mar_04_1602	s	s	3	2	SIC	418	ABS	0	0	1	2	24_1_2	NA	NA	0	1	1.69292092323	None	None	None	None	1
3.0.1	2019_Mar_04_1602	s	s	3	2	SIC	419	3_4	3	4	4	4	23_4_4	-1	0	1	0	0.834369182587	-497.0	-388.0	-500.0	-390.0	1
3.0.1	2019_Mar_04_1602	s	s	3	2	SIC	420	ABS	0	0	4	4	24_4_4	NA	NA	0	1	0.681454896927	None	None	None	None	1
3.0.1	2019_Mar_04_1602	s	s	3	2	SIC	421	ABS	0	0	3	4	24_3_4	NA	NA	0	1	0.769170045853	None	None	None	None	1
3.0.1	2019_Mar_04_1602	s	s	3	2	SIC	422	3_4	3	4	3	1	23_3_1	0	3	1	0	0.505021810532	-421.0	-306.0	-426.0	-316.0	1
3.0.1	2019_Mar_04_1602	s	s	3	2	SIC	423	ABS	0	0	2	4	24_2_4	NA	NA	0	1	1.04607009888	None	None	None	None	1
3.0.1	2019_Mar_04_1602	s	s	3	2	SIC	424	4_4	4	4	4	3	23_4_3	0	1	1	0	0.681455850601	322.0	-264.0	324.0	-255.0	1
3.0.1	2019_Mar_04_1602	s	s	3	2	SIC	425	2_4	2	4	3	2	23_3_2	1	2	1	0	0.46975684166	90.0	-148.0	90.0	-157.0	1
3.0.1	2019_Mar_04_1602	s	s	3	2	SIC	426	1_3	1	3	4	2	23_4_2	3	1	1	0	0.399272918701	-25.0	-139.0	-20.0	-133.0	1
3.0.1	2019_Mar_04_1602	s	s	3	2	SIC	427	ABS	0	0	1	3	24_1_3	NA	NA	0	1	2.51612019539	None	None	None	None	1
3.0.1	2019_Mar_04_1602	s	s	3	2	SIC	428	ABS	0	0	4	1	24_4_1	NA	NA	0	1	1.41062903404	None	None	None	None	1
3.0.1	2019_Mar_04_1602	s	s	3	2	SIC	429	3_1	3	1	3	3	23_3_3	0	2	1	0	1.30484199524	-148.0	-262.0	-149.0	-256.0	1
3.0.1	2019_Mar_04_1602	s	s	3	2	SIC	430	ABS	0	0	4	2	24_4_2	NA	NA	0	1	1.78190517426	None	None	None	None	1
3.0.1	2019_Mar_04_1602	s	s	3	2	SIC	431	ABS	0	0	2	2	24_2_2	NA	NA	0	1	2.01576089859	None	None	None	None	1
3.0.1	2019_Mar_04_1602	s	s	3	2	SIC	432	2_2	2	2	3	1	23_3_1	1	-1	1	0	0.822561979294	486.0	-4.0	480.0	-5.0	1
3.0.1	2019_Mar_04_1602	s	s	3	2	SIC	433	1_2	1	2	3	4	23_3_4	2	2	1	0	0.461916208267	-33.0	103.0	-36.0	94.0	1
3.0.1	2019_Mar_04_1602	s	s	3	2	SIC	434	ABS	0	0	1	1	24_1_1	NA	NA	0	1	0.634438991547	None	None	None	None	1
3.0.1	2019_Mar_04_1602	s	s	3	2	SIC	435	ABS	0	0	4	2	24_4_2	NA	NA	0	1	1.05786180496	None	None	None	None	1
3.0.1	2019_Mar_04_1602	s	s	3	2	SIC	436	2_4	2	4	4	1	23_4_1	2	3	1	0	0.599191904068	-404.0	323.0	-393.0	328.0	1
3.0.1	2019_Mar_04_1602	s	s	3	2	SIC	437	ABS	0	0	3	3	24_3_3	NA	NA	0	1	1.25000405312	None	None	None	None	1
3.0.1	2019_Mar_04_1602	s	s	3	2	SIC	438	ABS	0	0	4	3	24_4_3	NA	NA	0	1	0.618605852127	None	None	None	None	1
3.0.1	2019_Mar_04_1602	s	s	3	2	SIC	439	ABS	0	0	3	3	24_3_3	NA	NA	0	1	0.723322868347	None	None	None	None	1
3.0.1	2019_Mar_04_1602	s	s	3	2	SIC	440	ABS	0	0	4	1	24_4_1	NA	NA	0	1	1.13344097137	None	None	None	None	1
3.0.1	2019_Mar_04_1602	s	s	3	2	SIC	441	4_2	4	2	1	1	23_1_1	3	-1	1	0	0.475041866302	316.0	-205.0	322.0	-205.0	1
3.0.1	2019_Mar_04_1602	s	s	3	2	SIC	442	ABS	0	0	1	4	24_1_4	NA	NA	0	1	0.933568000793	None	None	None	None	1
3.0.1	2019_Mar_04_1602	s	s	3	2	SIC	443	3_1	3	1	1	1	23_1_1	2	0	1	0	0.893204927444	-250.0	-409.0	-254.0	-416.0	1
3.0.1	2019_Mar_04_1602	s	s	3	2	SIC	444	1_4	1	4	3	1	23_3_1	2	3	1	0	0.469671964645	433.0	-172.0	436.0	-178.0	1
3.0.1	2019_Mar_04_1602	s	s	3	2	SIC	445	ABS	0	0	3	1	24_3_1	NA	NA	0	1	0.716771125793	None	None	None	None	1
3.0.1	2019_Mar_04_1602	s	s	3	2	SIC	446	ABS	0	0	4	2	24_4_2	NA	NA	0	1	1.09736084938	None	None	None	None	1
3.0.1	2019_Mar_04_1602	s	s	3	2	SIC	447	2_3	2	3	3	1	23_3_1	1	2	1	0	0.511021137238	154.0	92.0	154.0	89.0	1
3.0.1	2019_Mar_04_1602	s	s	3	2	SIC	448	ABS	0	0	2	1	24_2_1	NA	NA	0	1	1.49298214912	None	None	None	None	1
3.0.1	2019_Mar_04_1602	s	s	3	2	SIC	449	ABS	0	0	3	1	24_3_1	NA	NA	0	1	0.604448080063	None	None	None	None	1
3.0.1	2019_Mar_04_1602	s	s	3	2	SIC	450	1_3	1	3	2	4	23_2_4	1	-1	1	0	0.555438041687	499.0	53.0	491.0	47.0	1
3.0.1	2019_Mar_04_1602	s	s	3	2	SIC	451	ABS	0	0	2	1	24_2_1	NA	NA	0	1	0.869632959366	None	None	None	None	1
3.0.1	2019_Mar_04_1602	s	s	3	2	SIC	452	4_4	4	4	2	3	23_2_3	2	1	1	0	0.439619064331	12.0	-15.0	17.0	-9.0	1
3.0.1	2019_Mar_04_1602	s	s	3	2	SIC	453	4_3	4	3	1	3	23_1_3	3	0	1	0	0.486563920975	23.0	-126.0	19.0	-127.0	1
3.0.1	2019_Mar_04_1602	s	s	3	2	SIC	454	3_1	3	1	2	4	23_2_4	1	3	1	0	0.457946062088	160.0	-396.0	159.0	-404.0	1
3.0.1	2019_Mar_04_1602	s	s	3	2	SIC	455	3_4	3	4	1	3	23_1_3	2	1	1	0	0.457952976227	365.0	315.0	369.0	313.0	1
3.0.1	2019_Mar_04_1602	s	s	3	2	SIC	456	ABS	0	0	2	1	24_2_1	NA	NA	0	1	1.1331949234	None	None	None	None	1
3.0.1	2019_Mar_04_1602	s	s	3	2	SIC	457	4_3	4	3	1	4	23_1_4	3	-1	1	0	0.46980881691	115.0	-256.0	117.0	-254.0	1
3.0.1	2019_Mar_04_1602	s	s	3	2	SIC	458	1_1	1	1	3	4	23_3_4	2	3	1	0	0.603940010071	-313.0	-70.0	-316.0	-72.0	1
3.0.1	2019_Mar_04_1602	s	s	3	2	SIC	459	ABS	0	0	4	4	24_4_4	NA	NA	0	1	0.966538906097	None	None	None	None	1
3.0.1	2019_Mar_04_1602	s	s	3	2	SIC	460	ABS	0	0	2	2	24_2_2	NA	NA	0	1	1.07592606544	None	None	None	None	1
3.0.1	2019_Mar_04_1602	s	s	3	2	SIC	461	1_2	1	2	3	2	23_3_2	2	0	1	0	0.55206489563	-233.0	103.0	-233.0	98.0	1
3.0.1	2019_Mar_04_1602	s	s	3	2	SIC	462	4_4	4	4	3	1	23_3_1	1	3	1	0	0.427788972855	354.0	-291.0	357.0	-296.0	1
3.0.1	2019_Mar_04_1602	s	s	3	2	SIC	463	2_4	2	4	3	4	23_3_4	1	0	0	1	0.780512094498	505.0	-339.0	None	None	0
3.0.1	2019_Mar_04_1602	s	s	3	2	SIC	464	3_4	3	4	2	3	23_2_3	1	1	1	0	0.422637939453	-221.0	12.0	-230.0	14.0	1
3.0.1	2019_Mar_04_1602	s	s	3	2	SIC	465	1_3	1	3	3	1	23_3_1	2	2	1	0	0.533154964447	501.0	-104.0	500.0	-107.0	1
3.0.1	2019_Mar_04_1602	s	s	3	2	SIC	466	1_4	1	4	2	4	23_2_4	1	0	0	1	1.17547988892	-426.0	-317.0	None	None	0
3.0.1	2019_Mar_04_1602	s	s	3	2	SIC	467	3_2	3	2	2	3	23_2_3	1	1	1	0	1.15193009377	33.0	257.0	41.0	257.0	1
3.0.1	2019_Mar_04_1602	s	s	3	2	SIC	468	ABS	0	0	2	3	24_2_3	NA	NA	0	1	1.62095379829	None	None	None	None	1
3.0.1	2019_Mar_04_1602	s	s	3	2	SIC	469	ABS	0	0	1	3	24_1_3	NA	NA	0	1	1.35219788551	None	None	None	None	1
3.0.1	2019_Mar_04_1602	s	s	3	2	SIC	470	1_2	1	2	4	4	23_4_4	3	2	1	0	0.464792966843	-113.0	-341.0	-111.0	-345.0	1
3.0.1	2019_Mar_04_1602	s	s	3	2	SIC	471	2_1	2	1	1	2	23_1_2	-1	1	0	1	1.2512550354	49.0	-362.0	None	None	0
3.0.1	2019_Mar_04_1602	s	s	3	2	SIC	472	ABS	0	0	3	4	24_3_4	NA	NA	0	1	0.948094844818	None	None	None	None	1
3.0.1	2019_Mar_04_1602	s	s	3	2	SIC	473	1_3	1	3	4	4	23_4_4	3	-1	1	0	0.528921127319	153.0	379.0	160.0	376.0	1
3.0.1	2019_Mar_04_1602	s	s	3	2	SIC	474	ABS	0	0	2	3	24_2_3	NA	NA	0	1	1.72328591347	None	None	None	None	1
3.0.1	2019_Mar_04_1602	s	s	3	2	SIC	475	3_2	3	2	1	4	23_1_4	2	2	1	0	1.27523612976	-408.0	339.0	-405.0	334.0	1
3.0.1	2019_Mar_04_1602	s	s	3	2	SIC	476	ABS	0	0	4	3	24_4_3	NA	NA	0	1	1.78988814354	None	None	None	None	1
3.0.1	2019_Mar_04_1602	s	s	3	2	SIC	477	ABS	0	0	1	4	24_1_4	NA	NA	0	1	1.11660408974	None	None	None	None	1
3.0.1	2019_Mar_04_1602	s	s	3	2	SIC	478	3_3	3	3	3	4	23_3_4	0	-1	1	0	0.951961994171	489.0	-113.0	485.0	-126.0	1
3.0.1	2019_Mar_04_1602	s	s	3	2	SIC	479	ABS	0	0	1	4	24_1_4	NA	NA	0	1	1.22673892975	None	None	None	None	1
3.0.1	2019_Mar_04_1602	s	s	3	2	SIC	480	ABS	0	0	2	4	24_2_4	NA	NA	0	1	2.86901402473	None	None	None	None	1
