Version	Date	Stimuli	Method	Subject	Session	Condition	Trial	Target	TColor	TShape	DColor	DShape	Distractors	Channel1	Channel2	LMouseButton	RMouseButton	RT	TargetX	TargetY	ResponseX	ResponseY	Correct
3.0.1	2019_Mar_03_1802	s	s	3	1	Capacity	1	ABS	0	0	1	1	24_1_1	NA	NA	0	1	0.709597110748	None	None	None	None	1
3.0.1	2019_Mar_03_1802	s	s	3	1	Capacity	2	2_1	2	1	4	1	23_4_1	2	0	1	0	0.469770908356	-379.0	24.0	-370.0	33.0	1
3.0.1	2019_Mar_03_1802	s	s	3	1	Capacity	3	3_1	3	1	1	1	23_1_1	2	0	1	0	0.746457099915	-416.0	-64.0	-409.0	-55.0	1
3.0.1	2019_Mar_03_1802	s	s	3	1	Capacity	4	ABS	0	0	2	1	24_2_1	NA	NA	0	1	0.651458978653	None	None	None	None	1
3.0.1	2019_Mar_03_1802	s	s	3	1	Capacity	5	ABS	0	0	1	1	24_1_1	NA	NA	0	1	0.619738101959	None	None	None	None	1
3.0.1	2019_Mar_03_1802	s	s	3	1	Capacity	6	3_1	3	1	2	1	23_2_1	1	0	1	0	0.599146127701	-81.0	-209.0	-81.0	-204.0	1
3.0.1	2019_Mar_03_1802	s	s	3	1	Capacity	7	ABS	0	0	1	1	24_1_1	NA	NA	0	1	0.622573852539	None	None	None	None	1
3.0.1	2019_Mar_03_1802	s	s	3	1	Capacity	8	ABS	0	0	3	1	24_3_1	NA	NA	0	1	0.619777202606	None	None	None	None	1
3.0.1	2019_Mar_03_1802	s	s	3	1	Capacity	9	4_1	4	1	2	1	23_2_1	2	0	1	0	0.442581892014	-236.0	-200.0	-233.0	-206.0	1
3.0.1	2019_Mar_03_1802	s	s	3	1	Capacity	10	ABS	0	0	2	1	24_2_1	NA	NA	0	1	0.686654090881	None	None	None	None	1
3.0.1	2019_Mar_03_1802	s	s	3	1	Capacity	11	ABS	0	0	4	1	24_4_1	NA	NA	0	1	0.509989976883	None	None	None	None	1
3.0.1	2019_Mar_03_1802	s	s	3	1	Capacity	12	1_1	1	1	2	1	23_2_1	1	0	0	1	0.5755879879	2.0	232.0	None	None	0
3.0.1	2019_Mar_03_1802	s	s	3	1	Capacity	13	3_1	3	1	4	1	23_4_1	-1	0	1	0	0.646193027496	209.0	4.0	199.0	7.0	1
3.0.1	2019_Mar_03_1802	s	s	3	1	Capacity	14	2_1	2	1	3	1	23_3_1	1	0	1	0	1.34006881714	-91.0	199.0	-98.0	204.0	1
3.0.1	2019_Mar_03_1802	s	s	3	1	Capacity	15	ABS	0	0	3	1	24_3_1	NA	NA	0	1	0.639994859695	None	None	None	None	1
3.0.1	2019_Mar_03_1802	s	s	3	1	Capacity	16	ABS	0	0	2	1	24_2_1	NA	NA	0	1	0.704977989197	None	None	None	None	1
3.0.1	2019_Mar_03_1802	s	s	3	1	Capacity	17	2_1	2	1	1	1	23_1_1	-1	0	0	1	0.638655185699	218.0	-297.0	None	None	0
3.0.1	2019_Mar_03_1802	s	s	3	1	Capacity	18	1_1	1	1	3	1	23_3_1	2	0	0	1	0.696820020676	-475.0	-288.0	None	None	0
3.0.1	2019_Mar_03_1802	s	s	3	1	Capacity	19	ABS	0	0	4	1	24_4_1	NA	NA	0	1	0.587414979935	None	None	None	None	1
3.0.1	2019_Mar_03_1802	s	s	3	1	Capacity	20	4_1	4	1	3	1	23_3_1	1	0	1	0	0.48166012764	398.0	106.0	405.0	103.0	1
3.0.1	2019_Mar_03_1802	s	s	3	1	Capacity	21	ABS	0	0	3	1	24_3_1	NA	NA	0	1	0.646098136902	None	None	None	None	1
3.0.1	2019_Mar_03_1802	s	s	3	1	Capacity	22	ABS	0	0	4	1	24_4_1	NA	NA	0	1	0.528566122055	None	None	None	None	1
3.0.1	2019_Mar_03_1802	s	s	3	1	Capacity	23	1_1	1	1	4	1	23_4_1	3	0	1	0	0.556861162186	176.0	348.0	178.0	358.0	1
3.0.1	2019_Mar_03_1802	s	s	3	1	Capacity	24	4_1	4	1	1	1	23_1_1	3	0	1	0	0.855848073959	-375.0	-117.0	-373.0	-121.0	1
3.0.1	2019_Mar_03_1802	s	s	3	1	Capacity	25	3_1	3	1	2	1	23_2_1	1	0	0	1	0.59251999855	258.0	319.0	None	None	0
3.0.1	2019_Mar_03_1802	s	s	3	1	Capacity	26	ABS	0	0	2	1	24_2_1	NA	NA	0	1	1.39881491661	None	None	None	None	1
3.0.1	2019_Mar_03_1802	s	s	3	1	Capacity	27	ABS	0	0	4	1	24_4_1	NA	NA	0	1	0.736491918564	None	None	None	None	1
3.0.1	2019_Mar_03_1802	s	s	3	1	Capacity	28	ABS	0	0	1	1	24_1_1	NA	NA	0	1	0.554994821548	None	None	None	None	1
3.0.1	2019_Mar_03_1802	s	s	3	1	Capacity	29	4_1	4	1	3	1	23_3_1	1	0	1	0	0.434499979019	148.0	229.0	144.0	231.0	1
3.0.1	2019_Mar_03_1802	s	s	3	1	Capacity	30	1_1	1	1	4	1	23_4_1	3	0	1	0	0.634421110153	467.0	303.0	467.0	297.0	1
3.0.1	2019_Mar_03_1802	s	s	3	1	Capacity	31	1_1	1	1	2	1	23_2_1	1	0	0	1	0.893233060837	98.0	-330.0	None	None	0
3.0.1	2019_Mar_03_1802	s	s	3	1	Capacity	32	ABS	0	0	2	1	24_2_1	NA	NA	0	1	0.658008813858	None	None	None	None	1
3.0.1	2019_Mar_03_1802	s	s	3	1	Capacity	33	2_1	2	1	1	1	23_1_1	-1	0	0	1	0.752063035965	-27.0	-246.0	None	None	0
3.0.1	2019_Mar_03_1802	s	s	3	1	Capacity	34	ABS	0	0	4	1	24_4_1	NA	NA	0	1	0.613780975342	None	None	None	None	1
3.0.1	2019_Mar_03_1802	s	s	3	1	Capacity	35	2_1	2	1	4	1	23_4_1	2	0	1	0	0.59151506424	495.0	-306.0	500.0	-309.0	1
3.0.1	2019_Mar_03_1802	s	s	3	1	Capacity	36	4_1	4	1	1	1	23_1_1	3	0	1	0	0.628055095673	439.0	111.0	436.0	108.0	1
3.0.1	2019_Mar_03_1802	s	s	3	1	Capacity	37	ABS	0	0	4	1	24_4_1	NA	NA	0	1	0.627370834351	None	None	None	None	1
3.0.1	2019_Mar_03_1802	s	s	3	1	Capacity	38	ABS	0	0	3	1	24_3_1	NA	NA	0	1	0.587363958359	None	None	None	None	1
3.0.1	2019_Mar_03_1802	s	s	3	1	Capacity	39	ABS	0	0	2	1	24_2_1	NA	NA	0	1	0.599184036255	None	None	None	None	1
3.0.1	2019_Mar_03_1802	s	s	3	1	Capacity	40	2_1	2	1	3	1	23_3_1	1	0	1	0	0.849477052689	239.0	327.0	231.0	322.0	1
3.0.1	2019_Mar_03_1802	s	s	3	1	Capacity	41	ABS	0	0	3	1	24_3_1	NA	NA	0	1	0.634864091873	None	None	None	None	1
3.0.1	2019_Mar_03_1802	s	s	3	1	Capacity	42	ABS	0	0	1	1	24_1_1	NA	NA	0	1	0.533411026001	None	None	None	None	1
3.0.1	2019_Mar_03_1802	s	s	3	1	Capacity	43	ABS	0	0	3	1	24_3_1	NA	NA	0	1	0.613785028458	None	None	None	None	1
3.0.1	2019_Mar_03_1802	s	s	3	1	Capacity	44	3_1	3	1	1	1	23_1_1	2	0	1	0	0.921492099762	-377.0	24.0	-381.0	21.0	1
3.0.1	2019_Mar_03_1802	s	s	3	1	Capacity	45	ABS	0	0	1	1	24_1_1	NA	NA	0	1	0.516732931137	None	None	None	None	1
3.0.1	2019_Mar_03_1802	s	s	3	1	Capacity	46	3_1	3	1	4	1	23_4_1	-1	0	1	0	0.487632989883	-290.0	19.0	-286.0	14.0	1
3.0.1	2019_Mar_03_1802	s	s	3	1	Capacity	47	4_1	4	1	2	1	23_2_1	2	0	1	0	1.35613083839	50.0	167.0	49.0	164.0	1
3.0.1	2019_Mar_03_1802	s	s	3	1	Capacity	48	1_1	1	1	3	1	23_3_1	2	0	0	1	0.709897994995	363.0	-281.0	None	None	0
3.0.1	2019_Mar_03_1802	s	s	3	1	Capacity	49	1_1	1	1	4	1	23_4_1	3	0	1	0	0.510392904282	-330.0	121.0	-318.0	125.0	1
3.0.1	2019_Mar_03_1802	s	s	3	1	Capacity	50	1_1	1	1	2	1	23_2_1	1	0	0	1	1.13268399239	340.0	-371.0	None	None	0
3.0.1	2019_Mar_03_1802	s	s	3	1	Capacity	51	3_1	3	1	2	1	23_2_1	1	0	1	0	0.716901063919	-45.0	245.0	-48.0	245.0	1
3.0.1	2019_Mar_03_1802	s	s	3	1	Capacity	52	4_1	4	1	3	1	23_3_1	1	0	1	0	0.517184019089	245.0	398.0	249.0	394.0	1
3.0.1	2019_Mar_03_1802	s	s	3	1	Capacity	53	ABS	0	0	1	1	24_1_1	NA	NA	0	1	0.763814926147	None	None	None	None	1
3.0.1	2019_Mar_03_1802	s	s	3	1	Capacity	54	ABS	0	0	3	1	24_3_1	NA	NA	0	1	0.737793922424	None	None	None	None	1
3.0.1	2019_Mar_03_1802	s	s	3	1	Capacity	55	ABS	0	0	4	1	24_4_1	NA	NA	0	1	0.731450080872	None	None	None	None	1
3.0.1	2019_Mar_03_1802	s	s	3	1	Capacity	56	ABS	0	0	4	1	24_4_1	NA	NA	0	1	0.775969982147	None	None	None	None	1
3.0.1	2019_Mar_03_1802	s	s	3	1	Capacity	57	ABS	0	0	4	1	24_4_1	NA	NA	0	1	0.627474784851	None	None	None	None	1
3.0.1	2019_Mar_03_1802	s	s	3	1	Capacity	58	ABS	0	0	1	1	24_1_1	NA	NA	0	1	0.576014995575	None	None	None	None	1
3.0.1	2019_Mar_03_1802	s	s	3	1	Capacity	59	ABS	0	0	2	1	24_2_1	NA	NA	0	1	1.04605603218	None	None	None	None	1
3.0.1	2019_Mar_03_1802	s	s	3	1	Capacity	60	ABS	0	0	2	1	24_2_1	NA	NA	0	1	0.693190097809	None	None	None	None	1
3.0.1	2019_Mar_03_1802	s	s	3	1	Capacity	61	4_1	4	1	2	1	23_2_1	2	0	1	0	0.502274990082	-388.0	17.0	-395.0	17.0	1
3.0.1	2019_Mar_03_1802	s	s	3	1	Capacity	62	1_1	1	1	3	1	23_3_1	2	0	1	0	0.826507091522	134.0	16.0	143.0	14.0	1
3.0.1	2019_Mar_03_1802	s	s	3	1	Capacity	63	2_1	2	1	3	1	23_3_1	1	0	0	1	0.980999946594	490.0	-313.0	None	None	0
3.0.1	2019_Mar_03_1802	s	s	3	1	Capacity	64	4_1	4	1	1	1	23_1_1	3	0	1	0	0.628051042557	-482.0	258.0	-483.0	254.0	1
3.0.1	2019_Mar_03_1802	s	s	3	1	Capacity	65	2_1	2	1	4	1	23_4_1	2	0	1	0	0.575622797012	341.0	118.0	347.0	110.0	1
3.0.1	2019_Mar_03_1802	s	s	3	1	Capacity	66	3_1	3	1	1	1	23_1_1	2	0	1	0	0.7520840168	-319.0	184.0	-321.0	181.0	1
3.0.1	2019_Mar_03_1802	s	s	3	1	Capacity	67	2_1	2	1	1	1	23_1_1	-1	0	0	1	0.681554794312	450.0	-23.0	None	None	0
3.0.1	2019_Mar_03_1802	s	s	3	1	Capacity	68	ABS	0	0	2	1	24_2_1	NA	NA	0	1	0.605638027191	None	None	None	None	1
3.0.1	2019_Mar_03_1802	s	s	3	1	Capacity	69	ABS	0	0	1	1	24_1_1	NA	NA	0	1	0.686635017395	None	None	None	None	1
3.0.1	2019_Mar_03_1802	s	s	3	1	Capacity	70	ABS	0	0	3	1	24_3_1	NA	NA	0	1	0.731426000595	None	None	None	None	1
3.0.1	2019_Mar_03_1802	s	s	3	1	Capacity	71	ABS	0	0	3	1	24_3_1	NA	NA	0	1	0.822570085526	None	None	None	None	1
3.0.1	2019_Mar_03_1802	s	s	3	1	Capacity	72	3_1	3	1	4	1	23_4_1	-1	0	1	0	0.62770986557	488.0	-174.0	484.0	-178.0	1
3.0.1	2019_Mar_03_1802	s	s	3	1	Capacity	73	4_1	4	1	2	1	23_2_1	2	0	1	0	0.790203094482	71.0	359.0	83.0	362.0	1
3.0.1	2019_Mar_03_1802	s	s	3	1	Capacity	74	3_1	3	1	2	1	23_2_1	1	0	1	0	0.6029920578	228.0	-39.0	217.0	-38.0	1
3.0.1	2019_Mar_03_1802	s	s	3	1	Capacity	75	4_1	4	1	1	1	23_1_1	3	0	1	0	0.458023071289	210.0	173.0	204.0	180.0	1
3.0.1	2019_Mar_03_1802	s	s	3	1	Capacity	76	1_1	1	1	3	1	23_3_1	2	0	1	0	0.657925844193	254.0	-258.0	248.0	-258.0	1
3.0.1	2019_Mar_03_1802	s	s	3	1	Capacity	77	ABS	0	0	1	1	24_1_1	NA	NA	0	1	1.01081299782	None	None	None	None	1
3.0.1	2019_Mar_03_1802	s	s	3	1	Capacity	78	2_1	2	1	4	1	23_4_1	2	0	1	0	0.462929010391	214.0	-390.0	220.0	-383.0	1
3.0.1	2019_Mar_03_1802	s	s	3	1	Capacity	79	1_1	1	1	4	1	23_4_1	3	0	1	0	0.437330007553	-28.0	379.0	-23.0	379.0	1
3.0.1	2019_Mar_03_1802	s	s	3	1	Capacity	80	2_1	2	1	3	1	23_3_1	1	0	1	0	1.07442212105	312.0	-211.0	312.0	-206.0	1
3.0.1	2019_Mar_03_1802	s	s	3	1	Capacity	81	3_1	3	1	4	1	23_4_1	-1	0	1	0	0.496114969254	122.0	-229.0	131.0	-223.0	1
3.0.1	2019_Mar_03_1802	s	s	3	1	Capacity	82	ABS	0	0	2	1	24_2_1	NA	NA	0	1	0.616026163101	None	None	None	None	1
3.0.1	2019_Mar_03_1802	s	s	3	1	Capacity	83	ABS	0	0	2	1	24_2_1	NA	NA	0	1	0.5755879879	None	None	None	None	1
3.0.1	2019_Mar_03_1802	s	s	3	1	Capacity	84	ABS	0	0	4	1	24_4_1	NA	NA	0	1	0.790177106857	None	None	None	None	1
3.0.1	2019_Mar_03_1802	s	s	3	1	Capacity	85	ABS	0	0	1	1	24_1_1	NA	NA	0	1	0.516719102859	None	None	None	None	1
3.0.1	2019_Mar_03_1802	s	s	3	1	Capacity	86	ABS	0	0	4	1	24_4_1	NA	NA	0	1	0.502326965332	None	None	None	None	1
3.0.1	2019_Mar_03_1802	s	s	3	1	Capacity	87	ABS	0	0	1	1	24_1_1	NA	NA	0	1	0.496172904968	None	None	None	None	1
3.0.1	2019_Mar_03_1802	s	s	3	1	Capacity	88	2_1	2	1	1	1	23_1_1	-1	0	0	1	0.505488157272	-207.0	394.0	None	None	0
3.0.1	2019_Mar_03_1802	s	s	3	1	Capacity	89	3_1	3	1	1	1	23_1_1	2	0	0	1	1.11666297913	-270.0	375.0	None	None	0
3.0.1	2019_Mar_03_1802	s	s	3	1	Capacity	90	ABS	0	0	3	1	24_3_1	NA	NA	0	1	0.575597047806	None	None	None	None	1
3.0.1	2019_Mar_03_1802	s	s	3	1	Capacity	91	ABS	0	0	3	1	24_3_1	NA	NA	0	1	0.556022882462	None	None	None	None	1
3.0.1	2019_Mar_03_1802	s	s	3	1	Capacity	92	1_1	1	1	2	1	23_2_1	1	0	0	1	0.523261785507	-525.0	90.0	None	None	0
3.0.1	2019_Mar_03_1802	s	s	3	1	Capacity	93	ABS	0	0	4	1	24_4_1	NA	NA	0	1	0.441928863525	None	None	None	None	1
3.0.1	2019_Mar_03_1802	s	s	3	1	Capacity	94	ABS	0	0	3	1	24_3_1	NA	NA	0	1	0.41591501236	None	None	None	None	1
3.0.1	2019_Mar_03_1802	s	s	3	1	Capacity	95	4_1	4	1	3	1	23_3_1	1	0	1	0	0.650936126709	-211.0	-177.0	-213.0	-172.0	1
3.0.1	2019_Mar_03_1802	s	s	3	1	Capacity	96	ABS	0	0	2	1	24_2_1	NA	NA	0	1	0.669728040695	None	None	None	None	1
3.0.1	2019_Mar_03_1802	s	s	3	1	Capacity	1	1_3	1	3	1	1	23_1_1	0	2	1	0	1.89331293106	-401.0	-381.0	-396.0	-383.0	1
3.0.1	2019_Mar_03_1802	s	s	3	1	Capacity	2	1_2	1	2	1	4	23_1_4	0	2	0	1	0.853799104691	385.0	137.0	None	None	0
3.0.1	2019_Mar_03_1802	s	s	3	1	Capacity	3	ABS	0	0	1	3	24_1_3	NA	NA	0	1	3.33939790726	None	None	None	None	1
3.0.1	2019_Mar_03_1802	s	s	3	1	Capacity	4	1_2	1	2	1	1	23_1_1	0	-1	1	0	1.14498996735	-116.0	241.0	-116.0	247.0	1
3.0.1	2019_Mar_03_1802	s	s	3	1	Capacity	5	1_3	1	3	1	2	23_1_2	0	1	1	0	3.51589012146	-261.0	34.0	-262.0	37.0	1
3.0.1	2019_Mar_03_1802	s	s	3	1	Capacity	6	ABS	0	0	1	4	24_1_4	NA	NA	0	1	2.00545310974	None	None	None	None	1
3.0.1	2019_Mar_03_1802	s	s	3	1	Capacity	7	ABS	0	0	1	2	24_1_2	NA	NA	0	1	4.23342394829	None	None	None	None	1
3.0.1	2019_Mar_03_1802	s	s	3	1	Capacity	8	1_4	1	4	1	1	23_1_1	0	3	1	0	0.863044023514	307.0	407.0	316.0	412.0	1
3.0.1	2019_Mar_03_1802	s	s	3	1	Capacity	9	ABS	0	0	1	3	24_1_3	NA	NA	0	1	4.82644200325	None	None	None	None	1
3.0.1	2019_Mar_03_1802	s	s	3	1	Capacity	10	ABS	0	0	1	1	24_1_1	NA	NA	0	1	2.3191640377	None	None	None	None	1
3.0.1	2019_Mar_03_1802	s	s	3	1	Capacity	11	1_4	1	4	1	2	23_1_2	0	2	1	0	0.721957921982	-429.0	326.0	-428.0	326.0	1
3.0.1	2019_Mar_03_1802	s	s	3	1	Capacity	12	ABS	0	0	1	2	24_1_2	NA	NA	0	1	2.19327497482	None	None	None	None	1
3.0.1	2019_Mar_03_1802	s	s	3	1	Capacity	13	ABS	0	0	1	1	24_1_1	NA	NA	0	1	2.44566893578	None	None	None	None	1
3.0.1	2019_Mar_03_1802	s	s	3	1	Capacity	14	ABS	0	0	1	3	24_1_3	NA	NA	0	1	5.87996101379	None	None	None	None	1
3.0.1	2019_Mar_03_1802	s	s	3	1	Capacity	15	ABS	0	0	1	1	24_1_1	NA	NA	0	1	1.89023113251	None	None	None	None	1
3.0.1	2019_Mar_03_1802	s	s	3	1	Capacity	16	ABS	0	0	1	4	24_1_4	NA	NA	0	1	2.79070210457	None	None	None	None	1
3.0.1	2019_Mar_03_1802	s	s	3	1	Capacity	17	1_1	1	1	1	2	23_1_2	0	1	1	0	1.97514796257	210.0	45.0	210.0	40.0	1
3.0.1	2019_Mar_03_1802	s	s	3	1	Capacity	18	1_3	1	3	1	4	23_1_4	0	-1	1	0	1.35183286667	-323.0	392.0	-328.0	391.0	1
3.0.1	2019_Mar_03_1802	s	s	3	1	Capacity	19	ABS	0	0	1	2	24_1_2	NA	NA	0	1	3.56806492805	None	None	None	None	1
3.0.1	2019_Mar_03_1802	s	s	3	1	Capacity	20	ABS	0	0	1	4	24_1_4	NA	NA	0	1	1.54531908035	None	None	None	None	1
3.0.1	2019_Mar_03_1802	s	s	3	1	Capacity	21	1_2	1	2	1	3	23_1_3	0	1	1	0	3.06231403351	-538.0	41.0	-550.0	42.0	1
3.0.1	2019_Mar_03_1802	s	s	3	1	Capacity	22	1_4	1	4	1	3	23_1_3	0	1	1	0	1.89288401604	145.0	-347.0	161.0	-339.0	1
3.0.1	2019_Mar_03_1802	s	s	3	1	Capacity	23	1_1	1	1	1	4	23_1_4	0	3	1	0	0.780472040176	-224.0	366.0	-215.0	373.0	1
3.0.1	2019_Mar_03_1802	s	s	3	1	Capacity	24	1_1	1	1	1	3	23_1_3	0	2	0	1	0.91668009758	-172.0	255.0	None	None	0
3.0.1	2019_Mar_03_1802	s	s	3	1	Capacity	25	1_2	1	2	1	1	23_1_1	0	-1	1	0	2.0809969902	422.0	257.0	433.0	257.0	1
3.0.1	2019_Mar_03_1802	s	s	3	1	Capacity	26	ABS	0	0	1	4	24_1_4	NA	NA	0	1	2.3516368866	None	None	None	None	1
3.0.1	2019_Mar_03_1802	s	s	3	1	Capacity	27	1_3	1	3	1	2	23_1_2	0	1	0	1	3.3188290596	452.0	-118.0	None	None	0
3.0.1	2019_Mar_03_1802	s	s	3	1	Capacity	28	ABS	0	0	1	3	24_1_3	NA	NA	0	1	4.42663311958	None	None	None	None	1
3.0.1	2019_Mar_03_1802	s	s	3	1	Capacity	29	ABS	0	0	1	3	24_1_3	NA	NA	0	1	3.17484879494	None	None	None	None	1
3.0.1	2019_Mar_03_1802	s	s	3	1	Capacity	30	ABS	0	0	1	2	24_1_2	NA	NA	0	1	4.08055090904	None	None	None	None	1
3.0.1	2019_Mar_03_1802	s	s	3	1	Capacity	31	1_2	1	2	1	4	23_1_4	0	2	1	0	1.09606194496	79.0	226.0	74.0	235.0	1
3.0.1	2019_Mar_03_1802	s	s	3	1	Capacity	32	ABS	0	0	1	1	24_1_1	NA	NA	0	1	1.04603481293	None	None	None	None	1
3.0.1	2019_Mar_03_1802	s	s	3	1	Capacity	33	ABS	0	0	1	1	24_1_1	NA	NA	0	1	1.57866597176	None	None	None	None	1
3.0.1	2019_Mar_03_1802	s	s	3	1	Capacity	34	1_1	1	1	1	3	23_1_3	0	2	1	0	1.2167301178	-138.0	284.0	-143.0	285.0	1
3.0.1	2019_Mar_03_1802	s	s	3	1	Capacity	35	1_3	1	3	1	4	23_1_4	0	-1	1	0	0.65803194046	-53.0	206.0	-47.0	205.0	1
3.0.1	2019_Mar_03_1802	s	s	3	1	Capacity	36	1_1	1	1	1	4	23_1_4	0	3	1	0	0.646180868149	-388.0	322.0	-388.0	324.0	1
3.0.1	2019_Mar_03_1802	s	s	3	1	Capacity	37	ABS	0	0	1	1	24_1_1	NA	NA	0	1	1.01082897186	None	None	None	None	1
3.0.1	2019_Mar_03_1802	s	s	3	1	Capacity	38	1_4	1	4	1	3	23_1_3	0	1	1	0	0.673721075058	-350.0	46.0	-347.0	45.0	1
3.0.1	2019_Mar_03_1802	s	s	3	1	Capacity	39	1_3	1	3	1	1	23_1_1	0	2	1	0	0.757289171219	-118.0	32.0	-117.0	28.0	1
3.0.1	2019_Mar_03_1802	s	s	3	1	Capacity	40	1_2	1	2	1	3	23_1_3	0	1	0	1	3.48355412483	421.0	-325.0	None	None	0
3.0.1	2019_Mar_03_1802	s	s	3	1	Capacity	41	1_1	1	1	1	2	23_1_2	0	1	1	0	4.08050394058	492.0	354.0	490.0	344.0	1
3.0.1	2019_Mar_03_1802	s	s	3	1	Capacity	42	ABS	0	0	1	4	24_1_4	NA	NA	0	1	2.44394993782	None	None	None	None	1
3.0.1	2019_Mar_03_1802	s	s	3	1	Capacity	43	ABS	0	0	1	3	24_1_3	NA	NA	0	1	3.69235897064	None	None	None	None	1
3.0.1	2019_Mar_03_1802	s	s	3	1	Capacity	44	ABS	0	0	1	2	24_1_2	NA	NA	0	1	4.20099306107	None	None	None	None	1
3.0.1	2019_Mar_03_1802	s	s	3	1	Capacity	45	1_4	1	4	1	1	23_1_1	0	3	1	0	0.916702985764	313.0	71.0	315.0	73.0	1
3.0.1	2019_Mar_03_1802	s	s	3	1	Capacity	46	1_4	1	4	1	2	23_1_2	0	2	1	0	0.591590166092	389.0	123.0	383.0	120.0	1
3.0.1	2019_Mar_03_1802	s	s	3	1	Capacity	47	ABS	0	0	1	2	24_1_2	NA	NA	0	1	2.20156216621	None	None	None	None	1
3.0.1	2019_Mar_03_1802	s	s	3	1	Capacity	48	ABS	0	0	1	4	24_1_4	NA	NA	0	1	1.95170783997	None	None	None	None	1
3.0.1	2019_Mar_03_1802	s	s	3	1	Capacity	49	ABS	0	0	1	2	24_1_2	NA	NA	0	1	3.77470302582	None	None	None	None	1
3.0.1	2019_Mar_03_1802	s	s	3	1	Capacity	50	1_2	1	2	1	3	23_1_3	0	1	1	0	4.22153186798	191.0	-408.0	203.0	-404.0	1
3.0.1	2019_Mar_03_1802	s	s	3	1	Capacity	51	1_4	1	4	1	2	23_1_2	0	2	1	0	0.834393978119	403.0	-330.0	410.0	-329.0	1
3.0.1	2019_Mar_03_1802	s	s	3	1	Capacity	52	ABS	0	0	1	4	24_1_4	NA	NA	0	1	2.16825699806	None	None	None	None	1
3.0.1	2019_Mar_03_1802	s	s	3	1	Capacity	53	ABS	0	0	1	2	24_1_2	NA	NA	0	1	5.2565870285	None	None	None	None	1
3.0.1	2019_Mar_03_1802	s	s	3	1	Capacity	54	ABS	0	0	1	3	24_1_3	NA	NA	0	1	4.27344584465	None	None	None	None	1
3.0.1	2019_Mar_03_1802	s	s	3	1	Capacity	55	1_1	1	1	1	2	23_1_2	0	1	1	0	3.36304497719	-280.0	-43.0	-277.0	-37.0	1
3.0.1	2019_Mar_03_1802	s	s	3	1	Capacity	56	ABS	0	0	1	1	24_1_1	NA	NA	0	1	1.17541003227	None	None	None	None	1
3.0.1	2019_Mar_03_1802	s	s	3	1	Capacity	57	ABS	0	0	1	4	24_1_4	NA	NA	0	1	1.39188194275	None	None	None	None	1
3.0.1	2019_Mar_03_1802	s	s	3	1	Capacity	58	1_1	1	1	1	4	23_1_4	0	3	1	0	0.678751945496	-238.0	-272.0	-241.0	-262.0	1
3.0.1	2019_Mar_03_1802	s	s	3	1	Capacity	59	1_3	1	3	1	2	23_1_2	0	1	0	1	2.78671622276	-285.0	264.0	None	None	0
3.0.1	2019_Mar_03_1802	s	s	3	1	Capacity	60	ABS	0	0	1	3	24_1_3	NA	NA	0	1	2.7048740387	None	None	None	None	1
3.0.1	2019_Mar_03_1802	s	s	3	1	Capacity	61	1_3	1	3	1	4	23_1_4	0	-1	1	0	0.799097061157	250.0	-247.0	244.0	-247.0	1
3.0.1	2019_Mar_03_1802	s	s	3	1	Capacity	62	1_4	1	4	1	1	23_1_1	0	3	1	0	0.575583934784	-46.0	-229.0	-49.0	-231.0	1
3.0.1	2019_Mar_03_1802	s	s	3	1	Capacity	63	1_3	1	3	1	1	23_1_1	0	2	1	0	0.559041976929	-234.0	-76.0	-232.0	-81.0	1
3.0.1	2019_Mar_03_1802	s	s	3	1	Capacity	64	ABS	0	0	1	1	24_1_1	NA	NA	0	1	0.76381611824	None	None	None	None	1
3.0.1	2019_Mar_03_1802	s	s	3	1	Capacity	65	1_1	1	1	1	3	23_1_3	0	2	1	0	1.18720197678	533.0	253.0	543.0	255.0	1
3.0.1	2019_Mar_03_1802	s	s	3	1	Capacity	66	ABS	0	0	1	1	24_1_1	NA	NA	0	1	1.79612588882	None	None	None	None	1
3.0.1	2019_Mar_03_1802	s	s	3	1	Capacity	67	1_4	1	4	1	3	23_1_3	0	1	1	0	0.822610855103	405.0	337.0	415.0	343.0	1
3.0.1	2019_Mar_03_1802	s	s	3	1	Capacity	68	ABS	0	0	1	2	24_1_2	NA	NA	0	1	2.00406289101	None	None	None	None	1
3.0.1	2019_Mar_03_1802	s	s	3	1	Capacity	69	1_2	1	2	1	4	23_1_4	0	2	1	0	0.53378200531	-124.0	-8.0	-119.0	0.0	1
3.0.1	2019_Mar_03_1802	s	s	3	1	Capacity	70	1_2	1	2	1	1	23_1_1	0	-1	1	0	1.99910306931	-487.0	328.0	-494.0	335.0	1
3.0.1	2019_Mar_03_1802	s	s	3	1	Capacity	71	ABS	0	0	1	3	24_1_3	NA	NA	0	1	3.25193214417	None	None	None	None	1
3.0.1	2019_Mar_03_1802	s	s	3	1	Capacity	72	ABS	0	0	1	4	24_1_4	NA	NA	0	1	1.99085378647	None	None	None	None	1
3.0.1	2019_Mar_03_1802	s	s	3	1	Capacity	73	1_4	1	4	1	3	23_1_3	0	1	1	0	0.869673013687	-372.0	393.0	-374.0	393.0	1
3.0.1	2019_Mar_03_1802	s	s	3	1	Capacity	74	ABS	0	0	1	2	24_1_2	NA	NA	0	1	2.47444105148	None	None	None	None	1
3.0.1	2019_Mar_03_1802	s	s	3	1	Capacity	75	ABS	0	0	1	3	24_1_3	NA	NA	0	1	2.7906730175	None	None	None	None	1
3.0.1	2019_Mar_03_1802	s	s	3	1	Capacity	76	ABS	0	0	1	1	24_1_1	NA	NA	0	1	1.3194770813	None	None	None	None	1
3.0.1	2019_Mar_03_1802	s	s	3	1	Capacity	77	ABS	0	0	1	2	24_1_2	NA	NA	0	1	2.77499103546	None	None	None	None	1
3.0.1	2019_Mar_03_1802	s	s	3	1	Capacity	78	1_2	1	2	1	3	23_1_3	0	1	1	0	3.12783694267	-511.0	-47.0	-506.0	-50.0	1
3.0.1	2019_Mar_03_1802	s	s	3	1	Capacity	79	ABS	0	0	1	4	24_1_4	NA	NA	0	1	2.21546697617	None	None	None	None	1
3.0.1	2019_Mar_03_1802	s	s	3	1	Capacity	80	1_3	1	3	1	4	23_1_4	0	-1	1	0	1.34641289711	-473.0	-263.0	-480.0	-267.0	1
3.0.1	2019_Mar_03_1802	s	s	3	1	Capacity	81	ABS	0	0	1	4	24_1_4	NA	NA	0	1	2.05753993988	None	None	None	None	1
3.0.1	2019_Mar_03_1802	s	s	3	1	Capacity	82	1_3	1	3	1	1	23_1_1	0	2	1	0	0.858052015305	-496.0	-165.0	-499.0	-169.0	1
3.0.1	2019_Mar_03_1802	s	s	3	1	Capacity	83	ABS	0	0	1	4	24_1_4	NA	NA	0	1	2.24580907822	None	None	None	None	1
3.0.1	2019_Mar_03_1802	s	s	3	1	Capacity	84	ABS	0	0	1	1	24_1_1	NA	NA	0	1	1.12111210823	None	None	None	None	1
3.0.1	2019_Mar_03_1802	s	s	3	1	Capacity	85	1_4	1	4	1	2	23_1_2	0	2	1	0	0.599642038345	237.0	184.0	233.0	188.0	1
3.0.1	2019_Mar_03_1802	s	s	3	1	Capacity	86	1_2	1	2	1	1	23_1_1	0	-1	0	1	1.23902487755	-38.0	132.0	None	None	0
3.0.1	2019_Mar_03_1802	s	s	3	1	Capacity	87	ABS	0	0	1	1	24_1_1	NA	NA	0	1	1.29301190376	None	None	None	None	1
3.0.1	2019_Mar_03_1802	s	s	3	1	Capacity	88	1_1	1	1	1	2	23_1_2	0	1	0	1	4.99137282372	-29.0	-340.0	None	None	0
3.0.1	2019_Mar_03_1802	s	s	3	1	Capacity	89	1_2	1	2	1	4	23_1_4	0	2	1	0	0.981098890305	-353.0	-206.0	-354.0	-213.0	1
3.0.1	2019_Mar_03_1802	s	s	3	1	Capacity	90	ABS	0	0	1	3	24_1_3	NA	NA	0	1	4.10686612129	None	None	None	None	1
3.0.1	2019_Mar_03_1802	s	s	3	1	Capacity	91	ABS	0	0	1	2	24_1_2	NA	NA	0	1	3.76327300072	None	None	None	None	1
3.0.1	2019_Mar_03_1802	s	s	3	1	Capacity	92	ABS	0	0	1	3	24_1_3	NA	NA	0	1	3.69213986397	None	None	None	None	1
3.0.1	2019_Mar_03_1802	s	s	3	1	Capacity	93	1_1	1	1	1	4	23_1_4	0	3	1	0	0.787393093109	-276.0	-374.0	-272.0	-382.0	1
3.0.1	2019_Mar_03_1802	s	s	3	1	Capacity	94	1_4	1	4	1	1	23_1_1	0	3	1	0	0.61385011673	-482.0	-343.0	-466.0	-333.0	1
3.0.1	2019_Mar_03_1802	s	s	3	1	Capacity	95	1_1	1	1	1	3	23_1_3	0	2	1	0	0.981415987015	148.0	232.0	145.0	238.0	1
3.0.1	2019_Mar_03_1802	s	s	3	1	Capacity	96	1_3	1	3	1	2	23_1_2	0	1	1	0	0.907805204391	-56.0	118.0	-69.0	124.0	1
3.0.1	2019_Mar_03_1802	s	s	3	1	SIC	1	ABS	0	0	4	2	24_4_2	NA	NA	0	1	1.51642394066	None	None	None	None	1
3.0.1	2019_Mar_03_1802	s	s	3	1	SIC	2	1_1	1	1	4	4	23_4_4	3	3	1	0	0.469783067703	-165.0	226.0	-162.0	212.0	1
3.0.1	2019_Mar_03_1802	s	s	3	1	SIC	3	2_2	2	2	1	1	23_1_1	-1	-1	1	0	1.21074795723	66.0	20.0	73.0	14.0	1
3.0.1	2019_Mar_03_1802	s	s	3	1	SIC	4	ABS	0	0	1	4	24_1_4	NA	NA	0	1	1.61959218979	None	None	None	None	1
3.0.1	2019_Mar_03_1802	s	s	3	1	SIC	5	ABS	0	0	4	4	24_4_4	NA	NA	0	1	1.34010004997	None	None	None	None	1
3.0.1	2019_Mar_03_1802	s	s	3	1	SIC	6	ABS	0	0	1	2	24_1_2	NA	NA	0	1	2.42226004601	None	None	None	None	1
3.0.1	2019_Mar_03_1802	s	s	3	1	SIC	7	ABS	0	0	2	1	24_2_1	NA	NA	0	1	1.61545300484	None	None	None	None	1
3.0.1	2019_Mar_03_1802	s	s	3	1	SIC	8	ABS	0	0	2	2	24_2_2	NA	NA	0	1	2.13348579407	None	None	None	None	1
3.0.1	2019_Mar_03_1802	s	s	3	1	SIC	9	4_2	4	2	2	3	23_2_3	2	1	1	0	0.528647899628	24.0	70.0	16.0	69.0	1
3.0.1	2019_Mar_03_1802	s	s	3	1	SIC	10	ABS	0	0	2	1	24_2_1	NA	NA	0	1	0.973997116089	None	None	None	None	1
3.0.1	2019_Mar_03_1802	s	s	3	1	SIC	11	ABS	0	0	1	1	24_1_1	NA	NA	0	1	1.42246413231	None	None	None	None	1
3.0.1	2019_Mar_03_1802	s	s	3	1	SIC	12	2_3	2	3	1	4	23_1_4	-1	-1	1	0	0.993808031082	-402.0	298.0	-404.0	301.0	1
3.0.1	2019_Mar_03_1802	s	s	3	1	SIC	13	ABS	0	0	3	3	24_3_3	NA	NA	0	1	3.33947300911	None	None	None	None	1
3.0.1	2019_Mar_03_1802	s	s	3	1	SIC	14	3_3	3	3	3	2	23_3_2	0	1	0	1	3.86250185966	359.0	293.0	None	None	0
3.0.1	2019_Mar_03_1802	s	s	3	1	SIC	15	1_3	1	3	4	3	23_4_3	3	0	1	0	0.60444021225	-90.0	-407.0	-95.0	-413.0	1
3.0.1	2019_Mar_03_1802	s	s	3	1	SIC	16	ABS	0	0	4	2	24_4_2	NA	NA	0	1	1.26714110374	None	None	None	None	1
3.0.1	2019_Mar_03_1802	s	s	3	1	SIC	17	ABS	0	0	3	2	24_3_2	NA	NA	0	1	1.76348590851	None	None	None	None	1
3.0.1	2019_Mar_03_1802	s	s	3	1	SIC	18	2_1	2	1	1	3	23_1_3	-1	2	1	0	0.834385871887	-10.0	155.0	-17.0	149.0	1
3.0.1	2019_Mar_03_1802	s	s	3	1	SIC	19	ABS	0	0	3	3	24_3_3	NA	NA	0	1	2.30453491211	None	None	None	None	1
3.0.1	2019_Mar_03_1802	s	s	3	1	SIC	20	3_2	3	2	1	2	23_1_2	2	0	1	0	0.795685052872	-56.0	231.0	-55.0	232.0	1
3.0.1	2019_Mar_03_1802	s	s	3	1	SIC	21	ABS	0	0	3	2	24_3_2	NA	NA	0	1	3.03357505798	None	None	None	None	1
3.0.1	2019_Mar_03_1802	s	s	3	1	SIC	22	1_3	1	3	2	4	23_2_4	1	-1	1	0	0.599203824997	-237.0	219.0	-240.0	221.0	1
3.0.1	2019_Mar_03_1802	s	s	3	1	SIC	23	ABS	0	0	2	3	24_2_3	NA	NA	0	1	3.45707297325	None	None	None	None	1
3.0.1	2019_Mar_03_1802	s	s	3	1	SIC	24	4_1	4	1	2	1	23_2_1	2	0	1	0	0.469743013382	259.0	49.0	264.0	58.0	1
3.0.1	2019_Mar_03_1802	s	s	3	1	SIC	25	ABS	0	0	2	3	24_2_3	NA	NA	0	1	2.62197518349	None	None	None	None	1
3.0.1	2019_Mar_03_1802	s	s	3	1	SIC	26	2_4	2	4	1	3	23_1_3	-1	1	1	0	0.922883033752	-224.0	46.0	-223.0	42.0	1
3.0.1	2019_Mar_03_1802	s	s	3	1	SIC	27	3_3	3	3	1	1	23_1_1	2	2	1	0	0.533878087997	-363.0	131.0	-360.0	134.0	1
3.0.1	2019_Mar_03_1802	s	s	3	1	SIC	28	2_3	2	3	3	2	23_3_2	1	1	1	0	1.09311795235	-535.0	373.0	-533.0	369.0	1
3.0.1	2019_Mar_03_1802	s	s	3	1	SIC	29	2_3	2	3	3	1	23_3_1	1	2	1	0	0.486245155334	68.0	71.0	68.0	73.0	1
3.0.1	2019_Mar_03_1802	s	s	3	1	SIC	30	ABS	0	0	4	3	24_4_3	NA	NA	0	1	4.09227085114	None	None	None	None	1
3.0.1	2019_Mar_03_1802	s	s	3	1	SIC	31	2_1	2	1	3	2	23_3_2	1	1	1	0	0.5525598526	-313.0	196.0	-312.0	183.0	1
3.0.1	2019_Mar_03_1802	s	s	3	1	SIC	32	ABS	0	0	4	3	24_4_3	NA	NA	0	1	2.48098111153	None	None	None	None	1
3.0.1	2019_Mar_03_1802	s	s	3	1	SIC	33	ABS	0	0	4	1	24_4_1	NA	NA	0	1	0.834430932999	None	None	None	None	1
3.0.1	2019_Mar_03_1802	s	s	3	1	SIC	34	3_3	3	3	2	1	23_2_1	1	2	1	0	1.41060996056	-68.0	-299.0	-63.0	-308.0	1
3.0.1	2019_Mar_03_1802	s	s	3	1	SIC	35	1_4	1	4	3	4	23_3_4	2	0	1	0	0.587345123291	-49.0	-141.0	-58.0	-133.0	1
3.0.1	2019_Mar_03_1802	s	s	3	1	SIC	36	4_4	4	4	3	2	23_3_2	1	2	1	0	0.469748020172	-407.0	-229.0	-403.0	-228.0	1
3.0.1	2019_Mar_03_1802	s	s	3	1	SIC	37	1_2	1	2	3	2	23_3_2	2	0	0	1	0.790261030197	272.0	361.0	None	None	0
3.0.1	2019_Mar_03_1802	s	s	3	1	SIC	38	ABS	0	0	2	4	24_2_4	NA	NA	0	1	1.56879997253	None	None	None	None	1
3.0.1	2019_Mar_03_1802	s	s	3	1	SIC	39	ABS	0	0	4	4	24_4_4	NA	NA	0	1	0.744240045547	None	None	None	None	1
3.0.1	2019_Mar_03_1802	s	s	3	1	SIC	40	ABS	0	0	2	4	24_2_4	NA	NA	0	1	1.29901504517	None	None	None	None	1
3.0.1	2019_Mar_03_1802	s	s	3	1	SIC	41	ABS	0	0	1	1	24_1_1	NA	NA	0	1	0.646243810654	None	None	None	None	1
3.0.1	2019_Mar_03_1802	s	s	3	1	SIC	42	ABS	0	0	1	4	24_1_4	NA	NA	0	1	0.639732837677	None	None	None	None	1
3.0.1	2019_Mar_03_1802	s	s	3	1	SIC	43	3_4	3	4	3	1	23_3_1	0	3	1	0	0.575627088547	72.0	317.0	71.0	308.0	1
3.0.1	2019_Mar_03_1802	s	s	3	1	SIC	44	4_1	4	1	3	4	23_3_4	1	3	1	0	0.469670057297	-289.0	-158.0	-284.0	-153.0	1
3.0.1	2019_Mar_03_1802	s	s	3	1	SIC	45	ABS	0	0	2	4	24_2_4	NA	NA	0	1	1.46057486534	None	None	None	None	1
3.0.1	2019_Mar_03_1802	s	s	3	1	SIC	46	ABS	0	0	4	1	24_4_1	NA	NA	0	1	1.27384400368	None	None	None	None	1
3.0.1	2019_Mar_03_1802	s	s	3	1	SIC	47	1_1	1	1	2	1	23_2_1	1	0	0	1	0.73140001297	197.0	98.0	None	None	0
3.0.1	2019_Mar_03_1802	s	s	3	1	SIC	48	ABS	0	0	3	4	24_3_4	NA	NA	0	1	0.907809019089	None	None	None	None	1
3.0.1	2019_Mar_03_1802	s	s	3	1	SIC	49	ABS	0	0	1	3	24_1_3	NA	NA	0	1	2.28468084335	None	None	None	None	1
3.0.1	2019_Mar_03_1802	s	s	3	1	SIC	50	4_3	4	3	2	3	23_2_3	2	0	1	0	0.599169969559	-518.0	-136.0	-529.0	-130.0	1
3.0.1	2019_Mar_03_1802	s	s	3	1	SIC	51	ABS	0	0	2	4	24_2_4	NA	NA	0	1	1.1284558773	None	None	None	None	1
3.0.1	2019_Mar_03_1802	s	s	3	1	SIC	52	ABS	0	0	3	3	24_3_3	NA	NA	0	1	2.97938394547	None	None	None	None	1
3.0.1	2019_Mar_03_1802	s	s	3	1	SIC	53	ABS	0	0	4	1	24_4_1	NA	NA	0	1	0.968635797501	None	None	None	None	1
3.0.1	2019_Mar_03_1802	s	s	3	1	SIC	54	3_3	3	3	1	4	23_1_4	2	-1	1	0	0.634457111359	406.0	260.0	412.0	261.0	1
3.0.1	2019_Mar_03_1802	s	s	3	1	SIC	55	1_3	1	3	4	4	23_4_4	3	-1	1	0	0.893169879913	311.0	-179.0	316.0	-178.0	1
3.0.1	2019_Mar_03_1802	s	s	3	1	SIC	56	2_4	2	4	4	4	23_4_4	2	0	1	0	0.528643131256	-394.0	-14.0	-389.0	-15.0	1
3.0.1	2019_Mar_03_1802	s	s	3	1	SIC	57	4_4	4	4	2	4	23_2_4	2	0	1	0	0.446637868881	-388.0	84.0	-388.0	94.0	1
3.0.1	2019_Mar_03_1802	s	s	3	1	SIC	58	ABS	0	0	1	1	24_1_1	NA	NA	0	1	0.754794120789	None	None	None	None	1
3.0.1	2019_Mar_03_1802	s	s	3	1	SIC	59	ABS	0	0	4	4	24_4_4	NA	NA	0	1	0.693249940872	None	None	None	None	1
3.0.1	2019_Mar_03_1802	s	s	3	1	SIC	60	ABS	0	0	3	2	24_3_2	NA	NA	0	1	0.587377071381	None	None	None	None	1
3.0.1	2019_Mar_03_1802	s	s	3	1	SIC	61	ABS	0	0	2	1	24_2_1	NA	NA	0	1	0.599194049835	None	None	None	None	1
3.0.1	2019_Mar_03_1802	s	s	3	1	SIC	62	4_4	4	4	3	1	23_3_1	1	3	1	0	0.555017948151	396.0	326.0	396.0	328.0	1
3.0.1	2019_Mar_03_1802	s	s	3	1	SIC	63	4_2	4	2	4	3	23_4_3	0	1	0	1	0.705060005188	489.0	-300.0	None	None	0
3.0.1	2019_Mar_03_1802	s	s	3	1	SIC	64	4_1	4	1	1	1	23_1_1	3	0	1	0	0.502206802368	192.0	-84.0	188.0	-83.0	1
3.0.1	2019_Mar_03_1802	s	s	3	1	SIC	65	ABS	0	0	4	2	24_4_2	NA	NA	0	1	0.622629165649	None	None	None	None	1
3.0.1	2019_Mar_03_1802	s	s	3	1	SIC	66	2_3	2	3	4	1	23_4_1	2	2	1	0	0.528532028198	194.0	-173.0	201.0	-171.0	1
3.0.1	2019_Mar_03_1802	s	s	3	1	SIC	67	ABS	0	0	4	3	24_4_3	NA	NA	0	1	4.31027793884	None	None	None	None	1
3.0.1	2019_Mar_03_1802	s	s	3	1	SIC	68	1_2	1	2	4	2	23_4_2	3	0	1	0	0.614790201187	-95.0	-135.0	-87.0	-139.0	1
3.0.1	2019_Mar_03_1802	s	s	3	1	SIC	69	2_3	2	3	2	4	23_2_4	0	-1	1	0	1.31661605835	468.0	-282.0	472.0	-282.0	1
3.0.1	2019_Mar_03_1802	s	s	3	1	SIC	70	3_1	3	1	3	2	23_3_2	0	1	1	0	1.15783214569	-147.0	29.0	-145.0	32.0	1
3.0.1	2019_Mar_03_1802	s	s	3	1	SIC	71	ABS	0	0	2	2	24_2_2	NA	NA	0	1	2.6925971508	None	None	None	None	1
3.0.1	2019_Mar_03_1802	s	s	3	1	SIC	72	ABS	0	0	1	2	24_1_2	NA	NA	0	1	1.73116111755	None	None	None	None	1
3.0.1	2019_Mar_03_1802	s	s	3	1	SIC	73	ABS	0	0	3	2	24_3_2	NA	NA	0	1	2.16337990761	None	None	None	None	1
3.0.1	2019_Mar_03_1802	s	s	3	1	SIC	74	1_3	1	3	3	3	23_3_3	2	0	1	0	0.634407043457	167.0	-255.0	177.0	-257.0	1
3.0.1	2019_Mar_03_1802	s	s	3	1	SIC	75	ABS	0	0	1	3	24_1_3	NA	NA	0	1	3.36305689812	None	None	None	None	1
3.0.1	2019_Mar_03_1802	s	s	3	1	SIC	76	ABS	0	0	3	2	24_3_2	NA	NA	0	1	3.0836648941	None	None	None	None	1
3.0.1	2019_Mar_03_1802	s	s	3	1	SIC	77	4_2	4	2	3	4	23_3_4	1	2	1	0	0.543339014053	-411.0	96.0	-421.0	94.0	1
3.0.1	2019_Mar_03_1802	s	s	3	1	SIC	78	ABS	0	0	2	2	24_2_2	NA	NA	0	1	2.81018877029	None	None	None	None	1
3.0.1	2019_Mar_03_1802	s	s	3	1	SIC	79	1_4	1	4	2	3	23_2_3	1	1	1	0	0.884105920792	219.0	321.0	213.0	325.0	1
3.0.1	2019_Mar_03_1802	s	s	3	1	SIC	80	4_3	4	3	2	1	23_2_1	2	2	1	0	0.710022926331	0.0	-157.0	1.0	-156.0	1
3.0.1	2019_Mar_03_1802	s	s	3	1	SIC	81	ABS	0	0	4	3	24_4_3	NA	NA	0	1	3.66207313538	None	None	None	None	1
3.0.1	2019_Mar_03_1802	s	s	3	1	SIC	82	4_4	4	4	3	3	23_3_3	1	1	1	0	0.522000074387	-196.0	-376.0	-192.0	-389.0	1
3.0.1	2019_Mar_03_1802	s	s	3	1	SIC	83	ABS	0	0	2	1	24_2_1	NA	NA	0	1	1.70470499992	None	None	None	None	1
3.0.1	2019_Mar_03_1802	s	s	3	1	SIC	84	3_2	3	2	2	3	23_2_3	1	1	1	0	1.93440508842	435.0	-226.0	445.0	-221.0	1
3.0.1	2019_Mar_03_1802	s	s	3	1	SIC	85	4_1	4	1	2	3	23_2_3	2	2	1	0	0.496315002441	230.0	-31.0	240.0	-24.0	1
3.0.1	2019_Mar_03_1802	s	s	3	1	SIC	86	ABS	0	0	4	1	24_4_1	NA	NA	0	1	0.575558185577	None	None	None	None	1
3.0.1	2019_Mar_03_1802	s	s	3	1	SIC	87	ABS	0	0	1	2	24_1_2	NA	NA	0	1	2.81581997871	None	None	None	None	1
3.0.1	2019_Mar_03_1802	s	s	3	1	SIC	88	2_4	2	4	2	2	23_2_2	0	2	1	0	0.587328910828	-262.0	-167.0	-260.0	-162.0	1
3.0.1	2019_Mar_03_1802	s	s	3	1	SIC	89	ABS	0	0	4	3	24_4_3	NA	NA	0	1	2.58671998978	None	None	None	None	1
3.0.1	2019_Mar_03_1802	s	s	3	1	SIC	90	ABS	0	0	2	3	24_2_3	NA	NA	0	1	2.08685803413	None	None	None	None	1
3.0.1	2019_Mar_03_1802	s	s	3	1	SIC	91	2_1	2	1	4	2	23_4_2	2	1	1	0	0.613877058029	409.0	-71.0	401.0	-75.0	1
3.0.1	2019_Mar_03_1802	s	s	3	1	SIC	92	3_1	3	1	4	3	23_4_3	-1	2	1	0	0.496179103851	-16.0	207.0	-8.0	205.0	1
3.0.1	2019_Mar_03_1802	s	s	3	1	SIC	93	1_1	1	1	4	3	23_4_3	3	2	1	0	0.716725826263	-376.0	227.0	-372.0	232.0	1
3.0.1	2019_Mar_03_1802	s	s	3	1	SIC	94	1_2	1	2	1	3	23_1_3	0	1	1	0	1.54005813599	-134.0	328.0	-139.0	330.0	1
3.0.1	2019_Mar_03_1802	s	s	3	1	SIC	95	3_2	3	2	4	1	23_4_1	-1	-1	1	0	0.622688055038	-412.0	100.0	-409.0	103.0	1
3.0.1	2019_Mar_03_1802	s	s	3	1	SIC	96	1_2	1	2	3	4	23_3_4	2	2	1	0	0.533158063889	-148.0	242.0	-147.0	244.0	1
3.0.1	2019_Mar_03_1802	s	s	3	1	SIC	97	ABS	0	0	1	3	24_1_3	NA	NA	0	1	3.3983259201	None	None	None	None	1
3.0.1	2019_Mar_03_1802	s	s	3	1	SIC	98	ABS	0	0	1	1	24_1_1	NA	NA	0	1	1.61356401443	None	None	None	None	1
3.0.1	2019_Mar_03_1802	s	s	3	1	SIC	99	3_4	3	4	4	3	23_4_3	-1	1	1	0	0.615218162537	519.0	228.0	517.0	233.0	1
3.0.1	2019_Mar_03_1802	s	s	3	1	SIC	100	ABS	0	0	4	2	24_4_2	NA	NA	0	1	1.39894890785	None	None	None	None	1
3.0.1	2019_Mar_03_1802	s	s	3	1	SIC	101	3_2	3	2	4	2	23_4_2	-1	0	1	0	0.556013822556	-442.0	-248.0	-429.0	-240.0	1
3.0.1	2019_Mar_03_1802	s	s	3	1	SIC	102	1_4	1	4	2	1	23_2_1	1	3	1	0	0.650965929031	26.0	-196.0	14.0	-195.0	1
3.0.1	2019_Mar_03_1802	s	s	3	1	SIC	103	ABS	0	0	3	2	24_3_2	NA	NA	0	1	1.05111002922	None	None	None	None	1
3.0.1	2019_Mar_03_1802	s	s	3	1	SIC	104	2_3	2	3	2	2	23_2_2	0	1	0	1	1.46947979927	-525.0	-210.0	None	None	0
3.0.1	2019_Mar_03_1802	s	s	3	1	SIC	105	4_3	4	3	3	1	23_3_1	1	2	1	0	0.502397060394	144.0	274.0	143.0	271.0	1
3.0.1	2019_Mar_03_1802	s	s	3	1	SIC	106	ABS	0	0	4	2	24_4_2	NA	NA	0	1	0.599185943604	None	None	None	None	1
3.0.1	2019_Mar_03_1802	s	s	3	1	SIC	107	3_1	3	1	2	2	23_2_2	1	1	0	1	0.676786899567	18.0	398.0	None	None	0
3.0.1	2019_Mar_03_1802	s	s	3	1	SIC	108	3_4	3	4	3	2	23_3_2	0	2	1	0	0.664590120316	-440.0	-63.0	-439.0	-64.0	1
3.0.1	2019_Mar_03_1802	s	s	3	1	SIC	109	1_4	1	4	3	2	23_3_2	2	2	1	0	0.496203184128	519.0	28.0	527.0	24.0	1
3.0.1	2019_Mar_03_1802	s	s	3	1	SIC	110	4_3	4	3	3	3	23_3_3	1	0	1	0	0.481597900391	-461.0	354.0	-454.0	355.0	1
3.0.1	2019_Mar_03_1802	s	s	3	1	SIC	111	3_1	3	1	1	4	23_1_4	2	3	1	0	0.486707925797	-319.0	-82.0	-327.0	-79.0	1
3.0.1	2019_Mar_03_1802	s	s	3	1	SIC	112	3_3	3	3	3	1	23_3_1	0	2	1	0	0.907805919647	-496.0	109.0	-488.0	111.0	1
3.0.1	2019_Mar_03_1802	s	s	3	1	SIC	113	ABS	0	0	1	2	24_1_2	NA	NA	0	1	3.01557397842	None	None	None	None	1
3.0.1	2019_Mar_03_1802	s	s	3	1	SIC	114	ABS	0	0	4	3	24_4_3	NA	NA	0	1	2.26546502113	None	None	None	None	1
3.0.1	2019_Mar_03_1802	s	s	3	1	SIC	115	1_1	1	1	3	3	23_3_3	2	2	1	0	0.510124921799	-196.0	-200.0	-192.0	-196.0	1
3.0.1	2019_Mar_03_1802	s	s	3	1	SIC	116	ABS	0	0	4	2	24_4_2	NA	NA	0	1	1.98693609238	None	None	None	None	1
3.0.1	2019_Mar_03_1802	s	s	3	1	SIC	117	3_2	3	2	1	4	23_1_4	2	2	1	0	0.575660943985	-526.0	-34.0	-516.0	-32.0	1
3.0.1	2019_Mar_03_1802	s	s	3	1	SIC	118	ABS	0	0	4	1	24_4_1	NA	NA	0	1	1.17549395561	None	None	None	None	1
3.0.1	2019_Mar_03_1802	s	s	3	1	SIC	119	ABS	0	0	4	1	24_4_1	NA	NA	0	1	1.61353588104	None	None	None	None	1
3.0.1	2019_Mar_03_1802	s	s	3	1	SIC	120	ABS	0	0	1	3	24_1_3	NA	NA	0	1	2.5749809742	None	None	None	None	1
3.0.1	2019_Mar_03_1802	s	s	3	1	SIC	121	3_1	3	1	3	3	23_3_3	0	2	1	0	3.01663899422	-535.0	-270.0	-538.0	-276.0	1
3.0.1	2019_Mar_03_1802	s	s	3	1	SIC	122	ABS	0	0	1	3	24_1_3	NA	NA	0	1	2.45735383034	None	None	None	None	1
3.0.1	2019_Mar_03_1802	s	s	3	1	SIC	123	ABS	0	0	3	2	24_3_2	NA	NA	0	1	2.19334387779	None	None	None	None	1
3.0.1	2019_Mar_03_1802	s	s	3	1	SIC	124	2_4	2	4	1	2	23_1_2	-1	2	1	0	0.568904876709	417.0	-153.0	411.0	-152.0	1
3.0.1	2019_Mar_03_1802	s	s	3	1	SIC	125	ABS	0	0	3	4	24_3_4	NA	NA	0	1	1.30481219292	None	None	None	None	1
3.0.1	2019_Mar_03_1802	s	s	3	1	SIC	126	ABS	0	0	2	2	24_2_2	NA	NA	0	1	2.07393884659	None	None	None	None	1
3.0.1	2019_Mar_03_1802	s	s	3	1	SIC	127	2_3	2	3	1	2	23_1_2	-1	1	1	0	1.12313580513	371.0	-83.0	369.0	-82.0	1
3.0.1	2019_Mar_03_1802	s	s	3	1	SIC	128	2_4	2	4	2	1	23_2_1	0	3	1	0	0.554978847504	-58.0	-272.0	-56.0	-274.0	1
3.0.1	2019_Mar_03_1802	s	s	3	1	SIC	129	2_3	2	3	1	3	23_1_3	-1	0	0	1	2.25077795982	448.0	-191.0	None	None	0
3.0.1	2019_Mar_03_1802	s	s	3	1	SIC	130	ABS	0	0	2	1	24_2_1	NA	NA	0	1	1.26168107986	None	None	None	None	1
3.0.1	2019_Mar_03_1802	s	s	3	1	SIC	131	1_2	1	2	2	4	23_2_4	1	2	1	0	0.743920087814	504.0	378.0	515.0	380.0	1
3.0.1	2019_Mar_03_1802	s	s	3	1	SIC	132	2_4	2	4	3	3	23_3_3	1	1	1	0	0.607529878616	483.0	-19.0	474.0	-14.0	1
3.0.1	2019_Mar_03_1802	s	s	3	1	SIC	133	ABS	0	0	2	3	24_2_3	NA	NA	0	1	1.33278393745	None	None	None	None	1
3.0.1	2019_Mar_03_1802	s	s	3	1	SIC	134	2_2	2	2	3	4	23_3_4	1	2	1	0	0.504954099655	148.0	-27.0	147.0	-23.0	1
3.0.1	2019_Mar_03_1802	s	s	3	1	SIC	135	3_3	3	3	4	3	23_4_3	-1	0	1	0	0.481578826904	66.0	-394.0	76.0	-390.0	1
3.0.1	2019_Mar_03_1802	s	s	3	1	SIC	136	ABS	0	0	3	2	24_3_2	NA	NA	0	1	0.717149019241	None	None	None	None	1
3.0.1	2019_Mar_03_1802	s	s	3	1	SIC	137	4_3	4	3	2	4	23_2_4	2	-1	1	0	0.493302106857	-290.0	168.0	-293.0	161.0	1
3.0.1	2019_Mar_03_1802	s	s	3	1	SIC	138	ABS	0	0	4	3	24_4_3	NA	NA	0	1	2.34896397591	None	None	None	None	1
3.0.1	2019_Mar_03_1802	s	s	3	1	SIC	139	3_4	3	4	2	3	23_2_3	1	1	1	0	0.966647148132	210.0	-368.0	197.0	-359.0	1
3.0.1	2019_Mar_03_1802	s	s	3	1	SIC	140	ABS	0	0	3	4	24_3_4	NA	NA	0	1	1.08425617218	None	None	None	None	1
3.0.1	2019_Mar_03_1802	s	s	3	1	SIC	141	ABS	0	0	1	1	24_1_1	NA	NA	0	1	0.999013900757	None	None	None	None	1
3.0.1	2019_Mar_03_1802	s	s	3	1	SIC	142	4_3	4	3	4	4	23_4_4	0	-1	1	0	0.952018022537	372.0	318.0	380.0	321.0	1
3.0.1	2019_Mar_03_1802	s	s	3	1	SIC	143	1_1	1	1	2	3	23_2_3	1	2	1	0	1.20189499855	298.0	-208.0	299.0	-211.0	1
3.0.1	2019_Mar_03_1802	s	s	3	1	SIC	144	ABS	0	0	1	4	24_1_4	NA	NA	0	1	1.5499958992	None	None	None	None	1
3.0.1	2019_Mar_03_1802	s	s	3	1	SIC	145	ABS	0	0	1	3	24_1_3	NA	NA	0	1	2.04574298859	None	None	None	None	1
3.0.1	2019_Mar_03_1802	s	s	3	1	SIC	146	3_3	3	3	2	2	23_2_2	1	1	1	0	0.98721408844	-525.0	-81.0	-513.0	-79.0	1
3.0.1	2019_Mar_03_1802	s	s	3	1	SIC	147	2_4	2	4	4	3	23_4_3	2	1	1	0	0.528621912003	-129.0	-239.0	-125.0	-238.0	1
3.0.1	2019_Mar_03_1802	s	s	3	1	SIC	148	ABS	0	0	3	4	24_3_4	NA	NA	0	1	1.83415913582	None	None	None	None	1
3.0.1	2019_Mar_03_1802	s	s	3	1	SIC	149	ABS	0	0	4	4	24_4_4	NA	NA	0	1	1.24604892731	None	None	None	None	1
3.0.1	2019_Mar_03_1802	s	s	3	1	SIC	150	2_3	2	3	4	3	23_4_3	2	0	1	0	1.2462542057	208.0	231.0	205.0	233.0	1
3.0.1	2019_Mar_03_1802	s	s	3	1	SIC	151	3_2	3	2	3	3	23_3_3	0	1	1	0	1.73112607002	462.0	-11.0	468.0	-12.0	1
3.0.1	2019_Mar_03_1802	s	s	3	1	SIC	152	2_2	2	2	1	2	23_1_2	-1	0	0	1	2.6036131382	10.0	-27.0	None	None	0
3.0.1	2019_Mar_03_1802	s	s	3	1	SIC	153	ABS	0	0	3	1	24_3_1	NA	NA	0	1	0.822604894638	None	None	None	None	1
3.0.1	2019_Mar_03_1802	s	s	3	1	SIC	154	3_1	3	1	1	2	23_1_2	2	1	1	0	0.971956014633	165.0	-320.0	172.0	-321.0	1
3.0.1	2019_Mar_03_1802	s	s	3	1	SIC	155	ABS	0	0	4	1	24_4_1	NA	NA	0	1	0.628627061844	None	None	None	None	1
3.0.1	2019_Mar_03_1802	s	s	3	1	SIC	156	ABS	0	0	4	3	24_4_3	NA	NA	0	1	1.58714389801	None	None	None	None	1
3.0.1	2019_Mar_03_1802	s	s	3	1	SIC	157	2_3	2	3	3	3	23_3_3	1	0	1	0	0.822666168213	428.0	69.0	431.0	59.0	1
3.0.1	2019_Mar_03_1802	s	s	3	1	SIC	158	1_3	1	3	1	1	23_1_1	0	2	1	0	0.952009916306	413.0	-131.0	420.0	-131.0	1
3.0.1	2019_Mar_03_1802	s	s	3	1	SIC	159	ABS	0	0	2	1	24_2_1	NA	NA	0	1	1.28128409386	None	None	None	None	1
3.0.1	2019_Mar_03_1802	s	s	3	1	SIC	160	3_3	3	3	2	3	23_2_3	1	0	1	0	0.47375202179	97.0	23.0	97.0	20.0	1
3.0.1	2019_Mar_03_1802	s	s	3	1	SIC	161	1_1	1	1	4	2	23_4_2	3	1	1	0	0.481533050537	-419.0	205.0	-420.0	210.0	1
3.0.1	2019_Mar_03_1802	s	s	3	1	SIC	162	ABS	0	0	1	1	24_1_1	NA	NA	0	1	0.893187046051	None	None	None	None	1
3.0.1	2019_Mar_03_1802	s	s	3	1	SIC	163	ABS	0	0	1	2	24_1_2	NA	NA	0	1	2.37886595726	None	None	None	None	1
3.0.1	2019_Mar_03_1802	s	s	3	1	SIC	164	1_3	1	3	2	3	23_2_3	1	0	0	1	2.25205993652	-161.0	137.0	None	None	0
3.0.1	2019_Mar_03_1802	s	s	3	1	SIC	165	1_3	1	3	3	4	23_3_4	2	-1	1	0	0.699648141861	393.0	-393.0	390.0	-403.0	1
3.0.1	2019_Mar_03_1802	s	s	3	1	SIC	166	1_3	1	3	2	1	23_2_1	1	2	1	0	0.921756029129	-388.0	-32.0	-402.0	-27.0	1
3.0.1	2019_Mar_03_1802	s	s	3	1	SIC	167	2_1	2	1	2	3	23_2_3	0	2	1	0	2.2507212162	-235.0	-336.0	-241.0	-336.0	1
3.0.1	2019_Mar_03_1802	s	s	3	1	SIC	168	ABS	0	0	2	3	24_2_3	NA	NA	0	1	2.12004184723	None	None	None	None	1
3.0.1	2019_Mar_03_1802	s	s	3	1	SIC	169	ABS	0	0	1	1	24_1_1	NA	NA	0	1	0.848978996277	None	None	None	None	1
3.0.1	2019_Mar_03_1802	s	s	3	1	SIC	170	4_2	4	2	1	2	23_1_2	3	0	1	0	0.618127822876	-68.0	-130.0	-65.0	-138.0	1
3.0.1	2019_Mar_03_1802	s	s	3	1	SIC	171	ABS	0	0	3	3	24_3_3	NA	NA	0	1	1.67259502411	None	None	None	None	1
3.0.1	2019_Mar_03_1802	s	s	3	1	SIC	172	4_3	4	3	3	4	23_3_4	1	-1	1	0	0.469778060913	-257.0	192.0	-252.0	190.0	1
3.0.1	2019_Mar_03_1802	s	s	3	1	SIC	173	2_3	2	3	4	2	23_4_2	2	1	1	0	0.440761089325	-232.0	235.0	-236.0	235.0	1
3.0.1	2019_Mar_03_1802	s	s	3	1	SIC	174	4_1	4	1	4	2	23_4_2	0	1	1	0	1.28596496582	-369.0	295.0	-363.0	302.0	1
3.0.1	2019_Mar_03_1802	s	s	3	1	SIC	175	2_2	2	2	2	3	23_2_3	0	1	1	0	2.26042819023	-224.0	-236.0	-224.0	-254.0	1
3.0.1	2019_Mar_03_1802	s	s	3	1	SIC	176	ABS	0	0	3	3	24_3_3	NA	NA	0	1	2.00382399559	None	None	None	None	1
3.0.1	2019_Mar_03_1802	s	s	3	1	SIC	177	4_3	4	3	1	2	23_1_2	3	1	1	0	0.64618396759	537.0	-269.0	544.0	-274.0	1
3.0.1	2019_Mar_03_1802	s	s	3	1	SIC	178	ABS	0	0	1	1	24_1_1	NA	NA	0	1	1.13331198692	None	None	None	None	1
3.0.1	2019_Mar_03_1802	s	s	3	1	SIC	179	ABS	0	0	4	4	24_4_4	NA	NA	0	1	1.3875849247	None	None	None	None	1
3.0.1	2019_Mar_03_1802	s	s	3	1	SIC	180	ABS	0	0	4	4	24_4_4	NA	NA	0	1	1.7097890377	None	None	None	None	1
3.0.1	2019_Mar_03_1802	s	s	3	1	SIC	181	ABS	0	0	3	2	24_3_2	NA	NA	0	1	1.96768498421	None	None	None	None	1
3.0.1	2019_Mar_03_1802	s	s	3	1	SIC	182	2_2	2	2	4	3	23_4_3	2	1	1	0	0.556019067764	423.0	141.0	426.0	144.0	1
3.0.1	2019_Mar_03_1802	s	s	3	1	SIC	183	1_4	1	4	1	2	23_1_2	0	2	1	0	0.951989889145	279.0	213.0	276.0	213.0	1
3.0.1	2019_Mar_03_1802	s	s	3	1	SIC	184	ABS	0	0	3	2	24_3_2	NA	NA	0	1	1.46941900253	None	None	None	None	1
3.0.1	2019_Mar_03_1802	s	s	3	1	SIC	185	ABS	0	0	4	2	24_4_2	NA	NA	0	1	2.46957206726	None	None	None	None	1
3.0.1	2019_Mar_03_1802	s	s	3	1	SIC	186	4_3	4	3	1	4	23_1_4	3	-1	1	0	0.587363004684	470.0	-61.0	484.0	-55.0	1
3.0.1	2019_Mar_03_1802	s	s	3	1	SIC	187	ABS	0	0	4	4	24_4_4	NA	NA	0	1	1.60518717766	None	None	None	None	1
3.0.1	2019_Mar_03_1802	s	s	3	1	SIC	188	ABS	0	0	3	1	24_3_1	NA	NA	0	1	1.40490293503	None	None	None	None	1
3.0.1	2019_Mar_03_1802	s	s	3	1	SIC	189	2_4	2	4	4	1	23_4_1	2	3	1	0	0.646157026291	248.0	166.0	252.0	161.0	1
3.0.1	2019_Mar_03_1802	s	s	3	1	SIC	190	1_3	1	3	4	2	23_4_2	3	1	1	0	0.540347099304	88.0	-34.0	86.0	-30.0	1
3.0.1	2019_Mar_03_1802	s	s	3	1	SIC	191	4_1	4	1	4	4	23_4_4	0	3	1	0	0.681502103806	173.0	-156.0	172.0	-147.0	1
3.0.1	2019_Mar_03_1802	s	s	3	1	SIC	192	ABS	0	0	2	3	24_2_3	NA	NA	0	1	2.66040301323	None	None	None	None	1
3.0.1	2019_Mar_03_1802	s	s	3	1	SIC	193	ABS	0	0	4	4	24_4_4	NA	NA	0	1	1.42246198654	None	None	None	None	1
3.0.1	2019_Mar_03_1802	s	s	3	1	SIC	194	ABS	0	0	2	4	24_2_4	NA	NA	0	1	1.26612496376	None	None	None	None	1
3.0.1	2019_Mar_03_1802	s	s	3	1	SIC	195	1_3	1	3	1	2	23_1_2	0	1	1	0	1.31949305534	-356.0	-161.0	-360.0	-158.0	1
3.0.1	2019_Mar_03_1802	s	s	3	1	SIC	196	3_1	3	1	3	4	23_3_4	0	3	1	0	0.560559034348	-240.0	8.0	-233.0	5.0	1
3.0.1	2019_Mar_03_1802	s	s	3	1	SIC	197	ABS	0	0	2	2	24_2_2	NA	NA	0	1	1.81377410889	None	None	None	None	1
3.0.1	2019_Mar_03_1802	s	s	3	1	SIC	198	ABS	0	0	4	1	24_4_1	NA	NA	0	1	1.1519100666	None	None	None	None	1
3.0.1	2019_Mar_03_1802	s	s	3	1	SIC	199	ABS	0	0	4	1	24_4_1	NA	NA	0	1	0.881453037262	None	None	None	None	1
3.0.1	2019_Mar_03_1802	s	s	3	1	SIC	200	ABS	0	0	4	1	24_4_1	NA	NA	0	1	1.55471920967	None	None	None	None	1
3.0.1	2019_Mar_03_1802	s	s	3	1	SIC	201	ABS	0	0	3	1	24_3_1	NA	NA	0	1	1.53252887726	None	None	None	None	1
3.0.1	2019_Mar_03_1802	s	s	3	1	SIC	202	ABS	0	0	1	4	24_1_4	NA	NA	0	1	1.88107609749	None	None	None	None	1
3.0.1	2019_Mar_03_1802	s	s	3	1	SIC	203	4_4	4	4	2	1	23_2_1	2	3	1	0	0.516856193542	-322.0	367.0	-315.0	361.0	1
3.0.1	2019_Mar_03_1802	s	s	3	1	SIC	204	1_1	1	1	2	2	23_2_2	1	1	1	0	1.98717808723	-311.0	144.0	-316.0	150.0	1
3.0.1	2019_Mar_03_1802	s	s	3	1	SIC	205	ABS	0	0	3	3	24_3_3	NA	NA	0	1	2.16336083412	None	None	None	None	1
3.0.1	2019_Mar_03_1802	s	s	3	1	SIC	206	ABS	0	0	2	1	24_2_1	NA	NA	0	1	1.23463702202	None	None	None	None	1
3.0.1	2019_Mar_03_1802	s	s	3	1	SIC	207	2_4	2	4	3	1	23_3_1	1	3	1	0	0.872567176819	-437.0	-330.0	-432.0	-326.0	1
3.0.1	2019_Mar_03_1802	s	s	3	1	SIC	208	ABS	0	0	3	4	24_3_4	NA	NA	0	1	1.62786102295	None	None	None	None	1
3.0.1	2019_Mar_03_1802	s	s	3	1	SIC	209	2_1	2	1	3	1	23_3_1	1	0	1	0	0.711499214172	-187.0	-165.0	-186.0	-174.0	1
3.0.1	2019_Mar_03_1802	s	s	3	1	SIC	210	ABS	0	0	3	1	24_3_1	NA	NA	0	1	1.11659288406	None	None	None	None	1
3.0.1	2019_Mar_03_1802	s	s	3	1	SIC	211	ABS	0	0	4	2	24_4_2	NA	NA	1	0	0.787723064423	None	None	36.0	-10.0	0
3.0.1	2019_Mar_03_1802	s	s	3	1	SIC	212	2_1	2	1	2	2	23_2_2	0	1	0	1	1.50099802017	423.0	-155.0	None	None	0
3.0.1	2019_Mar_03_1802	s	s	3	1	SIC	213	1_1	1	1	3	4	23_3_4	2	3	1	0	0.564034223557	300.0	197.0	289.0	204.0	1
3.0.1	2019_Mar_03_1802	s	s	3	1	SIC	214	1_4	1	4	4	3	23_4_3	3	1	1	0	0.646159887314	-406.0	-51.0	-410.0	-48.0	1
3.0.1	2019_Mar_03_1802	s	s	3	1	SIC	215	4_4	4	4	1	3	23_1_3	3	1	1	0	0.484479904175	-264.0	326.0	-263.0	328.0	1
3.0.1	2019_Mar_03_1802	s	s	3	1	SIC	216	ABS	0	0	2	4	24_2_4	NA	NA	0	1	1.46056294441	None	None	None	None	1
3.0.1	2019_Mar_03_1802	s	s	3	1	SIC	217	ABS	0	0	4	1	24_4_1	NA	NA	0	1	0.646640062332	None	None	None	None	1
3.0.1	2019_Mar_03_1802	s	s	3	1	SIC	218	ABS	0	0	4	3	24_4_3	NA	NA	0	1	2.951390028	None	None	None	None	1
3.0.1	2019_Mar_03_1802	s	s	3	1	SIC	219	4_4	4	4	3	4	23_3_4	1	0	1	0	0.540423870087	28.0	-118.0	33.0	-113.0	1
3.0.1	2019_Mar_03_1802	s	s	3	1	SIC	220	3_4	3	4	2	1	23_2_1	1	3	1	0	0.505019187927	252.0	141.0	257.0	147.0	1
3.0.1	2019_Mar_03_1802	s	s	3	1	SIC	221	ABS	0	0	1	3	24_1_3	NA	NA	0	1	1.45760393143	None	None	None	None	1
3.0.1	2019_Mar_03_1802	s	s	3	1	SIC	222	1_1	1	1	2	4	23_2_4	1	3	1	0	0.580227851868	422.0	5.0	424.0	6.0	1
3.0.1	2019_Mar_03_1802	s	s	3	1	SIC	223	3_1	3	1	2	3	23_2_3	1	2	1	0	1.1048309803	-201.0	-44.0	-196.0	-37.0	1
3.0.1	2019_Mar_03_1802	s	s	3	1	SIC	224	ABS	0	0	4	4	24_4_4	NA	NA	0	1	0.999003887177	None	None	None	None	1
3.0.1	2019_Mar_03_1802	s	s	3	1	SIC	225	ABS	0	0	2	1	24_2_1	NA	NA	0	1	0.928474903107	None	None	None	None	1
3.0.1	2019_Mar_03_1802	s	s	3	1	SIC	226	3_2	3	2	2	2	23_2_2	1	0	1	0	0.505136013031	228.0	3.0	220.0	9.0	1
3.0.1	2019_Mar_03_1802	s	s	3	1	SIC	227	1_2	1	2	4	3	23_4_3	3	1	1	0	0.522333860397	-318.0	-189.0	-308.0	-189.0	1
3.0.1	2019_Mar_03_1802	s	s	3	1	SIC	228	4_3	4	3	4	1	23_4_1	0	2	0	1	0.756459951401	-377.0	205.0	None	None	0
3.0.1	2019_Mar_03_1802	s	s	3	1	SIC	229	1_1	1	1	1	3	23_1_3	0	2	1	0	1.21563601494	-113.0	-6.0	-103.0	4.0	1
3.0.1	2019_Mar_03_1802	s	s	3	1	SIC	230	ABS	0	0	2	4	24_2_4	NA	NA	0	1	1.01514220238	None	None	None	None	1
3.0.1	2019_Mar_03_1802	s	s	3	1	SIC	231	ABS	0	0	2	2	24_2_2	NA	NA	0	1	1.54044795036	None	None	None	None	1
3.0.1	2019_Mar_03_1802	s	s	3	1	SIC	232	ABS	0	0	2	1	24_2_1	NA	NA	0	1	1.128469944	None	None	None	None	1
3.0.1	2019_Mar_03_1802	s	s	3	1	SIC	233	4_1	4	1	2	4	23_2_4	2	3	1	0	0.474658966064	88.0	-228.0	82.0	-235.0	1
3.0.1	2019_Mar_03_1802	s	s	3	1	SIC	234	ABS	0	0	2	1	24_2_1	NA	NA	0	1	1.05780291557	None	None	None	None	1
3.0.1	2019_Mar_03_1802	s	s	3	1	SIC	235	ABS	0	0	2	4	24_2_4	NA	NA	0	1	1.17018008232	None	None	None	None	1
3.0.1	2019_Mar_03_1802	s	s	3	1	SIC	236	3_4	3	4	2	4	23_2_4	1	0	1	0	2.72262978554	123.0	-359.0	125.0	-359.0	1
3.0.1	2019_Mar_03_1802	s	s	3	1	SIC	237	ABS	0	0	3	2	24_3_2	NA	NA	0	1	1.20186090469	None	None	None	None	1
3.0.1	2019_Mar_03_1802	s	s	3	1	SIC	238	2_4	2	4	3	2	23_3_2	1	2	1	0	0.693270921707	255.0	313.0	255.0	316.0	1
3.0.1	2019_Mar_03_1802	s	s	3	1	SIC	239	3_2	3	2	4	3	23_4_3	-1	1	1	0	0.502151012421	365.0	-72.0	368.0	-82.0	1
3.0.1	2019_Mar_03_1802	s	s	3	1	SIC	240	ABS	0	0	2	4	24_2_4	NA	NA	0	1	1.54011702538	None	None	None	None	1
3.0.1	2019_Mar_03_1802	s	s	3	1	SIC	241	ABS	0	0	4	1	24_4_1	NA	NA	0	1	0.999014139175	None	None	None	None	1
3.0.1	2019_Mar_03_1802	s	s	3	1	SIC	242	2_4	2	4	1	4	23_1_4	-1	0	0	1	1.91337203979	0.0	268.0	None	None	0
3.0.1	2019_Mar_03_1802	s	s	3	1	SIC	243	1_1	1	1	1	2	23_1_2	0	1	0	1	1.23439097404	460.0	83.0	None	None	0
3.0.1	2019_Mar_03_1802	s	s	3	1	SIC	244	4_3	4	3	1	1	23_1_1	3	2	1	0	0.51095700264	-172.0	-294.0	-161.0	-290.0	1
3.0.1	2019_Mar_03_1802	s	s	3	1	SIC	245	ABS	0	0	3	2	24_3_2	NA	NA	0	1	0.898395061493	None	None	None	None	1
3.0.1	2019_Mar_03_1802	s	s	3	1	SIC	246	ABS	0	0	4	1	24_4_1	NA	NA	0	1	0.756959915161	None	None	None	None	1
3.0.1	2019_Mar_03_1802	s	s	3	1	SIC	247	2_4	2	4	2	3	23_2_3	0	1	1	0	0.810934066772	-268.0	-182.0	-274.0	-180.0	1
3.0.1	2019_Mar_03_1802	s	s	3	1	SIC	248	ABS	0	0	2	3	24_2_3	NA	NA	0	1	1.32835412025	None	None	None	None	1
3.0.1	2019_Mar_03_1802	s	s	3	1	SIC	249	ABS	0	0	1	4	24_1_4	NA	NA	0	1	0.810808181763	None	None	None	None	1
3.0.1	2019_Mar_03_1802	s	s	3	1	SIC	250	ABS	0	0	1	4	24_1_4	NA	NA	0	1	0.679599046707	None	None	None	None	1
3.0.1	2019_Mar_03_1802	s	s	3	1	SIC	251	3_3	3	3	1	3	23_1_3	2	0	1	0	0.763698816299	-328.0	-144.0	-326.0	-148.0	1
3.0.1	2019_Mar_03_1802	s	s	3	1	SIC	252	3_2	3	2	1	3	23_1_3	2	1	1	0	1.57537698746	-525.0	302.0	-509.0	311.0	1
3.0.1	2019_Mar_03_1802	s	s	3	1	SIC	253	4_2	4	2	2	1	23_2_1	2	-1	1	0	0.451366901398	-140.0	341.0	-139.0	339.0	1
3.0.1	2019_Mar_03_1802	s	s	3	1	SIC	254	1_2	1	2	4	4	23_4_4	3	2	1	0	0.446267127991	-89.0	-407.0	-88.0	-408.0	1
3.0.1	2019_Mar_03_1802	s	s	3	1	SIC	255	2_1	2	1	1	2	23_1_2	-1	1	0	1	1.5322060585	-473.0	136.0	None	None	0
3.0.1	2019_Mar_03_1802	s	s	3	1	SIC	256	4_2	4	2	4	1	23_4_1	0	-1	0	1	0.822621107101	142.0	205.0	None	None	0
3.0.1	2019_Mar_03_1802	s	s	3	1	SIC	257	ABS	0	0	1	2	24_1_2	NA	NA	0	1	0.697255849838	None	None	None	None	1
3.0.1	2019_Mar_03_1802	s	s	3	1	SIC	258	ABS	0	0	3	1	24_3_1	NA	NA	0	1	0.474818944931	None	None	None	None	1
3.0.1	2019_Mar_03_1802	s	s	3	1	SIC	259	ABS	0	0	1	3	24_1_3	NA	NA	0	1	2.84012699127	None	None	None	None	1
3.0.1	2019_Mar_03_1802	s	s	3	1	SIC	260	4_1	4	1	1	2	23_1_2	3	1	1	0	0.907778024673	-208.0	-64.0	-205.0	-64.0	1
3.0.1	2019_Mar_03_1802	s	s	3	1	SIC	261	ABS	0	0	4	3	24_4_3	NA	NA	0	1	0.767673015594	None	None	None	None	1
3.0.1	2019_Mar_03_1802	s	s	3	1	SIC	262	ABS	0	0	1	3	24_1_3	NA	NA	0	1	0.928382873535	None	None	None	None	1
3.0.1	2019_Mar_03_1802	s	s	3	1	SIC	263	ABS	0	0	1	1	24_1_1	NA	NA	0	1	0.733270168304	None	None	None	None	1
3.0.1	2019_Mar_03_1802	s	s	3	1	SIC	264	3_4	3	4	4	1	23_4_1	-1	3	1	0	0.6157310009	74.0	-8.0	81.0	-5.0	1
3.0.1	2019_Mar_03_1802	s	s	3	1	SIC	265	1_4	1	4	1	1	23_1_1	0	3	1	0	0.563889980316	-62.0	44.0	-62.0	40.0	1
3.0.1	2019_Mar_03_1802	s	s	3	1	SIC	266	ABS	0	0	2	2	24_2_2	NA	NA	0	1	2.71619510651	None	None	None	None	1
3.0.1	2019_Mar_03_1802	s	s	3	1	SIC	267	ABS	0	0	3	3	24_3_3	NA	NA	0	1	0.613921880722	None	None	None	None	1
3.0.1	2019_Mar_03_1802	s	s	3	1	SIC	268	ABS	0	0	3	2	24_3_2	NA	NA	0	1	1.15634894371	None	None	None	None	1
3.0.1	2019_Mar_03_1802	s	s	3	1	SIC	269	3_2	3	2	3	1	23_3_1	0	-1	0	1	1.05784511566	333.0	322.0	None	None	0
3.0.1	2019_Mar_03_1802	s	s	3	1	SIC	270	ABS	0	0	2	3	24_2_3	NA	NA	0	1	1.59213209152	None	None	None	None	1
3.0.1	2019_Mar_03_1802	s	s	3	1	SIC	271	4_1	4	1	3	3	23_3_3	1	2	1	0	0.546634912491	-511.0	57.0	-510.0	61.0	1
3.0.1	2019_Mar_03_1802	s	s	3	1	SIC	272	ABS	0	0	1	3	24_1_3	NA	NA	0	1	1.96337103844	None	None	None	None	1
3.0.1	2019_Mar_03_1802	s	s	3	1	SIC	273	1_1	1	1	3	1	23_3_1	2	0	1	0	0.804006099701	-484.0	-319.0	-482.0	-318.0	1
3.0.1	2019_Mar_03_1802	s	s	3	1	SIC	274	ABS	0	0	3	3	24_3_3	NA	NA	0	1	1.81485795975	None	None	None	None	1
3.0.1	2019_Mar_03_1802	s	s	3	1	SIC	275	ABS	0	0	2	2	24_2_2	NA	NA	0	1	1.00321292877	None	None	None	None	1
3.0.1	2019_Mar_03_1802	s	s	3	1	SIC	276	3_4	3	4	4	4	23_4_4	-1	0	1	0	0.516764879227	-74.0	187.0	-86.0	194.0	1
3.0.1	2019_Mar_03_1802	s	s	3	1	SIC	277	3_4	3	4	1	4	23_1_4	2	0	1	0	0.568740129471	46.0	56.0	52.0	58.0	1
3.0.1	2019_Mar_03_1802	s	s	3	1	SIC	278	ABS	0	0	4	4	24_4_4	NA	NA	0	1	0.545159816742	None	None	None	None	1
3.0.1	2019_Mar_03_1802	s	s	3	1	SIC	279	1_1	1	1	4	1	23_4_1	3	0	1	0	0.484455108643	156.0	-47.0	163.0	-38.0	1
3.0.1	2019_Mar_03_1802	s	s	3	1	SIC	280	ABS	0	0	2	3	24_2_3	NA	NA	0	1	1.08444690704	None	None	None	None	1
3.0.1	2019_Mar_03_1802	s	s	3	1	SIC	281	ABS	0	0	3	3	24_3_3	NA	NA	0	1	1.95646905899	None	None	None	None	1
3.0.1	2019_Mar_03_1802	s	s	3	1	SIC	282	ABS	0	0	1	4	24_1_4	NA	NA	0	1	1.38712501526	None	None	None	None	1
3.0.1	2019_Mar_03_1802	s	s	3	1	SIC	283	1_4	1	4	2	2	23_2_2	1	2	1	0	1.11675906181	92.0	-407.0	100.0	-401.0	1
3.0.1	2019_Mar_03_1802	s	s	3	1	SIC	284	1_4	1	4	3	1	23_3_1	2	3	1	0	0.563847064972	-213.0	-30.0	-216.0	-33.0	1
3.0.1	2019_Mar_03_1802	s	s	3	1	SIC	285	ABS	0	0	3	2	24_3_2	NA	NA	0	1	2.43394184113	None	None	None	None	1
3.0.1	2019_Mar_03_1802	s	s	3	1	SIC	286	4_1	4	1	3	1	23_3_1	1	0	1	0	0.697280168533	-364.0	61.0	-369.0	65.0	1
3.0.1	2019_Mar_03_1802	s	s	3	1	SIC	287	1_4	1	4	4	2	23_4_2	3	2	1	0	0.481564998627	-433.0	18.0	-436.0	19.0	1
3.0.1	2019_Mar_03_1802	s	s	3	1	SIC	288	3_4	3	4	4	2	23_4_2	-1	2	1	0	0.580430030823	-198.0	274.0	-194.0	273.0	1
3.0.1	2019_Mar_03_1802	s	s	3	1	SIC	289	1_3	1	3	4	1	23_4_1	3	2	1	0	0.481544017792	-284.0	-276.0	-280.0	-281.0	1
3.0.1	2019_Mar_03_1802	s	s	3	1	SIC	290	2_1	2	1	4	4	23_4_4	2	3	1	0	0.422756910324	515.0	22.0	521.0	24.0	1
3.0.1	2019_Mar_03_1802	s	s	3	1	SIC	291	4_1	4	1	2	2	23_2_2	2	1	1	0	0.410931110382	215.0	326.0	213.0	324.0	1
3.0.1	2019_Mar_03_1802	s	s	3	1	SIC	292	3_2	3	2	1	1	23_1_1	2	-1	1	0	0.810807943344	365.0	378.0	375.0	383.0	1
3.0.1	2019_Mar_03_1802	s	s	3	1	SIC	293	ABS	0	0	3	1	24_3_1	NA	NA	0	1	1.24596714973	None	None	None	None	1
3.0.1	2019_Mar_03_1802	s	s	3	1	SIC	294	2_1	2	1	2	4	23_2_4	0	3	1	0	0.545137882233	413.0	-114.0	412.0	-114.0	1
3.0.1	2019_Mar_03_1802	s	s	3	1	SIC	295	ABS	0	0	2	3	24_2_3	NA	NA	0	1	2.03691911697	None	None	None	None	1
3.0.1	2019_Mar_03_1802	s	s	3	1	SIC	296	ABS	0	0	1	2	24_1_2	NA	NA	0	1	1.21071887016	None	None	None	None	1
3.0.1	2019_Mar_03_1802	s	s	3	1	SIC	297	ABS	0	0	3	4	24_3_4	NA	NA	0	1	0.834380865097	None	None	None	None	1
3.0.1	2019_Mar_03_1802	s	s	3	1	SIC	298	ABS	0	0	4	2	24_4_2	NA	NA	0	1	0.757790088654	None	None	None	None	1
3.0.1	2019_Mar_03_1802	s	s	3	1	SIC	299	ABS	0	0	2	1	24_2_1	NA	NA	0	1	0.98721909523	None	None	None	None	1
3.0.1	2019_Mar_03_1802	s	s	3	1	SIC	300	ABS	0	0	2	4	24_2_4	NA	NA	0	1	1.16858911514	None	None	None	None	1
3.0.1	2019_Mar_03_1802	s	s	3	1	SIC	301	4_2	4	2	1	1	23_1_1	3	-1	1	0	0.434479951859	326.0	-194.0	334.0	-195.0	1
3.0.1	2019_Mar_03_1802	s	s	3	1	SIC	302	3_2	3	2	2	1	23_2_1	1	-1	1	0	1.38765692711	-425.0	333.0	-428.0	333.0	1
3.0.1	2019_Mar_03_1802	s	s	3	1	SIC	303	1_2	1	2	2	1	23_2_1	1	-1	0	1	1.42849397659	251.0	113.0	None	None	0
3.0.1	2019_Mar_03_1802	s	s	3	1	SIC	304	4_3	4	3	1	3	23_1_3	3	0	1	0	0.469753026962	-358.0	81.0	-362.0	71.0	1
3.0.1	2019_Mar_03_1802	s	s	3	1	SIC	305	ABS	0	0	2	3	24_2_3	NA	NA	0	1	2.26039910316	None	None	None	None	1
3.0.1	2019_Mar_03_1802	s	s	3	1	SIC	306	4_1	4	1	3	2	23_3_2	1	1	1	0	0.554991960526	-470.0	-6.0	-469.0	0.0	1
3.0.1	2019_Mar_03_1802	s	s	3	1	SIC	307	3_1	3	1	2	4	23_2_4	1	3	1	0	0.431617975235	129.0	42.0	134.0	44.0	1
3.0.1	2019_Mar_03_1802	s	s	3	1	SIC	308	1_3	1	3	1	4	23_1_4	0	-1	1	0	1.78991699219	318.0	-406.0	314.0	-404.0	1
3.0.1	2019_Mar_03_1802	s	s	3	1	SIC	309	ABS	0	0	2	2	24_2_2	NA	NA	0	1	1.96632695198	None	None	None	None	1
3.0.1	2019_Mar_03_1802	s	s	3	1	SIC	310	3_3	3	3	2	4	23_2_4	1	-1	1	0	0.51679110527	255.0	188.0	260.0	191.0	1
3.0.1	2019_Mar_03_1802	s	s	3	1	SIC	311	3_1	3	1	1	1	23_1_1	2	0	1	0	0.62276506424	-486.0	34.0	-487.0	32.0	1
3.0.1	2019_Mar_03_1802	s	s	3	1	SIC	312	ABS	0	0	3	1	24_3_1	NA	NA	0	1	0.89608502388	None	None	None	None	1
3.0.1	2019_Mar_03_1802	s	s	3	1	SIC	313	ABS	0	0	1	4	24_1_4	NA	NA	0	1	1.73121380806	None	None	None	None	1
3.0.1	2019_Mar_03_1802	s	s	3	1	SIC	314	ABS	0	0	1	2	24_1_2	NA	NA	0	1	1.19019293785	None	None	None	None	1
3.0.1	2019_Mar_03_1802	s	s	3	1	SIC	315	ABS	0	0	4	3	24_4_3	NA	NA	0	1	1.67399096489	None	None	None	None	1
3.0.1	2019_Mar_03_1802	s	s	3	1	SIC	316	ABS	0	0	2	3	24_2_3	NA	NA	0	1	1.05786395073	None	None	None	None	1
3.0.1	2019_Mar_03_1802	s	s	3	1	SIC	317	ABS	0	0	4	4	24_4_4	NA	NA	0	1	1.18724894524	None	None	None	None	1
3.0.1	2019_Mar_03_1802	s	s	3	1	SIC	318	ABS	0	0	1	1	24_1_1	NA	NA	0	1	1.12841796875	None	None	None	None	1
3.0.1	2019_Mar_03_1802	s	s	3	1	SIC	319	2_2	2	2	1	4	23_1_4	-1	2	1	0	0.75203204155	-169.0	-386.0	-164.0	-385.0	1
3.0.1	2019_Mar_03_1802	s	s	3	1	SIC	320	ABS	0	0	2	4	24_2_4	NA	NA	0	1	1.2460231781	None	None	None	None	1
3.0.1	2019_Mar_03_1802	s	s	3	1	SIC	321	ABS	0	0	1	1	24_1_1	NA	NA	0	1	0.987192869186	None	None	None	None	1
3.0.1	2019_Mar_03_1802	s	s	3	1	SIC	322	ABS	0	0	4	3	24_4_3	NA	NA	0	1	2.54416489601	None	None	None	None	1
3.0.1	2019_Mar_03_1802	s	s	3	1	SIC	323	4_3	4	3	4	2	23_4_2	0	1	0	1	2.14756584167	-282.0	406.0	None	None	0
3.0.1	2019_Mar_03_1802	s	s	3	1	SIC	324	ABS	0	0	1	2	24_1_2	NA	NA	0	1	2.73245406151	None	None	None	None	1
3.0.1	2019_Mar_03_1802	s	s	3	1	SIC	325	ABS	0	0	3	1	24_3_1	NA	NA	0	1	1.3792719841	None	None	None	None	1
3.0.1	2019_Mar_03_1802	s	s	3	1	SIC	326	ABS	0	0	4	4	24_4_4	NA	NA	0	1	1.70465707779	None	None	None	None	1
3.0.1	2019_Mar_03_1802	s	s	3	1	SIC	327	2_2	2	2	4	2	23_4_2	2	0	1	0	0.52857208252	313.0	-224.0	323.0	-219.0	1
3.0.1	2019_Mar_03_1802	s	s	3	1	SIC	328	3_4	3	4	1	2	23_1_2	2	2	1	0	0.704982995987	-464.0	-272.0	-463.0	-272.0	1
3.0.1	2019_Mar_03_1802	s	s	3	1	SIC	329	ABS	0	0	3	3	24_3_3	NA	NA	0	1	0.681449890137	None	None	None	None	1
3.0.1	2019_Mar_03_1802	s	s	3	1	SIC	330	ABS	0	0	3	4	24_3_4	NA	NA	0	1	0.740343093872	None	None	None	None	1
3.0.1	2019_Mar_03_1802	s	s	3	1	SIC	331	3_3	3	3	3	4	23_3_4	0	-1	1	0	0.733527898788	-448.0	-233.0	-450.0	-230.0	1
3.0.1	2019_Mar_03_1802	s	s	3	1	SIC	332	ABS	0	0	3	4	24_3_4	NA	NA	0	1	1.03435015678	None	None	None	None	1
3.0.1	2019_Mar_03_1802	s	s	3	1	SIC	333	ABS	0	0	2	4	24_2_4	NA	NA	0	1	2.77501416206	None	None	None	None	1
3.0.1	2019_Mar_03_1802	s	s	3	1	SIC	334	1_3	1	3	3	1	23_3_1	2	2	1	0	0.681442022324	441.0	192.0	449.0	195.0	1
3.0.1	2019_Mar_03_1802	s	s	3	1	SIC	335	4_1	4	1	1	3	23_1_3	3	2	1	0	1.26953697205	-536.0	81.0	-544.0	81.0	1
3.0.1	2019_Mar_03_1802	s	s	3	1	SIC	336	ABS	0	0	3	4	24_3_4	NA	NA	0	1	1.29301810265	None	None	None	None	1
3.0.1	2019_Mar_03_1802	s	s	3	1	SIC	337	3_3	3	3	4	1	23_4_1	-1	2	1	0	1.55470585823	-224.0	377.0	-224.0	368.0	1
3.0.1	2019_Mar_03_1802	s	s	3	1	SIC	338	ABS	0	0	3	1	24_3_1	NA	NA	0	1	0.893162965775	None	None	None	None	1
3.0.1	2019_Mar_03_1802	s	s	3	1	SIC	339	ABS	0	0	3	1	24_3_1	NA	NA	0	1	0.693264007568	None	None	None	None	1
3.0.1	2019_Mar_03_1802	s	s	3	1	SIC	340	ABS	0	0	3	3	24_3_3	NA	NA	0	1	0.528547048569	None	None	None	None	1
3.0.1	2019_Mar_03_1802	s	s	3	1	SIC	341	4_4	4	4	2	3	23_2_3	2	1	1	0	5.57951402664	-282.0	-270.0	-272.0	-265.0	1
3.0.1	2019_Mar_03_1802	s	s	3	1	SIC	342	1_2	1	2	3	1	23_3_1	2	-1	1	0	1.68111896515	-193.0	248.0	-199.0	249.0	1
3.0.1	2019_Mar_03_1802	s	s	3	1	SIC	343	4_4	4	4	4	2	23_4_2	0	2	1	0	0.780822992325	-351.0	-122.0	-336.0	-114.0	1
3.0.1	2019_Mar_03_1802	s	s	3	1	SIC	344	1_2	1	2	2	2	23_2_2	1	0	0	1	1.39885401726	-423.0	-190.0	None	None	0
3.0.1	2019_Mar_03_1802	s	s	3	1	SIC	345	ABS	0	0	4	2	24_4_2	NA	NA	1	0	0.899842977524	None	None	-114.0	29.0	0
3.0.1	2019_Mar_03_1802	s	s	3	1	SIC	346	ABS	0	0	2	2	24_2_2	NA	NA	0	1	1.3699259758	None	None	None	None	1
3.0.1	2019_Mar_03_1802	s	s	3	1	SIC	347	4_2	4	2	2	2	23_2_2	2	0	1	0	0.528558969498	411.0	118.0	410.0	115.0	1
3.0.1	2019_Mar_03_1802	s	s	3	1	SIC	348	ABS	0	0	3	4	24_3_4	NA	NA	0	1	0.810792922974	None	None	None	None	1
3.0.1	2019_Mar_03_1802	s	s	3	1	SIC	349	2_2	2	2	2	1	23_2_1	0	-1	1	0	1.42248296738	-234.0	129.0	-236.0	136.0	1
3.0.1	2019_Mar_03_1802	s	s	3	1	SIC	350	ABS	0	0	2	3	24_2_3	NA	NA	0	1	2.66023993492	None	None	None	None	1
3.0.1	2019_Mar_03_1802	s	s	3	1	SIC	351	2_2	2	2	4	1	23_4_1	2	-1	1	0	0.55490899086	232.0	371.0	235.0	373.0	1
3.0.1	2019_Mar_03_1802	s	s	3	1	SIC	352	ABS	0	0	3	4	24_3_4	NA	NA	0	1	0.991886854172	None	None	None	None	1
3.0.1	2019_Mar_03_1802	s	s	3	1	SIC	353	4_2	4	2	4	4	23_4_4	0	2	1	0	0.914117097855	-431.0	-308.0	-432.0	-300.0	1
3.0.1	2019_Mar_03_1802	s	s	3	1	SIC	354	ABS	0	0	1	2	24_1_2	NA	NA	0	1	1.81536006927	None	None	None	None	1
3.0.1	2019_Mar_03_1802	s	s	3	1	SIC	355	2_4	2	4	1	1	23_1_1	-1	3	1	0	0.604225158691	165.0	-358.0	153.0	-353.0	1
3.0.1	2019_Mar_03_1802	s	s	3	1	SIC	356	ABS	0	0	1	3	24_1_3	NA	NA	0	1	2.79601597786	None	None	None	None	1
3.0.1	2019_Mar_03_1802	s	s	3	1	SIC	357	ABS	0	0	1	3	24_1_3	NA	NA	0	1	2.2338988781	None	None	None	None	1
3.0.1	2019_Mar_03_1802	s	s	3	1	SIC	358	ABS	0	0	2	4	24_2_4	NA	NA	0	1	1.13344311714	None	None	None	None	1
3.0.1	2019_Mar_03_1802	s	s	3	1	SIC	359	1_4	1	4	2	4	23_2_4	1	0	0	1	1.22248911858	-467.0	407.0	None	None	0
3.0.1	2019_Mar_03_1802	s	s	3	1	SIC	360	2_3	2	3	3	4	23_3_4	1	-1	1	0	0.587420940399	-26.0	290.0	-27.0	287.0	1
3.0.1	2019_Mar_03_1802	s	s	3	1	SIC	361	3_4	3	4	1	3	23_1_3	2	1	1	0	0.869646072388	-307.0	335.0	-305.0	329.0	1
3.0.1	2019_Mar_03_1802	s	s	3	1	SIC	362	4_2	4	2	1	3	23_1_3	3	1	1	0	0.474915027618	510.0	67.0	506.0	64.0	1
3.0.1	2019_Mar_03_1802	s	s	3	1	SIC	363	1_3	1	3	2	2	23_2_2	1	1	0	1	1.49586606026	41.0	238.0	None	None	0
3.0.1	2019_Mar_03_1802	s	s	3	1	SIC	364	3_4	3	4	1	1	23_1_1	2	3	1	0	0.481512069702	374.0	-26.0	368.0	-29.0	1
3.0.1	2019_Mar_03_1802	s	s	3	1	SIC	365	3_2	3	2	3	4	23_3_4	0	2	1	0	0.563858032227	-532.0	-81.0	-536.0	-85.0	1
3.0.1	2019_Mar_03_1802	s	s	3	1	SIC	366	4_4	4	4	1	4	23_1_4	3	0	1	0	0.411413908005	223.0	-104.0	234.0	-103.0	1
3.0.1	2019_Mar_03_1802	s	s	3	1	SIC	367	4_4	4	4	1	2	23_1_2	3	2	1	0	0.434545993805	-226.0	-89.0	-219.0	-80.0	1
3.0.1	2019_Mar_03_1802	s	s	3	1	SIC	368	ABS	0	0	3	1	24_3_1	NA	NA	0	1	0.907829999924	None	None	None	None	1
3.0.1	2019_Mar_03_1802	s	s	3	1	SIC	369	ABS	0	0	2	2	24_2_2	NA	NA	0	1	1.54007101059	None	None	None	None	1
3.0.1	2019_Mar_03_1802	s	s	3	1	SIC	370	1_4	1	4	4	1	23_4_1	3	3	1	0	0.503393173218	228.0	-276.0	226.0	-278.0	1
3.0.1	2019_Mar_03_1802	s	s	3	1	SIC	371	ABS	0	0	1	4	24_1_4	NA	NA	0	1	1.58065485954	None	None	None	None	1
3.0.1	2019_Mar_03_1802	s	s	3	1	SIC	372	2_4	2	4	4	2	23_4_2	2	2	1	0	1.59882187843	-437.0	-169.0	-434.0	-172.0	1
3.0.1	2019_Mar_03_1802	s	s	3	1	SIC	373	2_2	2	2	2	4	23_2_4	0	2	1	0	3.71577596664	254.0	-59.0	251.0	-58.0	1
3.0.1	2019_Mar_03_1802	s	s	3	1	SIC	374	2_2	2	2	1	3	23_1_3	-1	1	0	1	3.42184901237	-236.0	401.0	None	None	0
3.0.1	2019_Mar_03_1802	s	s	3	1	SIC	375	4_4	4	4	4	3	23_4_3	0	1	1	0	2.79841709137	295.0	152.0	297.0	141.0	1
3.0.1	2019_Mar_03_1802	s	s	3	1	SIC	376	ABS	0	0	2	2	24_2_2	NA	NA	0	1	1.56865906715	None	None	None	None	1
3.0.1	2019_Mar_03_1802	s	s	3	1	SIC	377	1_4	1	4	4	4	23_4_4	3	0	1	0	0.519543886185	115.0	310.0	116.0	310.0	1
3.0.1	2019_Mar_03_1802	s	s	3	1	SIC	378	ABS	0	0	1	2	24_1_2	NA	NA	0	1	1.15746188164	None	None	None	None	1
3.0.1	2019_Mar_03_1802	s	s	3	1	SIC	379	4_2	4	2	3	2	23_3_2	1	0	1	0	0.554969072342	-4.0	199.0	-10.0	196.0	1
3.0.1	2019_Mar_03_1802	s	s	3	1	SIC	380	ABS	0	0	2	1	24_2_1	NA	NA	0	1	0.952013015747	None	None	None	None	1
3.0.1	2019_Mar_03_1802	s	s	3	1	SIC	381	ABS	0	0	1	4	24_1_4	NA	NA	0	1	1.02543592453	None	None	None	None	1
3.0.1	2019_Mar_03_1802	s	s	3	1	SIC	382	4_2	4	2	1	4	23_1_4	3	2	1	0	2.37029314041	93.0	294.0	93.0	288.0	1
3.0.1	2019_Mar_03_1802	s	s	3	1	SIC	383	2_1	2	1	3	3	23_3_3	1	2	1	0	0.869602918625	271.0	-346.0	268.0	-338.0	1
3.0.1	2019_Mar_03_1802	s	s	3	1	SIC	384	ABS	0	0	2	2	24_2_2	NA	NA	0	1	1.17566800117	None	None	None	None	1
3.0.1	2019_Mar_03_1802	s	s	3	1	SIC	385	ABS	0	0	3	2	24_3_2	NA	NA	0	1	0.679677963257	None	None	None	None	1
3.0.1	2019_Mar_03_1802	s	s	3	1	SIC	386	ABS	0	0	3	3	24_3_3	NA	NA	0	1	1.20188307762	None	None	None	None	1
3.0.1	2019_Mar_03_1802	s	s	3	1	SIC	387	4_1	4	1	1	4	23_1_4	3	3	1	0	0.599181890488	131.0	369.0	125.0	366.0	1
3.0.1	2019_Mar_03_1802	s	s	3	1	SIC	388	1_3	1	3	3	2	23_3_2	2	1	1	0	0.569607019424	-395.0	-81.0	-393.0	-84.0	1
3.0.1	2019_Mar_03_1802	s	s	3	1	SIC	389	ABS	0	0	4	3	24_4_3	NA	NA	0	1	2.29798316956	None	None	None	None	1
3.0.1	2019_Mar_03_1802	s	s	3	1	SIC	390	3_1	3	1	4	2	23_4_2	-1	1	1	0	0.510933876038	-97.0	-178.0	-92.0	-179.0	1
3.0.1	2019_Mar_03_1802	s	s	3	1	SIC	391	3_1	3	1	4	4	23_4_4	-1	3	1	0	0.450701951981	-277.0	131.0	-270.0	129.0	1
3.0.1	2019_Mar_03_1802	s	s	3	1	SIC	392	ABS	0	0	2	1	24_2_1	NA	NA	0	1	0.940223932266	None	None	None	None	1
3.0.1	2019_Mar_03_1802	s	s	3	1	SIC	393	4_4	4	4	1	1	23_1_1	3	3	1	0	0.444785118103	421.0	-165.0	411.0	-165.0	1
3.0.1	2019_Mar_03_1802	s	s	3	1	SIC	394	ABS	0	0	2	1	24_2_1	NA	NA	0	1	0.790238142014	None	None	None	None	1
3.0.1	2019_Mar_03_1802	s	s	3	1	SIC	395	ABS	0	0	3	4	24_3_4	NA	NA	1	0	0.458089828491	None	None	64.0	-2.0	0
3.0.1	2019_Mar_03_1802	s	s	3	1	SIC	396	2_1	2	1	1	4	23_1_4	-1	3	1	0	0.705180883408	43.0	-390.0	42.0	-393.0	1
3.0.1	2019_Mar_03_1802	s	s	3	1	SIC	397	ABS	0	0	1	1	24_1_1	NA	NA	0	1	0.622676134109	None	None	None	None	1
3.0.1	2019_Mar_03_1802	s	s	3	1	SIC	398	2_2	2	2	3	1	23_3_1	1	-1	1	0	0.681453943253	152.0	98.0	148.0	96.0	1
3.0.1	2019_Mar_03_1802	s	s	3	1	SIC	399	3_1	3	1	1	3	23_1_3	2	2	1	0	0.563905954361	533.0	13.0	521.0	17.0	1
3.0.1	2019_Mar_03_1802	s	s	3	1	SIC	400	ABS	0	0	4	1	24_4_1	NA	NA	0	1	0.599208116531	None	None	None	None	1
3.0.1	2019_Mar_03_1802	s	s	3	1	SIC	401	ABS	0	0	3	4	24_3_4	NA	NA	0	1	0.90883898735	None	None	None	None	1
3.0.1	2019_Mar_03_1802	s	s	3	1	SIC	402	ABS	0	0	4	4	24_4_4	NA	NA	0	1	0.841331005096	None	None	None	None	1
3.0.1	2019_Mar_03_1802	s	s	3	1	SIC	403	3_4	3	4	3	3	23_3_3	0	1	0	1	2.00372385979	-528.0	126.0	None	None	0
3.0.1	2019_Mar_03_1802	s	s	3	1	SIC	404	4_4	4	4	4	1	23_4_1	0	3	1	0	0.54042506218	120.0	48.0	122.0	51.0	1
3.0.1	2019_Mar_03_1802	s	s	3	1	SIC	405	ABS	0	0	3	3	24_3_3	NA	NA	0	1	2.50442695618	None	None	None	None	1
3.0.1	2019_Mar_03_1802	s	s	3	1	SIC	406	ABS	0	0	1	1	24_1_1	NA	NA	0	1	0.810856819153	None	None	None	None	1
3.0.1	2019_Mar_03_1802	s	s	3	1	SIC	407	ABS	0	0	4	2	24_4_2	NA	NA	0	1	3.19824504852	None	None	None	None	1
3.0.1	2019_Mar_03_1802	s	s	3	1	SIC	408	4_2	4	2	3	1	23_3_1	1	-1	1	0	0.618396997452	247.0	-396.0	255.0	-398.0	1
3.0.1	2019_Mar_03_1802	s	s	3	1	SIC	409	4_3	4	3	2	2	23_2_2	2	1	1	0	0.619727134705	101.0	375.0	100.0	380.0	1
3.0.1	2019_Mar_03_1802	s	s	3	1	SIC	410	ABS	0	0	3	4	24_3_4	NA	NA	0	1	1.30487203598	None	None	None	None	1
3.0.1	2019_Mar_03_1802	s	s	3	1	SIC	411	2_2	2	2	3	3	23_3_3	1	1	1	0	0.881375074387	472.0	179.0	475.0	176.0	1
3.0.1	2019_Mar_03_1802	s	s	3	1	SIC	412	ABS	0	0	1	4	24_1_4	NA	NA	0	1	1.23938703537	None	None	None	None	1
3.0.1	2019_Mar_03_1802	s	s	3	1	SIC	413	2_1	2	1	4	1	23_4_1	2	0	1	0	0.415031909943	-252.0	-146.0	-255.0	-146.0	1
3.0.1	2019_Mar_03_1802	s	s	3	1	SIC	414	ABS	0	0	3	4	24_3_4	NA	NA	0	1	0.709568977356	None	None	None	None	1
3.0.1	2019_Mar_03_1802	s	s	3	1	SIC	415	ABS	0	0	1	3	24_1_3	NA	NA	0	1	0.912927865982	None	None	None	None	1
3.0.1	2019_Mar_03_1802	s	s	3	1	SIC	416	ABS	0	0	2	1	24_2_1	NA	NA	0	1	0.657967090607	None	None	None	None	1
3.0.1	2019_Mar_03_1802	s	s	3	1	SIC	417	4_1	4	1	4	3	23_4_3	0	2	0	1	1.15841794014	-465.0	-254.0	None	None	0
3.0.1	2019_Mar_03_1802	s	s	3	1	SIC	418	3_1	3	1	2	1	23_2_1	1	0	1	0	0.827183961868	433.0	-285.0	436.0	-283.0	1
3.0.1	2019_Mar_03_1802	s	s	3	1	SIC	419	1_2	1	2	4	1	23_4_1	3	-1	1	0	0.486617088318	-434.0	330.0	-440.0	334.0	1
3.0.1	2019_Mar_03_1802	s	s	3	1	SIC	420	2_1	2	1	1	1	23_1_1	-1	0	0	1	1.05179905891	436.0	-287.0	None	None	0
3.0.1	2019_Mar_03_1802	s	s	3	1	SIC	421	ABS	0	0	1	3	24_1_3	NA	NA	0	1	2.37794709206	None	None	None	None	1
3.0.1	2019_Mar_03_1802	s	s	3	1	SIC	422	ABS	0	0	1	2	24_1_2	NA	NA	0	1	1.61445713043	None	None	None	None	1
3.0.1	2019_Mar_03_1802	s	s	3	1	SIC	423	1_4	1	4	3	3	23_3_3	2	1	1	0	0.675474882126	385.0	-308.0	391.0	-313.0	1
3.0.1	2019_Mar_03_1802	s	s	3	1	SIC	424	ABS	0	0	1	1	24_1_1	NA	NA	0	1	0.998972892761	None	None	None	None	1
3.0.1	2019_Mar_03_1802	s	s	3	1	SIC	425	ABS	0	0	4	3	24_4_3	NA	NA	0	1	2.44253087044	None	None	None	None	1
3.0.1	2019_Mar_03_1802	s	s	3	1	SIC	426	1_2	1	2	1	1	23_1_1	0	-1	1	0	0.963927984238	238.0	-113.0	241.0	-104.0	1
3.0.1	2019_Mar_03_1802	s	s	3	1	SIC	427	1_1	1	1	1	4	23_1_4	0	3	1	0	0.731379032135	295.0	-353.0	294.0	-348.0	1
3.0.1	2019_Mar_03_1802	s	s	3	1	SIC	428	ABS	0	0	2	4	24_2_4	NA	NA	0	1	1.20185422897	None	None	None	None	1
3.0.1	2019_Mar_03_1802	s	s	3	1	SIC	429	ABS	0	0	3	1	24_3_1	NA	NA	0	1	0.981781005859	None	None	None	None	1
3.0.1	2019_Mar_03_1802	s	s	3	1	SIC	430	ABS	0	0	1	3	24_1_3	NA	NA	0	1	1.89283394814	None	None	None	None	1
3.0.1	2019_Mar_03_1802	s	s	3	1	SIC	431	ABS	0	0	1	4	24_1_4	NA	NA	0	1	0.968783140182	None	None	None	None	1
3.0.1	2019_Mar_03_1802	s	s	3	1	SIC	432	1_2	1	2	3	3	23_3_3	2	1	1	0	0.587312936783	-366.0	-119.0	-353.0	-115.0	1
3.0.1	2019_Mar_03_1802	s	s	3	1	SIC	433	ABS	0	0	1	2	24_1_2	NA	NA	0	1	1.4106490612	None	None	None	None	1
3.0.1	2019_Mar_03_1802	s	s	3	1	SIC	434	ABS	0	0	1	4	24_1_4	NA	NA	0	1	1.20297312737	None	None	None	None	1
3.0.1	2019_Mar_03_1802	s	s	3	1	SIC	435	4_4	4	4	2	2	23_2_2	2	2	1	0	0.575609922409	-264.0	-345.0	-271.0	-341.0	1
3.0.1	2019_Mar_03_1802	s	s	3	1	SIC	436	2_2	2	2	4	4	23_4_4	2	2	1	0	0.46119594574	89.0	3.0	90.0	-10.0	1
3.0.1	2019_Mar_03_1802	s	s	3	1	SIC	437	1_4	1	4	1	3	23_1_3	0	1	1	0	0.92844080925	-8.0	-198.0	-9.0	-199.0	1
3.0.1	2019_Mar_03_1802	s	s	3	1	SIC	438	ABS	0	0	4	2	24_4_2	NA	NA	0	1	1.26988196373	None	None	None	None	1
3.0.1	2019_Mar_03_1802	s	s	3	1	SIC	439	ABS	0	0	3	1	24_3_1	NA	NA	0	1	0.740233898163	None	None	None	None	1
3.0.1	2019_Mar_03_1802	s	s	3	1	SIC	440	ABS	0	0	4	3	24_4_3	NA	NA	0	1	1.58708190918	None	None	None	None	1
3.0.1	2019_Mar_03_1802	s	s	3	1	SIC	441	ABS	0	0	4	4	24_4_4	NA	NA	0	1	1.26065802574	None	None	None	None	1
3.0.1	2019_Mar_03_1802	s	s	3	1	SIC	442	ABS	0	0	1	4	24_1_4	NA	NA	0	1	1.07875490189	None	None	None	None	1
3.0.1	2019_Mar_03_1802	s	s	3	1	SIC	443	ABS	0	0	3	3	24_3_3	NA	NA	0	1	1.31946897507	None	None	None	None	1
3.0.1	2019_Mar_03_1802	s	s	3	1	SIC	444	4_2	4	2	3	3	23_3_3	1	1	1	0	0.517215013504	-471.0	-18.0	-467.0	-8.0	1
3.0.1	2019_Mar_03_1802	s	s	3	1	SIC	445	1_2	1	2	1	4	23_1_4	0	2	1	0	0.795847892761	-496.0	139.0	-489.0	145.0	1
3.0.1	2019_Mar_03_1802	s	s	3	1	SIC	446	3_2	3	2	4	4	23_4_4	-1	2	1	0	0.469787120819	244.0	-129.0	242.0	-121.0	1
3.0.1	2019_Mar_03_1802	s	s	3	1	SIC	447	3_2	3	2	2	4	23_2_4	1	2	1	0	0.457983016968	-315.0	-127.0	-318.0	-130.0	1
3.0.1	2019_Mar_03_1802	s	s	3	1	SIC	448	ABS	0	0	1	2	24_1_2	NA	NA	0	1	0.622678041458	None	None	None	None	1
3.0.1	2019_Mar_03_1802	s	s	3	1	SIC	449	ABS	0	0	4	2	24_4_2	NA	NA	0	1	0.540406942368	None	None	None	None	1
3.0.1	2019_Mar_03_1802	s	s	3	1	SIC	450	3_3	3	3	1	2	23_1_2	2	1	1	0	0.737010002136	-359.0	-153.0	-355.0	-150.0	1
3.0.1	2019_Mar_03_1802	s	s	3	1	SIC	451	ABS	0	0	2	4	24_2_4	NA	NA	0	1	1.15231704712	None	None	None	None	1
3.0.1	2019_Mar_03_1802	s	s	3	1	SIC	452	2_3	2	3	2	1	23_2_1	0	2	0	1	0.763807058334	460.0	79.0	None	None	0
3.0.1	2019_Mar_03_1802	s	s	3	1	SIC	453	3_4	3	4	2	2	23_2_2	1	2	1	0	0.552394151688	57.0	152.0	59.0	149.0	1
3.0.1	2019_Mar_03_1802	s	s	3	1	SIC	454	ABS	0	0	3	3	24_3_3	NA	NA	0	1	1.37312412262	None	None	None	None	1
3.0.1	2019_Mar_03_1802	s	s	3	1	SIC	455	ABS	0	0	3	1	24_3_1	NA	NA	0	1	0.755029916763	None	None	None	None	1
3.0.1	2019_Mar_03_1802	s	s	3	1	SIC	456	ABS	0	0	1	2	24_1_2	NA	NA	0	1	0.893661975861	None	None	None	None	1
3.0.1	2019_Mar_03_1802	s	s	3	1	SIC	457	ABS	0	0	3	1	24_3_1	NA	NA	0	1	0.646193027496	None	None	None	None	1
3.0.1	2019_Mar_03_1802	s	s	3	1	SIC	458	ABS	0	0	1	4	24_1_4	NA	NA	0	1	0.872617006302	None	None	None	None	1
3.0.1	2019_Mar_03_1802	s	s	3	1	SIC	459	4_3	4	3	3	2	23_3_2	1	1	1	0	1.31947302818	0.0	333.0	1.0	340.0	1
3.0.1	2019_Mar_03_1802	s	s	3	1	SIC	460	1_1	1	1	3	2	23_3_2	2	1	1	0	1.08630204201	466.0	387.0	460.0	381.0	1
3.0.1	2019_Mar_03_1802	s	s	3	1	SIC	461	2_2	2	2	3	2	23_3_2	1	0	0	1	1.02257490158	-513.0	217.0	None	None	0
3.0.1	2019_Mar_03_1802	s	s	3	1	SIC	462	2_1	2	1	4	3	23_4_3	2	2	1	0	0.496198892593	54.0	-36.0	49.0	-40.0	1
3.0.1	2019_Mar_03_1802	s	s	3	1	SIC	463	ABS	0	0	4	1	24_4_1	NA	NA	0	1	0.675507068634	None	None	None	None	1
3.0.1	2019_Mar_03_1802	s	s	3	1	SIC	464	2_3	2	3	1	1	23_1_1	-1	2	1	0	1.08132100105	138.0	-243.0	138.0	-249.0	1
3.0.1	2019_Mar_03_1802	s	s	3	1	SIC	465	ABS	0	0	1	1	24_1_1	NA	NA	0	1	1.13230085373	None	None	None	None	1
3.0.1	2019_Mar_03_1802	s	s	3	1	SIC	466	ABS	0	0	2	3	24_2_3	NA	NA	0	1	2.23395395279	None	None	None	None	1
3.0.1	2019_Mar_03_1802	s	s	3	1	SIC	467	ABS	0	0	4	2	24_4_2	NA	NA	0	1	1.02297902107	None	None	None	None	1
3.0.1	2019_Mar_03_1802	s	s	3	1	SIC	468	ABS	0	0	4	2	24_4_2	NA	NA	0	1	0.651288032532	None	None	None	None	1
3.0.1	2019_Mar_03_1802	s	s	3	1	SIC	469	2_4	2	4	3	4	23_3_4	1	0	0	1	0.881814002991	513.0	-256.0	None	None	0
3.0.1	2019_Mar_03_1802	s	s	3	1	SIC	470	4_2	4	2	2	4	23_2_4	2	2	1	0	0.618083000183	103.0	-403.0	102.0	-406.0	1
3.0.1	2019_Mar_03_1802	s	s	3	1	SIC	471	ABS	0	0	2	2	24_2_2	NA	NA	0	1	0.693647861481	None	None	None	None	1
3.0.1	2019_Mar_03_1802	s	s	3	1	SIC	472	3_1	3	1	4	1	23_4_1	-1	0	1	0	0.875785112381	-429.0	-279.0	-434.0	-277.0	1
3.0.1	2019_Mar_03_1802	s	s	3	1	SIC	473	3_3	3	3	4	4	23_4_4	-1	-1	1	0	0.463003873825	177.0	-242.0	163.0	-236.0	1
3.0.1	2019_Mar_03_1802	s	s	3	1	SIC	474	1_2	1	2	2	3	23_2_3	1	1	0	1	1.38711905479	-112.0	-331.0	None	None	0
3.0.1	2019_Mar_03_1802	s	s	3	1	SIC	475	3_3	3	3	4	2	23_4_2	-1	1	1	0	0.469784021378	-65.0	61.0	-68.0	52.0	1
3.0.1	2019_Mar_03_1802	s	s	3	1	SIC	476	2_1	2	1	3	4	23_3_4	1	3	1	0	0.660830020905	-519.0	320.0	-513.0	330.0	1
3.0.1	2019_Mar_03_1802	s	s	3	1	SIC	477	ABS	0	0	2	3	24_2_3	NA	NA	0	1	1.7990000248	None	None	None	None	1
3.0.1	2019_Mar_03_1802	s	s	3	1	SIC	478	2_3	2	3	4	4	23_4_4	2	-1	1	0	0.457991123199	-535.0	286.0	-532.0	277.0	1
3.0.1	2019_Mar_03_1802	s	s	3	1	SIC	479	ABS	0	0	4	4	24_4_4	NA	NA	0	1	1.1754090786	None	None	None	None	1
3.0.1	2019_Mar_03_1802	s	s	3	1	SIC	480	ABS	0	0	2	2	24_2_2	NA	NA	0	1	0.944943904877	None	None	None	None	1
