Version	Date	Stimuli	Method	Subject	Session	Condition	Trial	Target	TColor	TShape	DColor	DShape	Distractors	Channel1	Channel2	LMouseButton	RMouseButton	RT	TargetX	TargetY	ResponseX	ResponseY	Correct
3.0.1	2019_Mar_06_1602	s	s	3	4	Capacity	1	ABS	0	0	1	2	24_1_2	NA	NA	0	1	1.83446907997	None	None	None	None	1
3.0.1	2019_Mar_06_1602	s	s	3	4	Capacity	2	1_3	1	3	1	4	23_1_4	0	-1	1	0	0.791185855865	-414.0	313.0	-412.0	317.0	1
3.0.1	2019_Mar_06_1602	s	s	3	4	Capacity	3	1_2	1	2	1	1	23_1_1	0	-1	0	1	1.09953403473	454.0	105.0	None	None	0
3.0.1	2019_Mar_06_1602	s	s	3	4	Capacity	4	1_4	1	4	1	2	23_1_2	0	2	1	0	0.475353956223	116.0	-272.0	112.0	-271.0	1
3.0.1	2019_Mar_06_1602	s	s	3	4	Capacity	5	ABS	0	0	1	4	24_1_4	NA	NA	0	1	0.966616868973	None	None	None	None	1
3.0.1	2019_Mar_06_1602	s	s	3	4	Capacity	6	ABS	0	0	1	3	24_1_3	NA	NA	0	1	1.7899389267	None	None	None	None	1
3.0.1	2019_Mar_06_1602	s	s	3	4	Capacity	7	ABS	0	0	1	2	24_1_2	NA	NA	0	1	1.3518679142	None	None	None	None	1
3.0.1	2019_Mar_06_1602	s	s	3	4	Capacity	8	1_3	1	3	1	1	23_1_1	0	2	1	0	0.58736205101	17.0	-119.0	14.0	-133.0	1
3.0.1	2019_Mar_06_1602	s	s	3	4	Capacity	9	1_4	1	4	1	3	23_1_3	0	1	1	0	1.25183606148	534.0	-412.0	534.0	-425.0	1
3.0.1	2019_Mar_06_1602	s	s	3	4	Capacity	10	1_1	1	1	1	3	23_1_3	0	2	1	0	1.42242908478	468.0	-348.0	457.0	-343.0	1
3.0.1	2019_Mar_06_1602	s	s	3	4	Capacity	11	ABS	0	0	1	3	24_1_3	NA	NA	0	1	0.857931852341	None	None	None	None	1
3.0.1	2019_Mar_06_1602	s	s	3	4	Capacity	12	ABS	0	0	1	1	24_1_1	NA	NA	0	1	0.987282037735	None	None	None	None	1
3.0.1	2019_Mar_06_1602	s	s	3	4	Capacity	13	ABS	0	0	1	3	24_1_3	NA	NA	0	1	1.35182619095	None	None	None	None	1
3.0.1	2019_Mar_06_1602	s	s	3	4	Capacity	14	1_3	1	3	1	2	23_1_2	0	1	1	0	1.52100801468	-139.0	288.0	-140.0	298.0	1
3.0.1	2019_Mar_06_1602	s	s	3	4	Capacity	15	1_4	1	4	1	1	23_1_1	0	3	1	0	0.53283405304	378.0	-318.0	378.0	-323.0	1
3.0.1	2019_Mar_06_1602	s	s	3	4	Capacity	16	1_2	1	2	1	4	23_1_4	0	2	1	0	1.07469105721	-205.0	-392.0	-207.0	-391.0	1
3.0.1	2019_Mar_06_1602	s	s	3	4	Capacity	17	1_1	1	1	1	4	23_1_4	0	3	1	0	0.446315050125	-245.0	-284.0	-233.0	-276.0	1
3.0.1	2019_Mar_06_1602	s	s	3	4	Capacity	18	ABS	0	0	1	2	24_1_2	NA	NA	0	1	1.34524083138	None	None	None	None	1
3.0.1	2019_Mar_06_1602	s	s	3	4	Capacity	19	ABS	0	0	1	1	24_1_1	NA	NA	0	1	1.44885802269	None	None	None	None	1
3.0.1	2019_Mar_06_1602	s	s	3	4	Capacity	20	1_1	1	1	1	2	23_1_2	0	1	0	1	1.25177097321	516.0	119.0	None	None	0
3.0.1	2019_Mar_06_1602	s	s	3	4	Capacity	21	ABS	0	0	1	4	24_1_4	NA	NA	0	1	1.16664409637	None	None	None	None	1
3.0.1	2019_Mar_06_1602	s	s	3	4	Capacity	22	1_2	1	2	1	3	23_1_3	0	1	0	1	1.2577559948	-267.0	-306.0	None	None	0
3.0.1	2019_Mar_06_1602	s	s	3	4	Capacity	23	ABS	0	0	1	4	24_1_4	NA	NA	0	1	0.928506135941	None	None	None	None	1
3.0.1	2019_Mar_06_1602	s	s	3	4	Capacity	24	ABS	0	0	1	1	24_1_1	NA	NA	0	1	1.24607801437	None	None	None	None	1
3.0.1	2019_Mar_06_1602	s	s	3	4	Capacity	25	ABS	0	0	1	3	24_1_3	NA	NA	0	1	1.86307096481	None	None	None	None	1
3.0.1	2019_Mar_06_1602	s	s	3	4	Capacity	26	1_3	1	3	1	2	23_1_2	0	1	0	1	1.56355190277	526.0	411.0	None	None	0
3.0.1	2019_Mar_06_1602	s	s	3	4	Capacity	27	1_1	1	1	1	2	23_1_2	0	1	1	0	0.928493022919	370.0	-37.0	379.0	-32.0	1
3.0.1	2019_Mar_06_1602	s	s	3	4	Capacity	28	ABS	0	0	1	4	24_1_4	NA	NA	0	1	0.957144975662	None	None	None	None	1
3.0.1	2019_Mar_06_1602	s	s	3	4	Capacity	29	1_3	1	3	1	4	23_1_4	0	-1	1	0	0.437333106995	261.0	283.0	254.0	282.0	1
3.0.1	2019_Mar_06_1602	s	s	3	4	Capacity	30	1_3	1	3	1	1	23_1_1	0	2	1	0	0.646152019501	-123.0	131.0	-118.0	122.0	1
3.0.1	2019_Mar_06_1602	s	s	3	4	Capacity	31	ABS	0	0	1	2	24_1_2	NA	NA	0	1	1.49590206146	None	None	None	None	1
3.0.1	2019_Mar_06_1602	s	s	3	4	Capacity	32	1_1	1	1	1	3	23_1_3	0	2	1	0	1.19373703003	511.0	-392.0	521.0	-394.0	1
3.0.1	2019_Mar_06_1602	s	s	3	4	Capacity	33	1_2	1	2	1	1	23_1_1	0	-1	0	1	0.853662967682	-270.0	-283.0	None	None	0
3.0.1	2019_Mar_06_1602	s	s	3	4	Capacity	34	1_2	1	2	1	4	23_1_4	0	2	1	0	0.496181964874	440.0	117.0	445.0	119.0	1
3.0.1	2019_Mar_06_1602	s	s	3	4	Capacity	35	1_4	1	4	1	3	23_1_3	0	1	1	0	0.62780880928	-283.0	303.0	-287.0	294.0	1
3.0.1	2019_Mar_06_1602	s	s	3	4	Capacity	36	ABS	0	0	1	1	24_1_1	NA	NA	0	1	1.15646505356	None	None	None	None	1
3.0.1	2019_Mar_06_1602	s	s	3	4	Capacity	37	1_2	1	2	1	3	23_1_3	0	1	1	0	1.81050395966	35.0	35.0	34.0	37.0	1
3.0.1	2019_Mar_06_1602	s	s	3	4	Capacity	38	ABS	0	0	1	4	24_1_4	NA	NA	0	1	1.02971506119	None	None	None	None	1
3.0.1	2019_Mar_06_1602	s	s	3	4	Capacity	39	ABS	0	0	1	2	24_1_2	NA	NA	0	1	1.78173184395	None	None	None	None	1
3.0.1	2019_Mar_06_1602	s	s	3	4	Capacity	40	1_4	1	4	1	2	23_1_2	0	2	1	0	0.619922876358	263.0	-189.0	258.0	-198.0	1
3.0.1	2019_Mar_06_1602	s	s	3	4	Capacity	41	ABS	0	0	1	1	24_1_1	NA	NA	0	1	1.14306092262	None	None	None	None	1
3.0.1	2019_Mar_06_1602	s	s	3	4	Capacity	42	ABS	0	0	1	1	24_1_1	NA	NA	0	1	1.15192484856	None	None	None	None	1
3.0.1	2019_Mar_06_1602	s	s	3	4	Capacity	43	ABS	0	0	1	3	24_1_3	NA	NA	0	1	3.30957794189	None	None	None	None	1
3.0.1	2019_Mar_06_1602	s	s	3	4	Capacity	44	ABS	0	0	1	2	24_1_2	NA	NA	0	1	1.57531809807	None	None	None	None	1
3.0.1	2019_Mar_06_1602	s	s	3	4	Capacity	45	ABS	0	0	1	4	24_1_4	NA	NA	0	1	0.681526899338	None	None	None	None	1
3.0.1	2019_Mar_06_1602	s	s	3	4	Capacity	46	ABS	0	0	1	3	24_1_3	NA	NA	0	1	1.12326407433	None	None	None	None	1
3.0.1	2019_Mar_06_1602	s	s	3	4	Capacity	47	1_4	1	4	1	1	23_1_1	0	3	1	0	0.532481908798	59.0	-54.0	59.0	-49.0	1
3.0.1	2019_Mar_06_1602	s	s	3	4	Capacity	48	1_1	1	1	1	4	23_1_4	0	3	1	0	0.378549098969	201.0	-32.0	205.0	-30.0	1
3.0.1	2019_Mar_06_1602	s	s	3	4	Capacity	49	ABS	0	0	1	2	24_1_2	NA	NA	0	1	1.29304289818	None	None	None	None	1
3.0.1	2019_Mar_06_1602	s	s	3	4	Capacity	50	1_4	1	4	1	3	23_1_3	0	1	1	0	0.999002933502	-448.0	-357.0	-445.0	-353.0	1
3.0.1	2019_Mar_06_1602	s	s	3	4	Capacity	51	ABS	0	0	1	4	24_1_4	NA	NA	0	1	0.81089091301	None	None	None	None	1
3.0.1	2019_Mar_06_1602	s	s	3	4	Capacity	52	ABS	0	0	1	1	24_1_1	NA	NA	0	1	0.86640381813	None	None	None	None	1
3.0.1	2019_Mar_06_1602	s	s	3	4	Capacity	53	ABS	0	0	1	3	24_1_3	NA	NA	0	1	1.29830789566	None	None	None	None	1
3.0.1	2019_Mar_06_1602	s	s	3	4	Capacity	54	ABS	0	0	1	2	24_1_2	NA	NA	0	1	2.26763176918	None	None	None	None	1
3.0.1	2019_Mar_06_1602	s	s	3	4	Capacity	55	1_1	1	1	1	4	23_1_4	0	3	1	0	0.680289030075	235.0	-116.0	234.0	-122.0	1
3.0.1	2019_Mar_06_1602	s	s	3	4	Capacity	56	1_1	1	1	1	3	23_1_3	0	2	0	1	1.24603581429	-61.0	-308.0	None	None	0
3.0.1	2019_Mar_06_1602	s	s	3	4	Capacity	57	ABS	0	0	1	4	24_1_4	NA	NA	0	1	0.67370390892	None	None	None	None	1
3.0.1	2019_Mar_06_1602	s	s	3	4	Capacity	58	1_1	1	1	1	2	23_1_2	0	1	0	1	0.834405899048	-349.0	211.0	None	None	0
3.0.1	2019_Mar_06_1602	s	s	3	4	Capacity	59	ABS	0	0	1	4	24_1_4	NA	NA	0	1	0.893244028091	None	None	None	None	1
3.0.1	2019_Mar_06_1602	s	s	3	4	Capacity	60	ABS	0	0	1	1	24_1_1	NA	NA	0	1	1.14305591583	None	None	None	None	1
3.0.1	2019_Mar_06_1602	s	s	3	4	Capacity	61	1_2	1	2	1	4	23_1_4	0	2	1	0	0.613846063614	-264.0	-351.0	-263.0	-356.0	1
3.0.1	2019_Mar_06_1602	s	s	3	4	Capacity	62	1_2	1	2	1	1	23_1_1	0	-1	0	1	1.09148693085	-89.0	-195.0	None	None	0
3.0.1	2019_Mar_06_1602	s	s	3	4	Capacity	63	ABS	0	0	1	3	24_1_3	NA	NA	0	1	0.840982913971	None	None	None	None	1
3.0.1	2019_Mar_06_1602	s	s	3	4	Capacity	64	ABS	0	0	1	2	24_1_2	NA	NA	0	1	1.21675300598	None	None	None	None	1
3.0.1	2019_Mar_06_1602	s	s	3	4	Capacity	65	1_3	1	3	1	2	23_1_2	0	1	1	0	1.38715791702	136.0	209.0	134.0	210.0	1
3.0.1	2019_Mar_06_1602	s	s	3	4	Capacity	66	1_4	1	4	1	1	23_1_1	0	3	1	0	0.575605154037	397.0	193.0	398.0	186.0	1
3.0.1	2019_Mar_06_1602	s	s	3	4	Capacity	67	1_4	1	4	1	2	23_1_2	0	2	1	0	0.415858983994	211.0	183.0	206.0	179.0	1
3.0.1	2019_Mar_06_1602	s	s	3	4	Capacity	68	1_3	1	3	1	4	23_1_4	0	-1	1	0	0.61092209816	477.0	385.0	478.0	383.0	1
3.0.1	2019_Mar_06_1602	s	s	3	4	Capacity	69	1_2	1	2	1	3	23_1_3	0	1	0	1	1.77533602715	20.0	-306.0	None	None	0
3.0.1	2019_Mar_06_1602	s	s	3	4	Capacity	70	1_3	1	3	1	1	23_1_1	0	2	1	0	1.63411903381	-301.0	40.0	-308.0	41.0	1
3.0.1	2019_Mar_06_1602	s	s	3	4	Capacity	71	ABS	0	0	1	3	24_1_3	NA	NA	0	1	1.65068793297	None	None	None	None	1
3.0.1	2019_Mar_06_1602	s	s	3	4	Capacity	72	ABS	0	0	1	1	24_1_1	NA	NA	0	1	1.02547502518	None	None	None	None	1
3.0.1	2019_Mar_06_1602	s	s	3	4	Capacity	73	ABS	0	0	1	3	24_1_3	NA	NA	0	1	1.39203000069	None	None	None	None	1
3.0.1	2019_Mar_06_1602	s	s	3	4	Capacity	74	1_3	1	3	1	4	23_1_4	0	-1	1	0	0.763833999634	-172.0	-311.0	-170.0	-314.0	1
3.0.1	2019_Mar_06_1602	s	s	3	4	Capacity	75	ABS	0	0	1	4	24_1_4	NA	NA	0	1	1.04904794693	None	None	None	None	1
3.0.1	2019_Mar_06_1602	s	s	3	4	Capacity	76	ABS	0	0	1	1	24_1_1	NA	NA	0	1	1.38713383675	None	None	None	None	1
3.0.1	2019_Mar_06_1602	s	s	3	4	Capacity	77	1_3	1	3	1	1	23_1_1	0	2	1	0	0.945168972015	279.0	-177.0	271.0	-174.0	1
3.0.1	2019_Mar_06_1602	s	s	3	4	Capacity	78	1_4	1	4	1	2	23_1_2	0	2	1	0	0.415364980698	112.0	-89.0	112.0	-86.0	1
3.0.1	2019_Mar_06_1602	s	s	3	4	Capacity	79	1_3	1	3	1	2	23_1_2	0	1	0	1	2.37802600861	329.0	-185.0	None	None	0
3.0.1	2019_Mar_06_1602	s	s	3	4	Capacity	80	ABS	0	0	1	3	24_1_3	NA	NA	0	1	0.921835899353	None	None	None	None	1
3.0.1	2019_Mar_06_1602	s	s	3	4	Capacity	81	ABS	0	0	1	4	24_1_4	NA	NA	0	1	0.931375980377	None	None	None	None	1
3.0.1	2019_Mar_06_1602	s	s	3	4	Capacity	82	1_1	1	1	1	2	23_1_2	0	1	0	1	1.18729019165	-473.0	-111.0	None	None	0
3.0.1	2019_Mar_06_1602	s	s	3	4	Capacity	83	1_4	1	4	1	3	23_1_3	0	1	1	0	0.555011987686	-317.0	-108.0	-302.0	-102.0	1
3.0.1	2019_Mar_06_1602	s	s	3	4	Capacity	84	ABS	0	0	1	2	24_1_2	NA	NA	0	1	1.06963300705	None	None	None	None	1
3.0.1	2019_Mar_06_1602	s	s	3	4	Capacity	85	ABS	0	0	1	3	24_1_3	NA	NA	0	1	1.35181689262	None	None	None	None	1
3.0.1	2019_Mar_06_1602	s	s	3	4	Capacity	86	1_1	1	1	1	3	23_1_3	0	2	1	0	1.11653995514	196.0	383.0	197.0	382.0	1
3.0.1	2019_Mar_06_1602	s	s	3	4	Capacity	87	1_1	1	1	1	4	23_1_4	0	3	1	0	0.528537988663	428.0	-48.0	428.0	-53.0	1
3.0.1	2019_Mar_06_1602	s	s	3	4	Capacity	88	1_4	1	4	1	1	23_1_1	0	3	1	0	0.634370088577	-258.0	-289.0	-256.0	-293.0	1
3.0.1	2019_Mar_06_1602	s	s	3	4	Capacity	89	1_2	1	2	1	4	23_1_4	0	2	1	0	0.439375162125	240.0	374.0	245.0	378.0	1
3.0.1	2019_Mar_06_1602	s	s	3	4	Capacity	90	ABS	0	0	1	4	24_1_4	NA	NA	0	1	1.0695950985	None	None	None	None	1
3.0.1	2019_Mar_06_1602	s	s	3	4	Capacity	91	ABS	0	0	1	2	24_1_2	NA	NA	0	1	0.763828039169	None	None	None	None	1
3.0.1	2019_Mar_06_1602	s	s	3	4	Capacity	92	1_2	1	2	1	1	23_1_1	0	-1	0	1	0.975593090057	-89.0	-266.0	None	None	0
3.0.1	2019_Mar_06_1602	s	s	3	4	Capacity	93	1_2	1	2	1	3	23_1_3	0	1	0	1	1.52831792831	-169.0	-240.0	None	None	0
3.0.1	2019_Mar_06_1602	s	s	3	4	Capacity	94	ABS	0	0	1	1	24_1_1	NA	NA	0	1	1.0343067646	None	None	None	None	1
3.0.1	2019_Mar_06_1602	s	s	3	4	Capacity	95	ABS	0	0	1	2	24_1_2	NA	NA	0	1	1.64587903023	None	None	None	None	1
3.0.1	2019_Mar_06_1602	s	s	3	4	Capacity	96	ABS	0	0	1	1	24_1_1	NA	NA	0	1	1.00308990479	None	None	None	None	1
3.0.1	2019_Mar_06_1602	s	s	3	4	Capacity	1	1_1	1	1	2	1	23_2_1	1	0	1	0	2.18035101891	-118.0	22.0	-106.0	25.0	1
3.0.1	2019_Mar_06_1602	s	s	3	4	Capacity	2	ABS	0	0	1	1	24_1_1	NA	NA	0	1	0.557092905045	None	None	None	None	1
3.0.1	2019_Mar_06_1602	s	s	3	4	Capacity	3	4_1	4	1	2	1	23_2_1	2	0	1	0	0.587378025055	454.0	-321.0	465.0	-315.0	1
3.0.1	2019_Mar_06_1602	s	s	3	4	Capacity	4	2_1	2	1	4	1	23_4_1	2	0	1	0	0.403758049011	86.0	-389.0	93.0	-385.0	1
3.0.1	2019_Mar_06_1602	s	s	3	4	Capacity	5	ABS	0	0	4	1	24_4_1	NA	NA	0	1	0.378597974777	None	None	None	None	1
3.0.1	2019_Mar_06_1602	s	s	3	4	Capacity	6	ABS	0	0	2	1	24_2_1	NA	NA	0	1	0.661817789078	None	None	None	None	1
3.0.1	2019_Mar_06_1602	s	s	3	4	Capacity	7	ABS	0	0	4	1	24_4_1	NA	NA	0	1	0.410892963409	None	None	None	None	1
3.0.1	2019_Mar_06_1602	s	s	3	4	Capacity	8	ABS	0	0	2	1	24_2_1	NA	NA	0	1	0.528970003128	None	None	None	None	1
3.0.1	2019_Mar_06_1602	s	s	3	4	Capacity	9	4_1	4	1	3	1	23_3_1	1	0	1	0	0.378525018692	-470.0	329.0	-478.0	331.0	1
3.0.1	2019_Mar_06_1602	s	s	3	4	Capacity	10	ABS	0	0	4	1	24_4_1	NA	NA	0	1	0.545747995377	None	None	None	None	1
3.0.1	2019_Mar_06_1602	s	s	3	4	Capacity	11	ABS	0	0	3	1	24_3_1	NA	NA	0	1	0.540359973907	None	None	None	None	1
3.0.1	2019_Mar_06_1602	s	s	3	4	Capacity	12	3_1	3	1	1	1	23_1_1	2	0	1	0	0.469790935516	189.0	319.0	186.0	316.0	1
3.0.1	2019_Mar_06_1602	s	s	3	4	Capacity	13	2_1	2	1	1	1	23_1_1	-1	0	0	1	0.575582027435	213.0	91.0	None	None	0
3.0.1	2019_Mar_06_1602	s	s	3	4	Capacity	14	3_1	3	1	4	1	23_4_1	-1	0	1	0	0.399286985397	413.0	279.0	408.0	284.0	1
3.0.1	2019_Mar_06_1602	s	s	3	4	Capacity	15	2_1	2	1	3	1	23_3_1	1	0	1	0	1.51050615311	132.0	-173.0	122.0	-168.0	1
3.0.1	2019_Mar_06_1602	s	s	3	4	Capacity	16	1_1	1	1	4	1	23_4_1	3	0	1	0	0.568525075912	-243.0	122.0	-243.0	112.0	1
3.0.1	2019_Mar_06_1602	s	s	3	4	Capacity	17	ABS	0	0	3	1	24_3_1	NA	NA	0	1	0.618577003479	None	None	None	None	1
3.0.1	2019_Mar_06_1602	s	s	3	4	Capacity	18	ABS	0	0	1	1	24_1_1	NA	NA	0	1	0.427981138229	None	None	None	None	1
3.0.1	2019_Mar_06_1602	s	s	3	4	Capacity	19	4_1	4	1	1	1	23_1_1	3	0	1	0	0.39920091629	67.0	101.0	76.0	110.0	1
3.0.1	2019_Mar_06_1602	s	s	3	4	Capacity	20	ABS	0	0	1	1	24_1_1	NA	NA	1	0	0.427227020264	None	None	108.0	70.0	0
3.0.1	2019_Mar_06_1602	s	s	3	4	Capacity	21	ABS	0	0	2	1	24_2_1	NA	NA	0	1	0.54549407959	None	None	None	None	1
3.0.1	2019_Mar_06_1602	s	s	3	4	Capacity	22	3_1	3	1	2	1	23_2_1	1	0	1	0	0.505306005478	-244.0	-352.0	-242.0	-357.0	1
3.0.1	2019_Mar_06_1602	s	s	3	4	Capacity	23	ABS	0	0	3	1	24_3_1	NA	NA	0	1	0.496228933334	None	None	None	None	1
3.0.1	2019_Mar_06_1602	s	s	3	4	Capacity	24	1_1	1	1	3	1	23_3_1	2	0	1	0	0.438627958298	467.0	306.0	472.0	306.0	1
3.0.1	2019_Mar_06_1602	s	s	3	4	Capacity	25	1_1	1	1	4	1	23_4_1	3	0	1	0	0.384687900543	-324.0	19.0	-318.0	17.0	1
3.0.1	2019_Mar_06_1602	s	s	3	4	Capacity	26	ABS	0	0	4	1	24_4_1	NA	NA	0	1	0.422748804092	None	None	None	None	1
3.0.1	2019_Mar_06_1602	s	s	3	4	Capacity	27	3_1	3	1	1	1	23_1_1	2	0	1	0	0.363950014114	-68.0	-82.0	-64.0	-82.0	1
3.0.1	2019_Mar_06_1602	s	s	3	4	Capacity	28	ABS	0	0	2	1	24_2_1	NA	NA	0	1	1.78167891502	None	None	None	None	1
3.0.1	2019_Mar_06_1602	s	s	3	4	Capacity	29	ABS	0	0	1	1	24_1_1	NA	NA	0	1	0.587275028229	None	None	None	None	1
3.0.1	2019_Mar_06_1602	s	s	3	4	Capacity	30	1_1	1	1	3	1	23_3_1	2	0	1	0	0.496183872223	-125.0	-199.0	-122.0	-199.0	1
3.0.1	2019_Mar_06_1602	s	s	3	4	Capacity	31	ABS	0	0	4	1	24_4_1	NA	NA	0	1	0.510982990265	None	None	None	None	1
3.0.1	2019_Mar_06_1602	s	s	3	4	Capacity	32	ABS	0	0	1	1	24_1_1	NA	NA	0	1	0.378592014313	None	None	None	None	1
3.0.1	2019_Mar_06_1602	s	s	3	4	Capacity	33	4_1	4	1	3	1	23_3_1	1	0	1	0	0.319781064987	-259.0	-260.0	-269.0	-254.0	1
3.0.1	2019_Mar_06_1602	s	s	3	4	Capacity	34	1_1	1	1	2	1	23_2_1	1	0	0	1	0.493437051773	-448.0	-157.0	None	None	0
3.0.1	2019_Mar_06_1602	s	s	3	4	Capacity	35	ABS	0	0	2	1	24_2_1	NA	NA	0	1	0.521714925766	None	None	None	None	1
3.0.1	2019_Mar_06_1602	s	s	3	4	Capacity	36	ABS	0	0	3	1	24_3_1	NA	NA	0	1	0.450567007065	None	None	None	None	1
3.0.1	2019_Mar_06_1602	s	s	3	4	Capacity	37	ABS	0	0	2	1	24_2_1	NA	NA	0	1	0.427466154099	None	None	None	None	1
3.0.1	2019_Mar_06_1602	s	s	3	4	Capacity	38	2_1	2	1	4	1	23_4_1	2	0	1	0	0.415068864822	-372.0	4.0	-379.0	5.0	1
3.0.1	2019_Mar_06_1602	s	s	3	4	Capacity	39	ABS	0	0	4	1	24_4_1	NA	NA	0	1	0.446236848831	None	None	None	None	1
3.0.1	2019_Mar_06_1602	s	s	3	4	Capacity	40	ABS	0	0	3	1	24_3_1	NA	NA	0	1	0.375696897507	None	None	None	None	1
3.0.1	2019_Mar_06_1602	s	s	3	4	Capacity	41	4_1	4	1	2	1	23_2_1	2	0	1	0	0.378596067429	-455.0	210.0	-451.0	207.0	1
3.0.1	2019_Mar_06_1602	s	s	3	4	Capacity	42	ABS	0	0	3	1	24_3_1	NA	NA	0	1	0.469726800919	None	None	None	None	1
3.0.1	2019_Mar_06_1602	s	s	3	4	Capacity	43	2_1	2	1	1	1	23_1_1	-1	0	0	1	0.352167844772	297.0	344.0	None	None	0
3.0.1	2019_Mar_06_1602	s	s	3	4	Capacity	44	4_1	4	1	1	1	23_1_1	3	0	1	0	0.319718837738	-328.0	-286.0	-323.0	-282.0	1
3.0.1	2019_Mar_06_1602	s	s	3	4	Capacity	45	3_1	3	1	4	1	23_4_1	-1	0	1	0	0.378607034683	-101.0	-176.0	-104.0	-171.0	1
3.0.1	2019_Mar_06_1602	s	s	3	4	Capacity	46	2_1	2	1	3	1	23_3_1	1	0	1	0	0.810865163803	57.0	-97.0	53.0	-94.0	1
3.0.1	2019_Mar_06_1602	s	s	3	4	Capacity	47	3_1	3	1	2	1	23_2_1	1	0	0	1	0.698618888855	-219.0	407.0	None	None	0
3.0.1	2019_Mar_06_1602	s	s	3	4	Capacity	48	ABS	0	0	1	1	24_1_1	NA	NA	0	1	0.545333147049	None	None	None	None	1
3.0.1	2019_Mar_06_1602	s	s	3	4	Capacity	49	ABS	0	0	4	1	24_4_1	NA	NA	0	1	0.763697147369	None	None	None	None	1
3.0.1	2019_Mar_06_1602	s	s	3	4	Capacity	50	ABS	0	0	4	1	24_4_1	NA	NA	0	1	0.675375938416	None	None	None	None	1
3.0.1	2019_Mar_06_1602	s	s	3	4	Capacity	51	ABS	0	0	2	1	24_2_1	NA	NA	0	1	0.848961830139	None	None	None	None	1
3.0.1	2019_Mar_06_1602	s	s	3	4	Capacity	52	3_1	3	1	1	1	23_1_1	2	0	1	0	0.533048868179	345.0	342.0	336.0	343.0	1
3.0.1	2019_Mar_06_1602	s	s	3	4	Capacity	53	ABS	0	0	3	1	24_3_1	NA	NA	0	1	0.532793998718	None	None	None	None	1
3.0.1	2019_Mar_06_1602	s	s	3	4	Capacity	54	ABS	0	0	2	1	24_2_1	NA	NA	0	1	0.49826002121	None	None	None	None	1
3.0.1	2019_Mar_06_1602	s	s	3	4	Capacity	55	4_1	4	1	3	1	23_3_1	1	0	1	0	0.340421915054	-486.0	-150.0	-481.0	-144.0	1
3.0.1	2019_Mar_06_1602	s	s	3	4	Capacity	56	1_1	1	1	3	1	23_3_1	2	0	1	0	0.437350988388	-272.0	-125.0	-277.0	-116.0	1
3.0.1	2019_Mar_06_1602	s	s	3	4	Capacity	57	2_1	2	1	4	1	23_4_1	2	0	1	0	0.367728948593	492.0	-146.0	498.0	-145.0	1
3.0.1	2019_Mar_06_1602	s	s	3	4	Capacity	58	4_1	4	1	2	1	23_2_1	2	0	1	0	0.3704829216	199.0	204.0	199.0	207.0	1
3.0.1	2019_Mar_06_1602	s	s	3	4	Capacity	59	ABS	0	0	4	1	24_4_1	NA	NA	0	1	0.568558931351	None	None	None	None	1
3.0.1	2019_Mar_06_1602	s	s	3	4	Capacity	60	1_1	1	1	4	1	23_4_1	3	0	1	0	0.340362071991	-335.0	192.0	-350.0	199.0	1
3.0.1	2019_Mar_06_1602	s	s	3	4	Capacity	61	ABS	0	0	2	1	24_2_1	NA	NA	0	1	1.54010295868	None	None	None	None	1
3.0.1	2019_Mar_06_1602	s	s	3	4	Capacity	62	4_1	4	1	1	1	23_1_1	3	0	1	0	0.386088848114	-256.0	358.0	-255.0	361.0	1
3.0.1	2019_Mar_06_1602	s	s	3	4	Capacity	63	1_1	1	1	2	1	23_2_1	1	0	0	1	0.452009916306	77.0	-167.0	None	None	0
3.0.1	2019_Mar_06_1602	s	s	3	4	Capacity	64	ABS	0	0	1	1	24_1_1	NA	NA	0	1	0.410887956619	None	None	None	None	1
3.0.1	2019_Mar_06_1602	s	s	3	4	Capacity	65	3_1	3	1	4	1	23_4_1	-1	0	1	0	0.410873174667	51.0	348.0	59.0	352.0	1
3.0.1	2019_Mar_06_1602	s	s	3	4	Capacity	66	ABS	0	0	1	1	24_1_1	NA	NA	0	1	0.516824007034	None	None	None	None	1
3.0.1	2019_Mar_06_1602	s	s	3	4	Capacity	67	ABS	0	0	3	1	24_3_1	NA	NA	0	1	0.469717979431	None	None	None	None	1
3.0.1	2019_Mar_06_1602	s	s	3	4	Capacity	68	ABS	0	0	3	1	24_3_1	NA	NA	0	1	0.532788991928	None	None	None	None	1
3.0.1	2019_Mar_06_1602	s	s	3	4	Capacity	69	2_1	2	1	1	1	23_1_1	-1	0	0	1	0.47453212738	37.0	-85.0	None	None	0
3.0.1	2019_Mar_06_1602	s	s	3	4	Capacity	70	ABS	0	0	1	1	24_1_1	NA	NA	0	1	0.345754861832	None	None	None	None	1
3.0.1	2019_Mar_06_1602	s	s	3	4	Capacity	71	3_1	3	1	2	1	23_2_1	1	0	0	1	0.462911844254	527.0	-390.0	None	None	0
3.0.1	2019_Mar_06_1602	s	s	3	4	Capacity	72	2_1	2	1	3	1	23_3_1	1	0	1	0	0.681469917297	480.0	-288.0	487.0	-285.0	1
3.0.1	2019_Mar_06_1602	s	s	3	4	Capacity	73	ABS	0	0	4	1	24_4_1	NA	NA	0	1	0.628338098526	None	None	None	None	1
3.0.1	2019_Mar_06_1602	s	s	3	4	Capacity	74	ABS	0	0	1	1	24_1_1	NA	NA	0	1	0.594032049179	None	None	None	None	1
3.0.1	2019_Mar_06_1602	s	s	3	4	Capacity	75	ABS	0	0	4	1	24_4_1	NA	NA	0	1	0.457911968231	None	None	None	None	1
3.0.1	2019_Mar_06_1602	s	s	3	4	Capacity	76	4_1	4	1	2	1	23_2_1	2	0	1	0	0.410974025726	-429.0	27.0	-430.0	26.0	1
3.0.1	2019_Mar_06_1602	s	s	3	4	Capacity	77	3_1	3	1	1	1	23_1_1	2	0	1	0	0.58735203743	523.0	-190.0	533.0	-191.0	1
3.0.1	2019_Mar_06_1602	s	s	3	4	Capacity	78	3_1	3	1	2	1	23_2_1	1	0	1	0	0.787332057953	495.0	346.0	496.0	348.0	1
3.0.1	2019_Mar_06_1602	s	s	3	4	Capacity	79	2_1	2	1	1	1	23_1_1	-1	0	0	1	0.752007007599	20.0	-121.0	None	None	0
3.0.1	2019_Mar_06_1602	s	s	3	4	Capacity	80	1_1	1	1	3	1	23_3_1	2	0	1	0	0.473872900009	356.0	44.0	358.0	45.0	1
3.0.1	2019_Mar_06_1602	s	s	3	4	Capacity	81	4_1	4	1	3	1	23_3_1	1	0	1	0	0.383692026138	291.0	195.0	293.0	197.0	1
3.0.1	2019_Mar_06_1602	s	s	3	4	Capacity	82	ABS	0	0	2	1	24_2_1	NA	NA	0	1	0.728517055511	None	None	None	None	1
3.0.1	2019_Mar_06_1602	s	s	3	4	Capacity	83	ABS	0	0	2	1	24_2_1	NA	NA	0	1	0.693208932877	None	None	None	None	1
3.0.1	2019_Mar_06_1602	s	s	3	4	Capacity	84	ABS	0	0	3	1	24_3_1	NA	NA	0	1	0.733032941818	None	None	None	None	1
3.0.1	2019_Mar_06_1602	s	s	3	4	Capacity	85	1_1	1	1	2	1	23_2_1	1	0	0	1	0.767784118652	205.0	-326.0	None	None	0
3.0.1	2019_Mar_06_1602	s	s	3	4	Capacity	86	2_1	2	1	4	1	23_4_1	2	0	1	0	0.425706863403	141.0	51.0	128.0	55.0	1
3.0.1	2019_Mar_06_1602	s	s	3	4	Capacity	87	4_1	4	1	1	1	23_1_1	3	0	1	0	0.384442090988	21.0	246.0	28.0	243.0	1
3.0.1	2019_Mar_06_1602	s	s	3	4	Capacity	88	ABS	0	0	1	1	24_1_1	NA	NA	0	1	0.810811042786	None	None	None	None	1
3.0.1	2019_Mar_06_1602	s	s	3	4	Capacity	89	ABS	0	0	1	1	24_1_1	NA	NA	0	1	1.07617592812	None	None	None	None	1
3.0.1	2019_Mar_06_1602	s	s	3	4	Capacity	90	2_1	2	1	3	1	23_3_1	1	0	1	0	0.839565992355	-389.0	185.0	-392.0	185.0	1
3.0.1	2019_Mar_06_1602	s	s	3	4	Capacity	91	ABS	0	0	3	1	24_3_1	NA	NA	0	1	0.731364965439	None	None	None	None	1
3.0.1	2019_Mar_06_1602	s	s	3	4	Capacity	92	ABS	0	0	4	1	24_4_1	NA	NA	0	1	0.613821983337	None	None	None	None	1
3.0.1	2019_Mar_06_1602	s	s	3	4	Capacity	93	ABS	0	0	3	1	24_3_1	NA	NA	0	1	0.763753890991	None	None	None	None	1
3.0.1	2019_Mar_06_1602	s	s	3	4	Capacity	94	1_1	1	1	4	1	23_4_1	3	0	1	0	0.437572002411	-61.0	119.0	-63.0	115.0	1
3.0.1	2019_Mar_06_1602	s	s	3	4	Capacity	95	3_1	3	1	4	1	23_4_1	-1	0	1	0	0.399196147919	-45.0	-342.0	-49.0	-338.0	1
3.0.1	2019_Mar_06_1602	s	s	3	4	Capacity	96	ABS	0	0	2	1	24_2_1	NA	NA	0	1	0.719681024551	None	None	None	None	1
3.0.1	2019_Mar_06_1602	s	s	3	4	SIC	1	ABS	0	0	2	1	24_2_1	NA	NA	1	0	0.443532943726	None	None	148.0	-19.0	0
3.0.1	2019_Mar_06_1602	s	s	3	4	SIC	2	1_3	1	3	3	3	23_3_3	2	0	1	0	0.442542076111	303.0	-248.0	306.0	-247.0	1
3.0.1	2019_Mar_06_1602	s	s	3	4	SIC	3	ABS	0	0	1	2	24_1_2	NA	NA	0	1	1.76355099678	None	None	None	None	1
3.0.1	2019_Mar_06_1602	s	s	3	4	SIC	4	1_2	1	2	3	4	23_3_4	2	2	1	0	0.446262836456	-245.0	-399.0	-246.0	-391.0	1
3.0.1	2019_Mar_06_1602	s	s	3	4	SIC	5	1_3	1	3	1	2	23_1_2	0	1	0	1	1.67228198051	538.0	-137.0	None	None	0
3.0.1	2019_Mar_06_1602	s	s	3	4	SIC	6	1_2	1	2	1	4	23_1_4	0	2	1	0	1.04609894753	-468.0	-292.0	-463.0	-303.0	1
3.0.1	2019_Mar_06_1602	s	s	3	4	SIC	7	2_4	2	4	4	3	23_4_3	2	1	1	0	0.383641958237	222.0	-4.0	216.0	-5.0	1
3.0.1	2019_Mar_06_1602	s	s	3	4	SIC	8	1_4	1	4	2	1	23_2_1	1	3	1	0	0.602053880692	71.0	297.0	82.0	303.0	1
3.0.1	2019_Mar_06_1602	s	s	3	4	SIC	9	ABS	0	0	2	2	24_2_2	NA	NA	0	1	1.49586486816	None	None	None	None	1
3.0.1	2019_Mar_06_1602	s	s	3	4	SIC	10	3_2	3	2	1	4	23_1_4	2	2	1	0	0.399204015732	-228.0	-57.0	-237.0	-59.0	1
3.0.1	2019_Mar_06_1602	s	s	3	4	SIC	11	ABS	0	0	3	4	24_3_4	NA	NA	0	1	0.775583028793	None	None	None	None	1
3.0.1	2019_Mar_06_1602	s	s	3	4	SIC	12	4_4	4	4	4	3	23_4_3	0	1	1	0	0.634462118149	-213.0	329.0	-217.0	330.0	1
3.0.1	2019_Mar_06_1602	s	s	3	4	SIC	13	4_1	4	1	3	3	23_3_3	1	2	1	0	0.39960193634	355.0	185.0	359.0	190.0	1
3.0.1	2019_Mar_06_1602	s	s	3	4	SIC	14	ABS	0	0	3	1	24_3_1	NA	NA	0	1	1.18723297119	None	None	None	None	1
3.0.1	2019_Mar_06_1602	s	s	3	4	SIC	15	ABS	0	0	1	1	24_1_1	NA	NA	0	1	0.998996973038	None	None	None	None	1
3.0.1	2019_Mar_06_1602	s	s	3	4	SIC	16	4_3	4	3	4	1	23_4_1	0	2	0	1	1.13353896141	501.0	383.0	None	None	0
3.0.1	2019_Mar_06_1602	s	s	3	4	SIC	17	ABS	0	0	4	2	24_4_2	NA	NA	1	0	0.716763973236	None	None	127.0	-132.0	0
3.0.1	2019_Mar_06_1602	s	s	3	4	SIC	18	1_1	1	1	3	4	23_3_4	2	3	1	0	0.505085945129	-507.0	366.0	-500.0	370.0	1
3.0.1	2019_Mar_06_1602	s	s	3	4	SIC	19	1_4	1	4	1	2	23_1_2	0	2	1	0	0.437414884567	-220.0	92.0	-230.0	90.0	1
3.0.1	2019_Mar_06_1602	s	s	3	4	SIC	20	3_3	3	3	3	1	23_3_1	0	2	1	0	1.19890904427	-159.0	283.0	-161.0	282.0	1
3.0.1	2019_Mar_06_1602	s	s	3	4	SIC	21	3_2	3	2	4	3	23_4_3	-1	1	1	0	0.434498071671	-37.0	-106.0	-38.0	-99.0	1
3.0.1	2019_Mar_06_1602	s	s	3	4	SIC	22	ABS	0	0	4	4	24_4_4	NA	NA	0	1	0.851576089859	None	None	None	None	1
3.0.1	2019_Mar_06_1602	s	s	3	4	SIC	23	3_2	3	2	3	3	23_3_3	0	1	0	1	1.53218483925	75.0	-224.0	None	None	0
3.0.1	2019_Mar_06_1602	s	s	3	4	SIC	24	3_3	3	3	2	4	23_2_4	1	-1	1	0	0.422971010208	-265.0	167.0	-274.0	167.0	1
3.0.1	2019_Mar_06_1602	s	s	3	4	SIC	25	ABS	0	0	3	3	24_3_3	NA	NA	0	1	1.69293403625	None	None	None	None	1
3.0.1	2019_Mar_06_1602	s	s	3	4	SIC	26	2_2	2	2	2	4	23_2_4	0	2	1	0	0.857959985733	-455.0	-254.0	-455.0	-253.0	1
3.0.1	2019_Mar_06_1602	s	s	3	4	SIC	27	4_4	4	4	3	2	23_3_2	1	2	1	0	0.378554105759	23.0	44.0	36.0	47.0	1
3.0.1	2019_Mar_06_1602	s	s	3	4	SIC	28	ABS	0	0	4	3	24_4_3	NA	NA	0	1	2.10452103615	None	None	None	None	1
3.0.1	2019_Mar_06_1602	s	s	3	4	SIC	29	3_1	3	1	3	4	23_3_4	0	3	1	0	0.469789028168	-290.0	-406.0	-284.0	-399.0	1
3.0.1	2019_Mar_06_1602	s	s	3	4	SIC	30	ABS	0	0	3	2	24_3_2	NA	NA	0	1	0.907866001129	None	None	None	None	1
3.0.1	2019_Mar_06_1602	s	s	3	4	SIC	31	2_3	2	3	1	3	23_1_3	-1	0	0	1	1.5399749279	-457.0	81.0	None	None	0
3.0.1	2019_Mar_06_1602	s	s	3	4	SIC	32	1_2	1	2	1	1	23_1_1	0	-1	1	0	0.987231016159	-36.0	-82.0	-25.0	-80.0	1
3.0.1	2019_Mar_06_1602	s	s	3	4	SIC	33	1_1	1	1	4	1	23_4_1	3	0	1	0	0.393476009369	131.0	-39.0	137.0	-35.0	1
3.0.1	2019_Mar_06_1602	s	s	3	4	SIC	34	1_2	1	2	2	2	23_2_2	1	0	0	1	1.10491394997	133.0	352.0	None	None	0
3.0.1	2019_Mar_06_1602	s	s	3	4	SIC	35	4_3	4	3	3	4	23_3_4	1	-1	1	0	0.39254117012	117.0	-319.0	123.0	-322.0	1
3.0.1	2019_Mar_06_1602	s	s	3	4	SIC	36	4_1	4	1	2	4	23_2_4	2	3	1	0	0.369271039963	43.0	-372.0	36.0	-367.0	1
3.0.1	2019_Mar_06_1602	s	s	3	4	SIC	37	ABS	0	0	2	3	24_2_3	NA	NA	0	1	2.22679281235	None	None	None	None	1
3.0.1	2019_Mar_06_1602	s	s	3	4	SIC	38	3_1	3	1	4	2	23_4_2	-1	1	1	0	0.4373691082	423.0	-341.0	424.0	-333.0	1
3.0.1	2019_Mar_06_1602	s	s	3	4	SIC	39	ABS	0	0	4	2	24_4_2	NA	NA	0	1	1.23422718048	None	None	None	None	1
3.0.1	2019_Mar_06_1602	s	s	3	4	SIC	40	3_1	3	1	4	1	23_4_1	-1	0	1	0	0.463169813156	34.0	-26.0	33.0	-35.0	1
3.0.1	2019_Mar_06_1602	s	s	3	4	SIC	41	ABS	0	0	2	1	24_2_1	NA	NA	0	1	1.58049297333	None	None	None	None	1
3.0.1	2019_Mar_06_1602	s	s	3	4	SIC	42	ABS	0	0	2	1	24_2_1	NA	NA	0	1	0.93506193161	None	None	None	None	1
3.0.1	2019_Mar_06_1602	s	s	3	4	SIC	43	3_1	3	1	1	2	23_1_2	2	1	1	0	0.503190994263	358.0	207.0	351.0	215.0	1
3.0.1	2019_Mar_06_1602	s	s	3	4	SIC	44	4_4	4	4	2	3	23_2_3	2	1	1	0	0.373952865601	525.0	174.0	513.0	177.0	1
3.0.1	2019_Mar_06_1602	s	s	3	4	SIC	45	4_2	4	2	1	3	23_1_3	3	1	1	0	0.356220006943	-260.0	-35.0	-262.0	-47.0	1
3.0.1	2019_Mar_06_1602	s	s	3	4	SIC	46	ABS	0	0	3	2	24_3_2	NA	NA	0	1	1.14875197411	None	None	None	None	1
3.0.1	2019_Mar_06_1602	s	s	3	4	SIC	47	3_2	3	2	2	3	23_2_3	1	1	1	0	0.446244955063	-214.0	-363.0	-221.0	-362.0	1
3.0.1	2019_Mar_06_1602	s	s	3	4	SIC	48	ABS	0	0	4	1	24_4_1	NA	NA	0	1	1.10485100746	None	None	None	None	1
3.0.1	2019_Mar_06_1602	s	s	3	4	SIC	49	ABS	0	0	3	2	24_3_2	NA	NA	1	0	0.450798988342	None	None	69.0	-23.0	0
3.0.1	2019_Mar_06_1602	s	s	3	4	SIC	50	ABS	0	0	1	1	24_1_1	NA	NA	0	1	0.928427934647	None	None	None	None	1
3.0.1	2019_Mar_06_1602	s	s	3	4	SIC	51	4_3	4	3	4	2	23_4_2	0	1	0	1	1.91969585419	-418.0	34.0	None	None	0
3.0.1	2019_Mar_06_1602	s	s	3	4	SIC	52	1_1	1	1	3	1	23_3_1	2	0	1	0	0.488265037537	300.0	361.0	292.0	368.0	1
3.0.1	2019_Mar_06_1602	s	s	3	4	SIC	53	2_3	2	3	1	1	23_1_1	-1	2	0	1	0.75665807724	117.0	-238.0	None	None	0
3.0.1	2019_Mar_06_1602	s	s	3	4	SIC	54	ABS	0	0	3	3	24_3_3	NA	NA	0	1	1.5335290432	None	None	None	None	1
3.0.1	2019_Mar_06_1602	s	s	3	4	SIC	55	ABS	0	0	3	1	24_3_1	NA	NA	0	1	1.1166510582	None	None	None	None	1
3.0.1	2019_Mar_06_1602	s	s	3	4	SIC	56	ABS	0	0	2	4	24_2_4	NA	NA	0	1	1.08930802345	None	None	None	None	1
3.0.1	2019_Mar_06_1602	s	s	3	4	SIC	57	ABS	0	0	2	3	24_2_3	NA	NA	0	1	1.51649618149	None	None	None	None	1
3.0.1	2019_Mar_06_1602	s	s	3	4	SIC	58	ABS	0	0	4	1	24_4_1	NA	NA	0	1	1.03432488441	None	None	None	None	1
3.0.1	2019_Mar_06_1602	s	s	3	4	SIC	59	1_1	1	1	4	3	23_4_3	3	2	1	0	0.469663858414	384.0	-33.0	382.0	-33.0	1
3.0.1	2019_Mar_06_1602	s	s	3	4	SIC	60	1_1	1	1	2	3	23_2_3	1	2	1	0	1.46939611435	432.0	181.0	436.0	179.0	1
3.0.1	2019_Mar_06_1602	s	s	3	4	SIC	61	2_2	2	2	1	4	23_1_4	-1	2	1	0	0.446396112442	184.0	40.0	182.0	36.0	1
3.0.1	2019_Mar_06_1602	s	s	3	4	SIC	62	2_1	2	1	3	4	23_3_4	1	3	1	0	0.37118601799	-310.0	64.0	-311.0	61.0	1
3.0.1	2019_Mar_06_1602	s	s	3	4	SIC	63	1_4	1	4	3	3	23_3_3	2	1	1	0	0.34045791626	57.0	148.0	63.0	152.0	1
3.0.1	2019_Mar_06_1602	s	s	3	4	SIC	64	ABS	0	0	4	3	24_4_3	NA	NA	1	0	0.422756910324	None	None	46.0	10.0	0
3.0.1	2019_Mar_06_1602	s	s	3	4	SIC	65	2_1	2	1	4	4	23_4_4	2	3	1	0	0.391801834106	-439.0	26.0	-433.0	20.0	1
3.0.1	2019_Mar_06_1602	s	s	3	4	SIC	66	4_3	4	3	2	3	23_2_3	2	0	1	0	0.363943815231	-275.0	-239.0	-276.0	-241.0	1
3.0.1	2019_Mar_06_1602	s	s	3	4	SIC	67	2_1	2	1	1	2	23_1_2	-1	1	1	0	0.928460121155	-283.0	-81.0	-268.0	-72.0	1
3.0.1	2019_Mar_06_1602	s	s	3	4	SIC	68	ABS	0	0	2	2	24_2_2	NA	NA	0	1	1.25127410889	None	None	None	None	1
3.0.1	2019_Mar_06_1602	s	s	3	4	SIC	69	1_2	1	2	4	4	23_4_4	3	2	1	0	0.410947084427	-352.0	267.0	-351.0	275.0	1
3.0.1	2019_Mar_06_1602	s	s	3	4	SIC	70	ABS	0	0	4	3	24_4_3	NA	NA	0	1	1.34008383751	None	None	None	None	1
3.0.1	2019_Mar_06_1602	s	s	3	4	SIC	71	ABS	0	0	4	4	24_4_4	NA	NA	0	1	0.869637966156	None	None	None	None	1
3.0.1	2019_Mar_06_1602	s	s	3	4	SIC	72	4_2	4	2	2	1	23_2_1	2	-1	1	0	0.528563022614	-389.0	-166.0	-386.0	-166.0	1
3.0.1	2019_Mar_06_1602	s	s	3	4	SIC	73	2_1	2	1	3	2	23_3_2	1	1	1	0	0.516829967499	-145.0	-373.0	-139.0	-370.0	1
3.0.1	2019_Mar_06_1602	s	s	3	4	SIC	74	ABS	0	0	1	4	24_1_4	NA	NA	0	1	0.863441944122	None	None	None	None	1
3.0.1	2019_Mar_06_1602	s	s	3	4	SIC	75	ABS	0	0	3	1	24_3_1	NA	NA	0	1	1.56864500046	None	None	None	None	1
3.0.1	2019_Mar_06_1602	s	s	3	4	SIC	76	3_4	3	4	2	4	23_2_4	1	0	1	0	0.863214969635	77.0	273.0	64.0	276.0	1
3.0.1	2019_Mar_06_1602	s	s	3	4	SIC	77	ABS	0	0	3	3	24_3_3	NA	NA	0	1	0.810850858688	None	None	None	None	1
3.0.1	2019_Mar_06_1602	s	s	3	4	SIC	78	ABS	0	0	3	4	24_3_4	NA	NA	0	1	0.68531703949	None	None	None	None	1
3.0.1	2019_Mar_06_1602	s	s	3	4	SIC	79	1_4	1	4	2	4	23_2_4	1	0	0	1	0.646238803864	-334.0	339.0	None	None	0
3.0.1	2019_Mar_06_1602	s	s	3	4	SIC	80	ABS	0	0	2	4	24_2_4	NA	NA	0	1	0.799341917038	None	None	None	None	1
3.0.1	2019_Mar_06_1602	s	s	3	4	SIC	81	ABS	0	0	4	4	24_4_4	NA	NA	0	1	0.63435292244	None	None	None	None	1
3.0.1	2019_Mar_06_1602	s	s	3	4	SIC	82	1_3	1	3	3	1	23_3_1	2	2	1	0	0.487513065338	229.0	247.0	223.0	245.0	1
3.0.1	2019_Mar_06_1602	s	s	3	4	SIC	83	4_1	4	1	1	2	23_1_2	3	1	1	0	0.387429952621	-170.0	-270.0	-169.0	-272.0	1
3.0.1	2019_Mar_06_1602	s	s	3	4	SIC	84	ABS	0	0	1	2	24_1_2	NA	NA	0	1	0.681612014771	None	None	None	None	1
3.0.1	2019_Mar_06_1602	s	s	3	4	SIC	85	2_1	2	1	2	4	23_2_4	0	3	1	0	0.39923787117	309.0	-1.0	308.0	-3.0	1
3.0.1	2019_Mar_06_1602	s	s	3	4	SIC	86	ABS	0	0	1	3	24_1_3	NA	NA	0	1	1.80272698402	None	None	None	None	1
3.0.1	2019_Mar_06_1602	s	s	3	4	SIC	87	3_3	3	3	3	2	23_3_2	0	1	0	1	0.822604179382	-350.0	405.0	None	None	0
3.0.1	2019_Mar_06_1602	s	s	3	4	SIC	88	3_2	3	2	3	4	23_3_4	0	2	1	0	0.457883119583	-130.0	-250.0	-140.0	-247.0	1
3.0.1	2019_Mar_06_1602	s	s	3	4	SIC	89	ABS	0	0	4	4	24_4_4	NA	NA	0	1	0.751987934113	None	None	None	None	1
3.0.1	2019_Mar_06_1602	s	s	3	4	SIC	90	ABS	0	0	3	3	24_3_3	NA	NA	0	1	1.13511896133	None	None	None	None	1
3.0.1	2019_Mar_06_1602	s	s	3	4	SIC	91	1_1	1	1	1	2	23_1_2	0	1	0	1	0.914515018463	72.0	305.0	None	None	0
3.0.1	2019_Mar_06_1602	s	s	3	4	SIC	92	3_1	3	1	2	1	23_2_1	1	0	1	0	0.496205806732	-18.0	-348.0	-19.0	-347.0	1
3.0.1	2019_Mar_06_1602	s	s	3	4	SIC	93	4_1	4	1	3	4	23_3_4	1	3	1	0	0.437360048294	-348.0	-27.0	-340.0	-31.0	1
3.0.1	2019_Mar_06_1602	s	s	3	4	SIC	94	4_2	4	2	4	4	23_4_4	0	2	1	0	0.533269882202	-476.0	57.0	-477.0	56.0	1
3.0.1	2019_Mar_06_1602	s	s	3	4	SIC	95	4_4	4	4	1	2	23_1_2	3	2	1	0	0.352155208588	-497.0	64.0	-502.0	61.0	1
3.0.1	2019_Mar_06_1602	s	s	3	4	SIC	96	ABS	0	0	1	1	24_1_1	NA	NA	0	1	0.980690002441	None	None	None	None	1
3.0.1	2019_Mar_06_1602	s	s	3	4	SIC	97	1_3	1	3	3	2	23_3_2	2	1	1	0	0.458029985428	-295.0	243.0	-296.0	238.0	1
3.0.1	2019_Mar_06_1602	s	s	3	4	SIC	98	ABS	0	0	4	3	24_4_3	NA	NA	0	1	1.17540216446	None	None	None	None	1
3.0.1	2019_Mar_06_1602	s	s	3	4	SIC	99	ABS	0	0	3	4	24_3_4	NA	NA	0	1	0.599184036255	None	None	None	None	1
3.0.1	2019_Mar_06_1602	s	s	3	4	SIC	100	ABS	0	0	2	4	24_2_4	NA	NA	0	1	0.673031806946	None	None	None	None	1
3.0.1	2019_Mar_06_1602	s	s	3	4	SIC	101	ABS	0	0	2	1	24_2_1	NA	NA	0	1	0.799152135849	None	None	None	None	1
3.0.1	2019_Mar_06_1602	s	s	3	4	SIC	102	3_4	3	4	1	3	23_1_3	2	1	1	0	0.568536043167	71.0	-412.0	73.0	-419.0	1
3.0.1	2019_Mar_06_1602	s	s	3	4	SIC	103	ABS	0	0	2	1	24_2_1	NA	NA	0	1	0.829334020615	None	None	None	None	1
3.0.1	2019_Mar_06_1602	s	s	3	4	SIC	104	4_1	4	1	1	3	23_1_3	3	2	1	0	0.410961866379	-84.0	409.0	-79.0	414.0	1
3.0.1	2019_Mar_06_1602	s	s	3	4	SIC	105	ABS	0	0	1	3	24_1_3	NA	NA	0	1	1.50476098061	None	None	None	None	1
3.0.1	2019_Mar_06_1602	s	s	3	4	SIC	106	ABS	0	0	2	3	24_2_3	NA	NA	0	1	1.0761950016	None	None	None	None	1
3.0.1	2019_Mar_06_1602	s	s	3	4	SIC	107	ABS	0	0	2	2	24_2_2	NA	NA	0	1	1.69682407379	None	None	None	None	1
3.0.1	2019_Mar_06_1602	s	s	3	4	SIC	108	ABS	0	0	1	1	24_1_1	NA	NA	0	1	1.08422994614	None	None	None	None	1
3.0.1	2019_Mar_06_1602	s	s	3	4	SIC	109	3_4	3	4	1	2	23_1_2	2	2	1	0	0.545576095581	-450.0	-137.0	-454.0	-141.0	1
3.0.1	2019_Mar_06_1602	s	s	3	4	SIC	110	ABS	0	0	1	4	24_1_4	NA	NA	0	1	0.956698179245	None	None	None	None	1
3.0.1	2019_Mar_06_1602	s	s	3	4	SIC	111	ABS	0	0	2	1	24_2_1	NA	NA	0	1	1.09803009033	None	None	None	None	1
3.0.1	2019_Mar_06_1602	s	s	3	4	SIC	112	1_3	1	3	4	2	23_4_2	3	1	1	0	0.916694164276	-492.0	-108.0	-490.0	-103.0	1
3.0.1	2019_Mar_06_1602	s	s	3	4	SIC	113	ABS	0	0	2	4	24_2_4	NA	NA	0	1	0.834367036819	None	None	None	None	1
3.0.1	2019_Mar_06_1602	s	s	3	4	SIC	114	ABS	0	0	2	3	24_2_3	NA	NA	0	1	1.18715882301	None	None	None	None	1
3.0.1	2019_Mar_06_1602	s	s	3	4	SIC	115	3_2	3	2	2	4	23_2_4	1	2	1	0	0.587849140167	-479.0	-45.0	-474.0	-44.0	1
3.0.1	2019_Mar_06_1602	s	s	3	4	SIC	116	1_3	1	3	1	4	23_1_4	0	-1	1	0	0.716802120209	205.0	-111.0	206.0	-114.0	1
3.0.1	2019_Mar_06_1602	s	s	3	4	SIC	117	3_3	3	3	1	2	23_1_2	2	1	1	0	1.04611206055	-457.0	-400.0	-459.0	-405.0	1
3.0.1	2019_Mar_06_1602	s	s	3	4	SIC	118	ABS	0	0	1	4	24_1_4	NA	NA	0	1	1.0578520298	None	None	None	None	1
3.0.1	2019_Mar_06_1602	s	s	3	4	SIC	119	ABS	0	0	2	3	24_2_3	NA	NA	0	1	1.42881298065	None	None	None	None	1
3.0.1	2019_Mar_06_1602	s	s	3	4	SIC	120	ABS	0	0	2	2	24_2_2	NA	NA	0	1	1.15702795982	None	None	None	None	1
3.0.1	2019_Mar_06_1602	s	s	3	4	SIC	121	ABS	0	0	3	4	24_3_4	NA	NA	0	1	0.797473192215	None	None	None	None	1
3.0.1	2019_Mar_06_1602	s	s	3	4	SIC	122	ABS	0	0	1	3	24_1_3	NA	NA	0	1	1.3834400177	None	None	None	None	1
3.0.1	2019_Mar_06_1602	s	s	3	4	SIC	123	ABS	0	0	2	3	24_2_3	NA	NA	0	1	1.37837195396	None	None	None	None	1
3.0.1	2019_Mar_06_1602	s	s	3	4	SIC	124	1_3	1	3	1	1	23_1_1	0	2	1	0	1.26738595963	-193.0	354.0	-185.0	359.0	1
3.0.1	2019_Mar_06_1602	s	s	3	4	SIC	125	3_2	3	2	2	1	23_2_1	1	-1	1	0	0.622675895691	-465.0	-188.0	-468.0	-193.0	1
3.0.1	2019_Mar_06_1602	s	s	3	4	SIC	126	ABS	0	0	1	1	24_1_1	NA	NA	0	1	1.39307403564	None	None	None	None	1
3.0.1	2019_Mar_06_1602	s	s	3	4	SIC	127	ABS	0	0	4	4	24_4_4	NA	NA	0	1	0.80301117897	None	None	None	None	1
3.0.1	2019_Mar_06_1602	s	s	3	4	SIC	128	ABS	0	0	1	4	24_1_4	NA	NA	0	1	0.721931934357	None	None	None	None	1
3.0.1	2019_Mar_06_1602	s	s	3	4	SIC	129	2_2	2	2	2	3	23_2_3	0	1	0	1	1.7464799881	408.0	-168.0	None	None	0
3.0.1	2019_Mar_06_1602	s	s	3	4	SIC	130	3_1	3	1	1	1	23_1_1	2	0	1	0	0.51118683815	-255.0	401.0	-250.0	399.0	1
3.0.1	2019_Mar_06_1602	s	s	3	4	SIC	131	2_3	2	3	4	3	23_4_3	2	0	1	0	0.48154592514	-121.0	174.0	-119.0	178.0	1
3.0.1	2019_Mar_06_1602	s	s	3	4	SIC	132	ABS	0	0	3	3	24_3_3	NA	NA	0	1	0.881370067596	None	None	None	None	1
3.0.1	2019_Mar_06_1602	s	s	3	4	SIC	133	4_2	4	2	4	1	23_4_1	0	-1	0	1	0.857826948166	-49.0	268.0	None	None	0
3.0.1	2019_Mar_06_1602	s	s	3	4	SIC	134	2_3	2	3	2	4	23_2_4	0	-1	1	0	0.60423207283	-36.0	-190.0	-35.0	-192.0	1
3.0.1	2019_Mar_06_1602	s	s	3	4	SIC	135	3_3	3	3	2	3	23_2_3	1	0	1	0	0.462054014206	-25.0	271.0	-25.0	279.0	1
3.0.1	2019_Mar_06_1602	s	s	3	4	SIC	136	ABS	0	0	3	2	24_3_2	NA	NA	0	1	1.71652889252	None	None	None	None	1
3.0.1	2019_Mar_06_1602	s	s	3	4	SIC	137	ABS	0	0	4	4	24_4_4	NA	NA	0	1	0.573559045792	None	None	None	None	1
3.0.1	2019_Mar_06_1602	s	s	3	4	SIC	138	ABS	0	0	3	1	24_3_1	NA	NA	0	1	0.863312959671	None	None	None	None	1
3.0.1	2019_Mar_06_1602	s	s	3	4	SIC	139	ABS	0	0	4	4	24_4_4	NA	NA	0	1	0.516842842102	None	None	None	None	1
3.0.1	2019_Mar_06_1602	s	s	3	4	SIC	140	4_3	4	3	2	1	23_2_1	2	2	1	0	0.474227905273	475.0	-202.0	485.0	-204.0	1
3.0.1	2019_Mar_06_1602	s	s	3	4	SIC	141	3_1	3	1	2	2	23_2_2	1	1	1	0	0.533295154572	236.0	-301.0	244.0	-306.0	1
3.0.1	2019_Mar_06_1602	s	s	3	4	SIC	142	ABS	0	0	4	2	24_4_2	NA	NA	0	1	0.628715991974	None	None	None	None	1
3.0.1	2019_Mar_06_1602	s	s	3	4	SIC	143	ABS	0	0	3	4	24_3_4	NA	NA	0	1	0.601999998093	None	None	None	None	1
3.0.1	2019_Mar_06_1602	s	s	3	4	SIC	144	2_4	2	4	3	1	23_3_1	1	3	1	0	0.516880989075	-175.0	-309.0	-176.0	-323.0	1
3.0.1	2019_Mar_06_1602	s	s	3	4	SIC	145	ABS	0	0	3	2	24_3_2	NA	NA	0	1	1.16366314888	None	None	None	None	1
3.0.1	2019_Mar_06_1602	s	s	3	4	SIC	146	ABS	0	0	1	2	24_1_2	NA	NA	0	1	1.7520108223	None	None	None	None	1
3.0.1	2019_Mar_06_1602	s	s	3	4	SIC	147	ABS	0	0	1	1	24_1_1	NA	NA	0	1	0.940248966217	None	None	None	None	1
3.0.1	2019_Mar_06_1602	s	s	3	4	SIC	148	3_4	3	4	1	4	23_1_4	2	0	1	0	0.663101196289	76.0	249.0	76.0	244.0	1
3.0.1	2019_Mar_06_1602	s	s	3	4	SIC	149	ABS	0	0	3	1	24_3_1	NA	NA	0	1	0.975532054901	None	None	None	None	1
3.0.1	2019_Mar_06_1602	s	s	3	4	SIC	150	1_1	1	1	3	3	23_3_3	2	2	1	0	0.657999992371	179.0	403.0	175.0	405.0	1
3.0.1	2019_Mar_06_1602	s	s	3	4	SIC	151	ABS	0	0	2	1	24_2_1	NA	NA	0	1	1.06291985512	None	None	None	None	1
3.0.1	2019_Mar_06_1602	s	s	3	4	SIC	152	2_1	2	1	1	3	23_1_3	-1	2	0	1	1.06957697868	-428.0	-245.0	None	None	0
3.0.1	2019_Mar_06_1602	s	s	3	4	SIC	153	ABS	0	0	2	2	24_2_2	NA	NA	0	1	1.31019997597	None	None	None	None	1
3.0.1	2019_Mar_06_1602	s	s	3	4	SIC	154	ABS	0	0	3	4	24_3_4	NA	NA	0	1	0.857818126678	None	None	None	None	1
3.0.1	2019_Mar_06_1602	s	s	3	4	SIC	155	4_1	4	1	3	1	23_3_1	1	0	1	0	0.428642988205	-536.0	-14.0	-542.0	-11.0	1
3.0.1	2019_Mar_06_1602	s	s	3	4	SIC	156	3_1	3	1	4	4	23_4_4	-1	3	1	0	0.676899909973	351.0	243.0	347.0	240.0	1
3.0.1	2019_Mar_06_1602	s	s	3	4	SIC	157	3_4	3	4	2	2	23_2_2	1	2	1	0	1.10486412048	143.0	-340.0	147.0	-343.0	1
3.0.1	2019_Mar_06_1602	s	s	3	4	SIC	158	2_3	2	3	4	1	23_4_1	2	2	1	0	0.452099084854	211.0	-267.0	210.0	-267.0	1
3.0.1	2019_Mar_06_1602	s	s	3	4	SIC	159	2_3	2	3	1	4	23_1_4	-1	-1	1	0	0.469767093658	12.0	19.0	5.0	13.0	1
3.0.1	2019_Mar_06_1602	s	s	3	4	SIC	160	1_2	1	2	3	2	23_3_2	2	0	1	0	0.387387990952	-54.0	-189.0	-50.0	-192.0	1
3.0.1	2019_Mar_06_1602	s	s	3	4	SIC	161	ABS	0	0	3	1	24_3_1	NA	NA	0	1	0.540380954742	None	None	None	None	1
3.0.1	2019_Mar_06_1602	s	s	3	4	SIC	162	3_1	3	1	1	4	23_1_4	2	3	1	0	0.437361955643	332.0	-377.0	342.0	-373.0	1
3.0.1	2019_Mar_06_1602	s	s	3	4	SIC	163	ABS	0	0	4	2	24_4_2	NA	NA	0	1	1.01601004601	None	None	None	None	1
3.0.1	2019_Mar_06_1602	s	s	3	4	SIC	164	ABS	0	0	1	1	24_1_1	NA	NA	0	1	0.958509922028	None	None	None	None	1
3.0.1	2019_Mar_06_1602	s	s	3	4	SIC	165	ABS	0	0	1	4	24_1_4	NA	NA	0	1	0.876248836517	None	None	None	None	1
3.0.1	2019_Mar_06_1602	s	s	3	4	SIC	166	ABS	0	0	3	2	24_3_2	NA	NA	0	1	1.19299197197	None	None	None	None	1
3.0.1	2019_Mar_06_1602	s	s	3	4	SIC	167	1_1	1	1	4	2	23_4_2	3	1	1	0	0.415656805038	222.0	-65.0	223.0	-68.0	1
3.0.1	2019_Mar_06_1602	s	s	3	4	SIC	168	1_2	1	2	4	3	23_4_3	3	1	1	0	0.458007097244	477.0	181.0	485.0	175.0	1
3.0.1	2019_Mar_06_1602	s	s	3	4	SIC	169	ABS	0	0	2	3	24_2_3	NA	NA	0	1	1.17994904518	None	None	None	None	1
3.0.1	2019_Mar_06_1602	s	s	3	4	SIC	170	2_4	2	4	1	1	23_1_1	-1	3	1	0	0.757812976837	405.0	323.0	411.0	319.0	1
3.0.1	2019_Mar_06_1602	s	s	3	4	SIC	171	ABS	0	0	4	2	24_4_2	NA	NA	0	1	1.2676050663	None	None	None	None	1
3.0.1	2019_Mar_06_1602	s	s	3	4	SIC	172	2_4	2	4	2	3	23_2_3	0	1	0	1	1.40354919434	452.0	-371.0	None	None	0
3.0.1	2019_Mar_06_1602	s	s	3	4	SIC	173	3_3	3	3	4	2	23_4_2	-1	1	1	0	0.410981178284	422.0	345.0	428.0	347.0	1
3.0.1	2019_Mar_06_1602	s	s	3	4	SIC	174	3_1	3	1	2	3	23_2_3	1	2	1	0	0.657915115356	-114.0	125.0	-122.0	127.0	1
3.0.1	2019_Mar_06_1602	s	s	3	4	SIC	175	2_2	2	2	2	1	23_2_1	0	-1	0	1	1.06958389282	-498.0	-301.0	None	None	0
3.0.1	2019_Mar_06_1602	s	s	3	4	SIC	176	ABS	0	0	1	3	24_1_3	NA	NA	0	1	1.29306507111	None	None	None	None	1
3.0.1	2019_Mar_06_1602	s	s	3	4	SIC	177	ABS	0	0	2	3	24_2_3	NA	NA	0	1	1.2530901432	None	None	None	None	1
3.0.1	2019_Mar_06_1602	s	s	3	4	SIC	178	ABS	0	0	4	3	24_4_3	NA	NA	0	1	1.46943712234	None	None	None	None	1
3.0.1	2019_Mar_06_1602	s	s	3	4	SIC	179	1_2	1	2	3	3	23_3_3	2	1	1	0	0.497188091278	170.0	-17.0	172.0	-22.0	1
3.0.1	2019_Mar_06_1602	s	s	3	4	SIC	180	1_4	1	4	1	3	23_1_3	0	1	1	0	0.592586994171	-176.0	-194.0	-169.0	-198.0	1
3.0.1	2019_Mar_06_1602	s	s	3	4	SIC	181	ABS	0	0	4	1	24_4_1	NA	NA	0	1	1.1097509861	None	None	None	None	1
3.0.1	2019_Mar_06_1602	s	s	3	4	SIC	182	2_2	2	2	1	2	23_1_2	-1	0	0	1	1.37538313866	243.0	-60.0	None	None	0
3.0.1	2019_Mar_06_1602	s	s	3	4	SIC	183	ABS	0	0	2	4	24_2_4	NA	NA	0	1	1.12843394279	None	None	None	None	1
3.0.1	2019_Mar_06_1602	s	s	3	4	SIC	184	ABS	0	0	3	3	24_3_3	NA	NA	0	1	0.869652032852	None	None	None	None	1
3.0.1	2019_Mar_06_1602	s	s	3	4	SIC	185	4_1	4	1	4	3	23_4_3	0	2	1	0	0.933567047119	284.0	-40.0	291.0	-38.0	1
3.0.1	2019_Mar_06_1602	s	s	3	4	SIC	186	1_2	1	2	3	1	23_3_1	2	-1	1	0	0.457988023758	-535.0	-43.0	-539.0	-38.0	1
3.0.1	2019_Mar_06_1602	s	s	3	4	SIC	187	ABS	0	0	4	4	24_4_4	NA	NA	0	1	2.6142578125	None	None	None	None	1
3.0.1	2019_Mar_06_1602	s	s	3	4	SIC	188	ABS	0	0	1	1	24_1_1	NA	NA	0	1	1.06972408295	None	None	None	None	1
3.0.1	2019_Mar_06_1602	s	s	3	4	SIC	189	3_4	3	4	4	2	23_4_2	-1	2	1	0	0.469844102859	-73.0	-296.0	-67.0	-302.0	1
3.0.1	2019_Mar_06_1602	s	s	3	4	SIC	190	ABS	0	0	2	3	24_2_3	NA	NA	0	1	1.23964500427	None	None	None	None	1
3.0.1	2019_Mar_06_1602	s	s	3	4	SIC	191	2_2	2	2	4	3	23_4_3	2	1	1	0	0.422764062881	-19.0	-333.0	-26.0	-333.0	1
3.0.1	2019_Mar_06_1602	s	s	3	4	SIC	192	ABS	0	0	2	4	24_2_4	NA	NA	0	1	0.780179023743	None	None	None	None	1
3.0.1	2019_Mar_06_1602	s	s	3	4	SIC	193	ABS	0	0	1	3	24_1_3	NA	NA	0	1	1.58098316193	None	None	None	None	1
3.0.1	2019_Mar_06_1602	s	s	3	4	SIC	194	2_4	2	4	4	2	23_4_2	2	2	1	0	0.410947084427	-128.0	313.0	-120.0	316.0	1
3.0.1	2019_Mar_06_1602	s	s	3	4	SIC	195	2_2	2	2	3	2	23_3_2	1	0	1	0	0.540444850922	-388.0	-104.0	-387.0	-99.0	1
3.0.1	2019_Mar_06_1602	s	s	3	4	SIC	196	2_3	2	3	3	3	23_3_3	1	0	1	0	0.740262031555	-363.0	259.0	-369.0	258.0	1
3.0.1	2019_Mar_06_1602	s	s	3	4	SIC	197	4_2	4	2	4	3	23_4_3	0	1	0	1	0.599218130112	-300.0	395.0	None	None	0
3.0.1	2019_Mar_06_1602	s	s	3	4	SIC	198	ABS	0	0	2	4	24_2_4	NA	NA	0	1	0.973709106445	None	None	None	None	1
3.0.1	2019_Mar_06_1602	s	s	3	4	SIC	199	2_4	2	4	1	3	23_1_3	-1	1	1	0	0.57560300827	324.0	245.0	327.0	243.0	1
3.0.1	2019_Mar_06_1602	s	s	3	4	SIC	200	ABS	0	0	2	3	24_2_3	NA	NA	0	1	0.940260887146	None	None	None	None	1
3.0.1	2019_Mar_06_1602	s	s	3	4	SIC	201	2_3	2	3	1	2	23_1_2	-1	1	0	1	0.664507865906	43.0	290.0	None	None	0
3.0.1	2019_Mar_06_1602	s	s	3	4	SIC	202	ABS	0	0	1	2	24_1_2	NA	NA	0	1	1.2342479229	None	None	None	None	1
3.0.1	2019_Mar_06_1602	s	s	3	4	SIC	203	ABS	0	0	4	3	24_4_3	NA	NA	0	1	1.11659693718	None	None	None	None	1
3.0.1	2019_Mar_06_1602	s	s	3	4	SIC	204	ABS	0	0	1	3	24_1_3	NA	NA	0	1	1.2085609436	None	None	None	None	1
3.0.1	2019_Mar_06_1602	s	s	3	4	SIC	205	3_3	3	3	2	2	23_2_2	1	1	1	0	0.834451913834	-378.0	-274.0	-371.0	-277.0	1
3.0.1	2019_Mar_06_1602	s	s	3	4	SIC	206	2_3	2	3	4	4	23_4_4	2	-1	1	0	0.415266990662	194.0	-370.0	187.0	-373.0	1
3.0.1	2019_Mar_06_1602	s	s	3	4	SIC	207	4_3	4	3	2	2	23_2_2	2	1	1	0	0.378556013107	-371.0	-349.0	-369.0	-347.0	1
3.0.1	2019_Mar_06_1602	s	s	3	4	SIC	208	ABS	0	0	3	4	24_3_4	NA	NA	0	1	0.756783008575	None	None	None	None	1
3.0.1	2019_Mar_06_1602	s	s	3	4	SIC	209	ABS	0	0	4	4	24_4_4	NA	NA	0	1	0.746217012405	None	None	None	None	1
3.0.1	2019_Mar_06_1602	s	s	3	4	SIC	210	1_3	1	3	2	1	23_2_1	1	2	1	0	1.06241607666	340.0	207.0	349.0	209.0	1
3.0.1	2019_Mar_06_1602	s	s	3	4	SIC	211	ABS	0	0	1	1	24_1_1	NA	NA	0	1	1.05784201622	None	None	None	None	1
3.0.1	2019_Mar_06_1602	s	s	3	4	SIC	212	ABS	0	0	4	2	24_4_2	NA	NA	0	1	0.672580957413	None	None	None	None	1
3.0.1	2019_Mar_06_1602	s	s	3	4	SIC	213	1_4	1	4	2	2	23_2_2	1	2	1	0	0.752051115036	-237.0	400.0	-244.0	400.0	1
3.0.1	2019_Mar_06_1602	s	s	3	4	SIC	214	3_2	3	2	1	3	23_1_3	2	1	1	0	0.563871145248	-98.0	-267.0	-96.0	-273.0	1
3.0.1	2019_Mar_06_1602	s	s	3	4	SIC	215	4_4	4	4	2	1	23_2_1	2	3	1	0	0.64615893364	-138.0	205.0	-135.0	206.0	1
3.0.1	2019_Mar_06_1602	s	s	3	4	SIC	216	1_4	1	4	4	2	23_4_2	3	2	1	0	0.387438058853	-480.0	297.0	-481.0	303.0	1
3.0.1	2019_Mar_06_1602	s	s	3	4	SIC	217	2_4	2	4	1	4	23_1_4	-1	0	0	1	0.966767787933	77.0	-280.0	None	None	0
3.0.1	2019_Mar_06_1602	s	s	3	4	SIC	218	ABS	0	0	2	3	24_2_3	NA	NA	0	1	2.48739695549	None	None	None	None	1
3.0.1	2019_Mar_06_1602	s	s	3	4	SIC	219	4_2	4	2	3	3	23_3_3	1	1	1	0	0.422684907913	-436.0	319.0	-428.0	318.0	1
3.0.1	2019_Mar_06_1602	s	s	3	4	SIC	220	ABS	0	0	3	1	24_3_1	NA	NA	0	1	0.834406852722	None	None	None	None	1
3.0.1	2019_Mar_06_1602	s	s	3	4	SIC	221	ABS	0	0	1	3	24_1_3	NA	NA	0	1	1.48124599457	None	None	None	None	1
3.0.1	2019_Mar_06_1602	s	s	3	4	SIC	222	1_3	1	3	2	4	23_2_4	1	-1	1	0	0.444929122925	169.0	245.0	168.0	245.0	1
3.0.1	2019_Mar_06_1602	s	s	3	4	SIC	223	1_4	1	4	2	3	23_2_3	1	1	1	0	0.652055978775	182.0	127.0	183.0	131.0	1
3.0.1	2019_Mar_06_1602	s	s	3	4	SIC	224	ABS	0	0	3	3	24_3_3	NA	NA	0	1	1.30999302864	None	None	None	None	1
3.0.1	2019_Mar_06_1602	s	s	3	4	SIC	225	ABS	0	0	1	4	24_1_4	NA	NA	0	1	0.784925937653	None	None	None	None	1
3.0.1	2019_Mar_06_1602	s	s	3	4	SIC	226	ABS	0	0	4	2	24_4_2	NA	NA	0	1	0.857918977737	None	None	None	None	1
3.0.1	2019_Mar_06_1602	s	s	3	4	SIC	227	ABS	0	0	4	2	24_4_2	NA	NA	0	1	1.67756581306	None	None	None	None	1
3.0.1	2019_Mar_06_1602	s	s	3	4	SIC	228	ABS	0	0	3	2	24_3_2	NA	NA	0	1	1.48560404778	None	None	None	None	1
3.0.1	2019_Mar_06_1602	s	s	3	4	SIC	229	ABS	0	0	2	1	24_2_1	NA	NA	0	1	1.20388507843	None	None	None	None	1
3.0.1	2019_Mar_06_1602	s	s	3	4	SIC	230	4_2	4	2	3	2	23_3_2	1	0	1	0	0.603905200958	58.0	363.0	58.0	354.0	1
3.0.1	2019_Mar_06_1602	s	s	3	4	SIC	231	ABS	0	0	2	2	24_2_2	NA	NA	0	1	2.05760979652	None	None	None	None	1
3.0.1	2019_Mar_06_1602	s	s	3	4	SIC	232	ABS	0	0	1	4	24_1_4	NA	NA	0	1	0.681725978851	None	None	None	None	1
3.0.1	2019_Mar_06_1602	s	s	3	4	SIC	233	ABS	0	0	4	1	24_4_1	NA	NA	0	1	0.505182027817	None	None	None	None	1
3.0.1	2019_Mar_06_1602	s	s	3	4	SIC	234	ABS	0	0	1	4	24_1_4	NA	NA	0	1	0.797176122665	None	None	None	None	1
3.0.1	2019_Mar_06_1602	s	s	3	4	SIC	235	ABS	0	0	2	1	24_2_1	NA	NA	0	1	0.972291946411	None	None	None	None	1
3.0.1	2019_Mar_06_1602	s	s	3	4	SIC	236	3_3	3	3	1	4	23_1_4	2	-1	1	0	0.723155975342	-376.0	62.0	-379.0	51.0	1
3.0.1	2019_Mar_06_1602	s	s	3	4	SIC	237	3_1	3	1	1	3	23_1_3	2	2	1	0	0.486863136292	-319.0	-1.0	-309.0	-1.0	1
3.0.1	2019_Mar_06_1602	s	s	3	4	SIC	238	ABS	0	0	4	4	24_4_4	NA	NA	0	1	0.533048152924	None	None	None	None	1
3.0.1	2019_Mar_06_1602	s	s	3	4	SIC	239	ABS	0	0	4	1	24_4_1	NA	NA	0	1	1.05783891678	None	None	None	None	1
3.0.1	2019_Mar_06_1602	s	s	3	4	SIC	240	2_4	2	4	4	4	23_4_4	2	0	1	0	0.378565073013	-130.0	178.0	-130.0	167.0	1
3.0.1	2019_Mar_06_1602	s	s	3	4	SIC	241	3_4	3	4	4	3	23_4_3	-1	1	1	0	0.623085975647	-376.0	-95.0	-385.0	-93.0	1
3.0.1	2019_Mar_06_1602	s	s	3	4	SIC	242	ABS	0	0	3	3	24_3_3	NA	NA	0	1	0.79026389122	None	None	None	None	1
3.0.1	2019_Mar_06_1602	s	s	3	4	SIC	243	ABS	0	0	2	2	24_2_2	NA	NA	0	1	0.869608879089	None	None	None	None	1
3.0.1	2019_Mar_06_1602	s	s	3	4	SIC	244	ABS	0	0	2	2	24_2_2	NA	NA	0	1	0.705418109894	None	None	None	None	1
3.0.1	2019_Mar_06_1602	s	s	3	4	SIC	245	4_4	4	4	1	4	23_1_4	3	0	1	0	0.441741943359	160.0	-296.0	166.0	-303.0	1
3.0.1	2019_Mar_06_1602	s	s	3	4	SIC	246	2_1	2	1	2	3	23_2_3	0	2	1	0	1.13349604607	-337.0	-50.0	-332.0	-44.0	1
3.0.1	2019_Mar_06_1602	s	s	3	4	SIC	247	ABS	0	0	4	4	24_4_4	NA	NA	0	1	0.710100889206	None	None	None	None	1
3.0.1	2019_Mar_06_1602	s	s	3	4	SIC	248	3_3	3	3	1	3	23_1_3	2	0	1	0	0.533605098724	-23.0	-254.0	-15.0	-252.0	1
3.0.1	2019_Mar_06_1602	s	s	3	4	SIC	249	3_3	3	3	4	4	23_4_4	-1	-1	1	0	0.404336929321	148.0	222.0	142.0	222.0	1
3.0.1	2019_Mar_06_1602	s	s	3	4	SIC	250	ABS	0	0	4	3	24_4_3	NA	NA	0	1	1.19210600853	None	None	None	None	1
3.0.1	2019_Mar_06_1602	s	s	3	4	SIC	251	4_4	4	4	2	2	23_2_2	2	2	1	0	0.386172056198	85.0	-229.0	92.0	-230.0	1
3.0.1	2019_Mar_06_1602	s	s	3	4	SIC	252	3_2	3	2	1	1	23_1_1	2	-1	1	0	0.462224006653	-415.0	167.0	-414.0	170.0	1
3.0.1	2019_Mar_06_1602	s	s	3	4	SIC	253	3_3	3	3	4	1	23_4_1	-1	2	1	0	0.356476068497	-73.0	21.0	-76.0	14.0	1
3.0.1	2019_Mar_06_1602	s	s	3	4	SIC	254	ABS	0	0	4	2	24_4_2	NA	NA	0	1	0.62264084816	None	None	None	None	1
3.0.1	2019_Mar_06_1602	s	s	3	4	SIC	255	ABS	0	0	3	2	24_3_2	NA	NA	0	1	0.646111011505	None	None	None	None	1
3.0.1	2019_Mar_06_1602	s	s	3	4	SIC	256	ABS	0	0	3	4	24_3_4	NA	NA	0	1	0.869656085968	None	None	None	None	1
3.0.1	2019_Mar_06_1602	s	s	3	4	SIC	257	ABS	0	0	4	2	24_4_2	NA	NA	0	1	0.46129488945	None	None	None	None	1
3.0.1	2019_Mar_06_1602	s	s	3	4	SIC	258	4_2	4	2	3	1	23_3_1	1	-1	1	0	0.437417030334	296.0	85.0	298.0	84.0	1
3.0.1	2019_Mar_06_1602	s	s	3	4	SIC	259	4_1	4	1	2	3	23_2_3	2	2	1	0	0.352169036865	76.0	10.0	74.0	10.0	1
3.0.1	2019_Mar_06_1602	s	s	3	4	SIC	260	ABS	0	0	2	4	24_2_4	NA	NA	0	1	0.898020029068	None	None	None	None	1
3.0.1	2019_Mar_06_1602	s	s	3	4	SIC	261	2_1	2	1	2	2	23_2_2	0	1	1	0	0.921847105026	-20.0	-43.0	200.0	-31.0	0
3.0.1	2019_Mar_06_1602	s	s	3	4	SIC	262	ABS	0	0	3	1	24_3_1	NA	NA	0	1	0.704995155334	None	None	None	None	1
3.0.1	2019_Mar_06_1602	s	s	3	4	SIC	263	2_2	2	2	4	2	23_4_2	2	0	1	0	0.422830820084	23.0	-269.0	22.0	-267.0	1
3.0.1	2019_Mar_06_1602	s	s	3	4	SIC	264	1_3	1	3	2	2	23_2_2	1	1	1	0	0.638851881027	299.0	-351.0	94.0	-68.0	0
3.0.1	2019_Mar_06_1602	s	s	3	4	SIC	265	ABS	0	0	2	4	24_2_4	NA	NA	0	1	2.78975296021	None	None	None	None	1
3.0.1	2019_Mar_06_1602	s	s	3	4	SIC	266	2_2	2	2	3	3	23_3_3	1	1	1	0	0.704989910126	-321.0	-268.0	-318.0	-263.0	1
3.0.1	2019_Mar_06_1602	s	s	3	4	SIC	267	4_2	4	2	2	2	23_2_2	2	0	1	0	0.452188968658	-307.0	-378.0	-313.0	-379.0	1
3.0.1	2019_Mar_06_1602	s	s	3	4	SIC	268	3_4	3	4	3	1	23_3_1	0	3	1	0	0.775538921356	-422.0	313.0	-424.0	316.0	1
3.0.1	2019_Mar_06_1602	s	s	3	4	SIC	269	2_3	2	3	3	1	23_3_1	1	2	1	0	0.496204137802	-390.0	-118.0	-398.0	-120.0	1
3.0.1	2019_Mar_06_1602	s	s	3	4	SIC	270	ABS	0	0	1	2	24_1_2	NA	NA	0	1	1.3753118515	None	None	None	None	1
3.0.1	2019_Mar_06_1602	s	s	3	4	SIC	271	4_1	4	1	2	2	23_2_2	2	1	1	0	0.528614997864	186.0	399.0	193.0	403.0	1
3.0.1	2019_Mar_06_1602	s	s	3	4	SIC	272	4_2	4	2	2	3	23_2_3	2	1	1	0	0.340342998505	187.0	-401.0	188.0	-404.0	1
3.0.1	2019_Mar_06_1602	s	s	3	4	SIC	273	2_4	2	4	3	4	23_3_4	1	0	1	0	0.90781378746	-259.0	160.0	-258.0	159.0	1
3.0.1	2019_Mar_06_1602	s	s	3	4	SIC	274	3_1	3	1	4	3	23_4_3	-1	2	1	0	0.658000946045	-290.0	228.0	-290.0	224.0	1
3.0.1	2019_Mar_06_1602	s	s	3	4	SIC	275	2_1	2	1	4	2	23_4_2	2	1	1	0	0.368556022644	-275.0	-151.0	-284.0	-148.0	1
3.0.1	2019_Mar_06_1602	s	s	3	4	SIC	276	ABS	0	0	1	2	24_1_2	NA	NA	0	1	1.24051594734	None	None	None	None	1
3.0.1	2019_Mar_06_1602	s	s	3	4	SIC	277	4_3	4	3	3	2	23_3_2	1	1	1	0	0.469713926315	466.0	-35.0	476.0	-30.0	1
3.0.1	2019_Mar_06_1602	s	s	3	4	SIC	278	ABS	0	0	3	3	24_3_3	NA	NA	0	1	1.52861690521	None	None	None	None	1
3.0.1	2019_Mar_06_1602	s	s	3	4	SIC	279	3_3	3	3	2	1	23_2_1	1	2	1	0	0.782119035721	-463.0	-372.0	-459.0	-371.0	1
3.0.1	2019_Mar_06_1602	s	s	3	4	SIC	280	ABS	0	0	1	2	24_1_2	NA	NA	0	1	1.28126597404	None	None	None	None	1
3.0.1	2019_Mar_06_1602	s	s	3	4	SIC	281	1_1	1	1	2	4	23_2_4	1	3	1	0	0.599259853363	536.0	305.0	538.0	310.0	1
3.0.1	2019_Mar_06_1602	s	s	3	4	SIC	282	1_4	1	4	4	4	23_4_4	3	0	1	0	0.357279062271	95.0	244.0	87.0	244.0	1
3.0.1	2019_Mar_06_1602	s	s	3	4	SIC	283	3_2	3	2	1	2	23_1_2	2	0	1	0	0.528527975082	334.0	309.0	337.0	307.0	1
3.0.1	2019_Mar_06_1602	s	s	3	4	SIC	284	2_1	2	1	3	1	23_3_1	1	0	1	0	0.378558158875	321.0	75.0	323.0	74.0	1
3.0.1	2019_Mar_06_1602	s	s	3	4	SIC	285	2_3	2	3	3	2	23_3_2	1	1	1	0	0.559926986694	225.0	-285.0	231.0	-283.0	1
3.0.1	2019_Mar_06_1602	s	s	3	4	SIC	286	ABS	0	0	3	1	24_3_1	NA	NA	0	1	1.00475788116	None	None	None	None	1
3.0.1	2019_Mar_06_1602	s	s	3	4	SIC	287	ABS	0	0	4	1	24_4_1	NA	NA	0	1	0.716789960861	None	None	None	None	1
3.0.1	2019_Mar_06_1602	s	s	3	4	SIC	288	ABS	0	0	1	2	24_1_2	NA	NA	0	1	2.03396606445	None	None	None	None	1
3.0.1	2019_Mar_06_1602	s	s	3	4	SIC	289	ABS	0	0	3	2	24_3_2	NA	NA	0	1	1.48412084579	None	None	None	None	1
3.0.1	2019_Mar_06_1602	s	s	3	4	SIC	290	ABS	0	0	1	1	24_1_1	NA	NA	0	1	0.869601011276	None	None	None	None	1
3.0.1	2019_Mar_06_1602	s	s	3	4	SIC	291	ABS	0	0	3	1	24_3_1	NA	NA	0	1	1.16897010803	None	None	None	None	1
3.0.1	2019_Mar_06_1602	s	s	3	4	SIC	292	ABS	0	0	2	2	24_2_2	NA	NA	0	1	1.41592001915	None	None	None	None	1
3.0.1	2019_Mar_06_1602	s	s	3	4	SIC	293	ABS	0	0	4	4	24_4_4	NA	NA	0	1	0.850026130676	None	None	None	None	1
3.0.1	2019_Mar_06_1602	s	s	3	4	SIC	294	2_4	2	4	2	1	23_2_1	0	3	1	0	0.555120944977	-65.0	335.0	-61.0	331.0	1
3.0.1	2019_Mar_06_1602	s	s	3	4	SIC	295	4_3	4	3	3	3	23_3_3	1	0	1	0	0.333042860031	-277.0	-293.0	-285.0	-290.0	1
3.0.1	2019_Mar_06_1602	s	s	3	4	SIC	296	2_1	2	1	1	1	23_1_1	-1	0	0	1	0.672624111176	220.0	-346.0	None	None	0
3.0.1	2019_Mar_06_1602	s	s	3	4	SIC	297	ABS	0	0	4	1	24_4_1	NA	NA	0	1	0.722836971283	None	None	None	None	1
3.0.1	2019_Mar_06_1602	s	s	3	4	SIC	298	2_4	2	4	2	2	23_2_2	0	2	1	0	0.404053926468	290.0	-37.0	293.0	-39.0	1
3.0.1	2019_Mar_06_1602	s	s	3	4	SIC	299	ABS	0	0	2	1	24_2_1	NA	NA	0	1	0.842971086502	None	None	None	None	1
3.0.1	2019_Mar_06_1602	s	s	3	4	SIC	300	1_2	1	2	2	4	23_2_4	1	2	1	0	0.599102020264	99.0	-269.0	111.0	-266.0	1
3.0.1	2019_Mar_06_1602	s	s	3	4	SIC	301	ABS	0	0	2	1	24_2_1	NA	NA	0	1	0.968804121017	None	None	None	None	1
3.0.1	2019_Mar_06_1602	s	s	3	4	SIC	302	4_2	4	2	1	4	23_1_4	3	2	1	0	0.422734022141	-517.0	102.0	-521.0	96.0	1
3.0.1	2019_Mar_06_1602	s	s	3	4	SIC	303	4_4	4	4	2	4	23_2_4	2	0	1	0	0.357029914856	476.0	91.0	477.0	88.0	1
3.0.1	2019_Mar_06_1602	s	s	3	4	SIC	304	3_4	3	4	2	1	23_2_1	1	3	1	0	0.481534004211	-28.0	363.0	-22.0	359.0	1
3.0.1	2019_Mar_06_1602	s	s	3	4	SIC	305	ABS	0	0	4	2	24_4_2	NA	NA	0	1	1.74505996704	None	None	None	None	1
3.0.1	2019_Mar_06_1602	s	s	3	4	SIC	306	4_1	4	1	4	4	23_4_4	0	3	1	0	0.528468132019	-123.0	410.0	-117.0	402.0	1
3.0.1	2019_Mar_06_1602	s	s	3	4	SIC	307	2_2	2	2	4	1	23_4_1	2	-1	1	0	0.378614902496	249.0	-165.0	246.0	-175.0	1
3.0.1	2019_Mar_06_1602	s	s	3	4	SIC	308	ABS	0	0	2	2	24_2_2	NA	NA	0	1	1.56961989403	None	None	None	None	1
3.0.1	2019_Mar_06_1602	s	s	3	4	SIC	309	1_1	1	1	4	4	23_4_4	3	3	1	0	0.446200847626	-354.0	-12.0	-353.0	-10.0	1
3.0.1	2019_Mar_06_1602	s	s	3	4	SIC	310	ABS	0	0	4	3	24_4_3	NA	NA	0	1	1.13352203369	None	None	None	None	1
3.0.1	2019_Mar_06_1602	s	s	3	4	SIC	311	ABS	0	0	3	2	24_3_2	NA	NA	0	1	1.02547287941	None	None	None	None	1
3.0.1	2019_Mar_06_1602	s	s	3	4	SIC	312	2_4	2	4	1	2	23_1_2	-1	2	1	0	0.555011034012	-18.0	-146.0	-19.0	-138.0	1
3.0.1	2019_Mar_06_1602	s	s	3	4	SIC	313	ABS	0	0	3	2	24_3_2	NA	NA	0	1	2.16340398788	None	None	None	None	1
3.0.1	2019_Mar_06_1602	s	s	3	4	SIC	314	2_1	2	1	4	1	23_4_1	2	0	1	0	0.446296930313	-53.0	310.0	-61.0	315.0	1
3.0.1	2019_Mar_06_1602	s	s	3	4	SIC	315	ABS	0	0	1	2	24_1_2	NA	NA	0	1	1.78172707558	None	None	None	None	1
3.0.1	2019_Mar_06_1602	s	s	3	4	SIC	316	ABS	0	0	2	3	24_2_3	NA	NA	0	1	1.30483603477	None	None	None	None	1
3.0.1	2019_Mar_06_1602	s	s	3	4	SIC	317	ABS	0	0	4	1	24_4_1	NA	NA	0	1	0.76846909523	None	None	None	None	1
3.0.1	2019_Mar_06_1602	s	s	3	4	SIC	318	ABS	0	0	4	2	24_4_2	NA	NA	0	1	0.775532960892	None	None	None	None	1
3.0.1	2019_Mar_06_1602	s	s	3	4	SIC	319	1_1	1	1	2	2	23_2_2	1	1	0	1	1.52827095985	-496.0	47.0	None	None	0
3.0.1	2019_Mar_06_1602	s	s	3	4	SIC	320	ABS	0	0	2	1	24_2_1	NA	NA	0	1	1.32829594612	None	None	None	None	1
3.0.1	2019_Mar_06_1602	s	s	3	4	SIC	321	ABS	0	0	2	4	24_2_4	NA	NA	0	1	0.722523927689	None	None	None	None	1
3.0.1	2019_Mar_06_1602	s	s	3	4	SIC	322	2_3	2	3	4	2	23_4_2	2	1	0	1	1.38478398323	-388.0	-92.0	None	None	0
3.0.1	2019_Mar_06_1602	s	s	3	4	SIC	323	3_2	3	2	4	4	23_4_4	-1	2	1	0	1.02644991875	446.0	257.0	443.0	255.0	1
3.0.1	2019_Mar_06_1602	s	s	3	4	SIC	324	ABS	0	0	3	4	24_3_4	NA	NA	0	1	0.803264856339	None	None	None	None	1
3.0.1	2019_Mar_06_1602	s	s	3	4	SIC	325	ABS	0	0	4	3	24_4_3	NA	NA	0	1	0.908242940903	None	None	None	None	1
3.0.1	2019_Mar_06_1602	s	s	3	4	SIC	326	ABS	0	0	2	4	24_2_4	NA	NA	0	1	1.02542710304	None	None	None	None	1
3.0.1	2019_Mar_06_1602	s	s	3	4	SIC	327	2_4	2	4	3	2	23_3_2	1	2	1	0	1.39228200912	-528.0	-327.0	-526.0	-331.0	1
3.0.1	2019_Mar_06_1602	s	s	3	4	SIC	328	1_2	1	2	2	1	23_2_1	1	-1	0	1	0.975461959839	-409.0	346.0	None	None	0
3.0.1	2019_Mar_06_1602	s	s	3	4	SIC	329	ABS	0	0	1	4	24_1_4	NA	NA	0	1	0.897109031677	None	None	None	None	1
3.0.1	2019_Mar_06_1602	s	s	3	4	SIC	330	4_2	4	2	2	4	23_2_4	2	2	1	0	0.457937955856	433.0	-160.0	443.0	-151.0	1
3.0.1	2019_Mar_06_1602	s	s	3	4	SIC	331	3_4	3	4	3	3	23_3_3	0	1	1	0	0.634459972382	189.0	193.0	196.0	196.0	1
3.0.1	2019_Mar_06_1602	s	s	3	4	SIC	332	1_2	1	2	4	2	23_4_2	3	0	1	0	0.387480974197	378.0	-106.0	377.0	-107.0	1
3.0.1	2019_Mar_06_1602	s	s	3	4	SIC	333	ABS	0	0	1	2	24_1_2	NA	NA	0	1	0.909485816956	None	None	None	None	1
3.0.1	2019_Mar_06_1602	s	s	3	4	SIC	334	ABS	0	0	3	1	24_3_1	NA	NA	0	1	0.752012968063	None	None	None	None	1
3.0.1	2019_Mar_06_1602	s	s	3	4	SIC	335	ABS	0	0	3	3	24_3_3	NA	NA	0	1	1.40382909775	None	None	None	None	1
3.0.1	2019_Mar_06_1602	s	s	3	4	SIC	336	3_1	3	1	3	3	23_3_3	0	2	1	0	0.693317174911	225.0	330.0	222.0	334.0	1
3.0.1	2019_Mar_06_1602	s	s	3	4	SIC	337	4_3	4	3	4	4	23_4_4	0	-1	1	0	0.498208999634	144.0	289.0	148.0	298.0	1
3.0.1	2019_Mar_06_1602	s	s	3	4	SIC	338	ABS	0	0	3	3	24_3_3	NA	NA	0	1	1.55181097984	None	None	None	None	1
3.0.1	2019_Mar_06_1602	s	s	3	4	SIC	339	3_2	3	2	4	2	23_4_2	-1	0	1	0	0.429258108139	-150.0	-369.0	-153.0	-364.0	1
3.0.1	2019_Mar_06_1602	s	s	3	4	SIC	340	ABS	0	0	3	1	24_3_1	NA	NA	0	1	0.921576023102	None	None	None	None	1
3.0.1	2019_Mar_06_1602	s	s	3	4	SIC	341	2_2	2	2	3	4	23_3_4	1	2	1	0	0.411404848099	265.0	-279.0	261.0	-270.0	1
3.0.1	2019_Mar_06_1602	s	s	3	4	SIC	342	ABS	0	0	4	4	24_4_4	NA	NA	0	1	0.796005964279	None	None	None	None	1
3.0.1	2019_Mar_06_1602	s	s	3	4	SIC	343	ABS	0	0	2	2	24_2_2	NA	NA	0	1	0.817100048065	None	None	None	None	1
3.0.1	2019_Mar_06_1602	s	s	3	4	SIC	344	2_2	2	2	1	1	23_1_1	-1	-1	0	1	0.870141983032	382.0	-82.0	None	None	0
3.0.1	2019_Mar_06_1602	s	s	3	4	SIC	345	ABS	0	0	2	2	24_2_2	NA	NA	0	1	0.993022918701	None	None	None	None	1
3.0.1	2019_Mar_06_1602	s	s	3	4	SIC	346	2_3	2	3	2	1	23_2_1	0	2	1	0	1.2734439373	-456.0	301.0	-464.0	309.0	1
3.0.1	2019_Mar_06_1602	s	s	3	4	SIC	347	ABS	0	0	2	3	24_2_3	NA	NA	0	1	1.49044299126	None	None	None	None	1
3.0.1	2019_Mar_06_1602	s	s	3	4	SIC	348	ABS	0	0	4	1	24_4_1	NA	NA	0	1	0.688248157501	None	None	None	None	1
3.0.1	2019_Mar_06_1602	s	s	3	4	SIC	349	ABS	0	0	1	3	24_1_3	NA	NA	0	1	0.849042892456	None	None	None	None	1
3.0.1	2019_Mar_06_1602	s	s	3	4	SIC	350	ABS	0	0	2	3	24_2_3	NA	NA	0	1	0.940189838409	None	None	None	None	1
3.0.1	2019_Mar_06_1602	s	s	3	4	SIC	351	ABS	0	0	3	2	24_3_2	NA	NA	0	1	1.42244100571	None	None	None	None	1
3.0.1	2019_Mar_06_1602	s	s	3	4	SIC	352	ABS	0	0	3	1	24_3_1	NA	NA	0	1	1.11663103104	None	None	None	None	1
3.0.1	2019_Mar_06_1602	s	s	3	4	SIC	353	ABS	0	0	4	4	24_4_4	NA	NA	0	1	0.575790882111	None	None	None	None	1
3.0.1	2019_Mar_06_1602	s	s	3	4	SIC	354	4_3	4	3	2	4	23_2_4	2	-1	1	0	0.458060026169	-270.0	-394.0	-265.0	-396.0	1
3.0.1	2019_Mar_06_1602	s	s	3	4	SIC	355	4_4	4	4	4	2	23_4_2	0	2	1	0	0.686676025391	111.0	-256.0	120.0	-254.0	1
3.0.1	2019_Mar_06_1602	s	s	3	4	SIC	356	2_2	2	2	3	1	23_3_1	1	-1	1	0	0.951969861984	-85.0	-405.0	-74.0	-404.0	1
3.0.1	2019_Mar_06_1602	s	s	3	4	SIC	357	4_1	4	1	2	1	23_2_1	2	0	1	0	0.416095972061	166.0	-146.0	172.0	-145.0	1
3.0.1	2019_Mar_06_1602	s	s	3	4	SIC	358	ABS	0	0	1	4	24_1_4	NA	NA	0	1	0.795501947403	None	None	None	None	1
3.0.1	2019_Mar_06_1602	s	s	3	4	SIC	359	ABS	0	0	2	1	24_2_1	NA	NA	0	1	0.810810089111	None	None	None	None	1
3.0.1	2019_Mar_06_1602	s	s	3	4	SIC	360	2_4	2	4	3	3	23_3_3	1	1	1	0	0.613812923431	-349.0	197.0	-345.0	201.0	1
3.0.1	2019_Mar_06_1602	s	s	3	4	SIC	361	ABS	0	0	4	1	24_4_1	NA	NA	0	1	0.650234937668	None	None	None	None	1
3.0.1	2019_Mar_06_1602	s	s	3	4	SIC	362	ABS	0	0	1	2	24_1_2	NA	NA	0	1	1.76723384857	None	None	None	None	1
3.0.1	2019_Mar_06_1602	s	s	3	4	SIC	363	ABS	0	0	4	3	24_4_3	NA	NA	0	1	1.82231378555	None	None	None	None	1
3.0.1	2019_Mar_06_1602	s	s	3	4	SIC	364	ABS	0	0	3	3	24_3_3	NA	NA	0	1	1.91639518738	None	None	None	None	1
3.0.1	2019_Mar_06_1602	s	s	3	4	SIC	365	3_1	3	1	3	2	23_3_2	0	1	0	1	2.46913003922	-55.0	-241.0	None	None	0
3.0.1	2019_Mar_06_1602	s	s	3	4	SIC	366	ABS	0	0	3	3	24_3_3	NA	NA	0	1	1.45411515236	None	None	None	None	1
3.0.1	2019_Mar_06_1602	s	s	3	4	SIC	367	ABS	0	0	4	2	24_4_2	NA	NA	0	1	1.20722603798	None	None	None	None	1
3.0.1	2019_Mar_06_1602	s	s	3	4	SIC	368	2_1	2	1	3	3	23_3_3	1	2	1	0	0.85001206398	-495.0	101.0	-500.0	100.0	1
3.0.1	2019_Mar_06_1602	s	s	3	4	SIC	369	2_2	2	2	4	4	23_4_4	2	2	1	0	0.554989814758	-300.0	-172.0	-296.0	-170.0	1
3.0.1	2019_Mar_06_1602	s	s	3	4	SIC	370	ABS	0	0	3	1	24_3_1	NA	NA	0	1	0.971378803253	None	None	None	None	1
3.0.1	2019_Mar_06_1602	s	s	3	4	SIC	371	ABS	0	0	1	3	24_1_3	NA	NA	0	1	1.73991799355	None	None	None	None	1
3.0.1	2019_Mar_06_1602	s	s	3	4	SIC	372	1_4	1	4	4	1	23_4_1	3	3	1	0	0.579300880432	-77.0	289.0	-68.0	293.0	1
3.0.1	2019_Mar_06_1602	s	s	3	4	SIC	373	3_4	3	4	3	2	23_3_2	0	2	1	0	0.658014059067	97.0	-22.0	98.0	-23.0	1
3.0.1	2019_Mar_06_1602	s	s	3	4	SIC	374	ABS	0	0	3	4	24_3_4	NA	NA	0	1	1.12103700638	None	None	None	None	1
3.0.1	2019_Mar_06_1602	s	s	3	4	SIC	375	4_2	4	2	3	4	23_3_4	1	2	1	0	0.481863021851	-42.0	-255.0	-33.0	-250.0	1
3.0.1	2019_Mar_06_1602	s	s	3	4	SIC	376	1_4	1	4	1	1	23_1_1	0	3	1	0	0.521537065506	74.0	-328.0	76.0	-323.0	1
3.0.1	2019_Mar_06_1602	s	s	3	4	SIC	377	ABS	0	0	1	2	24_1_2	NA	NA	0	1	1.29830002785	None	None	None	None	1
3.0.1	2019_Mar_06_1602	s	s	3	4	SIC	378	ABS	0	0	4	3	24_4_3	NA	NA	0	1	1.03454995155	None	None	None	None	1
3.0.1	2019_Mar_06_1602	s	s	3	4	SIC	379	ABS	0	0	2	4	24_2_4	NA	NA	0	1	1.14859890938	None	None	None	None	1
3.0.1	2019_Mar_06_1602	s	s	3	4	SIC	380	4_3	4	3	3	1	23_3_1	1	2	1	0	0.422722816467	-219.0	-16.0	-217.0	-17.0	1
3.0.1	2019_Mar_06_1602	s	s	3	4	SIC	381	ABS	0	0	4	3	24_4_3	NA	NA	0	1	1.75172996521	None	None	None	None	1
3.0.1	2019_Mar_06_1602	s	s	3	4	SIC	382	3_4	3	4	4	4	23_4_4	-1	0	1	0	0.446516990662	500.0	70.0	501.0	66.0	1
3.0.1	2019_Mar_06_1602	s	s	3	4	SIC	383	ABS	0	0	1	2	24_1_2	NA	NA	0	1	1.13459086418	None	None	None	None	1
3.0.1	2019_Mar_06_1602	s	s	3	4	SIC	384	4_3	4	3	1	1	23_1_1	3	2	1	0	0.621039867401	386.0	-373.0	397.0	-368.0	1
3.0.1	2019_Mar_06_1602	s	s	3	4	SIC	385	ABS	0	0	1	2	24_1_2	NA	NA	0	1	1.21618294716	None	None	None	None	1
3.0.1	2019_Mar_06_1602	s	s	3	4	SIC	386	ABS	0	0	1	1	24_1_1	NA	NA	0	1	1.42736983299	None	None	None	None	1
3.0.1	2019_Mar_06_1602	s	s	3	4	SIC	387	4_4	4	4	4	1	23_4_1	0	3	0	1	0.434980154037	252.0	37.0	None	None	0
3.0.1	2019_Mar_06_1602	s	s	3	4	SIC	388	ABS	0	0	1	4	24_1_4	NA	NA	0	1	1.54004001617	None	None	None	None	1
3.0.1	2019_Mar_06_1602	s	s	3	4	SIC	389	ABS	0	0	2	4	24_2_4	NA	NA	0	1	1.05792307854	None	None	None	None	1
3.0.1	2019_Mar_06_1602	s	s	3	4	SIC	390	4_4	4	4	1	3	23_1_3	3	1	1	0	0.39918589592	403.0	-122.0	412.0	-113.0	1
3.0.1	2019_Mar_06_1602	s	s	3	4	SIC	391	ABS	0	0	1	4	24_1_4	NA	NA	0	1	0.968665838242	None	None	None	None	1
3.0.1	2019_Mar_06_1602	s	s	3	4	SIC	392	ABS	0	0	3	4	24_3_4	NA	NA	1	0	0.375682115555	None	None	58.0	-17.0	0
3.0.1	2019_Mar_06_1602	s	s	3	4	SIC	393	ABS	0	0	3	4	24_3_4	NA	NA	0	1	0.672860145569	None	None	None	None	1
3.0.1	2019_Mar_06_1602	s	s	3	4	SIC	394	ABS	0	0	3	4	24_3_4	NA	NA	0	1	0.822656869888	None	None	None	None	1
3.0.1	2019_Mar_06_1602	s	s	3	4	SIC	395	ABS	0	0	1	4	24_1_4	NA	NA	0	1	0.893220901489	None	None	None	None	1
3.0.1	2019_Mar_06_1602	s	s	3	4	SIC	396	ABS	0	0	2	4	24_2_4	NA	NA	0	1	0.834462165833	None	None	None	None	1
3.0.1	2019_Mar_06_1602	s	s	3	4	SIC	397	2_1	2	1	1	4	23_1_4	-1	3	1	0	0.481523990631	-159.0	-71.0	-163.0	-61.0	1
3.0.1	2019_Mar_06_1602	s	s	3	4	SIC	398	ABS	0	0	2	2	24_2_2	NA	NA	0	1	1.9617600441	None	None	None	None	1
3.0.1	2019_Mar_06_1602	s	s	3	4	SIC	399	ABS	0	0	4	1	24_4_1	NA	NA	0	1	1.10494399071	None	None	None	None	1
3.0.1	2019_Mar_06_1602	s	s	3	4	SIC	400	4_4	4	4	3	1	23_3_1	1	3	1	0	0.544996976852	-430.0	375.0	-423.0	375.0	1
3.0.1	2019_Mar_06_1602	s	s	3	4	SIC	401	ABS	0	0	1	1	24_1_1	NA	NA	0	1	1.54675984383	None	None	None	None	1
3.0.1	2019_Mar_06_1602	s	s	3	4	SIC	402	ABS	0	0	4	1	24_4_1	NA	NA	0	1	1.2460398674	None	None	None	None	1
3.0.1	2019_Mar_06_1602	s	s	3	4	SIC	403	3_2	3	2	4	1	23_4_1	-1	-1	1	0	0.481574058533	329.0	131.0	328.0	137.0	1
3.0.1	2019_Mar_06_1602	s	s	3	4	SIC	404	3_2	3	2	2	2	23_2_2	1	0	1	0	0.540328979492	383.0	267.0	389.0	264.0	1
3.0.1	2019_Mar_06_1602	s	s	3	4	SIC	405	ABS	0	0	2	4	24_2_4	NA	NA	0	1	0.869674921036	None	None	None	None	1
3.0.1	2019_Mar_06_1602	s	s	3	4	SIC	406	3_2	3	2	3	1	23_3_1	0	-1	0	1	0.987222909927	-495.0	11.0	None	None	0
3.0.1	2019_Mar_06_1602	s	s	3	4	SIC	407	4_2	4	2	1	2	23_1_2	3	0	1	0	0.399286031723	186.0	-151.0	182.0	-154.0	1
3.0.1	2019_Mar_06_1602	s	s	3	4	SIC	408	ABS	0	0	3	4	24_3_4	NA	NA	0	1	0.672739028931	None	None	None	None	1
3.0.1	2019_Mar_06_1602	s	s	3	4	SIC	409	ABS	0	0	2	1	24_2_1	NA	NA	0	1	0.652677059174	None	None	None	None	1
3.0.1	2019_Mar_06_1602	s	s	3	4	SIC	410	2_1	2	1	4	3	23_4_3	2	2	1	0	0.540309906006	-235.0	43.0	-236.0	44.0	1
3.0.1	2019_Mar_06_1602	s	s	3	4	SIC	411	ABS	0	0	1	4	24_1_4	NA	NA	0	1	1.11658501625	None	None	None	None	1
3.0.1	2019_Mar_06_1602	s	s	3	4	SIC	412	4_4	4	4	3	3	23_3_3	1	1	1	0	0.438370943069	-147.0	-160.0	-152.0	-158.0	1
3.0.1	2019_Mar_06_1602	s	s	3	4	SIC	413	1_2	1	2	4	1	23_4_1	3	-1	1	0	0.422722101212	-19.0	-82.0	-22.0	-77.0	1
3.0.1	2019_Mar_06_1602	s	s	3	4	SIC	414	1_1	1	1	2	1	23_2_1	1	0	1	0	3.06901597977	-293.0	-159.0	-306.0	-152.0	1
3.0.1	2019_Mar_06_1602	s	s	3	4	SIC	415	ABS	0	0	1	1	24_1_1	NA	NA	0	1	0.822616100311	None	None	None	None	1
3.0.1	2019_Mar_06_1602	s	s	3	4	SIC	416	4_1	4	1	1	1	23_1_1	3	0	1	0	0.516805171967	-158.0	239.0	-157.0	242.0	1
3.0.1	2019_Mar_06_1602	s	s	3	4	SIC	417	4_3	4	3	1	3	23_1_3	3	0	1	0	0.533088922501	174.0	-154.0	174.0	-151.0	1
3.0.1	2019_Mar_06_1602	s	s	3	4	SIC	418	ABS	0	0	4	1	24_4_1	NA	NA	0	1	0.693197011948	None	None	None	None	1
3.0.1	2019_Mar_06_1602	s	s	3	4	SIC	419	1_3	1	3	4	3	23_4_3	3	0	1	0	0.528562068939	-187.0	77.0	-180.0	73.0	1
3.0.1	2019_Mar_06_1602	s	s	3	4	SIC	420	1_4	1	4	3	4	23_3_4	2	0	1	0	0.677436828613	-429.0	146.0	-414.0	153.0	1
3.0.1	2019_Mar_06_1602	s	s	3	4	SIC	421	ABS	0	0	3	4	24_3_4	NA	NA	0	1	1.81538200378	None	None	None	None	1
3.0.1	2019_Mar_06_1602	s	s	3	4	SIC	422	3_1	3	1	2	4	23_2_4	1	3	1	0	0.552062034607	514.0	-91.0	516.0	-88.0	1
3.0.1	2019_Mar_06_1602	s	s	3	4	SIC	423	1_1	1	1	3	2	23_3_2	2	1	1	0	0.68439912796	-52.0	57.0	-59.0	61.0	1
3.0.1	2019_Mar_06_1602	s	s	3	4	SIC	424	1_2	1	2	1	3	23_1_3	0	1	0	1	1.54296898842	411.0	-226.0	None	None	0
3.0.1	2019_Mar_06_1602	s	s	3	4	SIC	425	ABS	0	0	1	3	24_1_3	NA	NA	0	1	1.13841915131	None	None	None	None	1
3.0.1	2019_Mar_06_1602	s	s	3	4	SIC	426	4_4	4	4	1	1	23_1_1	3	3	1	0	0.521426200867	-527.0	375.0	-528.0	377.0	1
3.0.1	2019_Mar_06_1602	s	s	3	4	SIC	427	ABS	0	0	1	3	24_1_3	NA	NA	0	1	1.50136709213	None	None	None	None	1
3.0.1	2019_Mar_06_1602	s	s	3	4	SIC	428	ABS	0	0	3	1	24_3_1	NA	NA	0	1	1.11660408974	None	None	None	None	1
3.0.1	2019_Mar_06_1602	s	s	3	4	SIC	429	ABS	0	0	2	2	24_2_2	NA	NA	0	1	1.93995809555	None	None	None	None	1
3.0.1	2019_Mar_06_1602	s	s	3	4	SIC	430	ABS	0	0	3	3	24_3_3	NA	NA	0	1	1.42951798439	None	None	None	None	1
3.0.1	2019_Mar_06_1602	s	s	3	4	SIC	431	ABS	0	0	1	1	24_1_1	NA	NA	0	1	1.3754799366	None	None	None	None	1
3.0.1	2019_Mar_06_1602	s	s	3	4	SIC	432	1_4	1	4	3	1	23_3_1	2	3	1	0	0.678318023682	-363.0	206.0	-362.0	209.0	1
3.0.1	2019_Mar_06_1602	s	s	3	4	SIC	433	ABS	0	0	3	2	24_3_2	NA	NA	0	1	1.75171995163	None	None	None	None	1
3.0.1	2019_Mar_06_1602	s	s	3	4	SIC	434	ABS	0	0	4	2	24_4_2	NA	NA	0	1	1.33316898346	None	None	None	None	1
3.0.1	2019_Mar_06_1602	s	s	3	4	SIC	435	4_1	4	1	3	2	23_3_2	1	1	1	0	0.458014965057	146.0	-93.0	139.0	-98.0	1
3.0.1	2019_Mar_06_1602	s	s	3	4	SIC	436	ABS	0	0	4	4	24_4_4	NA	NA	0	1	1.26805496216	None	None	None	None	1
3.0.1	2019_Mar_06_1602	s	s	3	4	SIC	437	ABS	0	0	1	3	24_1_3	NA	NA	0	1	1.80391097069	None	None	None	None	1
3.0.1	2019_Mar_06_1602	s	s	3	4	SIC	438	3_3	3	3	4	3	23_4_3	-1	0	1	0	0.540368080139	486.0	-284.0	481.0	-282.0	1
3.0.1	2019_Mar_06_1602	s	s	3	4	SIC	439	ABS	0	0	4	3	24_4_3	NA	NA	0	1	1.52820014954	None	None	None	None	1
3.0.1	2019_Mar_06_1602	s	s	3	4	SIC	440	ABS	0	0	4	3	24_4_3	NA	NA	0	1	1.49591207504	None	None	None	None	1
3.0.1	2019_Mar_06_1602	s	s	3	4	SIC	441	1_1	1	1	1	4	23_1_4	0	3	1	0	0.496160984039	-7.0	183.0	-12.0	181.0	1
3.0.1	2019_Mar_06_1602	s	s	3	4	SIC	442	3_3	3	3	3	4	23_3_4	0	-1	1	0	0.799061059952	-366.0	283.0	-378.0	286.0	1
3.0.1	2019_Mar_06_1602	s	s	3	4	SIC	443	ABS	0	0	2	2	24_2_2	NA	NA	0	1	1.93103480339	None	None	None	None	1
3.0.1	2019_Mar_06_1602	s	s	3	4	SIC	444	ABS	0	0	4	3	24_4_3	NA	NA	0	1	1.73878407478	None	None	None	None	1
3.0.1	2019_Mar_06_1602	s	s	3	4	SIC	445	1_4	1	4	3	2	23_3_2	2	2	1	0	0.498450040817	0.0	35.0	0.0	35.0	1
3.0.1	2019_Mar_06_1602	s	s	3	4	SIC	446	2_3	2	3	2	2	23_2_2	0	1	0	1	1.32560300827	-501.0	-282.0	None	None	0
3.0.1	2019_Mar_06_1602	s	s	3	4	SIC	447	1_2	1	2	2	3	23_2_3	1	1	0	1	1.71651315689	-199.0	-394.0	None	None	0
3.0.1	2019_Mar_06_1602	s	s	3	4	SIC	448	3_4	3	4	1	1	23_1_1	2	3	1	0	0.508368968964	284.0	-43.0	284.0	-43.0	1
3.0.1	2019_Mar_06_1602	s	s	3	4	SIC	449	4_1	4	1	1	4	23_1_4	3	3	1	0	0.446204900742	370.0	14.0	367.0	17.0	1
3.0.1	2019_Mar_06_1602	s	s	3	4	SIC	450	2_4	2	4	4	1	23_4_1	2	3	1	0	0.399176120758	507.0	-244.0	514.0	-250.0	1
3.0.1	2019_Mar_06_1602	s	s	3	4	SIC	451	ABS	0	0	1	3	24_1_3	NA	NA	0	1	1.61349201202	None	None	None	None	1
3.0.1	2019_Mar_06_1602	s	s	3	4	SIC	452	3_4	3	4	2	3	23_2_3	1	1	1	0	0.511797904968	71.0	221.0	69.0	218.0	1
3.0.1	2019_Mar_06_1602	s	s	3	4	SIC	453	ABS	0	0	1	3	24_1_3	NA	NA	0	1	1.29303407669	None	None	None	None	1
3.0.1	2019_Mar_06_1602	s	s	3	4	SIC	454	2_3	2	3	3	4	23_3_4	1	-1	1	0	0.587380886078	281.0	19.0	290.0	23.0	1
3.0.1	2019_Mar_06_1602	s	s	3	4	SIC	455	ABS	0	0	1	4	24_1_4	NA	NA	0	1	0.763821840286	None	None	None	None	1
3.0.1	2019_Mar_06_1602	s	s	3	4	SIC	456	ABS	0	0	4	1	24_4_1	NA	NA	0	1	0.613884925842	None	None	None	None	1
3.0.1	2019_Mar_06_1602	s	s	3	4	SIC	457	ABS	0	0	3	2	24_3_2	NA	NA	0	1	1.29958581924	None	None	None	None	1
3.0.1	2019_Mar_06_1602	s	s	3	4	SIC	458	1_3	1	3	4	1	23_4_1	3	2	1	0	0.437340021133	-107.0	67.0	-97.0	72.0	1
3.0.1	2019_Mar_06_1602	s	s	3	4	SIC	459	4_3	4	3	1	2	23_1_2	3	1	1	0	0.532608032227	451.0	-399.0	445.0	-397.0	1
3.0.1	2019_Mar_06_1602	s	s	3	4	SIC	460	ABS	0	0	4	1	24_4_1	NA	NA	0	1	0.681468963623	None	None	None	None	1
3.0.1	2019_Mar_06_1602	s	s	3	4	SIC	461	1_4	1	4	4	3	23_4_3	3	1	1	0	0.434498071671	478.0	104.0	489.0	105.0	1
3.0.1	2019_Mar_06_1602	s	s	3	4	SIC	462	4_1	4	1	4	2	23_4_2	0	1	0	1	0.67008805275	-521.0	47.0	None	None	0
3.0.1	2019_Mar_06_1602	s	s	3	4	SIC	463	4_3	4	3	1	4	23_1_4	3	-1	1	0	0.546423912048	331.0	-308.0	337.0	-312.0	1
3.0.1	2019_Mar_06_1602	s	s	3	4	SIC	464	ABS	0	0	1	3	24_1_3	NA	NA	0	1	1.81047010422	None	None	None	None	1
3.0.1	2019_Mar_06_1602	s	s	3	4	SIC	465	1_3	1	3	4	4	23_4_4	3	-1	1	0	0.555001020432	-92.0	245.0	-90.0	243.0	1
3.0.1	2019_Mar_06_1602	s	s	3	4	SIC	466	ABS	0	0	2	1	24_2_1	NA	NA	0	1	1.15721201897	None	None	None	None	1
3.0.1	2019_Mar_06_1602	s	s	3	4	SIC	467	1_1	1	1	1	3	23_1_3	0	2	1	0	2.13995218277	35.0	-174.0	30.0	-173.0	1
3.0.1	2019_Mar_06_1602	s	s	3	4	SIC	468	1_3	1	3	2	3	23_2_3	1	0	0	1	2.00260877609	-346.0	229.0	None	None	0
3.0.1	2019_Mar_06_1602	s	s	3	4	SIC	469	ABS	0	0	3	2	24_3_2	NA	NA	0	1	1.5753159523	None	None	None	None	1
3.0.1	2019_Mar_06_1602	s	s	3	4	SIC	470	4_4	4	4	3	4	23_3_4	1	0	1	0	0.469759941101	-134.0	-314.0	-138.0	-312.0	1
3.0.1	2019_Mar_06_1602	s	s	3	4	SIC	471	ABS	0	0	2	3	24_2_3	NA	NA	0	1	2.16335606575	None	None	None	None	1
3.0.1	2019_Mar_06_1602	s	s	3	4	SIC	472	ABS	0	0	4	2	24_4_2	NA	NA	0	1	1.4860970974	None	None	None	None	1
3.0.1	2019_Mar_06_1602	s	s	3	4	SIC	473	3_4	3	4	4	1	23_4_1	-1	3	1	0	0.469615936279	250.0	-351.0	248.0	-350.0	1
3.0.1	2019_Mar_06_1602	s	s	3	4	SIC	474	3_3	3	3	1	1	23_1_1	2	2	1	0	1.22764587402	-165.0	52.0	-165.0	49.0	1
3.0.1	2019_Mar_06_1602	s	s	3	4	SIC	475	1_3	1	3	3	4	23_3_4	2	-1	1	0	0.469762086868	-92.0	307.0	-96.0	316.0	1
3.0.1	2019_Mar_06_1602	s	s	3	4	SIC	476	ABS	0	0	3	3	24_3_3	NA	NA	0	1	1.47429990768	None	None	None	None	1
3.0.1	2019_Mar_06_1602	s	s	3	4	SIC	477	2_2	2	2	1	3	23_1_3	-1	1	1	0	0.92852807045	-274.0	12.0	-270.0	17.0	1
3.0.1	2019_Mar_06_1602	s	s	3	4	SIC	478	ABS	0	0	1	2	24_1_2	NA	NA	0	1	1.33142995834	None	None	None	None	1
3.0.1	2019_Mar_06_1602	s	s	3	4	SIC	479	ABS	0	0	1	1	24_1_1	NA	NA	0	1	0.881392002106	None	None	None	None	1
3.0.1	2019_Mar_06_1602	s	s	3	4	SIC	480	4_2	4	2	1	1	23_1_1	3	-1	1	0	0.481574058533	239.0	177.0	236.0	185.0	1
