Version	Date	Stimuli	Method	Subject	Session	Condition	Trial	Target	TColor	TShape	DColor	DShape	Distractors	Channel1	Channel2	LMouseButton	RMouseButton	RT	TargetX	TargetY	ResponseX	ResponseY	Correct
3.0.1	2019_Mar_05_1602	s	s	3	3	Capacity	1	1_4	1	4	1	2	23_1_2	0	2	1	0	0.599159002304	-391.0	-181.0	-385.0	-177.0	1
3.0.1	2019_Mar_05_1602	s	s	3	3	Capacity	2	ABS	0	0	1	1	24_1_1	NA	NA	0	1	1.01119399071	None	None	None	None	1
3.0.1	2019_Mar_05_1602	s	s	3	3	Capacity	3	1_4	1	4	1	1	23_1_1	0	3	1	0	0.657999038696	-529.0	194.0	-528.0	193.0	1
3.0.1	2019_Mar_05_1602	s	s	3	3	Capacity	4	ABS	0	0	1	2	24_1_2	NA	NA	0	1	1.35222101212	None	None	None	None	1
3.0.1	2019_Mar_05_1602	s	s	3	3	Capacity	5	ABS	0	0	1	4	24_1_4	NA	NA	0	1	0.782126903534	None	None	None	None	1
3.0.1	2019_Mar_05_1602	s	s	3	3	Capacity	6	ABS	0	0	1	1	24_1_1	NA	NA	0	1	1.29826211929	None	None	None	None	1
3.0.1	2019_Mar_05_1602	s	s	3	3	Capacity	7	1_2	1	2	1	1	23_1_1	0	-1	0	1	1.12839603424	-364.0	373.0	None	None	0
3.0.1	2019_Mar_05_1602	s	s	3	3	Capacity	8	1_1	1	1	1	3	23_1_3	0	2	1	0	1.48123478889	409.0	-345.0	412.0	-341.0	1
3.0.1	2019_Mar_05_1602	s	s	3	3	Capacity	9	ABS	0	0	1	3	24_1_3	NA	NA	0	1	1.42242884636	None	None	None	None	1
3.0.1	2019_Mar_05_1602	s	s	3	3	Capacity	10	1_2	1	2	1	4	23_1_4	0	2	1	0	0.720565080643	-316.0	346.0	-311.0	353.0	1
3.0.1	2019_Mar_05_1602	s	s	3	3	Capacity	11	ABS	0	0	1	4	24_1_4	NA	NA	0	1	1.19228100777	None	None	None	None	1
3.0.1	2019_Mar_05_1602	s	s	3	3	Capacity	12	1_2	1	2	1	3	23_1_3	0	1	0	1	1.43808484077	-133.0	-358.0	None	None	0
3.0.1	2019_Mar_05_1602	s	s	3	3	Capacity	13	1_3	1	3	1	2	23_1_2	0	1	0	1	1.20188808441	-343.0	-295.0	None	None	0
3.0.1	2019_Mar_05_1602	s	s	3	3	Capacity	14	ABS	0	0	1	2	24_1_2	NA	NA	0	1	1.62241196632	None	None	None	None	1
3.0.1	2019_Mar_05_1602	s	s	3	3	Capacity	15	ABS	0	0	1	2	24_1_2	NA	NA	0	1	1.36657619476	None	None	None	None	1
3.0.1	2019_Mar_05_1602	s	s	3	3	Capacity	16	1_3	1	3	1	1	23_1_1	0	2	1	0	0.822573900223	-308.0	88.0	-306.0	88.0	1
3.0.1	2019_Mar_05_1602	s	s	3	3	Capacity	17	1_4	1	4	1	3	23_1_3	0	1	1	0	0.82310795784	-522.0	222.0	-507.0	228.0	1
3.0.1	2019_Mar_05_1602	s	s	3	3	Capacity	18	ABS	0	0	1	3	24_1_3	NA	NA	0	1	1.69799804688	None	None	None	None	1
3.0.1	2019_Mar_05_1602	s	s	3	3	Capacity	19	1_1	1	1	1	2	23_1_2	0	1	0	1	1.39242100716	107.0	19.0	None	None	0
3.0.1	2019_Mar_05_1602	s	s	3	3	Capacity	20	1_3	1	3	1	4	23_1_4	0	-1	1	0	0.899644851685	-530.0	310.0	-529.0	305.0	1
3.0.1	2019_Mar_05_1602	s	s	3	3	Capacity	21	1_1	1	1	1	4	23_1_4	0	3	1	0	0.846148967743	-379.0	-357.0	-378.0	-356.0	1
3.0.1	2019_Mar_05_1602	s	s	3	3	Capacity	22	ABS	0	0	1	3	24_1_3	NA	NA	0	1	1.38147902489	None	None	None	None	1
3.0.1	2019_Mar_05_1602	s	s	3	3	Capacity	23	ABS	0	0	1	1	24_1_1	NA	NA	0	1	1.18720889091	None	None	None	None	1
3.0.1	2019_Mar_05_1602	s	s	3	3	Capacity	24	ABS	0	0	1	4	24_1_4	NA	NA	0	1	1.06211709976	None	None	None	None	1
3.0.1	2019_Mar_05_1602	s	s	3	3	Capacity	25	ABS	0	0	1	2	24_1_2	NA	NA	0	1	1.08908700943	None	None	None	None	1
3.0.1	2019_Mar_05_1602	s	s	3	3	Capacity	26	ABS	0	0	1	3	24_1_3	NA	NA	0	1	1.81558895111	None	None	None	None	1
3.0.1	2019_Mar_05_1602	s	s	3	3	Capacity	27	ABS	0	0	1	4	24_1_4	NA	NA	0	1	1.11673593521	None	None	None	None	1
3.0.1	2019_Mar_05_1602	s	s	3	3	Capacity	28	1_1	1	1	1	3	23_1_3	0	2	1	0	0.838872909546	-191.0	367.0	-185.0	369.0	1
3.0.1	2019_Mar_05_1602	s	s	3	3	Capacity	29	1_2	1	2	1	4	23_1_4	0	2	1	0	1.2460539341	352.0	-303.0	355.0	-306.0	1
3.0.1	2019_Mar_05_1602	s	s	3	3	Capacity	30	ABS	0	0	1	3	24_1_3	NA	NA	0	1	2.28581905365	None	None	None	None	1
3.0.1	2019_Mar_05_1602	s	s	3	3	Capacity	31	1_2	1	2	1	3	23_1_3	0	1	1	0	1.56083416939	-302.0	214.0	-296.0	215.0	1
3.0.1	2019_Mar_05_1602	s	s	3	3	Capacity	32	ABS	0	0	1	1	24_1_1	NA	NA	0	1	1.0843091011	None	None	None	None	1
3.0.1	2019_Mar_05_1602	s	s	3	3	Capacity	33	ABS	0	0	1	4	24_1_4	NA	NA	0	1	1.17557811737	None	None	None	None	1
3.0.1	2019_Mar_05_1602	s	s	3	3	Capacity	34	ABS	0	0	1	1	24_1_1	NA	NA	0	1	0.849102020264	None	None	None	None	1
3.0.1	2019_Mar_05_1602	s	s	3	3	Capacity	35	1_4	1	4	1	1	23_1_1	0	3	1	0	0.607715129852	-513.0	107.0	-511.0	106.0	1
3.0.1	2019_Mar_05_1602	s	s	3	3	Capacity	36	1_4	1	4	1	2	23_1_2	0	2	1	0	0.88139796257	-453.0	-344.0	-468.0	-335.0	1
3.0.1	2019_Mar_05_1602	s	s	3	3	Capacity	37	ABS	0	0	1	2	24_1_2	NA	NA	0	1	1.3518679142	None	None	None	None	1
3.0.1	2019_Mar_05_1602	s	s	3	3	Capacity	38	1_3	1	3	1	4	23_1_4	0	-1	1	0	0.70498418808	236.0	-314.0	244.0	-315.0	1
3.0.1	2019_Mar_05_1602	s	s	3	3	Capacity	39	1_4	1	4	1	3	23_1_3	0	1	1	0	0.74470281601	-50.0	-156.0	-58.0	-153.0	1
3.0.1	2019_Mar_05_1602	s	s	3	3	Capacity	40	ABS	0	0	1	2	24_1_2	NA	NA	0	1	0.736257076263	None	None	None	None	1
3.0.1	2019_Mar_05_1602	s	s	3	3	Capacity	41	1_1	1	1	1	4	23_1_4	0	3	1	0	0.516654014587	88.0	53.0	94.0	53.0	1
3.0.1	2019_Mar_05_1602	s	s	3	3	Capacity	42	ABS	0	0	1	4	24_1_4	NA	NA	0	1	0.966618061066	None	None	None	None	1
3.0.1	2019_Mar_05_1602	s	s	3	3	Capacity	43	1_2	1	2	1	1	23_1_1	0	-1	1	0	1.59079694748	-27.0	-76.0	-23.0	-78.0	1
3.0.1	2019_Mar_05_1602	s	s	3	3	Capacity	44	1_3	1	3	1	1	23_1_1	0	2	1	0	0.779881000519	-531.0	216.0	-524.0	213.0	1
3.0.1	2019_Mar_05_1602	s	s	3	3	Capacity	45	1_1	1	1	1	2	23_1_2	0	1	1	0	1.2391371727	15.0	-20.0	30.0	-14.0	1
3.0.1	2019_Mar_05_1602	s	s	3	3	Capacity	46	1_3	1	3	1	2	23_1_2	0	1	0	1	1.1754219532	-421.0	-411.0	None	None	0
3.0.1	2019_Mar_05_1602	s	s	3	3	Capacity	47	ABS	0	0	1	1	24_1_1	NA	NA	0	1	1.48129796982	None	None	None	None	1
3.0.1	2019_Mar_05_1602	s	s	3	3	Capacity	48	ABS	0	0	1	3	24_1_3	NA	NA	0	1	1.08935594559	None	None	None	None	1
3.0.1	2019_Mar_05_1602	s	s	3	3	Capacity	49	ABS	0	0	1	1	24_1_1	NA	NA	0	1	1.37830114365	None	None	None	None	1
3.0.1	2019_Mar_05_1602	s	s	3	3	Capacity	50	1_1	1	1	1	4	23_1_4	0	3	1	0	0.505061149597	168.0	-125.0	169.0	-122.0	1
3.0.1	2019_Mar_05_1602	s	s	3	3	Capacity	51	ABS	0	0	1	4	24_1_4	NA	NA	0	1	1.04604005814	None	None	None	None	1
3.0.1	2019_Mar_05_1602	s	s	3	3	Capacity	52	1_1	1	1	1	3	23_1_3	0	2	0	1	0.738700151443	-365.0	-407.0	None	None	0
3.0.1	2019_Mar_05_1602	s	s	3	3	Capacity	53	1_4	1	4	1	3	23_1_3	0	1	1	0	0.646151065826	0.0	82.0	5.0	71.0	1
3.0.1	2019_Mar_05_1602	s	s	3	3	Capacity	54	1_2	1	2	1	3	23_1_3	0	1	1	0	1.36367201805	43.0	63.0	44.0	61.0	1
3.0.1	2019_Mar_05_1602	s	s	3	3	Capacity	55	1_4	1	4	1	1	23_1_1	0	3	1	0	0.533143997192	298.0	191.0	302.0	187.0	1
3.0.1	2019_Mar_05_1602	s	s	3	3	Capacity	56	ABS	0	0	1	3	24_1_3	NA	NA	0	1	1.57532906532	None	None	None	None	1
3.0.1	2019_Mar_05_1602	s	s	3	3	Capacity	57	1_3	1	3	1	1	23_1_1	0	2	1	0	0.799449920654	367.0	-132.0	373.0	-130.0	1
3.0.1	2019_Mar_05_1602	s	s	3	3	Capacity	58	1_4	1	4	1	2	23_1_2	0	2	1	0	0.73143196106	216.0	377.0	219.0	376.0	1
3.0.1	2019_Mar_05_1602	s	s	3	3	Capacity	59	ABS	0	0	1	4	24_1_4	NA	NA	0	1	1.08139109612	None	None	None	None	1
3.0.1	2019_Mar_05_1602	s	s	3	3	Capacity	60	1_1	1	1	1	2	23_1_2	0	1	1	0	1.08143305779	-189.0	30.0	-186.0	35.0	1
3.0.1	2019_Mar_05_1602	s	s	3	3	Capacity	61	1_2	1	2	1	4	23_1_4	0	2	1	0	1.0842499733	-375.0	-132.0	-374.0	-134.0	1
3.0.1	2019_Mar_05_1602	s	s	3	3	Capacity	62	ABS	0	0	1	1	24_1_1	NA	NA	0	1	1.23420500755	None	None	None	None	1
3.0.1	2019_Mar_05_1602	s	s	3	3	Capacity	63	1_2	1	2	1	1	23_1_1	0	-1	1	0	0.790224075317	-39.0	333.0	-31.0	331.0	1
3.0.1	2019_Mar_05_1602	s	s	3	3	Capacity	64	ABS	0	0	1	3	24_1_3	NA	NA	0	1	2.01037693024	None	None	None	None	1
3.0.1	2019_Mar_05_1602	s	s	3	3	Capacity	65	1_3	1	3	1	2	23_1_2	0	1	0	1	1.39892601967	-226.0	-351.0	None	None	0
3.0.1	2019_Mar_05_1602	s	s	3	3	Capacity	66	ABS	0	0	1	3	24_1_3	NA	NA	0	1	1.61793899536	None	None	None	None	1
3.0.1	2019_Mar_05_1602	s	s	3	3	Capacity	67	ABS	0	0	1	4	24_1_4	NA	NA	0	1	1.20182681084	None	None	None	None	1
3.0.1	2019_Mar_05_1602	s	s	3	3	Capacity	68	ABS	0	0	1	2	24_1_2	NA	NA	0	1	1.5671620369	None	None	None	None	1
3.0.1	2019_Mar_05_1602	s	s	3	3	Capacity	69	ABS	0	0	1	1	24_1_1	NA	NA	0	1	1.64592909813	None	None	None	None	1
3.0.1	2019_Mar_05_1602	s	s	3	3	Capacity	70	ABS	0	0	1	2	24_1_2	NA	NA	0	1	1.48609209061	None	None	None	None	1
3.0.1	2019_Mar_05_1602	s	s	3	3	Capacity	71	ABS	0	0	1	2	24_1_2	NA	NA	0	1	1.37833881378	None	None	None	None	1
3.0.1	2019_Mar_05_1602	s	s	3	3	Capacity	72	1_3	1	3	1	4	23_1_4	0	-1	1	0	0.543274879456	396.0	96.0	394.0	93.0	1
3.0.1	2019_Mar_05_1602	s	s	3	3	Capacity	73	ABS	0	0	1	4	24_1_4	NA	NA	0	1	0.885359048843	None	None	None	None	1
3.0.1	2019_Mar_05_1602	s	s	3	3	Capacity	74	1_2	1	2	1	4	23_1_4	0	2	1	0	0.443935155869	-277.0	-19.0	-281.0	-21.0	1
3.0.1	2019_Mar_05_1602	s	s	3	3	Capacity	75	ABS	0	0	1	2	24_1_2	NA	NA	0	1	1.75174880028	None	None	None	None	1
3.0.1	2019_Mar_05_1602	s	s	3	3	Capacity	76	ABS	0	0	1	1	24_1_1	NA	NA	0	1	1.07621216774	None	None	None	None	1
3.0.1	2019_Mar_05_1602	s	s	3	3	Capacity	77	1_3	1	3	1	1	23_1_1	0	2	1	0	0.579918146133	126.0	-118.0	127.0	-117.0	1
3.0.1	2019_Mar_05_1602	s	s	3	3	Capacity	78	1_3	1	3	1	2	23_1_2	0	1	0	1	0.940222024918	-123.0	205.0	None	None	0
3.0.1	2019_Mar_05_1602	s	s	3	3	Capacity	79	ABS	0	0	1	2	24_1_2	NA	NA	0	1	0.790202856064	None	None	None	None	1
3.0.1	2019_Mar_05_1602	s	s	3	3	Capacity	80	ABS	0	0	1	1	24_1_1	NA	NA	0	1	1.08432102203	None	None	None	None	1
3.0.1	2019_Mar_05_1602	s	s	3	3	Capacity	81	ABS	0	0	1	2	24_1_2	NA	NA	0	1	0.966626882553	None	None	None	None	1
3.0.1	2019_Mar_05_1602	s	s	3	3	Capacity	82	1_1	1	1	1	4	23_1_4	0	3	1	0	0.634563922882	-339.0	353.0	-339.0	351.0	1
3.0.1	2019_Mar_05_1602	s	s	3	3	Capacity	83	1_2	1	2	1	3	23_1_3	0	1	1	0	1.54646897316	-347.0	205.0	-341.0	200.0	1
3.0.1	2019_Mar_05_1602	s	s	3	3	Capacity	84	1_1	1	1	1	2	23_1_2	0	1	0	1	0.881380796432	-463.0	-193.0	None	None	0
3.0.1	2019_Mar_05_1602	s	s	3	3	Capacity	85	1_4	1	4	1	3	23_1_3	0	1	1	0	0.67851805687	444.0	-282.0	445.0	-283.0	1
3.0.1	2019_Mar_05_1602	s	s	3	3	Capacity	86	1_2	1	2	1	1	23_1_1	0	-1	1	0	1.51044583321	171.0	-126.0	162.0	-130.0	1
3.0.1	2019_Mar_05_1602	s	s	3	3	Capacity	87	ABS	0	0	1	4	24_1_4	NA	NA	0	1	1.34522104263	None	None	None	None	1
3.0.1	2019_Mar_05_1602	s	s	3	3	Capacity	88	ABS	0	0	1	1	24_1_1	NA	NA	0	1	1.37559604645	None	None	None	None	1
3.0.1	2019_Mar_05_1602	s	s	3	3	Capacity	89	ABS	0	0	1	4	24_1_4	NA	NA	0	1	1.0741648674	None	None	None	None	1
3.0.1	2019_Mar_05_1602	s	s	3	3	Capacity	90	1_4	1	4	1	2	23_1_2	0	2	1	0	0.540400981903	159.0	-262.0	165.0	-262.0	1
3.0.1	2019_Mar_05_1602	s	s	3	3	Capacity	91	ABS	0	0	1	3	24_1_3	NA	NA	0	1	1.77529406548	None	None	None	None	1
3.0.1	2019_Mar_05_1602	s	s	3	3	Capacity	92	1_1	1	1	1	3	23_1_3	0	2	1	0	1.5546810627	469.0	410.0	484.0	419.0	1
3.0.1	2019_Mar_05_1602	s	s	3	3	Capacity	93	1_3	1	3	1	4	23_1_4	0	-1	1	0	0.657993793488	469.0	159.0	463.0	160.0	1
3.0.1	2019_Mar_05_1602	s	s	3	3	Capacity	94	1_4	1	4	1	1	23_1_1	0	3	1	0	0.469778060913	453.0	-373.0	448.0	-380.0	1
3.0.1	2019_Mar_05_1602	s	s	3	3	Capacity	95	ABS	0	0	1	3	24_1_3	NA	NA	1	0	0.605551958084	None	None	299.0	-96.0	0
3.0.1	2019_Mar_05_1602	s	s	3	3	Capacity	96	ABS	0	0	1	3	24_1_3	NA	NA	0	1	1.69293308258	None	None	None	None	1
3.0.1	2019_Mar_05_1602	s	s	3	3	Capacity	1	ABS	0	0	1	1	24_1_1	NA	NA	1	0	0.521651983261	None	None	60.0	48.0	0
3.0.1	2019_Mar_05_1602	s	s	3	3	Capacity	2	ABS	0	0	2	1	24_2_1	NA	NA	0	1	0.599571943283	None	None	None	None	1
3.0.1	2019_Mar_05_1602	s	s	3	3	Capacity	3	ABS	0	0	2	1	24_2_1	NA	NA	0	1	0.763835906982	None	None	None	None	1
3.0.1	2019_Mar_05_1602	s	s	3	3	Capacity	4	2_1	2	1	4	1	23_4_1	2	0	1	0	0.458058834076	-454.0	-222.0	-455.0	-223.0	1
3.0.1	2019_Mar_05_1602	s	s	3	3	Capacity	5	3_1	3	1	2	1	23_2_1	1	0	1	0	0.563830852509	-275.0	202.0	-269.0	204.0	1
3.0.1	2019_Mar_05_1602	s	s	3	3	Capacity	6	ABS	0	0	1	1	24_1_1	NA	NA	0	1	0.580945014954	None	None	None	None	1
3.0.1	2019_Mar_05_1602	s	s	3	3	Capacity	7	ABS	0	0	4	1	24_4_1	NA	NA	0	1	0.46333694458	None	None	None	None	1
3.0.1	2019_Mar_05_1602	s	s	3	3	Capacity	8	4_1	4	1	1	1	23_1_1	3	0	1	0	0.340439081192	443.0	-242.0	439.0	-232.0	1
3.0.1	2019_Mar_05_1602	s	s	3	3	Capacity	9	ABS	0	0	4	1	24_4_1	NA	NA	0	1	0.481564044952	None	None	None	None	1
3.0.1	2019_Mar_05_1602	s	s	3	3	Capacity	10	ABS	0	0	3	1	24_3_1	NA	NA	0	1	0.410933017731	None	None	None	None	1
3.0.1	2019_Mar_05_1602	s	s	3	3	Capacity	11	ABS	0	0	3	1	24_3_1	NA	NA	0	1	0.462611913681	None	None	None	None	1
3.0.1	2019_Mar_05_1602	s	s	3	3	Capacity	12	4_1	4	1	3	1	23_3_1	1	0	1	0	0.334621191025	-520.0	-187.0	-519.0	-188.0	1
3.0.1	2019_Mar_05_1602	s	s	3	3	Capacity	13	ABS	0	0	2	1	24_2_1	NA	NA	0	1	0.575613975525	None	None	None	None	1
3.0.1	2019_Mar_05_1602	s	s	3	3	Capacity	14	ABS	0	0	3	1	24_3_1	NA	NA	0	1	0.451251983643	None	None	None	None	1
3.0.1	2019_Mar_05_1602	s	s	3	3	Capacity	15	3_1	3	1	4	1	23_4_1	-1	0	1	0	0.443484067917	-229.0	212.0	-221.0	216.0	1
3.0.1	2019_Mar_05_1602	s	s	3	3	Capacity	16	1_1	1	1	2	1	23_2_1	1	0	0	1	0.540416955948	-368.0	268.0	None	None	0
3.0.1	2019_Mar_05_1602	s	s	3	3	Capacity	17	2_1	2	1	3	1	23_3_1	1	0	1	0	0.446297168732	-34.0	140.0	-35.0	145.0	1
3.0.1	2019_Mar_05_1602	s	s	3	3	Capacity	18	4_1	4	1	2	1	23_2_1	2	0	1	0	0.422745943069	275.0	149.0	282.0	149.0	1
3.0.1	2019_Mar_05_1602	s	s	3	3	Capacity	19	ABS	0	0	1	1	24_1_1	NA	NA	0	1	0.658028841019	None	None	None	None	1
3.0.1	2019_Mar_05_1602	s	s	3	3	Capacity	20	2_1	2	1	1	1	23_1_1	-1	0	1	0	1.79432892799	78.0	-80.0	79.0	-85.0	1
3.0.1	2019_Mar_05_1602	s	s	3	3	Capacity	21	1_1	1	1	4	1	23_4_1	3	0	1	0	0.427839040756	-65.0	-301.0	-66.0	-306.0	1
3.0.1	2019_Mar_05_1602	s	s	3	3	Capacity	22	3_1	3	1	1	1	23_1_1	2	0	1	0	0.511062145233	515.0	-53.0	515.0	-54.0	1
3.0.1	2019_Mar_05_1602	s	s	3	3	Capacity	23	1_1	1	1	3	1	23_3_1	2	0	1	0	0.437438011169	496.0	134.0	498.0	129.0	1
3.0.1	2019_Mar_05_1602	s	s	3	3	Capacity	24	ABS	0	0	4	1	24_4_1	NA	NA	0	1	0.496165037155	None	None	None	None	1
3.0.1	2019_Mar_05_1602	s	s	3	3	Capacity	25	ABS	0	0	2	1	24_2_1	NA	NA	0	1	0.619891166687	None	None	None	None	1
3.0.1	2019_Mar_05_1602	s	s	3	3	Capacity	26	4_1	4	1	2	1	23_2_1	2	0	1	0	0.387506008148	-178.0	121.0	-172.0	119.0	1
3.0.1	2019_Mar_05_1602	s	s	3	3	Capacity	27	ABS	0	0	1	1	24_1_1	NA	NA	0	1	0.505091190338	None	None	None	None	1
3.0.1	2019_Mar_05_1602	s	s	3	3	Capacity	28	3_1	3	1	4	1	23_4_1	-1	0	1	0	0.411005973816	165.0	-212.0	173.0	-212.0	1
3.0.1	2019_Mar_05_1602	s	s	3	3	Capacity	29	1_1	1	1	2	1	23_2_1	1	0	0	1	0.587344884872	124.0	-317.0	None	None	0
3.0.1	2019_Mar_05_1602	s	s	3	3	Capacity	30	2_1	2	1	4	1	23_4_1	2	0	1	0	0.403282880783	-305.0	268.0	-302.0	269.0	1
3.0.1	2019_Mar_05_1602	s	s	3	3	Capacity	31	ABS	0	0	4	1	24_4_1	NA	NA	0	1	0.540525913239	None	None	None	None	1
3.0.1	2019_Mar_05_1602	s	s	3	3	Capacity	32	3_1	3	1	1	1	23_1_1	2	0	1	0	0.501012086868	322.0	1.0	337.0	10.0	1
3.0.1	2019_Mar_05_1602	s	s	3	3	Capacity	33	ABS	0	0	4	1	24_4_1	NA	NA	0	1	0.567012071609	None	None	None	None	1
3.0.1	2019_Mar_05_1602	s	s	3	3	Capacity	34	1_1	1	1	3	1	23_3_1	2	0	1	0	0.451149940491	30.0	149.0	29.0	143.0	1
3.0.1	2019_Mar_05_1602	s	s	3	3	Capacity	35	ABS	0	0	1	1	24_1_1	NA	NA	0	1	0.501389026642	None	None	None	None	1
3.0.1	2019_Mar_05_1602	s	s	3	3	Capacity	36	ABS	0	0	3	1	24_3_1	NA	NA	0	1	0.487865924835	None	None	None	None	1
3.0.1	2019_Mar_05_1602	s	s	3	3	Capacity	37	2_1	2	1	3	1	23_3_1	1	0	1	0	0.827424049377	-108.0	346.0	-108.0	352.0	1
3.0.1	2019_Mar_05_1602	s	s	3	3	Capacity	38	2_1	2	1	1	1	23_1_1	-1	0	0	1	0.613841056824	-362.0	-119.0	None	None	0
3.0.1	2019_Mar_05_1602	s	s	3	3	Capacity	39	4_1	4	1	3	1	23_3_1	1	0	1	0	0.443836927414	-209.0	-5.0	-202.0	-5.0	1
3.0.1	2019_Mar_05_1602	s	s	3	3	Capacity	40	4_1	4	1	1	1	23_1_1	3	0	1	0	0.434885978699	-118.0	327.0	-114.0	330.0	1
3.0.1	2019_Mar_05_1602	s	s	3	3	Capacity	41	ABS	0	0	3	1	24_3_1	NA	NA	0	1	0.516819953918	None	None	None	None	1
3.0.1	2019_Mar_05_1602	s	s	3	3	Capacity	42	ABS	0	0	2	1	24_2_1	NA	NA	0	1	0.664390087128	None	None	None	None	1
3.0.1	2019_Mar_05_1602	s	s	3	3	Capacity	43	ABS	0	0	2	1	24_2_1	NA	NA	0	1	0.634486913681	None	None	None	None	1
3.0.1	2019_Mar_05_1602	s	s	3	3	Capacity	44	ABS	0	0	3	1	24_3_1	NA	NA	0	1	0.516794919968	None	None	None	None	1
3.0.1	2019_Mar_05_1602	s	s	3	3	Capacity	45	1_1	1	1	4	1	23_4_1	3	0	1	0	0.422755002975	-155.0	-350.0	-154.0	-355.0	1
3.0.1	2019_Mar_05_1602	s	s	3	3	Capacity	46	ABS	0	0	1	1	24_1_1	NA	NA	0	1	0.599164962769	None	None	None	None	1
3.0.1	2019_Mar_05_1602	s	s	3	3	Capacity	47	3_1	3	1	2	1	23_2_1	1	0	1	0	0.45800113678	-124.0	-308.0	-125.0	-310.0	1
3.0.1	2019_Mar_05_1602	s	s	3	3	Capacity	48	ABS	0	0	4	1	24_4_1	NA	NA	0	1	0.509987831116	None	None	None	None	1
3.0.1	2019_Mar_05_1602	s	s	3	3	Capacity	49	1_1	1	1	3	1	23_3_1	2	0	1	0	0.469835042953	138.0	234.0	139.0	243.0	1
3.0.1	2019_Mar_05_1602	s	s	3	3	Capacity	50	ABS	0	0	4	1	24_4_1	NA	NA	0	1	0.437375068665	None	None	None	None	1
3.0.1	2019_Mar_05_1602	s	s	3	3	Capacity	51	ABS	0	0	3	1	24_3_1	NA	NA	0	1	0.587387800217	None	None	None	None	1
3.0.1	2019_Mar_05_1602	s	s	3	3	Capacity	52	1_1	1	1	2	1	23_2_1	1	0	0	1	0.502293109894	487.0	334.0	None	None	0
3.0.1	2019_Mar_05_1602	s	s	3	3	Capacity	53	ABS	0	0	4	1	24_4_1	NA	NA	0	1	0.457893133163	None	None	None	None	1
3.0.1	2019_Mar_05_1602	s	s	3	3	Capacity	54	ABS	0	0	3	1	24_3_1	NA	NA	0	1	0.599611997604	None	None	None	None	1
3.0.1	2019_Mar_05_1602	s	s	3	3	Capacity	55	4_1	4	1	3	1	23_3_1	1	0	1	0	0.4373691082	-390.0	-160.0	-385.0	-162.0	1
3.0.1	2019_Mar_05_1602	s	s	3	3	Capacity	56	3_1	3	1	2	1	23_2_1	1	0	1	0	0.422747850418	336.0	106.0	341.0	116.0	1
3.0.1	2019_Mar_05_1602	s	s	3	3	Capacity	57	3_1	3	1	4	1	23_4_1	-1	0	1	0	0.437305212021	85.0	-254.0	76.0	-250.0	1
3.0.1	2019_Mar_05_1602	s	s	3	3	Capacity	58	4_1	4	1	1	1	23_1_1	3	0	1	0	0.352178812027	345.0	-61.0	337.0	-58.0	1
3.0.1	2019_Mar_05_1602	s	s	3	3	Capacity	59	ABS	0	0	2	1	24_2_1	NA	NA	0	1	0.657998085022	None	None	None	None	1
3.0.1	2019_Mar_05_1602	s	s	3	3	Capacity	60	ABS	0	0	1	1	24_1_1	NA	NA	0	1	0.608227014542	None	None	None	None	1
3.0.1	2019_Mar_05_1602	s	s	3	3	Capacity	61	2_1	2	1	3	1	23_3_1	1	0	1	0	0.687294006348	-5.0	-134.0	5.0	-130.0	1
3.0.1	2019_Mar_05_1602	s	s	3	3	Capacity	62	ABS	0	0	2	1	24_2_1	NA	NA	0	1	1.98694086075	None	None	None	None	1
3.0.1	2019_Mar_05_1602	s	s	3	3	Capacity	63	ABS	0	0	1	1	24_1_1	NA	NA	0	1	0.415754079819	None	None	None	None	1
3.0.1	2019_Mar_05_1602	s	s	3	3	Capacity	64	1_1	1	1	4	1	23_4_1	3	0	1	0	0.411019086838	432.0	-108.0	436.0	-99.0	1
3.0.1	2019_Mar_05_1602	s	s	3	3	Capacity	65	ABS	0	0	3	1	24_3_1	NA	NA	0	1	0.540362119675	None	None	None	None	1
3.0.1	2019_Mar_05_1602	s	s	3	3	Capacity	66	3_1	3	1	1	1	23_1_1	2	0	1	0	0.605530977249	-75.0	-252.0	-67.0	-244.0	1
3.0.1	2019_Mar_05_1602	s	s	3	3	Capacity	67	2_1	2	1	1	1	23_1_1	-1	0	0	1	0.68146109581	-193.0	-158.0	None	None	0
3.0.1	2019_Mar_05_1602	s	s	3	3	Capacity	68	2_1	2	1	4	1	23_4_1	2	0	1	0	0.579788923264	-424.0	-290.0	-417.0	-292.0	1
3.0.1	2019_Mar_05_1602	s	s	3	3	Capacity	69	ABS	0	0	4	1	24_4_1	NA	NA	0	1	0.587440013885	None	None	None	None	1
3.0.1	2019_Mar_05_1602	s	s	3	3	Capacity	70	ABS	0	0	2	1	24_2_1	NA	NA	0	1	0.615764856339	None	None	None	None	1
3.0.1	2019_Mar_05_1602	s	s	3	3	Capacity	71	4_1	4	1	2	1	23_2_1	2	0	1	0	0.422774076462	-456.0	-91.0	-464.0	-89.0	1
3.0.1	2019_Mar_05_1602	s	s	3	3	Capacity	72	ABS	0	0	1	1	24_1_1	NA	NA	0	1	0.437378168106	None	None	None	None	1
3.0.1	2019_Mar_05_1602	s	s	3	3	Capacity	73	ABS	0	0	3	1	24_3_1	NA	NA	0	1	0.619814157486	None	None	None	None	1
3.0.1	2019_Mar_05_1602	s	s	3	3	Capacity	74	ABS	0	0	4	1	24_4_1	NA	NA	0	1	0.481141090393	None	None	None	None	1
3.0.1	2019_Mar_05_1602	s	s	3	3	Capacity	75	ABS	0	0	2	1	24_2_1	NA	NA	0	1	0.634407997131	None	None	None	None	1
3.0.1	2019_Mar_05_1602	s	s	3	3	Capacity	76	3_1	3	1	1	1	23_1_1	2	0	1	0	0.775613069534	-307.0	-366.0	-296.0	-359.0	1
3.0.1	2019_Mar_05_1602	s	s	3	3	Capacity	77	3_1	3	1	2	1	23_2_1	1	0	1	0	0.47251200676	180.0	-104.0	180.0	-99.0	1
3.0.1	2019_Mar_05_1602	s	s	3	3	Capacity	78	ABS	0	0	2	1	24_2_1	NA	NA	0	1	0.86967086792	None	None	None	None	1
3.0.1	2019_Mar_05_1602	s	s	3	3	Capacity	79	4_1	4	1	2	1	23_2_1	2	0	1	0	0.437386035919	137.0	397.0	144.0	396.0	1
3.0.1	2019_Mar_05_1602	s	s	3	3	Capacity	80	ABS	0	0	3	1	24_3_1	NA	NA	0	1	0.563852787018	None	None	None	None	1
3.0.1	2019_Mar_05_1602	s	s	3	3	Capacity	81	1_1	1	1	2	1	23_2_1	1	0	0	1	0.599162817001	35.0	248.0	None	None	0
3.0.1	2019_Mar_05_1602	s	s	3	3	Capacity	82	2_1	2	1	3	1	23_3_1	1	0	1	0	0.49617600441	-211.0	-254.0	-210.0	-260.0	1
3.0.1	2019_Mar_05_1602	s	s	3	3	Capacity	83	ABS	0	0	2	1	24_2_1	NA	NA	0	1	0.581804990768	None	None	None	None	1
3.0.1	2019_Mar_05_1602	s	s	3	3	Capacity	84	3_1	3	1	4	1	23_4_1	-1	0	1	0	0.446233987808	27.0	251.0	33.0	252.0	1
3.0.1	2019_Mar_05_1602	s	s	3	3	Capacity	85	ABS	0	0	1	1	24_1_1	NA	NA	0	1	0.604913949966	None	None	None	None	1
3.0.1	2019_Mar_05_1602	s	s	3	3	Capacity	86	ABS	0	0	4	1	24_4_1	NA	NA	0	1	0.380499839783	None	None	None	None	1
3.0.1	2019_Mar_05_1602	s	s	3	3	Capacity	87	ABS	0	0	1	1	24_1_1	NA	NA	0	1	0.458003044128	None	None	None	None	1
3.0.1	2019_Mar_05_1602	s	s	3	3	Capacity	88	1_1	1	1	3	1	23_3_1	2	0	1	0	0.451961040497	440.0	90.0	434.0	83.0	1
3.0.1	2019_Mar_05_1602	s	s	3	3	Capacity	89	1_1	1	1	4	1	23_4_1	3	0	1	0	0.40442609787	-150.0	-347.0	-154.0	-358.0	1
3.0.1	2019_Mar_05_1602	s	s	3	3	Capacity	90	4_1	4	1	3	1	23_3_1	1	0	1	0	0.404376983643	470.0	-372.0	477.0	-367.0	1
3.0.1	2019_Mar_05_1602	s	s	3	3	Capacity	91	2_1	2	1	1	1	23_1_1	-1	0	0	1	0.469757080078	-298.0	-317.0	None	None	0
3.0.1	2019_Mar_05_1602	s	s	3	3	Capacity	92	ABS	0	0	1	1	24_1_1	NA	NA	0	1	0.563919067383	None	None	None	None	1
3.0.1	2019_Mar_05_1602	s	s	3	3	Capacity	93	2_1	2	1	4	1	23_4_1	2	0	1	0	0.399233818054	524.0	208.0	521.0	210.0	1
3.0.1	2019_Mar_05_1602	s	s	3	3	Capacity	94	4_1	4	1	1	1	23_1_1	3	0	1	0	0.410935878754	215.0	190.0	218.0	190.0	1
3.0.1	2019_Mar_05_1602	s	s	3	3	Capacity	95	ABS	0	0	3	1	24_3_1	NA	NA	0	1	0.410950899124	None	None	None	None	1
3.0.1	2019_Mar_05_1602	s	s	3	3	Capacity	96	ABS	0	0	4	1	24_4_1	NA	NA	0	1	0.357006072998	None	None	None	None	1
3.0.1	2019_Mar_05_1602	s	s	3	3	SIC	1	ABS	0	0	2	3	24_2_3	NA	NA	0	1	0.912759065628	None	None	None	None	1
3.0.1	2019_Mar_05_1602	s	s	3	3	SIC	2	ABS	0	0	1	1	24_1_1	NA	NA	0	1	1.38760614395	None	None	None	None	1
3.0.1	2019_Mar_05_1602	s	s	3	3	SIC	3	3_2	3	2	1	3	23_1_3	2	1	1	0	0.474253892899	337.0	76.0	335.0	77.0	1
3.0.1	2019_Mar_05_1602	s	s	3	3	SIC	4	ABS	0	0	3	3	24_3_3	NA	NA	0	1	1.29307579994	None	None	None	None	1
3.0.1	2019_Mar_05_1602	s	s	3	3	SIC	5	ABS	0	0	3	4	24_3_4	NA	NA	0	1	0.89354801178	None	None	None	None	1
3.0.1	2019_Mar_05_1602	s	s	3	3	SIC	6	3_2	3	2	4	3	23_4_3	-1	1	1	0	0.43497800827	-467.0	-213.0	-474.0	-212.0	1
3.0.1	2019_Mar_05_1602	s	s	3	3	SIC	7	3_2	3	2	1	4	23_1_4	2	2	1	0	0.422704935074	-346.0	0.0	-337.0	-3.0	1
3.0.1	2019_Mar_05_1602	s	s	3	3	SIC	8	3_1	3	1	1	1	23_1_1	2	0	1	0	0.563794851303	100.0	-400.0	113.0	-396.0	1
3.0.1	2019_Mar_05_1602	s	s	3	3	SIC	9	3_1	3	1	4	3	23_4_3	-1	2	1	0	0.39293718338	-371.0	218.0	-371.0	217.0	1
3.0.1	2019_Mar_05_1602	s	s	3	3	SIC	10	ABS	0	0	4	2	24_4_2	NA	NA	0	1	1.65773797035	None	None	None	None	1
3.0.1	2019_Mar_05_1602	s	s	3	3	SIC	11	ABS	0	0	3	2	24_3_2	NA	NA	0	1	0.723387956619	None	None	None	None	1
3.0.1	2019_Mar_05_1602	s	s	3	3	SIC	12	1_1	1	1	1	4	23_1_4	0	3	1	0	0.543246030807	-23.0	-81.0	-37.0	-75.0	1
3.0.1	2019_Mar_05_1602	s	s	3	3	SIC	13	1_2	1	2	3	1	23_3_1	2	-1	1	0	0.43740606308	-164.0	162.0	-156.0	166.0	1
3.0.1	2019_Mar_05_1602	s	s	3	3	SIC	14	ABS	0	0	4	4	24_4_4	NA	NA	0	1	0.599218130112	None	None	None	None	1
3.0.1	2019_Mar_05_1602	s	s	3	3	SIC	15	3_2	3	2	4	1	23_4_1	-1	-1	1	0	0.473426818848	-401.0	-380.0	-397.0	-385.0	1
3.0.1	2019_Mar_05_1602	s	s	3	3	SIC	16	ABS	0	0	1	2	24_1_2	NA	NA	0	1	1.16803908348	None	None	None	None	1
3.0.1	2019_Mar_05_1602	s	s	3	3	SIC	17	3_2	3	2	3	3	23_3_3	0	1	0	1	1.12174892426	83.0	-329.0	None	None	0
3.0.1	2019_Mar_05_1602	s	s	3	3	SIC	18	ABS	0	0	2	2	24_2_2	NA	NA	0	1	0.775631189346	None	None	None	None	1
3.0.1	2019_Mar_05_1602	s	s	3	3	SIC	19	3_4	3	4	3	3	23_3_3	0	1	1	0	0.815850019455	-40.0	-351.0	-43.0	-357.0	1
3.0.1	2019_Mar_05_1602	s	s	3	3	SIC	20	ABS	0	0	2	2	24_2_2	NA	NA	0	1	0.869679927826	None	None	None	None	1
3.0.1	2019_Mar_05_1602	s	s	3	3	SIC	21	4_1	4	1	2	3	23_2_3	2	2	1	0	0.391643047333	47.0	-74.0	50.0	-68.0	1
3.0.1	2019_Mar_05_1602	s	s	3	3	SIC	22	ABS	0	0	2	3	24_2_3	NA	NA	0	1	1.46934604645	None	None	None	None	1
3.0.1	2019_Mar_05_1602	s	s	3	3	SIC	23	4_3	4	3	2	3	23_2_3	2	0	1	0	0.392725944519	201.0	-146.0	195.0	-145.0	1
3.0.1	2019_Mar_05_1602	s	s	3	3	SIC	24	ABS	0	0	2	2	24_2_2	NA	NA	0	1	0.839438915253	None	None	None	None	1
3.0.1	2019_Mar_05_1602	s	s	3	3	SIC	25	ABS	0	0	3	2	24_3_2	NA	NA	0	1	0.67257809639	None	None	None	None	1
3.0.1	2019_Mar_05_1602	s	s	3	3	SIC	26	ABS	0	0	3	3	24_3_3	NA	NA	0	1	0.731398105621	None	None	None	None	1
3.0.1	2019_Mar_05_1602	s	s	3	3	SIC	27	ABS	0	0	2	4	24_2_4	NA	NA	0	1	0.920022010803	None	None	None	None	1
3.0.1	2019_Mar_05_1602	s	s	3	3	SIC	28	4_2	4	2	3	2	23_3_2	1	0	1	0	0.426442146301	485.0	315.0	497.0	316.0	1
3.0.1	2019_Mar_05_1602	s	s	3	3	SIC	29	ABS	0	0	1	1	24_1_1	NA	NA	0	1	1.31946396828	None	None	None	None	1
3.0.1	2019_Mar_05_1602	s	s	3	3	SIC	30	2_2	2	2	1	3	23_1_3	-1	1	1	0	1.10487794876	-56.0	173.0	-61.0	176.0	1
3.0.1	2019_Mar_05_1602	s	s	3	3	SIC	31	1_3	1	3	3	2	23_3_2	2	1	1	0	0.474836111069	-219.0	-148.0	-219.0	-146.0	1
3.0.1	2019_Mar_05_1602	s	s	3	3	SIC	32	ABS	0	0	1	4	24_1_4	NA	NA	0	1	0.840006828308	None	None	None	None	1
3.0.1	2019_Mar_05_1602	s	s	3	3	SIC	33	ABS	0	0	1	4	24_1_4	NA	NA	0	1	0.869656085968	None	None	None	None	1
3.0.1	2019_Mar_05_1602	s	s	3	3	SIC	34	ABS	0	0	1	1	24_1_1	NA	NA	0	1	1.62230610847	None	None	None	None	1
3.0.1	2019_Mar_05_1602	s	s	3	3	SIC	35	2_4	2	4	2	1	23_2_1	0	3	1	0	0.496309041977	11.0	-191.0	3.0	-189.0	1
3.0.1	2019_Mar_05_1602	s	s	3	3	SIC	36	ABS	0	0	1	1	24_1_1	NA	NA	0	1	0.810815095901	None	None	None	None	1
3.0.1	2019_Mar_05_1602	s	s	3	3	SIC	37	2_3	2	3	2	2	23_2_2	0	1	1	0	0.899774074554	317.0	-201.0	321.0	-194.0	1
3.0.1	2019_Mar_05_1602	s	s	3	3	SIC	38	ABS	0	0	4	3	24_4_3	NA	NA	0	1	1.469424963	None	None	None	None	1
3.0.1	2019_Mar_05_1602	s	s	3	3	SIC	39	3_1	3	1	3	2	23_3_2	0	1	0	1	1.40327215195	-375.0	270.0	None	None	0
3.0.1	2019_Mar_05_1602	s	s	3	3	SIC	40	2_4	2	4	3	4	23_3_4	1	0	1	0	0.840746164322	-322.0	42.0	-324.0	42.0	1
3.0.1	2019_Mar_05_1602	s	s	3	3	SIC	41	ABS	0	0	4	2	24_4_2	NA	NA	0	1	1.89292812347	None	None	None	None	1
3.0.1	2019_Mar_05_1602	s	s	3	3	SIC	42	ABS	0	0	3	2	24_3_2	NA	NA	0	1	2.39168405533	None	None	None	None	1
3.0.1	2019_Mar_05_1602	s	s	3	3	SIC	43	ABS	0	0	2	1	24_2_1	NA	NA	0	1	1.34018683434	None	None	None	None	1
3.0.1	2019_Mar_05_1602	s	s	3	3	SIC	44	ABS	0	0	1	4	24_1_4	NA	NA	0	1	1.08447194099	None	None	None	None	1
3.0.1	2019_Mar_05_1602	s	s	3	3	SIC	45	2_1	2	1	1	1	23_1_1	-1	0	0	1	1.19002389908	-398.0	112.0	None	None	0
3.0.1	2019_Mar_05_1602	s	s	3	3	SIC	46	ABS	0	0	4	3	24_4_3	NA	NA	0	1	1.04605507851	None	None	None	None	1
3.0.1	2019_Mar_05_1602	s	s	3	3	SIC	47	1_4	1	4	1	1	23_1_1	0	3	1	0	0.522206068039	-539.0	12.0	-551.0	16.0	1
3.0.1	2019_Mar_05_1602	s	s	3	3	SIC	48	1_3	1	3	2	3	23_2_3	1	0	0	1	1.88116502762	-82.0	-409.0	None	None	0
3.0.1	2019_Mar_05_1602	s	s	3	3	SIC	49	ABS	0	0	3	4	24_3_4	NA	NA	0	1	0.705046892166	None	None	None	None	1
3.0.1	2019_Mar_05_1602	s	s	3	3	SIC	50	ABS	0	0	1	4	24_1_4	NA	NA	0	1	1.26070213318	None	None	None	None	1
3.0.1	2019_Mar_05_1602	s	s	3	3	SIC	51	3_4	3	4	1	3	23_1_3	2	1	1	0	0.54033780098	-331.0	-314.0	-333.0	-305.0	1
3.0.1	2019_Mar_05_1602	s	s	3	3	SIC	52	1_2	1	2	3	3	23_3_3	2	1	1	0	0.673645019531	-342.0	-320.0	-332.0	-314.0	1
3.0.1	2019_Mar_05_1602	s	s	3	3	SIC	53	1_1	1	1	1	3	23_1_3	0	2	1	0	0.957355976105	-528.0	-302.0	-520.0	-302.0	1
3.0.1	2019_Mar_05_1602	s	s	3	3	SIC	54	ABS	0	0	1	3	24_1_3	NA	NA	0	1	1.56353211403	None	None	None	None	1
3.0.1	2019_Mar_05_1602	s	s	3	3	SIC	55	2_2	2	2	1	1	23_1_1	-1	-1	0	1	1.32482600212	-247.0	245.0	None	None	0
3.0.1	2019_Mar_05_1602	s	s	3	3	SIC	56	ABS	0	0	4	4	24_4_4	NA	NA	0	1	0.709756851196	None	None	None	None	1
3.0.1	2019_Mar_05_1602	s	s	3	3	SIC	57	2_4	2	4	2	2	23_2_2	0	2	1	0	0.528952121735	165.0	389.0	176.0	399.0	1
3.0.1	2019_Mar_05_1602	s	s	3	3	SIC	58	ABS	0	0	1	2	24_1_2	NA	NA	0	1	2.01568388939	None	None	None	None	1
3.0.1	2019_Mar_05_1602	s	s	3	3	SIC	59	1_1	1	1	3	1	23_3_1	2	0	1	0	0.628342866898	-150.0	-340.0	-144.0	-343.0	1
3.0.1	2019_Mar_05_1602	s	s	3	3	SIC	60	ABS	0	0	2	4	24_2_4	NA	NA	0	1	0.716794967651	None	None	None	None	1
3.0.1	2019_Mar_05_1602	s	s	3	3	SIC	61	2_3	2	3	1	3	23_1_3	-1	0	0	1	0.74439406395	-105.0	17.0	None	None	0
3.0.1	2019_Mar_05_1602	s	s	3	3	SIC	62	4_3	4	3	1	4	23_1_4	3	-1	1	0	0.44264793396	-143.0	77.0	-133.0	81.0	1
3.0.1	2019_Mar_05_1602	s	s	3	3	SIC	63	ABS	0	0	1	1	24_1_1	NA	NA	0	1	1.16365814209	None	None	None	None	1
3.0.1	2019_Mar_05_1602	s	s	3	3	SIC	64	ABS	0	0	1	1	24_1_1	NA	NA	0	1	0.67266702652	None	None	None	None	1
3.0.1	2019_Mar_05_1602	s	s	3	3	SIC	65	ABS	0	0	3	2	24_3_2	NA	NA	0	1	0.928469181061	None	None	None	None	1
3.0.1	2019_Mar_05_1602	s	s	3	3	SIC	66	2_3	2	3	1	1	23_1_1	-1	2	1	0	1.21076703072	-473.0	-136.0	-475.0	-134.0	1
3.0.1	2019_Mar_05_1602	s	s	3	3	SIC	67	3_4	3	4	2	1	23_2_1	1	3	1	0	0.516847848892	360.0	-408.0	364.0	-406.0	1
3.0.1	2019_Mar_05_1602	s	s	3	3	SIC	68	ABS	0	0	4	1	24_4_1	NA	NA	0	1	1.1872279644	None	None	None	None	1
3.0.1	2019_Mar_05_1602	s	s	3	3	SIC	69	ABS	0	0	3	1	24_3_1	NA	NA	0	1	0.704981088638	None	None	None	None	1
3.0.1	2019_Mar_05_1602	s	s	3	3	SIC	70	ABS	0	0	2	3	24_2_3	NA	NA	0	1	1.78994989395	None	None	None	None	1
3.0.1	2019_Mar_05_1602	s	s	3	3	SIC	71	4_3	4	3	1	2	23_1_2	3	1	1	0	0.444915771484	-171.0	157.0	-173.0	156.0	1
3.0.1	2019_Mar_05_1602	s	s	3	3	SIC	72	ABS	0	0	2	3	24_2_3	NA	NA	0	1	0.721946954727	None	None	None	None	1
3.0.1	2019_Mar_05_1602	s	s	3	3	SIC	73	2_2	2	2	4	4	23_4_4	2	2	1	0	0.458054065704	-531.0	8.0	-525.0	3.0	1
3.0.1	2019_Mar_05_1602	s	s	3	3	SIC	74	ABS	0	0	4	2	24_4_2	NA	NA	0	1	0.933768033981	None	None	None	None	1
3.0.1	2019_Mar_05_1602	s	s	3	3	SIC	75	ABS	0	0	3	3	24_3_3	NA	NA	0	1	0.6849629879	None	None	None	None	1
3.0.1	2019_Mar_05_1602	s	s	3	3	SIC	76	ABS	0	0	2	3	24_2_3	NA	NA	0	1	1.34422087669	None	None	None	None	1
3.0.1	2019_Mar_05_1602	s	s	3	3	SIC	77	ABS	0	0	3	3	24_3_3	NA	NA	0	1	1.00301098824	None	None	None	None	1
3.0.1	2019_Mar_05_1602	s	s	3	3	SIC	78	2_1	2	1	3	4	23_3_4	1	3	1	0	0.528622865677	392.0	72.0	385.0	71.0	1
3.0.1	2019_Mar_05_1602	s	s	3	3	SIC	79	2_1	2	1	4	4	23_4_4	2	3	1	0	0.481541872025	347.0	284.0	361.0	290.0	1
3.0.1	2019_Mar_05_1602	s	s	3	3	SIC	80	ABS	0	0	3	3	24_3_3	NA	NA	0	1	0.913505077362	None	None	None	None	1
3.0.1	2019_Mar_05_1602	s	s	3	3	SIC	81	ABS	0	0	3	1	24_3_1	NA	NA	0	1	1.4224460125	None	None	None	None	1
3.0.1	2019_Mar_05_1602	s	s	3	3	SIC	82	ABS	0	0	2	1	24_2_1	NA	NA	0	1	1.08428192139	None	None	None	None	1
3.0.1	2019_Mar_05_1602	s	s	3	3	SIC	83	ABS	0	0	2	3	24_2_3	NA	NA	0	1	0.896106004715	None	None	None	None	1
3.0.1	2019_Mar_05_1602	s	s	3	3	SIC	84	ABS	0	0	4	1	24_4_1	NA	NA	0	1	0.684489011765	None	None	None	None	1
3.0.1	2019_Mar_05_1602	s	s	3	3	SIC	85	3_1	3	1	4	4	23_4_4	-1	3	1	0	0.469782114029	361.0	-289.0	353.0	-292.0	1
3.0.1	2019_Mar_05_1602	s	s	3	3	SIC	86	ABS	0	0	3	1	24_3_1	NA	NA	0	1	1.01083111763	None	None	None	None	1
3.0.1	2019_Mar_05_1602	s	s	3	3	SIC	87	3_1	3	1	3	3	23_3_3	0	2	1	0	0.815829992294	284.0	66.0	284.0	74.0	1
3.0.1	2019_Mar_05_1602	s	s	3	3	SIC	88	1_1	1	1	4	3	23_4_3	3	2	1	0	0.442611932755	402.0	-249.0	408.0	-246.0	1
3.0.1	2019_Mar_05_1602	s	s	3	3	SIC	89	2_2	2	2	2	1	23_2_1	0	-1	1	0	0.822626113892	215.0	-144.0	222.0	-140.0	1
3.0.1	2019_Mar_05_1602	s	s	3	3	SIC	90	4_4	4	4	3	1	23_3_1	1	3	1	0	0.458012104034	198.0	327.0	199.0	326.0	1
3.0.1	2019_Mar_05_1602	s	s	3	3	SIC	91	ABS	0	0	3	4	24_3_4	NA	NA	0	1	1.4432618618	None	None	None	None	1
3.0.1	2019_Mar_05_1602	s	s	3	3	SIC	92	ABS	0	0	4	1	24_4_1	NA	NA	0	1	1.43790698051	None	None	None	None	1
3.0.1	2019_Mar_05_1602	s	s	3	3	SIC	93	ABS	0	0	4	3	24_4_3	NA	NA	0	1	1.53290390968	None	None	None	None	1
3.0.1	2019_Mar_05_1602	s	s	3	3	SIC	94	2_3	2	3	1	4	23_1_4	-1	-1	1	0	0.511583089828	496.0	-186.0	500.0	-181.0	1
3.0.1	2019_Mar_05_1602	s	s	3	3	SIC	95	ABS	0	0	4	2	24_4_2	NA	NA	0	1	2.12813401222	None	None	None	None	1
3.0.1	2019_Mar_05_1602	s	s	3	3	SIC	96	4_2	4	2	2	3	23_2_3	2	1	1	0	0.434982776642	280.0	110.0	272.0	120.0	1
3.0.1	2019_Mar_05_1602	s	s	3	3	SIC	97	ABS	0	0	2	1	24_2_1	NA	NA	0	1	1.51653599739	None	None	None	None	1
3.0.1	2019_Mar_05_1602	s	s	3	3	SIC	98	ABS	0	0	3	3	24_3_3	NA	NA	0	1	1.58708405495	None	None	None	None	1
3.0.1	2019_Mar_05_1602	s	s	3	3	SIC	99	ABS	0	0	1	4	24_1_4	NA	NA	0	1	0.966763019562	None	None	None	None	1
3.0.1	2019_Mar_05_1602	s	s	3	3	SIC	100	ABS	0	0	2	1	24_2_1	NA	NA	0	1	1.2930829525	None	None	None	None	1
3.0.1	2019_Mar_05_1602	s	s	3	3	SIC	101	ABS	0	0	4	3	24_4_3	NA	NA	0	1	0.907884120941	None	None	None	None	1
3.0.1	2019_Mar_05_1602	s	s	3	3	SIC	102	4_4	4	4	4	2	23_4_2	0	2	1	0	0.543241024017	-121.0	-166.0	-108.0	-160.0	1
3.0.1	2019_Mar_05_1602	s	s	3	3	SIC	103	ABS	0	0	3	1	24_3_1	NA	NA	0	1	1.03208017349	None	None	None	None	1
3.0.1	2019_Mar_05_1602	s	s	3	3	SIC	104	3_4	3	4	4	2	23_4_2	-1	2	1	0	0.510405063629	184.0	-341.0	178.0	-344.0	1
3.0.1	2019_Mar_05_1602	s	s	3	3	SIC	105	ABS	0	0	1	3	24_1_3	NA	NA	0	1	1.36367511749	None	None	None	None	1
3.0.1	2019_Mar_05_1602	s	s	3	3	SIC	106	ABS	0	0	1	3	24_1_3	NA	NA	0	1	1.29300403595	None	None	None	None	1
3.0.1	2019_Mar_05_1602	s	s	3	3	SIC	107	1_4	1	4	4	2	23_4_2	3	2	1	0	0.370459079742	-151.0	81.0	-142.0	85.0	1
3.0.1	2019_Mar_05_1602	s	s	3	3	SIC	108	2_1	2	1	3	2	23_3_2	1	1	1	0	0.811305046082	526.0	263.0	536.0	262.0	1
3.0.1	2019_Mar_05_1602	s	s	3	3	SIC	109	ABS	0	0	3	1	24_3_1	NA	NA	0	1	0.869601011276	None	None	None	None	1
3.0.1	2019_Mar_05_1602	s	s	3	3	SIC	110	3_4	3	4	1	4	23_1_4	2	0	1	0	0.540426969528	12.0	-239.0	12.0	-241.0	1
3.0.1	2019_Mar_05_1602	s	s	3	3	SIC	111	4_2	4	2	4	1	23_4_1	0	-1	0	1	0.555011034012	-14.0	-136.0	None	None	0
3.0.1	2019_Mar_05_1602	s	s	3	3	SIC	112	3_4	3	4	1	1	23_1_1	2	3	1	0	0.599167108536	98.0	-135.0	100.0	-137.0	1
3.0.1	2019_Mar_05_1602	s	s	3	3	SIC	113	ABS	0	0	1	3	24_1_3	NA	NA	0	1	1.83418297768	None	None	None	None	1
3.0.1	2019_Mar_05_1602	s	s	3	3	SIC	114	ABS	0	0	4	2	24_4_2	NA	NA	0	1	1.67232203484	None	None	None	None	1
3.0.1	2019_Mar_05_1602	s	s	3	3	SIC	115	ABS	0	0	2	4	24_2_4	NA	NA	0	1	0.870075941086	None	None	None	None	1
3.0.1	2019_Mar_05_1602	s	s	3	3	SIC	116	3_3	3	3	4	2	23_4_2	-1	1	1	0	0.505063056946	-529.0	-146.0	-517.0	-139.0	1
3.0.1	2019_Mar_05_1602	s	s	3	3	SIC	117	3_1	3	1	2	1	23_2_1	1	0	1	0	0.751940011978	-335.0	19.0	-341.0	16.0	1
3.0.1	2019_Mar_05_1602	s	s	3	3	SIC	118	3_1	3	1	2	2	23_2_2	1	1	1	0	0.685672998428	238.0	-404.0	231.0	-405.0	1
3.0.1	2019_Mar_05_1602	s	s	3	3	SIC	119	2_4	2	4	3	1	23_3_1	1	3	1	0	0.416022062302	113.0	-204.0	109.0	-207.0	1
3.0.1	2019_Mar_05_1602	s	s	3	3	SIC	120	3_3	3	3	1	2	23_1_2	2	1	1	0	0.457981824875	395.0	55.0	394.0	60.0	1
3.0.1	2019_Mar_05_1602	s	s	3	3	SIC	121	3_3	3	3	2	1	23_2_1	1	2	0	1	0.76801609993	-509.0	-405.0	None	None	0
3.0.1	2019_Mar_05_1602	s	s	3	3	SIC	122	ABS	0	0	2	1	24_2_1	NA	NA	0	1	0.822602033615	None	None	None	None	1
3.0.1	2019_Mar_05_1602	s	s	3	3	SIC	123	ABS	0	0	4	4	24_4_4	NA	NA	0	1	0.869615077972	None	None	None	None	1
3.0.1	2019_Mar_05_1602	s	s	3	3	SIC	124	ABS	0	0	4	1	24_4_1	NA	NA	0	1	0.907886981964	None	None	None	None	1
3.0.1	2019_Mar_05_1602	s	s	3	3	SIC	125	ABS	0	0	2	3	24_2_3	NA	NA	0	1	0.768667936325	None	None	None	None	1
3.0.1	2019_Mar_05_1602	s	s	3	3	SIC	126	ABS	0	0	1	4	24_1_4	NA	NA	0	1	0.740273952484	None	None	None	None	1
3.0.1	2019_Mar_05_1602	s	s	3	3	SIC	127	ABS	0	0	1	2	24_1_2	NA	NA	0	1	1.11665892601	None	None	None	None	1
3.0.1	2019_Mar_05_1602	s	s	3	3	SIC	128	ABS	0	0	4	4	24_4_4	NA	NA	0	1	0.916688919067	None	None	None	None	1
3.0.1	2019_Mar_05_1602	s	s	3	3	SIC	129	3_4	3	4	2	3	23_2_3	1	1	1	0	0.674934864044	-363.0	-242.0	-357.0	-243.0	1
3.0.1	2019_Mar_05_1602	s	s	3	3	SIC	130	1_3	1	3	1	2	23_1_2	0	1	0	1	2.10945796967	-164.0	263.0	None	None	0
3.0.1	2019_Mar_05_1602	s	s	3	3	SIC	131	3_2	3	2	4	2	23_4_2	-1	0	1	0	0.473593950272	172.0	-241.0	180.0	-237.0	1
3.0.1	2019_Mar_05_1602	s	s	3	3	SIC	132	1_2	1	2	4	3	23_4_3	3	1	1	0	0.399168014526	-481.0	105.0	-486.0	109.0	1
3.0.1	2019_Mar_05_1602	s	s	3	3	SIC	133	2_3	2	3	2	1	23_2_1	0	2	1	0	0.91292309761	-224.0	80.0	-215.0	87.0	1
3.0.1	2019_Mar_05_1602	s	s	3	3	SIC	134	ABS	0	0	2	1	24_2_1	NA	NA	0	1	0.840670108795	None	None	None	None	1
3.0.1	2019_Mar_05_1602	s	s	3	3	SIC	135	ABS	0	0	4	4	24_4_4	NA	NA	0	1	0.70494890213	None	None	None	None	1
3.0.1	2019_Mar_05_1602	s	s	3	3	SIC	136	ABS	0	0	2	2	24_2_2	NA	NA	0	1	2.65735697746	None	None	None	None	1
3.0.1	2019_Mar_05_1602	s	s	3	3	SIC	137	ABS	0	0	4	1	24_4_1	NA	NA	0	1	1.445966959	None	None	None	None	1
3.0.1	2019_Mar_05_1602	s	s	3	3	SIC	138	3_1	3	1	1	2	23_1_2	2	1	1	0	0.731367111206	288.0	379.0	288.0	383.0	1
3.0.1	2019_Mar_05_1602	s	s	3	3	SIC	139	ABS	0	0	4	3	24_4_3	NA	NA	0	1	1.64580488205	None	None	None	None	1
3.0.1	2019_Mar_05_1602	s	s	3	3	SIC	140	ABS	0	0	4	4	24_4_4	NA	NA	0	1	0.987286090851	None	None	None	None	1
3.0.1	2019_Mar_05_1602	s	s	3	3	SIC	141	ABS	0	0	3	1	24_3_1	NA	NA	1	0	0.663454055786	None	None	453.0	-85.0	0
3.0.1	2019_Mar_05_1602	s	s	3	3	SIC	142	ABS	0	0	2	2	24_2_2	NA	NA	0	1	1.25167179108	None	None	None	None	1
3.0.1	2019_Mar_05_1602	s	s	3	3	SIC	143	ABS	0	0	1	3	24_1_3	NA	NA	0	1	1.99913287163	None	None	None	None	1
3.0.1	2019_Mar_05_1602	s	s	3	3	SIC	144	ABS	0	0	1	1	24_1_1	NA	NA	0	1	1.55953812599	None	None	None	None	1
3.0.1	2019_Mar_05_1602	s	s	3	3	SIC	145	1_4	1	4	3	4	23_3_4	2	0	1	0	0.869746923447	-533.0	331.0	-543.0	339.0	1
3.0.1	2019_Mar_05_1602	s	s	3	3	SIC	146	ABS	0	0	1	3	24_1_3	NA	NA	0	1	1.8811109066	None	None	None	None	1
3.0.1	2019_Mar_05_1602	s	s	3	3	SIC	147	ABS	0	0	1	3	24_1_3	NA	NA	0	1	1.42253494263	None	None	None	None	1
3.0.1	2019_Mar_05_1602	s	s	3	3	SIC	148	ABS	0	0	4	1	24_4_1	NA	NA	0	1	1.42248702049	None	None	None	None	1
3.0.1	2019_Mar_05_1602	s	s	3	3	SIC	149	ABS	0	0	3	4	24_3_4	NA	NA	0	1	1.40804314613	None	None	None	None	1
3.0.1	2019_Mar_05_1602	s	s	3	3	SIC	150	ABS	0	0	3	2	24_3_2	NA	NA	0	1	2.01556181908	None	None	None	None	1
3.0.1	2019_Mar_05_1602	s	s	3	3	SIC	151	2_4	2	4	2	3	23_2_3	0	1	1	0	0.687402963638	354.0	-119.0	351.0	-124.0	1
3.0.1	2019_Mar_05_1602	s	s	3	3	SIC	152	1_1	1	1	2	2	23_2_2	1	1	0	1	1.0842769146	-126.0	201.0	None	None	0
3.0.1	2019_Mar_05_1602	s	s	3	3	SIC	153	ABS	0	0	1	3	24_1_3	NA	NA	0	1	2.21572184563	None	None	None	None	1
3.0.1	2019_Mar_05_1602	s	s	3	3	SIC	154	3_3	3	3	4	3	23_4_3	-1	0	1	0	0.497208118439	509.0	-174.0	518.0	-176.0	1
3.0.1	2019_Mar_05_1602	s	s	3	3	SIC	155	ABS	0	0	4	3	24_4_3	NA	NA	0	1	0.999032974243	None	None	None	None	1
3.0.1	2019_Mar_05_1602	s	s	3	3	SIC	156	ABS	0	0	4	1	24_4_1	NA	NA	0	1	1.32841205597	None	None	None	None	1
3.0.1	2019_Mar_05_1602	s	s	3	3	SIC	157	ABS	0	0	1	4	24_1_4	NA	NA	0	1	1.14309501648	None	None	None	None	1
3.0.1	2019_Mar_05_1602	s	s	3	3	SIC	158	ABS	0	0	1	3	24_1_3	NA	NA	0	1	1.43420982361	None	None	None	None	1
3.0.1	2019_Mar_05_1602	s	s	3	3	SIC	159	ABS	0	0	2	1	24_2_1	NA	NA	0	1	1.4864089489	None	None	None	None	1
3.0.1	2019_Mar_05_1602	s	s	3	3	SIC	160	4_1	4	1	3	3	23_3_3	1	2	1	0	0.458055019379	470.0	294.0	475.0	299.0	1
3.0.1	2019_Mar_05_1602	s	s	3	3	SIC	161	ABS	0	0	2	1	24_2_1	NA	NA	0	1	0.728580951691	None	None	None	None	1
3.0.1	2019_Mar_05_1602	s	s	3	3	SIC	162	ABS	0	0	4	2	24_4_2	NA	NA	0	1	0.708774805069	None	None	None	None	1
3.0.1	2019_Mar_05_1602	s	s	3	3	SIC	163	ABS	0	0	1	4	24_1_4	NA	NA	0	1	0.91429400444	None	None	None	None	1
3.0.1	2019_Mar_05_1602	s	s	3	3	SIC	164	ABS	0	0	3	4	24_3_4	NA	NA	0	1	0.928473949432	None	None	None	None	1
3.0.1	2019_Mar_05_1602	s	s	3	3	SIC	165	3_3	3	3	4	4	23_4_4	-1	-1	1	0	0.704870939255	-351.0	-23.0	-356.0	-23.0	1
3.0.1	2019_Mar_05_1602	s	s	3	3	SIC	166	ABS	0	0	2	4	24_2_4	NA	NA	0	1	0.840886831284	None	None	None	None	1
3.0.1	2019_Mar_05_1602	s	s	3	3	SIC	167	2_4	2	4	4	1	23_4_1	2	3	1	0	0.429358959198	48.0	-189.0	47.0	-185.0	1
3.0.1	2019_Mar_05_1602	s	s	3	3	SIC	168	ABS	0	0	3	4	24_3_4	NA	NA	0	1	0.94020318985	None	None	None	None	1
3.0.1	2019_Mar_05_1602	s	s	3	3	SIC	169	2_1	2	1	1	2	23_1_2	-1	1	1	0	1.0503180027	110.0	-180.0	110.0	-180.0	1
3.0.1	2019_Mar_05_1602	s	s	3	3	SIC	170	ABS	0	0	3	4	24_3_4	NA	NA	0	1	0.999118089676	None	None	None	None	1
3.0.1	2019_Mar_05_1602	s	s	3	3	SIC	171	4_2	4	2	2	1	23_2_1	2	-1	1	0	0.328529119492	70.0	56.0	76.0	57.0	1
3.0.1	2019_Mar_05_1602	s	s	3	3	SIC	172	ABS	0	0	3	4	24_3_4	NA	NA	0	1	0.913885831833	None	None	None	None	1
3.0.1	2019_Mar_05_1602	s	s	3	3	SIC	173	1_3	1	3	2	4	23_2_4	1	-1	1	0	0.681488990784	-446.0	135.0	-454.0	141.0	1
3.0.1	2019_Mar_05_1602	s	s	3	3	SIC	174	ABS	0	0	4	4	24_4_4	NA	NA	0	1	0.63441991806	None	None	None	None	1
3.0.1	2019_Mar_05_1602	s	s	3	3	SIC	175	ABS	0	0	2	4	24_2_4	NA	NA	0	1	0.763860940933	None	None	None	None	1
3.0.1	2019_Mar_05_1602	s	s	3	3	SIC	176	ABS	0	0	3	3	24_3_3	NA	NA	0	1	0.66216802597	None	None	None	None	1
3.0.1	2019_Mar_05_1602	s	s	3	3	SIC	177	4_2	4	2	1	1	23_1_1	3	-1	1	0	0.429026842117	138.0	-373.0	130.0	-374.0	1
3.0.1	2019_Mar_05_1602	s	s	3	3	SIC	178	1_2	1	2	1	3	23_1_3	0	1	1	0	2.01691102982	406.0	346.0	405.0	355.0	1
3.0.1	2019_Mar_05_1602	s	s	3	3	SIC	179	ABS	0	0	2	3	24_2_3	NA	NA	0	1	2.12814688683	None	None	None	None	1
3.0.1	2019_Mar_05_1602	s	s	3	3	SIC	180	ABS	0	0	3	1	24_3_1	NA	NA	0	1	1.61351895332	None	None	None	None	1
3.0.1	2019_Mar_05_1602	s	s	3	3	SIC	181	4_1	4	1	2	4	23_2_4	2	3	1	0	0.399178028107	26.0	-53.0	39.0	-45.0	1
3.0.1	2019_Mar_05_1602	s	s	3	3	SIC	182	ABS	0	0	1	2	24_1_2	NA	NA	0	1	0.946413993835	None	None	None	None	1
3.0.1	2019_Mar_05_1602	s	s	3	3	SIC	183	ABS	0	0	3	2	24_3_2	NA	NA	0	1	1.63420009613	None	None	None	None	1
3.0.1	2019_Mar_05_1602	s	s	3	3	SIC	184	ABS	0	0	2	3	24_2_3	NA	NA	0	1	1.22762703896	None	None	None	None	1
3.0.1	2019_Mar_05_1602	s	s	3	3	SIC	185	ABS	0	0	2	1	24_2_1	NA	NA	0	1	1.08428406715	None	None	None	None	1
3.0.1	2019_Mar_05_1602	s	s	3	3	SIC	186	2_1	2	1	4	1	23_4_1	2	0	1	0	0.45096206665	155.0	-113.0	154.0	-113.0	1
3.0.1	2019_Mar_05_1602	s	s	3	3	SIC	187	1_3	1	3	4	1	23_4_1	3	2	1	0	0.460928916931	-525.0	188.0	-530.0	179.0	1
3.0.1	2019_Mar_05_1602	s	s	3	3	SIC	188	ABS	0	0	2	4	24_2_4	NA	NA	0	1	0.781455039978	None	None	None	None	1
3.0.1	2019_Mar_05_1602	s	s	3	3	SIC	189	ABS	0	0	3	3	24_3_3	NA	NA	0	1	0.834401845932	None	None	None	None	1
3.0.1	2019_Mar_05_1602	s	s	3	3	SIC	190	1_4	1	4	1	2	23_1_2	0	2	1	0	0.673570871353	-150.0	-15.0	-146.0	-19.0	1
3.0.1	2019_Mar_05_1602	s	s	3	3	SIC	191	ABS	0	0	3	4	24_3_4	NA	NA	0	1	1.2664539814	None	None	None	None	1
3.0.1	2019_Mar_05_1602	s	s	3	3	SIC	192	4_2	4	2	4	4	23_4_4	0	2	1	0	0.952044010162	-183.0	400.0	-181.0	410.0	1
3.0.1	2019_Mar_05_1602	s	s	3	3	SIC	193	ABS	0	0	1	4	24_1_4	NA	NA	0	1	1.10755181313	None	None	None	None	1
3.0.1	2019_Mar_05_1602	s	s	3	3	SIC	194	ABS	0	0	4	3	24_4_3	NA	NA	0	1	1.37007808685	None	None	None	None	1
3.0.1	2019_Mar_05_1602	s	s	3	3	SIC	195	4_3	4	3	1	3	23_1_3	3	0	1	0	0.443075180054	239.0	284.0	235.0	284.0	1
3.0.1	2019_Mar_05_1602	s	s	3	3	SIC	196	1_4	1	4	3	1	23_3_1	2	3	1	0	0.46079492569	180.0	-210.0	186.0	-208.0	1
3.0.1	2019_Mar_05_1602	s	s	3	3	SIC	197	2_4	2	4	3	3	23_3_3	1	1	1	0	0.681481838226	-516.0	-193.0	-524.0	-199.0	1
3.0.1	2019_Mar_05_1602	s	s	3	3	SIC	198	ABS	0	0	1	1	24_1_1	NA	NA	0	1	1.31667709351	None	None	None	None	1
3.0.1	2019_Mar_05_1602	s	s	3	3	SIC	199	ABS	0	0	4	4	24_4_4	NA	NA	0	1	0.672618865967	None	None	None	None	1
3.0.1	2019_Mar_05_1602	s	s	3	3	SIC	200	4_2	4	2	2	2	23_2_2	2	0	1	0	0.481491088867	350.0	397.0	343.0	398.0	1
3.0.1	2019_Mar_05_1602	s	s	3	3	SIC	201	1_2	1	2	4	2	23_4_2	3	0	1	0	0.555165052414	-524.0	132.0	-527.0	134.0	1
3.0.1	2019_Mar_05_1602	s	s	3	3	SIC	202	4_4	4	4	3	3	23_3_3	1	1	1	0	0.496153831482	-295.0	-104.0	-289.0	-100.0	1
3.0.1	2019_Mar_05_1602	s	s	3	3	SIC	203	4_1	4	1	2	1	23_2_1	2	0	1	0	0.687698841095	365.0	168.0	363.0	173.0	1
3.0.1	2019_Mar_05_1602	s	s	3	3	SIC	204	ABS	0	0	3	1	24_3_1	NA	NA	0	1	1.17972111702	None	None	None	None	1
3.0.1	2019_Mar_05_1602	s	s	3	3	SIC	205	4_2	4	2	4	3	23_4_3	0	1	1	0	1.14306592941	44.0	-167.0	47.0	-168.0	1
3.0.1	2019_Mar_05_1602	s	s	3	3	SIC	206	ABS	0	0	4	4	24_4_4	NA	NA	0	1	1.27490091324	None	None	None	None	1
3.0.1	2019_Mar_05_1602	s	s	3	3	SIC	207	ABS	0	0	4	2	24_4_2	NA	NA	0	1	1.69792890549	None	None	None	None	1
3.0.1	2019_Mar_05_1602	s	s	3	3	SIC	208	2_2	2	2	4	1	23_4_1	2	-1	1	0	0.510643005371	-176.0	-319.0	-172.0	-322.0	1
3.0.1	2019_Mar_05_1602	s	s	3	3	SIC	209	ABS	0	0	4	4	24_4_4	NA	NA	0	1	1.46946191788	None	None	None	None	1
3.0.1	2019_Mar_05_1602	s	s	3	3	SIC	210	1_4	1	4	4	1	23_4_1	3	3	1	0	0.446491003036	-52.0	-115.0	-54.0	-112.0	1
3.0.1	2019_Mar_05_1602	s	s	3	3	SIC	211	4_2	4	2	3	4	23_3_4	1	2	1	0	0.442271947861	-287.0	-224.0	-295.0	-219.0	1
3.0.1	2019_Mar_05_1602	s	s	3	3	SIC	212	2_2	2	2	1	2	23_1_2	-1	0	0	1	1.03961706161	249.0	-270.0	None	None	0
3.0.1	2019_Mar_05_1602	s	s	3	3	SIC	213	4_2	4	2	1	4	23_1_4	3	2	1	0	0.387438058853	-356.0	-305.0	-356.0	-306.0	1
3.0.1	2019_Mar_05_1602	s	s	3	3	SIC	214	1_3	1	3	3	4	23_3_4	2	-1	1	0	0.555058956146	-194.0	365.0	-198.0	363.0	1
3.0.1	2019_Mar_05_1602	s	s	3	3	SIC	215	ABS	0	0	2	3	24_2_3	NA	NA	0	1	1.65107488632	None	None	None	None	1
3.0.1	2019_Mar_05_1602	s	s	3	3	SIC	216	3_4	3	4	4	4	23_4_4	-1	0	1	0	0.443646192551	462.0	134.0	461.0	131.0	1
3.0.1	2019_Mar_05_1602	s	s	3	3	SIC	217	1_2	1	2	1	1	23_1_1	0	-1	1	0	0.952034950256	-309.0	203.0	-310.0	202.0	1
3.0.1	2019_Mar_05_1602	s	s	3	3	SIC	218	ABS	0	0	2	4	24_2_4	NA	NA	0	1	1.06188488007	None	None	None	None	1
3.0.1	2019_Mar_05_1602	s	s	3	3	SIC	219	1_3	1	3	1	1	23_1_1	0	2	1	0	0.698729038239	-180.0	167.0	-173.0	166.0	1
3.0.1	2019_Mar_05_1602	s	s	3	3	SIC	220	3_3	3	3	3	1	23_3_1	0	2	1	0	1.05784106255	-526.0	-197.0	-522.0	-188.0	1
3.0.1	2019_Mar_05_1602	s	s	3	3	SIC	221	1_3	1	3	4	3	23_4_3	3	0	1	0	0.437391996384	-487.0	-213.0	-482.0	-218.0	1
3.0.1	2019_Mar_05_1602	s	s	3	3	SIC	222	2_4	2	4	3	2	23_3_2	1	2	1	0	0.43741607666	-323.0	-119.0	-320.0	-125.0	1
3.0.1	2019_Mar_05_1602	s	s	3	3	SIC	223	4_4	4	4	4	1	23_4_1	0	3	1	0	0.469808101654	290.0	331.0	287.0	329.0	1
3.0.1	2019_Mar_05_1602	s	s	3	3	SIC	224	ABS	0	0	4	3	24_4_3	NA	NA	0	1	1.66246509552	None	None	None	None	1
3.0.1	2019_Mar_05_1602	s	s	3	3	SIC	225	4_4	4	4	3	4	23_3_4	1	0	1	0	0.403640031815	347.0	12.0	354.0	11.0	1
3.0.1	2019_Mar_05_1602	s	s	3	3	SIC	226	4_3	4	3	2	4	23_2_4	2	-1	1	0	0.357997894287	-482.0	-157.0	-490.0	-155.0	1
3.0.1	2019_Mar_05_1602	s	s	3	3	SIC	227	4_3	4	3	1	1	23_1_1	3	2	1	0	0.352077960968	486.0	262.0	485.0	262.0	1
3.0.1	2019_Mar_05_1602	s	s	3	3	SIC	228	ABS	0	0	1	2	24_1_2	NA	NA	0	1	2.5918200016	None	None	None	None	1
3.0.1	2019_Mar_05_1602	s	s	3	3	SIC	229	ABS	0	0	3	1	24_3_1	NA	NA	0	1	1.03214788437	None	None	None	None	1
3.0.1	2019_Mar_05_1602	s	s	3	3	SIC	230	1_2	1	2	2	3	23_2_3	1	1	1	0	1.674254179	440.0	-345.0	439.0	-350.0	1
3.0.1	2019_Mar_05_1602	s	s	3	3	SIC	231	ABS	0	0	2	2	24_2_2	NA	NA	0	1	1.22539186478	None	None	None	None	1
3.0.1	2019_Mar_05_1602	s	s	3	3	SIC	232	4_1	4	1	1	4	23_1_4	3	3	1	0	0.370452165604	-41.0	188.0	-45.0	184.0	1
3.0.1	2019_Mar_05_1602	s	s	3	3	SIC	233	4_1	4	1	1	2	23_1_2	3	1	1	0	0.363924026489	231.0	-230.0	237.0	-236.0	1
3.0.1	2019_Mar_05_1602	s	s	3	3	SIC	234	2_1	2	1	2	4	23_2_4	0	3	1	0	0.587382078171	193.0	263.0	185.0	264.0	1
3.0.1	2019_Mar_05_1602	s	s	3	3	SIC	235	2_2	2	2	4	2	23_4_2	2	0	1	0	0.382272005081	-363.0	211.0	-367.0	205.0	1
3.0.1	2019_Mar_05_1602	s	s	3	3	SIC	236	4_4	4	4	1	3	23_1_3	3	1	1	0	0.363924026489	-84.0	-267.0	-76.0	-263.0	1
3.0.1	2019_Mar_05_1602	s	s	3	3	SIC	237	4_2	4	2	3	1	23_3_1	1	-1	1	0	0.363948822021	310.0	96.0	301.0	97.0	1
3.0.1	2019_Mar_05_1602	s	s	3	3	SIC	238	ABS	0	0	3	4	24_3_4	NA	NA	0	1	0.886684894562	None	None	None	None	1
3.0.1	2019_Mar_05_1602	s	s	3	3	SIC	239	ABS	0	0	1	2	24_1_2	NA	NA	0	1	1.79877686501	None	None	None	None	1
3.0.1	2019_Mar_05_1602	s	s	3	3	SIC	240	2_3	2	3	3	2	23_3_2	1	1	1	0	0.510226964951	-371.0	-121.0	-368.0	-111.0	1
3.0.1	2019_Mar_05_1602	s	s	3	3	SIC	241	ABS	0	0	2	1	24_2_1	NA	NA	0	1	0.999042034149	None	None	None	None	1
3.0.1	2019_Mar_05_1602	s	s	3	3	SIC	242	4_1	4	1	1	1	23_1_1	3	0	1	0	0.469954013824	296.0	-103.0	304.0	-97.0	1
3.0.1	2019_Mar_05_1602	s	s	3	3	SIC	243	2_1	2	1	1	4	23_1_4	-1	3	1	0	0.457936048508	414.0	107.0	415.0	110.0	1
3.0.1	2019_Mar_05_1602	s	s	3	3	SIC	244	1_1	1	1	2	3	23_2_3	1	2	0	1	1.08455705643	456.0	276.0	None	None	0
3.0.1	2019_Mar_05_1602	s	s	3	3	SIC	245	ABS	0	0	1	4	24_1_4	NA	NA	0	1	0.917104959488	None	None	None	None	1
3.0.1	2019_Mar_05_1602	s	s	3	3	SIC	246	4_1	4	1	1	3	23_1_3	3	2	1	0	0.410955905914	255.0	-57.0	247.0	-48.0	1
3.0.1	2019_Mar_05_1602	s	s	3	3	SIC	247	ABS	0	0	1	3	24_1_3	NA	NA	0	1	1.30833005905	None	None	None	None	1
3.0.1	2019_Mar_05_1602	s	s	3	3	SIC	248	2_2	2	2	3	3	23_3_3	1	1	1	0	1.08425998688	-400.0	-314.0	-390.0	-309.0	1
3.0.1	2019_Mar_05_1602	s	s	3	3	SIC	249	2_3	2	3	2	4	23_2_4	0	-1	1	0	0.587373018265	-74.0	265.0	-67.0	270.0	1
3.0.1	2019_Mar_05_1602	s	s	3	3	SIC	250	ABS	0	0	4	1	24_4_1	NA	NA	0	1	1.11007380486	None	None	None	None	1
3.0.1	2019_Mar_05_1602	s	s	3	3	SIC	251	1_3	1	3	3	3	23_3_3	2	0	1	0	0.496160030365	-92.0	252.0	-91.0	258.0	1
3.0.1	2019_Mar_05_1602	s	s	3	3	SIC	252	ABS	0	0	3	4	24_3_4	NA	NA	0	1	0.826771974564	None	None	None	None	1
3.0.1	2019_Mar_05_1602	s	s	3	3	SIC	253	ABS	0	0	4	3	24_4_3	NA	NA	0	1	1.03478288651	None	None	None	None	1
3.0.1	2019_Mar_05_1602	s	s	3	3	SIC	254	ABS	0	0	1	1	24_1_1	NA	NA	0	1	1.04604101181	None	None	None	None	1
3.0.1	2019_Mar_05_1602	s	s	3	3	SIC	255	2_2	2	2	3	4	23_3_4	1	2	1	0	0.516793012619	-33.0	297.0	-29.0	297.0	1
3.0.1	2019_Mar_05_1602	s	s	3	3	SIC	256	4_3	4	3	4	4	23_4_4	0	-1	1	0	0.599137067795	367.0	32.0	367.0	36.0	1
3.0.1	2019_Mar_05_1602	s	s	3	3	SIC	257	3_1	3	1	2	3	23_2_3	1	2	1	0	0.556905984879	493.0	-71.0	494.0	-75.0	1
3.0.1	2019_Mar_05_1602	s	s	3	3	SIC	258	ABS	0	0	2	2	24_2_2	NA	NA	0	1	1.27551484108	None	None	None	None	1
3.0.1	2019_Mar_05_1602	s	s	3	3	SIC	259	3_4	3	4	2	2	23_2_2	1	2	1	0	0.474053144455	145.0	-183.0	152.0	-177.0	1
3.0.1	2019_Mar_05_1602	s	s	3	3	SIC	260	2_2	2	2	2	4	23_2_4	0	2	1	0	0.516777992249	-75.0	241.0	-73.0	248.0	1
3.0.1	2019_Mar_05_1602	s	s	3	3	SIC	261	ABS	0	0	4	3	24_4_3	NA	NA	0	1	1.4514169693	None	None	None	None	1
3.0.1	2019_Mar_05_1602	s	s	3	3	SIC	262	ABS	0	0	3	4	24_3_4	NA	NA	0	1	0.731438875198	None	None	None	None	1
3.0.1	2019_Mar_05_1602	s	s	3	3	SIC	263	1_2	1	2	4	1	23_4_1	3	-1	1	0	0.422775030136	202.0	-218.0	206.0	-219.0	1
3.0.1	2019_Mar_05_1602	s	s	3	3	SIC	264	1_3	1	3	4	2	23_4_2	3	1	1	0	0.416275978088	204.0	-5.0	210.0	-4.0	1
3.0.1	2019_Mar_05_1602	s	s	3	3	SIC	265	1_3	1	3	4	4	23_4_4	3	-1	1	0	0.346781015396	-337.0	-17.0	-342.0	-22.0	1
3.0.1	2019_Mar_05_1602	s	s	3	3	SIC	266	ABS	0	0	1	2	24_1_2	NA	NA	0	1	0.957153081894	None	None	None	None	1
3.0.1	2019_Mar_05_1602	s	s	3	3	SIC	267	ABS	0	0	1	2	24_1_2	NA	NA	0	1	0.549627065659	None	None	None	None	1
3.0.1	2019_Mar_05_1602	s	s	3	3	SIC	268	2_1	2	1	4	2	23_4_2	2	1	1	0	0.826663017273	-96.0	65.0	-96.0	68.0	1
3.0.1	2019_Mar_05_1602	s	s	3	3	SIC	269	ABS	0	0	4	4	24_4_4	NA	NA	0	1	0.580968856812	None	None	None	None	1
3.0.1	2019_Mar_05_1602	s	s	3	3	SIC	270	3_2	3	2	2	1	23_2_1	1	-1	1	0	1.04607605934	164.0	-409.0	166.0	-415.0	1
3.0.1	2019_Mar_05_1602	s	s	3	3	SIC	271	3_2	3	2	2	3	23_2_3	1	1	1	0	1.38721013069	-410.0	146.0	-411.0	149.0	1
3.0.1	2019_Mar_05_1602	s	s	3	3	SIC	272	ABS	0	0	3	2	24_3_2	NA	NA	0	1	0.945271015167	None	None	None	None	1
3.0.1	2019_Mar_05_1602	s	s	3	3	SIC	273	4_1	4	1	3	2	23_3_2	1	1	1	0	0.439395904541	305.0	352.0	301.0	356.0	1
3.0.1	2019_Mar_05_1602	s	s	3	3	SIC	274	ABS	0	0	4	2	24_4_2	NA	NA	0	1	0.81084895134	None	None	None	None	1
3.0.1	2019_Mar_05_1602	s	s	3	3	SIC	275	2_1	2	1	3	1	23_3_1	1	0	1	0	0.451150178909	278.0	58.0	280.0	56.0	1
3.0.1	2019_Mar_05_1602	s	s	3	3	SIC	276	2_4	2	4	1	1	23_1_1	-1	3	1	0	0.533730983734	522.0	-88.0	528.0	-85.0	1
3.0.1	2019_Mar_05_1602	s	s	3	3	SIC	277	ABS	0	0	1	1	24_1_1	NA	NA	0	1	0.722955226898	None	None	None	None	1
3.0.1	2019_Mar_05_1602	s	s	3	3	SIC	278	3_1	3	1	4	2	23_4_2	-1	1	1	0	0.422779083252	-167.0	247.0	-158.0	252.0	1
3.0.1	2019_Mar_05_1602	s	s	3	3	SIC	279	4_3	4	3	3	2	23_3_2	1	1	1	0	0.369562149048	152.0	83.0	151.0	79.0	1
3.0.1	2019_Mar_05_1602	s	s	3	3	SIC	280	ABS	0	0	4	4	24_4_4	NA	NA	0	1	0.848999977112	None	None	None	None	1
3.0.1	2019_Mar_05_1602	s	s	3	3	SIC	281	ABS	0	0	4	1	24_4_1	NA	NA	0	1	0.881499052048	None	None	None	None	1
3.0.1	2019_Mar_05_1602	s	s	3	3	SIC	282	ABS	0	0	2	3	24_2_3	NA	NA	0	1	0.893236160278	None	None	None	None	1
3.0.1	2019_Mar_05_1602	s	s	3	3	SIC	283	2_3	2	3	1	2	23_1_2	-1	1	0	1	0.881497859955	-496.0	-367.0	None	None	0
3.0.1	2019_Mar_05_1602	s	s	3	3	SIC	284	ABS	0	0	4	1	24_4_1	NA	NA	0	1	1.20673918724	None	None	None	None	1
3.0.1	2019_Mar_05_1602	s	s	3	3	SIC	285	1_1	1	1	3	3	23_3_3	2	2	1	0	0.410962104797	-182.0	297.0	-173.0	300.0	1
3.0.1	2019_Mar_05_1602	s	s	3	3	SIC	286	ABS	0	0	1	1	24_1_1	NA	NA	0	1	0.913424015045	None	None	None	None	1
3.0.1	2019_Mar_05_1602	s	s	3	3	SIC	287	ABS	0	0	4	2	24_4_2	NA	NA	0	1	0.896080970764	None	None	None	None	1
3.0.1	2019_Mar_05_1602	s	s	3	3	SIC	288	4_2	4	2	2	4	23_2_4	2	2	1	0	0.411062955856	-159.0	224.0	-154.0	221.0	1
3.0.1	2019_Mar_05_1602	s	s	3	3	SIC	289	ABS	0	0	4	3	24_4_3	NA	NA	0	1	0.731445074081	None	None	None	None	1
3.0.1	2019_Mar_05_1602	s	s	3	3	SIC	290	1_2	1	2	2	1	23_2_1	1	-1	0	1	0.872440099716	210.0	260.0	None	None	0
3.0.1	2019_Mar_05_1602	s	s	3	3	SIC	291	3_3	3	3	2	4	23_2_4	1	-1	1	0	0.672713041306	-514.0	-311.0	-500.0	-305.0	1
3.0.1	2019_Mar_05_1602	s	s	3	3	SIC	292	3_1	3	1	4	1	23_4_1	-1	0	1	0	0.429188013077	-307.0	208.0	-296.0	208.0	1
3.0.1	2019_Mar_05_1602	s	s	3	3	SIC	293	1_1	1	1	2	1	23_2_1	1	0	0	1	0.940252065659	-225.0	17.0	None	None	0
3.0.1	2019_Mar_05_1602	s	s	3	3	SIC	294	ABS	0	0	1	3	24_1_3	NA	NA	0	1	0.92848610878	None	None	None	None	1
3.0.1	2019_Mar_05_1602	s	s	3	3	SIC	295	4_4	4	4	3	2	23_3_2	1	2	1	0	0.620043039322	16.0	-411.0	23.0	-417.0	1
3.0.1	2019_Mar_05_1602	s	s	3	3	SIC	296	3_1	3	1	3	4	23_3_4	0	3	1	0	0.613816022873	-47.0	374.0	-46.0	365.0	1
3.0.1	2019_Mar_05_1602	s	s	3	3	SIC	297	ABS	0	0	2	2	24_2_2	NA	NA	0	1	1.41700196266	None	None	None	None	1
3.0.1	2019_Mar_05_1602	s	s	3	3	SIC	298	ABS	0	0	1	4	24_1_4	NA	NA	0	1	0.751945972443	None	None	None	None	1
3.0.1	2019_Mar_05_1602	s	s	3	3	SIC	299	3_3	3	3	1	3	23_1_3	2	0	1	0	0.768165111542	-391.0	159.0	-388.0	164.0	1
3.0.1	2019_Mar_05_1602	s	s	3	3	SIC	300	1_3	1	3	2	1	23_2_1	1	2	1	0	0.88139295578	36.0	53.0	36.0	44.0	1
3.0.1	2019_Mar_05_1602	s	s	3	3	SIC	301	ABS	0	0	3	3	24_3_3	NA	NA	0	1	1.20187807083	None	None	None	None	1
3.0.1	2019_Mar_05_1602	s	s	3	3	SIC	302	2_4	2	4	1	3	23_1_3	-1	1	1	0	1.18052196503	-297.0	-356.0	-288.0	-359.0	1
3.0.1	2019_Mar_05_1602	s	s	3	3	SIC	303	3_1	3	1	2	4	23_2_4	1	3	1	0	0.555010080338	503.0	-150.0	504.0	-154.0	1
3.0.1	2019_Mar_05_1602	s	s	3	3	SIC	304	2_3	2	3	4	1	23_4_1	2	2	1	0	0.369029998779	263.0	-202.0	255.0	-207.0	1
3.0.1	2019_Mar_05_1602	s	s	3	3	SIC	305	ABS	0	0	3	3	24_3_3	NA	NA	0	1	1.46953511238	None	None	None	None	1
3.0.1	2019_Mar_05_1602	s	s	3	3	SIC	306	1_4	1	4	4	4	23_4_4	3	0	1	0	0.457956075668	416.0	276.0	416.0	279.0	1
3.0.1	2019_Mar_05_1602	s	s	3	3	SIC	307	ABS	0	0	2	4	24_2_4	NA	NA	0	1	1.05783510208	None	None	None	None	1
3.0.1	2019_Mar_05_1602	s	s	3	3	SIC	308	ABS	0	0	1	1	24_1_1	NA	NA	0	1	0.982017993927	None	None	None	None	1
3.0.1	2019_Mar_05_1602	s	s	3	3	SIC	309	ABS	0	0	3	3	24_3_3	NA	NA	0	1	0.881403207779	None	None	None	None	1
3.0.1	2019_Mar_05_1602	s	s	3	3	SIC	310	4_4	4	4	1	1	23_1_1	3	3	1	0	0.363929033279	462.0	386.0	454.0	393.0	1
3.0.1	2019_Mar_05_1602	s	s	3	3	SIC	311	ABS	0	0	1	2	24_1_2	NA	NA	0	1	1.14874410629	None	None	None	None	1
3.0.1	2019_Mar_05_1602	s	s	3	3	SIC	312	ABS	0	0	2	2	24_2_2	NA	NA	0	1	0.992388010025	None	None	None	None	1
3.0.1	2019_Mar_05_1602	s	s	3	3	SIC	313	ABS	0	0	1	2	24_1_2	NA	NA	0	1	0.89847612381	None	None	None	None	1
3.0.1	2019_Mar_05_1602	s	s	3	3	SIC	314	ABS	0	0	3	1	24_3_1	NA	NA	0	1	1.19243407249	None	None	None	None	1
3.0.1	2019_Mar_05_1602	s	s	3	3	SIC	315	ABS	0	0	4	2	24_4_2	NA	NA	0	1	1.84870910645	None	None	None	None	1
3.0.1	2019_Mar_05_1602	s	s	3	3	SIC	316	ABS	0	0	3	2	24_3_2	NA	NA	0	1	2.10454106331	None	None	None	None	1
3.0.1	2019_Mar_05_1602	s	s	3	3	SIC	317	3_2	3	2	4	4	23_4_4	-1	2	1	0	0.45045208931	309.0	274.0	310.0	269.0	1
3.0.1	2019_Mar_05_1602	s	s	3	3	SIC	318	ABS	0	0	1	3	24_1_3	NA	NA	0	1	2.07436203957	None	None	None	None	1
3.0.1	2019_Mar_05_1602	s	s	3	3	SIC	319	ABS	0	0	3	4	24_3_4	NA	NA	0	1	1.11653995514	None	None	None	None	1
3.0.1	2019_Mar_05_1602	s	s	3	3	SIC	320	ABS	0	0	4	4	24_4_4	NA	NA	0	1	0.64617395401	None	None	None	None	1
3.0.1	2019_Mar_05_1602	s	s	3	3	SIC	321	ABS	0	0	2	1	24_2_1	NA	NA	0	1	0.993590116501	None	None	None	None	1
3.0.1	2019_Mar_05_1602	s	s	3	3	SIC	322	1_1	1	1	1	2	23_1_2	0	1	1	0	1.55471420288	272.0	-44.0	262.0	-44.0	1
3.0.1	2019_Mar_05_1602	s	s	3	3	SIC	323	2_4	2	4	4	2	23_4_2	2	2	1	0	0.509837865829	455.0	395.0	452.0	405.0	1
3.0.1	2019_Mar_05_1602	s	s	3	3	SIC	324	4_4	4	4	1	2	23_1_2	3	2	1	0	0.352161884308	-21.0	-17.0	-17.0	-15.0	1
3.0.1	2019_Mar_05_1602	s	s	3	3	SIC	325	ABS	0	0	1	1	24_1_1	NA	NA	0	1	0.862424135208	None	None	None	None	1
3.0.1	2019_Mar_05_1602	s	s	3	3	SIC	326	ABS	0	0	2	2	24_2_2	NA	NA	0	1	4.2333240509	None	None	None	None	1
3.0.1	2019_Mar_05_1602	s	s	3	3	SIC	327	3_4	3	4	3	2	23_3_2	0	2	1	0	0.473973989487	234.0	-105.0	236.0	-109.0	1
3.0.1	2019_Mar_05_1602	s	s	3	3	SIC	328	4_4	4	4	4	3	23_4_3	0	1	1	0	1.76347303391	-463.0	325.0	-459.0	330.0	1
3.0.1	2019_Mar_05_1602	s	s	3	3	SIC	329	4_1	4	1	4	2	23_4_2	0	1	1	0	1.17543792725	-404.0	-76.0	-410.0	-70.0	1
3.0.1	2019_Mar_05_1602	s	s	3	3	SIC	330	2_1	2	1	3	3	23_3_3	1	2	1	0	0.716803073883	-454.0	-314.0	-453.0	-319.0	1
3.0.1	2019_Mar_05_1602	s	s	3	3	SIC	331	3_2	3	2	2	4	23_2_4	1	2	1	0	0.516891956329	77.0	357.0	86.0	356.0	1
3.0.1	2019_Mar_05_1602	s	s	3	3	SIC	332	ABS	0	0	4	1	24_4_1	NA	NA	0	1	1.35190320015	None	None	None	None	1
3.0.1	2019_Mar_05_1602	s	s	3	3	SIC	333	ABS	0	0	2	3	24_2_3	NA	NA	0	1	1.58102488518	None	None	None	None	1
3.0.1	2019_Mar_05_1602	s	s	3	3	SIC	334	ABS	0	0	2	2	24_2_2	NA	NA	0	1	1.76355910301	None	None	None	None	1
3.0.1	2019_Mar_05_1602	s	s	3	3	SIC	335	ABS	0	0	1	2	24_1_2	NA	NA	0	1	1.41067194939	None	None	None	None	1
3.0.1	2019_Mar_05_1602	s	s	3	3	SIC	336	ABS	0	0	2	2	24_2_2	NA	NA	0	1	1.59195899963	None	None	None	None	1
3.0.1	2019_Mar_05_1602	s	s	3	3	SIC	337	ABS	0	0	3	2	24_3_2	NA	NA	0	1	1.01986098289	None	None	None	None	1
3.0.1	2019_Mar_05_1602	s	s	3	3	SIC	338	2_2	2	2	1	4	23_1_4	-1	2	1	0	0.698000907898	-337.0	-346.0	-348.0	-345.0	1
3.0.1	2019_Mar_05_1602	s	s	3	3	SIC	339	ABS	0	0	2	4	24_2_4	NA	NA	1	0	1.28613495827	None	None	-449.0	342.0	0
3.0.1	2019_Mar_05_1602	s	s	3	3	SIC	340	4_4	4	4	2	2	23_2_2	2	2	1	0	0.481580018997	-412.0	-154.0	-423.0	-151.0	1
3.0.1	2019_Mar_05_1602	s	s	3	3	SIC	341	2_3	2	3	4	3	23_4_3	2	0	1	0	0.437386989594	-400.0	260.0	-405.0	269.0	1
3.0.1	2019_Mar_05_1602	s	s	3	3	SIC	342	ABS	0	0	3	4	24_3_4	NA	NA	0	1	0.951960086823	None	None	None	None	1
3.0.1	2019_Mar_05_1602	s	s	3	3	SIC	343	1_1	1	1	4	1	23_4_1	3	0	1	0	0.399152040482	424.0	-105.0	422.0	-98.0	1
3.0.1	2019_Mar_05_1602	s	s	3	3	SIC	344	ABS	0	0	3	2	24_3_2	NA	NA	0	1	0.780657052994	None	None	None	None	1
3.0.1	2019_Mar_05_1602	s	s	3	3	SIC	345	1_2	1	2	3	4	23_3_4	2	2	1	0	0.646223068237	89.0	186.0	92.0	188.0	1
3.0.1	2019_Mar_05_1602	s	s	3	3	SIC	346	ABS	0	0	3	1	24_3_1	NA	NA	0	1	0.673005104065	None	None	None	None	1
3.0.1	2019_Mar_05_1602	s	s	3	3	SIC	347	1_3	1	3	2	2	23_2_2	1	1	0	1	0.732393980026	48.0	-223.0	None	None	0
3.0.1	2019_Mar_05_1602	s	s	3	3	SIC	348	4_3	4	3	4	2	23_4_2	0	1	1	0	1.2754881382	-492.0	-124.0	-491.0	-123.0	1
3.0.1	2019_Mar_05_1602	s	s	3	3	SIC	349	1_1	1	1	3	4	23_3_4	2	3	1	0	0.437389135361	-346.0	70.0	-347.0	70.0	1
3.0.1	2019_Mar_05_1602	s	s	3	3	SIC	350	ABS	0	0	2	4	24_2_4	NA	NA	0	1	1.62241005898	None	None	None	None	1
3.0.1	2019_Mar_05_1602	s	s	3	3	SIC	351	2_3	2	3	3	1	23_3_1	1	2	1	0	0.516815900803	-521.0	-46.0	-518.0	-49.0	1
3.0.1	2019_Mar_05_1602	s	s	3	3	SIC	352	ABS	0	0	1	1	24_1_1	NA	NA	0	1	1.64584207535	None	None	None	None	1
3.0.1	2019_Mar_05_1602	s	s	3	3	SIC	353	3_1	3	1	1	3	23_1_3	2	2	1	0	0.540398836136	448.0	-6.0	440.0	-2.0	1
3.0.1	2019_Mar_05_1602	s	s	3	3	SIC	354	ABS	0	0	1	4	24_1_4	NA	NA	0	1	1.39890408516	None	None	None	None	1
3.0.1	2019_Mar_05_1602	s	s	3	3	SIC	355	ABS	0	0	3	1	24_3_1	NA	NA	0	1	1.10483193398	None	None	None	None	1
3.0.1	2019_Mar_05_1602	s	s	3	3	SIC	356	1_4	1	4	2	4	23_2_4	1	0	0	1	1.07439088821	-142.0	99.0	None	None	0
3.0.1	2019_Mar_05_1602	s	s	3	3	SIC	357	1_4	1	4	4	3	23_4_3	3	1	1	0	0.442178010941	59.0	-56.0	55.0	-50.0	1
3.0.1	2019_Mar_05_1602	s	s	3	3	SIC	358	3_3	3	3	1	4	23_1_4	2	-1	1	0	0.43751502037	338.0	204.0	331.0	204.0	1
3.0.1	2019_Mar_05_1602	s	s	3	3	SIC	359	4_1	4	1	3	4	23_3_4	1	3	1	0	0.399262905121	-458.0	-326.0	-461.0	-323.0	1
3.0.1	2019_Mar_05_1602	s	s	3	3	SIC	360	ABS	0	0	3	3	24_3_3	NA	NA	0	1	2.50948786736	None	None	None	None	1
3.0.1	2019_Mar_05_1602	s	s	3	3	SIC	361	ABS	0	0	4	1	24_4_1	NA	NA	0	1	0.881386995316	None	None	None	None	1
3.0.1	2019_Mar_05_1602	s	s	3	3	SIC	362	3_2	3	2	1	1	23_1_1	2	-1	1	0	0.799203872681	-491.0	158.0	-487.0	157.0	1
3.0.1	2019_Mar_05_1602	s	s	3	3	SIC	363	ABS	0	0	1	4	24_1_4	NA	NA	0	1	0.646176099777	None	None	None	None	1
3.0.1	2019_Mar_05_1602	s	s	3	3	SIC	364	ABS	0	0	3	2	24_3_2	NA	NA	0	1	0.815073013306	None	None	None	None	1
3.0.1	2019_Mar_05_1602	s	s	3	3	SIC	365	ABS	0	0	3	1	24_3_1	NA	NA	0	1	0.810844898224	None	None	None	None	1
3.0.1	2019_Mar_05_1602	s	s	3	3	SIC	366	ABS	0	0	1	4	24_1_4	NA	NA	0	1	0.940251111984	None	None	None	None	1
3.0.1	2019_Mar_05_1602	s	s	3	3	SIC	367	4_3	4	3	3	3	23_3_3	1	0	1	0	0.437371015549	284.0	-212.0	276.0	-208.0	1
3.0.1	2019_Mar_05_1602	s	s	3	3	SIC	368	3_4	3	4	4	3	23_4_3	-1	1	1	0	0.481621026993	486.0	213.0	483.0	217.0	1
3.0.1	2019_Mar_05_1602	s	s	3	3	SIC	369	3_4	3	4	2	4	23_2_4	1	0	1	0	0.591417074203	204.0	-86.0	204.0	-85.0	1
3.0.1	2019_Mar_05_1602	s	s	3	3	SIC	370	4_2	4	2	1	3	23_1_3	3	1	1	0	0.363947868347	-72.0	-296.0	-78.0	-291.0	1
3.0.1	2019_Mar_05_1602	s	s	3	3	SIC	371	ABS	0	0	4	1	24_4_1	NA	NA	0	1	0.710158109665	None	None	None	None	1
3.0.1	2019_Mar_05_1602	s	s	3	3	SIC	372	1_2	1	2	1	4	23_1_4	0	2	1	0	0.511166095734	-68.0	-32.0	-63.0	-28.0	1
3.0.1	2019_Mar_05_1602	s	s	3	3	SIC	373	2_1	2	1	2	3	23_2_3	0	2	1	0	0.682055950165	-20.0	268.0	-13.0	271.0	1
3.0.1	2019_Mar_05_1602	s	s	3	3	SIC	374	ABS	0	0	2	3	24_2_3	NA	NA	0	1	1.034304142	None	None	None	None	1
3.0.1	2019_Mar_05_1602	s	s	3	3	SIC	375	ABS	0	0	2	1	24_2_1	NA	NA	0	1	0.940284013748	None	None	None	None	1
3.0.1	2019_Mar_05_1602	s	s	3	3	SIC	376	ABS	0	0	3	2	24_3_2	NA	NA	0	1	1.50794577599	None	None	None	None	1
3.0.1	2019_Mar_05_1602	s	s	3	3	SIC	377	ABS	0	0	2	4	24_2_4	NA	NA	0	1	1.29304504395	None	None	None	None	1
3.0.1	2019_Mar_05_1602	s	s	3	3	SIC	378	2_3	2	3	4	4	23_4_4	2	-1	1	0	0.516772985458	-403.0	-209.0	-400.0	-207.0	1
3.0.1	2019_Mar_05_1602	s	s	3	3	SIC	379	4_1	4	1	3	1	23_3_1	1	0	1	0	0.368818998337	-389.0	-129.0	-389.0	-128.0	1
3.0.1	2019_Mar_05_1602	s	s	3	3	SIC	380	3_2	3	2	3	4	23_3_4	0	2	1	0	0.469784975052	-136.0	275.0	-130.0	280.0	1
3.0.1	2019_Mar_05_1602	s	s	3	3	SIC	381	2_1	2	1	1	3	23_1_3	-1	2	1	0	1.49317312241	61.0	-284.0	59.0	-281.0	1
3.0.1	2019_Mar_05_1602	s	s	3	3	SIC	382	2_3	2	3	4	2	23_4_2	2	1	1	0	0.410995960236	279.0	219.0	284.0	218.0	1
3.0.1	2019_Mar_05_1602	s	s	3	3	SIC	383	ABS	0	0	4	2	24_4_2	NA	NA	0	1	1.34018993378	None	None	None	None	1
3.0.1	2019_Mar_05_1602	s	s	3	3	SIC	384	ABS	0	0	4	2	24_4_2	NA	NA	0	1	1.76349520683	None	None	None	None	1
3.0.1	2019_Mar_05_1602	s	s	3	3	SIC	385	1_1	1	1	2	4	23_2_4	1	3	1	0	0.561402082443	515.0	-202.0	519.0	-197.0	1
3.0.1	2019_Mar_05_1602	s	s	3	3	SIC	386	3_2	3	2	1	2	23_1_2	2	0	1	0	0.968524932861	-533.0	-171.0	-530.0	-171.0	1
3.0.1	2019_Mar_05_1602	s	s	3	3	SIC	387	4_3	4	3	3	4	23_3_4	1	-1	1	0	0.403752803802	-82.0	377.0	-82.0	384.0	1
3.0.1	2019_Mar_05_1602	s	s	3	3	SIC	388	ABS	0	0	3	1	24_3_1	NA	NA	0	1	0.768622159958	None	None	None	None	1
3.0.1	2019_Mar_05_1602	s	s	3	3	SIC	389	3_4	3	4	1	2	23_1_2	2	2	1	0	0.452892065048	159.0	37.0	156.0	30.0	1
3.0.1	2019_Mar_05_1602	s	s	3	3	SIC	390	1_2	1	2	2	2	23_2_2	1	0	0	1	1.34008097649	220.0	228.0	None	None	0
3.0.1	2019_Mar_05_1602	s	s	3	3	SIC	391	ABS	0	0	4	2	24_4_2	NA	NA	0	1	1.69738006592	None	None	None	None	1
3.0.1	2019_Mar_05_1602	s	s	3	3	SIC	392	1_2	1	2	2	4	23_2_4	1	2	1	0	0.55983710289	491.0	-45.0	498.0	-46.0	1
3.0.1	2019_Mar_05_1602	s	s	3	3	SIC	393	ABS	0	0	1	4	24_1_4	NA	NA	0	1	1.05786705017	None	None	None	None	1
3.0.1	2019_Mar_05_1602	s	s	3	3	SIC	394	4_1	4	1	4	4	23_4_4	0	3	1	0	0.481534004211	-103.0	-238.0	-99.0	-251.0	1
3.0.1	2019_Mar_05_1602	s	s	3	3	SIC	395	ABS	0	0	4	1	24_4_1	NA	NA	0	1	0.979704856873	None	None	None	None	1
3.0.1	2019_Mar_05_1602	s	s	3	3	SIC	396	1_4	1	4	3	3	23_3_3	2	1	1	0	1.26068282127	481.0	-6.0	488.0	-13.0	1
3.0.1	2019_Mar_05_1602	s	s	3	3	SIC	397	1_1	1	1	4	2	23_4_2	3	1	1	0	0.38413310051	-308.0	-85.0	-312.0	-89.0	1
3.0.1	2019_Mar_05_1602	s	s	3	3	SIC	398	1_4	1	4	2	2	23_2_2	1	2	1	0	0.481585979462	313.0	-258.0	321.0	-258.0	1
3.0.1	2019_Mar_05_1602	s	s	3	3	SIC	399	3_1	3	1	1	4	23_1_4	2	3	1	0	0.481508016586	-330.0	278.0	-315.0	285.0	1
3.0.1	2019_Mar_05_1602	s	s	3	3	SIC	400	ABS	0	0	4	3	24_4_3	NA	NA	0	1	1.65765619278	None	None	None	None	1
3.0.1	2019_Mar_05_1602	s	s	3	3	SIC	401	ABS	0	0	3	3	24_3_3	NA	NA	0	1	1.29281497002	None	None	None	None	1
3.0.1	2019_Mar_05_1602	s	s	3	3	SIC	402	ABS	0	0	2	4	24_2_4	NA	NA	0	1	1.14030885696	None	None	None	None	1
3.0.1	2019_Mar_05_1602	s	s	3	3	SIC	403	2_4	2	4	4	4	23_4_4	2	0	1	0	0.43455696106	-284.0	-177.0	-279.0	-172.0	1
3.0.1	2019_Mar_05_1602	s	s	3	3	SIC	404	ABS	0	0	2	1	24_2_1	NA	NA	0	1	1.03723812103	None	None	None	None	1
3.0.1	2019_Mar_05_1602	s	s	3	3	SIC	405	2_2	2	2	2	3	23_2_3	0	1	0	1	1.56353998184	-429.0	-408.0	None	None	0
3.0.1	2019_Mar_05_1602	s	s	3	3	SIC	406	ABS	0	0	2	3	24_2_3	NA	NA	0	1	0.822551012039	None	None	None	None	1
3.0.1	2019_Mar_05_1602	s	s	3	3	SIC	407	2_4	2	4	4	3	23_4_3	2	1	1	0	0.484232187271	-174.0	-347.0	-171.0	-349.0	1
3.0.1	2019_Mar_05_1602	s	s	3	3	SIC	408	1_4	1	4	1	3	23_1_3	0	1	1	0	0.674362897873	108.0	-75.0	118.0	-72.0	1
3.0.1	2019_Mar_05_1602	s	s	3	3	SIC	409	4_4	4	4	2	4	23_2_4	2	0	1	0	1.48128700256	-311.0	181.0	-306.0	181.0	1
3.0.1	2019_Mar_05_1602	s	s	3	3	SIC	410	ABS	0	0	3	2	24_3_2	NA	NA	0	1	1.53537082672	None	None	None	None	1
3.0.1	2019_Mar_05_1602	s	s	3	3	SIC	411	2_3	2	3	3	4	23_3_4	1	-1	1	0	0.62003493309	62.0	337.0	67.0	340.0	1
3.0.1	2019_Mar_05_1602	s	s	3	3	SIC	412	1_1	1	1	4	4	23_4_4	3	3	1	0	0.399226903915	518.0	165.0	512.0	168.0	1
3.0.1	2019_Mar_05_1602	s	s	3	3	SIC	413	2_1	2	1	4	3	23_4_3	2	2	1	0	0.364003896713	78.0	-124.0	80.0	-121.0	1
3.0.1	2019_Mar_05_1602	s	s	3	3	SIC	414	2_2	2	2	3	1	23_3_1	1	-1	1	0	0.731386899948	-414.0	50.0	-407.0	51.0	1
3.0.1	2019_Mar_05_1602	s	s	3	3	SIC	415	1_2	1	2	4	4	23_4_4	3	2	1	0	0.352155208588	-33.0	-69.0	-38.0	-72.0	1
3.0.1	2019_Mar_05_1602	s	s	3	3	SIC	416	ABS	0	0	3	4	24_3_4	NA	NA	0	1	0.696703910828	None	None	None	None	1
3.0.1	2019_Mar_05_1602	s	s	3	3	SIC	417	ABS	0	0	2	3	24_2_3	NA	NA	0	1	2.77501797676	None	None	None	None	1
3.0.1	2019_Mar_05_1602	s	s	3	3	SIC	418	1_2	1	2	3	2	23_3_2	2	0	1	0	0.752002000809	379.0	-355.0	382.0	-358.0	1
3.0.1	2019_Mar_05_1602	s	s	3	3	SIC	419	3_3	3	3	4	1	23_4_1	-1	2	1	0	0.427623987198	-96.0	-293.0	-102.0	-296.0	1
3.0.1	2019_Mar_05_1602	s	s	3	3	SIC	420	3_3	3	3	2	3	23_2_3	1	0	1	0	0.46088886261	409.0	-108.0	406.0	-110.0	1
3.0.1	2019_Mar_05_1602	s	s	3	3	SIC	421	2_4	2	4	1	4	23_1_4	-1	0	1	0	1.26300978661	-249.0	-86.0	-249.0	-83.0	1
3.0.1	2019_Mar_05_1602	s	s	3	3	SIC	422	ABS	0	0	1	3	24_1_3	NA	NA	0	1	1.66944503784	None	None	None	None	1
3.0.1	2019_Mar_05_1602	s	s	3	3	SIC	423	4_3	4	3	4	1	23_4_1	0	2	1	0	0.834455013275	391.0	27.0	391.0	27.0	1
3.0.1	2019_Mar_05_1602	s	s	3	3	SIC	424	ABS	0	0	2	4	24_2_4	NA	NA	0	1	1.04603409767	None	None	None	None	1
3.0.1	2019_Mar_05_1602	s	s	3	3	SIC	425	ABS	0	0	4	3	24_4_3	NA	NA	0	1	1.93089604378	None	None	None	None	1
3.0.1	2019_Mar_05_1602	s	s	3	3	SIC	426	4_4	4	4	2	3	23_2_3	2	1	1	0	0.442441940308	216.0	-44.0	215.0	-39.0	1
3.0.1	2019_Mar_05_1602	s	s	3	3	SIC	427	3_2	3	2	3	1	23_3_1	0	-1	1	0	0.834398984909	274.0	-30.0	276.0	-28.0	1
3.0.1	2019_Mar_05_1602	s	s	3	3	SIC	428	3_3	3	3	1	1	23_1_1	2	2	1	0	0.634385824203	-240.0	147.0	-243.0	149.0	1
3.0.1	2019_Mar_05_1602	s	s	3	3	SIC	429	ABS	0	0	4	1	24_4_1	NA	NA	0	1	1.06315398216	None	None	None	None	1
3.0.1	2019_Mar_05_1602	s	s	3	3	SIC	430	4_3	4	3	2	1	23_2_1	2	2	1	0	0.509914159775	17.0	90.0	20.0	81.0	1
3.0.1	2019_Mar_05_1602	s	s	3	3	SIC	431	3_3	3	3	3	4	23_3_4	0	-1	1	0	0.704992055893	522.0	-275.0	533.0	-273.0	1
3.0.1	2019_Mar_05_1602	s	s	3	3	SIC	432	ABS	0	0	4	2	24_4_2	NA	NA	0	1	1.91625905037	None	None	None	None	1
3.0.1	2019_Mar_05_1602	s	s	3	3	SIC	433	ABS	0	0	2	2	24_2_2	NA	NA	0	1	1.88110685349	None	None	None	None	1
3.0.1	2019_Mar_05_1602	s	s	3	3	SIC	434	4_1	4	1	2	2	23_2_2	2	1	1	0	0.481992959976	-420.0	374.0	-415.0	378.0	1
3.0.1	2019_Mar_05_1602	s	s	3	3	SIC	435	4_2	4	2	1	2	23_1_2	3	0	1	0	0.40410900116	-252.0	-380.0	-247.0	-381.0	1
3.0.1	2019_Mar_05_1602	s	s	3	3	SIC	436	1_4	1	4	2	3	23_2_3	1	1	1	0	0.580559968948	415.0	-152.0	407.0	-156.0	1
3.0.1	2019_Mar_05_1602	s	s	3	3	SIC	437	3_4	3	4	3	1	23_3_1	0	3	1	0	0.404089927673	245.0	252.0	245.0	261.0	1
3.0.1	2019_Mar_05_1602	s	s	3	3	SIC	438	ABS	0	0	4	4	24_4_4	NA	NA	0	1	1.25785183907	None	None	None	None	1
3.0.1	2019_Mar_05_1602	s	s	3	3	SIC	439	ABS	0	0	1	1	24_1_1	NA	NA	0	1	1.26955890656	None	None	None	None	1
3.0.1	2019_Mar_05_1602	s	s	3	3	SIC	440	1_4	1	4	2	1	23_2_1	1	3	1	0	0.43061208725	427.0	10.0	426.0	14.0	1
3.0.1	2019_Mar_05_1602	s	s	3	3	SIC	441	ABS	0	0	4	3	24_4_3	NA	NA	0	1	1.54660987854	None	None	None	None	1
3.0.1	2019_Mar_05_1602	s	s	3	3	SIC	442	ABS	0	0	3	2	24_3_2	NA	NA	0	1	1.87199902534	None	None	None	None	1
3.0.1	2019_Mar_05_1602	s	s	3	3	SIC	443	2_1	2	1	2	2	23_2_2	0	1	0	1	0.740626096725	42.0	182.0	None	None	0
3.0.1	2019_Mar_05_1602	s	s	3	3	SIC	444	1_4	1	4	3	2	23_3_2	2	2	1	0	0.3992228508	103.0	80.0	105.0	87.0	1
3.0.1	2019_Mar_05_1602	s	s	3	3	SIC	445	ABS	0	0	1	2	24_1_2	NA	NA	0	1	1.21070504189	None	None	None	None	1
3.0.1	2019_Mar_05_1602	s	s	3	3	SIC	446	4_1	4	1	4	3	23_4_3	0	2	1	0	0.763789892197	197.0	204.0	196.0	201.0	1
3.0.1	2019_Mar_05_1602	s	s	3	3	SIC	447	ABS	0	0	2	4	24_2_4	NA	NA	0	1	1.20224285126	None	None	None	None	1
3.0.1	2019_Mar_05_1602	s	s	3	3	SIC	448	ABS	0	0	3	2	24_3_2	NA	NA	0	1	1.50101590157	None	None	None	None	1
3.0.1	2019_Mar_05_1602	s	s	3	3	SIC	449	ABS	0	0	1	2	24_1_2	NA	NA	0	1	1.99875998497	None	None	None	None	1
3.0.1	2019_Mar_05_1602	s	s	3	3	SIC	450	ABS	0	0	2	1	24_2_1	NA	NA	0	1	1.22249603271	None	None	None	None	1
3.0.1	2019_Mar_05_1602	s	s	3	3	SIC	451	4_4	4	4	2	1	23_2_1	2	3	1	0	0.505062103271	428.0	-106.0	425.0	-107.0	1
3.0.1	2019_Mar_05_1602	s	s	3	3	SIC	452	4_4	4	4	1	4	23_1_4	3	0	1	0	0.340407133102	1.0	-70.0	1.0	-73.0	1
3.0.1	2019_Mar_05_1602	s	s	3	3	SIC	453	3_4	3	4	4	1	23_4_1	-1	3	1	0	0.363951921463	194.0	4.0	198.0	7.0	1
3.0.1	2019_Mar_05_1602	s	s	3	3	SIC	454	ABS	0	0	1	3	24_1_3	NA	NA	0	1	1.80359196663	None	None	None	None	1
3.0.1	2019_Mar_05_1602	s	s	3	3	SIC	455	ABS	0	0	2	1	24_2_1	NA	NA	0	1	1.23429608345	None	None	None	None	1
3.0.1	2019_Mar_05_1602	s	s	3	3	SIC	456	2_3	2	3	3	3	23_3_3	1	0	1	0	1.33429217339	-524.0	408.0	-515.0	404.0	1
3.0.1	2019_Mar_05_1602	s	s	3	3	SIC	457	ABS	0	0	4	4	24_4_4	NA	NA	0	1	1.13334083557	None	None	None	None	1
3.0.1	2019_Mar_05_1602	s	s	3	3	SIC	458	ABS	0	0	1	2	24_1_2	NA	NA	0	1	1.5918841362	None	None	None	None	1
3.0.1	2019_Mar_05_1602	s	s	3	3	SIC	459	1_1	1	1	3	2	23_3_2	2	1	1	0	0.58740901947	488.0	-222.0	493.0	-223.0	1
3.0.1	2019_Mar_05_1602	s	s	3	3	SIC	460	ABS	0	0	3	1	24_3_1	NA	NA	0	1	1.18720817566	None	None	None	None	1
3.0.1	2019_Mar_05_1602	s	s	3	3	SIC	461	4_2	4	2	3	3	23_3_3	1	1	1	0	0.41547703743	356.0	-124.0	358.0	-126.0	1
3.0.1	2019_Mar_05_1602	s	s	3	3	SIC	462	ABS	0	0	4	3	24_4_3	NA	NA	0	1	1.22734594345	None	None	None	None	1
3.0.1	2019_Mar_05_1602	s	s	3	3	SIC	463	ABS	0	0	4	2	24_4_2	NA	NA	0	1	1.21579003334	None	None	None	None	1
3.0.1	2019_Mar_05_1602	s	s	3	3	SIC	464	ABS	0	0	2	2	24_2_2	NA	NA	0	1	1.54012799263	None	None	None	None	1
3.0.1	2019_Mar_05_1602	s	s	3	3	SIC	465	ABS	0	0	2	4	24_2_4	NA	NA	0	1	0.907836914062	None	None	None	None	1
3.0.1	2019_Mar_05_1602	s	s	3	3	SIC	466	ABS	0	0	3	3	24_3_3	NA	NA	0	1	1.94493818283	None	None	None	None	1
3.0.1	2019_Mar_05_1602	s	s	3	3	SIC	467	ABS	0	0	1	2	24_1_2	NA	NA	0	1	1.93990898132	None	None	None	None	1
3.0.1	2019_Mar_05_1602	s	s	3	3	SIC	468	2_2	2	2	4	3	23_4_3	2	1	1	0	0.469810962677	-207.0	-126.0	-213.0	-118.0	1
3.0.1	2019_Mar_05_1602	s	s	3	3	SIC	469	3_3	3	3	2	2	23_2_2	1	1	1	0	0.53369307518	242.0	159.0	243.0	166.0	1
3.0.1	2019_Mar_05_1602	s	s	3	3	SIC	470	3_2	3	2	2	2	23_2_2	1	0	1	0	0.411007165909	222.0	-107.0	218.0	-100.0	1
3.0.1	2019_Mar_05_1602	s	s	3	3	SIC	471	3_3	3	3	3	2	23_3_2	0	1	1	0	1.51044797897	390.0	133.0	393.0	132.0	1
3.0.1	2019_Mar_05_1602	s	s	3	3	SIC	472	4_3	4	3	3	1	23_3_1	1	2	1	0	0.434497833252	-246.0	184.0	-252.0	180.0	1
3.0.1	2019_Mar_05_1602	s	s	3	3	SIC	473	1_3	1	3	3	1	23_3_1	2	2	1	0	0.437363862991	-146.0	131.0	-148.0	131.0	1
3.0.1	2019_Mar_05_1602	s	s	3	3	SIC	474	4_3	4	3	2	2	23_2_2	2	1	1	0	0.352140903473	229.0	-96.0	221.0	-87.0	1
3.0.1	2019_Mar_05_1602	s	s	3	3	SIC	475	2_2	2	2	3	2	23_3_2	1	0	1	0	0.516785860062	450.0	-224.0	454.0	-229.0	1
3.0.1	2019_Mar_05_1602	s	s	3	3	SIC	476	ABS	0	0	2	2	24_2_2	NA	NA	0	1	2.5446639061	None	None	None	None	1
3.0.1	2019_Mar_05_1602	s	s	3	3	SIC	477	1_3	1	3	1	4	23_1_4	0	-1	1	0	0.556028842926	41.0	-27.0	41.0	-31.0	1
3.0.1	2019_Mar_05_1602	s	s	3	3	SIC	478	ABS	0	0	3	3	24_3_3	NA	NA	0	1	1.79165792465	None	None	None	None	1
3.0.1	2019_Mar_05_1602	s	s	3	3	SIC	479	2_4	2	4	1	2	23_1_2	-1	2	1	0	0.521703004837	73.0	-401.0	81.0	-401.0	1
3.0.1	2019_Mar_05_1602	s	s	3	3	SIC	480	ABS	0	0	1	3	24_1_3	NA	NA	0	1	1.59892106056	None	None	None	None	1
