Version	Date	Stimuli	Method	Subject	Session	Condition	Trial	Target	TColor	TShape	DColor	DShape	Distractors	Channel1	Channel2	LMouseButton	RMouseButton	RT	TargetX	TargetY	ResponseX	ResponseY	Correct
3.0.1	2019_Mar_06_1010	s	s	4	4	Capacity	1	ABS	0	0	1	1	24_1_1	NA	NA	0	1	2.26962900162	None	None	None	None	1
3.0.1	2019_Mar_06_1010	s	s	4	4	Capacity	2	ABS	0	0	4	1	24_4_1	NA	NA	0	1	1.54510402679	None	None	None	None	1
3.0.1	2019_Mar_06_1010	s	s	4	4	Capacity	3	3_1	3	1	4	1	23_4_1	-1	0	1	0	0.411065101624	71.0	78.0	70.0	77.0	1
3.0.1	2019_Mar_06_1010	s	s	4	4	Capacity	4	2_1	2	1	1	1	23_1_1	-1	0	1	0	0.975593805313	-537.0	-72.0	-536.0	-75.0	1
3.0.1	2019_Mar_06_1010	s	s	4	4	Capacity	5	ABS	0	0	2	1	24_2_1	NA	NA	0	1	2.84036707878	None	None	None	None	1
3.0.1	2019_Mar_06_1010	s	s	4	4	Capacity	6	ABS	0	0	3	1	24_3_1	NA	NA	0	1	1.30487799644	None	None	None	None	1
3.0.1	2019_Mar_06_1010	s	s	4	4	Capacity	7	3_1	3	1	2	1	23_2_1	1	0	1	0	0.411180973053	-21.0	312.0	-13.0	307.0	1
3.0.1	2019_Mar_06_1010	s	s	4	4	Capacity	8	ABS	0	0	3	1	24_3_1	NA	NA	0	1	3.03904008865	None	None	None	None	1
3.0.1	2019_Mar_06_1010	s	s	4	4	Capacity	9	ABS	0	0	1	1	24_1_1	NA	NA	0	1	1.82653713226	None	None	None	None	1
3.0.1	2019_Mar_06_1010	s	s	4	4	Capacity	10	ABS	0	0	1	1	24_1_1	NA	NA	0	1	2.01050806046	None	None	None	None	1
3.0.1	2019_Mar_06_1010	s	s	4	4	Capacity	11	4_1	4	1	1	1	23_1_1	3	0	1	0	0.464329957962	503.0	137.0	505.0	136.0	1
3.0.1	2019_Mar_06_1010	s	s	4	4	Capacity	12	ABS	0	0	2	1	24_2_1	NA	NA	0	1	2.42211699486	None	None	None	None	1
3.0.1	2019_Mar_06_1010	s	s	4	4	Capacity	13	4_1	4	1	2	1	23_2_1	2	0	1	0	0.422796010971	-504.0	-401.0	-507.0	-401.0	1
3.0.1	2019_Mar_06_1010	s	s	4	4	Capacity	14	1_1	1	1	3	1	23_3_1	2	0	1	0	0.414275884628	216.0	126.0	209.0	127.0	1
3.0.1	2019_Mar_06_1010	s	s	4	4	Capacity	15	ABS	0	0	4	1	24_4_1	NA	NA	0	1	1.55468392372	None	None	None	None	1
3.0.1	2019_Mar_06_1010	s	s	4	4	Capacity	16	ABS	0	0	2	1	24_2_1	NA	NA	0	1	1.59884214401	None	None	None	None	1
3.0.1	2019_Mar_06_1010	s	s	4	4	Capacity	17	ABS	0	0	4	1	24_4_1	NA	NA	0	1	1.35740184784	None	None	None	None	1
3.0.1	2019_Mar_06_1010	s	s	4	4	Capacity	18	3_1	3	1	1	1	23_1_1	2	0	1	0	0.427919149399	-137.0	-327.0	-144.0	-325.0	1
3.0.1	2019_Mar_06_1010	s	s	4	4	Capacity	19	1_1	1	1	2	1	23_2_1	1	0	1	0	1.18197703362	-436.0	-396.0	-434.0	-393.0	1
3.0.1	2019_Mar_06_1010	s	s	4	4	Capacity	20	2_1	2	1	4	1	23_4_1	2	0	1	0	0.36390709877	-22.0	-97.0	-27.0	-94.0	1
3.0.1	2019_Mar_06_1010	s	s	4	4	Capacity	21	ABS	0	0	3	1	24_3_1	NA	NA	0	1	1.35695099831	None	None	None	None	1
3.0.1	2019_Mar_06_1010	s	s	4	4	Capacity	22	4_1	4	1	3	1	23_3_1	1	0	1	0	0.356524944305	-249.0	277.0	-241.0	277.0	1
3.0.1	2019_Mar_06_1010	s	s	4	4	Capacity	23	2_1	2	1	3	1	23_3_1	1	0	1	0	0.587460041046	-408.0	121.0	-408.0	125.0	1
3.0.1	2019_Mar_06_1010	s	s	4	4	Capacity	24	1_1	1	1	4	1	23_4_1	3	0	1	0	0.333523035049	14.0	-160.0	2.0	-159.0	1
3.0.1	2019_Mar_06_1010	s	s	4	4	Capacity	25	ABS	0	0	2	1	24_2_1	NA	NA	0	1	5.13012313843	None	None	None	None	1
3.0.1	2019_Mar_06_1010	s	s	4	4	Capacity	26	ABS	0	0	3	1	24_3_1	NA	NA	0	1	1.56935977936	None	None	None	None	1
3.0.1	2019_Mar_06_1010	s	s	4	4	Capacity	27	1_1	1	1	2	1	23_2_1	1	0	1	0	0.554981946945	-67.0	104.0	-76.0	106.0	1
3.0.1	2019_Mar_06_1010	s	s	4	4	Capacity	28	ABS	0	0	1	1	24_1_1	NA	NA	0	1	4.42722797394	None	None	None	None	1
3.0.1	2019_Mar_06_1010	s	s	4	4	Capacity	29	3_1	3	1	1	1	23_1_1	2	0	1	0	0.496182918549	-525.0	399.0	-531.0	401.0	1
3.0.1	2019_Mar_06_1010	s	s	4	4	Capacity	30	2_1	2	1	4	1	23_4_1	2	0	1	0	0.458003997803	-41.0	337.0	-38.0	341.0	1
3.0.1	2019_Mar_06_1010	s	s	4	4	Capacity	31	4_1	4	1	2	1	23_2_1	2	0	1	0	0.35213303566	94.0	-296.0	89.0	-291.0	1
3.0.1	2019_Mar_06_1010	s	s	4	4	Capacity	32	2_1	2	1	3	1	23_3_1	1	0	1	0	0.493340969086	517.0	47.0	519.0	43.0	1
3.0.1	2019_Mar_06_1010	s	s	4	4	Capacity	33	2_1	2	1	1	1	23_1_1	-1	0	1	0	0.763815164566	-336.0	349.0	-348.0	352.0	1
3.0.1	2019_Mar_06_1010	s	s	4	4	Capacity	34	ABS	0	0	4	1	24_4_1	NA	NA	0	1	2.13322210312	None	None	None	None	1
3.0.1	2019_Mar_06_1010	s	s	4	4	Capacity	35	4_1	4	1	1	1	23_1_1	3	0	1	0	0.496276140213	520.0	370.0	525.0	364.0	1
3.0.1	2019_Mar_06_1010	s	s	4	4	Capacity	36	1_1	1	1	4	1	23_4_1	3	0	1	0	0.619381904602	-178.0	-285.0	-180.0	-287.0	1
3.0.1	2019_Mar_06_1010	s	s	4	4	Capacity	37	3_1	3	1	4	1	23_4_1	-1	0	1	0	0.453253030777	-143.0	-182.0	-139.0	-187.0	1
3.0.1	2019_Mar_06_1010	s	s	4	4	Capacity	38	ABS	0	0	3	1	24_3_1	NA	NA	0	1	2.20731210709	None	None	None	None	1
3.0.1	2019_Mar_06_1010	s	s	4	4	Capacity	39	ABS	0	0	1	1	24_1_1	NA	NA	0	1	2.75150513649	None	None	None	None	1
3.0.1	2019_Mar_06_1010	s	s	4	4	Capacity	40	ABS	0	0	4	1	24_4_1	NA	NA	0	1	1.23422288895	None	None	None	None	1
3.0.1	2019_Mar_06_1010	s	s	4	4	Capacity	41	ABS	0	0	4	1	24_4_1	NA	NA	0	1	2.40228414536	None	None	None	None	1
3.0.1	2019_Mar_06_1010	s	s	4	4	Capacity	42	1_1	1	1	3	1	23_3_1	2	0	1	0	0.587429046631	292.0	372.0	292.0	373.0	1
3.0.1	2019_Mar_06_1010	s	s	4	4	Capacity	43	ABS	0	0	3	1	24_3_1	NA	NA	0	1	1.52822494507	None	None	None	None	1
3.0.1	2019_Mar_06_1010	s	s	4	4	Capacity	44	ABS	0	0	2	1	24_2_1	NA	NA	0	1	1.39912891388	None	None	None	None	1
3.0.1	2019_Mar_06_1010	s	s	4	4	Capacity	45	ABS	0	0	1	1	24_1_1	NA	NA	0	1	1.36367917061	None	None	None	None	1
3.0.1	2019_Mar_06_1010	s	s	4	4	Capacity	46	4_1	4	1	3	1	23_3_1	1	0	1	0	0.497260093689	151.0	-140.0	150.0	-140.0	1
3.0.1	2019_Mar_06_1010	s	s	4	4	Capacity	47	ABS	0	0	2	1	24_2_1	NA	NA	0	1	1.76349210739	None	None	None	None	1
3.0.1	2019_Mar_06_1010	s	s	4	4	Capacity	48	3_1	3	1	2	1	23_2_1	1	0	1	0	0.528461933136	225.0	398.0	227.0	405.0	1
3.0.1	2019_Mar_06_1010	s	s	4	4	Capacity	49	2_1	2	1	3	1	23_3_1	1	0	1	0	0.458014965057	22.0	111.0	21.0	108.0	1
3.0.1	2019_Mar_06_1010	s	s	4	4	Capacity	50	2_1	2	1	4	1	23_4_1	2	0	1	0	0.46137213707	264.0	-228.0	259.0	-227.0	1
3.0.1	2019_Mar_06_1010	s	s	4	4	Capacity	51	ABS	0	0	2	1	24_2_1	NA	NA	0	1	1.42896604538	None	None	None	None	1
3.0.1	2019_Mar_06_1010	s	s	4	4	Capacity	52	ABS	0	0	4	1	24_4_1	NA	NA	0	1	1.01736211777	None	None	None	None	1
3.0.1	2019_Mar_06_1010	s	s	4	4	Capacity	53	ABS	0	0	3	1	24_3_1	NA	NA	0	1	1.3636610508	None	None	None	None	1
3.0.1	2019_Mar_06_1010	s	s	4	4	Capacity	54	ABS	0	0	4	1	24_4_1	NA	NA	0	1	0.869580984116	None	None	None	None	1
3.0.1	2019_Mar_06_1010	s	s	4	4	Capacity	55	ABS	0	0	1	1	24_1_1	NA	NA	0	1	1.39170312881	None	None	None	None	1
3.0.1	2019_Mar_06_1010	s	s	4	4	Capacity	56	1_1	1	1	4	1	23_4_1	3	0	1	0	0.375735998154	-537.0	-412.0	-532.0	-416.0	1
3.0.1	2019_Mar_06_1010	s	s	4	4	Capacity	57	4_1	4	1	1	1	23_1_1	3	0	1	0	0.375690937042	-237.0	-50.0	-233.0	-56.0	1
3.0.1	2019_Mar_06_1010	s	s	4	4	Capacity	58	3_1	3	1	2	1	23_2_1	1	0	1	0	0.378606081009	-288.0	4.0	-287.0	3.0	1
3.0.1	2019_Mar_06_1010	s	s	4	4	Capacity	59	2_1	2	1	1	1	23_1_1	-1	0	1	0	0.780480861664	-124.0	-242.0	-127.0	-247.0	1
3.0.1	2019_Mar_06_1010	s	s	4	4	Capacity	60	3_1	3	1	1	1	23_1_1	2	0	1	0	0.399604082108	290.0	-196.0	285.0	-197.0	1
3.0.1	2019_Mar_06_1010	s	s	4	4	Capacity	61	ABS	0	0	2	1	24_2_1	NA	NA	0	1	2.59848117828	None	None	None	None	1
3.0.1	2019_Mar_06_1010	s	s	4	4	Capacity	62	ABS	0	0	3	1	24_3_1	NA	NA	0	1	1.71690416336	None	None	None	None	1
3.0.1	2019_Mar_06_1010	s	s	4	4	Capacity	63	ABS	0	0	1	1	24_1_1	NA	NA	0	1	3.94447612762	None	None	None	None	1
3.0.1	2019_Mar_06_1010	s	s	4	4	Capacity	64	ABS	0	0	2	1	24_2_1	NA	NA	0	1	1.99232292175	None	None	None	None	1
3.0.1	2019_Mar_06_1010	s	s	4	4	Capacity	65	ABS	0	0	3	1	24_3_1	NA	NA	0	1	1.77827692032	None	None	None	None	1
3.0.1	2019_Mar_06_1010	s	s	4	4	Capacity	66	ABS	0	0	1	1	24_1_1	NA	NA	0	1	1.59226489067	None	None	None	None	1
3.0.1	2019_Mar_06_1010	s	s	4	4	Capacity	67	1_1	1	1	3	1	23_3_1	2	0	1	0	0.613814115524	315.0	-400.0	315.0	-396.0	1
3.0.1	2019_Mar_06_1010	s	s	4	4	Capacity	68	4_1	4	1	3	1	23_3_1	1	0	1	0	0.457996845245	-215.0	-386.0	-213.0	-386.0	1
3.0.1	2019_Mar_06_1010	s	s	4	4	Capacity	69	1_1	1	1	2	1	23_2_1	1	0	1	0	0.575586080551	16.0	289.0	23.0	290.0	1
3.0.1	2019_Mar_06_1010	s	s	4	4	Capacity	70	3_1	3	1	4	1	23_4_1	-1	0	1	0	0.3640229702	-335.0	-91.0	-328.0	-95.0	1
3.0.1	2019_Mar_06_1010	s	s	4	4	Capacity	71	ABS	0	0	4	1	24_4_1	NA	NA	0	1	1.56031703949	None	None	None	None	1
3.0.1	2019_Mar_06_1010	s	s	4	4	Capacity	72	4_1	4	1	2	1	23_2_1	2	0	1	0	0.457973003387	-422.0	142.0	-422.0	139.0	1
3.0.1	2019_Mar_06_1010	s	s	4	4	Capacity	73	ABS	0	0	2	1	24_2_1	NA	NA	0	1	1.67872691154	None	None	None	None	1
3.0.1	2019_Mar_06_1010	s	s	4	4	Capacity	74	2_1	2	1	3	1	23_3_1	1	0	1	0	0.328978061676	-228.0	22.0	-226.0	12.0	1
3.0.1	2019_Mar_06_1010	s	s	4	4	Capacity	75	4_1	4	1	3	1	23_3_1	1	0	1	0	0.378529071808	310.0	314.0	313.0	306.0	1
3.0.1	2019_Mar_06_1010	s	s	4	4	Capacity	76	2_1	2	1	1	1	23_1_1	-1	0	1	0	0.999013185501	-526.0	-75.0	-531.0	-77.0	1
3.0.1	2019_Mar_06_1010	s	s	4	4	Capacity	77	ABS	0	0	2	1	24_2_1	NA	NA	0	1	1.67427992821	None	None	None	None	1
3.0.1	2019_Mar_06_1010	s	s	4	4	Capacity	78	ABS	0	0	3	1	24_3_1	NA	NA	0	1	1.50472617149	None	None	None	None	1
3.0.1	2019_Mar_06_1010	s	s	4	4	Capacity	79	ABS	0	0	1	1	24_1_1	NA	NA	0	1	1.90754699707	None	None	None	None	1
3.0.1	2019_Mar_06_1010	s	s	4	4	Capacity	80	ABS	0	0	3	1	24_3_1	NA	NA	0	1	1.34008002281	None	None	None	None	1
3.0.1	2019_Mar_06_1010	s	s	4	4	Capacity	81	4_1	4	1	1	1	23_1_1	3	0	1	0	0.442790031433	268.0	408.0	272.0	404.0	1
3.0.1	2019_Mar_06_1010	s	s	4	4	Capacity	82	3_1	3	1	2	1	23_2_1	1	0	1	0	0.559873104095	-479.0	398.0	-486.0	396.0	1
3.0.1	2019_Mar_06_1010	s	s	4	4	Capacity	83	ABS	0	0	4	1	24_4_1	NA	NA	0	1	1.39233613014	None	None	None	None	1
3.0.1	2019_Mar_06_1010	s	s	4	4	Capacity	84	ABS	0	0	3	1	24_3_1	NA	NA	0	1	1.31957006454	None	None	None	None	1
3.0.1	2019_Mar_06_1010	s	s	4	4	Capacity	85	ABS	0	0	1	1	24_1_1	NA	NA	0	1	1.88119697571	None	None	None	None	1
3.0.1	2019_Mar_06_1010	s	s	4	4	Capacity	86	1_1	1	1	2	1	23_2_1	1	0	1	0	1.1430721283	-489.0	-321.0	-495.0	-327.0	1
3.0.1	2019_Mar_06_1010	s	s	4	4	Capacity	87	1_1	1	1	4	1	23_4_1	3	0	1	0	0.39918589592	343.0	258.0	342.0	251.0	1
3.0.1	2019_Mar_06_1010	s	s	4	4	Capacity	88	3_1	3	1	4	1	23_4_1	-1	0	1	0	0.575560092926	-3.0	376.0	-5.0	378.0	1
3.0.1	2019_Mar_06_1010	s	s	4	4	Capacity	89	4_1	4	1	2	1	23_2_1	2	0	1	0	0.375704050064	-186.0	-150.0	-184.0	-160.0	1
3.0.1	2019_Mar_06_1010	s	s	4	4	Capacity	90	ABS	0	0	4	1	24_4_1	NA	NA	0	1	0.921045064926	None	None	None	None	1
3.0.1	2019_Mar_06_1010	s	s	4	4	Capacity	91	2_1	2	1	4	1	23_4_1	2	0	1	0	0.434434890747	398.0	-293.0	397.0	-297.0	1
3.0.1	2019_Mar_06_1010	s	s	4	4	Capacity	92	3_1	3	1	1	1	23_1_1	2	0	1	0	0.333909034729	-353.0	-247.0	-354.0	-249.0	1
3.0.1	2019_Mar_06_1010	s	s	4	4	Capacity	93	ABS	0	0	2	1	24_2_1	NA	NA	0	1	1.83406114578	None	None	None	None	1
3.0.1	2019_Mar_06_1010	s	s	4	4	Capacity	94	ABS	0	0	4	1	24_4_1	NA	NA	0	1	1.21562194824	None	None	None	None	1
3.0.1	2019_Mar_06_1010	s	s	4	4	Capacity	95	ABS	0	0	1	1	24_1_1	NA	NA	0	1	1.21673703194	None	None	None	None	1
3.0.1	2019_Mar_06_1010	s	s	4	4	Capacity	96	1_1	1	1	3	1	23_3_1	2	0	1	0	0.437380075455	363.0	-270.0	357.0	-271.0	1
3.0.1	2019_Mar_06_1010	s	s	4	4	Capacity	1	1_3	1	3	1	4	23_1_4	0	-1	1	0	0.754776000977	-394.0	-320.0	-395.0	-324.0	1
3.0.1	2019_Mar_06_1010	s	s	4	4	Capacity	2	ABS	0	0	1	2	24_1_2	NA	NA	0	1	5.69456386566	None	None	None	None	1
3.0.1	2019_Mar_06_1010	s	s	4	4	Capacity	3	ABS	0	0	1	3	24_1_3	NA	NA	0	1	8.31744098663	None	None	None	None	1
3.0.1	2019_Mar_06_1010	s	s	4	4	Capacity	4	1_4	1	4	1	2	23_1_2	0	2	1	0	0.745638847351	446.0	211.0	452.0	212.0	1
3.0.1	2019_Mar_06_1010	s	s	4	4	Capacity	5	ABS	0	0	1	3	24_1_3	NA	NA	0	1	7.67937207222	None	None	None	None	1
3.0.1	2019_Mar_06_1010	s	s	4	4	Capacity	6	ABS	0	0	1	2	24_1_2	NA	NA	0	1	7.14127087593	None	None	None	None	1
3.0.1	2019_Mar_06_1010	s	s	4	4	Capacity	7	1_4	1	4	1	3	23_1_3	0	1	1	0	0.716798067093	58.0	33.0	58.0	38.0	1
3.0.1	2019_Mar_06_1010	s	s	4	4	Capacity	8	ABS	0	0	1	4	24_1_4	NA	NA	0	1	2.04581022263	None	None	None	None	1
3.0.1	2019_Mar_06_1010	s	s	4	4	Capacity	9	ABS	0	0	1	4	24_1_4	NA	NA	0	1	5.08915781975	None	None	None	None	1
3.0.1	2019_Mar_06_1010	s	s	4	4	Capacity	10	ABS	0	0	1	1	24_1_1	NA	NA	0	1	3.58649802208	None	None	None	None	1
3.0.1	2019_Mar_06_1010	s	s	4	4	Capacity	11	ABS	0	0	1	1	24_1_1	NA	NA	0	1	2.92828702927	None	None	None	None	1
3.0.1	2019_Mar_06_1010	s	s	4	4	Capacity	12	ABS	0	0	1	2	24_1_2	NA	NA	0	1	7.21491599083	None	None	None	None	1
3.0.1	2019_Mar_06_1010	s	s	4	4	Capacity	13	1_3	1	3	1	2	23_1_2	0	1	1	0	3.76295208931	-443.0	240.0	-443.0	243.0	1
3.0.1	2019_Mar_06_1010	s	s	4	4	Capacity	14	ABS	0	0	1	3	24_1_3	NA	NA	0	1	10.2027668953	None	None	None	None	1
3.0.1	2019_Mar_06_1010	s	s	4	4	Capacity	15	1_2	1	2	1	3	23_1_3	0	1	1	0	3.46249389648	45.0	73.0	47.0	71.0	1
3.0.1	2019_Mar_06_1010	s	s	4	4	Capacity	16	ABS	0	0	1	1	24_1_1	NA	NA	0	1	5.7034869194	None	None	None	None	1
3.0.1	2019_Mar_06_1010	s	s	4	4	Capacity	17	1_4	1	4	1	1	23_1_1	0	3	1	0	0.83438205719	-500.0	191.0	-513.0	197.0	1
3.0.1	2019_Mar_06_1010	s	s	4	4	Capacity	18	1_2	1	2	1	4	23_1_4	0	2	1	0	0.634430885315	-383.0	35.0	-385.0	42.0	1
3.0.1	2019_Mar_06_1010	s	s	4	4	Capacity	19	1_1	1	1	1	3	23_1_3	0	2	1	0	2.40334105492	178.0	-345.0	182.0	-346.0	1
3.0.1	2019_Mar_06_1010	s	s	4	4	Capacity	20	1_1	1	1	1	2	23_1_2	0	1	1	0	2.03410005569	485.0	360.0	488.0	365.0	1
3.0.1	2019_Mar_06_1010	s	s	4	4	Capacity	21	1_1	1	1	1	4	23_1_4	0	3	1	0	0.422728061676	-8.0	262.0	-8.0	255.0	1
3.0.1	2019_Mar_06_1010	s	s	4	4	Capacity	22	ABS	0	0	1	4	24_1_4	NA	NA	0	1	2.39858794212	None	None	None	None	1
3.0.1	2019_Mar_06_1010	s	s	4	4	Capacity	23	1_3	1	3	1	1	23_1_1	0	2	1	0	1.06298995018	53.0	-208.0	54.0	-210.0	1
3.0.1	2019_Mar_06_1010	s	s	4	4	Capacity	24	1_2	1	2	1	1	23_1_1	0	-1	1	0	1.10997915268	-80.0	-273.0	-73.0	-276.0	1
3.0.1	2019_Mar_06_1010	s	s	4	4	Capacity	25	ABS	0	0	1	3	24_1_3	NA	NA	0	1	8.41338706017	None	None	None	None	1
3.0.1	2019_Mar_06_1010	s	s	4	4	Capacity	26	ABS	0	0	1	3	24_1_3	NA	NA	0	1	12.2955899239	None	None	None	None	1
3.0.1	2019_Mar_06_1010	s	s	4	4	Capacity	27	1_3	1	3	1	2	23_1_2	0	1	1	0	2.19348692894	-446.0	-70.0	-447.0	-68.0	1
3.0.1	2019_Mar_06_1010	s	s	4	4	Capacity	28	1_3	1	3	1	4	23_1_4	0	-1	1	0	0.599198102951	-65.0	89.0	-67.0	81.0	1
3.0.1	2019_Mar_06_1010	s	s	4	4	Capacity	29	ABS	0	0	1	1	24_1_1	NA	NA	0	1	2.39334607124	None	None	None	None	1
3.0.1	2019_Mar_06_1010	s	s	4	4	Capacity	30	ABS	0	0	1	1	24_1_1	NA	NA	0	1	1.97287607193	None	None	None	None	1
3.0.1	2019_Mar_06_1010	s	s	4	4	Capacity	31	ABS	0	0	1	2	24_1_2	NA	NA	0	1	7.44416499138	None	None	None	None	1
3.0.1	2019_Mar_06_1010	s	s	4	4	Capacity	32	1_1	1	1	1	4	23_1_4	0	3	1	0	0.51682806015	-449.0	-264.0	-451.0	-261.0	1
3.0.1	2019_Mar_06_1010	s	s	4	4	Capacity	33	ABS	0	0	1	4	24_1_4	NA	NA	0	1	1.86274385452	None	None	None	None	1
3.0.1	2019_Mar_06_1010	s	s	4	4	Capacity	34	1_1	1	1	1	3	23_1_3	0	2	1	0	0.913241147995	-6.0	-345.0	-6.0	-348.0	1
3.0.1	2019_Mar_06_1010	s	s	4	4	Capacity	35	1_4	1	4	1	2	23_1_2	0	2	1	0	1.08614587784	-54.0	-16.0	-53.0	-16.0	1
3.0.1	2019_Mar_06_1010	s	s	4	4	Capacity	36	ABS	0	0	1	4	24_1_4	NA	NA	0	1	1.51647114754	None	None	None	None	1
3.0.1	2019_Mar_06_1010	s	s	4	4	Capacity	37	ABS	0	0	1	2	24_1_2	NA	NA	0	1	7.02533197403	None	None	None	None	1
3.0.1	2019_Mar_06_1010	s	s	4	4	Capacity	38	ABS	0	0	1	3	24_1_3	NA	NA	0	1	10.2019569874	None	None	None	None	1
3.0.1	2019_Mar_06_1010	s	s	4	4	Capacity	39	1_3	1	3	1	1	23_1_1	0	2	1	0	0.805747032166	-403.0	-75.0	-398.0	-76.0	1
3.0.1	2019_Mar_06_1010	s	s	4	4	Capacity	40	ABS	0	0	1	2	24_1_2	NA	NA	0	1	6.34351110458	None	None	None	None	1
3.0.1	2019_Mar_06_1010	s	s	4	4	Capacity	41	1_2	1	2	1	1	23_1_1	0	-1	0	1	2.77785086632	165.0	174.0	None	None	0
3.0.1	2019_Mar_06_1010	s	s	4	4	Capacity	42	ABS	0	0	1	1	24_1_1	NA	NA	0	1	1.30980920792	None	None	None	None	1
3.0.1	2019_Mar_06_1010	s	s	4	4	Capacity	43	ABS	0	0	1	4	24_1_4	NA	NA	0	1	1.32831382751	None	None	None	None	1
3.0.1	2019_Mar_06_1010	s	s	4	4	Capacity	44	1_1	1	1	1	2	23_1_2	0	1	1	0	3.60118484497	380.0	-262.0	383.0	-262.0	1
3.0.1	2019_Mar_06_1010	s	s	4	4	Capacity	45	1_4	1	4	1	3	23_1_3	0	1	1	0	1.23985385895	-295.0	-55.0	-302.0	-59.0	1
3.0.1	2019_Mar_06_1010	s	s	4	4	Capacity	46	1_2	1	2	1	3	23_1_3	0	1	1	0	4.03344392776	296.0	132.0	302.0	132.0	1
3.0.1	2019_Mar_06_1010	s	s	4	4	Capacity	47	1_4	1	4	1	1	23_1_1	0	3	1	0	0.481541872025	107.0	189.0	108.0	177.0	1
3.0.1	2019_Mar_06_1010	s	s	4	4	Capacity	48	1_2	1	2	1	4	23_1_4	0	2	1	0	0.627840995789	338.0	97.0	335.0	100.0	1
3.0.1	2019_Mar_06_1010	s	s	4	4	Capacity	49	ABS	0	0	1	3	24_1_3	NA	NA	0	1	9.80824995041	None	None	None	None	1
3.0.1	2019_Mar_06_1010	s	s	4	4	Capacity	50	1_4	1	4	1	1	23_1_1	0	3	1	0	0.710088014603	-132.0	-146.0	-127.0	-143.0	1
3.0.1	2019_Mar_06_1010	s	s	4	4	Capacity	51	ABS	0	0	1	1	24_1_1	NA	NA	0	1	1.96626210213	None	None	None	None	1
3.0.1	2019_Mar_06_1010	s	s	4	4	Capacity	52	ABS	0	0	1	2	24_1_2	NA	NA	0	1	10.1662302017	None	None	None	None	1
3.0.1	2019_Mar_06_1010	s	s	4	4	Capacity	53	ABS	0	0	1	4	24_1_4	NA	NA	0	1	1.93997001648	None	None	None	None	1
3.0.1	2019_Mar_06_1010	s	s	4	4	Capacity	54	ABS	0	0	1	3	24_1_3	NA	NA	0	1	7.2490029335	None	None	None	None	1
3.0.1	2019_Mar_06_1010	s	s	4	4	Capacity	55	ABS	0	0	1	3	24_1_3	NA	NA	0	1	9.44357895851	None	None	None	None	1
3.0.1	2019_Mar_06_1010	s	s	4	4	Capacity	56	1_1	1	1	1	3	23_1_3	0	2	1	0	0.775536060333	-264.0	-227.0	-256.0	-221.0	1
3.0.1	2019_Mar_06_1010	s	s	4	4	Capacity	57	ABS	0	0	1	2	24_1_2	NA	NA	0	1	11.337072134	None	None	None	None	1
3.0.1	2019_Mar_06_1010	s	s	4	4	Capacity	58	1_3	1	3	1	1	23_1_1	0	2	1	0	0.804433822632	18.0	-238.0	19.0	-235.0	1
3.0.1	2019_Mar_06_1010	s	s	4	4	Capacity	59	1_2	1	2	1	4	23_1_4	0	2	1	0	0.951963186264	346.0	-399.0	344.0	-403.0	1
3.0.1	2019_Mar_06_1010	s	s	4	4	Capacity	60	ABS	0	0	1	4	24_1_4	NA	NA	0	1	2.28087115288	None	None	None	None	1
3.0.1	2019_Mar_06_1010	s	s	4	4	Capacity	61	1_4	1	4	1	3	23_1_3	0	1	1	0	0.716840982437	420.0	42.0	422.0	33.0	1
3.0.1	2019_Mar_06_1010	s	s	4	4	Capacity	62	ABS	0	0	1	2	24_1_2	NA	NA	0	1	8.04851484299	None	None	None	None	1
3.0.1	2019_Mar_06_1010	s	s	4	4	Capacity	63	1_2	1	2	1	1	23_1_1	0	-1	1	0	1.40382099152	312.0	-153.0	319.0	-151.0	1
3.0.1	2019_Mar_06_1010	s	s	4	4	Capacity	64	1_3	1	3	1	2	23_1_2	0	1	1	0	2.80438113213	496.0	-377.0	498.0	-378.0	1
3.0.1	2019_Mar_06_1010	s	s	4	4	Capacity	65	1_3	1	3	1	4	23_1_4	0	-1	1	0	0.792309045792	300.0	209.0	307.0	203.0	1
3.0.1	2019_Mar_06_1010	s	s	4	4	Capacity	66	1_4	1	4	1	2	23_1_2	0	2	1	0	0.709948062897	525.0	52.0	527.0	47.0	1
3.0.1	2019_Mar_06_1010	s	s	4	4	Capacity	67	ABS	0	0	1	1	24_1_1	NA	NA	0	1	7.82043790817	None	None	None	None	1
3.0.1	2019_Mar_06_1010	s	s	4	4	Capacity	68	ABS	0	0	1	1	24_1_1	NA	NA	0	1	4.68321204185	None	None	None	None	1
3.0.1	2019_Mar_06_1010	s	s	4	4	Capacity	69	1_2	1	2	1	3	23_1_3	0	1	1	0	1.89296197891	370.0	-301.0	374.0	-306.0	1
3.0.1	2019_Mar_06_1010	s	s	4	4	Capacity	70	1_1	1	1	1	4	23_1_4	0	3	1	0	0.569612979889	86.0	227.0	82.0	226.0	1
3.0.1	2019_Mar_06_1010	s	s	4	4	Capacity	71	1_1	1	1	1	2	23_1_2	0	1	1	0	6.53856992722	420.0	-167.0	422.0	-170.0	1
3.0.1	2019_Mar_06_1010	s	s	4	4	Capacity	72	ABS	0	0	1	4	24_1_4	NA	NA	0	1	4.19808292389	None	None	None	None	1
3.0.1	2019_Mar_06_1010	s	s	4	4	Capacity	73	1_1	1	1	1	4	23_1_4	0	3	1	0	0.662947177887	316.0	263.0	309.0	261.0	1
3.0.1	2019_Mar_06_1010	s	s	4	4	Capacity	74	1_3	1	3	1	1	23_1_1	0	2	1	0	0.834428787231	-261.0	-173.0	-253.0	-170.0	1
3.0.1	2019_Mar_06_1010	s	s	4	4	Capacity	75	1_2	1	2	1	4	23_1_4	0	2	1	0	0.613806962967	-416.0	318.0	-412.0	320.0	1
3.0.1	2019_Mar_06_1010	s	s	4	4	Capacity	76	1_2	1	2	1	3	23_1_3	0	1	1	0	3.85717487335	417.0	-264.0	416.0	-261.0	1
3.0.1	2019_Mar_06_1010	s	s	4	4	Capacity	77	ABS	0	0	1	1	24_1_1	NA	NA	0	1	2.73470687866	None	None	None	None	1
3.0.1	2019_Mar_06_1010	s	s	4	4	Capacity	78	1_4	1	4	1	1	23_1_1	0	3	1	0	0.599567890167	279.0	379.0	281.0	384.0	1
3.0.1	2019_Mar_06_1010	s	s	4	4	Capacity	79	ABS	0	0	1	2	24_1_2	NA	NA	0	1	15.8533308506	None	None	None	None	1
3.0.1	2019_Mar_06_1010	s	s	4	4	Capacity	80	1_1	1	1	1	2	23_1_2	0	1	1	0	1.25774908066	-464.0	-19.0	-466.0	-20.0	1
3.0.1	2019_Mar_06_1010	s	s	4	4	Capacity	81	ABS	0	0	1	4	24_1_4	NA	NA	0	1	2.18006896973	None	None	None	None	1
3.0.1	2019_Mar_06_1010	s	s	4	4	Capacity	82	ABS	0	0	1	1	24_1_1	NA	NA	0	1	5.16785907745	None	None	None	None	1
3.0.1	2019_Mar_06_1010	s	s	4	4	Capacity	83	ABS	0	0	1	2	24_1_2	NA	NA	0	0	-1	None	None	None	None	-1
3.0.1	2019_Mar_06_1010	s	s	4	4	Capacity	84	1_4	1	4	1	3	23_1_3	0	1	1	0	0.627280950546	-384.0	191.0	-378.0	193.0	1
3.0.1	2019_Mar_06_1010	s	s	4	4	Capacity	85	ABS	0	0	1	4	24_1_4	NA	NA	0	1	2.25209212303	None	None	None	None	1
3.0.1	2019_Mar_06_1010	s	s	4	4	Capacity	86	1_3	1	3	1	4	23_1_4	0	-1	1	0	0.575651884079	438.0	-273.0	441.0	-275.0	1
3.0.1	2019_Mar_06_1010	s	s	4	4	Capacity	87	ABS	0	0	1	3	24_1_3	NA	NA	0	1	8.0557320118	None	None	None	None	1
3.0.1	2019_Mar_06_1010	s	s	4	4	Capacity	88	1_3	1	3	1	2	23_1_2	0	1	1	0	2.25748491287	-404.0	-39.0	-412.0	-41.0	1
3.0.1	2019_Mar_06_1010	s	s	4	4	Capacity	89	ABS	0	0	1	4	24_1_4	NA	NA	0	1	2.53977704048	None	None	None	None	1
3.0.1	2019_Mar_06_1010	s	s	4	4	Capacity	90	1_2	1	2	1	1	23_1_1	0	-1	0	1	1.90749692917	6.0	408.0	None	None	0
3.0.1	2019_Mar_06_1010	s	s	4	4	Capacity	91	ABS	0	0	1	3	24_1_3	NA	NA	0	1	9.2436029911	None	None	None	None	1
3.0.1	2019_Mar_06_1010	s	s	4	4	Capacity	92	ABS	0	0	1	3	24_1_3	NA	NA	0	1	7.79708099365	None	None	None	None	1
3.0.1	2019_Mar_06_1010	s	s	4	4	Capacity	93	ABS	0	0	1	1	24_1_1	NA	NA	0	1	3.73978185654	None	None	None	None	1
3.0.1	2019_Mar_06_1010	s	s	4	4	Capacity	94	1_1	1	1	1	3	23_1_3	0	2	1	0	1.50958681107	-529.0	30.0	-530.0	34.0	1
3.0.1	2019_Mar_06_1010	s	s	4	4	Capacity	95	1_4	1	4	1	2	23_1_2	0	2	1	0	0.646238088608	-522.0	-235.0	-524.0	-235.0	1
3.0.1	2019_Mar_06_1010	s	s	4	4	Capacity	96	ABS	0	0	1	2	24_1_2	NA	NA	0	1	11.7536799908	None	None	None	None	1
3.0.1	2019_Mar_06_1010	s	s	4	4	SIC	1	3_3	3	3	2	1	23_2_1	1	2	1	0	0.457947969437	280.0	176.0	279.0	180.0	1
3.0.1	2019_Mar_06_1010	s	s	4	4	SIC	2	4_2	4	2	4	4	23_4_4	0	2	1	0	0.646224975586	367.0	-60.0	372.0	-59.0	1
3.0.1	2019_Mar_06_1010	s	s	4	4	SIC	3	ABS	0	0	4	1	24_4_1	NA	NA	0	1	2.48756289482	None	None	None	None	1
3.0.1	2019_Mar_06_1010	s	s	4	4	SIC	4	2_1	2	1	3	2	23_3_2	1	1	1	0	0.646133184433	-276.0	276.0	-277.0	274.0	1
3.0.1	2019_Mar_06_1010	s	s	4	4	SIC	5	ABS	0	0	1	2	24_1_2	NA	NA	0	1	8.46732211113	None	None	None	None	1
3.0.1	2019_Mar_06_1010	s	s	4	4	SIC	6	ABS	0	0	4	3	24_4_3	NA	NA	0	1	2.64559197426	None	None	None	None	1
3.0.1	2019_Mar_06_1010	s	s	4	4	SIC	7	ABS	0	0	3	1	24_3_1	NA	NA	0	1	4.22186684608	None	None	None	None	1
3.0.1	2019_Mar_06_1010	s	s	4	4	SIC	8	4_2	4	2	1	3	23_1_3	3	1	1	0	0.509939908981	-529.0	-177.0	-532.0	-186.0	1
3.0.1	2019_Mar_06_1010	s	s	4	4	SIC	9	ABS	0	0	2	2	24_2_2	NA	NA	0	1	7.76610016823	None	None	None	None	1
3.0.1	2019_Mar_06_1010	s	s	4	4	SIC	10	ABS	0	0	2	1	24_2_1	NA	NA	0	1	2.03406190872	None	None	None	None	1
3.0.1	2019_Mar_06_1010	s	s	4	4	SIC	11	4_1	4	1	2	3	23_2_3	2	2	1	0	0.49621295929	347.0	-33.0	341.0	-31.0	1
3.0.1	2019_Mar_06_1010	s	s	4	4	SIC	12	4_1	4	1	1	4	23_1_4	3	3	1	0	0.429500102997	186.0	399.0	187.0	401.0	1
3.0.1	2019_Mar_06_1010	s	s	4	4	SIC	13	ABS	0	0	2	1	24_2_1	NA	NA	0	1	1.43706893921	None	None	None	None	1
3.0.1	2019_Mar_06_1010	s	s	4	4	SIC	14	ABS	0	0	2	1	24_2_1	NA	NA	0	1	1.44029402733	None	None	None	None	1
3.0.1	2019_Mar_06_1010	s	s	4	4	SIC	15	ABS	0	0	3	4	24_3_4	NA	NA	0	1	1.01374912262	None	None	None	None	1
3.0.1	2019_Mar_06_1010	s	s	4	4	SIC	16	2_3	2	3	3	4	23_3_4	1	-1	1	0	0.441664934158	73.0	-148.0	79.0	-148.0	1
3.0.1	2019_Mar_06_1010	s	s	4	4	SIC	17	2_1	2	1	1	4	23_1_4	-1	3	1	0	0.474917173386	240.0	-271.0	234.0	-270.0	1
3.0.1	2019_Mar_06_1010	s	s	4	4	SIC	18	4_3	4	3	4	1	23_4_1	0	2	1	0	1.14306402206	-321.0	261.0	-315.0	264.0	1
3.0.1	2019_Mar_06_1010	s	s	4	4	SIC	19	4_1	4	1	3	2	23_3_2	1	1	1	0	0.401983976364	-323.0	-59.0	-322.0	-63.0	1
3.0.1	2019_Mar_06_1010	s	s	4	4	SIC	20	ABS	0	0	1	2	24_1_2	NA	NA	0	1	7.9148440361	None	None	None	None	1
3.0.1	2019_Mar_06_1010	s	s	4	4	SIC	21	ABS	0	0	3	3	24_3_3	NA	NA	0	1	8.75460886955	None	None	None	None	1
3.0.1	2019_Mar_06_1010	s	s	4	4	SIC	22	ABS	0	0	3	4	24_3_4	NA	NA	0	1	1.89294981956	None	None	None	None	1
3.0.1	2019_Mar_06_1010	s	s	4	4	SIC	23	1_4	1	4	2	2	23_2_2	1	2	1	0	0.514511108398	6.0	63.0	0.0	59.0	1
3.0.1	2019_Mar_06_1010	s	s	4	4	SIC	24	3_4	3	4	3	2	23_3_2	0	2	1	0	0.775628805161	448.0	-403.0	449.0	-404.0	1
3.0.1	2019_Mar_06_1010	s	s	4	4	SIC	25	ABS	0	0	3	4	24_3_4	NA	NA	0	1	3.76286005974	None	None	None	None	1
3.0.1	2019_Mar_06_1010	s	s	4	4	SIC	26	3_3	3	3	1	2	23_1_2	2	1	1	0	0.399121999741	-242.0	-156.0	-246.0	-155.0	1
3.0.1	2019_Mar_06_1010	s	s	4	4	SIC	27	ABS	0	0	3	2	24_3_2	NA	NA	0	1	7.89434099197	None	None	None	None	1
3.0.1	2019_Mar_06_1010	s	s	4	4	SIC	28	4_4	4	4	1	4	23_1_4	3	0	1	0	0.427942037582	426.0	-86.0	422.0	-80.0	1
3.0.1	2019_Mar_06_1010	s	s	4	4	SIC	29	ABS	0	0	1	2	24_1_2	NA	NA	0	1	8.28453183174	None	None	None	None	1
3.0.1	2019_Mar_06_1010	s	s	4	4	SIC	30	1_3	1	3	2	3	23_2_3	1	0	1	0	1.15230798721	393.0	-373.0	393.0	-372.0	1
3.0.1	2019_Mar_06_1010	s	s	4	4	SIC	31	ABS	0	0	3	4	24_3_4	NA	NA	0	1	1.41582608223	None	None	None	None	1
3.0.1	2019_Mar_06_1010	s	s	4	4	SIC	32	ABS	0	0	2	4	24_2_4	NA	NA	0	1	3.15599393845	None	None	None	None	1
3.0.1	2019_Mar_06_1010	s	s	4	4	SIC	33	1_1	1	1	3	4	23_3_4	2	3	1	0	0.370535850525	290.0	343.0	303.0	346.0	1
3.0.1	2019_Mar_06_1010	s	s	4	4	SIC	34	2_1	2	1	3	3	23_3_3	1	2	1	0	0.528973817825	-366.0	273.0	-359.0	266.0	1
3.0.1	2019_Mar_06_1010	s	s	4	4	SIC	35	3_1	3	1	2	3	23_2_3	1	2	1	0	0.415635108948	-381.0	78.0	-376.0	79.0	1
3.0.1	2019_Mar_06_1010	s	s	4	4	SIC	36	ABS	0	0	3	3	24_3_3	NA	NA	0	1	7.37649512291	None	None	None	None	1
3.0.1	2019_Mar_06_1010	s	s	4	4	SIC	37	2_3	2	3	4	3	23_4_3	2	0	1	0	0.357449054718	-264.0	11.0	-272.0	18.0	1
3.0.1	2019_Mar_06_1010	s	s	4	4	SIC	38	ABS	0	0	1	3	24_1_3	NA	NA	0	1	8.3540289402	None	None	None	None	1
3.0.1	2019_Mar_06_1010	s	s	4	4	SIC	39	ABS	0	0	4	1	24_4_1	NA	NA	0	1	1.98015809059	None	None	None	None	1
3.0.1	2019_Mar_06_1010	s	s	4	4	SIC	40	ABS	0	0	1	4	24_1_4	NA	NA	0	1	2.02761292458	None	None	None	None	1
3.0.1	2019_Mar_06_1010	s	s	4	4	SIC	41	3_2	3	2	4	3	23_4_3	-1	1	1	0	0.451591014862	-71.0	11.0	-66.0	16.0	1
3.0.1	2019_Mar_06_1010	s	s	4	4	SIC	42	ABS	0	0	2	2	24_2_2	NA	NA	0	1	6.35672998428	None	None	None	None	1
3.0.1	2019_Mar_06_1010	s	s	4	4	SIC	43	ABS	0	0	3	2	24_3_2	NA	NA	0	1	5.62451505661	None	None	None	None	1
3.0.1	2019_Mar_06_1010	s	s	4	4	SIC	44	ABS	0	0	1	3	24_1_3	NA	NA	0	1	7.65585303307	None	None	None	None	1
3.0.1	2019_Mar_06_1010	s	s	4	4	SIC	45	ABS	0	0	2	1	24_2_1	NA	NA	0	1	2.3162689209	None	None	None	None	1
3.0.1	2019_Mar_06_1010	s	s	4	4	SIC	46	ABS	0	0	4	2	24_4_2	NA	NA	0	1	7.74988913536	None	None	None	None	1
3.0.1	2019_Mar_06_1010	s	s	4	4	SIC	47	3_1	3	1	2	4	23_2_4	1	3	1	0	0.473957061768	-512.0	112.0	-519.0	114.0	1
3.0.1	2019_Mar_06_1010	s	s	4	4	SIC	48	ABS	0	0	1	3	24_1_3	NA	NA	0	1	13.2100329399	None	None	None	None	1
3.0.1	2019_Mar_06_1010	s	s	4	4	SIC	49	ABS	0	0	1	4	24_1_4	NA	NA	0	1	1.61637997627	None	None	None	None	1
3.0.1	2019_Mar_06_1010	s	s	4	4	SIC	50	1_2	1	2	3	2	23_3_2	2	0	1	0	0.646329164505	402.0	-5.0	394.0	-6.0	1
3.0.1	2019_Mar_06_1010	s	s	4	4	SIC	51	3_1	3	1	4	2	23_4_2	-1	1	1	0	0.411057949066	104.0	74.0	104.0	66.0	1
3.0.1	2019_Mar_06_1010	s	s	4	4	SIC	52	ABS	0	0	3	2	24_3_2	NA	NA	0	1	3.78929114342	None	None	None	None	1
3.0.1	2019_Mar_06_1010	s	s	4	4	SIC	53	3_2	3	2	1	3	23_1_3	2	1	1	0	0.475113153458	-164.0	403.0	-156.0	400.0	1
3.0.1	2019_Mar_06_1010	s	s	4	4	SIC	54	1_2	1	2	1	3	23_1_3	0	1	1	0	2.16720509529	173.0	17.0	177.0	10.0	1
3.0.1	2019_Mar_06_1010	s	s	4	4	SIC	55	2_1	2	1	4	2	23_4_2	2	1	1	0	0.363913059235	-49.0	296.0	-49.0	296.0	1
3.0.1	2019_Mar_06_1010	s	s	4	4	SIC	56	ABS	0	0	4	2	24_4_2	NA	NA	0	1	8.10766196251	None	None	None	None	1
3.0.1	2019_Mar_06_1010	s	s	4	4	SIC	57	ABS	0	0	4	4	24_4_4	NA	NA	0	1	3.5327270031	None	None	None	None	1
3.0.1	2019_Mar_06_1010	s	s	4	4	SIC	58	ABS	0	0	4	2	24_4_2	NA	NA	0	1	9.87181615829	None	None	None	None	1
3.0.1	2019_Mar_06_1010	s	s	4	4	SIC	59	ABS	0	0	2	3	24_2_3	NA	NA	0	1	9.6379339695	None	None	None	None	1
3.0.1	2019_Mar_06_1010	s	s	4	4	SIC	60	ABS	0	0	2	2	24_2_2	NA	NA	0	1	7.32650303841	None	None	None	None	1
3.0.1	2019_Mar_06_1010	s	s	4	4	SIC	61	ABS	0	0	2	1	24_2_1	NA	NA	0	1	4.70871305466	None	None	None	None	1
3.0.1	2019_Mar_06_1010	s	s	4	4	SIC	62	4_1	4	1	4	2	23_4_2	0	1	1	0	3.67404007912	65.0	55.0	62.0	59.0	1
3.0.1	2019_Mar_06_1010	s	s	4	4	SIC	63	ABS	0	0	3	4	24_3_4	NA	NA	0	1	3.33934998512	None	None	None	None	1
3.0.1	2019_Mar_06_1010	s	s	4	4	SIC	64	ABS	0	0	3	2	24_3_2	NA	NA	0	1	9.22002410889	None	None	None	None	1
3.0.1	2019_Mar_06_1010	s	s	4	4	SIC	65	ABS	0	0	4	3	24_4_3	NA	NA	0	1	6.06814098358	None	None	None	None	1
3.0.1	2019_Mar_06_1010	s	s	4	4	SIC	66	1_2	1	2	3	4	23_3_4	2	2	1	0	0.462378978729	450.0	-60.0	455.0	-68.0	1
3.0.1	2019_Mar_06_1010	s	s	4	4	SIC	67	1_4	1	4	2	3	23_2_3	1	1	1	0	0.940228939056	-220.0	-317.0	-213.0	-321.0	1
3.0.1	2019_Mar_06_1010	s	s	4	4	SIC	68	ABS	0	0	1	4	24_1_4	NA	NA	0	1	2.40484118462	None	None	None	None	1
3.0.1	2019_Mar_06_1010	s	s	4	4	SIC	69	2_4	2	4	3	3	23_3_3	1	1	1	0	0.528970956802	-178.0	-352.0	-179.0	-357.0	1
3.0.1	2019_Mar_06_1010	s	s	4	4	SIC	70	ABS	0	0	2	4	24_2_4	NA	NA	0	1	3.11599302292	None	None	None	None	1
3.0.1	2019_Mar_06_1010	s	s	4	4	SIC	71	ABS	0	0	2	2	24_2_2	NA	NA	0	1	7.32979202271	None	None	None	None	1
3.0.1	2019_Mar_06_1010	s	s	4	4	SIC	72	ABS	0	0	1	1	24_1_1	NA	NA	0	1	1.8810749054	None	None	None	None	1
3.0.1	2019_Mar_06_1010	s	s	4	4	SIC	73	ABS	0	0	1	3	24_1_3	NA	NA	0	1	7.00900220871	None	None	None	None	1
3.0.1	2019_Mar_06_1010	s	s	4	4	SIC	74	3_1	3	1	1	4	23_1_4	2	3	1	0	0.62752199173	-386.0	-361.0	-388.0	-354.0	1
3.0.1	2019_Mar_06_1010	s	s	4	4	SIC	75	ABS	0	0	2	4	24_2_4	NA	NA	0	1	1.37826490402	None	None	None	None	1
3.0.1	2019_Mar_06_1010	s	s	4	4	SIC	76	3_4	3	4	2	2	23_2_2	1	2	1	0	0.640263795853	69.0	402.0	74.0	402.0	1
3.0.1	2019_Mar_06_1010	s	s	4	4	SIC	77	ABS	0	0	1	2	24_1_2	NA	NA	0	1	9.08351612091	None	None	None	None	1
3.0.1	2019_Mar_06_1010	s	s	4	4	SIC	78	4_3	4	3	1	1	23_1_1	3	2	1	0	0.380498170853	426.0	135.0	427.0	127.0	1
3.0.1	2019_Mar_06_1010	s	s	4	4	SIC	79	ABS	0	0	2	3	24_2_3	NA	NA	0	1	12.4925599098	None	None	None	None	1
3.0.1	2019_Mar_06_1010	s	s	4	4	SIC	80	4_2	4	2	1	4	23_1_4	3	2	1	0	0.458033084869	420.0	-156.0	415.0	-149.0	1
3.0.1	2019_Mar_06_1010	s	s	4	4	SIC	81	3_2	3	2	2	3	23_2_3	1	1	1	0	0.422712087631	16.0	316.0	16.0	320.0	1
3.0.1	2019_Mar_06_1010	s	s	4	4	SIC	82	ABS	0	0	4	1	24_4_1	NA	NA	0	1	1.35185980797	None	None	None	None	1
3.0.1	2019_Mar_06_1010	s	s	4	4	SIC	83	ABS	0	0	1	4	24_1_4	NA	NA	0	1	2.17999196053	None	None	None	None	1
3.0.1	2019_Mar_06_1010	s	s	4	4	SIC	84	2_2	2	2	4	2	23_4_2	2	0	1	0	0.399219989777	-95.0	257.0	-102.0	256.0	1
3.0.1	2019_Mar_06_1010	s	s	4	4	SIC	85	4_3	4	3	3	2	23_3_2	1	1	1	0	0.410987854004	432.0	180.0	436.0	180.0	1
3.0.1	2019_Mar_06_1010	s	s	4	4	SIC	86	ABS	0	0	4	4	24_4_4	NA	NA	0	1	1.32437610626	None	None	None	None	1
3.0.1	2019_Mar_06_1010	s	s	4	4	SIC	87	ABS	0	0	4	2	24_4_2	NA	NA	0	1	8.31735301018	None	None	None	None	1
3.0.1	2019_Mar_06_1010	s	s	4	4	SIC	88	1_3	1	3	2	4	23_2_4	1	-1	1	0	0.457890987396	-287.0	189.0	-286.0	187.0	1
3.0.1	2019_Mar_06_1010	s	s	4	4	SIC	89	ABS	0	0	4	4	24_4_4	NA	NA	0	1	2.90969705582	None	None	None	None	1
3.0.1	2019_Mar_06_1010	s	s	4	4	SIC	90	ABS	0	0	2	4	24_2_4	NA	NA	0	1	1.88108515739	None	None	None	None	1
3.0.1	2019_Mar_06_1010	s	s	4	4	SIC	91	ABS	0	0	2	3	24_2_3	NA	NA	0	1	4.49024796486	None	None	None	None	1
3.0.1	2019_Mar_06_1010	s	s	4	4	SIC	92	2_4	2	4	1	1	23_1_1	-1	3	1	0	0.579508066177	1.0	9.0	10.0	16.0	1
3.0.1	2019_Mar_06_1010	s	s	4	4	SIC	93	ABS	0	0	4	2	24_4_2	NA	NA	0	1	4.96545410156	None	None	None	None	1
3.0.1	2019_Mar_06_1010	s	s	4	4	SIC	94	2_4	2	4	1	3	23_1_3	-1	1	1	0	2.30445885658	360.0	-403.0	362.0	-416.0	1
3.0.1	2019_Mar_06_1010	s	s	4	4	SIC	95	1_3	1	3	3	2	23_3_2	2	1	1	0	0.437436103821	-388.0	204.0	-380.0	208.0	1
3.0.1	2019_Mar_06_1010	s	s	4	4	SIC	96	4_3	4	3	2	3	23_2_3	2	0	1	0	0.393462181091	72.0	-22.0	71.0	-22.0	1
3.0.1	2019_Mar_06_1010	s	s	4	4	SIC	97	3_2	3	2	2	4	23_2_4	1	2	1	0	0.575654029846	258.0	-341.0	259.0	-347.0	1
3.0.1	2019_Mar_06_1010	s	s	4	4	SIC	98	ABS	0	0	2	3	24_2_3	NA	NA	0	1	8.6437420845	None	None	None	None	1
3.0.1	2019_Mar_06_1010	s	s	4	4	SIC	99	ABS	0	0	3	3	24_3_3	NA	NA	0	1	5.72054791451	None	None	None	None	1
3.0.1	2019_Mar_06_1010	s	s	4	4	SIC	100	ABS	0	0	2	4	24_2_4	NA	NA	0	1	1.35672187805	None	None	None	None	1
3.0.1	2019_Mar_06_1010	s	s	4	4	SIC	101	ABS	0	0	2	3	24_2_3	NA	NA	0	1	9.44357514381	None	None	None	None	1
3.0.1	2019_Mar_06_1010	s	s	4	4	SIC	102	4_2	4	2	3	4	23_3_4	1	2	1	0	0.410864830017	421.0	26.0	413.0	26.0	1
3.0.1	2019_Mar_06_1010	s	s	4	4	SIC	103	ABS	0	0	3	2	24_3_2	NA	NA	0	1	6.79723501205	None	None	None	None	1
3.0.1	2019_Mar_06_1010	s	s	4	4	SIC	104	ABS	0	0	3	2	24_3_2	NA	NA	0	1	5.90765690804	None	None	None	None	1
3.0.1	2019_Mar_06_1010	s	s	4	4	SIC	105	3_3	3	3	1	3	23_1_3	2	0	1	0	0.434467077255	305.0	266.0	305.0	269.0	1
3.0.1	2019_Mar_06_1010	s	s	4	4	SIC	106	4_3	4	3	3	3	23_3_3	1	0	1	0	0.380537033081	208.0	208.0	209.0	214.0	1
3.0.1	2019_Mar_06_1010	s	s	4	4	SIC	107	ABS	0	0	3	3	24_3_3	NA	NA	0	1	7.8623790741	None	None	None	None	1
3.0.1	2019_Mar_06_1010	s	s	4	4	SIC	108	ABS	0	0	4	1	24_4_1	NA	NA	0	1	1.00320792198	None	None	None	None	1
3.0.1	2019_Mar_06_1010	s	s	4	4	SIC	109	ABS	0	0	2	1	24_2_1	NA	NA	0	1	2.25293493271	None	None	None	None	1
3.0.1	2019_Mar_06_1010	s	s	4	4	SIC	110	ABS	0	0	1	2	24_1_2	NA	NA	0	1	8.61150288582	None	None	None	None	1
3.0.1	2019_Mar_06_1010	s	s	4	4	SIC	111	ABS	0	0	3	1	24_3_1	NA	NA	0	1	2.19363689423	None	None	None	None	1
3.0.1	2019_Mar_06_1010	s	s	4	4	SIC	112	1_1	1	1	3	1	23_3_1	2	0	1	0	0.591438055038	-385.0	-313.0	-385.0	-323.0	1
3.0.1	2019_Mar_06_1010	s	s	4	4	SIC	113	ABS	0	0	3	2	24_3_2	NA	NA	0	1	7.5970389843	None	None	None	None	1
3.0.1	2019_Mar_06_1010	s	s	4	4	SIC	114	1_3	1	3	1	2	23_1_2	0	1	1	0	1.75475692749	-467.0	-72.0	-471.0	-82.0	1
3.0.1	2019_Mar_06_1010	s	s	4	4	SIC	115	ABS	0	0	4	4	24_4_4	NA	NA	0	1	1.4577088356	None	None	None	None	1
3.0.1	2019_Mar_06_1010	s	s	4	4	SIC	116	ABS	0	0	4	4	24_4_4	NA	NA	0	1	2.30456209183	None	None	None	None	1
3.0.1	2019_Mar_06_1010	s	s	4	4	SIC	117	2_2	2	2	2	3	23_2_3	0	1	1	0	3.19113087654	-325.0	105.0	-317.0	103.0	1
3.0.1	2019_Mar_06_1010	s	s	4	4	SIC	118	ABS	0	0	1	4	24_1_4	NA	NA	0	1	1.74433708191	None	None	None	None	1
3.0.1	2019_Mar_06_1010	s	s	4	4	SIC	119	ABS	0	0	1	2	24_1_2	NA	NA	0	1	8.18512606621	None	None	None	None	1
3.0.1	2019_Mar_06_1010	s	s	4	4	SIC	120	1_4	1	4	4	2	23_4_2	3	2	1	0	0.437408208847	241.0	-253.0	240.0	-259.0	1
3.0.1	2019_Mar_06_1010	s	s	4	4	SIC	121	ABS	0	0	3	3	24_3_3	NA	NA	0	1	10.0316011906	None	None	None	None	1
3.0.1	2019_Mar_06_1010	s	s	4	4	SIC	122	ABS	0	0	4	1	24_4_1	NA	NA	0	1	1.99205803871	None	None	None	None	1
3.0.1	2019_Mar_06_1010	s	s	4	4	SIC	123	ABS	0	0	1	1	24_1_1	NA	NA	0	1	4.53246903419	None	None	None	None	1
3.0.1	2019_Mar_06_1010	s	s	4	4	SIC	124	ABS	0	0	1	4	24_1_4	NA	NA	0	1	0.928529977798	None	None	None	None	1
3.0.1	2019_Mar_06_1010	s	s	4	4	SIC	125	4_4	4	4	1	2	23_1_2	3	2	1	0	0.437378883362	-15.0	268.0	-16.0	271.0	1
3.0.1	2019_Mar_06_1010	s	s	4	4	SIC	126	ABS	0	0	3	1	24_3_1	NA	NA	0	1	2.05252814293	None	None	None	None	1
3.0.1	2019_Mar_06_1010	s	s	4	4	SIC	127	ABS	0	0	2	1	24_2_1	NA	NA	0	1	1.59891200066	None	None	None	None	1
3.0.1	2019_Mar_06_1010	s	s	4	4	SIC	128	1_2	1	2	2	1	23_2_1	1	-1	1	0	2.32803297043	267.0	-75.0	268.0	-77.0	1
3.0.1	2019_Mar_06_1010	s	s	4	4	SIC	129	2_2	2	2	3	3	23_3_3	1	1	1	0	0.410974025726	-9.0	-75.0	-2.0	-79.0	1
3.0.1	2019_Mar_06_1010	s	s	4	4	SIC	130	4_1	4	1	3	1	23_3_1	1	0	1	0	0.502797842026	-200.0	308.0	-201.0	311.0	1
3.0.1	2019_Mar_06_1010	s	s	4	4	SIC	131	ABS	0	0	2	3	24_2_3	NA	NA	0	1	7.70280194283	None	None	None	None	1
3.0.1	2019_Mar_06_1010	s	s	4	4	SIC	132	2_1	2	1	2	4	23_2_4	0	3	1	0	0.449995040894	288.0	-130.0	287.0	-135.0	1
3.0.1	2019_Mar_06_1010	s	s	4	4	SIC	133	4_2	4	2	3	3	23_3_3	1	1	1	0	0.378880977631	-449.0	-149.0	-460.0	-140.0	1
3.0.1	2019_Mar_06_1010	s	s	4	4	SIC	134	2_3	2	3	2	4	23_2_4	0	-1	1	0	0.559373855591	348.0	-207.0	350.0	-210.0	1
3.0.1	2019_Mar_06_1010	s	s	4	4	SIC	135	ABS	0	0	2	3	24_2_3	NA	NA	0	1	6.30332112312	None	None	None	None	1
3.0.1	2019_Mar_06_1010	s	s	4	4	SIC	136	1_2	1	2	1	4	23_1_4	0	2	1	0	0.512144088745	329.0	-133.0	323.0	-140.0	1
3.0.1	2019_Mar_06_1010	s	s	4	4	SIC	137	3_1	3	1	1	1	23_1_1	2	0	1	0	0.68745303154	77.0	-47.0	77.0	-48.0	1
3.0.1	2019_Mar_06_1010	s	s	4	4	SIC	138	2_2	2	2	3	4	23_3_4	1	2	1	0	0.839746952057	400.0	-190.0	406.0	-189.0	1
3.0.1	2019_Mar_06_1010	s	s	4	4	SIC	139	ABS	0	0	3	1	24_3_1	NA	NA	0	1	2.96311688423	None	None	None	None	1
3.0.1	2019_Mar_06_1010	s	s	4	4	SIC	140	2_2	2	2	1	2	23_1_2	-1	0	1	0	0.570510149002	-26.0	-77.0	-25.0	-77.0	1
3.0.1	2019_Mar_06_1010	s	s	4	4	SIC	141	3_2	3	2	2	2	23_2_2	1	0	1	0	0.437454938889	433.0	-136.0	432.0	-142.0	1
3.0.1	2019_Mar_06_1010	s	s	4	4	SIC	142	1_4	1	4	4	4	23_4_4	3	0	1	0	0.37854218483	-504.0	-43.0	-500.0	-41.0	1
3.0.1	2019_Mar_06_1010	s	s	4	4	SIC	143	4_1	4	1	3	3	23_3_3	1	2	1	0	0.368577957153	515.0	381.0	512.0	387.0	1
3.0.1	2019_Mar_06_1010	s	s	4	4	SIC	144	4_3	4	3	3	4	23_3_4	1	-1	1	0	0.387435913086	218.0	-178.0	213.0	-188.0	1
3.0.1	2019_Mar_06_1010	s	s	4	4	SIC	145	3_4	3	4	4	2	23_4_2	-1	2	1	0	0.34033203125	445.0	-148.0	438.0	-155.0	1
3.0.1	2019_Mar_06_1010	s	s	4	4	SIC	146	1_1	1	1	2	3	23_2_3	1	2	1	0	2.56002998352	-404.0	278.0	-409.0	275.0	1
3.0.1	2019_Mar_06_1010	s	s	4	4	SIC	147	3_3	3	3	3	4	23_3_4	0	-1	1	0	0.646214962006	-25.0	296.0	-25.0	297.0	1
3.0.1	2019_Mar_06_1010	s	s	4	4	SIC	148	ABS	0	0	4	1	24_4_1	NA	NA	0	1	1.24890995026	None	None	None	None	1
3.0.1	2019_Mar_06_1010	s	s	4	4	SIC	149	ABS	0	0	4	4	24_4_4	NA	NA	0	1	0.260993003845	None	None	None	None	1
3.0.1	2019_Mar_06_1010	s	s	4	4	SIC	150	2_2	2	2	3	2	23_3_2	1	0	1	0	0.496206045151	-166.0	-196.0	-162.0	-202.0	1
3.0.1	2019_Mar_06_1010	s	s	4	4	SIC	151	4_4	4	4	1	1	23_1_1	3	3	1	0	0.378581047058	-495.0	-79.0	-500.0	-82.0	1
3.0.1	2019_Mar_06_1010	s	s	4	4	SIC	152	2_1	2	1	4	3	23_4_3	2	2	1	0	0.357135057449	259.0	250.0	266.0	247.0	1
3.0.1	2019_Mar_06_1010	s	s	4	4	SIC	153	ABS	0	0	3	2	24_3_2	NA	NA	0	1	11.2193470001	None	None	None	None	1
3.0.1	2019_Mar_06_1010	s	s	4	4	SIC	154	ABS	0	0	2	2	24_2_2	NA	NA	0	1	7.80907487869	None	None	None	None	1
3.0.1	2019_Mar_06_1010	s	s	4	4	SIC	155	1_1	1	1	2	4	23_2_4	1	3	1	0	0.705084085464	-511.0	-129.0	-510.0	-134.0	1
3.0.1	2019_Mar_06_1010	s	s	4	4	SIC	156	ABS	0	0	1	4	24_1_4	NA	NA	0	1	1.64018797874	None	None	None	None	1
3.0.1	2019_Mar_06_1010	s	s	4	4	SIC	157	3_4	3	4	2	4	23_2_4	1	0	1	0	0.528515100479	146.0	-64.0	147.0	-69.0	1
3.0.1	2019_Mar_06_1010	s	s	4	4	SIC	158	ABS	0	0	4	2	24_4_2	NA	NA	0	1	9.15429401398	None	None	None	None	1
3.0.1	2019_Mar_06_1010	s	s	4	4	SIC	159	2_2	2	2	1	1	23_1_1	-1	-1	1	0	1.18168997765	-151.0	401.0	-156.0	404.0	1
3.0.1	2019_Mar_06_1010	s	s	4	4	SIC	160	3_1	3	1	2	2	23_2_2	1	1	1	0	0.425975084305	-438.0	-124.0	-439.0	-127.0	1
3.0.1	2019_Mar_06_1010	s	s	4	4	SIC	161	ABS	0	0	1	4	24_1_4	NA	NA	0	1	4.34283804893	None	None	None	None	1
3.0.1	2019_Mar_06_1010	s	s	4	4	SIC	162	ABS	0	0	3	2	24_3_2	NA	NA	0	1	8.96520614624	None	None	None	None	1
3.0.1	2019_Mar_06_1010	s	s	4	4	SIC	163	4_4	4	4	2	1	23_2_1	2	3	1	0	0.540462017059	537.0	-243.0	546.0	-236.0	1
3.0.1	2019_Mar_06_1010	s	s	4	4	SIC	164	ABS	0	0	4	3	24_4_3	NA	NA	0	1	6.62475895882	None	None	None	None	1
3.0.1	2019_Mar_06_1010	s	s	4	4	SIC	165	ABS	0	0	4	4	24_4_4	NA	NA	0	1	1.86935400963	None	None	None	None	1
3.0.1	2019_Mar_06_1010	s	s	4	4	SIC	166	ABS	0	0	2	4	24_2_4	NA	NA	0	1	1.88112211227	None	None	None	None	1
3.0.1	2019_Mar_06_1010	s	s	4	4	SIC	167	ABS	0	0	3	3	24_3_3	NA	NA	0	1	8.63224387169	None	None	None	None	1
3.0.1	2019_Mar_06_1010	s	s	4	4	SIC	168	1_3	1	3	1	4	23_1_4	0	-1	1	0	0.57562994957	-165.0	-288.0	-168.0	-290.0	1
3.0.1	2019_Mar_06_1010	s	s	4	4	SIC	169	3_2	3	2	1	1	23_1_1	2	-1	1	0	0.451143980026	111.0	-354.0	109.0	-363.0	1
3.0.1	2019_Mar_06_1010	s	s	4	4	SIC	170	4_3	4	3	2	1	23_2_1	2	2	1	0	0.383670091629	-98.0	375.0	-100.0	367.0	1
3.0.1	2019_Mar_06_1010	s	s	4	4	SIC	171	2_1	2	1	1	2	23_1_2	-1	1	1	0	4.26859283447	452.0	287.0	457.0	287.0	1
3.0.1	2019_Mar_06_1010	s	s	4	4	SIC	172	3_2	3	2	1	2	23_1_2	2	0	1	0	0.378525972366	-17.0	91.0	-13.0	94.0	1
3.0.1	2019_Mar_06_1010	s	s	4	4	SIC	173	2_2	2	2	3	1	23_3_1	1	-1	1	0	0.399225950241	-108.0	6.0	-108.0	1.0	1
3.0.1	2019_Mar_06_1010	s	s	4	4	SIC	174	3_2	3	2	3	4	23_3_4	0	2	1	0	1.26064109802	512.0	-283.0	519.0	-282.0	1
3.0.1	2019_Mar_06_1010	s	s	4	4	SIC	175	3_4	3	4	1	4	23_1_4	2	0	1	0	0.383965969086	-351.0	39.0	-357.0	40.0	1
3.0.1	2019_Mar_06_1010	s	s	4	4	SIC	176	ABS	0	0	4	4	24_4_4	NA	NA	0	1	1.51002502441	None	None	None	None	1
3.0.1	2019_Mar_06_1010	s	s	4	4	SIC	177	ABS	0	0	3	4	24_3_4	NA	NA	0	1	1.62746214867	None	None	None	None	1
3.0.1	2019_Mar_06_1010	s	s	4	4	SIC	178	ABS	0	0	1	1	24_1_1	NA	NA	0	1	3.648416996	None	None	None	None	1
3.0.1	2019_Mar_06_1010	s	s	4	4	SIC	179	1_4	1	4	4	3	23_4_3	3	1	1	0	0.446490049362	478.0	15.0	484.0	13.0	1
3.0.1	2019_Mar_06_1010	s	s	4	4	SIC	180	1_3	1	3	2	1	23_2_1	1	2	1	0	0.933408975601	215.0	331.0	215.0	336.0	1
3.0.1	2019_Mar_06_1010	s	s	4	4	SIC	181	2_3	2	3	3	3	23_3_3	1	0	1	0	0.458080053329	-137.0	-249.0	-136.0	-245.0	1
3.0.1	2019_Mar_06_1010	s	s	4	4	SIC	182	4_2	4	2	3	1	23_3_1	1	-1	1	0	0.35622882843	285.0	203.0	285.0	192.0	1
3.0.1	2019_Mar_06_1010	s	s	4	4	SIC	183	ABS	0	0	1	4	24_1_4	NA	NA	0	1	3.05728912354	None	None	None	None	1
3.0.1	2019_Mar_06_1010	s	s	4	4	SIC	184	3_3	3	3	3	1	23_3_1	0	2	1	0	0.561128854752	165.0	-77.0	169.0	-84.0	1
3.0.1	2019_Mar_06_1010	s	s	4	4	SIC	185	3_1	3	1	3	2	23_3_2	0	1	1	0	6.55315685272	-193.0	-121.0	-192.0	-125.0	1
3.0.1	2019_Mar_06_1010	s	s	4	4	SIC	186	4_4	4	4	1	3	23_1_3	3	1	1	0	0.881447076797	287.0	363.0	283.0	356.0	1
3.0.1	2019_Mar_06_1010	s	s	4	4	SIC	187	ABS	0	0	1	2	24_1_2	NA	NA	0	1	12.6463210583	None	None	None	None	1
3.0.1	2019_Mar_06_1010	s	s	4	4	SIC	188	ABS	0	0	3	3	24_3_3	NA	NA	0	1	6.97851014137	None	None	None	None	1
3.0.1	2019_Mar_06_1010	s	s	4	4	SIC	189	4_3	4	3	4	2	23_4_2	0	1	1	0	3.35767102242	-342.0	-22.0	-340.0	-22.0	1
3.0.1	2019_Mar_06_1010	s	s	4	4	SIC	190	2_3	2	3	1	2	23_1_2	-1	1	1	0	0.907831192017	-414.0	335.0	-415.0	336.0	1
3.0.1	2019_Mar_06_1010	s	s	4	4	SIC	191	ABS	0	0	1	2	24_1_2	NA	NA	0	1	9.83205604553	None	None	None	None	1
3.0.1	2019_Mar_06_1010	s	s	4	4	SIC	192	2_2	2	2	4	1	23_4_1	2	-1	1	0	0.399230003357	236.0	99.0	238.0	96.0	1
3.0.1	2019_Mar_06_1010	s	s	4	4	SIC	193	3_3	3	3	1	1	23_1_1	2	2	1	0	0.422904014587	118.0	-111.0	115.0	-115.0	1
3.0.1	2019_Mar_06_1010	s	s	4	4	SIC	194	1_4	1	4	3	4	23_3_4	2	0	1	0	0.484436035156	422.0	313.0	417.0	314.0	1
3.0.1	2019_Mar_06_1010	s	s	4	4	SIC	195	2_3	2	3	3	1	23_3_1	1	2	1	0	0.519625902176	376.0	-197.0	377.0	-195.0	1
3.0.1	2019_Mar_06_1010	s	s	4	4	SIC	196	2_1	2	1	2	3	23_2_3	0	2	1	0	0.837236881256	-245.0	-154.0	-244.0	-152.0	1
3.0.1	2019_Mar_06_1010	s	s	4	4	SIC	197	1_1	1	1	3	2	23_3_2	2	1	1	0	0.385032892227	338.0	17.0	335.0	13.0	1
3.0.1	2019_Mar_06_1010	s	s	4	4	SIC	198	ABS	0	0	2	3	24_2_3	NA	NA	0	1	8.99683380127	None	None	None	None	1
3.0.1	2019_Mar_06_1010	s	s	4	4	SIC	199	1_2	1	2	4	2	23_4_2	3	0	1	0	0.375694990158	153.0	69.0	152.0	63.0	1
3.0.1	2019_Mar_06_1010	s	s	4	4	SIC	200	2_3	2	3	4	1	23_4_1	2	2	1	0	0.340371847153	178.0	214.0	176.0	212.0	1
3.0.1	2019_Mar_06_1010	s	s	4	4	SIC	201	4_3	4	3	2	2	23_2_2	2	1	1	0	0.324692964554	-159.0	89.0	-158.0	77.0	1
3.0.1	2019_Mar_06_1010	s	s	4	4	SIC	202	ABS	0	0	1	4	24_1_4	NA	NA	0	1	2.15160012245	None	None	None	None	1
3.0.1	2019_Mar_06_1010	s	s	4	4	SIC	203	ABS	0	0	1	1	24_1_1	NA	NA	0	1	1.84872889519	None	None	None	None	1
3.0.1	2019_Mar_06_1010	s	s	4	4	SIC	204	ABS	0	0	3	4	24_3_4	NA	NA	0	1	1.51640701294	None	None	None	None	1
3.0.1	2019_Mar_06_1010	s	s	4	4	SIC	205	ABS	0	0	1	3	24_1_3	NA	NA	0	1	8.96653199196	None	None	None	None	1
3.0.1	2019_Mar_06_1010	s	s	4	4	SIC	206	1_1	1	1	2	1	23_2_1	1	0	1	0	0.528563022614	106.0	-72.0	100.0	-76.0	1
3.0.1	2019_Mar_06_1010	s	s	4	4	SIC	207	ABS	0	0	1	3	24_1_3	NA	NA	0	1	9.61109995842	None	None	None	None	1
3.0.1	2019_Mar_06_1010	s	s	4	4	SIC	208	1_3	1	3	3	4	23_3_4	2	-1	1	0	0.415894985199	129.0	106.0	121.0	102.0	1
3.0.1	2019_Mar_06_1010	s	s	4	4	SIC	209	3_4	3	4	2	1	23_2_1	1	3	1	0	0.452276945114	-111.0	-4.0	-113.0	6.0	1
3.0.1	2019_Mar_06_1010	s	s	4	4	SIC	210	ABS	0	0	4	2	24_4_2	NA	NA	0	1	7.63603591919	None	None	None	None	1
3.0.1	2019_Mar_06_1010	s	s	4	4	SIC	211	4_2	4	2	2	2	23_2_2	2	0	1	0	0.531346797943	-292.0	342.0	-287.0	338.0	1
3.0.1	2019_Mar_06_1010	s	s	4	4	SIC	212	ABS	0	0	1	2	24_1_2	NA	NA	0	1	8.09656691551	None	None	None	None	1
3.0.1	2019_Mar_06_1010	s	s	4	4	SIC	213	ABS	0	0	2	2	24_2_2	NA	NA	0	1	8.9311299324	None	None	None	None	1
3.0.1	2019_Mar_06_1010	s	s	4	4	SIC	214	ABS	0	0	1	3	24_1_3	NA	NA	0	1	8.40852808952	None	None	None	None	1
3.0.1	2019_Mar_06_1010	s	s	4	4	SIC	215	ABS	0	0	3	4	24_3_4	NA	NA	0	1	1.44337296486	None	None	None	None	1
3.0.1	2019_Mar_06_1010	s	s	4	4	SIC	216	ABS	0	0	3	4	24_3_4	NA	NA	0	1	1.03157091141	None	None	None	None	1
3.0.1	2019_Mar_06_1010	s	s	4	4	SIC	217	1_1	1	1	2	2	23_2_2	1	1	1	0	0.540359020233	293.0	78.0	288.0	74.0	1
3.0.1	2019_Mar_06_1010	s	s	4	4	SIC	218	2_2	2	2	4	4	23_4_4	2	2	1	0	0.356117010117	7.0	96.0	9.0	90.0	1
3.0.1	2019_Mar_06_1010	s	s	4	4	SIC	219	ABS	0	0	4	1	24_4_1	NA	NA	0	1	1.39150500298	None	None	None	None	1
3.0.1	2019_Mar_06_1010	s	s	4	4	SIC	220	ABS	0	0	3	1	24_3_1	NA	NA	0	1	1.22249984741	None	None	None	None	1
3.0.1	2019_Mar_06_1010	s	s	4	4	SIC	221	ABS	0	0	3	2	24_3_2	NA	NA	0	1	7.36632704735	None	None	None	None	1
3.0.1	2019_Mar_06_1010	s	s	4	4	SIC	222	2_4	2	4	2	1	23_2_1	0	3	1	0	0.505077838898	-308.0	-32.0	-308.0	-30.0	1
3.0.1	2019_Mar_06_1010	s	s	4	4	SIC	223	2_1	2	1	2	2	23_2_2	0	1	1	0	4.20098090172	429.0	169.0	433.0	165.0	1
3.0.1	2019_Mar_06_1010	s	s	4	4	SIC	224	ABS	0	0	3	3	24_3_3	NA	NA	0	1	6.09185290337	None	None	None	None	1
3.0.1	2019_Mar_06_1010	s	s	4	4	SIC	225	4_2	4	2	1	2	23_1_2	3	0	1	0	0.410992860794	177.0	304.0	181.0	305.0	1
3.0.1	2019_Mar_06_1010	s	s	4	4	SIC	226	ABS	0	0	4	3	24_4_3	NA	NA	0	1	15.1623468399	None	None	None	None	1
3.0.1	2019_Mar_06_1010	s	s	4	4	SIC	227	ABS	0	0	1	1	24_1_1	NA	NA	0	1	6.12721896172	None	None	None	None	1
3.0.1	2019_Mar_06_1010	s	s	4	4	SIC	228	ABS	0	0	1	3	24_1_3	NA	NA	0	1	7.85600495338	None	None	None	None	1
3.0.1	2019_Mar_06_1010	s	s	4	4	SIC	229	ABS	0	0	4	3	24_4_3	NA	NA	0	1	10.1559269428	None	None	None	None	1
3.0.1	2019_Mar_06_1010	s	s	4	4	SIC	230	3_2	3	2	2	1	23_2_1	1	-1	1	0	0.457910060883	80.0	-45.0	86.0	-46.0	1
3.0.1	2019_Mar_06_1010	s	s	4	4	SIC	231	ABS	0	0	1	3	24_1_3	NA	NA	0	1	8.9545788765	None	None	None	None	1
3.0.1	2019_Mar_06_1010	s	s	4	4	SIC	232	ABS	0	0	3	1	24_3_1	NA	NA	0	1	4.91554498672	None	None	None	None	1
3.0.1	2019_Mar_06_1010	s	s	4	4	SIC	233	ABS	0	0	2	4	24_2_4	NA	NA	0	1	3.83858394623	None	None	None	None	1
3.0.1	2019_Mar_06_1010	s	s	4	4	SIC	234	1_3	1	3	2	2	23_2_2	1	1	1	0	1.5429649353	84.0	127.0	74.0	126.0	1
3.0.1	2019_Mar_06_1010	s	s	4	4	SIC	235	ABS	0	0	4	2	24_4_2	NA	NA	0	1	12.0005939007	None	None	None	None	1
3.0.1	2019_Mar_06_1010	s	s	4	4	SIC	236	ABS	0	0	2	3	24_2_3	NA	NA	0	1	9.03583812714	None	None	None	None	1
3.0.1	2019_Mar_06_1010	s	s	4	4	SIC	237	ABS	0	0	4	3	24_4_3	NA	NA	0	1	12.0427279472	None	None	None	None	1
3.0.1	2019_Mar_06_1010	s	s	4	4	SIC	238	ABS	0	0	4	3	24_4_3	NA	NA	0	1	11.6052398682	None	None	None	None	1
3.0.1	2019_Mar_06_1010	s	s	4	4	SIC	239	ABS	0	0	1	1	24_1_1	NA	NA	0	1	3.9539501667	None	None	None	None	1
3.0.1	2019_Mar_06_1010	s	s	4	4	SIC	240	ABS	0	0	3	1	24_3_1	NA	NA	0	1	1.59885501862	None	None	None	None	1
3.0.1	2019_Mar_06_1010	s	s	4	4	SIC	241	ABS	0	0	4	4	24_4_4	NA	NA	0	1	1.87409996986	None	None	None	None	1
3.0.1	2019_Mar_06_1010	s	s	4	4	SIC	242	3_4	3	4	4	3	23_4_3	-1	1	1	0	0.46984910965	142.0	343.0	148.0	336.0	1
3.0.1	2019_Mar_06_1010	s	s	4	4	SIC	243	3_2	3	2	3	3	23_3_3	0	1	1	0	2.23386907578	-472.0	173.0	-467.0	176.0	1
3.0.1	2019_Mar_06_1010	s	s	4	4	SIC	244	3_4	3	4	1	1	23_1_1	2	3	1	0	1.17938899994	-236.0	399.0	-234.0	392.0	1
3.0.1	2019_Mar_06_1010	s	s	4	4	SIC	245	ABS	0	0	3	3	24_3_3	NA	NA	0	1	6.06103515625	None	None	None	None	1
3.0.1	2019_Mar_06_1010	s	s	4	4	SIC	246	ABS	0	0	3	3	24_3_3	NA	NA	0	1	6.80305480957	None	None	None	None	1
3.0.1	2019_Mar_06_1010	s	s	4	4	SIC	247	ABS	0	0	2	2	24_2_2	NA	NA	0	1	11.0430338383	None	None	None	None	1
3.0.1	2019_Mar_06_1010	s	s	4	4	SIC	248	ABS	0	0	4	1	24_4_1	NA	NA	0	1	2.71613311768	None	None	None	None	1
3.0.1	2019_Mar_06_1010	s	s	4	4	SIC	249	ABS	0	0	3	2	24_3_2	NA	NA	0	1	11.027094841	None	None	None	None	1
3.0.1	2019_Mar_06_1010	s	s	4	4	SIC	250	3_3	3	3	4	4	23_4_4	-1	-1	1	0	0.462007045746	-477.0	335.0	-474.0	329.0	1
3.0.1	2019_Mar_06_1010	s	s	4	4	SIC	251	3_3	3	3	4	1	23_4_1	-1	2	1	0	0.42565703392	2.0	-23.0	-4.0	-25.0	1
3.0.1	2019_Mar_06_1010	s	s	4	4	SIC	252	ABS	0	0	3	2	24_3_2	NA	NA	0	1	7.54336214066	None	None	None	None	1
3.0.1	2019_Mar_06_1010	s	s	4	4	SIC	253	ABS	0	0	2	4	24_2_4	NA	NA	0	1	3.62032198906	None	None	None	None	1
3.0.1	2019_Mar_06_1010	s	s	4	4	SIC	254	4_4	4	4	2	3	23_2_3	2	1	1	0	0.496145009995	361.0	312.0	362.0	310.0	1
3.0.1	2019_Mar_06_1010	s	s	4	4	SIC	255	3_1	3	1	4	4	23_4_4	-1	3	1	0	0.416174173355	-477.0	402.0	-473.0	405.0	1
3.0.1	2019_Mar_06_1010	s	s	4	4	SIC	256	ABS	0	0	1	2	24_1_2	NA	NA	0	1	8.30269598961	None	None	None	None	1
3.0.1	2019_Mar_06_1010	s	s	4	4	SIC	257	3_1	3	1	3	3	23_3_3	0	2	1	0	3.83968400955	-490.0	-391.0	-491.0	-398.0	1
3.0.1	2019_Mar_06_1010	s	s	4	4	SIC	258	ABS	0	0	2	4	24_2_4	NA	NA	0	1	2.37507104874	None	None	None	None	1
3.0.1	2019_Mar_06_1010	s	s	4	4	SIC	259	3_4	3	4	4	4	23_4_4	-1	0	1	0	0.416069984436	-396.0	-348.0	-391.0	-354.0	1
3.0.1	2019_Mar_06_1010	s	s	4	4	SIC	260	ABS	0	0	1	4	24_1_4	NA	NA	0	1	2.30453300476	None	None	None	None	1
3.0.1	2019_Mar_06_1010	s	s	4	4	SIC	261	ABS	0	0	4	3	24_4_3	NA	NA	0	1	1.63837814331	None	None	None	None	1
3.0.1	2019_Mar_06_1010	s	s	4	4	SIC	262	2_2	2	2	2	4	23_2_4	0	2	1	0	0.646183013916	58.0	-41.0	58.0	-50.0	1
3.0.1	2019_Mar_06_1010	s	s	4	4	SIC	263	ABS	0	0	4	2	24_4_2	NA	NA	0	1	6.95313978195	None	None	None	None	1
3.0.1	2019_Mar_06_1010	s	s	4	4	SIC	264	1_1	1	1	3	3	23_3_3	2	2	1	0	0.451215982437	-148.0	-242.0	-155.0	-236.0	1
3.0.1	2019_Mar_06_1010	s	s	4	4	SIC	265	ABS	0	0	3	1	24_3_1	NA	NA	0	1	2.72290420532	None	None	None	None	1
3.0.1	2019_Mar_06_1010	s	s	4	4	SIC	266	1_4	1	4	3	3	23_3_3	2	1	1	0	0.462108135223	61.0	262.0	65.0	268.0	1
3.0.1	2019_Mar_06_1010	s	s	4	4	SIC	267	ABS	0	0	4	2	24_4_2	NA	NA	0	1	5.08300709724	None	None	None	None	1
3.0.1	2019_Mar_06_1010	s	s	4	4	SIC	268	1_2	1	2	4	4	23_4_4	3	2	1	0	0.379599094391	230.0	105.0	235.0	109.0	1
3.0.1	2019_Mar_06_1010	s	s	4	4	SIC	269	ABS	0	0	2	3	24_2_3	NA	NA	0	1	7.8086130619	None	None	None	None	1
3.0.1	2019_Mar_06_1010	s	s	4	4	SIC	270	ABS	0	0	2	1	24_2_1	NA	NA	0	1	2.35163497925	None	None	None	None	1
3.0.1	2019_Mar_06_1010	s	s	4	4	SIC	271	1_4	1	4	1	1	23_1_1	0	3	1	0	0.516839027405	-154.0	114.0	-150.0	112.0	1
3.0.1	2019_Mar_06_1010	s	s	4	4	SIC	272	2_3	2	3	2	2	23_2_2	0	1	1	0	1.36916804314	-176.0	-382.0	-173.0	-377.0	1
3.0.1	2019_Mar_06_1010	s	s	4	4	SIC	273	ABS	0	0	4	3	24_4_3	NA	NA	0	1	5.39766001701	None	None	None	None	1
3.0.1	2019_Mar_06_1010	s	s	4	4	SIC	274	3_2	3	2	4	2	23_4_2	-1	0	1	0	0.664537191391	462.0	32.0	464.0	36.0	1
3.0.1	2019_Mar_06_1010	s	s	4	4	SIC	275	ABS	0	0	1	2	24_1_2	NA	NA	0	1	10.0227091312	None	None	None	None	1
3.0.1	2019_Mar_06_1010	s	s	4	4	SIC	276	ABS	0	0	2	1	24_2_1	NA	NA	0	1	3.37767410278	None	None	None	None	1
3.0.1	2019_Mar_06_1010	s	s	4	4	SIC	277	1_4	1	4	2	4	23_2_4	1	0	1	0	1.67900705338	500.0	171.0	498.0	166.0	1
3.0.1	2019_Mar_06_1010	s	s	4	4	SIC	278	ABS	0	0	2	2	24_2_2	NA	NA	0	1	8.70251297951	None	None	None	None	1
3.0.1	2019_Mar_06_1010	s	s	4	4	SIC	279	3_4	3	4	2	3	23_2_3	1	1	1	0	0.674669027328	471.0	65.0	468.0	61.0	1
3.0.1	2019_Mar_06_1010	s	s	4	4	SIC	280	ABS	0	0	2	4	24_2_4	NA	NA	0	1	4.24803709984	None	None	None	None	1
3.0.1	2019_Mar_06_1010	s	s	4	4	SIC	281	ABS	0	0	2	1	24_2_1	NA	NA	0	1	4.95543503761	None	None	None	None	1
3.0.1	2019_Mar_06_1010	s	s	4	4	SIC	282	4_3	4	3	4	4	23_4_4	0	-1	1	0	0.578637838364	218.0	195.0	221.0	192.0	1
3.0.1	2019_Mar_06_1010	s	s	4	4	SIC	283	4_3	4	3	1	3	23_1_3	3	0	1	0	0.404115915298	477.0	-95.0	474.0	-101.0	1
3.0.1	2019_Mar_06_1010	s	s	4	4	SIC	284	ABS	0	0	4	4	24_4_4	NA	NA	0	1	1.69795107841	None	None	None	None	1
3.0.1	2019_Mar_06_1010	s	s	4	4	SIC	285	4_2	4	2	3	2	23_3_2	1	0	1	0	0.364008903503	277.0	-125.0	280.0	-129.0	1
3.0.1	2019_Mar_06_1010	s	s	4	4	SIC	286	ABS	0	0	4	4	24_4_4	NA	NA	0	1	1.26532292366	None	None	None	None	1
3.0.1	2019_Mar_06_1010	s	s	4	4	SIC	287	2_3	2	3	4	2	23_4_2	2	1	1	0	0.404140949249	52.0	-411.0	52.0	-409.0	1
3.0.1	2019_Mar_06_1010	s	s	4	4	SIC	288	ABS	0	0	4	1	24_4_1	NA	NA	0	1	1.90008807182	None	None	None	None	1
3.0.1	2019_Mar_06_1010	s	s	4	4	SIC	289	ABS	0	0	1	3	24_1_3	NA	NA	0	1	6.30342292786	None	None	None	None	1
3.0.1	2019_Mar_06_1010	s	s	4	4	SIC	290	2_4	2	4	4	4	23_4_4	2	0	1	0	0.434532165527	-70.0	-301.0	-77.0	-307.0	1
3.0.1	2019_Mar_06_1010	s	s	4	4	SIC	291	ABS	0	0	4	2	24_4_2	NA	NA	0	1	6.48481988907	None	None	None	None	1
3.0.1	2019_Mar_06_1010	s	s	4	4	SIC	292	ABS	0	0	1	3	24_1_3	NA	NA	0	1	6.40321993828	None	None	None	None	1
3.0.1	2019_Mar_06_1010	s	s	4	4	SIC	293	4_4	4	4	2	2	23_2_2	2	2	1	0	0.399187088013	-425.0	-325.0	-420.0	-327.0	1
3.0.1	2019_Mar_06_1010	s	s	4	4	SIC	294	ABS	0	0	2	1	24_2_1	NA	NA	0	1	2.33364200592	None	None	None	None	1
3.0.1	2019_Mar_06_1010	s	s	4	4	SIC	295	3_1	3	1	1	3	23_1_3	2	2	1	0	0.399199962616	283.0	-154.0	277.0	-155.0	1
3.0.1	2019_Mar_06_1010	s	s	4	4	SIC	296	ABS	0	0	4	4	24_4_4	NA	NA	0	1	1.82713508606	None	None	None	None	1
3.0.1	2019_Mar_06_1010	s	s	4	4	SIC	297	ABS	0	0	3	4	24_3_4	NA	NA	0	1	1.43711900711	None	None	None	None	1
3.0.1	2019_Mar_06_1010	s	s	4	4	SIC	298	ABS	0	0	3	2	24_3_2	NA	NA	0	1	8.9297709465	None	None	None	None	1
3.0.1	2019_Mar_06_1010	s	s	4	4	SIC	299	ABS	0	0	3	4	24_3_4	NA	NA	0	1	1.63413500786	None	None	None	None	1
3.0.1	2019_Mar_06_1010	s	s	4	4	SIC	300	2_3	2	3	4	4	23_4_4	2	-1	1	0	0.378580093384	-103.0	-25.0	-92.0	-23.0	1
3.0.1	2019_Mar_06_1010	s	s	4	4	SIC	301	4_2	4	2	4	1	23_4_1	0	-1	1	0	1.26304388046	-528.0	88.0	-533.0	87.0	1
3.0.1	2019_Mar_06_1010	s	s	4	4	SIC	302	ABS	0	0	4	3	24_4_3	NA	NA	0	1	6.80903410912	None	None	None	None	1
3.0.1	2019_Mar_06_1010	s	s	4	4	SIC	303	1_1	1	1	4	1	23_4_1	3	0	1	0	0.347270011902	-248.0	138.0	-255.0	135.0	1
3.0.1	2019_Mar_06_1010	s	s	4	4	SIC	304	ABS	0	0	3	4	24_3_4	NA	NA	0	1	1.54005384445	None	None	None	None	1
3.0.1	2019_Mar_06_1010	s	s	4	4	SIC	305	ABS	0	0	3	1	24_3_1	NA	NA	0	1	1.35592508316	None	None	None	None	1
3.0.1	2019_Mar_06_1010	s	s	4	4	SIC	306	ABS	0	0	4	3	24_4_3	NA	NA	1	0	0.180816173553	None	None	-8.0	23.0	0
3.0.1	2019_Mar_06_1010	s	s	4	4	SIC	307	ABS	0	0	2	4	24_2_4	NA	NA	0	1	1.96626400948	None	None	None	None	1
3.0.1	2019_Mar_06_1010	s	s	4	4	SIC	308	4_4	4	4	4	2	23_4_2	0	2	1	0	0.54326915741	-274.0	-16.0	-277.0	-15.0	1
3.0.1	2019_Mar_06_1010	s	s	4	4	SIC	309	1_1	1	1	4	3	23_4_3	3	2	1	0	0.440024137497	187.0	198.0	187.0	205.0	1
3.0.1	2019_Mar_06_1010	s	s	4	4	SIC	310	ABS	0	0	3	3	24_3_3	NA	NA	0	1	4.96760106087	None	None	None	None	1
3.0.1	2019_Mar_06_1010	s	s	4	4	SIC	311	2_4	2	4	1	2	23_1_2	-1	2	1	0	0.587404966354	-345.0	-25.0	-350.0	-36.0	1
3.0.1	2019_Mar_06_1010	s	s	4	4	SIC	312	1_4	1	4	2	1	23_2_1	1	3	1	0	0.849997997284	474.0	-272.0	486.0	-268.0	1
3.0.1	2019_Mar_06_1010	s	s	4	4	SIC	313	ABS	0	0	2	4	24_2_4	NA	NA	0	1	4.14970898628	None	None	None	None	1
3.0.1	2019_Mar_06_1010	s	s	4	4	SIC	314	ABS	0	0	3	4	24_3_4	NA	NA	0	1	1.91630506516	None	None	None	None	1
3.0.1	2019_Mar_06_1010	s	s	4	4	SIC	315	ABS	0	0	1	1	24_1_1	NA	NA	0	1	4.88021707535	None	None	None	None	1
3.0.1	2019_Mar_06_1010	s	s	4	4	SIC	316	ABS	0	0	4	4	24_4_4	NA	NA	0	1	1.51655602455	None	None	None	None	1
3.0.1	2019_Mar_06_1010	s	s	4	4	SIC	317	3_1	3	1	3	4	23_3_4	0	3	1	0	0.705420970917	265.0	410.0	259.0	401.0	1
3.0.1	2019_Mar_06_1010	s	s	4	4	SIC	318	1_4	1	4	1	3	23_1_3	0	1	1	0	2.12137413025	-502.0	-249.0	-502.0	-245.0	1
3.0.1	2019_Mar_06_1010	s	s	4	4	SIC	319	ABS	0	0	4	4	24_4_4	NA	NA	0	1	2.37796998024	None	None	None	None	1
3.0.1	2019_Mar_06_1010	s	s	4	4	SIC	320	ABS	0	0	4	1	24_4_1	NA	NA	0	1	3.16309189796	None	None	None	None	1
3.0.1	2019_Mar_06_1010	s	s	4	4	SIC	321	1_3	1	3	4	3	23_4_3	3	0	1	0	0.403261899948	-96.0	-75.0	-93.0	-75.0	1
3.0.1	2019_Mar_06_1010	s	s	4	4	SIC	322	4_4	4	4	3	3	23_3_3	1	1	1	0	0.437347888947	82.0	-358.0	79.0	-357.0	1
3.0.1	2019_Mar_06_1010	s	s	4	4	SIC	323	3_1	3	1	4	3	23_4_3	-1	2	1	0	0.427787065506	-273.0	376.0	-277.0	379.0	1
3.0.1	2019_Mar_06_1010	s	s	4	4	SIC	324	1_2	1	2	2	3	23_2_3	1	1	1	0	0.634433031082	-358.0	43.0	-362.0	42.0	1
3.0.1	2019_Mar_06_1010	s	s	4	4	SIC	325	1_3	1	3	4	1	23_4_1	3	2	1	0	0.411335945129	402.0	-271.0	403.0	-277.0	1
3.0.1	2019_Mar_06_1010	s	s	4	4	SIC	326	4_1	4	1	1	3	23_1_3	3	2	1	0	0.540369033813	1.0	-157.0	0.0	-162.0	1
3.0.1	2019_Mar_06_1010	s	s	4	4	SIC	327	ABS	0	0	1	3	24_1_3	NA	NA	0	1	10.6785829067	None	None	None	None	1
3.0.1	2019_Mar_06_1010	s	s	4	4	SIC	328	1_3	1	3	3	3	23_3_3	2	0	1	0	0.528568983078	-134.0	289.0	-136.0	278.0	1
3.0.1	2019_Mar_06_1010	s	s	4	4	SIC	329	2_2	2	2	1	3	23_1_3	-1	1	1	0	3.8569419384	-511.0	308.0	-511.0	312.0	1
3.0.1	2019_Mar_06_1010	s	s	4	4	SIC	330	1_2	1	2	3	3	23_3_3	2	1	1	0	0.392080068588	-128.0	27.0	-123.0	27.0	1
3.0.1	2019_Mar_06_1010	s	s	4	4	SIC	331	3_3	3	3	4	3	23_4_3	-1	0	1	0	0.363961935043	-57.0	-382.0	-53.0	-394.0	1
3.0.1	2019_Mar_06_1010	s	s	4	4	SIC	332	ABS	0	0	3	1	24_3_1	NA	NA	0	1	3.39840507507	None	None	None	None	1
3.0.1	2019_Mar_06_1010	s	s	4	4	SIC	333	ABS	0	0	2	3	24_2_3	NA	NA	0	1	4.47381401062	None	None	None	None	1
3.0.1	2019_Mar_06_1010	s	s	4	4	SIC	334	4_1	4	1	3	4	23_3_4	1	3	1	0	0.399233818054	-2.0	-40.0	0.0	-48.0	1
3.0.1	2019_Mar_06_1010	s	s	4	4	SIC	335	ABS	0	0	4	3	24_4_3	NA	NA	0	1	5.84750103951	None	None	None	None	1
3.0.1	2019_Mar_06_1010	s	s	4	4	SIC	336	3_1	3	1	4	1	23_4_1	-1	0	1	0	0.446265935898	-528.0	148.0	-526.0	139.0	1
3.0.1	2019_Mar_06_1010	s	s	4	4	SIC	337	ABS	0	0	3	3	24_3_3	NA	NA	0	1	7.88217282295	None	None	None	None	1
3.0.1	2019_Mar_06_1010	s	s	4	4	SIC	338	1_4	1	4	3	2	23_3_2	2	2	1	0	0.540382146835	-528.0	-269.0	-530.0	-265.0	1
3.0.1	2019_Mar_06_1010	s	s	4	4	SIC	339	2_4	2	4	2	3	23_2_3	0	1	1	0	1.61348199844	-88.0	208.0	-85.0	206.0	1
3.0.1	2019_Mar_06_1010	s	s	4	4	SIC	340	2_2	2	2	1	4	23_1_4	-1	2	1	0	0.474066972733	-287.0	401.0	-287.0	399.0	1
3.0.1	2019_Mar_06_1010	s	s	4	4	SIC	341	3_3	3	3	2	3	23_2_3	1	0	1	0	0.457962989807	333.0	-85.0	329.0	-83.0	1
3.0.1	2019_Mar_06_1010	s	s	4	4	SIC	342	ABS	0	0	3	1	24_3_1	NA	NA	0	1	2.49556899071	None	None	None	None	1
3.0.1	2019_Mar_06_1010	s	s	4	4	SIC	343	2_3	2	3	1	4	23_1_4	-1	-1	1	0	0.731472969055	-454.0	392.0	-448.0	393.0	1
3.0.1	2019_Mar_06_1010	s	s	4	4	SIC	344	ABS	0	0	1	1	24_1_1	NA	NA	0	1	5.67878890038	None	None	None	None	1
3.0.1	2019_Mar_06_1010	s	s	4	4	SIC	345	4_2	4	2	2	3	23_2_3	2	1	1	0	0.587369918823	295.0	188.0	290.0	197.0	1
3.0.1	2019_Mar_06_1010	s	s	4	4	SIC	346	4_1	4	1	4	4	23_4_4	0	3	1	0	0.505041122437	385.0	140.0	376.0	137.0	1
3.0.1	2019_Mar_06_1010	s	s	4	4	SIC	347	ABS	0	0	1	4	24_1_4	NA	NA	0	1	3.01024580002	None	None	None	None	1
3.0.1	2019_Mar_06_1010	s	s	4	4	SIC	348	2_4	2	4	3	4	23_3_4	1	0	1	0	0.540400028229	102.0	-242.0	103.0	-246.0	1
3.0.1	2019_Mar_06_1010	s	s	4	4	SIC	349	ABS	0	0	1	4	24_1_4	NA	NA	0	1	5.74414420128	None	None	None	None	1
3.0.1	2019_Mar_06_1010	s	s	4	4	SIC	350	2_4	2	4	1	4	23_1_4	-1	0	0	1	5.95729780197	-485.0	357.0	None	None	0
3.0.1	2019_Mar_06_1010	s	s	4	4	SIC	351	1_3	1	3	1	1	23_1_1	0	2	1	0	0.987836122513	-221.0	-324.0	-219.0	-321.0	1
3.0.1	2019_Mar_06_1010	s	s	4	4	SIC	352	ABS	0	0	4	1	24_4_1	NA	NA	0	1	1.53314208984	None	None	None	None	1
3.0.1	2019_Mar_06_1010	s	s	4	4	SIC	353	2_1	2	1	4	4	23_4_4	2	3	1	0	0.392784833908	85.0	-343.0	85.0	-349.0	1
3.0.1	2019_Mar_06_1010	s	s	4	4	SIC	354	1_1	1	1	1	3	23_1_3	0	2	1	0	1.42251801491	-483.0	-379.0	-475.0	-383.0	1
3.0.1	2019_Mar_06_1010	s	s	4	4	SIC	355	ABS	0	0	4	1	24_4_1	NA	NA	0	1	1.57540512085	None	None	None	None	1
3.0.1	2019_Mar_06_1010	s	s	4	4	SIC	356	ABS	0	0	2	4	24_2_4	NA	NA	0	1	2.592015028	None	None	None	None	1
3.0.1	2019_Mar_06_1010	s	s	4	4	SIC	357	ABS	0	0	1	1	24_1_1	NA	NA	0	1	2.76316905022	None	None	None	None	1
3.0.1	2019_Mar_06_1010	s	s	4	4	SIC	358	4_1	4	1	1	1	23_1_1	3	0	1	0	0.378626823425	264.0	65.0	267.0	61.0	1
3.0.1	2019_Mar_06_1010	s	s	4	4	SIC	359	3_3	3	3	4	2	23_4_2	-1	1	1	0	0.391650915146	235.0	-215.0	237.0	-219.0	1
3.0.1	2019_Mar_06_1010	s	s	4	4	SIC	360	ABS	0	0	2	2	24_2_2	NA	NA	0	1	10.4838638306	None	None	None	None	1
3.0.1	2019_Mar_06_1010	s	s	4	4	SIC	361	ABS	0	0	4	1	24_4_1	NA	NA	0	1	2.0222530365	None	None	None	None	1
3.0.1	2019_Mar_06_1010	s	s	4	4	SIC	362	2_4	2	4	4	3	23_4_3	2	1	1	0	0.469856977463	16.0	17.0	11.0	21.0	1
3.0.1	2019_Mar_06_1010	s	s	4	4	SIC	363	ABS	0	0	2	2	24_2_2	NA	NA	0	1	7.35859179497	None	None	None	None	1
3.0.1	2019_Mar_06_1010	s	s	4	4	SIC	364	ABS	0	0	2	4	24_2_4	NA	NA	0	1	6.09495687485	None	None	None	None	1
3.0.1	2019_Mar_06_1010	s	s	4	4	SIC	365	ABS	0	0	2	3	24_2_3	NA	NA	0	1	9.08180904388	None	None	None	None	1
3.0.1	2019_Mar_06_1010	s	s	4	4	SIC	366	ABS	0	0	1	1	24_1_1	NA	NA	0	1	1.65129804611	None	None	None	None	1
3.0.1	2019_Mar_06_1010	s	s	4	4	SIC	367	ABS	0	0	2	2	24_2_2	NA	NA	0	1	5.43586683273	None	None	None	None	1
3.0.1	2019_Mar_06_1010	s	s	4	4	SIC	368	ABS	0	0	1	1	24_1_1	NA	NA	0	1	1.38714003563	None	None	None	None	1
3.0.1	2019_Mar_06_1010	s	s	4	4	SIC	369	1_1	1	1	1	4	23_1_4	0	3	1	0	0.540318965912	13.0	189.0	10.0	177.0	1
3.0.1	2019_Mar_06_1010	s	s	4	4	SIC	370	ABS	0	0	4	2	24_4_2	NA	NA	0	1	3.93291306496	None	None	None	None	1
3.0.1	2019_Mar_06_1010	s	s	4	4	SIC	371	ABS	0	0	3	3	24_3_3	NA	NA	0	1	3.75930905342	None	None	None	None	1
3.0.1	2019_Mar_06_1010	s	s	4	4	SIC	372	ABS	0	0	3	1	24_3_1	NA	NA	0	1	1.22241997719	None	None	None	None	1
3.0.1	2019_Mar_06_1010	s	s	4	4	SIC	373	4_3	4	3	1	2	23_1_2	3	1	1	0	0.410935878754	18.0	-243.0	19.0	-250.0	1
3.0.1	2019_Mar_06_1010	s	s	4	4	SIC	374	1_4	1	4	1	2	23_1_2	0	2	1	0	0.610869169235	-257.0	371.0	-265.0	366.0	1
3.0.1	2019_Mar_06_1010	s	s	4	4	SIC	375	ABS	0	0	1	1	24_1_1	NA	NA	0	1	2.40361690521	None	None	None	None	1
3.0.1	2019_Mar_06_1010	s	s	4	4	SIC	376	3_2	3	2	3	1	23_3_1	0	-1	1	0	1.73113393784	-219.0	244.0	-220.0	240.0	1
3.0.1	2019_Mar_06_1010	s	s	4	4	SIC	377	ABS	0	0	4	1	24_4_1	NA	NA	0	1	1.60511398315	None	None	None	None	1
3.0.1	2019_Mar_06_1010	s	s	4	4	SIC	378	ABS	0	0	1	3	24_1_3	NA	NA	0	1	8.26112985611	None	None	None	None	1
3.0.1	2019_Mar_06_1010	s	s	4	4	SIC	379	ABS	0	0	2	3	24_2_3	NA	NA	0	1	6.33856391907	None	None	None	None	1
3.0.1	2019_Mar_06_1010	s	s	4	4	SIC	380	ABS	0	0	1	3	24_1_3	NA	NA	0	1	7.57352781296	None	None	None	None	1
3.0.1	2019_Mar_06_1010	s	s	4	4	SIC	381	ABS	0	0	4	4	24_4_4	NA	NA	0	1	1.8861489296	None	None	None	None	1
3.0.1	2019_Mar_06_1010	s	s	4	4	SIC	382	ABS	0	0	3	3	24_3_3	NA	NA	0	1	3.75553417206	None	None	None	None	1
3.0.1	2019_Mar_06_1010	s	s	4	4	SIC	383	ABS	0	0	3	4	24_3_4	NA	NA	0	1	1.05779600143	None	None	None	None	1
3.0.1	2019_Mar_06_1010	s	s	4	4	SIC	384	ABS	0	0	3	1	24_3_1	NA	NA	0	1	1.57535791397	None	None	None	None	1
3.0.1	2019_Mar_06_1010	s	s	4	4	SIC	385	3_4	3	4	1	2	23_1_2	2	2	1	0	0.532917022705	262.0	84.0	266.0	81.0	1
3.0.1	2019_Mar_06_1010	s	s	4	4	SIC	386	2_3	2	3	1	3	23_1_3	-1	0	1	0	1.23423504829	7.0	-17.0	11.0	-21.0	1
3.0.1	2019_Mar_06_1010	s	s	4	4	SIC	387	ABS	0	0	4	2	24_4_2	NA	NA	0	1	6.43783092499	None	None	None	None	1
3.0.1	2019_Mar_06_1010	s	s	4	4	SIC	388	3_3	3	3	3	2	23_3_2	0	1	1	0	4.15382599831	-82.0	170.0	-73.0	170.0	1
3.0.1	2019_Mar_06_1010	s	s	4	4	SIC	389	1_2	1	2	4	3	23_4_3	3	1	1	0	0.398011922836	-441.0	385.0	-444.0	376.0	1
3.0.1	2019_Mar_06_1010	s	s	4	4	SIC	390	4_4	4	4	3	4	23_3_4	1	0	1	0	0.422968864441	-226.0	-85.0	-228.0	-85.0	1
3.0.1	2019_Mar_06_1010	s	s	4	4	SIC	391	ABS	0	0	4	3	24_4_3	NA	NA	0	1	6.00279307365	None	None	None	None	1
3.0.1	2019_Mar_06_1010	s	s	4	4	SIC	392	3_3	3	3	2	2	23_2_2	1	1	1	0	0.716810941696	58.0	400.0	66.0	404.0	1
3.0.1	2019_Mar_06_1010	s	s	4	4	SIC	393	1_3	1	3	4	4	23_4_4	3	-1	1	0	0.427896976471	59.0	189.0	66.0	187.0	1
3.0.1	2019_Mar_06_1010	s	s	4	4	SIC	394	4_3	4	3	2	4	23_2_4	2	-1	1	0	0.384160995483	275.0	227.0	286.0	229.0	1
3.0.1	2019_Mar_06_1010	s	s	4	4	SIC	395	3_2	3	2	1	4	23_1_4	2	2	1	0	0.399159908295	107.0	395.0	111.0	389.0	1
3.0.1	2019_Mar_06_1010	s	s	4	4	SIC	396	2_3	2	3	3	2	23_3_2	1	1	1	0	0.469814062119	233.0	29.0	231.0	21.0	1
3.0.1	2019_Mar_06_1010	s	s	4	4	SIC	397	1_1	1	1	4	2	23_4_2	3	1	1	0	0.328657865524	13.0	-356.0	11.0	-364.0	1
3.0.1	2019_Mar_06_1010	s	s	4	4	SIC	398	ABS	0	0	2	2	24_2_2	NA	NA	0	1	8.34313106537	None	None	None	None	1
3.0.1	2019_Mar_06_1010	s	s	4	4	SIC	399	4_2	4	2	2	4	23_2_4	2	2	1	0	0.646248817444	-121.0	338.0	-118.0	339.0	1
3.0.1	2019_Mar_06_1010	s	s	4	4	SIC	400	2_1	2	1	4	1	23_4_1	2	0	1	0	0.35218000412	-185.0	359.0	-187.0	354.0	1
3.0.1	2019_Mar_06_1010	s	s	4	4	SIC	401	3_1	3	1	1	2	23_1_2	2	1	1	0	0.510674953461	475.0	-392.0	475.0	-400.0	1
3.0.1	2019_Mar_06_1010	s	s	4	4	SIC	402	ABS	0	0	4	2	24_4_2	NA	NA	0	1	5.79756212234	None	None	None	None	1
3.0.1	2019_Mar_06_1010	s	s	4	4	SIC	403	ABS	0	0	3	2	24_3_2	NA	NA	0	1	5.62602686882	None	None	None	None	1
3.0.1	2019_Mar_06_1010	s	s	4	4	SIC	404	2_4	2	4	3	1	23_3_1	1	3	1	0	0.599186182022	425.0	-24.0	426.0	-28.0	1
3.0.1	2019_Mar_06_1010	s	s	4	4	SIC	405	3_4	3	4	4	1	23_4_1	-1	3	1	0	0.387418985367	-207.0	-215.0	-209.0	-213.0	1
3.0.1	2019_Mar_06_1010	s	s	4	4	SIC	406	ABS	0	0	2	3	24_2_3	NA	NA	0	1	5.39766407013	None	None	None	None	1
3.0.1	2019_Mar_06_1010	s	s	4	4	SIC	407	2_2	2	2	2	1	23_2_1	0	-1	0	1	1.73635196686	-389.0	127.0	None	None	0
3.0.1	2019_Mar_06_1010	s	s	4	4	SIC	408	1_4	1	4	3	1	23_3_1	2	3	1	0	0.442779064178	493.0	318.0	490.0	310.0	1
3.0.1	2019_Mar_06_1010	s	s	4	4	SIC	409	4_4	4	4	4	3	23_4_3	0	1	1	0	1.14911603928	-134.0	-140.0	-134.0	-137.0	1
3.0.1	2019_Mar_06_1010	s	s	4	4	SIC	410	4_1	4	1	4	3	23_4_3	0	2	1	0	2.85423398018	-120.0	394.0	-119.0	403.0	1
3.0.1	2019_Mar_06_1010	s	s	4	4	SIC	411	4_4	4	4	3	1	23_3_1	1	3	1	0	0.410924911499	-26.0	409.0	-29.0	412.0	1
3.0.1	2019_Mar_06_1010	s	s	4	4	SIC	412	3_1	3	1	2	1	23_2_1	1	0	1	0	0.619540214539	-208.0	-349.0	-206.0	-344.0	1
3.0.1	2019_Mar_06_1010	s	s	4	4	SIC	413	ABS	0	0	4	1	24_4_1	NA	NA	0	1	2.35154700279	None	None	None	None	1
3.0.1	2019_Mar_06_1010	s	s	4	4	SIC	414	2_4	2	4	3	2	23_3_2	1	2	1	0	0.575597047806	418.0	-288.0	416.0	-283.0	1
3.0.1	2019_Mar_06_1010	s	s	4	4	SIC	415	4_4	4	4	3	2	23_3_2	1	2	1	0	0.38752412796	-275.0	13.0	-263.0	16.0	1
3.0.1	2019_Mar_06_1010	s	s	4	4	SIC	416	2_1	2	1	3	1	23_3_1	1	0	1	0	0.399181842804	395.0	-238.0	400.0	-247.0	1
3.0.1	2019_Mar_06_1010	s	s	4	4	SIC	417	3_4	3	4	3	3	23_3_3	0	1	1	0	1.35185599327	374.0	-409.0	377.0	-413.0	1
3.0.1	2019_Mar_06_1010	s	s	4	4	SIC	418	3_3	3	3	1	4	23_1_4	2	-1	1	0	0.474363088608	-67.0	292.0	-65.0	297.0	1
3.0.1	2019_Mar_06_1010	s	s	4	4	SIC	419	2_1	2	1	1	1	23_1_1	-1	0	1	0	0.987227916718	-99.0	272.0	-101.0	278.0	1
3.0.1	2019_Mar_06_1010	s	s	4	4	SIC	420	ABS	0	0	1	2	24_1_2	NA	NA	0	1	7.40880203247	None	None	None	None	1
3.0.1	2019_Mar_06_1010	s	s	4	4	SIC	421	4_4	4	4	2	4	23_2_4	2	0	1	0	0.980687141418	-484.0	-190.0	-481.0	-194.0	1
3.0.1	2019_Mar_06_1010	s	s	4	4	SIC	422	4_1	4	1	2	4	23_2_4	2	3	1	0	0.357033967972	33.0	-144.0	32.0	-141.0	1
3.0.1	2019_Mar_06_1010	s	s	4	4	SIC	423	3_2	3	2	4	1	23_4_1	-1	-1	1	0	0.378557920456	131.0	-257.0	137.0	-264.0	1
3.0.1	2019_Mar_06_1010	s	s	4	4	SIC	424	ABS	0	0	3	4	24_3_4	NA	NA	0	1	2.12135195732	None	None	None	None	1
3.0.1	2019_Mar_06_1010	s	s	4	4	SIC	425	ABS	0	0	3	3	24_3_3	NA	NA	0	1	4.6776099205	None	None	None	None	1
3.0.1	2019_Mar_06_1010	s	s	4	4	SIC	426	ABS	0	0	2	4	24_2_4	NA	NA	0	1	2.24874615669	None	None	None	None	1
3.0.1	2019_Mar_06_1010	s	s	4	4	SIC	427	4_1	4	1	2	1	23_2_1	2	0	1	0	0.451037883759	418.0	-68.0	424.0	-69.0	1
3.0.1	2019_Mar_06_1010	s	s	4	4	SIC	428	ABS	0	0	3	2	24_3_2	NA	NA	0	1	8.25856113434	None	None	None	None	1
3.0.1	2019_Mar_06_1010	s	s	4	4	SIC	429	1_1	1	1	4	4	23_4_4	3	3	1	0	0.340882062912	132.0	227.0	130.0	227.0	1
3.0.1	2019_Mar_06_1010	s	s	4	4	SIC	430	ABS	0	0	4	3	24_4_3	NA	NA	0	1	3.3865070343	None	None	None	None	1
3.0.1	2019_Mar_06_1010	s	s	4	4	SIC	431	3_4	3	4	1	3	23_1_3	2	1	1	0	0.493736028671	429.0	186.0	429.0	179.0	1
3.0.1	2019_Mar_06_1010	s	s	4	4	SIC	432	2_1	2	1	1	3	23_1_3	-1	2	1	0	1.99875807762	429.0	261.0	426.0	255.0	1
3.0.1	2019_Mar_06_1010	s	s	4	4	SIC	433	4_3	4	3	3	1	23_3_1	1	2	1	0	0.324775934219	-1.0	-105.0	6.0	-107.0	1
3.0.1	2019_Mar_06_1010	s	s	4	4	SIC	434	2_1	2	1	3	4	23_3_4	1	3	1	0	0.387522935867	351.0	127.0	350.0	127.0	1
3.0.1	2019_Mar_06_1010	s	s	4	4	SIC	435	ABS	0	0	2	2	24_2_2	NA	NA	0	1	6.91211700439	None	None	None	None	1
3.0.1	2019_Mar_06_1010	s	s	4	4	SIC	436	1_4	1	4	4	1	23_4_1	3	3	1	0	0.368304014206	-237.0	361.0	-235.0	362.0	1
3.0.1	2019_Mar_06_1010	s	s	4	4	SIC	437	4_2	4	2	1	1	23_1_1	3	-1	1	0	0.378593921661	-309.0	-112.0	-317.0	-113.0	1
3.0.1	2019_Mar_06_1010	s	s	4	4	SIC	438	4_1	4	1	1	2	23_1_2	3	1	1	0	0.387316942215	417.0	-319.0	429.0	-311.0	1
3.0.1	2019_Mar_06_1010	s	s	4	4	SIC	439	3_4	3	4	3	1	23_3_1	0	3	1	0	0.613815069199	-388.0	293.0	-386.0	288.0	1
3.0.1	2019_Mar_06_1010	s	s	4	4	SIC	440	2_4	2	4	4	1	23_4_1	2	3	1	0	0.352593898773	-167.0	-144.0	-168.0	-148.0	1
3.0.1	2019_Mar_06_1010	s	s	4	4	SIC	441	ABS	0	0	2	1	24_2_1	NA	NA	0	1	4.15616488457	None	None	None	None	1
3.0.1	2019_Mar_06_1010	s	s	4	4	SIC	442	ABS	0	0	1	2	24_1_2	NA	NA	0	1	7.39712309837	None	None	None	None	1
3.0.1	2019_Mar_06_1010	s	s	4	4	SIC	443	ABS	0	0	2	1	24_2_1	NA	NA	0	1	2.48096990585	None	None	None	None	1
3.0.1	2019_Mar_06_1010	s	s	4	4	SIC	444	ABS	0	0	1	2	24_1_2	NA	NA	0	1	4.41384482384	None	None	None	None	1
3.0.1	2019_Mar_06_1010	s	s	4	4	SIC	445	ABS	0	0	2	1	24_2_1	NA	NA	0	1	1.22249698639	None	None	None	None	1
3.0.1	2019_Mar_06_1010	s	s	4	4	SIC	446	ABS	0	0	1	2	24_1_2	NA	NA	0	1	7.10744190216	None	None	None	None	1
3.0.1	2019_Mar_06_1010	s	s	4	4	SIC	447	ABS	0	0	3	1	24_3_1	NA	NA	0	1	1.45773696899	None	None	None	None	1
3.0.1	2019_Mar_06_1010	s	s	4	4	SIC	448	1_2	1	2	2	4	23_2_4	1	2	1	0	0.469767093658	-99.0	-207.0	-97.0	-217.0	1
3.0.1	2019_Mar_06_1010	s	s	4	4	SIC	449	4_3	4	3	1	4	23_1_4	3	-1	1	0	0.352118015289	-362.0	255.0	-361.0	257.0	1
3.0.1	2019_Mar_06_1010	s	s	4	4	SIC	450	ABS	0	0	4	2	24_4_2	NA	NA	0	1	4.56267905235	None	None	None	None	1
3.0.1	2019_Mar_06_1010	s	s	4	4	SIC	451	1_1	1	1	1	2	23_1_2	0	1	1	0	4.03171491623	418.0	343.0	420.0	344.0	1
3.0.1	2019_Mar_06_1010	s	s	4	4	SIC	452	1_2	1	2	1	1	23_1_1	0	-1	1	0	1.11657595634	-1.0	-235.0	0.0	-237.0	1
3.0.1	2019_Mar_06_1010	s	s	4	4	SIC	453	1_3	1	3	4	2	23_4_2	3	1	1	0	0.387401103973	74.0	323.0	74.0	327.0	1
3.0.1	2019_Mar_06_1010	s	s	4	4	SIC	454	2_4	2	4	2	2	23_2_2	0	2	1	0	1.21704888344	-533.0	370.0	-537.0	371.0	1
3.0.1	2019_Mar_06_1010	s	s	4	4	SIC	455	ABS	0	0	1	4	24_1_4	NA	NA	0	1	4.82620501518	None	None	None	None	1
3.0.1	2019_Mar_06_1010	s	s	4	4	SIC	456	ABS	0	0	2	2	24_2_2	NA	NA	0	1	4.92046308517	None	None	None	None	1
3.0.1	2019_Mar_06_1010	s	s	4	4	SIC	457	2_2	2	2	4	3	23_4_3	2	1	1	0	0.469785928726	308.0	-186.0	305.0	-188.0	1
3.0.1	2019_Mar_06_1010	s	s	4	4	SIC	458	ABS	0	0	1	1	24_1_1	NA	NA	0	1	5.03927397728	None	None	None	None	1
3.0.1	2019_Mar_06_1010	s	s	4	4	SIC	459	4_4	4	4	4	1	23_4_1	0	3	1	0	0.775536060333	491.0	-134.0	492.0	-139.0	1
3.0.1	2019_Mar_06_1010	s	s	4	4	SIC	460	ABS	0	0	1	4	24_1_4	NA	NA	0	1	4.71553087234	None	None	None	None	1
3.0.1	2019_Mar_06_1010	s	s	4	4	SIC	461	2_4	2	4	4	2	23_4_2	2	2	1	0	0.437422990799	-435.0	190.0	-434.0	184.0	1
3.0.1	2019_Mar_06_1010	s	s	4	4	SIC	462	3_2	3	2	4	4	23_4_4	-1	2	1	0	0.474009990692	-167.0	-93.0	-162.0	-96.0	1
3.0.1	2019_Mar_06_1010	s	s	4	4	SIC	463	4_1	4	1	2	2	23_2_2	2	1	1	0	0.340401887894	312.0	78.0	316.0	79.0	1
3.0.1	2019_Mar_06_1010	s	s	4	4	SIC	464	2_3	2	3	1	1	23_1_1	-1	2	1	0	0.97199010849	405.0	-286.0	408.0	-286.0	1
3.0.1	2019_Mar_06_1010	s	s	4	4	SIC	465	2_3	2	3	2	1	23_2_1	0	2	1	0	1.68541502953	321.0	246.0	326.0	238.0	1
3.0.1	2019_Mar_06_1010	s	s	4	4	SIC	466	ABS	0	0	1	1	24_1_1	NA	NA	0	1	3.06899213791	None	None	None	None	1
3.0.1	2019_Mar_06_1010	s	s	4	4	SIC	467	1_2	1	2	3	1	23_3_1	2	-1	1	0	0.604540109634	-421.0	-171.0	-414.0	-175.0	1
3.0.1	2019_Mar_06_1010	s	s	4	4	SIC	468	3_3	3	3	2	4	23_2_4	1	-1	1	0	0.429227113724	-454.0	-228.0	-455.0	-243.0	1
3.0.1	2019_Mar_06_1010	s	s	4	4	SIC	469	1_3	1	3	3	1	23_3_1	2	2	1	0	0.569844961166	303.0	334.0	303.0	335.0	1
3.0.1	2019_Mar_06_1010	s	s	4	4	SIC	470	4_2	4	2	4	3	23_4_3	0	1	1	0	2.39198112488	159.0	-173.0	151.0	-169.0	1
3.0.1	2019_Mar_06_1010	s	s	4	4	SIC	471	ABS	0	0	3	1	24_3_1	NA	NA	0	1	2.39862203598	None	None	None	None	1
3.0.1	2019_Mar_06_1010	s	s	4	4	SIC	472	ABS	0	0	2	1	24_2_1	NA	NA	0	1	5.57942414284	None	None	None	None	1
3.0.1	2019_Mar_06_1010	s	s	4	4	SIC	473	4_2	4	2	2	1	23_2_1	2	-1	1	0	0.443180799484	120.0	-303.0	112.0	-299.0	1
3.0.1	2019_Mar_06_1010	s	s	4	4	SIC	474	1_2	1	2	2	2	23_2_2	1	0	1	0	1.15184187889	105.0	142.0	110.0	139.0	1
3.0.1	2019_Mar_06_1010	s	s	4	4	SIC	475	ABS	0	0	1	3	24_1_3	NA	NA	0	1	5.96508097649	None	None	None	None	1
3.0.1	2019_Mar_06_1010	s	s	4	4	SIC	476	ABS	0	0	2	3	24_2_3	NA	NA	0	1	4.4450571537	None	None	None	None	1
3.0.1	2019_Mar_06_1010	s	s	4	4	SIC	477	1_2	1	2	4	1	23_4_1	3	-1	1	0	0.438352108002	-438.0	-134.0	-434.0	-133.0	1
3.0.1	2019_Mar_06_1010	s	s	4	4	SIC	478	ABS	0	0	1	1	24_1_1	NA	NA	0	1	3.986358881	None	None	None	None	1
3.0.1	2019_Mar_06_1010	s	s	4	4	SIC	479	ABS	0	0	2	2	24_2_2	NA	NA	0	1	4.77433300018	None	None	None	None	1
3.0.1	2019_Mar_06_1010	s	s	4	4	SIC	480	ABS	0	0	4	3	24_4_3	NA	NA	0	1	4.26117920876	None	None	None	None	1
