Version	Date	Stimuli	Method	Subject	Session	Condition	Trial	Target	TColor	TShape	DColor	DShape	Distractors	Channel1	Channel2	LMouseButton	RMouseButton	RT	TargetX	TargetY	ResponseX	ResponseY	Correct
3.0.1	2019_Mar_03_1648	s	s	4	2	Capacity	1	1_2	1	2	1	3	23_1_3	0	1	1	0	3.62718176842	-213.0	-247.0	-203.0	-244.0	1
3.0.1	2019_Mar_03_1648	s	s	4	2	Capacity	2	1_1	1	1	1	3	23_1_3	0	2	1	0	1.13477993011	-13.0	278.0	-20.0	279.0	1
3.0.1	2019_Mar_03_1648	s	s	4	2	Capacity	3	1_4	1	4	1	1	23_1_1	0	3	1	0	0.0933411121368	-452.0	395.0	-71.0	32.0	0
3.0.1	2019_Mar_03_1648	s	s	4	2	Capacity	4	ABS	0	0	1	1	24_1_1	NA	NA	0	1	5.16238808632	None	None	None	None	1
3.0.1	2019_Mar_03_1648	s	s	4	2	Capacity	5	ABS	0	0	1	2	24_1_2	NA	NA	0	1	9.3663918972	None	None	None	None	1
3.0.1	2019_Mar_03_1648	s	s	4	2	Capacity	6	ABS	0	0	1	2	24_1_2	NA	NA	0	1	8.70114207268	None	None	None	None	1
3.0.1	2019_Mar_03_1648	s	s	4	2	Capacity	7	ABS	0	0	1	3	24_1_3	NA	NA	0	1	11.9019939899	None	None	None	None	1
3.0.1	2019_Mar_03_1648	s	s	4	2	Capacity	8	1_2	1	2	1	4	23_1_4	0	2	1	0	0.757263183594	358.0	404.0	368.0	413.0	1
3.0.1	2019_Mar_03_1648	s	s	4	2	Capacity	9	1_3	1	3	1	4	23_1_4	0	-1	1	0	0.587373971939	138.0	-33.0	134.0	-29.0	1
3.0.1	2019_Mar_03_1648	s	s	4	2	Capacity	10	ABS	0	0	1	3	24_1_3	NA	NA	0	1	9.97800087929	None	None	None	None	1
3.0.1	2019_Mar_03_1648	s	s	4	2	Capacity	11	1_2	1	2	1	1	23_1_1	0	-1	0	1	4.76685214043	-273.0	-382.0	None	None	0
3.0.1	2019_Mar_03_1648	s	s	4	2	Capacity	12	ABS	0	0	1	4	24_1_4	NA	NA	0	1	3.7629430294	None	None	None	None	1
3.0.1	2019_Mar_03_1648	s	s	4	2	Capacity	13	1_4	1	4	1	3	23_1_3	0	1	1	0	0.780886888504	225.0	153.0	226.0	151.0	1
3.0.1	2019_Mar_03_1648	s	s	4	2	Capacity	14	ABS	0	0	1	3	24_1_3	NA	NA	0	1	13.7883300781	None	None	None	None	1
3.0.1	2019_Mar_03_1648	s	s	4	2	Capacity	15	1_1	1	1	1	2	23_1_2	0	1	1	0	6.37883210182	407.0	244.0	412.0	233.0	1
3.0.1	2019_Mar_03_1648	s	s	4	2	Capacity	16	1_1	1	1	1	4	23_1_4	0	3	1	0	0.733550071716	129.0	-288.0	128.0	-290.0	1
3.0.1	2019_Mar_03_1648	s	s	4	2	Capacity	17	ABS	0	0	1	4	24_1_4	NA	NA	0	1	6.37133288383	None	None	None	None	1
3.0.1	2019_Mar_03_1648	s	s	4	2	Capacity	18	ABS	0	0	1	2	24_1_2	NA	NA	0	1	10.5138309002	None	None	None	None	1
3.0.1	2019_Mar_03_1648	s	s	4	2	Capacity	19	ABS	0	0	1	4	24_1_4	NA	NA	0	1	2.74455118179	None	None	None	None	1
3.0.1	2019_Mar_03_1648	s	s	4	2	Capacity	20	ABS	0	0	1	1	24_1_1	NA	NA	0	1	2.29276394844	None	None	None	None	1
3.0.1	2019_Mar_03_1648	s	s	4	2	Capacity	21	1_4	1	4	1	2	23_1_2	0	2	1	0	0.555037021637	114.0	48.0	117.0	51.0	1
3.0.1	2019_Mar_03_1648	s	s	4	2	Capacity	22	1_3	1	3	1	2	23_1_2	0	1	1	0	5.67987990379	-359.0	-391.0	-365.0	-394.0	1
3.0.1	2019_Mar_03_1648	s	s	4	2	Capacity	23	1_3	1	3	1	1	23_1_1	0	2	1	0	1.14872908592	-403.0	376.0	-402.0	381.0	1
3.0.1	2019_Mar_03_1648	s	s	4	2	Capacity	24	ABS	0	0	1	1	24_1_1	NA	NA	0	1	7.23241710663	None	None	None	None	1
3.0.1	2019_Mar_03_1648	s	s	4	2	Capacity	25	1_3	1	3	1	2	23_1_2	0	1	1	0	2.26446294785	180.0	356.0	185.0	352.0	1
3.0.1	2019_Mar_03_1648	s	s	4	2	Capacity	26	1_1	1	1	1	2	23_1_2	0	1	1	0	1.09971690178	-471.0	-142.0	-467.0	-149.0	1
3.0.1	2019_Mar_03_1648	s	s	4	2	Capacity	27	1_3	1	3	1	4	23_1_4	0	-1	1	0	1.12839794159	78.0	124.0	83.0	120.0	1
3.0.1	2019_Mar_03_1648	s	s	4	2	Capacity	28	1_2	1	2	1	1	23_1_1	0	-1	0	1	3.69268298149	-201.0	392.0	None	None	0
3.0.1	2019_Mar_03_1648	s	s	4	2	Capacity	29	ABS	0	0	1	3	24_1_3	NA	NA	0	1	9.70772385597	None	None	None	None	1
3.0.1	2019_Mar_03_1648	s	s	4	2	Capacity	30	1_2	1	2	1	4	23_1_4	0	2	1	0	0.803823947906	433.0	44.0	427.0	38.0	1
3.0.1	2019_Mar_03_1648	s	s	4	2	Capacity	31	ABS	0	0	1	1	24_1_1	NA	NA	0	1	5.36769485474	None	None	None	None	1
3.0.1	2019_Mar_03_1648	s	s	4	2	Capacity	32	ABS	0	0	1	2	24_1_2	NA	NA	0	1	9.67875003815	None	None	None	None	1
3.0.1	2019_Mar_03_1648	s	s	4	2	Capacity	33	ABS	0	0	1	4	24_1_4	NA	NA	0	1	6.61202287674	None	None	None	None	1
3.0.1	2019_Mar_03_1648	s	s	4	2	Capacity	34	1_3	1	3	1	1	23_1_1	0	2	1	0	1.20190596581	231.0	-163.0	230.0	-168.0	1
3.0.1	2019_Mar_03_1648	s	s	4	2	Capacity	35	ABS	0	0	1	1	24_1_1	NA	NA	0	1	5.16775798798	None	None	None	None	1
3.0.1	2019_Mar_03_1648	s	s	4	2	Capacity	36	1_1	1	1	1	3	23_1_3	0	2	1	0	1.28126311302	121.0	149.0	118.0	140.0	1
3.0.1	2019_Mar_03_1648	s	s	4	2	Capacity	37	ABS	0	0	1	2	24_1_2	NA	NA	0	1	11.9936790466	None	None	None	None	1
3.0.1	2019_Mar_03_1648	s	s	4	2	Capacity	38	1_4	1	4	1	3	23_1_3	0	1	1	0	1.19014978409	44.0	-273.0	39.0	-264.0	1
3.0.1	2019_Mar_03_1648	s	s	4	2	Capacity	39	ABS	0	0	1	3	24_1_3	NA	NA	0	1	8.04670286179	None	None	None	None	1
3.0.1	2019_Mar_03_1648	s	s	4	2	Capacity	40	ABS	0	0	1	1	24_1_1	NA	NA	0	1	3.97461414337	None	None	None	None	1
3.0.1	2019_Mar_03_1648	s	s	4	2	Capacity	41	1_4	1	4	1	1	23_1_1	0	3	1	0	0.5873670578	-129.0	181.0	-128.0	184.0	1
3.0.1	2019_Mar_03_1648	s	s	4	2	Capacity	42	1_1	1	1	1	4	23_1_4	0	3	1	0	0.672589063644	56.0	156.0	63.0	155.0	1
3.0.1	2019_Mar_03_1648	s	s	4	2	Capacity	43	ABS	0	0	1	4	24_1_4	NA	NA	0	1	2.27467799187	None	None	None	None	1
3.0.1	2019_Mar_03_1648	s	s	4	2	Capacity	44	1_4	1	4	1	2	23_1_2	0	2	1	0	0.548195838928	-259.0	163.0	-252.0	161.0	1
3.0.1	2019_Mar_03_1648	s	s	4	2	Capacity	45	ABS	0	0	1	2	24_1_2	NA	NA	0	1	12.7533659935	None	None	None	None	1
3.0.1	2019_Mar_03_1648	s	s	4	2	Capacity	46	1_2	1	2	1	3	23_1_3	0	1	1	0	6.47978305817	-497.0	-69.0	-501.0	-72.0	1
3.0.1	2019_Mar_03_1648	s	s	4	2	Capacity	47	ABS	0	0	1	3	24_1_3	NA	NA	0	1	9.00182700157	None	None	None	None	1
3.0.1	2019_Mar_03_1648	s	s	4	2	Capacity	48	ABS	0	0	1	4	24_1_4	NA	NA	0	1	4.68026900291	None	None	None	None	1
3.0.1	2019_Mar_03_1648	s	s	4	2	Capacity	49	1_1	1	1	1	3	23_1_3	0	2	1	0	2.06934809685	-292.0	-276.0	-284.0	-275.0	1
3.0.1	2019_Mar_03_1648	s	s	4	2	Capacity	50	ABS	0	0	1	3	24_1_3	NA	NA	0	1	15.5285198689	None	None	None	None	1
3.0.1	2019_Mar_03_1648	s	s	4	2	Capacity	51	1_1	1	1	1	2	23_1_2	0	1	1	0	2.26213097572	-354.0	-68.0	-357.0	-67.0	1
3.0.1	2019_Mar_03_1648	s	s	4	2	Capacity	52	ABS	0	0	1	1	24_1_1	NA	NA	0	1	2.11486387253	None	None	None	None	1
3.0.1	2019_Mar_03_1648	s	s	4	2	Capacity	53	ABS	0	0	1	1	24_1_1	NA	NA	0	1	2.26038002968	None	None	None	None	1
3.0.1	2019_Mar_03_1648	s	s	4	2	Capacity	54	ABS	0	0	1	4	24_1_4	NA	NA	0	1	2.2339220047	None	None	None	None	1
3.0.1	2019_Mar_03_1648	s	s	4	2	Capacity	55	1_3	1	3	1	2	23_1_2	0	1	1	0	1.97518897057	-515.0	-126.0	-503.0	-125.0	1
3.0.1	2019_Mar_03_1648	s	s	4	2	Capacity	56	1_3	1	3	1	4	23_1_4	0	-1	1	0	2.23848819733	393.0	92.0	398.0	85.0	1
3.0.1	2019_Mar_03_1648	s	s	4	2	Capacity	57	ABS	0	0	1	3	24_1_3	NA	NA	0	1	12.6763539314	None	None	None	None	1
3.0.1	2019_Mar_03_1648	s	s	4	2	Capacity	58	1_2	1	2	1	3	23_1_3	0	1	1	0	2.17518186569	33.0	295.0	38.0	288.0	1
3.0.1	2019_Mar_03_1648	s	s	4	2	Capacity	59	1_4	1	4	1	1	23_1_1	0	3	1	0	0.69323015213	170.0	153.0	166.0	150.0	1
3.0.1	2019_Mar_03_1648	s	s	4	2	Capacity	60	ABS	0	0	1	3	24_1_3	NA	NA	0	1	8.00319099426	None	None	None	None	1
3.0.1	2019_Mar_03_1648	s	s	4	2	Capacity	61	ABS	0	0	1	1	24_1_1	NA	NA	0	1	2.76695108414	None	None	None	None	1
3.0.1	2019_Mar_03_1648	s	s	4	2	Capacity	62	ABS	0	0	1	2	24_1_2	NA	NA	0	1	8.02039599419	None	None	None	None	1
3.0.1	2019_Mar_03_1648	s	s	4	2	Capacity	63	1_2	1	2	1	4	23_1_4	0	2	1	0	0.840584993362	-198.0	-214.0	-194.0	-213.0	1
3.0.1	2019_Mar_03_1648	s	s	4	2	Capacity	64	1_3	1	3	1	1	23_1_1	0	2	1	0	1.45254993439	357.0	100.0	360.0	103.0	1
3.0.1	2019_Mar_03_1648	s	s	4	2	Capacity	65	1_2	1	2	1	1	23_1_1	0	-1	1	0	1.12156796455	-261.0	-102.0	-260.0	-106.0	1
3.0.1	2019_Mar_03_1648	s	s	4	2	Capacity	66	ABS	0	0	1	4	24_1_4	NA	NA	0	1	2.70440602303	None	None	None	None	1
3.0.1	2019_Mar_03_1648	s	s	4	2	Capacity	67	1_1	1	1	1	4	23_1_4	0	3	1	0	0.687533855438	-363.0	360.0	-363.0	353.0	1
3.0.1	2019_Mar_03_1648	s	s	4	2	Capacity	68	ABS	0	0	1	2	24_1_2	NA	NA	0	1	10.4313530922	None	None	None	None	1
3.0.1	2019_Mar_03_1648	s	s	4	2	Capacity	69	ABS	0	0	1	2	24_1_2	NA	NA	0	1	9.3142080307	None	None	None	None	1
3.0.1	2019_Mar_03_1648	s	s	4	2	Capacity	70	ABS	0	0	1	4	24_1_4	NA	NA	0	1	3.11608505249	None	None	None	None	1
3.0.1	2019_Mar_03_1648	s	s	4	2	Capacity	71	1_4	1	4	1	2	23_1_2	0	2	1	0	0.605011224747	-353.0	359.0	-358.0	358.0	1
3.0.1	2019_Mar_03_1648	s	s	4	2	Capacity	72	1_4	1	4	1	3	23_1_3	0	1	1	0	1.27445888519	-208.0	-87.0	-207.0	-98.0	1
3.0.1	2019_Mar_03_1648	s	s	4	2	Capacity	73	1_1	1	1	1	4	23_1_4	0	3	1	0	0.677290916443	80.0	90.0	85.0	89.0	1
3.0.1	2019_Mar_03_1648	s	s	4	2	Capacity	74	ABS	0	0	1	3	24_1_3	NA	NA	0	1	13.2710249424	None	None	None	None	1
3.0.1	2019_Mar_03_1648	s	s	4	2	Capacity	75	1_1	1	1	1	2	23_1_2	0	1	1	0	1.90752220154	-245.0	-189.0	-241.0	-190.0	1
3.0.1	2019_Mar_03_1648	s	s	4	2	Capacity	76	ABS	0	0	1	4	24_1_4	NA	NA	0	1	8.166670084	None	None	None	None	1
3.0.1	2019_Mar_03_1648	s	s	4	2	Capacity	77	ABS	0	0	1	4	24_1_4	NA	NA	0	1	3.49787712097	None	None	None	None	1
3.0.1	2019_Mar_03_1648	s	s	4	2	Capacity	78	1_3	1	3	1	4	23_1_4	0	-1	1	0	0.716773986816	-296.0	-244.0	-292.0	-240.0	1
3.0.1	2019_Mar_03_1648	s	s	4	2	Capacity	79	1_1	1	1	1	3	23_1_3	0	2	1	0	2.68498015404	342.0	369.0	354.0	370.0	1
3.0.1	2019_Mar_03_1648	s	s	4	2	Capacity	80	ABS	0	0	1	3	24_1_3	NA	NA	0	1	9.77281785011	None	None	None	None	1
3.0.1	2019_Mar_03_1648	s	s	4	2	Capacity	81	ABS	0	0	1	4	24_1_4	NA	NA	0	1	4.62578892708	None	None	None	None	1
3.0.1	2019_Mar_03_1648	s	s	4	2	Capacity	82	1_4	1	4	1	3	23_1_3	0	1	1	0	0.775608062744	189.0	-49.0	182.0	-50.0	1
3.0.1	2019_Mar_03_1648	s	s	4	2	Capacity	83	1_2	1	2	1	3	23_1_3	0	1	1	0	3.60461711884	-491.0	-373.0	-487.0	-373.0	1
3.0.1	2019_Mar_03_1648	s	s	4	2	Capacity	84	1_2	1	2	1	4	23_1_4	0	2	1	0	0.587357997894	-406.0	113.0	-405.0	112.0	1
3.0.1	2019_Mar_03_1648	s	s	4	2	Capacity	85	ABS	0	0	1	2	24_1_2	NA	NA	0	1	6.89425897598	None	None	None	None	1
3.0.1	2019_Mar_03_1648	s	s	4	2	Capacity	86	ABS	0	0	1	2	24_1_2	NA	NA	0	1	8.27918219566	None	None	None	None	1
3.0.1	2019_Mar_03_1648	s	s	4	2	Capacity	87	1_4	1	4	1	1	23_1_1	0	3	1	0	0.790186166763	-390.0	-307.0	-396.0	-302.0	1
3.0.1	2019_Mar_03_1648	s	s	4	2	Capacity	88	ABS	0	0	1	1	24_1_1	NA	NA	0	1	4.81350398064	None	None	None	None	1
3.0.1	2019_Mar_03_1648	s	s	4	2	Capacity	89	1_4	1	4	1	2	23_1_2	0	2	1	0	0.628917217255	140.0	320.0	140.0	315.0	1
3.0.1	2019_Mar_03_1648	s	s	4	2	Capacity	90	1_3	1	3	1	2	23_1_2	0	1	1	0	3.32093811035	-494.0	-353.0	-482.0	-352.0	1
3.0.1	2019_Mar_03_1648	s	s	4	2	Capacity	91	ABS	0	0	1	2	24_1_2	NA	NA	0	1	12.03597188	None	None	None	None	1
3.0.1	2019_Mar_03_1648	s	s	4	2	Capacity	92	1_2	1	2	1	1	23_1_1	0	-1	1	0	2.66909694672	509.0	-72.0	505.0	-74.0	1
3.0.1	2019_Mar_03_1648	s	s	4	2	Capacity	93	ABS	0	0	1	3	24_1_3	NA	NA	0	1	7.3618850708	None	None	None	None	1
3.0.1	2019_Mar_03_1648	s	s	4	2	Capacity	94	ABS	0	0	1	1	24_1_1	NA	NA	0	1	3.63348007202	None	None	None	None	1
3.0.1	2019_Mar_03_1648	s	s	4	2	Capacity	95	ABS	0	0	1	1	24_1_1	NA	NA	0	1	3.73617386818	None	None	None	None	1
3.0.1	2019_Mar_03_1648	s	s	4	2	Capacity	96	1_3	1	3	1	1	23_1_1	0	2	1	0	1.10785293579	195.0	-73.0	187.0	-69.0	1
3.0.1	2019_Mar_03_1648	s	s	4	2	Capacity	1	2_1	2	1	1	1	23_1_1	-1	0	1	0	2.61340618134	-167.0	383.0	-170.0	381.0	1
3.0.1	2019_Mar_03_1648	s	s	4	2	Capacity	2	4_1	4	1	2	1	23_2_1	2	0	1	0	0.437617063522	77.0	310.0	76.0	306.0	1
3.0.1	2019_Mar_03_1648	s	s	4	2	Capacity	3	2_1	2	1	3	1	23_3_1	1	0	1	0	0.481563091278	-354.0	64.0	-357.0	63.0	1
3.0.1	2019_Mar_03_1648	s	s	4	2	Capacity	4	2_1	2	1	4	1	23_4_1	2	0	1	0	0.481539011002	174.0	141.0	175.0	146.0	1
3.0.1	2019_Mar_03_1648	s	s	4	2	Capacity	5	3_1	3	1	1	1	23_1_1	2	0	1	0	0.410941123962	-126.0	253.0	-120.0	251.0	1
3.0.1	2019_Mar_03_1648	s	s	4	2	Capacity	6	ABS	0	0	2	1	24_2_1	NA	NA	0	1	3.81402397156	None	None	None	None	1
3.0.1	2019_Mar_03_1648	s	s	4	2	Capacity	7	1_1	1	1	3	1	23_3_1	2	0	1	0	0.686414003372	502.0	-90.0	501.0	-96.0	1
3.0.1	2019_Mar_03_1648	s	s	4	2	Capacity	8	1_1	1	1	4	1	23_4_1	3	0	1	0	0.422714948654	63.0	232.0	71.0	229.0	1
3.0.1	2019_Mar_03_1648	s	s	4	2	Capacity	9	3_1	3	1	4	1	23_4_1	-1	0	1	0	0.399192094803	-269.0	59.0	-275.0	61.0	1
3.0.1	2019_Mar_03_1648	s	s	4	2	Capacity	10	ABS	0	0	4	1	24_4_1	NA	NA	0	1	1.19215989113	None	None	None	None	1
3.0.1	2019_Mar_03_1648	s	s	4	2	Capacity	11	ABS	0	0	4	1	24_4_1	NA	NA	0	1	1.45770597458	None	None	None	None	1
3.0.1	2019_Mar_03_1648	s	s	4	2	Capacity	12	ABS	0	0	2	1	24_2_1	NA	NA	0	1	2.99844384193	None	None	None	None	1
3.0.1	2019_Mar_03_1648	s	s	4	2	Capacity	13	1_1	1	1	2	1	23_2_1	1	0	1	0	1.99186110497	99.0	223.0	105.0	218.0	1
3.0.1	2019_Mar_03_1648	s	s	4	2	Capacity	14	ABS	0	0	1	1	24_1_1	NA	NA	0	1	7.1735959053	None	None	None	None	1
3.0.1	2019_Mar_03_1648	s	s	4	2	Capacity	15	ABS	0	0	3	1	24_3_1	NA	NA	0	1	3.4570991993	None	None	None	None	1
3.0.1	2019_Mar_03_1648	s	s	4	2	Capacity	16	4_1	4	1	1	1	23_1_1	3	0	1	0	0.599242925644	-411.0	352.0	-415.0	349.0	1
3.0.1	2019_Mar_03_1648	s	s	4	2	Capacity	17	3_1	3	1	2	1	23_2_1	1	0	1	0	0.941781997681	254.0	58.0	244.0	59.0	1
3.0.1	2019_Mar_03_1648	s	s	4	2	Capacity	18	ABS	0	0	1	1	24_1_1	NA	NA	0	1	4.6449739933	None	None	None	None	1
3.0.1	2019_Mar_03_1648	s	s	4	2	Capacity	19	4_1	4	1	3	1	23_3_1	1	0	1	0	0.451728820801	-212.0	9.0	-215.0	-1.0	1
3.0.1	2019_Mar_03_1648	s	s	4	2	Capacity	20	ABS	0	0	3	1	24_3_1	NA	NA	0	1	1.58023786545	None	None	None	None	1
3.0.1	2019_Mar_03_1648	s	s	4	2	Capacity	21	ABS	0	0	4	1	24_4_1	NA	NA	0	1	2.71614813805	None	None	None	None	1
3.0.1	2019_Mar_03_1648	s	s	4	2	Capacity	22	ABS	0	0	1	1	24_1_1	NA	NA	0	1	2.71143198013	None	None	None	None	1
3.0.1	2019_Mar_03_1648	s	s	4	2	Capacity	23	ABS	0	0	3	1	24_3_1	NA	NA	0	1	1.66939401627	None	None	None	None	1
3.0.1	2019_Mar_03_1648	s	s	4	2	Capacity	24	ABS	0	0	2	1	24_2_1	NA	NA	0	1	4.89747595787	None	None	None	None	1
3.0.1	2019_Mar_03_1648	s	s	4	2	Capacity	25	ABS	0	0	4	1	24_4_1	NA	NA	0	1	2.58675789833	None	None	None	None	1
3.0.1	2019_Mar_03_1648	s	s	4	2	Capacity	26	ABS	0	0	2	1	24_2_1	NA	NA	0	1	4.81296801567	None	None	None	None	1
3.0.1	2019_Mar_03_1648	s	s	4	2	Capacity	27	2_1	2	1	3	1	23_3_1	1	0	1	0	0.496171951294	-108.0	305.0	-107.0	298.0	1
3.0.1	2019_Mar_03_1648	s	s	4	2	Capacity	28	4_1	4	1	2	1	23_2_1	2	0	1	0	0.439493894577	32.0	397.0	36.0	384.0	1
3.0.1	2019_Mar_03_1648	s	s	4	2	Capacity	29	3_1	3	1	4	1	23_4_1	-1	0	1	0	0.415100812912	207.0	252.0	208.0	259.0	1
3.0.1	2019_Mar_03_1648	s	s	4	2	Capacity	30	1_1	1	1	2	1	23_2_1	1	0	1	0	1.22240996361	539.0	-333.0	539.0	-335.0	1
3.0.1	2019_Mar_03_1648	s	s	4	2	Capacity	31	ABS	0	0	4	1	24_4_1	NA	NA	0	1	0.740235090256	None	None	None	None	1
3.0.1	2019_Mar_03_1648	s	s	4	2	Capacity	32	ABS	0	0	1	1	24_1_1	NA	NA	0	1	1.94464993477	None	None	None	None	1
3.0.1	2019_Mar_03_1648	s	s	4	2	Capacity	33	3_1	3	1	2	1	23_2_1	1	0	1	0	0.458075046539	-268.0	198.0	-268.0	195.0	1
3.0.1	2019_Mar_03_1648	s	s	4	2	Capacity	34	2_1	2	1	4	1	23_4_1	2	0	1	0	0.437381029129	295.0	-178.0	300.0	-183.0	1
3.0.1	2019_Mar_03_1648	s	s	4	2	Capacity	35	ABS	0	0	1	1	24_1_1	NA	NA	0	1	1.62088704109	None	None	None	None	1
3.0.1	2019_Mar_03_1648	s	s	4	2	Capacity	36	1_1	1	1	3	1	23_3_1	2	0	1	0	0.473727941513	390.0	-258.0	388.0	-258.0	1
3.0.1	2019_Mar_03_1648	s	s	4	2	Capacity	37	4_1	4	1	1	1	23_1_1	3	0	1	0	0.415051937103	-521.0	324.0	-522.0	322.0	1
3.0.1	2019_Mar_03_1648	s	s	4	2	Capacity	38	ABS	0	0	2	1	24_2_1	NA	NA	0	1	4.88022279739	None	None	None	None	1
3.0.1	2019_Mar_03_1648	s	s	4	2	Capacity	39	ABS	0	0	1	1	24_1_1	NA	NA	0	1	2.41036295891	None	None	None	None	1
3.0.1	2019_Mar_03_1648	s	s	4	2	Capacity	40	ABS	0	0	3	1	24_3_1	NA	NA	0	1	2.08661603928	None	None	None	None	1
3.0.1	2019_Mar_03_1648	s	s	4	2	Capacity	41	ABS	0	0	3	1	24_3_1	NA	NA	0	1	1.50993013382	None	None	None	None	1
3.0.1	2019_Mar_03_1648	s	s	4	2	Capacity	42	ABS	0	0	4	1	24_4_1	NA	NA	0	1	0.613802909851	None	None	None	None	1
3.0.1	2019_Mar_03_1648	s	s	4	2	Capacity	43	4_1	4	1	3	1	23_3_1	1	0	1	0	0.4961810112	311.0	-130.0	301.0	-132.0	1
3.0.1	2019_Mar_03_1648	s	s	4	2	Capacity	44	ABS	0	0	2	1	24_2_1	NA	NA	0	1	3.5907599926	None	None	None	None	1
3.0.1	2019_Mar_03_1648	s	s	4	2	Capacity	45	1_1	1	1	4	1	23_4_1	3	0	1	0	0.422820091248	484.0	-88.0	484.0	-94.0	1
3.0.1	2019_Mar_03_1648	s	s	4	2	Capacity	46	2_1	2	1	1	1	23_1_1	-1	0	1	0	6.03765511513	-328.0	-167.0	-335.0	-161.0	1
3.0.1	2019_Mar_03_1648	s	s	4	2	Capacity	47	3_1	3	1	1	1	23_1_1	2	0	1	0	0.716794013977	-12.0	274.0	-13.0	265.0	1
3.0.1	2019_Mar_03_1648	s	s	4	2	Capacity	48	ABS	0	0	3	1	24_3_1	NA	NA	0	1	3.01495599747	None	None	None	None	1
3.0.1	2019_Mar_03_1648	s	s	4	2	Capacity	49	ABS	0	0	2	1	24_2_1	NA	NA	0	1	2.18189692497	None	None	None	None	1
3.0.1	2019_Mar_03_1648	s	s	4	2	Capacity	50	2_1	2	1	4	1	23_4_1	2	0	1	0	0.469758033752	145.0	379.0	148.0	379.0	1
3.0.1	2019_Mar_03_1648	s	s	4	2	Capacity	51	4_1	4	1	2	1	23_2_1	2	0	1	0	0.451407194138	476.0	-222.0	473.0	-224.0	1
3.0.1	2019_Mar_03_1648	s	s	4	2	Capacity	52	4_1	4	1	3	1	23_3_1	1	0	1	0	0.392535924911	162.0	-240.0	163.0	-245.0	1
3.0.1	2019_Mar_03_1648	s	s	4	2	Capacity	53	ABS	0	0	3	1	24_3_1	NA	NA	0	1	4.20981097221	None	None	None	None	1
3.0.1	2019_Mar_03_1648	s	s	4	2	Capacity	54	ABS	0	0	3	1	24_3_1	NA	NA	0	1	1.76858210564	None	None	None	None	1
3.0.1	2019_Mar_03_1648	s	s	4	2	Capacity	55	ABS	0	0	4	1	24_4_1	NA	NA	0	1	1.05787277222	None	None	None	None	1
3.0.1	2019_Mar_03_1648	s	s	4	2	Capacity	56	2_1	2	1	3	1	23_3_1	1	0	1	0	0.486726045609	-75.0	-156.0	-79.0	-159.0	1
3.0.1	2019_Mar_03_1648	s	s	4	2	Capacity	57	3_1	3	1	2	1	23_2_1	1	0	1	0	0.493260145187	-445.0	-287.0	-448.0	-293.0	1
3.0.1	2019_Mar_03_1648	s	s	4	2	Capacity	58	4_1	4	1	1	1	23_1_1	3	0	1	0	0.427668094635	-191.0	183.0	-189.0	180.0	1
3.0.1	2019_Mar_03_1648	s	s	4	2	Capacity	59	ABS	0	0	1	1	24_1_1	NA	NA	0	1	2.79847598076	None	None	None	None	1
3.0.1	2019_Mar_03_1648	s	s	4	2	Capacity	60	ABS	0	0	4	1	24_4_1	NA	NA	0	1	2.79608798027	None	None	None	None	1
3.0.1	2019_Mar_03_1648	s	s	4	2	Capacity	61	3_1	3	1	1	1	23_1_1	2	0	1	0	0.510836839676	230.0	59.0	231.0	54.0	1
3.0.1	2019_Mar_03_1648	s	s	4	2	Capacity	62	ABS	0	0	2	1	24_2_1	NA	NA	0	1	2.63829922676	None	None	None	None	1
3.0.1	2019_Mar_03_1648	s	s	4	2	Capacity	63	ABS	0	0	3	1	24_3_1	NA	NA	0	1	2.0039498806	None	None	None	None	1
3.0.1	2019_Mar_03_1648	s	s	4	2	Capacity	64	3_1	3	1	4	1	23_4_1	-1	0	1	0	0.469709873199	55.0	-255.0	51.0	-257.0	1
3.0.1	2019_Mar_03_1648	s	s	4	2	Capacity	65	1_1	1	1	3	1	23_3_1	2	0	1	0	0.437376976013	9.0	-7.0	16.0	-7.0	1
3.0.1	2019_Mar_03_1648	s	s	4	2	Capacity	66	ABS	0	0	1	1	24_1_1	NA	NA	0	1	1.46294593811	None	None	None	None	1
3.0.1	2019_Mar_03_1648	s	s	4	2	Capacity	67	1_1	1	1	4	1	23_4_1	3	0	1	0	0.379548072815	-192.0	3.0	-188.0	-5.0	1
3.0.1	2019_Mar_03_1648	s	s	4	2	Capacity	68	2_1	2	1	1	1	23_1_1	-1	0	1	0	10.8479158878	-236.0	-231.0	-240.0	-240.0	1
3.0.1	2019_Mar_03_1648	s	s	4	2	Capacity	69	ABS	0	0	4	1	24_4_1	NA	NA	0	1	0.951984882355	None	None	None	None	1
3.0.1	2019_Mar_03_1648	s	s	4	2	Capacity	70	ABS	0	0	1	1	24_1_1	NA	NA	0	1	1.98971509933	None	None	None	None	1
3.0.1	2019_Mar_03_1648	s	s	4	2	Capacity	71	ABS	0	0	2	1	24_2_1	NA	NA	0	1	1.71650481224	None	None	None	None	1
3.0.1	2019_Mar_03_1648	s	s	4	2	Capacity	72	1_1	1	1	2	1	23_2_1	1	0	0	1	2.99844002724	109.0	329.0	None	None	0
3.0.1	2019_Mar_03_1648	s	s	4	2	Capacity	73	ABS	0	0	4	1	24_4_1	NA	NA	0	1	0.674694776535	None	None	None	None	1
3.0.1	2019_Mar_03_1648	s	s	4	2	Capacity	74	ABS	0	0	3	1	24_3_1	NA	NA	0	1	1.77821707726	None	None	None	None	1
3.0.1	2019_Mar_03_1648	s	s	4	2	Capacity	75	4_1	4	1	3	1	23_3_1	1	0	1	0	1.49689006805	-123.0	-99.0	-122.0	-90.0	1
3.0.1	2019_Mar_03_1648	s	s	4	2	Capacity	76	ABS	0	0	1	1	24_1_1	NA	NA	0	1	1.88107299805	None	None	None	None	1
3.0.1	2019_Mar_03_1648	s	s	4	2	Capacity	77	ABS	0	0	4	1	24_4_1	NA	NA	0	1	0.810836076736	None	None	None	None	1
3.0.1	2019_Mar_03_1648	s	s	4	2	Capacity	78	ABS	0	0	1	1	24_1_1	NA	NA	0	1	1.49636006355	None	None	None	None	1
3.0.1	2019_Mar_03_1648	s	s	4	2	Capacity	79	4_1	4	1	2	1	23_2_1	2	0	1	0	0.460968971252	335.0	-206.0	335.0	-208.0	1
3.0.1	2019_Mar_03_1648	s	s	4	2	Capacity	80	1_1	1	1	2	1	23_2_1	1	0	1	0	6.72677206993	-444.0	-392.0	-441.0	-396.0	1
3.0.1	2019_Mar_03_1648	s	s	4	2	Capacity	81	2_1	2	1	1	1	23_1_1	-1	0	1	0	2.03966188431	383.0	37.0	384.0	39.0	1
3.0.1	2019_Mar_03_1648	s	s	4	2	Capacity	82	1_1	1	1	3	1	23_3_1	2	0	1	0	0.457978963852	300.0	-50.0	297.0	-53.0	1
3.0.1	2019_Mar_03_1648	s	s	4	2	Capacity	83	ABS	0	0	1	1	24_1_1	NA	NA	0	1	2.56364703178	None	None	None	None	1
3.0.1	2019_Mar_03_1648	s	s	4	2	Capacity	84	4_1	4	1	1	1	23_1_1	3	0	1	0	0.422739982605	-206.0	-290.0	-202.0	-290.0	1
3.0.1	2019_Mar_03_1648	s	s	4	2	Capacity	85	3_1	3	1	2	1	23_2_1	1	0	1	0	0.658016204834	246.0	-365.0	245.0	-372.0	1
3.0.1	2019_Mar_03_1648	s	s	4	2	Capacity	86	ABS	0	0	3	1	24_3_1	NA	NA	0	1	1.10973715782	None	None	None	None	1
3.0.1	2019_Mar_03_1648	s	s	4	2	Capacity	87	2_1	2	1	4	1	23_4_1	2	0	1	0	0.469821929932	-401.0	-84.0	-400.0	-97.0	1
3.0.1	2019_Mar_03_1648	s	s	4	2	Capacity	88	3_1	3	1	1	1	23_1_1	2	0	1	0	0.646161079407	-44.0	284.0	-42.0	284.0	1
3.0.1	2019_Mar_03_1648	s	s	4	2	Capacity	89	ABS	0	0	2	1	24_2_1	NA	NA	0	1	1.6632039547	None	None	None	None	1
3.0.1	2019_Mar_03_1648	s	s	4	2	Capacity	90	ABS	0	0	4	1	24_4_1	NA	NA	0	1	2.76312494278	None	None	None	None	1
3.0.1	2019_Mar_03_1648	s	s	4	2	Capacity	91	2_1	2	1	3	1	23_3_1	1	0	1	0	0.61384510994	421.0	-51.0	419.0	-51.0	1
3.0.1	2019_Mar_03_1648	s	s	4	2	Capacity	92	ABS	0	0	3	1	24_3_1	NA	NA	0	1	1.14798498154	None	None	None	None	1
3.0.1	2019_Mar_03_1648	s	s	4	2	Capacity	93	3_1	3	1	4	1	23_4_1	-1	0	1	0	0.437533855438	66.0	25.0	69.0	27.0	1
3.0.1	2019_Mar_03_1648	s	s	4	2	Capacity	94	1_1	1	1	4	1	23_4_1	3	0	1	0	0.496166944504	313.0	181.0	310.0	183.0	1
3.0.1	2019_Mar_03_1648	s	s	4	2	Capacity	95	ABS	0	0	2	1	24_2_1	NA	NA	0	1	1.5684709549	None	None	None	None	1
3.0.1	2019_Mar_03_1648	s	s	4	2	Capacity	96	ABS	0	0	2	1	24_2_1	NA	NA	0	1	3.06909394264	None	None	None	None	1
3.0.1	2019_Mar_03_1648	s	s	4	2	SIC	1	ABS	0	0	2	2	24_2_2	NA	NA	0	1	5.83283686638	None	None	None	None	1
3.0.1	2019_Mar_03_1648	s	s	4	2	SIC	2	1_1	1	1	2	3	23_2_3	1	2	1	0	1.33336997032	-520.0	143.0	-519.0	142.0	1
3.0.1	2019_Mar_03_1648	s	s	4	2	SIC	3	ABS	0	0	2	1	24_2_1	NA	NA	0	1	4.05697798729	None	None	None	None	1
3.0.1	2019_Mar_03_1648	s	s	4	2	SIC	4	1_3	1	3	3	3	23_3_3	2	0	1	0	0.651320934296	481.0	-355.0	482.0	-353.0	1
3.0.1	2019_Mar_03_1648	s	s	4	2	SIC	5	ABS	0	0	4	2	24_4_2	NA	NA	0	1	8.27914810181	None	None	None	None	1
3.0.1	2019_Mar_03_1648	s	s	4	2	SIC	6	ABS	0	0	4	4	24_4_4	NA	NA	0	1	2.71614694595	None	None	None	None	1
3.0.1	2019_Mar_03_1648	s	s	4	2	SIC	7	ABS	0	0	3	4	24_3_4	NA	NA	0	1	3.75113201141	None	None	None	None	1
3.0.1	2019_Mar_03_1648	s	s	4	2	SIC	8	ABS	0	0	3	3	24_3_3	NA	NA	0	1	7.60879898071	None	None	None	None	1
3.0.1	2019_Mar_03_1648	s	s	4	2	SIC	9	ABS	0	0	2	4	24_2_4	NA	NA	0	1	5.26833891869	None	None	None	None	1
3.0.1	2019_Mar_03_1648	s	s	4	2	SIC	10	ABS	0	0	4	3	24_4_3	NA	NA	0	1	9.44968390465	None	None	None	None	1
3.0.1	2019_Mar_03_1648	s	s	4	2	SIC	11	ABS	0	0	1	4	24_1_4	NA	NA	0	1	4.99780416489	None	None	None	None	1
3.0.1	2019_Mar_03_1648	s	s	4	2	SIC	12	ABS	0	0	3	4	24_3_4	NA	NA	0	1	4.30910897255	None	None	None	None	1
3.0.1	2019_Mar_03_1648	s	s	4	2	SIC	13	1_1	1	1	2	1	23_2_1	1	0	1	0	5.36240816116	40.0	-330.0	45.0	-329.0	1
3.0.1	2019_Mar_03_1648	s	s	4	2	SIC	14	ABS	0	0	3	2	24_3_2	NA	NA	0	1	10.760766983	None	None	None	None	1
3.0.1	2019_Mar_03_1648	s	s	4	2	SIC	15	ABS	0	0	4	2	24_4_2	NA	NA	0	1	5.82113599777	None	None	None	None	1
3.0.1	2019_Mar_03_1648	s	s	4	2	SIC	16	4_3	4	3	2	1	23_2_1	2	2	1	0	0.646239042282	453.0	-370.0	450.0	-367.0	1
3.0.1	2019_Mar_03_1648	s	s	4	2	SIC	17	4_3	4	3	2	2	23_2_2	2	1	1	0	0.552047014236	-319.0	146.0	-319.0	146.0	1
3.0.1	2019_Mar_03_1648	s	s	4	2	SIC	18	2_1	2	1	1	2	23_1_2	-1	1	1	0	3.6138188839	267.0	-350.0	258.0	-354.0	1
3.0.1	2019_Mar_03_1648	s	s	4	2	SIC	19	2_4	2	4	3	4	23_3_4	1	0	1	0	0.733666181564	-88.0	234.0	-89.0	232.0	1
3.0.1	2019_Mar_03_1648	s	s	4	2	SIC	20	4_2	4	2	2	1	23_2_1	2	-1	1	0	0.434489965439	124.0	-69.0	119.0	-70.0	1
3.0.1	2019_Mar_03_1648	s	s	4	2	SIC	21	3_4	3	4	3	1	23_3_1	0	3	1	0	0.634381055832	-172.0	-374.0	-167.0	-371.0	1
3.0.1	2019_Mar_03_1648	s	s	4	2	SIC	22	ABS	0	0	4	1	24_4_1	NA	NA	0	1	6.84714102745	None	None	None	None	1
3.0.1	2019_Mar_03_1648	s	s	4	2	SIC	23	3_3	3	3	1	3	23_1_3	2	0	1	0	0.8614320755	246.0	-366.0	248.0	-376.0	1
3.0.1	2019_Mar_03_1648	s	s	4	2	SIC	24	4_1	4	1	2	3	23_2_3	2	2	1	0	1.48652100563	389.0	-120.0	392.0	-121.0	1
3.0.1	2019_Mar_03_1648	s	s	4	2	SIC	25	ABS	0	0	4	4	24_4_4	NA	NA	0	1	2.85469102859	None	None	None	None	1
3.0.1	2019_Mar_03_1648	s	s	4	2	SIC	26	4_4	4	4	4	1	23_4_1	0	3	1	0	1.03955101967	-492.0	-98.0	-490.0	-104.0	1
3.0.1	2019_Mar_03_1648	s	s	4	2	SIC	27	ABS	0	0	1	2	24_1_2	NA	NA	0	1	7.59710288048	None	None	None	None	1
3.0.1	2019_Mar_03_1648	s	s	4	2	SIC	28	ABS	0	0	2	3	24_2_3	NA	NA	0	1	6.503251791	None	None	None	None	1
3.0.1	2019_Mar_03_1648	s	s	4	2	SIC	29	ABS	0	0	2	1	24_2_1	NA	NA	0	1	4.91080403328	None	None	None	None	1
3.0.1	2019_Mar_03_1648	s	s	4	2	SIC	30	3_1	3	1	2	2	23_2_2	1	1	1	0	0.499484062195	381.0	-94.0	379.0	-106.0	1
3.0.1	2019_Mar_03_1648	s	s	4	2	SIC	31	ABS	0	0	1	3	24_1_3	NA	NA	0	1	8.00871491432	None	None	None	None	1
3.0.1	2019_Mar_03_1648	s	s	4	2	SIC	32	ABS	0	0	4	1	24_4_1	NA	NA	0	1	3.39826703072	None	None	None	None	1
3.0.1	2019_Mar_03_1648	s	s	4	2	SIC	33	2_4	2	4	1	4	23_1_4	-1	0	0	1	1.37831997871	148.0	260.0	None	None	0
3.0.1	2019_Mar_03_1648	s	s	4	2	SIC	34	ABS	0	0	1	2	24_1_2	NA	NA	0	1	7.10307812691	None	None	None	None	1
3.0.1	2019_Mar_03_1648	s	s	4	2	SIC	35	ABS	0	0	3	2	24_3_2	NA	NA	0	1	10.7422580719	None	None	None	None	1
3.0.1	2019_Mar_03_1648	s	s	4	2	SIC	36	3_4	3	4	3	2	23_3_2	0	2	1	0	0.857897043228	456.0	344.0	447.0	352.0	1
3.0.1	2019_Mar_03_1648	s	s	4	2	SIC	37	ABS	0	0	1	1	24_1_1	NA	NA	0	1	2.84845709801	None	None	None	None	1
3.0.1	2019_Mar_03_1648	s	s	4	2	SIC	38	1_3	1	3	1	1	23_1_1	0	2	1	0	2.58677411079	310.0	275.0	307.0	275.0	1
3.0.1	2019_Mar_03_1648	s	s	4	2	SIC	39	1_2	1	2	1	4	23_1_4	0	2	1	0	0.855906963348	383.0	362.0	388.0	356.0	1
3.0.1	2019_Mar_03_1648	s	s	4	2	SIC	40	4_2	4	2	4	4	23_4_4	0	2	1	0	0.679037094116	-265.0	-209.0	-268.0	-212.0	1
3.0.1	2019_Mar_03_1648	s	s	4	2	SIC	41	4_3	4	3	4	4	23_4_4	0	-1	1	0	0.869598150253	-358.0	345.0	-360.0	349.0	1
3.0.1	2019_Mar_03_1648	s	s	4	2	SIC	42	ABS	0	0	4	3	24_4_3	NA	NA	0	1	12.4363889694	None	None	None	None	1
3.0.1	2019_Mar_03_1648	s	s	4	2	SIC	43	ABS	0	0	1	1	24_1_1	NA	NA	0	1	4.07342410088	None	None	None	None	1
3.0.1	2019_Mar_03_1648	s	s	4	2	SIC	44	ABS	0	0	1	1	24_1_1	NA	NA	0	1	2.8742108345	None	None	None	None	1
3.0.1	2019_Mar_03_1648	s	s	4	2	SIC	45	3_4	3	4	4	3	23_4_3	-1	1	1	0	0.474974155426	-329.0	168.0	-330.0	159.0	1
3.0.1	2019_Mar_03_1648	s	s	4	2	SIC	46	ABS	0	0	3	1	24_3_1	NA	NA	0	1	2.57502388954	None	None	None	None	1
3.0.1	2019_Mar_03_1648	s	s	4	2	SIC	47	1_3	1	3	2	1	23_2_1	1	2	1	0	1.02260398865	-462.0	-127.0	-455.0	-124.0	1
3.0.1	2019_Mar_03_1648	s	s	4	2	SIC	48	ABS	0	0	4	1	24_4_1	NA	NA	0	1	1.97270512581	None	None	None	None	1
3.0.1	2019_Mar_03_1648	s	s	4	2	SIC	49	ABS	0	0	2	4	24_2_4	NA	NA	0	1	3.53944301605	None	None	None	None	1
3.0.1	2019_Mar_03_1648	s	s	4	2	SIC	50	2_1	2	1	4	1	23_4_1	2	0	1	0	0.439431905746	-155.0	387.0	-154.0	384.0	1
3.0.1	2019_Mar_03_1648	s	s	4	2	SIC	51	ABS	0	0	3	2	24_3_2	NA	NA	0	1	9.90712690353	None	None	None	None	1
3.0.1	2019_Mar_03_1648	s	s	4	2	SIC	52	3_3	3	3	4	1	23_4_1	-1	2	1	0	0.451192140579	-470.0	87.0	-474.0	90.0	1
3.0.1	2019_Mar_03_1648	s	s	4	2	SIC	53	ABS	0	0	3	1	24_3_1	NA	NA	0	1	3.87163901329	None	None	None	None	1
3.0.1	2019_Mar_03_1648	s	s	4	2	SIC	54	2_3	2	3	4	2	23_4_2	2	1	1	0	0.375735998154	-114.0	232.0	-123.0	232.0	1
3.0.1	2019_Mar_03_1648	s	s	4	2	SIC	55	ABS	0	0	1	2	24_1_2	NA	NA	0	1	4.81358504295	None	None	None	None	1
3.0.1	2019_Mar_03_1648	s	s	4	2	SIC	56	ABS	0	0	4	2	24_4_2	NA	NA	0	1	6.5198969841	None	None	None	None	1
3.0.1	2019_Mar_03_1648	s	s	4	2	SIC	57	1_3	1	3	4	4	23_4_4	3	-1	1	0	0.613811016083	93.0	295.0	96.0	299.0	1
3.0.1	2019_Mar_03_1648	s	s	4	2	SIC	58	ABS	0	0	3	2	24_3_2	NA	NA	0	1	5.4212269783	None	None	None	None	1
3.0.1	2019_Mar_03_1648	s	s	4	2	SIC	59	ABS	0	0	4	4	24_4_4	NA	NA	0	1	2.06280112267	None	None	None	None	1
3.0.1	2019_Mar_03_1648	s	s	4	2	SIC	60	4_1	4	1	2	4	23_2_4	2	3	1	0	0.481538057327	-288.0	-74.0	-291.0	-78.0	1
3.0.1	2019_Mar_03_1648	s	s	4	2	SIC	61	ABS	0	0	1	1	24_1_1	NA	NA	0	1	6.42091703415	None	None	None	None	1
3.0.1	2019_Mar_03_1648	s	s	4	2	SIC	62	ABS	0	0	4	4	24_4_4	NA	NA	0	1	2.30456113815	None	None	None	None	1
3.0.1	2019_Mar_03_1648	s	s	4	2	SIC	63	ABS	0	0	2	1	24_2_1	NA	NA	0	1	3.94386315346	None	None	None	None	1
3.0.1	2019_Mar_03_1648	s	s	4	2	SIC	64	4_3	4	3	3	2	23_3_2	1	1	1	0	0.410942077637	120.0	-239.0	117.0	-240.0	1
3.0.1	2019_Mar_03_1648	s	s	4	2	SIC	65	4_3	4	3	1	4	23_1_4	3	-1	1	0	0.423154115677	44.0	291.0	45.0	287.0	1
3.0.1	2019_Mar_03_1648	s	s	4	2	SIC	66	ABS	0	0	3	3	24_3_3	NA	NA	0	1	6.31790494919	None	None	None	None	1
3.0.1	2019_Mar_03_1648	s	s	4	2	SIC	67	ABS	0	0	1	4	24_1_4	NA	NA	0	1	3.22469997406	None	None	None	None	1
3.0.1	2019_Mar_03_1648	s	s	4	2	SIC	68	ABS	0	0	3	1	24_3_1	NA	NA	0	1	3.71624684334	None	None	None	None	1
3.0.1	2019_Mar_03_1648	s	s	4	2	SIC	69	ABS	0	0	2	4	24_2_4	NA	NA	0	1	3.33249592781	None	None	None	None	1
3.0.1	2019_Mar_03_1648	s	s	4	2	SIC	70	ABS	0	0	4	1	24_4_1	NA	NA	0	1	2.64553499222	None	None	None	None	1
3.0.1	2019_Mar_03_1648	s	s	4	2	SIC	71	ABS	0	0	4	2	24_4_2	NA	NA	0	1	6.71493792534	None	None	None	None	1
3.0.1	2019_Mar_03_1648	s	s	4	2	SIC	72	4_2	4	2	3	4	23_3_4	1	2	1	0	0.493414163589	170.0	-157.0	171.0	-159.0	1
3.0.1	2019_Mar_03_1648	s	s	4	2	SIC	73	1_3	1	3	3	2	23_3_2	2	1	1	0	0.592451095581	90.0	-282.0	87.0	-282.0	1
3.0.1	2019_Mar_03_1648	s	s	4	2	SIC	74	2_1	2	1	2	2	23_2_2	0	1	1	0	2.22052907944	27.0	100.0	23.0	100.0	1
3.0.1	2019_Mar_03_1648	s	s	4	2	SIC	75	2_4	2	4	3	3	23_3_3	1	1	1	0	0.663276910782	487.0	140.0	482.0	134.0	1
3.0.1	2019_Mar_03_1648	s	s	4	2	SIC	76	1_4	1	4	3	2	23_3_2	2	2	1	0	0.488194942474	-351.0	-190.0	-347.0	-199.0	1
3.0.1	2019_Mar_03_1648	s	s	4	2	SIC	77	ABS	0	0	1	3	24_1_3	NA	NA	0	1	10.8787989616	None	None	None	None	1
3.0.1	2019_Mar_03_1648	s	s	4	2	SIC	78	ABS	0	0	4	1	24_4_1	NA	NA	0	1	2.16341495514	None	None	None	None	1
3.0.1	2019_Mar_03_1648	s	s	4	2	SIC	79	ABS	0	0	4	4	24_4_4	NA	NA	0	1	1.71939706802	None	None	None	None	1
3.0.1	2019_Mar_03_1648	s	s	4	2	SIC	80	2_2	2	2	2	1	23_2_1	0	-1	0	1	3.33948111534	19.0	221.0	None	None	0
3.0.1	2019_Mar_03_1648	s	s	4	2	SIC	81	ABS	0	0	1	3	24_1_3	NA	NA	0	1	9.49047589302	None	None	None	None	1
3.0.1	2019_Mar_03_1648	s	s	4	2	SIC	82	3_1	3	1	3	2	23_3_2	0	1	1	0	2.057502985	69.0	232.0	70.0	217.0	1
3.0.1	2019_Mar_03_1648	s	s	4	2	SIC	83	4_4	4	4	2	3	23_2_3	2	1	1	0	0.490094900131	-357.0	-137.0	-352.0	-138.0	1
3.0.1	2019_Mar_03_1648	s	s	4	2	SIC	84	ABS	0	0	1	2	24_1_2	NA	NA	0	1	9.89591288567	None	None	None	None	1
3.0.1	2019_Mar_03_1648	s	s	4	2	SIC	85	2_3	2	3	3	1	23_3_1	1	2	1	0	0.508342027664	228.0	-24.0	232.0	-24.0	1
3.0.1	2019_Mar_03_1648	s	s	4	2	SIC	86	3_3	3	3	4	2	23_4_2	-1	1	1	0	0.422837972641	58.0	10.0	60.0	8.0	1
3.0.1	2019_Mar_03_1648	s	s	4	2	SIC	87	1_1	1	1	1	2	23_1_2	0	1	1	0	0.52316904068	61.0	-10.0	61.0	-9.0	1
3.0.1	2019_Mar_03_1648	s	s	4	2	SIC	88	4_3	4	3	3	3	23_3_3	1	0	1	0	0.437394142151	72.0	-148.0	73.0	-152.0	1
3.0.1	2019_Mar_03_1648	s	s	4	2	SIC	89	3_2	3	2	2	1	23_2_1	1	-1	1	0	0.446274995804	-342.0	-27.0	-340.0	-25.0	1
3.0.1	2019_Mar_03_1648	s	s	4	2	SIC	90	ABS	0	0	2	2	24_2_2	NA	NA	0	1	6.81193184853	None	None	None	None	1
3.0.1	2019_Mar_03_1648	s	s	4	2	SIC	91	ABS	0	0	3	1	24_3_1	NA	NA	0	1	4.24906206131	None	None	None	None	1
3.0.1	2019_Mar_03_1648	s	s	4	2	SIC	92	4_2	4	2	1	4	23_1_4	3	2	1	0	0.410980939865	370.0	-192.0	369.0	-189.0	1
3.0.1	2019_Mar_03_1648	s	s	4	2	SIC	93	2_2	2	2	3	3	23_3_3	1	1	1	0	0.509149074554	348.0	98.0	344.0	96.0	1
3.0.1	2019_Mar_03_1648	s	s	4	2	SIC	94	ABS	0	0	1	2	24_1_2	NA	NA	0	1	14.6095941067	None	None	None	None	1
3.0.1	2019_Mar_03_1648	s	s	4	2	SIC	95	1_2	1	2	3	1	23_3_1	2	-1	1	0	0.657959938049	107.0	332.0	111.0	331.0	1
3.0.1	2019_Mar_03_1648	s	s	4	2	SIC	96	ABS	0	0	1	3	24_1_3	NA	NA	0	1	7.1886370182	None	None	None	None	1
3.0.1	2019_Mar_03_1648	s	s	4	2	SIC	97	3_2	3	2	1	1	23_1_1	2	-1	1	0	0.490021944046	188.0	218.0	193.0	215.0	1
3.0.1	2019_Mar_03_1648	s	s	4	2	SIC	98	1_3	1	3	2	4	23_2_4	1	-1	1	0	0.484826087952	-225.0	-192.0	-223.0	-189.0	1
3.0.1	2019_Mar_03_1648	s	s	4	2	SIC	99	4_3	4	3	1	1	23_1_1	3	2	1	0	0.363945960999	-210.0	-170.0	-206.0	-172.0	1
3.0.1	2019_Mar_03_1648	s	s	4	2	SIC	100	3_2	3	2	4	4	23_4_4	-1	2	1	0	0.39932513237	-13.0	313.0	-14.0	309.0	1
3.0.1	2019_Mar_03_1648	s	s	4	2	SIC	101	1_2	1	2	2	2	23_2_2	1	0	1	0	1.91669607162	417.0	154.0	417.0	148.0	1
3.0.1	2019_Mar_03_1648	s	s	4	2	SIC	102	ABS	0	0	1	1	24_1_1	NA	NA	0	1	4.09749102592	None	None	None	None	1
3.0.1	2019_Mar_03_1648	s	s	4	2	SIC	103	3_1	3	1	2	3	23_2_3	1	2	1	0	0.67262506485	218.0	-352.0	221.0	-354.0	1
3.0.1	2019_Mar_03_1648	s	s	4	2	SIC	104	4_1	4	1	1	4	23_1_4	3	3	1	0	1.12840414047	-195.0	19.0	-194.0	14.0	1
3.0.1	2019_Mar_03_1648	s	s	4	2	SIC	105	ABS	0	0	3	1	24_3_1	NA	NA	0	1	4.4361550808	None	None	None	None	1
3.0.1	2019_Mar_03_1648	s	s	4	2	SIC	106	4_2	4	2	1	3	23_1_3	3	1	1	0	0.422762155533	511.0	241.0	506.0	234.0	1
3.0.1	2019_Mar_03_1648	s	s	4	2	SIC	107	ABS	0	0	3	1	24_3_1	NA	NA	0	1	3.81451296806	None	None	None	None	1
3.0.1	2019_Mar_03_1648	s	s	4	2	SIC	108	2_1	2	1	3	2	23_3_2	1	1	1	0	0.802068948746	437.0	387.0	437.0	377.0	1
3.0.1	2019_Mar_03_1648	s	s	4	2	SIC	109	ABS	0	0	4	4	24_4_4	NA	NA	0	1	1.34500694275	None	None	None	None	1
3.0.1	2019_Mar_03_1648	s	s	4	2	SIC	110	ABS	0	0	2	3	24_2_3	NA	NA	0	1	8.97138786316	None	None	None	None	1
3.0.1	2019_Mar_03_1648	s	s	4	2	SIC	111	2_2	2	2	2	3	23_2_3	0	1	1	0	1.77528095245	-254.0	-378.0	-249.0	-374.0	1
3.0.1	2019_Mar_03_1648	s	s	4	2	SIC	112	ABS	0	0	4	2	24_4_2	NA	NA	0	1	8.38332796097	None	None	None	None	1
3.0.1	2019_Mar_03_1648	s	s	4	2	SIC	113	ABS	0	0	1	3	24_1_3	NA	NA	0	1	8.89567303658	None	None	None	None	1
3.0.1	2019_Mar_03_1648	s	s	4	2	SIC	114	ABS	0	0	3	4	24_3_4	NA	NA	0	1	2.88594913483	None	None	None	None	1
3.0.1	2019_Mar_03_1648	s	s	4	2	SIC	115	1_1	1	1	3	3	23_3_3	2	2	1	0	0.568060159683	-536.0	128.0	-537.0	130.0	1
3.0.1	2019_Mar_03_1648	s	s	4	2	SIC	116	1_1	1	1	1	3	23_1_3	0	2	1	0	1.65768098831	-102.0	-216.0	-100.0	-208.0	1
3.0.1	2019_Mar_03_1648	s	s	4	2	SIC	117	ABS	0	0	3	1	24_3_1	NA	NA	0	1	5.31531596184	None	None	None	None	1
3.0.1	2019_Mar_03_1648	s	s	4	2	SIC	118	4_2	4	2	3	2	23_3_2	1	0	1	0	0.415910959244	-194.0	229.0	-197.0	222.0	1
3.0.1	2019_Mar_03_1648	s	s	4	2	SIC	119	ABS	0	0	2	4	24_2_4	NA	NA	0	1	4.69497990608	None	None	None	None	1
3.0.1	2019_Mar_03_1648	s	s	4	2	SIC	120	1_4	1	4	1	3	23_1_3	0	1	1	0	0.834367990494	-102.0	275.0	-96.0	267.0	1
3.0.1	2019_Mar_03_1648	s	s	4	2	SIC	121	ABS	0	0	2	2	24_2_2	NA	NA	0	1	6.57370400429	None	None	None	None	1
3.0.1	2019_Mar_03_1648	s	s	4	2	SIC	122	ABS	0	0	2	1	24_2_1	NA	NA	0	1	5.80227780342	None	None	None	None	1
3.0.1	2019_Mar_03_1648	s	s	4	2	SIC	123	1_2	1	2	2	3	23_2_3	1	1	1	0	1.02546691895	74.0	-95.0	74.0	-97.0	1
3.0.1	2019_Mar_03_1648	s	s	4	2	SIC	124	ABS	0	0	3	2	24_3_2	NA	NA	0	1	10.1844489574	None	None	None	None	1
3.0.1	2019_Mar_03_1648	s	s	4	2	SIC	125	2_3	2	3	1	3	23_1_3	-1	0	1	0	10.6196141243	322.0	-112.0	323.0	-115.0	1
3.0.1	2019_Mar_03_1648	s	s	4	2	SIC	126	ABS	0	0	1	4	24_1_4	NA	NA	0	1	2.82191801071	None	None	None	None	1
3.0.1	2019_Mar_03_1648	s	s	4	2	SIC	127	4_3	4	3	4	2	23_4_2	0	1	1	0	3.14240908623	-303.0	177.0	-298.0	177.0	1
3.0.1	2019_Mar_03_1648	s	s	4	2	SIC	128	4_3	4	3	3	4	23_3_4	1	-1	1	0	0.496119976044	-281.0	220.0	-286.0	225.0	1
3.0.1	2019_Mar_03_1648	s	s	4	2	SIC	129	3_1	3	1	4	1	23_4_1	-1	0	1	0	0.449253082275	-387.0	41.0	-385.0	38.0	1
3.0.1	2019_Mar_03_1648	s	s	4	2	SIC	130	ABS	0	0	1	2	24_1_2	NA	NA	0	1	8.43590307236	None	None	None	None	1
3.0.1	2019_Mar_03_1648	s	s	4	2	SIC	131	1_2	1	2	1	1	23_1_1	0	-1	1	0	2.42883491516	430.0	-181.0	429.0	-186.0	1
3.0.1	2019_Mar_03_1648	s	s	4	2	SIC	132	ABS	0	0	1	4	24_1_4	NA	NA	0	1	5.40950107574	None	None	None	None	1
3.0.1	2019_Mar_03_1648	s	s	4	2	SIC	133	1_2	1	2	3	2	23_3_2	2	0	1	0	0.473046064377	-525.0	147.0	-533.0	146.0	1
3.0.1	2019_Mar_03_1648	s	s	4	2	SIC	134	1_2	1	2	1	3	23_1_3	0	1	1	0	3.2267780304	-309.0	-311.0	-309.0	-314.0	1
3.0.1	2019_Mar_03_1648	s	s	4	2	SIC	135	ABS	0	0	3	4	24_3_4	NA	NA	0	1	3.86224484444	None	None	None	None	1
3.0.1	2019_Mar_03_1648	s	s	4	2	SIC	136	ABS	0	0	2	4	24_2_4	NA	NA	0	1	5.40951681137	None	None	None	None	1
3.0.1	2019_Mar_03_1648	s	s	4	2	SIC	137	ABS	0	0	1	4	24_1_4	NA	NA	0	1	3.75407099724	None	None	None	None	1
3.0.1	2019_Mar_03_1648	s	s	4	2	SIC	138	ABS	0	0	1	2	24_1_2	NA	NA	0	1	19.8688111305	None	None	None	None	1
3.0.1	2019_Mar_03_1648	s	s	4	2	SIC	139	3_3	3	3	2	1	23_2_1	1	2	1	0	0.523452043533	285.0	-300.0	290.0	-305.0	1
3.0.1	2019_Mar_03_1648	s	s	4	2	SIC	140	ABS	0	0	3	4	24_3_4	NA	NA	0	1	2.98661398888	None	None	None	None	1
3.0.1	2019_Mar_03_1648	s	s	4	2	SIC	141	4_1	4	1	3	4	23_3_4	1	3	1	0	0.533578157425	-533.0	-81.0	-537.0	-84.0	1
3.0.1	2019_Mar_03_1648	s	s	4	2	SIC	142	ABS	0	0	4	3	24_4_3	NA	NA	0	1	5.75549697876	None	None	None	None	1
3.0.1	2019_Mar_03_1648	s	s	4	2	SIC	143	2_4	2	4	3	2	23_3_2	1	2	1	0	0.516803026199	-320.0	-304.0	-312.0	-304.0	1
3.0.1	2019_Mar_03_1648	s	s	4	2	SIC	144	2_2	2	2	4	1	23_4_1	2	-1	1	0	0.390378952026	-529.0	-31.0	-528.0	-31.0	1
3.0.1	2019_Mar_03_1648	s	s	4	2	SIC	145	1_2	1	2	4	2	23_4_2	3	0	1	0	0.434484004974	-450.0	-239.0	-458.0	-234.0	1
3.0.1	2019_Mar_03_1648	s	s	4	2	SIC	146	3_3	3	3	2	3	23_2_3	1	0	1	0	0.697350978851	439.0	-19.0	442.0	-22.0	1
3.0.1	2019_Mar_03_1648	s	s	4	2	SIC	147	ABS	0	0	3	2	24_3_2	NA	NA	0	1	6.91253900528	None	None	None	None	1
3.0.1	2019_Mar_03_1648	s	s	4	2	SIC	148	ABS	0	0	1	4	24_1_4	NA	NA	0	1	2.23890185356	None	None	None	None	1
3.0.1	2019_Mar_03_1648	s	s	4	2	SIC	149	ABS	0	0	3	2	24_3_2	NA	NA	0	1	6.57669305801	None	None	None	None	1
3.0.1	2019_Mar_03_1648	s	s	4	2	SIC	150	3_2	3	2	2	4	23_2_4	1	2	1	0	0.501732110977	213.0	63.0	210.0	61.0	1
3.0.1	2019_Mar_03_1648	s	s	4	2	SIC	151	ABS	0	0	1	3	24_1_3	NA	NA	0	1	6.87956213951	None	None	None	None	1
3.0.1	2019_Mar_03_1648	s	s	4	2	SIC	152	ABS	0	0	1	4	24_1_4	NA	NA	0	1	2.577947855	None	None	None	None	1
3.0.1	2019_Mar_03_1648	s	s	4	2	SIC	153	ABS	0	0	3	3	24_3_3	NA	NA	0	1	6.40233016014	None	None	None	None	1
3.0.1	2019_Mar_03_1648	s	s	4	2	SIC	154	2_4	2	4	3	1	23_3_1	1	3	1	0	0.716852903366	-529.0	-106.0	-541.0	-104.0	1
3.0.1	2019_Mar_03_1648	s	s	4	2	SIC	155	1_4	1	4	2	1	23_2_1	1	3	1	0	0.74545788765	431.0	-163.0	432.0	-167.0	1
3.0.1	2019_Mar_03_1648	s	s	4	2	SIC	156	ABS	0	0	4	1	24_4_1	NA	NA	0	1	2.10462594032	None	None	None	None	1
3.0.1	2019_Mar_03_1648	s	s	4	2	SIC	157	ABS	0	0	2	1	24_2_1	NA	NA	0	1	4.24998807907	None	None	None	None	1
3.0.1	2019_Mar_03_1648	s	s	4	2	SIC	158	4_4	4	4	3	1	23_3_1	1	3	1	0	0.42774105072	-520.0	-139.0	-522.0	-139.0	1
3.0.1	2019_Mar_03_1648	s	s	4	2	SIC	159	1_1	1	1	3	2	23_3_2	2	1	1	0	0.563895940781	142.0	257.0	136.0	260.0	1
3.0.1	2019_Mar_03_1648	s	s	4	2	SIC	160	3_2	3	2	4	3	23_4_3	-1	1	1	0	0.486397027969	-72.0	-336.0	-71.0	-335.0	1
3.0.1	2019_Mar_03_1648	s	s	4	2	SIC	161	1_1	1	1	4	1	23_4_1	3	0	1	0	0.410958051682	-146.0	-237.0	-138.0	-234.0	1
3.0.1	2019_Mar_03_1648	s	s	4	2	SIC	162	3_4	3	4	1	4	23_1_4	2	0	1	0	0.610925912857	389.0	-407.0	384.0	-412.0	1
3.0.1	2019_Mar_03_1648	s	s	4	2	SIC	163	ABS	0	0	2	1	24_2_1	NA	NA	0	1	3.89228510857	None	None	None	None	1
3.0.1	2019_Mar_03_1648	s	s	4	2	SIC	164	4_4	4	4	1	3	23_1_3	3	1	1	0	0.410951852798	-151.0	-283.0	-143.0	-274.0	1
3.0.1	2019_Mar_03_1648	s	s	4	2	SIC	165	1_1	1	1	4	3	23_4_3	3	2	1	0	0.383932828903	168.0	-83.0	166.0	-85.0	1
3.0.1	2019_Mar_03_1648	s	s	4	2	SIC	166	ABS	0	0	3	4	24_3_4	NA	NA	0	1	3.42614388466	None	None	None	None	1
3.0.1	2019_Mar_03_1648	s	s	4	2	SIC	167	ABS	0	0	2	1	24_2_1	NA	NA	0	1	2.54857492447	None	None	None	None	1
3.0.1	2019_Mar_03_1648	s	s	4	2	SIC	168	1_3	1	3	2	3	23_2_3	1	0	1	0	8.09094810486	-480.0	264.0	-477.0	261.0	1
3.0.1	2019_Mar_03_1648	s	s	4	2	SIC	169	ABS	0	0	4	3	24_4_3	NA	NA	0	1	7.40884804726	None	None	None	None	1
3.0.1	2019_Mar_03_1648	s	s	4	2	SIC	170	4_1	4	1	2	2	23_2_2	2	1	1	0	0.56940984726	-264.0	-201.0	-272.0	-206.0	1
3.0.1	2019_Mar_03_1648	s	s	4	2	SIC	171	4_4	4	4	2	2	23_2_2	2	2	1	0	0.416344881058	-269.0	-49.0	-278.0	-51.0	1
3.0.1	2019_Mar_03_1648	s	s	4	2	SIC	172	ABS	0	0	2	4	24_2_4	NA	NA	0	1	6.64890003204	None	None	None	None	1
3.0.1	2019_Mar_03_1648	s	s	4	2	SIC	173	2_4	2	4	1	3	23_1_3	-1	1	1	0	2.12113618851	405.0	378.0	402.0	369.0	1
3.0.1	2019_Mar_03_1648	s	s	4	2	SIC	174	ABS	0	0	4	1	24_4_1	NA	NA	0	1	6.70316100121	None	None	None	None	1
3.0.1	2019_Mar_03_1648	s	s	4	2	SIC	175	1_3	1	3	4	2	23_4_2	3	1	1	0	0.505074977875	-526.0	-243.0	-516.0	-237.0	1
3.0.1	2019_Mar_03_1648	s	s	4	2	SIC	176	ABS	0	0	4	2	24_4_2	NA	NA	0	1	10.9870519638	None	None	None	None	1
3.0.1	2019_Mar_03_1648	s	s	4	2	SIC	177	ABS	0	0	2	4	24_2_4	NA	NA	0	1	8.44169998169	None	None	None	None	1
3.0.1	2019_Mar_03_1648	s	s	4	2	SIC	178	3_1	3	1	1	4	23_1_4	2	3	1	0	0.704892873764	497.0	82.0	492.0	77.0	1
3.0.1	2019_Mar_03_1648	s	s	4	2	SIC	179	3_1	3	1	1	3	23_1_3	2	2	1	0	0.504990100861	86.0	-132.0	80.0	-135.0	1
3.0.1	2019_Mar_03_1648	s	s	4	2	SIC	180	4_4	4	4	1	4	23_1_4	3	0	1	0	0.505028963089	487.0	-59.0	482.0	-60.0	1
3.0.1	2019_Mar_03_1648	s	s	4	2	SIC	181	4_4	4	4	2	4	23_2_4	2	0	1	0	0.437381982803	-197.0	387.0	-204.0	384.0	1
3.0.1	2019_Mar_03_1648	s	s	4	2	SIC	182	1_2	1	2	4	4	23_4_4	3	2	1	0	0.628625869751	-216.0	-264.0	-222.0	-255.0	1
3.0.1	2019_Mar_03_1648	s	s	4	2	SIC	183	ABS	0	0	2	3	24_2_3	NA	NA	0	1	16.733905077	None	None	None	None	1
3.0.1	2019_Mar_03_1648	s	s	4	2	SIC	184	ABS	0	0	3	2	24_3_2	NA	NA	0	1	9.71406793594	None	None	None	None	1
3.0.1	2019_Mar_03_1648	s	s	4	2	SIC	185	ABS	0	0	1	3	24_1_3	NA	NA	0	1	18.9743289948	None	None	None	None	1
3.0.1	2019_Mar_03_1648	s	s	4	2	SIC	186	ABS	0	0	4	4	24_4_4	NA	NA	0	1	3.19839215279	None	None	None	None	1
3.0.1	2019_Mar_03_1648	s	s	4	2	SIC	187	ABS	0	0	1	3	24_1_3	NA	NA	0	1	13.8944990635	None	None	None	None	1
3.0.1	2019_Mar_03_1648	s	s	4	2	SIC	188	3_1	3	1	1	2	23_1_2	2	1	1	0	0.560734987259	-148.0	117.0	-145.0	125.0	1
3.0.1	2019_Mar_03_1648	s	s	4	2	SIC	189	4_2	4	2	4	1	23_4_1	0	-1	1	0	1.19966506958	-394.0	121.0	-389.0	116.0	1
3.0.1	2019_Mar_03_1648	s	s	4	2	SIC	190	ABS	0	0	3	3	24_3_3	NA	NA	0	1	5.82116389275	None	None	None	None	1
3.0.1	2019_Mar_03_1648	s	s	4	2	SIC	191	3_3	3	3	2	2	23_2_2	1	1	1	0	0.519782066345	352.0	110.0	349.0	104.0	1
3.0.1	2019_Mar_03_1648	s	s	4	2	SIC	192	2_1	2	1	1	1	23_1_1	-1	0	1	0	1.73997592926	315.0	-166.0	318.0	-159.0	1
3.0.1	2019_Mar_03_1648	s	s	4	2	SIC	193	1_4	1	4	4	3	23_4_3	3	1	1	0	0.410983085632	-226.0	-219.0	-230.0	-228.0	1
3.0.1	2019_Mar_03_1648	s	s	4	2	SIC	194	ABS	0	0	2	2	24_2_2	NA	NA	0	1	8.53146290779	None	None	None	None	1
3.0.1	2019_Mar_03_1648	s	s	4	2	SIC	195	ABS	0	0	3	2	24_3_2	NA	NA	0	1	10.3609058857	None	None	None	None	1
3.0.1	2019_Mar_03_1648	s	s	4	2	SIC	196	ABS	0	0	1	2	24_1_2	NA	NA	0	1	7.9734377861	None	None	None	None	1
3.0.1	2019_Mar_03_1648	s	s	4	2	SIC	197	3_4	3	4	1	2	23_1_2	2	2	1	0	0.768424987793	-403.0	351.0	-411.0	345.0	1
3.0.1	2019_Mar_03_1648	s	s	4	2	SIC	198	2_1	2	1	4	4	23_4_4	2	3	1	0	0.422685146332	-302.0	-312.0	-304.0	-310.0	1
3.0.1	2019_Mar_03_1648	s	s	4	2	SIC	199	ABS	0	0	2	1	24_2_1	NA	NA	0	1	4.04512619972	None	None	None	None	1
3.0.1	2019_Mar_03_1648	s	s	4	2	SIC	200	3_1	3	1	3	3	23_3_3	0	2	1	0	1.85755491257	-25.0	283.0	-25.0	285.0	1
3.0.1	2019_Mar_03_1648	s	s	4	2	SIC	201	4_3	4	3	1	3	23_1_3	3	0	1	0	0.399218082428	234.0	192.0	228.0	194.0	1
3.0.1	2019_Mar_03_1648	s	s	4	2	SIC	202	ABS	0	0	2	1	24_2_1	NA	NA	0	1	5.60289692879	None	None	None	None	1
3.0.1	2019_Mar_03_1648	s	s	4	2	SIC	203	ABS	0	0	4	1	24_4_1	NA	NA	0	1	4.48033809662	None	None	None	None	1
3.0.1	2019_Mar_03_1648	s	s	4	2	SIC	204	ABS	0	0	3	2	24_3_2	NA	NA	0	1	4.97726511955	None	None	None	None	1
3.0.1	2019_Mar_03_1648	s	s	4	2	SIC	205	ABS	0	0	4	3	24_4_3	NA	NA	0	1	15.7267739773	None	None	None	None	1
3.0.1	2019_Mar_03_1648	s	s	4	2	SIC	206	ABS	0	0	4	3	24_4_3	NA	NA	0	1	12.4138679504	None	None	None	None	1
3.0.1	2019_Mar_03_1648	s	s	4	2	SIC	207	3_1	3	1	1	1	23_1_1	2	0	1	0	0.672626018524	265.0	-393.0	258.0	-392.0	1
3.0.1	2019_Mar_03_1648	s	s	4	2	SIC	208	2_4	2	4	2	1	23_2_1	0	3	1	0	0.928421020508	-127.0	354.0	-120.0	358.0	1
3.0.1	2019_Mar_03_1648	s	s	4	2	SIC	209	2_2	2	2	1	3	23_1_3	-1	1	1	0	3.42194390297	285.0	-272.0	280.0	-274.0	1
3.0.1	2019_Mar_03_1648	s	s	4	2	SIC	210	1_2	1	2	4	1	23_4_1	3	-1	1	0	0.415575027466	450.0	24.0	442.0	30.0	1
3.0.1	2019_Mar_03_1648	s	s	4	2	SIC	211	1_2	1	2	2	4	23_2_4	1	2	1	0	0.528622865677	329.0	-243.0	322.0	-247.0	1
3.0.1	2019_Mar_03_1648	s	s	4	2	SIC	212	ABS	0	0	4	4	24_4_4	NA	NA	0	1	2.7307369709	None	None	None	None	1
3.0.1	2019_Mar_03_1648	s	s	4	2	SIC	213	1_4	1	4	3	4	23_3_4	2	0	1	0	0.744293928146	193.0	-119.0	194.0	-115.0	1
3.0.1	2019_Mar_03_1648	s	s	4	2	SIC	214	3_1	3	1	4	3	23_4_3	-1	2	1	0	0.622858047485	-398.0	371.0	-398.0	373.0	1
3.0.1	2019_Mar_03_1648	s	s	4	2	SIC	215	1_1	1	1	2	4	23_2_4	1	3	1	0	0.457966804504	261.0	-197.0	262.0	-200.0	1
3.0.1	2019_Mar_03_1648	s	s	4	2	SIC	216	2_3	2	3	4	1	23_4_1	2	2	1	0	0.316886901855	196.0	38.0	196.0	41.0	1
3.0.1	2019_Mar_03_1648	s	s	4	2	SIC	217	4_3	4	3	2	4	23_2_4	2	-1	1	0	0.333554029465	483.0	248.0	480.0	246.0	1
3.0.1	2019_Mar_03_1648	s	s	4	2	SIC	218	ABS	0	0	4	1	24_4_1	NA	NA	0	1	2.12811517715	None	None	None	None	1
3.0.1	2019_Mar_03_1648	s	s	4	2	SIC	219	2_2	2	2	4	4	23_4_4	2	2	1	0	0.422755002975	332.0	383.0	338.0	375.0	1
3.0.1	2019_Mar_03_1648	s	s	4	2	SIC	220	ABS	0	0	1	1	24_1_1	NA	NA	0	1	2.43785595894	None	None	None	None	1
3.0.1	2019_Mar_03_1648	s	s	4	2	SIC	221	ABS	0	0	2	3	24_2_3	NA	NA	0	1	5.63582897186	None	None	None	None	1
3.0.1	2019_Mar_03_1648	s	s	4	2	SIC	222	ABS	0	0	2	4	24_2_4	NA	NA	0	1	3.12783002853	None	None	None	None	1
3.0.1	2019_Mar_03_1648	s	s	4	2	SIC	223	ABS	0	0	3	4	24_3_4	NA	NA	0	1	1.7752559185	None	None	None	None	1
3.0.1	2019_Mar_03_1648	s	s	4	2	SIC	224	ABS	0	0	3	3	24_3_3	NA	NA	0	1	8.24390506744	None	None	None	None	1
3.0.1	2019_Mar_03_1648	s	s	4	2	SIC	225	3_1	3	1	2	1	23_2_1	1	0	1	0	0.65119099617	-143.0	-294.0	-137.0	-289.0	1
3.0.1	2019_Mar_03_1648	s	s	4	2	SIC	226	ABS	0	0	2	2	24_2_2	NA	NA	0	1	6.50033998489	None	None	None	None	1
3.0.1	2019_Mar_03_1648	s	s	4	2	SIC	227	3_3	3	3	2	4	23_2_4	1	-1	1	0	0.670154094696	514.0	224.0	515.0	218.0	1
3.0.1	2019_Mar_03_1648	s	s	4	2	SIC	228	1_3	1	3	3	1	23_3_1	2	2	1	0	0.516798019409	327.0	-211.0	326.0	-209.0	1
3.0.1	2019_Mar_03_1648	s	s	4	2	SIC	229	1_3	1	3	2	2	23_2_2	1	1	1	0	1.17587995529	-30.0	-237.0	-36.0	-238.0	1
3.0.1	2019_Mar_03_1648	s	s	4	2	SIC	230	4_1	4	1	1	2	23_1_2	3	1	1	0	0.393638134003	-27.0	-388.0	-24.0	-397.0	1
3.0.1	2019_Mar_03_1648	s	s	4	2	SIC	231	2_4	2	4	4	3	23_4_3	2	1	1	0	0.451708078384	-384.0	-17.0	-382.0	-16.0	1
3.0.1	2019_Mar_03_1648	s	s	4	2	SIC	232	ABS	0	0	1	1	24_1_1	NA	NA	0	1	2.76362109184	None	None	None	None	1
3.0.1	2019_Mar_03_1648	s	s	4	2	SIC	233	2_4	2	4	4	4	23_4_4	2	0	1	0	0.462138175964	143.0	-373.0	143.0	-376.0	1
3.0.1	2019_Mar_03_1648	s	s	4	2	SIC	234	3_4	3	4	2	2	23_2_2	1	2	1	0	0.510866880417	-167.0	-8.0	-168.0	-10.0	1
3.0.1	2019_Mar_03_1648	s	s	4	2	SIC	235	2_2	2	2	1	4	23_1_4	-1	2	1	0	0.98727107048	-350.0	351.0	-350.0	351.0	1
3.0.1	2019_Mar_03_1648	s	s	4	2	SIC	236	2_2	2	2	3	4	23_3_4	1	2	1	0	0.427956104279	-306.0	-77.0	-302.0	-84.0	1
3.0.1	2019_Mar_03_1648	s	s	4	2	SIC	237	ABS	0	0	2	2	24_2_2	NA	NA	0	1	10.1021161079	None	None	None	None	1
3.0.1	2019_Mar_03_1648	s	s	4	2	SIC	238	4_1	4	1	3	3	23_3_3	1	2	1	0	0.4462890625	-78.0	400.0	-75.0	400.0	1
3.0.1	2019_Mar_03_1648	s	s	4	2	SIC	239	ABS	0	0	3	1	24_3_1	NA	NA	0	1	1.95173001289	None	None	None	None	1
3.0.1	2019_Mar_03_1648	s	s	4	2	SIC	240	ABS	0	0	3	1	24_3_1	NA	NA	0	1	2.6925637722	None	None	None	None	1
3.0.1	2019_Mar_03_1648	s	s	4	2	SIC	241	1_4	1	4	2	3	23_2_3	1	1	1	0	0.73143696785	-342.0	-49.0	-334.0	-44.0	1
3.0.1	2019_Mar_03_1648	s	s	4	2	SIC	242	ABS	0	0	2	4	24_2_4	NA	NA	0	1	2.44567394257	None	None	None	None	1
3.0.1	2019_Mar_03_1648	s	s	4	2	SIC	243	ABS	0	0	4	2	24_4_2	NA	NA	0	1	4.22448897362	None	None	None	None	1
3.0.1	2019_Mar_03_1648	s	s	4	2	SIC	244	4_3	4	3	3	1	23_3_1	1	2	1	0	0.425624847412	-195.0	43.0	-193.0	38.0	1
3.0.1	2019_Mar_03_1648	s	s	4	2	SIC	245	3_4	3	4	2	4	23_2_4	1	0	1	0	0.549556016922	-376.0	-382.0	-377.0	-385.0	1
3.0.1	2019_Mar_03_1648	s	s	4	2	SIC	246	2_1	2	1	2	3	23_2_3	0	2	1	0	2.06164598465	38.0	237.0	46.0	245.0	1
3.0.1	2019_Mar_03_1648	s	s	4	2	SIC	247	ABS	0	0	3	3	24_3_3	NA	NA	0	1	4.04549694061	None	None	None	None	1
3.0.1	2019_Mar_03_1648	s	s	4	2	SIC	248	ABS	0	0	1	3	24_1_3	NA	NA	0	1	6.5974009037	None	None	None	None	1
3.0.1	2019_Mar_03_1648	s	s	4	2	SIC	249	ABS	0	0	1	2	24_1_2	NA	NA	0	1	6.02566099167	None	None	None	None	1
3.0.1	2019_Mar_03_1648	s	s	4	2	SIC	250	3_4	3	4	4	4	23_4_4	-1	0	1	0	0.658004045486	-95.0	196.0	-90.0	186.0	1
3.0.1	2019_Mar_03_1648	s	s	4	2	SIC	251	2_3	2	3	1	1	23_1_1	-1	2	1	0	0.576049804688	-305.0	37.0	-311.0	29.0	1
3.0.1	2019_Mar_03_1648	s	s	4	2	SIC	252	ABS	0	0	2	3	24_2_3	NA	NA	0	1	4.37732195854	None	None	None	None	1
3.0.1	2019_Mar_03_1648	s	s	4	2	SIC	253	ABS	0	0	4	4	24_4_4	NA	NA	0	1	1.77530503273	None	None	None	None	1
3.0.1	2019_Mar_03_1648	s	s	4	2	SIC	254	ABS	0	0	4	1	24_4_1	NA	NA	0	1	1.9986770153	None	None	None	None	1
3.0.1	2019_Mar_03_1648	s	s	4	2	SIC	255	2_1	2	1	2	4	23_2_4	0	3	1	0	0.736122131348	431.0	329.0	427.0	327.0	1
3.0.1	2019_Mar_03_1648	s	s	4	2	SIC	256	1_3	1	3	4	1	23_4_1	3	2	1	0	0.422879934311	-525.0	129.0	-526.0	128.0	1
3.0.1	2019_Mar_03_1648	s	s	4	2	SIC	257	3_3	3	3	1	4	23_1_4	2	-1	1	0	0.439626932144	323.0	-383.0	322.0	-380.0	1
3.0.1	2019_Mar_03_1648	s	s	4	2	SIC	258	4_1	4	1	3	2	23_3_2	1	1	1	0	0.383063793182	236.0	246.0	231.0	242.0	1
3.0.1	2019_Mar_03_1648	s	s	4	2	SIC	259	ABS	0	0	3	3	24_3_3	NA	NA	0	1	8.91420793533	None	None	None	None	1
3.0.1	2019_Mar_03_1648	s	s	4	2	SIC	260	4_3	4	3	4	1	23_4_1	0	2	1	0	1.14015388489	-171.0	-277.0	-168.0	-272.0	1
3.0.1	2019_Mar_03_1648	s	s	4	2	SIC	261	ABS	0	0	1	4	24_1_4	NA	NA	0	1	4.11572194099	None	None	None	None	1
3.0.1	2019_Mar_03_1648	s	s	4	2	SIC	262	2_3	2	3	2	2	23_2_2	0	1	1	0	1.50300002098	-488.0	175.0	-490.0	169.0	1
3.0.1	2019_Mar_03_1648	s	s	4	2	SIC	263	ABS	0	0	2	1	24_2_1	NA	NA	0	1	3.16858506203	None	None	None	None	1
3.0.1	2019_Mar_03_1648	s	s	4	2	SIC	264	ABS	0	0	4	3	24_4_3	NA	NA	0	1	5.62113404274	None	None	None	None	1
3.0.1	2019_Mar_03_1648	s	s	4	2	SIC	265	4_2	4	2	3	3	23_3_3	1	1	1	0	0.458001852036	260.0	-324.0	251.0	-323.0	1
3.0.1	2019_Mar_03_1648	s	s	4	2	SIC	266	ABS	0	0	3	3	24_3_3	NA	NA	0	1	9.57796001434	None	None	None	None	1
3.0.1	2019_Mar_03_1648	s	s	4	2	SIC	267	ABS	0	0	3	3	24_3_3	NA	NA	0	1	8.65549302101	None	None	None	None	1
3.0.1	2019_Mar_03_1648	s	s	4	2	SIC	268	ABS	0	0	1	2	24_1_2	NA	NA	0	1	4.50875306129	None	None	None	None	1
3.0.1	2019_Mar_03_1648	s	s	4	2	SIC	269	3_4	3	4	1	1	23_1_1	2	3	1	0	0.457952976227	-429.0	40.0	-427.0	31.0	1
3.0.1	2019_Mar_03_1648	s	s	4	2	SIC	270	2_3	2	3	2	4	23_2_4	0	-1	1	0	0.599167108536	10.0	175.0	6.0	170.0	1
3.0.1	2019_Mar_03_1648	s	s	4	2	SIC	271	ABS	0	0	2	2	24_2_2	NA	NA	0	1	6.28287601471	None	None	None	None	1
3.0.1	2019_Mar_03_1648	s	s	4	2	SIC	272	3_1	3	1	4	4	23_4_4	-1	3	1	0	0.434905052185	-458.0	313.0	-461.0	310.0	1
3.0.1	2019_Mar_03_1648	s	s	4	2	SIC	273	ABS	0	0	2	2	24_2_2	NA	NA	0	1	9.94920802116	None	None	None	None	1
3.0.1	2019_Mar_03_1648	s	s	4	2	SIC	274	2_3	2	3	1	4	23_1_4	-1	-1	1	0	0.639596939087	-406.0	202.0	-400.0	202.0	1
3.0.1	2019_Mar_03_1648	s	s	4	2	SIC	275	ABS	0	0	2	1	24_2_1	NA	NA	0	1	4.08361887932	None	None	None	None	1
3.0.1	2019_Mar_03_1648	s	s	4	2	SIC	276	2_3	2	3	3	4	23_3_4	1	-1	1	0	0.509600877762	-245.0	89.0	-246.0	83.0	1
3.0.1	2019_Mar_03_1648	s	s	4	2	SIC	277	ABS	0	0	4	2	24_4_2	NA	NA	0	1	6.12685394287	None	None	None	None	1
3.0.1	2019_Mar_03_1648	s	s	4	2	SIC	278	2_1	2	1	4	2	23_4_2	2	1	1	0	0.427893877029	261.0	-183.0	260.0	-184.0	1
3.0.1	2019_Mar_03_1648	s	s	4	2	SIC	279	ABS	0	0	4	1	24_4_1	NA	NA	0	1	3.41595816612	None	None	None	None	1
3.0.1	2019_Mar_03_1648	s	s	4	2	SIC	280	ABS	0	0	2	2	24_2_2	NA	NA	0	1	6.82574796677	None	None	None	None	1
3.0.1	2019_Mar_03_1648	s	s	4	2	SIC	281	ABS	0	0	4	1	24_4_1	NA	NA	0	1	2.26042604446	None	None	None	None	1
3.0.1	2019_Mar_03_1648	s	s	4	2	SIC	282	ABS	0	0	1	1	24_1_1	NA	NA	0	1	3.73932790756	None	None	None	None	1
3.0.1	2019_Mar_03_1648	s	s	4	2	SIC	283	2_4	2	4	2	3	23_2_3	0	1	1	0	0.790175914764	-250.0	374.0	-252.0	364.0	1
3.0.1	2019_Mar_03_1648	s	s	4	2	SIC	284	2_3	2	3	2	1	23_2_1	0	2	1	0	1.44292902946	3.0	-335.0	-3.0	-331.0	1
3.0.1	2019_Mar_03_1648	s	s	4	2	SIC	285	2_3	2	3	4	4	23_4_4	2	-1	1	0	0.387427806854	-399.0	-342.0	-400.0	-344.0	1
3.0.1	2019_Mar_03_1648	s	s	4	2	SIC	286	4_1	4	1	1	3	23_1_3	3	2	1	0	0.367224931717	-397.0	-157.0	-395.0	-155.0	1
3.0.1	2019_Mar_03_1648	s	s	4	2	SIC	287	ABS	0	0	1	4	24_1_4	NA	NA	0	1	2.46916103363	None	None	None	None	1
3.0.1	2019_Mar_03_1648	s	s	4	2	SIC	288	3_4	3	4	2	1	23_2_1	1	3	1	0	0.481524944305	306.0	284.0	304.0	286.0	1
3.0.1	2019_Mar_03_1648	s	s	4	2	SIC	289	ABS	0	0	4	2	24_4_2	NA	NA	0	1	5.34175610542	None	None	None	None	1
3.0.1	2019_Mar_03_1648	s	s	4	2	SIC	290	ABS	0	0	3	1	24_3_1	NA	NA	0	1	2.71619105339	None	None	None	None	1
3.0.1	2019_Mar_03_1648	s	s	4	2	SIC	291	3_2	3	2	2	3	23_2_3	1	1	1	0	0.646203994751	-296.0	-89.0	-286.0	-91.0	1
3.0.1	2019_Mar_03_1648	s	s	4	2	SIC	292	2_1	2	1	4	3	23_4_3	2	2	1	0	0.46978187561	379.0	343.0	376.0	345.0	1
3.0.1	2019_Mar_03_1648	s	s	4	2	SIC	293	2_3	2	3	3	3	23_3_3	1	0	1	0	0.457914829254	346.0	-88.0	352.0	-85.0	1
3.0.1	2019_Mar_03_1648	s	s	4	2	SIC	294	3_2	3	2	4	1	23_4_1	-1	-1	1	0	0.319792985916	-277.0	-74.0	-268.0	-75.0	1
3.0.1	2019_Mar_03_1648	s	s	4	2	SIC	295	ABS	0	0	4	4	24_4_4	NA	NA	0	1	4.27692818642	None	None	None	None	1
3.0.1	2019_Mar_03_1648	s	s	4	2	SIC	296	3_3	3	3	1	1	23_1_1	2	2	1	0	0.469806909561	-350.0	-177.0	-353.0	-181.0	1
3.0.1	2019_Mar_03_1648	s	s	4	2	SIC	297	ABS	0	0	4	4	24_4_4	NA	NA	0	1	3.67164897919	None	None	None	None	1
3.0.1	2019_Mar_03_1648	s	s	4	2	SIC	298	ABS	0	0	4	4	24_4_4	NA	NA	0	1	3.21008706093	None	None	None	None	1
3.0.1	2019_Mar_03_1648	s	s	4	2	SIC	299	ABS	0	0	3	2	24_3_2	NA	NA	0	1	12.1474151611	None	None	None	None	1
3.0.1	2019_Mar_03_1648	s	s	4	2	SIC	300	ABS	0	0	4	3	24_4_3	NA	NA	0	1	6.57868504524	None	None	None	None	1
3.0.1	2019_Mar_03_1648	s	s	4	2	SIC	301	ABS	0	0	2	2	24_2_2	NA	NA	0	1	7.76585912704	None	None	None	None	1
3.0.1	2019_Mar_03_1648	s	s	4	2	SIC	302	ABS	0	0	1	4	24_1_4	NA	NA	0	1	2.88574409485	None	None	None	None	1
3.0.1	2019_Mar_03_1648	s	s	4	2	SIC	303	4_4	4	4	4	3	23_4_3	0	1	1	0	1.49585199356	497.0	-352.0	500.0	-358.0	1
3.0.1	2019_Mar_03_1648	s	s	4	2	SIC	304	4_2	4	2	2	4	23_2_4	2	2	1	0	0.422863006592	92.0	-204.0	82.0	-204.0	1
3.0.1	2019_Mar_03_1648	s	s	4	2	SIC	305	1_2	1	2	2	1	23_2_1	1	-1	1	0	1.49744820595	-400.0	-206.0	-398.0	-210.0	1
3.0.1	2019_Mar_03_1648	s	s	4	2	SIC	306	ABS	0	0	4	2	24_4_2	NA	NA	0	0	-1	None	None	None	None	-1
3.0.1	2019_Mar_03_1648	s	s	4	2	SIC	307	ABS	0	0	4	3	24_4_3	NA	NA	0	1	13.0893900394	None	None	None	None	1
3.0.1	2019_Mar_03_1648	s	s	4	2	SIC	308	2_1	2	1	1	3	23_1_3	-1	2	1	0	2.82196807861	492.0	-4.0	493.0	-7.0	1
3.0.1	2019_Mar_03_1648	s	s	4	2	SIC	309	3_3	3	3	4	4	23_4_4	-1	-1	1	0	0.450794935226	238.0	377.0	233.0	370.0	1
3.0.1	2019_Mar_03_1648	s	s	4	2	SIC	310	ABS	0	0	2	1	24_2_1	NA	NA	0	1	10.9842410088	None	None	None	None	1
3.0.1	2019_Mar_03_1648	s	s	4	2	SIC	311	ABS	0	0	2	1	24_2_1	NA	NA	0	1	4.04519200325	None	None	None	None	1
3.0.1	2019_Mar_03_1648	s	s	4	2	SIC	312	1_4	1	4	1	1	23_1_1	0	3	1	0	0.533755064011	70.0	-164.0	80.0	-164.0	1
3.0.1	2019_Mar_03_1648	s	s	4	2	SIC	313	3_2	3	2	1	3	23_1_3	2	1	1	0	0.493255138397	457.0	-149.0	452.0	-141.0	1
3.0.1	2019_Mar_03_1648	s	s	4	2	SIC	314	ABS	0	0	4	2	24_4_2	NA	NA	0	0	-1	None	None	None	None	-1
3.0.1	2019_Mar_03_1648	s	s	4	2	SIC	315	2_2	2	2	4	3	23_4_3	2	1	1	0	0.582000017166	76.0	-339.0	90.0	-334.0	1
3.0.1	2019_Mar_03_1648	s	s	4	2	SIC	316	ABS	0	0	4	3	24_4_3	NA	NA	0	1	4.36703014374	None	None	None	None	1
3.0.1	2019_Mar_03_1648	s	s	4	2	SIC	317	1_1	1	1	3	1	23_3_1	2	0	1	0	0.516814947128	21.0	-337.0	24.0	-338.0	1
3.0.1	2019_Mar_03_1648	s	s	4	2	SIC	318	3_2	3	2	2	2	23_2_2	1	0	1	0	0.402823925018	-145.0	-97.0	-137.0	-89.0	1
3.0.1	2019_Mar_03_1648	s	s	4	2	SIC	319	2_2	2	2	3	2	23_3_2	1	0	1	0	0.864518165588	394.0	372.0	402.0	374.0	1
3.0.1	2019_Mar_03_1648	s	s	4	2	SIC	320	ABS	0	0	4	3	24_4_3	NA	NA	0	1	9.07887887955	None	None	None	None	1
3.0.1	2019_Mar_03_1648	s	s	4	2	SIC	321	ABS	0	0	2	2	24_2_2	NA	NA	0	1	11.8430678844	None	None	None	None	1
3.0.1	2019_Mar_03_1648	s	s	4	2	SIC	322	3_3	3	3	3	1	23_3_1	0	2	1	0	0.954697132111	-469.0	216.0	-468.0	211.0	1
3.0.1	2019_Mar_03_1648	s	s	4	2	SIC	323	ABS	0	0	2	3	24_2_3	NA	NA	0	1	12.9998669624	None	None	None	None	1
3.0.1	2019_Mar_03_1648	s	s	4	2	SIC	324	ABS	0	0	4	1	24_4_1	NA	NA	0	1	1.45771408081	None	None	None	None	1
3.0.1	2019_Mar_03_1648	s	s	4	2	SIC	325	2_4	2	4	1	1	23_1_1	-1	3	1	0	0.469870090485	97.0	6.0	94.0	5.0	1
3.0.1	2019_Mar_03_1648	s	s	4	2	SIC	326	4_1	4	1	3	1	23_3_1	1	0	1	0	0.416275978088	395.0	305.0	400.0	311.0	1
3.0.1	2019_Mar_03_1648	s	s	4	2	SIC	327	3_3	3	3	1	2	23_1_2	2	1	1	0	0.470172166824	145.0	3.0	148.0	-4.0	1
3.0.1	2019_Mar_03_1648	s	s	4	2	SIC	328	ABS	0	0	3	4	24_3_4	NA	NA	0	1	1.65769410133	None	None	None	None	1
3.0.1	2019_Mar_03_1648	s	s	4	2	SIC	329	ABS	0	0	3	3	24_3_3	NA	NA	0	1	4.20980906487	None	None	None	None	1
3.0.1	2019_Mar_03_1648	s	s	4	2	SIC	330	3_2	3	2	1	4	23_1_4	2	2	1	0	0.508908987045	34.0	131.0	27.0	127.0	1
3.0.1	2019_Mar_03_1648	s	s	4	2	SIC	331	ABS	0	0	1	2	24_1_2	NA	NA	0	1	4.26008605957	None	None	None	None	1
3.0.1	2019_Mar_03_1648	s	s	4	2	SIC	332	3_4	3	4	1	3	23_1_3	2	1	1	0	0.453584909439	94.0	-156.0	94.0	-165.0	1
3.0.1	2019_Mar_03_1648	s	s	4	2	SIC	333	ABS	0	0	3	2	24_3_2	NA	NA	0	1	3.6285879612	None	None	None	None	1
3.0.1	2019_Mar_03_1648	s	s	4	2	SIC	334	1_4	1	4	1	2	23_1_2	0	2	1	0	0.815820932388	-43.0	342.0	-45.0	337.0	1
3.0.1	2019_Mar_03_1648	s	s	4	2	SIC	335	ABS	0	0	2	2	24_2_2	NA	NA	0	1	7.83508610725	None	None	None	None	1
3.0.1	2019_Mar_03_1648	s	s	4	2	SIC	336	3_4	3	4	3	3	23_3_3	0	1	1	0	0.587297916412	177.0	31.0	171.0	26.0	1
3.0.1	2019_Mar_03_1648	s	s	4	2	SIC	337	ABS	0	0	1	4	24_1_4	NA	NA	0	1	4.09212708473	None	None	None	None	1
3.0.1	2019_Mar_03_1648	s	s	4	2	SIC	338	ABS	0	0	4	1	24_4_1	NA	NA	0	1	1.81052207947	None	None	None	None	1
3.0.1	2019_Mar_03_1648	s	s	4	2	SIC	339	ABS	0	0	1	1	24_1_1	NA	NA	0	1	2.89551210403	None	None	None	None	1
3.0.1	2019_Mar_03_1648	s	s	4	2	SIC	340	1_3	1	3	3	4	23_3_4	2	-1	1	0	0.481582164764	-138.0	-232.0	-140.0	-238.0	1
3.0.1	2019_Mar_03_1648	s	s	4	2	SIC	341	ABS	0	0	1	1	24_1_1	NA	NA	0	1	2.46319484711	None	None	None	None	1
3.0.1	2019_Mar_03_1648	s	s	4	2	SIC	342	4_2	4	2	2	3	23_2_3	2	1	1	0	0.404414892197	-116.0	-85.0	-121.0	-91.0	1
3.0.1	2019_Mar_03_1648	s	s	4	2	SIC	343	4_3	4	3	1	2	23_1_2	3	1	1	0	0.634397029877	-460.0	-210.0	-463.0	-219.0	1
3.0.1	2019_Mar_03_1648	s	s	4	2	SIC	344	3_2	3	2	3	3	23_3_3	0	1	0	1	4.94299793243	287.0	112.0	None	None	0
3.0.1	2019_Mar_03_1648	s	s	4	2	SIC	345	4_2	4	2	1	1	23_1_1	3	-1	1	0	0.576035022736	246.0	-114.0	253.0	-117.0	1
3.0.1	2019_Mar_03_1648	s	s	4	2	SIC	346	ABS	0	0	2	2	24_2_2	NA	NA	0	1	8.00859999657	None	None	None	None	1
3.0.1	2019_Mar_03_1648	s	s	4	2	SIC	347	ABS	0	0	1	1	24_1_1	NA	NA	0	1	5.45649385452	None	None	None	None	1
3.0.1	2019_Mar_03_1648	s	s	4	2	SIC	348	ABS	0	0	3	2	24_3_2	NA	NA	0	1	14.3807909489	None	None	None	None	1
3.0.1	2019_Mar_03_1648	s	s	4	2	SIC	349	ABS	0	0	1	3	24_1_3	NA	NA	0	1	19.3463299274	None	None	None	None	1
3.0.1	2019_Mar_03_1648	s	s	4	2	SIC	350	ABS	0	0	1	3	24_1_3	NA	NA	0	1	8.54462599754	None	None	None	None	1
3.0.1	2019_Mar_03_1648	s	s	4	2	SIC	351	1_4	1	4	3	1	23_3_1	2	3	1	0	0.528923034668	-19.0	-381.0	-23.0	-386.0	1
3.0.1	2019_Mar_03_1648	s	s	4	2	SIC	352	ABS	0	0	2	3	24_2_3	NA	NA	0	1	8.38500094414	None	None	None	None	1
3.0.1	2019_Mar_03_1648	s	s	4	2	SIC	353	ABS	0	0	3	4	24_3_4	NA	NA	0	1	2.18690514565	None	None	None	None	1
3.0.1	2019_Mar_03_1648	s	s	4	2	SIC	354	ABS	0	0	3	1	24_3_1	NA	NA	0	1	3.3512570858	None	None	None	None	1
3.0.1	2019_Mar_03_1648	s	s	4	2	SIC	355	ABS	0	0	2	4	24_2_4	NA	NA	0	1	2.29830598831	None	None	None	None	1
3.0.1	2019_Mar_03_1648	s	s	4	2	SIC	356	1_1	1	1	3	4	23_3_4	2	3	1	0	0.481777906418	40.0	-76.0	43.0	-81.0	1
3.0.1	2019_Mar_03_1648	s	s	4	2	SIC	357	ABS	0	0	3	3	24_3_3	NA	NA	0	1	7.58523607254	None	None	None	None	1
3.0.1	2019_Mar_03_1648	s	s	4	2	SIC	358	ABS	0	0	2	3	24_2_3	NA	NA	0	1	6.30613899231	None	None	None	None	1
3.0.1	2019_Mar_03_1648	s	s	4	2	SIC	359	ABS	0	0	1	1	24_1_1	NA	NA	0	1	5.24479413033	None	None	None	None	1
3.0.1	2019_Mar_03_1648	s	s	4	2	SIC	360	1_4	1	4	4	4	23_4_4	3	0	1	0	1.38720417023	109.0	283.0	106.0	271.0	1
3.0.1	2019_Mar_03_1648	s	s	4	2	SIC	361	ABS	0	0	1	3	24_1_3	NA	NA	0	1	8.66081690788	None	None	None	None	1
3.0.1	2019_Mar_03_1648	s	s	4	2	SIC	362	ABS	0	0	4	4	24_4_4	NA	NA	0	1	3.94399094582	None	None	None	None	1
3.0.1	2019_Mar_03_1648	s	s	4	2	SIC	363	ABS	0	0	4	3	24_4_3	NA	NA	0	1	6.55317497253	None	None	None	None	1
3.0.1	2019_Mar_03_1648	s	s	4	2	SIC	364	3_3	3	3	3	2	23_3_2	0	1	0	1	7.27289009094	259.0	-10.0	None	None	0
3.0.1	2019_Mar_03_1648	s	s	4	2	SIC	365	ABS	0	0	1	3	24_1_3	NA	NA	0	1	11.4340441227	None	None	None	None	1
3.0.1	2019_Mar_03_1648	s	s	4	2	SIC	366	3_2	3	2	3	1	23_3_1	0	-1	1	0	2.65738987923	464.0	-163.0	464.0	-163.0	1
3.0.1	2019_Mar_03_1648	s	s	4	2	SIC	367	ABS	0	0	3	4	24_3_4	NA	NA	0	1	4.24897408485	None	None	None	None	1
3.0.1	2019_Mar_03_1648	s	s	4	2	SIC	368	ABS	0	0	3	3	24_3_3	NA	NA	0	0	-1	None	None	None	None	-1
3.0.1	2019_Mar_03_1648	s	s	4	2	SIC	369	ABS	0	0	4	2	24_4_2	NA	NA	0	1	5.60355091095	None	None	None	None	1
3.0.1	2019_Mar_03_1648	s	s	4	2	SIC	370	4_4	4	4	1	2	23_1_2	3	2	1	0	0.442739963531	175.0	-287.0	171.0	-291.0	1
3.0.1	2019_Mar_03_1648	s	s	4	2	SIC	371	ABS	0	0	4	2	24_4_2	NA	NA	0	1	3.12782692909	None	None	None	None	1
3.0.1	2019_Mar_03_1648	s	s	4	2	SIC	372	ABS	0	0	3	4	24_3_4	NA	NA	0	1	1.42277503014	None	None	None	None	1
3.0.1	2019_Mar_03_1648	s	s	4	2	SIC	373	ABS	0	0	4	4	24_4_4	NA	NA	0	1	1.4733300209	None	None	None	None	1
3.0.1	2019_Mar_03_1648	s	s	4	2	SIC	374	ABS	0	0	2	3	24_2_3	NA	NA	0	1	6.99721598625	None	None	None	None	1
3.0.1	2019_Mar_03_1648	s	s	4	2	SIC	375	ABS	0	0	2	4	24_2_4	NA	NA	0	1	1.42244696617	None	None	None	None	1
3.0.1	2019_Mar_03_1648	s	s	4	2	SIC	376	1_1	1	1	1	4	23_1_4	0	3	1	0	0.672609090805	192.0	-114.0	180.0	-108.0	1
3.0.1	2019_Mar_03_1648	s	s	4	2	SIC	377	ABS	0	0	4	2	24_4_2	NA	NA	0	1	10.0668408871	None	None	None	None	1
3.0.1	2019_Mar_03_1648	s	s	4	2	SIC	378	ABS	0	0	3	3	24_3_3	NA	NA	0	1	8.4401140213	None	None	None	None	1
3.0.1	2019_Mar_03_1648	s	s	4	2	SIC	379	2_1	2	1	3	3	23_3_3	1	2	1	0	0.481975078583	410.0	-138.0	405.0	-146.0	1
3.0.1	2019_Mar_03_1648	s	s	4	2	SIC	380	4_2	4	2	1	2	23_1_2	3	0	1	0	0.344553947449	-213.0	123.0	-206.0	116.0	1
3.0.1	2019_Mar_03_1648	s	s	4	2	SIC	381	4_3	4	3	2	3	23_2_3	2	0	1	0	0.40389919281	-514.0	-401.0	-517.0	-392.0	1
3.0.1	2019_Mar_03_1648	s	s	4	2	SIC	382	2_4	2	4	4	1	23_4_1	2	3	1	0	0.352256059647	-249.0	80.0	-252.0	79.0	1
3.0.1	2019_Mar_03_1648	s	s	4	2	SIC	383	2_4	2	4	2	2	23_2_2	0	2	1	0	0.768893003464	-168.0	22.0	-171.0	15.0	1
3.0.1	2019_Mar_03_1648	s	s	4	2	SIC	384	ABS	0	0	2	3	24_2_3	NA	NA	0	1	5.6680829525	None	None	None	None	1
3.0.1	2019_Mar_03_1648	s	s	4	2	SIC	385	1_3	1	3	4	3	23_4_3	3	0	1	0	0.422728061676	-476.0	270.0	-477.0	263.0	1
3.0.1	2019_Mar_03_1648	s	s	4	2	SIC	386	2_2	2	2	4	2	23_4_2	2	0	1	0	0.399219989777	-205.0	-37.0	-201.0	-39.0	1
3.0.1	2019_Mar_03_1648	s	s	4	2	SIC	387	ABS	0	0	3	1	24_3_1	NA	NA	0	1	1.56083297729	None	None	None	None	1
3.0.1	2019_Mar_03_1648	s	s	4	2	SIC	388	ABS	0	0	4	3	24_4_3	NA	NA	0	1	5.86810493469	None	None	None	None	1
3.0.1	2019_Mar_03_1648	s	s	4	2	SIC	389	4_2	4	2	3	1	23_3_1	1	-1	1	0	0.451215982437	-523.0	253.0	-532.0	255.0	1
3.0.1	2019_Mar_03_1648	s	s	4	2	SIC	390	ABS	0	0	1	4	24_1_4	NA	NA	0	1	4.28631401062	None	None	None	None	1
3.0.1	2019_Mar_03_1648	s	s	4	2	SIC	391	4_4	4	4	3	4	23_3_4	1	0	1	0	0.49728178978	154.0	62.0	149.0	61.0	1
3.0.1	2019_Mar_03_1648	s	s	4	2	SIC	392	ABS	0	0	1	2	24_1_2	NA	NA	0	1	5.87106108665	None	None	None	None	1
3.0.1	2019_Mar_03_1648	s	s	4	2	SIC	393	2_4	2	4	1	2	23_1_2	-1	2	1	0	0.893205165863	219.0	409.0	215.0	405.0	1
3.0.1	2019_Mar_03_1648	s	s	4	2	SIC	394	2_2	2	2	3	1	23_3_1	1	-1	1	0	0.587337017059	354.0	357.0	362.0	355.0	1
3.0.1	2019_Mar_03_1648	s	s	4	2	SIC	395	ABS	0	0	1	1	24_1_1	NA	NA	0	1	4.91545081139	None	None	None	None	1
3.0.1	2019_Mar_03_1648	s	s	4	2	SIC	396	1_1	1	1	2	2	23_2_2	1	1	1	0	1.73292994499	317.0	195.0	319.0	198.0	1
3.0.1	2019_Mar_03_1648	s	s	4	2	SIC	397	ABS	0	0	3	4	24_3_4	NA	NA	0	1	3.64535498619	None	None	None	None	1
3.0.1	2019_Mar_03_1648	s	s	4	2	SIC	398	3_1	3	1	3	4	23_3_4	0	3	1	0	0.591881990433	-40.0	-299.0	-32.0	-297.0	1
3.0.1	2019_Mar_03_1648	s	s	4	2	SIC	399	ABS	0	0	3	4	24_3_4	NA	NA	0	1	4.00351381302	None	None	None	None	1
3.0.1	2019_Mar_03_1648	s	s	4	2	SIC	400	3_3	3	3	4	3	23_4_3	-1	0	1	0	0.619353055954	-378.0	387.0	-377.0	380.0	1
3.0.1	2019_Mar_03_1648	s	s	4	2	SIC	401	2_3	2	3	1	2	23_1_2	-1	1	1	0	0.863950014114	-26.0	-21.0	-28.0	-12.0	1
3.0.1	2019_Mar_03_1648	s	s	4	2	SIC	402	4_2	4	2	4	3	23_4_3	0	1	1	0	6.53849506378	424.0	-233.0	419.0	-235.0	1
3.0.1	2019_Mar_03_1648	s	s	4	2	SIC	403	ABS	0	0	1	4	24_1_4	NA	NA	0	1	3.76584815979	None	None	None	None	1
3.0.1	2019_Mar_03_1648	s	s	4	2	SIC	404	ABS	0	0	3	4	24_3_4	NA	NA	0	1	2.86901712418	None	None	None	None	1
3.0.1	2019_Mar_03_1648	s	s	4	2	SIC	405	ABS	0	0	2	4	24_2_4	NA	NA	0	1	2.59135603905	None	None	None	None	1
3.0.1	2019_Mar_03_1648	s	s	4	2	SIC	406	3_1	3	1	4	2	23_4_2	-1	1	1	0	0.587348937988	-5.0	-301.0	-5.0	-300.0	1
3.0.1	2019_Mar_03_1648	s	s	4	2	SIC	407	ABS	0	0	1	4	24_1_4	NA	NA	0	1	3.25195908546	None	None	None	None	1
3.0.1	2019_Mar_03_1648	s	s	4	2	SIC	408	ABS	0	0	3	3	24_3_3	NA	NA	0	0	-1	None	None	None	None	-1
3.0.1	2019_Mar_03_1648	s	s	4	2	SIC	409	ABS	0	0	3	3	24_3_3	NA	NA	0	1	4.90668106079	None	None	None	None	1
3.0.1	2019_Mar_03_1648	s	s	4	2	SIC	410	ABS	0	0	1	2	24_1_2	NA	NA	0	1	5.10366296768	None	None	None	None	1
3.0.1	2019_Mar_03_1648	s	s	4	2	SIC	411	ABS	0	0	2	2	24_2_2	NA	NA	0	1	3.32776999474	None	None	None	None	1
3.0.1	2019_Mar_03_1648	s	s	4	2	SIC	412	ABS	0	0	2	3	24_2_3	NA	NA	0	1	3.56290102005	None	None	None	None	1
3.0.1	2019_Mar_03_1648	s	s	4	2	SIC	413	ABS	0	0	2	3	24_2_3	NA	NA	0	1	3.23360490799	None	None	None	None	1
3.0.1	2019_Mar_03_1648	s	s	4	2	SIC	414	2_3	2	3	4	3	23_4_3	2	0	1	0	0.496171951294	-308.0	-252.0	-307.0	-245.0	1
3.0.1	2019_Mar_03_1648	s	s	4	2	SIC	415	ABS	0	0	2	4	24_2_4	NA	NA	0	1	2.35192298889	None	None	None	None	1
3.0.1	2019_Mar_03_1648	s	s	4	2	SIC	416	1_4	1	4	2	4	23_2_4	1	0	1	0	1.17547106743	85.0	262.0	84.0	258.0	1
3.0.1	2019_Mar_03_1648	s	s	4	2	SIC	417	ABS	0	0	3	2	24_3_2	NA	NA	0	1	3.95105409622	None	None	None	None	1
3.0.1	2019_Mar_03_1648	s	s	4	2	SIC	418	4_4	4	4	3	3	23_3_3	1	1	1	0	0.442238807678	-410.0	-405.0	-407.0	-414.0	1
3.0.1	2019_Mar_03_1648	s	s	4	2	SIC	419	4_1	4	1	4	4	23_4_4	0	3	1	0	0.534523010254	-91.0	-306.0	-98.0	-304.0	1
3.0.1	2019_Mar_03_1648	s	s	4	2	SIC	420	ABS	0	0	4	4	24_4_4	NA	NA	0	1	2.79842400551	None	None	None	None	1
3.0.1	2019_Mar_03_1648	s	s	4	2	SIC	421	2_1	2	1	1	4	23_1_4	-1	3	1	0	0.834607839584	-275.0	-412.0	-270.0	-413.0	1
3.0.1	2019_Mar_03_1648	s	s	4	2	SIC	422	ABS	0	0	1	1	24_1_1	NA	NA	0	1	5.00963616371	None	None	None	None	1
3.0.1	2019_Mar_03_1648	s	s	4	2	SIC	423	ABS	0	0	2	2	24_2_2	NA	NA	0	1	6.32313895226	None	None	None	None	1
3.0.1	2019_Mar_03_1648	s	s	4	2	SIC	424	ABS	0	0	1	3	24_1_3	NA	NA	0	1	9.69047904015	None	None	None	None	1
3.0.1	2019_Mar_03_1648	s	s	4	2	SIC	425	4_4	4	4	3	2	23_3_2	1	2	1	0	0.458006858826	325.0	86.0	321.0	80.0	1
3.0.1	2019_Mar_03_1648	s	s	4	2	SIC	426	1_4	1	4	3	3	23_3_3	2	1	1	0	0.431641101837	-505.0	105.0	-513.0	104.0	1
3.0.1	2019_Mar_03_1648	s	s	4	2	SIC	427	ABS	0	0	1	3	24_1_3	NA	NA	0	1	4.14746785164	None	None	None	None	1
3.0.1	2019_Mar_03_1648	s	s	4	2	SIC	428	1_1	1	1	4	4	23_4_4	3	3	1	0	0.4373960495	535.0	120.0	536.0	114.0	1
3.0.1	2019_Mar_03_1648	s	s	4	2	SIC	429	4_1	4	1	4	2	23_4_2	0	1	1	0	5.16246795654	419.0	221.0	422.0	223.0	1
3.0.1	2019_Mar_03_1648	s	s	4	2	SIC	430	1_1	1	1	4	2	23_4_2	3	1	1	0	0.41589307785	477.0	-138.0	481.0	-143.0	1
3.0.1	2019_Mar_03_1648	s	s	4	2	SIC	431	ABS	0	0	3	1	24_3_1	NA	NA	0	1	3.02479290962	None	None	None	None	1
3.0.1	2019_Mar_03_1648	s	s	4	2	SIC	432	3_4	3	4	4	2	23_4_2	-1	2	1	0	0.422714948654	154.0	-368.0	150.0	-374.0	1
3.0.1	2019_Mar_03_1648	s	s	4	2	SIC	433	3_2	3	2	3	4	23_3_4	0	2	1	0	0.857871055603	-141.0	-18.0	-141.0	-26.0	1
3.0.1	2019_Mar_03_1648	s	s	4	2	SIC	434	4_1	4	1	2	1	23_2_1	2	0	1	0	0.35747885704	-285.0	-357.0	-283.0	-355.0	1
3.0.1	2019_Mar_03_1648	s	s	4	2	SIC	435	2_1	2	1	3	4	23_3_4	1	3	1	0	0.462385177612	-76.0	121.0	-75.0	121.0	1
3.0.1	2019_Mar_03_1648	s	s	4	2	SIC	436	3_2	3	2	1	2	23_1_2	2	0	1	0	0.496251106262	360.0	-231.0	361.0	-228.0	1
3.0.1	2019_Mar_03_1648	s	s	4	2	SIC	437	1_4	1	4	4	1	23_4_1	3	3	1	0	0.422716140747	418.0	280.0	414.0	277.0	1
3.0.1	2019_Mar_03_1648	s	s	4	2	SIC	438	4_1	4	1	1	1	23_1_1	3	0	1	0	0.333281993866	426.0	-410.0	431.0	-415.0	1
3.0.1	2019_Mar_03_1648	s	s	4	2	SIC	439	ABS	0	0	3	4	24_3_4	NA	NA	0	1	3.84808421135	None	None	None	None	1
3.0.1	2019_Mar_03_1648	s	s	4	2	SIC	440	1_3	1	3	1	2	23_1_2	0	1	1	0	4.67520689964	387.0	230.0	387.0	228.0	1
3.0.1	2019_Mar_03_1648	s	s	4	2	SIC	441	ABS	0	0	1	2	24_1_2	NA	NA	0	1	7.73529982567	None	None	None	None	1
3.0.1	2019_Mar_03_1648	s	s	4	2	SIC	442	4_4	4	4	2	1	23_2_1	2	3	1	0	0.378808021545	-215.0	54.0	-212.0	50.0	1
3.0.1	2019_Mar_03_1648	s	s	4	2	SIC	443	ABS	0	0	4	1	24_4_1	NA	NA	0	1	2.79060101509	None	None	None	None	1
3.0.1	2019_Mar_03_1648	s	s	4	2	SIC	444	1_2	1	2	4	3	23_4_3	3	1	1	0	0.378529071808	-176.0	-35.0	-176.0	-32.0	1
3.0.1	2019_Mar_03_1648	s	s	4	2	SIC	445	ABS	0	0	4	3	24_4_3	NA	NA	0	1	8.38950991631	None	None	None	None	1
3.0.1	2019_Mar_03_1648	s	s	4	2	SIC	446	2_2	2	2	2	4	23_2_4	0	2	1	0	0.602074146271	-468.0	121.0	-470.0	119.0	1
3.0.1	2019_Mar_03_1648	s	s	4	2	SIC	447	ABS	0	0	3	2	24_3_2	NA	NA	0	1	6.54509186745	None	None	None	None	1
3.0.1	2019_Mar_03_1648	s	s	4	2	SIC	448	3_3	3	3	3	4	23_3_4	0	-1	1	0	1.83936715126	282.0	-113.0	281.0	-120.0	1
3.0.1	2019_Mar_03_1648	s	s	4	2	SIC	449	ABS	0	0	2	1	24_2_1	NA	NA	0	1	3.08355903625	None	None	None	None	1
3.0.1	2019_Mar_03_1648	s	s	4	2	SIC	450	4_2	4	2	2	2	23_2_2	2	0	1	0	0.481885910034	372.0	-70.0	373.0	-72.0	1
3.0.1	2019_Mar_03_1648	s	s	4	2	SIC	451	4_1	4	1	4	3	23_4_3	0	2	1	0	2.08499598503	-431.0	-162.0	-429.0	-166.0	1
3.0.1	2019_Mar_03_1648	s	s	4	2	SIC	452	2_2	2	2	1	1	23_1_1	-1	-1	1	0	1.79877305031	240.0	-342.0	238.0	-344.0	1
3.0.1	2019_Mar_03_1648	s	s	4	2	SIC	453	3_4	3	4	4	1	23_4_1	-1	3	1	0	0.399242162704	-40.0	-342.0	-43.0	-354.0	1
3.0.1	2019_Mar_03_1648	s	s	4	2	SIC	454	2_4	2	4	4	2	23_4_2	2	2	1	0	0.367252111435	-437.0	337.0	-440.0	341.0	1
3.0.1	2019_Mar_03_1648	s	s	4	2	SIC	455	2_2	2	2	1	2	23_1_2	-1	0	0	1	7.70286107063	-78.0	232.0	None	None	0
3.0.1	2019_Mar_03_1648	s	s	4	2	SIC	456	1_2	1	2	3	3	23_3_3	2	1	1	0	0.422742128372	117.0	-109.0	117.0	-112.0	1
3.0.1	2019_Mar_03_1648	s	s	4	2	SIC	457	2_3	2	3	3	2	23_3_2	1	1	1	0	0.517196893692	-329.0	-311.0	-320.0	-313.0	1
3.0.1	2019_Mar_03_1648	s	s	4	2	SIC	458	1_2	1	2	3	4	23_3_4	2	2	1	0	0.378667116165	-176.0	-369.0	-179.0	-378.0	1
3.0.1	2019_Mar_03_1648	s	s	4	2	SIC	459	ABS	0	0	2	4	24_2_4	NA	NA	0	1	3.82171082497	None	None	None	None	1
3.0.1	2019_Mar_03_1648	s	s	4	2	SIC	460	ABS	0	0	3	1	24_3_1	NA	NA	0	1	1.62240815163	None	None	None	None	1
3.0.1	2019_Mar_03_1648	s	s	4	2	SIC	461	ABS	0	0	2	3	24_2_3	NA	NA	0	1	8.35518193245	None	None	None	None	1
3.0.1	2019_Mar_03_1648	s	s	4	2	SIC	462	ABS	0	0	4	2	24_4_2	NA	NA	0	1	6.25910615921	None	None	None	None	1
3.0.1	2019_Mar_03_1648	s	s	4	2	SIC	463	ABS	0	0	1	1	24_1_1	NA	NA	0	1	1.93241906166	None	None	None	None	1
3.0.1	2019_Mar_03_1648	s	s	4	2	SIC	464	ABS	0	0	2	4	24_2_4	NA	NA	0	1	2.65074205399	None	None	None	None	1
3.0.1	2019_Mar_03_1648	s	s	4	2	SIC	465	1_3	1	3	1	4	23_1_4	0	-1	1	0	0.870085000992	-414.0	149.0	-410.0	139.0	1
3.0.1	2019_Mar_03_1648	s	s	4	2	SIC	466	1_4	1	4	4	2	23_4_2	3	2	1	0	0.382076025009	-10.0	-78.0	-8.0	-87.0	1
3.0.1	2019_Mar_03_1648	s	s	4	2	SIC	467	3_2	3	2	4	2	23_4_2	-1	0	1	0	0.428045988083	-469.0	-160.0	-470.0	-151.0	1
3.0.1	2019_Mar_03_1648	s	s	4	2	SIC	468	ABS	0	0	1	4	24_1_4	NA	NA	0	1	2.35151600838	None	None	None	None	1
3.0.1	2019_Mar_03_1648	s	s	4	2	SIC	469	1_4	1	4	2	2	23_2_2	1	2	1	0	1.0324420929	342.0	-82.0	346.0	-80.0	1
3.0.1	2019_Mar_03_1648	s	s	4	2	SIC	470	ABS	0	0	2	3	24_2_3	NA	NA	0	1	7.16181492805	None	None	None	None	1
3.0.1	2019_Mar_03_1648	s	s	4	2	SIC	471	ABS	0	0	3	1	24_3_1	NA	NA	0	1	1.64589095116	None	None	None	None	1
3.0.1	2019_Mar_03_1648	s	s	4	2	SIC	472	ABS	0	0	4	3	24_4_3	NA	NA	0	1	6.07985496521	None	None	None	None	1
3.0.1	2019_Mar_03_1648	s	s	4	2	SIC	473	3_1	3	1	2	4	23_2_4	1	3	1	0	0.523024082184	-440.0	89.0	-446.0	92.0	1
3.0.1	2019_Mar_03_1648	s	s	4	2	SIC	474	2_1	2	1	3	1	23_3_1	1	0	1	0	0.579846858978	-189.0	-88.0	-190.0	-92.0	1
3.0.1	2019_Mar_03_1648	s	s	4	2	SIC	475	ABS	0	0	2	3	24_2_3	NA	NA	0	1	4.96736502647	None	None	None	None	1
3.0.1	2019_Mar_03_1648	s	s	4	2	SIC	476	4_4	4	4	4	2	23_4_2	0	2	1	0	0.516633033752	278.0	228.0	286.0	226.0	1
3.0.1	2019_Mar_03_1648	s	s	4	2	SIC	477	ABS	0	0	2	1	24_2_1	NA	NA	0	1	4.73123717308	None	None	None	None	1
3.0.1	2019_Mar_03_1648	s	s	4	2	SIC	478	ABS	0	0	1	2	24_1_2	NA	NA	0	1	3.70412182808	None	None	None	None	1
3.0.1	2019_Mar_03_1648	s	s	4	2	SIC	479	4_4	4	4	1	1	23_1_1	3	3	1	0	0.44353222847	-417.0	25.0	-414.0	25.0	1
3.0.1	2019_Mar_03_1648	s	s	4	2	SIC	480	3_4	3	4	2	3	23_2_3	1	1	1	0	0.557533025742	343.0	240.0	337.0	240.0	1
