Version	Date	Stimuli	Method	Subject	Session	Condition	Trial	Target	TColor	TShape	DColor	DShape	Distractors	Channel1	Channel2	LMouseButton	RMouseButton	RT	TargetX	TargetY	ResponseX	ResponseY	Correct
3.0.1	2019_Mar_02_1407	s	s	4	1	Capacity	1	ABS	0	0	4	1	24_4_1	NA	NA	0	1	1.03444910049	None	None	None	None	1
3.0.1	2019_Mar_02_1407	s	s	4	1	Capacity	2	ABS	0	0	2	1	24_2_1	NA	NA	0	1	1.1576359272	None	None	None	None	1
3.0.1	2019_Mar_02_1407	s	s	4	1	Capacity	3	1_1	1	1	3	1	23_3_1	2	0	1	0	0.693288087845	485.0	214.0	485.0	215.0	1
3.0.1	2019_Mar_02_1407	s	s	4	1	Capacity	4	ABS	0	0	2	1	24_2_1	NA	NA	0	1	0.980581045151	None	None	None	None	1
3.0.1	2019_Mar_02_1407	s	s	4	1	Capacity	5	4_1	4	1	1	1	23_1_1	3	0	1	0	0.904987096786	-15.0	-74.0	-7.0	-73.0	1
3.0.1	2019_Mar_02_1407	s	s	4	1	Capacity	6	3_1	3	1	2	1	23_2_1	1	0	1	0	0.932949066162	101.0	-230.0	102.0	-224.0	1
3.0.1	2019_Mar_02_1407	s	s	4	1	Capacity	7	ABS	0	0	4	1	24_4_1	NA	NA	0	1	0.745693922043	None	None	None	None	1
3.0.1	2019_Mar_02_1407	s	s	4	1	Capacity	8	4_1	4	1	2	1	23_2_1	2	0	1	0	0.704926967621	-70.0	-169.0	-59.0	-163.0	1
3.0.1	2019_Mar_02_1407	s	s	4	1	Capacity	9	ABS	0	0	3	1	24_3_1	NA	NA	0	1	2.29275584221	None	None	None	None	1
3.0.1	2019_Mar_02_1407	s	s	4	1	Capacity	10	4_1	4	1	3	1	23_3_1	1	0	1	0	0.768305063248	-218.0	234.0	-213.0	230.0	1
3.0.1	2019_Mar_02_1407	s	s	4	1	Capacity	11	1_1	1	1	4	1	23_4_1	3	0	1	0	0.795892000198	-308.0	167.0	-309.0	160.0	1
3.0.1	2019_Mar_02_1407	s	s	4	1	Capacity	12	1_1	1	1	2	1	23_2_1	1	0	0	1	0.758491039276	19.0	345.0	None	None	0
3.0.1	2019_Mar_02_1407	s	s	4	1	Capacity	13	3_1	3	1	4	1	23_4_1	-1	0	1	0	0.823101997375	-165.0	360.0	-160.0	356.0	1
3.0.1	2019_Mar_02_1407	s	s	4	1	Capacity	14	ABS	0	0	1	1	24_1_1	NA	NA	0	1	2.20170783997	None	None	None	None	1
3.0.1	2019_Mar_02_1407	s	s	4	1	Capacity	15	ABS	0	0	1	1	24_1_1	NA	NA	0	1	1.46216988564	None	None	None	None	1
3.0.1	2019_Mar_02_1407	s	s	4	1	Capacity	16	2_1	2	1	1	1	23_1_1	-1	0	1	0	1.22714400291	-242.0	58.0	-241.0	57.0	1
3.0.1	2019_Mar_02_1407	s	s	4	1	Capacity	17	2_1	2	1	4	1	23_4_1	2	0	1	0	0.755051851273	-456.0	-290.0	-455.0	-292.0	1
3.0.1	2019_Mar_02_1407	s	s	4	1	Capacity	18	ABS	0	0	3	1	24_3_1	NA	NA	0	1	2.99155211449	None	None	None	None	1
3.0.1	2019_Mar_02_1407	s	s	4	1	Capacity	19	ABS	0	0	2	1	24_2_1	NA	NA	0	1	1.9450070858	None	None	None	None	1
3.0.1	2019_Mar_02_1407	s	s	4	1	Capacity	20	ABS	0	0	3	1	24_3_1	NA	NA	0	1	1.93313479424	None	None	None	None	1
3.0.1	2019_Mar_02_1407	s	s	4	1	Capacity	21	ABS	0	0	1	1	24_1_1	NA	NA	0	1	1.93990206718	None	None	None	None	1
3.0.1	2019_Mar_02_1407	s	s	4	1	Capacity	22	2_1	2	1	3	1	23_3_1	1	0	1	0	0.672613143921	-437.0	186.0	-444.0	188.0	1
3.0.1	2019_Mar_02_1407	s	s	4	1	Capacity	23	ABS	0	0	4	1	24_4_1	NA	NA	0	1	1.59882092476	None	None	None	None	1
3.0.1	2019_Mar_02_1407	s	s	4	1	Capacity	24	3_1	3	1	1	1	23_1_1	2	0	1	0	0.875165939331	246.0	-286.0	255.0	-284.0	1
3.0.1	2019_Mar_02_1407	s	s	4	1	Capacity	25	2_1	2	1	3	1	23_3_1	1	0	1	0	0.846101045609	308.0	303.0	314.0	296.0	1
3.0.1	2019_Mar_02_1407	s	s	4	1	Capacity	26	2_1	2	1	4	1	23_4_1	2	0	1	0	0.716778993607	288.0	-125.0	283.0	-132.0	1
3.0.1	2019_Mar_02_1407	s	s	4	1	Capacity	27	ABS	0	0	4	1	24_4_1	NA	NA	0	1	1.65768289566	None	None	None	None	1
3.0.1	2019_Mar_02_1407	s	s	4	1	Capacity	28	3_1	3	1	2	1	23_2_1	1	0	1	0	0.92849779129	258.0	-393.0	262.0	-393.0	1
3.0.1	2019_Mar_02_1407	s	s	4	1	Capacity	29	ABS	0	0	2	1	24_2_1	NA	NA	0	1	1.59888315201	None	None	None	None	1
3.0.1	2019_Mar_02_1407	s	s	4	1	Capacity	30	3_1	3	1	1	1	23_1_1	2	0	1	0	0.575685977936	-304.0	391.0	-303.0	389.0	1
3.0.1	2019_Mar_02_1407	s	s	4	1	Capacity	31	ABS	0	0	2	1	24_2_1	NA	NA	0	1	2.50453305244	None	None	None	None	1
3.0.1	2019_Mar_02_1407	s	s	4	1	Capacity	32	ABS	0	0	4	1	24_4_1	NA	NA	0	1	1.15195703506	None	None	None	None	1
3.0.1	2019_Mar_02_1407	s	s	4	1	Capacity	33	ABS	0	0	3	1	24_3_1	NA	NA	0	1	1.4759209156	None	None	None	None	1
3.0.1	2019_Mar_02_1407	s	s	4	1	Capacity	34	ABS	0	0	1	1	24_1_1	NA	NA	0	1	1.44601011276	None	None	None	None	1
3.0.1	2019_Mar_02_1407	s	s	4	1	Capacity	35	ABS	0	0	1	1	24_1_1	NA	NA	0	1	1.2930560112	None	None	None	None	1
3.0.1	2019_Mar_02_1407	s	s	4	1	Capacity	36	ABS	0	0	3	1	24_3_1	NA	NA	0	1	1.4291229248	None	None	None	None	1
3.0.1	2019_Mar_02_1407	s	s	4	1	Capacity	37	ABS	0	0	1	1	24_1_1	NA	NA	0	1	1.76763916016	None	None	None	None	1
3.0.1	2019_Mar_02_1407	s	s	4	1	Capacity	38	3_1	3	1	4	1	23_4_1	-1	0	1	0	1.10891199112	-299.0	-353.0	-298.0	-356.0	1
3.0.1	2019_Mar_02_1407	s	s	4	1	Capacity	39	ABS	0	0	3	1	24_3_1	NA	NA	0	1	1.32589316368	None	None	None	None	1
3.0.1	2019_Mar_02_1407	s	s	4	1	Capacity	40	4_1	4	1	3	1	23_3_1	1	0	1	0	0.546944856644	-451.0	-192.0	-460.0	-191.0	1
3.0.1	2019_Mar_02_1407	s	s	4	1	Capacity	41	1_1	1	1	4	1	23_4_1	3	0	1	0	0.554997205734	-183.0	156.0	-175.0	156.0	1
3.0.1	2019_Mar_02_1407	s	s	4	1	Capacity	42	4_1	4	1	2	1	23_2_1	2	0	1	0	0.740288972855	36.0	-110.0	38.0	-110.0	1
3.0.1	2019_Mar_02_1407	s	s	4	1	Capacity	43	ABS	0	0	4	1	24_4_1	NA	NA	0	1	1.06960988045	None	None	None	None	1
3.0.1	2019_Mar_02_1407	s	s	4	1	Capacity	44	1_1	1	1	2	1	23_2_1	1	0	1	0	1.07404899597	-161.0	-192.0	-157.0	-199.0	1
3.0.1	2019_Mar_02_1407	s	s	4	1	Capacity	45	2_1	2	1	1	1	23_1_1	-1	0	0	1	1.73251700401	-102.0	351.0	None	None	0
3.0.1	2019_Mar_02_1407	s	s	4	1	Capacity	46	4_1	4	1	1	1	23_1_1	3	0	1	0	0.59249997139	28.0	-21.0	30.0	-22.0	1
3.0.1	2019_Mar_02_1407	s	s	4	1	Capacity	47	1_1	1	1	3	1	23_3_1	2	0	1	0	0.575628995895	520.0	-203.0	526.0	-194.0	1
3.0.1	2019_Mar_02_1407	s	s	4	1	Capacity	48	ABS	0	0	2	1	24_2_1	NA	NA	0	1	1.1817419529	None	None	None	None	1
3.0.1	2019_Mar_02_1407	s	s	4	1	Capacity	49	ABS	0	0	1	1	24_1_1	NA	NA	0	1	1.4813439846	None	None	None	None	1
3.0.1	2019_Mar_02_1407	s	s	4	1	Capacity	50	ABS	0	0	3	1	24_3_1	NA	NA	0	1	1.20192098618	None	None	None	None	1
3.0.1	2019_Mar_02_1407	s	s	4	1	Capacity	51	1_1	1	1	2	1	23_2_1	1	0	1	0	1.57531905174	-295.0	295.0	-292.0	303.0	1
3.0.1	2019_Mar_02_1407	s	s	4	1	Capacity	52	ABS	0	0	1	1	24_1_1	NA	NA	0	1	1.30480694771	None	None	None	None	1
3.0.1	2019_Mar_02_1407	s	s	4	1	Capacity	53	3_1	3	1	4	1	23_4_1	-1	0	1	0	0.592293024063	-322.0	137.0	-328.0	140.0	1
3.0.1	2019_Mar_02_1407	s	s	4	1	Capacity	54	3_1	3	1	2	1	23_2_1	1	0	1	0	0.651152133942	160.0	17.0	164.0	22.0	1
3.0.1	2019_Mar_02_1407	s	s	4	1	Capacity	55	ABS	0	0	2	1	24_2_1	NA	NA	0	1	0.940296173096	None	None	None	None	1
3.0.1	2019_Mar_02_1407	s	s	4	1	Capacity	56	4_1	4	1	1	1	23_1_1	3	0	1	0	0.516863107681	-516.0	143.0	-518.0	147.0	1
3.0.1	2019_Mar_02_1407	s	s	4	1	Capacity	57	3_1	3	1	1	1	23_1_1	2	0	1	0	0.75200510025	413.0	184.0	417.0	185.0	1
3.0.1	2019_Mar_02_1407	s	s	4	1	Capacity	58	1_1	1	1	4	1	23_4_1	3	0	1	0	0.587383031845	-441.0	-387.0	-441.0	-391.0	1
3.0.1	2019_Mar_02_1407	s	s	4	1	Capacity	59	ABS	0	0	3	1	24_3_1	NA	NA	0	1	2.67201709747	None	None	None	None	1
3.0.1	2019_Mar_02_1407	s	s	4	1	Capacity	60	ABS	0	0	4	1	24_4_1	NA	NA	0	1	1.03183317184	None	None	None	None	1
3.0.1	2019_Mar_02_1407	s	s	4	1	Capacity	61	1_1	1	1	3	1	23_3_1	2	0	1	0	0.658346176147	220.0	-406.0	223.0	-408.0	1
3.0.1	2019_Mar_02_1407	s	s	4	1	Capacity	62	ABS	0	0	1	1	24_1_1	NA	NA	0	1	2.03394198418	None	None	None	None	1
3.0.1	2019_Mar_02_1407	s	s	4	1	Capacity	63	ABS	0	0	2	1	24_2_1	NA	NA	0	1	2.27528190613	None	None	None	None	1
3.0.1	2019_Mar_02_1407	s	s	4	1	Capacity	64	4_1	4	1	3	1	23_3_1	1	0	1	0	0.469794034958	-407.0	139.0	-402.0	134.0	1
3.0.1	2019_Mar_02_1407	s	s	4	1	Capacity	65	2_1	2	1	1	1	23_1_1	-1	0	1	0	1.23428082466	488.0	246.0	487.0	249.0	1
3.0.1	2019_Mar_02_1407	s	s	4	1	Capacity	66	ABS	0	0	2	1	24_2_1	NA	NA	0	1	3.57471394539	None	None	None	None	1
3.0.1	2019_Mar_02_1407	s	s	4	1	Capacity	67	ABS	0	0	3	1	24_3_1	NA	NA	0	1	1.4519097805	None	None	None	None	1
3.0.1	2019_Mar_02_1407	s	s	4	1	Capacity	68	2_1	2	1	3	1	23_3_1	1	0	1	0	0.657948970795	358.0	-114.0	360.0	-122.0	1
3.0.1	2019_Mar_02_1407	s	s	4	1	Capacity	69	2_1	2	1	4	1	23_4_1	2	0	1	0	0.61386013031	-159.0	66.0	-154.0	57.0	1
3.0.1	2019_Mar_02_1407	s	s	4	1	Capacity	70	4_1	4	1	2	1	23_2_1	2	0	1	0	0.510265111923	241.0	-98.0	239.0	-110.0	1
3.0.1	2019_Mar_02_1407	s	s	4	1	Capacity	71	ABS	0	0	4	1	24_4_1	NA	NA	0	1	0.85559296608	None	None	None	None	1
3.0.1	2019_Mar_02_1407	s	s	4	1	Capacity	72	ABS	0	0	4	1	24_4_1	NA	NA	0	1	1.18727612495	None	None	None	None	1
3.0.1	2019_Mar_02_1407	s	s	4	1	Capacity	73	ABS	0	0	3	1	24_3_1	NA	NA	0	1	1.11037611961	None	None	None	None	1
3.0.1	2019_Mar_02_1407	s	s	4	1	Capacity	74	4_1	4	1	2	1	23_2_1	2	0	1	0	0.528588056564	100.0	-396.0	105.0	-400.0	1
3.0.1	2019_Mar_02_1407	s	s	4	1	Capacity	75	1_1	1	1	3	1	23_3_1	2	0	1	0	0.731454133987	395.0	-15.0	380.0	-8.0	1
3.0.1	2019_Mar_02_1407	s	s	4	1	Capacity	76	ABS	0	0	3	1	24_3_1	NA	NA	0	1	1.26953411102	None	None	None	None	1
3.0.1	2019_Mar_02_1407	s	s	4	1	Capacity	77	ABS	0	0	2	1	24_2_1	NA	NA	0	1	1.8685529232	None	None	None	None	1
3.0.1	2019_Mar_02_1407	s	s	4	1	Capacity	78	3_1	3	1	4	1	23_4_1	-1	0	1	0	0.523510932922	-353.0	-151.0	-350.0	-145.0	1
3.0.1	2019_Mar_02_1407	s	s	4	1	Capacity	79	3_1	3	1	1	1	23_1_1	2	0	1	0	0.704982995987	403.0	-84.0	402.0	-77.0	1
3.0.1	2019_Mar_02_1407	s	s	4	1	Capacity	80	ABS	0	0	4	1	24_4_1	NA	NA	0	1	1.4577319622	None	None	None	None	1
3.0.1	2019_Mar_02_1407	s	s	4	1	Capacity	81	ABS	0	0	3	1	24_3_1	NA	NA	0	1	1.34013819695	None	None	None	None	1
3.0.1	2019_Mar_02_1407	s	s	4	1	Capacity	82	4_1	4	1	3	1	23_3_1	1	0	1	0	0.500596046448	-7.0	84.0	-7.0	85.0	1
3.0.1	2019_Mar_02_1407	s	s	4	1	Capacity	83	2_1	2	1	4	1	23_4_1	2	0	1	0	0.575645923615	192.0	-405.0	187.0	-406.0	1
3.0.1	2019_Mar_02_1407	s	s	4	1	Capacity	84	1_1	1	1	4	1	23_4_1	3	0	1	0	0.545407056808	-293.0	-307.0	-283.0	-308.0	1
3.0.1	2019_Mar_02_1407	s	s	4	1	Capacity	85	ABS	0	0	4	1	24_4_1	NA	NA	0	1	1.10490298271	None	None	None	None	1
3.0.1	2019_Mar_02_1407	s	s	4	1	Capacity	86	ABS	0	0	1	1	24_1_1	NA	NA	0	1	1.75171279907	None	None	None	None	1
3.0.1	2019_Mar_02_1407	s	s	4	1	Capacity	87	ABS	0	0	2	1	24_2_1	NA	NA	0	1	1.99873399734	None	None	None	None	1
3.0.1	2019_Mar_02_1407	s	s	4	1	Capacity	88	ABS	0	0	2	1	24_2_1	NA	NA	0	1	0.763869047165	None	None	None	None	1
3.0.1	2019_Mar_02_1407	s	s	4	1	Capacity	89	3_1	3	1	2	1	23_2_1	1	0	1	0	0.707942008972	313.0	-334.0	314.0	-338.0	1
3.0.1	2019_Mar_02_1407	s	s	4	1	Capacity	90	1_1	1	1	2	1	23_2_1	1	0	1	0	2.49561405182	106.0	-373.0	106.0	-384.0	1
3.0.1	2019_Mar_02_1407	s	s	4	1	Capacity	91	4_1	4	1	1	1	23_1_1	3	0	1	0	0.532082080841	459.0	136.0	462.0	130.0	1
3.0.1	2019_Mar_02_1407	s	s	4	1	Capacity	92	ABS	0	0	4	1	24_4_1	NA	NA	0	1	1.23905491829	None	None	None	None	1
3.0.1	2019_Mar_02_1407	s	s	4	1	Capacity	93	ABS	0	0	1	1	24_1_1	NA	NA	0	1	1.82231903076	None	None	None	None	1
3.0.1	2019_Mar_02_1407	s	s	4	1	Capacity	94	ABS	0	0	1	1	24_1_1	NA	NA	0	1	1.52834892273	None	None	None	None	1
3.0.1	2019_Mar_02_1407	s	s	4	1	Capacity	95	2_1	2	1	3	1	23_3_1	1	0	1	0	0.816209077835	391.0	-206.0	388.0	-204.0	1
3.0.1	2019_Mar_02_1407	s	s	4	1	Capacity	96	2_1	2	1	1	1	23_1_1	-1	0	1	0	1.48130583763	-239.0	-105.0	-235.0	-107.0	1
3.0.1	2019_Mar_02_1407	s	s	4	1	Capacity	1	ABS	0	0	1	1	24_1_1	NA	NA	0	1	5.67715382576	None	None	None	None	1
3.0.1	2019_Mar_02_1407	s	s	4	1	Capacity	2	1_3	1	3	1	1	23_1_1	0	2	1	0	0.76393699646	-262.0	167.0	-265.0	158.0	1
3.0.1	2019_Mar_02_1407	s	s	4	1	Capacity	3	1_3	1	3	1	4	23_1_4	0	-1	1	0	1.04608511925	234.0	-61.0	238.0	-64.0	1
3.0.1	2019_Mar_02_1407	s	s	4	1	Capacity	4	1_4	1	4	1	2	23_1_2	0	2	1	0	1.33398795128	15.0	298.0	13.0	295.0	1
3.0.1	2019_Mar_02_1407	s	s	4	1	Capacity	5	ABS	0	0	1	2	24_1_2	NA	NA	0	1	10.224558115	None	None	None	None	1
3.0.1	2019_Mar_02_1407	s	s	4	1	Capacity	6	ABS	0	0	1	1	24_1_1	NA	NA	0	1	4.27367806435	None	None	None	None	1
3.0.1	2019_Mar_02_1407	s	s	4	1	Capacity	7	ABS	0	0	1	2	24_1_2	NA	NA	0	1	11.1891531944	None	None	None	None	1
3.0.1	2019_Mar_02_1407	s	s	4	1	Capacity	8	1_4	1	4	1	1	23_1_1	0	3	1	0	1.05781793594	350.0	198.0	356.0	191.0	1
3.0.1	2019_Mar_02_1407	s	s	4	1	Capacity	9	1_1	1	1	1	2	23_1_2	0	1	1	0	1.44598007202	153.0	-70.0	148.0	-70.0	1
3.0.1	2019_Mar_02_1407	s	s	4	1	Capacity	10	ABS	0	0	1	4	24_1_4	NA	NA	0	1	6.23272109032	None	None	None	None	1
3.0.1	2019_Mar_02_1407	s	s	4	1	Capacity	11	1_2	1	2	1	4	23_1_4	0	2	1	0	1.16368889809	-534.0	-140.0	-528.0	-139.0	1
3.0.1	2019_Mar_02_1407	s	s	4	1	Capacity	12	ABS	0	0	1	3	24_1_3	NA	NA	0	1	14.5008010864	None	None	None	None	1
3.0.1	2019_Mar_02_1407	s	s	4	1	Capacity	13	ABS	0	0	1	1	24_1_1	NA	NA	0	1	4.33038592339	None	None	None	None	1
3.0.1	2019_Mar_02_1407	s	s	4	1	Capacity	14	ABS	0	0	1	4	24_1_4	NA	NA	0	1	5.12723994255	None	None	None	None	1
3.0.1	2019_Mar_02_1407	s	s	4	1	Capacity	15	1_1	1	1	1	3	23_1_3	0	2	1	0	5.91248393059	501.0	217.0	501.0	215.0	1
3.0.1	2019_Mar_02_1407	s	s	4	1	Capacity	16	1_2	1	2	1	1	23_1_1	0	-1	1	0	7.95517301559	487.0	-200.0	479.0	-201.0	1
3.0.1	2019_Mar_02_1407	s	s	4	1	Capacity	17	1_1	1	1	1	4	23_1_4	0	3	1	0	0.881363868713	111.0	331.0	109.0	323.0	1
3.0.1	2019_Mar_02_1407	s	s	4	1	Capacity	18	ABS	0	0	1	4	24_1_4	NA	NA	0	1	9.2582681179	None	None	None	None	1
3.0.1	2019_Mar_02_1407	s	s	4	1	Capacity	19	1_4	1	4	1	3	23_1_3	0	1	1	0	1.2347509861	108.0	319.0	108.0	305.0	1
3.0.1	2019_Mar_02_1407	s	s	4	1	Capacity	20	ABS	0	0	1	3	24_1_3	NA	NA	0	1	13.0071229935	None	None	None	None	1
3.0.1	2019_Mar_02_1407	s	s	4	1	Capacity	21	1_2	1	2	1	3	23_1_3	0	1	1	0	1.95173692703	-353.0	311.0	-367.0	320.0	1
3.0.1	2019_Mar_02_1407	s	s	4	1	Capacity	22	ABS	0	0	1	3	24_1_3	NA	NA	0	1	13.8068580627	None	None	None	None	1
3.0.1	2019_Mar_02_1407	s	s	4	1	Capacity	23	1_3	1	3	1	2	23_1_2	0	1	1	0	4.53917384148	182.0	203.0	175.0	202.0	1
3.0.1	2019_Mar_02_1407	s	s	4	1	Capacity	24	ABS	0	0	1	2	24_1_2	NA	NA	0	0	-1	None	None	None	None	-1
3.0.1	2019_Mar_02_1407	s	s	4	1	Capacity	25	1_3	1	3	1	2	23_1_2	0	1	1	0	7.82045602798	292.0	116.0	302.0	119.0	1
3.0.1	2019_Mar_02_1407	s	s	4	1	Capacity	26	1_4	1	4	1	1	23_1_1	0	3	1	0	0.921967029572	-273.0	203.0	-270.0	201.0	1
3.0.1	2019_Mar_02_1407	s	s	4	1	Capacity	27	1_4	1	4	1	2	23_1_2	0	2	1	0	1.24935507774	-406.0	-63.0	-405.0	-60.0	1
3.0.1	2019_Mar_02_1407	s	s	4	1	Capacity	28	1_4	1	4	1	3	23_1_3	0	1	1	0	1.04602098465	-234.0	7.0	-239.0	9.0	1
3.0.1	2019_Mar_02_1407	s	s	4	1	Capacity	29	ABS	0	0	1	4	24_1_4	NA	NA	0	1	6.25457501411	None	None	None	None	1
3.0.1	2019_Mar_02_1407	s	s	4	1	Capacity	30	ABS	0	0	1	3	24_1_3	NA	NA	0	1	10.9895019531	None	None	None	None	1
3.0.1	2019_Mar_02_1407	s	s	4	1	Capacity	31	ABS	0	0	1	1	24_1_1	NA	NA	0	1	5.65013313293	None	None	None	None	1
3.0.1	2019_Mar_02_1407	s	s	4	1	Capacity	32	ABS	0	0	1	2	24_1_2	NA	NA	0	1	11.9086899757	None	None	None	None	1
3.0.1	2019_Mar_02_1407	s	s	4	1	Capacity	33	1_1	1	1	1	4	23_1_4	0	3	1	0	1.38012003899	182.0	-82.0	186.0	-84.0	1
3.0.1	2019_Mar_02_1407	s	s	4	1	Capacity	34	ABS	0	0	1	2	24_1_2	NA	NA	0	1	9.23173189163	None	None	None	None	1
3.0.1	2019_Mar_02_1407	s	s	4	1	Capacity	35	ABS	0	0	1	2	24_1_2	NA	NA	0	1	9.69055604935	None	None	None	None	1
3.0.1	2019_Mar_02_1407	s	s	4	1	Capacity	36	ABS	0	0	1	3	24_1_3	NA	NA	0	1	11.3296649456	None	None	None	None	1
3.0.1	2019_Mar_02_1407	s	s	4	1	Capacity	37	1_1	1	1	1	2	23_1_2	0	1	1	0	7.8208091259	-175.0	-165.0	-174.0	-165.0	1
3.0.1	2019_Mar_02_1407	s	s	4	1	Capacity	38	ABS	0	0	1	3	24_1_3	NA	NA	0	1	8.84869098663	None	None	None	None	1
3.0.1	2019_Mar_02_1407	s	s	4	1	Capacity	39	ABS	0	0	1	4	24_1_4	NA	NA	0	1	6.07170915604	None	None	None	None	1
3.0.1	2019_Mar_02_1407	s	s	4	1	Capacity	40	ABS	0	0	1	1	24_1_1	NA	NA	0	1	5.53226804733	None	None	None	None	1
3.0.1	2019_Mar_02_1407	s	s	4	1	Capacity	41	ABS	0	0	1	1	24_1_1	NA	NA	0	1	4.29214596748	None	None	None	None	1
3.0.1	2019_Mar_02_1407	s	s	4	1	Capacity	42	1_2	1	2	1	1	23_1_1	0	-1	1	0	1.75169992447	62.0	-141.0	69.0	-141.0	1
3.0.1	2019_Mar_02_1407	s	s	4	1	Capacity	43	1_2	1	2	1	4	23_1_4	0	2	1	0	0.79909992218	279.0	91.0	284.0	97.0	1
3.0.1	2019_Mar_02_1407	s	s	4	1	Capacity	44	1_3	1	3	1	1	23_1_1	0	2	1	0	0.966625928879	-391.0	95.0	-391.0	94.0	1
3.0.1	2019_Mar_02_1407	s	s	4	1	Capacity	45	1_3	1	3	1	4	23_1_4	0	-1	1	0	0.940191984177	511.0	-259.0	518.0	-251.0	1
3.0.1	2019_Mar_02_1407	s	s	4	1	Capacity	46	1_1	1	1	1	3	23_1_3	0	2	1	0	3.39830517769	-341.0	306.0	-343.0	299.0	1
3.0.1	2019_Mar_02_1407	s	s	4	1	Capacity	47	ABS	0	0	1	4	24_1_4	NA	NA	0	1	9.57799506187	None	None	None	None	1
3.0.1	2019_Mar_02_1407	s	s	4	1	Capacity	48	1_2	1	2	1	3	23_1_3	0	1	1	0	1.58711695671	9.0	116.0	5.0	116.0	1
3.0.1	2019_Mar_02_1407	s	s	4	1	Capacity	49	ABS	0	0	1	3	24_1_3	NA	NA	0	1	10.2480809689	None	None	None	None	1
3.0.1	2019_Mar_02_1407	s	s	4	1	Capacity	50	ABS	0	0	1	1	24_1_1	NA	NA	0	1	6.27982711792	None	None	None	None	1
3.0.1	2019_Mar_02_1407	s	s	4	1	Capacity	51	1_1	1	1	1	3	23_1_3	0	2	1	0	1.89571881294	-466.0	325.0	-457.0	325.0	1
3.0.1	2019_Mar_02_1407	s	s	4	1	Capacity	52	ABS	0	0	1	1	24_1_1	NA	NA	0	1	7.70695590973	None	None	None	None	1
3.0.1	2019_Mar_02_1407	s	s	4	1	Capacity	53	1_2	1	2	1	4	23_1_4	0	2	1	0	0.922091007233	199.0	205.0	204.0	204.0	1
3.0.1	2019_Mar_02_1407	s	s	4	1	Capacity	54	1_2	1	2	1	3	23_1_3	0	1	1	0	2.86895012856	497.0	197.0	503.0	202.0	1
3.0.1	2019_Mar_02_1407	s	s	4	1	Capacity	55	1_3	1	3	1	2	23_1_2	0	1	1	0	7.64411997795	278.0	300.0	270.0	295.0	1
3.0.1	2019_Mar_02_1407	s	s	4	1	Capacity	56	1_3	1	3	1	4	23_1_4	0	-1	1	0	1.70956397057	461.0	-302.0	455.0	-297.0	1
3.0.1	2019_Mar_02_1407	s	s	4	1	Capacity	57	ABS	0	0	1	3	24_1_3	NA	NA	0	1	7.26773190498	None	None	None	None	1
3.0.1	2019_Mar_02_1407	s	s	4	1	Capacity	58	1_4	1	4	1	2	23_1_2	0	2	1	0	1.0843269825	-316.0	357.0	-311.0	356.0	1
3.0.1	2019_Mar_02_1407	s	s	4	1	Capacity	59	ABS	0	0	1	4	24_1_4	NA	NA	0	1	6.75018286705	None	None	None	None	1
3.0.1	2019_Mar_02_1407	s	s	4	1	Capacity	60	ABS	0	0	1	4	24_1_4	NA	NA	0	1	7.25209498405	None	None	None	None	1
3.0.1	2019_Mar_02_1407	s	s	4	1	Capacity	61	1_1	1	1	1	4	23_1_4	0	3	1	0	0.651408910751	232.0	191.0	230.0	188.0	1
3.0.1	2019_Mar_02_1407	s	s	4	1	Capacity	62	1_2	1	2	1	1	23_1_1	0	-1	1	0	1.51650595665	-348.0	-2.0	-349.0	0.0	1
3.0.1	2019_Mar_02_1407	s	s	4	1	Capacity	63	1_4	1	4	1	3	23_1_3	0	1	1	0	2.21645402908	-148.0	-71.0	-146.0	-78.0	1
3.0.1	2019_Mar_02_1407	s	s	4	1	Capacity	64	1_3	1	3	1	1	23_1_1	0	2	1	0	2.24571800232	-494.0	-11.0	-496.0	-14.0	1
3.0.1	2019_Mar_02_1407	s	s	4	1	Capacity	65	1_1	1	1	1	2	23_1_2	0	1	1	0	7.86064386368	205.0	264.0	201.0	269.0	1
3.0.1	2019_Mar_02_1407	s	s	4	1	Capacity	66	ABS	0	0	1	3	24_1_3	NA	NA	0	1	9.36115193367	None	None	None	None	1
3.0.1	2019_Mar_02_1407	s	s	4	1	Capacity	67	ABS	0	0	1	4	24_1_4	NA	NA	0	1	6.78555107117	None	None	None	None	1
3.0.1	2019_Mar_02_1407	s	s	4	1	Capacity	68	ABS	0	0	1	2	24_1_2	NA	NA	0	1	8.83197498322	None	None	None	None	1
3.0.1	2019_Mar_02_1407	s	s	4	1	Capacity	69	1_4	1	4	1	1	23_1_1	0	3	1	0	0.944961071014	-477.0	-93.0	-481.0	-103.0	1
3.0.1	2019_Mar_02_1407	s	s	4	1	Capacity	70	ABS	0	0	1	2	24_1_2	NA	NA	0	1	7.31923890114	None	None	None	None	1
3.0.1	2019_Mar_02_1407	s	s	4	1	Capacity	71	ABS	0	0	1	1	24_1_1	NA	NA	0	1	7.29593515396	None	None	None	None	1
3.0.1	2019_Mar_02_1407	s	s	4	1	Capacity	72	ABS	0	0	1	2	24_1_2	NA	NA	0	1	8.91430401802	None	None	None	None	1
3.0.1	2019_Mar_02_1407	s	s	4	1	Capacity	73	1_3	1	3	1	2	23_1_2	0	1	1	0	2.00382900238	-160.0	31.0	-158.0	27.0	1
3.0.1	2019_Mar_02_1407	s	s	4	1	Capacity	74	1_4	1	4	1	3	23_1_3	0	1	1	0	2.48575496674	495.0	-176.0	498.0	-182.0	1
3.0.1	2019_Mar_02_1407	s	s	4	1	Capacity	75	ABS	0	0	1	2	24_1_2	NA	NA	0	1	13.0863740444	None	None	None	None	1
3.0.1	2019_Mar_02_1407	s	s	4	1	Capacity	76	ABS	0	0	1	4	24_1_4	NA	NA	0	1	6.35033488274	None	None	None	None	1
3.0.1	2019_Mar_02_1407	s	s	4	1	Capacity	77	ABS	0	0	1	1	24_1_1	NA	NA	0	1	3.86034393311	None	None	None	None	1
3.0.1	2019_Mar_02_1407	s	s	4	1	Capacity	78	1_1	1	1	1	3	23_1_3	0	2	0	1	2.43907904625	-478.0	234.0	None	None	0
3.0.1	2019_Mar_02_1407	s	s	4	1	Capacity	79	ABS	0	0	1	3	24_1_3	NA	NA	0	1	13.1482541561	None	None	None	None	1
3.0.1	2019_Mar_02_1407	s	s	4	1	Capacity	80	ABS	0	0	1	1	24_1_1	NA	NA	0	1	6.24957418442	None	None	None	None	1
3.0.1	2019_Mar_02_1407	s	s	4	1	Capacity	81	1_4	1	4	1	1	23_1_1	0	3	1	0	0.796746015549	-95.0	-296.0	-94.0	-301.0	1
3.0.1	2019_Mar_02_1407	s	s	4	1	Capacity	82	ABS	0	0	1	2	24_1_2	NA	NA	0	1	14.9477210045	None	None	None	None	1
3.0.1	2019_Mar_02_1407	s	s	4	1	Capacity	83	1_2	1	2	1	3	23_1_3	0	1	1	0	5.65639305115	170.0	290.0	171.0	287.0	1
3.0.1	2019_Mar_02_1407	s	s	4	1	Capacity	84	ABS	0	0	1	4	24_1_4	NA	NA	0	1	5.59228181839	None	None	None	None	1
3.0.1	2019_Mar_02_1407	s	s	4	1	Capacity	85	1_2	1	2	1	1	23_1_1	0	-1	1	0	3.5487279892	-325.0	-379.0	-329.0	-376.0	1
3.0.1	2019_Mar_02_1407	s	s	4	1	Capacity	86	1_3	1	3	1	4	23_1_4	0	-1	1	0	1.17546582222	385.0	153.0	381.0	154.0	1
3.0.1	2019_Mar_02_1407	s	s	4	1	Capacity	87	1_1	1	1	1	2	23_1_2	0	1	1	0	6.65943193436	-491.0	-277.0	-491.0	-270.0	1
3.0.1	2019_Mar_02_1407	s	s	4	1	Capacity	88	1_1	1	1	1	4	23_1_4	0	3	1	0	0.672646999359	-120.0	172.0	-125.0	173.0	1
3.0.1	2019_Mar_02_1407	s	s	4	1	Capacity	89	1_4	1	4	1	2	23_1_2	0	2	1	0	1.1430850029	373.0	-155.0	375.0	-148.0	1
3.0.1	2019_Mar_02_1407	s	s	4	1	Capacity	90	1_3	1	3	1	1	23_1_1	0	2	1	0	0.99219918251	-485.0	-109.0	-479.0	-113.0	1
3.0.1	2019_Mar_02_1407	s	s	4	1	Capacity	91	ABS	0	0	1	3	24_1_3	NA	NA	0	1	14.8535330296	None	None	None	None	1
3.0.1	2019_Mar_02_1407	s	s	4	1	Capacity	92	1_2	1	2	1	4	23_1_4	0	2	1	0	1.16848802567	315.0	-363.0	314.0	-361.0	1
3.0.1	2019_Mar_02_1407	s	s	4	1	Capacity	93	ABS	0	0	1	3	24_1_3	NA	NA	0	1	15.8885900974	None	None	None	None	1
3.0.1	2019_Mar_02_1407	s	s	4	1	Capacity	94	ABS	0	0	1	4	24_1_4	NA	NA	0	1	6.00161099434	None	None	None	None	1
3.0.1	2019_Mar_02_1407	s	s	4	1	Capacity	95	ABS	0	0	1	1	24_1_1	NA	NA	0	1	8.3967320919	None	None	None	None	1
3.0.1	2019_Mar_02_1407	s	s	4	1	Capacity	96	ABS	0	0	1	2	24_1_2	NA	NA	0	1	16.1051619053	None	None	None	None	1
3.0.1	2019_Mar_02_1407	s	s	4	1	SIC	1	1_2	1	2	4	2	23_4_2	3	0	1	0	0.521167993546	-512.0	346.0	-516.0	347.0	1
3.0.1	2019_Mar_02_1407	s	s	4	1	SIC	2	4_3	4	3	4	2	23_4_2	0	1	1	0	2.13464784622	-175.0	360.0	-168.0	360.0	1
3.0.1	2019_Mar_02_1407	s	s	4	1	SIC	3	ABS	0	0	4	4	24_4_4	NA	NA	0	1	6.42097592354	None	None	None	None	1
3.0.1	2019_Mar_02_1407	s	s	4	1	SIC	4	2_1	2	1	3	2	23_3_2	1	1	1	0	0.604448080063	151.0	20.0	153.0	26.0	1
3.0.1	2019_Mar_02_1407	s	s	4	1	SIC	5	ABS	0	0	3	2	24_3_2	NA	NA	0	1	9.32587909698	None	None	None	None	1
3.0.1	2019_Mar_02_1407	s	s	4	1	SIC	6	4_2	4	2	2	4	23_2_4	2	2	1	0	0.599366903305	12.0	-333.0	5.0	-331.0	1
3.0.1	2019_Mar_02_1407	s	s	4	1	SIC	7	4_2	4	2	4	3	23_4_3	0	1	1	0	3.02195096016	469.0	-190.0	468.0	-199.0	1
3.0.1	2019_Mar_02_1407	s	s	4	1	SIC	8	ABS	0	0	1	3	24_1_3	NA	NA	0	1	9.21059203148	None	None	None	None	1
3.0.1	2019_Mar_02_1407	s	s	4	1	SIC	9	ABS	0	0	3	3	24_3_3	NA	NA	0	1	9.49350786209	None	None	None	None	1
3.0.1	2019_Mar_02_1407	s	s	4	1	SIC	10	1_2	1	2	4	3	23_4_3	3	1	1	0	0.592382907867	424.0	403.0	420.0	397.0	1
3.0.1	2019_Mar_02_1407	s	s	4	1	SIC	11	1_3	1	3	4	2	23_4_2	3	1	1	0	0.599128007889	121.0	-127.0	121.0	-132.0	1
3.0.1	2019_Mar_02_1407	s	s	4	1	SIC	12	ABS	0	0	3	2	24_3_2	NA	NA	0	1	10.6746170521	None	None	None	None	1
3.0.1	2019_Mar_02_1407	s	s	4	1	SIC	13	ABS	0	0	1	2	24_1_2	NA	NA	0	1	11.1419360638	None	None	None	None	1
3.0.1	2019_Mar_02_1407	s	s	4	1	SIC	14	ABS	0	0	2	4	24_2_4	NA	NA	0	1	7.5528819561	None	None	None	None	1
3.0.1	2019_Mar_02_1407	s	s	4	1	SIC	15	4_4	4	4	2	2	23_2_2	2	2	1	0	0.731462001801	-456.0	152.0	-462.0	154.0	1
3.0.1	2019_Mar_02_1407	s	s	4	1	SIC	16	ABS	0	0	4	1	24_4_1	NA	NA	0	1	8.34970402718	None	None	None	None	1
3.0.1	2019_Mar_02_1407	s	s	4	1	SIC	17	ABS	0	0	2	2	24_2_2	NA	NA	0	1	14.1010098457	None	None	None	None	1
3.0.1	2019_Mar_02_1407	s	s	4	1	SIC	18	ABS	0	0	3	4	24_3_4	NA	NA	0	1	8.56140089035	None	None	None	None	1
3.0.1	2019_Mar_02_1407	s	s	4	1	SIC	19	2_4	2	4	4	2	23_4_2	2	2	1	0	0.646194934845	261.0	388.0	263.0	375.0	1
3.0.1	2019_Mar_02_1407	s	s	4	1	SIC	20	ABS	0	0	4	3	24_4_3	NA	NA	0	1	9.47884106636	None	None	None	None	1
3.0.1	2019_Mar_02_1407	s	s	4	1	SIC	21	2_4	2	4	3	1	23_3_1	1	3	1	0	0.693219900131	323.0	381.0	325.0	382.0	1
3.0.1	2019_Mar_02_1407	s	s	4	1	SIC	22	ABS	0	0	2	3	24_2_3	NA	NA	0	1	15.1896619797	None	None	None	None	1
3.0.1	2019_Mar_02_1407	s	s	4	1	SIC	23	2_4	2	4	2	2	23_2_2	0	2	1	0	4.10769510269	501.0	307.0	500.0	309.0	1
3.0.1	2019_Mar_02_1407	s	s	4	1	SIC	24	ABS	0	0	3	2	24_3_2	NA	NA	0	1	11.8122880459	None	None	None	None	1
3.0.1	2019_Mar_02_1407	s	s	4	1	SIC	25	ABS	0	0	3	2	24_3_2	NA	NA	0	1	16.6413362026	None	None	None	None	1
3.0.1	2019_Mar_02_1407	s	s	4	1	SIC	26	ABS	0	0	3	1	24_3_1	NA	NA	0	1	8.10552477837	None	None	None	None	1
3.0.1	2019_Mar_02_1407	s	s	4	1	SIC	27	ABS	0	0	3	1	24_3_1	NA	NA	0	1	13.7438719273	None	None	None	None	1
3.0.1	2019_Mar_02_1407	s	s	4	1	SIC	28	ABS	0	0	2	2	24_2_2	NA	NA	0	1	17.8527479172	None	None	None	None	1
3.0.1	2019_Mar_02_1407	s	s	4	1	SIC	29	ABS	0	0	4	2	24_4_2	NA	NA	0	1	18.1468338966	None	None	None	None	1
3.0.1	2019_Mar_02_1407	s	s	4	1	SIC	30	4_3	4	3	2	3	23_2_3	2	0	1	0	0.629113912582	210.0	397.0	210.0	397.0	1
3.0.1	2019_Mar_02_1407	s	s	4	1	SIC	31	ABS	0	0	4	1	24_4_1	NA	NA	0	1	11.9332809448	None	None	None	None	1
3.0.1	2019_Mar_02_1407	s	s	4	1	SIC	32	ABS	0	0	2	1	24_2_1	NA	NA	0	1	13.076184988	None	None	None	None	1
3.0.1	2019_Mar_02_1407	s	s	4	1	SIC	33	2_3	2	3	3	4	23_3_4	1	-1	1	0	0.956705093384	467.0	395.0	460.0	395.0	1
3.0.1	2019_Mar_02_1407	s	s	4	1	SIC	34	4_4	4	4	4	2	23_4_2	0	2	1	0	0.534654855728	228.0	201.0	235.0	195.0	1
3.0.1	2019_Mar_02_1407	s	s	4	1	SIC	35	3_1	3	1	2	4	23_2_4	1	3	1	0	0.45228099823	-39.0	-62.0	-33.0	-66.0	1
3.0.1	2019_Mar_02_1407	s	s	4	1	SIC	36	4_2	4	2	4	4	23_4_4	0	2	1	0	0.587373971939	-60.0	162.0	-60.0	156.0	1
3.0.1	2019_Mar_02_1407	s	s	4	1	SIC	37	ABS	0	0	4	3	24_4_3	NA	NA	0	1	12.7183260918	None	None	None	None	1
3.0.1	2019_Mar_02_1407	s	s	4	1	SIC	38	ABS	0	0	1	4	24_1_4	NA	NA	0	1	6.53156900406	None	None	None	None	1
3.0.1	2019_Mar_02_1407	s	s	4	1	SIC	39	1_2	1	2	3	3	23_3_3	2	1	1	0	0.931499004364	434.0	-385.0	443.0	-384.0	1
3.0.1	2019_Mar_02_1407	s	s	4	1	SIC	40	ABS	0	0	1	1	24_1_1	NA	NA	0	1	7.31772613525	None	None	None	None	1
3.0.1	2019_Mar_02_1407	s	s	4	1	SIC	41	2_1	2	1	4	2	23_4_2	2	1	1	0	0.681495904922	332.0	138.0	336.0	145.0	1
3.0.1	2019_Mar_02_1407	s	s	4	1	SIC	42	2_3	2	3	4	1	23_4_1	2	2	1	0	0.464612007141	115.0	195.0	120.0	197.0	1
3.0.1	2019_Mar_02_1407	s	s	4	1	SIC	43	1_2	1	2	3	1	23_3_1	2	-1	1	0	0.446307897568	196.0	-202.0	196.0	-207.0	1
3.0.1	2019_Mar_02_1407	s	s	4	1	SIC	44	3_3	3	3	3	4	23_3_4	0	-1	1	0	1.76830887794	-283.0	332.0	-285.0	323.0	1
3.0.1	2019_Mar_02_1407	s	s	4	1	SIC	45	4_3	4	3	3	1	23_3_1	1	2	1	0	0.516817092896	-46.0	334.0	-45.0	325.0	1
3.0.1	2019_Mar_02_1407	s	s	4	1	SIC	46	ABS	0	0	4	3	24_4_3	NA	NA	0	1	10.5374138355	None	None	None	None	1
3.0.1	2019_Mar_02_1407	s	s	4	1	SIC	47	1_3	1	3	3	3	23_3_3	2	0	1	0	0.528604030609	-74.0	-84.0	-74.0	-86.0	1
3.0.1	2019_Mar_02_1407	s	s	4	1	SIC	48	ABS	0	0	3	3	24_3_3	NA	NA	0	1	11.878084898	None	None	None	None	1
3.0.1	2019_Mar_02_1407	s	s	4	1	SIC	49	4_3	4	3	2	1	23_2_1	2	2	1	0	0.579418897629	-274.0	-266.0	-267.0	-260.0	1
3.0.1	2019_Mar_02_1407	s	s	4	1	SIC	50	4_2	4	2	1	4	23_1_4	3	2	1	0	0.540446043015	93.0	-126.0	86.0	-119.0	1
3.0.1	2019_Mar_02_1407	s	s	4	1	SIC	51	ABS	0	0	3	4	24_3_4	NA	NA	0	1	9.65523409843	None	None	None	None	1
3.0.1	2019_Mar_02_1407	s	s	4	1	SIC	52	ABS	0	0	1	4	24_1_4	NA	NA	0	1	9.37293195724	None	None	None	None	1
3.0.1	2019_Mar_02_1407	s	s	4	1	SIC	53	ABS	0	0	1	3	24_1_3	NA	NA	0	1	19.8432350159	None	None	None	None	1
3.0.1	2019_Mar_02_1407	s	s	4	1	SIC	54	4_2	4	2	3	3	23_3_3	1	1	1	0	0.576012849808	161.0	-385.0	158.0	-398.0	1
3.0.1	2019_Mar_02_1407	s	s	4	1	SIC	55	3_1	3	1	4	1	23_4_1	-1	0	1	0	0.469769001007	-215.0	198.0	-217.0	193.0	1
3.0.1	2019_Mar_02_1407	s	s	4	1	SIC	56	2_4	2	4	4	4	23_4_4	2	0	1	0	0.451947927475	111.0	34.0	113.0	41.0	1
3.0.1	2019_Mar_02_1407	s	s	4	1	SIC	57	ABS	0	0	1	3	24_1_3	NA	NA	0	1	15.9709970951	None	None	None	None	1
3.0.1	2019_Mar_02_1407	s	s	4	1	SIC	58	ABS	0	0	3	1	24_3_1	NA	NA	0	1	10.4314689636	None	None	None	None	1
3.0.1	2019_Mar_02_1407	s	s	4	1	SIC	59	1_4	1	4	2	2	23_2_2	1	2	1	0	1.42245292664	9.0	-380.0	11.0	-381.0	1
3.0.1	2019_Mar_02_1407	s	s	4	1	SIC	60	ABS	0	0	3	3	24_3_3	NA	NA	0	1	17.9939148426	None	None	None	None	1
3.0.1	2019_Mar_02_1407	s	s	4	1	SIC	61	4_1	4	1	1	3	23_1_3	3	2	1	0	0.579392194748	-442.0	201.0	-439.0	193.0	1
3.0.1	2019_Mar_02_1407	s	s	4	1	SIC	62	ABS	0	0	1	3	24_1_3	NA	NA	0	1	11.610517025	None	None	None	None	1
3.0.1	2019_Mar_02_1407	s	s	4	1	SIC	63	ABS	0	0	3	3	24_3_3	NA	NA	0	1	11.278290987	None	None	None	None	1
3.0.1	2019_Mar_02_1407	s	s	4	1	SIC	64	1_1	1	1	4	1	23_4_1	3	0	1	0	0.552105903625	-459.0	-124.0	-455.0	-127.0	1
3.0.1	2019_Mar_02_1407	s	s	4	1	SIC	65	2_2	2	2	2	4	23_2_4	0	2	1	0	1.28132796288	472.0	260.0	467.0	255.0	1
3.0.1	2019_Mar_02_1407	s	s	4	1	SIC	66	ABS	0	0	2	3	24_2_3	NA	NA	0	1	13.223929882	None	None	None	None	1
3.0.1	2019_Mar_02_1407	s	s	4	1	SIC	67	2_2	2	2	2	1	23_2_1	0	-1	1	0	4.29666304588	-379.0	-199.0	-371.0	-197.0	1
3.0.1	2019_Mar_02_1407	s	s	4	1	SIC	68	1_3	1	3	3	4	23_3_4	2	-1	1	0	0.533710956573	-372.0	339.0	-370.0	332.0	1
3.0.1	2019_Mar_02_1407	s	s	4	1	SIC	69	ABS	0	0	4	3	24_4_3	NA	NA	0	1	19.4169769287	None	None	None	None	1
3.0.1	2019_Mar_02_1407	s	s	4	1	SIC	70	4_2	4	2	1	3	23_1_3	3	1	1	0	0.673022985458	43.0	32.0	48.0	30.0	1
3.0.1	2019_Mar_02_1407	s	s	4	1	SIC	71	ABS	0	0	4	2	24_4_2	NA	NA	0	1	8.62017798424	None	None	None	None	1
3.0.1	2019_Mar_02_1407	s	s	4	1	SIC	72	ABS	0	0	1	3	24_1_3	NA	NA	0	1	14.6889488697	None	None	None	None	1
3.0.1	2019_Mar_02_1407	s	s	4	1	SIC	73	ABS	0	0	3	4	24_3_4	NA	NA	0	1	8.76140713692	None	None	None	None	1
3.0.1	2019_Mar_02_1407	s	s	4	1	SIC	74	ABS	0	0	3	3	24_3_3	NA	NA	0	1	14.6566448212	None	None	None	None	1
3.0.1	2019_Mar_02_1407	s	s	4	1	SIC	75	1_3	1	3	3	1	23_3_1	2	2	1	0	0.569967985153	-157.0	258.0	-158.0	256.0	1
3.0.1	2019_Mar_02_1407	s	s	4	1	SIC	76	ABS	0	0	4	3	24_4_3	NA	NA	0	1	17.8057019711	None	None	None	None	1
3.0.1	2019_Mar_02_1407	s	s	4	1	SIC	77	ABS	0	0	2	1	24_2_1	NA	NA	0	1	14.2303290367	None	None	None	None	1
3.0.1	2019_Mar_02_1407	s	s	4	1	SIC	78	1_4	1	4	4	4	23_4_4	3	0	1	0	0.533626079559	292.0	107.0	293.0	100.0	1
3.0.1	2019_Mar_02_1407	s	s	4	1	SIC	79	1_4	1	4	1	2	23_1_2	0	2	1	0	1.3401389122	-90.0	-43.0	-84.0	-36.0	1
3.0.1	2019_Mar_02_1407	s	s	4	1	SIC	80	ABS	0	0	2	4	24_2_4	NA	NA	0	1	6.22092795372	None	None	None	None	1
3.0.1	2019_Mar_02_1407	s	s	4	1	SIC	81	ABS	0	0	3	3	24_3_3	NA	NA	0	1	11.3046600819	None	None	None	None	1
3.0.1	2019_Mar_02_1407	s	s	4	1	SIC	82	4_3	4	3	3	3	23_3_3	1	0	1	0	0.591229915619	171.0	106.0	166.0	104.0	1
3.0.1	2019_Mar_02_1407	s	s	4	1	SIC	83	ABS	0	0	1	2	24_1_2	NA	NA	0	1	11.1136879921	None	None	None	None	1
3.0.1	2019_Mar_02_1407	s	s	4	1	SIC	84	ABS	0	0	4	1	24_4_1	NA	NA	0	1	5.58585095406	None	None	None	None	1
3.0.1	2019_Mar_02_1407	s	s	4	1	SIC	85	2_2	2	2	3	4	23_3_4	1	2	1	0	0.737677097321	445.0	189.0	442.0	190.0	1
3.0.1	2019_Mar_02_1407	s	s	4	1	SIC	86	ABS	0	0	2	2	24_2_2	NA	NA	0	1	8.39956688881	None	None	None	None	1
3.0.1	2019_Mar_02_1407	s	s	4	1	SIC	87	ABS	0	0	4	3	24_4_3	NA	NA	0	1	8.48574709892	None	None	None	None	1
3.0.1	2019_Mar_02_1407	s	s	4	1	SIC	88	ABS	0	0	3	4	24_3_4	NA	NA	0	1	4.53915691376	None	None	None	None	1
3.0.1	2019_Mar_02_1407	s	s	4	1	SIC	89	ABS	0	0	2	3	24_2_3	NA	NA	0	1	10.2197520733	None	None	None	None	1
3.0.1	2019_Mar_02_1407	s	s	4	1	SIC	90	1_1	1	1	2	1	23_2_1	1	0	1	0	2.35155487061	174.0	-92.0	179.0	-92.0	1
3.0.1	2019_Mar_02_1407	s	s	4	1	SIC	91	4_1	4	1	1	1	23_1_1	3	0	1	0	0.58732008934	50.0	146.0	54.0	145.0	1
3.0.1	2019_Mar_02_1407	s	s	4	1	SIC	92	3_1	3	1	1	4	23_1_4	2	3	1	0	0.559827804565	-44.0	-75.0	-42.0	-74.0	1
3.0.1	2019_Mar_02_1407	s	s	4	1	SIC	93	ABS	0	0	2	3	24_2_3	NA	NA	0	1	11.3840839863	None	None	None	None	1
3.0.1	2019_Mar_02_1407	s	s	4	1	SIC	94	ABS	0	0	1	3	24_1_3	NA	NA	0	1	12.0785551071	None	None	None	None	1
3.0.1	2019_Mar_02_1407	s	s	4	1	SIC	95	ABS	0	0	4	2	24_4_2	NA	NA	0	1	9.50719308853	None	None	None	None	1
3.0.1	2019_Mar_02_1407	s	s	4	1	SIC	96	2_2	2	2	4	1	23_4_1	2	-1	1	0	0.552209854126	185.0	47.0	191.0	44.0	1
3.0.1	2019_Mar_02_1407	s	s	4	1	SIC	97	1_4	1	4	4	3	23_4_3	3	1	1	0	0.437384128571	80.0	-312.0	77.0	-311.0	1
3.0.1	2019_Mar_02_1407	s	s	4	1	SIC	98	ABS	0	0	2	2	24_2_2	NA	NA	0	1	7.70750594139	None	None	None	None	1
3.0.1	2019_Mar_02_1407	s	s	4	1	SIC	99	ABS	0	0	1	4	24_1_4	NA	NA	0	1	5.64469504356	None	None	None	None	1
3.0.1	2019_Mar_02_1407	s	s	4	1	SIC	100	3_1	3	1	1	3	23_1_3	2	2	1	0	0.705059051514	-504.0	-129.0	-510.0	-133.0	1
3.0.1	2019_Mar_02_1407	s	s	4	1	SIC	101	ABS	0	0	2	2	24_2_2	NA	NA	0	1	9.4601919651	None	None	None	None	1
3.0.1	2019_Mar_02_1407	s	s	4	1	SIC	102	ABS	0	0	1	1	24_1_1	NA	NA	0	1	7.36184215546	None	None	None	None	1
3.0.1	2019_Mar_02_1407	s	s	4	1	SIC	103	4_1	4	1	3	3	23_3_3	1	2	1	0	0.695911884308	-443.0	26.0	-447.0	25.0	1
3.0.1	2019_Mar_02_1407	s	s	4	1	SIC	104	ABS	0	0	1	3	24_1_3	NA	NA	0	1	11.318434	None	None	None	None	1
3.0.1	2019_Mar_02_1407	s	s	4	1	SIC	105	4_1	4	1	2	1	23_2_1	2	0	1	0	0.678910017014	-173.0	-362.0	-179.0	-358.0	1
3.0.1	2019_Mar_02_1407	s	s	4	1	SIC	106	3_4	3	4	4	3	23_4_3	-1	1	1	0	0.634443998337	472.0	257.0	468.0	257.0	1
3.0.1	2019_Mar_02_1407	s	s	4	1	SIC	107	4_1	4	1	1	4	23_1_4	3	3	1	0	0.387423992157	-395.0	140.0	-399.0	134.0	1
3.0.1	2019_Mar_02_1407	s	s	4	1	SIC	108	ABS	0	0	2	4	24_2_4	NA	NA	0	1	8.7527141571	None	None	None	None	1
3.0.1	2019_Mar_02_1407	s	s	4	1	SIC	109	ABS	0	0	1	2	24_1_2	NA	NA	0	1	9.76107501984	None	None	None	None	1
3.0.1	2019_Mar_02_1407	s	s	4	1	SIC	110	3_1	3	1	2	1	23_2_1	1	0	1	0	0.505053043365	-274.0	121.0	-278.0	119.0	1
3.0.1	2019_Mar_02_1407	s	s	4	1	SIC	111	ABS	0	0	4	4	24_4_4	NA	NA	0	1	7.7968890667	None	None	None	None	1
3.0.1	2019_Mar_02_1407	s	s	4	1	SIC	112	3_4	3	4	2	3	23_2_3	1	1	1	0	0.646281957626	-176.0	-163.0	-177.0	-157.0	1
3.0.1	2019_Mar_02_1407	s	s	4	1	SIC	113	2_3	2	3	1	4	23_1_4	-1	-1	1	0	1.09906387329	252.0	22.0	248.0	15.0	1
3.0.1	2019_Mar_02_1407	s	s	4	1	SIC	114	4_2	4	2	3	4	23_3_4	1	2	1	0	0.45805311203	321.0	-40.0	326.0	-43.0	1
3.0.1	2019_Mar_02_1407	s	s	4	1	SIC	115	ABS	0	0	3	4	24_3_4	NA	NA	0	1	9.36721277237	None	None	None	None	1
3.0.1	2019_Mar_02_1407	s	s	4	1	SIC	116	4_4	4	4	2	3	23_2_3	2	1	1	0	0.446311235428	319.0	-369.0	316.0	-381.0	1
3.0.1	2019_Mar_02_1407	s	s	4	1	SIC	117	ABS	0	0	4	1	24_4_1	NA	NA	0	1	7.43527698517	None	None	None	None	1
3.0.1	2019_Mar_02_1407	s	s	4	1	SIC	118	ABS	0	0	2	4	24_2_4	NA	NA	0	1	5.10647296906	None	None	None	None	1
3.0.1	2019_Mar_02_1407	s	s	4	1	SIC	119	4_4	4	4	1	1	23_1_1	3	3	1	0	0.427891016006	187.0	-398.0	186.0	-394.0	1
3.0.1	2019_Mar_02_1407	s	s	4	1	SIC	120	3_1	3	1	3	3	23_3_3	0	2	1	0	1.51082897186	26.0	203.0	28.0	210.0	1
3.0.1	2019_Mar_02_1407	s	s	4	1	SIC	121	4_4	4	4	3	3	23_3_3	1	1	1	0	0.425541877747	-303.0	350.0	-308.0	347.0	1
3.0.1	2019_Mar_02_1407	s	s	4	1	SIC	122	4_1	4	1	4	2	23_4_2	0	1	1	0	3.83353495598	435.0	-145.0	436.0	-146.0	1
3.0.1	2019_Mar_02_1407	s	s	4	1	SIC	123	ABS	0	0	4	4	24_4_4	NA	NA	0	1	10.4958279133	None	None	None	None	1
3.0.1	2019_Mar_02_1407	s	s	4	1	SIC	124	4_4	4	4	1	3	23_1_3	3	1	1	0	0.410928964615	-127.0	138.0	-125.0	127.0	1
3.0.1	2019_Mar_02_1407	s	s	4	1	SIC	125	ABS	0	0	2	3	24_2_3	NA	NA	0	0	-1	None	None	None	None	-1
3.0.1	2019_Mar_02_1407	s	s	4	1	SIC	126	ABS	0	0	4	4	24_4_4	NA	NA	0	1	3.56341505051	None	None	None	None	1
3.0.1	2019_Mar_02_1407	s	s	4	1	SIC	127	ABS	0	0	2	4	24_2_4	NA	NA	0	1	7.15292692184	None	None	None	None	1
3.0.1	2019_Mar_02_1407	s	s	4	1	SIC	128	ABS	0	0	4	4	24_4_4	NA	NA	0	1	5.1479408741	None	None	None	None	1
3.0.1	2019_Mar_02_1407	s	s	4	1	SIC	129	ABS	0	0	3	1	24_3_1	NA	NA	0	1	6.57384896278	None	None	None	None	1
3.0.1	2019_Mar_02_1407	s	s	4	1	SIC	130	2_4	2	4	1	4	23_1_4	-1	0	1	0	1.90856003761	346.0	-102.0	343.0	-105.0	1
3.0.1	2019_Mar_02_1407	s	s	4	1	SIC	131	ABS	0	0	3	1	24_3_1	NA	NA	0	1	6.53855895996	None	None	None	None	1
3.0.1	2019_Mar_02_1407	s	s	4	1	SIC	132	ABS	0	0	2	4	24_2_4	NA	NA	0	1	6.9125790596	None	None	None	None	1
3.0.1	2019_Mar_02_1407	s	s	4	1	SIC	133	3_4	3	4	1	1	23_1_1	2	3	1	0	0.590617895126	388.0	-141.0	378.0	-138.0	1
3.0.1	2019_Mar_02_1407	s	s	4	1	SIC	134	ABS	0	0	4	4	24_4_4	NA	NA	0	1	5.7466199398	None	None	None	None	1
3.0.1	2019_Mar_02_1407	s	s	4	1	SIC	135	3_3	3	3	4	3	23_4_3	-1	0	1	0	0.564126014709	145.0	407.0	144.0	407.0	1
3.0.1	2019_Mar_02_1407	s	s	4	1	SIC	136	ABS	0	0	3	2	24_3_2	NA	NA	0	1	11.842828989	None	None	None	None	1
3.0.1	2019_Mar_02_1407	s	s	4	1	SIC	137	ABS	0	0	3	3	24_3_3	NA	NA	0	1	8.86119699478	None	None	None	None	1
3.0.1	2019_Mar_02_1407	s	s	4	1	SIC	138	ABS	0	0	1	2	24_1_2	NA	NA	0	1	8.66103601456	None	None	None	None	1
3.0.1	2019_Mar_02_1407	s	s	4	1	SIC	139	2_4	2	4	4	1	23_4_1	2	3	1	0	0.532885074615	-450.0	-350.0	-441.0	-353.0	1
3.0.1	2019_Mar_02_1407	s	s	4	1	SIC	140	3_2	3	2	1	4	23_1_4	2	2	1	0	0.481575965881	261.0	-104.0	266.0	-98.0	1
3.0.1	2019_Mar_02_1407	s	s	4	1	SIC	141	4_3	4	3	1	1	23_1_1	3	2	1	0	0.387511014938	412.0	-252.0	413.0	-247.0	1
3.0.1	2019_Mar_02_1407	s	s	4	1	SIC	142	2_1	2	1	4	1	23_4_1	2	0	1	0	0.469799995422	-230.0	-239.0	-232.0	-242.0	1
3.0.1	2019_Mar_02_1407	s	s	4	1	SIC	143	ABS	0	0	2	4	24_2_4	NA	NA	0	1	11.0547330379	None	None	None	None	1
3.0.1	2019_Mar_02_1407	s	s	4	1	SIC	144	ABS	0	0	1	1	24_1_1	NA	NA	0	1	7.58566784859	None	None	None	None	1
3.0.1	2019_Mar_02_1407	s	s	4	1	SIC	145	2_4	2	4	2	1	23_2_1	0	3	1	0	0.834388017654	388.0	-75.0	379.0	-76.0	1
3.0.1	2019_Mar_02_1407	s	s	4	1	SIC	146	ABS	0	0	4	2	24_4_2	NA	NA	0	1	11.1067659855	None	None	None	None	1
3.0.1	2019_Mar_02_1407	s	s	4	1	SIC	147	1_3	1	3	4	4	23_4_4	3	-1	1	0	0.427860975266	-324.0	389.0	-319.0	386.0	1
3.0.1	2019_Mar_02_1407	s	s	4	1	SIC	148	3_1	3	1	1	1	23_1_1	2	0	1	0	0.540364980698	487.0	273.0	486.0	269.0	1
3.0.1	2019_Mar_02_1407	s	s	4	1	SIC	149	ABS	0	0	4	1	24_4_1	NA	NA	0	1	6.45622110367	None	None	None	None	1
3.0.1	2019_Mar_02_1407	s	s	4	1	SIC	150	2_3	2	3	2	1	23_2_1	0	2	1	0	1.02681994438	373.0	65.0	369.0	64.0	1
3.0.1	2019_Mar_02_1407	s	s	4	1	SIC	151	ABS	0	0	3	4	24_3_4	NA	NA	0	1	5.73480987549	None	None	None	None	1
3.0.1	2019_Mar_02_1407	s	s	4	1	SIC	152	1_4	1	4	2	1	23_2_1	1	3	1	0	1.05779719353	-374.0	408.0	-366.0	402.0	1
3.0.1	2019_Mar_02_1407	s	s	4	1	SIC	153	1_3	1	3	4	1	23_4_1	3	2	1	0	0.39305305481	-484.0	158.0	-493.0	160.0	1
3.0.1	2019_Mar_02_1407	s	s	4	1	SIC	154	ABS	0	0	1	2	24_1_2	NA	NA	0	1	9.6435379982	None	None	None	None	1
3.0.1	2019_Mar_02_1407	s	s	4	1	SIC	155	3_4	3	4	4	2	23_4_2	-1	2	1	0	0.474238872528	-122.0	-85.0	-119.0	-87.0	1
3.0.1	2019_Mar_02_1407	s	s	4	1	SIC	156	4_4	4	4	1	4	23_1_4	3	0	1	0	0.410969018936	-176.0	163.0	-177.0	163.0	1
3.0.1	2019_Mar_02_1407	s	s	4	1	SIC	157	ABS	0	0	1	4	24_1_4	NA	NA	0	1	8.69918894768	None	None	None	None	1
3.0.1	2019_Mar_02_1407	s	s	4	1	SIC	158	1_3	1	3	2	1	23_2_1	1	2	1	0	0.540458917618	-121.0	-32.0	-115.0	-30.0	1
3.0.1	2019_Mar_02_1407	s	s	4	1	SIC	159	ABS	0	0	1	4	24_1_4	NA	NA	0	1	12.1179959774	None	None	None	None	1
3.0.1	2019_Mar_02_1407	s	s	4	1	SIC	160	4_3	4	3	3	2	23_3_2	1	1	1	0	0.498572826385	432.0	-91.0	431.0	-93.0	1
3.0.1	2019_Mar_02_1407	s	s	4	1	SIC	161	2_2	2	2	4	4	23_4_4	2	2	1	0	0.363980054855	-197.0	-49.0	-194.0	-50.0	1
3.0.1	2019_Mar_02_1407	s	s	4	1	SIC	162	ABS	0	0	2	1	24_2_1	NA	NA	0	1	11.5017950535	None	None	None	None	1
3.0.1	2019_Mar_02_1407	s	s	4	1	SIC	163	1_3	1	3	3	2	23_3_2	2	1	1	0	0.73646402359	532.0	356.0	524.0	353.0	1
3.0.1	2019_Mar_02_1407	s	s	4	1	SIC	164	ABS	0	0	4	2	24_4_2	NA	NA	0	1	9.20819997787	None	None	None	None	1
3.0.1	2019_Mar_02_1407	s	s	4	1	SIC	165	ABS	0	0	4	3	24_4_3	NA	NA	0	1	13.5298280716	None	None	None	None	1
3.0.1	2019_Mar_02_1407	s	s	4	1	SIC	166	ABS	0	0	1	1	24_1_1	NA	NA	0	1	6.08281302452	None	None	None	None	1
3.0.1	2019_Mar_02_1407	s	s	4	1	SIC	167	ABS	0	0	2	1	24_2_1	NA	NA	0	1	9.63656282425	None	None	None	None	1
3.0.1	2019_Mar_02_1407	s	s	4	1	SIC	168	1_2	1	2	1	4	23_1_4	0	2	1	0	1.1313290596	397.0	-228.0	395.0	-221.0	1
3.0.1	2019_Mar_02_1407	s	s	4	1	SIC	169	2_4	2	4	3	4	23_3_4	1	0	1	0	0.437378883362	-70.0	34.0	-77.0	34.0	1
3.0.1	2019_Mar_02_1407	s	s	4	1	SIC	170	1_1	1	1	1	4	23_1_4	0	3	1	0	1.02254700661	112.0	-386.0	122.0	-386.0	1
3.0.1	2019_Mar_02_1407	s	s	4	1	SIC	171	4_2	4	2	2	2	23_2_2	2	0	1	0	0.403777837753	138.0	390.0	135.0	393.0	1
3.0.1	2019_Mar_02_1407	s	s	4	1	SIC	172	ABS	0	0	2	1	24_2_1	NA	NA	0	1	12.8542039394	None	None	None	None	1
3.0.1	2019_Mar_02_1407	s	s	4	1	SIC	173	ABS	0	0	3	1	24_3_1	NA	NA	0	1	7.3777589798	None	None	None	None	1
3.0.1	2019_Mar_02_1407	s	s	4	1	SIC	174	2_1	2	1	1	1	23_1_1	-1	0	0	1	9.56535100937	401.0	192.0	None	None	0
3.0.1	2019_Mar_02_1407	s	s	4	1	SIC	175	ABS	0	0	1	3	24_1_3	NA	NA	0	1	13.14230299	None	None	None	None	1
3.0.1	2019_Mar_02_1407	s	s	4	1	SIC	176	ABS	0	0	1	4	24_1_4	NA	NA	0	1	10.3844559193	None	None	None	None	1
3.0.1	2019_Mar_02_1407	s	s	4	1	SIC	177	ABS	0	0	4	2	24_4_2	NA	NA	0	1	13.9832987785	None	None	None	None	1
3.0.1	2019_Mar_02_1407	s	s	4	1	SIC	178	ABS	0	0	2	1	24_2_1	NA	NA	0	1	7.30338191986	None	None	None	None	1
3.0.1	2019_Mar_02_1407	s	s	4	1	SIC	179	1_1	1	1	4	4	23_4_4	3	3	1	0	0.481575012207	-51.0	-291.0	-55.0	-296.0	1
3.0.1	2019_Mar_02_1407	s	s	4	1	SIC	180	ABS	0	0	3	3	24_3_3	NA	NA	0	1	12.546683073	None	None	None	None	1
3.0.1	2019_Mar_02_1407	s	s	4	1	SIC	181	4_4	4	4	4	1	23_4_1	0	3	1	0	1.25404906273	467.0	-302.0	466.0	-307.0	1
3.0.1	2019_Mar_02_1407	s	s	4	1	SIC	182	1_4	1	4	3	3	23_3_3	2	1	1	0	0.414716959	-209.0	-181.0	-209.0	-189.0	1
3.0.1	2019_Mar_02_1407	s	s	4	1	SIC	183	2_1	2	1	2	4	23_2_4	0	3	1	0	0.481564998627	-88.0	-244.0	-87.0	-252.0	1
3.0.1	2019_Mar_02_1407	s	s	4	1	SIC	184	ABS	0	0	4	4	24_4_4	NA	NA	0	1	7.99121499062	None	None	None	None	1
3.0.1	2019_Mar_02_1407	s	s	4	1	SIC	185	ABS	0	0	3	2	24_3_2	NA	NA	0	1	13.7011528015	None	None	None	None	1
3.0.1	2019_Mar_02_1407	s	s	4	1	SIC	186	2_2	2	2	3	3	23_3_3	1	1	1	0	0.857949972153	534.0	-317.0	536.0	-320.0	1
3.0.1	2019_Mar_02_1407	s	s	4	1	SIC	187	ABS	0	0	3	4	24_3_4	NA	NA	0	1	7.06214690208	None	None	None	None	1
3.0.1	2019_Mar_02_1407	s	s	4	1	SIC	188	ABS	0	0	3	2	24_3_2	NA	NA	0	1	11.7805328369	None	None	None	None	1
3.0.1	2019_Mar_02_1407	s	s	4	1	SIC	189	4_1	4	1	4	4	23_4_4	0	3	1	0	0.651079893112	-335.0	353.0	-340.0	348.0	1
3.0.1	2019_Mar_02_1407	s	s	4	1	SIC	190	ABS	0	0	4	4	24_4_4	NA	NA	0	1	7.13287806511	None	None	None	None	1
3.0.1	2019_Mar_02_1407	s	s	4	1	SIC	191	3_2	3	2	1	2	23_1_2	2	0	1	0	0.606068134308	-360.0	-406.0	-349.0	-398.0	1
3.0.1	2019_Mar_02_1407	s	s	4	1	SIC	192	ABS	0	0	2	4	24_2_4	NA	NA	0	1	12.4074177742	None	None	None	None	1
3.0.1	2019_Mar_02_1407	s	s	4	1	SIC	193	3_1	3	1	1	2	23_1_2	2	1	1	0	0.775625944138	-95.0	375.0	-95.0	365.0	1
3.0.1	2019_Mar_02_1407	s	s	4	1	SIC	194	ABS	0	0	4	2	24_4_2	NA	NA	0	1	10.6431260109	None	None	None	None	1
3.0.1	2019_Mar_02_1407	s	s	4	1	SIC	195	1_1	1	1	3	1	23_3_1	2	0	1	0	0.534339904785	-323.0	-174.0	-324.0	-179.0	1
3.0.1	2019_Mar_02_1407	s	s	4	1	SIC	196	1_2	1	2	1	1	23_1_1	0	-1	0	1	5.18609189987	138.0	-320.0	None	None	0
3.0.1	2019_Mar_02_1407	s	s	4	1	SIC	197	ABS	0	0	1	1	24_1_1	NA	NA	0	1	6.69143104553	None	None	None	None	1
3.0.1	2019_Mar_02_1407	s	s	4	1	SIC	198	ABS	0	0	4	2	24_4_2	NA	NA	0	1	11.070966959	None	None	None	None	1
3.0.1	2019_Mar_02_1407	s	s	4	1	SIC	199	ABS	0	0	3	3	24_3_3	NA	NA	0	1	15.9474890232	None	None	None	None	1
3.0.1	2019_Mar_02_1407	s	s	4	1	SIC	200	4_1	4	1	4	3	23_4_3	0	2	1	0	1.65771198273	366.0	-32.0	370.0	-30.0	1
3.0.1	2019_Mar_02_1407	s	s	4	1	SIC	201	1_1	1	1	1	3	23_1_3	0	2	1	0	1.70977091789	204.0	288.0	202.0	284.0	1
3.0.1	2019_Mar_02_1407	s	s	4	1	SIC	202	1_2	1	2	4	4	23_4_4	3	2	1	0	0.437361955643	232.0	132.0	240.0	140.0	1
3.0.1	2019_Mar_02_1407	s	s	4	1	SIC	203	ABS	0	0	2	1	24_2_1	NA	NA	0	1	8.30274105072	None	None	None	None	1
3.0.1	2019_Mar_02_1407	s	s	4	1	SIC	204	2_3	2	3	4	2	23_4_2	2	1	1	0	0.422788143158	-380.0	295.0	-379.0	293.0	1
3.0.1	2019_Mar_02_1407	s	s	4	1	SIC	205	ABS	0	0	1	4	24_1_4	NA	NA	0	1	4.249958992	None	None	None	None	1
3.0.1	2019_Mar_02_1407	s	s	4	1	SIC	206	1_1	1	1	4	3	23_4_3	3	2	1	0	0.378598928452	22.0	-6.0	19.0	-10.0	1
3.0.1	2019_Mar_02_1407	s	s	4	1	SIC	207	3_1	3	1	4	3	23_4_3	-1	2	1	0	0.41520190239	-177.0	299.0	-186.0	296.0	1
3.0.1	2019_Mar_02_1407	s	s	4	1	SIC	208	ABS	0	0	4	2	24_4_2	NA	NA	0	1	14.67009902	None	None	None	None	1
3.0.1	2019_Mar_02_1407	s	s	4	1	SIC	209	3_4	3	4	2	1	23_2_1	1	3	1	0	0.634412050247	244.0	206.0	244.0	202.0	1
3.0.1	2019_Mar_02_1407	s	s	4	1	SIC	210	3_2	3	2	2	2	23_2_2	1	0	1	0	0.517178058624	-406.0	-352.0	-401.0	-363.0	1
3.0.1	2019_Mar_02_1407	s	s	4	1	SIC	211	ABS	0	0	2	3	24_2_3	NA	NA	0	1	19.1729879379	None	None	None	None	1
3.0.1	2019_Mar_02_1407	s	s	4	1	SIC	212	1_3	1	3	2	2	23_2_2	1	1	1	0	1.71651792526	54.0	50.0	50.0	51.0	1
3.0.1	2019_Mar_02_1407	s	s	4	1	SIC	213	4_1	4	1	3	4	23_3_4	1	3	1	0	0.540331125259	458.0	-297.0	460.0	-301.0	1
3.0.1	2019_Mar_02_1407	s	s	4	1	SIC	214	ABS	0	0	4	3	24_4_3	NA	NA	0	1	9.408244133	None	None	None	None	1
3.0.1	2019_Mar_02_1407	s	s	4	1	SIC	215	ABS	0	0	4	1	24_4_1	NA	NA	0	1	4.53539609909	None	None	None	None	1
3.0.1	2019_Mar_02_1407	s	s	4	1	SIC	216	1_1	1	1	3	4	23_3_4	2	3	1	0	0.687205076218	-11.0	307.0	-9.0	304.0	1
3.0.1	2019_Mar_02_1407	s	s	4	1	SIC	217	3_1	3	1	4	2	23_4_2	-1	1	1	0	0.481561899185	150.0	333.0	153.0	334.0	1
3.0.1	2019_Mar_02_1407	s	s	4	1	SIC	218	ABS	0	0	3	4	24_3_4	NA	NA	0	1	8.27409005165	None	None	None	None	1
3.0.1	2019_Mar_02_1407	s	s	4	1	SIC	219	4_2	4	2	2	1	23_2_1	2	-1	1	0	0.381695985794	-135.0	127.0	-143.0	124.0	1
3.0.1	2019_Mar_02_1407	s	s	4	1	SIC	220	1_4	1	4	1	1	23_1_1	0	3	1	0	0.650321960449	-160.0	278.0	-163.0	272.0	1
3.0.1	2019_Mar_02_1407	s	s	4	1	SIC	221	ABS	0	0	4	4	24_4_4	NA	NA	0	1	8.06752800941	None	None	None	None	1
3.0.1	2019_Mar_02_1407	s	s	4	1	SIC	222	ABS	0	0	2	2	24_2_2	NA	NA	0	1	11.0167808533	None	None	None	None	1
3.0.1	2019_Mar_02_1407	s	s	4	1	SIC	223	3_2	3	2	2	4	23_2_4	1	2	1	0	0.516790866852	225.0	74.0	229.0	72.0	1
3.0.1	2019_Mar_02_1407	s	s	4	1	SIC	224	3_2	3	2	4	4	23_4_4	-1	2	1	0	0.428022146225	-332.0	-114.0	-332.0	-117.0	1
3.0.1	2019_Mar_02_1407	s	s	4	1	SIC	225	3_4	3	4	1	4	23_1_4	2	0	1	0	0.505057096481	347.0	-299.0	348.0	-311.0	1
3.0.1	2019_Mar_02_1407	s	s	4	1	SIC	226	ABS	0	0	3	3	24_3_3	NA	NA	0	1	10.7255208492	None	None	None	None	1
3.0.1	2019_Mar_02_1407	s	s	4	1	SIC	227	4_3	4	3	1	4	23_1_4	3	-1	1	0	0.427614927292	285.0	103.0	285.0	103.0	1
3.0.1	2019_Mar_02_1407	s	s	4	1	SIC	228	2_2	2	2	1	1	23_1_1	-1	-1	1	0	3.15742492676	12.0	119.0	22.0	119.0	1
3.0.1	2019_Mar_02_1407	s	s	4	1	SIC	229	ABS	0	0	1	2	24_1_2	NA	NA	0	1	9.80805492401	None	None	None	None	1
3.0.1	2019_Mar_02_1407	s	s	4	1	SIC	230	4_4	4	4	2	4	23_2_4	2	0	1	0	0.429304838181	287.0	40.0	279.0	40.0	1
3.0.1	2019_Mar_02_1407	s	s	4	1	SIC	231	ABS	0	0	3	1	24_3_1	NA	NA	0	1	4.96539998055	None	None	None	None	1
3.0.1	2019_Mar_02_1407	s	s	4	1	SIC	232	ABS	0	0	2	3	24_2_3	NA	NA	0	1	10.5725390911	None	None	None	None	1
3.0.1	2019_Mar_02_1407	s	s	4	1	SIC	233	ABS	0	0	2	4	24_2_4	NA	NA	0	1	11.1436460018	None	None	None	None	1
3.0.1	2019_Mar_02_1407	s	s	4	1	SIC	234	ABS	0	0	2	3	24_2_3	NA	NA	0	1	9.31709980965	None	None	None	None	1
3.0.1	2019_Mar_02_1407	s	s	4	1	SIC	235	ABS	0	0	2	1	24_2_1	NA	NA	0	1	5.4095249176	None	None	None	None	1
3.0.1	2019_Mar_02_1407	s	s	4	1	SIC	236	2_2	2	2	1	4	23_1_4	-1	2	1	0	0.907957077026	-176.0	308.0	-175.0	304.0	1
3.0.1	2019_Mar_02_1407	s	s	4	1	SIC	237	3_1	3	1	4	4	23_4_4	-1	3	1	0	0.686600923538	-1.0	371.0	-3.0	366.0	1
3.0.1	2019_Mar_02_1407	s	s	4	1	SIC	238	3_2	3	2	4	1	23_4_1	-1	-1	1	0	0.438382148743	-514.0	307.0	-525.0	314.0	1
3.0.1	2019_Mar_02_1407	s	s	4	1	SIC	239	1_2	1	2	3	4	23_3_4	2	2	1	0	0.540312051773	-342.0	62.0	-348.0	64.0	1
3.0.1	2019_Mar_02_1407	s	s	4	1	SIC	240	4_4	4	4	4	3	23_4_3	0	1	1	0	1.15683102608	-210.0	16.0	-213.0	13.0	1
3.0.1	2019_Mar_02_1407	s	s	4	1	SIC	241	ABS	0	0	4	3	24_4_3	NA	NA	0	1	6.31983804703	None	None	None	None	1
3.0.1	2019_Mar_02_1407	s	s	4	1	SIC	242	ABS	0	0	2	2	24_2_2	NA	NA	0	1	7.39714312553	None	None	None	None	1
3.0.1	2019_Mar_02_1407	s	s	4	1	SIC	243	2_3	2	3	4	3	23_4_3	2	0	1	0	0.48744893074	148.0	296.0	139.0	300.0	1
3.0.1	2019_Mar_02_1407	s	s	4	1	SIC	244	ABS	0	0	1	4	24_1_4	NA	NA	0	1	6.34327697754	None	None	None	None	1
3.0.1	2019_Mar_02_1407	s	s	4	1	SIC	245	ABS	0	0	2	2	24_2_2	NA	NA	0	1	5.88476395607	None	None	None	None	1
3.0.1	2019_Mar_02_1407	s	s	4	1	SIC	246	3_1	3	1	2	3	23_2_3	1	2	1	0	0.613854885101	95.0	371.0	93.0	370.0	1
3.0.1	2019_Mar_02_1407	s	s	4	1	SIC	247	ABS	0	0	1	2	24_1_2	NA	NA	0	1	5.91097998619	None	None	None	None	1
3.0.1	2019_Mar_02_1407	s	s	4	1	SIC	248	ABS	0	0	1	2	24_1_2	NA	NA	0	1	6.52675199509	None	None	None	None	1
3.0.1	2019_Mar_02_1407	s	s	4	1	SIC	249	3_1	3	1	3	4	23_3_4	0	3	1	0	0.721642971039	153.0	-300.0	151.0	-312.0	1
3.0.1	2019_Mar_02_1407	s	s	4	1	SIC	250	ABS	0	0	3	4	24_3_4	NA	NA	0	1	2.85070705414	None	None	None	None	1
3.0.1	2019_Mar_02_1407	s	s	4	1	SIC	251	3_3	3	3	3	2	23_3_2	0	1	1	0	1.99876093864	-25.0	-197.0	-20.0	-189.0	1
3.0.1	2019_Mar_02_1407	s	s	4	1	SIC	252	2_2	2	2	4	3	23_4_3	2	1	1	0	0.446597099304	-454.0	349.0	-460.0	346.0	1
3.0.1	2019_Mar_02_1407	s	s	4	1	SIC	253	1_4	1	4	1	3	23_1_3	0	1	1	0	1.14309597015	20.0	337.0	24.0	339.0	1
3.0.1	2019_Mar_02_1407	s	s	4	1	SIC	254	ABS	0	0	3	4	24_3_4	NA	NA	0	1	4.28040790558	None	None	None	None	1
3.0.1	2019_Mar_02_1407	s	s	4	1	SIC	255	ABS	0	0	4	1	24_4_1	NA	NA	0	1	2.86241388321	None	None	None	None	1
3.0.1	2019_Mar_02_1407	s	s	4	1	SIC	256	ABS	0	0	1	1	24_1_1	NA	NA	0	1	3.86877703667	None	None	None	None	1
3.0.1	2019_Mar_02_1407	s	s	4	1	SIC	257	ABS	0	0	1	1	24_1_1	NA	NA	0	1	5.00957894325	None	None	None	None	1
3.0.1	2019_Mar_02_1407	s	s	4	1	SIC	258	3_4	3	4	1	3	23_1_3	2	1	1	0	0.528605937958	-12.0	55.0	-9.0	49.0	1
3.0.1	2019_Mar_02_1407	s	s	4	1	SIC	259	ABS	0	0	3	1	24_3_1	NA	NA	0	1	3.93936085701	None	None	None	None	1
3.0.1	2019_Mar_02_1407	s	s	4	1	SIC	260	ABS	0	0	2	2	24_2_2	NA	NA	0	1	8.65557384491	None	None	None	None	1
3.0.1	2019_Mar_02_1407	s	s	4	1	SIC	261	4_2	4	2	2	3	23_2_3	2	1	1	0	0.496176958084	-72.0	-96.0	-64.0	-96.0	1
3.0.1	2019_Mar_02_1407	s	s	4	1	SIC	262	ABS	0	0	3	1	24_3_1	NA	NA	0	1	3.8843960762	None	None	None	None	1
3.0.1	2019_Mar_02_1407	s	s	4	1	SIC	263	2_4	2	4	3	2	23_3_2	1	2	1	0	0.75207400322	-453.0	339.0	-458.0	333.0	1
3.0.1	2019_Mar_02_1407	s	s	4	1	SIC	264	2_4	2	4	1	1	23_1_1	-1	3	1	0	0.792693138123	-473.0	-151.0	-482.0	-148.0	1
3.0.1	2019_Mar_02_1407	s	s	4	1	SIC	265	4_1	4	1	3	1	23_3_1	1	0	1	0	0.481538057327	155.0	318.0	158.0	322.0	1
3.0.1	2019_Mar_02_1407	s	s	4	1	SIC	266	ABS	0	0	4	2	24_4_2	NA	NA	0	1	9.20683407784	None	None	None	None	1
3.0.1	2019_Mar_02_1407	s	s	4	1	SIC	267	ABS	0	0	1	1	24_1_1	NA	NA	0	1	4.5539829731	None	None	None	None	1
3.0.1	2019_Mar_02_1407	s	s	4	1	SIC	268	ABS	0	0	3	2	24_3_2	NA	NA	0	1	4.75474715233	None	None	None	None	1
3.0.1	2019_Mar_02_1407	s	s	4	1	SIC	269	ABS	0	0	4	2	24_4_2	NA	NA	0	1	8.25860881805	None	None	None	None	1
3.0.1	2019_Mar_02_1407	s	s	4	1	SIC	270	4_1	4	1	1	2	23_1_2	3	1	1	0	0.516805171967	-133.0	271.0	-136.0	267.0	1
3.0.1	2019_Mar_02_1407	s	s	4	1	SIC	271	ABS	0	0	4	1	24_4_1	NA	NA	0	1	2.61315608025	None	None	None	None	1
3.0.1	2019_Mar_02_1407	s	s	4	1	SIC	272	3_3	3	3	4	1	23_4_1	-1	2	1	0	0.470173835754	-401.0	22.0	-394.0	19.0	1
3.0.1	2019_Mar_02_1407	s	s	4	1	SIC	273	ABS	0	0	1	1	24_1_1	NA	NA	0	1	1.48706889153	None	None	None	None	1
3.0.1	2019_Mar_02_1407	s	s	4	1	SIC	274	2_4	2	4	3	3	23_3_3	1	1	1	0	0.562009096146	401.0	-145.0	394.0	-144.0	1
3.0.1	2019_Mar_02_1407	s	s	4	1	SIC	275	1_2	1	2	2	3	23_2_3	1	1	1	0	1.71642112732	105.0	-350.0	105.0	-360.0	1
3.0.1	2019_Mar_02_1407	s	s	4	1	SIC	276	ABS	0	0	1	1	24_1_1	NA	NA	0	1	2.66064810753	None	None	None	None	1
3.0.1	2019_Mar_02_1407	s	s	4	1	SIC	277	2_1	2	1	2	2	23_2_2	0	1	0	1	6.92666196823	462.0	-162.0	None	None	0
3.0.1	2019_Mar_02_1407	s	s	4	1	SIC	278	2_3	2	3	3	1	23_3_1	1	2	1	0	0.554970979691	192.0	225.0	192.0	227.0	1
3.0.1	2019_Mar_02_1407	s	s	4	1	SIC	279	4_3	4	3	4	4	23_4_4	0	-1	1	0	1.26991510391	-177.0	79.0	-179.0	71.0	1
3.0.1	2019_Mar_02_1407	s	s	4	1	SIC	280	ABS	0	0	4	1	24_4_1	NA	NA	0	1	3.04543495178	None	None	None	None	1
3.0.1	2019_Mar_02_1407	s	s	4	1	SIC	281	4_3	4	3	2	2	23_2_2	2	1	1	0	0.469696044922	211.0	-398.0	208.0	-407.0	1
3.0.1	2019_Mar_02_1407	s	s	4	1	SIC	282	2_3	2	3	2	4	23_2_4	0	-1	1	0	0.575591087341	-244.0	-299.0	-238.0	-304.0	1
3.0.1	2019_Mar_02_1407	s	s	4	1	SIC	283	ABS	0	0	2	2	24_2_2	NA	NA	0	1	3.66234779358	None	None	None	None	1
3.0.1	2019_Mar_02_1407	s	s	4	1	SIC	284	3_2	3	2	4	3	23_4_3	-1	1	1	0	0.555072069168	-412.0	-353.0	-407.0	-360.0	1
3.0.1	2019_Mar_02_1407	s	s	4	1	SIC	285	ABS	0	0	4	3	24_4_3	NA	NA	0	1	7.82044005394	None	None	None	None	1
3.0.1	2019_Mar_02_1407	s	s	4	1	SIC	286	ABS	0	0	3	2	24_3_2	NA	NA	0	1	6.68481516838	None	None	None	None	1
3.0.1	2019_Mar_02_1407	s	s	4	1	SIC	287	ABS	0	0	1	1	24_1_1	NA	NA	0	1	3.74470901489	None	None	None	None	1
3.0.1	2019_Mar_02_1407	s	s	4	1	SIC	288	1_3	1	3	1	1	23_1_1	0	2	1	0	3.16305303574	288.0	167.0	284.0	171.0	1
3.0.1	2019_Mar_02_1407	s	s	4	1	SIC	289	ABS	0	0	1	2	24_1_2	NA	NA	0	1	9.20829916	None	None	None	None	1
3.0.1	2019_Mar_02_1407	s	s	4	1	SIC	290	3_4	3	4	3	2	23_3_2	0	2	1	0	0.587458848953	-261.0	200.0	-255.0	196.0	1
3.0.1	2019_Mar_02_1407	s	s	4	1	SIC	291	4_4	4	4	2	1	23_2_1	2	3	1	0	0.410963058472	191.0	-181.0	190.0	-184.0	1
3.0.1	2019_Mar_02_1407	s	s	4	1	SIC	292	ABS	0	0	3	3	24_3_3	NA	NA	0	1	6.78845310211	None	None	None	None	1
3.0.1	2019_Mar_02_1407	s	s	4	1	SIC	293	1_3	1	3	1	4	23_1_4	0	-1	1	0	0.763898849487	193.0	250.0	190.0	249.0	1
3.0.1	2019_Mar_02_1407	s	s	4	1	SIC	294	ABS	0	0	2	4	24_2_4	NA	NA	0	1	5.44477915764	None	None	None	None	1
3.0.1	2019_Mar_02_1407	s	s	4	1	SIC	295	2_4	2	4	1	3	23_1_3	-1	1	1	0	1.67243695259	66.0	-330.0	67.0	-327.0	1
3.0.1	2019_Mar_02_1407	s	s	4	1	SIC	296	ABS	0	0	2	1	24_2_1	NA	NA	0	1	3.57476210594	None	None	None	None	1
3.0.1	2019_Mar_02_1407	s	s	4	1	SIC	297	2_1	2	1	1	4	23_1_4	-1	3	1	0	1.06958889961	-239.0	-382.0	-242.0	-387.0	1
3.0.1	2019_Mar_02_1407	s	s	4	1	SIC	298	ABS	0	0	4	4	24_4_4	NA	NA	0	1	4.30396103859	None	None	None	None	1
3.0.1	2019_Mar_02_1407	s	s	4	1	SIC	299	1_2	1	2	3	2	23_3_2	2	0	1	0	0.496230840683	220.0	-343.0	225.0	-348.0	1
3.0.1	2019_Mar_02_1407	s	s	4	1	SIC	300	2_4	2	4	4	3	23_4_3	2	1	1	0	0.502130031586	415.0	100.0	410.0	104.0	1
3.0.1	2019_Mar_02_1407	s	s	4	1	SIC	301	1_2	1	2	4	1	23_4_1	3	-1	1	0	0.410875082016	277.0	1.0	275.0	-2.0	1
3.0.1	2019_Mar_02_1407	s	s	4	1	SIC	302	2_1	2	1	4	3	23_4_3	2	2	1	0	0.405621051788	483.0	-209.0	487.0	-216.0	1
3.0.1	2019_Mar_02_1407	s	s	4	1	SIC	303	ABS	0	0	2	3	24_2_3	NA	NA	0	1	5.58631300926	None	None	None	None	1
3.0.1	2019_Mar_02_1407	s	s	4	1	SIC	304	ABS	0	0	3	4	24_3_4	NA	NA	0	1	2.36339497566	None	None	None	None	1
3.0.1	2019_Mar_02_1407	s	s	4	1	SIC	305	ABS	0	0	3	2	24_3_2	NA	NA	0	1	7.82051301003	None	None	None	None	1
3.0.1	2019_Mar_02_1407	s	s	4	1	SIC	306	ABS	0	0	2	2	24_2_2	NA	NA	0	1	10.7166280746	None	None	None	None	1
3.0.1	2019_Mar_02_1407	s	s	4	1	SIC	307	3_2	3	2	3	3	23_3_3	0	1	1	0	2.14915204048	-42.0	101.0	-47.0	92.0	1
3.0.1	2019_Mar_02_1407	s	s	4	1	SIC	308	ABS	0	0	1	3	24_1_3	NA	NA	0	1	7.60188102722	None	None	None	None	1
3.0.1	2019_Mar_02_1407	s	s	4	1	SIC	309	ABS	0	0	3	2	24_3_2	NA	NA	0	1	8.50269317627	None	None	None	None	1
3.0.1	2019_Mar_02_1407	s	s	4	1	SIC	310	ABS	0	0	2	1	24_2_1	NA	NA	0	1	12.3535470963	None	None	None	None	1
3.0.1	2019_Mar_02_1407	s	s	4	1	SIC	311	2_4	2	4	1	2	23_1_2	-1	2	1	0	0.615185976028	-115.0	-193.0	-110.0	-190.0	1
3.0.1	2019_Mar_02_1407	s	s	4	1	SIC	312	3_1	3	1	2	2	23_2_2	1	1	1	0	0.587373018265	-43.0	314.0	-37.0	309.0	1
3.0.1	2019_Mar_02_1407	s	s	4	1	SIC	313	1_2	1	2	2	1	23_2_1	1	-1	1	0	1.11659884453	-383.0	-67.0	-377.0	-64.0	1
3.0.1	2019_Mar_02_1407	s	s	4	1	SIC	314	4_3	4	3	4	1	23_4_1	0	2	1	0	1.66942596436	-539.0	409.0	-546.0	413.0	1
3.0.1	2019_Mar_02_1407	s	s	4	1	SIC	315	ABS	0	0	1	3	24_1_3	NA	NA	0	1	10.8223462105	None	None	None	None	1
3.0.1	2019_Mar_02_1407	s	s	4	1	SIC	316	3_2	3	2	3	4	23_3_4	0	2	1	0	0.528951883316	-178.0	-148.0	-179.0	-142.0	1
3.0.1	2019_Mar_02_1407	s	s	4	1	SIC	317	4_3	4	3	2	4	23_2_4	2	-1	1	0	0.422793865204	-328.0	-240.0	-328.0	-247.0	1
3.0.1	2019_Mar_02_1407	s	s	4	1	SIC	318	3_3	3	3	1	4	23_1_4	2	-1	1	0	0.42276597023	-244.0	-374.0	-244.0	-371.0	1
3.0.1	2019_Mar_02_1407	s	s	4	1	SIC	319	4_4	4	4	3	4	23_3_4	1	0	1	0	0.846129894257	-278.0	143.0	-276.0	139.0	1
3.0.1	2019_Mar_02_1407	s	s	4	1	SIC	320	2_3	2	3	2	2	23_2_2	0	1	1	0	4.18635082245	375.0	-96.0	367.0	-90.0	1
3.0.1	2019_Mar_02_1407	s	s	4	1	SIC	321	3_2	3	2	1	1	23_1_1	2	-1	1	0	0.457947015762	474.0	166.0	469.0	165.0	1
3.0.1	2019_Mar_02_1407	s	s	4	1	SIC	322	1_4	1	4	4	1	23_4_1	3	3	1	0	0.356206893921	-468.0	-165.0	-478.0	-164.0	1
3.0.1	2019_Mar_02_1407	s	s	4	1	SIC	323	ABS	0	0	1	4	24_1_4	NA	NA	0	1	3.32768416405	None	None	None	None	1
3.0.1	2019_Mar_02_1407	s	s	4	1	SIC	324	ABS	0	0	2	4	24_2_4	NA	NA	0	1	1.9663541317	None	None	None	None	1
3.0.1	2019_Mar_02_1407	s	s	4	1	SIC	325	3_3	3	3	2	2	23_2_2	1	1	1	0	0.429393053055	-95.0	59.0	-96.0	54.0	1
3.0.1	2019_Mar_02_1407	s	s	4	1	SIC	326	2_1	2	1	1	3	23_1_3	-1	2	1	0	1.61719489098	-455.0	-239.0	-450.0	-237.0	1
3.0.1	2019_Mar_02_1407	s	s	4	1	SIC	327	2_3	2	3	1	1	23_1_1	-1	2	1	0	1.21671819687	497.0	-292.0	496.0	-295.0	1
3.0.1	2019_Mar_02_1407	s	s	4	1	SIC	328	4_1	4	1	3	2	23_3_2	1	1	1	0	0.378941059113	104.0	-270.0	103.0	-275.0	1
3.0.1	2019_Mar_02_1407	s	s	4	1	SIC	329	ABS	0	0	1	2	24_1_2	NA	NA	0	1	6.25911808014	None	None	None	None	1
3.0.1	2019_Mar_02_1407	s	s	4	1	SIC	330	ABS	0	0	2	4	24_2_4	NA	NA	0	1	4.28532099724	None	None	None	None	1
3.0.1	2019_Mar_02_1407	s	s	4	1	SIC	331	ABS	0	0	2	2	24_2_2	NA	NA	0	1	9.57756519318	None	None	None	None	1
3.0.1	2019_Mar_02_1407	s	s	4	1	SIC	332	ABS	0	0	2	2	24_2_2	NA	NA	0	1	7.11484408379	None	None	None	None	1
3.0.1	2019_Mar_02_1407	s	s	4	1	SIC	333	2_2	2	2	2	3	23_2_3	0	1	1	0	5.52706408501	382.0	-270.0	377.0	-269.0	1
3.0.1	2019_Mar_02_1407	s	s	4	1	SIC	334	4_2	4	2	3	2	23_3_2	1	0	1	0	0.840771913528	211.0	340.0	213.0	332.0	1
3.0.1	2019_Mar_02_1407	s	s	4	1	SIC	335	ABS	0	0	1	4	24_1_4	NA	NA	0	1	4.87164187431	None	None	None	None	1
3.0.1	2019_Mar_02_1407	s	s	4	1	SIC	336	4_1	4	1	2	2	23_2_2	2	1	1	0	0.72186589241	-341.0	227.0	-346.0	222.0	1
3.0.1	2019_Mar_02_1407	s	s	4	1	SIC	337	2_2	2	2	3	2	23_3_2	1	0	1	0	0.575613975525	376.0	-333.0	373.0	-341.0	1
3.0.1	2019_Mar_02_1407	s	s	4	1	SIC	338	3_2	3	2	2	1	23_2_1	1	-1	1	0	0.451406955719	-340.0	-391.0	-341.0	-398.0	1
3.0.1	2019_Mar_02_1407	s	s	4	1	SIC	339	ABS	0	0	3	3	24_3_3	NA	NA	0	1	6.95019006729	None	None	None	None	1
3.0.1	2019_Mar_02_1407	s	s	4	1	SIC	340	3_3	3	3	2	1	23_2_1	1	2	1	0	0.48158288002	-430.0	-280.0	-421.0	-273.0	1
3.0.1	2019_Mar_02_1407	s	s	4	1	SIC	341	2_1	2	1	3	4	23_3_4	1	3	1	0	0.46986913681	-11.0	254.0	-9.0	253.0	1
3.0.1	2019_Mar_02_1407	s	s	4	1	SIC	342	2_1	2	1	3	3	23_3_3	1	2	1	0	0.434478998184	-506.0	-346.0	-513.0	-345.0	1
3.0.1	2019_Mar_02_1407	s	s	4	1	SIC	343	3_4	3	4	2	2	23_2_2	1	2	1	0	0.434910058975	-300.0	-363.0	-302.0	-359.0	1
3.0.1	2019_Mar_02_1407	s	s	4	1	SIC	344	1_1	1	1	4	2	23_4_2	3	1	1	0	0.43737411499	489.0	62.0	489.0	61.0	1
3.0.1	2019_Mar_02_1407	s	s	4	1	SIC	345	2_4	2	4	2	3	23_2_3	0	1	1	0	0.637736082077	-28.0	-214.0	-20.0	-217.0	1
3.0.1	2019_Mar_02_1407	s	s	4	1	SIC	346	ABS	0	0	3	1	24_3_1	NA	NA	0	1	5.98566293716	None	None	None	None	1
3.0.1	2019_Mar_02_1407	s	s	4	1	SIC	347	ABS	0	0	1	1	24_1_1	NA	NA	0	1	3.88099813461	None	None	None	None	1
3.0.1	2019_Mar_02_1407	s	s	4	1	SIC	348	2_3	2	3	4	4	23_4_4	2	-1	1	0	0.399307966232	-410.0	-36.0	-416.0	-38.0	1
3.0.1	2019_Mar_02_1407	s	s	4	1	SIC	349	ABS	0	0	4	4	24_4_4	NA	NA	0	1	2.04585504532	None	None	None	None	1
3.0.1	2019_Mar_02_1407	s	s	4	1	SIC	350	1_4	1	4	3	1	23_3_1	2	3	1	0	0.404117822647	-267.0	-167.0	-269.0	-171.0	1
3.0.1	2019_Mar_02_1407	s	s	4	1	SIC	351	ABS	0	0	4	2	24_4_2	NA	NA	0	1	6.84734916687	None	None	None	None	1
3.0.1	2019_Mar_02_1407	s	s	4	1	SIC	352	ABS	0	0	1	2	24_1_2	NA	NA	0	1	9.07233214378	None	None	None	None	1
3.0.1	2019_Mar_02_1407	s	s	4	1	SIC	353	ABS	0	0	4	2	24_4_2	NA	NA	0	1	10.6196608543	None	None	None	None	1
3.0.1	2019_Mar_02_1407	s	s	4	1	SIC	354	ABS	0	0	4	3	24_4_3	NA	NA	0	1	6.78848385811	None	None	None	None	1
3.0.1	2019_Mar_02_1407	s	s	4	1	SIC	355	ABS	0	0	1	3	24_1_3	NA	NA	0	1	6.11978316307	None	None	None	None	1
3.0.1	2019_Mar_02_1407	s	s	4	1	SIC	356	3_3	3	3	1	3	23_1_3	2	0	1	0	0.940260887146	317.0	308.0	313.0	308.0	1
3.0.1	2019_Mar_02_1407	s	s	4	1	SIC	357	ABS	0	0	3	1	24_3_1	NA	NA	0	1	4.58625292778	None	None	None	None	1
3.0.1	2019_Mar_02_1407	s	s	4	1	SIC	358	1_2	1	2	1	3	23_1_3	0	1	1	0	1.44264698029	-530.0	-110.0	-530.0	-113.0	1
3.0.1	2019_Mar_02_1407	s	s	4	1	SIC	359	ABS	0	0	3	3	24_3_3	NA	NA	0	1	6.95604300499	None	None	None	None	1
3.0.1	2019_Mar_02_1407	s	s	4	1	SIC	360	1_4	1	4	4	2	23_4_2	3	2	1	0	0.429395198822	215.0	181.0	212.0	175.0	1
3.0.1	2019_Mar_02_1407	s	s	4	1	SIC	361	1_3	1	3	2	4	23_2_4	1	-1	1	0	0.663725137711	360.0	-130.0	363.0	-135.0	1
3.0.1	2019_Mar_02_1407	s	s	4	1	SIC	362	ABS	0	0	3	2	24_3_2	NA	NA	0	1	5.32320189476	None	None	None	None	1
3.0.1	2019_Mar_02_1407	s	s	4	1	SIC	363	ABS	0	0	3	3	24_3_3	NA	NA	0	1	4.88019394875	None	None	None	None	1
3.0.1	2019_Mar_02_1407	s	s	4	1	SIC	364	3_4	3	4	2	4	23_2_4	1	0	1	0	0.599160909653	-183.0	53.0	-193.0	54.0	1
3.0.1	2019_Mar_02_1407	s	s	4	1	SIC	365	2_1	2	1	1	2	23_1_2	-1	1	1	0	2.05751204491	-326.0	-13.0	-311.0	-6.0	1
3.0.1	2019_Mar_02_1407	s	s	4	1	SIC	366	4_4	4	4	3	1	23_3_1	1	3	1	0	0.430387020111	-29.0	306.0	-34.0	298.0	1
3.0.1	2019_Mar_02_1407	s	s	4	1	SIC	367	4_2	4	2	1	1	23_1_1	3	-1	1	0	0.402078866959	-49.0	17.0	-47.0	12.0	1
3.0.1	2019_Mar_02_1407	s	s	4	1	SIC	368	ABS	0	0	1	3	24_1_3	NA	NA	0	1	7.44210100174	None	None	None	None	1
3.0.1	2019_Mar_02_1407	s	s	4	1	SIC	369	ABS	0	0	3	1	24_3_1	NA	NA	0	1	3.36300301552	None	None	None	None	1
3.0.1	2019_Mar_02_1407	s	s	4	1	SIC	370	ABS	0	0	2	1	24_2_1	NA	NA	0	1	2.3338739872	None	None	None	None	1
3.0.1	2019_Mar_02_1407	s	s	4	1	SIC	371	1_1	1	1	2	4	23_2_4	1	3	1	0	0.634421825409	-48.0	-109.0	-42.0	-111.0	1
3.0.1	2019_Mar_02_1407	s	s	4	1	SIC	372	ABS	0	0	2	4	24_2_4	NA	NA	0	1	3.16305708885	None	None	None	None	1
3.0.1	2019_Mar_02_1407	s	s	4	1	SIC	373	ABS	0	0	1	2	24_1_2	NA	NA	0	1	6.53194403648	None	None	None	None	1
3.0.1	2019_Mar_02_1407	s	s	4	1	SIC	374	4_2	4	2	3	1	23_3_1	1	-1	1	0	0.443073034286	-16.0	-236.0	-18.0	-246.0	1
3.0.1	2019_Mar_02_1407	s	s	4	1	SIC	375	3_3	3	3	4	2	23_4_2	-1	1	1	0	1.52829098701	529.0	277.0	531.0	270.0	1
3.0.1	2019_Mar_02_1407	s	s	4	1	SIC	376	3_3	3	3	2	4	23_2_4	1	-1	1	0	0.575615167618	-114.0	-264.0	-116.0	-255.0	1
3.0.1	2019_Mar_02_1407	s	s	4	1	SIC	377	ABS	0	0	2	4	24_2_4	NA	NA	0	1	1.81505012512	None	None	None	None	1
3.0.1	2019_Mar_02_1407	s	s	4	1	SIC	378	3_4	3	4	4	4	23_4_4	-1	0	1	0	0.633993864059	331.0	-410.0	329.0	-415.0	1
3.0.1	2019_Mar_02_1407	s	s	4	1	SIC	379	ABS	0	0	2	3	24_2_3	NA	NA	0	1	4.54531598091	None	None	None	None	1
3.0.1	2019_Mar_02_1407	s	s	4	1	SIC	380	2_3	2	3	1	3	23_1_3	-1	0	1	0	4.2853770256	-504.0	242.0	-513.0	245.0	1
3.0.1	2019_Mar_02_1407	s	s	4	1	SIC	381	ABS	0	0	4	4	24_4_4	NA	NA	0	1	2.73423099518	None	None	None	None	1
3.0.1	2019_Mar_02_1407	s	s	4	1	SIC	382	1_4	1	4	2	4	23_2_4	1	0	0	1	3.86879396439	-339.0	-409.0	None	None	0
3.0.1	2019_Mar_02_1407	s	s	4	1	SIC	383	ABS	0	0	4	1	24_4_1	NA	NA	0	1	3.97461605072	None	None	None	None	1
3.0.1	2019_Mar_02_1407	s	s	4	1	SIC	384	3_3	3	3	1	1	23_1_1	2	2	1	0	0.721848964691	384.0	-187.0	383.0	-189.0	1
3.0.1	2019_Mar_02_1407	s	s	4	1	SIC	385	ABS	0	0	4	3	24_4_3	NA	NA	0	1	5.65937614441	None	None	None	None	1
3.0.1	2019_Mar_02_1407	s	s	4	1	SIC	386	ABS	0	0	3	2	24_3_2	NA	NA	0	1	6.33854603767	None	None	None	None	1
3.0.1	2019_Mar_02_1407	s	s	4	1	SIC	387	ABS	0	0	3	4	24_3_4	NA	NA	0	1	2.61320900917	None	None	None	None	1
3.0.1	2019_Mar_02_1407	s	s	4	1	SIC	388	4_2	4	2	1	2	23_1_2	3	0	1	0	0.42813205719	366.0	37.0	367.0	37.0	1
3.0.1	2019_Mar_02_1407	s	s	4	1	SIC	389	ABS	0	0	4	2	24_4_2	NA	NA	0	1	5.40942192078	None	None	None	None	1
3.0.1	2019_Mar_02_1407	s	s	4	1	SIC	390	ABS	0	0	3	2	24_3_2	NA	NA	0	1	8.39673781395	None	None	None	None	1
3.0.1	2019_Mar_02_1407	s	s	4	1	SIC	391	ABS	0	0	1	2	24_1_2	NA	NA	0	1	4.24557185173	None	None	None	None	1
3.0.1	2019_Mar_02_1407	s	s	4	1	SIC	392	2_3	2	3	3	2	23_3_2	1	1	1	0	0.549540996552	-180.0	18.0	-186.0	13.0	1
3.0.1	2019_Mar_02_1407	s	s	4	1	SIC	393	ABS	0	0	1	4	24_1_4	NA	NA	0	1	4.0216729641	None	None	None	None	1
3.0.1	2019_Mar_02_1407	s	s	4	1	SIC	394	ABS	0	0	4	2	24_4_2	NA	NA	0	1	8.42673397064	None	None	None	None	1
3.0.1	2019_Mar_02_1407	s	s	4	1	SIC	395	ABS	0	0	4	1	24_4_1	NA	NA	0	1	3.67170596123	None	None	None	None	1
3.0.1	2019_Mar_02_1407	s	s	4	1	SIC	396	ABS	0	0	3	1	24_3_1	NA	NA	0	1	3.56577110291	None	None	None	None	1
3.0.1	2019_Mar_02_1407	s	s	4	1	SIC	397	3_4	3	4	3	1	23_3_1	0	3	1	0	0.627892017365	-148.0	231.0	-145.0	226.0	1
3.0.1	2019_Mar_02_1407	s	s	4	1	SIC	398	3_1	3	1	3	2	23_3_2	0	1	1	0	5.60305809975	436.0	313.0	436.0	310.0	1
3.0.1	2019_Mar_02_1407	s	s	4	1	SIC	399	ABS	0	0	2	1	24_2_1	NA	NA	0	1	5.62584400177	None	None	None	None	1
3.0.1	2019_Mar_02_1407	s	s	4	1	SIC	400	1_1	1	1	3	3	23_3_3	2	2	1	0	0.505041837692	-230.0	-334.0	-229.0	-335.0	1
3.0.1	2019_Mar_02_1407	s	s	4	1	SIC	401	ABS	0	0	2	3	24_2_3	NA	NA	0	1	5.98582601547	None	None	None	None	1
3.0.1	2019_Mar_02_1407	s	s	4	1	SIC	402	1_2	1	2	2	4	23_2_4	1	2	1	0	0.486279964447	-311.0	58.0	-318.0	62.0	1
3.0.1	2019_Mar_02_1407	s	s	4	1	SIC	403	4_1	4	1	2	4	23_2_4	2	3	1	0	0.383823156357	-334.0	125.0	-336.0	120.0	1
3.0.1	2019_Mar_02_1407	s	s	4	1	SIC	404	1_1	1	1	2	2	23_2_2	1	1	1	0	0.907856941223	60.0	25.0	69.0	28.0	1
3.0.1	2019_Mar_02_1407	s	s	4	1	SIC	405	ABS	0	0	3	3	24_3_3	NA	NA	0	1	5.55350112915	None	None	None	None	1
3.0.1	2019_Mar_02_1407	s	s	4	1	SIC	406	1_4	1	4	3	4	23_3_4	2	0	1	0	0.505200862885	-281.0	-399.0	-279.0	-401.0	1
3.0.1	2019_Mar_02_1407	s	s	4	1	SIC	407	3_3	3	3	3	1	23_3_1	0	2	1	0	0.837255001068	-346.0	-343.0	-352.0	-338.0	1
3.0.1	2019_Mar_02_1407	s	s	4	1	SIC	408	ABS	0	0	4	1	24_4_1	NA	NA	0	1	2.49558401108	None	None	None	None	1
3.0.1	2019_Mar_02_1407	s	s	4	1	SIC	409	ABS	0	0	2	1	24_2_1	NA	NA	0	1	3.88052201271	None	None	None	None	1
3.0.1	2019_Mar_02_1407	s	s	4	1	SIC	410	ABS	0	0	1	1	24_1_1	NA	NA	0	1	2.51624584198	None	None	None	None	1
3.0.1	2019_Mar_02_1407	s	s	4	1	SIC	411	ABS	0	0	4	3	24_4_3	NA	NA	0	1	4.02657079697	None	None	None	None	1
3.0.1	2019_Mar_02_1407	s	s	4	1	SIC	412	2_1	2	1	3	1	23_3_1	1	0	1	0	1.18726181984	492.0	-307.0	490.0	-310.0	1
3.0.1	2019_Mar_02_1407	s	s	4	1	SIC	413	ABS	0	0	1	3	24_1_3	NA	NA	0	1	5.71525907516	None	None	None	None	1
3.0.1	2019_Mar_02_1407	s	s	4	1	SIC	414	4_4	4	4	1	2	23_1_2	3	2	1	0	0.501564979553	-37.0	296.0	-39.0	282.0	1
3.0.1	2019_Mar_02_1407	s	s	4	1	SIC	415	ABS	0	0	3	1	24_3_1	NA	NA	0	1	3.46887397766	None	None	None	None	1
3.0.1	2019_Mar_02_1407	s	s	4	1	SIC	416	ABS	0	0	4	1	24_4_1	NA	NA	0	1	2.59240698814	None	None	None	None	1
3.0.1	2019_Mar_02_1407	s	s	4	1	SIC	417	ABS	0	0	2	3	24_2_3	NA	NA	0	1	4.87129187584	None	None	None	None	1
3.0.1	2019_Mar_02_1407	s	s	4	1	SIC	418	3_2	3	2	2	3	23_2_3	1	1	1	0	0.569015026093	-233.0	264.0	-228.0	269.0	1
3.0.1	2019_Mar_02_1407	s	s	4	1	SIC	419	2_3	2	3	3	3	23_3_3	1	0	1	0	0.775622844696	183.0	-205.0	182.0	-211.0	1
3.0.1	2019_Mar_02_1407	s	s	4	1	SIC	420	ABS	0	0	3	4	24_3_4	NA	NA	0	1	2.5684530735	None	None	None	None	1
3.0.1	2019_Mar_02_1407	s	s	4	1	SIC	421	1_3	1	3	1	2	23_1_2	0	1	1	0	4.32742214203	78.0	243.0	74.0	248.0	1
3.0.1	2019_Mar_02_1407	s	s	4	1	SIC	422	ABS	0	0	1	3	24_1_3	NA	NA	0	1	8.25955796242	None	None	None	None	1
3.0.1	2019_Mar_02_1407	s	s	4	1	SIC	423	ABS	0	0	4	3	24_4_3	NA	NA	0	1	8.20860314369	None	None	None	None	1
3.0.1	2019_Mar_02_1407	s	s	4	1	SIC	424	ABS	0	0	1	2	24_1_2	NA	NA	0	1	8.0204269886	None	None	None	None	1
3.0.1	2019_Mar_02_1407	s	s	4	1	SIC	425	ABS	0	0	1	1	24_1_1	NA	NA	0	1	2.77993607521	None	None	None	None	1
3.0.1	2019_Mar_02_1407	s	s	4	1	SIC	426	ABS	0	0	4	4	24_4_4	NA	NA	0	1	2.72783899307	None	None	None	None	1
3.0.1	2019_Mar_02_1407	s	s	4	1	SIC	427	ABS	0	0	2	4	24_2_4	NA	NA	0	1	6.44835400581	None	None	None	None	1
3.0.1	2019_Mar_02_1407	s	s	4	1	SIC	428	ABS	0	0	3	4	24_3_4	NA	NA	0	1	4.23848104477	None	None	None	None	1
3.0.1	2019_Mar_02_1407	s	s	4	1	SIC	429	4_1	4	1	2	3	23_2_3	2	2	1	0	0.46314907074	448.0	-228.0	453.0	-226.0	1
3.0.1	2019_Mar_02_1407	s	s	4	1	SIC	430	3_3	3	3	2	3	23_2_3	1	0	1	0	0.501670837402	-247.0	266.0	-241.0	261.0	1
3.0.1	2019_Mar_02_1407	s	s	4	1	SIC	431	3_4	3	4	1	2	23_1_2	2	2	1	0	0.434520959854	364.0	-28.0	365.0	-23.0	1
3.0.1	2019_Mar_02_1407	s	s	4	1	SIC	432	2_3	2	3	1	2	23_1_2	-1	1	1	0	1.3636238575	-265.0	276.0	-269.0	272.0	1
3.0.1	2019_Mar_02_1407	s	s	4	1	SIC	433	2_1	2	1	2	3	23_2_3	0	2	1	0	5.81423521042	-17.0	402.0	-16.0	402.0	1
3.0.1	2019_Mar_02_1407	s	s	4	1	SIC	434	ABS	0	0	4	3	24_4_3	NA	NA	0	1	6.66787290573	None	None	None	None	1
3.0.1	2019_Mar_02_1407	s	s	4	1	SIC	435	ABS	0	0	2	3	24_2_3	NA	NA	0	1	9.3612241745	None	None	None	None	1
3.0.1	2019_Mar_02_1407	s	s	4	1	SIC	436	ABS	0	0	2	3	24_2_3	NA	NA	0	1	5.67317914963	None	None	None	None	1
3.0.1	2019_Mar_02_1407	s	s	4	1	SIC	437	ABS	0	0	2	1	24_2_1	NA	NA	0	1	8.55858397484	None	None	None	None	1
3.0.1	2019_Mar_02_1407	s	s	4	1	SIC	438	2_2	2	2	1	2	23_1_2	-1	0	1	0	6.17897200584	-332.0	96.0	-328.0	96.0	1
3.0.1	2019_Mar_02_1407	s	s	4	1	SIC	439	ABS	0	0	4	1	24_4_1	NA	NA	0	1	4.37748003006	None	None	None	None	1
3.0.1	2019_Mar_02_1407	s	s	4	1	SIC	440	ABS	0	0	3	2	24_3_2	NA	NA	0	1	9.55223107338	None	None	None	None	1
3.0.1	2019_Mar_02_1407	s	s	4	1	SIC	441	4_2	4	2	4	1	23_4_1	0	-1	1	0	2.27392292023	-450.0	-270.0	-454.0	-263.0	1
3.0.1	2019_Mar_02_1407	s	s	4	1	SIC	442	ABS	0	0	2	2	24_2_2	NA	NA	0	1	8.82115912437	None	None	None	None	1
3.0.1	2019_Mar_02_1407	s	s	4	1	SIC	443	3_2	3	2	3	1	23_3_1	0	-1	0	1	2.92129898071	526.0	-212.0	None	None	0
3.0.1	2019_Mar_02_1407	s	s	4	1	SIC	444	ABS	0	0	2	2	24_2_2	NA	NA	0	1	8.62027788162	None	None	None	None	1
3.0.1	2019_Mar_02_1407	s	s	4	1	SIC	445	1_1	1	1	2	3	23_2_3	1	2	1	0	1.37582278252	344.0	-128.0	342.0	-131.0	1
3.0.1	2019_Mar_02_1407	s	s	4	1	SIC	446	3_4	3	4	4	1	23_4_1	-1	3	1	0	0.486996173859	-33.0	-307.0	-25.0	-302.0	1
3.0.1	2019_Mar_02_1407	s	s	4	1	SIC	447	ABS	0	0	1	1	24_1_1	NA	NA	0	1	4.35590291023	None	None	None	None	1
3.0.1	2019_Mar_02_1407	s	s	4	1	SIC	448	ABS	0	0	1	4	24_1_4	NA	NA	0	1	1.94498300552	None	None	None	None	1
3.0.1	2019_Mar_02_1407	s	s	4	1	SIC	449	3_2	3	2	4	2	23_4_2	-1	0	1	0	0.446203947067	-257.0	158.0	-261.0	156.0	1
3.0.1	2019_Mar_02_1407	s	s	4	1	SIC	450	ABS	0	0	1	4	24_1_4	NA	NA	0	1	1.20188117027	None	None	None	None	1
3.0.1	2019_Mar_02_1407	s	s	4	1	SIC	451	1_3	1	3	4	3	23_4_3	3	0	1	0	0.488010883331	-46.0	55.0	-45.0	62.0	1
3.0.1	2019_Mar_02_1407	s	s	4	1	SIC	452	4_3	4	3	3	4	23_3_4	1	-1	1	0	0.68705201149	466.0	-265.0	464.0	-266.0	1
3.0.1	2019_Mar_02_1407	s	s	4	1	SIC	453	2_2	2	2	3	1	23_3_1	1	-1	1	0	0.849035978317	-455.0	233.0	-459.0	237.0	1
3.0.1	2019_Mar_02_1407	s	s	4	1	SIC	454	1_3	1	3	2	3	23_2_3	1	0	1	0	4.8384141922	432.0	362.0	437.0	354.0	1
3.0.1	2019_Mar_02_1407	s	s	4	1	SIC	455	1_4	1	4	2	3	23_2_3	1	1	1	0	0.731551170349	95.0	146.0	99.0	142.0	1
3.0.1	2019_Mar_02_1407	s	s	4	1	SIC	456	ABS	0	0	1	4	24_1_4	NA	NA	0	1	3.3776781559	None	None	None	None	1
3.0.1	2019_Mar_02_1407	s	s	4	1	SIC	457	1_2	1	2	2	2	23_2_2	1	0	1	0	12.7484071255	300.0	397.0	301.0	390.0	1
3.0.1	2019_Mar_02_1407	s	s	4	1	SIC	458	ABS	0	0	1	4	24_1_4	NA	NA	0	1	4.62142491341	None	None	None	None	1
3.0.1	2019_Mar_02_1407	s	s	4	1	SIC	459	ABS	0	0	4	4	24_4_4	NA	NA	0	1	3.97137784958	None	None	None	None	1
3.0.1	2019_Mar_02_1407	s	s	4	1	SIC	460	3_3	3	3	4	4	23_4_4	-1	-1	1	0	0.451174020767	-387.0	-271.0	-396.0	-272.0	1
3.0.1	2019_Mar_02_1407	s	s	4	1	SIC	461	1_4	1	4	3	2	23_3_2	2	2	1	0	0.484469890594	242.0	-43.0	247.0	-40.0	1
3.0.1	2019_Mar_02_1407	s	s	4	1	SIC	462	ABS	0	0	2	1	24_2_1	NA	NA	0	1	5.29184293747	None	None	None	None	1
3.0.1	2019_Mar_02_1407	s	s	4	1	SIC	463	ABS	0	0	1	2	24_1_2	NA	NA	0	1	6.72058200836	None	None	None	None	1
3.0.1	2019_Mar_02_1407	s	s	4	1	SIC	464	ABS	0	0	2	3	24_2_3	NA	NA	0	1	13.9009571075	None	None	None	None	1
3.0.1	2019_Mar_02_1407	s	s	4	1	SIC	465	ABS	0	0	4	4	24_4_4	NA	NA	0	1	2.11640381813	None	None	None	None	1
3.0.1	2019_Mar_02_1407	s	s	4	1	SIC	466	2_1	2	1	4	4	23_4_4	2	3	1	0	0.555033922195	434.0	196.0	433.0	193.0	1
3.0.1	2019_Mar_02_1407	s	s	4	1	SIC	467	ABS	0	0	3	4	24_3_4	NA	NA	0	1	3.77469086647	None	None	None	None	1
3.0.1	2019_Mar_02_1407	s	s	4	1	SIC	468	ABS	0	0	3	1	24_3_1	NA	NA	0	1	5.25484704971	None	None	None	None	1
3.0.1	2019_Mar_02_1407	s	s	4	1	SIC	469	4_3	4	3	1	3	23_1_3	3	0	1	0	0.46232008934	66.0	-58.0	76.0	-55.0	1
3.0.1	2019_Mar_02_1407	s	s	4	1	SIC	470	ABS	0	0	1	3	24_1_3	NA	NA	0	1	7.44963598251	None	None	None	None	1
3.0.1	2019_Mar_02_1407	s	s	4	1	SIC	471	1_1	1	1	3	2	23_3_2	2	1	1	0	0.686702013016	276.0	399.0	281.0	400.0	1
3.0.1	2019_Mar_02_1407	s	s	4	1	SIC	472	4_3	4	3	1	2	23_1_2	3	1	1	0	0.411031961441	-52.0	127.0	-55.0	127.0	1
3.0.1	2019_Mar_02_1407	s	s	4	1	SIC	473	3_3	3	3	1	2	23_1_2	2	1	1	0	0.410936832428	-53.0	282.0	-55.0	278.0	1
3.0.1	2019_Mar_02_1407	s	s	4	1	SIC	474	1_1	1	1	1	2	23_1_2	0	1	1	0	2.16742491722	-292.0	-10.0	-293.0	-16.0	1
3.0.1	2019_Mar_02_1407	s	s	4	1	SIC	475	3_2	3	2	1	3	23_1_3	2	1	1	0	0.540392875671	335.0	95.0	333.0	94.0	1
3.0.1	2019_Mar_02_1407	s	s	4	1	SIC	476	2_2	2	2	4	2	23_4_2	2	0	1	0	0.472958087921	-436.0	217.0	-422.0	225.0	1
3.0.1	2019_Mar_02_1407	s	s	4	1	SIC	477	ABS	0	0	4	1	24_4_1	NA	NA	0	1	3.96577191353	None	None	None	None	1
3.0.1	2019_Mar_02_1407	s	s	4	1	SIC	478	3_4	3	4	3	3	23_3_3	0	1	1	0	1.29832911491	318.0	-271.0	317.0	-278.0	1
3.0.1	2019_Mar_02_1407	s	s	4	1	SIC	479	4_4	4	4	3	2	23_3_2	1	2	1	0	0.437391996384	45.0	357.0	47.0	356.0	1
3.0.1	2019_Mar_02_1407	s	s	4	1	SIC	480	2_2	2	2	1	3	23_1_3	-1	1	1	0	3.10919594765	1.0	-379.0	1.0	-378.0	1
