Version	Date	Stimuli	Method	Subject	Session	Condition	Trial	Target	TColor	TShape	DColor	DShape	Distractors	Channel1	Channel2	LMouseButton	RMouseButton	RT	TargetX	TargetY	ResponseX	ResponseY	Correct
3.0.1	2019_Mar_05_1401	s	s	4	3	Capacity	1	2_1	2	1	1	1	23_1_1	-1	0	1	0	1.07448911667	-363.0	-32.0	-361.0	-31.0	1
3.0.1	2019_Mar_05_1401	s	s	4	3	Capacity	2	3_1	3	1	2	1	23_2_1	1	0	1	0	0.44483089447	-463.0	-187.0	-466.0	-189.0	1
3.0.1	2019_Mar_05_1401	s	s	4	3	Capacity	3	4_1	4	1	3	1	23_3_1	1	0	1	0	0.716797113419	521.0	63.0	531.0	65.0	1
3.0.1	2019_Mar_05_1401	s	s	4	3	Capacity	4	4_1	4	1	1	1	23_1_1	3	0	1	0	0.496215105057	458.0	-263.0	466.0	-267.0	1
3.0.1	2019_Mar_05_1401	s	s	4	3	Capacity	5	4_1	4	1	2	1	23_2_1	2	0	1	0	0.387460947037	111.0	396.0	125.0	406.0	1
3.0.1	2019_Mar_05_1401	s	s	4	3	Capacity	6	1_1	1	1	2	1	23_2_1	1	0	0	1	2.49557900429	427.0	-5.0	None	None	0
3.0.1	2019_Mar_05_1401	s	s	4	3	Capacity	7	3_1	3	1	1	1	23_1_1	2	0	1	0	0.393089056015	-93.0	21.0	-91.0	11.0	1
3.0.1	2019_Mar_05_1401	s	s	4	3	Capacity	8	2_1	2	1	3	1	23_3_1	1	0	1	0	0.672602891922	6.0	369.0	3.0	367.0	1
3.0.1	2019_Mar_05_1401	s	s	4	3	Capacity	9	ABS	0	0	2	1	24_2_1	NA	NA	0	1	7.20008015633	None	None	None	None	1
3.0.1	2019_Mar_05_1401	s	s	4	3	Capacity	10	1_1	1	1	3	1	23_3_1	2	0	1	0	0.545328855515	368.0	361.0	364.0	352.0	1
3.0.1	2019_Mar_05_1401	s	s	4	3	Capacity	11	1_1	1	1	4	1	23_4_1	3	0	1	0	0.378592967987	-437.0	373.0	-435.0	379.0	1
3.0.1	2019_Mar_05_1401	s	s	4	3	Capacity	12	ABS	0	0	3	1	24_3_1	NA	NA	0	1	6.89637899399	None	None	None	None	1
3.0.1	2019_Mar_05_1401	s	s	4	3	Capacity	13	ABS	0	0	2	1	24_2_1	NA	NA	0	1	4.08038902283	None	None	None	None	1
3.0.1	2019_Mar_05_1401	s	s	4	3	Capacity	14	2_1	2	1	4	1	23_4_1	2	0	1	0	0.446310997009	-359.0	334.0	-363.0	339.0	1
3.0.1	2019_Mar_05_1401	s	s	4	3	Capacity	15	ABS	0	0	4	1	24_4_1	NA	NA	0	1	3.30426502228	None	None	None	None	1
3.0.1	2019_Mar_05_1401	s	s	4	3	Capacity	16	ABS	0	0	3	1	24_3_1	NA	NA	0	1	4.37449288368	None	None	None	None	1
3.0.1	2019_Mar_05_1401	s	s	4	3	Capacity	17	ABS	0	0	2	1	24_2_1	NA	NA	0	1	4.6450009346	None	None	None	None	1
3.0.1	2019_Mar_05_1401	s	s	4	3	Capacity	18	3_1	3	1	4	1	23_4_1	-1	0	1	0	0.533665180206	-359.0	-307.0	-362.0	-315.0	1
3.0.1	2019_Mar_05_1401	s	s	4	3	Capacity	19	ABS	0	0	1	1	24_1_1	NA	NA	0	1	2.51613402367	None	None	None	None	1
3.0.1	2019_Mar_05_1401	s	s	4	3	Capacity	20	ABS	0	0	1	1	24_1_1	NA	NA	0	1	4.09228014946	None	None	None	None	1
3.0.1	2019_Mar_05_1401	s	s	4	3	Capacity	21	ABS	0	0	3	1	24_3_1	NA	NA	0	1	4.14223885536	None	None	None	None	1
3.0.1	2019_Mar_05_1401	s	s	4	3	Capacity	22	ABS	0	0	4	1	24_4_1	NA	NA	0	1	2.37838888168	None	None	None	None	1
3.0.1	2019_Mar_05_1401	s	s	4	3	Capacity	23	ABS	0	0	4	1	24_4_1	NA	NA	0	1	4.20983505249	None	None	None	None	1
3.0.1	2019_Mar_05_1401	s	s	4	3	Capacity	24	ABS	0	0	1	1	24_1_1	NA	NA	0	1	4.6802008152	None	None	None	None	1
3.0.1	2019_Mar_05_1401	s	s	4	3	Capacity	25	ABS	0	0	3	1	24_3_1	NA	NA	0	1	3.0735669136	None	None	None	None	1
3.0.1	2019_Mar_05_1401	s	s	4	3	Capacity	26	4_1	4	1	1	1	23_1_1	3	0	1	0	0.443789958954	-369.0	310.0	-366.0	309.0	1
3.0.1	2019_Mar_05_1401	s	s	4	3	Capacity	27	ABS	0	0	4	1	24_4_1	NA	NA	0	1	2.36773991585	None	None	None	None	1
3.0.1	2019_Mar_05_1401	s	s	4	3	Capacity	28	1_1	1	1	4	1	23_4_1	3	0	1	0	0.439602136612	264.0	26.0	272.0	26.0	1
3.0.1	2019_Mar_05_1401	s	s	4	3	Capacity	29	1_1	1	1	3	1	23_3_1	2	0	1	0	0.505125999451	326.0	-384.0	329.0	-386.0	1
3.0.1	2019_Mar_05_1401	s	s	4	3	Capacity	30	ABS	0	0	3	1	24_3_1	NA	NA	0	1	1.50967001915	None	None	None	None	1
3.0.1	2019_Mar_05_1401	s	s	4	3	Capacity	31	ABS	0	0	4	1	24_4_1	NA	NA	0	1	1.76348590851	None	None	None	None	1
3.0.1	2019_Mar_05_1401	s	s	4	3	Capacity	32	4_1	4	1	3	1	23_3_1	1	0	1	0	0.451946020126	322.0	378.0	329.0	374.0	1
3.0.1	2019_Mar_05_1401	s	s	4	3	Capacity	33	ABS	0	0	1	1	24_1_1	NA	NA	0	1	2.53976106644	None	None	None	None	1
3.0.1	2019_Mar_05_1401	s	s	4	3	Capacity	34	ABS	0	0	1	1	24_1_1	NA	NA	0	1	2.41631412506	None	None	None	None	1
3.0.1	2019_Mar_05_1401	s	s	4	3	Capacity	35	3_1	3	1	1	1	23_1_1	2	0	1	0	0.437411785126	-268.0	-188.0	-270.0	-188.0	1
3.0.1	2019_Mar_05_1401	s	s	4	3	Capacity	36	ABS	0	0	2	1	24_2_1	NA	NA	0	1	3.18007493019	None	None	None	None	1
3.0.1	2019_Mar_05_1401	s	s	4	3	Capacity	37	ABS	0	0	1	1	24_1_1	NA	NA	0	1	2.47566413879	None	None	None	None	1
3.0.1	2019_Mar_05_1401	s	s	4	3	Capacity	38	2_1	2	1	1	1	23_1_1	-1	0	0	1	3.49235296249	236.0	347.0	None	None	0
3.0.1	2019_Mar_05_1401	s	s	4	3	Capacity	39	4_1	4	1	2	1	23_2_1	2	0	1	0	0.434506893158	-48.0	-49.0	-53.0	-49.0	1
3.0.1	2019_Mar_05_1401	s	s	4	3	Capacity	40	2_1	2	1	3	1	23_3_1	1	0	1	0	0.469789981842	305.0	342.0	312.0	342.0	1
3.0.1	2019_Mar_05_1401	s	s	4	3	Capacity	41	ABS	0	0	4	1	24_4_1	NA	NA	0	1	0.975511074066	None	None	None	None	1
3.0.1	2019_Mar_05_1401	s	s	4	3	Capacity	42	1_1	1	1	2	1	23_2_1	1	0	1	0	1.12842583656	-382.0	50.0	-379.0	44.0	1
3.0.1	2019_Mar_05_1401	s	s	4	3	Capacity	43	ABS	0	0	3	1	24_3_1	NA	NA	0	1	2.18695187569	None	None	None	None	1
3.0.1	2019_Mar_05_1401	s	s	4	3	Capacity	44	2_1	2	1	4	1	23_4_1	2	0	1	0	0.370099067688	-444.0	-274.0	-446.0	-276.0	1
3.0.1	2019_Mar_05_1401	s	s	4	3	Capacity	45	3_1	3	1	2	1	23_2_1	1	0	1	0	0.481628894806	8.0	260.0	15.0	259.0	1
3.0.1	2019_Mar_05_1401	s	s	4	3	Capacity	46	3_1	3	1	4	1	23_4_1	-1	0	1	0	0.402421951294	-427.0	20.0	-427.0	14.0	1
3.0.1	2019_Mar_05_1401	s	s	4	3	Capacity	47	ABS	0	0	2	1	24_2_1	NA	NA	0	1	2.99834084511	None	None	None	None	1
3.0.1	2019_Mar_05_1401	s	s	4	3	Capacity	48	ABS	0	0	2	1	24_2_1	NA	NA	0	1	1.86971902847	None	None	None	None	1
3.0.1	2019_Mar_05_1401	s	s	4	3	Capacity	49	ABS	0	0	1	1	24_1_1	NA	NA	0	1	3.1748290062	None	None	None	None	1
3.0.1	2019_Mar_05_1401	s	s	4	3	Capacity	50	2_1	2	1	3	1	23_3_1	1	0	1	0	0.446295022964	507.0	-27.0	507.0	-25.0	1
3.0.1	2019_Mar_05_1401	s	s	4	3	Capacity	51	ABS	0	0	4	1	24_4_1	NA	NA	0	1	2.22223091125	None	None	None	None	1
3.0.1	2019_Mar_05_1401	s	s	4	3	Capacity	52	ABS	0	0	2	1	24_2_1	NA	NA	0	1	1.74678277969	None	None	None	None	1
3.0.1	2019_Mar_05_1401	s	s	4	3	Capacity	53	4_1	4	1	3	1	23_3_1	1	0	1	0	0.392513990402	343.0	-188.0	344.0	-199.0	1
3.0.1	2019_Mar_05_1401	s	s	4	3	Capacity	54	2_1	2	1	4	1	23_4_1	2	0	1	0	0.343244791031	-97.0	-29.0	-95.0	-36.0	1
3.0.1	2019_Mar_05_1401	s	s	4	3	Capacity	55	ABS	0	0	3	1	24_3_1	NA	NA	0	1	1.17966294289	None	None	None	None	1
3.0.1	2019_Mar_05_1401	s	s	4	3	Capacity	56	ABS	0	0	3	1	24_3_1	NA	NA	0	1	1.19248485565	None	None	None	None	1
3.0.1	2019_Mar_05_1401	s	s	4	3	Capacity	57	3_1	3	1	4	1	23_4_1	-1	0	1	0	0.36399102211	-306.0	370.0	-315.0	376.0	1
3.0.1	2019_Mar_05_1401	s	s	4	3	Capacity	58	ABS	0	0	3	1	24_3_1	NA	NA	0	1	1.02551293373	None	None	None	None	1
3.0.1	2019_Mar_05_1401	s	s	4	3	Capacity	59	3_1	3	1	2	1	23_2_1	1	0	1	0	0.497173070908	519.0	119.0	523.0	121.0	1
3.0.1	2019_Mar_05_1401	s	s	4	3	Capacity	60	ABS	0	0	4	1	24_4_1	NA	NA	0	1	0.763761043549	None	None	None	None	1
3.0.1	2019_Mar_05_1401	s	s	4	3	Capacity	61	1_1	1	1	4	1	23_4_1	3	0	1	0	0.429067850113	-251.0	-127.0	-247.0	-132.0	1
3.0.1	2019_Mar_05_1401	s	s	4	3	Capacity	62	ABS	0	0	1	1	24_1_1	NA	NA	0	1	1.88627910614	None	None	None	None	1
3.0.1	2019_Mar_05_1401	s	s	4	3	Capacity	63	ABS	0	0	4	1	24_4_1	NA	NA	0	1	0.908222913742	None	None	None	None	1
3.0.1	2019_Mar_05_1401	s	s	4	3	Capacity	64	1_1	1	1	3	1	23_3_1	2	0	1	0	0.790359973907	285.0	-108.0	288.0	-117.0	1
3.0.1	2019_Mar_05_1401	s	s	4	3	Capacity	65	ABS	0	0	1	1	24_1_1	NA	NA	0	1	2.88078403473	None	None	None	None	1
3.0.1	2019_Mar_05_1401	s	s	4	3	Capacity	66	1_1	1	1	2	1	23_2_1	1	0	1	0	1.85471105576	63.0	-388.0	69.0	-385.0	1
3.0.1	2019_Mar_05_1401	s	s	4	3	Capacity	67	ABS	0	0	2	1	24_2_1	NA	NA	0	1	2.92259716988	None	None	None	None	1
3.0.1	2019_Mar_05_1401	s	s	4	3	Capacity	68	4_1	4	1	1	1	23_1_1	3	0	1	0	0.36395406723	158.0	-235.0	154.0	-233.0	1
3.0.1	2019_Mar_05_1401	s	s	4	3	Capacity	69	2_1	2	1	1	1	23_1_1	-1	0	1	0	1.37828588486	240.0	131.0	247.0	129.0	1
3.0.1	2019_Mar_05_1401	s	s	4	3	Capacity	70	4_1	4	1	2	1	23_2_1	2	0	1	0	0.399508953094	51.0	-168.0	56.0	-168.0	1
3.0.1	2019_Mar_05_1401	s	s	4	3	Capacity	71	3_1	3	1	1	1	23_1_1	2	0	1	0	0.364051103592	-62.0	-59.0	-69.0	-57.0	1
3.0.1	2019_Mar_05_1401	s	s	4	3	Capacity	72	ABS	0	0	2	1	24_2_1	NA	NA	0	1	4.88017392159	None	None	None	None	1
3.0.1	2019_Mar_05_1401	s	s	4	3	Capacity	73	ABS	0	0	2	1	24_2_1	NA	NA	0	1	2.26035714149	None	None	None	None	1
3.0.1	2019_Mar_05_1401	s	s	4	3	Capacity	74	3_1	3	1	1	1	23_1_1	2	0	1	0	0.415822982788	-85.0	405.0	-88.0	413.0	1
3.0.1	2019_Mar_05_1401	s	s	4	3	Capacity	75	ABS	0	0	4	1	24_4_1	NA	NA	0	1	0.834390878677	None	None	None	None	1
3.0.1	2019_Mar_05_1401	s	s	4	3	Capacity	76	2_1	2	1	4	1	23_4_1	2	0	1	0	0.363951921463	-71.0	380.0	-67.0	378.0	1
3.0.1	2019_Mar_05_1401	s	s	4	3	Capacity	77	4_1	4	1	2	1	23_2_1	2	0	1	0	0.383913040161	16.0	373.0	26.0	371.0	1
3.0.1	2019_Mar_05_1401	s	s	4	3	Capacity	78	ABS	0	0	2	1	24_2_1	NA	NA	0	1	1.54003810883	None	None	None	None	1
3.0.1	2019_Mar_05_1401	s	s	4	3	Capacity	79	1_1	1	1	4	1	23_4_1	3	0	1	0	0.3571600914	224.0	84.0	217.0	87.0	1
3.0.1	2019_Mar_05_1401	s	s	4	3	Capacity	80	2_1	2	1	3	1	23_3_1	1	0	1	0	0.486545085907	116.0	188.0	111.0	196.0	1
3.0.1	2019_Mar_05_1401	s	s	4	3	Capacity	81	ABS	0	0	3	1	24_3_1	NA	NA	0	1	1.93990087509	None	None	None	None	1
3.0.1	2019_Mar_05_1401	s	s	4	3	Capacity	82	ABS	0	0	3	1	24_3_1	NA	NA	0	1	1.62235188484	None	None	None	None	1
3.0.1	2019_Mar_05_1401	s	s	4	3	Capacity	83	ABS	0	0	4	1	24_4_1	NA	NA	0	1	1.30968308449	None	None	None	None	1
3.0.1	2019_Mar_05_1401	s	s	4	3	Capacity	84	ABS	0	0	3	1	24_3_1	NA	NA	0	1	1.28126883507	None	None	None	None	1
3.0.1	2019_Mar_05_1401	s	s	4	3	Capacity	85	ABS	0	0	1	1	24_1_1	NA	NA	0	1	2.56327986717	None	None	None	None	1
3.0.1	2019_Mar_05_1401	s	s	4	3	Capacity	86	1_1	1	1	3	1	23_3_1	2	0	1	0	0.469819068909	-396.0	-173.0	-392.0	-170.0	1
3.0.1	2019_Mar_05_1401	s	s	4	3	Capacity	87	3_1	3	1	2	1	23_2_1	1	0	1	0	0.463072061539	27.0	-301.0	32.0	-311.0	1
3.0.1	2019_Mar_05_1401	s	s	4	3	Capacity	88	ABS	0	0	1	1	24_1_1	NA	NA	0	1	3.41004896164	None	None	None	None	1
3.0.1	2019_Mar_05_1401	s	s	4	3	Capacity	89	ABS	0	0	1	1	24_1_1	NA	NA	0	1	2.05750894547	None	None	None	None	1
3.0.1	2019_Mar_05_1401	s	s	4	3	Capacity	90	4_1	4	1	3	1	23_3_1	1	0	1	0	0.368801116943	469.0	-406.0	478.0	-409.0	1
3.0.1	2019_Mar_05_1401	s	s	4	3	Capacity	91	ABS	0	0	4	1	24_4_1	NA	NA	0	1	1.92297410965	None	None	None	None	1
3.0.1	2019_Mar_05_1401	s	s	4	3	Capacity	92	4_1	4	1	1	1	23_1_1	3	0	1	0	0.364000082016	-46.0	-172.0	-35.0	-170.0	1
3.0.1	2019_Mar_05_1401	s	s	4	3	Capacity	93	ABS	0	0	2	1	24_2_1	NA	NA	0	1	2.44568991661	None	None	None	None	1
3.0.1	2019_Mar_05_1401	s	s	4	3	Capacity	94	3_1	3	1	4	1	23_4_1	-1	0	1	0	0.399312973022	-167.0	308.0	-181.0	313.0	1
3.0.1	2019_Mar_05_1401	s	s	4	3	Capacity	95	1_1	1	1	2	1	23_2_1	1	0	1	0	1.59238505363	285.0	-273.0	286.0	-277.0	1
3.0.1	2019_Mar_05_1401	s	s	4	3	Capacity	96	2_1	2	1	1	1	23_1_1	-1	0	1	0	2.75145816803	416.0	307.0	419.0	303.0	1
3.0.1	2019_Mar_05_1401	s	s	4	3	Capacity	1	1_3	1	3	1	2	23_1_2	0	1	1	0	3.24839115143	-208.0	-305.0	-204.0	-317.0	1
3.0.1	2019_Mar_05_1401	s	s	4	3	Capacity	2	ABS	0	0	1	2	24_1_2	NA	NA	0	1	8.61143493652	None	None	None	None	1
3.0.1	2019_Mar_05_1401	s	s	4	3	Capacity	3	ABS	0	0	1	1	24_1_1	NA	NA	0	1	2.52800798416	None	None	None	None	1
3.0.1	2019_Mar_05_1401	s	s	4	3	Capacity	4	1_1	1	1	1	2	23_1_2	0	1	1	0	0.975580215454	-460.0	-57.0	-468.0	-62.0	1
3.0.1	2019_Mar_05_1401	s	s	4	3	Capacity	5	1_4	1	4	1	2	23_1_2	0	2	1	0	0.599170923233	-89.0	173.0	-88.0	174.0	1
3.0.1	2019_Mar_05_1401	s	s	4	3	Capacity	6	1_4	1	4	1	3	23_1_3	0	1	1	0	0.559620141983	-204.0	-115.0	-205.0	-108.0	1
3.0.1	2019_Mar_05_1401	s	s	4	3	Capacity	7	1_3	1	3	1	4	23_1_4	0	-1	1	0	0.593750953674	-314.0	411.0	-318.0	409.0	1
3.0.1	2019_Mar_05_1401	s	s	4	3	Capacity	8	ABS	0	0	1	1	24_1_1	NA	NA	0	1	2.26141619682	None	None	None	None	1
3.0.1	2019_Mar_05_1401	s	s	4	3	Capacity	9	ABS	0	0	1	1	24_1_1	NA	NA	0	1	2.32544994354	None	None	None	None	1
3.0.1	2019_Mar_05_1401	s	s	4	3	Capacity	10	ABS	0	0	1	3	24_1_3	NA	NA	0	1	7.26768994331	None	None	None	None	1
3.0.1	2019_Mar_05_1401	s	s	4	3	Capacity	11	1_1	1	1	1	4	23_1_4	0	3	1	0	0.740244150162	508.0	397.0	513.0	395.0	1
3.0.1	2019_Mar_05_1401	s	s	4	3	Capacity	12	1_2	1	2	1	4	23_1_4	0	2	1	0	0.849985122681	-484.0	-91.0	-474.0	-92.0	1
3.0.1	2019_Mar_05_1401	s	s	4	3	Capacity	13	ABS	0	0	1	3	24_1_3	NA	NA	0	1	7.84695100784	None	None	None	None	1
3.0.1	2019_Mar_05_1401	s	s	4	3	Capacity	14	ABS	0	0	1	4	24_1_4	NA	NA	0	1	2.10720205307	None	None	None	None	1
3.0.1	2019_Mar_05_1401	s	s	4	3	Capacity	15	ABS	0	0	1	2	24_1_2	NA	NA	0	1	6.72714400291	None	None	None	None	1
3.0.1	2019_Mar_05_1401	s	s	4	3	Capacity	16	1_2	1	2	1	3	23_1_3	0	1	1	0	1.7753059864	-203.0	243.0	-203.0	236.0	1
3.0.1	2019_Mar_05_1401	s	s	4	3	Capacity	17	1_2	1	2	1	1	23_1_1	0	-1	0	1	2.19298219681	-77.0	362.0	None	None	0
3.0.1	2019_Mar_05_1401	s	s	4	3	Capacity	18	ABS	0	0	1	4	24_1_4	NA	NA	0	1	3.10477018356	None	None	None	None	1
3.0.1	2019_Mar_05_1401	s	s	4	3	Capacity	19	1_1	1	1	1	3	23_1_3	0	2	1	0	2.46216106415	248.0	-405.0	245.0	-407.0	1
3.0.1	2019_Mar_05_1401	s	s	4	3	Capacity	20	ABS	0	0	1	3	24_1_3	NA	NA	0	1	7.69112896919	None	None	None	None	1
3.0.1	2019_Mar_05_1401	s	s	4	3	Capacity	21	ABS	0	0	1	4	24_1_4	NA	NA	0	1	2.38685798645	None	None	None	None	1
3.0.1	2019_Mar_05_1401	s	s	4	3	Capacity	22	ABS	0	0	1	2	24_1_2	NA	NA	0	1	6.67083001137	None	None	None	None	1
3.0.1	2019_Mar_05_1401	s	s	4	3	Capacity	23	1_4	1	4	1	1	23_1_1	0	3	1	0	0.693383932114	170.0	186.0	166.0	186.0	1
3.0.1	2019_Mar_05_1401	s	s	4	3	Capacity	24	1_3	1	3	1	1	23_1_1	0	2	1	0	1.46943306923	-113.0	-367.0	-117.0	-369.0	1
3.0.1	2019_Mar_05_1401	s	s	4	3	Capacity	25	ABS	0	0	1	4	24_1_4	NA	NA	0	1	2.62739181519	None	None	None	None	1
3.0.1	2019_Mar_05_1401	s	s	4	3	Capacity	26	1_3	1	3	1	4	23_1_4	0	-1	1	0	1.05068588257	219.0	-394.0	218.0	-390.0	1
3.0.1	2019_Mar_05_1401	s	s	4	3	Capacity	27	ABS	0	0	1	1	24_1_1	NA	NA	0	1	2.17975711823	None	None	None	None	1
3.0.1	2019_Mar_05_1401	s	s	4	3	Capacity	28	1_1	1	1	1	4	23_1_4	0	3	1	0	0.6294298172	-503.0	-403.0	-501.0	-407.0	1
3.0.1	2019_Mar_05_1401	s	s	4	3	Capacity	29	ABS	0	0	1	2	24_1_2	NA	NA	0	1	8.97600889206	None	None	None	None	1
3.0.1	2019_Mar_05_1401	s	s	4	3	Capacity	30	1_4	1	4	1	1	23_1_1	0	3	1	0	0.646223068237	358.0	117.0	362.0	112.0	1
3.0.1	2019_Mar_05_1401	s	s	4	3	Capacity	31	1_3	1	3	1	2	23_1_2	0	1	1	0	1.56344389915	102.0	364.0	104.0	366.0	1
3.0.1	2019_Mar_05_1401	s	s	4	3	Capacity	32	ABS	0	0	1	1	24_1_1	NA	NA	0	1	3.39824819565	None	None	None	None	1
3.0.1	2019_Mar_05_1401	s	s	4	3	Capacity	33	1_1	1	1	1	2	23_1_2	0	1	1	0	4.46211695671	222.0	231.0	226.0	234.0	1
3.0.1	2019_Mar_05_1401	s	s	4	3	Capacity	34	1_3	1	3	1	1	23_1_1	0	2	1	0	1.09302377701	-27.0	349.0	-25.0	346.0	1
3.0.1	2019_Mar_05_1401	s	s	4	3	Capacity	35	1_2	1	2	1	1	23_1_1	0	-1	1	0	2.71614599228	469.0	66.0	469.0	68.0	1
3.0.1	2019_Mar_05_1401	s	s	4	3	Capacity	36	1_4	1	4	1	2	23_1_2	0	2	1	0	1.07436680794	-120.0	-385.0	-120.0	-383.0	1
3.0.1	2019_Mar_05_1401	s	s	4	3	Capacity	37	1_1	1	1	1	3	23_1_3	0	2	1	0	4.233314991	387.0	134.0	384.0	141.0	1
3.0.1	2019_Mar_05_1401	s	s	4	3	Capacity	38	ABS	0	0	1	2	24_1_2	NA	NA	0	1	9.39035582542	None	None	None	None	1
3.0.1	2019_Mar_05_1401	s	s	4	3	Capacity	39	ABS	0	0	1	3	24_1_3	NA	NA	0	1	8.43202614784	None	None	None	None	1
3.0.1	2019_Mar_05_1401	s	s	4	3	Capacity	40	ABS	0	0	1	4	24_1_4	NA	NA	0	1	3.76287198067	None	None	None	None	1
3.0.1	2019_Mar_05_1401	s	s	4	3	Capacity	41	ABS	0	0	1	3	24_1_3	NA	NA	0	1	8.8026509285	None	None	None	None	1
3.0.1	2019_Mar_05_1401	s	s	4	3	Capacity	42	ABS	0	0	1	2	24_1_2	NA	NA	0	1	9.72579479218	None	None	None	None	1
3.0.1	2019_Mar_05_1401	s	s	4	3	Capacity	43	ABS	0	0	1	1	24_1_1	NA	NA	0	1	2.97949814796	None	None	None	None	1
3.0.1	2019_Mar_05_1401	s	s	4	3	Capacity	44	1_4	1	4	1	3	23_1_3	0	1	1	0	0.975545883179	-366.0	332.0	-367.0	328.0	1
3.0.1	2019_Mar_05_1401	s	s	4	3	Capacity	45	1_2	1	2	1	3	23_1_3	0	1	1	0	6.89138793945	456.0	4.0	451.0	5.0	1
3.0.1	2019_Mar_05_1401	s	s	4	3	Capacity	46	1_2	1	2	1	4	23_1_4	0	2	1	0	0.505040168762	-228.0	97.0	-221.0	97.0	1
3.0.1	2019_Mar_05_1401	s	s	4	3	Capacity	47	ABS	0	0	1	3	24_1_3	NA	NA	0	1	12.1955258846	None	None	None	None	1
3.0.1	2019_Mar_05_1401	s	s	4	3	Capacity	48	ABS	0	0	1	4	24_1_4	NA	NA	0	1	3.2012591362	None	None	None	None	1
3.0.1	2019_Mar_05_1401	s	s	4	3	Capacity	49	1_1	1	1	1	4	23_1_4	0	3	1	0	0.763727903366	406.0	215.0	417.0	218.0	1
3.0.1	2019_Mar_05_1401	s	s	4	3	Capacity	50	ABS	0	0	1	1	24_1_1	NA	NA	0	1	4.25160217285	None	None	None	None	1
3.0.1	2019_Mar_05_1401	s	s	4	3	Capacity	51	1_1	1	1	1	3	23_1_3	0	2	1	0	1.04961013794	-481.0	42.0	-485.0	39.0	1
3.0.1	2019_Mar_05_1401	s	s	4	3	Capacity	52	ABS	0	0	1	4	24_1_4	NA	NA	0	1	1.9318549633	None	None	None	None	1
3.0.1	2019_Mar_05_1401	s	s	4	3	Capacity	53	ABS	0	0	1	3	24_1_3	NA	NA	0	1	6.36206507683	None	None	None	None	1
3.0.1	2019_Mar_05_1401	s	s	4	3	Capacity	54	1_3	1	3	1	1	23_1_1	0	2	1	0	0.752074956894	112.0	-178.0	116.0	-180.0	1
3.0.1	2019_Mar_05_1401	s	s	4	3	Capacity	55	1_3	1	3	1	2	23_1_2	0	1	1	0	6.4209318161	523.0	408.0	517.0	405.0	1
3.0.1	2019_Mar_05_1401	s	s	4	3	Capacity	56	1_4	1	4	1	1	23_1_1	0	3	1	0	0.575652837753	-94.0	138.0	-93.0	132.0	1
3.0.1	2019_Mar_05_1401	s	s	4	3	Capacity	57	1_3	1	3	1	4	23_1_4	0	-1	1	0	1.01080012321	222.0	-343.0	223.0	-347.0	1
3.0.1	2019_Mar_05_1401	s	s	4	3	Capacity	58	1_2	1	2	1	1	23_1_1	0	-1	1	0	3.64522004128	-390.0	327.0	-392.0	326.0	1
3.0.1	2019_Mar_05_1401	s	s	4	3	Capacity	59	ABS	0	0	1	1	24_1_1	NA	NA	0	1	5.36247205734	None	None	None	None	1
3.0.1	2019_Mar_05_1401	s	s	4	3	Capacity	60	ABS	0	0	1	4	24_1_4	NA	NA	0	1	2.42214894295	None	None	None	None	1
3.0.1	2019_Mar_05_1401	s	s	4	3	Capacity	61	ABS	0	0	1	2	24_1_2	NA	NA	0	1	9.52003002167	None	None	None	None	1
3.0.1	2019_Mar_05_1401	s	s	4	3	Capacity	62	1_4	1	4	1	2	23_1_2	0	2	1	0	0.763730049133	191.0	-302.0	195.0	-309.0	1
3.0.1	2019_Mar_05_1401	s	s	4	3	Capacity	63	1_2	1	2	1	4	23_1_4	0	2	1	0	0.708981990814	-138.0	-48.0	-136.0	-53.0	1
3.0.1	2019_Mar_05_1401	s	s	4	3	Capacity	64	1_2	1	2	1	3	23_1_3	0	1	1	0	2.17508888245	104.0	-273.0	105.0	-273.0	1
3.0.1	2019_Mar_05_1401	s	s	4	3	Capacity	65	ABS	0	0	1	3	24_1_3	NA	NA	0	1	12.5866670609	None	None	None	None	1
3.0.1	2019_Mar_05_1401	s	s	4	3	Capacity	66	ABS	0	0	1	2	24_1_2	NA	NA	0	1	12.2359461784	None	None	None	None	1
3.0.1	2019_Mar_05_1401	s	s	4	3	Capacity	67	ABS	0	0	1	4	24_1_4	NA	NA	0	1	1.86936116219	None	None	None	None	1
3.0.1	2019_Mar_05_1401	s	s	4	3	Capacity	68	ABS	0	0	1	2	24_1_2	NA	NA	0	1	7.10312509537	None	None	None	None	1
3.0.1	2019_Mar_05_1401	s	s	4	3	Capacity	69	ABS	0	0	1	3	24_1_3	NA	NA	0	1	9.33236885071	None	None	None	None	1
3.0.1	2019_Mar_05_1401	s	s	4	3	Capacity	70	1_4	1	4	1	3	23_1_3	0	1	1	0	0.720235109329	-152.0	-121.0	-160.0	-118.0	1
3.0.1	2019_Mar_05_1401	s	s	4	3	Capacity	71	ABS	0	0	1	1	24_1_1	NA	NA	0	1	4.88421702385	None	None	None	None	1
3.0.1	2019_Mar_05_1401	s	s	4	3	Capacity	72	1_1	1	1	1	2	23_1_2	0	1	1	0	4.06124806404	324.0	-343.0	317.0	-347.0	1
3.0.1	2019_Mar_05_1401	s	s	4	3	Capacity	73	ABS	0	0	1	1	24_1_1	NA	NA	0	1	3.16820693016	None	None	None	None	1
3.0.1	2019_Mar_05_1401	s	s	4	3	Capacity	74	ABS	0	0	1	4	24_1_4	NA	NA	0	1	3.09248900414	None	None	None	None	1
3.0.1	2019_Mar_05_1401	s	s	4	3	Capacity	75	ABS	0	0	1	3	24_1_3	NA	NA	0	1	13.5599298477	None	None	None	None	1
3.0.1	2019_Mar_05_1401	s	s	4	3	Capacity	76	ABS	0	0	1	1	24_1_1	NA	NA	0	1	6.86782598495	None	None	None	None	1
3.0.1	2019_Mar_05_1401	s	s	4	3	Capacity	77	1_2	1	2	1	4	23_1_4	0	2	1	0	0.611378908157	-397.0	-287.0	-397.0	-282.0	1
3.0.1	2019_Mar_05_1401	s	s	4	3	Capacity	78	1_1	1	1	1	3	23_1_3	0	2	1	0	1.44353914261	-327.0	161.0	-334.0	157.0	1
3.0.1	2019_Mar_05_1401	s	s	4	3	Capacity	79	ABS	0	0	1	2	24_1_2	NA	NA	0	1	7.61266303062	None	None	None	None	1
3.0.1	2019_Mar_05_1401	s	s	4	3	Capacity	80	1_2	1	2	1	1	23_1_1	0	-1	1	0	2.44103002548	-463.0	240.0	-473.0	238.0	1
3.0.1	2019_Mar_05_1401	s	s	4	3	Capacity	81	1_4	1	4	1	1	23_1_1	0	3	1	0	0.657965898514	-145.0	-307.0	-149.0	-308.0	1
3.0.1	2019_Mar_05_1401	s	s	4	3	Capacity	82	1_1	1	1	1	2	23_1_2	0	1	1	0	3.16306900978	-343.0	80.0	-340.0	82.0	1
3.0.1	2019_Mar_05_1401	s	s	4	3	Capacity	83	ABS	0	0	1	3	24_1_3	NA	NA	0	1	9.57293200493	None	None	None	None	1
3.0.1	2019_Mar_05_1401	s	s	4	3	Capacity	84	1_3	1	3	1	1	23_1_1	0	2	1	0	1.15191912651	204.0	155.0	200.0	151.0	1
3.0.1	2019_Mar_05_1401	s	s	4	3	Capacity	85	ABS	0	0	1	2	24_1_2	NA	NA	0	1	12.4125468731	None	None	None	None	1
3.0.1	2019_Mar_05_1401	s	s	4	3	Capacity	86	ABS	0	0	1	4	24_1_4	NA	NA	0	1	2.08925318718	None	None	None	None	1
3.0.1	2019_Mar_05_1401	s	s	4	3	Capacity	87	1_2	1	2	1	3	23_1_3	0	1	1	0	3.49236416817	410.0	-297.0	414.0	-300.0	1
3.0.1	2019_Mar_05_1401	s	s	4	3	Capacity	88	1_3	1	3	1	4	23_1_4	0	-1	1	0	0.768718004227	197.0	328.0	197.0	327.0	1
3.0.1	2019_Mar_05_1401	s	s	4	3	Capacity	89	ABS	0	0	1	1	24_1_1	NA	NA	0	1	3.68362188339	None	None	None	None	1
3.0.1	2019_Mar_05_1401	s	s	4	3	Capacity	90	ABS	0	0	1	2	24_1_2	NA	NA	0	1	13.8539121151	None	None	None	None	1
3.0.1	2019_Mar_05_1401	s	s	4	3	Capacity	91	1_4	1	4	1	3	23_1_3	0	1	1	0	3.18951582909	510.0	-159.0	516.0	-166.0	1
3.0.1	2019_Mar_05_1401	s	s	4	3	Capacity	92	1_3	1	3	1	2	23_1_2	0	1	1	0	4.35550117493	534.0	-384.0	535.0	-390.0	1
3.0.1	2019_Mar_05_1401	s	s	4	3	Capacity	93	ABS	0	0	1	4	24_1_4	NA	NA	0	1	2.62205815315	None	None	None	None	1
3.0.1	2019_Mar_05_1401	s	s	4	3	Capacity	94	ABS	0	0	1	3	24_1_3	NA	NA	0	1	9.6051530838	None	None	None	None	1
3.0.1	2019_Mar_05_1401	s	s	4	3	Capacity	95	1_4	1	4	1	2	23_1_2	0	2	1	0	0.546375989914	-78.0	-38.0	-72.0	-37.0	1
3.0.1	2019_Mar_05_1401	s	s	4	3	Capacity	96	1_1	1	1	1	4	23_1_4	0	3	1	0	0.425585985184	90.0	-1.0	93.0	0.0	1
3.0.1	2019_Mar_05_1401	s	s	4	3	SIC	1	ABS	0	0	4	3	24_4_3	NA	NA	0	1	8.60542583466	None	None	None	None	1
3.0.1	2019_Mar_05_1401	s	s	4	3	SIC	2	ABS	0	0	2	4	24_2_4	NA	NA	0	1	3.98989701271	None	None	None	None	1
3.0.1	2019_Mar_05_1401	s	s	4	3	SIC	3	4_2	4	2	2	3	23_2_3	2	1	1	0	0.442646026611	-378.0	-161.0	-376.0	-159.0	1
3.0.1	2019_Mar_05_1401	s	s	4	3	SIC	4	1_1	1	1	1	3	23_1_3	0	2	1	0	1.31137919426	31.0	-404.0	32.0	-405.0	1
3.0.1	2019_Mar_05_1401	s	s	4	3	SIC	5	ABS	0	0	2	2	24_2_2	NA	NA	0	1	8.2085609436	None	None	None	None	1
3.0.1	2019_Mar_05_1401	s	s	4	3	SIC	6	2_1	2	1	1	1	23_1_1	-1	0	1	0	1.17558813095	-295.0	-255.0	-299.0	-253.0	1
3.0.1	2019_Mar_05_1401	s	s	4	3	SIC	7	3_4	3	4	4	2	23_4_2	-1	2	1	0	0.732450008392	523.0	-390.0	526.0	-395.0	1
3.0.1	2019_Mar_05_1401	s	s	4	3	SIC	8	3_3	3	3	1	3	23_1_3	2	0	1	0	0.410918951035	369.0	-33.0	362.0	-28.0	1
3.0.1	2019_Mar_05_1401	s	s	4	3	SIC	9	ABS	0	0	2	4	24_2_4	NA	NA	0	1	4.91550207138	None	None	None	None	1
3.0.1	2019_Mar_05_1401	s	s	4	3	SIC	10	ABS	0	0	4	1	24_4_1	NA	NA	0	1	2.32451319695	None	None	None	None	1
3.0.1	2019_Mar_05_1401	s	s	4	3	SIC	11	ABS	0	0	1	4	24_1_4	NA	NA	0	1	4.43619704247	None	None	None	None	1
3.0.1	2019_Mar_05_1401	s	s	4	3	SIC	12	ABS	0	0	4	2	24_4_2	NA	NA	0	1	10.7066338062	None	None	None	None	1
3.0.1	2019_Mar_05_1401	s	s	4	3	SIC	13	ABS	0	0	4	3	24_4_3	NA	NA	0	1	9.40191793442	None	None	None	None	1
3.0.1	2019_Mar_05_1401	s	s	4	3	SIC	14	ABS	0	0	3	3	24_3_3	NA	NA	0	1	11.0122377872	None	None	None	None	1
3.0.1	2019_Mar_05_1401	s	s	4	3	SIC	15	1_1	1	1	2	2	23_2_2	1	1	1	0	5.64759778976	362.0	-262.0	363.0	-258.0	1
3.0.1	2019_Mar_05_1401	s	s	4	3	SIC	16	1_4	1	4	1	1	23_1_1	0	3	1	0	0.84063410759	-328.0	393.0	-332.0	392.0	1
3.0.1	2019_Mar_05_1401	s	s	4	3	SIC	17	ABS	0	0	1	1	24_1_1	NA	NA	0	1	4.05046200752	None	None	None	None	1
3.0.1	2019_Mar_05_1401	s	s	4	3	SIC	18	2_1	2	1	1	3	23_1_3	-1	2	1	0	0.893184900284	-514.0	183.0	-512.0	179.0	1
3.0.1	2019_Mar_05_1401	s	s	4	3	SIC	19	ABS	0	0	2	4	24_2_4	NA	NA	0	1	6.24961900711	None	None	None	None	1
3.0.1	2019_Mar_05_1401	s	s	4	3	SIC	20	ABS	0	0	3	1	24_3_1	NA	NA	0	1	3.66215586662	None	None	None	None	1
3.0.1	2019_Mar_05_1401	s	s	4	3	SIC	21	2_3	2	3	1	4	23_1_4	-1	-1	1	0	0.76858496666	-525.0	111.0	-530.0	108.0	1
3.0.1	2019_Mar_05_1401	s	s	4	3	SIC	22	ABS	0	0	4	1	24_4_1	NA	NA	0	1	2.46021604538	None	None	None	None	1
3.0.1	2019_Mar_05_1401	s	s	4	3	SIC	23	4_1	4	1	4	2	23_4_2	0	1	1	0	3.04550790787	-5.0	230.0	0.0	219.0	1
3.0.1	2019_Mar_05_1401	s	s	4	3	SIC	24	ABS	0	0	3	4	24_3_4	NA	NA	0	1	5.64461898804	None	None	None	None	1
3.0.1	2019_Mar_05_1401	s	s	4	3	SIC	25	4_4	4	4	1	2	23_1_2	3	2	1	0	0.5008020401	-475.0	240.0	-479.0	239.0	1
3.0.1	2019_Mar_05_1401	s	s	4	3	SIC	26	ABS	0	0	3	2	24_3_2	NA	NA	0	1	11.3182618618	None	None	None	None	1
3.0.1	2019_Mar_05_1401	s	s	4	3	SIC	27	4_2	4	2	1	4	23_1_4	3	2	1	0	0.392518997192	120.0	144.0	119.0	140.0	1
3.0.1	2019_Mar_05_1401	s	s	4	3	SIC	28	ABS	0	0	1	2	24_1_2	NA	NA	0	1	13.818680048	None	None	None	None	1
3.0.1	2019_Mar_05_1401	s	s	4	3	SIC	29	4_1	4	1	4	3	23_4_3	0	2	1	0	4.45684194565	159.0	-350.0	159.0	-351.0	1
3.0.1	2019_Mar_05_1401	s	s	4	3	SIC	30	ABS	0	0	4	1	24_4_1	NA	NA	0	1	5.25654911995	None	None	None	None	1
3.0.1	2019_Mar_05_1401	s	s	4	3	SIC	31	4_1	4	1	3	1	23_3_1	1	0	1	0	0.592243909836	339.0	-60.0	340.0	-57.0	1
3.0.1	2019_Mar_05_1401	s	s	4	3	SIC	32	ABS	0	0	4	1	24_4_1	NA	NA	0	1	4.39180183411	None	None	None	None	1
3.0.1	2019_Mar_05_1401	s	s	4	3	SIC	33	3_1	3	1	1	4	23_1_4	2	3	1	0	0.505087137222	470.0	-43.0	468.0	-47.0	1
3.0.1	2019_Mar_05_1401	s	s	4	3	SIC	34	2_4	2	4	2	3	23_2_3	0	1	1	0	3.08994102478	464.0	-375.0	468.0	-381.0	1
3.0.1	2019_Mar_05_1401	s	s	4	3	SIC	35	ABS	0	0	3	3	24_3_3	NA	NA	0	1	9.36605501175	None	None	None	None	1
3.0.1	2019_Mar_05_1401	s	s	4	3	SIC	36	ABS	0	0	3	1	24_3_1	NA	NA	0	1	6.62577700615	None	None	None	None	1
3.0.1	2019_Mar_05_1401	s	s	4	3	SIC	37	ABS	0	0	3	1	24_3_1	NA	NA	0	1	6.99724507332	None	None	None	None	1
3.0.1	2019_Mar_05_1401	s	s	4	3	SIC	38	1_3	1	3	4	2	23_4_2	3	1	1	0	0.46243596077	23.0	272.0	20.0	270.0	1
3.0.1	2019_Mar_05_1401	s	s	4	3	SIC	39	ABS	0	0	3	1	24_3_1	NA	NA	0	1	7.76684904099	None	None	None	None	1
3.0.1	2019_Mar_05_1401	s	s	4	3	SIC	40	3_1	3	1	4	4	23_4_4	-1	3	1	0	0.505514144897	-539.0	390.0	-536.0	384.0	1
3.0.1	2019_Mar_05_1401	s	s	4	3	SIC	41	ABS	0	0	2	3	24_2_3	NA	NA	0	1	11.4223539829	None	None	None	None	1
3.0.1	2019_Mar_05_1401	s	s	4	3	SIC	42	ABS	0	0	1	3	24_1_3	NA	NA	0	1	10.6902358532	None	None	None	None	1
3.0.1	2019_Mar_05_1401	s	s	4	3	SIC	43	ABS	0	0	1	4	24_1_4	NA	NA	0	1	5.06835103035	None	None	None	None	1
3.0.1	2019_Mar_05_1401	s	s	4	3	SIC	44	ABS	0	0	1	4	24_1_4	NA	NA	0	1	6.60910010338	None	None	None	None	1
3.0.1	2019_Mar_05_1401	s	s	4	3	SIC	45	2_1	2	1	2	4	23_2_4	0	3	1	0	0.481549024582	-412.0	-64.0	-406.0	-64.0	1
3.0.1	2019_Mar_05_1401	s	s	4	3	SIC	46	3_2	3	2	1	3	23_1_3	2	1	1	0	0.405586004257	164.0	-91.0	165.0	-87.0	1
3.0.1	2019_Mar_05_1401	s	s	4	3	SIC	47	4_4	4	4	3	4	23_3_4	1	0	1	0	0.378741025925	389.0	-89.0	391.0	-95.0	1
3.0.1	2019_Mar_05_1401	s	s	4	3	SIC	48	2_3	2	3	2	4	23_2_4	0	-1	1	0	0.50183391571	98.0	-89.0	87.0	-85.0	1
3.0.1	2019_Mar_05_1401	s	s	4	3	SIC	49	3_1	3	1	3	2	23_3_2	0	1	1	0	1.93466305733	-476.0	-240.0	-483.0	-241.0	1
3.0.1	2019_Mar_05_1401	s	s	4	3	SIC	50	ABS	0	0	1	4	24_1_4	NA	NA	0	1	7.52646708488	None	None	None	None	1
3.0.1	2019_Mar_05_1401	s	s	4	3	SIC	51	ABS	0	0	3	4	24_3_4	NA	NA	0	1	6.83645987511	None	None	None	None	1
3.0.1	2019_Mar_05_1401	s	s	4	3	SIC	52	ABS	0	0	1	3	24_1_3	NA	NA	0	1	11.9726819992	None	None	None	None	1
3.0.1	2019_Mar_05_1401	s	s	4	3	SIC	53	1_2	1	2	2	4	23_2_4	1	2	1	0	0.67264008522	251.0	346.0	256.0	346.0	1
3.0.1	2019_Mar_05_1401	s	s	4	3	SIC	54	ABS	0	0	4	4	24_4_4	NA	NA	0	1	5.81222605705	None	None	None	None	1
3.0.1	2019_Mar_05_1401	s	s	4	3	SIC	55	ABS	0	0	3	1	24_3_1	NA	NA	0	1	4.55368900299	None	None	None	None	1
3.0.1	2019_Mar_05_1401	s	s	4	3	SIC	56	2_1	2	1	4	4	23_4_4	2	3	1	0	0.476375102997	-30.0	-270.0	-23.0	-265.0	1
3.0.1	2019_Mar_05_1401	s	s	4	3	SIC	57	1_3	1	3	3	4	23_3_4	2	-1	1	0	0.509526968002	-521.0	150.0	-520.0	155.0	1
3.0.1	2019_Mar_05_1401	s	s	4	3	SIC	58	ABS	0	0	1	1	24_1_1	NA	NA	0	1	4.27357697487	None	None	None	None	1
3.0.1	2019_Mar_05_1401	s	s	4	3	SIC	59	1_4	1	4	4	1	23_4_1	3	3	1	0	0.422885894775	-404.0	220.0	-405.0	222.0	1
3.0.1	2019_Mar_05_1401	s	s	4	3	SIC	60	ABS	0	0	2	2	24_2_2	NA	NA	0	1	14.0538580418	None	None	None	None	1
3.0.1	2019_Mar_05_1401	s	s	4	3	SIC	61	4_1	4	1	3	2	23_3_2	1	1	1	0	0.44432091713	-57.0	-291.0	-72.0	-282.0	1
3.0.1	2019_Mar_05_1401	s	s	4	3	SIC	62	4_4	4	4	2	3	23_2_3	2	1	1	0	0.428092002869	-398.0	355.0	-393.0	357.0	1
3.0.1	2019_Mar_05_1401	s	s	4	3	SIC	63	4_3	4	3	3	3	23_3_3	1	0	1	0	0.399173021317	407.0	369.0	408.0	362.0	1
3.0.1	2019_Mar_05_1401	s	s	4	3	SIC	64	4_4	4	4	4	3	23_4_3	0	1	1	0	0.898422956467	170.0	249.0	172.0	250.0	1
3.0.1	2019_Mar_05_1401	s	s	4	3	SIC	65	4_1	4	1	2	2	23_2_2	2	1	1	0	0.374511957169	243.0	-273.0	233.0	-269.0	1
3.0.1	2019_Mar_05_1401	s	s	4	3	SIC	66	4_3	4	3	2	4	23_2_4	2	-1	1	0	0.352265119553	346.0	143.0	354.0	146.0	1
3.0.1	2019_Mar_05_1401	s	s	4	3	SIC	67	1_2	1	2	2	2	23_2_2	1	0	1	0	5.88400197029	455.0	334.0	458.0	333.0	1
3.0.1	2019_Mar_05_1401	s	s	4	3	SIC	68	ABS	0	0	3	2	24_3_2	NA	NA	0	1	7.90282797813	None	None	None	None	1
3.0.1	2019_Mar_05_1401	s	s	4	3	SIC	69	ABS	0	0	3	3	24_3_3	NA	NA	0	1	12.2544128895	None	None	None	None	1
3.0.1	2019_Mar_05_1401	s	s	4	3	SIC	70	2_2	2	2	3	4	23_3_4	1	2	1	0	0.474934101105	-25.0	267.0	-20.0	277.0	1
3.0.1	2019_Mar_05_1401	s	s	4	3	SIC	71	ABS	0	0	3	4	24_3_4	NA	NA	0	1	3.25028610229	None	None	None	None	1
3.0.1	2019_Mar_05_1401	s	s	4	3	SIC	72	ABS	0	0	2	4	24_2_4	NA	NA	0	1	5.77899217606	None	None	None	None	1
3.0.1	2019_Mar_05_1401	s	s	4	3	SIC	73	1_3	1	3	4	4	23_4_4	3	-1	1	0	0.451145887375	-512.0	30.0	-503.0	30.0	1
3.0.1	2019_Mar_05_1401	s	s	4	3	SIC	74	ABS	0	0	4	2	24_4_2	NA	NA	0	1	11.4076209068	None	None	None	None	1
3.0.1	2019_Mar_05_1401	s	s	4	3	SIC	75	ABS	0	0	4	3	24_4_3	NA	NA	0	1	10.6666769981	None	None	None	None	1
3.0.1	2019_Mar_05_1401	s	s	4	3	SIC	76	4_2	4	2	1	2	23_1_2	3	0	1	0	0.496226072311	-349.0	-4.0	-349.0	-3.0	1
3.0.1	2019_Mar_05_1401	s	s	4	3	SIC	77	ABS	0	0	2	1	24_2_1	NA	NA	0	1	6.47967600822	None	None	None	None	1
3.0.1	2019_Mar_05_1401	s	s	4	3	SIC	78	ABS	0	0	1	4	24_1_4	NA	NA	0	1	6.73854899406	None	None	None	None	1
3.0.1	2019_Mar_05_1401	s	s	4	3	SIC	79	ABS	0	0	4	4	24_4_4	NA	NA	0	1	1.46423006058	None	None	None	None	1
3.0.1	2019_Mar_05_1401	s	s	4	3	SIC	80	ABS	0	0	1	1	24_1_1	NA	NA	0	1	2.99176621437	None	None	None	None	1
3.0.1	2019_Mar_05_1401	s	s	4	3	SIC	81	1_2	1	2	2	3	23_2_3	1	1	1	0	0.790235042572	6.0	-41.0	4.0	-46.0	1
3.0.1	2019_Mar_05_1401	s	s	4	3	SIC	82	ABS	0	0	1	2	24_1_2	NA	NA	0	1	11.1988818645	None	None	None	None	1
3.0.1	2019_Mar_05_1401	s	s	4	3	SIC	83	4_3	4	3	2	2	23_2_2	2	1	1	0	0.434502840042	497.0	22.0	493.0	19.0	1
3.0.1	2019_Mar_05_1401	s	s	4	3	SIC	84	ABS	0	0	2	3	24_2_3	NA	NA	0	1	7.07959389687	None	None	None	None	1
3.0.1	2019_Mar_05_1401	s	s	4	3	SIC	85	ABS	0	0	4	4	24_4_4	NA	NA	0	1	2.01053094864	None	None	None	None	1
3.0.1	2019_Mar_05_1401	s	s	4	3	SIC	86	ABS	0	0	4	3	24_4_3	NA	NA	0	1	3.90786409378	None	None	None	None	1
3.0.1	2019_Mar_05_1401	s	s	4	3	SIC	87	1_4	1	4	3	2	23_3_2	2	2	1	0	0.411369085312	-189.0	-135.0	-195.0	-135.0	1
3.0.1	2019_Mar_05_1401	s	s	4	3	SIC	88	ABS	0	0	2	4	24_2_4	NA	NA	0	1	2.01431012154	None	None	None	None	1
3.0.1	2019_Mar_05_1401	s	s	4	3	SIC	89	ABS	0	0	3	1	24_3_1	NA	NA	0	1	1.99869894981	None	None	None	None	1
3.0.1	2019_Mar_05_1401	s	s	4	3	SIC	90	2_2	2	2	4	2	23_4_2	2	0	1	0	0.437392950058	-241.0	159.0	-247.0	155.0	1
3.0.1	2019_Mar_05_1401	s	s	4	3	SIC	91	ABS	0	0	3	2	24_3_2	NA	NA	0	1	8.36813998222	None	None	None	None	1
3.0.1	2019_Mar_05_1401	s	s	4	3	SIC	92	2_1	2	1	2	3	23_2_3	0	2	1	0	3.92026805878	457.0	150.0	450.0	149.0	1
3.0.1	2019_Mar_05_1401	s	s	4	3	SIC	93	2_2	2	2	1	3	23_1_3	-1	1	1	0	1.86929392815	-515.0	321.0	-509.0	313.0	1
3.0.1	2019_Mar_05_1401	s	s	4	3	SIC	94	ABS	0	0	1	3	24_1_3	NA	NA	0	1	14.9359438419	None	None	None	None	1
3.0.1	2019_Mar_05_1401	s	s	4	3	SIC	95	2_4	2	4	1	2	23_1_2	-1	2	1	0	0.604152202606	-94.0	130.0	-94.0	129.0	1
3.0.1	2019_Mar_05_1401	s	s	4	3	SIC	96	ABS	0	0	4	2	24_4_2	NA	NA	0	1	8.98482108116	None	None	None	None	1
3.0.1	2019_Mar_05_1401	s	s	4	3	SIC	97	ABS	0	0	1	4	24_1_4	NA	NA	0	1	4.56269693375	None	None	None	None	1
3.0.1	2019_Mar_05_1401	s	s	4	3	SIC	98	1_3	1	3	3	3	23_3_3	2	0	1	0	1.2607049942	-501.0	332.0	-498.0	329.0	1
3.0.1	2019_Mar_05_1401	s	s	4	3	SIC	99	ABS	0	0	4	2	24_4_2	NA	NA	0	1	9.96392989159	None	None	None	None	1
3.0.1	2019_Mar_05_1401	s	s	4	3	SIC	100	3_2	3	2	4	1	23_4_1	-1	-1	1	0	0.540401935577	384.0	-51.0	384.0	-55.0	1
3.0.1	2019_Mar_05_1401	s	s	4	3	SIC	101	2_1	2	1	4	2	23_4_2	2	1	1	0	0.437403917313	21.0	366.0	24.0	365.0	1
3.0.1	2019_Mar_05_1401	s	s	4	3	SIC	102	ABS	0	0	2	2	24_2_2	NA	NA	0	1	12.4576249123	None	None	None	None	1
3.0.1	2019_Mar_05_1401	s	s	4	3	SIC	103	3_1	3	1	3	4	23_3_4	0	3	1	0	0.520756959915	-457.0	-359.0	-456.0	-358.0	1
3.0.1	2019_Mar_05_1401	s	s	4	3	SIC	104	4_3	4	3	1	2	23_1_2	3	1	1	0	0.393359899521	39.0	-411.0	41.0	-420.0	1
3.0.1	2019_Mar_05_1401	s	s	4	3	SIC	105	ABS	0	0	3	1	24_3_1	NA	NA	0	1	5.11541604996	None	None	None	None	1
3.0.1	2019_Mar_05_1401	s	s	4	3	SIC	106	ABS	0	0	4	4	24_4_4	NA	NA	0	1	2.82198095322	None	None	None	None	1
3.0.1	2019_Mar_05_1401	s	s	4	3	SIC	107	3_1	3	1	1	2	23_1_2	2	1	1	0	0.387489795685	-146.0	145.0	-145.0	137.0	1
3.0.1	2019_Mar_05_1401	s	s	4	3	SIC	108	ABS	0	0	1	1	24_1_1	NA	NA	0	1	4.68320012093	None	None	None	None	1
3.0.1	2019_Mar_05_1401	s	s	4	3	SIC	109	ABS	0	0	4	1	24_4_1	NA	NA	0	1	2.36622095108	None	None	None	None	1
3.0.1	2019_Mar_05_1401	s	s	4	3	SIC	110	ABS	0	0	3	4	24_3_4	NA	NA	0	1	4.00995802879	None	None	None	None	1
3.0.1	2019_Mar_05_1401	s	s	4	3	SIC	111	ABS	0	0	2	2	24_2_2	NA	NA	0	1	8.02049994469	None	None	None	None	1
3.0.1	2019_Mar_05_1401	s	s	4	3	SIC	112	ABS	0	0	2	2	24_2_2	NA	NA	0	1	12.6120758057	None	None	None	None	1
3.0.1	2019_Mar_05_1401	s	s	4	3	SIC	113	4_2	4	2	2	2	23_2_2	2	0	1	0	0.496214151382	472.0	-60.0	484.0	-54.0	1
3.0.1	2019_Mar_05_1401	s	s	4	3	SIC	114	ABS	0	0	3	2	24_3_2	NA	NA	0	1	7.87941789627	None	None	None	None	1
3.0.1	2019_Mar_05_1401	s	s	4	3	SIC	115	1_2	1	2	2	1	23_2_1	1	-1	1	0	0.662909030914	-315.0	-188.0	-316.0	-187.0	1
3.0.1	2019_Mar_05_1401	s	s	4	3	SIC	116	ABS	0	0	2	4	24_2_4	NA	NA	0	1	4.12752103806	None	None	None	None	1
3.0.1	2019_Mar_05_1401	s	s	4	3	SIC	117	ABS	0	0	2	3	24_2_3	NA	NA	0	1	7.45589494705	None	None	None	None	1
3.0.1	2019_Mar_05_1401	s	s	4	3	SIC	118	3_4	3	4	4	4	23_4_4	-1	0	1	0	0.434474945068	-59.0	-378.0	-62.0	-380.0	1
3.0.1	2019_Mar_05_1401	s	s	4	3	SIC	119	1_3	1	3	4	1	23_4_1	3	2	1	0	0.423046827316	-450.0	-266.0	-444.0	-267.0	1
3.0.1	2019_Mar_05_1401	s	s	4	3	SIC	120	ABS	0	0	3	2	24_3_2	NA	NA	0	1	7.45584797859	None	None	None	None	1
3.0.1	2019_Mar_05_1401	s	s	4	3	SIC	121	4_4	4	4	3	1	23_3_1	1	3	1	0	0.446253061295	-137.0	347.0	-139.0	348.0	1
3.0.1	2019_Mar_05_1401	s	s	4	3	SIC	122	4_3	4	3	2	3	23_2_3	2	0	1	0	0.39925122261	-375.0	-368.0	-385.0	-365.0	1
3.0.1	2019_Mar_05_1401	s	s	4	3	SIC	123	4_4	4	4	3	3	23_3_3	1	1	1	0	0.379660129547	534.0	-73.0	533.0	-81.0	1
3.0.1	2019_Mar_05_1401	s	s	4	3	SIC	124	ABS	0	0	1	2	24_1_2	NA	NA	0	1	6.85024785995	None	None	None	None	1
3.0.1	2019_Mar_05_1401	s	s	4	3	SIC	125	ABS	0	0	1	3	24_1_3	NA	NA	0	1	3.51593399048	None	None	None	None	1
3.0.1	2019_Mar_05_1401	s	s	4	3	SIC	126	ABS	0	0	1	2	24_1_2	NA	NA	0	1	8.79703402519	None	None	None	None	1
3.0.1	2019_Mar_05_1401	s	s	4	3	SIC	127	ABS	0	0	2	2	24_2_2	NA	NA	0	1	6.2327940464	None	None	None	None	1
3.0.1	2019_Mar_05_1401	s	s	4	3	SIC	128	ABS	0	0	3	2	24_3_2	NA	NA	0	1	5.63568997383	None	None	None	None	1
3.0.1	2019_Mar_05_1401	s	s	4	3	SIC	129	ABS	0	0	4	4	24_4_4	NA	NA	0	1	1.89808702469	None	None	None	None	1
3.0.1	2019_Mar_05_1401	s	s	4	3	SIC	130	2_1	2	1	4	1	23_4_1	2	0	1	0	0.613823890686	-434.0	-224.0	-442.0	-219.0	1
3.0.1	2019_Mar_05_1401	s	s	4	3	SIC	131	1_2	1	2	3	2	23_3_2	2	0	1	0	0.422850131989	33.0	-161.0	34.0	-161.0	1
3.0.1	2019_Mar_05_1401	s	s	4	3	SIC	132	ABS	0	0	2	1	24_2_1	NA	NA	0	1	5.61229705811	None	None	None	None	1
3.0.1	2019_Mar_05_1401	s	s	4	3	SIC	133	2_2	2	2	2	1	23_2_1	0	-1	1	0	3.06088495255	-474.0	185.0	-480.0	184.0	1
3.0.1	2019_Mar_05_1401	s	s	4	3	SIC	134	ABS	0	0	1	1	24_1_1	NA	NA	0	1	6.61199116707	None	None	None	None	1
3.0.1	2019_Mar_05_1401	s	s	4	3	SIC	135	3_2	3	2	3	4	23_3_4	0	2	1	0	0.505196094513	-340.0	230.0	-337.0	232.0	1
3.0.1	2019_Mar_05_1401	s	s	4	3	SIC	136	ABS	0	0	1	2	24_1_2	NA	NA	0	1	6.26397395134	None	None	None	None	1
3.0.1	2019_Mar_05_1401	s	s	4	3	SIC	137	ABS	0	0	1	1	24_1_1	NA	NA	0	1	9.37586593628	None	None	None	None	1
3.0.1	2019_Mar_05_1401	s	s	4	3	SIC	138	2_2	2	2	3	2	23_3_2	1	0	1	0	0.496228218079	117.0	-97.0	121.0	-93.0	1
3.0.1	2019_Mar_05_1401	s	s	4	3	SIC	139	3_1	3	1	2	3	23_2_3	1	2	1	0	0.511178970337	-476.0	-199.0	-469.0	-201.0	1
3.0.1	2019_Mar_05_1401	s	s	4	3	SIC	140	1_3	1	3	3	2	23_3_2	2	1	1	0	0.450710058212	-59.0	-280.0	-44.0	-274.0	1
3.0.1	2019_Mar_05_1401	s	s	4	3	SIC	141	ABS	0	0	1	3	24_1_3	NA	NA	0	1	12.7013559341	None	None	None	None	1
3.0.1	2019_Mar_05_1401	s	s	4	3	SIC	142	1_1	1	1	4	4	23_4_4	3	3	1	0	0.404070138931	276.0	253.0	281.0	252.0	1
3.0.1	2019_Mar_05_1401	s	s	4	3	SIC	143	1_4	1	4	2	2	23_2_2	1	2	1	0	0.912138938904	390.0	-163.0	392.0	-172.0	1
3.0.1	2019_Mar_05_1401	s	s	4	3	SIC	144	ABS	0	0	3	4	24_3_4	NA	NA	0	1	3.80999708176	None	None	None	None	1
3.0.1	2019_Mar_05_1401	s	s	4	3	SIC	145	3_4	3	4	1	2	23_1_2	2	2	1	0	0.434486150742	60.0	254.0	58.0	254.0	1
3.0.1	2019_Mar_05_1401	s	s	4	3	SIC	146	4_1	4	1	1	1	23_1_1	3	0	1	0	0.352161169052	349.0	278.0	353.0	284.0	1
3.0.1	2019_Mar_05_1401	s	s	4	3	SIC	147	3_1	3	1	2	2	23_2_2	1	1	1	0	0.370227098465	-80.0	-202.0	-78.0	-200.0	1
3.0.1	2019_Mar_05_1401	s	s	4	3	SIC	148	1_1	1	1	3	2	23_3_2	2	1	1	0	0.460711956024	-417.0	-352.0	-407.0	-351.0	1
3.0.1	2019_Mar_05_1401	s	s	4	3	SIC	149	3_2	3	2	2	3	23_2_3	1	1	1	0	0.687492132187	229.0	-399.0	233.0	-394.0	1
3.0.1	2019_Mar_05_1401	s	s	4	3	SIC	150	1_3	1	3	2	1	23_2_1	1	2	1	0	1.10490393639	111.0	83.0	110.0	81.0	1
3.0.1	2019_Mar_05_1401	s	s	4	3	SIC	151	1_3	1	3	3	1	23_3_1	2	2	1	0	0.44630408287	-360.0	216.0	-353.0	226.0	1
3.0.1	2019_Mar_05_1401	s	s	4	3	SIC	152	4_4	4	4	1	1	23_1_1	3	3	1	0	0.375799179077	189.0	125.0	194.0	125.0	1
3.0.1	2019_Mar_05_1401	s	s	4	3	SIC	153	ABS	0	0	2	3	24_2_3	NA	NA	0	1	10.5019671917	None	None	None	None	1
3.0.1	2019_Mar_05_1401	s	s	4	3	SIC	154	ABS	0	0	4	3	24_4_3	NA	NA	0	1	6.29156303406	None	None	None	None	1
3.0.1	2019_Mar_05_1401	s	s	4	3	SIC	155	ABS	0	0	1	1	24_1_1	NA	NA	0	1	5.16586494446	None	None	None	None	1
3.0.1	2019_Mar_05_1401	s	s	4	3	SIC	156	ABS	0	0	4	4	24_4_4	NA	NA	0	1	1.69676280022	None	None	None	None	1
3.0.1	2019_Mar_05_1401	s	s	4	3	SIC	157	ABS	0	0	1	2	24_1_2	NA	NA	0	1	4.90866088867	None	None	None	None	1
3.0.1	2019_Mar_05_1401	s	s	4	3	SIC	158	4_2	4	2	2	4	23_2_4	2	2	1	0	0.616060018539	371.0	-358.0	368.0	-352.0	1
3.0.1	2019_Mar_05_1401	s	s	4	3	SIC	159	2_3	2	3	3	3	23_3_3	1	0	1	0	0.493276119232	145.0	-241.0	150.0	-243.0	1
3.0.1	2019_Mar_05_1401	s	s	4	3	SIC	160	2_2	2	2	1	4	23_1_4	-1	2	1	0	0.873318910599	312.0	-194.0	307.0	-185.0	1
3.0.1	2019_Mar_05_1401	s	s	4	3	SIC	161	ABS	0	0	1	2	24_1_2	NA	NA	0	1	8.4203441143	None	None	None	None	1
3.0.1	2019_Mar_05_1401	s	s	4	3	SIC	162	1_1	1	1	1	2	23_1_2	0	1	1	0	1.36839699745	-265.0	-295.0	-263.0	-298.0	1
3.0.1	2019_Mar_05_1401	s	s	4	3	SIC	163	ABS	0	0	2	3	24_2_3	NA	NA	0	1	8.06751704216	None	None	None	None	1
3.0.1	2019_Mar_05_1401	s	s	4	3	SIC	164	1_4	1	4	4	4	23_4_4	3	0	1	0	0.458056926727	-375.0	-55.0	-366.0	-58.0	1
3.0.1	2019_Mar_05_1401	s	s	4	3	SIC	165	3_3	3	3	3	1	23_3_1	0	2	1	0	1.99157691002	334.0	394.0	336.0	386.0	1
3.0.1	2019_Mar_05_1401	s	s	4	3	SIC	166	ABS	0	0	2	3	24_2_3	NA	NA	0	1	4.81410002708	None	None	None	None	1
3.0.1	2019_Mar_05_1401	s	s	4	3	SIC	167	3_4	3	4	3	1	23_3_1	0	3	1	0	0.88139295578	499.0	-241.0	504.0	-244.0	1
3.0.1	2019_Mar_05_1401	s	s	4	3	SIC	168	ABS	0	0	2	1	24_2_1	NA	NA	0	1	5.13735103607	None	None	None	None	1
3.0.1	2019_Mar_05_1401	s	s	4	3	SIC	169	ABS	0	0	1	1	24_1_1	NA	NA	0	1	2.73079204559	None	None	None	None	1
3.0.1	2019_Mar_05_1401	s	s	4	3	SIC	170	ABS	0	0	3	2	24_3_2	NA	NA	0	1	5.55980801582	None	None	None	None	1
3.0.1	2019_Mar_05_1401	s	s	4	3	SIC	171	1_4	1	4	1	2	23_1_2	0	2	1	0	0.622687101364	305.0	-382.0	305.0	-377.0	1
3.0.1	2019_Mar_05_1401	s	s	4	3	SIC	172	2_2	2	2	3	1	23_3_1	1	-1	1	0	1.24089407921	-32.0	355.0	-33.0	350.0	1
3.0.1	2019_Mar_05_1401	s	s	4	3	SIC	173	1_3	1	3	2	4	23_2_4	1	-1	1	0	0.709342956543	506.0	387.0	506.0	382.0	1
3.0.1	2019_Mar_05_1401	s	s	4	3	SIC	174	1_2	1	2	1	4	23_1_4	0	2	1	0	0.579813957214	-311.0	139.0	-313.0	133.0	1
3.0.1	2019_Mar_05_1401	s	s	4	3	SIC	175	2_4	2	4	3	3	23_3_3	1	1	1	0	0.469683170319	40.0	117.0	36.0	112.0	1
3.0.1	2019_Mar_05_1401	s	s	4	3	SIC	176	4_4	4	4	1	3	23_1_3	3	1	1	0	0.381036996841	-36.0	-31.0	-38.0	-37.0	1
3.0.1	2019_Mar_05_1401	s	s	4	3	SIC	177	4_3	4	3	3	1	23_3_1	1	2	1	0	0.399137973785	-379.0	-34.0	-380.0	-34.0	1
3.0.1	2019_Mar_05_1401	s	s	4	3	SIC	178	ABS	0	0	1	1	24_1_1	NA	NA	0	1	4.7432050705	None	None	None	None	1
3.0.1	2019_Mar_05_1401	s	s	4	3	SIC	179	2_3	2	3	3	2	23_3_2	1	1	1	0	0.458056926727	251.0	364.0	256.0	362.0	1
3.0.1	2019_Mar_05_1401	s	s	4	3	SIC	180	ABS	0	0	2	4	24_2_4	NA	NA	0	1	1.26070094109	None	None	None	None	1
3.0.1	2019_Mar_05_1401	s	s	4	3	SIC	181	ABS	0	0	2	2	24_2_2	NA	NA	0	1	6.84723186493	None	None	None	None	1
3.0.1	2019_Mar_05_1401	s	s	4	3	SIC	182	ABS	0	0	3	1	24_3_1	NA	NA	0	1	1.70474815369	None	None	None	None	1
3.0.1	2019_Mar_05_1401	s	s	4	3	SIC	183	ABS	0	0	2	3	24_2_3	NA	NA	0	1	9.03189182281	None	None	None	None	1
3.0.1	2019_Mar_05_1401	s	s	4	3	SIC	184	1_2	1	2	3	1	23_3_1	2	-1	1	0	0.458081007004	-124.0	-192.0	-128.0	-197.0	1
3.0.1	2019_Mar_05_1401	s	s	4	3	SIC	185	ABS	0	0	2	2	24_2_2	NA	NA	0	1	5.785820961	None	None	None	None	1
3.0.1	2019_Mar_05_1401	s	s	4	3	SIC	186	4_2	4	2	4	1	23_4_1	0	-1	1	0	0.886216163635	-32.0	58.0	-25.0	-94.0	0
3.0.1	2019_Mar_05_1401	s	s	4	3	SIC	187	ABS	0	0	3	3	24_3_3	NA	NA	0	1	8.76133608818	None	None	None	None	1
3.0.1	2019_Mar_05_1401	s	s	4	3	SIC	188	1_3	1	3	2	3	23_2_3	1	0	1	0	2.62201786041	11.0	339.0	10.0	338.0	1
3.0.1	2019_Mar_05_1401	s	s	4	3	SIC	189	4_2	4	2	3	3	23_3_3	1	1	1	0	0.461297035217	-102.0	-15.0	-108.0	-24.0	1
3.0.1	2019_Mar_05_1401	s	s	4	3	SIC	190	ABS	0	0	4	2	24_4_2	NA	NA	0	1	5.64985799789	None	None	None	None	1
3.0.1	2019_Mar_05_1401	s	s	4	3	SIC	191	ABS	0	0	2	1	24_2_1	NA	NA	0	1	9.04362106323	None	None	None	None	1
3.0.1	2019_Mar_05_1401	s	s	4	3	SIC	192	ABS	0	0	4	2	24_4_2	NA	NA	0	1	6.73844385147	None	None	None	None	1
3.0.1	2019_Mar_05_1401	s	s	4	3	SIC	193	2_1	2	1	2	2	23_2_2	0	1	1	0	3.43695688248	307.0	190.0	316.0	192.0	1
3.0.1	2019_Mar_05_1401	s	s	4	3	SIC	194	ABS	0	0	3	4	24_3_4	NA	NA	0	1	3.85461902618	None	None	None	None	1
3.0.1	2019_Mar_05_1401	s	s	4	3	SIC	195	ABS	0	0	4	1	24_4_1	NA	NA	0	1	4.04507899284	None	None	None	None	1
3.0.1	2019_Mar_05_1401	s	s	4	3	SIC	196	4_4	4	4	4	1	23_4_1	0	3	1	0	0.85650396347	42.0	-63.0	42.0	-65.0	1
3.0.1	2019_Mar_05_1401	s	s	4	3	SIC	197	ABS	0	0	3	4	24_3_4	NA	NA	0	1	1.60329604149	None	None	None	None	1
3.0.1	2019_Mar_05_1401	s	s	4	3	SIC	198	ABS	0	0	3	4	24_3_4	NA	NA	0	1	1.42718291283	None	None	None	None	1
3.0.1	2019_Mar_05_1401	s	s	4	3	SIC	199	4_4	4	4	1	4	23_1_4	3	0	1	0	0.410993099213	321.0	333.0	315.0	341.0	1
3.0.1	2019_Mar_05_1401	s	s	4	3	SIC	200	ABS	0	0	2	3	24_2_3	NA	NA	0	1	10.5658340454	None	None	None	None	1
3.0.1	2019_Mar_05_1401	s	s	4	3	SIC	201	ABS	0	0	4	1	24_4_1	NA	NA	0	1	1.42247605324	None	None	None	None	1
3.0.1	2019_Mar_05_1401	s	s	4	3	SIC	202	3_3	3	3	3	4	23_3_4	0	-1	1	0	0.810810089111	282.0	48.0	291.0	50.0	1
3.0.1	2019_Mar_05_1401	s	s	4	3	SIC	203	ABS	0	0	1	3	24_1_3	NA	NA	0	1	9.12594008446	None	None	None	None	1
3.0.1	2019_Mar_05_1401	s	s	4	3	SIC	204	ABS	0	0	3	2	24_3_2	NA	NA	0	1	4.42157912254	None	None	None	None	1
3.0.1	2019_Mar_05_1401	s	s	4	3	SIC	205	ABS	0	0	4	4	24_4_4	NA	NA	0	1	1.2157740593	None	None	None	None	1
3.0.1	2019_Mar_05_1401	s	s	4	3	SIC	206	2_4	2	4	2	2	23_2_2	0	2	1	0	0.603758811951	167.0	353.0	162.0	356.0	1
3.0.1	2019_Mar_05_1401	s	s	4	3	SIC	207	3_1	3	1	2	4	23_2_4	1	3	1	0	0.657917022705	453.0	-404.0	460.0	-399.0	1
3.0.1	2019_Mar_05_1401	s	s	4	3	SIC	208	ABS	0	0	3	3	24_3_3	NA	NA	0	1	6.04453492165	None	None	None	None	1
3.0.1	2019_Mar_05_1401	s	s	4	3	SIC	209	1_1	1	1	3	3	23_3_3	2	2	1	0	0.356757164001	161.0	-1.0	153.0	-3.0	1
3.0.1	2019_Mar_05_1401	s	s	4	3	SIC	210	ABS	0	0	3	3	24_3_3	NA	NA	0	1	6.103317976	None	None	None	None	1
3.0.1	2019_Mar_05_1401	s	s	4	3	SIC	211	1_3	1	3	1	2	23_1_2	0	1	1	0	2.70871806145	296.0	-117.0	292.0	-117.0	1
3.0.1	2019_Mar_05_1401	s	s	4	3	SIC	212	3_3	3	3	2	4	23_2_4	1	-1	1	0	0.427875995636	324.0	180.0	323.0	165.0	1
3.0.1	2019_Mar_05_1401	s	s	4	3	SIC	213	4_1	4	1	1	2	23_1_2	3	1	1	0	0.410931825638	-416.0	-231.0	-416.0	-236.0	1
3.0.1	2019_Mar_05_1401	s	s	4	3	SIC	214	2_2	2	2	3	3	23_3_3	1	1	1	0	0.422742128372	18.0	-141.0	8.0	-143.0	1
3.0.1	2019_Mar_05_1401	s	s	4	3	SIC	215	ABS	0	0	4	3	24_4_3	NA	NA	0	1	7.36470198631	None	None	None	None	1
3.0.1	2019_Mar_05_1401	s	s	4	3	SIC	216	ABS	0	0	1	3	24_1_3	NA	NA	0	1	7.0834209919	None	None	None	None	1
3.0.1	2019_Mar_05_1401	s	s	4	3	SIC	217	ABS	0	0	2	1	24_2_1	NA	NA	0	1	3.21020817757	None	None	None	None	1
3.0.1	2019_Mar_05_1401	s	s	4	3	SIC	218	4_3	4	3	4	1	23_4_1	0	2	1	0	1.51653885841	115.0	287.0	110.0	289.0	1
3.0.1	2019_Mar_05_1401	s	s	4	3	SIC	219	1_4	1	4	2	3	23_2_3	1	1	1	0	0.693246126175	257.0	-193.0	269.0	-192.0	1
3.0.1	2019_Mar_05_1401	s	s	4	3	SIC	220	ABS	0	0	4	2	24_4_2	NA	NA	0	1	8.45820713043	None	None	None	None	1
3.0.1	2019_Mar_05_1401	s	s	4	3	SIC	221	ABS	0	0	4	4	24_4_4	NA	NA	0	1	2.09138298035	None	None	None	None	1
3.0.1	2019_Mar_05_1401	s	s	4	3	SIC	222	ABS	0	0	4	4	24_4_4	NA	NA	0	1	1.54528784752	None	None	None	None	1
3.0.1	2019_Mar_05_1401	s	s	4	3	SIC	223	ABS	0	0	4	2	24_4_2	NA	NA	0	1	6.87960386276	None	None	None	None	1
3.0.1	2019_Mar_05_1401	s	s	4	3	SIC	224	2_2	2	2	1	2	23_1_2	-1	0	1	0	1.57537412643	-157.0	39.0	-164.0	37.0	1
3.0.1	2019_Mar_05_1401	s	s	4	3	SIC	225	ABS	0	0	2	4	24_2_4	NA	NA	0	1	2.98661804199	None	None	None	None	1
3.0.1	2019_Mar_05_1401	s	s	4	3	SIC	226	4_4	4	4	2	1	23_2_1	2	3	1	0	0.390372991562	-88.0	394.0	-85.0	391.0	1
3.0.1	2019_Mar_05_1401	s	s	4	3	SIC	227	ABS	0	0	1	2	24_1_2	NA	NA	0	1	11.4938421249	None	None	None	None	1
3.0.1	2019_Mar_05_1401	s	s	4	3	SIC	228	2_1	2	1	3	1	23_3_1	1	0	1	0	0.52859711647	-281.0	-50.0	-285.0	-46.0	1
3.0.1	2019_Mar_05_1401	s	s	4	3	SIC	229	4_3	4	3	3	2	23_3_2	1	1	1	0	0.35214304924	-86.0	-351.0	-91.0	-343.0	1
3.0.1	2019_Mar_05_1401	s	s	4	3	SIC	230	ABS	0	0	3	1	24_3_1	NA	NA	0	1	3.43653297424	None	None	None	None	1
3.0.1	2019_Mar_05_1401	s	s	4	3	SIC	231	ABS	0	0	3	1	24_3_1	NA	NA	0	1	1.25270009041	None	None	None	None	1
3.0.1	2019_Mar_05_1401	s	s	4	3	SIC	232	1_4	1	4	2	4	23_2_4	1	0	1	0	0.928465843201	91.0	-138.0	94.0	-140.0	1
3.0.1	2019_Mar_05_1401	s	s	4	3	SIC	233	3_2	3	2	3	3	23_3_3	0	1	1	0	1.58703398705	-19.0	-262.0	-14.0	-262.0	1
3.0.1	2019_Mar_05_1401	s	s	4	3	SIC	234	3_2	3	2	3	1	23_3_1	0	-1	0	1	3.28598713875	302.0	103.0	None	None	0
3.0.1	2019_Mar_05_1401	s	s	4	3	SIC	235	ABS	0	0	4	3	24_4_3	NA	NA	0	1	6.25627183914	None	None	None	None	1
3.0.1	2019_Mar_05_1401	s	s	4	3	SIC	236	3_2	3	2	4	2	23_4_2	-1	0	1	0	0.427897930145	-103.0	-326.0	-111.0	-330.0	1
3.0.1	2019_Mar_05_1401	s	s	4	3	SIC	237	ABS	0	0	2	3	24_2_3	NA	NA	0	1	9.51890206337	None	None	None	None	1
3.0.1	2019_Mar_05_1401	s	s	4	3	SIC	238	ABS	0	0	4	4	24_4_4	NA	NA	0	1	1.30099081993	None	None	None	None	1
3.0.1	2019_Mar_05_1401	s	s	4	3	SIC	239	ABS	0	0	2	3	24_2_3	NA	NA	0	1	3.93928599358	None	None	None	None	1
3.0.1	2019_Mar_05_1401	s	s	4	3	SIC	240	ABS	0	0	3	3	24_3_3	NA	NA	0	1	3.15665602684	None	None	None	None	1
3.0.1	2019_Mar_05_1401	s	s	4	3	SIC	241	ABS	0	0	2	2	24_2_2	NA	NA	0	1	6.5385389328	None	None	None	None	1
3.0.1	2019_Mar_05_1401	s	s	4	3	SIC	242	4_1	4	1	3	3	23_3_3	1	2	1	0	0.475011825562	349.0	-58.0	354.0	-63.0	1
3.0.1	2019_Mar_05_1401	s	s	4	3	SIC	243	3_4	3	4	2	4	23_2_4	1	0	1	0	0.476090908051	-325.0	186.0	-325.0	189.0	1
3.0.1	2019_Mar_05_1401	s	s	4	3	SIC	244	ABS	0	0	1	4	24_1_4	NA	NA	0	1	2.49559688568	None	None	None	None	1
3.0.1	2019_Mar_05_1401	s	s	4	3	SIC	245	ABS	0	0	3	3	24_3_3	NA	NA	0	1	4.65117406845	None	None	None	None	1
3.0.1	2019_Mar_05_1401	s	s	4	3	SIC	246	ABS	0	0	1	4	24_1_4	NA	NA	0	1	5.20688199997	None	None	None	None	1
3.0.1	2019_Mar_05_1401	s	s	4	3	SIC	247	4_1	4	1	1	3	23_1_3	3	2	1	0	0.427848100662	-361.0	-118.0	-361.0	-108.0	1
3.0.1	2019_Mar_05_1401	s	s	4	3	SIC	248	ABS	0	0	3	3	24_3_3	NA	NA	0	1	5.76227498055	None	None	None	None	1
3.0.1	2019_Mar_05_1401	s	s	4	3	SIC	249	3_1	3	1	4	2	23_4_2	-1	1	1	0	0.404492139816	-239.0	-254.0	-246.0	-253.0	1
3.0.1	2019_Mar_05_1401	s	s	4	3	SIC	250	3_2	3	2	1	1	23_1_1	2	-1	1	0	0.437412977219	-297.0	-349.0	-304.0	-356.0	1
3.0.1	2019_Mar_05_1401	s	s	4	3	SIC	251	4_4	4	4	2	4	23_2_4	2	0	1	0	0.437435150146	-51.0	-228.0	-40.0	-227.0	1
3.0.1	2019_Mar_05_1401	s	s	4	3	SIC	252	4_1	4	1	2	3	23_2_3	2	2	1	0	0.352109909058	-382.0	-42.0	-384.0	-49.0	1
3.0.1	2019_Mar_05_1401	s	s	4	3	SIC	253	4_3	4	3	1	1	23_1_1	3	2	1	0	0.319787979126	329.0	-286.0	321.0	-291.0	1
3.0.1	2019_Mar_05_1401	s	s	4	3	SIC	254	ABS	0	0	1	3	24_1_3	NA	NA	0	1	4.83325815201	None	None	None	None	1
3.0.1	2019_Mar_05_1401	s	s	4	3	SIC	255	ABS	0	0	1	2	24_1_2	NA	NA	0	1	7.89108109474	None	None	None	None	1
3.0.1	2019_Mar_05_1401	s	s	4	3	SIC	256	3_4	3	4	3	3	23_3_3	0	1	1	0	1.07480311394	-127.0	318.0	-130.0	318.0	1
3.0.1	2019_Mar_05_1401	s	s	4	3	SIC	257	1_1	1	1	3	4	23_3_4	2	3	1	0	0.450539112091	-332.0	357.0	-340.0	357.0	1
3.0.1	2019_Mar_05_1401	s	s	4	3	SIC	258	2_1	2	1	3	3	23_3_3	1	2	1	0	0.46219587326	-374.0	223.0	-370.0	226.0	1
3.0.1	2019_Mar_05_1401	s	s	4	3	SIC	259	ABS	0	0	1	2	24_1_2	NA	NA	0	1	7.7900929451	None	None	None	None	1
3.0.1	2019_Mar_05_1401	s	s	4	3	SIC	260	2_3	2	3	2	2	23_2_2	0	1	1	0	1.25087308884	170.0	-311.0	171.0	-309.0	1
3.0.1	2019_Mar_05_1401	s	s	4	3	SIC	261	1_2	1	2	4	2	23_4_2	3	0	1	0	0.392763853073	-507.0	-240.0	-509.0	-237.0	1
3.0.1	2019_Mar_05_1401	s	s	4	3	SIC	262	1_2	1	2	4	4	23_4_4	3	2	1	0	0.411014080048	465.0	-340.0	462.0	-338.0	1
3.0.1	2019_Mar_05_1401	s	s	4	3	SIC	263	1_2	1	2	4	1	23_4_1	3	-1	1	0	0.378589868546	170.0	121.0	172.0	123.0	1
3.0.1	2019_Mar_05_1401	s	s	4	3	SIC	264	ABS	0	0	2	4	24_2_4	NA	NA	0	1	3.75138807297	None	None	None	None	1
3.0.1	2019_Mar_05_1401	s	s	4	3	SIC	265	ABS	0	0	2	1	24_2_1	NA	NA	0	1	3.35604810715	None	None	None	None	1
3.0.1	2019_Mar_05_1401	s	s	4	3	SIC	266	ABS	0	0	4	4	24_4_4	NA	NA	0	1	2.69257092476	None	None	None	None	1
3.0.1	2019_Mar_05_1401	s	s	4	3	SIC	267	ABS	0	0	2	4	24_2_4	NA	NA	0	1	2.1310210228	None	None	None	None	1
3.0.1	2019_Mar_05_1401	s	s	4	3	SIC	268	ABS	0	0	1	3	24_1_3	NA	NA	0	1	8.47154808044	None	None	None	None	1
3.0.1	2019_Mar_05_1401	s	s	4	3	SIC	269	3_2	3	2	4	3	23_4_3	-1	1	1	0	0.544203996658	-537.0	339.0	-542.0	348.0	1
3.0.1	2019_Mar_05_1401	s	s	4	3	SIC	270	ABS	0	0	3	4	24_3_4	NA	NA	0	1	1.8929309845	None	None	None	None	1
3.0.1	2019_Mar_05_1401	s	s	4	3	SIC	271	2_4	2	4	3	2	23_3_2	1	2	1	0	0.731379985809	314.0	379.0	319.0	369.0	1
3.0.1	2019_Mar_05_1401	s	s	4	3	SIC	272	2_3	2	3	3	4	23_3_4	1	-1	1	0	0.505131959915	-272.0	-386.0	-276.0	-395.0	1
3.0.1	2019_Mar_05_1401	s	s	4	3	SIC	273	1_1	1	1	4	2	23_4_2	3	1	1	0	0.36400103569	120.0	116.0	114.0	121.0	1
3.0.1	2019_Mar_05_1401	s	s	4	3	SIC	274	ABS	0	0	2	4	24_2_4	NA	NA	0	1	1.9987077713	None	None	None	None	1
3.0.1	2019_Mar_05_1401	s	s	4	3	SIC	275	ABS	0	0	3	3	24_3_3	NA	NA	0	1	3.61289691925	None	None	None	None	1
3.0.1	2019_Mar_05_1401	s	s	4	3	SIC	276	ABS	0	0	2	1	24_2_1	NA	NA	0	1	2.82685279846	None	None	None	None	1
3.0.1	2019_Mar_05_1401	s	s	4	3	SIC	277	2_1	2	1	1	4	23_1_4	-1	3	1	0	0.474231958389	-110.0	-337.0	-111.0	-339.0	1
3.0.1	2019_Mar_05_1401	s	s	4	3	SIC	278	ABS	0	0	3	4	24_3_4	NA	NA	0	1	2.40344285965	None	None	None	None	1
3.0.1	2019_Mar_05_1401	s	s	4	3	SIC	279	ABS	0	0	4	3	24_4_3	NA	NA	0	1	5.00963902473	None	None	None	None	1
3.0.1	2019_Mar_05_1401	s	s	4	3	SIC	280	3_3	3	3	2	1	23_2_1	1	2	1	0	0.507822036743	35.0	385.0	39.0	379.0	1
3.0.1	2019_Mar_05_1401	s	s	4	3	SIC	281	ABS	0	0	2	1	24_2_1	NA	NA	0	1	3.35641598701	None	None	None	None	1
3.0.1	2019_Mar_05_1401	s	s	4	3	SIC	282	ABS	0	0	3	3	24_3_3	NA	NA	0	1	6.0328040123	None	None	None	None	1
3.0.1	2019_Mar_05_1401	s	s	4	3	SIC	283	3_1	3	1	2	1	23_2_1	1	0	1	0	0.469696044922	12.0	396.0	11.0	398.0	1
3.0.1	2019_Mar_05_1401	s	s	4	3	SIC	284	ABS	0	0	4	1	24_4_1	NA	NA	0	1	1.63402915001	None	None	None	None	1
3.0.1	2019_Mar_05_1401	s	s	4	3	SIC	285	ABS	0	0	2	3	24_2_3	NA	NA	0	1	6.35692882538	None	None	None	None	1
3.0.1	2019_Mar_05_1401	s	s	4	3	SIC	286	3_3	3	3	1	2	23_1_2	2	1	1	0	0.481550931931	-494.0	-315.0	-490.0	-315.0	1
3.0.1	2019_Mar_05_1401	s	s	4	3	SIC	287	3_1	3	1	4	1	23_4_1	-1	0	1	0	0.416549921036	321.0	296.0	316.0	289.0	1
3.0.1	2019_Mar_05_1401	s	s	4	3	SIC	288	ABS	0	0	3	3	24_3_3	NA	NA	0	1	5.20952296257	None	None	None	None	1
3.0.1	2019_Mar_05_1401	s	s	4	3	SIC	289	4_2	4	2	1	3	23_1_3	3	1	1	0	0.352147102356	-490.0	-43.0	-486.0	-49.0	1
3.0.1	2019_Mar_05_1401	s	s	4	3	SIC	290	ABS	0	0	4	2	24_4_2	NA	NA	0	1	5.18595004082	None	None	None	None	1
3.0.1	2019_Mar_05_1401	s	s	4	3	SIC	291	2_2	2	2	1	1	23_1_1	-1	-1	1	0	0.757272005081	-336.0	-247.0	-333.0	-248.0	1
3.0.1	2019_Mar_05_1401	s	s	4	3	SIC	292	ABS	0	0	3	1	24_3_1	NA	NA	0	1	2.09292912483	None	None	None	None	1
3.0.1	2019_Mar_05_1401	s	s	4	3	SIC	293	2_3	2	3	4	1	23_4_1	2	2	1	0	0.37069106102	-253.0	352.0	-251.0	349.0	1
3.0.1	2019_Mar_05_1401	s	s	4	3	SIC	294	ABS	0	0	2	4	24_2_4	NA	NA	0	1	0.881392002106	None	None	None	None	1
3.0.1	2019_Mar_05_1401	s	s	4	3	SIC	295	3_4	3	4	1	3	23_1_3	2	1	1	0	0.438640832901	-529.0	-278.0	-528.0	-277.0	1
3.0.1	2019_Mar_05_1401	s	s	4	3	SIC	296	4_3	4	3	4	2	23_4_2	0	1	1	0	2.28621697426	363.0	-376.0	362.0	-366.0	1
3.0.1	2019_Mar_05_1401	s	s	4	3	SIC	297	2_4	2	4	4	4	23_4_4	2	0	1	0	0.392523050308	98.0	149.0	102.0	144.0	1
3.0.1	2019_Mar_05_1401	s	s	4	3	SIC	298	ABS	0	0	1	4	24_1_4	NA	NA	0	1	1.46947598457	None	None	None	None	1
3.0.1	2019_Mar_05_1401	s	s	4	3	SIC	299	2_3	2	3	3	1	23_3_1	1	2	1	0	0.415658950806	151.0	182.0	150.0	181.0	1
3.0.1	2019_Mar_05_1401	s	s	4	3	SIC	300	ABS	0	0	3	3	24_3_3	NA	NA	0	1	6.04449987411	None	None	None	None	1
3.0.1	2019_Mar_05_1401	s	s	4	3	SIC	301	ABS	0	0	3	4	24_3_4	NA	NA	0	1	1.21579694748	None	None	None	None	1
3.0.1	2019_Mar_05_1401	s	s	4	3	SIC	302	ABS	0	0	3	1	24_3_1	NA	NA	0	1	1.43711495399	None	None	None	None	1
3.0.1	2019_Mar_05_1401	s	s	4	3	SIC	303	2_2	2	2	2	3	23_2_3	0	1	1	0	2.04577803612	373.0	23.0	365.0	19.0	1
3.0.1	2019_Mar_05_1401	s	s	4	3	SIC	304	ABS	0	0	1	1	24_1_1	NA	NA	0	1	4.27360200882	None	None	None	None	1
3.0.1	2019_Mar_05_1401	s	s	4	3	SIC	305	ABS	0	0	4	2	24_4_2	NA	NA	0	1	6.1415169239	None	None	None	None	1
3.0.1	2019_Mar_05_1401	s	s	4	3	SIC	306	2_4	2	4	1	1	23_1_1	-1	3	1	0	0.599117994308	-213.0	-129.0	-208.0	-130.0	1
3.0.1	2019_Mar_05_1401	s	s	4	3	SIC	307	ABS	0	0	4	3	24_4_3	NA	NA	0	1	5.7034881115	None	None	None	None	1
3.0.1	2019_Mar_05_1401	s	s	4	3	SIC	308	4_4	4	4	2	2	23_2_2	2	2	1	0	0.41516494751	324.0	247.0	329.0	244.0	1
3.0.1	2019_Mar_05_1401	s	s	4	3	SIC	309	3_3	3	3	4	3	23_4_3	-1	0	1	0	0.457946062088	303.0	-205.0	298.0	-199.0	1
3.0.1	2019_Mar_05_1401	s	s	4	3	SIC	310	ABS	0	0	4	4	24_4_4	NA	NA	0	1	2.7814040184	None	None	None	None	1
3.0.1	2019_Mar_05_1401	s	s	4	3	SIC	311	ABS	0	0	1	1	24_1_1	NA	NA	0	1	4.9272711277	None	None	None	None	1
3.0.1	2019_Mar_05_1401	s	s	4	3	SIC	312	2_3	2	3	1	3	23_1_3	-1	0	1	0	2.96604299545	-46.0	311.0	-40.0	313.0	1
3.0.1	2019_Mar_05_1401	s	s	4	3	SIC	313	2_4	2	4	1	3	23_1_3	-1	1	1	0	0.857892990112	-283.0	266.0	-287.0	263.0	1
3.0.1	2019_Mar_05_1401	s	s	4	3	SIC	314	1_1	1	1	2	4	23_2_4	1	3	1	0	0.555014848709	506.0	-29.0	503.0	-35.0	1
3.0.1	2019_Mar_05_1401	s	s	4	3	SIC	315	2_4	2	4	3	4	23_3_4	1	0	1	0	0.853790998459	-446.0	233.0	-446.0	238.0	1
3.0.1	2019_Mar_05_1401	s	s	4	3	SIC	316	ABS	0	0	4	3	24_4_3	NA	NA	0	1	6.72004079819	None	None	None	None	1
3.0.1	2019_Mar_05_1401	s	s	4	3	SIC	317	2_2	2	2	2	4	23_2_4	0	2	1	0	0.696703910828	9.0	-394.0	10.0	-401.0	1
3.0.1	2019_Mar_05_1401	s	s	4	3	SIC	318	2_3	2	3	1	1	23_1_1	-1	2	1	0	1.8927500248	437.0	-14.0	432.0	-10.0	1
3.0.1	2019_Mar_05_1401	s	s	4	3	SIC	319	ABS	0	0	4	4	24_4_4	NA	NA	0	1	2.99174690247	None	None	None	None	1
3.0.1	2019_Mar_05_1401	s	s	4	3	SIC	320	2_4	2	4	1	4	23_1_4	-1	0	1	0	7.48354411125	-273.0	-290.0	-277.0	-290.0	1
3.0.1	2019_Mar_05_1401	s	s	4	3	SIC	321	ABS	0	0	3	1	24_3_1	NA	NA	0	1	1.97325205803	None	None	None	None	1
3.0.1	2019_Mar_05_1401	s	s	4	3	SIC	322	ABS	0	0	1	4	24_1_4	NA	NA	0	1	2.91223812103	None	None	None	None	1
3.0.1	2019_Mar_05_1401	s	s	4	3	SIC	323	1_1	1	1	2	3	23_2_3	1	2	1	0	0.709799051285	277.0	-180.0	276.0	-175.0	1
3.0.1	2019_Mar_05_1401	s	s	4	3	SIC	324	2_4	2	4	4	2	23_4_2	2	2	1	0	0.40198802948	131.0	-233.0	132.0	-232.0	1
3.0.1	2019_Mar_05_1401	s	s	4	3	SIC	325	1_2	1	2	3	4	23_3_4	2	2	1	0	0.410950899124	284.0	-206.0	288.0	-218.0	1
3.0.1	2019_Mar_05_1401	s	s	4	3	SIC	326	ABS	0	0	1	1	24_1_1	NA	NA	0	1	4.73549509048	None	None	None	None	1
3.0.1	2019_Mar_05_1401	s	s	4	3	SIC	327	4_1	4	1	1	4	23_1_4	3	3	1	0	0.437379837036	306.0	-77.0	304.0	-85.0	1
3.0.1	2019_Mar_05_1401	s	s	4	3	SIC	328	1_4	1	4	1	3	23_1_3	0	1	1	0	0.678265094757	-200.0	-143.0	-207.0	-150.0	1
3.0.1	2019_Mar_05_1401	s	s	4	3	SIC	329	4_1	4	1	2	4	23_2_4	2	3	1	0	0.387645959854	-370.0	314.0	-370.0	317.0	1
3.0.1	2019_Mar_05_1401	s	s	4	3	SIC	330	ABS	0	0	1	2	24_1_2	NA	NA	0	1	7.92629504204	None	None	None	None	1
3.0.1	2019_Mar_05_1401	s	s	4	3	SIC	331	3_2	3	2	2	2	23_2_2	1	0	1	0	0.399590015411	-108.0	-86.0	-104.0	-83.0	1
3.0.1	2019_Mar_05_1401	s	s	4	3	SIC	332	ABS	0	0	3	4	24_3_4	NA	NA	0	1	2.03418517113	None	None	None	None	1
3.0.1	2019_Mar_05_1401	s	s	4	3	SIC	333	ABS	0	0	3	1	24_3_1	NA	NA	0	1	3.57793092728	None	None	None	None	1
3.0.1	2019_Mar_05_1401	s	s	4	3	SIC	334	ABS	0	0	2	2	24_2_2	NA	NA	0	1	5.10402011871	None	None	None	None	1
3.0.1	2019_Mar_05_1401	s	s	4	3	SIC	335	4_1	4	1	4	4	23_4_4	0	3	1	0	0.473992109299	50.0	173.0	46.0	172.0	1
3.0.1	2019_Mar_05_1401	s	s	4	3	SIC	336	ABS	0	0	1	1	24_1_1	NA	NA	0	1	3.71873617172	None	None	None	None	1
3.0.1	2019_Mar_05_1401	s	s	4	3	SIC	337	2_1	2	1	1	2	23_1_2	-1	1	1	0	1.92097997665	-213.0	50.0	-214.0	51.0	1
3.0.1	2019_Mar_05_1401	s	s	4	3	SIC	338	ABS	0	0	3	2	24_3_2	NA	NA	0	1	5.2503991127	None	None	None	None	1
3.0.1	2019_Mar_05_1401	s	s	4	3	SIC	339	4_2	4	2	3	1	23_3_1	1	-1	1	0	0.399189949036	290.0	402.0	294.0	403.0	1
3.0.1	2019_Mar_05_1401	s	s	4	3	SIC	340	3_4	3	4	1	4	23_1_4	2	0	1	0	0.399215936661	-269.0	-39.0	-261.0	-35.0	1
3.0.1	2019_Mar_05_1401	s	s	4	3	SIC	341	ABS	0	0	4	1	24_4_1	NA	NA	0	1	2.59094786644	None	None	None	None	1
3.0.1	2019_Mar_05_1401	s	s	4	3	SIC	342	ABS	0	0	4	1	24_4_1	NA	NA	0	1	2.05756998062	None	None	None	None	1
3.0.1	2019_Mar_05_1401	s	s	4	3	SIC	343	1_3	1	3	1	1	23_1_1	0	2	1	0	1.11687803268	-304.0	246.0	-308.0	248.0	1
3.0.1	2019_Mar_05_1401	s	s	4	3	SIC	344	4_3	4	3	2	1	23_2_1	2	2	1	0	0.469746828079	-25.0	122.0	-12.0	129.0	1
3.0.1	2019_Mar_05_1401	s	s	4	3	SIC	345	4_3	4	3	1	4	23_1_4	3	-1	1	0	0.437443971634	427.0	-300.0	422.0	-299.0	1
3.0.1	2019_Mar_05_1401	s	s	4	3	SIC	346	ABS	0	0	4	4	24_4_4	NA	NA	0	1	2.53977704048	None	None	None	None	1
3.0.1	2019_Mar_05_1401	s	s	4	3	SIC	347	ABS	0	0	4	2	24_4_2	NA	NA	0	1	6.86781191826	None	None	None	None	1
3.0.1	2019_Mar_05_1401	s	s	4	3	SIC	348	2_2	2	2	4	1	23_4_1	2	-1	1	0	0.379725933075	-412.0	99.0	-419.0	95.0	1
3.0.1	2019_Mar_05_1401	s	s	4	3	SIC	349	ABS	0	0	2	1	24_2_1	NA	NA	0	1	3.56297898293	None	None	None	None	1
3.0.1	2019_Mar_05_1401	s	s	4	3	SIC	350	3_4	3	4	4	3	23_4_3	-1	1	1	0	0.384556055069	-451.0	382.0	-452.0	387.0	1
3.0.1	2019_Mar_05_1401	s	s	4	3	SIC	351	1_2	1	2	3	3	23_3_3	2	1	1	0	0.356195926666	188.0	-222.0	191.0	-218.0	1
3.0.1	2019_Mar_05_1401	s	s	4	3	SIC	352	1_4	1	4	3	3	23_3_3	2	1	1	0	0.469755887985	-3.0	-311.0	-10.0	-312.0	1
3.0.1	2019_Mar_05_1401	s	s	4	3	SIC	353	ABS	0	0	3	2	24_3_2	NA	NA	0	1	6.02398610115	None	None	None	None	1
3.0.1	2019_Mar_05_1401	s	s	4	3	SIC	354	ABS	0	0	2	1	24_2_1	NA	NA	0	1	4.79781413078	None	None	None	None	1
3.0.1	2019_Mar_05_1401	s	s	4	3	SIC	355	ABS	0	0	1	2	24_1_2	NA	NA	0	1	7.331594944	None	None	None	None	1
3.0.1	2019_Mar_05_1401	s	s	4	3	SIC	356	ABS	0	0	1	4	24_1_4	NA	NA	0	1	2.08113098145	None	None	None	None	1
3.0.1	2019_Mar_05_1401	s	s	4	3	SIC	357	ABS	0	0	1	4	24_1_4	NA	NA	0	1	2.84567189217	None	None	None	None	1
3.0.1	2019_Mar_05_1401	s	s	4	3	SIC	358	2_2	2	2	4	3	23_4_3	2	1	1	0	1.02644300461	537.0	-296.0	540.0	-286.0	1
3.0.1	2019_Mar_05_1401	s	s	4	3	SIC	359	3_3	3	3	4	2	23_4_2	-1	1	1	0	0.502768039703	504.0	-323.0	506.0	-331.0	1
3.0.1	2019_Mar_05_1401	s	s	4	3	SIC	360	ABS	0	0	4	3	24_4_3	NA	NA	0	1	4.6718249321	None	None	None	None	1
3.0.1	2019_Mar_05_1401	s	s	4	3	SIC	361	2_2	2	2	4	4	23_4_4	2	2	1	0	0.364020824432	438.0	-380.0	440.0	-384.0	1
3.0.1	2019_Mar_05_1401	s	s	4	3	SIC	362	2_3	2	3	2	1	23_2_1	0	2	1	0	0.83944106102	-356.0	245.0	-361.0	239.0	1
3.0.1	2019_Mar_05_1401	s	s	4	3	SIC	363	3_3	3	3	1	4	23_1_4	2	-1	1	0	0.378520965576	-180.0	-203.0	-183.0	-205.0	1
3.0.1	2019_Mar_05_1401	s	s	4	3	SIC	364	ABS	0	0	4	1	24_4_1	NA	NA	0	1	1.48587203026	None	None	None	None	1
3.0.1	2019_Mar_05_1401	s	s	4	3	SIC	365	ABS	0	0	4	1	24_4_1	NA	NA	0	1	1.51657891273	None	None	None	None	1
3.0.1	2019_Mar_05_1401	s	s	4	3	SIC	366	3_1	3	1	1	3	23_1_3	2	2	1	0	0.42266201973	440.0	-207.0	436.0	-211.0	1
3.0.1	2019_Mar_05_1401	s	s	4	3	SIC	367	1_4	1	4	4	3	23_4_3	3	1	1	0	0.352155208588	57.0	-10.0	47.0	-6.0	1
3.0.1	2019_Mar_05_1401	s	s	4	3	SIC	368	ABS	0	0	4	3	24_4_3	NA	NA	0	1	4.50971984863	None	None	None	None	1
3.0.1	2019_Mar_05_1401	s	s	4	3	SIC	369	2_4	2	4	4	1	23_4_1	2	3	1	0	0.429017066956	528.0	-171.0	536.0	-176.0	1
3.0.1	2019_Mar_05_1401	s	s	4	3	SIC	370	1_3	1	3	1	4	23_1_4	0	-1	1	0	0.437381029129	-473.0	-231.0	-469.0	-237.0	1
3.0.1	2019_Mar_05_1401	s	s	4	3	SIC	371	ABS	0	0	4	1	24_4_1	NA	NA	0	1	1.52200198174	None	None	None	None	1
3.0.1	2019_Mar_05_1401	s	s	4	3	SIC	372	ABS	0	0	1	3	24_1_3	NA	NA	0	1	4.74489498138	None	None	None	None	1
3.0.1	2019_Mar_05_1401	s	s	4	3	SIC	373	3_3	3	3	2	3	23_2_3	1	0	1	0	0.396495819092	57.0	-50.0	49.0	-55.0	1
3.0.1	2019_Mar_05_1401	s	s	4	3	SIC	374	1_2	1	2	4	3	23_4_3	3	1	1	0	0.356307983398	35.0	282.0	28.0	288.0	1
3.0.1	2019_Mar_05_1401	s	s	4	3	SIC	375	ABS	0	0	3	1	24_3_1	NA	NA	0	1	1.18730211258	None	None	None	None	1
3.0.1	2019_Mar_05_1401	s	s	4	3	SIC	376	1_1	1	1	3	1	23_3_1	2	0	1	0	0.532565116882	439.0	386.0	445.0	382.0	1
3.0.1	2019_Mar_05_1401	s	s	4	3	SIC	377	3_2	3	2	1	2	23_1_2	2	0	1	0	0.428221940994	-52.0	-359.0	-53.0	-366.0	1
3.0.1	2019_Mar_05_1401	s	s	4	3	SIC	378	ABS	0	0	1	3	24_1_3	NA	NA	0	1	4.69724798203	None	None	None	None	1
3.0.1	2019_Mar_05_1401	s	s	4	3	SIC	379	2_4	2	4	4	3	23_4_3	2	1	1	0	0.356608867645	-445.0	188.0	-435.0	186.0	1
3.0.1	2019_Mar_05_1401	s	s	4	3	SIC	380	ABS	0	0	3	4	24_3_4	NA	NA	0	1	1.71646094322	None	None	None	None	1
3.0.1	2019_Mar_05_1401	s	s	4	3	SIC	381	ABS	0	0	4	1	24_4_1	NA	NA	0	1	1.51660990715	None	None	None	None	1
3.0.1	2019_Mar_05_1401	s	s	4	3	SIC	382	ABS	0	0	1	2	24_1_2	NA	NA	0	1	6.49194407463	None	None	None	None	1
3.0.1	2019_Mar_05_1401	s	s	4	3	SIC	383	ABS	0	0	4	3	24_4_3	NA	NA	0	1	4.02935290337	None	None	None	None	1
3.0.1	2019_Mar_05_1401	s	s	4	3	SIC	384	4_2	4	2	2	1	23_2_1	2	-1	1	0	0.437393903732	-188.0	-174.0	-187.0	-174.0	1
3.0.1	2019_Mar_05_1401	s	s	4	3	SIC	385	1_2	1	2	1	1	23_1_1	0	-1	1	0	1.9084918499	-199.0	154.0	-205.0	159.0	1
3.0.1	2019_Mar_05_1401	s	s	4	3	SIC	386	ABS	0	0	3	3	24_3_3	NA	NA	0	1	6.50853514671	None	None	None	None	1
3.0.1	2019_Mar_05_1401	s	s	4	3	SIC	387	ABS	0	0	2	2	24_2_2	NA	NA	0	1	6.76614403725	None	None	None	None	1
3.0.1	2019_Mar_05_1401	s	s	4	3	SIC	388	4_4	4	4	4	2	23_4_2	0	2	1	0	1.0578250885	533.0	-242.0	539.0	-239.0	1
3.0.1	2019_Mar_05_1401	s	s	4	3	SIC	389	2_1	2	1	3	2	23_3_2	1	1	1	0	0.469787120819	164.0	405.0	169.0	403.0	1
3.0.1	2019_Mar_05_1401	s	s	4	3	SIC	390	ABS	0	0	2	3	24_2_3	NA	NA	0	1	8.16151380539	None	None	None	None	1
3.0.1	2019_Mar_05_1401	s	s	4	3	SIC	391	1_4	1	4	3	4	23_3_4	2	0	1	0	0.446145057678	319.0	95.0	312.0	98.0	1
3.0.1	2019_Mar_05_1401	s	s	4	3	SIC	392	ABS	0	0	1	2	24_1_2	NA	NA	0	1	8.07349801064	None	None	None	None	1
3.0.1	2019_Mar_05_1401	s	s	4	3	SIC	393	ABS	0	0	3	4	24_3_4	NA	NA	0	1	1.74568891525	None	None	None	None	1
3.0.1	2019_Mar_05_1401	s	s	4	3	SIC	394	ABS	0	0	4	2	24_4_2	NA	NA	0	1	6.20034909248	None	None	None	None	1
3.0.1	2019_Mar_05_1401	s	s	4	3	SIC	395	ABS	0	0	4	3	24_4_3	NA	NA	0	1	4.73014092445	None	None	None	None	1
3.0.1	2019_Mar_05_1401	s	s	4	3	SIC	396	ABS	0	0	2	2	24_2_2	NA	NA	0	1	7.47271990776	None	None	None	None	1
3.0.1	2019_Mar_05_1401	s	s	4	3	SIC	397	4_2	4	2	4	3	23_4_3	0	1	1	0	2.33978319168	-539.0	-70.0	-546.0	-63.0	1
3.0.1	2019_Mar_05_1401	s	s	4	3	SIC	398	ABS	0	0	4	3	24_4_3	NA	NA	0	1	5.88456916809	None	None	None	None	1
3.0.1	2019_Mar_05_1401	s	s	4	3	SIC	399	2_1	2	1	4	3	23_4_3	2	2	1	0	0.474954128265	-65.0	253.0	-66.0	247.0	1
3.0.1	2019_Mar_05_1401	s	s	4	3	SIC	400	ABS	0	0	3	4	24_3_4	NA	NA	0	1	1.03433489799	None	None	None	None	1
3.0.1	2019_Mar_05_1401	s	s	4	3	SIC	401	3_2	3	2	2	4	23_2_4	1	2	1	0	0.415678977966	-285.0	33.0	-285.0	26.0	1
3.0.1	2019_Mar_05_1401	s	s	4	3	SIC	402	ABS	0	0	2	4	24_2_4	NA	NA	0	1	2.04585695267	None	None	None	None	1
3.0.1	2019_Mar_05_1401	s	s	4	3	SIC	403	3_3	3	3	2	2	23_2_2	1	1	1	0	0.422770023346	-354.0	-189.0	-362.0	-191.0	1
3.0.1	2019_Mar_05_1401	s	s	4	3	SIC	404	ABS	0	0	3	2	24_3_2	NA	NA	0	1	4.86842298508	None	None	None	None	1
3.0.1	2019_Mar_05_1401	s	s	4	3	SIC	405	1_3	1	3	2	2	23_2_2	1	1	1	0	0.763811826706	496.0	-233.0	495.0	-230.0	1
3.0.1	2019_Mar_05_1401	s	s	4	3	SIC	406	ABS	0	0	2	4	24_2_4	NA	NA	0	1	1.92167615891	None	None	None	None	1
3.0.1	2019_Mar_05_1401	s	s	4	3	SIC	407	ABS	0	0	2	1	24_2_1	NA	NA	0	1	3.8572268486	None	None	None	None	1
3.0.1	2019_Mar_05_1401	s	s	4	3	SIC	408	1_1	1	1	1	4	23_1_4	0	3	1	0	0.775570869446	371.0	-357.0	374.0	-351.0	1
3.0.1	2019_Mar_05_1401	s	s	4	3	SIC	409	2_1	2	1	3	4	23_3_4	1	3	1	0	0.410997152328	534.0	-171.0	532.0	-170.0	1
3.0.1	2019_Mar_05_1401	s	s	4	3	SIC	410	3_4	3	4	3	2	23_3_2	0	2	1	0	0.966640949249	133.0	-299.0	137.0	-299.0	1
3.0.1	2019_Mar_05_1401	s	s	4	3	SIC	411	ABS	0	0	3	2	24_3_2	NA	NA	0	1	9.07002210617	None	None	None	None	1
3.0.1	2019_Mar_05_1401	s	s	4	3	SIC	412	3_2	3	2	1	4	23_1_4	2	2	1	0	0.516780853271	455.0	24.0	460.0	26.0	1
3.0.1	2019_Mar_05_1401	s	s	4	3	SIC	413	3_2	3	2	2	1	23_2_1	1	-1	1	0	0.426585912704	469.0	224.0	463.0	224.0	1
3.0.1	2019_Mar_05_1401	s	s	4	3	SIC	414	2_3	2	3	4	2	23_4_2	2	1	1	0	0.369204998016	-503.0	-329.0	-497.0	-336.0	1
3.0.1	2019_Mar_05_1401	s	s	4	3	SIC	415	3_3	3	3	4	1	23_4_1	-1	2	1	0	0.310302972794	130.0	-270.0	128.0	-265.0	1
3.0.1	2019_Mar_05_1401	s	s	4	3	SIC	416	2_3	2	3	4	4	23_4_4	2	-1	1	0	0.33348107338	166.0	-246.0	166.0	-245.0	1
3.0.1	2019_Mar_05_1401	s	s	4	3	SIC	417	ABS	0	0	2	2	24_2_2	NA	NA	0	1	6.99734711647	None	None	None	None	1
3.0.1	2019_Mar_05_1401	s	s	4	3	SIC	418	1_1	1	1	4	1	23_4_1	3	0	1	0	0.352207183838	128.0	165.0	125.0	160.0	1
3.0.1	2019_Mar_05_1401	s	s	4	3	SIC	419	ABS	0	0	1	4	24_1_4	NA	NA	0	1	4.45679998398	None	None	None	None	1
3.0.1	2019_Mar_05_1401	s	s	4	3	SIC	420	1_1	1	1	2	1	23_2_1	1	0	1	0	1.4018239975	-244.0	389.0	-249.0	389.0	1
3.0.1	2019_Mar_05_1401	s	s	4	3	SIC	421	ABS	0	0	1	2	24_1_2	NA	NA	0	1	8.14572191238	None	None	None	None	1
3.0.1	2019_Mar_05_1401	s	s	4	3	SIC	422	3_2	3	2	4	4	23_4_4	-1	2	1	0	0.704733133316	241.0	173.0	242.0	171.0	1
3.0.1	2019_Mar_05_1401	s	s	4	3	SIC	423	4_3	4	3	3	4	23_3_4	1	-1	1	0	0.658029079437	53.0	-365.0	37.0	-355.0	1
3.0.1	2019_Mar_05_1401	s	s	4	3	SIC	424	ABS	0	0	1	3	24_1_3	NA	NA	0	1	5.55446195602	None	None	None	None	1
3.0.1	2019_Mar_05_1401	s	s	4	3	SIC	425	4_1	4	1	2	1	23_2_1	2	0	1	0	0.411056041718	55.0	-277.0	56.0	-276.0	1
3.0.1	2019_Mar_05_1401	s	s	4	3	SIC	426	ABS	0	0	1	3	24_1_3	NA	NA	0	1	4.55604195595	None	None	None	None	1
3.0.1	2019_Mar_05_1401	s	s	4	3	SIC	427	3_3	3	3	1	1	23_1_1	2	2	1	0	0.40428519249	-89.0	-210.0	-86.0	-200.0	1
3.0.1	2019_Mar_05_1401	s	s	4	3	SIC	428	ABS	0	0	4	2	24_4_2	NA	NA	0	1	5.26833891869	None	None	None	None	1
3.0.1	2019_Mar_05_1401	s	s	4	3	SIC	429	1_2	1	2	1	3	23_1_3	0	1	1	0	1.66055083275	-434.0	-380.0	-434.0	-385.0	1
3.0.1	2019_Mar_05_1401	s	s	4	3	SIC	430	4_2	4	2	4	4	23_4_4	0	2	1	0	0.9666659832	390.0	-374.0	393.0	-382.0	1
3.0.1	2019_Mar_05_1401	s	s	4	3	SIC	431	1_1	1	1	4	3	23_4_3	3	2	1	0	0.371775150299	-280.0	87.0	-277.0	82.0	1
3.0.1	2019_Mar_05_1401	s	s	4	3	SIC	432	1_4	1	4	3	1	23_3_1	2	3	1	0	0.399202108383	-215.0	-296.0	-203.0	-295.0	1
3.0.1	2019_Mar_05_1401	s	s	4	3	SIC	433	ABS	0	0	1	3	24_1_3	NA	NA	0	1	5.57409119606	None	None	None	None	1
3.0.1	2019_Mar_05_1401	s	s	4	3	SIC	434	ABS	0	0	2	2	24_2_2	NA	NA	0	1	4.35095381737	None	None	None	None	1
3.0.1	2019_Mar_05_1401	s	s	4	3	SIC	435	2_3	2	3	1	2	23_1_2	-1	1	1	0	1.06962394714	141.0	-155.0	141.0	-152.0	1
3.0.1	2019_Mar_05_1401	s	s	4	3	SIC	436	ABS	0	0	1	1	24_1_1	NA	NA	0	1	3.48999500275	None	None	None	None	1
3.0.1	2019_Mar_05_1401	s	s	4	3	SIC	437	2_4	2	4	3	1	23_3_1	1	3	1	0	0.677738904953	241.0	-369.0	240.0	-374.0	1
3.0.1	2019_Mar_05_1401	s	s	4	3	SIC	438	ABS	0	0	1	1	24_1_1	NA	NA	0	1	2.61971712112	None	None	None	None	1
3.0.1	2019_Mar_05_1401	s	s	4	3	SIC	439	4_3	4	3	4	4	23_4_4	0	-1	1	0	1.02032995224	-306.0	176.0	-310.0	173.0	1
3.0.1	2019_Mar_05_1401	s	s	4	3	SIC	440	ABS	0	0	2	1	24_2_1	NA	NA	0	1	2.05751609802	None	None	None	None	1
3.0.1	2019_Mar_05_1401	s	s	4	3	SIC	441	ABS	0	0	1	4	24_1_4	NA	NA	0	1	2.68084406853	None	None	None	None	1
3.0.1	2019_Mar_05_1401	s	s	4	3	SIC	442	3_3	3	3	4	4	23_4_4	-1	-1	1	0	0.402444839478	1.0	242.0	-1.0	240.0	1
3.0.1	2019_Mar_05_1401	s	s	4	3	SIC	443	3_3	3	3	3	2	23_3_2	0	1	1	0	2.1429901123	-300.0	-293.0	-293.0	-291.0	1
3.0.1	2019_Mar_05_1401	s	s	4	3	SIC	444	ABS	0	0	1	4	24_1_4	NA	NA	0	1	2.91345000267	None	None	None	None	1
3.0.1	2019_Mar_05_1401	s	s	4	3	SIC	445	ABS	0	0	3	2	24_3_2	NA	NA	0	1	3.70418906212	None	None	None	None	1
3.0.1	2019_Mar_05_1401	s	s	4	3	SIC	446	ABS	0	0	2	3	24_2_3	NA	NA	0	1	6.31510996819	None	None	None	None	1
3.0.1	2019_Mar_05_1401	s	s	4	3	SIC	447	ABS	0	0	4	2	24_4_2	NA	NA	0	1	6.57386207581	None	None	None	None	1
3.0.1	2019_Mar_05_1401	s	s	4	3	SIC	448	ABS	0	0	3	2	24_3_2	NA	NA	0	1	5.1419570446	None	None	None	None	1
3.0.1	2019_Mar_05_1401	s	s	4	3	SIC	449	2_3	2	3	4	3	23_4_3	2	0	1	0	0.460788965225	-436.0	113.0	-436.0	106.0	1
3.0.1	2019_Mar_05_1401	s	s	4	3	SIC	450	ABS	0	0	2	2	24_2_2	NA	NA	0	1	7.97795796394	None	None	None	None	1
3.0.1	2019_Mar_05_1401	s	s	4	3	SIC	451	1_4	1	4	2	1	23_2_1	1	3	1	0	0.790256977081	271.0	-216.0	270.0	-221.0	1
3.0.1	2019_Mar_05_1401	s	s	4	3	SIC	452	3_4	3	4	2	3	23_2_3	1	1	1	0	0.500940799713	350.0	203.0	350.0	201.0	1
3.0.1	2019_Mar_05_1401	s	s	4	3	SIC	453	ABS	0	0	4	2	24_4_2	NA	NA	0	1	6.70985794067	None	None	None	None	1
3.0.1	2019_Mar_05_1401	s	s	4	3	SIC	454	ABS	0	0	4	4	24_4_4	NA	NA	0	1	1.29306292534	None	None	None	None	1
3.0.1	2019_Mar_05_1401	s	s	4	3	SIC	455	ABS	0	0	2	1	24_2_1	NA	NA	0	1	3.16826605797	None	None	None	None	1
3.0.1	2019_Mar_05_1401	s	s	4	3	SIC	456	3_4	3	4	1	1	23_1_1	2	3	1	0	0.493474960327	437.0	-53.0	435.0	-57.0	1
3.0.1	2019_Mar_05_1401	s	s	4	3	SIC	457	ABS	0	0	1	3	24_1_3	NA	NA	0	1	3.63629508018	None	None	None	None	1
3.0.1	2019_Mar_05_1401	s	s	4	3	SIC	458	ABS	0	0	2	1	24_2_1	NA	NA	0	1	2.17515707016	None	None	None	None	1
3.0.1	2019_Mar_05_1401	s	s	4	3	SIC	459	4_2	4	2	3	2	23_3_2	1	0	1	0	0.41099190712	-210.0	-115.0	-208.0	-116.0	1
3.0.1	2019_Mar_05_1401	s	s	4	3	SIC	460	ABS	0	0	2	1	24_2_1	NA	NA	0	1	2.81557297707	None	None	None	None	1
3.0.1	2019_Mar_05_1401	s	s	4	3	SIC	461	ABS	0	0	3	3	24_3_3	NA	NA	0	1	4.64541292191	None	None	None	None	1
3.0.1	2019_Mar_05_1401	s	s	4	3	SIC	462	3_4	3	4	2	2	23_2_2	1	2	1	0	0.552101135254	-4.0	-314.0	-8.0	-316.0	1
3.0.1	2019_Mar_05_1401	s	s	4	3	SIC	463	2_4	2	4	2	1	23_2_1	0	3	1	0	0.496120929718	89.0	285.0	91.0	287.0	1
3.0.1	2019_Mar_05_1401	s	s	4	3	SIC	464	ABS	0	0	2	3	24_2_3	NA	NA	0	1	4.62643194199	None	None	None	None	1
3.0.1	2019_Mar_05_1401	s	s	4	3	SIC	465	ABS	0	0	2	4	24_2_4	NA	NA	0	1	1.26731109619	None	None	None	None	1
3.0.1	2019_Mar_05_1401	s	s	4	3	SIC	466	ABS	0	0	4	1	24_4_1	NA	NA	0	1	1.1317448616	None	None	None	None	1
3.0.1	2019_Mar_05_1401	s	s	4	3	SIC	467	3_1	3	1	3	3	23_3_3	0	2	1	0	1.55181479454	147.0	-326.0	137.0	-327.0	1
3.0.1	2019_Mar_05_1401	s	s	4	3	SIC	468	4_1	4	1	3	4	23_3_4	1	3	1	0	0.375698804855	181.0	267.0	180.0	262.0	1
3.0.1	2019_Mar_05_1401	s	s	4	3	SIC	469	ABS	0	0	2	3	24_2_3	NA	NA	0	1	5.08315300941	None	None	None	None	1
3.0.1	2019_Mar_05_1401	s	s	4	3	SIC	470	4_4	4	4	3	2	23_3_2	1	2	1	0	0.378567934036	-74.0	-157.0	-69.0	-162.0	1
3.0.1	2019_Mar_05_1401	s	s	4	3	SIC	471	4_3	4	3	1	3	23_1_3	3	0	1	0	0.363972902298	237.0	20.0	236.0	18.0	1
3.0.1	2019_Mar_05_1401	s	s	4	3	SIC	472	3_4	3	4	2	1	23_2_1	1	3	1	0	0.414644956589	283.0	-315.0	278.0	-315.0	1
3.0.1	2019_Mar_05_1401	s	s	4	3	SIC	473	3_1	3	1	4	3	23_4_3	-1	2	1	0	0.469913005829	-437.0	-205.0	-442.0	-207.0	1
3.0.1	2019_Mar_05_1401	s	s	4	3	SIC	474	1_4	1	4	4	2	23_4_2	3	2	1	0	0.340389966965	-224.0	-171.0	-224.0	-171.0	1
3.0.1	2019_Mar_05_1401	s	s	4	3	SIC	475	1_3	1	3	4	3	23_4_3	3	0	1	0	0.378582954407	417.0	80.0	424.0	75.0	1
3.0.1	2019_Mar_05_1401	s	s	4	3	SIC	476	4_2	4	2	3	4	23_3_4	1	2	1	0	0.31040596962	442.0	354.0	435.0	353.0	1
3.0.1	2019_Mar_05_1401	s	s	4	3	SIC	477	3_1	3	1	1	1	23_1_1	2	0	1	0	0.369031906128	-458.0	-136.0	-455.0	-143.0	1
3.0.1	2019_Mar_05_1401	s	s	4	3	SIC	478	ABS	0	0	3	2	24_3_2	NA	NA	0	1	6.23689889908	None	None	None	None	1
3.0.1	2019_Mar_05_1401	s	s	4	3	SIC	479	4_2	4	2	1	1	23_1_1	3	-1	1	0	0.369661092758	5.0	101.0	6.0	106.0	1
3.0.1	2019_Mar_05_1401	s	s	4	3	SIC	480	3_4	3	4	4	1	23_4_1	-1	3	1	0	0.399240016937	-434.0	-32.0	-433.0	-42.0	1
