Version	Date	Stimuli	Method	Subject	Session	Condition	Trial	Target	TColor	TShape	DColor	DShape	Distractors	Channel1	Channel2	LMouseButton	RMouseButton	RT	TargetX	TargetY	ResponseX	ResponseY	Correct
3.0.1	2019_Mar_04_1328	s	s	5	1	Capacity	1	2_1	2	1	4	1	23_4_1	2	0	1	0	0.579128026962	-339.0	-198.0	-338.0	-210.0	1
3.0.1	2019_Mar_04_1328	s	s	5	1	Capacity	2	2_1	2	1	3	1	23_3_1	1	0	1	0	0.849097013474	359.0	303.0	363.0	297.0	1
3.0.1	2019_Mar_04_1328	s	s	5	1	Capacity	3	ABS	0	0	4	1	24_4_1	NA	NA	0	1	1.41068291664	None	None	None	None	1
3.0.1	2019_Mar_04_1328	s	s	5	1	Capacity	4	3_1	3	1	1	1	23_1_1	2	0	1	0	0.599201202393	199.0	244.0	200.0	242.0	1
3.0.1	2019_Mar_04_1328	s	s	5	1	Capacity	5	ABS	0	0	1	1	24_1_1	NA	NA	0	1	0.823077917099	None	None	None	None	1
3.0.1	2019_Mar_04_1328	s	s	5	1	Capacity	6	3_1	3	1	4	1	23_4_1	-1	0	1	0	0.486616134644	-272.0	-108.0	-277.0	-110.0	1
3.0.1	2019_Mar_04_1328	s	s	5	1	Capacity	7	ABS	0	0	3	1	24_3_1	NA	NA	0	1	0.796696901321	None	None	None	None	1
3.0.1	2019_Mar_04_1328	s	s	5	1	Capacity	8	4_1	4	1	2	1	23_2_1	2	0	1	0	0.443619012833	213.0	158.0	211.0	157.0	1
3.0.1	2019_Mar_04_1328	s	s	5	1	Capacity	9	ABS	0	0	2	1	24_2_1	NA	NA	0	1	1.1563179493	None	None	None	None	1
3.0.1	2019_Mar_04_1328	s	s	5	1	Capacity	10	ABS	0	0	2	1	24_2_1	NA	NA	1	0	1.31655311584	None	None	-140.0	9.0	0
3.0.1	2019_Mar_04_1328	s	s	5	1	Capacity	11	4_1	4	1	1	1	23_1_1	3	0	1	0	0.505140066147	-276.0	-308.0	-273.0	-303.0	1
3.0.1	2019_Mar_04_1328	s	s	5	1	Capacity	12	4_1	4	1	3	1	23_3_1	1	0	1	0	0.569125890732	-178.0	-207.0	-182.0	-213.0	1
3.0.1	2019_Mar_04_1328	s	s	5	1	Capacity	13	ABS	0	0	1	1	24_1_1	NA	NA	0	1	0.82262301445	None	None	None	None	1
3.0.1	2019_Mar_04_1328	s	s	5	1	Capacity	14	1_1	1	1	4	1	23_4_1	3	0	1	0	0.599159955978	188.0	-288.0	192.0	-293.0	1
3.0.1	2019_Mar_04_1328	s	s	5	1	Capacity	15	2_1	2	1	1	1	23_1_1	-1	0	0	1	0.613816022873	-330.0	-14.0	None	None	0
3.0.1	2019_Mar_04_1328	s	s	5	1	Capacity	16	3_1	3	1	2	1	23_2_1	1	0	1	0	0.51686000824	207.0	284.0	203.0	288.0	1
3.0.1	2019_Mar_04_1328	s	s	5	1	Capacity	17	1_1	1	1	3	1	23_3_1	2	0	1	0	0.634882211685	251.0	393.0	251.0	390.0	1
3.0.1	2019_Mar_04_1328	s	s	5	1	Capacity	18	1_1	1	1	2	1	23_2_1	1	0	0	1	0.829056978226	205.0	-34.0	None	None	0
3.0.1	2019_Mar_04_1328	s	s	5	1	Capacity	19	ABS	0	0	3	1	24_3_1	NA	NA	0	1	0.622718095779	None	None	None	None	1
3.0.1	2019_Mar_04_1328	s	s	5	1	Capacity	20	ABS	0	0	1	1	24_1_1	NA	NA	0	1	0.969447135925	None	None	None	None	1
3.0.1	2019_Mar_04_1328	s	s	5	1	Capacity	21	ABS	0	0	4	1	24_4_1	NA	NA	1	0	1.30498695374	None	None	265.0	-147.0	0
3.0.1	2019_Mar_04_1328	s	s	5	1	Capacity	22	ABS	0	0	2	1	24_2_1	NA	NA	0	1	1.10483813286	None	None	None	None	1
3.0.1	2019_Mar_04_1328	s	s	5	1	Capacity	23	ABS	0	0	4	1	24_4_1	NA	NA	0	1	1.21601986885	None	None	None	None	1
3.0.1	2019_Mar_04_1328	s	s	5	1	Capacity	24	ABS	0	0	3	1	24_3_1	NA	NA	0	1	0.681522846222	None	None	None	None	1
3.0.1	2019_Mar_04_1328	s	s	5	1	Capacity	25	3_1	3	1	4	1	23_4_1	-1	0	1	0	0.469820022583	156.0	135.0	154.0	135.0	1
3.0.1	2019_Mar_04_1328	s	s	5	1	Capacity	26	2_1	2	1	4	1	23_4_1	2	0	1	0	0.592091083527	10.0	-35.0	14.0	-33.0	1
3.0.1	2019_Mar_04_1328	s	s	5	1	Capacity	27	ABS	0	0	1	1	24_1_1	NA	NA	0	1	0.85813498497	None	None	None	None	1
3.0.1	2019_Mar_04_1328	s	s	5	1	Capacity	28	2_1	2	1	3	1	23_3_1	1	0	1	0	0.57559299469	27.0	22.0	20.0	20.0	1
3.0.1	2019_Mar_04_1328	s	s	5	1	Capacity	29	ABS	0	0	2	1	24_2_1	NA	NA	0	1	0.744239807129	None	None	None	None	1
3.0.1	2019_Mar_04_1328	s	s	5	1	Capacity	30	3_1	3	1	1	1	23_1_1	2	0	1	0	0.488220930099	6.0	-271.0	6.0	-278.0	1
3.0.1	2019_Mar_04_1328	s	s	5	1	Capacity	31	1_1	1	1	4	1	23_4_1	3	0	1	0	0.528609991074	-408.0	323.0	-396.0	327.0	1
3.0.1	2019_Mar_04_1328	s	s	5	1	Capacity	32	ABS	0	0	2	1	24_2_1	NA	NA	0	1	0.752056837082	None	None	None	None	1
3.0.1	2019_Mar_04_1328	s	s	5	1	Capacity	33	2_1	2	1	1	1	23_1_1	-1	0	0	1	0.775615930557	229.0	-46.0	None	None	0
3.0.1	2019_Mar_04_1328	s	s	5	1	Capacity	34	ABS	0	0	3	1	24_3_1	NA	NA	0	1	0.681396007538	None	None	None	None	1
3.0.1	2019_Mar_04_1328	s	s	5	1	Capacity	35	1_1	1	1	3	1	23_3_1	2	0	1	0	0.621047973633	-523.0	-242.0	-527.0	-237.0	1
3.0.1	2019_Mar_04_1328	s	s	5	1	Capacity	36	ABS	0	0	4	1	24_4_1	NA	NA	0	1	0.437329053879	None	None	None	None	1
3.0.1	2019_Mar_04_1328	s	s	5	1	Capacity	37	4_1	4	1	2	1	23_2_1	2	0	1	0	0.446568965912	-177.0	24.0	-177.0	21.0	1
3.0.1	2019_Mar_04_1328	s	s	5	1	Capacity	38	ABS	0	0	2	1	24_2_1	NA	NA	0	1	0.869754076004	None	None	None	None	1
3.0.1	2019_Mar_04_1328	s	s	5	1	Capacity	39	ABS	0	0	3	1	24_3_1	NA	NA	0	1	0.723213911057	None	None	None	None	1
3.0.1	2019_Mar_04_1328	s	s	5	1	Capacity	40	4_1	4	1	1	1	23_1_1	3	0	1	0	0.392874956131	-126.0	134.0	-126.0	134.0	1
3.0.1	2019_Mar_04_1328	s	s	5	1	Capacity	41	3_1	3	1	2	1	23_2_1	1	0	1	0	0.736502885818	495.0	259.0	489.0	256.0	1
3.0.1	2019_Mar_04_1328	s	s	5	1	Capacity	42	ABS	0	0	1	1	24_1_1	NA	NA	0	1	0.768332004547	None	None	None	None	1
3.0.1	2019_Mar_04_1328	s	s	5	1	Capacity	43	ABS	0	0	3	1	24_3_1	NA	NA	0	1	0.519556999207	None	None	None	None	1
3.0.1	2019_Mar_04_1328	s	s	5	1	Capacity	44	1_1	1	1	2	1	23_2_1	1	0	0	1	0.84915804863	-444.0	-401.0	None	None	0
3.0.1	2019_Mar_04_1328	s	s	5	1	Capacity	45	ABS	0	0	4	1	24_4_1	NA	NA	0	1	0.646245002747	None	None	None	None	1
3.0.1	2019_Mar_04_1328	s	s	5	1	Capacity	46	ABS	0	0	1	1	24_1_1	NA	NA	0	1	0.684817075729	None	None	None	None	1
3.0.1	2019_Mar_04_1328	s	s	5	1	Capacity	47	ABS	0	0	4	1	24_4_1	NA	NA	0	1	0.545556783676	None	None	None	None	1
3.0.1	2019_Mar_04_1328	s	s	5	1	Capacity	48	4_1	4	1	3	1	23_3_1	1	0	1	0	0.473859071732	-377.0	341.0	-371.0	346.0	1
3.0.1	2019_Mar_04_1328	s	s	5	1	Capacity	49	ABS	0	0	1	1	24_1_1	NA	NA	0	1	0.70499587059	None	None	None	None	1
3.0.1	2019_Mar_04_1328	s	s	5	1	Capacity	50	3_1	3	1	1	1	23_1_1	2	0	1	0	0.45799612999	-160.0	117.0	-168.0	121.0	1
3.0.1	2019_Mar_04_1328	s	s	5	1	Capacity	51	2_1	2	1	1	1	23_1_1	-1	0	0	1	0.61136507988	-489.0	39.0	None	None	0
3.0.1	2019_Mar_04_1328	s	s	5	1	Capacity	52	4_1	4	1	3	1	23_3_1	1	0	1	0	0.463021993637	-487.0	-233.0	-490.0	-236.0	1
3.0.1	2019_Mar_04_1328	s	s	5	1	Capacity	53	ABS	0	0	3	1	24_3_1	NA	NA	0	1	0.55499792099	None	None	None	None	1
3.0.1	2019_Mar_04_1328	s	s	5	1	Capacity	54	ABS	0	0	1	1	24_1_1	NA	NA	0	1	0.605628967285	None	None	None	None	1
3.0.1	2019_Mar_04_1328	s	s	5	1	Capacity	55	4_1	4	1	1	1	23_1_1	3	0	1	0	0.446342945099	-527.0	175.0	-524.0	174.0	1
3.0.1	2019_Mar_04_1328	s	s	5	1	Capacity	56	2_1	2	1	3	1	23_3_1	1	0	1	0	0.780730962753	502.0	-207.0	508.0	-213.0	1
3.0.1	2019_Mar_04_1328	s	s	5	1	Capacity	57	ABS	0	0	2	1	24_2_1	NA	NA	0	1	0.987258911133	None	None	None	None	1
3.0.1	2019_Mar_04_1328	s	s	5	1	Capacity	58	2_1	2	1	4	1	23_4_1	2	0	1	0	0.462559938431	-63.0	-227.0	-71.0	-225.0	1
3.0.1	2019_Mar_04_1328	s	s	5	1	Capacity	59	1_1	1	1	2	1	23_2_1	1	0	0	1	0.797648906708	56.0	299.0	None	None	0
3.0.1	2019_Mar_04_1328	s	s	5	1	Capacity	60	3_1	3	1	4	1	23_4_1	-1	0	1	0	0.540348052979	494.0	342.0	494.0	339.0	1
3.0.1	2019_Mar_04_1328	s	s	5	1	Capacity	61	ABS	0	0	4	1	24_4_1	NA	NA	0	1	0.646336078644	None	None	None	None	1
3.0.1	2019_Mar_04_1328	s	s	5	1	Capacity	62	ABS	0	0	3	1	24_3_1	NA	NA	0	1	0.646173000336	None	None	None	None	1
3.0.1	2019_Mar_04_1328	s	s	5	1	Capacity	63	ABS	0	0	2	1	24_2_1	NA	NA	0	1	0.869632005692	None	None	None	None	1
3.0.1	2019_Mar_04_1328	s	s	5	1	Capacity	64	1_1	1	1	3	1	23_3_1	2	0	1	0	0.411352157593	108.0	67.0	108.0	66.0	1
3.0.1	2019_Mar_04_1328	s	s	5	1	Capacity	65	ABS	0	0	3	1	24_3_1	NA	NA	0	1	0.804941892624	None	None	None	None	1
3.0.1	2019_Mar_04_1328	s	s	5	1	Capacity	66	4_1	4	1	2	1	23_2_1	2	0	1	0	0.554968833923	114.0	-219.0	123.0	-223.0	1
3.0.1	2019_Mar_04_1328	s	s	5	1	Capacity	67	3_1	3	1	2	1	23_2_1	1	0	1	0	0.540427923203	-428.0	-137.0	-417.0	-133.0	1
3.0.1	2019_Mar_04_1328	s	s	5	1	Capacity	68	ABS	0	0	4	1	24_4_1	NA	NA	0	1	0.45804810524	None	None	None	None	1
3.0.1	2019_Mar_04_1328	s	s	5	1	Capacity	69	ABS	0	0	4	1	24_4_1	NA	NA	0	1	0.752133846283	None	None	None	None	1
3.0.1	2019_Mar_04_1328	s	s	5	1	Capacity	70	ABS	0	0	1	1	24_1_1	NA	NA	0	1	0.651077985764	None	None	None	None	1
3.0.1	2019_Mar_04_1328	s	s	5	1	Capacity	71	ABS	0	0	2	1	24_2_1	NA	NA	0	1	0.646099090576	None	None	None	None	1
3.0.1	2019_Mar_04_1328	s	s	5	1	Capacity	72	1_1	1	1	4	1	23_4_1	3	0	1	0	0.458508014679	292.0	-412.0	289.0	-407.0	1
3.0.1	2019_Mar_04_1328	s	s	5	1	Capacity	73	ABS	0	0	1	1	24_1_1	NA	NA	0	1	0.510110855103	None	None	None	None	1
3.0.1	2019_Mar_04_1328	s	s	5	1	Capacity	74	4_1	4	1	2	1	23_2_1	2	0	1	0	0.422909021378	75.0	302.0	74.0	295.0	1
3.0.1	2019_Mar_04_1328	s	s	5	1	Capacity	75	4_1	4	1	1	1	23_1_1	3	0	1	0	0.437427043915	248.0	321.0	250.0	323.0	1
3.0.1	2019_Mar_04_1328	s	s	5	1	Capacity	76	ABS	0	0	3	1	24_3_1	NA	NA	0	1	0.587377071381	None	None	None	None	1
3.0.1	2019_Mar_04_1328	s	s	5	1	Capacity	77	ABS	0	0	4	1	24_4_1	NA	NA	0	1	0.410995006561	None	None	None	None	1
3.0.1	2019_Mar_04_1328	s	s	5	1	Capacity	78	ABS	0	0	2	1	24_2_1	NA	NA	0	1	0.488075017929	None	None	None	None	1
3.0.1	2019_Mar_04_1328	s	s	5	1	Capacity	79	ABS	0	0	1	1	24_1_1	NA	NA	0	1	0.599207162857	None	None	None	None	1
3.0.1	2019_Mar_04_1328	s	s	5	1	Capacity	80	1_1	1	1	2	1	23_2_1	1	0	0	1	0.686747789383	290.0	-258.0	None	None	0
3.0.1	2019_Mar_04_1328	s	s	5	1	Capacity	81	ABS	0	0	2	1	24_2_1	NA	NA	0	1	0.768885135651	None	None	None	None	1
3.0.1	2019_Mar_04_1328	s	s	5	1	Capacity	82	2_1	2	1	1	1	23_1_1	-1	0	0	1	0.672629117966	44.0	393.0	None	None	0
3.0.1	2019_Mar_04_1328	s	s	5	1	Capacity	83	4_1	4	1	3	1	23_3_1	1	0	1	0	0.546982049942	77.0	258.0	81.0	256.0	1
3.0.1	2019_Mar_04_1328	s	s	5	1	Capacity	84	ABS	0	0	3	1	24_3_1	NA	NA	0	1	2.06938385963	None	None	None	None	1
3.0.1	2019_Mar_04_1328	s	s	5	1	Capacity	85	ABS	0	0	1	1	24_1_1	NA	NA	0	1	1.39890193939	None	None	None	None	1
3.0.1	2019_Mar_04_1328	s	s	5	1	Capacity	86	ABS	0	0	2	1	24_2_1	NA	NA	0	1	0.686802864075	None	None	None	None	1
3.0.1	2019_Mar_04_1328	s	s	5	1	Capacity	87	3_1	3	1	1	1	23_1_1	2	0	1	0	0.931198120117	-167.0	-370.0	-164.0	-363.0	1
3.0.1	2019_Mar_04_1328	s	s	5	1	Capacity	88	ABS	0	0	4	1	24_4_1	NA	NA	0	1	0.67717218399	None	None	None	None	1
3.0.1	2019_Mar_04_1328	s	s	5	1	Capacity	89	ABS	0	0	4	1	24_4_1	NA	NA	1	0	0.62292098999	None	None	65.0	-7.0	0
3.0.1	2019_Mar_04_1328	s	s	5	1	Capacity	90	2_1	2	1	4	1	23_4_1	2	0	1	0	0.637811183929	466.0	194.0	460.0	197.0	1
3.0.1	2019_Mar_04_1328	s	s	5	1	Capacity	91	ABS	0	0	3	1	24_3_1	NA	NA	0	1	0.57852602005	None	None	None	None	1
3.0.1	2019_Mar_04_1328	s	s	5	1	Capacity	92	2_1	2	1	3	1	23_3_1	1	0	1	0	0.555037021637	133.0	261.0	138.0	261.0	1
3.0.1	2019_Mar_04_1328	s	s	5	1	Capacity	93	3_1	3	1	4	1	23_4_1	-1	0	1	0	0.437490940094	47.0	132.0	48.0	134.0	1
3.0.1	2019_Mar_04_1328	s	s	5	1	Capacity	94	1_1	1	1	4	1	23_4_1	3	0	1	0	0.387454032898	-8.0	-289.0	1.0	-282.0	1
3.0.1	2019_Mar_04_1328	s	s	5	1	Capacity	95	1_1	1	1	3	1	23_3_1	2	0	1	0	0.462491035461	316.0	120.0	320.0	120.0	1
3.0.1	2019_Mar_04_1328	s	s	5	1	Capacity	96	3_1	3	1	2	1	23_2_1	1	0	1	0	0.4749751091	466.0	25.0	467.0	32.0	1
3.0.1	2019_Mar_04_1328	s	s	5	1	Capacity	1	ABS	0	0	1	2	24_1_2	NA	NA	0	1	2.76333713531	None	None	None	None	1
3.0.1	2019_Mar_04_1328	s	s	5	1	Capacity	2	ABS	0	0	1	4	24_1_4	NA	NA	0	1	2.57837986946	None	None	None	None	1
3.0.1	2019_Mar_04_1328	s	s	5	1	Capacity	3	ABS	0	0	1	1	24_1_1	NA	NA	0	1	2.36342406273	None	None	None	None	1
3.0.1	2019_Mar_04_1328	s	s	5	1	Capacity	4	1_2	1	2	1	3	23_1_3	0	1	1	0	3.44204092026	-506.0	372.0	-506.0	375.0	1
3.0.1	2019_Mar_04_1328	s	s	5	1	Capacity	5	ABS	0	0	1	1	24_1_1	NA	NA	0	1	1.97063612938	None	None	None	None	1
3.0.1	2019_Mar_04_1328	s	s	5	1	Capacity	6	1_4	1	4	1	3	23_1_3	0	1	1	0	0.999044895172	257.0	-326.0	260.0	-328.0	1
3.0.1	2019_Mar_04_1328	s	s	5	1	Capacity	7	ABS	0	0	1	3	24_1_3	NA	NA	0	1	6.17400813103	None	None	None	None	1
3.0.1	2019_Mar_04_1328	s	s	5	1	Capacity	8	1_1	1	1	1	4	23_1_4	0	3	1	0	0.658014059067	-246.0	407.0	-250.0	406.0	1
3.0.1	2019_Mar_04_1328	s	s	5	1	Capacity	9	1_3	1	3	1	2	23_1_2	0	1	1	0	1.42724204063	57.0	-96.0	52.0	-99.0	1
3.0.1	2019_Mar_04_1328	s	s	5	1	Capacity	10	ABS	0	0	1	2	24_1_2	NA	NA	0	1	3.885627985	None	None	None	None	1
3.0.1	2019_Mar_04_1328	s	s	5	1	Capacity	11	ABS	0	0	1	3	24_1_3	NA	NA	0	1	4.66180896759	None	None	None	None	1
3.0.1	2019_Mar_04_1328	s	s	5	1	Capacity	12	ABS	0	0	1	1	24_1_1	NA	NA	0	1	2.01565814018	None	None	None	None	1
3.0.1	2019_Mar_04_1328	s	s	5	1	Capacity	13	1_1	1	1	1	2	23_1_2	0	1	1	0	3.07389998436	439.0	94.0	443.0	94.0	1
3.0.1	2019_Mar_04_1328	s	s	5	1	Capacity	14	ABS	0	0	1	4	24_1_4	NA	NA	0	1	3.69239211082	None	None	None	None	1
3.0.1	2019_Mar_04_1328	s	s	5	1	Capacity	15	1_3	1	3	1	4	23_1_4	0	-1	1	0	0.893285989761	-318.0	-386.0	-317.0	-388.0	1
3.0.1	2019_Mar_04_1328	s	s	5	1	Capacity	16	ABS	0	0	1	3	24_1_3	NA	NA	0	1	4.52046203613	None	None	None	None	1
3.0.1	2019_Mar_04_1328	s	s	5	1	Capacity	17	1_2	1	2	1	4	23_1_4	0	2	1	0	0.711091041565	312.0	154.0	307.0	155.0	1
3.0.1	2019_Mar_04_1328	s	s	5	1	Capacity	18	1_4	1	4	1	1	23_1_1	0	3	1	0	0.672644138336	-343.0	-249.0	-342.0	-250.0	1
3.0.1	2019_Mar_04_1328	s	s	5	1	Capacity	19	1_1	1	1	1	3	23_1_3	0	2	1	0	1.67230415344	229.0	-360.0	236.0	-364.0	1
3.0.1	2019_Mar_04_1328	s	s	5	1	Capacity	20	ABS	0	0	1	4	24_1_4	NA	NA	0	1	2.892578125	None	None	None	None	1
3.0.1	2019_Mar_04_1328	s	s	5	1	Capacity	21	1_3	1	3	1	1	23_1_1	0	2	1	0	2.39146590233	526.0	-160.0	531.0	-158.0	1
3.0.1	2019_Mar_04_1328	s	s	5	1	Capacity	22	1_2	1	2	1	1	23_1_1	0	-1	1	0	3.48716402054	-35.0	-379.0	-31.0	-381.0	1
3.0.1	2019_Mar_04_1328	s	s	5	1	Capacity	23	1_4	1	4	1	2	23_1_2	0	2	1	0	0.714500904083	-111.0	406.0	-115.0	404.0	1
3.0.1	2019_Mar_04_1328	s	s	5	1	Capacity	24	ABS	0	0	1	2	24_1_2	NA	NA	0	1	5.36851811409	None	None	None	None	1
3.0.1	2019_Mar_04_1328	s	s	5	1	Capacity	25	ABS	0	0	1	1	24_1_1	NA	NA	0	1	4.16290903091	None	None	None	None	1
3.0.1	2019_Mar_04_1328	s	s	5	1	Capacity	26	1_1	1	1	1	4	23_1_4	0	3	1	0	0.509865045547	-118.0	24.0	-114.0	14.0	1
3.0.1	2019_Mar_04_1328	s	s	5	1	Capacity	27	ABS	0	0	1	3	24_1_3	NA	NA	0	1	4.29218006134	None	None	None	None	1
3.0.1	2019_Mar_04_1328	s	s	5	1	Capacity	28	ABS	0	0	1	4	24_1_4	NA	NA	0	1	1.85070705414	None	None	None	None	1
3.0.1	2019_Mar_04_1328	s	s	5	1	Capacity	29	1_2	1	2	1	4	23_1_4	0	2	1	0	0.651387929916	-118.0	-192.0	-117.0	-185.0	1
3.0.1	2019_Mar_04_1328	s	s	5	1	Capacity	30	ABS	0	0	1	3	24_1_3	NA	NA	0	1	2.99145889282	None	None	None	None	1
3.0.1	2019_Mar_04_1328	s	s	5	1	Capacity	31	1_2	1	2	1	3	23_1_3	0	1	1	0	3.30425977707	-166.0	-119.0	-169.0	-121.0	1
3.0.1	2019_Mar_04_1328	s	s	5	1	Capacity	32	1_2	1	2	1	1	23_1_1	0	-1	1	0	2.01438093185	-194.0	23.0	-192.0	28.0	1
3.0.1	2019_Mar_04_1328	s	s	5	1	Capacity	33	1_1	1	1	1	2	23_1_2	0	1	1	0	2.02699398994	379.0	183.0	387.0	183.0	1
3.0.1	2019_Mar_04_1328	s	s	5	1	Capacity	34	1_4	1	4	1	2	23_1_2	0	2	1	0	1.62238788605	440.0	246.0	444.0	250.0	1
3.0.1	2019_Mar_04_1328	s	s	5	1	Capacity	35	ABS	0	0	1	1	24_1_1	NA	NA	0	1	2.46916604042	None	None	None	None	1
3.0.1	2019_Mar_04_1328	s	s	5	1	Capacity	36	1_1	1	1	1	3	23_1_3	0	2	1	0	1.02544212341	-69.0	281.0	-68.0	282.0	1
3.0.1	2019_Mar_04_1328	s	s	5	1	Capacity	37	1_4	1	4	1	3	23_1_3	0	1	1	0	1.23424506187	314.0	-151.0	307.0	-152.0	1
3.0.1	2019_Mar_04_1328	s	s	5	1	Capacity	38	1_4	1	4	1	1	23_1_1	0	3	1	0	0.780279874802	402.0	-335.0	398.0	-329.0	1
3.0.1	2019_Mar_04_1328	s	s	5	1	Capacity	39	ABS	0	0	1	2	24_1_2	NA	NA	0	1	4.16579198837	None	None	None	None	1
3.0.1	2019_Mar_04_1328	s	s	5	1	Capacity	40	ABS	0	0	1	4	24_1_4	NA	NA	0	1	2.37556195259	None	None	None	None	1
3.0.1	2019_Mar_04_1328	s	s	5	1	Capacity	41	ABS	0	0	1	2	24_1_2	NA	NA	0	1	4.54299998283	None	None	None	None	1
3.0.1	2019_Mar_04_1328	s	s	5	1	Capacity	42	ABS	0	0	1	2	24_1_2	NA	NA	0	1	3.61883497238	None	None	None	None	1
3.0.1	2019_Mar_04_1328	s	s	5	1	Capacity	43	1_3	1	3	1	1	23_1_1	0	2	1	0	1.26071500778	-518.0	314.0	-518.0	314.0	1
3.0.1	2019_Mar_04_1328	s	s	5	1	Capacity	44	ABS	0	0	1	3	24_1_3	NA	NA	0	1	4.78907394409	None	None	None	None	1
3.0.1	2019_Mar_04_1328	s	s	5	1	Capacity	45	1_3	1	3	1	2	23_1_2	0	1	0	1	6.30342698097	373.0	369.0	None	None	0
3.0.1	2019_Mar_04_1328	s	s	5	1	Capacity	46	ABS	0	0	1	4	24_1_4	NA	NA	0	1	2.65742206573	None	None	None	None	1
3.0.1	2019_Mar_04_1328	s	s	5	1	Capacity	47	ABS	0	0	1	1	24_1_1	NA	NA	0	1	1.67488789558	None	None	None	None	1
3.0.1	2019_Mar_04_1328	s	s	5	1	Capacity	48	1_3	1	3	1	4	23_1_4	0	-1	1	0	0.89838385582	212.0	66.0	219.0	64.0	1
3.0.1	2019_Mar_04_1328	s	s	5	1	Capacity	49	1_1	1	1	1	2	23_1_2	0	1	1	0	1.76347112656	83.0	158.0	84.0	151.0	1
3.0.1	2019_Mar_04_1328	s	s	5	1	Capacity	50	ABS	0	0	1	3	24_1_3	NA	NA	0	1	7.32674884796	None	None	None	None	1
3.0.1	2019_Mar_04_1328	s	s	5	1	Capacity	51	ABS	0	0	1	3	24_1_3	NA	NA	0	1	4.209815979	None	None	None	None	1
3.0.1	2019_Mar_04_1328	s	s	5	1	Capacity	52	1_2	1	2	1	3	23_1_3	0	1	1	0	1.5282959938	47.0	395.0	49.0	392.0	1
3.0.1	2019_Mar_04_1328	s	s	5	1	Capacity	53	ABS	0	0	1	2	24_1_2	NA	NA	0	1	7.98825907707	None	None	None	None	1
3.0.1	2019_Mar_04_1328	s	s	5	1	Capacity	54	ABS	0	0	1	3	24_1_3	NA	NA	0	1	6.23280191422	None	None	None	None	1
3.0.1	2019_Mar_04_1328	s	s	5	1	Capacity	55	1_4	1	4	1	1	23_1_1	0	3	1	0	0.716794967651	-208.0	-297.0	-213.0	-299.0	1
3.0.1	2019_Mar_04_1328	s	s	5	1	Capacity	56	ABS	0	0	1	4	24_1_4	NA	NA	0	1	1.81378602982	None	None	None	None	1
3.0.1	2019_Mar_04_1328	s	s	5	1	Capacity	57	1_1	1	1	1	3	23_1_3	0	2	1	0	0.791245937347	-531.0	-99.0	-530.0	-102.0	1
3.0.1	2019_Mar_04_1328	s	s	5	1	Capacity	58	ABS	0	0	1	1	24_1_1	NA	NA	0	1	1.45073986053	None	None	None	None	1
3.0.1	2019_Mar_04_1328	s	s	5	1	Capacity	59	ABS	0	0	1	2	24_1_2	NA	NA	0	1	3.07231616974	None	None	None	None	1
3.0.1	2019_Mar_04_1328	s	s	5	1	Capacity	60	1_3	1	3	1	4	23_1_4	0	-1	1	0	0.625955104828	-435.0	-128.0	-430.0	-134.0	1
3.0.1	2019_Mar_04_1328	s	s	5	1	Capacity	61	ABS	0	0	1	1	24_1_1	NA	NA	0	1	2.41547584534	None	None	None	None	1
3.0.1	2019_Mar_04_1328	s	s	5	1	Capacity	62	ABS	0	0	1	2	24_1_2	NA	NA	0	1	5.63295006752	None	None	None	None	1
3.0.1	2019_Mar_04_1328	s	s	5	1	Capacity	63	ABS	0	0	1	4	24_1_4	NA	NA	0	1	1.67337203026	None	None	None	None	1
3.0.1	2019_Mar_04_1328	s	s	5	1	Capacity	64	1_2	1	2	1	1	23_1_1	0	-1	1	0	1.2979118824	-165.0	147.0	-164.0	147.0	1
3.0.1	2019_Mar_04_1328	s	s	5	1	Capacity	65	ABS	0	0	1	4	24_1_4	NA	NA	0	1	1.63456511497	None	None	None	None	1
3.0.1	2019_Mar_04_1328	s	s	5	1	Capacity	66	1_4	1	4	1	2	23_1_2	0	2	1	0	0.555996894836	-324.0	404.0	-322.0	403.0	1
3.0.1	2019_Mar_04_1328	s	s	5	1	Capacity	67	1_2	1	2	1	4	23_1_4	0	2	1	0	0.716816902161	55.0	-245.0	57.0	-245.0	1
3.0.1	2019_Mar_04_1328	s	s	5	1	Capacity	68	1_1	1	1	1	4	23_1_4	0	3	1	0	0.604505062103	-396.0	352.0	-396.0	357.0	1
3.0.1	2019_Mar_04_1328	s	s	5	1	Capacity	69	ABS	0	0	1	1	24_1_1	NA	NA	0	1	2.24864697456	None	None	None	None	1
3.0.1	2019_Mar_04_1328	s	s	5	1	Capacity	70	1_4	1	4	1	3	23_1_3	0	1	1	0	0.705038070679	-191.0	-254.0	-184.0	-246.0	1
3.0.1	2019_Mar_04_1328	s	s	5	1	Capacity	71	1_3	1	3	1	1	23_1_1	0	2	1	0	0.872378826141	145.0	-352.0	151.0	-351.0	1
3.0.1	2019_Mar_04_1328	s	s	5	1	Capacity	72	1_3	1	3	1	2	23_1_2	0	1	1	0	2.6220998764	367.0	-131.0	366.0	-129.0	1
3.0.1	2019_Mar_04_1328	s	s	5	1	Capacity	73	ABS	0	0	1	3	24_1_3	NA	NA	0	1	4.33039212227	None	None	None	None	1
3.0.1	2019_Mar_04_1328	s	s	5	1	Capacity	74	1_1	1	1	1	3	23_1_3	0	2	1	0	0.999068975449	-411.0	-191.0	-409.0	-192.0	1
3.0.1	2019_Mar_04_1328	s	s	5	1	Capacity	75	ABS	0	0	1	4	24_1_4	NA	NA	0	1	2.73183894157	None	None	None	None	1
3.0.1	2019_Mar_04_1328	s	s	5	1	Capacity	76	ABS	0	0	1	1	24_1_1	NA	NA	0	1	1.89293980598	None	None	None	None	1
3.0.1	2019_Mar_04_1328	s	s	5	1	Capacity	77	ABS	0	0	1	1	24_1_1	NA	NA	0	1	1.27019190788	None	None	None	None	1
3.0.1	2019_Mar_04_1328	s	s	5	1	Capacity	78	1_3	1	3	1	1	23_1_1	0	2	1	0	0.57866692543	-170.0	69.0	-166.0	61.0	1
3.0.1	2019_Mar_04_1328	s	s	5	1	Capacity	79	ABS	0	0	1	3	24_1_3	NA	NA	0	1	3.5864880085	None	None	None	None	1
3.0.1	2019_Mar_04_1328	s	s	5	1	Capacity	80	ABS	0	0	1	4	24_1_4	NA	NA	0	1	3.08827710152	None	None	None	None	1
3.0.1	2019_Mar_04_1328	s	s	5	1	Capacity	81	ABS	0	0	1	2	24_1_2	NA	NA	0	1	5.09192490578	None	None	None	None	1
3.0.1	2019_Mar_04_1328	s	s	5	1	Capacity	82	1_1	1	1	1	2	23_1_2	0	1	1	0	3.44117283821	247.0	118.0	247.0	111.0	1
3.0.1	2019_Mar_04_1328	s	s	5	1	Capacity	83	1_4	1	4	1	1	23_1_1	0	3	1	0	0.634427070618	-431.0	-212.0	-431.0	-206.0	1
3.0.1	2019_Mar_04_1328	s	s	5	1	Capacity	84	1_2	1	2	1	4	23_1_4	0	2	1	0	0.634418010712	-163.0	-177.0	-167.0	-175.0	1
3.0.1	2019_Mar_04_1328	s	s	5	1	Capacity	85	1_3	1	3	1	4	23_1_4	0	-1	1	0	0.780626058578	104.0	-284.0	105.0	-281.0	1
3.0.1	2019_Mar_04_1328	s	s	5	1	Capacity	86	ABS	0	0	1	3	24_1_3	NA	NA	0	1	5.42133808136	None	None	None	None	1
3.0.1	2019_Mar_04_1328	s	s	5	1	Capacity	87	1_4	1	4	1	2	23_1_2	0	2	1	0	1.27899599075	482.0	-246.0	482.0	-245.0	1
3.0.1	2019_Mar_04_1328	s	s	5	1	Capacity	88	1_2	1	2	1	3	23_1_3	0	1	1	0	2.23893785477	-206.0	218.0	-210.0	216.0	1
3.0.1	2019_Mar_04_1328	s	s	5	1	Capacity	89	ABS	0	0	1	1	24_1_1	NA	NA	0	1	3.21028590202	None	None	None	None	1
3.0.1	2019_Mar_04_1328	s	s	5	1	Capacity	90	1_1	1	1	1	4	23_1_4	0	3	1	0	0.569468021393	391.0	-69.0	390.0	-76.0	1
3.0.1	2019_Mar_04_1328	s	s	5	1	Capacity	91	1_2	1	2	1	1	23_1_1	0	-1	1	0	1.56359004974	365.0	-115.0	358.0	-108.0	1
3.0.1	2019_Mar_04_1328	s	s	5	1	Capacity	92	1_4	1	4	1	3	23_1_3	0	1	1	0	1.79875993729	452.0	22.0	455.0	25.0	1
3.0.1	2019_Mar_04_1328	s	s	5	1	Capacity	93	ABS	0	0	1	4	24_1_4	NA	NA	0	1	2.88083815575	None	None	None	None	1
3.0.1	2019_Mar_04_1328	s	s	5	1	Capacity	94	ABS	0	0	1	2	24_1_2	NA	NA	0	1	4.83329105377	None	None	None	None	1
3.0.1	2019_Mar_04_1328	s	s	5	1	Capacity	95	1_3	1	3	1	2	23_1_2	0	1	0	1	3.40294599533	331.0	132.0	None	None	0
3.0.1	2019_Mar_04_1328	s	s	5	1	Capacity	96	ABS	0	0	1	2	24_1_2	NA	NA	0	1	2.58677792549	None	None	None	None	1
3.0.1	2019_Mar_04_1328	s	s	5	1	SIC	1	ABS	0	0	2	2	24_2_2	NA	NA	0	1	3.53323793411	None	None	None	None	1
3.0.1	2019_Mar_04_1328	s	s	5	1	SIC	2	ABS	0	0	3	2	24_3_2	NA	NA	0	1	4.409760952	None	None	None	None	1
3.0.1	2019_Mar_04_1328	s	s	5	1	SIC	3	4_4	4	4	3	4	23_3_4	1	0	1	0	0.64651799202	386.0	265.0	382.0	266.0	1
3.0.1	2019_Mar_04_1328	s	s	5	1	SIC	4	1_3	1	3	4	1	23_4_1	3	2	1	0	0.46981215477	133.0	-397.0	126.0	-400.0	1
3.0.1	2019_Mar_04_1328	s	s	5	1	SIC	5	2_4	2	4	1	1	23_1_1	-1	3	1	0	0.493377923965	-58.0	134.0	-55.0	133.0	1
3.0.1	2019_Mar_04_1328	s	s	5	1	SIC	6	ABS	0	0	4	2	24_4_2	NA	NA	0	1	4.26178503036	None	None	None	None	1
3.0.1	2019_Mar_04_1328	s	s	5	1	SIC	7	1_3	1	3	4	3	23_4_3	3	0	1	0	0.457985877991	22.0	361.0	21.0	360.0	1
3.0.1	2019_Mar_04_1328	s	s	5	1	SIC	8	ABS	0	0	2	1	24_2_1	NA	NA	0	1	2.24579691887	None	None	None	None	1
3.0.1	2019_Mar_04_1328	s	s	5	1	SIC	9	1_3	1	3	4	4	23_4_4	3	-1	1	0	0.60558795929	203.0	297.0	203.0	295.0	1
3.0.1	2019_Mar_04_1328	s	s	5	1	SIC	10	ABS	0	0	2	3	24_2_3	NA	NA	0	1	6.08276486397	None	None	None	None	1
3.0.1	2019_Mar_04_1328	s	s	5	1	SIC	11	3_4	3	4	1	2	23_1_2	2	2	1	0	0.410985946655	-278.0	-102.0	-282.0	-102.0	1
3.0.1	2019_Mar_04_1328	s	s	5	1	SIC	12	ABS	0	0	4	3	24_4_3	NA	NA	0	1	4.73062086105	None	None	None	None	1
3.0.1	2019_Mar_04_1328	s	s	5	1	SIC	13	2_3	2	3	1	3	23_1_3	-1	0	0	1	5.70352077484	377.0	69.0	None	None	0
3.0.1	2019_Mar_04_1328	s	s	5	1	SIC	14	4_2	4	2	2	3	23_2_3	2	1	1	0	0.54549407959	-31.0	-92.0	-23.0	-90.0	1
3.0.1	2019_Mar_04_1328	s	s	5	1	SIC	15	ABS	0	0	1	4	24_1_4	NA	NA	0	1	1.97297501564	None	None	None	None	1
3.0.1	2019_Mar_04_1328	s	s	5	1	SIC	16	ABS	0	0	2	1	24_2_1	NA	NA	0	1	2.29280996323	None	None	None	None	1
3.0.1	2019_Mar_04_1328	s	s	5	1	SIC	17	2_2	2	2	1	4	23_1_4	-1	2	1	0	0.640577793121	395.0	200.0	395.0	195.0	1
3.0.1	2019_Mar_04_1328	s	s	5	1	SIC	18	2_2	2	2	1	3	23_1_3	-1	1	1	0	2.81308078766	-357.0	111.0	-359.0	121.0	1
3.0.1	2019_Mar_04_1328	s	s	5	1	SIC	19	1_2	1	2	2	4	23_2_4	1	2	1	0	0.66322016716	40.0	-349.0	47.0	-352.0	1
3.0.1	2019_Mar_04_1328	s	s	5	1	SIC	20	ABS	0	0	2	3	24_2_3	NA	NA	0	1	4.58622694016	None	None	None	None	1
3.0.1	2019_Mar_04_1328	s	s	5	1	SIC	21	ABS	0	0	2	2	24_2_2	NA	NA	0	1	3.21624803543	None	None	None	None	1
3.0.1	2019_Mar_04_1328	s	s	5	1	SIC	22	4_1	4	1	3	1	23_3_1	1	0	1	0	0.437425136566	313.0	197.0	303.0	196.0	1
3.0.1	2019_Mar_04_1328	s	s	5	1	SIC	23	ABS	0	0	3	3	24_3_3	NA	NA	0	1	4.11576080322	None	None	None	None	1
3.0.1	2019_Mar_04_1328	s	s	5	1	SIC	24	4_1	4	1	3	2	23_3_2	1	1	1	0	0.510512828827	-196.0	-359.0	-200.0	-359.0	1
3.0.1	2019_Mar_04_1328	s	s	5	1	SIC	25	ABS	0	0	3	1	24_3_1	NA	NA	0	1	1.89806389809	None	None	None	None	1
3.0.1	2019_Mar_04_1328	s	s	5	1	SIC	26	ABS	0	0	3	4	24_3_4	NA	NA	0	1	2.65739488602	None	None	None	None	1
3.0.1	2019_Mar_04_1328	s	s	5	1	SIC	27	2_4	2	4	1	3	23_1_3	-1	1	1	0	1.13812589645	-119.0	-116.0	-132.0	-112.0	1
3.0.1	2019_Mar_04_1328	s	s	5	1	SIC	28	ABS	0	0	2	2	24_2_2	NA	NA	0	1	3.96286988258	None	None	None	None	1
3.0.1	2019_Mar_04_1328	s	s	5	1	SIC	29	ABS	0	0	4	3	24_4_3	NA	NA	1	0	0.980642080307	None	None	85.0	-85.0	0
3.0.1	2019_Mar_04_1328	s	s	5	1	SIC	30	4_3	4	3	2	2	23_2_2	2	1	1	0	0.575592041016	-12.0	367.0	-18.0	362.0	1
3.0.1	2019_Mar_04_1328	s	s	5	1	SIC	31	2_4	2	4	2	2	23_2_2	0	2	1	0	0.893244981766	-515.0	-322.0	-515.0	-326.0	1
3.0.1	2019_Mar_04_1328	s	s	5	1	SIC	32	ABS	0	0	2	4	24_2_4	NA	NA	0	1	2.59853601456	None	None	None	None	1
3.0.1	2019_Mar_04_1328	s	s	5	1	SIC	33	ABS	0	0	4	3	24_4_3	NA	NA	0	1	6.72683405876	None	None	None	None	1
3.0.1	2019_Mar_04_1328	s	s	5	1	SIC	34	ABS	0	0	2	4	24_2_4	NA	NA	0	1	1.92813014984	None	None	None	None	1
3.0.1	2019_Mar_04_1328	s	s	5	1	SIC	35	2_2	2	2	2	3	23_2_3	0	1	1	0	2.54886603355	-91.0	-80.0	-88.0	-82.0	1
3.0.1	2019_Mar_04_1328	s	s	5	1	SIC	36	ABS	0	0	3	4	24_3_4	NA	NA	0	1	1.54660916328	None	None	None	None	1
3.0.1	2019_Mar_04_1328	s	s	5	1	SIC	37	3_1	3	1	1	1	23_1_1	2	0	1	0	0.763799905777	190.0	-404.0	187.0	-401.0	1
3.0.1	2019_Mar_04_1328	s	s	5	1	SIC	38	ABS	0	0	1	1	24_1_1	NA	NA	0	1	1.70463299751	None	None	None	None	1
3.0.1	2019_Mar_04_1328	s	s	5	1	SIC	39	ABS	0	0	4	1	24_4_1	NA	NA	0	1	1.37831282616	None	None	None	None	1
3.0.1	2019_Mar_04_1328	s	s	5	1	SIC	40	2_1	2	1	4	1	23_4_1	2	0	1	0	0.528524875641	245.0	139.0	247.0	138.0	1
3.0.1	2019_Mar_04_1328	s	s	5	1	SIC	41	2_3	2	3	3	1	23_3_1	1	2	1	0	0.646234035492	339.0	33.0	338.0	35.0	1
3.0.1	2019_Mar_04_1328	s	s	5	1	SIC	42	ABS	0	0	1	4	24_1_4	NA	NA	0	1	1.76355004311	None	None	None	None	1
3.0.1	2019_Mar_04_1328	s	s	5	1	SIC	43	ABS	0	0	1	4	24_1_4	NA	NA	0	1	1.72153902054	None	None	None	None	1
3.0.1	2019_Mar_04_1328	s	s	5	1	SIC	44	ABS	0	0	3	1	24_3_1	NA	NA	0	1	1.01898097992	None	None	None	None	1
3.0.1	2019_Mar_04_1328	s	s	5	1	SIC	45	3_1	3	1	4	2	23_4_2	-1	1	1	0	0.446295022964	339.0	26.0	339.0	35.0	1
3.0.1	2019_Mar_04_1328	s	s	5	1	SIC	46	ABS	0	0	4	3	24_4_3	NA	NA	0	1	0.999059915543	None	None	None	None	1
3.0.1	2019_Mar_04_1328	s	s	5	1	SIC	47	4_2	4	2	3	2	23_3_2	1	0	1	0	0.481585025787	373.0	257.0	374.0	252.0	1
3.0.1	2019_Mar_04_1328	s	s	5	1	SIC	48	ABS	0	0	1	1	24_1_1	NA	NA	0	1	1.06267309189	None	None	None	None	1
3.0.1	2019_Mar_04_1328	s	s	5	1	SIC	49	ABS	0	0	4	3	24_4_3	NA	NA	0	1	3.84815192223	None	None	None	None	1
3.0.1	2019_Mar_04_1328	s	s	5	1	SIC	50	2_4	2	4	4	2	23_4_2	2	2	1	0	0.481544017792	-505.0	-159.0	-509.0	-153.0	1
3.0.1	2019_Mar_04_1328	s	s	5	1	SIC	51	1_4	1	4	2	3	23_2_3	1	1	1	0	0.634469985962	232.0	11.0	241.0	9.0	1
3.0.1	2019_Mar_04_1328	s	s	5	1	SIC	52	ABS	0	0	2	1	24_2_1	NA	NA	0	1	1.62642121315	None	None	None	None	1
3.0.1	2019_Mar_04_1328	s	s	5	1	SIC	53	3_3	3	3	2	3	23_2_3	1	0	1	0	0.554999113083	-202.0	-90.0	-192.0	-87.0	1
3.0.1	2019_Mar_04_1328	s	s	5	1	SIC	54	1_4	1	4	1	3	23_1_3	0	1	1	0	1.81051111221	493.0	-338.0	494.0	-332.0	1
3.0.1	2019_Mar_04_1328	s	s	5	1	SIC	55	ABS	0	0	3	4	24_3_4	NA	NA	0	1	1.55469107628	None	None	None	None	1
3.0.1	2019_Mar_04_1328	s	s	5	1	SIC	56	ABS	0	0	2	3	24_2_3	NA	NA	0	1	4.50868701935	None	None	None	None	1
3.0.1	2019_Mar_04_1328	s	s	5	1	SIC	57	1_3	1	3	2	2	23_2_2	1	1	1	0	0.752036094666	-212.0	-117.0	-204.0	-114.0	1
3.0.1	2019_Mar_04_1328	s	s	5	1	SIC	58	ABS	0	0	3	1	24_3_1	NA	NA	0	1	1.25129914284	None	None	None	None	1
3.0.1	2019_Mar_04_1328	s	s	5	1	SIC	59	ABS	0	0	2	3	24_2_3	NA	NA	0	1	3.55416703224	None	None	None	None	1
3.0.1	2019_Mar_04_1328	s	s	5	1	SIC	60	3_4	3	4	3	1	23_3_1	0	3	1	0	0.684231996536	-36.0	-163.0	-26.0	-160.0	1
3.0.1	2019_Mar_04_1328	s	s	5	1	SIC	61	2_3	2	3	4	1	23_4_1	2	2	1	0	0.458273172379	160.0	192.0	156.0	180.0	1
3.0.1	2019_Mar_04_1328	s	s	5	1	SIC	62	ABS	0	0	2	1	24_2_1	NA	NA	0	1	1.97117400169	None	None	None	None	1
3.0.1	2019_Mar_04_1328	s	s	5	1	SIC	63	1_3	1	3	3	2	23_3_2	2	1	1	0	0.496155977249	-101.0	211.0	-107.0	214.0	1
3.0.1	2019_Mar_04_1328	s	s	5	1	SIC	64	ABS	0	0	1	2	24_1_2	NA	NA	0	1	3.49532699585	None	None	None	None	1
3.0.1	2019_Mar_04_1328	s	s	5	1	SIC	65	3_4	3	4	1	4	23_1_4	2	0	1	0	0.79904294014	482.0	249.0	484.0	253.0	1
3.0.1	2019_Mar_04_1328	s	s	5	1	SIC	66	4_4	4	4	4	2	23_4_2	0	2	1	0	0.58743596077	23.0	372.0	30.0	370.0	1
3.0.1	2019_Mar_04_1328	s	s	5	1	SIC	67	ABS	0	0	2	2	24_2_2	NA	NA	0	1	3.21530508995	None	None	None	None	1
3.0.1	2019_Mar_04_1328	s	s	5	1	SIC	68	ABS	0	0	3	3	24_3_3	NA	NA	0	1	2.97488307953	None	None	None	None	1
3.0.1	2019_Mar_04_1328	s	s	5	1	SIC	69	1_3	1	3	3	1	23_3_1	2	2	1	0	0.578402996063	-142.0	-98.0	-127.0	-90.0	1
3.0.1	2019_Mar_04_1328	s	s	5	1	SIC	70	4_1	4	1	1	3	23_1_3	3	2	1	0	0.510055065155	-414.0	71.0	-413.0	71.0	1
3.0.1	2019_Mar_04_1328	s	s	5	1	SIC	71	1_4	1	4	2	1	23_2_1	1	3	1	0	0.560485124588	104.0	242.0	97.0	245.0	1
3.0.1	2019_Mar_04_1328	s	s	5	1	SIC	72	ABS	0	0	1	4	24_1_4	NA	NA	0	1	1.29823803902	None	None	None	None	1
3.0.1	2019_Mar_04_1328	s	s	5	1	SIC	73	3_1	3	1	1	2	23_1_2	2	1	1	0	0.50123000145	-147.0	-217.0	-152.0	-217.0	1
3.0.1	2019_Mar_04_1328	s	s	5	1	SIC	74	1_4	1	4	4	2	23_4_2	3	2	1	0	0.42783498764	-237.0	276.0	-237.0	275.0	1
3.0.1	2019_Mar_04_1328	s	s	5	1	SIC	75	4_3	4	3	3	3	23_3_3	1	0	1	0	0.457961082458	-3.0	-341.0	0.0	-334.0	1
3.0.1	2019_Mar_04_1328	s	s	5	1	SIC	76	ABS	0	0	2	2	24_2_2	NA	NA	0	1	2.3868470192	None	None	None	None	1
3.0.1	2019_Mar_04_1328	s	s	5	1	SIC	77	ABS	0	0	4	2	24_4_2	NA	NA	0	1	2.22521710396	None	None	None	None	1
3.0.1	2019_Mar_04_1328	s	s	5	1	SIC	78	2_4	2	4	4	3	23_4_3	2	1	1	0	0.442808151245	-319.0	-210.0	-313.0	-205.0	1
3.0.1	2019_Mar_04_1328	s	s	5	1	SIC	79	ABS	0	0	1	3	24_1_3	NA	NA	0	1	2.10460519791	None	None	None	None	1
3.0.1	2019_Mar_04_1328	s	s	5	1	SIC	80	ABS	0	0	2	2	24_2_2	NA	NA	0	1	1.66068911552	None	None	None	None	1
3.0.1	2019_Mar_04_1328	s	s	5	1	SIC	81	ABS	0	0	1	2	24_1_2	NA	NA	0	1	1.57539176941	None	None	None	None	1
3.0.1	2019_Mar_04_1328	s	s	5	1	SIC	82	1_4	1	4	2	4	23_2_4	1	0	0	1	1.10485291481	-48.0	-370.0	None	None	0
3.0.1	2019_Mar_04_1328	s	s	5	1	SIC	83	ABS	0	0	2	2	24_2_2	NA	NA	0	1	1.08895111084	None	None	None	None	1
3.0.1	2019_Mar_04_1328	s	s	5	1	SIC	84	2_3	2	3	4	2	23_4_2	2	1	1	0	0.516898155212	106.0	-20.0	111.0	-17.0	1
3.0.1	2019_Mar_04_1328	s	s	5	1	SIC	85	ABS	0	0	3	1	24_3_1	NA	NA	0	1	1.31129598618	None	None	None	None	1
3.0.1	2019_Mar_04_1328	s	s	5	1	SIC	86	4_3	4	3	4	2	23_4_2	0	1	1	0	1.48124098778	-111.0	-96.0	-104.0	-94.0	1
3.0.1	2019_Mar_04_1328	s	s	5	1	SIC	87	ABS	0	0	4	1	24_4_1	NA	NA	0	1	1.71650004387	None	None	None	None	1
3.0.1	2019_Mar_04_1328	s	s	5	1	SIC	88	ABS	0	0	2	4	24_2_4	NA	NA	0	1	1.48684000969	None	None	None	None	1
3.0.1	2019_Mar_04_1328	s	s	5	1	SIC	89	ABS	0	0	4	3	24_4_3	NA	NA	0	1	3.35129308701	None	None	None	None	1
3.0.1	2019_Mar_04_1328	s	s	5	1	SIC	90	1_2	1	2	2	1	23_2_1	1	-1	1	0	0.552545070648	176.0	-137.0	180.0	-141.0	1
3.0.1	2019_Mar_04_1328	s	s	5	1	SIC	91	ABS	0	0	4	4	24_4_4	NA	NA	0	1	1.52156400681	None	None	None	None	1
3.0.1	2019_Mar_04_1328	s	s	5	1	SIC	92	2_2	2	2	3	2	23_3_2	1	0	1	0	0.567563056946	173.0	282.0	178.0	289.0	1
3.0.1	2019_Mar_04_1328	s	s	5	1	SIC	93	3_4	3	4	4	4	23_4_4	-1	0	1	0	0.469743013382	47.0	5.0	44.0	0.0	1
3.0.1	2019_Mar_04_1328	s	s	5	1	SIC	94	ABS	0	0	4	2	24_4_2	NA	NA	0	1	2.09694480896	None	None	None	None	1
3.0.1	2019_Mar_04_1328	s	s	5	1	SIC	95	2_2	2	2	1	1	23_1_1	-1	-1	1	0	1.42249298096	-416.0	360.0	-421.0	362.0	1
3.0.1	2019_Mar_04_1328	s	s	5	1	SIC	96	3_4	3	4	1	3	23_1_3	2	1	1	0	1.00392794609	398.0	6.0	395.0	4.0	1
3.0.1	2019_Mar_04_1328	s	s	5	1	SIC	97	ABS	0	0	1	3	24_1_3	NA	NA	0	1	4.05707788467	None	None	None	None	1
3.0.1	2019_Mar_04_1328	s	s	5	1	SIC	98	ABS	0	0	2	1	24_2_1	NA	NA	0	1	1.29780101776	None	None	None	None	1
3.0.1	2019_Mar_04_1328	s	s	5	1	SIC	99	3_2	3	2	4	2	23_4_2	-1	0	1	0	0.528598070145	-313.0	-293.0	-313.0	-291.0	1
3.0.1	2019_Mar_04_1328	s	s	5	1	SIC	100	ABS	0	0	3	3	24_3_3	NA	NA	0	1	3.79030895233	None	None	None	None	1
3.0.1	2019_Mar_04_1328	s	s	5	1	SIC	101	ABS	0	0	1	2	24_1_2	NA	NA	0	1	3.50415492058	None	None	None	None	1
3.0.1	2019_Mar_04_1328	s	s	5	1	SIC	102	ABS	0	0	1	3	24_1_3	NA	NA	0	1	4.36279201508	None	None	None	None	1
3.0.1	2019_Mar_04_1328	s	s	5	1	SIC	103	ABS	0	0	4	4	24_4_4	NA	NA	0	1	1.34348011017	None	None	None	None	1
3.0.1	2019_Mar_04_1328	s	s	5	1	SIC	104	2_2	2	2	4	2	23_4_2	2	0	1	0	0.498852014542	522.0	-91.0	522.0	-96.0	1
3.0.1	2019_Mar_04_1328	s	s	5	1	SIC	105	4_2	4	2	1	4	23_1_4	3	2	1	0	0.813682079315	339.0	259.0	349.0	265.0	1
3.0.1	2019_Mar_04_1328	s	s	5	1	SIC	106	1_4	1	4	3	2	23_3_2	2	2	1	0	0.505052804947	-91.0	352.0	-91.0	354.0	1
3.0.1	2019_Mar_04_1328	s	s	5	1	SIC	107	1_3	1	3	4	2	23_4_2	3	1	1	0	0.357286930084	-103.0	48.0	-106.0	54.0	1
3.0.1	2019_Mar_04_1328	s	s	5	1	SIC	108	1_4	1	4	4	1	23_4_1	3	3	1	0	0.357205867767	-158.0	-41.0	-160.0	-41.0	1
3.0.1	2019_Mar_04_1328	s	s	5	1	SIC	109	3_4	3	4	2	1	23_2_1	1	3	1	0	0.486622095108	135.0	-311.0	136.0	-317.0	1
3.0.1	2019_Mar_04_1328	s	s	5	1	SIC	110	2_3	2	3	3	3	23_3_3	1	0	1	0	0.75200510025	-474.0	-120.0	-473.0	-118.0	1
3.0.1	2019_Mar_04_1328	s	s	5	1	SIC	111	2_2	2	2	3	1	23_3_1	1	-1	1	0	0.425643920898	-132.0	-84.0	-127.0	-87.0	1
3.0.1	2019_Mar_04_1328	s	s	5	1	SIC	112	ABS	0	0	1	2	24_1_2	NA	NA	1	0	3.37863397598	None	None	-41.0	-90.0	0
3.0.1	2019_Mar_04_1328	s	s	5	1	SIC	113	4_4	4	4	2	4	23_2_4	2	0	1	0	0.658012151718	259.0	198.0	265.0	202.0	1
3.0.1	2019_Mar_04_1328	s	s	5	1	SIC	114	4_3	4	3	4	1	23_4_1	0	2	0	1	1.63415598869	-371.0	389.0	None	None	0
3.0.1	2019_Mar_04_1328	s	s	5	1	SIC	115	4_1	4	1	1	1	23_1_1	3	0	1	0	0.486319065094	159.0	330.0	163.0	331.0	1
3.0.1	2019_Mar_04_1328	s	s	5	1	SIC	116	1_4	1	4	4	4	23_4_4	3	0	1	0	0.43741106987	325.0	310.0	325.0	312.0	1
3.0.1	2019_Mar_04_1328	s	s	5	1	SIC	117	ABS	0	0	4	4	24_4_4	NA	NA	0	1	1.26057887077	None	None	None	None	1
3.0.1	2019_Mar_04_1328	s	s	5	1	SIC	118	4_1	4	1	2	3	23_2_3	2	2	1	0	0.516772985458	-219.0	-298.0	-217.0	-299.0	1
3.0.1	2019_Mar_04_1328	s	s	5	1	SIC	119	1_1	1	1	4	1	23_4_1	3	0	1	0	0.501787185669	324.0	263.0	334.0	264.0	1
3.0.1	2019_Mar_04_1328	s	s	5	1	SIC	120	ABS	0	0	2	2	24_2_2	NA	NA	0	1	1.56056284904	None	None	None	None	1
3.0.1	2019_Mar_04_1328	s	s	5	1	SIC	121	4_1	4	1	1	4	23_1_4	3	3	1	0	0.510917186737	-529.0	-252.0	-534.0	-253.0	1
3.0.1	2019_Mar_04_1328	s	s	5	1	SIC	122	2_1	2	1	3	4	23_3_4	1	3	1	0	0.496208906174	-129.0	-369.0	-134.0	-362.0	1
3.0.1	2019_Mar_04_1328	s	s	5	1	SIC	123	1_1	1	1	1	3	23_1_3	0	2	1	0	1.60378885269	-536.0	32.0	-531.0	29.0	1
3.0.1	2019_Mar_04_1328	s	s	5	1	SIC	124	ABS	0	0	4	4	24_4_4	NA	NA	0	1	1.12882900238	None	None	None	None	1
3.0.1	2019_Mar_04_1328	s	s	5	1	SIC	125	2_1	2	1	3	1	23_3_1	1	0	1	0	0.496206998825	211.0	214.0	213.0	217.0	1
3.0.1	2019_Mar_04_1328	s	s	5	1	SIC	126	ABS	0	0	1	1	24_1_1	NA	NA	0	1	0.881457805634	None	None	None	None	1
3.0.1	2019_Mar_04_1328	s	s	5	1	SIC	127	ABS	0	0	1	1	24_1_1	NA	NA	0	1	1.50490307808	None	None	None	None	1
3.0.1	2019_Mar_04_1328	s	s	5	1	SIC	128	ABS	0	0	4	3	24_4_3	NA	NA	0	1	5.44478607178	None	None	None	None	1
3.0.1	2019_Mar_04_1328	s	s	5	1	SIC	129	ABS	0	0	2	3	24_2_3	NA	NA	0	1	3.95113587379	None	None	None	None	1
3.0.1	2019_Mar_04_1328	s	s	5	1	SIC	130	4_1	4	1	4	3	23_4_3	0	2	1	0	1.88633704185	312.0	8.0	306.0	6.0	1
3.0.1	2019_Mar_04_1328	s	s	5	1	SIC	131	ABS	0	0	1	4	24_1_4	NA	NA	0	1	3.14358305931	None	None	None	None	1
3.0.1	2019_Mar_04_1328	s	s	5	1	SIC	132	ABS	0	0	3	4	24_3_4	NA	NA	0	1	1.32472276688	None	None	None	None	1
3.0.1	2019_Mar_04_1328	s	s	5	1	SIC	133	ABS	0	0	4	4	24_4_4	NA	NA	0	1	1.42751002312	None	None	None	None	1
3.0.1	2019_Mar_04_1328	s	s	5	1	SIC	134	ABS	0	0	3	4	24_3_4	NA	NA	0	1	1.53286886215	None	None	None	None	1
3.0.1	2019_Mar_04_1328	s	s	5	1	SIC	135	2_1	2	1	3	2	23_3_2	1	1	1	0	0.84908914566	48.0	397.0	41.0	397.0	1
3.0.1	2019_Mar_04_1328	s	s	5	1	SIC	136	1_4	1	4	2	2	23_2_2	1	2	1	0	1.08932590485	404.0	136.0	399.0	131.0	1
3.0.1	2019_Mar_04_1328	s	s	5	1	SIC	137	3_4	3	4	3	3	23_3_3	0	1	1	0	0.834362030029	441.0	-222.0	440.0	-219.0	1
3.0.1	2019_Mar_04_1328	s	s	5	1	SIC	138	ABS	0	0	4	2	24_4_2	NA	NA	0	1	3.78931903839	None	None	None	None	1
3.0.1	2019_Mar_04_1328	s	s	5	1	SIC	139	3_2	3	2	2	4	23_2_4	1	2	1	0	0.533699989319	167.0	-300.0	174.0	-299.0	1
3.0.1	2019_Mar_04_1328	s	s	5	1	SIC	140	ABS	0	0	1	2	24_1_2	NA	NA	0	1	3.62214303017	None	None	None	None	1
3.0.1	2019_Mar_04_1328	s	s	5	1	SIC	141	2_4	2	4	3	3	23_3_3	1	1	1	0	0.540405988693	-252.0	280.0	-249.0	277.0	1
3.0.1	2019_Mar_04_1328	s	s	5	1	SIC	142	4_3	4	3	1	3	23_1_3	3	0	1	0	0.43744301796	57.0	-78.0	65.0	-83.0	1
3.0.1	2019_Mar_04_1328	s	s	5	1	SIC	143	4_4	4	4	3	3	23_3_3	1	1	1	0	0.437407016754	113.0	391.0	111.0	394.0	1
3.0.1	2019_Mar_04_1328	s	s	5	1	SIC	144	4_4	4	4	3	2	23_3_2	1	2	1	0	0.43741607666	164.0	-196.0	159.0	-199.0	1
3.0.1	2019_Mar_04_1328	s	s	5	1	SIC	145	4_1	4	1	1	2	23_1_2	3	1	1	0	0.650218009949	460.0	-269.0	467.0	-263.0	1
3.0.1	2019_Mar_04_1328	s	s	5	1	SIC	146	ABS	0	0	3	3	24_3_3	NA	NA	0	1	3.44996905327	None	None	None	None	1
3.0.1	2019_Mar_04_1328	s	s	5	1	SIC	147	ABS	0	0	1	4	24_1_4	NA	NA	0	1	1.17548704147	None	None	None	None	1
3.0.1	2019_Mar_04_1328	s	s	5	1	SIC	148	2_2	2	2	2	1	23_2_1	0	-1	0	1	1.2460501194	127.0	180.0	None	None	0
3.0.1	2019_Mar_04_1328	s	s	5	1	SIC	149	2_3	2	3	2	1	23_2_1	0	2	1	0	0.928500890732	403.0	56.0	407.0	55.0	1
3.0.1	2019_Mar_04_1328	s	s	5	1	SIC	150	4_4	4	4	4	3	23_4_3	0	1	1	0	0.575767993927	101.0	-28.0	99.0	-24.0	1
3.0.1	2019_Mar_04_1328	s	s	5	1	SIC	151	ABS	0	0	1	1	24_1_1	NA	NA	0	1	1.7373509407	None	None	None	None	1
3.0.1	2019_Mar_04_1328	s	s	5	1	SIC	152	ABS	0	0	4	2	24_4_2	NA	NA	0	1	4.24520015717	None	None	None	None	1
3.0.1	2019_Mar_04_1328	s	s	5	1	SIC	153	2_4	2	4	1	2	23_1_2	-1	2	1	0	0.587450027466	113.0	231.0	118.0	230.0	1
3.0.1	2019_Mar_04_1328	s	s	5	1	SIC	154	ABS	0	0	4	1	24_4_1	NA	NA	0	1	1.78154206276	None	None	None	None	1
3.0.1	2019_Mar_04_1328	s	s	5	1	SIC	155	ABS	0	0	4	1	24_4_1	NA	NA	0	1	0.940159082413	None	None	None	None	1
3.0.1	2019_Mar_04_1328	s	s	5	1	SIC	156	4_3	4	3	2	3	23_2_3	2	0	1	0	0.49666595459	440.0	-300.0	438.0	-306.0	1
3.0.1	2019_Mar_04_1328	s	s	5	1	SIC	157	1_4	1	4	1	1	23_1_1	0	3	1	0	0.516824007034	-265.0	-28.0	-261.0	-24.0	1
3.0.1	2019_Mar_04_1328	s	s	5	1	SIC	158	ABS	0	0	4	3	24_4_3	NA	NA	0	1	4.80255198479	None	None	None	None	1
3.0.1	2019_Mar_04_1328	s	s	5	1	SIC	159	1_4	1	4	3	3	23_3_3	2	1	1	0	0.70499587059	-152.0	-307.0	-148.0	-305.0	1
3.0.1	2019_Mar_04_1328	s	s	5	1	SIC	160	ABS	0	0	1	1	24_1_1	NA	NA	0	1	1.14306807518	None	None	None	None	1
3.0.1	2019_Mar_04_1328	s	s	5	1	SIC	161	ABS	0	0	3	1	24_3_1	NA	NA	0	1	1.10485816002	None	None	None	None	1
3.0.1	2019_Mar_04_1328	s	s	5	1	SIC	162	ABS	0	0	3	4	24_3_4	NA	NA	0	1	1.25084900856	None	None	None	None	1
3.0.1	2019_Mar_04_1328	s	s	5	1	SIC	163	ABS	0	0	1	1	24_1_1	NA	NA	0	1	1.15677285194	None	None	None	None	1
3.0.1	2019_Mar_04_1328	s	s	5	1	SIC	164	4_2	4	2	3	4	23_3_4	1	2	0	1	0.500961065292	263.0	-394.0	None	None	0
3.0.1	2019_Mar_04_1328	s	s	5	1	SIC	165	3_1	3	1	4	1	23_4_1	-1	0	1	0	0.674087047577	-421.0	-150.0	-418.0	-149.0	1
3.0.1	2019_Mar_04_1328	s	s	5	1	SIC	166	ABS	0	0	3	3	24_3_3	NA	NA	0	1	2.49660205841	None	None	None	None	1
3.0.1	2019_Mar_04_1328	s	s	5	1	SIC	167	ABS	0	0	3	3	24_3_3	NA	NA	0	1	2.18699097633	None	None	None	None	1
3.0.1	2019_Mar_04_1328	s	s	5	1	SIC	168	3_3	3	3	1	3	23_1_3	2	0	1	0	0.533630132675	-497.0	20.0	-500.0	20.0	1
3.0.1	2019_Mar_04_1328	s	s	5	1	SIC	169	ABS	0	0	2	1	24_2_1	NA	NA	0	1	1.78036308289	None	None	None	None	1
3.0.1	2019_Mar_04_1328	s	s	5	1	SIC	170	2_2	2	2	4	3	23_4_3	2	1	1	0	0.501930952072	-481.0	93.0	-472.0	90.0	1
3.0.1	2019_Mar_04_1328	s	s	5	1	SIC	171	4_3	4	3	1	4	23_1_4	3	-1	1	0	0.399215936661	-125.0	-141.0	-122.0	-142.0	1
3.0.1	2019_Mar_04_1328	s	s	5	1	SIC	172	2_1	2	1	1	2	23_1_2	-1	1	1	0	1.44355511665	-218.0	-323.0	-210.0	-326.0	1
3.0.1	2019_Mar_04_1328	s	s	5	1	SIC	173	2_1	2	1	4	3	23_4_3	2	2	1	0	0.545440912247	-484.0	-362.0	-486.0	-362.0	1
3.0.1	2019_Mar_04_1328	s	s	5	1	SIC	174	3_1	3	1	3	2	23_3_2	0	1	1	0	1.568379879	-512.0	-353.0	-513.0	-357.0	1
3.0.1	2019_Mar_04_1328	s	s	5	1	SIC	175	3_3	3	3	4	2	23_4_2	-1	1	1	0	0.528630971909	127.0	-350.0	128.0	-350.0	1
3.0.1	2019_Mar_04_1328	s	s	5	1	SIC	176	1_3	1	3	1	2	23_1_2	0	1	0	1	2.91611504555	73.0	88.0	None	None	0
3.0.1	2019_Mar_04_1328	s	s	5	1	SIC	177	ABS	0	0	3	3	24_3_3	NA	NA	0	1	2.9209561348	None	None	None	None	1
3.0.1	2019_Mar_04_1328	s	s	5	1	SIC	178	ABS	0	0	2	4	24_2_4	NA	NA	0	1	1.71665906906	None	None	None	None	1
3.0.1	2019_Mar_04_1328	s	s	5	1	SIC	179	ABS	0	0	3	2	24_3_2	NA	NA	0	1	2.36338806152	None	None	None	None	1
3.0.1	2019_Mar_04_1328	s	s	5	1	SIC	180	ABS	0	0	1	4	24_1_4	NA	NA	0	1	1.71653699875	None	None	None	None	1
3.0.1	2019_Mar_04_1328	s	s	5	1	SIC	181	4_2	4	2	3	3	23_3_3	1	1	1	0	0.545267820358	132.0	20.0	131.0	21.0	1
3.0.1	2019_Mar_04_1328	s	s	5	1	SIC	182	4_1	4	1	3	3	23_3_3	1	2	1	0	0.46977519989	40.0	-266.0	49.0	-262.0	1
3.0.1	2019_Mar_04_1328	s	s	5	1	SIC	183	2_1	2	1	4	4	23_4_4	2	3	1	0	0.474303007126	308.0	-16.0	308.0	-21.0	1
3.0.1	2019_Mar_04_1328	s	s	5	1	SIC	184	1_2	1	2	3	2	23_3_2	2	0	1	0	0.528620004654	221.0	298.0	220.0	294.0	1
3.0.1	2019_Mar_04_1328	s	s	5	1	SIC	185	ABS	0	0	2	1	24_2_1	NA	NA	0	1	0.852257013321	None	None	None	None	1
3.0.1	2019_Mar_04_1328	s	s	5	1	SIC	186	1_2	1	2	3	1	23_3_1	2	-1	1	0	0.56417298317	489.0	-21.0	489.0	-19.0	1
3.0.1	2019_Mar_04_1328	s	s	5	1	SIC	187	ABS	0	0	1	3	24_1_3	NA	NA	0	1	4.62458086014	None	None	None	None	1
3.0.1	2019_Mar_04_1328	s	s	5	1	SIC	188	3_3	3	3	1	1	23_1_1	2	2	1	0	0.540371179581	-344.0	-117.0	-343.0	-112.0	1
3.0.1	2019_Mar_04_1328	s	s	5	1	SIC	189	1_4	1	4	4	3	23_4_3	3	1	1	0	0.387390851974	-22.0	-44.0	-22.0	-43.0	1
3.0.1	2019_Mar_04_1328	s	s	5	1	SIC	190	ABS	0	0	3	4	24_3_4	NA	NA	0	1	1.09900212288	None	None	None	None	1
3.0.1	2019_Mar_04_1328	s	s	5	1	SIC	191	ABS	0	0	1	1	24_1_1	NA	NA	0	1	1.78068184853	None	None	None	None	1
3.0.1	2019_Mar_04_1328	s	s	5	1	SIC	192	ABS	0	0	4	2	24_4_2	NA	NA	0	1	2.20458292961	None	None	None	None	1
3.0.1	2019_Mar_04_1328	s	s	5	1	SIC	193	4_4	4	4	2	2	23_2_2	2	2	1	0	0.49329996109	-354.0	190.0	-351.0	188.0	1
3.0.1	2019_Mar_04_1328	s	s	5	1	SIC	194	1_1	1	1	4	2	23_4_2	3	1	1	0	0.427996873856	-419.0	-186.0	-427.0	-191.0	1
3.0.1	2019_Mar_04_1328	s	s	5	1	SIC	195	ABS	0	0	1	4	24_1_4	NA	NA	0	1	0.834448099136	None	None	None	None	1
3.0.1	2019_Mar_04_1328	s	s	5	1	SIC	196	3_4	3	4	4	1	23_4_1	-1	3	1	0	0.446278095245	27.0	151.0	30.0	147.0	1
3.0.1	2019_Mar_04_1328	s	s	5	1	SIC	197	2_1	2	1	3	3	23_3_3	1	2	1	0	0.532749891281	204.0	186.0	197.0	185.0	1
3.0.1	2019_Mar_04_1328	s	s	5	1	SIC	198	ABS	0	0	4	4	24_4_4	NA	NA	0	1	0.790225028992	None	None	None	None	1
3.0.1	2019_Mar_04_1328	s	s	5	1	SIC	199	ABS	0	0	3	4	24_3_4	NA	NA	0	1	1.05788397789	None	None	None	None	1
3.0.1	2019_Mar_04_1328	s	s	5	1	SIC	200	1_2	1	2	1	1	23_1_1	0	-1	1	0	1.33338499069	-232.0	269.0	-234.0	263.0	1
3.0.1	2019_Mar_04_1328	s	s	5	1	SIC	201	1_1	1	1	2	3	23_2_3	1	2	1	0	0.980283975601	144.0	155.0	138.0	155.0	1
3.0.1	2019_Mar_04_1328	s	s	5	1	SIC	202	ABS	0	0	3	4	24_3_4	NA	NA	0	1	1.26233410835	None	None	None	None	1
3.0.1	2019_Mar_04_1328	s	s	5	1	SIC	203	ABS	0	0	2	3	24_2_3	NA	NA	0	1	3.16695094109	None	None	None	None	1
3.0.1	2019_Mar_04_1328	s	s	5	1	SIC	204	ABS	0	0	4	2	24_4_2	NA	NA	0	1	3.90933203697	None	None	None	None	1
3.0.1	2019_Mar_04_1328	s	s	5	1	SIC	205	3_4	3	4	2	2	23_2_2	1	2	1	0	0.732451915741	454.0	-130.0	451.0	-131.0	1
3.0.1	2019_Mar_04_1328	s	s	5	1	SIC	206	1_1	1	1	2	4	23_2_4	1	3	1	0	0.658015966415	-74.0	-201.0	-74.0	-198.0	1
3.0.1	2019_Mar_04_1328	s	s	5	1	SIC	207	ABS	0	0	4	4	24_4_4	NA	NA	0	1	0.963788986206	None	None	None	None	1
3.0.1	2019_Mar_04_1328	s	s	5	1	SIC	208	ABS	0	0	4	1	24_4_1	NA	NA	0	1	1.65774297714	None	None	None	None	1
3.0.1	2019_Mar_04_1328	s	s	5	1	SIC	209	ABS	0	0	2	1	24_2_1	NA	NA	0	1	1.14023089409	None	None	None	None	1
3.0.1	2019_Mar_04_1328	s	s	5	1	SIC	210	ABS	0	0	2	1	24_2_1	NA	NA	0	1	1.34009194374	None	None	None	None	1
3.0.1	2019_Mar_04_1328	s	s	5	1	SIC	211	ABS	0	0	3	2	24_3_2	NA	NA	0	1	2.38284301758	None	None	None	None	1
3.0.1	2019_Mar_04_1328	s	s	5	1	SIC	212	4_3	4	3	1	1	23_1_1	3	2	1	0	0.587406158447	452.0	109.0	450.0	108.0	1
3.0.1	2019_Mar_04_1328	s	s	5	1	SIC	213	ABS	0	0	1	1	24_1_1	NA	NA	0	1	1.18766999245	None	None	None	None	1
3.0.1	2019_Mar_04_1328	s	s	5	1	SIC	214	2_4	2	4	4	1	23_4_1	2	3	1	0	0.575537919998	-500.0	-351.0	-500.0	-346.0	1
3.0.1	2019_Mar_04_1328	s	s	5	1	SIC	215	ABS	0	0	1	2	24_1_2	NA	NA	0	1	3.15603399277	None	None	None	None	1
3.0.1	2019_Mar_04_1328	s	s	5	1	SIC	216	1_1	1	1	3	4	23_3_4	2	3	1	0	0.677583932877	74.0	-307.0	78.0	-303.0	1
3.0.1	2019_Mar_04_1328	s	s	5	1	SIC	217	ABS	0	0	4	1	24_4_1	NA	NA	0	1	1.31948304176	None	None	None	None	1
3.0.1	2019_Mar_04_1328	s	s	5	1	SIC	218	ABS	0	0	4	4	24_4_4	NA	NA	0	1	0.987273216248	None	None	None	None	1
3.0.1	2019_Mar_04_1328	s	s	5	1	SIC	219	ABS	0	0	3	1	24_3_1	NA	NA	0	1	1.21069192886	None	None	None	None	1
3.0.1	2019_Mar_04_1328	s	s	5	1	SIC	220	ABS	0	0	4	3	24_4_3	NA	NA	0	1	3.94467806816	None	None	None	None	1
3.0.1	2019_Mar_04_1328	s	s	5	1	SIC	221	1_1	1	1	2	2	23_2_2	1	1	1	0	2.29277992249	-481.0	-320.0	-477.0	-324.0	1
3.0.1	2019_Mar_04_1328	s	s	5	1	SIC	222	ABS	0	0	4	1	24_4_1	NA	NA	0	1	0.999001026154	None	None	None	None	1
3.0.1	2019_Mar_04_1328	s	s	5	1	SIC	223	4_2	4	2	1	2	23_1_2	3	0	1	0	0.510642051697	-305.0	62.0	-305.0	70.0	1
3.0.1	2019_Mar_04_1328	s	s	5	1	SIC	224	ABS	0	0	4	1	24_4_1	NA	NA	0	1	1.11658501625	None	None	None	None	1
3.0.1	2019_Mar_04_1328	s	s	5	1	SIC	225	1_2	1	2	1	3	23_1_3	0	1	0	1	2.48100996017	-426.0	368.0	None	None	0
3.0.1	2019_Mar_04_1328	s	s	5	1	SIC	226	4_2	4	2	2	4	23_2_4	2	2	1	0	0.528604030609	-411.0	-57.0	-406.0	-61.0	1
3.0.1	2019_Mar_04_1328	s	s	5	1	SIC	227	4_1	4	1	2	4	23_2_4	2	3	1	0	0.415736913681	459.0	-100.0	467.0	-103.0	1
3.0.1	2019_Mar_04_1328	s	s	5	1	SIC	228	ABS	0	0	3	2	24_3_2	NA	NA	0	1	2.82200908661	None	None	None	None	1
3.0.1	2019_Mar_04_1328	s	s	5	1	SIC	229	ABS	0	0	4	4	24_4_4	NA	NA	0	1	1.29304289818	None	None	None	None	1
3.0.1	2019_Mar_04_1328	s	s	5	1	SIC	230	2_4	2	4	3	4	23_3_4	1	0	1	0	1.52209615707	450.0	322.0	463.0	330.0	1
3.0.1	2019_Mar_04_1328	s	s	5	1	SIC	231	ABS	0	0	3	4	24_3_4	NA	NA	0	1	1.15754199028	None	None	None	None	1
3.0.1	2019_Mar_04_1328	s	s	5	1	SIC	232	ABS	0	0	3	2	24_3_2	NA	NA	0	1	1.03981590271	None	None	None	None	1
3.0.1	2019_Mar_04_1328	s	s	5	1	SIC	233	4_3	4	3	3	4	23_3_4	1	-1	1	0	0.481694936752	217.0	-274.0	218.0	-277.0	1
3.0.1	2019_Mar_04_1328	s	s	5	1	SIC	234	ABS	0	0	3	4	24_3_4	NA	NA	0	1	0.77571606636	None	None	None	None	1
3.0.1	2019_Mar_04_1328	s	s	5	1	SIC	235	1_2	1	2	4	4	23_4_4	3	2	1	0	0.54035115242	-387.0	-160.0	-381.0	-165.0	1
3.0.1	2019_Mar_04_1328	s	s	5	1	SIC	236	ABS	0	0	2	4	24_2_4	NA	NA	0	1	1.56362509727	None	None	None	None	1
3.0.1	2019_Mar_04_1328	s	s	5	1	SIC	237	ABS	0	0	1	4	24_1_4	NA	NA	0	1	1.084223032	None	None	None	None	1
3.0.1	2019_Mar_04_1328	s	s	5	1	SIC	238	ABS	0	0	2	4	24_2_4	NA	NA	0	1	1.17544913292	None	None	None	None	1
3.0.1	2019_Mar_04_1328	s	s	5	1	SIC	239	1_3	1	3	3	3	23_3_3	2	0	1	0	0.48154592514	-257.0	-157.0	-260.0	-160.0	1
3.0.1	2019_Mar_04_1328	s	s	5	1	SIC	240	ABS	0	0	3	3	24_3_3	NA	NA	0	1	1.05779290199	None	None	None	None	1
3.0.1	2019_Mar_04_1328	s	s	5	1	SIC	241	ABS	0	0	2	4	24_2_4	NA	NA	0	1	1.44593405724	None	None	None	None	1
3.0.1	2019_Mar_04_1328	s	s	5	1	SIC	242	ABS	0	0	3	3	24_3_3	NA	NA	0	1	1.20426487923	None	None	None	None	1
3.0.1	2019_Mar_04_1328	s	s	5	1	SIC	243	ABS	0	0	2	4	24_2_4	NA	NA	0	1	1.55183696747	None	None	None	None	1
3.0.1	2019_Mar_04_1328	s	s	5	1	SIC	244	ABS	0	0	3	4	24_3_4	NA	NA	0	1	1.05784106255	None	None	None	None	1
3.0.1	2019_Mar_04_1328	s	s	5	1	SIC	245	ABS	0	0	2	3	24_2_3	NA	NA	0	1	4.35094809532	None	None	None	None	1
3.0.1	2019_Mar_04_1328	s	s	5	1	SIC	246	1_3	1	3	2	3	23_2_3	1	0	0	1	2.96811199188	161.0	253.0	None	None	0
3.0.1	2019_Mar_04_1328	s	s	5	1	SIC	247	2_1	2	1	1	4	23_1_4	-1	3	1	0	0.522463083267	206.0	-181.0	208.0	-182.0	1
3.0.1	2019_Mar_04_1328	s	s	5	1	SIC	248	ABS	0	0	2	2	24_2_2	NA	NA	0	1	3.23357391357	None	None	None	None	1
3.0.1	2019_Mar_04_1328	s	s	5	1	SIC	249	ABS	0	0	1	3	24_1_3	NA	NA	0	1	3.2880461216	None	None	None	None	1
3.0.1	2019_Mar_04_1328	s	s	5	1	SIC	250	ABS	0	0	4	3	24_4_3	NA	NA	0	1	3.21008992195	None	None	None	None	1
3.0.1	2019_Mar_04_1328	s	s	5	1	SIC	251	4_1	4	1	4	4	23_4_4	0	3	1	0	0.604059934616	-53.0	-247.0	-48.0	-252.0	1
3.0.1	2019_Mar_04_1328	s	s	5	1	SIC	252	ABS	0	0	1	2	24_1_2	NA	NA	0	1	3.26008796692	None	None	None	None	1
3.0.1	2019_Mar_04_1328	s	s	5	1	SIC	253	ABS	0	0	3	4	24_3_4	NA	NA	0	1	1.31078195572	None	None	None	None	1
3.0.1	2019_Mar_04_1328	s	s	5	1	SIC	254	ABS	0	0	1	2	24_1_2	NA	NA	0	1	2.17981886864	None	None	None	None	1
3.0.1	2019_Mar_04_1328	s	s	5	1	SIC	255	ABS	0	0	1	1	24_1_1	NA	NA	0	1	1.82239198685	None	None	None	None	1
3.0.1	2019_Mar_04_1328	s	s	5	1	SIC	256	ABS	0	0	2	2	24_2_2	NA	NA	0	1	3.57481098175	None	None	None	None	1
3.0.1	2019_Mar_04_1328	s	s	5	1	SIC	257	4_1	4	1	3	4	23_3_4	1	3	1	0	0.555051088333	-318.0	374.0	-319.0	374.0	1
3.0.1	2019_Mar_04_1328	s	s	5	1	SIC	258	ABS	0	0	3	4	24_3_4	NA	NA	0	1	1.28127598763	None	None	None	None	1
3.0.1	2019_Mar_04_1328	s	s	5	1	SIC	259	ABS	0	0	4	1	24_4_1	NA	NA	0	1	1.3700709343	None	None	None	None	1
3.0.1	2019_Mar_04_1328	s	s	5	1	SIC	260	1_3	1	3	1	4	23_1_4	0	-1	1	0	1.23426103592	446.0	-279.0	447.0	-271.0	1
3.0.1	2019_Mar_04_1328	s	s	5	1	SIC	261	ABS	0	0	3	3	24_3_3	NA	NA	0	1	4.1926419735	None	None	None	None	1
3.0.1	2019_Mar_04_1328	s	s	5	1	SIC	262	ABS	0	0	1	3	24_1_3	NA	NA	0	1	5.15070700645	None	None	None	None	1
3.0.1	2019_Mar_04_1328	s	s	5	1	SIC	263	3_2	3	2	2	3	23_2_3	1	1	1	0	0.768612146378	43.0	-227.0	43.0	-228.0	1
3.0.1	2019_Mar_04_1328	s	s	5	1	SIC	264	2_1	2	1	2	3	23_2_3	0	2	1	0	2.36342287064	-530.0	141.0	-531.0	138.0	1
3.0.1	2019_Mar_04_1328	s	s	5	1	SIC	265	4_4	4	4	2	3	23_2_3	2	1	1	0	0.503171920776	-404.0	-353.0	-399.0	-352.0	1
3.0.1	2019_Mar_04_1328	s	s	5	1	SIC	266	4_2	4	2	4	1	23_4_1	0	-1	0	1	1.07606101036	447.0	-378.0	None	None	0
3.0.1	2019_Mar_04_1328	s	s	5	1	SIC	267	ABS	0	0	4	4	24_4_4	NA	NA	0	1	1.29307603836	None	None	None	None	1
3.0.1	2019_Mar_04_1328	s	s	5	1	SIC	268	2_4	2	4	4	4	23_4_4	2	0	1	0	0.546393156052	-447.0	405.0	-444.0	407.0	1
3.0.1	2019_Mar_04_1328	s	s	5	1	SIC	269	ABS	0	0	4	2	24_4_2	NA	NA	0	1	2.23786115646	None	None	None	None	1
3.0.1	2019_Mar_04_1328	s	s	5	1	SIC	270	3_3	3	3	1	4	23_1_4	2	-1	1	0	0.505130052567	-285.0	275.0	-290.0	276.0	1
3.0.1	2019_Mar_04_1328	s	s	5	1	SIC	271	2_1	2	1	1	3	23_1_3	-1	2	1	0	1.92816710472	403.0	-317.0	404.0	-308.0	1
3.0.1	2019_Mar_04_1328	s	s	5	1	SIC	272	2_3	2	3	1	4	23_1_4	-1	-1	1	0	0.575651884079	-259.0	-130.0	-256.0	-129.0	1
3.0.1	2019_Mar_04_1328	s	s	5	1	SIC	273	3_2	3	2	3	1	23_3_1	0	-1	0	1	0.799018144608	-379.0	11.0	None	None	0
3.0.1	2019_Mar_04_1328	s	s	5	1	SIC	274	ABS	0	0	3	2	24_3_2	NA	NA	0	1	2.73083305359	None	None	None	None	1
3.0.1	2019_Mar_04_1328	s	s	5	1	SIC	275	ABS	0	0	2	2	24_2_2	NA	NA	0	1	3.17494511604	None	None	None	None	1
3.0.1	2019_Mar_04_1328	s	s	5	1	SIC	276	ABS	0	0	2	1	24_2_1	NA	NA	0	1	2.90728402138	None	None	None	None	1
3.0.1	2019_Mar_04_1328	s	s	5	1	SIC	277	1_4	1	4	1	2	23_1_2	0	2	1	0	0.528563976288	-198.0	105.0	-204.0	103.0	1
3.0.1	2019_Mar_04_1328	s	s	5	1	SIC	278	ABS	0	0	1	3	24_1_3	NA	NA	0	1	2.96702504158	None	None	None	None	1
3.0.1	2019_Mar_04_1328	s	s	5	1	SIC	279	ABS	0	0	4	1	24_4_1	NA	NA	0	1	1.36876392365	None	None	None	None	1
3.0.1	2019_Mar_04_1328	s	s	5	1	SIC	280	ABS	0	0	3	2	24_3_2	NA	NA	0	1	1.9450571537	None	None	None	None	1
3.0.1	2019_Mar_04_1328	s	s	5	1	SIC	281	4_2	4	2	4	4	23_4_4	0	2	1	0	1.45772790909	509.0	19.0	513.0	19.0	1
3.0.1	2019_Mar_04_1328	s	s	5	1	SIC	282	3_1	3	1	3	4	23_3_4	0	3	1	0	0.563839912415	-450.0	330.0	-454.0	320.0	1
3.0.1	2019_Mar_04_1328	s	s	5	1	SIC	283	ABS	0	0	2	4	24_2_4	NA	NA	0	1	1.88120603561	None	None	None	None	1
3.0.1	2019_Mar_04_1328	s	s	5	1	SIC	284	3_2	3	2	4	3	23_4_3	-1	1	1	0	0.458019971848	-413.0	-93.0	-411.0	-101.0	1
3.0.1	2019_Mar_04_1328	s	s	5	1	SIC	285	ABS	0	0	3	2	24_3_2	NA	NA	0	1	2.64547395706	None	None	None	None	1
3.0.1	2019_Mar_04_1328	s	s	5	1	SIC	286	ABS	0	0	2	2	24_2_2	NA	NA	0	1	2.5341360569	None	None	None	None	1
3.0.1	2019_Mar_04_1328	s	s	5	1	SIC	287	3_2	3	2	1	2	23_1_2	2	0	1	0	0.62269115448	-175.0	90.0	-168.0	85.0	1
3.0.1	2019_Mar_04_1328	s	s	5	1	SIC	288	ABS	0	0	3	2	24_3_2	NA	NA	0	1	2.02519488335	None	None	None	None	1
3.0.1	2019_Mar_04_1328	s	s	5	1	SIC	289	ABS	0	0	1	3	24_1_3	NA	NA	0	1	3.11645007133	None	None	None	None	1
3.0.1	2019_Mar_04_1328	s	s	5	1	SIC	290	ABS	0	0	2	3	24_2_3	NA	NA	0	1	2.92827701569	None	None	None	None	1
3.0.1	2019_Mar_04_1328	s	s	5	1	SIC	291	4_3	4	3	4	4	23_4_4	0	-1	1	0	1.21077895164	103.0	9.0	108.0	7.0	1
3.0.1	2019_Mar_04_1328	s	s	5	1	SIC	292	1_1	1	1	2	1	23_2_1	1	0	0	1	1.23955988884	-355.0	17.0	None	None	0
3.0.1	2019_Mar_04_1328	s	s	5	1	SIC	293	2_2	2	2	4	4	23_4_4	2	2	1	0	0.517021179199	430.0	203.0	428.0	202.0	1
3.0.1	2019_Mar_04_1328	s	s	5	1	SIC	294	ABS	0	0	2	3	24_2_3	NA	NA	0	1	5.54451489449	None	None	None	None	1
3.0.1	2019_Mar_04_1328	s	s	5	1	SIC	295	1_2	1	2	2	3	23_2_3	1	1	1	0	1.15198802948	226.0	278.0	234.0	279.0	1
3.0.1	2019_Mar_04_1328	s	s	5	1	SIC	296	ABS	0	0	3	2	24_3_2	NA	NA	0	1	3.19553112984	None	None	None	None	1
3.0.1	2019_Mar_04_1328	s	s	5	1	SIC	297	ABS	0	0	2	4	24_2_4	NA	NA	0	1	1.51656103134	None	None	None	None	1
3.0.1	2019_Mar_04_1328	s	s	5	1	SIC	298	2_2	2	2	3	3	23_3_3	1	1	1	0	0.790224790573	-34.0	165.0	-33.0	164.0	1
3.0.1	2019_Mar_04_1328	s	s	5	1	SIC	299	1_3	1	3	2	4	23_2_4	1	-1	1	0	1.07251286507	-471.0	171.0	-479.0	181.0	1
3.0.1	2019_Mar_04_1328	s	s	5	1	SIC	300	2_1	2	1	4	2	23_4_2	2	1	1	0	0.575632810593	99.0	191.0	101.0	194.0	1
3.0.1	2019_Mar_04_1328	s	s	5	1	SIC	301	ABS	0	0	1	4	24_1_4	NA	NA	0	1	1.68689703941	None	None	None	None	1
3.0.1	2019_Mar_04_1328	s	s	5	1	SIC	302	3_1	3	1	4	3	23_4_3	-1	2	1	0	0.49719285965	397.0	284.0	404.0	283.0	1
3.0.1	2019_Mar_04_1328	s	s	5	1	SIC	303	2_1	2	1	2	2	23_2_2	0	1	1	0	1.08425593376	-49.0	274.0	-41.0	272.0	1
3.0.1	2019_Mar_04_1328	s	s	5	1	SIC	304	4_3	4	3	2	1	23_2_1	2	2	1	0	0.378637075424	-54.0	315.0	-55.0	319.0	1
3.0.1	2019_Mar_04_1328	s	s	5	1	SIC	305	2_3	2	3	1	1	23_1_1	-1	2	1	0	0.987318992615	-383.0	-62.0	-383.0	-62.0	1
3.0.1	2019_Mar_04_1328	s	s	5	1	SIC	306	1_1	1	1	3	2	23_3_2	2	1	1	0	0.554974079132	201.0	-250.0	211.0	-252.0	1
3.0.1	2019_Mar_04_1328	s	s	5	1	SIC	307	ABS	0	0	4	4	24_4_4	NA	NA	0	1	1.17545795441	None	None	None	None	1
3.0.1	2019_Mar_04_1328	s	s	5	1	SIC	308	ABS	0	0	3	1	24_3_1	NA	NA	0	1	0.810822963715	None	None	None	None	1
3.0.1	2019_Mar_04_1328	s	s	5	1	SIC	309	3_4	3	4	4	3	23_4_3	-1	1	1	0	0.458000898361	110.0	99.0	112.0	95.0	1
3.0.1	2019_Mar_04_1328	s	s	5	1	SIC	310	ABS	0	0	3	4	24_3_4	NA	NA	0	1	0.998960018158	None	None	None	None	1
3.0.1	2019_Mar_04_1328	s	s	5	1	SIC	311	ABS	0	0	3	1	24_3_1	NA	NA	0	1	0.731538057327	None	None	None	None	1
3.0.1	2019_Mar_04_1328	s	s	5	1	SIC	312	1_1	1	1	4	4	23_4_4	3	3	1	0	0.437323093414	110.0	178.0	105.0	184.0	1
3.0.1	2019_Mar_04_1328	s	s	5	1	SIC	313	4_3	4	3	1	2	23_1_2	3	1	1	0	0.54031085968	237.0	-365.0	237.0	-375.0	1
3.0.1	2019_Mar_04_1328	s	s	5	1	SIC	314	ABS	0	0	1	2	24_1_2	NA	NA	0	1	0.916724920273	None	None	None	None	1
3.0.1	2019_Mar_04_1328	s	s	5	1	SIC	315	ABS	0	0	4	2	24_4_2	NA	NA	0	1	1.44242811203	None	None	None	None	1
3.0.1	2019_Mar_04_1328	s	s	5	1	SIC	316	3_1	3	1	3	3	23_3_3	0	2	1	0	1.13344883919	493.0	-191.0	487.0	-188.0	1
3.0.1	2019_Mar_04_1328	s	s	5	1	SIC	317	3_4	3	4	1	1	23_1_1	2	3	1	0	0.540387868881	374.0	123.0	380.0	121.0	1
3.0.1	2019_Mar_04_1328	s	s	5	1	SIC	318	2_4	2	4	3	1	23_3_1	1	3	1	0	0.522315979004	319.0	-131.0	316.0	-132.0	1
3.0.1	2019_Mar_04_1328	s	s	5	1	SIC	319	ABS	0	0	1	3	24_1_3	NA	NA	0	1	4.77439403534	None	None	None	None	1
3.0.1	2019_Mar_04_1328	s	s	5	1	SIC	320	3_2	3	2	2	2	23_2_2	1	0	1	0	0.496271848679	142.0	-45.0	138.0	-45.0	1
3.0.1	2019_Mar_04_1328	s	s	5	1	SIC	321	ABS	0	0	4	4	24_4_4	NA	NA	0	1	1.57534193993	None	None	None	None	1
3.0.1	2019_Mar_04_1328	s	s	5	1	SIC	322	ABS	0	0	3	2	24_3_2	NA	NA	0	1	3.47400212288	None	None	None	None	1
3.0.1	2019_Mar_04_1328	s	s	5	1	SIC	323	ABS	0	0	4	4	24_4_4	NA	NA	0	1	1.563601017	None	None	None	None	1
3.0.1	2019_Mar_04_1328	s	s	5	1	SIC	324	ABS	0	0	2	3	24_2_3	NA	NA	0	1	4.86849093437	None	None	None	None	1
3.0.1	2019_Mar_04_1328	s	s	5	1	SIC	325	ABS	0	0	2	2	24_2_2	NA	NA	0	1	3.09277701378	None	None	None	None	1
3.0.1	2019_Mar_04_1328	s	s	5	1	SIC	326	3_3	3	3	3	1	23_3_1	0	2	1	0	0.99907708168	383.0	45.0	376.0	41.0	1
3.0.1	2019_Mar_04_1328	s	s	5	1	SIC	327	ABS	0	0	4	4	24_4_4	NA	NA	0	1	1.56350708008	None	None	None	None	1
3.0.1	2019_Mar_04_1328	s	s	5	1	SIC	328	4_4	4	4	1	2	23_1_2	3	2	1	0	0.469794034958	518.0	187.0	521.0	187.0	1
3.0.1	2019_Mar_04_1328	s	s	5	1	SIC	329	ABS	0	0	2	3	24_2_3	NA	NA	0	1	2.96703505516	None	None	None	None	1
3.0.1	2019_Mar_04_1328	s	s	5	1	SIC	330	3_1	3	1	1	3	23_1_3	2	2	1	0	0.516816854477	335.0	75.0	326.0	74.0	1
3.0.1	2019_Mar_04_1328	s	s	5	1	SIC	331	ABS	0	0	3	2	24_3_2	NA	NA	0	1	3.0572450161	None	None	None	None	1
3.0.1	2019_Mar_04_1328	s	s	5	1	SIC	332	ABS	0	0	3	1	24_3_1	NA	NA	0	1	1.49707889557	None	None	None	None	1
3.0.1	2019_Mar_04_1328	s	s	5	1	SIC	333	ABS	0	0	4	2	24_4_2	NA	NA	0	1	2.77503800392	None	None	None	None	1
3.0.1	2019_Mar_04_1328	s	s	5	1	SIC	334	ABS	0	0	1	4	24_1_4	NA	NA	0	1	1.1989710331	None	None	None	None	1
3.0.1	2019_Mar_04_1328	s	s	5	1	SIC	335	1_2	1	2	3	3	23_3_3	2	1	1	0	0.568893909454	-96.0	338.0	-93.0	324.0	1
3.0.1	2019_Mar_04_1328	s	s	5	1	SIC	336	2_3	2	3	4	4	23_4_4	2	-1	1	0	0.458024978638	464.0	227.0	459.0	222.0	1
3.0.1	2019_Mar_04_1328	s	s	5	1	SIC	337	ABS	0	0	1	3	24_1_3	NA	NA	0	1	1.52823281288	None	None	None	None	1
3.0.1	2019_Mar_04_1328	s	s	5	1	SIC	338	3_2	3	2	4	1	23_4_1	-1	-1	1	0	0.410952091217	-342.0	-149.0	-340.0	-155.0	1
3.0.1	2019_Mar_04_1328	s	s	5	1	SIC	339	3_4	3	4	2	3	23_2_3	1	1	1	0	0.916794061661	340.0	-277.0	340.0	-283.0	1
3.0.1	2019_Mar_04_1328	s	s	5	1	SIC	340	2_3	2	3	2	2	23_2_2	0	1	1	0	1.76346802711	-231.0	-175.0	-224.0	-171.0	1
3.0.1	2019_Mar_04_1328	s	s	5	1	SIC	341	ABS	0	0	4	1	24_4_1	NA	NA	0	1	1.06965088844	None	None	None	None	1
3.0.1	2019_Mar_04_1328	s	s	5	1	SIC	342	ABS	0	0	4	1	24_4_1	NA	NA	0	1	0.849071025848	None	None	None	None	1
3.0.1	2019_Mar_04_1328	s	s	5	1	SIC	343	ABS	0	0	2	2	24_2_2	NA	NA	0	1	2.62698292732	None	None	None	None	1
3.0.1	2019_Mar_04_1328	s	s	5	1	SIC	344	2_3	2	3	1	2	23_1_2	-1	1	0	1	0.752007007599	409.0	-399.0	None	None	0
3.0.1	2019_Mar_04_1328	s	s	5	1	SIC	345	1_1	1	1	1	4	23_1_4	0	3	1	0	0.933267116547	-322.0	-380.0	-325.0	-371.0	1
3.0.1	2019_Mar_04_1328	s	s	5	1	SIC	346	ABS	0	0	2	3	24_2_3	NA	NA	0	1	3.00325512886	None	None	None	None	1
3.0.1	2019_Mar_04_1328	s	s	5	1	SIC	347	ABS	0	0	1	4	24_1_4	NA	NA	0	1	0.869699001312	None	None	None	None	1
3.0.1	2019_Mar_04_1328	s	s	5	1	SIC	348	3_4	3	4	3	2	23_3_2	0	2	1	0	0.698397874832	-177.0	401.0	-173.0	398.0	1
3.0.1	2019_Mar_04_1328	s	s	5	1	SIC	349	ABS	0	0	3	1	24_3_1	NA	NA	0	1	1.0578250885	None	None	None	None	1
3.0.1	2019_Mar_04_1328	s	s	5	1	SIC	350	ABS	0	0	1	2	24_1_2	NA	NA	0	1	2.82701611519	None	None	None	None	1
3.0.1	2019_Mar_04_1328	s	s	5	1	SIC	351	4_3	4	3	3	1	23_3_1	1	2	1	0	0.474053144455	-302.0	180.0	-295.0	175.0	1
3.0.1	2019_Mar_04_1328	s	s	5	1	SIC	352	1_1	1	1	3	1	23_3_1	2	0	1	0	0.56934595108	-403.0	54.0	-398.0	49.0	1
3.0.1	2019_Mar_04_1328	s	s	5	1	SIC	353	ABS	0	0	4	2	24_4_2	NA	NA	0	1	2.7317969799	None	None	None	None	1
3.0.1	2019_Mar_04_1328	s	s	5	1	SIC	354	ABS	0	0	3	3	24_3_3	NA	NA	0	1	4.35598111153	None	None	None	None	1
3.0.1	2019_Mar_04_1328	s	s	5	1	SIC	355	ABS	0	0	1	3	24_1_3	NA	NA	0	1	3.11609387398	None	None	None	None	1
3.0.1	2019_Mar_04_1328	s	s	5	1	SIC	356	3_1	3	1	2	2	23_2_2	1	1	1	0	2.27466893196	310.0	379.0	314.0	382.0	1
3.0.1	2019_Mar_04_1328	s	s	5	1	SIC	357	4_2	4	2	4	3	23_4_3	0	1	1	0	4.2568089962	245.0	-21.0	249.0	-24.0	1
3.0.1	2019_Mar_04_1328	s	s	5	1	SIC	358	1_2	1	2	4	1	23_4_1	3	-1	1	0	0.622688055038	-245.0	-169.0	-244.0	-170.0	1
3.0.1	2019_Mar_04_1328	s	s	5	1	SIC	359	ABS	0	0	3	3	24_3_3	NA	NA	0	1	3.22194695473	None	None	None	None	1
3.0.1	2019_Mar_04_1328	s	s	5	1	SIC	360	ABS	0	0	1	3	24_1_3	NA	NA	0	1	3.28576207161	None	None	None	None	1
3.0.1	2019_Mar_04_1328	s	s	5	1	SIC	361	ABS	0	0	2	3	24_2_3	NA	NA	0	1	3.60418701172	None	None	None	None	1
3.0.1	2019_Mar_04_1328	s	s	5	1	SIC	362	3_1	3	1	2	1	23_2_1	1	0	1	0	0.74476480484	-411.0	-140.0	-413.0	-146.0	1
3.0.1	2019_Mar_04_1328	s	s	5	1	SIC	363	ABS	0	0	1	1	24_1_1	NA	NA	0	1	1.69292497635	None	None	None	None	1
3.0.1	2019_Mar_04_1328	s	s	5	1	SIC	364	1_2	1	2	4	3	23_4_3	3	1	1	0	0.516807079315	170.0	-78.0	175.0	-78.0	1
3.0.1	2019_Mar_04_1328	s	s	5	1	SIC	365	ABS	0	0	3	1	24_3_1	NA	NA	0	1	1.26999306679	None	None	None	None	1
3.0.1	2019_Mar_04_1328	s	s	5	1	SIC	366	ABS	0	0	1	2	24_1_2	NA	NA	0	1	2.32550191879	None	None	None	None	1
3.0.1	2019_Mar_04_1328	s	s	5	1	SIC	367	ABS	0	0	2	1	24_2_1	NA	NA	0	1	0.851798057556	None	None	None	None	1
3.0.1	2019_Mar_04_1328	s	s	5	1	SIC	368	ABS	0	0	2	1	24_2_1	NA	NA	0	1	0.907857894897	None	None	None	None	1
3.0.1	2019_Mar_04_1328	s	s	5	1	SIC	369	ABS	0	0	2	4	24_2_4	NA	NA	0	1	1.12849211693	None	None	None	None	1
3.0.1	2019_Mar_04_1328	s	s	5	1	SIC	370	ABS	0	0	2	2	24_2_2	NA	NA	0	1	1.69629192352	None	None	None	None	1
3.0.1	2019_Mar_04_1328	s	s	5	1	SIC	371	ABS	0	0	4	1	24_4_1	NA	NA	0	1	0.971819162369	None	None	None	None	1
3.0.1	2019_Mar_04_1328	s	s	5	1	SIC	372	3_1	3	1	2	4	23_2_4	1	3	1	0	0.579421043396	156.0	364.0	159.0	366.0	1
3.0.1	2019_Mar_04_1328	s	s	5	1	SIC	373	ABS	0	0	3	2	24_3_2	NA	NA	0	1	2.44561886787	None	None	None	None	1
3.0.1	2019_Mar_04_1328	s	s	5	1	SIC	374	ABS	0	0	1	1	24_1_1	NA	NA	0	1	1.85760688782	None	None	None	None	1
3.0.1	2019_Mar_04_1328	s	s	5	1	SIC	375	3_1	3	1	1	4	23_1_4	2	3	1	0	0.561446905136	-499.0	-210.0	-503.0	-211.0	1
3.0.1	2019_Mar_04_1328	s	s	5	1	SIC	376	3_3	3	3	4	4	23_4_4	-1	-1	1	0	0.528570175171	-332.0	-399.0	-332.0	-400.0	1
3.0.1	2019_Mar_04_1328	s	s	5	1	SIC	377	3_3	3	3	1	2	23_1_2	2	1	1	0	0.533080816269	-104.0	81.0	-103.0	79.0	1
3.0.1	2019_Mar_04_1328	s	s	5	1	SIC	378	2_2	2	2	4	1	23_4_1	2	-1	1	0	0.399165868759	358.0	160.0	354.0	152.0	1
3.0.1	2019_Mar_04_1328	s	s	5	1	SIC	379	4_3	4	3	3	2	23_3_2	1	1	1	0	0.428463220596	121.0	252.0	126.0	252.0	1
3.0.1	2019_Mar_04_1328	s	s	5	1	SIC	380	ABS	0	0	3	3	24_3_3	NA	NA	0	1	3.53247094154	None	None	None	None	1
3.0.1	2019_Mar_04_1328	s	s	5	1	SIC	381	2_1	2	1	2	4	23_2_4	0	3	1	0	0.716789007187	516.0	-257.0	518.0	-260.0	1
3.0.1	2019_Mar_04_1328	s	s	5	1	SIC	382	ABS	0	0	4	3	24_4_3	NA	NA	0	1	3.25001883507	None	None	None	None	1
3.0.1	2019_Mar_04_1328	s	s	5	1	SIC	383	1_4	1	4	3	1	23_3_1	2	3	1	0	0.516855955124	-488.0	150.0	-500.0	154.0	1
3.0.1	2019_Mar_04_1328	s	s	5	1	SIC	384	4_2	4	2	2	1	23_2_1	2	-1	1	0	0.469787120819	-231.0	303.0	-228.0	311.0	1
3.0.1	2019_Mar_04_1328	s	s	5	1	SIC	385	ABS	0	0	2	4	24_2_4	NA	NA	0	1	1.65100693703	None	None	None	None	1
3.0.1	2019_Mar_04_1328	s	s	5	1	SIC	386	3_4	3	4	2	4	23_2_4	1	0	1	0	1.30991220474	-260.0	-266.0	-265.0	-258.0	1
3.0.1	2019_Mar_04_1328	s	s	5	1	SIC	387	4_2	4	2	3	1	23_3_1	1	-1	1	0	0.452134847641	40.0	120.0	43.0	118.0	1
3.0.1	2019_Mar_04_1328	s	s	5	1	SIC	388	4_4	4	4	4	1	23_4_1	0	3	1	0	0.469697952271	-369.0	-194.0	-362.0	-192.0	1
3.0.1	2019_Mar_04_1328	s	s	5	1	SIC	389	ABS	0	0	1	1	24_1_1	NA	NA	0	1	1.19208788872	None	None	None	None	1
3.0.1	2019_Mar_04_1328	s	s	5	1	SIC	390	ABS	0	0	4	2	24_4_2	NA	NA	0	1	3.05719399452	None	None	None	None	1
3.0.1	2019_Mar_04_1328	s	s	5	1	SIC	391	1_3	1	3	2	1	23_2_1	1	2	0	1	1.22297501564	366.0	306.0	None	None	0
3.0.1	2019_Mar_04_1328	s	s	5	1	SIC	392	ABS	0	0	2	1	24_2_1	NA	NA	0	1	1.48415708542	None	None	None	None	1
3.0.1	2019_Mar_04_1328	s	s	5	1	SIC	393	3_3	3	3	3	4	23_3_4	0	-1	1	0	0.790225982666	431.0	-157.0	429.0	-158.0	1
3.0.1	2019_Mar_04_1328	s	s	5	1	SIC	394	ABS	0	0	1	2	24_1_2	NA	NA	0	1	2.96596598625	None	None	None	None	1
3.0.1	2019_Mar_04_1328	s	s	5	1	SIC	395	ABS	0	0	4	4	24_4_4	NA	NA	0	1	1.5988650322	None	None	None	None	1
3.0.1	2019_Mar_04_1328	s	s	5	1	SIC	396	3_3	3	3	4	1	23_4_1	-1	2	1	0	0.528609037399	139.0	-193.0	136.0	-193.0	1
3.0.1	2019_Mar_04_1328	s	s	5	1	SIC	397	ABS	0	0	3	2	24_3_2	NA	NA	0	1	5.56240081787	None	None	None	None	1
3.0.1	2019_Mar_04_1328	s	s	5	1	SIC	398	ABS	0	0	4	3	24_4_3	NA	NA	0	1	4.27427101135	None	None	None	None	1
3.0.1	2019_Mar_04_1328	s	s	5	1	SIC	399	2_4	2	4	1	4	23_1_4	-1	0	0	1	1.51996207237	-165.0	334.0	None	None	0
3.0.1	2019_Mar_04_1328	s	s	5	1	SIC	400	ABS	0	0	2	4	24_2_4	NA	NA	0	1	2.14851307869	None	None	None	None	1
3.0.1	2019_Mar_04_1328	s	s	5	1	SIC	401	4_2	4	2	2	2	23_2_2	2	0	1	0	0.516803026199	363.0	-250.0	357.0	-242.0	1
3.0.1	2019_Mar_04_1328	s	s	5	1	SIC	402	ABS	0	0	1	2	24_1_2	NA	NA	0	1	1.18724298477	None	None	None	None	1
3.0.1	2019_Mar_04_1328	s	s	5	1	SIC	403	ABS	0	0	4	3	24_4_3	NA	NA	0	1	2.15803813934	None	None	None	None	1
3.0.1	2019_Mar_04_1328	s	s	5	1	SIC	404	2_2	2	2	3	4	23_3_4	1	2	1	0	0.528687953949	-404.0	-108.0	-404.0	-108.0	1
3.0.1	2019_Mar_04_1328	s	s	5	1	SIC	405	1_3	1	3	3	4	23_3_4	2	-1	1	0	0.540372133255	-196.0	298.0	-200.0	295.0	1
3.0.1	2019_Mar_04_1328	s	s	5	1	SIC	406	1_1	1	1	1	2	23_1_2	0	1	0	1	1.22617697716	183.0	288.0	None	None	0
3.0.1	2019_Mar_04_1328	s	s	5	1	SIC	407	2_4	2	4	2	1	23_2_1	0	3	1	0	0.805738925934	-204.0	-264.0	-200.0	-259.0	1
3.0.1	2019_Mar_04_1328	s	s	5	1	SIC	408	1_4	1	4	3	4	23_3_4	2	0	1	0	0.75203204155	26.0	-354.0	31.0	-348.0	1
3.0.1	2019_Mar_04_1328	s	s	5	1	SIC	409	ABS	0	0	2	1	24_2_1	NA	NA	0	1	1.66427493095	None	None	None	None	1
3.0.1	2019_Mar_04_1328	s	s	5	1	SIC	410	2_2	2	2	1	2	23_1_2	-1	0	0	1	3.63342499733	520.0	402.0	None	None	0
3.0.1	2019_Mar_04_1328	s	s	5	1	SIC	411	4_1	4	1	2	2	23_2_2	2	1	1	0	0.627753973007	262.0	336.0	265.0	333.0	1
3.0.1	2019_Mar_04_1328	s	s	5	1	SIC	412	2_2	2	2	2	4	23_2_4	0	2	1	0	1.2106859684	-425.0	-396.0	-417.0	-389.0	1
3.0.1	2019_Mar_04_1328	s	s	5	1	SIC	413	2_3	2	3	2	4	23_2_4	0	-1	1	0	0.963711977005	76.0	-12.0	74.0	-10.0	1
3.0.1	2019_Mar_04_1328	s	s	5	1	SIC	414	3_2	3	2	3	4	23_3_4	0	2	1	0	0.580431938171	-260.0	199.0	-266.0	199.0	1
3.0.1	2019_Mar_04_1328	s	s	5	1	SIC	415	ABS	0	0	1	4	24_1_4	NA	NA	0	1	1.22784590721	None	None	None	None	1
3.0.1	2019_Mar_04_1328	s	s	5	1	SIC	416	3_2	3	2	1	3	23_1_3	2	1	1	0	0.651487112045	-98.0	339.0	-103.0	334.0	1
3.0.1	2019_Mar_04_1328	s	s	5	1	SIC	417	4_4	4	4	1	4	23_1_4	3	0	1	0	0.639489889145	-426.0	-397.0	-426.0	-395.0	1
3.0.1	2019_Mar_04_1328	s	s	5	1	SIC	418	ABS	0	0	3	1	24_3_1	NA	NA	0	1	0.907864093781	None	None	None	None	1
3.0.1	2019_Mar_04_1328	s	s	5	1	SIC	419	ABS	0	0	3	1	24_3_1	NA	NA	0	1	0.640084981918	None	None	None	None	1
3.0.1	2019_Mar_04_1328	s	s	5	1	SIC	420	ABS	0	0	3	3	24_3_3	NA	NA	0	1	0.834410190582	None	None	None	None	1
3.0.1	2019_Mar_04_1328	s	s	5	1	SIC	421	ABS	0	0	3	3	24_3_3	NA	NA	0	1	2.83381700516	None	None	None	None	1
3.0.1	2019_Mar_04_1328	s	s	5	1	SIC	422	1_2	1	2	3	4	23_3_4	2	2	1	0	0.538108110428	-177.0	398.0	-177.0	394.0	1
3.0.1	2019_Mar_04_1328	s	s	5	1	SIC	423	ABS	0	0	4	1	24_4_1	NA	NA	0	1	0.928380012512	None	None	None	None	1
3.0.1	2019_Mar_04_1328	s	s	5	1	SIC	424	4_2	4	2	1	3	23_1_3	3	1	1	0	0.464447975159	7.0	394.0	15.0	388.0	1
3.0.1	2019_Mar_04_1328	s	s	5	1	SIC	425	4_4	4	4	1	3	23_1_3	3	1	1	0	0.422780990601	-525.0	87.0	-528.0	90.0	1
3.0.1	2019_Mar_04_1328	s	s	5	1	SIC	426	4_3	4	3	2	4	23_2_4	2	-1	1	0	0.500386953354	272.0	-75.0	271.0	-78.0	1
3.0.1	2019_Mar_04_1328	s	s	5	1	SIC	427	3_2	3	2	1	1	23_1_1	2	-1	1	0	0.677520990372	-499.0	137.0	-502.0	135.0	1
3.0.1	2019_Mar_04_1328	s	s	5	1	SIC	428	2_3	2	3	4	3	23_4_3	2	0	1	0	0.446398019791	-196.0	-158.0	-192.0	-158.0	1
3.0.1	2019_Mar_04_1328	s	s	5	1	SIC	429	ABS	0	0	4	3	24_4_3	NA	NA	0	1	1.23433589935	None	None	None	None	1
3.0.1	2019_Mar_04_1328	s	s	5	1	SIC	430	ABS	0	0	1	3	24_1_3	NA	NA	0	1	1.70467805862	None	None	None	None	1
3.0.1	2019_Mar_04_1328	s	s	5	1	SIC	431	1_3	1	3	1	1	23_1_1	0	2	1	0	0.827690124512	-83.0	-37.0	-77.0	-32.0	1
3.0.1	2019_Mar_04_1328	s	s	5	1	SIC	432	ABS	0	0	4	1	24_4_1	NA	NA	0	1	1.18721413612	None	None	None	None	1
3.0.1	2019_Mar_04_1328	s	s	5	1	SIC	433	ABS	0	0	2	1	24_2_1	NA	NA	0	1	1.70931911469	None	None	None	None	1
3.0.1	2019_Mar_04_1328	s	s	5	1	SIC	434	ABS	0	0	1	2	24_1_2	NA	NA	1	0	0.613847017288	None	None	-118.0	26.0	0
3.0.1	2019_Mar_04_1328	s	s	5	1	SIC	435	3_3	3	3	3	2	23_3_2	0	1	0	1	3.12100696564	325.0	287.0	None	None	0
3.0.1	2019_Mar_04_1328	s	s	5	1	SIC	436	4_4	4	4	1	1	23_1_1	3	3	1	0	0.634567975998	244.0	-273.0	240.0	-276.0	1
3.0.1	2019_Mar_04_1328	s	s	5	1	SIC	437	ABS	0	0	1	3	24_1_3	NA	NA	0	1	4.27283096313	None	None	None	None	1
3.0.1	2019_Mar_04_1328	s	s	5	1	SIC	438	1_2	1	2	2	2	23_2_2	1	0	0	1	4.43830490112	-35.0	64.0	None	None	0
3.0.1	2019_Mar_04_1328	s	s	5	1	SIC	439	3_1	3	1	2	3	23_2_3	1	2	1	0	0.60421705246	-265.0	238.0	-262.0	240.0	1
3.0.1	2019_Mar_04_1328	s	s	5	1	SIC	440	ABS	0	0	1	4	24_1_4	NA	NA	0	1	1.3334980011	None	None	None	None	1
3.0.1	2019_Mar_04_1328	s	s	5	1	SIC	441	3_3	3	3	2	2	23_2_2	1	1	1	0	0.979645967484	135.0	-393.0	135.0	-388.0	1
3.0.1	2019_Mar_04_1328	s	s	5	1	SIC	442	ABS	0	0	2	3	24_2_3	NA	NA	0	1	3.11605095863	None	None	None	None	1
3.0.1	2019_Mar_04_1328	s	s	5	1	SIC	443	ABS	0	0	3	1	24_3_1	NA	NA	0	1	1.12173986435	None	None	None	None	1
3.0.1	2019_Mar_04_1328	s	s	5	1	SIC	444	3_4	3	4	4	2	23_4_2	-1	2	1	0	0.481547117233	-470.0	33.0	-477.0	32.0	1
3.0.1	2019_Mar_04_1328	s	s	5	1	SIC	445	ABS	0	0	1	1	24_1_1	NA	NA	0	1	1.57536387444	None	None	None	None	1
3.0.1	2019_Mar_04_1328	s	s	5	1	SIC	446	4_4	4	4	3	1	23_3_1	1	3	1	0	0.469696998596	48.0	87.0	46.0	83.0	1
3.0.1	2019_Mar_04_1328	s	s	5	1	SIC	447	ABS	0	0	2	4	24_2_4	NA	NA	0	1	0.905005931854	None	None	None	None	1
3.0.1	2019_Mar_04_1328	s	s	5	1	SIC	448	4_1	4	1	4	2	23_4_2	0	1	0	1	3.95410108566	-477.0	-397.0	None	None	0
3.0.1	2019_Mar_04_1328	s	s	5	1	SIC	449	3_1	3	1	4	4	23_4_4	-1	3	1	0	0.509665966034	29.0	-124.0	29.0	-129.0	1
3.0.1	2019_Mar_04_1328	s	s	5	1	SIC	450	2_3	2	3	3	4	23_3_4	1	-1	1	0	1.17541909218	-515.0	-199.0	-514.0	-202.0	1
3.0.1	2019_Mar_04_1328	s	s	5	1	SIC	451	3_2	3	2	4	4	23_4_4	-1	2	1	0	0.469783067703	300.0	86.0	303.0	77.0	1
3.0.1	2019_Mar_04_1328	s	s	5	1	SIC	452	2_4	2	4	2	3	23_2_3	0	1	1	0	0.73850107193	43.0	-397.0	42.0	-399.0	1
3.0.1	2019_Mar_04_1328	s	s	5	1	SIC	453	ABS	0	0	1	3	24_1_3	NA	NA	0	1	2.8555150032	None	None	None	None	1
3.0.1	2019_Mar_04_1328	s	s	5	1	SIC	454	2_4	2	4	3	2	23_3_2	1	2	1	0	0.474691867828	-193.0	-71.0	-200.0	-68.0	1
3.0.1	2019_Mar_04_1328	s	s	5	1	SIC	455	1_1	1	1	4	3	23_4_3	3	2	1	0	0.410937070847	-399.0	-289.0	-396.0	-284.0	1
3.0.1	2019_Mar_04_1328	s	s	5	1	SIC	456	4_4	4	4	2	1	23_2_1	2	3	1	0	0.427793979645	379.0	-189.0	372.0	-192.0	1
3.0.1	2019_Mar_04_1328	s	s	5	1	SIC	457	ABS	0	0	3	2	24_3_2	NA	NA	0	1	2.64557695389	None	None	None	None	1
3.0.1	2019_Mar_04_1328	s	s	5	1	SIC	458	1_2	1	2	4	2	23_4_2	3	0	1	0	0.469741106033	-492.0	-409.0	-493.0	-405.0	1
3.0.1	2019_Mar_04_1328	s	s	5	1	SIC	459	ABS	0	0	2	4	24_2_4	NA	NA	0	1	1.22248196602	None	None	None	None	1
3.0.1	2019_Mar_04_1328	s	s	5	1	SIC	460	ABS	0	0	4	3	24_4_3	NA	NA	0	1	2.72261714935	None	None	None	None	1
3.0.1	2019_Mar_04_1328	s	s	5	1	SIC	461	ABS	0	0	1	2	24_1_2	NA	NA	0	1	2.70438909531	None	None	None	None	1
3.0.1	2019_Mar_04_1328	s	s	5	1	SIC	462	3_3	3	3	2	4	23_2_4	1	-1	1	0	0.547349214554	-324.0	90.0	-330.0	99.0	1
3.0.1	2019_Mar_04_1328	s	s	5	1	SIC	463	ABS	0	0	4	2	24_4_2	NA	NA	0	1	2.99870705605	None	None	None	None	1
3.0.1	2019_Mar_04_1328	s	s	5	1	SIC	464	4_2	4	2	1	1	23_1_1	3	-1	1	0	0.384558916092	-409.0	62.0	-414.0	66.0	1
3.0.1	2019_Mar_04_1328	s	s	5	1	SIC	465	ABS	0	0	1	1	24_1_1	NA	NA	0	1	1.63920998573	None	None	None	None	1
3.0.1	2019_Mar_04_1328	s	s	5	1	SIC	466	3_2	3	2	1	4	23_1_4	2	2	1	0	0.458348035812	-54.0	-78.0	-54.0	-76.0	1
3.0.1	2019_Mar_04_1328	s	s	5	1	SIC	467	1_2	1	2	1	4	23_1_4	0	2	1	0	0.650799036026	-320.0	139.0	-320.0	131.0	1
3.0.1	2019_Mar_04_1328	s	s	5	1	SIC	468	3_2	3	2	3	3	23_3_3	0	1	1	0	2.6854531765	143.0	363.0	142.0	371.0	1
3.0.1	2019_Mar_04_1328	s	s	5	1	SIC	469	2_1	2	1	1	1	23_1_1	-1	0	0	1	1.48128795624	-302.0	370.0	None	None	0
3.0.1	2019_Mar_04_1328	s	s	5	1	SIC	470	ABS	0	0	2	3	24_2_3	NA	NA	0	1	4.13268899918	None	None	None	None	1
3.0.1	2019_Mar_04_1328	s	s	5	1	SIC	471	ABS	0	0	3	1	24_3_1	NA	NA	0	1	0.999056816101	None	None	None	None	1
3.0.1	2019_Mar_04_1328	s	s	5	1	SIC	472	ABS	0	0	1	4	24_1_4	NA	NA	0	1	1.64588785172	None	None	None	None	1
3.0.1	2019_Mar_04_1328	s	s	5	1	SIC	473	3_3	3	3	2	1	23_2_1	1	2	1	0	0.990839004517	359.0	-358.0	357.0	-360.0	1
3.0.1	2019_Mar_04_1328	s	s	5	1	SIC	474	1_1	1	1	3	3	23_3_3	2	2	1	0	1.25247120857	496.0	409.0	501.0	408.0	1
3.0.1	2019_Mar_04_1328	s	s	5	1	SIC	475	ABS	0	0	4	2	24_4_2	NA	NA	0	1	4.65007805824	None	None	None	None	1
3.0.1	2019_Mar_04_1328	s	s	5	1	SIC	476	4_1	4	1	2	1	23_2_1	2	0	1	0	0.475070953369	64.0	-89.0	52.0	-88.0	1
3.0.1	2019_Mar_04_1328	s	s	5	1	SIC	477	3_3	3	3	4	3	23_4_3	-1	0	1	0	0.622658014297	-491.0	363.0	-486.0	361.0	1
3.0.1	2019_Mar_04_1328	s	s	5	1	SIC	478	ABS	0	0	4	2	24_4_2	NA	NA	0	1	3.39832997322	None	None	None	None	1
3.0.1	2019_Mar_04_1328	s	s	5	1	SIC	479	3_2	3	2	2	1	23_2_1	1	-1	1	0	0.646187067032	-380.0	405.0	-382.0	405.0	1
3.0.1	2019_Mar_04_1328	s	s	5	1	SIC	480	2_3	2	3	3	2	23_3_2	1	1	1	0	0.99902510643	514.0	132.0	508.0	133.0	1
