Version	Date	Stimuli	Method	Subject	Session	Condition	Trial	Target	TColor	TShape	DColor	DShape	Distractors	Channel1	Channel2	LMouseButton	RMouseButton	RT	TargetX	TargetY	ResponseX	ResponseY	Correct
3.0.1	2019_Mar_05_1306	s	s	5	2	Capacity	1	ABS	0	0	1	4	24_1_4	NA	NA	0	1	2.55154013634	None	None	None	None	1
3.0.1	2019_Mar_05_1306	s	s	5	2	Capacity	2	ABS	0	0	1	1	24_1_1	NA	NA	0	1	2.29778409004	None	None	None	None	1
3.0.1	2019_Mar_05_1306	s	s	5	2	Capacity	3	1_2	1	2	1	4	23_1_4	0	2	1	0	0.54688501358	-218.0	391.0	-222.0	394.0	1
3.0.1	2019_Mar_05_1306	s	s	5	2	Capacity	4	1_1	1	1	1	4	23_1_4	0	3	1	0	0.481539011002	-69.0	96.0	-61.0	97.0	1
3.0.1	2019_Mar_05_1306	s	s	5	2	Capacity	5	1_4	1	4	1	1	23_1_1	0	3	1	0	0.564229011536	269.0	-271.0	269.0	-265.0	1
3.0.1	2019_Mar_05_1306	s	s	5	2	Capacity	6	1_3	1	3	1	1	23_1_1	0	2	1	0	1.20191693306	-411.0	-316.0	-415.0	-309.0	1
3.0.1	2019_Mar_05_1306	s	s	5	2	Capacity	7	1_2	1	2	1	1	23_1_1	0	-1	1	0	0.827394008636	-208.0	-44.0	-208.0	-39.0	1
3.0.1	2019_Mar_05_1306	s	s	5	2	Capacity	8	ABS	0	0	1	4	24_1_4	NA	NA	0	1	2.23398590088	None	None	None	None	1
3.0.1	2019_Mar_05_1306	s	s	5	2	Capacity	9	ABS	0	0	1	4	24_1_4	NA	NA	0	1	1.78995394707	None	None	None	None	1
3.0.1	2019_Mar_05_1306	s	s	5	2	Capacity	10	1_4	1	4	1	2	23_1_2	0	2	1	0	0.751950979233	-143.0	-202.0	-143.0	-192.0	1
3.0.1	2019_Mar_05_1306	s	s	5	2	Capacity	11	ABS	0	0	1	1	24_1_1	NA	NA	0	1	2.88091516495	None	None	None	None	1
3.0.1	2019_Mar_05_1306	s	s	5	2	Capacity	12	ABS	0	0	1	3	24_1_3	NA	NA	0	1	4.80965900421	None	None	None	None	1
3.0.1	2019_Mar_05_1306	s	s	5	2	Capacity	13	1_1	1	1	1	2	23_1_2	0	1	0	1	4.1439640522	-498.0	147.0	None	None	0
3.0.1	2019_Mar_05_1306	s	s	5	2	Capacity	14	1_4	1	4	1	3	23_1_3	0	1	1	0	0.646150112152	-210.0	-373.0	-209.0	-369.0	1
3.0.1	2019_Mar_05_1306	s	s	5	2	Capacity	15	ABS	0	0	1	2	24_1_2	NA	NA	0	1	3.32508587837	None	None	None	None	1
3.0.1	2019_Mar_05_1306	s	s	5	2	Capacity	16	ABS	0	0	1	2	24_1_2	NA	NA	0	1	2.35156607628	None	None	None	None	1
3.0.1	2019_Mar_05_1306	s	s	5	2	Capacity	17	1_1	1	1	1	3	23_1_3	0	2	1	0	1.04611492157	-18.0	-203.0	-18.0	-206.0	1
3.0.1	2019_Mar_05_1306	s	s	5	2	Capacity	18	1_3	1	3	1	2	23_1_2	0	1	0	1	4.76257610321	-272.0	-21.0	None	None	0
3.0.1	2019_Mar_05_1306	s	s	5	2	Capacity	19	ABS	0	0	1	3	24_1_3	NA	NA	0	1	3.43356919289	None	None	None	None	1
3.0.1	2019_Mar_05_1306	s	s	5	2	Capacity	20	ABS	0	0	1	3	24_1_3	NA	NA	0	1	3.54518985748	None	None	None	None	1
3.0.1	2019_Mar_05_1306	s	s	5	2	Capacity	21	ABS	0	0	1	1	24_1_1	NA	NA	0	1	1.78710079193	None	None	None	None	1
3.0.1	2019_Mar_05_1306	s	s	5	2	Capacity	22	ABS	0	0	1	2	24_1_2	NA	NA	0	1	3.36779689789	None	None	None	None	1
3.0.1	2019_Mar_05_1306	s	s	5	2	Capacity	23	1_3	1	3	1	4	23_1_4	0	-1	1	0	0.721859931946	-270.0	232.0	-264.0	236.0	1
3.0.1	2019_Mar_05_1306	s	s	5	2	Capacity	24	1_2	1	2	1	3	23_1_3	0	1	1	0	2.14276504517	-255.0	220.0	-259.0	223.0	1
3.0.1	2019_Mar_05_1306	s	s	5	2	Capacity	25	ABS	0	0	1	1	24_1_1	NA	NA	0	1	1.82224607468	None	None	None	None	1
3.0.1	2019_Mar_05_1306	s	s	5	2	Capacity	26	ABS	0	0	1	3	24_1_3	NA	NA	0	1	4.05686092377	None	None	None	None	1
3.0.1	2019_Mar_05_1306	s	s	5	2	Capacity	27	ABS	0	0	1	4	24_1_4	NA	NA	0	1	1.97526192665	None	None	None	None	1
3.0.1	2019_Mar_05_1306	s	s	5	2	Capacity	28	1_1	1	1	1	3	23_1_3	0	2	1	0	1.07610177994	-280.0	-350.0	-283.0	-348.0	1
3.0.1	2019_Mar_05_1306	s	s	5	2	Capacity	29	1_3	1	3	1	1	23_1_1	0	2	1	0	0.638123989105	-96.0	-183.0	-91.0	-183.0	1
3.0.1	2019_Mar_05_1306	s	s	5	2	Capacity	30	1_1	1	1	1	4	23_1_4	0	3	1	0	0.50235414505	125.0	-153.0	125.0	-154.0	1
3.0.1	2019_Mar_05_1306	s	s	5	2	Capacity	31	1_4	1	4	1	3	23_1_3	0	1	1	0	1.8987159729	-2.0	221.0	1.0	228.0	1
3.0.1	2019_Mar_05_1306	s	s	5	2	Capacity	32	1_4	1	4	1	2	23_1_2	0	2	1	0	0.556905984879	15.0	-339.0	22.0	-344.0	1
3.0.1	2019_Mar_05_1306	s	s	5	2	Capacity	33	1_4	1	4	1	1	23_1_1	0	3	1	0	0.481554985046	361.0	113.0	363.0	114.0	1
3.0.1	2019_Mar_05_1306	s	s	5	2	Capacity	34	1_2	1	2	1	4	23_1_4	0	2	1	0	0.516769170761	8.0	298.0	9.0	296.0	1
3.0.1	2019_Mar_05_1306	s	s	5	2	Capacity	35	ABS	0	0	1	4	24_1_4	NA	NA	0	1	1.74558615685	None	None	None	None	1
3.0.1	2019_Mar_05_1306	s	s	5	2	Capacity	36	ABS	0	0	1	3	24_1_3	NA	NA	0	1	3.16303086281	None	None	None	None	1
3.0.1	2019_Mar_05_1306	s	s	5	2	Capacity	37	1_2	1	2	1	1	23_1_1	0	-1	1	0	1.42533111572	29.0	13.0	29.0	12.0	1
3.0.1	2019_Mar_05_1306	s	s	5	2	Capacity	38	1_3	1	3	1	2	23_1_2	0	1	1	0	3.1424369812	-250.0	277.0	-257.0	275.0	1
3.0.1	2019_Mar_05_1306	s	s	5	2	Capacity	39	ABS	0	0	1	2	24_1_2	NA	NA	0	1	2.53979897499	None	None	None	None	1
3.0.1	2019_Mar_05_1306	s	s	5	2	Capacity	40	ABS	0	0	1	2	24_1_2	NA	NA	0	1	4.2215821743	None	None	None	None	1
3.0.1	2019_Mar_05_1306	s	s	5	2	Capacity	41	ABS	0	0	1	4	24_1_4	NA	NA	0	1	1.45778512955	None	None	None	None	1
3.0.1	2019_Mar_05_1306	s	s	5	2	Capacity	42	ABS	0	0	1	1	24_1_1	NA	NA	0	1	1.304874897	None	None	None	None	1
3.0.1	2019_Mar_05_1306	s	s	5	2	Capacity	43	ABS	0	0	1	2	24_1_2	NA	NA	0	1	1.82228398323	None	None	None	None	1
3.0.1	2019_Mar_05_1306	s	s	5	2	Capacity	44	1_3	1	3	1	4	23_1_4	0	-1	1	0	0.822622060776	-112.0	-334.0	-114.0	-332.0	1
3.0.1	2019_Mar_05_1306	s	s	5	2	Capacity	45	1_2	1	2	1	3	23_1_3	0	1	1	0	3.4148440361	375.0	359.0	381.0	358.0	1
3.0.1	2019_Mar_05_1306	s	s	5	2	Capacity	46	ABS	0	0	1	1	24_1_1	NA	NA	0	1	1.70887994766	None	None	None	None	1
3.0.1	2019_Mar_05_1306	s	s	5	2	Capacity	47	1_1	1	1	1	2	23_1_2	0	1	0	1	3.24543190002	344.0	-124.0	None	None	0
3.0.1	2019_Mar_05_1306	s	s	5	2	Capacity	48	ABS	0	0	1	3	24_1_3	NA	NA	0	1	3.77468395233	None	None	None	None	1
3.0.1	2019_Mar_05_1306	s	s	5	2	Capacity	49	ABS	0	0	1	1	24_1_1	NA	NA	0	1	1.64590597153	None	None	None	None	1
3.0.1	2019_Mar_05_1306	s	s	5	2	Capacity	50	ABS	0	0	1	1	24_1_1	NA	NA	0	1	0.966562986374	None	None	None	None	1
3.0.1	2019_Mar_05_1306	s	s	5	2	Capacity	51	1_3	1	3	1	4	23_1_4	0	-1	1	0	1.10965394974	465.0	-259.0	478.0	-255.0	1
3.0.1	2019_Mar_05_1306	s	s	5	2	Capacity	52	1_4	1	4	1	1	23_1_1	0	3	1	0	0.519725084305	24.0	249.0	29.0	240.0	1
3.0.1	2019_Mar_05_1306	s	s	5	2	Capacity	53	1_3	1	3	1	2	23_1_2	0	1	1	0	1.59884786606	179.0	-407.0	184.0	-412.0	1
3.0.1	2019_Mar_05_1306	s	s	5	2	Capacity	54	ABS	0	0	1	2	24_1_2	NA	NA	0	1	2.6618039608	None	None	None	None	1
3.0.1	2019_Mar_05_1306	s	s	5	2	Capacity	55	1_1	1	1	1	2	23_1_2	0	1	0	1	2.24575710297	-30.0	-407.0	None	None	0
3.0.1	2019_Mar_05_1306	s	s	5	2	Capacity	56	ABS	0	0	1	2	24_1_2	NA	NA	0	1	2.99850893021	None	None	None	None	1
3.0.1	2019_Mar_05_1306	s	s	5	2	Capacity	57	ABS	0	0	1	4	24_1_4	NA	NA	0	1	1.51643109322	None	None	None	None	1
3.0.1	2019_Mar_05_1306	s	s	5	2	Capacity	58	1_4	1	4	1	3	23_1_3	0	1	1	0	0.893258094788	177.0	192.0	172.0	193.0	1
3.0.1	2019_Mar_05_1306	s	s	5	2	Capacity	59	ABS	0	0	1	2	24_1_2	NA	NA	0	1	4.81437897682	None	None	None	None	1
3.0.1	2019_Mar_05_1306	s	s	5	2	Capacity	60	1_1	1	1	1	3	23_1_3	0	2	1	0	0.634428024292	121.0	133.0	123.0	127.0	1
3.0.1	2019_Mar_05_1306	s	s	5	2	Capacity	61	ABS	0	0	1	3	24_1_3	NA	NA	0	1	3.97872114182	None	None	None	None	1
3.0.1	2019_Mar_05_1306	s	s	5	2	Capacity	62	ABS	0	0	1	4	24_1_4	NA	NA	0	1	1.71650505066	None	None	None	None	1
3.0.1	2019_Mar_05_1306	s	s	5	2	Capacity	63	1_2	1	2	1	1	23_1_1	0	-1	1	0	2.11633300781	209.0	399.0	204.0	402.0	1
3.0.1	2019_Mar_05_1306	s	s	5	2	Capacity	64	1_3	1	3	1	1	23_1_1	0	2	1	0	0.686239957809	-206.0	-196.0	-205.0	-194.0	1
3.0.1	2019_Mar_05_1306	s	s	5	2	Capacity	65	ABS	0	0	1	3	24_1_3	NA	NA	0	1	4.23732113838	None	None	None	None	1
3.0.1	2019_Mar_05_1306	s	s	5	2	Capacity	66	ABS	0	0	1	4	24_1_4	NA	NA	0	1	1.75177407265	None	None	None	None	1
3.0.1	2019_Mar_05_1306	s	s	5	2	Capacity	67	1_4	1	4	1	2	23_1_2	0	2	1	0	0.604418992996	-469.0	82.0	-473.0	81.0	1
3.0.1	2019_Mar_05_1306	s	s	5	2	Capacity	68	1_1	1	1	1	4	23_1_4	0	3	1	0	0.510319948196	-98.0	396.0	-101.0	404.0	1
3.0.1	2019_Mar_05_1306	s	s	5	2	Capacity	69	1_2	1	2	1	4	23_1_4	0	2	1	0	0.693236112595	504.0	411.0	499.0	420.0	1
3.0.1	2019_Mar_05_1306	s	s	5	2	Capacity	70	1_2	1	2	1	3	23_1_3	0	1	1	0	1.11663007736	-98.0	275.0	-99.0	265.0	1
3.0.1	2019_Mar_05_1306	s	s	5	2	Capacity	71	ABS	0	0	1	3	24_1_3	NA	NA	0	1	4.3627948761	None	None	None	None	1
3.0.1	2019_Mar_05_1306	s	s	5	2	Capacity	72	ABS	0	0	1	1	24_1_1	NA	NA	0	1	1.30782580376	None	None	None	None	1
3.0.1	2019_Mar_05_1306	s	s	5	2	Capacity	73	1_4	1	4	1	1	23_1_1	0	3	1	0	0.599070072174	-314.0	118.0	-305.0	121.0	1
3.0.1	2019_Mar_05_1306	s	s	5	2	Capacity	74	ABS	0	0	1	4	24_1_4	NA	NA	0	1	1.81096196175	None	None	None	None	1
3.0.1	2019_Mar_05_1306	s	s	5	2	Capacity	75	1_1	1	1	1	2	23_1_2	0	1	1	0	3.02483415604	-337.0	6.0	-333.0	11.0	1
3.0.1	2019_Mar_05_1306	s	s	5	2	Capacity	76	ABS	0	0	1	1	24_1_1	NA	NA	0	1	1.94490814209	None	None	None	None	1
3.0.1	2019_Mar_05_1306	s	s	5	2	Capacity	77	ABS	0	0	1	4	24_1_4	NA	NA	0	1	1.95178508759	None	None	None	None	1
3.0.1	2019_Mar_05_1306	s	s	5	2	Capacity	78	ABS	0	0	1	3	24_1_3	NA	NA	0	1	3.9393081665	None	None	None	None	1
3.0.1	2019_Mar_05_1306	s	s	5	2	Capacity	79	ABS	0	0	1	3	24_1_3	NA	NA	0	1	5.11543393135	None	None	None	None	1
3.0.1	2019_Mar_05_1306	s	s	5	2	Capacity	80	1_4	1	4	1	2	23_1_2	0	2	1	0	0.975912094116	538.0	207.0	536.0	210.0	1
3.0.1	2019_Mar_05_1306	s	s	5	2	Capacity	81	ABS	0	0	1	2	24_1_2	NA	NA	0	1	4.44503808022	None	None	None	None	1
3.0.1	2019_Mar_05_1306	s	s	5	2	Capacity	82	1_2	1	2	1	1	23_1_1	0	-1	0	1	1.593708992	524.0	195.0	None	None	0
3.0.1	2019_Mar_05_1306	s	s	5	2	Capacity	83	1_1	1	1	1	3	23_1_3	0	2	1	0	1.26618313789	498.0	-2.0	499.0	-6.0	1
3.0.1	2019_Mar_05_1306	s	s	5	2	Capacity	84	ABS	0	0	1	2	24_1_2	NA	NA	0	1	3.82168412209	None	None	None	None	1
3.0.1	2019_Mar_05_1306	s	s	5	2	Capacity	85	1_4	1	4	1	3	23_1_3	0	1	1	0	0.568827867508	-245.0	95.0	-241.0	93.0	1
3.0.1	2019_Mar_05_1306	s	s	5	2	Capacity	86	1_3	1	3	1	1	23_1_1	0	2	1	0	0.907793045044	361.0	31.0	363.0	34.0	1
3.0.1	2019_Mar_05_1306	s	s	5	2	Capacity	87	1_3	1	3	1	4	23_1_4	0	-1	1	0	0.540380954742	456.0	7.0	449.0	14.0	1
3.0.1	2019_Mar_05_1306	s	s	5	2	Capacity	88	ABS	0	0	1	2	24_1_2	NA	NA	0	1	3.30709290504	None	None	None	None	1
3.0.1	2019_Mar_05_1306	s	s	5	2	Capacity	89	ABS	0	0	1	3	24_1_3	NA	NA	0	1	3.77470302582	None	None	None	None	1
3.0.1	2019_Mar_05_1306	s	s	5	2	Capacity	90	1_2	1	2	1	4	23_1_4	0	2	1	0	0.62795996666	70.0	-62.0	77.0	-63.0	1
3.0.1	2019_Mar_05_1306	s	s	5	2	Capacity	91	1_1	1	1	1	4	23_1_4	0	3	1	0	0.554968118668	-456.0	-233.0	-456.0	-244.0	1
3.0.1	2019_Mar_05_1306	s	s	5	2	Capacity	92	ABS	0	0	1	1	24_1_1	NA	NA	0	1	1.88605308533	None	None	None	None	1
3.0.1	2019_Mar_05_1306	s	s	5	2	Capacity	93	ABS	0	0	1	1	24_1_1	NA	NA	0	1	1.90756487846	None	None	None	None	1
3.0.1	2019_Mar_05_1306	s	s	5	2	Capacity	94	1_3	1	3	1	2	23_1_2	0	1	0	1	3.55408501625	-263.0	-265.0	None	None	0
3.0.1	2019_Mar_05_1306	s	s	5	2	Capacity	95	ABS	0	0	1	4	24_1_4	NA	NA	0	1	2.10456204414	None	None	None	None	1
3.0.1	2019_Mar_05_1306	s	s	5	2	Capacity	96	1_2	1	2	1	3	23_1_3	0	1	1	0	3.29897093773	-332.0	-183.0	-339.0	-184.0	1
3.0.1	2019_Mar_05_1306	s	s	5	2	Capacity	1	2_1	2	1	4	1	23_4_1	2	0	1	0	0.437389135361	-255.0	272.0	-245.0	270.0	1
3.0.1	2019_Mar_05_1306	s	s	5	2	Capacity	2	ABS	0	0	4	1	24_4_1	NA	NA	0	1	0.604011058807	None	None	None	None	1
3.0.1	2019_Mar_05_1306	s	s	5	2	Capacity	3	3_1	3	1	2	1	23_2_1	1	0	1	0	0.402237176895	35.0	-23.0	36.0	-24.0	1
3.0.1	2019_Mar_05_1306	s	s	5	2	Capacity	4	ABS	0	0	3	1	24_3_1	NA	NA	0	1	0.516708850861	None	None	None	None	1
3.0.1	2019_Mar_05_1306	s	s	5	2	Capacity	5	1_1	1	1	4	1	23_4_1	3	0	1	0	0.399219989777	466.0	99.0	470.0	105.0	1
3.0.1	2019_Mar_05_1306	s	s	5	2	Capacity	6	2_1	2	1	3	1	23_3_1	1	0	1	0	0.940266132355	362.0	345.0	360.0	347.0	1
3.0.1	2019_Mar_05_1306	s	s	5	2	Capacity	7	ABS	0	0	3	1	24_3_1	NA	NA	0	1	0.556803941727	None	None	None	None	1
3.0.1	2019_Mar_05_1306	s	s	5	2	Capacity	8	ABS	0	0	2	1	24_2_1	NA	NA	0	1	0.613803863525	None	None	None	None	1
3.0.1	2019_Mar_05_1306	s	s	5	2	Capacity	9	4_1	4	1	3	1	23_3_1	1	0	1	0	0.387442111969	-141.0	-347.0	-139.0	-350.0	1
3.0.1	2019_Mar_05_1306	s	s	5	2	Capacity	10	ABS	0	0	4	1	24_4_1	NA	NA	0	1	0.763810873032	None	None	None	None	1
3.0.1	2019_Mar_05_1306	s	s	5	2	Capacity	11	ABS	0	0	4	1	24_4_1	NA	NA	0	1	1.25204515457	None	None	None	None	1
3.0.1	2019_Mar_05_1306	s	s	5	2	Capacity	12	ABS	0	0	3	1	24_3_1	NA	NA	0	1	0.646191120148	None	None	None	None	1
3.0.1	2019_Mar_05_1306	s	s	5	2	Capacity	13	3_1	3	1	1	1	23_1_1	2	0	1	0	0.415620088577	-149.0	-111.0	-154.0	-103.0	1
3.0.1	2019_Mar_05_1306	s	s	5	2	Capacity	14	4_1	4	1	2	1	23_2_1	2	0	1	0	0.393455982208	208.0	8.0	218.0	13.0	1
3.0.1	2019_Mar_05_1306	s	s	5	2	Capacity	15	1_1	1	1	2	1	23_2_1	1	0	0	1	0.898282051086	-34.0	-135.0	None	None	0
3.0.1	2019_Mar_05_1306	s	s	5	2	Capacity	16	ABS	0	0	1	1	24_1_1	NA	NA	0	1	0.849035978317	None	None	None	None	1
3.0.1	2019_Mar_05_1306	s	s	5	2	Capacity	17	ABS	0	0	1	1	24_1_1	NA	NA	0	1	0.945141077042	None	None	None	None	1
3.0.1	2019_Mar_05_1306	s	s	5	2	Capacity	18	2_1	2	1	1	1	23_1_1	-1	0	0	1	0.705430984497	457.0	-156.0	None	None	0
3.0.1	2019_Mar_05_1306	s	s	5	2	Capacity	19	ABS	0	0	1	1	24_1_1	NA	NA	0	1	1.45765399933	None	None	None	None	1
3.0.1	2019_Mar_05_1306	s	s	5	2	Capacity	20	4_1	4	1	1	1	23_1_1	3	0	1	0	0.4431681633	482.0	-19.0	487.0	-15.0	1
3.0.1	2019_Mar_05_1306	s	s	5	2	Capacity	21	ABS	0	0	2	1	24_2_1	NA	NA	0	1	0.931293010712	None	None	None	None	1
3.0.1	2019_Mar_05_1306	s	s	5	2	Capacity	22	ABS	0	0	2	1	24_2_1	NA	NA	0	1	1.6931951046	None	None	None	None	1
3.0.1	2019_Mar_05_1306	s	s	5	2	Capacity	23	3_1	3	1	4	1	23_4_1	-1	0	1	0	0.48449420929	-197.0	-231.0	-190.0	-227.0	1
3.0.1	2019_Mar_05_1306	s	s	5	2	Capacity	24	1_1	1	1	3	1	23_3_1	2	0	1	0	0.403351068497	132.0	64.0	120.0	70.0	1
3.0.1	2019_Mar_05_1306	s	s	5	2	Capacity	25	ABS	0	0	1	1	24_1_1	NA	NA	0	1	0.673618078232	None	None	None	None	1
3.0.1	2019_Mar_05_1306	s	s	5	2	Capacity	26	ABS	0	0	4	1	24_4_1	NA	NA	0	1	0.790177106857	None	None	None	None	1
3.0.1	2019_Mar_05_1306	s	s	5	2	Capacity	27	ABS	0	0	1	1	24_1_1	NA	NA	0	1	1.49823498726	None	None	None	None	1
3.0.1	2019_Mar_05_1306	s	s	5	2	Capacity	28	ABS	0	0	2	1	24_2_1	NA	NA	0	1	1.16899681091	None	None	None	None	1
3.0.1	2019_Mar_05_1306	s	s	5	2	Capacity	29	4_1	4	1	2	1	23_2_1	2	0	1	0	0.411047935486	-498.0	221.0	-496.0	226.0	1
3.0.1	2019_Mar_05_1306	s	s	5	2	Capacity	30	1_1	1	1	4	1	23_4_1	3	0	1	0	0.392560005188	-511.0	-44.0	-507.0	-51.0	1
3.0.1	2019_Mar_05_1306	s	s	5	2	Capacity	31	3_1	3	1	1	1	23_1_1	2	0	1	0	0.415236949921	-72.0	222.0	-72.0	222.0	1
3.0.1	2019_Mar_05_1306	s	s	5	2	Capacity	32	1_1	1	1	3	1	23_3_1	2	0	1	0	0.672623157501	405.0	-269.0	408.0	-271.0	1
3.0.1	2019_Mar_05_1306	s	s	5	2	Capacity	33	2_1	2	1	3	1	23_3_1	1	0	1	0	0.657982110977	-501.0	-398.0	-506.0	-391.0	1
3.0.1	2019_Mar_05_1306	s	s	5	2	Capacity	34	ABS	0	0	3	1	24_3_1	NA	NA	0	1	0.834393024445	None	None	None	None	1
3.0.1	2019_Mar_05_1306	s	s	5	2	Capacity	35	ABS	0	0	1	1	24_1_1	NA	NA	0	1	0.744605064392	None	None	None	None	1
3.0.1	2019_Mar_05_1306	s	s	5	2	Capacity	36	ABS	0	0	2	1	24_2_1	NA	NA	0	1	0.799503087997	None	None	None	None	1
3.0.1	2019_Mar_05_1306	s	s	5	2	Capacity	37	2_1	2	1	1	1	23_1_1	-1	0	0	1	0.869652986526	328.0	-377.0	None	None	0
3.0.1	2019_Mar_05_1306	s	s	5	2	Capacity	38	ABS	0	0	4	1	24_4_1	NA	NA	0	1	0.575546979904	None	None	None	None	1
3.0.1	2019_Mar_05_1306	s	s	5	2	Capacity	39	4_1	4	1	3	1	23_3_1	1	0	1	0	0.473973989487	-92.0	370.0	-99.0	375.0	1
3.0.1	2019_Mar_05_1306	s	s	5	2	Capacity	40	ABS	0	0	3	1	24_3_1	NA	NA	0	1	0.740329027176	None	None	None	None	1
3.0.1	2019_Mar_05_1306	s	s	5	2	Capacity	41	4_1	4	1	1	1	23_1_1	3	0	1	0	0.469779014587	-110.0	38.0	-112.0	40.0	1
3.0.1	2019_Mar_05_1306	s	s	5	2	Capacity	42	ABS	0	0	2	1	24_2_1	NA	NA	0	1	1.09734797478	None	None	None	None	1
3.0.1	2019_Mar_05_1306	s	s	5	2	Capacity	43	3_1	3	1	2	1	23_2_1	1	0	0	1	0.496154069901	361.0	-37.0	None	None	0
3.0.1	2019_Mar_05_1306	s	s	5	2	Capacity	44	ABS	0	0	3	1	24_3_1	NA	NA	0	1	0.849061012268	None	None	None	None	1
3.0.1	2019_Mar_05_1306	s	s	5	2	Capacity	45	1_1	1	1	2	1	23_2_1	1	0	0	1	0.627309083939	-427.0	324.0	None	None	0
3.0.1	2019_Mar_05_1306	s	s	5	2	Capacity	46	ABS	0	0	4	1	24_4_1	NA	NA	0	1	1.42247700691	None	None	None	None	1
3.0.1	2019_Mar_05_1306	s	s	5	2	Capacity	47	2_1	2	1	4	1	23_4_1	2	0	1	0	0.555037975311	510.0	337.0	510.0	344.0	1
3.0.1	2019_Mar_05_1306	s	s	5	2	Capacity	48	3_1	3	1	4	1	23_4_1	-1	0	1	0	0.469740152359	99.0	311.0	106.0	307.0	1
3.0.1	2019_Mar_05_1306	s	s	5	2	Capacity	49	2_1	2	1	4	1	23_4_1	2	0	1	0	0.351928949356	-52.0	157.0	-48.0	155.0	1
3.0.1	2019_Mar_05_1306	s	s	5	2	Capacity	50	1_1	1	1	3	1	23_3_1	2	0	1	0	0.533514022827	-534.0	181.0	-525.0	188.0	1
3.0.1	2019_Mar_05_1306	s	s	5	2	Capacity	51	ABS	0	0	2	1	24_2_1	NA	NA	0	1	2.13985490799	None	None	None	None	1
3.0.1	2019_Mar_05_1306	s	s	5	2	Capacity	52	ABS	0	0	2	1	24_2_1	NA	NA	0	1	0.963762044907	None	None	None	None	1
3.0.1	2019_Mar_05_1306	s	s	5	2	Capacity	53	ABS	0	0	1	1	24_1_1	NA	NA	0	1	0.940269947052	None	None	None	None	1
3.0.1	2019_Mar_05_1306	s	s	5	2	Capacity	54	1_1	1	1	2	1	23_2_1	1	0	1	0	0.709963083267	-180.0	16.0	-175.0	20.0	1
3.0.1	2019_Mar_05_1306	s	s	5	2	Capacity	55	ABS	0	0	3	1	24_3_1	NA	NA	0	1	1.25113391876	None	None	None	None	1
3.0.1	2019_Mar_05_1306	s	s	5	2	Capacity	56	1_1	1	1	4	1	23_4_1	3	0	1	0	0.381032943726	129.0	391.0	132.0	389.0	1
3.0.1	2019_Mar_05_1306	s	s	5	2	Capacity	57	3_1	3	1	2	1	23_2_1	1	0	1	0	0.613771915436	-495.0	-98.0	-490.0	-97.0	1
3.0.1	2019_Mar_05_1306	s	s	5	2	Capacity	58	ABS	0	0	4	1	24_4_1	NA	NA	1	0	0.795333147049	None	None	18.0	132.0	0
3.0.1	2019_Mar_05_1306	s	s	5	2	Capacity	59	2_1	2	1	1	1	23_1_1	-1	0	0	1	0.790185213089	-327.0	-368.0	None	None	0
3.0.1	2019_Mar_05_1306	s	s	5	2	Capacity	60	ABS	0	0	1	1	24_1_1	NA	NA	0	1	0.928463935852	None	None	None	None	1
3.0.1	2019_Mar_05_1306	s	s	5	2	Capacity	61	ABS	0	0	4	1	24_4_1	NA	NA	0	1	0.70497584343	None	None	None	None	1
3.0.1	2019_Mar_05_1306	s	s	5	2	Capacity	62	ABS	0	0	1	1	24_1_1	NA	NA	0	1	1.26668810844	None	None	None	None	1
3.0.1	2019_Mar_05_1306	s	s	5	2	Capacity	63	ABS	0	0	4	1	24_4_1	NA	NA	0	1	0.827215909958	None	None	None	None	1
3.0.1	2019_Mar_05_1306	s	s	5	2	Capacity	64	3_1	3	1	1	1	23_1_1	2	0	1	0	0.484413862228	-233.0	-79.0	-226.0	-83.0	1
3.0.1	2019_Mar_05_1306	s	s	5	2	Capacity	65	4_1	4	1	2	1	23_2_1	2	0	1	0	0.469866991043	-64.0	-245.0	-61.0	-247.0	1
3.0.1	2019_Mar_05_1306	s	s	5	2	Capacity	66	ABS	0	0	3	1	24_3_1	NA	NA	0	1	1.50892400742	None	None	None	None	1
3.0.1	2019_Mar_05_1306	s	s	5	2	Capacity	67	3_1	3	1	4	1	23_4_1	-1	0	1	0	0.543270111084	32.0	-13.0	34.0	-10.0	1
3.0.1	2019_Mar_05_1306	s	s	5	2	Capacity	68	ABS	0	0	3	1	24_3_1	NA	NA	0	1	1.61066102982	None	None	None	None	1
3.0.1	2019_Mar_05_1306	s	s	5	2	Capacity	69	4_1	4	1	3	1	23_3_1	1	0	1	0	0.505075931549	322.0	-39.0	327.0	-38.0	1
3.0.1	2019_Mar_05_1306	s	s	5	2	Capacity	70	2_1	2	1	3	1	23_3_1	1	0	1	0	0.663015127182	-462.0	-118.0	-454.0	-118.0	1
3.0.1	2019_Mar_05_1306	s	s	5	2	Capacity	71	4_1	4	1	1	1	23_1_1	3	0	1	0	0.474935054779	-224.0	-120.0	-228.0	-121.0	1
3.0.1	2019_Mar_05_1306	s	s	5	2	Capacity	72	ABS	0	0	2	1	24_2_1	NA	NA	0	1	1.79090714455	None	None	None	None	1
3.0.1	2019_Mar_05_1306	s	s	5	2	Capacity	73	ABS	0	0	4	1	24_4_1	NA	NA	0	1	0.999151945114	None	None	None	None	1
3.0.1	2019_Mar_05_1306	s	s	5	2	Capacity	74	2_1	2	1	3	1	23_3_1	1	0	1	0	0.790266990662	94.0	-262.0	91.0	-269.0	1
3.0.1	2019_Mar_05_1306	s	s	5	2	Capacity	75	4_1	4	1	2	1	23_2_1	2	0	1	0	0.463119029999	-123.0	399.0	-126.0	401.0	1
3.0.1	2019_Mar_05_1306	s	s	5	2	Capacity	76	1_1	1	1	4	1	23_4_1	3	0	1	0	0.474903106689	99.0	-256.0	92.0	-251.0	1
3.0.1	2019_Mar_05_1306	s	s	5	2	Capacity	77	ABS	0	0	1	1	24_1_1	NA	NA	0	1	0.790265083313	None	None	None	None	1
3.0.1	2019_Mar_05_1306	s	s	5	2	Capacity	78	4_1	4	1	1	1	23_1_1	3	0	1	0	0.411034107208	263.0	-198.0	271.0	-203.0	1
3.0.1	2019_Mar_05_1306	s	s	5	2	Capacity	79	3_1	3	1	4	1	23_4_1	-1	0	1	0	0.422758817673	29.0	53.0	28.0	52.0	1
3.0.1	2019_Mar_05_1306	s	s	5	2	Capacity	80	4_1	4	1	3	1	23_3_1	1	0	1	0	0.387449026108	358.0	-105.0	359.0	-105.0	1
3.0.1	2019_Mar_05_1306	s	s	5	2	Capacity	81	ABS	0	0	3	1	24_3_1	NA	NA	0	1	0.822572946548	None	None	None	None	1
3.0.1	2019_Mar_05_1306	s	s	5	2	Capacity	82	1_1	1	1	3	1	23_3_1	2	0	1	0	0.575721025467	-59.0	-411.0	-57.0	-412.0	1
3.0.1	2019_Mar_05_1306	s	s	5	2	Capacity	83	2_1	2	1	4	1	23_4_1	2	0	1	0	0.469746112823	-184.0	118.0	-191.0	119.0	1
3.0.1	2019_Mar_05_1306	s	s	5	2	Capacity	84	ABS	0	0	2	1	24_2_1	NA	NA	0	1	1.2610771656	None	None	None	None	1
3.0.1	2019_Mar_05_1306	s	s	5	2	Capacity	85	ABS	0	0	4	1	24_4_1	NA	NA	0	1	0.87241101265	None	None	None	None	1
3.0.1	2019_Mar_05_1306	s	s	5	2	Capacity	86	ABS	0	0	3	1	24_3_1	NA	NA	0	1	1.05780887604	None	None	None	None	1
3.0.1	2019_Mar_05_1306	s	s	5	2	Capacity	87	3_1	3	1	1	1	23_1_1	2	0	1	0	0.592446088791	121.0	-130.0	121.0	-124.0	1
3.0.1	2019_Mar_05_1306	s	s	5	2	Capacity	88	ABS	0	0	2	1	24_2_1	NA	NA	0	1	0.928454875946	None	None	None	None	1
3.0.1	2019_Mar_05_1306	s	s	5	2	Capacity	89	ABS	0	0	1	1	24_1_1	NA	NA	0	1	0.658034086227	None	None	None	None	1
3.0.1	2019_Mar_05_1306	s	s	5	2	Capacity	90	ABS	0	0	2	1	24_2_1	NA	NA	0	1	0.731384992599	None	None	None	None	1
3.0.1	2019_Mar_05_1306	s	s	5	2	Capacity	91	ABS	0	0	3	1	24_3_1	NA	NA	0	1	0.716741085052	None	None	None	None	1
3.0.1	2019_Mar_05_1306	s	s	5	2	Capacity	92	2_1	2	1	1	1	23_1_1	-1	0	0	1	0.746940135956	-74.0	-69.0	None	None	0
3.0.1	2019_Mar_05_1306	s	s	5	2	Capacity	93	ABS	0	0	1	1	24_1_1	NA	NA	0	1	0.613867998123	None	None	None	None	1
3.0.1	2019_Mar_05_1306	s	s	5	2	Capacity	94	1_1	1	1	2	1	23_2_1	1	0	0	1	0.613810062408	179.0	388.0	None	None	0
3.0.1	2019_Mar_05_1306	s	s	5	2	Capacity	95	3_1	3	1	2	1	23_2_1	1	0	1	0	0.549217939377	-62.0	-72.0	-61.0	-69.0	1
3.0.1	2019_Mar_05_1306	s	s	5	2	Capacity	96	ABS	0	0	4	1	24_4_1	NA	NA	0	1	0.613806009293	None	None	None	None	1
3.0.1	2019_Mar_05_1306	s	s	5	2	SIC	1	ABS	0	0	3	1	24_3_1	NA	NA	0	1	0.823012113571	None	None	None	None	1
3.0.1	2019_Mar_05_1306	s	s	5	2	SIC	2	ABS	0	0	4	4	24_4_4	NA	NA	0	1	1.98018407822	None	None	None	None	1
3.0.1	2019_Mar_05_1306	s	s	5	2	SIC	3	1_3	1	3	3	3	23_3_3	2	0	1	0	0.557352781296	-142.0	274.0	-134.0	276.0	1
3.0.1	2019_Mar_05_1306	s	s	5	2	SIC	4	ABS	0	0	2	4	24_2_4	NA	NA	0	1	1.36369490623	None	None	None	None	1
3.0.1	2019_Mar_05_1306	s	s	5	2	SIC	5	ABS	0	0	4	4	24_4_4	NA	NA	0	1	0.696323156357	None	None	None	None	1
3.0.1	2019_Mar_05_1306	s	s	5	2	SIC	6	ABS	0	0	3	3	24_3_3	NA	NA	0	1	2.47358202934	None	None	None	None	1
3.0.1	2019_Mar_05_1306	s	s	5	2	SIC	7	ABS	0	0	1	2	24_1_2	NA	NA	0	1	4.49501895905	None	None	None	None	1
3.0.1	2019_Mar_05_1306	s	s	5	2	SIC	8	1_3	1	3	4	4	23_4_4	3	-1	1	0	0.810859918594	176.0	129.0	182.0	129.0	1
3.0.1	2019_Mar_05_1306	s	s	5	2	SIC	9	1_2	1	2	2	3	23_2_3	1	1	1	0	1.91400694847	-28.0	-340.0	-25.0	-342.0	1
3.0.1	2019_Mar_05_1306	s	s	5	2	SIC	10	ABS	0	0	2	1	24_2_1	NA	NA	0	1	2.39159297943	None	None	None	None	1
3.0.1	2019_Mar_05_1306	s	s	5	2	SIC	11	2_1	2	1	4	4	23_4_4	2	3	1	0	0.49834895134	-344.0	65.0	-340.0	70.0	1
3.0.1	2019_Mar_05_1306	s	s	5	2	SIC	12	4_4	4	4	2	3	23_2_3	2	1	1	0	0.427747011185	114.0	141.0	123.0	150.0	1
3.0.1	2019_Mar_05_1306	s	s	5	2	SIC	13	ABS	0	0	3	4	24_3_4	NA	NA	0	1	2.39863085747	None	None	None	None	1
3.0.1	2019_Mar_05_1306	s	s	5	2	SIC	14	ABS	0	0	3	3	24_3_3	NA	NA	0	1	2.52798700333	None	None	None	None	1
3.0.1	2019_Mar_05_1306	s	s	5	2	SIC	15	3_3	3	3	4	3	23_4_3	-1	0	1	0	0.634441137314	-133.0	-111.0	-141.0	-103.0	1
3.0.1	2019_Mar_05_1306	s	s	5	2	SIC	16	ABS	0	0	3	4	24_3_4	NA	NA	0	1	1.28406596184	None	None	None	None	1
3.0.1	2019_Mar_05_1306	s	s	5	2	SIC	17	ABS	0	0	3	3	24_3_3	NA	NA	0	1	3.12774610519	None	None	None	None	1
3.0.1	2019_Mar_05_1306	s	s	5	2	SIC	18	4_3	4	3	4	1	23_4_1	0	2	1	0	0.804998874664	-61.0	147.0	-62.0	148.0	1
3.0.1	2019_Mar_05_1306	s	s	5	2	SIC	19	ABS	0	0	2	2	24_2_2	NA	NA	0	1	3.61003303528	None	None	None	None	1
3.0.1	2019_Mar_05_1306	s	s	5	2	SIC	20	ABS	0	0	4	3	24_4_3	NA	NA	0	1	4.3319671154	None	None	None	None	1
3.0.1	2019_Mar_05_1306	s	s	5	2	SIC	21	ABS	0	0	1	4	24_1_4	NA	NA	0	1	1.52829003334	None	None	None	None	1
3.0.1	2019_Mar_05_1306	s	s	5	2	SIC	22	ABS	0	0	1	4	24_1_4	NA	NA	0	1	1.65758299828	None	None	None	None	1
3.0.1	2019_Mar_05_1306	s	s	5	2	SIC	23	ABS	0	0	4	3	24_4_3	NA	NA	0	1	4.16748595238	None	None	None	None	1
3.0.1	2019_Mar_05_1306	s	s	5	2	SIC	24	2_1	2	1	3	3	23_3_3	1	2	1	0	0.857974052429	133.0	316.0	134.0	317.0	1
3.0.1	2019_Mar_05_1306	s	s	5	2	SIC	25	3_1	3	1	3	4	23_3_4	0	3	1	0	0.555035829544	451.0	-163.0	455.0	-160.0	1
3.0.1	2019_Mar_05_1306	s	s	5	2	SIC	26	4_1	4	1	2	2	23_2_2	2	1	1	0	0.469750165939	-521.0	-216.0	-509.0	-215.0	1
3.0.1	2019_Mar_05_1306	s	s	5	2	SIC	27	ABS	0	0	4	2	24_4_2	NA	NA	0	1	4.42158007622	None	None	None	None	1
3.0.1	2019_Mar_05_1306	s	s	5	2	SIC	28	ABS	0	0	2	4	24_2_4	NA	NA	0	1	1.89949202538	None	None	None	None	1
3.0.1	2019_Mar_05_1306	s	s	5	2	SIC	29	ABS	0	0	3	2	24_3_2	NA	NA	0	1	5.3556728363	None	None	None	None	1
3.0.1	2019_Mar_05_1306	s	s	5	2	SIC	30	4_2	4	2	4	3	23_4_3	0	1	1	0	2.31919288635	-71.0	325.0	-62.0	330.0	1
3.0.1	2019_Mar_05_1306	s	s	5	2	SIC	31	3_4	3	4	2	1	23_2_1	1	3	1	0	0.685455083847	-504.0	-222.0	-503.0	-227.0	1
3.0.1	2019_Mar_05_1306	s	s	5	2	SIC	32	2_2	2	2	2	3	23_2_3	0	1	0	1	5.39100790024	-449.0	98.0	None	None	0
3.0.1	2019_Mar_05_1306	s	s	5	2	SIC	33	ABS	0	0	2	3	24_2_3	NA	NA	0	1	3.82696986198	None	None	None	None	1
3.0.1	2019_Mar_05_1306	s	s	5	2	SIC	34	ABS	0	0	4	3	24_4_3	NA	NA	0	1	4.79442214966	None	None	None	None	1
3.0.1	2019_Mar_05_1306	s	s	5	2	SIC	35	1_3	1	3	3	4	23_3_4	2	-1	1	0	0.677393913269	313.0	-336.0	321.0	-338.0	1
3.0.1	2019_Mar_05_1306	s	s	5	2	SIC	36	1_2	1	2	1	3	23_1_3	0	1	1	0	1.36364984512	-252.0	-75.0	-247.0	-72.0	1
3.0.1	2019_Mar_05_1306	s	s	5	2	SIC	37	ABS	0	0	3	4	24_3_4	NA	NA	0	1	1.34006977081	None	None	None	None	1
3.0.1	2019_Mar_05_1306	s	s	5	2	SIC	38	ABS	0	0	3	1	24_3_1	NA	NA	0	1	1.20185208321	None	None	None	None	1
3.0.1	2019_Mar_05_1306	s	s	5	2	SIC	39	2_1	2	1	2	2	23_2_2	0	1	1	0	1.43750619888	-23.0	-401.0	-26.0	-404.0	1
3.0.1	2019_Mar_05_1306	s	s	5	2	SIC	40	ABS	0	0	4	3	24_4_3	NA	NA	0	1	3.73932695389	None	None	None	None	1
3.0.1	2019_Mar_05_1306	s	s	5	2	SIC	41	ABS	0	0	1	2	24_1_2	NA	NA	0	1	4.58616089821	None	None	None	None	1
3.0.1	2019_Mar_05_1306	s	s	5	2	SIC	42	ABS	0	0	2	2	24_2_2	NA	NA	0	1	4.09816908836	None	None	None	None	1
3.0.1	2019_Mar_05_1306	s	s	5	2	SIC	43	1_3	1	3	2	4	23_2_4	1	-1	1	0	1.15191888809	331.0	242.0	338.0	236.0	1
3.0.1	2019_Mar_05_1306	s	s	5	2	SIC	44	2_3	2	3	3	2	23_3_2	1	1	1	0	0.49329996109	-363.0	-170.0	-367.0	-162.0	1
3.0.1	2019_Mar_05_1306	s	s	5	2	SIC	45	ABS	0	0	4	3	24_4_3	NA	NA	0	1	3.42692303658	None	None	None	None	1
3.0.1	2019_Mar_05_1306	s	s	5	2	SIC	46	1_4	1	4	2	2	23_2_2	1	2	1	0	1.22728586197	529.0	-168.0	533.0	-166.0	1
3.0.1	2019_Mar_05_1306	s	s	5	2	SIC	47	1_3	1	3	4	1	23_4_1	3	2	1	0	0.43446803093	304.0	-79.0	312.0	-77.0	1
3.0.1	2019_Mar_05_1306	s	s	5	2	SIC	48	ABS	0	0	2	2	24_2_2	NA	NA	0	1	2.28709888458	None	None	None	None	1
3.0.1	2019_Mar_05_1306	s	s	5	2	SIC	49	ABS	0	0	1	4	24_1_4	NA	NA	0	1	1.20185184479	None	None	None	None	1
3.0.1	2019_Mar_05_1306	s	s	5	2	SIC	50	4_4	4	4	3	3	23_3_3	1	1	1	0	0.481571912766	244.0	-214.0	243.0	-218.0	1
3.0.1	2019_Mar_05_1306	s	s	5	2	SIC	51	ABS	0	0	1	4	24_1_4	NA	NA	0	1	1.14937114716	None	None	None	None	1
3.0.1	2019_Mar_05_1306	s	s	5	2	SIC	52	ABS	0	0	3	2	24_3_2	NA	NA	0	1	4.43714880943	None	None	None	None	1
3.0.1	2019_Mar_05_1306	s	s	5	2	SIC	53	ABS	0	0	2	4	24_2_4	NA	NA	0	1	1.93318986893	None	None	None	None	1
3.0.1	2019_Mar_05_1306	s	s	5	2	SIC	54	ABS	0	0	4	3	24_4_3	NA	NA	0	1	2.8390789032	None	None	None	None	1
3.0.1	2019_Mar_05_1306	s	s	5	2	SIC	55	4_4	4	4	4	1	23_4_1	0	3	1	0	0.881454944611	-404.0	-240.0	-403.0	-242.0	1
3.0.1	2019_Mar_05_1306	s	s	5	2	SIC	56	ABS	0	0	4	1	24_4_1	NA	NA	0	1	1.78988814354	None	None	None	None	1
3.0.1	2019_Mar_05_1306	s	s	5	2	SIC	57	ABS	0	0	2	4	24_2_4	NA	NA	0	1	1.41448402405	None	None	None	None	1
3.0.1	2019_Mar_05_1306	s	s	5	2	SIC	58	ABS	0	0	4	4	24_4_4	NA	NA	0	1	0.96665596962	None	None	None	None	1
3.0.1	2019_Mar_05_1306	s	s	5	2	SIC	59	ABS	0	0	4	2	24_4_2	NA	NA	0	1	0.787389039993	None	None	None	None	1
3.0.1	2019_Mar_05_1306	s	s	5	2	SIC	60	4_1	4	1	1	1	23_1_1	3	0	1	0	0.528601884842	-521.0	-295.0	-520.0	-298.0	1
3.0.1	2019_Mar_05_1306	s	s	5	2	SIC	61	ABS	0	0	1	3	24_1_3	NA	NA	0	1	3.69238090515	None	None	None	None	1
3.0.1	2019_Mar_05_1306	s	s	5	2	SIC	62	1_1	1	1	3	1	23_3_1	2	0	1	0	0.52866101265	-534.0	324.0	-530.0	317.0	1
3.0.1	2019_Mar_05_1306	s	s	5	2	SIC	63	3_4	3	4	2	3	23_2_3	1	1	1	0	0.486720085144	46.0	126.0	52.0	125.0	1
3.0.1	2019_Mar_05_1306	s	s	5	2	SIC	64	2_3	2	3	1	1	23_1_1	-1	2	1	0	0.916788101196	-50.0	-319.0	-51.0	-323.0	1
3.0.1	2019_Mar_05_1306	s	s	5	2	SIC	65	4_4	4	4	3	4	23_3_4	1	0	1	0	0.434505939484	-11.0	-33.0	-1.0	-32.0	1
3.0.1	2019_Mar_05_1306	s	s	5	2	SIC	66	ABS	0	0	1	4	24_1_4	NA	NA	0	1	1.58711504936	None	None	None	None	1
3.0.1	2019_Mar_05_1306	s	s	5	2	SIC	67	ABS	0	0	1	1	24_1_1	NA	NA	0	1	2.11634016037	None	None	None	None	1
3.0.1	2019_Mar_05_1306	s	s	5	2	SIC	68	4_3	4	3	1	4	23_1_4	3	-1	1	0	0.451419830322	-337.0	244.0	-329.0	243.0	1
3.0.1	2019_Mar_05_1306	s	s	5	2	SIC	69	ABS	0	0	4	4	24_4_4	NA	NA	0	1	0.956970930099	None	None	None	None	1
3.0.1	2019_Mar_05_1306	s	s	5	2	SIC	70	1_1	1	1	2	4	23_2_4	1	3	1	0	0.481562852859	-307.0	353.0	-305.0	354.0	1
3.0.1	2019_Mar_05_1306	s	s	5	2	SIC	71	ABS	0	0	1	1	24_1_1	NA	NA	0	1	1.24603295326	None	None	None	None	1
3.0.1	2019_Mar_05_1306	s	s	5	2	SIC	72	ABS	0	0	3	2	24_3_2	NA	NA	0	1	2.9866399765	None	None	None	None	1
3.0.1	2019_Mar_05_1306	s	s	5	2	SIC	73	1_4	1	4	1	1	23_1_1	0	3	1	0	0.502204179764	106.0	2.0	111.0	-1.0	1
3.0.1	2019_Mar_05_1306	s	s	5	2	SIC	74	ABS	0	0	2	1	24_2_1	NA	NA	0	1	2.17509698868	None	None	None	None	1
3.0.1	2019_Mar_05_1306	s	s	5	2	SIC	75	1_4	1	4	3	2	23_3_2	2	2	1	0	0.502572059631	-117.0	252.0	-118.0	248.0	1
3.0.1	2019_Mar_05_1306	s	s	5	2	SIC	76	2_2	2	2	1	3	23_1_3	-1	1	1	0	1.38714885712	-49.0	273.0	-56.0	271.0	1
3.0.1	2019_Mar_05_1306	s	s	5	2	SIC	77	1_4	1	4	2	1	23_2_1	1	3	1	0	0.516793012619	322.0	-28.0	319.0	-30.0	1
3.0.1	2019_Mar_05_1306	s	s	5	2	SIC	78	4_3	4	3	4	4	23_4_4	0	-1	1	0	0.662386894226	168.0	395.0	164.0	402.0	1
3.0.1	2019_Mar_05_1306	s	s	5	2	SIC	79	ABS	0	0	1	1	24_1_1	NA	NA	0	1	1.13133311272	None	None	None	None	1
3.0.1	2019_Mar_05_1306	s	s	5	2	SIC	80	4_2	4	2	4	4	23_4_4	0	2	1	0	0.502642869949	-161.0	248.0	-170.0	250.0	1
3.0.1	2019_Mar_05_1306	s	s	5	2	SIC	81	ABS	0	0	4	2	24_4_2	NA	NA	0	1	3.28343677521	None	None	None	None	1
3.0.1	2019_Mar_05_1306	s	s	5	2	SIC	82	ABS	0	0	3	3	24_3_3	NA	NA	0	1	3.5207760334	None	None	None	None	1
3.0.1	2019_Mar_05_1306	s	s	5	2	SIC	83	2_1	2	1	3	1	23_3_1	1	0	1	0	0.574669837952	-159.0	249.0	-162.0	249.0	1
3.0.1	2019_Mar_05_1306	s	s	5	2	SIC	84	ABS	0	0	4	1	24_4_1	NA	NA	0	1	0.971179962158	None	None	None	None	1
3.0.1	2019_Mar_05_1306	s	s	5	2	SIC	85	ABS	0	0	2	1	24_2_1	NA	NA	0	1	1.30488705635	None	None	None	None	1
3.0.1	2019_Mar_05_1306	s	s	5	2	SIC	86	2_1	2	1	1	2	23_1_2	-1	1	1	0	1.77527284622	194.0	-29.0	193.0	-24.0	1
3.0.1	2019_Mar_05_1306	s	s	5	2	SIC	87	2_2	2	2	3	1	23_3_1	1	-1	1	0	0.921490907669	433.0	-363.0	433.0	-360.0	1
3.0.1	2019_Mar_05_1306	s	s	5	2	SIC	88	2_3	2	3	1	4	23_1_4	-1	-1	1	0	1.16365504265	-466.0	223.0	-470.0	223.0	1
3.0.1	2019_Mar_05_1306	s	s	5	2	SIC	89	ABS	0	0	2	4	24_2_4	NA	NA	0	1	1.56351804733	None	None	None	None	1
3.0.1	2019_Mar_05_1306	s	s	5	2	SIC	90	1_2	1	2	4	4	23_4_4	3	2	1	0	0.399118185043	-132.0	78.0	-125.0	79.0	1
3.0.1	2019_Mar_05_1306	s	s	5	2	SIC	91	1_4	1	4	4	4	23_4_4	3	0	1	0	0.481491088867	-481.0	406.0	-485.0	409.0	1
3.0.1	2019_Mar_05_1306	s	s	5	2	SIC	92	3_1	3	1	4	1	23_4_1	-1	0	1	0	0.437465190887	32.0	287.0	32.0	290.0	1
3.0.1	2019_Mar_05_1306	s	s	5	2	SIC	93	1_1	1	1	2	2	23_2_2	1	1	1	0	0.540374040604	70.0	17.0	75.0	20.0	1
3.0.1	2019_Mar_05_1306	s	s	5	2	SIC	94	ABS	0	0	4	1	24_4_1	NA	NA	0	1	2.26039004326	None	None	None	None	1
3.0.1	2019_Mar_05_1306	s	s	5	2	SIC	95	1_2	1	2	4	3	23_4_3	3	1	1	0	0.3875041008	147.0	142.0	148.0	143.0	1
3.0.1	2019_Mar_05_1306	s	s	5	2	SIC	96	ABS	0	0	3	1	24_3_1	NA	NA	0	1	1.01083183289	None	None	None	None	1
3.0.1	2019_Mar_05_1306	s	s	5	2	SIC	97	3_2	3	2	4	4	23_4_4	-1	2	1	0	0.418359994888	389.0	-107.0	383.0	-104.0	1
3.0.1	2019_Mar_05_1306	s	s	5	2	SIC	98	2_1	2	1	3	2	23_3_2	1	1	1	0	0.881342887878	227.0	318.0	227.0	315.0	1
3.0.1	2019_Mar_05_1306	s	s	5	2	SIC	99	ABS	0	0	1	4	24_1_4	NA	NA	0	1	1.16782712936	None	None	None	None	1
3.0.1	2019_Mar_05_1306	s	s	5	2	SIC	100	ABS	0	0	2	4	24_2_4	NA	NA	0	1	1.20182585716	None	None	None	None	1
3.0.1	2019_Mar_05_1306	s	s	5	2	SIC	101	ABS	0	0	3	3	24_3_3	NA	NA	0	1	2.98665308952	None	None	None	None	1
3.0.1	2019_Mar_05_1306	s	s	5	2	SIC	102	2_1	2	1	4	1	23_4_1	2	0	1	0	0.434526205063	340.0	126.0	341.0	131.0	1
3.0.1	2019_Mar_05_1306	s	s	5	2	SIC	103	4_2	4	2	1	2	23_1_2	3	0	1	0	0.443035125732	244.0	-333.0	237.0	-326.0	1
3.0.1	2019_Mar_05_1306	s	s	5	2	SIC	104	ABS	0	0	4	2	24_4_2	NA	NA	0	1	4.40972709656	None	None	None	None	1
3.0.1	2019_Mar_05_1306	s	s	5	2	SIC	105	ABS	0	0	3	3	24_3_3	NA	NA	0	1	4.13404583931	None	None	None	None	1
3.0.1	2019_Mar_05_1306	s	s	5	2	SIC	106	ABS	0	0	1	4	24_1_4	NA	NA	0	1	1.881098032	None	None	None	None	1
3.0.1	2019_Mar_05_1306	s	s	5	2	SIC	107	4_1	4	1	1	2	23_1_2	3	1	1	0	0.592347860336	69.0	348.0	62.0	347.0	1
3.0.1	2019_Mar_05_1306	s	s	5	2	SIC	108	ABS	0	0	4	3	24_4_3	NA	NA	0	1	3.37762904167	None	None	None	None	1
3.0.1	2019_Mar_05_1306	s	s	5	2	SIC	109	2_1	2	1	1	4	23_1_4	-1	3	1	0	0.704972028732	443.0	-305.0	443.0	-305.0	1
3.0.1	2019_Mar_05_1306	s	s	5	2	SIC	110	2_2	2	2	4	1	23_4_1	2	-1	1	0	0.474327087402	168.0	-410.0	171.0	-412.0	1
3.0.1	2019_Mar_05_1306	s	s	5	2	SIC	111	ABS	0	0	1	4	24_1_4	NA	NA	0	1	1.90753102303	None	None	None	None	1
3.0.1	2019_Mar_05_1306	s	s	5	2	SIC	112	ABS	0	0	2	2	24_2_2	NA	NA	0	1	4.23338699341	None	None	None	None	1
3.0.1	2019_Mar_05_1306	s	s	5	2	SIC	113	ABS	0	0	2	1	24_2_1	NA	NA	0	1	2.4737238884	None	None	None	None	1
3.0.1	2019_Mar_05_1306	s	s	5	2	SIC	114	4_3	4	3	3	3	23_3_3	1	0	1	0	0.662821054459	-274.0	-205.0	-275.0	-207.0	1
3.0.1	2019_Mar_05_1306	s	s	5	2	SIC	115	4_2	4	2	1	4	23_1_4	3	2	1	0	0.451225996017	-68.0	99.0	-69.0	106.0	1
3.0.1	2019_Mar_05_1306	s	s	5	2	SIC	116	ABS	0	0	2	3	24_2_3	NA	NA	0	1	3.80993700027	None	None	None	None	1
3.0.1	2019_Mar_05_1306	s	s	5	2	SIC	117	1_1	1	1	3	4	23_3_4	2	3	1	0	0.437338113785	-184.0	-6.0	-181.0	-10.0	1
3.0.1	2019_Mar_05_1306	s	s	5	2	SIC	118	ABS	0	0	4	4	24_4_4	NA	NA	0	1	1.05780911446	None	None	None	None	1
3.0.1	2019_Mar_05_1306	s	s	5	2	SIC	119	2_2	2	2	1	2	23_1_2	-1	0	0	1	3.5584499836	380.0	99.0	None	None	0
3.0.1	2019_Mar_05_1306	s	s	5	2	SIC	120	ABS	0	0	4	2	24_4_2	NA	NA	0	1	1.08428311348	None	None	None	None	1
3.0.1	2019_Mar_05_1306	s	s	5	2	SIC	121	ABS	0	0	3	4	24_3_4	NA	NA	0	1	0.907739877701	None	None	None	None	1
3.0.1	2019_Mar_05_1306	s	s	5	2	SIC	122	2_4	2	4	4	3	23_4_3	2	1	1	0	0.528970956802	134.0	-301.0	136.0	-296.0	1
3.0.1	2019_Mar_05_1306	s	s	5	2	SIC	123	ABS	0	0	1	2	24_1_2	NA	NA	0	1	2.36818385124	None	None	None	None	1
3.0.1	2019_Mar_05_1306	s	s	5	2	SIC	124	1_3	1	3	4	2	23_4_2	3	1	1	0	0.502286195755	-520.0	-196.0	-516.0	-197.0	1
3.0.1	2019_Mar_05_1306	s	s	5	2	SIC	125	3_4	3	4	3	3	23_3_3	0	1	1	0	0.740269899368	-223.0	-164.0	-223.0	-163.0	1
3.0.1	2019_Mar_05_1306	s	s	5	2	SIC	126	3_3	3	3	2	4	23_2_4	1	-1	1	0	0.469773054123	30.0	-347.0	27.0	-351.0	1
3.0.1	2019_Mar_05_1306	s	s	5	2	SIC	127	3_2	3	2	3	1	23_3_1	0	-1	0	1	1.36375308037	-498.0	-232.0	None	None	0
3.0.1	2019_Mar_05_1306	s	s	5	2	SIC	128	ABS	0	0	4	3	24_4_3	NA	NA	0	1	2.45047712326	None	None	None	None	1
3.0.1	2019_Mar_05_1306	s	s	5	2	SIC	129	2_4	2	4	1	2	23_1_2	-1	2	1	0	0.613872051239	57.0	111.0	54.0	112.0	1
3.0.1	2019_Mar_05_1306	s	s	5	2	SIC	130	ABS	0	0	1	3	24_1_3	NA	NA	0	1	5.25656604767	None	None	None	None	1
3.0.1	2019_Mar_05_1306	s	s	5	2	SIC	131	2_2	2	2	4	4	23_4_4	2	2	1	0	0.672574996948	265.0	128.0	267.0	121.0	1
3.0.1	2019_Mar_05_1306	s	s	5	2	SIC	132	ABS	0	0	3	4	24_3_4	NA	NA	0	1	1.72160100937	None	None	None	None	1
3.0.1	2019_Mar_05_1306	s	s	5	2	SIC	133	4_4	4	4	1	3	23_1_3	3	1	1	0	0.470062971115	-155.0	-290.0	-155.0	-288.0	1
3.0.1	2019_Mar_05_1306	s	s	5	2	SIC	134	2_2	2	2	2	4	23_2_4	0	2	1	0	0.716790914536	-518.0	137.0	-512.0	129.0	1
3.0.1	2019_Mar_05_1306	s	s	5	2	SIC	135	4_1	4	1	4	3	23_4_3	0	2	1	0	1.96914601326	281.0	-335.0	275.0	-327.0	1
3.0.1	2019_Mar_05_1306	s	s	5	2	SIC	136	4_2	4	2	4	1	23_4_1	0	-1	1	0	2.60316109657	400.0	310.0	397.0	308.0	1
3.0.1	2019_Mar_05_1306	s	s	5	2	SIC	137	2_3	2	3	4	4	23_4_4	2	-1	1	0	0.442180871964	441.0	18.0	443.0	17.0	1
3.0.1	2019_Mar_05_1306	s	s	5	2	SIC	138	ABS	0	0	1	1	24_1_1	NA	NA	0	1	2.37120389938	None	None	None	None	1
3.0.1	2019_Mar_05_1306	s	s	5	2	SIC	139	3_3	3	3	1	1	23_1_1	2	2	1	0	0.822657823563	316.0	-412.0	314.0	-410.0	1
3.0.1	2019_Mar_05_1306	s	s	5	2	SIC	140	2_2	2	2	2	1	23_2_1	0	-1	1	0	1.28128600121	372.0	279.0	369.0	280.0	1
3.0.1	2019_Mar_05_1306	s	s	5	2	SIC	141	4_4	4	4	1	2	23_1_2	3	2	1	0	0.462590932846	-274.0	-71.0	-272.0	-70.0	1
3.0.1	2019_Mar_05_1306	s	s	5	2	SIC	142	3_4	3	4	1	1	23_1_1	2	3	1	0	0.451599121094	294.0	-250.0	303.0	-248.0	1
3.0.1	2019_Mar_05_1306	s	s	5	2	SIC	143	ABS	0	0	4	1	24_4_1	NA	NA	0	1	1.6458029747	None	None	None	None	1
3.0.1	2019_Mar_05_1306	s	s	5	2	SIC	144	ABS	0	0	2	2	24_2_2	NA	NA	0	1	3.18669295311	None	None	None	None	1
3.0.1	2019_Mar_05_1306	s	s	5	2	SIC	145	4_4	4	4	2	1	23_2_1	2	3	1	0	0.555088043213	347.0	71.0	341.0	66.0	1
3.0.1	2019_Mar_05_1306	s	s	5	2	SIC	146	ABS	0	0	4	4	24_4_4	NA	NA	0	1	0.954867839813	None	None	None	None	1
3.0.1	2019_Mar_05_1306	s	s	5	2	SIC	147	1_1	1	1	3	2	23_3_2	2	1	1	0	0.4815928936	-413.0	331.0	-419.0	332.0	1
3.0.1	2019_Mar_05_1306	s	s	5	2	SIC	148	3_1	3	1	1	3	23_1_3	2	2	1	0	0.458034992218	-71.0	-58.0	-67.0	-51.0	1
3.0.1	2019_Mar_05_1306	s	s	5	2	SIC	149	4_2	4	2	1	3	23_1_3	3	1	1	0	0.422971963882	-330.0	388.0	-325.0	384.0	1
3.0.1	2019_Mar_05_1306	s	s	5	2	SIC	150	ABS	0	0	2	3	24_2_3	NA	NA	0	1	3.97243714333	None	None	None	None	1
3.0.1	2019_Mar_05_1306	s	s	5	2	SIC	151	ABS	0	0	4	4	24_4_4	NA	NA	0	1	0.928443193436	None	None	None	None	1
3.0.1	2019_Mar_05_1306	s	s	5	2	SIC	152	ABS	0	0	2	1	24_2_1	NA	NA	0	1	1.09641098976	None	None	None	None	1
3.0.1	2019_Mar_05_1306	s	s	5	2	SIC	153	2_4	2	4	2	2	23_2_2	0	2	1	0	0.528687000275	194.0	-257.0	198.0	-251.0	1
3.0.1	2019_Mar_05_1306	s	s	5	2	SIC	154	4_3	4	3	2	3	23_2_3	2	0	1	0	0.411046981812	319.0	-28.0	323.0	-36.0	1
3.0.1	2019_Mar_05_1306	s	s	5	2	SIC	155	ABS	0	0	1	1	24_1_1	NA	NA	0	1	0.81570315361	None	None	None	None	1
3.0.1	2019_Mar_05_1306	s	s	5	2	SIC	156	ABS	0	0	3	1	24_3_1	NA	NA	0	1	1.03437113762	None	None	None	None	1
3.0.1	2019_Mar_05_1306	s	s	5	2	SIC	157	ABS	0	0	1	4	24_1_4	NA	NA	0	1	1.42246580124	None	None	None	None	1
3.0.1	2019_Mar_05_1306	s	s	5	2	SIC	158	4_1	4	1	3	3	23_3_3	1	2	1	0	0.410923957825	161.0	179.0	155.0	179.0	1
3.0.1	2019_Mar_05_1306	s	s	5	2	SIC	159	2_4	2	4	2	1	23_2_1	0	3	1	0	0.49328494072	-372.0	88.0	-362.0	88.0	1
3.0.1	2019_Mar_05_1306	s	s	5	2	SIC	160	1_4	1	4	2	3	23_2_3	1	1	1	0	0.603574991226	-90.0	-261.0	-86.0	-259.0	1
3.0.1	2019_Mar_05_1306	s	s	5	2	SIC	161	ABS	0	0	4	2	24_4_2	NA	NA	0	1	2.91426897049	None	None	None	None	1
3.0.1	2019_Mar_05_1306	s	s	5	2	SIC	162	ABS	0	0	4	1	24_4_1	NA	NA	0	1	2.57545804977	None	None	None	None	1
3.0.1	2019_Mar_05_1306	s	s	5	2	SIC	163	1_1	1	1	4	2	23_4_2	3	1	1	0	0.446269035339	-342.0	344.0	-345.0	346.0	1
3.0.1	2019_Mar_05_1306	s	s	5	2	SIC	164	3_4	3	4	3	2	23_3_2	0	2	1	0	0.528599977493	224.0	-53.0	223.0	-51.0	1
3.0.1	2019_Mar_05_1306	s	s	5	2	SIC	165	ABS	0	0	1	1	24_1_1	NA	NA	0	1	3.37215209007	None	None	None	None	1
3.0.1	2019_Mar_05_1306	s	s	5	2	SIC	166	ABS	0	0	3	2	24_3_2	NA	NA	0	1	3.29909014702	None	None	None	None	1
3.0.1	2019_Mar_05_1306	s	s	5	2	SIC	167	ABS	0	0	2	1	24_2_1	NA	NA	0	1	1.47366881371	None	None	None	None	1
3.0.1	2019_Mar_05_1306	s	s	5	2	SIC	168	2_2	2	2	4	3	23_4_3	2	1	1	0	0.425645828247	81.0	44.0	75.0	38.0	1
3.0.1	2019_Mar_05_1306	s	s	5	2	SIC	169	2_3	2	3	3	1	23_3_1	1	2	1	0	0.478711128235	328.0	68.0	327.0	73.0	1
3.0.1	2019_Mar_05_1306	s	s	5	2	SIC	170	ABS	0	0	1	3	24_1_3	NA	NA	0	1	1.85755300522	None	None	None	None	1
3.0.1	2019_Mar_05_1306	s	s	5	2	SIC	171	ABS	0	0	1	3	24_1_3	NA	NA	0	1	4.14216518402	None	None	None	None	1
3.0.1	2019_Mar_05_1306	s	s	5	2	SIC	172	ABS	0	0	3	1	24_3_1	NA	NA	0	1	1.32071089745	None	None	None	None	1
3.0.1	2019_Mar_05_1306	s	s	5	2	SIC	173	3_1	3	1	1	1	23_1_1	2	0	1	0	0.673699855804	186.0	344.0	195.0	340.0	1
3.0.1	2019_Mar_05_1306	s	s	5	2	SIC	174	ABS	0	0	3	4	24_3_4	NA	NA	0	1	1.15213990211	None	None	None	None	1
3.0.1	2019_Mar_05_1306	s	s	5	2	SIC	175	2_3	2	3	4	3	23_4_3	2	0	1	0	0.545334100723	539.0	-83.0	543.0	-81.0	1
3.0.1	2019_Mar_05_1306	s	s	5	2	SIC	176	ABS	0	0	4	2	24_4_2	NA	NA	0	1	4.36274600029	None	None	None	None	1
3.0.1	2019_Mar_05_1306	s	s	5	2	SIC	177	1_2	1	2	2	4	23_2_4	1	2	1	0	1.13198494911	516.0	-369.0	521.0	-371.0	1
3.0.1	2019_Mar_05_1306	s	s	5	2	SIC	178	2_2	2	2	3	4	23_3_4	1	2	1	0	0.437385797501	189.0	59.0	192.0	58.0	1
3.0.1	2019_Mar_05_1306	s	s	5	2	SIC	179	ABS	0	0	3	3	24_3_3	NA	NA	0	1	1.73112297058	None	None	None	None	1
3.0.1	2019_Mar_05_1306	s	s	5	2	SIC	180	2_2	2	2	3	2	23_3_2	1	0	1	0	0.709397792816	-314.0	-237.0	-313.0	-230.0	1
3.0.1	2019_Mar_05_1306	s	s	5	2	SIC	181	ABS	0	0	1	4	24_1_4	NA	NA	0	1	1.56851696968	None	None	None	None	1
3.0.1	2019_Mar_05_1306	s	s	5	2	SIC	182	2_3	2	3	2	2	23_2_2	0	1	1	0	2.24566602707	350.0	-312.0	359.0	-315.0	1
3.0.1	2019_Mar_05_1306	s	s	5	2	SIC	183	ABS	0	0	2	2	24_2_2	NA	NA	0	1	2.7896900177	None	None	None	None	1
3.0.1	2019_Mar_05_1306	s	s	5	2	SIC	184	ABS	0	0	3	1	24_3_1	NA	NA	0	1	1.59886002541	None	None	None	None	1
3.0.1	2019_Mar_05_1306	s	s	5	2	SIC	185	3_3	3	3	4	1	23_4_1	-1	2	1	0	0.422626018524	25.0	7.0	18.0	10.0	1
3.0.1	2019_Mar_05_1306	s	s	5	2	SIC	186	ABS	0	0	3	1	24_3_1	NA	NA	0	1	0.810834884644	None	None	None	None	1
3.0.1	2019_Mar_05_1306	s	s	5	2	SIC	187	ABS	0	0	1	2	24_1_2	NA	NA	0	1	2.46240901947	None	None	None	None	1
3.0.1	2019_Mar_05_1306	s	s	5	2	SIC	188	4_1	4	1	2	1	23_2_1	2	0	1	0	0.38745880127	285.0	175.0	281.0	178.0	1
3.0.1	2019_Mar_05_1306	s	s	5	2	SIC	189	3_4	3	4	4	4	23_4_4	-1	0	1	0	0.449315786362	-258.0	253.0	-257.0	255.0	1
3.0.1	2019_Mar_05_1306	s	s	5	2	SIC	190	4_1	4	1	1	4	23_1_4	3	3	1	0	0.437400817871	105.0	-376.0	99.0	-376.0	1
3.0.1	2019_Mar_05_1306	s	s	5	2	SIC	191	2_4	2	4	3	4	23_3_4	1	0	1	0	0.437403917313	-112.0	-15.0	-106.0	-14.0	1
3.0.1	2019_Mar_05_1306	s	s	5	2	SIC	192	ABS	0	0	4	2	24_4_2	NA	NA	0	1	2.01714682579	None	None	None	None	1
3.0.1	2019_Mar_05_1306	s	s	5	2	SIC	193	1_3	1	3	2	3	23_2_3	1	0	0	1	3.39145803452	392.0	-343.0	None	None	0
3.0.1	2019_Mar_05_1306	s	s	5	2	SIC	194	3_1	3	1	4	4	23_4_4	-1	3	1	0	0.410978078842	-407.0	-205.0	-398.0	-197.0	1
3.0.1	2019_Mar_05_1306	s	s	5	2	SIC	195	ABS	0	0	2	1	24_2_1	NA	NA	0	1	1.15773916245	None	None	None	None	1
3.0.1	2019_Mar_05_1306	s	s	5	2	SIC	196	3_3	3	3	4	2	23_4_2	-1	1	1	0	0.437409162521	86.0	384.0	84.0	385.0	1
3.0.1	2019_Mar_05_1306	s	s	5	2	SIC	197	ABS	0	0	2	1	24_2_1	NA	NA	0	1	1.08143210411	None	None	None	None	1
3.0.1	2019_Mar_05_1306	s	s	5	2	SIC	198	ABS	0	0	1	2	24_1_2	NA	NA	0	1	3.75453996658	None	None	None	None	1
3.0.1	2019_Mar_05_1306	s	s	5	2	SIC	199	1_3	1	3	2	1	23_2_1	1	2	1	0	0.704931020737	277.0	-180.0	266.0	-178.0	1
3.0.1	2019_Mar_05_1306	s	s	5	2	SIC	200	ABS	0	0	1	2	24_1_2	NA	NA	0	1	4.17873597145	None	None	None	None	1
3.0.1	2019_Mar_05_1306	s	s	5	2	SIC	201	2_1	2	1	4	3	23_4_3	2	2	1	0	0.474530935287	334.0	-233.0	339.0	-229.0	1
3.0.1	2019_Mar_05_1306	s	s	5	2	SIC	202	4_4	4	4	4	3	23_4_3	0	1	1	0	0.59244799614	150.0	-6.0	141.0	-1.0	1
3.0.1	2019_Mar_05_1306	s	s	5	2	SIC	203	4_4	4	4	1	1	23_1_1	3	3	1	0	0.387458086014	178.0	-271.0	183.0	-269.0	1
3.0.1	2019_Mar_05_1306	s	s	5	2	SIC	204	ABS	0	0	1	3	24_1_3	NA	NA	0	1	4.46864080429	None	None	None	None	1
3.0.1	2019_Mar_05_1306	s	s	5	2	SIC	205	ABS	0	0	4	2	24_4_2	NA	NA	0	1	2.9983921051	None	None	None	None	1
3.0.1	2019_Mar_05_1306	s	s	5	2	SIC	206	3_4	3	4	1	4	23_1_4	2	0	1	0	0.540405988693	296.0	-224.0	296.0	-224.0	1
3.0.1	2019_Mar_05_1306	s	s	5	2	SIC	207	4_2	4	2	2	1	23_2_1	2	-1	1	0	0.410952091217	416.0	376.0	417.0	371.0	1
3.0.1	2019_Mar_05_1306	s	s	5	2	SIC	208	1_2	1	2	2	2	23_2_2	1	0	0	1	2.35156202316	142.0	285.0	None	None	0
3.0.1	2019_Mar_05_1306	s	s	5	2	SIC	209	2_2	2	2	3	3	23_3_3	1	1	1	0	0.678213834763	238.0	-359.0	242.0	-352.0	1
3.0.1	2019_Mar_05_1306	s	s	5	2	SIC	210	ABS	0	0	3	4	24_3_4	NA	NA	0	1	1.59883093834	None	None	None	None	1
3.0.1	2019_Mar_05_1306	s	s	5	2	SIC	211	3_1	3	1	3	3	23_3_3	0	2	1	0	1.44591403008	-55.0	-92.0	-60.0	-93.0	1
3.0.1	2019_Mar_05_1306	s	s	5	2	SIC	212	2_4	2	4	3	3	23_3_3	1	1	1	0	0.559933185577	-305.0	-19.0	-305.0	-24.0	1
3.0.1	2019_Mar_05_1306	s	s	5	2	SIC	213	ABS	0	0	4	1	24_4_1	NA	NA	1	0	0.752011060715	None	None	297.0	-189.0	0
3.0.1	2019_Mar_05_1306	s	s	5	2	SIC	214	1_4	1	4	3	4	23_3_4	2	0	1	0	0.516837120056	36.0	133.0	35.0	137.0	1
3.0.1	2019_Mar_05_1306	s	s	5	2	SIC	215	4_1	4	1	1	3	23_1_3	3	2	1	0	0.404538154602	23.0	171.0	20.0	174.0	1
3.0.1	2019_Mar_05_1306	s	s	5	2	SIC	216	4_4	4	4	3	2	23_3_2	1	2	1	0	0.496211051941	-307.0	-164.0	-310.0	-165.0	1
3.0.1	2019_Mar_05_1306	s	s	5	2	SIC	217	2_3	2	3	1	2	23_1_2	-1	1	1	0	1.31145000458	121.0	-46.0	124.0	-45.0	1
3.0.1	2019_Mar_05_1306	s	s	5	2	SIC	218	3_2	3	2	1	3	23_1_3	2	1	1	0	0.443049907684	-263.0	79.0	-272.0	86.0	1
3.0.1	2019_Mar_05_1306	s	s	5	2	SIC	219	ABS	0	0	4	1	24_4_1	NA	NA	0	1	1.97306799889	None	None	None	None	1
3.0.1	2019_Mar_05_1306	s	s	5	2	SIC	220	ABS	0	0	3	2	24_3_2	NA	NA	0	1	3.31171584129	None	None	None	None	1
3.0.1	2019_Mar_05_1306	s	s	5	2	SIC	221	2_4	2	4	4	1	23_4_1	2	3	1	0	0.422763109207	-374.0	-69.0	-371.0	-63.0	1
3.0.1	2019_Mar_05_1306	s	s	5	2	SIC	222	ABS	0	0	1	4	24_1_4	NA	NA	0	1	1.5215280056	None	None	None	None	1
3.0.1	2019_Mar_05_1306	s	s	5	2	SIC	223	ABS	0	0	3	3	24_3_3	NA	NA	0	1	3.94225502014	None	None	None	None	1
3.0.1	2019_Mar_05_1306	s	s	5	2	SIC	224	4_2	4	2	3	4	23_3_4	1	2	1	0	0.481624126434	-57.0	314.0	-61.0	308.0	1
3.0.1	2019_Mar_05_1306	s	s	5	2	SIC	225	ABS	0	0	2	3	24_2_3	NA	NA	0	1	4.57438993454	None	None	None	None	1
3.0.1	2019_Mar_05_1306	s	s	5	2	SIC	226	ABS	0	0	3	3	24_3_3	NA	NA	0	1	2.26039218903	None	None	None	None	1
3.0.1	2019_Mar_05_1306	s	s	5	2	SIC	227	1_3	1	3	3	2	23_3_2	2	1	1	0	0.657871007919	-219.0	228.0	-220.0	230.0	1
3.0.1	2019_Mar_05_1306	s	s	5	2	SIC	228	1_2	1	2	3	2	23_3_2	2	0	1	0	0.427428007126	-365.0	297.0	-374.0	300.0	1
3.0.1	2019_Mar_05_1306	s	s	5	2	SIC	229	ABS	0	0	3	2	24_3_2	NA	NA	0	1	2.35146403313	None	None	None	None	1
3.0.1	2019_Mar_05_1306	s	s	5	2	SIC	230	ABS	0	0	2	3	24_2_3	NA	NA	0	1	4.29214096069	None	None	None	None	1
3.0.1	2019_Mar_05_1306	s	s	5	2	SIC	231	ABS	0	0	1	3	24_1_3	NA	NA	0	1	3.44988894463	None	None	None	None	1
3.0.1	2019_Mar_05_1306	s	s	5	2	SIC	232	ABS	0	0	3	2	24_3_2	NA	NA	0	1	4.28040385246	None	None	None	None	1
3.0.1	2019_Mar_05_1306	s	s	5	2	SIC	233	4_3	4	3	3	1	23_3_1	1	2	1	0	0.40425992012	357.0	123.0	364.0	127.0	1
3.0.1	2019_Mar_05_1306	s	s	5	2	SIC	234	ABS	0	0	3	1	24_3_1	NA	NA	0	1	0.775606155396	None	None	None	None	1
3.0.1	2019_Mar_05_1306	s	s	5	2	SIC	235	3_2	3	2	2	4	23_2_4	1	2	1	0	0.587438106537	-334.0	-51.0	-340.0	-51.0	1
3.0.1	2019_Mar_05_1306	s	s	5	2	SIC	236	ABS	0	0	2	4	24_2_4	NA	NA	0	1	1.00434398651	None	None	None	None	1
3.0.1	2019_Mar_05_1306	s	s	5	2	SIC	237	ABS	0	0	3	2	24_3_2	NA	NA	0	1	2.09097385406	None	None	None	None	1
3.0.1	2019_Mar_05_1306	s	s	5	2	SIC	238	3_4	3	4	4	2	23_4_2	-1	2	1	0	0.516782999039	-106.0	338.0	-104.0	332.0	1
3.0.1	2019_Mar_05_1306	s	s	5	2	SIC	239	ABS	0	0	4	3	24_4_3	NA	NA	0	1	1.89287877083	None	None	None	None	1
3.0.1	2019_Mar_05_1306	s	s	5	2	SIC	240	ABS	0	0	1	1	24_1_1	NA	NA	0	1	1.03432512283	None	None	None	None	1
3.0.1	2019_Mar_05_1306	s	s	5	2	SIC	241	4_2	4	2	1	1	23_1_1	3	-1	1	0	0.510629177094	-87.0	30.0	-89.0	37.0	1
3.0.1	2019_Mar_05_1306	s	s	5	2	SIC	242	ABS	0	0	1	3	24_1_3	NA	NA	0	1	1.96859097481	None	None	None	None	1
3.0.1	2019_Mar_05_1306	s	s	5	2	SIC	243	3_4	3	4	2	2	23_2_2	1	2	1	0	0.411102056503	-343.0	-202.0	-356.0	-198.0	1
3.0.1	2019_Mar_05_1306	s	s	5	2	SIC	244	4_3	4	3	1	2	23_1_2	3	1	1	0	0.368673801422	-335.0	-115.0	-343.0	-119.0	1
3.0.1	2019_Mar_05_1306	s	s	5	2	SIC	245	ABS	0	0	4	2	24_4_2	NA	NA	0	1	0.966681003571	None	None	None	None	1
3.0.1	2019_Mar_05_1306	s	s	5	2	SIC	246	3_4	3	4	4	3	23_4_3	-1	1	1	0	0.438401937485	-317.0	-293.0	-320.0	-293.0	1
3.0.1	2019_Mar_05_1306	s	s	5	2	SIC	247	4_3	4	3	2	2	23_2_2	2	1	1	0	0.378592967987	-56.0	179.0	-46.0	187.0	1
3.0.1	2019_Mar_05_1306	s	s	5	2	SIC	248	ABS	0	0	2	3	24_2_3	NA	NA	0	1	1.70478606224	None	None	None	None	1
3.0.1	2019_Mar_05_1306	s	s	5	2	SIC	249	3_3	3	3	3	1	23_3_1	0	2	1	0	0.857834100723	125.0	176.0	129.0	185.0	1
3.0.1	2019_Mar_05_1306	s	s	5	2	SIC	250	3_2	3	2	2	3	23_2_3	1	1	1	0	0.473835229874	-351.0	89.0	-346.0	92.0	1
3.0.1	2019_Mar_05_1306	s	s	5	2	SIC	251	ABS	0	0	2	3	24_2_3	NA	NA	0	1	1.13343501091	None	None	None	None	1
3.0.1	2019_Mar_05_1306	s	s	5	2	SIC	252	ABS	0	0	4	3	24_4_3	NA	NA	0	1	1.36366415024	None	None	None	None	1
3.0.1	2019_Mar_05_1306	s	s	5	2	SIC	253	ABS	0	0	4	3	24_4_3	NA	NA	0	1	2.14277601242	None	None	None	None	1
3.0.1	2019_Mar_05_1306	s	s	5	2	SIC	254	4_3	4	3	1	3	23_1_3	3	0	1	0	0.481595993042	-4.0	173.0	-7.0	177.0	1
3.0.1	2019_Mar_05_1306	s	s	5	2	SIC	255	ABS	0	0	3	4	24_3_4	NA	NA	0	1	1.30485701561	None	None	None	None	1
3.0.1	2019_Mar_05_1306	s	s	5	2	SIC	256	ABS	0	0	2	4	24_2_4	NA	NA	0	1	1.22246789932	None	None	None	None	1
3.0.1	2019_Mar_05_1306	s	s	5	2	SIC	257	1_4	1	4	1	3	23_1_3	0	1	1	0	0.69318819046	310.0	189.0	311.0	186.0	1
3.0.1	2019_Mar_05_1306	s	s	5	2	SIC	258	ABS	0	0	4	3	24_4_3	NA	NA	0	1	1.24608683586	None	None	None	None	1
3.0.1	2019_Mar_05_1306	s	s	5	2	SIC	259	ABS	0	0	2	2	24_2_2	NA	NA	0	1	1.71938800812	None	None	None	None	1
3.0.1	2019_Mar_05_1306	s	s	5	2	SIC	260	3_4	3	4	1	3	23_1_3	2	1	1	0	0.575674057007	368.0	254.0	370.0	259.0	1
3.0.1	2019_Mar_05_1306	s	s	5	2	SIC	261	1_4	1	4	4	3	23_4_3	3	1	1	0	0.422724962234	155.0	235.0	157.0	242.0	1
3.0.1	2019_Mar_05_1306	s	s	5	2	SIC	262	3_1	3	1	2	3	23_2_3	1	2	1	0	0.604100942612	402.0	-81.0	409.0	-82.0	1
3.0.1	2019_Mar_05_1306	s	s	5	2	SIC	263	4_1	4	1	3	1	23_3_1	1	0	1	0	0.411083936691	472.0	147.0	471.0	147.0	1
3.0.1	2019_Mar_05_1306	s	s	5	2	SIC	264	3_2	3	2	4	1	23_4_1	-1	-1	1	0	0.399201869965	170.0	258.0	167.0	254.0	1
3.0.1	2019_Mar_05_1306	s	s	5	2	SIC	265	ABS	0	0	1	4	24_1_4	NA	NA	0	1	1.43706703186	None	None	None	None	1
3.0.1	2019_Mar_05_1306	s	s	5	2	SIC	266	ABS	0	0	4	1	24_4_1	NA	NA	0	1	0.815314054489	None	None	None	None	1
3.0.1	2019_Mar_05_1306	s	s	5	2	SIC	267	ABS	0	0	2	1	24_2_1	NA	NA	0	1	1.63411307335	None	None	None	None	1
3.0.1	2019_Mar_05_1306	s	s	5	2	SIC	268	4_2	4	2	3	1	23_3_1	1	-1	1	0	0.458014011383	500.0	233.0	496.0	233.0	1
3.0.1	2019_Mar_05_1306	s	s	5	2	SIC	269	ABS	0	0	4	1	24_4_1	NA	NA	0	1	0.722532987595	None	None	None	None	1
3.0.1	2019_Mar_05_1306	s	s	5	2	SIC	270	ABS	0	0	3	2	24_3_2	NA	NA	0	1	2.48093986511	None	None	None	None	1
3.0.1	2019_Mar_05_1306	s	s	5	2	SIC	271	2_4	2	4	3	1	23_3_1	1	3	1	0	0.51062297821	420.0	-121.0	423.0	-124.0	1
3.0.1	2019_Mar_05_1306	s	s	5	2	SIC	272	2_1	2	1	2	4	23_2_4	0	3	1	0	0.599162101746	129.0	-152.0	124.0	-149.0	1
3.0.1	2019_Mar_05_1306	s	s	5	2	SIC	273	3_2	3	2	3	4	23_3_4	0	2	1	0	1.02547287941	474.0	-400.0	477.0	-392.0	1
3.0.1	2019_Mar_05_1306	s	s	5	2	SIC	274	1_3	1	3	2	2	23_2_2	1	1	1	0	0.810817956924	-483.0	22.0	-484.0	17.0	1
3.0.1	2019_Mar_05_1306	s	s	5	2	SIC	275	ABS	0	0	1	3	24_1_3	NA	NA	0	1	1.86932611465	None	None	None	None	1
3.0.1	2019_Mar_05_1306	s	s	5	2	SIC	276	ABS	0	0	2	4	24_2_4	NA	NA	0	1	1.39891600609	None	None	None	None	1
3.0.1	2019_Mar_05_1306	s	s	5	2	SIC	277	2_3	2	3	4	2	23_4_2	2	1	1	0	0.481566905975	-272.0	-372.0	-271.0	-366.0	1
3.0.1	2019_Mar_05_1306	s	s	5	2	SIC	278	ABS	0	0	2	4	24_2_4	NA	NA	0	1	1.28127098083	None	None	None	None	1
3.0.1	2019_Mar_05_1306	s	s	5	2	SIC	279	3_2	3	2	4	2	23_4_2	-1	0	1	0	0.61105298996	240.0	-206.0	236.0	-209.0	1
3.0.1	2019_Mar_05_1306	s	s	5	2	SIC	280	ABS	0	0	3	1	24_3_1	NA	NA	0	1	1.64590215683	None	None	None	None	1
3.0.1	2019_Mar_05_1306	s	s	5	2	SIC	281	ABS	0	0	3	1	24_3_1	NA	NA	0	1	1.7636039257	None	None	None	None	1
3.0.1	2019_Mar_05_1306	s	s	5	2	SIC	282	3_3	3	3	1	2	23_1_2	2	1	1	0	0.87454199791	360.0	380.0	364.0	381.0	1
3.0.1	2019_Mar_05_1306	s	s	5	2	SIC	283	1_1	1	1	4	1	23_4_1	3	0	1	0	0.392539024353	-230.0	-191.0	-234.0	-184.0	1
3.0.1	2019_Mar_05_1306	s	s	5	2	SIC	284	3_1	3	1	2	1	23_2_1	1	0	1	0	0.439570903778	39.0	62.0	38.0	63.0	1
3.0.1	2019_Mar_05_1306	s	s	5	2	SIC	285	ABS	0	0	2	2	24_2_2	NA	NA	0	1	3.54557490349	None	None	None	None	1
3.0.1	2019_Mar_05_1306	s	s	5	2	SIC	286	4_2	4	2	2	2	23_2_2	2	0	1	0	0.378548145294	355.0	52.0	355.0	54.0	1
3.0.1	2019_Mar_05_1306	s	s	5	2	SIC	287	1_2	1	2	1	1	23_1_1	0	-1	0	1	1.62781596184	-324.0	-65.0	None	None	0
3.0.1	2019_Mar_05_1306	s	s	5	2	SIC	288	ABS	0	0	3	2	24_3_2	NA	NA	0	1	2.02515602112	None	None	None	None	1
3.0.1	2019_Mar_05_1306	s	s	5	2	SIC	289	ABS	0	0	3	2	24_3_2	NA	NA	0	1	2.12185001373	None	None	None	None	1
3.0.1	2019_Mar_05_1306	s	s	5	2	SIC	290	ABS	0	0	3	2	24_3_2	NA	NA	0	1	2.09789896011	None	None	None	None	1
3.0.1	2019_Mar_05_1306	s	s	5	2	SIC	291	ABS	0	0	4	2	24_4_2	NA	NA	0	1	2.5449719429	None	None	None	None	1
3.0.1	2019_Mar_05_1306	s	s	5	2	SIC	292	ABS	0	0	1	3	24_1_3	NA	NA	0	1	3.18956899643	None	None	None	None	1
3.0.1	2019_Mar_05_1306	s	s	5	2	SIC	293	ABS	0	0	4	2	24_4_2	NA	NA	0	1	1.20846891403	None	None	None	None	1
3.0.1	2019_Mar_05_1306	s	s	5	2	SIC	294	1_1	1	1	1	3	23_1_3	0	2	1	0	1.73111414909	534.0	387.0	536.0	379.0	1
3.0.1	2019_Mar_05_1306	s	s	5	2	SIC	295	3_3	3	3	2	2	23_2_2	1	1	1	0	0.496160030365	-67.0	343.0	-58.0	344.0	1
3.0.1	2019_Mar_05_1306	s	s	5	2	SIC	296	ABS	0	0	4	4	24_4_4	NA	NA	0	1	1.22240209579	None	None	None	None	1
3.0.1	2019_Mar_05_1306	s	s	5	2	SIC	297	ABS	0	0	1	1	24_1_1	NA	NA	0	1	1.67963814735	None	None	None	None	1
3.0.1	2019_Mar_05_1306	s	s	5	2	SIC	298	ABS	0	0	1	3	24_1_3	NA	NA	0	1	2.68091201782	None	None	None	None	1
3.0.1	2019_Mar_05_1306	s	s	5	2	SIC	299	ABS	0	0	4	4	24_4_4	NA	NA	0	1	2.14004206657	None	None	None	None	1
3.0.1	2019_Mar_05_1306	s	s	5	2	SIC	300	ABS	0	0	2	4	24_2_4	NA	NA	0	1	1.84872984886	None	None	None	None	1
3.0.1	2019_Mar_05_1306	s	s	5	2	SIC	301	ABS	0	0	3	3	24_3_3	NA	NA	0	1	1.84873700142	None	None	None	None	1
3.0.1	2019_Mar_05_1306	s	s	5	2	SIC	302	1_1	1	1	2	1	23_2_1	1	0	0	1	1.22247195244	384.0	-386.0	None	None	0
3.0.1	2019_Mar_05_1306	s	s	5	2	SIC	303	3_1	3	1	1	2	23_1_2	2	1	1	0	0.614129066467	-360.0	280.0	-350.0	280.0	1
3.0.1	2019_Mar_05_1306	s	s	5	2	SIC	304	ABS	0	0	3	4	24_3_4	NA	NA	0	1	1.29690504074	None	None	None	None	1
3.0.1	2019_Mar_05_1306	s	s	5	2	SIC	305	1_3	1	3	3	1	23_3_1	2	2	1	0	0.545016050339	-294.0	-378.0	-303.0	-381.0	1
3.0.1	2019_Mar_05_1306	s	s	5	2	SIC	306	ABS	0	0	3	1	24_3_1	NA	NA	0	1	0.869578123093	None	None	None	None	1
3.0.1	2019_Mar_05_1306	s	s	5	2	SIC	307	2_4	2	4	2	3	23_2_3	0	1	1	0	0.709074020386	353.0	64.0	345.0	60.0	1
3.0.1	2019_Mar_05_1306	s	s	5	2	SIC	308	ABS	0	0	4	1	24_4_1	NA	NA	0	1	0.751986980438	None	None	None	None	1
3.0.1	2019_Mar_05_1306	s	s	5	2	SIC	309	3_2	3	2	4	3	23_4_3	-1	1	1	0	0.66426897049	488.0	330.0	487.0	326.0	1
3.0.1	2019_Mar_05_1306	s	s	5	2	SIC	310	ABS	0	0	2	3	24_2_3	NA	NA	0	1	3.93193817139	None	None	None	None	1
3.0.1	2019_Mar_05_1306	s	s	5	2	SIC	311	1_2	1	2	3	3	23_3_3	2	1	1	0	0.469870090485	-396.0	-80.0	-388.0	-81.0	1
3.0.1	2019_Mar_05_1306	s	s	5	2	SIC	312	3_1	3	1	4	3	23_4_3	-1	2	1	0	0.411063909531	-220.0	-379.0	-218.0	-377.0	1
3.0.1	2019_Mar_05_1306	s	s	5	2	SIC	313	3_2	3	2	2	2	23_2_2	1	0	1	0	0.721815109253	-510.0	-308.0	-505.0	-303.0	1
3.0.1	2019_Mar_05_1306	s	s	5	2	SIC	314	ABS	0	0	4	4	24_4_4	NA	NA	0	1	0.67605805397	None	None	None	None	1
3.0.1	2019_Mar_05_1306	s	s	5	2	SIC	315	ABS	0	0	1	4	24_1_4	NA	NA	0	1	1.06394505501	None	None	None	None	1
3.0.1	2019_Mar_05_1306	s	s	5	2	SIC	316	1_1	1	1	1	4	23_1_4	0	3	1	0	0.528544902802	-461.0	369.0	-461.0	366.0	1
3.0.1	2019_Mar_05_1306	s	s	5	2	SIC	317	3_3	3	3	4	4	23_4_4	-1	-1	1	0	0.387460947037	-413.0	-237.0	-414.0	-227.0	1
3.0.1	2019_Mar_05_1306	s	s	5	2	SIC	318	1_2	1	2	3	1	23_3_1	2	-1	1	0	0.399610996246	-115.0	369.0	-121.0	371.0	1
3.0.1	2019_Mar_05_1306	s	s	5	2	SIC	319	3_4	3	4	2	4	23_2_4	1	0	1	0	0.521197080612	-342.0	-135.0	-337.0	-129.0	1
3.0.1	2019_Mar_05_1306	s	s	5	2	SIC	320	4_1	4	1	3	4	23_3_4	1	3	1	0	0.416022062302	229.0	-115.0	233.0	-115.0	1
3.0.1	2019_Mar_05_1306	s	s	5	2	SIC	321	ABS	0	0	1	3	24_1_3	NA	NA	0	1	2.29266190529	None	None	None	None	1
3.0.1	2019_Mar_05_1306	s	s	5	2	SIC	322	2_1	2	1	2	3	23_2_3	0	2	1	0	0.634395122528	-205.0	-115.0	-202.0	-106.0	1
3.0.1	2019_Mar_05_1306	s	s	5	2	SIC	323	2_2	2	2	1	4	23_1_4	-1	2	1	0	0.540353059769	522.0	-167.0	530.0	-169.0	1
3.0.1	2019_Mar_05_1306	s	s	5	2	SIC	324	3_1	3	1	4	2	23_4_2	-1	1	1	0	0.391572952271	-460.0	-131.0	-456.0	-133.0	1
3.0.1	2019_Mar_05_1306	s	s	5	2	SIC	325	ABS	0	0	3	2	24_3_2	NA	NA	0	1	1.82716298103	None	None	None	None	1
3.0.1	2019_Mar_05_1306	s	s	5	2	SIC	326	ABS	0	0	2	1	24_2_1	NA	NA	0	1	1.21111893654	None	None	None	None	1
3.0.1	2019_Mar_05_1306	s	s	5	2	SIC	327	ABS	0	0	1	4	24_1_4	NA	NA	0	1	0.804157972336	None	None	None	None	1
3.0.1	2019_Mar_05_1306	s	s	5	2	SIC	328	2_1	2	1	4	2	23_4_2	2	1	1	0	0.475008010864	521.0	-143.0	519.0	-143.0	1
3.0.1	2019_Mar_05_1306	s	s	5	2	SIC	329	4_1	4	1	3	2	23_3_2	1	1	1	0	0.422734975815	-434.0	-14.0	-441.0	-13.0	1
3.0.1	2019_Mar_05_1306	s	s	5	2	SIC	330	2_3	2	3	2	4	23_2_4	0	-1	1	0	1.25771188736	-176.0	-378.0	-182.0	-381.0	1
3.0.1	2019_Mar_05_1306	s	s	5	2	SIC	331	ABS	0	0	4	1	24_4_1	NA	NA	0	1	0.869610786438	None	None	None	None	1
3.0.1	2019_Mar_05_1306	s	s	5	2	SIC	332	ABS	0	0	2	3	24_2_3	NA	NA	0	1	2.61364507675	None	None	None	None	1
3.0.1	2019_Mar_05_1306	s	s	5	2	SIC	333	ABS	0	0	4	1	24_4_1	NA	NA	0	1	0.705053091049	None	None	None	None	1
3.0.1	2019_Mar_05_1306	s	s	5	2	SIC	334	ABS	0	0	4	1	24_4_1	NA	NA	0	1	0.634840965271	None	None	None	None	1
3.0.1	2019_Mar_05_1306	s	s	5	2	SIC	335	1_3	1	3	1	2	23_1_2	0	1	1	0	1.34010100365	-26.0	-231.0	-18.0	-237.0	1
3.0.1	2019_Mar_05_1306	s	s	5	2	SIC	336	3_3	3	3	2	1	23_2_1	1	2	1	0	0.775547981262	202.0	376.0	197.0	371.0	1
3.0.1	2019_Mar_05_1306	s	s	5	2	SIC	337	1_4	1	4	4	2	23_4_2	3	2	1	0	0.368934869766	79.0	389.0	76.0	384.0	1
3.0.1	2019_Mar_05_1306	s	s	5	2	SIC	338	ABS	0	0	1	2	24_1_2	NA	NA	0	1	3.25177288055	None	None	None	None	1
3.0.1	2019_Mar_05_1306	s	s	5	2	SIC	339	4_4	4	4	2	2	23_2_2	2	2	1	0	0.403688907623	-103.0	-123.0	-102.0	-123.0	1
3.0.1	2019_Mar_05_1306	s	s	5	2	SIC	340	3_4	3	4	3	1	23_3_1	0	3	1	0	0.569908857346	229.0	262.0	229.0	259.0	1
3.0.1	2019_Mar_05_1306	s	s	5	2	SIC	341	1_3	1	3	1	4	23_1_4	0	-1	1	0	0.662992954254	-523.0	-205.0	-527.0	-200.0	1
3.0.1	2019_Mar_05_1306	s	s	5	2	SIC	342	ABS	0	0	4	2	24_4_2	NA	NA	0	1	2.31618213654	None	None	None	None	1
3.0.1	2019_Mar_05_1306	s	s	5	2	SIC	343	4_1	4	1	4	2	23_4_2	0	1	1	0	1.65768504143	289.0	191.0	281.0	190.0	1
3.0.1	2019_Mar_05_1306	s	s	5	2	SIC	344	ABS	0	0	1	2	24_1_2	NA	NA	0	1	2.42816901207	None	None	None	None	1
3.0.1	2019_Mar_05_1306	s	s	5	2	SIC	345	ABS	0	0	3	1	24_3_1	NA	NA	0	1	1.70470905304	None	None	None	None	1
3.0.1	2019_Mar_05_1306	s	s	5	2	SIC	346	4_1	4	1	2	4	23_2_4	2	3	1	0	0.387409210205	-310.0	-359.0	-302.0	-362.0	1
3.0.1	2019_Mar_05_1306	s	s	5	2	SIC	347	4_2	4	2	3	2	23_3_2	1	0	1	0	0.375715017319	-95.0	-95.0	-95.0	-99.0	1
3.0.1	2019_Mar_05_1306	s	s	5	2	SIC	348	ABS	0	0	3	3	24_3_3	NA	NA	0	1	3.48598194122	None	None	None	None	1
3.0.1	2019_Mar_05_1306	s	s	5	2	SIC	349	2_3	2	3	3	3	23_3_3	1	0	1	0	0.496189832687	36.0	261.0	42.0	253.0	1
3.0.1	2019_Mar_05_1306	s	s	5	2	SIC	350	ABS	0	0	2	1	24_2_1	NA	NA	0	1	1.89282512665	None	None	None	None	1
3.0.1	2019_Mar_05_1306	s	s	5	2	SIC	351	3_3	3	3	2	3	23_2_3	1	0	1	0	0.634405851364	-61.0	-46.0	-57.0	-41.0	1
3.0.1	2019_Mar_05_1306	s	s	5	2	SIC	352	ABS	0	0	2	1	24_2_1	NA	NA	0	1	1.17949604988	None	None	None	None	1
3.0.1	2019_Mar_05_1306	s	s	5	2	SIC	353	3_1	3	1	2	2	23_2_2	1	1	1	0	0.470149993896	-207.0	115.0	-215.0	118.0	1
3.0.1	2019_Mar_05_1306	s	s	5	2	SIC	354	2_4	2	4	1	1	23_1_1	-1	3	1	0	0.568774938583	-385.0	-184.0	-390.0	-181.0	1
3.0.1	2019_Mar_05_1306	s	s	5	2	SIC	355	1_2	1	2	3	4	23_3_4	2	2	1	0	0.422766923904	16.0	-177.0	26.0	-169.0	1
3.0.1	2019_Mar_05_1306	s	s	5	2	SIC	356	3_2	3	2	2	1	23_2_1	1	-1	1	0	0.764174938202	-43.0	-338.0	-39.0	-329.0	1
3.0.1	2019_Mar_05_1306	s	s	5	2	SIC	357	3_4	3	4	4	1	23_4_1	-1	3	1	0	0.458003997803	120.0	-311.0	117.0	-311.0	1
3.0.1	2019_Mar_05_1306	s	s	5	2	SIC	358	3_3	3	3	3	2	23_3_2	0	1	1	0	2.85073900223	473.0	-378.0	472.0	-376.0	1
3.0.1	2019_Mar_05_1306	s	s	5	2	SIC	359	ABS	0	0	1	3	24_1_3	NA	NA	0	1	2.65056610107	None	None	None	None	1
3.0.1	2019_Mar_05_1306	s	s	5	2	SIC	360	4_2	4	2	2	3	23_2_3	2	1	1	0	0.403692007065	-281.0	244.0	-283.0	245.0	1
3.0.1	2019_Mar_05_1306	s	s	5	2	SIC	361	4_4	4	4	1	4	23_1_4	3	0	1	0	0.410942077637	-277.0	247.0	-281.0	246.0	1
3.0.1	2019_Mar_05_1306	s	s	5	2	SIC	362	3_3	3	3	1	3	23_1_3	2	0	1	0	0.437422990799	-220.0	322.0	-224.0	319.0	1
3.0.1	2019_Mar_05_1306	s	s	5	2	SIC	363	1_3	1	3	4	3	23_4_3	3	0	1	0	0.422744989395	-493.0	-331.0	-497.0	-332.0	1
3.0.1	2019_Mar_05_1306	s	s	5	2	SIC	364	ABS	0	0	1	1	24_1_1	NA	NA	0	1	1.10944986343	None	None	None	None	1
3.0.1	2019_Mar_05_1306	s	s	5	2	SIC	365	ABS	0	0	1	3	24_1_3	NA	NA	0	1	2.09088015556	None	None	None	None	1
3.0.1	2019_Mar_05_1306	s	s	5	2	SIC	366	ABS	0	0	1	2	24_1_2	NA	NA	0	1	2.03669905663	None	None	None	None	1
3.0.1	2019_Mar_05_1306	s	s	5	2	SIC	367	4_3	4	3	4	2	23_4_2	0	1	1	0	2.36334180832	294.0	342.0	296.0	344.0	1
3.0.1	2019_Mar_05_1306	s	s	5	2	SIC	368	2_2	2	2	4	2	23_4_2	2	0	1	0	0.42778801918	-232.0	188.0	-231.0	194.0	1
3.0.1	2019_Mar_05_1306	s	s	5	2	SIC	369	3_2	3	2	1	2	23_1_2	2	0	1	0	0.498148918152	157.0	-32.0	162.0	-33.0	1
3.0.1	2019_Mar_05_1306	s	s	5	2	SIC	370	2_4	2	4	1	4	23_1_4	-1	0	0	1	1.01598405838	-468.0	152.0	None	None	0
3.0.1	2019_Mar_05_1306	s	s	5	2	SIC	371	ABS	0	0	3	4	24_3_4	NA	NA	0	1	1.07606101036	None	None	None	None	1
3.0.1	2019_Mar_05_1306	s	s	5	2	SIC	372	3_1	3	1	1	4	23_1_4	2	3	0	1	0.52400302887	55.0	-79.0	None	None	0
3.0.1	2019_Mar_05_1306	s	s	5	2	SIC	373	ABS	0	0	1	4	24_1_4	NA	NA	0	1	1.28125500679	None	None	None	None	1
3.0.1	2019_Mar_05_1306	s	s	5	2	SIC	374	ABS	0	0	1	1	24_1_1	NA	NA	0	1	1.47352218628	None	None	None	None	1
3.0.1	2019_Mar_05_1306	s	s	5	2	SIC	375	ABS	0	0	2	2	24_2_2	NA	NA	0	1	2.92029309273	None	None	None	None	1
3.0.1	2019_Mar_05_1306	s	s	5	2	SIC	376	2_3	2	3	3	4	23_3_4	1	-1	1	0	0.540371894836	-359.0	320.0	-351.0	314.0	1
3.0.1	2019_Mar_05_1306	s	s	5	2	SIC	377	2_4	2	4	1	3	23_1_3	-1	1	1	0	0.693243980408	-61.0	-78.0	-71.0	-78.0	1
3.0.1	2019_Mar_05_1306	s	s	5	2	SIC	378	ABS	0	0	1	2	24_1_2	NA	NA	0	1	2.03821277618	None	None	None	None	1
3.0.1	2019_Mar_05_1306	s	s	5	2	SIC	379	ABS	0	0	4	4	24_4_4	NA	NA	0	1	0.810855150223	None	None	None	None	1
3.0.1	2019_Mar_05_1306	s	s	5	2	SIC	380	ABS	0	0	4	4	24_4_4	NA	NA	0	1	0.723253011703	None	None	None	None	1
3.0.1	2019_Mar_05_1306	s	s	5	2	SIC	381	4_3	4	3	1	1	23_1_1	3	2	1	0	0.452183961868	-297.0	-131.0	-289.0	-126.0	1
3.0.1	2019_Mar_05_1306	s	s	5	2	SIC	382	4_3	4	3	3	4	23_3_4	1	-1	1	0	0.469712972641	-186.0	-355.0	-188.0	-355.0	1
3.0.1	2019_Mar_05_1306	s	s	5	2	SIC	383	2_3	2	3	2	1	23_2_1	0	2	1	0	0.792128801346	118.0	-252.0	116.0	-246.0	1
3.0.1	2019_Mar_05_1306	s	s	5	2	SIC	384	ABS	0	0	1	2	24_1_2	NA	NA	0	1	1.99288702011	None	None	None	None	1
3.0.1	2019_Mar_05_1306	s	s	5	2	SIC	385	4_3	4	3	2	1	23_2_1	2	2	1	0	0.457958936691	-232.0	388.0	-234.0	390.0	1
3.0.1	2019_Mar_05_1306	s	s	5	2	SIC	386	ABS	0	0	3	4	24_3_4	NA	NA	0	1	1.03939986229	None	None	None	None	1
3.0.1	2019_Mar_05_1306	s	s	5	2	SIC	387	ABS	0	0	1	2	24_1_2	NA	NA	0	1	1.28131008148	None	None	None	None	1
3.0.1	2019_Mar_05_1306	s	s	5	2	SIC	388	1_4	1	4	4	1	23_4_1	3	3	1	0	0.434942960739	-281.0	-75.0	-274.0	-75.0	1
3.0.1	2019_Mar_05_1306	s	s	5	2	SIC	389	3_2	3	2	1	4	23_1_4	2	2	1	0	0.84907913208	525.0	-291.0	530.0	-290.0	1
3.0.1	2019_Mar_05_1306	s	s	5	2	SIC	390	ABS	0	0	2	2	24_2_2	NA	NA	0	1	1.79091310501	None	None	None	None	1
3.0.1	2019_Mar_05_1306	s	s	5	2	SIC	391	3_2	3	2	1	1	23_1_1	2	-1	1	0	0.444501161575	-383.0	-77.0	-382.0	-85.0	1
3.0.1	2019_Mar_05_1306	s	s	5	2	SIC	392	1_1	1	1	1	2	23_1_2	0	1	1	0	1.46082305908	-43.0	-162.0	-35.0	-167.0	1
3.0.1	2019_Mar_05_1306	s	s	5	2	SIC	393	ABS	0	0	2	3	24_2_3	NA	NA	0	1	3.15640687943	None	None	None	None	1
3.0.1	2019_Mar_05_1306	s	s	5	2	SIC	394	ABS	0	0	3	3	24_3_3	NA	NA	0	1	1.72135806084	None	None	None	None	1
3.0.1	2019_Mar_05_1306	s	s	5	2	SIC	395	ABS	0	0	1	1	24_1_1	NA	NA	0	1	1.71649289131	None	None	None	None	1
3.0.1	2019_Mar_05_1306	s	s	5	2	SIC	396	ABS	0	0	4	4	24_4_4	NA	NA	0	1	0.966672897339	None	None	None	None	1
3.0.1	2019_Mar_05_1306	s	s	5	2	SIC	397	ABS	0	0	2	2	24_2_2	NA	NA	0	1	2.39308214188	None	None	None	None	1
3.0.1	2019_Mar_05_1306	s	s	5	2	SIC	398	ABS	0	0	2	4	24_2_4	NA	NA	0	1	1.29699206352	None	None	None	None	1
3.0.1	2019_Mar_05_1306	s	s	5	2	SIC	399	ABS	0	0	4	2	24_4_2	NA	NA	0	1	2.53975915909	None	None	None	None	1
3.0.1	2019_Mar_05_1306	s	s	5	2	SIC	400	1_4	1	4	3	3	23_3_3	2	1	1	0	1.36401414871	301.0	376.0	307.0	377.0	1
3.0.1	2019_Mar_05_1306	s	s	5	2	SIC	401	2_4	2	4	4	2	23_4_2	2	2	1	0	0.473922967911	-464.0	373.0	-471.0	374.0	1
3.0.1	2019_Mar_05_1306	s	s	5	2	SIC	402	1_1	1	1	4	3	23_4_3	3	2	1	0	0.532581090927	448.0	-386.0	452.0	-382.0	1
3.0.1	2019_Mar_05_1306	s	s	5	2	SIC	403	ABS	0	0	2	1	24_2_1	NA	NA	0	1	1.16363692284	None	None	None	None	1
3.0.1	2019_Mar_05_1306	s	s	5	2	SIC	404	3_1	3	1	3	2	23_3_2	0	1	0	1	1.42535114288	-116.0	203.0	None	None	0
3.0.1	2019_Mar_05_1306	s	s	5	2	SIC	405	2_4	2	4	4	4	23_4_4	2	0	1	0	0.422767877579	288.0	61.0	287.0	62.0	1
3.0.1	2019_Mar_05_1306	s	s	5	2	SIC	406	1_4	1	4	2	4	23_2_4	1	0	0	1	0.958278894424	-38.0	-183.0	None	None	0
3.0.1	2019_Mar_05_1306	s	s	5	2	SIC	407	3_1	3	1	2	4	23_2_4	1	3	1	0	0.546065807343	-169.0	-180.0	-175.0	-176.0	1
3.0.1	2019_Mar_05_1306	s	s	5	2	SIC	408	ABS	0	0	3	1	24_3_1	NA	NA	0	1	0.963685035706	None	None	None	None	1
3.0.1	2019_Mar_05_1306	s	s	5	2	SIC	409	2_2	2	2	1	1	23_1_1	-1	-1	1	0	1.49593687057	242.0	-57.0	241.0	-53.0	1
3.0.1	2019_Mar_05_1306	s	s	5	2	SIC	410	ABS	0	0	2	3	24_2_3	NA	NA	0	1	3.68643808365	None	None	None	None	1
3.0.1	2019_Mar_05_1306	s	s	5	2	SIC	411	ABS	0	0	2	2	24_2_2	NA	NA	0	1	1.44942116737	None	None	None	None	1
3.0.1	2019_Mar_05_1306	s	s	5	2	SIC	412	ABS	0	0	2	3	24_2_3	NA	NA	0	1	2.55437994003	None	None	None	None	1
3.0.1	2019_Mar_05_1306	s	s	5	2	SIC	413	2_1	2	1	1	3	23_1_3	-1	2	1	0	2.9914560318	-382.0	262.0	-386.0	260.0	1
3.0.1	2019_Mar_05_1306	s	s	5	2	SIC	414	ABS	0	0	2	2	24_2_2	NA	NA	0	1	3.55120205879	None	None	None	None	1
3.0.1	2019_Mar_05_1306	s	s	5	2	SIC	415	1_3	1	3	1	1	23_1_1	0	2	1	0	1.65808296204	-469.0	174.0	-464.0	172.0	1
3.0.1	2019_Mar_05_1306	s	s	5	2	SIC	416	ABS	0	0	3	3	24_3_3	NA	NA	0	1	2.23878598213	None	None	None	None	1
3.0.1	2019_Mar_05_1306	s	s	5	2	SIC	417	4_3	4	3	3	2	23_3_2	1	1	1	0	0.451315164566	-183.0	405.0	-185.0	399.0	1
3.0.1	2019_Mar_05_1306	s	s	5	2	SIC	418	4_2	4	2	2	4	23_2_4	2	2	1	0	0.399246931076	453.0	385.0	461.0	391.0	1
3.0.1	2019_Mar_05_1306	s	s	5	2	SIC	419	ABS	0	0	2	1	24_2_1	NA	NA	0	1	1.3871409893	None	None	None	None	1
3.0.1	2019_Mar_05_1306	s	s	5	2	SIC	420	ABS	0	0	1	2	24_1_2	NA	NA	0	1	2.37795901299	None	None	None	None	1
3.0.1	2019_Mar_05_1306	s	s	5	2	SIC	421	4_4	4	4	3	1	23_3_1	1	3	1	0	0.464500904083	-405.0	-379.0	-404.0	-383.0	1
3.0.1	2019_Mar_05_1306	s	s	5	2	SIC	422	4_3	4	3	2	4	23_2_4	2	-1	1	0	0.410977125168	264.0	-39.0	270.0	-30.0	1
3.0.1	2019_Mar_05_1306	s	s	5	2	SIC	423	ABS	0	0	2	2	24_2_2	NA	NA	0	1	2.39864993095	None	None	None	None	1
3.0.1	2019_Mar_05_1306	s	s	5	2	SIC	424	ABS	0	0	3	2	24_3_2	NA	NA	0	1	1.9986770153	None	None	None	None	1
3.0.1	2019_Mar_05_1306	s	s	5	2	SIC	425	ABS	0	0	1	3	24_1_3	NA	NA	0	1	1.31947803497	None	None	None	None	1
3.0.1	2019_Mar_05_1306	s	s	5	2	SIC	426	ABS	0	0	3	4	24_3_4	NA	NA	0	1	0.940212965012	None	None	None	None	1
3.0.1	2019_Mar_05_1306	s	s	5	2	SIC	427	1_2	1	2	4	2	23_4_2	3	0	1	0	0.532464027405	-209.0	-306.0	-202.0	-298.0	1
3.0.1	2019_Mar_05_1306	s	s	5	2	SIC	428	ABS	0	0	3	3	24_3_3	NA	NA	0	1	2.40390086174	None	None	None	None	1
3.0.1	2019_Mar_05_1306	s	s	5	2	SIC	429	1_1	1	1	3	3	23_3_3	2	2	1	0	0.496171951294	184.0	-38.0	194.0	-32.0	1
3.0.1	2019_Mar_05_1306	s	s	5	2	SIC	430	1_4	1	4	1	2	23_1_2	0	2	1	0	0.733345031738	300.0	-399.0	304.0	-393.0	1
3.0.1	2019_Mar_05_1306	s	s	5	2	SIC	431	3_3	3	3	3	4	23_3_4	0	-1	1	0	0.886254072189	411.0	11.0	423.0	13.0	1
3.0.1	2019_Mar_05_1306	s	s	5	2	SIC	432	1_2	1	2	4	1	23_4_1	3	-1	1	0	0.446248054504	363.0	-317.0	364.0	-317.0	1
3.0.1	2019_Mar_05_1306	s	s	5	2	SIC	433	ABS	0	0	4	1	24_4_1	NA	NA	0	1	0.998952150345	None	None	None	None	1
3.0.1	2019_Mar_05_1306	s	s	5	2	SIC	434	ABS	0	0	3	1	24_3_1	NA	NA	0	1	1.67229914665	None	None	None	None	1
3.0.1	2019_Mar_05_1306	s	s	5	2	SIC	435	2_1	2	1	3	4	23_3_4	1	3	1	0	0.503492116928	-147.0	361.0	-154.0	361.0	1
3.0.1	2019_Mar_05_1306	s	s	5	2	SIC	436	ABS	0	0	3	4	24_3_4	NA	NA	0	1	1.47341489792	None	None	None	None	1
3.0.1	2019_Mar_05_1306	s	s	5	2	SIC	437	ABS	0	0	1	3	24_1_3	NA	NA	0	1	2.99840712547	None	None	None	None	1
3.0.1	2019_Mar_05_1306	s	s	5	2	SIC	438	ABS	0	0	1	2	24_1_2	NA	NA	0	1	3.08649778366	None	None	None	None	1
3.0.1	2019_Mar_05_1306	s	s	5	2	SIC	439	ABS	0	0	3	3	24_3_3	NA	NA	0	1	2.42199516296	None	None	None	None	1
3.0.1	2019_Mar_05_1306	s	s	5	2	SIC	440	ABS	0	0	2	4	24_2_4	NA	NA	0	1	1.75711011887	None	None	None	None	1
3.0.1	2019_Mar_05_1306	s	s	5	2	SIC	441	ABS	0	0	3	4	24_3_4	NA	NA	0	1	0.9820561409	None	None	None	None	1
3.0.1	2019_Mar_05_1306	s	s	5	2	SIC	442	4_2	4	2	3	3	23_3_3	1	1	1	0	0.555459976196	486.0	176.0	493.0	171.0	1
3.0.1	2019_Mar_05_1306	s	s	5	2	SIC	443	ABS	0	0	2	3	24_2_3	NA	NA	0	1	2.01469492912	None	None	None	None	1
3.0.1	2019_Mar_05_1306	s	s	5	2	SIC	444	ABS	0	0	4	1	24_4_1	NA	NA	0	1	0.827959775925	None	None	None	None	1
3.0.1	2019_Mar_05_1306	s	s	5	2	SIC	445	ABS	0	0	1	1	24_1_1	NA	NA	0	1	0.975492954254	None	None	None	None	1
3.0.1	2019_Mar_05_1306	s	s	5	2	SIC	446	1_1	1	1	4	4	23_4_4	3	3	1	0	0.516795158386	-225.0	275.0	-233.0	278.0	1
3.0.1	2019_Mar_05_1306	s	s	5	2	SIC	447	3_4	3	4	1	2	23_1_2	2	2	1	0	0.663021802902	442.0	-308.0	446.0	-311.0	1
3.0.1	2019_Mar_05_1306	s	s	5	2	SIC	448	ABS	0	0	3	1	24_3_1	NA	NA	0	1	0.998999834061	None	None	None	None	1
3.0.1	2019_Mar_05_1306	s	s	5	2	SIC	449	4_4	4	4	2	4	23_2_4	2	0	1	0	0.437388896942	-207.0	301.0	-209.0	306.0	1
3.0.1	2019_Mar_05_1306	s	s	5	2	SIC	450	ABS	0	0	2	2	24_2_2	NA	NA	0	1	0.957307815552	None	None	None	None	1
3.0.1	2019_Mar_05_1306	s	s	5	2	SIC	451	ABS	0	0	1	1	24_1_1	NA	NA	0	1	1.28397393227	None	None	None	None	1
3.0.1	2019_Mar_05_1306	s	s	5	2	SIC	452	1_1	1	1	2	3	23_2_3	1	2	1	0	1.08419680595	-316.0	-298.0	-309.0	-295.0	1
3.0.1	2019_Mar_05_1306	s	s	5	2	SIC	453	ABS	0	0	4	4	24_4_4	NA	NA	0	1	0.731462001801	None	None	None	None	1
3.0.1	2019_Mar_05_1306	s	s	5	2	SIC	454	ABS	0	0	4	4	24_4_4	NA	NA	0	1	0.672603845596	None	None	None	None	1
3.0.1	2019_Mar_05_1306	s	s	5	2	SIC	455	2_4	2	4	3	2	23_3_2	1	2	1	0	0.528579950333	137.0	-87.0	137.0	-92.0	1
3.0.1	2019_Mar_05_1306	s	s	5	2	SIC	456	1_2	1	2	2	1	23_2_1	1	-1	0	1	0.827607154846	328.0	-290.0	None	None	0
3.0.1	2019_Mar_05_1306	s	s	5	2	SIC	457	ABS	0	0	2	3	24_2_3	NA	NA	0	1	1.3871948719	None	None	None	None	1
3.0.1	2019_Mar_05_1306	s	s	5	2	SIC	458	ABS	0	0	3	2	24_3_2	NA	NA	0	1	1.89304900169	None	None	None	None	1
3.0.1	2019_Mar_05_1306	s	s	5	2	SIC	459	ABS	0	0	1	2	24_1_2	NA	NA	0	1	1.70475411415	None	None	None	None	1
3.0.1	2019_Mar_05_1306	s	s	5	2	SIC	460	ABS	0	0	4	3	24_4_3	NA	NA	0	1	2.67388296127	None	None	None	None	1
3.0.1	2019_Mar_05_1306	s	s	5	2	SIC	461	2_3	2	3	1	3	23_1_3	-1	0	0	1	2.77495217323	270.0	-134.0	None	None	0
3.0.1	2019_Mar_05_1306	s	s	5	2	SIC	462	ABS	0	0	2	3	24_2_3	NA	NA	0	1	2.48964309692	None	None	None	None	1
3.0.1	2019_Mar_05_1306	s	s	5	2	SIC	463	ABS	0	0	1	1	24_1_1	NA	NA	0	1	1.40533804893	None	None	None	None	1
3.0.1	2019_Mar_05_1306	s	s	5	2	SIC	464	2_3	2	3	4	1	23_4_1	2	2	1	0	0.484450101852	-2.0	104.0	-2.0	109.0	1
3.0.1	2019_Mar_05_1306	s	s	5	2	SIC	465	3_3	3	3	1	4	23_1_4	2	-1	1	0	0.528630018234	421.0	222.0	411.0	224.0	1
3.0.1	2019_Mar_05_1306	s	s	5	2	SIC	466	4_1	4	1	4	4	23_4_4	0	3	1	0	0.427536010742	-136.0	45.0	-129.0	45.0	1
3.0.1	2019_Mar_05_1306	s	s	5	2	SIC	467	ABS	0	0	4	3	24_4_3	NA	NA	0	1	2.57497787476	None	None	None	None	1
3.0.1	2019_Mar_05_1306	s	s	5	2	SIC	468	1_4	1	4	3	1	23_3_1	2	3	1	0	0.501674175262	215.0	-170.0	215.0	-168.0	1
3.0.1	2019_Mar_05_1306	s	s	5	2	SIC	469	2_1	2	1	1	1	23_1_1	-1	0	0	1	1.04602098465	532.0	34.0	None	None	0
3.0.1	2019_Mar_05_1306	s	s	5	2	SIC	470	4_4	4	4	4	2	23_4_2	0	2	1	0	0.48156619072	-432.0	9.0	-431.0	10.0	1
3.0.1	2019_Mar_05_1306	s	s	5	2	SIC	471	3_2	3	2	3	3	23_3_3	0	1	0	1	1.65755295753	10.0	294.0	None	None	0
3.0.1	2019_Mar_05_1306	s	s	5	2	SIC	472	ABS	0	0	2	4	24_2_4	NA	NA	0	1	0.998904943466	None	None	None	None	1
3.0.1	2019_Mar_05_1306	s	s	5	2	SIC	473	ABS	0	0	1	1	24_1_1	NA	NA	0	1	0.721560001373	None	None	None	None	1
3.0.1	2019_Mar_05_1306	s	s	5	2	SIC	474	ABS	0	0	4	3	24_4_3	NA	NA	0	1	0.745381832123	None	None	None	None	1
3.0.1	2019_Mar_05_1306	s	s	5	2	SIC	475	4_1	4	1	2	3	23_2_3	2	2	1	0	0.402228832245	446.0	140.0	441.0	141.0	1
3.0.1	2019_Mar_05_1306	s	s	5	2	SIC	476	1_2	1	2	1	4	23_1_4	0	2	1	0	0.434501886368	-339.0	-107.0	-329.0	-108.0	1
3.0.1	2019_Mar_05_1306	s	s	5	2	SIC	477	ABS	0	0	2	4	24_2_4	NA	NA	0	1	0.857933044434	None	None	None	None	1
3.0.1	2019_Mar_05_1306	s	s	5	2	SIC	478	ABS	0	0	3	4	24_3_4	NA	NA	0	1	1.1430709362	None	None	None	None	1
3.0.1	2019_Mar_05_1306	s	s	5	2	SIC	479	ABS	0	0	4	2	24_4_2	NA	NA	0	1	1.99870800972	None	None	None	None	1
3.0.1	2019_Mar_05_1306	s	s	5	2	SIC	480	ABS	0	0	2	1	24_2_1	NA	NA	0	1	0.893158912659	None	None	None	None	1
