Version	Date	Stimuli	Method	Subject	Session	Condition	Trial	Target	TColor	TShape	DColor	DShape	Distractors	Channel1	Channel2	LMouseButton	RMouseButton	RT	TargetX	TargetY	ResponseX	ResponseY	Correct
3.0.1	2019_Mar_09_1458	s	s	5	3	Capacity	1	ABS	0	0	1	1	24_1_1	NA	NA	0	1	1.64967012405	None	None	None	None	1
3.0.1	2019_Mar_09_1458	s	s	5	3	Capacity	2	ABS	0	0	1	1	24_1_1	NA	NA	0	1	2.01714897156	None	None	None	None	1
3.0.1	2019_Mar_09_1458	s	s	5	3	Capacity	3	1_1	1	1	1	2	23_1_2	0	1	1	0	1.59237599373	207.0	-127.0	210.0	-127.0	1
3.0.1	2019_Mar_09_1458	s	s	5	3	Capacity	4	1_4	1	4	1	1	23_1_1	0	3	1	0	0.544937133789	102.0	237.0	102.0	239.0	1
3.0.1	2019_Mar_09_1458	s	s	5	3	Capacity	5	ABS	0	0	1	2	24_1_2	NA	NA	0	1	3.65697312355	None	None	None	None	1
3.0.1	2019_Mar_09_1458	s	s	5	3	Capacity	6	1_1	1	1	1	3	23_1_3	0	2	1	0	1.1520011425	-2.0	-144.0	0.0	-141.0	1
3.0.1	2019_Mar_09_1458	s	s	5	3	Capacity	7	1_4	1	4	1	2	23_1_2	0	2	1	0	0.657985925674	461.0	65.0	461.0	65.0	1
3.0.1	2019_Mar_09_1458	s	s	5	3	Capacity	8	ABS	0	0	1	4	24_1_4	NA	NA	0	1	1.77528095245	None	None	None	None	1
3.0.1	2019_Mar_09_1458	s	s	5	3	Capacity	9	1_2	1	2	1	1	23_1_1	0	-1	0	1	2.0575709343	-29.0	375.0	None	None	0
3.0.1	2019_Mar_09_1458	s	s	5	3	Capacity	10	1_4	1	4	1	3	23_1_3	0	1	1	0	0.804190158844	-88.0	-281.0	-87.0	-276.0	1
3.0.1	2019_Mar_09_1458	s	s	5	3	Capacity	11	ABS	0	0	1	3	24_1_3	NA	NA	0	1	4.22569489479	None	None	None	None	1
3.0.1	2019_Mar_09_1458	s	s	5	3	Capacity	12	1_2	1	2	1	4	23_1_4	0	2	1	0	0.484797954559	110.0	-209.0	104.0	-211.0	1
3.0.1	2019_Mar_09_1458	s	s	5	3	Capacity	13	ABS	0	0	1	4	24_1_4	NA	NA	0	1	1.34001803398	None	None	None	None	1
3.0.1	2019_Mar_09_1458	s	s	5	3	Capacity	14	ABS	0	0	1	1	24_1_1	NA	NA	0	1	1.38737607002	None	None	None	None	1
3.0.1	2019_Mar_09_1458	s	s	5	3	Capacity	15	1_3	1	3	1	4	23_1_4	0	-1	1	0	0.61891913414	-187.0	38.0	-179.0	41.0	1
3.0.1	2019_Mar_09_1458	s	s	5	3	Capacity	16	1_1	1	1	1	4	23_1_4	0	3	1	0	0.516742944717	-350.0	157.0	-348.0	153.0	1
3.0.1	2019_Mar_09_1458	s	s	5	3	Capacity	17	1_3	1	3	1	1	23_1_1	0	2	1	0	0.637219905853	45.0	182.0	51.0	179.0	1
3.0.1	2019_Mar_09_1458	s	s	5	3	Capacity	18	1_3	1	3	1	2	23_1_2	0	1	1	0	2.12368416786	-280.0	-225.0	-278.0	-225.0	1
3.0.1	2019_Mar_09_1458	s	s	5	3	Capacity	19	ABS	0	0	1	2	24_1_2	NA	NA	0	1	5.69797110558	None	None	None	None	1
3.0.1	2019_Mar_09_1458	s	s	5	3	Capacity	20	ABS	0	0	1	2	24_1_2	NA	NA	0	1	2.74465298653	None	None	None	None	1
3.0.1	2019_Mar_09_1458	s	s	5	3	Capacity	21	ABS	0	0	1	3	24_1_3	NA	NA	0	1	3.76285791397	None	None	None	None	1
3.0.1	2019_Mar_09_1458	s	s	5	3	Capacity	22	1_2	1	2	1	3	23_1_3	0	1	1	0	1.38712596893	-522.0	276.0	-525.0	275.0	1
3.0.1	2019_Mar_09_1458	s	s	5	3	Capacity	23	ABS	0	0	1	3	24_1_3	NA	NA	0	1	3.23408198357	None	None	None	None	1
3.0.1	2019_Mar_09_1458	s	s	5	3	Capacity	24	ABS	0	0	1	4	24_1_4	NA	NA	0	1	1.48618102074	None	None	None	None	1
3.0.1	2019_Mar_09_1458	s	s	5	3	Capacity	25	ABS	0	0	1	3	24_1_3	NA	NA	0	1	3.83859801292	None	None	None	None	1
3.0.1	2019_Mar_09_1458	s	s	5	3	Capacity	26	1_2	1	2	1	3	23_1_3	0	1	1	0	4.5273900032	-357.0	-192.0	-350.0	-196.0	1
3.0.1	2019_Mar_09_1458	s	s	5	3	Capacity	27	ABS	0	0	1	3	24_1_3	NA	NA	0	1	4.10405397415	None	None	None	None	1
3.0.1	2019_Mar_09_1458	s	s	5	3	Capacity	28	ABS	0	0	1	1	24_1_1	NA	NA	0	1	2.72121691704	None	None	None	None	1
3.0.1	2019_Mar_09_1458	s	s	5	3	Capacity	29	ABS	0	0	1	4	24_1_4	NA	NA	0	1	1.8017950058	None	None	None	None	1
3.0.1	2019_Mar_09_1458	s	s	5	3	Capacity	30	ABS	0	0	1	3	24_1_3	NA	NA	0	1	5.16281294823	None	None	None	None	1
3.0.1	2019_Mar_09_1458	s	s	5	3	Capacity	31	ABS	0	0	1	1	24_1_1	NA	NA	0	1	2.33977198601	None	None	None	None	1
3.0.1	2019_Mar_09_1458	s	s	5	3	Capacity	32	1_4	1	4	1	3	23_1_3	0	1	1	0	0.763774871826	382.0	-18.0	382.0	-16.0	1
3.0.1	2019_Mar_09_1458	s	s	5	3	Capacity	33	1_2	1	2	1	4	23_1_4	0	2	1	0	0.575654029846	147.0	-284.0	150.0	-286.0	1
3.0.1	2019_Mar_09_1458	s	s	5	3	Capacity	34	ABS	0	0	1	4	24_1_4	NA	NA	0	1	2.73970603943	None	None	None	None	1
3.0.1	2019_Mar_09_1458	s	s	5	3	Capacity	35	1_2	1	2	1	1	23_1_1	0	-1	0	1	2.04564809799	-223.0	333.0	None	None	0
3.0.1	2019_Mar_09_1458	s	s	5	3	Capacity	36	1_1	1	1	1	3	23_1_3	0	2	1	0	1.07453179359	-257.0	-279.0	-255.0	-278.0	1
3.0.1	2019_Mar_09_1458	s	s	5	3	Capacity	37	ABS	0	0	1	2	24_1_2	NA	NA	0	1	4.53908205032	None	None	None	None	1
3.0.1	2019_Mar_09_1458	s	s	5	3	Capacity	38	1_4	1	4	1	1	23_1_1	0	3	1	0	0.704972028732	396.0	-9.0	402.0	-12.0	1
3.0.1	2019_Mar_09_1458	s	s	5	3	Capacity	39	1_1	1	1	1	4	23_1_4	0	3	1	0	0.510334968567	-29.0	-328.0	-23.0	-328.0	1
3.0.1	2019_Mar_09_1458	s	s	5	3	Capacity	40	1_3	1	3	1	1	23_1_1	0	2	1	0	0.736917972565	-159.0	-100.0	-164.0	-103.0	1
3.0.1	2019_Mar_09_1458	s	s	5	3	Capacity	41	1_3	1	3	1	2	23_1_2	0	1	1	0	2.45095801353	-120.0	-322.0	-128.0	-315.0	1
3.0.1	2019_Mar_09_1458	s	s	5	3	Capacity	42	1_3	1	3	1	4	23_1_4	0	-1	1	0	0.532895088196	-528.0	-32.0	-524.0	-34.0	1
3.0.1	2019_Mar_09_1458	s	s	5	3	Capacity	43	ABS	0	0	1	4	24_1_4	NA	NA	0	1	2.14276885986	None	None	None	None	1
3.0.1	2019_Mar_09_1458	s	s	5	3	Capacity	44	1_4	1	4	1	2	23_1_2	0	2	1	0	0.834378004074	508.0	-248.0	509.0	-248.0	1
3.0.1	2019_Mar_09_1458	s	s	5	3	Capacity	45	ABS	0	0	1	2	24_1_2	NA	NA	0	1	4.32581996918	None	None	None	None	1
3.0.1	2019_Mar_09_1458	s	s	5	3	Capacity	46	1_1	1	1	1	2	23_1_2	0	1	1	0	0.756525039673	-389.0	-15.0	-380.0	-16.0	1
3.0.1	2019_Mar_09_1458	s	s	5	3	Capacity	47	ABS	0	0	1	1	24_1_1	NA	NA	0	1	1.48125815392	None	None	None	None	1
3.0.1	2019_Mar_09_1458	s	s	5	3	Capacity	48	ABS	0	0	1	2	24_1_2	NA	NA	0	1	4.11565804482	None	None	None	None	1
3.0.1	2019_Mar_09_1458	s	s	5	3	Capacity	49	ABS	0	0	1	3	24_1_3	NA	NA	0	1	4.74432182312	None	None	None	None	1
3.0.1	2019_Mar_09_1458	s	s	5	3	Capacity	50	1_3	1	3	1	1	23_1_1	0	2	1	0	0.898069143295	98.0	164.0	98.0	159.0	1
3.0.1	2019_Mar_09_1458	s	s	5	3	Capacity	51	1_4	1	4	1	2	23_1_2	0	2	1	0	0.496179103851	-104.0	134.0	-103.0	126.0	1
3.0.1	2019_Mar_09_1458	s	s	5	3	Capacity	52	ABS	0	0	1	3	24_1_3	NA	NA	0	1	4.18635821342	None	None	None	None	1
3.0.1	2019_Mar_09_1458	s	s	5	3	Capacity	53	ABS	0	0	1	1	24_1_1	NA	NA	0	1	1.72316908836	None	None	None	None	1
3.0.1	2019_Mar_09_1458	s	s	5	3	Capacity	54	1_4	1	4	1	3	23_1_3	0	1	1	0	0.561669111252	217.0	96.0	216.0	92.0	1
3.0.1	2019_Mar_09_1458	s	s	5	3	Capacity	55	1_1	1	1	1	2	23_1_2	0	1	1	0	1.23419284821	-349.0	360.0	-348.0	358.0	1
3.0.1	2019_Mar_09_1458	s	s	5	3	Capacity	56	1_2	1	2	1	4	23_1_4	0	2	1	0	0.516798019409	438.0	288.0	438.0	287.0	1
3.0.1	2019_Mar_09_1458	s	s	5	3	Capacity	57	ABS	0	0	1	4	24_1_4	NA	NA	0	1	1.35680890083	None	None	None	None	1
3.0.1	2019_Mar_09_1458	s	s	5	3	Capacity	58	1_1	1	1	1	4	23_1_4	0	3	1	0	0.580842018127	480.0	-133.0	484.0	-133.0	1
3.0.1	2019_Mar_09_1458	s	s	5	3	Capacity	59	1_3	1	3	1	4	23_1_4	0	-1	1	0	0.516854047775	-410.0	-127.0	-409.0	-126.0	1
3.0.1	2019_Mar_09_1458	s	s	5	3	Capacity	60	ABS	0	0	1	1	24_1_1	NA	NA	0	1	1.43707990646	None	None	None	None	1
3.0.1	2019_Mar_09_1458	s	s	5	3	Capacity	61	ABS	0	0	1	2	24_1_2	NA	NA	0	1	4.62686896324	None	None	None	None	1
3.0.1	2019_Mar_09_1458	s	s	5	3	Capacity	62	1_2	1	2	1	3	23_1_3	0	1	1	0	1.40378284454	-330.0	-64.0	-326.0	-58.0	1
3.0.1	2019_Mar_09_1458	s	s	5	3	Capacity	63	1_1	1	1	1	3	23_1_3	0	2	1	0	3.32517504692	-526.0	385.0	-528.0	388.0	1
3.0.1	2019_Mar_09_1458	s	s	5	3	Capacity	64	ABS	0	0	1	2	24_1_2	NA	NA	0	1	3.06894898415	None	None	None	None	1
3.0.1	2019_Mar_09_1458	s	s	5	3	Capacity	65	ABS	0	0	1	4	24_1_4	NA	NA	0	1	1.90909481049	None	None	None	None	1
3.0.1	2019_Mar_09_1458	s	s	5	3	Capacity	66	1_3	1	3	1	2	23_1_2	0	1	1	0	1.387155056	109.0	-33.0	117.0	-32.0	1
3.0.1	2019_Mar_09_1458	s	s	5	3	Capacity	67	1_2	1	2	1	1	23_1_1	0	-1	0	1	1.59881615639	-330.0	-160.0	None	None	0
3.0.1	2019_Mar_09_1458	s	s	5	3	Capacity	68	ABS	0	0	1	1	24_1_1	NA	NA	0	1	1.14403605461	None	None	None	None	1
3.0.1	2019_Mar_09_1458	s	s	5	3	Capacity	69	ABS	0	0	1	2	24_1_2	NA	NA	0	1	2.73083209991	None	None	None	None	1
3.0.1	2019_Mar_09_1458	s	s	5	3	Capacity	70	ABS	0	0	1	4	24_1_4	NA	NA	0	1	1.16979408264	None	None	None	None	1
3.0.1	2019_Mar_09_1458	s	s	5	3	Capacity	71	ABS	0	0	1	3	24_1_3	NA	NA	0	1	3.26533198357	None	None	None	None	1
3.0.1	2019_Mar_09_1458	s	s	5	3	Capacity	72	1_4	1	4	1	1	23_1_1	0	3	1	0	0.62809419632	-379.0	371.0	-372.0	367.0	1
3.0.1	2019_Mar_09_1458	s	s	5	3	Capacity	73	ABS	0	0	1	3	24_1_3	NA	NA	0	1	2.53205895424	None	None	None	None	1
3.0.1	2019_Mar_09_1458	s	s	5	3	Capacity	74	1_1	1	1	1	2	23_1_2	0	1	1	0	2.1427359581	525.0	80.0	520.0	78.0	1
3.0.1	2019_Mar_09_1458	s	s	5	3	Capacity	75	ABS	0	0	1	4	24_1_4	NA	NA	0	1	1.76343607903	None	None	None	None	1
3.0.1	2019_Mar_09_1458	s	s	5	3	Capacity	76	ABS	0	0	1	4	24_1_4	NA	NA	0	1	2.25993490219	None	None	None	None	1
3.0.1	2019_Mar_09_1458	s	s	5	3	Capacity	77	1_2	1	2	1	3	23_1_3	0	1	1	0	2.59853506088	134.0	203.0	131.0	200.0	1
3.0.1	2019_Mar_09_1458	s	s	5	3	Capacity	78	ABS	0	0	1	1	24_1_1	NA	NA	0	1	1.76028013229	None	None	None	None	1
3.0.1	2019_Mar_09_1458	s	s	5	3	Capacity	79	ABS	0	0	1	2	24_1_2	NA	NA	0	1	4.43810486794	None	None	None	None	1
3.0.1	2019_Mar_09_1458	s	s	5	3	Capacity	80	1_4	1	4	1	3	23_1_3	0	1	1	0	0.587788105011	98.0	-30.0	103.0	-34.0	1
3.0.1	2019_Mar_09_1458	s	s	5	3	Capacity	81	ABS	0	0	1	3	24_1_3	NA	NA	0	1	4.45047688484	None	None	None	None	1
3.0.1	2019_Mar_09_1458	s	s	5	3	Capacity	82	1_1	1	1	1	4	23_1_4	0	3	1	0	0.441640138626	117.0	-211.0	125.0	-215.0	1
3.0.1	2019_Mar_09_1458	s	s	5	3	Capacity	83	ABS	0	0	1	1	24_1_1	NA	NA	0	1	1.28768610954	None	None	None	None	1
3.0.1	2019_Mar_09_1458	s	s	5	3	Capacity	84	ABS	0	0	1	4	24_1_4	NA	NA	0	1	1.10521006584	None	None	None	None	1
3.0.1	2019_Mar_09_1458	s	s	5	3	Capacity	85	1_3	1	3	1	4	23_1_4	0	-1	1	0	0.540392875671	166.0	256.0	172.0	255.0	1
3.0.1	2019_Mar_09_1458	s	s	5	3	Capacity	86	1_3	1	3	1	1	23_1_1	0	2	1	0	0.849020957947	-68.0	-168.0	-71.0	-158.0	1
3.0.1	2019_Mar_09_1458	s	s	5	3	Capacity	87	1_4	1	4	1	1	23_1_1	0	3	1	0	0.810793876648	502.0	-379.0	507.0	-377.0	1
3.0.1	2019_Mar_09_1458	s	s	5	3	Capacity	88	1_3	1	3	1	2	23_1_2	0	1	1	0	0.511054992676	34.0	179.0	36.0	175.0	1
3.0.1	2019_Mar_09_1458	s	s	5	3	Capacity	89	ABS	0	0	1	3	24_1_3	NA	NA	0	1	2.87181401253	None	None	None	None	1
3.0.1	2019_Mar_09_1458	s	s	5	3	Capacity	90	ABS	0	0	1	1	24_1_1	NA	NA	0	1	1.49596405029	None	None	None	None	1
3.0.1	2019_Mar_09_1458	s	s	5	3	Capacity	91	1_2	1	2	1	4	23_1_4	0	2	1	0	0.496213912964	-86.0	303.0	-90.0	292.0	1
3.0.1	2019_Mar_09_1458	s	s	5	3	Capacity	92	1_4	1	4	1	2	23_1_2	0	2	1	0	0.752050876617	473.0	-351.0	476.0	-353.0	1
3.0.1	2019_Mar_09_1458	s	s	5	3	Capacity	93	1_2	1	2	1	1	23_1_1	0	-1	0	1	1.00411581993	-144.0	239.0	None	None	0
3.0.1	2019_Mar_09_1458	s	s	5	3	Capacity	94	ABS	0	0	1	2	24_1_2	NA	NA	1	0	0.664639949799	None	None	-73.0	325.0	0
3.0.1	2019_Mar_09_1458	s	s	5	3	Capacity	95	ABS	0	0	1	2	24_1_2	NA	NA	0	1	3.31887984276	None	None	None	None	1
3.0.1	2019_Mar_09_1458	s	s	5	3	Capacity	96	1_1	1	1	1	3	23_1_3	0	2	1	0	3.63882279396	-476.0	-187.0	-476.0	-182.0	1
3.0.1	2019_Mar_09_1458	s	s	5	3	Capacity	1	ABS	0	0	3	1	24_3_1	NA	NA	0	1	0.481709003448	None	None	None	None	1
3.0.1	2019_Mar_09_1458	s	s	5	3	Capacity	2	ABS	0	0	2	1	24_2_1	NA	NA	0	1	0.740298032761	None	None	None	None	1
3.0.1	2019_Mar_09_1458	s	s	5	3	Capacity	3	ABS	0	0	4	1	24_4_1	NA	NA	0	1	0.528542995453	None	None	None	None	1
3.0.1	2019_Mar_09_1458	s	s	5	3	Capacity	4	2_1	2	1	4	1	23_4_1	2	0	1	0	0.415179014206	470.0	154.0	476.0	148.0	1
3.0.1	2019_Mar_09_1458	s	s	5	3	Capacity	5	2_1	2	1	1	1	23_1_1	-1	0	0	1	1.04599404335	-141.0	-166.0	None	None	0
3.0.1	2019_Mar_09_1458	s	s	5	3	Capacity	6	1_1	1	1	4	1	23_4_1	3	0	1	0	0.470088005066	86.0	89.0	91.0	91.0	1
3.0.1	2019_Mar_09_1458	s	s	5	3	Capacity	7	ABS	0	0	2	1	24_2_1	NA	NA	0	1	1.03008294106	None	None	None	None	1
3.0.1	2019_Mar_09_1458	s	s	5	3	Capacity	8	4_1	4	1	1	1	23_1_1	3	0	1	0	0.43740105629	-47.0	254.0	-41.0	246.0	1
3.0.1	2019_Mar_09_1458	s	s	5	3	Capacity	9	4_1	4	1	2	1	23_2_1	2	0	1	0	0.370384931564	160.0	-206.0	167.0	-208.0	1
3.0.1	2019_Mar_09_1458	s	s	5	3	Capacity	10	4_1	4	1	3	1	23_3_1	1	0	1	0	0.383483171463	304.0	-258.0	301.0	-258.0	1
3.0.1	2019_Mar_09_1458	s	s	5	3	Capacity	11	3_1	3	1	4	1	23_4_1	-1	0	1	0	0.403654098511	-517.0	-78.0	-517.0	-81.0	1
3.0.1	2019_Mar_09_1458	s	s	5	3	Capacity	12	ABS	0	0	2	1	24_2_1	NA	NA	0	1	0.696105957031	None	None	None	None	1
3.0.1	2019_Mar_09_1458	s	s	5	3	Capacity	13	1_1	1	1	3	1	23_3_1	2	0	1	0	0.49328994751	377.0	272.0	381.0	279.0	1
3.0.1	2019_Mar_09_1458	s	s	5	3	Capacity	14	3_1	3	1	1	1	23_1_1	2	0	1	0	0.42270898819	405.0	-169.0	406.0	-171.0	1
3.0.1	2019_Mar_09_1458	s	s	5	3	Capacity	15	ABS	0	0	4	1	24_4_1	NA	NA	0	1	1.10995483398	None	None	None	None	1
3.0.1	2019_Mar_09_1458	s	s	5	3	Capacity	16	1_1	1	1	2	1	23_2_1	1	0	1	0	2.07581186295	-537.0	-27.0	119.0	118.0	0
3.0.1	2019_Mar_09_1458	s	s	5	3	Capacity	17	ABS	0	0	3	1	24_3_1	NA	NA	0	1	1.37826108932	None	None	None	None	1
3.0.1	2019_Mar_09_1458	s	s	5	3	Capacity	18	3_1	3	1	2	1	23_2_1	1	0	1	0	0.716794967651	-412.0	-273.0	-406.0	-270.0	1
3.0.1	2019_Mar_09_1458	s	s	5	3	Capacity	19	ABS	0	0	1	1	24_1_1	NA	NA	0	1	0.915506839752	None	None	None	None	1
3.0.1	2019_Mar_09_1458	s	s	5	3	Capacity	20	ABS	0	0	1	1	24_1_1	NA	NA	0	1	0.928447008133	None	None	None	None	1
3.0.1	2019_Mar_09_1458	s	s	5	3	Capacity	21	ABS	0	0	3	1	24_3_1	NA	NA	0	1	1.2753880024	None	None	None	None	1
3.0.1	2019_Mar_09_1458	s	s	5	3	Capacity	22	ABS	0	0	1	1	24_1_1	NA	NA	0	1	0.563900947571	None	None	None	None	1
3.0.1	2019_Mar_09_1458	s	s	5	3	Capacity	23	ABS	0	0	4	1	24_4_1	NA	NA	0	1	0.723350048065	None	None	None	None	1
3.0.1	2019_Mar_09_1458	s	s	5	3	Capacity	24	2_1	2	1	3	1	23_3_1	1	0	1	0	0.869598150253	443.0	-388.0	446.0	-392.0	1
3.0.1	2019_Mar_09_1458	s	s	5	3	Capacity	25	ABS	0	0	4	1	24_4_1	NA	NA	1	0	1.10484910011	None	None	41.0	113.0	0
3.0.1	2019_Mar_09_1458	s	s	5	3	Capacity	26	2_1	2	1	4	1	23_4_1	2	0	1	0	0.474876880646	158.0	-403.0	158.0	-398.0	1
3.0.1	2019_Mar_09_1458	s	s	5	3	Capacity	27	3_1	3	1	4	1	23_4_1	-1	0	1	0	0.446241140366	-447.0	15.0	-444.0	14.0	1
3.0.1	2019_Mar_09_1458	s	s	5	3	Capacity	28	ABS	0	0	4	1	24_4_1	NA	NA	0	1	0.622658014297	None	None	None	None	1
3.0.1	2019_Mar_09_1458	s	s	5	3	Capacity	29	ABS	0	0	2	1	24_2_1	NA	NA	1	0	1.02547192574	None	None	-93.0	124.0	0
3.0.1	2019_Mar_09_1458	s	s	5	3	Capacity	30	2_1	2	1	3	1	23_3_1	1	0	1	0	0.710509061813	-104.0	-217.0	-105.0	-216.0	1
3.0.1	2019_Mar_09_1458	s	s	5	3	Capacity	31	2_1	2	1	1	1	23_1_1	-1	0	0	1	1.4487631321	306.0	-206.0	None	None	0
3.0.1	2019_Mar_09_1458	s	s	5	3	Capacity	32	1_1	1	1	2	1	23_2_1	1	0	1	0	1.73781204224	-294.0	-248.0	-290.0	-238.0	1
3.0.1	2019_Mar_09_1458	s	s	5	3	Capacity	33	ABS	0	0	2	1	24_2_1	NA	NA	0	1	2.2166390419	None	None	None	None	1
3.0.1	2019_Mar_09_1458	s	s	5	3	Capacity	34	4_1	4	1	3	1	23_3_1	1	0	1	0	0.399194955826	-101.0	30.0	-102.0	26.0	1
3.0.1	2019_Mar_09_1458	s	s	5	3	Capacity	35	ABS	0	0	3	1	24_3_1	NA	NA	0	1	1.67881798744	None	None	None	None	1
3.0.1	2019_Mar_09_1458	s	s	5	3	Capacity	36	ABS	0	0	1	1	24_1_1	NA	NA	0	1	0.97291302681	None	None	None	None	1
3.0.1	2019_Mar_09_1458	s	s	5	3	Capacity	37	4_1	4	1	2	1	23_2_1	2	0	1	0	0.422740936279	409.0	19.0	415.0	14.0	1
3.0.1	2019_Mar_09_1458	s	s	5	3	Capacity	38	1_1	1	1	4	1	23_4_1	3	0	1	0	0.446295022964	232.0	-261.0	232.0	-266.0	1
3.0.1	2019_Mar_09_1458	s	s	5	3	Capacity	39	4_1	4	1	1	1	23_1_1	3	0	1	0	0.422799110413	-466.0	-196.0	-462.0	-204.0	1
3.0.1	2019_Mar_09_1458	s	s	5	3	Capacity	40	ABS	0	0	2	1	24_2_1	NA	NA	0	1	1.30483579636	None	None	None	None	1
3.0.1	2019_Mar_09_1458	s	s	5	3	Capacity	41	1_1	1	1	3	1	23_3_1	2	0	1	0	0.457970142365	175.0	-405.0	167.0	-399.0	1
3.0.1	2019_Mar_09_1458	s	s	5	3	Capacity	42	ABS	0	0	1	1	24_1_1	NA	NA	0	1	1.16368198395	None	None	None	None	1
3.0.1	2019_Mar_09_1458	s	s	5	3	Capacity	43	ABS	0	0	1	1	24_1_1	NA	NA	0	1	0.987245082855	None	None	None	None	1
3.0.1	2019_Mar_09_1458	s	s	5	3	Capacity	44	ABS	0	0	3	1	24_3_1	NA	NA	0	1	1.38742399216	None	None	None	None	1
3.0.1	2019_Mar_09_1458	s	s	5	3	Capacity	45	3_1	3	1	2	1	23_2_1	1	0	1	0	0.933599948883	505.0	-329.0	505.0	-329.0	1
3.0.1	2019_Mar_09_1458	s	s	5	3	Capacity	46	ABS	0	0	3	1	24_3_1	NA	NA	0	1	1.28126192093	None	None	None	None	1
3.0.1	2019_Mar_09_1458	s	s	5	3	Capacity	47	ABS	0	0	4	1	24_4_1	NA	NA	0	1	1.1166009903	None	None	None	None	1
3.0.1	2019_Mar_09_1458	s	s	5	3	Capacity	48	3_1	3	1	1	1	23_1_1	2	0	1	0	0.496145963669	-472.0	57.0	-473.0	62.0	1
3.0.1	2019_Mar_09_1458	s	s	5	3	Capacity	49	ABS	0	0	2	1	24_2_1	NA	NA	0	1	0.940279960632	None	None	None	None	1
3.0.1	2019_Mar_09_1458	s	s	5	3	Capacity	50	4_1	4	1	3	1	23_3_1	1	0	1	0	0.486388921738	39.0	-330.0	26.0	-322.0	1
3.0.1	2019_Mar_09_1458	s	s	5	3	Capacity	51	1_1	1	1	2	1	23_2_1	1	0	0	1	1.52187299728	400.0	345.0	None	None	0
3.0.1	2019_Mar_09_1458	s	s	5	3	Capacity	52	3_1	3	1	4	1	23_4_1	-1	0	1	0	0.428900957108	418.0	307.0	418.0	301.0	1
3.0.1	2019_Mar_09_1458	s	s	5	3	Capacity	53	2_1	2	1	3	1	23_3_1	1	0	1	0	0.469715118408	308.0	-61.0	313.0	-64.0	1
3.0.1	2019_Mar_09_1458	s	s	5	3	Capacity	54	ABS	0	0	3	1	24_3_1	NA	NA	0	1	1.41063904762	None	None	None	None	1
3.0.1	2019_Mar_09_1458	s	s	5	3	Capacity	55	ABS	0	0	1	1	24_1_1	NA	NA	0	1	1.01651000977	None	None	None	None	1
3.0.1	2019_Mar_09_1458	s	s	5	3	Capacity	56	2_1	2	1	4	1	23_4_1	2	0	1	0	0.457973957062	-142.0	319.0	-144.0	314.0	1
3.0.1	2019_Mar_09_1458	s	s	5	3	Capacity	57	ABS	0	0	4	1	24_4_1	NA	NA	0	1	1.65771603584	None	None	None	None	1
3.0.1	2019_Mar_09_1458	s	s	5	3	Capacity	58	ABS	0	0	1	1	24_1_1	NA	NA	0	1	1.01088309288	None	None	None	None	1
3.0.1	2019_Mar_09_1458	s	s	5	3	Capacity	59	ABS	0	0	4	1	24_4_1	NA	NA	0	1	1.39305996895	None	None	None	None	1
3.0.1	2019_Mar_09_1458	s	s	5	3	Capacity	60	ABS	0	0	3	1	24_3_1	NA	NA	0	1	1.15701913834	None	None	None	None	1
3.0.1	2019_Mar_09_1458	s	s	5	3	Capacity	61	ABS	0	0	2	1	24_2_1	NA	NA	0	1	1.4224190712	None	None	None	None	1
3.0.1	2019_Mar_09_1458	s	s	5	3	Capacity	62	1_1	1	1	3	1	23_3_1	2	0	1	0	0.496294975281	522.0	162.0	517.0	164.0	1
3.0.1	2019_Mar_09_1458	s	s	5	3	Capacity	63	1_1	1	1	4	1	23_4_1	3	0	1	0	0.402101039886	-126.0	-283.0	-120.0	-286.0	1
3.0.1	2019_Mar_09_1458	s	s	5	3	Capacity	64	3_1	3	1	2	1	23_2_1	1	0	1	0	0.516896009445	471.0	-204.0	472.0	-203.0	1
3.0.1	2019_Mar_09_1458	s	s	5	3	Capacity	65	ABS	0	0	4	1	24_4_1	NA	NA	1	0	1.39886903763	None	None	123.0	278.0	0
3.0.1	2019_Mar_09_1458	s	s	5	3	Capacity	66	ABS	0	0	1	1	24_1_1	NA	NA	0	1	0.881381034851	None	None	None	None	1
3.0.1	2019_Mar_09_1458	s	s	5	3	Capacity	67	4_1	4	1	2	1	23_2_1	2	0	1	0	0.410908937454	412.0	-337.0	409.0	-328.0	1
3.0.1	2019_Mar_09_1458	s	s	5	3	Capacity	68	3_1	3	1	1	1	23_1_1	2	0	1	0	0.498084068298	-475.0	-102.0	-469.0	-102.0	1
3.0.1	2019_Mar_09_1458	s	s	5	3	Capacity	69	ABS	0	0	2	1	24_2_1	NA	NA	0	1	1.43707799911	None	None	None	None	1
3.0.1	2019_Mar_09_1458	s	s	5	3	Capacity	70	ABS	0	0	3	1	24_3_1	NA	NA	0	1	1.42752599716	None	None	None	None	1
3.0.1	2019_Mar_09_1458	s	s	5	3	Capacity	71	2_1	2	1	1	1	23_1_1	-1	0	0	1	1.01778888702	-291.0	-293.0	None	None	0
3.0.1	2019_Mar_09_1458	s	s	5	3	Capacity	72	4_1	4	1	1	1	23_1_1	3	0	1	0	0.399313926697	-164.0	93.0	-164.0	92.0	1
3.0.1	2019_Mar_09_1458	s	s	5	3	Capacity	73	ABS	0	0	4	1	24_4_1	NA	NA	1	0	1.1284160614	None	None	-97.0	59.0	0
3.0.1	2019_Mar_09_1458	s	s	5	3	Capacity	74	ABS	0	0	4	1	24_4_1	NA	NA	0	1	0.791215896606	None	None	None	None	1
3.0.1	2019_Mar_09_1458	s	s	5	3	Capacity	75	4_1	4	1	2	1	23_2_1	2	0	1	0	0.410938978195	243.0	-136.0	242.0	-143.0	1
3.0.1	2019_Mar_09_1458	s	s	5	3	Capacity	76	4_1	4	1	3	1	23_3_1	1	0	0	1	0.504992961884	-69.0	406.0	None	None	0
3.0.1	2019_Mar_09_1458	s	s	5	3	Capacity	77	ABS	0	0	4	1	24_4_1	NA	NA	0	1	1.14405083656	None	None	None	None	1
3.0.1	2019_Mar_09_1458	s	s	5	3	Capacity	78	2_1	2	1	3	1	23_3_1	1	0	1	0	1.13361001015	314.0	-296.0	310.0	-294.0	1
3.0.1	2019_Mar_09_1458	s	s	5	3	Capacity	79	ABS	0	0	3	1	24_3_1	NA	NA	0	1	1.50023198128	None	None	None	None	1
3.0.1	2019_Mar_09_1458	s	s	5	3	Capacity	80	2_1	2	1	1	1	23_1_1	-1	0	0	1	1.21105599403	129.0	401.0	None	None	0
3.0.1	2019_Mar_09_1458	s	s	5	3	Capacity	81	ABS	0	0	3	1	24_3_1	NA	NA	0	1	0.78071808815	None	None	None	None	1
3.0.1	2019_Mar_09_1458	s	s	5	3	Capacity	82	ABS	0	0	1	1	24_1_1	NA	NA	0	1	1.26959896088	None	None	None	None	1
3.0.1	2019_Mar_09_1458	s	s	5	3	Capacity	83	ABS	0	0	2	1	24_2_1	NA	NA	0	1	1.44596791267	None	None	None	None	1
3.0.1	2019_Mar_09_1458	s	s	5	3	Capacity	84	1_1	1	1	4	1	23_4_1	3	0	1	0	0.500761985779	99.0	267.0	105.0	269.0	1
3.0.1	2019_Mar_09_1458	s	s	5	3	Capacity	85	2_1	2	1	4	1	23_4_1	2	0	1	0	0.557284832001	324.0	-205.0	326.0	-202.0	1
3.0.1	2019_Mar_09_1458	s	s	5	3	Capacity	86	ABS	0	0	2	1	24_2_1	NA	NA	0	1	1.69283485413	None	None	None	None	1
3.0.1	2019_Mar_09_1458	s	s	5	3	Capacity	87	ABS	0	0	1	1	24_1_1	NA	NA	0	1	0.907824039459	None	None	None	None	1
3.0.1	2019_Mar_09_1458	s	s	5	3	Capacity	88	ABS	0	0	2	1	24_2_1	NA	NA	0	1	0.861173152924	None	None	None	None	1
3.0.1	2019_Mar_09_1458	s	s	5	3	Capacity	89	1_1	1	1	3	1	23_3_1	2	0	1	0	0.716805934906	30.0	-223.0	31.0	-223.0	1
3.0.1	2019_Mar_09_1458	s	s	5	3	Capacity	90	3_1	3	1	2	1	23_2_1	1	0	1	0	0.627851009369	-528.0	-26.0	-530.0	-22.0	1
3.0.1	2019_Mar_09_1458	s	s	5	3	Capacity	91	3_1	3	1	4	1	23_4_1	-1	0	1	0	0.474586009979	-460.0	-181.0	-461.0	-179.0	1
3.0.1	2019_Mar_09_1458	s	s	5	3	Capacity	92	3_1	3	1	1	1	23_1_1	2	0	1	0	0.474365949631	-83.0	-1.0	-76.0	-5.0	1
3.0.1	2019_Mar_09_1458	s	s	5	3	Capacity	93	4_1	4	1	1	1	23_1_1	3	0	1	0	0.451279878616	469.0	16.0	470.0	20.0	1
3.0.1	2019_Mar_09_1458	s	s	5	3	Capacity	94	ABS	0	0	1	1	24_1_1	NA	NA	0	1	0.790289163589	None	None	None	None	1
3.0.1	2019_Mar_09_1458	s	s	5	3	Capacity	95	ABS	0	0	3	1	24_3_1	NA	NA	0	1	0.751992940903	None	None	None	None	1
3.0.1	2019_Mar_09_1458	s	s	5	3	Capacity	96	1_1	1	1	2	1	23_2_1	1	0	0	1	0.77556180954	515.0	-25.0	None	None	0
3.0.1	2019_Mar_09_1458	s	s	5	3	SIC	1	ABS	0	0	1	4	24_1_4	NA	NA	0	1	0.966570138931	None	None	None	None	1
3.0.1	2019_Mar_09_1458	s	s	5	3	SIC	2	3_1	3	1	3	3	23_3_3	0	2	1	0	0.509341955185	-240.0	29.0	-229.0	35.0	1
3.0.1	2019_Mar_09_1458	s	s	5	3	SIC	3	ABS	0	0	1	4	24_1_4	NA	NA	0	1	2.01047301292	None	None	None	None	1
3.0.1	2019_Mar_09_1458	s	s	5	3	SIC	4	2_1	2	1	2	2	23_2_2	0	1	1	0	1.52829289436	302.0	-139.0	304.0	-144.0	1
3.0.1	2019_Mar_09_1458	s	s	5	3	SIC	5	ABS	0	0	3	1	24_3_1	NA	NA	0	1	1.37827587128	None	None	None	None	1
3.0.1	2019_Mar_09_1458	s	s	5	3	SIC	6	3_3	3	3	1	2	23_1_2	2	1	1	0	0.673627853394	139.0	-324.0	147.0	-319.0	1
3.0.1	2019_Mar_09_1458	s	s	5	3	SIC	7	2_3	2	3	1	3	23_1_3	-1	0	0	1	1.46938896179	-28.0	-143.0	None	None	0
3.0.1	2019_Mar_09_1458	s	s	5	3	SIC	8	ABS	0	0	3	4	24_3_4	NA	NA	0	1	1.09035611153	None	None	None	None	1
3.0.1	2019_Mar_09_1458	s	s	5	3	SIC	9	ABS	0	0	3	2	24_3_2	NA	NA	0	1	3.48062705994	None	None	None	None	1
3.0.1	2019_Mar_09_1458	s	s	5	3	SIC	10	ABS	0	0	2	1	24_2_1	NA	NA	0	1	1.5871219635	None	None	None	None	1
3.0.1	2019_Mar_09_1458	s	s	5	3	SIC	11	ABS	0	0	3	4	24_3_4	NA	NA	0	1	1.18733716011	None	None	None	None	1
3.0.1	2019_Mar_09_1458	s	s	5	3	SIC	12	ABS	0	0	4	2	24_4_2	NA	NA	0	1	2.59100604057	None	None	None	None	1
3.0.1	2019_Mar_09_1458	s	s	5	3	SIC	13	ABS	0	0	4	2	24_4_2	NA	NA	0	1	2.52796506882	None	None	None	None	1
3.0.1	2019_Mar_09_1458	s	s	5	3	SIC	14	1_3	1	3	2	1	23_2_1	1	2	1	0	1.14309692383	-384.0	311.0	-387.0	307.0	1
3.0.1	2019_Mar_09_1458	s	s	5	3	SIC	15	2_4	2	4	1	3	23_1_3	-1	1	1	0	0.599143981934	-497.0	-53.0	-492.0	-57.0	1
3.0.1	2019_Mar_09_1458	s	s	5	3	SIC	16	2_4	2	4	1	4	23_1_4	-1	0	0	1	1.39929914474	189.0	-322.0	None	None	0
3.0.1	2019_Mar_09_1458	s	s	5	3	SIC	17	4_3	4	3	3	1	23_3_1	1	2	1	0	0.450589895248	274.0	178.0	270.0	171.0	1
3.0.1	2019_Mar_09_1458	s	s	5	3	SIC	18	ABS	0	0	2	2	24_2_2	NA	NA	0	1	2.08398580551	None	None	None	None	1
3.0.1	2019_Mar_09_1458	s	s	5	3	SIC	19	ABS	0	0	3	4	24_3_4	NA	NA	0	1	1.19369912148	None	None	None	None	1
3.0.1	2019_Mar_09_1458	s	s	5	3	SIC	20	ABS	0	0	2	1	24_2_1	NA	NA	0	1	1.7957918644	None	None	None	None	1
3.0.1	2019_Mar_09_1458	s	s	5	3	SIC	21	3_4	3	4	1	2	23_1_2	2	2	1	0	0.573134183884	294.0	368.0	298.0	367.0	1
3.0.1	2019_Mar_09_1458	s	s	5	3	SIC	22	ABS	0	0	4	4	24_4_4	NA	NA	0	1	0.731416940689	None	None	None	None	1
3.0.1	2019_Mar_09_1458	s	s	5	3	SIC	23	ABS	0	0	2	3	24_2_3	NA	NA	0	1	1.41062307358	None	None	None	None	1
3.0.1	2019_Mar_09_1458	s	s	5	3	SIC	24	ABS	0	0	4	4	24_4_4	NA	NA	0	1	0.86337184906	None	None	None	None	1
3.0.1	2019_Mar_09_1458	s	s	5	3	SIC	25	ABS	0	0	1	1	24_1_1	NA	NA	0	1	1.37827801704	None	None	None	None	1
3.0.1	2019_Mar_09_1458	s	s	5	3	SIC	26	ABS	0	0	1	1	24_1_1	NA	NA	0	1	1.1283800602	None	None	None	None	1
3.0.1	2019_Mar_09_1458	s	s	5	3	SIC	27	3_2	3	2	3	1	23_3_1	0	-1	1	0	1.35189199448	-243.0	-322.0	-231.0	-315.0	1
3.0.1	2019_Mar_09_1458	s	s	5	3	SIC	28	4_4	4	4	2	2	23_2_2	2	2	1	0	0.516824960709	172.0	124.0	166.0	119.0	1
3.0.1	2019_Mar_09_1458	s	s	5	3	SIC	29	ABS	0	0	3	1	24_3_1	NA	NA	0	1	1.27463293076	None	None	None	None	1
3.0.1	2019_Mar_09_1458	s	s	5	3	SIC	30	ABS	0	0	2	2	24_2_2	NA	NA	0	1	3.32771992683	None	None	None	None	1
3.0.1	2019_Mar_09_1458	s	s	5	3	SIC	31	3_2	3	2	1	1	23_1_1	2	-1	1	0	0.540317058563	-409.0	-61.0	-403.0	-63.0	1
3.0.1	2019_Mar_09_1458	s	s	5	3	SIC	32	4_1	4	1	3	3	23_3_3	1	2	1	0	0.443461179733	482.0	-128.0	481.0	-124.0	1
3.0.1	2019_Mar_09_1458	s	s	5	3	SIC	33	4_4	4	4	1	4	23_1_4	3	0	1	0	0.42275094986	-58.0	-410.0	-55.0	-415.0	1
3.0.1	2019_Mar_09_1458	s	s	5	3	SIC	34	3_4	3	4	3	3	23_3_3	0	1	1	0	0.752006053925	16.0	-53.0	15.0	-49.0	1
3.0.1	2019_Mar_09_1458	s	s	5	3	SIC	35	1_4	1	4	2	1	23_2_1	1	3	1	0	0.554959058762	524.0	182.0	529.0	184.0	1
3.0.1	2019_Mar_09_1458	s	s	5	3	SIC	36	ABS	0	0	2	3	24_2_3	NA	NA	0	1	4.81241607666	None	None	None	None	1
3.0.1	2019_Mar_09_1458	s	s	5	3	SIC	37	4_2	4	2	4	4	23_4_4	0	2	1	0	0.484534978867	266.0	167.0	257.0	173.0	1
3.0.1	2019_Mar_09_1458	s	s	5	3	SIC	38	ABS	0	0	4	4	24_4_4	NA	NA	0	1	1.1801469326	None	None	None	None	1
3.0.1	2019_Mar_09_1458	s	s	5	3	SIC	39	2_4	2	4	3	2	23_3_2	1	2	1	0	0.505478143692	-100.0	-57.0	-98.0	-56.0	1
3.0.1	2019_Mar_09_1458	s	s	5	3	SIC	40	ABS	0	0	2	1	24_2_1	NA	NA	0	1	1.46945095062	None	None	None	None	1
3.0.1	2019_Mar_09_1458	s	s	5	3	SIC	41	1_2	1	2	4	3	23_4_3	3	1	1	0	0.528520822525	-250.0	102.0	-255.0	105.0	1
3.0.1	2019_Mar_09_1458	s	s	5	3	SIC	42	2_1	2	1	1	3	23_1_3	-1	2	1	0	0.622656822205	-70.0	254.0	-70.0	259.0	1
3.0.1	2019_Mar_09_1458	s	s	5	3	SIC	43	2_3	2	3	2	2	23_2_2	0	1	1	0	1.59887695312	-476.0	11.0	-472.0	5.0	1
3.0.1	2019_Mar_09_1458	s	s	5	3	SIC	44	ABS	0	0	2	3	24_2_3	NA	NA	0	1	2.16783094406	None	None	None	None	1
3.0.1	2019_Mar_09_1458	s	s	5	3	SIC	45	2_3	2	3	4	3	23_4_3	2	0	1	0	0.521239042282	151.0	-130.0	151.0	-135.0	1
3.0.1	2019_Mar_09_1458	s	s	5	3	SIC	46	3_1	3	1	4	3	23_4_3	-1	2	1	0	0.516843080521	184.0	-304.0	191.0	-300.0	1
3.0.1	2019_Mar_09_1458	s	s	5	3	SIC	47	3_4	3	4	2	2	23_2_2	1	2	1	0	0.651518106461	-201.0	233.0	-198.0	225.0	1
3.0.1	2019_Mar_09_1458	s	s	5	3	SIC	48	ABS	0	0	4	1	24_4_1	NA	NA	0	1	1.05782198906	None	None	None	None	1
3.0.1	2019_Mar_09_1458	s	s	5	3	SIC	49	ABS	0	0	4	1	24_4_1	NA	NA	0	1	0.933371067047	None	None	None	None	1
3.0.1	2019_Mar_09_1458	s	s	5	3	SIC	50	3_4	3	4	2	4	23_2_4	1	0	1	0	1.03108215332	335.0	-124.0	333.0	-125.0	1
3.0.1	2019_Mar_09_1458	s	s	5	3	SIC	51	ABS	0	0	3	1	24_3_1	NA	NA	0	1	1.18721199036	None	None	None	None	1
3.0.1	2019_Mar_09_1458	s	s	5	3	SIC	52	4_1	4	1	2	4	23_2_4	2	3	1	0	0.634470939636	158.0	-262.0	156.0	-259.0	1
3.0.1	2019_Mar_09_1458	s	s	5	3	SIC	53	1_2	1	2	2	4	23_2_4	1	2	1	0	1.59364295006	-67.0	-407.0	-61.0	-404.0	1
3.0.1	2019_Mar_09_1458	s	s	5	3	SIC	54	4_2	4	2	4	3	23_4_3	0	1	1	0	1.7517209053	316.0	-375.0	317.0	-380.0	1
3.0.1	2019_Mar_09_1458	s	s	5	3	SIC	55	2_2	2	2	4	1	23_4_1	2	-1	1	0	0.496134996414	-482.0	-212.0	-483.0	-215.0	1
3.0.1	2019_Mar_09_1458	s	s	5	3	SIC	56	2_2	2	2	3	4	23_3_4	1	2	1	0	0.49619102478	-414.0	-244.0	-414.0	-246.0	1
3.0.1	2019_Mar_09_1458	s	s	5	3	SIC	57	3_4	3	4	3	2	23_3_2	0	2	1	0	0.893206119537	383.0	101.0	377.0	103.0	1
3.0.1	2019_Mar_09_1458	s	s	5	3	SIC	58	ABS	0	0	3	1	24_3_1	NA	NA	0	1	1.56949901581	None	None	None	None	1
3.0.1	2019_Mar_09_1458	s	s	5	3	SIC	59	ABS	0	0	3	1	24_3_1	NA	NA	0	1	1.4105629921	None	None	None	None	1
3.0.1	2019_Mar_09_1458	s	s	5	3	SIC	60	ABS	0	0	3	1	24_3_1	NA	NA	0	1	1.29843091965	None	None	None	None	1
3.0.1	2019_Mar_09_1458	s	s	5	3	SIC	61	4_4	4	4	4	1	23_4_1	0	3	1	0	0.5873939991	-419.0	409.0	-414.0	407.0	1
3.0.1	2019_Mar_09_1458	s	s	5	3	SIC	62	ABS	0	0	1	1	24_1_1	NA	NA	0	1	1.17534899712	None	None	None	None	1
3.0.1	2019_Mar_09_1458	s	s	5	3	SIC	63	2_2	2	2	1	2	23_1_2	-1	0	1	0	3.01027393341	125.0	382.0	122.0	376.0	1
3.0.1	2019_Mar_09_1458	s	s	5	3	SIC	64	ABS	0	0	2	1	24_2_1	NA	NA	0	1	1.30475592613	None	None	None	None	1
3.0.1	2019_Mar_09_1458	s	s	5	3	SIC	65	3_2	3	2	3	4	23_3_4	0	2	1	0	0.794316053391	258.0	384.0	263.0	384.0	1
3.0.1	2019_Mar_09_1458	s	s	5	3	SIC	66	ABS	0	0	3	2	24_3_2	NA	NA	0	1	5.39762806892	None	None	None	None	1
3.0.1	2019_Mar_09_1458	s	s	5	3	SIC	67	ABS	0	0	2	2	24_2_2	NA	NA	0	1	4.52057099342	None	None	None	None	1
3.0.1	2019_Mar_09_1458	s	s	5	3	SIC	68	ABS	0	0	4	1	24_4_1	NA	NA	0	1	1.22249603271	None	None	None	None	1
3.0.1	2019_Mar_09_1458	s	s	5	3	SIC	69	1_4	1	4	4	1	23_4_1	3	3	1	0	0.521707057953	-479.0	-195.0	-475.0	-203.0	1
3.0.1	2019_Mar_09_1458	s	s	5	3	SIC	70	ABS	0	0	2	1	24_2_1	NA	NA	0	1	1.23427700996	None	None	None	None	1
3.0.1	2019_Mar_09_1458	s	s	5	3	SIC	71	ABS	0	0	2	2	24_2_2	NA	NA	0	1	1.73713898659	None	None	None	None	1
3.0.1	2019_Mar_09_1458	s	s	5	3	SIC	72	3_4	3	4	4	1	23_4_1	-1	3	1	0	0.469634056091	245.0	324.0	246.0	317.0	1
3.0.1	2019_Mar_09_1458	s	s	5	3	SIC	73	ABS	0	0	4	4	24_4_4	NA	NA	0	1	1.52820801735	None	None	None	None	1
3.0.1	2019_Mar_09_1458	s	s	5	3	SIC	74	ABS	0	0	1	2	24_1_2	NA	NA	0	1	1.56785607338	None	None	None	None	1
3.0.1	2019_Mar_09_1458	s	s	5	3	SIC	75	ABS	0	0	1	3	24_1_3	NA	NA	0	1	1.79258489609	None	None	None	None	1
3.0.1	2019_Mar_09_1458	s	s	5	3	SIC	76	ABS	0	0	4	2	24_4_2	NA	NA	0	1	2.46918106079	None	None	None	None	1
3.0.1	2019_Mar_09_1458	s	s	5	3	SIC	77	ABS	0	0	3	3	24_3_3	NA	NA	0	1	2.68922805786	None	None	None	None	1
3.0.1	2019_Mar_09_1458	s	s	5	3	SIC	78	ABS	0	0	3	3	24_3_3	NA	NA	0	1	2.25744700432	None	None	None	None	1
3.0.1	2019_Mar_09_1458	s	s	5	3	SIC	79	ABS	0	0	4	3	24_4_3	NA	NA	0	1	2.16338205338	None	None	None	None	1
3.0.1	2019_Mar_09_1458	s	s	5	3	SIC	80	ABS	0	0	4	3	24_4_3	NA	NA	0	1	2.08976101875	None	None	None	None	1
3.0.1	2019_Mar_09_1458	s	s	5	3	SIC	81	1_2	1	2	2	2	23_2_2	1	0	1	0	1.13351488113	-133.0	113.0	-130.0	113.0	1
3.0.1	2019_Mar_09_1458	s	s	5	3	SIC	82	ABS	0	0	2	2	24_2_2	NA	NA	0	1	1.47320103645	None	None	None	None	1
3.0.1	2019_Mar_09_1458	s	s	5	3	SIC	83	ABS	0	0	4	2	24_4_2	NA	NA	0	1	2.26033401489	None	None	None	None	1
3.0.1	2019_Mar_09_1458	s	s	5	3	SIC	84	4_2	4	2	2	4	23_2_4	2	2	1	0	0.41104388237	71.0	-232.0	69.0	-235.0	1
3.0.1	2019_Mar_09_1458	s	s	5	3	SIC	85	4_3	4	3	2	1	23_2_1	2	2	1	0	0.474864959717	214.0	-254.0	217.0	-255.0	1
3.0.1	2019_Mar_09_1458	s	s	5	3	SIC	86	3_3	3	3	4	3	23_4_3	-1	0	1	0	0.405612945557	-226.0	-178.0	-231.0	-169.0	1
3.0.1	2019_Mar_09_1458	s	s	5	3	SIC	87	2_4	2	4	3	4	23_3_4	1	0	1	0	0.469716072083	-91.0	38.0	-94.0	39.0	1
3.0.1	2019_Mar_09_1458	s	s	5	3	SIC	88	1_1	1	1	1	3	23_1_3	0	2	1	0	1.54541301727	-347.0	211.0	-346.0	214.0	1
3.0.1	2019_Mar_09_1458	s	s	5	3	SIC	89	ABS	0	0	4	4	24_4_4	NA	NA	0	1	2.76310110092	None	None	None	None	1
3.0.1	2019_Mar_09_1458	s	s	5	3	SIC	90	ABS	0	0	4	3	24_4_3	NA	NA	0	1	4.26416802406	None	None	None	None	1
3.0.1	2019_Mar_09_1458	s	s	5	3	SIC	91	ABS	0	0	1	1	24_1_1	NA	NA	0	1	2.4573969841	None	None	None	None	1
3.0.1	2019_Mar_09_1458	s	s	5	3	SIC	92	ABS	0	0	1	2	24_1_2	NA	NA	0	1	3.42183804512	None	None	None	None	1
3.0.1	2019_Mar_09_1458	s	s	5	3	SIC	93	ABS	0	0	1	1	24_1_1	NA	NA	0	1	1.42252802849	None	None	None	None	1
3.0.1	2019_Mar_09_1458	s	s	5	3	SIC	94	ABS	0	0	4	4	24_4_4	NA	NA	0	1	1.37925696373	None	None	None	None	1
3.0.1	2019_Mar_09_1458	s	s	5	3	SIC	95	3_3	3	3	2	3	23_2_3	1	0	1	0	0.916652202606	495.0	-389.0	497.0	-389.0	1
3.0.1	2019_Mar_09_1458	s	s	5	3	SIC	96	1_1	1	1	2	3	23_2_3	1	2	1	0	2.14271807671	499.0	9.0	501.0	9.0	1
3.0.1	2019_Mar_09_1458	s	s	5	3	SIC	97	ABS	0	0	3	2	24_3_2	NA	NA	0	1	3.20215201378	None	None	None	None	1
3.0.1	2019_Mar_09_1458	s	s	5	3	SIC	98	2_2	2	2	2	1	23_2_1	0	-1	0	1	1.79892611504	334.0	405.0	None	None	0
3.0.1	2019_Mar_09_1458	s	s	5	3	SIC	99	1_2	1	2	1	1	23_1_1	0	-1	0	1	1.7095208168	-465.0	125.0	None	None	0
3.0.1	2019_Mar_09_1458	s	s	5	3	SIC	100	ABS	0	0	3	2	24_3_2	NA	NA	0	1	2.71613693237	None	None	None	None	1
3.0.1	2019_Mar_09_1458	s	s	5	3	SIC	101	ABS	0	0	3	4	24_3_4	NA	NA	0	1	1.6283249855	None	None	None	None	1
3.0.1	2019_Mar_09_1458	s	s	5	3	SIC	102	4_2	4	2	3	4	23_3_4	1	2	1	0	0.719669818878	370.0	-60.0	365.0	-60.0	1
3.0.1	2019_Mar_09_1458	s	s	5	3	SIC	103	ABS	0	0	2	2	24_2_2	NA	NA	0	1	3.657091856	None	None	None	None	1
3.0.1	2019_Mar_09_1458	s	s	5	3	SIC	104	2_3	2	3	3	1	23_3_1	1	2	1	0	0.587426185608	100.0	117.0	109.0	115.0	1
3.0.1	2019_Mar_09_1458	s	s	5	3	SIC	105	1_3	1	3	2	2	23_2_2	1	1	1	0	1.49797296524	-526.0	3.0	-528.0	-1.0	1
3.0.1	2019_Mar_09_1458	s	s	5	3	SIC	106	1_3	1	3	3	4	23_3_4	2	-1	1	0	0.552119970322	271.0	92.0	272.0	91.0	1
3.0.1	2019_Mar_09_1458	s	s	5	3	SIC	107	ABS	0	0	4	2	24_4_2	NA	NA	0	1	2.15743589401	None	None	None	None	1
3.0.1	2019_Mar_09_1458	s	s	5	3	SIC	108	4_3	4	3	1	1	23_1_1	3	2	1	0	0.580880880356	390.0	-356.0	394.0	-353.0	1
3.0.1	2019_Mar_09_1458	s	s	5	3	SIC	109	ABS	0	0	2	1	24_2_1	NA	NA	0	1	2.00415492058	None	None	None	None	1
3.0.1	2019_Mar_09_1458	s	s	5	3	SIC	110	ABS	0	0	1	1	24_1_1	NA	NA	0	1	0.681582927704	None	None	None	None	1
3.0.1	2019_Mar_09_1458	s	s	5	3	SIC	111	ABS	0	0	4	4	24_4_4	NA	NA	0	1	1.03427910805	None	None	None	None	1
3.0.1	2019_Mar_09_1458	s	s	5	3	SIC	112	3_2	3	2	4	3	23_4_3	-1	1	1	0	0.575546979904	-196.0	25.0	-190.0	22.0	1
3.0.1	2019_Mar_09_1458	s	s	5	3	SIC	113	ABS	0	0	3	1	24_3_1	NA	NA	0	1	1.25446796417	None	None	None	None	1
3.0.1	2019_Mar_09_1458	s	s	5	3	SIC	114	ABS	0	0	4	4	24_4_4	NA	NA	0	1	1.05783081055	None	None	None	None	1
3.0.1	2019_Mar_09_1458	s	s	5	3	SIC	115	ABS	0	0	3	2	24_3_2	NA	NA	0	1	1.52827787399	None	None	None	None	1
3.0.1	2019_Mar_09_1458	s	s	5	3	SIC	116	3_2	3	2	2	1	23_2_1	1	-1	1	0	0.63445687294	-355.0	166.0	-354.0	168.0	1
3.0.1	2019_Mar_09_1458	s	s	5	3	SIC	117	2_2	2	2	2	3	23_2_3	0	1	1	0	2.59046602249	152.0	-8.0	157.0	-15.0	1
3.0.1	2019_Mar_09_1458	s	s	5	3	SIC	118	ABS	0	0	4	1	24_4_1	NA	NA	0	1	2.42216801643	None	None	None	None	1
3.0.1	2019_Mar_09_1458	s	s	5	3	SIC	119	1_4	1	4	3	2	23_3_2	2	2	1	0	0.540390968323	277.0	-38.0	275.0	-37.0	1
3.0.1	2019_Mar_09_1458	s	s	5	3	SIC	120	ABS	0	0	3	2	24_3_2	NA	NA	0	1	2.2104511261	None	None	None	None	1
3.0.1	2019_Mar_09_1458	s	s	5	3	SIC	121	ABS	0	0	1	1	24_1_1	NA	NA	0	1	2.16340494156	None	None	None	None	1
3.0.1	2019_Mar_09_1458	s	s	5	3	SIC	122	2_2	2	2	3	1	23_3_1	1	-1	1	0	0.736698865891	196.0	-337.0	197.0	-338.0	1
3.0.1	2019_Mar_09_1458	s	s	5	3	SIC	123	1_3	1	3	1	2	23_1_2	0	1	0	1	1.80236506462	347.0	-313.0	None	None	0
3.0.1	2019_Mar_09_1458	s	s	5	3	SIC	124	ABS	0	0	3	3	24_3_3	NA	NA	0	1	2.73799920082	None	None	None	None	1
3.0.1	2019_Mar_09_1458	s	s	5	3	SIC	125	ABS	0	0	4	3	24_4_3	NA	NA	0	1	2.05116820335	None	None	None	None	1
3.0.1	2019_Mar_09_1458	s	s	5	3	SIC	126	4_4	4	4	3	3	23_3_3	1	1	1	0	0.634406089783	-493.0	-89.0	-501.0	-88.0	1
3.0.1	2019_Mar_09_1458	s	s	5	3	SIC	127	ABS	0	0	2	1	24_2_1	NA	NA	0	1	1.97886586189	None	None	None	None	1
3.0.1	2019_Mar_09_1458	s	s	5	3	SIC	128	2_1	2	1	1	2	23_1_2	-1	1	1	0	2.29274201393	497.0	159.0	497.0	155.0	1
3.0.1	2019_Mar_09_1458	s	s	5	3	SIC	129	ABS	0	0	1	3	24_1_3	NA	NA	0	1	3.21429204941	None	None	None	None	1
3.0.1	2019_Mar_09_1458	s	s	5	3	SIC	130	ABS	0	0	2	3	24_2_3	NA	NA	0	1	2.33981084824	None	None	None	None	1
3.0.1	2019_Mar_09_1458	s	s	5	3	SIC	131	4_2	4	2	1	3	23_1_3	3	1	1	0	0.587353944778	420.0	-238.0	419.0	-236.0	1
3.0.1	2019_Mar_09_1458	s	s	5	3	SIC	132	4_1	4	1	4	4	23_4_4	0	3	1	0	0.627815008163	398.0	58.0	398.0	59.0	1
3.0.1	2019_Mar_09_1458	s	s	5	3	SIC	133	ABS	0	0	1	2	24_1_2	NA	NA	0	1	3.75408506393	None	None	None	None	1
3.0.1	2019_Mar_09_1458	s	s	5	3	SIC	134	ABS	0	0	4	4	24_4_4	NA	NA	0	1	2.13324213028	None	None	None	None	1
3.0.1	2019_Mar_09_1458	s	s	5	3	SIC	135	ABS	0	0	4	2	24_4_2	NA	NA	0	1	3.42808294296	None	None	None	None	1
3.0.1	2019_Mar_09_1458	s	s	5	3	SIC	136	4_1	4	1	3	1	23_3_1	1	0	1	0	0.723233938217	-264.0	-111.0	-260.0	-115.0	1
3.0.1	2019_Mar_09_1458	s	s	5	3	SIC	137	2_4	2	4	2	1	23_2_1	0	3	1	0	0.543282032013	-176.0	-219.0	-176.0	-217.0	1
3.0.1	2019_Mar_09_1458	s	s	5	3	SIC	138	ABS	0	0	1	4	24_1_4	NA	NA	0	1	2.5702829361	None	None	None	None	1
3.0.1	2019_Mar_09_1458	s	s	5	3	SIC	139	1_2	1	2	3	1	23_3_1	2	-1	1	0	0.751984834671	-449.0	-406.0	-443.0	-407.0	1
3.0.1	2019_Mar_09_1458	s	s	5	3	SIC	140	ABS	0	0	2	4	24_2_4	NA	NA	0	1	1.63414001465	None	None	None	None	1
3.0.1	2019_Mar_09_1458	s	s	5	3	SIC	141	4_3	4	3	2	2	23_2_2	2	1	1	0	0.461933135986	-277.0	280.0	-271.0	279.0	1
3.0.1	2019_Mar_09_1458	s	s	5	3	SIC	142	ABS	0	0	2	4	24_2_4	NA	NA	0	1	0.724563121796	None	None	None	None	1
3.0.1	2019_Mar_09_1458	s	s	5	3	SIC	143	ABS	0	0	1	2	24_1_2	NA	NA	0	1	1.95829582214	None	None	None	None	1
3.0.1	2019_Mar_09_1458	s	s	5	3	SIC	144	ABS	0	0	2	1	24_2_1	NA	NA	0	1	1.95176005363	None	None	None	None	1
3.0.1	2019_Mar_09_1458	s	s	5	3	SIC	145	4_1	4	1	1	2	23_1_2	3	1	1	0	0.546319961548	286.0	326.0	278.0	320.0	1
3.0.1	2019_Mar_09_1458	s	s	5	3	SIC	146	ABS	0	0	1	4	24_1_4	NA	NA	0	1	1.68594884872	None	None	None	None	1
3.0.1	2019_Mar_09_1458	s	s	5	3	SIC	147	3_2	3	2	1	3	23_1_3	2	1	1	0	0.740251064301	346.0	115.0	345.0	115.0	1
3.0.1	2019_Mar_09_1458	s	s	5	3	SIC	148	ABS	0	0	3	2	24_3_2	NA	NA	0	1	3.62038707733	None	None	None	None	1
3.0.1	2019_Mar_09_1458	s	s	5	3	SIC	149	3_2	3	2	2	2	23_2_2	1	0	1	0	0.599349021912	-515.0	120.0	-513.0	118.0	1
3.0.1	2019_Mar_09_1458	s	s	5	3	SIC	150	4_4	4	4	4	2	23_4_2	0	2	1	0	0.559641122818	62.0	-18.0	67.0	-22.0	1
3.0.1	2019_Mar_09_1458	s	s	5	3	SIC	151	2_2	2	2	4	4	23_4_4	2	2	1	0	0.382786035538	248.0	217.0	239.0	214.0	1
3.0.1	2019_Mar_09_1458	s	s	5	3	SIC	152	1_3	1	3	2	3	23_2_3	1	0	1	0	1.01077795029	2.0	209.0	9.0	208.0	1
3.0.1	2019_Mar_09_1458	s	s	5	3	SIC	153	3_3	3	3	3	1	23_3_1	0	2	1	0	0.940128803253	-237.0	236.0	-237.0	232.0	1
3.0.1	2019_Mar_09_1458	s	s	5	3	SIC	154	2_2	2	2	1	3	23_1_3	-1	1	1	0	1.95546197891	298.0	-108.0	294.0	-107.0	1
3.0.1	2019_Mar_09_1458	s	s	5	3	SIC	155	ABS	0	0	3	2	24_3_2	NA	NA	0	1	2.81513881683	None	None	None	None	1
3.0.1	2019_Mar_09_1458	s	s	5	3	SIC	156	2_4	2	4	1	2	23_1_2	-1	2	1	0	0.516872882843	-74.0	398.0	-69.0	396.0	1
3.0.1	2019_Mar_09_1458	s	s	5	3	SIC	157	ABS	0	0	1	1	24_1_1	NA	NA	0	1	1.96671795845	None	None	None	None	1
3.0.1	2019_Mar_09_1458	s	s	5	3	SIC	158	ABS	0	0	2	1	24_2_1	NA	NA	0	1	1.68663096428	None	None	None	None	1
3.0.1	2019_Mar_09_1458	s	s	5	3	SIC	159	ABS	0	0	2	4	24_2_4	NA	NA	0	1	2.31920909882	None	None	None	None	1
3.0.1	2019_Mar_09_1458	s	s	5	3	SIC	160	3_3	3	3	2	2	23_2_2	1	1	1	0	0.575611829758	-317.0	-87.0	-325.0	-86.0	1
3.0.1	2019_Mar_09_1458	s	s	5	3	SIC	161	2_3	2	3	4	4	23_4_4	2	-1	1	0	0.637789964676	19.0	-406.0	26.0	-408.0	1
3.0.1	2019_Mar_09_1458	s	s	5	3	SIC	162	2_1	2	1	2	4	23_2_4	0	3	1	0	0.532592773438	-424.0	60.0	-421.0	54.0	1
3.0.1	2019_Mar_09_1458	s	s	5	3	SIC	163	3_1	3	1	2	1	23_2_1	1	0	1	0	0.516764163971	-324.0	222.0	-320.0	221.0	1
3.0.1	2019_Mar_09_1458	s	s	5	3	SIC	164	ABS	0	0	3	1	24_3_1	NA	NA	0	1	1.46136879921	None	None	None	None	1
3.0.1	2019_Mar_09_1458	s	s	5	3	SIC	165	ABS	0	0	3	4	24_3_4	NA	NA	0	1	1.04606509209	None	None	None	None	1
3.0.1	2019_Mar_09_1458	s	s	5	3	SIC	166	ABS	0	0	1	4	24_1_4	NA	NA	0	1	1.0842320919	None	None	None	None	1
3.0.1	2019_Mar_09_1458	s	s	5	3	SIC	167	ABS	0	0	3	3	24_3_3	NA	NA	0	1	3.37762999535	None	None	None	None	1
3.0.1	2019_Mar_09_1458	s	s	5	3	SIC	168	2_1	2	1	4	3	23_4_3	2	2	1	0	0.658088207245	-527.0	46.0	-526.0	43.0	1
3.0.1	2019_Mar_09_1458	s	s	5	3	SIC	169	3_3	3	3	1	3	23_1_3	2	0	1	0	0.613816976547	196.0	408.0	201.0	406.0	1
3.0.1	2019_Mar_09_1458	s	s	5	3	SIC	170	1_1	1	1	2	1	23_2_1	1	0	0	1	2.79845905304	-342.0	231.0	None	None	0
3.0.1	2019_Mar_09_1458	s	s	5	3	SIC	171	ABS	0	0	3	4	24_3_4	NA	NA	0	1	0.670207977295	None	None	None	None	1
3.0.1	2019_Mar_09_1458	s	s	5	3	SIC	172	4_1	4	1	1	4	23_1_4	3	3	1	0	0.516822099686	-31.0	121.0	-31.0	120.0	1
3.0.1	2019_Mar_09_1458	s	s	5	3	SIC	173	3_3	3	3	3	2	23_3_2	0	1	1	0	2.30976605415	-520.0	-249.0	-522.0	-254.0	1
3.0.1	2019_Mar_09_1458	s	s	5	3	SIC	174	ABS	0	0	2	4	24_2_4	NA	NA	0	1	1.32155704498	None	None	None	None	1
3.0.1	2019_Mar_09_1458	s	s	5	3	SIC	175	ABS	0	0	1	4	24_1_4	NA	NA	0	1	1.92261600494	None	None	None	None	1
3.0.1	2019_Mar_09_1458	s	s	5	3	SIC	176	4_3	4	3	3	2	23_3_2	1	1	1	0	0.516736030579	404.0	410.0	413.0	406.0	1
3.0.1	2019_Mar_09_1458	s	s	5	3	SIC	177	4_2	4	2	3	3	23_3_3	1	1	1	0	0.446153879166	503.0	334.0	505.0	326.0	1
3.0.1	2019_Mar_09_1458	s	s	5	3	SIC	178	3_2	3	2	1	2	23_1_2	2	0	1	0	0.83443903923	-473.0	-288.0	-482.0	-286.0	1
3.0.1	2019_Mar_09_1458	s	s	5	3	SIC	179	ABS	0	0	2	4	24_2_4	NA	NA	0	1	1.48648715019	None	None	None	None	1
3.0.1	2019_Mar_09_1458	s	s	5	3	SIC	180	2_3	2	3	3	4	23_3_4	1	-1	1	0	0.681448936462	-57.0	-196.0	-49.0	-198.0	1
3.0.1	2019_Mar_09_1458	s	s	5	3	SIC	181	2_2	2	2	1	4	23_1_4	-1	2	1	0	0.415436029434	-370.0	63.0	-370.0	69.0	1
3.0.1	2019_Mar_09_1458	s	s	5	3	SIC	182	ABS	0	0	1	1	24_1_1	NA	NA	0	1	1.60549092293	None	None	None	None	1
3.0.1	2019_Mar_09_1458	s	s	5	3	SIC	183	ABS	0	0	2	2	24_2_2	NA	NA	0	1	2.52193403244	None	None	None	None	1
3.0.1	2019_Mar_09_1458	s	s	5	3	SIC	184	2_1	2	1	4	1	23_4_1	2	0	1	0	0.516832828522	130.0	306.0	134.0	302.0	1
3.0.1	2019_Mar_09_1458	s	s	5	3	SIC	185	1_3	1	3	4	4	23_4_4	3	-1	1	0	0.521565914154	35.0	189.0	36.0	188.0	1
3.0.1	2019_Mar_09_1458	s	s	5	3	SIC	186	ABS	0	0	3	4	24_3_4	NA	NA	0	1	1.21074199677	None	None	None	None	1
3.0.1	2019_Mar_09_1458	s	s	5	3	SIC	187	ABS	0	0	4	3	24_4_3	NA	NA	0	1	3.02583789825	None	None	None	None	1
3.0.1	2019_Mar_09_1458	s	s	5	3	SIC	188	2_4	2	4	4	4	23_4_4	2	0	1	0	0.634400129318	399.0	-205.0	403.0	-205.0	1
3.0.1	2019_Mar_09_1458	s	s	5	3	SIC	189	ABS	0	0	3	3	24_3_3	NA	NA	0	1	3.81618404388	None	None	None	None	1
3.0.1	2019_Mar_09_1458	s	s	5	3	SIC	190	ABS	0	0	3	4	24_3_4	NA	NA	0	1	1.55649495125	None	None	None	None	1
3.0.1	2019_Mar_09_1458	s	s	5	3	SIC	191	1_2	1	2	4	1	23_4_1	3	-1	1	0	0.481710195541	327.0	-180.0	325.0	-180.0	1
3.0.1	2019_Mar_09_1458	s	s	5	3	SIC	192	1_3	1	3	1	1	23_1_1	0	2	1	0	0.958190917969	252.0	-411.0	256.0	-409.0	1
3.0.1	2019_Mar_09_1458	s	s	5	3	SIC	193	4_3	4	3	1	3	23_1_3	3	0	1	0	0.378532886505	-224.0	88.0	-230.0	89.0	1
3.0.1	2019_Mar_09_1458	s	s	5	3	SIC	194	2_3	2	3	1	1	23_1_1	-1	2	1	0	0.681524991989	223.0	-52.0	222.0	-59.0	1
3.0.1	2019_Mar_09_1458	s	s	5	3	SIC	195	ABS	0	0	3	1	24_3_1	NA	NA	0	1	1.60171413422	None	None	None	None	1
3.0.1	2019_Mar_09_1458	s	s	5	3	SIC	196	ABS	0	0	3	2	24_3_2	NA	NA	0	1	4.25980615616	None	None	None	None	1
3.0.1	2019_Mar_09_1458	s	s	5	3	SIC	197	ABS	0	0	2	2	24_2_2	NA	NA	0	1	3.59128284454	None	None	None	None	1
3.0.1	2019_Mar_09_1458	s	s	5	3	SIC	198	ABS	0	0	4	1	24_4_1	NA	NA	0	1	1.97512292862	None	None	None	None	1
3.0.1	2019_Mar_09_1458	s	s	5	3	SIC	199	1_3	1	3	4	2	23_4_2	3	1	1	0	0.450488090515	-142.0	-203.0	-141.0	-206.0	1
3.0.1	2019_Mar_09_1458	s	s	5	3	SIC	200	1_3	1	3	4	3	23_4_3	3	0	1	0	0.446233034134	314.0	34.0	312.0	38.0	1
3.0.1	2019_Mar_09_1458	s	s	5	3	SIC	201	1_4	1	4	3	4	23_3_4	2	0	1	0	0.414649009705	301.0	156.0	305.0	153.0	1
3.0.1	2019_Mar_09_1458	s	s	5	3	SIC	202	2_1	2	1	4	2	23_4_2	2	1	1	0	0.410932064056	74.0	355.0	66.0	358.0	1
3.0.1	2019_Mar_09_1458	s	s	5	3	SIC	203	ABS	0	0	2	3	24_2_3	NA	NA	0	1	3.26004195213	None	None	None	None	1
3.0.1	2019_Mar_09_1458	s	s	5	3	SIC	204	4_4	4	4	3	1	23_3_1	1	3	1	0	0.456237077713	507.0	264.0	505.0	258.0	1
3.0.1	2019_Mar_09_1458	s	s	5	3	SIC	205	1_1	1	1	2	4	23_2_4	1	3	1	0	0.451592922211	10.0	157.0	5.0	157.0	1
3.0.1	2019_Mar_09_1458	s	s	5	3	SIC	206	4_2	4	2	4	1	23_4_1	0	-1	0	1	0.971731901169	310.0	268.0	None	None	0
3.0.1	2019_Mar_09_1458	s	s	5	3	SIC	207	ABS	0	0	1	2	24_1_2	NA	NA	0	1	4.77442407608	None	None	None	None	1
3.0.1	2019_Mar_09_1458	s	s	5	3	SIC	208	3_2	3	2	2	3	23_2_3	1	1	1	0	0.497194051743	31.0	200.0	36.0	202.0	1
3.0.1	2019_Mar_09_1458	s	s	5	3	SIC	209	ABS	0	0	3	1	24_3_1	NA	NA	0	1	1.29307889938	None	None	None	None	1
3.0.1	2019_Mar_09_1458	s	s	5	3	SIC	210	ABS	0	0	3	3	24_3_3	NA	NA	0	1	4.0970389843	None	None	None	None	1
3.0.1	2019_Mar_09_1458	s	s	5	3	SIC	211	4_3	4	3	4	4	23_4_4	0	-1	1	0	1.09822392464	382.0	131.0	379.0	132.0	1
3.0.1	2019_Mar_09_1458	s	s	5	3	SIC	212	ABS	0	0	3	3	24_3_3	NA	NA	0	1	4.05683493614	None	None	None	None	1
3.0.1	2019_Mar_09_1458	s	s	5	3	SIC	213	2_1	2	1	1	4	23_1_4	-1	3	1	0	0.489872932434	-404.0	381.0	-405.0	381.0	1
3.0.1	2019_Mar_09_1458	s	s	5	3	SIC	214	ABS	0	0	2	4	24_2_4	NA	NA	0	1	1.20486021042	None	None	None	None	1
3.0.1	2019_Mar_09_1458	s	s	5	3	SIC	215	1_4	1	4	2	2	23_2_2	1	2	1	0	0.719680070877	365.0	34.0	358.0	28.0	1
3.0.1	2019_Mar_09_1458	s	s	5	3	SIC	216	ABS	0	0	4	3	24_4_3	NA	NA	0	1	3.46883392334	None	None	None	None	1
3.0.1	2019_Mar_09_1458	s	s	5	3	SIC	217	3_4	3	4	2	3	23_2_3	1	1	1	0	0.54520201683	431.0	194.0	434.0	190.0	1
3.0.1	2019_Mar_09_1458	s	s	5	3	SIC	218	ABS	0	0	3	4	24_3_4	NA	NA	0	1	1.34011983871	None	None	None	None	1
3.0.1	2019_Mar_09_1458	s	s	5	3	SIC	219	ABS	0	0	1	3	24_1_3	NA	NA	0	1	3.27309203148	None	None	None	None	1
3.0.1	2019_Mar_09_1458	s	s	5	3	SIC	220	ABS	0	0	2	1	24_2_1	NA	NA	0	1	1.65763807297	None	None	None	None	1
3.0.1	2019_Mar_09_1458	s	s	5	3	SIC	221	2_2	2	2	2	4	23_2_4	0	2	1	0	0.55984210968	326.0	-122.0	330.0	-120.0	1
3.0.1	2019_Mar_09_1458	s	s	5	3	SIC	222	ABS	0	0	1	3	24_1_3	NA	NA	0	1	4.23824501038	None	None	None	None	1
3.0.1	2019_Mar_09_1458	s	s	5	3	SIC	223	1_3	1	3	1	4	23_1_4	0	-1	1	0	0.575597047806	99.0	-54.0	104.0	-53.0	1
3.0.1	2019_Mar_09_1458	s	s	5	3	SIC	224	ABS	0	0	2	3	24_2_3	NA	NA	0	1	4.06180810928	None	None	None	None	1
3.0.1	2019_Mar_09_1458	s	s	5	3	SIC	225	ABS	0	0	2	1	24_2_1	NA	NA	0	1	1.76346993446	None	None	None	None	1
3.0.1	2019_Mar_09_1458	s	s	5	3	SIC	226	ABS	0	0	1	1	24_1_1	NA	NA	0	1	1.70950293541	None	None	None	None	1
3.0.1	2019_Mar_09_1458	s	s	5	3	SIC	227	2_2	2	2	4	3	23_4_3	2	1	1	0	0.469743013382	-73.0	0.0	-75.0	5.0	1
3.0.1	2019_Mar_09_1458	s	s	5	3	SIC	228	ABS	0	0	1	3	24_1_3	NA	NA	0	1	4.89190506935	None	None	None	None	1
3.0.1	2019_Mar_09_1458	s	s	5	3	SIC	229	1_4	1	4	2	4	23_2_4	1	0	0	1	1.48584389687	434.0	-385.0	None	None	0
3.0.1	2019_Mar_09_1458	s	s	5	3	SIC	230	1_4	1	4	4	3	23_4_3	3	1	1	0	0.474820137024	125.0	-294.0	124.0	-294.0	1
3.0.1	2019_Mar_09_1458	s	s	5	3	SIC	231	ABS	0	0	2	4	24_2_4	NA	NA	0	1	1.1754450798	None	None	None	None	1
3.0.1	2019_Mar_09_1458	s	s	5	3	SIC	232	1_1	1	1	3	2	23_3_2	2	1	1	0	0.557573080063	-526.0	-353.0	-525.0	-355.0	1
3.0.1	2019_Mar_09_1458	s	s	5	3	SIC	233	ABS	0	0	1	2	24_1_2	NA	NA	0	1	2.66200113297	None	None	None	None	1
3.0.1	2019_Mar_09_1458	s	s	5	3	SIC	234	2_4	2	4	1	1	23_1_1	-1	3	1	0	0.599262952805	-356.0	-321.0	-351.0	-319.0	1
3.0.1	2019_Mar_09_1458	s	s	5	3	SIC	235	ABS	0	0	1	1	24_1_1	NA	NA	0	1	1.54004788399	None	None	None	None	1
3.0.1	2019_Mar_09_1458	s	s	5	3	SIC	236	3_4	3	4	4	2	23_4_2	-1	2	1	0	0.443539142609	364.0	8.0	365.0	10.0	1
3.0.1	2019_Mar_09_1458	s	s	5	3	SIC	237	1_4	1	4	1	1	23_1_1	0	3	1	0	0.462661027908	282.0	-318.0	286.0	-319.0	1
3.0.1	2019_Mar_09_1458	s	s	5	3	SIC	238	ABS	0	0	1	4	24_1_4	NA	NA	0	1	1.62670111656	None	None	None	None	1
3.0.1	2019_Mar_09_1458	s	s	5	3	SIC	239	ABS	0	0	1	3	24_1_3	NA	NA	0	1	3.56898808479	None	None	None	None	1
3.0.1	2019_Mar_09_1458	s	s	5	3	SIC	240	3_3	3	3	1	4	23_1_4	2	-1	1	0	0.511651992798	-245.0	115.0	-240.0	112.0	1
3.0.1	2019_Mar_09_1458	s	s	5	3	SIC	241	4_2	4	2	1	2	23_1_2	3	0	1	0	0.469782829285	-186.0	-192.0	-178.0	-191.0	1
3.0.1	2019_Mar_09_1458	s	s	5	3	SIC	242	3_1	3	1	1	2	23_1_2	2	1	1	0	0.422766923904	-319.0	31.0	-320.0	28.0	1
3.0.1	2019_Mar_09_1458	s	s	5	3	SIC	243	ABS	0	0	2	2	24_2_2	NA	NA	0	1	2.8808119297	None	None	None	None	1
3.0.1	2019_Mar_09_1458	s	s	5	3	SIC	244	2_1	2	1	4	4	23_4_4	2	3	1	0	0.428908109665	-100.0	349.0	-99.0	357.0	1
3.0.1	2019_Mar_09_1458	s	s	5	3	SIC	245	ABS	0	0	2	3	24_2_3	NA	NA	0	1	3.04871702194	None	None	None	None	1
3.0.1	2019_Mar_09_1458	s	s	5	3	SIC	246	2_1	2	1	3	2	23_3_2	1	1	1	0	0.615205049515	38.0	-290.0	33.0	-290.0	1
3.0.1	2019_Mar_09_1458	s	s	5	3	SIC	247	3_4	3	4	4	4	23_4_4	-1	0	1	0	0.427665948868	378.0	-21.0	387.0	-19.0	1
3.0.1	2019_Mar_09_1458	s	s	5	3	SIC	248	3_3	3	3	2	1	23_2_1	1	2	1	0	0.481575012207	-337.0	350.0	-339.0	350.0	1
3.0.1	2019_Mar_09_1458	s	s	5	3	SIC	249	ABS	0	0	1	4	24_1_4	NA	NA	0	1	1.76346516609	None	None	None	None	1
3.0.1	2019_Mar_09_1458	s	s	5	3	SIC	250	ABS	0	0	3	4	24_3_4	NA	NA	0	1	1.67409396172	None	None	None	None	1
3.0.1	2019_Mar_09_1458	s	s	5	3	SIC	251	4_3	4	3	4	2	23_4_2	0	1	1	0	1.25096106529	-333.0	-116.0	-333.0	-122.0	1
3.0.1	2019_Mar_09_1458	s	s	5	3	SIC	252	4_4	4	4	2	1	23_2_1	2	3	1	0	0.469735145569	-428.0	88.0	-431.0	89.0	1
3.0.1	2019_Mar_09_1458	s	s	5	3	SIC	253	ABS	0	0	3	3	24_3_3	NA	NA	0	1	3.76285791397	None	None	None	None	1
3.0.1	2019_Mar_09_1458	s	s	5	3	SIC	254	ABS	0	0	4	4	24_4_4	NA	NA	0	1	1.18064594269	None	None	None	None	1
3.0.1	2019_Mar_09_1458	s	s	5	3	SIC	255	1_1	1	1	1	2	23_1_2	0	1	1	0	2.82217407227	313.0	323.0	316.0	318.0	1
3.0.1	2019_Mar_09_1458	s	s	5	3	SIC	256	3_2	3	2	4	4	23_4_4	-1	2	1	0	0.41584610939	-129.0	221.0	-122.0	226.0	1
3.0.1	2019_Mar_09_1458	s	s	5	3	SIC	257	3_1	3	1	2	2	23_2_2	1	1	1	0	0.563832998276	85.0	-247.0	86.0	-250.0	1
3.0.1	2019_Mar_09_1458	s	s	5	3	SIC	258	1_1	1	1	4	1	23_4_1	3	0	1	0	0.876348018646	312.0	-397.0	315.0	-397.0	1
3.0.1	2019_Mar_09_1458	s	s	5	3	SIC	259	1_1	1	1	4	4	23_4_4	3	3	1	0	0.451621055603	193.0	-243.0	191.0	-248.0	1
3.0.1	2019_Mar_09_1458	s	s	5	3	SIC	260	1_4	1	4	3	3	23_3_3	2	1	1	0	0.496163845062	-164.0	-215.0	-167.0	-205.0	1
3.0.1	2019_Mar_09_1458	s	s	5	3	SIC	261	1_4	1	4	1	2	23_1_2	0	2	1	0	0.698630809784	-98.0	-82.0	-96.0	-85.0	1
3.0.1	2019_Mar_09_1458	s	s	5	3	SIC	262	ABS	0	0	4	3	24_4_3	NA	NA	0	1	3.53058385849	None	None	None	None	1
3.0.1	2019_Mar_09_1458	s	s	5	3	SIC	263	ABS	0	0	1	2	24_1_2	NA	NA	0	1	4.1785929203	None	None	None	None	1
3.0.1	2019_Mar_09_1458	s	s	5	3	SIC	264	2_2	2	2	3	3	23_3_3	1	1	1	0	0.822617053986	-139.0	-64.0	-139.0	-67.0	1
3.0.1	2019_Mar_09_1458	s	s	5	3	SIC	265	ABS	0	0	1	3	24_1_3	NA	NA	0	1	2.28611302376	None	None	None	None	1
3.0.1	2019_Mar_09_1458	s	s	5	3	SIC	266	ABS	0	0	4	3	24_4_3	NA	NA	0	1	4.65675902367	None	None	None	None	1
3.0.1	2019_Mar_09_1458	s	s	5	3	SIC	267	ABS	0	0	4	4	24_4_4	NA	NA	0	1	1.86335921288	None	None	None	None	1
3.0.1	2019_Mar_09_1458	s	s	5	3	SIC	268	ABS	0	0	3	4	24_3_4	NA	NA	0	1	2.19870018959	None	None	None	None	1
3.0.1	2019_Mar_09_1458	s	s	5	3	SIC	269	ABS	0	0	2	3	24_2_3	NA	NA	0	1	3.83347988129	None	None	None	None	1
3.0.1	2019_Mar_09_1458	s	s	5	3	SIC	270	ABS	0	0	3	4	24_3_4	NA	NA	0	1	1.49300289154	None	None	None	None	1
3.0.1	2019_Mar_09_1458	s	s	5	3	SIC	271	4_1	4	1	2	3	23_2_3	2	2	1	0	0.481510877609	-218.0	339.0	-211.0	338.0	1
3.0.1	2019_Mar_09_1458	s	s	5	3	SIC	272	2_1	2	1	3	1	23_3_1	1	0	1	0	0.528502941132	85.0	161.0	87.0	160.0	1
3.0.1	2019_Mar_09_1458	s	s	5	3	SIC	273	ABS	0	0	1	4	24_1_4	NA	NA	0	1	0.992359161377	None	None	None	None	1
3.0.1	2019_Mar_09_1458	s	s	5	3	SIC	274	ABS	0	0	3	3	24_3_3	NA	NA	0	1	2.61882090569	None	None	None	None	1
3.0.1	2019_Mar_09_1458	s	s	5	3	SIC	275	1_1	1	1	2	2	23_2_2	1	1	1	0	2.23394179344	411.0	-35.0	412.0	-35.0	1
3.0.1	2019_Mar_09_1458	s	s	5	3	SIC	276	3_4	3	4	4	3	23_4_3	-1	1	1	0	0.505006074905	-211.0	-230.0	-201.0	-230.0	1
3.0.1	2019_Mar_09_1458	s	s	5	3	SIC	277	4_1	4	1	4	3	23_4_3	0	2	1	0	2.54491186142	-168.0	-412.0	-165.0	-409.0	1
3.0.1	2019_Mar_09_1458	s	s	5	3	SIC	278	3_1	3	1	3	4	23_3_4	0	3	1	0	0.50968503952	-118.0	-113.0	-115.0	-117.0	1
3.0.1	2019_Mar_09_1458	s	s	5	3	SIC	279	ABS	0	0	4	2	24_4_2	NA	NA	0	1	3.67171788216	None	None	None	None	1
3.0.1	2019_Mar_09_1458	s	s	5	3	SIC	280	ABS	0	0	1	4	24_1_4	NA	NA	0	1	1.36661601067	None	None	None	None	1
3.0.1	2019_Mar_09_1458	s	s	5	3	SIC	281	2_4	2	4	2	3	23_2_3	0	1	1	0	0.627860069275	158.0	-200.0	162.0	-198.0	1
3.0.1	2019_Mar_09_1458	s	s	5	3	SIC	282	ABS	0	0	2	2	24_2_2	NA	NA	0	1	3.16302394867	None	None	None	None	1
3.0.1	2019_Mar_09_1458	s	s	5	3	SIC	283	ABS	0	0	4	3	24_4_3	NA	NA	0	1	4.4686050415	None	None	None	None	1
3.0.1	2019_Mar_09_1458	s	s	5	3	SIC	284	3_3	3	3	4	2	23_4_2	-1	1	1	0	0.599189996719	-193.0	271.0	-189.0	265.0	1
3.0.1	2019_Mar_09_1458	s	s	5	3	SIC	285	ABS	0	0	4	1	24_4_1	NA	NA	0	1	1.07494997978	None	None	None	None	1
3.0.1	2019_Mar_09_1458	s	s	5	3	SIC	286	ABS	0	0	4	3	24_4_3	NA	NA	0	1	2.08104205132	None	None	None	None	1
3.0.1	2019_Mar_09_1458	s	s	5	3	SIC	287	4_1	4	1	3	2	23_3_2	1	1	1	0	0.451095819473	-436.0	-115.0	-425.0	-114.0	1
3.0.1	2019_Mar_09_1458	s	s	5	3	SIC	288	ABS	0	0	3	1	24_3_1	NA	NA	0	1	1.26950502396	None	None	None	None	1
3.0.1	2019_Mar_09_1458	s	s	5	3	SIC	289	ABS	0	0	1	3	24_1_3	NA	NA	0	1	2.06931710243	None	None	None	None	1
3.0.1	2019_Mar_09_1458	s	s	5	3	SIC	290	2_4	2	4	3	3	23_3_3	1	1	1	0	0.615396022797	8.0	180.0	16.0	178.0	1
3.0.1	2019_Mar_09_1458	s	s	5	3	SIC	291	ABS	0	0	2	3	24_2_3	NA	NA	0	1	3.41006803513	None	None	None	None	1
3.0.1	2019_Mar_09_1458	s	s	5	3	SIC	292	ABS	0	0	2	4	24_2_4	NA	NA	0	1	1.21072387695	None	None	None	None	1
3.0.1	2019_Mar_09_1458	s	s	5	3	SIC	293	1_2	1	2	4	2	23_4_2	3	0	1	0	0.415815830231	-160.0	-165.0	-156.0	-163.0	1
3.0.1	2019_Mar_09_1458	s	s	5	3	SIC	294	ABS	0	0	2	4	24_2_4	NA	NA	0	1	0.951953887939	None	None	None	None	1
3.0.1	2019_Mar_09_1458	s	s	5	3	SIC	295	4_4	4	4	3	2	23_3_2	1	2	1	0	0.437501907349	-448.0	-297.0	-440.0	-300.0	1
3.0.1	2019_Mar_09_1458	s	s	5	3	SIC	296	1_3	1	3	3	2	23_3_2	2	1	1	0	0.516794919968	-514.0	144.0	-510.0	152.0	1
3.0.1	2019_Mar_09_1458	s	s	5	3	SIC	297	ABS	0	0	2	1	24_2_1	NA	NA	0	1	1.22730398178	None	None	None	None	1
3.0.1	2019_Mar_09_1458	s	s	5	3	SIC	298	1_3	1	3	2	4	23_2_4	1	-1	1	0	0.992722988129	493.0	404.0	501.0	406.0	1
3.0.1	2019_Mar_09_1458	s	s	5	3	SIC	299	4_2	4	2	2	3	23_2_3	2	1	1	0	0.437575101852	151.0	-167.0	160.0	-170.0	1
3.0.1	2019_Mar_09_1458	s	s	5	3	SIC	300	ABS	0	0	4	2	24_4_2	NA	NA	0	1	2.56365990639	None	None	None	None	1
3.0.1	2019_Mar_09_1458	s	s	5	3	SIC	301	4_2	4	2	2	2	23_2_2	2	0	1	0	0.405711889267	150.0	222.0	150.0	221.0	1
3.0.1	2019_Mar_09_1458	s	s	5	3	SIC	302	4_1	4	1	1	1	23_1_1	3	0	1	0	0.387501001358	-347.0	-270.0	-345.0	-268.0	1
3.0.1	2019_Mar_09_1458	s	s	5	3	SIC	303	1_1	1	1	3	4	23_3_4	2	3	1	0	0.378561019897	327.0	-106.0	331.0	-106.0	1
3.0.1	2019_Mar_09_1458	s	s	5	3	SIC	304	1_1	1	1	1	4	23_1_4	0	3	1	0	0.540302038193	-107.0	364.0	-103.0	364.0	1
3.0.1	2019_Mar_09_1458	s	s	5	3	SIC	305	ABS	0	0	2	3	24_2_3	NA	NA	0	1	3.23359799385	None	None	None	None	1
3.0.1	2019_Mar_09_1458	s	s	5	3	SIC	306	3_1	3	1	4	2	23_4_2	-1	1	1	0	0.481594800949	432.0	177.0	429.0	183.0	1
3.0.1	2019_Mar_09_1458	s	s	5	3	SIC	307	2_1	2	1	3	4	23_3_4	1	3	1	0	0.599176883698	321.0	-308.0	324.0	-306.0	1
3.0.1	2019_Mar_09_1458	s	s	5	3	SIC	308	1_2	1	2	2	1	23_2_1	1	-1	1	0	1.48126602173	23.0	359.0	21.0	365.0	1
3.0.1	2019_Mar_09_1458	s	s	5	3	SIC	309	2_4	2	4	4	2	23_4_2	2	2	1	0	0.434494972229	408.0	-188.0	411.0	-187.0	1
3.0.1	2019_Mar_09_1458	s	s	5	3	SIC	310	4_3	4	3	2	4	23_2_4	2	-1	1	0	0.410952091217	-15.0	-337.0	-20.0	-337.0	1
3.0.1	2019_Mar_09_1458	s	s	5	3	SIC	311	1_1	1	1	4	2	23_4_2	3	1	1	0	0.352095127106	-236.0	-138.0	-230.0	-140.0	1
3.0.1	2019_Mar_09_1458	s	s	5	3	SIC	312	ABS	0	0	4	4	24_4_4	NA	NA	0	1	1.36960601807	None	None	None	None	1
3.0.1	2019_Mar_09_1458	s	s	5	3	SIC	313	ABS	0	0	4	1	24_4_1	NA	NA	0	1	1.4461979866	None	None	None	None	1
3.0.1	2019_Mar_09_1458	s	s	5	3	SIC	314	1_1	1	1	4	3	23_4_3	3	2	1	0	0.484436988831	500.0	255.0	503.0	247.0	1
3.0.1	2019_Mar_09_1458	s	s	5	3	SIC	315	ABS	0	0	3	2	24_3_2	NA	NA	0	1	2.42212295532	None	None	None	None	1
3.0.1	2019_Mar_09_1458	s	s	5	3	SIC	316	ABS	0	0	1	3	24_1_3	NA	NA	0	1	2.93980288506	None	None	None	None	1
3.0.1	2019_Mar_09_1458	s	s	5	3	SIC	317	2_3	2	3	2	1	23_2_1	0	2	1	0	0.940175056458	-329.0	-161.0	-332.0	-156.0	1
3.0.1	2019_Mar_09_1458	s	s	5	3	SIC	318	ABS	0	0	3	2	24_3_2	NA	NA	0	1	2.63867306709	None	None	None	None	1
3.0.1	2019_Mar_09_1458	s	s	5	3	SIC	319	3_4	3	4	3	1	23_3_1	0	3	1	0	0.560773134232	381.0	-177.0	385.0	-177.0	1
3.0.1	2019_Mar_09_1458	s	s	5	3	SIC	320	2_3	2	3	3	3	23_3_3	1	0	1	0	0.437395811081	-232.0	205.0	-234.0	202.0	1
3.0.1	2019_Mar_09_1458	s	s	5	3	SIC	321	ABS	0	0	4	2	24_4_2	NA	NA	0	1	2.33982205391	None	None	None	None	1
3.0.1	2019_Mar_09_1458	s	s	5	3	SIC	322	4_4	4	4	2	3	23_2_3	2	1	1	0	0.484502792358	398.0	-177.0	403.0	-177.0	1
3.0.1	2019_Mar_09_1458	s	s	5	3	SIC	323	4_2	4	2	2	1	23_2_1	2	-1	1	0	0.363903999329	515.0	216.0	517.0	211.0	1
3.0.1	2019_Mar_09_1458	s	s	5	3	SIC	324	2_3	2	3	2	4	23_2_4	0	-1	1	0	0.757138967514	311.0	280.0	311.0	282.0	1
3.0.1	2019_Mar_09_1458	s	s	5	3	SIC	325	4_1	4	1	3	4	23_3_4	1	3	1	0	0.356599807739	-144.0	324.0	-146.0	320.0	1
3.0.1	2019_Mar_09_1458	s	s	5	3	SIC	326	4_2	4	2	3	1	23_3_1	1	-1	1	0	0.375697851181	481.0	-28.0	488.0	-26.0	1
3.0.1	2019_Mar_09_1458	s	s	5	3	SIC	327	4_1	4	1	2	2	23_2_2	2	1	1	0	0.333679914474	159.0	-116.0	160.0	-114.0	1
3.0.1	2019_Mar_09_1458	s	s	5	3	SIC	328	ABS	0	0	4	1	24_4_1	NA	NA	0	1	0.622678041458	None	None	None	None	1
3.0.1	2019_Mar_09_1458	s	s	5	3	SIC	329	3_3	3	3	1	1	23_1_1	2	2	1	0	0.618825912476	-96.0	-353.0	-96.0	-355.0	1
3.0.1	2019_Mar_09_1458	s	s	5	3	SIC	330	4_1	4	1	1	3	23_1_3	3	2	1	0	0.387435913086	533.0	327.0	532.0	329.0	1
3.0.1	2019_Mar_09_1458	s	s	5	3	SIC	331	1_2	1	2	4	4	23_4_4	3	2	1	0	0.422794818878	-130.0	-338.0	-137.0	-345.0	1
3.0.1	2019_Mar_09_1458	s	s	5	3	SIC	332	ABS	0	0	2	4	24_2_4	NA	NA	0	1	1.76776099205	None	None	None	None	1
3.0.1	2019_Mar_09_1458	s	s	5	3	SIC	333	1_2	1	2	3	4	23_3_4	2	2	1	0	0.43740606308	267.0	212.0	263.0	216.0	1
3.0.1	2019_Mar_09_1458	s	s	5	3	SIC	334	4_3	4	3	4	1	23_4_1	0	2	1	0	0.990156173706	-377.0	-17.0	-378.0	-16.0	1
3.0.1	2019_Mar_09_1458	s	s	5	3	SIC	335	1_4	1	4	2	3	23_2_3	1	1	1	0	1.27512812614	-383.0	-71.0	-384.0	-70.0	1
3.0.1	2019_Mar_09_1458	s	s	5	3	SIC	336	3_1	3	1	1	4	23_1_4	2	3	1	0	0.613779067993	523.0	385.0	515.0	379.0	1
3.0.1	2019_Mar_09_1458	s	s	5	3	SIC	337	3_4	3	4	1	1	23_1_1	2	3	1	0	0.554986953735	-531.0	-179.0	-536.0	-174.0	1
3.0.1	2019_Mar_09_1458	s	s	5	3	SIC	338	ABS	0	0	4	2	24_4_2	NA	NA	0	1	3.6620759964	None	None	None	None	1
3.0.1	2019_Mar_09_1458	s	s	5	3	SIC	339	ABS	0	0	4	1	24_4_1	NA	NA	0	1	1.49816179276	None	None	None	None	1
3.0.1	2019_Mar_09_1458	s	s	5	3	SIC	340	ABS	0	0	3	4	24_3_4	NA	NA	0	1	1.02744603157	None	None	None	None	1
3.0.1	2019_Mar_09_1458	s	s	5	3	SIC	341	2_4	2	4	2	2	23_2_2	0	2	1	0	0.604278087616	32.0	216.0	32.0	215.0	1
3.0.1	2019_Mar_09_1458	s	s	5	3	SIC	342	2_2	2	2	4	2	23_4_2	2	0	1	0	0.42275094986	-100.0	-282.0	-96.0	-281.0	1
3.0.1	2019_Mar_09_1458	s	s	5	3	SIC	343	ABS	0	0	2	4	24_2_4	NA	NA	0	1	1.09057092667	None	None	None	None	1
3.0.1	2019_Mar_09_1458	s	s	5	3	SIC	344	ABS	0	0	4	3	24_4_3	NA	NA	0	1	2.42211198807	None	None	None	None	1
3.0.1	2019_Mar_09_1458	s	s	5	3	SIC	345	ABS	0	0	3	4	24_3_4	NA	NA	0	1	1.12843990326	None	None	None	None	1
3.0.1	2019_Mar_09_1458	s	s	5	3	SIC	346	2_4	2	4	3	1	23_3_1	1	3	1	0	0.4739818573	-145.0	-13.0	-145.0	-13.0	1
3.0.1	2019_Mar_09_1458	s	s	5	3	SIC	347	ABS	0	0	2	3	24_2_3	NA	NA	0	1	3.76282000542	None	None	None	None	1
3.0.1	2019_Mar_09_1458	s	s	5	3	SIC	348	1_3	1	3	3	1	23_3_1	2	2	1	0	0.790189981461	-444.0	-355.0	-439.0	-355.0	1
3.0.1	2019_Mar_09_1458	s	s	5	3	SIC	349	ABS	0	0	4	3	24_4_3	NA	NA	0	1	2.66367292404	None	None	None	None	1
3.0.1	2019_Mar_09_1458	s	s	5	3	SIC	350	ABS	0	0	4	4	24_4_4	NA	NA	0	1	0.89323592186	None	None	None	None	1
3.0.1	2019_Mar_09_1458	s	s	5	3	SIC	351	2_3	2	3	1	4	23_1_4	-1	-1	1	0	0.751996994019	423.0	333.0	428.0	329.0	1
3.0.1	2019_Mar_09_1458	s	s	5	3	SIC	352	ABS	0	0	1	3	24_1_3	NA	NA	0	1	3.64520812035	None	None	None	None	1
3.0.1	2019_Mar_09_1458	s	s	5	3	SIC	353	ABS	0	0	1	2	24_1_2	NA	NA	0	1	2.49762797356	None	None	None	None	1
3.0.1	2019_Mar_09_1458	s	s	5	3	SIC	354	4_2	4	2	1	1	23_1_1	3	-1	1	0	0.42272400856	489.0	-38.0	489.0	-43.0	1
3.0.1	2019_Mar_09_1458	s	s	5	3	SIC	355	1_3	1	3	3	3	23_3_3	2	0	1	0	0.48655796051	84.0	-355.0	94.0	-354.0	1
3.0.1	2019_Mar_09_1458	s	s	5	3	SIC	356	3_1	3	1	2	4	23_2_4	1	3	1	0	0.463469028473	532.0	356.0	531.0	353.0	1
3.0.1	2019_Mar_09_1458	s	s	5	3	SIC	357	ABS	0	0	1	2	24_1_2	NA	NA	0	1	2.57494711876	None	None	None	None	1
3.0.1	2019_Mar_09_1458	s	s	5	3	SIC	358	ABS	0	0	4	1	24_4_1	NA	NA	0	1	0.940685033798	None	None	None	None	1
3.0.1	2019_Mar_09_1458	s	s	5	3	SIC	359	2_2	2	2	1	1	23_1_1	-1	-1	1	0	1.06186509132	-512.0	-346.0	-505.0	-339.0	1
3.0.1	2019_Mar_09_1458	s	s	5	3	SIC	360	2_4	2	4	4	3	23_4_3	2	1	1	0	0.41100692749	-143.0	-31.0	-142.0	-30.0	1
3.0.1	2019_Mar_09_1458	s	s	5	3	SIC	361	ABS	0	0	1	3	24_1_3	NA	NA	0	1	3.83998990059	None	None	None	None	1
3.0.1	2019_Mar_09_1458	s	s	5	3	SIC	362	4_3	4	3	1	4	23_1_4	3	-1	1	0	0.403802156448	-209.0	301.0	-204.0	307.0	1
3.0.1	2019_Mar_09_1458	s	s	5	3	SIC	363	4_4	4	4	3	4	23_3_4	1	0	1	0	0.38746213913	343.0	-58.0	344.0	-56.0	1
3.0.1	2019_Mar_09_1458	s	s	5	3	SIC	364	3_3	3	3	2	4	23_2_4	1	-1	1	0	0.404191017151	248.0	-309.0	252.0	-308.0	1
3.0.1	2019_Mar_09_1458	s	s	5	3	SIC	365	ABS	0	0	4	4	24_4_4	NA	NA	0	1	0.863173007965	None	None	None	None	1
3.0.1	2019_Mar_09_1458	s	s	5	3	SIC	366	ABS	0	0	1	3	24_1_3	NA	NA	0	1	2.61317515373	None	None	None	None	1
3.0.1	2019_Mar_09_1458	s	s	5	3	SIC	367	4_4	4	4	1	2	23_1_2	3	2	1	0	0.437412977219	243.0	-301.0	241.0	-306.0	1
3.0.1	2019_Mar_09_1458	s	s	5	3	SIC	368	1_2	1	2	1	4	23_1_4	0	2	1	0	0.469728946686	-100.0	180.0	-105.0	183.0	1
3.0.1	2019_Mar_09_1458	s	s	5	3	SIC	369	ABS	0	0	2	3	24_2_3	NA	NA	0	1	2.97244787216	None	None	None	None	1
3.0.1	2019_Mar_09_1458	s	s	5	3	SIC	370	ABS	0	0	2	3	24_2_3	NA	NA	0	1	1.90795516968	None	None	None	None	1
3.0.1	2019_Mar_09_1458	s	s	5	3	SIC	371	3_2	3	2	2	4	23_2_4	1	2	1	0	0.563853025436	-273.0	-403.0	-273.0	-398.0	1
3.0.1	2019_Mar_09_1458	s	s	5	3	SIC	372	3_1	3	1	4	1	23_4_1	-1	0	1	0	0.460957050323	146.0	-301.0	150.0	-301.0	1
3.0.1	2019_Mar_09_1458	s	s	5	3	SIC	373	ABS	0	0	1	4	24_1_4	NA	NA	0	1	1.02765798569	None	None	None	None	1
3.0.1	2019_Mar_09_1458	s	s	5	3	SIC	374	ABS	0	0	2	2	24_2_2	NA	NA	0	1	1.40170693398	None	None	None	None	1
3.0.1	2019_Mar_09_1458	s	s	5	3	SIC	375	ABS	0	0	2	2	24_2_2	NA	NA	0	1	1.61856007576	None	None	None	None	1
3.0.1	2019_Mar_09_1458	s	s	5	3	SIC	376	1_4	1	4	4	4	23_4_4	3	0	1	0	0.509742021561	120.0	-46.0	120.0	-49.0	1
3.0.1	2019_Mar_09_1458	s	s	5	3	SIC	377	ABS	0	0	3	3	24_3_3	NA	NA	0	1	0.849018096924	None	None	None	None	1
3.0.1	2019_Mar_09_1458	s	s	5	3	SIC	378	2_3	2	3	3	2	23_3_2	1	1	1	0	0.674689054489	-485.0	-346.0	-486.0	-353.0	1
3.0.1	2019_Mar_09_1458	s	s	5	3	SIC	379	4_3	4	3	2	3	23_2_3	2	0	1	0	0.43740105629	-322.0	-222.0	-324.0	-219.0	1
3.0.1	2019_Mar_09_1458	s	s	5	3	SIC	380	ABS	0	0	4	2	24_4_2	NA	NA	0	1	1.32686901093	None	None	None	None	1
3.0.1	2019_Mar_09_1458	s	s	5	3	SIC	381	2_1	2	1	1	1	23_1_1	-1	0	0	1	0.990368843079	52.0	-398.0	None	None	0
3.0.1	2019_Mar_09_1458	s	s	5	3	SIC	382	ABS	0	0	2	4	24_2_4	NA	NA	0	1	0.88134598732	None	None	None	None	1
3.0.1	2019_Mar_09_1458	s	s	5	3	SIC	383	ABS	0	0	2	3	24_2_3	NA	NA	0	1	0.764003038406	None	None	None	None	1
3.0.1	2019_Mar_09_1458	s	s	5	3	SIC	384	ABS	0	0	1	3	24_1_3	NA	NA	0	1	1.46945881844	None	None	None	None	1
3.0.1	2019_Mar_09_1458	s	s	5	3	SIC	385	4_1	4	1	4	2	23_4_2	0	1	1	0	0.862100124359	-274.0	-334.0	-284.0	-336.0	1
3.0.1	2019_Mar_09_1458	s	s	5	3	SIC	386	ABS	0	0	4	2	24_4_2	NA	NA	0	1	3.21017599106	None	None	None	None	1
3.0.1	2019_Mar_09_1458	s	s	5	3	SIC	387	ABS	0	0	4	1	24_4_1	NA	NA	0	1	0.745399951935	None	None	None	None	1
3.0.1	2019_Mar_09_1458	s	s	5	3	SIC	388	ABS	0	0	1	2	24_1_2	NA	NA	0	1	3.40240716934	None	None	None	None	1
3.0.1	2019_Mar_09_1458	s	s	5	3	SIC	389	ABS	0	0	3	3	24_3_3	NA	NA	0	1	2.56779694557	None	None	None	None	1
3.0.1	2019_Mar_09_1458	s	s	5	3	SIC	390	1_1	1	1	3	1	23_3_1	2	0	1	0	0.723531007767	377.0	-392.0	381.0	-389.0	1
3.0.1	2019_Mar_09_1458	s	s	5	3	SIC	391	4_4	4	4	2	4	23_2_4	2	0	1	0	0.437389135361	292.0	344.0	290.0	346.0	1
3.0.1	2019_Mar_09_1458	s	s	5	3	SIC	392	1_2	1	2	3	3	23_3_3	2	1	1	0	0.613746881485	396.0	-399.0	392.0	-395.0	1
3.0.1	2019_Mar_09_1458	s	s	5	3	SIC	393	ABS	0	0	1	1	24_1_1	NA	NA	0	1	0.975430011749	None	None	None	None	1
3.0.1	2019_Mar_09_1458	s	s	5	3	SIC	394	ABS	0	0	2	1	24_2_1	NA	NA	0	1	1.11095309258	None	None	None	None	1
3.0.1	2019_Mar_09_1458	s	s	5	3	SIC	395	3_3	3	3	3	4	23_3_4	0	-1	1	0	0.862688064575	31.0	68.0	25.0	66.0	1
3.0.1	2019_Mar_09_1458	s	s	5	3	SIC	396	ABS	0	0	3	3	24_3_3	NA	NA	0	1	3.23874402046	None	None	None	None	1
3.0.1	2019_Mar_09_1458	s	s	5	3	SIC	397	ABS	0	0	3	1	24_3_1	NA	NA	0	1	1.52165198326	None	None	None	None	1
3.0.1	2019_Mar_09_1458	s	s	5	3	SIC	398	1_1	1	1	3	3	23_3_3	2	2	1	0	0.501588821411	-252.0	-191.0	-244.0	-190.0	1
3.0.1	2019_Mar_09_1458	s	s	5	3	SIC	399	3_4	3	4	2	1	23_2_1	1	3	1	0	0.693161010742	410.0	-371.0	410.0	-373.0	1
3.0.1	2019_Mar_09_1458	s	s	5	3	SIC	400	ABS	0	0	3	2	24_3_2	NA	NA	0	1	1.19233107567	None	None	None	None	1
3.0.1	2019_Mar_09_1458	s	s	5	3	SIC	401	ABS	0	0	1	2	24_1_2	NA	NA	0	1	2.92198681831	None	None	None	None	1
3.0.1	2019_Mar_09_1458	s	s	5	3	SIC	402	ABS	0	0	3	2	24_3_2	NA	NA	0	1	2.28100895882	None	None	None	None	1
3.0.1	2019_Mar_09_1458	s	s	5	3	SIC	403	ABS	0	0	2	4	24_2_4	NA	NA	0	1	1.01078510284	None	None	None	None	1
3.0.1	2019_Mar_09_1458	s	s	5	3	SIC	404	ABS	0	0	1	4	24_1_4	NA	NA	0	1	0.928456068039	None	None	None	None	1
3.0.1	2019_Mar_09_1458	s	s	5	3	SIC	405	ABS	0	0	3	1	24_3_1	NA	NA	0	1	1.02536606789	None	None	None	None	1
3.0.1	2019_Mar_09_1458	s	s	5	3	SIC	406	4_3	4	3	1	2	23_1_2	3	1	1	0	0.437424182892	320.0	371.0	319.0	374.0	1
3.0.1	2019_Mar_09_1458	s	s	5	3	SIC	407	1_2	1	2	3	2	23_3_2	2	0	1	0	0.427931785583	-96.0	197.0	-93.0	186.0	1
3.0.1	2019_Mar_09_1458	s	s	5	3	SIC	408	1_4	1	4	3	1	23_3_1	2	3	1	0	0.464056015015	412.0	195.0	417.0	189.0	1
3.0.1	2019_Mar_09_1458	s	s	5	3	SIC	409	1_2	1	2	2	3	23_2_3	1	1	1	0	1.65769600868	441.0	200.0	441.0	202.0	1
3.0.1	2019_Mar_09_1458	s	s	5	3	SIC	410	ABS	0	0	2	2	24_2_2	NA	NA	0	1	1.7047328949	None	None	None	None	1
3.0.1	2019_Mar_09_1458	s	s	5	3	SIC	411	2_4	2	4	4	1	23_4_1	2	3	1	0	0.437371015549	211.0	359.0	206.0	361.0	1
3.0.1	2019_Mar_09_1458	s	s	5	3	SIC	412	4_2	4	2	1	4	23_1_4	3	2	1	0	0.404449939728	-407.0	134.0	-409.0	130.0	1
3.0.1	2019_Mar_09_1458	s	s	5	3	SIC	413	ABS	0	0	4	3	24_4_3	NA	NA	0	1	1.25414013863	None	None	None	None	1
3.0.1	2019_Mar_09_1458	s	s	5	3	SIC	414	ABS	0	0	3	1	24_3_1	NA	NA	0	1	1.7676050663	None	None	None	None	1
3.0.1	2019_Mar_09_1458	s	s	5	3	SIC	415	ABS	0	0	3	3	24_3_3	NA	NA	0	1	2.54463601112	None	None	None	None	1
3.0.1	2019_Mar_09_1458	s	s	5	3	SIC	416	ABS	0	0	1	1	24_1_1	NA	NA	0	1	1.46952700615	None	None	None	None	1
3.0.1	2019_Mar_09_1458	s	s	5	3	SIC	417	1_3	1	3	4	1	23_4_1	3	2	1	0	0.484414815903	533.0	-111.0	530.0	-111.0	1
3.0.1	2019_Mar_09_1458	s	s	5	3	SIC	418	ABS	0	0	4	2	24_4_2	NA	NA	0	1	1.55475187302	None	None	None	None	1
3.0.1	2019_Mar_09_1458	s	s	5	3	SIC	419	4_3	4	3	3	4	23_3_4	1	-1	1	0	0.437312841415	-503.0	-291.0	-508.0	-294.0	1
3.0.1	2019_Mar_09_1458	s	s	5	3	SIC	420	2_1	2	1	3	3	23_3_3	1	2	1	0	0.437366008759	-172.0	18.0	-168.0	21.0	1
3.0.1	2019_Mar_09_1458	s	s	5	3	SIC	421	ABS	0	0	3	4	24_3_4	NA	NA	0	1	0.954880952835	None	None	None	None	1
3.0.1	2019_Mar_09_1458	s	s	5	3	SIC	422	1_4	1	4	4	2	23_4_2	3	2	1	0	0.402995824814	99.0	144.0	89.0	142.0	1
3.0.1	2019_Mar_09_1458	s	s	5	3	SIC	423	ABS	0	0	2	4	24_2_4	NA	NA	0	1	1.03213596344	None	None	None	None	1
3.0.1	2019_Mar_09_1458	s	s	5	3	SIC	424	ABS	0	0	3	2	24_3_2	NA	NA	0	1	0.952028036118	None	None	None	None	1
3.0.1	2019_Mar_09_1458	s	s	5	3	SIC	425	4_4	4	4	1	1	23_1_1	3	3	1	0	0.458021879196	215.0	-313.0	213.0	-315.0	1
3.0.1	2019_Mar_09_1458	s	s	5	3	SIC	426	3_1	3	1	3	2	23_3_2	0	1	0	1	1.10525107384	-475.0	-406.0	None	None	0
3.0.1	2019_Mar_09_1458	s	s	5	3	SIC	427	ABS	0	0	1	2	24_1_2	NA	NA	0	1	1.22517991066	None	None	None	None	1
3.0.1	2019_Mar_09_1458	s	s	5	3	SIC	428	4_2	4	2	3	2	23_3_2	1	0	1	0	0.505061149597	-532.0	303.0	-526.0	299.0	1
3.0.1	2019_Mar_09_1458	s	s	5	3	SIC	429	ABS	0	0	1	4	24_1_4	NA	NA	0	1	0.86953496933	None	None	None	None	1
3.0.1	2019_Mar_09_1458	s	s	5	3	SIC	430	ABS	0	0	4	1	24_4_1	NA	NA	0	1	0.89320397377	None	None	None	None	1
3.0.1	2019_Mar_09_1458	s	s	5	3	SIC	431	1_2	1	2	1	3	23_1_3	0	1	1	0	1.94467902184	253.0	339.0	253.0	343.0	1
3.0.1	2019_Mar_09_1458	s	s	5	3	SIC	432	ABS	0	0	1	4	24_1_4	NA	NA	0	1	1.62231302261	None	None	None	None	1
3.0.1	2019_Mar_09_1458	s	s	5	3	SIC	433	2_1	2	1	2	3	23_2_3	0	2	1	0	2.21707701683	319.0	-206.0	323.0	-208.0	1
3.0.1	2019_Mar_09_1458	s	s	5	3	SIC	434	ABS	0	0	4	3	24_4_3	NA	NA	0	1	3.13272809982	None	None	None	None	1
3.0.1	2019_Mar_09_1458	s	s	5	3	SIC	435	ABS	0	0	1	2	24_1_2	NA	NA	0	1	3.73941779137	None	None	None	None	1
3.0.1	2019_Mar_09_1458	s	s	5	3	SIC	436	3_4	3	4	1	4	23_1_4	2	0	1	0	0.661082983017	-332.0	-251.0	-335.0	-255.0	1
3.0.1	2019_Mar_09_1458	s	s	5	3	SIC	437	3_4	3	4	1	3	23_1_3	2	1	1	0	0.437395811081	-143.0	55.0	-136.0	63.0	1
3.0.1	2019_Mar_09_1458	s	s	5	3	SIC	438	3_1	3	1	1	1	23_1_1	2	0	1	0	0.486426115036	222.0	-27.0	210.0	-25.0	1
3.0.1	2019_Mar_09_1458	s	s	5	3	SIC	439	3_3	3	3	4	4	23_4_4	-1	-1	1	0	0.496583938599	479.0	-208.0	490.0	-203.0	1
3.0.1	2019_Mar_09_1458	s	s	5	3	SIC	440	ABS	0	0	1	2	24_1_2	NA	NA	0	1	2.8740940094	None	None	None	None	1
3.0.1	2019_Mar_09_1458	s	s	5	3	SIC	441	3_1	3	1	4	4	23_4_4	-1	3	1	0	0.469750881195	372.0	398.0	367.0	400.0	1
3.0.1	2019_Mar_09_1458	s	s	5	3	SIC	442	3_2	3	2	4	1	23_4_1	-1	-1	1	0	0.437627792358	-229.0	-33.0	-226.0	-37.0	1
3.0.1	2019_Mar_09_1458	s	s	5	3	SIC	443	4_1	4	1	2	1	23_2_1	2	0	1	0	0.366816997528	-69.0	236.0	-69.0	231.0	1
3.0.1	2019_Mar_09_1458	s	s	5	3	SIC	444	ABS	0	0	2	3	24_2_3	NA	NA	0	1	2.49805808067	None	None	None	None	1
3.0.1	2019_Mar_09_1458	s	s	5	3	SIC	445	ABS	0	0	2	4	24_2_4	NA	NA	0	1	0.966648817062	None	None	None	None	1
3.0.1	2019_Mar_09_1458	s	s	5	3	SIC	446	3_1	3	1	1	3	23_1_3	2	2	1	0	0.473724126816	13.0	-195.0	18.0	-196.0	1
3.0.1	2019_Mar_09_1458	s	s	5	3	SIC	447	4_3	4	3	3	3	23_3_3	1	0	1	0	0.422734975815	-397.0	-276.0	-402.0	-279.0	1
3.0.1	2019_Mar_09_1458	s	s	5	3	SIC	448	ABS	0	0	4	1	24_4_1	NA	NA	0	1	1.27497196198	None	None	None	None	1
3.0.1	2019_Mar_09_1458	s	s	5	3	SIC	449	2_3	2	3	4	1	23_4_1	2	2	1	0	0.422683000565	-105.0	-390.0	-104.0	-394.0	1
3.0.1	2019_Mar_09_1458	s	s	5	3	SIC	450	ABS	0	0	1	1	24_1_1	NA	NA	0	1	0.846130847931	None	None	None	None	1
3.0.1	2019_Mar_09_1458	s	s	5	3	SIC	451	ABS	0	0	4	4	24_4_4	NA	NA	0	1	1.05094099045	None	None	None	None	1
3.0.1	2019_Mar_09_1458	s	s	5	3	SIC	452	ABS	0	0	4	1	24_4_1	NA	NA	0	1	1.48121595383	None	None	None	None	1
3.0.1	2019_Mar_09_1458	s	s	5	3	SIC	453	4_4	4	4	1	3	23_1_3	3	1	1	0	0.498067855835	304.0	-187.0	305.0	-185.0	1
3.0.1	2019_Mar_09_1458	s	s	5	3	SIC	454	ABS	0	0	3	2	24_3_2	NA	NA	0	1	2.43923401833	None	None	None	None	1
3.0.1	2019_Mar_09_1458	s	s	5	3	SIC	455	2_3	2	3	4	2	23_4_2	2	1	1	0	0.705048084259	-350.0	240.0	-355.0	242.0	1
3.0.1	2019_Mar_09_1458	s	s	5	3	SIC	456	ABS	0	0	1	2	24_1_2	NA	NA	0	1	3.32772421837	None	None	None	None	1
3.0.1	2019_Mar_09_1458	s	s	5	3	SIC	457	ABS	0	0	4	3	24_4_3	NA	NA	0	1	2.67204999924	None	None	None	None	1
3.0.1	2019_Mar_09_1458	s	s	5	3	SIC	458	ABS	0	0	4	2	24_4_2	NA	NA	0	1	2.48093819618	None	None	None	None	1
3.0.1	2019_Mar_09_1458	s	s	5	3	SIC	459	3_2	3	2	1	4	23_1_4	2	2	1	0	0.497236013412	236.0	44.0	234.0	42.0	1
3.0.1	2019_Mar_09_1458	s	s	5	3	SIC	460	ABS	0	0	3	3	24_3_3	NA	NA	0	1	2.76799488068	None	None	None	None	1
3.0.1	2019_Mar_09_1458	s	s	5	3	SIC	461	ABS	0	0	4	2	24_4_2	NA	NA	0	1	2.81344199181	None	None	None	None	1
3.0.1	2019_Mar_09_1458	s	s	5	3	SIC	462	1_4	1	4	1	3	23_1_3	0	1	1	0	0.587775945663	-297.0	-276.0	-299.0	-275.0	1
3.0.1	2019_Mar_09_1458	s	s	5	3	SIC	463	ABS	0	0	2	1	24_2_1	NA	NA	0	1	1.3165500164	None	None	None	None	1
3.0.1	2019_Mar_09_1458	s	s	5	3	SIC	464	2_2	2	2	3	2	23_3_2	1	0	1	0	1.40536904335	-96.0	348.0	-102.0	348.0	1
3.0.1	2019_Mar_09_1458	s	s	5	3	SIC	465	2_3	2	3	1	2	23_1_2	-1	1	1	0	2.94484400749	-501.0	-2.0	-494.0	-1.0	1
3.0.1	2019_Mar_09_1458	s	s	5	3	SIC	466	ABS	0	0	1	3	24_1_3	NA	NA	0	1	2.46919989586	None	None	None	None	1
3.0.1	2019_Mar_09_1458	s	s	5	3	SIC	467	ABS	0	0	3	3	24_3_3	NA	NA	0	1	2.35153794289	None	None	None	None	1
3.0.1	2019_Mar_09_1458	s	s	5	3	SIC	468	3_1	3	1	2	3	23_2_3	1	2	1	0	0.613759040833	391.0	-88.0	399.0	-90.0	1
3.0.1	2019_Mar_09_1458	s	s	5	3	SIC	469	3_2	3	2	4	2	23_4_2	-1	0	1	0	0.462867975235	13.0	-50.0	9.0	-48.0	1
3.0.1	2019_Mar_09_1458	s	s	5	3	SIC	470	ABS	0	0	1	1	24_1_1	NA	NA	0	1	1.03473496437	None	None	None	None	1
3.0.1	2019_Mar_09_1458	s	s	5	3	SIC	471	ABS	0	0	2	1	24_2_1	NA	NA	0	1	0.972882032394	None	None	None	None	1
3.0.1	2019_Mar_09_1458	s	s	5	3	SIC	472	ABS	0	0	3	1	24_3_1	NA	NA	0	1	0.907850980759	None	None	None	None	1
3.0.1	2019_Mar_09_1458	s	s	5	3	SIC	473	3_2	3	2	3	3	23_3_3	0	1	1	0	2.86414599419	45.0	-292.0	45.0	-297.0	1
3.0.1	2019_Mar_09_1458	s	s	5	3	SIC	474	ABS	0	0	2	2	24_2_2	NA	NA	0	1	2.03078508377	None	None	None	None	1
3.0.1	2019_Mar_09_1458	s	s	5	3	SIC	475	ABS	0	0	1	4	24_1_4	NA	NA	0	1	1.55501103401	None	None	None	None	1
3.0.1	2019_Mar_09_1458	s	s	5	3	SIC	476	3_3	3	3	4	1	23_4_1	-1	2	1	0	0.496263027191	123.0	28.0	125.0	31.0	1
3.0.1	2019_Mar_09_1458	s	s	5	3	SIC	477	4_4	4	4	4	3	23_4_3	0	1	1	0	1.64590501785	536.0	-372.0	537.0	-375.0	1
3.0.1	2019_Mar_09_1458	s	s	5	3	SIC	478	ABS	0	0	1	3	24_1_3	NA	NA	0	1	3.44272089005	None	None	None	None	1
3.0.1	2019_Mar_09_1458	s	s	5	3	SIC	479	ABS	0	0	4	1	24_4_1	NA	NA	0	1	1.07863688469	None	None	None	None	1
3.0.1	2019_Mar_09_1458	s	s	5	3	SIC	480	ABS	0	0	2	2	24_2_2	NA	NA	0	1	3.13068699837	None	None	None	None	1
