Version	Date	Stimuli	Method	Subject	Session	Condition	Trial	Target	TColor	TShape	DColor	DShape	Distractors	Channel1	Channel2	LMouseButton	RMouseButton	RT	TargetX	TargetY	ResponseX	ResponseY	Correct
3.0.1	2019_Mar_10_1455	s	s	5	4	Capacity	1	ABS	0	0	4	1	24_4_1	NA	NA	0	1	0.743198871613	None	None	None	None	1
3.0.1	2019_Mar_10_1455	s	s	5	4	Capacity	2	ABS	0	0	1	1	24_1_1	NA	NA	0	1	0.581665992737	None	None	None	None	1
3.0.1	2019_Mar_10_1455	s	s	5	4	Capacity	3	3_1	3	1	2	1	23_2_1	1	0	1	0	0.383454084396	-461.0	188.0	-463.0	187.0	1
3.0.1	2019_Mar_10_1455	s	s	5	4	Capacity	4	4_1	4	1	1	1	23_1_1	3	0	1	0	0.369948148727	-5.0	221.0	-7.0	212.0	1
3.0.1	2019_Mar_10_1455	s	s	5	4	Capacity	5	ABS	0	0	4	1	24_4_1	NA	NA	0	1	0.509788990021	None	None	None	None	1
3.0.1	2019_Mar_10_1455	s	s	5	4	Capacity	6	ABS	0	0	2	1	24_2_1	NA	NA	0	1	0.834393024445	None	None	None	None	1
3.0.1	2019_Mar_10_1455	s	s	5	4	Capacity	7	ABS	0	0	4	1	24_4_1	NA	NA	0	1	0.731419086456	None	None	None	None	1
3.0.1	2019_Mar_10_1455	s	s	5	4	Capacity	8	ABS	0	0	2	1	24_2_1	NA	NA	0	1	1.01120305061	None	None	None	None	1
3.0.1	2019_Mar_10_1455	s	s	5	4	Capacity	9	1_1	1	1	2	1	23_2_1	1	0	0	1	0.790200948715	143.0	249.0	None	None	0
3.0.1	2019_Mar_10_1455	s	s	5	4	Capacity	10	2_1	2	1	4	1	23_4_1	2	0	1	0	0.449275970459	309.0	53.0	303.0	50.0	1
3.0.1	2019_Mar_10_1455	s	s	5	4	Capacity	11	4_1	4	1	2	1	23_2_1	2	0	1	0	0.368712902069	-201.0	-92.0	-191.0	-90.0	1
3.0.1	2019_Mar_10_1455	s	s	5	4	Capacity	12	4_1	4	1	3	1	23_3_1	1	0	1	0	0.352149963379	453.0	332.0	451.0	326.0	1
3.0.1	2019_Mar_10_1455	s	s	5	4	Capacity	13	2_1	2	1	3	1	23_3_1	1	0	1	0	0.790225028992	-354.0	362.0	-352.0	364.0	1
3.0.1	2019_Mar_10_1455	s	s	5	4	Capacity	14	3_1	3	1	4	1	23_4_1	-1	0	1	0	0.387587070465	-163.0	-315.0	-159.0	-320.0	1
3.0.1	2019_Mar_10_1455	s	s	5	4	Capacity	15	ABS	0	0	3	1	24_3_1	NA	NA	0	1	1.05174803734	None	None	None	None	1
3.0.1	2019_Mar_10_1455	s	s	5	4	Capacity	16	2_1	2	1	1	1	23_1_1	-1	0	0	1	1.18730211258	-189.0	-344.0	None	None	0
3.0.1	2019_Mar_10_1455	s	s	5	4	Capacity	17	1_1	1	1	3	1	23_3_1	2	0	1	0	0.443036079407	-87.0	-280.0	-91.0	-283.0	1
3.0.1	2019_Mar_10_1455	s	s	5	4	Capacity	18	ABS	0	0	2	1	24_2_1	NA	NA	0	1	0.693280935287	None	None	None	None	1
3.0.1	2019_Mar_10_1455	s	s	5	4	Capacity	19	3_1	3	1	1	1	23_1_1	2	0	1	0	0.446218013763	282.0	-317.0	292.0	-317.0	1
3.0.1	2019_Mar_10_1455	s	s	5	4	Capacity	20	ABS	0	0	3	1	24_3_1	NA	NA	0	1	0.775614976883	None	None	None	None	1
3.0.1	2019_Mar_10_1455	s	s	5	4	Capacity	21	1_1	1	1	4	1	23_4_1	3	0	1	0	0.378585100174	-126.0	-250.0	-123.0	-254.0	1
3.0.1	2019_Mar_10_1455	s	s	5	4	Capacity	22	ABS	0	0	1	1	24_1_1	NA	NA	0	1	0.66300702095	None	None	None	None	1
3.0.1	2019_Mar_10_1455	s	s	5	4	Capacity	23	ABS	0	0	1	1	24_1_1	NA	NA	0	1	0.643482923508	None	None	None	None	1
3.0.1	2019_Mar_10_1455	s	s	5	4	Capacity	24	ABS	0	0	3	1	24_3_1	NA	NA	0	1	0.815371990204	None	None	None	None	1
3.0.1	2019_Mar_10_1455	s	s	5	4	Capacity	25	ABS	0	0	4	1	24_4_1	NA	NA	0	1	0.568969011307	None	None	None	None	1
3.0.1	2019_Mar_10_1455	s	s	5	4	Capacity	26	ABS	0	0	3	1	24_3_1	NA	NA	0	1	0.940284013748	None	None	None	None	1
3.0.1	2019_Mar_10_1455	s	s	5	4	Capacity	27	4_1	4	1	1	1	23_1_1	3	0	1	0	0.363976955414	522.0	305.0	517.0	305.0	1
3.0.1	2019_Mar_10_1455	s	s	5	4	Capacity	28	ABS	0	0	4	1	24_4_1	NA	NA	0	1	0.838299036026	None	None	None	None	1
3.0.1	2019_Mar_10_1455	s	s	5	4	Capacity	29	4_1	4	1	3	1	23_3_1	1	0	1	0	0.386004924774	-212.0	324.0	-206.0	321.0	1
3.0.1	2019_Mar_10_1455	s	s	5	4	Capacity	30	ABS	0	0	3	1	24_3_1	NA	NA	0	1	0.928405046463	None	None	None	None	1
3.0.1	2019_Mar_10_1455	s	s	5	4	Capacity	31	2_1	2	1	4	1	23_4_1	2	0	1	0	0.422785997391	255.0	29.0	251.0	32.0	1
3.0.1	2019_Mar_10_1455	s	s	5	4	Capacity	32	2_1	2	1	1	1	23_1_1	-1	0	0	1	1.13128995895	-504.0	308.0	None	None	0
3.0.1	2019_Mar_10_1455	s	s	5	4	Capacity	33	3_1	3	1	4	1	23_4_1	-1	0	1	0	0.414586782455	-151.0	-284.0	-150.0	-280.0	1
3.0.1	2019_Mar_10_1455	s	s	5	4	Capacity	34	ABS	0	0	4	1	24_4_1	NA	NA	0	1	1.46947216988	None	None	None	None	1
3.0.1	2019_Mar_10_1455	s	s	5	4	Capacity	35	3_1	3	1	1	1	23_1_1	2	0	1	0	0.57946395874	42.0	-372.0	41.0	-375.0	1
3.0.1	2019_Mar_10_1455	s	s	5	4	Capacity	36	ABS	0	0	3	1	24_3_1	NA	NA	0	1	0.740264177322	None	None	None	None	1
3.0.1	2019_Mar_10_1455	s	s	5	4	Capacity	37	ABS	0	0	2	1	24_2_1	NA	NA	0	1	1.43710494041	None	None	None	None	1
3.0.1	2019_Mar_10_1455	s	s	5	4	Capacity	38	1_1	1	1	2	1	23_2_1	1	0	1	0	0.844320058823	-335.0	-315.0	-326.0	-318.0	1
3.0.1	2019_Mar_10_1455	s	s	5	4	Capacity	39	ABS	0	0	1	1	24_1_1	NA	NA	0	1	1.16366100311	None	None	None	None	1
3.0.1	2019_Mar_10_1455	s	s	5	4	Capacity	40	2_1	2	1	3	1	23_3_1	1	0	1	0	0.752038002014	105.0	5.0	106.0	-8.0	1
3.0.1	2019_Mar_10_1455	s	s	5	4	Capacity	41	ABS	0	0	2	1	24_2_1	NA	NA	0	1	1.59225106239	None	None	None	None	1
3.0.1	2019_Mar_10_1455	s	s	5	4	Capacity	42	3_1	3	1	2	1	23_2_1	1	0	1	0	0.451657056808	-267.0	-326.0	-263.0	-325.0	1
3.0.1	2019_Mar_10_1455	s	s	5	4	Capacity	43	4_1	4	1	2	1	23_2_1	2	0	1	0	0.399149894714	-84.0	37.0	-89.0	38.0	1
3.0.1	2019_Mar_10_1455	s	s	5	4	Capacity	44	1_1	1	1	4	1	23_4_1	3	0	1	0	0.340407133102	-344.0	42.0	-342.0	47.0	1
3.0.1	2019_Mar_10_1455	s	s	5	4	Capacity	45	ABS	0	0	1	1	24_1_1	NA	NA	0	1	0.956790208817	None	None	None	None	1
3.0.1	2019_Mar_10_1455	s	s	5	4	Capacity	46	1_1	1	1	3	1	23_3_1	2	0	1	0	0.451286077499	-6.0	-330.0	-9.0	-328.0	1
3.0.1	2019_Mar_10_1455	s	s	5	4	Capacity	47	ABS	0	0	2	1	24_2_1	NA	NA	0	1	1.41058015823	None	None	None	None	1
3.0.1	2019_Mar_10_1455	s	s	5	4	Capacity	48	ABS	0	0	1	1	24_1_1	NA	NA	0	1	1.42895007133	None	None	None	None	1
3.0.1	2019_Mar_10_1455	s	s	5	4	Capacity	49	2_1	2	1	3	1	23_3_1	1	0	1	0	0.474978208542	59.0	-58.0	62.0	-64.0	1
3.0.1	2019_Mar_10_1455	s	s	5	4	Capacity	50	ABS	0	0	3	1	24_3_1	NA	NA	0	1	1.12842202187	None	None	None	None	1
3.0.1	2019_Mar_10_1455	s	s	5	4	Capacity	51	4_1	4	1	1	1	23_1_1	3	0	1	0	0.352243900299	-138.0	-299.0	-130.0	-299.0	1
3.0.1	2019_Mar_10_1455	s	s	5	4	Capacity	52	3_1	3	1	2	1	23_2_1	1	0	1	0	0.474729061127	136.0	2.0	144.0	5.0	1
3.0.1	2019_Mar_10_1455	s	s	5	4	Capacity	53	4_1	4	1	3	1	23_3_1	1	0	1	0	0.369047880173	193.0	-36.0	193.0	-39.0	1
3.0.1	2019_Mar_10_1455	s	s	5	4	Capacity	54	1_1	1	1	3	1	23_3_1	2	0	1	0	0.39924120903	236.0	-53.0	234.0	-60.0	1
3.0.1	2019_Mar_10_1455	s	s	5	4	Capacity	55	ABS	0	0	4	1	24_4_1	NA	NA	0	1	0.822571992874	None	None	None	None	1
3.0.1	2019_Mar_10_1455	s	s	5	4	Capacity	56	ABS	0	0	3	1	24_3_1	NA	NA	0	1	0.878808021545	None	None	None	None	1
3.0.1	2019_Mar_10_1455	s	s	5	4	Capacity	57	ABS	0	0	2	1	24_2_1	NA	NA	0	1	1.210750103	None	None	None	None	1
3.0.1	2019_Mar_10_1455	s	s	5	4	Capacity	58	ABS	0	0	4	1	24_4_1	NA	NA	0	1	1.14857196808	None	None	None	None	1
3.0.1	2019_Mar_10_1455	s	s	5	4	Capacity	59	ABS	0	0	3	1	24_3_1	NA	NA	0	1	1.24605488777	None	None	None	None	1
3.0.1	2019_Mar_10_1455	s	s	5	4	Capacity	60	ABS	0	0	4	1	24_4_1	NA	NA	0	1	1.25083017349	None	None	None	None	1
3.0.1	2019_Mar_10_1455	s	s	5	4	Capacity	61	2_1	2	1	4	1	23_4_1	2	0	1	0	0.410932779312	-395.0	-376.0	-397.0	-379.0	1
3.0.1	2019_Mar_10_1455	s	s	5	4	Capacity	62	1_1	1	1	4	1	23_4_1	3	0	1	0	0.36878490448	117.0	128.0	119.0	121.0	1
3.0.1	2019_Mar_10_1455	s	s	5	4	Capacity	63	ABS	0	0	1	1	24_1_1	NA	NA	0	1	1.2019200325	None	None	None	None	1
3.0.1	2019_Mar_10_1455	s	s	5	4	Capacity	64	ABS	0	0	1	1	24_1_1	NA	NA	0	1	0.810884952545	None	None	None	None	1
3.0.1	2019_Mar_10_1455	s	s	5	4	Capacity	65	ABS	0	0	2	1	24_2_1	NA	NA	0	1	0.915555000305	None	None	None	None	1
3.0.1	2019_Mar_10_1455	s	s	5	4	Capacity	66	ABS	0	0	1	1	24_1_1	NA	NA	0	1	0.62864780426	None	None	None	None	1
3.0.1	2019_Mar_10_1455	s	s	5	4	Capacity	67	3_1	3	1	1	1	23_1_1	2	0	1	0	0.474882125854	-55.0	-2.0	-48.0	-1.0	1
3.0.1	2019_Mar_10_1455	s	s	5	4	Capacity	68	2_1	2	1	1	1	23_1_1	-1	0	0	1	0.587336063385	-410.0	6.0	None	None	0
3.0.1	2019_Mar_10_1455	s	s	5	4	Capacity	69	4_1	4	1	2	1	23_2_1	2	0	1	0	0.399358987808	-224.0	180.0	-224.0	189.0	1
3.0.1	2019_Mar_10_1455	s	s	5	4	Capacity	70	3_1	3	1	4	1	23_4_1	-1	0	1	0	0.440407037735	-8.0	-353.0	-11.0	-361.0	1
3.0.1	2019_Mar_10_1455	s	s	5	4	Capacity	71	1_1	1	1	2	1	23_2_1	1	0	1	0	1.18024921417	-518.0	103.0	-513.0	104.0	1
3.0.1	2019_Mar_10_1455	s	s	5	4	Capacity	72	ABS	0	0	2	1	24_2_1	NA	NA	0	1	1.2160179615	None	None	None	None	1
3.0.1	2019_Mar_10_1455	s	s	5	4	Capacity	73	1_1	1	1	3	1	23_3_1	2	0	1	0	0.496238946915	290.0	243.0	292.0	246.0	1
3.0.1	2019_Mar_10_1455	s	s	5	4	Capacity	74	ABS	0	0	1	1	24_1_1	NA	NA	0	1	1.26195311546	None	None	None	None	1
3.0.1	2019_Mar_10_1455	s	s	5	4	Capacity	75	ABS	0	0	3	1	24_3_1	NA	NA	0	1	1.06072282791	None	None	None	None	1
3.0.1	2019_Mar_10_1455	s	s	5	4	Capacity	76	ABS	0	0	2	1	24_2_1	NA	NA	0	1	1.30485510826	None	None	None	None	1
3.0.1	2019_Mar_10_1455	s	s	5	4	Capacity	77	3_1	3	1	2	1	23_2_1	1	0	1	0	0.495939016342	-406.0	-136.0	-397.0	-136.0	1
3.0.1	2019_Mar_10_1455	s	s	5	4	Capacity	78	ABS	0	0	4	1	24_4_1	NA	NA	0	1	1.46298217773	None	None	None	None	1
3.0.1	2019_Mar_10_1455	s	s	5	4	Capacity	79	1_1	1	1	4	1	23_4_1	3	0	1	0	0.403726100922	168.0	-296.0	175.0	-299.0	1
3.0.1	2019_Mar_10_1455	s	s	5	4	Capacity	80	ABS	0	0	1	1	24_1_1	NA	NA	0	1	1.0510699749	None	None	None	None	1
3.0.1	2019_Mar_10_1455	s	s	5	4	Capacity	81	ABS	0	0	2	1	24_2_1	NA	NA	0	1	0.599184036255	None	None	None	None	1
3.0.1	2019_Mar_10_1455	s	s	5	4	Capacity	82	3_1	3	1	4	1	23_4_1	-1	0	1	0	0.686374902725	164.0	-233.0	165.0	-234.0	1
3.0.1	2019_Mar_10_1455	s	s	5	4	Capacity	83	4_1	4	1	3	1	23_3_1	1	0	1	0	0.446160078049	6.0	-70.0	4.0	-68.0	1
3.0.1	2019_Mar_10_1455	s	s	5	4	Capacity	84	ABS	0	0	3	1	24_3_1	NA	NA	0	1	0.851320981979	None	None	None	None	1
3.0.1	2019_Mar_10_1455	s	s	5	4	Capacity	85	3_1	3	1	1	1	23_1_1	2	0	1	0	0.505026102066	472.0	116.0	480.0	113.0	1
3.0.1	2019_Mar_10_1455	s	s	5	4	Capacity	86	2_1	2	1	1	1	23_1_1	-1	0	1	0	1.48598098755	229.0	182.0	235.0	190.0	1
3.0.1	2019_Mar_10_1455	s	s	5	4	Capacity	87	2_1	2	1	3	1	23_3_1	1	0	1	0	0.53358912468	-488.0	-402.0	-489.0	-399.0	1
3.0.1	2019_Mar_10_1455	s	s	5	4	Capacity	88	1_1	1	1	2	1	23_2_1	1	0	1	0	1.99872112274	-118.0	-322.0	-112.0	-323.0	1
3.0.1	2019_Mar_10_1455	s	s	5	4	Capacity	89	2_1	2	1	4	1	23_4_1	2	0	1	0	0.392629861832	216.0	330.0	218.0	327.0	1
3.0.1	2019_Mar_10_1455	s	s	5	4	Capacity	90	ABS	0	0	3	1	24_3_1	NA	NA	0	1	1.48633122444	None	None	None	None	1
3.0.1	2019_Mar_10_1455	s	s	5	4	Capacity	91	ABS	0	0	4	1	24_4_1	NA	NA	0	1	1.05778598785	None	None	None	None	1
3.0.1	2019_Mar_10_1455	s	s	5	4	Capacity	92	4_1	4	1	2	1	23_2_1	2	0	1	0	0.402090787888	76.0	-266.0	70.0	-271.0	1
3.0.1	2019_Mar_10_1455	s	s	5	4	Capacity	93	ABS	0	0	4	1	24_4_1	NA	NA	0	1	1.29301095009	None	None	None	None	1
3.0.1	2019_Mar_10_1455	s	s	5	4	Capacity	94	ABS	0	0	1	1	24_1_1	NA	NA	0	1	1.6037530899	None	None	None	None	1
3.0.1	2019_Mar_10_1455	s	s	5	4	Capacity	95	ABS	0	0	2	1	24_2_1	NA	NA	0	1	1.95168781281	None	None	None	None	1
3.0.1	2019_Mar_10_1455	s	s	5	4	Capacity	96	4_1	4	1	1	1	23_1_1	3	0	1	0	0.457952022552	193.0	363.0	196.0	353.0	1
3.0.1	2019_Mar_10_1455	s	s	5	4	Capacity	1	1_3	1	3	1	4	23_1_4	0	-1	1	0	0.822573900223	-488.0	-378.0	-491.0	-381.0	1
3.0.1	2019_Mar_10_1455	s	s	5	4	Capacity	2	1_1	1	1	1	3	23_1_3	0	2	1	0	1.45153403282	462.0	276.0	459.0	277.0	1
3.0.1	2019_Mar_10_1455	s	s	5	4	Capacity	3	1_1	1	1	1	4	23_1_4	0	3	1	0	0.470177173615	282.0	218.0	279.0	217.0	1
3.0.1	2019_Mar_10_1455	s	s	5	4	Capacity	4	ABS	0	0	1	2	24_1_2	NA	NA	0	1	3.13109087944	None	None	None	None	1
3.0.1	2019_Mar_10_1455	s	s	5	4	Capacity	5	1_1	1	1	1	2	23_1_2	0	1	1	0	0.987234115601	-467.0	127.0	-468.0	135.0	1
3.0.1	2019_Mar_10_1455	s	s	5	4	Capacity	6	1_4	1	4	1	1	23_1_1	0	3	1	0	0.834404945374	0.0	244.0	-3.0	244.0	1
3.0.1	2019_Mar_10_1455	s	s	5	4	Capacity	7	ABS	0	0	1	3	24_1_3	NA	NA	0	1	4.37841486931	None	None	None	None	1
3.0.1	2019_Mar_10_1455	s	s	5	4	Capacity	8	ABS	0	0	1	3	24_1_3	NA	NA	0	1	4.10402202606	None	None	None	None	1
3.0.1	2019_Mar_10_1455	s	s	5	4	Capacity	9	ABS	0	0	1	4	24_1_4	NA	NA	0	1	1.2513821125	None	None	None	None	1
3.0.1	2019_Mar_10_1455	s	s	5	4	Capacity	10	1_2	1	2	1	1	23_1_1	0	-1	1	0	1.44887185097	107.0	148.0	102.0	146.0	1
3.0.1	2019_Mar_10_1455	s	s	5	4	Capacity	11	1_4	1	4	1	3	23_1_3	0	1	1	0	1.19897198677	520.0	-44.0	521.0	-45.0	1
3.0.1	2019_Mar_10_1455	s	s	5	4	Capacity	12	1_4	1	4	1	2	23_1_2	0	2	1	0	0.481555938721	192.0	86.0	188.0	81.0	1
3.0.1	2019_Mar_10_1455	s	s	5	4	Capacity	13	1_2	1	2	1	3	23_1_3	0	1	0	1	3.04542684555	-81.0	-102.0	None	None	0
3.0.1	2019_Mar_10_1455	s	s	5	4	Capacity	14	ABS	0	0	1	1	24_1_1	NA	NA	0	1	2.3611471653	None	None	None	None	1
3.0.1	2019_Mar_10_1455	s	s	5	4	Capacity	15	ABS	0	0	1	1	24_1_1	NA	NA	0	1	1.99223589897	None	None	None	None	1
3.0.1	2019_Mar_10_1455	s	s	5	4	Capacity	16	1_3	1	3	1	1	23_1_1	0	2	1	0	0.51712012291	-169.0	-17.0	-178.0	-17.0	1
3.0.1	2019_Mar_10_1455	s	s	5	4	Capacity	17	ABS	0	0	1	3	24_1_3	NA	NA	0	1	4.43622994423	None	None	None	None	1
3.0.1	2019_Mar_10_1455	s	s	5	4	Capacity	18	1_3	1	3	1	2	23_1_2	0	1	0	1	3.55417299271	48.0	25.0	None	None	0
3.0.1	2019_Mar_10_1455	s	s	5	4	Capacity	19	ABS	0	0	1	2	24_1_2	NA	NA	0	1	2.48733997345	None	None	None	None	1
3.0.1	2019_Mar_10_1455	s	s	5	4	Capacity	20	1_2	1	2	1	4	23_1_4	0	2	1	0	0.555057048798	4.0	337.0	5.0	344.0	1
3.0.1	2019_Mar_10_1455	s	s	5	4	Capacity	21	ABS	0	0	1	1	24_1_1	NA	NA	0	1	1.82221198082	None	None	None	None	1
3.0.1	2019_Mar_10_1455	s	s	5	4	Capacity	22	ABS	0	0	1	2	24_1_2	NA	NA	0	1	3.41411995888	None	None	None	None	1
3.0.1	2019_Mar_10_1455	s	s	5	4	Capacity	23	ABS	0	0	1	4	24_1_4	NA	NA	0	1	1.36364102364	None	None	None	None	1
3.0.1	2019_Mar_10_1455	s	s	5	4	Capacity	24	ABS	0	0	1	4	24_1_4	NA	NA	0	1	1.5213060379	None	None	None	None	1
3.0.1	2019_Mar_10_1455	s	s	5	4	Capacity	25	ABS	0	0	1	2	24_1_2	NA	NA	0	1	3.50456309319	None	None	None	None	1
3.0.1	2019_Mar_10_1455	s	s	5	4	Capacity	26	1_3	1	3	1	1	23_1_1	0	2	1	0	1.046448946	-518.0	256.0	-519.0	262.0	1
3.0.1	2019_Mar_10_1455	s	s	5	4	Capacity	27	ABS	0	0	1	2	24_1_2	NA	NA	0	1	3.28071308136	None	None	None	None	1
3.0.1	2019_Mar_10_1455	s	s	5	4	Capacity	28	1_1	1	1	1	3	23_1_3	0	2	1	0	2.26091313362	492.0	-136.0	495.0	-136.0	1
3.0.1	2019_Mar_10_1455	s	s	5	4	Capacity	29	ABS	0	0	1	3	24_1_3	NA	NA	0	1	4.60438394547	None	None	None	None	1
3.0.1	2019_Mar_10_1455	s	s	5	4	Capacity	30	1_4	1	4	1	2	23_1_2	0	2	1	0	0.605195999146	234.0	-202.0	232.0	-205.0	1
3.0.1	2019_Mar_10_1455	s	s	5	4	Capacity	31	ABS	0	0	1	1	24_1_1	NA	NA	0	1	0.987295866013	None	None	None	None	1
3.0.1	2019_Mar_10_1455	s	s	5	4	Capacity	32	1_1	1	1	1	2	23_1_2	0	1	1	0	3.02482199669	81.0	-381.0	82.0	-385.0	1
3.0.1	2019_Mar_10_1455	s	s	5	4	Capacity	33	1_1	1	1	1	4	23_1_4	0	3	1	0	0.469720840454	-384.0	-214.0	-382.0	-226.0	1
3.0.1	2019_Mar_10_1455	s	s	5	4	Capacity	34	1_2	1	2	1	1	23_1_1	0	-1	0	1	2.04949903488	-398.0	-44.0	None	None	0
3.0.1	2019_Mar_10_1455	s	s	5	4	Capacity	35	ABS	0	0	1	3	24_1_3	NA	NA	0	1	3.80311107635	None	None	None	None	1
3.0.1	2019_Mar_10_1455	s	s	5	4	Capacity	36	1_3	1	3	1	2	23_1_2	0	1	0	1	4.21496200562	433.0	-8.0	None	None	0
3.0.1	2019_Mar_10_1455	s	s	5	4	Capacity	37	ABS	0	0	1	1	24_1_1	NA	NA	0	1	1.31945800781	None	None	None	None	1
3.0.1	2019_Mar_10_1455	s	s	5	4	Capacity	38	1_2	1	2	1	4	23_1_4	0	2	1	0	0.587496042252	371.0	242.0	376.0	240.0	1
3.0.1	2019_Mar_10_1455	s	s	5	4	Capacity	39	ABS	0	0	1	4	24_1_4	NA	NA	0	1	1.3086540699	None	None	None	None	1
3.0.1	2019_Mar_10_1455	s	s	5	4	Capacity	40	1_4	1	4	1	1	23_1_1	0	3	1	0	0.496160984039	-194.0	-32.0	-188.0	-34.0	1
3.0.1	2019_Mar_10_1455	s	s	5	4	Capacity	41	ABS	0	0	1	4	24_1_4	NA	NA	0	1	1.08419394493	None	None	None	None	1
3.0.1	2019_Mar_10_1455	s	s	5	4	Capacity	42	ABS	0	0	1	2	24_1_2	NA	NA	0	1	4.40978503227	None	None	None	None	1
3.0.1	2019_Mar_10_1455	s	s	5	4	Capacity	43	1_2	1	2	1	3	23_1_3	0	1	1	0	3.35124087334	119.0	140.0	121.0	148.0	1
3.0.1	2019_Mar_10_1455	s	s	5	4	Capacity	44	ABS	0	0	1	4	24_1_4	NA	NA	0	1	1.21065211296	None	None	None	None	1
3.0.1	2019_Mar_10_1455	s	s	5	4	Capacity	45	1_4	1	4	1	3	23_1_3	0	1	1	0	1.10905694962	-421.0	-345.0	-411.0	-345.0	1
3.0.1	2019_Mar_10_1455	s	s	5	4	Capacity	46	1_3	1	3	1	4	23_1_4	0	-1	1	0	0.546443939209	-119.0	383.0	-123.0	389.0	1
3.0.1	2019_Mar_10_1455	s	s	5	4	Capacity	47	ABS	0	0	1	1	24_1_1	NA	NA	0	1	1.36652588844	None	None	None	None	1
3.0.1	2019_Mar_10_1455	s	s	5	4	Capacity	48	ABS	0	0	1	3	24_1_3	NA	NA	0	1	2.99847888947	None	None	None	None	1
3.0.1	2019_Mar_10_1455	s	s	5	4	Capacity	49	ABS	0	0	1	1	24_1_1	NA	NA	0	1	1.64591693878	None	None	None	None	1
3.0.1	2019_Mar_10_1455	s	s	5	4	Capacity	50	ABS	0	0	1	1	24_1_1	NA	NA	0	1	1.26550197601	None	None	None	None	1
3.0.1	2019_Mar_10_1455	s	s	5	4	Capacity	51	ABS	0	0	1	4	24_1_4	NA	NA	0	1	2.26039385796	None	None	None	None	1
3.0.1	2019_Mar_10_1455	s	s	5	4	Capacity	52	1_4	1	4	1	2	23_1_2	0	2	1	0	0.621886014938	-269.0	235.0	-269.0	226.0	1
3.0.1	2019_Mar_10_1455	s	s	5	4	Capacity	53	1_4	1	4	1	3	23_1_3	0	1	1	0	0.533406972885	496.0	204.0	501.0	205.0	1
3.0.1	2019_Mar_10_1455	s	s	5	4	Capacity	54	ABS	0	0	1	4	24_1_4	NA	NA	0	1	1.85493302345	None	None	None	None	1
3.0.1	2019_Mar_10_1455	s	s	5	4	Capacity	55	ABS	0	0	1	2	24_1_2	NA	NA	0	1	2.32336378098	None	None	None	None	1
3.0.1	2019_Mar_10_1455	s	s	5	4	Capacity	56	1_2	1	2	1	4	23_1_4	0	2	1	0	0.410884141922	-378.0	122.0	-385.0	126.0	1
3.0.1	2019_Mar_10_1455	s	s	5	4	Capacity	57	1_1	1	1	1	4	23_1_4	0	3	1	0	0.497188091278	-473.0	218.0	-474.0	215.0	1
3.0.1	2019_Mar_10_1455	s	s	5	4	Capacity	58	ABS	0	0	1	2	24_1_2	NA	NA	0	1	2.57508206367	None	None	None	None	1
3.0.1	2019_Mar_10_1455	s	s	5	4	Capacity	59	1_3	1	3	1	2	23_1_2	0	1	1	0	1.50474309921	60.0	135.0	53.0	128.0	1
3.0.1	2019_Mar_10_1455	s	s	5	4	Capacity	60	1_1	1	1	1	3	23_1_3	0	2	1	0	2.01626205444	123.0	-107.0	124.0	-106.0	1
3.0.1	2019_Mar_10_1455	s	s	5	4	Capacity	61	1_4	1	4	1	1	23_1_1	0	3	1	0	0.516731023788	326.0	-175.0	324.0	-173.0	1
3.0.1	2019_Mar_10_1455	s	s	5	4	Capacity	62	ABS	0	0	1	3	24_1_3	NA	NA	0	1	2.8808119297	None	None	None	None	1
3.0.1	2019_Mar_10_1455	s	s	5	4	Capacity	63	ABS	0	0	1	3	24_1_3	NA	NA	0	1	2.8459379673	None	None	None	None	1
3.0.1	2019_Mar_10_1455	s	s	5	4	Capacity	64	ABS	0	0	1	3	24_1_3	NA	NA	0	1	2.29777407646	None	None	None	None	1
3.0.1	2019_Mar_10_1455	s	s	5	4	Capacity	65	ABS	0	0	1	1	24_1_1	NA	NA	0	1	0.905007123947	None	None	None	None	1
3.0.1	2019_Mar_10_1455	s	s	5	4	Capacity	66	ABS	0	0	1	4	24_1_4	NA	NA	0	1	1.50488090515	None	None	None	None	1
3.0.1	2019_Mar_10_1455	s	s	5	4	Capacity	67	1_3	1	3	1	4	23_1_4	0	-1	1	0	0.763822078705	525.0	54.0	520.0	57.0	1
3.0.1	2019_Mar_10_1455	s	s	5	4	Capacity	68	1_2	1	2	1	3	23_1_3	0	1	1	0	1.51656794548	368.0	242.0	368.0	232.0	1
3.0.1	2019_Mar_10_1455	s	s	5	4	Capacity	69	ABS	0	0	1	2	24_1_2	NA	NA	0	1	1.75456809998	None	None	None	None	1
3.0.1	2019_Mar_10_1455	s	s	5	4	Capacity	70	1_2	1	2	1	1	23_1_1	0	-1	0	1	0.804418087006	460.0	-361.0	None	None	0
3.0.1	2019_Mar_10_1455	s	s	5	4	Capacity	71	1_1	1	1	1	2	23_1_2	0	1	1	0	0.826164960861	-37.0	219.0	-35.0	215.0	1
3.0.1	2019_Mar_10_1455	s	s	5	4	Capacity	72	1_3	1	3	1	1	23_1_1	0	2	1	0	0.849074840546	245.0	74.0	241.0	72.0	1
3.0.1	2019_Mar_10_1455	s	s	5	4	Capacity	73	1_1	1	1	1	3	23_1_3	0	2	1	0	0.862869977951	-146.0	195.0	-138.0	200.0	1
3.0.1	2019_Mar_10_1455	s	s	5	4	Capacity	74	1_2	1	2	1	3	23_1_3	0	1	1	0	3.75143003464	-455.0	-393.0	-456.0	-392.0	1
3.0.1	2019_Mar_10_1455	s	s	5	4	Capacity	75	1_2	1	2	1	1	23_1_1	0	-1	1	0	1.63406896591	-313.0	91.0	-316.0	95.0	1
3.0.1	2019_Mar_10_1455	s	s	5	4	Capacity	76	1_1	1	1	1	4	23_1_4	0	3	1	0	0.51025891304	181.0	323.0	180.0	322.0	1
3.0.1	2019_Mar_10_1455	s	s	5	4	Capacity	77	ABS	0	0	1	4	24_1_4	NA	NA	0	1	1.52821683884	None	None	None	None	1
3.0.1	2019_Mar_10_1455	s	s	5	4	Capacity	78	1_4	1	4	1	3	23_1_3	0	1	1	0	0.587379932404	27.0	-182.0	22.0	-188.0	1
3.0.1	2019_Mar_10_1455	s	s	5	4	Capacity	79	ABS	0	0	1	3	24_1_3	NA	NA	0	1	4.07512903214	None	None	None	None	1
3.0.1	2019_Mar_10_1455	s	s	5	4	Capacity	80	1_4	1	4	1	1	23_1_1	0	3	1	0	0.540410995483	-434.0	-289.0	-425.0	-282.0	1
3.0.1	2019_Mar_10_1455	s	s	5	4	Capacity	81	ABS	0	0	1	1	24_1_1	NA	NA	0	1	1.26062989235	None	None	None	None	1
3.0.1	2019_Mar_10_1455	s	s	5	4	Capacity	82	ABS	0	0	1	2	24_1_2	NA	NA	0	1	3.2335960865	None	None	None	None	1
3.0.1	2019_Mar_10_1455	s	s	5	4	Capacity	83	ABS	0	0	1	4	24_1_4	NA	NA	0	1	0.738529920578	None	None	None	None	1
3.0.1	2019_Mar_10_1455	s	s	5	4	Capacity	84	ABS	0	0	1	1	24_1_1	NA	NA	0	1	1.01727414131	None	None	None	None	1
3.0.1	2019_Mar_10_1455	s	s	5	4	Capacity	85	1_3	1	3	1	1	23_1_1	0	2	1	0	0.521129131317	-127.0	19.0	-130.0	18.0	1
3.0.1	2019_Mar_10_1455	s	s	5	4	Capacity	86	1_2	1	2	1	4	23_1_4	0	2	1	0	0.548968076706	-531.0	309.0	-530.0	303.0	1
3.0.1	2019_Mar_10_1455	s	s	5	4	Capacity	87	ABS	0	0	1	4	24_1_4	NA	NA	0	1	1.84067296982	None	None	None	None	1
3.0.1	2019_Mar_10_1455	s	s	5	4	Capacity	88	ABS	0	0	1	1	24_1_1	NA	NA	0	1	1.09308886528	None	None	None	None	1
3.0.1	2019_Mar_10_1455	s	s	5	4	Capacity	89	1_3	1	3	1	2	23_1_2	0	1	1	0	1.20186805725	-77.0	-290.0	-80.0	-293.0	1
3.0.1	2019_Mar_10_1455	s	s	5	4	Capacity	90	1_4	1	4	1	2	23_1_2	0	2	1	0	0.458039999008	417.0	53.0	421.0	46.0	1
3.0.1	2019_Mar_10_1455	s	s	5	4	Capacity	91	1_1	1	1	1	2	23_1_2	0	1	1	0	2.12034606934	-207.0	349.0	-207.0	354.0	1
3.0.1	2019_Mar_10_1455	s	s	5	4	Capacity	92	ABS	0	0	1	2	24_1_2	NA	NA	0	1	3.13283109665	None	None	None	None	1
3.0.1	2019_Mar_10_1455	s	s	5	4	Capacity	93	ABS	0	0	1	3	24_1_3	NA	NA	0	1	2.98716020584	None	None	None	None	1
3.0.1	2019_Mar_10_1455	s	s	5	4	Capacity	94	ABS	0	0	1	3	24_1_3	NA	NA	0	1	2.42741179466	None	None	None	None	1
3.0.1	2019_Mar_10_1455	s	s	5	4	Capacity	95	ABS	0	0	1	2	24_1_2	NA	NA	0	1	3.92759585381	None	None	None	None	1
3.0.1	2019_Mar_10_1455	s	s	5	4	Capacity	96	1_3	1	3	1	4	23_1_4	0	-1	1	0	1.14307308197	-24.0	1.0	-17.0	1.0	1
3.0.1	2019_Mar_10_1455	s	s	5	4	SIC	1	1_2	1	2	1	4	23_1_4	0	2	1	0	0.705331087112	523.0	-101.0	519.0	-102.0	1
3.0.1	2019_Mar_10_1455	s	s	5	4	SIC	2	ABS	0	0	4	2	24_4_2	NA	NA	0	1	1.49690699577	None	None	None	None	1
3.0.1	2019_Mar_10_1455	s	s	5	4	SIC	3	1_3	1	3	3	4	23_3_4	2	-1	1	0	0.496207952499	-7.0	-37.0	-6.0	-34.0	1
3.0.1	2019_Mar_10_1455	s	s	5	4	SIC	4	ABS	0	0	4	4	24_4_4	NA	NA	0	1	1.22239899635	None	None	None	None	1
3.0.1	2019_Mar_10_1455	s	s	5	4	SIC	5	ABS	0	0	3	2	24_3_2	NA	NA	0	1	2.70479011536	None	None	None	None	1
3.0.1	2019_Mar_10_1455	s	s	5	4	SIC	6	ABS	0	0	4	4	24_4_4	NA	NA	0	1	1.72177886963	None	None	None	None	1
3.0.1	2019_Mar_10_1455	s	s	5	4	SIC	7	ABS	0	0	3	2	24_3_2	NA	NA	0	1	3.02491807938	None	None	None	None	1
3.0.1	2019_Mar_10_1455	s	s	5	4	SIC	8	4_3	4	3	3	1	23_3_1	1	2	1	0	0.587359905243	-483.0	44.0	-477.0	45.0	1
3.0.1	2019_Mar_10_1455	s	s	5	4	SIC	9	1_4	1	4	2	1	23_2_1	1	3	1	0	0.568336963654	230.0	-41.0	224.0	-45.0	1
3.0.1	2019_Mar_10_1455	s	s	5	4	SIC	10	ABS	0	0	2	1	24_2_1	NA	NA	0	1	2.56361293793	None	None	None	None	1
3.0.1	2019_Mar_10_1455	s	s	5	4	SIC	11	3_3	3	3	4	4	23_4_4	-1	-1	1	0	0.427623033524	512.0	284.0	506.0	276.0	1
3.0.1	2019_Mar_10_1455	s	s	5	4	SIC	12	2_4	2	4	4	2	23_4_2	2	2	1	0	0.422770023346	37.0	-352.0	35.0	-351.0	1
3.0.1	2019_Mar_10_1455	s	s	5	4	SIC	13	3_4	3	4	2	4	23_2_4	1	0	1	0	0.669849872589	172.0	330.0	162.0	334.0	1
3.0.1	2019_Mar_10_1455	s	s	5	4	SIC	14	ABS	0	0	2	2	24_2_2	NA	NA	0	1	3.75106477737	None	None	None	None	1
3.0.1	2019_Mar_10_1455	s	s	5	4	SIC	15	1_1	1	1	3	2	23_3_2	2	1	1	0	0.522845983505	-155.0	391.0	-155.0	394.0	1
3.0.1	2019_Mar_10_1455	s	s	5	4	SIC	16	ABS	0	0	4	3	24_4_3	NA	NA	0	1	1.54907298088	None	None	None	None	1
3.0.1	2019_Mar_10_1455	s	s	5	4	SIC	17	ABS	0	0	3	1	24_3_1	NA	NA	0	1	1.09060502052	None	None	None	None	1
3.0.1	2019_Mar_10_1455	s	s	5	4	SIC	18	4_1	4	1	1	4	23_1_4	3	3	1	0	0.378573894501	-277.0	79.0	-273.0	77.0	1
3.0.1	2019_Mar_10_1455	s	s	5	4	SIC	19	4_3	4	3	3	4	23_3_4	1	-1	1	0	0.378572940826	-431.0	-329.0	-428.0	-332.0	1
3.0.1	2019_Mar_10_1455	s	s	5	4	SIC	20	2_2	2	2	3	1	23_3_1	1	-1	1	0	0.428056001663	-155.0	-122.0	-161.0	-117.0	1
3.0.1	2019_Mar_10_1455	s	s	5	4	SIC	21	4_4	4	4	2	1	23_2_1	2	3	1	0	0.340362071991	73.0	-285.0	71.0	-288.0	1
3.0.1	2019_Mar_10_1455	s	s	5	4	SIC	22	ABS	0	0	4	1	24_4_1	NA	NA	0	1	1.05781006813	None	None	None	None	1
3.0.1	2019_Mar_10_1455	s	s	5	4	SIC	23	3_1	3	1	2	4	23_2_4	1	3	1	0	0.493713855743	-262.0	48.0	-259.0	48.0	1
3.0.1	2019_Mar_10_1455	s	s	5	4	SIC	24	ABS	0	0	4	1	24_4_1	NA	NA	0	1	1.3329770565	None	None	None	None	1
3.0.1	2019_Mar_10_1455	s	s	5	4	SIC	25	ABS	0	0	2	3	24_2_3	NA	NA	0	1	3.07416081429	None	None	None	None	1
3.0.1	2019_Mar_10_1455	s	s	5	4	SIC	26	2_4	2	4	3	1	23_3_1	1	3	1	0	0.663043022156	441.0	377.0	453.0	378.0	1
3.0.1	2019_Mar_10_1455	s	s	5	4	SIC	27	4_2	4	2	2	4	23_2_4	2	2	1	0	0.451487064362	271.0	77.0	273.0	78.0	1
3.0.1	2019_Mar_10_1455	s	s	5	4	SIC	28	4_1	4	1	1	3	23_1_3	3	2	1	0	0.343323945999	494.0	75.0	501.0	68.0	1
3.0.1	2019_Mar_10_1455	s	s	5	4	SIC	29	ABS	0	0	3	2	24_3_2	NA	NA	0	1	2.59080910683	None	None	None	None	1
3.0.1	2019_Mar_10_1455	s	s	5	4	SIC	30	4_1	4	1	1	1	23_1_1	3	0	1	0	0.437429189682	412.0	-8.0	410.0	-10.0	1
3.0.1	2019_Mar_10_1455	s	s	5	4	SIC	31	4_3	4	3	4	4	23_4_4	0	-1	1	0	1.2859249115	-458.0	310.0	-459.0	308.0	1
3.0.1	2019_Mar_10_1455	s	s	5	4	SIC	32	ABS	0	0	3	1	24_3_1	NA	NA	0	1	1.48128890991	None	None	None	None	1
3.0.1	2019_Mar_10_1455	s	s	5	4	SIC	33	2_3	2	3	1	2	23_1_2	-1	1	1	0	2.43677616119	128.0	342.0	128.0	340.0	1
3.0.1	2019_Mar_10_1455	s	s	5	4	SIC	34	1_2	1	2	4	3	23_4_3	3	1	1	0	0.452230215073	413.0	179.0	420.0	177.0	1
3.0.1	2019_Mar_10_1455	s	s	5	4	SIC	35	ABS	0	0	2	2	24_2_2	NA	NA	0	1	2.78143000603	None	None	None	None	1
3.0.1	2019_Mar_10_1455	s	s	5	4	SIC	36	ABS	0	0	2	4	24_2_4	NA	NA	0	1	1.97291183472	None	None	None	None	1
3.0.1	2019_Mar_10_1455	s	s	5	4	SIC	37	2_2	2	2	2	1	23_2_1	0	-1	1	0	1.16798305511	34.0	-235.0	37.0	-237.0	1
3.0.1	2019_Mar_10_1455	s	s	5	4	SIC	38	ABS	0	0	4	1	24_4_1	NA	NA	0	1	1.26065897942	None	None	None	None	1
3.0.1	2019_Mar_10_1455	s	s	5	4	SIC	39	4_4	4	4	2	3	23_2_3	2	1	1	0	0.429198980331	-174.0	-390.0	-167.0	-392.0	1
3.0.1	2019_Mar_10_1455	s	s	5	4	SIC	40	3_2	3	2	4	2	23_4_2	-1	0	1	0	0.391175985336	185.0	-153.0	181.0	-149.0	1
3.0.1	2019_Mar_10_1455	s	s	5	4	SIC	41	ABS	0	0	2	3	24_2_3	NA	NA	0	1	2.5867099762	None	None	None	None	1
3.0.1	2019_Mar_10_1455	s	s	5	4	SIC	42	2_4	2	4	1	3	23_1_3	-1	1	1	0	0.646181106567	439.0	-77.0	443.0	-81.0	1
3.0.1	2019_Mar_10_1455	s	s	5	4	SIC	43	3_2	3	2	2	4	23_2_4	1	2	1	0	0.457973957062	472.0	-315.0	473.0	-319.0	1
3.0.1	2019_Mar_10_1455	s	s	5	4	SIC	44	4_3	4	3	2	4	23_2_4	2	-1	1	0	0.378584861755	-312.0	116.0	-313.0	121.0	1
3.0.1	2019_Mar_10_1455	s	s	5	4	SIC	45	4_1	4	1	3	3	23_3_3	1	2	1	0	0.344552993774	379.0	205.0	380.0	207.0	1
3.0.1	2019_Mar_10_1455	s	s	5	4	SIC	46	ABS	0	0	1	1	24_1_1	NA	NA	0	1	0.999061107635	None	None	None	None	1
3.0.1	2019_Mar_10_1455	s	s	5	4	SIC	47	3_3	3	3	2	1	23_2_1	1	2	0	1	0.555043935776	486.0	13.0	None	None	0
3.0.1	2019_Mar_10_1455	s	s	5	4	SIC	48	1_4	1	4	4	2	23_4_2	3	2	1	0	0.428191184998	-211.0	-247.0	-206.0	-240.0	1
3.0.1	2019_Mar_10_1455	s	s	5	4	SIC	49	ABS	0	0	1	4	24_1_4	NA	NA	0	1	1.02645301819	None	None	None	None	1
3.0.1	2019_Mar_10_1455	s	s	5	4	SIC	50	ABS	0	0	4	1	24_4_1	NA	NA	0	1	1.42242884636	None	None	None	None	1
3.0.1	2019_Mar_10_1455	s	s	5	4	SIC	51	1_3	1	3	4	3	23_4_3	3	0	1	0	0.427865028381	-328.0	-231.0	-318.0	-232.0	1
3.0.1	2019_Mar_10_1455	s	s	5	4	SIC	52	4_4	4	4	2	4	23_2_4	2	0	1	0	0.392536878586	-174.0	-158.0	-176.0	-165.0	1
3.0.1	2019_Mar_10_1455	s	s	5	4	SIC	53	2_1	2	1	3	2	23_3_2	1	1	1	0	0.496235132217	54.0	159.0	53.0	164.0	1
3.0.1	2019_Mar_10_1455	s	s	5	4	SIC	54	2_2	2	2	1	4	23_1_4	-1	2	1	0	0.46971988678	288.0	-152.0	287.0	-149.0	1
3.0.1	2019_Mar_10_1455	s	s	5	4	SIC	55	3_3	3	3	1	3	23_1_3	2	0	1	0	0.57564496994	-535.0	382.0	-535.0	381.0	1
3.0.1	2019_Mar_10_1455	s	s	5	4	SIC	56	ABS	0	0	2	3	24_2_3	NA	NA	0	1	2.38717317581	None	None	None	None	1
3.0.1	2019_Mar_10_1455	s	s	5	4	SIC	57	3_2	3	2	4	1	23_4_1	-1	-1	1	0	0.399169921875	217.0	-261.0	217.0	-260.0	1
3.0.1	2019_Mar_10_1455	s	s	5	4	SIC	58	2_1	2	1	1	3	23_1_3	-1	2	1	0	0.469788074493	-190.0	70.0	-192.0	77.0	1
3.0.1	2019_Mar_10_1455	s	s	5	4	SIC	59	ABS	0	0	1	3	24_1_3	NA	NA	0	1	2.9748609066	None	None	None	None	1
3.0.1	2019_Mar_10_1455	s	s	5	4	SIC	60	4_3	4	3	4	1	23_4_1	0	2	1	0	1.05774092674	1.0	279.0	3.0	275.0	1
3.0.1	2019_Mar_10_1455	s	s	5	4	SIC	61	ABS	0	0	1	1	24_1_1	NA	NA	0	1	1.11665391922	None	None	None	None	1
3.0.1	2019_Mar_10_1455	s	s	5	4	SIC	62	3_4	3	4	4	3	23_4_3	-1	1	1	0	0.497200965881	-384.0	-182.0	-376.0	-185.0	1
3.0.1	2019_Mar_10_1455	s	s	5	4	SIC	63	4_1	4	1	4	4	23_4_4	0	3	1	0	0.554975986481	-232.0	-183.0	-227.0	-177.0	1
3.0.1	2019_Mar_10_1455	s	s	5	4	SIC	64	2_2	2	2	2	4	23_2_4	0	2	1	0	0.75201010704	523.0	362.0	530.0	369.0	1
3.0.1	2019_Mar_10_1455	s	s	5	4	SIC	65	ABS	0	0	2	4	24_2_4	NA	NA	0	1	1.31102895737	None	None	None	None	1
3.0.1	2019_Mar_10_1455	s	s	5	4	SIC	66	2_3	2	3	4	2	23_4_2	2	1	1	0	0.378642082214	230.0	155.0	233.0	163.0	1
3.0.1	2019_Mar_10_1455	s	s	5	4	SIC	67	ABS	0	0	2	4	24_2_4	NA	NA	0	1	1.14307188988	None	None	None	None	1
3.0.1	2019_Mar_10_1455	s	s	5	4	SIC	68	3_2	3	2	4	4	23_4_4	-1	2	1	0	0.404448986053	489.0	88.0	497.0	86.0	1
3.0.1	2019_Mar_10_1455	s	s	5	4	SIC	69	3_1	3	1	1	4	23_1_4	2	3	1	0	0.450493097305	464.0	-327.0	473.0	-328.0	1
3.0.1	2019_Mar_10_1455	s	s	5	4	SIC	70	4_1	4	1	3	2	23_3_2	1	1	1	0	0.364315032959	224.0	175.0	224.0	170.0	1
3.0.1	2019_Mar_10_1455	s	s	5	4	SIC	71	1_1	1	1	3	1	23_3_1	2	0	1	0	0.587407112122	-119.0	-402.0	-117.0	-402.0	1
3.0.1	2019_Mar_10_1455	s	s	5	4	SIC	72	ABS	0	0	2	3	24_2_3	NA	NA	0	1	2.53088998795	None	None	None	None	1
3.0.1	2019_Mar_10_1455	s	s	5	4	SIC	73	2_3	2	3	2	2	23_2_2	0	1	0	1	2.24571108818	93.0	337.0	None	None	0
3.0.1	2019_Mar_10_1455	s	s	5	4	SIC	74	ABS	0	0	4	3	24_4_3	NA	NA	0	1	1.81057977676	None	None	None	None	1
3.0.1	2019_Mar_10_1455	s	s	5	4	SIC	75	ABS	0	0	1	3	24_1_3	NA	NA	0	1	2.32339310646	None	None	None	None	1
3.0.1	2019_Mar_10_1455	s	s	5	4	SIC	76	ABS	0	0	3	4	24_3_4	NA	NA	0	1	1.19377684593	None	None	None	None	1
3.0.1	2019_Mar_10_1455	s	s	5	4	SIC	77	ABS	0	0	4	3	24_4_3	NA	NA	0	1	2.23427414894	None	None	None	None	1
3.0.1	2019_Mar_10_1455	s	s	5	4	SIC	78	4_1	4	1	1	2	23_1_2	3	1	1	0	0.415681123734	-459.0	14.0	-460.0	9.0	1
3.0.1	2019_Mar_10_1455	s	s	5	4	SIC	79	2_1	2	1	1	4	23_1_4	-1	3	1	0	0.399135112762	-20.0	187.0	-10.0	191.0	1
3.0.1	2019_Mar_10_1455	s	s	5	4	SIC	80	ABS	0	0	3	4	24_3_4	NA	NA	0	1	0.781267166138	None	None	None	None	1
3.0.1	2019_Mar_10_1455	s	s	5	4	SIC	81	ABS	0	0	3	4	24_3_4	NA	NA	0	1	0.928442955017	None	None	None	None	1
3.0.1	2019_Mar_10_1455	s	s	5	4	SIC	82	ABS	0	0	1	3	24_1_3	NA	NA	0	1	3.58646178246	None	None	None	None	1
3.0.1	2019_Mar_10_1455	s	s	5	4	SIC	83	ABS	0	0	4	3	24_4_3	NA	NA	0	1	1.49592423439	None	None	None	None	1
3.0.1	2019_Mar_10_1455	s	s	5	4	SIC	84	1_4	1	4	2	2	23_2_2	1	2	1	0	0.657984972	-477.0	305.0	-485.0	305.0	1
3.0.1	2019_Mar_10_1455	s	s	5	4	SIC	85	1_2	1	2	3	4	23_3_4	2	2	1	0	0.399160861969	-377.0	113.0	-378.0	110.0	1
3.0.1	2019_Mar_10_1455	s	s	5	4	SIC	86	1_4	1	4	3	4	23_3_4	2	0	1	0	0.426077842712	-295.0	341.0	-299.0	334.0	1
3.0.1	2019_Mar_10_1455	s	s	5	4	SIC	87	2_4	2	4	4	3	23_4_3	2	1	1	0	0.378572940826	229.0	260.0	230.0	259.0	1
3.0.1	2019_Mar_10_1455	s	s	5	4	SIC	88	ABS	0	0	1	2	24_1_2	NA	NA	0	1	4.15102505684	None	None	None	None	1
3.0.1	2019_Mar_10_1455	s	s	5	4	SIC	89	ABS	0	0	2	3	24_2_3	NA	NA	0	1	2.81515598297	None	None	None	None	1
3.0.1	2019_Mar_10_1455	s	s	5	4	SIC	90	4_2	4	2	3	1	23_3_1	1	-1	1	0	0.481502056122	-29.0	-195.0	-27.0	-188.0	1
3.0.1	2019_Mar_10_1455	s	s	5	4	SIC	91	1_1	1	1	3	3	23_3_3	2	2	1	0	0.469726085663	54.0	242.0	61.0	248.0	1
3.0.1	2019_Mar_10_1455	s	s	5	4	SIC	92	ABS	0	0	2	3	24_2_3	NA	NA	0	1	2.31466197968	None	None	None	None	1
3.0.1	2019_Mar_10_1455	s	s	5	4	SIC	93	2_4	2	4	2	3	23_2_3	0	1	1	0	1.54008507729	381.0	-388.0	386.0	-388.0	1
3.0.1	2019_Mar_10_1455	s	s	5	4	SIC	94	4_1	4	1	3	1	23_3_1	1	0	1	0	0.704987049103	465.0	-64.0	464.0	-61.0	1
3.0.1	2019_Mar_10_1455	s	s	5	4	SIC	95	ABS	0	0	1	3	24_1_3	NA	NA	0	1	3.82173013687	None	None	None	None	1
3.0.1	2019_Mar_10_1455	s	s	5	4	SIC	96	3_4	3	4	3	2	23_3_2	0	2	1	0	0.8043820858	501.0	-286.0	506.0	-284.0	1
3.0.1	2019_Mar_10_1455	s	s	5	4	SIC	97	3_3	3	3	2	2	23_2_2	1	1	1	0	0.422754049301	191.0	105.0	193.0	107.0	1
3.0.1	2019_Mar_10_1455	s	s	5	4	SIC	98	2_3	2	3	1	3	23_1_3	-1	0	1	0	3.59053277969	-444.0	221.0	-444.0	226.0	1
3.0.1	2019_Mar_10_1455	s	s	5	4	SIC	99	ABS	0	0	1	3	24_1_3	NA	NA	0	1	2.01050400734	None	None	None	None	1
3.0.1	2019_Mar_10_1455	s	s	5	4	SIC	100	ABS	0	0	4	4	24_4_4	NA	NA	0	1	1.26070284843	None	None	None	None	1
3.0.1	2019_Mar_10_1455	s	s	5	4	SIC	101	ABS	0	0	1	4	24_1_4	NA	NA	0	1	1.85759592056	None	None	None	None	1
3.0.1	2019_Mar_10_1455	s	s	5	4	SIC	102	ABS	0	0	3	3	24_3_3	NA	NA	0	1	3.60497307777	None	None	None	None	1
3.0.1	2019_Mar_10_1455	s	s	5	4	SIC	103	2_3	2	3	3	1	23_3_1	1	2	1	0	0.540366888046	-526.0	284.0	-533.0	281.0	1
3.0.1	2019_Mar_10_1455	s	s	5	4	SIC	104	ABS	0	0	3	3	24_3_3	NA	NA	0	1	4.24542498589	None	None	None	None	1
3.0.1	2019_Mar_10_1455	s	s	5	4	SIC	105	ABS	0	0	3	3	24_3_3	NA	NA	0	1	2.36078906059	None	None	None	None	1
3.0.1	2019_Mar_10_1455	s	s	5	4	SIC	106	4_3	4	3	1	4	23_1_4	3	-1	1	0	0.399076938629	321.0	-38.0	327.0	-31.0	1
3.0.1	2019_Mar_10_1455	s	s	5	4	SIC	107	2_4	2	4	1	1	23_1_1	-1	3	1	0	0.510339975357	-45.0	-27.0	-50.0	-28.0	1
3.0.1	2019_Mar_10_1455	s	s	5	4	SIC	108	ABS	0	0	4	4	24_4_4	NA	NA	0	1	1.19249391556	None	None	None	None	1
3.0.1	2019_Mar_10_1455	s	s	5	4	SIC	109	ABS	0	0	1	1	24_1_1	NA	NA	0	1	1.86931300163	None	None	None	None	1
3.0.1	2019_Mar_10_1455	s	s	5	4	SIC	110	4_3	4	3	1	2	23_1_2	3	1	1	0	0.410952091217	-225.0	191.0	-221.0	183.0	1
3.0.1	2019_Mar_10_1455	s	s	5	4	SIC	111	ABS	0	0	4	1	24_4_1	NA	NA	0	1	1.20174407959	None	None	None	None	1
3.0.1	2019_Mar_10_1455	s	s	5	4	SIC	112	ABS	0	0	4	4	24_4_4	NA	NA	0	1	0.966617822647	None	None	None	None	1
3.0.1	2019_Mar_10_1455	s	s	5	4	SIC	113	ABS	0	0	3	4	24_3_4	NA	NA	0	1	0.881456851959	None	None	None	None	1
3.0.1	2019_Mar_10_1455	s	s	5	4	SIC	114	ABS	0	0	4	3	24_4_3	NA	NA	0	1	2.61317706108	None	None	None	None	1
3.0.1	2019_Mar_10_1455	s	s	5	4	SIC	115	3_2	3	2	1	1	23_1_1	2	-1	1	0	0.827478885651	-478.0	-349.0	-469.0	-352.0	1
3.0.1	2019_Mar_10_1455	s	s	5	4	SIC	116	3_2	3	2	2	2	23_2_2	1	0	1	0	0.604179143906	419.0	-219.0	426.0	-215.0	1
3.0.1	2019_Mar_10_1455	s	s	5	4	SIC	117	ABS	0	0	2	3	24_2_3	NA	NA	0	1	2.89788198471	None	None	None	None	1
3.0.1	2019_Mar_10_1455	s	s	5	4	SIC	118	ABS	0	0	4	3	24_4_3	NA	NA	0	1	2.0810918808	None	None	None	None	1
3.0.1	2019_Mar_10_1455	s	s	5	4	SIC	119	ABS	0	0	2	2	24_2_2	NA	NA	0	1	2.91613197327	None	None	None	None	1
3.0.1	2019_Mar_10_1455	s	s	5	4	SIC	120	ABS	0	0	4	1	24_4_1	NA	NA	0	1	2.41036701202	None	None	None	None	1
3.0.1	2019_Mar_10_1455	s	s	5	4	SIC	121	ABS	0	0	4	4	24_4_4	NA	NA	0	1	1.6604719162	None	None	None	None	1
3.0.1	2019_Mar_10_1455	s	s	5	4	SIC	122	ABS	0	0	3	2	24_3_2	NA	NA	0	1	2.85729908943	None	None	None	None	1
3.0.1	2019_Mar_10_1455	s	s	5	4	SIC	123	ABS	0	0	2	2	24_2_2	NA	NA	0	1	3.27401590347	None	None	None	None	1
3.0.1	2019_Mar_10_1455	s	s	5	4	SIC	124	ABS	0	0	3	4	24_3_4	NA	NA	0	1	1.34011888504	None	None	None	None	1
3.0.1	2019_Mar_10_1455	s	s	5	4	SIC	125	4_3	4	3	1	1	23_1_1	3	2	1	0	0.469790935516	-335.0	318.0	-335.0	317.0	1
3.0.1	2019_Mar_10_1455	s	s	5	4	SIC	126	3_1	3	1	4	1	23_4_1	-1	0	1	0	0.437422037125	468.0	-16.0	480.0	-12.0	1
3.0.1	2019_Mar_10_1455	s	s	5	4	SIC	127	4_4	4	4	3	3	23_3_3	1	1	1	0	0.356384038925	437.0	256.0	439.0	253.0	1
3.0.1	2019_Mar_10_1455	s	s	5	4	SIC	128	ABS	0	0	3	2	24_3_2	NA	NA	0	1	2.5223929882	None	None	None	None	1
3.0.1	2019_Mar_10_1455	s	s	5	4	SIC	129	ABS	0	0	1	4	24_1_4	NA	NA	0	1	3.09792709351	None	None	None	None	1
3.0.1	2019_Mar_10_1455	s	s	5	4	SIC	130	ABS	0	0	1	4	24_1_4	NA	NA	0	1	1.82226014137	None	None	None	None	1
3.0.1	2019_Mar_10_1455	s	s	5	4	SIC	131	ABS	0	0	3	3	24_3_3	NA	NA	0	1	2.84849095345	None	None	None	None	1
3.0.1	2019_Mar_10_1455	s	s	5	4	SIC	132	ABS	0	0	4	2	24_4_2	NA	NA	0	1	2.19203400612	None	None	None	None	1
3.0.1	2019_Mar_10_1455	s	s	5	4	SIC	133	1_1	1	1	2	3	23_2_3	1	2	1	0	0.952015161514	259.0	298.0	262.0	291.0	1
3.0.1	2019_Mar_10_1455	s	s	5	4	SIC	134	1_1	1	1	4	4	23_4_4	3	3	1	0	0.416157960892	-212.0	139.0	-203.0	142.0	1
3.0.1	2019_Mar_10_1455	s	s	5	4	SIC	135	ABS	0	0	4	1	24_4_1	NA	NA	0	1	1.82734489441	None	None	None	None	1
3.0.1	2019_Mar_10_1455	s	s	5	4	SIC	136	2_1	2	1	4	1	23_4_1	2	0	1	0	0.391584157944	301.0	389.0	309.0	389.0	1
3.0.1	2019_Mar_10_1455	s	s	5	4	SIC	137	ABS	0	0	3	2	24_3_2	NA	NA	0	1	3.86875200272	None	None	None	None	1
3.0.1	2019_Mar_10_1455	s	s	5	4	SIC	138	ABS	0	0	2	4	24_2_4	NA	NA	0	1	1.34344601631	None	None	None	None	1
3.0.1	2019_Mar_10_1455	s	s	5	4	SIC	139	2_2	2	2	1	2	23_1_2	-1	0	1	0	4.20137000084	457.0	-297.0	447.0	-297.0	1
3.0.1	2019_Mar_10_1455	s	s	5	4	SIC	140	ABS	0	0	3	2	24_3_2	NA	NA	0	1	2.10459780693	None	None	None	None	1
3.0.1	2019_Mar_10_1455	s	s	5	4	SIC	141	ABS	0	0	1	1	24_1_1	NA	NA	0	1	1.89312386513	None	None	None	None	1
3.0.1	2019_Mar_10_1455	s	s	5	4	SIC	142	ABS	0	0	3	4	24_3_4	NA	NA	0	1	1.21075296402	None	None	None	None	1
3.0.1	2019_Mar_10_1455	s	s	5	4	SIC	143	2_4	2	4	3	4	23_3_4	1	0	1	0	0.575585126877	-288.0	-173.0	-283.0	-165.0	1
3.0.1	2019_Mar_10_1455	s	s	5	4	SIC	144	2_1	2	1	3	3	23_3_3	1	2	1	0	0.790183067322	-411.0	-388.0	-414.0	-390.0	1
3.0.1	2019_Mar_10_1455	s	s	5	4	SIC	145	ABS	0	0	2	3	24_2_3	NA	NA	0	1	1.86254692078	None	None	None	None	1
3.0.1	2019_Mar_10_1455	s	s	5	4	SIC	146	ABS	0	0	1	1	24_1_1	NA	NA	0	1	2.24072480202	None	None	None	None	1
3.0.1	2019_Mar_10_1455	s	s	5	4	SIC	147	1_4	1	4	3	3	23_3_3	2	1	1	0	0.510379076004	184.0	333.0	174.0	337.0	1
3.0.1	2019_Mar_10_1455	s	s	5	4	SIC	148	ABS	0	0	4	4	24_4_4	NA	NA	0	1	0.716815948486	None	None	None	None	1
3.0.1	2019_Mar_10_1455	s	s	5	4	SIC	149	1_1	1	1	1	4	23_1_4	0	3	1	0	0.850028991699	-64.0	152.0	-65.0	153.0	1
3.0.1	2019_Mar_10_1455	s	s	5	4	SIC	150	3_3	3	3	1	2	23_1_2	2	1	1	0	0.496215105057	429.0	398.0	434.0	396.0	1
3.0.1	2019_Mar_10_1455	s	s	5	4	SIC	151	3_1	3	1	2	3	23_2_3	1	2	1	0	0.458014011383	-89.0	-232.0	-95.0	-237.0	1
3.0.1	2019_Mar_10_1455	s	s	5	4	SIC	152	ABS	0	0	1	4	24_1_4	NA	NA	0	1	1.6458761692	None	None	None	None	1
3.0.1	2019_Mar_10_1455	s	s	5	4	SIC	153	ABS	0	0	1	1	24_1_1	NA	NA	0	1	1.39373707771	None	None	None	None	1
3.0.1	2019_Mar_10_1455	s	s	5	4	SIC	154	1_3	1	3	3	3	23_3_3	2	0	1	0	0.657918930054	372.0	-213.0	372.0	-222.0	1
3.0.1	2019_Mar_10_1455	s	s	5	4	SIC	155	ABS	0	0	1	2	24_1_2	NA	NA	0	1	2.28753304482	None	None	None	None	1
3.0.1	2019_Mar_10_1455	s	s	5	4	SIC	156	ABS	0	0	1	4	24_1_4	NA	NA	0	1	0.987305164337	None	None	None	None	1
3.0.1	2019_Mar_10_1455	s	s	5	4	SIC	157	ABS	0	0	2	2	24_2_2	NA	NA	0	1	2.60382008553	None	None	None	None	1
3.0.1	2019_Mar_10_1455	s	s	5	4	SIC	158	3_4	3	4	3	3	23_3_3	0	1	1	0	1.31016087532	110.0	-343.0	111.0	-343.0	1
3.0.1	2019_Mar_10_1455	s	s	5	4	SIC	159	ABS	0	0	1	3	24_1_3	NA	NA	0	1	3.06285786629	None	None	None	None	1
3.0.1	2019_Mar_10_1455	s	s	5	4	SIC	160	2_4	2	4	3	3	23_3_3	1	1	1	0	0.592209100723	519.0	289.0	519.0	281.0	1
3.0.1	2019_Mar_10_1455	s	s	5	4	SIC	161	2_1	2	1	2	4	23_2_4	0	3	1	0	0.416236162186	-197.0	65.0	-200.0	66.0	1
3.0.1	2019_Mar_10_1455	s	s	5	4	SIC	162	ABS	0	0	2	4	24_2_4	NA	NA	0	1	1.64580893517	None	None	None	None	1
3.0.1	2019_Mar_10_1455	s	s	5	4	SIC	163	4_2	4	2	2	2	23_2_2	2	0	1	0	0.473544120789	-59.0	151.0	-63.0	154.0	1
3.0.1	2019_Mar_10_1455	s	s	5	4	SIC	164	ABS	0	0	3	1	24_3_1	NA	NA	0	1	1.66376304626	None	None	None	None	1
3.0.1	2019_Mar_10_1455	s	s	5	4	SIC	165	4_4	4	4	4	1	23_4_1	0	3	1	0	0.496167898178	511.0	-99.0	517.0	-96.0	1
3.0.1	2019_Mar_10_1455	s	s	5	4	SIC	166	3_4	3	4	4	1	23_4_1	-1	3	1	0	0.417346954346	398.0	296.0	395.0	295.0	1
3.0.1	2019_Mar_10_1455	s	s	5	4	SIC	167	1_1	1	1	4	1	23_4_1	3	0	1	0	0.352133989334	384.0	-158.0	392.0	-163.0	1
3.0.1	2019_Mar_10_1455	s	s	5	4	SIC	168	3_2	3	2	2	1	23_2_1	1	-1	1	0	0.602749109268	539.0	-309.0	542.0	-305.0	1
3.0.1	2019_Mar_10_1455	s	s	5	4	SIC	169	4_2	4	2	3	4	23_3_4	1	2	1	0	0.356804132462	-234.0	-38.0	-239.0	-42.0	1
3.0.1	2019_Mar_10_1455	s	s	5	4	SIC	170	3_3	3	3	3	2	23_3_2	0	1	1	0	1.79873394966	-9.0	-42.0	-12.0	-46.0	1
3.0.1	2019_Mar_10_1455	s	s	5	4	SIC	171	3_1	3	1	3	4	23_3_4	0	3	1	0	0.457973003387	-119.0	378.0	-131.0	379.0	1
3.0.1	2019_Mar_10_1455	s	s	5	4	SIC	172	4_2	4	2	3	3	23_3_3	1	1	1	0	0.378618955612	-298.0	-307.0	-299.0	-306.0	1
3.0.1	2019_Mar_10_1455	s	s	5	4	SIC	173	2_3	2	3	3	3	23_3_3	1	0	1	0	0.48162317276	236.0	63.0	231.0	65.0	1
3.0.1	2019_Mar_10_1455	s	s	5	4	SIC	174	1_1	1	1	1	3	23_1_3	0	2	1	0	2.68591022491	458.0	309.0	463.0	306.0	1
3.0.1	2019_Mar_10_1455	s	s	5	4	SIC	175	3_2	3	2	3	1	23_3_1	0	-1	1	0	1.49584698677	518.0	143.0	515.0	142.0	1
3.0.1	2019_Mar_10_1455	s	s	5	4	SIC	176	ABS	0	0	1	1	24_1_1	NA	NA	0	1	1.35697007179	None	None	None	None	1
3.0.1	2019_Mar_10_1455	s	s	5	4	SIC	177	ABS	0	0	3	3	24_3_3	NA	NA	0	1	2.8272061348	None	None	None	None	1
3.0.1	2019_Mar_10_1455	s	s	5	4	SIC	178	1_4	1	4	4	1	23_4_1	3	3	1	0	0.469786882401	-197.0	-214.0	-194.0	-212.0	1
3.0.1	2019_Mar_10_1455	s	s	5	4	SIC	179	1_1	1	1	2	1	23_2_1	1	0	1	0	1.38706803322	38.0	-43.0	32.0	-51.0	1
3.0.1	2019_Mar_10_1455	s	s	5	4	SIC	180	ABS	0	0	3	1	24_3_1	NA	NA	0	1	1.25776004791	None	None	None	None	1
3.0.1	2019_Mar_10_1455	s	s	5	4	SIC	181	3_3	3	3	1	1	23_1_1	2	2	1	0	0.743237018585	-367.0	-348.0	-358.0	-352.0	1
3.0.1	2019_Mar_10_1455	s	s	5	4	SIC	182	ABS	0	0	2	1	24_2_1	NA	NA	0	1	1.75167298317	None	None	None	None	1
3.0.1	2019_Mar_10_1455	s	s	5	4	SIC	183	3_4	3	4	1	3	23_1_3	2	1	1	0	0.437440872192	83.0	163.0	86.0	165.0	1
3.0.1	2019_Mar_10_1455	s	s	5	4	SIC	184	4_2	4	2	2	3	23_2_3	2	1	1	0	0.404519081116	97.0	-265.0	93.0	-265.0	1
3.0.1	2019_Mar_10_1455	s	s	5	4	SIC	185	ABS	0	0	1	2	24_1_2	NA	NA	0	1	2.63422417641	None	None	None	None	1
3.0.1	2019_Mar_10_1455	s	s	5	4	SIC	186	ABS	0	0	1	3	24_1_3	NA	NA	0	1	2.55868005753	None	None	None	None	1
3.0.1	2019_Mar_10_1455	s	s	5	4	SIC	187	ABS	0	0	3	4	24_3_4	NA	NA	0	1	0.863879919052	None	None	None	None	1
3.0.1	2019_Mar_10_1455	s	s	5	4	SIC	188	2_2	2	2	4	2	23_4_2	2	0	1	0	0.616716861725	209.0	-401.0	208.0	-405.0	1
3.0.1	2019_Mar_10_1455	s	s	5	4	SIC	189	1_2	1	2	4	1	23_4_1	3	-1	1	0	0.404576778412	61.0	-390.0	68.0	-382.0	1
3.0.1	2019_Mar_10_1455	s	s	5	4	SIC	190	3_1	3	1	3	2	23_3_2	0	1	0	1	2.31911683083	-113.0	-261.0	None	None	0
3.0.1	2019_Mar_10_1455	s	s	5	4	SIC	191	2_1	2	1	3	4	23_3_4	1	3	1	0	0.463162183762	490.0	36.0	492.0	34.0	1
3.0.1	2019_Mar_10_1455	s	s	5	4	SIC	192	ABS	0	0	2	1	24_2_1	NA	NA	0	1	0.98052406311	None	None	None	None	1
3.0.1	2019_Mar_10_1455	s	s	5	4	SIC	193	2_1	2	1	4	3	23_4_3	2	2	1	0	0.361434936523	448.0	-47.0	441.0	-51.0	1
3.0.1	2019_Mar_10_1455	s	s	5	4	SIC	194	1_2	1	2	3	3	23_3_3	2	1	1	0	0.378572940826	-158.0	271.0	-154.0	268.0	1
3.0.1	2019_Mar_10_1455	s	s	5	4	SIC	195	1_4	1	4	2	4	23_2_4	1	0	1	0	2.12124991417	-25.0	318.0	-23.0	318.0	1
3.0.1	2019_Mar_10_1455	s	s	5	4	SIC	196	ABS	0	0	3	1	24_3_1	NA	NA	0	1	1.34007787704	None	None	None	None	1
3.0.1	2019_Mar_10_1455	s	s	5	4	SIC	197	ABS	0	0	2	2	24_2_2	NA	NA	0	1	2.43681192398	None	None	None	None	1
3.0.1	2019_Mar_10_1455	s	s	5	4	SIC	198	4_2	4	2	1	4	23_1_4	3	2	1	0	0.575547933578	178.0	159.0	176.0	152.0	1
3.0.1	2019_Mar_10_1455	s	s	5	4	SIC	199	ABS	0	0	3	4	24_3_4	NA	NA	0	1	1.08423900604	None	None	None	None	1
3.0.1	2019_Mar_10_1455	s	s	5	4	SIC	200	ABS	0	0	1	4	24_1_4	NA	NA	0	1	1.52179098129	None	None	None	None	1
3.0.1	2019_Mar_10_1455	s	s	5	4	SIC	201	ABS	0	0	2	1	24_2_1	NA	NA	0	1	1.22244215012	None	None	None	None	1
3.0.1	2019_Mar_10_1455	s	s	5	4	SIC	202	1_3	1	3	1	1	23_1_1	0	2	1	0	0.840036869049	253.0	-281.0	259.0	-288.0	1
3.0.1	2019_Mar_10_1455	s	s	5	4	SIC	203	ABS	0	0	2	1	24_2_1	NA	NA	0	1	1.22247099876	None	None	None	None	1
3.0.1	2019_Mar_10_1455	s	s	5	4	SIC	204	1_3	1	3	4	1	23_4_1	3	2	1	0	0.401957988739	445.0	204.0	451.0	199.0	1
3.0.1	2019_Mar_10_1455	s	s	5	4	SIC	205	3_3	3	3	4	1	23_4_1	-1	2	1	0	0.358852863312	-131.0	-27.0	-136.0	-23.0	1
3.0.1	2019_Mar_10_1455	s	s	5	4	SIC	206	ABS	0	0	1	3	24_1_3	NA	NA	1	0	0.340378046036	None	None	212.0	162.0	0
3.0.1	2019_Mar_10_1455	s	s	5	4	SIC	207	2_2	2	2	1	1	23_1_1	-1	-1	1	0	0.893212080002	-97.0	327.0	-96.0	327.0	1
3.0.1	2019_Mar_10_1455	s	s	5	4	SIC	208	2_3	2	3	4	1	23_4_1	2	2	1	0	1.08427500725	254.0	-310.0	247.0	-309.0	1
3.0.1	2019_Mar_10_1455	s	s	5	4	SIC	209	4_3	4	3	1	3	23_1_3	3	0	1	0	0.451294183731	534.0	-347.0	531.0	-348.0	1
3.0.1	2019_Mar_10_1455	s	s	5	4	SIC	210	4_2	4	2	3	2	23_3_2	1	0	1	0	0.353979110718	-26.0	89.0	-20.0	89.0	1
3.0.1	2019_Mar_10_1455	s	s	5	4	SIC	211	ABS	0	0	4	1	24_4_1	NA	NA	0	1	1.57555603981	None	None	None	None	1
3.0.1	2019_Mar_10_1455	s	s	5	4	SIC	212	3_1	3	1	1	3	23_1_3	2	2	1	0	0.446705102921	-8.0	-105.0	3.0	-105.0	1
3.0.1	2019_Mar_10_1455	s	s	5	4	SIC	213	ABS	0	0	3	2	24_3_2	NA	NA	0	1	2.67387700081	None	None	None	None	1
3.0.1	2019_Mar_10_1455	s	s	5	4	SIC	214	1_1	1	1	1	2	23_1_2	0	1	1	0	1.82602286339	-499.0	-198.0	-496.0	-198.0	1
3.0.1	2019_Mar_10_1455	s	s	5	4	SIC	215	3_1	3	1	1	2	23_1_2	2	1	1	0	0.580482006073	219.0	-350.0	222.0	-348.0	1
3.0.1	2019_Mar_10_1455	s	s	5	4	SIC	216	ABS	0	0	1	3	24_1_3	NA	NA	0	1	3.4970998764	None	None	None	None	1
3.0.1	2019_Mar_10_1455	s	s	5	4	SIC	217	ABS	0	0	3	1	24_3_1	NA	NA	0	1	1.63945603371	None	None	None	None	1
3.0.1	2019_Mar_10_1455	s	s	5	4	SIC	218	3_2	3	2	3	4	23_3_4	0	2	1	0	0.602071046829	-392.0	-381.0	-379.0	-375.0	1
3.0.1	2019_Mar_10_1455	s	s	5	4	SIC	219	2_2	2	2	3	2	23_3_2	1	0	1	0	0.791246891022	372.0	-259.0	374.0	-263.0	1
3.0.1	2019_Mar_10_1455	s	s	5	4	SIC	220	ABS	0	0	3	2	24_3_2	NA	NA	0	1	2.05082297325	None	None	None	None	1
3.0.1	2019_Mar_10_1455	s	s	5	4	SIC	221	2_3	2	3	3	4	23_3_4	1	-1	1	0	0.587326049805	175.0	341.0	178.0	339.0	1
3.0.1	2019_Mar_10_1455	s	s	5	4	SIC	222	2_4	2	4	1	2	23_1_2	-1	2	1	0	0.473904132843	55.0	26.0	58.0	24.0	1
3.0.1	2019_Mar_10_1455	s	s	5	4	SIC	223	2_3	2	3	2	4	23_2_4	0	-1	1	0	0.528506994247	-321.0	267.0	-324.0	271.0	1
3.0.1	2019_Mar_10_1455	s	s	5	4	SIC	224	2_1	2	1	3	1	23_3_1	1	0	1	0	0.563862085342	332.0	-352.0	323.0	-348.0	1
3.0.1	2019_Mar_10_1455	s	s	5	4	SIC	225	4_4	4	4	1	4	23_1_4	3	0	1	0	0.404012918472	-78.0	-238.0	-72.0	-244.0	1
3.0.1	2019_Mar_10_1455	s	s	5	4	SIC	226	ABS	0	0	1	4	24_1_4	NA	NA	0	1	1.11666083336	None	None	None	None	1
3.0.1	2019_Mar_10_1455	s	s	5	4	SIC	227	ABS	0	0	1	4	24_1_4	NA	NA	0	1	2.01043391228	None	None	None	None	1
3.0.1	2019_Mar_10_1455	s	s	5	4	SIC	228	3_2	3	2	4	3	23_4_3	-1	1	1	0	0.429145097733	-344.0	49.0	-348.0	45.0	1
3.0.1	2019_Mar_10_1455	s	s	5	4	SIC	229	1_1	1	1	2	4	23_2_4	1	3	1	0	0.446223974228	338.0	267.0	338.0	263.0	1
3.0.1	2019_Mar_10_1455	s	s	5	4	SIC	230	1_4	1	4	3	2	23_3_2	2	2	1	0	0.486004114151	246.0	-239.0	245.0	-236.0	1
3.0.1	2019_Mar_10_1455	s	s	5	4	SIC	231	ABS	0	0	1	2	24_1_2	NA	NA	0	1	5.08023309708	None	None	None	None	1
3.0.1	2019_Mar_10_1455	s	s	5	4	SIC	232	ABS	0	0	4	1	24_4_1	NA	NA	0	1	1.48605108261	None	None	None	None	1
3.0.1	2019_Mar_10_1455	s	s	5	4	SIC	233	3_2	3	2	3	3	23_3_3	0	1	0	1	2.39857411385	-519.0	301.0	None	None	0
3.0.1	2019_Mar_10_1455	s	s	5	4	SIC	234	ABS	0	0	2	4	24_2_4	NA	NA	0	1	2.23884415627	None	None	None	None	1
3.0.1	2019_Mar_10_1455	s	s	5	4	SIC	235	ABS	0	0	1	2	24_1_2	NA	NA	0	1	4.09745788574	None	None	None	None	1
3.0.1	2019_Mar_10_1455	s	s	5	4	SIC	236	4_4	4	4	1	1	23_1_1	3	3	1	0	0.427062988281	326.0	-84.0	326.0	-83.0	1
3.0.1	2019_Mar_10_1455	s	s	5	4	SIC	237	1_3	1	3	3	2	23_3_2	2	1	1	0	0.532593011856	153.0	348.0	155.0	347.0	1
3.0.1	2019_Mar_10_1455	s	s	5	4	SIC	238	ABS	0	0	2	1	24_2_1	NA	NA	0	1	1.06377792358	None	None	None	None	1
3.0.1	2019_Mar_10_1455	s	s	5	4	SIC	239	ABS	0	0	3	1	24_3_1	NA	NA	0	1	1.40332007408	None	None	None	None	1
3.0.1	2019_Mar_10_1455	s	s	5	4	SIC	240	ABS	0	0	1	4	24_1_4	NA	NA	0	1	1.11667513847	None	None	None	None	1
3.0.1	2019_Mar_10_1455	s	s	5	4	SIC	241	ABS	0	0	1	4	24_1_4	NA	NA	0	1	1.97556805611	None	None	None	None	1
3.0.1	2019_Mar_10_1455	s	s	5	4	SIC	242	4_2	4	2	1	1	23_1_1	3	-1	1	0	0.392709970474	249.0	-103.0	252.0	-110.0	1
3.0.1	2019_Mar_10_1455	s	s	5	4	SIC	243	2_1	2	1	2	2	23_2_2	0	1	0	1	2.41029191017	-245.0	132.0	None	None	0
3.0.1	2019_Mar_10_1455	s	s	5	4	SIC	244	ABS	0	0	4	4	24_4_4	NA	NA	0	1	1.59091496468	None	None	None	None	1
3.0.1	2019_Mar_10_1455	s	s	5	4	SIC	245	3_3	3	3	4	3	23_4_3	-1	0	1	0	0.519804000854	238.0	-248.0	237.0	-244.0	1
3.0.1	2019_Mar_10_1455	s	s	5	4	SIC	246	3_4	3	4	2	2	23_2_2	1	2	1	0	0.422799110413	193.0	65.0	189.0	69.0	1
3.0.1	2019_Mar_10_1455	s	s	5	4	SIC	247	ABS	0	0	1	2	24_1_2	NA	NA	0	1	3.69713616371	None	None	None	None	1
3.0.1	2019_Mar_10_1455	s	s	5	4	SIC	248	ABS	0	0	3	2	24_3_2	NA	NA	0	1	2.58367204666	None	None	None	None	1
3.0.1	2019_Mar_10_1455	s	s	5	4	SIC	249	ABS	0	0	3	2	24_3_2	NA	NA	0	1	1.70471715927	None	None	None	None	1
3.0.1	2019_Mar_10_1455	s	s	5	4	SIC	250	ABS	0	0	1	1	24_1_1	NA	NA	0	1	1.70970606804	None	None	None	None	1
3.0.1	2019_Mar_10_1455	s	s	5	4	SIC	251	ABS	0	0	2	2	24_2_2	NA	NA	0	1	3.5107729435	None	None	None	None	1
3.0.1	2019_Mar_10_1455	s	s	5	4	SIC	252	ABS	0	0	2	2	24_2_2	NA	NA	0	1	2.8856151104	None	None	None	None	1
3.0.1	2019_Mar_10_1455	s	s	5	4	SIC	253	2_1	2	1	1	1	23_1_1	-1	0	0	1	1.09695601463	-472.0	-97.0	None	None	0
3.0.1	2019_Mar_10_1455	s	s	5	4	SIC	254	ABS	0	0	1	3	24_1_3	NA	NA	0	1	2.65026092529	None	None	None	None	1
3.0.1	2019_Mar_10_1455	s	s	5	4	SIC	255	ABS	0	0	1	4	24_1_4	NA	NA	0	1	1.49591994286	None	None	None	None	1
3.0.1	2019_Mar_10_1455	s	s	5	4	SIC	256	ABS	0	0	1	2	24_1_2	NA	NA	0	1	3.95110797882	None	None	None	None	1
3.0.1	2019_Mar_10_1455	s	s	5	4	SIC	257	1_2	1	2	2	1	23_2_1	1	-1	1	0	0.810889005661	351.0	105.0	350.0	104.0	1
3.0.1	2019_Mar_10_1455	s	s	5	4	SIC	258	1_2	1	2	4	2	23_4_2	3	0	1	0	0.380753993988	486.0	398.0	489.0	391.0	1
3.0.1	2019_Mar_10_1455	s	s	5	4	SIC	259	ABS	0	0	3	4	24_3_4	NA	NA	0	1	1.24600100517	None	None	None	None	1
3.0.1	2019_Mar_10_1455	s	s	5	4	SIC	260	3_1	3	1	2	2	23_2_2	1	1	1	0	0.481523036957	-480.0	37.0	-473.0	36.0	1
3.0.1	2019_Mar_10_1455	s	s	5	4	SIC	261	ABS	0	0	1	2	24_1_2	NA	NA	0	1	3.15690088272	None	None	None	None	1
3.0.1	2019_Mar_10_1455	s	s	5	4	SIC	262	1_2	1	2	1	3	23_1_3	0	1	1	0	2.7778069973	-117.0	120.0	-115.0	123.0	1
3.0.1	2019_Mar_10_1455	s	s	5	4	SIC	263	1_2	1	2	4	4	23_4_4	3	2	1	0	0.463315010071	-222.0	-391.0	-220.0	-398.0	1
3.0.1	2019_Mar_10_1455	s	s	5	4	SIC	264	ABS	0	0	4	2	24_4_2	NA	NA	0	1	3.78931617737	None	None	None	None	1
3.0.1	2019_Mar_10_1455	s	s	5	4	SIC	265	4_3	4	3	3	2	23_3_2	1	1	1	0	0.469753980637	-439.0	-319.0	-431.0	-325.0	1
3.0.1	2019_Mar_10_1455	s	s	5	4	SIC	266	2_4	2	4	1	4	23_1_4	-1	0	0	1	1.52823996544	-92.0	213.0	None	None	0
3.0.1	2019_Mar_10_1455	s	s	5	4	SIC	267	ABS	0	0	3	3	24_3_3	NA	NA	0	1	2.44991993904	None	None	None	None	1
3.0.1	2019_Mar_10_1455	s	s	5	4	SIC	268	ABS	0	0	2	2	24_2_2	NA	NA	0	1	3.75969409943	None	None	None	None	1
3.0.1	2019_Mar_10_1455	s	s	5	4	SIC	269	4_4	4	4	3	1	23_3_1	1	3	1	0	0.43733716011	362.0	-231.0	368.0	-227.0	1
3.0.1	2019_Mar_10_1455	s	s	5	4	SIC	270	1_4	1	4	4	4	23_4_4	3	0	1	0	0.399175882339	-526.0	-364.0	-525.0	-359.0	1
3.0.1	2019_Mar_10_1455	s	s	5	4	SIC	271	ABS	0	0	1	1	24_1_1	NA	NA	0	1	1.78161096573	None	None	None	None	1
3.0.1	2019_Mar_10_1455	s	s	5	4	SIC	272	ABS	0	0	2	2	24_2_2	NA	NA	0	1	3.4688680172	None	None	None	None	1
3.0.1	2019_Mar_10_1455	s	s	5	4	SIC	273	3_4	3	4	4	2	23_4_2	-1	2	1	0	0.658318042755	458.0	383.0	456.0	382.0	1
3.0.1	2019_Mar_10_1455	s	s	5	4	SIC	274	ABS	0	0	3	2	24_3_2	NA	NA	0	1	2.3633248806	None	None	None	None	1
3.0.1	2019_Mar_10_1455	s	s	5	4	SIC	275	ABS	0	0	2	3	24_2_3	NA	NA	0	1	3.49250602722	None	None	None	None	1
3.0.1	2019_Mar_10_1455	s	s	5	4	SIC	276	ABS	0	0	1	3	24_1_3	NA	NA	0	1	1.80766892433	None	None	None	None	1
3.0.1	2019_Mar_10_1455	s	s	5	4	SIC	277	4_3	4	3	4	2	23_4_2	0	1	0	1	2.57502102852	369.0	362.0	None	None	0
3.0.1	2019_Mar_10_1455	s	s	5	4	SIC	278	1_4	1	4	2	3	23_2_3	1	1	1	0	0.887813091278	474.0	-151.0	477.0	-151.0	1
3.0.1	2019_Mar_10_1455	s	s	5	4	SIC	279	ABS	0	0	3	3	24_3_3	NA	NA	0	1	4.09688591957	None	None	None	None	1
3.0.1	2019_Mar_10_1455	s	s	5	4	SIC	280	ABS	0	0	1	1	24_1_1	NA	NA	0	1	1.92857503891	None	None	None	None	1
3.0.1	2019_Mar_10_1455	s	s	5	4	SIC	281	1_2	1	2	3	1	23_3_1	2	-1	1	0	0.427835941315	79.0	179.0	86.0	181.0	1
3.0.1	2019_Mar_10_1455	s	s	5	4	SIC	282	1_3	1	3	2	4	23_2_4	1	-1	1	0	0.575579881668	74.0	-224.0	69.0	-216.0	1
3.0.1	2019_Mar_10_1455	s	s	5	4	SIC	283	ABS	0	0	2	3	24_2_3	NA	NA	0	1	2.70837712288	None	None	None	None	1
3.0.1	2019_Mar_10_1455	s	s	5	4	SIC	284	4_1	4	1	2	3	23_2_3	2	2	1	0	0.422767877579	352.0	396.0	345.0	395.0	1
3.0.1	2019_Mar_10_1455	s	s	5	4	SIC	285	ABS	0	0	2	3	24_2_3	NA	NA	0	1	3.15129899979	None	None	None	None	1
3.0.1	2019_Mar_10_1455	s	s	5	4	SIC	286	ABS	0	0	3	3	24_3_3	NA	NA	0	1	2.05751490593	None	None	None	None	1
3.0.1	2019_Mar_10_1455	s	s	5	4	SIC	287	4_2	4	2	4	4	23_4_4	0	2	1	0	0.587429046631	283.0	-317.0	274.0	-319.0	1
3.0.1	2019_Mar_10_1455	s	s	5	4	SIC	288	ABS	0	0	1	4	24_1_4	NA	NA	0	1	1.1636929512	None	None	None	None	1
3.0.1	2019_Mar_10_1455	s	s	5	4	SIC	289	4_4	4	4	1	3	23_1_3	3	1	1	0	0.422801017761	-331.0	-48.0	-330.0	-41.0	1
3.0.1	2019_Mar_10_1455	s	s	5	4	SIC	290	ABS	0	0	3	2	24_3_2	NA	NA	0	1	1.1216609478	None	None	None	None	1
3.0.1	2019_Mar_10_1455	s	s	5	4	SIC	291	ABS	0	0	4	2	24_4_2	NA	NA	0	1	1.96628689766	None	None	None	None	1
3.0.1	2019_Mar_10_1455	s	s	5	4	SIC	292	3_2	3	2	1	4	23_1_4	2	2	1	0	0.475272893906	224.0	-57.0	215.0	-57.0	1
3.0.1	2019_Mar_10_1455	s	s	5	4	SIC	293	1_4	1	4	4	3	23_4_3	3	1	1	0	0.391461133957	-375.0	42.0	-367.0	44.0	1
3.0.1	2019_Mar_10_1455	s	s	5	4	SIC	294	ABS	0	0	3	1	24_3_1	NA	NA	0	1	1.58097815514	None	None	None	None	1
3.0.1	2019_Mar_10_1455	s	s	5	4	SIC	295	ABS	0	0	4	2	24_4_2	NA	NA	0	1	1.65072512627	None	None	None	None	1
3.0.1	2019_Mar_10_1455	s	s	5	4	SIC	296	3_1	3	1	1	1	23_1_1	2	0	1	0	0.469784975052	17.0	-220.0	15.0	-217.0	1
3.0.1	2019_Mar_10_1455	s	s	5	4	SIC	297	1_4	1	4	1	3	23_1_3	0	1	1	0	0.810813903809	-459.0	309.0	-457.0	311.0	1
3.0.1	2019_Mar_10_1455	s	s	5	4	SIC	298	1_2	1	2	3	2	23_3_2	2	0	1	0	0.540336847305	-333.0	-314.0	-338.0	-311.0	1
3.0.1	2019_Mar_10_1455	s	s	5	4	SIC	299	ABS	0	0	1	2	24_1_2	NA	NA	0	1	4.39074397087	None	None	None	None	1
3.0.1	2019_Mar_10_1455	s	s	5	4	SIC	300	ABS	0	0	2	3	24_2_3	NA	NA	0	1	3.14241909981	None	None	None	None	1
3.0.1	2019_Mar_10_1455	s	s	5	4	SIC	301	ABS	0	0	4	1	24_4_1	NA	NA	0	1	1.49584412575	None	None	None	None	1
3.0.1	2019_Mar_10_1455	s	s	5	4	SIC	302	1_3	1	3	1	2	23_1_2	0	1	1	0	0.450797796249	-120.0	-20.0	-121.0	-15.0	1
3.0.1	2019_Mar_10_1455	s	s	5	4	SIC	303	ABS	0	0	2	4	24_2_4	NA	NA	0	1	1.14304900169	None	None	None	None	1
3.0.1	2019_Mar_10_1455	s	s	5	4	SIC	304	1_3	1	3	2	2	23_2_2	1	1	1	0	1.45770192146	142.0	-8.0	149.0	-9.0	1
3.0.1	2019_Mar_10_1455	s	s	5	4	SIC	305	ABS	0	0	3	1	24_3_1	NA	NA	0	1	0.799046993256	None	None	None	None	1
3.0.1	2019_Mar_10_1455	s	s	5	4	SIC	306	3_2	3	2	1	2	23_1_2	2	0	1	0	0.593023061752	-264.0	-38.0	-260.0	-34.0	1
3.0.1	2019_Mar_10_1455	s	s	5	4	SIC	307	4_4	4	4	4	2	23_4_2	0	2	1	0	0.602082014084	-106.0	-26.0	-105.0	-30.0	1
3.0.1	2019_Mar_10_1455	s	s	5	4	SIC	308	1_1	1	1	3	4	23_3_4	2	3	1	0	0.41094493866	-109.0	360.0	-116.0	360.0	1
3.0.1	2019_Mar_10_1455	s	s	5	4	SIC	309	ABS	0	0	2	4	24_2_4	NA	NA	0	1	0.999018907547	None	None	None	None	1
3.0.1	2019_Mar_10_1455	s	s	5	4	SIC	310	2_3	2	3	4	3	23_4_3	2	0	1	0	0.41098690033	-349.0	305.0	-350.0	303.0	1
3.0.1	2019_Mar_10_1455	s	s	5	4	SIC	311	ABS	0	0	4	3	24_4_3	NA	NA	0	1	3.49232578278	None	None	None	None	1
3.0.1	2019_Mar_10_1455	s	s	5	4	SIC	312	3_4	3	4	2	1	23_2_1	1	3	1	0	0.481548070908	301.0	-271.0	299.0	-277.0	1
3.0.1	2019_Mar_10_1455	s	s	5	4	SIC	313	ABS	0	0	2	1	24_2_1	NA	NA	0	1	1.14910817146	None	None	None	None	1
3.0.1	2019_Mar_10_1455	s	s	5	4	SIC	314	ABS	0	0	4	1	24_4_1	NA	NA	0	1	1.11155200005	None	None	None	None	1
3.0.1	2019_Mar_10_1455	s	s	5	4	SIC	315	1_3	1	3	1	4	23_1_4	0	-1	1	0	0.745902061462	506.0	166.0	507.0	162.0	1
3.0.1	2019_Mar_10_1455	s	s	5	4	SIC	316	ABS	0	0	4	3	24_4_3	NA	NA	0	1	1.90755200386	None	None	None	None	1
3.0.1	2019_Mar_10_1455	s	s	5	4	SIC	317	ABS	0	0	1	3	24_1_3	NA	NA	0	1	2.63879799843	None	None	None	None	1
3.0.1	2019_Mar_10_1455	s	s	5	4	SIC	318	ABS	0	0	2	1	24_2_1	NA	NA	0	1	2.52801394463	None	None	None	None	1
3.0.1	2019_Mar_10_1455	s	s	5	4	SIC	319	ABS	0	0	3	1	24_3_1	NA	NA	0	1	1.47479295731	None	None	None	None	1
3.0.1	2019_Mar_10_1455	s	s	5	4	SIC	320	ABS	0	0	2	2	24_2_2	NA	NA	0	1	2.77503013611	None	None	None	None	1
3.0.1	2019_Mar_10_1455	s	s	5	4	SIC	321	ABS	0	0	1	2	24_1_2	NA	NA	0	1	2.76355886459	None	None	None	None	1
3.0.1	2019_Mar_10_1455	s	s	5	4	SIC	322	ABS	0	0	2	3	24_2_3	NA	NA	0	1	3.49529600143	None	None	None	None	1
3.0.1	2019_Mar_10_1455	s	s	5	4	SIC	323	ABS	0	0	4	2	24_4_2	NA	NA	0	1	3.78642702103	None	None	None	None	1
3.0.1	2019_Mar_10_1455	s	s	5	4	SIC	324	2_1	2	1	4	2	23_4_2	2	1	1	0	0.474310159683	306.0	91.0	301.0	92.0	1
3.0.1	2019_Mar_10_1455	s	s	5	4	SIC	325	3_1	3	1	4	3	23_4_3	-1	2	1	0	0.399183034897	79.0	13.0	71.0	19.0	1
3.0.1	2019_Mar_10_1455	s	s	5	4	SIC	326	ABS	0	0	3	1	24_3_1	NA	NA	0	1	1.82758498192	None	None	None	None	1
3.0.1	2019_Mar_10_1455	s	s	5	4	SIC	327	4_1	4	1	4	2	23_4_2	0	1	1	0	1.56802892685	-490.0	-229.0	-486.0	-227.0	1
3.0.1	2019_Mar_10_1455	s	s	5	4	SIC	328	ABS	0	0	4	4	24_4_4	NA	NA	0	1	1.52825522423	None	None	None	None	1
3.0.1	2019_Mar_10_1455	s	s	5	4	SIC	329	ABS	0	0	3	3	24_3_3	NA	NA	0	1	4.20093107224	None	None	None	None	1
3.0.1	2019_Mar_10_1455	s	s	5	4	SIC	330	2_1	2	1	4	4	23_4_4	2	3	1	0	0.410964012146	-162.0	369.0	-163.0	375.0	1
3.0.1	2019_Mar_10_1455	s	s	5	4	SIC	331	ABS	0	0	2	1	24_2_1	NA	NA	0	1	1.11656093597	None	None	None	None	1
3.0.1	2019_Mar_10_1455	s	s	5	4	SIC	332	ABS	0	0	1	1	24_1_1	NA	NA	0	1	1.41059589386	None	None	None	None	1
3.0.1	2019_Mar_10_1455	s	s	5	4	SIC	333	ABS	0	0	3	4	24_3_4	NA	NA	0	1	1.69583296776	None	None	None	None	1
3.0.1	2019_Mar_10_1455	s	s	5	4	SIC	334	1_3	1	3	2	3	23_2_3	1	0	1	0	1.18200302124	-316.0	127.0	-312.0	129.0	1
3.0.1	2019_Mar_10_1455	s	s	5	4	SIC	335	ABS	0	0	4	1	24_4_1	NA	NA	0	1	0.775751829147	None	None	None	None	1
3.0.1	2019_Mar_10_1455	s	s	5	4	SIC	336	ABS	0	0	2	2	24_2_2	NA	NA	0	1	4.80960512161	None	None	None	None	1
3.0.1	2019_Mar_10_1455	s	s	5	4	SIC	337	ABS	0	0	1	2	24_1_2	NA	NA	0	1	2.95661401749	None	None	None	None	1
3.0.1	2019_Mar_10_1455	s	s	5	4	SIC	338	1_1	1	1	2	2	23_2_2	1	1	1	0	1.30487918854	198.0	-125.0	196.0	-128.0	1
3.0.1	2019_Mar_10_1455	s	s	5	4	SIC	339	1_3	1	3	3	1	23_3_1	2	2	1	0	0.46972990036	204.0	-26.0	201.0	-24.0	1
3.0.1	2019_Mar_10_1455	s	s	5	4	SIC	340	4_2	4	2	1	2	23_1_2	3	0	1	0	0.378533124924	481.0	266.0	486.0	262.0	1
3.0.1	2019_Mar_10_1455	s	s	5	4	SIC	341	ABS	0	0	2	4	24_2_4	NA	NA	0	1	1.72819590569	None	None	None	None	1
3.0.1	2019_Mar_10_1455	s	s	5	4	SIC	342	4_1	4	1	4	3	23_4_3	0	2	1	0	0.874084949493	53.0	311.0	57.0	299.0	1
3.0.1	2019_Mar_10_1455	s	s	5	4	SIC	343	ABS	0	0	4	2	24_4_2	NA	NA	0	1	3.32512187958	None	None	None	None	1
3.0.1	2019_Mar_10_1455	s	s	5	4	SIC	344	4_3	4	3	2	3	23_2_3	2	0	1	0	0.48152089119	314.0	-196.0	308.0	-199.0	1
3.0.1	2019_Mar_10_1455	s	s	5	4	SIC	345	2_2	2	2	4	3	23_4_3	2	1	1	0	0.422883987427	347.0	-39.0	350.0	-40.0	1
3.0.1	2019_Mar_10_1455	s	s	5	4	SIC	346	2_3	2	3	1	1	23_1_1	-1	2	1	0	0.580426931381	-181.0	61.0	-177.0	53.0	1
3.0.1	2019_Mar_10_1455	s	s	5	4	SIC	347	4_1	4	1	2	2	23_2_2	2	1	1	0	0.634398937225	177.0	-405.0	177.0	-407.0	1
3.0.1	2019_Mar_10_1455	s	s	5	4	SIC	348	ABS	0	0	1	3	24_1_3	NA	NA	0	1	3.15657091141	None	None	None	None	1
3.0.1	2019_Mar_10_1455	s	s	5	4	SIC	349	2_2	2	2	4	4	23_4_4	2	2	1	0	0.496258974075	-477.0	-390.0	-478.0	-389.0	1
3.0.1	2019_Mar_10_1455	s	s	5	4	SIC	350	4_3	4	3	2	1	23_2_1	2	2	1	0	0.469975948334	-316.0	310.0	-315.0	311.0	1
3.0.1	2019_Mar_10_1455	s	s	5	4	SIC	351	ABS	0	0	4	1	24_4_1	NA	NA	0	1	1.06962013245	None	None	None	None	1
3.0.1	2019_Mar_10_1455	s	s	5	4	SIC	352	3_3	3	3	2	3	23_2_3	1	0	1	0	0.469738006592	-9.0	52.0	-14.0	48.0	1
3.0.1	2019_Mar_10_1455	s	s	5	4	SIC	353	2_4	2	4	3	2	23_3_2	1	2	1	0	0.45800113678	-258.0	249.0	-262.0	241.0	1
3.0.1	2019_Mar_10_1455	s	s	5	4	SIC	354	2_2	2	2	4	1	23_4_1	2	-1	1	0	0.430442094803	520.0	388.0	528.0	391.0	1
3.0.1	2019_Mar_10_1455	s	s	5	4	SIC	355	1_3	1	3	4	4	23_4_4	3	-1	1	0	0.357214927673	-394.0	271.0	-403.0	272.0	1
3.0.1	2019_Mar_10_1455	s	s	5	4	SIC	356	ABS	0	0	4	2	24_4_2	NA	NA	0	1	2.18692493439	None	None	None	None	1
3.0.1	2019_Mar_10_1455	s	s	5	4	SIC	357	ABS	0	0	3	3	24_3_3	NA	NA	0	1	2.81287288666	None	None	None	None	1
3.0.1	2019_Mar_10_1455	s	s	5	4	SIC	358	ABS	0	0	3	3	24_3_3	NA	NA	0	1	3.14251589775	None	None	None	None	1
3.0.1	2019_Mar_10_1455	s	s	5	4	SIC	359	ABS	0	0	1	2	24_1_2	NA	NA	0	1	4.21418309212	None	None	None	None	1
3.0.1	2019_Mar_10_1455	s	s	5	4	SIC	360	ABS	0	0	2	1	24_2_1	NA	NA	0	1	2.6033551693	None	None	None	None	1
3.0.1	2019_Mar_10_1455	s	s	5	4	SIC	361	ABS	0	0	2	1	24_2_1	NA	NA	0	1	0.987240076065	None	None	None	None	1
3.0.1	2019_Mar_10_1455	s	s	5	4	SIC	362	ABS	0	0	2	4	24_2_4	NA	NA	0	1	1.92813110352	None	None	None	None	1
3.0.1	2019_Mar_10_1455	s	s	5	4	SIC	363	1_2	1	2	2	3	23_2_3	1	1	1	0	1.32864713669	365.0	323.0	372.0	331.0	1
3.0.1	2019_Mar_10_1455	s	s	5	4	SIC	364	ABS	0	0	1	4	24_1_4	NA	NA	0	1	1.08419704437	None	None	None	None	1
3.0.1	2019_Mar_10_1455	s	s	5	4	SIC	365	ABS	0	0	2	3	24_2_3	NA	NA	0	1	2.99832701683	None	None	None	None	1
3.0.1	2019_Mar_10_1455	s	s	5	4	SIC	366	3_1	3	1	4	4	23_4_4	-1	3	1	0	0.599122047424	142.0	-167.0	143.0	-163.0	1
3.0.1	2019_Mar_10_1455	s	s	5	4	SIC	367	ABS	0	0	4	3	24_4_3	NA	NA	0	1	2.39865493774	None	None	None	None	1
3.0.1	2019_Mar_10_1455	s	s	5	4	SIC	368	ABS	0	0	4	1	24_4_1	NA	NA	0	1	1.14965605736	None	None	None	None	1
3.0.1	2019_Mar_10_1455	s	s	5	4	SIC	369	ABS	0	0	3	1	24_3_1	NA	NA	0	1	1.23423194885	None	None	None	None	1
3.0.1	2019_Mar_10_1455	s	s	5	4	SIC	370	ABS	0	0	4	2	24_4_2	NA	NA	0	1	2.26766395569	None	None	None	None	1
3.0.1	2019_Mar_10_1455	s	s	5	4	SIC	371	4_3	4	3	2	2	23_2_2	2	1	1	0	0.410869121552	-274.0	377.0	-269.0	369.0	1
3.0.1	2019_Mar_10_1455	s	s	5	4	SIC	372	1_3	1	3	4	2	23_4_2	3	1	1	0	0.422809839249	422.0	-379.0	427.0	-384.0	1
3.0.1	2019_Mar_10_1455	s	s	5	4	SIC	373	3_1	3	1	4	2	23_4_2	-1	1	1	0	0.378614902496	-205.0	307.0	-195.0	310.0	1
3.0.1	2019_Mar_10_1455	s	s	5	4	SIC	374	1_2	1	2	1	1	23_1_1	0	-1	0	1	1.48122501373	290.0	-245.0	None	None	0
3.0.1	2019_Mar_10_1455	s	s	5	4	SIC	375	4_2	4	2	1	3	23_1_3	3	1	1	0	0.780596017838	-67.0	-362.0	-67.0	-363.0	1
3.0.1	2019_Mar_10_1455	s	s	5	4	SIC	376	ABS	0	0	4	2	24_4_2	NA	NA	0	1	3.41006708145	None	None	None	None	1
3.0.1	2019_Mar_10_1455	s	s	5	4	SIC	377	3_4	3	4	4	4	23_4_4	-1	0	1	0	0.496433019638	511.0	-172.0	513.0	-171.0	1
3.0.1	2019_Mar_10_1455	s	s	5	4	SIC	378	ABS	0	0	2	2	24_2_2	NA	NA	0	1	3.02479791641	None	None	None	None	1
3.0.1	2019_Mar_10_1455	s	s	5	4	SIC	379	ABS	0	0	4	2	24_4_2	NA	NA	0	1	3.17482686043	None	None	None	None	1
3.0.1	2019_Mar_10_1455	s	s	5	4	SIC	380	3_4	3	4	1	2	23_1_2	2	2	1	0	0.622658014297	-528.0	328.0	-538.0	327.0	1
3.0.1	2019_Mar_10_1455	s	s	5	4	SIC	381	ABS	0	0	4	3	24_4_3	NA	NA	0	1	2.75137710571	None	None	None	None	1
3.0.1	2019_Mar_10_1455	s	s	5	4	SIC	382	ABS	0	0	2	4	24_2_4	NA	NA	0	1	1.13133502007	None	None	None	None	1
3.0.1	2019_Mar_10_1455	s	s	5	4	SIC	383	ABS	0	0	3	3	24_3_3	NA	NA	0	1	2.92786002159	None	None	None	None	1
3.0.1	2019_Mar_10_1455	s	s	5	4	SIC	384	ABS	0	0	3	4	24_3_4	NA	NA	0	1	1.09740900993	None	None	None	None	1
3.0.1	2019_Mar_10_1455	s	s	5	4	SIC	385	1_3	1	3	2	1	23_2_1	1	2	1	0	0.710062980652	-257.0	291.0	-252.0	286.0	1
3.0.1	2019_Mar_10_1455	s	s	5	4	SIC	386	ABS	0	0	1	3	24_1_3	NA	NA	0	1	2.10445404053	None	None	None	None	1
3.0.1	2019_Mar_10_1455	s	s	5	4	SIC	387	4_4	4	4	2	2	23_2_2	2	2	1	0	0.399239063263	-291.0	-279.0	-301.0	-280.0	1
3.0.1	2019_Mar_10_1455	s	s	5	4	SIC	388	ABS	0	0	1	2	24_1_2	NA	NA	0	1	3.08359003067	None	None	None	None	1
3.0.1	2019_Mar_10_1455	s	s	5	4	SIC	389	ABS	0	0	3	3	24_3_3	NA	NA	0	1	2.98666095734	None	None	None	None	1
3.0.1	2019_Mar_10_1455	s	s	5	4	SIC	390	ABS	0	0	2	1	24_2_1	NA	NA	0	1	1.54010105133	None	None	None	None	1
3.0.1	2019_Mar_10_1455	s	s	5	4	SIC	391	ABS	0	0	2	2	24_2_2	NA	NA	0	1	3.58643102646	None	None	None	None	1
3.0.1	2019_Mar_10_1455	s	s	5	4	SIC	392	ABS	0	0	1	2	24_1_2	NA	NA	0	1	2.77781391144	None	None	None	None	1
3.0.1	2019_Mar_10_1455	s	s	5	4	SIC	393	ABS	0	0	2	1	24_2_1	NA	NA	0	1	1.58706116676	None	None	None	None	1
3.0.1	2019_Mar_10_1455	s	s	5	4	SIC	394	2_2	2	2	2	3	23_2_3	0	1	1	0	3.13282704353	-235.0	-190.0	-229.0	-189.0	1
3.0.1	2019_Mar_10_1455	s	s	5	4	SIC	395	3_3	3	3	3	4	23_3_4	0	-1	1	0	0.922358036041	342.0	376.0	346.0	375.0	1
3.0.1	2019_Mar_10_1455	s	s	5	4	SIC	396	1_2	1	2	2	2	23_2_2	1	0	1	0	1.22538995743	-190.0	-104.0	-184.0	-104.0	1
3.0.1	2019_Mar_10_1455	s	s	5	4	SIC	397	ABS	0	0	4	2	24_4_2	NA	NA	0	1	3.50153684616	None	None	None	None	1
3.0.1	2019_Mar_10_1455	s	s	5	4	SIC	398	ABS	0	0	2	2	24_2_2	NA	NA	0	1	4.39037299156	None	None	None	None	1
3.0.1	2019_Mar_10_1455	s	s	5	4	SIC	399	3_3	3	3	4	2	23_4_2	-1	1	1	0	0.681541919708	-271.0	-256.0	-280.0	-257.0	1
3.0.1	2019_Mar_10_1455	s	s	5	4	SIC	400	4_3	4	3	3	3	23_3_3	1	0	1	0	0.41095495224	382.0	-10.0	386.0	-11.0	1
3.0.1	2019_Mar_10_1455	s	s	5	4	SIC	401	2_1	2	1	2	3	23_2_3	0	2	1	0	0.622689962387	168.0	229.0	162.0	227.0	1
3.0.1	2019_Mar_10_1455	s	s	5	4	SIC	402	ABS	0	0	4	3	24_4_3	NA	NA	0	1	2.9082429409	None	None	None	None	1
3.0.1	2019_Mar_10_1455	s	s	5	4	SIC	403	ABS	0	0	2	3	24_2_3	NA	NA	0	1	2.77486300468	None	None	None	None	1
3.0.1	2019_Mar_10_1455	s	s	5	4	SIC	404	2_4	2	4	2	2	23_2_2	0	2	1	0	0.875129938126	35.0	13.0	27.0	11.0	1
3.0.1	2019_Mar_10_1455	s	s	5	4	SIC	405	4_1	4	1	3	4	23_3_4	1	3	1	0	0.378469944	408.0	-217.0	407.0	-219.0	1
3.0.1	2019_Mar_10_1455	s	s	5	4	SIC	406	ABS	0	0	4	3	24_4_3	NA	NA	0	1	3.33946990967	None	None	None	None	1
3.0.1	2019_Mar_10_1455	s	s	5	4	SIC	407	ABS	0	0	4	3	24_4_3	NA	NA	0	1	3.95107913017	None	None	None	None	1
3.0.1	2019_Mar_10_1455	s	s	5	4	SIC	408	2_4	2	4	2	1	23_2_1	0	3	1	0	0.486546039581	-283.0	-285.0	-282.0	-288.0	1
3.0.1	2019_Mar_10_1455	s	s	5	4	SIC	409	3_4	3	4	3	1	23_3_1	0	3	1	0	0.404469966888	-25.0	110.0	-27.0	113.0	1
3.0.1	2019_Mar_10_1455	s	s	5	4	SIC	410	2_2	2	2	1	3	23_1_3	-1	1	1	0	1.96782279015	-85.0	-392.0	-90.0	-389.0	1
3.0.1	2019_Mar_10_1455	s	s	5	4	SIC	411	4_1	4	1	2	4	23_2_4	2	3	1	0	0.392263889313	-83.0	265.0	-80.0	264.0	1
3.0.1	2019_Mar_10_1455	s	s	5	4	SIC	412	2_1	2	1	1	2	23_1_2	-1	1	1	0	1.53118300438	213.0	-199.0	211.0	-196.0	1
3.0.1	2019_Mar_10_1455	s	s	5	4	SIC	413	ABS	0	0	4	4	24_4_4	NA	NA	0	1	1.58705615997	None	None	None	None	1
3.0.1	2019_Mar_10_1455	s	s	5	4	SIC	414	ABS	0	0	1	1	24_1_1	NA	NA	0	1	1.95211982727	None	None	None	None	1
3.0.1	2019_Mar_10_1455	s	s	5	4	SIC	415	ABS	0	0	2	4	24_2_4	NA	NA	0	1	1.76348495483	None	None	None	None	1
3.0.1	2019_Mar_10_1455	s	s	5	4	SIC	416	ABS	0	0	3	4	24_3_4	NA	NA	0	1	1.4577319622	None	None	None	None	1
3.0.1	2019_Mar_10_1455	s	s	5	4	SIC	417	2_3	2	3	1	4	23_1_4	-1	-1	1	0	0.646414995193	308.0	-254.0	301.0	-259.0	1
3.0.1	2019_Mar_10_1455	s	s	5	4	SIC	418	4_2	4	2	2	1	23_2_1	2	-1	1	0	0.383933067322	-330.0	57.0	-327.0	57.0	1
3.0.1	2019_Mar_10_1455	s	s	5	4	SIC	419	2_2	2	2	3	4	23_3_4	1	2	1	0	0.457890033722	432.0	107.0	435.0	109.0	1
3.0.1	2019_Mar_10_1455	s	s	5	4	SIC	420	ABS	0	0	1	3	24_1_3	NA	NA	0	1	3.83352899551	None	None	None	None	1
3.0.1	2019_Mar_10_1455	s	s	5	4	SIC	421	1_4	1	4	3	1	23_3_1	2	3	1	0	0.45797586441	-389.0	-198.0	-384.0	-197.0	1
3.0.1	2019_Mar_10_1455	s	s	5	4	SIC	422	ABS	0	0	3	4	24_3_4	NA	NA	0	1	1.13371396065	None	None	None	None	1
3.0.1	2019_Mar_10_1455	s	s	5	4	SIC	423	ABS	0	0	3	1	24_3_1	NA	NA	0	1	1.12137007713	None	None	None	None	1
3.0.1	2019_Mar_10_1455	s	s	5	4	SIC	424	3_1	3	1	3	3	23_3_3	0	2	1	0	0.944875001907	239.0	56.0	247.0	54.0	1
3.0.1	2019_Mar_10_1455	s	s	5	4	SIC	425	1_1	1	1	4	3	23_4_3	3	2	1	0	0.446440935135	-105.0	363.0	-105.0	361.0	1
3.0.1	2019_Mar_10_1455	s	s	5	4	SIC	426	ABS	0	0	4	2	24_4_2	NA	NA	0	1	2.43389105797	None	None	None	None	1
3.0.1	2019_Mar_10_1455	s	s	5	4	SIC	427	ABS	0	0	4	4	24_4_4	NA	NA	0	1	1.05816102028	None	None	None	None	1
3.0.1	2019_Mar_10_1455	s	s	5	4	SIC	428	ABS	0	0	2	4	24_2_4	NA	NA	0	1	1.62854194641	None	None	None	None	1
3.0.1	2019_Mar_10_1455	s	s	5	4	SIC	429	ABS	0	0	2	4	24_2_4	NA	NA	0	1	1.34310317039	None	None	None	None	1
3.0.1	2019_Mar_10_1455	s	s	5	4	SIC	430	ABS	0	0	4	3	24_4_3	NA	NA	0	1	2.31915307045	None	None	None	None	1
3.0.1	2019_Mar_10_1455	s	s	5	4	SIC	431	ABS	0	0	1	4	24_1_4	NA	NA	0	1	1.56836700439	None	None	None	None	1
3.0.1	2019_Mar_10_1455	s	s	5	4	SIC	432	2_3	2	3	2	1	23_2_1	0	2	0	1	1.43421816826	448.0	69.0	None	None	0
3.0.1	2019_Mar_10_1455	s	s	5	4	SIC	433	1_1	1	1	4	2	23_4_2	3	1	1	0	0.437355041504	-466.0	-136.0	-468.0	-134.0	1
3.0.1	2019_Mar_10_1455	s	s	5	4	SIC	434	3_3	3	3	2	4	23_2_4	1	-1	1	0	0.461848974228	-375.0	67.0	-379.0	67.0	1
3.0.1	2019_Mar_10_1455	s	s	5	4	SIC	435	2_4	2	4	4	1	23_4_1	2	3	1	0	0.450389862061	244.0	-197.0	251.0	-199.0	1
3.0.1	2019_Mar_10_1455	s	s	5	4	SIC	436	4_4	4	4	1	2	23_1_2	3	2	1	0	0.437431097031	-102.0	-398.0	-101.0	-396.0	1
3.0.1	2019_Mar_10_1455	s	s	5	4	SIC	437	ABS	0	0	3	4	24_3_4	NA	NA	0	1	1.20374894142	None	None	None	None	1
3.0.1	2019_Mar_10_1455	s	s	5	4	SIC	438	2_2	2	2	3	3	23_3_3	1	1	1	0	0.528747797012	-104.0	-191.0	-107.0	-191.0	1
3.0.1	2019_Mar_10_1455	s	s	5	4	SIC	439	4_4	4	4	3	4	23_3_4	1	0	1	0	0.404330015182	-463.0	116.0	-457.0	115.0	1
3.0.1	2019_Mar_10_1455	s	s	5	4	SIC	440	ABS	0	0	3	3	24_3_3	NA	NA	1	0	0.498298883438	None	None	43.0	-7.0	0
3.0.1	2019_Mar_10_1455	s	s	5	4	SIC	441	3_3	3	3	3	1	23_3_1	0	2	1	0	1.44593191147	356.0	301.0	363.0	300.0	1
3.0.1	2019_Mar_10_1455	s	s	5	4	SIC	442	ABS	0	0	3	3	24_3_3	NA	NA	0	1	2.53972601891	None	None	None	None	1
3.0.1	2019_Mar_10_1455	s	s	5	4	SIC	443	ABS	0	0	4	3	24_4_3	NA	NA	0	1	2.69262909889	None	None	None	None	1
3.0.1	2019_Mar_10_1455	s	s	5	4	SIC	444	2_4	2	4	4	4	23_4_4	2	0	1	0	0.470015048981	-445.0	-407.0	-444.0	-402.0	1
3.0.1	2019_Mar_10_1455	s	s	5	4	SIC	445	3_4	3	4	2	3	23_2_3	1	1	1	0	0.463621139526	-242.0	206.0	-239.0	205.0	1
3.0.1	2019_Mar_10_1455	s	s	5	4	SIC	446	3_4	3	4	1	1	23_1_1	2	3	1	0	0.437751054764	5.0	206.0	6.0	202.0	1
3.0.1	2019_Mar_10_1455	s	s	5	4	SIC	447	1_4	1	4	1	1	23_1_1	0	3	1	0	0.451733827591	86.0	123.0	80.0	124.0	1
3.0.1	2019_Mar_10_1455	s	s	5	4	SIC	448	ABS	0	0	4	4	24_4_4	NA	NA	0	1	1.20323586464	None	None	None	None	1
3.0.1	2019_Mar_10_1455	s	s	5	4	SIC	449	ABS	0	0	3	1	24_3_1	NA	NA	0	1	2.4104449749	None	None	None	None	1
3.0.1	2019_Mar_10_1455	s	s	5	4	SIC	450	4_1	4	1	2	1	23_2_1	2	0	1	0	0.449537992477	-2.0	65.0	-7.0	66.0	1
3.0.1	2019_Mar_10_1455	s	s	5	4	SIC	451	ABS	0	0	2	1	24_2_1	NA	NA	0	1	0.908987045288	None	None	None	None	1
3.0.1	2019_Mar_10_1455	s	s	5	4	SIC	452	ABS	0	0	3	2	24_3_2	NA	NA	0	1	3.8385310173	None	None	None	None	1
3.0.1	2019_Mar_10_1455	s	s	5	4	SIC	453	ABS	0	0	1	1	24_1_1	NA	NA	0	1	1.27438998222	None	None	None	None	1
3.0.1	2019_Mar_10_1455	s	s	5	4	SIC	454	2_3	2	3	3	2	23_3_2	1	1	1	0	0.826208114624	-520.0	264.0	-518.0	266.0	1
3.0.1	2019_Mar_10_1455	s	s	5	4	SIC	455	4_4	4	4	3	2	23_3_2	1	2	1	0	0.404000043869	-218.0	-87.0	-214.0	-83.0	1
3.0.1	2019_Mar_10_1455	s	s	5	4	SIC	456	ABS	0	0	3	1	24_3_1	NA	NA	0	1	0.97549700737	None	None	None	None	1
3.0.1	2019_Mar_10_1455	s	s	5	4	SIC	457	3_4	3	4	1	4	23_1_4	2	0	1	0	0.716815948486	388.0	1.0	386.0	1.0	1
3.0.1	2019_Mar_10_1455	s	s	5	4	SIC	458	4_2	4	2	4	1	23_4_1	0	-1	1	0	0.916662931442	262.0	-14.0	266.0	-15.0	1
3.0.1	2019_Mar_10_1455	s	s	5	4	SIC	459	ABS	0	0	4	4	24_4_4	NA	NA	0	1	1.20184803009	None	None	None	None	1
3.0.1	2019_Mar_10_1455	s	s	5	4	SIC	460	ABS	0	0	1	2	24_1_2	NA	NA	0	1	3.38415122032	None	None	None	None	1
3.0.1	2019_Mar_10_1455	s	s	5	4	SIC	461	3_1	3	1	2	1	23_2_1	1	0	1	0	0.437367916107	-286.0	75.0	-295.0	79.0	1
3.0.1	2019_Mar_10_1455	s	s	5	4	SIC	462	2_3	2	3	4	4	23_4_4	2	-1	1	0	0.392930030823	-320.0	-42.0	-318.0	-36.0	1
3.0.1	2019_Mar_10_1455	s	s	5	4	SIC	463	ABS	0	0	1	1	24_1_1	NA	NA	0	1	1.66932582855	None	None	None	None	1
3.0.1	2019_Mar_10_1455	s	s	5	4	SIC	464	4_4	4	4	4	3	23_4_3	0	1	1	0	0.810835123062	243.0	320.0	249.0	319.0	1
3.0.1	2019_Mar_10_1455	s	s	5	4	SIC	465	ABS	0	0	3	2	24_3_2	NA	NA	0	1	2.88569498062	None	None	None	None	1
3.0.1	2019_Mar_10_1455	s	s	5	4	SIC	466	3_2	3	2	1	3	23_1_3	2	1	1	0	0.510387182236	7.0	-281.0	12.0	-286.0	1
3.0.1	2019_Mar_10_1455	s	s	5	4	SIC	467	ABS	0	0	1	1	24_1_1	NA	NA	0	1	1.69819402695	None	None	None	None	1
3.0.1	2019_Mar_10_1455	s	s	5	4	SIC	468	1_2	1	2	2	4	23_2_4	1	2	1	0	0.846143960953	309.0	-347.0	308.0	-344.0	1
3.0.1	2019_Mar_10_1455	s	s	5	4	SIC	469	ABS	0	0	3	4	24_3_4	NA	NA	0	1	1.41355609894	None	None	None	None	1
3.0.1	2019_Mar_10_1455	s	s	5	4	SIC	470	ABS	0	0	4	1	24_4_1	NA	NA	0	1	1.64593100548	None	None	None	None	1
3.0.1	2019_Mar_10_1455	s	s	5	4	SIC	471	3_2	3	2	2	3	23_2_3	1	1	1	0	0.618381977081	209.0	-369.0	209.0	-367.0	1
3.0.1	2019_Mar_10_1455	s	s	5	4	SIC	472	ABS	0	0	2	4	24_2_4	NA	NA	0	1	1.01583909988	None	None	None	None	1
3.0.1	2019_Mar_10_1455	s	s	5	4	SIC	473	ABS	0	0	2	1	24_2_1	NA	NA	0	1	1.72289013863	None	None	None	None	1
3.0.1	2019_Mar_10_1455	s	s	5	4	SIC	474	4_2	4	2	4	3	23_4_3	0	1	1	0	2.44383215904	-432.0	195.0	-432.0	202.0	1
3.0.1	2019_Mar_10_1455	s	s	5	4	SIC	475	ABS	0	0	4	2	24_4_2	NA	NA	0	1	2.66017889977	None	None	None	None	1
3.0.1	2019_Mar_10_1455	s	s	5	4	SIC	476	ABS	0	0	4	2	24_4_2	NA	NA	0	1	2.67764806747	None	None	None	None	1
3.0.1	2019_Mar_10_1455	s	s	5	4	SIC	477	1_4	1	4	1	2	23_1_2	0	2	1	0	0.555029153824	451.0	-82.0	445.0	-87.0	1
3.0.1	2019_Mar_10_1455	s	s	5	4	SIC	478	ABS	0	0	4	4	24_4_4	NA	NA	0	1	1.00527191162	None	None	None	None	1
3.0.1	2019_Mar_10_1455	s	s	5	4	SIC	479	3_3	3	3	1	4	23_1_4	2	-1	1	0	0.533694028854	232.0	95.0	225.0	99.0	1
3.0.1	2019_Mar_10_1455	s	s	5	4	SIC	480	ABS	0	0	4	4	24_4_4	NA	NA	0	1	1.17543387413	None	None	None	None	1
