Version	Date	Stimuli	Method	Subject	Session	Condition	Trial	Target	TColor	TShape	DColor	DShape	Distractors	Channel1	Channel2	LMouseButton	RMouseButton	RT	TargetX	TargetY	ResponseX	ResponseY	Correct
3.0.1	2019_Mar_09_0956	s	s	6	3	Capacity	1	1_1	1	1	2	1	23_2_1	1	0	0	1	1.72842502594	72.0	-136.0	None	None	0
3.0.1	2019_Mar_09_0956	s	s	6	3	Capacity	2	ABS	0	0	3	1	24_3_1	NA	NA	0	1	2.19176292419	None	None	None	None	1
3.0.1	2019_Mar_09_0956	s	s	6	3	Capacity	3	ABS	0	0	1	1	24_1_1	NA	NA	0	1	2.22217392921	None	None	None	None	1
3.0.1	2019_Mar_09_0956	s	s	6	3	Capacity	4	ABS	0	0	4	1	24_4_1	NA	NA	0	1	2.38332390785	None	None	None	None	1
3.0.1	2019_Mar_09_0956	s	s	6	3	Capacity	5	2_1	2	1	3	1	23_3_1	1	0	1	0	0.5755879879	405.0	-129.0	400.0	-120.0	1
3.0.1	2019_Mar_09_0956	s	s	6	3	Capacity	6	3_1	3	1	2	1	23_2_1	1	0	1	0	0.50498509407	46.0	-229.0	46.0	-233.0	1
3.0.1	2019_Mar_09_0956	s	s	6	3	Capacity	7	2_1	2	1	1	1	23_1_1	-1	0	1	0	2.21436405182	-296.0	-324.0	-290.0	-324.0	1
3.0.1	2019_Mar_09_0956	s	s	6	3	Capacity	8	1_1	1	1	4	1	23_4_1	3	0	1	0	0.391588926315	-520.0	-187.0	-522.0	-198.0	1
3.0.1	2019_Mar_09_0956	s	s	6	3	Capacity	9	4_1	4	1	2	1	23_2_1	2	0	1	0	0.352108955383	-430.0	184.0	-427.0	185.0	1
3.0.1	2019_Mar_09_0956	s	s	6	3	Capacity	10	ABS	0	0	1	1	24_1_1	NA	NA	0	1	2.75128102303	None	None	None	None	1
3.0.1	2019_Mar_09_0956	s	s	6	3	Capacity	11	ABS	0	0	3	1	24_3_1	NA	NA	0	1	1.97286891937	None	None	None	None	1
3.0.1	2019_Mar_09_0956	s	s	6	3	Capacity	12	ABS	0	0	4	1	24_4_1	NA	NA	0	1	2.48792505264	None	None	None	None	1
3.0.1	2019_Mar_09_0956	s	s	6	3	Capacity	13	ABS	0	0	3	1	24_3_1	NA	NA	0	1	2.01087617874	None	None	None	None	1
3.0.1	2019_Mar_09_0956	s	s	6	3	Capacity	14	2_1	2	1	4	1	23_4_1	2	0	1	0	0.36422085762	-280.0	-129.0	-285.0	-134.0	1
3.0.1	2019_Mar_09_0956	s	s	6	3	Capacity	15	ABS	0	0	2	1	24_2_1	NA	NA	0	1	2.10459184647	None	None	None	None	1
3.0.1	2019_Mar_09_0956	s	s	6	3	Capacity	16	4_1	4	1	3	1	23_3_1	1	0	1	0	0.457987070084	32.0	-273.0	33.0	-284.0	1
3.0.1	2019_Mar_09_0956	s	s	6	3	Capacity	17	ABS	0	0	4	1	24_4_1	NA	NA	0	1	1.61565303802	None	None	None	None	1
3.0.1	2019_Mar_09_0956	s	s	6	3	Capacity	18	3_1	3	1	4	1	23_4_1	-1	0	1	0	0.422701835632	309.0	353.0	306.0	345.0	1
3.0.1	2019_Mar_09_0956	s	s	6	3	Capacity	19	ABS	0	0	2	1	24_2_1	NA	NA	0	1	2.28087615967	None	None	None	None	1
3.0.1	2019_Mar_09_0956	s	s	6	3	Capacity	20	ABS	0	0	1	1	24_1_1	NA	NA	0	1	2.26491808891	None	None	None	None	1
3.0.1	2019_Mar_09_0956	s	s	6	3	Capacity	21	1_1	1	1	3	1	23_3_1	2	0	1	0	0.444849967957	492.0	-77.0	490.0	-79.0	1
3.0.1	2019_Mar_09_0956	s	s	6	3	Capacity	22	4_1	4	1	1	1	23_1_1	3	0	1	0	0.378597974777	-445.0	-384.0	-443.0	-393.0	1
3.0.1	2019_Mar_09_0956	s	s	6	3	Capacity	23	ABS	0	0	2	1	24_2_1	NA	NA	0	1	2.45246195793	None	None	None	None	1
3.0.1	2019_Mar_09_0956	s	s	6	3	Capacity	24	3_1	3	1	1	1	23_1_1	2	0	1	0	0.404001951218	110.0	356.0	109.0	358.0	1
3.0.1	2019_Mar_09_0956	s	s	6	3	Capacity	25	ABS	0	0	3	1	24_3_1	NA	NA	0	1	2.1206741333	None	None	None	None	1
3.0.1	2019_Mar_09_0956	s	s	6	3	Capacity	26	ABS	0	0	4	1	24_4_1	NA	NA	0	1	2.05742096901	None	None	None	None	1
3.0.1	2019_Mar_09_0956	s	s	6	3	Capacity	27	3_1	3	1	4	1	23_4_1	-1	0	1	0	0.532524108887	-109.0	-323.0	-112.0	-319.0	1
3.0.1	2019_Mar_09_0956	s	s	6	3	Capacity	28	4_1	4	1	1	1	23_1_1	3	0	1	0	0.343130111694	-480.0	182.0	-476.0	174.0	1
3.0.1	2019_Mar_09_0956	s	s	6	3	Capacity	29	ABS	0	0	3	1	24_3_1	NA	NA	0	1	1.85756397247	None	None	None	None	1
3.0.1	2019_Mar_09_0956	s	s	6	3	Capacity	30	3_1	3	1	2	1	23_2_1	1	0	1	0	0.410925865173	166.0	-117.0	163.0	-117.0	1
3.0.1	2019_Mar_09_0956	s	s	6	3	Capacity	31	1_1	1	1	4	1	23_4_1	3	0	1	0	0.363908052444	324.0	309.0	335.0	316.0	1
3.0.1	2019_Mar_09_0956	s	s	6	3	Capacity	32	4_1	4	1	2	1	23_2_1	2	0	1	0	0.328618049622	281.0	221.0	288.0	216.0	1
3.0.1	2019_Mar_09_0956	s	s	6	3	Capacity	33	1_1	1	1	2	1	23_2_1	1	0	1	0	1.62093114853	115.0	258.0	120.0	255.0	1
3.0.1	2019_Mar_09_0956	s	s	6	3	Capacity	34	2_1	2	1	3	1	23_3_1	1	0	1	0	0.528532028198	370.0	-220.0	363.0	-218.0	1
3.0.1	2019_Mar_09_0956	s	s	6	3	Capacity	35	ABS	0	0	1	1	24_1_1	NA	NA	0	1	1.88515901566	None	None	None	None	1
3.0.1	2019_Mar_09_0956	s	s	6	3	Capacity	36	ABS	0	0	4	1	24_4_1	NA	NA	0	1	1.92812895775	None	None	None	None	1
3.0.1	2019_Mar_09_0956	s	s	6	3	Capacity	37	3_1	3	1	1	1	23_1_1	2	0	1	0	0.363904953003	-172.0	-115.0	-170.0	-119.0	1
3.0.1	2019_Mar_09_0956	s	s	6	3	Capacity	38	ABS	0	0	1	1	24_1_1	NA	NA	0	1	2.05746006966	None	None	None	None	1
3.0.1	2019_Mar_09_0956	s	s	6	3	Capacity	39	ABS	0	0	2	1	24_2_1	NA	NA	0	1	2.88553786278	None	None	None	None	1
3.0.1	2019_Mar_09_0956	s	s	6	3	Capacity	40	ABS	0	0	3	1	24_3_1	NA	NA	0	1	1.76794409752	None	None	None	None	1
3.0.1	2019_Mar_09_0956	s	s	6	3	Capacity	41	ABS	0	0	2	1	24_2_1	NA	NA	0	1	2.06246805191	None	None	None	None	1
3.0.1	2019_Mar_09_0956	s	s	6	3	Capacity	42	ABS	0	0	1	1	24_1_1	NA	NA	0	1	1.59186410904	None	None	None	None	1
3.0.1	2019_Mar_09_0956	s	s	6	3	Capacity	43	2_1	2	1	4	1	23_4_1	2	0	1	0	0.316915035248	214.0	-299.0	215.0	-292.0	1
3.0.1	2019_Mar_09_0956	s	s	6	3	Capacity	44	4_1	4	1	3	1	23_3_1	1	0	1	0	0.352118968964	-363.0	365.0	-358.0	370.0	1
3.0.1	2019_Mar_09_0956	s	s	6	3	Capacity	45	ABS	0	0	4	1	24_4_1	NA	NA	0	1	0.826442956924	None	None	None	None	1
3.0.1	2019_Mar_09_0956	s	s	6	3	Capacity	46	ABS	0	0	2	1	24_2_1	NA	NA	0	1	2.58119702339	None	None	None	None	1
3.0.1	2019_Mar_09_0956	s	s	6	3	Capacity	47	1_1	1	1	3	1	23_3_1	2	0	1	0	0.352200984955	163.0	-232.0	159.0	-226.0	1
3.0.1	2019_Mar_09_0956	s	s	6	3	Capacity	48	2_1	2	1	1	1	23_1_1	-1	0	1	0	0.964015960693	265.0	-71.0	262.0	-71.0	1
3.0.1	2019_Mar_09_0956	s	s	6	3	Capacity	49	1_1	1	1	4	1	23_4_1	3	0	1	0	0.369087934494	-283.0	162.0	-283.0	149.0	1
3.0.1	2019_Mar_09_0956	s	s	6	3	Capacity	50	ABS	0	0	4	1	24_4_1	NA	NA	0	1	1.21066808701	None	None	None	None	1
3.0.1	2019_Mar_09_0956	s	s	6	3	Capacity	51	2_1	2	1	3	1	23_3_1	1	0	1	0	0.516849994659	104.0	330.0	97.0	328.0	1
3.0.1	2019_Mar_09_0956	s	s	6	3	Capacity	52	ABS	0	0	4	1	24_4_1	NA	NA	0	1	1.56925487518	None	None	None	None	1
3.0.1	2019_Mar_09_0956	s	s	6	3	Capacity	53	2_1	2	1	4	1	23_4_1	2	0	1	0	0.356471061707	-382.0	229.0	-375.0	228.0	1
3.0.1	2019_Mar_09_0956	s	s	6	3	Capacity	54	ABS	0	0	2	1	24_2_1	NA	NA	0	1	2.44590497017	None	None	None	None	1
3.0.1	2019_Mar_09_0956	s	s	6	3	Capacity	55	ABS	0	0	3	1	24_3_1	NA	NA	0	1	1.87556600571	None	None	None	None	1
3.0.1	2019_Mar_09_0956	s	s	6	3	Capacity	56	ABS	0	0	2	1	24_2_1	NA	NA	0	1	1.84632921219	None	None	None	None	1
3.0.1	2019_Mar_09_0956	s	s	6	3	Capacity	57	ABS	0	0	3	1	24_3_1	NA	NA	0	1	1.34024095535	None	None	None	None	1
3.0.1	2019_Mar_09_0956	s	s	6	3	Capacity	58	ABS	0	0	4	1	24_4_1	NA	NA	0	1	2.05050706863	None	None	None	None	1
3.0.1	2019_Mar_09_0956	s	s	6	3	Capacity	59	2_1	2	1	1	1	23_1_1	-1	0	1	0	1.17544794083	6.0	-245.0	4.0	-250.0	1
3.0.1	2019_Mar_09_0956	s	s	6	3	Capacity	60	ABS	0	0	1	1	24_1_1	NA	NA	0	1	2.29282188416	None	None	None	None	1
3.0.1	2019_Mar_09_0956	s	s	6	3	Capacity	61	1_1	1	1	3	1	23_3_1	2	0	1	0	0.49627995491	-30.0	215.0	-24.0	215.0	1
3.0.1	2019_Mar_09_0956	s	s	6	3	Capacity	62	ABS	0	0	2	1	24_2_1	NA	NA	0	1	2.60142922401	None	None	None	None	1
3.0.1	2019_Mar_09_0956	s	s	6	3	Capacity	63	3_1	3	1	4	1	23_4_1	-1	0	1	0	0.385237932205	-514.0	-118.0	-509.0	-117.0	1
3.0.1	2019_Mar_09_0956	s	s	6	3	Capacity	64	4_1	4	1	3	1	23_3_1	1	0	1	0	0.363863945007	-305.0	182.0	-294.0	186.0	1
3.0.1	2019_Mar_09_0956	s	s	6	3	Capacity	65	4_1	4	1	2	1	23_2_1	2	0	1	0	0.36391711235	176.0	-389.0	169.0	-385.0	1
3.0.1	2019_Mar_09_0956	s	s	6	3	Capacity	66	1_1	1	1	2	1	23_2_1	1	0	1	0	1.29306101799	-474.0	274.0	-484.0	273.0	1
3.0.1	2019_Mar_09_0956	s	s	6	3	Capacity	67	4_1	4	1	1	1	23_1_1	3	0	1	0	0.382348060608	0.0	363.0	-12.0	368.0	1
3.0.1	2019_Mar_09_0956	s	s	6	3	Capacity	68	ABS	0	0	1	1	24_1_1	NA	NA	0	1	2.55667996407	None	None	None	None	1
3.0.1	2019_Mar_09_0956	s	s	6	3	Capacity	69	3_1	3	1	1	1	23_1_1	2	0	1	0	0.399176120758	-533.0	-45.0	-536.0	-50.0	1
3.0.1	2019_Mar_09_0956	s	s	6	3	Capacity	70	ABS	0	0	1	1	24_1_1	NA	NA	0	1	2.4965069294	None	None	None	None	1
3.0.1	2019_Mar_09_0956	s	s	6	3	Capacity	71	3_1	3	1	2	1	23_2_1	1	0	1	0	0.501222133636	-219.0	230.0	-223.0	218.0	1
3.0.1	2019_Mar_09_0956	s	s	6	3	Capacity	72	ABS	0	0	3	1	24_3_1	NA	NA	0	1	1.74543118477	None	None	None	None	1
3.0.1	2019_Mar_09_0956	s	s	6	3	Capacity	73	4_1	4	1	2	1	23_2_1	2	0	1	0	0.352082014084	-41.0	378.0	-39.0	373.0	1
3.0.1	2019_Mar_09_0956	s	s	6	3	Capacity	74	2_1	2	1	4	1	23_4_1	2	0	1	0	0.340317964554	-223.0	-218.0	-215.0	-217.0	1
3.0.1	2019_Mar_09_0956	s	s	6	3	Capacity	75	ABS	0	0	1	1	24_1_1	NA	NA	0	1	1.98189878464	None	None	None	None	1
3.0.1	2019_Mar_09_0956	s	s	6	3	Capacity	76	ABS	0	0	4	1	24_4_1	NA	NA	0	1	1.4864718914	None	None	None	None	1
3.0.1	2019_Mar_09_0956	s	s	6	3	Capacity	77	3_1	3	1	1	1	23_1_1	2	0	1	0	0.470128059387	-522.0	84.0	-524.0	81.0	1
3.0.1	2019_Mar_09_0956	s	s	6	3	Capacity	78	ABS	0	0	4	1	24_4_1	NA	NA	0	1	0.559457063675	None	None	None	None	1
3.0.1	2019_Mar_09_0956	s	s	6	3	Capacity	79	1_1	1	1	4	1	23_4_1	3	0	1	0	0.378556013107	107.0	-110.0	110.0	-115.0	1
3.0.1	2019_Mar_09_0956	s	s	6	3	Capacity	80	4_1	4	1	3	1	23_3_1	1	0	1	0	0.399197816849	-498.0	-152.0	-490.0	-146.0	1
3.0.1	2019_Mar_09_0956	s	s	6	3	Capacity	81	ABS	0	0	3	1	24_3_1	NA	NA	0	1	1.32572603226	None	None	None	None	1
3.0.1	2019_Mar_09_0956	s	s	6	3	Capacity	82	2_1	2	1	1	1	23_1_1	-1	0	1	0	1.06962800026	-394.0	333.0	-390.0	335.0	1
3.0.1	2019_Mar_09_0956	s	s	6	3	Capacity	83	ABS	0	0	1	1	24_1_1	NA	NA	0	1	1.84865903854	None	None	None	None	1
3.0.1	2019_Mar_09_0956	s	s	6	3	Capacity	84	4_1	4	1	1	1	23_1_1	3	0	1	0	0.370595932007	218.0	-402.0	221.0	-413.0	1
3.0.1	2019_Mar_09_0956	s	s	6	3	Capacity	85	ABS	0	0	1	1	24_1_1	NA	NA	0	1	2.07437300682	None	None	None	None	1
3.0.1	2019_Mar_09_0956	s	s	6	3	Capacity	86	3_1	3	1	4	1	23_4_1	-1	0	1	0	0.324945926666	-307.0	209.0	-304.0	205.0	1
3.0.1	2019_Mar_09_0956	s	s	6	3	Capacity	87	1_1	1	1	2	1	23_2_1	1	0	1	0	0.886386156082	16.0	-132.0	25.0	-135.0	1
3.0.1	2019_Mar_09_0956	s	s	6	3	Capacity	88	ABS	0	0	3	1	24_3_1	NA	NA	0	1	2.1028418541	None	None	None	None	1
3.0.1	2019_Mar_09_0956	s	s	6	3	Capacity	89	ABS	0	0	2	1	24_2_1	NA	NA	0	1	2.83892798424	None	None	None	None	1
3.0.1	2019_Mar_09_0956	s	s	6	3	Capacity	90	2_1	2	1	3	1	23_3_1	1	0	1	0	0.474455118179	-486.0	132.0	-491.0	128.0	1
3.0.1	2019_Mar_09_0956	s	s	6	3	Capacity	91	ABS	0	0	2	1	24_2_1	NA	NA	0	1	2.0314040184	None	None	None	None	1
3.0.1	2019_Mar_09_0956	s	s	6	3	Capacity	92	ABS	0	0	3	1	24_3_1	NA	NA	0	1	2.21537899971	None	None	None	None	1
3.0.1	2019_Mar_09_0956	s	s	6	3	Capacity	93	ABS	0	0	4	1	24_4_1	NA	NA	0	1	1.79879021645	None	None	None	None	1
3.0.1	2019_Mar_09_0956	s	s	6	3	Capacity	94	3_1	3	1	2	1	23_2_1	1	0	1	0	0.422745943069	304.0	-63.0	304.0	-62.0	1
3.0.1	2019_Mar_09_0956	s	s	6	3	Capacity	95	ABS	0	0	2	1	24_2_1	NA	NA	0	1	2.35829997063	None	None	None	None	1
3.0.1	2019_Mar_09_0956	s	s	6	3	Capacity	96	1_1	1	1	3	1	23_3_1	2	0	1	0	0.458245992661	-487.0	-98.0	-486.0	-97.0	1
3.0.1	2019_Mar_09_0956	s	s	6	3	Capacity	1	1_2	1	2	1	3	23_1_3	0	1	0	1	2.91098213196	-218.0	-68.0	None	None	0
3.0.1	2019_Mar_09_0956	s	s	6	3	Capacity	2	ABS	0	0	1	2	24_1_2	NA	NA	0	1	3.78647017479	None	None	None	None	1
3.0.1	2019_Mar_09_0956	s	s	6	3	Capacity	3	ABS	0	0	1	4	24_1_4	NA	NA	0	1	1.94003486633	None	None	None	None	1
3.0.1	2019_Mar_09_0956	s	s	6	3	Capacity	4	1_4	1	4	1	1	23_1_1	0	3	1	0	0.511676073074	230.0	43.0	231.0	40.0	1
3.0.1	2019_Mar_09_0956	s	s	6	3	Capacity	5	ABS	0	0	1	4	24_1_4	NA	NA	0	1	1.90977907181	None	None	None	None	1
3.0.1	2019_Mar_09_0956	s	s	6	3	Capacity	6	1_2	1	2	1	4	23_1_4	0	2	1	0	0.446246147156	240.0	218.0	238.0	210.0	1
3.0.1	2019_Mar_09_0956	s	s	6	3	Capacity	7	ABS	0	0	1	3	24_1_3	NA	NA	0	1	3.35128593445	None	None	None	None	1
3.0.1	2019_Mar_09_0956	s	s	6	3	Capacity	8	ABS	0	0	1	4	24_1_4	NA	NA	0	1	1.79198503494	None	None	None	None	1
3.0.1	2019_Mar_09_0956	s	s	6	3	Capacity	9	ABS	0	0	1	1	24_1_1	NA	NA	0	1	2.09286189079	None	None	None	None	1
3.0.1	2019_Mar_09_0956	s	s	6	3	Capacity	10	ABS	0	0	1	1	24_1_1	NA	NA	0	1	2.23390078545	None	None	None	None	1
3.0.1	2019_Mar_09_0956	s	s	6	3	Capacity	11	1_3	1	3	1	2	23_1_2	0	1	1	0	1.82225489616	-55.0	-167.0	-53.0	-165.0	1
3.0.1	2019_Mar_09_0956	s	s	6	3	Capacity	12	ABS	0	0	1	2	24_1_2	NA	NA	0	1	3.56963300705	None	None	None	None	1
3.0.1	2019_Mar_09_0956	s	s	6	3	Capacity	13	1_2	1	2	1	1	23_1_1	0	-1	1	0	2.08392882347	366.0	-5.0	367.0	-6.0	1
3.0.1	2019_Mar_09_0956	s	s	6	3	Capacity	14	1_3	1	3	1	1	23_1_1	0	2	1	0	0.512343883514	285.0	143.0	289.0	141.0	1
3.0.1	2019_Mar_09_0956	s	s	6	3	Capacity	15	1_1	1	1	1	2	23_1_2	0	1	1	0	4.01644706726	439.0	151.0	437.0	147.0	1
3.0.1	2019_Mar_09_0956	s	s	6	3	Capacity	16	1_3	1	3	1	4	23_1_4	0	-1	1	0	1.12834501266	189.0	-404.0	182.0	-405.0	1
3.0.1	2019_Mar_09_0956	s	s	6	3	Capacity	17	1_1	1	1	1	4	23_1_4	0	3	1	0	0.563774824142	-439.0	-360.0	-437.0	-364.0	1
3.0.1	2019_Mar_09_0956	s	s	6	3	Capacity	18	ABS	0	0	1	3	24_1_3	NA	NA	0	1	3.66316890717	None	None	None	None	1
3.0.1	2019_Mar_09_0956	s	s	6	3	Capacity	19	ABS	0	0	1	1	24_1_1	NA	NA	0	1	2.29929280281	None	None	None	None	1
3.0.1	2019_Mar_09_0956	s	s	6	3	Capacity	20	1_1	1	1	1	3	23_1_3	0	2	1	0	0.849102973938	395.0	294.0	402.0	304.0	1
3.0.1	2019_Mar_09_0956	s	s	6	3	Capacity	21	ABS	0	0	1	3	24_1_3	NA	NA	0	1	2.86450314522	None	None	None	None	1
3.0.1	2019_Mar_09_0956	s	s	6	3	Capacity	22	1_4	1	4	1	2	23_1_2	0	2	1	0	0.55905008316	157.0	-260.0	160.0	-257.0	1
3.0.1	2019_Mar_09_0956	s	s	6	3	Capacity	23	1_4	1	4	1	3	23_1_3	0	1	1	0	0.532899141312	-380.0	254.0	-383.0	247.0	1
3.0.1	2019_Mar_09_0956	s	s	6	3	Capacity	24	ABS	0	0	1	2	24_1_2	NA	NA	0	1	4.35094809532	None	None	None	None	1
3.0.1	2019_Mar_09_0956	s	s	6	3	Capacity	25	1_2	1	2	1	1	23_1_1	0	-1	1	0	2.20332789421	-459.0	221.0	-456.0	220.0	1
3.0.1	2019_Mar_09_0956	s	s	6	3	Capacity	26	ABS	0	0	1	4	24_1_4	NA	NA	0	1	2.00531697273	None	None	None	None	1
3.0.1	2019_Mar_09_0956	s	s	6	3	Capacity	27	ABS	0	0	1	2	24_1_2	NA	NA	0	1	4.71591114998	None	None	None	None	1
3.0.1	2019_Mar_09_0956	s	s	6	3	Capacity	28	1_3	1	3	1	2	23_1_2	0	1	1	0	2.3633620739	-295.0	30.0	-285.0	30.0	1
3.0.1	2019_Mar_09_0956	s	s	6	3	Capacity	29	1_3	1	3	1	4	23_1_4	0	-1	1	0	0.639164924622	339.0	401.0	342.0	400.0	1
3.0.1	2019_Mar_09_0956	s	s	6	3	Capacity	30	1_1	1	1	1	3	23_1_3	0	2	1	0	0.672586917877	193.0	-96.0	198.0	-104.0	1
3.0.1	2019_Mar_09_0956	s	s	6	3	Capacity	31	ABS	0	0	1	2	24_1_2	NA	NA	0	1	4.07347607613	None	None	None	None	1
3.0.1	2019_Mar_09_0956	s	s	6	3	Capacity	32	ABS	0	0	1	1	24_1_1	NA	NA	0	1	2.04575300217	None	None	None	None	1
3.0.1	2019_Mar_09_0956	s	s	6	3	Capacity	33	ABS	0	0	1	2	24_1_2	NA	NA	0	1	4.65678191185	None	None	None	None	1
3.0.1	2019_Mar_09_0956	s	s	6	3	Capacity	34	1_2	1	2	1	3	23_1_3	0	1	1	0	1.75172400475	-501.0	124.0	-502.0	115.0	1
3.0.1	2019_Mar_09_0956	s	s	6	3	Capacity	35	ABS	0	0	1	3	24_1_3	NA	NA	0	1	3.34496903419	None	None	None	None	1
3.0.1	2019_Mar_09_0956	s	s	6	3	Capacity	36	ABS	0	0	1	3	24_1_3	NA	NA	0	1	3.36346888542	None	None	None	None	1
3.0.1	2019_Mar_09_0956	s	s	6	3	Capacity	37	ABS	0	0	1	1	24_1_1	NA	NA	0	1	2.9794549942	None	None	None	None	1
3.0.1	2019_Mar_09_0956	s	s	6	3	Capacity	38	1_1	1	1	1	4	23_1_4	0	3	1	0	0.587725877762	-103.0	-396.0	-98.0	-400.0	1
3.0.1	2019_Mar_09_0956	s	s	6	3	Capacity	39	1_4	1	4	1	2	23_1_2	0	2	1	0	0.481522083282	-229.0	14.0	-233.0	17.0	1
3.0.1	2019_Mar_09_0956	s	s	6	3	Capacity	40	1_4	1	4	1	3	23_1_3	0	1	1	0	0.693120002747	-480.0	-308.0	-484.0	-309.0	1
3.0.1	2019_Mar_09_0956	s	s	6	3	Capacity	41	1_1	1	1	1	2	23_1_2	0	1	1	0	1.34008383751	-246.0	22.0	-250.0	25.0	1
3.0.1	2019_Mar_09_0956	s	s	6	3	Capacity	42	ABS	0	0	1	3	24_1_3	NA	NA	0	1	3.42708587646	None	None	None	None	1
3.0.1	2019_Mar_09_0956	s	s	6	3	Capacity	43	ABS	0	0	1	1	24_1_1	NA	NA	0	1	1.60217809677	None	None	None	None	1
3.0.1	2019_Mar_09_0956	s	s	6	3	Capacity	44	1_3	1	3	1	1	23_1_1	0	2	1	0	0.657948970795	-177.0	-285.0	-178.0	-283.0	1
3.0.1	2019_Mar_09_0956	s	s	6	3	Capacity	45	1_4	1	4	1	1	23_1_1	0	3	1	0	0.415765047073	254.0	-257.0	249.0	-261.0	1
3.0.1	2019_Mar_09_0956	s	s	6	3	Capacity	46	ABS	0	0	1	4	24_1_4	NA	NA	0	1	1.90461111069	None	None	None	None	1
3.0.1	2019_Mar_09_0956	s	s	6	3	Capacity	47	ABS	0	0	1	4	24_1_4	NA	NA	0	1	1.56104707718	None	None	None	None	1
3.0.1	2019_Mar_09_0956	s	s	6	3	Capacity	48	1_2	1	2	1	4	23_1_4	0	2	1	0	0.716797113419	-487.0	-65.0	-487.0	-65.0	1
3.0.1	2019_Mar_09_0956	s	s	6	3	Capacity	49	ABS	0	0	1	2	24_1_2	NA	NA	0	1	4.33910012245	None	None	None	None	1
3.0.1	2019_Mar_09_0956	s	s	6	3	Capacity	50	1_2	1	2	1	3	23_1_3	0	1	1	0	1.78409290314	48.0	27.0	40.0	33.0	1
3.0.1	2019_Mar_09_0956	s	s	6	3	Capacity	51	ABS	0	0	1	1	24_1_1	NA	NA	0	1	2.18006205559	None	None	None	None	1
3.0.1	2019_Mar_09_0956	s	s	6	3	Capacity	52	1_3	1	3	1	2	23_1_2	0	1	1	0	1.04595589638	-212.0	113.0	-216.0	118.0	1
3.0.1	2019_Mar_09_0956	s	s	6	3	Capacity	53	1_4	1	4	1	1	23_1_1	0	3	1	0	0.493263959885	-55.0	50.0	-50.0	44.0	1
3.0.1	2019_Mar_09_0956	s	s	6	3	Capacity	54	ABS	0	0	1	1	24_1_1	NA	NA	0	1	1.89284896851	None	None	None	None	1
3.0.1	2019_Mar_09_0956	s	s	6	3	Capacity	55	1_2	1	2	1	1	23_1_1	0	-1	0	1	1.97986793518	36.0	-354.0	None	None	0
3.0.1	2019_Mar_09_0956	s	s	6	3	Capacity	56	1_1	1	1	1	3	23_1_3	0	2	1	0	3.39063286781	-78.0	395.0	-68.0	401.0	1
3.0.1	2019_Mar_09_0956	s	s	6	3	Capacity	57	1_1	1	1	1	4	23_1_4	0	3	1	0	0.415637969971	-215.0	-111.0	-213.0	-121.0	1
3.0.1	2019_Mar_09_0956	s	s	6	3	Capacity	58	1_2	1	2	1	4	23_1_4	0	2	1	0	0.404539108276	-71.0	-116.0	-74.0	-126.0	1
3.0.1	2019_Mar_09_0956	s	s	6	3	Capacity	59	1_1	1	1	1	2	23_1_2	0	1	0	1	3.91579198837	522.0	200.0	None	None	0
3.0.1	2019_Mar_09_0956	s	s	6	3	Capacity	60	1_4	1	4	1	2	23_1_2	0	2	1	0	0.563856124878	-366.0	12.0	-367.0	8.0	1
3.0.1	2019_Mar_09_0956	s	s	6	3	Capacity	61	1_4	1	4	1	3	23_1_3	0	1	1	0	0.716742992401	-287.0	-236.0	-293.0	-242.0	1
3.0.1	2019_Mar_09_0956	s	s	6	3	Capacity	62	ABS	0	0	1	3	24_1_3	NA	NA	0	1	3.90413999557	None	None	None	None	1
3.0.1	2019_Mar_09_0956	s	s	6	3	Capacity	63	ABS	0	0	1	4	24_1_4	NA	NA	0	1	1.39889597893	None	None	None	None	1
3.0.1	2019_Mar_09_0956	s	s	6	3	Capacity	64	1_3	1	3	1	1	23_1_1	0	2	1	0	1.42239689827	-198.0	341.0	-197.0	336.0	1
3.0.1	2019_Mar_09_0956	s	s	6	3	Capacity	65	ABS	0	0	1	4	24_1_4	NA	NA	0	1	1.73324799538	None	None	None	None	1
3.0.1	2019_Mar_09_0956	s	s	6	3	Capacity	66	ABS	0	0	1	1	24_1_1	NA	NA	0	1	2.32017207146	None	None	None	None	1
3.0.1	2019_Mar_09_0956	s	s	6	3	Capacity	67	ABS	0	0	1	2	24_1_2	NA	NA	0	1	4.30391287804	None	None	None	None	1
3.0.1	2019_Mar_09_0956	s	s	6	3	Capacity	68	1_3	1	3	1	4	23_1_4	0	-1	1	0	0.496166944504	248.0	186.0	243.0	187.0	1
3.0.1	2019_Mar_09_0956	s	s	6	3	Capacity	69	ABS	0	0	1	3	24_1_3	NA	NA	0	1	3.41425585747	None	None	None	None	1
3.0.1	2019_Mar_09_0956	s	s	6	3	Capacity	70	ABS	0	0	1	3	24_1_3	NA	NA	0	1	3.57472991943	None	None	None	None	1
3.0.1	2019_Mar_09_0956	s	s	6	3	Capacity	71	ABS	0	0	1	2	24_1_2	NA	NA	0	1	3.89224505424	None	None	None	None	1
3.0.1	2019_Mar_09_0956	s	s	6	3	Capacity	72	ABS	0	0	1	4	24_1_4	NA	NA	0	1	1.95696592331	None	None	None	None	1
3.0.1	2019_Mar_09_0956	s	s	6	3	Capacity	73	ABS	0	0	1	3	24_1_3	NA	NA	0	1	3.29742217064	None	None	None	None	1
3.0.1	2019_Mar_09_0956	s	s	6	3	Capacity	74	1_1	1	1	1	3	23_1_3	0	2	1	0	0.575603961945	127.0	-61.0	118.0	-65.0	1
3.0.1	2019_Mar_09_0956	s	s	6	3	Capacity	75	1_2	1	2	1	3	23_1_3	0	1	1	0	1.52820801735	-67.0	263.0	-74.0	261.0	1
3.0.1	2019_Mar_09_0956	s	s	6	3	Capacity	76	ABS	0	0	1	1	24_1_1	NA	NA	0	1	1.79871892929	None	None	None	None	1
3.0.1	2019_Mar_09_0956	s	s	6	3	Capacity	77	ABS	0	0	1	1	24_1_1	NA	NA	0	1	2.05750417709	None	None	None	None	1
3.0.1	2019_Mar_09_0956	s	s	6	3	Capacity	78	ABS	0	0	1	3	24_1_3	NA	NA	0	1	2.88079810143	None	None	None	None	1
3.0.1	2019_Mar_09_0956	s	s	6	3	Capacity	79	ABS	0	0	1	1	24_1_1	NA	NA	0	1	2.73965477943	None	None	None	None	1
3.0.1	2019_Mar_09_0956	s	s	6	3	Capacity	80	1_3	1	3	1	2	23_1_2	0	1	1	0	1.26067495346	42.0	103.0	46.0	90.0	1
3.0.1	2019_Mar_09_0956	s	s	6	3	Capacity	81	1_1	1	1	1	2	23_1_2	0	1	1	0	1.75169992447	420.0	-64.0	412.0	-62.0	1
3.0.1	2019_Mar_09_0956	s	s	6	3	Capacity	82	1_4	1	4	1	2	23_1_2	0	2	1	0	0.622663974762	-184.0	362.0	-188.0	350.0	1
3.0.1	2019_Mar_09_0956	s	s	6	3	Capacity	83	ABS	0	0	1	3	24_1_3	NA	NA	0	1	3.91595387459	None	None	None	None	1
3.0.1	2019_Mar_09_0956	s	s	6	3	Capacity	84	ABS	0	0	1	2	24_1_2	NA	NA	0	1	3.29245305061	None	None	None	None	1
3.0.1	2019_Mar_09_0956	s	s	6	3	Capacity	85	1_4	1	4	1	3	23_1_3	0	1	1	0	0.533648967743	420.0	-255.0	426.0	-254.0	1
3.0.1	2019_Mar_09_0956	s	s	6	3	Capacity	86	1_2	1	2	1	4	23_1_4	0	2	1	0	0.543241977692	325.0	-67.0	326.0	-67.0	1
3.0.1	2019_Mar_09_0956	s	s	6	3	Capacity	87	1_2	1	2	1	1	23_1_1	0	-1	1	0	1.09308505058	7.0	347.0	2.0	336.0	1
3.0.1	2019_Mar_09_0956	s	s	6	3	Capacity	88	ABS	0	0	1	4	24_1_4	NA	NA	0	1	1.92807412148	None	None	None	None	1
3.0.1	2019_Mar_09_0956	s	s	6	3	Capacity	89	ABS	0	0	1	4	24_1_4	NA	NA	0	1	1.79089808464	None	None	None	None	1
3.0.1	2019_Mar_09_0956	s	s	6	3	Capacity	90	1_4	1	4	1	1	23_1_1	0	3	1	0	0.528507947922	484.0	-398.0	484.0	-400.0	1
3.0.1	2019_Mar_09_0956	s	s	6	3	Capacity	91	1_3	1	3	1	1	23_1_1	0	2	1	0	1.16367292404	171.0	-311.0	180.0	-313.0	1
3.0.1	2019_Mar_09_0956	s	s	6	3	Capacity	92	ABS	0	0	1	2	24_1_2	NA	NA	0	1	2.99834394455	None	None	None	None	1
3.0.1	2019_Mar_09_0956	s	s	6	3	Capacity	93	1_1	1	1	1	4	23_1_4	0	3	1	0	0.560463905334	-222.0	387.0	-224.0	389.0	1
3.0.1	2019_Mar_09_0956	s	s	6	3	Capacity	94	1_3	1	3	1	4	23_1_4	0	-1	1	0	0.49619102478	328.0	-40.0	328.0	-43.0	1
3.0.1	2019_Mar_09_0956	s	s	6	3	Capacity	95	ABS	0	0	1	2	24_1_2	NA	NA	0	1	4.59798407555	None	None	None	None	1
3.0.1	2019_Mar_09_0956	s	s	6	3	Capacity	96	ABS	0	0	1	4	24_1_4	NA	NA	0	1	1.33698391914	None	None	None	None	1
3.0.1	2019_Mar_09_0956	s	s	6	3	SIC	1	ABS	0	0	1	3	24_1_3	NA	NA	0	1	3.500177145	None	None	None	None	1
3.0.1	2019_Mar_09_0956	s	s	6	3	SIC	2	ABS	0	0	1	3	24_1_3	NA	NA	0	1	3.02189302444	None	None	None	None	1
3.0.1	2019_Mar_09_0956	s	s	6	3	SIC	3	ABS	0	0	1	4	24_1_4	NA	NA	0	1	2.92149305344	None	None	None	None	1
3.0.1	2019_Mar_09_0956	s	s	6	3	SIC	4	1_1	1	1	2	2	23_2_2	1	1	1	0	1.24601817131	-504.0	-322.0	-514.0	-313.0	1
3.0.1	2019_Mar_09_0956	s	s	6	3	SIC	5	1_4	1	4	4	1	23_4_1	3	3	1	0	0.363883972168	134.0	9.0	138.0	3.0	1
3.0.1	2019_Mar_09_0956	s	s	6	3	SIC	6	4_3	4	3	1	4	23_1_4	3	-1	1	0	0.363928079605	68.0	-265.0	62.0	-269.0	1
3.0.1	2019_Mar_09_0956	s	s	6	3	SIC	7	ABS	0	0	1	4	24_1_4	NA	NA	1	0	0.559444904327	None	None	-522.0	-405.0	0
3.0.1	2019_Mar_09_0956	s	s	6	3	SIC	8	3_3	3	3	1	2	23_1_2	2	1	1	0	0.438334941864	-248.0	-246.0	-248.0	-250.0	1
3.0.1	2019_Mar_09_0956	s	s	6	3	SIC	9	ABS	0	0	1	1	24_1_1	NA	NA	0	1	3.63346505165	None	None	None	None	1
3.0.1	2019_Mar_09_0956	s	s	6	3	SIC	10	4_4	4	4	3	1	23_3_1	1	3	1	0	0.357048988342	140.0	326.0	137.0	325.0	1
3.0.1	2019_Mar_09_0956	s	s	6	3	SIC	11	3_4	3	4	1	2	23_1_2	2	2	1	0	0.399192094803	51.0	189.0	48.0	180.0	1
3.0.1	2019_Mar_09_0956	s	s	6	3	SIC	12	ABS	0	0	2	3	24_2_3	NA	NA	0	1	3.69227004051	None	None	None	None	1
3.0.1	2019_Mar_09_0956	s	s	6	3	SIC	13	ABS	0	0	4	2	24_4_2	NA	NA	0	1	3.70405697823	None	None	None	None	1
3.0.1	2019_Mar_09_0956	s	s	6	3	SIC	14	2_2	2	2	3	4	23_3_4	1	2	1	0	0.439077138901	486.0	58.0	487.0	67.0	1
3.0.1	2019_Mar_09_0956	s	s	6	3	SIC	15	4_4	4	4	1	1	23_1_1	3	3	1	0	0.392628908157	-241.0	78.0	-241.0	79.0	1
3.0.1	2019_Mar_09_0956	s	s	6	3	SIC	16	2_1	2	1	1	4	23_1_4	-1	3	1	0	0.481513023376	23.0	114.0	27.0	111.0	1
3.0.1	2019_Mar_09_0956	s	s	6	3	SIC	17	ABS	0	0	2	3	24_2_3	NA	NA	0	1	3.31898093224	None	None	None	None	1
3.0.1	2019_Mar_09_0956	s	s	6	3	SIC	18	2_1	2	1	1	2	23_1_2	-1	1	0	1	2.66028404236	423.0	35.0	None	None	0
3.0.1	2019_Mar_09_0956	s	s	6	3	SIC	19	4_4	4	4	2	2	23_2_2	2	2	1	0	0.369233846664	469.0	237.0	467.0	235.0	1
3.0.1	2019_Mar_09_0956	s	s	6	3	SIC	20	ABS	0	0	1	3	24_1_3	NA	NA	0	1	2.68077802658	None	None	None	None	1
3.0.1	2019_Mar_09_0956	s	s	6	3	SIC	21	3_3	3	3	2	1	23_2_1	1	2	1	0	0.613881111145	14.0	352.0	14.0	348.0	1
3.0.1	2019_Mar_09_0956	s	s	6	3	SIC	22	2_3	2	3	1	2	23_1_2	-1	1	1	0	3.23865699768	162.0	247.0	164.0	246.0	1
3.0.1	2019_Mar_09_0956	s	s	6	3	SIC	23	ABS	0	0	1	2	24_1_2	NA	NA	0	1	4.20736908913	None	None	None	None	1
3.0.1	2019_Mar_09_0956	s	s	6	3	SIC	24	ABS	0	0	3	4	24_3_4	NA	NA	0	1	2.08433413506	None	None	None	None	1
3.0.1	2019_Mar_09_0956	s	s	6	3	SIC	25	4_4	4	4	2	1	23_2_1	2	3	1	0	0.31042599678	-379.0	193.0	-385.0	190.0	1
3.0.1	2019_Mar_09_0956	s	s	6	3	SIC	26	1_2	1	2	2	1	23_2_1	1	-1	1	0	2.06921815872	-47.0	349.0	-43.0	340.0	1
3.0.1	2019_Mar_09_0956	s	s	6	3	SIC	27	ABS	0	0	1	4	24_1_4	NA	NA	0	1	2.50450611115	None	None	None	None	1
3.0.1	2019_Mar_09_0956	s	s	6	3	SIC	28	1_3	1	3	4	3	23_4_3	3	0	1	0	0.393567085266	-393.0	-323.0	-390.0	-329.0	1
3.0.1	2019_Mar_09_0956	s	s	6	3	SIC	29	ABS	0	0	4	2	24_4_2	NA	NA	0	1	2.35146403313	None	None	None	None	1
3.0.1	2019_Mar_09_0956	s	s	6	3	SIC	30	1_1	1	1	1	3	23_1_3	0	2	1	0	1.05050206184	-497.0	-384.0	-489.0	-380.0	1
3.0.1	2019_Mar_09_0956	s	s	6	3	SIC	31	ABS	0	0	1	2	24_1_2	NA	NA	0	1	3.26732301712	None	None	None	None	1
3.0.1	2019_Mar_09_0956	s	s	6	3	SIC	32	1_4	1	4	2	2	23_2_2	1	2	1	0	0.874109983444	521.0	94.0	516.0	92.0	1
3.0.1	2019_Mar_09_0956	s	s	6	3	SIC	33	2_2	2	2	2	3	23_2_3	0	1	1	0	2.78672885895	-475.0	307.0	-469.0	299.0	1
3.0.1	2019_Mar_09_0956	s	s	6	3	SIC	34	2_4	2	4	3	4	23_3_4	1	0	1	0	0.460813045502	298.0	-200.0	302.0	-205.0	1
3.0.1	2019_Mar_09_0956	s	s	6	3	SIC	35	ABS	0	0	2	4	24_2_4	NA	NA	0	1	1.91674900055	None	None	None	None	1
3.0.1	2019_Mar_09_0956	s	s	6	3	SIC	36	ABS	0	0	4	3	24_4_3	NA	NA	0	1	2.78961896896	None	None	None	None	1
3.0.1	2019_Mar_09_0956	s	s	6	3	SIC	37	ABS	0	0	2	1	24_2_1	NA	NA	0	1	2.92114305496	None	None	None	None	1
3.0.1	2019_Mar_09_0956	s	s	6	3	SIC	38	4_2	4	2	1	1	23_1_1	3	-1	1	0	0.328722953796	-437.0	-152.0	-442.0	-153.0	1
3.0.1	2019_Mar_09_0956	s	s	6	3	SIC	39	ABS	0	0	3	1	24_3_1	NA	NA	0	1	2.13495206833	None	None	None	None	1
3.0.1	2019_Mar_09_0956	s	s	6	3	SIC	40	2_1	2	1	1	1	23_1_1	-1	0	1	0	2.05753087997	237.0	-305.0	231.0	-306.0	1
3.0.1	2019_Mar_09_0956	s	s	6	3	SIC	41	ABS	0	0	2	1	24_2_1	NA	NA	0	1	2.41541004181	None	None	None	None	1
3.0.1	2019_Mar_09_0956	s	s	6	3	SIC	42	4_1	4	1	1	1	23_1_1	3	0	1	0	0.38015794754	93.0	224.0	94.0	220.0	1
3.0.1	2019_Mar_09_0956	s	s	6	3	SIC	43	ABS	0	0	4	4	24_4_4	NA	NA	0	1	1.61553001404	None	None	None	None	1
3.0.1	2019_Mar_09_0956	s	s	6	3	SIC	44	1_4	1	4	1	3	23_1_3	0	1	1	0	0.428647041321	379.0	-403.0	383.0	-408.0	1
3.0.1	2019_Mar_09_0956	s	s	6	3	SIC	45	ABS	0	0	4	4	24_4_4	NA	NA	0	1	1.49587392807	None	None	None	None	1
3.0.1	2019_Mar_09_0956	s	s	6	3	SIC	46	2_4	2	4	2	3	23_2_3	0	1	1	0	0.605754137039	-344.0	172.0	-356.0	175.0	1
3.0.1	2019_Mar_09_0956	s	s	6	3	SIC	47	3_1	3	1	2	4	23_2_4	1	3	1	0	0.410886049271	-143.0	11.0	-141.0	11.0	1
3.0.1	2019_Mar_09_0956	s	s	6	3	SIC	48	4_1	4	1	3	4	23_3_4	1	3	1	0	0.363867044449	475.0	297.0	477.0	297.0	1
3.0.1	2019_Mar_09_0956	s	s	6	3	SIC	49	2_4	2	4	1	1	23_1_1	-1	3	1	0	0.540389060974	-184.0	165.0	-193.0	171.0	1
3.0.1	2019_Mar_09_0956	s	s	6	3	SIC	50	ABS	0	0	4	4	24_4_4	NA	NA	0	1	1.50866818428	None	None	None	None	1
3.0.1	2019_Mar_09_0956	s	s	6	3	SIC	51	ABS	0	0	3	4	24_3_4	NA	NA	0	1	1.64585494995	None	None	None	None	1
3.0.1	2019_Mar_09_0956	s	s	6	3	SIC	52	ABS	0	0	1	4	24_1_4	NA	NA	0	1	2.6034719944	None	None	None	None	1
3.0.1	2019_Mar_09_0956	s	s	6	3	SIC	53	2_2	2	2	1	1	23_1_1	-1	-1	1	0	1.14016413689	-255.0	-382.0	-250.0	-388.0	1
3.0.1	2019_Mar_09_0956	s	s	6	3	SIC	54	3_2	3	2	1	4	23_1_4	2	2	1	0	0.403016805649	-392.0	-202.0	-396.0	-210.0	1
3.0.1	2019_Mar_09_0956	s	s	6	3	SIC	55	ABS	0	0	3	2	24_3_2	NA	NA	0	1	4.28073096275	None	None	None	None	1
3.0.1	2019_Mar_09_0956	s	s	6	3	SIC	56	1_4	1	4	3	3	23_3_3	2	1	1	0	0.439179182053	212.0	-7.0	211.0	-10.0	1
3.0.1	2019_Mar_09_0956	s	s	6	3	SIC	57	ABS	0	0	1	1	24_1_1	NA	NA	0	1	2.35148692131	None	None	None	None	1
3.0.1	2019_Mar_09_0956	s	s	6	3	SIC	58	ABS	0	0	4	2	24_4_2	NA	NA	0	1	2.10959410667	None	None	None	None	1
3.0.1	2019_Mar_09_0956	s	s	6	3	SIC	59	ABS	0	0	4	2	24_4_2	NA	NA	0	1	4.09219503403	None	None	None	None	1
3.0.1	2019_Mar_09_0956	s	s	6	3	SIC	60	2_2	2	2	1	4	23_1_4	-1	2	1	0	0.728535175323	-486.0	-195.0	-488.0	-197.0	1
3.0.1	2019_Mar_09_0956	s	s	6	3	SIC	61	ABS	0	0	4	4	24_4_4	NA	NA	0	1	2.52785801888	None	None	None	None	1
3.0.1	2019_Mar_09_0956	s	s	6	3	SIC	62	ABS	0	0	1	2	24_1_2	NA	NA	0	1	3.65025377274	None	None	None	None	1
3.0.1	2019_Mar_09_0956	s	s	6	3	SIC	63	3_1	3	1	4	4	23_4_4	-1	3	1	0	0.399339914322	-431.0	-384.0	-435.0	-380.0	1
3.0.1	2019_Mar_09_0956	s	s	6	3	SIC	64	ABS	0	0	2	3	24_2_3	NA	NA	0	1	3.54556012154	None	None	None	None	1
3.0.1	2019_Mar_09_0956	s	s	6	3	SIC	65	ABS	0	0	2	4	24_2_4	NA	NA	0	1	1.88571810722	None	None	None	None	1
3.0.1	2019_Mar_09_0956	s	s	6	3	SIC	66	1_3	1	3	2	4	23_2_4	1	-1	1	0	0.488278865814	-392.0	-407.0	-399.0	-407.0	1
3.0.1	2019_Mar_09_0956	s	s	6	3	SIC	67	3_3	3	3	3	1	23_3_1	0	2	1	0	1.01572299004	-383.0	401.0	-381.0	398.0	1
3.0.1	2019_Mar_09_0956	s	s	6	3	SIC	68	2_2	2	2	1	3	23_1_3	-1	1	1	0	2.35157084465	-187.0	-355.0	-194.0	-355.0	1
3.0.1	2019_Mar_09_0956	s	s	6	3	SIC	69	3_4	3	4	1	4	23_1_4	2	0	1	0	0.775599002838	-529.0	382.0	-526.0	376.0	1
3.0.1	2019_Mar_09_0956	s	s	6	3	SIC	70	2_1	2	1	1	3	23_1_3	-1	2	1	0	0.973737001419	-229.0	244.0	-216.0	251.0	1
3.0.1	2019_Mar_09_0956	s	s	6	3	SIC	71	ABS	0	0	3	1	24_3_1	NA	NA	0	1	1.78984594345	None	None	None	None	1
3.0.1	2019_Mar_09_0956	s	s	6	3	SIC	72	ABS	0	0	1	1	24_1_1	NA	NA	0	1	2.4809679985	None	None	None	None	1
3.0.1	2019_Mar_09_0956	s	s	6	3	SIC	73	3_2	3	2	2	1	23_2_1	1	-1	1	0	0.469723939896	183.0	82.0	187.0	83.0	1
3.0.1	2019_Mar_09_0956	s	s	6	3	SIC	74	4_2	4	2	1	3	23_1_3	3	1	1	0	0.569975137711	537.0	411.0	533.0	408.0	1
3.0.1	2019_Mar_09_0956	s	s	6	3	SIC	75	ABS	0	0	4	3	24_4_3	NA	NA	0	1	3.40346002579	None	None	None	None	1
3.0.1	2019_Mar_09_0956	s	s	6	3	SIC	76	4_1	4	1	4	3	23_4_3	0	2	1	0	0.669721841812	273.0	-31.0	280.0	-28.0	1
3.0.1	2019_Mar_09_0956	s	s	6	3	SIC	77	ABS	0	0	3	1	24_3_1	NA	NA	0	1	2.01680207253	None	None	None	None	1
3.0.1	2019_Mar_09_0956	s	s	6	3	SIC	78	ABS	0	0	4	1	24_4_1	NA	NA	0	1	1.90849685669	None	None	None	None	1
3.0.1	2019_Mar_09_0956	s	s	6	3	SIC	79	ABS	0	0	2	1	24_2_1	NA	NA	0	1	2.45129108429	None	None	None	None	1
3.0.1	2019_Mar_09_0956	s	s	6	3	SIC	80	2_2	2	2	2	1	23_2_1	0	-1	1	0	1.20175385475	8.0	-354.0	-3.0	-350.0	1
3.0.1	2019_Mar_09_0956	s	s	6	3	SIC	81	4_4	4	4	1	2	23_1_2	3	2	1	0	0.557290077209	27.0	-13.0	33.0	-11.0	1
3.0.1	2019_Mar_09_0956	s	s	6	3	SIC	82	2_1	2	1	3	3	23_3_3	1	2	1	0	0.375679016113	-109.0	13.0	-115.0	6.0	1
3.0.1	2019_Mar_09_0956	s	s	6	3	SIC	83	4_3	4	3	2	2	23_2_2	2	1	1	0	0.384521961212	-241.0	-304.0	-233.0	-299.0	1
3.0.1	2019_Mar_09_0956	s	s	6	3	SIC	84	4_2	4	2	2	1	23_2_1	2	-1	1	0	0.352053880692	31.0	185.0	34.0	178.0	1
3.0.1	2019_Mar_09_0956	s	s	6	3	SIC	85	1_1	1	1	1	4	23_1_4	0	3	1	0	0.619785070419	387.0	321.0	385.0	315.0	1
3.0.1	2019_Mar_09_0956	s	s	6	3	SIC	86	3_2	3	2	4	1	23_4_1	-1	-1	1	0	0.378561019897	-321.0	-131.0	-324.0	-134.0	1
3.0.1	2019_Mar_09_0956	s	s	6	3	SIC	87	ABS	0	0	1	2	24_1_2	NA	NA	0	1	3.43641114235	None	None	None	None	1
3.0.1	2019_Mar_09_0956	s	s	6	3	SIC	88	ABS	0	0	3	2	24_3_2	NA	NA	0	1	3.74452996254	None	None	None	None	1
3.0.1	2019_Mar_09_0956	s	s	6	3	SIC	89	ABS	0	0	2	4	24_2_4	NA	NA	0	1	2.26918101311	None	None	None	None	1
3.0.1	2019_Mar_09_0956	s	s	6	3	SIC	90	1_3	1	3	4	4	23_4_4	3	-1	1	0	0.39920091629	-184.0	-118.0	-176.0	-120.0	1
3.0.1	2019_Mar_09_0956	s	s	6	3	SIC	91	3_1	3	1	2	3	23_2_3	1	2	1	0	0.672582149506	-489.0	291.0	-490.0	287.0	1
3.0.1	2019_Mar_09_0956	s	s	6	3	SIC	92	ABS	0	0	1	1	24_1_1	NA	NA	0	1	2.23389697075	None	None	None	None	1
3.0.1	2019_Mar_09_0956	s	s	6	3	SIC	93	ABS	0	0	3	4	24_3_4	NA	NA	0	1	2.29263687134	None	None	None	None	1
3.0.1	2019_Mar_09_0956	s	s	6	3	SIC	94	4_1	4	1	1	3	23_1_3	3	2	1	0	0.379547834396	414.0	213.0	418.0	210.0	1
3.0.1	2019_Mar_09_0956	s	s	6	3	SIC	95	ABS	0	0	2	4	24_2_4	NA	NA	0	1	2.35143685341	None	None	None	None	1
3.0.1	2019_Mar_09_0956	s	s	6	3	SIC	96	1_2	1	2	2	3	23_2_3	1	1	1	0	3.45203518867	468.0	373.0	466.0	372.0	1
3.0.1	2019_Mar_09_0956	s	s	6	3	SIC	97	3_3	3	3	4	4	23_4_4	-1	-1	1	0	0.404402971268	281.0	248.0	276.0	243.0	1
3.0.1	2019_Mar_09_0956	s	s	6	3	SIC	98	1_4	1	4	4	4	23_4_4	3	0	1	0	0.357059001923	81.0	-353.0	73.0	-356.0	1
3.0.1	2019_Mar_09_0956	s	s	6	3	SIC	99	1_4	1	4	2	3	23_2_3	1	1	1	0	0.504999160767	-328.0	186.0	-325.0	191.0	1
3.0.1	2019_Mar_09_0956	s	s	6	3	SIC	100	ABS	0	0	2	1	24_2_1	NA	NA	0	1	2.71077394485	None	None	None	None	1
3.0.1	2019_Mar_09_0956	s	s	6	3	SIC	101	ABS	0	0	2	1	24_2_1	NA	NA	0	1	3.2013130188	None	None	None	None	1
3.0.1	2019_Mar_09_0956	s	s	6	3	SIC	102	4_4	4	4	4	2	23_4_2	0	2	1	0	0.790361881256	526.0	388.0	526.0	392.0	1
3.0.1	2019_Mar_09_0956	s	s	6	3	SIC	103	3_3	3	3	2	2	23_2_2	1	1	1	0	0.486911058426	142.0	38.0	147.0	33.0	1
3.0.1	2019_Mar_09_0956	s	s	6	3	SIC	104	2_1	2	1	2	4	23_2_4	0	3	1	0	0.426007986069	536.0	218.0	530.0	219.0	1
3.0.1	2019_Mar_09_0956	s	s	6	3	SIC	105	ABS	0	0	4	1	24_4_1	NA	NA	0	1	1.69285607338	None	None	None	None	1
3.0.1	2019_Mar_09_0956	s	s	6	3	SIC	106	4_2	4	2	3	1	23_3_1	1	-1	1	0	0.457943916321	504.0	-374.0	504.0	-375.0	1
3.0.1	2019_Mar_09_0956	s	s	6	3	SIC	107	ABS	0	0	1	3	24_1_3	NA	NA	0	1	3.59826493263	None	None	None	None	1
3.0.1	2019_Mar_09_0956	s	s	6	3	SIC	108	1_3	1	3	4	2	23_4_2	3	1	1	0	0.378530025482	443.0	26.0	451.0	27.0	1
3.0.1	2019_Mar_09_0956	s	s	6	3	SIC	109	3_1	3	1	2	2	23_2_2	1	1	1	0	0.546595096588	77.0	83.0	76.0	76.0	1
3.0.1	2019_Mar_09_0956	s	s	6	3	SIC	110	ABS	0	0	2	4	24_2_4	NA	NA	0	1	2.25541305542	None	None	None	None	1
3.0.1	2019_Mar_09_0956	s	s	6	3	SIC	111	2_4	2	4	2	2	23_2_2	0	2	1	0	0.63952088356	374.0	343.0	383.0	340.0	1
3.0.1	2019_Mar_09_0956	s	s	6	3	SIC	112	4_3	4	3	2	1	23_2_1	2	2	1	0	0.368870973587	342.0	388.0	343.0	385.0	1
3.0.1	2019_Mar_09_0956	s	s	6	3	SIC	113	3_4	3	4	2	1	23_2_1	1	3	1	0	0.437361001968	438.0	-250.0	435.0	-251.0	1
3.0.1	2019_Mar_09_0956	s	s	6	3	SIC	114	ABS	0	0	2	2	24_2_2	NA	NA	0	1	3.46925401688	None	None	None	None	1
3.0.1	2019_Mar_09_0956	s	s	6	3	SIC	115	4_4	4	4	3	2	23_3_2	1	2	1	0	0.378483057022	-149.0	-166.0	-148.0	-159.0	1
3.0.1	2019_Mar_09_0956	s	s	6	3	SIC	116	4_3	4	3	1	3	23_1_3	3	0	1	0	0.378541946411	282.0	214.0	290.0	217.0	1
3.0.1	2019_Mar_09_0956	s	s	6	3	SIC	117	ABS	0	0	4	2	24_4_2	NA	NA	0	1	3.59841990471	None	None	None	None	1
3.0.1	2019_Mar_09_0956	s	s	6	3	SIC	118	4_3	4	3	4	1	23_4_1	0	2	1	0	1.56978702545	350.0	231.0	353.0	235.0	1
3.0.1	2019_Mar_09_0956	s	s	6	3	SIC	119	1_3	1	3	3	4	23_3_4	2	-1	1	0	0.378622055054	329.0	5.0	326.0	10.0	1
3.0.1	2019_Mar_09_0956	s	s	6	3	SIC	120	ABS	0	0	4	2	24_4_2	NA	NA	0	1	3.20753693581	None	None	None	None	1
3.0.1	2019_Mar_09_0956	s	s	6	3	SIC	121	ABS	0	0	1	2	24_1_2	NA	NA	0	1	3.30414795876	None	None	None	None	1
3.0.1	2019_Mar_09_0956	s	s	6	3	SIC	122	ABS	0	0	4	1	24_4_1	NA	NA	0	1	1.32835102081	None	None	None	None	1
3.0.1	2019_Mar_09_0956	s	s	6	3	SIC	123	ABS	0	0	3	4	24_3_4	NA	NA	0	1	1.39885091782	None	None	None	None	1
3.0.1	2019_Mar_09_0956	s	s	6	3	SIC	124	1_4	1	4	3	2	23_3_2	2	2	1	0	0.564293146133	-499.0	15.0	-501.0	15.0	1
3.0.1	2019_Mar_09_0956	s	s	6	3	SIC	125	ABS	0	0	4	3	24_4_3	NA	NA	0	1	4.01461482048	None	None	None	None	1
3.0.1	2019_Mar_09_0956	s	s	6	3	SIC	126	ABS	0	0	2	4	24_2_4	NA	NA	0	1	1.81053781509	None	None	None	None	1
3.0.1	2019_Mar_09_0956	s	s	6	3	SIC	127	ABS	0	0	2	2	24_2_2	NA	NA	0	1	3.13450694084	None	None	None	None	1
3.0.1	2019_Mar_09_0956	s	s	6	3	SIC	128	ABS	0	0	1	2	24_1_2	NA	NA	0	1	3.78933501244	None	None	None	None	1
3.0.1	2019_Mar_09_0956	s	s	6	3	SIC	129	4_2	4	2	2	4	23_2_4	2	2	1	0	0.422772884369	-98.0	195.0	-95.0	187.0	1
3.0.1	2019_Mar_09_0956	s	s	6	3	SIC	130	1_4	1	4	2	4	23_2_4	1	0	1	0	2.21046900749	30.0	237.0	30.0	234.0	1
3.0.1	2019_Mar_09_0956	s	s	6	3	SIC	131	4_3	4	3	4	2	23_4_2	0	1	1	0	3.48064398766	437.0	-356.0	440.0	-362.0	1
3.0.1	2019_Mar_09_0956	s	s	6	3	SIC	132	ABS	0	0	2	4	24_2_4	NA	NA	0	1	1.90753293037	None	None	None	None	1
3.0.1	2019_Mar_09_0956	s	s	6	3	SIC	133	1_1	1	1	4	1	23_4_1	3	0	1	0	0.36394405365	-407.0	-76.0	-406.0	-79.0	1
3.0.1	2019_Mar_09_0956	s	s	6	3	SIC	134	ABS	0	0	1	4	24_1_4	NA	NA	0	1	2.25026893616	None	None	None	None	1
3.0.1	2019_Mar_09_0956	s	s	6	3	SIC	135	ABS	0	0	4	4	24_4_4	NA	NA	0	1	0.875994920731	None	None	None	None	1
3.0.1	2019_Mar_09_0956	s	s	6	3	SIC	136	4_1	4	1	3	3	23_3_3	1	2	1	0	0.441778898239	-127.0	-344.0	-130.0	-344.0	1
3.0.1	2019_Mar_09_0956	s	s	6	3	SIC	137	1_4	1	4	4	2	23_4_2	3	2	1	0	0.384284973145	-316.0	317.0	-311.0	317.0	1
3.0.1	2019_Mar_09_0956	s	s	6	3	SIC	138	3_4	3	4	3	1	23_3_1	0	3	1	0	0.509608983994	-130.0	-367.0	-130.0	-369.0	1
3.0.1	2019_Mar_09_0956	s	s	6	3	SIC	139	1_1	1	1	3	2	23_3_2	2	1	1	0	0.575664043427	374.0	68.0	372.0	70.0	1
3.0.1	2019_Mar_09_0956	s	s	6	3	SIC	140	2_1	2	1	4	2	23_4_2	2	1	1	0	0.437372922897	285.0	170.0	287.0	167.0	1
3.0.1	2019_Mar_09_0956	s	s	6	3	SIC	141	1_2	1	2	2	4	23_2_4	1	2	1	0	0.387431144714	107.0	-70.0	111.0	-71.0	1
3.0.1	2019_Mar_09_0956	s	s	6	3	SIC	142	1_2	1	2	3	1	23_3_1	2	-1	1	0	0.410951852798	-167.0	264.0	-176.0	262.0	1
3.0.1	2019_Mar_09_0956	s	s	6	3	SIC	143	ABS	0	0	1	1	24_1_1	NA	NA	0	1	2.22216916084	None	None	None	None	1
3.0.1	2019_Mar_09_0956	s	s	6	3	SIC	144	ABS	0	0	3	4	24_3_4	NA	NA	0	1	1.29303908348	None	None	None	None	1
3.0.1	2019_Mar_09_0956	s	s	6	3	SIC	145	ABS	0	0	2	3	24_2_3	NA	NA	0	1	4.14684605598	None	None	None	None	1
3.0.1	2019_Mar_09_0956	s	s	6	3	SIC	146	ABS	0	0	4	3	24_4_3	NA	NA	0	1	3.29241204262	None	None	None	None	1
3.0.1	2019_Mar_09_0956	s	s	6	3	SIC	147	ABS	0	0	4	1	24_4_1	NA	NA	0	1	1.42724585533	None	None	None	None	1
3.0.1	2019_Mar_09_0956	s	s	6	3	SIC	148	ABS	0	0	1	3	24_1_3	NA	NA	0	1	3.65704607964	None	None	None	None	1
3.0.1	2019_Mar_09_0956	s	s	6	3	SIC	149	ABS	0	0	4	2	24_4_2	NA	NA	0	1	3.78137803078	None	None	None	None	1
3.0.1	2019_Mar_09_0956	s	s	6	3	SIC	150	2_2	2	2	3	3	23_3_3	1	1	1	0	0.484455108643	-519.0	-113.0	-510.0	-114.0	1
3.0.1	2019_Mar_09_0956	s	s	6	3	SIC	151	2_4	2	4	4	4	23_4_4	2	0	1	0	0.403980970383	-94.0	-215.0	-99.0	-212.0	1
3.0.1	2019_Mar_09_0956	s	s	6	3	SIC	152	ABS	0	0	4	2	24_4_2	NA	NA	0	1	3.0385799408	None	None	None	None	1
3.0.1	2019_Mar_09_0956	s	s	6	3	SIC	153	4_2	4	2	1	2	23_1_2	3	0	1	0	0.521833181381	426.0	1.0	424.0	1.0	1
3.0.1	2019_Mar_09_0956	s	s	6	3	SIC	154	2_1	2	1	4	3	23_4_3	2	2	1	0	0.5197930336	-202.0	-307.0	-207.0	-316.0	1
3.0.1	2019_Mar_09_0956	s	s	6	3	SIC	155	3_4	3	4	3	2	23_3_2	0	2	1	0	0.43732213974	417.0	-196.0	411.0	-193.0	1
3.0.1	2019_Mar_09_0956	s	s	6	3	SIC	156	3_3	3	3	2	3	23_2_3	1	0	1	0	0.599206924438	476.0	27.0	474.0	28.0	1
3.0.1	2019_Mar_09_0956	s	s	6	3	SIC	157	1_1	1	1	2	4	23_2_4	1	3	1	0	0.458006858826	-334.0	-136.0	-342.0	-134.0	1
3.0.1	2019_Mar_09_0956	s	s	6	3	SIC	158	3_2	3	2	4	2	23_4_2	-1	0	1	0	0.416002035141	306.0	404.0	305.0	398.0	1
3.0.1	2019_Mar_09_0956	s	s	6	3	SIC	159	ABS	0	0	2	2	24_2_2	NA	NA	0	1	3.98135018349	None	None	None	None	1
3.0.1	2019_Mar_09_0956	s	s	6	3	SIC	160	1_4	1	4	1	2	23_1_2	0	2	1	0	0.481554031372	370.0	394.0	373.0	400.0	1
3.0.1	2019_Mar_09_0956	s	s	6	3	SIC	161	3_3	3	3	4	2	23_4_2	-1	1	1	0	0.378587007523	-68.0	377.0	-67.0	374.0	1
3.0.1	2019_Mar_09_0956	s	s	6	3	SIC	162	1_2	1	2	1	4	23_1_4	0	2	1	0	0.484278917313	400.0	349.0	408.0	347.0	1
3.0.1	2019_Mar_09_0956	s	s	6	3	SIC	163	ABS	0	0	4	2	24_4_2	NA	NA	0	1	3.37907314301	None	None	None	None	1
3.0.1	2019_Mar_09_0956	s	s	6	3	SIC	164	ABS	0	0	2	3	24_2_3	NA	NA	0	1	3.5044169426	None	None	None	None	1
3.0.1	2019_Mar_09_0956	s	s	6	3	SIC	165	ABS	0	0	2	3	24_2_3	NA	NA	0	1	4.90664196014	None	None	None	None	1
3.0.1	2019_Mar_09_0956	s	s	6	3	SIC	166	ABS	0	0	4	4	24_4_4	NA	NA	0	1	2.75140404701	None	None	None	None	1
3.0.1	2019_Mar_09_0956	s	s	6	3	SIC	167	1_2	1	2	4	4	23_4_4	3	2	1	0	0.425592899323	-287.0	-189.0	-278.0	-184.0	1
3.0.1	2019_Mar_09_0956	s	s	6	3	SIC	168	ABS	0	0	4	1	24_4_1	NA	NA	0	1	1.83408117294	None	None	None	None	1
3.0.1	2019_Mar_09_0956	s	s	6	3	SIC	169	ABS	0	0	1	1	24_1_1	NA	NA	0	1	2.3563170433	None	None	None	None	1
3.0.1	2019_Mar_09_0956	s	s	6	3	SIC	170	ABS	0	0	3	2	24_3_2	NA	NA	0	1	3.42180299759	None	None	None	None	1
3.0.1	2019_Mar_09_0956	s	s	6	3	SIC	171	2_3	2	3	3	3	23_3_3	1	0	1	0	0.575546979904	-474.0	-29.0	-481.0	-31.0	1
3.0.1	2019_Mar_09_0956	s	s	6	3	SIC	172	ABS	0	0	3	2	24_3_2	NA	NA	0	1	3.51935005188	None	None	None	None	1
3.0.1	2019_Mar_09_0956	s	s	6	3	SIC	173	3_2	3	2	3	1	23_3_1	0	-1	0	1	2.07538294792	368.0	-283.0	None	None	0
3.0.1	2019_Mar_09_0956	s	s	6	3	SIC	174	1_3	1	3	2	2	23_2_2	1	1	1	0	0.510000944138	8.0	103.0	5.0	96.0	1
3.0.1	2019_Mar_09_0956	s	s	6	3	SIC	175	ABS	0	0	3	3	24_3_3	NA	NA	0	1	2.75139689445	None	None	None	None	1
3.0.1	2019_Mar_09_0956	s	s	6	3	SIC	176	2_3	2	3	2	1	23_2_1	0	2	1	0	2.0861389637	289.0	-383.0	291.0	-375.0	1
3.0.1	2019_Mar_09_0956	s	s	6	3	SIC	177	ABS	0	0	4	2	24_4_2	NA	NA	0	1	3.84521603584	None	None	None	None	1
3.0.1	2019_Mar_09_0956	s	s	6	3	SIC	178	ABS	0	0	4	1	24_4_1	NA	NA	0	1	1.91314291954	None	None	None	None	1
3.0.1	2019_Mar_09_0956	s	s	6	3	SIC	179	3_4	3	4	1	3	23_1_3	2	1	1	0	0.469772100449	-398.0	106.0	-401.0	103.0	1
3.0.1	2019_Mar_09_0956	s	s	6	3	SIC	180	3_4	3	4	2	3	23_2_3	1	1	1	0	0.716785907745	426.0	-296.0	432.0	-305.0	1
3.0.1	2019_Mar_09_0956	s	s	6	3	SIC	181	1_3	1	3	1	2	23_1_2	0	1	1	0	2.39239001274	-302.0	-240.0	-297.0	-244.0	1
3.0.1	2019_Mar_09_0956	s	s	6	3	SIC	182	ABS	0	0	1	4	24_1_4	NA	NA	0	1	1.75170493126	None	None	None	None	1
3.0.1	2019_Mar_09_0956	s	s	6	3	SIC	183	ABS	0	0	1	3	24_1_3	NA	NA	0	1	2.88535308838	None	None	None	None	1
3.0.1	2019_Mar_09_0956	s	s	6	3	SIC	184	ABS	0	0	2	2	24_2_2	NA	NA	0	1	5.16741299629	None	None	None	None	1
3.0.1	2019_Mar_09_0956	s	s	6	3	SIC	185	ABS	0	0	4	4	24_4_4	NA	NA	0	1	1.85755205154	None	None	None	None	1
3.0.1	2019_Mar_09_0956	s	s	6	3	SIC	186	ABS	0	0	3	4	24_3_4	NA	NA	0	1	2.08391714096	None	None	None	None	1
3.0.1	2019_Mar_09_0956	s	s	6	3	SIC	187	ABS	0	0	1	4	24_1_4	NA	NA	0	1	2.41021990776	None	None	None	None	1
3.0.1	2019_Mar_09_0956	s	s	6	3	SIC	188	ABS	0	0	4	4	24_4_4	NA	NA	0	1	0.928447008133	None	None	None	None	1
3.0.1	2019_Mar_09_0956	s	s	6	3	SIC	189	ABS	0	0	1	3	24_1_3	NA	NA	0	1	3.73933601379	None	None	None	None	1
3.0.1	2019_Mar_09_0956	s	s	6	3	SIC	190	2_3	2	3	4	3	23_4_3	2	0	1	0	0.43957400322	97.0	-127.0	106.0	-131.0	1
3.0.1	2019_Mar_09_0956	s	s	6	3	SIC	191	ABS	0	0	3	3	24_3_3	NA	NA	0	1	3.91579914093	None	None	None	None	1
3.0.1	2019_Mar_09_0956	s	s	6	3	SIC	192	ABS	0	0	2	2	24_2_2	NA	NA	0	1	4.67143797874	None	None	None	None	1
3.0.1	2019_Mar_09_0956	s	s	6	3	SIC	193	3_3	3	3	3	4	23_3_4	0	-1	1	0	0.505063056946	-184.0	31.0	-192.0	37.0	1
3.0.1	2019_Mar_09_0956	s	s	6	3	SIC	194	1_3	1	3	2	3	23_2_3	1	0	1	0	1.50837492943	-293.0	-80.0	-283.0	-80.0	1
3.0.1	2019_Mar_09_0956	s	s	6	3	SIC	195	ABS	0	0	2	4	24_2_4	NA	NA	0	1	2.18693494797	None	None	None	None	1
3.0.1	2019_Mar_09_0956	s	s	6	3	SIC	196	2_4	2	4	4	3	23_4_3	2	1	1	0	0.580374002457	-509.0	-126.0	-505.0	-126.0	1
3.0.1	2019_Mar_09_0956	s	s	6	3	SIC	197	4_1	4	1	2	1	23_2_1	2	0	1	0	0.810761928558	252.0	-146.0	255.0	-150.0	1
3.0.1	2019_Mar_09_0956	s	s	6	3	SIC	198	ABS	0	0	4	2	24_4_2	NA	NA	0	1	3.82522296906	None	None	None	None	1
3.0.1	2019_Mar_09_0956	s	s	6	3	SIC	199	ABS	0	0	2	1	24_2_1	NA	NA	0	1	2.28095507622	None	None	None	None	1
3.0.1	2019_Mar_09_0956	s	s	6	3	SIC	200	ABS	0	0	2	4	24_2_4	NA	NA	0	1	2.28092288971	None	None	None	None	1
3.0.1	2019_Mar_09_0956	s	s	6	3	SIC	201	ABS	0	0	3	2	24_3_2	NA	NA	0	1	2.47436785698	None	None	None	None	1
3.0.1	2019_Mar_09_0956	s	s	6	3	SIC	202	ABS	0	0	3	2	24_3_2	NA	NA	0	1	2.75137400627	None	None	None	None	1
3.0.1	2019_Mar_09_0956	s	s	6	3	SIC	203	ABS	0	0	4	1	24_4_1	NA	NA	0	1	1.92135095596	None	None	None	None	1
3.0.1	2019_Mar_09_0956	s	s	6	3	SIC	204	ABS	0	0	3	1	24_3_1	NA	NA	0	1	2.4271068573	None	None	None	None	1
3.0.1	2019_Mar_09_0956	s	s	6	3	SIC	205	2_2	2	2	2	4	23_2_4	0	2	1	0	0.54563498497	-332.0	175.0	-330.0	168.0	1
3.0.1	2019_Mar_09_0956	s	s	6	3	SIC	206	2_4	2	4	1	2	23_1_2	-1	2	1	0	0.457983970642	367.0	-212.0	367.0	-219.0	1
3.0.1	2019_Mar_09_0956	s	s	6	3	SIC	207	ABS	0	0	3	3	24_3_3	NA	NA	0	1	3.96865200996	None	None	None	None	1
3.0.1	2019_Mar_09_0956	s	s	6	3	SIC	208	ABS	0	0	1	4	24_1_4	NA	NA	0	1	1.65768003464	None	None	None	None	1
3.0.1	2019_Mar_09_0956	s	s	6	3	SIC	209	4_4	4	4	3	3	23_3_3	1	1	1	0	0.516798019409	-186.0	-137.0	-190.0	-141.0	1
3.0.1	2019_Mar_09_0956	s	s	6	3	SIC	210	2_2	2	2	4	4	23_4_4	2	2	1	0	0.392363071442	481.0	161.0	471.0	160.0	1
3.0.1	2019_Mar_09_0956	s	s	6	3	SIC	211	ABS	0	0	3	1	24_3_1	NA	NA	0	1	1.76341700554	None	None	None	None	1
3.0.1	2019_Mar_09_0956	s	s	6	3	SIC	212	ABS	0	0	1	2	24_1_2	NA	NA	0	1	3.71869587898	None	None	None	None	1
3.0.1	2019_Mar_09_0956	s	s	6	3	SIC	213	3_2	3	2	2	2	23_2_2	1	0	1	0	0.639405965805	145.0	235.0	149.0	225.0	1
3.0.1	2019_Mar_09_0956	s	s	6	3	SIC	214	ABS	0	0	4	2	24_4_2	NA	NA	0	1	3.16302895546	None	None	None	None	1
3.0.1	2019_Mar_09_0956	s	s	6	3	SIC	215	1_2	1	2	3	4	23_3_4	2	2	1	0	0.651523113251	-199.0	-383.0	-194.0	-384.0	1
3.0.1	2019_Mar_09_0956	s	s	6	3	SIC	216	2_2	2	2	4	1	23_4_1	2	-1	1	0	0.402227163315	-237.0	-149.0	-234.0	-143.0	1
3.0.1	2019_Mar_09_0956	s	s	6	3	SIC	217	ABS	0	0	4	2	24_4_2	NA	NA	0	1	2.86214399338	None	None	None	None	1
3.0.1	2019_Mar_09_0956	s	s	6	3	SIC	218	ABS	0	0	1	2	24_1_2	NA	NA	0	1	3.09247493744	None	None	None	None	1
3.0.1	2019_Mar_09_0956	s	s	6	3	SIC	219	ABS	0	0	1	1	24_1_1	NA	NA	0	1	2.0839509964	None	None	None	None	1
3.0.1	2019_Mar_09_0956	s	s	6	3	SIC	220	1_3	1	3	1	4	23_1_4	0	-1	1	0	0.881399869919	-49.0	398.0	-58.0	400.0	1
3.0.1	2019_Mar_09_0956	s	s	6	3	SIC	221	3_1	3	1	1	2	23_1_2	2	1	1	0	0.434590101242	388.0	-179.0	397.0	-183.0	1
3.0.1	2019_Mar_09_0956	s	s	6	3	SIC	222	2_1	2	1	2	2	23_2_2	0	1	1	0	0.869626045227	-60.0	-254.0	-62.0	-266.0	1
3.0.1	2019_Mar_09_0956	s	s	6	3	SIC	223	4_4	4	4	4	3	23_4_3	0	1	1	0	1.63684415817	-23.0	-105.0	-16.0	-103.0	1
3.0.1	2019_Mar_09_0956	s	s	6	3	SIC	224	3_3	3	3	1	1	23_1_1	2	2	1	0	0.54479598999	455.0	119.0	454.0	128.0	1
3.0.1	2019_Mar_09_0956	s	s	6	3	SIC	225	ABS	0	0	1	3	24_1_3	NA	NA	0	1	4.29213905334	None	None	None	None	1
3.0.1	2019_Mar_09_0956	s	s	6	3	SIC	226	4_1	4	1	1	2	23_1_2	3	1	1	0	0.384101867676	-5.0	-73.0	0.0	-81.0	1
3.0.1	2019_Mar_09_0956	s	s	6	3	SIC	227	4_3	4	3	4	4	23_4_4	0	-1	1	0	0.481523990631	206.0	-200.0	210.0	-198.0	1
3.0.1	2019_Mar_09_0956	s	s	6	3	SIC	228	4_1	4	1	2	2	23_2_2	2	1	1	0	0.320629835129	-367.0	-41.0	-364.0	-46.0	1
3.0.1	2019_Mar_09_0956	s	s	6	3	SIC	229	ABS	0	0	1	1	24_1_1	NA	NA	0	1	1.85380887985	None	None	None	None	1
3.0.1	2019_Mar_09_0956	s	s	6	3	SIC	230	ABS	0	0	1	1	24_1_1	NA	NA	0	1	2.09275197983	None	None	None	None	1
3.0.1	2019_Mar_09_0956	s	s	6	3	SIC	231	ABS	0	0	4	3	24_4_3	NA	NA	0	1	4.03334403038	None	None	None	None	1
3.0.1	2019_Mar_09_0956	s	s	6	3	SIC	232	2_3	2	3	3	4	23_3_4	1	-1	1	0	0.444152116776	-327.0	-212.0	-320.0	-210.0	1
3.0.1	2019_Mar_09_0956	s	s	6	3	SIC	233	ABS	0	0	4	2	24_4_2	NA	NA	0	1	3.86899209023	None	None	None	None	1
3.0.1	2019_Mar_09_0956	s	s	6	3	SIC	234	2_1	2	1	4	1	23_4_1	2	0	1	0	0.399322032928	-70.0	6.0	-69.0	1.0	1
3.0.1	2019_Mar_09_0956	s	s	6	3	SIC	235	ABS	0	0	2	2	24_2_2	NA	NA	0	1	3.80311894417	None	None	None	None	1
3.0.1	2019_Mar_09_0956	s	s	6	3	SIC	236	ABS	0	0	2	1	24_2_1	NA	NA	0	1	2.66911101341	None	None	None	None	1
3.0.1	2019_Mar_09_0956	s	s	6	3	SIC	237	ABS	0	0	3	4	24_3_4	NA	NA	0	1	2.07218503952	None	None	None	None	1
3.0.1	2019_Mar_09_0956	s	s	6	3	SIC	238	ABS	0	0	2	2	24_2_2	NA	NA	0	1	3.88683795929	None	None	None	None	1
3.0.1	2019_Mar_09_0956	s	s	6	3	SIC	239	2_4	2	4	4	2	23_4_2	2	2	1	0	0.481546163559	289.0	77.0	283.0	71.0	1
3.0.1	2019_Mar_09_0956	s	s	6	3	SIC	240	ABS	0	0	1	3	24_1_3	NA	NA	0	1	3.57474517822	None	None	None	None	1
3.0.1	2019_Mar_09_0956	s	s	6	3	SIC	241	ABS	0	0	4	1	24_4_1	NA	NA	0	1	1.3569920063	None	None	None	None	1
3.0.1	2019_Mar_09_0956	s	s	6	3	SIC	242	ABS	0	0	3	3	24_3_3	NA	NA	0	1	2.55949401855	None	None	None	None	1
3.0.1	2019_Mar_09_0956	s	s	6	3	SIC	243	3_4	3	4	3	3	23_3_3	0	1	1	0	0.7091319561	481.0	-272.0	483.0	-282.0	1
3.0.1	2019_Mar_09_0956	s	s	6	3	SIC	244	4_1	4	1	1	4	23_1_4	3	3	1	0	0.380383968353	-377.0	-25.0	-385.0	-26.0	1
3.0.1	2019_Mar_09_0956	s	s	6	3	SIC	245	3_4	3	4	4	3	23_4_3	-1	1	1	0	0.709973096848	-470.0	382.0	-471.0	385.0	1
3.0.1	2019_Mar_09_0956	s	s	6	3	SIC	246	4_3	4	3	3	4	23_3_4	1	-1	1	0	0.356635093689	434.0	-277.0	445.0	-270.0	1
3.0.1	2019_Mar_09_0956	s	s	6	3	SIC	247	1_4	1	4	4	3	23_4_3	3	1	1	0	0.343326091766	-273.0	-335.0	-268.0	-344.0	1
3.0.1	2019_Mar_09_0956	s	s	6	3	SIC	248	4_3	4	3	3	1	23_3_1	1	2	1	0	0.378572225571	86.0	411.0	100.0	416.0	1
3.0.1	2019_Mar_09_0956	s	s	6	3	SIC	249	ABS	0	0	3	3	24_3_3	NA	NA	0	1	2.8807079792	None	None	None	None	1
3.0.1	2019_Mar_09_0956	s	s	6	3	SIC	250	ABS	0	0	3	3	24_3_3	NA	NA	0	1	2.92776298523	None	None	None	None	1
3.0.1	2019_Mar_09_0956	s	s	6	3	SIC	251	ABS	0	0	2	3	24_2_3	NA	NA	0	1	3.28058695793	None	None	None	None	1
3.0.1	2019_Mar_09_0956	s	s	6	3	SIC	252	ABS	0	0	4	1	24_4_1	NA	NA	0	1	1.68115210533	None	None	None	None	1
3.0.1	2019_Mar_09_0956	s	s	6	3	SIC	253	3_4	3	4	4	1	23_4_1	-1	3	1	0	0.405867099762	328.0	291.0	325.0	293.0	1
3.0.1	2019_Mar_09_0956	s	s	6	3	SIC	254	ABS	0	0	3	4	24_3_4	NA	NA	0	1	2.22741889954	None	None	None	None	1
3.0.1	2019_Mar_09_0956	s	s	6	3	SIC	255	ABS	0	0	2	2	24_2_2	NA	NA	0	1	4.0245308876	None	None	None	None	1
3.0.1	2019_Mar_09_0956	s	s	6	3	SIC	256	1_3	1	3	4	1	23_4_1	3	2	1	0	0.425590991974	-36.0	244.0	-35.0	228.0	1
3.0.1	2019_Mar_09_0956	s	s	6	3	SIC	257	4_3	4	3	1	1	23_1_1	3	2	1	0	0.383832931519	474.0	-35.0	468.0	-39.0	1
3.0.1	2019_Mar_09_0956	s	s	6	3	SIC	258	2_1	2	1	3	2	23_3_2	1	1	1	0	0.403127908707	188.0	274.0	190.0	284.0	1
3.0.1	2019_Mar_09_0956	s	s	6	3	SIC	259	ABS	0	0	3	2	24_3_2	NA	NA	0	1	4.08332395554	None	None	None	None	1
3.0.1	2019_Mar_09_0956	s	s	6	3	SIC	260	1_2	1	2	2	2	23_2_2	1	0	0	1	4.2382979393	380.0	-311.0	None	None	0
3.0.1	2019_Mar_09_0956	s	s	6	3	SIC	261	3_3	3	3	3	2	23_3_2	0	1	1	0	1.18720197678	-281.0	-147.0	-279.0	-155.0	1
3.0.1	2019_Mar_09_0956	s	s	6	3	SIC	262	1_1	1	1	2	3	23_2_3	1	2	1	0	0.77982211113	-325.0	-318.0	-322.0	-325.0	1
3.0.1	2019_Mar_09_0956	s	s	6	3	SIC	263	ABS	0	0	1	1	24_1_1	NA	NA	0	1	2.14970707893	None	None	None	None	1
3.0.1	2019_Mar_09_0956	s	s	6	3	SIC	264	2_1	2	1	3	4	23_3_4	1	3	1	0	0.516723871231	163.0	-58.0	163.0	-57.0	1
3.0.1	2019_Mar_09_0956	s	s	6	3	SIC	265	ABS	0	0	3	2	24_3_2	NA	NA	0	1	3.50155687332	None	None	None	None	1
3.0.1	2019_Mar_09_0956	s	s	6	3	SIC	266	ABS	0	0	3	1	24_3_1	NA	NA	0	1	2.17511487007	None	None	None	None	1
3.0.1	2019_Mar_09_0956	s	s	6	3	SIC	267	ABS	0	0	1	2	24_1_2	NA	NA	0	1	4.14758896828	None	None	None	None	1
3.0.1	2019_Mar_09_0956	s	s	6	3	SIC	268	1_1	1	1	3	1	23_3_1	2	0	1	0	0.410903930664	380.0	269.0	380.0	262.0	1
3.0.1	2019_Mar_09_0956	s	s	6	3	SIC	269	ABS	0	0	2	2	24_2_2	NA	NA	0	1	3.15416693687	None	None	None	None	1
3.0.1	2019_Mar_09_0956	s	s	6	3	SIC	270	ABS	0	0	3	3	24_3_3	NA	NA	0	1	4.19797492027	None	None	None	None	1
3.0.1	2019_Mar_09_0956	s	s	6	3	SIC	271	ABS	0	0	4	4	24_4_4	NA	NA	0	1	1.81053519249	None	None	None	None	1
3.0.1	2019_Mar_09_0956	s	s	6	3	SIC	272	ABS	0	0	4	3	24_4_3	NA	NA	0	1	4.11572003365	None	None	None	None	1
3.0.1	2019_Mar_09_0956	s	s	6	3	SIC	273	ABS	0	0	3	2	24_3_2	NA	NA	0	1	3.14243602753	None	None	None	None	1
3.0.1	2019_Mar_09_0956	s	s	6	3	SIC	274	2_3	2	3	4	4	23_4_4	2	-1	1	0	0.352102994919	445.0	189.0	438.0	185.0	1
3.0.1	2019_Mar_09_0956	s	s	6	3	SIC	275	4_1	4	1	2	4	23_2_4	2	3	1	0	0.356444120407	349.0	-307.0	356.0	-313.0	1
3.0.1	2019_Mar_09_0956	s	s	6	3	SIC	276	2_2	2	2	4	3	23_4_3	2	1	1	0	0.340381860733	150.0	370.0	154.0	367.0	1
3.0.1	2019_Mar_09_0956	s	s	6	3	SIC	277	4_1	4	1	3	2	23_3_2	1	1	1	0	0.343298912048	2.0	259.0	3.0	256.0	1
3.0.1	2019_Mar_09_0956	s	s	6	3	SIC	278	4_2	4	2	1	4	23_1_4	3	2	1	0	0.334674119949	-492.0	-53.0	-485.0	-54.0	1
3.0.1	2019_Mar_09_0956	s	s	6	3	SIC	279	3_4	3	4	4	4	23_4_4	-1	0	1	0	0.38433098793	408.0	7.0	404.0	9.0	1
3.0.1	2019_Mar_09_0956	s	s	6	3	SIC	280	4_3	4	3	2	3	23_2_3	2	0	1	0	0.357470989227	-151.0	-285.0	-139.0	-283.0	1
3.0.1	2019_Mar_09_0956	s	s	6	3	SIC	281	ABS	0	0	3	1	24_3_1	NA	NA	0	1	2.50328016281	None	None	None	None	1
3.0.1	2019_Mar_09_0956	s	s	6	3	SIC	282	1_3	1	3	1	1	23_1_1	0	2	1	0	0.881194114685	-165.0	247.0	-168.0	235.0	1
3.0.1	2019_Mar_09_0956	s	s	6	3	SIC	283	2_3	2	3	1	4	23_1_4	-1	-1	1	0	0.48707485199	-322.0	295.0	-327.0	287.0	1
3.0.1	2019_Mar_09_0956	s	s	6	3	SIC	284	1_2	1	2	1	1	23_1_1	0	-1	1	0	2.25219082832	270.0	-183.0	272.0	-186.0	1
3.0.1	2019_Mar_09_0956	s	s	6	3	SIC	285	ABS	0	0	1	4	24_1_4	NA	NA	0	1	2.61967611313	None	None	None	None	1
3.0.1	2019_Mar_09_0956	s	s	6	3	SIC	286	ABS	0	0	4	4	24_4_4	NA	NA	0	1	1.95462393761	None	None	None	None	1
3.0.1	2019_Mar_09_0956	s	s	6	3	SIC	287	4_2	4	2	3	3	23_3_3	1	1	1	0	0.357419967651	-219.0	-256.0	-222.0	-256.0	1
3.0.1	2019_Mar_09_0956	s	s	6	3	SIC	288	4_2	4	2	4	1	23_4_1	0	-1	1	0	0.959745883942	-48.0	-71.0	-38.0	-69.0	1
3.0.1	2019_Mar_09_0956	s	s	6	3	SIC	289	ABS	0	0	4	1	24_4_1	NA	NA	0	1	1.72317504883	None	None	None	None	1
3.0.1	2019_Mar_09_0956	s	s	6	3	SIC	290	ABS	0	0	1	2	24_1_2	NA	NA	0	1	3.53222799301	None	None	None	None	1
3.0.1	2019_Mar_09_0956	s	s	6	3	SIC	291	ABS	0	0	3	3	24_3_3	NA	NA	0	1	3.29715394974	None	None	None	None	1
3.0.1	2019_Mar_09_0956	s	s	6	3	SIC	292	ABS	0	0	4	1	24_4_1	NA	NA	0	1	1.89292001724	None	None	None	None	1
3.0.1	2019_Mar_09_0956	s	s	6	3	SIC	293	1_3	1	3	3	2	23_3_2	2	1	1	0	0.521776914597	-400.0	-11.0	-394.0	-8.0	1
3.0.1	2019_Mar_09_0956	s	s	6	3	SIC	294	ABS	0	0	2	1	24_2_1	NA	NA	0	1	2.061398983	None	None	None	None	1
3.0.1	2019_Mar_09_0956	s	s	6	3	SIC	295	ABS	0	0	2	2	24_2_2	NA	NA	0	1	3.56294703484	None	None	None	None	1
3.0.1	2019_Mar_09_0956	s	s	6	3	SIC	296	ABS	0	0	3	1	24_3_1	NA	NA	0	1	2.51628303528	None	None	None	None	1
3.0.1	2019_Mar_09_0956	s	s	6	3	SIC	297	2_3	2	3	1	3	23_1_3	-1	0	0	1	3.46878004074	284.0	-390.0	None	None	0
3.0.1	2019_Mar_09_0956	s	s	6	3	SIC	298	4_1	4	1	3	1	23_3_1	1	0	1	0	0.488163948059	153.0	-195.0	153.0	-194.0	1
3.0.1	2019_Mar_09_0956	s	s	6	3	SIC	299	ABS	0	0	4	4	24_4_4	NA	NA	0	1	1.62237215042	None	None	None	None	1
3.0.1	2019_Mar_09_0956	s	s	6	3	SIC	300	4_1	4	1	2	3	23_2_3	2	2	1	0	0.36386013031	-316.0	9.0	-312.0	10.0	1
3.0.1	2019_Mar_09_0956	s	s	6	3	SIC	301	ABS	0	0	3	3	24_3_3	NA	NA	0	1	2.2457048893	None	None	None	None	1
3.0.1	2019_Mar_09_0956	s	s	6	3	SIC	302	1_2	1	2	4	1	23_4_1	3	-1	1	0	0.387442827225	318.0	-263.0	317.0	-276.0	1
3.0.1	2019_Mar_09_0956	s	s	6	3	SIC	303	2_2	2	2	3	1	23_3_1	1	-1	1	0	0.686691045761	-399.0	312.0	-399.0	310.0	1
3.0.1	2019_Mar_09_0956	s	s	6	3	SIC	304	ABS	0	0	1	1	24_1_1	NA	NA	0	1	2.57948493958	None	None	None	None	1
3.0.1	2019_Mar_09_0956	s	s	6	3	SIC	305	ABS	0	0	2	4	24_2_4	NA	NA	0	1	3.17771100998	None	None	None	None	1
3.0.1	2019_Mar_09_0956	s	s	6	3	SIC	306	4_3	4	3	2	4	23_2_4	2	-1	1	0	0.357580184937	526.0	57.0	531.0	56.0	1
3.0.1	2019_Mar_09_0956	s	s	6	3	SIC	307	3_1	3	1	4	2	23_4_2	-1	1	1	0	0.429107904434	-476.0	341.0	-481.0	340.0	1
3.0.1	2019_Mar_09_0956	s	s	6	3	SIC	308	3_2	3	2	4	4	23_4_4	-1	2	1	0	0.352127075195	-497.0	339.0	-496.0	328.0	1
3.0.1	2019_Mar_09_0956	s	s	6	3	SIC	309	3_1	3	1	4	3	23_4_3	-1	2	1	0	0.340281963348	-148.0	54.0	-149.0	51.0	1
3.0.1	2019_Mar_09_0956	s	s	6	3	SIC	310	ABS	0	0	4	3	24_4_3	NA	NA	0	1	3.02482008934	None	None	None	None	1
3.0.1	2019_Mar_09_0956	s	s	6	3	SIC	311	3_2	3	2	1	3	23_1_3	2	1	1	0	0.501887798309	-484.0	-314.0	-482.0	-310.0	1
3.0.1	2019_Mar_09_0956	s	s	6	3	SIC	312	ABS	0	0	2	3	24_2_3	NA	NA	0	1	3.22187805176	None	None	None	None	1
3.0.1	2019_Mar_09_0956	s	s	6	3	SIC	313	2_1	2	1	3	1	23_3_1	1	0	1	0	0.422878026962	-322.0	193.0	-314.0	195.0	1
3.0.1	2019_Mar_09_0956	s	s	6	3	SIC	314	1_2	1	2	3	3	23_3_3	2	1	1	0	0.387406826019	-177.0	335.0	-179.0	332.0	1
3.0.1	2019_Mar_09_0956	s	s	6	3	SIC	315	ABS	0	0	2	1	24_2_1	NA	NA	0	1	2.50447392464	None	None	None	None	1
3.0.1	2019_Mar_09_0956	s	s	6	3	SIC	316	4_3	4	3	3	3	23_3_3	1	0	1	0	0.410833120346	253.0	-108.0	261.0	-107.0	1
3.0.1	2019_Mar_09_0956	s	s	6	3	SIC	317	3_2	3	2	3	4	23_3_4	0	2	1	0	0.637239933014	-36.0	-114.0	-32.0	-112.0	1
3.0.1	2019_Mar_09_0956	s	s	6	3	SIC	318	3_4	3	4	2	2	23_2_2	1	2	1	0	0.437405109406	-90.0	354.0	-99.0	352.0	1
3.0.1	2019_Mar_09_0956	s	s	6	3	SIC	319	4_4	4	4	1	3	23_1_3	3	1	1	0	0.363920211792	-495.0	-377.0	-499.0	-376.0	1
3.0.1	2019_Mar_09_0956	s	s	6	3	SIC	320	ABS	0	0	4	4	24_4_4	NA	NA	0	1	2.33372378349	None	None	None	None	1
3.0.1	2019_Mar_09_0956	s	s	6	3	SIC	321	1_2	1	2	4	3	23_4_3	3	1	1	0	0.357846975327	535.0	180.0	531.0	175.0	1
3.0.1	2019_Mar_09_0956	s	s	6	3	SIC	322	ABS	0	0	1	2	24_1_2	NA	NA	0	1	3.98134493828	None	None	None	None	1
3.0.1	2019_Mar_09_0956	s	s	6	3	SIC	323	ABS	0	0	1	2	24_1_2	NA	NA	0	1	4.33923196793	None	None	None	None	1
3.0.1	2019_Mar_09_0956	s	s	6	3	SIC	324	2_4	2	4	3	2	23_3_2	1	2	1	0	0.486414909363	-313.0	-252.0	-318.0	-253.0	1
3.0.1	2019_Mar_09_0956	s	s	6	3	SIC	325	ABS	0	0	1	2	24_1_2	NA	NA	0	1	3.93161702156	None	None	None	None	1
3.0.1	2019_Mar_09_0956	s	s	6	3	SIC	326	ABS	0	0	2	1	24_2_1	NA	NA	0	1	2.81025791168	None	None	None	None	1
3.0.1	2019_Mar_09_0956	s	s	6	3	SIC	327	ABS	0	0	2	3	24_2_3	NA	NA	0	1	3.16284489632	None	None	None	None	1
3.0.1	2019_Mar_09_0956	s	s	6	3	SIC	328	ABS	0	0	2	3	24_2_3	NA	NA	0	1	3.19599699974	None	None	None	None	1
3.0.1	2019_Mar_09_0956	s	s	6	3	SIC	329	ABS	0	0	2	2	24_2_2	NA	NA	0	1	3.90693497658	None	None	None	None	1
3.0.1	2019_Mar_09_0956	s	s	6	3	SIC	330	ABS	0	0	1	4	24_1_4	NA	NA	0	1	2.30456399918	None	None	None	None	1
3.0.1	2019_Mar_09_0956	s	s	6	3	SIC	331	1_4	1	4	3	4	23_3_4	2	0	1	0	0.555960893631	-432.0	-186.0	-430.0	-188.0	1
3.0.1	2019_Mar_09_0956	s	s	6	3	SIC	332	ABS	0	0	1	2	24_1_2	NA	NA	0	1	3.08362984657	None	None	None	None	1
3.0.1	2019_Mar_09_0956	s	s	6	3	SIC	333	ABS	0	0	1	3	24_1_3	NA	NA	0	1	3.44194412231	None	None	None	None	1
3.0.1	2019_Mar_09_0956	s	s	6	3	SIC	334	ABS	0	0	1	3	24_1_3	NA	NA	0	1	3.0689599514	None	None	None	None	1
3.0.1	2019_Mar_09_0956	s	s	6	3	SIC	335	4_4	4	4	4	1	23_4_1	0	3	1	0	0.481668949127	61.0	334.0	61.0	334.0	1
3.0.1	2019_Mar_09_0956	s	s	6	3	SIC	336	4_3	4	3	1	2	23_1_2	3	1	1	0	0.334182977676	203.0	330.0	200.0	316.0	1
3.0.1	2019_Mar_09_0956	s	s	6	3	SIC	337	ABS	0	0	3	1	24_3_1	NA	NA	0	1	1.70930600166	None	None	None	None	1
3.0.1	2019_Mar_09_0956	s	s	6	3	SIC	338	2_3	2	3	3	1	23_3_1	1	2	1	0	0.474991083145	453.0	-347.0	450.0	-343.0	1
3.0.1	2019_Mar_09_0956	s	s	6	3	SIC	339	ABS	0	0	2	1	24_2_1	NA	NA	0	1	2.78962993622	None	None	None	None	1
3.0.1	2019_Mar_09_0956	s	s	6	3	SIC	340	ABS	0	0	1	4	24_1_4	NA	NA	0	1	2.11628293991	None	None	None	None	1
3.0.1	2019_Mar_09_0956	s	s	6	3	SIC	341	1_4	1	4	3	1	23_3_1	2	3	1	0	0.410933017731	-467.0	25.0	-471.0	24.0	1
3.0.1	2019_Mar_09_0956	s	s	6	3	SIC	342	ABS	0	0	1	4	24_1_4	NA	NA	0	1	1.82229208946	None	None	None	None	1
3.0.1	2019_Mar_09_0956	s	s	6	3	SIC	343	ABS	0	0	4	3	24_4_3	NA	NA	0	1	2.70436787605	None	None	None	None	1
3.0.1	2019_Mar_09_0956	s	s	6	3	SIC	344	ABS	0	0	1	1	24_1_1	NA	NA	0	1	1.78199410439	None	None	None	None	1
3.0.1	2019_Mar_09_0956	s	s	6	3	SIC	345	1_3	1	3	2	1	23_2_1	1	2	1	0	0.814984798431	-377.0	238.0	-370.0	233.0	1
3.0.1	2019_Mar_09_0956	s	s	6	3	SIC	346	2_4	2	4	3	3	23_3_3	1	1	1	0	0.579597949982	-188.0	369.0	-189.0	356.0	1
3.0.1	2019_Mar_09_0956	s	s	6	3	SIC	347	3_4	3	4	1	1	23_1_1	2	3	1	0	0.505028009415	-322.0	-320.0	-316.0	-317.0	1
3.0.1	2019_Mar_09_0956	s	s	6	3	SIC	348	ABS	0	0	3	4	24_3_4	NA	NA	0	1	1.96344184875	None	None	None	None	1
3.0.1	2019_Mar_09_0956	s	s	6	3	SIC	349	1_1	1	1	1	2	23_1_2	0	1	1	0	3.39826202393	224.0	-45.0	226.0	-49.0	1
3.0.1	2019_Mar_09_0956	s	s	6	3	SIC	350	ABS	0	0	3	2	24_3_2	NA	NA	0	1	3.40387296677	None	None	None	None	1
3.0.1	2019_Mar_09_0956	s	s	6	3	SIC	351	3_3	3	3	2	4	23_2_4	1	-1	1	0	0.49619102478	-85.0	-335.0	-76.0	-339.0	1
3.0.1	2019_Mar_09_0956	s	s	6	3	SIC	352	ABS	0	0	2	4	24_2_4	NA	NA	0	1	2.10457396507	None	None	None	None	1
3.0.1	2019_Mar_09_0956	s	s	6	3	SIC	353	ABS	0	0	2	2	24_2_2	NA	NA	0	1	2.50458407402	None	None	None	None	1
3.0.1	2019_Mar_09_0956	s	s	6	3	SIC	354	ABS	0	0	4	3	24_4_3	NA	NA	0	1	3.53948402405	None	None	None	None	1
3.0.1	2019_Mar_09_0956	s	s	6	3	SIC	355	ABS	0	0	1	4	24_1_4	NA	NA	0	1	1.95160794258	None	None	None	None	1
3.0.1	2019_Mar_09_0956	s	s	6	3	SIC	356	ABS	0	0	4	4	24_4_4	NA	NA	0	1	1.86935901642	None	None	None	None	1
3.0.1	2019_Mar_09_0956	s	s	6	3	SIC	357	ABS	0	0	2	4	24_2_4	NA	NA	0	1	2.35157203674	None	None	None	None	1
3.0.1	2019_Mar_09_0956	s	s	6	3	SIC	358	2_4	2	4	4	1	23_4_1	2	3	1	0	0.44619512558	-530.0	184.0	-524.0	178.0	1
3.0.1	2019_Mar_09_0956	s	s	6	3	SIC	359	ABS	0	0	3	1	24_3_1	NA	NA	0	1	2.02609086037	None	None	None	None	1
3.0.1	2019_Mar_09_0956	s	s	6	3	SIC	360	ABS	0	0	2	3	24_2_3	NA	NA	0	1	3.0924539566	None	None	None	None	1
3.0.1	2019_Mar_09_0956	s	s	6	3	SIC	361	2_3	2	3	4	1	23_4_1	2	2	1	0	0.36892914772	-77.0	-180.0	-70.0	-177.0	1
3.0.1	2019_Mar_09_0956	s	s	6	3	SIC	362	ABS	0	0	3	3	24_3_3	NA	NA	0	1	2.98666787148	None	None	None	None	1
3.0.1	2019_Mar_09_0956	s	s	6	3	SIC	363	ABS	0	0	1	4	24_1_4	NA	NA	0	1	2.35191202164	None	None	None	None	1
3.0.1	2019_Mar_09_0956	s	s	6	3	SIC	364	1_1	1	1	2	1	23_2_1	1	0	0	1	1.93988609314	477.0	-43.0	None	None	0
3.0.1	2019_Mar_09_0956	s	s	6	3	SIC	365	ABS	0	0	1	4	24_1_4	NA	NA	0	1	2.0314950943	None	None	None	None	1
3.0.1	2019_Mar_09_0956	s	s	6	3	SIC	366	3_2	3	2	1	1	23_1_1	2	-1	1	0	0.505036115646	463.0	163.0	462.0	165.0	1
3.0.1	2019_Mar_09_0956	s	s	6	3	SIC	367	2_4	2	4	2	1	23_2_1	0	3	1	0	0.516782999039	516.0	-54.0	513.0	-60.0	1
3.0.1	2019_Mar_09_0956	s	s	6	3	SIC	368	3_2	3	2	3	3	23_3_3	0	1	1	0	1.5008919239	-246.0	304.0	-242.0	303.0	1
3.0.1	2019_Mar_09_0956	s	s	6	3	SIC	369	4_2	4	2	3	4	23_3_4	1	2	0	1	0.399107933044	-524.0	-294.0	None	None	0
3.0.1	2019_Mar_09_0956	s	s	6	3	SIC	370	2_3	2	3	4	2	23_4_2	2	1	1	0	0.333140850067	134.0	45.0	134.0	50.0	1
3.0.1	2019_Mar_09_0956	s	s	6	3	SIC	371	2_3	2	3	2	4	23_2_4	0	-1	1	0	0.528494119644	134.0	298.0	134.0	292.0	1
3.0.1	2019_Mar_09_0956	s	s	6	3	SIC	372	1_1	1	1	4	3	23_4_3	3	2	1	0	0.516736030579	-236.0	225.0	-233.0	223.0	1
3.0.1	2019_Mar_09_0956	s	s	6	3	SIC	373	ABS	0	0	1	1	24_1_1	NA	NA	0	1	1.77526092529	None	None	None	None	1
3.0.1	2019_Mar_09_0956	s	s	6	3	SIC	374	ABS	0	0	3	3	24_3_3	NA	NA	0	1	3.06379508972	None	None	None	None	1
3.0.1	2019_Mar_09_0956	s	s	6	3	SIC	375	1_1	1	1	4	4	23_4_4	3	3	1	0	0.387356996536	-391.0	-405.0	-387.0	-406.0	1
3.0.1	2019_Mar_09_0956	s	s	6	3	SIC	376	3_2	3	2	1	2	23_1_2	2	0	1	0	0.434464931488	-110.0	-323.0	-103.0	-314.0	1
3.0.1	2019_Mar_09_0956	s	s	6	3	SIC	377	2_1	2	1	2	3	23_2_3	0	2	1	0	0.637252807617	-355.0	-45.0	-348.0	-50.0	1
3.0.1	2019_Mar_09_0956	s	s	6	3	SIC	378	ABS	0	0	2	4	24_2_4	NA	NA	0	1	2.17518305779	None	None	None	None	1
3.0.1	2019_Mar_09_0956	s	s	6	3	SIC	379	ABS	0	0	4	4	24_4_4	NA	NA	0	1	1.86931180954	None	None	None	None	1
3.0.1	2019_Mar_09_0956	s	s	6	3	SIC	380	4_2	4	2	4	4	23_4_4	0	2	1	0	0.615934848785	72.0	406.0	78.0	400.0	1
3.0.1	2019_Mar_09_0956	s	s	6	3	SIC	381	3_3	3	3	1	4	23_1_4	2	-1	1	0	0.658013105392	417.0	-266.0	410.0	-264.0	1
3.0.1	2019_Mar_09_0956	s	s	6	3	SIC	382	ABS	0	0	3	4	24_3_4	NA	NA	0	1	1.98688292503	None	None	None	None	1
3.0.1	2019_Mar_09_0956	s	s	6	3	SIC	383	4_4	4	4	3	4	23_3_4	1	0	1	0	0.474822044373	-99.0	329.0	-106.0	329.0	1
3.0.1	2019_Mar_09_0956	s	s	6	3	SIC	384	2_3	2	3	1	1	23_1_1	-1	2	1	0	1.78988003731	428.0	107.0	427.0	103.0	1
3.0.1	2019_Mar_09_0956	s	s	6	3	SIC	385	ABS	0	0	4	1	24_4_1	NA	NA	0	1	1.54006814957	None	None	None	None	1
3.0.1	2019_Mar_09_0956	s	s	6	3	SIC	386	3_2	3	2	2	4	23_2_4	1	2	1	0	0.437363147736	-288.0	3.0	-280.0	0.0	1
3.0.1	2019_Mar_09_0956	s	s	6	3	SIC	387	ABS	0	0	3	2	24_3_2	NA	NA	0	1	2.39181900024	None	None	None	None	1
3.0.1	2019_Mar_09_0956	s	s	6	3	SIC	388	ABS	0	0	1	1	24_1_1	NA	NA	0	1	1.95673394203	None	None	None	None	1
3.0.1	2019_Mar_09_0956	s	s	6	3	SIC	389	ABS	0	0	4	3	24_4_3	NA	NA	0	1	2.96842098236	None	None	None	None	1
3.0.1	2019_Mar_09_0956	s	s	6	3	SIC	390	2_4	2	4	1	4	23_1_4	-1	0	1	0	2.99837899208	-76.0	263.0	-81.0	262.0	1
3.0.1	2019_Mar_09_0956	s	s	6	3	SIC	391	ABS	0	0	4	1	24_4_1	NA	NA	0	1	1.3453400135	None	None	None	None	1
3.0.1	2019_Mar_09_0956	s	s	6	3	SIC	392	ABS	0	0	2	1	24_2_1	NA	NA	0	1	3.08365893364	None	None	None	None	1
3.0.1	2019_Mar_09_0956	s	s	6	3	SIC	393	ABS	0	0	3	4	24_3_4	NA	NA	0	1	2.13390016556	None	None	None	None	1
3.0.1	2019_Mar_09_0956	s	s	6	3	SIC	394	3_3	3	3	4	1	23_4_1	-1	2	1	0	0.451721906662	-476.0	-188.0	-472.0	-193.0	1
3.0.1	2019_Mar_09_0956	s	s	6	3	SIC	395	ABS	0	0	4	3	24_4_3	NA	NA	0	1	2.69689202309	None	None	None	None	1
3.0.1	2019_Mar_09_0956	s	s	6	3	SIC	396	3_1	3	1	3	2	23_3_2	0	1	1	0	2.88077497482	-217.0	72.0	-221.0	73.0	1
3.0.1	2019_Mar_09_0956	s	s	6	3	SIC	397	ABS	0	0	3	3	24_3_3	NA	NA	0	1	3.16900014877	None	None	None	None	1
3.0.1	2019_Mar_09_0956	s	s	6	3	SIC	398	ABS	0	0	3	1	24_3_1	NA	NA	0	1	1.90753483772	None	None	None	None	1
3.0.1	2019_Mar_09_0956	s	s	6	3	SIC	399	ABS	0	0	3	2	24_3_2	NA	NA	0	1	5.12060689926	None	None	None	None	1
3.0.1	2019_Mar_09_0956	s	s	6	3	SIC	400	4_1	4	1	4	2	23_4_2	0	1	1	0	3.91581487656	179.0	-264.0	176.0	-265.0	1
3.0.1	2019_Mar_09_0956	s	s	6	3	SIC	401	1_1	1	1	3	3	23_3_3	2	2	1	0	0.446230888367	-40.0	-167.0	-46.0	-174.0	1
3.0.1	2019_Mar_09_0956	s	s	6	3	SIC	402	ABS	0	0	1	3	24_1_3	NA	NA	0	1	2.89255785942	None	None	None	None	1
3.0.1	2019_Mar_09_0956	s	s	6	3	SIC	403	3_4	3	4	2	4	23_2_4	1	0	1	0	0.476227998734	74.0	141.0	70.0	132.0	1
3.0.1	2019_Mar_09_0956	s	s	6	3	SIC	404	1_1	1	1	3	4	23_3_4	2	3	1	0	0.575567007065	-442.0	326.0	-446.0	322.0	1
3.0.1	2019_Mar_09_0956	s	s	6	3	SIC	405	ABS	0	0	3	4	24_3_4	NA	NA	0	1	1.55457806587	None	None	None	None	1
3.0.1	2019_Mar_09_0956	s	s	6	3	SIC	406	ABS	0	0	2	4	24_2_4	NA	NA	0	1	2.23389101028	None	None	None	None	1
3.0.1	2019_Mar_09_0956	s	s	6	3	SIC	407	ABS	0	0	4	3	24_4_3	NA	NA	0	1	3.19835019112	None	None	None	None	1
3.0.1	2019_Mar_09_0956	s	s	6	3	SIC	408	4_3	4	3	3	2	23_3_2	1	1	1	0	0.399229049683	-116.0	-222.0	-123.0	-223.0	1
3.0.1	2019_Mar_09_0956	s	s	6	3	SIC	409	2_3	2	3	3	2	23_3_2	1	1	1	0	0.554975986481	444.0	-301.0	437.0	-303.0	1
3.0.1	2019_Mar_09_0956	s	s	6	3	SIC	410	4_2	4	2	4	3	23_4_3	0	1	1	0	3.127794981	418.0	270.0	417.0	268.0	1
3.0.1	2019_Mar_09_0956	s	s	6	3	SIC	411	ABS	0	0	3	4	24_3_4	NA	NA	0	1	1.81074690819	None	None	None	None	1
3.0.1	2019_Mar_09_0956	s	s	6	3	SIC	412	3_1	3	1	1	3	23_1_3	2	2	1	0	0.669745922089	-326.0	140.0	-316.0	140.0	1
3.0.1	2019_Mar_09_0956	s	s	6	3	SIC	413	3_1	3	1	1	1	23_1_1	2	0	1	0	0.520373821259	-499.0	-352.0	-492.0	-356.0	1
3.0.1	2019_Mar_09_0956	s	s	6	3	SIC	414	1_2	1	2	3	2	23_3_2	2	0	1	0	0.387435913086	-256.0	-99.0	-251.0	-100.0	1
3.0.1	2019_Mar_09_0956	s	s	6	3	SIC	415	ABS	0	0	3	4	24_3_4	NA	NA	0	1	1.86208701134	None	None	None	None	1
3.0.1	2019_Mar_09_0956	s	s	6	3	SIC	416	ABS	0	0	2	2	24_2_2	NA	NA	0	1	3.70411610603	None	None	None	None	1
3.0.1	2019_Mar_09_0956	s	s	6	3	SIC	417	ABS	0	0	4	2	24_4_2	NA	NA	0	1	3.6217341423	None	None	None	None	1
3.0.1	2019_Mar_09_0956	s	s	6	3	SIC	418	3_4	3	4	4	2	23_4_2	-1	2	1	0	0.519634008408	297.0	154.0	301.0	153.0	1
3.0.1	2019_Mar_09_0956	s	s	6	3	SIC	419	1_3	1	3	3	3	23_3_3	2	0	1	0	0.51114988327	-451.0	259.0	-450.0	263.0	1
3.0.1	2019_Mar_09_0956	s	s	6	3	SIC	420	ABS	0	0	4	4	24_4_4	NA	NA	0	1	1.18712496758	None	None	None	None	1
3.0.1	2019_Mar_09_0956	s	s	6	3	SIC	421	4_1	4	1	4	4	23_4_4	0	3	1	0	0.528497934341	521.0	137.0	524.0	129.0	1
3.0.1	2019_Mar_09_0956	s	s	6	3	SIC	422	ABS	0	0	2	1	24_2_1	NA	NA	0	1	2.15665602684	None	None	None	None	1
3.0.1	2019_Mar_09_0956	s	s	6	3	SIC	423	ABS	0	0	1	3	24_1_3	NA	NA	0	1	3.01307702065	None	None	None	None	1
3.0.1	2019_Mar_09_0956	s	s	6	3	SIC	424	1_4	1	4	1	1	23_1_1	0	3	1	0	0.457968950272	-248.0	-287.0	-242.0	-282.0	1
3.0.1	2019_Mar_09_0956	s	s	6	3	SIC	425	ABS	0	0	3	3	24_3_3	NA	NA	0	1	2.77492308617	None	None	None	None	1
3.0.1	2019_Mar_09_0956	s	s	6	3	SIC	426	4_2	4	2	2	2	23_2_2	2	0	1	0	0.434982061386	535.0	23.0	539.0	22.0	1
3.0.1	2019_Mar_09_0956	s	s	6	3	SIC	427	ABS	0	0	4	3	24_4_3	NA	NA	0	1	2.90951490402	None	None	None	None	1
3.0.1	2019_Mar_09_0956	s	s	6	3	SIC	428	ABS	0	0	3	1	24_3_1	NA	NA	0	1	2.04613494873	None	None	None	None	1
3.0.1	2019_Mar_09_0956	s	s	6	3	SIC	429	ABS	0	0	2	1	24_2_1	NA	NA	0	1	2.45229697227	None	None	None	None	1
3.0.1	2019_Mar_09_0956	s	s	6	3	SIC	430	2_3	2	3	2	2	23_2_2	0	1	1	0	1.42914414406	-165.0	-185.0	-173.0	-188.0	1
3.0.1	2019_Mar_09_0956	s	s	6	3	SIC	431	2_1	2	1	4	4	23_4_4	2	3	1	0	0.42268705368	-417.0	9.0	-408.0	5.0	1
3.0.1	2019_Mar_09_0956	s	s	6	3	SIC	432	ABS	0	0	3	1	24_3_1	NA	NA	0	1	1.77546882629	None	None	None	None	1
3.0.1	2019_Mar_09_0956	s	s	6	3	SIC	433	ABS	0	0	4	3	24_4_3	NA	NA	0	1	3.12772297859	None	None	None	None	1
3.0.1	2019_Mar_09_0956	s	s	6	3	SIC	434	ABS	0	0	1	3	24_1_3	NA	NA	0	1	3.33951115608	None	None	None	None	1
3.0.1	2019_Mar_09_0956	s	s	6	3	SIC	435	ABS	0	0	2	4	24_2_4	NA	NA	0	1	1.8458211422	None	None	None	None	1
3.0.1	2019_Mar_09_0956	s	s	6	3	SIC	436	3_3	3	3	1	3	23_1_3	2	0	1	0	1.11668300629	-491.0	300.0	-486.0	294.0	1
3.0.1	2019_Mar_09_0956	s	s	6	3	SIC	437	ABS	0	0	2	2	24_2_2	NA	NA	0	1	3.28065705299	None	None	None	None	1
3.0.1	2019_Mar_09_0956	s	s	6	3	SIC	438	4_4	4	4	2	3	23_2_3	2	1	1	0	0.437464952469	324.0	-254.0	315.0	-256.0	1
3.0.1	2019_Mar_09_0956	s	s	6	3	SIC	439	1_2	1	2	1	3	23_1_3	0	1	1	0	2.21327519417	-214.0	-90.0	-211.0	-88.0	1
3.0.1	2019_Mar_09_0956	s	s	6	3	SIC	440	ABS	0	0	1	2	24_1_2	NA	NA	0	1	2.86897587776	None	None	None	None	1
3.0.1	2019_Mar_09_0956	s	s	6	3	SIC	441	4_4	4	4	2	4	23_2_4	2	0	1	0	0.387459993362	209.0	-31.0	209.0	-33.0	1
3.0.1	2019_Mar_09_0956	s	s	6	3	SIC	442	ABS	0	0	4	3	24_4_3	NA	NA	0	1	3.16302895546	None	None	None	None	1
3.0.1	2019_Mar_09_0956	s	s	6	3	SIC	443	ABS	0	0	4	1	24_4_1	NA	NA	0	1	1.80172300339	None	None	None	None	1
3.0.1	2019_Mar_09_0956	s	s	6	3	SIC	444	3_1	3	1	1	4	23_1_4	2	3	1	0	0.399248838425	245.0	76.0	254.0	77.0	1
3.0.1	2019_Mar_09_0956	s	s	6	3	SIC	445	3_2	3	2	2	3	23_2_3	1	1	1	0	0.451456069946	-312.0	-257.0	-304.0	-249.0	1
3.0.1	2019_Mar_09_0956	s	s	6	3	SIC	446	3_1	3	1	2	1	23_2_1	1	0	1	0	0.364371061325	96.0	17.0	91.0	13.0	1
3.0.1	2019_Mar_09_0956	s	s	6	3	SIC	447	2_2	2	2	1	2	23_1_2	-1	0	1	0	4.4685049057	-163.0	82.0	-162.0	88.0	1
3.0.1	2019_Mar_09_0956	s	s	6	3	SIC	448	ABS	0	0	2	2	24_2_2	NA	NA	0	1	3.10422992706	None	None	None	None	1
3.0.1	2019_Mar_09_0956	s	s	6	3	SIC	449	2_4	2	4	1	3	23_1_3	-1	1	1	0	0.53292798996	-323.0	47.0	-328.0	49.0	1
3.0.1	2019_Mar_09_0956	s	s	6	3	SIC	450	ABS	0	0	2	1	24_2_1	NA	NA	0	1	2.16329097748	None	None	None	None	1
3.0.1	2019_Mar_09_0956	s	s	6	3	SIC	451	1_4	1	4	2	1	23_2_1	1	3	1	0	0.634366989136	-7.0	163.0	-11.0	160.0	1
3.0.1	2019_Mar_09_0956	s	s	6	3	SIC	452	ABS	0	0	1	1	24_1_1	NA	NA	0	1	3.14910197258	None	None	None	None	1
3.0.1	2019_Mar_09_0956	s	s	6	3	SIC	453	ABS	0	0	4	1	24_4_1	NA	NA	0	1	2.71911692619	None	None	None	None	1
3.0.1	2019_Mar_09_0956	s	s	6	3	SIC	454	1_1	1	1	4	2	23_4_2	3	1	1	0	0.484316110611	-396.0	147.0	-393.0	133.0	1
3.0.1	2019_Mar_09_0956	s	s	6	3	SIC	455	1_3	1	3	3	1	23_3_1	2	2	1	0	0.528542995453	13.0	-6.0	23.0	-5.0	1
3.0.1	2019_Mar_09_0956	s	s	6	3	SIC	456	4_2	4	2	3	2	23_3_2	1	0	1	0	0.383362054825	112.0	398.0	114.0	400.0	1
3.0.1	2019_Mar_09_0956	s	s	6	3	SIC	457	ABS	0	0	3	3	24_3_3	NA	NA	0	1	3.21708917618	None	None	None	None	1
3.0.1	2019_Mar_09_0956	s	s	6	3	SIC	458	ABS	0	0	1	3	24_1_3	NA	NA	0	1	2.9688911438	None	None	None	None	1
3.0.1	2019_Mar_09_0956	s	s	6	3	SIC	459	ABS	0	0	2	3	24_2_3	NA	NA	0	1	3.12792301178	None	None	None	None	1
3.0.1	2019_Mar_09_0956	s	s	6	3	SIC	460	3_1	3	1	3	4	23_3_4	0	3	1	0	0.49613404274	-291.0	242.0	-281.0	242.0	1
3.0.1	2019_Mar_09_0956	s	s	6	3	SIC	461	3_1	3	1	3	3	23_3_3	0	2	1	0	1.22520899773	516.0	-32.0	521.0	-32.0	1
3.0.1	2019_Mar_09_0956	s	s	6	3	SIC	462	2_4	2	4	3	1	23_3_1	1	3	1	0	0.403913021088	-144.0	-228.0	-146.0	-230.0	1
3.0.1	2019_Mar_09_0956	s	s	6	3	SIC	463	3_3	3	3	4	3	23_4_3	-1	0	1	0	0.352117061615	87.0	60.0	91.0	50.0	1
3.0.1	2019_Mar_09_0956	s	s	6	3	SIC	464	ABS	0	0	3	2	24_3_2	NA	NA	0	1	3.69232392311	None	None	None	None	1
3.0.1	2019_Mar_09_0956	s	s	6	3	SIC	465	ABS	0	0	2	3	24_2_3	NA	NA	0	1	3.11606788635	None	None	None	None	1
3.0.1	2019_Mar_09_0956	s	s	6	3	SIC	466	4_4	4	4	1	4	23_1_4	3	0	1	0	0.546991109848	-196.0	-226.0	-197.0	-227.0	1
3.0.1	2019_Mar_09_0956	s	s	6	3	SIC	467	2_2	2	2	4	2	23_4_2	2	0	1	0	0.333111047745	177.0	222.0	178.0	213.0	1
3.0.1	2019_Mar_09_0956	s	s	6	3	SIC	468	ABS	0	0	2	3	24_2_3	NA	NA	0	1	3.41391015053	None	None	None	None	1
3.0.1	2019_Mar_09_0956	s	s	6	3	SIC	469	ABS	0	0	3	3	24_3_3	NA	NA	0	1	2.9047601223	None	None	None	None	1
3.0.1	2019_Mar_09_0956	s	s	6	3	SIC	470	ABS	0	0	3	1	24_3_1	NA	NA	0	1	1.78991413116	None	None	None	None	1
3.0.1	2019_Mar_09_0956	s	s	6	3	SIC	471	ABS	0	0	3	2	24_3_2	NA	NA	0	1	4.24518799782	None	None	None	None	1
3.0.1	2019_Mar_09_0956	s	s	6	3	SIC	472	ABS	0	0	3	4	24_3_4	NA	NA	0	1	2.0306930542	None	None	None	None	1
3.0.1	2019_Mar_09_0956	s	s	6	3	SIC	473	ABS	0	0	3	2	24_3_2	NA	NA	0	1	2.73080897331	None	None	None	None	1
3.0.1	2019_Mar_09_0956	s	s	6	3	SIC	474	ABS	0	0	3	1	24_3_1	NA	NA	0	1	2.14271402359	None	None	None	None	1
3.0.1	2019_Mar_09_0956	s	s	6	3	SIC	475	ABS	0	0	2	3	24_2_3	NA	NA	0	1	4.03333806992	None	None	None	None	1
3.0.1	2019_Mar_09_0956	s	s	6	3	SIC	476	3_2	3	2	4	3	23_4_3	-1	1	1	0	0.458011865616	-283.0	-281.0	-291.0	-278.0	1
3.0.1	2019_Mar_09_0956	s	s	6	3	SIC	477	4_2	4	2	2	3	23_2_3	2	1	1	0	0.411005973816	201.0	333.0	193.0	336.0	1
3.0.1	2019_Mar_09_0956	s	s	6	3	SIC	478	3_1	3	1	4	1	23_4_1	-1	0	1	0	0.352112054825	382.0	8.0	375.0	6.0	1
3.0.1	2019_Mar_09_0956	s	s	6	3	SIC	479	1_2	1	2	4	2	23_4_2	3	0	1	0	0.332000017166	93.0	309.0	90.0	309.0	1
3.0.1	2019_Mar_09_0956	s	s	6	3	SIC	480	2_2	2	2	3	2	23_3_2	1	0	1	0	0.44251203537	-407.0	-382.0	-413.0	-388.0	1
