Version	Date	Stimuli	Method	Subject	Session	Condition	Trial	Target	TColor	TShape	DColor	DShape	Distractors	Channel1	Channel2	LMouseButton	RMouseButton	RT	TargetX	TargetY	ResponseX	ResponseY	Correct
3.0.1	2019_Mar_05_1014	s	s	6	1	Capacity	1	2_1	2	1	4	1	23_4_1	2	0	1	0	0.763828992844	-95.0	-383.0	-91.0	-387.0	1
3.0.1	2019_Mar_05_1014	s	s	6	1	Capacity	2	ABS	0	0	2	1	24_2_1	NA	NA	0	1	1.16377687454	None	None	None	None	1
3.0.1	2019_Mar_05_1014	s	s	6	1	Capacity	3	ABS	0	0	3	1	24_3_1	NA	NA	0	1	1.35684299469	None	None	None	None	1
3.0.1	2019_Mar_05_1014	s	s	6	1	Capacity	4	ABS	0	0	1	1	24_1_1	NA	NA	0	1	1.35186100006	None	None	None	None	1
3.0.1	2019_Mar_05_1014	s	s	6	1	Capacity	5	4_1	4	1	2	1	23_2_1	2	0	1	0	0.620146989822	420.0	38.0	422.0	38.0	1
3.0.1	2019_Mar_05_1014	s	s	6	1	Capacity	6	4_1	4	1	3	1	23_3_1	1	0	1	0	0.422728061676	362.0	-24.0	361.0	-28.0	1
3.0.1	2019_Mar_05_1014	s	s	6	1	Capacity	7	ABS	0	0	2	1	24_2_1	NA	NA	0	1	1.01582193375	None	None	None	None	1
3.0.1	2019_Mar_05_1014	s	s	6	1	Capacity	8	ABS	0	0	1	1	24_1_1	NA	NA	0	1	1.09314894676	None	None	None	None	1
3.0.1	2019_Mar_05_1014	s	s	6	1	Capacity	9	ABS	0	0	4	1	24_4_1	NA	NA	0	1	1.39884901047	None	None	None	None	1
3.0.1	2019_Mar_05_1014	s	s	6	1	Capacity	10	ABS	0	0	2	1	24_2_1	NA	NA	0	1	2.00387310982	None	None	None	None	1
3.0.1	2019_Mar_05_1014	s	s	6	1	Capacity	11	1_1	1	1	4	1	23_4_1	3	0	1	0	0.622694015503	-124.0	113.0	-119.0	107.0	1
3.0.1	2019_Mar_05_1014	s	s	6	1	Capacity	12	4_1	4	1	1	1	23_1_1	3	0	1	0	0.752075910568	386.0	-94.0	392.0	-95.0	1
3.0.1	2019_Mar_05_1014	s	s	6	1	Capacity	13	3_1	3	1	4	1	23_4_1	-1	0	1	0	0.509956121445	-153.0	210.0	-156.0	207.0	1
3.0.1	2019_Mar_05_1014	s	s	6	1	Capacity	14	ABS	0	0	3	1	24_3_1	NA	NA	0	1	1.35707616806	None	None	None	None	1
3.0.1	2019_Mar_05_1014	s	s	6	1	Capacity	15	3_1	3	1	2	1	23_2_1	1	0	1	0	0.540457010269	-223.0	-252.0	-223.0	-256.0	1
3.0.1	2019_Mar_05_1014	s	s	6	1	Capacity	16	ABS	0	0	4	1	24_4_1	NA	NA	0	1	1.29306817055	None	None	None	None	1
3.0.1	2019_Mar_05_1014	s	s	6	1	Capacity	17	1_1	1	1	3	1	23_3_1	2	0	1	0	0.564028978348	-250.0	-312.0	-241.0	-316.0	1
3.0.1	2019_Mar_05_1014	s	s	6	1	Capacity	18	ABS	0	0	4	1	24_4_1	NA	NA	0	1	1.23850393295	None	None	None	None	1
3.0.1	2019_Mar_05_1014	s	s	6	1	Capacity	19	ABS	0	0	1	1	24_1_1	NA	NA	0	1	1.43707704544	None	None	None	None	1
3.0.1	2019_Mar_05_1014	s	s	6	1	Capacity	20	1_1	1	1	2	1	23_2_1	1	0	0	1	1.42287302017	292.0	-101.0	None	None	0
3.0.1	2019_Mar_05_1014	s	s	6	1	Capacity	21	ABS	0	0	3	1	24_3_1	NA	NA	0	1	2.2015748024	None	None	None	None	1
3.0.1	2019_Mar_05_1014	s	s	6	1	Capacity	22	2_1	2	1	3	1	23_3_1	1	0	1	0	0.827048063278	145.0	215.0	149.0	208.0	1
3.0.1	2019_Mar_05_1014	s	s	6	1	Capacity	23	3_1	3	1	1	1	23_1_1	2	0	1	0	0.650160074234	-1.0	-380.0	-3.0	-385.0	1
3.0.1	2019_Mar_05_1014	s	s	6	1	Capacity	24	2_1	2	1	1	1	23_1_1	-1	0	1	0	1.14303302765	-480.0	-305.0	-484.0	-309.0	1
3.0.1	2019_Mar_05_1014	s	s	6	1	Capacity	25	ABS	0	0	3	1	24_3_1	NA	NA	0	1	2.14270401001	None	None	None	None	1
3.0.1	2019_Mar_05_1014	s	s	6	1	Capacity	26	ABS	0	0	4	1	24_4_1	NA	NA	0	1	1.95173001289	None	None	None	None	1
3.0.1	2019_Mar_05_1014	s	s	6	1	Capacity	27	2_1	2	1	3	1	23_3_1	1	0	1	0	0.752008199692	-14.0	-153.0	-13.0	-152.0	1
3.0.1	2019_Mar_05_1014	s	s	6	1	Capacity	28	1_1	1	1	4	1	23_4_1	3	0	1	0	0.481579065323	-183.0	250.0	-185.0	246.0	1
3.0.1	2019_Mar_05_1014	s	s	6	1	Capacity	29	ABS	0	0	1	1	24_1_1	NA	NA	0	1	3.09803581238	None	None	None	None	1
3.0.1	2019_Mar_05_1014	s	s	6	1	Capacity	30	ABS	0	0	4	1	24_4_1	NA	NA	0	1	1.76348495483	None	None	None	None	1
3.0.1	2019_Mar_05_1014	s	s	6	1	Capacity	31	ABS	0	0	3	1	24_3_1	NA	NA	0	1	1.82709407806	None	None	None	None	1
3.0.1	2019_Mar_05_1014	s	s	6	1	Capacity	32	ABS	0	0	1	1	24_1_1	NA	NA	0	1	2.22555994987	None	None	None	None	1
3.0.1	2019_Mar_05_1014	s	s	6	1	Capacity	33	4_1	4	1	3	1	23_3_1	1	0	1	0	0.63440489769	201.0	308.0	205.0	302.0	1
3.0.1	2019_Mar_05_1014	s	s	6	1	Capacity	34	ABS	0	0	2	1	24_2_1	NA	NA	0	1	1.39249515533	None	None	None	None	1
3.0.1	2019_Mar_05_1014	s	s	6	1	Capacity	35	4_1	4	1	1	1	23_1_1	3	0	1	0	0.516882896423	188.0	215.0	182.0	213.0	1
3.0.1	2019_Mar_05_1014	s	s	6	1	Capacity	36	1_1	1	1	3	1	23_3_1	2	0	1	0	0.634359121323	360.0	-68.0	359.0	-70.0	1
3.0.1	2019_Mar_05_1014	s	s	6	1	Capacity	37	3_1	3	1	4	1	23_4_1	-1	0	1	0	0.591490030289	445.0	-53.0	444.0	-51.0	1
3.0.1	2019_Mar_05_1014	s	s	6	1	Capacity	38	ABS	0	0	2	1	24_2_1	NA	NA	0	1	2.21049904823	None	None	None	None	1
3.0.1	2019_Mar_05_1014	s	s	6	1	Capacity	39	2_1	2	1	1	1	23_1_1	-1	0	1	0	3.02484822273	-412.0	114.0	-411.0	119.0	1
3.0.1	2019_Mar_05_1014	s	s	6	1	Capacity	40	2_1	2	1	4	1	23_4_1	2	0	1	0	0.496186971664	238.0	-315.0	243.0	-315.0	1
3.0.1	2019_Mar_05_1014	s	s	6	1	Capacity	41	3_1	3	1	2	1	23_2_1	1	0	1	0	0.646531820297	-30.0	-354.0	-38.0	-359.0	1
3.0.1	2019_Mar_05_1014	s	s	6	1	Capacity	42	1_1	1	1	2	1	23_2_1	1	0	0	1	2.04580807686	-154.0	-405.0	None	None	0
3.0.1	2019_Mar_05_1014	s	s	6	1	Capacity	43	ABS	0	0	3	1	24_3_1	NA	NA	0	1	1.51654005051	None	None	None	None	1
3.0.1	2019_Mar_05_1014	s	s	6	1	Capacity	44	4_1	4	1	2	1	23_2_1	2	0	1	0	0.521073102951	-39.0	-406.0	-43.0	-408.0	1
3.0.1	2019_Mar_05_1014	s	s	6	1	Capacity	45	ABS	0	0	1	1	24_1_1	NA	NA	0	1	1.0842730999	None	None	None	None	1
3.0.1	2019_Mar_05_1014	s	s	6	1	Capacity	46	ABS	0	0	2	1	24_2_1	NA	NA	0	1	1.21615695953	None	None	None	None	1
3.0.1	2019_Mar_05_1014	s	s	6	1	Capacity	47	3_1	3	1	1	1	23_1_1	2	0	1	0	0.516804933548	-401.0	-251.0	-396.0	-252.0	1
3.0.1	2019_Mar_05_1014	s	s	6	1	Capacity	48	ABS	0	0	4	1	24_4_1	NA	NA	0	1	1.32090401649	None	None	None	None	1
3.0.1	2019_Mar_05_1014	s	s	6	1	Capacity	49	3_1	3	1	2	1	23_2_1	1	0	1	0	0.849445104599	103.0	-17.0	108.0	-21.0	1
3.0.1	2019_Mar_05_1014	s	s	6	1	Capacity	50	ABS	0	0	3	1	24_3_1	NA	NA	0	1	1.51649093628	None	None	None	None	1
3.0.1	2019_Mar_05_1014	s	s	6	1	Capacity	51	ABS	0	0	2	1	24_2_1	NA	NA	0	1	1.28497290611	None	None	None	None	1
3.0.1	2019_Mar_05_1014	s	s	6	1	Capacity	52	ABS	0	0	4	1	24_4_1	NA	NA	0	1	1.84872484207	None	None	None	None	1
3.0.1	2019_Mar_05_1014	s	s	6	1	Capacity	53	4_1	4	1	2	1	23_2_1	2	0	1	0	0.604337930679	335.0	-118.0	337.0	-116.0	1
3.0.1	2019_Mar_05_1014	s	s	6	1	Capacity	54	3_1	3	1	4	1	23_4_1	-1	0	1	0	0.533789873123	-434.0	-75.0	-435.0	-90.0	1
3.0.1	2019_Mar_05_1014	s	s	6	1	Capacity	55	ABS	0	0	1	1	24_1_1	NA	NA	0	1	1.2107000351	None	None	None	None	1
3.0.1	2019_Mar_05_1014	s	s	6	1	Capacity	56	ABS	0	0	4	1	24_4_1	NA	NA	0	1	1.16365408897	None	None	None	None	1
3.0.1	2019_Mar_05_1014	s	s	6	1	Capacity	57	ABS	0	0	2	1	24_2_1	NA	NA	0	1	1.48419499397	None	None	None	None	1
3.0.1	2019_Mar_05_1014	s	s	6	1	Capacity	58	2_1	2	1	4	1	23_4_1	2	0	1	0	0.437439918518	-67.0	143.0	-61.0	140.0	1
3.0.1	2019_Mar_05_1014	s	s	6	1	Capacity	59	ABS	0	0	2	1	24_2_1	NA	NA	0	1	1.23839211464	None	None	None	None	1
3.0.1	2019_Mar_05_1014	s	s	6	1	Capacity	60	ABS	0	0	1	1	24_1_1	NA	NA	0	1	1.25124812126	None	None	None	None	1
3.0.1	2019_Mar_05_1014	s	s	6	1	Capacity	61	4_1	4	1	3	1	23_3_1	1	0	1	0	0.658236980438	-303.0	409.0	-295.0	406.0	1
3.0.1	2019_Mar_05_1014	s	s	6	1	Capacity	62	1_1	1	1	3	1	23_3_1	2	0	1	0	0.740315198898	292.0	-386.0	299.0	-380.0	1
3.0.1	2019_Mar_05_1014	s	s	6	1	Capacity	63	ABS	0	0	3	1	24_3_1	NA	NA	0	1	1.16372108459	None	None	None	None	1
3.0.1	2019_Mar_05_1014	s	s	6	1	Capacity	64	3_1	3	1	1	1	23_1_1	2	0	1	0	0.669718980789	-472.0	-351.0	-472.0	-357.0	1
3.0.1	2019_Mar_05_1014	s	s	6	1	Capacity	65	1_1	1	1	4	1	23_4_1	3	0	1	0	0.487718105316	-506.0	-24.0	-505.0	-22.0	1
3.0.1	2019_Mar_05_1014	s	s	6	1	Capacity	66	2_1	2	1	1	1	23_1_1	-1	0	0	1	1.43708992004	225.0	288.0	None	None	0
3.0.1	2019_Mar_05_1014	s	s	6	1	Capacity	67	ABS	0	0	1	1	24_1_1	NA	NA	0	1	1.92818117142	None	None	None	None	1
3.0.1	2019_Mar_05_1014	s	s	6	1	Capacity	68	1_1	1	1	2	1	23_2_1	1	0	0	1	2.33347702026	78.0	-212.0	None	None	0
3.0.1	2019_Mar_05_1014	s	s	6	1	Capacity	69	4_1	4	1	1	1	23_1_1	3	0	1	0	0.613821029663	347.0	-23.0	348.0	-27.0	1
3.0.1	2019_Mar_05_1014	s	s	6	1	Capacity	70	2_1	2	1	3	1	23_3_1	1	0	1	0	0.555114030838	404.0	-121.0	398.0	-128.0	1
3.0.1	2019_Mar_05_1014	s	s	6	1	Capacity	71	ABS	0	0	3	1	24_3_1	NA	NA	0	1	1.48135995865	None	None	None	None	1
3.0.1	2019_Mar_05_1014	s	s	6	1	Capacity	72	ABS	0	0	4	1	24_4_1	NA	NA	0	1	1.20188593864	None	None	None	None	1
3.0.1	2019_Mar_05_1014	s	s	6	1	Capacity	73	ABS	0	0	3	1	24_3_1	NA	NA	0	1	1.25096702576	None	None	None	None	1
3.0.1	2019_Mar_05_1014	s	s	6	1	Capacity	74	1_1	1	1	4	1	23_4_1	3	0	1	0	0.545525789261	121.0	79.0	114.0	77.0	1
3.0.1	2019_Mar_05_1014	s	s	6	1	Capacity	75	1_1	1	1	3	1	23_3_1	2	0	1	0	0.5285820961	-251.0	-377.0	-250.0	-387.0	1
3.0.1	2019_Mar_05_1014	s	s	6	1	Capacity	76	3_1	3	1	1	1	23_1_1	2	0	1	0	0.560868024826	309.0	227.0	314.0	222.0	1
3.0.1	2019_Mar_05_1014	s	s	6	1	Capacity	77	ABS	0	0	3	1	24_3_1	NA	NA	0	1	1.39065098763	None	None	None	None	1
3.0.1	2019_Mar_05_1014	s	s	6	1	Capacity	78	ABS	0	0	1	1	24_1_1	NA	NA	0	1	0.740302085876	None	None	None	None	1
3.0.1	2019_Mar_05_1014	s	s	6	1	Capacity	79	2_1	2	1	3	1	23_3_1	1	0	1	0	0.886384010315	-314.0	-374.0	-319.0	-376.0	1
3.0.1	2019_Mar_05_1014	s	s	6	1	Capacity	80	ABS	0	0	1	1	24_1_1	NA	NA	0	1	2.06352305412	None	None	None	None	1
3.0.1	2019_Mar_05_1014	s	s	6	1	Capacity	81	ABS	0	0	2	1	24_2_1	NA	NA	0	1	1.78098797798	None	None	None	None	1
3.0.1	2019_Mar_05_1014	s	s	6	1	Capacity	82	ABS	0	0	1	1	24_1_1	NA	NA	0	1	1.56901597977	None	None	None	None	1
3.0.1	2019_Mar_05_1014	s	s	6	1	Capacity	83	4_1	4	1	1	1	23_1_1	3	0	1	0	0.516771793365	-503.0	187.0	-508.0	192.0	1
3.0.1	2019_Mar_05_1014	s	s	6	1	Capacity	84	ABS	0	0	2	1	24_2_1	NA	NA	0	1	1.04086995125	None	None	None	None	1
3.0.1	2019_Mar_05_1014	s	s	6	1	Capacity	85	ABS	0	0	4	1	24_4_1	NA	NA	0	1	1.52289414406	None	None	None	None	1
3.0.1	2019_Mar_05_1014	s	s	6	1	Capacity	86	4_1	4	1	2	1	23_2_1	2	0	1	0	0.423120975494	-116.0	-157.0	-104.0	-154.0	1
3.0.1	2019_Mar_05_1014	s	s	6	1	Capacity	87	ABS	0	0	4	1	24_4_1	NA	NA	0	1	1.5551199913	None	None	None	None	1
3.0.1	2019_Mar_05_1014	s	s	6	1	Capacity	88	ABS	0	0	2	1	24_2_1	NA	NA	0	1	1.28133296967	None	None	None	None	1
3.0.1	2019_Mar_05_1014	s	s	6	1	Capacity	89	3_1	3	1	4	1	23_4_1	-1	0	1	0	0.4462890625	7.0	89.0	14.0	86.0	1
3.0.1	2019_Mar_05_1014	s	s	6	1	Capacity	90	2_1	2	1	4	1	23_4_1	2	0	1	0	0.422774076462	150.0	-292.0	155.0	-291.0	1
3.0.1	2019_Mar_05_1014	s	s	6	1	Capacity	91	4_1	4	1	3	1	23_3_1	1	0	1	0	0.437488794327	-131.0	33.0	-133.0	33.0	1
3.0.1	2019_Mar_05_1014	s	s	6	1	Capacity	92	ABS	0	0	3	1	24_3_1	NA	NA	0	1	1.52826499939	None	None	None	None	1
3.0.1	2019_Mar_05_1014	s	s	6	1	Capacity	93	3_1	3	1	2	1	23_2_1	1	0	1	0	0.857959985733	8.0	294.0	13.0	287.0	1
3.0.1	2019_Mar_05_1014	s	s	6	1	Capacity	94	ABS	0	0	4	1	24_4_1	NA	NA	0	1	1.19230008125	None	None	None	None	1
3.0.1	2019_Mar_05_1014	s	s	6	1	Capacity	95	2_1	2	1	1	1	23_1_1	-1	0	1	0	3.85995316505	16.0	140.0	19.0	137.0	1
3.0.1	2019_Mar_05_1014	s	s	6	1	Capacity	96	1_1	1	1	2	1	23_2_1	1	0	0	1	2.42213106155	332.0	-184.0	None	None	0
3.0.1	2019_Mar_05_1014	s	s	6	1	Capacity	1	1_1	1	1	1	2	23_1_2	0	1	1	0	4.93892288208	520.0	-122.0	517.0	-125.0	1
3.0.1	2019_Mar_05_1014	s	s	6	1	Capacity	2	ABS	0	0	1	2	24_1_2	NA	NA	0	1	6.15040493011	None	None	None	None	1
3.0.1	2019_Mar_05_1014	s	s	6	1	Capacity	3	1_4	1	4	1	2	23_1_2	0	2	1	0	1.14307284355	-322.0	-308.0	-329.0	-312.0	1
3.0.1	2019_Mar_05_1014	s	s	6	1	Capacity	4	ABS	0	0	1	4	24_1_4	NA	NA	0	1	4.03858399391	None	None	None	None	1
3.0.1	2019_Mar_05_1014	s	s	6	1	Capacity	5	ABS	0	0	1	2	24_1_2	NA	NA	1	0	1.69846796989	None	None	146.0	6.0	0
3.0.1	2019_Mar_05_1014	s	s	6	1	Capacity	6	ABS	0	0	1	4	24_1_4	NA	NA	0	1	3.21030378342	None	None	None	None	1
3.0.1	2019_Mar_05_1014	s	s	6	1	Capacity	7	ABS	0	0	1	3	24_1_3	NA	NA	0	1	6.06119012833	None	None	None	None	1
3.0.1	2019_Mar_05_1014	s	s	6	1	Capacity	8	1_2	1	2	1	4	23_1_4	0	2	1	0	1.10784196854	322.0	16.0	318.0	20.0	1
3.0.1	2019_Mar_05_1014	s	s	6	1	Capacity	9	1_4	1	4	1	3	23_1_3	0	1	1	0	2.89261698723	527.0	-340.0	526.0	-344.0	1
3.0.1	2019_Mar_05_1014	s	s	6	1	Capacity	10	ABS	0	0	1	3	24_1_3	NA	NA	0	1	4.19797921181	None	None	None	None	1
3.0.1	2019_Mar_05_1014	s	s	6	1	Capacity	11	ABS	0	0	1	4	24_1_4	NA	NA	0	1	2.71624112129	None	None	None	None	1
3.0.1	2019_Mar_05_1014	s	s	6	1	Capacity	12	1_3	1	3	1	1	23_1_1	0	2	1	0	1.20195388794	120.0	-19.0	126.0	-20.0	1
3.0.1	2019_Mar_05_1014	s	s	6	1	Capacity	13	1_1	1	1	1	3	23_1_3	0	2	1	0	1.1078441143	94.0	285.0	95.0	272.0	1
3.0.1	2019_Mar_05_1014	s	s	6	1	Capacity	14	ABS	0	0	1	1	24_1_1	NA	NA	0	1	1.97249412537	None	None	None	None	1
3.0.1	2019_Mar_05_1014	s	s	6	1	Capacity	15	1_3	1	3	1	4	23_1_4	0	-1	1	0	1.05801296234	117.0	280.0	122.0	284.0	1
3.0.1	2019_Mar_05_1014	s	s	6	1	Capacity	16	ABS	0	0	1	2	24_1_2	NA	NA	0	1	6.02983403206	None	None	None	None	1
3.0.1	2019_Mar_05_1014	s	s	6	1	Capacity	17	1_4	1	4	1	1	23_1_1	0	3	1	0	0.84078001976	134.0	-82.0	138.0	-74.0	1
3.0.1	2019_Mar_05_1014	s	s	6	1	Capacity	18	1_3	1	3	1	2	23_1_2	0	1	1	0	6.02967190742	-534.0	-196.0	-538.0	-197.0	1
3.0.1	2019_Mar_05_1014	s	s	6	1	Capacity	19	1_2	1	2	1	1	23_1_1	0	-1	1	0	0.790163040161	-72.0	36.0	144.0	-23.0	0
3.0.1	2019_Mar_05_1014	s	s	6	1	Capacity	20	ABS	0	0	1	3	24_1_3	NA	NA	0	1	9.15470004082	None	None	None	None	1
3.0.1	2019_Mar_05_1014	s	s	6	1	Capacity	21	ABS	0	0	1	1	24_1_1	NA	NA	0	1	3.33948707581	None	None	None	None	1
3.0.1	2019_Mar_05_1014	s	s	6	1	Capacity	22	1_2	1	2	1	3	23_1_3	0	1	1	0	4.48565101624	-462.0	45.0	-459.0	41.0	1
3.0.1	2019_Mar_05_1014	s	s	6	1	Capacity	23	ABS	0	0	1	1	24_1_1	NA	NA	0	1	2.67200994492	None	None	None	None	1
3.0.1	2019_Mar_05_1014	s	s	6	1	Capacity	24	1_1	1	1	1	4	23_1_4	0	3	1	0	0.954946041107	52.0	-258.0	51.0	-262.0	1
3.0.1	2019_Mar_05_1014	s	s	6	1	Capacity	25	1_1	1	1	1	4	23_1_4	0	3	1	0	0.672614812851	205.0	-265.0	215.0	-263.0	1
3.0.1	2019_Mar_05_1014	s	s	6	1	Capacity	26	ABS	0	0	1	1	24_1_1	NA	NA	0	1	2.38681983948	None	None	None	None	1
3.0.1	2019_Mar_05_1014	s	s	6	1	Capacity	27	1_2	1	2	1	3	23_1_3	0	1	1	0	2.11633086205	54.0	-223.0	56.0	-226.0	1
3.0.1	2019_Mar_05_1014	s	s	6	1	Capacity	28	1_4	1	4	1	2	23_1_2	0	2	1	0	0.705052137375	305.0	-92.0	302.0	-93.0	1
3.0.1	2019_Mar_05_1014	s	s	6	1	Capacity	29	ABS	0	0	1	4	24_1_4	NA	NA	0	1	2.89258289337	None	None	None	None	1
3.0.1	2019_Mar_05_1014	s	s	6	1	Capacity	30	ABS	0	0	1	2	24_1_2	NA	NA	0	1	8.70259094238	None	None	None	None	1
3.0.1	2019_Mar_05_1014	s	s	6	1	Capacity	31	1_1	1	1	1	2	23_1_2	0	1	1	0	2.88078093529	6.0	52.0	14.0	47.0	1
3.0.1	2019_Mar_05_1014	s	s	6	1	Capacity	32	1_4	1	4	1	1	23_1_1	0	3	1	0	0.672641038895	-30.0	-198.0	-30.0	-206.0	1
3.0.1	2019_Mar_05_1014	s	s	6	1	Capacity	33	ABS	0	0	1	1	24_1_1	NA	NA	0	1	2.36997699738	None	None	None	None	1
3.0.1	2019_Mar_05_1014	s	s	6	1	Capacity	34	ABS	0	0	1	4	24_1_4	NA	NA	0	1	3.80987787247	None	None	None	None	1
3.0.1	2019_Mar_05_1014	s	s	6	1	Capacity	35	1_4	1	4	1	3	23_1_3	0	1	1	0	4.59795188904	132.0	327.0	145.0	337.0	1
3.0.1	2019_Mar_05_1014	s	s	6	1	Capacity	36	1_2	1	2	1	1	23_1_1	0	-1	0	1	3.39830708504	-92.0	372.0	None	None	0
3.0.1	2019_Mar_05_1014	s	s	6	1	Capacity	37	ABS	0	0	1	3	24_1_3	NA	NA	0	1	5.63908791542	None	None	None	None	1
3.0.1	2019_Mar_05_1014	s	s	6	1	Capacity	38	ABS	0	0	1	4	24_1_4	NA	NA	0	1	2.39860486984	None	None	None	None	1
3.0.1	2019_Mar_05_1014	s	s	6	1	Capacity	39	1_3	1	3	1	2	23_1_2	0	1	0	1	5.48293805122	185.0	148.0	None	None	0
3.0.1	2019_Mar_05_1014	s	s	6	1	Capacity	40	ABS	0	0	1	2	24_1_2	NA	NA	0	1	8.06236886978	None	None	None	None	1
3.0.1	2019_Mar_05_1014	s	s	6	1	Capacity	41	1_3	1	3	1	4	23_1_4	0	-1	1	0	0.814570903778	-157.0	126.0	-161.0	126.0	1
3.0.1	2019_Mar_05_1014	s	s	6	1	Capacity	42	1_1	1	1	1	3	23_1_3	0	2	1	0	1.24600982666	-293.0	109.0	-288.0	107.0	1
3.0.1	2019_Mar_05_1014	s	s	6	1	Capacity	43	ABS	0	0	1	3	24_1_3	NA	NA	0	1	5.99751496315	None	None	None	None	1
3.0.1	2019_Mar_05_1014	s	s	6	1	Capacity	44	1_3	1	3	1	1	23_1_1	0	2	1	0	1.6733148098	-374.0	-327.0	-374.0	-334.0	1
3.0.1	2019_Mar_05_1014	s	s	6	1	Capacity	45	1_2	1	2	1	4	23_1_4	0	2	1	0	0.68155002594	-424.0	31.0	-422.0	29.0	1
3.0.1	2019_Mar_05_1014	s	s	6	1	Capacity	46	ABS	0	0	1	3	24_1_3	NA	NA	0	1	5.25335621834	None	None	None	None	1
3.0.1	2019_Mar_05_1014	s	s	6	1	Capacity	47	ABS	0	0	1	2	24_1_2	NA	NA	0	1	4.53916978836	None	None	None	None	1
3.0.1	2019_Mar_05_1014	s	s	6	1	Capacity	48	ABS	0	0	1	1	24_1_1	NA	NA	0	1	2.43678689003	None	None	None	None	1
3.0.1	2019_Mar_05_1014	s	s	6	1	Capacity	49	ABS	0	0	1	2	24_1_2	NA	NA	0	1	5.49464607239	None	None	None	None	1
3.0.1	2019_Mar_05_1014	s	s	6	1	Capacity	50	1_4	1	4	1	3	23_1_3	0	1	1	0	0.858124017715	361.0	-370.0	365.0	-373.0	1
3.0.1	2019_Mar_05_1014	s	s	6	1	Capacity	51	ABS	0	0	1	1	24_1_1	NA	NA	0	1	2.16335916519	None	None	None	None	1
3.0.1	2019_Mar_05_1014	s	s	6	1	Capacity	52	ABS	0	0	1	3	24_1_3	NA	NA	0	1	6.61202096939	None	None	None	None	1
3.0.1	2019_Mar_05_1014	s	s	6	1	Capacity	53	1_4	1	4	1	2	23_1_2	0	2	1	0	0.945798158646	420.0	92.0	420.0	88.0	1
3.0.1	2019_Mar_05_1014	s	s	6	1	Capacity	54	ABS	0	0	1	3	24_1_3	NA	NA	0	1	5.04973506927	None	None	None	None	1
3.0.1	2019_Mar_05_1014	s	s	6	1	Capacity	55	1_2	1	2	1	1	23_1_1	0	-1	1	0	2.62534308434	133.0	-265.0	138.0	-273.0	1
3.0.1	2019_Mar_05_1014	s	s	6	1	Capacity	56	1_3	1	3	1	4	23_1_4	0	-1	1	0	0.921580076218	226.0	-221.0	227.0	-233.0	1
3.0.1	2019_Mar_05_1014	s	s	6	1	Capacity	57	1_2	1	2	1	3	23_1_3	0	1	1	0	3.18132901192	-81.0	-129.0	-73.0	-132.0	1
3.0.1	2019_Mar_05_1014	s	s	6	1	Capacity	58	ABS	0	0	1	1	24_1_1	NA	NA	0	1	3.39870214462	None	None	None	None	1
3.0.1	2019_Mar_05_1014	s	s	6	1	Capacity	59	1_1	1	1	1	2	23_1_2	0	1	1	0	4.13928103447	486.0	-108.0	487.0	-107.0	1
3.0.1	2019_Mar_05_1014	s	s	6	1	Capacity	60	ABS	0	0	1	4	24_1_4	NA	NA	0	1	3.35408902168	None	None	None	None	1
3.0.1	2019_Mar_05_1014	s	s	6	1	Capacity	61	ABS	0	0	1	2	24_1_2	NA	NA	0	1	5.24480414391	None	None	None	None	1
3.0.1	2019_Mar_05_1014	s	s	6	1	Capacity	62	ABS	0	0	1	1	24_1_1	NA	NA	0	1	2.81020212173	None	None	None	None	1
3.0.1	2019_Mar_05_1014	s	s	6	1	Capacity	63	1_1	1	1	1	3	23_1_3	0	2	1	0	2.75515007973	-412.0	-301.0	-417.0	-303.0	1
3.0.1	2019_Mar_05_1014	s	s	6	1	Capacity	64	1_3	1	3	1	1	23_1_1	0	2	1	0	1.17540693283	-539.0	-66.0	-540.0	-74.0	1
3.0.1	2019_Mar_05_1014	s	s	6	1	Capacity	65	ABS	0	0	1	4	24_1_4	NA	NA	0	1	3.99813103676	None	None	None	None	1
3.0.1	2019_Mar_05_1014	s	s	6	1	Capacity	66	ABS	0	0	1	3	24_1_3	NA	NA	0	1	8.47912502289	None	None	None	None	1
3.0.1	2019_Mar_05_1014	s	s	6	1	Capacity	67	1_4	1	4	1	1	23_1_1	0	3	1	0	0.987243890762	411.0	-262.0	417.0	-265.0	1
3.0.1	2019_Mar_05_1014	s	s	6	1	Capacity	68	1_3	1	3	1	2	23_1_2	0	1	1	0	2.38682293892	-169.0	27.0	-162.0	24.0	1
3.0.1	2019_Mar_05_1014	s	s	6	1	Capacity	69	1_2	1	2	1	4	23_1_4	0	2	1	0	0.705028057098	-354.0	-69.0	-350.0	-74.0	1
3.0.1	2019_Mar_05_1014	s	s	6	1	Capacity	70	ABS	0	0	1	4	24_1_4	NA	NA	0	1	3.72244310379	None	None	None	None	1
3.0.1	2019_Mar_05_1014	s	s	6	1	Capacity	71	1_1	1	1	1	4	23_1_4	0	3	1	0	0.922116041183	295.0	-247.0	301.0	-256.0	1
3.0.1	2019_Mar_05_1014	s	s	6	1	Capacity	72	ABS	0	0	1	2	24_1_2	NA	NA	0	1	8.80242013931	None	None	None	None	1
3.0.1	2019_Mar_05_1014	s	s	6	1	Capacity	73	ABS	0	0	1	2	24_1_2	NA	NA	0	1	7.16185903549	None	None	None	None	1
3.0.1	2019_Mar_05_1014	s	s	6	1	Capacity	74	1_3	1	3	1	1	23_1_1	0	2	1	0	0.975647926331	-440.0	13.0	-435.0	11.0	1
3.0.1	2019_Mar_05_1014	s	s	6	1	Capacity	75	ABS	0	0	1	1	24_1_1	NA	NA	0	1	3.89223480225	None	None	None	None	1
3.0.1	2019_Mar_05_1014	s	s	6	1	Capacity	76	1_2	1	2	1	3	23_1_3	0	1	1	0	2.44566702843	-493.0	-273.0	-493.0	-273.0	1
3.0.1	2019_Mar_05_1014	s	s	6	1	Capacity	77	ABS	0	0	1	4	24_1_4	NA	NA	0	1	3.17485189438	None	None	None	None	1
3.0.1	2019_Mar_05_1014	s	s	6	1	Capacity	78	1_4	1	4	1	2	23_1_2	0	2	1	0	0.693245172501	-345.0	330.0	-337.0	330.0	1
3.0.1	2019_Mar_05_1014	s	s	6	1	Capacity	79	ABS	0	0	1	1	24_1_1	NA	NA	0	1	3.22178316116	None	None	None	None	1
3.0.1	2019_Mar_05_1014	s	s	6	1	Capacity	80	ABS	0	0	1	2	24_1_2	NA	NA	0	1	7.24935698509	None	None	None	None	1
3.0.1	2019_Mar_05_1014	s	s	6	1	Capacity	81	ABS	0	0	1	4	24_1_4	NA	NA	0	1	2.47418498993	None	None	None	None	1
3.0.1	2019_Mar_05_1014	s	s	6	1	Capacity	82	1_1	1	1	1	4	23_1_4	0	3	1	0	0.9520611763	466.0	-112.0	472.0	-113.0	1
3.0.1	2019_Mar_05_1014	s	s	6	1	Capacity	83	ABS	0	0	1	4	24_1_4	NA	NA	0	1	3.33986711502	None	None	None	None	1
3.0.1	2019_Mar_05_1014	s	s	6	1	Capacity	84	1_3	1	3	1	4	23_1_4	0	-1	1	0	0.838809967041	-279.0	351.0	-273.0	347.0	1
3.0.1	2019_Mar_05_1014	s	s	6	1	Capacity	85	ABS	0	0	1	3	24_1_3	NA	NA	0	1	6.50332808495	None	None	None	None	1
3.0.1	2019_Mar_05_1014	s	s	6	1	Capacity	86	ABS	0	0	1	2	24_1_2	NA	NA	0	1	4.68027091026	None	None	None	None	1
3.0.1	2019_Mar_05_1014	s	s	6	1	Capacity	87	1_1	1	1	1	2	23_1_2	0	1	1	0	1.9709508419	-481.0	83.0	-481.0	86.0	1
3.0.1	2019_Mar_05_1014	s	s	6	1	Capacity	88	1_4	1	4	1	1	23_1_1	0	3	1	0	0.790174007416	323.0	-323.0	320.0	-329.0	1
3.0.1	2019_Mar_05_1014	s	s	6	1	Capacity	89	ABS	0	0	1	3	24_1_3	NA	NA	0	1	6.09786701202	None	None	None	None	1
3.0.1	2019_Mar_05_1014	s	s	6	1	Capacity	90	1_2	1	2	1	1	23_1_1	0	-1	0	1	4.30396199226	89.0	-152.0	None	None	0
3.0.1	2019_Mar_05_1014	s	s	6	1	Capacity	91	ABS	0	0	1	3	24_1_3	NA	NA	0	1	5.52699804306	None	None	None	None	1
3.0.1	2019_Mar_05_1014	s	s	6	1	Capacity	92	1_4	1	4	1	3	23_1_3	0	1	1	0	0.952028036118	480.0	-354.0	475.0	-348.0	1
3.0.1	2019_Mar_05_1014	s	s	6	1	Capacity	93	ABS	0	0	1	1	24_1_1	NA	NA	0	1	2.7397518158	None	None	None	None	1
3.0.1	2019_Mar_05_1014	s	s	6	1	Capacity	94	1_2	1	2	1	4	23_1_4	0	2	1	0	0.909363031387	-131.0	102.0	-125.0	102.0	1
3.0.1	2019_Mar_05_1014	s	s	6	1	Capacity	95	1_3	1	3	1	2	23_1_2	0	1	1	0	1.20745897293	-145.0	-36.0	-138.0	-39.0	1
3.0.1	2019_Mar_05_1014	s	s	6	1	Capacity	96	1_1	1	1	1	3	23_1_3	0	2	1	0	1.02547907829	533.0	-313.0	524.0	-316.0	1
3.0.1	2019_Mar_05_1014	s	s	6	1	SIC	1	ABS	0	0	2	2	24_2_2	NA	NA	0	1	4.36275792122	None	None	None	None	1
3.0.1	2019_Mar_05_1014	s	s	6	1	SIC	2	1_2	1	2	4	3	23_4_3	3	1	1	0	0.540400981903	388.0	400.0	392.0	395.0	1
3.0.1	2019_Mar_05_1014	s	s	6	1	SIC	3	4_1	4	1	2	3	23_2_3	2	2	1	0	0.416494131088	7.0	-205.0	6.0	-210.0	1
3.0.1	2019_Mar_05_1014	s	s	6	1	SIC	4	ABS	0	0	4	2	24_4_2	NA	NA	0	1	3.8987698555	None	None	None	None	1
3.0.1	2019_Mar_05_1014	s	s	6	1	SIC	5	3_4	3	4	1	4	23_1_4	2	0	1	0	0.520781993866	-381.0	-18.0	-386.0	-25.0	1
3.0.1	2019_Mar_05_1014	s	s	6	1	SIC	6	1_4	1	4	4	4	23_4_4	3	0	1	0	0.434229135513	322.0	-109.0	317.0	-113.0	1
3.0.1	2019_Mar_05_1014	s	s	6	1	SIC	7	ABS	0	0	2	2	24_2_2	NA	NA	0	1	4.5773639679	None	None	None	None	1
3.0.1	2019_Mar_05_1014	s	s	6	1	SIC	8	1_3	1	3	1	1	23_1_1	0	2	1	0	2.58715701103	511.0	194.0	510.0	186.0	1
3.0.1	2019_Mar_05_1014	s	s	6	1	SIC	9	ABS	0	0	1	2	24_1_2	NA	NA	0	1	4.46196579933	None	None	None	None	1
3.0.1	2019_Mar_05_1014	s	s	6	1	SIC	10	4_2	4	2	4	1	23_4_1	0	-1	1	0	1.61356186867	407.0	-58.0	410.0	-70.0	1
3.0.1	2019_Mar_05_1014	s	s	6	1	SIC	11	2_4	2	4	3	4	23_3_4	1	0	1	0	0.775578022003	329.0	58.0	328.0	57.0	1
3.0.1	2019_Mar_05_1014	s	s	6	1	SIC	12	ABS	0	0	4	2	24_4_2	NA	NA	0	1	6.14157390594	None	None	None	None	1
3.0.1	2019_Mar_05_1014	s	s	6	1	SIC	13	3_3	3	3	2	3	23_2_3	1	0	1	0	0.922169923782	-24.0	296.0	-28.0	292.0	1
3.0.1	2019_Mar_05_1014	s	s	6	1	SIC	14	1_2	1	2	4	2	23_4_2	3	0	1	0	0.563850164413	-351.0	-377.0	-345.0	-378.0	1
3.0.1	2019_Mar_05_1014	s	s	6	1	SIC	15	2_2	2	2	3	1	23_3_1	1	-1	0	1	0.187527894974	-240.0	-249.0	None	None	0
3.0.1	2019_Mar_05_1014	s	s	6	1	SIC	16	ABS	0	0	4	3	24_4_3	NA	NA	0	1	3.9444630146	None	None	None	None	1
3.0.1	2019_Mar_05_1014	s	s	6	1	SIC	17	ABS	0	0	1	3	24_1_3	NA	NA	0	1	5.15067505836	None	None	None	None	1
3.0.1	2019_Mar_05_1014	s	s	6	1	SIC	18	ABS	0	0	2	3	24_2_3	NA	NA	0	1	5.28452301025	None	None	None	None	1
3.0.1	2019_Mar_05_1014	s	s	6	1	SIC	19	ABS	0	0	3	2	24_3_2	NA	NA	0	1	4.28328895569	None	None	None	None	1
3.0.1	2019_Mar_05_1014	s	s	6	1	SIC	20	4_2	4	2	4	3	23_4_3	0	1	1	0	3.44999790192	-289.0	55.0	-291.0	50.0	1
3.0.1	2019_Mar_05_1014	s	s	6	1	SIC	21	4_2	4	2	1	2	23_1_2	3	0	1	0	0.580858945847	-447.0	150.0	-437.0	150.0	1
3.0.1	2019_Mar_05_1014	s	s	6	1	SIC	22	ABS	0	0	4	2	24_4_2	NA	NA	0	1	5.26832914352	None	None	None	None	1
3.0.1	2019_Mar_05_1014	s	s	6	1	SIC	23	ABS	0	0	1	2	24_1_2	NA	NA	0	1	6.46793889999	None	None	None	None	1
3.0.1	2019_Mar_05_1014	s	s	6	1	SIC	24	ABS	0	0	4	3	24_4_3	NA	NA	0	1	6.16227293015	None	None	None	None	1
3.0.1	2019_Mar_05_1014	s	s	6	1	SIC	25	4_4	4	4	3	3	23_3_3	1	1	1	0	0.618696928024	-231.0	19.0	-229.0	9.0	1
3.0.1	2019_Mar_05_1014	s	s	6	1	SIC	26	ABS	0	0	3	2	24_3_2	NA	NA	0	1	6.85604906082	None	None	None	None	1
3.0.1	2019_Mar_05_1014	s	s	6	1	SIC	27	4_1	4	1	3	1	23_3_1	1	0	1	0	0.50993514061	-381.0	-373.0	-381.0	-368.0	1
3.0.1	2019_Mar_05_1014	s	s	6	1	SIC	28	ABS	0	0	4	3	24_4_3	NA	NA	0	1	4.44106888771	None	None	None	None	1
3.0.1	2019_Mar_05_1014	s	s	6	1	SIC	29	1_1	1	1	1	3	23_1_3	0	2	1	0	0.501104831696	-16.0	49.0	-8.0	50.0	1
3.0.1	2019_Mar_05_1014	s	s	6	1	SIC	30	ABS	0	0	3	1	24_3_1	NA	NA	0	1	4.04513597488	None	None	None	None	1
3.0.1	2019_Mar_05_1014	s	s	6	1	SIC	31	2_4	2	4	3	3	23_3_3	1	1	1	0	0.803965091705	-117.0	400.0	-113.0	393.0	1
3.0.1	2019_Mar_05_1014	s	s	6	1	SIC	32	ABS	0	0	3	4	24_3_4	NA	NA	0	1	3.51888203621	None	None	None	None	1
3.0.1	2019_Mar_05_1014	s	s	6	1	SIC	33	ABS	0	0	3	1	24_3_1	NA	NA	0	1	3.35533189774	None	None	None	None	1
3.0.1	2019_Mar_05_1014	s	s	6	1	SIC	34	ABS	0	0	3	1	24_3_1	NA	NA	0	1	4.05699205399	None	None	None	None	1
3.0.1	2019_Mar_05_1014	s	s	6	1	SIC	35	4_1	4	1	2	1	23_2_1	2	0	1	0	0.521512031555	-399.0	289.0	-400.0	293.0	1
3.0.1	2019_Mar_05_1014	s	s	6	1	SIC	36	ABS	0	0	4	1	24_4_1	NA	NA	0	1	4.39842796326	None	None	None	None	1
3.0.1	2019_Mar_05_1014	s	s	6	1	SIC	37	ABS	0	0	2	1	24_2_1	NA	NA	0	1	4.86156010628	None	None	None	None	1
3.0.1	2019_Mar_05_1014	s	s	6	1	SIC	38	ABS	0	0	4	4	24_4_4	NA	NA	0	1	3.28058290482	None	None	None	None	1
3.0.1	2019_Mar_05_1014	s	s	6	1	SIC	39	3_2	3	2	4	4	23_4_4	-1	2	1	0	0.999003887177	-487.0	-344.0	-490.0	-341.0	1
3.0.1	2019_Mar_05_1014	s	s	6	1	SIC	40	ABS	0	0	2	1	24_2_1	NA	NA	0	1	2.89903211594	None	None	None	None	1
3.0.1	2019_Mar_05_1014	s	s	6	1	SIC	41	ABS	0	0	2	3	24_2_3	NA	NA	0	1	4.90002608299	None	None	None	None	1
3.0.1	2019_Mar_05_1014	s	s	6	1	SIC	42	ABS	0	0	4	3	24_4_3	NA	NA	0	1	6.57380604744	None	None	None	None	1
3.0.1	2019_Mar_05_1014	s	s	6	1	SIC	43	4_1	4	1	1	2	23_1_2	3	1	1	0	0.582015037537	288.0	327.0	295.0	322.0	1
3.0.1	2019_Mar_05_1014	s	s	6	1	SIC	44	ABS	0	0	3	2	24_3_2	NA	NA	0	1	5.0685532093	None	None	None	None	1
3.0.1	2019_Mar_05_1014	s	s	6	1	SIC	45	ABS	0	0	3	1	24_3_1	NA	NA	0	1	3.08860111237	None	None	None	None	1
3.0.1	2019_Mar_05_1014	s	s	6	1	SIC	46	ABS	0	0	3	3	24_3_3	NA	NA	0	1	4.69954681396	None	None	None	None	1
3.0.1	2019_Mar_05_1014	s	s	6	1	SIC	47	4_1	4	1	3	4	23_3_4	1	3	1	0	0.399230003357	-20.0	-146.0	-11.0	-150.0	1
3.0.1	2019_Mar_05_1014	s	s	6	1	SIC	48	ABS	0	0	3	3	24_3_3	NA	NA	0	1	3.49630880356	None	None	None	None	1
3.0.1	2019_Mar_05_1014	s	s	6	1	SIC	49	4_3	4	3	2	3	23_2_3	2	0	1	0	0.452514886856	-434.0	59.0	-433.0	62.0	1
3.0.1	2019_Mar_05_1014	s	s	6	1	SIC	50	2_4	2	4	1	4	23_1_4	-1	0	1	0	6.85032510757	326.0	-206.0	322.0	-208.0	1
3.0.1	2019_Mar_05_1014	s	s	6	1	SIC	51	ABS	0	0	1	2	24_1_2	NA	NA	0	1	5.44477009773	None	None	None	None	1
3.0.1	2019_Mar_05_1014	s	s	6	1	SIC	52	3_4	3	4	3	3	23_3_3	0	1	1	0	0.616139888763	241.0	-158.0	232.0	-160.0	1
3.0.1	2019_Mar_05_1014	s	s	6	1	SIC	53	ABS	0	0	3	3	24_3_3	NA	NA	0	1	4.42155194283	None	None	None	None	1
3.0.1	2019_Mar_05_1014	s	s	6	1	SIC	54	ABS	0	0	3	4	24_3_4	NA	NA	0	1	2.86917805672	None	None	None	None	1
3.0.1	2019_Mar_05_1014	s	s	6	1	SIC	55	3_1	3	1	4	4	23_4_4	-1	3	1	0	0.552184104919	2.0	277.0	3.0	270.0	1
3.0.1	2019_Mar_05_1014	s	s	6	1	SIC	56	1_1	1	1	4	2	23_4_2	3	1	1	0	0.444749116898	-267.0	-193.0	-271.0	-192.0	1
3.0.1	2019_Mar_05_1014	s	s	6	1	SIC	57	ABS	0	0	4	1	24_4_1	NA	NA	0	1	2.86137509346	None	None	None	None	1
3.0.1	2019_Mar_05_1014	s	s	6	1	SIC	58	1_4	1	4	1	1	23_1_1	0	3	1	0	0.52866101265	-442.0	350.0	-436.0	347.0	1
3.0.1	2019_Mar_05_1014	s	s	6	1	SIC	59	ABS	0	0	4	2	24_4_2	NA	NA	0	1	4.85679006577	None	None	None	None	1
3.0.1	2019_Mar_05_1014	s	s	6	1	SIC	60	ABS	0	0	4	4	24_4_4	NA	NA	0	1	2.54270410538	None	None	None	None	1
3.0.1	2019_Mar_05_1014	s	s	6	1	SIC	61	ABS	0	0	1	4	24_1_4	NA	NA	0	1	3.16304588318	None	None	None	None	1
3.0.1	2019_Mar_05_1014	s	s	6	1	SIC	62	ABS	0	0	4	3	24_4_3	NA	NA	0	1	3.43652701378	None	None	None	None	1
3.0.1	2019_Mar_05_1014	s	s	6	1	SIC	63	2_2	2	2	1	4	23_1_4	-1	2	1	0	0.677735090256	-9.0	175.0	-4.0	178.0	1
3.0.1	2019_Mar_05_1014	s	s	6	1	SIC	64	ABS	0	0	4	3	24_4_3	NA	NA	0	1	4.61260414124	None	None	None	None	1
3.0.1	2019_Mar_05_1014	s	s	6	1	SIC	65	ABS	0	0	1	3	24_1_3	NA	NA	0	1	4.91979193687	None	None	None	None	1
3.0.1	2019_Mar_05_1014	s	s	6	1	SIC	66	4_1	4	1	2	2	23_2_2	2	1	1	0	0.437392950058	192.0	-101.0	180.0	-95.0	1
3.0.1	2019_Mar_05_1014	s	s	6	1	SIC	67	ABS	0	0	3	2	24_3_2	NA	NA	0	1	6.30331921577	None	None	None	None	1
3.0.1	2019_Mar_05_1014	s	s	6	1	SIC	68	4_3	4	3	4	4	23_4_4	0	-1	1	0	1.23926091194	-355.0	-385.0	-356.0	-382.0	1
3.0.1	2019_Mar_05_1014	s	s	6	1	SIC	69	ABS	0	0	3	1	24_3_1	NA	NA	0	1	2.82709288597	None	None	None	None	1
3.0.1	2019_Mar_05_1014	s	s	6	1	SIC	70	ABS	0	0	4	3	24_4_3	NA	NA	0	1	4.40585207939	None	None	None	None	1
3.0.1	2019_Mar_05_1014	s	s	6	1	SIC	71	2_1	2	1	3	3	23_3_3	1	2	1	0	0.496213912964	84.0	-126.0	80.0	-118.0	1
3.0.1	2019_Mar_05_1014	s	s	6	1	SIC	72	ABS	0	0	4	2	24_4_2	NA	NA	0	1	5.10356998444	None	None	None	None	1
3.0.1	2019_Mar_05_1014	s	s	6	1	SIC	73	ABS	0	0	1	2	24_1_2	NA	NA	0	1	5.87438321114	None	None	None	None	1
3.0.1	2019_Mar_05_1014	s	s	6	1	SIC	74	1_3	1	3	2	4	23_2_4	1	-1	1	0	0.805196046829	235.0	70.0	228.0	64.0	1
3.0.1	2019_Mar_05_1014	s	s	6	1	SIC	75	ABS	0	0	2	2	24_2_2	NA	NA	0	1	5.77410006523	None	None	None	None	1
3.0.1	2019_Mar_05_1014	s	s	6	1	SIC	76	ABS	0	0	1	1	24_1_1	NA	NA	0	1	4.11569786072	None	None	None	None	1
3.0.1	2019_Mar_05_1014	s	s	6	1	SIC	77	3_1	3	1	1	2	23_1_2	2	1	1	0	0.956703186035	474.0	285.0	470.0	282.0	1
3.0.1	2019_Mar_05_1014	s	s	6	1	SIC	78	2_4	2	4	4	3	23_4_3	2	1	1	0	0.437384128571	265.0	-66.0	265.0	-70.0	1
3.0.1	2019_Mar_05_1014	s	s	6	1	SIC	79	ABS	0	0	3	4	24_3_4	NA	NA	0	1	3.01674604416	None	None	None	None	1
3.0.1	2019_Mar_05_1014	s	s	6	1	SIC	80	ABS	0	0	2	4	24_2_4	NA	NA	0	1	3.59830188751	None	None	None	None	1
3.0.1	2019_Mar_05_1014	s	s	6	1	SIC	81	2_2	2	2	1	3	23_1_3	-1	1	1	0	4.59791707993	298.0	161.0	300.0	157.0	1
3.0.1	2019_Mar_05_1014	s	s	6	1	SIC	82	1_4	1	4	4	1	23_4_1	3	3	1	0	0.442818164825	170.0	243.0	177.0	236.0	1
3.0.1	2019_Mar_05_1014	s	s	6	1	SIC	83	2_1	2	1	4	1	23_4_1	2	0	1	0	0.399184942245	495.0	374.0	491.0	364.0	1
3.0.1	2019_Mar_05_1014	s	s	6	1	SIC	84	ABS	0	0	2	1	24_2_1	NA	NA	0	1	3.1983590126	None	None	None	None	1
3.0.1	2019_Mar_05_1014	s	s	6	1	SIC	85	ABS	0	0	3	4	24_3_4	NA	NA	0	1	3.08568620682	None	None	None	None	1
3.0.1	2019_Mar_05_1014	s	s	6	1	SIC	86	ABS	0	0	2	2	24_2_2	NA	NA	0	1	5.35065221786	None	None	None	None	1
3.0.1	2019_Mar_05_1014	s	s	6	1	SIC	87	3_3	3	3	4	3	23_4_3	-1	0	1	0	0.446307897568	116.0	-185.0	114.0	-193.0	1
3.0.1	2019_Mar_05_1014	s	s	6	1	SIC	88	ABS	0	0	3	3	24_3_3	NA	NA	0	1	5.01595282555	None	None	None	None	1
3.0.1	2019_Mar_05_1014	s	s	6	1	SIC	89	ABS	0	0	1	2	24_1_2	NA	NA	0	1	5.74837017059	None	None	None	None	1
3.0.1	2019_Mar_05_1014	s	s	6	1	SIC	90	ABS	0	0	2	1	24_2_1	NA	NA	0	1	4.45677685738	None	None	None	None	1
3.0.1	2019_Mar_05_1014	s	s	6	1	SIC	91	1_2	1	2	4	4	23_4_4	3	2	1	0	0.505158901215	470.0	327.0	476.0	323.0	1
3.0.1	2019_Mar_05_1014	s	s	6	1	SIC	92	4_2	4	2	2	2	23_2_2	2	0	1	0	0.618786096573	133.0	303.0	128.0	293.0	1
3.0.1	2019_Mar_05_1014	s	s	6	1	SIC	93	4_3	4	3	2	1	23_2_1	2	2	1	0	0.352180957794	16.0	223.0	23.0	220.0	1
3.0.1	2019_Mar_05_1014	s	s	6	1	SIC	94	ABS	0	0	2	1	24_2_1	NA	NA	0	1	3.6335310936	None	None	None	None	1
3.0.1	2019_Mar_05_1014	s	s	6	1	SIC	95	ABS	0	0	4	4	24_4_4	NA	NA	0	1	3.0971031189	None	None	None	None	1
3.0.1	2019_Mar_05_1014	s	s	6	1	SIC	96	1_3	1	3	2	3	23_2_3	1	0	1	0	8.39028191566	-323.0	-114.0	-322.0	-117.0	1
3.0.1	2019_Mar_05_1014	s	s	6	1	SIC	97	ABS	0	0	2	2	24_2_2	NA	NA	0	1	7.15651583672	None	None	None	None	1
3.0.1	2019_Mar_05_1014	s	s	6	1	SIC	98	3_2	3	2	4	2	23_4_2	-1	0	1	0	0.399201869965	1.0	-129.0	14.0	-119.0	1
3.0.1	2019_Mar_05_1014	s	s	6	1	SIC	99	ABS	0	0	3	1	24_3_1	NA	NA	0	1	3.16329288483	None	None	None	None	1
3.0.1	2019_Mar_05_1014	s	s	6	1	SIC	100	ABS	0	0	4	4	24_4_4	NA	NA	0	1	2.70436692238	None	None	None	None	1
3.0.1	2019_Mar_05_1014	s	s	6	1	SIC	101	3_3	3	3	1	1	23_1_1	2	2	1	0	1.03135299683	-263.0	407.0	-259.0	408.0	1
3.0.1	2019_Mar_05_1014	s	s	6	1	SIC	102	ABS	0	0	4	4	24_4_4	NA	NA	0	1	1.56092882156	None	None	None	None	1
3.0.1	2019_Mar_05_1014	s	s	6	1	SIC	103	ABS	0	0	4	4	24_4_4	NA	NA	0	1	2.36337304115	None	None	None	None	1
3.0.1	2019_Mar_05_1014	s	s	6	1	SIC	104	ABS	0	0	2	2	24_2_2	NA	NA	0	1	8.18515205383	None	None	None	None	1
3.0.1	2019_Mar_05_1014	s	s	6	1	SIC	105	ABS	0	0	2	4	24_2_4	NA	NA	0	1	3.20168995857	None	None	None	None	1
3.0.1	2019_Mar_05_1014	s	s	6	1	SIC	106	ABS	0	0	2	2	24_2_2	NA	NA	0	1	4.51180195808	None	None	None	None	1
3.0.1	2019_Mar_05_1014	s	s	6	1	SIC	107	3_3	3	3	4	2	23_4_2	-1	1	1	0	0.657997846603	-534.0	-56.0	-533.0	-52.0	1
3.0.1	2019_Mar_05_1014	s	s	6	1	SIC	108	ABS	0	0	1	1	24_1_1	NA	NA	0	1	4.2597630024	None	None	None	None	1
3.0.1	2019_Mar_05_1014	s	s	6	1	SIC	109	2_1	2	1	3	1	23_3_1	1	0	1	0	1.86939001083	375.0	191.0	379.0	188.0	1
3.0.1	2019_Mar_05_1014	s	s	6	1	SIC	110	ABS	0	0	4	4	24_4_4	NA	NA	0	1	3.1867249012	None	None	None	None	1
3.0.1	2019_Mar_05_1014	s	s	6	1	SIC	111	3_4	3	4	2	2	23_2_2	1	2	1	0	0.469972133636	382.0	320.0	381.0	319.0	1
3.0.1	2019_Mar_05_1014	s	s	6	1	SIC	112	1_3	1	3	3	4	23_3_4	2	-1	1	0	0.423142910004	131.0	-262.0	121.0	-263.0	1
3.0.1	2019_Mar_05_1014	s	s	6	1	SIC	113	2_1	2	1	2	4	23_2_4	0	3	1	0	0.528656959534	18.0	263.0	21.0	259.0	1
3.0.1	2019_Mar_05_1014	s	s	6	1	SIC	114	3_2	3	2	3	3	23_3_3	0	1	1	0	3.13801193237	-493.0	258.0	-484.0	256.0	1
3.0.1	2019_Mar_05_1014	s	s	6	1	SIC	115	1_4	1	4	3	4	23_3_4	2	0	1	0	0.646768093109	-397.0	-385.0	-397.0	-381.0	1
3.0.1	2019_Mar_05_1014	s	s	6	1	SIC	116	4_2	4	2	1	1	23_1_1	3	-1	1	0	0.399161100388	470.0	-145.0	475.0	-154.0	1
3.0.1	2019_Mar_05_1014	s	s	6	1	SIC	117	ABS	0	0	1	4	24_1_4	NA	NA	0	1	3.47395682335	None	None	None	None	1
3.0.1	2019_Mar_05_1014	s	s	6	1	SIC	118	ABS	0	0	3	2	24_3_2	NA	NA	0	1	4.54870200157	None	None	None	None	1
3.0.1	2019_Mar_05_1014	s	s	6	1	SIC	119	4_3	4	3	3	4	23_3_4	1	-1	1	0	0.474634885788	419.0	-356.0	415.0	-358.0	1
3.0.1	2019_Mar_05_1014	s	s	6	1	SIC	120	ABS	0	0	4	3	24_4_3	NA	NA	0	1	4.29679703712	None	None	None	None	1
3.0.1	2019_Mar_05_1014	s	s	6	1	SIC	121	ABS	0	0	1	1	24_1_1	NA	NA	0	1	3.49628806114	None	None	None	None	1
3.0.1	2019_Mar_05_1014	s	s	6	1	SIC	122	ABS	0	0	1	3	24_1_3	NA	NA	0	1	5.32710504532	None	None	None	None	1
3.0.1	2019_Mar_05_1014	s	s	6	1	SIC	123	ABS	0	0	2	4	24_2_4	NA	NA	0	1	4.11571097374	None	None	None	None	1
3.0.1	2019_Mar_05_1014	s	s	6	1	SIC	124	ABS	0	0	3	4	24_3_4	NA	NA	0	1	2.77490210533	None	None	None	None	1
3.0.1	2019_Mar_05_1014	s	s	6	1	SIC	125	4_4	4	4	1	2	23_1_2	3	2	1	0	0.557026863098	-491.0	165.0	-486.0	160.0	1
3.0.1	2019_Mar_05_1014	s	s	6	1	SIC	126	ABS	0	0	2	3	24_2_3	NA	NA	0	1	3.79540205002	None	None	None	None	1
3.0.1	2019_Mar_05_1014	s	s	6	1	SIC	127	3_1	3	1	1	1	23_1_1	2	0	1	0	0.698078870773	-274.0	112.0	-278.0	108.0	1
3.0.1	2019_Mar_05_1014	s	s	6	1	SIC	128	ABS	0	0	1	1	24_1_1	NA	NA	0	1	2.70878791809	None	None	None	None	1
3.0.1	2019_Mar_05_1014	s	s	6	1	SIC	129	2_3	2	3	1	1	23_1_1	-1	2	1	0	0.581196069717	-243.0	14.0	-236.0	10.0	1
3.0.1	2019_Mar_05_1014	s	s	6	1	SIC	130	4_3	4	3	1	2	23_1_2	3	1	1	0	0.399203062057	-27.0	104.0	-25.0	98.0	1
3.0.1	2019_Mar_05_1014	s	s	6	1	SIC	131	ABS	0	0	2	4	24_2_4	NA	NA	0	1	2.42239499092	None	None	None	None	1
3.0.1	2019_Mar_05_1014	s	s	6	1	SIC	132	2_2	2	2	1	1	23_1_1	-1	-1	1	0	1.59133720398	-408.0	368.0	-409.0	365.0	1
3.0.1	2019_Mar_05_1014	s	s	6	1	SIC	133	ABS	0	0	1	3	24_1_3	NA	NA	0	1	5.18599700928	None	None	None	None	1
3.0.1	2019_Mar_05_1014	s	s	6	1	SIC	134	2_4	2	4	3	2	23_3_2	1	2	1	0	0.427616834641	49.0	-59.0	47.0	-57.0	1
3.0.1	2019_Mar_05_1014	s	s	6	1	SIC	135	ABS	0	0	1	3	24_1_3	NA	NA	0	1	3.98632407188	None	None	None	None	1
3.0.1	2019_Mar_05_1014	s	s	6	1	SIC	136	ABS	0	0	3	2	24_3_2	NA	NA	0	1	6.03698396683	None	None	None	None	1
3.0.1	2019_Mar_05_1014	s	s	6	1	SIC	137	4_2	4	2	1	3	23_1_3	3	1	1	0	0.387418985367	-18.0	24.0	-19.0	17.0	1
3.0.1	2019_Mar_05_1014	s	s	6	1	SIC	138	ABS	0	0	1	4	24_1_4	NA	NA	0	1	1.99897098541	None	None	None	None	1
3.0.1	2019_Mar_05_1014	s	s	6	1	SIC	139	ABS	0	0	2	1	24_2_1	NA	NA	0	1	3.48069095612	None	None	None	None	1
3.0.1	2019_Mar_05_1014	s	s	6	1	SIC	140	ABS	0	0	4	2	24_4_2	NA	NA	0	1	4.51557183266	None	None	None	None	1
3.0.1	2019_Mar_05_1014	s	s	6	1	SIC	141	3_2	3	2	4	1	23_4_1	-1	-1	1	0	0.427242040634	-208.0	29.0	-198.0	29.0	1
3.0.1	2019_Mar_05_1014	s	s	6	1	SIC	142	1_3	1	3	2	2	23_2_2	1	1	1	0	3.84823513031	433.0	174.0	425.0	170.0	1
3.0.1	2019_Mar_05_1014	s	s	6	1	SIC	143	3_4	3	4	1	3	23_1_3	2	1	1	0	0.501345872879	315.0	54.0	305.0	52.0	1
3.0.1	2019_Mar_05_1014	s	s	6	1	SIC	144	1_2	1	2	2	3	23_2_3	1	1	1	0	1.98058009148	-216.0	-187.0	-207.0	-190.0	1
3.0.1	2019_Mar_05_1014	s	s	6	1	SIC	145	1_1	1	1	2	4	23_2_4	1	3	1	0	0.619235038757	292.0	404.0	298.0	397.0	1
3.0.1	2019_Mar_05_1014	s	s	6	1	SIC	146	3_4	3	4	4	3	23_4_3	-1	1	1	0	0.393498897552	23.0	0.0	21.0	2.0	1
3.0.1	2019_Mar_05_1014	s	s	6	1	SIC	147	ABS	0	0	3	2	24_3_2	NA	NA	0	1	4.28554987907	None	None	None	None	1
3.0.1	2019_Mar_05_1014	s	s	6	1	SIC	148	4_1	4	1	4	3	23_4_3	0	2	1	0	1.83405089378	-213.0	284.0	-212.0	286.0	1
3.0.1	2019_Mar_05_1014	s	s	6	1	SIC	149	2_1	2	1	3	2	23_3_2	1	1	1	0	0.661838054657	-303.0	290.0	-301.0	286.0	1
3.0.1	2019_Mar_05_1014	s	s	6	1	SIC	150	3_4	3	4	2	1	23_2_1	1	3	1	0	0.378612995148	319.0	43.0	314.0	45.0	1
3.0.1	2019_Mar_05_1014	s	s	6	1	SIC	151	ABS	0	0	3	3	24_3_3	NA	NA	0	1	7.83231306076	None	None	None	None	1
3.0.1	2019_Mar_05_1014	s	s	6	1	SIC	152	1_1	1	1	1	4	23_1_4	0	3	1	0	0.563946962357	327.0	242.0	333.0	245.0	1
3.0.1	2019_Mar_05_1014	s	s	6	1	SIC	153	ABS	0	0	2	1	24_2_1	NA	NA	0	1	2.92124891281	None	None	None	None	1
3.0.1	2019_Mar_05_1014	s	s	6	1	SIC	154	ABS	0	0	4	2	24_4_2	NA	NA	0	1	5.16679120064	None	None	None	None	1
3.0.1	2019_Mar_05_1014	s	s	6	1	SIC	155	ABS	0	0	4	3	24_4_3	NA	NA	0	1	4.626693964	None	None	None	None	1
3.0.1	2019_Mar_05_1014	s	s	6	1	SIC	156	2_4	2	4	4	2	23_4_2	2	2	1	0	0.481549978256	182.0	345.0	186.0	336.0	1
3.0.1	2019_Mar_05_1014	s	s	6	1	SIC	157	ABS	0	0	3	4	24_3_4	NA	NA	0	1	3.28071188927	None	None	None	None	1
3.0.1	2019_Mar_05_1014	s	s	6	1	SIC	158	ABS	0	0	2	4	24_2_4	NA	NA	0	1	3.90254807472	None	None	None	None	1
3.0.1	2019_Mar_05_1014	s	s	6	1	SIC	159	ABS	0	0	4	3	24_4_3	NA	NA	0	1	4.62143778801	None	None	None	None	1
3.0.1	2019_Mar_05_1014	s	s	6	1	SIC	160	ABS	0	0	4	2	24_4_2	NA	NA	0	1	5.35066890717	None	None	None	None	1
3.0.1	2019_Mar_05_1014	s	s	6	1	SIC	161	1_3	1	3	3	2	23_3_2	2	1	1	0	0.496273994446	-70.0	378.0	-66.0	374.0	1
3.0.1	2019_Mar_05_1014	s	s	6	1	SIC	162	ABS	0	0	2	4	24_2_4	NA	NA	0	1	2.93961691856	None	None	None	None	1
3.0.1	2019_Mar_05_1014	s	s	6	1	SIC	163	ABS	0	0	2	2	24_2_2	NA	NA	0	1	5.89195585251	None	None	None	None	1
3.0.1	2019_Mar_05_1014	s	s	6	1	SIC	164	1_2	1	2	2	4	23_2_4	1	2	1	0	0.80237698555	-188.0	-194.0	-188.0	-197.0	1
3.0.1	2019_Mar_05_1014	s	s	6	1	SIC	165	4_2	4	2	3	2	23_3_2	1	0	1	0	0.422738790512	-174.0	-228.0	-172.0	-224.0	1
3.0.1	2019_Mar_05_1014	s	s	6	1	SIC	166	2_2	2	2	4	4	23_4_4	2	2	1	0	0.39249587059	409.0	248.0	413.0	249.0	1
3.0.1	2019_Mar_05_1014	s	s	6	1	SIC	167	1_4	1	4	1	3	23_1_3	0	1	1	0	0.575688123703	-103.0	22.0	-97.0	21.0	1
3.0.1	2019_Mar_05_1014	s	s	6	1	SIC	168	3_3	3	3	3	2	23_3_2	0	1	1	0	4.12085986137	172.0	-181.0	178.0	-178.0	1
3.0.1	2019_Mar_05_1014	s	s	6	1	SIC	169	1_4	1	4	3	1	23_3_1	2	3	1	0	0.534003973007	-512.0	229.0	-514.0	226.0	1
3.0.1	2019_Mar_05_1014	s	s	6	1	SIC	170	ABS	0	0	1	3	24_1_3	NA	NA	0	1	4.61454105377	None	None	None	None	1
3.0.1	2019_Mar_05_1014	s	s	6	1	SIC	171	ABS	0	0	2	4	24_2_4	NA	NA	0	1	2.50101590157	None	None	None	None	1
3.0.1	2019_Mar_05_1014	s	s	6	1	SIC	172	3_4	3	4	4	2	23_4_2	-1	2	1	0	0.622678041458	-72.0	47.0	-71.0	40.0	1
3.0.1	2019_Mar_05_1014	s	s	6	1	SIC	173	ABS	0	0	2	3	24_2_3	NA	NA	0	1	4.78902292252	None	None	None	None	1
3.0.1	2019_Mar_05_1014	s	s	6	1	SIC	174	ABS	0	0	4	1	24_4_1	NA	NA	0	1	2.57504320145	None	None	None	None	1
3.0.1	2019_Mar_05_1014	s	s	6	1	SIC	175	2_1	2	1	4	2	23_4_2	2	1	1	0	0.439700841904	381.0	352.0	383.0	349.0	1
3.0.1	2019_Mar_05_1014	s	s	6	1	SIC	176	3_4	3	4	2	4	23_2_4	1	0	1	0	0.59031701088	-378.0	232.0	-376.0	217.0	1
3.0.1	2019_Mar_05_1014	s	s	6	1	SIC	177	3_4	3	4	3	2	23_3_2	0	2	1	0	0.51681303978	-175.0	168.0	-166.0	167.0	1
3.0.1	2019_Mar_05_1014	s	s	6	1	SIC	178	ABS	0	0	2	2	24_2_2	NA	NA	0	1	4.96641397476	None	None	None	None	1
3.0.1	2019_Mar_05_1014	s	s	6	1	SIC	179	2_3	2	3	4	3	23_4_3	2	0	1	0	0.37860918045	-402.0	247.0	-408.0	248.0	1
3.0.1	2019_Mar_05_1014	s	s	6	1	SIC	180	4_1	4	1	1	4	23_1_4	3	3	1	0	0.387438058853	-469.0	304.0	-476.0	304.0	1
3.0.1	2019_Mar_05_1014	s	s	6	1	SIC	181	3_4	3	4	1	2	23_1_2	2	2	1	0	0.439378023148	-509.0	-100.0	-516.0	-96.0	1
3.0.1	2019_Mar_05_1014	s	s	6	1	SIC	182	4_4	4	4	3	4	23_3_4	1	0	1	0	0.357328891754	-486.0	59.0	-475.0	65.0	1
3.0.1	2019_Mar_05_1014	s	s	6	1	SIC	183	ABS	0	0	2	3	24_2_3	NA	NA	0	1	6.01557898521	None	None	None	None	1
3.0.1	2019_Mar_05_1014	s	s	6	1	SIC	184	1_2	1	2	3	4	23_3_4	2	2	1	0	0.580164909363	269.0	10.0	264.0	5.0	1
3.0.1	2019_Mar_05_1014	s	s	6	1	SIC	185	ABS	0	0	3	1	24_3_1	NA	NA	0	1	3.39825487137	None	None	None	None	1
3.0.1	2019_Mar_05_1014	s	s	6	1	SIC	186	1_2	1	2	3	2	23_3_2	2	0	1	0	0.87456202507	415.0	253.0	415.0	250.0	1
3.0.1	2019_Mar_05_1014	s	s	6	1	SIC	187	2_4	2	4	2	1	23_2_1	0	3	1	0	0.474963903427	115.0	-45.0	103.0	-42.0	1
3.0.1	2019_Mar_05_1014	s	s	6	1	SIC	188	ABS	0	0	4	1	24_4_1	NA	NA	0	1	2.37796521187	None	None	None	None	1
3.0.1	2019_Mar_05_1014	s	s	6	1	SIC	189	1_3	1	3	3	3	23_3_3	2	0	1	0	0.505134105682	405.0	-387.0	404.0	-392.0	1
3.0.1	2019_Mar_05_1014	s	s	6	1	SIC	190	3_4	3	4	2	3	23_2_3	1	1	1	0	0.426192045212	-400.0	-194.0	-403.0	-199.0	1
3.0.1	2019_Mar_05_1014	s	s	6	1	SIC	191	ABS	0	0	1	4	24_1_4	NA	NA	0	1	3.2012629509	None	None	None	None	1
3.0.1	2019_Mar_05_1014	s	s	6	1	SIC	192	4_4	4	4	3	1	23_3_1	1	3	1	0	0.369129896164	-1.0	72.0	-1.0	69.0	1
3.0.1	2019_Mar_05_1014	s	s	6	1	SIC	193	ABS	0	0	4	1	24_4_1	NA	NA	0	1	2.66258502007	None	None	None	None	1
3.0.1	2019_Mar_05_1014	s	s	6	1	SIC	194	ABS	0	0	2	1	24_2_1	NA	NA	0	1	3.58648490906	None	None	None	None	1
3.0.1	2019_Mar_05_1014	s	s	6	1	SIC	195	2_3	2	3	1	4	23_1_4	-1	-1	1	0	1.16366004944	503.0	388.0	502.0	383.0	1
3.0.1	2019_Mar_05_1014	s	s	6	1	SIC	196	3_2	3	2	3	1	23_3_1	0	-1	1	0	2.99832582474	83.0	-203.0	91.0	-207.0	1
3.0.1	2019_Mar_05_1014	s	s	6	1	SIC	197	1_2	1	2	2	2	23_2_2	1	0	1	0	8.56595802307	-229.0	198.0	-225.0	194.0	1
3.0.1	2019_Mar_05_1014	s	s	6	1	SIC	198	2_1	2	1	1	1	23_1_1	-1	0	1	0	5.44521594048	-467.0	-343.0	-465.0	-356.0	1
3.0.1	2019_Mar_05_1014	s	s	6	1	SIC	199	ABS	0	0	4	4	24_4_4	NA	NA	0	1	2.42220401764	None	None	None	None	1
3.0.1	2019_Mar_05_1014	s	s	6	1	SIC	200	ABS	0	0	3	2	24_3_2	NA	NA	0	1	5.90346813202	None	None	None	None	1
3.0.1	2019_Mar_05_1014	s	s	6	1	SIC	201	3_1	3	1	1	4	23_1_4	2	3	1	0	0.686521053314	-226.0	243.0	-225.0	229.0	1
3.0.1	2019_Mar_05_1014	s	s	6	1	SIC	202	ABS	0	0	4	1	24_4_1	NA	NA	0	1	2.25355005264	None	None	None	None	1
3.0.1	2019_Mar_05_1014	s	s	6	1	SIC	203	ABS	0	0	1	4	24_1_4	NA	NA	0	1	3.27392697334	None	None	None	None	1
3.0.1	2019_Mar_05_1014	s	s	6	1	SIC	204	1_3	1	3	3	1	23_3_1	2	2	1	0	0.458034038544	-174.0	-134.0	-172.0	-125.0	1
3.0.1	2019_Mar_05_1014	s	s	6	1	SIC	205	3_3	3	3	3	4	23_3_4	0	-1	1	0	0.681712865829	402.0	-200.0	398.0	-208.0	1
3.0.1	2019_Mar_05_1014	s	s	6	1	SIC	206	1_1	1	1	3	4	23_3_4	2	3	1	0	0.426037073135	364.0	317.0	364.0	307.0	1
3.0.1	2019_Mar_05_1014	s	s	6	1	SIC	207	4_4	4	4	1	3	23_1_3	3	1	1	0	0.5050740242	49.0	-345.0	44.0	-346.0	1
3.0.1	2019_Mar_05_1014	s	s	6	1	SIC	208	4_4	4	4	2	3	23_2_3	2	1	1	0	0.383558034897	408.0	387.0	417.0	385.0	1
3.0.1	2019_Mar_05_1014	s	s	6	1	SIC	209	4_4	4	4	1	4	23_1_4	3	0	1	0	0.340490102768	-73.0	213.0	-72.0	219.0	1
3.0.1	2019_Mar_05_1014	s	s	6	1	SIC	210	2_3	2	3	4	1	23_4_1	2	2	1	0	0.384012937546	444.0	-339.0	440.0	-351.0	1
3.0.1	2019_Mar_05_1014	s	s	6	1	SIC	211	2_4	2	4	2	3	23_2_3	0	1	1	0	0.528620958328	-228.0	243.0	30.0	-38.0	0
3.0.1	2019_Mar_05_1014	s	s	6	1	SIC	212	ABS	0	0	4	1	24_4_1	NA	NA	0	1	1.85504603386	None	None	None	None	1
3.0.1	2019_Mar_05_1014	s	s	6	1	SIC	213	ABS	0	0	2	1	24_2_1	NA	NA	0	1	2.20472002029	None	None	None	None	1
3.0.1	2019_Mar_05_1014	s	s	6	1	SIC	214	ABS	0	0	2	2	24_2_2	NA	NA	0	1	6.87957906723	None	None	None	None	1
3.0.1	2019_Mar_05_1014	s	s	6	1	SIC	215	4_2	4	2	2	3	23_2_3	2	1	1	0	0.469725131989	179.0	-100.0	182.0	-100.0	1
3.0.1	2019_Mar_05_1014	s	s	6	1	SIC	216	ABS	0	0	4	3	24_4_3	NA	NA	0	1	4.72727203369	None	None	None	None	1
3.0.1	2019_Mar_05_1014	s	s	6	1	SIC	217	1_3	1	3	4	3	23_4_3	3	0	1	0	0.393526077271	203.0	-222.0	195.0	-223.0	1
3.0.1	2019_Mar_05_1014	s	s	6	1	SIC	218	1_2	1	2	2	1	23_2_1	1	-1	1	0	1.26712393761	-106.0	84.0	-99.0	82.0	1
3.0.1	2019_Mar_05_1014	s	s	6	1	SIC	219	2_2	2	2	4	1	23_4_1	2	-1	1	0	0.428304195404	-63.0	-387.0	-66.0	-393.0	1
3.0.1	2019_Mar_05_1014	s	s	6	1	SIC	220	2_4	2	4	3	1	23_3_1	1	3	1	0	0.528579950333	-473.0	-305.0	-469.0	-307.0	1
3.0.1	2019_Mar_05_1014	s	s	6	1	SIC	221	ABS	0	0	3	1	24_3_1	NA	NA	0	1	3.13268995285	None	None	None	None	1
3.0.1	2019_Mar_05_1014	s	s	6	1	SIC	222	ABS	0	0	3	4	24_3_4	NA	NA	0	1	2.98107814789	None	None	None	None	1
3.0.1	2019_Mar_05_1014	s	s	6	1	SIC	223	3_1	3	1	3	4	23_3_4	0	3	1	0	0.528693914413	260.0	20.0	263.0	21.0	1
3.0.1	2019_Mar_05_1014	s	s	6	1	SIC	224	ABS	0	0	4	4	24_4_4	NA	NA	0	1	2.42214608192	None	None	None	None	1
3.0.1	2019_Mar_05_1014	s	s	6	1	SIC	225	4_4	4	4	4	2	23_4_2	0	2	1	0	1.17537903786	-171.0	-400.0	-158.0	-393.0	1
3.0.1	2019_Mar_05_1014	s	s	6	1	SIC	226	4_3	4	3	1	4	23_1_4	3	-1	1	0	0.437489032745	-188.0	328.0	-185.0	322.0	1
3.0.1	2019_Mar_05_1014	s	s	6	1	SIC	227	1_2	1	2	3	1	23_3_1	2	-1	1	0	0.462723016739	-176.0	311.0	-172.0	309.0	1
3.0.1	2019_Mar_05_1014	s	s	6	1	SIC	228	3_1	3	1	2	3	23_2_3	1	2	1	0	0.580595016479	-163.0	-119.0	-156.0	-123.0	1
3.0.1	2019_Mar_05_1014	s	s	6	1	SIC	229	4_4	4	4	2	4	23_2_4	2	0	1	0	0.415281057358	76.0	-267.0	85.0	-267.0	1
3.0.1	2019_Mar_05_1014	s	s	6	1	SIC	230	3_1	3	1	4	2	23_4_2	-1	1	1	0	0.393494129181	-199.0	292.0	-198.0	287.0	1
3.0.1	2019_Mar_05_1014	s	s	6	1	SIC	231	2_3	2	3	3	3	23_3_3	1	0	1	0	0.533715009689	-383.0	-168.0	-385.0	-170.0	1
3.0.1	2019_Mar_05_1014	s	s	6	1	SIC	232	4_3	4	3	2	4	23_2_4	2	-1	1	0	0.399159908295	471.0	-376.0	475.0	-385.0	1
3.0.1	2019_Mar_05_1014	s	s	6	1	SIC	233	ABS	0	0	4	3	24_4_3	NA	NA	0	1	5.77401995659	None	None	None	None	1
3.0.1	2019_Mar_05_1014	s	s	6	1	SIC	234	4_3	4	3	3	1	23_3_1	1	2	1	0	0.363997936249	-249.0	24.0	-237.0	25.0	1
3.0.1	2019_Mar_05_1014	s	s	6	1	SIC	235	4_4	4	4	2	2	23_2_2	2	2	1	0	0.37574505806	-121.0	-129.0	-113.0	-131.0	1
3.0.1	2019_Mar_05_1014	s	s	6	1	SIC	236	2_2	2	2	4	3	23_4_3	2	1	1	0	0.363985061646	404.0	15.0	408.0	17.0	1
3.0.1	2019_Mar_05_1014	s	s	6	1	SIC	237	ABS	0	0	2	1	24_2_1	NA	NA	0	1	2.78157281876	None	None	None	None	1
3.0.1	2019_Mar_05_1014	s	s	6	1	SIC	238	ABS	0	0	1	3	24_1_3	NA	NA	0	1	4.40979909897	None	None	None	None	1
3.0.1	2019_Mar_05_1014	s	s	6	1	SIC	239	2_4	2	4	4	1	23_4_1	2	3	1	0	0.427584171295	246.0	-303.0	250.0	-304.0	1
3.0.1	2019_Mar_05_1014	s	s	6	1	SIC	240	4_2	4	2	2	4	23_2_4	2	2	1	0	0.37860584259	148.0	-288.0	152.0	-292.0	1
3.0.1	2019_Mar_05_1014	s	s	6	1	SIC	241	1_4	1	4	2	4	23_2_4	1	0	1	0	5.92693376541	14.0	313.0	13.0	303.0	1
3.0.1	2019_Mar_05_1014	s	s	6	1	SIC	242	ABS	0	0	4	2	24_4_2	NA	NA	0	1	1.42528510094	None	None	None	None	1
3.0.1	2019_Mar_05_1014	s	s	6	1	SIC	243	4_1	4	1	4	2	23_4_2	0	1	1	0	1.65108180046	-254.0	190.0	-249.0	186.0	1
3.0.1	2019_Mar_05_1014	s	s	6	1	SIC	244	2_3	2	3	2	1	23_2_1	0	2	1	0	2.50462794304	86.0	-288.0	85.0	-292.0	1
3.0.1	2019_Mar_05_1014	s	s	6	1	SIC	245	ABS	0	0	1	2	24_1_2	NA	NA	0	1	5.96673417091	None	None	None	None	1
3.0.1	2019_Mar_05_1014	s	s	6	1	SIC	246	1_3	1	3	2	1	23_2_1	1	2	1	0	1.21077919006	494.0	-365.0	498.0	-374.0	1
3.0.1	2019_Mar_05_1014	s	s	6	1	SIC	247	ABS	0	0	2	4	24_2_4	NA	NA	0	1	2.90723085403	None	None	None	None	1
3.0.1	2019_Mar_05_1014	s	s	6	1	SIC	248	1_1	1	1	2	3	23_2_3	1	2	1	0	2.31922984123	-416.0	209.0	-422.0	203.0	1
3.0.1	2019_Mar_05_1014	s	s	6	1	SIC	249	3_3	3	3	2	1	23_2_1	1	2	1	0	0.768335103989	309.0	297.0	312.0	283.0	1
3.0.1	2019_Mar_05_1014	s	s	6	1	SIC	250	2_2	2	2	2	1	23_2_1	0	-1	0	1	2.13988113403	-12.0	-361.0	None	None	0
3.0.1	2019_Mar_05_1014	s	s	6	1	SIC	251	ABS	0	0	1	1	24_1_1	NA	NA	0	1	2.98672008514	None	None	None	None	1
3.0.1	2019_Mar_05_1014	s	s	6	1	SIC	252	ABS	0	0	4	2	24_4_2	NA	NA	0	1	6.85607290268	None	None	None	None	1
3.0.1	2019_Mar_05_1014	s	s	6	1	SIC	253	2_2	2	2	3	2	23_3_2	1	0	1	0	0.999083995819	-77.0	-85.0	-78.0	-83.0	1
3.0.1	2019_Mar_05_1014	s	s	6	1	SIC	254	ABS	0	0	3	2	24_3_2	NA	NA	0	1	6.66136288643	None	None	None	None	1
3.0.1	2019_Mar_05_1014	s	s	6	1	SIC	255	ABS	0	0	2	1	24_2_1	NA	NA	0	1	3.65178394318	None	None	None	None	1
3.0.1	2019_Mar_05_1014	s	s	6	1	SIC	256	2_3	2	3	4	2	23_4_2	2	1	1	0	0.481597900391	416.0	293.0	410.0	284.0	1
3.0.1	2019_Mar_05_1014	s	s	6	1	SIC	257	ABS	0	0	2	4	24_2_4	NA	NA	0	1	2.9751329422	None	None	None	None	1
3.0.1	2019_Mar_05_1014	s	s	6	1	SIC	258	4_4	4	4	3	2	23_3_2	1	2	1	0	0.411029100418	404.0	-305.0	402.0	-300.0	1
3.0.1	2019_Mar_05_1014	s	s	6	1	SIC	259	ABS	0	0	3	2	24_3_2	NA	NA	0	1	5.01456904411	None	None	None	None	1
3.0.1	2019_Mar_05_1014	s	s	6	1	SIC	260	ABS	0	0	4	1	24_4_1	NA	NA	0	1	2.55444908142	None	None	None	None	1
3.0.1	2019_Mar_05_1014	s	s	6	1	SIC	261	3_4	3	4	1	1	23_1_1	2	3	1	0	0.509219884872	-497.0	-276.0	-499.0	-276.0	1
3.0.1	2019_Mar_05_1014	s	s	6	1	SIC	262	2_3	2	3	2	4	23_2_4	0	-1	1	0	3.78932714462	538.0	-73.0	534.0	-68.0	1
3.0.1	2019_Mar_05_1014	s	s	6	1	SIC	263	ABS	0	0	2	1	24_2_1	NA	NA	0	1	3.23362183571	None	None	None	None	1
3.0.1	2019_Mar_05_1014	s	s	6	1	SIC	264	3_3	3	3	2	2	23_2_2	1	1	1	0	0.716989040375	395.0	321.0	402.0	321.0	1
3.0.1	2019_Mar_05_1014	s	s	6	1	SIC	265	3_3	3	3	3	1	23_3_1	0	2	1	0	1.43711709976	-143.0	-124.0	-138.0	-134.0	1
3.0.1	2019_Mar_05_1014	s	s	6	1	SIC	266	ABS	0	0	4	4	24_4_4	NA	NA	0	1	3.0904340744	None	None	None	None	1
3.0.1	2019_Mar_05_1014	s	s	6	1	SIC	267	3_2	3	2	2	4	23_2_4	1	2	1	0	0.522338151932	-103.0	194.0	-96.0	188.0	1
3.0.1	2019_Mar_05_1014	s	s	6	1	SIC	268	ABS	0	0	4	1	24_4_1	NA	NA	0	1	3.55406498909	None	None	None	None	1
3.0.1	2019_Mar_05_1014	s	s	6	1	SIC	269	ABS	0	0	3	1	24_3_1	NA	NA	0	1	2.79855108261	None	None	None	None	1
3.0.1	2019_Mar_05_1014	s	s	6	1	SIC	270	ABS	0	0	3	2	24_3_2	NA	NA	0	1	4.89489984512	None	None	None	None	1
3.0.1	2019_Mar_05_1014	s	s	6	1	SIC	271	ABS	0	0	1	2	24_1_2	NA	NA	0	1	6.52682209015	None	None	None	None	1
3.0.1	2019_Mar_05_1014	s	s	6	1	SIC	272	ABS	0	0	4	2	24_4_2	NA	NA	0	1	7.14122796059	None	None	None	None	1
3.0.1	2019_Mar_05_1014	s	s	6	1	SIC	273	1_1	1	1	4	1	23_4_1	3	0	1	0	0.474679946899	61.0	321.0	62.0	311.0	1
3.0.1	2019_Mar_05_1014	s	s	6	1	SIC	274	ABS	0	0	3	1	24_3_1	NA	NA	0	1	3.21613097191	None	None	None	None	1
3.0.1	2019_Mar_05_1014	s	s	6	1	SIC	275	2_2	2	2	1	2	23_1_2	-1	0	0	1	3.23774695396	334.0	-299.0	None	None	0
3.0.1	2019_Mar_05_1014	s	s	6	1	SIC	276	ABS	0	0	2	4	24_2_4	NA	NA	0	1	4.8330988884	None	None	None	None	1
3.0.1	2019_Mar_05_1014	s	s	6	1	SIC	277	ABS	0	0	2	3	24_2_3	NA	NA	0	1	5.13894510269	None	None	None	None	1
3.0.1	2019_Mar_05_1014	s	s	6	1	SIC	278	2_1	2	1	4	3	23_4_3	2	2	1	0	0.399199962616	-107.0	337.0	-106.0	335.0	1
3.0.1	2019_Mar_05_1014	s	s	6	1	SIC	279	2_3	2	3	3	4	23_3_4	1	-1	1	0	0.41103887558	-48.0	-154.0	-46.0	-156.0	1
3.0.1	2019_Mar_05_1014	s	s	6	1	SIC	280	4_4	4	4	4	1	23_4_1	0	3	1	0	0.639173030853	-220.0	-241.0	-219.0	-244.0	1
3.0.1	2019_Mar_05_1014	s	s	6	1	SIC	281	ABS	0	0	2	4	24_2_4	NA	NA	0	1	3.01702189445	None	None	None	None	1
3.0.1	2019_Mar_05_1014	s	s	6	1	SIC	282	ABS	0	0	2	2	24_2_2	NA	NA	0	1	4.35088396072	None	None	None	None	1
3.0.1	2019_Mar_05_1014	s	s	6	1	SIC	283	1_4	1	4	4	2	23_4_2	3	2	1	0	0.555021047592	-215.0	309.0	-212.0	299.0	1
3.0.1	2019_Mar_05_1014	s	s	6	1	SIC	284	ABS	0	0	1	1	24_1_1	NA	NA	0	1	2.52290296555	None	None	None	None	1
3.0.1	2019_Mar_05_1014	s	s	6	1	SIC	285	2_3	2	3	2	2	23_2_2	0	1	1	0	3.07422399521	-351.0	-83.0	-352.0	-78.0	1
3.0.1	2019_Mar_05_1014	s	s	6	1	SIC	286	ABS	0	0	2	1	24_2_1	NA	NA	0	1	4.06871986389	None	None	None	None	1
3.0.1	2019_Mar_05_1014	s	s	6	1	SIC	287	2_4	2	4	4	4	23_4_4	2	0	1	0	0.458027124405	-96.0	-170.0	-86.0	-166.0	1
3.0.1	2019_Mar_05_1014	s	s	6	1	SIC	288	3_2	3	2	1	4	23_1_4	2	2	1	0	0.469774961472	-211.0	-337.0	-209.0	-339.0	1
3.0.1	2019_Mar_05_1014	s	s	6	1	SIC	289	1_1	1	1	1	2	23_1_2	0	1	1	0	3.37795305252	81.0	246.0	82.0	238.0	1
3.0.1	2019_Mar_05_1014	s	s	6	1	SIC	290	ABS	0	0	2	3	24_2_3	NA	NA	0	1	4.96549797058	None	None	None	None	1
3.0.1	2019_Mar_05_1014	s	s	6	1	SIC	291	ABS	0	0	1	4	24_1_4	NA	NA	0	1	3.18002510071	None	None	None	None	1
3.0.1	2019_Mar_05_1014	s	s	6	1	SIC	292	2_3	2	3	3	1	23_3_1	1	2	1	0	0.461311101913	171.0	50.0	180.0	47.0	1
3.0.1	2019_Mar_05_1014	s	s	6	1	SIC	293	4_2	4	2	3	4	23_3_4	1	2	1	0	0.416081905365	321.0	-30.0	328.0	-32.0	1
3.0.1	2019_Mar_05_1014	s	s	6	1	SIC	294	4_1	4	1	4	4	23_4_4	0	3	1	0	0.849044084549	216.0	-401.0	209.0	-400.0	1
3.0.1	2019_Mar_05_1014	s	s	6	1	SIC	295	ABS	0	0	1	2	24_1_2	NA	NA	0	1	4.51555895805	None	None	None	None	1
3.0.1	2019_Mar_05_1014	s	s	6	1	SIC	296	ABS	0	0	1	3	24_1_3	NA	NA	0	1	4.89194583893	None	None	None	None	1
3.0.1	2019_Mar_05_1014	s	s	6	1	SIC	297	3_1	3	1	3	2	23_3_2	0	1	1	0	5.35067415237	498.0	374.0	499.0	379.0	1
3.0.1	2019_Mar_05_1014	s	s	6	1	SIC	298	1_1	1	1	4	4	23_4_4	3	3	1	0	0.380237102509	55.0	127.0	61.0	126.0	1
3.0.1	2019_Mar_05_1014	s	s	6	1	SIC	299	ABS	0	0	3	1	24_3_1	NA	NA	0	1	3.5100979805	None	None	None	None	1
3.0.1	2019_Mar_05_1014	s	s	6	1	SIC	300	ABS	0	0	4	1	24_4_1	NA	NA	0	1	3.3983399868	None	None	None	None	1
3.0.1	2019_Mar_05_1014	s	s	6	1	SIC	301	ABS	0	0	4	1	24_4_1	NA	NA	0	1	3.59175896645	None	None	None	None	1
3.0.1	2019_Mar_05_1014	s	s	6	1	SIC	302	ABS	0	0	4	1	24_4_1	NA	NA	0	1	2.61032390594	None	None	None	None	1
3.0.1	2019_Mar_05_1014	s	s	6	1	SIC	303	ABS	0	0	4	2	24_4_2	NA	NA	0	1	4.99153494835	None	None	None	None	1
3.0.1	2019_Mar_05_1014	s	s	6	1	SIC	304	ABS	0	0	2	3	24_2_3	NA	NA	0	1	5.06839799881	None	None	None	None	1
3.0.1	2019_Mar_05_1014	s	s	6	1	SIC	305	ABS	0	0	2	4	24_2_4	NA	NA	0	1	2.82553219795	None	None	None	None	1
3.0.1	2019_Mar_05_1014	s	s	6	1	SIC	306	ABS	0	0	1	1	24_1_1	NA	NA	0	1	2.50449514389	None	None	None	None	1
3.0.1	2019_Mar_05_1014	s	s	6	1	SIC	307	ABS	0	0	3	2	24_3_2	NA	NA	0	1	4.59076905251	None	None	None	None	1
3.0.1	2019_Mar_05_1014	s	s	6	1	SIC	308	ABS	0	0	4	2	24_4_2	NA	NA	0	1	5.39774298668	None	None	None	None	1
3.0.1	2019_Mar_05_1014	s	s	6	1	SIC	309	ABS	0	0	2	2	24_2_2	NA	NA	0	1	4.20094394684	None	None	None	None	1
3.0.1	2019_Mar_05_1014	s	s	6	1	SIC	310	ABS	0	0	4	3	24_4_3	NA	NA	0	1	5.95577812195	None	None	None	None	1
3.0.1	2019_Mar_05_1014	s	s	6	1	SIC	311	ABS	0	0	1	3	24_1_3	NA	NA	0	1	4.02815198898	None	None	None	None	1
3.0.1	2019_Mar_05_1014	s	s	6	1	SIC	312	ABS	0	0	3	3	24_3_3	NA	NA	0	1	4.17868280411	None	None	None	None	1
3.0.1	2019_Mar_05_1014	s	s	6	1	SIC	313	1_2	1	2	3	3	23_3_3	2	1	1	0	0.516821146011	-218.0	113.0	-224.0	111.0	1
3.0.1	2019_Mar_05_1014	s	s	6	1	SIC	314	3_2	3	2	1	1	23_1_1	2	-1	1	0	0.591911077499	425.0	395.0	420.0	394.0	1
3.0.1	2019_Mar_05_1014	s	s	6	1	SIC	315	2_2	2	2	2	3	23_2_3	0	1	1	0	2.13994407654	-94.0	-118.0	-85.0	-109.0	1
3.0.1	2019_Mar_05_1014	s	s	6	1	SIC	316	ABS	0	0	2	3	24_2_3	NA	NA	0	1	3.97852516174	None	None	None	None	1
3.0.1	2019_Mar_05_1014	s	s	6	1	SIC	317	2_1	2	1	1	4	23_1_4	-1	3	1	0	0.681756019592	487.0	217.0	493.0	208.0	1
3.0.1	2019_Mar_05_1014	s	s	6	1	SIC	318	3_3	3	3	4	4	23_4_4	-1	-1	1	0	0.422796964645	482.0	164.0	482.0	163.0	1
3.0.1	2019_Mar_05_1014	s	s	6	1	SIC	319	3_3	3	3	1	2	23_1_2	2	1	1	0	0.613812923431	-275.0	282.0	-273.0	286.0	1
3.0.1	2019_Mar_05_1014	s	s	6	1	SIC	320	1_2	1	2	4	1	23_4_1	3	-1	1	0	0.368653059006	-345.0	261.0	-340.0	255.0	1
3.0.1	2019_Mar_05_1014	s	s	6	1	SIC	321	2_4	2	4	2	2	23_2_2	0	2	1	0	1.99868893623	-358.0	-401.0	-363.0	-399.0	1
3.0.1	2019_Mar_05_1014	s	s	6	1	SIC	322	4_3	4	3	1	3	23_1_3	3	0	1	0	0.416257143021	266.0	-329.0	265.0	-336.0	1
3.0.1	2019_Mar_05_1014	s	s	6	1	SIC	323	2_2	2	2	3	4	23_3_4	1	2	1	0	0.446683883667	348.0	-30.0	355.0	-20.0	1
3.0.1	2019_Mar_05_1014	s	s	6	1	SIC	324	ABS	0	0	1	1	24_1_1	NA	NA	0	1	2.58675003052	None	None	None	None	1
3.0.1	2019_Mar_05_1014	s	s	6	1	SIC	325	3_4	3	4	3	1	23_3_1	0	3	1	0	0.488109827042	-286.0	165.0	-279.0	172.0	1
3.0.1	2019_Mar_05_1014	s	s	6	1	SIC	326	3_2	3	2	1	3	23_1_3	2	1	1	0	0.775586843491	-528.0	385.0	-528.0	392.0	1
3.0.1	2019_Mar_05_1014	s	s	6	1	SIC	327	ABS	0	0	4	4	24_4_4	NA	NA	0	1	2.63675093651	None	None	None	None	1
3.0.1	2019_Mar_05_1014	s	s	6	1	SIC	328	4_4	4	4	1	1	23_1_1	3	3	1	0	0.658118009567	44.0	-51.0	47.0	-53.0	1
3.0.1	2019_Mar_05_1014	s	s	6	1	SIC	329	ABS	0	0	4	1	24_4_1	NA	NA	0	1	3.04542589188	None	None	None	None	1
3.0.1	2019_Mar_05_1014	s	s	6	1	SIC	330	ABS	0	0	1	2	24_1_2	NA	NA	0	1	3.19130897522	None	None	None	None	1
3.0.1	2019_Mar_05_1014	s	s	6	1	SIC	331	4_4	4	4	4	3	23_4_3	0	1	1	0	0.484437942505	12.0	145.0	3.0	145.0	1
3.0.1	2019_Mar_05_1014	s	s	6	1	SIC	332	ABS	0	0	4	4	24_4_4	NA	NA	0	1	2.25421595573	None	None	None	None	1
3.0.1	2019_Mar_05_1014	s	s	6	1	SIC	333	ABS	0	0	4	4	24_4_4	NA	NA	0	1	2.73078894615	None	None	None	None	1
3.0.1	2019_Mar_05_1014	s	s	6	1	SIC	334	2_1	2	1	3	4	23_3_4	1	3	0	1	0.415262937546	88.0	-77.0	None	None	0
3.0.1	2019_Mar_05_1014	s	s	6	1	SIC	335	ABS	0	0	2	3	24_2_3	NA	NA	0	1	3.84813308716	None	None	None	None	1
3.0.1	2019_Mar_05_1014	s	s	6	1	SIC	336	4_1	4	1	1	3	23_1_3	3	2	1	0	0.39244389534	-283.0	-161.0	-270.0	-156.0	1
3.0.1	2019_Mar_05_1014	s	s	6	1	SIC	337	2_1	2	1	1	3	23_1_3	-1	2	1	0	3.29242801666	464.0	89.0	468.0	90.0	1
3.0.1	2019_Mar_05_1014	s	s	6	1	SIC	338	1_4	1	4	4	3	23_4_3	3	1	1	0	0.387583971024	85.0	-84.0	82.0	-88.0	1
3.0.1	2019_Mar_05_1014	s	s	6	1	SIC	339	4_1	4	1	3	2	23_3_2	1	1	1	0	0.39914894104	-90.0	236.0	-92.0	229.0	1
3.0.1	2019_Mar_05_1014	s	s	6	1	SIC	340	2_2	2	2	3	3	23_3_3	1	1	1	0	0.731428146362	455.0	167.0	458.0	166.0	1
3.0.1	2019_Mar_05_1014	s	s	6	1	SIC	341	3_3	3	3	4	1	23_4_1	-1	2	1	0	0.379570960999	-79.0	38.0	-83.0	37.0	1
3.0.1	2019_Mar_05_1014	s	s	6	1	SIC	342	4_1	4	1	1	1	23_1_1	3	0	1	0	0.347146034241	234.0	-70.0	228.0	-71.0	1
3.0.1	2019_Mar_05_1014	s	s	6	1	SIC	343	3_1	3	1	2	1	23_2_1	1	0	1	0	0.404445886612	219.0	-149.0	216.0	-152.0	1
3.0.1	2019_Mar_05_1014	s	s	6	1	SIC	344	ABS	0	0	2	3	24_2_3	NA	NA	0	1	3.82162499428	None	None	None	None	1
3.0.1	2019_Mar_05_1014	s	s	6	1	SIC	345	1_1	1	1	3	3	23_3_3	2	2	1	0	0.475050926208	343.0	-398.0	347.0	-398.0	1
3.0.1	2019_Mar_05_1014	s	s	6	1	SIC	346	ABS	0	0	4	2	24_4_2	NA	NA	0	1	5.00278711319	None	None	None	None	1
3.0.1	2019_Mar_05_1014	s	s	6	1	SIC	347	1_3	1	3	4	1	23_4_1	3	2	1	0	0.394013881683	219.0	-213.0	218.0	-203.0	1
3.0.1	2019_Mar_05_1014	s	s	6	1	SIC	348	1_3	1	3	1	4	23_1_4	0	-1	1	0	0.999029874802	-198.0	-188.0	-191.0	-192.0	1
3.0.1	2019_Mar_05_1014	s	s	6	1	SIC	349	ABS	0	0	4	4	24_4_4	NA	NA	0	1	2.2977039814	None	None	None	None	1
3.0.1	2019_Mar_05_1014	s	s	6	1	SIC	350	1_2	1	2	1	1	23_1_1	0	-1	1	0	2.12065291405	129.0	190.0	131.0	183.0	1
3.0.1	2019_Mar_05_1014	s	s	6	1	SIC	351	ABS	0	0	1	2	24_1_2	NA	NA	0	1	4.06879401207	None	None	None	None	1
3.0.1	2019_Mar_05_1014	s	s	6	1	SIC	352	ABS	0	0	4	3	24_4_3	NA	NA	0	1	4.68023085594	None	None	None	None	1
3.0.1	2019_Mar_05_1014	s	s	6	1	SIC	353	1_1	1	1	2	2	23_2_2	1	1	1	0	2.19201898575	-388.0	-366.0	-388.0	-364.0	1
3.0.1	2019_Mar_05_1014	s	s	6	1	SIC	354	ABS	0	0	2	3	24_2_3	NA	NA	0	1	5.02133989334	None	None	None	None	1
3.0.1	2019_Mar_05_1014	s	s	6	1	SIC	355	3_1	3	1	4	1	23_4_1	-1	0	1	0	0.451678037643	-363.0	1.0	-370.0	4.0	1
3.0.1	2019_Mar_05_1014	s	s	6	1	SIC	356	1_4	1	4	2	1	23_2_1	1	3	1	0	0.505040884018	-72.0	117.0	-69.0	109.0	1
3.0.1	2019_Mar_05_1014	s	s	6	1	SIC	357	3_2	3	2	2	2	23_2_2	1	0	1	0	0.999164104462	313.0	-375.0	313.0	-378.0	1
3.0.1	2019_Mar_05_1014	s	s	6	1	SIC	358	ABS	0	0	1	3	24_1_3	NA	NA	0	1	4.11566090584	None	None	None	None	1
3.0.1	2019_Mar_05_1014	s	s	6	1	SIC	359	2_3	2	3	1	3	23_1_3	-1	0	1	0	6.16661286354	-359.0	216.0	-364.0	215.0	1
3.0.1	2019_Mar_05_1014	s	s	6	1	SIC	360	ABS	0	0	1	1	24_1_1	NA	NA	0	1	2.54000902176	None	None	None	None	1
3.0.1	2019_Mar_05_1014	s	s	6	1	SIC	361	ABS	0	0	1	3	24_1_3	NA	NA	0	1	3.96579003334	None	None	None	None	1
3.0.1	2019_Mar_05_1014	s	s	6	1	SIC	362	ABS	0	0	1	4	24_1_4	NA	NA	0	1	2.52800798416	None	None	None	None	1
3.0.1	2019_Mar_05_1014	s	s	6	1	SIC	363	3_3	3	3	2	4	23_2_4	1	-1	1	0	0.55501294136	-459.0	129.0	-461.0	126.0	1
3.0.1	2019_Mar_05_1014	s	s	6	1	SIC	364	ABS	0	0	1	3	24_1_3	NA	NA	0	1	3.77789092064	None	None	None	None	1
3.0.1	2019_Mar_05_1014	s	s	6	1	SIC	365	4_1	4	1	3	3	23_3_3	1	2	1	0	0.43738079071	197.0	310.0	194.0	307.0	1
3.0.1	2019_Mar_05_1014	s	s	6	1	SIC	366	1_3	1	3	4	2	23_4_2	3	1	1	0	0.387432098389	71.0	-113.0	71.0	-116.0	1
3.0.1	2019_Mar_05_1014	s	s	6	1	SIC	367	2_3	2	3	4	4	23_4_4	2	-1	1	0	0.399151802063	-309.0	378.0	-309.0	375.0	1
3.0.1	2019_Mar_05_1014	s	s	6	1	SIC	368	ABS	0	0	3	3	24_3_3	NA	NA	0	1	3.93411302567	None	None	None	None	1
3.0.1	2019_Mar_05_1014	s	s	6	1	SIC	369	ABS	0	0	3	1	24_3_1	NA	NA	0	1	2.25368213654	None	None	None	None	1
3.0.1	2019_Mar_05_1014	s	s	6	1	SIC	370	2_4	2	4	1	1	23_1_1	-1	3	1	0	0.442229032516	65.0	-136.0	70.0	-132.0	1
3.0.1	2019_Mar_05_1014	s	s	6	1	SIC	371	2_4	2	4	1	3	23_1_3	-1	1	1	0	0.437435150146	94.0	-112.0	88.0	-111.0	1
3.0.1	2019_Mar_05_1014	s	s	6	1	SIC	372	2_4	2	4	1	2	23_1_2	-1	2	1	0	0.509696006775	-397.0	111.0	-393.0	112.0	1
3.0.1	2019_Mar_05_1014	s	s	6	1	SIC	373	2_2	2	2	2	4	23_2_4	0	2	1	0	0.756576061249	-380.0	75.0	-387.0	71.0	1
3.0.1	2019_Mar_05_1014	s	s	6	1	SIC	374	ABS	0	0	2	4	24_2_4	NA	NA	0	1	2.05754709244	None	None	None	None	1
3.0.1	2019_Mar_05_1014	s	s	6	1	SIC	375	ABS	0	0	1	3	24_1_3	NA	NA	0	1	4.40970492363	None	None	None	None	1
3.0.1	2019_Mar_05_1014	s	s	6	1	SIC	376	4_3	4	3	4	2	23_4_2	0	1	0	1	5.02418398857	306.0	-181.0	None	None	0
3.0.1	2019_Mar_05_1014	s	s	6	1	SIC	377	ABS	0	0	3	4	24_3_4	NA	NA	0	1	2.68087697029	None	None	None	None	1
3.0.1	2019_Mar_05_1014	s	s	6	1	SIC	378	3_4	3	4	4	4	23_4_4	-1	0	1	0	0.540381908417	109.0	-411.0	109.0	-415.0	1
3.0.1	2019_Mar_05_1014	s	s	6	1	SIC	379	ABS	0	0	3	3	24_3_3	NA	NA	0	1	4.69508695602	None	None	None	None	1
3.0.1	2019_Mar_05_1014	s	s	6	1	SIC	380	3_1	3	1	1	3	23_1_3	2	2	1	0	0.540431976318	-329.0	387.0	-326.0	387.0	1
3.0.1	2019_Mar_05_1014	s	s	6	1	SIC	381	2_3	2	3	1	2	23_1_2	-1	1	1	0	1.29299998283	-234.0	190.0	-237.0	180.0	1
3.0.1	2019_Mar_05_1014	s	s	6	1	SIC	382	ABS	0	0	2	2	24_2_2	NA	NA	0	1	4.66883397102	None	None	None	None	1
3.0.1	2019_Mar_05_1014	s	s	6	1	SIC	383	4_2	4	2	4	4	23_4_4	0	2	1	0	0.48162484169	-230.0	81.0	-229.0	72.0	1
3.0.1	2019_Mar_05_1014	s	s	6	1	SIC	384	ABS	0	0	4	1	24_4_1	NA	NA	0	1	2.36985898018	None	None	None	None	1
3.0.1	2019_Mar_05_1014	s	s	6	1	SIC	385	ABS	0	0	1	2	24_1_2	NA	NA	0	1	5.17426800728	None	None	None	None	1
3.0.1	2019_Mar_05_1014	s	s	6	1	SIC	386	ABS	0	0	3	3	24_3_3	NA	NA	0	1	4.35136604309	None	None	None	None	1
3.0.1	2019_Mar_05_1014	s	s	6	1	SIC	387	3_2	3	2	2	3	23_2_3	1	1	1	0	0.614030122757	85.0	-245.0	92.0	-247.0	1
3.0.1	2019_Mar_05_1014	s	s	6	1	SIC	388	3_1	3	1	3	3	23_3_3	0	2	1	0	1.26552796364	259.0	-50.0	261.0	-47.0	1
3.0.1	2019_Mar_05_1014	s	s	6	1	SIC	389	ABS	0	0	1	3	24_1_3	NA	NA	0	1	3.67906498909	None	None	None	None	1
3.0.1	2019_Mar_05_1014	s	s	6	1	SIC	390	3_3	3	3	1	4	23_1_4	2	-1	1	0	0.698746919632	67.0	403.0	66.0	399.0	1
3.0.1	2019_Mar_05_1014	s	s	6	1	SIC	391	1_3	1	3	1	2	23_1_2	0	1	1	0	4.9978017807	-336.0	-65.0	-342.0	-65.0	1
3.0.1	2019_Mar_05_1014	s	s	6	1	SIC	392	4_2	4	2	2	1	23_2_1	2	-1	1	0	0.423218011856	-215.0	220.0	-218.0	222.0	1
3.0.1	2019_Mar_05_1014	s	s	6	1	SIC	393	ABS	0	0	3	3	24_3_3	NA	NA	0	1	4.05128788948	None	None	None	None	1
3.0.1	2019_Mar_05_1014	s	s	6	1	SIC	394	4_3	4	3	3	3	23_3_3	1	0	1	0	0.422860860825	501.0	10.0	509.0	13.0	1
3.0.1	2019_Mar_05_1014	s	s	6	1	SIC	395	2_1	2	1	4	4	23_4_4	2	3	1	0	0.428905963898	-388.0	-187.0	-382.0	-193.0	1
3.0.1	2019_Mar_05_1014	s	s	6	1	SIC	396	ABS	0	0	1	4	24_1_4	NA	NA	0	1	3.14878106117	None	None	None	None	1
3.0.1	2019_Mar_05_1014	s	s	6	1	SIC	397	ABS	0	0	2	4	24_2_4	NA	NA	0	1	3.02585101128	None	None	None	None	1
3.0.1	2019_Mar_05_1014	s	s	6	1	SIC	398	ABS	0	0	1	1	24_1_1	NA	NA	0	1	3.02527499199	None	None	None	None	1
3.0.1	2019_Mar_05_1014	s	s	6	1	SIC	399	ABS	0	0	1	4	24_1_4	NA	NA	0	1	2.28098416328	None	None	None	None	1
3.0.1	2019_Mar_05_1014	s	s	6	1	SIC	400	4_3	4	3	3	2	23_3_2	1	1	1	0	0.44624710083	-40.0	306.0	-43.0	306.0	1
3.0.1	2019_Mar_05_1014	s	s	6	1	SIC	401	ABS	0	0	1	1	24_1_1	NA	NA	0	1	2.64969778061	None	None	None	None	1
3.0.1	2019_Mar_05_1014	s	s	6	1	SIC	402	ABS	0	0	3	1	24_3_1	NA	NA	0	1	2.09776806831	None	None	None	None	1
3.0.1	2019_Mar_05_1014	s	s	6	1	SIC	403	ABS	0	0	3	2	24_3_2	NA	NA	0	1	5.09784197807	None	None	None	None	1
3.0.1	2019_Mar_05_1014	s	s	6	1	SIC	404	3_2	3	2	2	1	23_2_1	1	-1	1	0	0.842900037766	-63.0	-216.0	-49.0	-209.0	1
3.0.1	2019_Mar_05_1014	s	s	6	1	SIC	405	ABS	0	0	3	1	24_3_1	NA	NA	0	1	2.46408390999	None	None	None	None	1
3.0.1	2019_Mar_05_1014	s	s	6	1	SIC	406	ABS	0	0	3	4	24_3_4	NA	NA	0	1	2.20655989647	None	None	None	None	1
3.0.1	2019_Mar_05_1014	s	s	6	1	SIC	407	ABS	0	0	2	1	24_2_1	NA	NA	0	1	2.42211508751	None	None	None	None	1
3.0.1	2019_Mar_05_1014	s	s	6	1	SIC	408	ABS	0	0	1	4	24_1_4	NA	NA	0	1	2.28086400032	None	None	None	None	1
3.0.1	2019_Mar_05_1014	s	s	6	1	SIC	409	ABS	0	0	3	3	24_3_3	NA	NA	0	1	4.80964708328	None	None	None	None	1
3.0.1	2019_Mar_05_1014	s	s	6	1	SIC	410	1_2	1	2	1	4	23_1_4	0	2	1	0	0.587774038315	-248.0	127.0	-242.0	130.0	1
3.0.1	2019_Mar_05_1014	s	s	6	1	SIC	411	2_1	2	1	2	3	23_2_3	0	2	1	0	2.62204813957	-105.0	281.0	-108.0	267.0	1
3.0.1	2019_Mar_05_1014	s	s	6	1	SIC	412	4_3	4	3	2	2	23_2_2	2	1	1	0	0.428225040436	-241.0	114.0	-237.0	112.0	1
3.0.1	2019_Mar_05_1014	s	s	6	1	SIC	413	ABS	0	0	3	2	24_3_2	NA	NA	0	1	5.71525406837	None	None	None	None	1
3.0.1	2019_Mar_05_1014	s	s	6	1	SIC	414	2_2	2	2	4	2	23_4_2	2	0	1	0	0.443542957306	342.0	-399.0	340.0	-400.0	1
3.0.1	2019_Mar_05_1014	s	s	6	1	SIC	415	ABS	0	0	3	3	24_3_3	NA	NA	0	1	3.97464704514	None	None	None	None	1
3.0.1	2019_Mar_05_1014	s	s	6	1	SIC	416	ABS	0	0	1	1	24_1_1	NA	NA	0	1	3.08885407448	None	None	None	None	1
3.0.1	2019_Mar_05_1014	s	s	6	1	SIC	417	1_1	1	1	4	3	23_4_3	3	2	1	0	0.443434000015	-277.0	42.0	-275.0	45.0	1
3.0.1	2019_Mar_05_1014	s	s	6	1	SIC	418	4_4	4	4	2	1	23_2_1	2	3	1	0	0.378594875336	-407.0	-262.0	-409.0	-254.0	1
3.0.1	2019_Mar_05_1014	s	s	6	1	SIC	419	ABS	0	0	1	4	24_1_4	NA	NA	0	1	2.42873001099	None	None	None	None	1
3.0.1	2019_Mar_05_1014	s	s	6	1	SIC	420	3_2	3	2	1	2	23_1_2	2	0	1	0	0.469746112823	-277.0	-68.0	-280.0	-75.0	1
3.0.1	2019_Mar_05_1014	s	s	6	1	SIC	421	ABS	0	0	1	4	24_1_4	NA	NA	0	1	1.90756702423	None	None	None	None	1
3.0.1	2019_Mar_05_1014	s	s	6	1	SIC	422	ABS	0	0	3	2	24_3_2	NA	NA	0	1	4.50395298004	None	None	None	None	1
3.0.1	2019_Mar_05_1014	s	s	6	1	SIC	423	ABS	0	0	2	1	24_2_1	NA	NA	0	1	2.55437707901	None	None	None	None	1
3.0.1	2019_Mar_05_1014	s	s	6	1	SIC	424	ABS	0	0	4	1	24_4_1	NA	NA	0	1	2.22223901749	None	None	None	None	1
3.0.1	2019_Mar_05_1014	s	s	6	1	SIC	425	ABS	0	0	1	4	24_1_4	NA	NA	0	1	2.04576086998	None	None	None	None	1
3.0.1	2019_Mar_05_1014	s	s	6	1	SIC	426	1_1	1	1	3	2	23_3_2	2	1	1	0	0.458065986633	-174.0	-56.0	-166.0	-57.0	1
3.0.1	2019_Mar_05_1014	s	s	6	1	SIC	427	ABS	0	0	4	4	24_4_4	NA	NA	0	1	1.82224202156	None	None	None	None	1
3.0.1	2019_Mar_05_1014	s	s	6	1	SIC	428	ABS	0	0	3	4	24_3_4	NA	NA	0	1	1.4577319622	None	None	None	None	1
3.0.1	2019_Mar_05_1014	s	s	6	1	SIC	429	ABS	0	0	1	1	24_1_1	NA	NA	0	1	2.46376800537	None	None	None	None	1
3.0.1	2019_Mar_05_1014	s	s	6	1	SIC	430	ABS	0	0	2	2	24_2_2	NA	NA	0	1	3.69229912758	None	None	None	None	1
3.0.1	2019_Mar_05_1014	s	s	6	1	SIC	431	1_1	1	1	2	1	23_2_1	1	0	1	0	4.10394597054	440.0	-284.0	444.0	-288.0	1
3.0.1	2019_Mar_05_1014	s	s	6	1	SIC	432	ABS	0	0	1	2	24_1_2	NA	NA	0	1	4.64501810074	None	None	None	None	1
3.0.1	2019_Mar_05_1014	s	s	6	1	SIC	433	ABS	0	0	3	3	24_3_3	NA	NA	0	1	4.16281795502	None	None	None	None	1
3.0.1	2019_Mar_05_1014	s	s	6	1	SIC	434	2_1	2	1	2	2	23_2_2	0	1	1	0	2.63379979134	-352.0	267.0	-349.0	265.0	1
3.0.1	2019_Mar_05_1014	s	s	6	1	SIC	435	ABS	0	0	3	4	24_3_4	NA	NA	0	1	1.95456504822	None	None	None	None	1
3.0.1	2019_Mar_05_1014	s	s	6	1	SIC	436	1_4	1	4	2	3	23_2_3	1	1	1	0	1.74015116692	-533.0	-23.0	-533.0	-30.0	1
3.0.1	2019_Mar_05_1014	s	s	6	1	SIC	437	ABS	0	0	1	1	24_1_1	NA	NA	0	1	1.79622411728	None	None	None	None	1
3.0.1	2019_Mar_05_1014	s	s	6	1	SIC	438	1_4	1	4	1	2	23_1_2	0	2	1	0	1.09316802025	-83.0	334.0	-81.0	336.0	1
3.0.1	2019_Mar_05_1014	s	s	6	1	SIC	439	4_2	4	2	3	3	23_3_3	1	1	1	0	0.481564044952	501.0	235.0	489.0	236.0	1
3.0.1	2019_Mar_05_1014	s	s	6	1	SIC	440	3_1	3	1	4	3	23_4_3	-1	2	1	0	0.384229898453	207.0	324.0	205.0	324.0	1
3.0.1	2019_Mar_05_1014	s	s	6	1	SIC	441	ABS	0	0	1	3	24_1_3	NA	NA	0	1	4.28638696671	None	None	None	None	1
3.0.1	2019_Mar_05_1014	s	s	6	1	SIC	442	ABS	0	0	3	4	24_3_4	NA	NA	0	1	2.01970791817	None	None	None	None	1
3.0.1	2019_Mar_05_1014	s	s	6	1	SIC	443	ABS	0	0	1	2	24_1_2	NA	NA	0	1	3.22658109665	None	None	None	None	1
3.0.1	2019_Mar_05_1014	s	s	6	1	SIC	444	4_2	4	2	3	1	23_3_1	1	-1	1	0	0.496183872223	279.0	2.0	285.0	-1.0	1
3.0.1	2019_Mar_05_1014	s	s	6	1	SIC	445	4_1	4	1	2	4	23_2_4	2	3	1	0	0.442743778229	166.0	-207.0	156.0	-207.0	1
3.0.1	2019_Mar_05_1014	s	s	6	1	SIC	446	4_3	4	3	4	1	23_4_1	0	2	1	0	1.32490205765	-13.0	-26.0	-12.0	-25.0	1
3.0.1	2019_Mar_05_1014	s	s	6	1	SIC	447	ABS	0	0	4	2	24_4_2	NA	NA	0	1	5.69502687454	None	None	None	None	1
3.0.1	2019_Mar_05_1014	s	s	6	1	SIC	448	ABS	0	0	3	4	24_3_4	NA	NA	0	1	1.54009890556	None	None	None	None	1
3.0.1	2019_Mar_05_1014	s	s	6	1	SIC	449	ABS	0	0	2	3	24_2_3	NA	NA	0	1	4.34469389915	None	None	None	None	1
3.0.1	2019_Mar_05_1014	s	s	6	1	SIC	450	3_2	3	2	4	3	23_4_3	-1	1	1	0	0.49621796608	-337.0	-129.0	-329.0	-126.0	1
3.0.1	2019_Mar_05_1014	s	s	6	1	SIC	451	ABS	0	0	3	4	24_3_4	NA	NA	0	1	1.94463610649	None	None	None	None	1
3.0.1	2019_Mar_05_1014	s	s	6	1	SIC	452	3_1	3	1	2	4	23_2_4	1	3	1	0	0.521872997284	532.0	-207.0	527.0	-204.0	1
3.0.1	2019_Mar_05_1014	s	s	6	1	SIC	453	ABS	0	0	2	3	24_2_3	NA	NA	0	1	3.9080080986	None	None	None	None	1
3.0.1	2019_Mar_05_1014	s	s	6	1	SIC	454	1_3	1	3	4	4	23_4_4	3	-1	1	0	0.458024024963	311.0	-290.0	317.0	-284.0	1
3.0.1	2019_Mar_05_1014	s	s	6	1	SIC	455	1_4	1	4	3	3	23_3_3	2	1	1	0	0.422727823257	265.0	69.0	254.0	74.0	1
3.0.1	2019_Mar_05_1014	s	s	6	1	SIC	456	4_3	4	3	1	1	23_1_1	3	2	1	0	0.437483787537	506.0	186.0	509.0	189.0	1
3.0.1	2019_Mar_05_1014	s	s	6	1	SIC	457	ABS	0	0	1	1	24_1_1	NA	NA	0	1	1.92120599747	None	None	None	None	1
3.0.1	2019_Mar_05_1014	s	s	6	1	SIC	458	1_1	1	1	3	1	23_3_1	2	0	1	0	0.521625995636	-106.0	369.0	-110.0	366.0	1
3.0.1	2019_Mar_05_1014	s	s	6	1	SIC	459	ABS	0	0	2	2	24_2_2	NA	NA	0	1	4.91541695595	None	None	None	None	1
3.0.1	2019_Mar_05_1014	s	s	6	1	SIC	460	3_1	3	1	2	2	23_2_2	1	1	1	0	0.50506401062	322.0	-19.0	320.0	-19.0	1
3.0.1	2019_Mar_05_1014	s	s	6	1	SIC	461	1_2	1	2	1	3	23_1_3	0	1	1	0	3.84005689621	510.0	-356.0	509.0	-364.0	1
3.0.1	2019_Mar_05_1014	s	s	6	1	SIC	462	1_4	1	4	2	2	23_2_2	1	2	1	0	0.580719947815	331.0	-293.0	336.0	-293.0	1
3.0.1	2019_Mar_05_1014	s	s	6	1	SIC	463	ABS	0	0	1	2	24_1_2	NA	NA	0	1	4.46865105629	None	None	None	None	1
3.0.1	2019_Mar_05_1014	s	s	6	1	SIC	464	ABS	0	0	2	3	24_2_3	NA	NA	0	1	4.91224312782	None	None	None	None	1
3.0.1	2019_Mar_05_1014	s	s	6	1	SIC	465	4_2	4	2	1	4	23_1_4	3	2	1	0	0.422760009766	-457.0	-317.0	-449.0	-316.0	1
3.0.1	2019_Mar_05_1014	s	s	6	1	SIC	466	ABS	0	0	3	4	24_3_4	NA	NA	0	1	1.92046809196	None	None	None	None	1
3.0.1	2019_Mar_05_1014	s	s	6	1	SIC	467	ABS	0	0	3	3	24_3_3	NA	NA	0	1	4.73016190529	None	None	None	None	1
3.0.1	2019_Mar_05_1014	s	s	6	1	SIC	468	3_3	3	3	1	3	23_1_3	2	0	1	0	0.516881942749	133.0	-135.0	135.0	-142.0	1
3.0.1	2019_Mar_05_1014	s	s	6	1	SIC	469	ABS	0	0	1	2	24_1_2	NA	NA	0	1	4.75356483459	None	None	None	None	1
3.0.1	2019_Mar_05_1014	s	s	6	1	SIC	470	ABS	0	0	3	3	24_3_3	NA	NA	0	1	3.83862614632	None	None	None	None	1
3.0.1	2019_Mar_05_1014	s	s	6	1	SIC	471	ABS	0	0	1	4	24_1_4	NA	NA	0	1	2.46022295952	None	None	None	None	1
3.0.1	2019_Mar_05_1014	s	s	6	1	SIC	472	ABS	0	0	1	4	24_1_4	NA	NA	0	1	2.4573738575	None	None	None	None	1
3.0.1	2019_Mar_05_1014	s	s	6	1	SIC	473	3_2	3	2	3	4	23_3_4	0	2	1	0	0.675405025482	127.0	287.0	129.0	284.0	1
3.0.1	2019_Mar_05_1014	s	s	6	1	SIC	474	2_3	2	3	3	2	23_3_2	1	1	1	0	0.970057010651	-429.0	-354.0	-433.0	-355.0	1
3.0.1	2019_Mar_05_1014	s	s	6	1	SIC	475	ABS	0	0	2	4	24_2_4	NA	NA	0	1	1.72031021118	None	None	None	None	1
3.0.1	2019_Mar_05_1014	s	s	6	1	SIC	476	3_4	3	4	4	1	23_4_1	-1	3	1	0	0.445165872574	-334.0	-38.0	-338.0	-35.0	1
3.0.1	2019_Mar_05_1014	s	s	6	1	SIC	477	1_4	1	4	3	2	23_3_2	2	2	1	0	0.457941770554	-1.0	346.0	1.0	337.0	1
3.0.1	2019_Mar_05_1014	s	s	6	1	SIC	478	ABS	0	0	3	1	24_3_1	NA	NA	0	1	2.18710708618	None	None	None	None	1
3.0.1	2019_Mar_05_1014	s	s	6	1	SIC	479	2_1	2	1	1	2	23_1_2	-1	1	1	0	2.88445591927	0.0	-286.0	-2.0	-286.0	1
3.0.1	2019_Mar_05_1014	s	s	6	1	SIC	480	ABS	0	0	4	3	24_4_3	NA	NA	0	1	4.25975990295	None	None	None	None	1
