Version	Date	Stimuli	Method	Subject	Session	Condition	Trial	Target	TColor	TShape	DColor	DShape	Distractors	Channel1	Channel2	LMouseButton	RMouseButton	RT	TargetX	TargetY	ResponseX	ResponseY	Correct
3.0.1	2019_Mar_08_1005	s	s	6	2	Capacity	1	ABS	0	0	1	2	24_1_2	NA	NA	0	1	5.98616909981	None	None	None	None	1
3.0.1	2019_Mar_08_1005	s	s	6	2	Capacity	2	ABS	0	0	1	3	24_1_3	NA	NA	0	1	5.28012108803	None	None	None	None	1
3.0.1	2019_Mar_08_1005	s	s	6	2	Capacity	3	ABS	0	0	1	2	24_1_2	NA	NA	0	1	6.52720403671	None	None	None	None	1
3.0.1	2019_Mar_08_1005	s	s	6	2	Capacity	4	ABS	0	0	1	4	24_1_4	NA	NA	0	1	2.0989780426	None	None	None	None	1
3.0.1	2019_Mar_08_1005	s	s	6	2	Capacity	5	ABS	0	0	1	1	24_1_1	NA	NA	0	1	2.53324604034	None	None	None	None	1
3.0.1	2019_Mar_08_1005	s	s	6	2	Capacity	6	1_2	1	2	1	3	23_1_3	0	1	1	0	3.08368086815	296.0	94.0	295.0	94.0	1
3.0.1	2019_Mar_08_1005	s	s	6	2	Capacity	7	1_3	1	3	1	1	23_1_1	0	2	1	0	0.881402015686	-348.0	255.0	-347.0	254.0	1
3.0.1	2019_Mar_08_1005	s	s	6	2	Capacity	8	ABS	0	0	1	1	24_1_1	NA	NA	0	1	2.02660489082	None	None	None	None	1
3.0.1	2019_Mar_08_1005	s	s	6	2	Capacity	9	1_4	1	4	1	2	23_1_2	0	2	1	0	0.555011034012	-86.0	383.0	-82.0	384.0	1
3.0.1	2019_Mar_08_1005	s	s	6	2	Capacity	10	1_2	1	2	1	4	23_1_4	0	2	1	0	0.516796112061	221.0	-43.0	212.0	-35.0	1
3.0.1	2019_Mar_08_1005	s	s	6	2	Capacity	11	1_1	1	1	1	2	23_1_2	0	1	1	0	1.97266793251	266.0	193.0	270.0	192.0	1
3.0.1	2019_Mar_08_1005	s	s	6	2	Capacity	12	1_4	1	4	1	3	23_1_3	0	1	1	0	0.79910993576	452.0	-102.0	450.0	-107.0	1
3.0.1	2019_Mar_08_1005	s	s	6	2	Capacity	13	ABS	0	0	1	1	24_1_1	NA	NA	0	1	2.66401600838	None	None	None	None	1
3.0.1	2019_Mar_08_1005	s	s	6	2	Capacity	14	ABS	0	0	1	3	24_1_3	NA	NA	0	1	3.42476892471	None	None	None	None	1
3.0.1	2019_Mar_08_1005	s	s	6	2	Capacity	15	ABS	0	0	1	2	24_1_2	NA	NA	0	1	5.40292000771	None	None	None	None	1
3.0.1	2019_Mar_08_1005	s	s	6	2	Capacity	16	1_4	1	4	1	1	23_1_1	0	3	1	0	0.592360019684	323.0	99.0	331.0	96.0	1
3.0.1	2019_Mar_08_1005	s	s	6	2	Capacity	17	ABS	0	0	1	4	24_1_4	NA	NA	0	1	2.60151600838	None	None	None	None	1
3.0.1	2019_Mar_08_1005	s	s	6	2	Capacity	18	ABS	0	0	1	3	24_1_3	NA	NA	0	1	4.06911802292	None	None	None	None	1
3.0.1	2019_Mar_08_1005	s	s	6	2	Capacity	19	1_1	1	1	1	4	23_1_4	0	3	1	0	0.487232923508	327.0	11.0	327.0	10.0	1
3.0.1	2019_Mar_08_1005	s	s	6	2	Capacity	20	1_3	1	3	1	4	23_1_4	0	-1	1	0	1.31139779091	-456.0	-331.0	-447.0	-330.0	1
3.0.1	2019_Mar_08_1005	s	s	6	2	Capacity	21	1_2	1	2	1	1	23_1_1	0	-1	1	0	1.24609589577	-492.0	-107.0	-495.0	-116.0	1
3.0.1	2019_Mar_08_1005	s	s	6	2	Capacity	22	1_3	1	3	1	2	23_1_2	0	1	1	0	5.82111096382	495.0	139.0	489.0	139.0	1
3.0.1	2019_Mar_08_1005	s	s	6	2	Capacity	23	ABS	0	0	1	4	24_1_4	NA	NA	0	1	2.51621198654	None	None	None	None	1
3.0.1	2019_Mar_08_1005	s	s	6	2	Capacity	24	1_1	1	1	1	3	23_1_3	0	2	1	0	0.790225982666	140.0	-96.0	142.0	-90.0	1
3.0.1	2019_Mar_08_1005	s	s	6	2	Capacity	25	ABS	0	0	1	2	24_1_2	NA	NA	0	1	5.67326402664	None	None	None	None	1
3.0.1	2019_Mar_08_1005	s	s	6	2	Capacity	26	1_3	1	3	1	2	23_1_2	0	1	1	0	6.24453806877	400.0	-345.0	395.0	-345.0	1
3.0.1	2019_Mar_08_1005	s	s	6	2	Capacity	27	ABS	0	0	1	3	24_1_3	NA	NA	0	1	4.05688786507	None	None	None	None	1
3.0.1	2019_Mar_08_1005	s	s	6	2	Capacity	28	ABS	0	0	1	4	24_1_4	NA	NA	0	1	1.97262716293	None	None	None	None	1
3.0.1	2019_Mar_08_1005	s	s	6	2	Capacity	29	1_4	1	4	1	2	23_1_2	0	2	1	0	0.723276853561	515.0	-61.0	523.0	-59.0	1
3.0.1	2019_Mar_08_1005	s	s	6	2	Capacity	30	1_2	1	2	1	1	23_1_1	0	-1	1	0	1.36900496483	-271.0	69.0	-267.0	63.0	1
3.0.1	2019_Mar_08_1005	s	s	6	2	Capacity	31	ABS	0	0	1	1	24_1_1	NA	NA	0	1	3.84909486771	None	None	None	None	1
3.0.1	2019_Mar_08_1005	s	s	6	2	Capacity	32	1_2	1	2	1	3	23_1_3	0	1	1	0	1.90756106377	105.0	-100.0	108.0	-101.0	1
3.0.1	2019_Mar_08_1005	s	s	6	2	Capacity	33	ABS	0	0	1	4	24_1_4	NA	NA	0	1	2.10944700241	None	None	None	None	1
3.0.1	2019_Mar_08_1005	s	s	6	2	Capacity	34	ABS	0	0	1	2	24_1_2	NA	NA	0	1	6.17396688461	None	None	None	None	1
3.0.1	2019_Mar_08_1005	s	s	6	2	Capacity	35	1_1	1	1	1	4	23_1_4	0	3	1	0	0.639756917953	-404.0	216.0	-401.0	211.0	1
3.0.1	2019_Mar_08_1005	s	s	6	2	Capacity	36	1_1	1	1	1	2	23_1_2	0	1	1	0	4.64466905594	361.0	52.0	358.0	46.0	1
3.0.1	2019_Mar_08_1005	s	s	6	2	Capacity	37	1_1	1	1	1	3	23_1_3	0	2	1	0	4.64541006088	-496.0	278.0	-501.0	272.0	1
3.0.1	2019_Mar_08_1005	s	s	6	2	Capacity	38	ABS	0	0	1	1	24_1_1	NA	NA	0	1	2.14274096489	None	None	None	None	1
3.0.1	2019_Mar_08_1005	s	s	6	2	Capacity	39	1_4	1	4	1	3	23_1_3	0	1	1	0	0.681849002838	517.0	-202.0	520.0	-204.0	1
3.0.1	2019_Mar_08_1005	s	s	6	2	Capacity	40	ABS	0	0	1	3	24_1_3	NA	NA	0	1	3.46882390976	None	None	None	None	1
3.0.1	2019_Mar_08_1005	s	s	6	2	Capacity	41	ABS	0	0	1	2	24_1_2	NA	NA	0	1	5.05665898323	None	None	None	None	1
3.0.1	2019_Mar_08_1005	s	s	6	2	Capacity	42	ABS	0	0	1	4	24_1_4	NA	NA	0	1	1.66439795494	None	None	None	None	1
3.0.1	2019_Mar_08_1005	s	s	6	2	Capacity	43	1_3	1	3	1	1	23_1_1	0	2	1	0	1.83413410187	-158.0	-297.0	-159.0	-302.0	1
3.0.1	2019_Mar_08_1005	s	s	6	2	Capacity	44	ABS	0	0	1	1	24_1_1	NA	NA	0	1	2.11629080772	None	None	None	None	1
3.0.1	2019_Mar_08_1005	s	s	6	2	Capacity	45	ABS	0	0	1	3	24_1_3	NA	NA	0	1	4.65025806427	None	None	None	None	1
3.0.1	2019_Mar_08_1005	s	s	6	2	Capacity	46	1_2	1	2	1	4	23_1_4	0	2	1	0	0.658038139343	-476.0	57.0	-472.0	57.0	1
3.0.1	2019_Mar_08_1005	s	s	6	2	Capacity	47	1_3	1	3	1	4	23_1_4	0	-1	1	0	0.587361812592	-360.0	-87.0	-362.0	-88.0	1
3.0.1	2019_Mar_08_1005	s	s	6	2	Capacity	48	1_4	1	4	1	1	23_1_1	0	3	1	0	0.650577068329	-179.0	-358.0	-180.0	-354.0	1
3.0.1	2019_Mar_08_1005	s	s	6	2	Capacity	49	1_2	1	2	1	4	23_1_4	0	2	1	0	0.575595140457	348.0	-277.0	350.0	-271.0	1
3.0.1	2019_Mar_08_1005	s	s	6	2	Capacity	50	ABS	0	0	1	1	24_1_1	NA	NA	0	1	1.76779794693	None	None	None	None	1
3.0.1	2019_Mar_08_1005	s	s	6	2	Capacity	51	ABS	0	0	1	2	24_1_2	NA	NA	0	1	5.4036450386	None	None	None	None	1
3.0.1	2019_Mar_08_1005	s	s	6	2	Capacity	52	ABS	0	0	1	4	24_1_4	NA	NA	0	1	2.15831398964	None	None	None	None	1
3.0.1	2019_Mar_08_1005	s	s	6	2	Capacity	53	ABS	0	0	1	2	24_1_2	NA	NA	0	1	5.45650410652	None	None	None	None	1
3.0.1	2019_Mar_08_1005	s	s	6	2	Capacity	54	ABS	0	0	1	4	24_1_4	NA	NA	0	1	2.09285902977	None	None	None	None	1
3.0.1	2019_Mar_08_1005	s	s	6	2	Capacity	55	ABS	0	0	1	1	24_1_1	NA	NA	0	1	2.18304204941	None	None	None	None	1
3.0.1	2019_Mar_08_1005	s	s	6	2	Capacity	56	1_2	1	2	1	1	23_1_1	0	-1	0	1	2.43681383133	-104.0	-236.0	None	None	0
3.0.1	2019_Mar_08_1005	s	s	6	2	Capacity	57	ABS	0	0	1	2	24_1_2	NA	NA	0	1	4.29702711105	None	None	None	None	1
3.0.1	2019_Mar_08_1005	s	s	6	2	Capacity	58	1_3	1	3	1	1	23_1_1	0	2	1	0	1.15835189819	-389.0	375.0	-388.0	369.0	1
3.0.1	2019_Mar_08_1005	s	s	6	2	Capacity	59	1_2	1	2	1	3	23_1_3	0	1	0	1	3.71580910683	537.0	-399.0	None	None	0
3.0.1	2019_Mar_08_1005	s	s	6	2	Capacity	60	1_4	1	4	1	3	23_1_3	0	1	1	0	0.628165960312	267.0	-245.0	267.0	-260.0	1
3.0.1	2019_Mar_08_1005	s	s	6	2	Capacity	61	1_3	1	3	1	4	23_1_4	0	-1	1	0	0.663166999817	379.0	-289.0	374.0	-292.0	1
3.0.1	2019_Mar_08_1005	s	s	6	2	Capacity	62	ABS	0	0	1	3	24_1_3	NA	NA	0	1	3.81326794624	None	None	None	None	1
3.0.1	2019_Mar_08_1005	s	s	6	2	Capacity	63	1_1	1	1	1	4	23_1_4	0	3	1	0	0.664576053619	353.0	-128.0	354.0	-127.0	1
3.0.1	2019_Mar_08_1005	s	s	6	2	Capacity	64	ABS	0	0	1	1	24_1_1	NA	NA	0	1	2.05103397369	None	None	None	None	1
3.0.1	2019_Mar_08_1005	s	s	6	2	Capacity	65	1_4	1	4	1	2	23_1_2	0	2	1	0	0.496237039566	41.0	-82.0	40.0	-82.0	1
3.0.1	2019_Mar_08_1005	s	s	6	2	Capacity	66	1_3	1	3	1	2	23_1_2	0	1	1	0	0.634634017944	-187.0	28.0	-190.0	22.0	1
3.0.1	2019_Mar_08_1005	s	s	6	2	Capacity	67	ABS	0	0	1	3	24_1_3	NA	NA	0	1	3.90692806244	None	None	None	None	1
3.0.1	2019_Mar_08_1005	s	s	6	2	Capacity	68	ABS	0	0	1	4	24_1_4	NA	NA	0	1	1.96045517921	None	None	None	None	1
3.0.1	2019_Mar_08_1005	s	s	6	2	Capacity	69	1_1	1	1	1	3	23_1_3	0	2	1	0	1.22540187836	38.0	-62.0	34.0	-52.0	1
3.0.1	2019_Mar_08_1005	s	s	6	2	Capacity	70	ABS	0	0	1	3	24_1_3	NA	NA	0	1	3.81378006935	None	None	None	None	1
3.0.1	2019_Mar_08_1005	s	s	6	2	Capacity	71	1_1	1	1	1	2	23_1_2	0	1	1	0	2.74425315857	410.0	-281.0	402.0	-283.0	1
3.0.1	2019_Mar_08_1005	s	s	6	2	Capacity	72	1_4	1	4	1	1	23_1_1	0	3	1	0	0.505096197128	180.0	-343.0	166.0	-337.0	1
3.0.1	2019_Mar_08_1005	s	s	6	2	Capacity	73	1_1	1	1	1	4	23_1_4	0	3	1	0	0.56386089325	-492.0	-3.0	-489.0	-4.0	1
3.0.1	2019_Mar_08_1005	s	s	6	2	Capacity	74	ABS	0	0	1	3	24_1_3	NA	NA	0	1	4.67140579224	None	None	None	None	1
3.0.1	2019_Mar_08_1005	s	s	6	2	Capacity	75	ABS	0	0	1	3	24_1_3	NA	NA	0	1	4.70388889313	None	None	None	None	1
3.0.1	2019_Mar_08_1005	s	s	6	2	Capacity	76	ABS	0	0	1	4	24_1_4	NA	NA	0	1	1.99556779861	None	None	None	None	1
3.0.1	2019_Mar_08_1005	s	s	6	2	Capacity	77	ABS	0	0	1	4	24_1_4	NA	NA	0	1	1.9076499939	None	None	None	None	1
3.0.1	2019_Mar_08_1005	s	s	6	2	Capacity	78	1_3	1	3	1	1	23_1_1	0	2	1	0	1.07445693016	369.0	114.0	369.0	111.0	1
3.0.1	2019_Mar_08_1005	s	s	6	2	Capacity	79	1_4	1	4	1	3	23_1_3	0	1	1	0	0.481564998627	143.0	235.0	157.0	243.0	1
3.0.1	2019_Mar_08_1005	s	s	6	2	Capacity	80	1_4	1	4	1	2	23_1_2	0	2	1	0	0.404411077499	267.0	26.0	263.0	20.0	1
3.0.1	2019_Mar_08_1005	s	s	6	2	Capacity	81	ABS	0	0	1	3	24_1_3	NA	NA	0	1	2.75701999664	None	None	None	None	1
3.0.1	2019_Mar_08_1005	s	s	6	2	Capacity	82	1_4	1	4	1	1	23_1_1	0	3	0	1	0.509853839874	211.0	83.0	None	None	0
3.0.1	2019_Mar_08_1005	s	s	6	2	Capacity	83	1_3	1	3	1	4	23_1_4	0	-1	1	0	0.731437921524	493.0	289.0	494.0	286.0	1
3.0.1	2019_Mar_08_1005	s	s	6	2	Capacity	84	1_1	1	1	1	2	23_1_2	0	1	1	0	1.14089202881	-433.0	-197.0	-437.0	-205.0	1
3.0.1	2019_Mar_08_1005	s	s	6	2	Capacity	85	1_2	1	2	1	3	23_1_3	0	1	1	0	1.63412714005	-454.0	-21.0	-452.0	-25.0	1
3.0.1	2019_Mar_08_1005	s	s	6	2	Capacity	86	ABS	0	0	1	2	24_1_2	NA	NA	0	1	5.19114208221	None	None	None	None	1
3.0.1	2019_Mar_08_1005	s	s	6	2	Capacity	87	1_3	1	3	1	2	23_1_2	0	1	1	0	2.90951490402	-349.0	-240.0	-342.0	-240.0	1
3.0.1	2019_Mar_08_1005	s	s	6	2	Capacity	88	1_2	1	2	1	1	23_1_1	0	-1	1	0	2.19344782829	361.0	299.0	363.0	293.0	1
3.0.1	2019_Mar_08_1005	s	s	6	2	Capacity	89	ABS	0	0	1	2	24_1_2	NA	NA	0	1	4.62140607834	None	None	None	None	1
3.0.1	2019_Mar_08_1005	s	s	6	2	Capacity	90	1_2	1	2	1	4	23_1_4	0	2	1	0	0.627793073654	-503.0	38.0	-504.0	36.0	1
3.0.1	2019_Mar_08_1005	s	s	6	2	Capacity	91	ABS	0	0	1	4	24_1_4	NA	NA	0	1	1.81056904793	None	None	None	None	1
3.0.1	2019_Mar_08_1005	s	s	6	2	Capacity	92	ABS	0	0	1	1	24_1_1	NA	NA	0	1	2.24575591087	None	None	None	None	1
3.0.1	2019_Mar_08_1005	s	s	6	2	Capacity	93	ABS	0	0	1	1	24_1_1	NA	NA	0	1	1.78701591492	None	None	None	None	1
3.0.1	2019_Mar_08_1005	s	s	6	2	Capacity	94	1_1	1	1	1	3	23_1_3	0	2	1	0	2.14435386658	-485.0	-135.0	-481.0	-132.0	1
3.0.1	2019_Mar_08_1005	s	s	6	2	Capacity	95	ABS	0	0	1	2	24_1_2	NA	NA	0	1	3.29751396179	None	None	None	None	1
3.0.1	2019_Mar_08_1005	s	s	6	2	Capacity	96	ABS	0	0	1	1	24_1_1	NA	NA	0	1	2.43882894516	None	None	None	None	1
3.0.1	2019_Mar_08_1005	s	s	6	2	Capacity	1	ABS	0	0	4	1	24_4_1	NA	NA	0	1	1.83445906639	None	None	None	None	1
3.0.1	2019_Mar_08_1005	s	s	6	2	Capacity	2	3_1	3	1	1	1	23_1_1	2	0	1	0	0.442047119141	345.0	-65.0	352.0	-66.0	1
3.0.1	2019_Mar_08_1005	s	s	6	2	Capacity	3	ABS	0	0	2	1	24_2_1	NA	NA	0	1	2.97779893875	None	None	None	None	1
3.0.1	2019_Mar_08_1005	s	s	6	2	Capacity	4	ABS	0	0	1	1	24_1_1	NA	NA	0	1	2.64570498466	None	None	None	None	1
3.0.1	2019_Mar_08_1005	s	s	6	2	Capacity	5	ABS	0	0	3	1	24_3_1	NA	NA	0	1	2.20186710358	None	None	None	None	1
3.0.1	2019_Mar_08_1005	s	s	6	2	Capacity	6	1_1	1	1	2	1	23_2_1	1	0	1	0	2.52109909058	325.0	52.0	327.0	52.0	1
3.0.1	2019_Mar_08_1005	s	s	6	2	Capacity	7	1_1	1	1	4	1	23_4_1	3	0	1	0	0.41099691391	-178.0	-240.0	-174.0	-244.0	1
3.0.1	2019_Mar_08_1005	s	s	6	2	Capacity	8	2_1	2	1	4	1	23_4_1	2	0	1	0	0.516798973083	105.0	59.0	105.0	61.0	1
3.0.1	2019_Mar_08_1005	s	s	6	2	Capacity	9	ABS	0	0	4	1	24_4_1	NA	NA	0	1	1.65771985054	None	None	None	None	1
3.0.1	2019_Mar_08_1005	s	s	6	2	Capacity	10	ABS	0	0	3	1	24_3_1	NA	NA	0	1	1.8654460907	None	None	None	None	1
3.0.1	2019_Mar_08_1005	s	s	6	2	Capacity	11	2_1	2	1	1	1	23_1_1	-1	0	0	1	2.1281170845	383.0	-251.0	None	None	0
3.0.1	2019_Mar_08_1005	s	s	6	2	Capacity	12	3_1	3	1	4	1	23_4_1	-1	0	1	0	0.357343912125	-258.0	-58.0	-248.0	-59.0	1
3.0.1	2019_Mar_08_1005	s	s	6	2	Capacity	13	ABS	0	0	1	1	24_1_1	NA	NA	0	1	2.41557693481	None	None	None	None	1
3.0.1	2019_Mar_08_1005	s	s	6	2	Capacity	14	ABS	0	0	2	1	24_2_1	NA	NA	0	1	3.25725007057	None	None	None	None	1
3.0.1	2019_Mar_08_1005	s	s	6	2	Capacity	15	ABS	0	0	2	1	24_2_1	NA	NA	0	1	2.51914787292	None	None	None	None	1
3.0.1	2019_Mar_08_1005	s	s	6	2	Capacity	16	ABS	0	0	3	1	24_3_1	NA	NA	0	1	2.69266796112	None	None	None	None	1
3.0.1	2019_Mar_08_1005	s	s	6	2	Capacity	17	4_1	4	1	3	1	23_3_1	1	0	1	0	0.426676988602	132.0	-310.0	130.0	-312.0	1
3.0.1	2019_Mar_08_1005	s	s	6	2	Capacity	18	3_1	3	1	2	1	23_2_1	1	0	1	0	0.55965590477	-139.0	245.0	-141.0	249.0	1
3.0.1	2019_Mar_08_1005	s	s	6	2	Capacity	19	4_1	4	1	1	1	23_1_1	3	0	1	0	0.369545936584	282.0	128.0	272.0	128.0	1
3.0.1	2019_Mar_08_1005	s	s	6	2	Capacity	20	1_1	1	1	3	1	23_3_1	2	0	1	0	0.410994052887	-163.0	120.0	-164.0	108.0	1
3.0.1	2019_Mar_08_1005	s	s	6	2	Capacity	21	4_1	4	1	2	1	23_2_1	2	0	1	0	0.345379829407	-18.0	-47.0	-24.0	-53.0	1
3.0.1	2019_Mar_08_1005	s	s	6	2	Capacity	22	ABS	0	0	4	1	24_4_1	NA	NA	0	1	2.18462395668	None	None	None	None	1
3.0.1	2019_Mar_08_1005	s	s	6	2	Capacity	23	ABS	0	0	1	1	24_1_1	NA	NA	0	1	2.0392100811	None	None	None	None	1
3.0.1	2019_Mar_08_1005	s	s	6	2	Capacity	24	2_1	2	1	3	1	23_3_1	1	0	1	0	0.587415933609	81.0	222.0	82.0	221.0	1
3.0.1	2019_Mar_08_1005	s	s	6	2	Capacity	25	ABS	0	0	2	1	24_2_1	NA	NA	0	1	1.97099399567	None	None	None	None	1
3.0.1	2019_Mar_08_1005	s	s	6	2	Capacity	26	3_1	3	1	2	1	23_2_1	1	0	1	0	0.53373003006	70.0	227.0	63.0	220.0	1
3.0.1	2019_Mar_08_1005	s	s	6	2	Capacity	27	ABS	0	0	2	1	24_2_1	NA	NA	0	1	2.06930279732	None	None	None	None	1
3.0.1	2019_Mar_08_1005	s	s	6	2	Capacity	28	3_1	3	1	4	1	23_4_1	-1	0	1	0	0.378524065018	-117.0	-175.0	-122.0	-172.0	1
3.0.1	2019_Mar_08_1005	s	s	6	2	Capacity	29	1_1	1	1	2	1	23_2_1	1	0	1	0	1.5213201046	-379.0	125.0	-377.0	124.0	1
3.0.1	2019_Mar_08_1005	s	s	6	2	Capacity	30	ABS	0	0	1	1	24_1_1	NA	NA	0	1	3.97476792336	None	None	None	None	1
3.0.1	2019_Mar_08_1005	s	s	6	2	Capacity	31	2_1	2	1	3	1	23_3_1	1	0	1	0	0.425767183304	39.0	-87.0	44.0	-88.0	1
3.0.1	2019_Mar_08_1005	s	s	6	2	Capacity	32	4_1	4	1	2	1	23_2_1	2	0	1	0	0.378587007523	-39.0	-156.0	-35.0	-155.0	1
3.0.1	2019_Mar_08_1005	s	s	6	2	Capacity	33	ABS	0	0	1	1	24_1_1	NA	NA	0	1	2.01340889931	None	None	None	None	1
3.0.1	2019_Mar_08_1005	s	s	6	2	Capacity	34	2_1	2	1	4	1	23_4_1	2	0	1	0	0.399201869965	145.0	-396.0	152.0	-389.0	1
3.0.1	2019_Mar_08_1005	s	s	6	2	Capacity	35	ABS	0	0	3	1	24_3_1	NA	NA	0	1	2.56353998184	None	None	None	None	1
3.0.1	2019_Mar_08_1005	s	s	6	2	Capacity	36	ABS	0	0	4	1	24_4_1	NA	NA	0	1	1.84995102882	None	None	None	None	1
3.0.1	2019_Mar_08_1005	s	s	6	2	Capacity	37	ABS	0	0	3	1	24_3_1	NA	NA	0	1	1.98695898056	None	None	None	None	1
3.0.1	2019_Mar_08_1005	s	s	6	2	Capacity	38	ABS	0	0	1	1	24_1_1	NA	NA	0	1	1.89296293259	None	None	None	None	1
3.0.1	2019_Mar_08_1005	s	s	6	2	Capacity	39	ABS	0	0	4	1	24_4_1	NA	NA	0	1	1.36364006996	None	None	None	None	1
3.0.1	2019_Mar_08_1005	s	s	6	2	Capacity	40	ABS	0	0	4	1	24_4_1	NA	NA	0	1	1.87579607964	None	None	None	None	1
3.0.1	2019_Mar_08_1005	s	s	6	2	Capacity	41	2_1	2	1	1	1	23_1_1	-1	0	1	0	4.46862912178	-23.0	382.0	-21.0	376.0	1
3.0.1	2019_Mar_08_1005	s	s	6	2	Capacity	42	4_1	4	1	3	1	23_3_1	1	0	1	0	0.403478860855	-354.0	-255.0	-354.0	-253.0	1
3.0.1	2019_Mar_08_1005	s	s	6	2	Capacity	43	1_1	1	1	4	1	23_4_1	3	0	1	0	0.411046981812	-501.0	-65.0	-496.0	-62.0	1
3.0.1	2019_Mar_08_1005	s	s	6	2	Capacity	44	ABS	0	0	2	1	24_2_1	NA	NA	0	1	3.50416398048	None	None	None	None	1
3.0.1	2019_Mar_08_1005	s	s	6	2	Capacity	45	1_1	1	1	3	1	23_3_1	2	0	1	0	0.587383985519	63.0	44.0	66.0	35.0	1
3.0.1	2019_Mar_08_1005	s	s	6	2	Capacity	46	3_1	3	1	1	1	23_1_1	2	0	1	0	0.462461948395	372.0	280.0	376.0	270.0	1
3.0.1	2019_Mar_08_1005	s	s	6	2	Capacity	47	ABS	0	0	3	1	24_3_1	NA	NA	0	1	1.68525791168	None	None	None	None	1
3.0.1	2019_Mar_08_1005	s	s	6	2	Capacity	48	4_1	4	1	1	1	23_1_1	3	0	1	0	0.410894870758	73.0	-382.0	69.0	-393.0	1
3.0.1	2019_Mar_08_1005	s	s	6	2	Capacity	49	ABS	0	0	1	1	24_1_1	NA	NA	0	1	1.789894104	None	None	None	None	1
3.0.1	2019_Mar_08_1005	s	s	6	2	Capacity	50	ABS	0	0	3	1	24_3_1	NA	NA	0	1	1.64589309692	None	None	None	None	1
3.0.1	2019_Mar_08_1005	s	s	6	2	Capacity	51	ABS	0	0	3	1	24_3_1	NA	NA	0	1	1.7400560379	None	None	None	None	1
3.0.1	2019_Mar_08_1005	s	s	6	2	Capacity	52	4_1	4	1	2	1	23_2_1	2	0	1	0	0.437417984009	-51.0	-30.0	-40.0	-27.0	1
3.0.1	2019_Mar_08_1005	s	s	6	2	Capacity	53	4_1	4	1	1	1	23_1_1	3	0	1	0	0.36912894249	-81.0	-46.0	-79.0	-49.0	1
3.0.1	2019_Mar_08_1005	s	s	6	2	Capacity	54	3_1	3	1	1	1	23_1_1	2	0	1	0	0.410955905914	342.0	16.0	332.0	21.0	1
3.0.1	2019_Mar_08_1005	s	s	6	2	Capacity	55	ABS	0	0	1	1	24_1_1	NA	NA	0	1	1.96345090866	None	None	None	None	1
3.0.1	2019_Mar_08_1005	s	s	6	2	Capacity	56	ABS	0	0	1	1	24_1_1	NA	NA	0	1	1.77250814438	None	None	None	None	1
3.0.1	2019_Mar_08_1005	s	s	6	2	Capacity	57	1_1	1	1	2	1	23_2_1	1	0	1	0	4.5156211853	-305.0	409.0	-306.0	407.0	1
3.0.1	2019_Mar_08_1005	s	s	6	2	Capacity	58	2_1	2	1	1	1	23_1_1	-1	0	1	0	4.28485608101	-198.0	60.0	-199.0	57.0	1
3.0.1	2019_Mar_08_1005	s	s	6	2	Capacity	59	4_1	4	1	3	1	23_3_1	1	0	1	0	0.4231569767	467.0	272.0	461.0	265.0	1
3.0.1	2019_Mar_08_1005	s	s	6	2	Capacity	60	ABS	0	0	3	1	24_3_1	NA	NA	0	1	1.77531504631	None	None	None	None	1
3.0.1	2019_Mar_08_1005	s	s	6	2	Capacity	61	ABS	0	0	4	1	24_4_1	NA	NA	0	1	1.98701000214	None	None	None	None	1
3.0.1	2019_Mar_08_1005	s	s	6	2	Capacity	62	ABS	0	0	2	1	24_2_1	NA	NA	0	1	4.61850094795	None	None	None	None	1
3.0.1	2019_Mar_08_1005	s	s	6	2	Capacity	63	3_1	3	1	4	1	23_4_1	-1	0	1	0	0.410977125168	101.0	-255.0	110.0	-245.0	1
3.0.1	2019_Mar_08_1005	s	s	6	2	Capacity	64	3_1	3	1	2	1	23_2_1	1	0	1	0	0.460958003998	-79.0	358.0	-86.0	357.0	1
3.0.1	2019_Mar_08_1005	s	s	6	2	Capacity	65	ABS	0	0	2	1	24_2_1	NA	NA	0	1	4.60972094536	None	None	None	None	1
3.0.1	2019_Mar_08_1005	s	s	6	2	Capacity	66	2_1	2	1	3	1	23_3_1	1	0	1	0	0.775565862656	274.0	216.0	268.0	213.0	1
3.0.1	2019_Mar_08_1005	s	s	6	2	Capacity	67	1_1	1	1	4	1	23_4_1	3	0	1	0	0.399470090866	421.0	231.0	428.0	230.0	1
3.0.1	2019_Mar_08_1005	s	s	6	2	Capacity	68	ABS	0	0	4	1	24_4_1	NA	NA	0	1	1.18066000938	None	None	None	None	1
3.0.1	2019_Mar_08_1005	s	s	6	2	Capacity	69	ABS	0	0	2	1	24_2_1	NA	NA	0	1	3.58651995659	None	None	None	None	1
3.0.1	2019_Mar_08_1005	s	s	6	2	Capacity	70	1_1	1	1	3	1	23_3_1	2	0	1	0	0.499346971512	-378.0	-52.0	-374.0	-60.0	1
3.0.1	2019_Mar_08_1005	s	s	6	2	Capacity	71	2_1	2	1	4	1	23_4_1	2	0	1	0	0.378589868546	433.0	-185.0	429.0	-176.0	1
3.0.1	2019_Mar_08_1005	s	s	6	2	Capacity	72	ABS	0	0	4	1	24_4_1	NA	NA	0	1	1.73113107681	None	None	None	None	1
3.0.1	2019_Mar_08_1005	s	s	6	2	Capacity	73	3_1	3	1	2	1	23_2_1	1	0	1	0	0.614896059036	55.0	377.0	54.0	368.0	1
3.0.1	2019_Mar_08_1005	s	s	6	2	Capacity	74	ABS	0	0	4	1	24_4_1	NA	NA	0	1	1.61355400085	None	None	None	None	1
3.0.1	2019_Mar_08_1005	s	s	6	2	Capacity	75	4_1	4	1	3	1	23_3_1	1	0	1	0	0.476478099823	-415.0	109.0	-418.0	110.0	1
3.0.1	2019_Mar_08_1005	s	s	6	2	Capacity	76	1_1	1	1	4	1	23_4_1	3	0	1	0	0.35216999054	-187.0	-161.0	-178.0	-155.0	1
3.0.1	2019_Mar_08_1005	s	s	6	2	Capacity	77	3_1	3	1	1	1	23_1_1	2	0	1	0	0.48641204834	-446.0	-344.0	-441.0	-342.0	1
3.0.1	2019_Mar_08_1005	s	s	6	2	Capacity	78	2_1	2	1	1	1	23_1_1	-1	0	0	1	1.73994803429	441.0	-372.0	None	None	0
3.0.1	2019_Mar_08_1005	s	s	6	2	Capacity	79	ABS	0	0	1	1	24_1_1	NA	NA	0	1	2.58675289154	None	None	None	None	1
3.0.1	2019_Mar_08_1005	s	s	6	2	Capacity	80	ABS	0	0	1	1	24_1_1	NA	NA	0	1	1.98694109917	None	None	None	None	1
3.0.1	2019_Mar_08_1005	s	s	6	2	Capacity	81	3_1	3	1	4	1	23_4_1	-1	0	1	0	0.387476205826	100.0	-379.0	103.0	-373.0	1
3.0.1	2019_Mar_08_1005	s	s	6	2	Capacity	82	ABS	0	0	4	1	24_4_1	NA	NA	0	1	1.54000997543	None	None	None	None	1
3.0.1	2019_Mar_08_1005	s	s	6	2	Capacity	83	ABS	0	0	4	1	24_4_1	NA	NA	0	1	1.35709619522	None	None	None	None	1
3.0.1	2019_Mar_08_1005	s	s	6	2	Capacity	84	2_1	2	1	4	1	23_4_1	2	0	1	0	0.457978010178	-301.0	203.0	-304.0	193.0	1
3.0.1	2019_Mar_08_1005	s	s	6	2	Capacity	85	1_1	1	1	3	1	23_3_1	2	0	1	0	0.458039999008	-495.0	-142.0	-494.0	-140.0	1
3.0.1	2019_Mar_08_1005	s	s	6	2	Capacity	86	ABS	0	0	1	1	24_1_1	NA	NA	0	1	3.23878097534	None	None	None	None	1
3.0.1	2019_Mar_08_1005	s	s	6	2	Capacity	87	1_1	1	1	2	1	23_2_1	1	0	1	0	5.90732383728	523.0	367.0	519.0	367.0	1
3.0.1	2019_Mar_08_1005	s	s	6	2	Capacity	88	2_1	2	1	3	1	23_3_1	1	0	1	0	0.56379199028	-15.0	377.0	-21.0	368.0	1
3.0.1	2019_Mar_08_1005	s	s	6	2	Capacity	89	4_1	4	1	1	1	23_1_1	3	0	1	0	0.439383983612	221.0	-343.0	219.0	-344.0	1
3.0.1	2019_Mar_08_1005	s	s	6	2	Capacity	90	ABS	0	0	2	1	24_2_1	NA	NA	0	1	3.52254295349	None	None	None	None	1
3.0.1	2019_Mar_08_1005	s	s	6	2	Capacity	91	ABS	0	0	2	1	24_2_1	NA	NA	0	1	5.3510260582	None	None	None	None	1
3.0.1	2019_Mar_08_1005	s	s	6	2	Capacity	92	ABS	0	0	3	1	24_3_1	NA	NA	0	1	2.2604060173	None	None	None	None	1
3.0.1	2019_Mar_08_1005	s	s	6	2	Capacity	93	ABS	0	0	2	1	24_2_1	NA	NA	0	1	3.76289486885	None	None	None	None	1
3.0.1	2019_Mar_08_1005	s	s	6	2	Capacity	94	ABS	0	0	3	1	24_3_1	NA	NA	0	1	1.57536506653	None	None	None	None	1
3.0.1	2019_Mar_08_1005	s	s	6	2	Capacity	95	ABS	0	0	3	1	24_3_1	NA	NA	0	1	1.75170707703	None	None	None	None	1
3.0.1	2019_Mar_08_1005	s	s	6	2	Capacity	96	4_1	4	1	2	1	23_2_1	2	0	1	0	0.555027008057	-8.0	20.0	-15.0	28.0	1
3.0.1	2019_Mar_08_1005	s	s	6	2	SIC	1	ABS	0	0	1	3	24_1_3	NA	NA	0	1	3.80991101265	None	None	None	None	1
3.0.1	2019_Mar_08_1005	s	s	6	2	SIC	2	ABS	0	0	1	2	24_1_2	NA	NA	0	1	3.1368470192	None	None	None	None	1
3.0.1	2019_Mar_08_1005	s	s	6	2	SIC	3	ABS	0	0	3	2	24_3_2	NA	NA	0	1	4.7979991436	None	None	None	None	1
3.0.1	2019_Mar_08_1005	s	s	6	2	SIC	4	ABS	0	0	1	4	24_1_4	NA	NA	0	1	3.06230592728	None	None	None	None	1
3.0.1	2019_Mar_08_1005	s	s	6	2	SIC	5	ABS	0	0	1	3	24_1_3	NA	NA	0	1	4.5538380146	None	None	None	None	1
3.0.1	2019_Mar_08_1005	s	s	6	2	SIC	6	3_4	3	4	3	2	23_3_2	0	2	1	0	0.580780029297	-56.0	-385.0	-55.0	-392.0	1
3.0.1	2019_Mar_08_1005	s	s	6	2	SIC	7	3_2	3	2	3	3	23_3_3	0	1	0	1	4.23337197304	179.0	148.0	None	None	0
3.0.1	2019_Mar_08_1005	s	s	6	2	SIC	8	ABS	0	0	1	3	24_1_3	NA	NA	0	1	4.15429997444	None	None	None	None	1
3.0.1	2019_Mar_08_1005	s	s	6	2	SIC	9	4_1	4	1	2	3	23_2_3	2	2	1	0	0.352155923843	486.0	-349.0	490.0	-353.0	1
3.0.1	2019_Mar_08_1005	s	s	6	2	SIC	10	3_1	3	1	3	3	23_3_3	0	2	1	0	1.66940689087	-186.0	-378.0	-194.0	-380.0	1
3.0.1	2019_Mar_08_1005	s	s	6	2	SIC	11	ABS	0	0	4	3	24_4_3	NA	NA	0	1	3.38659191132	None	None	None	None	1
3.0.1	2019_Mar_08_1005	s	s	6	2	SIC	12	4_4	4	4	4	2	23_4_2	0	2	1	0	0.63919711113	158.0	65.0	158.0	66.0	1
3.0.1	2019_Mar_08_1005	s	s	6	2	SIC	13	4_2	4	2	4	4	23_4_4	0	2	1	0	0.634437084198	-491.0	-14.0	-490.0	-14.0	1
3.0.1	2019_Mar_08_1005	s	s	6	2	SIC	14	ABS	0	0	4	3	24_4_3	NA	NA	0	1	4.03826284409	None	None	None	None	1
3.0.1	2019_Mar_08_1005	s	s	6	2	SIC	15	ABS	0	0	3	1	24_3_1	NA	NA	0	1	2.42676401138	None	None	None	None	1
3.0.1	2019_Mar_08_1005	s	s	6	2	SIC	16	2_2	2	2	2	4	23_2_4	0	2	1	0	0.563864946365	-49.0	-17.0	-49.0	-16.0	1
3.0.1	2019_Mar_08_1005	s	s	6	2	SIC	17	1_1	1	1	4	4	23_4_4	3	3	1	0	0.392153978348	-27.0	-307.0	-33.0	-310.0	1
3.0.1	2019_Mar_08_1005	s	s	6	2	SIC	18	1_2	1	2	3	4	23_3_4	2	2	1	0	0.486605882645	1.0	385.0	5.0	382.0	1
3.0.1	2019_Mar_08_1005	s	s	6	2	SIC	19	1_1	1	1	2	2	23_2_2	1	1	1	0	1.5108089447	475.0	-218.0	474.0	-225.0	1
3.0.1	2019_Mar_08_1005	s	s	6	2	SIC	20	4_4	4	4	2	1	23_2_1	2	3	1	0	0.442075967789	-29.0	105.0	-26.0	97.0	1
3.0.1	2019_Mar_08_1005	s	s	6	2	SIC	21	4_1	4	1	3	2	23_3_2	1	1	1	0	0.328644990921	-146.0	-122.0	-145.0	-138.0	1
3.0.1	2019_Mar_08_1005	s	s	6	2	SIC	22	2_2	2	2	1	3	23_1_3	-1	1	1	0	0.795938968658	-145.0	199.0	-144.0	198.0	1
3.0.1	2019_Mar_08_1005	s	s	6	2	SIC	23	ABS	0	0	1	4	24_1_4	NA	NA	1	0	2.79685711861	None	None	47.0	-145.0	0
3.0.1	2019_Mar_08_1005	s	s	6	2	SIC	24	ABS	0	0	3	1	24_3_1	NA	NA	0	1	1.9869658947	None	None	None	None	1
3.0.1	2019_Mar_08_1005	s	s	6	2	SIC	25	2_3	2	3	3	4	23_3_4	1	-1	1	0	0.486721992493	-166.0	309.0	-168.0	304.0	1
3.0.1	2019_Mar_08_1005	s	s	6	2	SIC	26	3_3	3	3	1	4	23_1_4	2	-1	1	0	0.554933071136	-231.0	-388.0	-231.0	-395.0	1
3.0.1	2019_Mar_08_1005	s	s	6	2	SIC	27	ABS	0	0	3	2	24_3_2	NA	NA	0	1	4.36929798126	None	None	None	None	1
3.0.1	2019_Mar_08_1005	s	s	6	2	SIC	28	1_3	1	3	4	4	23_4_4	3	-1	1	0	0.476123094559	170.0	-160.0	162.0	-151.0	1
3.0.1	2019_Mar_08_1005	s	s	6	2	SIC	29	3_2	3	2	3	4	23_3_4	0	2	1	0	0.987287998199	-146.0	-211.0	-139.0	-215.0	1
3.0.1	2019_Mar_08_1005	s	s	6	2	SIC	30	3_4	3	4	4	4	23_4_4	-1	0	1	0	0.39920592308	-301.0	151.0	-301.0	151.0	1
3.0.1	2019_Mar_08_1005	s	s	6	2	SIC	31	ABS	0	0	1	4	24_1_4	NA	NA	0	1	2.12817406654	None	None	None	None	1
3.0.1	2019_Mar_08_1005	s	s	6	2	SIC	32	ABS	0	0	3	2	24_3_2	NA	NA	0	1	4.30864191055	None	None	None	None	1
3.0.1	2019_Mar_08_1005	s	s	6	2	SIC	33	ABS	0	0	3	4	24_3_4	NA	NA	0	1	2.01691603661	None	None	None	None	1
3.0.1	2019_Mar_08_1005	s	s	6	2	SIC	34	3_2	3	2	1	3	23_1_3	2	1	1	0	0.481603860855	-271.0	215.0	-278.0	210.0	1
3.0.1	2019_Mar_08_1005	s	s	6	2	SIC	35	4_1	4	1	2	1	23_2_1	2	0	1	0	0.404145002365	-159.0	-353.0	-159.0	-365.0	1
3.0.1	2019_Mar_08_1005	s	s	6	2	SIC	36	ABS	0	0	2	3	24_2_3	NA	NA	0	1	3.16304302216	None	None	None	None	1
3.0.1	2019_Mar_08_1005	s	s	6	2	SIC	37	ABS	0	0	2	2	24_2_2	NA	NA	0	1	5.25947284698	None	None	None	None	1
3.0.1	2019_Mar_08_1005	s	s	6	2	SIC	38	ABS	0	0	4	1	24_4_1	NA	NA	0	1	2.46162796021	None	None	None	None	1
3.0.1	2019_Mar_08_1005	s	s	6	2	SIC	39	ABS	0	0	4	3	24_4_3	NA	NA	0	1	3.97905802727	None	None	None	None	1
3.0.1	2019_Mar_08_1005	s	s	6	2	SIC	40	ABS	0	0	1	2	24_1_2	NA	NA	0	1	4.24508309364	None	None	None	None	1
3.0.1	2019_Mar_08_1005	s	s	6	2	SIC	41	3_1	3	1	1	3	23_1_3	2	2	1	0	0.496177911758	389.0	-224.0	395.0	-222.0	1
3.0.1	2019_Mar_08_1005	s	s	6	2	SIC	42	ABS	0	0	1	2	24_1_2	NA	NA	0	1	5.28493189812	None	None	None	None	1
3.0.1	2019_Mar_08_1005	s	s	6	2	SIC	43	ABS	0	0	3	3	24_3_3	NA	NA	0	1	3.95563817024	None	None	None	None	1
3.0.1	2019_Mar_08_1005	s	s	6	2	SIC	44	ABS	0	0	3	1	24_3_1	NA	NA	0	1	1.50472211838	None	None	None	None	1
3.0.1	2019_Mar_08_1005	s	s	6	2	SIC	45	ABS	0	0	3	3	24_3_3	NA	NA	0	1	3.40336489677	None	None	None	None	1
3.0.1	2019_Mar_08_1005	s	s	6	2	SIC	46	1_1	1	1	2	4	23_2_4	1	3	1	0	0.592511177063	-248.0	62.0	-245.0	66.0	1
3.0.1	2019_Mar_08_1005	s	s	6	2	SIC	47	2_3	2	3	4	4	23_4_4	2	-1	1	0	0.510781049728	-443.0	-408.0	-439.0	-407.0	1
3.0.1	2019_Mar_08_1005	s	s	6	2	SIC	48	3_4	3	4	2	1	23_2_1	1	3	1	0	0.502460002899	-494.0	-230.0	-497.0	-243.0	1
3.0.1	2019_Mar_08_1005	s	s	6	2	SIC	49	ABS	0	0	2	1	24_2_1	NA	NA	0	1	2.58681106567	None	None	None	None	1
3.0.1	2019_Mar_08_1005	s	s	6	2	SIC	50	2_1	2	1	4	2	23_4_2	2	1	1	0	0.399172067642	499.0	369.0	498.0	372.0	1
3.0.1	2019_Mar_08_1005	s	s	6	2	SIC	51	ABS	0	0	2	1	24_2_1	NA	NA	0	1	1.73110890388	None	None	None	None	1
3.0.1	2019_Mar_08_1005	s	s	6	2	SIC	52	1_3	1	3	2	1	23_2_1	1	2	0	1	1.84874510765	-129.0	-142.0	None	None	0
3.0.1	2019_Mar_08_1005	s	s	6	2	SIC	53	2_1	2	1	4	4	23_4_4	2	3	1	0	0.414843082428	277.0	189.0	285.0	185.0	1
3.0.1	2019_Mar_08_1005	s	s	6	2	SIC	54	ABS	0	0	4	2	24_4_2	NA	NA	0	1	3.7628030777	None	None	None	None	1
3.0.1	2019_Mar_08_1005	s	s	6	2	SIC	55	4_2	4	2	1	1	23_1_1	3	-1	1	0	0.469732999802	42.0	51.0	41.0	38.0	1
3.0.1	2019_Mar_08_1005	s	s	6	2	SIC	56	ABS	0	0	2	2	24_2_2	NA	NA	0	1	4.48037409782	None	None	None	None	1
3.0.1	2019_Mar_08_1005	s	s	6	2	SIC	57	ABS	0	0	3	4	24_3_4	NA	NA	0	1	1.86977291107	None	None	None	None	1
3.0.1	2019_Mar_08_1005	s	s	6	2	SIC	58	ABS	0	0	2	2	24_2_2	NA	NA	0	1	3.67173290253	None	None	None	None	1
3.0.1	2019_Mar_08_1005	s	s	6	2	SIC	59	ABS	0	0	1	1	24_1_1	NA	NA	0	1	2.39394307137	None	None	None	None	1
3.0.1	2019_Mar_08_1005	s	s	6	2	SIC	60	1_1	1	1	1	3	23_1_3	0	2	1	0	1.62633800507	129.0	-101.0	121.0	-106.0	1
3.0.1	2019_Mar_08_1005	s	s	6	2	SIC	61	ABS	0	0	1	1	24_1_1	NA	NA	0	1	2.66361689568	None	None	None	None	1
3.0.1	2019_Mar_08_1005	s	s	6	2	SIC	62	ABS	0	0	2	2	24_2_2	NA	NA	0	1	5.6565310955	None	None	None	None	1
3.0.1	2019_Mar_08_1005	s	s	6	2	SIC	63	ABS	0	0	3	2	24_3_2	NA	NA	0	1	4.6733148098	None	None	None	None	1
3.0.1	2019_Mar_08_1005	s	s	6	2	SIC	64	ABS	0	0	1	4	24_1_4	NA	NA	0	1	2.30450105667	None	None	None	None	1
3.0.1	2019_Mar_08_1005	s	s	6	2	SIC	65	ABS	0	0	3	3	24_3_3	NA	NA	0	1	4.25691604614	None	None	None	None	1
3.0.1	2019_Mar_08_1005	s	s	6	2	SIC	66	ABS	0	0	1	4	24_1_4	NA	NA	0	1	1.76351284981	None	None	None	None	1
3.0.1	2019_Mar_08_1005	s	s	6	2	SIC	67	4_3	4	3	4	1	23_4_1	0	2	1	0	2.14279580116	-66.0	-325.0	-56.0	-323.0	1
3.0.1	2019_Mar_08_1005	s	s	6	2	SIC	68	2_4	2	4	1	4	23_1_4	-1	0	0	1	2.29273200035	-24.0	262.0	None	None	0
3.0.1	2019_Mar_08_1005	s	s	6	2	SIC	69	3_1	3	1	4	4	23_4_4	-1	3	1	0	0.634477853775	-509.0	403.0	-508.0	398.0	1
3.0.1	2019_Mar_08_1005	s	s	6	2	SIC	70	2_4	2	4	3	4	23_3_4	1	0	1	0	0.767909049988	-54.0	-281.0	-57.0	-290.0	1
3.0.1	2019_Mar_08_1005	s	s	6	2	SIC	71	2_3	2	3	1	1	23_1_1	-1	2	1	0	3.23365306854	489.0	-227.0	487.0	-231.0	1
3.0.1	2019_Mar_08_1005	s	s	6	2	SIC	72	4_1	4	1	3	4	23_3_4	1	3	1	0	0.451411008835	-39.0	167.0	-42.0	167.0	1
3.0.1	2019_Mar_08_1005	s	s	6	2	SIC	73	ABS	0	0	2	1	24_2_1	NA	NA	0	1	2.47423791885	None	None	None	None	1
3.0.1	2019_Mar_08_1005	s	s	6	2	SIC	74	3_2	3	2	2	2	23_2_2	1	0	1	0	0.488163948059	-417.0	367.0	-423.0	369.0	1
3.0.1	2019_Mar_08_1005	s	s	6	2	SIC	75	4_3	4	3	3	2	23_3_2	1	1	1	0	0.410991191864	-365.0	127.0	-357.0	122.0	1
3.0.1	2019_Mar_08_1005	s	s	6	2	SIC	76	ABS	0	0	4	1	24_4_1	NA	NA	0	1	2.8034389019	None	None	None	None	1
3.0.1	2019_Mar_08_1005	s	s	6	2	SIC	77	ABS	0	0	1	3	24_1_3	NA	NA	0	1	4.89233183861	None	None	None	None	1
3.0.1	2019_Mar_08_1005	s	s	6	2	SIC	78	3_3	3	3	3	2	23_3_2	0	1	1	0	3.49520897865	175.0	-291.0	181.0	-292.0	1
3.0.1	2019_Mar_08_1005	s	s	6	2	SIC	79	ABS	0	0	1	1	24_1_1	NA	NA	0	1	2.59095191956	None	None	None	None	1
3.0.1	2019_Mar_08_1005	s	s	6	2	SIC	80	4_2	4	2	3	1	23_3_1	1	-1	1	0	0.46470785141	-6.0	-361.0	-1.0	-357.0	1
3.0.1	2019_Mar_08_1005	s	s	6	2	SIC	81	1_4	1	4	2	3	23_2_3	1	1	1	0	0.599256038666	-115.0	353.0	-111.0	354.0	1
3.0.1	2019_Mar_08_1005	s	s	6	2	SIC	82	1_4	1	4	2	1	23_2_1	1	3	1	0	0.687408924103	-222.0	-316.0	-213.0	-319.0	1
3.0.1	2019_Mar_08_1005	s	s	6	2	SIC	83	ABS	0	0	2	3	24_2_3	NA	NA	0	1	5.14189100266	None	None	None	None	1
3.0.1	2019_Mar_08_1005	s	s	6	2	SIC	84	2_4	2	4	1	3	23_1_3	-1	1	1	0	0.56969499588	539.0	-242.0	538.0	-244.0	1
3.0.1	2019_Mar_08_1005	s	s	6	2	SIC	85	ABS	0	0	4	3	24_4_3	NA	NA	0	1	4.17456197739	None	None	None	None	1
3.0.1	2019_Mar_08_1005	s	s	6	2	SIC	86	ABS	0	0	1	3	24_1_3	NA	NA	0	1	3.91617107391	None	None	None	None	1
3.0.1	2019_Mar_08_1005	s	s	6	2	SIC	87	ABS	0	0	1	4	24_1_4	NA	NA	0	1	2.41042089462	None	None	None	None	1
3.0.1	2019_Mar_08_1005	s	s	6	2	SIC	88	ABS	0	0	2	2	24_2_2	NA	NA	0	1	5.93868899345	None	None	None	None	1
3.0.1	2019_Mar_08_1005	s	s	6	2	SIC	89	ABS	0	0	3	4	24_3_4	NA	NA	0	1	2.14899206161	None	None	None	None	1
3.0.1	2019_Mar_08_1005	s	s	6	2	SIC	90	ABS	0	0	1	1	24_1_1	NA	NA	0	1	2.9395711422	None	None	None	None	1
3.0.1	2019_Mar_08_1005	s	s	6	2	SIC	91	ABS	0	0	4	4	24_4_4	NA	NA	0	1	2.5398080349	None	None	None	None	1
3.0.1	2019_Mar_08_1005	s	s	6	2	SIC	92	1_1	1	1	1	2	23_1_2	0	1	1	0	1.63776087761	-31.0	-89.0	-31.0	-94.0	1
3.0.1	2019_Mar_08_1005	s	s	6	2	SIC	93	ABS	0	0	3	2	24_3_2	NA	NA	0	1	6.42123889923	None	None	None	None	1
3.0.1	2019_Mar_08_1005	s	s	6	2	SIC	94	ABS	0	0	3	2	24_3_2	NA	NA	0	1	4.98894500732	None	None	None	None	1
3.0.1	2019_Mar_08_1005	s	s	6	2	SIC	95	1_3	1	3	4	3	23_4_3	3	0	1	0	0.533682107925	-367.0	-91.0	-367.0	-83.0	1
3.0.1	2019_Mar_08_1005	s	s	6	2	SIC	96	1_4	1	4	2	2	23_2_2	1	2	1	0	0.735314130783	-264.0	-384.0	-265.0	-379.0	1
3.0.1	2019_Mar_08_1005	s	s	6	2	SIC	97	ABS	0	0	2	3	24_2_3	NA	NA	0	1	5.41407704353	None	None	None	None	1
3.0.1	2019_Mar_08_1005	s	s	6	2	SIC	98	1_2	1	2	4	1	23_4_1	3	-1	1	0	0.469707012177	-281.0	271.0	-277.0	279.0	1
3.0.1	2019_Mar_08_1005	s	s	6	2	SIC	99	ABS	0	0	1	1	24_1_1	NA	NA	0	1	3.107391119	None	None	None	None	1
3.0.1	2019_Mar_08_1005	s	s	6	2	SIC	100	2_3	2	3	4	1	23_4_1	2	2	1	0	0.422809123993	348.0	30.0	348.0	29.0	1
3.0.1	2019_Mar_08_1005	s	s	6	2	SIC	101	ABS	0	0	1	4	24_1_4	NA	NA	0	1	2.82637310028	None	None	None	None	1
3.0.1	2019_Mar_08_1005	s	s	6	2	SIC	102	ABS	0	0	1	1	24_1_1	NA	NA	0	1	2.75147294998	None	None	None	None	1
3.0.1	2019_Mar_08_1005	s	s	6	2	SIC	103	2_2	2	2	2	3	23_2_3	0	1	0	1	4.7890291214	148.0	172.0	None	None	0
3.0.1	2019_Mar_08_1005	s	s	6	2	SIC	104	ABS	0	0	2	1	24_2_1	NA	NA	0	1	3.23789811134	None	None	None	None	1
3.0.1	2019_Mar_08_1005	s	s	6	2	SIC	105	ABS	0	0	4	2	24_4_2	NA	NA	0	1	6.15641117096	None	None	None	None	1
3.0.1	2019_Mar_08_1005	s	s	6	2	SIC	106	2_1	2	1	2	3	23_2_3	0	2	1	0	4.32742094994	317.0	-213.0	328.0	-212.0	1
3.0.1	2019_Mar_08_1005	s	s	6	2	SIC	107	ABS	0	0	4	4	24_4_4	NA	NA	0	1	1.82228899002	None	None	None	None	1
3.0.1	2019_Mar_08_1005	s	s	6	2	SIC	108	ABS	0	0	3	4	24_3_4	NA	NA	0	1	2.81021904945	None	None	None	None	1
3.0.1	2019_Mar_08_1005	s	s	6	2	SIC	109	ABS	0	0	1	1	24_1_1	NA	NA	0	1	2.90918278694	None	None	None	None	1
3.0.1	2019_Mar_08_1005	s	s	6	2	SIC	110	2_3	2	3	1	2	23_1_2	-1	1	0	1	6.14166498184	53.0	156.0	None	None	0
3.0.1	2019_Mar_08_1005	s	s	6	2	SIC	111	ABS	0	0	4	3	24_4_3	NA	NA	0	1	4.24511694908	None	None	None	None	1
3.0.1	2019_Mar_08_1005	s	s	6	2	SIC	112	ABS	0	0	4	3	24_4_3	NA	NA	0	1	4.66181206703	None	None	None	None	1
3.0.1	2019_Mar_08_1005	s	s	6	2	SIC	113	ABS	0	0	3	3	24_3_3	NA	NA	0	1	3.83770489693	None	None	None	None	1
3.0.1	2019_Mar_08_1005	s	s	6	2	SIC	114	1_2	1	2	4	2	23_4_2	3	0	1	0	0.486871004105	-379.0	-22.0	-386.0	-29.0	1
3.0.1	2019_Mar_08_1005	s	s	6	2	SIC	115	ABS	0	0	2	2	24_2_2	NA	NA	0	1	4.52740097046	None	None	None	None	1
3.0.1	2019_Mar_08_1005	s	s	6	2	SIC	116	ABS	0	0	2	1	24_2_1	NA	NA	0	1	2.36342000961	None	None	None	None	1
3.0.1	2019_Mar_08_1005	s	s	6	2	SIC	117	3_4	3	4	1	1	23_1_1	2	3	1	0	0.510434865952	-344.0	-277.0	-342.0	-276.0	1
3.0.1	2019_Mar_08_1005	s	s	6	2	SIC	118	ABS	0	0	2	1	24_2_1	NA	NA	0	1	3.16309118271	None	None	None	None	1
3.0.1	2019_Mar_08_1005	s	s	6	2	SIC	119	3_2	3	2	2	3	23_2_3	1	1	1	0	0.543268918991	280.0	69.0	279.0	69.0	1
3.0.1	2019_Mar_08_1005	s	s	6	2	SIC	120	ABS	0	0	2	3	24_2_3	NA	NA	0	1	4.37738704681	None	None	None	None	1
3.0.1	2019_Mar_08_1005	s	s	6	2	SIC	121	4_1	4	1	4	4	23_4_4	0	3	1	0	0.58738899231	95.0	-213.0	95.0	-221.0	1
3.0.1	2019_Mar_08_1005	s	s	6	2	SIC	122	ABS	0	0	2	4	24_2_4	NA	NA	0	1	2.23410797119	None	None	None	None	1
3.0.1	2019_Mar_08_1005	s	s	6	2	SIC	123	4_3	4	3	4	2	23_4_2	0	1	1	0	3.32773399353	523.0	24.0	515.0	19.0	1
3.0.1	2019_Mar_08_1005	s	s	6	2	SIC	124	4_1	4	1	1	4	23_1_4	3	3	1	0	0.422764062881	402.0	-372.0	397.0	-373.0	1
3.0.1	2019_Mar_08_1005	s	s	6	2	SIC	125	4_2	4	2	1	3	23_1_3	3	1	1	0	0.391484022141	-167.0	-343.0	-158.0	-345.0	1
3.0.1	2019_Mar_08_1005	s	s	6	2	SIC	126	ABS	0	0	1	1	24_1_1	NA	NA	0	1	2.21037793159	None	None	None	None	1
3.0.1	2019_Mar_08_1005	s	s	6	2	SIC	127	2_2	2	2	3	3	23_3_3	1	1	1	0	0.45802283287	-300.0	139.0	-296.0	134.0	1
3.0.1	2019_Mar_08_1005	s	s	6	2	SIC	128	ABS	0	0	2	2	24_2_2	NA	NA	0	1	3.65005207062	None	None	None	None	1
3.0.1	2019_Mar_08_1005	s	s	6	2	SIC	129	1_2	1	2	2	3	23_2_3	1	1	1	0	1.76362586021	-338.0	-304.0	-332.0	-303.0	1
3.0.1	2019_Mar_08_1005	s	s	6	2	SIC	130	ABS	0	0	4	2	24_4_2	NA	NA	0	1	5.24492788315	None	None	None	None	1
3.0.1	2019_Mar_08_1005	s	s	6	2	SIC	131	ABS	0	0	2	3	24_2_3	NA	NA	0	1	5.92118000984	None	None	None	None	1
3.0.1	2019_Mar_08_1005	s	s	6	2	SIC	132	ABS	0	0	3	3	24_3_3	NA	NA	0	1	5.32709312439	None	None	None	None	1
3.0.1	2019_Mar_08_1005	s	s	6	2	SIC	133	1_4	1	4	2	4	23_2_4	1	0	1	0	6.92667913437	-300.0	103.0	-303.0	99.0	1
3.0.1	2019_Mar_08_1005	s	s	6	2	SIC	134	3_1	3	1	1	4	23_1_4	2	3	1	0	0.552149057388	500.0	137.0	503.0	135.0	1
3.0.1	2019_Mar_08_1005	s	s	6	2	SIC	135	2_3	2	3	3	1	23_3_1	1	2	1	0	0.486794948578	430.0	80.0	427.0	73.0	1
3.0.1	2019_Mar_08_1005	s	s	6	2	SIC	136	ABS	0	0	4	4	24_4_4	NA	NA	0	1	1.73108696938	None	None	None	None	1
3.0.1	2019_Mar_08_1005	s	s	6	2	SIC	137	3_3	3	3	4	3	23_4_3	-1	0	1	0	0.599096059799	-247.0	357.0	-245.0	357.0	1
3.0.1	2019_Mar_08_1005	s	s	6	2	SIC	138	ABS	0	0	3	2	24_3_2	NA	NA	0	1	5.15064907074	None	None	None	None	1
3.0.1	2019_Mar_08_1005	s	s	6	2	SIC	139	1_2	1	2	3	3	23_3_3	2	1	1	0	0.437408924103	-259.0	185.0	-259.0	185.0	1
3.0.1	2019_Mar_08_1005	s	s	6	2	SIC	140	1_4	1	4	3	3	23_3_3	2	1	1	0	0.457998037338	328.0	-286.0	319.0	-289.0	1
3.0.1	2019_Mar_08_1005	s	s	6	2	SIC	141	3_2	3	2	2	1	23_2_1	1	-1	1	0	0.496295928955	410.0	-103.0	416.0	-105.0	1
3.0.1	2019_Mar_08_1005	s	s	6	2	SIC	142	3_2	3	2	3	1	23_3_1	0	-1	0	1	2.32610797882	472.0	223.0	None	None	0
3.0.1	2019_Mar_08_1005	s	s	6	2	SIC	143	3_4	3	4	1	3	23_1_3	2	1	1	0	0.532645940781	190.0	-96.0	187.0	-92.0	1
3.0.1	2019_Mar_08_1005	s	s	6	2	SIC	144	ABS	0	0	1	1	24_1_1	NA	NA	0	1	2.9072201252	None	None	None	None	1
3.0.1	2019_Mar_08_1005	s	s	6	2	SIC	145	ABS	0	0	3	1	24_3_1	NA	NA	0	1	2.24575996399	None	None	None	None	1
3.0.1	2019_Mar_08_1005	s	s	6	2	SIC	146	3_3	3	3	3	4	23_3_4	0	-1	1	0	0.728577852249	-248.0	97.0	-241.0	93.0	1
3.0.1	2019_Mar_08_1005	s	s	6	2	SIC	147	ABS	0	0	2	4	24_2_4	NA	NA	0	1	3.19835710526	None	None	None	None	1
3.0.1	2019_Mar_08_1005	s	s	6	2	SIC	148	2_1	2	1	3	2	23_3_2	1	1	1	0	0.437570095062	-461.0	80.0	-469.0	76.0	1
3.0.1	2019_Mar_08_1005	s	s	6	2	SIC	149	ABS	0	0	3	4	24_3_4	NA	NA	0	1	2.29779410362	None	None	None	None	1
3.0.1	2019_Mar_08_1005	s	s	6	2	SIC	150	3_1	3	1	1	2	23_1_2	2	1	1	0	0.422749042511	504.0	-314.0	492.0	-312.0	1
3.0.1	2019_Mar_08_1005	s	s	6	2	SIC	151	ABS	0	0	4	2	24_4_2	NA	NA	0	1	6.00229096413	None	None	None	None	1
3.0.1	2019_Mar_08_1005	s	s	6	2	SIC	152	ABS	0	0	2	4	24_2_4	NA	NA	0	1	2.60342907906	None	None	None	None	1
3.0.1	2019_Mar_08_1005	s	s	6	2	SIC	153	3_4	3	4	3	1	23_3_1	0	3	1	0	0.481585979462	462.0	-297.0	463.0	-293.0	1
3.0.1	2019_Mar_08_1005	s	s	6	2	SIC	154	2_3	2	3	3	3	23_3_3	1	0	1	0	0.422875165939	-201.0	-100.0	-205.0	-101.0	1
3.0.1	2019_Mar_08_1005	s	s	6	2	SIC	155	3_1	3	1	3	4	23_3_4	0	3	1	0	0.425619840622	-378.0	164.0	-378.0	151.0	1
3.0.1	2019_Mar_08_1005	s	s	6	2	SIC	156	ABS	0	0	1	3	24_1_3	NA	NA	0	1	6.46799778938	None	None	None	None	1
3.0.1	2019_Mar_08_1005	s	s	6	2	SIC	157	1_2	1	2	1	4	23_1_4	0	2	1	0	0.827803850174	120.0	-345.0	124.0	-342.0	1
3.0.1	2019_Mar_08_1005	s	s	6	2	SIC	158	4_3	4	3	2	4	23_2_4	2	-1	1	0	0.422760009766	-244.0	177.0	-242.0	184.0	1
3.0.1	2019_Mar_08_1005	s	s	6	2	SIC	159	3_2	3	2	1	4	23_1_4	2	2	1	0	0.439346075058	-495.0	-370.0	-496.0	-373.0	1
3.0.1	2019_Mar_08_1005	s	s	6	2	SIC	160	2_4	2	4	4	4	23_4_4	2	0	1	0	0.434486865997	525.0	-218.0	537.0	-213.0	1
3.0.1	2019_Mar_08_1005	s	s	6	2	SIC	161	ABS	0	0	2	1	24_2_1	NA	NA	0	1	4.05687904358	None	None	None	None	1
3.0.1	2019_Mar_08_1005	s	s	6	2	SIC	162	2_3	2	3	4	2	23_4_2	2	1	1	0	0.37868309021	-13.0	-327.0	-13.0	-333.0	1
3.0.1	2019_Mar_08_1005	s	s	6	2	SIC	163	ABS	0	0	4	1	24_4_1	NA	NA	0	1	2.57886385918	None	None	None	None	1
3.0.1	2019_Mar_08_1005	s	s	6	2	SIC	164	4_3	4	3	1	4	23_1_4	3	-1	1	0	0.59285902977	157.0	-287.0	160.0	-292.0	1
3.0.1	2019_Mar_08_1005	s	s	6	2	SIC	165	2_1	2	1	3	3	23_3_3	1	2	1	0	0.438395023346	-102.0	163.0	-93.0	168.0	1
3.0.1	2019_Mar_08_1005	s	s	6	2	SIC	166	1_2	1	2	3	2	23_3_2	2	0	1	0	0.404080867767	2.0	-86.0	8.0	-88.0	1
3.0.1	2019_Mar_08_1005	s	s	6	2	SIC	167	ABS	0	0	3	1	24_3_1	NA	NA	0	1	2.04572892189	None	None	None	None	1
3.0.1	2019_Mar_08_1005	s	s	6	2	SIC	168	2_3	2	3	2	4	23_2_4	0	-1	1	0	0.945394992828	401.0	-361.0	399.0	-360.0	1
3.0.1	2019_Mar_08_1005	s	s	6	2	SIC	169	4_4	4	4	4	3	23_4_3	0	1	1	0	0.575618982315	-52.0	180.0	-48.0	176.0	1
3.0.1	2019_Mar_08_1005	s	s	6	2	SIC	170	4_4	4	4	3	3	23_3_3	1	1	1	0	0.387506008148	-2.0	-81.0	9.0	-81.0	1
3.0.1	2019_Mar_08_1005	s	s	6	2	SIC	171	1_3	1	3	1	1	23_1_1	0	2	1	0	1.75661897659	467.0	295.0	475.0	291.0	1
3.0.1	2019_Mar_08_1005	s	s	6	2	SIC	172	1_1	1	1	3	2	23_3_2	2	1	1	0	0.46972489357	-75.0	-133.0	-76.0	-141.0	1
3.0.1	2019_Mar_08_1005	s	s	6	2	SIC	173	4_2	4	2	2	4	23_2_4	2	2	1	0	0.45836687088	-293.0	405.0	-300.0	402.0	1
3.0.1	2019_Mar_08_1005	s	s	6	2	SIC	174	1_3	1	3	2	2	23_2_2	1	1	1	0	2.55562996864	295.0	373.0	298.0	371.0	1
3.0.1	2019_Mar_08_1005	s	s	6	2	SIC	175	3_1	3	1	4	2	23_4_2	-1	1	1	0	0.45804977417	-511.0	-170.0	-508.0	-180.0	1
3.0.1	2019_Mar_08_1005	s	s	6	2	SIC	176	4_1	4	1	2	2	23_2_2	2	1	1	0	0.437397003174	327.0	68.0	334.0	70.0	1
3.0.1	2019_Mar_08_1005	s	s	6	2	SIC	177	4_2	4	2	1	4	23_1_4	3	2	1	0	0.344885110855	-465.0	337.0	-464.0	336.0	1
3.0.1	2019_Mar_08_1005	s	s	6	2	SIC	178	3_3	3	3	4	4	23_4_4	-1	-1	1	0	0.329028129578	-157.0	-74.0	-165.0	-74.0	1
3.0.1	2019_Mar_08_1005	s	s	6	2	SIC	179	2_4	2	4	2	1	23_2_1	0	3	1	0	0.634401082993	-89.0	-342.0	-83.0	-342.0	1
3.0.1	2019_Mar_08_1005	s	s	6	2	SIC	180	3_4	3	4	4	3	23_4_3	-1	1	1	0	0.394269943237	163.0	-40.0	155.0	-37.0	1
3.0.1	2019_Mar_08_1005	s	s	6	2	SIC	181	2_3	2	3	2	1	23_2_1	0	2	1	0	0.885552883148	148.0	250.0	148.0	240.0	1
3.0.1	2019_Mar_08_1005	s	s	6	2	SIC	182	4_4	4	4	1	1	23_1_1	3	3	1	0	0.503416061401	-214.0	-56.0	-211.0	-61.0	1
3.0.1	2019_Mar_08_1005	s	s	6	2	SIC	183	ABS	0	0	3	3	24_3_3	NA	NA	0	1	4.70380496979	None	None	None	None	1
3.0.1	2019_Mar_08_1005	s	s	6	2	SIC	184	2_2	2	2	3	4	23_3_4	1	2	1	0	0.387489080429	165.0	-64.0	157.0	-67.0	1
3.0.1	2019_Mar_08_1005	s	s	6	2	SIC	185	2_3	2	3	1	3	23_1_3	-1	0	1	0	4.89755010605	226.0	-298.0	223.0	-295.0	1
3.0.1	2019_Mar_08_1005	s	s	6	2	SIC	186	ABS	0	0	3	3	24_3_3	NA	NA	0	1	3.42185401917	None	None	None	None	1
3.0.1	2019_Mar_08_1005	s	s	6	2	SIC	187	ABS	0	0	4	4	24_4_4	NA	NA	0	1	1.91651701927	None	None	None	None	1
3.0.1	2019_Mar_08_1005	s	s	6	2	SIC	188	1_2	1	2	2	2	23_2_2	1	0	0	1	3.63820695877	-143.0	374.0	None	None	0
3.0.1	2019_Mar_08_1005	s	s	6	2	SIC	189	4_3	4	3	4	4	23_4_4	0	-1	1	0	0.790207862854	494.0	272.0	494.0	269.0	1
3.0.1	2019_Mar_08_1005	s	s	6	2	SIC	190	2_1	2	1	2	4	23_2_4	0	3	1	0	0.569045066833	265.0	-365.0	260.0	-366.0	1
3.0.1	2019_Mar_08_1005	s	s	6	2	SIC	191	ABS	0	0	2	1	24_2_1	NA	NA	0	1	2.39873600006	None	None	None	None	1
3.0.1	2019_Mar_08_1005	s	s	6	2	SIC	192	ABS	0	0	2	2	24_2_2	NA	NA	0	1	3.41523480415	None	None	None	None	1
3.0.1	2019_Mar_08_1005	s	s	6	2	SIC	193	4_1	4	1	3	1	23_3_1	1	0	1	0	0.422801971436	375.0	374.0	368.0	373.0	1
3.0.1	2019_Mar_08_1005	s	s	6	2	SIC	194	ABS	0	0	4	1	24_4_1	NA	NA	0	1	2.20155787468	None	None	None	None	1
3.0.1	2019_Mar_08_1005	s	s	6	2	SIC	195	1_4	1	4	3	4	23_3_4	2	0	1	0	0.450994968414	106.0	-151.0	103.0	-153.0	1
3.0.1	2019_Mar_08_1005	s	s	6	2	SIC	196	2_1	2	1	3	4	23_3_4	1	3	1	0	0.37850189209	172.0	-391.0	180.0	-396.0	1
3.0.1	2019_Mar_08_1005	s	s	6	2	SIC	197	ABS	0	0	2	4	24_2_4	NA	NA	1	0	0.507790803909	None	None	-174.0	-340.0	0
3.0.1	2019_Mar_08_1005	s	s	6	2	SIC	198	1_2	1	2	3	1	23_3_1	2	-1	1	0	0.775574207306	398.0	230.0	394.0	221.0	1
3.0.1	2019_Mar_08_1005	s	s	6	2	SIC	199	ABS	0	0	4	1	24_4_1	NA	NA	0	1	1.4419708252	None	None	None	None	1
3.0.1	2019_Mar_08_1005	s	s	6	2	SIC	200	1_1	1	1	3	3	23_3_3	2	2	1	0	0.664550065994	282.0	369.0	278.0	364.0	1
3.0.1	2019_Mar_08_1005	s	s	6	2	SIC	201	ABS	0	0	4	3	24_4_3	NA	NA	0	1	0.305519104004	None	None	None	None	1
3.0.1	2019_Mar_08_1005	s	s	6	2	SIC	202	4_4	4	4	3	1	23_3_1	1	3	1	0	0.568830966949	-280.0	-213.0	-284.0	-217.0	1
3.0.1	2019_Mar_08_1005	s	s	6	2	SIC	203	2_4	2	4	4	1	23_4_1	2	3	1	0	0.451190948486	-305.0	143.0	-301.0	135.0	1
3.0.1	2019_Mar_08_1005	s	s	6	2	SIC	204	3_4	3	4	4	2	23_4_2	-1	2	1	0	0.387464046478	474.0	82.0	476.0	81.0	1
3.0.1	2019_Mar_08_1005	s	s	6	2	SIC	205	ABS	0	0	2	3	24_2_3	NA	NA	0	1	4.23339986801	None	None	None	None	1
3.0.1	2019_Mar_08_1005	s	s	6	2	SIC	206	4_1	4	1	1	1	23_1_1	3	0	1	0	0.36954498291	427.0	303.0	426.0	300.0	1
3.0.1	2019_Mar_08_1005	s	s	6	2	SIC	207	1_2	1	2	2	4	23_2_4	1	2	1	0	0.657964944839	-339.0	-229.0	-348.0	-228.0	1
3.0.1	2019_Mar_08_1005	s	s	6	2	SIC	208	ABS	0	0	2	4	24_2_4	NA	NA	0	1	1.96635913849	None	None	None	None	1
3.0.1	2019_Mar_08_1005	s	s	6	2	SIC	209	ABS	0	0	2	4	24_2_4	NA	NA	1	0	0.532548904419	None	None	519.0	-371.0	0
3.0.1	2019_Mar_08_1005	s	s	6	2	SIC	210	ABS	0	0	2	2	24_2_2	NA	NA	0	1	5.22592115402	None	None	None	None	1
3.0.1	2019_Mar_08_1005	s	s	6	2	SIC	211	1_4	1	4	4	2	23_4_2	3	2	1	0	0.387435913086	131.0	-339.0	129.0	-344.0	1
3.0.1	2019_Mar_08_1005	s	s	6	2	SIC	212	ABS	0	0	3	1	24_3_1	NA	NA	0	1	1.71649193764	None	None	None	None	1
3.0.1	2019_Mar_08_1005	s	s	6	2	SIC	213	ABS	0	0	4	2	24_4_2	NA	NA	0	1	4.50390315056	None	None	None	None	1
3.0.1	2019_Mar_08_1005	s	s	6	2	SIC	214	3_3	3	3	2	2	23_2_2	1	1	1	0	0.484450101852	379.0	-24.0	373.0	-18.0	1
3.0.1	2019_Mar_08_1005	s	s	6	2	SIC	215	3_2	3	2	4	3	23_4_3	-1	1	1	0	0.4228079319	-101.0	222.0	-104.0	218.0	1
3.0.1	2019_Mar_08_1005	s	s	6	2	SIC	216	3_3	3	3	1	3	23_1_3	2	0	1	0	0.384780883789	19.0	-334.0	13.0	-341.0	1
3.0.1	2019_Mar_08_1005	s	s	6	2	SIC	217	4_3	4	3	1	3	23_1_3	3	0	1	0	0.378609895706	-303.0	-187.0	-304.0	-189.0	1
3.0.1	2019_Mar_08_1005	s	s	6	2	SIC	218	ABS	0	0	4	1	24_4_1	NA	NA	0	1	2.45773696899	None	None	None	None	1
3.0.1	2019_Mar_08_1005	s	s	6	2	SIC	219	ABS	0	0	3	1	24_3_1	NA	NA	0	1	2.13336801529	None	None	None	None	1
3.0.1	2019_Mar_08_1005	s	s	6	2	SIC	220	ABS	0	0	4	2	24_4_2	NA	NA	0	1	4.69724988937	None	None	None	None	1
3.0.1	2019_Mar_08_1005	s	s	6	2	SIC	221	ABS	0	0	3	1	24_3_1	NA	NA	0	1	1.9987859726	None	None	None	None	1
3.0.1	2019_Mar_08_1005	s	s	6	2	SIC	222	ABS	0	0	2	3	24_2_3	NA	NA	0	1	5.15070199966	None	None	None	None	1
3.0.1	2019_Mar_08_1005	s	s	6	2	SIC	223	ABS	0	0	3	2	24_3_2	NA	NA	0	1	3.51593899727	None	None	None	None	1
3.0.1	2019_Mar_08_1005	s	s	6	2	SIC	224	ABS	0	0	1	2	24_1_2	NA	NA	0	1	3.42475414276	None	None	None	None	1
3.0.1	2019_Mar_08_1005	s	s	6	2	SIC	225	4_4	4	4	1	2	23_1_2	3	2	1	0	0.392632961273	245.0	124.0	248.0	121.0	1
3.0.1	2019_Mar_08_1005	s	s	6	2	SIC	226	1_1	1	1	4	1	23_4_1	3	0	1	0	0.352183103561	372.0	-310.0	368.0	-318.0	1
3.0.1	2019_Mar_08_1005	s	s	6	2	SIC	227	ABS	0	0	3	3	24_3_3	NA	NA	0	1	4.77980208397	None	None	None	None	1
3.0.1	2019_Mar_08_1005	s	s	6	2	SIC	228	4_1	4	1	4	2	23_4_2	0	1	1	0	1.77535796165	482.0	178.0	488.0	176.0	1
3.0.1	2019_Mar_08_1005	s	s	6	2	SIC	229	ABS	0	0	2	1	24_2_1	NA	NA	0	1	1.99869298935	None	None	None	None	1
3.0.1	2019_Mar_08_1005	s	s	6	2	SIC	230	ABS	0	0	1	3	24_1_3	NA	NA	0	1	3.69229388237	None	None	None	None	1
3.0.1	2019_Mar_08_1005	s	s	6	2	SIC	231	4_1	4	1	4	3	23_4_3	0	2	1	0	0.587750196457	-111.0	-85.0	-114.0	-88.0	1
3.0.1	2019_Mar_08_1005	s	s	6	2	SIC	232	ABS	0	0	1	2	24_1_2	NA	NA	0	1	4.02549290657	None	None	None	None	1
3.0.1	2019_Mar_08_1005	s	s	6	2	SIC	233	ABS	0	0	2	2	24_2_2	NA	NA	0	1	4.91589403152	None	None	None	None	1
3.0.1	2019_Mar_08_1005	s	s	6	2	SIC	234	ABS	0	0	2	4	24_2_4	NA	NA	0	1	2.09573888779	None	None	None	None	1
3.0.1	2019_Mar_08_1005	s	s	6	2	SIC	235	2_2	2	2	4	2	23_4_2	2	0	1	0	0.469774007797	34.0	63.0	38.0	57.0	1
3.0.1	2019_Mar_08_1005	s	s	6	2	SIC	236	ABS	0	0	1	1	24_1_1	NA	NA	0	1	2.06284403801	None	None	None	None	1
3.0.1	2019_Mar_08_1005	s	s	6	2	SIC	237	ABS	0	0	3	1	24_3_1	NA	NA	0	1	1.50207209587	None	None	None	None	1
3.0.1	2019_Mar_08_1005	s	s	6	2	SIC	238	ABS	0	0	4	1	24_4_1	NA	NA	0	1	1.333796978	None	None	None	None	1
3.0.1	2019_Mar_08_1005	s	s	6	2	SIC	239	4_3	4	3	3	4	23_3_4	1	-1	1	0	0.42911696434	408.0	-49.0	415.0	-47.0	1
3.0.1	2019_Mar_08_1005	s	s	6	2	SIC	240	ABS	0	0	1	3	24_1_3	NA	NA	0	1	3.75510287285	None	None	None	None	1
3.0.1	2019_Mar_08_1005	s	s	6	2	SIC	241	3_3	3	3	1	1	23_1_1	2	2	1	0	0.501120090485	-401.0	-279.0	-401.0	-276.0	1
3.0.1	2019_Mar_08_1005	s	s	6	2	SIC	242	1_2	1	2	4	3	23_4_3	3	1	1	0	0.378648996353	-497.0	-402.0	-501.0	-415.0	1
3.0.1	2019_Mar_08_1005	s	s	6	2	SIC	243	ABS	0	0	3	4	24_3_4	NA	NA	0	1	1.82250213623	None	None	None	None	1
3.0.1	2019_Mar_08_1005	s	s	6	2	SIC	244	ABS	0	0	2	3	24_2_3	NA	NA	0	1	3.60328102112	None	None	None	None	1
3.0.1	2019_Mar_08_1005	s	s	6	2	SIC	245	2_4	2	4	1	1	23_1_1	-1	3	1	0	0.496230125427	186.0	-234.0	178.0	-232.0	1
3.0.1	2019_Mar_08_1005	s	s	6	2	SIC	246	1_3	1	3	3	3	23_3_3	2	0	1	0	0.533668041229	101.0	-68.0	102.0	-60.0	1
3.0.1	2019_Mar_08_1005	s	s	6	2	SIC	247	ABS	0	0	1	3	24_1_3	NA	NA	0	1	2.18023014069	None	None	None	None	1
3.0.1	2019_Mar_08_1005	s	s	6	2	SIC	248	4_4	4	4	2	4	23_2_4	2	0	1	0	0.580287218094	-84.0	-219.0	-80.0	-210.0	1
3.0.1	2019_Mar_08_1005	s	s	6	2	SIC	249	2_3	2	3	4	3	23_4_3	2	0	1	0	0.410892009735	353.0	254.0	350.0	248.0	1
3.0.1	2019_Mar_08_1005	s	s	6	2	SIC	250	4_2	4	2	2	1	23_2_1	2	-1	1	0	0.340363025665	373.0	-253.0	364.0	-255.0	1
3.0.1	2019_Mar_08_1005	s	s	6	2	SIC	251	ABS	0	0	4	2	24_4_2	NA	NA	0	1	3.28069806099	None	None	None	None	1
3.0.1	2019_Mar_08_1005	s	s	6	2	SIC	252	1_3	1	3	3	1	23_3_1	2	2	1	0	0.540369987488	459.0	232.0	455.0	232.0	1
3.0.1	2019_Mar_08_1005	s	s	6	2	SIC	253	ABS	0	0	4	4	24_4_4	NA	NA	0	1	1.23936104774	None	None	None	None	1
3.0.1	2019_Mar_08_1005	s	s	6	2	SIC	254	ABS	0	0	1	4	24_1_4	NA	NA	0	1	2.25056505203	None	None	None	None	1
3.0.1	2019_Mar_08_1005	s	s	6	2	SIC	255	4_3	4	3	1	1	23_1_1	3	2	1	0	0.364025115967	107.0	-273.0	96.0	-269.0	1
3.0.1	2019_Mar_08_1005	s	s	6	2	SIC	256	2_2	2	2	3	1	23_3_1	1	-1	1	0	0.469745874405	-153.0	90.0	-152.0	92.0	1
3.0.1	2019_Mar_08_1005	s	s	6	2	SIC	257	4_4	4	4	2	3	23_2_3	2	1	1	0	0.343226909637	-271.0	-49.0	-265.0	-44.0	1
3.0.1	2019_Mar_08_1005	s	s	6	2	SIC	258	3_1	3	1	2	3	23_2_3	1	2	1	0	0.581665039062	458.0	127.0	453.0	125.0	1
3.0.1	2019_Mar_08_1005	s	s	6	2	SIC	259	4_3	4	3	3	1	23_3_1	1	2	1	0	0.392548084259	-20.0	365.0	-10.0	370.0	1
3.0.1	2019_Mar_08_1005	s	s	6	2	SIC	260	ABS	0	0	1	3	24_1_3	NA	NA	0	1	3.44145107269	None	None	None	None	1
3.0.1	2019_Mar_08_1005	s	s	6	2	SIC	261	4_3	4	3	3	3	23_3_3	1	0	1	0	0.383699893951	114.0	-162.0	120.0	-160.0	1
3.0.1	2019_Mar_08_1005	s	s	6	2	SIC	262	4_2	4	2	3	2	23_3_2	1	0	1	0	0.427873849869	-85.0	-10.0	-84.0	-17.0	1
3.0.1	2019_Mar_08_1005	s	s	6	2	SIC	263	3_2	3	2	4	1	23_4_1	-1	-1	1	0	0.383796930313	361.0	-290.0	355.0	-293.0	1
3.0.1	2019_Mar_08_1005	s	s	6	2	SIC	264	1_2	1	2	2	1	23_2_1	1	-1	1	0	0.872359991074	-33.0	-140.0	-36.0	-149.0	1
3.0.1	2019_Mar_08_1005	s	s	6	2	SIC	265	4_2	4	2	4	3	23_4_3	0	1	1	0	2.56104683876	348.0	157.0	340.0	153.0	1
3.0.1	2019_Mar_08_1005	s	s	6	2	SIC	266	3_1	3	1	2	4	23_2_4	1	3	1	0	0.410953044891	240.0	89.0	241.0	87.0	1
3.0.1	2019_Mar_08_1005	s	s	6	2	SIC	267	1_4	1	4	4	3	23_4_3	3	1	1	0	0.532873153687	21.0	242.0	22.0	227.0	1
3.0.1	2019_Mar_08_1005	s	s	6	2	SIC	268	ABS	0	0	3	2	24_3_2	NA	NA	0	1	3.66337585449	None	None	None	None	1
3.0.1	2019_Mar_08_1005	s	s	6	2	SIC	269	1_3	1	3	4	1	23_4_1	3	2	1	0	0.366744041443	93.0	72.0	88.0	73.0	1
3.0.1	2019_Mar_08_1005	s	s	6	2	SIC	270	ABS	0	0	1	4	24_1_4	NA	NA	0	1	2.30451202393	None	None	None	None	1
3.0.1	2019_Mar_08_1005	s	s	6	2	SIC	271	ABS	0	0	2	1	24_2_1	NA	NA	0	1	2.90726709366	None	None	None	None	1
3.0.1	2019_Mar_08_1005	s	s	6	2	SIC	272	ABS	0	0	3	1	24_3_1	NA	NA	0	1	3.44211101532	None	None	None	None	1
3.0.1	2019_Mar_08_1005	s	s	6	2	SIC	273	2_4	2	4	3	1	23_3_1	1	3	1	0	0.561250925064	531.0	-343.0	529.0	-340.0	1
3.0.1	2019_Mar_08_1005	s	s	6	2	SIC	274	2_2	2	2	4	3	23_4_3	2	1	1	0	0.437395095825	-501.0	-266.0	-501.0	-261.0	1
3.0.1	2019_Mar_08_1005	s	s	6	2	SIC	275	ABS	0	0	4	1	24_4_1	NA	NA	0	1	1.81102585793	None	None	None	None	1
3.0.1	2019_Mar_08_1005	s	s	6	2	SIC	276	ABS	0	0	3	1	24_3_1	NA	NA	0	1	1.91643500328	None	None	None	None	1
3.0.1	2019_Mar_08_1005	s	s	6	2	SIC	277	ABS	0	0	4	1	24_4_1	NA	NA	0	1	1.86934804916	None	None	None	None	1
3.0.1	2019_Mar_08_1005	s	s	6	2	SIC	278	1_2	1	2	4	4	23_4_4	3	2	1	0	0.505038976669	-126.0	27.0	-119.0	23.0	1
3.0.1	2019_Mar_08_1005	s	s	6	2	SIC	279	ABS	0	0	4	1	24_4_1	NA	NA	0	1	1.65093708038	None	None	None	None	1
3.0.1	2019_Mar_08_1005	s	s	6	2	SIC	280	2_3	2	3	3	2	23_3_2	1	1	1	0	0.64622092247	-490.0	-346.0	-491.0	-348.0	1
3.0.1	2019_Mar_08_1005	s	s	6	2	SIC	281	1_3	1	3	2	3	23_2_3	1	0	1	0	3.09248900414	194.0	-256.0	186.0	-261.0	1
3.0.1	2019_Mar_08_1005	s	s	6	2	SIC	282	ABS	0	0	2	3	24_2_3	NA	NA	0	1	4.05699300766	None	None	None	None	1
3.0.1	2019_Mar_08_1005	s	s	6	2	SIC	283	ABS	0	0	1	3	24_1_3	NA	NA	0	1	3.78934693336	None	None	None	None	1
3.0.1	2019_Mar_08_1005	s	s	6	2	SIC	284	ABS	0	0	3	3	24_3_3	NA	NA	0	1	2.65736198425	None	None	None	None	1
3.0.1	2019_Mar_08_1005	s	s	6	2	SIC	285	1_4	1	4	4	1	23_4_1	3	3	1	0	0.454648017883	253.0	78.0	251.0	77.0	1
3.0.1	2019_Mar_08_1005	s	s	6	2	SIC	286	ABS	0	0	4	2	24_4_2	NA	NA	0	1	3.5101017952	None	None	None	None	1
3.0.1	2019_Mar_08_1005	s	s	6	2	SIC	287	ABS	0	0	4	1	24_4_1	NA	NA	0	1	1.80339598656	None	None	None	None	1
3.0.1	2019_Mar_08_1005	s	s	6	2	SIC	288	2_1	2	1	1	3	23_1_3	-1	2	1	0	2.53221011162	-385.0	-318.0	-393.0	-317.0	1
3.0.1	2019_Mar_08_1005	s	s	6	2	SIC	289	ABS	0	0	3	3	24_3_3	NA	NA	0	1	3.93268203735	None	None	None	None	1
3.0.1	2019_Mar_08_1005	s	s	6	2	SIC	290	ABS	0	0	3	3	24_3_3	NA	NA	0	1	3.85053706169	None	None	None	None	1
3.0.1	2019_Mar_08_1005	s	s	6	2	SIC	291	2_1	2	1	1	1	23_1_1	-1	0	0	1	2.18702578545	41.0	122.0	None	None	0
3.0.1	2019_Mar_08_1005	s	s	6	2	SIC	292	ABS	0	0	2	4	24_2_4	NA	NA	0	1	3.13329792023	None	None	None	None	1
3.0.1	2019_Mar_08_1005	s	s	6	2	SIC	293	4_2	4	2	4	1	23_4_1	0	-1	0	1	2.37138700485	14.0	260.0	None	None	0
3.0.1	2019_Mar_08_1005	s	s	6	2	SIC	294	1_1	1	1	2	1	23_2_1	1	0	1	0	2.85408306122	-76.0	-168.0	-71.0	-170.0	1
3.0.1	2019_Mar_08_1005	s	s	6	2	SIC	295	2_2	2	2	1	2	23_1_2	-1	0	1	0	5.28007602692	25.0	-92.0	23.0	-97.0	1
3.0.1	2019_Mar_08_1005	s	s	6	2	SIC	296	ABS	0	0	2	3	24_2_3	NA	NA	0	1	3.41402411461	None	None	None	None	1
3.0.1	2019_Mar_08_1005	s	s	6	2	SIC	297	ABS	0	0	4	3	24_4_3	NA	NA	0	1	3.1212348938	None	None	None	None	1
3.0.1	2019_Mar_08_1005	s	s	6	2	SIC	298	ABS	0	0	2	4	24_2_4	NA	NA	0	1	2.93965506554	None	None	None	None	1
3.0.1	2019_Mar_08_1005	s	s	6	2	SIC	299	3_1	3	1	2	2	23_2_2	1	1	1	0	0.540318012238	-226.0	-48.0	-212.0	-38.0	1
3.0.1	2019_Mar_08_1005	s	s	6	2	SIC	300	2_4	2	4	3	3	23_3_3	1	1	1	0	0.575655937195	-472.0	-79.0	-464.0	-78.0	1
3.0.1	2019_Mar_08_1005	s	s	6	2	SIC	301	4_1	4	1	1	3	23_1_3	3	2	1	0	0.410933017731	-285.0	73.0	-289.0	80.0	1
3.0.1	2019_Mar_08_1005	s	s	6	2	SIC	302	ABS	0	0	2	4	24_2_4	NA	NA	0	1	2.93958306313	None	None	None	None	1
3.0.1	2019_Mar_08_1005	s	s	6	2	SIC	303	ABS	0	0	1	2	24_1_2	NA	NA	0	1	4.23334383965	None	None	None	None	1
3.0.1	2019_Mar_08_1005	s	s	6	2	SIC	304	1_3	1	3	3	2	23_3_2	2	1	1	0	0.687386989594	374.0	300.0	378.0	290.0	1
3.0.1	2019_Mar_08_1005	s	s	6	2	SIC	305	2_4	2	4	4	3	23_4_3	2	1	1	0	0.533493041992	-352.0	43.0	-354.0	41.0	1
3.0.1	2019_Mar_08_1005	s	s	6	2	SIC	306	1_4	1	4	1	3	23_1_3	0	1	1	0	1.59198999405	-21.0	110.0	-24.0	104.0	1
3.0.1	2019_Mar_08_1005	s	s	6	2	SIC	307	ABS	0	0	1	1	24_1_1	NA	NA	0	1	2.5085849762	None	None	None	None	1
3.0.1	2019_Mar_08_1005	s	s	6	2	SIC	308	ABS	0	0	1	4	24_1_4	NA	NA	0	1	2.42505693436	None	None	None	None	1
3.0.1	2019_Mar_08_1005	s	s	6	2	SIC	309	ABS	0	0	4	4	24_4_4	NA	NA	0	1	1.14818310738	None	None	None	None	1
3.0.1	2019_Mar_08_1005	s	s	6	2	SIC	310	2_4	2	4	3	2	23_3_2	1	2	1	0	0.458012104034	-268.0	305.0	-275.0	299.0	1
3.0.1	2019_Mar_08_1005	s	s	6	2	SIC	311	ABS	0	0	2	1	24_2_1	NA	NA	0	1	2.15695214272	None	None	None	None	1
3.0.1	2019_Mar_08_1005	s	s	6	2	SIC	312	ABS	0	0	3	4	24_3_4	NA	NA	0	1	2.09315490723	None	None	None	None	1
3.0.1	2019_Mar_08_1005	s	s	6	2	SIC	313	2_4	2	4	2	2	23_2_2	0	2	1	0	0.658369064331	-518.0	11.0	-520.0	0.0	1
3.0.1	2019_Mar_08_1005	s	s	6	2	SIC	314	ABS	0	0	4	3	24_4_3	NA	NA	0	1	3.46069002151	None	None	None	None	1
3.0.1	2019_Mar_08_1005	s	s	6	2	SIC	315	4_4	4	4	1	3	23_1_3	3	1	1	0	0.587555170059	-91.0	405.0	-84.0	406.0	1
3.0.1	2019_Mar_08_1005	s	s	6	2	SIC	316	ABS	0	0	1	4	24_1_4	NA	NA	0	1	1.85216212273	None	None	None	None	1
3.0.1	2019_Mar_08_1005	s	s	6	2	SIC	317	3_1	3	1	4	1	23_4_1	-1	0	1	0	0.378611803055	-197.0	77.0	-195.0	72.0	1
3.0.1	2019_Mar_08_1005	s	s	6	2	SIC	318	ABS	0	0	2	1	24_2_1	NA	NA	0	1	2.2457780838	None	None	None	None	1
3.0.1	2019_Mar_08_1005	s	s	6	2	SIC	319	4_1	4	1	1	2	23_1_2	3	1	1	0	0.410936117172	329.0	-394.0	329.0	-393.0	1
3.0.1	2019_Mar_08_1005	s	s	6	2	SIC	320	ABS	0	0	2	3	24_2_3	NA	NA	0	1	4.52737689018	None	None	None	None	1
3.0.1	2019_Mar_08_1005	s	s	6	2	SIC	321	ABS	0	0	4	2	24_4_2	NA	NA	0	1	6.14160299301	None	None	None	None	1
3.0.1	2019_Mar_08_1005	s	s	6	2	SIC	322	4_2	4	2	3	4	23_3_4	1	2	1	0	0.437413930893	-61.0	-46.0	-59.0	-41.0	1
3.0.1	2019_Mar_08_1005	s	s	6	2	SIC	323	ABS	0	0	3	4	24_3_4	NA	NA	0	1	1.89331507683	None	None	None	None	1
3.0.1	2019_Mar_08_1005	s	s	6	2	SIC	324	ABS	0	0	3	3	24_3_3	NA	NA	0	1	3.26536607742	None	None	None	None	1
3.0.1	2019_Mar_08_1005	s	s	6	2	SIC	325	ABS	0	0	4	1	24_4_1	NA	NA	0	1	1.77530884743	None	None	None	None	1
3.0.1	2019_Mar_08_1005	s	s	6	2	SIC	326	2_1	2	1	4	1	23_4_1	2	0	1	0	0.440442085266	-326.0	-274.0	-328.0	-273.0	1
3.0.1	2019_Mar_08_1005	s	s	6	2	SIC	327	ABS	0	0	4	3	24_4_3	NA	NA	0	1	3.21518397331	None	None	None	None	1
3.0.1	2019_Mar_08_1005	s	s	6	2	SIC	328	1_4	1	4	3	1	23_3_1	2	3	1	0	0.568364858627	-262.0	351.0	-263.0	357.0	1
3.0.1	2019_Mar_08_1005	s	s	6	2	SIC	329	1_1	1	1	1	4	23_1_4	0	3	1	0	0.563832998276	122.0	-364.0	124.0	-374.0	1
3.0.1	2019_Mar_08_1005	s	s	6	2	SIC	330	3_3	3	3	4	1	23_4_1	-1	2	1	0	0.422805070877	-505.0	-233.0	-513.0	-238.0	1
3.0.1	2019_Mar_08_1005	s	s	6	2	SIC	331	4_3	4	3	2	3	23_2_3	2	0	1	0	0.366842985153	36.0	-171.0	37.0	-166.0	1
3.0.1	2019_Mar_08_1005	s	s	6	2	SIC	332	ABS	0	0	3	2	24_3_2	NA	NA	0	1	4.80386400223	None	None	None	None	1
3.0.1	2019_Mar_08_1005	s	s	6	2	SIC	333	ABS	0	0	1	2	24_1_2	NA	NA	0	1	4.58623600006	None	None	None	None	1
3.0.1	2019_Mar_08_1005	s	s	6	2	SIC	334	ABS	0	0	3	1	24_3_1	NA	NA	0	1	2.43877387047	None	None	None	None	1
3.0.1	2019_Mar_08_1005	s	s	6	2	SIC	335	ABS	0	0	1	2	24_1_2	NA	NA	0	1	3.02489304543	None	None	None	None	1
3.0.1	2019_Mar_08_1005	s	s	6	2	SIC	336	ABS	0	0	3	1	24_3_1	NA	NA	0	1	2.06927680969	None	None	None	None	1
3.0.1	2019_Mar_08_1005	s	s	6	2	SIC	337	ABS	0	0	4	2	24_4_2	NA	NA	0	1	3.88525390625	None	None	None	None	1
3.0.1	2019_Mar_08_1005	s	s	6	2	SIC	338	1_1	1	1	3	1	23_3_1	2	0	1	0	0.437422990799	12.0	-360.0	1.0	-360.0	1
3.0.1	2019_Mar_08_1005	s	s	6	2	SIC	339	ABS	0	0	4	4	24_4_4	NA	NA	0	1	1.4856979847	None	None	None	None	1
3.0.1	2019_Mar_08_1005	s	s	6	2	SIC	340	ABS	0	0	4	3	24_4_3	NA	NA	0	1	3.40434503555	None	None	None	None	1
3.0.1	2019_Mar_08_1005	s	s	6	2	SIC	341	ABS	0	0	4	4	24_4_4	NA	NA	0	1	1.38724184036	None	None	None	None	1
3.0.1	2019_Mar_08_1005	s	s	6	2	SIC	342	ABS	0	0	3	4	24_3_4	NA	NA	0	1	1.79898095131	None	None	None	None	1
3.0.1	2019_Mar_08_1005	s	s	6	2	SIC	343	ABS	0	0	3	2	24_3_2	NA	NA	0	1	3.86166501045	None	None	None	None	1
3.0.1	2019_Mar_08_1005	s	s	6	2	SIC	344	ABS	0	0	2	2	24_2_2	NA	NA	0	1	3.08917880058	None	None	None	None	1
3.0.1	2019_Mar_08_1005	s	s	6	2	SIC	345	1_4	1	4	4	4	23_4_4	3	0	1	0	0.410948038101	437.0	-23.0	448.0	-20.0	1
3.0.1	2019_Mar_08_1005	s	s	6	2	SIC	346	1_1	1	1	4	2	23_4_2	3	1	1	0	0.381031990051	-299.0	-172.0	-302.0	-179.0	1
3.0.1	2019_Mar_08_1005	s	s	6	2	SIC	347	3_3	3	3	4	2	23_4_2	-1	1	1	0	0.370189189911	454.0	-293.0	448.0	-293.0	1
3.0.1	2019_Mar_08_1005	s	s	6	2	SIC	348	2_2	2	2	3	2	23_3_2	1	0	1	0	0.437387943268	-302.0	-340.0	-294.0	-340.0	1
3.0.1	2019_Mar_08_1005	s	s	6	2	SIC	349	ABS	0	0	1	3	24_1_3	NA	NA	0	1	3.83970999718	None	None	None	None	1
3.0.1	2019_Mar_08_1005	s	s	6	2	SIC	350	ABS	0	0	1	2	24_1_2	NA	NA	0	1	2.85733699799	None	None	None	None	1
3.0.1	2019_Mar_08_1005	s	s	6	2	SIC	351	ABS	0	0	2	2	24_2_2	NA	NA	0	1	2.8169260025	None	None	None	None	1
3.0.1	2019_Mar_08_1005	s	s	6	2	SIC	352	4_3	4	3	2	1	23_2_1	2	2	0	1	0.474647045135	317.0	-372.0	None	None	0
3.0.1	2019_Mar_08_1005	s	s	6	2	SIC	353	ABS	0	0	2	4	24_2_4	NA	NA	0	1	1.3195130825	None	None	None	None	1
3.0.1	2019_Mar_08_1005	s	s	6	2	SIC	354	2_3	2	3	2	2	23_2_2	0	1	1	0	1.98699092865	339.0	322.0	340.0	317.0	1
3.0.1	2019_Mar_08_1005	s	s	6	2	SIC	355	2_1	2	1	1	2	23_1_2	-1	1	0	1	3.39823079109	-3.0	72.0	None	None	0
3.0.1	2019_Mar_08_1005	s	s	6	2	SIC	356	ABS	0	0	4	4	24_4_4	NA	NA	0	1	1.18076109886	None	None	None	None	1
3.0.1	2019_Mar_08_1005	s	s	6	2	SIC	357	3_4	3	4	2	2	23_2_2	1	2	1	0	0.554993867874	-480.0	42.0	-470.0	45.0	1
3.0.1	2019_Mar_08_1005	s	s	6	2	SIC	358	3_3	3	3	2	3	23_2_3	1	0	1	0	0.592517137527	-490.0	240.0	-486.0	236.0	1
3.0.1	2019_Mar_08_1005	s	s	6	2	SIC	359	ABS	0	0	1	2	24_1_2	NA	NA	0	1	2.81597709656	None	None	None	None	1
3.0.1	2019_Mar_08_1005	s	s	6	2	SIC	360	4_2	4	2	2	3	23_2_3	2	1	1	0	0.427669048309	45.0	-398.0	46.0	-403.0	1
3.0.1	2019_Mar_08_1005	s	s	6	2	SIC	361	1_3	1	3	3	4	23_3_4	2	-1	1	0	0.446310997009	-354.0	-337.0	-351.0	-348.0	1
3.0.1	2019_Mar_08_1005	s	s	6	2	SIC	362	1_3	1	3	2	4	23_2_4	1	-1	1	0	1.28577780724	161.0	-188.0	152.0	-183.0	1
3.0.1	2019_Mar_08_1005	s	s	6	2	SIC	363	ABS	0	0	3	3	24_3_3	NA	NA	0	1	3.5277030468	None	None	None	None	1
3.0.1	2019_Mar_08_1005	s	s	6	2	SIC	364	ABS	0	0	2	4	24_2_4	NA	NA	0	1	2.46915102005	None	None	None	None	1
3.0.1	2019_Mar_08_1005	s	s	6	2	SIC	365	3_3	3	3	2	1	23_2_1	1	2	1	0	0.863081932068	342.0	-268.0	349.0	-273.0	1
3.0.1	2019_Mar_08_1005	s	s	6	2	SIC	366	1_2	1	2	1	1	23_1_1	0	-1	1	0	1.24601507187	-54.0	-176.0	-44.0	-176.0	1
3.0.1	2019_Mar_08_1005	s	s	6	2	SIC	367	1_3	1	3	1	4	23_1_4	0	-1	1	0	0.657966136932	-325.0	189.0	-324.0	197.0	1
3.0.1	2019_Mar_08_1005	s	s	6	2	SIC	368	ABS	0	0	3	4	24_3_4	NA	NA	0	1	1.69293999672	None	None	None	None	1
3.0.1	2019_Mar_08_1005	s	s	6	2	SIC	369	2_4	2	4	4	2	23_4_2	2	2	1	0	0.422801971436	517.0	-87.0	512.0	-90.0	1
3.0.1	2019_Mar_08_1005	s	s	6	2	SIC	370	ABS	0	0	4	4	24_4_4	NA	NA	0	1	1.54316520691	None	None	None	None	1
3.0.1	2019_Mar_08_1005	s	s	6	2	SIC	371	3_4	3	4	2	4	23_2_4	1	0	1	0	2.01583981514	-115.0	-119.0	-115.0	-114.0	1
3.0.1	2019_Mar_08_1005	s	s	6	2	SIC	372	ABS	0	0	1	1	24_1_1	NA	NA	0	1	2.1448559761	None	None	None	None	1
3.0.1	2019_Mar_08_1005	s	s	6	2	SIC	373	3_4	3	4	1	2	23_1_2	2	2	1	0	0.43744301796	231.0	-365.0	236.0	-363.0	1
3.0.1	2019_Mar_08_1005	s	s	6	2	SIC	374	4_1	4	1	2	4	23_2_4	2	3	1	0	0.403824090958	317.0	172.0	320.0	164.0	1
3.0.1	2019_Mar_08_1005	s	s	6	2	SIC	375	ABS	0	0	1	4	24_1_4	NA	NA	0	1	2.03400087357	None	None	None	None	1
3.0.1	2019_Mar_08_1005	s	s	6	2	SIC	376	2_1	2	1	1	4	23_1_4	-1	3	1	0	0.446256160736	215.0	312.0	214.0	314.0	1
3.0.1	2019_Mar_08_1005	s	s	6	2	SIC	377	ABS	0	0	4	3	24_4_3	NA	NA	0	1	3.61008310318	None	None	None	None	1
3.0.1	2019_Mar_08_1005	s	s	6	2	SIC	378	ABS	0	0	2	3	24_2_3	NA	NA	0	1	3.55412197113	None	None	None	None	1
3.0.1	2019_Mar_08_1005	s	s	6	2	SIC	379	1_2	1	2	1	3	23_1_3	0	1	1	0	3.49535298347	224.0	192.0	231.0	187.0	1
3.0.1	2019_Mar_08_1005	s	s	6	2	SIC	380	ABS	0	0	1	2	24_1_2	NA	NA	0	1	3.91574788094	None	None	None	None	1
3.0.1	2019_Mar_08_1005	s	s	6	2	SIC	381	ABS	0	0	2	3	24_2_3	NA	NA	0	1	4.06182599068	None	None	None	None	1
3.0.1	2019_Mar_08_1005	s	s	6	2	SIC	382	4_4	4	4	1	4	23_1_4	3	0	1	0	0.497219085693	-376.0	-266.0	-374.0	-271.0	1
3.0.1	2019_Mar_08_1005	s	s	6	2	SIC	383	2_3	2	3	1	4	23_1_4	-1	-1	1	0	0.481614112854	-92.0	13.0	-94.0	15.0	1
3.0.1	2019_Mar_08_1005	s	s	6	2	SIC	384	3_1	3	1	1	1	23_1_1	2	0	1	0	0.422747135162	-515.0	333.0	-507.0	331.0	1
3.0.1	2019_Mar_08_1005	s	s	6	2	SIC	385	ABS	0	0	1	4	24_1_4	NA	NA	0	1	2.98664498329	None	None	None	None	1
3.0.1	2019_Mar_08_1005	s	s	6	2	SIC	386	ABS	0	0	4	1	24_4_1	NA	NA	0	1	1.73115706444	None	None	None	None	1
3.0.1	2019_Mar_08_1005	s	s	6	2	SIC	387	ABS	0	0	4	2	24_4_2	NA	NA	0	1	4.0451669693	None	None	None	None	1
3.0.1	2019_Mar_08_1005	s	s	6	2	SIC	388	ABS	0	0	2	4	24_2_4	NA	NA	0	1	3.08855605125	None	None	None	None	1
3.0.1	2019_Mar_08_1005	s	s	6	2	SIC	389	ABS	0	0	1	1	24_1_1	NA	NA	0	1	2.62209391594	None	None	None	None	1
3.0.1	2019_Mar_08_1005	s	s	6	2	SIC	390	ABS	0	0	4	4	24_4_4	NA	NA	0	1	1.93998289108	None	None	None	None	1
3.0.1	2019_Mar_08_1005	s	s	6	2	SIC	391	3_3	3	3	2	4	23_2_4	1	-1	1	0	0.716773033142	-497.0	-121.0	-487.0	-119.0	1
3.0.1	2019_Mar_08_1005	s	s	6	2	SIC	392	3_1	3	1	4	3	23_4_3	-1	2	1	0	0.410998821259	144.0	90.0	152.0	94.0	1
3.0.1	2019_Mar_08_1005	s	s	6	2	SIC	393	2_2	2	2	1	1	23_1_1	-1	-1	1	0	1.48125004768	-375.0	95.0	-372.0	93.0	1
3.0.1	2019_Mar_08_1005	s	s	6	2	SIC	394	3_2	3	2	4	4	23_4_4	-1	2	1	0	0.422786951065	-197.0	-232.0	-193.0	-229.0	1
3.0.1	2019_Mar_08_1005	s	s	6	2	SIC	395	ABS	0	0	2	4	24_2_4	NA	NA	0	1	2.15637397766	None	None	None	None	1
3.0.1	2019_Mar_08_1005	s	s	6	2	SIC	396	ABS	0	0	2	2	24_2_2	NA	NA	0	1	3.48354506493	None	None	None	None	1
3.0.1	2019_Mar_08_1005	s	s	6	2	SIC	397	ABS	0	0	1	2	24_1_2	NA	NA	0	1	4.30856919289	None	None	None	None	1
3.0.1	2019_Mar_08_1005	s	s	6	2	SIC	398	1_4	1	4	1	1	23_1_1	0	3	1	0	1.11664390564	-335.0	-305.0	-342.0	-310.0	1
3.0.1	2019_Mar_08_1005	s	s	6	2	SIC	399	2_4	2	4	2	3	23_2_3	0	1	1	0	1.022534132	489.0	-170.0	492.0	-170.0	1
3.0.1	2019_Mar_08_1005	s	s	6	2	SIC	400	ABS	0	0	1	2	24_1_2	NA	NA	0	1	4.77792787552	None	None	None	None	1
3.0.1	2019_Mar_08_1005	s	s	6	2	SIC	401	ABS	0	0	4	2	24_4_2	NA	NA	0	1	5.29627513885	None	None	None	None	1
3.0.1	2019_Mar_08_1005	s	s	6	2	SIC	402	4_4	4	4	2	2	23_2_2	2	2	1	0	0.605181932449	-288.0	-41.0	-283.0	-39.0	1
3.0.1	2019_Mar_08_1005	s	s	6	2	SIC	403	ABS	0	0	3	3	24_3_3	NA	NA	0	1	4.60126304626	None	None	None	None	1
3.0.1	2019_Mar_08_1005	s	s	6	2	SIC	404	3_3	3	3	3	1	23_3_1	0	2	1	0	0.815385818481	-258.0	249.0	-258.0	253.0	1
3.0.1	2019_Mar_08_1005	s	s	6	2	SIC	405	4_4	4	4	3	2	23_3_2	1	2	1	0	0.404143095016	-288.0	-215.0	-287.0	-217.0	1
3.0.1	2019_Mar_08_1005	s	s	6	2	SIC	406	ABS	0	0	2	1	24_2_1	NA	NA	0	1	2.60512018204	None	None	None	None	1
3.0.1	2019_Mar_08_1005	s	s	6	2	SIC	407	ABS	0	0	4	1	24_4_1	NA	NA	0	1	1.17555713654	None	None	None	None	1
3.0.1	2019_Mar_08_1005	s	s	6	2	SIC	408	3_2	3	2	4	2	23_4_2	-1	0	1	0	0.415272951126	-461.0	-307.0	-455.0	-308.0	1
3.0.1	2019_Mar_08_1005	s	s	6	2	SIC	409	ABS	0	0	2	4	24_2_4	NA	NA	0	1	2.46111011505	None	None	None	None	1
3.0.1	2019_Mar_08_1005	s	s	6	2	SIC	410	ABS	0	0	3	3	24_3_3	NA	NA	0	1	3.19194483757	None	None	None	None	1
3.0.1	2019_Mar_08_1005	s	s	6	2	SIC	411	ABS	0	0	1	4	24_1_4	NA	NA	0	1	1.86298394203	None	None	None	None	1
3.0.1	2019_Mar_08_1005	s	s	6	2	SIC	412	3_1	3	1	2	1	23_2_1	1	0	1	0	0.540494203568	-68.0	340.0	-66.0	344.0	1
3.0.1	2019_Mar_08_1005	s	s	6	2	SIC	413	1_4	1	4	3	2	23_3_2	2	2	1	0	0.437489032745	424.0	155.0	428.0	156.0	1
3.0.1	2019_Mar_08_1005	s	s	6	2	SIC	414	4_2	4	2	2	2	23_2_2	2	0	1	0	0.383433103561	363.0	-242.0	358.0	-246.0	1
3.0.1	2019_Mar_08_1005	s	s	6	2	SIC	415	3_3	3	3	1	2	23_1_2	2	1	1	0	0.496206045151	299.0	270.0	301.0	267.0	1
3.0.1	2019_Mar_08_1005	s	s	6	2	SIC	416	ABS	0	0	4	4	24_4_4	NA	NA	0	1	1.42242288589	None	None	None	None	1
3.0.1	2019_Mar_08_1005	s	s	6	2	SIC	417	ABS	0	0	3	4	24_3_4	NA	NA	0	1	1.34502506256	None	None	None	None	1
3.0.1	2019_Mar_08_1005	s	s	6	2	SIC	418	ABS	0	0	4	4	24_4_4	NA	NA	0	1	1.65773916245	None	None	None	None	1
3.0.1	2019_Mar_08_1005	s	s	6	2	SIC	419	1_1	1	1	4	3	23_4_3	3	2	1	0	0.387469053268	58.0	-219.0	54.0	-216.0	1
3.0.1	2019_Mar_08_1005	s	s	6	2	SIC	420	ABS	0	0	1	2	24_1_2	NA	NA	0	1	3.99205183983	None	None	None	None	1
3.0.1	2019_Mar_08_1005	s	s	6	2	SIC	421	ABS	0	0	4	4	24_4_4	NA	NA	0	1	1.15790605545	None	None	None	None	1
3.0.1	2019_Mar_08_1005	s	s	6	2	SIC	422	ABS	0	0	3	4	24_3_4	NA	NA	0	1	1.34006309509	None	None	None	None	1
3.0.1	2019_Mar_08_1005	s	s	6	2	SIC	423	ABS	0	0	2	3	24_2_3	NA	NA	0	1	3.56694602966	None	None	None	None	1
3.0.1	2019_Mar_08_1005	s	s	6	2	SIC	424	ABS	0	0	2	1	24_2_1	NA	NA	0	1	1.8743121624	None	None	None	None	1
3.0.1	2019_Mar_08_1005	s	s	6	2	SIC	425	ABS	0	0	1	3	24_1_3	NA	NA	0	1	2.87428092957	None	None	None	None	1
3.0.1	2019_Mar_08_1005	s	s	6	2	SIC	426	2_4	2	4	1	2	23_1_2	-1	2	1	0	0.646141052246	-73.0	-49.0	-74.0	-44.0	1
3.0.1	2019_Mar_08_1005	s	s	6	2	SIC	427	4_2	4	2	1	2	23_1_2	3	0	1	0	0.405364990234	444.0	-366.0	437.0	-364.0	1
3.0.1	2019_Mar_08_1005	s	s	6	2	SIC	428	ABS	0	0	1	3	24_1_3	NA	NA	0	1	3.20745205879	None	None	None	None	1
3.0.1	2019_Mar_08_1005	s	s	6	2	SIC	429	2_2	2	2	2	1	23_2_1	0	-1	1	0	1.90951108932	319.0	315.0	310.0	311.0	1
3.0.1	2019_Mar_08_1005	s	s	6	2	SIC	430	ABS	0	0	1	3	24_1_3	NA	NA	0	1	3.51586294174	None	None	None	None	1
3.0.1	2019_Mar_08_1005	s	s	6	2	SIC	431	ABS	0	0	3	4	24_3_4	NA	NA	0	1	1.29303097725	None	None	None	None	1
3.0.1	2019_Mar_08_1005	s	s	6	2	SIC	432	4_4	4	4	4	1	23_4_1	0	3	1	0	0.664665937424	150.0	376.0	142.0	372.0	1
3.0.1	2019_Mar_08_1005	s	s	6	2	SIC	433	ABS	0	0	1	2	24_1_2	NA	NA	0	1	4.23328900337	None	None	None	None	1
3.0.1	2019_Mar_08_1005	s	s	6	2	SIC	434	3_2	3	2	1	1	23_1_1	2	-1	1	0	0.716705083847	357.0	3.0	353.0	5.0	1
3.0.1	2019_Mar_08_1005	s	s	6	2	SIC	435	ABS	0	0	3	2	24_3_2	NA	NA	0	1	2.8219461441	None	None	None	None	1
3.0.1	2019_Mar_08_1005	s	s	6	2	SIC	436	2_1	2	1	4	3	23_4_3	2	2	1	0	0.386153936386	284.0	100.0	288.0	100.0	1
3.0.1	2019_Mar_08_1005	s	s	6	2	SIC	437	4_2	4	2	3	3	23_3_3	1	1	1	0	0.364220142365	247.0	-147.0	259.0	-143.0	1
3.0.1	2019_Mar_08_1005	s	s	6	2	SIC	438	1_1	1	1	3	4	23_3_4	2	3	1	0	0.35730099678	14.0	53.0	23.0	60.0	1
3.0.1	2019_Mar_08_1005	s	s	6	2	SIC	439	ABS	0	0	2	2	24_2_2	NA	NA	0	1	3.95110797882	None	None	None	None	1
3.0.1	2019_Mar_08_1005	s	s	6	2	SIC	440	ABS	0	0	3	4	24_3_4	NA	NA	0	1	1.51919102669	None	None	None	None	1
3.0.1	2019_Mar_08_1005	s	s	6	2	SIC	441	ABS	0	0	1	1	24_1_1	NA	NA	0	1	2.69779205322	None	None	None	None	1
3.0.1	2019_Mar_08_1005	s	s	6	2	SIC	442	4_4	4	4	3	4	23_3_4	1	0	1	0	0.423064947128	399.0	339.0	401.0	346.0	1
3.0.1	2019_Mar_08_1005	s	s	6	2	SIC	443	3_4	3	4	2	3	23_2_3	1	1	1	0	0.42276096344	104.0	77.0	102.0	80.0	1
3.0.1	2019_Mar_08_1005	s	s	6	2	SIC	444	3_2	3	2	2	4	23_2_4	1	2	1	0	0.44620513916	-344.0	-173.0	-343.0	-185.0	1
3.0.1	2019_Mar_08_1005	s	s	6	2	SIC	445	2_2	2	2	4	1	23_4_1	2	-1	1	0	0.563950061798	499.0	-112.0	492.0	-106.0	1
3.0.1	2019_Mar_08_1005	s	s	6	2	SIC	446	ABS	0	0	3	2	24_3_2	NA	NA	0	1	2.59855508804	None	None	None	None	1
3.0.1	2019_Mar_08_1005	s	s	6	2	SIC	447	ABS	0	0	3	2	24_3_2	NA	NA	0	1	3.1042881012	None	None	None	None	1
3.0.1	2019_Mar_08_1005	s	s	6	2	SIC	448	ABS	0	0	1	4	24_1_4	NA	NA	0	1	2.26043701172	None	None	None	None	1
3.0.1	2019_Mar_08_1005	s	s	6	2	SIC	449	ABS	0	0	4	3	24_4_3	NA	NA	0	1	3.89794898033	None	None	None	None	1
3.0.1	2019_Mar_08_1005	s	s	6	2	SIC	450	4_1	4	1	3	3	23_3_3	1	2	1	0	0.378612041473	519.0	-391.0	512.0	-393.0	1
3.0.1	2019_Mar_08_1005	s	s	6	2	SIC	451	4_3	4	3	2	2	23_2_2	2	1	1	0	0.716738939285	411.0	70.0	405.0	71.0	1
3.0.1	2019_Mar_08_1005	s	s	6	2	SIC	452	ABS	0	0	3	4	24_3_4	NA	NA	0	1	1.69806098938	None	None	None	None	1
3.0.1	2019_Mar_08_1005	s	s	6	2	SIC	453	2_1	2	1	2	2	23_2_2	0	1	1	0	2.03411102295	-131.0	-266.0	-138.0	-270.0	1
3.0.1	2019_Mar_08_1005	s	s	6	2	SIC	454	2_1	2	1	3	1	23_3_1	1	0	1	0	0.457980155945	-197.0	-367.0	-198.0	-383.0	1
3.0.1	2019_Mar_08_1005	s	s	6	2	SIC	455	3_1	3	1	3	2	23_3_2	0	1	1	0	2.12811493874	73.0	277.0	75.0	275.0	1
3.0.1	2019_Mar_08_1005	s	s	6	2	SIC	456	2_2	2	2	4	4	23_4_4	2	2	1	0	0.378582000732	224.0	-136.0	220.0	-140.0	1
3.0.1	2019_Mar_08_1005	s	s	6	2	SIC	457	ABS	0	0	1	1	24_1_1	NA	NA	0	1	1.72159981728	None	None	None	None	1
3.0.1	2019_Mar_08_1005	s	s	6	2	SIC	458	4_3	4	3	1	2	23_1_2	3	1	1	0	0.340387821198	118.0	-392.0	120.0	-394.0	1
3.0.1	2019_Mar_08_1005	s	s	6	2	SIC	459	ABS	0	0	4	2	24_4_2	NA	NA	0	1	4.88008499146	None	None	None	None	1
3.0.1	2019_Mar_08_1005	s	s	6	2	SIC	460	3_4	3	4	4	1	23_4_1	-1	3	1	0	0.405926942825	81.0	70.0	82.0	63.0	1
3.0.1	2019_Mar_08_1005	s	s	6	2	SIC	461	ABS	0	0	4	4	24_4_4	NA	NA	0	1	1.89929008484	None	None	None	None	1
3.0.1	2019_Mar_08_1005	s	s	6	2	SIC	462	ABS	0	0	4	1	24_4_1	NA	NA	0	1	2.68091392517	None	None	None	None	1
3.0.1	2019_Mar_08_1005	s	s	6	2	SIC	463	ABS	0	0	2	1	24_2_1	NA	NA	0	1	2.73550009727	None	None	None	None	1
3.0.1	2019_Mar_08_1005	s	s	6	2	SIC	464	ABS	0	0	4	2	24_4_2	NA	NA	0	1	4.14772701263	None	None	None	None	1
3.0.1	2019_Mar_08_1005	s	s	6	2	SIC	465	1_3	1	3	4	2	23_4_2	3	1	1	0	0.791206121445	-399.0	-115.0	-390.0	-115.0	1
3.0.1	2019_Mar_08_1005	s	s	6	2	SIC	466	ABS	0	0	2	3	24_2_3	NA	NA	0	1	3.8150639534	None	None	None	None	1
3.0.1	2019_Mar_08_1005	s	s	6	2	SIC	467	ABS	0	0	3	1	24_3_1	NA	NA	0	1	1.92820286751	None	None	None	None	1
3.0.1	2019_Mar_08_1005	s	s	6	2	SIC	468	ABS	0	0	4	3	24_4_3	NA	NA	0	1	3.89233207703	None	None	None	None	1
3.0.1	2019_Mar_08_1005	s	s	6	2	SIC	469	1_3	1	3	1	2	23_1_2	0	1	1	0	1.63435792923	25.0	13.0	30.0	17.0	1
3.0.1	2019_Mar_08_1005	s	s	6	2	SIC	470	ABS	0	0	3	1	24_3_1	NA	NA	0	1	1.68577694893	None	None	None	None	1
3.0.1	2019_Mar_08_1005	s	s	6	2	SIC	471	1_4	1	4	1	2	23_1_2	0	2	1	0	0.660931110382	-333.0	-336.0	-321.0	-327.0	1
3.0.1	2019_Mar_08_1005	s	s	6	2	SIC	472	ABS	0	0	2	2	24_2_2	NA	NA	0	1	3.0480401516	None	None	None	None	1
3.0.1	2019_Mar_08_1005	s	s	6	2	SIC	473	3_2	3	2	1	2	23_1_2	2	0	1	0	0.634420156479	-190.0	-362.0	-193.0	-368.0	1
3.0.1	2019_Mar_08_1005	s	s	6	2	SIC	474	ABS	0	0	4	3	24_4_3	NA	NA	0	1	2.8557779789	None	None	None	None	1
3.0.1	2019_Mar_08_1005	s	s	6	2	SIC	475	3_4	3	4	1	4	23_1_4	2	0	1	0	0.462918043137	492.0	147.0	489.0	147.0	1
3.0.1	2019_Mar_08_1005	s	s	6	2	SIC	476	2_2	2	2	1	4	23_1_4	-1	2	1	0	0.540802001953	162.0	-310.0	163.0	-305.0	1
3.0.1	2019_Mar_08_1005	s	s	6	2	SIC	477	1_1	1	1	2	3	23_2_3	1	2	1	0	2.11639618874	-515.0	171.0	-511.0	171.0	1
3.0.1	2019_Mar_08_1005	s	s	6	2	SIC	478	3_4	3	4	3	3	23_3_3	0	1	1	0	0.629149913788	92.0	-217.0	101.0	-210.0	1
3.0.1	2019_Mar_08_1005	s	s	6	2	SIC	479	ABS	0	0	4	2	24_4_2	NA	NA	0	1	3.4952890873	None	None	None	None	1
3.0.1	2019_Mar_08_1005	s	s	6	2	SIC	480	ABS	0	0	3	2	24_3_2	NA	NA	0	1	4.42146801949	None	None	None	None	1
