Version	Date	Stimuli	Method	Subject	Session	Condition	Trial	Target	TColor	TShape	DColor	DShape	Distractors	Channel1	Channel2	LMouseButton	RMouseButton	RT	TargetX	TargetY	ResponseX	ResponseY	Correct
3.0.1	2019_Mar_11_1029	s	s	6	4	Capacity	1	1_1	1	1	2	1	23_2_1	1	0	1	0	1.13748788834	296.0	11.0	285.0	16.0	1
3.0.1	2019_Mar_11_1029	s	s	6	4	Capacity	2	ABS	0	0	4	1	24_4_1	NA	NA	0	1	1.75174403191	None	None	None	None	1
3.0.1	2019_Mar_11_1029	s	s	6	4	Capacity	3	ABS	0	0	1	1	24_1_1	NA	NA	0	1	2.06935501099	None	None	None	None	1
3.0.1	2019_Mar_11_1029	s	s	6	4	Capacity	4	ABS	0	0	3	1	24_3_1	NA	NA	0	1	2.82205200195	None	None	None	None	1
3.0.1	2019_Mar_11_1029	s	s	6	4	Capacity	5	2_1	2	1	3	1	23_3_1	1	0	1	0	0.505457162857	250.0	-187.0	255.0	-181.0	1
3.0.1	2019_Mar_11_1029	s	s	6	4	Capacity	6	ABS	0	0	4	1	24_4_1	NA	NA	0	1	2.22213196754	None	None	None	None	1
3.0.1	2019_Mar_11_1029	s	s	6	4	Capacity	7	3_1	3	1	1	1	23_1_1	2	0	1	0	0.458039045334	252.0	-251.0	249.0	-253.0	1
3.0.1	2019_Mar_11_1029	s	s	6	4	Capacity	8	ABS	0	0	3	1	24_3_1	NA	NA	0	1	1.67492389679	None	None	None	None	1
3.0.1	2019_Mar_11_1029	s	s	6	4	Capacity	9	2_1	2	1	4	1	23_4_1	2	0	1	0	0.369061946869	215.0	367.0	214.0	361.0	1
3.0.1	2019_Mar_11_1029	s	s	6	4	Capacity	10	ABS	0	0	2	1	24_2_1	NA	NA	0	1	2.18697476387	None	None	None	None	1
3.0.1	2019_Mar_11_1029	s	s	6	4	Capacity	11	ABS	0	0	2	1	24_2_1	NA	NA	0	1	1.75176882744	None	None	None	None	1
3.0.1	2019_Mar_11_1029	s	s	6	4	Capacity	12	ABS	0	0	1	1	24_1_1	NA	NA	0	1	2.50444293022	None	None	None	None	1
3.0.1	2019_Mar_11_1029	s	s	6	4	Capacity	13	1_1	1	1	4	1	23_4_1	3	0	1	0	0.325870990753	-49.0	67.0	-45.0	56.0	1
3.0.1	2019_Mar_11_1029	s	s	6	4	Capacity	14	ABS	0	0	1	1	24_1_1	NA	NA	0	1	2.0692949295	None	None	None	None	1
3.0.1	2019_Mar_11_1029	s	s	6	4	Capacity	15	4_1	4	1	3	1	23_3_1	1	0	1	0	0.346263170242	374.0	-335.0	368.0	-338.0	1
3.0.1	2019_Mar_11_1029	s	s	6	4	Capacity	16	3_1	3	1	4	1	23_4_1	-1	0	1	0	0.378585100174	151.0	-183.0	158.0	-183.0	1
3.0.1	2019_Mar_11_1029	s	s	6	4	Capacity	17	ABS	0	0	2	1	24_2_1	NA	NA	0	1	2.01691198349	None	None	None	None	1
3.0.1	2019_Mar_11_1029	s	s	6	4	Capacity	18	3_1	3	1	2	1	23_2_1	1	0	1	0	0.428594112396	-248.0	-398.0	-247.0	-397.0	1
3.0.1	2019_Mar_11_1029	s	s	6	4	Capacity	19	1_1	1	1	3	1	23_3_1	2	0	1	0	0.469766139984	73.0	288.0	83.0	298.0	1
3.0.1	2019_Mar_11_1029	s	s	6	4	Capacity	20	4_1	4	1	1	1	23_1_1	3	0	1	0	0.357084989548	-319.0	-225.0	-319.0	-233.0	1
3.0.1	2019_Mar_11_1029	s	s	6	4	Capacity	21	2_1	2	1	1	1	23_1_1	-1	0	0	1	1.99879908562	234.0	-376.0	None	None	0
3.0.1	2019_Mar_11_1029	s	s	6	4	Capacity	22	ABS	0	0	4	1	24_4_1	NA	NA	0	1	2.14271020889	None	None	None	None	1
3.0.1	2019_Mar_11_1029	s	s	6	4	Capacity	23	4_1	4	1	2	1	23_2_1	2	0	1	0	0.422785997391	-202.0	-35.0	-193.0	-30.0	1
3.0.1	2019_Mar_11_1029	s	s	6	4	Capacity	24	ABS	0	0	3	1	24_3_1	NA	NA	0	1	2.16329503059	None	None	None	None	1
3.0.1	2019_Mar_11_1029	s	s	6	4	Capacity	25	ABS	0	0	1	1	24_1_1	NA	NA	0	1	2.30984115601	None	None	None	None	1
3.0.1	2019_Mar_11_1029	s	s	6	4	Capacity	26	4_1	4	1	2	1	23_2_1	2	0	1	0	0.370615005493	-479.0	120.0	-478.0	117.0	1
3.0.1	2019_Mar_11_1029	s	s	6	4	Capacity	27	4_1	4	1	3	1	23_3_1	1	0	1	0	0.363966941833	378.0	26.0	380.0	25.0	1
3.0.1	2019_Mar_11_1029	s	s	6	4	Capacity	28	3_1	3	1	4	1	23_4_1	-1	0	1	0	0.333727121353	66.0	-196.0	65.0	-186.0	1
3.0.1	2019_Mar_11_1029	s	s	6	4	Capacity	29	ABS	0	0	2	1	24_2_1	NA	NA	0	1	1.98036909103	None	None	None	None	1
3.0.1	2019_Mar_11_1029	s	s	6	4	Capacity	30	1_1	1	1	4	1	23_4_1	3	0	1	0	0.340394973755	468.0	-304.0	470.0	-308.0	1
3.0.1	2019_Mar_11_1029	s	s	6	4	Capacity	31	ABS	0	0	1	1	24_1_1	NA	NA	0	1	1.86935901642	None	None	None	None	1
3.0.1	2019_Mar_11_1029	s	s	6	4	Capacity	32	1_1	1	1	2	1	23_2_1	1	0	0	1	1.81516504288	100.0	-119.0	None	None	0
3.0.1	2019_Mar_11_1029	s	s	6	4	Capacity	33	2_1	2	1	3	1	23_3_1	1	0	1	0	0.613830089569	-491.0	-258.0	-490.0	-260.0	1
3.0.1	2019_Mar_11_1029	s	s	6	4	Capacity	34	3_1	3	1	1	1	23_1_1	2	0	1	0	0.385558843613	461.0	-322.0	454.0	-319.0	1
3.0.1	2019_Mar_11_1029	s	s	6	4	Capacity	35	3_1	3	1	2	1	23_2_1	1	0	1	0	0.5285820961	412.0	-220.0	406.0	-223.0	1
3.0.1	2019_Mar_11_1029	s	s	6	4	Capacity	36	ABS	0	0	1	1	24_1_1	NA	NA	0	1	1.90462589264	None	None	None	None	1
3.0.1	2019_Mar_11_1029	s	s	6	4	Capacity	37	1_1	1	1	3	1	23_3_1	2	0	1	0	0.509578227997	471.0	409.0	471.0	398.0	1
3.0.1	2019_Mar_11_1029	s	s	6	4	Capacity	38	2_1	2	1	4	1	23_4_1	2	0	1	0	0.363940954208	-498.0	-181.0	-493.0	-177.0	1
3.0.1	2019_Mar_11_1029	s	s	6	4	Capacity	39	2_1	2	1	1	1	23_1_1	-1	0	1	0	2.31918215752	452.0	-8.0	455.0	-15.0	1
3.0.1	2019_Mar_11_1029	s	s	6	4	Capacity	40	ABS	0	0	2	1	24_2_1	NA	NA	0	1	2.81027507782	None	None	None	None	1
3.0.1	2019_Mar_11_1029	s	s	6	4	Capacity	41	ABS	0	0	4	1	24_4_1	NA	NA	0	1	1.38034415245	None	None	None	None	1
3.0.1	2019_Mar_11_1029	s	s	6	4	Capacity	42	ABS	0	0	3	1	24_3_1	NA	NA	0	1	1.8105328083	None	None	None	None	1
3.0.1	2019_Mar_11_1029	s	s	6	4	Capacity	43	ABS	0	0	3	1	24_3_1	NA	NA	0	1	1.89998817444	None	None	None	None	1
3.0.1	2019_Mar_11_1029	s	s	6	4	Capacity	44	ABS	0	0	4	1	24_4_1	NA	NA	0	1	2.16333413124	None	None	None	None	1
3.0.1	2019_Mar_11_1029	s	s	6	4	Capacity	45	ABS	0	0	3	1	24_3_1	NA	NA	0	1	1.84882688522	None	None	None	None	1
3.0.1	2019_Mar_11_1029	s	s	6	4	Capacity	46	4_1	4	1	1	1	23_1_1	3	0	1	0	0.384953975677	-228.0	96.0	-228.0	87.0	1
3.0.1	2019_Mar_11_1029	s	s	6	4	Capacity	47	ABS	0	0	2	1	24_2_1	NA	NA	0	1	1.29302382469	None	None	None	None	1
3.0.1	2019_Mar_11_1029	s	s	6	4	Capacity	48	ABS	0	0	4	1	24_4_1	NA	NA	0	1	1.11659502983	None	None	None	None	1
3.0.1	2019_Mar_11_1029	s	s	6	4	Capacity	49	3_1	3	1	2	1	23_2_1	1	0	1	0	0.429338932037	-524.0	-325.0	-523.0	-331.0	1
3.0.1	2019_Mar_11_1029	s	s	6	4	Capacity	50	4_1	4	1	1	1	23_1_1	3	0	1	0	0.345468997955	-422.0	-150.0	-427.0	-159.0	1
3.0.1	2019_Mar_11_1029	s	s	6	4	Capacity	51	4_1	4	1	3	1	23_3_1	1	0	1	0	0.345470190048	128.0	120.0	132.0	122.0	1
3.0.1	2019_Mar_11_1029	s	s	6	4	Capacity	52	ABS	0	0	2	1	24_2_1	NA	NA	0	1	2.19264698029	None	None	None	None	1
3.0.1	2019_Mar_11_1029	s	s	6	4	Capacity	53	ABS	0	0	1	1	24_1_1	NA	NA	0	1	2.30987501144	None	None	None	None	1
3.0.1	2019_Mar_11_1029	s	s	6	4	Capacity	54	2_1	2	1	4	1	23_4_1	2	0	1	0	0.575669050217	148.0	-399.0	138.0	-401.0	1
3.0.1	2019_Mar_11_1029	s	s	6	4	Capacity	55	ABS	0	0	2	1	24_2_1	NA	NA	0	1	2.37800884247	None	None	None	None	1
3.0.1	2019_Mar_11_1029	s	s	6	4	Capacity	56	1_1	1	1	3	1	23_3_1	2	0	1	0	0.368236064911	260.0	31.0	252.0	27.0	1
3.0.1	2019_Mar_11_1029	s	s	6	4	Capacity	57	2_1	2	1	3	1	23_3_1	1	0	1	0	0.399168968201	164.0	-116.0	155.0	-118.0	1
3.0.1	2019_Mar_11_1029	s	s	6	4	Capacity	58	3_1	3	1	4	1	23_4_1	-1	0	1	0	0.343622922897	4.0	298.0	8.0	290.0	1
3.0.1	2019_Mar_11_1029	s	s	6	4	Capacity	59	2_1	2	1	1	1	23_1_1	-1	0	1	0	1.05790710449	-74.0	273.0	-70.0	263.0	1
3.0.1	2019_Mar_11_1029	s	s	6	4	Capacity	60	ABS	0	0	3	1	24_3_1	NA	NA	0	1	1.98002505302	None	None	None	None	1
3.0.1	2019_Mar_11_1029	s	s	6	4	Capacity	61	4_1	4	1	2	1	23_2_1	2	0	1	0	0.328657865524	-419.0	-381.0	-411.0	-374.0	1
3.0.1	2019_Mar_11_1029	s	s	6	4	Capacity	62	3_1	3	1	1	1	23_1_1	2	0	1	0	0.357325077057	-65.0	132.0	-65.0	123.0	1
3.0.1	2019_Mar_11_1029	s	s	6	4	Capacity	63	ABS	0	0	2	1	24_2_1	NA	NA	1	0	0.425621986389	None	None	32.0	36.0	0
3.0.1	2019_Mar_11_1029	s	s	6	4	Capacity	64	ABS	0	0	3	1	24_3_1	NA	NA	0	1	1.60530400276	None	None	None	None	1
3.0.1	2019_Mar_11_1029	s	s	6	4	Capacity	65	ABS	0	0	4	1	24_4_1	NA	NA	0	1	1.78992986679	None	None	None	None	1
3.0.1	2019_Mar_11_1029	s	s	6	4	Capacity	66	ABS	0	0	4	1	24_4_1	NA	NA	0	1	1.74609899521	None	None	None	None	1
3.0.1	2019_Mar_11_1029	s	s	6	4	Capacity	67	1_1	1	1	2	1	23_2_1	1	0	1	0	2.15552091599	30.0	-129.0	28.0	-131.0	1
3.0.1	2019_Mar_11_1029	s	s	6	4	Capacity	68	ABS	0	0	1	1	24_1_1	NA	NA	0	1	2.32807803154	None	None	None	None	1
3.0.1	2019_Mar_11_1029	s	s	6	4	Capacity	69	ABS	0	0	4	1	24_4_1	NA	NA	0	1	1.69839596748	None	None	None	None	1
3.0.1	2019_Mar_11_1029	s	s	6	4	Capacity	70	ABS	0	0	1	1	24_1_1	NA	NA	0	1	1.60537099838	None	None	None	None	1
3.0.1	2019_Mar_11_1029	s	s	6	4	Capacity	71	1_1	1	1	4	1	23_4_1	3	0	1	0	0.410936117172	-395.0	219.0	-398.0	219.0	1
3.0.1	2019_Mar_11_1029	s	s	6	4	Capacity	72	ABS	0	0	3	1	24_3_1	NA	NA	0	1	1.41068911552	None	None	None	None	1
3.0.1	2019_Mar_11_1029	s	s	6	4	Capacity	73	ABS	0	0	4	1	24_4_1	NA	NA	0	1	0.943158149719	None	None	None	None	1
3.0.1	2019_Mar_11_1029	s	s	6	4	Capacity	74	2_1	2	1	3	1	23_3_1	1	0	1	0	1.06965303421	-319.0	404.0	-316.0	405.0	1
3.0.1	2019_Mar_11_1029	s	s	6	4	Capacity	75	4_1	4	1	2	1	23_2_1	2	0	1	0	0.405652999878	533.0	-267.0	532.0	-269.0	1
3.0.1	2019_Mar_11_1029	s	s	6	4	Capacity	76	ABS	0	0	2	1	24_2_1	NA	NA	0	1	3.08977103233	None	None	None	None	1
3.0.1	2019_Mar_11_1029	s	s	6	4	Capacity	77	2_1	2	1	1	1	23_1_1	-1	0	1	0	0.763913869858	-200.0	177.0	-195.0	167.0	1
3.0.1	2019_Mar_11_1029	s	s	6	4	Capacity	78	3_1	3	1	4	1	23_4_1	-1	0	1	0	0.378550052643	279.0	-22.0	272.0	-24.0	1
3.0.1	2019_Mar_11_1029	s	s	6	4	Capacity	79	ABS	0	0	3	1	24_3_1	NA	NA	0	1	1.81331992149	None	None	None	None	1
3.0.1	2019_Mar_11_1029	s	s	6	4	Capacity	80	4_1	4	1	1	1	23_1_1	3	0	1	0	0.344393968582	427.0	76.0	421.0	73.0	1
3.0.1	2019_Mar_11_1029	s	s	6	4	Capacity	81	ABS	0	0	1	1	24_1_1	NA	NA	0	1	1.77525997162	None	None	None	None	1
3.0.1	2019_Mar_11_1029	s	s	6	4	Capacity	82	3_1	3	1	1	1	23_1_1	2	0	1	0	0.399533987045	-202.0	35.0	-214.0	36.0	1
3.0.1	2019_Mar_11_1029	s	s	6	4	Capacity	83	1_1	1	1	2	1	23_2_1	1	0	1	0	0.609120845795	291.0	-79.0	300.0	-77.0	1
3.0.1	2019_Mar_11_1029	s	s	6	4	Capacity	84	ABS	0	0	1	1	24_1_1	NA	NA	0	1	2.55438685417	None	None	None	None	1
3.0.1	2019_Mar_11_1029	s	s	6	4	Capacity	85	3_1	3	1	2	1	23_2_1	1	0	1	0	0.50103187561	-215.0	386.0	-213.0	385.0	1
3.0.1	2019_Mar_11_1029	s	s	6	4	Capacity	86	2_1	2	1	4	1	23_4_1	2	0	1	0	0.340393066406	-497.0	84.0	-505.0	79.0	1
3.0.1	2019_Mar_11_1029	s	s	6	4	Capacity	87	ABS	0	0	4	1	24_4_1	NA	NA	0	1	0.954875946045	None	None	None	None	1
3.0.1	2019_Mar_11_1029	s	s	6	4	Capacity	88	ABS	0	0	2	1	24_2_1	NA	NA	0	1	2.11634802818	None	None	None	None	1
3.0.1	2019_Mar_11_1029	s	s	6	4	Capacity	89	ABS	0	0	3	1	24_3_1	NA	NA	0	1	1.49588799477	None	None	None	None	1
3.0.1	2019_Mar_11_1029	s	s	6	4	Capacity	90	ABS	0	0	1	1	24_1_1	NA	NA	0	1	1.49820709229	None	None	None	None	1
3.0.1	2019_Mar_11_1029	s	s	6	4	Capacity	91	1_1	1	1	4	1	23_4_1	3	0	1	0	0.375710010529	-50.0	-18.0	-47.0	-21.0	1
3.0.1	2019_Mar_11_1029	s	s	6	4	Capacity	92	ABS	0	0	2	1	24_2_1	NA	NA	0	1	2.26921701431	None	None	None	None	1
3.0.1	2019_Mar_11_1029	s	s	6	4	Capacity	93	1_1	1	1	3	1	23_3_1	2	0	1	0	0.378588914871	381.0	92.0	380.0	95.0	1
3.0.1	2019_Mar_11_1029	s	s	6	4	Capacity	94	ABS	0	0	4	1	24_4_1	NA	NA	0	1	1.42245006561	None	None	None	None	1
3.0.1	2019_Mar_11_1029	s	s	6	4	Capacity	95	4_1	4	1	3	1	23_3_1	1	0	1	0	0.36394906044	129.0	81.0	135.0	72.0	1
3.0.1	2019_Mar_11_1029	s	s	6	4	Capacity	96	ABS	0	0	3	1	24_3_1	NA	NA	0	1	1.51653599739	None	None	None	None	1
3.0.1	2019_Mar_11_1029	s	s	6	4	Capacity	1	1_2	1	2	1	3	23_1_3	0	1	1	0	1.56641197205	-216.0	-292.0	-219.0	-297.0	1
3.0.1	2019_Mar_11_1029	s	s	6	4	Capacity	2	ABS	0	0	1	2	24_1_2	NA	NA	0	1	4.68320703506	None	None	None	None	1
3.0.1	2019_Mar_11_1029	s	s	6	4	Capacity	3	ABS	0	0	1	4	24_1_4	NA	NA	0	1	1.88116502762	None	None	None	None	1
3.0.1	2019_Mar_11_1029	s	s	6	4	Capacity	4	ABS	0	0	1	1	24_1_1	NA	NA	0	1	2.18694090843	None	None	None	None	1
3.0.1	2019_Mar_11_1029	s	s	6	4	Capacity	5	ABS	0	0	1	3	24_1_3	NA	NA	0	1	3.20128798485	None	None	None	None	1
3.0.1	2019_Mar_11_1029	s	s	6	4	Capacity	6	1_3	1	3	1	4	23_1_4	0	-1	1	0	0.672636985779	-88.0	-101.0	-81.0	-95.0	1
3.0.1	2019_Mar_11_1029	s	s	6	4	Capacity	7	ABS	0	0	1	2	24_1_2	NA	NA	0	1	4.14755511284	None	None	None	None	1
3.0.1	2019_Mar_11_1029	s	s	6	4	Capacity	8	ABS	0	0	1	4	24_1_4	NA	NA	0	1	1.77535891533	None	None	None	None	1
3.0.1	2019_Mar_11_1029	s	s	6	4	Capacity	9	ABS	0	0	1	1	24_1_1	NA	NA	0	1	1.98710083961	None	None	None	None	1
3.0.1	2019_Mar_11_1029	s	s	6	4	Capacity	10	1_2	1	2	1	4	23_1_4	0	2	1	0	0.533238887787	-247.0	-219.0	-251.0	-216.0	1
3.0.1	2019_Mar_11_1029	s	s	6	4	Capacity	11	1_3	1	3	1	1	23_1_1	0	2	1	0	1.11655688286	-212.0	369.0	-215.0	371.0	1
3.0.1	2019_Mar_11_1029	s	s	6	4	Capacity	12	1_1	1	1	1	2	23_1_2	0	1	0	1	2.21077513695	477.0	291.0	None	None	0
3.0.1	2019_Mar_11_1029	s	s	6	4	Capacity	13	ABS	0	0	1	3	24_1_3	NA	NA	0	1	3.21011996269	None	None	None	None	1
3.0.1	2019_Mar_11_1029	s	s	6	4	Capacity	14	1_4	1	4	1	1	23_1_1	0	3	1	0	0.567926168442	-380.0	-302.0	-366.0	-293.0	1
3.0.1	2019_Mar_11_1029	s	s	6	4	Capacity	15	ABS	0	0	1	4	24_1_4	NA	NA	0	1	1.96803402901	None	None	None	None	1
3.0.1	2019_Mar_11_1029	s	s	6	4	Capacity	16	ABS	0	0	1	1	24_1_1	NA	NA	0	1	2.62032318115	None	None	None	None	1
3.0.1	2019_Mar_11_1029	s	s	6	4	Capacity	17	1_2	1	2	1	1	23_1_1	0	-1	1	0	0.618104934692	85.0	-86.0	85.0	-88.0	1
3.0.1	2019_Mar_11_1029	s	s	6	4	Capacity	18	ABS	0	0	1	2	24_1_2	NA	NA	0	1	3.97946500778	None	None	None	None	1
3.0.1	2019_Mar_11_1029	s	s	6	4	Capacity	19	ABS	0	0	1	3	24_1_3	NA	NA	0	1	3.19057488441	None	None	None	None	1
3.0.1	2019_Mar_11_1029	s	s	6	4	Capacity	20	1_1	1	1	1	4	23_1_4	0	3	1	0	0.48974609375	340.0	390.0	341.0	372.0	1
3.0.1	2019_Mar_11_1029	s	s	6	4	Capacity	21	1_1	1	1	1	3	23_1_3	0	2	1	0	1.4576997757	-359.0	-409.0	-363.0	-408.0	1
3.0.1	2019_Mar_11_1029	s	s	6	4	Capacity	22	1_4	1	4	1	3	23_1_3	0	1	1	0	0.568708181381	-368.0	-226.0	-365.0	-232.0	1
3.0.1	2019_Mar_11_1029	s	s	6	4	Capacity	23	1_3	1	3	1	2	23_1_2	0	1	1	0	1.10486888885	-318.0	-382.0	-314.0	-378.0	1
3.0.1	2019_Mar_11_1029	s	s	6	4	Capacity	24	1_4	1	4	1	2	23_1_2	0	2	1	0	0.497201919556	-9.0	24.0	-9.0	16.0	1
3.0.1	2019_Mar_11_1029	s	s	6	4	Capacity	25	1_2	1	2	1	1	23_1_1	0	-1	1	0	0.684896945953	-258.0	-66.0	-253.0	-70.0	1
3.0.1	2019_Mar_11_1029	s	s	6	4	Capacity	26	1_2	1	2	1	4	23_1_4	0	2	1	0	0.528769016266	188.0	-124.0	185.0	-124.0	1
3.0.1	2019_Mar_11_1029	s	s	6	4	Capacity	27	1_3	1	3	1	1	23_1_1	0	2	1	0	1.33357095718	278.0	406.0	272.0	399.0	1
3.0.1	2019_Mar_11_1029	s	s	6	4	Capacity	28	ABS	0	0	1	3	24_1_3	NA	NA	0	1	3.61292386055	None	None	None	None	1
3.0.1	2019_Mar_11_1029	s	s	6	4	Capacity	29	1_1	1	1	1	3	23_1_3	0	2	1	0	1.29315400124	65.0	356.0	68.0	347.0	1
3.0.1	2019_Mar_11_1029	s	s	6	4	Capacity	30	ABS	0	0	1	2	24_1_2	NA	NA	0	1	4.64543581009	None	None	None	None	1
3.0.1	2019_Mar_11_1029	s	s	6	4	Capacity	31	1_1	1	1	1	2	23_1_2	0	1	1	0	2.22219800949	31.0	-200.0	26.0	-202.0	1
3.0.1	2019_Mar_11_1029	s	s	6	4	Capacity	32	ABS	0	0	1	2	24_1_2	NA	NA	0	1	3.32082891464	None	None	None	None	1
3.0.1	2019_Mar_11_1029	s	s	6	4	Capacity	33	ABS	0	0	1	3	24_1_3	NA	NA	0	1	3.32324385643	None	None	None	None	1
3.0.1	2019_Mar_11_1029	s	s	6	4	Capacity	34	ABS	0	0	1	1	24_1_1	NA	NA	0	1	2.41539216042	None	None	None	None	1
3.0.1	2019_Mar_11_1029	s	s	6	4	Capacity	35	ABS	0	0	1	4	24_1_4	NA	NA	0	1	1.49594187737	None	None	None	None	1
3.0.1	2019_Mar_11_1029	s	s	6	4	Capacity	36	1_4	1	4	1	3	23_1_3	0	1	1	0	0.532836914062	89.0	203.0	88.0	200.0	1
3.0.1	2019_Mar_11_1029	s	s	6	4	Capacity	37	1_4	1	4	1	2	23_1_2	0	2	1	0	0.427910089493	-114.0	114.0	-114.0	107.0	1
3.0.1	2019_Mar_11_1029	s	s	6	4	Capacity	38	ABS	0	0	1	1	24_1_1	NA	NA	0	1	2.5161960125	None	None	None	None	1
3.0.1	2019_Mar_11_1029	s	s	6	4	Capacity	39	1_2	1	2	1	3	23_1_3	0	1	0	1	2.48600292206	214.0	51.0	None	None	0
3.0.1	2019_Mar_11_1029	s	s	6	4	Capacity	40	1_3	1	3	1	4	23_1_4	0	-1	1	0	0.559995889664	-124.0	-260.0	-115.0	-258.0	1
3.0.1	2019_Mar_11_1029	s	s	6	4	Capacity	41	ABS	0	0	1	4	24_1_4	NA	NA	0	1	1.98700594902	None	None	None	None	1
3.0.1	2019_Mar_11_1029	s	s	6	4	Capacity	42	ABS	0	0	1	2	24_1_2	NA	NA	0	1	4.01019191742	None	None	None	None	1
3.0.1	2019_Mar_11_1029	s	s	6	4	Capacity	43	ABS	0	0	1	4	24_1_4	NA	NA	0	1	1.72186899185	None	None	None	None	1
3.0.1	2019_Mar_11_1029	s	s	6	4	Capacity	44	ABS	0	0	1	3	24_1_3	NA	NA	0	1	3.46889996529	None	None	None	None	1
3.0.1	2019_Mar_11_1029	s	s	6	4	Capacity	45	1_4	1	4	1	1	23_1_1	0	3	1	0	0.411362171173	-68.0	100.0	-85.0	-11.0	0
3.0.1	2019_Mar_11_1029	s	s	6	4	Capacity	46	ABS	0	0	1	1	24_1_1	NA	NA	0	1	2.01053500175	None	None	None	None	1
3.0.1	2019_Mar_11_1029	s	s	6	4	Capacity	47	1_1	1	1	1	4	23_1_4	0	3	1	0	0.591995000839	372.0	320.0	371.0	314.0	1
3.0.1	2019_Mar_11_1029	s	s	6	4	Capacity	48	1_3	1	3	1	2	23_1_2	0	1	1	0	3.75110507011	272.0	-253.0	264.0	-257.0	1
3.0.1	2019_Mar_11_1029	s	s	6	4	Capacity	49	1_1	1	1	1	4	23_1_4	0	3	1	0	0.462830066681	407.0	168.0	408.0	167.0	1
3.0.1	2019_Mar_11_1029	s	s	6	4	Capacity	50	ABS	0	0	1	2	24_1_2	NA	NA	0	1	3.50191497803	None	None	None	None	1
3.0.1	2019_Mar_11_1029	s	s	6	4	Capacity	51	ABS	0	0	1	4	24_1_4	NA	NA	0	1	1.52859306335	None	None	None	None	1
3.0.1	2019_Mar_11_1029	s	s	6	4	Capacity	52	ABS	0	0	1	3	24_1_3	NA	NA	0	1	3.98006701469	None	None	None	None	1
3.0.1	2019_Mar_11_1029	s	s	6	4	Capacity	53	1_3	1	3	1	4	23_1_4	0	-1	1	0	0.677969932556	-459.0	-219.0	-456.0	-216.0	1
3.0.1	2019_Mar_11_1029	s	s	6	4	Capacity	54	ABS	0	0	1	1	24_1_1	NA	NA	0	1	3.01019310951	None	None	None	None	1
3.0.1	2019_Mar_11_1029	s	s	6	4	Capacity	55	ABS	0	0	1	2	24_1_2	NA	NA	0	1	3.58650803566	None	None	None	None	1
3.0.1	2019_Mar_11_1029	s	s	6	4	Capacity	56	1_2	1	2	1	3	23_1_3	0	1	1	0	2.98666405678	529.0	60.0	540.0	61.0	1
3.0.1	2019_Mar_11_1029	s	s	6	4	Capacity	57	1_3	1	3	1	2	23_1_2	0	1	1	0	2.29308104515	327.0	329.0	327.0	321.0	1
3.0.1	2019_Mar_11_1029	s	s	6	4	Capacity	58	1_2	1	2	1	4	23_1_4	0	2	1	0	0.426587820053	-28.0	180.0	-35.0	179.0	1
3.0.1	2019_Mar_11_1029	s	s	6	4	Capacity	59	ABS	0	0	1	4	24_1_4	NA	NA	0	1	1.55196785927	None	None	None	None	1
3.0.1	2019_Mar_11_1029	s	s	6	4	Capacity	60	ABS	0	0	1	1	24_1_1	NA	NA	0	1	2.23392701149	None	None	None	None	1
3.0.1	2019_Mar_11_1029	s	s	6	4	Capacity	61	1_4	1	4	1	3	23_1_3	0	1	1	0	0.567162036896	90.0	-197.0	82.0	-195.0	1
3.0.1	2019_Mar_11_1029	s	s	6	4	Capacity	62	ABS	0	0	1	1	24_1_1	NA	NA	0	1	1.3283469677	None	None	None	None	1
3.0.1	2019_Mar_11_1029	s	s	6	4	Capacity	63	1_3	1	3	1	1	23_1_1	0	2	1	0	0.646176099777	49.0	148.0	48.0	147.0	1
3.0.1	2019_Mar_11_1029	s	s	6	4	Capacity	64	1_1	1	1	1	3	23_1_3	0	2	1	0	1.10487413406	-232.0	253.0	-231.0	246.0	1
3.0.1	2019_Mar_11_1029	s	s	6	4	Capacity	65	1_2	1	2	1	1	23_1_1	0	-1	1	0	1.57532000542	359.0	-335.0	365.0	-339.0	1
3.0.1	2019_Mar_11_1029	s	s	6	4	Capacity	66	1_4	1	4	1	1	23_1_1	0	3	1	0	0.469697952271	538.0	357.0	533.0	355.0	1
3.0.1	2019_Mar_11_1029	s	s	6	4	Capacity	67	ABS	0	0	1	3	24_1_3	NA	NA	0	1	3.1452460289	None	None	None	None	1
3.0.1	2019_Mar_11_1029	s	s	6	4	Capacity	68	ABS	0	0	1	4	24_1_4	NA	NA	0	1	1.79497694969	None	None	None	None	1
3.0.1	2019_Mar_11_1029	s	s	6	4	Capacity	69	ABS	0	0	1	3	24_1_3	NA	NA	0	1	3.6855969429	None	None	None	None	1
3.0.1	2019_Mar_11_1029	s	s	6	4	Capacity	70	1_4	1	4	1	2	23_1_2	0	2	1	0	0.581342935562	267.0	270.0	258.0	271.0	1
3.0.1	2019_Mar_11_1029	s	s	6	4	Capacity	71	1_1	1	1	1	2	23_1_2	0	1	1	0	3.5633289814	340.0	-49.0	336.0	-49.0	1
3.0.1	2019_Mar_11_1029	s	s	6	4	Capacity	72	ABS	0	0	1	2	24_1_2	NA	NA	0	1	4.02773618698	None	None	None	None	1
3.0.1	2019_Mar_11_1029	s	s	6	4	Capacity	73	ABS	0	0	1	2	24_1_2	NA	NA	0	1	4.22160196304	None	None	None	None	1
3.0.1	2019_Mar_11_1029	s	s	6	4	Capacity	74	1_1	1	1	1	4	23_1_4	0	3	1	0	0.458007097244	-112.0	-216.0	-119.0	-223.0	1
3.0.1	2019_Mar_11_1029	s	s	6	4	Capacity	75	1_4	1	4	1	3	23_1_3	0	1	1	0	0.854319095612	493.0	198.0	487.0	196.0	1
3.0.1	2019_Mar_11_1029	s	s	6	4	Capacity	76	1_2	1	2	1	4	23_1_4	0	2	1	0	0.610878944397	-339.0	384.0	-339.0	382.0	1
3.0.1	2019_Mar_11_1029	s	s	6	4	Capacity	77	ABS	0	0	1	4	24_1_4	NA	NA	0	1	1.05077195168	None	None	None	None	1
3.0.1	2019_Mar_11_1029	s	s	6	4	Capacity	78	ABS	0	0	1	2	24_1_2	NA	NA	0	1	4.15616583824	None	None	None	None	1
3.0.1	2019_Mar_11_1029	s	s	6	4	Capacity	79	ABS	0	0	1	1	24_1_1	NA	NA	0	1	2.25048184395	None	None	None	None	1
3.0.1	2019_Mar_11_1029	s	s	6	4	Capacity	80	1_1	1	1	1	2	23_1_2	0	1	1	0	3.57466006279	312.0	332.0	311.0	329.0	1
3.0.1	2019_Mar_11_1029	s	s	6	4	Capacity	81	ABS	0	0	1	1	24_1_1	NA	NA	0	1	1.93319988251	None	None	None	None	1
3.0.1	2019_Mar_11_1029	s	s	6	4	Capacity	82	1_2	1	2	1	3	23_1_3	0	1	1	0	1.49308085442	-323.0	112.0	-321.0	106.0	1
3.0.1	2019_Mar_11_1029	s	s	6	4	Capacity	83	ABS	0	0	1	3	24_1_3	NA	NA	0	1	3.45134806633	None	None	None	None	1
3.0.1	2019_Mar_11_1029	s	s	6	4	Capacity	84	1_1	1	1	1	3	23_1_3	0	2	1	0	2.37799191475	86.0	-316.0	87.0	-306.0	1
3.0.1	2019_Mar_11_1029	s	s	6	4	Capacity	85	1_3	1	3	1	4	23_1_4	0	-1	1	0	0.716782093048	-172.0	-308.0	-166.0	-311.0	1
3.0.1	2019_Mar_11_1029	s	s	6	4	Capacity	86	ABS	0	0	1	3	24_1_3	NA	NA	0	1	3.65025901794	None	None	None	None	1
3.0.1	2019_Mar_11_1029	s	s	6	4	Capacity	87	ABS	0	0	1	4	24_1_4	NA	NA	0	1	1.61072993279	None	None	None	None	1
3.0.1	2019_Mar_11_1029	s	s	6	4	Capacity	88	ABS	0	0	1	2	24_1_2	NA	NA	0	1	4.40987014771	None	None	None	None	1
3.0.1	2019_Mar_11_1029	s	s	6	4	Capacity	89	ABS	0	0	1	4	24_1_4	NA	NA	0	1	1.97045087814	None	None	None	None	1
3.0.1	2019_Mar_11_1029	s	s	6	4	Capacity	90	ABS	0	0	1	1	24_1_1	NA	NA	0	1	1.65085411072	None	None	None	None	1
3.0.1	2019_Mar_11_1029	s	s	6	4	Capacity	91	1_4	1	4	1	2	23_1_2	0	2	1	0	0.469860076904	107.0	52.0	107.0	47.0	1
3.0.1	2019_Mar_11_1029	s	s	6	4	Capacity	92	1_4	1	4	1	1	23_1_1	0	3	1	0	0.476102113724	-277.0	-208.0	-273.0	-206.0	1
3.0.1	2019_Mar_11_1029	s	s	6	4	Capacity	93	ABS	0	0	1	3	24_1_3	NA	NA	0	1	3.80679821968	None	None	None	None	1
3.0.1	2019_Mar_11_1029	s	s	6	4	Capacity	94	1_3	1	3	1	2	23_1_2	0	1	1	0	2.1452691555	-521.0	316.0	-520.0	319.0	1
3.0.1	2019_Mar_11_1029	s	s	6	4	Capacity	95	1_2	1	2	1	1	23_1_1	0	-1	1	0	1.96631288528	312.0	-259.0	308.0	-259.0	1
3.0.1	2019_Mar_11_1029	s	s	6	4	Capacity	96	1_3	1	3	1	1	23_1_1	0	2	1	0	0.881412029266	250.0	-331.0	245.0	-327.0	1
3.0.1	2019_Mar_11_1029	s	s	6	4	SIC	1	ABS	0	0	4	1	24_4_1	NA	NA	0	1	1.51645112038	None	None	None	None	1
3.0.1	2019_Mar_11_1029	s	s	6	4	SIC	2	1_1	1	1	3	4	23_3_4	2	3	1	0	0.399219989777	440.0	-400.0	439.0	-409.0	1
3.0.1	2019_Mar_11_1029	s	s	6	4	SIC	3	2_3	2	3	3	1	23_3_1	1	2	1	0	0.378546953201	-190.0	199.0	-194.0	196.0	1
3.0.1	2019_Mar_11_1029	s	s	6	4	SIC	4	ABS	0	0	4	4	24_4_4	NA	NA	0	1	1.21553301811	None	None	None	None	1
3.0.1	2019_Mar_11_1029	s	s	6	4	SIC	5	4_4	4	4	1	1	23_1_1	3	3	1	0	0.363987922668	466.0	-226.0	464.0	-226.0	1
3.0.1	2019_Mar_11_1029	s	s	6	4	SIC	6	2_3	2	3	4	4	23_4_4	2	-1	1	0	0.363952159882	-309.0	-116.0	-309.0	-121.0	1
3.0.1	2019_Mar_11_1029	s	s	6	4	SIC	7	ABS	0	0	1	4	24_1_4	NA	NA	0	1	1.55571389198	None	None	None	None	1
3.0.1	2019_Mar_11_1029	s	s	6	4	SIC	8	4_1	4	1	3	3	23_3_3	1	2	1	0	0.51674413681	-442.0	277.0	-435.0	272.0	1
3.0.1	2019_Mar_11_1029	s	s	6	4	SIC	9	1_2	1	2	1	3	23_1_3	0	1	1	0	1.68120598793	-217.0	149.0	-221.0	148.0	1
3.0.1	2019_Mar_11_1029	s	s	6	4	SIC	10	1_3	1	3	3	4	23_3_4	2	-1	1	0	0.387502908707	335.0	-61.0	330.0	-67.0	1
3.0.1	2019_Mar_11_1029	s	s	6	4	SIC	11	ABS	0	0	4	4	24_4_4	NA	NA	0	1	1.26067709923	None	None	None	None	1
3.0.1	2019_Mar_11_1029	s	s	6	4	SIC	12	2_2	2	2	1	4	23_1_4	-1	2	1	0	0.663715839386	35.0	380.0	43.0	382.0	1
3.0.1	2019_Mar_11_1029	s	s	6	4	SIC	13	1_4	1	4	1	2	23_1_2	0	2	1	0	0.532655000687	319.0	-10.0	306.0	-4.0	1
3.0.1	2019_Mar_11_1029	s	s	6	4	SIC	14	ABS	0	0	4	1	24_4_1	NA	NA	0	1	1.35191011429	None	None	None	None	1
3.0.1	2019_Mar_11_1029	s	s	6	4	SIC	15	2_2	2	2	4	1	23_4_1	2	-1	1	0	0.380932092667	-151.0	275.0	-144.0	275.0	1
3.0.1	2019_Mar_11_1029	s	s	6	4	SIC	16	2_1	2	1	2	2	23_2_2	0	1	1	0	3.39251899719	-287.0	410.0	-289.0	410.0	1
3.0.1	2019_Mar_11_1029	s	s	6	4	SIC	17	ABS	0	0	2	1	24_2_1	NA	NA	0	1	3.01028108597	None	None	None	None	1
3.0.1	2019_Mar_11_1029	s	s	6	4	SIC	18	ABS	0	0	1	1	24_1_1	NA	NA	0	1	2.43672800064	None	None	None	None	1
3.0.1	2019_Mar_11_1029	s	s	6	4	SIC	19	ABS	0	0	3	4	24_3_4	NA	NA	0	1	1.97190403938	None	None	None	None	1
3.0.1	2019_Mar_11_1029	s	s	6	4	SIC	20	2_3	2	3	1	4	23_1_4	-1	-1	1	0	0.651276111603	-82.0	-184.0	-85.0	-191.0	1
3.0.1	2019_Mar_11_1029	s	s	6	4	SIC	21	3_2	3	2	2	2	23_2_2	1	0	1	0	0.646519899368	-339.0	-79.0	-336.0	-89.0	1
3.0.1	2019_Mar_11_1029	s	s	6	4	SIC	22	ABS	0	0	1	3	24_1_3	NA	NA	0	1	3.31892299652	None	None	None	None	1
3.0.1	2019_Mar_11_1029	s	s	6	4	SIC	23	ABS	0	0	4	3	24_4_3	NA	NA	0	1	3.46069002151	None	None	None	None	1
3.0.1	2019_Mar_11_1029	s	s	6	4	SIC	24	ABS	0	0	3	2	24_3_2	NA	NA	0	1	3.41521501541	None	None	None	None	1
3.0.1	2019_Mar_11_1029	s	s	6	4	SIC	25	1_2	1	2	2	3	23_2_3	1	1	1	0	1.6269800663	-425.0	316.0	-425.0	318.0	1
3.0.1	2019_Mar_11_1029	s	s	6	4	SIC	26	4_4	4	4	2	2	23_2_2	2	2	1	0	0.378608942032	-40.0	-215.0	-38.0	-217.0	1
3.0.1	2019_Mar_11_1029	s	s	6	4	SIC	27	3_3	3	3	2	1	23_2_1	1	2	1	0	0.528537034988	396.0	405.0	394.0	396.0	1
3.0.1	2019_Mar_11_1029	s	s	6	4	SIC	28	ABS	0	0	1	2	24_1_2	NA	NA	0	1	3.2853269577	None	None	None	None	1
3.0.1	2019_Mar_11_1029	s	s	6	4	SIC	29	ABS	0	0	3	3	24_3_3	NA	NA	0	1	2.66953015327	None	None	None	None	1
3.0.1	2019_Mar_11_1029	s	s	6	4	SIC	30	ABS	0	0	4	2	24_4_2	NA	NA	0	1	4.08336901665	None	None	None	None	1
3.0.1	2019_Mar_11_1029	s	s	6	4	SIC	31	ABS	0	0	3	4	24_3_4	NA	NA	0	1	1.45770096779	None	None	None	None	1
3.0.1	2019_Mar_11_1029	s	s	6	4	SIC	32	ABS	0	0	3	3	24_3_3	NA	NA	0	1	3.53199601173	None	None	None	None	1
3.0.1	2019_Mar_11_1029	s	s	6	4	SIC	33	4_2	4	2	3	2	23_3_2	1	0	1	0	0.427775144577	-116.0	-402.0	-116.0	-396.0	1
3.0.1	2019_Mar_11_1029	s	s	6	4	SIC	34	ABS	0	0	2	2	24_2_2	NA	NA	0	1	3.33237600327	None	None	None	None	1
3.0.1	2019_Mar_11_1029	s	s	6	4	SIC	35	2_2	2	2	4	4	23_4_4	2	2	1	0	0.384246110916	289.0	-306.0	293.0	-305.0	1
3.0.1	2019_Mar_11_1029	s	s	6	4	SIC	36	3_4	3	4	3	1	23_3_1	0	3	1	0	0.422784090042	-156.0	194.0	-154.0	192.0	1
3.0.1	2019_Mar_11_1029	s	s	6	4	SIC	37	ABS	0	0	2	2	24_2_2	NA	NA	0	1	3.9141459465	None	None	None	None	1
3.0.1	2019_Mar_11_1029	s	s	6	4	SIC	38	ABS	0	0	2	2	24_2_2	NA	NA	0	1	3.59147596359	None	None	None	None	1
3.0.1	2019_Mar_11_1029	s	s	6	4	SIC	39	3_4	3	4	3	3	23_3_3	0	1	1	0	0.554971933365	-423.0	151.0	-424.0	151.0	1
3.0.1	2019_Mar_11_1029	s	s	6	4	SIC	40	4_1	4	1	1	1	23_1_1	3	0	1	0	0.352140903473	217.0	190.0	212.0	188.0	1
3.0.1	2019_Mar_11_1029	s	s	6	4	SIC	41	ABS	0	0	1	3	24_1_3	NA	NA	0	1	3.80990290642	None	None	None	None	1
3.0.1	2019_Mar_11_1029	s	s	6	4	SIC	42	4_3	4	3	4	2	23_4_2	0	1	1	0	2.22219705582	-284.0	-276.0	-284.0	-277.0	1
3.0.1	2019_Mar_11_1029	s	s	6	4	SIC	43	1_3	1	3	4	1	23_4_1	3	2	1	0	0.404054880142	119.0	105.0	122.0	94.0	1
3.0.1	2019_Mar_11_1029	s	s	6	4	SIC	44	ABS	0	0	3	1	24_3_1	NA	NA	0	1	2.20643687248	None	None	None	None	1
3.0.1	2019_Mar_11_1029	s	s	6	4	SIC	45	1_1	1	1	1	3	23_1_3	0	2	1	0	1.46938920021	-72.0	-372.0	-65.0	-375.0	1
3.0.1	2019_Mar_11_1029	s	s	6	4	SIC	46	4_3	4	3	4	1	23_4_1	0	2	1	0	0.613764047623	-151.0	99.0	-148.0	94.0	1
3.0.1	2019_Mar_11_1029	s	s	6	4	SIC	47	ABS	0	0	1	2	24_1_2	NA	NA	0	1	5.89814209938	None	None	None	None	1
3.0.1	2019_Mar_11_1029	s	s	6	4	SIC	48	1_3	1	3	2	2	23_2_2	1	1	1	0	1.23433899879	-456.0	-157.0	-453.0	-166.0	1
3.0.1	2019_Mar_11_1029	s	s	6	4	SIC	49	4_1	4	1	2	1	23_2_1	2	0	1	0	0.401952981949	335.0	-198.0	341.0	-197.0	1
3.0.1	2019_Mar_11_1029	s	s	6	4	SIC	50	ABS	0	0	2	3	24_2_3	NA	NA	0	1	3.64952802658	None	None	None	None	1
3.0.1	2019_Mar_11_1029	s	s	6	4	SIC	51	ABS	0	0	1	2	24_1_2	NA	NA	0	1	4.67138791084	None	None	None	None	1
3.0.1	2019_Mar_11_1029	s	s	6	4	SIC	52	ABS	0	0	2	1	24_2_1	NA	NA	0	1	2.20159697533	None	None	None	None	1
3.0.1	2019_Mar_11_1029	s	s	6	4	SIC	53	ABS	0	0	2	4	24_2_4	NA	NA	0	1	2.68598413467	None	None	None	None	1
3.0.1	2019_Mar_11_1029	s	s	6	4	SIC	54	ABS	0	0	2	1	24_2_1	NA	NA	0	1	3.01020097733	None	None	None	None	1
3.0.1	2019_Mar_11_1029	s	s	6	4	SIC	55	2_3	2	3	2	4	23_2_4	0	-1	1	0	0.604387998581	-501.0	-372.0	-495.0	-370.0	1
3.0.1	2019_Mar_11_1029	s	s	6	4	SIC	56	4_2	4	2	1	3	23_1_3	3	1	1	0	0.378628969193	383.0	-392.0	383.0	-391.0	1
3.0.1	2019_Mar_11_1029	s	s	6	4	SIC	57	2_4	2	4	1	2	23_1_2	-1	2	1	0	0.628653049469	25.0	-382.0	25.0	-384.0	1
3.0.1	2019_Mar_11_1029	s	s	6	4	SIC	58	ABS	0	0	1	4	24_1_4	NA	NA	0	1	2.57526993752	None	None	None	None	1
3.0.1	2019_Mar_11_1029	s	s	6	4	SIC	59	3_1	3	1	4	4	23_4_4	-1	3	1	0	0.42268705368	-226.0	-180.0	-224.0	-176.0	1
3.0.1	2019_Mar_11_1029	s	s	6	4	SIC	60	4_4	4	4	4	2	23_4_2	0	2	1	0	0.427824020386	-138.0	141.0	-130.0	138.0	1
3.0.1	2019_Mar_11_1029	s	s	6	4	SIC	61	4_1	4	1	4	2	23_4_2	0	1	1	0	2.68678808212	-152.0	390.0	-145.0	395.0	1
3.0.1	2019_Mar_11_1029	s	s	6	4	SIC	62	ABS	0	0	3	3	24_3_3	NA	NA	0	1	2.84589219093	None	None	None	None	1
3.0.1	2019_Mar_11_1029	s	s	6	4	SIC	63	ABS	0	0	4	1	24_4_1	NA	NA	0	1	1.90758109093	None	None	None	None	1
3.0.1	2019_Mar_11_1029	s	s	6	4	SIC	64	ABS	0	0	4	1	24_4_1	NA	NA	0	1	1.68694400787	None	None	None	None	1
3.0.1	2019_Mar_11_1029	s	s	6	4	SIC	65	3_4	3	4	1	4	23_1_4	2	0	1	0	0.54553103447	-514.0	314.0	-516.0	306.0	1
3.0.1	2019_Mar_11_1029	s	s	6	4	SIC	66	ABS	0	0	4	4	24_4_4	NA	NA	0	1	1.63411998749	None	None	None	None	1
3.0.1	2019_Mar_11_1029	s	s	6	4	SIC	67	2_1	2	1	3	2	23_3_2	1	1	1	0	0.443488121033	-122.0	-12.0	-126.0	-21.0	1
3.0.1	2019_Mar_11_1029	s	s	6	4	SIC	68	3_3	3	3	3	4	23_3_4	0	-1	1	0	0.501296043396	198.0	-221.0	206.0	-218.0	1
3.0.1	2019_Mar_11_1029	s	s	6	4	SIC	69	ABS	0	0	1	4	24_1_4	NA	NA	0	1	1.93987393379	None	None	None	None	1
3.0.1	2019_Mar_11_1029	s	s	6	4	SIC	70	1_4	1	4	2	3	23_2_3	1	1	1	0	0.458014965057	182.0	117.0	178.0	118.0	1
3.0.1	2019_Mar_11_1029	s	s	6	4	SIC	71	ABS	0	0	1	3	24_1_3	NA	NA	0	1	3.35611891747	None	None	None	None	1
3.0.1	2019_Mar_11_1029	s	s	6	4	SIC	72	ABS	0	0	1	2	24_1_2	NA	NA	0	1	2.73829388618	None	None	None	None	1
3.0.1	2019_Mar_11_1029	s	s	6	4	SIC	73	3_3	3	3	4	4	23_4_4	-1	-1	1	0	0.45805811882	162.0	225.0	159.0	226.0	1
3.0.1	2019_Mar_11_1029	s	s	6	4	SIC	74	ABS	0	0	4	4	24_4_4	NA	NA	0	1	1.52230906487	None	None	None	None	1
3.0.1	2019_Mar_11_1029	s	s	6	4	SIC	75	ABS	0	0	3	2	24_3_2	NA	NA	0	1	4.12746405602	None	None	None	None	1
3.0.1	2019_Mar_11_1029	s	s	6	4	SIC	76	2_2	2	2	4	3	23_4_3	2	1	1	0	0.357225179672	-413.0	257.0	-405.0	257.0	1
3.0.1	2019_Mar_11_1029	s	s	6	4	SIC	77	1_2	1	2	4	3	23_4_3	3	1	1	0	0.328695058823	264.0	64.0	268.0	60.0	1
3.0.1	2019_Mar_11_1029	s	s	6	4	SIC	78	ABS	0	0	2	3	24_2_3	NA	NA	0	1	3.53950810432	None	None	None	None	1
3.0.1	2019_Mar_11_1029	s	s	6	4	SIC	79	ABS	0	0	1	3	24_1_3	NA	NA	0	1	2.77492284775	None	None	None	None	1
3.0.1	2019_Mar_11_1029	s	s	6	4	SIC	80	2_2	2	2	2	1	23_2_1	0	-1	0	1	1.85761380196	-493.0	-24.0	None	None	0
3.0.1	2019_Mar_11_1029	s	s	6	4	SIC	81	2_4	2	4	4	3	23_4_3	2	1	1	0	0.383440971375	302.0	-269.0	300.0	-266.0	1
3.0.1	2019_Mar_11_1029	s	s	6	4	SIC	82	1_1	1	1	3	1	23_3_1	2	0	1	0	0.375699043274	-201.0	61.0	-196.0	62.0	1
3.0.1	2019_Mar_11_1029	s	s	6	4	SIC	83	ABS	0	0	1	1	24_1_1	NA	NA	0	1	2.26922106743	None	None	None	None	1
3.0.1	2019_Mar_11_1029	s	s	6	4	SIC	84	4_4	4	4	1	3	23_1_3	3	1	1	0	0.540446996689	454.0	-117.0	455.0	-121.0	1
3.0.1	2019_Mar_11_1029	s	s	6	4	SIC	85	ABS	0	0	1	3	24_1_3	NA	NA	0	1	2.82669687271	None	None	None	None	1
3.0.1	2019_Mar_11_1029	s	s	6	4	SIC	86	ABS	0	0	4	4	24_4_4	NA	NA	0	1	0.881507873535	None	None	None	None	1
3.0.1	2019_Mar_11_1029	s	s	6	4	SIC	87	ABS	0	0	4	3	24_4_3	NA	NA	0	1	2.35153388977	None	None	None	None	1
3.0.1	2019_Mar_11_1029	s	s	6	4	SIC	88	4_4	4	4	4	1	23_4_1	0	3	1	0	0.452080965042	-410.0	-11.0	-413.0	-22.0	1
3.0.1	2019_Mar_11_1029	s	s	6	4	SIC	89	2_3	2	3	3	2	23_3_2	1	1	1	0	0.437334060669	-504.0	11.0	-494.0	10.0	1
3.0.1	2019_Mar_11_1029	s	s	6	4	SIC	90	1_2	1	2	4	1	23_4_1	3	-1	0	1	0.392775058746	-366.0	346.0	None	None	0
3.0.1	2019_Mar_11_1029	s	s	6	4	SIC	91	ABS	0	0	4	1	24_4_1	NA	NA	0	1	1.86933398247	None	None	None	None	1
3.0.1	2019_Mar_11_1029	s	s	6	4	SIC	92	ABS	0	0	3	2	24_3_2	NA	NA	0	1	2.74564003944	None	None	None	None	1
3.0.1	2019_Mar_11_1029	s	s	6	4	SIC	93	1_4	1	4	4	4	23_4_4	3	0	1	0	0.328620910645	-531.0	-74.0	-529.0	-81.0	1
3.0.1	2019_Mar_11_1029	s	s	6	4	SIC	94	ABS	0	0	1	3	24_1_3	NA	NA	0	1	3.55405497551	None	None	None	None	1
3.0.1	2019_Mar_11_1029	s	s	6	4	SIC	95	2_2	2	2	1	1	23_1_1	-1	-1	1	0	1.20187687874	46.0	16.0	48.0	18.0	1
3.0.1	2019_Mar_11_1029	s	s	6	4	SIC	96	ABS	0	0	4	4	24_4_4	NA	NA	0	1	0.664530992508	None	None	None	None	1
3.0.1	2019_Mar_11_1029	s	s	6	4	SIC	97	ABS	0	0	3	4	24_3_4	NA	NA	0	1	1.35183405876	None	None	None	None	1
3.0.1	2019_Mar_11_1029	s	s	6	4	SIC	98	1_1	1	1	3	3	23_3_3	2	2	1	0	0.376111030579	101.0	22.0	89.0	24.0	1
3.0.1	2019_Mar_11_1029	s	s	6	4	SIC	99	ABS	0	0	3	2	24_3_2	NA	NA	0	1	3.27500700951	None	None	None	None	1
3.0.1	2019_Mar_11_1029	s	s	6	4	SIC	100	3_1	3	1	3	4	23_3_4	0	3	1	0	0.634407997131	-207.0	352.0	-204.0	351.0	1
3.0.1	2019_Mar_11_1029	s	s	6	4	SIC	101	ABS	0	0	2	2	24_2_2	NA	NA	0	1	2.96806907654	None	None	None	None	1
3.0.1	2019_Mar_11_1029	s	s	6	4	SIC	102	2_4	2	4	1	4	23_1_4	-1	0	1	0	4.13299202919	9.0	-307.0	-1.0	-308.0	1
3.0.1	2019_Mar_11_1029	s	s	6	4	SIC	103	ABS	0	0	4	2	24_4_2	NA	NA	0	1	3.42189288139	None	None	None	None	1
3.0.1	2019_Mar_11_1029	s	s	6	4	SIC	104	ABS	0	0	4	3	24_4_3	NA	NA	0	1	3.01319718361	None	None	None	None	1
3.0.1	2019_Mar_11_1029	s	s	6	4	SIC	105	ABS	0	0	3	4	24_3_4	NA	NA	0	1	1.86385512352	None	None	None	None	1
3.0.1	2019_Mar_11_1029	s	s	6	4	SIC	106	ABS	0	0	3	3	24_3_3	NA	NA	0	1	3.75108194351	None	None	None	None	1
3.0.1	2019_Mar_11_1029	s	s	6	4	SIC	107	ABS	0	0	4	2	24_4_2	NA	NA	0	1	3.53947496414	None	None	None	None	1
3.0.1	2019_Mar_11_1029	s	s	6	4	SIC	108	4_3	4	3	3	2	23_3_2	1	1	1	0	0.446206092834	-401.0	183.0	-397.0	178.0	1
3.0.1	2019_Mar_11_1029	s	s	6	4	SIC	109	ABS	0	0	3	1	24_3_1	NA	NA	0	1	1.81058096886	None	None	None	None	1
3.0.1	2019_Mar_11_1029	s	s	6	4	SIC	110	2_3	2	3	4	2	23_4_2	2	1	1	0	0.469736099243	267.0	-19.0	275.0	-18.0	1
3.0.1	2019_Mar_11_1029	s	s	6	4	SIC	111	4_3	4	3	1	1	23_1_1	3	2	1	0	0.404341936111	-157.0	288.0	-156.0	290.0	1
3.0.1	2019_Mar_11_1029	s	s	6	4	SIC	112	ABS	0	0	1	4	24_1_4	NA	NA	0	1	1.97224807739	None	None	None	None	1
3.0.1	2019_Mar_11_1029	s	s	6	4	SIC	113	1_1	1	1	4	2	23_4_2	3	1	1	0	0.491925001144	504.0	-20.0	499.0	-22.0	1
3.0.1	2019_Mar_11_1029	s	s	6	4	SIC	114	ABS	0	0	1	1	24_1_1	NA	NA	0	1	2.10496997833	None	None	None	None	1
3.0.1	2019_Mar_11_1029	s	s	6	4	SIC	115	ABS	0	0	3	2	24_3_2	NA	NA	0	1	3.95401906967	None	None	None	None	1
3.0.1	2019_Mar_11_1029	s	s	6	4	SIC	116	ABS	0	0	1	3	24_1_3	NA	NA	0	1	2.93076896667	None	None	None	None	1
3.0.1	2019_Mar_11_1029	s	s	6	4	SIC	117	4_2	4	2	4	1	23_4_1	0	-1	0	1	1.37833094597	-334.0	120.0	None	None	0
3.0.1	2019_Mar_11_1029	s	s	6	4	SIC	118	ABS	0	0	4	2	24_4_2	NA	NA	0	1	2.63377404213	None	None	None	None	1
3.0.1	2019_Mar_11_1029	s	s	6	4	SIC	119	4_2	4	2	4	4	23_4_4	0	2	1	0	0.516802072525	174.0	-191.0	174.0	-190.0	1
3.0.1	2019_Mar_11_1029	s	s	6	4	SIC	120	1_1	1	1	1	2	23_1_2	0	1	1	0	1.46401810646	484.0	-338.0	485.0	-349.0	1
3.0.1	2019_Mar_11_1029	s	s	6	4	SIC	121	ABS	0	0	2	4	24_2_4	NA	NA	0	1	2.86902713776	None	None	None	None	1
3.0.1	2019_Mar_11_1029	s	s	6	4	SIC	122	ABS	0	0	1	2	24_1_2	NA	NA	0	1	3.78931903839	None	None	None	None	1
3.0.1	2019_Mar_11_1029	s	s	6	4	SIC	123	2_1	2	1	1	2	23_1_2	-1	1	1	0	1.1682870388	52.0	105.0	57.0	95.0	1
3.0.1	2019_Mar_11_1029	s	s	6	4	SIC	124	1_2	1	2	1	4	23_1_4	0	2	1	0	0.834402084351	92.0	56.0	97.0	60.0	1
3.0.1	2019_Mar_11_1029	s	s	6	4	SIC	125	4_4	4	4	1	4	23_1_4	3	0	1	0	0.36386013031	209.0	53.0	211.0	52.0	1
3.0.1	2019_Mar_11_1029	s	s	6	4	SIC	126	4_1	4	1	4	4	23_4_4	0	3	1	0	0.628024101257	-420.0	-397.0	-421.0	-398.0	1
3.0.1	2019_Mar_11_1029	s	s	6	4	SIC	127	ABS	0	0	1	4	24_1_4	NA	NA	0	1	1.86976504326	None	None	None	None	1
3.0.1	2019_Mar_11_1029	s	s	6	4	SIC	128	4_2	4	2	3	3	23_3_3	1	1	1	0	0.378597021103	147.0	303.0	152.0	301.0	1
3.0.1	2019_Mar_11_1029	s	s	6	4	SIC	129	3_1	3	1	4	3	23_4_3	-1	2	1	0	0.510643959045	151.0	245.0	155.0	239.0	1
3.0.1	2019_Mar_11_1029	s	s	6	4	SIC	130	ABS	0	0	2	1	24_2_1	NA	NA	0	1	2.99842905998	None	None	None	None	1
3.0.1	2019_Mar_11_1029	s	s	6	4	SIC	131	ABS	0	0	4	1	24_4_1	NA	NA	0	1	1.10488700867	None	None	None	None	1
3.0.1	2019_Mar_11_1029	s	s	6	4	SIC	132	3_2	3	2	1	3	23_1_3	2	1	1	0	0.560791969299	518.0	245.0	509.0	243.0	1
3.0.1	2019_Mar_11_1029	s	s	6	4	SIC	133	ABS	0	0	4	2	24_4_2	NA	NA	0	1	2.37896513939	None	None	None	None	1
3.0.1	2019_Mar_11_1029	s	s	6	4	SIC	134	2_4	2	4	4	1	23_4_1	2	3	1	0	0.422652006149	-58.0	214.0	-50.0	213.0	1
3.0.1	2019_Mar_11_1029	s	s	6	4	SIC	135	ABS	0	0	1	1	24_1_1	NA	NA	0	1	4.31575512886	None	None	None	None	1
3.0.1	2019_Mar_11_1029	s	s	6	4	SIC	136	ABS	0	0	1	1	24_1_1	NA	NA	0	1	2.7801759243	None	None	None	None	1
3.0.1	2019_Mar_11_1029	s	s	6	4	SIC	137	ABS	0	0	1	2	24_1_2	NA	NA	0	1	4.91554498672	None	None	None	None	1
3.0.1	2019_Mar_11_1029	s	s	6	4	SIC	138	ABS	0	0	3	3	24_3_3	NA	NA	0	1	3.17484903336	None	None	None	None	1
3.0.1	2019_Mar_11_1029	s	s	6	4	SIC	139	3_3	3	3	2	3	23_2_3	1	0	1	0	0.696866989136	-26.0	288.0	-22.0	289.0	1
3.0.1	2019_Mar_11_1029	s	s	6	4	SIC	140	3_1	3	1	2	4	23_2_4	1	3	1	0	0.387409925461	259.0	186.0	249.0	191.0	1
3.0.1	2019_Mar_11_1029	s	s	6	4	SIC	141	ABS	0	0	1	4	24_1_4	NA	NA	0	1	1.77818703651	None	None	None	None	1
3.0.1	2019_Mar_11_1029	s	s	6	4	SIC	142	3_2	3	2	1	2	23_1_2	2	0	1	0	0.429356813431	-327.0	296.0	-327.0	287.0	1
3.0.1	2019_Mar_11_1029	s	s	6	4	SIC	143	ABS	0	0	2	4	24_2_4	NA	NA	0	1	1.90462207794	None	None	None	None	1
3.0.1	2019_Mar_11_1029	s	s	6	4	SIC	144	ABS	0	0	2	1	24_2_1	NA	NA	0	1	1.79881906509	None	None	None	None	1
3.0.1	2019_Mar_11_1029	s	s	6	4	SIC	145	3_1	3	1	1	4	23_1_4	2	3	1	0	0.442898988724	508.0	-258.0	502.0	-261.0	1
3.0.1	2019_Mar_11_1029	s	s	6	4	SIC	146	1_2	1	2	2	2	23_2_2	1	0	1	0	1.39240288734	-308.0	-57.0	-309.0	-58.0	1
3.0.1	2019_Mar_11_1029	s	s	6	4	SIC	147	1_4	1	4	2	2	23_2_2	1	2	1	0	0.43741607666	-230.0	79.0	-240.0	77.0	1
3.0.1	2019_Mar_11_1029	s	s	6	4	SIC	148	2_2	2	2	3	1	23_3_1	1	-1	1	0	0.532897949219	-12.0	170.0	-15.0	173.0	1
3.0.1	2019_Mar_11_1029	s	s	6	4	SIC	149	3_4	3	4	4	4	23_4_4	-1	0	1	0	0.364058971405	-306.0	131.0	-302.0	129.0	1
3.0.1	2019_Mar_11_1029	s	s	6	4	SIC	150	ABS	0	0	1	2	24_1_2	NA	NA	0	1	4.17450904846	None	None	None	None	1
3.0.1	2019_Mar_11_1029	s	s	6	4	SIC	151	1_2	1	2	3	4	23_3_4	2	2	1	0	0.368923902512	-189.0	-14.0	-183.0	-17.0	1
3.0.1	2019_Mar_11_1029	s	s	6	4	SIC	152	ABS	0	0	3	1	24_3_1	NA	NA	0	1	1.7635550499	None	None	None	None	1
3.0.1	2019_Mar_11_1029	s	s	6	4	SIC	153	ABS	0	0	4	3	24_4_3	NA	NA	0	1	2.4973218441	None	None	None	None	1
3.0.1	2019_Mar_11_1029	s	s	6	4	SIC	154	ABS	0	0	2	4	24_2_4	NA	NA	0	1	2.43680810928	None	None	None	None	1
3.0.1	2019_Mar_11_1029	s	s	6	4	SIC	155	ABS	0	0	4	1	24_4_1	NA	NA	0	1	0.89827299118	None	None	None	None	1
3.0.1	2019_Mar_11_1029	s	s	6	4	SIC	156	ABS	0	0	1	2	24_1_2	NA	NA	0	1	3.4482460022	None	None	None	None	1
3.0.1	2019_Mar_11_1029	s	s	6	4	SIC	157	ABS	0	0	2	4	24_2_4	NA	NA	0	1	2.46917700768	None	None	None	None	1
3.0.1	2019_Mar_11_1029	s	s	6	4	SIC	158	4_4	4	4	3	2	23_3_2	1	2	1	0	0.540368080139	370.0	-357.0	376.0	-359.0	1
3.0.1	2019_Mar_11_1029	s	s	6	4	SIC	159	3_4	3	4	4	2	23_4_2	-1	2	1	0	0.460731983185	114.0	45.0	116.0	48.0	1
3.0.1	2019_Mar_11_1029	s	s	6	4	SIC	160	2_1	2	1	4	3	23_4_3	2	2	1	0	0.437354803085	242.0	-312.0	247.0	-315.0	1
3.0.1	2019_Mar_11_1029	s	s	6	4	SIC	161	1_3	1	3	2	4	23_2_4	1	-1	1	0	0.563889026642	391.0	-269.0	384.0	-274.0	1
3.0.1	2019_Mar_11_1029	s	s	6	4	SIC	162	ABS	0	0	2	4	24_2_4	NA	NA	0	1	1.95170712471	None	None	None	None	1
3.0.1	2019_Mar_11_1029	s	s	6	4	SIC	163	4_1	4	1	3	2	23_3_2	1	1	1	0	0.399194002151	150.0	-20.0	152.0	-20.0	1
3.0.1	2019_Mar_11_1029	s	s	6	4	SIC	164	ABS	0	0	4	4	24_4_4	NA	NA	0	1	0.881396055222	None	None	None	None	1
3.0.1	2019_Mar_11_1029	s	s	6	4	SIC	165	ABS	0	0	3	4	24_3_4	NA	NA	0	1	1.01076412201	None	None	None	None	1
3.0.1	2019_Mar_11_1029	s	s	6	4	SIC	166	ABS	0	0	1	3	24_1_3	NA	NA	0	1	2.85746407509	None	None	None	None	1
3.0.1	2019_Mar_11_1029	s	s	6	4	SIC	167	2_1	2	1	4	2	23_4_2	2	1	1	0	0.521713972092	33.0	183.0	34.0	178.0	1
3.0.1	2019_Mar_11_1029	s	s	6	4	SIC	168	3_4	3	4	2	3	23_2_3	1	1	1	0	0.416662931442	159.0	-132.0	164.0	-137.0	1
3.0.1	2019_Mar_11_1029	s	s	6	4	SIC	169	2_3	2	3	3	4	23_3_4	1	-1	1	0	0.481554031372	500.0	-298.0	504.0	-304.0	1
3.0.1	2019_Mar_11_1029	s	s	6	4	SIC	170	ABS	0	0	2	4	24_2_4	NA	NA	0	1	2.05155706406	None	None	None	None	1
3.0.1	2019_Mar_11_1029	s	s	6	4	SIC	171	4_3	4	3	2	1	23_2_1	2	2	1	0	0.352146863937	-149.0	145.0	-154.0	153.0	1
3.0.1	2019_Mar_11_1029	s	s	6	4	SIC	172	2_2	2	2	2	3	23_2_3	0	1	1	0	1.443349123	-321.0	342.0	-323.0	349.0	1
3.0.1	2019_Mar_11_1029	s	s	6	4	SIC	173	ABS	0	0	2	2	24_2_2	NA	NA	0	1	3.13307595253	None	None	None	None	1
3.0.1	2019_Mar_11_1029	s	s	6	4	SIC	174	ABS	0	0	4	1	24_4_1	NA	NA	0	1	1.12193703651	None	None	None	None	1
3.0.1	2019_Mar_11_1029	s	s	6	4	SIC	175	ABS	0	0	2	4	24_2_4	NA	NA	0	1	2.02756285667	None	None	None	None	1
3.0.1	2019_Mar_11_1029	s	s	6	4	SIC	176	ABS	0	0	1	2	24_1_2	NA	NA	0	1	4.22521305084	None	None	None	None	1
3.0.1	2019_Mar_11_1029	s	s	6	4	SIC	177	3_2	3	2	4	1	23_4_1	-1	-1	1	0	0.415589094162	401.0	103.0	408.0	100.0	1
3.0.1	2019_Mar_11_1029	s	s	6	4	SIC	178	ABS	0	0	4	3	24_4_3	NA	NA	0	1	3.46880507469	None	None	None	None	1
3.0.1	2019_Mar_11_1029	s	s	6	4	SIC	179	1_4	1	4	3	1	23_3_1	2	3	1	0	0.496345043182	-162.0	-396.0	-155.0	-396.0	1
3.0.1	2019_Mar_11_1029	s	s	6	4	SIC	180	ABS	0	0	4	1	24_4_1	NA	NA	0	1	1.79881310463	None	None	None	None	1
3.0.1	2019_Mar_11_1029	s	s	6	4	SIC	181	ABS	0	0	4	2	24_4_2	NA	NA	0	1	4.21372294426	None	None	None	None	1
3.0.1	2019_Mar_11_1029	s	s	6	4	SIC	182	ABS	0	0	4	3	24_4_3	NA	NA	0	1	2.50917696953	None	None	None	None	1
3.0.1	2019_Mar_11_1029	s	s	6	4	SIC	183	ABS	0	0	4	1	24_4_1	NA	NA	0	1	1.82604718208	None	None	None	None	1
3.0.1	2019_Mar_11_1029	s	s	6	4	SIC	184	ABS	0	0	3	1	24_3_1	NA	NA	0	1	2.05754995346	None	None	None	None	1
3.0.1	2019_Mar_11_1029	s	s	6	4	SIC	185	2_4	2	4	4	4	23_4_4	2	0	1	0	0.378623008728	-475.0	-62.0	-476.0	-70.0	1
3.0.1	2019_Mar_11_1029	s	s	6	4	SIC	186	2_1	2	1	2	4	23_2_4	0	3	1	0	0.387814044952	-129.0	136.0	-131.0	130.0	1
3.0.1	2019_Mar_11_1029	s	s	6	4	SIC	187	ABS	0	0	1	4	24_1_4	NA	NA	0	1	1.5556910038	None	None	None	None	1
3.0.1	2019_Mar_11_1029	s	s	6	4	SIC	188	ABS	0	0	2	1	24_2_1	NA	NA	0	1	1.78235411644	None	None	None	None	1
3.0.1	2019_Mar_11_1029	s	s	6	4	SIC	189	ABS	0	0	2	3	24_2_3	NA	NA	0	1	3.39098191261	None	None	None	None	1
3.0.1	2019_Mar_11_1029	s	s	6	4	SIC	190	ABS	0	0	2	3	24_2_3	NA	NA	0	1	3.13075399399	None	None	None	None	1
3.0.1	2019_Mar_11_1029	s	s	6	4	SIC	191	3_3	3	3	1	2	23_1_2	2	1	1	0	0.545068025589	287.0	-225.0	291.0	-222.0	1
3.0.1	2019_Mar_11_1029	s	s	6	4	SIC	192	1_4	1	4	4	2	23_4_2	3	2	1	0	0.410968065262	-521.0	-168.0	-525.0	-164.0	1
3.0.1	2019_Mar_11_1029	s	s	6	4	SIC	193	ABS	0	0	2	3	24_2_3	NA	NA	0	1	2.27568411827	None	None	None	None	1
3.0.1	2019_Mar_11_1029	s	s	6	4	SIC	194	ABS	0	0	1	1	24_1_1	NA	NA	0	1	3.17968297005	None	None	None	None	1
3.0.1	2019_Mar_11_1029	s	s	6	4	SIC	195	ABS	0	0	1	4	24_1_4	NA	NA	0	1	2.05056595802	None	None	None	None	1
3.0.1	2019_Mar_11_1029	s	s	6	4	SIC	196	ABS	0	0	2	1	24_2_1	NA	NA	0	1	2.26038503647	None	None	None	None	1
3.0.1	2019_Mar_11_1029	s	s	6	4	SIC	197	ABS	0	0	2	4	24_2_4	NA	NA	0	1	2.33977007866	None	None	None	None	1
3.0.1	2019_Mar_11_1029	s	s	6	4	SIC	198	ABS	0	0	4	2	24_4_2	NA	NA	0	1	4.02547812462	None	None	None	None	1
3.0.1	2019_Mar_11_1029	s	s	6	4	SIC	199	ABS	0	0	4	4	24_4_4	NA	NA	0	1	2.08394789696	None	None	None	None	1
3.0.1	2019_Mar_11_1029	s	s	6	4	SIC	200	ABS	0	0	3	4	24_3_4	NA	NA	0	1	2.68634295464	None	None	None	None	1
3.0.1	2019_Mar_11_1029	s	s	6	4	SIC	201	ABS	0	0	2	1	24_2_1	NA	NA	0	1	2.79414606094	None	None	None	None	1
3.0.1	2019_Mar_11_1029	s	s	6	4	SIC	202	ABS	0	0	2	3	24_2_3	NA	NA	0	1	3.68060398102	None	None	None	None	1
3.0.1	2019_Mar_11_1029	s	s	6	4	SIC	203	2_4	2	4	4	2	23_4_2	2	2	1	0	0.493361949921	415.0	-276.0	425.0	-275.0	1
3.0.1	2019_Mar_11_1029	s	s	6	4	SIC	204	ABS	0	0	3	3	24_3_3	NA	NA	0	1	2.77506899834	None	None	None	None	1
3.0.1	2019_Mar_11_1029	s	s	6	4	SIC	205	1_3	1	3	1	1	23_1_1	0	2	1	0	0.752056837082	278.0	-59.0	273.0	-58.0	1
3.0.1	2019_Mar_11_1029	s	s	6	4	SIC	206	ABS	0	0	1	2	24_1_2	NA	NA	0	1	4.62655997276	None	None	None	None	1
3.0.1	2019_Mar_11_1029	s	s	6	4	SIC	207	ABS	0	0	3	4	24_3_4	NA	NA	0	1	1.31659197807	None	None	None	None	1
3.0.1	2019_Mar_11_1029	s	s	6	4	SIC	208	1_3	1	3	3	2	23_3_2	2	1	1	0	0.457972049713	-360.0	17.0	-360.0	15.0	1
3.0.1	2019_Mar_11_1029	s	s	6	4	SIC	209	ABS	0	0	3	3	24_3_3	NA	NA	0	1	2.88582611084	None	None	None	None	1
3.0.1	2019_Mar_11_1029	s	s	6	4	SIC	210	2_1	2	1	1	4	23_1_4	-1	3	1	0	0.532763004303	388.0	-331.0	388.0	-322.0	1
3.0.1	2019_Mar_11_1029	s	s	6	4	SIC	211	ABS	0	0	3	2	24_3_2	NA	NA	0	1	4.41466283798	None	None	None	None	1
3.0.1	2019_Mar_11_1029	s	s	6	4	SIC	212	3_2	3	2	3	4	23_3_4	0	2	1	0	0.474759101868	-188.0	-400.0	-184.0	-398.0	1
3.0.1	2019_Mar_11_1029	s	s	6	4	SIC	213	ABS	0	0	3	3	24_3_3	NA	NA	0	1	3.13962697983	None	None	None	None	1
3.0.1	2019_Mar_11_1029	s	s	6	4	SIC	214	3_2	3	2	2	3	23_2_3	1	1	1	0	0.622766971588	213.0	227.0	205.0	223.0	1
3.0.1	2019_Mar_11_1029	s	s	6	4	SIC	215	ABS	0	0	2	3	24_2_3	NA	NA	0	1	3.70408296585	None	None	None	None	1
3.0.1	2019_Mar_11_1029	s	s	6	4	SIC	216	ABS	0	0	2	1	24_2_1	NA	NA	0	1	2.33974099159	None	None	None	None	1
3.0.1	2019_Mar_11_1029	s	s	6	4	SIC	217	3_3	3	3	2	4	23_2_4	1	-1	1	0	0.469793796539	-327.0	-146.0	-317.0	-146.0	1
3.0.1	2019_Mar_11_1029	s	s	6	4	SIC	218	ABS	0	0	3	3	24_3_3	NA	NA	0	1	3.30992817879	None	None	None	None	1
3.0.1	2019_Mar_11_1029	s	s	6	4	SIC	219	ABS	0	0	2	2	24_2_2	NA	NA	0	1	2.90907788277	None	None	None	None	1
3.0.1	2019_Mar_11_1029	s	s	6	4	SIC	220	1_2	1	2	3	2	23_3_2	2	0	1	0	0.496185064316	-91.0	34.0	-93.0	38.0	1
3.0.1	2019_Mar_11_1029	s	s	6	4	SIC	221	ABS	0	0	4	4	24_4_4	NA	NA	0	1	1.49015593529	None	None	None	None	1
3.0.1	2019_Mar_11_1029	s	s	6	4	SIC	222	1_3	1	3	3	1	23_3_1	2	2	1	0	0.481554985046	-240.0	306.0	-232.0	303.0	1
3.0.1	2019_Mar_11_1029	s	s	6	4	SIC	223	ABS	0	0	2	1	24_2_1	NA	NA	0	1	2.17512512207	None	None	None	None	1
3.0.1	2019_Mar_11_1029	s	s	6	4	SIC	224	ABS	0	0	1	4	24_1_4	NA	NA	0	1	2.54499816895	None	None	None	None	1
3.0.1	2019_Mar_11_1029	s	s	6	4	SIC	225	3_3	3	3	1	3	23_1_3	2	0	1	0	0.469763040543	76.0	-79.0	75.0	-83.0	1
3.0.1	2019_Mar_11_1029	s	s	6	4	SIC	226	4_4	4	4	3	4	23_3_4	1	0	1	0	0.429408073425	288.0	396.0	284.0	385.0	1
3.0.1	2019_Mar_11_1029	s	s	6	4	SIC	227	ABS	0	0	1	4	24_1_4	NA	NA	0	1	2.28102898598	None	None	None	None	1
3.0.1	2019_Mar_11_1029	s	s	6	4	SIC	228	4_2	4	2	2	3	23_2_3	2	1	1	0	0.378577947617	-425.0	269.0	-429.0	263.0	1
3.0.1	2019_Mar_11_1029	s	s	6	4	SIC	229	4_2	4	2	2	4	23_2_4	2	2	1	0	0.392757892609	187.0	212.0	200.0	216.0	1
3.0.1	2019_Mar_11_1029	s	s	6	4	SIC	230	ABS	0	0	3	1	24_3_1	NA	NA	0	1	1.29812717438	None	None	None	None	1
3.0.1	2019_Mar_11_1029	s	s	6	4	SIC	231	3_3	3	3	1	4	23_1_4	2	-1	1	0	0.404135942459	58.0	206.0	63.0	201.0	1
3.0.1	2019_Mar_11_1029	s	s	6	4	SIC	232	ABS	0	0	3	2	24_3_2	NA	NA	0	1	3.05714893341	None	None	None	None	1
3.0.1	2019_Mar_11_1029	s	s	6	4	SIC	233	ABS	0	0	3	3	24_3_3	NA	NA	0	1	3.95151996613	None	None	None	None	1
3.0.1	2019_Mar_11_1029	s	s	6	4	SIC	234	3_4	3	4	1	3	23_1_3	2	1	1	0	0.481652021408	-311.0	-314.0	-312.0	-321.0	1
3.0.1	2019_Mar_11_1029	s	s	6	4	SIC	235	3_1	3	1	2	3	23_2_3	1	2	1	0	0.446143865585	-498.0	-97.0	-507.0	-95.0	1
3.0.1	2019_Mar_11_1029	s	s	6	4	SIC	236	ABS	0	0	3	1	24_3_1	NA	NA	0	1	1.26634597778	None	None	None	None	1
3.0.1	2019_Mar_11_1029	s	s	6	4	SIC	237	ABS	0	0	3	4	24_3_4	NA	NA	0	1	1.48124098778	None	None	None	None	1
3.0.1	2019_Mar_11_1029	s	s	6	4	SIC	238	ABS	0	0	4	2	24_4_2	NA	NA	0	1	3.10421895981	None	None	None	None	1
3.0.1	2019_Mar_11_1029	s	s	6	4	SIC	239	ABS	0	0	4	4	24_4_4	NA	NA	0	1	1.50247120857	None	None	None	None	1
3.0.1	2019_Mar_11_1029	s	s	6	4	SIC	240	ABS	0	0	3	3	24_3_3	NA	NA	0	1	2.9395968914	None	None	None	None	1
3.0.1	2019_Mar_11_1029	s	s	6	4	SIC	241	ABS	0	0	1	1	24_1_1	NA	NA	0	1	2.23395705223	None	None	None	None	1
3.0.1	2019_Mar_11_1029	s	s	6	4	SIC	242	1_2	1	2	3	3	23_3_3	2	1	1	0	0.451864957809	162.0	-200.0	159.0	-197.0	1
3.0.1	2019_Mar_11_1029	s	s	6	4	SIC	243	ABS	0	0	3	3	24_3_3	NA	NA	0	1	2.64964795113	None	None	None	None	1
3.0.1	2019_Mar_11_1029	s	s	6	4	SIC	244	2_1	2	1	1	1	23_1_1	-1	0	0	1	2.20150184631	410.0	-348.0	None	None	0
3.0.1	2019_Mar_11_1029	s	s	6	4	SIC	245	1_2	1	2	1	1	23_1_1	0	-1	1	0	1.28135991096	-157.0	356.0	-159.0	349.0	1
3.0.1	2019_Mar_11_1029	s	s	6	4	SIC	246	4_3	4	3	3	4	23_3_4	1	-1	1	0	0.410976886749	251.0	97.0	252.0	86.0	1
3.0.1	2019_Mar_11_1029	s	s	6	4	SIC	247	4_3	4	3	1	2	23_1_2	3	1	1	0	0.357302904129	-81.0	397.0	-84.0	389.0	1
3.0.1	2019_Mar_11_1029	s	s	6	4	SIC	248	ABS	0	0	4	2	24_4_2	NA	NA	0	1	3.53938412666	None	None	None	None	1
3.0.1	2019_Mar_11_1029	s	s	6	4	SIC	249	2_2	2	2	4	2	23_4_2	2	0	1	0	0.399649143219	-358.0	-231.0	-354.0	-238.0	1
3.0.1	2019_Mar_11_1029	s	s	6	4	SIC	250	ABS	0	0	1	4	24_1_4	NA	NA	0	1	2.09603404999	None	None	None	None	1
3.0.1	2019_Mar_11_1029	s	s	6	4	SIC	251	1_1	1	1	2	4	23_2_4	1	3	1	0	0.672544956207	-375.0	0.0	-369.0	-3.0	1
3.0.1	2019_Mar_11_1029	s	s	6	4	SIC	252	4_4	4	4	3	1	23_3_1	1	3	1	0	0.356206178665	-338.0	-37.0	-336.0	-42.0	1
3.0.1	2019_Mar_11_1029	s	s	6	4	SIC	253	ABS	0	0	3	1	24_3_1	NA	NA	0	1	1.50475907326	None	None	None	None	1
3.0.1	2019_Mar_11_1029	s	s	6	4	SIC	254	ABS	0	0	2	2	24_2_2	NA	NA	0	1	3.44213819504	None	None	None	None	1
3.0.1	2019_Mar_11_1029	s	s	6	4	SIC	255	3_2	3	2	4	2	23_4_2	-1	0	1	0	0.442486047745	-149.0	-241.0	-150.0	-235.0	1
3.0.1	2019_Mar_11_1029	s	s	6	4	SIC	256	3_2	3	2	1	4	23_1_4	2	2	1	0	0.437437057495	-249.0	-271.0	-251.0	-275.0	1
3.0.1	2019_Mar_11_1029	s	s	6	4	SIC	257	4_2	4	2	2	2	23_2_2	2	0	1	0	0.378527879715	-493.0	2.0	-496.0	-5.0	1
3.0.1	2019_Mar_11_1029	s	s	6	4	SIC	258	ABS	0	0	2	3	24_2_3	NA	NA	0	1	3.48069310188	None	None	None	None	1
3.0.1	2019_Mar_11_1029	s	s	6	4	SIC	259	1_4	1	4	1	1	23_1_1	0	3	1	0	0.474682807922	266.0	218.0	259.0	212.0	1
3.0.1	2019_Mar_11_1029	s	s	6	4	SIC	260	ABS	0	0	3	3	24_3_3	NA	NA	0	1	3.11072707176	None	None	None	None	1
3.0.1	2019_Mar_11_1029	s	s	6	4	SIC	261	2_1	2	1	4	4	23_4_4	2	3	1	0	0.345577955246	-192.0	-55.0	-187.0	-60.0	1
3.0.1	2019_Mar_11_1029	s	s	6	4	SIC	262	2_2	2	2	3	3	23_3_3	1	1	1	0	0.516736984253	-521.0	225.0	-517.0	221.0	1
3.0.1	2019_Mar_11_1029	s	s	6	4	SIC	263	4_3	4	3	3	3	23_3_3	1	0	1	0	0.410943031311	-510.0	-49.0	-514.0	-62.0	1
3.0.1	2019_Mar_11_1029	s	s	6	4	SIC	264	ABS	0	0	1	4	24_1_4	NA	NA	0	1	1.96637201309	None	None	None	None	1
3.0.1	2019_Mar_11_1029	s	s	6	4	SIC	265	ABS	0	0	1	1	24_1_1	NA	NA	0	1	2.1549539566	None	None	None	None	1
3.0.1	2019_Mar_11_1029	s	s	6	4	SIC	266	3_4	3	4	1	2	23_1_2	2	2	1	0	0.511033058167	-4.0	-388.0	1.0	-394.0	1
3.0.1	2019_Mar_11_1029	s	s	6	4	SIC	267	3_1	3	1	2	2	23_2_2	1	1	1	0	0.481574058533	-176.0	-103.0	-175.0	-108.0	1
3.0.1	2019_Mar_11_1029	s	s	6	4	SIC	268	1_4	1	4	4	3	23_4_3	3	1	1	0	0.378569126129	403.0	-311.0	401.0	-309.0	1
3.0.1	2019_Mar_11_1029	s	s	6	4	SIC	269	4_1	4	1	1	3	23_1_3	3	2	1	0	0.335362911224	285.0	95.0	283.0	95.0	1
3.0.1	2019_Mar_11_1029	s	s	6	4	SIC	270	ABS	0	0	1	2	24_1_2	NA	NA	0	1	4.2802798748	None	None	None	None	1
3.0.1	2019_Mar_11_1029	s	s	6	4	SIC	271	ABS	0	0	3	4	24_3_4	NA	NA	0	1	1.57577300072	None	None	None	None	1
3.0.1	2019_Mar_11_1029	s	s	6	4	SIC	272	ABS	0	0	2	2	24_2_2	NA	NA	0	1	3.73053693771	None	None	None	None	1
3.0.1	2019_Mar_11_1029	s	s	6	4	SIC	273	1_1	1	1	4	3	23_4_3	3	2	1	0	0.378575086594	272.0	337.0	270.0	337.0	1
3.0.1	2019_Mar_11_1029	s	s	6	4	SIC	274	ABS	0	0	4	2	24_4_2	NA	NA	0	1	3.38650798798	None	None	None	None	1
3.0.1	2019_Mar_11_1029	s	s	6	4	SIC	275	ABS	0	0	2	2	24_2_2	NA	NA	0	1	4.59797596931	None	None	None	None	1
3.0.1	2019_Mar_11_1029	s	s	6	4	SIC	276	4_4	4	4	4	3	23_4_3	0	1	1	0	0.587344884872	-410.0	161.0	-417.0	154.0	1
3.0.1	2019_Mar_11_1029	s	s	6	4	SIC	277	3_2	3	2	1	1	23_1_1	2	-1	1	0	0.473987102509	-524.0	-219.0	-515.0	-219.0	1
3.0.1	2019_Mar_11_1029	s	s	6	4	SIC	278	ABS	0	0	1	3	24_1_3	NA	NA	0	1	3.01684617996	None	None	None	None	1
3.0.1	2019_Mar_11_1029	s	s	6	4	SIC	279	3_4	3	4	2	2	23_2_2	1	2	1	0	0.428833961487	208.0	-312.0	208.0	-304.0	1
3.0.1	2019_Mar_11_1029	s	s	6	4	SIC	280	ABS	0	0	2	1	24_2_1	NA	NA	0	1	2.59144902229	None	None	None	None	1
3.0.1	2019_Mar_11_1029	s	s	6	4	SIC	281	2_1	2	1	3	1	23_3_1	1	0	1	0	0.427952051163	-418.0	-70.0	-421.0	-75.0	1
3.0.1	2019_Mar_11_1029	s	s	6	4	SIC	282	4_4	4	4	1	2	23_1_2	3	2	1	0	0.399183988571	38.0	-407.0	45.0	-406.0	1
3.0.1	2019_Mar_11_1029	s	s	6	4	SIC	283	3_2	3	2	2	1	23_2_1	1	-1	1	0	0.437381982803	175.0	100.0	172.0	92.0	1
3.0.1	2019_Mar_11_1029	s	s	6	4	SIC	284	3_1	3	1	1	3	23_1_3	2	2	1	0	0.698567152023	-531.0	221.0	-528.0	222.0	1
3.0.1	2019_Mar_11_1029	s	s	6	4	SIC	285	ABS	0	0	3	2	24_3_2	NA	NA	0	1	3.16301512718	None	None	None	None	1
3.0.1	2019_Mar_11_1029	s	s	6	4	SIC	286	ABS	0	0	3	2	24_3_2	NA	NA	0	1	3.97108101845	None	None	None	None	1
3.0.1	2019_Mar_11_1029	s	s	6	4	SIC	287	2_1	2	1	2	3	23_2_3	0	2	1	0	0.607132196426	-154.0	148.0	-160.0	146.0	1
3.0.1	2019_Mar_11_1029	s	s	6	4	SIC	288	3_4	3	4	4	1	23_4_1	-1	3	1	0	0.41093993187	14.0	109.0	12.0	100.0	1
3.0.1	2019_Mar_11_1029	s	s	6	4	SIC	289	ABS	0	0	2	4	24_2_4	NA	NA	0	1	1.99305391312	None	None	None	None	1
3.0.1	2019_Mar_11_1029	s	s	6	4	SIC	290	1_1	1	1	1	4	23_1_4	0	3	1	0	0.488007068634	-385.0	263.0	-384.0	255.0	1
3.0.1	2019_Mar_11_1029	s	s	6	4	SIC	291	ABS	0	0	3	4	24_3_4	NA	NA	0	1	1.16364693642	None	None	None	None	1
3.0.1	2019_Mar_11_1029	s	s	6	4	SIC	292	ABS	0	0	4	1	24_4_1	NA	NA	0	1	1.82643795013	None	None	None	None	1
3.0.1	2019_Mar_11_1029	s	s	6	4	SIC	293	ABS	0	0	2	4	24_2_4	NA	NA	0	1	1.93989920616	None	None	None	None	1
3.0.1	2019_Mar_11_1029	s	s	6	4	SIC	294	1_1	1	1	2	3	23_2_3	1	2	1	0	1.6577038765	76.0	395.0	77.0	394.0	1
3.0.1	2019_Mar_11_1029	s	s	6	4	SIC	295	1_3	1	3	1	2	23_1_2	0	1	1	0	0.940232038498	198.0	-267.0	204.0	-260.0	1
3.0.1	2019_Mar_11_1029	s	s	6	4	SIC	296	ABS	0	0	1	3	24_1_3	NA	NA	0	1	2.63384413719	None	None	None	None	1
3.0.1	2019_Mar_11_1029	s	s	6	4	SIC	297	2_3	2	3	2	2	23_2_2	0	1	1	0	0.415884017944	-340.0	214.0	27.0	-8.0	0
3.0.1	2019_Mar_11_1029	s	s	6	4	SIC	298	ABS	0	0	4	3	24_4_3	NA	NA	0	1	2.70932388306	None	None	None	None	1
3.0.1	2019_Mar_11_1029	s	s	6	4	SIC	299	ABS	0	0	2	2	24_2_2	NA	NA	0	1	3.75112509727	None	None	None	None	1
3.0.1	2019_Mar_11_1029	s	s	6	4	SIC	300	1_4	1	4	2	1	23_2_1	1	3	1	0	0.528586149216	35.0	-340.0	41.0	-335.0	1
3.0.1	2019_Mar_11_1029	s	s	6	4	SIC	301	ABS	0	0	1	1	24_1_1	NA	NA	0	1	2.17555379868	None	None	None	None	1
3.0.1	2019_Mar_11_1029	s	s	6	4	SIC	302	4_1	4	1	3	4	23_3_4	1	3	1	0	0.505038976669	325.0	364.0	325.0	358.0	1
3.0.1	2019_Mar_11_1029	s	s	6	4	SIC	303	3_1	3	1	1	1	23_1_1	2	0	1	0	0.42734003067	-236.0	17.0	-235.0	15.0	1
3.0.1	2019_Mar_11_1029	s	s	6	4	SIC	304	4_2	4	2	3	1	23_3_1	1	-1	1	0	0.427913188934	-532.0	19.0	-528.0	17.0	1
3.0.1	2019_Mar_11_1029	s	s	6	4	SIC	305	4_4	4	4	3	3	23_3_3	1	1	1	0	0.356106042862	215.0	55.0	210.0	60.0	1
3.0.1	2019_Mar_11_1029	s	s	6	4	SIC	306	ABS	0	0	2	3	24_2_3	NA	NA	0	1	3.27440190315	None	None	None	None	1
3.0.1	2019_Mar_11_1029	s	s	6	4	SIC	307	3_1	3	1	4	2	23_4_2	-1	1	1	0	0.528625965118	302.0	59.0	307.0	58.0	1
3.0.1	2019_Mar_11_1029	s	s	6	4	SIC	308	2_1	2	1	3	4	23_3_4	1	3	1	0	0.509301900864	107.0	54.0	102.0	47.0	1
3.0.1	2019_Mar_11_1029	s	s	6	4	SIC	309	3_1	3	1	3	2	23_3_2	0	1	1	0	1.29293680191	-392.0	-343.0	-389.0	-340.0	1
3.0.1	2019_Mar_11_1029	s	s	6	4	SIC	310	4_2	4	2	1	1	23_1_1	3	-1	1	0	0.442877054214	45.0	59.0	42.0	58.0	1
3.0.1	2019_Mar_11_1029	s	s	6	4	SIC	311	ABS	0	0	3	2	24_3_2	NA	NA	0	1	3.68568181992	None	None	None	None	1
3.0.1	2019_Mar_11_1029	s	s	6	4	SIC	312	1_2	1	2	3	1	23_3_1	2	-1	1	0	0.501832008362	-150.0	201.0	-146.0	205.0	1
3.0.1	2019_Mar_11_1029	s	s	6	4	SIC	313	ABS	0	0	2	4	24_2_4	NA	NA	0	1	2.43678212166	None	None	None	None	1
3.0.1	2019_Mar_11_1029	s	s	6	4	SIC	314	4_3	4	3	2	3	23_2_3	2	0	1	0	0.384120941162	35.0	173.0	41.0	175.0	1
3.0.1	2019_Mar_11_1029	s	s	6	4	SIC	315	2_3	2	3	3	3	23_3_3	1	0	1	0	0.501337051392	428.0	158.0	424.0	152.0	1
3.0.1	2019_Mar_11_1029	s	s	6	4	SIC	316	3_1	3	1	3	3	23_3_3	0	2	1	0	0.617753982544	-125.0	72.0	-125.0	75.0	1
3.0.1	2019_Mar_11_1029	s	s	6	4	SIC	317	3_3	3	3	3	1	23_3_1	0	2	1	0	0.717181921005	-151.0	267.0	-143.0	268.0	1
3.0.1	2019_Mar_11_1029	s	s	6	4	SIC	318	ABS	0	0	2	3	24_2_3	NA	NA	0	1	2.43771100044	None	None	None	None	1
3.0.1	2019_Mar_11_1029	s	s	6	4	SIC	319	3_2	3	2	3	3	23_3_3	0	1	0	1	2.50780510902	21.0	251.0	None	None	0
3.0.1	2019_Mar_11_1029	s	s	6	4	SIC	320	ABS	0	0	4	3	24_4_3	NA	NA	0	1	3.38643693924	None	None	None	None	1
3.0.1	2019_Mar_11_1029	s	s	6	4	SIC	321	1_2	1	2	2	4	23_2_4	1	2	1	0	0.505141019821	-299.0	266.0	-293.0	268.0	1
3.0.1	2019_Mar_11_1029	s	s	6	4	SIC	322	3_3	3	3	4	3	23_4_3	-1	0	1	0	0.422767162323	75.0	-87.0	74.0	-92.0	1
3.0.1	2019_Mar_11_1029	s	s	6	4	SIC	323	4_2	4	2	1	2	23_1_2	3	0	1	0	0.364005088806	212.0	104.0	209.0	91.0	1
3.0.1	2019_Mar_11_1029	s	s	6	4	SIC	324	4_4	4	4	2	3	23_2_3	2	1	1	0	0.43735408783	-235.0	353.0	-237.0	355.0	1
3.0.1	2019_Mar_11_1029	s	s	6	4	SIC	325	ABS	0	0	4	4	24_4_4	NA	NA	0	1	2.0744740963	None	None	None	None	1
3.0.1	2019_Mar_11_1029	s	s	6	4	SIC	326	ABS	0	0	2	2	24_2_2	NA	NA	0	1	3.98641514778	None	None	None	None	1
3.0.1	2019_Mar_11_1029	s	s	6	4	SIC	327	ABS	0	0	1	1	24_1_1	NA	NA	0	1	2.17521500587	None	None	None	None	1
3.0.1	2019_Mar_11_1029	s	s	6	4	SIC	328	2_4	2	4	2	2	23_2_2	0	2	1	0	0.578768014908	-220.0	-186.0	-214.0	-192.0	1
3.0.1	2019_Mar_11_1029	s	s	6	4	SIC	329	2_2	2	2	3	4	23_3_4	1	2	1	0	0.392980098724	422.0	180.0	419.0	178.0	1
3.0.1	2019_Mar_11_1029	s	s	6	4	SIC	330	1_1	1	1	4	1	23_4_1	3	0	1	0	0.333758115768	69.0	-214.0	71.0	-210.0	1
3.0.1	2019_Mar_11_1029	s	s	6	4	SIC	331	ABS	0	0	3	4	24_3_4	NA	NA	0	1	1.53310894966	None	None	None	None	1
3.0.1	2019_Mar_11_1029	s	s	6	4	SIC	332	ABS	0	0	4	3	24_4_3	NA	NA	0	1	3.39840221405	None	None	None	None	1
3.0.1	2019_Mar_11_1029	s	s	6	4	SIC	333	ABS	0	0	4	3	24_4_3	NA	NA	0	1	3.07455611229	None	None	None	None	1
3.0.1	2019_Mar_11_1029	s	s	6	4	SIC	334	ABS	0	0	2	3	24_2_3	NA	NA	0	1	2.76733279228	None	None	None	None	1
3.0.1	2019_Mar_11_1029	s	s	6	4	SIC	335	4_4	4	4	2	4	23_2_4	2	0	1	0	0.422803878784	333.0	188.0	326.0	188.0	1
3.0.1	2019_Mar_11_1029	s	s	6	4	SIC	336	ABS	0	0	4	2	24_4_2	NA	NA	0	1	4.09876799583	None	None	None	None	1
3.0.1	2019_Mar_11_1029	s	s	6	4	SIC	337	ABS	0	0	3	1	24_3_1	NA	NA	0	1	1.99055790901	None	None	None	None	1
3.0.1	2019_Mar_11_1029	s	s	6	4	SIC	338	2_4	2	4	2	1	23_2_1	0	3	1	0	0.617979049683	527.0	25.0	520.0	32.0	1
3.0.1	2019_Mar_11_1029	s	s	6	4	SIC	339	ABS	0	0	1	1	24_1_1	NA	NA	0	1	2.90829610825	None	None	None	None	1
3.0.1	2019_Mar_11_1029	s	s	6	4	SIC	340	ABS	0	0	2	4	24_2_4	NA	NA	0	1	1.21083402634	None	None	None	None	1
3.0.1	2019_Mar_11_1029	s	s	6	4	SIC	341	ABS	0	0	1	3	24_1_3	NA	NA	0	1	3.82173204422	None	None	None	None	1
3.0.1	2019_Mar_11_1029	s	s	6	4	SIC	342	ABS	0	0	4	3	24_4_3	NA	NA	0	1	3.01557779312	None	None	None	None	1
3.0.1	2019_Mar_11_1029	s	s	6	4	SIC	343	2_2	2	2	1	2	23_1_2	-1	0	0	1	4.28037190437	232.0	381.0	None	None	0
3.0.1	2019_Mar_11_1029	s	s	6	4	SIC	344	1_2	1	2	4	2	23_4_2	3	0	1	0	0.425690889359	-465.0	228.0	-460.0	222.0	1
3.0.1	2019_Mar_11_1029	s	s	6	4	SIC	345	ABS	0	0	3	4	24_3_4	NA	NA	0	1	2.16337513924	None	None	None	None	1
3.0.1	2019_Mar_11_1029	s	s	6	4	SIC	346	1_4	1	4	3	2	23_3_2	2	2	1	0	0.443050861359	118.0	294.0	116.0	281.0	1
3.0.1	2019_Mar_11_1029	s	s	6	4	SIC	347	2_1	2	1	1	3	23_1_3	-1	2	1	0	1.22243905067	-83.0	-278.0	-84.0	-278.0	1
3.0.1	2019_Mar_11_1029	s	s	6	4	SIC	348	2_4	2	4	1	3	23_1_3	-1	1	1	0	0.496221065521	-540.0	-153.0	-542.0	-154.0	1
3.0.1	2019_Mar_11_1029	s	s	6	4	SIC	349	ABS	0	0	3	1	24_3_1	NA	NA	0	1	1.72181916237	None	None	None	None	1
3.0.1	2019_Mar_11_1029	s	s	6	4	SIC	350	ABS	0	0	2	2	24_2_2	NA	NA	0	1	3.33202910423	None	None	None	None	1
3.0.1	2019_Mar_11_1029	s	s	6	4	SIC	351	4_2	4	2	3	4	23_3_4	1	2	1	0	0.311607837677	-40.0	-161.0	-40.0	-171.0	1
3.0.1	2019_Mar_11_1029	s	s	6	4	SIC	352	3_2	3	2	2	4	23_2_4	1	2	1	0	0.416018009186	353.0	141.0	362.0	144.0	1
3.0.1	2019_Mar_11_1029	s	s	6	4	SIC	353	ABS	0	0	1	2	24_1_2	NA	NA	0	1	3.11603403091	None	None	None	None	1
3.0.1	2019_Mar_11_1029	s	s	6	4	SIC	354	ABS	0	0	4	2	24_4_2	NA	NA	0	1	3.65006399155	None	None	None	None	1
3.0.1	2019_Mar_11_1029	s	s	6	4	SIC	355	ABS	0	0	1	1	24_1_1	NA	NA	0	1	2.80524492264	None	None	None	None	1
3.0.1	2019_Mar_11_1029	s	s	6	4	SIC	356	3_2	3	2	4	3	23_4_3	-1	1	1	0	0.458069086075	44.0	-107.0	47.0	-112.0	1
3.0.1	2019_Mar_11_1029	s	s	6	4	SIC	357	ABS	0	0	4	1	24_4_1	NA	NA	0	1	1.95833706856	None	None	None	None	1
3.0.1	2019_Mar_11_1029	s	s	6	4	SIC	358	ABS	0	0	4	2	24_4_2	NA	NA	0	1	3.69231796265	None	None	None	None	1
3.0.1	2019_Mar_11_1029	s	s	6	4	SIC	359	ABS	0	0	4	3	24_4_3	NA	NA	0	1	2.55443382263	None	None	None	None	1
3.0.1	2019_Mar_11_1029	s	s	6	4	SIC	360	3_1	3	1	1	2	23_1_2	2	1	1	0	0.473704099655	-62.0	229.0	-54.0	226.0	1
3.0.1	2019_Mar_11_1029	s	s	6	4	SIC	361	3_2	3	2	4	4	23_4_4	-1	2	1	0	0.367681026459	163.0	-157.0	160.0	-159.0	1
3.0.1	2019_Mar_11_1029	s	s	6	4	SIC	362	1_3	1	3	4	2	23_4_2	3	1	1	0	0.340386867523	-133.0	297.0	-130.0	296.0	1
3.0.1	2019_Mar_11_1029	s	s	6	4	SIC	363	ABS	0	0	2	1	24_2_1	NA	NA	0	1	2.26647496223	None	None	None	None	1
3.0.1	2019_Mar_11_1029	s	s	6	4	SIC	364	ABS	0	0	4	1	24_4_1	NA	NA	0	1	1.82234191895	None	None	None	None	1
3.0.1	2019_Mar_11_1029	s	s	6	4	SIC	365	1_4	1	4	2	4	23_2_4	1	0	1	0	2.06934094429	-229.0	-108.0	-229.0	-104.0	1
3.0.1	2019_Mar_11_1029	s	s	6	4	SIC	366	ABS	0	0	2	3	24_2_3	NA	NA	0	1	3.69233107567	None	None	None	None	1
3.0.1	2019_Mar_11_1029	s	s	6	4	SIC	367	2_4	2	4	1	1	23_1_1	-1	3	1	0	0.510329008102	531.0	383.0	534.0	376.0	1
3.0.1	2019_Mar_11_1029	s	s	6	4	SIC	368	ABS	0	0	3	4	24_3_4	NA	NA	0	1	2.18974685669	None	None	None	None	1
3.0.1	2019_Mar_11_1029	s	s	6	4	SIC	369	1_4	1	4	1	3	23_1_3	0	1	1	0	0.775701999664	-276.0	389.0	-274.0	392.0	1
3.0.1	2019_Mar_11_1029	s	s	6	4	SIC	370	ABS	0	0	1	3	24_1_3	NA	NA	0	1	2.13481903076	None	None	None	None	1
3.0.1	2019_Mar_11_1029	s	s	6	4	SIC	371	ABS	0	0	4	4	24_4_4	NA	NA	0	1	1.32836794853	None	None	None	None	1
3.0.1	2019_Mar_11_1029	s	s	6	4	SIC	372	ABS	0	0	3	1	24_3_1	NA	NA	0	1	1.99201202393	None	None	None	None	1
3.0.1	2019_Mar_11_1029	s	s	6	4	SIC	373	ABS	0	0	4	4	24_4_4	NA	NA	0	1	1.21074795723	None	None	None	None	1
3.0.1	2019_Mar_11_1029	s	s	6	4	SIC	374	4_1	4	1	3	1	23_3_1	1	0	1	0	0.51683807373	-155.0	-229.0	-152.0	-230.0	1
3.0.1	2019_Mar_11_1029	s	s	6	4	SIC	375	1_4	1	4	4	1	23_4_1	3	3	1	0	0.533159017563	180.0	-31.0	183.0	-28.0	1
3.0.1	2019_Mar_11_1029	s	s	6	4	SIC	376	ABS	0	0	3	3	24_3_3	NA	NA	0	1	2.422134161	None	None	None	None	1
3.0.1	2019_Mar_11_1029	s	s	6	4	SIC	377	ABS	0	0	4	2	24_4_2	NA	NA	0	1	3.77956604958	None	None	None	None	1
3.0.1	2019_Mar_11_1029	s	s	6	4	SIC	378	2_4	2	4	3	1	23_3_1	1	3	1	0	0.410970926285	-145.0	-284.0	-138.0	-290.0	1
3.0.1	2019_Mar_11_1029	s	s	6	4	SIC	379	ABS	0	0	1	3	24_1_3	NA	NA	0	1	3.43750095367	None	None	None	None	1
3.0.1	2019_Mar_11_1029	s	s	6	4	SIC	380	ABS	0	0	3	2	24_3_2	NA	NA	0	1	4.13403987885	None	None	None	None	1
3.0.1	2019_Mar_11_1029	s	s	6	4	SIC	381	4_1	4	1	2	2	23_2_2	2	1	1	0	0.437377929688	515.0	-138.0	517.0	-144.0	1
3.0.1	2019_Mar_11_1029	s	s	6	4	SIC	382	2_3	2	3	4	3	23_4_3	2	0	1	0	0.363884925842	357.0	360.0	359.0	349.0	1
3.0.1	2019_Mar_11_1029	s	s	6	4	SIC	383	ABS	0	0	1	3	24_1_3	NA	NA	0	1	4.38653516769	None	None	None	None	1
3.0.1	2019_Mar_11_1029	s	s	6	4	SIC	384	2_3	2	3	1	1	23_1_1	-1	2	1	0	0.987322092056	77.0	112.0	84.0	114.0	1
3.0.1	2019_Mar_11_1029	s	s	6	4	SIC	385	4_3	4	3	1	3	23_1_3	3	0	1	0	0.493317127228	-190.0	339.0	-187.0	331.0	1
3.0.1	2019_Mar_11_1029	s	s	6	4	SIC	386	ABS	0	0	1	4	24_1_4	NA	NA	0	1	1.7987780571	None	None	None	None	1
3.0.1	2019_Mar_11_1029	s	s	6	4	SIC	387	4_1	4	1	4	3	23_4_3	0	2	1	0	0.540534973145	-26.0	184.0	-24.0	175.0	1
3.0.1	2019_Mar_11_1029	s	s	6	4	SIC	388	ABS	0	0	2	4	24_2_4	NA	NA	0	1	1.68626117706	None	None	None	None	1
3.0.1	2019_Mar_11_1029	s	s	6	4	SIC	389	ABS	0	0	4	3	24_4_3	NA	NA	0	1	3.47400593758	None	None	None	None	1
3.0.1	2019_Mar_11_1029	s	s	6	4	SIC	390	3_1	3	1	2	1	23_2_1	1	0	1	0	0.619340896606	-383.0	-361.0	-372.0	-361.0	1
3.0.1	2019_Mar_11_1029	s	s	6	4	SIC	391	3_4	3	4	2	4	23_2_4	1	0	1	0	0.999017000198	-320.0	325.0	-323.0	325.0	1
3.0.1	2019_Mar_11_1029	s	s	6	4	SIC	392	ABS	0	0	2	2	24_2_2	NA	NA	0	1	3.7040708065	None	None	None	None	1
3.0.1	2019_Mar_11_1029	s	s	6	4	SIC	393	ABS	0	0	4	3	24_4_3	NA	NA	0	1	2.79837989807	None	None	None	None	1
3.0.1	2019_Mar_11_1029	s	s	6	4	SIC	394	ABS	0	0	3	1	24_3_1	NA	NA	0	1	2.02521514893	None	None	None	None	1
3.0.1	2019_Mar_11_1029	s	s	6	4	SIC	395	4_1	4	1	2	4	23_2_4	2	3	1	0	0.363990068436	-465.0	149.0	-463.0	143.0	1
3.0.1	2019_Mar_11_1029	s	s	6	4	SIC	396	ABS	0	0	3	2	24_3_2	NA	NA	0	1	2.95134806633	None	None	None	None	1
3.0.1	2019_Mar_11_1029	s	s	6	4	SIC	397	ABS	0	0	3	4	24_3_4	NA	NA	0	1	2.037307024	None	None	None	None	1
3.0.1	2019_Mar_11_1029	s	s	6	4	SIC	398	ABS	0	0	3	2	24_3_2	NA	NA	0	1	3.53259515762	None	None	None	None	1
3.0.1	2019_Mar_11_1029	s	s	6	4	SIC	399	1_1	1	1	2	1	23_2_1	1	0	1	0	1.56353402138	-195.0	-52.0	-191.0	-55.0	1
3.0.1	2019_Mar_11_1029	s	s	6	4	SIC	400	1_1	1	1	3	2	23_3_2	2	1	1	0	0.422866821289	402.0	94.0	405.0	93.0	1
3.0.1	2019_Mar_11_1029	s	s	6	4	SIC	401	3_3	3	3	2	2	23_2_2	1	1	1	0	0.578778028488	-78.0	346.0	-75.0	349.0	1
3.0.1	2019_Mar_11_1029	s	s	6	4	SIC	402	ABS	0	0	3	1	24_3_1	NA	NA	0	1	1.88111305237	None	None	None	None	1
3.0.1	2019_Mar_11_1029	s	s	6	4	SIC	403	4_2	4	2	2	1	23_2_1	2	-1	1	0	0.399191856384	-507.0	217.0	-518.0	226.0	1
3.0.1	2019_Mar_11_1029	s	s	6	4	SIC	404	1_3	1	3	3	3	23_3_3	2	0	1	0	0.399178981781	-398.0	71.0	-392.0	70.0	1
3.0.1	2019_Mar_11_1029	s	s	6	4	SIC	405	ABS	0	0	3	4	24_3_4	NA	NA	0	1	1.78007006645	None	None	None	None	1
3.0.1	2019_Mar_11_1029	s	s	6	4	SIC	406	1_3	1	3	1	4	23_1_4	0	-1	1	0	0.498139858246	-269.0	122.0	-265.0	118.0	1
3.0.1	2019_Mar_11_1029	s	s	6	4	SIC	407	ABS	0	0	3	3	24_3_3	NA	NA	0	1	2.5681078434	None	None	None	None	1
3.0.1	2019_Mar_11_1029	s	s	6	4	SIC	408	2_2	2	2	2	4	23_2_4	0	2	1	0	0.442378044128	37.0	85.0	40.0	80.0	1
3.0.1	2019_Mar_11_1029	s	s	6	4	SIC	409	1_1	1	1	4	4	23_4_4	3	3	1	0	0.352169036865	119.0	384.0	107.0	391.0	1
3.0.1	2019_Mar_11_1029	s	s	6	4	SIC	410	4_3	4	3	3	1	23_3_1	1	2	1	0	0.340392112732	224.0	331.0	219.0	327.0	1
3.0.1	2019_Mar_11_1029	s	s	6	4	SIC	411	2_3	2	3	1	2	23_1_2	-1	1	1	0	3.20132493973	157.0	-144.0	153.0	-153.0	1
3.0.1	2019_Mar_11_1029	s	s	6	4	SIC	412	4_1	4	1	1	4	23_1_4	3	3	1	0	0.599149942398	64.0	-394.0	59.0	-390.0	1
3.0.1	2019_Mar_11_1029	s	s	6	4	SIC	413	4_3	4	3	4	4	23_4_4	0	-1	1	0	0.622699022293	-295.0	226.0	-294.0	224.0	1
3.0.1	2019_Mar_11_1029	s	s	6	4	SIC	414	1_2	1	2	4	4	23_4_4	3	2	1	0	0.352191925049	437.0	-162.0	439.0	-159.0	1
3.0.1	2019_Mar_11_1029	s	s	6	4	SIC	415	1_3	1	3	4	3	23_4_3	3	0	1	0	0.35716509819	-444.0	240.0	-441.0	249.0	1
3.0.1	2019_Mar_11_1029	s	s	6	4	SIC	416	ABS	0	0	1	2	24_1_2	NA	NA	0	1	3.44533896446	None	None	None	None	1
3.0.1	2019_Mar_11_1029	s	s	6	4	SIC	417	ABS	0	0	2	3	24_2_3	NA	NA	0	1	3.05026888847	None	None	None	None	1
3.0.1	2019_Mar_11_1029	s	s	6	4	SIC	418	ABS	0	0	2	4	24_2_4	NA	NA	0	1	2.47205090523	None	None	None	None	1
3.0.1	2019_Mar_11_1029	s	s	6	4	SIC	419	2_2	2	2	1	3	23_1_3	-1	1	1	0	1.4929959774	-15.0	-363.0	-18.0	-372.0	1
3.0.1	2019_Mar_11_1029	s	s	6	4	SIC	420	3_4	3	4	1	1	23_1_1	2	3	1	0	0.451359033585	265.0	208.0	260.0	199.0	1
3.0.1	2019_Mar_11_1029	s	s	6	4	SIC	421	1_3	1	3	4	4	23_4_4	3	-1	1	0	0.368756771088	205.0	135.0	205.0	128.0	1
3.0.1	2019_Mar_11_1029	s	s	6	4	SIC	422	ABS	0	0	2	2	24_2_2	NA	NA	0	1	3.2806198597	None	None	None	None	1
3.0.1	2019_Mar_11_1029	s	s	6	4	SIC	423	1_1	1	1	2	2	23_2_2	1	1	1	0	0.810878038406	477.0	-157.0	484.0	-156.0	1
3.0.1	2019_Mar_11_1029	s	s	6	4	SIC	424	ABS	0	0	1	1	24_1_1	NA	NA	0	1	1.99880099297	None	None	None	None	1
3.0.1	2019_Mar_11_1029	s	s	6	4	SIC	425	3_3	3	3	3	2	23_3_2	0	1	1	0	2.83376407623	-291.0	182.0	-299.0	182.0	1
3.0.1	2019_Mar_11_1029	s	s	6	4	SIC	426	2_3	2	3	2	1	23_2_1	0	2	1	0	0.50501203537	-65.0	-22.0	-63.0	-36.0	1
3.0.1	2019_Mar_11_1029	s	s	6	4	SIC	427	3_3	3	3	4	2	23_4_2	-1	1	1	0	0.75202703476	418.0	410.0	411.0	409.0	1
3.0.1	2019_Mar_11_1029	s	s	6	4	SIC	428	2_1	2	1	4	1	23_4_1	2	0	1	0	0.363919019699	-308.0	30.0	-316.0	26.0	1
3.0.1	2019_Mar_11_1029	s	s	6	4	SIC	429	3_3	3	3	1	1	23_1_1	2	2	1	0	0.422737836838	79.0	71.0	78.0	74.0	1
3.0.1	2019_Mar_11_1029	s	s	6	4	SIC	430	1_4	1	4	3	3	23_3_3	2	1	1	0	0.505044937134	-465.0	-87.0	-465.0	-85.0	1
3.0.1	2019_Mar_11_1029	s	s	6	4	SIC	431	4_2	4	2	4	3	23_4_3	0	1	1	0	1.55469202995	-219.0	-145.0	-216.0	-151.0	1
3.0.1	2019_Mar_11_1029	s	s	6	4	SIC	432	ABS	0	0	3	1	24_3_1	NA	NA	0	1	1.46949291229	None	None	None	None	1
3.0.1	2019_Mar_11_1029	s	s	6	4	SIC	433	2_4	2	4	2	3	23_2_3	0	1	1	0	0.568629026413	-450.0	192.0	-446.0	192.0	1
3.0.1	2019_Mar_11_1029	s	s	6	4	SIC	434	ABS	0	0	2	1	24_2_1	NA	NA	0	1	2.62630391121	None	None	None	None	1
3.0.1	2019_Mar_11_1029	s	s	6	4	SIC	435	ABS	0	0	4	2	24_4_2	NA	NA	0	1	3.95406317711	None	None	None	None	1
3.0.1	2019_Mar_11_1029	s	s	6	4	SIC	436	4_3	4	3	2	2	23_2_2	2	1	1	0	0.387479066849	-418.0	-198.0	-413.0	-200.0	1
3.0.1	2019_Mar_11_1029	s	s	6	4	SIC	437	2_1	2	1	3	3	23_3_3	1	2	1	0	0.519721984863	-107.0	315.0	-106.0	303.0	1
3.0.1	2019_Mar_11_1029	s	s	6	4	SIC	438	ABS	0	0	4	4	24_4_4	NA	NA	0	1	1.71659803391	None	None	None	None	1
3.0.1	2019_Mar_11_1029	s	s	6	4	SIC	439	ABS	0	0	4	1	24_4_1	NA	NA	0	1	1.71652388573	None	None	None	None	1
3.0.1	2019_Mar_11_1029	s	s	6	4	SIC	440	ABS	0	0	1	3	24_1_3	NA	NA	0	1	3.76286506653	None	None	None	None	1
3.0.1	2019_Mar_11_1029	s	s	6	4	SIC	441	ABS	0	0	1	2	24_1_2	NA	NA	0	1	4.13260602951	None	None	None	None	1
3.0.1	2019_Mar_11_1029	s	s	6	4	SIC	442	ABS	0	0	2	1	24_2_1	NA	NA	0	1	2.38284111023	None	None	None	None	1
3.0.1	2019_Mar_11_1029	s	s	6	4	SIC	443	1_3	1	3	2	3	23_2_3	1	0	0	1	2.67200684547	-219.0	352.0	None	None	0
3.0.1	2019_Mar_11_1029	s	s	6	4	SIC	444	2_4	2	4	3	3	23_3_3	1	1	1	0	0.484436988831	414.0	-358.0	414.0	-361.0	1
3.0.1	2019_Mar_11_1029	s	s	6	4	SIC	445	2_3	2	3	1	3	23_1_3	-1	0	0	1	2.99842905998	532.0	-90.0	None	None	0
3.0.1	2019_Mar_11_1029	s	s	6	4	SIC	446	ABS	0	0	1	4	24_1_4	NA	NA	0	1	1.98093485832	None	None	None	None	1
3.0.1	2019_Mar_11_1029	s	s	6	4	SIC	447	2_4	2	4	3	4	23_3_4	1	0	0	1	1.68116188049	342.0	292.0	None	None	0
3.0.1	2019_Mar_11_1029	s	s	6	4	SIC	448	ABS	0	0	3	2	24_3_2	NA	NA	0	1	4.02559399605	None	None	None	None	1
3.0.1	2019_Mar_11_1029	s	s	6	4	SIC	449	4_3	4	3	2	4	23_2_4	2	-1	1	0	0.48509812355	-517.0	-159.0	-514.0	-156.0	1
3.0.1	2019_Mar_11_1029	s	s	6	4	SIC	450	4_1	4	1	2	3	23_2_3	2	2	1	0	0.378590106964	-185.0	367.0	-190.0	366.0	1
3.0.1	2019_Mar_11_1029	s	s	6	4	SIC	451	3_4	3	4	3	2	23_3_2	0	2	1	0	0.4961810112	-44.0	157.0	-35.0	159.0	1
3.0.1	2019_Mar_11_1029	s	s	6	4	SIC	452	3_3	3	3	4	1	23_4_1	-1	2	1	0	0.37285399437	-524.0	123.0	-510.0	129.0	1
3.0.1	2019_Mar_11_1029	s	s	6	4	SIC	453	ABS	0	0	3	1	24_3_1	NA	NA	0	1	2.08395886421	None	None	None	None	1
3.0.1	2019_Mar_11_1029	s	s	6	4	SIC	454	3_4	3	4	4	3	23_4_3	-1	1	1	0	0.410961866379	-108.0	-312.0	-107.0	-313.0	1
3.0.1	2019_Mar_11_1029	s	s	6	4	SIC	455	ABS	0	0	2	1	24_2_1	NA	NA	0	1	1.9794819355	None	None	None	None	1
3.0.1	2019_Mar_11_1029	s	s	6	4	SIC	456	ABS	0	0	2	3	24_2_3	NA	NA	0	1	2.72132110596	None	None	None	None	1
3.0.1	2019_Mar_11_1029	s	s	6	4	SIC	457	3_1	3	1	4	1	23_4_1	-1	0	1	0	0.469763994217	493.0	366.0	487.0	363.0	1
3.0.1	2019_Mar_11_1029	s	s	6	4	SIC	458	3_2	3	2	3	1	23_3_1	0	-1	0	1	2.0189011097	311.0	299.0	None	None	0
3.0.1	2019_Mar_11_1029	s	s	6	4	SIC	459	4_3	4	3	1	4	23_1_4	3	-1	1	0	0.404232025146	88.0	317.0	89.0	317.0	1
3.0.1	2019_Mar_11_1029	s	s	6	4	SIC	460	ABS	0	0	1	1	24_1_1	NA	NA	0	1	1.7677230835	None	None	None	None	1
3.0.1	2019_Mar_11_1029	s	s	6	4	SIC	461	4_2	4	2	1	4	23_1_4	3	2	1	0	0.352123022079	-134.0	-210.0	-143.0	-214.0	1
3.0.1	2019_Mar_11_1029	s	s	6	4	SIC	462	1_3	1	3	2	1	23_2_1	1	2	1	0	1.22783017159	-418.0	-392.0	-409.0	-393.0	1
3.0.1	2019_Mar_11_1029	s	s	6	4	SIC	463	ABS	0	0	1	2	24_1_2	NA	NA	0	1	3.94426393509	None	None	None	None	1
3.0.1	2019_Mar_11_1029	s	s	6	4	SIC	464	ABS	0	0	4	3	24_4_3	NA	NA	0	1	2.75444102287	None	None	None	None	1
3.0.1	2019_Mar_11_1029	s	s	6	4	SIC	465	4_1	4	1	1	2	23_1_2	3	1	1	0	0.52387881279	-77.0	283.0	-76.0	289.0	1
3.0.1	2019_Mar_11_1029	s	s	6	4	SIC	466	ABS	0	0	4	1	24_4_1	NA	NA	0	1	2.35657501221	None	None	None	None	1
3.0.1	2019_Mar_11_1029	s	s	6	4	SIC	467	1_4	1	4	3	4	23_3_4	2	0	1	0	0.410929203033	-415.0	129.0	-406.0	129.0	1
3.0.1	2019_Mar_11_1029	s	s	6	4	SIC	468	1_2	1	2	2	1	23_2_1	1	-1	1	0	2.48761200905	400.0	-13.0	398.0	-11.0	1
3.0.1	2019_Mar_11_1029	s	s	6	4	SIC	469	ABS	0	0	3	1	24_3_1	NA	NA	0	1	1.95537185669	None	None	None	None	1
3.0.1	2019_Mar_11_1029	s	s	6	4	SIC	470	ABS	0	0	2	2	24_2_2	NA	NA	0	1	4.08062410355	None	None	None	None	1
3.0.1	2019_Mar_11_1029	s	s	6	4	SIC	471	ABS	0	0	1	1	24_1_1	NA	NA	0	1	2.77498197556	None	None	None	None	1
3.0.1	2019_Mar_11_1029	s	s	6	4	SIC	472	ABS	0	0	3	2	24_3_2	NA	NA	0	1	3.09686994553	None	None	None	None	1
3.0.1	2019_Mar_11_1029	s	s	6	4	SIC	473	4_4	4	4	2	1	23_2_1	2	3	1	0	0.481531143188	242.0	393.0	240.0	388.0	1
3.0.1	2019_Mar_11_1029	s	s	6	4	SIC	474	ABS	0	0	4	4	24_4_4	NA	NA	0	1	1.06963396072	None	None	None	None	1
3.0.1	2019_Mar_11_1029	s	s	6	4	SIC	475	2_4	2	4	3	2	23_3_2	1	2	1	0	0.461207151413	-387.0	-64.0	-385.0	-62.0	1
3.0.1	2019_Mar_11_1029	s	s	6	4	SIC	476	2_3	2	3	4	1	23_4_1	2	2	1	0	0.334063053131	-369.0	-107.0	-372.0	-113.0	1
3.0.1	2019_Mar_11_1029	s	s	6	4	SIC	477	2_2	2	2	3	2	23_3_2	1	0	1	0	0.387429952621	237.0	138.0	244.0	140.0	1
3.0.1	2019_Mar_11_1029	s	s	6	4	SIC	478	ABS	0	0	2	3	24_2_3	NA	NA	0	1	3.80359005928	None	None	None	None	1
3.0.1	2019_Mar_11_1029	s	s	6	4	SIC	479	3_4	3	4	2	1	23_2_1	1	3	1	0	0.451499938965	249.0	379.0	248.0	373.0	1
3.0.1	2019_Mar_11_1029	s	s	6	4	SIC	480	ABS	0	0	1	4	24_1_4	NA	NA	0	1	1.80427289009	None	None	None	None	1
