Version	Date	Stimuli	Method	Subject	Session	Condition	Trial	Target	TColor	TShape	DColor	DShape	Distractors	Channel1	Channel2	LMouseButton	RMouseButton	RT	TargetX	TargetY	ResponseX	ResponseY	Correct
3.0.1	2019_Mar_06_1732	s	s	7	3	Capacity	1	3_1	3	1	1	1	23_1_1	2	0	1	0	1.26960992813	-495.0	-285.0	-494.0	-293.0	1
3.0.1	2019_Mar_06_1732	s	s	7	3	Capacity	2	ABS	0	0	1	1	24_1_1	NA	NA	0	1	1.7221801281	None	None	None	None	1
3.0.1	2019_Mar_06_1732	s	s	7	3	Capacity	3	2_1	2	1	3	1	23_3_1	1	0	1	0	1.05118584633	384.0	99.0	385.0	97.0	1
3.0.1	2019_Mar_06_1732	s	s	7	3	Capacity	4	4_1	4	1	2	1	23_2_1	2	0	1	0	0.599249839783	-105.0	51.0	-101.0	49.0	1
3.0.1	2019_Mar_06_1732	s	s	7	3	Capacity	5	ABS	0	0	3	1	24_3_1	NA	NA	0	1	1.65782904625	None	None	None	None	1
3.0.1	2019_Mar_06_1732	s	s	7	3	Capacity	6	3_1	3	1	4	1	23_4_1	-1	0	1	0	0.546933889389	-115.0	-386.0	-117.0	-383.0	1
3.0.1	2019_Mar_06_1732	s	s	7	3	Capacity	7	3_1	3	1	2	1	23_2_1	1	0	1	0	1.16858100891	-168.0	348.0	-174.0	340.0	1
3.0.1	2019_Mar_06_1732	s	s	7	3	Capacity	8	ABS	0	0	4	1	24_4_1	NA	NA	0	1	1.43044996262	None	None	None	None	1
3.0.1	2019_Mar_06_1732	s	s	7	3	Capacity	9	2_1	2	1	4	1	23_4_1	2	0	1	0	0.634632110596	515.0	62.0	512.0	54.0	1
3.0.1	2019_Mar_06_1732	s	s	7	3	Capacity	10	1_1	1	1	2	1	23_2_1	1	0	1	0	3.31884813309	183.0	113.0	189.0	122.0	1
3.0.1	2019_Mar_06_1732	s	s	7	3	Capacity	11	ABS	0	0	3	1	24_3_1	NA	NA	0	1	1.76346588135	None	None	None	None	1
3.0.1	2019_Mar_06_1732	s	s	7	3	Capacity	12	ABS	0	0	2	1	24_2_1	NA	NA	0	1	2.7796061039	None	None	None	None	1
3.0.1	2019_Mar_06_1732	s	s	7	3	Capacity	13	ABS	0	0	4	1	24_4_1	NA	NA	0	1	1.79597496986	None	None	None	None	1
3.0.1	2019_Mar_06_1732	s	s	7	3	Capacity	14	ABS	0	0	2	1	24_2_1	NA	NA	0	1	4.03845596313	None	None	None	None	1
3.0.1	2019_Mar_06_1732	s	s	7	3	Capacity	15	ABS	0	0	3	1	24_3_1	NA	NA	0	1	1.95174598694	None	None	None	None	1
3.0.1	2019_Mar_06_1732	s	s	7	3	Capacity	16	2_1	2	1	1	1	23_1_1	-1	0	0	1	2.66024398804	-174.0	-11.0	None	None	0
3.0.1	2019_Mar_06_1732	s	s	7	3	Capacity	17	ABS	0	0	1	1	24_1_1	NA	NA	0	1	2.85456895828	None	None	None	None	1
3.0.1	2019_Mar_06_1732	s	s	7	3	Capacity	18	ABS	0	0	2	1	24_2_1	NA	NA	0	1	2.91304397583	None	None	None	None	1
3.0.1	2019_Mar_06_1732	s	s	7	3	Capacity	19	ABS	0	0	4	1	24_4_1	NA	NA	0	1	1.35224604607	None	None	None	None	1
3.0.1	2019_Mar_06_1732	s	s	7	3	Capacity	20	1_1	1	1	4	1	23_4_1	3	0	1	0	0.540303945541	210.0	368.0	216.0	361.0	1
3.0.1	2019_Mar_06_1732	s	s	7	3	Capacity	21	ABS	0	0	1	1	24_1_1	NA	NA	0	1	2.97485303879	None	None	None	None	1
3.0.1	2019_Mar_06_1732	s	s	7	3	Capacity	22	4_1	4	1	1	1	23_1_1	3	0	1	0	1.10478997231	-3.0	-172.0	-1.0	-185.0	1
3.0.1	2019_Mar_06_1732	s	s	7	3	Capacity	23	1_1	1	1	3	1	23_3_1	2	0	1	0	0.940145015717	230.0	60.0	231.0	60.0	1
3.0.1	2019_Mar_06_1732	s	s	7	3	Capacity	24	4_1	4	1	3	1	23_3_1	1	0	1	0	0.73138999939	63.0	346.0	68.0	349.0	1
3.0.1	2019_Mar_06_1732	s	s	7	3	Capacity	25	3_1	3	1	2	1	23_2_1	1	0	1	0	0.543615102768	-489.0	-48.0	-497.0	-52.0	1
3.0.1	2019_Mar_06_1732	s	s	7	3	Capacity	26	3_1	3	1	1	1	23_1_1	2	0	1	0	0.555011034012	-320.0	357.0	-322.0	356.0	1
3.0.1	2019_Mar_06_1732	s	s	7	3	Capacity	27	ABS	0	0	1	1	24_1_1	NA	NA	0	1	1.54003810883	None	None	None	None	1
3.0.1	2019_Mar_06_1732	s	s	7	3	Capacity	28	1_1	1	1	3	1	23_3_1	2	0	1	0	0.869620800018	-491.0	-134.0	-498.0	-136.0	1
3.0.1	2019_Mar_06_1732	s	s	7	3	Capacity	29	ABS	0	0	3	1	24_3_1	NA	NA	0	1	1.00563907623	None	None	None	None	1
3.0.1	2019_Mar_06_1732	s	s	7	3	Capacity	30	1_1	1	1	2	1	23_2_1	1	0	1	0	1.14899301529	163.0	145.0	163.0	142.0	1
3.0.1	2019_Mar_06_1732	s	s	7	3	Capacity	31	4_1	4	1	2	1	23_2_1	2	0	1	0	0.619564056396	247.0	408.0	249.0	409.0	1
3.0.1	2019_Mar_06_1732	s	s	7	3	Capacity	32	2_1	2	1	4	1	23_4_1	2	0	1	0	0.486805915833	-417.0	147.0	-416.0	145.0	1
3.0.1	2019_Mar_06_1732	s	s	7	3	Capacity	33	3_1	3	1	4	1	23_4_1	-1	0	1	0	0.634389877319	306.0	-316.0	300.0	-306.0	1
3.0.1	2019_Mar_06_1732	s	s	7	3	Capacity	34	ABS	0	0	4	1	24_4_1	NA	NA	0	1	0.709316015244	None	None	None	None	1
3.0.1	2019_Mar_06_1732	s	s	7	3	Capacity	35	ABS	0	0	3	1	24_3_1	NA	NA	0	1	0.658009052277	None	None	None	None	1
3.0.1	2019_Mar_06_1732	s	s	7	3	Capacity	36	ABS	0	0	2	1	24_2_1	NA	NA	0	1	1.25773406029	None	None	None	None	1
3.0.1	2019_Mar_06_1732	s	s	7	3	Capacity	37	ABS	0	0	2	1	24_2_1	NA	NA	0	1	2.4056930542	None	None	None	None	1
3.0.1	2019_Mar_06_1732	s	s	7	3	Capacity	38	2_1	2	1	3	1	23_3_1	1	0	1	0	0.5873670578	-133.0	2.0	-127.0	3.0	1
3.0.1	2019_Mar_06_1732	s	s	7	3	Capacity	39	2_1	2	1	1	1	23_1_1	-1	0	0	1	2.01079201698	89.0	198.0	None	None	0
3.0.1	2019_Mar_06_1732	s	s	7	3	Capacity	40	ABS	0	0	2	1	24_2_1	NA	NA	0	1	2.40352702141	None	None	None	None	1
3.0.1	2019_Mar_06_1732	s	s	7	3	Capacity	41	ABS	0	0	4	1	24_4_1	NA	NA	0	1	0.634843826294	None	None	None	None	1
3.0.1	2019_Mar_06_1732	s	s	7	3	Capacity	42	4_1	4	1	1	1	23_1_1	3	0	1	0	0.505088090897	-139.0	325.0	-149.0	328.0	1
3.0.1	2019_Mar_06_1732	s	s	7	3	Capacity	43	ABS	0	0	4	1	24_4_1	NA	NA	0	1	0.95198392868	None	None	None	None	1
3.0.1	2019_Mar_06_1732	s	s	7	3	Capacity	44	4_1	4	1	3	1	23_3_1	1	0	1	0	0.543260097504	-300.0	-13.0	-295.0	-13.0	1
3.0.1	2019_Mar_06_1732	s	s	7	3	Capacity	45	ABS	0	0	1	1	24_1_1	NA	NA	0	1	3.58645510674	None	None	None	None	1
3.0.1	2019_Mar_06_1732	s	s	7	3	Capacity	46	1_1	1	1	4	1	23_4_1	3	0	1	0	0.652873039246	203.0	403.0	208.0	402.0	1
3.0.1	2019_Mar_06_1732	s	s	7	3	Capacity	47	ABS	0	0	1	1	24_1_1	NA	NA	0	1	1.37826108932	None	None	None	None	1
3.0.1	2019_Mar_06_1732	s	s	7	3	Capacity	48	ABS	0	0	3	1	24_3_1	NA	NA	0	1	1.60553002357	None	None	None	None	1
3.0.1	2019_Mar_06_1732	s	s	7	3	Capacity	49	1_1	1	1	4	1	23_4_1	3	0	1	0	0.552306175232	233.0	-111.0	229.0	-118.0	1
3.0.1	2019_Mar_06_1732	s	s	7	3	Capacity	50	ABS	0	0	1	1	24_1_1	NA	NA	0	1	2.41583395004	None	None	None	None	1
3.0.1	2019_Mar_06_1732	s	s	7	3	Capacity	51	ABS	0	0	4	1	24_4_1	NA	NA	0	1	1.10915708542	None	None	None	None	1
3.0.1	2019_Mar_06_1732	s	s	7	3	Capacity	52	ABS	0	0	3	1	24_3_1	NA	NA	0	1	1.88109207153	None	None	None	None	1
3.0.1	2019_Mar_06_1732	s	s	7	3	Capacity	53	ABS	0	0	3	1	24_3_1	NA	NA	0	1	1.68118214607	None	None	None	None	1
3.0.1	2019_Mar_06_1732	s	s	7	3	Capacity	54	4_1	4	1	1	1	23_1_1	3	0	1	0	0.505074977875	80.0	110.0	85.0	106.0	1
3.0.1	2019_Mar_06_1732	s	s	7	3	Capacity	55	ABS	0	0	2	1	24_2_1	NA	NA	0	1	3.70790600777	None	None	None	None	1
3.0.1	2019_Mar_06_1732	s	s	7	3	Capacity	56	ABS	0	0	4	1	24_4_1	NA	NA	0	1	0.558022022247	None	None	None	None	1
3.0.1	2019_Mar_06_1732	s	s	7	3	Capacity	57	3_1	3	1	4	1	23_4_1	-1	0	1	0	0.763799905777	178.0	-329.0	188.0	-325.0	1
3.0.1	2019_Mar_06_1732	s	s	7	3	Capacity	58	ABS	0	0	1	1	24_1_1	NA	NA	0	1	3.23363685608	None	None	None	None	1
3.0.1	2019_Mar_06_1732	s	s	7	3	Capacity	59	3_1	3	1	1	1	23_1_1	2	0	1	0	0.768996953964	293.0	352.0	296.0	349.0	1
3.0.1	2019_Mar_06_1732	s	s	7	3	Capacity	60	4_1	4	1	2	1	23_2_1	2	0	1	0	0.485066890717	-24.0	155.0	-29.0	147.0	1
3.0.1	2019_Mar_06_1732	s	s	7	3	Capacity	61	1_1	1	1	3	1	23_3_1	2	0	1	0	0.916707038879	395.0	252.0	396.0	246.0	1
3.0.1	2019_Mar_06_1732	s	s	7	3	Capacity	62	3_1	3	1	2	1	23_2_1	1	0	1	0	0.463505029678	-468.0	308.0	-464.0	307.0	1
3.0.1	2019_Mar_06_1732	s	s	7	3	Capacity	63	2_1	2	1	4	1	23_4_1	2	0	1	0	0.410928964615	-522.0	-204.0	-529.0	-210.0	1
3.0.1	2019_Mar_06_1732	s	s	7	3	Capacity	64	2_1	2	1	1	1	23_1_1	-1	0	1	0	0.804890871048	88.0	-53.0	86.0	-57.0	1
3.0.1	2019_Mar_06_1732	s	s	7	3	Capacity	65	ABS	0	0	4	1	24_4_1	NA	NA	0	1	0.719640016556	None	None	None	None	1
3.0.1	2019_Mar_06_1732	s	s	7	3	Capacity	66	ABS	0	0	2	1	24_2_1	NA	NA	0	1	2.56032800674	None	None	None	None	1
3.0.1	2019_Mar_06_1732	s	s	7	3	Capacity	67	2_1	2	1	3	1	23_3_1	1	0	1	0	0.752048015594	349.0	-138.0	361.0	-137.0	1
3.0.1	2019_Mar_06_1732	s	s	7	3	Capacity	68	ABS	0	0	3	1	24_3_1	NA	NA	0	1	1.41063594818	None	None	None	None	1
3.0.1	2019_Mar_06_1732	s	s	7	3	Capacity	69	4_1	4	1	3	1	23_3_1	1	0	1	0	0.646103858948	411.0	306.0	403.0	310.0	1
3.0.1	2019_Mar_06_1732	s	s	7	3	Capacity	70	1_1	1	1	2	1	23_2_1	1	0	1	0	1.75167489052	-402.0	-357.0	-398.0	-355.0	1
3.0.1	2019_Mar_06_1732	s	s	7	3	Capacity	71	ABS	0	0	2	1	24_2_1	NA	NA	0	1	3.42185807228	None	None	None	None	1
3.0.1	2019_Mar_06_1732	s	s	7	3	Capacity	72	ABS	0	0	1	1	24_1_1	NA	NA	0	1	3.23890089989	None	None	None	None	1
3.0.1	2019_Mar_06_1732	s	s	7	3	Capacity	73	ABS	0	0	3	1	24_3_1	NA	NA	0	1	1.928139925	None	None	None	None	1
3.0.1	2019_Mar_06_1732	s	s	7	3	Capacity	74	4_1	4	1	1	1	23_1_1	3	0	1	0	0.546922922134	-118.0	-314.0	-114.0	-318.0	1
3.0.1	2019_Mar_06_1732	s	s	7	3	Capacity	75	2_1	2	1	1	1	23_1_1	-1	0	1	0	1.8929400444	-475.0	-168.0	-473.0	-172.0	1
3.0.1	2019_Mar_06_1732	s	s	7	3	Capacity	76	1_1	1	1	2	1	23_2_1	1	0	1	0	2.56323099136	-228.0	320.0	-221.0	314.0	1
3.0.1	2019_Mar_06_1732	s	s	7	3	Capacity	77	ABS	0	0	2	1	24_2_1	NA	NA	0	1	3.04838585854	None	None	None	None	1
3.0.1	2019_Mar_06_1732	s	s	7	3	Capacity	78	ABS	0	0	2	1	24_2_1	NA	NA	0	1	4.2748708725	None	None	None	None	1
3.0.1	2019_Mar_06_1732	s	s	7	3	Capacity	79	3_1	3	1	4	1	23_4_1	-1	0	1	0	0.619311094284	243.0	301.0	252.0	298.0	1
3.0.1	2019_Mar_06_1732	s	s	7	3	Capacity	80	4_1	4	1	3	1	23_3_1	1	0	1	0	0.554964780807	-12.0	152.0	-14.0	158.0	1
3.0.1	2019_Mar_06_1732	s	s	7	3	Capacity	81	2_1	2	1	4	1	23_4_1	2	0	1	0	0.763774871826	434.0	321.0	440.0	315.0	1
3.0.1	2019_Mar_06_1732	s	s	7	3	Capacity	82	ABS	0	0	1	1	24_1_1	NA	NA	0	1	2.87309098244	None	None	None	None	1
3.0.1	2019_Mar_06_1732	s	s	7	3	Capacity	83	ABS	0	0	4	1	24_4_1	NA	NA	0	1	0.622642040253	None	None	None	None	1
3.0.1	2019_Mar_06_1732	s	s	7	3	Capacity	84	ABS	0	0	2	1	24_2_1	NA	NA	0	1	3.40999102592	None	None	None	None	1
3.0.1	2019_Mar_06_1732	s	s	7	3	Capacity	85	3_1	3	1	2	1	23_2_1	1	0	1	0	0.555020093918	-272.0	161.0	-266.0	159.0	1
3.0.1	2019_Mar_06_1732	s	s	7	3	Capacity	86	1_1	1	1	4	1	23_4_1	3	0	1	0	0.510854005814	-271.0	401.0	-279.0	396.0	1
3.0.1	2019_Mar_06_1732	s	s	7	3	Capacity	87	4_1	4	1	2	1	23_2_1	2	0	1	0	0.437869787216	-362.0	-287.0	-358.0	-290.0	1
3.0.1	2019_Mar_06_1732	s	s	7	3	Capacity	88	ABS	0	0	4	1	24_4_1	NA	NA	0	1	0.752022981644	None	None	None	None	1
3.0.1	2019_Mar_06_1732	s	s	7	3	Capacity	89	ABS	0	0	1	1	24_1_1	NA	NA	0	1	3.73049402237	None	None	None	None	1
3.0.1	2019_Mar_06_1732	s	s	7	3	Capacity	90	ABS	0	0	4	1	24_4_1	NA	NA	0	1	0.704993963242	None	None	None	None	1
3.0.1	2019_Mar_06_1732	s	s	7	3	Capacity	91	1_1	1	1	3	1	23_3_1	2	0	1	0	0.510411977768	-13.0	227.0	-7.0	219.0	1
3.0.1	2019_Mar_06_1732	s	s	7	3	Capacity	92	ABS	0	0	3	1	24_3_1	NA	NA	0	1	1.14306211472	None	None	None	None	1
3.0.1	2019_Mar_06_1732	s	s	7	3	Capacity	93	2_1	2	1	3	1	23_3_1	1	0	1	0	0.869703054428	432.0	-187.0	432.0	-186.0	1
3.0.1	2019_Mar_06_1732	s	s	7	3	Capacity	94	3_1	3	1	1	1	23_1_1	2	0	1	0	0.575605869293	-209.0	360.0	-208.0	356.0	1
3.0.1	2019_Mar_06_1732	s	s	7	3	Capacity	95	ABS	0	0	3	1	24_3_1	NA	NA	0	1	1.61946487427	None	None	None	None	1
3.0.1	2019_Mar_06_1732	s	s	7	3	Capacity	96	ABS	0	0	1	1	24_1_1	NA	NA	0	1	1.83917593956	None	None	None	None	1
3.0.1	2019_Mar_06_1732	s	s	7	3	Capacity	1	ABS	0	0	1	2	24_1_2	NA	NA	0	1	4.30430483818	None	None	None	None	1
3.0.1	2019_Mar_06_1732	s	s	7	3	Capacity	2	ABS	0	0	1	3	24_1_3	NA	NA	0	1	3.60332393646	None	None	None	None	1
3.0.1	2019_Mar_06_1732	s	s	7	3	Capacity	3	ABS	0	0	1	1	24_1_1	NA	NA	0	1	3.59828400612	None	None	None	None	1
3.0.1	2019_Mar_06_1732	s	s	7	3	Capacity	4	1_3	1	3	1	1	23_1_1	0	2	1	0	0.669666051865	-298.0	124.0	-303.0	134.0	1
3.0.1	2019_Mar_06_1732	s	s	7	3	Capacity	5	1_4	1	4	1	1	23_1_1	0	3	1	0	0.509696960449	-410.0	-207.0	-410.0	-204.0	1
3.0.1	2019_Mar_06_1732	s	s	7	3	Capacity	6	ABS	0	0	1	3	24_1_3	NA	NA	0	1	3.84810090065	None	None	None	None	1
3.0.1	2019_Mar_06_1732	s	s	7	3	Capacity	7	1_4	1	4	1	2	23_1_2	0	2	1	0	0.608646869659	-246.0	-33.0	-246.0	-30.0	1
3.0.1	2019_Mar_06_1732	s	s	7	3	Capacity	8	ABS	0	0	1	2	24_1_2	NA	NA	0	1	5.04489016533	None	None	None	None	1
3.0.1	2019_Mar_06_1732	s	s	7	3	Capacity	9	1_4	1	4	1	3	23_1_3	0	1	1	0	0.70504617691	-455.0	47.0	-461.0	45.0	1
3.0.1	2019_Mar_06_1732	s	s	7	3	Capacity	10	1_3	1	3	1	2	23_1_2	0	1	1	0	2.20148491859	-184.0	-98.0	-172.0	-95.0	1
3.0.1	2019_Mar_06_1732	s	s	7	3	Capacity	11	ABS	0	0	1	4	24_1_4	NA	NA	0	1	1.04064106941	None	None	None	None	1
3.0.1	2019_Mar_06_1732	s	s	7	3	Capacity	12	1_1	1	1	1	3	23_1_3	0	2	1	0	2.06194090843	465.0	-160.0	476.0	-160.0	1
3.0.1	2019_Mar_06_1732	s	s	7	3	Capacity	13	1_2	1	2	1	4	23_1_4	0	2	1	0	0.731384992599	-302.0	-398.0	-298.0	-402.0	1
3.0.1	2019_Mar_06_1732	s	s	7	3	Capacity	14	1_1	1	1	1	4	23_1_4	0	3	1	0	0.73152589798	340.0	-389.0	346.0	-390.0	1
3.0.1	2019_Mar_06_1732	s	s	7	3	Capacity	15	ABS	0	0	1	2	24_1_2	NA	NA	0	1	5.90631699562	None	None	None	None	1
3.0.1	2019_Mar_06_1732	s	s	7	3	Capacity	16	ABS	0	0	1	1	24_1_1	NA	NA	0	1	3.55118703842	None	None	None	None	1
3.0.1	2019_Mar_06_1732	s	s	7	3	Capacity	17	1_2	1	2	1	1	23_1_1	0	-1	0	1	3.77756619453	529.0	301.0	None	None	0
3.0.1	2019_Mar_06_1732	s	s	7	3	Capacity	18	ABS	0	0	1	3	24_1_3	NA	NA	0	1	3.72157621384	None	None	None	None	1
3.0.1	2019_Mar_06_1732	s	s	7	3	Capacity	19	1_1	1	1	1	2	23_1_2	0	1	1	0	1.72204113007	-117.0	348.0	-124.0	343.0	1
3.0.1	2019_Mar_06_1732	s	s	7	3	Capacity	20	ABS	0	0	1	1	24_1_1	NA	NA	0	1	5.39082407951	None	None	None	None	1
3.0.1	2019_Mar_06_1732	s	s	7	3	Capacity	21	ABS	0	0	1	4	24_1_4	NA	NA	0	1	1.55126690865	None	None	None	None	1
3.0.1	2019_Mar_06_1732	s	s	7	3	Capacity	22	ABS	0	0	1	4	24_1_4	NA	NA	0	1	1.73606801033	None	None	None	None	1
3.0.1	2019_Mar_06_1732	s	s	7	3	Capacity	23	1_3	1	3	1	4	23_1_4	0	-1	1	0	0.634416818619	360.0	165.0	357.0	161.0	1
3.0.1	2019_Mar_06_1732	s	s	7	3	Capacity	24	1_2	1	2	1	3	23_1_3	0	1	1	0	1.70508909225	307.0	395.0	311.0	392.0	1
3.0.1	2019_Mar_06_1732	s	s	7	3	Capacity	25	ABS	0	0	1	3	24_1_3	NA	NA	0	1	3.48718810081	None	None	None	None	1
3.0.1	2019_Mar_06_1732	s	s	7	3	Capacity	26	ABS	0	0	1	3	24_1_3	NA	NA	0	1	3.55116891861	None	None	None	None	1
3.0.1	2019_Mar_06_1732	s	s	7	3	Capacity	27	1_3	1	3	1	2	23_1_2	0	1	0	1	7.16185307503	343.0	10.0	None	None	0
3.0.1	2019_Mar_06_1732	s	s	7	3	Capacity	28	1_1	1	1	1	4	23_1_4	0	3	1	0	0.613769054413	-105.0	-291.0	-107.0	-294.0	1
3.0.1	2019_Mar_06_1732	s	s	7	3	Capacity	29	1_1	1	1	1	3	23_1_3	0	2	1	0	3.59302306175	489.0	328.0	490.0	326.0	1
3.0.1	2019_Mar_06_1732	s	s	7	3	Capacity	30	ABS	0	0	1	1	24_1_1	NA	NA	0	1	4.14210891724	None	None	None	None	1
3.0.1	2019_Mar_06_1732	s	s	7	3	Capacity	31	ABS	0	0	1	2	24_1_2	NA	NA	0	1	5.89695596695	None	None	None	None	1
3.0.1	2019_Mar_06_1732	s	s	7	3	Capacity	32	1_1	1	1	1	2	23_1_2	0	1	1	0	0.85795211792	-373.0	299.0	-368.0	292.0	1
3.0.1	2019_Mar_06_1732	s	s	7	3	Capacity	33	1_4	1	4	1	2	23_1_2	0	2	1	0	0.922821044922	-435.0	-184.0	-433.0	-181.0	1
3.0.1	2019_Mar_06_1732	s	s	7	3	Capacity	34	1_2	1	2	1	1	23_1_1	0	-1	0	1	2.46162414551	370.0	352.0	None	None	0
3.0.1	2019_Mar_06_1732	s	s	7	3	Capacity	35	1_2	1	2	1	4	23_1_4	0	2	1	0	0.790312051773	-276.0	232.0	-276.0	226.0	1
3.0.1	2019_Mar_06_1732	s	s	7	3	Capacity	36	1_3	1	3	1	1	23_1_1	0	2	1	0	2.08415293694	442.0	71.0	437.0	69.0	1
3.0.1	2019_Mar_06_1732	s	s	7	3	Capacity	37	ABS	0	0	1	2	24_1_2	NA	NA	0	1	5.39777517319	None	None	None	None	1
3.0.1	2019_Mar_06_1732	s	s	7	3	Capacity	38	ABS	0	0	1	4	24_1_4	NA	NA	0	1	1.04604792595	None	None	None	None	1
3.0.1	2019_Mar_06_1732	s	s	7	3	Capacity	39	ABS	0	0	1	1	24_1_1	NA	NA	0	1	4.06147909164	None	None	None	None	1
3.0.1	2019_Mar_06_1732	s	s	7	3	Capacity	40	1_2	1	2	1	3	23_1_3	0	1	1	0	1.68116807938	-387.0	196.0	-391.0	201.0	1
3.0.1	2019_Mar_06_1732	s	s	7	3	Capacity	41	ABS	0	0	1	4	24_1_4	NA	NA	0	1	1.01599001884	None	None	None	None	1
3.0.1	2019_Mar_06_1732	s	s	7	3	Capacity	42	1_4	1	4	1	3	23_1_3	0	1	1	0	1.12840390205	-175.0	-325.0	-171.0	-326.0	1
3.0.1	2019_Mar_06_1732	s	s	7	3	Capacity	43	ABS	0	0	1	4	24_1_4	NA	NA	0	1	1.3452641964	None	None	None	None	1
3.0.1	2019_Mar_06_1732	s	s	7	3	Capacity	44	ABS	0	0	1	1	24_1_1	NA	NA	0	1	4.57806706429	None	None	None	None	1
3.0.1	2019_Mar_06_1732	s	s	7	3	Capacity	45	1_3	1	3	1	4	23_1_4	0	-1	1	0	1.19606399536	499.0	-190.0	500.0	-198.0	1
3.0.1	2019_Mar_06_1732	s	s	7	3	Capacity	46	ABS	0	0	1	3	24_1_3	NA	NA	0	1	3.86866879463	None	None	None	None	1
3.0.1	2019_Mar_06_1732	s	s	7	3	Capacity	47	ABS	0	0	1	2	24_1_2	NA	NA	0	1	6.80902695656	None	None	None	None	1
3.0.1	2019_Mar_06_1732	s	s	7	3	Capacity	48	1_4	1	4	1	1	23_1_1	0	3	1	0	0.678899049759	70.0	-93.0	62.0	-95.0	1
3.0.1	2019_Mar_06_1732	s	s	7	3	Capacity	49	ABS	0	0	1	3	24_1_3	NA	NA	0	1	4.3039290905	None	None	None	None	1
3.0.1	2019_Mar_06_1732	s	s	7	3	Capacity	50	ABS	0	0	1	4	24_1_4	NA	NA	0	1	1.14407205582	None	None	None	None	1
3.0.1	2019_Mar_06_1732	s	s	7	3	Capacity	51	1_4	1	4	1	2	23_1_2	0	2	1	0	0.804116010666	-160.0	53.0	-151.0	63.0	1
3.0.1	2019_Mar_06_1732	s	s	7	3	Capacity	52	1_2	1	2	1	3	23_1_3	0	1	1	0	2.00370788574	-456.0	255.0	-461.0	244.0	1
3.0.1	2019_Mar_06_1732	s	s	7	3	Capacity	53	1_3	1	3	1	4	23_1_4	0	-1	1	0	0.78049993515	-54.0	-222.0	-45.0	-226.0	1
3.0.1	2019_Mar_06_1732	s	s	7	3	Capacity	54	ABS	0	0	1	1	24_1_1	NA	NA	0	1	3.33947300911	None	None	None	None	1
3.0.1	2019_Mar_06_1732	s	s	7	3	Capacity	55	ABS	0	0	1	4	24_1_4	NA	NA	0	1	1.00390791893	None	None	None	None	1
3.0.1	2019_Mar_06_1732	s	s	7	3	Capacity	56	1_2	1	2	1	1	23_1_1	0	-1	1	0	3.15673995018	31.0	-314.0	42.0	-314.0	1
3.0.1	2019_Mar_06_1732	s	s	7	3	Capacity	57	ABS	0	0	1	1	24_1_1	NA	NA	0	1	4.29225897789	None	None	None	None	1
3.0.1	2019_Mar_06_1732	s	s	7	3	Capacity	58	ABS	0	0	1	3	24_1_3	NA	NA	1	0	0.928910970688	None	None	-349.0	108.0	0
3.0.1	2019_Mar_06_1732	s	s	7	3	Capacity	59	1_3	1	3	1	1	23_1_1	0	2	1	0	1.01067495346	-431.0	-25.0	-421.0	-26.0	1
3.0.1	2019_Mar_06_1732	s	s	7	3	Capacity	60	ABS	0	0	1	1	24_1_1	NA	NA	0	1	3.39828300476	None	None	None	None	1
3.0.1	2019_Mar_06_1732	s	s	7	3	Capacity	61	1_3	1	3	1	2	23_1_2	0	1	0	1	6.78162193298	-461.0	229.0	None	None	0
3.0.1	2019_Mar_06_1732	s	s	7	3	Capacity	62	1_1	1	1	1	2	23_1_2	0	1	1	0	1.51649403572	421.0	344.0	422.0	335.0	1
3.0.1	2019_Mar_06_1732	s	s	7	3	Capacity	63	ABS	0	0	1	2	24_1_2	NA	NA	0	1	6.04459500313	None	None	None	None	1
3.0.1	2019_Mar_06_1732	s	s	7	3	Capacity	64	ABS	0	0	1	2	24_1_2	NA	NA	0	1	5.06837916374	None	None	None	None	1
3.0.1	2019_Mar_06_1732	s	s	7	3	Capacity	65	1_4	1	4	1	3	23_1_3	0	1	1	0	0.763823032379	-70.0	129.0	-66.0	121.0	1
3.0.1	2019_Mar_06_1732	s	s	7	3	Capacity	66	1_1	1	1	1	4	23_1_4	0	3	1	0	0.811046123505	-454.0	-362.0	-455.0	-356.0	1
3.0.1	2019_Mar_06_1732	s	s	7	3	Capacity	67	ABS	0	0	1	4	24_1_4	NA	NA	0	1	1.14840698242	None	None	None	None	1
3.0.1	2019_Mar_06_1732	s	s	7	3	Capacity	68	ABS	0	0	1	3	24_1_3	NA	NA	0	1	3.61282992363	None	None	None	None	1
3.0.1	2019_Mar_06_1732	s	s	7	3	Capacity	69	1_4	1	4	1	1	23_1_1	0	3	1	0	0.693192005157	207.0	-30.0	215.0	-28.0	1
3.0.1	2019_Mar_06_1732	s	s	7	3	Capacity	70	1_1	1	1	1	3	23_1_3	0	2	1	0	0.862295150757	-26.0	79.0	-31.0	79.0	1
3.0.1	2019_Mar_06_1732	s	s	7	3	Capacity	71	ABS	0	0	1	2	24_1_2	NA	NA	0	1	6.81212615967	None	None	None	None	1
3.0.1	2019_Mar_06_1732	s	s	7	3	Capacity	72	1_2	1	2	1	4	23_1_4	0	2	1	0	0.562134981155	-241.0	153.0	-240.0	146.0	1
3.0.1	2019_Mar_06_1732	s	s	7	3	Capacity	73	1_1	1	1	1	3	23_1_3	0	2	1	0	2.59335589409	509.0	-394.0	506.0	-384.0	1
3.0.1	2019_Mar_06_1732	s	s	7	3	Capacity	74	ABS	0	0	1	1	24_1_1	NA	NA	0	1	4.77886795998	None	None	None	None	1
3.0.1	2019_Mar_06_1732	s	s	7	3	Capacity	75	1_4	1	4	1	3	23_1_3	0	1	1	0	0.763784885406	-487.0	-114.0	-473.0	-108.0	1
3.0.1	2019_Mar_06_1732	s	s	7	3	Capacity	76	1_4	1	4	1	2	23_1_2	0	2	1	0	0.581472873688	-363.0	49.0	-365.0	38.0	1
3.0.1	2019_Mar_06_1732	s	s	7	3	Capacity	77	1_4	1	4	1	1	23_1_1	0	3	1	0	0.622653007507	350.0	-374.0	349.0	-369.0	1
3.0.1	2019_Mar_06_1732	s	s	7	3	Capacity	78	1_3	1	3	1	1	23_1_1	0	2	1	0	0.619165182114	-149.0	-60.0	-144.0	-70.0	1
3.0.1	2019_Mar_06_1732	s	s	7	3	Capacity	79	1_2	1	2	1	3	23_1_3	0	1	1	0	3.10426998138	-217.0	-299.0	-225.0	-301.0	1
3.0.1	2019_Mar_06_1732	s	s	7	3	Capacity	80	1_2	1	2	1	1	23_1_1	0	-1	1	0	3.61813092232	307.0	279.0	310.0	285.0	1
3.0.1	2019_Mar_06_1732	s	s	7	3	Capacity	81	ABS	0	0	1	1	24_1_1	NA	NA	0	1	4.77884101868	None	None	None	None	1
3.0.1	2019_Mar_06_1732	s	s	7	3	Capacity	82	1_2	1	2	1	4	23_1_4	0	2	1	0	0.646174907684	-537.0	45.0	-527.0	48.0	1
3.0.1	2019_Mar_06_1732	s	s	7	3	Capacity	83	1_3	1	3	1	4	23_1_4	0	-1	1	0	0.693143129349	197.0	258.0	206.0	254.0	1
3.0.1	2019_Mar_06_1732	s	s	7	3	Capacity	84	1_3	1	3	1	2	23_1_2	0	1	1	0	2.31099700928	404.0	388.0	401.0	389.0	1
3.0.1	2019_Mar_06_1732	s	s	7	3	Capacity	85	ABS	0	0	1	2	24_1_2	NA	NA	0	1	5.23305606842	None	None	None	None	1
3.0.1	2019_Mar_06_1732	s	s	7	3	Capacity	86	ABS	0	0	1	1	24_1_1	NA	NA	0	1	3.79815196991	None	None	None	None	1
3.0.1	2019_Mar_06_1732	s	s	7	3	Capacity	87	1_1	1	1	1	2	23_1_2	0	1	1	0	3.30707001686	15.0	-170.0	20.0	-161.0	1
3.0.1	2019_Mar_06_1732	s	s	7	3	Capacity	88	ABS	0	0	1	3	24_1_3	NA	NA	0	1	3.99807596207	None	None	None	None	1
3.0.1	2019_Mar_06_1732	s	s	7	3	Capacity	89	ABS	0	0	1	3	24_1_3	NA	NA	0	1	3.43541097641	None	None	None	None	1
3.0.1	2019_Mar_06_1732	s	s	7	3	Capacity	90	ABS	0	0	1	3	24_1_3	NA	NA	0	1	5.03148293495	None	None	None	None	1
3.0.1	2019_Mar_06_1732	s	s	7	3	Capacity	91	ABS	0	0	1	4	24_1_4	NA	NA	0	1	1.99872303009	None	None	None	None	1
3.0.1	2019_Mar_06_1732	s	s	7	3	Capacity	92	ABS	0	0	1	4	24_1_4	NA	NA	0	1	1.75176310539	None	None	None	None	1
3.0.1	2019_Mar_06_1732	s	s	7	3	Capacity	93	ABS	0	0	1	4	24_1_4	NA	NA	0	1	2.07402300835	None	None	None	None	1
3.0.1	2019_Mar_06_1732	s	s	7	3	Capacity	94	ABS	0	0	1	2	24_1_2	NA	NA	0	1	7.2323589325	None	None	None	None	1
3.0.1	2019_Mar_06_1732	s	s	7	3	Capacity	95	ABS	0	0	1	2	24_1_2	NA	NA	0	1	5.99748802185	None	None	None	None	1
3.0.1	2019_Mar_06_1732	s	s	7	3	Capacity	96	1_1	1	1	1	4	23_1_4	0	3	1	0	0.72206401825	245.0	362.0	239.0	359.0	1
3.0.1	2019_Mar_06_1732	s	s	7	3	SIC	1	ABS	0	0	4	2	24_4_2	NA	NA	0	1	4.28038096428	None	None	None	None	1
3.0.1	2019_Mar_06_1732	s	s	7	3	SIC	2	3_3	3	3	2	1	23_2_1	1	2	1	0	0.687030076981	-468.0	389.0	-464.0	385.0	1
3.0.1	2019_Mar_06_1732	s	s	7	3	SIC	3	3_1	3	1	2	3	23_2_3	1	2	1	0	0.603589057922	123.0	73.0	135.0	83.0	1
3.0.1	2019_Mar_06_1732	s	s	7	3	SIC	4	3_2	3	2	2	2	23_2_2	1	0	1	0	0.65797996521	-3.0	-343.0	4.0	-344.0	1
3.0.1	2019_Mar_06_1732	s	s	7	3	SIC	5	ABS	0	0	3	4	24_3_4	NA	NA	0	1	0.822630882263	None	None	None	None	1
3.0.1	2019_Mar_06_1732	s	s	7	3	SIC	6	1_4	1	4	3	4	23_3_4	2	0	1	0	1.25117778778	102.0	77.0	105.0	77.0	1
3.0.1	2019_Mar_06_1732	s	s	7	3	SIC	7	ABS	0	0	3	1	24_3_1	NA	NA	0	1	2.41483783722	None	None	None	None	1
3.0.1	2019_Mar_06_1732	s	s	7	3	SIC	8	ABS	0	0	4	1	24_4_1	NA	NA	0	1	1.60400009155	None	None	None	None	1
3.0.1	2019_Mar_06_1732	s	s	7	3	SIC	9	4_1	4	1	3	3	23_3_3	1	2	1	0	0.554968833923	344.0	275.0	340.0	275.0	1
3.0.1	2019_Mar_06_1732	s	s	7	3	SIC	10	ABS	0	0	2	4	24_2_4	NA	NA	0	1	0.780613899231	None	None	None	None	1
3.0.1	2019_Mar_06_1732	s	s	7	3	SIC	11	ABS	0	0	1	4	24_1_4	NA	NA	0	1	1.49714708328	None	None	None	None	1
3.0.1	2019_Mar_06_1732	s	s	7	3	SIC	12	1_4	1	4	4	1	23_4_1	3	3	1	0	0.599243164062	282.0	-173.0	278.0	-171.0	1
3.0.1	2019_Mar_06_1732	s	s	7	3	SIC	13	1_3	1	3	2	3	23_2_3	1	0	1	0	8.59063386917	-456.0	-67.0	-463.0	-69.0	1
3.0.1	2019_Mar_06_1732	s	s	7	3	SIC	14	ABS	0	0	3	4	24_3_4	NA	NA	0	1	1.26957392693	None	None	None	None	1
3.0.1	2019_Mar_06_1732	s	s	7	3	SIC	15	4_3	4	3	2	4	23_2_4	2	-1	1	0	0.626787185669	-381.0	-361.0	-383.0	-367.0	1
3.0.1	2019_Mar_06_1732	s	s	7	3	SIC	16	4_3	4	3	4	1	23_4_1	0	2	1	0	1.27482390404	-477.0	227.0	-479.0	227.0	1
3.0.1	2019_Mar_06_1732	s	s	7	3	SIC	17	1_2	1	2	4	2	23_4_2	3	0	1	0	1.62004184723	-315.0	252.0	-314.0	253.0	1
3.0.1	2019_Mar_06_1732	s	s	7	3	SIC	18	3_3	3	3	1	4	23_1_4	2	-1	1	0	0.474949121475	164.0	-108.0	152.0	-106.0	1
3.0.1	2019_Mar_06_1732	s	s	7	3	SIC	19	ABS	0	0	2	3	24_2_3	NA	NA	0	1	5.39277291298	None	None	None	None	1
3.0.1	2019_Mar_06_1732	s	s	7	3	SIC	20	ABS	0	0	1	1	24_1_1	NA	NA	0	1	3.04550409317	None	None	None	None	1
3.0.1	2019_Mar_06_1732	s	s	7	3	SIC	21	2_1	2	1	3	1	23_3_1	1	0	1	0	0.693160057068	115.0	-224.0	118.0	-221.0	1
3.0.1	2019_Mar_06_1732	s	s	7	3	SIC	22	ABS	0	0	3	1	24_3_1	NA	NA	0	1	3.54878401756	None	None	None	None	1
3.0.1	2019_Mar_06_1732	s	s	7	3	SIC	23	ABS	0	0	1	4	24_1_4	NA	NA	0	1	1.66284489632	None	None	None	None	1
3.0.1	2019_Mar_06_1732	s	s	7	3	SIC	24	ABS	0	0	4	2	24_4_2	NA	NA	0	1	5.31825399399	None	None	None	None	1
3.0.1	2019_Mar_06_1732	s	s	7	3	SIC	25	ABS	0	0	4	1	24_4_1	NA	NA	0	1	2.14276814461	None	None	None	None	1
3.0.1	2019_Mar_06_1732	s	s	7	3	SIC	26	ABS	0	0	4	1	24_4_1	NA	NA	0	1	2.33977508545	None	None	None	None	1
3.0.1	2019_Mar_06_1732	s	s	7	3	SIC	27	4_4	4	4	2	1	23_2_1	2	3	1	0	0.592029094696	-239.0	-194.0	-243.0	-194.0	1
3.0.1	2019_Mar_06_1732	s	s	7	3	SIC	28	ABS	0	0	1	1	24_1_1	NA	NA	0	1	2.33210515976	None	None	None	None	1
3.0.1	2019_Mar_06_1732	s	s	7	3	SIC	29	ABS	0	0	4	3	24_4_3	NA	NA	0	1	3.73284006119	None	None	None	None	1
3.0.1	2019_Mar_06_1732	s	s	7	3	SIC	30	3_2	3	2	4	4	23_4_4	-1	2	1	0	0.613801956177	1.0	67.0	0.0	65.0	1
3.0.1	2019_Mar_06_1732	s	s	7	3	SIC	31	ABS	0	0	4	2	24_4_2	NA	NA	0	1	5.86816811562	None	None	None	None	1
3.0.1	2019_Mar_06_1732	s	s	7	3	SIC	32	1_2	1	2	4	1	23_4_1	3	-1	1	0	0.599177122116	-192.0	-241.0	-202.0	-234.0	1
3.0.1	2019_Mar_06_1732	s	s	7	3	SIC	33	ABS	0	0	2	1	24_2_1	NA	NA	0	1	6.39117217064	None	None	None	None	1
3.0.1	2019_Mar_06_1732	s	s	7	3	SIC	34	ABS	0	0	3	3	24_3_3	NA	NA	0	1	6.49437880516	None	None	None	None	1
3.0.1	2019_Mar_06_1732	s	s	7	3	SIC	35	ABS	0	0	3	4	24_3_4	NA	NA	0	1	1.49691009521	None	None	None	None	1
3.0.1	2019_Mar_06_1732	s	s	7	3	SIC	36	4_2	4	2	1	1	23_1_1	3	-1	1	0	0.516808986664	-457.0	158.0	-460.0	162.0	1
3.0.1	2019_Mar_06_1732	s	s	7	3	SIC	37	ABS	0	0	1	1	24_1_1	NA	NA	0	1	4.14213609695	None	None	None	None	1
3.0.1	2019_Mar_06_1732	s	s	7	3	SIC	38	1_1	1	1	2	4	23_2_4	1	3	1	0	0.639548063278	-245.0	76.0	-244.0	76.0	1
3.0.1	2019_Mar_06_1732	s	s	7	3	SIC	39	3_4	3	4	3	3	23_3_3	0	1	1	0	0.763795852661	14.0	260.0	22.0	260.0	1
3.0.1	2019_Mar_06_1732	s	s	7	3	SIC	40	ABS	0	0	2	2	24_2_2	NA	NA	0	1	6.03797101974	None	None	None	None	1
3.0.1	2019_Mar_06_1732	s	s	7	3	SIC	41	ABS	0	0	3	1	24_3_1	NA	NA	0	1	2.28099393845	None	None	None	None	1
3.0.1	2019_Mar_06_1732	s	s	7	3	SIC	42	1_2	1	2	1	3	23_1_3	0	1	1	0	2.29647111893	-73.0	-391.0	-70.0	-394.0	1
3.0.1	2019_Mar_06_1732	s	s	7	3	SIC	43	1_4	1	4	1	3	23_1_3	0	1	1	0	0.810755968094	-92.0	273.0	-100.0	269.0	1
3.0.1	2019_Mar_06_1732	s	s	7	3	SIC	44	2_1	2	1	2	2	23_2_2	0	1	1	0	2.16825008392	-482.0	240.0	-480.0	240.0	1
3.0.1	2019_Mar_06_1732	s	s	7	3	SIC	45	ABS	0	0	3	4	24_3_4	NA	NA	0	1	1.48116016388	None	None	None	None	1
3.0.1	2019_Mar_06_1732	s	s	7	3	SIC	46	ABS	0	0	2	4	24_2_4	NA	NA	0	1	1.77815699577	None	None	None	None	1
3.0.1	2019_Mar_06_1732	s	s	7	3	SIC	47	2_4	2	4	3	4	23_3_4	1	0	1	0	0.557250976562	-121.0	-44.0	-123.0	-50.0	1
3.0.1	2019_Mar_06_1732	s	s	7	3	SIC	48	4_4	4	4	4	1	23_4_1	0	3	1	0	0.554976940155	90.0	-1.0	101.0	-1.0	1
3.0.1	2019_Mar_06_1732	s	s	7	3	SIC	49	ABS	0	0	3	3	24_3_3	NA	NA	0	1	4.16272592545	None	None	None	None	1
3.0.1	2019_Mar_06_1732	s	s	7	3	SIC	50	1_1	1	1	4	4	23_4_4	3	3	1	0	0.563909053802	432.0	407.0	422.0	414.0	1
3.0.1	2019_Mar_06_1732	s	s	7	3	SIC	51	ABS	0	0	4	4	24_4_4	NA	NA	0	1	1.10484695435	None	None	None	None	1
3.0.1	2019_Mar_06_1732	s	s	7	3	SIC	52	ABS	0	0	2	2	24_2_2	NA	NA	0	1	6.4091989994	None	None	None	None	1
3.0.1	2019_Mar_06_1732	s	s	7	3	SIC	53	ABS	0	0	4	2	24_4_2	NA	NA	0	1	4.8331451416	None	None	None	None	1
3.0.1	2019_Mar_06_1732	s	s	7	3	SIC	54	ABS	0	0	3	4	24_3_4	NA	NA	0	1	1.23937821388	None	None	None	None	1
3.0.1	2019_Mar_06_1732	s	s	7	3	SIC	55	3_1	3	1	4	2	23_4_2	-1	1	1	0	0.533756971359	-86.0	234.0	-88.0	232.0	1
3.0.1	2019_Mar_06_1732	s	s	7	3	SIC	56	ABS	0	0	1	4	24_1_4	NA	NA	0	1	1.9565179348	None	None	None	None	1
3.0.1	2019_Mar_06_1732	s	s	7	3	SIC	57	2_4	2	4	2	2	23_2_2	0	2	1	0	0.763741016388	392.0	-188.0	403.0	-188.0	1
3.0.1	2019_Mar_06_1732	s	s	7	3	SIC	58	ABS	0	0	4	1	24_4_1	NA	NA	0	1	2.86901807785	None	None	None	None	1
3.0.1	2019_Mar_06_1732	s	s	7	3	SIC	59	ABS	0	0	2	2	24_2_2	NA	NA	0	1	4.20985507965	None	None	None	None	1
3.0.1	2019_Mar_06_1732	s	s	7	3	SIC	60	3_1	3	1	1	1	23_1_1	2	0	1	0	0.810781002045	-409.0	171.0	-407.0	176.0	1
3.0.1	2019_Mar_06_1732	s	s	7	3	SIC	61	4_2	4	2	2	3	23_2_3	2	1	1	0	0.474823951721	33.0	84.0	30.0	78.0	1
3.0.1	2019_Mar_06_1732	s	s	7	3	SIC	62	ABS	0	0	4	4	24_4_4	NA	NA	0	1	1.45034098625	None	None	None	None	1
3.0.1	2019_Mar_06_1732	s	s	7	3	SIC	63	3_2	3	2	4	1	23_4_1	-1	-1	1	0	0.601988077164	103.0	-362.0	114.0	-361.0	1
3.0.1	2019_Mar_06_1732	s	s	7	3	SIC	64	3_1	3	1	3	4	23_3_4	0	3	1	0	0.634356975555	433.0	-80.0	435.0	-76.0	1
3.0.1	2019_Mar_06_1732	s	s	7	3	SIC	65	ABS	0	0	2	4	24_2_4	NA	NA	0	1	2.01333713531	None	None	None	None	1
3.0.1	2019_Mar_06_1732	s	s	7	3	SIC	66	ABS	0	0	4	3	24_4_3	NA	NA	0	1	3.85700201988	None	None	None	None	1
3.0.1	2019_Mar_06_1732	s	s	7	3	SIC	67	1_4	1	4	3	1	23_3_1	2	3	1	0	0.616096973419	16.0	-247.0	21.0	-249.0	1
3.0.1	2019_Mar_06_1732	s	s	7	3	SIC	68	4_2	4	2	1	4	23_1_4	3	2	1	0	0.486352205276	488.0	-312.0	495.0	-310.0	1
3.0.1	2019_Mar_06_1732	s	s	7	3	SIC	69	ABS	0	0	2	4	24_2_4	NA	NA	0	1	1.90751695633	None	None	None	None	1
3.0.1	2019_Mar_06_1732	s	s	7	3	SIC	70	2_1	2	1	1	2	23_1_2	-1	1	1	0	1.29700708389	-338.0	312.0	-342.0	306.0	1
3.0.1	2019_Mar_06_1732	s	s	7	3	SIC	71	ABS	0	0	1	4	24_1_4	NA	NA	0	1	0.98724603653	None	None	None	None	1
3.0.1	2019_Mar_06_1732	s	s	7	3	SIC	72	4_1	4	1	1	1	23_1_1	3	0	1	0	0.481564998627	373.0	-146.0	376.0	-149.0	1
3.0.1	2019_Mar_06_1732	s	s	7	3	SIC	73	ABS	0	0	2	3	24_2_3	NA	NA	0	1	3.82182097435	None	None	None	None	1
3.0.1	2019_Mar_06_1732	s	s	7	3	SIC	74	ABS	0	0	1	3	24_1_3	NA	NA	0	1	3.65704202652	None	None	None	None	1
3.0.1	2019_Mar_06_1732	s	s	7	3	SIC	75	4_4	4	4	2	3	23_2_3	2	1	1	0	0.672586917877	27.0	173.0	25.0	170.0	1
3.0.1	2019_Mar_06_1732	s	s	7	3	SIC	76	ABS	0	0	1	1	24_1_1	NA	NA	0	1	4.13380718231	None	None	None	None	1
3.0.1	2019_Mar_06_1732	s	s	7	3	SIC	77	2_3	2	3	1	3	23_1_3	-1	0	1	0	1.98687386513	-431.0	241.0	-434.0	238.0	1
3.0.1	2019_Mar_06_1732	s	s	7	3	SIC	78	ABS	0	0	2	1	24_2_1	NA	NA	0	1	4.99776411057	None	None	None	None	1
3.0.1	2019_Mar_06_1732	s	s	7	3	SIC	79	ABS	0	0	4	1	24_4_1	NA	NA	0	1	1.13125991821	None	None	None	None	1
3.0.1	2019_Mar_06_1732	s	s	7	3	SIC	80	4_1	4	1	3	1	23_3_1	1	0	1	0	0.619518041611	176.0	221.0	179.0	218.0	1
3.0.1	2019_Mar_06_1732	s	s	7	3	SIC	81	4_3	4	3	1	1	23_1_1	3	2	1	0	0.415025949478	211.0	170.0	208.0	175.0	1
3.0.1	2019_Mar_06_1732	s	s	7	3	SIC	82	2_4	2	4	2	1	23_2_1	0	3	1	0	0.696439027786	-531.0	257.0	-522.0	254.0	1
3.0.1	2019_Mar_06_1732	s	s	7	3	SIC	83	ABS	0	0	4	4	24_4_4	NA	NA	0	1	0.704930782318	None	None	None	None	1
3.0.1	2019_Mar_06_1732	s	s	7	3	SIC	84	1_3	1	3	3	1	23_3_1	2	2	1	0	0.740823030472	394.0	21.0	390.0	11.0	1
3.0.1	2019_Mar_06_1732	s	s	7	3	SIC	85	2_1	2	1	2	3	23_2_3	0	2	1	0	0.745105028152	-131.0	339.0	-123.0	339.0	1
3.0.1	2019_Mar_06_1732	s	s	7	3	SIC	86	2_3	2	3	3	1	23_3_1	1	2	1	0	0.869748830795	-521.0	-78.0	-521.0	-84.0	1
3.0.1	2019_Mar_06_1732	s	s	7	3	SIC	87	4_4	4	4	3	1	23_3_1	1	3	1	0	0.422931909561	310.0	-137.0	325.0	-129.0	1
3.0.1	2019_Mar_06_1732	s	s	7	3	SIC	88	1_3	1	3	1	4	23_1_4	0	-1	1	0	0.505033016205	195.0	-219.0	190.0	-212.0	1
3.0.1	2019_Mar_06_1732	s	s	7	3	SIC	89	ABS	0	0	3	3	24_3_3	NA	NA	0	1	3.5394411087	None	None	None	None	1
3.0.1	2019_Mar_06_1732	s	s	7	3	SIC	90	ABS	0	0	2	2	24_2_2	NA	NA	0	1	4.77085399628	None	None	None	None	1
3.0.1	2019_Mar_06_1732	s	s	7	3	SIC	91	4_3	4	3	1	4	23_1_4	3	-1	1	0	0.540475130081	-404.0	-9.0	-399.0	-14.0	1
3.0.1	2019_Mar_06_1732	s	s	7	3	SIC	92	ABS	0	0	1	1	24_1_1	NA	NA	0	1	4.6331641674	None	None	None	None	1
3.0.1	2019_Mar_06_1732	s	s	7	3	SIC	93	4_4	4	4	3	2	23_3_2	1	2	1	0	0.657975912094	103.0	-112.0	111.0	-117.0	1
3.0.1	2019_Mar_06_1732	s	s	7	3	SIC	94	2_3	2	3	3	2	23_3_2	1	1	1	0	0.872262954712	-527.0	106.0	-532.0	107.0	1
3.0.1	2019_Mar_06_1732	s	s	7	3	SIC	95	ABS	0	0	1	1	24_1_1	NA	NA	0	1	5.20061397552	None	None	None	None	1
3.0.1	2019_Mar_06_1732	s	s	7	3	SIC	96	3_4	3	4	4	3	23_4_3	-1	1	1	0	0.599141836166	-98.0	151.0	-82.0	159.0	1
3.0.1	2019_Mar_06_1732	s	s	7	3	SIC	97	ABS	0	0	4	4	24_4_4	NA	NA	0	1	1.08943581581	None	None	None	None	1
3.0.1	2019_Mar_06_1732	s	s	7	3	SIC	98	2_2	2	2	1	2	23_1_2	-1	0	1	0	6.86784100533	-410.0	-155.0	-409.0	-156.0	1
3.0.1	2019_Mar_06_1732	s	s	7	3	SIC	99	ABS	0	0	2	2	24_2_2	NA	NA	0	1	4.39801692963	None	None	None	None	1
3.0.1	2019_Mar_06_1732	s	s	7	3	SIC	100	ABS	0	0	3	4	24_3_4	NA	NA	0	1	0.898532152176	None	None	None	None	1
3.0.1	2019_Mar_06_1732	s	s	7	3	SIC	101	ABS	0	0	1	1	24_1_1	NA	NA	0	1	5.12040615082	None	None	None	None	1
3.0.1	2019_Mar_06_1732	s	s	7	3	SIC	102	3_4	3	4	2	4	23_2_4	1	0	1	0	0.827701091766	-325.0	-171.0	-318.0	-171.0	1
3.0.1	2019_Mar_06_1732	s	s	7	3	SIC	103	3_4	3	4	2	1	23_2_1	1	3	1	0	0.47273015976	-231.0	-69.0	-225.0	-73.0	1
3.0.1	2019_Mar_06_1732	s	s	7	3	SIC	104	4_4	4	4	4	3	23_4_3	0	1	1	0	0.588618993759	390.0	-52.0	385.0	-60.0	1
3.0.1	2019_Mar_06_1732	s	s	7	3	SIC	105	ABS	0	0	2	2	24_2_2	NA	NA	0	1	7.04940295219	None	None	None	None	1
3.0.1	2019_Mar_06_1732	s	s	7	3	SIC	106	2_3	2	3	2	2	23_2_2	0	1	1	0	1.45771718025	-212.0	349.0	-214.0	342.0	1
3.0.1	2019_Mar_06_1732	s	s	7	3	SIC	107	4_3	4	3	4	4	23_4_4	0	-1	1	0	0.587298870087	-313.0	-216.0	-310.0	-213.0	1
3.0.1	2019_Mar_06_1732	s	s	7	3	SIC	108	ABS	0	0	4	1	24_4_1	NA	NA	0	1	2.3794400692	None	None	None	None	1
3.0.1	2019_Mar_06_1732	s	s	7	3	SIC	109	ABS	0	0	1	1	24_1_1	NA	NA	0	1	4.16272306442	None	None	None	None	1
3.0.1	2019_Mar_06_1732	s	s	7	3	SIC	110	ABS	0	0	3	2	24_3_2	NA	NA	0	1	5.91335916519	None	None	None	None	1
3.0.1	2019_Mar_06_1732	s	s	7	3	SIC	111	4_3	4	3	1	2	23_1_2	3	1	1	0	0.533801078796	-66.0	314.0	-66.0	306.0	1
3.0.1	2019_Mar_06_1732	s	s	7	3	SIC	112	ABS	0	0	4	4	24_4_4	NA	NA	0	1	1.77551198006	None	None	None	None	1
3.0.1	2019_Mar_06_1732	s	s	7	3	SIC	113	ABS	0	0	1	3	24_1_3	NA	NA	0	1	4.02445793152	None	None	None	None	1
3.0.1	2019_Mar_06_1732	s	s	7	3	SIC	114	ABS	0	0	2	3	24_2_3	NA	NA	0	1	4.46857213974	None	None	None	None	1
3.0.1	2019_Mar_06_1732	s	s	7	3	SIC	115	ABS	0	0	2	4	24_2_4	NA	NA	0	1	2.03442287445	None	None	None	None	1
3.0.1	2019_Mar_06_1732	s	s	7	3	SIC	116	ABS	0	0	4	3	24_4_3	NA	NA	0	1	2.0721590519	None	None	None	None	1
3.0.1	2019_Mar_06_1732	s	s	7	3	SIC	117	ABS	0	0	3	3	24_3_3	NA	NA	0	1	3.90730905533	None	None	None	None	1
3.0.1	2019_Mar_06_1732	s	s	7	3	SIC	118	ABS	0	0	1	3	24_1_3	NA	NA	0	1	4.33337593079	None	None	None	None	1
3.0.1	2019_Mar_06_1732	s	s	7	3	SIC	119	4_2	4	2	4	4	23_4_4	0	2	1	0	0.723145961761	-528.0	-284.0	-522.0	-292.0	1
3.0.1	2019_Mar_06_1732	s	s	7	3	SIC	120	3_1	3	1	4	4	23_4_4	-1	3	1	0	0.457988977432	-186.0	-298.0	-188.0	-300.0	1
3.0.1	2019_Mar_06_1732	s	s	7	3	SIC	121	ABS	0	0	3	2	24_3_2	NA	NA	0	1	4.13227701187	None	None	None	None	1
3.0.1	2019_Mar_06_1732	s	s	7	3	SIC	122	4_2	4	2	2	1	23_2_1	2	-1	1	0	0.501004934311	-396.0	-95.0	-391.0	-88.0	1
3.0.1	2019_Mar_06_1732	s	s	7	3	SIC	123	ABS	0	0	3	2	24_3_2	NA	NA	0	1	4.90947604179	None	None	None	None	1
3.0.1	2019_Mar_06_1732	s	s	7	3	SIC	124	ABS	0	0	1	3	24_1_3	NA	NA	0	1	3.55421614647	None	None	None	None	1
3.0.1	2019_Mar_06_1732	s	s	7	3	SIC	125	1_4	1	4	4	2	23_4_2	3	2	1	0	0.580101013184	500.0	254.0	504.0	250.0	1
3.0.1	2019_Mar_06_1732	s	s	7	3	SIC	126	ABS	0	0	1	1	24_1_1	NA	NA	0	1	3.26912093163	None	None	None	None	1
3.0.1	2019_Mar_06_1732	s	s	7	3	SIC	127	ABS	0	0	2	4	24_2_4	NA	NA	0	1	3.23358297348	None	None	None	None	1
3.0.1	2019_Mar_06_1732	s	s	7	3	SIC	128	2_2	2	2	2	4	23_2_4	0	2	1	0	0.705052137375	-279.0	296.0	-277.0	292.0	1
3.0.1	2019_Mar_06_1732	s	s	7	3	SIC	129	ABS	0	0	3	2	24_3_2	NA	NA	0	1	5.74475884438	None	None	None	None	1
3.0.1	2019_Mar_06_1732	s	s	7	3	SIC	130	1_4	1	4	1	1	23_1_1	0	3	1	0	0.697841882706	-134.0	151.0	-130.0	150.0	1
3.0.1	2019_Mar_06_1732	s	s	7	3	SIC	131	4_3	4	3	4	2	23_4_2	0	1	1	0	4.38365292549	530.0	152.0	543.0	162.0	1
3.0.1	2019_Mar_06_1732	s	s	7	3	SIC	132	ABS	0	0	2	1	24_2_1	NA	NA	0	1	6.56204795837	None	None	None	None	1
3.0.1	2019_Mar_06_1732	s	s	7	3	SIC	133	3_2	3	2	2	4	23_2_4	1	2	1	0	0.898282051086	523.0	-3.0	520.0	-7.0	1
3.0.1	2019_Mar_06_1732	s	s	7	3	SIC	134	ABS	0	0	1	4	24_1_4	NA	NA	0	1	2.29313492775	None	None	None	None	1
3.0.1	2019_Mar_06_1732	s	s	7	3	SIC	135	ABS	0	0	1	2	24_1_2	NA	NA	0	1	7.23664617538	None	None	None	None	1
3.0.1	2019_Mar_06_1732	s	s	7	3	SIC	136	ABS	0	0	1	3	24_1_3	NA	NA	0	1	3.84804081917	None	None	None	None	1
3.0.1	2019_Mar_06_1732	s	s	7	3	SIC	137	4_4	4	4	1	3	23_1_3	3	1	1	0	0.592483043671	436.0	-67.0	443.0	-64.0	1
3.0.1	2019_Mar_06_1732	s	s	7	3	SIC	138	ABS	0	0	3	1	24_3_1	NA	NA	0	1	3.9000389576	None	None	None	None	1
3.0.1	2019_Mar_06_1732	s	s	7	3	SIC	139	1_1	1	1	4	1	23_4_1	3	0	1	0	0.510766983032	-59.0	7.0	-55.0	3.0	1
3.0.1	2019_Mar_06_1732	s	s	7	3	SIC	140	ABS	0	0	4	2	24_4_2	NA	NA	0	1	6.40909385681	None	None	None	None	1
3.0.1	2019_Mar_06_1732	s	s	7	3	SIC	141	ABS	0	0	3	3	24_3_3	NA	NA	0	1	2.59189510345	None	None	None	None	1
3.0.1	2019_Mar_06_1732	s	s	7	3	SIC	142	ABS	0	0	2	1	24_2_1	NA	NA	0	1	6.2851190567	None	None	None	None	1
3.0.1	2019_Mar_06_1732	s	s	7	3	SIC	143	2_3	2	3	4	1	23_4_1	2	2	1	0	0.516756057739	-531.0	-45.0	-526.0	-44.0	1
3.0.1	2019_Mar_06_1732	s	s	7	3	SIC	144	ABS	0	0	4	4	24_4_4	NA	NA	0	1	1.52827382088	None	None	None	None	1
3.0.1	2019_Mar_06_1732	s	s	7	3	SIC	145	ABS	0	0	4	3	24_4_3	NA	NA	0	1	3.34236693382	None	None	None	None	1
3.0.1	2019_Mar_06_1732	s	s	7	3	SIC	146	ABS	0	0	4	4	24_4_4	NA	NA	0	1	1.49343419075	None	None	None	None	1
3.0.1	2019_Mar_06_1732	s	s	7	3	SIC	147	2_3	2	3	4	2	23_4_2	2	1	1	0	0.540498971939	-48.0	-190.0	-42.0	-183.0	1
3.0.1	2019_Mar_06_1732	s	s	7	3	SIC	148	ABS	0	0	3	3	24_3_3	NA	NA	0	1	3.56328296661	None	None	None	None	1
3.0.1	2019_Mar_06_1732	s	s	7	3	SIC	149	ABS	0	0	2	1	24_2_1	NA	NA	0	1	4.7772758007	None	None	None	None	1
3.0.1	2019_Mar_06_1732	s	s	7	3	SIC	150	ABS	0	0	2	3	24_2_3	NA	NA	0	1	2.96618199348	None	None	None	None	1
3.0.1	2019_Mar_06_1732	s	s	7	3	SIC	151	ABS	0	0	4	2	24_4_2	NA	NA	0	1	4.47631692886	None	None	None	None	1
3.0.1	2019_Mar_06_1732	s	s	7	3	SIC	152	1_3	1	3	2	2	23_2_2	1	1	1	0	3.16306304932	351.0	47.0	357.0	46.0	1
3.0.1	2019_Mar_06_1732	s	s	7	3	SIC	153	1_4	1	4	2	4	23_2_4	1	0	1	0	3.67947816849	-68.0	392.0	-72.0	396.0	1
3.0.1	2019_Mar_06_1732	s	s	7	3	SIC	154	2_2	2	2	4	2	23_4_2	2	0	1	0	0.628773927689	452.0	-287.0	456.0	-285.0	1
3.0.1	2019_Mar_06_1732	s	s	7	3	SIC	155	ABS	0	0	4	3	24_4_3	NA	NA	0	1	2.96604919434	None	None	None	None	1
3.0.1	2019_Mar_06_1732	s	s	7	3	SIC	156	2_4	2	4	4	3	23_4_3	2	1	1	0	0.613801956177	-501.0	282.0	-503.0	278.0	1
3.0.1	2019_Mar_06_1732	s	s	7	3	SIC	157	2_4	2	4	4	2	23_4_2	2	2	1	0	0.469758987427	42.0	133.0	34.0	140.0	1
3.0.1	2019_Mar_06_1732	s	s	7	3	SIC	158	ABS	0	0	2	1	24_2_1	NA	NA	0	1	5.95048618317	None	None	None	None	1
3.0.1	2019_Mar_06_1732	s	s	7	3	SIC	159	2_4	2	4	1	4	23_1_4	-1	0	0	1	3.31597995758	224.0	42.0	None	None	0
3.0.1	2019_Mar_06_1732	s	s	7	3	SIC	160	ABS	0	0	4	2	24_4_2	NA	NA	0	1	5.00121593475	None	None	None	None	1
3.0.1	2019_Mar_06_1732	s	s	7	3	SIC	161	ABS	0	0	1	1	24_1_1	NA	NA	0	1	5.23309087753	None	None	None	None	1
3.0.1	2019_Mar_06_1732	s	s	7	3	SIC	162	3_1	3	1	1	2	23_1_2	2	1	1	0	0.650325059891	-10.0	194.0	-5.0	192.0	1
3.0.1	2019_Mar_06_1732	s	s	7	3	SIC	163	1_3	1	3	1	1	23_1_1	0	2	1	0	0.810813903809	-135.0	-271.0	-131.0	-271.0	1
3.0.1	2019_Mar_06_1732	s	s	7	3	SIC	164	ABS	0	0	2	1	24_2_1	NA	NA	0	1	5.90626096725	None	None	None	None	1
3.0.1	2019_Mar_06_1732	s	s	7	3	SIC	165	3_3	3	3	4	4	23_4_4	-1	-1	1	0	0.534108161926	34.0	25.0	34.0	23.0	1
3.0.1	2019_Mar_06_1732	s	s	7	3	SIC	166	2_3	2	3	2	1	23_2_1	0	2	1	0	0.716773033142	394.0	106.0	391.0	105.0	1
3.0.1	2019_Mar_06_1732	s	s	7	3	SIC	167	ABS	0	0	3	3	24_3_3	NA	NA	0	1	3.23362493515	None	None	None	None	1
3.0.1	2019_Mar_06_1732	s	s	7	3	SIC	168	ABS	0	0	4	3	24_4_3	NA	NA	0	1	3.22193694115	None	None	None	None	1
3.0.1	2019_Mar_06_1732	s	s	7	3	SIC	169	ABS	0	0	2	2	24_2_2	NA	NA	0	1	6.89135885239	None	None	None	None	1
3.0.1	2019_Mar_06_1732	s	s	7	3	SIC	170	3_4	3	4	2	3	23_2_3	1	1	1	0	0.618092060089	-150.0	-93.0	-135.0	-86.0	1
3.0.1	2019_Mar_06_1732	s	s	7	3	SIC	171	1_2	1	2	2	4	23_2_4	1	2	1	0	0.501924991608	-213.0	-13.0	-209.0	-10.0	1
3.0.1	2019_Mar_06_1732	s	s	7	3	SIC	172	ABS	0	0	1	2	24_1_2	NA	NA	0	1	5.95333194733	None	None	None	None	1
3.0.1	2019_Mar_06_1732	s	s	7	3	SIC	173	ABS	0	0	3	2	24_3_2	NA	NA	0	1	3.5212521553	None	None	None	None	1
3.0.1	2019_Mar_06_1732	s	s	7	3	SIC	174	2_1	2	1	1	3	23_1_3	-1	2	1	0	3.90893316269	-378.0	-207.0	-376.0	-207.0	1
3.0.1	2019_Mar_06_1732	s	s	7	3	SIC	175	1_2	1	2	3	3	23_3_3	2	1	1	0	0.540307998657	250.0	-33.0	252.0	-35.0	1
3.0.1	2019_Mar_06_1732	s	s	7	3	SIC	176	3_4	3	4	4	1	23_4_1	-1	3	1	0	0.580467939377	-418.0	-388.0	-410.0	-394.0	1
3.0.1	2019_Mar_06_1732	s	s	7	3	SIC	177	3_1	3	1	1	3	23_1_3	2	2	1	0	0.681869029999	-476.0	385.0	-482.0	377.0	1
3.0.1	2019_Mar_06_1732	s	s	7	3	SIC	178	ABS	0	0	1	2	24_1_2	NA	NA	0	1	6.13227295876	None	None	None	None	1
3.0.1	2019_Mar_06_1732	s	s	7	3	SIC	179	1_1	1	1	1	2	23_1_2	0	1	1	0	1.3330578804	308.0	362.0	310.0	351.0	1
3.0.1	2019_Mar_06_1732	s	s	7	3	SIC	180	2_3	2	3	3	3	23_3_3	1	0	1	0	0.693594932556	-43.0	177.0	-47.0	177.0	1
3.0.1	2019_Mar_06_1732	s	s	7	3	SIC	181	3_1	3	1	4	3	23_4_3	-1	2	1	0	0.460753917694	-375.0	-185.0	-374.0	-187.0	1
3.0.1	2019_Mar_06_1732	s	s	7	3	SIC	182	4_2	4	2	1	2	23_1_2	3	0	1	0	0.399202108383	-326.0	-51.0	-312.0	-42.0	1
3.0.1	2019_Mar_06_1732	s	s	7	3	SIC	183	ABS	0	0	2	4	24_2_4	NA	NA	0	1	1.97518897057	None	None	None	None	1
3.0.1	2019_Mar_06_1732	s	s	7	3	SIC	184	ABS	0	0	1	3	24_1_3	NA	NA	0	1	2.16336393356	None	None	None	None	1
3.0.1	2019_Mar_06_1732	s	s	7	3	SIC	185	ABS	0	0	3	1	24_3_1	NA	NA	0	1	1.48132801056	None	None	None	None	1
3.0.1	2019_Mar_06_1732	s	s	7	3	SIC	186	ABS	0	0	2	4	24_2_4	NA	NA	0	1	2.16329908371	None	None	None	None	1
3.0.1	2019_Mar_06_1732	s	s	7	3	SIC	187	2_1	2	1	1	4	23_1_4	-1	3	1	0	0.775578975677	-469.0	-6.0	-471.0	-5.0	1
3.0.1	2019_Mar_06_1732	s	s	7	3	SIC	188	2_1	2	1	4	3	23_4_3	2	2	1	0	0.469727993011	157.0	178.0	154.0	179.0	1
3.0.1	2019_Mar_06_1732	s	s	7	3	SIC	189	ABS	0	0	1	1	24_1_1	NA	NA	0	1	2.73087501526	None	None	None	None	1
3.0.1	2019_Mar_06_1732	s	s	7	3	SIC	190	3_3	3	3	1	2	23_1_2	2	1	1	0	0.693302154541	364.0	222.0	363.0	226.0	1
3.0.1	2019_Mar_06_1732	s	s	7	3	SIC	191	2_4	2	4	2	3	23_2_3	0	1	1	0	0.698595046997	411.0	184.0	412.0	181.0	1
3.0.1	2019_Mar_06_1732	s	s	7	3	SIC	192	1_1	1	1	1	3	23_1_3	0	2	1	0	4.56974697113	445.0	-359.0	450.0	-354.0	1
3.0.1	2019_Mar_06_1732	s	s	7	3	SIC	193	ABS	0	0	3	1	24_3_1	NA	NA	0	1	3.58062005043	None	None	None	None	1
3.0.1	2019_Mar_06_1732	s	s	7	3	SIC	194	2_2	2	2	3	2	23_3_2	1	0	1	0	0.74015212059	62.0	-208.0	66.0	-198.0	1
3.0.1	2019_Mar_06_1732	s	s	7	3	SIC	195	3_4	3	4	4	4	23_4_4	-1	0	1	0	0.481497049332	-427.0	-345.0	-424.0	-348.0	1
3.0.1	2019_Mar_06_1732	s	s	7	3	SIC	196	ABS	0	0	2	2	24_2_2	NA	NA	0	1	7.47937488556	None	None	None	None	1
3.0.1	2019_Mar_06_1732	s	s	7	3	SIC	197	1_3	1	3	3	2	23_3_2	2	1	1	0	0.552057027817	319.0	-226.0	327.0	-222.0	1
3.0.1	2019_Mar_06_1732	s	s	7	3	SIC	198	1_2	1	2	3	1	23_3_1	2	-1	1	0	0.434467077255	-276.0	-214.0	-271.0	-216.0	1
3.0.1	2019_Mar_06_1732	s	s	7	3	SIC	199	4_1	4	1	2	2	23_2_2	2	1	1	0	0.387403964996	-278.0	-290.0	-277.0	-296.0	1
3.0.1	2019_Mar_06_1732	s	s	7	3	SIC	200	ABS	0	0	1	3	24_1_3	NA	NA	0	1	6.25914788246	None	None	None	None	1
3.0.1	2019_Mar_06_1732	s	s	7	3	SIC	201	ABS	0	0	3	2	24_3_2	NA	NA	0	1	5.00971508026	None	None	None	None	1
3.0.1	2019_Mar_06_1732	s	s	7	3	SIC	202	3_1	3	1	1	4	23_1_4	2	3	1	0	0.641015052795	-217.0	268.0	-225.0	276.0	1
3.0.1	2019_Mar_06_1732	s	s	7	3	SIC	203	2_1	2	1	1	1	23_1_1	-1	0	1	0	1.05792808533	40.0	-110.0	35.0	-115.0	1
3.0.1	2019_Mar_06_1732	s	s	7	3	SIC	204	ABS	0	0	3	2	24_3_2	NA	NA	0	1	5.42839813232	None	None	None	None	1
3.0.1	2019_Mar_06_1732	s	s	7	3	SIC	205	4_2	4	2	3	2	23_3_2	1	0	1	0	0.497172832489	-442.0	-274.0	-440.0	-285.0	1
3.0.1	2019_Mar_06_1732	s	s	7	3	SIC	206	2_2	2	2	2	3	23_2_3	0	1	1	0	5.38208699226	481.0	207.0	484.0	211.0	1
3.0.1	2019_Mar_06_1732	s	s	7	3	SIC	207	ABS	0	0	4	2	24_4_2	NA	NA	0	1	3.85727405548	None	None	None	None	1
3.0.1	2019_Mar_06_1732	s	s	7	3	SIC	208	ABS	0	0	4	4	24_4_4	NA	NA	0	1	1.67456316948	None	None	None	None	1
3.0.1	2019_Mar_06_1732	s	s	7	3	SIC	209	4_4	4	4	1	2	23_1_2	3	2	1	0	0.501547813416	213.0	137.0	213.0	132.0	1
3.0.1	2019_Mar_06_1732	s	s	7	3	SIC	210	2_4	2	4	4	1	23_4_1	2	3	1	0	0.442531824112	-340.0	244.0	-333.0	246.0	1
3.0.1	2019_Mar_06_1732	s	s	7	3	SIC	211	1_4	1	4	2	1	23_2_1	1	3	1	0	0.446167945862	152.0	96.0	148.0	98.0	1
3.0.1	2019_Mar_06_1732	s	s	7	3	SIC	212	ABS	0	0	2	3	24_2_3	NA	NA	0	1	4.14839816093	None	None	None	None	1
3.0.1	2019_Mar_06_1732	s	s	7	3	SIC	213	2_2	2	2	4	1	23_4_1	2	-1	1	0	0.496131896973	501.0	364.0	501.0	361.0	1
3.0.1	2019_Mar_06_1732	s	s	7	3	SIC	214	ABS	0	0	2	3	24_2_3	NA	NA	0	1	4.40977191925	None	None	None	None	1
3.0.1	2019_Mar_06_1732	s	s	7	3	SIC	215	ABS	0	0	3	1	24_3_1	NA	NA	0	1	2.76322007179	None	None	None	None	1
3.0.1	2019_Mar_06_1732	s	s	7	3	SIC	216	ABS	0	0	3	2	24_3_2	NA	NA	0	1	6.24452495575	None	None	None	None	1
3.0.1	2019_Mar_06_1732	s	s	7	3	SIC	217	ABS	0	0	2	1	24_2_1	NA	NA	0	1	5.82105302811	None	None	None	None	1
3.0.1	2019_Mar_06_1732	s	s	7	3	SIC	218	ABS	0	0	1	4	24_1_4	NA	NA	0	1	1.69291496277	None	None	None	None	1
3.0.1	2019_Mar_06_1732	s	s	7	3	SIC	219	ABS	0	0	1	3	24_1_3	NA	NA	0	1	3.21610498428	None	None	None	None	1
3.0.1	2019_Mar_06_1732	s	s	7	3	SIC	220	1_1	1	1	1	4	23_1_4	0	3	1	0	0.634436130524	-178.0	243.0	-182.0	242.0	1
3.0.1	2019_Mar_06_1732	s	s	7	3	SIC	221	2_1	2	1	2	4	23_2_4	0	3	1	0	0.562216997147	122.0	409.0	132.0	411.0	1
3.0.1	2019_Mar_06_1732	s	s	7	3	SIC	222	ABS	0	0	4	1	24_4_1	NA	NA	0	1	2.43763494492	None	None	None	None	1
3.0.1	2019_Mar_06_1732	s	s	7	3	SIC	223	1_1	1	1	2	3	23_2_3	1	2	1	0	0.780222892761	121.0	38.0	109.0	43.0	1
3.0.1	2019_Mar_06_1732	s	s	7	3	SIC	224	3_2	3	2	3	4	23_3_4	0	2	1	0	0.510807037354	-410.0	123.0	-412.0	128.0	1
3.0.1	2019_Mar_06_1732	s	s	7	3	SIC	225	2_3	2	3	4	3	23_4_3	2	0	1	0	0.410886049271	-17.0	-96.0	-11.0	-97.0	1
3.0.1	2019_Mar_06_1732	s	s	7	3	SIC	226	4_2	4	2	1	3	23_1_3	3	1	1	0	0.399641036987	-538.0	356.0	-531.0	354.0	1
3.0.1	2019_Mar_06_1732	s	s	7	3	SIC	227	4_1	4	1	1	3	23_1_3	3	2	1	0	0.380382061005	345.0	348.0	345.0	346.0	1
3.0.1	2019_Mar_06_1732	s	s	7	3	SIC	228	ABS	0	0	1	3	24_1_3	NA	NA	0	1	3.18669700623	None	None	None	None	1
3.0.1	2019_Mar_06_1732	s	s	7	3	SIC	229	1_2	1	2	2	1	23_2_1	1	-1	1	0	1.35611414909	517.0	30.0	521.0	31.0	1
3.0.1	2019_Mar_06_1732	s	s	7	3	SIC	230	3_4	3	4	1	4	23_1_4	2	0	1	0	0.634407043457	-51.0	-129.0	-52.0	-140.0	1
3.0.1	2019_Mar_06_1732	s	s	7	3	SIC	231	1_1	1	1	2	1	23_2_1	1	0	1	0	3.57472681999	468.0	386.0	476.0	386.0	1
3.0.1	2019_Mar_06_1732	s	s	7	3	SIC	232	4_1	4	1	2	4	23_2_4	2	3	1	0	0.575697183609	67.0	-185.0	67.0	-182.0	1
3.0.1	2019_Mar_06_1732	s	s	7	3	SIC	233	ABS	0	0	4	3	24_4_3	NA	NA	0	1	3.06892800331	None	None	None	None	1
3.0.1	2019_Mar_06_1732	s	s	7	3	SIC	234	ABS	0	0	4	2	24_4_2	NA	NA	0	1	5.11559796333	None	None	None	None	1
3.0.1	2019_Mar_06_1732	s	s	7	3	SIC	235	1_2	1	2	1	1	23_1_1	0	-1	1	0	1.13500499725	95.0	339.0	99.0	337.0	1
3.0.1	2019_Mar_06_1732	s	s	7	3	SIC	236	ABS	0	0	4	1	24_4_1	NA	NA	0	1	2.67400217056	None	None	None	None	1
3.0.1	2019_Mar_06_1732	s	s	7	3	SIC	237	ABS	0	0	2	2	24_2_2	NA	NA	0	1	6.41433095932	None	None	None	None	1
3.0.1	2019_Mar_06_1732	s	s	7	3	SIC	238	ABS	0	0	1	4	24_1_4	NA	NA	0	1	1.52329683304	None	None	None	None	1
3.0.1	2019_Mar_06_1732	s	s	7	3	SIC	239	ABS	0	0	2	3	24_2_3	NA	NA	0	1	3.9129281044	None	None	None	None	1
3.0.1	2019_Mar_06_1732	s	s	7	3	SIC	240	4_2	4	2	4	1	23_4_1	0	-1	0	1	3.90692210197	21.0	335.0	None	None	0
3.0.1	2019_Mar_06_1732	s	s	7	3	SIC	241	3_2	3	2	3	1	23_3_1	0	-1	1	0	2.62707209587	201.0	-403.0	204.0	-403.0	1
3.0.1	2019_Mar_06_1732	s	s	7	3	SIC	242	3_3	3	3	1	3	23_1_3	2	0	1	0	0.669685125351	-313.0	31.0	-305.0	32.0	1
3.0.1	2019_Mar_06_1732	s	s	7	3	SIC	243	ABS	0	0	3	1	24_3_1	NA	NA	0	1	3.39816498756	None	None	None	None	1
3.0.1	2019_Mar_06_1732	s	s	7	3	SIC	244	ABS	0	0	3	3	24_3_3	NA	NA	0	1	2.70438694954	None	None	None	None	1
3.0.1	2019_Mar_06_1732	s	s	7	3	SIC	245	1_1	1	1	3	4	23_3_4	2	3	1	0	0.602020025253	-261.0	-288.0	-259.0	-300.0	1
3.0.1	2019_Mar_06_1732	s	s	7	3	SIC	246	ABS	0	0	1	2	24_1_2	NA	NA	0	1	7.30304288864	None	None	None	None	1
3.0.1	2019_Mar_06_1732	s	s	7	3	SIC	247	ABS	0	0	1	2	24_1_2	NA	NA	0	1	6.48266720772	None	None	None	None	1
3.0.1	2019_Mar_06_1732	s	s	7	3	SIC	248	1_3	1	3	4	1	23_4_1	3	2	1	0	0.804556846619	92.0	373.0	90.0	379.0	1
3.0.1	2019_Mar_06_1732	s	s	7	3	SIC	249	ABS	0	0	1	4	24_1_4	NA	NA	0	1	1.22633194923	None	None	None	None	1
3.0.1	2019_Mar_06_1732	s	s	7	3	SIC	250	ABS	0	0	1	2	24_1_2	NA	NA	0	1	6.56203985214	None	None	None	None	1
3.0.1	2019_Mar_06_1732	s	s	7	3	SIC	251	ABS	0	0	4	4	24_4_4	NA	NA	0	1	1.59111690521	None	None	None	None	1
3.0.1	2019_Mar_06_1732	s	s	7	3	SIC	252	ABS	0	0	3	1	24_3_1	NA	NA	0	1	2.46916913986	None	None	None	None	1
3.0.1	2019_Mar_06_1732	s	s	7	3	SIC	253	ABS	0	0	2	4	24_2_4	NA	NA	0	1	3.10426712036	None	None	None	None	1
3.0.1	2019_Mar_06_1732	s	s	7	3	SIC	254	4_4	4	4	2	2	23_2_2	2	2	1	0	0.634361982346	259.0	-280.0	260.0	-287.0	1
3.0.1	2019_Mar_06_1732	s	s	7	3	SIC	255	3_2	3	2	4	3	23_4_3	-1	1	1	0	0.516783952713	-200.0	50.0	-197.0	49.0	1
3.0.1	2019_Mar_06_1732	s	s	7	3	SIC	256	ABS	0	0	2	2	24_2_2	NA	NA	0	1	7.35513114929	None	None	None	None	1
3.0.1	2019_Mar_06_1732	s	s	7	3	SIC	257	ABS	0	0	4	2	24_4_2	NA	NA	0	1	6.6797068119	None	None	None	None	1
3.0.1	2019_Mar_06_1732	s	s	7	3	SIC	258	ABS	0	0	3	1	24_3_1	NA	NA	0	1	2.6131029129	None	None	None	None	1
3.0.1	2019_Mar_06_1732	s	s	7	3	SIC	259	1_3	1	3	3	4	23_3_4	2	-1	1	0	0.486967802048	-256.0	271.0	-256.0	263.0	1
3.0.1	2019_Mar_06_1732	s	s	7	3	SIC	260	2_1	2	1	4	1	23_4_1	2	0	1	0	0.427656173706	-188.0	34.0	-183.0	42.0	1
3.0.1	2019_Mar_06_1732	s	s	7	3	SIC	261	ABS	0	0	1	3	24_1_3	NA	NA	0	1	5.15063786507	None	None	None	None	1
3.0.1	2019_Mar_06_1732	s	s	7	3	SIC	262	ABS	0	0	4	4	24_4_4	NA	NA	0	1	1.02546286583	None	None	None	None	1
3.0.1	2019_Mar_06_1732	s	s	7	3	SIC	263	3_4	3	4	4	2	23_4_2	-1	2	0	1	0.752040863037	322.0	-392.0	None	None	0
3.0.1	2019_Mar_06_1732	s	s	7	3	SIC	264	1_2	1	2	3	2	23_3_2	2	0	1	0	0.552112102509	77.0	-351.0	80.0	-346.0	1
3.0.1	2019_Mar_06_1732	s	s	7	3	SIC	265	ABS	0	0	3	4	24_3_4	NA	NA	0	1	1.38082790375	None	None	None	None	1
3.0.1	2019_Mar_06_1732	s	s	7	3	SIC	266	2_2	2	2	4	3	23_4_3	2	1	1	0	0.652279853821	-294.0	-245.0	-286.0	-240.0	1
3.0.1	2019_Mar_06_1732	s	s	7	3	SIC	267	2_1	2	1	3	2	23_3_2	1	1	1	0	0.56389093399	-125.0	-395.0	-127.0	-401.0	1
3.0.1	2019_Mar_06_1732	s	s	7	3	SIC	268	ABS	0	0	3	1	24_3_1	NA	NA	0	1	3.36303210258	None	None	None	None	1
3.0.1	2019_Mar_06_1732	s	s	7	3	SIC	269	ABS	0	0	3	1	24_3_1	NA	NA	0	1	4.12755203247	None	None	None	None	1
3.0.1	2019_Mar_06_1732	s	s	7	3	SIC	270	4_3	4	3	3	2	23_3_2	1	1	1	0	0.580529212952	261.0	-177.0	255.0	-178.0	1
3.0.1	2019_Mar_06_1732	s	s	7	3	SIC	271	3_2	3	2	1	4	23_1_4	2	2	1	0	0.486613988876	-201.0	-289.0	-202.0	-289.0	1
3.0.1	2019_Mar_06_1732	s	s	7	3	SIC	272	4_1	4	1	4	4	23_4_4	0	3	1	0	0.545454978943	421.0	-33.0	418.0	-33.0	1
3.0.1	2019_Mar_06_1732	s	s	7	3	SIC	273	ABS	0	0	4	3	24_4_3	NA	NA	0	1	2.77494597435	None	None	None	None	1
3.0.1	2019_Mar_06_1732	s	s	7	3	SIC	274	ABS	0	0	1	3	24_1_3	NA	NA	0	1	3.69244480133	None	None	None	None	1
3.0.1	2019_Mar_06_1732	s	s	7	3	SIC	275	ABS	0	0	4	2	24_4_2	NA	NA	0	1	5.20614004135	None	None	None	None	1
3.0.1	2019_Mar_06_1732	s	s	7	3	SIC	276	ABS	0	0	3	4	24_3_4	NA	NA	0	1	1.06289410591	None	None	None	None	1
3.0.1	2019_Mar_06_1732	s	s	7	3	SIC	277	1_3	1	3	4	4	23_4_4	3	-1	1	0	0.403823852539	-429.0	331.0	-427.0	330.0	1
3.0.1	2019_Mar_06_1732	s	s	7	3	SIC	278	ABS	0	0	2	2	24_2_2	NA	NA	0	1	5.64889407158	None	None	None	None	1
3.0.1	2019_Mar_06_1732	s	s	7	3	SIC	279	ABS	0	0	4	3	24_4_3	NA	NA	0	1	3.3394639492	None	None	None	None	1
3.0.1	2019_Mar_06_1732	s	s	7	3	SIC	280	1_4	1	4	2	2	23_2_2	1	2	1	0	0.763720989227	503.0	322.0	503.0	318.0	1
3.0.1	2019_Mar_06_1732	s	s	7	3	SIC	281	2_2	2	2	3	1	23_3_1	1	-1	1	0	0.580672025681	-22.0	84.0	-15.0	85.0	1
3.0.1	2019_Mar_06_1732	s	s	7	3	SIC	282	ABS	0	0	1	4	24_1_4	NA	NA	0	1	1.61531400681	None	None	None	None	1
3.0.1	2019_Mar_06_1732	s	s	7	3	SIC	283	ABS	0	0	2	1	24_2_1	NA	NA	0	1	5.69710302353	None	None	None	None	1
3.0.1	2019_Mar_06_1732	s	s	7	3	SIC	284	1_2	1	2	4	3	23_4_3	3	1	1	0	0.599561929703	243.0	362.0	232.0	362.0	1
3.0.1	2019_Mar_06_1732	s	s	7	3	SIC	285	ABS	0	0	2	3	24_2_3	NA	NA	0	1	4.85290884972	None	None	None	None	1
3.0.1	2019_Mar_06_1732	s	s	7	3	SIC	286	ABS	0	0	1	2	24_1_2	NA	NA	0	1	4.92719912529	None	None	None	None	1
3.0.1	2019_Mar_06_1732	s	s	7	3	SIC	287	ABS	0	0	4	2	24_4_2	NA	NA	0	1	4.78610801697	None	None	None	None	1
3.0.1	2019_Mar_06_1732	s	s	7	3	SIC	288	ABS	0	0	2	4	24_2_4	NA	NA	0	1	1.92817807198	None	None	None	None	1
3.0.1	2019_Mar_06_1732	s	s	7	3	SIC	289	ABS	0	0	2	1	24_2_1	NA	NA	0	1	3.91181302071	None	None	None	None	1
3.0.1	2019_Mar_06_1732	s	s	7	3	SIC	290	3_3	3	3	3	1	23_3_1	0	2	1	0	1.82231283188	50.0	-251.0	63.0	-248.0	1
3.0.1	2019_Mar_06_1732	s	s	7	3	SIC	291	4_1	4	1	3	4	23_3_4	1	3	1	0	0.474379062653	474.0	-263.0	482.0	-262.0	1
3.0.1	2019_Mar_06_1732	s	s	7	3	SIC	292	ABS	0	0	4	4	24_4_4	NA	NA	0	1	1.73112416267	None	None	None	None	1
3.0.1	2019_Mar_06_1732	s	s	7	3	SIC	293	ABS	0	0	4	3	24_4_3	NA	NA	0	1	2.67756104469	None	None	None	None	1
3.0.1	2019_Mar_06_1732	s	s	7	3	SIC	294	3_3	3	3	2	2	23_2_2	1	1	1	0	1.72175502777	525.0	-142.0	527.0	-156.0	1
3.0.1	2019_Mar_06_1732	s	s	7	3	SIC	295	1_3	1	3	2	1	23_2_1	1	2	1	0	0.87411403656	377.0	-90.0	378.0	-88.0	1
3.0.1	2019_Mar_06_1732	s	s	7	3	SIC	296	ABS	0	0	1	4	24_1_4	NA	NA	0	1	1.53322005272	None	None	None	None	1
3.0.1	2019_Mar_06_1732	s	s	7	3	SIC	297	4_1	4	1	3	2	23_3_2	1	1	1	0	0.717214107513	434.0	146.0	430.0	139.0	1
3.0.1	2019_Mar_06_1732	s	s	7	3	SIC	298	ABS	0	0	3	2	24_3_2	NA	NA	0	1	5.69166088104	None	None	None	None	1
3.0.1	2019_Mar_06_1732	s	s	7	3	SIC	299	ABS	0	0	2	1	24_2_1	NA	NA	0	1	3.68054008484	None	None	None	None	1
3.0.1	2019_Mar_06_1732	s	s	7	3	SIC	300	1_1	1	1	2	2	23_2_2	1	1	1	0	4.60151100159	-174.0	-347.0	-182.0	-341.0	1
3.0.1	2019_Mar_06_1732	s	s	7	3	SIC	301	ABS	0	0	3	4	24_3_4	NA	NA	0	1	1.15183901787	None	None	None	None	1
3.0.1	2019_Mar_06_1732	s	s	7	3	SIC	302	3_2	3	2	3	3	23_3_3	0	1	1	0	4.66852211952	314.0	-303.0	326.0	-302.0	1
3.0.1	2019_Mar_06_1732	s	s	7	3	SIC	303	3_1	3	1	3	3	23_3_3	0	2	1	0	0.740461111069	-246.0	-94.0	-244.0	-95.0	1
3.0.1	2019_Mar_06_1732	s	s	7	3	SIC	304	4_3	4	3	2	1	23_2_1	2	2	1	0	0.430745840073	-227.0	-14.0	-227.0	-9.0	1
3.0.1	2019_Mar_06_1732	s	s	7	3	SIC	305	3_1	3	1	2	4	23_2_4	1	3	1	0	0.498615980148	-172.0	-295.0	-176.0	-305.0	1
3.0.1	2019_Mar_06_1732	s	s	7	3	SIC	306	1_1	1	1	3	2	23_3_2	2	1	1	0	0.528588056564	131.0	393.0	133.0	382.0	1
3.0.1	2019_Mar_06_1732	s	s	7	3	SIC	307	ABS	0	0	2	3	24_2_3	NA	NA	0	1	3.57797503471	None	None	None	None	1
3.0.1	2019_Mar_06_1732	s	s	7	3	SIC	308	ABS	0	0	1	3	24_1_3	NA	NA	0	1	3.69224596024	None	None	None	None	1
3.0.1	2019_Mar_06_1732	s	s	7	3	SIC	309	ABS	0	0	1	2	24_1_2	NA	NA	0	1	5.65936398506	None	None	None	None	1
3.0.1	2019_Mar_06_1732	s	s	7	3	SIC	310	2_2	2	2	1	1	23_1_1	-1	-1	1	0	0.952053070068	176.0	61.0	184.0	62.0	1
3.0.1	2019_Mar_06_1732	s	s	7	3	SIC	311	ABS	0	0	2	3	24_2_3	NA	NA	0	1	4.21467399597	None	None	None	None	1
3.0.1	2019_Mar_06_1732	s	s	7	3	SIC	312	ABS	0	0	2	4	24_2_4	NA	NA	0	1	1.73997807503	None	None	None	None	1
3.0.1	2019_Mar_06_1732	s	s	7	3	SIC	313	ABS	0	0	1	2	24_1_2	NA	NA	0	1	5.9119489193	None	None	None	None	1
3.0.1	2019_Mar_06_1732	s	s	7	3	SIC	314	ABS	0	0	1	2	24_1_2	NA	NA	0	1	5.8093111515	None	None	None	None	1
3.0.1	2019_Mar_06_1732	s	s	7	3	SIC	315	3_4	3	4	1	1	23_1_1	2	3	1	0	0.614195823669	-492.0	66.0	-487.0	56.0	1
3.0.1	2019_Mar_06_1732	s	s	7	3	SIC	316	ABS	0	0	1	1	24_1_1	NA	NA	0	1	4.36739897728	None	None	None	None	1
3.0.1	2019_Mar_06_1732	s	s	7	3	SIC	317	3_3	3	3	2	3	23_2_3	1	0	1	0	0.569175004959	-356.0	81.0	-362.0	89.0	1
3.0.1	2019_Mar_06_1732	s	s	7	3	SIC	318	1_3	1	3	1	2	23_1_2	0	1	1	0	0.893172979355	80.0	-82.0	75.0	-76.0	1
3.0.1	2019_Mar_06_1732	s	s	7	3	SIC	319	ABS	0	0	2	1	24_2_1	NA	NA	0	1	5.12072396278	None	None	None	None	1
3.0.1	2019_Mar_06_1732	s	s	7	3	SIC	320	3_2	3	2	4	2	23_4_2	-1	0	1	0	0.610943078995	-495.0	305.0	-500.0	297.0	1
3.0.1	2019_Mar_06_1732	s	s	7	3	SIC	321	ABS	0	0	1	1	24_1_1	NA	NA	0	1	4.8801779747	None	None	None	None	1
3.0.1	2019_Mar_06_1732	s	s	7	3	SIC	322	ABS	0	0	3	2	24_3_2	NA	NA	0	1	3.82177805901	None	None	None	None	1
3.0.1	2019_Mar_06_1732	s	s	7	3	SIC	323	2_3	2	3	4	4	23_4_4	2	-1	1	0	0.516731023788	-90.0	407.0	-81.0	403.0	1
3.0.1	2019_Mar_06_1732	s	s	7	3	SIC	324	4_1	4	1	2	3	23_2_3	2	2	1	0	0.496285915375	-470.0	409.0	-464.0	406.0	1
3.0.1	2019_Mar_06_1732	s	s	7	3	SIC	325	3_4	3	4	1	3	23_1_3	2	1	1	0	0.587324142456	-336.0	-374.0	-342.0	-377.0	1
3.0.1	2019_Mar_06_1732	s	s	7	3	SIC	326	3_3	3	3	4	3	23_4_3	-1	0	1	0	0.446617126465	-56.0	140.0	-52.0	129.0	1
3.0.1	2019_Mar_06_1732	s	s	7	3	SIC	327	ABS	0	0	3	3	24_3_3	NA	NA	0	1	4.65679311752	None	None	None	None	1
3.0.1	2019_Mar_06_1732	s	s	7	3	SIC	328	ABS	0	0	3	4	24_3_4	NA	NA	0	1	1.03207802773	None	None	None	None	1
3.0.1	2019_Mar_06_1732	s	s	7	3	SIC	329	ABS	0	0	4	3	24_4_3	NA	NA	0	1	2.46911811829	None	None	None	None	1
3.0.1	2019_Mar_06_1732	s	s	7	3	SIC	330	ABS	0	0	4	1	24_4_1	NA	NA	0	1	3.75614500046	None	None	None	None	1
3.0.1	2019_Mar_06_1732	s	s	7	3	SIC	331	4_3	4	3	3	3	23_3_3	1	0	1	0	0.545533895493	-377.0	-409.0	-380.0	-410.0	1
3.0.1	2019_Mar_06_1732	s	s	7	3	SIC	332	3_1	3	1	3	2	23_3_2	0	1	1	0	4.46850895882	218.0	-200.0	211.0	-199.0	1
3.0.1	2019_Mar_06_1732	s	s	7	3	SIC	333	1_2	1	2	2	3	23_2_3	1	1	1	0	0.740301847458	-88.0	66.0	-88.0	62.0	1
3.0.1	2019_Mar_06_1732	s	s	7	3	SIC	334	ABS	0	0	1	2	24_1_2	NA	NA	0	1	5.64925789833	None	None	None	None	1
3.0.1	2019_Mar_06_1732	s	s	7	3	SIC	335	1_3	1	3	2	4	23_2_4	1	-1	1	0	0.881535053253	-384.0	-301.0	-379.0	-305.0	1
3.0.1	2019_Mar_06_1732	s	s	7	3	SIC	336	3_4	3	4	3	2	23_3_2	0	2	1	0	0.475210905075	10.0	1.0	12.0	-6.0	1
3.0.1	2019_Mar_06_1732	s	s	7	3	SIC	337	ABS	0	0	2	3	24_2_3	NA	NA	0	1	4.58613204956	None	None	None	None	1
3.0.1	2019_Mar_06_1732	s	s	7	3	SIC	338	3_3	3	3	1	1	23_1_1	2	2	1	0	0.628091096878	-209.0	-187.0	-210.0	-192.0	1
3.0.1	2019_Mar_06_1732	s	s	7	3	SIC	339	4_2	4	2	2	2	23_2_2	2	0	1	0	0.369146108627	-279.0	-63.0	-282.0	-70.0	1
3.0.1	2019_Mar_06_1732	s	s	7	3	SIC	340	ABS	0	0	1	2	24_1_2	NA	NA	0	1	6.86212420464	None	None	None	None	1
3.0.1	2019_Mar_06_1732	s	s	7	3	SIC	341	2_4	2	4	4	4	23_4_4	2	0	1	0	0.505066156387	-106.0	-158.0	-103.0	-160.0	1
3.0.1	2019_Mar_06_1732	s	s	7	3	SIC	342	2_2	2	2	1	4	23_1_4	-1	2	1	0	0.55877494812	536.0	125.0	533.0	123.0	1
3.0.1	2019_Mar_06_1732	s	s	7	3	SIC	343	3_3	3	3	2	4	23_2_4	1	-1	1	0	0.554996967316	-379.0	141.0	-381.0	146.0	1
3.0.1	2019_Mar_06_1732	s	s	7	3	SIC	344	ABS	0	0	1	1	24_1_1	NA	NA	0	1	2.93963599205	None	None	None	None	1
3.0.1	2019_Mar_06_1732	s	s	7	3	SIC	345	4_2	4	2	3	1	23_3_1	1	-1	1	0	0.555006027222	-268.0	-392.0	-257.0	-387.0	1
3.0.1	2019_Mar_06_1732	s	s	7	3	SIC	346	1_3	1	3	3	3	23_3_3	2	0	1	0	0.528599977493	-316.0	-406.0	-309.0	-407.0	1
3.0.1	2019_Mar_06_1732	s	s	7	3	SIC	347	ABS	0	0	3	4	24_3_4	NA	NA	0	1	1.0277531147	None	None	None	None	1
3.0.1	2019_Mar_06_1732	s	s	7	3	SIC	348	2_3	2	3	1	2	23_1_2	-1	1	1	0	1.2136721611	-397.0	305.0	-394.0	304.0	1
3.0.1	2019_Mar_06_1732	s	s	7	3	SIC	349	ABS	0	0	4	3	24_4_3	NA	NA	0	1	3.03852009773	None	None	None	None	1
3.0.1	2019_Mar_06_1732	s	s	7	3	SIC	350	2_1	2	1	4	4	23_4_4	2	3	1	0	0.563888072968	-350.0	209.0	-340.0	207.0	1
3.0.1	2019_Mar_06_1732	s	s	7	3	SIC	351	ABS	0	0	3	3	24_3_3	NA	NA	0	1	3.32779407501	None	None	None	None	1
3.0.1	2019_Mar_06_1732	s	s	7	3	SIC	352	ABS	0	0	2	1	24_2_1	NA	NA	0	1	2.37801194191	None	None	None	None	1
3.0.1	2019_Mar_06_1732	s	s	7	3	SIC	353	ABS	0	0	1	4	24_1_4	NA	NA	0	1	0.802453994751	None	None	None	None	1
3.0.1	2019_Mar_06_1732	s	s	7	3	SIC	354	2_1	2	1	3	4	23_3_4	1	3	1	0	0.56143283844	-301.0	355.0	-310.0	352.0	1
3.0.1	2019_Mar_06_1732	s	s	7	3	SIC	355	2_3	2	3	2	4	23_2_4	0	-1	1	0	0.557418107986	318.0	101.0	326.0	108.0	1
3.0.1	2019_Mar_06_1732	s	s	7	3	SIC	356	4_2	4	2	2	4	23_2_4	2	2	1	0	0.392254114151	-195.0	227.0	-200.0	228.0	1
3.0.1	2019_Mar_06_1732	s	s	7	3	SIC	357	2_4	2	4	1	3	23_1_3	-1	1	1	0	1.08914589882	-229.0	158.0	-234.0	161.0	1
3.0.1	2019_Mar_06_1732	s	s	7	3	SIC	358	ABS	0	0	1	4	24_1_4	NA	NA	0	1	1.4958460331	None	None	None	None	1
3.0.1	2019_Mar_06_1732	s	s	7	3	SIC	359	ABS	0	0	3	2	24_3_2	NA	NA	0	1	5.28019809723	None	None	None	None	1
3.0.1	2019_Mar_06_1732	s	s	7	3	SIC	360	ABS	0	0	1	4	24_1_4	NA	NA	0	1	1.71652793884	None	None	None	None	1
3.0.1	2019_Mar_06_1732	s	s	7	3	SIC	361	ABS	0	0	2	1	24_2_1	NA	NA	0	1	6.01402997971	None	None	None	None	1
3.0.1	2019_Mar_06_1732	s	s	7	3	SIC	362	ABS	0	0	3	3	24_3_3	NA	NA	0	1	3.25713419914	None	None	None	None	1
3.0.1	2019_Mar_06_1732	s	s	7	3	SIC	363	ABS	0	0	3	2	24_3_2	NA	NA	0	1	5.3036301136	None	None	None	None	1
3.0.1	2019_Mar_06_1732	s	s	7	3	SIC	364	1_3	1	3	4	3	23_4_3	3	0	1	0	0.516807079315	-158.0	403.0	-157.0	406.0	1
3.0.1	2019_Mar_06_1732	s	s	7	3	SIC	365	ABS	0	0	4	1	24_4_1	NA	NA	0	1	3.4598710537	None	None	None	None	1
3.0.1	2019_Mar_06_1732	s	s	7	3	SIC	366	3_4	3	4	2	2	23_2_2	1	2	1	0	0.722191095352	509.0	-39.0	519.0	-29.0	1
3.0.1	2019_Mar_06_1732	s	s	7	3	SIC	367	3_2	3	2	1	2	23_1_2	2	0	1	0	0.56892991066	242.0	234.0	236.0	238.0	1
3.0.1	2019_Mar_06_1732	s	s	7	3	SIC	368	2_1	2	1	4	2	23_4_2	2	1	1	0	0.43746805191	221.0	-179.0	228.0	-181.0	1
3.0.1	2019_Mar_06_1732	s	s	7	3	SIC	369	4_3	4	3	1	3	23_1_3	3	0	1	0	0.437417984009	158.0	369.0	154.0	368.0	1
3.0.1	2019_Mar_06_1732	s	s	7	3	SIC	370	ABS	0	0	2	3	24_2_3	NA	NA	0	1	4.90368795395	None	None	None	None	1
3.0.1	2019_Mar_06_1732	s	s	7	3	SIC	371	ABS	0	0	4	2	24_4_2	NA	NA	0	1	3.24547290802	None	None	None	None	1
3.0.1	2019_Mar_06_1732	s	s	7	3	SIC	372	ABS	0	0	4	1	24_4_1	NA	NA	0	1	1.63404893875	None	None	None	None	1
3.0.1	2019_Mar_06_1732	s	s	7	3	SIC	373	ABS	0	0	1	2	24_1_2	NA	NA	0	1	5.31543183327	None	None	None	None	1
3.0.1	2019_Mar_06_1732	s	s	7	3	SIC	374	ABS	0	0	2	3	24_2_3	NA	NA	0	1	3.13956999779	None	None	None	None	1
3.0.1	2019_Mar_06_1732	s	s	7	3	SIC	375	ABS	0	0	2	4	24_2_4	NA	NA	0	1	1.55477690697	None	None	None	None	1
3.0.1	2019_Mar_06_1732	s	s	7	3	SIC	376	2_4	2	4	3	3	23_3_3	1	1	1	0	0.544929027557	165.0	-150.0	160.0	-150.0	1
3.0.1	2019_Mar_06_1732	s	s	7	3	SIC	377	4_2	4	2	4	3	23_4_3	0	1	1	0	2.97991204262	227.0	-57.0	221.0	-62.0	1
3.0.1	2019_Mar_06_1732	s	s	7	3	SIC	378	ABS	0	0	4	1	24_4_1	NA	NA	0	1	3.29534006119	None	None	None	None	1
3.0.1	2019_Mar_06_1732	s	s	7	3	SIC	379	4_3	4	3	2	2	23_2_2	2	1	1	0	0.498251914978	-33.0	-80.0	-29.0	-92.0	1
3.0.1	2019_Mar_06_1732	s	s	7	3	SIC	380	3_3	3	3	3	4	23_3_4	0	-1	1	0	0.486815214157	400.0	47.0	397.0	55.0	1
3.0.1	2019_Mar_06_1732	s	s	7	3	SIC	381	ABS	0	0	2	1	24_2_1	NA	NA	0	1	4.21674704552	None	None	None	None	1
3.0.1	2019_Mar_06_1732	s	s	7	3	SIC	382	ABS	0	0	3	2	24_3_2	NA	NA	0	1	7.93811011314	None	None	None	None	1
3.0.1	2019_Mar_06_1732	s	s	7	3	SIC	383	ABS	0	0	2	2	24_2_2	NA	NA	0	1	5.72040081024	None	None	None	None	1
3.0.1	2019_Mar_06_1732	s	s	7	3	SIC	384	ABS	0	0	3	2	24_3_2	NA	NA	0	1	7.29606509209	None	None	None	None	1
3.0.1	2019_Mar_06_1732	s	s	7	3	SIC	385	ABS	0	0	2	2	24_2_2	NA	NA	0	1	5.79584908485	None	None	None	None	1
3.0.1	2019_Mar_06_1732	s	s	7	3	SIC	386	ABS	0	0	4	2	24_4_2	NA	NA	0	1	5.7740778923	None	None	None	None	1
3.0.1	2019_Mar_06_1732	s	s	7	3	SIC	387	3_3	3	3	4	1	23_4_1	-1	2	1	0	0.731344938278	-395.0	-153.0	-391.0	-145.0	1
3.0.1	2019_Mar_06_1732	s	s	7	3	SIC	388	2_2	2	2	1	3	23_1_3	-1	1	1	0	2.70435214043	-154.0	-296.0	-153.0	-306.0	1
3.0.1	2019_Mar_06_1732	s	s	7	3	SIC	389	3_1	3	1	2	2	23_2_2	1	1	1	0	0.622627973557	-172.0	-87.0	-157.0	-81.0	1
3.0.1	2019_Mar_06_1732	s	s	7	3	SIC	390	ABS	0	0	2	2	24_2_2	NA	NA	0	1	6.56200313568	None	None	None	None	1
3.0.1	2019_Mar_06_1732	s	s	7	3	SIC	391	ABS	0	0	2	4	24_2_4	NA	NA	0	1	1.77531194687	None	None	None	None	1
3.0.1	2019_Mar_06_1732	s	s	7	3	SIC	392	3_2	3	2	2	3	23_2_3	1	1	1	0	0.56843996048	-151.0	109.0	-148.0	102.0	1
3.0.1	2019_Mar_06_1732	s	s	7	3	SIC	393	ABS	0	0	3	4	24_3_4	NA	NA	0	1	1.26640105247	None	None	None	None	1
3.0.1	2019_Mar_06_1732	s	s	7	3	SIC	394	ABS	0	0	2	4	24_2_4	NA	NA	0	1	2.50044298172	None	None	None	None	1
3.0.1	2019_Mar_06_1732	s	s	7	3	SIC	395	ABS	0	0	2	2	24_2_2	NA	NA	0	1	5.4241399765	None	None	None	None	1
3.0.1	2019_Mar_06_1732	s	s	7	3	SIC	396	2_2	2	2	2	1	23_2_1	0	-1	1	0	4.28507781029	459.0	108.0	464.0	104.0	1
3.0.1	2019_Mar_06_1732	s	s	7	3	SIC	397	ABS	0	0	1	4	24_1_4	NA	NA	0	1	2.79061412811	None	None	None	None	1
3.0.1	2019_Mar_06_1732	s	s	7	3	SIC	398	ABS	0	0	4	3	24_4_3	NA	NA	0	1	4.32334208488	None	None	None	None	1
3.0.1	2019_Mar_06_1732	s	s	7	3	SIC	399	1_2	1	2	4	4	23_4_4	3	2	1	0	0.486398935318	-40.0	144.0	-42.0	154.0	1
3.0.1	2019_Mar_06_1732	s	s	7	3	SIC	400	ABS	0	0	4	3	24_4_3	NA	NA	0	1	2.82195711136	None	None	None	None	1
3.0.1	2019_Mar_06_1732	s	s	7	3	SIC	401	3_4	3	4	1	2	23_1_2	2	2	1	0	0.54083609581	-291.0	89.0	-299.0	89.0	1
3.0.1	2019_Mar_06_1732	s	s	7	3	SIC	402	1_2	1	2	3	4	23_3_4	2	2	1	0	0.528548955917	181.0	-330.0	191.0	-332.0	1
3.0.1	2019_Mar_06_1732	s	s	7	3	SIC	403	ABS	0	0	4	4	24_4_4	NA	NA	1	0	0.963744163513	None	None	232.0	-371.0	0
3.0.1	2019_Mar_06_1732	s	s	7	3	SIC	404	ABS	0	0	1	4	24_1_4	NA	NA	0	1	1.19011592865	None	None	None	None	1
3.0.1	2019_Mar_06_1732	s	s	7	3	SIC	405	1_3	1	3	4	2	23_4_2	3	1	1	0	0.881455898285	-126.0	-284.0	-124.0	-278.0	1
3.0.1	2019_Mar_06_1732	s	s	7	3	SIC	406	1_1	1	1	4	2	23_4_2	3	1	1	0	0.486638069153	-223.0	10.0	-220.0	9.0	1
3.0.1	2019_Mar_06_1732	s	s	7	3	SIC	407	4_4	4	4	1	4	23_1_4	3	0	1	0	0.599192857742	288.0	-382.0	296.0	-380.0	1
3.0.1	2019_Mar_06_1732	s	s	7	3	SIC	408	ABS	0	0	4	2	24_4_2	NA	NA	0	1	3.85028481483	None	None	None	None	1
3.0.1	2019_Mar_06_1732	s	s	7	3	SIC	409	ABS	0	0	2	3	24_2_3	NA	NA	0	1	6.78837800026	None	None	None	None	1
3.0.1	2019_Mar_06_1732	s	s	7	3	SIC	410	ABS	0	0	4	4	24_4_4	NA	NA	0	1	0.7214179039	None	None	None	None	1
3.0.1	2019_Mar_06_1732	s	s	7	3	SIC	411	ABS	0	0	3	4	24_3_4	NA	NA	0	1	1.75170707703	None	None	None	None	1
3.0.1	2019_Mar_06_1732	s	s	7	3	SIC	412	3_2	3	2	1	1	23_1_1	2	-1	1	0	0.663038015366	81.0	40.0	80.0	44.0	1
3.0.1	2019_Mar_06_1732	s	s	7	3	SIC	413	3_2	3	2	1	3	23_1_3	2	1	1	0	1.07626199722	174.0	-356.0	171.0	-352.0	1
3.0.1	2019_Mar_06_1732	s	s	7	3	SIC	414	ABS	0	0	3	3	24_3_3	NA	NA	0	1	4.02453494072	None	None	None	None	1
3.0.1	2019_Mar_06_1732	s	s	7	3	SIC	415	4_1	4	1	1	2	23_1_2	3	1	1	0	0.533905029297	110.0	19.0	100.0	20.0	1
3.0.1	2019_Mar_06_1732	s	s	7	3	SIC	416	2_1	2	1	3	3	23_3_3	1	2	1	0	0.951975107193	357.0	315.0	355.0	312.0	1
3.0.1	2019_Mar_06_1732	s	s	7	3	SIC	417	2_4	2	4	3	2	23_3_2	1	2	1	0	0.52866101265	292.0	-16.0	289.0	-23.0	1
3.0.1	2019_Mar_06_1732	s	s	7	3	SIC	418	1_1	1	1	4	3	23_4_3	3	2	1	0	0.363942146301	-359.0	128.0	-364.0	130.0	1
3.0.1	2019_Mar_06_1732	s	s	7	3	SIC	419	ABS	0	0	1	3	24_1_3	NA	NA	0	1	5.16237592697	None	None	None	None	1
3.0.1	2019_Mar_06_1732	s	s	7	3	SIC	420	1_1	1	1	3	1	23_3_1	2	0	1	0	0.599177837372	-447.0	192.0	-445.0	183.0	1
3.0.1	2019_Mar_06_1732	s	s	7	3	SIC	421	4_3	4	3	3	4	23_3_4	1	-1	1	0	0.516826152802	-255.0	78.0	-256.0	82.0	1
3.0.1	2019_Mar_06_1732	s	s	7	3	SIC	422	3_1	3	1	4	1	23_4_1	-1	0	1	0	0.451897144318	-246.0	-234.0	-250.0	-246.0	1
3.0.1	2019_Mar_06_1732	s	s	7	3	SIC	423	2_4	2	4	1	2	23_1_2	-1	2	1	0	0.591618061066	-165.0	-248.0	-162.0	-249.0	1
3.0.1	2019_Mar_06_1732	s	s	7	3	SIC	424	ABS	0	0	1	3	24_1_3	NA	NA	0	1	4.22158098221	None	None	None	None	1
3.0.1	2019_Mar_06_1732	s	s	7	3	SIC	425	3_3	3	3	4	2	23_4_2	-1	1	1	0	0.528554916382	38.0	-46.0	43.0	-44.0	1
3.0.1	2019_Mar_06_1732	s	s	7	3	SIC	426	2_4	2	4	1	1	23_1_1	-1	3	1	0	0.605015039444	-396.0	-270.0	-396.0	-273.0	1
3.0.1	2019_Mar_06_1732	s	s	7	3	SIC	427	ABS	0	0	1	2	24_1_2	NA	NA	0	1	6.78546285629	None	None	None	None	1
3.0.1	2019_Mar_06_1732	s	s	7	3	SIC	428	2_2	2	2	3	3	23_3_3	1	1	1	0	3.06900501251	530.0	-330.0	527.0	-327.0	1
3.0.1	2019_Mar_06_1732	s	s	7	3	SIC	429	4_4	4	4	3	4	23_3_4	1	0	1	0	0.496180057526	60.0	3.0	61.0	-2.0	1
3.0.1	2019_Mar_06_1732	s	s	7	3	SIC	430	1_2	1	2	2	2	23_2_2	1	0	1	0	0.945336103439	-142.0	31.0	-142.0	26.0	1
3.0.1	2019_Mar_06_1732	s	s	7	3	SIC	431	4_1	4	1	2	1	23_2_1	2	0	1	0	0.437775850296	408.0	185.0	401.0	183.0	1
3.0.1	2019_Mar_06_1732	s	s	7	3	SIC	432	ABS	0	0	2	3	24_2_3	NA	NA	0	1	4.06321001053	None	None	None	None	1
3.0.1	2019_Mar_06_1732	s	s	7	3	SIC	433	4_1	4	1	4	3	23_4_3	0	2	1	0	1.10485100746	68.0	280.0	65.0	274.0	1
3.0.1	2019_Mar_06_1732	s	s	7	3	SIC	434	ABS	0	0	3	1	24_3_1	NA	NA	0	1	2.98002886772	None	None	None	None	1
3.0.1	2019_Mar_06_1732	s	s	7	3	SIC	435	1_2	1	2	1	4	23_1_4	0	2	1	0	0.810961961746	-463.0	343.0	-465.0	351.0	1
3.0.1	2019_Mar_06_1732	s	s	7	3	SIC	436	1_4	1	4	4	3	23_4_3	3	1	1	0	0.509808063507	-456.0	149.0	-454.0	141.0	1
3.0.1	2019_Mar_06_1732	s	s	7	3	SIC	437	ABS	0	0	2	4	24_2_4	NA	NA	0	1	1.95166420937	None	None	None	None	1
3.0.1	2019_Mar_06_1732	s	s	7	3	SIC	438	4_4	4	4	2	4	23_2_4	2	0	1	0	0.613757133484	172.0	-235.0	178.0	-231.0	1
3.0.1	2019_Mar_06_1732	s	s	7	3	SIC	439	2_4	2	4	3	1	23_3_1	1	3	1	0	0.552047014236	-95.0	-259.0	-94.0	-265.0	1
3.0.1	2019_Mar_06_1732	s	s	7	3	SIC	440	ABS	0	0	1	1	24_1_1	NA	NA	0	1	2.05158782005	None	None	None	None	1
3.0.1	2019_Mar_06_1732	s	s	7	3	SIC	441	4_4	4	4	1	1	23_1_1	3	3	1	0	1.37829589844	203.0	-368.0	204.0	-374.0	1
3.0.1	2019_Mar_06_1732	s	s	7	3	SIC	442	ABS	0	0	4	4	24_4_4	NA	NA	0	1	0.657980918884	None	None	None	None	1
3.0.1	2019_Mar_06_1732	s	s	7	3	SIC	443	1_4	1	4	3	3	23_3_3	2	1	1	0	0.576076984406	503.0	73.0	509.0	67.0	1
3.0.1	2019_Mar_06_1732	s	s	7	3	SIC	444	2_2	2	2	4	4	23_4_4	2	2	1	0	0.410903215408	480.0	91.0	475.0	92.0	1
3.0.1	2019_Mar_06_1732	s	s	7	3	SIC	445	4_4	4	4	4	2	23_4_2	0	2	1	0	0.65836596489	-16.0	-305.0	-19.0	-303.0	1
3.0.1	2019_Mar_06_1732	s	s	7	3	SIC	446	ABS	0	0	3	1	24_3_1	NA	NA	0	1	3.31884884834	None	None	None	None	1
3.0.1	2019_Mar_06_1732	s	s	7	3	SIC	447	3_4	3	4	3	1	23_3_1	0	3	1	0	0.657994031906	-496.0	88.0	-497.0	88.0	1
3.0.1	2019_Mar_06_1732	s	s	7	3	SIC	448	ABS	0	0	4	1	24_4_1	NA	NA	0	1	1.50214099884	None	None	None	None	1
3.0.1	2019_Mar_06_1732	s	s	7	3	SIC	449	ABS	0	0	1	2	24_1_2	NA	NA	0	1	5.22621798515	None	None	None	None	1
3.0.1	2019_Mar_06_1732	s	s	7	3	SIC	450	3_1	3	1	2	1	23_2_1	1	0	1	0	0.721851110458	469.0	-54.0	461.0	-52.0	1
3.0.1	2019_Mar_06_1732	s	s	7	3	SIC	451	4_3	4	3	3	1	23_3_1	1	2	1	0	0.427436113358	520.0	226.0	515.0	225.0	1
3.0.1	2019_Mar_06_1732	s	s	7	3	SIC	452	4_4	4	4	3	3	23_3_3	1	1	1	0	0.437368869781	-271.0	60.0	-276.0	50.0	1
3.0.1	2019_Mar_06_1732	s	s	7	3	SIC	453	1_4	1	4	1	2	23_1_2	0	2	1	0	0.528527021408	49.0	-238.0	51.0	-254.0	1
3.0.1	2019_Mar_06_1732	s	s	7	3	SIC	454	1_4	1	4	3	2	23_3_2	2	2	1	0	0.446228027344	104.0	31.0	110.0	30.0	1
3.0.1	2019_Mar_06_1732	s	s	7	3	SIC	455	ABS	0	0	1	3	24_1_3	NA	NA	0	1	3.11044096947	None	None	None	None	1
3.0.1	2019_Mar_06_1732	s	s	7	3	SIC	456	4_2	4	2	3	3	23_3_3	1	1	1	0	0.437386989594	-129.0	-238.0	-125.0	-232.0	1
3.0.1	2019_Mar_06_1732	s	s	7	3	SIC	457	4_1	4	1	1	4	23_1_4	3	3	1	0	0.422672986984	-353.0	87.0	-345.0	82.0	1
3.0.1	2019_Mar_06_1732	s	s	7	3	SIC	458	ABS	0	0	3	2	24_3_2	NA	NA	0	1	7.31768107414	None	None	None	None	1
3.0.1	2019_Mar_06_1732	s	s	7	3	SIC	459	4_1	4	1	4	2	23_4_2	0	1	1	0	1.26949095726	-275.0	-44.0	-277.0	-47.0	1
3.0.1	2019_Mar_06_1732	s	s	7	3	SIC	460	2_3	2	3	1	1	23_1_1	-1	2	1	0	3.69772911072	193.0	-407.0	199.0	-409.0	1
3.0.1	2019_Mar_06_1732	s	s	7	3	SIC	461	1_4	1	4	2	3	23_2_3	1	1	1	0	0.639405012131	-203.0	219.0	-200.0	220.0	1
3.0.1	2019_Mar_06_1732	s	s	7	3	SIC	462	ABS	0	0	3	3	24_3_3	NA	NA	0	1	3.48065590858	None	None	None	None	1
3.0.1	2019_Mar_06_1732	s	s	7	3	SIC	463	ABS	0	0	4	1	24_4_1	NA	NA	0	1	2.59852695465	None	None	None	None	1
3.0.1	2019_Mar_06_1732	s	s	7	3	SIC	464	ABS	0	0	4	3	24_4_3	NA	NA	0	1	3.28074193001	None	None	None	None	1
3.0.1	2019_Mar_06_1732	s	s	7	3	SIC	465	2_3	2	3	3	4	23_3_4	1	-1	1	0	1.11660289764	420.0	-310.0	425.0	-315.0	1
3.0.1	2019_Mar_06_1732	s	s	7	3	SIC	466	ABS	0	0	3	3	24_3_3	NA	NA	0	1	2.77496695518	None	None	None	None	1
3.0.1	2019_Mar_06_1732	s	s	7	3	SIC	467	2_3	2	3	1	4	23_1_4	-1	-1	1	0	1.02544903755	370.0	221.0	375.0	224.0	1
3.0.1	2019_Mar_06_1732	s	s	7	3	SIC	468	3_3	3	3	3	2	23_3_2	0	1	1	0	1.43705701828	-446.0	41.0	-440.0	37.0	1
3.0.1	2019_Mar_06_1732	s	s	7	3	SIC	469	1_1	1	1	3	3	23_3_3	2	2	1	0	0.839218854904	-519.0	397.0	-519.0	394.0	1
3.0.1	2019_Mar_06_1732	s	s	7	3	SIC	470	ABS	0	0	3	3	24_3_3	NA	NA	0	1	4.30923891068	None	None	None	None	1
3.0.1	2019_Mar_06_1732	s	s	7	3	SIC	471	4_2	4	2	3	4	23_3_4	1	2	1	0	0.516824007034	501.0	-348.0	504.0	-350.0	1
3.0.1	2019_Mar_06_1732	s	s	7	3	SIC	472	ABS	0	0	4	1	24_4_1	NA	NA	0	1	2.3836081028	None	None	None	None	1
3.0.1	2019_Mar_06_1732	s	s	7	3	SIC	473	2_2	2	2	3	4	23_3_4	1	2	1	0	0.516750097275	96.0	-7.0	101.0	-7.0	1
3.0.1	2019_Mar_06_1732	s	s	7	3	SIC	474	ABS	0	0	3	4	24_3_4	NA	NA	0	1	1.15219902992	None	None	None	None	1
3.0.1	2019_Mar_06_1732	s	s	7	3	SIC	475	ABS	0	0	3	4	24_3_4	NA	NA	0	1	1.06380391121	None	None	None	None	1
3.0.1	2019_Mar_06_1732	s	s	7	3	SIC	476	ABS	0	0	3	1	24_3_1	NA	NA	0	1	2.23404192924	None	None	None	None	1
3.0.1	2019_Mar_06_1732	s	s	7	3	SIC	477	ABS	0	0	4	4	24_4_4	NA	NA	0	1	0.893177986145	None	None	None	None	1
3.0.1	2019_Mar_06_1732	s	s	7	3	SIC	478	3_2	3	2	2	1	23_2_1	1	-1	1	0	0.794554233551	341.0	188.0	347.0	190.0	1
3.0.1	2019_Mar_06_1732	s	s	7	3	SIC	479	4_3	4	3	2	3	23_2_3	2	0	1	0	0.422759056091	-134.0	69.0	-139.0	69.0	1
3.0.1	2019_Mar_06_1732	s	s	7	3	SIC	480	1_4	1	4	4	4	23_4_4	3	0	1	0	0.422717809677	408.0	-66.0	409.0	-58.0	1
