Version	Date	Stimuli	Method	Subject	Session	Condition	Trial	Target	TColor	TShape	DColor	DShape	Distractors	Channel1	Channel2	LMouseButton	RMouseButton	RT	TargetX	TargetY	ResponseX	ResponseY	Correct
3.0.1	2019_Mar_07_1725	s	s	7	4	Capacity	1	1_1	1	1	4	1	23_4_1	3	0	1	0	0.540686130524	274.0	-256.0	272.0	-264.0	1
3.0.1	2019_Mar_07_1725	s	s	7	4	Capacity	2	3_1	3	1	4	1	23_4_1	-1	0	1	0	0.575742959976	-409.0	12.0	-404.0	15.0	1
3.0.1	2019_Mar_07_1725	s	s	7	4	Capacity	3	4_1	4	1	3	1	23_3_1	1	0	1	0	0.481558084488	354.0	190.0	347.0	197.0	1
3.0.1	2019_Mar_07_1725	s	s	7	4	Capacity	4	2_1	2	1	3	1	23_3_1	1	0	1	0	0.731467008591	226.0	-36.0	217.0	-38.0	1
3.0.1	2019_Mar_07_1725	s	s	7	4	Capacity	5	4_1	4	1	2	1	23_2_1	2	0	1	0	0.422794818878	98.0	-44.0	94.0	-36.0	1
3.0.1	2019_Mar_07_1725	s	s	7	4	Capacity	6	2_1	2	1	1	1	23_1_1	-1	0	1	0	1.91363096237	-193.0	184.0	-193.0	180.0	1
3.0.1	2019_Mar_07_1725	s	s	7	4	Capacity	7	ABS	0	0	2	1	24_2_1	NA	NA	0	1	4.89711093903	None	None	None	None	1
3.0.1	2019_Mar_07_1725	s	s	7	4	Capacity	8	ABS	0	0	3	1	24_3_1	NA	NA	0	1	4.0451669693	None	None	None	None	1
3.0.1	2019_Mar_07_1725	s	s	7	4	Capacity	9	ABS	0	0	1	1	24_1_1	NA	NA	0	1	5.40949010849	None	None	None	None	1
3.0.1	2019_Mar_07_1725	s	s	7	4	Capacity	10	ABS	0	0	4	1	24_4_1	NA	NA	0	1	2.09719181061	None	None	None	None	1
3.0.1	2019_Mar_07_1725	s	s	7	4	Capacity	11	2_1	2	1	4	1	23_4_1	2	0	1	0	0.547706842422	-403.0	-5.0	-397.0	-10.0	1
3.0.1	2019_Mar_07_1725	s	s	7	4	Capacity	12	4_1	4	1	1	1	23_1_1	3	0	1	0	0.49330496788	380.0	222.0	379.0	212.0	1
3.0.1	2019_Mar_07_1725	s	s	7	4	Capacity	13	ABS	0	0	3	1	24_3_1	NA	NA	0	1	4.56280493736	None	None	None	None	1
3.0.1	2019_Mar_07_1725	s	s	7	4	Capacity	14	3_1	3	1	2	1	23_2_1	1	0	1	0	0.940235137939	199.0	-369.0	193.0	-368.0	1
3.0.1	2019_Mar_07_1725	s	s	7	4	Capacity	15	ABS	0	0	2	1	24_2_1	NA	NA	0	1	7.23759794235	None	None	None	None	1
3.0.1	2019_Mar_07_1725	s	s	7	4	Capacity	16	ABS	0	0	4	1	24_4_1	NA	NA	0	1	1.91641378403	None	None	None	None	1
3.0.1	2019_Mar_07_1725	s	s	7	4	Capacity	17	1_1	1	1	3	1	23_3_1	2	0	1	0	0.587413072586	358.0	44.0	361.0	40.0	1
3.0.1	2019_Mar_07_1725	s	s	7	4	Capacity	18	ABS	0	0	4	1	24_4_1	NA	NA	0	1	1.4627828598	None	None	None	None	1
3.0.1	2019_Mar_07_1725	s	s	7	4	Capacity	19	ABS	0	0	1	1	24_1_1	NA	NA	0	1	6.02490401268	None	None	None	None	1
3.0.1	2019_Mar_07_1725	s	s	7	4	Capacity	20	1_1	1	1	2	1	23_2_1	1	0	1	0	0.69328212738	168.0	275.0	167.0	265.0	1
3.0.1	2019_Mar_07_1725	s	s	7	4	Capacity	21	ABS	0	0	1	1	24_1_1	NA	NA	0	1	4.79410505295	None	None	None	None	1
3.0.1	2019_Mar_07_1725	s	s	7	4	Capacity	22	3_1	3	1	1	1	23_1_1	2	0	1	0	1.17547392845	412.0	-41.0	415.0	-42.0	1
3.0.1	2019_Mar_07_1725	s	s	7	4	Capacity	23	ABS	0	0	2	1	24_2_1	NA	NA	0	1	3.99814486504	None	None	None	None	1
3.0.1	2019_Mar_07_1725	s	s	7	4	Capacity	24	ABS	0	0	3	1	24_3_1	NA	NA	0	1	2.02516508102	None	None	None	None	1
3.0.1	2019_Mar_07_1725	s	s	7	4	Capacity	25	ABS	0	0	2	1	24_2_1	NA	NA	0	1	3.7677500248	None	None	None	None	1
3.0.1	2019_Mar_07_1725	s	s	7	4	Capacity	26	ABS	0	0	3	1	24_3_1	NA	NA	0	1	1.86934113503	None	None	None	None	1
3.0.1	2019_Mar_07_1725	s	s	7	4	Capacity	27	ABS	0	0	4	1	24_4_1	NA	NA	0	1	1.90779209137	None	None	None	None	1
3.0.1	2019_Mar_07_1725	s	s	7	4	Capacity	28	ABS	0	0	4	1	24_4_1	NA	NA	0	1	3.89223885536	None	None	None	None	1
3.0.1	2019_Mar_07_1725	s	s	7	4	Capacity	29	2_1	2	1	3	1	23_3_1	1	0	1	0	0.893168926239	-524.0	315.0	-526.0	322.0	1
3.0.1	2019_Mar_07_1725	s	s	7	4	Capacity	30	ABS	0	0	3	1	24_3_1	NA	NA	0	1	4.50147509575	None	None	None	None	1
3.0.1	2019_Mar_07_1725	s	s	7	4	Capacity	31	1_1	1	1	4	1	23_4_1	3	0	1	0	0.540694952011	399.0	282.0	390.0	282.0	1
3.0.1	2019_Mar_07_1725	s	s	7	4	Capacity	32	ABS	0	0	1	1	24_1_1	NA	NA	0	1	6.51497197151	None	None	None	None	1
3.0.1	2019_Mar_07_1725	s	s	7	4	Capacity	33	2_1	2	1	1	1	23_1_1	-1	0	1	0	4.81257796288	117.0	-275.0	120.0	-270.0	1
3.0.1	2019_Mar_07_1725	s	s	7	4	Capacity	34	1_1	1	1	2	1	23_2_1	1	0	1	0	0.896493196487	240.0	34.0	233.0	39.0	1
3.0.1	2019_Mar_07_1725	s	s	7	4	Capacity	35	4_1	4	1	2	1	23_2_1	2	0	1	0	0.587373971939	89.0	-332.0	89.0	-333.0	1
3.0.1	2019_Mar_07_1725	s	s	7	4	Capacity	36	ABS	0	0	4	1	24_4_1	NA	NA	0	1	0.88520693779	None	None	None	None	1
3.0.1	2019_Mar_07_1725	s	s	7	4	Capacity	37	ABS	0	0	2	1	24_2_1	NA	NA	0	1	5.27371311188	None	None	None	None	1
3.0.1	2019_Mar_07_1725	s	s	7	4	Capacity	38	ABS	0	0	1	1	24_1_1	NA	NA	0	1	5.28495502472	None	None	None	None	1
3.0.1	2019_Mar_07_1725	s	s	7	4	Capacity	39	3_1	3	1	2	1	23_2_1	1	0	1	0	2.10459804535	527.0	221.0	518.0	220.0	1
3.0.1	2019_Mar_07_1725	s	s	7	4	Capacity	40	3_1	3	1	1	1	23_1_1	2	0	1	0	0.533609867096	-61.0	-308.0	-59.0	-307.0	1
3.0.1	2019_Mar_07_1725	s	s	7	4	Capacity	41	1_1	1	1	3	1	23_3_1	2	0	1	0	0.437355995178	-204.0	85.0	-200.0	80.0	1
3.0.1	2019_Mar_07_1725	s	s	7	4	Capacity	42	ABS	0	0	2	1	24_2_1	NA	NA	0	1	6.12153220177	None	None	None	None	1
3.0.1	2019_Mar_07_1725	s	s	7	4	Capacity	43	4_1	4	1	1	1	23_1_1	3	0	1	0	0.587354898453	-229.0	-73.0	-226.0	-79.0	1
3.0.1	2019_Mar_07_1725	s	s	7	4	Capacity	44	ABS	0	0	3	1	24_3_1	NA	NA	0	1	4.59796404839	None	None	None	None	1
3.0.1	2019_Mar_07_1725	s	s	7	4	Capacity	45	ABS	0	0	1	1	24_1_1	NA	NA	0	1	4.5683400631	None	None	None	None	1
3.0.1	2019_Mar_07_1725	s	s	7	4	Capacity	46	3_1	3	1	4	1	23_4_1	-1	0	1	0	0.634371995926	523.0	202.0	523.0	202.0	1
3.0.1	2019_Mar_07_1725	s	s	7	4	Capacity	47	2_1	2	1	4	1	23_4_1	2	0	1	0	0.599154949188	123.0	-382.0	123.0	-377.0	1
3.0.1	2019_Mar_07_1725	s	s	7	4	Capacity	48	4_1	4	1	3	1	23_3_1	1	0	1	0	0.710875988007	179.0	112.0	172.0	109.0	1
3.0.1	2019_Mar_07_1725	s	s	7	4	Capacity	49	3_1	3	1	1	1	23_1_1	2	0	1	0	1.39895391464	534.0	399.0	529.0	394.0	1
3.0.1	2019_Mar_07_1725	s	s	7	4	Capacity	50	3_1	3	1	4	1	23_4_1	-1	0	1	0	0.510197877884	431.0	-372.0	430.0	-373.0	1
3.0.1	2019_Mar_07_1725	s	s	7	4	Capacity	51	ABS	0	0	1	1	24_1_1	NA	NA	0	1	5.52714395523	None	None	None	None	1
3.0.1	2019_Mar_07_1725	s	s	7	4	Capacity	52	4_1	4	1	1	1	23_1_1	3	0	1	0	0.546783924103	55.0	-202.0	56.0	-200.0	1
3.0.1	2019_Mar_07_1725	s	s	7	4	Capacity	53	ABS	0	0	3	1	24_3_1	NA	NA	0	1	3.96578407288	None	None	None	None	1
3.0.1	2019_Mar_07_1725	s	s	7	4	Capacity	54	ABS	0	0	2	1	24_2_1	NA	NA	0	1	5.30835390091	None	None	None	None	1
3.0.1	2019_Mar_07_1725	s	s	7	4	Capacity	55	3_1	3	1	2	1	23_2_1	1	0	1	0	0.681433200836	-394.0	263.0	-393.0	263.0	1
3.0.1	2019_Mar_07_1725	s	s	7	4	Capacity	56	ABS	0	0	2	1	24_2_1	NA	NA	0	1	4.23321390152	None	None	None	None	1
3.0.1	2019_Mar_07_1725	s	s	7	4	Capacity	57	ABS	0	0	1	1	24_1_1	NA	NA	0	1	5.17421507835	None	None	None	None	1
3.0.1	2019_Mar_07_1725	s	s	7	4	Capacity	58	1_1	1	1	2	1	23_2_1	1	0	1	0	1.03076314926	125.0	-44.0	128.0	-42.0	1
3.0.1	2019_Mar_07_1725	s	s	7	4	Capacity	59	2_1	2	1	4	1	23_4_1	2	0	1	0	0.474941015244	223.0	-201.0	226.0	-200.0	1
3.0.1	2019_Mar_07_1725	s	s	7	4	Capacity	60	ABS	0	0	4	1	24_4_1	NA	NA	0	1	1.83406591415	None	None	None	None	1
3.0.1	2019_Mar_07_1725	s	s	7	4	Capacity	61	ABS	0	0	4	1	24_4_1	NA	NA	0	1	1.88624405861	None	None	None	None	1
3.0.1	2019_Mar_07_1725	s	s	7	4	Capacity	62	ABS	0	0	2	1	24_2_1	NA	NA	0	1	8.02582597733	None	None	None	None	1
3.0.1	2019_Mar_07_1725	s	s	7	4	Capacity	63	2_1	2	1	1	1	23_1_1	-1	0	1	0	1.35187506676	-121.0	121.0	-126.0	116.0	1
3.0.1	2019_Mar_07_1725	s	s	7	4	Capacity	64	4_1	4	1	2	1	23_2_1	2	0	1	0	0.486989021301	279.0	-162.0	281.0	-155.0	1
3.0.1	2019_Mar_07_1725	s	s	7	4	Capacity	65	ABS	0	0	1	1	24_1_1	NA	NA	0	1	6.42096400261	None	None	None	None	1
3.0.1	2019_Mar_07_1725	s	s	7	4	Capacity	66	ABS	0	0	3	1	24_3_1	NA	NA	0	1	3.17995405197	None	None	None	None	1
3.0.1	2019_Mar_07_1725	s	s	7	4	Capacity	67	2_1	2	1	3	1	23_3_1	1	0	1	0	0.604063987732	254.0	86.0	255.0	88.0	1
3.0.1	2019_Mar_07_1725	s	s	7	4	Capacity	68	ABS	0	0	4	1	24_4_1	NA	NA	0	1	1.33431506157	None	None	None	None	1
3.0.1	2019_Mar_07_1725	s	s	7	4	Capacity	69	4_1	4	1	3	1	23_3_1	1	0	1	0	1.09923791885	457.0	263.0	465.0	257.0	1
3.0.1	2019_Mar_07_1725	s	s	7	4	Capacity	70	1_1	1	1	3	1	23_3_1	2	0	1	0	0.557129144669	-455.0	119.0	-455.0	111.0	1
3.0.1	2019_Mar_07_1725	s	s	7	4	Capacity	71	1_1	1	1	4	1	23_4_1	3	0	1	0	0.457984924316	20.0	-314.0	17.0	-308.0	1
3.0.1	2019_Mar_07_1725	s	s	7	4	Capacity	72	ABS	0	0	3	1	24_3_1	NA	NA	0	1	2.91609096527	None	None	None	None	1
3.0.1	2019_Mar_07_1725	s	s	7	4	Capacity	73	4_1	4	1	3	1	23_3_1	1	0	1	0	0.678709983826	-123.0	-234.0	-131.0	-234.0	1
3.0.1	2019_Mar_07_1725	s	s	7	4	Capacity	74	3_1	3	1	1	1	23_1_1	2	0	1	0	0.63441491127	-326.0	155.0	-320.0	151.0	1
3.0.1	2019_Mar_07_1725	s	s	7	4	Capacity	75	1_1	1	1	2	1	23_2_1	1	0	1	0	0.587337017059	79.0	132.0	88.0	135.0	1
3.0.1	2019_Mar_07_1725	s	s	7	4	Capacity	76	3_1	3	1	4	1	23_4_1	-1	0	1	0	0.437385797501	-147.0	-53.0	-154.0	-60.0	1
3.0.1	2019_Mar_07_1725	s	s	7	4	Capacity	77	ABS	0	0	2	1	24_2_1	NA	NA	0	1	7.24417495728	None	None	None	None	1
3.0.1	2019_Mar_07_1725	s	s	7	4	Capacity	78	4_1	4	1	2	1	23_2_1	2	0	1	0	0.546637058258	151.0	231.0	147.0	231.0	1
3.0.1	2019_Mar_07_1725	s	s	7	4	Capacity	79	2_1	2	1	1	1	23_1_1	-1	0	1	0	0.834402084351	-145.0	128.0	-139.0	136.0	1
3.0.1	2019_Mar_07_1725	s	s	7	4	Capacity	80	ABS	0	0	4	1	24_4_1	NA	NA	0	1	0.893220186234	None	None	None	None	1
3.0.1	2019_Mar_07_1725	s	s	7	4	Capacity	81	3_1	3	1	2	1	23_2_1	1	0	1	0	0.723294973373	338.0	-95.0	347.0	-93.0	1
3.0.1	2019_Mar_07_1725	s	s	7	4	Capacity	82	ABS	0	0	1	1	24_1_1	NA	NA	0	1	4.67136502266	None	None	None	None	1
3.0.1	2019_Mar_07_1725	s	s	7	4	Capacity	83	ABS	0	0	2	1	24_2_1	NA	NA	0	1	3.02195882797	None	None	None	None	1
3.0.1	2019_Mar_07_1725	s	s	7	4	Capacity	84	ABS	0	0	2	1	24_2_1	NA	NA	0	1	4.6973528862	None	None	None	None	1
3.0.1	2019_Mar_07_1725	s	s	7	4	Capacity	85	ABS	0	0	4	1	24_4_1	NA	NA	0	1	0.74325799942	None	None	None	None	1
3.0.1	2019_Mar_07_1725	s	s	7	4	Capacity	86	1_1	1	1	4	1	23_4_1	3	0	1	0	0.69818687439	-460.0	-252.0	-460.0	-255.0	1
3.0.1	2019_Mar_07_1725	s	s	7	4	Capacity	87	ABS	0	0	4	1	24_4_1	NA	NA	0	1	1.062707901	None	None	None	None	1
3.0.1	2019_Mar_07_1725	s	s	7	4	Capacity	88	2_1	2	1	4	1	23_4_1	2	0	1	0	1.07351207733	390.0	394.0	386.0	394.0	1
3.0.1	2019_Mar_07_1725	s	s	7	4	Capacity	89	ABS	0	0	1	1	24_1_1	NA	NA	0	1	6.00926804543	None	None	None	None	1
3.0.1	2019_Mar_07_1725	s	s	7	4	Capacity	90	ABS	0	0	3	1	24_3_1	NA	NA	0	1	3.33429980278	None	None	None	None	1
3.0.1	2019_Mar_07_1725	s	s	7	4	Capacity	91	ABS	0	0	3	1	24_3_1	NA	NA	0	1	2.88506507874	None	None	None	None	1
3.0.1	2019_Mar_07_1725	s	s	7	4	Capacity	92	ABS	0	0	3	1	24_3_1	NA	NA	0	1	3.23364591599	None	None	None	None	1
3.0.1	2019_Mar_07_1725	s	s	7	4	Capacity	93	2_1	2	1	3	1	23_3_1	1	0	1	0	0.96665096283	503.0	-69.0	491.0	-67.0	1
3.0.1	2019_Mar_07_1725	s	s	7	4	Capacity	94	4_1	4	1	1	1	23_1_1	3	0	1	0	0.607188940048	336.0	324.0	343.0	322.0	1
3.0.1	2019_Mar_07_1725	s	s	7	4	Capacity	95	1_1	1	1	3	1	23_3_1	2	0	1	0	0.839562892914	-169.0	-327.0	-165.0	-321.0	1
3.0.1	2019_Mar_07_1725	s	s	7	4	Capacity	96	ABS	0	0	1	1	24_1_1	NA	NA	0	1	4.90002298355	None	None	None	None	1
3.0.1	2019_Mar_07_1725	s	s	7	4	Capacity	1	ABS	0	0	1	2	24_1_2	NA	NA	0	1	4.86849498749	None	None	None	None	1
3.0.1	2019_Mar_07_1725	s	s	7	4	Capacity	2	ABS	0	0	1	1	24_1_1	NA	NA	0	1	3.75120806694	None	None	None	None	1
3.0.1	2019_Mar_07_1725	s	s	7	4	Capacity	3	1_2	1	2	1	3	23_1_3	0	1	1	0	1.28616404533	-351.0	375.0	-350.0	377.0	1
3.0.1	2019_Mar_07_1725	s	s	7	4	Capacity	4	ABS	0	0	1	2	24_1_2	NA	NA	0	1	4.62650799751	None	None	None	None	1
3.0.1	2019_Mar_07_1725	s	s	7	4	Capacity	5	1_4	1	4	1	3	23_1_3	0	1	1	0	0.604421854019	-159.0	35.0	-162.0	36.0	1
3.0.1	2019_Mar_07_1725	s	s	7	4	Capacity	6	ABS	0	0	1	4	24_1_4	NA	NA	0	1	1.59193897247	None	None	None	None	1
3.0.1	2019_Mar_07_1725	s	s	7	4	Capacity	7	1_1	1	1	1	2	23_1_2	0	1	1	0	5.06848096848	-517.0	-389.0	-515.0	-392.0	1
3.0.1	2019_Mar_07_1725	s	s	7	4	Capacity	8	ABS	0	0	1	1	24_1_1	NA	NA	0	1	4.44254183769	None	None	None	None	1
3.0.1	2019_Mar_07_1725	s	s	7	4	Capacity	9	ABS	0	0	1	3	24_1_3	NA	NA	0	1	4.28444719315	None	None	None	None	1
3.0.1	2019_Mar_07_1725	s	s	7	4	Capacity	10	1_1	1	1	1	3	23_1_3	0	2	1	0	0.89856004715	535.0	159.0	532.0	158.0	1
3.0.1	2019_Mar_07_1725	s	s	7	4	Capacity	11	1_1	1	1	1	4	23_1_4	0	3	1	0	0.516756057739	100.0	-62.0	97.0	-57.0	1
3.0.1	2019_Mar_07_1725	s	s	7	4	Capacity	12	ABS	0	0	1	2	24_1_2	NA	NA	0	1	4.92999410629	None	None	None	None	1
3.0.1	2019_Mar_07_1725	s	s	7	4	Capacity	13	ABS	0	0	1	3	24_1_3	NA	NA	0	1	4.68550395966	None	None	None	None	1
3.0.1	2019_Mar_07_1725	s	s	7	4	Capacity	14	1_4	1	4	1	2	23_1_2	0	2	1	0	0.561415910721	-58.0	-7.0	-49.0	-2.0	1
3.0.1	2019_Mar_07_1725	s	s	7	4	Capacity	15	1_3	1	3	1	4	23_1_4	0	-1	1	0	0.940224170685	290.0	273.0	301.0	273.0	1
3.0.1	2019_Mar_07_1725	s	s	7	4	Capacity	16	ABS	0	0	1	4	24_1_4	NA	NA	0	1	1.26959705353	None	None	None	None	1
3.0.1	2019_Mar_07_1725	s	s	7	4	Capacity	17	ABS	0	0	1	4	24_1_4	NA	NA	0	1	1.52827095985	None	None	None	None	1
3.0.1	2019_Mar_07_1725	s	s	7	4	Capacity	18	ABS	0	0	1	3	24_1_3	NA	NA	0	1	5.36242318153	None	None	None	None	1
3.0.1	2019_Mar_07_1725	s	s	7	4	Capacity	19	ABS	0	0	1	1	24_1_1	NA	NA	0	1	3.96725988388	None	None	None	None	1
3.0.1	2019_Mar_07_1725	s	s	7	4	Capacity	20	1_2	1	2	1	1	23_1_1	0	-1	1	0	2.58679199219	398.0	226.0	398.0	231.0	1
3.0.1	2019_Mar_07_1725	s	s	7	4	Capacity	21	1_2	1	2	1	4	23_1_4	0	2	1	0	0.704982995987	-474.0	24.0	-477.0	18.0	1
3.0.1	2019_Mar_07_1725	s	s	7	4	Capacity	22	1_4	1	4	1	1	23_1_1	0	3	1	0	0.55503487587	-163.0	121.0	-161.0	114.0	1
3.0.1	2019_Mar_07_1725	s	s	7	4	Capacity	23	1_3	1	3	1	2	23_1_2	0	1	1	0	3.89231610298	275.0	-410.0	266.0	-402.0	1
3.0.1	2019_Mar_07_1725	s	s	7	4	Capacity	24	1_3	1	3	1	1	23_1_1	0	2	1	0	0.997426986694	326.0	-240.0	321.0	-232.0	1
3.0.1	2019_Mar_07_1725	s	s	7	4	Capacity	25	ABS	0	0	1	2	24_1_2	NA	NA	0	1	5.17462015152	None	None	None	None	1
3.0.1	2019_Mar_07_1725	s	s	7	4	Capacity	26	ABS	0	0	1	2	24_1_2	NA	NA	0	1	4.15103197098	None	None	None	None	1
3.0.1	2019_Mar_07_1725	s	s	7	4	Capacity	27	1_1	1	1	1	2	23_1_2	0	1	1	0	4.74502491951	278.0	-377.0	283.0	-376.0	1
3.0.1	2019_Mar_07_1725	s	s	7	4	Capacity	28	1_3	1	3	1	1	23_1_1	0	2	1	0	1.52830791473	-204.0	-340.0	-201.0	-334.0	1
3.0.1	2019_Mar_07_1725	s	s	7	4	Capacity	29	ABS	0	0	1	3	24_1_3	NA	NA	0	1	4.04513597488	None	None	None	None	1
3.0.1	2019_Mar_07_1725	s	s	7	4	Capacity	30	1_3	1	3	1	2	23_1_2	0	1	1	0	1.19319415092	-384.0	409.0	-380.0	404.0	1
3.0.1	2019_Mar_07_1725	s	s	7	4	Capacity	31	1_4	1	4	1	3	23_1_3	0	1	1	0	0.795958995819	-96.0	-259.0	-88.0	-263.0	1
3.0.1	2019_Mar_07_1725	s	s	7	4	Capacity	32	1_4	1	4	1	1	23_1_1	0	3	1	0	0.557361841202	130.0	391.0	142.0	393.0	1
3.0.1	2019_Mar_07_1725	s	s	7	4	Capacity	33	1_2	1	2	1	1	23_1_1	0	-1	1	0	1.1804690361	-501.0	-81.0	-509.0	-84.0	1
3.0.1	2019_Mar_07_1725	s	s	7	4	Capacity	34	ABS	0	0	1	2	24_1_2	NA	NA	0	1	6.52699398994	None	None	None	None	1
3.0.1	2019_Mar_07_1725	s	s	7	4	Capacity	35	ABS	0	0	1	4	24_1_4	NA	NA	0	1	1.15192198753	None	None	None	None	1
3.0.1	2019_Mar_07_1725	s	s	7	4	Capacity	36	ABS	0	0	1	1	24_1_1	NA	NA	0	1	3.96708393097	None	None	None	None	1
3.0.1	2019_Mar_07_1725	s	s	7	4	Capacity	37	1_2	1	2	1	4	23_1_4	0	2	1	0	0.634415864944	293.0	-315.0	295.0	-317.0	1
3.0.1	2019_Mar_07_1725	s	s	7	4	Capacity	38	ABS	0	0	1	3	24_1_3	NA	NA	0	1	3.69223999977	None	None	None	None	1
3.0.1	2019_Mar_07_1725	s	s	7	4	Capacity	39	ABS	0	0	1	4	24_1_4	NA	NA	0	1	0.857847929001	None	None	None	None	1
3.0.1	2019_Mar_07_1725	s	s	7	4	Capacity	40	1_1	1	1	1	4	23_1_4	0	3	1	0	0.599257946014	251.0	262.0	251.0	266.0	1
3.0.1	2019_Mar_07_1725	s	s	7	4	Capacity	41	1_1	1	1	1	3	23_1_3	0	2	1	0	0.708691120148	53.0	90.0	51.0	98.0	1
3.0.1	2019_Mar_07_1725	s	s	7	4	Capacity	42	ABS	0	0	1	3	24_1_3	NA	NA	0	1	3.77468490601	None	None	None	None	1
3.0.1	2019_Mar_07_1725	s	s	7	4	Capacity	43	1_3	1	3	1	4	23_1_4	0	-1	1	0	0.646203041077	-363.0	223.0	-363.0	221.0	1
3.0.1	2019_Mar_07_1725	s	s	7	4	Capacity	44	1_4	1	4	1	2	23_1_2	0	2	1	0	0.533236980438	37.0	40.0	42.0	41.0	1
3.0.1	2019_Mar_07_1725	s	s	7	4	Capacity	45	ABS	0	0	1	4	24_1_4	NA	NA	0	1	1.37828993797	None	None	None	None	1
3.0.1	2019_Mar_07_1725	s	s	7	4	Capacity	46	ABS	0	0	1	1	24_1_1	NA	NA	0	1	4.39799904823	None	None	None	None	1
3.0.1	2019_Mar_07_1725	s	s	7	4	Capacity	47	1_2	1	2	1	3	23_1_3	0	1	1	0	0.591930866241	17.0	189.0	21.0	178.0	1
3.0.1	2019_Mar_07_1725	s	s	7	4	Capacity	48	ABS	0	0	1	1	24_1_1	NA	NA	0	1	4.93910598755	None	None	None	None	1
3.0.1	2019_Mar_07_1725	s	s	7	4	Capacity	49	ABS	0	0	1	3	24_1_3	NA	NA	0	1	3.50054097176	None	None	None	None	1
3.0.1	2019_Mar_07_1725	s	s	7	4	Capacity	50	1_2	1	2	1	1	23_1_1	0	-1	0	1	4.42156100273	188.0	-270.0	None	None	0
3.0.1	2019_Mar_07_1725	s	s	7	4	Capacity	51	ABS	0	0	1	1	24_1_1	NA	NA	0	1	4.25685596466	None	None	None	None	1
3.0.1	2019_Mar_07_1725	s	s	7	4	Capacity	52	1_4	1	4	1	1	23_1_1	0	3	1	0	1.14303803444	518.0	-73.0	527.0	-71.0	1
3.0.1	2019_Mar_07_1725	s	s	7	4	Capacity	53	1_4	1	4	1	3	23_1_3	0	1	1	0	0.72238612175	-397.0	379.0	-400.0	377.0	1
3.0.1	2019_Mar_07_1725	s	s	7	4	Capacity	54	1_3	1	3	1	2	23_1_2	0	1	1	0	1.88110995293	436.0	181.0	450.0	189.0	1
3.0.1	2019_Mar_07_1725	s	s	7	4	Capacity	55	ABS	0	0	1	2	24_1_2	NA	NA	0	1	4.07161998749	None	None	None	None	1
3.0.1	2019_Mar_07_1725	s	s	7	4	Capacity	56	1_1	1	1	1	4	23_1_4	0	3	1	0	0.555033922195	-414.0	-150.0	-417.0	-156.0	1
3.0.1	2019_Mar_07_1725	s	s	7	4	Capacity	57	1_2	1	2	1	3	23_1_3	0	1	1	0	4.03340411186	-234.0	-347.0	-231.0	-347.0	1
3.0.1	2019_Mar_07_1725	s	s	7	4	Capacity	58	ABS	0	0	1	2	24_1_2	NA	NA	0	1	6.42378091812	None	None	None	None	1
3.0.1	2019_Mar_07_1725	s	s	7	4	Capacity	59	ABS	0	0	1	4	24_1_4	NA	NA	0	1	0.857890129089	None	None	None	None	1
3.0.1	2019_Mar_07_1725	s	s	7	4	Capacity	60	ABS	0	0	1	3	24_1_3	NA	NA	0	1	4.61260890961	None	None	None	None	1
3.0.1	2019_Mar_07_1725	s	s	7	4	Capacity	61	1_2	1	2	1	4	23_1_4	0	2	1	0	0.699617147446	86.0	354.0	85.0	352.0	1
3.0.1	2019_Mar_07_1725	s	s	7	4	Capacity	62	ABS	0	0	1	4	24_1_4	NA	NA	0	1	1.29760789871	None	None	None	None	1
3.0.1	2019_Mar_07_1725	s	s	7	4	Capacity	63	1_1	1	1	1	2	23_1_2	0	1	1	0	0.956739902496	-529.0	142.0	-538.0	139.0	1
3.0.1	2019_Mar_07_1725	s	s	7	4	Capacity	64	1_1	1	1	1	3	23_1_3	0	2	1	0	0.981365919113	511.0	8.0	510.0	7.0	1
3.0.1	2019_Mar_07_1725	s	s	7	4	Capacity	65	ABS	0	0	1	4	24_1_4	NA	NA	0	1	1.3103749752	None	None	None	None	1
3.0.1	2019_Mar_07_1725	s	s	7	4	Capacity	66	ABS	0	0	1	1	24_1_1	NA	NA	0	1	3.02586197853	None	None	None	None	1
3.0.1	2019_Mar_07_1725	s	s	7	4	Capacity	67	1_3	1	3	1	4	23_1_4	0	-1	1	0	0.693626880646	-451.0	-73.0	-444.0	-71.0	1
3.0.1	2019_Mar_07_1725	s	s	7	4	Capacity	68	ABS	0	0	1	3	24_1_3	NA	NA	0	1	4.08432388306	None	None	None	None	1
3.0.1	2019_Mar_07_1725	s	s	7	4	Capacity	69	ABS	0	0	1	1	24_1_1	NA	NA	0	1	4.906676054	None	None	None	None	1
3.0.1	2019_Mar_07_1725	s	s	7	4	Capacity	70	1_4	1	4	1	2	23_1_2	0	2	1	0	0.634567022324	117.0	-89.0	123.0	-97.0	1
3.0.1	2019_Mar_07_1725	s	s	7	4	Capacity	71	ABS	0	0	1	2	24_1_2	NA	NA	0	1	4.83324289322	None	None	None	None	1
3.0.1	2019_Mar_07_1725	s	s	7	4	Capacity	72	1_3	1	3	1	1	23_1_1	0	2	1	0	0.763862848282	89.0	77.0	85.0	70.0	1
3.0.1	2019_Mar_07_1725	s	s	7	4	Capacity	73	1_3	1	3	1	4	23_1_4	0	-1	1	0	0.96768116951	-384.0	-271.0	-379.0	-273.0	1
3.0.1	2019_Mar_07_1725	s	s	7	4	Capacity	74	ABS	0	0	1	1	24_1_1	NA	NA	0	1	3.04549598694	None	None	None	None	1
3.0.1	2019_Mar_07_1725	s	s	7	4	Capacity	75	ABS	0	0	1	1	24_1_1	NA	NA	0	1	2.82208204269	None	None	None	None	1
3.0.1	2019_Mar_07_1725	s	s	7	4	Capacity	76	1_1	1	1	1	3	23_1_3	0	2	1	0	1.19768404961	-260.0	385.0	-265.0	386.0	1
3.0.1	2019_Mar_07_1725	s	s	7	4	Capacity	77	1_1	1	1	1	2	23_1_2	0	1	1	0	3.46231198311	-168.0	-27.0	-158.0	-28.0	1
3.0.1	2019_Mar_07_1725	s	s	7	4	Capacity	78	1_2	1	2	1	4	23_1_4	0	2	1	0	0.869696855545	-397.0	119.0	-394.0	119.0	1
3.0.1	2019_Mar_07_1725	s	s	7	4	Capacity	79	1_3	1	3	1	1	23_1_1	0	2	1	0	2.39849305153	-213.0	-303.0	-219.0	-306.0	1
3.0.1	2019_Mar_07_1725	s	s	7	4	Capacity	80	ABS	0	0	1	1	24_1_1	NA	NA	0	1	4.34532308578	None	None	None	None	1
3.0.1	2019_Mar_07_1725	s	s	7	4	Capacity	81	1_4	1	4	1	1	23_1_1	0	3	1	0	0.752014160156	47.0	-242.0	44.0	-243.0	1
3.0.1	2019_Mar_07_1725	s	s	7	4	Capacity	82	ABS	0	0	1	3	24_1_3	NA	NA	0	1	5.08416509628	None	None	None	None	1
3.0.1	2019_Mar_07_1725	s	s	7	4	Capacity	83	ABS	0	0	1	2	24_1_2	NA	NA	0	1	4.67396712303	None	None	None	None	1
3.0.1	2019_Mar_07_1725	s	s	7	4	Capacity	84	1_1	1	1	1	4	23_1_4	0	3	1	0	0.862835168839	190.0	-347.0	190.0	-360.0	1
3.0.1	2019_Mar_07_1725	s	s	7	4	Capacity	85	ABS	0	0	1	4	24_1_4	NA	NA	0	1	1.30486083031	None	None	None	None	1
3.0.1	2019_Mar_07_1725	s	s	7	4	Capacity	86	ABS	0	0	1	3	24_1_3	NA	NA	0	1	2.93974304199	None	None	None	None	1
3.0.1	2019_Mar_07_1725	s	s	7	4	Capacity	87	1_3	1	3	1	2	23_1_2	0	1	0	1	5.55729293823	480.0	-364.0	None	None	0
3.0.1	2019_Mar_07_1725	s	s	7	4	Capacity	88	1_2	1	2	1	1	23_1_1	0	-1	1	0	3.53169202805	-45.0	-312.0	-53.0	-307.0	1
3.0.1	2019_Mar_07_1725	s	s	7	4	Capacity	89	1_4	1	4	1	3	23_1_3	0	1	1	0	0.658281087875	313.0	-334.0	311.0	-331.0	1
3.0.1	2019_Mar_07_1725	s	s	7	4	Capacity	90	ABS	0	0	1	2	24_1_2	NA	NA	0	1	4.54201197624	None	None	None	None	1
3.0.1	2019_Mar_07_1725	s	s	7	4	Capacity	91	ABS	0	0	1	4	24_1_4	NA	NA	0	1	1.18726396561	None	None	None	None	1
3.0.1	2019_Mar_07_1725	s	s	7	4	Capacity	92	ABS	0	0	1	4	24_1_4	NA	NA	0	1	1.3048350811	None	None	None	None	1
3.0.1	2019_Mar_07_1725	s	s	7	4	Capacity	93	1_4	1	4	1	2	23_1_2	0	2	1	0	0.716775178909	312.0	8.0	308.0	6.0	1
3.0.1	2019_Mar_07_1725	s	s	7	4	Capacity	94	1_2	1	2	1	3	23_1_3	0	1	1	0	1.05233192444	-253.0	98.0	-256.0	97.0	1
3.0.1	2019_Mar_07_1725	s	s	7	4	Capacity	95	ABS	0	0	1	2	24_1_2	NA	NA	0	1	3.40994715691	None	None	None	None	1
3.0.1	2019_Mar_07_1725	s	s	7	4	Capacity	96	ABS	0	0	1	3	24_1_3	NA	NA	0	1	4.15585803986	None	None	None	None	1
3.0.1	2019_Mar_07_1725	s	s	7	4	SIC	1	ABS	0	0	2	4	24_2_4	NA	NA	0	1	2.05756497383	None	None	None	None	1
3.0.1	2019_Mar_07_1725	s	s	7	4	SIC	2	ABS	0	0	1	3	24_1_3	NA	NA	0	1	3.15726590157	None	None	None	None	1
3.0.1	2019_Mar_07_1725	s	s	7	4	SIC	3	ABS	0	0	1	2	24_1_2	NA	NA	0	1	3.84525084496	None	None	None	None	1
3.0.1	2019_Mar_07_1725	s	s	7	4	SIC	4	ABS	0	0	4	1	24_4_1	NA	NA	0	1	2.485008955	None	None	None	None	1
3.0.1	2019_Mar_07_1725	s	s	7	4	SIC	5	ABS	0	0	3	3	24_3_3	NA	NA	0	1	3.90989589691	None	None	None	None	1
3.0.1	2019_Mar_07_1725	s	s	7	4	SIC	6	ABS	0	0	1	2	24_1_2	NA	NA	0	1	6.69479703903	None	None	None	None	1
3.0.1	2019_Mar_07_1725	s	s	7	4	SIC	7	ABS	0	0	3	2	24_3_2	NA	NA	0	1	5.15589213371	None	None	None	None	1
3.0.1	2019_Mar_07_1725	s	s	7	4	SIC	8	ABS	0	0	3	4	24_3_4	NA	NA	0	1	3.22225189209	None	None	None	None	1
3.0.1	2019_Mar_07_1725	s	s	7	4	SIC	9	1_1	1	1	4	1	23_4_1	3	0	1	0	0.60498213768	-9.0	-258.0	-6.0	-257.0	1
3.0.1	2019_Mar_07_1725	s	s	7	4	SIC	10	ABS	0	0	3	1	24_3_1	NA	NA	0	1	5.45640301704	None	None	None	None	1
3.0.1	2019_Mar_07_1725	s	s	7	4	SIC	11	4_3	4	3	4	2	23_4_2	0	1	1	0	4.48605799675	358.0	-166.0	358.0	-162.0	1
3.0.1	2019_Mar_07_1725	s	s	7	4	SIC	12	1_3	1	3	3	4	23_3_4	2	-1	1	0	0.613765001297	500.0	23.0	508.0	22.0	1
3.0.1	2019_Mar_07_1725	s	s	7	4	SIC	13	1_3	1	3	4	4	23_4_4	3	-1	1	0	0.545306921005	-221.0	-94.0	-215.0	-100.0	1
3.0.1	2019_Mar_07_1725	s	s	7	4	SIC	14	ABS	0	0	4	4	24_4_4	NA	NA	0	1	1.91102004051	None	None	None	None	1
3.0.1	2019_Mar_07_1725	s	s	7	4	SIC	15	ABS	0	0	2	1	24_2_1	NA	NA	0	1	5.47346687317	None	None	None	None	1
3.0.1	2019_Mar_07_1725	s	s	7	4	SIC	16	1_2	1	2	2	1	23_2_1	1	-1	1	0	4.26870894432	205.0	-282.0	200.0	-281.0	1
3.0.1	2019_Mar_07_1725	s	s	7	4	SIC	17	2_4	2	4	3	2	23_3_2	1	2	1	0	0.567779779434	-442.0	-259.0	-449.0	-258.0	1
3.0.1	2019_Mar_07_1725	s	s	7	4	SIC	18	3_2	3	2	4	4	23_4_4	-1	2	1	0	0.437737941742	172.0	270.0	170.0	270.0	1
3.0.1	2019_Mar_07_1725	s	s	7	4	SIC	19	ABS	0	0	1	3	24_1_3	NA	NA	0	1	5.18609786034	None	None	None	None	1
3.0.1	2019_Mar_07_1725	s	s	7	4	SIC	20	ABS	0	0	2	4	24_2_4	NA	NA	0	1	2.68598103523	None	None	None	None	1
3.0.1	2019_Mar_07_1725	s	s	7	4	SIC	21	2_1	2	1	4	4	23_4_4	2	3	1	0	0.57559299469	135.0	-226.0	130.0	-220.0	1
3.0.1	2019_Mar_07_1725	s	s	7	4	SIC	22	ABS	0	0	2	1	24_2_1	NA	NA	0	1	6.74122595787	None	None	None	None	1
3.0.1	2019_Mar_07_1725	s	s	7	4	SIC	23	ABS	0	0	3	2	24_3_2	NA	NA	0	1	6.2257540226	None	None	None	None	1
3.0.1	2019_Mar_07_1725	s	s	7	4	SIC	24	ABS	0	0	4	4	24_4_4	NA	NA	0	1	1.92821311951	None	None	None	None	1
3.0.1	2019_Mar_07_1725	s	s	7	4	SIC	25	4_4	4	4	4	3	23_4_3	0	1	0	1	0.634449958801	462.0	147.0	None	None	0
3.0.1	2019_Mar_07_1725	s	s	7	4	SIC	26	1_3	1	3	1	2	23_1_2	0	1	1	0	3.57928800583	-369.0	-18.0	-359.0	-15.0	1
3.0.1	2019_Mar_07_1725	s	s	7	4	SIC	27	ABS	0	0	4	2	24_4_2	NA	NA	0	1	6.19743990898	None	None	None	None	1
3.0.1	2019_Mar_07_1725	s	s	7	4	SIC	28	1_1	1	1	1	3	23_1_3	0	2	1	0	0.716800928116	191.0	-29.0	194.0	-28.0	1
3.0.1	2019_Mar_07_1725	s	s	7	4	SIC	29	ABS	0	0	1	2	24_1_2	NA	NA	0	1	5.10369610786	None	None	None	None	1
3.0.1	2019_Mar_07_1725	s	s	7	4	SIC	30	2_2	2	2	1	1	23_1_1	-1	-1	1	0	0.775599956512	-304.0	57.0	-309.0	56.0	1
3.0.1	2019_Mar_07_1725	s	s	7	4	SIC	31	4_4	4	4	2	2	23_2_2	2	2	1	0	0.48157286644	184.0	-397.0	183.0	-405.0	1
3.0.1	2019_Mar_07_1725	s	s	7	4	SIC	32	2_3	2	3	4	4	23_4_4	2	-1	1	0	0.458033084869	506.0	67.0	505.0	67.0	1
3.0.1	2019_Mar_07_1725	s	s	7	4	SIC	33	1_1	1	1	3	4	23_3_4	2	3	1	0	0.446290016174	235.0	-39.0	231.0	-38.0	1
3.0.1	2019_Mar_07_1725	s	s	7	4	SIC	34	2_4	2	4	3	1	23_3_1	1	3	1	0	0.486147165298	484.0	-86.0	483.0	-84.0	1
3.0.1	2019_Mar_07_1725	s	s	7	4	SIC	35	ABS	0	0	2	3	24_2_3	NA	NA	0	1	5.19271206856	None	None	None	None	1
3.0.1	2019_Mar_07_1725	s	s	7	4	SIC	36	ABS	0	0	4	1	24_4_1	NA	NA	0	1	1.90018606186	None	None	None	None	1
3.0.1	2019_Mar_07_1725	s	s	7	4	SIC	37	2_2	2	2	4	1	23_4_1	2	-1	1	0	0.693237066269	535.0	63.0	543.0	61.0	1
3.0.1	2019_Mar_07_1725	s	s	7	4	SIC	38	4_3	4	3	1	4	23_1_4	3	-1	1	0	0.469861030579	348.0	-209.0	348.0	-210.0	1
3.0.1	2019_Mar_07_1725	s	s	7	4	SIC	39	2_4	2	4	1	1	23_1_1	-1	3	1	0	1.19007706642	-213.0	293.0	-211.0	285.0	1
3.0.1	2019_Mar_07_1725	s	s	7	4	SIC	40	ABS	0	0	3	3	24_3_3	NA	NA	0	1	4.32747602463	None	None	None	None	1
3.0.1	2019_Mar_07_1725	s	s	7	4	SIC	41	3_3	3	3	2	2	23_2_2	1	1	1	0	0.681556940079	521.0	-128.0	517.0	-126.0	1
3.0.1	2019_Mar_07_1725	s	s	7	4	SIC	42	ABS	0	0	3	1	24_3_1	NA	NA	0	1	3.68056797981	None	None	None	None	1
3.0.1	2019_Mar_07_1725	s	s	7	4	SIC	43	1_1	1	1	3	1	23_3_1	2	0	1	0	0.528745174408	-237.0	239.0	-237.0	239.0	1
3.0.1	2019_Mar_07_1725	s	s	7	4	SIC	44	ABS	0	0	3	3	24_3_3	NA	NA	0	1	4.00991201401	None	None	None	None	1
3.0.1	2019_Mar_07_1725	s	s	7	4	SIC	45	ABS	0	0	4	3	24_4_3	NA	NA	0	1	2.24576711655	None	None	None	None	1
3.0.1	2019_Mar_07_1725	s	s	7	4	SIC	46	3_4	3	4	3	2	23_3_2	0	2	1	0	0.790261983871	-34.0	-251.0	-35.0	-243.0	1
3.0.1	2019_Mar_07_1725	s	s	7	4	SIC	47	4_3	4	3	2	4	23_2_4	2	-1	1	0	0.545207023621	341.0	-63.0	349.0	-58.0	1
3.0.1	2019_Mar_07_1725	s	s	7	4	SIC	48	2_4	2	4	1	2	23_1_2	-1	2	1	0	0.613841056824	-509.0	-73.0	-517.0	-69.0	1
3.0.1	2019_Mar_07_1725	s	s	7	4	SIC	49	4_2	4	2	1	4	23_1_4	3	2	1	0	0.657975912094	-74.0	-377.0	-66.0	-375.0	1
3.0.1	2019_Mar_07_1725	s	s	7	4	SIC	50	ABS	0	0	4	1	24_4_1	NA	NA	0	1	2.72564411163	None	None	None	None	1
3.0.1	2019_Mar_07_1725	s	s	7	4	SIC	51	3_2	3	2	2	4	23_2_4	1	2	1	0	0.846410036087	-167.0	-346.0	-167.0	-345.0	1
3.0.1	2019_Mar_07_1725	s	s	7	4	SIC	52	ABS	0	0	4	2	24_4_2	NA	NA	0	1	6.22096896172	None	None	None	None	1
3.0.1	2019_Mar_07_1725	s	s	7	4	SIC	53	1_1	1	1	2	2	23_2_2	1	1	1	0	2.12815713882	-147.0	-218.0	-140.0	-217.0	1
3.0.1	2019_Mar_07_1725	s	s	7	4	SIC	54	ABS	0	0	2	1	24_2_1	NA	NA	0	1	3.07534885406	None	None	None	None	1
3.0.1	2019_Mar_07_1725	s	s	7	4	SIC	55	1_2	1	2	1	4	23_1_4	0	2	1	0	0.605703115463	-219.0	333.0	-219.0	335.0	1
3.0.1	2019_Mar_07_1725	s	s	7	4	SIC	56	1_2	1	2	4	1	23_4_1	3	-1	1	0	0.444504022598	355.0	369.0	349.0	370.0	1
3.0.1	2019_Mar_07_1725	s	s	7	4	SIC	57	2_2	2	2	2	3	23_2_3	0	1	1	0	3.25718188286	-167.0	-207.0	-167.0	-206.0	1
3.0.1	2019_Mar_07_1725	s	s	7	4	SIC	58	3_3	3	3	1	4	23_1_4	2	-1	1	0	0.59304690361	-62.0	316.0	-58.0	320.0	1
3.0.1	2019_Mar_07_1725	s	s	7	4	SIC	59	ABS	0	0	1	2	24_1_2	NA	NA	0	1	7.45632910728	None	None	None	None	1
3.0.1	2019_Mar_07_1725	s	s	7	4	SIC	60	ABS	0	0	2	2	24_2_2	NA	NA	0	1	5.36243510246	None	None	None	None	1
3.0.1	2019_Mar_07_1725	s	s	7	4	SIC	61	ABS	0	0	1	2	24_1_2	NA	NA	0	1	5.50807595253	None	None	None	None	1
3.0.1	2019_Mar_07_1725	s	s	7	4	SIC	62	4_3	4	3	1	2	23_1_2	3	1	1	0	0.634451150894	-259.0	-262.0	-260.0	-263.0	1
3.0.1	2019_Mar_07_1725	s	s	7	4	SIC	63	4_1	4	1	1	3	23_1_3	3	2	1	0	0.763804197311	-139.0	-218.0	-137.0	-223.0	1
3.0.1	2019_Mar_07_1725	s	s	7	4	SIC	64	ABS	0	0	1	3	24_1_3	NA	NA	0	1	5.56236290932	None	None	None	None	1
3.0.1	2019_Mar_07_1725	s	s	7	4	SIC	65	3_3	3	3	4	3	23_4_3	-1	0	1	0	0.613867998123	-28.0	107.0	-31.0	104.0	1
3.0.1	2019_Mar_07_1725	s	s	7	4	SIC	66	2_3	2	3	2	2	23_2_2	0	1	1	0	2.10459899902	-14.0	376.0	0.0	385.0	1
3.0.1	2019_Mar_07_1725	s	s	7	4	SIC	67	ABS	0	0	4	4	24_4_4	NA	NA	0	1	1.70514202118	None	None	None	None	1
3.0.1	2019_Mar_07_1725	s	s	7	4	SIC	68	2_4	2	4	2	3	23_2_3	0	1	1	0	0.998924016953	319.0	-40.0	314.0	-39.0	1
3.0.1	2019_Mar_07_1725	s	s	7	4	SIC	69	4_2	4	2	2	1	23_2_1	2	-1	1	0	0.50502705574	-187.0	121.0	-180.0	121.0	1
3.0.1	2019_Mar_07_1725	s	s	7	4	SIC	70	3_4	3	4	4	4	23_4_4	-1	0	1	0	0.434534072876	-293.0	366.0	-288.0	376.0	1
3.0.1	2019_Mar_07_1725	s	s	7	4	SIC	71	ABS	0	0	1	2	24_1_2	NA	NA	0	1	7.02579498291	None	None	None	None	1
3.0.1	2019_Mar_07_1725	s	s	7	4	SIC	72	1_2	1	2	1	3	23_1_3	0	1	1	0	0.849038124084	-260.0	170.0	-259.0	174.0	1
3.0.1	2019_Mar_07_1725	s	s	7	4	SIC	73	4_4	4	4	3	3	23_3_3	1	1	1	0	0.966646909714	-81.0	-75.0	-86.0	-73.0	1
3.0.1	2019_Mar_07_1725	s	s	7	4	SIC	74	4_3	4	3	3	3	23_3_3	1	0	1	0	0.533391952515	378.0	-348.0	377.0	-338.0	1
3.0.1	2019_Mar_07_1725	s	s	7	4	SIC	75	2_1	2	1	4	1	23_4_1	2	0	1	0	0.469773054123	112.0	-224.0	118.0	-224.0	1
3.0.1	2019_Mar_07_1725	s	s	7	4	SIC	76	3_1	3	1	2	3	23_2_3	1	2	1	0	0.634388923645	244.0	-282.0	237.0	-279.0	1
3.0.1	2019_Mar_07_1725	s	s	7	4	SIC	77	ABS	0	0	1	1	24_1_1	NA	NA	0	1	5.2733631134	None	None	None	None	1
3.0.1	2019_Mar_07_1725	s	s	7	4	SIC	78	ABS	0	0	1	4	24_1_4	NA	NA	0	1	2.62706208229	None	None	None	None	1
3.0.1	2019_Mar_07_1725	s	s	7	4	SIC	79	ABS	0	0	4	4	24_4_4	NA	NA	0	1	0.834417104721	None	None	None	None	1
3.0.1	2019_Mar_07_1725	s	s	7	4	SIC	80	ABS	0	0	3	2	24_3_2	NA	NA	0	1	5.05125689507	None	None	None	None	1
3.0.1	2019_Mar_07_1725	s	s	7	4	SIC	81	ABS	0	0	2	1	24_2_1	NA	NA	0	1	5.10777306557	None	None	None	None	1
3.0.1	2019_Mar_07_1725	s	s	7	4	SIC	82	1_4	1	4	2	2	23_2_2	1	2	1	0	0.731439113617	182.0	73.0	188.0	71.0	1
3.0.1	2019_Mar_07_1725	s	s	7	4	SIC	83	4_1	4	1	1	1	23_1_1	3	0	1	0	0.486853837967	-330.0	-213.0	-335.0	-215.0	1
3.0.1	2019_Mar_07_1725	s	s	7	4	SIC	84	3_3	3	3	2	3	23_2_3	1	0	1	0	0.850544929504	-283.0	-328.0	-276.0	-334.0	1
3.0.1	2019_Mar_07_1725	s	s	7	4	SIC	85	1_2	1	2	3	2	23_3_2	2	0	1	0	0.799102783203	509.0	-154.0	501.0	-151.0	1
3.0.1	2019_Mar_07_1725	s	s	7	4	SIC	86	ABS	0	0	4	3	24_4_3	NA	NA	0	1	4.96541500092	None	None	None	None	1
3.0.1	2019_Mar_07_1725	s	s	7	4	SIC	87	3_3	3	3	4	4	23_4_4	-1	-1	1	0	0.639142036438	187.0	-302.0	181.0	-300.0	1
3.0.1	2019_Mar_07_1725	s	s	7	4	SIC	88	ABS	0	0	4	4	24_4_4	NA	NA	0	1	1.08827805519	None	None	None	None	1
3.0.1	2019_Mar_07_1725	s	s	7	4	SIC	89	3_3	3	3	2	1	23_2_1	1	2	1	0	0.57834482193	-47.0	140.0	-60.0	143.0	1
3.0.1	2019_Mar_07_1725	s	s	7	4	SIC	90	ABS	0	0	1	3	24_1_3	NA	NA	0	1	4.89201498032	None	None	None	None	1
3.0.1	2019_Mar_07_1725	s	s	7	4	SIC	91	ABS	0	0	1	2	24_1_2	NA	NA	0	1	5.07493209839	None	None	None	None	1
3.0.1	2019_Mar_07_1725	s	s	7	4	SIC	92	ABS	0	0	1	2	24_1_2	NA	NA	0	1	5.40946912766	None	None	None	None	1
3.0.1	2019_Mar_07_1725	s	s	7	4	SIC	93	ABS	0	0	2	1	24_2_1	NA	NA	0	1	3.86874198914	None	None	None	None	1
3.0.1	2019_Mar_07_1725	s	s	7	4	SIC	94	4_4	4	4	2	4	23_2_4	2	0	1	0	0.755299091339	-39.0	21.0	-29.0	19.0	1
3.0.1	2019_Mar_07_1725	s	s	7	4	SIC	95	ABS	0	0	3	3	24_3_3	NA	NA	0	1	1.93980813026	None	None	None	None	1
3.0.1	2019_Mar_07_1725	s	s	7	4	SIC	96	ABS	0	0	1	4	24_1_4	NA	NA	0	1	1.92820811272	None	None	None	None	1
3.0.1	2019_Mar_07_1725	s	s	7	4	SIC	97	1_3	1	3	3	3	23_3_3	2	0	1	0	0.75207400322	-479.0	299.0	-476.0	300.0	1
3.0.1	2019_Mar_07_1725	s	s	7	4	SIC	98	2_2	2	2	2	1	23_2_1	0	-1	0	1	4.03802394867	197.0	-356.0	None	None	0
3.0.1	2019_Mar_07_1725	s	s	7	4	SIC	99	4_4	4	4	1	2	23_1_2	3	2	1	0	0.716836929321	471.0	-154.0	465.0	-152.0	1
3.0.1	2019_Mar_07_1725	s	s	7	4	SIC	100	2_3	2	3	4	3	23_4_3	2	0	1	0	0.5339179039	407.0	-206.0	407.0	-208.0	1
3.0.1	2019_Mar_07_1725	s	s	7	4	SIC	101	3_1	3	1	3	3	23_3_3	0	2	1	0	0.90496301651	-383.0	-1.0	-382.0	4.0	1
3.0.1	2019_Mar_07_1725	s	s	7	4	SIC	102	ABS	0	0	4	2	24_4_2	NA	NA	0	1	5.24998784065	None	None	None	None	1
3.0.1	2019_Mar_07_1725	s	s	7	4	SIC	103	1_4	1	4	3	1	23_3_1	2	3	1	0	0.516751050949	-138.0	171.0	-136.0	172.0	1
3.0.1	2019_Mar_07_1725	s	s	7	4	SIC	104	2_3	2	3	1	1	23_1_1	-1	2	1	0	0.736340999603	150.0	-122.0	153.0	-118.0	1
3.0.1	2019_Mar_07_1725	s	s	7	4	SIC	105	ABS	0	0	3	1	24_3_1	NA	NA	0	1	4.2921628952	None	None	None	None	1
3.0.1	2019_Mar_07_1725	s	s	7	4	SIC	106	ABS	0	0	3	1	24_3_1	NA	NA	0	1	2.56331396103	None	None	None	None	1
3.0.1	2019_Mar_07_1725	s	s	7	4	SIC	107	ABS	0	0	4	3	24_4_3	NA	NA	0	1	4.7441110611	None	None	None	None	1
3.0.1	2019_Mar_07_1725	s	s	7	4	SIC	108	1_2	1	2	4	4	23_4_4	3	2	1	0	0.646250963211	-109.0	29.0	-113.0	32.0	1
3.0.1	2019_Mar_07_1725	s	s	7	4	SIC	109	ABS	0	0	1	4	24_1_4	NA	NA	0	1	1.27485394478	None	None	None	None	1
3.0.1	2019_Mar_07_1725	s	s	7	4	SIC	110	ABS	0	0	4	2	24_4_2	NA	NA	0	1	5.48550486565	None	None	None	None	1
3.0.1	2019_Mar_07_1725	s	s	7	4	SIC	111	3_4	3	4	2	3	23_2_3	1	1	1	0	0.673251867294	281.0	31.0	273.0	28.0	1
3.0.1	2019_Mar_07_1725	s	s	7	4	SIC	112	ABS	0	0	2	1	24_2_1	NA	NA	0	1	6.82078099251	None	None	None	None	1
3.0.1	2019_Mar_07_1725	s	s	7	4	SIC	113	ABS	0	0	3	3	24_3_3	NA	NA	0	1	5.2832531929	None	None	None	None	1
3.0.1	2019_Mar_07_1725	s	s	7	4	SIC	114	4_4	4	4	3	2	23_3_2	1	2	1	0	0.599093914032	-106.0	268.0	-112.0	263.0	1
3.0.1	2019_Mar_07_1725	s	s	7	4	SIC	115	4_1	4	1	2	1	23_2_1	2	0	1	0	0.822608947754	175.0	144.0	171.0	137.0	1
3.0.1	2019_Mar_07_1725	s	s	7	4	SIC	116	3_2	3	2	4	1	23_4_1	-1	-1	1	0	0.481605052948	43.0	255.0	35.0	254.0	1
3.0.1	2019_Mar_07_1725	s	s	7	4	SIC	117	ABS	0	0	3	3	24_3_3	NA	NA	0	1	4.53156208992	None	None	None	None	1
3.0.1	2019_Mar_07_1725	s	s	7	4	SIC	118	ABS	0	0	2	2	24_2_2	NA	NA	0	1	6.43563699722	None	None	None	None	1
3.0.1	2019_Mar_07_1725	s	s	7	4	SIC	119	ABS	0	0	4	2	24_4_2	NA	NA	0	1	7.30302596092	None	None	None	None	1
3.0.1	2019_Mar_07_1725	s	s	7	4	SIC	120	4_3	4	3	2	3	23_2_3	2	0	0	1	0.862019062042	132.0	-104.0	None	None	0
3.0.1	2019_Mar_07_1725	s	s	7	4	SIC	121	ABS	0	0	3	3	24_3_3	NA	NA	0	1	2.59861898422	None	None	None	None	1
3.0.1	2019_Mar_07_1725	s	s	7	4	SIC	122	1_3	1	3	2	2	23_2_2	1	1	1	0	1.02300095558	-383.0	149.0	-392.0	145.0	1
3.0.1	2019_Mar_07_1725	s	s	7	4	SIC	123	4_2	4	2	1	3	23_1_3	3	1	1	0	0.740386962891	-136.0	-406.0	-142.0	-415.0	1
3.0.1	2019_Mar_07_1725	s	s	7	4	SIC	124	3_3	3	3	1	3	23_1_3	2	0	1	0	0.510097026825	-307.0	-291.0	-307.0	-300.0	1
3.0.1	2019_Mar_07_1725	s	s	7	4	SIC	125	2_2	2	2	4	3	23_4_3	2	1	1	0	0.422764062881	306.0	150.0	310.0	152.0	1
3.0.1	2019_Mar_07_1725	s	s	7	4	SIC	126	1_1	1	1	4	2	23_4_2	3	1	1	0	0.410941123962	294.0	126.0	299.0	123.0	1
3.0.1	2019_Mar_07_1725	s	s	7	4	SIC	127	ABS	0	0	2	3	24_2_3	NA	NA	0	1	9.18477010727	None	None	None	None	1
3.0.1	2019_Mar_07_1725	s	s	7	4	SIC	128	4_4	4	4	3	4	23_3_4	1	0	1	0	0.587414979935	-72.0	73.0	-69.0	59.0	1
3.0.1	2019_Mar_07_1725	s	s	7	4	SIC	129	2_1	2	1	3	2	23_3_2	1	1	1	0	0.569339990616	-531.0	405.0	-527.0	403.0	1
3.0.1	2019_Mar_07_1725	s	s	7	4	SIC	130	ABS	0	0	4	1	24_4_1	NA	NA	0	1	1.92815995216	None	None	None	None	1
3.0.1	2019_Mar_07_1725	s	s	7	4	SIC	131	4_1	4	1	2	4	23_2_4	2	3	1	0	1.24616098404	247.0	396.0	241.0	402.0	1
3.0.1	2019_Mar_07_1725	s	s	7	4	SIC	132	ABS	0	0	3	3	24_3_3	NA	NA	0	1	3.83346104622	None	None	None	None	1
3.0.1	2019_Mar_07_1725	s	s	7	4	SIC	133	ABS	0	0	2	3	24_2_3	NA	NA	0	1	5.18601298332	None	None	None	None	1
3.0.1	2019_Mar_07_1725	s	s	7	4	SIC	134	ABS	0	0	1	4	24_1_4	NA	NA	0	1	1.8388569355	None	None	None	None	1
3.0.1	2019_Mar_07_1725	s	s	7	4	SIC	135	4_1	4	1	2	3	23_2_3	2	2	1	0	0.674987077713	275.0	122.0	273.0	113.0	1
3.0.1	2019_Mar_07_1725	s	s	7	4	SIC	136	ABS	0	0	2	4	24_2_4	NA	NA	0	1	1.94415903091	None	None	None	None	1
3.0.1	2019_Mar_07_1725	s	s	7	4	SIC	137	4_4	4	4	4	2	23_4_2	0	2	1	0	0.704992055893	-166.0	307.0	-165.0	305.0	1
3.0.1	2019_Mar_07_1725	s	s	7	4	SIC	138	3_1	3	1	2	4	23_2_4	1	3	1	0	0.452153921127	266.0	-46.0	261.0	-43.0	1
3.0.1	2019_Mar_07_1725	s	s	7	4	SIC	139	ABS	0	0	4	4	24_4_4	NA	NA	0	1	1.49588394165	None	None	None	None	1
3.0.1	2019_Mar_07_1725	s	s	7	4	SIC	140	3_2	3	2	1	4	23_1_4	2	2	1	0	0.463028907776	111.0	-347.0	106.0	-343.0	1
3.0.1	2019_Mar_07_1725	s	s	7	4	SIC	141	ABS	0	0	2	4	24_2_4	NA	NA	0	1	1.50982308388	None	None	None	None	1
3.0.1	2019_Mar_07_1725	s	s	7	4	SIC	142	ABS	0	0	2	4	24_2_4	NA	NA	0	1	1.62741708755	None	None	None	None	1
3.0.1	2019_Mar_07_1725	s	s	7	4	SIC	143	ABS	0	0	4	3	24_4_3	NA	NA	0	1	2.65039205551	None	None	None	None	1
3.0.1	2019_Mar_07_1725	s	s	7	4	SIC	144	ABS	0	0	3	2	24_3_2	NA	NA	0	1	5.12714099884	None	None	None	None	1
3.0.1	2019_Mar_07_1725	s	s	7	4	SIC	145	2_2	2	2	1	3	23_1_3	-1	1	0	1	3.25722980499	523.0	-395.0	None	None	0
3.0.1	2019_Mar_07_1725	s	s	7	4	SIC	146	1_4	1	4	3	2	23_3_2	2	2	1	0	0.555109977722	-403.0	76.0	-405.0	83.0	1
3.0.1	2019_Mar_07_1725	s	s	7	4	SIC	147	ABS	0	0	4	3	24_4_3	NA	NA	0	1	1.68121695518	None	None	None	None	1
3.0.1	2019_Mar_07_1725	s	s	7	4	SIC	148	ABS	0	0	1	4	24_1_4	NA	NA	0	1	1.35481715202	None	None	None	None	1
3.0.1	2019_Mar_07_1725	s	s	7	4	SIC	149	ABS	0	0	2	3	24_2_3	NA	NA	0	1	2.9663040638	None	None	None	None	1
3.0.1	2019_Mar_07_1725	s	s	7	4	SIC	150	2_1	2	1	1	3	23_1_3	-1	2	1	0	0.869585990906	-193.0	-257.0	-194.0	-254.0	1
3.0.1	2019_Mar_07_1725	s	s	7	4	SIC	151	ABS	0	0	4	1	24_4_1	NA	NA	0	1	1.34479594231	None	None	None	None	1
3.0.1	2019_Mar_07_1725	s	s	7	4	SIC	152	4_1	4	1	1	2	23_1_2	3	1	1	0	0.580736160278	73.0	149.0	68.0	139.0	1
3.0.1	2019_Mar_07_1725	s	s	7	4	SIC	153	ABS	0	0	2	2	24_2_2	NA	NA	0	1	4.92724108696	None	None	None	None	1
3.0.1	2019_Mar_07_1725	s	s	7	4	SIC	154	4_2	4	2	1	1	23_1_1	3	-1	1	0	0.505031108856	-140.0	-310.0	-136.0	-308.0	1
3.0.1	2019_Mar_07_1725	s	s	7	4	SIC	155	ABS	0	0	1	2	24_1_2	NA	NA	0	1	4.18637299538	None	None	None	None	1
3.0.1	2019_Mar_07_1725	s	s	7	4	SIC	156	4_3	4	3	1	3	23_1_3	3	0	1	0	0.575892925262	448.0	293.0	445.0	290.0	1
3.0.1	2019_Mar_07_1725	s	s	7	4	SIC	157	ABS	0	0	4	3	24_4_3	NA	NA	0	1	4.67141008377	None	None	None	None	1
3.0.1	2019_Mar_07_1725	s	s	7	4	SIC	158	ABS	0	0	4	1	24_4_1	NA	NA	0	1	2.62681603432	None	None	None	None	1
3.0.1	2019_Mar_07_1725	s	s	7	4	SIC	159	ABS	0	0	1	3	24_1_3	NA	NA	0	1	3.83348703384	None	None	None	None	1
3.0.1	2019_Mar_07_1725	s	s	7	4	SIC	160	1_3	1	3	1	4	23_1_4	0	-1	1	0	0.697773933411	426.0	-112.0	426.0	-110.0	1
3.0.1	2019_Mar_07_1725	s	s	7	4	SIC	161	ABS	0	0	4	4	24_4_4	NA	NA	0	1	0.775620222092	None	None	None	None	1
3.0.1	2019_Mar_07_1725	s	s	7	4	SIC	162	ABS	0	0	3	4	24_3_4	NA	NA	0	1	1.29697299004	None	None	None	None	1
3.0.1	2019_Mar_07_1725	s	s	7	4	SIC	163	3_1	3	1	4	2	23_4_2	-1	1	1	0	0.66274189949	162.0	-387.0	171.0	-383.0	1
3.0.1	2019_Mar_07_1725	s	s	7	4	SIC	164	1_2	1	2	4	3	23_4_3	3	1	1	0	0.540385007858	7.0	-254.0	9.0	-257.0	1
3.0.1	2019_Mar_07_1725	s	s	7	4	SIC	165	1_4	1	4	1	2	23_1_2	0	2	1	0	0.516798973083	-509.0	-55.0	-513.0	-62.0	1
3.0.1	2019_Mar_07_1725	s	s	7	4	SIC	166	ABS	0	0	3	2	24_3_2	NA	NA	0	1	4.90671396255	None	None	None	None	1
3.0.1	2019_Mar_07_1725	s	s	7	4	SIC	167	ABS	0	0	3	1	24_3_1	NA	NA	0	1	2.8925640583	None	None	None	None	1
3.0.1	2019_Mar_07_1725	s	s	7	4	SIC	168	ABS	0	0	4	1	24_4_1	NA	NA	0	1	2.76800012589	None	None	None	None	1
3.0.1	2019_Mar_07_1725	s	s	7	4	SIC	169	1_1	1	1	2	4	23_2_4	1	3	1	0	0.599128007889	-529.0	234.0	-526.0	220.0	1
3.0.1	2019_Mar_07_1725	s	s	7	4	SIC	170	ABS	0	0	3	2	24_3_2	NA	NA	0	1	5.87990903854	None	None	None	None	1
3.0.1	2019_Mar_07_1725	s	s	7	4	SIC	171	ABS	0	0	1	4	24_1_4	NA	NA	0	1	1.45815086365	None	None	None	None	1
3.0.1	2019_Mar_07_1725	s	s	7	4	SIC	172	ABS	0	0	2	2	24_2_2	NA	NA	0	1	6.24452018738	None	None	None	None	1
3.0.1	2019_Mar_07_1725	s	s	7	4	SIC	173	1_1	1	1	3	2	23_3_2	2	1	1	0	0.622700214386	146.0	-352.0	150.0	-350.0	1
3.0.1	2019_Mar_07_1725	s	s	7	4	SIC	174	ABS	0	0	1	2	24_1_2	NA	NA	0	1	5.16248202324	None	None	None	None	1
3.0.1	2019_Mar_07_1725	s	s	7	4	SIC	175	ABS	0	0	2	2	24_2_2	NA	NA	0	1	4.98025012016	None	None	None	None	1
3.0.1	2019_Mar_07_1725	s	s	7	4	SIC	176	ABS	0	0	4	2	24_4_2	NA	NA	0	1	4.13139104843	None	None	None	None	1
3.0.1	2019_Mar_07_1725	s	s	7	4	SIC	177	1_1	1	1	1	2	23_1_2	0	1	1	0	4.5537571907	-222.0	-182.0	-223.0	-185.0	1
3.0.1	2019_Mar_07_1725	s	s	7	4	SIC	178	1_2	1	2	3	1	23_3_1	2	-1	1	0	0.548061847687	104.0	-329.0	109.0	-320.0	1
3.0.1	2019_Mar_07_1725	s	s	7	4	SIC	179	4_1	4	1	1	4	23_1_4	3	3	1	0	0.463249921799	139.0	-96.0	134.0	-92.0	1
3.0.1	2019_Mar_07_1725	s	s	7	4	SIC	180	ABS	0	0	1	1	24_1_1	NA	NA	0	1	4.53915786743	None	None	None	None	1
3.0.1	2019_Mar_07_1725	s	s	7	4	SIC	181	ABS	0	0	3	2	24_3_2	NA	NA	0	1	5.24993801117	None	None	None	None	1
3.0.1	2019_Mar_07_1725	s	s	7	4	SIC	182	4_4	4	4	2	1	23_2_1	2	3	1	0	0.57879781723	378.0	-390.0	379.0	-392.0	1
3.0.1	2019_Mar_07_1725	s	s	7	4	SIC	183	ABS	0	0	2	2	24_2_2	NA	NA	0	1	5.28003406525	None	None	None	None	1
3.0.1	2019_Mar_07_1725	s	s	7	4	SIC	184	4_4	4	4	4	1	23_4_1	0	3	1	0	1.50476098061	333.0	-402.0	332.0	-411.0	1
3.0.1	2019_Mar_07_1725	s	s	7	4	SIC	185	ABS	0	0	1	1	24_1_1	NA	NA	0	1	6.88493704796	None	None	None	None	1
3.0.1	2019_Mar_07_1725	s	s	7	4	SIC	186	4_3	4	3	4	1	23_4_1	0	2	1	0	0.672833204269	-327.0	-140.0	-319.0	-137.0	1
3.0.1	2019_Mar_07_1725	s	s	7	4	SIC	187	ABS	0	0	3	3	24_3_3	NA	NA	0	1	3.95116305351	None	None	None	None	1
3.0.1	2019_Mar_07_1725	s	s	7	4	SIC	188	2_2	2	2	3	4	23_3_4	1	2	1	0	0.628906965256	21.0	-142.0	20.0	-143.0	1
3.0.1	2019_Mar_07_1725	s	s	7	4	SIC	189	1_2	1	2	2	3	23_2_3	1	1	1	0	1.54007816315	-128.0	-215.0	-129.0	-219.0	1
3.0.1	2019_Mar_07_1725	s	s	7	4	SIC	190	ABS	0	0	2	4	24_2_4	NA	NA	0	1	1.58709692955	None	None	None	None	1
3.0.1	2019_Mar_07_1725	s	s	7	4	SIC	191	ABS	0	0	3	4	24_3_4	NA	NA	0	1	1.20653486252	None	None	None	None	1
3.0.1	2019_Mar_07_1725	s	s	7	4	SIC	192	2_4	2	4	2	2	23_2_2	0	2	1	0	0.560074090958	408.0	-93.0	409.0	-95.0	1
3.0.1	2019_Mar_07_1725	s	s	7	4	SIC	193	ABS	0	0	3	2	24_3_2	NA	NA	0	1	4.50675916672	None	None	None	None	1
3.0.1	2019_Mar_07_1725	s	s	7	4	SIC	194	2_1	2	1	1	4	23_1_4	-1	3	1	0	0.662558078766	70.0	365.0	67.0	361.0	1
3.0.1	2019_Mar_07_1725	s	s	7	4	SIC	195	3_2	3	2	2	3	23_2_3	1	1	1	0	0.733644008636	59.0	349.0	55.0	344.0	1
3.0.1	2019_Mar_07_1725	s	s	7	4	SIC	196	ABS	0	0	4	4	24_4_4	NA	NA	0	1	1.55572199821	None	None	None	None	1
3.0.1	2019_Mar_07_1725	s	s	7	4	SIC	197	1_2	1	2	1	1	23_1_1	0	-1	1	0	1.36876797676	348.0	102.0	361.0	105.0	1
3.0.1	2019_Mar_07_1725	s	s	7	4	SIC	198	ABS	0	0	2	3	24_2_3	NA	NA	0	1	4.34243416786	None	None	None	None	1
3.0.1	2019_Mar_07_1725	s	s	7	4	SIC	199	1_1	1	1	2	1	23_2_1	1	0	1	0	3.97468209267	-108.0	331.0	-104.0	324.0	1
3.0.1	2019_Mar_07_1725	s	s	7	4	SIC	200	ABS	0	0	2	1	24_2_1	NA	NA	0	1	4.65685606003	None	None	None	None	1
3.0.1	2019_Mar_07_1725	s	s	7	4	SIC	201	ABS	0	0	3	3	24_3_3	NA	NA	0	1	3.3277130127	None	None	None	None	1
3.0.1	2019_Mar_07_1725	s	s	7	4	SIC	202	2_3	2	3	3	2	23_3_2	1	1	1	0	0.839372873306	-374.0	-211.0	-360.0	-205.0	1
3.0.1	2019_Mar_07_1725	s	s	7	4	SIC	203	4_1	4	1	4	2	23_4_2	0	1	1	0	1.47465085983	-514.0	79.0	-512.0	83.0	1
3.0.1	2019_Mar_07_1725	s	s	7	4	SIC	204	3_2	3	2	3	3	23_3_3	0	1	1	0	1.4959089756	335.0	253.0	334.0	250.0	1
3.0.1	2019_Mar_07_1725	s	s	7	4	SIC	205	2_4	2	4	4	3	23_4_3	2	1	1	0	0.493324041367	-93.0	21.0	-92.0	9.0	1
3.0.1	2019_Mar_07_1725	s	s	7	4	SIC	206	2_4	2	4	1	4	23_1_4	-1	0	0	1	1.17540693283	336.0	-309.0	None	None	0
3.0.1	2019_Mar_07_1725	s	s	7	4	SIC	207	ABS	0	0	2	2	24_2_2	NA	NA	0	1	5.4803481102	None	None	None	None	1
3.0.1	2019_Mar_07_1725	s	s	7	4	SIC	208	4_2	4	2	3	4	23_3_4	1	2	1	0	0.634425163269	196.0	9.0	194.0	6.0	1
3.0.1	2019_Mar_07_1725	s	s	7	4	SIC	209	ABS	0	0	4	3	24_4_3	NA	NA	0	1	4.74499511719	None	None	None	None	1
3.0.1	2019_Mar_07_1725	s	s	7	4	SIC	210	ABS	0	0	4	4	24_4_4	NA	NA	0	1	1.43707895279	None	None	None	None	1
3.0.1	2019_Mar_07_1725	s	s	7	4	SIC	211	ABS	0	0	1	3	24_1_3	NA	NA	0	1	6.23272299767	None	None	None	None	1
3.0.1	2019_Mar_07_1725	s	s	7	4	SIC	212	ABS	0	0	2	1	24_2_1	NA	NA	0	1	7.79123711586	None	None	None	None	1
3.0.1	2019_Mar_07_1725	s	s	7	4	SIC	213	ABS	0	0	2	3	24_2_3	NA	NA	0	1	6.36501502991	None	None	None	None	1
3.0.1	2019_Mar_07_1725	s	s	7	4	SIC	214	3_2	3	2	3	4	23_3_4	0	2	1	0	0.67262506485	-279.0	313.0	-276.0	315.0	1
3.0.1	2019_Mar_07_1725	s	s	7	4	SIC	215	ABS	0	0	2	2	24_2_2	NA	NA	0	1	7.66069316864	None	None	None	None	1
3.0.1	2019_Mar_07_1725	s	s	7	4	SIC	216	1_1	1	1	3	3	23_3_3	2	2	1	0	0.569230079651	-300.0	-312.0	-300.0	-314.0	1
3.0.1	2019_Mar_07_1725	s	s	7	4	SIC	217	ABS	0	0	2	2	24_2_2	NA	NA	0	1	5.58587598801	None	None	None	None	1
3.0.1	2019_Mar_07_1725	s	s	7	4	SIC	218	ABS	0	0	3	4	24_3_4	NA	NA	0	1	2.95138096809	None	None	None	None	1
3.0.1	2019_Mar_07_1725	s	s	7	4	SIC	219	ABS	0	0	3	2	24_3_2	NA	NA	0	1	4.39805006981	None	None	None	None	1
3.0.1	2019_Mar_07_1725	s	s	7	4	SIC	220	2_1	2	1	2	2	23_2_2	0	1	1	0	3.03900504112	-523.0	296.0	-519.0	291.0	1
3.0.1	2019_Mar_07_1725	s	s	7	4	SIC	221	ABS	0	0	4	4	24_4_4	NA	NA	0	1	1.15703415871	None	None	None	None	1
3.0.1	2019_Mar_07_1725	s	s	7	4	SIC	222	4_1	4	1	3	2	23_3_2	1	1	1	0	0.5324010849	112.0	-27.0	113.0	-24.0	1
3.0.1	2019_Mar_07_1725	s	s	7	4	SIC	223	ABS	0	0	2	3	24_2_3	NA	NA	0	1	5.42118501663	None	None	None	None	1
3.0.1	2019_Mar_07_1725	s	s	7	4	SIC	224	2_1	2	1	2	3	23_2_3	0	2	1	0	2.71617603302	445.0	-25.0	445.0	-27.0	1
3.0.1	2019_Mar_07_1725	s	s	7	4	SIC	225	1_3	1	3	2	3	23_2_3	1	0	1	0	4.31857585907	432.0	-229.0	432.0	-228.0	1
3.0.1	2019_Mar_07_1725	s	s	7	4	SIC	226	3_4	3	4	2	1	23_2_1	1	3	1	0	0.851233005524	422.0	-79.0	417.0	-83.0	1
3.0.1	2019_Mar_07_1725	s	s	7	4	SIC	227	3_1	3	1	3	4	23_3_4	0	3	1	0	0.557016134262	-438.0	-114.0	-437.0	-117.0	1
3.0.1	2019_Mar_07_1725	s	s	7	4	SIC	228	1_4	1	4	4	1	23_4_1	3	3	1	0	0.426655054092	144.0	155.0	141.0	152.0	1
3.0.1	2019_Mar_07_1725	s	s	7	4	SIC	229	1_3	1	3	4	2	23_4_2	3	1	1	0	0.502763032913	-339.0	-56.0	-343.0	-59.0	1
3.0.1	2019_Mar_07_1725	s	s	7	4	SIC	230	ABS	0	0	2	4	24_2_4	NA	NA	0	1	4.32745695114	None	None	None	None	1
3.0.1	2019_Mar_07_1725	s	s	7	4	SIC	231	1_1	1	1	4	4	23_4_4	3	3	1	0	0.81397485733	250.0	248.0	248.0	249.0	1
3.0.1	2019_Mar_07_1725	s	s	7	4	SIC	232	2_1	2	1	3	1	23_3_1	1	0	1	0	0.554980039597	-416.0	56.0	-418.0	57.0	1
3.0.1	2019_Mar_07_1725	s	s	7	4	SIC	233	1_4	1	4	1	1	23_1_1	0	3	1	0	0.775609016418	343.0	-211.0	343.0	-211.0	1
3.0.1	2019_Mar_07_1725	s	s	7	4	SIC	234	ABS	0	0	3	2	24_3_2	NA	NA	0	1	5.14188504219	None	None	None	None	1
3.0.1	2019_Mar_07_1725	s	s	7	4	SIC	235	4_3	4	3	3	4	23_3_4	1	-1	1	0	0.740267038345	59.0	-392.0	61.0	-391.0	1
3.0.1	2019_Mar_07_1725	s	s	7	4	SIC	236	2_4	2	4	4	2	23_4_2	2	2	1	0	0.587392091751	-415.0	-214.0	-413.0	-211.0	1
3.0.1	2019_Mar_07_1725	s	s	7	4	SIC	237	ABS	0	0	2	4	24_2_4	NA	NA	0	1	3.50971412659	None	None	None	None	1
3.0.1	2019_Mar_07_1725	s	s	7	4	SIC	238	2_1	2	1	1	2	23_1_2	-1	1	1	0	1.26068091393	-373.0	-329.0	-367.0	-332.0	1
3.0.1	2019_Mar_07_1725	s	s	7	4	SIC	239	ABS	0	0	3	2	24_3_2	NA	NA	0	1	6.66237902641	None	None	None	None	1
3.0.1	2019_Mar_07_1725	s	s	7	4	SIC	240	ABS	0	0	3	4	24_3_4	NA	NA	0	1	2.50930094719	None	None	None	None	1
3.0.1	2019_Mar_07_1725	s	s	7	4	SIC	241	ABS	0	0	4	4	24_4_4	NA	NA	0	1	0.928689002991	None	None	None	None	1
3.0.1	2019_Mar_07_1725	s	s	7	4	SIC	242	ABS	0	0	2	3	24_2_3	NA	NA	0	1	4.44496202469	None	None	None	None	1
3.0.1	2019_Mar_07_1725	s	s	7	4	SIC	243	ABS	0	0	3	2	24_3_2	NA	NA	0	1	4.61264181137	None	None	None	None	1
3.0.1	2019_Mar_07_1725	s	s	7	4	SIC	244	3_1	3	1	2	1	23_2_1	1	0	1	0	0.763765096664	-285.0	306.0	-280.0	304.0	1
3.0.1	2019_Mar_07_1725	s	s	7	4	SIC	245	ABS	0	0	1	1	24_1_1	NA	NA	0	1	5.83682799339	None	None	None	None	1
3.0.1	2019_Mar_07_1725	s	s	7	4	SIC	246	ABS	0	0	3	3	24_3_3	NA	NA	0	1	4.68058919907	None	None	None	None	1
3.0.1	2019_Mar_07_1725	s	s	7	4	SIC	247	4_1	4	1	4	3	23_4_3	0	2	1	0	1.15686798096	-361.0	358.0	-365.0	362.0	1
3.0.1	2019_Mar_07_1725	s	s	7	4	SIC	248	ABS	0	0	2	1	24_2_1	NA	NA	0	1	9.13244891167	None	None	None	None	1
3.0.1	2019_Mar_07_1725	s	s	7	4	SIC	249	4_3	4	3	3	2	23_3_2	1	1	1	0	1.15209817886	-213.0	372.0	-220.0	366.0	1
3.0.1	2019_Mar_07_1725	s	s	7	4	SIC	250	2_3	2	3	4	1	23_4_1	2	2	1	0	0.587347984314	296.0	-297.0	292.0	-299.0	1
3.0.1	2019_Mar_07_1725	s	s	7	4	SIC	251	ABS	0	0	4	3	24_4_3	NA	NA	0	1	3.08558893204	None	None	None	None	1
3.0.1	2019_Mar_07_1725	s	s	7	4	SIC	252	4_3	4	3	3	1	23_3_1	1	2	1	0	1.20408201218	30.0	-50.0	34.0	-47.0	1
3.0.1	2019_Mar_07_1725	s	s	7	4	SIC	253	ABS	0	0	1	4	24_1_4	NA	NA	0	1	4.41492295265	None	None	None	None	1
3.0.1	2019_Mar_07_1725	s	s	7	4	SIC	254	1_3	1	3	4	3	23_4_3	3	0	1	0	0.576034069061	379.0	-409.0	379.0	-406.0	1
3.0.1	2019_Mar_07_1725	s	s	7	4	SIC	255	ABS	0	0	1	2	24_1_2	NA	NA	0	1	4.73018789291	None	None	None	None	1
3.0.1	2019_Mar_07_1725	s	s	7	4	SIC	256	ABS	0	0	4	2	24_4_2	NA	NA	0	1	4.44986200333	None	None	None	None	1
3.0.1	2019_Mar_07_1725	s	s	7	4	SIC	257	ABS	0	0	4	2	24_4_2	NA	NA	0	1	6.4679889679	None	None	None	None	1
3.0.1	2019_Mar_07_1725	s	s	7	4	SIC	258	1_3	1	3	3	1	23_3_1	2	2	1	0	0.622720003128	90.0	24.0	92.0	20.0	1
3.0.1	2019_Mar_07_1725	s	s	7	4	SIC	259	3_4	3	4	4	1	23_4_1	-1	3	1	0	0.993212938309	-211.0	-227.0	-215.0	-225.0	1
3.0.1	2019_Mar_07_1725	s	s	7	4	SIC	260	2_3	2	3	1	2	23_1_2	-1	1	1	0	0.634427785873	27.0	134.0	33.0	126.0	1
3.0.1	2019_Mar_07_1725	s	s	7	4	SIC	261	4_4	4	4	1	3	23_1_3	3	1	1	0	0.437387943268	-140.0	189.0	-141.0	185.0	1
3.0.1	2019_Mar_07_1725	s	s	7	4	SIC	262	ABS	0	0	1	1	24_1_1	NA	NA	0	1	4.82138895988	None	None	None	None	1
3.0.1	2019_Mar_07_1725	s	s	7	4	SIC	263	3_1	3	1	2	2	23_2_2	1	1	1	0	0.676841020584	205.0	-13.0	201.0	-3.0	1
3.0.1	2019_Mar_07_1725	s	s	7	4	SIC	264	ABS	0	0	3	1	24_3_1	NA	NA	0	1	4.09900999069	None	None	None	None	1
3.0.1	2019_Mar_07_1725	s	s	7	4	SIC	265	ABS	0	0	3	4	24_3_4	NA	NA	0	1	3.06903791428	None	None	None	None	1
3.0.1	2019_Mar_07_1725	s	s	7	4	SIC	266	ABS	0	0	4	3	24_4_3	NA	NA	0	1	3.6924021244	None	None	None	None	1
3.0.1	2019_Mar_07_1725	s	s	7	4	SIC	267	3_1	3	1	4	3	23_4_3	-1	2	1	0	0.543312072754	343.0	-40.0	342.0	-37.0	1
3.0.1	2019_Mar_07_1725	s	s	7	4	SIC	268	1_4	1	4	3	3	23_3_3	2	1	1	0	0.619127035141	265.0	-329.0	258.0	-324.0	1
3.0.1	2019_Mar_07_1725	s	s	7	4	SIC	269	ABS	0	0	3	4	24_3_4	NA	NA	0	1	4.3186070919	None	None	None	None	1
3.0.1	2019_Mar_07_1725	s	s	7	4	SIC	270	3_2	3	2	2	1	23_2_1	1	-1	1	0	0.628010988235	-130.0	201.0	-128.0	194.0	1
3.0.1	2019_Mar_07_1725	s	s	7	4	SIC	271	1_4	1	4	2	4	23_2_4	1	0	0	1	3.13340115547	-251.0	-337.0	None	None	0
3.0.1	2019_Mar_07_1725	s	s	7	4	SIC	272	ABS	0	0	1	3	24_1_3	NA	NA	0	1	4.84492015839	None	None	None	None	1
3.0.1	2019_Mar_07_1725	s	s	7	4	SIC	273	2_2	2	2	3	3	23_3_3	1	1	1	0	1.11665201187	-166.0	388.0	-169.0	396.0	1
3.0.1	2019_Mar_07_1725	s	s	7	4	SIC	274	ABS	0	0	1	4	24_1_4	NA	NA	0	1	1.9804251194	None	None	None	None	1
3.0.1	2019_Mar_07_1725	s	s	7	4	SIC	275	ABS	0	0	1	1	24_1_1	NA	NA	0	1	3.32374000549	None	None	None	None	1
3.0.1	2019_Mar_07_1725	s	s	7	4	SIC	276	2_1	2	1	4	3	23_4_3	2	2	1	0	0.886397123337	310.0	346.0	305.0	335.0	1
3.0.1	2019_Mar_07_1725	s	s	7	4	SIC	277	ABS	0	0	1	3	24_1_3	NA	NA	0	1	4.0334250927	None	None	None	None	1
3.0.1	2019_Mar_07_1725	s	s	7	4	SIC	278	3_4	3	4	2	2	23_2_2	1	2	1	0	0.697827100754	82.0	-368.0	87.0	-373.0	1
3.0.1	2019_Mar_07_1725	s	s	7	4	SIC	279	3_2	3	2	1	1	23_1_1	2	-1	1	0	0.672612905502	441.0	-79.0	439.0	-87.0	1
3.0.1	2019_Mar_07_1725	s	s	7	4	SIC	280	ABS	0	0	4	4	24_4_4	NA	NA	0	1	1.59351491928	None	None	None	None	1
3.0.1	2019_Mar_07_1725	s	s	7	4	SIC	281	ABS	0	0	3	2	24_3_2	NA	NA	0	1	3.57896995544	None	None	None	None	1
3.0.1	2019_Mar_07_1725	s	s	7	4	SIC	282	ABS	0	0	1	1	24_1_1	NA	NA	0	1	4.60339808464	None	None	None	None	1
3.0.1	2019_Mar_07_1725	s	s	7	4	SIC	283	1_3	1	3	2	4	23_2_4	1	-1	1	0	0.785430908203	403.0	-347.0	395.0	-353.0	1
3.0.1	2019_Mar_07_1725	s	s	7	4	SIC	284	ABS	0	0	4	1	24_4_1	NA	NA	0	1	1.82599616051	None	None	None	None	1
3.0.1	2019_Mar_07_1725	s	s	7	4	SIC	285	1_2	1	2	3	3	23_3_3	2	1	1	0	0.587414979935	41.0	-47.0	32.0	-40.0	1
3.0.1	2019_Mar_07_1725	s	s	7	4	SIC	286	ABS	0	0	1	2	24_1_2	NA	NA	0	1	4.33331608772	None	None	None	None	1
3.0.1	2019_Mar_07_1725	s	s	7	4	SIC	287	ABS	0	0	1	1	24_1_1	NA	NA	0	1	4.2496638298	None	None	None	None	1
3.0.1	2019_Mar_07_1725	s	s	7	4	SIC	288	ABS	0	0	1	3	24_1_3	NA	NA	0	1	3.7629199028	None	None	None	None	1
3.0.1	2019_Mar_07_1725	s	s	7	4	SIC	289	2_1	2	1	4	2	23_4_2	2	1	1	0	0.555001974106	431.0	-356.0	432.0	-366.0	1
3.0.1	2019_Mar_07_1725	s	s	7	4	SIC	290	3_1	3	1	4	1	23_4_1	-1	0	1	0	0.872324943542	112.0	334.0	117.0	336.0	1
3.0.1	2019_Mar_07_1725	s	s	7	4	SIC	291	4_3	4	3	2	2	23_2_2	2	1	1	0	0.698195934296	-271.0	173.0	-274.0	171.0	1
3.0.1	2019_Mar_07_1725	s	s	7	4	SIC	292	2_2	2	2	4	2	23_4_2	2	0	1	0	0.410943984985	-333.0	293.0	-339.0	289.0	1
3.0.1	2019_Mar_07_1725	s	s	7	4	SIC	293	2_4	2	4	2	1	23_2_1	0	3	1	0	0.722141027451	309.0	155.0	308.0	163.0	1
3.0.1	2019_Mar_07_1725	s	s	7	4	SIC	294	ABS	0	0	1	3	24_1_3	NA	NA	0	1	3.50259184837	None	None	None	None	1
3.0.1	2019_Mar_07_1725	s	s	7	4	SIC	295	ABS	0	0	2	2	24_2_2	NA	NA	0	1	4.65686702728	None	None	None	None	1
3.0.1	2019_Mar_07_1725	s	s	7	4	SIC	296	ABS	0	0	1	3	24_1_3	NA	NA	0	1	4.56259512901	None	None	None	None	1
3.0.1	2019_Mar_07_1725	s	s	7	4	SIC	297	ABS	0	0	3	4	24_3_4	NA	NA	0	1	1.67740392685	None	None	None	None	1
3.0.1	2019_Mar_07_1725	s	s	7	4	SIC	298	4_2	4	2	3	1	23_3_1	1	-1	1	0	0.496245861053	354.0	-188.0	360.0	-190.0	1
3.0.1	2019_Mar_07_1725	s	s	7	4	SIC	299	ABS	0	0	1	1	24_1_1	NA	NA	0	1	3.66898298264	None	None	None	None	1
3.0.1	2019_Mar_07_1725	s	s	7	4	SIC	300	2_3	2	3	4	2	23_4_2	2	1	1	0	0.437417984009	-213.0	127.0	-208.0	126.0	1
3.0.1	2019_Mar_07_1725	s	s	7	4	SIC	301	3_2	3	2	4	2	23_4_2	-1	0	1	0	0.422850131989	332.0	-41.0	323.0	-39.0	1
3.0.1	2019_Mar_07_1725	s	s	7	4	SIC	302	ABS	0	0	1	4	24_1_4	NA	NA	0	1	2.83875513077	None	None	None	None	1
3.0.1	2019_Mar_07_1725	s	s	7	4	SIC	303	2_1	2	1	1	1	23_1_1	-1	0	1	0	5.82107210159	-419.0	286.0	-415.0	287.0	1
3.0.1	2019_Mar_07_1725	s	s	7	4	SIC	304	ABS	0	0	1	4	24_1_4	NA	NA	0	1	3.93924999237	None	None	None	None	1
3.0.1	2019_Mar_07_1725	s	s	7	4	SIC	305	4_3	4	3	1	1	23_1_1	3	2	1	0	0.564074039459	-452.0	122.0	-453.0	128.0	1
3.0.1	2019_Mar_07_1725	s	s	7	4	SIC	306	ABS	0	0	2	3	24_2_3	NA	NA	0	1	2.72118210793	None	None	None	None	1
3.0.1	2019_Mar_07_1725	s	s	7	4	SIC	307	2_3	2	3	2	4	23_2_4	0	-1	1	0	1.03437709808	295.0	-304.0	303.0	-302.0	1
3.0.1	2019_Mar_07_1725	s	s	7	4	SIC	308	ABS	0	0	3	4	24_3_4	NA	NA	0	1	2.10456705093	None	None	None	None	1
3.0.1	2019_Mar_07_1725	s	s	7	4	SIC	309	2_3	2	3	1	3	23_1_3	-1	0	1	0	2.61320400238	-479.0	24.0	-483.0	31.0	1
3.0.1	2019_Mar_07_1725	s	s	7	4	SIC	310	1_3	1	3	2	1	23_2_1	1	2	1	0	4.91202902794	318.0	353.0	330.0	362.0	1
3.0.1	2019_Mar_07_1725	s	s	7	4	SIC	311	ABS	0	0	1	2	24_1_2	NA	NA	0	1	5.33900213242	None	None	None	None	1
3.0.1	2019_Mar_07_1725	s	s	7	4	SIC	312	2_2	2	2	1	4	23_1_4	-1	2	1	0	0.613785028458	-152.0	-197.0	-148.0	-204.0	1
3.0.1	2019_Mar_07_1725	s	s	7	4	SIC	313	2_3	2	3	1	4	23_1_4	-1	-1	1	0	0.622671127319	140.0	-79.0	136.0	-79.0	1
3.0.1	2019_Mar_07_1725	s	s	7	4	SIC	314	3_1	3	1	1	4	23_1_4	2	3	1	0	0.446134090424	17.0	181.0	17.0	183.0	1
3.0.1	2019_Mar_07_1725	s	s	7	4	SIC	315	ABS	0	0	2	2	24_2_2	NA	NA	0	1	5.82611680031	None	None	None	None	1
3.0.1	2019_Mar_07_1725	s	s	7	4	SIC	316	2_3	2	3	3	4	23_3_4	1	-1	1	0	0.570569038391	-454.0	316.0	-456.0	314.0	1
3.0.1	2019_Mar_07_1725	s	s	7	4	SIC	317	ABS	0	0	3	1	24_3_1	NA	NA	0	1	3.68049407005	None	None	None	None	1
3.0.1	2019_Mar_07_1725	s	s	7	4	SIC	318	2_4	2	4	3	3	23_3_3	1	1	1	0	0.634453058243	297.0	211.0	303.0	206.0	1
3.0.1	2019_Mar_07_1725	s	s	7	4	SIC	319	ABS	0	0	4	2	24_4_2	NA	NA	0	1	5.27125096321	None	None	None	None	1
3.0.1	2019_Mar_07_1725	s	s	7	4	SIC	320	ABS	0	0	3	2	24_3_2	NA	NA	0	1	6.33145499229	None	None	None	None	1
3.0.1	2019_Mar_07_1725	s	s	7	4	SIC	321	3_4	3	4	1	4	23_1_4	2	0	1	0	0.954928159714	411.0	-175.0	416.0	-178.0	1
3.0.1	2019_Mar_07_1725	s	s	7	4	SIC	322	1_2	1	2	4	2	23_4_2	3	0	1	0	0.3991959095	-353.0	43.0	-353.0	43.0	1
3.0.1	2019_Mar_07_1725	s	s	7	4	SIC	323	3_3	3	3	2	4	23_2_4	1	-1	1	0	0.469799041748	-240.0	36.0	-240.0	36.0	1
3.0.1	2019_Mar_07_1725	s	s	7	4	SIC	324	4_2	4	2	1	2	23_1_2	3	0	1	0	0.446243047714	351.0	-164.0	343.0	-160.0	1
3.0.1	2019_Mar_07_1725	s	s	7	4	SIC	325	ABS	0	0	4	4	24_4_4	NA	NA	0	1	1.96630477905	None	None	None	None	1
3.0.1	2019_Mar_07_1725	s	s	7	4	SIC	326	ABS	0	0	2	4	24_2_4	NA	NA	0	1	8.33792614937	None	None	None	None	1
3.0.1	2019_Mar_07_1725	s	s	7	4	SIC	327	ABS	0	0	2	3	24_2_3	NA	NA	0	1	5.40177297592	None	None	None	None	1
3.0.1	2019_Mar_07_1725	s	s	7	4	SIC	328	1_3	1	3	1	1	23_1_1	0	2	1	0	0.74533200264	220.0	-131.0	225.0	-123.0	1
3.0.1	2019_Mar_07_1725	s	s	7	4	SIC	329	3_3	3	3	1	1	23_1_1	2	2	1	0	0.960239887238	486.0	-336.0	483.0	-335.0	1
3.0.1	2019_Mar_07_1725	s	s	7	4	SIC	330	2_1	2	1	3	3	23_3_3	1	2	1	0	0.68714594841	214.0	-337.0	216.0	-341.0	1
3.0.1	2019_Mar_07_1725	s	s	7	4	SIC	331	3_3	3	3	3	1	23_3_1	0	2	1	0	0.563879966736	76.0	-149.0	73.0	-143.0	1
3.0.1	2019_Mar_07_1725	s	s	7	4	SIC	332	3_4	3	4	1	1	23_1_1	2	3	1	0	0.474799156189	-216.0	173.0	-213.0	183.0	1
3.0.1	2019_Mar_07_1725	s	s	7	4	SIC	333	2_3	2	3	2	1	23_2_1	0	2	1	0	2.45733904839	391.0	369.0	387.0	365.0	1
3.0.1	2019_Mar_07_1725	s	s	7	4	SIC	334	2_3	2	3	3	3	23_3_3	1	0	1	0	0.532572031021	-308.0	200.0	-297.0	200.0	1
3.0.1	2019_Mar_07_1725	s	s	7	4	SIC	335	ABS	0	0	3	3	24_3_3	NA	NA	0	1	3.67872881889	None	None	None	None	1
3.0.1	2019_Mar_07_1725	s	s	7	4	SIC	336	2_2	2	2	1	2	23_1_2	-1	0	1	0	2.66353607178	-402.0	227.0	-398.0	223.0	1
3.0.1	2019_Mar_07_1725	s	s	7	4	SIC	337	ABS	0	0	1	3	24_1_3	NA	NA	0	1	5.8733689785	None	None	None	None	1
3.0.1	2019_Mar_07_1725	s	s	7	4	SIC	338	4_2	4	2	3	3	23_3_3	1	1	1	0	0.646234989166	310.0	-252.0	318.0	-255.0	1
3.0.1	2019_Mar_07_1725	s	s	7	4	SIC	339	ABS	0	0	1	1	24_1_1	NA	NA	0	1	5.44102597237	None	None	None	None	1
3.0.1	2019_Mar_07_1725	s	s	7	4	SIC	340	1_4	1	4	2	3	23_2_3	1	1	1	0	0.839435100555	-494.0	85.0	-497.0	79.0	1
3.0.1	2019_Mar_07_1725	s	s	7	4	SIC	341	ABS	0	0	2	2	24_2_2	NA	NA	0	1	6.4120759964	None	None	None	None	1
3.0.1	2019_Mar_07_1725	s	s	7	4	SIC	342	2_3	2	3	3	1	23_3_1	1	2	1	0	0.652866125107	-192.0	-50.0	-189.0	-53.0	1
3.0.1	2019_Mar_07_1725	s	s	7	4	SIC	343	3_1	3	1	1	1	23_1_1	2	0	1	0	0.39919090271	-241.0	102.0	-234.0	105.0	1
3.0.1	2019_Mar_07_1725	s	s	7	4	SIC	344	ABS	0	0	1	4	24_1_4	NA	NA	0	1	4.10393595695	None	None	None	None	1
3.0.1	2019_Mar_07_1725	s	s	7	4	SIC	345	4_1	4	1	4	4	23_4_4	0	3	1	0	0.604238033295	-254.0	15.0	-253.0	13.0	1
3.0.1	2019_Mar_07_1725	s	s	7	4	SIC	346	ABS	0	0	2	3	24_2_3	NA	NA	0	1	6.46020293236	None	None	None	None	1
3.0.1	2019_Mar_07_1725	s	s	7	4	SIC	347	ABS	0	0	3	1	24_3_1	NA	NA	0	1	2.66124606133	None	None	None	None	1
3.0.1	2019_Mar_07_1725	s	s	7	4	SIC	348	ABS	0	0	1	1	24_1_1	NA	NA	0	1	6.23284816742	None	None	None	None	1
3.0.1	2019_Mar_07_1725	s	s	7	4	SIC	349	3_1	3	1	1	3	23_1_3	2	2	1	0	0.575658082962	-118.0	251.0	-106.0	261.0	1
3.0.1	2019_Mar_07_1725	s	s	7	4	SIC	350	ABS	0	0	3	4	24_3_4	NA	NA	0	1	2.28099584579	None	None	None	None	1
3.0.1	2019_Mar_07_1725	s	s	7	4	SIC	351	1_4	1	4	4	4	23_4_4	3	0	1	0	0.511043071747	366.0	-232.0	356.0	-227.0	1
3.0.1	2019_Mar_07_1725	s	s	7	4	SIC	352	ABS	0	0	2	4	24_2_4	NA	NA	0	1	3.20747900009	None	None	None	None	1
3.0.1	2019_Mar_07_1725	s	s	7	4	SIC	353	3_4	3	4	3	3	23_3_3	0	1	1	0	0.634381055832	-94.0	-277.0	-91.0	-279.0	1
3.0.1	2019_Mar_07_1725	s	s	7	4	SIC	354	ABS	0	0	2	2	24_2_2	NA	NA	0	1	6.47967600822	None	None	None	None	1
3.0.1	2019_Mar_07_1725	s	s	7	4	SIC	355	ABS	0	0	1	4	24_1_4	NA	NA	0	1	3.65047097206	None	None	None	None	1
3.0.1	2019_Mar_07_1725	s	s	7	4	SIC	356	ABS	0	0	4	1	24_4_1	NA	NA	0	1	3.21008300781	None	None	None	None	1
3.0.1	2019_Mar_07_1725	s	s	7	4	SIC	357	1_4	1	4	1	3	23_1_3	0	1	1	0	1.42758893967	-464.0	393.0	-461.0	393.0	1
3.0.1	2019_Mar_07_1725	s	s	7	4	SIC	358	2_4	2	4	4	4	23_4_4	2	0	1	0	0.474591016769	402.0	147.0	406.0	147.0	1
3.0.1	2019_Mar_07_1725	s	s	7	4	SIC	359	3_2	3	2	3	1	23_3_1	0	-1	0	1	2.13321590424	163.0	410.0	None	None	0
3.0.1	2019_Mar_07_1725	s	s	7	4	SIC	360	ABS	0	0	3	1	24_3_1	NA	NA	0	1	2.37796092033	None	None	None	None	1
3.0.1	2019_Mar_07_1725	s	s	7	4	SIC	361	ABS	0	0	4	3	24_4_3	NA	NA	0	1	2.25146985054	None	None	None	None	1
3.0.1	2019_Mar_07_1725	s	s	7	4	SIC	362	ABS	0	0	3	2	24_3_2	NA	NA	0	1	4.53050494194	None	None	None	None	1
3.0.1	2019_Mar_07_1725	s	s	7	4	SIC	363	ABS	0	0	4	2	24_4_2	NA	NA	0	1	4.65678596497	None	None	None	None	1
3.0.1	2019_Mar_07_1725	s	s	7	4	SIC	364	2_1	2	1	2	4	23_2_4	0	3	1	0	0.672604799271	-369.0	7.0	-363.0	1.0	1
3.0.1	2019_Mar_07_1725	s	s	7	4	SIC	365	3_3	3	3	3	2	23_3_2	0	1	0	1	3.030575037	-341.0	-359.0	None	None	0
3.0.1	2019_Mar_07_1725	s	s	7	4	SIC	366	ABS	0	0	1	1	24_1_1	NA	NA	0	1	3.69233012199	None	None	None	None	1
3.0.1	2019_Mar_07_1725	s	s	7	4	SIC	367	4_3	4	3	2	1	23_2_1	2	2	1	0	0.516831874847	60.0	-79.0	65.0	-73.0	1
3.0.1	2019_Mar_07_1725	s	s	7	4	SIC	368	ABS	0	0	1	4	24_1_4	NA	NA	0	1	2.95144605637	None	None	None	None	1
3.0.1	2019_Mar_07_1725	s	s	7	4	SIC	369	ABS	0	0	3	1	24_3_1	NA	NA	0	1	2.78674197197	None	None	None	None	1
3.0.1	2019_Mar_07_1725	s	s	7	4	SIC	370	ABS	0	0	1	3	24_1_3	NA	NA	0	1	5.04973602295	None	None	None	None	1
3.0.1	2019_Mar_07_1725	s	s	7	4	SIC	371	ABS	0	0	1	1	24_1_1	NA	NA	0	1	4.68533420563	None	None	None	None	1
3.0.1	2019_Mar_07_1725	s	s	7	4	SIC	372	ABS	0	0	2	4	24_2_4	NA	NA	0	1	2.39855504036	None	None	None	None	1
3.0.1	2019_Mar_07_1725	s	s	7	4	SIC	373	ABS	0	0	4	2	24_4_2	NA	NA	0	1	5.48914694786	None	None	None	None	1
3.0.1	2019_Mar_07_1725	s	s	7	4	SIC	374	ABS	0	0	2	2	24_2_2	NA	NA	0	1	5.53882098198	None	None	None	None	1
3.0.1	2019_Mar_07_1725	s	s	7	4	SIC	375	4_1	4	1	3	3	23_3_3	1	2	1	0	0.672842025757	-324.0	-133.0	-316.0	-136.0	1
3.0.1	2019_Mar_07_1725	s	s	7	4	SIC	376	ABS	0	0	3	1	24_3_1	NA	NA	0	1	1.75642490387	None	None	None	None	1
3.0.1	2019_Mar_07_1725	s	s	7	4	SIC	377	1_4	1	4	4	3	23_4_3	3	1	1	0	0.587296962738	-149.0	-383.0	-146.0	-384.0	1
3.0.1	2019_Mar_07_1725	s	s	7	4	SIC	378	ABS	0	0	2	1	24_2_1	NA	NA	0	1	4.73552703857	None	None	None	None	1
3.0.1	2019_Mar_07_1725	s	s	7	4	SIC	379	1_4	1	4	2	1	23_2_1	1	3	1	0	0.604504823685	324.0	76.0	325.0	85.0	1
3.0.1	2019_Mar_07_1725	s	s	7	4	SIC	380	4_4	4	4	2	3	23_2_3	2	1	1	0	0.393347978592	533.0	22.0	532.0	23.0	1
3.0.1	2019_Mar_07_1725	s	s	7	4	SIC	381	1_4	1	4	3	4	23_3_4	2	0	1	0	0.437392950058	-169.0	-90.0	-164.0	-95.0	1
3.0.1	2019_Mar_07_1725	s	s	7	4	SIC	382	ABS	0	0	1	3	24_1_3	NA	NA	0	1	4.92751598358	None	None	None	None	1
3.0.1	2019_Mar_07_1725	s	s	7	4	SIC	383	ABS	0	0	1	1	24_1_1	NA	NA	1	0	4.88018894196	None	None	50.0	28.0	0
3.0.1	2019_Mar_07_1725	s	s	7	4	SIC	384	ABS	0	0	2	1	24_2_1	NA	NA	0	1	4.8734869957	None	None	None	None	1
3.0.1	2019_Mar_07_1725	s	s	7	4	SIC	385	ABS	0	0	4	3	24_4_3	NA	NA	0	1	4.0010330677	None	None	None	None	1
3.0.1	2019_Mar_07_1725	s	s	7	4	SIC	386	ABS	0	0	4	1	24_4_1	NA	NA	0	1	2.06931710243	None	None	None	None	1
3.0.1	2019_Mar_07_1725	s	s	7	4	SIC	387	4_4	4	4	1	4	23_1_4	3	0	1	0	0.740307092667	445.0	-347.0	447.0	-346.0	1
3.0.1	2019_Mar_07_1725	s	s	7	4	SIC	388	3_2	3	2	1	2	23_1_2	2	0	1	0	0.646183013916	-233.0	-391.0	-226.0	-388.0	1
3.0.1	2019_Mar_07_1725	s	s	7	4	SIC	389	ABS	0	0	2	3	24_2_3	NA	NA	0	1	4.93183112144	None	None	None	None	1
3.0.1	2019_Mar_07_1725	s	s	7	4	SIC	390	1_2	1	2	2	2	23_2_2	1	0	1	0	3.89227199554	-44.0	-402.0	-41.0	-409.0	1
3.0.1	2019_Mar_07_1725	s	s	7	4	SIC	391	3_2	3	2	2	2	23_2_2	1	0	1	0	0.669754981995	-354.0	-241.0	-359.0	-245.0	1
3.0.1	2019_Mar_07_1725	s	s	7	4	SIC	392	ABS	0	0	2	1	24_2_1	NA	NA	0	1	5.34367394447	None	None	None	None	1
3.0.1	2019_Mar_07_1725	s	s	7	4	SIC	393	3_1	3	1	3	2	23_3_2	0	1	1	0	4.83830881119	-369.0	-308.0	-365.0	-308.0	1
3.0.1	2019_Mar_07_1725	s	s	7	4	SIC	394	ABS	0	0	2	3	24_2_3	NA	NA	0	1	5.3905980587	None	None	None	None	1
3.0.1	2019_Mar_07_1725	s	s	7	4	SIC	395	ABS	0	0	1	4	24_1_4	NA	NA	0	1	3.25051689148	None	None	None	None	1
3.0.1	2019_Mar_07_1725	s	s	7	4	SIC	396	ABS	0	0	2	1	24_2_1	NA	NA	0	1	5.20548915863	None	None	None	None	1
3.0.1	2019_Mar_07_1725	s	s	7	4	SIC	397	ABS	0	0	2	3	24_2_3	NA	NA	0	1	3.95108103752	None	None	None	None	1
3.0.1	2019_Mar_07_1725	s	s	7	4	SIC	398	1_3	1	3	3	2	23_3_2	2	1	1	0	0.590319871902	311.0	239.0	313.0	246.0	1
3.0.1	2019_Mar_07_1725	s	s	7	4	SIC	399	ABS	0	0	3	4	24_3_4	NA	NA	0	1	2.14872694016	None	None	None	None	1
3.0.1	2019_Mar_07_1725	s	s	7	4	SIC	400	4_2	4	2	4	4	23_4_4	0	2	1	0	0.587434053421	264.0	-60.0	257.0	-58.0	1
3.0.1	2019_Mar_07_1725	s	s	7	4	SIC	401	1_2	1	2	2	4	23_2_4	1	2	1	0	0.599193096161	-239.0	157.0	-229.0	159.0	1
3.0.1	2019_Mar_07_1725	s	s	7	4	SIC	402	3_4	3	4	1	2	23_1_2	2	2	1	0	0.545184135437	414.0	17.0	426.0	20.0	1
3.0.1	2019_Mar_07_1725	s	s	7	4	SIC	403	1_1	1	1	2	3	23_2_3	1	2	1	0	1.06959414482	-375.0	-243.0	-372.0	-254.0	1
3.0.1	2019_Mar_07_1725	s	s	7	4	SIC	404	4_4	4	4	3	1	23_3_1	1	3	1	0	0.416017055511	251.0	-3.0	247.0	-2.0	1
3.0.1	2019_Mar_07_1725	s	s	7	4	SIC	405	1_1	1	1	1	4	23_1_4	0	3	1	0	0.422737836838	441.0	8.0	443.0	6.0	1
3.0.1	2019_Mar_07_1725	s	s	7	4	SIC	406	ABS	0	0	3	1	24_3_1	NA	NA	1	0	0.4228079319	None	None	489.0	64.0	0
3.0.1	2019_Mar_07_1725	s	s	7	4	SIC	407	ABS	0	0	3	4	24_3_4	NA	NA	0	1	0.77557015419	None	None	None	None	1
3.0.1	2019_Mar_07_1725	s	s	7	4	SIC	408	4_1	4	1	2	2	23_2_2	2	1	1	0	0.672618865967	321.0	-408.0	326.0	-409.0	1
3.0.1	2019_Mar_07_1725	s	s	7	4	SIC	409	ABS	0	0	2	4	24_2_4	NA	NA	0	1	3.29249691963	None	None	None	None	1
3.0.1	2019_Mar_07_1725	s	s	7	4	SIC	410	4_2	4	2	3	2	23_3_2	1	0	1	0	0.521413087845	-337.0	19.0	-336.0	23.0	1
3.0.1	2019_Mar_07_1725	s	s	7	4	SIC	411	3_1	3	1	1	2	23_1_2	2	1	1	0	0.987169027328	-72.0	214.0	-61.0	220.0	1
3.0.1	2019_Mar_07_1725	s	s	7	4	SIC	412	ABS	0	0	4	1	24_4_1	NA	NA	0	1	3.39272212982	None	None	None	None	1
3.0.1	2019_Mar_07_1725	s	s	7	4	SIC	413	1_2	1	2	3	4	23_3_4	2	2	1	0	0.716823101044	275.0	-338.0	276.0	-333.0	1
3.0.1	2019_Mar_07_1725	s	s	7	4	SIC	414	2_4	2	4	3	4	23_3_4	1	0	1	0	2.88080096245	500.0	276.0	501.0	271.0	1
3.0.1	2019_Mar_07_1725	s	s	7	4	SIC	415	ABS	0	0	1	4	24_1_4	NA	NA	0	1	2.23434686661	None	None	None	None	1
3.0.1	2019_Mar_07_1725	s	s	7	4	SIC	416	ABS	0	0	1	3	24_1_3	NA	NA	0	1	4.85668492317	None	None	None	None	1
3.0.1	2019_Mar_07_1725	s	s	7	4	SIC	417	ABS	0	0	4	4	24_4_4	NA	NA	0	1	2.42222213745	None	None	None	None	1
3.0.1	2019_Mar_07_1725	s	s	7	4	SIC	418	1_4	1	4	4	2	23_4_2	3	2	1	0	0.686525821686	307.0	-252.0	304.0	-251.0	1
3.0.1	2019_Mar_07_1725	s	s	7	4	SIC	419	3_3	3	3	3	4	23_3_4	0	-1	1	0	0.849030017853	241.0	100.0	240.0	105.0	1
3.0.1	2019_Mar_07_1725	s	s	7	4	SIC	420	4_2	4	2	2	3	23_2_3	2	1	1	0	0.387439966202	388.0	22.0	376.0	24.0	1
3.0.1	2019_Mar_07_1725	s	s	7	4	SIC	421	3_4	3	4	3	1	23_3_1	0	3	1	0	0.575643062592	142.0	235.0	134.0	233.0	1
3.0.1	2019_Mar_07_1725	s	s	7	4	SIC	422	3_3	3	3	4	1	23_4_1	-1	2	1	0	0.599193811417	-478.0	280.0	-478.0	285.0	1
3.0.1	2019_Mar_07_1725	s	s	7	4	SIC	423	2_4	2	4	4	1	23_4_1	2	3	1	0	0.392585039139	-370.0	395.0	-377.0	394.0	1
3.0.1	2019_Mar_07_1725	s	s	7	4	SIC	424	ABS	0	0	3	3	24_3_3	NA	NA	0	1	4.52735805511	None	None	None	None	1
3.0.1	2019_Mar_07_1725	s	s	7	4	SIC	425	ABS	0	0	2	1	24_2_1	NA	NA	0	1	3.86880993843	None	None	None	None	1
3.0.1	2019_Mar_07_1725	s	s	7	4	SIC	426	3_2	3	2	1	3	23_1_3	2	1	1	0	3.03371214867	-494.0	-331.0	-488.0	-329.0	1
3.0.1	2019_Mar_07_1725	s	s	7	4	SIC	427	4_2	4	2	2	2	23_2_2	2	0	1	0	0.516752958298	-467.0	283.0	-478.0	284.0	1
3.0.1	2019_Mar_07_1725	s	s	7	4	SIC	428	2_1	2	1	3	4	23_3_4	1	3	1	0	0.68806886673	121.0	-124.0	112.0	-122.0	1
3.0.1	2019_Mar_07_1725	s	s	7	4	SIC	429	4_4	4	4	1	1	23_1_1	3	3	1	0	0.451123952866	-15.0	-113.0	-19.0	-115.0	1
3.0.1	2019_Mar_07_1725	s	s	7	4	SIC	430	3_4	3	4	1	3	23_1_3	2	1	1	0	0.646636009216	-429.0	362.0	-431.0	358.0	1
3.0.1	2019_Mar_07_1725	s	s	7	4	SIC	431	4_2	4	2	2	4	23_2_4	2	2	1	0	0.411039829254	253.0	-94.0	261.0	-95.0	1
3.0.1	2019_Mar_07_1725	s	s	7	4	SIC	432	ABS	0	0	4	4	24_4_4	NA	NA	0	1	0.790235042572	None	None	None	None	1
3.0.1	2019_Mar_07_1725	s	s	7	4	SIC	433	4_1	4	1	3	4	23_3_4	1	3	1	0	0.578310966492	141.0	386.0	145.0	382.0	1
3.0.1	2019_Mar_07_1725	s	s	7	4	SIC	434	1_1	1	1	4	3	23_4_3	3	2	1	0	0.437497138977	-518.0	384.0	-521.0	389.0	1
3.0.1	2019_Mar_07_1725	s	s	7	4	SIC	435	2_2	2	2	3	2	23_3_2	1	0	1	0	0.795295000076	294.0	-395.0	297.0	-392.0	1
3.0.1	2019_Mar_07_1725	s	s	7	4	SIC	436	ABS	0	0	1	1	24_1_1	NA	NA	0	1	3.43745493889	None	None	None	None	1
3.0.1	2019_Mar_07_1725	s	s	7	4	SIC	437	4_3	4	3	4	4	23_4_4	0	-1	1	0	0.568630933762	280.0	162.0	283.0	159.0	1
3.0.1	2019_Mar_07_1725	s	s	7	4	SIC	438	ABS	0	0	4	1	24_4_1	NA	NA	0	1	1.71653294563	None	None	None	None	1
3.0.1	2019_Mar_07_1725	s	s	7	4	SIC	439	ABS	0	0	4	3	24_4_3	NA	NA	0	1	2.64967989922	None	None	None	None	1
3.0.1	2019_Mar_07_1725	s	s	7	4	SIC	440	ABS	0	0	3	1	24_3_1	NA	NA	0	1	2.20184993744	None	None	None	None	1
3.0.1	2019_Mar_07_1725	s	s	7	4	SIC	441	3_3	3	3	4	2	23_4_2	-1	1	1	0	0.60421705246	-532.0	97.0	-523.0	99.0	1
3.0.1	2019_Mar_07_1725	s	s	7	4	SIC	442	4_2	4	2	4	1	23_4_1	0	-1	1	0	1.2223649025	-430.0	48.0	-433.0	43.0	1
3.0.1	2019_Mar_07_1725	s	s	7	4	SIC	443	2_2	2	2	4	4	23_4_4	2	2	1	0	0.469770908356	385.0	229.0	382.0	226.0	1
3.0.1	2019_Mar_07_1725	s	s	7	4	SIC	444	ABS	0	0	2	1	24_2_1	NA	NA	0	1	4.97025799751	None	None	None	None	1
3.0.1	2019_Mar_07_1725	s	s	7	4	SIC	445	ABS	0	0	4	2	24_4_2	NA	NA	0	1	3.69901895523	None	None	None	None	1
3.0.1	2019_Mar_07_1725	s	s	7	4	SIC	446	3_1	3	1	4	4	23_4_4	-1	3	1	0	0.672637939453	477.0	-285.0	471.0	-285.0	1
3.0.1	2019_Mar_07_1725	s	s	7	4	SIC	447	ABS	0	0	4	2	24_4_2	NA	NA	0	1	4.63316893578	None	None	None	None	1
3.0.1	2019_Mar_07_1725	s	s	7	4	SIC	448	ABS	0	0	4	1	24_4_1	NA	NA	0	1	3.65040397644	None	None	None	None	1
3.0.1	2019_Mar_07_1725	s	s	7	4	SIC	449	ABS	0	0	2	4	24_2_4	NA	NA	0	1	4.436191082	None	None	None	None	1
3.0.1	2019_Mar_07_1725	s	s	7	4	SIC	450	3_4	3	4	4	2	23_4_2	-1	2	1	0	0.48427605629	-235.0	341.0	-223.0	348.0	1
3.0.1	2019_Mar_07_1725	s	s	7	4	SIC	451	ABS	0	0	2	2	24_2_2	NA	NA	0	1	4.22159314156	None	None	None	None	1
3.0.1	2019_Mar_07_1725	s	s	7	4	SIC	452	2_4	2	4	1	3	23_1_3	-1	1	1	0	1.85802412033	43.0	73.0	38.0	73.0	1
3.0.1	2019_Mar_07_1725	s	s	7	4	SIC	453	3_4	3	4	2	4	23_2_4	1	0	1	0	0.858175992966	-129.0	-31.0	-139.0	-32.0	1
3.0.1	2019_Mar_07_1725	s	s	7	4	SIC	454	4_1	4	1	3	1	23_3_1	1	0	1	0	1.56006598473	487.0	-186.0	476.0	-179.0	1
3.0.1	2019_Mar_07_1725	s	s	7	4	SIC	455	ABS	0	0	3	4	24_3_4	NA	NA	1	0	1.12875103951	None	None	0.0	3.0	0
3.0.1	2019_Mar_07_1725	s	s	7	4	SIC	456	ABS	0	0	3	4	24_3_4	NA	NA	0	1	1.11655092239	None	None	None	None	1
3.0.1	2019_Mar_07_1725	s	s	7	4	SIC	457	ABS	0	0	3	3	24_3_3	NA	NA	0	1	3.03029608727	None	None	None	None	1
3.0.1	2019_Mar_07_1725	s	s	7	4	SIC	458	3_2	3	2	4	3	23_4_3	-1	1	1	0	0.563884019852	-16.0	-9.0	-10.0	-10.0	1
3.0.1	2019_Mar_07_1725	s	s	7	4	SIC	459	ABS	0	0	4	2	24_4_2	NA	NA	0	1	2.72792005539	None	None	None	None	1
3.0.1	2019_Mar_07_1725	s	s	7	4	SIC	460	ABS	0	0	2	4	24_2_4	NA	NA	0	1	1.11673808098	None	None	None	None	1
3.0.1	2019_Mar_07_1725	s	s	7	4	SIC	461	2_2	2	2	2	4	23_2_4	0	2	1	0	0.569489955902	-142.0	199.0	-144.0	193.0	1
3.0.1	2019_Mar_07_1725	s	s	7	4	SIC	462	ABS	0	0	2	4	24_2_4	NA	NA	0	1	2.22687911987	None	None	None	None	1
3.0.1	2019_Mar_07_1725	s	s	7	4	SIC	463	4_2	4	2	4	3	23_4_3	0	1	1	0	2.54486322403	52.0	-62.0	56.0	-66.0	1
3.0.1	2019_Mar_07_1725	s	s	7	4	SIC	464	1_3	1	3	4	1	23_4_1	3	2	1	0	0.516803979874	53.0	-39.0	52.0	-34.0	1
3.0.1	2019_Mar_07_1725	s	s	7	4	SIC	465	3_3	3	3	1	2	23_1_2	2	1	1	0	0.637893915176	503.0	-311.0	515.0	-307.0	1
3.0.1	2019_Mar_07_1725	s	s	7	4	SIC	466	ABS	0	0	4	1	24_4_1	NA	NA	0	1	1.72283506393	None	None	None	None	1
3.0.1	2019_Mar_07_1725	s	s	7	4	SIC	467	2_2	2	2	3	1	23_3_1	1	-1	1	0	0.613929033279	515.0	-112.0	521.0	-115.0	1
3.0.1	2019_Mar_07_1725	s	s	7	4	SIC	468	ABS	0	0	3	4	24_3_4	NA	NA	0	1	1.4160220623	None	None	None	None	1
3.0.1	2019_Mar_07_1725	s	s	7	4	SIC	469	ABS	0	0	3	1	24_3_1	NA	NA	0	1	2.12817215919	None	None	None	None	1
3.0.1	2019_Mar_07_1725	s	s	7	4	SIC	470	ABS	0	0	3	1	24_3_1	NA	NA	0	1	2.07223510742	None	None	None	None	1
3.0.1	2019_Mar_07_1725	s	s	7	4	SIC	471	ABS	0	0	2	3	24_2_3	NA	NA	0	1	5.20957112312	None	None	None	None	1
3.0.1	2019_Mar_07_1725	s	s	7	4	SIC	472	ABS	0	0	4	2	24_4_2	NA	NA	0	1	1.45101809502	None	None	None	None	1
3.0.1	2019_Mar_07_1725	s	s	7	4	SIC	473	ABS	0	0	4	3	24_4_3	NA	NA	0	1	2.89540696144	None	None	None	None	1
3.0.1	2019_Mar_07_1725	s	s	7	4	SIC	474	ABS	0	0	1	2	24_1_2	NA	NA	0	1	4.3922328949	None	None	None	None	1
3.0.1	2019_Mar_07_1725	s	s	7	4	SIC	475	ABS	0	0	1	2	24_1_2	NA	NA	0	1	3.55120992661	None	None	None	None	1
3.0.1	2019_Mar_07_1725	s	s	7	4	SIC	476	3_4	3	4	4	3	23_4_3	-1	1	1	0	0.580673933029	-486.0	-75.0	-480.0	-76.0	1
3.0.1	2019_Mar_07_1725	s	s	7	4	SIC	477	ABS	0	0	4	3	24_4_3	NA	NA	0	1	3.05726695061	None	None	None	None	1
3.0.1	2019_Mar_07_1725	s	s	7	4	SIC	478	ABS	0	0	3	3	24_3_3	NA	NA	0	1	3.31888794899	None	None	None	None	1
3.0.1	2019_Mar_07_1725	s	s	7	4	SIC	479	ABS	0	0	4	3	24_4_3	NA	NA	0	1	3.35132098198	None	None	None	None	1
3.0.1	2019_Mar_07_1725	s	s	7	4	SIC	480	ABS	0	0	4	1	24_4_1	NA	NA	0	1	2.38289093971	None	None	None	None	1
