Version	Date	Stimuli	Method	Subject	Session	Condition	Trial	Target	TColor	TShape	DColor	DShape	Distractors	Channel1	Channel2	LMouseButton	RMouseButton	RT	TargetX	TargetY	ResponseX	ResponseY	Correct
3.0.1	2019_Mar_04_1801	s	s	7	1	Capacity	1	ABS	0	0	4	1	24_4_1	NA	NA	0	1	0.898404836655	None	None	None	None	1
3.0.1	2019_Mar_04_1801	s	s	7	1	Capacity	2	ABS	0	0	3	1	24_3_1	NA	NA	0	1	0.780678987503	None	None	None	None	1
3.0.1	2019_Mar_04_1801	s	s	7	1	Capacity	3	2_1	2	1	1	1	23_1_1	-1	0	0	1	0.756597042084	-253.0	228.0	None	None	0
3.0.1	2019_Mar_04_1801	s	s	7	1	Capacity	4	4_1	4	1	2	1	23_2_1	2	0	1	0	0.717190027237	519.0	372.0	514.0	375.0	1
3.0.1	2019_Mar_04_1801	s	s	7	1	Capacity	5	2_1	2	1	3	1	23_3_1	1	0	1	0	1.28144598007	245.0	-18.0	239.0	-23.0	1
3.0.1	2019_Mar_04_1801	s	s	7	1	Capacity	6	1_1	1	1	4	1	23_4_1	3	0	1	0	0.599102973938	-126.0	45.0	-123.0	46.0	1
3.0.1	2019_Mar_04_1801	s	s	7	1	Capacity	7	ABS	0	0	2	1	24_2_1	NA	NA	0	1	0.634444952011	None	None	None	None	1
3.0.1	2019_Mar_04_1801	s	s	7	1	Capacity	8	ABS	0	0	1	1	24_1_1	NA	NA	0	1	0.679172992706	None	None	None	None	1
3.0.1	2019_Mar_04_1801	s	s	7	1	Capacity	9	4_1	4	1	1	1	23_1_1	3	0	1	0	0.663066148758	203.0	-387.0	207.0	-388.0	1
3.0.1	2019_Mar_04_1801	s	s	7	1	Capacity	10	ABS	0	0	3	1	24_3_1	NA	NA	0	1	1.42883992195	None	None	None	None	1
3.0.1	2019_Mar_04_1801	s	s	7	1	Capacity	11	3_1	3	1	1	1	23_1_1	2	0	1	0	0.752039909363	-14.0	214.0	-7.0	215.0	1
3.0.1	2019_Mar_04_1801	s	s	7	1	Capacity	12	ABS	0	0	3	1	24_3_1	NA	NA	0	1	1.05781817436	None	None	None	None	1
3.0.1	2019_Mar_04_1801	s	s	7	1	Capacity	13	ABS	0	0	4	1	24_4_1	NA	NA	0	1	0.672842025757	None	None	None	None	1
3.0.1	2019_Mar_04_1801	s	s	7	1	Capacity	14	1_1	1	1	3	1	23_3_1	2	0	1	0	0.780736207962	-337.0	282.0	-342.0	283.0	1
3.0.1	2019_Mar_04_1801	s	s	7	1	Capacity	15	ABS	0	0	2	1	24_2_1	NA	NA	0	1	0.913631916046	None	None	None	None	1
3.0.1	2019_Mar_04_1801	s	s	7	1	Capacity	16	4_1	4	1	3	1	23_3_1	1	0	1	0	1.34342288971	-498.0	-165.0	-499.0	-166.0	1
3.0.1	2019_Mar_04_1801	s	s	7	1	Capacity	17	ABS	0	0	2	1	24_2_1	NA	NA	0	1	1.76756811142	None	None	None	None	1
3.0.1	2019_Mar_04_1801	s	s	7	1	Capacity	18	ABS	0	0	4	1	24_4_1	NA	NA	0	1	1.6042778492	None	None	None	None	1
3.0.1	2019_Mar_04_1801	s	s	7	1	Capacity	19	ABS	0	0	1	1	24_1_1	NA	NA	0	1	1.58706188202	None	None	None	None	1
3.0.1	2019_Mar_04_1801	s	s	7	1	Capacity	20	3_1	3	1	2	1	23_2_1	1	0	1	0	0.769364118576	-26.0	352.0	-29.0	361.0	1
3.0.1	2019_Mar_04_1801	s	s	7	1	Capacity	21	ABS	0	0	1	1	24_1_1	NA	NA	0	1	1.18724107742	None	None	None	None	1
3.0.1	2019_Mar_04_1801	s	s	7	1	Capacity	22	3_1	3	1	4	1	23_4_1	-1	0	1	0	0.763792991638	-209.0	326.0	-208.0	325.0	1
3.0.1	2019_Mar_04_1801	s	s	7	1	Capacity	23	2_1	2	1	4	1	23_4_1	2	0	0	1	0.693227052689	416.0	390.0	None	None	0
3.0.1	2019_Mar_04_1801	s	s	7	1	Capacity	24	1_1	1	1	2	1	23_2_1	1	0	1	0	2.91606593132	-183.0	86.0	-186.0	84.0	1
3.0.1	2019_Mar_04_1801	s	s	7	1	Capacity	25	ABS	0	0	2	1	24_2_1	NA	NA	0	1	2.64065289497	None	None	None	None	1
3.0.1	2019_Mar_04_1801	s	s	7	1	Capacity	26	ABS	0	0	1	1	24_1_1	NA	NA	0	1	1.67550206184	None	None	None	None	1
3.0.1	2019_Mar_04_1801	s	s	7	1	Capacity	27	4_1	4	1	3	1	23_3_1	1	0	1	0	0.756054878235	213.0	-158.0	208.0	-148.0	1
3.0.1	2019_Mar_04_1801	s	s	7	1	Capacity	28	ABS	0	0	4	1	24_4_1	NA	NA	1	0	3.03108906746	None	None	55.0	89.0	0
3.0.1	2019_Mar_04_1801	s	s	7	1	Capacity	29	4_1	4	1	2	1	23_2_1	2	0	1	0	1.34581112862	499.0	-281.0	505.0	-289.0	1
3.0.1	2019_Mar_04_1801	s	s	7	1	Capacity	30	2_1	2	1	1	1	23_1_1	-1	0	0	1	2.638463974	109.0	-156.0	None	None	0
3.0.1	2019_Mar_04_1801	s	s	7	1	Capacity	31	2_1	2	1	3	1	23_3_1	1	0	1	0	1.55478382111	-414.0	118.0	-405.0	115.0	1
3.0.1	2019_Mar_04_1801	s	s	7	1	Capacity	32	ABS	0	0	3	1	24_3_1	NA	NA	0	1	1.49591898918	None	None	None	None	1
3.0.1	2019_Mar_04_1801	s	s	7	1	Capacity	33	3_1	3	1	2	1	23_2_1	1	0	1	0	1.29766201973	410.0	-147.0	418.0	-148.0	1
3.0.1	2019_Mar_04_1801	s	s	7	1	Capacity	34	ABS	0	0	4	1	24_4_1	NA	NA	0	1	1.71651506424	None	None	None	None	1
3.0.1	2019_Mar_04_1801	s	s	7	1	Capacity	35	2_1	2	1	4	1	23_4_1	2	0	1	0	2.65102100372	-285.0	110.0	-293.0	105.0	1
3.0.1	2019_Mar_04_1801	s	s	7	1	Capacity	36	3_1	3	1	1	1	23_1_1	2	0	1	0	1.86928606033	-372.0	-262.0	-373.0	-274.0	1
3.0.1	2019_Mar_04_1801	s	s	7	1	Capacity	37	3_1	3	1	4	1	23_4_1	-1	0	1	0	1.02544307709	33.0	-250.0	42.0	-253.0	1
3.0.1	2019_Mar_04_1801	s	s	7	1	Capacity	38	ABS	0	0	2	1	24_2_1	NA	NA	0	1	1.37935304642	None	None	None	None	1
3.0.1	2019_Mar_04_1801	s	s	7	1	Capacity	39	ABS	0	0	4	1	24_4_1	NA	NA	0	1	1.35525298119	None	None	None	None	1
3.0.1	2019_Mar_04_1801	s	s	7	1	Capacity	40	ABS	0	0	1	1	24_1_1	NA	NA	0	1	1.52162313461	None	None	None	None	1
3.0.1	2019_Mar_04_1801	s	s	7	1	Capacity	41	1_1	1	1	4	1	23_4_1	3	0	1	0	0.617956161499	172.0	395.0	179.0	395.0	1
3.0.1	2019_Mar_04_1801	s	s	7	1	Capacity	42	1_1	1	1	2	1	23_2_1	1	0	0	1	2.77501606941	-101.0	-270.0	None	None	0
3.0.1	2019_Mar_04_1801	s	s	7	1	Capacity	43	ABS	0	0	1	1	24_1_1	NA	NA	0	1	2.488312006	None	None	None	None	1
3.0.1	2019_Mar_04_1801	s	s	7	1	Capacity	44	1_1	1	1	3	1	23_3_1	2	0	1	0	0.931416988373	-267.0	263.0	-265.0	262.0	1
3.0.1	2019_Mar_04_1801	s	s	7	1	Capacity	45	ABS	0	0	2	1	24_2_1	NA	NA	0	1	3.67792391777	None	None	None	None	1
3.0.1	2019_Mar_04_1801	s	s	7	1	Capacity	46	4_1	4	1	1	1	23_1_1	3	0	1	0	1.35182213783	342.0	350.0	349.0	344.0	1
3.0.1	2019_Mar_04_1801	s	s	7	1	Capacity	47	ABS	0	0	3	1	24_3_1	NA	NA	0	1	4.65673589706	None	None	None	None	1
3.0.1	2019_Mar_04_1801	s	s	7	1	Capacity	48	ABS	0	0	3	1	24_3_1	NA	NA	0	1	1.3167090416	None	None	None	None	1
3.0.1	2019_Mar_04_1801	s	s	7	1	Capacity	49	1_1	1	1	4	1	23_4_1	3	0	1	0	0.686522006989	-164.0	-277.0	-162.0	-273.0	1
3.0.1	2019_Mar_04_1801	s	s	7	1	Capacity	50	ABS	0	0	4	1	24_4_1	NA	NA	0	1	1.12838196754	None	None	None	None	1
3.0.1	2019_Mar_04_1801	s	s	7	1	Capacity	51	ABS	0	0	3	1	24_3_1	NA	NA	0	1	0.976026773453	None	None	None	None	1
3.0.1	2019_Mar_04_1801	s	s	7	1	Capacity	52	3_1	3	1	4	1	23_4_1	-1	0	1	0	1.06979298592	-455.0	-364.0	-456.0	-362.0	1
3.0.1	2019_Mar_04_1801	s	s	7	1	Capacity	53	ABS	0	0	4	1	24_4_1	NA	NA	0	1	2.14378190041	None	None	None	None	1
3.0.1	2019_Mar_04_1801	s	s	7	1	Capacity	54	ABS	0	0	4	1	24_4_1	NA	NA	0	1	1.08424401283	None	None	None	None	1
3.0.1	2019_Mar_04_1801	s	s	7	1	Capacity	55	4_1	4	1	3	1	23_3_1	1	0	1	0	0.823001146317	264.0	-249.0	275.0	-240.0	1
3.0.1	2019_Mar_04_1801	s	s	7	1	Capacity	56	ABS	0	0	3	1	24_3_1	NA	NA	0	1	1.16366004944	None	None	None	None	1
3.0.1	2019_Mar_04_1801	s	s	7	1	Capacity	57	1_1	1	1	3	1	23_3_1	2	0	1	0	1.2664501667	253.0	-120.0	248.0	-124.0	1
3.0.1	2019_Mar_04_1801	s	s	7	1	Capacity	58	ABS	0	0	1	1	24_1_1	NA	NA	0	1	1.66429901123	None	None	None	None	1
3.0.1	2019_Mar_04_1801	s	s	7	1	Capacity	59	3_1	3	1	2	1	23_2_1	1	0	1	0	0.76846909523	404.0	-283.0	403.0	-281.0	1
3.0.1	2019_Mar_04_1801	s	s	7	1	Capacity	60	1_1	1	1	2	1	23_2_1	1	0	1	0	1.8846950531	-60.0	-9.0	-61.0	-6.0	1
3.0.1	2019_Mar_04_1801	s	s	7	1	Capacity	61	4_1	4	1	2	1	23_2_1	2	0	1	0	1.34508490562	-325.0	323.0	-323.0	319.0	1
3.0.1	2019_Mar_04_1801	s	s	7	1	Capacity	62	2_1	2	1	4	1	23_4_1	2	0	1	0	0.768676042557	116.0	-263.0	115.0	-264.0	1
3.0.1	2019_Mar_04_1801	s	s	7	1	Capacity	63	ABS	0	0	1	1	24_1_1	NA	NA	0	1	2.75409793854	None	None	None	None	1
3.0.1	2019_Mar_04_1801	s	s	7	1	Capacity	64	2_1	2	1	3	1	23_3_1	1	0	1	0	1.29301810265	482.0	333.0	484.0	326.0	1
3.0.1	2019_Mar_04_1801	s	s	7	1	Capacity	65	ABS	0	0	2	1	24_2_1	NA	NA	0	1	0.869731903076	None	None	None	None	1
3.0.1	2019_Mar_04_1801	s	s	7	1	Capacity	66	ABS	0	0	2	1	24_2_1	NA	NA	0	1	3.90690803528	None	None	None	None	1
3.0.1	2019_Mar_04_1801	s	s	7	1	Capacity	67	ABS	0	0	1	1	24_1_1	NA	NA	0	1	1.90491485596	None	None	None	None	1
3.0.1	2019_Mar_04_1801	s	s	7	1	Capacity	68	ABS	0	0	2	1	24_2_1	NA	NA	0	1	2.94478297234	None	None	None	None	1
3.0.1	2019_Mar_04_1801	s	s	7	1	Capacity	69	4_1	4	1	1	1	23_1_1	3	0	1	0	0.646250009537	-449.0	9.0	-444.0	6.0	1
3.0.1	2019_Mar_04_1801	s	s	7	1	Capacity	70	ABS	0	0	3	1	24_3_1	NA	NA	0	1	1.97238206863	None	None	None	None	1
3.0.1	2019_Mar_04_1801	s	s	7	1	Capacity	71	2_1	2	1	1	1	23_1_1	-1	0	1	0	4.00987100601	-383.0	228.0	-377.0	223.0	1
3.0.1	2019_Mar_04_1801	s	s	7	1	Capacity	72	3_1	3	1	1	1	23_1_1	2	0	1	0	1.13496088982	357.0	-3.0	352.0	-7.0	1
3.0.1	2019_Mar_04_1801	s	s	7	1	Capacity	73	ABS	0	0	3	1	24_3_1	NA	NA	0	1	2.83380889893	None	None	None	None	1
3.0.1	2019_Mar_04_1801	s	s	7	1	Capacity	74	ABS	0	0	3	1	24_3_1	NA	NA	0	1	1.85530281067	None	None	None	None	1
3.0.1	2019_Mar_04_1801	s	s	7	1	Capacity	75	1_1	1	1	2	1	23_2_1	1	0	1	0	2.51616597176	357.0	259.0	362.0	249.0	1
3.0.1	2019_Mar_04_1801	s	s	7	1	Capacity	76	3_1	3	1	2	1	23_2_1	1	0	1	0	1.26064896584	86.0	126.0	87.0	116.0	1
3.0.1	2019_Mar_04_1801	s	s	7	1	Capacity	77	1_1	1	1	3	1	23_3_1	2	0	1	0	1.73734617233	313.0	-166.0	304.0	-164.0	1
3.0.1	2019_Mar_04_1801	s	s	7	1	Capacity	78	4_1	4	1	2	1	23_2_1	2	0	1	0	0.731415987015	-207.0	-25.0	-202.0	-26.0	1
3.0.1	2019_Mar_04_1801	s	s	7	1	Capacity	79	ABS	0	0	1	1	24_1_1	NA	NA	0	1	2.79242801666	None	None	None	None	1
3.0.1	2019_Mar_04_1801	s	s	7	1	Capacity	80	3_1	3	1	4	1	23_4_1	-1	0	1	0	0.841242074966	309.0	-258.0	306.0	-256.0	1
3.0.1	2019_Mar_04_1801	s	s	7	1	Capacity	81	2_1	2	1	4	1	23_4_1	2	0	1	0	0.81086397171	19.0	205.0	22.0	211.0	1
3.0.1	2019_Mar_04_1801	s	s	7	1	Capacity	82	2_1	2	1	1	1	23_1_1	-1	0	1	0	2.26039195061	-123.0	-70.0	-122.0	-72.0	1
3.0.1	2019_Mar_04_1801	s	s	7	1	Capacity	83	ABS	0	0	4	1	24_4_1	NA	NA	0	1	1.6458940506	None	None	None	None	1
3.0.1	2019_Mar_04_1801	s	s	7	1	Capacity	84	ABS	0	0	2	1	24_2_1	NA	NA	0	1	4.8082690239	None	None	None	None	1
3.0.1	2019_Mar_04_1801	s	s	7	1	Capacity	85	ABS	0	0	1	1	24_1_1	NA	NA	0	1	3.9981970787	None	None	None	None	1
3.0.1	2019_Mar_04_1801	s	s	7	1	Capacity	86	1_1	1	1	4	1	23_4_1	3	0	1	0	0.696064949036	-376.0	89.0	-369.0	89.0	1
3.0.1	2019_Mar_04_1801	s	s	7	1	Capacity	87	ABS	0	0	1	1	24_1_1	NA	NA	1	0	3.77468800545	None	None	-106.0	-24.0	0
3.0.1	2019_Mar_04_1801	s	s	7	1	Capacity	88	ABS	0	0	2	1	24_2_1	NA	NA	0	1	4.97946000099	None	None	None	None	1
3.0.1	2019_Mar_04_1801	s	s	7	1	Capacity	89	3_1	3	1	1	1	23_1_1	2	0	1	0	1.25093317032	500.0	352.0	508.0	351.0	1
3.0.1	2019_Mar_04_1801	s	s	7	1	Capacity	90	ABS	0	0	4	1	24_4_1	NA	NA	0	1	2.05766892433	None	None	None	None	1
3.0.1	2019_Mar_04_1801	s	s	7	1	Capacity	91	4_1	4	1	3	1	23_3_1	1	0	1	0	0.822612047195	395.0	-6.0	404.0	1.0	1
3.0.1	2019_Mar_04_1801	s	s	7	1	Capacity	92	ABS	0	0	3	1	24_3_1	NA	NA	0	1	2.1914191246	None	None	None	None	1
3.0.1	2019_Mar_04_1801	s	s	7	1	Capacity	93	ABS	0	0	4	1	24_4_1	NA	NA	0	1	1.34504199028	None	None	None	None	1
3.0.1	2019_Mar_04_1801	s	s	7	1	Capacity	94	ABS	0	0	2	1	24_2_1	NA	NA	0	1	5.84793710709	None	None	None	None	1
3.0.1	2019_Mar_04_1801	s	s	7	1	Capacity	95	2_1	2	1	3	1	23_3_1	1	0	1	0	1.02549004555	52.0	-230.0	55.0	-229.0	1
3.0.1	2019_Mar_04_1801	s	s	7	1	Capacity	96	4_1	4	1	1	1	23_1_1	3	0	1	0	1.02531599998	481.0	-157.0	488.0	-161.0	1
3.0.1	2019_Mar_04_1801	s	s	7	1	Capacity	1	ABS	0	0	1	3	24_1_3	NA	NA	0	1	2.07411599159	None	None	None	None	1
3.0.1	2019_Mar_04_1801	s	s	7	1	Capacity	2	ABS	0	0	1	1	24_1_1	NA	NA	0	1	3.04544687271	None	None	None	None	1
3.0.1	2019_Mar_04_1801	s	s	7	1	Capacity	3	ABS	0	0	1	2	24_1_2	NA	NA	0	1	4.67166113853	None	None	None	None	1
3.0.1	2019_Mar_04_1801	s	s	7	1	Capacity	4	ABS	0	0	1	4	24_1_4	NA	NA	0	1	1.2743370533	None	None	None	None	1
3.0.1	2019_Mar_04_1801	s	s	7	1	Capacity	5	1_3	1	3	1	2	23_1_2	0	1	1	0	1.31948208809	-115.0	8.0	-104.0	10.0	1
3.0.1	2019_Mar_04_1801	s	s	7	1	Capacity	6	ABS	0	0	1	1	24_1_1	NA	NA	0	1	3.20126199722	None	None	None	None	1
3.0.1	2019_Mar_04_1801	s	s	7	1	Capacity	7	ABS	0	0	1	3	24_1_3	NA	NA	0	1	5.04927301407	None	None	None	None	1
3.0.1	2019_Mar_04_1801	s	s	7	1	Capacity	8	ABS	0	0	1	3	24_1_3	NA	NA	0	1	3.39110708237	None	None	None	None	1
3.0.1	2019_Mar_04_1801	s	s	7	1	Capacity	9	1_2	1	2	1	1	23_1_1	0	-1	1	0	1.7023267746	-82.0	-319.0	-77.0	-317.0	1
3.0.1	2019_Mar_04_1801	s	s	7	1	Capacity	10	1_2	1	2	1	3	23_1_3	0	1	1	0	3.69231009483	186.0	-240.0	187.0	-241.0	1
3.0.1	2019_Mar_04_1801	s	s	7	1	Capacity	11	ABS	0	0	1	4	24_1_4	NA	NA	0	1	3.35010313988	None	None	None	None	1
3.0.1	2019_Mar_04_1801	s	s	7	1	Capacity	12	ABS	0	0	1	4	24_1_4	NA	NA	0	1	2.4460849762	None	None	None	None	1
3.0.1	2019_Mar_04_1801	s	s	7	1	Capacity	13	1_3	1	3	1	4	23_1_4	0	-1	1	0	0.857922792435	14.0	84.0	16.0	82.0	1
3.0.1	2019_Mar_04_1801	s	s	7	1	Capacity	14	1_3	1	3	1	1	23_1_1	0	2	1	0	1.13351798058	-141.0	179.0	-144.0	171.0	1
3.0.1	2019_Mar_04_1801	s	s	7	1	Capacity	15	1_2	1	2	1	4	23_1_4	0	2	1	0	0.928505897522	-113.0	-134.0	-115.0	-143.0	1
3.0.1	2019_Mar_04_1801	s	s	7	1	Capacity	16	1_4	1	4	1	1	23_1_1	0	3	1	0	0.705094099045	-165.0	219.0	-161.0	217.0	1
3.0.1	2019_Mar_04_1801	s	s	7	1	Capacity	17	ABS	0	0	1	2	24_1_2	NA	NA	0	1	5.42123699188	None	None	None	None	1
3.0.1	2019_Mar_04_1801	s	s	7	1	Capacity	18	1_1	1	1	1	3	23_1_3	0	2	1	0	4.10394382477	413.0	-346.0	419.0	-347.0	1
3.0.1	2019_Mar_04_1801	s	s	7	1	Capacity	19	1_4	1	4	1	2	23_1_2	0	2	1	0	1.07522416115	-27.0	-367.0	-25.0	-364.0	1
3.0.1	2019_Mar_04_1801	s	s	7	1	Capacity	20	1_1	1	1	1	2	23_1_2	0	1	1	0	2.6455578804	-473.0	345.0	-474.0	353.0	1
3.0.1	2019_Mar_04_1801	s	s	7	1	Capacity	21	ABS	0	0	1	2	24_1_2	NA	NA	0	1	6.39728593826	None	None	None	None	1
3.0.1	2019_Mar_04_1801	s	s	7	1	Capacity	22	1_4	1	4	1	3	23_1_3	0	1	1	0	0.881347894669	23.0	147.0	26.0	149.0	1
3.0.1	2019_Mar_04_1801	s	s	7	1	Capacity	23	ABS	0	0	1	1	24_1_1	NA	NA	0	1	3.9891679287	None	None	None	None	1
3.0.1	2019_Mar_04_1801	s	s	7	1	Capacity	24	1_1	1	1	1	4	23_1_4	0	3	1	0	0.840847015381	-29.0	196.0	-22.0	189.0	1
3.0.1	2019_Mar_04_1801	s	s	7	1	Capacity	25	ABS	0	0	1	3	24_1_3	NA	NA	0	1	5.19779801369	None	None	None	None	1
3.0.1	2019_Mar_04_1801	s	s	7	1	Capacity	26	ABS	0	0	1	4	24_1_4	NA	NA	0	1	2.36338210106	None	None	None	None	1
3.0.1	2019_Mar_04_1801	s	s	7	1	Capacity	27	ABS	0	0	1	2	24_1_2	NA	NA	0	1	6.7736890316	None	None	None	None	1
3.0.1	2019_Mar_04_1801	s	s	7	1	Capacity	28	ABS	0	0	1	3	24_1_3	NA	NA	0	1	5.06135106087	None	None	None	None	1
3.0.1	2019_Mar_04_1801	s	s	7	1	Capacity	29	ABS	0	0	1	2	24_1_2	NA	NA	0	1	6.06112194061	None	None	None	None	1
3.0.1	2019_Mar_04_1801	s	s	7	1	Capacity	30	1_1	1	1	1	2	23_1_2	0	1	1	0	0.981950998306	-257.0	138.0	-256.0	134.0	1
3.0.1	2019_Mar_04_1801	s	s	7	1	Capacity	31	1_4	1	4	1	1	23_1_1	0	3	1	0	0.940191984177	-360.0	-113.0	-361.0	-123.0	1
3.0.1	2019_Mar_04_1801	s	s	7	1	Capacity	32	ABS	0	0	1	3	24_1_3	NA	NA	0	1	5.25399684906	None	None	None	None	1
3.0.1	2019_Mar_04_1801	s	s	7	1	Capacity	33	1_4	1	4	1	2	23_1_2	0	2	1	0	0.815047025681	-8.0	195.0	-6.0	195.0	1
3.0.1	2019_Mar_04_1801	s	s	7	1	Capacity	34	ABS	0	0	1	1	24_1_1	NA	NA	0	1	4.06286215782	None	None	None	None	1
3.0.1	2019_Mar_04_1801	s	s	7	1	Capacity	35	1_3	1	3	1	1	23_1_1	0	2	1	0	0.790242910385	174.0	162.0	179.0	157.0	1
3.0.1	2019_Mar_04_1801	s	s	7	1	Capacity	36	1_2	1	2	1	3	23_1_3	0	1	1	0	3.60333609581	179.0	-320.0	187.0	-324.0	1
3.0.1	2019_Mar_04_1801	s	s	7	1	Capacity	37	1_2	1	2	1	4	23_1_4	0	2	1	0	1.2159819603	393.0	-346.0	384.0	-348.0	1
3.0.1	2019_Mar_04_1801	s	s	7	1	Capacity	38	1_2	1	2	1	1	23_1_1	0	-1	1	0	1.37825608253	28.0	114.0	32.0	117.0	1
3.0.1	2019_Mar_04_1801	s	s	7	1	Capacity	39	1_1	1	1	1	3	23_1_3	0	2	1	0	1.52823805809	-114.0	194.0	-107.0	192.0	1
3.0.1	2019_Mar_04_1801	s	s	7	1	Capacity	40	1_3	1	3	1	4	23_1_4	0	-1	1	0	2.53312206268	117.0	-328.0	122.0	-339.0	1
3.0.1	2019_Mar_04_1801	s	s	7	1	Capacity	41	1_4	1	4	1	3	23_1_3	0	1	1	0	1.08427095413	530.0	-107.0	523.0	-109.0	1
3.0.1	2019_Mar_04_1801	s	s	7	1	Capacity	42	ABS	0	0	1	1	24_1_1	NA	NA	0	1	4.63778400421	None	None	None	None	1
3.0.1	2019_Mar_04_1801	s	s	7	1	Capacity	43	ABS	0	0	1	2	24_1_2	NA	NA	0	1	5.63295316696	None	None	None	None	1
3.0.1	2019_Mar_04_1801	s	s	7	1	Capacity	44	ABS	0	0	1	4	24_1_4	NA	NA	0	1	1.86454105377	None	None	None	None	1
3.0.1	2019_Mar_04_1801	s	s	7	1	Capacity	45	1_3	1	3	1	2	23_1_2	0	1	1	0	1.71636486053	-248.0	54.0	-254.0	50.0	1
3.0.1	2019_Mar_04_1801	s	s	7	1	Capacity	46	ABS	0	0	1	4	24_1_4	NA	NA	0	1	2.32843589783	None	None	None	None	1
3.0.1	2019_Mar_04_1801	s	s	7	1	Capacity	47	1_1	1	1	1	4	23_1_4	0	3	1	0	1.86273312569	-198.0	-400.0	-195.0	-408.0	1
3.0.1	2019_Mar_04_1801	s	s	7	1	Capacity	48	ABS	0	0	1	1	24_1_1	NA	NA	0	1	4.49738097191	None	None	None	None	1
3.0.1	2019_Mar_04_1801	s	s	7	1	Capacity	49	ABS	0	0	1	3	24_1_3	NA	NA	0	1	7.14603281021	None	None	None	None	1
3.0.1	2019_Mar_04_1801	s	s	7	1	Capacity	50	1_2	1	2	1	4	23_1_4	0	2	1	0	1.0459048748	81.0	-87.0	78.0	-89.0	1
3.0.1	2019_Mar_04_1801	s	s	7	1	Capacity	51	ABS	0	0	1	4	24_1_4	NA	NA	0	1	2.6926240921	None	None	None	None	1
3.0.1	2019_Mar_04_1801	s	s	7	1	Capacity	52	ABS	0	0	1	1	24_1_1	NA	NA	0	1	2.5544128418	None	None	None	None	1
3.0.1	2019_Mar_04_1801	s	s	7	1	Capacity	53	ABS	0	0	1	1	24_1_1	NA	NA	0	1	4.5790450573	None	None	None	None	1
3.0.1	2019_Mar_04_1801	s	s	7	1	Capacity	54	1_3	1	3	1	1	23_1_1	0	2	1	0	1.20351910591	-187.0	-127.0	-186.0	-134.0	1
3.0.1	2019_Mar_04_1801	s	s	7	1	Capacity	55	1_2	1	2	1	3	23_1_3	0	1	1	0	1.22244381905	8.0	187.0	12.0	186.0	1
3.0.1	2019_Mar_04_1801	s	s	7	1	Capacity	56	1_3	1	3	1	2	23_1_2	0	1	0	1	3.73938298225	-483.0	-20.0	None	None	0
3.0.1	2019_Mar_04_1801	s	s	7	1	Capacity	57	1_3	1	3	1	4	23_1_4	0	-1	1	0	0.669792890549	-236.0	-88.0	-239.0	-86.0	1
3.0.1	2019_Mar_04_1801	s	s	7	1	Capacity	58	ABS	0	0	1	3	24_1_3	NA	NA	0	1	3.71061682701	None	None	None	None	1
3.0.1	2019_Mar_04_1801	s	s	7	1	Capacity	59	ABS	0	0	1	4	24_1_4	NA	NA	0	1	1.24629187584	None	None	None	None	1
3.0.1	2019_Mar_04_1801	s	s	7	1	Capacity	60	1_4	1	4	1	3	23_1_3	0	1	1	0	1.14305400848	463.0	-23.0	472.0	-24.0	1
3.0.1	2019_Mar_04_1801	s	s	7	1	Capacity	61	ABS	0	0	1	4	24_1_4	NA	NA	0	1	1.81051206589	None	None	None	None	1
3.0.1	2019_Mar_04_1801	s	s	7	1	Capacity	62	1_1	1	1	1	2	23_1_2	0	1	1	0	2.20750117302	-256.0	213.0	-256.0	209.0	1
3.0.1	2019_Mar_04_1801	s	s	7	1	Capacity	63	ABS	0	0	1	2	24_1_2	NA	NA	0	1	6.72666311264	None	None	None	None	1
3.0.1	2019_Mar_04_1801	s	s	7	1	Capacity	64	1_4	1	4	1	1	23_1_1	0	3	1	0	0.658222913742	-202.0	195.0	-200.0	198.0	1
3.0.1	2019_Mar_04_1801	s	s	7	1	Capacity	65	1_1	1	1	1	4	23_1_4	0	3	1	0	1.05781698227	180.0	-18.0	187.0	-15.0	1
3.0.1	2019_Mar_04_1801	s	s	7	1	Capacity	66	ABS	0	0	1	2	24_1_2	NA	NA	0	1	5.72697615623	None	None	None	None	1
3.0.1	2019_Mar_04_1801	s	s	7	1	Capacity	67	ABS	0	0	1	1	24_1_1	NA	NA	0	1	2.87187504768	None	None	None	None	1
3.0.1	2019_Mar_04_1801	s	s	7	1	Capacity	68	1_4	1	4	1	2	23_1_2	0	2	1	0	0.73143696785	-211.0	-24.0	-208.0	-27.0	1
3.0.1	2019_Mar_04_1801	s	s	7	1	Capacity	69	1_2	1	2	1	1	23_1_1	0	-1	1	0	4.29206395149	-456.0	283.0	-453.0	284.0	1
3.0.1	2019_Mar_04_1801	s	s	7	1	Capacity	70	ABS	0	0	1	2	24_1_2	NA	NA	0	1	6.04937911034	None	None	None	None	1
3.0.1	2019_Mar_04_1801	s	s	7	1	Capacity	71	ABS	0	0	1	3	24_1_3	NA	NA	0	1	5.66140317917	None	None	None	None	1
3.0.1	2019_Mar_04_1801	s	s	7	1	Capacity	72	1_1	1	1	1	3	23_1_3	0	2	1	0	2.45743608475	505.0	-170.0	512.0	-172.0	1
3.0.1	2019_Mar_04_1801	s	s	7	1	Capacity	73	1_2	1	2	1	3	23_1_3	0	1	1	0	1.22244906425	-422.0	248.0	-429.0	245.0	1
3.0.1	2019_Mar_04_1801	s	s	7	1	Capacity	74	ABS	0	0	1	3	24_1_3	NA	NA	0	1	3.66284203529	None	None	None	None	1
3.0.1	2019_Mar_04_1801	s	s	7	1	Capacity	75	ABS	0	0	1	3	24_1_3	NA	NA	0	1	3.3395049572	None	None	None	None	1
3.0.1	2019_Mar_04_1801	s	s	7	1	Capacity	76	1_4	1	4	1	1	23_1_1	0	3	1	0	0.822624921799	334.0	174.0	332.0	169.0	1
3.0.1	2019_Mar_04_1801	s	s	7	1	Capacity	77	1_3	1	3	1	1	23_1_1	0	2	1	0	2.0517039299	525.0	-390.0	520.0	-387.0	1
3.0.1	2019_Mar_04_1801	s	s	7	1	Capacity	78	1_1	1	1	1	4	23_1_4	0	3	1	0	0.886565923691	490.0	-379.0	488.0	-383.0	1
3.0.1	2019_Mar_04_1801	s	s	7	1	Capacity	79	1_2	1	2	1	1	23_1_1	0	-1	1	0	3.13067412376	-409.0	99.0	-402.0	93.0	1
3.0.1	2019_Mar_04_1801	s	s	7	1	Capacity	80	ABS	0	0	1	4	24_1_4	NA	NA	0	1	2.56878900528	None	None	None	None	1
3.0.1	2019_Mar_04_1801	s	s	7	1	Capacity	81	ABS	0	0	1	2	24_1_2	NA	NA	0	1	7.99682307243	None	None	None	None	1
3.0.1	2019_Mar_04_1801	s	s	7	1	Capacity	82	1_2	1	2	1	4	23_1_4	0	2	1	0	0.869689941406	369.0	157.0	364.0	153.0	1
3.0.1	2019_Mar_04_1801	s	s	7	1	Capacity	83	ABS	0	0	1	3	24_1_3	NA	NA	0	1	4.64498710632	None	None	None	None	1
3.0.1	2019_Mar_04_1801	s	s	7	1	Capacity	84	ABS	0	0	1	1	24_1_1	NA	NA	0	1	6.3032720089	None	None	None	None	1
3.0.1	2019_Mar_04_1801	s	s	7	1	Capacity	85	ABS	0	0	1	2	24_1_2	NA	NA	0	1	5.2594139576	None	None	None	None	1
3.0.1	2019_Mar_04_1801	s	s	7	1	Capacity	86	1_1	1	1	1	2	23_1_2	0	1	1	0	4.5323600769	-100.0	-105.0	-94.0	-103.0	1
3.0.1	2019_Mar_04_1801	s	s	7	1	Capacity	87	ABS	0	0	1	1	24_1_1	NA	NA	0	1	3.92747282982	None	None	None	None	1
3.0.1	2019_Mar_04_1801	s	s	7	1	Capacity	88	1_1	1	1	1	3	23_1_3	0	2	1	0	0.893256902695	-12.0	-2.0	-9.0	0.0	1
3.0.1	2019_Mar_04_1801	s	s	7	1	Capacity	89	1_4	1	4	1	3	23_1_3	0	1	1	0	1.35190200806	477.0	-116.0	478.0	-112.0	1
3.0.1	2019_Mar_04_1801	s	s	7	1	Capacity	90	1_4	1	4	1	2	23_1_2	0	2	1	0	0.881399154663	497.0	127.0	506.0	128.0	1
3.0.1	2019_Mar_04_1801	s	s	7	1	Capacity	91	ABS	0	0	1	4	24_1_4	NA	NA	0	1	1.19113397598	None	None	None	None	1
3.0.1	2019_Mar_04_1801	s	s	7	1	Capacity	92	1_3	1	3	1	4	23_1_4	0	-1	1	0	0.970658063889	-426.0	-104.0	-421.0	-101.0	1
3.0.1	2019_Mar_04_1801	s	s	7	1	Capacity	93	ABS	0	0	1	1	24_1_1	NA	NA	0	1	3.16311597824	None	None	None	None	1
3.0.1	2019_Mar_04_1801	s	s	7	1	Capacity	94	ABS	0	0	1	4	24_1_4	NA	NA	0	1	1.7361741066	None	None	None	None	1
3.0.1	2019_Mar_04_1801	s	s	7	1	Capacity	95	ABS	0	0	1	2	24_1_2	NA	NA	0	1	7.09126996994	None	None	None	None	1
3.0.1	2019_Mar_04_1801	s	s	7	1	Capacity	96	1_3	1	3	1	2	23_1_2	0	1	0	1	3.95646095276	152.0	67.0	None	None	0
3.0.1	2019_Mar_04_1801	s	s	7	1	SIC	1	3_4	3	4	1	1	23_1_1	2	3	1	0	1.22245001793	-531.0	-244.0	-530.0	-255.0	1
3.0.1	2019_Mar_04_1801	s	s	7	1	SIC	2	4_4	4	4	3	1	23_3_1	1	3	1	0	0.754997014999	-56.0	361.0	-59.0	353.0	1
3.0.1	2019_Mar_04_1801	s	s	7	1	SIC	3	1_3	1	3	4	1	23_4_1	3	2	1	0	0.634886026382	175.0	-254.0	174.0	-257.0	1
3.0.1	2019_Mar_04_1801	s	s	7	1	SIC	4	ABS	0	0	4	4	24_4_4	NA	NA	0	1	0.75483584404	None	None	None	None	1
3.0.1	2019_Mar_04_1801	s	s	7	1	SIC	5	4_3	4	3	3	4	23_3_4	1	-1	1	0	0.619865894318	-138.0	179.0	-136.0	173.0	1
3.0.1	2019_Mar_04_1801	s	s	7	1	SIC	6	ABS	0	0	3	4	24_3_4	NA	NA	0	1	0.783094882965	None	None	None	None	1
3.0.1	2019_Mar_04_1801	s	s	7	1	SIC	7	ABS	0	0	2	4	24_2_4	NA	NA	0	1	0.796587944031	None	None	None	None	1
3.0.1	2019_Mar_04_1801	s	s	7	1	SIC	8	ABS	0	0	2	3	24_2_3	NA	NA	0	1	2.30454492569	None	None	None	None	1
3.0.1	2019_Mar_04_1801	s	s	7	1	SIC	9	ABS	0	0	3	1	24_3_1	NA	NA	0	1	1.19238901138	None	None	None	None	1
3.0.1	2019_Mar_04_1801	s	s	7	1	SIC	10	ABS	0	0	1	1	24_1_1	NA	NA	0	1	2.05753898621	None	None	None	None	1
3.0.1	2019_Mar_04_1801	s	s	7	1	SIC	11	ABS	0	0	4	1	24_4_1	NA	NA	0	1	1.39887285233	None	None	None	None	1
3.0.1	2019_Mar_04_1801	s	s	7	1	SIC	12	3_4	3	4	1	3	23_1_3	2	1	1	0	1.35597395897	-358.0	-362.0	-360.0	-365.0	1
3.0.1	2019_Mar_04_1801	s	s	7	1	SIC	13	ABS	0	0	1	4	24_1_4	NA	NA	0	1	2.20833516121	None	None	None	None	1
3.0.1	2019_Mar_04_1801	s	s	7	1	SIC	14	4_3	4	3	2	1	23_2_1	2	2	1	0	0.587569952011	-109.0	394.0	-110.0	391.0	1
3.0.1	2019_Mar_04_1801	s	s	7	1	SIC	15	4_4	4	4	4	3	23_4_3	0	1	1	0	2.090061903	-63.0	85.0	-63.0	79.0	1
3.0.1	2019_Mar_04_1801	s	s	7	1	SIC	16	ABS	0	0	3	3	24_3_3	NA	NA	0	1	2.84842586517	None	None	None	None	1
3.0.1	2019_Mar_04_1801	s	s	7	1	SIC	17	ABS	0	0	1	1	24_1_1	NA	NA	0	1	2.87417793274	None	None	None	None	1
3.0.1	2019_Mar_04_1801	s	s	7	1	SIC	18	1_3	1	3	2	1	23_2_1	1	2	1	0	0.649966955185	28.0	70.0	23.0	59.0	1
3.0.1	2019_Mar_04_1801	s	s	7	1	SIC	19	1_2	1	2	4	4	23_4_4	3	2	1	0	0.593070030212	-145.0	6.0	-146.0	1.0	1
3.0.1	2019_Mar_04_1801	s	s	7	1	SIC	20	1_2	1	2	1	1	23_1_1	0	-1	1	0	0.980672836304	-79.0	189.0	-84.0	178.0	1
3.0.1	2019_Mar_04_1801	s	s	7	1	SIC	21	4_1	4	1	2	1	23_2_1	2	0	1	0	1.06967902184	389.0	361.0	387.0	350.0	1
3.0.1	2019_Mar_04_1801	s	s	7	1	SIC	22	2_3	2	3	1	3	23_1_3	-1	0	1	0	7.73555016518	245.0	256.0	241.0	249.0	1
3.0.1	2019_Mar_04_1801	s	s	7	1	SIC	23	3_2	3	2	3	1	23_3_1	0	-1	0	1	1.11664485931	538.0	224.0	None	None	0
3.0.1	2019_Mar_04_1801	s	s	7	1	SIC	24	3_4	3	4	4	4	23_4_4	-1	0	1	0	0.90784406662	-158.0	141.0	-158.0	142.0	1
3.0.1	2019_Mar_04_1801	s	s	7	1	SIC	25	4_1	4	1	2	2	23_2_2	2	1	1	0	1.40374898911	-182.0	-278.0	-178.0	-286.0	1
3.0.1	2019_Mar_04_1801	s	s	7	1	SIC	26	ABS	0	0	4	2	24_4_2	NA	NA	0	1	4.1274960041	None	None	None	None	1
3.0.1	2019_Mar_04_1801	s	s	7	1	SIC	27	3_4	3	4	3	3	23_3_3	0	1	1	0	1.0264518261	-184.0	361.0	-184.0	360.0	1
3.0.1	2019_Mar_04_1801	s	s	7	1	SIC	28	ABS	0	0	1	4	24_1_4	NA	NA	0	1	3.25190401077	None	None	None	None	1
3.0.1	2019_Mar_04_1801	s	s	7	1	SIC	29	ABS	0	0	2	3	24_2_3	NA	NA	0	1	3.81008315086	None	None	None	None	1
3.0.1	2019_Mar_04_1801	s	s	7	1	SIC	30	3_3	3	3	2	1	23_2_1	1	2	1	0	0.839845180511	-132.0	-210.0	-130.0	-204.0	1
3.0.1	2019_Mar_04_1801	s	s	7	1	SIC	31	ABS	0	0	3	3	24_3_3	NA	NA	0	1	2.99834799767	None	None	None	None	1
3.0.1	2019_Mar_04_1801	s	s	7	1	SIC	32	ABS	0	0	1	4	24_1_4	NA	NA	0	1	1.42759895325	None	None	None	None	1
3.0.1	2019_Mar_04_1801	s	s	7	1	SIC	33	4_4	4	4	1	3	23_1_3	3	1	1	0	0.739019155502	417.0	188.0	423.0	180.0	1
3.0.1	2019_Mar_04_1801	s	s	7	1	SIC	34	ABS	0	0	3	2	24_3_2	NA	NA	0	1	2.51044511795	None	None	None	None	1
3.0.1	2019_Mar_04_1801	s	s	7	1	SIC	35	ABS	0	0	3	4	24_3_4	NA	NA	0	1	2.54798722267	None	None	None	None	1
3.0.1	2019_Mar_04_1801	s	s	7	1	SIC	36	2_3	2	3	3	4	23_3_4	1	-1	1	0	0.928477048874	-291.0	395.0	-286.0	398.0	1
3.0.1	2019_Mar_04_1801	s	s	7	1	SIC	37	3_4	3	4	2	1	23_2_1	1	3	1	0	0.872415065765	163.0	-200.0	164.0	-196.0	1
3.0.1	2019_Mar_04_1801	s	s	7	1	SIC	38	3_2	3	2	1	4	23_1_4	2	2	1	0	0.854421138763	-392.0	191.0	-389.0	198.0	1
3.0.1	2019_Mar_04_1801	s	s	7	1	SIC	39	ABS	0	0	2	1	24_2_1	NA	NA	0	1	3.16286802292	None	None	None	None	1
3.0.1	2019_Mar_04_1801	s	s	7	1	SIC	40	ABS	0	0	3	2	24_3_2	NA	NA	0	1	4.27521896362	None	None	None	None	1
3.0.1	2019_Mar_04_1801	s	s	7	1	SIC	41	4_1	4	1	4	2	23_4_2	0	1	0	1	2.05015087128	163.0	-309.0	None	None	0
3.0.1	2019_Mar_04_1801	s	s	7	1	SIC	42	2_1	2	1	4	2	23_4_2	2	1	1	0	2.37791800499	106.0	-153.0	106.0	-151.0	1
3.0.1	2019_Mar_04_1801	s	s	7	1	SIC	43	1_4	1	4	1	3	23_1_3	0	1	1	0	0.740279912949	472.0	15.0	479.0	8.0	1
3.0.1	2019_Mar_04_1801	s	s	7	1	SIC	44	4_3	4	3	3	2	23_3_2	1	1	1	0	0.940241098404	295.0	406.0	290.0	408.0	1
3.0.1	2019_Mar_04_1801	s	s	7	1	SIC	45	ABS	0	0	1	4	24_1_4	NA	NA	0	1	1.16369700432	None	None	None	None	1
3.0.1	2019_Mar_04_1801	s	s	7	1	SIC	46	ABS	0	0	3	1	24_3_1	NA	NA	0	1	0.923382997513	None	None	None	None	1
3.0.1	2019_Mar_04_1801	s	s	7	1	SIC	47	ABS	0	0	2	1	24_2_1	NA	NA	0	1	1.26060700417	None	None	None	None	1
3.0.1	2019_Mar_04_1801	s	s	7	1	SIC	48	2_3	2	3	4	4	23_4_4	2	-1	1	0	0.69315290451	263.0	-249.0	267.0	-254.0	1
3.0.1	2019_Mar_04_1801	s	s	7	1	SIC	49	4_3	4	3	2	4	23_2_4	2	-1	1	0	1.06962609291	62.0	-101.0	72.0	-93.0	1
3.0.1	2019_Mar_04_1801	s	s	7	1	SIC	50	ABS	0	0	4	1	24_4_1	NA	NA	0	1	0.954855918884	None	None	None	None	1
3.0.1	2019_Mar_04_1801	s	s	7	1	SIC	51	1_2	1	2	2	1	23_2_1	1	-1	1	0	1.02547907829	170.0	-131.0	168.0	-130.0	1
3.0.1	2019_Mar_04_1801	s	s	7	1	SIC	52	1_3	1	3	4	3	23_4_3	3	0	1	0	0.646235942841	516.0	-19.0	514.0	-25.0	1
3.0.1	2019_Mar_04_1801	s	s	7	1	SIC	53	3_2	3	2	1	3	23_1_3	2	1	1	0	0.740313053131	-204.0	296.0	-209.0	296.0	1
3.0.1	2019_Mar_04_1801	s	s	7	1	SIC	54	ABS	0	0	4	2	24_4_2	NA	NA	0	1	2.90107297897	None	None	None	None	1
3.0.1	2019_Mar_04_1801	s	s	7	1	SIC	55	ABS	0	0	1	3	24_1_3	NA	NA	0	1	4.50870299339	None	None	None	None	1
3.0.1	2019_Mar_04_1801	s	s	7	1	SIC	56	ABS	0	0	2	4	24_2_4	NA	NA	0	1	1.87443184853	None	None	None	None	1
3.0.1	2019_Mar_04_1801	s	s	7	1	SIC	57	ABS	0	0	3	3	24_3_3	NA	NA	0	1	2.10457801819	None	None	None	None	1
3.0.1	2019_Mar_04_1801	s	s	7	1	SIC	58	2_4	2	4	1	3	23_1_3	-1	1	1	0	0.634443998337	221.0	226.0	222.0	218.0	1
3.0.1	2019_Mar_04_1801	s	s	7	1	SIC	59	1_2	1	2	3	2	23_3_2	2	0	1	0	1.88111114502	378.0	298.0	381.0	299.0	1
3.0.1	2019_Mar_04_1801	s	s	7	1	SIC	60	ABS	0	0	4	1	24_4_1	NA	NA	0	1	2.41040897369	None	None	None	None	1
3.0.1	2019_Mar_04_1801	s	s	7	1	SIC	61	4_1	4	1	3	4	23_3_4	1	3	1	0	1.23905587196	-258.0	-300.0	-253.0	-306.0	1
3.0.1	2019_Mar_04_1801	s	s	7	1	SIC	62	ABS	0	0	4	1	24_4_1	NA	NA	0	1	3.13169693947	None	None	None	None	1
3.0.1	2019_Mar_04_1801	s	s	7	1	SIC	63	ABS	0	0	4	1	24_4_1	NA	NA	0	1	2.22269201279	None	None	None	None	1
3.0.1	2019_Mar_04_1801	s	s	7	1	SIC	64	1_3	1	3	2	4	23_2_4	1	-1	1	0	1.06276893616	-315.0	-73.0	-315.0	-75.0	1
3.0.1	2019_Mar_04_1801	s	s	7	1	SIC	65	ABS	0	0	3	2	24_3_2	NA	NA	0	1	5.06171298027	None	None	None	None	1
3.0.1	2019_Mar_04_1801	s	s	7	1	SIC	66	ABS	0	0	4	1	24_4_1	NA	NA	0	1	1.51674008369	None	None	None	None	1
3.0.1	2019_Mar_04_1801	s	s	7	1	SIC	67	ABS	0	0	1	4	24_1_4	NA	NA	0	1	1.76361584663	None	None	None	None	1
3.0.1	2019_Mar_04_1801	s	s	7	1	SIC	68	ABS	0	0	4	2	24_4_2	NA	NA	0	1	2.18728303909	None	None	None	None	1
3.0.1	2019_Mar_04_1801	s	s	7	1	SIC	69	3_3	3	3	2	4	23_2_4	1	-1	1	0	1.31661987305	492.0	-284.0	498.0	-287.0	1
3.0.1	2019_Mar_04_1801	s	s	7	1	SIC	70	ABS	0	0	3	4	24_3_4	NA	NA	0	1	3.52021789551	None	None	None	None	1
3.0.1	2019_Mar_04_1801	s	s	7	1	SIC	71	3_3	3	3	3	2	23_3_2	0	1	1	0	3.61290597916	-294.0	-95.0	-291.0	-103.0	1
3.0.1	2019_Mar_04_1801	s	s	7	1	SIC	72	ABS	0	0	4	2	24_4_2	NA	NA	0	1	7.27950501442	None	None	None	None	1
3.0.1	2019_Mar_04_1801	s	s	7	1	SIC	73	1_3	1	3	4	4	23_4_4	3	-1	1	0	0.815669059753	270.0	-241.0	272.0	-255.0	1
3.0.1	2019_Mar_04_1801	s	s	7	1	SIC	74	ABS	0	0	4	4	24_4_4	NA	NA	0	1	2.70908403397	None	None	None	None	1
3.0.1	2019_Mar_04_1801	s	s	7	1	SIC	75	4_1	4	1	2	3	23_2_3	2	2	1	0	0.710764884949	211.0	166.0	213.0	161.0	1
3.0.1	2019_Mar_04_1801	s	s	7	1	SIC	76	4_3	4	3	1	2	23_1_2	3	1	1	0	0.575513839722	512.0	-21.0	511.0	-21.0	1
3.0.1	2019_Mar_04_1801	s	s	7	1	SIC	77	4_1	4	1	1	4	23_1_4	3	3	1	0	0.562311172485	513.0	-69.0	511.0	-67.0	1
3.0.1	2019_Mar_04_1801	s	s	7	1	SIC	78	ABS	0	0	4	1	24_4_1	NA	NA	0	1	3.33150410652	None	None	None	None	1
3.0.1	2019_Mar_04_1801	s	s	7	1	SIC	79	ABS	0	0	2	2	24_2_2	NA	NA	0	1	5.91523694992	None	None	None	None	1
3.0.1	2019_Mar_04_1801	s	s	7	1	SIC	80	1_4	1	4	3	4	23_3_4	2	0	1	0	1.4959230423	-509.0	-383.0	-507.0	-386.0	1
3.0.1	2019_Mar_04_1801	s	s	7	1	SIC	81	4_1	4	1	4	4	23_4_4	0	3	1	0	0.888091802597	-162.0	257.0	-154.0	254.0	1
3.0.1	2019_Mar_04_1801	s	s	7	1	SIC	82	ABS	0	0	2	4	24_2_4	NA	NA	0	1	1.98134207726	None	None	None	None	1
3.0.1	2019_Mar_04_1801	s	s	7	1	SIC	83	1_3	1	3	3	1	23_3_1	2	2	1	0	0.579246997833	-354.0	68.0	-358.0	67.0	1
3.0.1	2019_Mar_04_1801	s	s	7	1	SIC	84	2_4	2	4	4	4	23_4_4	2	0	1	0	0.752085924149	199.0	-30.0	201.0	-38.0	1
3.0.1	2019_Mar_04_1801	s	s	7	1	SIC	85	3_3	3	3	3	4	23_3_4	0	-1	1	0	0.604341030121	31.0	78.0	30.0	77.0	1
3.0.1	2019_Mar_04_1801	s	s	7	1	SIC	86	3_2	3	2	2	1	23_2_1	1	-1	1	0	2.233948946	451.0	-216.0	443.0	-213.0	1
3.0.1	2019_Mar_04_1801	s	s	7	1	SIC	87	1_2	1	2	2	4	23_2_4	1	2	1	0	0.587854862213	-56.0	-212.0	-61.0	-217.0	1
3.0.1	2019_Mar_04_1801	s	s	7	1	SIC	88	1_1	1	1	2	2	23_2_2	1	1	1	0	0.910015106201	-417.0	65.0	-415.0	69.0	1
3.0.1	2019_Mar_04_1801	s	s	7	1	SIC	89	3_3	3	3	2	3	23_2_3	1	0	1	0	0.945136070251	-261.0	355.0	-252.0	352.0	1
3.0.1	2019_Mar_04_1801	s	s	7	1	SIC	90	ABS	0	0	2	2	24_2_2	NA	NA	0	1	3.73940896988	None	None	None	None	1
3.0.1	2019_Mar_04_1801	s	s	7	1	SIC	91	ABS	0	0	2	4	24_2_4	NA	NA	0	1	2.97157216072	None	None	None	None	1
3.0.1	2019_Mar_04_1801	s	s	7	1	SIC	92	ABS	0	0	4	1	24_4_1	NA	NA	0	1	1.3518679142	None	None	None	None	1
3.0.1	2019_Mar_04_1801	s	s	7	1	SIC	93	4_3	4	3	4	4	23_4_4	0	-1	1	0	0.921154975891	50.0	352.0	51.0	347.0	1
3.0.1	2019_Mar_04_1801	s	s	7	1	SIC	94	4_2	4	2	3	1	23_3_1	1	-1	1	0	1.40212512016	479.0	128.0	477.0	125.0	1
3.0.1	2019_Mar_04_1801	s	s	7	1	SIC	95	1_2	1	2	4	2	23_4_2	3	0	1	0	0.975564956665	-446.0	321.0	-437.0	318.0	1
3.0.1	2019_Mar_04_1801	s	s	7	1	SIC	96	ABS	0	0	3	2	24_3_2	NA	NA	0	1	2.96316385269	None	None	None	None	1
3.0.1	2019_Mar_04_1801	s	s	7	1	SIC	97	ABS	0	0	2	3	24_2_3	NA	NA	0	1	7.72677111626	None	None	None	None	1
3.0.1	2019_Mar_04_1801	s	s	7	1	SIC	98	ABS	0	0	4	4	24_4_4	NA	NA	0	1	1.57538199425	None	None	None	None	1
3.0.1	2019_Mar_04_1801	s	s	7	1	SIC	99	ABS	0	0	4	1	24_4_1	NA	NA	0	1	1.79321694374	None	None	None	None	1
3.0.1	2019_Mar_04_1801	s	s	7	1	SIC	100	3_3	3	3	4	3	23_4_3	-1	0	1	0	0.740312099457	-3.0	368.0	-2.0	370.0	1
3.0.1	2019_Mar_04_1801	s	s	7	1	SIC	101	1_4	1	4	2	1	23_2_1	1	3	1	0	0.816040992737	-394.0	-366.0	-393.0	-366.0	1
3.0.1	2019_Mar_04_1801	s	s	7	1	SIC	102	1_2	1	2	3	1	23_3_1	2	-1	1	0	0.634800195694	-233.0	42.0	-232.0	41.0	1
3.0.1	2019_Mar_04_1801	s	s	7	1	SIC	103	ABS	0	0	2	3	24_2_3	NA	NA	0	1	4.71553397179	None	None	None	None	1
3.0.1	2019_Mar_04_1801	s	s	7	1	SIC	104	ABS	0	0	2	1	24_2_1	NA	NA	0	1	7.67044901848	None	None	None	None	1
3.0.1	2019_Mar_04_1801	s	s	7	1	SIC	105	ABS	0	0	3	4	24_3_4	NA	NA	0	1	2.20255708694	None	None	None	None	1
3.0.1	2019_Mar_04_1801	s	s	7	1	SIC	106	4_3	4	3	2	3	23_2_3	2	0	1	0	0.813632011414	476.0	268.0	485.0	264.0	1
3.0.1	2019_Mar_04_1801	s	s	7	1	SIC	107	ABS	0	0	1	2	24_1_2	NA	NA	0	1	5.88601779938	None	None	None	None	1
3.0.1	2019_Mar_04_1801	s	s	7	1	SIC	108	2_4	2	4	4	3	23_4_3	2	1	1	0	0.618819952011	-414.0	-178.0	-409.0	-185.0	1
3.0.1	2019_Mar_04_1801	s	s	7	1	SIC	109	ABS	0	0	3	4	24_3_4	NA	NA	0	1	0.82260799408	None	None	None	None	1
3.0.1	2019_Mar_04_1801	s	s	7	1	SIC	110	ABS	0	0	3	2	24_3_2	NA	NA	0	1	4.73560094833	None	None	None	None	1
3.0.1	2019_Mar_04_1801	s	s	7	1	SIC	111	ABS	0	0	2	1	24_2_1	NA	NA	0	1	6.8560628891	None	None	None	None	1
3.0.1	2019_Mar_04_1801	s	s	7	1	SIC	112	ABS	0	0	3	3	24_3_3	NA	NA	0	1	4.39796710014	None	None	None	None	1
3.0.1	2019_Mar_04_1801	s	s	7	1	SIC	113	2_4	2	4	3	1	23_3_1	1	3	1	0	0.672660827637	-358.0	376.0	-359.0	374.0	1
3.0.1	2019_Mar_04_1801	s	s	7	1	SIC	114	ABS	0	0	1	2	24_1_2	NA	NA	0	1	6.70316886902	None	None	None	None	1
3.0.1	2019_Mar_04_1801	s	s	7	1	SIC	115	ABS	0	0	3	3	24_3_3	NA	NA	0	1	4.48364090919	None	None	None	None	1
3.0.1	2019_Mar_04_1801	s	s	7	1	SIC	116	2_3	2	3	2	2	23_2_2	0	1	1	0	1.49592208862	-42.0	357.0	-50.0	357.0	1
3.0.1	2019_Mar_04_1801	s	s	7	1	SIC	117	ABS	0	0	3	3	24_3_3	NA	NA	0	1	2.32802510262	None	None	None	None	1
3.0.1	2019_Mar_04_1801	s	s	7	1	SIC	118	ABS	0	0	4	4	24_4_4	NA	NA	0	1	0.851104974747	None	None	None	None	1
3.0.1	2019_Mar_04_1801	s	s	7	1	SIC	119	ABS	0	0	2	4	24_2_4	NA	NA	0	1	1.2982339859	None	None	None	None	1
3.0.1	2019_Mar_04_1801	s	s	7	1	SIC	120	2_2	2	2	3	4	23_3_4	1	2	1	0	1.01564693451	426.0	132.0	427.0	129.0	1
3.0.1	2019_Mar_04_1801	s	s	7	1	SIC	121	2_1	2	1	4	3	23_4_3	2	2	1	0	0.604326963425	70.0	-178.0	66.0	-175.0	1
3.0.1	2019_Mar_04_1801	s	s	7	1	SIC	122	1_2	1	2	2	2	23_2_2	1	0	1	0	4.72774600983	98.0	-116.0	103.0	-122.0	1
3.0.1	2019_Mar_04_1801	s	s	7	1	SIC	123	ABS	0	0	2	2	24_2_2	NA	NA	0	1	4.30394697189	None	None	None	None	1
3.0.1	2019_Mar_04_1801	s	s	7	1	SIC	124	ABS	0	0	2	2	24_2_2	NA	NA	0	1	3.83341813087	None	None	None	None	1
3.0.1	2019_Mar_04_1801	s	s	7	1	SIC	125	2_2	2	2	1	4	23_1_4	-1	2	1	0	1.28514289856	205.0	195.0	206.0	191.0	1
3.0.1	2019_Mar_04_1801	s	s	7	1	SIC	126	2_1	2	1	3	4	23_3_4	1	3	1	0	0.928835868835	445.0	-155.0	443.0	-153.0	1
3.0.1	2019_Mar_04_1801	s	s	7	1	SIC	127	1_3	1	3	4	2	23_4_2	3	1	1	0	1.19901013374	480.0	309.0	486.0	304.0	1
3.0.1	2019_Mar_04_1801	s	s	7	1	SIC	128	4_1	4	1	4	3	23_4_3	0	2	1	0	1.28577303886	185.0	-234.0	179.0	-225.0	1
3.0.1	2019_Mar_04_1801	s	s	7	1	SIC	129	4_1	4	1	3	2	23_3_2	1	1	1	0	0.501897096634	-296.0	-53.0	-300.0	-61.0	1
3.0.1	2019_Mar_04_1801	s	s	7	1	SIC	130	ABS	0	0	3	3	24_3_3	NA	NA	0	1	4.56327605247	None	None	None	None	1
3.0.1	2019_Mar_04_1801	s	s	7	1	SIC	131	ABS	0	0	1	2	24_1_2	NA	NA	0	1	5.69775700569	None	None	None	None	1
3.0.1	2019_Mar_04_1801	s	s	7	1	SIC	132	ABS	0	0	3	2	24_3_2	NA	NA	0	1	3.97296595573	None	None	None	None	1
3.0.1	2019_Mar_04_1801	s	s	7	1	SIC	133	3_1	3	1	2	3	23_2_3	1	2	1	0	0.869686126709	95.0	-64.0	92.0	-67.0	1
3.0.1	2019_Mar_04_1801	s	s	7	1	SIC	134	ABS	0	0	4	2	24_4_2	NA	NA	0	1	4.32024002075	None	None	None	None	1
3.0.1	2019_Mar_04_1801	s	s	7	1	SIC	135	4_3	4	3	1	4	23_1_4	3	-1	1	0	0.736324071884	-322.0	79.0	-309.0	82.0	1
3.0.1	2019_Mar_04_1801	s	s	7	1	SIC	136	ABS	0	0	2	4	24_2_4	NA	NA	0	1	1.14826011658	None	None	None	None	1
3.0.1	2019_Mar_04_1801	s	s	7	1	SIC	137	4_3	4	3	2	2	23_2_2	2	1	1	0	0.639497041702	348.0	75.0	357.0	79.0	1
3.0.1	2019_Mar_04_1801	s	s	7	1	SIC	138	ABS	0	0	2	2	24_2_2	NA	NA	0	1	5.70349693298	None	None	None	None	1
3.0.1	2019_Mar_04_1801	s	s	7	1	SIC	139	ABS	0	0	2	2	24_2_2	NA	NA	0	1	5.04968285561	None	None	None	None	1
3.0.1	2019_Mar_04_1801	s	s	7	1	SIC	140	2_4	2	4	1	1	23_1_1	-1	3	1	0	0.898097991943	364.0	253.0	367.0	245.0	1
3.0.1	2019_Mar_04_1801	s	s	7	1	SIC	141	2_3	2	3	3	3	23_3_3	1	0	1	0	0.790328979492	453.0	23.0	456.0	18.0	1
3.0.1	2019_Mar_04_1801	s	s	7	1	SIC	142	ABS	0	0	3	4	24_3_4	NA	NA	0	1	2.20826983452	None	None	None	None	1
3.0.1	2019_Mar_04_1801	s	s	7	1	SIC	143	4_2	4	2	3	4	23_3_4	1	2	1	0	0.704964160919	494.0	370.0	489.0	367.0	1
3.0.1	2019_Mar_04_1801	s	s	7	1	SIC	144	1_1	1	1	3	4	23_3_4	2	3	1	0	0.554999828339	-470.0	-147.0	-466.0	-152.0	1
3.0.1	2019_Mar_04_1801	s	s	7	1	SIC	145	1_1	1	1	4	2	23_4_2	3	1	1	0	0.460916042328	-150.0	-363.0	-152.0	-368.0	1
3.0.1	2019_Mar_04_1801	s	s	7	1	SIC	146	4_4	4	4	4	2	23_4_2	0	2	1	0	1.14857316017	466.0	407.0	466.0	405.0	1
3.0.1	2019_Mar_04_1801	s	s	7	1	SIC	147	ABS	0	0	3	3	24_3_3	NA	NA	0	1	3.42224597931	None	None	None	None	1
3.0.1	2019_Mar_04_1801	s	s	7	1	SIC	148	1_4	1	4	1	2	23_1_2	0	2	1	0	1.08423304558	-236.0	383.0	-229.0	376.0	1
3.0.1	2019_Mar_04_1801	s	s	7	1	SIC	149	2_1	2	1	3	2	23_3_2	1	1	1	0	1.23884820938	88.0	244.0	86.0	252.0	1
3.0.1	2019_Mar_04_1801	s	s	7	1	SIC	150	ABS	0	0	4	3	24_4_3	NA	NA	0	1	3.44294404984	None	None	None	None	1
3.0.1	2019_Mar_04_1801	s	s	7	1	SIC	151	ABS	0	0	4	3	24_4_3	NA	NA	0	1	1.84973406792	None	None	None	None	1
3.0.1	2019_Mar_04_1801	s	s	7	1	SIC	152	2_4	2	4	4	2	23_4_2	2	2	1	0	1.86933898926	384.0	-280.0	377.0	-274.0	1
3.0.1	2019_Mar_04_1801	s	s	7	1	SIC	153	ABS	0	0	2	2	24_2_2	NA	NA	0	1	4.80961799622	None	None	None	None	1
3.0.1	2019_Mar_04_1801	s	s	7	1	SIC	154	ABS	0	0	3	3	24_3_3	NA	NA	0	1	4.25089812279	None	None	None	None	1
3.0.1	2019_Mar_04_1801	s	s	7	1	SIC	155	ABS	0	0	3	3	24_3_3	NA	NA	0	1	2.00427007675	None	None	None	None	1
3.0.1	2019_Mar_04_1801	s	s	7	1	SIC	156	3_2	3	2	4	1	23_4_1	-1	-1	1	0	0.674453020096	-15.0	-117.0	-17.0	-120.0	1
3.0.1	2019_Mar_04_1801	s	s	7	1	SIC	157	1_1	1	1	3	1	23_3_1	2	0	1	0	1.01370382309	341.0	367.0	349.0	366.0	1
3.0.1	2019_Mar_04_1801	s	s	7	1	SIC	158	1_1	1	1	2	3	23_2_3	1	2	1	0	0.999006986618	-405.0	-191.0	-409.0	-193.0	1
3.0.1	2019_Mar_04_1801	s	s	7	1	SIC	159	3_1	3	1	3	3	23_3_3	0	2	1	0	1.48125481606	-438.0	227.0	-449.0	235.0	1
3.0.1	2019_Mar_04_1801	s	s	7	1	SIC	160	ABS	0	0	4	4	24_4_4	NA	NA	0	1	0.822599172592	None	None	None	None	1
3.0.1	2019_Mar_04_1801	s	s	7	1	SIC	161	1_3	1	3	2	2	23_2_2	1	1	1	0	2.88485193253	88.0	-372.0	84.0	-375.0	1
3.0.1	2019_Mar_04_1801	s	s	7	1	SIC	162	3_2	3	2	1	1	23_1_1	2	-1	1	0	1.0578110218	-527.0	340.0	-533.0	340.0	1
3.0.1	2019_Mar_04_1801	s	s	7	1	SIC	163	ABS	0	0	1	2	24_1_2	NA	NA	0	1	4.66359615326	None	None	None	None	1
3.0.1	2019_Mar_04_1801	s	s	7	1	SIC	164	3_1	3	1	4	1	23_4_1	-1	0	1	0	0.619286775589	-196.0	209.0	-194.0	199.0	1
3.0.1	2019_Mar_04_1801	s	s	7	1	SIC	165	1_4	1	4	1	1	23_1_1	0	3	1	0	0.822599887848	-359.0	-62.0	-355.0	-69.0	1
3.0.1	2019_Mar_04_1801	s	s	7	1	SIC	166	3_3	3	3	4	4	23_4_4	-1	-1	1	0	0.63441991806	-341.0	131.0	-347.0	132.0	1
3.0.1	2019_Mar_04_1801	s	s	7	1	SIC	167	4_2	4	2	1	2	23_1_2	3	0	1	0	0.437325000763	106.0	-14.0	108.0	-12.0	1
3.0.1	2019_Mar_04_1801	s	s	7	1	SIC	168	2_4	2	4	3	2	23_3_2	1	2	1	0	0.693282842636	-488.0	208.0	-486.0	211.0	1
3.0.1	2019_Mar_04_1801	s	s	7	1	SIC	169	4_2	4	2	2	2	23_2_2	2	0	1	0	0.580938100815	218.0	347.0	212.0	344.0	1
3.0.1	2019_Mar_04_1801	s	s	7	1	SIC	170	ABS	0	0	3	1	24_3_1	NA	NA	0	1	3.70408082008	None	None	None	None	1
3.0.1	2019_Mar_04_1801	s	s	7	1	SIC	171	4_3	4	3	4	1	23_4_1	0	2	1	0	1.01085615158	146.0	307.0	147.0	297.0	1
3.0.1	2019_Mar_04_1801	s	s	7	1	SIC	172	3_3	3	3	1	2	23_1_2	2	1	1	0	1.10778808594	-516.0	-73.0	-517.0	-71.0	1
3.0.1	2019_Mar_04_1801	s	s	7	1	SIC	173	1_4	1	4	3	3	23_3_3	2	1	1	0	0.646198034286	391.0	109.0	380.0	110.0	1
3.0.1	2019_Mar_04_1801	s	s	7	1	SIC	174	3_1	3	1	4	3	23_4_3	-1	2	1	0	0.452335834503	-160.0	16.0	-156.0	20.0	1
3.0.1	2019_Mar_04_1801	s	s	7	1	SIC	175	2_2	2	2	2	4	23_2_4	0	2	1	0	0.570037841797	-257.0	27.0	-260.0	33.0	1
3.0.1	2019_Mar_04_1801	s	s	7	1	SIC	176	ABS	0	0	3	2	24_3_2	NA	NA	0	1	3.26884198189	None	None	None	None	1
3.0.1	2019_Mar_04_1801	s	s	7	1	SIC	177	1_4	1	4	3	2	23_3_2	2	2	1	0	0.664444923401	460.0	-25.0	467.0	-27.0	1
3.0.1	2019_Mar_04_1801	s	s	7	1	SIC	178	1_1	1	1	3	2	23_3_2	2	1	1	0	2.28088092804	245.0	-242.0	246.0	-236.0	1
3.0.1	2019_Mar_04_1801	s	s	7	1	SIC	179	1_1	1	1	3	3	23_3_3	2	2	1	0	0.731404066086	-420.0	-229.0	-424.0	-227.0	1
3.0.1	2019_Mar_04_1801	s	s	7	1	SIC	180	ABS	0	0	3	4	24_3_4	NA	NA	0	1	1.01082181931	None	None	None	None	1
3.0.1	2019_Mar_04_1801	s	s	7	1	SIC	181	2_2	2	2	1	2	23_1_2	-1	0	1	0	8.2268640995	171.0	-147.0	165.0	-152.0	1
3.0.1	2019_Mar_04_1801	s	s	7	1	SIC	182	2_2	2	2	1	1	23_1_1	-1	-1	1	0	1.88111686707	426.0	-13.0	422.0	-15.0	1
3.0.1	2019_Mar_04_1801	s	s	7	1	SIC	183	ABS	0	0	1	4	24_1_4	NA	NA	0	1	1.75175595284	None	None	None	None	1
3.0.1	2019_Mar_04_1801	s	s	7	1	SIC	184	3_3	3	3	1	4	23_1_4	2	-1	1	0	0.673918962479	-56.0	83.0	-62.0	79.0	1
3.0.1	2019_Mar_04_1801	s	s	7	1	SIC	185	ABS	0	0	2	3	24_2_3	NA	NA	1	0	2.35575389862	None	None	73.0	-85.0	0
3.0.1	2019_Mar_04_1801	s	s	7	1	SIC	186	ABS	0	0	4	2	24_4_2	NA	NA	0	1	4.02691698074	None	None	None	None	1
3.0.1	2019_Mar_04_1801	s	s	7	1	SIC	187	ABS	0	0	1	1	24_1_1	NA	NA	0	1	6.32307386398	None	None	None	None	1
3.0.1	2019_Mar_04_1801	s	s	7	1	SIC	188	1_3	1	3	3	4	23_3_4	2	-1	1	0	0.775624036789	314.0	84.0	312.0	86.0	1
3.0.1	2019_Mar_04_1801	s	s	7	1	SIC	189	ABS	0	0	3	1	24_3_1	NA	NA	0	1	3.37071800232	None	None	None	None	1
3.0.1	2019_Mar_04_1801	s	s	7	1	SIC	190	ABS	0	0	1	3	24_1_3	NA	NA	0	1	4.30924606323	None	None	None	None	1
3.0.1	2019_Mar_04_1801	s	s	7	1	SIC	191	ABS	0	0	4	3	24_4_3	NA	NA	0	1	0.79020690918	None	None	None	None	1
3.0.1	2019_Mar_04_1801	s	s	7	1	SIC	192	ABS	0	0	1	1	24_1_1	NA	NA	0	1	7.45016717911	None	None	None	None	1
3.0.1	2019_Mar_04_1801	s	s	7	1	SIC	193	ABS	0	0	3	2	24_3_2	NA	NA	0	1	4.16273784637	None	None	None	None	1
3.0.1	2019_Mar_04_1801	s	s	7	1	SIC	194	ABS	0	0	3	1	24_3_1	NA	NA	0	1	5.92078995705	None	None	None	None	1
3.0.1	2019_Mar_04_1801	s	s	7	1	SIC	195	4_1	4	1	1	3	23_1_3	3	2	1	0	0.716761827469	301.0	33.0	290.0	39.0	1
3.0.1	2019_Mar_04_1801	s	s	7	1	SIC	196	2_3	2	3	3	1	23_3_1	1	2	1	0	0.767898797989	266.0	-303.0	262.0	-313.0	1
3.0.1	2019_Mar_04_1801	s	s	7	1	SIC	197	3_4	3	4	4	1	23_4_1	-1	3	1	0	0.501387834549	495.0	313.0	489.0	308.0	1
3.0.1	2019_Mar_04_1801	s	s	7	1	SIC	198	2_4	2	4	1	4	23_1_4	-1	0	0	1	1.21072816849	90.0	373.0	None	None	0
3.0.1	2019_Mar_04_1801	s	s	7	1	SIC	199	ABS	0	0	4	1	24_4_1	NA	NA	0	1	4.54406309128	None	None	None	None	1
3.0.1	2019_Mar_04_1801	s	s	7	1	SIC	200	ABS	0	0	4	3	24_4_3	NA	NA	0	1	2.52795600891	None	None	None	None	1
3.0.1	2019_Mar_04_1801	s	s	7	1	SIC	201	4_2	4	2	2	3	23_2_3	2	1	1	0	0.599164962769	-42.0	-220.0	-42.0	-224.0	1
3.0.1	2019_Mar_04_1801	s	s	7	1	SIC	202	2_2	2	2	4	3	23_4_3	2	1	1	0	0.757261037827	-538.0	244.0	-548.0	247.0	1
3.0.1	2019_Mar_04_1801	s	s	7	1	SIC	203	1_1	1	1	1	2	23_1_2	0	1	1	0	2.95796394348	151.0	-14.0	151.0	-16.0	1
3.0.1	2019_Mar_04_1801	s	s	7	1	SIC	204	ABS	0	0	3	2	24_3_2	NA	NA	0	1	4.53924322128	None	None	None	None	1
3.0.1	2019_Mar_04_1801	s	s	7	1	SIC	205	ABS	0	0	2	1	24_2_1	NA	NA	0	1	1.46951723099	None	None	None	None	1
3.0.1	2019_Mar_04_1801	s	s	7	1	SIC	206	ABS	0	0	1	4	24_1_4	NA	NA	0	1	3.63357782364	None	None	None	None	1
3.0.1	2019_Mar_04_1801	s	s	7	1	SIC	207	3_1	3	1	2	1	23_2_1	1	0	1	0	0.913016080856	-394.0	61.0	-393.0	65.0	1
3.0.1	2019_Mar_04_1801	s	s	7	1	SIC	208	3_2	3	2	2	4	23_2_4	1	2	1	0	0.681475877762	-50.0	269.0	-47.0	266.0	1
3.0.1	2019_Mar_04_1801	s	s	7	1	SIC	209	1_1	1	1	4	3	23_4_3	3	2	1	0	0.557736873627	-155.0	287.0	-160.0	276.0	1
3.0.1	2019_Mar_04_1801	s	s	7	1	SIC	210	ABS	0	0	2	2	24_2_2	NA	NA	0	1	7.43691492081	None	None	None	None	1
3.0.1	2019_Mar_04_1801	s	s	7	1	SIC	211	ABS	0	0	4	2	24_4_2	NA	NA	0	1	4.39796519279	None	None	None	None	1
3.0.1	2019_Mar_04_1801	s	s	7	1	SIC	212	ABS	0	0	2	2	24_2_2	NA	NA	0	1	4.98884487152	None	None	None	None	1
3.0.1	2019_Mar_04_1801	s	s	7	1	SIC	213	ABS	0	0	3	1	24_3_1	NA	NA	0	1	3.91254091263	None	None	None	None	1
3.0.1	2019_Mar_04_1801	s	s	7	1	SIC	214	ABS	0	0	3	4	24_3_4	NA	NA	0	1	2.06153202057	None	None	None	None	1
3.0.1	2019_Mar_04_1801	s	s	7	1	SIC	215	ABS	0	0	1	1	24_1_1	NA	NA	0	1	3.65705990791	None	None	None	None	1
3.0.1	2019_Mar_04_1801	s	s	7	1	SIC	216	4_4	4	4	2	3	23_2_3	2	1	1	0	0.634464979172	58.0	207.0	58.0	211.0	1
3.0.1	2019_Mar_04_1801	s	s	7	1	SIC	217	4_3	4	3	3	3	23_3_3	1	0	1	0	0.532773971558	-445.0	-289.0	-434.0	-288.0	1
3.0.1	2019_Mar_04_1801	s	s	7	1	SIC	218	1_4	1	4	4	3	23_4_3	3	1	1	0	0.658061981201	-404.0	381.0	-408.0	374.0	1
3.0.1	2019_Mar_04_1801	s	s	7	1	SIC	219	ABS	0	0	2	3	24_2_3	NA	NA	0	1	4.79784703255	None	None	None	None	1
3.0.1	2019_Mar_04_1801	s	s	7	1	SIC	220	4_2	4	2	2	1	23_2_1	2	-1	1	0	1.14064216614	374.0	199.0	382.0	201.0	1
3.0.1	2019_Mar_04_1801	s	s	7	1	SIC	221	ABS	0	0	1	2	24_1_2	NA	NA	0	1	5.17419409752	None	None	None	None	1
3.0.1	2019_Mar_04_1801	s	s	7	1	SIC	222	ABS	0	0	4	4	24_4_4	NA	NA	0	1	1.56800794601	None	None	None	None	1
3.0.1	2019_Mar_04_1801	s	s	7	1	SIC	223	3_4	3	4	1	4	23_1_4	2	0	1	0	1.50990414619	468.0	195.0	474.0	200.0	1
3.0.1	2019_Mar_04_1801	s	s	7	1	SIC	224	ABS	0	0	3	2	24_3_2	NA	NA	0	1	5.93879890442	None	None	None	None	1
3.0.1	2019_Mar_04_1801	s	s	7	1	SIC	225	ABS	0	0	4	1	24_4_1	NA	NA	0	1	2.96600198746	None	None	None	None	1
3.0.1	2019_Mar_04_1801	s	s	7	1	SIC	226	3_2	3	2	3	3	23_3_3	0	1	1	0	2.20158100128	-253.0	-176.0	-247.0	-178.0	1
3.0.1	2019_Mar_04_1801	s	s	7	1	SIC	227	3_1	3	1	3	4	23_3_4	0	3	1	0	0.68004488945	-131.0	-79.0	-129.0	-88.0	1
3.0.1	2019_Mar_04_1801	s	s	7	1	SIC	228	1_4	1	4	4	2	23_4_2	3	2	1	0	0.581927061081	96.0	-207.0	91.0	-204.0	1
3.0.1	2019_Mar_04_1801	s	s	7	1	SIC	229	4_2	4	2	4	3	23_4_3	0	1	0	1	4.82136797905	-237.0	246.0	None	None	0
3.0.1	2019_Mar_04_1801	s	s	7	1	SIC	230	ABS	0	0	1	4	24_1_4	NA	NA	0	1	2.36844611168	None	None	None	None	1
3.0.1	2019_Mar_04_1801	s	s	7	1	SIC	231	2_2	2	2	1	3	23_1_3	-1	1	1	0	1.23426508904	-280.0	403.0	-276.0	400.0	1
3.0.1	2019_Mar_04_1801	s	s	7	1	SIC	232	2_4	2	4	3	4	23_3_4	1	0	1	0	0.613791942596	-119.0	-59.0	-122.0	-52.0	1
3.0.1	2019_Mar_04_1801	s	s	7	1	SIC	233	ABS	0	0	2	3	24_2_3	NA	NA	0	1	5.72695112228	None	None	None	None	1
3.0.1	2019_Mar_04_1801	s	s	7	1	SIC	234	3_4	3	4	1	2	23_1_2	2	2	1	0	1.45090794563	292.0	-405.0	297.0	-409.0	1
3.0.1	2019_Mar_04_1801	s	s	7	1	SIC	235	ABS	0	0	2	3	24_2_3	NA	NA	0	1	3.7510778904	None	None	None	None	1
3.0.1	2019_Mar_04_1801	s	s	7	1	SIC	236	3_1	3	1	1	4	23_1_4	2	3	1	0	0.634438037872	-11.0	46.0	-15.0	42.0	1
3.0.1	2019_Mar_04_1801	s	s	7	1	SIC	237	4_2	4	2	1	4	23_1_4	3	2	1	0	0.709854841232	412.0	121.0	415.0	118.0	1
3.0.1	2019_Mar_04_1801	s	s	7	1	SIC	238	ABS	0	0	1	2	24_1_2	NA	NA	0	1	4.70377588272	None	None	None	None	1
3.0.1	2019_Mar_04_1801	s	s	7	1	SIC	239	2_4	2	4	2	2	23_2_2	0	2	1	0	0.944562911987	-214.0	199.0	-205.0	196.0	1
3.0.1	2019_Mar_04_1801	s	s	7	1	SIC	240	2_2	2	2	4	1	23_4_1	2	-1	1	0	0.798989057541	294.0	-294.0	302.0	-296.0	1
3.0.1	2019_Mar_04_1801	s	s	7	1	SIC	241	2_1	2	1	1	1	23_1_1	-1	0	0	1	2.01049804688	-77.0	-407.0	None	None	0
3.0.1	2019_Mar_04_1801	s	s	7	1	SIC	242	ABS	0	0	4	3	24_4_3	NA	NA	0	1	2.63870000839	None	None	None	None	1
3.0.1	2019_Mar_04_1801	s	s	7	1	SIC	243	ABS	0	0	4	4	24_4_4	NA	NA	0	1	1.35188388824	None	None	None	None	1
3.0.1	2019_Mar_04_1801	s	s	7	1	SIC	244	ABS	0	0	3	1	24_3_1	NA	NA	0	1	3.93923401833	None	None	None	None	1
3.0.1	2019_Mar_04_1801	s	s	7	1	SIC	245	3_4	3	4	3	1	23_3_1	0	3	1	0	0.752038955688	-491.0	-247.0	-498.0	-248.0	1
3.0.1	2019_Mar_04_1801	s	s	7	1	SIC	246	ABS	0	0	1	1	24_1_1	NA	NA	0	1	3.41513800621	None	None	None	None	1
3.0.1	2019_Mar_04_1801	s	s	7	1	SIC	247	3_1	3	1	3	2	23_3_2	0	1	1	0	4.17974710464	423.0	-261.0	432.0	-259.0	1
3.0.1	2019_Mar_04_1801	s	s	7	1	SIC	248	ABS	0	0	4	4	24_4_4	NA	NA	0	1	1.14416003227	None	None	None	None	1
3.0.1	2019_Mar_04_1801	s	s	7	1	SIC	249	3_1	3	1	1	3	23_1_3	2	2	1	0	0.693197965622	25.0	-138.0	22.0	-136.0	1
3.0.1	2019_Mar_04_1801	s	s	7	1	SIC	250	ABS	0	0	4	4	24_4_4	NA	NA	0	1	1.26164317131	None	None	None	None	1
3.0.1	2019_Mar_04_1801	s	s	7	1	SIC	251	3_4	3	4	2	2	23_2_2	1	2	1	0	1.12078595161	528.0	-272.0	527.0	-273.0	1
3.0.1	2019_Mar_04_1801	s	s	7	1	SIC	252	ABS	0	0	1	1	24_1_1	NA	NA	0	1	4.03167700768	None	None	None	None	1
3.0.1	2019_Mar_04_1801	s	s	7	1	SIC	253	ABS	0	0	3	2	24_3_2	NA	NA	0	1	5.61330509186	None	None	None	None	1
3.0.1	2019_Mar_04_1801	s	s	7	1	SIC	254	ABS	0	0	1	3	24_1_3	NA	NA	0	1	3.6570520401	None	None	None	None	1
3.0.1	2019_Mar_04_1801	s	s	7	1	SIC	255	ABS	0	0	1	4	24_1_4	NA	NA	0	1	2.16343402863	None	None	None	None	1
3.0.1	2019_Mar_04_1801	s	s	7	1	SIC	256	4_3	4	3	3	1	23_3_1	1	2	1	0	0.698182821274	-401.0	171.0	-393.0	166.0	1
3.0.1	2019_Mar_04_1801	s	s	7	1	SIC	257	ABS	0	0	3	1	24_3_1	NA	NA	0	1	1.88110613823	None	None	None	None	1
3.0.1	2019_Mar_04_1801	s	s	7	1	SIC	258	ABS	0	0	2	2	24_2_2	NA	NA	0	1	4.44186997414	None	None	None	None	1
3.0.1	2019_Mar_04_1801	s	s	7	1	SIC	259	ABS	0	0	3	1	24_3_1	NA	NA	0	1	5.11536002159	None	None	None	None	1
3.0.1	2019_Mar_04_1801	s	s	7	1	SIC	260	ABS	0	0	1	1	24_1_1	NA	NA	0	1	4.42159104347	None	None	None	None	1
3.0.1	2019_Mar_04_1801	s	s	7	1	SIC	261	3_4	3	4	3	2	23_3_2	0	2	1	0	0.744668960571	-108.0	-82.0	-112.0	-86.0	1
3.0.1	2019_Mar_04_1801	s	s	7	1	SIC	262	2_1	2	1	2	4	23_2_4	0	3	1	0	0.54035282135	-274.0	-247.0	-275.0	-251.0	1
3.0.1	2019_Mar_04_1801	s	s	7	1	SIC	263	4_4	4	4	1	1	23_1_1	3	3	1	0	0.469797134399	-477.0	-55.0	-469.0	-51.0	1
3.0.1	2019_Mar_04_1801	s	s	7	1	SIC	264	ABS	0	0	2	2	24_2_2	NA	NA	0	1	3.57477211952	None	None	None	None	1
3.0.1	2019_Mar_04_1801	s	s	7	1	SIC	265	3_2	3	2	2	2	23_2_2	1	0	1	0	0.658046960831	-361.0	208.0	-361.0	201.0	1
3.0.1	2019_Mar_04_1801	s	s	7	1	SIC	266	1_1	1	1	2	1	23_2_1	1	0	1	0	6.57375192642	-177.0	-206.0	-178.0	-206.0	1
3.0.1	2019_Mar_04_1801	s	s	7	1	SIC	267	ABS	0	0	1	1	24_1_1	NA	NA	0	1	2.69269490242	None	None	None	None	1
3.0.1	2019_Mar_04_1801	s	s	7	1	SIC	268	ABS	0	0	1	4	24_1_4	NA	NA	0	1	2.58683109283	None	None	None	None	1
3.0.1	2019_Mar_04_1801	s	s	7	1	SIC	269	ABS	0	0	4	3	24_4_3	NA	NA	0	1	2.7513999939	None	None	None	None	1
3.0.1	2019_Mar_04_1801	s	s	7	1	SIC	270	ABS	0	0	1	1	24_1_1	NA	NA	0	1	6.0563120842	None	None	None	None	1
3.0.1	2019_Mar_04_1801	s	s	7	1	SIC	271	1_1	1	1	1	4	23_1_4	0	3	1	0	0.664432048798	-91.0	-56.0	-82.0	-55.0	1
3.0.1	2019_Mar_04_1801	s	s	7	1	SIC	272	ABS	0	0	3	2	24_3_2	NA	NA	0	1	6.69137096405	None	None	None	None	1
3.0.1	2019_Mar_04_1801	s	s	7	1	SIC	273	ABS	0	0	2	1	24_2_1	NA	NA	0	1	7.42063093185	None	None	None	None	1
3.0.1	2019_Mar_04_1801	s	s	7	1	SIC	274	2_1	2	1	2	3	23_2_3	0	2	1	0	0.815672159195	-259.0	300.0	-255.0	310.0	1
3.0.1	2019_Mar_04_1801	s	s	7	1	SIC	275	3_2	3	2	4	3	23_4_3	-1	1	1	0	0.613846063614	-491.0	-327.0	-491.0	-326.0	1
3.0.1	2019_Mar_04_1801	s	s	7	1	SIC	276	ABS	0	0	4	3	24_4_3	NA	NA	0	1	2.42739200592	None	None	None	None	1
3.0.1	2019_Mar_04_1801	s	s	7	1	SIC	277	ABS	0	0	1	3	24_1_3	NA	NA	0	1	2.93966317177	None	None	None	None	1
3.0.1	2019_Mar_04_1801	s	s	7	1	SIC	278	ABS	0	0	3	3	24_3_3	NA	NA	0	1	2.23876214027	None	None	None	None	1
3.0.1	2019_Mar_04_1801	s	s	7	1	SIC	279	ABS	0	0	4	2	24_4_2	NA	NA	0	1	7.16556310654	None	None	None	None	1
3.0.1	2019_Mar_04_1801	s	s	7	1	SIC	280	ABS	0	0	1	4	24_1_4	NA	NA	0	1	1.83409190178	None	None	None	None	1
3.0.1	2019_Mar_04_1801	s	s	7	1	SIC	281	ABS	0	0	3	3	24_3_3	NA	NA	0	1	2.55441403389	None	None	None	None	1
3.0.1	2019_Mar_04_1801	s	s	7	1	SIC	282	2_2	2	2	4	4	23_4_4	2	2	1	0	0.575731039047	-13.0	48.0	-13.0	51.0	1
3.0.1	2019_Mar_04_1801	s	s	7	1	SIC	283	ABS	0	0	4	2	24_4_2	NA	NA	0	1	6.39740610123	None	None	None	None	1
3.0.1	2019_Mar_04_1801	s	s	7	1	SIC	284	3_2	3	2	2	3	23_2_3	1	1	1	0	0.881335020065	238.0	76.0	241.0	80.0	1
3.0.1	2019_Mar_04_1801	s	s	7	1	SIC	285	ABS	0	0	1	3	24_1_3	NA	NA	0	1	3.26629686356	None	None	None	None	1
3.0.1	2019_Mar_04_1801	s	s	7	1	SIC	286	ABS	0	0	3	2	24_3_2	NA	NA	0	1	2.66916513443	None	None	None	None	1
3.0.1	2019_Mar_04_1801	s	s	7	1	SIC	287	ABS	0	0	4	2	24_4_2	NA	NA	0	1	4.88020706177	None	None	None	None	1
3.0.1	2019_Mar_04_1801	s	s	7	1	SIC	288	ABS	0	0	1	1	24_1_1	NA	NA	0	1	4.02620816231	None	None	None	None	1
3.0.1	2019_Mar_04_1801	s	s	7	1	SIC	289	2_1	2	1	3	1	23_3_1	1	0	1	0	0.969056129456	-239.0	370.0	-235.0	368.0	1
3.0.1	2019_Mar_04_1801	s	s	7	1	SIC	290	ABS	0	0	1	2	24_1_2	NA	NA	0	1	2.95748806	None	None	None	None	1
3.0.1	2019_Mar_04_1801	s	s	7	1	SIC	291	ABS	0	0	2	4	24_2_4	NA	NA	0	1	1.07458400726	None	None	None	None	1
3.0.1	2019_Mar_04_1801	s	s	7	1	SIC	292	4_2	4	2	4	1	23_4_1	0	-1	1	0	1.34464716911	518.0	4.0	519.0	11.0	1
3.0.1	2019_Mar_04_1801	s	s	7	1	SIC	293	2_1	2	1	2	2	23_2_2	0	1	1	0	1.81056904793	-394.0	-249.0	-401.0	-253.0	1
3.0.1	2019_Mar_04_1801	s	s	7	1	SIC	294	3_1	3	1	4	2	23_4_2	-1	1	1	0	1.28124713898	-156.0	231.0	-151.0	227.0	1
3.0.1	2019_Mar_04_1801	s	s	7	1	SIC	295	ABS	0	0	4	1	24_4_1	NA	NA	0	1	1.95163393021	None	None	None	None	1
3.0.1	2019_Mar_04_1801	s	s	7	1	SIC	296	3_3	3	3	4	1	23_4_1	-1	2	1	0	0.834413051605	430.0	403.0	421.0	399.0	1
3.0.1	2019_Mar_04_1801	s	s	7	1	SIC	297	ABS	0	0	3	1	24_3_1	NA	NA	0	1	3.79811406136	None	None	None	None	1
3.0.1	2019_Mar_04_1801	s	s	7	1	SIC	298	ABS	0	0	4	4	24_4_4	NA	NA	0	1	1.09762310982	None	None	None	None	1
3.0.1	2019_Mar_04_1801	s	s	7	1	SIC	299	4_4	4	4	2	4	23_2_4	2	0	1	0	0.693289041519	-60.0	-261.0	-56.0	-268.0	1
3.0.1	2019_Mar_04_1801	s	s	7	1	SIC	300	ABS	0	0	2	2	24_2_2	NA	NA	0	1	5.67114305496	None	None	None	None	1
3.0.1	2019_Mar_04_1801	s	s	7	1	SIC	301	ABS	0	0	2	2	24_2_2	NA	NA	0	1	5.04484891891	None	None	None	None	1
3.0.1	2019_Mar_04_1801	s	s	7	1	SIC	302	ABS	0	0	2	4	24_2_4	NA	NA	0	1	1.11670613289	None	None	None	None	1
3.0.1	2019_Mar_04_1801	s	s	7	1	SIC	303	3_1	3	1	1	2	23_1_2	2	1	1	0	0.599148988724	-70.0	132.0	-69.0	137.0	1
3.0.1	2019_Mar_04_1801	s	s	7	1	SIC	304	2_1	2	1	4	4	23_4_4	2	3	1	0	0.496129989624	-251.0	212.0	-258.0	215.0	1
3.0.1	2019_Mar_04_1801	s	s	7	1	SIC	305	3_2	3	2	3	4	23_3_4	0	2	1	0	0.446278095245	-221.0	-115.0	-219.0	-123.0	1
3.0.1	2019_Mar_04_1801	s	s	7	1	SIC	306	4_1	4	1	1	2	23_1_2	3	1	1	0	0.356287002563	-267.0	260.0	-270.0	258.0	1
3.0.1	2019_Mar_04_1801	s	s	7	1	SIC	307	4_3	4	3	1	1	23_1_1	3	2	1	0	0.343774080276	-305.0	293.0	-305.0	291.0	1
3.0.1	2019_Mar_04_1801	s	s	7	1	SIC	308	ABS	0	0	2	1	24_2_1	NA	NA	0	1	7.2725520134	None	None	None	None	1
3.0.1	2019_Mar_04_1801	s	s	7	1	SIC	309	ABS	0	0	1	2	24_1_2	NA	NA	0	1	4.13285088539	None	None	None	None	1
3.0.1	2019_Mar_04_1801	s	s	7	1	SIC	310	ABS	0	0	4	4	24_4_4	NA	NA	0	1	1.60193586349	None	None	None	None	1
3.0.1	2019_Mar_04_1801	s	s	7	1	SIC	311	4_2	4	2	2	4	23_2_4	2	2	1	0	0.622611999512	-337.0	26.0	-335.0	29.0	1
3.0.1	2019_Mar_04_1801	s	s	7	1	SIC	312	4_4	4	4	1	4	23_1_4	3	0	1	0	0.437420845032	99.0	-88.0	99.0	-91.0	1
3.0.1	2019_Mar_04_1801	s	s	7	1	SIC	313	2_1	2	1	4	1	23_4_1	2	0	1	0	0.422730922699	-358.0	124.0	-353.0	118.0	1
3.0.1	2019_Mar_04_1801	s	s	7	1	SIC	314	4_1	4	1	1	1	23_1_1	3	0	1	0	0.406015872955	237.0	-351.0	243.0	-354.0	1
3.0.1	2019_Mar_04_1801	s	s	7	1	SIC	315	ABS	0	0	1	2	24_1_2	NA	NA	0	1	4.01594305038	None	None	None	None	1
3.0.1	2019_Mar_04_1801	s	s	7	1	SIC	316	ABS	0	0	4	3	24_4_3	NA	NA	0	1	1.45088219643	None	None	None	None	1
3.0.1	2019_Mar_04_1801	s	s	7	1	SIC	317	ABS	0	0	2	3	24_2_3	NA	NA	0	1	2.679210186	None	None	None	None	1
3.0.1	2019_Mar_04_1801	s	s	7	1	SIC	318	ABS	0	0	2	1	24_2_1	NA	NA	0	1	5.68429303169	None	None	None	None	1
3.0.1	2019_Mar_04_1801	s	s	7	1	SIC	319	ABS	0	0	2	1	24_2_1	NA	NA	0	1	6.20747804642	None	None	None	None	1
3.0.1	2019_Mar_04_1801	s	s	7	1	SIC	320	ABS	0	0	4	3	24_4_3	NA	NA	0	1	2.21657514572	None	None	None	None	1
3.0.1	2019_Mar_04_1801	s	s	7	1	SIC	321	2_3	2	3	2	4	23_2_4	0	-1	1	0	0.70499587059	-424.0	-100.0	-419.0	-97.0	1
3.0.1	2019_Mar_04_1801	s	s	7	1	SIC	322	ABS	0	0	2	3	24_2_3	NA	NA	0	1	2.06925392151	None	None	None	None	1
3.0.1	2019_Mar_04_1801	s	s	7	1	SIC	323	ABS	0	0	3	4	24_3_4	NA	NA	0	1	1.10488200188	None	None	None	None	1
3.0.1	2019_Mar_04_1801	s	s	7	1	SIC	324	ABS	0	0	2	3	24_2_3	NA	NA	0	1	2.6036798954	None	None	None	None	1
3.0.1	2019_Mar_04_1801	s	s	7	1	SIC	325	ABS	0	0	1	3	24_1_3	NA	NA	0	1	2.11629700661	None	None	None	None	1
3.0.1	2019_Mar_04_1801	s	s	7	1	SIC	326	2_1	2	1	3	3	23_3_3	1	2	1	0	0.722983121872	316.0	-210.0	321.0	-218.0	1
3.0.1	2019_Mar_04_1801	s	s	7	1	SIC	327	3_1	3	1	2	2	23_2_2	1	1	1	0	0.909867048264	290.0	-252.0	289.0	-257.0	1
3.0.1	2019_Mar_04_1801	s	s	7	1	SIC	328	3_1	3	1	1	1	23_1_1	2	0	1	0	0.728498935699	229.0	196.0	230.0	194.0	1
3.0.1	2019_Mar_04_1801	s	s	7	1	SIC	329	ABS	0	0	4	4	24_4_4	NA	NA	0	1	0.79023194313	None	None	None	None	1
3.0.1	2019_Mar_04_1801	s	s	7	1	SIC	330	ABS	0	0	1	2	24_1_2	NA	NA	0	1	3.28513002396	None	None	None	None	1
3.0.1	2019_Mar_04_1801	s	s	7	1	SIC	331	3_2	3	2	1	2	23_1_2	2	0	1	0	0.67835187912	182.0	-196.0	183.0	-195.0	1
3.0.1	2019_Mar_04_1801	s	s	7	1	SIC	332	2_4	2	4	1	2	23_1_2	-1	2	1	0	0.622721910477	208.0	-406.0	209.0	-405.0	1
3.0.1	2019_Mar_04_1801	s	s	7	1	SIC	333	2_3	2	3	2	1	23_2_1	0	2	1	0	2.68609499931	121.0	267.0	122.0	272.0	1
3.0.1	2019_Mar_04_1801	s	s	7	1	SIC	334	ABS	0	0	2	4	24_2_4	NA	NA	0	1	1.02544593811	None	None	None	None	1
3.0.1	2019_Mar_04_1801	s	s	7	1	SIC	335	ABS	0	0	4	1	24_4_1	NA	NA	0	1	0.650603055954	None	None	None	None	1
3.0.1	2019_Mar_04_1801	s	s	7	1	SIC	336	ABS	0	0	2	2	24_2_2	NA	NA	0	1	2.53215813637	None	None	None	None	1
3.0.1	2019_Mar_04_1801	s	s	7	1	SIC	337	ABS	0	0	4	1	24_4_1	NA	NA	0	1	1.42244100571	None	None	None	None	1
3.0.1	2019_Mar_04_1801	s	s	7	1	SIC	338	1_3	1	3	3	2	23_3_2	2	1	1	0	0.850043058395	197.0	-256.0	200.0	-262.0	1
3.0.1	2019_Mar_04_1801	s	s	7	1	SIC	339	3_1	3	1	4	4	23_4_4	-1	3	1	0	0.4373960495	285.0	-109.0	276.0	-101.0	1
3.0.1	2019_Mar_04_1801	s	s	7	1	SIC	340	ABS	0	0	2	4	24_2_4	NA	NA	0	1	2.19868016243	None	None	None	None	1
3.0.1	2019_Mar_04_1801	s	s	7	1	SIC	341	2_4	2	4	2	3	23_2_3	0	1	1	0	0.68151807785	191.0	-19.0	187.0	-28.0	1
3.0.1	2019_Mar_04_1801	s	s	7	1	SIC	342	3_2	3	2	4	4	23_4_4	-1	2	1	0	0.446240901947	54.0	-221.0	47.0	-226.0	1
3.0.1	2019_Mar_04_1801	s	s	7	1	SIC	343	ABS	0	0	1	1	24_1_1	NA	NA	0	1	5.09733700752	None	None	None	None	1
3.0.1	2019_Mar_04_1801	s	s	7	1	SIC	344	ABS	0	0	3	4	24_3_4	NA	NA	0	1	1.51948595047	None	None	None	None	1
3.0.1	2019_Mar_04_1801	s	s	7	1	SIC	345	ABS	0	0	3	3	24_3_3	NA	NA	0	1	2.04575300217	None	None	None	None	1
3.0.1	2019_Mar_04_1801	s	s	7	1	SIC	346	ABS	0	0	4	2	24_4_2	NA	NA	0	1	4.25980186462	None	None	None	None	1
3.0.1	2019_Mar_04_1801	s	s	7	1	SIC	347	ABS	0	0	1	3	24_1_3	NA	NA	0	1	1.65073800087	None	None	None	None	1
3.0.1	2019_Mar_04_1801	s	s	7	1	SIC	348	2_1	2	1	1	4	23_1_4	-1	3	1	0	0.657988786697	429.0	213.0	431.0	205.0	1
3.0.1	2019_Mar_04_1801	s	s	7	1	SIC	349	ABS	0	0	3	4	24_3_4	NA	NA	0	1	0.663660049438	None	None	None	None	1
3.0.1	2019_Mar_04_1801	s	s	7	1	SIC	350	4_4	4	4	3	2	23_3_2	1	2	1	0	0.650964975357	466.0	-329.0	462.0	-335.0	1
3.0.1	2019_Mar_04_1801	s	s	7	1	SIC	351	ABS	0	0	1	3	24_1_3	NA	NA	0	1	2.78673505783	None	None	None	None	1
3.0.1	2019_Mar_04_1801	s	s	7	1	SIC	352	2_4	2	4	4	1	23_4_1	2	3	1	0	0.756691932678	-410.0	-339.0	-411.0	-337.0	1
3.0.1	2019_Mar_04_1801	s	s	7	1	SIC	353	2_2	2	2	3	2	23_3_2	1	0	1	0	0.61381316185	-111.0	-286.0	-110.0	-282.0	1
3.0.1	2019_Mar_04_1801	s	s	7	1	SIC	354	ABS	0	0	3	4	24_3_4	NA	NA	0	1	0.999443054199	None	None	None	None	1
3.0.1	2019_Mar_04_1801	s	s	7	1	SIC	355	ABS	0	0	3	3	24_3_3	NA	NA	0	1	1.83407115936	None	None	None	None	1
3.0.1	2019_Mar_04_1801	s	s	7	1	SIC	356	1_1	1	1	1	3	23_1_3	0	2	1	0	1.02717208862	-199.0	-214.0	-196.0	-215.0	1
3.0.1	2019_Mar_04_1801	s	s	7	1	SIC	357	1_1	1	1	2	4	23_2_4	1	3	1	0	0.662253141403	-190.0	172.0	-189.0	171.0	1
3.0.1	2019_Mar_04_1801	s	s	7	1	SIC	358	ABS	0	0	2	3	24_2_3	NA	NA	0	1	2.12815499306	None	None	None	None	1
3.0.1	2019_Mar_04_1801	s	s	7	1	SIC	359	4_1	4	1	3	3	23_3_3	1	2	1	0	0.6343998909	413.0	339.0	416.0	332.0	1
3.0.1	2019_Mar_04_1801	s	s	7	1	SIC	360	4_1	4	1	3	1	23_3_1	1	0	1	0	0.384563922882	199.0	209.0	202.0	211.0	1
3.0.1	2019_Mar_04_1801	s	s	7	1	SIC	361	ABS	0	0	4	4	24_4_4	NA	NA	0	1	0.841160058975	None	None	None	None	1
3.0.1	2019_Mar_04_1801	s	s	7	1	SIC	362	ABS	0	0	1	4	24_1_4	NA	NA	0	1	0.587423086166	None	None	None	None	1
3.0.1	2019_Mar_04_1801	s	s	7	1	SIC	363	3_3	3	3	2	2	23_2_2	1	1	1	0	1.2225151062	-511.0	-195.0	-512.0	-193.0	1
3.0.1	2019_Mar_04_1801	s	s	7	1	SIC	364	ABS	0	0	4	3	24_4_3	NA	NA	0	1	2.41454815865	None	None	None	None	1
3.0.1	2019_Mar_04_1801	s	s	7	1	SIC	365	1_4	1	4	2	3	23_2_3	1	1	1	0	0.62305188179	-305.0	151.0	-299.0	157.0	1
3.0.1	2019_Mar_04_1801	s	s	7	1	SIC	366	4_2	4	2	3	2	23_3_2	1	0	1	0	0.416149139404	90.0	-156.0	96.0	-152.0	1
3.0.1	2019_Mar_04_1801	s	s	7	1	SIC	367	ABS	0	0	3	1	24_3_1	NA	NA	0	1	2.70849394798	None	None	None	None	1
3.0.1	2019_Mar_04_1801	s	s	7	1	SIC	368	2_2	2	2	3	1	23_3_1	1	-1	1	0	0.672559022903	173.0	-205.0	175.0	-207.0	1
3.0.1	2019_Mar_04_1801	s	s	7	1	SIC	369	1_2	1	2	1	4	23_1_4	0	2	1	0	0.737094163895	-30.0	-400.0	-24.0	-400.0	1
3.0.1	2019_Mar_04_1801	s	s	7	1	SIC	370	3_4	3	4	2	3	23_2_3	1	1	1	0	0.569061994553	-122.0	-142.0	-120.0	-149.0	1
3.0.1	2019_Mar_04_1801	s	s	7	1	SIC	371	ABS	0	0	2	4	24_2_4	NA	NA	0	1	3.28555583954	None	None	None	None	1
3.0.1	2019_Mar_04_1801	s	s	7	1	SIC	372	1_4	1	4	4	1	23_4_1	3	3	1	0	0.65797495842	447.0	64.0	451.0	65.0	1
3.0.1	2019_Mar_04_1801	s	s	7	1	SIC	373	3_3	3	3	4	2	23_4_2	-1	1	1	0	0.546996116638	-215.0	-394.0	-214.0	-401.0	1
3.0.1	2019_Mar_04_1801	s	s	7	1	SIC	374	ABS	0	0	2	1	24_2_1	NA	NA	0	1	3.59827303886	None	None	None	None	1
3.0.1	2019_Mar_04_1801	s	s	7	1	SIC	375	2_3	2	3	4	1	23_4_1	2	2	1	0	0.50007390976	395.0	-206.0	400.0	-203.0	1
3.0.1	2019_Mar_04_1801	s	s	7	1	SIC	376	ABS	0	0	1	3	24_1_3	NA	NA	0	1	1.36360812187	None	None	None	None	1
3.0.1	2019_Mar_04_1801	s	s	7	1	SIC	377	4_2	4	2	1	3	23_1_3	3	1	1	0	0.488205909729	486.0	-42.0	482.0	-37.0	1
3.0.1	2019_Mar_04_1801	s	s	7	1	SIC	378	1_2	1	2	2	3	23_2_3	1	1	1	0	1.59890913963	77.0	232.0	72.0	228.0	1
3.0.1	2019_Mar_04_1801	s	s	7	1	SIC	379	ABS	0	0	2	4	24_2_4	NA	NA	0	1	1.20693278313	None	None	None	None	1
3.0.1	2019_Mar_04_1801	s	s	7	1	SIC	380	4_4	4	4	3	3	23_3_3	1	1	1	0	0.516822814941	339.0	-392.0	351.0	-387.0	1
3.0.1	2019_Mar_04_1801	s	s	7	1	SIC	381	2_3	2	3	3	2	23_3_2	1	1	1	0	0.763839006424	-286.0	163.0	-291.0	159.0	1
3.0.1	2019_Mar_04_1801	s	s	7	1	SIC	382	1_2	1	2	3	3	23_3_3	2	1	1	0	0.438894987106	134.0	238.0	140.0	240.0	1
3.0.1	2019_Mar_04_1801	s	s	7	1	SIC	383	ABS	0	0	3	4	24_3_4	NA	NA	0	1	1.01085400581	None	None	None	None	1
3.0.1	2019_Mar_04_1801	s	s	7	1	SIC	384	4_1	4	1	2	4	23_2_4	2	3	1	0	0.528604984283	-93.0	-377.0	-91.0	-390.0	1
3.0.1	2019_Mar_04_1801	s	s	7	1	SIC	385	4_4	4	4	4	1	23_4_1	0	3	1	0	0.622661828995	-173.0	266.0	-172.0	260.0	1
3.0.1	2019_Mar_04_1801	s	s	7	1	SIC	386	4_4	4	4	2	1	23_2_1	2	3	1	0	0.481570959091	-153.0	9.0	-143.0	9.0	1
3.0.1	2019_Mar_04_1801	s	s	7	1	SIC	387	4_3	4	3	4	2	23_4_2	0	1	0	1	1.07456588745	-315.0	-227.0	None	None	0
3.0.1	2019_Mar_04_1801	s	s	7	1	SIC	388	1_3	1	3	3	3	23_3_3	2	0	1	0	0.913589954376	-408.0	-384.0	-407.0	-391.0	1
3.0.1	2019_Mar_04_1801	s	s	7	1	SIC	389	ABS	0	0	4	3	24_4_3	NA	NA	0	1	2.46920394897	None	None	None	None	1
3.0.1	2019_Mar_04_1801	s	s	7	1	SIC	390	ABS	0	0	1	2	24_1_2	NA	NA	0	1	4.31858706474	None	None	None	None	1
3.0.1	2019_Mar_04_1801	s	s	7	1	SIC	391	1_1	1	1	4	4	23_4_4	3	3	1	0	1.84076285362	310.0	208.0	306.0	200.0	1
3.0.1	2019_Mar_04_1801	s	s	7	1	SIC	392	ABS	0	0	1	1	24_1_1	NA	NA	0	1	3.28057909012	None	None	None	None	1
3.0.1	2019_Mar_04_1801	s	s	7	1	SIC	393	ABS	0	0	2	4	24_2_4	NA	NA	0	1	0.756076812744	None	None	None	None	1
3.0.1	2019_Mar_04_1801	s	s	7	1	SIC	394	ABS	0	0	4	1	24_4_1	NA	NA	0	1	2.89266586304	None	None	None	None	1
3.0.1	2019_Mar_04_1801	s	s	7	1	SIC	395	ABS	0	0	4	2	24_4_2	NA	NA	0	1	4.05025792122	None	None	None	None	1
3.0.1	2019_Mar_04_1801	s	s	7	1	SIC	396	ABS	0	0	3	1	24_3_1	NA	NA	0	1	2.75659418106	None	None	None	None	1
3.0.1	2019_Mar_04_1801	s	s	7	1	SIC	397	4_2	4	2	4	4	23_4_4	0	2	1	0	1.01080799103	-35.0	195.0	-37.0	202.0	1
3.0.1	2019_Mar_04_1801	s	s	7	1	SIC	398	ABS	0	0	2	1	24_2_1	NA	NA	0	1	3.74361991882	None	None	None	None	1
3.0.1	2019_Mar_04_1801	s	s	7	1	SIC	399	ABS	0	0	4	2	24_4_2	NA	NA	0	1	3.473995924	None	None	None	None	1
3.0.1	2019_Mar_04_1801	s	s	7	1	SIC	400	2_2	2	2	2	1	23_2_1	0	-1	1	0	1.61968207359	-352.0	190.0	-354.0	182.0	1
3.0.1	2019_Mar_04_1801	s	s	7	1	SIC	401	3_3	3	3	3	1	23_3_1	0	2	0	1	2.50022912025	391.0	-110.0	None	None	0
3.0.1	2019_Mar_04_1801	s	s	7	1	SIC	402	1_2	1	2	1	3	23_1_3	0	1	0	1	3.12783503532	417.0	363.0	None	None	0
3.0.1	2019_Mar_04_1801	s	s	7	1	SIC	403	ABS	0	0	1	3	24_1_3	NA	NA	0	1	2.70851898193	None	None	None	None	1
3.0.1	2019_Mar_04_1801	s	s	7	1	SIC	404	ABS	0	0	1	2	24_1_2	NA	NA	0	1	4.93894791603	None	None	None	None	1
3.0.1	2019_Mar_04_1801	s	s	7	1	SIC	405	1_3	1	3	1	1	23_1_1	0	2	1	0	2.53996515274	136.0	351.0	137.0	350.0	1
3.0.1	2019_Mar_04_1801	s	s	7	1	SIC	406	4_2	4	2	1	1	23_1_1	3	-1	1	0	0.567937850952	410.0	179.0	407.0	179.0	1
3.0.1	2019_Mar_04_1801	s	s	7	1	SIC	407	ABS	0	0	1	4	24_1_4	NA	NA	0	1	0.904989004135	None	None	None	None	1
3.0.1	2019_Mar_04_1801	s	s	7	1	SIC	408	ABS	0	0	2	1	24_2_1	NA	NA	0	1	3.7276289463	None	None	None	None	1
3.0.1	2019_Mar_04_1801	s	s	7	1	SIC	409	2_3	2	3	1	1	23_1_1	-1	2	1	0	1.4744951725	135.0	-363.0	137.0	-368.0	1
3.0.1	2019_Mar_04_1801	s	s	7	1	SIC	410	ABS	0	0	2	2	24_2_2	NA	NA	0	1	4.33915400505	None	None	None	None	1
3.0.1	2019_Mar_04_1801	s	s	7	1	SIC	411	ABS	0	0	1	4	24_1_4	NA	NA	0	1	1.29766893387	None	None	None	None	1
3.0.1	2019_Mar_04_1801	s	s	7	1	SIC	412	ABS	0	0	3	1	24_3_1	NA	NA	0	1	3.53950405121	None	None	None	None	1
3.0.1	2019_Mar_04_1801	s	s	7	1	SIC	413	1_2	1	2	3	4	23_3_4	2	2	1	0	0.966645956039	-283.0	-29.0	-288.0	-26.0	1
3.0.1	2019_Mar_04_1801	s	s	7	1	SIC	414	ABS	0	0	4	2	24_4_2	NA	NA	0	1	3.77468585968	None	None	None	None	1
3.0.1	2019_Mar_04_1801	s	s	7	1	SIC	415	ABS	0	0	1	3	24_1_3	NA	NA	0	1	3.41465902328	None	None	None	None	1
3.0.1	2019_Mar_04_1801	s	s	7	1	SIC	416	4_4	4	4	3	4	23_3_4	1	0	1	0	0.613826990128	380.0	38.0	383.0	41.0	1
3.0.1	2019_Mar_04_1801	s	s	7	1	SIC	417	1_2	1	2	4	3	23_4_3	3	1	1	0	0.496560096741	480.0	-39.0	474.0	-41.0	1
3.0.1	2019_Mar_04_1801	s	s	7	1	SIC	418	ABS	0	0	3	1	24_3_1	NA	NA	0	1	3.35155391693	None	None	None	None	1
3.0.1	2019_Mar_04_1801	s	s	7	1	SIC	419	3_2	3	2	4	2	23_4_2	-1	0	1	0	0.672522068024	342.0	221.0	335.0	217.0	1
3.0.1	2019_Mar_04_1801	s	s	7	1	SIC	420	ABS	0	0	2	1	24_2_1	NA	NA	0	1	4.16278100014	None	None	None	None	1
3.0.1	2019_Mar_04_1801	s	s	7	1	SIC	421	ABS	0	0	1	2	24_1_2	NA	NA	0	1	5.61328721046	None	None	None	None	1
3.0.1	2019_Mar_04_1801	s	s	7	1	SIC	422	4_2	4	2	3	3	23_3_3	1	1	1	0	0.59172296524	-23.0	-103.0	-25.0	-99.0	1
3.0.1	2019_Mar_04_1801	s	s	7	1	SIC	423	ABS	0	0	4	3	24_4_3	NA	NA	0	1	2.84949207306	None	None	None	None	1
3.0.1	2019_Mar_04_1801	s	s	7	1	SIC	424	ABS	0	0	1	3	24_1_3	NA	NA	0	1	2.5279378891	None	None	None	None	1
3.0.1	2019_Mar_04_1801	s	s	7	1	SIC	425	ABS	0	0	3	2	24_3_2	NA	NA	0	1	5.08304095268	None	None	None	None	1
3.0.1	2019_Mar_04_1801	s	s	7	1	SIC	426	1_2	1	2	4	1	23_4_1	3	-1	1	0	0.474716901779	493.0	-179.0	493.0	-180.0	1
3.0.1	2019_Mar_04_1801	s	s	7	1	SIC	427	3_3	3	3	1	3	23_1_3	2	0	1	0	0.516778945923	-34.0	-242.0	-37.0	-253.0	1
3.0.1	2019_Mar_04_1801	s	s	7	1	SIC	428	2_1	2	1	1	3	23_1_3	-1	2	1	0	0.599191904068	-145.0	175.0	-142.0	178.0	1
3.0.1	2019_Mar_04_1801	s	s	7	1	SIC	429	ABS	0	0	3	1	24_3_1	NA	NA	0	1	4.84498286247	None	None	None	None	1
3.0.1	2019_Mar_04_1801	s	s	7	1	SIC	430	ABS	0	0	1	2	24_1_2	NA	NA	0	1	3.16602087021	None	None	None	None	1
3.0.1	2019_Mar_04_1801	s	s	7	1	SIC	431	2_3	2	3	1	2	23_1_2	-1	1	1	0	2.88081693649	416.0	-235.0	423.0	-236.0	1
3.0.1	2019_Mar_04_1801	s	s	7	1	SIC	432	3_4	3	4	2	4	23_2_4	1	0	1	0	0.728550195694	-196.0	-266.0	-194.0	-274.0	1
3.0.1	2019_Mar_04_1801	s	s	7	1	SIC	433	1_3	1	3	1	2	23_1_2	0	1	1	0	0.657963037491	-73.0	-272.0	-107.0	3.0	0
3.0.1	2019_Mar_04_1801	s	s	7	1	SIC	434	3_3	3	3	1	1	23_1_1	2	2	1	0	0.599130868912	-226.0	-54.0	-227.0	-55.0	1
3.0.1	2019_Mar_04_1801	s	s	7	1	SIC	435	2_4	2	4	3	3	23_3_3	1	1	1	0	0.893224000931	-389.0	-265.0	-381.0	-270.0	1
3.0.1	2019_Mar_04_1801	s	s	7	1	SIC	436	2_3	2	3	4	2	23_4_2	2	1	1	0	0.71675992012	-392.0	405.0	-385.0	415.0	1
3.0.1	2019_Mar_04_1801	s	s	7	1	SIC	437	ABS	0	0	1	2	24_1_2	NA	NA	0	1	4.13047099113	None	None	None	None	1
3.0.1	2019_Mar_04_1801	s	s	7	1	SIC	438	ABS	0	0	3	2	24_3_2	NA	NA	0	1	2.98661494255	None	None	None	None	1
3.0.1	2019_Mar_04_1801	s	s	7	1	SIC	439	1_4	1	4	3	1	23_3_1	2	3	1	0	0.442294836044	-47.0	176.0	-48.0	177.0	1
3.0.1	2019_Mar_04_1801	s	s	7	1	SIC	440	ABS	0	0	1	1	24_1_1	NA	NA	1	0	1.11665797234	None	None	31.0	-109.0	0
3.0.1	2019_Mar_04_1801	s	s	7	1	SIC	441	1_3	1	3	2	3	23_2_3	1	0	1	0	3.29722690582	409.0	-157.0	403.0	-154.0	1
3.0.1	2019_Mar_04_1801	s	s	7	1	SIC	442	ABS	0	0	4	4	24_4_4	NA	NA	0	1	0.874587059021	None	None	None	None	1
3.0.1	2019_Mar_04_1801	s	s	7	1	SIC	443	ABS	0	0	4	2	24_4_2	NA	NA	0	1	5.72031807899	None	None	None	None	1
3.0.1	2019_Mar_04_1801	s	s	7	1	SIC	444	1_4	1	4	2	2	23_2_2	1	2	1	0	1.42261099815	-526.0	275.0	-529.0	274.0	1
3.0.1	2019_Mar_04_1801	s	s	7	1	SIC	445	ABS	0	0	1	4	24_1_4	NA	NA	0	1	2.84563708305	None	None	None	None	1
3.0.1	2019_Mar_04_1801	s	s	7	1	SIC	446	ABS	0	0	2	3	24_2_3	NA	NA	0	1	2.93977189064	None	None	None	None	1
3.0.1	2019_Mar_04_1801	s	s	7	1	SIC	447	4_4	4	4	2	2	23_2_2	2	2	1	0	0.616520166397	124.0	-113.0	121.0	-103.0	1
3.0.1	2019_Mar_04_1801	s	s	7	1	SIC	448	1_4	1	4	4	4	23_4_4	3	0	1	0	0.442907094955	122.0	100.0	113.0	101.0	1
3.0.1	2019_Mar_04_1801	s	s	7	1	SIC	449	ABS	0	0	2	3	24_2_3	NA	NA	0	1	1.6576230526	None	None	None	None	1
3.0.1	2019_Mar_04_1801	s	s	7	1	SIC	450	ABS	0	0	4	3	24_4_3	NA	NA	0	1	1.82763504982	None	None	None	None	1
3.0.1	2019_Mar_04_1801	s	s	7	1	SIC	451	4_3	4	3	1	3	23_1_3	3	0	1	0	0.562232017517	-179.0	-253.0	-174.0	-252.0	1
3.0.1	2019_Mar_04_1801	s	s	7	1	SIC	452	1_4	1	4	2	4	23_2_4	1	0	1	0	0.999043941498	-268.0	207.0	-265.0	208.0	1
3.0.1	2019_Mar_04_1801	s	s	7	1	SIC	453	2_3	2	3	1	4	23_1_4	-1	-1	1	0	1.17547297478	123.0	-302.0	125.0	-318.0	1
3.0.1	2019_Mar_04_1801	s	s	7	1	SIC	454	3_1	3	1	2	4	23_2_4	1	3	1	0	0.676915884018	265.0	22.0	267.0	17.0	1
3.0.1	2019_Mar_04_1801	s	s	7	1	SIC	455	ABS	0	0	4	3	24_4_3	NA	NA	0	1	2.33968901634	None	None	None	None	1
3.0.1	2019_Mar_04_1801	s	s	7	1	SIC	456	ABS	0	0	1	1	24_1_1	NA	NA	0	1	5.63796401024	None	None	None	None	1
3.0.1	2019_Mar_04_1801	s	s	7	1	SIC	457	2_1	2	1	1	2	23_1_2	-1	1	1	0	5.55520892143	176.0	-330.0	176.0	-333.0	1
3.0.1	2019_Mar_04_1801	s	s	7	1	SIC	458	ABS	0	0	3	4	24_3_4	NA	NA	0	1	2.0261888504	None	None	None	None	1
3.0.1	2019_Mar_04_1801	s	s	7	1	SIC	459	2_2	2	2	2	3	23_2_3	0	1	1	0	1.27520298958	-323.0	52.0	-326.0	51.0	1
3.0.1	2019_Mar_04_1801	s	s	7	1	SIC	460	ABS	0	0	2	4	24_2_4	NA	NA	0	1	1.79140806198	None	None	None	None	1
3.0.1	2019_Mar_04_1801	s	s	7	1	SIC	461	ABS	0	0	4	4	24_4_4	NA	NA	0	1	0.622648954391	None	None	None	None	1
3.0.1	2019_Mar_04_1801	s	s	7	1	SIC	462	ABS	0	0	3	4	24_3_4	NA	NA	0	1	1.55467700958	None	None	None	None	1
3.0.1	2019_Mar_04_1801	s	s	7	1	SIC	463	2_2	2	2	3	3	23_3_3	1	1	1	0	0.768383026123	-268.0	256.0	-277.0	253.0	1
3.0.1	2019_Mar_04_1801	s	s	7	1	SIC	464	1_1	1	1	4	1	23_4_1	3	0	1	0	0.481534004211	-400.0	330.0	-408.0	326.0	1
3.0.1	2019_Mar_04_1801	s	s	7	1	SIC	465	ABS	0	0	4	3	24_4_3	NA	NA	0	1	2.79527497292	None	None	None	None	1
3.0.1	2019_Mar_04_1801	s	s	7	1	SIC	466	2_2	2	2	4	2	23_4_2	2	0	1	0	0.532644987106	-462.0	92.0	-462.0	87.0	1
3.0.1	2019_Mar_04_1801	s	s	7	1	SIC	467	ABS	0	0	2	1	24_2_1	NA	NA	0	1	8.34970903397	None	None	None	None	1
3.0.1	2019_Mar_04_1801	s	s	7	1	SIC	468	ABS	0	0	2	4	24_2_4	NA	NA	0	1	1.7635409832	None	None	None	None	1
3.0.1	2019_Mar_04_1801	s	s	7	1	SIC	469	ABS	0	0	3	3	24_3_3	NA	NA	0	1	2.42727208138	None	None	None	None	1
3.0.1	2019_Mar_04_1801	s	s	7	1	SIC	470	2_3	2	3	4	3	23_4_3	2	0	1	0	0.561098814011	61.0	286.0	63.0	281.0	1
3.0.1	2019_Mar_04_1801	s	s	7	1	SIC	471	2_4	2	4	2	1	23_2_1	0	3	1	0	0.822758197784	-507.0	-132.0	-498.0	-134.0	1
3.0.1	2019_Mar_04_1801	s	s	7	1	SIC	472	3_4	3	4	4	2	23_4_2	-1	2	1	0	0.497926950455	-259.0	-258.0	-260.0	-261.0	1
3.0.1	2019_Mar_04_1801	s	s	7	1	SIC	473	ABS	0	0	1	3	24_1_3	NA	NA	0	1	2.77501606941	None	None	None	None	1
3.0.1	2019_Mar_04_1801	s	s	7	1	SIC	474	ABS	0	0	1	3	24_1_3	NA	NA	0	1	3.65704584122	None	None	None	None	1
3.0.1	2019_Mar_04_1801	s	s	7	1	SIC	475	3_4	3	4	4	3	23_4_3	-1	1	1	0	0.599135875702	151.0	204.0	151.0	208.0	1
3.0.1	2019_Mar_04_1801	s	s	7	1	SIC	476	4_4	4	4	1	2	23_1_2	3	2	1	0	0.672613143921	239.0	91.0	240.0	98.0	1
3.0.1	2019_Mar_04_1801	s	s	7	1	SIC	477	ABS	0	0	2	3	24_2_3	NA	NA	0	1	3.09067106247	None	None	None	None	1
3.0.1	2019_Mar_04_1801	s	s	7	1	SIC	478	ABS	0	0	1	3	24_1_3	NA	NA	0	1	2.42733001709	None	None	None	None	1
3.0.1	2019_Mar_04_1801	s	s	7	1	SIC	479	ABS	0	0	2	1	24_2_1	NA	NA	0	1	4.92084717751	None	None	None	None	1
3.0.1	2019_Mar_04_1801	s	s	7	1	SIC	480	1_3	1	3	1	4	23_1_4	0	-1	1	0	1.16373515129	304.0	-377.0	302.0	-370.0	1
