Version	Date	Stimuli	Method	Subject	Session	Condition	Trial	Target	TColor	TShape	DColor	DShape	Distractors	Channel1	Channel2	LMouseButton	RMouseButton	RT	TargetX	TargetY	ResponseX	ResponseY	Correct
3.0.1	2019_Mar_05_1716	s	s	7	2	Capacity	1	2_1	2	1	3	1	23_3_1	1	0	1	0	0.863353013992	-30.0	-304.0	-26.0	-304.0	1
3.0.1	2019_Mar_05_1716	s	s	7	2	Capacity	2	ABS	0	0	2	1	24_2_1	NA	NA	0	1	1.16778802872	None	None	None	None	1
3.0.1	2019_Mar_05_1716	s	s	7	2	Capacity	3	3_1	3	1	4	1	23_4_1	-1	0	1	0	0.699018955231	-141.0	409.0	-138.0	404.0	1
3.0.1	2019_Mar_05_1716	s	s	7	2	Capacity	4	ABS	0	0	4	1	24_4_1	NA	NA	0	1	0.716757059097	None	None	None	None	1
3.0.1	2019_Mar_05_1716	s	s	7	2	Capacity	5	ABS	0	0	3	1	24_3_1	NA	NA	0	1	1.55653905869	None	None	None	None	1
3.0.1	2019_Mar_05_1716	s	s	7	2	Capacity	6	2_1	2	1	4	1	23_4_1	2	0	1	0	0.62767291069	-531.0	384.0	-537.0	379.0	1
3.0.1	2019_Mar_05_1716	s	s	7	2	Capacity	7	1_1	1	1	3	1	23_3_1	2	0	1	0	0.810904026031	294.0	-137.0	301.0	-132.0	1
3.0.1	2019_Mar_05_1716	s	s	7	2	Capacity	8	4_1	4	1	1	1	23_1_1	3	0	1	0	0.854710102081	-162.0	273.0	-162.0	266.0	1
3.0.1	2019_Mar_05_1716	s	s	7	2	Capacity	9	4_1	4	1	3	1	23_3_1	1	0	1	0	0.634382009506	531.0	229.0	534.0	223.0	1
3.0.1	2019_Mar_05_1716	s	s	7	2	Capacity	10	3_1	3	1	2	1	23_2_1	1	0	1	0	0.613808870316	84.0	91.0	82.0	85.0	1
3.0.1	2019_Mar_05_1716	s	s	7	2	Capacity	11	ABS	0	0	1	1	24_1_1	NA	NA	0	1	0.70948600769	None	None	None	None	1
3.0.1	2019_Mar_05_1716	s	s	7	2	Capacity	12	ABS	0	0	4	1	24_4_1	NA	NA	0	1	0.710891962051	None	None	None	None	1
3.0.1	2019_Mar_05_1716	s	s	7	2	Capacity	13	ABS	0	0	4	1	24_4_1	NA	NA	0	1	1.06298995018	None	None	None	None	1
3.0.1	2019_Mar_05_1716	s	s	7	2	Capacity	14	ABS	0	0	1	1	24_1_1	NA	NA	0	1	2.91609215736	None	None	None	None	1
3.0.1	2019_Mar_05_1716	s	s	7	2	Capacity	15	1_1	1	1	4	1	23_4_1	3	0	1	0	0.861153841019	456.0	-47.0	457.0	-44.0	1
3.0.1	2019_Mar_05_1716	s	s	7	2	Capacity	16	4_1	4	1	2	1	23_2_1	2	0	1	0	0.64112496376	-69.0	410.0	-66.0	402.0	1
3.0.1	2019_Mar_05_1716	s	s	7	2	Capacity	17	ABS	0	0	2	1	24_2_1	NA	NA	0	1	1.93990206718	None	None	None	None	1
3.0.1	2019_Mar_05_1716	s	s	7	2	Capacity	18	ABS	0	0	2	1	24_2_1	NA	NA	0	1	2.83671808243	None	None	None	None	1
3.0.1	2019_Mar_05_1716	s	s	7	2	Capacity	19	1_1	1	1	2	1	23_2_1	1	0	1	0	1.92153000832	410.0	351.0	400.0	357.0	1
3.0.1	2019_Mar_05_1716	s	s	7	2	Capacity	20	2_1	2	1	1	1	23_1_1	-1	0	1	0	4.32750701904	227.0	299.0	233.0	296.0	1
3.0.1	2019_Mar_05_1716	s	s	7	2	Capacity	21	3_1	3	1	1	1	23_1_1	2	0	1	0	0.940192937851	-263.0	210.0	-262.0	205.0	1
3.0.1	2019_Mar_05_1716	s	s	7	2	Capacity	22	ABS	0	0	3	1	24_3_1	NA	NA	0	1	2.86905288696	None	None	None	None	1
3.0.1	2019_Mar_05_1716	s	s	7	2	Capacity	23	ABS	0	0	1	1	24_1_1	NA	NA	0	1	4.25036501884	None	None	None	None	1
3.0.1	2019_Mar_05_1716	s	s	7	2	Capacity	24	ABS	0	0	3	1	24_3_1	NA	NA	0	1	2.87376594543	None	None	None	None	1
3.0.1	2019_Mar_05_1716	s	s	7	2	Capacity	25	ABS	0	0	1	1	24_1_1	NA	NA	0	1	4.19152402878	None	None	None	None	1
3.0.1	2019_Mar_05_1716	s	s	7	2	Capacity	26	ABS	0	0	2	1	24_2_1	NA	NA	0	1	4.47271800041	None	None	None	None	1
3.0.1	2019_Mar_05_1716	s	s	7	2	Capacity	27	ABS	0	0	1	1	24_1_1	NA	NA	0	1	2.28098607063	None	None	None	None	1
3.0.1	2019_Mar_05_1716	s	s	7	2	Capacity	28	ABS	0	0	4	1	24_4_1	NA	NA	0	1	3.05045819283	None	None	None	None	1
3.0.1	2019_Mar_05_1716	s	s	7	2	Capacity	29	4_1	4	1	2	1	23_2_1	2	0	1	0	0.709553003311	-124.0	-327.0	-114.0	-321.0	1
3.0.1	2019_Mar_05_1716	s	s	7	2	Capacity	30	4_1	4	1	3	1	23_3_1	1	0	1	0	0.74023604393	297.0	237.0	296.0	237.0	1
3.0.1	2019_Mar_05_1716	s	s	7	2	Capacity	31	ABS	0	0	4	1	24_4_1	NA	NA	0	1	1.39886188507	None	None	None	None	1
3.0.1	2019_Mar_05_1716	s	s	7	2	Capacity	32	ABS	0	0	3	1	24_3_1	NA	NA	0	1	1.37542295456	None	None	None	None	1
3.0.1	2019_Mar_05_1716	s	s	7	2	Capacity	33	ABS	0	0	3	1	24_3_1	NA	NA	0	1	2.03729200363	None	None	None	None	1
3.0.1	2019_Mar_05_1716	s	s	7	2	Capacity	34	3_1	3	1	2	1	23_2_1	1	0	1	0	0.928495883942	-525.0	238.0	-517.0	238.0	1
3.0.1	2019_Mar_05_1716	s	s	7	2	Capacity	35	ABS	0	0	1	1	24_1_1	NA	NA	0	1	4.09219908714	None	None	None	None	1
3.0.1	2019_Mar_05_1716	s	s	7	2	Capacity	36	ABS	0	0	3	1	24_3_1	NA	NA	0	1	2.37797904015	None	None	None	None	1
3.0.1	2019_Mar_05_1716	s	s	7	2	Capacity	37	1_1	1	1	3	1	23_3_1	2	0	1	0	0.660835027695	-477.0	96.0	-470.0	96.0	1
3.0.1	2019_Mar_05_1716	s	s	7	2	Capacity	38	2_1	2	1	4	1	23_4_1	2	0	1	0	0.603928804398	141.0	6.0	142.0	-1.0	1
3.0.1	2019_Mar_05_1716	s	s	7	2	Capacity	39	ABS	0	0	2	1	24_2_1	NA	NA	0	1	2.91613101959	None	None	None	None	1
3.0.1	2019_Mar_05_1716	s	s	7	2	Capacity	40	ABS	0	0	4	1	24_4_1	NA	NA	0	1	1.45090699196	None	None	None	None	1
3.0.1	2019_Mar_05_1716	s	s	7	2	Capacity	41	3_1	3	1	1	1	23_1_1	2	0	1	0	1.37830591202	468.0	201.0	460.0	197.0	1
3.0.1	2019_Mar_05_1716	s	s	7	2	Capacity	42	1_1	1	1	2	1	23_2_1	1	0	1	0	1.26704597473	44.0	-105.0	38.0	-105.0	1
3.0.1	2019_Mar_05_1716	s	s	7	2	Capacity	43	3_1	3	1	4	1	23_4_1	-1	0	1	0	1.31947207451	135.0	206.0	142.0	202.0	1
3.0.1	2019_Mar_05_1716	s	s	7	2	Capacity	44	4_1	4	1	1	1	23_1_1	3	0	1	0	0.768929004669	-75.0	-186.0	-72.0	-198.0	1
3.0.1	2019_Mar_05_1716	s	s	7	2	Capacity	45	2_1	2	1	1	1	23_1_1	-1	0	1	0	4.6371319294	415.0	381.0	413.0	384.0	1
3.0.1	2019_Mar_05_1716	s	s	7	2	Capacity	46	2_1	2	1	3	1	23_3_1	1	0	1	0	0.745690822601	-56.0	-24.0	-54.0	-27.0	1
3.0.1	2019_Mar_05_1716	s	s	7	2	Capacity	47	1_1	1	1	4	1	23_4_1	3	0	1	0	0.516806840897	153.0	-74.0	149.0	-65.0	1
3.0.1	2019_Mar_05_1716	s	s	7	2	Capacity	48	ABS	0	0	2	1	24_2_1	NA	NA	0	1	6.20608592033	None	None	None	None	1
3.0.1	2019_Mar_05_1716	s	s	7	2	Capacity	49	ABS	0	0	4	1	24_4_1	NA	NA	0	1	0.810835838318	None	None	None	None	1
3.0.1	2019_Mar_05_1716	s	s	7	2	Capacity	50	ABS	0	0	2	1	24_2_1	NA	NA	0	1	3.8854970932	None	None	None	None	1
3.0.1	2019_Mar_05_1716	s	s	7	2	Capacity	51	2_1	2	1	3	1	23_3_1	1	0	1	0	0.763814926147	257.0	-183.0	248.0	-175.0	1
3.0.1	2019_Mar_05_1716	s	s	7	2	Capacity	52	3_1	3	1	1	1	23_1_1	2	0	1	0	1.08429217339	-201.0	-135.0	-190.0	-135.0	1
3.0.1	2019_Mar_05_1716	s	s	7	2	Capacity	53	4_1	4	1	2	1	23_2_1	2	0	1	0	0.716768026352	177.0	318.0	177.0	315.0	1
3.0.1	2019_Mar_05_1716	s	s	7	2	Capacity	54	4_1	4	1	1	1	23_1_1	3	0	1	0	0.592101812363	-309.0	-108.0	-306.0	-113.0	1
3.0.1	2019_Mar_05_1716	s	s	7	2	Capacity	55	1_1	1	1	4	1	23_4_1	3	0	1	0	0.533706903458	-84.0	364.0	-82.0	367.0	1
3.0.1	2019_Mar_05_1716	s	s	7	2	Capacity	56	ABS	0	0	4	1	24_4_1	NA	NA	0	1	0.731440067291	None	None	None	None	1
3.0.1	2019_Mar_05_1716	s	s	7	2	Capacity	57	ABS	0	0	3	1	24_3_1	NA	NA	0	1	1.92815113068	None	None	None	None	1
3.0.1	2019_Mar_05_1716	s	s	7	2	Capacity	58	1_1	1	1	3	1	23_3_1	2	0	1	0	0.634464979172	-110.0	-31.0	-106.0	-22.0	1
3.0.1	2019_Mar_05_1716	s	s	7	2	Capacity	59	ABS	0	0	1	1	24_1_1	NA	NA	0	1	3.41447901726	None	None	None	None	1
3.0.1	2019_Mar_05_1716	s	s	7	2	Capacity	60	3_1	3	1	2	1	23_2_1	1	0	1	0	0.768034934998	-375.0	-78.0	-369.0	-81.0	1
3.0.1	2019_Mar_05_1716	s	s	7	2	Capacity	61	ABS	0	0	1	1	24_1_1	NA	NA	0	1	4.43781900406	None	None	None	None	1
3.0.1	2019_Mar_05_1716	s	s	7	2	Capacity	62	ABS	0	0	4	1	24_4_1	NA	NA	0	1	1.06964683533	None	None	None	None	1
3.0.1	2019_Mar_05_1716	s	s	7	2	Capacity	63	1_1	1	1	2	1	23_2_1	1	0	1	0	6.34446597099	-527.0	125.0	-523.0	121.0	1
3.0.1	2019_Mar_05_1716	s	s	7	2	Capacity	64	ABS	0	0	2	1	24_2_1	NA	NA	0	1	4.96541404724	None	None	None	None	1
3.0.1	2019_Mar_05_1716	s	s	7	2	Capacity	65	3_1	3	1	4	1	23_4_1	-1	0	1	0	0.933964967728	188.0	-7.0	186.0	-9.0	1
3.0.1	2019_Mar_05_1716	s	s	7	2	Capacity	66	ABS	0	0	2	1	24_2_1	NA	NA	0	1	8.08778882027	None	None	None	None	1
3.0.1	2019_Mar_05_1716	s	s	7	2	Capacity	67	4_1	4	1	3	1	23_3_1	1	0	1	0	0.657929897308	-78.0	-329.0	-69.0	-331.0	1
3.0.1	2019_Mar_05_1716	s	s	7	2	Capacity	68	2_1	2	1	4	1	23_4_1	2	0	1	0	0.704989910126	69.0	197.0	60.0	201.0	1
3.0.1	2019_Mar_05_1716	s	s	7	2	Capacity	69	2_1	2	1	1	1	23_1_1	-1	0	1	0	5.43585896492	317.0	-173.0	312.0	-170.0	1
3.0.1	2019_Mar_05_1716	s	s	7	2	Capacity	70	ABS	0	0	1	1	24_1_1	NA	NA	0	1	3.13275384903	None	None	None	None	1
3.0.1	2019_Mar_05_1716	s	s	7	2	Capacity	71	ABS	0	0	3	1	24_3_1	NA	NA	0	1	2.60570192337	None	None	None	None	1
3.0.1	2019_Mar_05_1716	s	s	7	2	Capacity	72	ABS	0	0	3	1	24_3_1	NA	NA	0	1	2.045773983	None	None	None	None	1
3.0.1	2019_Mar_05_1716	s	s	7	2	Capacity	73	2_1	2	1	1	1	23_1_1	-1	0	1	0	6.06814193726	14.0	-139.0	19.0	-146.0	1
3.0.1	2019_Mar_05_1716	s	s	7	2	Capacity	74	4_1	4	1	3	1	23_3_1	1	0	1	0	0.790184020996	171.0	-238.0	167.0	-245.0	1
3.0.1	2019_Mar_05_1716	s	s	7	2	Capacity	75	ABS	0	0	1	1	24_1_1	NA	NA	0	1	5.12009119987	None	None	None	None	1
3.0.1	2019_Mar_05_1716	s	s	7	2	Capacity	76	ABS	0	0	1	1	24_1_1	NA	NA	0	1	4.33217000961	None	None	None	None	1
3.0.1	2019_Mar_05_1716	s	s	7	2	Capacity	77	1_1	1	1	3	1	23_3_1	2	0	1	0	0.721315860748	331.0	-197.0	328.0	-197.0	1
3.0.1	2019_Mar_05_1716	s	s	7	2	Capacity	78	4_1	4	1	2	1	23_2_1	2	0	1	0	0.604094982147	-151.0	-220.0	-146.0	-228.0	1
3.0.1	2019_Mar_05_1716	s	s	7	2	Capacity	79	ABS	0	0	2	1	24_2_1	NA	NA	0	1	3.43809199333	None	None	None	None	1
3.0.1	2019_Mar_05_1716	s	s	7	2	Capacity	80	ABS	0	0	4	1	24_4_1	NA	NA	0	1	0.90797996521	None	None	None	None	1
3.0.1	2019_Mar_05_1716	s	s	7	2	Capacity	81	ABS	0	0	3	1	24_3_1	NA	NA	0	1	1.49353718758	None	None	None	None	1
3.0.1	2019_Mar_05_1716	s	s	7	2	Capacity	82	3_1	3	1	2	1	23_2_1	1	0	1	0	0.869615077972	12.0	37.0	8.0	35.0	1
3.0.1	2019_Mar_05_1716	s	s	7	2	Capacity	83	3_1	3	1	4	1	23_4_1	-1	0	1	0	0.634407997131	-143.0	99.0	-140.0	99.0	1
3.0.1	2019_Mar_05_1716	s	s	7	2	Capacity	84	ABS	0	0	3	1	24_3_1	NA	NA	0	1	3.33947682381	None	None	None	None	1
3.0.1	2019_Mar_05_1716	s	s	7	2	Capacity	85	ABS	0	0	4	1	24_4_1	NA	NA	0	1	0.678183078766	None	None	None	None	1
3.0.1	2019_Mar_05_1716	s	s	7	2	Capacity	86	ABS	0	0	3	1	24_3_1	NA	NA	0	1	2.99208402634	None	None	None	None	1
3.0.1	2019_Mar_05_1716	s	s	7	2	Capacity	87	1_1	1	1	4	1	23_4_1	3	0	1	0	0.587410926819	-359.0	116.0	-359.0	106.0	1
3.0.1	2019_Mar_05_1716	s	s	7	2	Capacity	88	ABS	0	0	2	1	24_2_1	NA	NA	0	1	7.64429998398	None	None	None	None	1
3.0.1	2019_Mar_05_1716	s	s	7	2	Capacity	89	2_1	2	1	4	1	23_4_1	2	0	1	0	0.693211078644	38.0	139.0	42.0	138.0	1
3.0.1	2019_Mar_05_1716	s	s	7	2	Capacity	90	ABS	0	0	4	1	24_4_1	NA	NA	0	1	1.5168261528	None	None	None	None	1
3.0.1	2019_Mar_05_1716	s	s	7	2	Capacity	91	2_1	2	1	3	1	23_3_1	1	0	1	0	1.35193991661	457.0	48.0	452.0	45.0	1
3.0.1	2019_Mar_05_1716	s	s	7	2	Capacity	92	1_1	1	1	2	1	23_2_1	1	0	1	0	7.58525705338	409.0	-314.0	411.0	-307.0	1
3.0.1	2019_Mar_05_1716	s	s	7	2	Capacity	93	ABS	0	0	1	1	24_1_1	NA	NA	0	1	4.25974917412	None	None	None	None	1
3.0.1	2019_Mar_05_1716	s	s	7	2	Capacity	94	4_1	4	1	1	1	23_1_1	3	0	1	0	0.763744831085	527.0	274.0	519.0	280.0	1
3.0.1	2019_Mar_05_1716	s	s	7	2	Capacity	95	3_1	3	1	1	1	23_1_1	2	0	1	0	0.637706041336	-277.0	220.0	-272.0	216.0	1
3.0.1	2019_Mar_05_1716	s	s	7	2	Capacity	96	ABS	0	0	2	1	24_2_1	NA	NA	0	1	6.42558097839	None	None	None	None	1
3.0.1	2019_Mar_05_1716	s	s	7	2	Capacity	1	ABS	0	0	1	1	24_1_1	NA	NA	0	1	3.02492499352	None	None	None	None	1
3.0.1	2019_Mar_05_1716	s	s	7	2	Capacity	2	1_4	1	4	1	2	23_1_2	0	2	1	0	0.979884147644	-481.0	105.0	-488.0	99.0	1
3.0.1	2019_Mar_05_1716	s	s	7	2	Capacity	3	1_1	1	1	1	4	23_1_4	0	3	1	0	0.752030849457	-114.0	-126.0	-110.0	-130.0	1
3.0.1	2019_Mar_05_1716	s	s	7	2	Capacity	4	ABS	0	0	1	2	24_1_2	NA	NA	0	1	5.38294100761	None	None	None	None	1
3.0.1	2019_Mar_05_1716	s	s	7	2	Capacity	5	1_2	1	2	1	3	23_1_3	0	1	1	0	1.1470580101	213.0	324.0	207.0	315.0	1
3.0.1	2019_Mar_05_1716	s	s	7	2	Capacity	6	1_2	1	2	1	1	23_1_1	0	-1	1	0	1.61359596252	-210.0	325.0	-210.0	320.0	1
3.0.1	2019_Mar_05_1716	s	s	7	2	Capacity	7	1_1	1	1	1	2	23_1_2	0	1	1	0	1.69297599792	-398.0	-175.0	-396.0	-179.0	1
3.0.1	2019_Mar_05_1716	s	s	7	2	Capacity	8	ABS	0	0	1	3	24_1_3	NA	NA	0	1	4.31034708023	None	None	None	None	1
3.0.1	2019_Mar_05_1716	s	s	7	2	Capacity	9	1_4	1	4	1	3	23_1_3	0	1	1	0	3.54773712158	525.0	-337.0	529.0	-341.0	1
3.0.1	2019_Mar_05_1716	s	s	7	2	Capacity	10	ABS	0	0	1	4	24_1_4	NA	NA	0	1	1.46197986603	None	None	None	None	1
3.0.1	2019_Mar_05_1716	s	s	7	2	Capacity	11	ABS	0	0	1	1	24_1_1	NA	NA	0	1	4.57480382919	None	None	None	None	1
3.0.1	2019_Mar_05_1716	s	s	7	2	Capacity	12	ABS	0	0	1	2	24_1_2	NA	NA	0	1	5.28008508682	None	None	None	None	1
3.0.1	2019_Mar_05_1716	s	s	7	2	Capacity	13	1_4	1	4	1	1	23_1_1	0	3	1	0	0.893165111542	140.0	77.0	138.0	78.0	1
3.0.1	2019_Mar_05_1716	s	s	7	2	Capacity	14	ABS	0	0	1	4	24_1_4	NA	NA	0	1	1.95170402527	None	None	None	None	1
3.0.1	2019_Mar_05_1716	s	s	7	2	Capacity	15	1_2	1	2	1	4	23_1_4	0	2	1	0	0.697693109512	-21.0	388.0	-16.0	378.0	1
3.0.1	2019_Mar_05_1716	s	s	7	2	Capacity	16	1_3	1	3	1	1	23_1_1	0	2	1	0	2.95135498047	60.0	-281.0	57.0	-283.0	1
3.0.1	2019_Mar_05_1716	s	s	7	2	Capacity	17	ABS	0	0	1	3	24_1_3	NA	NA	0	1	6.10330986977	None	None	None	None	1
3.0.1	2019_Mar_05_1716	s	s	7	2	Capacity	18	1_3	1	3	1	2	23_1_2	0	1	1	0	1.79876184464	302.0	181.0	305.0	177.0	1
3.0.1	2019_Mar_05_1716	s	s	7	2	Capacity	19	ABS	0	0	1	4	24_1_4	NA	NA	0	1	1.8105609417	None	None	None	None	1
3.0.1	2019_Mar_05_1716	s	s	7	2	Capacity	20	1_3	1	3	1	4	23_1_4	0	-1	1	0	0.664569854736	-447.0	62.0	-444.0	58.0	1
3.0.1	2019_Mar_05_1716	s	s	7	2	Capacity	21	ABS	0	0	1	2	24_1_2	NA	NA	0	1	6.60062789917	None	None	None	None	1
3.0.1	2019_Mar_05_1716	s	s	7	2	Capacity	22	ABS	0	0	1	1	24_1_1	NA	NA	0	1	4.1513941288	None	None	None	None	1
3.0.1	2019_Mar_05_1716	s	s	7	2	Capacity	23	ABS	0	0	1	3	24_1_3	NA	NA	0	1	4.75579810143	None	None	None	None	1
3.0.1	2019_Mar_05_1716	s	s	7	2	Capacity	24	1_1	1	1	1	3	23_1_3	0	2	1	0	5.1036939621	488.0	-411.0	485.0	-418.0	1
3.0.1	2019_Mar_05_1716	s	s	7	2	Capacity	25	1_4	1	4	1	2	23_1_2	0	2	1	0	0.849008083344	-385.0	-314.0	-390.0	-310.0	1
3.0.1	2019_Mar_05_1716	s	s	7	2	Capacity	26	1_3	1	3	1	4	23_1_4	0	-1	1	0	0.640518903732	-94.0	199.0	-90.0	196.0	1
3.0.1	2019_Mar_05_1716	s	s	7	2	Capacity	27	ABS	0	0	1	4	24_1_4	NA	NA	0	1	1.62233495712	None	None	None	None	1
3.0.1	2019_Mar_05_1716	s	s	7	2	Capacity	28	ABS	0	0	1	1	24_1_1	NA	NA	0	1	2.94248199463	None	None	None	None	1
3.0.1	2019_Mar_05_1716	s	s	7	2	Capacity	29	ABS	0	0	1	4	24_1_4	NA	NA	0	1	0.757176876068	None	None	None	None	1
3.0.1	2019_Mar_05_1716	s	s	7	2	Capacity	30	1_3	1	3	1	2	23_1_2	0	1	0	1	5.25362086296	140.0	-287.0	None	None	0
3.0.1	2019_Mar_05_1716	s	s	7	2	Capacity	31	ABS	0	0	1	1	24_1_1	NA	NA	0	1	5.0918738842	None	None	None	None	1
3.0.1	2019_Mar_05_1716	s	s	7	2	Capacity	32	ABS	0	0	1	3	24_1_3	NA	NA	0	1	4.03338384628	None	None	None	None	1
3.0.1	2019_Mar_05_1716	s	s	7	2	Capacity	33	1_2	1	2	1	1	23_1_1	0	-1	1	0	2.25233507156	227.0	340.0	220.0	338.0	1
3.0.1	2019_Mar_05_1716	s	s	7	2	Capacity	34	1_1	1	1	1	4	23_1_4	0	3	1	0	0.79490685463	264.0	-266.0	265.0	-257.0	1
3.0.1	2019_Mar_05_1716	s	s	7	2	Capacity	35	1_1	1	1	1	3	23_1_3	0	2	1	0	1.06958889961	-396.0	110.0	-404.0	105.0	1
3.0.1	2019_Mar_05_1716	s	s	7	2	Capacity	36	ABS	0	0	1	2	24_1_2	NA	NA	0	1	5.56844115257	None	None	None	None	1
3.0.1	2019_Mar_05_1716	s	s	7	2	Capacity	37	1_3	1	3	1	1	23_1_1	0	2	1	0	1.75440502167	364.0	-302.0	370.0	-299.0	1
3.0.1	2019_Mar_05_1716	s	s	7	2	Capacity	38	ABS	0	0	1	3	24_1_3	NA	NA	0	1	3.9797949791	None	None	None	None	1
3.0.1	2019_Mar_05_1716	s	s	7	2	Capacity	39	1_4	1	4	1	3	23_1_3	0	1	1	0	0.62307882309	91.0	137.0	90.0	126.0	1
3.0.1	2019_Mar_05_1716	s	s	7	2	Capacity	40	1_2	1	2	1	3	23_1_3	0	1	1	0	2.233959198	243.0	-155.0	241.0	-170.0	1
3.0.1	2019_Mar_05_1716	s	s	7	2	Capacity	41	1_2	1	2	1	4	23_1_4	0	2	1	0	0.763793945312	142.0	226.0	137.0	221.0	1
3.0.1	2019_Mar_05_1716	s	s	7	2	Capacity	42	ABS	0	0	1	4	24_1_4	NA	NA	0	1	1.76821088791	None	None	None	None	1
3.0.1	2019_Mar_05_1716	s	s	7	2	Capacity	43	ABS	0	0	1	1	24_1_1	NA	NA	0	1	4.57444381714	None	None	None	None	1
3.0.1	2019_Mar_05_1716	s	s	7	2	Capacity	44	ABS	0	0	1	2	24_1_2	NA	NA	0	1	6.49154090881	None	None	None	None	1
3.0.1	2019_Mar_05_1716	s	s	7	2	Capacity	45	ABS	0	0	1	3	24_1_3	NA	NA	0	1	4.54205918312	None	None	None	None	1
3.0.1	2019_Mar_05_1716	s	s	7	2	Capacity	46	1_1	1	1	1	2	23_1_2	0	1	1	0	1.9281411171	528.0	127.0	531.0	125.0	1
3.0.1	2019_Mar_05_1716	s	s	7	2	Capacity	47	1_4	1	4	1	1	23_1_1	0	3	1	0	1.16743183136	264.0	-402.0	260.0	-398.0	1
3.0.1	2019_Mar_05_1716	s	s	7	2	Capacity	48	ABS	0	0	1	2	24_1_2	NA	NA	0	1	6.23682713509	None	None	None	None	1
3.0.1	2019_Mar_05_1716	s	s	7	2	Capacity	49	ABS	0	0	1	4	24_1_4	NA	NA	0	1	1.78999400139	None	None	None	None	1
3.0.1	2019_Mar_05_1716	s	s	7	2	Capacity	50	ABS	0	0	1	1	24_1_1	NA	NA	0	1	3.92751193047	None	None	None	None	1
3.0.1	2019_Mar_05_1716	s	s	7	2	Capacity	51	ABS	0	0	1	4	24_1_4	NA	NA	0	1	0.834473133087	None	None	None	None	1
3.0.1	2019_Mar_05_1716	s	s	7	2	Capacity	52	ABS	0	0	1	3	24_1_3	NA	NA	0	1	4.47884082794	None	None	None	None	1
3.0.1	2019_Mar_05_1716	s	s	7	2	Capacity	53	ABS	0	0	1	3	24_1_3	NA	NA	0	1	3.76286792755	None	None	None	None	1
3.0.1	2019_Mar_05_1716	s	s	7	2	Capacity	54	1_3	1	3	1	2	23_1_2	0	1	1	0	1.74606800079	348.0	179.0	346.0	173.0	1
3.0.1	2019_Mar_05_1716	s	s	7	2	Capacity	55	1_1	1	1	1	3	23_1_3	0	2	1	0	3.0968580246	-141.0	-316.0	-149.0	-322.0	1
3.0.1	2019_Mar_05_1716	s	s	7	2	Capacity	56	1_3	1	3	1	4	23_1_4	0	-1	1	0	0.658025026321	-127.0	-122.0	-125.0	-124.0	1
3.0.1	2019_Mar_05_1716	s	s	7	2	Capacity	57	ABS	0	0	1	2	24_1_2	NA	NA	0	1	8.85295200348	None	None	None	None	1
3.0.1	2019_Mar_05_1716	s	s	7	2	Capacity	58	ABS	0	0	1	2	24_1_2	NA	NA	0	1	5.43591189384	None	None	None	None	1
3.0.1	2019_Mar_05_1716	s	s	7	2	Capacity	59	1_1	1	1	1	2	23_1_2	0	1	1	0	3.66877913475	-455.0	-25.0	-462.0	-27.0	1
3.0.1	2019_Mar_05_1716	s	s	7	2	Capacity	60	ABS	0	0	1	4	24_1_4	NA	NA	0	1	1.65284609795	None	None	None	None	1
3.0.1	2019_Mar_05_1716	s	s	7	2	Capacity	61	ABS	0	0	1	1	24_1_1	NA	NA	0	1	5.25947403908	None	None	None	None	1
3.0.1	2019_Mar_05_1716	s	s	7	2	Capacity	62	1_4	1	4	1	2	23_1_2	0	2	1	0	0.663323163986	270.0	-15.0	-120.0	14.0	0
3.0.1	2019_Mar_05_1716	s	s	7	2	Capacity	63	1_4	1	4	1	3	23_1_3	0	1	1	0	3.25181889534	-7.0	284.0	1.0	280.0	1
3.0.1	2019_Mar_05_1716	s	s	7	2	Capacity	64	1_2	1	2	1	4	23_1_4	0	2	1	0	0.834383964539	431.0	401.0	429.0	398.0	1
3.0.1	2019_Mar_05_1716	s	s	7	2	Capacity	65	1_1	1	1	1	4	23_1_4	0	3	1	0	0.696212053299	199.0	266.0	201.0	276.0	1
3.0.1	2019_Mar_05_1716	s	s	7	2	Capacity	66	1_2	1	2	1	1	23_1_1	0	-1	1	0	2.26133608818	-196.0	-266.0	-201.0	-270.0	1
3.0.1	2019_Mar_05_1716	s	s	7	2	Capacity	67	1_4	1	4	1	1	23_1_1	0	3	1	0	0.705025911331	-337.0	257.0	-336.0	255.0	1
3.0.1	2019_Mar_05_1716	s	s	7	2	Capacity	68	1_3	1	3	1	1	23_1_1	0	2	1	0	0.733449935913	-379.0	-94.0	-378.0	-97.0	1
3.0.1	2019_Mar_05_1716	s	s	7	2	Capacity	69	ABS	0	0	1	1	24_1_1	NA	NA	0	1	3.86214184761	None	None	None	None	1
3.0.1	2019_Mar_05_1716	s	s	7	2	Capacity	70	ABS	0	0	1	3	24_1_3	NA	NA	0	1	3.65048193932	None	None	None	None	1
3.0.1	2019_Mar_05_1716	s	s	7	2	Capacity	71	1_2	1	2	1	3	23_1_3	0	1	1	0	1.63403606415	200.0	86.0	209.0	82.0	1
3.0.1	2019_Mar_05_1716	s	s	7	2	Capacity	72	ABS	0	0	1	2	24_1_2	NA	NA	0	1	6.08270597458	None	None	None	None	1
3.0.1	2019_Mar_05_1716	s	s	7	2	Capacity	73	1_2	1	2	1	1	23_1_1	0	-1	1	0	1.56723713875	22.0	321.0	32.0	321.0	1
3.0.1	2019_Mar_05_1716	s	s	7	2	Capacity	74	ABS	0	0	1	4	24_1_4	NA	NA	0	1	1.48129415512	None	None	None	None	1
3.0.1	2019_Mar_05_1716	s	s	7	2	Capacity	75	1_4	1	4	1	3	23_1_3	0	1	1	0	1.19388103485	460.0	-112.0	467.0	-108.0	1
3.0.1	2019_Mar_05_1716	s	s	7	2	Capacity	76	1_2	1	2	1	3	23_1_3	0	1	1	0	1.96807098389	436.0	141.0	439.0	148.0	1
3.0.1	2019_Mar_05_1716	s	s	7	2	Capacity	77	1_3	1	3	1	2	23_1_2	0	1	1	0	1.99875092506	-250.0	-184.0	-255.0	-178.0	1
3.0.1	2019_Mar_05_1716	s	s	7	2	Capacity	78	ABS	0	0	1	4	24_1_4	NA	NA	0	1	0.96665596962	None	None	None	None	1
3.0.1	2019_Mar_05_1716	s	s	7	2	Capacity	79	ABS	0	0	1	1	24_1_1	NA	NA	0	1	4.6332089901	None	None	None	None	1
3.0.1	2019_Mar_05_1716	s	s	7	2	Capacity	80	ABS	0	0	1	2	24_1_2	NA	NA	0	1	8.55256199837	None	None	None	None	1
3.0.1	2019_Mar_05_1716	s	s	7	2	Capacity	81	1_4	1	4	1	2	23_1_2	0	2	1	0	0.693238019943	-211.0	-141.0	-211.0	-149.0	1
3.0.1	2019_Mar_05_1716	s	s	7	2	Capacity	82	ABS	0	0	1	1	24_1_1	NA	NA	0	1	4.69199514389	None	None	None	None	1
3.0.1	2019_Mar_05_1716	s	s	7	2	Capacity	83	1_4	1	4	1	1	23_1_1	0	3	1	0	0.752028942108	289.0	-247.0	288.0	-253.0	1
3.0.1	2019_Mar_05_1716	s	s	7	2	Capacity	84	1_2	1	2	1	4	23_1_4	0	2	1	0	0.560461044312	-200.0	-42.0	-200.0	-38.0	1
3.0.1	2019_Mar_05_1716	s	s	7	2	Capacity	85	1_3	1	3	1	1	23_1_1	0	2	1	0	0.474715948105	-282.0	-223.0	-281.0	-225.0	1
3.0.1	2019_Mar_05_1716	s	s	7	2	Capacity	86	ABS	0	0	1	3	24_1_3	NA	NA	0	1	3.06900000572	None	None	None	None	1
3.0.1	2019_Mar_05_1716	s	s	7	2	Capacity	87	ABS	0	0	1	1	24_1_1	NA	NA	0	1	2.25746798515	None	None	None	None	1
3.0.1	2019_Mar_05_1716	s	s	7	2	Capacity	88	1_1	1	1	1	3	23_1_3	0	2	1	0	0.745181083679	-111.0	-63.0	-100.0	-58.0	1
3.0.1	2019_Mar_05_1716	s	s	7	2	Capacity	89	ABS	0	0	1	4	24_1_4	NA	NA	0	1	1.45277905464	None	None	None	None	1
3.0.1	2019_Mar_05_1716	s	s	7	2	Capacity	90	1_3	1	3	1	4	23_1_4	0	-1	1	0	0.893282175064	-92.0	-332.0	-90.0	-333.0	1
3.0.1	2019_Mar_05_1716	s	s	7	2	Capacity	91	ABS	0	0	1	2	24_1_2	NA	NA	0	1	5.91306591034	None	None	None	None	1
3.0.1	2019_Mar_05_1716	s	s	7	2	Capacity	92	ABS	0	0	1	3	24_1_3	NA	NA	0	1	3.74346494675	None	None	None	None	1
3.0.1	2019_Mar_05_1716	s	s	7	2	Capacity	93	ABS	0	0	1	2	24_1_2	NA	NA	0	1	5.44986200333	None	None	None	None	1
3.0.1	2019_Mar_05_1716	s	s	7	2	Capacity	94	1_1	1	1	1	2	23_1_2	0	1	1	0	4.79789805412	258.0	-307.0	252.0	-308.0	1
3.0.1	2019_Mar_05_1716	s	s	7	2	Capacity	95	1_1	1	1	1	4	23_1_4	0	3	1	0	0.733763933182	-490.0	268.0	-489.0	268.0	1
3.0.1	2019_Mar_05_1716	s	s	7	2	Capacity	96	ABS	0	0	1	3	24_1_3	NA	NA	0	1	3.20125603676	None	None	None	None	1
3.0.1	2019_Mar_05_1716	s	s	7	2	SIC	1	2_3	2	3	4	2	23_4_2	2	1	1	0	0.587767124176	324.0	73.0	329.0	64.0	1
3.0.1	2019_Mar_05_1716	s	s	7	2	SIC	2	2_2	2	2	2	1	23_2_1	0	-1	1	0	6.22091412544	-57.0	-311.0	-53.0	-316.0	1
3.0.1	2019_Mar_05_1716	s	s	7	2	SIC	3	4_1	4	1	2	2	23_2_2	2	1	1	0	0.599088191986	-146.0	190.0	-135.0	198.0	1
3.0.1	2019_Mar_05_1716	s	s	7	2	SIC	4	4_2	4	2	4	1	23_4_1	0	-1	0	1	3.65705990791	455.0	280.0	None	None	0
3.0.1	2019_Mar_05_1716	s	s	7	2	SIC	5	1_4	1	4	4	4	23_4_4	3	0	1	0	0.552535057068	-143.0	347.0	-142.0	348.0	1
3.0.1	2019_Mar_05_1716	s	s	7	2	SIC	6	ABS	0	0	4	1	24_4_1	NA	NA	0	1	3.10430598259	None	None	None	None	1
3.0.1	2019_Mar_05_1716	s	s	7	2	SIC	7	ABS	0	0	4	4	24_4_4	NA	NA	0	1	2.10453510284	None	None	None	None	1
3.0.1	2019_Mar_05_1716	s	s	7	2	SIC	8	3_1	3	1	2	3	23_2_3	1	2	1	0	0.592587947845	-218.0	209.0	-216.0	208.0	1
3.0.1	2019_Mar_05_1716	s	s	7	2	SIC	9	2_2	2	2	4	4	23_4_4	2	2	1	0	0.602170944214	253.0	-325.0	258.0	-336.0	1
3.0.1	2019_Mar_05_1716	s	s	7	2	SIC	10	ABS	0	0	3	3	24_3_3	NA	NA	0	1	2.75146698952	None	None	None	None	1
3.0.1	2019_Mar_05_1716	s	s	7	2	SIC	11	4_4	4	4	2	2	23_2_2	2	2	1	0	0.416633844376	-339.0	308.0	-339.0	306.0	1
3.0.1	2019_Mar_05_1716	s	s	7	2	SIC	12	1_1	1	1	1	4	23_1_4	0	3	1	0	0.496238946915	-523.0	157.0	-531.0	152.0	1
3.0.1	2019_Mar_05_1716	s	s	7	2	SIC	13	4_4	4	4	1	1	23_1_1	3	3	1	0	0.382667064667	-240.0	103.0	-233.0	97.0	1
3.0.1	2019_Mar_05_1716	s	s	7	2	SIC	14	ABS	0	0	1	1	24_1_1	NA	NA	0	1	5.60337090492	None	None	None	None	1
3.0.1	2019_Mar_05_1716	s	s	7	2	SIC	15	ABS	0	0	1	3	24_1_3	NA	NA	0	1	3.3304400444	None	None	None	None	1
3.0.1	2019_Mar_05_1716	s	s	7	2	SIC	16	3_2	3	2	4	2	23_4_2	-1	0	1	0	0.516782045364	-234.0	61.0	-231.0	63.0	1
3.0.1	2019_Mar_05_1716	s	s	7	2	SIC	17	ABS	0	0	3	4	24_3_4	NA	NA	0	1	1.59887504578	None	None	None	None	1
3.0.1	2019_Mar_05_1716	s	s	7	2	SIC	18	3_4	3	4	2	2	23_2_2	1	2	1	0	0.604952812195	494.0	138.0	491.0	133.0	1
3.0.1	2019_Mar_05_1716	s	s	7	2	SIC	19	ABS	0	0	3	4	24_3_4	NA	NA	0	1	0.810894012451	None	None	None	None	1
3.0.1	2019_Mar_05_1716	s	s	7	2	SIC	20	2_4	2	4	3	4	23_3_4	1	0	1	0	1.24609589577	511.0	22.0	518.0	25.0	1
3.0.1	2019_Mar_05_1716	s	s	7	2	SIC	21	ABS	0	0	3	1	24_3_1	NA	NA	0	1	3.92752194405	None	None	None	None	1
3.0.1	2019_Mar_05_1716	s	s	7	2	SIC	22	ABS	0	0	4	3	24_4_3	NA	NA	0	1	3.83348202705	None	None	None	None	1
3.0.1	2019_Mar_05_1716	s	s	7	2	SIC	23	ABS	0	0	1	4	24_1_4	NA	NA	0	1	3.08366703987	None	None	None	None	1
3.0.1	2019_Mar_05_1716	s	s	7	2	SIC	24	2_1	2	1	4	4	23_4_4	2	3	1	0	0.555006027222	-346.0	-47.0	-340.0	-49.0	1
3.0.1	2019_Mar_05_1716	s	s	7	2	SIC	25	3_2	3	2	1	3	23_1_3	2	1	1	0	0.528599023819	-495.0	-217.0	-491.0	-221.0	1
3.0.1	2019_Mar_05_1716	s	s	7	2	SIC	26	ABS	0	0	2	3	24_2_3	NA	NA	0	1	3.84811496735	None	None	None	None	1
3.0.1	2019_Mar_05_1716	s	s	7	2	SIC	27	ABS	0	0	1	4	24_1_4	NA	NA	0	1	0.90500497818	None	None	None	None	1
3.0.1	2019_Mar_05_1716	s	s	7	2	SIC	28	3_1	3	1	1	3	23_1_3	2	2	1	0	0.839305877686	404.0	-145.0	407.0	-147.0	1
3.0.1	2019_Mar_05_1716	s	s	7	2	SIC	29	ABS	0	0	3	4	24_3_4	NA	NA	0	1	1.7676179409	None	None	None	None	1
3.0.1	2019_Mar_05_1716	s	s	7	2	SIC	30	1_3	1	3	2	4	23_2_4	1	-1	1	0	1.36363720894	473.0	378.0	471.0	366.0	1
3.0.1	2019_Mar_05_1716	s	s	7	2	SIC	31	ABS	0	0	2	2	24_2_2	NA	NA	0	1	6.53854203224	None	None	None	None	1
3.0.1	2019_Mar_05_1716	s	s	7	2	SIC	32	1_1	1	1	2	4	23_2_4	1	3	1	0	1.02548193932	414.0	-176.0	408.0	-173.0	1
3.0.1	2019_Mar_05_1716	s	s	7	2	SIC	33	3_3	3	3	1	4	23_1_4	2	-1	1	0	0.646169900894	-33.0	-216.0	-34.0	-214.0	1
3.0.1	2019_Mar_05_1716	s	s	7	2	SIC	34	ABS	0	0	2	4	24_2_4	NA	NA	0	1	2.12035608292	None	None	None	None	1
3.0.1	2019_Mar_05_1716	s	s	7	2	SIC	35	1_4	1	4	3	4	23_3_4	2	0	1	0	1.26070308685	-368.0	261.0	-375.0	265.0	1
3.0.1	2019_Mar_05_1716	s	s	7	2	SIC	36	ABS	0	0	3	1	24_3_1	NA	NA	0	1	3.23773407936	None	None	None	None	1
3.0.1	2019_Mar_05_1716	s	s	7	2	SIC	37	ABS	0	0	1	2	24_1_2	NA	NA	0	1	4.92718100548	None	None	None	None	1
3.0.1	2019_Mar_05_1716	s	s	7	2	SIC	38	1_2	1	2	4	2	23_4_2	3	0	1	0	0.547032117844	-169.0	218.0	-164.0	208.0	1
3.0.1	2019_Mar_05_1716	s	s	7	2	SIC	39	3_4	3	4	1	2	23_1_2	2	2	1	0	0.658023834229	-159.0	262.0	-167.0	266.0	1
3.0.1	2019_Mar_05_1716	s	s	7	2	SIC	40	ABS	0	0	4	4	24_4_4	NA	NA	0	1	0.907964944839	None	None	None	None	1
3.0.1	2019_Mar_05_1716	s	s	7	2	SIC	41	4_4	4	4	3	3	23_3_3	1	1	1	0	0.628246068954	328.0	-105.0	333.0	-100.0	1
3.0.1	2019_Mar_05_1716	s	s	7	2	SIC	42	ABS	0	0	2	2	24_2_2	NA	NA	0	1	6.10339593887	None	None	None	None	1
3.0.1	2019_Mar_05_1716	s	s	7	2	SIC	43	4_4	4	4	2	4	23_2_4	2	0	1	0	0.522041082382	-284.0	-235.0	-288.0	-248.0	1
3.0.1	2019_Mar_05_1716	s	s	7	2	SIC	44	ABS	0	0	1	4	24_1_4	NA	NA	0	1	3.22690296173	None	None	None	None	1
3.0.1	2019_Mar_05_1716	s	s	7	2	SIC	45	2_2	2	2	1	3	23_1_3	-1	1	1	0	0.672626018524	25.0	-26.0	22.0	-30.0	1
3.0.1	2019_Mar_05_1716	s	s	7	2	SIC	46	ABS	0	0	2	3	24_2_3	NA	NA	0	1	2.84840083122	None	None	None	None	1
3.0.1	2019_Mar_05_1716	s	s	7	2	SIC	47	3_1	3	1	1	4	23_1_4	2	3	1	0	0.516808986664	61.0	59.0	58.0	60.0	1
3.0.1	2019_Mar_05_1716	s	s	7	2	SIC	48	3_4	3	4	1	4	23_1_4	2	0	1	0	0.745776891708	-135.0	-123.0	-137.0	-123.0	1
3.0.1	2019_Mar_05_1716	s	s	7	2	SIC	49	ABS	0	0	2	2	24_2_2	NA	NA	0	1	6.28872108459	None	None	None	None	1
3.0.1	2019_Mar_05_1716	s	s	7	2	SIC	50	1_1	1	1	3	1	23_3_1	2	0	1	0	0.54039978981	445.0	170.0	440.0	166.0	1
3.0.1	2019_Mar_05_1716	s	s	7	2	SIC	51	2_2	2	2	4	2	23_4_2	2	0	1	0	0.50502705574	17.0	377.0	15.0	381.0	1
3.0.1	2019_Mar_05_1716	s	s	7	2	SIC	52	ABS	0	0	3	1	24_3_1	NA	NA	0	1	4.68025112152	None	None	None	None	1
3.0.1	2019_Mar_05_1716	s	s	7	2	SIC	53	ABS	0	0	4	3	24_4_3	NA	NA	0	1	1.96634292603	None	None	None	None	1
3.0.1	2019_Mar_05_1716	s	s	7	2	SIC	54	ABS	0	0	1	1	24_1_1	NA	NA	0	1	5.50355005264	None	None	None	None	1
3.0.1	2019_Mar_05_1716	s	s	7	2	SIC	55	ABS	0	0	4	4	24_4_4	NA	NA	0	1	0.898472070694	None	None	None	None	1
3.0.1	2019_Mar_05_1716	s	s	7	2	SIC	56	1_2	1	2	3	2	23_3_2	2	0	1	0	0.681462049484	-265.0	-269.0	-254.0	-263.0	1
3.0.1	2019_Mar_05_1716	s	s	7	2	SIC	57	3_3	3	3	3	4	23_3_4	0	-1	1	0	0.605947971344	-271.0	-71.0	-277.0	-74.0	1
3.0.1	2019_Mar_05_1716	s	s	7	2	SIC	58	2_3	2	3	1	2	23_1_2	-1	1	1	0	1.84869003296	-330.0	220.0	-329.0	212.0	1
3.0.1	2019_Mar_05_1716	s	s	7	2	SIC	59	ABS	0	0	1	3	24_1_3	NA	NA	0	1	3.22182583809	None	None	None	None	1
3.0.1	2019_Mar_05_1716	s	s	7	2	SIC	60	3_2	3	2	2	3	23_2_3	1	1	1	0	0.999423027039	-21.0	-283.0	-17.0	-280.0	1
3.0.1	2019_Mar_05_1716	s	s	7	2	SIC	61	ABS	0	0	2	2	24_2_2	NA	NA	0	1	6.06812906265	None	None	None	None	1
3.0.1	2019_Mar_05_1716	s	s	7	2	SIC	62	ABS	0	0	3	1	24_3_1	NA	NA	0	1	3.1748521328	None	None	None	None	1
3.0.1	2019_Mar_05_1716	s	s	7	2	SIC	63	1_3	1	3	1	1	23_1_1	0	2	1	0	2.23391699791	-113.0	-407.0	-115.0	-403.0	1
3.0.1	2019_Mar_05_1716	s	s	7	2	SIC	64	ABS	0	0	4	2	24_4_2	NA	NA	0	1	4.95633912086	None	None	None	None	1
3.0.1	2019_Mar_05_1716	s	s	7	2	SIC	65	2_3	2	3	3	3	23_3_3	1	0	1	0	3.15136909485	418.0	-151.0	412.0	-154.0	1
3.0.1	2019_Mar_05_1716	s	s	7	2	SIC	66	1_2	1	2	2	2	23_2_2	1	0	0	1	3.13285303116	506.0	371.0	None	None	0
3.0.1	2019_Mar_05_1716	s	s	7	2	SIC	67	1_4	1	4	3	2	23_3_2	2	2	1	0	0.59964799881	-169.0	-142.0	-172.0	-145.0	1
3.0.1	2019_Mar_05_1716	s	s	7	2	SIC	68	3_2	3	2	2	4	23_2_4	1	2	1	0	0.634397029877	69.0	-298.0	69.0	-308.0	1
3.0.1	2019_Mar_05_1716	s	s	7	2	SIC	69	4_4	4	4	1	2	23_1_2	3	2	1	0	0.448359966278	-383.0	32.0	-380.0	32.0	1
3.0.1	2019_Mar_05_1716	s	s	7	2	SIC	70	ABS	0	0	1	3	24_1_3	NA	NA	0	1	3.10427904129	None	None	None	None	1
3.0.1	2019_Mar_05_1716	s	s	7	2	SIC	71	3_1	3	1	4	3	23_4_3	-1	2	1	0	0.47377204895	281.0	157.0	276.0	150.0	1
3.0.1	2019_Mar_05_1716	s	s	7	2	SIC	72	ABS	0	0	4	1	24_4_1	NA	NA	0	1	0.720882892609	None	None	None	None	1
3.0.1	2019_Mar_05_1716	s	s	7	2	SIC	73	ABS	0	0	2	1	24_2_1	NA	NA	0	1	3.42473912239	None	None	None	None	1
3.0.1	2019_Mar_05_1716	s	s	7	2	SIC	74	4_4	4	4	1	4	23_1_4	3	0	1	0	1.48129081726	-435.0	-256.0	-433.0	-259.0	1
3.0.1	2019_Mar_05_1716	s	s	7	2	SIC	75	4_2	4	2	4	4	23_4_4	0	2	1	0	0.510610818863	-417.0	-106.0	-424.0	-104.0	1
3.0.1	2019_Mar_05_1716	s	s	7	2	SIC	76	ABS	0	0	4	2	24_4_2	NA	NA	0	1	3.93931102753	None	None	None	None	1
3.0.1	2019_Mar_05_1716	s	s	7	2	SIC	77	3_4	3	4	1	1	23_1_1	2	3	1	0	0.570484161377	-477.0	164.0	-483.0	173.0	1
3.0.1	2019_Mar_05_1716	s	s	7	2	SIC	78	2_1	2	1	1	1	23_1_1	-1	0	1	0	4.03345489502	-218.0	-365.0	-212.0	-355.0	1
3.0.1	2019_Mar_05_1716	s	s	7	2	SIC	79	ABS	0	0	3	4	24_3_4	NA	NA	0	1	1.88119316101	None	None	None	None	1
3.0.1	2019_Mar_05_1716	s	s	7	2	SIC	80	4_3	4	3	3	4	23_3_4	1	-1	1	0	0.790230035782	366.0	307.0	359.0	305.0	1
3.0.1	2019_Mar_05_1716	s	s	7	2	SIC	81	ABS	0	0	1	4	24_1_4	NA	NA	0	1	2.26912117004	None	None	None	None	1
3.0.1	2019_Mar_05_1716	s	s	7	2	SIC	82	ABS	0	0	2	4	24_2_4	NA	NA	0	1	2.00354480743	None	None	None	None	1
3.0.1	2019_Mar_05_1716	s	s	7	2	SIC	83	1_4	1	4	3	3	23_3_3	2	1	1	0	0.768157958984	-335.0	409.0	-326.0	410.0	1
3.0.1	2019_Mar_05_1716	s	s	7	2	SIC	84	ABS	0	0	2	3	24_2_3	NA	NA	0	1	4.50056409836	None	None	None	None	1
3.0.1	2019_Mar_05_1716	s	s	7	2	SIC	85	ABS	0	0	1	3	24_1_3	NA	NA	0	1	2.99848389626	None	None	None	None	1
3.0.1	2019_Mar_05_1716	s	s	7	2	SIC	86	ABS	0	0	2	4	24_2_4	NA	NA	0	1	2.44889497757	None	None	None	None	1
3.0.1	2019_Mar_05_1716	s	s	7	2	SIC	87	ABS	0	0	4	1	24_4_1	NA	NA	0	1	2.9984960556	None	None	None	None	1
3.0.1	2019_Mar_05_1716	s	s	7	2	SIC	88	2_4	2	4	1	1	23_1_1	-1	3	1	0	1.91385602951	508.0	-368.0	509.0	-376.0	1
3.0.1	2019_Mar_05_1716	s	s	7	2	SIC	89	ABS	0	0	4	4	24_4_4	NA	NA	0	1	1.81449389458	None	None	None	None	1
3.0.1	2019_Mar_05_1716	s	s	7	2	SIC	90	2_3	2	3	4	3	23_4_3	2	0	1	0	0.555020093918	-10.0	-126.0	-2.0	-118.0	1
3.0.1	2019_Mar_05_1716	s	s	7	2	SIC	91	ABS	0	0	1	4	24_1_4	NA	NA	0	1	2.21048808098	None	None	None	None	1
3.0.1	2019_Mar_05_1716	s	s	7	2	SIC	92	3_4	3	4	2	1	23_2_1	1	3	1	0	0.693162918091	-77.0	-380.0	-72.0	-374.0	1
3.0.1	2019_Mar_05_1716	s	s	7	2	SIC	93	ABS	0	0	3	3	24_3_3	NA	NA	0	1	2.57501292229	None	None	None	None	1
3.0.1	2019_Mar_05_1716	s	s	7	2	SIC	94	ABS	0	0	1	2	24_1_2	NA	NA	0	1	5.12741088867	None	None	None	None	1
3.0.1	2019_Mar_05_1716	s	s	7	2	SIC	95	ABS	0	0	3	3	24_3_3	NA	NA	0	1	4.26694607735	None	None	None	None	1
3.0.1	2019_Mar_05_1716	s	s	7	2	SIC	96	ABS	0	0	3	4	24_3_4	NA	NA	0	1	0.89607000351	None	None	None	None	1
3.0.1	2019_Mar_05_1716	s	s	7	2	SIC	97	ABS	0	0	4	4	24_4_4	NA	NA	0	1	1.01371002197	None	None	None	None	1
3.0.1	2019_Mar_05_1716	s	s	7	2	SIC	98	ABS	0	0	3	3	24_3_3	NA	NA	0	1	3.45103192329	None	None	None	None	1
3.0.1	2019_Mar_05_1716	s	s	7	2	SIC	99	3_4	3	4	2	4	23_2_4	1	0	1	0	0.966649055481	-102.0	200.0	-104.0	197.0	1
3.0.1	2019_Mar_05_1716	s	s	7	2	SIC	100	3_4	3	4	3	3	23_3_3	0	1	1	0	0.85387301445	37.0	-378.0	43.0	-373.0	1
3.0.1	2019_Mar_05_1716	s	s	7	2	SIC	101	3_1	3	1	3	3	23_3_3	0	2	1	0	1.73309993744	196.0	-311.0	200.0	-316.0	1
3.0.1	2019_Mar_05_1716	s	s	7	2	SIC	102	ABS	0	0	1	4	24_1_4	NA	NA	0	1	2.38689899445	None	None	None	None	1
3.0.1	2019_Mar_05_1716	s	s	7	2	SIC	103	1_1	1	1	4	2	23_4_2	3	1	1	0	0.509541034698	-205.0	-102.0	-197.0	-106.0	1
3.0.1	2019_Mar_05_1716	s	s	7	2	SIC	104	ABS	0	0	1	2	24_1_2	NA	NA	0	1	7.06008601189	None	None	None	None	1
3.0.1	2019_Mar_05_1716	s	s	7	2	SIC	105	ABS	0	0	1	1	24_1_1	NA	NA	0	1	3.43649697304	None	None	None	None	1
3.0.1	2019_Mar_05_1716	s	s	7	2	SIC	106	ABS	0	0	3	4	24_3_4	NA	NA	0	1	1.60468792915	None	None	None	None	1
3.0.1	2019_Mar_05_1716	s	s	7	2	SIC	107	ABS	0	0	3	4	24_3_4	NA	NA	0	1	1.79481291771	None	None	None	None	1
3.0.1	2019_Mar_05_1716	s	s	7	2	SIC	108	ABS	0	0	2	2	24_2_2	NA	NA	0	1	5.38864398003	None	None	None	None	1
3.0.1	2019_Mar_05_1716	s	s	7	2	SIC	109	ABS	0	0	2	2	24_2_2	NA	NA	0	1	3.32773303986	None	None	None	None	1
3.0.1	2019_Mar_05_1716	s	s	7	2	SIC	110	ABS	0	0	1	3	24_1_3	NA	NA	0	1	3.88056993484	None	None	None	None	1
3.0.1	2019_Mar_05_1716	s	s	7	2	SIC	111	ABS	0	0	1	1	24_1_1	NA	NA	0	1	4.80969810486	None	None	None	None	1
3.0.1	2019_Mar_05_1716	s	s	7	2	SIC	112	ABS	0	0	2	4	24_2_4	NA	NA	0	1	2.07447600365	None	None	None	None	1
3.0.1	2019_Mar_05_1716	s	s	7	2	SIC	113	2_3	2	3	3	1	23_3_1	1	2	1	0	0.731447219849	411.0	44.0	414.0	47.0	1
3.0.1	2019_Mar_05_1716	s	s	7	2	SIC	114	ABS	0	0	4	2	24_4_2	NA	NA	0	1	7.39004206657	None	None	None	None	1
3.0.1	2019_Mar_05_1716	s	s	7	2	SIC	115	ABS	0	0	2	3	24_2_3	NA	NA	0	1	2.29277086258	None	None	None	None	1
3.0.1	2019_Mar_05_1716	s	s	7	2	SIC	116	ABS	0	0	4	2	24_4_2	NA	NA	0	1	3.67365694046	None	None	None	None	1
3.0.1	2019_Mar_05_1716	s	s	7	2	SIC	117	3_3	3	3	2	1	23_2_1	1	2	1	0	0.639358997345	-399.0	-193.0	-397.0	-190.0	1
3.0.1	2019_Mar_05_1716	s	s	7	2	SIC	118	2_2	2	2	3	4	23_3_4	1	2	1	0	0.580734014511	255.0	-367.0	259.0	-364.0	1
3.0.1	2019_Mar_05_1716	s	s	7	2	SIC	119	ABS	0	0	2	1	24_2_1	NA	NA	0	1	4.73022913933	None	None	None	None	1
3.0.1	2019_Mar_05_1716	s	s	7	2	SIC	120	1_4	1	4	2	2	23_2_2	1	2	1	0	0.640711069107	229.0	103.0	221.0	98.0	1
3.0.1	2019_Mar_05_1716	s	s	7	2	SIC	121	ABS	0	0	4	2	24_4_2	NA	NA	0	1	4.70377993584	None	None	None	None	1
3.0.1	2019_Mar_05_1716	s	s	7	2	SIC	122	ABS	0	0	4	1	24_4_1	NA	NA	0	1	4.00991082191	None	None	None	None	1
3.0.1	2019_Mar_05_1716	s	s	7	2	SIC	123	1_4	1	4	1	1	23_1_1	0	3	1	0	0.634394884109	87.0	-295.0	93.0	-295.0	1
3.0.1	2019_Mar_05_1716	s	s	7	2	SIC	124	ABS	0	0	1	1	24_1_1	NA	NA	0	1	5.09194207191	None	None	None	None	1
3.0.1	2019_Mar_05_1716	s	s	7	2	SIC	125	1_1	1	1	1	3	23_1_3	0	2	1	0	1.30969500542	-183.0	105.0	-184.0	104.0	1
3.0.1	2019_Mar_05_1716	s	s	7	2	SIC	126	ABS	0	0	1	2	24_1_2	NA	NA	0	1	6.42095017433	None	None	None	None	1
3.0.1	2019_Mar_05_1716	s	s	7	2	SIC	127	3_2	3	2	2	1	23_2_1	1	-1	1	0	2.82210111618	353.0	291.0	352.0	284.0	1
3.0.1	2019_Mar_05_1716	s	s	7	2	SIC	128	2_1	2	1	3	2	23_3_2	1	1	1	0	0.790277957916	-480.0	204.0	-483.0	209.0	1
3.0.1	2019_Mar_05_1716	s	s	7	2	SIC	129	2_4	2	4	4	4	23_4_4	2	0	1	0	0.533458948135	418.0	31.0	416.0	27.0	1
3.0.1	2019_Mar_05_1716	s	s	7	2	SIC	130	2_2	2	2	1	4	23_1_4	-1	2	1	0	0.48649597168	192.0	-31.0	200.0	-31.0	1
3.0.1	2019_Mar_05_1716	s	s	7	2	SIC	131	2_2	2	2	1	1	23_1_1	-1	-1	1	0	2.23162198067	268.0	-101.0	264.0	-97.0	1
3.0.1	2019_Mar_05_1716	s	s	7	2	SIC	132	ABS	0	0	3	3	24_3_3	NA	NA	0	1	3.11602091789	None	None	None	None	1
3.0.1	2019_Mar_05_1716	s	s	7	2	SIC	133	3_2	3	2	1	1	23_1_1	2	-1	1	0	0.601968050003	-301.0	222.0	-303.0	218.0	1
3.0.1	2019_Mar_05_1716	s	s	7	2	SIC	134	1_4	1	4	2	3	23_2_3	1	1	1	0	0.874575138092	316.0	-210.0	324.0	-206.0	1
3.0.1	2019_Mar_05_1716	s	s	7	2	SIC	135	ABS	0	0	1	3	24_1_3	NA	NA	0	1	4.60085391998	None	None	None	None	1
3.0.1	2019_Mar_05_1716	s	s	7	2	SIC	136	4_3	4	3	1	3	23_1_3	3	0	1	0	0.519769906998	-43.0	296.0	-35.0	293.0	1
3.0.1	2019_Mar_05_1716	s	s	7	2	SIC	137	ABS	0	0	4	1	24_4_1	NA	NA	0	1	2.81487417221	None	None	None	None	1
3.0.1	2019_Mar_05_1716	s	s	7	2	SIC	138	ABS	0	0	2	3	24_2_3	NA	NA	0	1	4.92016410828	None	None	None	None	1
3.0.1	2019_Mar_05_1716	s	s	7	2	SIC	139	ABS	0	0	1	1	24_1_1	NA	NA	0	1	2.81024098396	None	None	None	None	1
3.0.1	2019_Mar_05_1716	s	s	7	2	SIC	140	ABS	0	0	3	2	24_3_2	NA	NA	0	1	2.9396109581	None	None	None	None	1
3.0.1	2019_Mar_05_1716	s	s	7	2	SIC	141	ABS	0	0	1	1	24_1_1	NA	NA	0	1	6.06206202507	None	None	None	None	1
3.0.1	2019_Mar_05_1716	s	s	7	2	SIC	142	ABS	0	0	2	2	24_2_2	NA	NA	0	1	5.47033977509	None	None	None	None	1
3.0.1	2019_Mar_05_1716	s	s	7	2	SIC	143	4_2	4	2	3	4	23_3_4	1	2	1	0	0.575534105301	-318.0	172.0	-318.0	171.0	1
3.0.1	2019_Mar_05_1716	s	s	7	2	SIC	144	ABS	0	0	3	2	24_3_2	NA	NA	0	1	3.26106405258	None	None	None	None	1
3.0.1	2019_Mar_05_1716	s	s	7	2	SIC	145	2_2	2	2	3	3	23_3_3	1	1	1	0	0.658000946045	25.0	161.0	26.0	165.0	1
3.0.1	2019_Mar_05_1716	s	s	7	2	SIC	146	4_2	4	2	3	3	23_3_3	1	1	1	0	0.545392990112	-283.0	-372.0	-279.0	-381.0	1
3.0.1	2019_Mar_05_1716	s	s	7	2	SIC	147	ABS	0	0	2	4	24_2_4	NA	NA	0	1	1.54003095627	None	None	None	None	1
3.0.1	2019_Mar_05_1716	s	s	7	2	SIC	148	4_4	4	4	2	3	23_2_3	2	1	1	0	0.591634988785	-76.0	-227.0	-78.0	-230.0	1
3.0.1	2019_Mar_05_1716	s	s	7	2	SIC	149	1_2	1	2	3	1	23_3_1	2	-1	1	0	0.634407997131	-288.0	183.0	-277.0	190.0	1
3.0.1	2019_Mar_05_1716	s	s	7	2	SIC	150	ABS	0	0	2	4	24_2_4	NA	NA	0	1	2.92133307457	None	None	None	None	1
3.0.1	2019_Mar_05_1716	s	s	7	2	SIC	151	2_4	2	4	2	1	23_2_1	0	3	1	0	0.763888120651	-42.0	125.0	-47.0	128.0	1
3.0.1	2019_Mar_05_1716	s	s	7	2	SIC	152	ABS	0	0	2	1	24_2_1	NA	NA	0	1	5.69640493393	None	None	None	None	1
3.0.1	2019_Mar_05_1716	s	s	7	2	SIC	153	2_3	2	3	3	4	23_3_4	1	-1	1	0	0.810857057571	455.0	-336.0	457.0	-345.0	1
3.0.1	2019_Mar_05_1716	s	s	7	2	SIC	154	2_1	2	1	3	4	23_3_4	1	3	1	0	0.474691152573	-182.0	52.0	-180.0	44.0	1
3.0.1	2019_Mar_05_1716	s	s	7	2	SIC	155	ABS	0	0	2	1	24_2_1	NA	NA	0	1	4.49683713913	None	None	None	None	1
3.0.1	2019_Mar_05_1716	s	s	7	2	SIC	156	ABS	0	0	1	1	24_1_1	NA	NA	0	1	4.56283378601	None	None	None	None	1
3.0.1	2019_Mar_05_1716	s	s	7	2	SIC	157	2_3	2	3	4	1	23_4_1	2	2	1	0	0.613824129105	-126.0	99.0	-129.0	94.0	1
3.0.1	2019_Mar_05_1716	s	s	7	2	SIC	158	4_3	4	3	2	3	23_2_3	2	0	1	0	0.422774076462	147.0	-268.0	153.0	-271.0	1
3.0.1	2019_Mar_05_1716	s	s	7	2	SIC	159	1_1	1	1	2	1	23_2_1	1	0	0	1	3.64532113075	-535.0	-286.0	None	None	0
3.0.1	2019_Mar_05_1716	s	s	7	2	SIC	160	3_4	3	4	3	1	23_3_1	0	3	1	0	0.944978952408	-458.0	381.0	-456.0	377.0	1
3.0.1	2019_Mar_05_1716	s	s	7	2	SIC	161	4_1	4	1	3	2	23_3_2	1	1	1	0	0.437400102615	-272.0	-394.0	-268.0	-397.0	1
3.0.1	2019_Mar_05_1716	s	s	7	2	SIC	162	2_1	2	1	1	2	23_1_2	-1	1	1	0	1.12839794159	100.0	-109.0	96.0	-113.0	1
3.0.1	2019_Mar_05_1716	s	s	7	2	SIC	163	4_3	4	3	3	1	23_3_1	1	2	1	0	0.458071947098	-507.0	-243.0	-506.0	-244.0	1
3.0.1	2019_Mar_05_1716	s	s	7	2	SIC	164	ABS	0	0	3	3	24_3_3	NA	NA	0	1	3.30938196182	None	None	None	None	1
3.0.1	2019_Mar_05_1716	s	s	7	2	SIC	165	ABS	0	0	2	3	24_2_3	NA	NA	0	1	3.05038809776	None	None	None	None	1
3.0.1	2019_Mar_05_1716	s	s	7	2	SIC	166	ABS	0	0	4	2	24_4_2	NA	NA	0	1	5.13261008263	None	None	None	None	1
3.0.1	2019_Mar_05_1716	s	s	7	2	SIC	167	4_3	4	3	4	1	23_4_1	0	2	1	0	0.928511857986	-247.0	-128.0	-245.0	-134.0	1
3.0.1	2019_Mar_05_1716	s	s	7	2	SIC	168	2_3	2	3	1	1	23_1_1	-1	2	1	0	0.863765954971	291.0	197.0	292.0	194.0	1
3.0.1	2019_Mar_05_1716	s	s	7	2	SIC	169	ABS	0	0	1	2	24_1_2	NA	NA	0	1	5.46179199219	None	None	None	None	1
3.0.1	2019_Mar_05_1716	s	s	7	2	SIC	170	ABS	0	0	4	2	24_4_2	NA	NA	0	1	3.62175798416	None	None	None	None	1
3.0.1	2019_Mar_05_1716	s	s	7	2	SIC	171	ABS	0	0	2	2	24_2_2	NA	NA	0	1	4.18637800217	None	None	None	None	1
3.0.1	2019_Mar_05_1716	s	s	7	2	SIC	172	4_3	4	3	2	4	23_2_4	2	-1	1	0	0.554992198944	67.0	219.0	67.0	212.0	1
3.0.1	2019_Mar_05_1716	s	s	7	2	SIC	173	ABS	0	0	1	3	24_1_3	NA	NA	0	1	3.76734304428	None	None	None	None	1
3.0.1	2019_Mar_05_1716	s	s	7	2	SIC	174	4_2	4	2	1	1	23_1_1	3	-1	1	0	0.627222061157	246.0	20.0	246.0	6.0	1
3.0.1	2019_Mar_05_1716	s	s	7	2	SIC	175	ABS	0	0	2	3	24_2_3	NA	NA	0	1	2.93630003929	None	None	None	None	1
3.0.1	2019_Mar_05_1716	s	s	7	2	SIC	176	ABS	0	0	4	2	24_4_2	NA	NA	0	1	4.27423596382	None	None	None	None	1
3.0.1	2019_Mar_05_1716	s	s	7	2	SIC	177	3_1	3	1	3	4	23_3_4	0	3	1	0	0.618782997131	-89.0	261.0	-87.0	255.0	1
3.0.1	2019_Mar_05_1716	s	s	7	2	SIC	178	2_1	2	1	2	2	23_2_2	0	1	1	0	2.15158700943	227.0	278.0	232.0	270.0	1
3.0.1	2019_Mar_05_1716	s	s	7	2	SIC	179	3_2	3	2	1	2	23_1_2	2	0	1	0	0.820001125336	-536.0	396.0	-548.0	398.0	1
3.0.1	2019_Mar_05_1716	s	s	7	2	SIC	180	1_3	1	3	4	1	23_4_1	3	2	1	0	0.410968780518	-65.0	245.0	-60.0	250.0	1
3.0.1	2019_Mar_05_1716	s	s	7	2	SIC	181	ABS	0	0	2	1	24_2_1	NA	NA	0	1	7.19712710381	None	None	None	None	1
3.0.1	2019_Mar_05_1716	s	s	7	2	SIC	182	1_4	1	4	2	4	23_2_4	1	0	1	0	6.29156684875	1.0	325.0	5.0	325.0	1
3.0.1	2019_Mar_05_1716	s	s	7	2	SIC	183	ABS	0	0	3	2	24_3_2	NA	NA	0	1	4.5204679966	None	None	None	None	1
3.0.1	2019_Mar_05_1716	s	s	7	2	SIC	184	ABS	0	0	4	2	24_4_2	NA	NA	0	1	5.37715983391	None	None	None	None	1
3.0.1	2019_Mar_05_1716	s	s	7	2	SIC	185	2_2	2	2	2	3	23_2_3	0	1	1	0	2.31915807724	107.0	86.0	112.0	76.0	1
3.0.1	2019_Mar_05_1716	s	s	7	2	SIC	186	ABS	0	0	3	1	24_3_1	NA	NA	0	1	3.66328907013	None	None	None	None	1
3.0.1	2019_Mar_05_1716	s	s	7	2	SIC	187	ABS	0	0	1	2	24_1_2	NA	NA	0	1	5.50917220116	None	None	None	None	1
3.0.1	2019_Mar_05_1716	s	s	7	2	SIC	188	2_1	2	1	4	1	23_4_1	2	0	1	0	0.668291091919	56.0	-11.0	54.0	-10.0	1
3.0.1	2019_Mar_05_1716	s	s	7	2	SIC	189	1_2	1	2	1	4	23_1_4	0	2	1	0	0.533674955368	366.0	-133.0	365.0	-146.0	1
3.0.1	2019_Mar_05_1716	s	s	7	2	SIC	190	1_3	1	3	3	1	23_3_1	2	2	1	0	0.740293979645	-66.0	379.0	-63.0	372.0	1
3.0.1	2019_Mar_05_1716	s	s	7	2	SIC	191	ABS	0	0	1	1	24_1_1	NA	NA	0	1	6.20237088203	None	None	None	None	1
3.0.1	2019_Mar_05_1716	s	s	7	2	SIC	192	ABS	0	0	3	4	24_3_4	NA	NA	0	1	2.34478712082	None	None	None	None	1
3.0.1	2019_Mar_05_1716	s	s	7	2	SIC	193	3_3	3	3	1	2	23_1_2	2	1	1	0	0.563893079758	-112.0	-251.0	-108.0	-251.0	1
3.0.1	2019_Mar_05_1716	s	s	7	2	SIC	194	1_3	1	3	2	2	23_2_2	1	1	1	0	5.80944919586	-454.0	-379.0	-454.0	-381.0	1
3.0.1	2019_Mar_05_1716	s	s	7	2	SIC	195	4_4	4	4	3	4	23_3_4	1	0	1	0	0.545412063599	-502.0	-129.0	-503.0	-136.0	1
3.0.1	2019_Mar_05_1716	s	s	7	2	SIC	196	4_4	4	4	4	1	23_4_1	0	3	1	0	0.509214162827	-26.0	-323.0	-24.0	-326.0	1
3.0.1	2019_Mar_05_1716	s	s	7	2	SIC	197	3_1	3	1	3	2	23_3_2	0	1	1	0	2.78037810326	217.0	-68.0	216.0	-77.0	1
3.0.1	2019_Mar_05_1716	s	s	7	2	SIC	198	ABS	0	0	1	3	24_1_3	NA	NA	0	1	3.69534301758	None	None	None	None	1
3.0.1	2019_Mar_05_1716	s	s	7	2	SIC	199	3_2	3	2	1	4	23_1_4	2	2	1	0	0.62877202034	-14.0	-347.0	-16.0	-350.0	1
3.0.1	2019_Mar_05_1716	s	s	7	2	SIC	200	ABS	0	0	2	4	24_2_4	NA	NA	0	1	5.03317403793	None	None	None	None	1
3.0.1	2019_Mar_05_1716	s	s	7	2	SIC	201	4_3	4	3	1	2	23_1_2	3	1	1	0	0.663014888763	-240.0	-390.0	-245.0	-389.0	1
3.0.1	2019_Mar_05_1716	s	s	7	2	SIC	202	ABS	0	0	3	4	24_3_4	NA	NA	0	1	1.92329096794	None	None	None	None	1
3.0.1	2019_Mar_05_1716	s	s	7	2	SIC	203	ABS	0	0	2	2	24_2_2	NA	NA	0	1	6.75025296211	None	None	None	None	1
3.0.1	2019_Mar_05_1716	s	s	7	2	SIC	204	3_2	3	2	3	4	23_3_4	0	2	1	0	0.617063999176	279.0	43.0	277.0	45.0	1
3.0.1	2019_Mar_05_1716	s	s	7	2	SIC	205	1_3	1	3	3	3	23_3_3	2	0	1	0	0.699548959732	506.0	273.0	515.0	270.0	1
3.0.1	2019_Mar_05_1716	s	s	7	2	SIC	206	2_3	2	3	3	2	23_3_2	1	1	1	0	0.755685091019	488.0	-138.0	495.0	-141.0	1
3.0.1	2019_Mar_05_1716	s	s	7	2	SIC	207	2_2	2	2	4	1	23_4_1	2	-1	1	0	0.414255857468	-113.0	-221.0	-111.0	-217.0	1
3.0.1	2019_Mar_05_1716	s	s	7	2	SIC	208	ABS	0	0	3	1	24_3_1	NA	NA	0	1	2.90758395195	None	None	None	None	1
3.0.1	2019_Mar_05_1716	s	s	7	2	SIC	209	3_2	3	2	4	1	23_4_1	-1	-1	1	0	0.481606960297	-19.0	-217.0	-15.0	-207.0	1
3.0.1	2019_Mar_05_1716	s	s	7	2	SIC	210	ABS	0	0	3	3	24_3_3	NA	NA	0	1	1.97501897812	None	None	None	None	1
3.0.1	2019_Mar_05_1716	s	s	7	2	SIC	211	2_2	2	2	3	2	23_3_2	1	0	1	0	1.01597714424	315.0	-255.0	322.0	-253.0	1
3.0.1	2019_Mar_05_1716	s	s	7	2	SIC	212	ABS	0	0	2	1	24_2_1	NA	NA	0	1	6.00289511681	None	None	None	None	1
3.0.1	2019_Mar_05_1716	s	s	7	2	SIC	213	4_3	4	3	3	3	23_3_3	1	0	1	0	0.602070093155	-366.0	266.0	-376.0	273.0	1
3.0.1	2019_Mar_05_1716	s	s	7	2	SIC	214	1_1	1	1	2	3	23_2_3	1	2	1	0	0.778480052948	-486.0	53.0	-490.0	53.0	1
3.0.1	2019_Mar_05_1716	s	s	7	2	SIC	215	2_4	2	4	4	1	23_4_1	2	3	1	0	0.422834157944	149.0	216.0	153.0	218.0	1
3.0.1	2019_Mar_05_1716	s	s	7	2	SIC	216	ABS	0	0	3	4	24_3_4	NA	NA	0	1	1.95165705681	None	None	None	None	1
3.0.1	2019_Mar_05_1716	s	s	7	2	SIC	217	1_2	1	2	4	4	23_4_4	3	2	1	0	0.569798946381	24.0	367.0	16.0	361.0	1
3.0.1	2019_Mar_05_1716	s	s	7	2	SIC	218	4_1	4	1	4	4	23_4_4	0	3	1	0	0.672521829605	-332.0	-411.0	-333.0	-409.0	1
3.0.1	2019_Mar_05_1716	s	s	7	2	SIC	219	ABS	0	0	2	4	24_2_4	NA	NA	0	1	5.63677501678	None	None	None	None	1
3.0.1	2019_Mar_05_1716	s	s	7	2	SIC	220	1_3	1	3	1	4	23_1_4	0	-1	1	0	0.754700183868	-278.0	-46.0	-272.0	-49.0	1
3.0.1	2019_Mar_05_1716	s	s	7	2	SIC	221	3_1	3	1	4	4	23_4_4	-1	3	1	0	0.481559991837	-50.0	-405.0	-53.0	-404.0	1
3.0.1	2019_Mar_05_1716	s	s	7	2	SIC	222	3_3	3	3	2	4	23_2_4	1	-1	1	0	0.520851135254	341.0	-134.0	344.0	-131.0	1
3.0.1	2019_Mar_05_1716	s	s	7	2	SIC	223	4_1	4	1	1	4	23_1_4	3	3	1	0	0.401945114136	347.0	-156.0	347.0	-163.0	1
3.0.1	2019_Mar_05_1716	s	s	7	2	SIC	224	ABS	0	0	2	1	24_2_1	NA	NA	0	1	3.3443980217	None	None	None	None	1
3.0.1	2019_Mar_05_1716	s	s	7	2	SIC	225	1_2	1	2	2	3	23_2_3	1	1	1	0	0.899450063705	-427.0	-177.0	-420.0	-171.0	1
3.0.1	2019_Mar_05_1716	s	s	7	2	SIC	226	ABS	0	0	4	3	24_4_3	NA	NA	0	1	2.4809820652	None	None	None	None	1
3.0.1	2019_Mar_05_1716	s	s	7	2	SIC	227	1_1	1	1	4	4	23_4_4	3	3	1	0	0.587346792221	182.0	301.0	183.0	294.0	1
3.0.1	2019_Mar_05_1716	s	s	7	2	SIC	228	2_4	2	4	1	2	23_1_2	-1	2	1	0	1.49587202072	258.0	337.0	253.0	327.0	1
3.0.1	2019_Mar_05_1716	s	s	7	2	SIC	229	2_1	2	1	2	4	23_2_4	0	3	1	0	0.496311903	214.0	-292.0	219.0	-297.0	1
3.0.1	2019_Mar_05_1716	s	s	7	2	SIC	230	1_4	1	4	1	3	23_1_3	0	1	1	0	0.907824993134	-330.0	-354.0	-330.0	-359.0	1
3.0.1	2019_Mar_05_1716	s	s	7	2	SIC	231	ABS	0	0	2	3	24_2_3	NA	NA	0	1	3.38399815559	None	None	None	None	1
3.0.1	2019_Mar_05_1716	s	s	7	2	SIC	232	3_4	3	4	4	3	23_4_3	-1	1	1	0	0.560796976089	-537.0	228.0	-540.0	226.0	1
3.0.1	2019_Mar_05_1716	s	s	7	2	SIC	233	ABS	0	0	2	4	24_2_4	NA	NA	0	1	3.26922702789	None	None	None	None	1
3.0.1	2019_Mar_05_1716	s	s	7	2	SIC	234	ABS	0	0	1	4	24_1_4	NA	NA	0	1	2.83378887177	None	None	None	None	1
3.0.1	2019_Mar_05_1716	s	s	7	2	SIC	235	ABS	0	0	4	1	24_4_1	NA	NA	0	1	4.75093007088	None	None	None	None	1
3.0.1	2019_Mar_05_1716	s	s	7	2	SIC	236	3_2	3	2	4	4	23_4_4	-1	2	1	0	0.839632034302	379.0	-185.0	384.0	-187.0	1
3.0.1	2019_Mar_05_1716	s	s	7	2	SIC	237	ABS	0	0	1	4	24_1_4	NA	NA	0	1	5.14752197266	None	None	None	None	1
3.0.1	2019_Mar_05_1716	s	s	7	2	SIC	238	1_3	1	3	2	1	23_2_1	1	2	1	0	0.916300058365	-335.0	67.0	-337.0	62.0	1
3.0.1	2019_Mar_05_1716	s	s	7	2	SIC	239	ABS	0	0	2	1	24_2_1	NA	NA	0	1	7.14120197296	None	None	None	None	1
3.0.1	2019_Mar_05_1716	s	s	7	2	SIC	240	ABS	0	0	2	1	24_2_1	NA	NA	0	1	3.89232397079	None	None	None	None	1
3.0.1	2019_Mar_05_1716	s	s	7	2	SIC	241	2_3	2	3	1	3	23_1_3	-1	0	1	0	2.31921386719	-224.0	-30.0	-229.0	-40.0	1
3.0.1	2019_Mar_05_1716	s	s	7	2	SIC	242	3_4	3	4	2	3	23_2_3	1	1	1	0	1.52297711372	474.0	395.0	474.0	394.0	1
3.0.1	2019_Mar_05_1716	s	s	7	2	SIC	243	ABS	0	0	2	3	24_2_3	NA	NA	0	1	2.77498984337	None	None	None	None	1
3.0.1	2019_Mar_05_1716	s	s	7	2	SIC	244	ABS	0	0	4	4	24_4_4	NA	NA	0	1	3.68534708023	None	None	None	None	1
3.0.1	2019_Mar_05_1716	s	s	7	2	SIC	245	ABS	0	0	1	2	24_1_2	NA	NA	0	1	5.09191894531	None	None	None	None	1
3.0.1	2019_Mar_05_1716	s	s	7	2	SIC	246	4_1	4	1	3	4	23_3_4	1	3	1	0	0.620198011398	306.0	76.0	314.0	80.0	1
3.0.1	2019_Mar_05_1716	s	s	7	2	SIC	247	ABS	0	0	3	4	24_3_4	NA	NA	0	1	1.3871049881	None	None	None	None	1
3.0.1	2019_Mar_05_1716	s	s	7	2	SIC	248	ABS	0	0	2	4	24_2_4	NA	NA	0	1	2.03737998009	None	None	None	None	1
3.0.1	2019_Mar_05_1716	s	s	7	2	SIC	249	ABS	0	0	1	1	24_1_1	NA	NA	0	1	5.64898085594	None	None	None	None	1
3.0.1	2019_Mar_05_1716	s	s	7	2	SIC	250	4_3	4	3	1	1	23_1_1	3	2	1	0	0.745494842529	254.0	157.0	251.0	156.0	1
3.0.1	2019_Mar_05_1716	s	s	7	2	SIC	251	3_4	3	4	4	2	23_4_2	-1	2	1	0	0.501094102859	-13.0	-192.0	-17.0	-198.0	1
3.0.1	2019_Mar_05_1716	s	s	7	2	SIC	252	2_4	2	4	1	3	23_1_3	-1	1	1	0	0.790198087692	308.0	-326.0	308.0	-321.0	1
3.0.1	2019_Mar_05_1716	s	s	7	2	SIC	253	ABS	0	0	3	1	24_3_1	NA	NA	0	1	2.71908187866	None	None	None	None	1
3.0.1	2019_Mar_05_1716	s	s	7	2	SIC	254	ABS	0	0	4	2	24_4_2	NA	NA	0	1	4.12764000893	None	None	None	None	1
3.0.1	2019_Mar_05_1716	s	s	7	2	SIC	255	4_4	4	4	3	1	23_3_1	1	3	1	0	0.613788127899	387.0	227.0	385.0	221.0	1
3.0.1	2019_Mar_05_1716	s	s	7	2	SIC	256	3_1	3	1	1	2	23_1_2	2	1	1	0	0.496196985245	-248.0	70.0	-256.0	76.0	1
3.0.1	2019_Mar_05_1716	s	s	7	2	SIC	257	1_3	1	3	4	3	23_4_3	3	0	1	0	0.438430070877	-59.0	-189.0	-55.0	-185.0	1
3.0.1	2019_Mar_05_1716	s	s	7	2	SIC	258	ABS	0	0	4	1	24_4_1	NA	NA	0	1	3.36294794083	None	None	None	None	1
3.0.1	2019_Mar_05_1716	s	s	7	2	SIC	259	4_4	4	4	3	2	23_3_2	1	2	1	0	0.576045036316	374.0	362.0	386.0	365.0	1
3.0.1	2019_Mar_05_1716	s	s	7	2	SIC	260	ABS	0	0	4	3	24_4_3	NA	NA	0	1	2.06931900978	None	None	None	None	1
3.0.1	2019_Mar_05_1716	s	s	7	2	SIC	261	ABS	0	0	1	4	24_1_4	NA	NA	0	1	3.26521801949	None	None	None	None	1
3.0.1	2019_Mar_05_1716	s	s	7	2	SIC	262	1_1	1	1	3	4	23_3_4	2	3	1	0	0.57560801506	-135.0	183.0	-132.0	185.0	1
3.0.1	2019_Mar_05_1716	s	s	7	2	SIC	263	ABS	0	0	1	1	24_1_1	NA	NA	0	1	5.32390904427	None	None	None	None	1
3.0.1	2019_Mar_05_1716	s	s	7	2	SIC	264	ABS	0	0	4	1	24_4_1	NA	NA	0	1	3.85442090034	None	None	None	None	1
3.0.1	2019_Mar_05_1716	s	s	7	2	SIC	265	3_1	3	1	4	2	23_4_2	-1	1	1	0	0.704966068268	-80.0	-13.0	-79.0	-15.0	1
3.0.1	2019_Mar_05_1716	s	s	7	2	SIC	266	ABS	0	0	4	3	24_4_3	NA	NA	0	1	3.16310214996	None	None	None	None	1
3.0.1	2019_Mar_05_1716	s	s	7	2	SIC	267	ABS	0	0	2	1	24_2_1	NA	NA	0	1	6.99727988243	None	None	None	None	1
3.0.1	2019_Mar_05_1716	s	s	7	2	SIC	268	ABS	0	0	4	3	24_4_3	NA	NA	0	1	3.85711407661	None	None	None	None	1
3.0.1	2019_Mar_05_1716	s	s	7	2	SIC	269	ABS	0	0	3	4	24_3_4	NA	NA	0	1	3.10427904129	None	None	None	None	1
3.0.1	2019_Mar_05_1716	s	s	7	2	SIC	270	3_1	3	1	2	4	23_2_4	1	3	1	0	0.545070886612	-74.0	-371.0	-71.0	-377.0	1
3.0.1	2019_Mar_05_1716	s	s	7	2	SIC	271	ABS	0	0	1	3	24_1_3	NA	NA	0	1	4.63330101967	None	None	None	None	1
3.0.1	2019_Mar_05_1716	s	s	7	2	SIC	272	1_4	1	4	1	2	23_1_2	0	2	1	0	0.763765096664	-486.0	269.0	-483.0	262.0	1
3.0.1	2019_Mar_05_1716	s	s	7	2	SIC	273	2_3	2	3	4	4	23_4_4	2	-1	1	0	0.481580018997	-7.0	-95.0	1.0	-95.0	1
3.0.1	2019_Mar_05_1716	s	s	7	2	SIC	274	1_2	1	2	1	3	23_1_3	0	1	1	0	2.53977894783	418.0	-371.0	431.0	-368.0	1
3.0.1	2019_Mar_05_1716	s	s	7	2	SIC	275	1_3	1	3	4	2	23_4_2	3	1	1	0	0.457998037338	-123.0	-86.0	-120.0	-90.0	1
3.0.1	2019_Mar_05_1716	s	s	7	2	SIC	276	1_4	1	4	4	3	23_4_3	3	1	1	0	0.39919090271	355.0	224.0	360.0	213.0	1
3.0.1	2019_Mar_05_1716	s	s	7	2	SIC	277	1_4	1	4	4	1	23_4_1	3	3	1	0	0.387425899506	31.0	130.0	39.0	128.0	1
3.0.1	2019_Mar_05_1716	s	s	7	2	SIC	278	ABS	0	0	4	4	24_4_4	NA	NA	0	1	1.12083292007	None	None	None	None	1
3.0.1	2019_Mar_05_1716	s	s	7	2	SIC	279	2_2	2	2	1	2	23_1_2	-1	0	1	0	7.18539595604	-275.0	199.0	-277.0	209.0	1
3.0.1	2019_Mar_05_1716	s	s	7	2	SIC	280	3_2	3	2	3	1	23_3_1	0	-1	1	0	1.19550418854	-374.0	-242.0	-364.0	-236.0	1
3.0.1	2019_Mar_05_1716	s	s	7	2	SIC	281	3_2	3	2	2	2	23_2_2	1	0	1	0	0.481648921967	-135.0	38.0	-134.0	39.0	1
3.0.1	2019_Mar_05_1716	s	s	7	2	SIC	282	ABS	0	0	3	3	24_3_3	NA	NA	0	1	4.55421805382	None	None	None	None	1
3.0.1	2019_Mar_05_1716	s	s	7	2	SIC	283	2_3	2	3	2	4	23_2_4	0	-1	1	0	0.754863023758	259.0	184.0	262.0	178.0	1
3.0.1	2019_Mar_05_1716	s	s	7	2	SIC	284	ABS	0	0	3	4	24_3_4	NA	NA	0	1	1.41061902046	None	None	None	None	1
3.0.1	2019_Mar_05_1716	s	s	7	2	SIC	285	ABS	0	0	4	3	24_4_3	NA	NA	0	1	2.36334300041	None	None	None	None	1
3.0.1	2019_Mar_05_1716	s	s	7	2	SIC	286	ABS	0	0	4	2	24_4_2	NA	NA	0	1	6.21421504021	None	None	None	None	1
3.0.1	2019_Mar_05_1716	s	s	7	2	SIC	287	ABS	0	0	1	1	24_1_1	NA	NA	0	1	5.23308515549	None	None	None	None	1
3.0.1	2019_Mar_05_1716	s	s	7	2	SIC	288	ABS	0	0	3	1	24_3_1	NA	NA	0	1	4.05695605278	None	None	None	None	1
3.0.1	2019_Mar_05_1716	s	s	7	2	SIC	289	2_4	2	4	3	3	23_3_3	1	1	1	0	0.634344100952	59.0	326.0	65.0	326.0	1
3.0.1	2019_Mar_05_1716	s	s	7	2	SIC	290	ABS	0	0	1	2	24_1_2	NA	NA	0	1	7.056224823	None	None	None	None	1
3.0.1	2019_Mar_05_1716	s	s	7	2	SIC	291	3_4	3	4	4	1	23_4_1	-1	3	1	0	0.638938188553	169.0	-374.0	169.0	-375.0	1
3.0.1	2019_Mar_05_1716	s	s	7	2	SIC	292	ABS	0	0	2	2	24_2_2	NA	NA	0	1	6.90312886238	None	None	None	None	1
3.0.1	2019_Mar_05_1716	s	s	7	2	SIC	293	ABS	0	0	2	1	24_2_1	NA	NA	0	1	5.87994885445	None	None	None	None	1
3.0.1	2019_Mar_05_1716	s	s	7	2	SIC	294	ABS	0	0	3	2	24_3_2	NA	NA	0	1	4.53923916817	None	None	None	None	1
3.0.1	2019_Mar_05_1716	s	s	7	2	SIC	295	4_1	4	1	1	3	23_1_3	3	2	1	0	0.570576906204	13.0	-282.0	23.0	-283.0	1
3.0.1	2019_Mar_05_1716	s	s	7	2	SIC	296	4_2	4	2	1	2	23_1_2	3	0	1	0	0.352188110352	-297.0	-192.0	-297.0	-200.0	1
3.0.1	2019_Mar_05_1716	s	s	7	2	SIC	297	ABS	0	0	2	4	24_2_4	NA	NA	0	1	2.93957209587	None	None	None	None	1
3.0.1	2019_Mar_05_1716	s	s	7	2	SIC	298	3_3	3	3	3	1	23_3_1	0	2	1	0	0.956246137619	150.0	316.0	153.0	318.0	1
3.0.1	2019_Mar_05_1716	s	s	7	2	SIC	299	ABS	0	0	3	2	24_3_2	NA	NA	0	1	3.75447893143	None	None	None	None	1
3.0.1	2019_Mar_05_1716	s	s	7	2	SIC	300	1_2	1	2	2	1	23_2_1	1	-1	1	0	1.16408491135	-122.0	351.0	-116.0	348.0	1
3.0.1	2019_Mar_05_1716	s	s	7	2	SIC	301	4_3	4	3	4	2	23_4_2	0	1	1	0	0.913612127304	-16.0	-104.0	-15.0	-106.0	1
3.0.1	2019_Mar_05_1716	s	s	7	2	SIC	302	3_1	3	1	4	1	23_4_1	-1	0	1	0	0.610836029053	-322.0	348.0	-326.0	348.0	1
3.0.1	2019_Mar_05_1716	s	s	7	2	SIC	303	2_1	2	1	3	1	23_3_1	1	0	1	0	0.496172904968	203.0	-138.0	203.0	-152.0	1
3.0.1	2019_Mar_05_1716	s	s	7	2	SIC	304	ABS	0	0	2	4	24_2_4	NA	NA	0	1	2.04576683044	None	None	None	None	1
3.0.1	2019_Mar_05_1716	s	s	7	2	SIC	305	ABS	0	0	4	4	24_4_4	NA	NA	0	1	1.29839897156	None	None	None	None	1
3.0.1	2019_Mar_05_1716	s	s	7	2	SIC	306	4_3	4	3	2	1	23_2_1	2	2	1	0	0.474771976471	146.0	-63.0	138.0	-58.0	1
3.0.1	2019_Mar_05_1716	s	s	7	2	SIC	307	ABS	0	0	3	1	24_3_1	NA	NA	0	1	4.73227000237	None	None	None	None	1
3.0.1	2019_Mar_05_1716	s	s	7	2	SIC	308	4_1	4	1	4	2	23_4_2	0	1	1	0	0.693267822266	-116.0	-400.0	-58.0	44.0	0
3.0.1	2019_Mar_05_1716	s	s	7	2	SIC	309	4_2	4	2	2	4	23_2_4	2	2	1	0	0.505473136902	-230.0	-21.0	-226.0	-23.0	1
3.0.1	2019_Mar_05_1716	s	s	7	2	SIC	310	ABS	0	0	4	4	24_4_4	NA	NA	0	1	1.8550889492	None	None	None	None	1
3.0.1	2019_Mar_05_1716	s	s	7	2	SIC	311	ABS	0	0	1	1	24_1_1	NA	NA	0	1	4.14211797714	None	None	None	None	1
3.0.1	2019_Mar_05_1716	s	s	7	2	SIC	312	ABS	0	0	1	3	24_1_3	NA	NA	0	1	2.84053206444	None	None	None	None	1
3.0.1	2019_Mar_05_1716	s	s	7	2	SIC	313	ABS	0	0	1	2	24_1_2	NA	NA	0	1	3.24561691284	None	None	None	None	1
3.0.1	2019_Mar_05_1716	s	s	7	2	SIC	314	ABS	0	0	2	2	24_2_2	NA	NA	0	1	3.93225288391	None	None	None	None	1
3.0.1	2019_Mar_05_1716	s	s	7	2	SIC	315	1_2	1	2	1	1	23_1_1	0	-1	1	0	1.08436083794	-170.0	249.0	-164.0	240.0	1
3.0.1	2019_Mar_05_1716	s	s	7	2	SIC	316	ABS	0	0	4	1	24_4_1	NA	NA	0	1	2.75141596794	None	None	None	None	1
3.0.1	2019_Mar_05_1716	s	s	7	2	SIC	317	2_4	2	4	3	1	23_3_1	1	3	1	0	0.893180131912	534.0	-389.0	544.0	-382.0	1
3.0.1	2019_Mar_05_1716	s	s	7	2	SIC	318	ABS	0	0	1	4	24_1_4	NA	NA	0	1	2.61939692497	None	None	None	None	1
3.0.1	2019_Mar_05_1716	s	s	7	2	SIC	319	ABS	0	0	2	3	24_2_3	NA	NA	0	1	3.05728888512	None	None	None	None	1
3.0.1	2019_Mar_05_1716	s	s	7	2	SIC	320	ABS	0	0	3	3	24_3_3	NA	NA	0	1	2.79846191406	None	None	None	None	1
3.0.1	2019_Mar_05_1716	s	s	7	2	SIC	321	1_4	1	4	4	2	23_4_2	3	2	1	0	0.610954046249	-203.0	199.0	-209.0	204.0	1
3.0.1	2019_Mar_05_1716	s	s	7	2	SIC	322	ABS	0	0	1	3	24_1_3	NA	NA	0	1	2.69261908531	None	None	None	None	1
3.0.1	2019_Mar_05_1716	s	s	7	2	SIC	323	ABS	0	0	3	3	24_3_3	NA	NA	0	1	2.01901984215	None	None	None	None	1
3.0.1	2019_Mar_05_1716	s	s	7	2	SIC	324	ABS	0	0	3	1	24_3_1	NA	NA	0	1	3.10790610313	None	None	None	None	1
3.0.1	2019_Mar_05_1716	s	s	7	2	SIC	325	3_3	3	3	3	2	23_3_2	0	1	1	0	0.893213033676	-205.0	-76.0	-206.0	-81.0	1
3.0.1	2019_Mar_05_1716	s	s	7	2	SIC	326	ABS	0	0	1	2	24_1_2	NA	NA	0	1	7.59708404541	None	None	None	None	1
3.0.1	2019_Mar_05_1716	s	s	7	2	SIC	327	1_1	1	1	4	1	23_4_1	3	0	1	0	0.634518861771	-371.0	-188.0	-377.0	-196.0	1
3.0.1	2019_Mar_05_1716	s	s	7	2	SIC	328	4_1	4	1	3	1	23_3_1	1	0	1	0	0.556780099869	295.0	-370.0	293.0	-369.0	1
3.0.1	2019_Mar_05_1716	s	s	7	2	SIC	329	ABS	0	0	4	3	24_4_3	NA	NA	0	1	3.50420498848	None	None	None	None	1
3.0.1	2019_Mar_05_1716	s	s	7	2	SIC	330	ABS	0	0	2	1	24_2_1	NA	NA	0	1	8.43489384651	None	None	None	None	1
3.0.1	2019_Mar_05_1716	s	s	7	2	SIC	331	ABS	0	0	1	4	24_1_4	NA	NA	0	1	2.6132338047	None	None	None	None	1
3.0.1	2019_Mar_05_1716	s	s	7	2	SIC	332	ABS	0	0	3	2	24_3_2	NA	NA	0	1	3.56300902367	None	None	None	None	1
3.0.1	2019_Mar_05_1716	s	s	7	2	SIC	333	ABS	0	0	2	1	24_2_1	NA	NA	0	1	2.65738296509	None	None	None	None	1
3.0.1	2019_Mar_05_1716	s	s	7	2	SIC	334	2_2	2	2	3	1	23_3_1	1	-1	1	0	1.30490493774	285.0	161.0	278.0	157.0	1
3.0.1	2019_Mar_05_1716	s	s	7	2	SIC	335	1_4	1	4	2	1	23_2_1	1	3	1	0	0.587378025055	43.0	-123.0	43.0	-122.0	1
3.0.1	2019_Mar_05_1716	s	s	7	2	SIC	336	ABS	0	0	3	2	24_3_2	NA	NA	0	1	6.37380504608	None	None	None	None	1
3.0.1	2019_Mar_05_1716	s	s	7	2	SIC	337	ABS	0	0	4	2	24_4_2	NA	NA	0	1	5.58585906029	None	None	None	None	1
3.0.1	2019_Mar_05_1716	s	s	7	2	SIC	338	1_3	1	3	2	3	23_2_3	1	0	0	1	3.42183613777	-102.0	158.0	None	None	0
3.0.1	2019_Mar_05_1716	s	s	7	2	SIC	339	2_2	2	2	2	4	23_2_4	0	2	1	0	1.31944799423	121.0	118.0	123.0	118.0	1
3.0.1	2019_Mar_05_1716	s	s	7	2	SIC	340	ABS	0	0	3	3	24_3_3	NA	NA	0	1	2.68595910072	None	None	None	None	1
3.0.1	2019_Mar_05_1716	s	s	7	2	SIC	341	2_1	2	1	3	3	23_3_3	1	2	1	0	0.731429815292	222.0	408.0	213.0	406.0	1
3.0.1	2019_Mar_05_1716	s	s	7	2	SIC	342	2_3	2	3	2	2	23_2_2	0	1	0	1	7.93821310997	433.0	-88.0	None	None	0
3.0.1	2019_Mar_05_1716	s	s	7	2	SIC	343	ABS	0	0	4	4	24_4_4	NA	NA	0	1	0.928427934647	None	None	None	None	1
3.0.1	2019_Mar_05_1716	s	s	7	2	SIC	344	ABS	0	0	3	3	24_3_3	NA	NA	0	1	1.9213540554	None	None	None	None	1
3.0.1	2019_Mar_05_1716	s	s	7	2	SIC	345	2_1	2	1	4	2	23_4_2	2	1	1	0	0.498183965683	-450.0	366.0	-442.0	365.0	1
3.0.1	2019_Mar_05_1716	s	s	7	2	SIC	346	2_1	2	1	1	3	23_1_3	-1	2	1	0	1.52831602097	-460.0	-205.0	-462.0	-209.0	1
3.0.1	2019_Mar_05_1716	s	s	7	2	SIC	347	4_3	4	3	1	4	23_1_4	3	-1	1	0	0.437511920929	-483.0	38.0	-480.0	39.0	1
3.0.1	2019_Mar_05_1716	s	s	7	2	SIC	348	ABS	0	0	1	4	24_1_4	NA	NA	0	1	1.4511449337	None	None	None	None	1
3.0.1	2019_Mar_05_1716	s	s	7	2	SIC	349	ABS	0	0	4	3	24_4_3	NA	NA	0	1	3.67169499397	None	None	None	None	1
3.0.1	2019_Mar_05_1716	s	s	7	2	SIC	350	ABS	0	0	2	3	24_2_3	NA	NA	0	1	3.54470515251	None	None	None	None	1
3.0.1	2019_Mar_05_1716	s	s	7	2	SIC	351	ABS	0	0	1	4	24_1_4	NA	NA	0	1	1.28705477715	None	None	None	None	1
3.0.1	2019_Mar_05_1716	s	s	7	2	SIC	352	ABS	0	0	3	2	24_3_2	NA	NA	0	1	4.28034377098	None	None	None	None	1
3.0.1	2019_Mar_05_1716	s	s	7	2	SIC	353	4_1	4	1	2	4	23_2_4	2	3	1	0	0.528626918793	222.0	88.0	229.0	88.0	1
3.0.1	2019_Mar_05_1716	s	s	7	2	SIC	354	ABS	0	0	2	4	24_2_4	NA	NA	0	1	2.26033592224	None	None	None	None	1
3.0.1	2019_Mar_05_1716	s	s	7	2	SIC	355	ABS	0	0	1	2	24_1_2	NA	NA	0	1	6.55716300011	None	None	None	None	1
3.0.1	2019_Mar_05_1716	s	s	7	2	SIC	356	ABS	0	0	2	1	24_2_1	NA	NA	0	1	7.60370492935	None	None	None	None	1
3.0.1	2019_Mar_05_1716	s	s	7	2	SIC	357	ABS	0	0	1	1	24_1_1	NA	NA	0	1	5.86812400818	None	None	None	None	1
3.0.1	2019_Mar_05_1716	s	s	7	2	SIC	358	3_3	3	3	4	1	23_4_1	-1	2	1	0	0.672641038895	126.0	-225.0	122.0	-225.0	1
3.0.1	2019_Mar_05_1716	s	s	7	2	SIC	359	ABS	0	0	4	3	24_4_3	NA	NA	0	1	2.80526590347	None	None	None	None	1
3.0.1	2019_Mar_05_1716	s	s	7	2	SIC	360	2_1	2	1	4	3	23_4_3	2	2	1	0	0.528565168381	121.0	-276.0	122.0	-274.0	1
3.0.1	2019_Mar_05_1716	s	s	7	2	SIC	361	4_2	4	2	2	2	23_2_2	2	0	1	0	0.437351942062	7.0	-111.0	5.0	-101.0	1
3.0.1	2019_Mar_05_1716	s	s	7	2	SIC	362	2_4	2	4	3	2	23_3_2	1	2	1	0	0.487037181854	249.0	-42.0	253.0	-49.0	1
3.0.1	2019_Mar_05_1716	s	s	7	2	SIC	363	4_3	4	3	2	2	23_2_2	2	1	1	0	0.443341970444	-421.0	-241.0	-414.0	-240.0	1
3.0.1	2019_Mar_05_1716	s	s	7	2	SIC	364	ABS	0	0	3	1	24_3_1	NA	NA	0	1	2.13322687149	None	None	None	None	1
3.0.1	2019_Mar_05_1716	s	s	7	2	SIC	365	ABS	0	0	2	2	24_2_2	NA	NA	0	1	3.86875510216	None	None	None	None	1
3.0.1	2019_Mar_05_1716	s	s	7	2	SIC	366	1_1	1	1	2	2	23_2_2	1	1	1	0	1.10487294197	8.0	381.0	5.0	390.0	1
3.0.1	2019_Mar_05_1716	s	s	7	2	SIC	367	3_3	3	3	4	4	23_4_4	-1	-1	1	0	2.2221930027	-510.0	256.0	-507.0	259.0	1
3.0.1	2019_Mar_05_1716	s	s	7	2	SIC	368	ABS	0	0	1	1	24_1_1	NA	NA	0	1	4.40969491005	None	None	None	None	1
3.0.1	2019_Mar_05_1716	s	s	7	2	SIC	369	2_4	2	4	2	2	23_2_2	0	2	1	0	0.705415010452	433.0	101.0	435.0	100.0	1
3.0.1	2019_Mar_05_1716	s	s	7	2	SIC	370	ABS	0	0	1	2	24_1_2	NA	NA	0	1	6.03279089928	None	None	None	None	1
3.0.1	2019_Mar_05_1716	s	s	7	2	SIC	371	ABS	0	0	1	2	24_1_2	NA	NA	0	1	5.34436798096	None	None	None	None	1
3.0.1	2019_Mar_05_1716	s	s	7	2	SIC	372	ABS	0	0	4	3	24_4_3	NA	NA	0	1	3.56299090385	None	None	None	None	1
3.0.1	2019_Mar_05_1716	s	s	7	2	SIC	373	ABS	0	0	1	3	24_1_3	NA	NA	0	1	4.75084400177	None	None	None	None	1
3.0.1	2019_Mar_05_1716	s	s	7	2	SIC	374	1_3	1	3	1	2	23_1_2	0	1	1	0	1.35185599327	-502.0	153.0	-506.0	151.0	1
3.0.1	2019_Mar_05_1716	s	s	7	2	SIC	375	2_1	2	1	2	3	23_2_3	0	2	1	0	0.678376913071	189.0	-134.0	196.0	-133.0	1
3.0.1	2019_Mar_05_1716	s	s	7	2	SIC	376	3_3	3	3	4	3	23_4_3	-1	0	1	0	0.469992876053	317.0	-198.0	306.0	-190.0	1
3.0.1	2019_Mar_05_1716	s	s	7	2	SIC	377	ABS	0	0	2	1	24_2_1	NA	NA	0	1	5.42126202583	None	None	None	None	1
3.0.1	2019_Mar_05_1716	s	s	7	2	SIC	378	ABS	0	0	1	2	24_1_2	NA	NA	0	1	6.10624289513	None	None	None	None	1
3.0.1	2019_Mar_05_1716	s	s	7	2	SIC	379	3_4	3	4	1	3	23_1_3	2	1	1	0	0.803843975067	328.0	257.0	326.0	254.0	1
3.0.1	2019_Mar_05_1716	s	s	7	2	SIC	380	ABS	0	0	4	2	24_4_2	NA	NA	0	1	4.56108403206	None	None	None	None	1
3.0.1	2019_Mar_05_1716	s	s	7	2	SIC	381	2_3	2	3	1	4	23_1_4	-1	-1	1	0	0.686656951904	-425.0	9.0	-418.0	7.0	1
3.0.1	2019_Mar_05_1716	s	s	7	2	SIC	382	ABS	0	0	4	2	24_4_2	NA	NA	0	1	4.58606481552	None	None	None	None	1
3.0.1	2019_Mar_05_1716	s	s	7	2	SIC	383	1_2	1	2	4	3	23_4_3	3	1	1	0	0.67261505127	359.0	-119.0	359.0	-114.0	1
3.0.1	2019_Mar_05_1716	s	s	7	2	SIC	384	4_3	4	3	4	4	23_4_4	0	-1	1	0	0.834432125092	114.0	269.0	113.0	262.0	1
3.0.1	2019_Mar_05_1716	s	s	7	2	SIC	385	ABS	0	0	4	3	24_4_3	NA	NA	0	1	2.56735992432	None	None	None	None	1
3.0.1	2019_Mar_05_1716	s	s	7	2	SIC	386	ABS	0	0	3	1	24_3_1	NA	NA	0	1	3.56298804283	None	None	None	None	1
3.0.1	2019_Mar_05_1716	s	s	7	2	SIC	387	ABS	0	0	3	3	24_3_3	NA	NA	0	1	3.0134780407	None	None	None	None	1
3.0.1	2019_Mar_05_1716	s	s	7	2	SIC	388	3_1	3	1	1	1	23_1_1	2	0	1	0	0.795755147934	269.0	317.0	276.0	312.0	1
3.0.1	2019_Mar_05_1716	s	s	7	2	SIC	389	ABS	0	0	3	2	24_3_2	NA	NA	0	1	2.95143294334	None	None	None	None	1
3.0.1	2019_Mar_05_1716	s	s	7	2	SIC	390	ABS	0	0	4	1	24_4_1	NA	NA	0	1	0.98734998703	None	None	None	None	1
3.0.1	2019_Mar_05_1716	s	s	7	2	SIC	391	1_2	1	2	4	1	23_4_1	3	-1	1	0	0.487975120544	-200.0	99.0	-199.0	94.0	1
3.0.1	2019_Mar_05_1716	s	s	7	2	SIC	392	2_4	2	4	1	4	23_1_4	-1	0	0	1	1.56354284286	-198.0	-124.0	None	None	0
3.0.1	2019_Mar_05_1716	s	s	7	2	SIC	393	ABS	0	0	4	4	24_4_4	NA	NA	0	1	0.740269899368	None	None	None	None	1
3.0.1	2019_Mar_05_1716	s	s	7	2	SIC	394	ABS	0	0	2	2	24_2_2	NA	NA	0	1	3.9745850563	None	None	None	None	1
3.0.1	2019_Mar_05_1716	s	s	7	2	SIC	395	4_3	4	3	3	2	23_3_2	1	1	1	0	0.968968868256	76.0	-197.0	81.0	-196.0	1
3.0.1	2019_Mar_05_1716	s	s	7	2	SIC	396	4_4	4	4	4	2	23_4_2	0	2	1	0	0.65115404129	-277.0	230.0	-271.0	226.0	1
3.0.1	2019_Mar_05_1716	s	s	7	2	SIC	397	ABS	0	0	1	3	24_1_3	NA	NA	0	1	3.06900906563	None	None	None	None	1
3.0.1	2019_Mar_05_1716	s	s	7	2	SIC	398	4_2	4	2	2	3	23_2_3	2	1	1	0	0.533663988113	-142.0	-57.0	-141.0	-69.0	1
3.0.1	2019_Mar_05_1716	s	s	7	2	SIC	399	ABS	0	0	2	2	24_2_2	NA	NA	0	1	6.63252902031	None	None	None	None	1
3.0.1	2019_Mar_05_1716	s	s	7	2	SIC	400	ABS	0	0	3	1	24_3_1	NA	NA	0	1	5.12241578102	None	None	None	None	1
3.0.1	2019_Mar_05_1716	s	s	7	2	SIC	401	4_1	4	1	1	1	23_1_1	3	0	1	0	0.811224937439	537.0	344.0	538.0	337.0	1
3.0.1	2019_Mar_05_1716	s	s	7	2	SIC	402	ABS	0	0	4	3	24_4_3	NA	NA	0	1	2.33981513977	None	None	None	None	1
3.0.1	2019_Mar_05_1716	s	s	7	2	SIC	403	2_4	2	4	4	2	23_4_2	2	2	1	0	0.516914844513	-361.0	92.0	-360.0	91.0	1
3.0.1	2019_Mar_05_1716	s	s	7	2	SIC	404	3_1	3	1	2	1	23_2_1	1	0	1	0	0.59286904335	211.0	-196.0	208.0	-197.0	1
3.0.1	2019_Mar_05_1716	s	s	7	2	SIC	405	ABS	0	0	1	4	24_1_4	NA	NA	0	1	1.53320097923	None	None	None	None	1
3.0.1	2019_Mar_05_1716	s	s	7	2	SIC	406	1_1	1	1	1	2	23_1_2	0	1	1	0	2.2927839756	-342.0	386.0	-335.0	385.0	1
3.0.1	2019_Mar_05_1716	s	s	7	2	SIC	407	4_2	4	2	3	2	23_3_2	1	0	1	0	0.570073127747	-301.0	-194.0	-298.0	-200.0	1
3.0.1	2019_Mar_05_1716	s	s	7	2	SIC	408	ABS	0	0	4	1	24_4_1	NA	NA	0	1	4.70374178886	None	None	None	None	1
3.0.1	2019_Mar_05_1716	s	s	7	2	SIC	409	1_3	1	3	3	4	23_3_4	2	-1	1	0	0.576046943665	-437.0	-242.0	-434.0	-237.0	1
3.0.1	2019_Mar_05_1716	s	s	7	2	SIC	410	ABS	0	0	2	3	24_2_3	NA	NA	0	1	3.95732712746	None	None	None	None	1
3.0.1	2019_Mar_05_1716	s	s	7	2	SIC	411	ABS	0	0	2	3	24_2_3	NA	NA	0	1	3.44538187981	None	None	None	None	1
3.0.1	2019_Mar_05_1716	s	s	7	2	SIC	412	ABS	0	0	3	2	24_3_2	NA	NA	0	1	5.3183889389	None	None	None	None	1
3.0.1	2019_Mar_05_1716	s	s	7	2	SIC	413	1_2	1	2	2	4	23_2_4	1	2	1	0	0.599177122116	-482.0	-98.0	-474.0	-91.0	1
3.0.1	2019_Mar_05_1716	s	s	7	2	SIC	414	1_1	1	1	4	3	23_4_3	3	2	1	0	0.452236890793	488.0	222.0	483.0	219.0	1
3.0.1	2019_Mar_05_1716	s	s	7	2	SIC	415	ABS	0	0	2	3	24_2_3	NA	NA	0	1	2.51623606682	None	None	None	None	1
3.0.1	2019_Mar_05_1716	s	s	7	2	SIC	416	4_2	4	2	3	1	23_3_1	1	-1	1	0	0.490223884583	-352.0	-193.0	-340.0	-189.0	1
3.0.1	2019_Mar_05_1716	s	s	7	2	SIC	417	4_4	4	4	1	3	23_1_3	3	1	1	0	0.422777175903	208.0	308.0	211.0	303.0	1
3.0.1	2019_Mar_05_1716	s	s	7	2	SIC	418	4_1	4	1	2	3	23_2_3	2	2	1	0	0.387418031693	-378.0	305.0	-377.0	301.0	1
3.0.1	2019_Mar_05_1716	s	s	7	2	SIC	419	ABS	0	0	3	4	24_3_4	NA	NA	0	1	1.37004899979	None	None	None	None	1
3.0.1	2019_Mar_05_1716	s	s	7	2	SIC	420	1_1	1	1	3	2	23_3_2	2	1	1	0	0.45802283287	379.0	-77.0	376.0	-82.0	1
3.0.1	2019_Mar_05_1716	s	s	7	2	SIC	421	4_1	4	1	1	2	23_1_2	3	1	1	0	0.516800880432	-106.0	6.0	-108.0	6.0	1
3.0.1	2019_Mar_05_1716	s	s	7	2	SIC	422	ABS	0	0	3	2	24_3_2	NA	NA	0	1	4.29196882248	None	None	None	None	1
3.0.1	2019_Mar_05_1716	s	s	7	2	SIC	423	1_1	1	1	3	3	23_3_3	2	2	1	0	0.650676965714	313.0	-257.0	301.0	-250.0	1
3.0.1	2019_Mar_05_1716	s	s	7	2	SIC	424	3_4	3	4	4	4	23_4_4	-1	0	1	0	0.422748088837	-369.0	-196.0	-366.0	-188.0	1
3.0.1	2019_Mar_05_1716	s	s	7	2	SIC	425	ABS	0	0	2	2	24_2_2	NA	NA	0	1	6.77890110016	None	None	None	None	1
3.0.1	2019_Mar_05_1716	s	s	7	2	SIC	426	ABS	0	0	1	2	24_1_2	NA	NA	0	1	5.23795104027	None	None	None	None	1
3.0.1	2019_Mar_05_1716	s	s	7	2	SIC	427	ABS	0	0	4	4	24_4_4	NA	NA	0	1	0.966556072235	None	None	None	None	1
3.0.1	2019_Mar_05_1716	s	s	7	2	SIC	428	4_4	4	4	2	1	23_2_1	2	3	1	0	0.425684928894	414.0	99.0	417.0	93.0	1
3.0.1	2019_Mar_05_1716	s	s	7	2	SIC	429	ABS	0	0	4	1	24_4_1	NA	NA	0	1	3.63350200653	None	None	None	None	1
3.0.1	2019_Mar_05_1716	s	s	7	2	SIC	430	ABS	0	0	1	4	24_1_4	NA	NA	0	1	1.31667494774	None	None	None	None	1
3.0.1	2019_Mar_05_1716	s	s	7	2	SIC	431	2_4	2	4	2	3	23_2_3	0	1	1	0	1.48117303848	523.0	-268.0	532.0	-272.0	1
3.0.1	2019_Mar_05_1716	s	s	7	2	SIC	432	ABS	0	0	2	4	24_2_4	NA	NA	0	1	1.69287204742	None	None	None	None	1
3.0.1	2019_Mar_05_1716	s	s	7	2	SIC	433	ABS	0	0	1	3	24_1_3	NA	NA	0	1	2.0574760437	None	None	None	None	1
3.0.1	2019_Mar_05_1716	s	s	7	2	SIC	434	4_2	4	2	4	3	23_4_3	0	1	1	0	1.88403892517	476.0	-237.0	465.0	-236.0	1
3.0.1	2019_Mar_05_1716	s	s	7	2	SIC	435	3_3	3	3	2	2	23_2_2	1	1	1	0	0.559786081314	248.0	82.0	252.0	84.0	1
3.0.1	2019_Mar_05_1716	s	s	7	2	SIC	436	4_1	4	1	3	3	23_3_3	1	2	1	0	0.422818899155	-466.0	-243.0	-476.0	-239.0	1
3.0.1	2019_Mar_05_1716	s	s	7	2	SIC	437	ABS	0	0	3	3	24_3_3	NA	NA	0	1	2.36332201958	None	None	None	None	1
3.0.1	2019_Mar_05_1716	s	s	7	2	SIC	438	3_3	3	3	2	3	23_2_3	1	0	1	0	0.634402036667	229.0	-98.0	229.0	-102.0	1
3.0.1	2019_Mar_05_1716	s	s	7	2	SIC	439	ABS	0	0	3	1	24_3_1	NA	NA	0	1	3.64531993866	None	None	None	None	1
3.0.1	2019_Mar_05_1716	s	s	7	2	SIC	440	ABS	0	0	4	1	24_4_1	NA	NA	0	1	2.89294695854	None	None	None	None	1
3.0.1	2019_Mar_05_1716	s	s	7	2	SIC	441	ABS	0	0	2	4	24_2_4	NA	NA	0	1	2.39262986183	None	None	None	None	1
3.0.1	2019_Mar_05_1716	s	s	7	2	SIC	442	ABS	0	0	4	4	24_4_4	NA	NA	0	1	0.923357009888	None	None	None	None	1
3.0.1	2019_Mar_05_1716	s	s	7	2	SIC	443	1_2	1	2	3	3	23_3_3	2	1	1	0	0.554995059967	-512.0	197.0	-508.0	189.0	1
3.0.1	2019_Mar_05_1716	s	s	7	2	SIC	444	4_1	4	1	4	3	23_4_3	0	2	1	0	1.06257081032	209.0	-232.0	209.0	-223.0	1
3.0.1	2019_Mar_05_1716	s	s	7	2	SIC	445	1_3	1	3	4	4	23_4_4	3	-1	1	0	0.40408706665	-181.0	-5.0	-174.0	-6.0	1
3.0.1	2019_Mar_05_1716	s	s	7	2	SIC	446	ABS	0	0	3	4	24_3_4	NA	NA	0	1	1.43712091446	None	None	None	None	1
3.0.1	2019_Mar_05_1716	s	s	7	2	SIC	447	ABS	0	0	4	2	24_4_2	NA	NA	0	1	4.45680117607	None	None	None	None	1
3.0.1	2019_Mar_05_1716	s	s	7	2	SIC	448	ABS	0	0	4	3	24_4_3	NA	NA	0	1	3.45033383369	None	None	None	None	1
3.0.1	2019_Mar_05_1716	s	s	7	2	SIC	449	1_2	1	2	3	4	23_3_4	2	2	1	0	0.505091190338	-432.0	388.0	-433.0	380.0	1
3.0.1	2019_Mar_05_1716	s	s	7	2	SIC	450	3_1	3	1	2	2	23_2_2	1	1	1	0	0.638319015503	254.0	302.0	256.0	293.0	1
3.0.1	2019_Mar_05_1716	s	s	7	2	SIC	451	ABS	0	0	3	1	24_3_1	NA	NA	0	1	4.66325998306	None	None	None	None	1
3.0.1	2019_Mar_05_1716	s	s	7	2	SIC	452	ABS	0	0	1	3	24_1_3	NA	NA	0	1	2.58677387238	None	None	None	None	1
3.0.1	2019_Mar_05_1716	s	s	7	2	SIC	453	ABS	0	0	2	3	24_2_3	NA	NA	0	1	1.95462799072	None	None	None	None	1
3.0.1	2019_Mar_05_1716	s	s	7	2	SIC	454	ABS	0	0	3	2	24_3_2	NA	NA	0	1	5.55351400375	None	None	None	None	1
3.0.1	2019_Mar_05_1716	s	s	7	2	SIC	455	4_2	4	2	2	1	23_2_1	2	-1	1	0	0.693233966827	-360.0	-258.0	-353.0	-262.0	1
3.0.1	2019_Mar_05_1716	s	s	7	2	SIC	456	ABS	0	0	4	1	24_4_1	NA	NA	0	1	3.34346008301	None	None	None	None	1
3.0.1	2019_Mar_05_1716	s	s	7	2	SIC	457	4_1	4	1	2	1	23_2_1	2	0	1	0	0.528679132462	369.0	-204.0	362.0	-204.0	1
3.0.1	2019_Mar_05_1716	s	s	7	2	SIC	458	4_2	4	2	1	4	23_1_4	3	2	1	0	0.422795057297	-130.0	-247.0	-130.0	-254.0	1
3.0.1	2019_Mar_05_1716	s	s	7	2	SIC	459	2_1	2	1	1	4	23_1_4	-1	3	1	0	0.613898038864	351.0	296.0	356.0	290.0	1
3.0.1	2019_Mar_05_1716	s	s	7	2	SIC	460	3_4	3	4	3	2	23_3_2	0	2	1	0	0.53334403038	-229.0	58.0	-105.0	290.0	0
3.0.1	2019_Mar_05_1716	s	s	7	2	SIC	461	1_3	1	3	3	2	23_3_2	2	1	1	0	0.51681303978	385.0	5.0	395.0	3.0	1
3.0.1	2019_Mar_05_1716	s	s	7	2	SIC	462	ABS	0	0	3	2	24_3_2	NA	NA	0	1	3.39846396446	None	None	None	None	1
3.0.1	2019_Mar_05_1716	s	s	7	2	SIC	463	3_2	3	2	4	3	23_4_3	-1	1	1	0	0.508588075638	-388.0	50.0	-388.0	51.0	1
3.0.1	2019_Mar_05_1716	s	s	7	2	SIC	464	2_2	2	2	4	3	23_4_3	2	1	1	0	0.393595933914	-184.0	133.0	-184.0	135.0	1
3.0.1	2019_Mar_05_1716	s	s	7	2	SIC	465	3_3	3	3	1	1	23_1_1	2	2	1	0	0.657995939255	274.0	-260.0	273.0	-262.0	1
3.0.1	2019_Mar_05_1716	s	s	7	2	SIC	466	ABS	0	0	4	4	24_4_4	NA	NA	0	1	0.931123971939	None	None	None	None	1
3.0.1	2019_Mar_05_1716	s	s	7	2	SIC	467	2_4	2	4	4	3	23_4_3	2	1	1	0	0.696336984634	-187.0	406.0	-185.0	401.0	1
3.0.1	2019_Mar_05_1716	s	s	7	2	SIC	468	ABS	0	0	4	1	24_4_1	NA	NA	0	1	2.34255886078	None	None	None	None	1
3.0.1	2019_Mar_05_1716	s	s	7	2	SIC	469	4_2	4	2	1	3	23_1_3	3	1	1	0	0.437434911728	-385.0	37.0	-382.0	36.0	1
3.0.1	2019_Mar_05_1716	s	s	7	2	SIC	470	ABS	0	0	4	3	24_4_3	NA	NA	0	1	1.90854501724	None	None	None	None	1
3.0.1	2019_Mar_05_1716	s	s	7	2	SIC	471	3_3	3	3	4	2	23_4_2	-1	1	1	0	0.437334060669	205.0	-221.0	214.0	-222.0	1
3.0.1	2019_Mar_05_1716	s	s	7	2	SIC	472	3_2	3	2	3	3	23_3_3	0	1	1	0	1.12845802307	-239.0	175.0	-236.0	165.0	1
3.0.1	2019_Mar_05_1716	s	s	7	2	SIC	473	1_4	1	4	3	1	23_3_1	2	3	1	0	0.422785043716	-320.0	-50.0	-312.0	-55.0	1
3.0.1	2019_Mar_05_1716	s	s	7	2	SIC	474	ABS	0	0	3	2	24_3_2	NA	NA	0	1	2.3985888958	None	None	None	None	1
3.0.1	2019_Mar_05_1716	s	s	7	2	SIC	475	4_4	4	4	4	3	23_4_3	0	1	1	0	0.622667074203	11.0	-351.0	16.0	-352.0	1
3.0.1	2019_Mar_05_1716	s	s	7	2	SIC	476	ABS	0	0	3	3	24_3_3	NA	NA	0	1	2.88581395149	None	None	None	None	1
3.0.1	2019_Mar_05_1716	s	s	7	2	SIC	477	2_3	2	3	2	1	23_2_1	0	2	1	0	1.09827899933	424.0	-276.0	426.0	-282.0	1
3.0.1	2019_Mar_05_1716	s	s	7	2	SIC	478	ABS	0	0	4	4	24_4_4	NA	NA	0	1	0.999438047409	None	None	None	None	1
3.0.1	2019_Mar_05_1716	s	s	7	2	SIC	479	3_3	3	3	1	3	23_1_3	2	0	1	0	0.646244049072	-355.0	233.0	-350.0	223.0	1
3.0.1	2019_Mar_05_1716	s	s	7	2	SIC	480	ABS	0	0	3	2	24_3_2	NA	NA	0	1	4.35093998909	None	None	None	None	1
