Version	Date	Stimuli	Method	Subject	Session	Condition	Trial	Target	TColor	TShape	DColor	DShape	Distractors	Channel1	Channel2	LMouseButton	RMouseButton	RT	TargetX	TargetY	ResponseX	ResponseY	Correct
3.0.1	2019_Mar_11_0915	s	s	8	1	Capacity	1	ABS	0	0	1	1	24_1_1	NA	NA	0	1	4.48047685623	None	None	None	None	1
3.0.1	2019_Mar_11_0915	s	s	8	1	Capacity	2	ABS	0	0	1	4	24_1_4	NA	NA	0	1	3.83828306198	None	None	None	None	1
3.0.1	2019_Mar_11_0915	s	s	8	1	Capacity	3	1_2	1	2	1	3	23_1_3	0	1	1	0	3.51868605614	209.0	31.0	208.0	32.0	1
3.0.1	2019_Mar_11_0915	s	s	8	1	Capacity	4	1_3	1	3	1	1	23_1_1	0	2	1	0	2.16814494133	126.0	-97.0	117.0	-95.0	1
3.0.1	2019_Mar_11_0915	s	s	8	1	Capacity	5	ABS	0	0	1	1	24_1_1	NA	NA	0	1	2.5100209713	None	None	None	None	1
3.0.1	2019_Mar_11_0915	s	s	8	1	Capacity	6	1_1	1	1	1	3	23_1_3	0	2	1	0	4.5513279438	68.0	338.0	69.0	343.0	1
3.0.1	2019_Mar_11_0915	s	s	8	1	Capacity	7	ABS	0	0	1	1	24_1_1	NA	NA	0	1	3.77754688263	None	None	None	None	1
3.0.1	2019_Mar_11_0915	s	s	8	1	Capacity	8	1_4	1	4	1	1	23_1_1	0	3	1	0	0.790241003036	-294.0	348.0	-301.0	348.0	1
3.0.1	2019_Mar_11_0915	s	s	8	1	Capacity	9	1_1	1	1	1	4	23_1_4	0	3	1	0	1.46938586235	-340.0	-68.0	-342.0	-66.0	1
3.0.1	2019_Mar_11_0915	s	s	8	1	Capacity	10	ABS	0	0	1	3	24_1_3	NA	NA	0	1	5.83728909492	None	None	None	None	1
3.0.1	2019_Mar_11_0915	s	s	8	1	Capacity	11	ABS	0	0	1	2	24_1_2	NA	NA	0	1	6.17885184288	None	None	None	None	1
3.0.1	2019_Mar_11_0915	s	s	8	1	Capacity	12	ABS	0	0	1	4	24_1_4	NA	NA	0	1	4.52739191055	None	None	None	None	1
3.0.1	2019_Mar_11_0915	s	s	8	1	Capacity	13	1_2	1	2	1	1	23_1_1	0	-1	1	0	4.13269281387	-381.0	-222.0	-390.0	-219.0	1
3.0.1	2019_Mar_11_0915	s	s	8	1	Capacity	14	1_2	1	2	1	4	23_1_4	0	2	1	0	1.57941412926	318.0	-268.0	312.0	-267.0	1
3.0.1	2019_Mar_11_0915	s	s	8	1	Capacity	15	1_4	1	4	1	3	23_1_3	0	1	1	0	0.931282043457	-315.0	114.0	-324.0	112.0	1
3.0.1	2019_Mar_11_0915	s	s	8	1	Capacity	16	1_3	1	3	1	4	23_1_4	0	-1	1	0	1.42255592346	310.0	359.0	309.0	362.0	1
3.0.1	2019_Mar_11_0915	s	s	8	1	Capacity	17	ABS	0	0	1	4	24_1_4	NA	NA	0	1	4.14972496033	None	None	None	None	1
3.0.1	2019_Mar_11_0915	s	s	8	1	Capacity	18	1_1	1	1	1	2	23_1_2	0	1	1	0	8.84836888313	472.0	-393.0	477.0	-391.0	1
3.0.1	2019_Mar_11_0915	s	s	8	1	Capacity	19	ABS	0	0	1	3	24_1_3	NA	NA	0	1	5.37419509888	None	None	None	None	1
3.0.1	2019_Mar_11_0915	s	s	8	1	Capacity	20	ABS	0	0	1	2	24_1_2	NA	NA	0	1	7.07961678505	None	None	None	None	1
3.0.1	2019_Mar_11_0915	s	s	8	1	Capacity	21	ABS	0	0	1	3	24_1_3	NA	NA	0	1	6.1621530056	None	None	None	None	1
3.0.1	2019_Mar_11_0915	s	s	8	1	Capacity	22	ABS	0	0	1	2	24_1_2	NA	NA	0	1	8.29697680473	None	None	None	None	1
3.0.1	2019_Mar_11_0915	s	s	8	1	Capacity	23	1_3	1	3	1	2	23_1_2	0	1	0	1	7.60697793961	-264.0	305.0	None	None	0
3.0.1	2019_Mar_11_0915	s	s	8	1	Capacity	24	1_4	1	4	1	2	23_1_2	0	2	1	0	2.62599802017	160.0	232.0	160.0	221.0	1
3.0.1	2019_Mar_11_0915	s	s	8	1	Capacity	25	1_4	1	4	1	2	23_1_2	0	2	1	0	0.980426073074	-351.0	-220.0	-360.0	-224.0	1
3.0.1	2019_Mar_11_0915	s	s	8	1	Capacity	26	1_2	1	2	1	4	23_1_4	0	2	1	0	1.51649808884	282.0	-323.0	287.0	-321.0	1
3.0.1	2019_Mar_11_0915	s	s	8	1	Capacity	27	1_4	1	4	1	1	23_1_1	0	3	1	0	0.91671204567	134.0	-400.0	133.0	-396.0	1
3.0.1	2019_Mar_11_0915	s	s	8	1	Capacity	28	ABS	0	0	1	1	24_1_1	NA	NA	0	1	5.67111897469	None	None	None	None	1
3.0.1	2019_Mar_11_0915	s	s	8	1	Capacity	29	ABS	0	0	1	2	24_1_2	NA	NA	1	0	0.966640949249	None	None	-26.0	65.0	0
3.0.1	2019_Mar_11_0915	s	s	8	1	Capacity	30	ABS	0	0	1	3	24_1_3	NA	NA	0	1	6.42092895508	None	None	None	None	1
3.0.1	2019_Mar_11_0915	s	s	8	1	Capacity	31	1_2	1	2	1	3	23_1_3	0	1	0	1	6.33193993568	471.0	-49.0	None	None	0
3.0.1	2019_Mar_11_0915	s	s	8	1	Capacity	32	1_1	1	1	1	3	23_1_3	0	2	1	0	0.914243936539	-172.0	-128.0	-167.0	-126.0	1
3.0.1	2019_Mar_11_0915	s	s	8	1	Capacity	33	ABS	0	0	1	2	24_1_2	NA	NA	0	1	7.21441793442	None	None	None	None	1
3.0.1	2019_Mar_11_0915	s	s	8	1	Capacity	34	ABS	0	0	1	1	24_1_1	NA	NA	0	1	4.78611922264	None	None	None	None	1
3.0.1	2019_Mar_11_0915	s	s	8	1	Capacity	35	ABS	0	0	1	1	24_1_1	NA	NA	0	1	4.80251908302	None	None	None	None	1
3.0.1	2019_Mar_11_0915	s	s	8	1	Capacity	36	1_1	1	1	1	4	23_1_4	0	3	1	0	0.857892990112	-398.0	402.0	-401.0	404.0	1
3.0.1	2019_Mar_11_0915	s	s	8	1	Capacity	37	ABS	0	0	1	4	24_1_4	NA	NA	0	1	5.93201708794	None	None	None	None	1
3.0.1	2019_Mar_11_0915	s	s	8	1	Capacity	38	1_3	1	3	1	2	23_1_2	0	1	1	0	3.30424904823	14.0	376.0	10.0	382.0	1
3.0.1	2019_Mar_11_0915	s	s	8	1	Capacity	39	ABS	0	0	1	4	24_1_4	NA	NA	0	1	4.20193004608	None	None	None	None	1
3.0.1	2019_Mar_11_0915	s	s	8	1	Capacity	40	ABS	0	0	1	4	24_1_4	NA	NA	0	1	3.61287093163	None	None	None	None	1
3.0.1	2019_Mar_11_0915	s	s	8	1	Capacity	41	ABS	0	0	1	3	24_1_3	NA	NA	0	1	10.1374299526	None	None	None	None	1
3.0.1	2019_Mar_11_0915	s	s	8	1	Capacity	42	1_1	1	1	1	2	23_1_2	0	1	1	0	8.16156101227	384.0	11.0	380.0	12.0	1
3.0.1	2019_Mar_11_0915	s	s	8	1	Capacity	43	1_4	1	4	1	3	23_1_3	0	1	1	0	7.37996602058	195.0	-357.0	188.0	-347.0	1
3.0.1	2019_Mar_11_0915	s	s	8	1	Capacity	44	1_3	1	3	1	4	23_1_4	0	-1	1	0	1.45778298378	-190.0	-341.0	-183.0	-347.0	1
3.0.1	2019_Mar_11_0915	s	s	8	1	Capacity	45	1_3	1	3	1	1	23_1_1	0	2	1	0	1.77530503273	-514.0	213.0	-517.0	215.0	1
3.0.1	2019_Mar_11_0915	s	s	8	1	Capacity	46	ABS	0	0	1	2	24_1_2	NA	NA	0	1	8.86994600296	None	None	None	None	1
3.0.1	2019_Mar_11_0915	s	s	8	1	Capacity	47	ABS	0	0	1	3	24_1_3	NA	NA	0	1	7.57385897636	None	None	None	None	1
3.0.1	2019_Mar_11_0915	s	s	8	1	Capacity	48	1_2	1	2	1	1	23_1_1	0	-1	1	0	4.26856994629	-100.0	359.0	-92.0	358.0	1
3.0.1	2019_Mar_11_0915	s	s	8	1	Capacity	49	1_2	1	2	1	3	23_1_3	0	1	1	0	3.57477712631	-489.0	237.0	-502.0	242.0	1
3.0.1	2019_Mar_11_0915	s	s	8	1	Capacity	50	1_1	1	1	1	3	23_1_3	0	2	1	0	9.64345693588	1.0	-82.0	12.0	-80.0	1
3.0.1	2019_Mar_11_0915	s	s	8	1	Capacity	51	ABS	0	0	1	3	24_1_3	NA	NA	0	1	9.208370924	None	None	None	None	1
3.0.1	2019_Mar_11_0915	s	s	8	1	Capacity	52	1_2	1	2	1	1	23_1_1	0	-1	1	0	3.50415205956	-324.0	-390.0	-323.0	-390.0	1
3.0.1	2019_Mar_11_0915	s	s	8	1	Capacity	53	ABS	0	0	1	3	24_1_3	NA	NA	0	1	8.14974784851	None	None	None	None	1
3.0.1	2019_Mar_11_0915	s	s	8	1	Capacity	54	ABS	0	0	1	2	24_1_2	NA	NA	0	1	11.9133110046	None	None	None	None	1
3.0.1	2019_Mar_11_0915	s	s	8	1	Capacity	55	1_1	1	1	1	2	23_1_2	0	1	1	0	1.72121691704	-346.0	328.0	-353.0	324.0	1
3.0.1	2019_Mar_11_0915	s	s	8	1	Capacity	56	1_2	1	2	1	4	23_1_4	0	2	1	0	1.06262302399	-537.0	252.0	-537.0	242.0	1
3.0.1	2019_Mar_11_0915	s	s	8	1	Capacity	57	1_1	1	1	1	4	23_1_4	0	3	1	0	0.893224954605	-205.0	112.0	-207.0	114.0	1
3.0.1	2019_Mar_11_0915	s	s	8	1	Capacity	58	1_3	1	3	1	1	23_1_1	0	2	0	1	2.3904800415	454.0	227.0	None	None	0
3.0.1	2019_Mar_11_0915	s	s	8	1	Capacity	59	1_4	1	4	1	2	23_1_2	0	2	1	0	0.84132194519	33.0	-46.0	27.0	-45.0	1
3.0.1	2019_Mar_11_0915	s	s	8	1	Capacity	60	ABS	0	0	1	4	24_1_4	NA	NA	0	1	3.86871790886	None	None	None	None	1
3.0.1	2019_Mar_11_0915	s	s	8	1	Capacity	61	ABS	0	0	1	3	24_1_3	NA	NA	0	1	8.07255101204	None	None	None	None	1
3.0.1	2019_Mar_11_0915	s	s	8	1	Capacity	62	ABS	0	0	1	1	24_1_1	NA	NA	0	1	4.55085086823	None	None	None	None	1
3.0.1	2019_Mar_11_0915	s	s	8	1	Capacity	63	ABS	0	0	1	4	24_1_4	NA	NA	0	1	3.33949398994	None	None	None	None	1
3.0.1	2019_Mar_11_0915	s	s	8	1	Capacity	64	1_3	1	3	1	2	23_1_2	0	1	0	1	12.3067669868	-289.0	21.0	None	None	0
3.0.1	2019_Mar_11_0915	s	s	8	1	Capacity	65	1_4	1	4	1	1	23_1_1	0	3	1	0	1.09813785553	-402.0	-11.0	-406.0	-5.0	1
3.0.1	2019_Mar_11_0915	s	s	8	1	Capacity	66	1_4	1	4	1	3	23_1_3	0	1	1	0	1.72914099693	182.0	-47.0	194.0	-46.0	1
3.0.1	2019_Mar_11_0915	s	s	8	1	Capacity	67	ABS	0	0	1	1	24_1_1	NA	NA	0	1	6.65659594536	None	None	None	None	1
3.0.1	2019_Mar_11_0915	s	s	8	1	Capacity	68	1_3	1	3	1	4	23_1_4	0	-1	1	0	0.966691970825	-194.0	-42.0	-193.0	-38.0	1
3.0.1	2019_Mar_11_0915	s	s	8	1	Capacity	69	ABS	0	0	1	1	24_1_1	NA	NA	0	1	3.67829990387	None	None	None	None	1
3.0.1	2019_Mar_11_0915	s	s	8	1	Capacity	70	ABS	0	0	1	2	24_1_2	NA	NA	0	1	9.57304000854	None	None	None	None	1
3.0.1	2019_Mar_11_0915	s	s	8	1	Capacity	71	ABS	0	0	1	4	24_1_4	NA	NA	0	1	4.05693697929	None	None	None	None	1
3.0.1	2019_Mar_11_0915	s	s	8	1	Capacity	72	ABS	0	0	1	2	24_1_2	NA	NA	0	1	13.0306708813	None	None	None	None	1
3.0.1	2019_Mar_11_0915	s	s	8	1	Capacity	73	1_1	1	1	1	4	23_1_4	0	3	1	0	1.01589584351	-332.0	-221.0	-339.0	-215.0	1
3.0.1	2019_Mar_11_0915	s	s	8	1	Capacity	74	1_2	1	2	1	1	23_1_1	0	-1	1	0	6.8609828949	174.0	-32.0	166.0	-27.0	1
3.0.1	2019_Mar_11_0915	s	s	8	1	Capacity	75	1_4	1	4	1	1	23_1_1	0	3	1	0	0.975485086441	525.0	-308.0	526.0	-307.0	1
3.0.1	2019_Mar_11_0915	s	s	8	1	Capacity	76	1_2	1	2	1	4	23_1_4	0	2	1	0	1.38352799416	196.0	171.0	198.0	170.0	1
3.0.1	2019_Mar_11_0915	s	s	8	1	Capacity	77	1_4	1	4	1	2	23_1_2	0	2	1	0	1.26512503624	226.0	-225.0	223.0	-223.0	1
3.0.1	2019_Mar_11_0915	s	s	8	1	Capacity	78	ABS	0	0	1	4	24_1_4	NA	NA	0	1	8.3762280941	None	None	None	None	1
3.0.1	2019_Mar_11_0915	s	s	8	1	Capacity	79	ABS	0	0	1	3	24_1_3	NA	NA	0	1	8.440554142	None	None	None	None	1
3.0.1	2019_Mar_11_0915	s	s	8	1	Capacity	80	1_3	1	3	1	2	23_1_2	0	1	1	0	3.08751606941	-268.0	23.0	-273.0	21.0	1
3.0.1	2019_Mar_11_0915	s	s	8	1	Capacity	81	ABS	0	0	1	1	24_1_1	NA	NA	0	1	5.5389289856	None	None	None	None	1
3.0.1	2019_Mar_11_0915	s	s	8	1	Capacity	82	1_1	1	1	1	3	23_1_3	0	2	1	0	2.04572319984	102.0	152.0	109.0	157.0	1
3.0.1	2019_Mar_11_0915	s	s	8	1	Capacity	83	ABS	0	0	1	2	24_1_2	NA	NA	0	1	7.43821501732	None	None	None	None	1
3.0.1	2019_Mar_11_0915	s	s	8	1	Capacity	84	1_4	1	4	1	3	23_1_3	0	1	1	0	0.913272857666	-447.0	80.0	-440.0	74.0	1
3.0.1	2019_Mar_11_0915	s	s	8	1	Capacity	85	ABS	0	0	1	4	24_1_4	NA	NA	0	1	5.79758095741	None	None	None	None	1
3.0.1	2019_Mar_11_0915	s	s	8	1	Capacity	86	ABS	0	0	1	3	24_1_3	NA	NA	0	1	7.49115014076	None	None	None	None	1
3.0.1	2019_Mar_11_0915	s	s	8	1	Capacity	87	ABS	0	0	1	2	24_1_2	NA	NA	0	1	12.5249259472	None	None	None	None	1
3.0.1	2019_Mar_11_0915	s	s	8	1	Capacity	88	ABS	0	0	1	1	24_1_1	NA	NA	0	1	5.20283794403	None	None	None	None	1
3.0.1	2019_Mar_11_0915	s	s	8	1	Capacity	89	ABS	0	0	1	3	24_1_3	NA	NA	0	1	7.28430700302	None	None	None	None	1
3.0.1	2019_Mar_11_0915	s	s	8	1	Capacity	90	1_3	1	3	1	4	23_1_4	0	-1	1	0	1.09834480286	-536.0	180.0	-533.0	185.0	1
3.0.1	2019_Mar_11_0915	s	s	8	1	Capacity	91	ABS	0	0	1	2	24_1_2	NA	NA	0	1	10.3180370331	None	None	None	None	1
3.0.1	2019_Mar_11_0915	s	s	8	1	Capacity	92	1_2	1	2	1	3	23_1_3	0	1	1	0	2.01340317726	-159.0	117.0	-166.0	112.0	1
3.0.1	2019_Mar_11_0915	s	s	8	1	Capacity	93	1_3	1	3	1	1	23_1_1	0	2	1	0	2.65082597733	180.0	-103.0	187.0	-100.0	1
3.0.1	2019_Mar_11_0915	s	s	8	1	Capacity	94	ABS	0	0	1	4	24_1_4	NA	NA	0	1	4.15680599213	None	None	None	None	1
3.0.1	2019_Mar_11_0915	s	s	8	1	Capacity	95	ABS	0	0	1	1	24_1_1	NA	NA	0	1	4.4949889183	None	None	None	None	1
3.0.1	2019_Mar_11_0915	s	s	8	1	Capacity	96	1_1	1	1	1	2	23_1_2	0	1	1	0	4.91591000557	427.0	358.0	438.0	366.0	1
3.0.1	2019_Mar_11_0915	s	s	8	1	Capacity	1	3_1	3	1	2	1	23_2_1	1	0	1	0	1.29815912247	489.0	16.0	491.0	16.0	1
3.0.1	2019_Mar_11_0915	s	s	8	1	Capacity	2	ABS	0	0	2	1	24_2_1	NA	NA	0	1	3.74338507652	None	None	None	None	1
3.0.1	2019_Mar_11_0915	s	s	8	1	Capacity	3	ABS	0	0	4	1	24_4_1	NA	NA	0	1	4.4568901062	None	None	None	None	1
3.0.1	2019_Mar_11_0915	s	s	8	1	Capacity	4	1_1	1	1	2	1	23_2_1	1	0	1	0	1.06989717484	303.0	96.0	298.0	96.0	1
3.0.1	2019_Mar_11_0915	s	s	8	1	Capacity	5	ABS	0	0	1	1	24_1_1	NA	NA	0	1	3.74347019196	None	None	None	None	1
3.0.1	2019_Mar_11_0915	s	s	8	1	Capacity	6	ABS	0	0	2	1	24_2_1	NA	NA	0	1	5.20950198174	None	None	None	None	1
3.0.1	2019_Mar_11_0915	s	s	8	1	Capacity	7	2_1	2	1	1	1	23_1_1	-1	0	1	0	1.2342441082	-332.0	-217.0	-325.0	-208.0	1
3.0.1	2019_Mar_11_0915	s	s	8	1	Capacity	8	ABS	0	0	3	1	24_3_1	NA	NA	0	1	4.99778604507	None	None	None	None	1
3.0.1	2019_Mar_11_0915	s	s	8	1	Capacity	9	4_1	4	1	1	1	23_1_1	3	0	1	0	0.731573104858	161.0	88.0	166.0	91.0	1
3.0.1	2019_Mar_11_0915	s	s	8	1	Capacity	10	4_1	4	1	2	1	23_2_1	2	0	1	0	0.621177911758	-194.0	-229.0	-195.0	-229.0	1
3.0.1	2019_Mar_11_0915	s	s	8	1	Capacity	11	1_1	1	1	4	1	23_4_1	3	0	1	0	0.672621011734	257.0	167.0	263.0	161.0	1
3.0.1	2019_Mar_11_0915	s	s	8	1	Capacity	12	ABS	0	0	4	1	24_4_1	NA	NA	0	1	4.2450978756	None	None	None	None	1
3.0.1	2019_Mar_11_0915	s	s	8	1	Capacity	13	ABS	0	0	1	1	24_1_1	NA	NA	0	1	6.25634908676	None	None	None	None	1
3.0.1	2019_Mar_11_0915	s	s	8	1	Capacity	14	3_1	3	1	4	1	23_4_1	-1	0	1	0	0.568716049194	-106.0	122.0	-97.0	121.0	1
3.0.1	2019_Mar_11_0915	s	s	8	1	Capacity	15	4_1	4	1	3	1	23_3_1	1	0	1	0	0.815885066986	383.0	-79.0	388.0	-86.0	1
3.0.1	2019_Mar_11_0915	s	s	8	1	Capacity	16	2_1	2	1	4	1	23_4_1	2	0	1	0	0.674566030502	-146.0	-94.0	-142.0	-85.0	1
3.0.1	2019_Mar_11_0915	s	s	8	1	Capacity	17	2_1	2	1	3	1	23_3_1	1	0	1	0	0.792431116104	-125.0	156.0	-126.0	157.0	1
3.0.1	2019_Mar_11_0915	s	s	8	1	Capacity	18	ABS	0	0	3	1	24_3_1	NA	NA	0	1	6.53857088089	None	None	None	None	1
3.0.1	2019_Mar_11_0915	s	s	8	1	Capacity	19	ABS	0	0	3	1	24_3_1	NA	NA	0	1	6.98540592194	None	None	None	None	1
3.0.1	2019_Mar_11_0915	s	s	8	1	Capacity	20	ABS	0	0	1	1	24_1_1	NA	NA	0	1	5.48004508018	None	None	None	None	1
3.0.1	2019_Mar_11_0915	s	s	8	1	Capacity	21	ABS	0	0	4	1	24_4_1	NA	NA	0	1	8.3310110569	None	None	None	None	1
3.0.1	2019_Mar_11_0915	s	s	8	1	Capacity	22	ABS	0	0	2	1	24_2_1	NA	NA	0	1	8.91757297516	None	None	None	None	1
3.0.1	2019_Mar_11_0915	s	s	8	1	Capacity	23	1_1	1	1	3	1	23_3_1	2	0	1	0	1.57525205612	-336.0	-141.0	-342.0	-141.0	1
3.0.1	2019_Mar_11_0915	s	s	8	1	Capacity	24	3_1	3	1	1	1	23_1_1	2	0	1	0	0.695966959	-78.0	-24.0	-77.0	-22.0	1
3.0.1	2019_Mar_11_0915	s	s	8	1	Capacity	25	2_1	2	1	1	1	23_1_1	-1	0	1	0	6.35460686684	527.0	254.0	528.0	256.0	1
3.0.1	2019_Mar_11_0915	s	s	8	1	Capacity	26	ABS	0	0	3	1	24_3_1	NA	NA	0	1	6.3907251358	None	None	None	None	1
3.0.1	2019_Mar_11_0915	s	s	8	1	Capacity	27	ABS	0	0	2	1	24_2_1	NA	NA	0	1	7.46416711807	None	None	None	None	1
3.0.1	2019_Mar_11_0915	s	s	8	1	Capacity	28	ABS	0	0	2	1	24_2_1	NA	NA	0	1	6.12687397003	None	None	None	None	1
3.0.1	2019_Mar_11_0915	s	s	8	1	Capacity	29	1_1	1	1	3	1	23_3_1	2	0	1	0	0.796298980713	-322.0	-212.0	-315.0	-214.0	1
3.0.1	2019_Mar_11_0915	s	s	8	1	Capacity	30	ABS	0	0	1	1	24_1_1	NA	NA	0	1	7.50800895691	None	None	None	None	1
3.0.1	2019_Mar_11_0915	s	s	8	1	Capacity	31	2_1	2	1	4	1	23_4_1	2	0	1	0	0.763875961304	393.0	-402.0	393.0	-398.0	1
3.0.1	2019_Mar_11_0915	s	s	8	1	Capacity	32	3_1	3	1	4	1	23_4_1	-1	0	1	0	0.732497930527	-500.0	-262.0	-500.0	-260.0	1
3.0.1	2019_Mar_11_0915	s	s	8	1	Capacity	33	2_1	2	1	3	1	23_3_1	1	0	1	0	0.664396047592	-86.0	-92.0	-82.0	-86.0	1
3.0.1	2019_Mar_11_0915	s	s	8	1	Capacity	34	ABS	0	0	4	1	24_4_1	NA	NA	0	1	7.14120912552	None	None	None	None	1
3.0.1	2019_Mar_11_0915	s	s	8	1	Capacity	35	1_1	1	1	2	1	23_2_1	1	0	1	0	4.53170490265	-15.0	-227.0	-19.0	-226.0	1
3.0.1	2019_Mar_11_0915	s	s	8	1	Capacity	36	ABS	0	0	3	1	24_3_1	NA	NA	0	1	5.09186506271	None	None	None	None	1
3.0.1	2019_Mar_11_0915	s	s	8	1	Capacity	37	3_1	3	1	2	1	23_2_1	1	0	1	0	0.916647911072	-384.0	-313.0	-386.0	-308.0	1
3.0.1	2019_Mar_11_0915	s	s	8	1	Capacity	38	ABS	0	0	2	1	24_2_1	NA	NA	0	1	6.76187992096	None	None	None	None	1
3.0.1	2019_Mar_11_0915	s	s	8	1	Capacity	39	4_1	4	1	1	1	23_1_1	3	0	1	0	0.670156002045	87.0	101.0	90.0	103.0	1
3.0.1	2019_Mar_11_0915	s	s	8	1	Capacity	40	1_1	1	1	4	1	23_4_1	3	0	1	0	0.763753890991	-198.0	312.0	-195.0	301.0	1
3.0.1	2019_Mar_11_0915	s	s	8	1	Capacity	41	ABS	0	0	1	1	24_1_1	NA	NA	0	1	4.32029294968	None	None	None	None	1
3.0.1	2019_Mar_11_0915	s	s	8	1	Capacity	42	ABS	0	0	4	1	24_4_1	NA	NA	0	1	4.62150597572	None	None	None	None	1
3.0.1	2019_Mar_11_0915	s	s	8	1	Capacity	43	4_1	4	1	3	1	23_3_1	1	0	1	0	1.45105099678	-308.0	253.0	-310.0	257.0	1
3.0.1	2019_Mar_11_0915	s	s	8	1	Capacity	44	ABS	0	0	3	1	24_3_1	NA	NA	0	1	7.24906206131	None	None	None	None	1
3.0.1	2019_Mar_11_0915	s	s	8	1	Capacity	45	ABS	0	0	1	1	24_1_1	NA	NA	0	1	7.80871891975	None	None	None	None	1
3.0.1	2019_Mar_11_0915	s	s	8	1	Capacity	46	ABS	0	0	4	1	24_4_1	NA	NA	0	1	7.14123296738	None	None	None	None	1
3.0.1	2019_Mar_11_0915	s	s	8	1	Capacity	47	3_1	3	1	1	1	23_1_1	2	0	1	0	0.822646856308	350.0	-44.0	341.0	-47.0	1
3.0.1	2019_Mar_11_0915	s	s	8	1	Capacity	48	4_1	4	1	2	1	23_2_1	2	0	1	0	1.10496902466	-68.0	259.0	-70.0	259.0	1
3.0.1	2019_Mar_11_0915	s	s	8	1	Capacity	49	ABS	0	0	2	1	24_2_1	NA	NA	0	1	5.87986302376	None	None	None	None	1
3.0.1	2019_Mar_11_0915	s	s	8	1	Capacity	50	4_1	4	1	3	1	23_3_1	1	0	1	0	1.20667099953	35.0	141.0	41.0	136.0	1
3.0.1	2019_Mar_11_0915	s	s	8	1	Capacity	51	ABS	0	0	3	1	24_3_1	NA	NA	0	1	5.44010806084	None	None	None	None	1
3.0.1	2019_Mar_11_0915	s	s	8	1	Capacity	52	3_1	3	1	2	1	23_2_1	1	0	1	0	0.77561211586	116.0	260.0	118.0	250.0	1
3.0.1	2019_Mar_11_0915	s	s	8	1	Capacity	53	ABS	0	0	4	1	24_4_1	NA	NA	0	1	6.38256597519	None	None	None	None	1
3.0.1	2019_Mar_11_0915	s	s	8	1	Capacity	54	ABS	0	0	4	1	24_4_1	NA	NA	0	1	5.79752612114	None	None	None	None	1
3.0.1	2019_Mar_11_0915	s	s	8	1	Capacity	55	4_1	4	1	2	1	23_2_1	2	0	1	0	0.763803005219	433.0	-334.0	437.0	-337.0	1
3.0.1	2019_Mar_11_0915	s	s	8	1	Capacity	56	1_1	1	1	2	1	23_2_1	1	0	1	0	1.16371011734	244.0	-29.0	247.0	-24.0	1
3.0.1	2019_Mar_11_0915	s	s	8	1	Capacity	57	ABS	0	0	3	1	24_3_1	NA	NA	0	1	7.86062312126	None	None	None	None	1
3.0.1	2019_Mar_11_0915	s	s	8	1	Capacity	58	ABS	0	0	1	1	24_1_1	NA	NA	0	1	6.23780417442	None	None	None	None	1
3.0.1	2019_Mar_11_0915	s	s	8	1	Capacity	59	4_1	4	1	1	1	23_1_1	3	0	1	0	0.767987966537	-326.0	250.0	-337.0	252.0	1
3.0.1	2019_Mar_11_0915	s	s	8	1	Capacity	60	ABS	0	0	4	1	24_4_1	NA	NA	0	1	5.86219215393	None	None	None	None	1
3.0.1	2019_Mar_11_0915	s	s	8	1	Capacity	61	ABS	0	0	1	1	24_1_1	NA	NA	0	1	4.57436418533	None	None	None	None	1
3.0.1	2019_Mar_11_0915	s	s	8	1	Capacity	62	2_1	2	1	4	1	23_4_1	2	0	1	0	0.775544881821	-7.0	297.0	-6.0	294.0	1
3.0.1	2019_Mar_11_0915	s	s	8	1	Capacity	63	3_1	3	1	4	1	23_4_1	-1	0	1	0	1.82520008087	303.0	306.0	308.0	306.0	1
3.0.1	2019_Mar_11_0915	s	s	8	1	Capacity	64	2_1	2	1	3	1	23_3_1	1	0	1	0	0.97553896904	-72.0	-344.0	-81.0	-345.0	1
3.0.1	2019_Mar_11_0915	s	s	8	1	Capacity	65	ABS	0	0	1	1	24_1_1	NA	NA	0	1	4.54208397865	None	None	None	None	1
3.0.1	2019_Mar_11_0915	s	s	8	1	Capacity	66	3_1	3	1	1	1	23_1_1	2	0	1	0	0.663247823715	-113.0	381.0	-113.0	386.0	1
3.0.1	2019_Mar_11_0915	s	s	8	1	Capacity	67	ABS	0	0	3	1	24_3_1	NA	NA	0	1	6.05628490448	None	None	None	None	1
3.0.1	2019_Mar_11_0915	s	s	8	1	Capacity	68	1_1	1	1	4	1	23_4_1	3	0	1	0	0.678290128708	-371.0	-358.0	-369.0	-352.0	1
3.0.1	2019_Mar_11_0915	s	s	8	1	Capacity	69	1_1	1	1	3	1	23_3_1	2	0	1	0	0.672563076019	214.0	192.0	210.0	186.0	1
3.0.1	2019_Mar_11_0915	s	s	8	1	Capacity	70	ABS	0	0	2	1	24_2_1	NA	NA	0	1	5.12725901604	None	None	None	None	1
3.0.1	2019_Mar_11_0915	s	s	8	1	Capacity	71	2_1	2	1	1	1	23_1_1	-1	0	1	0	1.22848296165	311.0	223.0	312.0	220.0	1
3.0.1	2019_Mar_11_0915	s	s	8	1	Capacity	72	ABS	0	0	2	1	24_2_1	NA	NA	0	1	6.34333300591	None	None	None	None	1
3.0.1	2019_Mar_11_0915	s	s	8	1	Capacity	73	2_1	2	1	4	1	23_4_1	2	0	1	0	0.704969882965	19.0	-49.0	16.0	-45.0	1
3.0.1	2019_Mar_11_0915	s	s	8	1	Capacity	74	3_1	3	1	2	1	23_2_1	1	0	1	0	1.02759695053	467.0	154.0	469.0	151.0	1
3.0.1	2019_Mar_11_0915	s	s	8	1	Capacity	75	ABS	0	0	1	1	24_1_1	NA	NA	0	1	3.65457892418	None	None	None	None	1
3.0.1	2019_Mar_11_0915	s	s	8	1	Capacity	76	1_1	1	1	2	1	23_2_1	1	0	1	0	1.93994212151	466.0	341.0	471.0	335.0	1
3.0.1	2019_Mar_11_0915	s	s	8	1	Capacity	77	1_1	1	1	4	1	23_4_1	3	0	1	0	0.794061183929	308.0	-43.0	314.0	-41.0	1
3.0.1	2019_Mar_11_0915	s	s	8	1	Capacity	78	ABS	0	0	4	1	24_4_1	NA	NA	0	1	3.46883392334	None	None	None	None	1
3.0.1	2019_Mar_11_0915	s	s	8	1	Capacity	79	2_1	2	1	1	1	23_1_1	-1	0	1	0	2.29302597046	-318.0	-80.0	-306.0	-74.0	1
3.0.1	2019_Mar_11_0915	s	s	8	1	Capacity	80	ABS	0	0	3	1	24_3_1	NA	NA	0	1	3.88041114807	None	None	None	None	1
3.0.1	2019_Mar_11_0915	s	s	8	1	Capacity	81	3_1	3	1	1	1	23_1_1	2	0	1	0	1.11009597778	-263.0	-290.0	-255.0	-292.0	1
3.0.1	2019_Mar_11_0915	s	s	8	1	Capacity	82	ABS	0	0	3	1	24_3_1	NA	NA	0	1	6.76196098328	None	None	None	None	1
3.0.1	2019_Mar_11_0915	s	s	8	1	Capacity	83	ABS	0	0	4	1	24_4_1	NA	NA	0	1	4.32144284248	None	None	None	None	1
3.0.1	2019_Mar_11_0915	s	s	8	1	Capacity	84	ABS	0	0	4	1	24_4_1	NA	NA	0	1	5.42127609253	None	None	None	None	1
3.0.1	2019_Mar_11_0915	s	s	8	1	Capacity	85	4_1	4	1	3	1	23_3_1	1	0	1	0	0.657932043076	-32.0	253.0	-29.0	243.0	1
3.0.1	2019_Mar_11_0915	s	s	8	1	Capacity	86	4_1	4	1	2	1	23_2_1	2	0	1	0	0.634407997131	417.0	54.0	418.0	52.0	1
3.0.1	2019_Mar_11_0915	s	s	8	1	Capacity	87	ABS	0	0	1	1	24_1_1	NA	NA	0	1	5.34382009506	None	None	None	None	1
3.0.1	2019_Mar_11_0915	s	s	8	1	Capacity	88	ABS	0	0	1	1	24_1_1	NA	NA	0	1	4.72047185898	None	None	None	None	1
3.0.1	2019_Mar_11_0915	s	s	8	1	Capacity	89	1_1	1	1	3	1	23_3_1	2	0	1	0	0.987292051315	-153.0	-139.0	-148.0	-132.0	1
3.0.1	2019_Mar_11_0915	s	s	8	1	Capacity	90	ABS	0	0	3	1	24_3_1	NA	NA	0	1	4.81481981277	None	None	None	None	1
3.0.1	2019_Mar_11_0915	s	s	8	1	Capacity	91	3_1	3	1	4	1	23_4_1	-1	0	1	0	0.931462049484	-403.0	369.0	-407.0	372.0	1
3.0.1	2019_Mar_11_0915	s	s	8	1	Capacity	92	ABS	0	0	2	1	24_2_1	NA	NA	0	1	7.47948503494	None	None	None	None	1
3.0.1	2019_Mar_11_0915	s	s	8	1	Capacity	93	4_1	4	1	1	1	23_1_1	3	0	1	0	0.810858011246	274.0	133.0	271.0	128.0	1
3.0.1	2019_Mar_11_0915	s	s	8	1	Capacity	94	2_1	2	1	3	1	23_3_1	1	0	1	0	1.07425999641	416.0	-88.0	417.0	-89.0	1
3.0.1	2019_Mar_11_0915	s	s	8	1	Capacity	95	ABS	0	0	2	1	24_2_1	NA	NA	0	1	6.19051980972	None	None	None	None	1
3.0.1	2019_Mar_11_0915	s	s	8	1	Capacity	96	ABS	0	0	2	1	24_2_1	NA	NA	0	1	6.02389216423	None	None	None	None	1
3.0.1	2019_Mar_11_0915	s	s	8	1	SIC	1	1_2	1	2	4	1	23_4_1	3	-1	1	0	0.705424070358	-203.0	-40.0	-196.0	-34.0	1
3.0.1	2019_Mar_11_0915	s	s	8	1	SIC	2	ABS	0	0	3	4	24_3_4	NA	NA	0	1	2.89256000519	None	None	None	None	1
3.0.1	2019_Mar_11_0915	s	s	8	1	SIC	3	1_4	1	4	1	2	23_1_2	0	2	1	0	0.881441831589	176.0	220.0	161.0	229.0	1
3.0.1	2019_Mar_11_0915	s	s	8	1	SIC	4	ABS	0	0	4	3	24_4_3	NA	NA	0	1	5.38597202301	None	None	None	None	1
3.0.1	2019_Mar_11_0915	s	s	8	1	SIC	5	ABS	0	0	1	3	24_1_3	NA	NA	0	1	5.64982700348	None	None	None	None	1
3.0.1	2019_Mar_11_0915	s	s	8	1	SIC	6	3_2	3	2	1	4	23_1_4	2	2	1	0	0.775589942932	385.0	229.0	381.0	222.0	1
3.0.1	2019_Mar_11_0915	s	s	8	1	SIC	7	ABS	0	0	1	1	24_1_1	NA	NA	0	1	4.94487595558	None	None	None	None	1
3.0.1	2019_Mar_11_0915	s	s	8	1	SIC	8	2_4	2	4	1	4	23_1_4	-1	0	1	0	3.95624399185	516.0	-116.0	511.0	-123.0	1
3.0.1	2019_Mar_11_0915	s	s	8	1	SIC	9	ABS	0	0	3	3	24_3_3	NA	NA	0	1	7.5893330574	None	None	None	None	1
3.0.1	2019_Mar_11_0915	s	s	8	1	SIC	10	3_4	3	4	4	1	23_4_1	-1	3	1	0	1.37824082375	42.0	280.0	46.0	276.0	1
3.0.1	2019_Mar_11_0915	s	s	8	1	SIC	11	3_1	3	1	1	2	23_1_2	2	1	1	0	0.790215015411	46.0	390.0	53.0	392.0	1
3.0.1	2019_Mar_11_0915	s	s	8	1	SIC	12	4_1	4	1	4	3	23_4_3	0	2	1	0	3.72490715981	-213.0	-300.0	-210.0	-297.0	1
3.0.1	2019_Mar_11_0915	s	s	8	1	SIC	13	4_4	4	4	1	3	23_1_3	3	1	1	0	0.663084983826	49.0	120.0	52.0	124.0	1
3.0.1	2019_Mar_11_0915	s	s	8	1	SIC	14	ABS	0	0	4	4	24_4_4	NA	NA	0	1	5.01245903969	None	None	None	None	1
3.0.1	2019_Mar_11_0915	s	s	8	1	SIC	15	4_4	4	4	4	1	23_4_1	0	3	1	0	1.31947088242	-341.0	55.0	-340.0	53.0	1
3.0.1	2019_Mar_11_0915	s	s	8	1	SIC	16	ABS	0	0	1	2	24_1_2	NA	NA	0	1	6.27429509163	None	None	None	None	1
3.0.1	2019_Mar_11_0915	s	s	8	1	SIC	17	4_4	4	4	2	2	23_2_2	2	2	1	0	0.814828872681	465.0	128.0	464.0	127.0	1
3.0.1	2019_Mar_11_0915	s	s	8	1	SIC	18	3_1	3	1	1	3	23_1_3	2	2	1	0	0.781941175461	169.0	-249.0	166.0	-240.0	1
3.0.1	2019_Mar_11_0915	s	s	8	1	SIC	19	2_4	2	4	3	1	23_3_1	1	3	1	0	0.933173179626	-513.0	175.0	-516.0	176.0	1
3.0.1	2019_Mar_11_0915	s	s	8	1	SIC	20	4_3	4	3	3	2	23_3_2	1	1	1	0	0.710568904877	-228.0	122.0	-237.0	123.0	1
3.0.1	2019_Mar_11_0915	s	s	8	1	SIC	21	ABS	0	0	4	2	24_4_2	NA	NA	0	1	6.99072194099	None	None	None	None	1
3.0.1	2019_Mar_11_0915	s	s	8	1	SIC	22	ABS	0	0	2	3	24_2_3	NA	NA	0	1	6.29625988007	None	None	None	None	1
3.0.1	2019_Mar_11_0915	s	s	8	1	SIC	23	ABS	0	0	2	4	24_2_4	NA	NA	0	1	6.30622386932	None	None	None	None	1
3.0.1	2019_Mar_11_0915	s	s	8	1	SIC	24	3_4	3	4	2	3	23_2_3	1	1	1	0	0.863586902618	76.0	230.0	77.0	227.0	1
3.0.1	2019_Mar_11_0915	s	s	8	1	SIC	25	3_1	3	1	4	3	23_4_3	-1	2	1	0	0.716783046722	249.0	181.0	244.0	180.0	1
3.0.1	2019_Mar_11_0915	s	s	8	1	SIC	26	1_1	1	1	2	2	23_2_2	1	1	1	0	1.48124885559	-258.0	272.0	-255.0	281.0	1
3.0.1	2019_Mar_11_0915	s	s	8	1	SIC	27	ABS	0	0	4	2	24_4_2	NA	NA	0	1	5.96502304077	None	None	None	None	1
3.0.1	2019_Mar_11_0915	s	s	8	1	SIC	28	1_4	1	4	4	1	23_4_1	3	3	1	0	0.634443998337	-459.0	-27.0	-462.0	-21.0	1
3.0.1	2019_Mar_11_0915	s	s	8	1	SIC	29	ABS	0	0	2	3	24_2_3	NA	NA	0	1	6.02495503426	None	None	None	None	1
3.0.1	2019_Mar_11_0915	s	s	8	1	SIC	30	ABS	0	0	1	4	24_1_4	NA	NA	0	1	3.46888303757	None	None	None	None	1
3.0.1	2019_Mar_11_0915	s	s	8	1	SIC	31	ABS	0	0	3	4	24_3_4	NA	NA	0	1	4.56687498093	None	None	None	None	1
3.0.1	2019_Mar_11_0915	s	s	8	1	SIC	32	ABS	0	0	4	4	24_4_4	NA	NA	0	1	4.76255297661	None	None	None	None	1
3.0.1	2019_Mar_11_0915	s	s	8	1	SIC	33	ABS	0	0	2	2	24_2_2	NA	NA	0	1	9.65524792671	None	None	None	None	1
3.0.1	2019_Mar_11_0915	s	s	8	1	SIC	34	4_4	4	4	3	2	23_3_2	1	2	1	0	0.857918024063	132.0	-172.0	131.0	-171.0	1
3.0.1	2019_Mar_11_0915	s	s	8	1	SIC	35	ABS	0	0	1	1	24_1_1	NA	NA	0	1	4.29210710526	None	None	None	None	1
3.0.1	2019_Mar_11_0915	s	s	8	1	SIC	36	ABS	0	0	1	4	24_1_4	NA	NA	0	1	5.26500105858	None	None	None	None	1
3.0.1	2019_Mar_11_0915	s	s	8	1	SIC	37	1_2	1	2	1	4	23_1_4	0	2	1	0	1.83408379555	60.0	-261.0	49.0	-252.0	1
3.0.1	2019_Mar_11_0915	s	s	8	1	SIC	38	3_4	3	4	2	2	23_2_2	1	2	1	0	0.740212202072	321.0	-220.0	323.0	-213.0	1
3.0.1	2019_Mar_11_0915	s	s	8	1	SIC	39	4_1	4	1	2	2	23_2_2	2	1	1	0	0.601903915405	256.0	-282.0	260.0	-281.0	1
3.0.1	2019_Mar_11_0915	s	s	8	1	SIC	40	ABS	0	0	4	1	24_4_1	NA	NA	0	1	6.81176805496	None	None	None	None	1
3.0.1	2019_Mar_11_0915	s	s	8	1	SIC	41	2_1	2	1	1	1	23_1_1	-1	0	1	0	1.03433585167	-3.0	278.0	-7.0	279.0	1
3.0.1	2019_Mar_11_0915	s	s	8	1	SIC	42	ABS	0	0	4	3	24_4_3	NA	NA	0	1	6.75663709641	None	None	None	None	1
3.0.1	2019_Mar_11_0915	s	s	8	1	SIC	43	ABS	0	0	3	4	24_3_4	NA	NA	0	1	3.97001814842	None	None	None	None	1
3.0.1	2019_Mar_11_0915	s	s	8	1	SIC	44	2_4	2	4	2	3	23_2_3	0	1	1	0	0.8813560009	359.0	-112.0	349.0	-110.0	1
3.0.1	2019_Mar_11_0915	s	s	8	1	SIC	45	1_1	1	1	4	3	23_4_3	3	2	1	0	0.849000930786	-82.0	-379.0	-86.0	-375.0	1
3.0.1	2019_Mar_11_0915	s	s	8	1	SIC	46	2_2	2	2	3	4	23_3_4	1	2	1	0	0.921191930771	498.0	-66.0	504.0	-56.0	1
3.0.1	2019_Mar_11_0915	s	s	8	1	SIC	47	1_3	1	3	4	1	23_4_1	3	2	1	0	0.957274913788	-444.0	302.0	-440.0	297.0	1
3.0.1	2019_Mar_11_0915	s	s	8	1	SIC	48	4_3	4	3	4	1	23_4_1	0	2	1	0	1.86933708191	-485.0	15.0	-487.0	12.0	1
3.0.1	2019_Mar_11_0915	s	s	8	1	SIC	49	2_3	2	3	2	1	23_2_1	0	2	1	0	1.58708095551	199.0	-56.0	199.0	-54.0	1
3.0.1	2019_Mar_11_0915	s	s	8	1	SIC	50	ABS	0	0	2	4	24_2_4	NA	NA	0	1	6.57259511948	None	None	None	None	1
3.0.1	2019_Mar_11_0915	s	s	8	1	SIC	51	4_1	4	1	3	4	23_3_4	1	3	1	0	0.634402036667	-86.0	-106.0	-89.0	-112.0	1
3.0.1	2019_Mar_11_0915	s	s	8	1	SIC	52	ABS	0	0	3	4	24_3_4	NA	NA	0	1	4.01920199394	None	None	None	None	1
3.0.1	2019_Mar_11_0915	s	s	8	1	SIC	53	ABS	0	0	1	3	24_1_3	NA	NA	0	1	5.46834301949	None	None	None	None	1
3.0.1	2019_Mar_11_0915	s	s	8	1	SIC	54	ABS	0	0	1	2	24_1_2	NA	NA	0	1	7.97842884064	None	None	None	None	1
3.0.1	2019_Mar_11_0915	s	s	8	1	SIC	55	ABS	0	0	3	2	24_3_2	NA	NA	0	1	7.57894396782	None	None	None	None	1
3.0.1	2019_Mar_11_0915	s	s	8	1	SIC	56	3_4	3	4	4	4	23_4_4	-1	0	1	0	0.790256023407	266.0	-145.0	272.0	-137.0	1
3.0.1	2019_Mar_11_0915	s	s	8	1	SIC	57	ABS	0	0	1	2	24_1_2	NA	NA	0	1	12.11332798	None	None	None	None	1
3.0.1	2019_Mar_11_0915	s	s	8	1	SIC	58	ABS	0	0	2	1	24_2_1	NA	NA	0	1	9.22565507889	None	None	None	None	1
3.0.1	2019_Mar_11_0915	s	s	8	1	SIC	59	ABS	0	0	4	4	24_4_4	NA	NA	0	1	4.2080271244	None	None	None	None	1
3.0.1	2019_Mar_11_0915	s	s	8	1	SIC	60	ABS	0	0	2	2	24_2_2	NA	NA	0	1	8.7424120903	None	None	None	None	1
3.0.1	2019_Mar_11_0915	s	s	8	1	SIC	61	ABS	0	0	3	2	24_3_2	NA	NA	0	1	7.78521084785	None	None	None	None	1
3.0.1	2019_Mar_11_0915	s	s	8	1	SIC	62	4_3	4	3	2	1	23_2_1	2	2	1	0	0.849008083344	-374.0	-126.0	-378.0	-129.0	1
3.0.1	2019_Mar_11_0915	s	s	8	1	SIC	63	ABS	0	0	4	3	24_4_3	NA	NA	0	1	10.448499918	None	None	None	None	1
3.0.1	2019_Mar_11_0915	s	s	8	1	SIC	64	3_2	3	2	4	4	23_4_4	-1	2	1	0	0.614206790924	475.0	184.0	470.0	178.0	1
3.0.1	2019_Mar_11_0915	s	s	8	1	SIC	65	ABS	0	0	3	1	24_3_1	NA	NA	0	1	6.5035970211	None	None	None	None	1
3.0.1	2019_Mar_11_0915	s	s	8	1	SIC	66	ABS	0	0	3	4	24_3_4	NA	NA	0	1	5.34161901474	None	None	None	None	1
3.0.1	2019_Mar_11_0915	s	s	8	1	SIC	67	3_1	3	1	4	2	23_4_2	-1	1	1	0	0.834448099136	-287.0	408.0	-286.0	412.0	1
3.0.1	2019_Mar_11_0915	s	s	8	1	SIC	68	4_2	4	2	4	3	23_4_3	0	1	1	0	2.92777895927	214.0	-119.0	213.0	-118.0	1
3.0.1	2019_Mar_11_0915	s	s	8	1	SIC	69	ABS	0	0	1	4	24_1_4	NA	NA	0	1	5.26831388474	None	None	None	None	1
3.0.1	2019_Mar_11_0915	s	s	8	1	SIC	70	ABS	0	0	2	1	24_2_1	NA	NA	0	1	5.65643000603	None	None	None	None	1
3.0.1	2019_Mar_11_0915	s	s	8	1	SIC	71	3_3	3	3	1	3	23_1_3	2	0	1	0	0.73141503334	-412.0	-326.0	-423.0	-326.0	1
3.0.1	2019_Mar_11_0915	s	s	8	1	SIC	72	ABS	0	0	3	1	24_3_1	NA	NA	0	1	4.367841959	None	None	None	None	1
3.0.1	2019_Mar_11_0915	s	s	8	1	SIC	73	2_4	2	4	4	1	23_4_1	2	3	1	0	0.619411945343	-78.0	-76.0	-67.0	-73.0	1
3.0.1	2019_Mar_11_0915	s	s	8	1	SIC	74	ABS	0	0	4	4	24_4_4	NA	NA	0	1	2.84544682503	None	None	None	None	1
3.0.1	2019_Mar_11_0915	s	s	8	1	SIC	75	2_1	2	1	4	4	23_4_4	2	3	1	0	0.516902923584	158.0	52.0	156.0	56.0	1
3.0.1	2019_Mar_11_0915	s	s	8	1	SIC	76	ABS	0	0	2	1	24_2_1	NA	NA	0	1	6.15040898323	None	None	None	None	1
3.0.1	2019_Mar_11_0915	s	s	8	1	SIC	77	2_4	2	4	3	3	23_3_3	1	1	1	0	1.05781292915	-47.0	-397.0	-48.0	-398.0	1
3.0.1	2019_Mar_11_0915	s	s	8	1	SIC	78	ABS	0	0	2	1	24_2_1	NA	NA	0	1	5.31826305389	None	None	None	None	1
3.0.1	2019_Mar_11_0915	s	s	8	1	SIC	79	4_4	4	4	2	4	23_2_4	2	0	1	0	0.613781929016	-83.0	360.0	-77.0	363.0	1
3.0.1	2019_Mar_11_0915	s	s	8	1	SIC	80	3_1	3	1	2	1	23_2_1	1	0	1	0	0.854635000229	-395.0	234.0	-399.0	234.0	1
3.0.1	2019_Mar_11_0915	s	s	8	1	SIC	81	4_4	4	4	4	2	23_4_2	0	2	1	0	1.30484104156	-276.0	-301.0	-274.0	-305.0	1
3.0.1	2019_Mar_11_0915	s	s	8	1	SIC	82	4_2	4	2	1	4	23_1_4	3	2	1	0	0.751977920532	277.0	-167.0	278.0	-165.0	1
3.0.1	2019_Mar_11_0915	s	s	8	1	SIC	83	ABS	0	0	4	1	24_4_1	NA	NA	0	1	3.86869096756	None	None	None	None	1
3.0.1	2019_Mar_11_0915	s	s	8	1	SIC	84	3_3	3	3	3	4	23_3_4	0	-1	1	0	1.02543091774	112.0	-184.0	114.0	-179.0	1
3.0.1	2019_Mar_11_0915	s	s	8	1	SIC	85	1_3	1	3	2	1	23_2_1	1	2	1	0	0.876250982285	-89.0	246.0	-88.0	248.0	1
3.0.1	2019_Mar_11_0915	s	s	8	1	SIC	86	ABS	0	0	2	2	24_2_2	NA	NA	0	1	6.23827815056	None	None	None	None	1
3.0.1	2019_Mar_11_0915	s	s	8	1	SIC	87	2_1	2	1	4	3	23_4_3	2	2	1	0	0.79528594017	-311.0	-385.0	-305.0	-387.0	1
3.0.1	2019_Mar_11_0915	s	s	8	1	SIC	88	ABS	0	0	1	1	24_1_1	NA	NA	0	1	3.99819302559	None	None	None	None	1
3.0.1	2019_Mar_11_0915	s	s	8	1	SIC	89	ABS	0	0	2	3	24_2_3	NA	NA	0	1	6.87990617752	None	None	None	None	1
3.0.1	2019_Mar_11_0915	s	s	8	1	SIC	90	3_2	3	2	1	1	23_1_1	2	-1	1	0	0.780488014221	123.0	102.0	117.0	103.0	1
3.0.1	2019_Mar_11_0915	s	s	8	1	SIC	91	2_3	2	3	4	3	23_4_3	2	0	1	0	0.677453041077	265.0	-403.0	264.0	-413.0	1
3.0.1	2019_Mar_11_0915	s	s	8	1	SIC	92	ABS	0	0	4	2	24_4_2	NA	NA	0	1	6.9796397686	None	None	None	None	1
3.0.1	2019_Mar_11_0915	s	s	8	1	SIC	93	2_4	2	4	3	4	23_3_4	1	0	1	0	1.08425784111	471.0	-270.0	480.0	-267.0	1
3.0.1	2019_Mar_11_0915	s	s	8	1	SIC	94	4_4	4	4	1	1	23_1_1	3	3	1	0	0.795588970184	-413.0	291.0	-415.0	290.0	1
3.0.1	2019_Mar_11_0915	s	s	8	1	SIC	95	3_1	3	1	1	4	23_1_4	2	3	1	0	0.622629880905	-440.0	-66.0	-433.0	-65.0	1
3.0.1	2019_Mar_11_0915	s	s	8	1	SIC	96	2_3	2	3	2	4	23_2_4	0	-1	1	0	2.85246300697	-401.0	295.0	-403.0	294.0	1
3.0.1	2019_Mar_11_0915	s	s	8	1	SIC	97	ABS	0	0	3	2	24_3_2	NA	NA	0	1	8.33033490181	None	None	None	None	1
3.0.1	2019_Mar_11_0915	s	s	8	1	SIC	98	1_4	1	4	2	4	23_2_4	1	0	1	0	1.22287893295	333.0	-172.0	335.0	-168.0	1
3.0.1	2019_Mar_11_0915	s	s	8	1	SIC	99	4_4	4	4	3	4	23_3_4	1	0	1	0	0.677727937698	197.0	280.0	199.0	280.0	1
3.0.1	2019_Mar_11_0915	s	s	8	1	SIC	100	3_4	3	4	3	3	23_3_3	0	1	1	0	1.23832201958	384.0	33.0	381.0	28.0	1
3.0.1	2019_Mar_11_0915	s	s	8	1	SIC	101	4_4	4	4	4	3	23_4_3	0	1	1	0	1.21578216553	-493.0	275.0	-485.0	280.0	1
3.0.1	2019_Mar_11_0915	s	s	8	1	SIC	102	2_2	2	2	1	3	23_1_3	-1	1	1	0	2.36844491959	470.0	204.0	464.0	196.0	1
3.0.1	2019_Mar_11_0915	s	s	8	1	SIC	103	4_2	4	2	3	3	23_3_3	1	1	1	0	0.893182039261	365.0	329.0	370.0	332.0	1
3.0.1	2019_Mar_11_0915	s	s	8	1	SIC	104	3_4	3	4	1	1	23_1_1	2	3	1	0	1.09308290482	-287.0	-370.0	-288.0	-371.0	1
3.0.1	2019_Mar_11_0915	s	s	8	1	SIC	105	3_1	3	1	2	4	23_2_4	1	3	1	0	0.681846857071	-486.0	87.0	-487.0	88.0	1
3.0.1	2019_Mar_11_0915	s	s	8	1	SIC	106	ABS	0	0	4	2	24_4_2	NA	NA	0	1	7.16182184219	None	None	None	None	1
3.0.1	2019_Mar_11_0915	s	s	8	1	SIC	107	2_3	2	3	2	2	23_2_2	0	1	1	0	7.16179895401	211.0	-273.0	215.0	-274.0	1
3.0.1	2019_Mar_11_0915	s	s	8	1	SIC	108	ABS	0	0	4	3	24_4_3	NA	NA	0	1	4.93021702766	None	None	None	None	1
3.0.1	2019_Mar_11_0915	s	s	8	1	SIC	109	ABS	0	0	1	1	24_1_1	NA	NA	0	1	3.11604189873	None	None	None	None	1
3.0.1	2019_Mar_11_0915	s	s	8	1	SIC	110	ABS	0	0	1	3	24_1_3	NA	NA	0	1	5.2498459816	None	None	None	None	1
3.0.1	2019_Mar_11_0915	s	s	8	1	SIC	111	ABS	0	0	2	3	24_2_3	NA	NA	0	1	5.40249490738	None	None	None	None	1
3.0.1	2019_Mar_11_0915	s	s	8	1	SIC	112	ABS	0	0	1	2	24_1_2	NA	NA	0	1	7.5029399395	None	None	None	None	1
3.0.1	2019_Mar_11_0915	s	s	8	1	SIC	113	ABS	0	0	2	2	24_2_2	NA	NA	0	1	8.4085958004	None	None	None	None	1
3.0.1	2019_Mar_11_0915	s	s	8	1	SIC	114	ABS	0	0	2	1	24_2_1	NA	NA	0	1	6.93876385689	None	None	None	None	1
3.0.1	2019_Mar_11_0915	s	s	8	1	SIC	115	1_4	1	4	3	3	23_3_3	2	1	1	0	1.08444809914	408.0	262.0	402.0	256.0	1
3.0.1	2019_Mar_11_0915	s	s	8	1	SIC	116	4_3	4	3	4	4	23_4_4	0	-1	1	0	0.881440877914	-12.0	255.0	-5.0	249.0	1
3.0.1	2019_Mar_11_0915	s	s	8	1	SIC	117	ABS	0	0	3	1	24_3_1	NA	NA	0	1	5.47343206406	None	None	None	None	1
3.0.1	2019_Mar_11_0915	s	s	8	1	SIC	118	1_3	1	3	2	2	23_2_2	1	1	1	0	0.849057197571	-122.0	316.0	-117.0	311.0	1
3.0.1	2019_Mar_11_0915	s	s	8	1	SIC	119	1_1	1	1	1	3	23_1_3	0	2	1	0	3.56282687187	196.0	-300.0	195.0	-313.0	1
3.0.1	2019_Mar_11_0915	s	s	8	1	SIC	120	3_3	3	3	2	1	23_2_1	1	2	1	0	1.11655092239	83.0	-332.0	87.0	-332.0	1
3.0.1	2019_Mar_11_0915	s	s	8	1	SIC	121	ABS	0	0	3	2	24_3_2	NA	NA	0	1	8.82017588615	None	None	None	None	1
3.0.1	2019_Mar_11_0915	s	s	8	1	SIC	122	3_4	3	4	3	1	23_3_1	0	3	1	0	0.827348947525	-183.0	328.0	-177.0	324.0	1
3.0.1	2019_Mar_11_0915	s	s	8	1	SIC	123	1_3	1	3	4	3	23_4_3	3	0	1	0	0.673002004623	300.0	-251.0	307.0	-249.0	1
3.0.1	2019_Mar_11_0915	s	s	8	1	SIC	124	ABS	0	0	4	2	24_4_2	NA	NA	0	1	6.80893492699	None	None	None	None	1
3.0.1	2019_Mar_11_0915	s	s	8	1	SIC	125	ABS	0	0	3	1	24_3_1	NA	NA	0	1	3.57779598236	None	None	None	None	1
3.0.1	2019_Mar_11_0915	s	s	8	1	SIC	126	4_3	4	3	1	4	23_1_4	3	-1	1	0	1.01082801819	-414.0	-234.0	-419.0	-235.0	1
3.0.1	2019_Mar_11_0915	s	s	8	1	SIC	127	1_3	1	3	1	1	23_1_1	0	2	1	0	2.31112718582	380.0	158.0	385.0	163.0	1
3.0.1	2019_Mar_11_0915	s	s	8	1	SIC	128	ABS	0	0	1	3	24_1_3	NA	NA	0	1	4.44499993324	None	None	None	None	1
3.0.1	2019_Mar_11_0915	s	s	8	1	SIC	129	1_2	1	2	3	3	23_3_3	2	1	1	0	0.870015859604	-164.0	297.0	-166.0	298.0	1
3.0.1	2019_Mar_11_0915	s	s	8	1	SIC	130	4_3	4	3	1	3	23_1_3	3	0	1	0	0.592147111893	-254.0	215.0	-262.0	216.0	1
3.0.1	2019_Mar_11_0915	s	s	8	1	SIC	131	3_3	3	3	4	2	23_4_2	-1	1	1	0	0.557665109634	87.0	336.0	96.0	336.0	1
3.0.1	2019_Mar_11_0915	s	s	8	1	SIC	132	2_2	2	2	3	2	23_3_2	1	0	1	0	0.686897993088	-205.0	187.0	-205.0	191.0	1
3.0.1	2019_Mar_11_0915	s	s	8	1	SIC	133	1_1	1	1	4	4	23_4_4	3	3	1	0	0.992238998413	-506.0	122.0	-511.0	124.0	1
3.0.1	2019_Mar_11_0915	s	s	8	1	SIC	134	3_3	3	3	2	3	23_2_3	1	0	1	0	0.869736194611	-149.0	390.0	-156.0	387.0	1
3.0.1	2019_Mar_11_0915	s	s	8	1	SIC	135	1_4	1	4	4	3	23_4_3	3	1	1	0	0.677726984024	-428.0	261.0	-432.0	265.0	1
3.0.1	2019_Mar_11_0915	s	s	8	1	SIC	136	ABS	0	0	1	4	24_1_4	NA	NA	0	1	3.88050413132	None	None	None	None	1
3.0.1	2019_Mar_11_0915	s	s	8	1	SIC	137	2_1	2	1	1	2	23_1_2	-1	1	1	0	0.916678905487	-263.0	62.0	-262.0	62.0	1
3.0.1	2019_Mar_11_0915	s	s	8	1	SIC	138	1_2	1	2	4	2	23_4_2	3	0	1	0	0.605695962906	-467.0	-289.0	-458.0	-288.0	1
3.0.1	2019_Mar_11_0915	s	s	8	1	SIC	139	ABS	0	0	2	4	24_2_4	NA	NA	0	1	4.25977492332	None	None	None	None	1
3.0.1	2019_Mar_11_0915	s	s	8	1	SIC	140	ABS	0	0	2	2	24_2_2	NA	NA	0	1	7.78814792633	None	None	None	None	1
3.0.1	2019_Mar_11_0915	s	s	8	1	SIC	141	ABS	0	0	4	4	24_4_4	NA	NA	0	1	3.05722117424	None	None	None	None	1
3.0.1	2019_Mar_11_0915	s	s	8	1	SIC	142	ABS	0	0	1	3	24_1_3	NA	NA	0	1	6.95534920692	None	None	None	None	1
3.0.1	2019_Mar_11_0915	s	s	8	1	SIC	143	ABS	0	0	1	4	24_1_4	NA	NA	0	1	4.27368688583	None	None	None	None	1
3.0.1	2019_Mar_11_0915	s	s	8	1	SIC	144	ABS	0	0	3	1	24_3_1	NA	NA	0	1	4.44192290306	None	None	None	None	1
3.0.1	2019_Mar_11_0915	s	s	8	1	SIC	145	ABS	0	0	4	2	24_4_2	NA	NA	0	1	6.85029602051	None	None	None	None	1
3.0.1	2019_Mar_11_0915	s	s	8	1	SIC	146	ABS	0	0	1	4	24_1_4	NA	NA	0	1	4.68011713028	None	None	None	None	1
3.0.1	2019_Mar_11_0915	s	s	8	1	SIC	147	ABS	0	0	4	2	24_4_2	NA	NA	0	1	7.70294904709	None	None	None	None	1
3.0.1	2019_Mar_11_0915	s	s	8	1	SIC	148	ABS	0	0	2	3	24_2_3	NA	NA	0	1	7.53155398369	None	None	None	None	1
3.0.1	2019_Mar_11_0915	s	s	8	1	SIC	149	ABS	0	0	4	3	24_4_3	NA	NA	0	1	5.24990010262	None	None	None	None	1
3.0.1	2019_Mar_11_0915	s	s	8	1	SIC	150	ABS	0	0	1	3	24_1_3	NA	NA	0	1	7.37829995155	None	None	None	None	1
3.0.1	2019_Mar_11_0915	s	s	8	1	SIC	151	ABS	0	0	2	3	24_2_3	NA	NA	0	1	5.44149708748	None	None	None	None	1
3.0.1	2019_Mar_11_0915	s	s	8	1	SIC	152	ABS	0	0	1	3	24_1_3	NA	NA	0	1	5.46025300026	None	None	None	None	1
3.0.1	2019_Mar_11_0915	s	s	8	1	SIC	153	ABS	0	0	3	4	24_3_4	NA	NA	0	1	3.19605207443	None	None	None	None	1
3.0.1	2019_Mar_11_0915	s	s	8	1	SIC	154	2_2	2	2	3	1	23_3_1	1	-1	1	0	0.945330858231	-303.0	411.0	-306.0	418.0	1
3.0.1	2019_Mar_11_0915	s	s	8	1	SIC	155	ABS	0	0	2	3	24_2_3	NA	NA	0	1	4.82146191597	None	None	None	None	1
3.0.1	2019_Mar_11_0915	s	s	8	1	SIC	156	ABS	0	0	4	3	24_4_3	NA	NA	0	1	5.18606686592	None	None	None	None	1
3.0.1	2019_Mar_11_0915	s	s	8	1	SIC	157	ABS	0	0	3	4	24_3_4	NA	NA	0	1	3.22224998474	None	None	None	None	1
3.0.1	2019_Mar_11_0915	s	s	8	1	SIC	158	ABS	0	0	2	3	24_2_3	NA	NA	0	1	6.45652198792	None	None	None	None	1
3.0.1	2019_Mar_11_0915	s	s	8	1	SIC	159	ABS	0	0	4	2	24_4_2	NA	NA	0	1	6.69135499001	None	None	None	None	1
3.0.1	2019_Mar_11_0915	s	s	8	1	SIC	160	ABS	0	0	1	4	24_1_4	NA	NA	0	1	3.37761902809	None	None	None	None	1
3.0.1	2019_Mar_11_0915	s	s	8	1	SIC	161	ABS	0	0	3	1	24_3_1	NA	NA	0	1	4.69200396538	None	None	None	None	1
3.0.1	2019_Mar_11_0915	s	s	8	1	SIC	162	2_4	2	4	4	3	23_4_3	2	1	1	0	0.704941034317	134.0	-187.0	139.0	-185.0	1
3.0.1	2019_Mar_11_0915	s	s	8	1	SIC	163	ABS	0	0	2	1	24_2_1	NA	NA	0	1	7.28435587883	None	None	None	None	1
3.0.1	2019_Mar_11_0915	s	s	8	1	SIC	164	2_2	2	2	4	2	23_4_2	2	0	1	0	0.81082201004	459.0	352.0	469.0	352.0	1
3.0.1	2019_Mar_11_0915	s	s	8	1	SIC	165	ABS	0	0	3	2	24_3_2	NA	NA	0	1	7.50294184685	None	None	None	None	1
3.0.1	2019_Mar_11_0915	s	s	8	1	SIC	166	ABS	0	0	4	3	24_4_3	NA	NA	0	1	5.99749803543	None	None	None	None	1
3.0.1	2019_Mar_11_0915	s	s	8	1	SIC	167	ABS	0	0	4	1	24_4_1	NA	NA	0	1	3.34427785873	None	None	None	None	1
3.0.1	2019_Mar_11_0915	s	s	8	1	SIC	168	1_4	1	4	1	3	23_1_3	0	1	1	0	0.731450080872	63.0	72.0	64.0	78.0	1
3.0.1	2019_Mar_11_0915	s	s	8	1	SIC	169	3_4	3	4	2	4	23_2_4	1	0	1	0	1.69291114807	-522.0	-220.0	-520.0	-218.0	1
3.0.1	2019_Mar_11_0915	s	s	8	1	SIC	170	ABS	0	0	2	4	24_2_4	NA	NA	0	1	4.10740995407	None	None	None	None	1
3.0.1	2019_Mar_11_0915	s	s	8	1	SIC	171	3_4	3	4	1	3	23_1_3	2	1	1	0	0.872411966324	-404.0	-387.0	-398.0	-388.0	1
3.0.1	2019_Mar_11_0915	s	s	8	1	SIC	172	2_1	2	1	3	4	23_3_4	1	3	1	0	1.24603295326	421.0	179.0	416.0	173.0	1
3.0.1	2019_Mar_11_0915	s	s	8	1	SIC	173	3_3	3	3	4	3	23_4_3	-1	0	1	0	0.987276077271	506.0	400.0	509.0	401.0	1
3.0.1	2019_Mar_11_0915	s	s	8	1	SIC	174	3_2	3	2	3	3	23_3_3	0	1	1	0	2.01516008377	-62.0	289.0	-62.0	295.0	1
3.0.1	2019_Mar_11_0915	s	s	8	1	SIC	175	1_4	1	4	2	1	23_2_1	1	3	1	0	0.907837867737	363.0	-30.0	360.0	-27.0	1
3.0.1	2019_Mar_11_0915	s	s	8	1	SIC	176	ABS	0	0	4	1	24_4_1	NA	NA	0	1	6.11498093605	None	None	None	None	1
3.0.1	2019_Mar_11_0915	s	s	8	1	SIC	177	3_2	3	2	4	2	23_4_2	-1	0	1	0	0.627981185913	-521.0	16.0	-521.0	18.0	1
3.0.1	2019_Mar_11_0915	s	s	8	1	SIC	178	1_3	1	3	2	4	23_2_4	1	-1	1	0	1.11120510101	313.0	137.0	320.0	131.0	1
3.0.1	2019_Mar_11_0915	s	s	8	1	SIC	179	ABS	0	0	3	1	24_3_1	NA	NA	0	1	2.64555287361	None	None	None	None	1
3.0.1	2019_Mar_11_0915	s	s	8	1	SIC	180	ABS	0	0	2	2	24_2_2	NA	NA	0	1	8.78486990929	None	None	None	None	1
3.0.1	2019_Mar_11_0915	s	s	8	1	SIC	181	3_4	3	4	4	3	23_4_3	-1	1	1	0	0.781493902206	-199.0	-102.0	-196.0	-92.0	1
3.0.1	2019_Mar_11_0915	s	s	8	1	SIC	182	3_2	3	2	4	1	23_4_1	-1	-1	1	0	0.733568906784	-305.0	57.0	-304.0	55.0	1
3.0.1	2019_Mar_11_0915	s	s	8	1	SIC	183	ABS	0	0	3	2	24_3_2	NA	NA	0	1	8.80863809586	None	None	None	None	1
3.0.1	2019_Mar_11_0915	s	s	8	1	SIC	184	ABS	0	0	1	2	24_1_2	NA	NA	0	1	6.72240614891	None	None	None	None	1
3.0.1	2019_Mar_11_0915	s	s	8	1	SIC	185	ABS	0	0	4	1	24_4_1	NA	NA	0	1	3.55897498131	None	None	None	None	1
3.0.1	2019_Mar_11_0915	s	s	8	1	SIC	186	4_1	4	1	1	3	23_1_3	3	2	1	0	0.740259885788	-344.0	326.0	-348.0	319.0	1
3.0.1	2019_Mar_11_0915	s	s	8	1	SIC	187	2_2	2	2	2	1	23_2_1	0	-1	1	0	3.7680170536	-139.0	140.0	-138.0	138.0	1
3.0.1	2019_Mar_11_0915	s	s	8	1	SIC	188	4_2	4	2	4	1	23_4_1	0	-1	1	0	2.67196917534	488.0	-33.0	494.0	-34.0	1
3.0.1	2019_Mar_11_0915	s	s	8	1	SIC	189	ABS	0	0	3	1	24_3_1	NA	NA	0	1	4.53198218346	None	None	None	None	1
3.0.1	2019_Mar_11_0915	s	s	8	1	SIC	190	4_4	4	4	3	1	23_3_1	1	3	1	0	0.719656944275	-238.0	-199.0	-246.0	-198.0	1
3.0.1	2019_Mar_11_0915	s	s	8	1	SIC	191	4_4	4	4	3	3	23_3_3	1	1	1	0	0.516744852066	-373.0	-321.0	-380.0	-328.0	1
3.0.1	2019_Mar_11_0915	s	s	8	1	SIC	192	3_3	3	3	3	2	23_3_2	0	1	1	0	0.92175412178	-274.0	278.0	71.0	45.0	0
3.0.1	2019_Mar_11_0915	s	s	8	1	SIC	193	4_3	4	3	4	2	23_4_2	0	1	1	0	2.79844212532	31.0	131.0	33.0	128.0	1
3.0.1	2019_Mar_11_0915	s	s	8	1	SIC	194	3_1	3	1	1	1	23_1_1	2	0	1	0	0.721405982971	-230.0	-17.0	-220.0	-13.0	1
3.0.1	2019_Mar_11_0915	s	s	8	1	SIC	195	3_1	3	1	2	2	23_2_2	1	1	1	0	1.23422288895	-315.0	326.0	-317.0	332.0	1
3.0.1	2019_Mar_11_0915	s	s	8	1	SIC	196	2_4	2	4	3	2	23_3_2	1	2	1	0	1.24611401558	71.0	318.0	69.0	309.0	1
3.0.1	2019_Mar_11_0915	s	s	8	1	SIC	197	2_2	2	2	1	2	23_1_2	-1	0	1	0	7.16674804688	405.0	-150.0	402.0	-146.0	1
3.0.1	2019_Mar_11_0915	s	s	8	1	SIC	198	3_3	3	3	1	2	23_1_2	2	1	1	0	1.10486388206	-363.0	-232.0	-361.0	-240.0	1
3.0.1	2019_Mar_11_0915	s	s	8	1	SIC	199	ABS	0	0	3	4	24_3_4	NA	NA	0	1	2.44850087166	None	None	None	None	1
3.0.1	2019_Mar_11_0915	s	s	8	1	SIC	200	4_1	4	1	2	1	23_2_1	2	0	1	0	0.756826877594	-255.0	-186.0	-258.0	-181.0	1
3.0.1	2019_Mar_11_0915	s	s	8	1	SIC	201	3_2	3	2	1	3	23_1_3	2	1	1	0	1.15840888023	521.0	309.0	526.0	316.0	1
3.0.1	2019_Mar_11_0915	s	s	8	1	SIC	202	3_2	3	2	2	1	23_2_1	1	-1	1	0	1.08424115181	-486.0	-339.0	-479.0	-341.0	1
3.0.1	2019_Mar_11_0915	s	s	8	1	SIC	203	3_3	3	3	1	1	23_1_1	2	2	1	0	0.998953819275	519.0	344.0	526.0	340.0	1
3.0.1	2019_Mar_11_0915	s	s	8	1	SIC	204	ABS	0	0	1	4	24_1_4	NA	NA	0	1	4.38337612152	None	None	None	None	1
3.0.1	2019_Mar_11_0915	s	s	8	1	SIC	205	ABS	0	0	1	1	24_1_1	NA	NA	0	1	4.13968992233	None	None	None	None	1
3.0.1	2019_Mar_11_0915	s	s	8	1	SIC	206	ABS	0	0	3	3	24_3_3	NA	NA	0	1	4.69196510315	None	None	None	None	1
3.0.1	2019_Mar_11_0915	s	s	8	1	SIC	207	ABS	0	0	3	4	24_3_4	NA	NA	0	1	4.46850299835	None	None	None	None	1
3.0.1	2019_Mar_11_0915	s	s	8	1	SIC	208	ABS	0	0	1	1	24_1_1	NA	NA	0	1	4.96257209778	None	None	None	None	1
3.0.1	2019_Mar_11_0915	s	s	8	1	SIC	209	2_4	2	4	1	1	23_1_1	-1	3	1	0	0.897284984589	-475.0	-327.0	-479.0	-330.0	1
3.0.1	2019_Mar_11_0915	s	s	8	1	SIC	210	ABS	0	0	4	4	24_4_4	NA	NA	0	1	3.04954504967	None	None	None	None	1
3.0.1	2019_Mar_11_0915	s	s	8	1	SIC	211	3_4	3	4	4	2	23_4_2	-1	2	1	0	0.775568962097	404.0	-326.0	400.0	-324.0	1
3.0.1	2019_Mar_11_0915	s	s	8	1	SIC	212	ABS	0	0	1	2	24_1_2	NA	NA	0	1	8.96415901184	None	None	None	None	1
3.0.1	2019_Mar_11_0915	s	s	8	1	SIC	213	ABS	0	0	1	1	24_1_1	NA	NA	0	1	6.92660689354	None	None	None	None	1
3.0.1	2019_Mar_11_0915	s	s	8	1	SIC	214	ABS	0	0	1	3	24_1_3	NA	NA	0	1	6.18569803238	None	None	None	None	1
3.0.1	2019_Mar_11_0915	s	s	8	1	SIC	215	1_1	1	1	4	1	23_4_1	3	0	1	0	0.731539011002	-382.0	192.0	-383.0	183.0	1
3.0.1	2019_Mar_11_0915	s	s	8	1	SIC	216	ABS	0	0	4	3	24_4_3	NA	NA	0	1	7.43943500519	None	None	None	None	1
3.0.1	2019_Mar_11_0915	s	s	8	1	SIC	217	ABS	0	0	3	3	24_3_3	NA	NA	0	1	7.50826406479	None	None	None	None	1
3.0.1	2019_Mar_11_0915	s	s	8	1	SIC	218	4_3	4	3	3	4	23_3_4	1	-1	1	0	0.698457956314	-90.0	-399.0	-83.0	-392.0	1
3.0.1	2019_Mar_11_0915	s	s	8	1	SIC	219	1_2	1	2	3	4	23_3_4	2	2	1	0	0.799098014832	-337.0	323.0	-341.0	324.0	1
3.0.1	2019_Mar_11_0915	s	s	8	1	SIC	220	ABS	0	0	2	1	24_2_1	NA	NA	0	1	5.57828211784	None	None	None	None	1
3.0.1	2019_Mar_11_0915	s	s	8	1	SIC	221	ABS	0	0	1	2	24_1_2	NA	NA	0	1	9.4553000927	None	None	None	None	1
3.0.1	2019_Mar_11_0915	s	s	8	1	SIC	222	3_2	3	2	2	2	23_2_2	1	0	1	0	0.84903717041	-133.0	-149.0	-129.0	-160.0	1
3.0.1	2019_Mar_11_0915	s	s	8	1	SIC	223	ABS	0	0	4	2	24_4_2	NA	NA	0	1	7.8674120903	None	None	None	None	1
3.0.1	2019_Mar_11_0915	s	s	8	1	SIC	224	ABS	0	0	2	4	24_2_4	NA	NA	0	1	5.07124996185	None	None	None	None	1
3.0.1	2019_Mar_11_0915	s	s	8	1	SIC	225	ABS	0	0	1	1	24_1_1	NA	NA	0	1	7.44409394264	None	None	None	None	1
3.0.1	2019_Mar_11_0915	s	s	8	1	SIC	226	1_2	1	2	3	1	23_3_1	2	-1	1	0	0.84076499939	-311.0	148.0	-313.0	145.0	1
3.0.1	2019_Mar_11_0915	s	s	8	1	SIC	227	ABS	0	0	2	3	24_2_3	NA	NA	0	1	6.68498301506	None	None	None	None	1
3.0.1	2019_Mar_11_0915	s	s	8	1	SIC	228	2_1	2	1	3	2	23_3_2	1	1	1	0	0.872516155243	-100.0	-238.0	-97.0	-252.0	1
3.0.1	2019_Mar_11_0915	s	s	8	1	SIC	229	ABS	0	0	4	1	24_4_1	NA	NA	0	1	5.1271469593	None	None	None	None	1
3.0.1	2019_Mar_11_0915	s	s	8	1	SIC	230	1_3	1	3	1	2	23_1_2	0	1	1	0	5.62155604362	485.0	79.0	491.0	85.0	1
3.0.1	2019_Mar_11_0915	s	s	8	1	SIC	231	4_1	4	1	1	2	23_1_2	3	1	1	0	0.677572965622	-114.0	-313.0	-109.0	-314.0	1
3.0.1	2019_Mar_11_0915	s	s	8	1	SIC	232	ABS	0	0	3	1	24_3_1	NA	NA	0	1	4.09217596054	None	None	None	None	1
3.0.1	2019_Mar_11_0915	s	s	8	1	SIC	233	ABS	0	0	1	3	24_1_3	NA	NA	0	1	4.84492397308	None	None	None	None	1
3.0.1	2019_Mar_11_0915	s	s	8	1	SIC	234	4_4	4	4	1	2	23_1_2	3	2	1	0	0.686395168304	-285.0	342.0	-290.0	340.0	1
3.0.1	2019_Mar_11_0915	s	s	8	1	SIC	235	ABS	0	0	3	3	24_3_3	NA	NA	0	1	5.33284497261	None	None	None	None	1
3.0.1	2019_Mar_11_0915	s	s	8	1	SIC	236	ABS	0	0	1	2	24_1_2	NA	NA	0	1	6.73175096512	None	None	None	None	1
3.0.1	2019_Mar_11_0915	s	s	8	1	SIC	237	ABS	0	0	2	1	24_2_1	NA	NA	0	1	5.35064411163	None	None	None	None	1
3.0.1	2019_Mar_11_0915	s	s	8	1	SIC	238	ABS	0	0	4	3	24_4_3	NA	NA	0	1	4.7086558342	None	None	None	None	1
3.0.1	2019_Mar_11_0915	s	s	8	1	SIC	239	1_2	1	2	2	2	23_2_2	1	0	1	0	4.03335094452	-487.0	-304.0	-480.0	-300.0	1
3.0.1	2019_Mar_11_0915	s	s	8	1	SIC	240	2_1	2	1	3	3	23_3_3	1	2	1	0	0.768918037415	458.0	271.0	465.0	277.0	1
3.0.1	2019_Mar_11_0915	s	s	8	1	SIC	241	ABS	0	0	2	2	24_2_2	NA	NA	0	1	4.98596596718	None	None	None	None	1
3.0.1	2019_Mar_11_0915	s	s	8	1	SIC	242	ABS	0	0	3	4	24_3_4	NA	NA	0	1	4.55569005013	None	None	None	None	1
3.0.1	2019_Mar_11_0915	s	s	8	1	SIC	243	4_2	4	2	2	2	23_2_2	2	0	1	0	0.720175981522	-331.0	-42.0	-330.0	-44.0	1
3.0.1	2019_Mar_11_0915	s	s	8	1	SIC	244	2_1	2	1	3	1	23_3_1	1	0	1	0	0.98068189621	93.0	-265.0	85.0	-268.0	1
3.0.1	2019_Mar_11_0915	s	s	8	1	SIC	245	ABS	0	0	1	4	24_1_4	NA	NA	0	1	4.0926258564	None	None	None	None	1
3.0.1	2019_Mar_11_0915	s	s	8	1	SIC	246	ABS	0	0	1	3	24_1_3	NA	NA	0	1	5.53918504715	None	None	None	None	1
3.0.1	2019_Mar_11_0915	s	s	8	1	SIC	247	ABS	0	0	2	4	24_2_4	NA	NA	0	1	4.0451540947	None	None	None	None	1
3.0.1	2019_Mar_11_0915	s	s	8	1	SIC	248	2_1	2	1	1	4	23_1_4	-1	3	1	0	0.740262985229	-263.0	-293.0	-263.0	-292.0	1
3.0.1	2019_Mar_11_0915	s	s	8	1	SIC	249	4_4	4	4	2	1	23_2_1	2	3	1	0	0.662773132324	29.0	-411.0	30.0	-420.0	1
3.0.1	2019_Mar_11_0915	s	s	8	1	SIC	250	2_4	2	4	1	3	23_1_3	-1	1	1	0	0.822526931763	-42.0	76.0	-33.0	84.0	1
3.0.1	2019_Mar_11_0915	s	s	8	1	SIC	251	1_2	1	2	2	4	23_2_4	1	2	1	0	1.1430721283	-425.0	-207.0	-432.0	-211.0	1
3.0.1	2019_Mar_11_0915	s	s	8	1	SIC	252	ABS	0	0	1	2	24_1_2	NA	NA	0	1	7.89709806442	None	None	None	None	1
3.0.1	2019_Mar_11_0915	s	s	8	1	SIC	253	3_3	3	3	4	1	23_4_1	-1	2	1	0	0.738293170929	290.0	-367.0	288.0	-365.0	1
3.0.1	2019_Mar_11_0915	s	s	8	1	SIC	254	ABS	0	0	2	4	24_2_4	NA	NA	0	1	4.30381011963	None	None	None	None	1
3.0.1	2019_Mar_11_0915	s	s	8	1	SIC	255	4_2	4	2	1	1	23_1_1	3	-1	1	0	0.639621019363	393.0	346.0	390.0	337.0	1
3.0.1	2019_Mar_11_0915	s	s	8	1	SIC	256	ABS	0	0	3	3	24_3_3	NA	NA	0	1	4.52082586288	None	None	None	None	1
3.0.1	2019_Mar_11_0915	s	s	8	1	SIC	257	1_1	1	1	4	2	23_4_2	3	1	1	0	0.559424877167	-275.0	65.0	-268.0	61.0	1
3.0.1	2019_Mar_11_0915	s	s	8	1	SIC	258	ABS	0	0	1	3	24_1_3	NA	NA	0	1	4.90701985359	None	None	None	None	1
3.0.1	2019_Mar_11_0915	s	s	8	1	SIC	259	ABS	0	0	4	4	24_4_4	NA	NA	0	1	4.17458605766	None	None	None	None	1
3.0.1	2019_Mar_11_0915	s	s	8	1	SIC	260	ABS	0	0	1	3	24_1_3	NA	NA	0	1	6.51497602463	None	None	None	None	1
3.0.1	2019_Mar_11_0915	s	s	8	1	SIC	261	2_2	2	2	4	1	23_4_1	2	-1	1	0	0.704998016357	-35.0	-253.0	-35.0	-268.0	1
3.0.1	2019_Mar_11_0915	s	s	8	1	SIC	262	ABS	0	0	2	1	24_2_1	NA	NA	0	1	4.5038599968	None	None	None	None	1
3.0.1	2019_Mar_11_0915	s	s	8	1	SIC	263	1_2	1	2	3	2	23_3_2	2	0	1	0	0.810846090317	150.0	115.0	149.0	118.0	1
3.0.1	2019_Mar_11_0915	s	s	8	1	SIC	264	ABS	0	0	4	4	24_4_4	NA	NA	0	1	3.37753891945	None	None	None	None	1
3.0.1	2019_Mar_11_0915	s	s	8	1	SIC	265	ABS	0	0	1	3	24_1_3	NA	NA	0	1	6.1743209362	None	None	None	None	1
3.0.1	2019_Mar_11_0915	s	s	8	1	SIC	266	ABS	0	0	2	4	24_2_4	NA	NA	0	1	4.14252996445	None	None	None	None	1
3.0.1	2019_Mar_11_0915	s	s	8	1	SIC	267	1_1	1	1	2	3	23_2_3	1	2	1	0	1.04640817642	-398.0	74.0	-395.0	72.0	1
3.0.1	2019_Mar_11_0915	s	s	8	1	SIC	268	2_3	2	3	1	1	23_1_1	-1	2	1	0	1.18718409538	-425.0	259.0	-421.0	251.0	1
3.0.1	2019_Mar_11_0915	s	s	8	1	SIC	269	2_2	2	2	2	4	23_2_4	0	2	1	0	1.10480904579	-182.0	-150.0	-170.0	-143.0	1
3.0.1	2019_Mar_11_0915	s	s	8	1	SIC	270	ABS	0	0	2	4	24_2_4	NA	NA	0	1	3.49530506134	None	None	None	None	1
3.0.1	2019_Mar_11_0915	s	s	8	1	SIC	271	ABS	0	0	1	3	24_1_3	NA	NA	0	1	6.3503370285	None	None	None	None	1
3.0.1	2019_Mar_11_0915	s	s	8	1	SIC	272	3_1	3	1	4	4	23_4_4	-1	3	1	0	0.73139500618	12.0	296.0	8.0	285.0	1
3.0.1	2019_Mar_11_0915	s	s	8	1	SIC	273	1_4	1	4	2	2	23_2_2	1	2	1	0	1.09021282196	454.0	-301.0	447.0	-302.0	1
3.0.1	2019_Mar_11_0915	s	s	8	1	SIC	274	1_1	1	1	1	2	23_1_2	0	1	1	0	1.76354598999	-187.0	334.0	-192.0	332.0	1
3.0.1	2019_Mar_11_0915	s	s	8	1	SIC	275	2_3	2	3	3	4	23_3_4	1	-1	1	0	0.969070911407	194.0	163.0	196.0	161.0	1
3.0.1	2019_Mar_11_0915	s	s	8	1	SIC	276	4_2	4	2	2	1	23_2_1	2	-1	1	0	0.709803819656	-114.0	64.0	-115.0	56.0	1
3.0.1	2019_Mar_11_0915	s	s	8	1	SIC	277	ABS	0	0	4	2	24_4_2	NA	NA	0	1	5.75508999825	None	None	None	None	1
3.0.1	2019_Mar_11_0915	s	s	8	1	SIC	278	ABS	0	0	3	3	24_3_3	NA	NA	0	1	5.93164086342	None	None	None	None	1
3.0.1	2019_Mar_11_0915	s	s	8	1	SIC	279	ABS	0	0	2	4	24_2_4	NA	NA	0	1	4.56773900986	None	None	None	None	1
3.0.1	2019_Mar_11_0915	s	s	8	1	SIC	280	4_2	4	2	3	2	23_3_2	1	0	1	0	0.775506973267	-250.0	-378.0	-245.0	-369.0	1
3.0.1	2019_Mar_11_0915	s	s	8	1	SIC	281	ABS	0	0	3	1	24_3_1	NA	NA	0	1	5.72704911232	None	None	None	None	1
3.0.1	2019_Mar_11_0915	s	s	8	1	SIC	282	ABS	0	0	4	1	24_4_1	NA	NA	0	1	1.75470590591	None	None	None	None	1
3.0.1	2019_Mar_11_0915	s	s	8	1	SIC	283	1_2	1	2	1	1	23_1_1	0	-1	1	0	3.24542307854	-225.0	-126.0	-217.0	-124.0	1
3.0.1	2019_Mar_11_0915	s	s	8	1	SIC	284	3_1	3	1	3	4	23_3_4	0	3	1	0	0.794456005096	-482.0	103.0	-479.0	112.0	1
3.0.1	2019_Mar_11_0915	s	s	8	1	SIC	285	ABS	0	0	2	3	24_2_3	NA	NA	0	1	6.47194719315	None	None	None	None	1
3.0.1	2019_Mar_11_0915	s	s	8	1	SIC	286	1_2	1	2	4	3	23_4_3	3	1	1	0	0.599130153656	-429.0	12.0	-423.0	8.0	1
3.0.1	2019_Mar_11_0915	s	s	8	1	SIC	287	4_4	4	4	1	4	23_1_4	3	0	1	0	0.849365949631	-144.0	-9.0	-147.0	-12.0	1
3.0.1	2019_Mar_11_0915	s	s	8	1	SIC	288	3_1	3	1	4	1	23_4_1	-1	0	1	0	0.561300039291	143.0	-328.0	138.0	-336.0	1
3.0.1	2019_Mar_11_0915	s	s	8	1	SIC	289	ABS	0	0	2	2	24_2_2	NA	NA	0	1	9.50519990921	None	None	None	None	1
3.0.1	2019_Mar_11_0915	s	s	8	1	SIC	290	3_2	3	2	1	2	23_1_2	2	0	1	0	0.881414890289	160.0	-329.0	156.0	-336.0	1
3.0.1	2019_Mar_11_0915	s	s	8	1	SIC	291	4_1	4	1	1	4	23_1_4	3	3	1	0	0.716905832291	-92.0	-144.0	-93.0	-142.0	1
3.0.1	2019_Mar_11_0915	s	s	8	1	SIC	292	ABS	0	0	2	3	24_2_3	NA	NA	0	1	6.8678920269	None	None	None	None	1
3.0.1	2019_Mar_11_0915	s	s	8	1	SIC	293	ABS	0	0	1	1	24_1_1	NA	NA	0	1	4.29211688042	None	None	None	None	1
3.0.1	2019_Mar_11_0915	s	s	8	1	SIC	294	4_3	4	3	2	4	23_2_4	2	-1	1	0	1.04612779617	193.0	-76.0	200.0	-71.0	1
3.0.1	2019_Mar_11_0915	s	s	8	1	SIC	295	ABS	0	0	4	4	24_4_4	NA	NA	0	1	3.46260404587	None	None	None	None	1
3.0.1	2019_Mar_11_0915	s	s	8	1	SIC	296	1_4	1	4	4	2	23_4_2	3	2	1	0	0.610975027084	-468.0	-163.0	-473.0	-171.0	1
3.0.1	2019_Mar_11_0915	s	s	8	1	SIC	297	4_3	4	3	1	1	23_1_1	3	2	1	0	0.638604164124	-34.0	148.0	-36.0	142.0	1
3.0.1	2019_Mar_11_0915	s	s	8	1	SIC	298	ABS	0	0	4	3	24_4_3	NA	NA	0	1	7.18540406227	None	None	None	None	1
3.0.1	2019_Mar_11_0915	s	s	8	1	SIC	299	ABS	0	0	2	2	24_2_2	NA	NA	0	1	7.77385687828	None	None	None	None	1
3.0.1	2019_Mar_11_0915	s	s	8	1	SIC	300	3_4	3	4	1	2	23_1_2	2	2	1	0	0.775573015213	260.0	-189.0	263.0	-195.0	1
3.0.1	2019_Mar_11_0915	s	s	8	1	SIC	301	1_3	1	3	4	2	23_4_2	3	1	1	0	0.540395975113	-294.0	-301.0	-303.0	-300.0	1
3.0.1	2019_Mar_11_0915	s	s	8	1	SIC	302	4_1	4	1	2	4	23_2_4	2	3	1	0	0.552066087723	107.0	-62.0	104.0	-58.0	1
3.0.1	2019_Mar_11_0915	s	s	8	1	SIC	303	4_2	4	2	2	4	23_2_4	2	2	1	0	0.587349891663	-300.0	-335.0	-303.0	-338.0	1
3.0.1	2019_Mar_11_0915	s	s	8	1	SIC	304	1_1	1	1	1	4	23_1_4	0	3	1	0	0.872517108917	-182.0	-218.0	-176.0	-217.0	1
3.0.1	2019_Mar_11_0915	s	s	8	1	SIC	305	ABS	0	0	4	2	24_4_2	NA	NA	0	1	8.19122314453	None	None	None	None	1
3.0.1	2019_Mar_11_0915	s	s	8	1	SIC	306	2_1	2	1	1	3	23_1_3	-1	2	1	0	2.7750658989	439.0	-356.0	450.0	-354.0	1
3.0.1	2019_Mar_11_0915	s	s	8	1	SIC	307	ABS	0	0	4	2	24_4_2	NA	NA	0	1	8.22523808479	None	None	None	None	1
3.0.1	2019_Mar_11_0915	s	s	8	1	SIC	308	4_2	4	2	2	3	23_2_3	2	1	1	0	0.622678041458	291.0	161.0	283.0	157.0	1
3.0.1	2019_Mar_11_0915	s	s	8	1	SIC	309	4_1	4	1	2	3	23_2_3	2	2	1	0	0.613841056824	238.0	-153.0	248.0	-145.0	1
3.0.1	2019_Mar_11_0915	s	s	8	1	SIC	310	ABS	0	0	2	3	24_2_3	NA	NA	0	1	7.10678792	None	None	None	None	1
3.0.1	2019_Mar_11_0915	s	s	8	1	SIC	311	2_2	2	2	4	4	23_4_4	2	2	1	0	1.01116704941	532.0	86.0	530.0	88.0	1
3.0.1	2019_Mar_11_0915	s	s	8	1	SIC	312	1_3	1	3	3	2	23_3_2	2	1	1	0	0.940356016159	-429.0	-239.0	-429.0	-232.0	1
3.0.1	2019_Mar_11_0915	s	s	8	1	SIC	313	4_1	4	1	3	2	23_3_2	1	1	1	0	0.672671794891	-435.0	-275.0	-434.0	-277.0	1
3.0.1	2019_Mar_11_0915	s	s	8	1	SIC	314	3_4	3	4	3	2	23_3_2	0	2	1	0	1.83413910866	308.0	268.0	314.0	271.0	1
3.0.1	2019_Mar_11_0915	s	s	8	1	SIC	315	ABS	0	0	4	4	24_4_4	NA	NA	0	1	5.07718610764	None	None	None	None	1
3.0.1	2019_Mar_11_0915	s	s	8	1	SIC	316	1_4	1	4	2	3	23_2_3	1	1	1	0	1.2224009037	-494.0	377.0	-498.0	372.0	1
3.0.1	2019_Mar_11_0915	s	s	8	1	SIC	317	ABS	0	0	2	1	24_2_1	NA	NA	0	1	2.9344060421	None	None	None	None	1
3.0.1	2019_Mar_11_0915	s	s	8	1	SIC	318	1_4	1	4	1	1	23_1_1	0	3	1	0	0.872416973114	-503.0	-235.0	-501.0	-236.0	1
3.0.1	2019_Mar_11_0915	s	s	8	1	SIC	319	ABS	0	0	3	2	24_3_2	NA	NA	0	1	5.36232805252	None	None	None	None	1
3.0.1	2019_Mar_11_0915	s	s	8	1	SIC	320	3_1	3	1	2	3	23_2_3	1	2	1	0	0.870088100433	-159.0	380.0	-153.0	386.0	1
3.0.1	2019_Mar_11_0915	s	s	8	1	SIC	321	ABS	0	0	2	3	24_2_3	NA	NA	0	1	4.48038196564	None	None	None	None	1
3.0.1	2019_Mar_11_0915	s	s	8	1	SIC	322	ABS	0	0	4	4	24_4_4	NA	NA	0	1	3.15130782127	None	None	None	None	1
3.0.1	2019_Mar_11_0915	s	s	8	1	SIC	323	ABS	0	0	2	1	24_2_1	NA	NA	0	1	3.63351392746	None	None	None	None	1
3.0.1	2019_Mar_11_0915	s	s	8	1	SIC	324	2_1	2	1	2	4	23_2_4	0	3	1	0	0.992089986801	384.0	-69.0	386.0	-71.0	1
3.0.1	2019_Mar_11_0915	s	s	8	1	SIC	325	ABS	0	0	3	4	24_3_4	NA	NA	0	1	2.781468153	None	None	None	None	1
3.0.1	2019_Mar_11_0915	s	s	8	1	SIC	326	1_2	1	2	4	4	23_4_4	3	2	1	0	0.648589134216	-97.0	-353.0	-91.0	-358.0	1
3.0.1	2019_Mar_11_0915	s	s	8	1	SIC	327	4_3	4	3	2	3	23_2_3	2	0	1	0	0.672491073608	-390.0	192.0	-384.0	183.0	1
3.0.1	2019_Mar_11_0915	s	s	8	1	SIC	328	ABS	0	0	1	2	24_1_2	NA	NA	0	1	6.21521878242	None	None	None	None	1
3.0.1	2019_Mar_11_0915	s	s	8	1	SIC	329	4_1	4	1	4	4	23_4_4	0	3	1	0	0.790228128433	5.0	-229.0	6.0	-228.0	1
3.0.1	2019_Mar_11_0915	s	s	8	1	SIC	330	ABS	0	0	2	4	24_2_4	NA	NA	0	1	3.38651299477	None	None	None	None	1
3.0.1	2019_Mar_11_0915	s	s	8	1	SIC	331	ABS	0	0	2	4	24_2_4	NA	NA	0	1	3.67171502113	None	None	None	None	1
3.0.1	2019_Mar_11_0915	s	s	8	1	SIC	332	ABS	0	0	1	4	24_1_4	NA	NA	0	1	4.12040400505	None	None	None	None	1
3.0.1	2019_Mar_11_0915	s	s	8	1	SIC	333	ABS	0	0	1	4	24_1_4	NA	NA	0	1	3.93932104111	None	None	None	None	1
3.0.1	2019_Mar_11_0915	s	s	8	1	SIC	334	2_3	2	3	4	2	23_4_2	2	1	1	0	0.693207979202	-507.0	-383.0	-518.0	-377.0	1
3.0.1	2019_Mar_11_0915	s	s	8	1	SIC	335	ABS	0	0	1	1	24_1_1	NA	NA	0	1	3.16303300858	None	None	None	None	1
3.0.1	2019_Mar_11_0915	s	s	8	1	SIC	336	ABS	0	0	4	3	24_4_3	NA	NA	0	1	5.09197282791	None	None	None	None	1
3.0.1	2019_Mar_11_0915	s	s	8	1	SIC	337	ABS	0	0	1	2	24_1_2	NA	NA	0	1	5.31988716125	None	None	None	None	1
3.0.1	2019_Mar_11_0915	s	s	8	1	SIC	338	1_4	1	4	3	2	23_3_2	2	2	1	0	0.693253040314	227.0	-248.0	220.0	-242.0	1
3.0.1	2019_Mar_11_0915	s	s	8	1	SIC	339	ABS	0	0	3	2	24_3_2	NA	NA	0	1	5.77410387993	None	None	None	None	1
3.0.1	2019_Mar_11_0915	s	s	8	1	SIC	340	ABS	0	0	3	2	24_3_2	NA	NA	0	1	5.30359888077	None	None	None	None	1
3.0.1	2019_Mar_11_0915	s	s	8	1	SIC	341	ABS	0	0	4	4	24_4_4	NA	NA	0	1	1.72111105919	None	None	None	None	1
3.0.1	2019_Mar_11_0915	s	s	8	1	SIC	342	ABS	0	0	3	3	24_3_3	NA	NA	0	1	6.30371594429	None	None	None	None	1
3.0.1	2019_Mar_11_0915	s	s	8	1	SIC	343	1_1	1	1	2	1	23_2_1	1	0	1	0	3.61922192574	-207.0	-401.0	-212.0	-401.0	1
3.0.1	2019_Mar_11_0915	s	s	8	1	SIC	344	2_2	2	2	1	4	23_1_4	-1	2	1	0	0.88139295578	86.0	-76.0	78.0	-81.0	1
3.0.1	2019_Mar_11_0915	s	s	8	1	SIC	345	1_3	1	3	3	4	23_3_4	2	-1	1	0	0.696573972702	519.0	-243.0	526.0	-247.0	1
3.0.1	2019_Mar_11_0915	s	s	8	1	SIC	346	ABS	0	0	3	2	24_3_2	NA	NA	0	1	5.87986707687	None	None	None	None	1
3.0.1	2019_Mar_11_0915	s	s	8	1	SIC	347	1_4	1	4	3	1	23_3_1	2	3	1	0	0.619000196457	172.0	19.0	174.0	20.0	1
3.0.1	2019_Mar_11_0915	s	s	8	1	SIC	348	3_4	3	4	2	1	23_2_1	1	3	1	0	1.03441500664	-376.0	267.0	-381.0	262.0	1
3.0.1	2019_Mar_11_0915	s	s	8	1	SIC	349	ABS	0	0	2	4	24_2_4	NA	NA	0	1	4.37737202644	None	None	None	None	1
3.0.1	2019_Mar_11_0915	s	s	8	1	SIC	350	ABS	0	0	1	2	24_1_2	NA	NA	0	1	7.47945404053	None	None	None	None	1
3.0.1	2019_Mar_11_0915	s	s	8	1	SIC	351	ABS	0	0	2	1	24_2_1	NA	NA	0	1	2.86901688576	None	None	None	None	1
3.0.1	2019_Mar_11_0915	s	s	8	1	SIC	352	2_3	2	3	3	3	23_3_3	1	0	1	0	1.0509660244	41.0	-405.0	51.0	-397.0	1
3.0.1	2019_Mar_11_0915	s	s	8	1	SIC	353	4_2	4	2	3	1	23_3_1	1	-1	1	0	0.716775894165	-528.0	-84.0	-522.0	-82.0	1
3.0.1	2019_Mar_11_0915	s	s	8	1	SIC	354	ABS	0	0	3	4	24_3_4	NA	NA	0	1	2.10492515564	None	None	None	None	1
3.0.1	2019_Mar_11_0915	s	s	8	1	SIC	355	ABS	0	0	3	1	24_3_1	NA	NA	0	1	3.12816691399	None	None	None	None	1
3.0.1	2019_Mar_11_0915	s	s	8	1	SIC	356	4_3	4	3	2	2	23_2_2	2	1	1	0	0.669703960419	147.0	-409.0	155.0	-406.0	1
3.0.1	2019_Mar_11_0915	s	s	8	1	SIC	357	ABS	0	0	1	4	24_1_4	NA	NA	0	1	2.00281500816	None	None	None	None	1
3.0.1	2019_Mar_11_0915	s	s	8	1	SIC	358	ABS	0	0	4	3	24_4_3	NA	NA	0	1	2.15576195717	None	None	None	None	1
3.0.1	2019_Mar_11_0915	s	s	8	1	SIC	359	ABS	0	0	4	3	24_4_3	NA	NA	0	1	1.01366400719	None	None	None	None	1
3.0.1	2019_Mar_11_0915	s	s	8	1	SIC	360	ABS	0	0	4	1	24_4_1	NA	NA	0	1	1.05787396431	None	None	None	None	1
3.0.1	2019_Mar_11_0915	s	s	8	1	SIC	361	ABS	0	0	3	1	24_3_1	NA	NA	0	1	1.67231798172	None	None	None	None	1
3.0.1	2019_Mar_11_0915	s	s	8	1	SIC	362	ABS	0	0	3	2	24_3_2	NA	NA	0	1	6.25081396103	None	None	None	None	1
3.0.1	2019_Mar_11_0915	s	s	8	1	SIC	363	ABS	0	0	4	1	24_4_1	NA	NA	0	1	4.76771497726	None	None	None	None	1
3.0.1	2019_Mar_11_0915	s	s	8	1	SIC	364	ABS	0	0	3	3	24_3_3	NA	NA	0	1	4.11557602882	None	None	None	None	1
3.0.1	2019_Mar_11_0915	s	s	8	1	SIC	365	4_3	4	3	3	3	23_3_3	1	0	1	0	0.599183082581	18.0	-222.0	27.0	-219.0	1
3.0.1	2019_Mar_11_0915	s	s	8	1	SIC	366	ABS	0	0	3	2	24_3_2	NA	NA	0	1	7.48266506195	None	None	None	None	1
3.0.1	2019_Mar_11_0915	s	s	8	1	SIC	367	4_3	4	3	3	1	23_3_1	1	2	1	0	0.660854101181	-445.0	96.0	-442.0	101.0	1
3.0.1	2019_Mar_11_0915	s	s	8	1	SIC	368	4_2	4	2	3	4	23_3_4	1	2	1	0	1.01585102081	-519.0	265.0	-534.0	271.0	1
3.0.1	2019_Mar_11_0915	s	s	8	1	SIC	369	ABS	0	0	4	3	24_4_3	NA	NA	0	1	7.87930393219	None	None	None	None	1
3.0.1	2019_Mar_11_0915	s	s	8	1	SIC	370	ABS	0	0	3	1	24_3_1	NA	NA	0	1	2.95145797729	None	None	None	None	1
3.0.1	2019_Mar_11_0915	s	s	8	1	SIC	371	ABS	0	0	4	2	24_4_2	NA	NA	0	1	6.40225410461	None	None	None	None	1
3.0.1	2019_Mar_11_0915	s	s	8	1	SIC	372	2_3	2	3	3	1	23_3_1	1	2	1	0	1.1049580574	504.0	285.0	505.0	278.0	1
3.0.1	2019_Mar_11_0915	s	s	8	1	SIC	373	ABS	0	0	2	1	24_2_1	NA	NA	0	1	4.54370498657	None	None	None	None	1
3.0.1	2019_Mar_11_0915	s	s	8	1	SIC	374	ABS	0	0	3	2	24_3_2	NA	NA	0	1	8.31443691254	None	None	None	None	1
3.0.1	2019_Mar_11_0915	s	s	8	1	SIC	375	2_1	2	1	4	2	23_4_2	2	1	1	0	0.7873878479	-511.0	104.0	-502.0	104.0	1
3.0.1	2019_Mar_11_0915	s	s	8	1	SIC	376	1_2	1	2	2	3	23_2_3	1	1	1	0	2.43853402138	539.0	-110.0	535.0	-104.0	1
3.0.1	2019_Mar_11_0915	s	s	8	1	SIC	377	2_3	2	3	1	4	23_1_4	-1	-1	1	0	0.909722805023	361.0	-230.0	353.0	-231.0	1
3.0.1	2019_Mar_11_0915	s	s	8	1	SIC	378	ABS	0	0	3	3	24_3_3	NA	NA	0	1	4.57447814941	None	None	None	None	1
3.0.1	2019_Mar_11_0915	s	s	8	1	SIC	379	ABS	0	0	4	1	24_4_1	NA	NA	0	1	3.50159907341	None	None	None	None	1
3.0.1	2019_Mar_11_0915	s	s	8	1	SIC	380	4_2	4	2	1	3	23_1_3	3	1	1	0	0.795043945312	-460.0	-227.0	-466.0	-221.0	1
3.0.1	2019_Mar_11_0915	s	s	8	1	SIC	381	ABS	0	0	4	4	24_4_4	NA	NA	0	1	2.94366312027	None	None	None	None	1
3.0.1	2019_Mar_11_0915	s	s	8	1	SIC	382	ABS	0	0	3	3	24_3_3	NA	NA	0	1	5.08017683029	None	None	None	None	1
3.0.1	2019_Mar_11_0915	s	s	8	1	SIC	383	1_1	1	1	2	4	23_2_4	1	3	1	0	0.672580003738	27.0	72.0	24.0	72.0	1
3.0.1	2019_Mar_11_0915	s	s	8	1	SIC	384	ABS	0	0	1	1	24_1_1	NA	NA	0	1	4.03341412544	None	None	None	None	1
3.0.1	2019_Mar_11_0915	s	s	8	1	SIC	385	1_3	1	3	3	3	23_3_3	2	0	1	0	0.664521932602	-258.0	-34.0	-268.0	-32.0	1
3.0.1	2019_Mar_11_0915	s	s	8	1	SIC	386	ABS	0	0	3	4	24_3_4	NA	NA	0	1	3.09802508354	None	None	None	None	1
3.0.1	2019_Mar_11_0915	s	s	8	1	SIC	387	2_3	2	3	4	1	23_4_1	2	2	1	0	0.678947925568	46.0	-399.0	47.0	-401.0	1
3.0.1	2019_Mar_11_0915	s	s	8	1	SIC	388	2_3	2	3	1	3	23_1_3	-1	0	1	0	4.08330011368	-241.0	110.0	-232.0	109.0	1
3.0.1	2019_Mar_11_0915	s	s	8	1	SIC	389	ABS	0	0	4	1	24_4_1	NA	NA	0	1	2.97212195396	None	None	None	None	1
3.0.1	2019_Mar_11_0915	s	s	8	1	SIC	390	ABS	0	0	1	4	24_1_4	NA	NA	0	1	3.56319594383	None	None	None	None	1
3.0.1	2019_Mar_11_0915	s	s	8	1	SIC	391	ABS	0	0	2	2	24_2_2	NA	NA	0	1	5.33177804947	None	None	None	None	1
3.0.1	2019_Mar_11_0915	s	s	8	1	SIC	392	2_2	2	2	3	3	23_3_3	1	1	1	0	0.887912988663	509.0	405.0	516.0	405.0	1
3.0.1	2019_Mar_11_0915	s	s	8	1	SIC	393	ABS	0	0	2	2	24_2_2	NA	NA	0	1	5.60983204842	None	None	None	None	1
3.0.1	2019_Mar_11_0915	s	s	8	1	SIC	394	2_3	2	3	1	2	23_1_2	-1	1	1	0	1.93132996559	172.0	364.0	171.0	364.0	1
3.0.1	2019_Mar_11_0915	s	s	8	1	SIC	395	2_4	2	4	4	2	23_4_2	2	2	1	0	0.752007961273	293.0	310.0	286.0	305.0	1
3.0.1	2019_Mar_11_0915	s	s	8	1	SIC	396	ABS	0	0	2	4	24_2_4	NA	NA	0	1	3.57952809334	None	None	None	None	1
3.0.1	2019_Mar_11_0915	s	s	8	1	SIC	397	ABS	0	0	1	3	24_1_3	NA	NA	0	1	5.33928799629	None	None	None	None	1
3.0.1	2019_Mar_11_0915	s	s	8	1	SIC	398	ABS	0	0	3	4	24_3_4	NA	NA	0	1	1.70469522476	None	None	None	None	1
3.0.1	2019_Mar_11_0915	s	s	8	1	SIC	399	2_2	2	2	4	3	23_4_3	2	1	1	0	0.651283979416	142.0	36.0	142.0	36.0	1
3.0.1	2019_Mar_11_0915	s	s	8	1	SIC	400	1_2	1	2	1	3	23_1_3	0	1	1	0	3.62172698975	443.0	-283.0	448.0	-291.0	1
3.0.1	2019_Mar_11_0915	s	s	8	1	SIC	401	3_4	3	4	1	4	23_1_4	2	0	1	0	0.881402015686	-296.0	-328.0	-304.0	-331.0	1
3.0.1	2019_Mar_11_0915	s	s	8	1	SIC	402	3_3	3	3	2	2	23_2_2	1	1	1	0	1.03185105324	533.0	-364.0	536.0	-363.0	1
3.0.1	2019_Mar_11_0915	s	s	8	1	SIC	403	ABS	0	0	1	1	24_1_1	NA	NA	0	1	3.88566684723	None	None	None	None	1
3.0.1	2019_Mar_11_0915	s	s	8	1	SIC	404	1_3	1	3	4	4	23_4_4	3	-1	1	0	0.579721927643	-47.0	328.0	-38.0	329.0	1
3.0.1	2019_Mar_11_0915	s	s	8	1	SIC	405	ABS	0	0	4	4	24_4_4	NA	NA	0	1	2.39860796928	None	None	None	None	1
3.0.1	2019_Mar_11_0915	s	s	8	1	SIC	406	ABS	0	0	2	1	24_2_1	NA	NA	0	1	4.86848497391	None	None	None	None	1
3.0.1	2019_Mar_11_0915	s	s	8	1	SIC	407	ABS	0	0	4	3	24_4_3	NA	NA	0	1	7.91062688828	None	None	None	None	1
3.0.1	2019_Mar_11_0915	s	s	8	1	SIC	408	2_4	2	4	2	1	23_2_1	0	3	1	0	1.16367006302	480.0	312.0	473.0	309.0	1
3.0.1	2019_Mar_11_0915	s	s	8	1	SIC	409	ABS	0	0	1	4	24_1_4	NA	NA	0	1	3.2154109478	None	None	None	None	1
3.0.1	2019_Mar_11_0915	s	s	8	1	SIC	410	ABS	0	0	4	1	24_4_1	NA	NA	0	1	2.90733385086	None	None	None	None	1
3.0.1	2019_Mar_11_0915	s	s	8	1	SIC	411	2_3	2	3	3	2	23_3_2	1	1	1	0	0.709078073502	-283.0	14.0	-274.0	19.0	1
3.0.1	2019_Mar_11_0915	s	s	8	1	SIC	412	ABS	0	0	4	2	24_4_2	NA	NA	0	1	7.35522913933	None	None	None	None	1
3.0.1	2019_Mar_11_0915	s	s	8	1	SIC	413	ABS	0	0	2	2	24_2_2	NA	NA	0	1	15.0888409615	None	None	None	None	1
3.0.1	2019_Mar_11_0915	s	s	8	1	SIC	414	ABS	0	0	4	1	24_4_1	NA	NA	0	1	4.67902302742	None	None	None	None	1
3.0.1	2019_Mar_11_0915	s	s	8	1	SIC	415	2_2	2	2	1	1	23_1_1	-1	-1	1	0	3.76802611351	390.0	160.0	402.0	162.0	1
3.0.1	2019_Mar_11_0915	s	s	8	1	SIC	416	ABS	0	0	2	3	24_2_3	NA	NA	0	1	9.01333117485	None	None	None	None	1
3.0.1	2019_Mar_11_0915	s	s	8	1	SIC	417	4_1	4	1	4	2	23_4_2	0	1	1	0	9.64348506927	128.0	308.0	134.0	317.0	1
3.0.1	2019_Mar_11_0915	s	s	8	1	SIC	418	ABS	0	0	4	1	24_4_1	NA	NA	0	1	4.31556296349	None	None	None	None	1
3.0.1	2019_Mar_11_0915	s	s	8	1	SIC	419	ABS	0	0	4	2	24_4_2	NA	NA	0	1	9.3779361248	None	None	None	None	1
3.0.1	2019_Mar_11_0915	s	s	8	1	SIC	420	1_1	1	1	3	1	23_3_1	2	0	1	0	0.634388923645	224.0	-146.0	221.0	-147.0	1
3.0.1	2019_Mar_11_0915	s	s	8	1	SIC	421	1_4	1	4	3	4	23_3_4	2	0	1	0	1.11659789085	503.0	402.0	502.0	401.0	1
3.0.1	2019_Mar_11_0915	s	s	8	1	SIC	422	3_2	3	2	3	1	23_3_1	0	-1	0	1	4.37737202644	-292.0	88.0	None	None	0
3.0.1	2019_Mar_11_0915	s	s	8	1	SIC	423	ABS	0	0	1	2	24_1_2	NA	NA	0	1	8.80155706406	None	None	None	None	1
3.0.1	2019_Mar_11_0915	s	s	8	1	SIC	424	3_1	3	1	3	3	23_3_3	0	2	1	0	1.29975509644	-256.0	-34.0	-254.0	-34.0	1
3.0.1	2019_Mar_11_0915	s	s	8	1	SIC	425	3_2	3	2	2	4	23_2_4	1	2	1	0	0.956893920898	-97.0	65.0	-89.0	63.0	1
3.0.1	2019_Mar_11_0915	s	s	8	1	SIC	426	2_4	2	4	4	4	23_4_4	2	0	1	0	0.693232059479	-267.0	215.0	-266.0	217.0	1
3.0.1	2019_Mar_11_0915	s	s	8	1	SIC	427	1_4	1	4	4	4	23_4_4	3	0	1	0	0.957396030426	162.0	-56.0	171.0	-54.0	1
3.0.1	2019_Mar_11_0915	s	s	8	1	SIC	428	ABS	0	0	1	2	24_1_2	NA	NA	0	1	9.94929289818	None	None	None	None	1
3.0.1	2019_Mar_11_0915	s	s	8	1	SIC	429	ABS	0	0	1	1	24_1_1	NA	NA	0	1	6.72964596748	None	None	None	None	1
3.0.1	2019_Mar_11_0915	s	s	8	1	SIC	430	3_3	3	3	2	4	23_2_4	1	-1	1	0	0.881415128708	-56.0	-392.0	-59.0	-388.0	1
3.0.1	2019_Mar_11_0915	s	s	8	1	SIC	431	3_3	3	3	4	4	23_4_4	-1	-1	1	0	0.687463998795	450.0	103.0	461.0	103.0	1
3.0.1	2019_Mar_11_0915	s	s	8	1	SIC	432	1_2	1	2	2	1	23_2_1	1	-1	1	0	2.32527494431	43.0	363.0	38.0	357.0	1
3.0.1	2019_Mar_11_0915	s	s	8	1	SIC	433	2_1	2	1	4	1	23_4_1	2	0	1	0	0.862752199173	-455.0	-15.0	-455.0	-5.0	1
3.0.1	2019_Mar_11_0915	s	s	8	1	SIC	434	2_3	2	3	4	4	23_4_4	2	-1	1	0	0.599148035049	-41.0	411.0	-42.0	403.0	1
3.0.1	2019_Mar_11_0915	s	s	8	1	SIC	435	ABS	0	0	4	4	24_4_4	NA	NA	0	1	2.00263404846	None	None	None	None	1
3.0.1	2019_Mar_11_0915	s	s	8	1	SIC	436	1_1	1	1	3	2	23_3_2	2	1	1	0	0.744029045105	-223.0	65.0	-222.0	69.0	1
3.0.1	2019_Mar_11_0915	s	s	8	1	SIC	437	4_1	4	1	3	1	23_3_1	1	0	1	0	0.607639789581	259.0	-54.0	260.0	-50.0	1
3.0.1	2019_Mar_11_0915	s	s	8	1	SIC	438	3_2	3	2	2	3	23_2_3	1	1	1	0	0.790215969086	180.0	31.0	174.0	27.0	1
3.0.1	2019_Mar_11_0915	s	s	8	1	SIC	439	1_3	1	3	3	1	23_3_1	2	2	1	0	0.640794038773	43.0	-40.0	32.0	-37.0	1
3.0.1	2019_Mar_11_0915	s	s	8	1	SIC	440	ABS	0	0	3	3	24_3_3	NA	NA	0	1	2.92823910713	None	None	None	None	1
3.0.1	2019_Mar_11_0915	s	s	8	1	SIC	441	ABS	0	0	1	1	24_1_1	NA	NA	0	1	4.3773829937	None	None	None	None	1
3.0.1	2019_Mar_11_0915	s	s	8	1	SIC	442	4_2	4	2	1	2	23_1_2	3	0	1	0	0.64085316658	226.0	-109.0	233.0	-111.0	1
3.0.1	2019_Mar_11_0915	s	s	8	1	SIC	443	3_3	3	3	1	4	23_1_4	2	-1	1	0	0.716808080673	-244.0	-85.0	-242.0	-80.0	1
3.0.1	2019_Mar_11_0915	s	s	8	1	SIC	444	2_1	2	1	2	3	23_2_3	0	2	1	0	3.14242482185	443.0	-220.0	450.0	-213.0	1
3.0.1	2019_Mar_11_0915	s	s	8	1	SIC	445	4_4	4	4	2	3	23_2_3	2	1	1	0	0.599145889282	-437.0	-80.0	-438.0	-83.0	1
3.0.1	2019_Mar_11_0915	s	s	8	1	SIC	446	ABS	0	0	3	3	24_3_3	NA	NA	0	1	4.50394892693	None	None	None	None	1
3.0.1	2019_Mar_11_0915	s	s	8	1	SIC	447	3_2	3	2	3	4	23_3_4	0	2	1	0	0.921221017838	167.0	57.0	174.0	56.0	1
3.0.1	2019_Mar_11_0915	s	s	8	1	SIC	448	3_2	3	2	4	3	23_4_3	-1	1	1	0	0.693677902222	396.0	340.0	394.0	343.0	1
3.0.1	2019_Mar_11_0915	s	s	8	1	SIC	449	ABS	0	0	3	4	24_3_4	NA	NA	0	1	2.78141498566	None	None	None	None	1
3.0.1	2019_Mar_11_0915	s	s	8	1	SIC	450	ABS	0	0	3	3	24_3_3	NA	NA	0	1	3.99817895889	None	None	None	None	1
3.0.1	2019_Mar_11_0915	s	s	8	1	SIC	451	ABS	0	0	1	1	24_1_1	NA	NA	0	1	4.29729413986	None	None	None	None	1
3.0.1	2019_Mar_11_0915	s	s	8	1	SIC	452	ABS	0	0	2	4	24_2_4	NA	NA	0	1	2.793186903	None	None	None	None	1
3.0.1	2019_Mar_11_0915	s	s	8	1	SIC	453	ABS	0	0	2	2	24_2_2	NA	NA	0	1	6.79718494415	None	None	None	None	1
3.0.1	2019_Mar_11_0915	s	s	8	1	SIC	454	2_4	2	4	2	2	23_2_2	0	2	1	0	0.999000072479	-249.0	280.0	-251.0	272.0	1
3.0.1	2019_Mar_11_0915	s	s	8	1	SIC	455	4_1	4	1	3	3	23_3_3	1	2	1	0	0.686728000641	-223.0	214.0	-221.0	217.0	1
3.0.1	2019_Mar_11_0915	s	s	8	1	SIC	456	ABS	0	0	2	1	24_2_1	NA	NA	0	1	6.37675309181	None	None	None	None	1
3.0.1	2019_Mar_11_0915	s	s	8	1	SIC	457	4_1	4	1	1	1	23_1_1	3	0	1	0	0.639245986938	180.0	80.0	177.0	75.0	1
3.0.1	2019_Mar_11_0915	s	s	8	1	SIC	458	ABS	0	0	3	3	24_3_3	NA	NA	0	1	4.75438189507	None	None	None	None	1
3.0.1	2019_Mar_11_0915	s	s	8	1	SIC	459	ABS	0	0	3	2	24_3_2	NA	NA	0	1	7.75368595123	None	None	None	None	1
3.0.1	2019_Mar_11_0915	s	s	8	1	SIC	460	1_1	1	1	3	4	23_3_4	2	3	1	0	0.560177087784	66.0	11.0	65.0	9.0	1
3.0.1	2019_Mar_11_0915	s	s	8	1	SIC	461	2_1	2	1	2	2	23_2_2	0	1	1	0	6.61233115196	443.0	216.0	447.0	211.0	1
3.0.1	2019_Mar_11_0915	s	s	8	1	SIC	462	ABS	0	0	2	3	24_2_3	NA	NA	0	1	7.81498789787	None	None	None	None	1
3.0.1	2019_Mar_11_0915	s	s	8	1	SIC	463	ABS	0	0	3	1	24_3_1	NA	NA	0	1	5.09195399284	None	None	None	None	1
3.0.1	2019_Mar_11_0915	s	s	8	1	SIC	464	3_1	3	1	3	2	23_3_2	0	1	1	0	2.1166908741	-108.0	17.0	-114.0	8.0	1
3.0.1	2019_Mar_11_0915	s	s	8	1	SIC	465	ABS	0	0	2	2	24_2_2	NA	NA	0	1	6.51497602463	None	None	None	None	1
3.0.1	2019_Mar_11_0915	s	s	8	1	SIC	466	1_1	1	1	3	3	23_3_3	2	2	1	0	0.728466033936	-450.0	-108.0	-441.0	-107.0	1
3.0.1	2019_Mar_11_0915	s	s	8	1	SIC	467	3_3	3	3	3	1	23_3_1	0	2	1	0	1.27439498901	-426.0	-93.0	-418.0	-98.0	1
3.0.1	2019_Mar_11_0915	s	s	8	1	SIC	468	ABS	0	0	1	4	24_1_4	NA	NA	0	1	3.04548597336	None	None	None	None	1
3.0.1	2019_Mar_11_0915	s	s	8	1	SIC	469	ABS	0	0	4	1	24_4_1	NA	NA	0	1	4.22720098495	None	None	None	None	1
3.0.1	2019_Mar_11_0915	s	s	8	1	SIC	470	ABS	0	0	3	2	24_3_2	NA	NA	0	1	6.81292009354	None	None	None	None	1
3.0.1	2019_Mar_11_0915	s	s	8	1	SIC	471	ABS	0	0	2	2	24_2_2	NA	NA	0	1	5.61772203445	None	None	None	None	1
3.0.1	2019_Mar_11_0915	s	s	8	1	SIC	472	1_3	1	3	2	3	23_2_3	1	0	1	0	4.28372311592	-96.0	-363.0	-102.0	-365.0	1
3.0.1	2019_Mar_11_0915	s	s	8	1	SIC	473	4_2	4	2	4	4	23_4_4	0	2	1	0	0.627173900604	20.0	222.0	21.0	219.0	1
3.0.1	2019_Mar_11_0915	s	s	8	1	SIC	474	ABS	0	0	1	2	24_1_2	NA	NA	0	1	7.41386604309	None	None	None	None	1
3.0.1	2019_Mar_11_0915	s	s	8	1	SIC	475	ABS	0	0	3	3	24_3_3	NA	NA	0	1	4.56785798073	None	None	None	None	1
3.0.1	2019_Mar_11_0915	s	s	8	1	SIC	476	2_4	2	4	1	2	23_1_2	-1	2	1	0	0.987248182297	436.0	-266.0	441.0	-263.0	1
3.0.1	2019_Mar_11_0915	s	s	8	1	SIC	477	1_3	1	3	1	4	23_1_4	0	-1	1	0	0.907796859741	-220.0	380.0	-223.0	376.0	1
3.0.1	2019_Mar_11_0915	s	s	8	1	SIC	478	ABS	0	0	3	1	24_3_1	NA	NA	0	1	3.01671814919	None	None	None	None	1
3.0.1	2019_Mar_11_0915	s	s	8	1	SIC	479	2_2	2	2	2	3	23_2_3	0	1	1	0	3.22625112534	57.0	-265.0	68.0	-265.0	1
3.0.1	2019_Mar_11_0915	s	s	8	1	SIC	480	4_3	4	3	1	2	23_1_2	3	1	1	0	0.686913967133	46.0	-32.0	49.0	-27.0	1
