Version	Date	Stimuli	Method	Subject	Session	Condition	Trial	Target	TColor	TShape	DColor	DShape	Distractors	Channel1	Channel2	LMouseButton	RMouseButton	RT	TargetX	TargetY	ResponseX	ResponseY	Correct
3.0.1	2019_Mar_14_0834	s	s	8	4	Capacity	1	ABS	0	0	1	1	24_1_1	NA	NA	0	1	3.52073812485	None	None	None	None	1
3.0.1	2019_Mar_14_0834	s	s	8	4	Capacity	2	2_1	2	1	4	1	23_4_1	2	0	1	0	0.503307104111	-330.0	113.0	-330.0	113.0	1
3.0.1	2019_Mar_14_0834	s	s	8	4	Capacity	3	1_1	1	1	4	1	23_4_1	3	0	1	0	0.437316894531	-55.0	26.0	-55.0	26.0	1
3.0.1	2019_Mar_14_0834	s	s	8	4	Capacity	4	3_1	3	1	1	1	23_1_1	2	0	1	0	0.509979009628	122.0	-169.0	109.0	-166.0	1
3.0.1	2019_Mar_14_0834	s	s	8	4	Capacity	5	2_1	2	1	3	1	23_3_1	1	0	1	0	0.516767978668	-91.0	-140.0	-89.0	-143.0	1
3.0.1	2019_Mar_14_0834	s	s	8	4	Capacity	6	4_1	4	1	2	1	23_2_1	2	0	1	0	0.399100065231	-40.0	1.0	-39.0	7.0	1
3.0.1	2019_Mar_14_0834	s	s	8	4	Capacity	7	ABS	0	0	1	1	24_1_1	NA	NA	0	1	2.99834609032	None	None	None	None	1
3.0.1	2019_Mar_14_0834	s	s	8	4	Capacity	8	1_1	1	1	3	1	23_3_1	2	0	1	0	0.516835927963	448.0	397.0	449.0	393.0	1
3.0.1	2019_Mar_14_0834	s	s	8	4	Capacity	9	4_1	4	1	1	1	23_1_1	3	0	1	0	0.458046197891	48.0	-176.0	47.0	-183.0	1
3.0.1	2019_Mar_14_0834	s	s	8	4	Capacity	10	ABS	0	0	4	1	24_4_1	NA	NA	0	1	2.67298388481	None	None	None	None	1
3.0.1	2019_Mar_14_0834	s	s	8	4	Capacity	11	4_1	4	1	3	1	23_3_1	1	0	1	0	0.481845140457	430.0	348.0	439.0	344.0	1
3.0.1	2019_Mar_14_0834	s	s	8	4	Capacity	12	3_1	3	1	4	1	23_4_1	-1	0	1	0	0.446226119995	168.0	10.0	165.0	5.0	1
3.0.1	2019_Mar_14_0834	s	s	8	4	Capacity	13	2_1	2	1	1	1	23_1_1	-1	0	1	0	0.555042982101	-98.0	-182.0	-100.0	-181.0	1
3.0.1	2019_Mar_14_0834	s	s	8	4	Capacity	14	ABS	0	0	3	1	24_3_1	NA	NA	0	1	1.59120392799	None	None	None	None	1
3.0.1	2019_Mar_14_0834	s	s	8	4	Capacity	15	ABS	0	0	3	1	24_3_1	NA	NA	0	1	1.81050801277	None	None	None	None	1
3.0.1	2019_Mar_14_0834	s	s	8	4	Capacity	16	ABS	0	0	4	1	24_4_1	NA	NA	0	1	0.954956054688	None	None	None	None	1
3.0.1	2019_Mar_14_0834	s	s	8	4	Capacity	17	ABS	0	0	1	1	24_1_1	NA	NA	0	1	2.70917606354	None	None	None	None	1
3.0.1	2019_Mar_14_0834	s	s	8	4	Capacity	18	3_1	3	1	2	1	23_2_1	1	0	1	0	0.568690061569	174.0	-109.0	168.0	-110.0	1
3.0.1	2019_Mar_14_0834	s	s	8	4	Capacity	19	ABS	0	0	3	1	24_3_1	NA	NA	0	1	2.46262907982	None	None	None	None	1
3.0.1	2019_Mar_14_0834	s	s	8	4	Capacity	20	1_1	1	1	2	1	23_2_1	1	0	1	0	1.97211503983	-471.0	92.0	-471.0	89.0	1
3.0.1	2019_Mar_14_0834	s	s	8	4	Capacity	21	ABS	0	0	2	1	24_2_1	NA	NA	0	1	3.67165207863	None	None	None	None	1
3.0.1	2019_Mar_14_0834	s	s	8	4	Capacity	22	ABS	0	0	4	1	24_4_1	NA	NA	0	1	1.54006719589	None	None	None	None	1
3.0.1	2019_Mar_14_0834	s	s	8	4	Capacity	23	ABS	0	0	2	1	24_2_1	NA	NA	0	1	2.75623607635	None	None	None	None	1
3.0.1	2019_Mar_14_0834	s	s	8	4	Capacity	24	ABS	0	0	2	1	24_2_1	NA	NA	0	1	2.5749630928	None	None	None	None	1
3.0.1	2019_Mar_14_0834	s	s	8	4	Capacity	25	ABS	0	0	3	1	24_3_1	NA	NA	0	1	2.12810397148	None	None	None	None	1
3.0.1	2019_Mar_14_0834	s	s	8	4	Capacity	26	3_1	3	1	2	1	23_2_1	1	0	1	0	0.709211826324	238.0	231.0	237.0	229.0	1
3.0.1	2019_Mar_14_0834	s	s	8	4	Capacity	27	ABS	0	0	2	1	24_2_1	NA	NA	0	1	2.59854507446	None	None	None	None	1
3.0.1	2019_Mar_14_0834	s	s	8	4	Capacity	28	ABS	0	0	1	1	24_1_1	NA	NA	0	1	2.20154309273	None	None	None	None	1
3.0.1	2019_Mar_14_0834	s	s	8	4	Capacity	29	4_1	4	1	3	1	23_3_1	1	0	1	0	0.496526956558	-306.0	-382.0	-307.0	-380.0	1
3.0.1	2019_Mar_14_0834	s	s	8	4	Capacity	30	ABS	0	0	2	1	24_2_1	NA	NA	0	1	3.03366398811	None	None	None	None	1
3.0.1	2019_Mar_14_0834	s	s	8	4	Capacity	31	3_1	3	1	1	1	23_1_1	2	0	1	0	0.740211009979	229.0	41.0	233.0	45.0	1
3.0.1	2019_Mar_14_0834	s	s	8	4	Capacity	32	ABS	0	0	2	1	24_2_1	NA	NA	0	1	3.208974123	None	None	None	None	1
3.0.1	2019_Mar_14_0834	s	s	8	4	Capacity	33	ABS	0	0	4	1	24_4_1	NA	NA	0	1	2.31108498573	None	None	None	None	1
3.0.1	2019_Mar_14_0834	s	s	8	4	Capacity	34	2_1	2	1	3	1	23_3_1	1	0	1	0	0.563791036606	-155.0	15.0	-150.0	12.0	1
3.0.1	2019_Mar_14_0834	s	s	8	4	Capacity	35	ABS	0	0	1	1	24_1_1	NA	NA	0	1	2.2015080452	None	None	None	None	1
3.0.1	2019_Mar_14_0834	s	s	8	4	Capacity	36	4_1	4	1	1	1	23_1_1	3	0	1	0	0.554988145828	5.0	-221.0	7.0	-222.0	1
3.0.1	2019_Mar_14_0834	s	s	8	4	Capacity	37	2_1	2	1	1	1	23_1_1	-1	0	1	0	1.83449006081	-130.0	-266.0	-123.0	-266.0	1
3.0.1	2019_Mar_14_0834	s	s	8	4	Capacity	38	ABS	0	0	3	1	24_3_1	NA	NA	0	1	1.88628101349	None	None	None	None	1
3.0.1	2019_Mar_14_0834	s	s	8	4	Capacity	39	ABS	0	0	4	1	24_4_1	NA	NA	0	1	2.23383498192	None	None	None	None	1
3.0.1	2019_Mar_14_0834	s	s	8	4	Capacity	40	1_1	1	1	4	1	23_4_1	3	0	1	0	0.563751935959	250.0	292.0	250.0	297.0	1
3.0.1	2019_Mar_14_0834	s	s	8	4	Capacity	41	4_1	4	1	2	1	23_2_1	2	0	1	0	0.528617858887	215.0	262.0	218.0	268.0	1
3.0.1	2019_Mar_14_0834	s	s	8	4	Capacity	42	ABS	0	0	3	1	24_3_1	NA	NA	0	1	2.35626411438	None	None	None	None	1
3.0.1	2019_Mar_14_0834	s	s	8	4	Capacity	43	2_1	2	1	4	1	23_4_1	2	0	1	0	0.444756031036	-153.0	104.0	-149.0	102.0	1
3.0.1	2019_Mar_14_0834	s	s	8	4	Capacity	44	1_1	1	1	3	1	23_3_1	2	0	1	0	0.469738960266	202.0	-321.0	202.0	-316.0	1
3.0.1	2019_Mar_14_0834	s	s	8	4	Capacity	45	1_1	1	1	2	1	23_2_1	1	0	1	0	0.869562149048	449.0	-20.0	446.0	-21.0	1
3.0.1	2019_Mar_14_0834	s	s	8	4	Capacity	46	ABS	0	0	4	1	24_4_1	NA	NA	0	1	1.85586905479	None	None	None	None	1
3.0.1	2019_Mar_14_0834	s	s	8	4	Capacity	47	3_1	3	1	4	1	23_4_1	-1	0	1	0	0.440320968628	520.0	-33.0	517.0	-28.0	1
3.0.1	2019_Mar_14_0834	s	s	8	4	Capacity	48	ABS	0	0	1	1	24_1_1	NA	NA	0	1	2.86900496483	None	None	None	None	1
3.0.1	2019_Mar_14_0834	s	s	8	4	Capacity	49	ABS	0	0	2	1	24_2_1	NA	NA	0	1	1.74001097679	None	None	None	None	1
3.0.1	2019_Mar_14_0834	s	s	8	4	Capacity	50	1_1	1	1	2	1	23_2_1	1	0	1	0	0.555073022842	-73.0	102.0	-66.0	100.0	1
3.0.1	2019_Mar_14_0834	s	s	8	4	Capacity	51	ABS	0	0	1	1	24_1_1	NA	NA	0	1	2.28384685516	None	None	None	None	1
3.0.1	2019_Mar_14_0834	s	s	8	4	Capacity	52	2_1	2	1	4	1	23_4_1	2	0	1	0	0.484833955765	446.0	-116.0	438.0	-113.0	1
3.0.1	2019_Mar_14_0834	s	s	8	4	Capacity	53	1_1	1	1	3	1	23_3_1	2	0	1	0	0.651165962219	-165.0	46.0	-173.0	46.0	1
3.0.1	2019_Mar_14_0834	s	s	8	4	Capacity	54	ABS	0	0	4	1	24_4_1	NA	NA	0	1	2.18686413765	None	None	None	None	1
3.0.1	2019_Mar_14_0834	s	s	8	4	Capacity	55	ABS	0	0	3	1	24_3_1	NA	NA	0	1	1.88789796829	None	None	None	None	1
3.0.1	2019_Mar_14_0834	s	s	8	4	Capacity	56	4_1	4	1	3	1	23_3_1	1	0	1	0	0.511142969131	-464.0	-408.0	-460.0	-398.0	1
3.0.1	2019_Mar_14_0834	s	s	8	4	Capacity	57	ABS	0	0	2	1	24_2_1	NA	NA	0	1	3.08073210716	None	None	None	None	1
3.0.1	2019_Mar_14_0834	s	s	8	4	Capacity	58	3_1	3	1	2	1	23_2_1	1	0	1	0	0.599536180496	173.0	-130.0	176.0	-120.0	1
3.0.1	2019_Mar_14_0834	s	s	8	4	Capacity	59	1_1	1	1	4	1	23_4_1	3	0	1	0	0.481517076492	414.0	362.0	410.0	358.0	1
3.0.1	2019_Mar_14_0834	s	s	8	4	Capacity	60	ABS	0	0	3	1	24_3_1	NA	NA	0	1	2.19160699844	None	None	None	None	1
3.0.1	2019_Mar_14_0834	s	s	8	4	Capacity	61	ABS	0	0	1	1	24_1_1	NA	NA	0	1	2.5212020874	None	None	None	None	1
3.0.1	2019_Mar_14_0834	s	s	8	4	Capacity	62	3_1	3	1	1	1	23_1_1	2	0	1	0	0.449054002762	419.0	-254.0	414.0	-254.0	1
3.0.1	2019_Mar_14_0834	s	s	8	4	Capacity	63	4_1	4	1	2	1	23_2_1	2	0	1	0	0.437329053879	357.0	-246.0	358.0	-247.0	1
3.0.1	2019_Mar_14_0834	s	s	8	4	Capacity	64	ABS	0	0	4	1	24_4_1	NA	NA	0	1	2.15547704697	None	None	None	None	1
3.0.1	2019_Mar_14_0834	s	s	8	4	Capacity	65	ABS	0	0	2	1	24_2_1	NA	NA	0	1	3.01632380486	None	None	None	None	1
3.0.1	2019_Mar_14_0834	s	s	8	4	Capacity	66	ABS	0	0	4	1	24_4_1	NA	NA	0	1	1.5168299675	None	None	None	None	1
3.0.1	2019_Mar_14_0834	s	s	8	4	Capacity	67	3_1	3	1	4	1	23_4_1	-1	0	1	0	0.473943948746	-52.0	408.0	-49.0	413.0	1
3.0.1	2019_Mar_14_0834	s	s	8	4	Capacity	68	ABS	0	0	3	1	24_3_1	NA	NA	0	1	1.82266783714	None	None	None	None	1
3.0.1	2019_Mar_14_0834	s	s	8	4	Capacity	69	ABS	0	0	1	1	24_1_1	NA	NA	0	1	2.73841905594	None	None	None	None	1
3.0.1	2019_Mar_14_0834	s	s	8	4	Capacity	70	2_1	2	1	1	1	23_1_1	-1	0	1	0	1.00341081619	-364.0	178.0	-351.0	182.0	1
3.0.1	2019_Mar_14_0834	s	s	8	4	Capacity	71	2_1	2	1	3	1	23_3_1	1	0	1	0	0.575519800186	38.0	-110.0	42.0	-106.0	1
3.0.1	2019_Mar_14_0834	s	s	8	4	Capacity	72	4_1	4	1	1	1	23_1_1	3	0	1	0	0.613763809204	513.0	-196.0	523.0	-192.0	1
3.0.1	2019_Mar_14_0834	s	s	8	4	Capacity	73	2_1	2	1	4	1	23_4_1	2	0	1	0	0.559209108353	296.0	-199.0	296.0	-193.0	1
3.0.1	2019_Mar_14_0834	s	s	8	4	Capacity	74	4_1	4	1	3	1	23_3_1	1	0	1	0	0.496140003204	-455.0	-287.0	-463.0	-285.0	1
3.0.1	2019_Mar_14_0834	s	s	8	4	Capacity	75	1_1	1	1	2	1	23_2_1	1	0	1	0	0.746013879776	488.0	-208.0	497.0	-201.0	1
3.0.1	2019_Mar_14_0834	s	s	8	4	Capacity	76	4_1	4	1	1	1	23_1_1	3	0	1	0	0.481564044952	88.0	-64.0	91.0	-69.0	1
3.0.1	2019_Mar_14_0834	s	s	8	4	Capacity	77	3_1	3	1	1	1	23_1_1	2	0	1	0	0.475148916245	251.0	145.0	253.0	143.0	1
3.0.1	2019_Mar_14_0834	s	s	8	4	Capacity	78	ABS	0	0	2	1	24_2_1	NA	NA	0	1	3.56296300888	None	None	None	None	1
3.0.1	2019_Mar_14_0834	s	s	8	4	Capacity	79	ABS	0	0	3	1	24_3_1	NA	NA	0	1	2.91216182709	None	None	None	None	1
3.0.1	2019_Mar_14_0834	s	s	8	4	Capacity	80	ABS	0	0	4	1	24_4_1	NA	NA	0	1	1.51652407646	None	None	None	None	1
3.0.1	2019_Mar_14_0834	s	s	8	4	Capacity	81	ABS	0	0	3	1	24_3_1	NA	NA	0	1	1.43703913689	None	None	None	None	1
3.0.1	2019_Mar_14_0834	s	s	8	4	Capacity	82	2_1	2	1	1	1	23_1_1	-1	0	1	0	1.77527403831	436.0	85.0	430.0	92.0	1
3.0.1	2019_Mar_14_0834	s	s	8	4	Capacity	83	ABS	0	0	4	1	24_4_1	NA	NA	0	1	1.79318881035	None	None	None	None	1
3.0.1	2019_Mar_14_0834	s	s	8	4	Capacity	84	ABS	0	0	1	1	24_1_1	NA	NA	0	1	1.99190688133	None	None	None	None	1
3.0.1	2019_Mar_14_0834	s	s	8	4	Capacity	85	3_1	3	1	2	1	23_2_1	1	0	1	0	0.686628103256	169.0	-67.0	167.0	-72.0	1
3.0.1	2019_Mar_14_0834	s	s	8	4	Capacity	86	ABS	0	0	1	1	24_1_1	NA	NA	0	1	2.08593392372	None	None	None	None	1
3.0.1	2019_Mar_14_0834	s	s	8	4	Capacity	87	4_1	4	1	2	1	23_2_1	2	0	1	0	0.533159017563	-390.0	250.0	-390.0	255.0	1
3.0.1	2019_Mar_14_0834	s	s	8	4	Capacity	88	ABS	0	0	3	1	24_3_1	NA	NA	0	1	2.19079184532	None	None	None	None	1
3.0.1	2019_Mar_14_0834	s	s	8	4	Capacity	89	1_1	1	1	3	1	23_3_1	2	0	1	0	0.73131608963	-312.0	-216.0	-311.0	-218.0	1
3.0.1	2019_Mar_14_0834	s	s	8	4	Capacity	90	ABS	0	0	1	1	24_1_1	NA	NA	0	1	2.4456281662	None	None	None	None	1
3.0.1	2019_Mar_14_0834	s	s	8	4	Capacity	91	3_1	3	1	4	1	23_4_1	-1	0	1	0	0.457938194275	-288.0	-366.0	-284.0	-378.0	1
3.0.1	2019_Mar_14_0834	s	s	8	4	Capacity	92	ABS	0	0	4	1	24_4_1	NA	NA	0	1	1.70916199684	None	None	None	None	1
3.0.1	2019_Mar_14_0834	s	s	8	4	Capacity	93	ABS	0	0	2	1	24_2_1	NA	NA	0	1	2.69256091118	None	None	None	None	1
3.0.1	2019_Mar_14_0834	s	s	8	4	Capacity	94	ABS	0	0	2	1	24_2_1	NA	NA	0	1	2.19869709015	None	None	None	None	1
3.0.1	2019_Mar_14_0834	s	s	8	4	Capacity	95	1_1	1	1	4	1	23_4_1	3	0	1	0	0.475564002991	306.0	352.0	297.0	350.0	1
3.0.1	2019_Mar_14_0834	s	s	8	4	Capacity	96	2_1	2	1	3	1	23_3_1	1	0	1	0	0.907786846161	483.0	228.0	481.0	235.0	1
3.0.1	2019_Mar_14_0834	s	s	8	4	Capacity	1	1_4	1	4	1	1	23_1_1	0	3	1	0	0.693526983261	70.0	-411.0	71.0	-408.0	1
3.0.1	2019_Mar_14_0834	s	s	8	4	Capacity	2	ABS	0	0	1	4	24_1_4	NA	NA	0	1	1.88131093979	None	None	None	None	1
3.0.1	2019_Mar_14_0834	s	s	8	4	Capacity	3	ABS	0	0	1	3	24_1_3	NA	NA	0	1	3.33062720299	None	None	None	None	1
3.0.1	2019_Mar_14_0834	s	s	8	4	Capacity	4	1_1	1	1	1	2	23_1_2	0	1	1	0	0.737368106842	5.0	343.0	6.0	338.0	1
3.0.1	2019_Mar_14_0834	s	s	8	4	Capacity	5	ABS	0	0	1	1	24_1_1	NA	NA	0	1	3.38269710541	None	None	None	None	1
3.0.1	2019_Mar_14_0834	s	s	8	4	Capacity	6	1_3	1	3	1	2	23_1_2	0	1	1	0	1.46948814392	158.0	-101.0	147.0	-99.0	1
3.0.1	2019_Mar_14_0834	s	s	8	4	Capacity	7	1_2	1	2	1	4	23_1_4	0	2	1	0	0.601988077164	128.0	-156.0	131.0	-154.0	1
3.0.1	2019_Mar_14_0834	s	s	8	4	Capacity	8	1_3	1	3	1	4	23_1_4	0	-1	1	0	0.54319190979	81.0	-60.0	77.0	-57.0	1
3.0.1	2019_Mar_14_0834	s	s	8	4	Capacity	9	ABS	0	0	1	3	24_1_3	NA	NA	0	1	4.4144308567	None	None	None	None	1
3.0.1	2019_Mar_14_0834	s	s	8	4	Capacity	10	1_4	1	4	1	3	23_1_3	0	1	1	0	0.693167924881	271.0	301.0	276.0	302.0	1
3.0.1	2019_Mar_14_0834	s	s	8	4	Capacity	11	ABS	0	0	1	2	24_1_2	NA	NA	0	1	4.64891314507	None	None	None	None	1
3.0.1	2019_Mar_14_0834	s	s	8	4	Capacity	12	1_1	1	1	1	4	23_1_4	0	3	1	0	0.704991817474	-476.0	353.0	-479.0	354.0	1
3.0.1	2019_Mar_14_0834	s	s	8	4	Capacity	13	ABS	0	0	1	2	24_1_2	NA	NA	0	1	4.95374894142	None	None	None	None	1
3.0.1	2019_Mar_14_0834	s	s	8	4	Capacity	14	ABS	0	0	1	1	24_1_1	NA	NA	0	1	3.04539179802	None	None	None	None	1
3.0.1	2019_Mar_14_0834	s	s	8	4	Capacity	15	1_2	1	2	1	1	23_1_1	0	-1	0	1	2.93952894211	240.0	341.0	None	None	0
3.0.1	2019_Mar_14_0834	s	s	8	4	Capacity	16	ABS	0	0	1	4	24_1_4	NA	NA	0	1	2.06045985222	None	None	None	None	1
3.0.1	2019_Mar_14_0834	s	s	8	4	Capacity	17	ABS	0	0	1	2	24_1_2	NA	NA	0	1	7.52406597137	None	None	None	None	1
3.0.1	2019_Mar_14_0834	s	s	8	4	Capacity	18	1_2	1	2	1	3	23_1_3	0	1	1	0	3.70415592194	250.0	142.0	255.0	145.0	1
3.0.1	2019_Mar_14_0834	s	s	8	4	Capacity	19	ABS	0	0	1	3	24_1_3	NA	NA	0	1	3.04539489746	None	None	None	None	1
3.0.1	2019_Mar_14_0834	s	s	8	4	Capacity	20	1_4	1	4	1	2	23_1_2	0	2	1	0	0.822580099106	-389.0	-234.0	-389.0	-234.0	1
3.0.1	2019_Mar_14_0834	s	s	8	4	Capacity	21	ABS	0	0	1	1	24_1_1	NA	NA	0	1	4.95733118057	None	None	None	None	1
3.0.1	2019_Mar_14_0834	s	s	8	4	Capacity	22	ABS	0	0	1	4	24_1_4	NA	NA	0	1	2.06291389465	None	None	None	None	1
3.0.1	2019_Mar_14_0834	s	s	8	4	Capacity	23	1_3	1	3	1	1	23_1_1	0	2	1	0	5.22122597694	-450.0	229.0	-452.0	226.0	1
3.0.1	2019_Mar_14_0834	s	s	8	4	Capacity	24	1_1	1	1	1	3	23_1_3	0	2	1	0	2.73685789108	478.0	-277.0	475.0	-281.0	1
3.0.1	2019_Mar_14_0834	s	s	8	4	Capacity	25	1_4	1	4	1	3	23_1_3	0	1	1	0	0.928457021713	127.0	47.0	126.0	35.0	1
3.0.1	2019_Mar_14_0834	s	s	8	4	Capacity	26	1_1	1	1	1	4	23_1_4	0	3	1	0	0.913053035736	498.0	366.0	498.0	371.0	1
3.0.1	2019_Mar_14_0834	s	s	8	4	Capacity	27	ABS	0	0	1	2	24_1_2	NA	NA	0	1	6.24957299232	None	None	None	None	1
3.0.1	2019_Mar_14_0834	s	s	8	4	Capacity	28	1_3	1	3	1	4	23_1_4	0	-1	1	0	0.658353090286	-396.0	57.0	-395.0	51.0	1
3.0.1	2019_Mar_14_0834	s	s	8	4	Capacity	29	1_1	1	1	1	2	23_1_2	0	1	1	0	2.06930088997	55.0	161.0	54.0	161.0	1
3.0.1	2019_Mar_14_0834	s	s	8	4	Capacity	30	ABS	0	0	1	2	24_1_2	NA	NA	0	1	4.7978310585	None	None	None	None	1
3.0.1	2019_Mar_14_0834	s	s	8	4	Capacity	31	ABS	0	0	1	3	24_1_3	NA	NA	0	1	2.08390307426	None	None	None	None	1
3.0.1	2019_Mar_14_0834	s	s	8	4	Capacity	32	1_2	1	2	1	1	23_1_1	0	-1	1	0	2.39900302887	514.0	-294.0	511.0	-296.0	1
3.0.1	2019_Mar_14_0834	s	s	8	4	Capacity	33	1_2	1	2	1	4	23_1_4	0	2	1	0	0.646099805832	142.0	256.0	145.0	257.0	1
3.0.1	2019_Mar_14_0834	s	s	8	4	Capacity	34	1_3	1	3	1	1	23_1_1	0	2	1	0	1.222427845	448.0	45.0	448.0	51.0	1
3.0.1	2019_Mar_14_0834	s	s	8	4	Capacity	35	ABS	0	0	1	4	24_1_4	NA	NA	0	1	2.03992581367	None	None	None	None	1
3.0.1	2019_Mar_14_0834	s	s	8	4	Capacity	36	ABS	0	0	1	4	24_1_4	NA	NA	0	1	2.1129360199	None	None	None	None	1
3.0.1	2019_Mar_14_0834	s	s	8	4	Capacity	37	ABS	0	0	1	3	24_1_3	NA	NA	0	1	3.46245098114	None	None	None	None	1
3.0.1	2019_Mar_14_0834	s	s	8	4	Capacity	38	ABS	0	0	1	1	24_1_1	NA	NA	0	1	3.5393550396	None	None	None	None	1
3.0.1	2019_Mar_14_0834	s	s	8	4	Capacity	39	1_3	1	3	1	2	23_1_2	0	1	1	0	3.2739109993	-104.0	62.0	-108.0	52.0	1
3.0.1	2019_Mar_14_0834	s	s	8	4	Capacity	40	ABS	0	0	1	1	24_1_1	NA	NA	0	1	3.36293792725	None	None	None	None	1
3.0.1	2019_Mar_14_0834	s	s	8	4	Capacity	41	ABS	0	0	1	3	24_1_3	NA	NA	0	1	5.1624379158	None	None	None	None	1
3.0.1	2019_Mar_14_0834	s	s	8	4	Capacity	42	ABS	0	0	1	4	24_1_4	NA	NA	0	1	1.46946692467	None	None	None	None	1
3.0.1	2019_Mar_14_0834	s	s	8	4	Capacity	43	1_4	1	4	1	1	23_1_1	0	3	1	0	0.767793893814	-276.0	-80.0	-278.0	-84.0	1
3.0.1	2019_Mar_14_0834	s	s	8	4	Capacity	44	1_4	1	4	1	2	23_1_2	0	2	1	0	0.973954200745	-221.0	179.0	-221.0	185.0	1
3.0.1	2019_Mar_14_0834	s	s	8	4	Capacity	45	ABS	0	0	1	1	24_1_1	NA	NA	0	1	2.78953289986	None	None	None	None	1
3.0.1	2019_Mar_14_0834	s	s	8	4	Capacity	46	1_2	1	2	1	3	23_1_3	0	1	0	1	2.96700787544	28.0	193.0	None	None	0
3.0.1	2019_Mar_14_0834	s	s	8	4	Capacity	47	1_1	1	1	1	3	23_1_3	0	2	1	0	2.64594697952	343.0	213.0	348.0	215.0	1
3.0.1	2019_Mar_14_0834	s	s	8	4	Capacity	48	ABS	0	0	1	2	24_1_2	NA	NA	0	1	5.4211640358	None	None	None	None	1
3.0.1	2019_Mar_14_0834	s	s	8	4	Capacity	49	ABS	0	0	1	4	24_1_4	NA	NA	0	1	1.08963704109	None	None	None	None	1
3.0.1	2019_Mar_14_0834	s	s	8	4	Capacity	50	1_2	1	2	1	3	23_1_3	0	1	1	0	2.15155100822	-222.0	12.0	-222.0	16.0	1
3.0.1	2019_Mar_14_0834	s	s	8	4	Capacity	51	ABS	0	0	1	3	24_1_3	NA	NA	0	1	4.25090789795	None	None	None	None	1
3.0.1	2019_Mar_14_0834	s	s	8	4	Capacity	52	ABS	0	0	1	2	24_1_2	NA	NA	0	1	5.82616710663	None	None	None	None	1
3.0.1	2019_Mar_14_0834	s	s	8	4	Capacity	53	1_3	1	3	1	1	23_1_1	0	2	1	0	0.907775878906	228.0	-186.0	217.0	-181.0	1
3.0.1	2019_Mar_14_0834	s	s	8	4	Capacity	54	ABS	0	0	1	2	24_1_2	NA	NA	0	1	6.38557505608	None	None	None	None	1
3.0.1	2019_Mar_14_0834	s	s	8	4	Capacity	55	ABS	0	0	1	1	24_1_1	NA	NA	0	1	2.86910104752	None	None	None	None	1
3.0.1	2019_Mar_14_0834	s	s	8	4	Capacity	56	1_2	1	2	1	4	23_1_4	0	2	1	0	0.731333971024	-431.0	346.0	-438.0	344.0	1
3.0.1	2019_Mar_14_0834	s	s	8	4	Capacity	57	1_4	1	4	1	3	23_1_3	0	1	1	0	0.952008962631	3.0	-104.0	5.0	-99.0	1
3.0.1	2019_Mar_14_0834	s	s	8	4	Capacity	58	1_1	1	1	1	4	23_1_4	0	3	1	0	0.563868045807	221.0	122.0	224.0	118.0	1
3.0.1	2019_Mar_14_0834	s	s	8	4	Capacity	59	ABS	0	0	1	3	24_1_3	NA	NA	0	1	4.41012096405	None	None	None	None	1
3.0.1	2019_Mar_14_0834	s	s	8	4	Capacity	60	1_2	1	2	1	1	23_1_1	0	-1	0	1	2.02016401291	11.0	-369.0	None	None	0
3.0.1	2019_Mar_14_0834	s	s	8	4	Capacity	61	1_4	1	4	1	1	23_1_1	0	3	1	0	0.893203020096	176.0	-412.0	180.0	-414.0	1
3.0.1	2019_Mar_14_0834	s	s	8	4	Capacity	62	ABS	0	0	1	4	24_1_4	NA	NA	0	1	1.50252604485	None	None	None	None	1
3.0.1	2019_Mar_14_0834	s	s	8	4	Capacity	63	ABS	0	0	1	2	24_1_2	NA	NA	0	1	6.16211700439	None	None	None	None	1
3.0.1	2019_Mar_14_0834	s	s	8	4	Capacity	64	1_3	1	3	1	4	23_1_4	0	-1	1	0	0.587448120117	-12.0	52.0	-19.0	49.0	1
3.0.1	2019_Mar_14_0834	s	s	8	4	Capacity	65	1_4	1	4	1	2	23_1_2	0	2	1	0	0.599065065384	384.0	344.0	375.0	348.0	1
3.0.1	2019_Mar_14_0834	s	s	8	4	Capacity	66	ABS	0	0	1	1	24_1_1	NA	NA	0	1	3.5316889286	None	None	None	None	1
3.0.1	2019_Mar_14_0834	s	s	8	4	Capacity	67	ABS	0	0	1	3	24_1_3	NA	NA	0	1	4.48036694527	None	None	None	None	1
3.0.1	2019_Mar_14_0834	s	s	8	4	Capacity	68	ABS	0	0	1	1	24_1_1	NA	NA	0	1	3.82564282417	None	None	None	None	1
3.0.1	2019_Mar_14_0834	s	s	8	4	Capacity	69	ABS	0	0	1	4	24_1_4	NA	NA	0	1	2.78020787239	None	None	None	None	1
3.0.1	2019_Mar_14_0834	s	s	8	4	Capacity	70	1_1	1	1	1	2	23_1_2	0	1	1	0	3.75746893883	6.0	-145.0	11.0	-141.0	1
3.0.1	2019_Mar_14_0834	s	s	8	4	Capacity	71	1_1	1	1	1	3	23_1_3	0	2	1	0	0.931109905243	-419.0	-125.0	-412.0	-118.0	1
3.0.1	2019_Mar_14_0834	s	s	8	4	Capacity	72	1_3	1	3	1	2	23_1_2	0	1	1	0	1.77524495125	-7.0	14.0	-5.0	16.0	1
3.0.1	2019_Mar_14_0834	s	s	8	4	Capacity	73	1_1	1	1	1	2	23_1_2	0	1	1	0	3.603317976	-303.0	351.0	-300.0	351.0	1
3.0.1	2019_Mar_14_0834	s	s	8	4	Capacity	74	ABS	0	0	1	2	24_1_2	NA	NA	0	1	5.85420393944	None	None	None	None	1
3.0.1	2019_Mar_14_0834	s	s	8	4	Capacity	75	1_1	1	1	1	4	23_1_4	0	3	1	0	0.587252140045	-363.0	-119.0	-364.0	-109.0	1
3.0.1	2019_Mar_14_0834	s	s	8	4	Capacity	76	ABS	0	0	1	1	24_1_1	NA	NA	0	1	2.29764986038	None	None	None	None	1
3.0.1	2019_Mar_14_0834	s	s	8	4	Capacity	77	1_1	1	1	1	3	23_1_3	0	2	1	0	1.01594090462	292.0	-209.0	288.0	-202.0	1
3.0.1	2019_Mar_14_0834	s	s	8	4	Capacity	78	1_4	1	4	1	3	23_1_3	0	1	1	0	0.681392192841	-268.0	245.0	-277.0	244.0	1
3.0.1	2019_Mar_14_0834	s	s	8	4	Capacity	79	ABS	0	0	1	1	24_1_1	NA	NA	0	1	2.53442001343	None	None	None	None	1
3.0.1	2019_Mar_14_0834	s	s	8	4	Capacity	80	1_3	1	3	1	2	23_1_2	0	1	1	0	6.04448604584	440.0	263.0	435.0	265.0	1
3.0.1	2019_Mar_14_0834	s	s	8	4	Capacity	81	ABS	0	0	1	4	24_1_4	NA	NA	0	1	1.64578914642	None	None	None	None	1
3.0.1	2019_Mar_14_0834	s	s	8	4	Capacity	82	1_2	1	2	1	1	23_1_1	0	-1	1	0	3.59818792343	-43.0	-395.0	-42.0	-386.0	1
3.0.1	2019_Mar_14_0834	s	s	8	4	Capacity	83	ABS	0	0	1	3	24_1_3	NA	NA	0	1	4.4948990345	None	None	None	None	1
3.0.1	2019_Mar_14_0834	s	s	8	4	Capacity	84	ABS	0	0	1	3	24_1_3	NA	NA	0	1	3.53291797638	None	None	None	None	1
3.0.1	2019_Mar_14_0834	s	s	8	4	Capacity	85	ABS	0	0	1	1	24_1_1	NA	NA	0	1	2.37835097313	None	None	None	None	1
3.0.1	2019_Mar_14_0834	s	s	8	4	Capacity	86	1_3	1	3	1	1	23_1_1	0	2	1	0	0.914164066315	42.0	89.0	39.0	87.0	1
3.0.1	2019_Mar_14_0834	s	s	8	4	Capacity	87	1_3	1	3	1	4	23_1_4	0	-1	1	0	1.44606900215	494.0	-394.0	502.0	-384.0	1
3.0.1	2019_Mar_14_0834	s	s	8	4	Capacity	88	1_4	1	4	1	2	23_1_2	0	2	1	0	0.661201953888	-415.0	154.0	-423.0	159.0	1
3.0.1	2019_Mar_14_0834	s	s	8	4	Capacity	89	1_2	1	2	1	4	23_1_4	0	2	1	0	0.75196313858	-243.0	-291.0	-246.0	-289.0	1
3.0.1	2019_Mar_14_0834	s	s	8	4	Capacity	90	ABS	0	0	1	2	24_1_2	NA	NA	0	1	7.35457897186	None	None	None	None	1
3.0.1	2019_Mar_14_0834	s	s	8	4	Capacity	91	ABS	0	0	1	4	24_1_4	NA	NA	0	1	1.52825808525	None	None	None	None	1
3.0.1	2019_Mar_14_0834	s	s	8	4	Capacity	92	1_4	1	4	1	1	23_1_1	0	3	1	0	0.827455997467	402.0	-207.0	403.0	-205.0	1
3.0.1	2019_Mar_14_0834	s	s	8	4	Capacity	93	1_2	1	2	1	3	23_1_3	0	1	1	0	1.85756587982	-326.0	-81.0	-323.0	-83.0	1
3.0.1	2019_Mar_14_0834	s	s	8	4	Capacity	94	ABS	0	0	1	3	24_1_3	NA	NA	0	1	3.0200009346	None	None	None	None	1
3.0.1	2019_Mar_14_0834	s	s	8	4	Capacity	95	ABS	0	0	1	4	24_1_4	NA	NA	0	1	1.16362810135	None	None	None	None	1
3.0.1	2019_Mar_14_0834	s	s	8	4	Capacity	96	ABS	0	0	1	2	24_1_2	NA	NA	0	1	7.20882701874	None	None	None	None	1
3.0.1	2019_Mar_14_0834	s	s	8	4	SIC	1	1_2	1	2	2	2	23_2_2	1	0	1	0	1.32833886147	-459.0	57.0	-450.0	59.0	1
3.0.1	2019_Mar_14_0834	s	s	8	4	SIC	2	ABS	0	0	4	1	24_4_1	NA	NA	0	1	1.72856688499	None	None	None	None	1
3.0.1	2019_Mar_14_0834	s	s	8	4	SIC	3	ABS	0	0	3	1	24_3_1	NA	NA	0	1	2.03263807297	None	None	None	None	1
3.0.1	2019_Mar_14_0834	s	s	8	4	SIC	4	1_3	1	3	2	2	23_2_2	1	1	1	0	0.972393989563	-454.0	-233.0	-445.0	-227.0	1
3.0.1	2019_Mar_14_0834	s	s	8	4	SIC	5	1_2	1	2	4	4	23_4_4	3	2	1	0	0.457972049713	-221.0	50.0	-217.0	50.0	1
3.0.1	2019_Mar_14_0834	s	s	8	4	SIC	6	ABS	0	0	4	1	24_4_1	NA	NA	0	1	1.69277787209	None	None	None	None	1
3.0.1	2019_Mar_14_0834	s	s	8	4	SIC	7	3_4	3	4	3	3	23_3_3	0	1	1	0	0.626363992691	237.0	166.0	240.0	164.0	1
3.0.1	2019_Mar_14_0834	s	s	8	4	SIC	8	ABS	0	0	2	2	24_2_2	NA	NA	0	1	3.8686709404	None	None	None	None	1
3.0.1	2019_Mar_14_0834	s	s	8	4	SIC	9	2_1	2	1	3	2	23_3_2	1	1	1	0	0.752034902573	-350.0	308.0	-352.0	308.0	1
3.0.1	2019_Mar_14_0834	s	s	8	4	SIC	10	2_1	2	1	4	2	23_4_2	2	1	1	0	0.48149895668	-267.0	-107.0	-270.0	-106.0	1
3.0.1	2019_Mar_14_0834	s	s	8	4	SIC	11	4_2	4	2	3	1	23_3_1	1	-1	1	0	0.422678947449	386.0	-221.0	389.0	-225.0	1
3.0.1	2019_Mar_14_0834	s	s	8	4	SIC	12	4_4	4	4	2	3	23_2_3	2	1	1	0	0.425571918488	-130.0	116.0	-133.0	123.0	1
3.0.1	2019_Mar_14_0834	s	s	8	4	SIC	13	2_2	2	2	3	3	23_3_3	1	1	1	0	1.56894803047	374.0	407.0	376.0	416.0	1
3.0.1	2019_Mar_14_0834	s	s	8	4	SIC	14	1_3	1	3	3	2	23_3_2	2	1	1	0	0.442398071289	-13.0	194.0	-17.0	191.0	1
3.0.1	2019_Mar_14_0834	s	s	8	4	SIC	15	ABS	0	0	4	4	24_4_4	NA	NA	0	1	1.97238683701	None	None	None	None	1
3.0.1	2019_Mar_14_0834	s	s	8	4	SIC	16	ABS	0	0	2	1	24_2_1	NA	NA	0	1	2.51662898064	None	None	None	None	1
3.0.1	2019_Mar_14_0834	s	s	8	4	SIC	17	4_3	4	3	4	4	23_4_4	0	-1	1	0	1.54493618011	506.0	43.0	510.0	41.0	1
3.0.1	2019_Mar_14_0834	s	s	8	4	SIC	18	1_4	1	4	3	2	23_3_2	2	2	1	0	0.540360927582	-504.0	-258.0	-514.0	-254.0	1
3.0.1	2019_Mar_14_0834	s	s	8	4	SIC	19	ABS	0	0	2	3	24_2_3	NA	NA	0	1	3.36302495003	None	None	None	None	1
3.0.1	2019_Mar_14_0834	s	s	8	4	SIC	20	ABS	0	0	2	4	24_2_4	NA	NA	0	1	2.04582214355	None	None	None	None	1
3.0.1	2019_Mar_14_0834	s	s	8	4	SIC	21	ABS	0	0	2	1	24_2_1	NA	NA	0	1	3.36299681664	None	None	None	None	1
3.0.1	2019_Mar_14_0834	s	s	8	4	SIC	22	1_2	1	2	4	1	23_4_1	3	-1	1	0	0.505421876907	-63.0	-162.0	-67.0	-155.0	1
3.0.1	2019_Mar_14_0834	s	s	8	4	SIC	23	ABS	0	0	2	1	24_2_1	NA	NA	0	1	4.42149996758	None	None	None	None	1
3.0.1	2019_Mar_14_0834	s	s	8	4	SIC	24	4_2	4	2	2	4	23_2_4	2	2	1	0	0.496202945709	268.0	256.0	268.0	249.0	1
3.0.1	2019_Mar_14_0834	s	s	8	4	SIC	25	1_4	1	4	1	1	23_1_1	0	3	1	0	0.704993963242	-450.0	245.0	-454.0	248.0	1
3.0.1	2019_Mar_14_0834	s	s	8	4	SIC	26	1_1	1	1	1	2	23_1_2	0	1	0	1	4.23330593109	256.0	131.0	None	None	0
3.0.1	2019_Mar_14_0834	s	s	8	4	SIC	27	ABS	0	0	1	2	24_1_2	NA	NA	0	1	3.76736903191	None	None	None	None	1
3.0.1	2019_Mar_14_0834	s	s	8	4	SIC	28	4_4	4	4	3	4	23_3_4	1	0	1	0	0.500080823898	-96.0	-168.0	-89.0	-163.0	1
3.0.1	2019_Mar_14_0834	s	s	8	4	SIC	29	3_4	3	4	4	4	23_4_4	-1	0	1	0	0.519665002823	53.0	-401.0	50.0	-400.0	1
3.0.1	2019_Mar_14_0834	s	s	8	4	SIC	30	ABS	0	0	2	3	24_2_3	NA	NA	0	1	5.25941181183	None	None	None	None	1
3.0.1	2019_Mar_14_0834	s	s	8	4	SIC	31	1_2	1	2	3	1	23_3_1	2	-1	1	0	0.575546979904	29.0	-220.0	31.0	-212.0	1
3.0.1	2019_Mar_14_0834	s	s	8	4	SIC	32	ABS	0	0	3	1	24_3_1	NA	NA	0	1	2.69711089134	None	None	None	None	1
3.0.1	2019_Mar_14_0834	s	s	8	4	SIC	33	3_2	3	2	2	4	23_2_4	1	2	1	0	0.502743959427	-393.0	-327.0	-383.0	-328.0	1
3.0.1	2019_Mar_14_0834	s	s	8	4	SIC	34	ABS	0	0	2	1	24_2_1	NA	NA	0	1	2.37890005112	None	None	None	None	1
3.0.1	2019_Mar_14_0834	s	s	8	4	SIC	35	ABS	0	0	3	1	24_3_1	NA	NA	0	1	1.98694396019	None	None	None	None	1
3.0.1	2019_Mar_14_0834	s	s	8	4	SIC	36	3_1	3	1	2	4	23_2_4	1	3	1	0	0.509345054626	-42.0	202.0	-47.0	207.0	1
3.0.1	2019_Mar_14_0834	s	s	8	4	SIC	37	ABS	0	0	3	4	24_3_4	NA	NA	0	1	1.2460501194	None	None	None	None	1
3.0.1	2019_Mar_14_0834	s	s	8	4	SIC	38	ABS	0	0	1	4	24_1_4	NA	NA	0	1	3.08921408653	None	None	None	None	1
3.0.1	2019_Mar_14_0834	s	s	8	4	SIC	39	ABS	0	0	4	1	24_4_1	NA	NA	0	1	1.88603711128	None	None	None	None	1
3.0.1	2019_Mar_14_0834	s	s	8	4	SIC	40	2_3	2	3	2	4	23_2_4	0	-1	1	0	0.913026094437	-91.0	-394.0	-91.0	-402.0	1
3.0.1	2019_Mar_14_0834	s	s	8	4	SIC	41	2_2	2	2	1	1	23_1_1	-1	-1	1	0	1.48625898361	-305.0	-215.0	-313.0	-217.0	1
3.0.1	2019_Mar_14_0834	s	s	8	4	SIC	42	2_4	2	4	3	4	23_3_4	1	0	1	0	0.521728038788	-42.0	-166.0	-49.0	-159.0	1
3.0.1	2019_Mar_14_0834	s	s	8	4	SIC	43	ABS	0	0	3	3	24_3_3	NA	NA	0	1	3.17971897125	None	None	None	None	1
3.0.1	2019_Mar_14_0834	s	s	8	4	SIC	44	2_3	2	3	4	3	23_4_3	2	0	1	0	0.516829967499	358.0	200.0	355.0	201.0	1
3.0.1	2019_Mar_14_0834	s	s	8	4	SIC	45	ABS	0	0	3	4	24_3_4	NA	NA	0	1	1.82718586922	None	None	None	None	1
3.0.1	2019_Mar_14_0834	s	s	8	4	SIC	46	ABS	0	0	2	1	24_2_1	NA	NA	0	1	3.16305804253	None	None	None	None	1
3.0.1	2019_Mar_14_0834	s	s	8	4	SIC	47	2_3	2	3	4	1	23_4_1	2	2	1	0	0.519531011581	245.0	249.0	246.0	244.0	1
3.0.1	2019_Mar_14_0834	s	s	8	4	SIC	48	ABS	0	0	4	1	24_4_1	NA	NA	0	1	2.21035814285	None	None	None	None	1
3.0.1	2019_Mar_14_0834	s	s	8	4	SIC	49	ABS	0	0	2	3	24_2_3	NA	NA	0	1	3.21007990837	None	None	None	None	1
3.0.1	2019_Mar_14_0834	s	s	8	4	SIC	50	ABS	0	0	3	4	24_3_4	NA	NA	0	1	0.992227077484	None	None	None	None	1
3.0.1	2019_Mar_14_0834	s	s	8	4	SIC	51	ABS	0	0	3	1	24_3_1	NA	NA	0	1	2.04564714432	None	None	None	None	1
3.0.1	2019_Mar_14_0834	s	s	8	4	SIC	52	ABS	0	0	1	3	24_1_3	NA	NA	0	1	2.56835198402	None	None	None	None	1
3.0.1	2019_Mar_14_0834	s	s	8	4	SIC	53	ABS	0	0	4	4	24_4_4	NA	NA	0	1	1.64985489845	None	None	None	None	1
3.0.1	2019_Mar_14_0834	s	s	8	4	SIC	54	4_1	4	1	1	1	23_1_1	3	0	1	0	0.516822099686	155.0	-320.0	149.0	-317.0	1
3.0.1	2019_Mar_14_0834	s	s	8	4	SIC	55	2_4	2	4	1	2	23_1_2	-1	2	1	0	0.511075019836	-257.0	-85.0	-256.0	-86.0	1
3.0.1	2019_Mar_14_0834	s	s	8	4	SIC	56	ABS	0	0	2	4	24_2_4	NA	NA	0	1	2.06390285492	None	None	None	None	1
3.0.1	2019_Mar_14_0834	s	s	8	4	SIC	57	2_3	2	3	3	2	23_3_2	1	1	1	0	0.678057909012	-473.0	-156.0	-466.0	-146.0	1
3.0.1	2019_Mar_14_0834	s	s	8	4	SIC	58	4_3	4	3	2	3	23_2_3	2	0	1	0	0.434900999069	-163.0	274.0	-163.0	269.0	1
3.0.1	2019_Mar_14_0834	s	s	8	4	SIC	59	ABS	0	0	3	1	24_3_1	NA	NA	0	1	1.65765595436	None	None	None	None	1
3.0.1	2019_Mar_14_0834	s	s	8	4	SIC	60	ABS	0	0	2	2	24_2_2	NA	NA	0	1	3.02748703957	None	None	None	None	1
3.0.1	2019_Mar_14_0834	s	s	8	4	SIC	61	4_3	4	3	1	2	23_1_2	3	1	1	0	0.49807882309	-539.0	-157.0	-543.0	-166.0	1
3.0.1	2019_Mar_14_0834	s	s	8	4	SIC	62	2_4	2	4	1	4	23_1_4	-1	0	1	0	1.99097299576	-519.0	217.0	-515.0	215.0	1
3.0.1	2019_Mar_14_0834	s	s	8	4	SIC	63	ABS	0	0	2	3	24_2_3	NA	NA	0	1	2.96315598488	None	None	None	None	1
3.0.1	2019_Mar_14_0834	s	s	8	4	SIC	64	ABS	0	0	3	1	24_3_1	NA	NA	0	1	1.71643900871	None	None	None	None	1
3.0.1	2019_Mar_14_0834	s	s	8	4	SIC	65	ABS	0	0	3	2	24_3_2	NA	NA	0	1	3.59828996658	None	None	None	None	1
3.0.1	2019_Mar_14_0834	s	s	8	4	SIC	66	ABS	0	0	3	4	24_3_4	NA	NA	0	1	1.78019618988	None	None	None	None	1
3.0.1	2019_Mar_14_0834	s	s	8	4	SIC	67	ABS	0	0	3	4	24_3_4	NA	NA	0	1	1.44233393669	None	None	None	None	1
3.0.1	2019_Mar_14_0834	s	s	8	4	SIC	68	2_1	2	1	4	4	23_4_4	2	3	1	0	0.540313959122	418.0	-191.0	416.0	-186.0	1
3.0.1	2019_Mar_14_0834	s	s	8	4	SIC	69	ABS	0	0	2	1	24_2_1	NA	NA	0	1	5.89176297188	None	None	None	None	1
3.0.1	2019_Mar_14_0834	s	s	8	4	SIC	70	ABS	0	0	3	3	24_3_3	NA	NA	0	1	2.24559998512	None	None	None	None	1
3.0.1	2019_Mar_14_0834	s	s	8	4	SIC	71	ABS	0	0	1	4	24_1_4	NA	NA	0	1	1.29789686203	None	None	None	None	1
3.0.1	2019_Mar_14_0834	s	s	8	4	SIC	72	4_3	4	3	2	4	23_2_4	2	-1	1	0	0.540273189545	-323.0	-14.0	-331.0	-13.0	1
3.0.1	2019_Mar_14_0834	s	s	8	4	SIC	73	2_3	2	3	4	2	23_4_2	2	1	1	0	0.469631910324	28.0	-16.0	34.0	-18.0	1
3.0.1	2019_Mar_14_0834	s	s	8	4	SIC	74	3_1	3	1	1	2	23_1_2	2	1	1	0	0.442046880722	-198.0	-248.0	-194.0	-252.0	1
3.0.1	2019_Mar_14_0834	s	s	8	4	SIC	75	ABS	0	0	4	3	24_4_3	NA	NA	0	1	2.58671498299	None	None	None	None	1
3.0.1	2019_Mar_14_0834	s	s	8	4	SIC	76	1_4	1	4	3	3	23_3_3	2	1	1	0	0.520569086075	293.0	272.0	300.0	277.0	1
3.0.1	2019_Mar_14_0834	s	s	8	4	SIC	77	ABS	0	0	1	4	24_1_4	NA	NA	0	1	1.95742917061	None	None	None	None	1
3.0.1	2019_Mar_14_0834	s	s	8	4	SIC	78	4_3	4	3	4	2	23_4_2	0	1	0	1	6.95570993423	-1.0	174.0	None	None	0
3.0.1	2019_Mar_14_0834	s	s	8	4	SIC	79	ABS	0	0	1	2	24_1_2	NA	NA	0	1	4.56755304337	None	None	None	None	1
3.0.1	2019_Mar_14_0834	s	s	8	4	SIC	80	1_3	1	3	4	4	23_4_4	3	-1	1	0	0.475154876709	199.0	56.0	193.0	58.0	1
3.0.1	2019_Mar_14_0834	s	s	8	4	SIC	81	3_4	3	4	4	1	23_4_1	-1	3	1	0	0.509674072266	-532.0	101.0	-533.0	106.0	1
3.0.1	2019_Mar_14_0834	s	s	8	4	SIC	82	ABS	0	0	2	2	24_2_2	NA	NA	0	1	6.04458498955	None	None	None	None	1
3.0.1	2019_Mar_14_0834	s	s	8	4	SIC	83	ABS	0	0	3	2	24_3_2	NA	NA	0	1	4.76252388954	None	None	None	None	1
3.0.1	2019_Mar_14_0834	s	s	8	4	SIC	84	ABS	0	0	4	4	24_4_4	NA	NA	0	1	1.57531785965	None	None	None	None	1
3.0.1	2019_Mar_14_0834	s	s	8	4	SIC	85	ABS	0	0	2	4	24_2_4	NA	NA	0	1	2.88085699081	None	None	None	None	1
3.0.1	2019_Mar_14_0834	s	s	8	4	SIC	86	3_4	3	4	1	2	23_1_2	2	2	1	0	0.554944992065	-187.0	-65.0	-179.0	-64.0	1
3.0.1	2019_Mar_14_0834	s	s	8	4	SIC	87	ABS	0	0	1	2	24_1_2	NA	NA	0	1	5.50883603096	None	None	None	None	1
3.0.1	2019_Mar_14_0834	s	s	8	4	SIC	88	3_3	3	3	2	4	23_2_4	1	-1	1	0	0.528563976288	-95.0	-127.0	-101.0	-127.0	1
3.0.1	2019_Mar_14_0834	s	s	8	4	SIC	89	4_2	4	2	2	2	23_2_2	2	0	1	0	0.427849054337	-291.0	-114.0	-293.0	-115.0	1
3.0.1	2019_Mar_14_0834	s	s	8	4	SIC	90	ABS	0	0	1	4	24_1_4	NA	NA	0	1	1.92847681046	None	None	None	None	1
3.0.1	2019_Mar_14_0834	s	s	8	4	SIC	91	4_3	4	3	1	4	23_1_4	3	-1	1	0	0.463230133057	-96.0	-238.0	-85.0	-234.0	1
3.0.1	2019_Mar_14_0834	s	s	8	4	SIC	92	3_1	3	1	1	4	23_1_4	2	3	1	0	0.481575965881	-525.0	-1.0	-528.0	2.0	1
3.0.1	2019_Mar_14_0834	s	s	8	4	SIC	93	ABS	0	0	4	1	24_4_1	NA	NA	0	1	3.16901707649	None	None	None	None	1
3.0.1	2019_Mar_14_0834	s	s	8	4	SIC	94	ABS	0	0	1	4	24_1_4	NA	NA	0	1	2.29274582863	None	None	None	None	1
3.0.1	2019_Mar_14_0834	s	s	8	4	SIC	95	ABS	0	0	4	2	24_4_2	NA	NA	0	1	6.37429881096	None	None	None	None	1
3.0.1	2019_Mar_14_0834	s	s	8	4	SIC	96	ABS	0	0	4	3	24_4_3	NA	NA	0	1	3.13334393501	None	None	None	None	1
3.0.1	2019_Mar_14_0834	s	s	8	4	SIC	97	1_2	1	2	1	4	23_1_4	0	2	1	0	0.790189981461	-358.0	-199.0	-354.0	-198.0	1
3.0.1	2019_Mar_14_0834	s	s	8	4	SIC	98	1_3	1	3	2	1	23_2_1	1	2	1	0	1.33998799324	-29.0	362.0	-33.0	358.0	1
3.0.1	2019_Mar_14_0834	s	s	8	4	SIC	99	1_3	1	3	3	3	23_3_3	2	0	1	0	0.587247133255	-438.0	11.0	-432.0	11.0	1
3.0.1	2019_Mar_14_0834	s	s	8	4	SIC	100	3_4	3	4	2	2	23_2_2	1	2	1	0	0.719606876373	525.0	93.0	519.0	90.0	1
3.0.1	2019_Mar_14_0834	s	s	8	4	SIC	101	3_3	3	3	1	3	23_1_3	2	0	1	0	0.59157204628	351.0	-214.0	353.0	-221.0	1
3.0.1	2019_Mar_14_0834	s	s	8	4	SIC	102	ABS	0	0	3	1	24_3_1	NA	NA	0	1	2.72787499428	None	None	None	None	1
3.0.1	2019_Mar_14_0834	s	s	8	4	SIC	103	1_4	1	4	4	3	23_4_3	3	1	1	0	0.416074991226	-228.0	67.0	-230.0	76.0	1
3.0.1	2019_Mar_14_0834	s	s	8	4	SIC	104	ABS	0	0	2	4	24_2_4	NA	NA	0	1	2.49274420738	None	None	None	None	1
3.0.1	2019_Mar_14_0834	s	s	8	4	SIC	105	ABS	0	0	4	3	24_4_3	NA	NA	0	1	2.03164887428	None	None	None	None	1
3.0.1	2019_Mar_14_0834	s	s	8	4	SIC	106	2_2	2	2	3	1	23_3_1	1	-1	1	0	0.56382894516	95.0	-61.0	97.0	-65.0	1
3.0.1	2019_Mar_14_0834	s	s	8	4	SIC	107	1_1	1	1	4	4	23_4_4	3	3	1	0	0.414985895157	197.0	171.0	206.0	173.0	1
3.0.1	2019_Mar_14_0834	s	s	8	4	SIC	108	ABS	0	0	4	1	24_4_1	NA	NA	0	1	1.85756397247	None	None	None	None	1
3.0.1	2019_Mar_14_0834	s	s	8	4	SIC	109	ABS	0	0	1	4	24_1_4	NA	NA	0	1	2.39172291756	None	None	None	None	1
3.0.1	2019_Mar_14_0834	s	s	8	4	SIC	110	ABS	0	0	1	1	24_1_1	NA	NA	0	1	1.92846798897	None	None	None	None	1
3.0.1	2019_Mar_14_0834	s	s	8	4	SIC	111	3_1	3	1	1	3	23_1_3	2	2	1	0	0.481930017471	497.0	124.0	503.0	129.0	1
3.0.1	2019_Mar_14_0834	s	s	8	4	SIC	112	ABS	0	0	2	4	24_2_4	NA	NA	0	1	2.59109520912	None	None	None	None	1
3.0.1	2019_Mar_14_0834	s	s	8	4	SIC	113	ABS	0	0	1	2	24_1_2	NA	NA	0	1	4.7624578476	None	None	None	None	1
3.0.1	2019_Mar_14_0834	s	s	8	4	SIC	114	ABS	0	0	1	2	24_1_2	NA	NA	0	1	4.45082998276	None	None	None	None	1
3.0.1	2019_Mar_14_0834	s	s	8	4	SIC	115	ABS	0	0	2	2	24_2_2	NA	NA	0	1	4.83307099342	None	None	None	None	1
3.0.1	2019_Mar_14_0834	s	s	8	4	SIC	116	ABS	0	0	4	3	24_4_3	NA	NA	0	1	1.93099498749	None	None	None	None	1
3.0.1	2019_Mar_14_0834	s	s	8	4	SIC	117	2_2	2	2	1	2	23_1_2	-1	0	1	0	0.992135047913	-346.0	317.0	-353.0	323.0	1
3.0.1	2019_Mar_14_0834	s	s	8	4	SIC	118	ABS	0	0	4	3	24_4_3	NA	NA	0	1	3.15127706528	None	None	None	None	1
3.0.1	2019_Mar_14_0834	s	s	8	4	SIC	119	ABS	0	0	3	4	24_3_4	NA	NA	0	1	1.56016397476	None	None	None	None	1
3.0.1	2019_Mar_14_0834	s	s	8	4	SIC	120	3_1	3	1	1	1	23_1_1	2	0	1	0	0.528517007828	-171.0	-2.0	-168.0	-1.0	1
3.0.1	2019_Mar_14_0834	s	s	8	4	SIC	121	ABS	0	0	3	4	24_3_4	NA	NA	0	1	1.36365199089	None	None	None	None	1
3.0.1	2019_Mar_14_0834	s	s	8	4	SIC	122	ABS	0	0	2	1	24_2_1	NA	NA	0	1	3.49239301682	None	None	None	None	1
3.0.1	2019_Mar_14_0834	s	s	8	4	SIC	123	4_1	4	1	1	3	23_1_3	3	2	1	0	0.505040884018	395.0	285.0	388.0	280.0	1
3.0.1	2019_Mar_14_0834	s	s	8	4	SIC	124	ABS	0	0	2	3	24_2_3	NA	NA	0	1	2.49273490906	None	None	None	None	1
3.0.1	2019_Mar_14_0834	s	s	8	4	SIC	125	3_3	3	3	4	3	23_4_3	-1	0	1	0	0.52188706398	-375.0	-194.0	-377.0	-187.0	1
3.0.1	2019_Mar_14_0834	s	s	8	4	SIC	126	2_1	2	1	4	3	23_4_3	2	2	1	0	0.441986083984	-211.0	-369.0	-209.0	-372.0	1
3.0.1	2019_Mar_14_0834	s	s	8	4	SIC	127	3_2	3	2	1	2	23_1_2	2	0	1	0	0.533671855927	-320.0	-258.0	-322.0	-260.0	1
3.0.1	2019_Mar_14_0834	s	s	8	4	SIC	128	ABS	0	0	2	1	24_2_1	NA	NA	0	1	3.36299014091	None	None	None	None	1
3.0.1	2019_Mar_14_0834	s	s	8	4	SIC	129	ABS	0	0	3	2	24_3_2	NA	NA	0	1	5.60439705849	None	None	None	None	1
3.0.1	2019_Mar_14_0834	s	s	8	4	SIC	130	3_2	3	2	4	3	23_4_3	-1	1	1	0	0.681441068649	-202.0	379.0	-195.0	379.0	1
3.0.1	2019_Mar_14_0834	s	s	8	4	SIC	131	ABS	0	0	1	1	24_1_1	NA	NA	0	1	3.61388683319	None	None	None	None	1
3.0.1	2019_Mar_14_0834	s	s	8	4	SIC	132	ABS	0	0	3	1	24_3_1	NA	NA	0	1	2.22685003281	None	None	None	None	1
3.0.1	2019_Mar_14_0834	s	s	8	4	SIC	133	ABS	0	0	4	2	24_4_2	NA	NA	0	1	4.14211320877	None	None	None	None	1
3.0.1	2019_Mar_14_0834	s	s	8	4	SIC	134	ABS	0	0	2	1	24_2_1	NA	NA	0	1	3.69529891014	None	None	None	None	1
3.0.1	2019_Mar_14_0834	s	s	8	4	SIC	135	2_1	2	1	2	3	23_2_3	0	2	1	0	0.798978090286	337.0	-99.0	332.0	-106.0	1
3.0.1	2019_Mar_14_0834	s	s	8	4	SIC	136	ABS	0	0	1	3	24_1_3	NA	NA	0	1	2.60353708267	None	None	None	None	1
3.0.1	2019_Mar_14_0834	s	s	8	4	SIC	137	ABS	0	0	4	1	24_4_1	NA	NA	0	1	1.4746119976	None	None	None	None	1
3.0.1	2019_Mar_14_0834	s	s	8	4	SIC	138	ABS	0	0	1	4	24_1_4	NA	NA	0	1	1.664290905	None	None	None	None	1
3.0.1	2019_Mar_14_0834	s	s	8	4	SIC	139	1_1	1	1	2	3	23_2_3	1	2	1	0	0.951947927475	-11.0	31.0	-17.0	36.0	1
3.0.1	2019_Mar_14_0834	s	s	8	4	SIC	140	4_4	4	4	2	4	23_2_4	2	0	1	0	0.599112987518	209.0	58.0	199.0	57.0	1
3.0.1	2019_Mar_14_0834	s	s	8	4	SIC	141	ABS	0	0	2	2	24_2_2	NA	NA	0	1	6.00918507576	None	None	None	None	1
3.0.1	2019_Mar_14_0834	s	s	8	4	SIC	142	ABS	0	0	1	3	24_1_3	NA	NA	0	1	2.9463789463	None	None	None	None	1
3.0.1	2019_Mar_14_0834	s	s	8	4	SIC	143	1_2	1	2	3	2	23_3_2	2	0	1	0	0.545173168182	-229.0	170.0	-224.0	161.0	1
3.0.1	2019_Mar_14_0834	s	s	8	4	SIC	144	ABS	0	0	2	2	24_2_2	NA	NA	0	1	5.2851600647	None	None	None	None	1
3.0.1	2019_Mar_14_0834	s	s	8	4	SIC	145	4_3	4	3	2	1	23_2_1	2	2	1	0	0.469731092453	-380.0	-102.0	-372.0	-98.0	1
3.0.1	2019_Mar_14_0834	s	s	8	4	SIC	146	ABS	0	0	3	4	24_3_4	NA	NA	0	1	1.06956505775	None	None	None	None	1
3.0.1	2019_Mar_14_0834	s	s	8	4	SIC	147	1_3	1	3	4	3	23_4_3	3	0	1	0	0.410914897919	290.0	105.0	291.0	108.0	1
3.0.1	2019_Mar_14_0834	s	s	8	4	SIC	148	ABS	0	0	1	4	24_1_4	NA	NA	0	1	2.73300099373	None	None	None	None	1
3.0.1	2019_Mar_14_0834	s	s	8	4	SIC	149	ABS	0	0	3	4	24_3_4	NA	NA	0	1	1.41069507599	None	None	None	None	1
3.0.1	2019_Mar_14_0834	s	s	8	4	SIC	150	ABS	0	0	4	4	24_4_4	NA	NA	0	1	1.32832813263	None	None	None	None	1
3.0.1	2019_Mar_14_0834	s	s	8	4	SIC	151	ABS	0	0	2	3	24_2_3	NA	NA	0	1	3.76283788681	None	None	None	None	1
3.0.1	2019_Mar_14_0834	s	s	8	4	SIC	152	3_1	3	1	3	4	23_3_4	0	3	1	0	0.545111179352	38.0	-34.0	38.0	-37.0	1
3.0.1	2019_Mar_14_0834	s	s	8	4	SIC	153	ABS	0	0	1	1	24_1_1	NA	NA	0	1	1.97255778313	None	None	None	None	1
3.0.1	2019_Mar_14_0834	s	s	8	4	SIC	154	2_3	2	3	1	3	23_1_3	-1	0	1	0	1.47430205345	-403.0	229.0	-406.0	225.0	1
3.0.1	2019_Mar_14_0834	s	s	8	4	SIC	155	ABS	0	0	2	2	24_2_2	NA	NA	0	1	6.42381000519	None	None	None	None	1
3.0.1	2019_Mar_14_0834	s	s	8	4	SIC	156	1_4	1	4	2	3	23_2_3	1	1	1	0	0.563813924789	-178.0	-147.0	-182.0	-141.0	1
3.0.1	2019_Mar_14_0834	s	s	8	4	SIC	157	ABS	0	0	4	3	24_4_3	NA	NA	0	1	2.97489595413	None	None	None	None	1
3.0.1	2019_Mar_14_0834	s	s	8	4	SIC	158	2_4	2	4	2	3	23_2_3	0	1	1	0	0.775573968887	498.0	-174.0	489.0	-173.0	1
3.0.1	2019_Mar_14_0834	s	s	8	4	SIC	159	2_4	2	4	4	1	23_4_1	2	3	1	0	0.427873134613	-114.0	-117.0	-104.0	-117.0	1
3.0.1	2019_Mar_14_0834	s	s	8	4	SIC	160	3_2	3	2	3	4	23_3_4	0	2	1	0	0.502496004105	436.0	-221.0	437.0	-222.0	1
3.0.1	2019_Mar_14_0834	s	s	8	4	SIC	161	ABS	0	0	1	3	24_1_3	NA	NA	0	1	2.73654103279	None	None	None	None	1
3.0.1	2019_Mar_14_0834	s	s	8	4	SIC	162	ABS	0	0	1	1	24_1_1	NA	NA	0	1	2.15646100044	None	None	None	None	1
3.0.1	2019_Mar_14_0834	s	s	8	4	SIC	163	1_1	1	1	4	3	23_4_3	3	2	1	0	0.521781921387	-335.0	77.0	-334.0	75.0	1
3.0.1	2019_Mar_14_0834	s	s	8	4	SIC	164	ABS	0	0	1	4	24_1_4	NA	NA	0	1	2.42209482193	None	None	None	None	1
3.0.1	2019_Mar_14_0834	s	s	8	4	SIC	165	ABS	0	0	1	3	24_1_3	NA	NA	0	1	2.99828505516	None	None	None	None	1
3.0.1	2019_Mar_14_0834	s	s	8	4	SIC	166	ABS	0	0	1	3	24_1_3	NA	NA	0	1	2.75140404701	None	None	None	None	1
3.0.1	2019_Mar_14_0834	s	s	8	4	SIC	167	3_1	3	1	2	2	23_2_2	1	1	1	0	0.528507947922	42.0	78.0	43.0	71.0	1
3.0.1	2019_Mar_14_0834	s	s	8	4	SIC	168	1_4	1	4	1	3	23_1_3	0	1	1	0	0.756568908691	-291.0	-234.0	-303.0	-231.0	1
3.0.1	2019_Mar_14_0834	s	s	8	4	SIC	169	ABS	0	0	1	4	24_1_4	NA	NA	0	1	1.17897987366	None	None	None	None	1
3.0.1	2019_Mar_14_0834	s	s	8	4	SIC	170	2_4	2	4	4	4	23_4_4	2	0	1	0	0.429347991943	-102.0	283.0	-109.0	276.0	1
3.0.1	2019_Mar_14_0834	s	s	8	4	SIC	171	4_2	4	2	1	4	23_1_4	3	2	1	0	0.399204015732	50.0	-17.0	47.0	-21.0	1
3.0.1	2019_Mar_14_0834	s	s	8	4	SIC	172	3_1	3	1	4	1	23_4_1	-1	0	1	0	0.387583017349	-131.0	-13.0	-125.0	-12.0	1
3.0.1	2019_Mar_14_0834	s	s	8	4	SIC	173	4_4	4	4	3	2	23_3_2	1	2	1	0	0.399145126343	427.0	-142.0	420.0	-148.0	1
3.0.1	2019_Mar_14_0834	s	s	8	4	SIC	174	ABS	0	0	3	3	24_3_3	NA	NA	0	1	2.99826312065	None	None	None	None	1
3.0.1	2019_Mar_14_0834	s	s	8	4	SIC	175	ABS	0	0	4	3	24_4_3	NA	NA	0	1	2.6131310463	None	None	None	None	1
3.0.1	2019_Mar_14_0834	s	s	8	4	SIC	176	ABS	0	0	1	4	24_1_4	NA	NA	0	1	2.02218604088	None	None	None	None	1
3.0.1	2019_Mar_14_0834	s	s	8	4	SIC	177	ABS	0	0	3	4	24_3_4	NA	NA	0	1	1.26950907707	None	None	None	None	1
3.0.1	2019_Mar_14_0834	s	s	8	4	SIC	178	4_4	4	4	3	1	23_3_1	1	3	1	0	0.555000066757	-463.0	232.0	-462.0	225.0	1
3.0.1	2019_Mar_14_0834	s	s	8	4	SIC	179	1_3	1	3	4	1	23_4_1	3	2	1	0	0.446645975113	8.0	-372.0	14.0	-362.0	1
3.0.1	2019_Mar_14_0834	s	s	8	4	SIC	180	ABS	0	0	3	3	24_3_3	NA	NA	0	1	2.45744490623	None	None	None	None	1
3.0.1	2019_Mar_14_0834	s	s	8	4	SIC	181	ABS	0	0	3	4	24_3_4	NA	NA	0	1	0.853454828262	None	None	None	None	1
3.0.1	2019_Mar_14_0834	s	s	8	4	SIC	182	4_3	4	3	3	1	23_3_1	1	2	1	0	0.481530189514	205.0	18.0	207.0	13.0	1
3.0.1	2019_Mar_14_0834	s	s	8	4	SIC	183	ABS	0	0	3	1	24_3_1	NA	NA	0	1	1.69284105301	None	None	None	None	1
3.0.1	2019_Mar_14_0834	s	s	8	4	SIC	184	ABS	0	0	1	4	24_1_4	NA	NA	0	1	1.57810711861	None	None	None	None	1
3.0.1	2019_Mar_14_0834	s	s	8	4	SIC	185	ABS	0	0	1	1	24_1_1	NA	NA	0	1	2.54498004913	None	None	None	None	1
3.0.1	2019_Mar_14_0834	s	s	8	4	SIC	186	ABS	0	0	4	3	24_4_3	NA	NA	0	1	2.78958582878	None	None	None	None	1
3.0.1	2019_Mar_14_0834	s	s	8	4	SIC	187	ABS	0	0	4	4	24_4_4	NA	NA	0	1	1.49591183662	None	None	None	None	1
3.0.1	2019_Mar_14_0834	s	s	8	4	SIC	188	ABS	0	0	1	3	24_1_3	NA	NA	0	1	2.1335401535	None	None	None	None	1
3.0.1	2019_Mar_14_0834	s	s	8	4	SIC	189	3_3	3	3	3	1	23_3_1	0	2	1	0	1.10783815384	-441.0	220.0	-437.0	226.0	1
3.0.1	2019_Mar_14_0834	s	s	8	4	SIC	190	ABS	0	0	4	3	24_4_3	NA	NA	0	1	2.69254899025	None	None	None	None	1
3.0.1	2019_Mar_14_0834	s	s	8	4	SIC	191	ABS	0	0	3	1	24_3_1	NA	NA	0	1	2.76325702667	None	None	None	None	1
3.0.1	2019_Mar_14_0834	s	s	8	4	SIC	192	2_1	2	1	1	2	23_1_2	-1	1	1	0	1.0389289856	-162.0	16.0	-155.0	9.0	1
3.0.1	2019_Mar_14_0834	s	s	8	4	SIC	193	ABS	0	0	4	1	24_4_1	NA	NA	0	1	2.27665615082	None	None	None	None	1
3.0.1	2019_Mar_14_0834	s	s	8	4	SIC	194	ABS	0	0	1	1	24_1_1	NA	NA	0	1	3.01051211357	None	None	None	None	1
3.0.1	2019_Mar_14_0834	s	s	8	4	SIC	195	ABS	0	0	1	2	24_1_2	NA	NA	0	1	4.84485602379	None	None	None	None	1
3.0.1	2019_Mar_14_0834	s	s	8	4	SIC	196	1_1	1	1	3	2	23_3_2	2	1	1	0	0.509989023209	160.0	-326.0	165.0	-333.0	1
3.0.1	2019_Mar_14_0834	s	s	8	4	SIC	197	4_2	4	2	4	3	23_4_3	0	1	0	1	3.25996899605	400.0	-185.0	None	None	0
3.0.1	2019_Mar_14_0834	s	s	8	4	SIC	198	ABS	0	0	3	2	24_3_2	NA	NA	0	1	4.68558597565	None	None	None	None	1
3.0.1	2019_Mar_14_0834	s	s	8	4	SIC	199	ABS	0	0	3	3	24_3_3	NA	NA	0	1	2.67403411865	None	None	None	None	1
3.0.1	2019_Mar_14_0834	s	s	8	4	SIC	200	2_3	2	3	3	3	23_3_3	1	0	1	0	0.60196685791	86.0	-192.0	90.0	-198.0	1
3.0.1	2019_Mar_14_0834	s	s	8	4	SIC	201	3_2	3	2	4	2	23_4_2	-1	0	1	0	0.446218013763	538.0	-24.0	546.0	-23.0	1
3.0.1	2019_Mar_14_0834	s	s	8	4	SIC	202	3_2	3	2	1	4	23_1_4	2	2	1	0	0.428114891052	-316.0	-170.0	-326.0	-170.0	1
3.0.1	2019_Mar_14_0834	s	s	8	4	SIC	203	ABS	0	0	2	3	24_2_3	NA	NA	0	1	2.98700404167	None	None	None	None	1
3.0.1	2019_Mar_14_0834	s	s	8	4	SIC	204	3_4	3	4	1	3	23_1_3	2	1	1	0	0.555011034012	-428.0	-225.0	-423.0	-224.0	1
3.0.1	2019_Mar_14_0834	s	s	8	4	SIC	205	2_1	2	1	3	3	23_3_3	1	2	1	0	0.591665029526	184.0	401.0	191.0	405.0	1
3.0.1	2019_Mar_14_0834	s	s	8	4	SIC	206	ABS	0	0	2	2	24_2_2	NA	NA	0	1	4.57424998283	None	None	None	None	1
3.0.1	2019_Mar_14_0834	s	s	8	4	SIC	207	2_2	2	2	4	2	23_4_2	2	0	1	0	0.496163129807	-173.0	375.0	-169.0	385.0	1
3.0.1	2019_Mar_14_0834	s	s	8	4	SIC	208	ABS	0	0	2	1	24_2_1	NA	NA	0	1	2.43883991241	None	None	None	None	1
3.0.1	2019_Mar_14_0834	s	s	8	4	SIC	209	1_4	1	4	4	4	23_4_4	3	0	1	0	0.411008834839	-263.0	-278.0	-265.0	-281.0	1
3.0.1	2019_Mar_14_0834	s	s	8	4	SIC	210	ABS	0	0	3	1	24_3_1	NA	NA	0	1	2.57488703728	None	None	None	None	1
3.0.1	2019_Mar_14_0834	s	s	8	4	SIC	211	ABS	0	0	2	4	24_2_4	NA	NA	0	1	2.66116189957	None	None	None	None	1
3.0.1	2019_Mar_14_0834	s	s	8	4	SIC	212	4_4	4	4	4	1	23_4_1	0	3	1	0	0.693114995956	-272.0	104.0	-276.0	104.0	1
3.0.1	2019_Mar_14_0834	s	s	8	4	SIC	213	2_4	2	4	2	2	23_2_2	0	2	1	0	0.437352895737	-11.0	109.0	-8.0	119.0	1
3.0.1	2019_Mar_14_0834	s	s	8	4	SIC	214	ABS	0	0	2	3	24_2_3	NA	NA	0	1	2.73173093796	None	None	None	None	1
3.0.1	2019_Mar_14_0834	s	s	8	4	SIC	215	ABS	0	0	1	1	24_1_1	NA	NA	0	1	2.13321900368	None	None	None	None	1
3.0.1	2019_Mar_14_0834	s	s	8	4	SIC	216	4_1	4	1	4	2	23_4_2	0	1	1	0	5.30406498909	292.0	185.0	291.0	181.0	1
3.0.1	2019_Mar_14_0834	s	s	8	4	SIC	217	1_4	1	4	4	1	23_4_1	3	3	1	0	0.533799886703	-396.0	-173.0	-396.0	-172.0	1
3.0.1	2019_Mar_14_0834	s	s	8	4	SIC	218	2_2	2	2	3	4	23_3_4	1	2	1	0	0.528526067734	303.0	-276.0	307.0	-272.0	1
3.0.1	2019_Mar_14_0834	s	s	8	4	SIC	219	1_2	1	2	3	4	23_3_4	2	2	1	0	0.387521028519	14.0	-193.0	3.0	-187.0	1
3.0.1	2019_Mar_14_0834	s	s	8	4	SIC	220	1_3	1	3	3	4	23_3_4	2	-1	1	0	0.410887002945	435.0	-343.0	435.0	-344.0	1
3.0.1	2019_Mar_14_0834	s	s	8	4	SIC	221	3_3	3	3	2	2	23_2_2	1	1	1	0	0.840507984161	-35.0	-138.0	-35.0	-134.0	1
3.0.1	2019_Mar_14_0834	s	s	8	4	SIC	222	3_4	3	4	4	2	23_4_2	-1	2	1	0	0.496085882187	433.0	-207.0	433.0	-197.0	1
3.0.1	2019_Mar_14_0834	s	s	8	4	SIC	223	3_4	3	4	2	1	23_2_1	1	3	1	0	0.528500080109	-271.0	-123.0	-271.0	-130.0	1
3.0.1	2019_Mar_14_0834	s	s	8	4	SIC	224	1_4	1	4	1	2	23_1_2	0	2	1	0	0.521682024002	321.0	266.0	312.0	267.0	1
3.0.1	2019_Mar_14_0834	s	s	8	4	SIC	225	3_1	3	1	2	3	23_2_3	1	2	1	0	0.410895109177	192.0	-74.0	183.0	-75.0	1
3.0.1	2019_Mar_14_0834	s	s	8	4	SIC	226	ABS	0	0	1	1	24_1_1	NA	NA	0	1	3.55731797218	None	None	None	None	1
3.0.1	2019_Mar_14_0834	s	s	8	4	SIC	227	4_4	4	4	1	3	23_1_3	3	1	1	0	0.442855834961	117.0	-95.0	116.0	-92.0	1
3.0.1	2019_Mar_14_0834	s	s	8	4	SIC	228	ABS	0	0	3	2	24_3_2	NA	NA	0	1	4.46846103668	None	None	None	None	1
3.0.1	2019_Mar_14_0834	s	s	8	4	SIC	229	4_3	4	3	3	2	23_3_2	1	1	1	0	0.568051815033	262.0	-176.0	257.0	-170.0	1
3.0.1	2019_Mar_14_0834	s	s	8	4	SIC	230	1_3	1	3	1	1	23_1_1	0	2	1	0	0.751960039139	-189.0	-85.0	-182.0	-82.0	1
3.0.1	2019_Mar_14_0834	s	s	8	4	SIC	231	3_2	3	2	3	1	23_3_1	0	-1	0	1	1.7680311203	-75.0	-339.0	None	None	0
3.0.1	2019_Mar_14_0834	s	s	8	4	SIC	232	ABS	0	0	3	3	24_3_3	NA	NA	0	1	2.33319187164	None	None	None	None	1
3.0.1	2019_Mar_14_0834	s	s	8	4	SIC	233	3_1	3	1	3	3	23_3_3	0	2	0	1	2.29794287682	418.0	-141.0	None	None	0
3.0.1	2019_Mar_14_0834	s	s	8	4	SIC	234	ABS	0	0	4	3	24_4_3	NA	NA	0	1	2.02970695496	None	None	None	None	1
3.0.1	2019_Mar_14_0834	s	s	8	4	SIC	235	3_2	3	2	4	4	23_4_4	-1	2	1	0	0.751996994019	107.0	40.0	97.0	41.0	1
3.0.1	2019_Mar_14_0834	s	s	8	4	SIC	236	1_3	1	3	4	2	23_4_2	3	1	1	0	0.415573835373	-328.0	385.0	-327.0	374.0	1
3.0.1	2019_Mar_14_0834	s	s	8	4	SIC	237	ABS	0	0	3	4	24_3_4	NA	NA	0	1	1.50474500656	None	None	None	None	1
3.0.1	2019_Mar_14_0834	s	s	8	4	SIC	238	ABS	0	0	3	3	24_3_3	NA	NA	0	1	2.84550690651	None	None	None	None	1
3.0.1	2019_Mar_14_0834	s	s	8	4	SIC	239	ABS	0	0	1	1	24_1_1	NA	NA	0	1	2.09134602547	None	None	None	None	1
3.0.1	2019_Mar_14_0834	s	s	8	4	SIC	240	3_2	3	2	2	3	23_2_3	1	1	1	0	0.557382106781	-296.0	-24.0	-292.0	-23.0	1
3.0.1	2019_Mar_14_0834	s	s	8	4	SIC	241	ABS	0	0	1	3	24_1_3	NA	NA	0	1	2.88673496246	None	None	None	None	1
3.0.1	2019_Mar_14_0834	s	s	8	4	SIC	242	2_2	2	2	4	3	23_4_3	2	1	1	0	0.51062297821	-348.0	256.0	-350.0	261.0	1
3.0.1	2019_Mar_14_0834	s	s	8	4	SIC	243	ABS	0	0	2	3	24_2_3	NA	NA	0	1	2.90962815285	None	None	None	None	1
3.0.1	2019_Mar_14_0834	s	s	8	4	SIC	244	ABS	0	0	3	1	24_3_1	NA	NA	0	1	1.9804649353	None	None	None	None	1
3.0.1	2019_Mar_14_0834	s	s	8	4	SIC	245	4_1	4	1	4	3	23_4_3	0	2	1	0	2.59860396385	-47.0	361.0	-52.0	354.0	1
3.0.1	2019_Mar_14_0834	s	s	8	4	SIC	246	ABS	0	0	4	1	24_4_1	NA	NA	0	1	1.84864115715	None	None	None	None	1
3.0.1	2019_Mar_14_0834	s	s	8	4	SIC	247	2_1	2	1	2	4	23_2_4	0	3	1	0	0.599214076996	-484.0	340.0	-480.0	337.0	1
3.0.1	2019_Mar_14_0834	s	s	8	4	SIC	248	3_4	3	4	2	3	23_2_3	1	1	1	0	0.599050045013	-119.0	263.0	-118.0	263.0	1
3.0.1	2019_Mar_14_0834	s	s	8	4	SIC	249	ABS	0	0	2	2	24_2_2	NA	NA	0	1	4.51951217651	None	None	None	None	1
3.0.1	2019_Mar_14_0834	s	s	8	4	SIC	250	ABS	0	0	1	3	24_1_3	NA	NA	0	1	2.96803998947	None	None	None	None	1
3.0.1	2019_Mar_14_0834	s	s	8	4	SIC	251	ABS	0	0	4	2	24_4_2	NA	NA	0	1	4.17453503609	None	None	None	None	1
3.0.1	2019_Mar_14_0834	s	s	8	4	SIC	252	2_1	2	1	1	4	23_1_4	-1	3	1	0	0.561453104019	-49.0	138.0	-43.0	145.0	1
3.0.1	2019_Mar_14_0834	s	s	8	4	SIC	253	ABS	0	0	1	3	24_1_3	NA	NA	0	1	3.01025390625	None	None	None	None	1
3.0.1	2019_Mar_14_0834	s	s	8	4	SIC	254	2_3	2	3	2	1	23_2_1	0	2	1	0	1.19244790077	-396.0	-23.0	-388.0	-14.0	1
3.0.1	2019_Mar_14_0834	s	s	8	4	SIC	255	3_2	3	2	2	2	23_2_2	1	0	1	0	0.575512170792	269.0	192.0	280.0	194.0	1
3.0.1	2019_Mar_14_0834	s	s	8	4	SIC	256	2_3	2	3	3	1	23_3_1	1	2	1	0	0.603967905045	107.0	-317.0	105.0	-308.0	1
3.0.1	2019_Mar_14_0834	s	s	8	4	SIC	257	ABS	0	0	2	4	24_2_4	NA	NA	0	1	2.70991802216	None	None	None	None	1
3.0.1	2019_Mar_14_0834	s	s	8	4	SIC	258	ABS	0	0	2	2	24_2_2	NA	NA	0	1	6.6561729908	None	None	None	None	1
3.0.1	2019_Mar_14_0834	s	s	8	4	SIC	259	4_1	4	1	3	4	23_3_4	1	3	1	0	0.416071176529	289.0	129.0	295.0	127.0	1
3.0.1	2019_Mar_14_0834	s	s	8	4	SIC	260	ABS	0	0	4	3	24_4_3	NA	NA	0	1	3.40342092514	None	None	None	None	1
3.0.1	2019_Mar_14_0834	s	s	8	4	SIC	261	1_3	1	3	2	4	23_2_4	1	-1	1	0	0.516976118088	-26.0	-221.0	-22.0	-221.0	1
3.0.1	2019_Mar_14_0834	s	s	8	4	SIC	262	ABS	0	0	2	4	24_2_4	NA	NA	0	1	2.16331911087	None	None	None	None	1
3.0.1	2019_Mar_14_0834	s	s	8	4	SIC	263	ABS	0	0	3	3	24_3_3	NA	NA	0	1	2.11631202698	None	None	None	None	1
3.0.1	2019_Mar_14_0834	s	s	8	4	SIC	264	2_1	2	1	2	2	23_2_2	0	1	1	0	1.26059007645	-186.0	-141.0	-187.0	-148.0	1
3.0.1	2019_Mar_14_0834	s	s	8	4	SIC	265	4_2	4	2	1	1	23_1_1	3	-1	1	0	0.423142910004	-141.0	-2.0	-133.0	-3.0	1
3.0.1	2019_Mar_14_0834	s	s	8	4	SIC	266	4_2	4	2	1	2	23_1_2	3	0	1	0	0.383742809296	104.0	-174.0	111.0	-180.0	1
3.0.1	2019_Mar_14_0834	s	s	8	4	SIC	267	4_3	4	3	1	3	23_1_3	3	0	1	0	0.363888978958	521.0	133.0	515.0	133.0	1
3.0.1	2019_Mar_14_0834	s	s	8	4	SIC	268	3_2	3	2	1	3	23_1_3	2	1	1	0	0.378545045853	-89.0	210.0	-92.0	212.0	1
3.0.1	2019_Mar_14_0834	s	s	8	4	SIC	269	4_1	4	1	3	1	23_3_1	1	0	1	0	0.41091799736	-155.0	-286.0	-159.0	-279.0	1
3.0.1	2019_Mar_14_0834	s	s	8	4	SIC	270	1_1	1	1	2	2	23_2_2	1	1	1	0	1.33323502541	120.0	-167.0	112.0	-163.0	1
3.0.1	2019_Mar_14_0834	s	s	8	4	SIC	271	3_3	3	3	4	4	23_4_4	-1	-1	1	0	0.422697067261	-181.0	147.0	-177.0	145.0	1
3.0.1	2019_Mar_14_0834	s	s	8	4	SIC	272	ABS	0	0	3	2	24_3_2	NA	NA	0	1	6.10327792168	None	None	None	None	1
3.0.1	2019_Mar_14_0834	s	s	8	4	SIC	273	ABS	0	0	1	2	24_1_2	NA	NA	0	1	5.83319091797	None	None	None	None	1
3.0.1	2019_Mar_14_0834	s	s	8	4	SIC	274	ABS	0	0	1	4	24_1_4	NA	NA	0	1	1.49587702751	None	None	None	None	1
3.0.1	2019_Mar_14_0834	s	s	8	4	SIC	275	2_2	2	2	4	1	23_4_1	2	-1	1	0	0.504957199097	-131.0	402.0	-126.0	401.0	1
3.0.1	2019_Mar_14_0834	s	s	8	4	SIC	276	ABS	0	0	2	4	24_2_4	NA	NA	0	1	1.60378599167	None	None	None	None	1
3.0.1	2019_Mar_14_0834	s	s	8	4	SIC	277	ABS	0	0	2	3	24_2_3	NA	NA	0	1	3.22185492516	None	None	None	None	1
3.0.1	2019_Mar_14_0834	s	s	8	4	SIC	278	3_4	3	4	4	3	23_4_3	-1	1	1	0	0.461317062378	-125.0	297.0	-122.0	289.0	1
3.0.1	2019_Mar_14_0834	s	s	8	4	SIC	279	ABS	0	0	2	1	24_2_1	NA	NA	0	1	2.64554905891	None	None	None	None	1
3.0.1	2019_Mar_14_0834	s	s	8	4	SIC	280	ABS	0	0	1	3	24_1_3	NA	NA	0	1	2.56322097778	None	None	None	None	1
3.0.1	2019_Mar_14_0834	s	s	8	4	SIC	281	2_2	2	2	1	4	23_1_4	-1	2	1	0	0.592273950577	-217.0	-42.0	-212.0	-37.0	1
3.0.1	2019_Mar_14_0834	s	s	8	4	SIC	282	ABS	0	0	2	4	24_2_4	NA	NA	0	1	2.95788598061	None	None	None	None	1
3.0.1	2019_Mar_14_0834	s	s	8	4	SIC	283	3_3	3	3	3	4	23_3_4	0	-1	1	0	0.971961021423	-484.0	-333.0	-483.0	-337.0	1
3.0.1	2019_Mar_14_0834	s	s	8	4	SIC	284	2_3	2	3	1	4	23_1_4	-1	-1	1	0	0.651281833649	274.0	-43.0	275.0	-43.0	1
3.0.1	2019_Mar_14_0834	s	s	8	4	SIC	285	ABS	0	0	1	2	24_1_2	NA	NA	0	1	5.53674602509	None	None	None	None	1
3.0.1	2019_Mar_14_0834	s	s	8	4	SIC	286	ABS	0	0	1	2	24_1_2	NA	NA	0	1	6.67964100838	None	None	None	None	1
3.0.1	2019_Mar_14_0834	s	s	8	4	SIC	287	4_4	4	4	1	1	23_1_1	3	3	1	0	0.481593847275	535.0	-237.0	533.0	-228.0	1
3.0.1	2019_Mar_14_0834	s	s	8	4	SIC	288	3_1	3	1	3	2	23_3_2	0	1	1	0	2.93474507332	-450.0	292.0	-451.0	292.0	1
3.0.1	2019_Mar_14_0834	s	s	8	4	SIC	289	ABS	0	0	3	2	24_3_2	NA	NA	0	1	4.66277098656	None	None	None	None	1
3.0.1	2019_Mar_14_0834	s	s	8	4	SIC	290	4_2	4	2	2	3	23_2_3	2	1	1	0	0.452031850815	300.0	-390.0	301.0	-387.0	1
3.0.1	2019_Mar_14_0834	s	s	8	4	SIC	291	2_4	2	4	3	3	23_3_3	1	1	1	0	0.613797903061	7.0	260.0	11.0	257.0	1
3.0.1	2019_Mar_14_0834	s	s	8	4	SIC	292	3_2	3	2	2	1	23_2_1	1	-1	1	0	0.916588068008	-359.0	-389.0	-356.0	-389.0	1
3.0.1	2019_Mar_14_0834	s	s	8	4	SIC	293	2_1	2	1	1	1	23_1_1	-1	0	1	0	0.987174034119	307.0	-157.0	304.0	-163.0	1
3.0.1	2019_Mar_14_0834	s	s	8	4	SIC	294	ABS	0	0	1	1	24_1_1	NA	NA	0	1	2.6455848217	None	None	None	None	1
3.0.1	2019_Mar_14_0834	s	s	8	4	SIC	295	ABS	0	0	3	3	24_3_3	NA	NA	0	1	2.92209506035	None	None	None	None	1
3.0.1	2019_Mar_14_0834	s	s	8	4	SIC	296	1_3	1	3	1	4	23_1_4	0	-1	1	0	1.28120684624	90.0	274.0	87.0	268.0	1
3.0.1	2019_Mar_14_0834	s	s	8	4	SIC	297	4_4	4	4	4	2	23_4_2	0	2	1	0	0.533231973648	269.0	-107.0	267.0	-108.0	1
3.0.1	2019_Mar_14_0834	s	s	8	4	SIC	298	ABS	0	0	2	1	24_2_1	NA	NA	0	1	2.45080304146	None	None	None	None	1
3.0.1	2019_Mar_14_0834	s	s	8	4	SIC	299	ABS	0	0	4	3	24_4_3	NA	NA	0	1	2.42729210854	None	None	None	None	1
3.0.1	2019_Mar_14_0834	s	s	8	4	SIC	300	ABS	0	0	4	4	24_4_4	NA	NA	0	1	1.65074801445	None	None	None	None	1
3.0.1	2019_Mar_14_0834	s	s	8	4	SIC	301	ABS	0	0	2	4	24_2_4	NA	NA	0	1	1.57539796829	None	None	None	None	1
3.0.1	2019_Mar_14_0834	s	s	8	4	SIC	302	ABS	0	0	4	2	24_4_2	NA	NA	0	1	5.06838107109	None	None	None	None	1
3.0.1	2019_Mar_14_0834	s	s	8	4	SIC	303	ABS	0	0	4	4	24_4_4	NA	NA	0	1	1.21528100967	None	None	None	None	1
3.0.1	2019_Mar_14_0834	s	s	8	4	SIC	304	ABS	0	0	3	3	24_3_3	NA	NA	0	1	2.42886400223	None	None	None	None	1
3.0.1	2019_Mar_14_0834	s	s	8	4	SIC	305	ABS	0	0	3	3	24_3_3	NA	NA	0	1	3.5276529789	None	None	None	None	1
3.0.1	2019_Mar_14_0834	s	s	8	4	SIC	306	4_3	4	3	2	2	23_2_2	2	1	1	0	0.519700050354	-236.0	374.0	-235.0	379.0	1
3.0.1	2019_Mar_14_0834	s	s	8	4	SIC	307	1_2	1	2	3	3	23_3_3	2	1	1	0	0.443212032318	119.0	11.0	116.0	15.0	1
3.0.1	2019_Mar_14_0834	s	s	8	4	SIC	308	ABS	0	0	3	1	24_3_1	NA	NA	0	1	1.69559788704	None	None	None	None	1
3.0.1	2019_Mar_14_0834	s	s	8	4	SIC	309	1_1	1	1	4	1	23_4_1	3	0	1	0	0.452502012253	-145.0	-23.0	-145.0	-27.0	1
3.0.1	2019_Mar_14_0834	s	s	8	4	SIC	310	ABS	0	0	3	1	24_3_1	NA	NA	0	1	1.20766282082	None	None	None	None	1
3.0.1	2019_Mar_14_0834	s	s	8	4	SIC	311	2_1	2	1	1	3	23_1_3	-1	2	1	0	1.12854909897	-437.0	334.0	-443.0	333.0	1
3.0.1	2019_Mar_14_0834	s	s	8	4	SIC	312	ABS	0	0	3	1	24_3_1	NA	NA	0	1	1.70975399017	None	None	None	None	1
3.0.1	2019_Mar_14_0834	s	s	8	4	SIC	313	ABS	0	0	1	4	24_1_4	NA	NA	0	1	2.0271589756	None	None	None	None	1
3.0.1	2019_Mar_14_0834	s	s	8	4	SIC	314	ABS	0	0	1	2	24_1_2	NA	NA	0	1	4.44497299194	None	None	None	None	1
3.0.1	2019_Mar_14_0834	s	s	8	4	SIC	315	2_4	2	4	3	1	23_3_1	1	3	1	0	0.505047082901	92.0	-21.0	85.0	-21.0	1
3.0.1	2019_Mar_14_0834	s	s	8	4	SIC	316	ABS	0	0	1	2	24_1_2	NA	NA	0	1	3.85371589661	None	None	None	None	1
3.0.1	2019_Mar_14_0834	s	s	8	4	SIC	317	4_1	4	1	3	3	23_3_3	1	2	1	0	0.452554941177	-409.0	295.0	-410.0	297.0	1
3.0.1	2019_Mar_14_0834	s	s	8	4	SIC	318	ABS	0	0	3	2	24_3_2	NA	NA	0	1	3.68495082855	None	None	None	None	1
3.0.1	2019_Mar_14_0834	s	s	8	4	SIC	319	ABS	0	0	4	2	24_4_2	NA	NA	0	1	3.97451996803	None	None	None	None	1
3.0.1	2019_Mar_14_0834	s	s	8	4	SIC	320	3_1	3	1	4	3	23_4_3	-1	2	1	0	0.451368093491	-331.0	251.0	-340.0	251.0	1
3.0.1	2019_Mar_14_0834	s	s	8	4	SIC	321	ABS	0	0	3	3	24_3_3	NA	NA	0	1	2.81017398834	None	None	None	None	1
3.0.1	2019_Mar_14_0834	s	s	8	4	SIC	322	ABS	0	0	1	1	24_1_1	NA	NA	0	1	1.19898200035	None	None	None	None	1
3.0.1	2019_Mar_14_0834	s	s	8	4	SIC	323	ABS	0	0	2	3	24_2_3	NA	NA	0	1	3.04539704323	None	None	None	None	1
3.0.1	2019_Mar_14_0834	s	s	8	4	SIC	324	4_2	4	2	3	3	23_3_3	1	1	1	0	0.387379169464	-432.0	-37.0	-433.0	-36.0	1
3.0.1	2019_Mar_14_0834	s	s	8	4	SIC	325	ABS	0	0	1	3	24_1_3	NA	NA	0	1	2.29777383804	None	None	None	None	1
3.0.1	2019_Mar_14_0834	s	s	8	4	SIC	326	2_2	2	2	1	3	23_1_3	-1	1	1	0	0.990878105164	-504.0	280.0	-497.0	287.0	1
3.0.1	2019_Mar_14_0834	s	s	8	4	SIC	327	1_2	1	2	2	4	23_2_4	1	2	1	0	0.94507598877	70.0	86.0	69.0	81.0	1
3.0.1	2019_Mar_14_0834	s	s	8	4	SIC	328	ABS	0	0	3	2	24_3_2	NA	NA	0	1	4.18047094345	None	None	None	None	1
3.0.1	2019_Mar_14_0834	s	s	8	4	SIC	329	3_4	3	4	2	4	23_2_4	1	0	1	0	0.704987049103	-429.0	-29.0	-417.0	-28.0	1
3.0.1	2019_Mar_14_0834	s	s	8	4	SIC	330	4_4	4	4	4	3	23_4_3	0	1	1	0	0.790160179138	-83.0	-52.0	-80.0	-44.0	1
3.0.1	2019_Mar_14_0834	s	s	8	4	SIC	331	4_4	4	4	1	2	23_1_2	3	2	1	0	0.369390964508	-59.0	-173.0	-64.0	-173.0	1
3.0.1	2019_Mar_14_0834	s	s	8	4	SIC	332	4_1	4	1	1	4	23_1_4	3	3	1	0	0.385820865631	-353.0	-309.0	-356.0	-319.0	1
3.0.1	2019_Mar_14_0834	s	s	8	4	SIC	333	ABS	0	0	2	2	24_2_2	NA	NA	0	1	4.27386116982	None	None	None	None	1
3.0.1	2019_Mar_14_0834	s	s	8	4	SIC	334	ABS	0	0	3	3	24_3_3	NA	NA	0	1	2.76313877106	None	None	None	None	1
3.0.1	2019_Mar_14_0834	s	s	8	4	SIC	335	4_4	4	4	2	1	23_2_1	2	3	1	0	0.622941017151	-511.0	-143.0	-510.0	-139.0	1
3.0.1	2019_Mar_14_0834	s	s	8	4	SIC	336	3_2	3	2	4	1	23_4_1	-1	-1	1	0	0.721237897873	-4.0	344.0	-5.0	351.0	1
3.0.1	2019_Mar_14_0834	s	s	8	4	SIC	337	ABS	0	0	1	1	24_1_1	NA	NA	0	1	1.93988108635	None	None	None	None	1
3.0.1	2019_Mar_14_0834	s	s	8	4	SIC	338	ABS	0	0	4	1	24_4_1	NA	NA	0	1	1.22248291969	None	None	None	None	1
3.0.1	2019_Mar_14_0834	s	s	8	4	SIC	339	2_2	2	2	2	1	23_2_1	0	-1	0	1	1.77525806427	245.0	-294.0	None	None	0
3.0.1	2019_Mar_14_0834	s	s	8	4	SIC	340	3_3	3	3	1	4	23_1_4	2	-1	1	0	0.439122915268	-377.0	-259.0	-368.0	-255.0	1
3.0.1	2019_Mar_14_0834	s	s	8	4	SIC	341	2_2	2	2	2	3	23_2_3	0	1	1	0	1.66939997673	-139.0	0.0	-133.0	2.0	1
3.0.1	2019_Mar_14_0834	s	s	8	4	SIC	342	ABS	0	0	3	3	24_3_3	NA	NA	0	1	2.58669400215	None	None	None	None	1
3.0.1	2019_Mar_14_0834	s	s	8	4	SIC	343	ABS	0	0	4	4	24_4_4	NA	NA	0	1	1.23423719406	None	None	None	None	1
3.0.1	2019_Mar_14_0834	s	s	8	4	SIC	344	ABS	0	0	2	3	24_2_3	NA	NA	0	1	2.53240919113	None	None	None	None	1
3.0.1	2019_Mar_14_0834	s	s	8	4	SIC	345	ABS	0	0	2	2	24_2_2	NA	NA	0	1	4.89711308479	None	None	None	None	1
3.0.1	2019_Mar_14_0834	s	s	8	4	SIC	346	4_4	4	4	2	2	23_2_2	2	2	1	0	0.505066156387	168.0	44.0	168.0	41.0	1
3.0.1	2019_Mar_14_0834	s	s	8	4	SIC	347	ABS	0	0	4	3	24_4_3	NA	NA	0	1	2.99834609032	None	None	None	None	1
3.0.1	2019_Mar_14_0834	s	s	8	4	SIC	348	ABS	0	0	4	2	24_4_2	NA	NA	0	1	5.10845589638	None	None	None	None	1
3.0.1	2019_Mar_14_0834	s	s	8	4	SIC	349	ABS	0	0	4	2	24_4_2	NA	NA	0	1	5.67989397049	None	None	None	None	1
3.0.1	2019_Mar_14_0834	s	s	8	4	SIC	350	2_4	2	4	4	3	23_4_3	2	1	1	0	0.481534004211	-301.0	-392.0	-310.0	-394.0	1
3.0.1	2019_Mar_14_0834	s	s	8	4	SIC	351	3_4	3	4	1	4	23_1_4	2	0	1	0	0.657983779907	-49.0	-18.0	-49.0	-15.0	1
3.0.1	2019_Mar_14_0834	s	s	8	4	SIC	352	ABS	0	0	1	1	24_1_1	NA	NA	0	1	2.1568570137	None	None	None	None	1
3.0.1	2019_Mar_14_0834	s	s	8	4	SIC	353	ABS	0	0	4	1	24_4_1	NA	NA	0	1	1.45114994049	None	None	None	None	1
3.0.1	2019_Mar_14_0834	s	s	8	4	SIC	354	ABS	0	0	4	1	24_4_1	NA	NA	0	1	1.93112897873	None	None	None	None	1
3.0.1	2019_Mar_14_0834	s	s	8	4	SIC	355	ABS	0	0	4	1	24_4_1	NA	NA	0	1	2.01682400703	None	None	None	None	1
3.0.1	2019_Mar_14_0834	s	s	8	4	SIC	356	1_3	1	3	2	3	23_2_3	1	0	1	0	1.16355895996	-146.0	-300.0	-145.0	-291.0	1
3.0.1	2019_Mar_14_0834	s	s	8	4	SIC	357	ABS	0	0	4	4	24_4_4	NA	NA	0	1	1.08418893814	None	None	None	None	1
3.0.1	2019_Mar_14_0834	s	s	8	4	SIC	358	1_2	1	2	4	3	23_4_3	3	1	1	0	0.452737092972	-221.0	169.0	-227.0	175.0	1
3.0.1	2019_Mar_14_0834	s	s	8	4	SIC	359	4_1	4	1	2	2	23_2_2	2	1	1	0	0.422662973404	74.0	409.0	66.0	411.0	1
3.0.1	2019_Mar_14_0834	s	s	8	4	SIC	360	4_3	4	3	3	4	23_3_4	1	-1	1	0	0.4227039814	49.0	188.0	40.0	190.0	1
3.0.1	2019_Mar_14_0834	s	s	8	4	SIC	361	4_1	4	1	3	2	23_3_2	1	1	1	0	0.446219921112	531.0	84.0	529.0	91.0	1
3.0.1	2019_Mar_14_0834	s	s	8	4	SIC	362	3_3	3	3	4	2	23_4_2	-1	1	1	0	0.575553894043	86.0	115.0	82.0	110.0	1
3.0.1	2019_Mar_14_0834	s	s	8	4	SIC	363	ABS	0	0	3	3	24_3_3	NA	NA	0	1	2.35151004791	None	None	None	None	1
3.0.1	2019_Mar_14_0834	s	s	8	4	SIC	364	ABS	0	0	3	4	24_3_4	NA	NA	0	1	0.822512149811	None	None	None	None	1
3.0.1	2019_Mar_14_0834	s	s	8	4	SIC	365	4_2	4	2	3	4	23_3_4	1	2	1	0	0.456948041916	-524.0	191.0	-526.0	188.0	1
3.0.1	2019_Mar_14_0834	s	s	8	4	SIC	366	ABS	0	0	2	1	24_2_1	NA	NA	0	1	1.6507589817	None	None	None	None	1
3.0.1	2019_Mar_14_0834	s	s	8	4	SIC	367	1_2	1	2	1	3	23_1_3	0	1	1	0	1.77536296844	-351.0	-228.0	-348.0	-225.0	1
3.0.1	2019_Mar_14_0834	s	s	8	4	SIC	368	1_2	1	2	1	1	23_1_1	0	-1	0	1	1.11662507057	-509.0	-125.0	None	None	0
3.0.1	2019_Mar_14_0834	s	s	8	4	SIC	369	ABS	0	0	2	3	24_2_3	NA	NA	0	1	2.67631816864	None	None	None	None	1
3.0.1	2019_Mar_14_0834	s	s	8	4	SIC	370	2_1	2	1	4	1	23_4_1	2	0	1	0	0.410908222198	468.0	-38.0	477.0	-37.0	1
3.0.1	2019_Mar_14_0834	s	s	8	4	SIC	371	ABS	0	0	4	2	24_4_2	NA	NA	0	1	6.07456994057	None	None	None	None	1
3.0.1	2019_Mar_14_0834	s	s	8	4	SIC	372	ABS	0	0	4	4	24_4_4	NA	NA	0	1	0.917093038559	None	None	None	None	1
3.0.1	2019_Mar_14_0834	s	s	8	4	SIC	373	4_1	4	1	1	2	23_1_2	3	1	1	0	0.469713926315	-481.0	-277.0	-481.0	-284.0	1
3.0.1	2019_Mar_14_0834	s	s	8	4	SIC	374	1_1	1	1	3	1	23_3_1	2	0	1	0	0.511268138885	174.0	95.0	173.0	99.0	1
3.0.1	2019_Mar_14_0834	s	s	8	4	SIC	375	4_3	4	3	3	3	23_3_3	1	0	1	0	0.446207046509	130.0	-287.0	136.0	-283.0	1
3.0.1	2019_Mar_14_0834	s	s	8	4	SIC	376	3_3	3	3	2	3	23_2_3	1	0	1	0	1.06204891205	-529.0	194.0	-528.0	194.0	1
3.0.1	2019_Mar_14_0834	s	s	8	4	SIC	377	ABS	0	0	2	3	24_2_3	NA	NA	0	1	2.62203788757	None	None	None	None	1
3.0.1	2019_Mar_14_0834	s	s	8	4	SIC	378	4_4	4	4	1	4	23_1_4	3	0	1	0	1.18712687492	165.0	277.0	168.0	275.0	1
3.0.1	2019_Mar_14_0834	s	s	8	4	SIC	379	4_3	4	3	1	1	23_1_1	3	2	1	0	0.457931995392	-494.0	-92.0	-485.0	-86.0	1
3.0.1	2019_Mar_14_0834	s	s	8	4	SIC	380	1_1	1	1	1	4	23_1_4	0	3	1	0	0.533434867859	-100.0	-344.0	-110.0	-346.0	1
3.0.1	2019_Mar_14_0834	s	s	8	4	SIC	381	ABS	0	0	1	2	24_1_2	NA	NA	0	1	3.56291389465	None	None	None	None	1
3.0.1	2019_Mar_14_0834	s	s	8	4	SIC	382	ABS	0	0	3	4	24_3_4	NA	NA	0	1	1.02681303024	None	None	None	None	1
3.0.1	2019_Mar_14_0834	s	s	8	4	SIC	383	ABS	0	0	3	2	24_3_2	NA	NA	0	1	4.85690999031	None	None	None	None	1
3.0.1	2019_Mar_14_0834	s	s	8	4	SIC	384	ABS	0	0	4	2	24_4_2	NA	NA	0	1	5.82102203369	None	None	None	None	1
3.0.1	2019_Mar_14_0834	s	s	8	4	SIC	385	3_1	3	1	2	1	23_2_1	1	0	1	0	0.528512954712	-169.0	196.0	-178.0	194.0	1
3.0.1	2019_Mar_14_0834	s	s	8	4	SIC	386	ABS	0	0	4	2	24_4_2	NA	NA	0	1	5.12001609802	None	None	None	None	1
3.0.1	2019_Mar_14_0834	s	s	8	4	SIC	387	1_1	1	1	2	1	23_2_1	1	0	1	0	1.57985496521	361.0	-222.0	361.0	-224.0	1
3.0.1	2019_Mar_14_0834	s	s	8	4	SIC	388	ABS	0	0	1	4	24_1_4	NA	NA	0	1	1.76373696327	None	None	None	None	1
3.0.1	2019_Mar_14_0834	s	s	8	4	SIC	389	1_3	1	3	3	1	23_3_1	2	2	1	0	0.47528386116	-75.0	177.0	-72.0	170.0	1
3.0.1	2019_Mar_14_0834	s	s	8	4	SIC	390	ABS	0	0	4	4	24_4_4	NA	NA	0	1	0.935217857361	None	None	None	None	1
3.0.1	2019_Mar_14_0834	s	s	8	4	SIC	391	ABS	0	0	3	2	24_3_2	NA	NA	0	1	5.47992086411	None	None	None	None	1
3.0.1	2019_Mar_14_0834	s	s	8	4	SIC	392	ABS	0	0	4	4	24_4_4	NA	NA	0	1	0.639121055603	None	None	None	None	1
3.0.1	2019_Mar_14_0834	s	s	8	4	SIC	393	ABS	0	0	4	3	24_4_3	NA	NA	0	1	1.92123007774	None	None	None	None	1
3.0.1	2019_Mar_14_0834	s	s	8	4	SIC	394	1_3	1	3	1	2	23_1_2	0	1	1	0	2.60370111465	-337.0	7.0	-332.0	5.0	1
3.0.1	2019_Mar_14_0834	s	s	8	4	SIC	395	4_3	4	3	4	1	23_4_1	0	2	1	0	1.31949496269	193.0	-253.0	193.0	-255.0	1
3.0.1	2019_Mar_14_0834	s	s	8	4	SIC	396	ABS	0	0	4	4	24_4_4	NA	NA	0	1	1.07425689697	None	None	None	None	1
3.0.1	2019_Mar_14_0834	s	s	8	4	SIC	397	2_4	2	4	1	1	23_1_1	-1	3	1	0	0.693218946457	307.0	53.0	301.0	56.0	1
3.0.1	2019_Mar_14_0834	s	s	8	4	SIC	398	4_1	4	1	2	3	23_2_3	2	2	1	0	0.41556096077	-381.0	245.0	-391.0	246.0	1
3.0.1	2019_Mar_14_0834	s	s	8	4	SIC	399	ABS	0	0	2	1	24_2_1	NA	NA	0	1	3.53795599937	None	None	None	None	1
3.0.1	2019_Mar_14_0834	s	s	8	4	SIC	400	3_4	3	4	3	1	23_3_1	0	3	1	0	0.740192890167	420.0	-68.0	428.0	-68.0	1
3.0.1	2019_Mar_14_0834	s	s	8	4	SIC	401	2_3	2	3	1	2	23_1_2	-1	1	1	0	0.999036073685	-141.0	312.0	-137.0	306.0	1
3.0.1	2019_Mar_14_0834	s	s	8	4	SIC	402	ABS	0	0	4	2	24_4_2	NA	NA	0	1	5.42775988579	None	None	None	None	1
3.0.1	2019_Mar_14_0834	s	s	8	4	SIC	403	ABS	0	0	1	1	24_1_1	NA	NA	0	1	3.11606097221	None	None	None	None	1
3.0.1	2019_Mar_14_0834	s	s	8	4	SIC	404	3_3	3	3	3	2	23_3_2	0	1	1	0	1.31000304222	127.0	185.0	126.0	188.0	1
3.0.1	2019_Mar_14_0834	s	s	8	4	SIC	405	ABS	0	0	3	2	24_3_2	NA	NA	0	1	4.77997708321	None	None	None	None	1
3.0.1	2019_Mar_14_0834	s	s	8	4	SIC	406	3_3	3	3	4	1	23_4_1	-1	2	1	0	0.67263007164	240.0	-226.0	240.0	-226.0	1
3.0.1	2019_Mar_14_0834	s	s	8	4	SIC	407	ABS	0	0	3	2	24_3_2	NA	NA	0	1	4.0164899826	None	None	None	None	1
3.0.1	2019_Mar_14_0834	s	s	8	4	SIC	408	4_2	4	2	2	1	23_2_1	2	-1	1	0	0.440057039261	-58.0	-292.0	-60.0	-295.0	1
3.0.1	2019_Mar_14_0834	s	s	8	4	SIC	409	ABS	0	0	1	2	24_1_2	NA	NA	0	1	3.96570897102	None	None	None	None	1
3.0.1	2019_Mar_14_0834	s	s	8	4	SIC	410	4_1	4	1	2	1	23_2_1	2	0	1	0	0.370521068573	-506.0	-277.0	-511.0	-273.0	1
3.0.1	2019_Mar_14_0834	s	s	8	4	SIC	411	ABS	0	0	4	2	24_4_2	NA	NA	0	1	5.29669499397	None	None	None	None	1
3.0.1	2019_Mar_14_0834	s	s	8	4	SIC	412	ABS	0	0	4	1	24_4_1	NA	NA	0	1	2.01696586609	None	None	None	None	1
3.0.1	2019_Mar_14_0834	s	s	8	4	SIC	413	1_1	1	1	1	3	23_1_3	0	2	1	0	1.19375681877	-356.0	164.0	-352.0	166.0	1
3.0.1	2019_Mar_14_0834	s	s	8	4	SIC	414	1_1	1	1	4	2	23_4_2	3	1	1	0	0.461614847183	84.0	-123.0	83.0	-114.0	1
3.0.1	2019_Mar_14_0834	s	s	8	4	SIC	415	3_3	3	3	1	1	23_1_1	2	2	1	0	0.469689130783	-309.0	63.0	-313.0	63.0	1
3.0.1	2019_Mar_14_0834	s	s	8	4	SIC	416	2_3	2	3	3	4	23_3_4	1	-1	1	0	0.540332078934	238.0	-229.0	237.0	-234.0	1
3.0.1	2019_Mar_14_0834	s	s	8	4	SIC	417	1_4	1	4	2	1	23_2_1	1	3	1	0	0.575528860092	507.0	225.0	491.0	235.0	1
3.0.1	2019_Mar_14_0834	s	s	8	4	SIC	418	ABS	0	0	4	3	24_4_3	NA	NA	0	1	2.95784187317	None	None	None	None	1
3.0.1	2019_Mar_14_0834	s	s	8	4	SIC	419	ABS	0	0	1	3	24_1_3	NA	NA	0	1	3.33948087692	None	None	None	None	1
3.0.1	2019_Mar_14_0834	s	s	8	4	SIC	420	ABS	0	0	4	2	24_4_2	NA	NA	0	1	4.18627381325	None	None	None	None	1
3.0.1	2019_Mar_14_0834	s	s	8	4	SIC	421	4_2	4	2	3	2	23_3_2	1	0	1	0	0.469707012177	112.0	-393.0	111.0	-401.0	1
3.0.1	2019_Mar_14_0834	s	s	8	4	SIC	422	ABS	0	0	4	4	24_4_4	NA	NA	0	1	1.17536878586	None	None	None	None	1
3.0.1	2019_Mar_14_0834	s	s	8	4	SIC	423	3_4	3	4	1	1	23_1_1	2	3	1	0	0.474231004715	-224.0	-208.0	-236.0	-203.0	1
3.0.1	2019_Mar_14_0834	s	s	8	4	SIC	424	ABS	0	0	4	1	24_4_1	NA	NA	0	1	2.38679909706	None	None	None	None	1
3.0.1	2019_Mar_14_0834	s	s	8	4	SIC	425	3_2	3	2	3	3	23_3_3	0	1	1	0	2.75650620461	207.0	-310.0	211.0	-312.0	1
3.0.1	2019_Mar_14_0834	s	s	8	4	SIC	426	ABS	0	0	2	3	24_2_3	NA	NA	0	1	3.95098900795	None	None	None	None	1
3.0.1	2019_Mar_14_0834	s	s	8	4	SIC	427	3_4	3	4	3	2	23_3_2	0	2	1	0	0.661888122559	-140.0	22.0	-129.0	30.0	1
3.0.1	2019_Mar_14_0834	s	s	8	4	SIC	428	3_3	3	3	2	1	23_2_1	1	2	1	0	0.646092891693	215.0	-308.0	224.0	-310.0	1
3.0.1	2019_Mar_14_0834	s	s	8	4	SIC	429	ABS	0	0	1	3	24_1_3	NA	NA	0	1	2.5547170639	None	None	None	None	1
3.0.1	2019_Mar_14_0834	s	s	8	4	SIC	430	ABS	0	0	2	4	24_2_4	NA	NA	0	1	1.11672210693	None	None	None	None	1
3.0.1	2019_Mar_14_0834	s	s	8	4	SIC	431	2_2	2	2	3	2	23_3_2	1	0	1	0	0.516850948334	80.0	149.0	80.0	143.0	1
3.0.1	2019_Mar_14_0834	s	s	8	4	SIC	432	1_1	1	1	3	4	23_3_4	2	3	1	0	0.410914897919	167.0	-348.0	170.0	-342.0	1
3.0.1	2019_Mar_14_0834	s	s	8	4	SIC	433	4_2	4	2	4	4	23_4_4	0	2	1	0	0.481572151184	-207.0	123.0	-206.0	131.0	1
3.0.1	2019_Mar_14_0834	s	s	8	4	SIC	434	2_4	2	4	1	3	23_1_3	-1	1	1	0	0.599143028259	-69.0	390.0	-66.0	393.0	1
3.0.1	2019_Mar_14_0834	s	s	8	4	SIC	435	ABS	0	0	2	4	24_2_4	NA	NA	0	1	1.69293284416	None	None	None	None	1
3.0.1	2019_Mar_14_0834	s	s	8	4	SIC	436	ABS	0	0	1	2	24_1_2	NA	NA	0	1	4.50383496284	None	None	None	None	1
3.0.1	2019_Mar_14_0834	s	s	8	4	SIC	437	4_1	4	1	2	4	23_2_4	2	3	1	0	0.60308098793	-470.0	408.0	-462.0	403.0	1
3.0.1	2019_Mar_14_0834	s	s	8	4	SIC	438	ABS	0	0	3	2	24_3_2	NA	NA	0	1	3.89559316635	None	None	None	None	1
3.0.1	2019_Mar_14_0834	s	s	8	4	SIC	439	2_4	2	4	4	2	23_4_2	2	2	1	0	0.378552913666	72.0	-118.0	68.0	-115.0	1
3.0.1	2019_Mar_14_0834	s	s	8	4	SIC	440	ABS	0	0	4	2	24_4_2	NA	NA	0	1	5.83294796944	None	None	None	None	1
3.0.1	2019_Mar_14_0834	s	s	8	4	SIC	441	3_2	3	2	1	1	23_1_1	2	-1	1	0	0.469676017761	-232.0	-177.0	-232.0	-184.0	1
3.0.1	2019_Mar_14_0834	s	s	8	4	SIC	442	ABS	0	0	2	2	24_2_2	NA	NA	0	1	4.16559791565	None	None	None	None	1
3.0.1	2019_Mar_14_0834	s	s	8	4	SIC	443	1_1	1	1	2	4	23_2_4	1	3	1	0	0.457911968231	-397.0	-224.0	-401.0	-233.0	1
3.0.1	2019_Mar_14_0834	s	s	8	4	SIC	444	ABS	0	0	1	2	24_1_2	NA	NA	0	1	4.53255295753	None	None	None	None	1
3.0.1	2019_Mar_14_0834	s	s	8	4	SIC	445	ABS	0	0	4	2	24_4_2	NA	NA	0	1	3.16799116135	None	None	None	None	1
3.0.1	2019_Mar_14_0834	s	s	8	4	SIC	446	3_3	3	3	1	2	23_1_2	2	1	1	0	0.662739992142	257.0	-254.0	253.0	-250.0	1
3.0.1	2019_Mar_14_0834	s	s	8	4	SIC	447	1_4	1	4	4	2	23_4_2	3	2	1	0	0.403899908066	313.0	-111.0	313.0	-101.0	1
3.0.1	2019_Mar_14_0834	s	s	8	4	SIC	448	ABS	0	0	1	1	24_1_1	NA	NA	0	1	1.88546800613	None	None	None	None	1
3.0.1	2019_Mar_14_0834	s	s	8	4	SIC	449	ABS	0	0	2	2	24_2_2	NA	NA	0	1	5.20062994957	None	None	None	None	1
3.0.1	2019_Mar_14_0834	s	s	8	4	SIC	450	1_4	1	4	3	4	23_3_4	2	0	1	0	0.451054811478	16.0	275.0	7.0	271.0	1
3.0.1	2019_Mar_14_0834	s	s	8	4	SIC	451	ABS	0	0	2	4	24_2_4	NA	NA	0	1	2.26023411751	None	None	None	None	1
3.0.1	2019_Mar_14_0834	s	s	8	4	SIC	452	2_1	2	1	3	1	23_3_1	1	0	1	0	0.469745874405	-220.0	12.0	-227.0	7.0	1
3.0.1	2019_Mar_14_0834	s	s	8	4	SIC	453	4_1	4	1	4	4	23_4_4	0	3	1	0	0.728492975235	-455.0	-327.0	-450.0	-325.0	1
3.0.1	2019_Mar_14_0834	s	s	8	4	SIC	454	4_2	4	2	1	3	23_1_3	3	1	1	0	0.415444135666	-323.0	-245.0	-327.0	-245.0	1
3.0.1	2019_Mar_14_0834	s	s	8	4	SIC	455	1_2	1	2	2	1	23_2_1	1	-1	0	1	1.61347007751	-479.0	-175.0	None	None	0
3.0.1	2019_Mar_14_0834	s	s	8	4	SIC	456	2_4	2	4	3	2	23_3_2	1	2	1	0	0.496179103851	458.0	241.0	460.0	234.0	1
3.0.1	2019_Mar_14_0834	s	s	8	4	SIC	457	2_4	2	4	2	1	23_2_1	0	3	1	0	0.769237041473	-338.0	-214.0	-345.0	-216.0	1
3.0.1	2019_Mar_14_0834	s	s	8	4	SIC	458	ABS	0	0	3	4	24_3_4	NA	NA	0	1	1.26949214935	None	None	None	None	1
3.0.1	2019_Mar_14_0834	s	s	8	4	SIC	459	2_2	2	2	4	4	23_4_4	2	2	1	0	0.363950967789	130.0	-180.0	123.0	-182.0	1
3.0.1	2019_Mar_14_0834	s	s	8	4	SIC	460	2_3	2	3	1	1	23_1_1	-1	2	0	1	1.18054699898	-540.0	-397.0	None	None	0
3.0.1	2019_Mar_14_0834	s	s	8	4	SIC	461	2_1	2	1	3	4	23_3_4	1	3	1	0	0.457947015762	-507.0	360.0	-510.0	353.0	1
3.0.1	2019_Mar_14_0834	s	s	8	4	SIC	462	3_1	3	1	4	4	23_4_4	-1	3	1	0	0.357157945633	39.0	-9.0	44.0	-7.0	1
3.0.1	2019_Mar_14_0834	s	s	8	4	SIC	463	1_4	1	4	2	2	23_2_2	1	2	1	0	0.489292144775	225.0	149.0	224.0	151.0	1
3.0.1	2019_Mar_14_0834	s	s	8	4	SIC	464	4_4	4	4	3	3	23_3_3	1	1	1	0	0.383985042572	-36.0	-325.0	-36.0	-325.0	1
3.0.1	2019_Mar_14_0834	s	s	8	4	SIC	465	ABS	0	0	2	2	24_2_2	NA	NA	0	1	2.8386528492	None	None	None	None	1
3.0.1	2019_Mar_14_0834	s	s	8	4	SIC	466	2_3	2	3	4	4	23_4_4	2	-1	1	0	0.568197011948	-215.0	-81.0	-222.0	-82.0	1
3.0.1	2019_Mar_14_0834	s	s	8	4	SIC	467	3_1	3	1	4	2	23_4_2	-1	1	1	0	0.387370109558	296.0	227.0	297.0	237.0	1
3.0.1	2019_Mar_14_0834	s	s	8	4	SIC	468	1_2	1	2	4	2	23_4_2	3	0	1	0	0.352139949799	193.0	-32.0	187.0	-31.0	1
3.0.1	2019_Mar_14_0834	s	s	8	4	SIC	469	ABS	0	0	3	2	24_3_2	NA	NA	0	1	2.92815113068	None	None	None	None	1
3.0.1	2019_Mar_14_0834	s	s	8	4	SIC	470	ABS	0	0	4	4	24_4_4	NA	NA	0	1	1.6576769352	None	None	None	None	1
3.0.1	2019_Mar_14_0834	s	s	8	4	SIC	471	ABS	0	0	2	1	24_2_1	NA	NA	0	1	2.17507100105	None	None	None	None	1
3.0.1	2019_Mar_14_0834	s	s	8	4	SIC	472	1_4	1	4	3	1	23_3_1	2	3	1	0	0.516746044159	-357.0	-235.0	-367.0	-234.0	1
3.0.1	2019_Mar_14_0834	s	s	8	4	SIC	473	ABS	0	0	1	3	24_1_3	NA	NA	0	1	2.22209405899	None	None	None	None	1
3.0.1	2019_Mar_14_0834	s	s	8	4	SIC	474	2_2	2	2	2	4	23_2_4	0	2	1	0	0.898864030838	-293.0	-368.0	-295.0	-367.0	1
3.0.1	2019_Mar_14_0834	s	s	8	4	SIC	475	1_1	1	1	3	3	23_3_3	2	2	1	0	0.410899877548	-186.0	-325.0	-192.0	-318.0	1
3.0.1	2019_Mar_14_0834	s	s	8	4	SIC	476	4_2	4	2	4	1	23_4_1	0	-1	1	0	1.14974093437	106.0	336.0	108.0	335.0	1
3.0.1	2019_Mar_14_0834	s	s	8	4	SIC	477	1_4	1	4	2	4	23_2_4	1	0	1	0	1.38357996941	-193.0	223.0	-190.0	213.0	1
3.0.1	2019_Mar_14_0834	s	s	8	4	SIC	478	ABS	0	0	2	4	24_2_4	NA	NA	0	1	1.23422312737	None	None	None	None	1
3.0.1	2019_Mar_14_0834	s	s	8	4	SIC	479	1_2	1	2	2	3	23_2_3	1	1	1	0	0.516684770584	485.0	-210.0	492.0	-202.0	1
3.0.1	2019_Mar_14_0834	s	s	8	4	SIC	480	2_3	2	3	2	2	23_2_2	0	1	0	1	3.99846386909	175.0	213.0	None	None	0
