Version	Date	Stimuli	Method	Subject	Session	Condition	Trial	Target	TColor	TShape	DColor	DShape	Distractors	Channel1	Channel2	LMouseButton	RMouseButton	RT	TargetX	TargetY	ResponseX	ResponseY	Correct
3.0.1	2019_Mar_13_1050	s	s	8	3	Capacity	1	ABS	0	0	2	1	24_2_1	NA	NA	0	1	2.24615383148	None	None	None	None	1
3.0.1	2019_Mar_13_1050	s	s	8	3	Capacity	2	2_1	2	1	3	1	23_3_1	1	0	1	0	0.907876968384	455.0	100.0	449.0	102.0	1
3.0.1	2019_Mar_13_1050	s	s	8	3	Capacity	3	4_1	4	1	1	1	23_1_1	3	0	1	0	0.555015802383	-512.0	-231.0	-510.0	-230.0	1
3.0.1	2019_Mar_13_1050	s	s	8	3	Capacity	4	ABS	0	0	3	1	24_3_1	NA	NA	0	1	1.66155791283	None	None	None	None	1
3.0.1	2019_Mar_13_1050	s	s	8	3	Capacity	5	2_1	2	1	4	1	23_4_1	2	0	1	0	0.547350883484	-97.0	-350.0	-90.0	-343.0	1
3.0.1	2019_Mar_13_1050	s	s	8	3	Capacity	6	ABS	0	0	1	1	24_1_1	NA	NA	0	1	1.78208303452	None	None	None	None	1
3.0.1	2019_Mar_13_1050	s	s	8	3	Capacity	7	ABS	0	0	1	1	24_1_1	NA	NA	0	1	2.09281206131	None	None	None	None	1
3.0.1	2019_Mar_13_1050	s	s	8	3	Capacity	8	3_1	3	1	4	1	23_4_1	-1	0	1	0	0.496204137802	382.0	-63.0	373.0	-57.0	1
3.0.1	2019_Mar_13_1050	s	s	8	3	Capacity	9	ABS	0	0	1	1	24_1_1	NA	NA	0	1	1.90792798996	None	None	None	None	1
3.0.1	2019_Mar_13_1050	s	s	8	3	Capacity	10	3_1	3	1	1	1	23_1_1	2	0	1	0	0.57599902153	-363.0	27.0	-369.0	28.0	1
3.0.1	2019_Mar_13_1050	s	s	8	3	Capacity	11	ABS	0	0	2	1	24_2_1	NA	NA	0	1	2.18692612648	None	None	None	None	1
3.0.1	2019_Mar_13_1050	s	s	8	3	Capacity	12	4_1	4	1	2	1	23_2_1	2	0	1	0	0.555006980896	526.0	-337.0	527.0	-352.0	1
3.0.1	2019_Mar_13_1050	s	s	8	3	Capacity	13	3_1	3	1	2	1	23_2_1	1	0	1	0	0.62809586525	-33.0	-250.0	-36.0	-247.0	1
3.0.1	2019_Mar_13_1050	s	s	8	3	Capacity	14	ABS	0	0	2	1	24_2_1	NA	NA	0	1	2.33972597122	None	None	None	None	1
3.0.1	2019_Mar_13_1050	s	s	8	3	Capacity	15	ABS	0	0	3	1	24_3_1	NA	NA	0	1	2.04581594467	None	None	None	None	1
3.0.1	2019_Mar_13_1050	s	s	8	3	Capacity	16	ABS	0	0	4	1	24_4_1	NA	NA	0	1	2.09873580933	None	None	None	None	1
3.0.1	2019_Mar_13_1050	s	s	8	3	Capacity	17	1_1	1	1	3	1	23_3_1	2	0	1	0	0.592274904251	493.0	179.0	491.0	175.0	1
3.0.1	2019_Mar_13_1050	s	s	8	3	Capacity	18	ABS	0	0	3	1	24_3_1	NA	NA	0	1	2.41513395309	None	None	None	None	1
3.0.1	2019_Mar_13_1050	s	s	8	3	Capacity	19	ABS	0	0	4	1	24_4_1	NA	NA	0	1	1.27456402779	None	None	None	None	1
3.0.1	2019_Mar_13_1050	s	s	8	3	Capacity	20	1_1	1	1	4	1	23_4_1	3	0	1	0	0.469768047333	350.0	52.0	357.0	53.0	1
3.0.1	2019_Mar_13_1050	s	s	8	3	Capacity	21	1_1	1	1	2	1	23_2_1	1	0	1	0	1.02547097206	-88.0	-412.0	-82.0	-416.0	1
3.0.1	2019_Mar_13_1050	s	s	8	3	Capacity	22	2_1	2	1	1	1	23_1_1	-1	0	1	0	0.698356151581	-435.0	-222.0	-426.0	-221.0	1
3.0.1	2019_Mar_13_1050	s	s	8	3	Capacity	23	ABS	0	0	4	1	24_4_1	NA	NA	0	1	2.05747294426	None	None	None	None	1
3.0.1	2019_Mar_13_1050	s	s	8	3	Capacity	24	4_1	4	1	3	1	23_3_1	1	0	1	0	0.457963943481	353.0	163.0	348.0	165.0	1
3.0.1	2019_Mar_13_1050	s	s	8	3	Capacity	25	ABS	0	0	3	1	24_3_1	NA	NA	0	1	2.06926512718	None	None	None	None	1
3.0.1	2019_Mar_13_1050	s	s	8	3	Capacity	26	2_1	2	1	4	1	23_4_1	2	0	1	0	0.453209877014	-323.0	-82.0	-318.0	-81.0	1
3.0.1	2019_Mar_13_1050	s	s	8	3	Capacity	27	ABS	0	0	4	1	24_4_1	NA	NA	0	1	1.99866700172	None	None	None	None	1
3.0.1	2019_Mar_13_1050	s	s	8	3	Capacity	28	ABS	0	0	4	1	24_4_1	NA	NA	0	1	1.97519087791	None	None	None	None	1
3.0.1	2019_Mar_13_1050	s	s	8	3	Capacity	29	3_1	3	1	4	1	23_4_1	-1	0	1	0	0.496225118637	90.0	364.0	103.0	368.0	1
3.0.1	2019_Mar_13_1050	s	s	8	3	Capacity	30	3_1	3	1	2	1	23_2_1	1	0	1	0	0.592519044876	-424.0	133.0	-425.0	127.0	1
3.0.1	2019_Mar_13_1050	s	s	8	3	Capacity	31	ABS	0	0	1	1	24_1_1	NA	NA	0	1	2.40397906303	None	None	None	None	1
3.0.1	2019_Mar_13_1050	s	s	8	3	Capacity	32	ABS	0	0	1	1	24_1_1	NA	NA	0	1	1.61352300644	None	None	None	None	1
3.0.1	2019_Mar_13_1050	s	s	8	3	Capacity	33	2_1	2	1	1	1	23_1_1	-1	0	1	0	1.06957483292	-403.0	89.0	-407.0	89.0	1
3.0.1	2019_Mar_13_1050	s	s	8	3	Capacity	34	2_1	2	1	3	1	23_3_1	1	0	1	0	0.592283010483	-121.0	-394.0	-124.0	-388.0	1
3.0.1	2019_Mar_13_1050	s	s	8	3	Capacity	35	ABS	0	0	3	1	24_3_1	NA	NA	0	1	2.34565210342	None	None	None	None	1
3.0.1	2019_Mar_13_1050	s	s	8	3	Capacity	36	ABS	0	0	3	1	24_3_1	NA	NA	0	1	2.11630606651	None	None	None	None	1
3.0.1	2019_Mar_13_1050	s	s	8	3	Capacity	37	ABS	0	0	1	1	24_1_1	NA	NA	0	1	2.35154891014	None	None	None	None	1
3.0.1	2019_Mar_13_1050	s	s	8	3	Capacity	38	1_1	1	1	4	1	23_4_1	3	0	1	0	0.528553962708	-13.0	408.0	-18.0	413.0	1
3.0.1	2019_Mar_13_1050	s	s	8	3	Capacity	39	1_1	1	1	3	1	23_3_1	2	0	1	0	0.522855043411	399.0	-97.0	396.0	-107.0	1
3.0.1	2019_Mar_13_1050	s	s	8	3	Capacity	40	ABS	0	0	2	1	24_2_1	NA	NA	0	1	2.65084719658	None	None	None	None	1
3.0.1	2019_Mar_13_1050	s	s	8	3	Capacity	41	4_1	4	1	1	1	23_1_1	3	0	1	0	0.450973987579	385.0	77.0	380.0	68.0	1
3.0.1	2019_Mar_13_1050	s	s	8	3	Capacity	42	ABS	0	0	4	1	24_4_1	NA	NA	0	1	2.08611011505	None	None	None	None	1
3.0.1	2019_Mar_13_1050	s	s	8	3	Capacity	43	3_1	3	1	1	1	23_1_1	2	0	1	0	0.563896894455	-108.0	-287.0	-119.0	-281.0	1
3.0.1	2019_Mar_13_1050	s	s	8	3	Capacity	44	4_1	4	1	3	1	23_3_1	1	0	1	0	0.602324008942	293.0	362.0	287.0	365.0	1
3.0.1	2019_Mar_13_1050	s	s	8	3	Capacity	45	ABS	0	0	2	1	24_2_1	NA	NA	0	1	3.1371049881	None	None	None	None	1
3.0.1	2019_Mar_13_1050	s	s	8	3	Capacity	46	4_1	4	1	2	1	23_2_1	2	0	1	0	0.50835108757	23.0	-9.0	17.0	-16.0	1
3.0.1	2019_Mar_13_1050	s	s	8	3	Capacity	47	ABS	0	0	2	1	24_2_1	NA	NA	0	1	3.03803706169	None	None	None	None	1
3.0.1	2019_Mar_13_1050	s	s	8	3	Capacity	48	1_1	1	1	2	1	23_2_1	1	0	1	0	0.67255616188	-298.0	21.0	-305.0	21.0	1
3.0.1	2019_Mar_13_1050	s	s	8	3	Capacity	49	ABS	0	0	1	1	24_1_1	NA	NA	0	1	2.49557304382	None	None	None	None	1
3.0.1	2019_Mar_13_1050	s	s	8	3	Capacity	50	ABS	0	0	4	1	24_4_1	NA	NA	0	1	1.74484992027	None	None	None	None	1
3.0.1	2019_Mar_13_1050	s	s	8	3	Capacity	51	3_1	3	1	1	1	23_1_1	2	0	1	0	0.599323034286	-150.0	204.0	-151.0	203.0	1
3.0.1	2019_Mar_13_1050	s	s	8	3	Capacity	52	1_1	1	1	4	1	23_4_1	3	0	1	0	0.580119848251	285.0	-395.0	277.0	-400.0	1
3.0.1	2019_Mar_13_1050	s	s	8	3	Capacity	53	4_1	4	1	1	1	23_1_1	3	0	1	0	0.457982063293	-8.0	379.0	-10.0	377.0	1
3.0.1	2019_Mar_13_1050	s	s	8	3	Capacity	54	ABS	0	0	1	1	24_1_1	NA	NA	0	1	2.39859294891	None	None	None	None	1
3.0.1	2019_Mar_13_1050	s	s	8	3	Capacity	55	2_1	2	1	4	1	23_4_1	2	0	1	0	0.481514930725	460.0	-2.0	461.0	-14.0	1
3.0.1	2019_Mar_13_1050	s	s	8	3	Capacity	56	ABS	0	0	2	1	24_2_1	NA	NA	0	1	2.95138502121	None	None	None	None	1
3.0.1	2019_Mar_13_1050	s	s	8	3	Capacity	57	2_1	2	1	1	1	23_1_1	-1	0	1	0	0.915088176727	292.0	-277.0	289.0	-286.0	1
3.0.1	2019_Mar_13_1050	s	s	8	3	Capacity	58	1_1	1	1	3	1	23_3_1	2	0	1	0	0.502272129059	-107.0	-89.0	-109.0	-99.0	1
3.0.1	2019_Mar_13_1050	s	s	8	3	Capacity	59	ABS	0	0	2	1	24_2_1	NA	NA	0	1	3.19221711159	None	None	None	None	1
3.0.1	2019_Mar_13_1050	s	s	8	3	Capacity	60	ABS	0	0	3	1	24_3_1	NA	NA	0	1	2.43392109871	None	None	None	None	1
3.0.1	2019_Mar_13_1050	s	s	8	3	Capacity	61	ABS	0	0	2	1	24_2_1	NA	NA	0	1	2.319190979	None	None	None	None	1
3.0.1	2019_Mar_13_1050	s	s	8	3	Capacity	62	3_1	3	1	4	1	23_4_1	-1	0	1	0	0.563868045807	253.0	-321.0	247.0	-324.0	1
3.0.1	2019_Mar_13_1050	s	s	8	3	Capacity	63	4_1	4	1	3	1	23_3_1	1	0	1	0	0.661218166351	298.0	394.0	295.0	389.0	1
3.0.1	2019_Mar_13_1050	s	s	8	3	Capacity	64	ABS	0	0	4	1	24_4_1	NA	NA	0	1	1.42730307579	None	None	None	None	1
3.0.1	2019_Mar_13_1050	s	s	8	3	Capacity	65	ABS	0	0	4	1	24_4_1	NA	NA	0	1	2.00390410423	None	None	None	None	1
3.0.1	2019_Mar_13_1050	s	s	8	3	Capacity	66	ABS	0	0	3	1	24_3_1	NA	NA	0	1	1.35196709633	None	None	None	None	1
3.0.1	2019_Mar_13_1050	s	s	8	3	Capacity	67	3_1	3	1	2	1	23_2_1	1	0	1	0	0.587392091751	422.0	24.0	427.0	27.0	1
3.0.1	2019_Mar_13_1050	s	s	8	3	Capacity	68	2_1	2	1	3	1	23_3_1	1	0	1	0	0.509975910187	175.0	-50.0	172.0	-41.0	1
3.0.1	2019_Mar_13_1050	s	s	8	3	Capacity	69	ABS	0	0	1	1	24_1_1	NA	NA	0	1	2.03401994705	None	None	None	None	1
3.0.1	2019_Mar_13_1050	s	s	8	3	Capacity	70	4_1	4	1	2	1	23_2_1	2	0	1	0	0.486707925797	-450.0	-204.0	-453.0	-203.0	1
3.0.1	2019_Mar_13_1050	s	s	8	3	Capacity	71	1_1	1	1	2	1	23_2_1	1	0	1	0	1.05775594711	-277.0	98.0	-275.0	91.0	1
3.0.1	2019_Mar_13_1050	s	s	8	3	Capacity	72	ABS	0	0	3	1	24_3_1	NA	NA	0	1	1.95170998573	None	None	None	None	1
3.0.1	2019_Mar_13_1050	s	s	8	3	Capacity	73	ABS	0	0	1	1	24_1_1	NA	NA	0	1	2.42705607414	None	None	None	None	1
3.0.1	2019_Mar_13_1050	s	s	8	3	Capacity	74	2_1	2	1	1	1	23_1_1	-1	0	1	0	0.681493997574	-268.0	-306.0	-277.0	-300.0	1
3.0.1	2019_Mar_13_1050	s	s	8	3	Capacity	75	ABS	0	0	2	1	24_2_1	NA	NA	0	1	2.30446386337	None	None	None	None	1
3.0.1	2019_Mar_13_1050	s	s	8	3	Capacity	76	ABS	0	0	3	1	24_3_1	NA	NA	0	1	1.7634768486	None	None	None	None	1
3.0.1	2019_Mar_13_1050	s	s	8	3	Capacity	77	ABS	0	0	2	1	24_2_1	NA	NA	0	1	2.89773702621	None	None	None	None	1
3.0.1	2019_Mar_13_1050	s	s	8	3	Capacity	78	ABS	0	0	3	1	24_3_1	NA	NA	0	1	1.97191500664	None	None	None	None	1
3.0.1	2019_Mar_13_1050	s	s	8	3	Capacity	79	3_1	3	1	4	1	23_4_1	-1	0	1	0	0.51677107811	277.0	-258.0	284.0	-262.0	1
3.0.1	2019_Mar_13_1050	s	s	8	3	Capacity	80	4_1	4	1	3	1	23_3_1	1	0	1	0	0.639532089233	-152.0	-4.0	-143.0	-1.0	1
3.0.1	2019_Mar_13_1050	s	s	8	3	Capacity	81	1_1	1	1	2	1	23_2_1	1	0	1	0	0.99901509285	203.0	-203.0	196.0	-205.0	1
3.0.1	2019_Mar_13_1050	s	s	8	3	Capacity	82	ABS	0	0	4	1	24_4_1	NA	NA	0	1	2.16891908646	None	None	None	None	1
3.0.1	2019_Mar_13_1050	s	s	8	3	Capacity	83	2_1	2	1	4	1	23_4_1	2	0	1	0	0.516777038574	128.0	-253.0	133.0	-257.0	1
3.0.1	2019_Mar_13_1050	s	s	8	3	Capacity	84	1_1	1	1	3	1	23_3_1	2	0	1	0	0.568316936493	442.0	72.0	442.0	67.0	1
3.0.1	2019_Mar_13_1050	s	s	8	3	Capacity	85	1_1	1	1	4	1	23_4_1	3	0	1	0	0.615828990936	-104.0	-344.0	-97.0	-342.0	1
3.0.1	2019_Mar_13_1050	s	s	8	3	Capacity	86	3_1	3	1	1	1	23_1_1	2	0	1	0	0.61506319046	-57.0	-224.0	-59.0	-227.0	1
3.0.1	2019_Mar_13_1050	s	s	8	3	Capacity	87	ABS	0	0	3	1	24_3_1	NA	NA	0	1	2.26198887825	None	None	None	None	1
3.0.1	2019_Mar_13_1050	s	s	8	3	Capacity	88	ABS	0	0	4	1	24_4_1	NA	NA	0	1	2.2155559063	None	None	None	None	1
3.0.1	2019_Mar_13_1050	s	s	8	3	Capacity	89	2_1	2	1	3	1	23_3_1	1	0	1	0	0.599205970764	458.0	-325.0	446.0	-324.0	1
3.0.1	2019_Mar_13_1050	s	s	8	3	Capacity	90	ABS	0	0	1	1	24_1_1	NA	NA	0	1	2.20364999771	None	None	None	None	1
3.0.1	2019_Mar_13_1050	s	s	8	3	Capacity	91	ABS	0	0	1	1	24_1_1	NA	NA	0	1	1.81061887741	None	None	None	None	1
3.0.1	2019_Mar_13_1050	s	s	8	3	Capacity	92	3_1	3	1	2	1	23_2_1	1	0	1	0	0.619302034378	-395.0	-279.0	-404.0	-277.0	1
3.0.1	2019_Mar_13_1050	s	s	8	3	Capacity	93	4_1	4	1	1	1	23_1_1	3	0	1	0	0.533591032028	54.0	120.0	55.0	107.0	1
3.0.1	2019_Mar_13_1050	s	s	8	3	Capacity	94	4_1	4	1	2	1	23_2_1	2	0	1	0	0.462869882584	294.0	-317.0	291.0	-325.0	1
3.0.1	2019_Mar_13_1050	s	s	8	3	Capacity	95	ABS	0	0	2	1	24_2_1	NA	NA	0	1	2.09289693832	None	None	None	None	1
3.0.1	2019_Mar_13_1050	s	s	8	3	Capacity	96	ABS	0	0	4	1	24_4_1	NA	NA	0	1	1.05795502663	None	None	None	None	1
3.0.1	2019_Mar_13_1050	s	s	8	3	Capacity	1	1_4	1	4	1	3	23_1_3	0	1	1	0	0.79021191597	305.0	-127.0	304.0	-125.0	1
3.0.1	2019_Mar_13_1050	s	s	8	3	Capacity	2	1_2	1	2	1	4	23_1_4	0	2	1	0	1.39886498451	421.0	-314.0	417.0	-314.0	1
3.0.1	2019_Mar_13_1050	s	s	8	3	Capacity	3	ABS	0	0	1	3	24_1_3	NA	NA	0	1	4.34442305565	None	None	None	None	1
3.0.1	2019_Mar_13_1050	s	s	8	3	Capacity	4	ABS	0	0	1	2	24_1_2	NA	NA	0	1	5.29615187645	None	None	None	None	1
3.0.1	2019_Mar_13_1050	s	s	8	3	Capacity	5	1_2	1	2	1	1	23_1_1	0	-1	1	0	4.20094919205	-476.0	41.0	-477.0	43.0	1
3.0.1	2019_Mar_13_1050	s	s	8	3	Capacity	6	1_2	1	2	1	3	23_1_3	0	1	1	0	3.91323399544	-342.0	372.0	-350.0	374.0	1
3.0.1	2019_Mar_13_1050	s	s	8	3	Capacity	7	ABS	0	0	1	1	24_1_1	NA	NA	0	1	3.74349713326	None	None	None	None	1
3.0.1	2019_Mar_13_1050	s	s	8	3	Capacity	8	ABS	0	0	1	4	24_1_4	NA	NA	0	1	2.92102599144	None	None	None	None	1
3.0.1	2019_Mar_13_1050	s	s	8	3	Capacity	9	1_1	1	1	1	4	23_1_4	0	3	1	0	0.752050161362	435.0	-180.0	425.0	-177.0	1
3.0.1	2019_Mar_13_1050	s	s	8	3	Capacity	10	ABS	0	0	1	3	24_1_3	NA	NA	0	1	5.10885691643	None	None	None	None	1
3.0.1	2019_Mar_13_1050	s	s	8	3	Capacity	11	ABS	0	0	1	2	24_1_2	NA	NA	0	1	6.8143620491	None	None	None	None	1
3.0.1	2019_Mar_13_1050	s	s	8	3	Capacity	12	1_1	1	1	1	3	23_1_3	0	2	1	0	0.805377006531	-12.0	-122.0	-11.0	-123.0	1
3.0.1	2019_Mar_13_1050	s	s	8	3	Capacity	13	ABS	0	0	1	2	24_1_2	NA	NA	0	1	6.44188404083	None	None	None	None	1
3.0.1	2019_Mar_13_1050	s	s	8	3	Capacity	14	1_1	1	1	1	2	23_1_2	0	1	1	0	4.85124993324	6.0	407.0	11.0	409.0	1
3.0.1	2019_Mar_13_1050	s	s	8	3	Capacity	15	1_3	1	3	1	1	23_1_1	0	2	1	0	1.46944594383	-356.0	-296.0	-358.0	-294.0	1
3.0.1	2019_Mar_13_1050	s	s	8	3	Capacity	16	ABS	0	0	1	1	24_1_1	NA	NA	0	1	3.09736585617	None	None	None	None	1
3.0.1	2019_Mar_13_1050	s	s	8	3	Capacity	17	ABS	0	0	1	1	24_1_1	NA	NA	0	1	4.35490393639	None	None	None	None	1
3.0.1	2019_Mar_13_1050	s	s	8	3	Capacity	18	1_3	1	3	1	4	23_1_4	0	-1	1	0	0.763826131821	392.0	-183.0	383.0	-187.0	1
3.0.1	2019_Mar_13_1050	s	s	8	3	Capacity	19	1_4	1	4	1	1	23_1_1	0	3	1	0	0.628499031067	-165.0	-364.0	-164.0	-367.0	1
3.0.1	2019_Mar_13_1050	s	s	8	3	Capacity	20	1_4	1	4	1	2	23_1_2	0	2	1	0	0.592520952225	420.0	-211.0	416.0	-208.0	1
3.0.1	2019_Mar_13_1050	s	s	8	3	Capacity	21	ABS	0	0	1	3	24_1_3	NA	NA	0	1	5.0830180645	None	None	None	None	1
3.0.1	2019_Mar_13_1050	s	s	8	3	Capacity	22	ABS	0	0	1	4	24_1_4	NA	NA	0	1	1.73837780952	None	None	None	None	1
3.0.1	2019_Mar_13_1050	s	s	8	3	Capacity	23	1_3	1	3	1	2	23_1_2	0	1	0	1	5.71527504921	375.0	387.0	None	None	0
3.0.1	2019_Mar_13_1050	s	s	8	3	Capacity	24	ABS	0	0	1	4	24_1_4	NA	NA	0	1	2.31113696098	None	None	None	None	1
3.0.1	2019_Mar_13_1050	s	s	8	3	Capacity	25	1_1	1	1	1	4	23_1_4	0	3	1	0	0.686070919037	-134.0	181.0	-136.0	174.0	1
3.0.1	2019_Mar_13_1050	s	s	8	3	Capacity	26	ABS	0	0	1	4	24_1_4	NA	NA	0	1	1.97230482101	None	None	None	None	1
3.0.1	2019_Mar_13_1050	s	s	8	3	Capacity	27	ABS	0	0	1	1	24_1_1	NA	NA	0	1	5.10363888741	None	None	None	None	1
3.0.1	2019_Mar_13_1050	s	s	8	3	Capacity	28	ABS	0	0	1	2	24_1_2	NA	NA	0	1	5.99752378464	None	None	None	None	1
3.0.1	2019_Mar_13_1050	s	s	8	3	Capacity	29	1_4	1	4	1	3	23_1_3	0	1	1	0	0.70539689064	-230.0	-58.0	-217.0	-55.0	1
3.0.1	2019_Mar_13_1050	s	s	8	3	Capacity	30	1_2	1	2	1	1	23_1_1	0	-1	1	0	2.99841403961	363.0	243.0	361.0	242.0	1
3.0.1	2019_Mar_13_1050	s	s	8	3	Capacity	31	1_4	1	4	1	1	23_1_1	0	3	1	0	0.677552938461	-456.0	49.0	-457.0	50.0	1
3.0.1	2019_Mar_13_1050	s	s	8	3	Capacity	32	ABS	0	0	1	4	24_1_4	NA	NA	0	1	1.5613617897	None	None	None	None	1
3.0.1	2019_Mar_13_1050	s	s	8	3	Capacity	33	1_4	1	4	1	2	23_1_2	0	2	1	0	0.640360116959	-326.0	75.0	-330.0	73.0	1
3.0.1	2019_Mar_13_1050	s	s	8	3	Capacity	34	1_3	1	3	1	1	23_1_1	0	2	1	0	1.08426499367	-472.0	-316.0	-479.0	-313.0	1
3.0.1	2019_Mar_13_1050	s	s	8	3	Capacity	35	1_1	1	1	1	2	23_1_2	0	1	1	0	3.2806968689	223.0	326.0	228.0	321.0	1
3.0.1	2019_Mar_13_1050	s	s	8	3	Capacity	36	ABS	0	0	1	2	24_1_2	NA	NA	0	1	4.73519802094	None	None	None	None	1
3.0.1	2019_Mar_13_1050	s	s	8	3	Capacity	37	1_3	1	3	1	4	23_1_4	0	-1	1	0	0.73143696785	-410.0	303.0	-409.0	308.0	1
3.0.1	2019_Mar_13_1050	s	s	8	3	Capacity	38	ABS	0	0	1	4	24_1_4	NA	NA	0	1	2.22843289375	None	None	None	None	1
3.0.1	2019_Mar_13_1050	s	s	8	3	Capacity	39	ABS	0	0	1	2	24_1_2	NA	NA	0	1	6.35040092468	None	None	None	None	1
3.0.1	2019_Mar_13_1050	s	s	8	3	Capacity	40	1_2	1	2	1	4	23_1_4	0	2	1	0	0.76368689537	-493.0	231.0	-495.0	229.0	1
3.0.1	2019_Mar_13_1050	s	s	8	3	Capacity	41	ABS	0	0	1	3	24_1_3	NA	NA	0	1	2.95801615715	None	None	None	None	1
3.0.1	2019_Mar_13_1050	s	s	8	3	Capacity	42	1_3	1	3	1	2	23_1_2	0	1	1	0	0.951991081238	-248.0	327.0	-244.0	330.0	1
3.0.1	2019_Mar_13_1050	s	s	8	3	Capacity	43	ABS	0	0	1	3	24_1_3	NA	NA	0	1	4.06169104576	None	None	None	None	1
3.0.1	2019_Mar_13_1050	s	s	8	3	Capacity	44	ABS	0	0	1	1	24_1_1	NA	NA	0	1	3.24545907974	None	None	None	None	1
3.0.1	2019_Mar_13_1050	s	s	8	3	Capacity	45	1_1	1	1	1	3	23_1_3	0	2	1	0	2.61317205429	64.0	-204.0	55.0	-207.0	1
3.0.1	2019_Mar_13_1050	s	s	8	3	Capacity	46	ABS	0	0	1	3	24_1_3	NA	NA	0	1	4.67797493935	None	None	None	None	1
3.0.1	2019_Mar_13_1050	s	s	8	3	Capacity	47	1_2	1	2	1	3	23_1_3	0	1	1	0	3.77473497391	-475.0	-24.0	-471.0	-18.0	1
3.0.1	2019_Mar_13_1050	s	s	8	3	Capacity	48	ABS	0	0	1	1	24_1_1	NA	NA	0	1	3.59012293816	None	None	None	None	1
3.0.1	2019_Mar_13_1050	s	s	8	3	Capacity	49	ABS	0	0	1	4	24_1_4	NA	NA	0	1	2.44566893578	None	None	None	None	1
3.0.1	2019_Mar_13_1050	s	s	8	3	Capacity	50	ABS	0	0	1	1	24_1_1	NA	NA	0	1	4.67288780212	None	None	None	None	1
3.0.1	2019_Mar_13_1050	s	s	8	3	Capacity	51	ABS	0	0	1	3	24_1_3	NA	NA	0	1	4.80963277817	None	None	None	None	1
3.0.1	2019_Mar_13_1050	s	s	8	3	Capacity	52	1_3	1	3	1	2	23_1_2	0	1	0	1	6.98541998863	463.0	277.0	None	None	0
3.0.1	2019_Mar_13_1050	s	s	8	3	Capacity	53	1_2	1	2	1	3	23_1_3	0	1	1	0	1.27409601212	-518.0	-177.0	-514.0	-178.0	1
3.0.1	2019_Mar_13_1050	s	s	8	3	Capacity	54	ABS	0	0	1	4	24_1_4	NA	NA	0	1	2.32013487816	None	None	None	None	1
3.0.1	2019_Mar_13_1050	s	s	8	3	Capacity	55	1_4	1	4	1	1	23_1_1	0	3	1	0	0.775494813919	8.0	124.0	8.0	117.0	1
3.0.1	2019_Mar_13_1050	s	s	8	3	Capacity	56	1_3	1	3	1	4	23_1_4	0	-1	1	0	1.07790708542	21.0	-376.0	22.0	-375.0	1
3.0.1	2019_Mar_13_1050	s	s	8	3	Capacity	57	ABS	0	0	1	2	24_1_2	NA	NA	0	1	6.12688302994	None	None	None	None	1
3.0.1	2019_Mar_13_1050	s	s	8	3	Capacity	58	ABS	0	0	1	1	24_1_1	NA	NA	0	1	3.67171001434	None	None	None	None	1
3.0.1	2019_Mar_13_1050	s	s	8	3	Capacity	59	1_4	1	4	1	3	23_1_3	0	1	1	0	0.717046976089	-134.0	247.0	-132.0	252.0	1
3.0.1	2019_Mar_13_1050	s	s	8	3	Capacity	60	ABS	0	0	1	4	24_1_4	NA	NA	0	1	1.35693287849	None	None	None	None	1
3.0.1	2019_Mar_13_1050	s	s	8	3	Capacity	61	ABS	0	0	1	3	24_1_3	NA	NA	0	1	4.162733078	None	None	None	None	1
3.0.1	2019_Mar_13_1050	s	s	8	3	Capacity	62	ABS	0	0	1	2	24_1_2	NA	NA	0	1	6.0759909153	None	None	None	None	1
3.0.1	2019_Mar_13_1050	s	s	8	3	Capacity	63	1_1	1	1	1	3	23_1_3	0	2	1	0	1.46948313713	194.0	381.0	194.0	388.0	1
3.0.1	2019_Mar_13_1050	s	s	8	3	Capacity	64	1_1	1	1	1	4	23_1_4	0	3	1	0	0.516922950745	-482.0	207.0	-486.0	205.0	1
3.0.1	2019_Mar_13_1050	s	s	8	3	Capacity	65	1_2	1	2	1	1	23_1_1	0	-1	1	0	2.66918802261	518.0	-16.0	525.0	-18.0	1
3.0.1	2019_Mar_13_1050	s	s	8	3	Capacity	66	1_4	1	4	1	2	23_1_2	0	2	1	0	0.893208026886	82.0	-334.0	71.0	-325.0	1
3.0.1	2019_Mar_13_1050	s	s	8	3	Capacity	67	ABS	0	0	1	3	24_1_3	NA	NA	0	1	4.28030991554	None	None	None	None	1
3.0.1	2019_Mar_13_1050	s	s	8	3	Capacity	68	1_1	1	1	1	2	23_1_2	0	1	1	0	2.68082904816	527.0	226.0	532.0	230.0	1
3.0.1	2019_Mar_13_1050	s	s	8	3	Capacity	69	1_2	1	2	1	4	23_1_4	0	2	1	0	0.569506883621	-465.0	-1.0	-457.0	-1.0	1
3.0.1	2019_Mar_13_1050	s	s	8	3	Capacity	70	1_3	1	3	1	1	23_1_1	0	2	1	0	1.6016869545	109.0	-183.0	106.0	-183.0	1
3.0.1	2019_Mar_13_1050	s	s	8	3	Capacity	71	ABS	0	0	1	1	24_1_1	NA	NA	0	1	1.44593715668	None	None	None	None	1
3.0.1	2019_Mar_13_1050	s	s	8	3	Capacity	72	ABS	0	0	1	2	24_1_2	NA	NA	0	1	7.50054883957	None	None	None	None	1
3.0.1	2019_Mar_13_1050	s	s	8	3	Capacity	73	1_1	1	1	1	4	23_1_4	0	3	1	0	0.650980949402	309.0	-236.0	304.0	-242.0	1
3.0.1	2019_Mar_13_1050	s	s	8	3	Capacity	74	1_4	1	4	1	2	23_1_2	0	2	1	0	0.657954931259	396.0	147.0	401.0	148.0	1
3.0.1	2019_Mar_13_1050	s	s	8	3	Capacity	75	1_1	1	1	1	3	23_1_3	0	2	1	0	1.08785104752	-73.0	336.0	-80.0	334.0	1
3.0.1	2019_Mar_13_1050	s	s	8	3	Capacity	76	1_1	1	1	1	2	23_1_2	0	1	1	0	5.04173398018	-380.0	-199.0	-373.0	-192.0	1
3.0.1	2019_Mar_13_1050	s	s	8	3	Capacity	77	1_2	1	2	1	3	23_1_3	0	1	1	0	1.41069102287	26.0	132.0	29.0	134.0	1
3.0.1	2019_Mar_13_1050	s	s	8	3	Capacity	78	1_3	1	3	1	4	23_1_4	0	-1	1	0	0.731389045715	377.0	132.0	380.0	128.0	1
3.0.1	2019_Mar_13_1050	s	s	8	3	Capacity	79	1_4	1	4	1	3	23_1_3	0	1	1	0	0.693247079849	307.0	7.0	314.0	8.0	1
3.0.1	2019_Mar_13_1050	s	s	8	3	Capacity	80	ABS	0	0	1	3	24_1_3	NA	NA	0	1	2.95141601562	None	None	None	None	1
3.0.1	2019_Mar_13_1050	s	s	8	3	Capacity	81	ABS	0	0	1	1	24_1_1	NA	NA	0	1	2.25362682343	None	None	None	None	1
3.0.1	2019_Mar_13_1050	s	s	8	3	Capacity	82	ABS	0	0	1	1	24_1_1	NA	NA	0	1	1.63862204552	None	None	None	None	1
3.0.1	2019_Mar_13_1050	s	s	8	3	Capacity	83	ABS	0	0	1	2	24_1_2	NA	NA	0	1	6.19754910469	None	None	None	None	1
3.0.1	2019_Mar_13_1050	s	s	8	3	Capacity	84	ABS	0	0	1	3	24_1_3	NA	NA	0	1	3.81032800674	None	None	None	None	1
3.0.1	2019_Mar_13_1050	s	s	8	3	Capacity	85	1_4	1	4	1	1	23_1_1	0	3	1	0	0.613796949387	-178.0	-118.0	-173.0	-118.0	1
3.0.1	2019_Mar_13_1050	s	s	8	3	Capacity	86	1_2	1	2	1	1	23_1_1	0	-1	1	0	1.53222298622	-342.0	-256.0	-335.0	-252.0	1
3.0.1	2019_Mar_13_1050	s	s	8	3	Capacity	87	ABS	0	0	1	1	24_1_1	NA	NA	0	1	1.48127198219	None	None	None	None	1
3.0.1	2019_Mar_13_1050	s	s	8	3	Capacity	88	ABS	0	0	1	2	24_1_2	NA	NA	0	1	7.12694692612	None	None	None	None	1
3.0.1	2019_Mar_13_1050	s	s	8	3	Capacity	89	ABS	0	0	1	4	24_1_4	NA	NA	0	1	1.14308595657	None	None	None	None	1
3.0.1	2019_Mar_13_1050	s	s	8	3	Capacity	90	1_3	1	3	1	1	23_1_1	0	2	1	0	1.95689582825	524.0	157.0	527.0	143.0	1
3.0.1	2019_Mar_13_1050	s	s	8	3	Capacity	91	1_3	1	3	1	2	23_1_2	0	1	0	1	6.64865493774	-293.0	-383.0	None	None	0
3.0.1	2019_Mar_13_1050	s	s	8	3	Capacity	92	ABS	0	0	1	4	24_1_4	NA	NA	0	1	0.893195867538	None	None	None	None	1
3.0.1	2019_Mar_13_1050	s	s	8	3	Capacity	93	ABS	0	0	1	4	24_1_4	NA	NA	0	1	2.05751800537	None	None	None	None	1
3.0.1	2019_Mar_13_1050	s	s	8	3	Capacity	94	1_2	1	2	1	4	23_1_4	0	2	1	0	0.619201898575	-176.0	343.0	-176.0	335.0	1
3.0.1	2019_Mar_13_1050	s	s	8	3	Capacity	95	ABS	0	0	1	2	24_1_2	NA	NA	0	1	7.08891105652	None	None	None	None	1
3.0.1	2019_Mar_13_1050	s	s	8	3	Capacity	96	ABS	0	0	1	3	24_1_3	NA	NA	0	1	5.45663619041	None	None	None	None	1
3.0.1	2019_Mar_13_1050	s	s	8	3	SIC	1	ABS	0	0	3	3	24_3_3	NA	NA	0	1	4.79120779037	None	None	None	None	1
3.0.1	2019_Mar_13_1050	s	s	8	3	SIC	2	1_4	1	4	4	2	23_4_2	3	2	1	0	0.704978942871	336.0	144.0	329.0	143.0	1
3.0.1	2019_Mar_13_1050	s	s	8	3	SIC	3	2_1	2	1	3	3	23_3_3	1	2	1	0	0.510629892349	21.0	-277.0	27.0	-279.0	1
3.0.1	2019_Mar_13_1050	s	s	8	3	SIC	4	3_3	3	3	2	2	23_2_2	1	1	1	0	0.540328025818	126.0	-99.0	119.0	-94.0	1
3.0.1	2019_Mar_13_1050	s	s	8	3	SIC	5	4_2	4	2	3	1	23_3_1	1	-1	1	0	0.546976804733	234.0	132.0	230.0	131.0	1
3.0.1	2019_Mar_13_1050	s	s	8	3	SIC	6	ABS	0	0	2	3	24_2_3	NA	NA	0	1	6.18575620651	None	None	None	None	1
3.0.1	2019_Mar_13_1050	s	s	8	3	SIC	7	ABS	0	0	3	1	24_3_1	NA	NA	0	1	2.30451393127	None	None	None	None	1
3.0.1	2019_Mar_13_1050	s	s	8	3	SIC	8	ABS	0	0	3	4	24_3_4	NA	NA	0	1	2.7224957943	None	None	None	None	1
3.0.1	2019_Mar_13_1050	s	s	8	3	SIC	9	ABS	0	0	3	4	24_3_4	NA	NA	0	1	2.73526215553	None	None	None	None	1
3.0.1	2019_Mar_13_1050	s	s	8	3	SIC	10	1_4	1	4	3	4	23_3_4	2	0	1	0	0.599164962769	-353.0	-317.0	-354.0	-313.0	1
3.0.1	2019_Mar_13_1050	s	s	8	3	SIC	11	4_1	4	1	1	3	23_1_3	3	2	1	0	0.540385007858	-417.0	-298.0	-410.0	-297.0	1
3.0.1	2019_Mar_13_1050	s	s	8	3	SIC	12	3_1	3	1	4	1	23_4_1	-1	0	1	0	0.427987098694	271.0	285.0	278.0	278.0	1
3.0.1	2019_Mar_13_1050	s	s	8	3	SIC	13	4_3	4	3	4	1	23_4_1	0	2	1	0	0.810763835907	155.0	114.0	162.0	114.0	1
3.0.1	2019_Mar_13_1050	s	s	8	3	SIC	14	3_2	3	2	2	4	23_2_4	1	2	1	0	0.511004209518	267.0	131.0	264.0	128.0	1
3.0.1	2019_Mar_13_1050	s	s	8	3	SIC	15	ABS	0	0	4	1	24_4_1	NA	NA	0	1	4.43717503548	None	None	None	None	1
3.0.1	2019_Mar_13_1050	s	s	8	3	SIC	16	4_2	4	2	2	3	23_2_3	2	1	1	0	0.510224103928	-135.0	390.0	-143.0	391.0	1
3.0.1	2019_Mar_13_1050	s	s	8	3	SIC	17	1_1	1	1	1	2	23_1_2	0	1	1	0	3.88043093681	178.0	-124.0	177.0	-128.0	1
3.0.1	2019_Mar_13_1050	s	s	8	3	SIC	18	ABS	0	0	3	3	24_3_3	NA	NA	0	1	4.94424200058	None	None	None	None	1
3.0.1	2019_Mar_13_1050	s	s	8	3	SIC	19	2_3	2	3	2	2	23_2_2	0	1	0	1	9.73759198189	-22.0	-4.0	None	None	0
3.0.1	2019_Mar_13_1050	s	s	8	3	SIC	20	4_2	4	2	2	1	23_2_1	2	-1	1	0	0.520343065262	149.0	-223.0	147.0	-224.0	1
3.0.1	2019_Mar_13_1050	s	s	8	3	SIC	21	4_4	4	4	2	4	23_2_4	2	0	1	0	0.442927837372	395.0	-347.0	397.0	-353.0	1
3.0.1	2019_Mar_13_1050	s	s	8	3	SIC	22	3_1	3	1	1	2	23_1_2	2	1	1	0	2.95771002769	39.0	407.0	40.0	402.0	1
3.0.1	2019_Mar_13_1050	s	s	8	3	SIC	23	ABS	0	0	2	1	24_2_1	NA	NA	0	1	4.85397577286	None	None	None	None	1
3.0.1	2019_Mar_13_1050	s	s	8	3	SIC	24	2_2	2	2	4	1	23_4_1	2	-1	1	0	0.437379837036	240.0	-174.0	235.0	-181.0	1
3.0.1	2019_Mar_13_1050	s	s	8	3	SIC	25	3_1	3	1	2	4	23_2_4	1	3	1	0	0.437402963638	-254.0	-62.0	-251.0	-69.0	1
3.0.1	2019_Mar_13_1050	s	s	8	3	SIC	26	ABS	0	0	4	2	24_4_2	NA	NA	0	1	5.5858631134	None	None	None	None	1
3.0.1	2019_Mar_13_1050	s	s	8	3	SIC	27	ABS	0	0	1	4	24_1_4	NA	NA	0	1	1.85449695587	None	None	None	None	1
3.0.1	2019_Mar_13_1050	s	s	8	3	SIC	28	ABS	0	0	1	4	24_1_4	NA	NA	0	1	1.3048620224	None	None	None	None	1
3.0.1	2019_Mar_13_1050	s	s	8	3	SIC	29	1_3	1	3	4	2	23_4_2	3	1	1	0	0.469746112823	-470.0	-70.0	-474.0	-76.0	1
3.0.1	2019_Mar_13_1050	s	s	8	3	SIC	30	2_1	2	1	2	4	23_2_4	0	3	1	0	0.509991168976	310.0	146.0	315.0	148.0	1
3.0.1	2019_Mar_13_1050	s	s	8	3	SIC	31	1_3	1	3	4	3	23_4_3	3	0	1	0	0.410974979401	285.0	300.0	283.0	303.0	1
3.0.1	2019_Mar_13_1050	s	s	8	3	SIC	32	ABS	0	0	1	4	24_1_4	NA	NA	0	1	1.33363604546	None	None	None	None	1
3.0.1	2019_Mar_13_1050	s	s	8	3	SIC	33	ABS	0	0	3	3	24_3_3	NA	NA	0	1	2.69789099693	None	None	None	None	1
3.0.1	2019_Mar_13_1050	s	s	8	3	SIC	34	2_3	2	3	1	3	23_1_3	-1	0	1	0	0.978777885437	41.0	43.0	49.0	46.0	1
3.0.1	2019_Mar_13_1050	s	s	8	3	SIC	35	ABS	0	0	3	4	24_3_4	NA	NA	0	1	2.58153510094	None	None	None	None	1
3.0.1	2019_Mar_13_1050	s	s	8	3	SIC	36	4_3	4	3	1	3	23_1_3	3	0	1	0	0.622762918472	240.0	-212.0	248.0	-213.0	1
3.0.1	2019_Mar_13_1050	s	s	8	3	SIC	37	1_3	1	3	1	1	23_1_1	0	2	1	0	1.02935791016	-193.0	-203.0	-195.0	-202.0	1
3.0.1	2019_Mar_13_1050	s	s	8	3	SIC	38	1_1	1	1	1	4	23_1_4	0	3	1	0	0.657968044281	-476.0	265.0	-472.0	257.0	1
3.0.1	2019_Mar_13_1050	s	s	8	3	SIC	39	ABS	0	0	4	3	24_4_3	NA	NA	0	1	4.85662293434	None	None	None	None	1
3.0.1	2019_Mar_13_1050	s	s	8	3	SIC	40	ABS	0	0	4	2	24_4_2	NA	NA	0	1	7.70289897919	None	None	None	None	1
3.0.1	2019_Mar_13_1050	s	s	8	3	SIC	41	1_1	1	1	3	2	23_3_2	2	1	1	0	0.881374120712	185.0	-4.0	183.0	-6.0	1
3.0.1	2019_Mar_13_1050	s	s	8	3	SIC	42	ABS	0	0	4	3	24_4_3	NA	NA	0	1	4.90667891502	None	None	None	None	1
3.0.1	2019_Mar_13_1050	s	s	8	3	SIC	43	ABS	0	0	1	2	24_1_2	NA	NA	0	1	8.37612295151	None	None	None	None	1
3.0.1	2019_Mar_13_1050	s	s	8	3	SIC	44	3_1	3	1	4	3	23_4_3	-1	2	1	0	0.481925010681	-432.0	-62.0	-442.0	-60.0	1
3.0.1	2019_Mar_13_1050	s	s	8	3	SIC	45	ABS	0	0	4	3	24_4_3	NA	NA	0	1	3.80991697311	None	None	None	None	1
3.0.1	2019_Mar_13_1050	s	s	8	3	SIC	46	ABS	0	0	1	2	24_1_2	NA	NA	0	1	7.18543219566	None	None	None	None	1
3.0.1	2019_Mar_13_1050	s	s	8	3	SIC	47	ABS	0	0	1	1	24_1_1	NA	NA	0	1	2.53181099892	None	None	None	None	1
3.0.1	2019_Mar_13_1050	s	s	8	3	SIC	48	ABS	0	0	4	3	24_4_3	NA	NA	0	1	4.20100879669	None	None	None	None	1
3.0.1	2019_Mar_13_1050	s	s	8	3	SIC	49	2_1	2	1	4	4	23_4_4	2	3	1	0	0.716761112213	431.0	-84.0	431.0	-83.0	1
3.0.1	2019_Mar_13_1050	s	s	8	3	SIC	50	3_3	3	3	1	1	23_1_1	2	2	1	0	0.587378978729	338.0	-248.0	339.0	-238.0	1
3.0.1	2019_Mar_13_1050	s	s	8	3	SIC	51	ABS	0	0	4	4	24_4_4	NA	NA	0	1	2.07314300537	None	None	None	None	1
3.0.1	2019_Mar_13_1050	s	s	8	3	SIC	52	ABS	0	0	2	2	24_2_2	NA	NA	0	1	8.47908592224	None	None	None	None	1
3.0.1	2019_Mar_13_1050	s	s	8	3	SIC	53	2_3	2	3	2	1	23_2_1	0	2	1	0	0.799085140228	92.0	53.0	94.0	49.0	1
3.0.1	2019_Mar_13_1050	s	s	8	3	SIC	54	4_3	4	3	1	4	23_1_4	3	-1	1	0	0.496215105057	200.0	-140.0	202.0	-149.0	1
3.0.1	2019_Mar_13_1050	s	s	8	3	SIC	55	ABS	0	0	2	3	24_2_3	NA	NA	0	1	3.78969407082	None	None	None	None	1
3.0.1	2019_Mar_13_1050	s	s	8	3	SIC	56	1_3	1	3	1	4	23_1_4	0	-1	1	0	1.6871201992	27.0	-383.0	25.0	-378.0	1
3.0.1	2019_Mar_13_1050	s	s	8	3	SIC	57	2_4	2	4	1	4	23_1_4	-1	0	1	0	1.23937487602	205.0	221.0	202.0	218.0	1
3.0.1	2019_Mar_13_1050	s	s	8	3	SIC	58	3_3	3	3	4	3	23_4_3	-1	0	1	0	0.505009889603	-233.0	139.0	-231.0	132.0	1
3.0.1	2019_Mar_13_1050	s	s	8	3	SIC	59	ABS	0	0	2	4	24_2_4	NA	NA	0	1	3.28064608574	None	None	None	None	1
3.0.1	2019_Mar_13_1050	s	s	8	3	SIC	60	ABS	0	0	3	1	24_3_1	NA	NA	0	1	2.78958320618	None	None	None	None	1
3.0.1	2019_Mar_13_1050	s	s	8	3	SIC	61	3_4	3	4	2	2	23_2_2	1	2	1	0	0.587373971939	-138.0	258.0	-139.0	262.0	1
3.0.1	2019_Mar_13_1050	s	s	8	3	SIC	62	ABS	0	0	1	3	24_1_3	NA	NA	0	1	3.44281387329	None	None	None	None	1
3.0.1	2019_Mar_13_1050	s	s	8	3	SIC	63	3_1	3	1	2	3	23_2_3	1	2	1	0	0.716801166534	-464.0	-403.0	-461.0	-403.0	1
3.0.1	2019_Mar_13_1050	s	s	8	3	SIC	64	ABS	0	0	4	4	24_4_4	NA	NA	0	1	1.91644787788	None	None	None	None	1
3.0.1	2019_Mar_13_1050	s	s	8	3	SIC	65	4_1	4	1	4	3	23_4_3	0	2	1	0	1.31945705414	135.0	-267.0	137.0	-280.0	1
3.0.1	2019_Mar_13_1050	s	s	8	3	SIC	66	1_2	1	2	3	1	23_3_1	2	-1	1	0	0.469763994217	415.0	-266.0	410.0	-257.0	1
3.0.1	2019_Mar_13_1050	s	s	8	3	SIC	67	2_2	2	2	1	1	23_1_1	-1	-1	1	0	2.48760986328	-419.0	-193.0	-416.0	-193.0	1
3.0.1	2019_Mar_13_1050	s	s	8	3	SIC	68	ABS	0	0	2	3	24_2_3	NA	NA	0	1	4.48575687408	None	None	None	None	1
3.0.1	2019_Mar_13_1050	s	s	8	3	SIC	69	3_3	3	3	4	2	23_4_2	-1	1	1	0	0.487819910049	-51.0	346.0	-47.0	347.0	1
3.0.1	2019_Mar_13_1050	s	s	8	3	SIC	70	ABS	0	0	4	1	24_4_1	NA	NA	0	1	2.48377513885	None	None	None	None	1
3.0.1	2019_Mar_13_1050	s	s	8	3	SIC	71	2_1	2	1	1	2	23_1_2	-1	1	1	0	2.67523002625	-24.0	-206.0	-16.0	-205.0	1
3.0.1	2019_Mar_13_1050	s	s	8	3	SIC	72	ABS	0	0	3	2	24_3_2	NA	NA	0	1	5.29179406166	None	None	None	None	1
3.0.1	2019_Mar_13_1050	s	s	8	3	SIC	73	3_4	3	4	1	1	23_1_1	2	3	1	0	0.544876098633	508.0	-83.0	514.0	-75.0	1
3.0.1	2019_Mar_13_1050	s	s	8	3	SIC	74	3_1	3	1	1	3	23_1_3	2	2	1	0	0.503148078918	-388.0	139.0	-385.0	149.0	1
3.0.1	2019_Mar_13_1050	s	s	8	3	SIC	75	ABS	0	0	1	1	24_1_1	NA	NA	0	1	2.79062700272	None	None	None	None	1
3.0.1	2019_Mar_13_1050	s	s	8	3	SIC	76	ABS	0	0	4	1	24_4_1	NA	NA	0	1	1.99128103256	None	None	None	None	1
3.0.1	2019_Mar_13_1050	s	s	8	3	SIC	77	ABS	0	0	2	2	24_2_2	NA	NA	0	1	6.03273701668	None	None	None	None	1
3.0.1	2019_Mar_13_1050	s	s	8	3	SIC	78	1_2	1	2	3	2	23_3_2	2	0	1	0	0.55503988266	32.0	-288.0	37.0	-284.0	1
3.0.1	2019_Mar_13_1050	s	s	8	3	SIC	79	2_3	2	3	3	2	23_3_2	1	1	1	0	0.716738939285	487.0	-222.0	499.0	-214.0	1
3.0.1	2019_Mar_13_1050	s	s	8	3	SIC	80	3_3	3	3	4	1	23_4_1	-1	2	1	0	0.849030017853	-198.0	-177.0	-200.0	-176.0	1
3.0.1	2019_Mar_13_1050	s	s	8	3	SIC	81	4_4	4	4	2	2	23_2_2	2	2	1	0	0.437741994858	-288.0	-369.0	-283.0	-374.0	1
3.0.1	2019_Mar_13_1050	s	s	8	3	SIC	82	ABS	0	0	2	2	24_2_2	NA	NA	0	1	7.02070689201	None	None	None	None	1
3.0.1	2019_Mar_13_1050	s	s	8	3	SIC	83	4_3	4	3	2	1	23_2_1	2	2	1	0	0.434477090836	330.0	-338.0	334.0	-338.0	1
3.0.1	2019_Mar_13_1050	s	s	8	3	SIC	84	ABS	0	0	4	3	24_4_3	NA	NA	0	1	3.82697701454	None	None	None	None	1
3.0.1	2019_Mar_13_1050	s	s	8	3	SIC	85	3_1	3	1	1	1	23_1_1	2	0	1	0	0.474925041199	-195.0	-109.0	-189.0	-113.0	1
3.0.1	2019_Mar_13_1050	s	s	8	3	SIC	86	ABS	0	0	4	2	24_4_2	NA	NA	0	1	5.57715010643	None	None	None	None	1
3.0.1	2019_Mar_13_1050	s	s	8	3	SIC	87	ABS	0	0	4	4	24_4_4	NA	NA	0	1	1.45151400566	None	None	None	None	1
3.0.1	2019_Mar_13_1050	s	s	8	3	SIC	88	ABS	0	0	2	2	24_2_2	NA	NA	0	1	10.4902398586	None	None	None	None	1
3.0.1	2019_Mar_13_1050	s	s	8	3	SIC	89	2_2	2	2	4	2	23_4_2	2	0	1	0	0.528573989868	444.0	-279.0	450.0	-274.0	1
3.0.1	2019_Mar_13_1050	s	s	8	3	SIC	90	4_4	4	4	4	3	23_4_3	0	1	1	0	0.657936096191	65.0	261.0	66.0	260.0	1
3.0.1	2019_Mar_13_1050	s	s	8	3	SIC	91	ABS	0	0	4	4	24_4_4	NA	NA	0	1	1.36361503601	None	None	None	None	1
3.0.1	2019_Mar_13_1050	s	s	8	3	SIC	92	ABS	0	0	3	4	24_3_4	NA	NA	0	1	1.16957092285	None	None	None	None	1
3.0.1	2019_Mar_13_1050	s	s	8	3	SIC	93	1_2	1	2	1	4	23_1_4	0	2	1	0	0.516740083694	122.0	106.0	117.0	109.0	1
3.0.1	2019_Mar_13_1050	s	s	8	3	SIC	94	ABS	0	0	3	4	24_3_4	NA	NA	0	1	1.18719911575	None	None	None	None	1
3.0.1	2019_Mar_13_1050	s	s	8	3	SIC	95	2_2	2	2	3	3	23_3_3	1	1	1	0	0.869719982147	6.0	197.0	11.0	200.0	1
3.0.1	2019_Mar_13_1050	s	s	8	3	SIC	96	3_2	3	2	4	1	23_4_1	-1	-1	1	0	0.481820821762	-376.0	-300.0	-370.0	-301.0	1
3.0.1	2019_Mar_13_1050	s	s	8	3	SIC	97	4_1	4	1	1	2	23_1_2	3	1	1	0	0.592262983322	-161.0	144.0	-151.0	142.0	1
3.0.1	2019_Mar_13_1050	s	s	8	3	SIC	98	4_2	4	2	4	4	23_4_4	0	2	1	0	0.516798973083	-137.0	228.0	-132.0	219.0	1
3.0.1	2019_Mar_13_1050	s	s	8	3	SIC	99	2_4	2	4	3	1	23_3_1	1	3	1	0	0.516778945923	514.0	-103.0	512.0	-104.0	1
3.0.1	2019_Mar_13_1050	s	s	8	3	SIC	100	ABS	0	0	3	2	24_3_2	NA	NA	0	1	6.60022306442	None	None	None	None	1
3.0.1	2019_Mar_13_1050	s	s	8	3	SIC	101	ABS	0	0	3	3	24_3_3	NA	NA	0	1	6.34129285812	None	None	None	None	1
3.0.1	2019_Mar_13_1050	s	s	8	3	SIC	102	ABS	0	0	1	4	24_1_4	NA	NA	0	1	3.06904387474	None	None	None	None	1
3.0.1	2019_Mar_13_1050	s	s	8	3	SIC	103	4_3	4	3	3	3	23_3_3	1	0	1	0	0.497181892395	-48.0	79.0	-38.0	80.0	1
3.0.1	2019_Mar_13_1050	s	s	8	3	SIC	104	ABS	0	0	2	3	24_2_3	NA	NA	0	1	6.89624404907	None	None	None	None	1
3.0.1	2019_Mar_13_1050	s	s	8	3	SIC	105	1_2	1	2	2	3	23_2_3	1	1	1	0	0.693233013153	276.0	-192.0	270.0	-189.0	1
3.0.1	2019_Mar_13_1050	s	s	8	3	SIC	106	1_4	1	4	2	3	23_2_3	1	1	1	0	0.723061800003	194.0	351.0	189.0	347.0	1
3.0.1	2019_Mar_13_1050	s	s	8	3	SIC	107	1_4	1	4	4	4	23_4_4	3	0	1	0	0.403387069702	-417.0	77.0	-410.0	78.0	1
3.0.1	2019_Mar_13_1050	s	s	8	3	SIC	108	ABS	0	0	1	4	24_1_4	NA	NA	0	1	1.1430709362	None	None	None	None	1
3.0.1	2019_Mar_13_1050	s	s	8	3	SIC	109	ABS	0	0	4	2	24_4_2	NA	NA	0	1	5.43581080437	None	None	None	None	1
3.0.1	2019_Mar_13_1050	s	s	8	3	SIC	110	ABS	0	0	4	1	24_4_1	NA	NA	0	1	2.41532421112	None	None	None	None	1
3.0.1	2019_Mar_13_1050	s	s	8	3	SIC	111	ABS	0	0	2	4	24_2_4	NA	NA	0	1	3.92075395584	None	None	None	None	1
3.0.1	2019_Mar_13_1050	s	s	8	3	SIC	112	ABS	0	0	2	3	24_2_3	NA	NA	0	1	3.56309008598	None	None	None	None	1
3.0.1	2019_Mar_13_1050	s	s	8	3	SIC	113	ABS	0	0	1	2	24_1_2	NA	NA	0	1	8.40852212906	None	None	None	None	1
3.0.1	2019_Mar_13_1050	s	s	8	3	SIC	114	2_4	2	4	1	2	23_1_2	-1	2	1	0	0.74028301239	320.0	-312.0	320.0	-309.0	1
3.0.1	2019_Mar_13_1050	s	s	8	3	SIC	115	ABS	0	0	2	3	24_2_3	NA	NA	0	1	5.62117409706	None	None	None	None	1
3.0.1	2019_Mar_13_1050	s	s	8	3	SIC	116	2_4	2	4	2	1	23_2_1	0	3	1	0	0.613829135895	-164.0	-171.0	-160.0	-172.0	1
3.0.1	2019_Mar_13_1050	s	s	8	3	SIC	117	1_2	1	2	3	4	23_3_4	2	2	1	0	0.552477121353	-11.0	146.0	-8.0	143.0	1
3.0.1	2019_Mar_13_1050	s	s	8	3	SIC	118	3_4	3	4	1	3	23_1_3	2	1	1	0	0.501591920853	288.0	284.0	292.0	274.0	1
3.0.1	2019_Mar_13_1050	s	s	8	3	SIC	119	3_4	3	4	1	4	23_1_4	2	0	1	0	0.402228116989	185.0	82.0	183.0	84.0	1
3.0.1	2019_Mar_13_1050	s	s	8	3	SIC	120	1_4	1	4	3	3	23_3_3	2	1	1	0	0.417223930359	-3.0	79.0	0.0	80.0	1
3.0.1	2019_Mar_13_1050	s	s	8	3	SIC	121	3_3	3	3	2	3	23_2_3	1	0	1	0	0.446173191071	226.0	242.0	234.0	244.0	1
3.0.1	2019_Mar_13_1050	s	s	8	3	SIC	122	4_3	4	3	1	2	23_1_2	3	1	1	0	0.403160095215	-197.0	149.0	-188.0	148.0	1
3.0.1	2019_Mar_13_1050	s	s	8	3	SIC	123	ABS	0	0	4	4	24_4_4	NA	NA	0	1	0.957715034485	None	None	None	None	1
3.0.1	2019_Mar_13_1050	s	s	8	3	SIC	124	3_1	3	1	4	2	23_4_2	-1	1	1	0	0.638768911362	-523.0	330.0	-520.0	330.0	1
3.0.1	2019_Mar_13_1050	s	s	8	3	SIC	125	3_2	3	2	1	4	23_1_4	2	2	1	0	0.463630914688	-207.0	294.0	-201.0	285.0	1
3.0.1	2019_Mar_13_1050	s	s	8	3	SIC	126	ABS	0	0	2	1	24_2_1	NA	NA	0	1	4.38624286652	None	None	None	None	1
3.0.1	2019_Mar_13_1050	s	s	8	3	SIC	127	2_2	2	2	2	3	23_2_3	0	1	1	0	2.1929090023	481.0	-384.0	479.0	-382.0	1
3.0.1	2019_Mar_13_1050	s	s	8	3	SIC	128	2_4	2	4	2	2	23_2_2	0	2	1	0	0.521198034286	-272.0	-28.0	-266.0	-23.0	1
3.0.1	2019_Mar_13_1050	s	s	8	3	SIC	129	2_3	2	3	1	1	23_1_1	-1	2	1	0	0.857871055603	13.0	330.0	11.0	329.0	1
3.0.1	2019_Mar_13_1050	s	s	8	3	SIC	130	2_1	2	1	1	3	23_1_3	-1	2	1	0	1.44354009628	-222.0	-213.0	-222.0	-221.0	1
3.0.1	2019_Mar_13_1050	s	s	8	3	SIC	131	3_2	3	2	3	3	23_3_3	0	1	1	0	1.80467915535	-249.0	105.0	-241.0	112.0	1
3.0.1	2019_Mar_13_1050	s	s	8	3	SIC	132	ABS	0	0	4	3	24_4_3	NA	NA	0	1	3.90690588951	None	None	None	None	1
3.0.1	2019_Mar_13_1050	s	s	8	3	SIC	133	ABS	0	0	4	1	24_4_1	NA	NA	0	1	2.57501316071	None	None	None	None	1
3.0.1	2019_Mar_13_1050	s	s	8	3	SIC	134	ABS	0	0	1	1	24_1_1	NA	NA	0	1	4.36267805099	None	None	None	None	1
3.0.1	2019_Mar_13_1050	s	s	8	3	SIC	135	2_3	2	3	1	2	23_1_2	-1	1	1	0	1.6391980648	139.0	-83.0	142.0	-80.0	1
3.0.1	2019_Mar_13_1050	s	s	8	3	SIC	136	4_1	4	1	1	4	23_1_4	3	3	1	0	0.469706058502	197.0	-33.0	199.0	-42.0	1
3.0.1	2019_Mar_13_1050	s	s	8	3	SIC	137	ABS	0	0	3	1	24_3_1	NA	NA	0	1	2.25119709969	None	None	None	None	1
3.0.1	2019_Mar_13_1050	s	s	8	3	SIC	138	3_4	3	4	2	4	23_2_4	1	0	1	0	0.669768095016	215.0	-135.0	221.0	-144.0	1
3.0.1	2019_Mar_13_1050	s	s	8	3	SIC	139	ABS	0	0	3	1	24_3_1	NA	NA	0	1	2.18696594238	None	None	None	None	1
3.0.1	2019_Mar_13_1050	s	s	8	3	SIC	140	1_4	1	4	2	2	23_2_2	1	2	1	0	0.564024925232	-257.0	286.0	-262.0	280.0	1
3.0.1	2019_Mar_13_1050	s	s	8	3	SIC	141	4_4	4	4	1	3	23_1_3	3	1	1	0	0.45790886879	-162.0	-225.0	-150.0	-224.0	1
3.0.1	2019_Mar_13_1050	s	s	8	3	SIC	142	4_3	4	3	2	2	23_2_2	2	1	1	0	0.42268204689	-473.0	317.0	-480.0	325.0	1
3.0.1	2019_Mar_13_1050	s	s	8	3	SIC	143	4_4	4	4	2	3	23_2_3	2	1	1	0	0.378600120544	99.0	-360.0	101.0	-364.0	1
3.0.1	2019_Mar_13_1050	s	s	8	3	SIC	144	2_2	2	2	2	1	23_2_1	0	-1	1	0	1.58703398705	-23.0	325.0	-30.0	323.0	1
3.0.1	2019_Mar_13_1050	s	s	8	3	SIC	145	2_1	2	1	4	1	23_4_1	2	0	1	0	0.45796084404	-125.0	105.0	-122.0	107.0	1
3.0.1	2019_Mar_13_1050	s	s	8	3	SIC	146	ABS	0	0	1	2	24_1_2	NA	NA	0	1	6.43559193611	None	None	None	None	1
3.0.1	2019_Mar_13_1050	s	s	8	3	SIC	147	4_1	4	1	3	1	23_3_1	1	0	1	0	0.446202039719	-486.0	-93.0	-488.0	-99.0	1
3.0.1	2019_Mar_13_1050	s	s	8	3	SIC	148	4_1	4	1	2	3	23_2_3	2	2	1	0	0.399152994156	-372.0	-62.0	-368.0	-65.0	1
3.0.1	2019_Mar_13_1050	s	s	8	3	SIC	149	4_2	4	2	2	4	23_2_4	2	2	1	0	0.366682052612	-522.0	52.0	-527.0	50.0	1
3.0.1	2019_Mar_13_1050	s	s	8	3	SIC	150	1_3	1	3	2	4	23_2_4	1	-1	1	0	0.974082946777	-157.0	-412.0	-155.0	-411.0	1
3.0.1	2019_Mar_13_1050	s	s	8	3	SIC	151	ABS	0	0	1	2	24_1_2	NA	NA	0	1	6.17875599861	None	None	None	None	1
3.0.1	2019_Mar_13_1050	s	s	8	3	SIC	152	ABS	0	0	3	3	24_3_3	NA	NA	0	1	4.44528794289	None	None	None	None	1
3.0.1	2019_Mar_13_1050	s	s	8	3	SIC	153	ABS	0	0	2	1	24_2_1	NA	NA	0	1	7.01186919212	None	None	None	None	1
3.0.1	2019_Mar_13_1050	s	s	8	3	SIC	154	1_4	1	4	1	3	23_1_3	0	1	1	0	0.646151781082	333.0	43.0	333.0	31.0	1
3.0.1	2019_Mar_13_1050	s	s	8	3	SIC	155	ABS	0	0	2	3	24_2_3	NA	NA	0	1	3.73593997955	None	None	None	None	1
3.0.1	2019_Mar_13_1050	s	s	8	3	SIC	156	3_1	3	1	3	4	23_3_4	0	3	1	0	0.486731052399	4.0	-23.0	4.0	-22.0	1
3.0.1	2019_Mar_13_1050	s	s	8	3	SIC	157	1_3	1	3	2	3	23_2_3	1	0	1	0	2.22220611572	-399.0	239.0	-405.0	230.0	1
3.0.1	2019_Mar_13_1050	s	s	8	3	SIC	158	ABS	0	0	2	3	24_2_3	NA	NA	0	1	4.1340200901	None	None	None	None	1
3.0.1	2019_Mar_13_1050	s	s	8	3	SIC	159	ABS	0	0	3	1	24_3_1	NA	NA	0	1	2.78128504753	None	None	None	None	1
3.0.1	2019_Mar_13_1050	s	s	8	3	SIC	160	1_3	1	3	1	2	23_1_2	0	1	1	0	2.73973608017	-342.0	-123.0	-333.0	-119.0	1
3.0.1	2019_Mar_13_1050	s	s	8	3	SIC	161	ABS	0	0	2	4	24_2_4	NA	NA	0	1	1.67878079414	None	None	None	None	1
3.0.1	2019_Mar_13_1050	s	s	8	3	SIC	162	ABS	0	0	1	1	24_1_1	NA	NA	0	1	3.61288094521	None	None	None	None	1
3.0.1	2019_Mar_13_1050	s	s	8	3	SIC	163	ABS	0	0	2	3	24_2_3	NA	NA	0	1	5.15073394775	None	None	None	None	1
3.0.1	2019_Mar_13_1050	s	s	8	3	SIC	164	2_4	2	4	1	1	23_1_1	-1	3	1	0	0.575597047806	-204.0	-166.0	-211.0	-158.0	1
3.0.1	2019_Mar_13_1050	s	s	8	3	SIC	165	ABS	0	0	3	2	24_3_2	NA	NA	0	1	6.85238003731	None	None	None	None	1
3.0.1	2019_Mar_13_1050	s	s	8	3	SIC	166	2_2	2	2	1	4	23_1_4	-1	2	1	0	0.881403923035	387.0	381.0	391.0	377.0	1
3.0.1	2019_Mar_13_1050	s	s	8	3	SIC	167	4_4	4	4	1	2	23_1_2	3	2	1	0	0.446268081665	-160.0	-167.0	-165.0	-172.0	1
3.0.1	2019_Mar_13_1050	s	s	8	3	SIC	168	4_2	4	2	3	4	23_3_4	1	2	1	0	0.540625095367	264.0	226.0	258.0	226.0	1
3.0.1	2019_Mar_13_1050	s	s	8	3	SIC	169	3_3	3	3	1	4	23_1_4	2	-1	1	0	0.481605768204	-8.0	-42.0	-3.0	-42.0	1
3.0.1	2019_Mar_13_1050	s	s	8	3	SIC	170	4_1	4	1	3	2	23_3_2	1	1	1	0	0.399198055267	536.0	-211.0	534.0	-208.0	1
3.0.1	2019_Mar_13_1050	s	s	8	3	SIC	171	4_3	4	3	4	4	23_4_4	0	-1	1	0	0.627918958664	-346.0	-114.0	-343.0	-107.0	1
3.0.1	2019_Mar_13_1050	s	s	8	3	SIC	172	ABS	0	0	1	4	24_1_4	NA	NA	0	1	3.92763113976	None	None	None	None	1
3.0.1	2019_Mar_13_1050	s	s	8	3	SIC	173	ABS	0	0	4	1	24_4_1	NA	NA	0	1	3.01017904282	None	None	None	None	1
3.0.1	2019_Mar_13_1050	s	s	8	3	SIC	174	3_2	3	2	2	3	23_2_3	1	1	1	0	0.555043935776	-533.0	208.0	-533.0	203.0	1
3.0.1	2019_Mar_13_1050	s	s	8	3	SIC	175	ABS	0	0	4	1	24_4_1	NA	NA	0	1	2.39312005043	None	None	None	None	1
3.0.1	2019_Mar_13_1050	s	s	8	3	SIC	176	ABS	0	0	2	1	24_2_1	NA	NA	0	1	4.4362590313	None	None	None	None	1
3.0.1	2019_Mar_13_1050	s	s	8	3	SIC	177	4_2	4	2	3	3	23_3_3	1	1	1	0	0.486353158951	393.0	230.0	393.0	229.0	1
3.0.1	2019_Mar_13_1050	s	s	8	3	SIC	178	1_2	1	2	4	4	23_4_4	3	2	1	0	0.387438058853	235.0	-326.0	227.0	-316.0	1
3.0.1	2019_Mar_13_1050	s	s	8	3	SIC	179	ABS	0	0	3	4	24_3_4	NA	NA	0	1	1.4381108284	None	None	None	None	1
3.0.1	2019_Mar_13_1050	s	s	8	3	SIC	180	3_4	3	4	4	1	23_4_1	-1	3	1	0	0.437339067459	269.0	-210.0	263.0	-202.0	1
3.0.1	2019_Mar_13_1050	s	s	8	3	SIC	181	ABS	0	0	4	4	24_4_4	NA	NA	0	1	1.53334593773	None	None	None	None	1
3.0.1	2019_Mar_13_1050	s	s	8	3	SIC	182	ABS	0	0	1	4	24_1_4	NA	NA	0	1	3.02200198174	None	None	None	None	1
3.0.1	2019_Mar_13_1050	s	s	8	3	SIC	183	3_2	3	2	1	3	23_1_3	2	1	1	0	0.481580018997	-40.0	12.0	-46.0	13.0	1
3.0.1	2019_Mar_13_1050	s	s	8	3	SIC	184	3_2	3	2	4	4	23_4_4	-1	2	1	0	0.446202039719	-40.0	209.0	-42.0	217.0	1
3.0.1	2019_Mar_13_1050	s	s	8	3	SIC	185	ABS	0	0	2	4	24_2_4	NA	NA	0	1	4.06861996651	None	None	None	None	1
3.0.1	2019_Mar_13_1050	s	s	8	3	SIC	186	2_3	2	3	4	3	23_4_3	2	0	1	0	0.451364994049	-290.0	-196.0	-297.0	-188.0	1
3.0.1	2019_Mar_13_1050	s	s	8	3	SIC	187	ABS	0	0	3	4	24_3_4	NA	NA	0	1	3.32774496078	None	None	None	None	1
3.0.1	2019_Mar_13_1050	s	s	8	3	SIC	188	ABS	0	0	1	3	24_1_3	NA	NA	0	1	4.33919382095	None	None	None	None	1
3.0.1	2019_Mar_13_1050	s	s	8	3	SIC	189	4_4	4	4	3	3	23_3_3	1	1	1	0	0.451352119446	42.0	-85.0	51.0	-79.0	1
3.0.1	2019_Mar_13_1050	s	s	8	3	SIC	190	4_1	4	1	2	1	23_2_1	2	0	1	0	0.450985908508	260.0	-354.0	255.0	-350.0	1
3.0.1	2019_Mar_13_1050	s	s	8	3	SIC	191	ABS	0	0	2	2	24_2_2	NA	NA	0	1	6.67078900337	None	None	None	None	1
3.0.1	2019_Mar_13_1050	s	s	8	3	SIC	192	ABS	0	0	3	1	24_3_1	NA	NA	0	1	3.88050103188	None	None	None	None	1
3.0.1	2019_Mar_13_1050	s	s	8	3	SIC	193	4_2	4	2	1	2	23_1_2	3	0	1	0	0.486788034439	-540.0	-152.0	-545.0	-156.0	1
3.0.1	2019_Mar_13_1050	s	s	8	3	SIC	194	ABS	0	0	1	1	24_1_1	NA	NA	0	1	2.4955599308	None	None	None	None	1
3.0.1	2019_Mar_13_1050	s	s	8	3	SIC	195	2_2	2	2	3	1	23_3_1	1	-1	1	0	0.578572034836	-180.0	214.0	-181.0	208.0	1
3.0.1	2019_Mar_13_1050	s	s	8	3	SIC	196	ABS	0	0	3	2	24_3_2	NA	NA	0	1	5.87985515594	None	None	None	None	1
3.0.1	2019_Mar_13_1050	s	s	8	3	SIC	197	ABS	0	0	2	4	24_2_4	NA	NA	0	1	3.92755699158	None	None	None	None	1
3.0.1	2019_Mar_13_1050	s	s	8	3	SIC	198	ABS	0	0	3	2	24_3_2	NA	NA	0	1	6.87952494621	None	None	None	None	1
3.0.1	2019_Mar_13_1050	s	s	8	3	SIC	199	ABS	0	0	1	1	24_1_1	NA	NA	0	1	6.00282692909	None	None	None	None	1
3.0.1	2019_Mar_13_1050	s	s	8	3	SIC	200	ABS	0	0	3	3	24_3_3	NA	NA	0	1	6.11516308784	None	None	None	None	1
3.0.1	2019_Mar_13_1050	s	s	8	3	SIC	201	2_4	2	4	3	4	23_3_4	1	0	1	0	0.622682094574	-378.0	-248.0	-373.0	-248.0	1
3.0.1	2019_Mar_13_1050	s	s	8	3	SIC	202	3_3	3	3	2	1	23_2_1	1	2	1	0	0.61795091629	-535.0	-130.0	-537.0	-131.0	1
3.0.1	2019_Mar_13_1050	s	s	8	3	SIC	203	ABS	0	0	2	1	24_2_1	NA	NA	0	1	6.44043707848	None	None	None	None	1
3.0.1	2019_Mar_13_1050	s	s	8	3	SIC	204	ABS	0	0	4	3	24_4_3	NA	NA	0	1	4.88597583771	None	None	None	None	1
3.0.1	2019_Mar_13_1050	s	s	8	3	SIC	205	2_2	2	2	3	4	23_3_4	1	2	1	0	0.698635101318	-448.0	-345.0	-445.0	-349.0	1
3.0.1	2019_Mar_13_1050	s	s	8	3	SIC	206	ABS	0	0	4	4	24_4_4	NA	NA	0	1	3.05180311203	None	None	None	None	1
3.0.1	2019_Mar_13_1050	s	s	8	3	SIC	207	ABS	0	0	2	1	24_2_1	NA	NA	0	1	8.25561404228	None	None	None	None	1
3.0.1	2019_Mar_13_1050	s	s	8	3	SIC	208	ABS	0	0	1	2	24_1_2	NA	NA	0	1	7.56468820572	None	None	None	None	1
3.0.1	2019_Mar_13_1050	s	s	8	3	SIC	209	ABS	0	0	3	1	24_3_1	NA	NA	0	1	6.20920181274	None	None	None	None	1
3.0.1	2019_Mar_13_1050	s	s	8	3	SIC	210	ABS	0	0	1	1	24_1_1	NA	NA	0	1	5.2634139061	None	None	None	None	1
3.0.1	2019_Mar_13_1050	s	s	8	3	SIC	211	ABS	0	0	1	3	24_1_3	NA	NA	0	1	7.86751484871	None	None	None	None	1
3.0.1	2019_Mar_13_1050	s	s	8	3	SIC	212	ABS	0	0	4	4	24_4_4	NA	NA	0	1	3.5913848877	None	None	None	None	1
3.0.1	2019_Mar_13_1050	s	s	8	3	SIC	213	3_3	3	3	3	4	23_3_4	0	-1	1	0	0.70988202095	-538.0	336.0	-541.0	339.0	1
3.0.1	2019_Mar_13_1050	s	s	8	3	SIC	214	ABS	0	0	2	4	24_2_4	NA	NA	0	1	6.33858299255	None	None	None	None	1
3.0.1	2019_Mar_13_1050	s	s	8	3	SIC	215	ABS	0	0	2	2	24_2_2	NA	NA	0	1	9.37294006348	None	None	None	None	1
3.0.1	2019_Mar_13_1050	s	s	8	3	SIC	216	ABS	0	0	4	3	24_4_3	NA	NA	0	1	7.25033187866	None	None	None	None	1
3.0.1	2019_Mar_13_1050	s	s	8	3	SIC	217	4_2	4	2	4	1	23_4_1	0	-1	1	0	2.72154688835	139.0	-92.0	149.0	-90.0	1
3.0.1	2019_Mar_13_1050	s	s	8	3	SIC	218	4_1	4	1	2	4	23_2_4	2	3	1	0	0.51678109169	161.0	287.0	159.0	282.0	1
3.0.1	2019_Mar_13_1050	s	s	8	3	SIC	219	1_1	1	1	4	4	23_4_4	3	3	1	0	0.434446811676	-439.0	-323.0	-443.0	-320.0	1
3.0.1	2019_Mar_13_1050	s	s	8	3	SIC	220	ABS	0	0	4	2	24_4_2	NA	NA	0	1	6.90311598778	None	None	None	None	1
3.0.1	2019_Mar_13_1050	s	s	8	3	SIC	221	3_1	3	1	3	3	23_3_3	0	2	1	0	0.94020986557	-156.0	-211.0	-157.0	-218.0	1
3.0.1	2019_Mar_13_1050	s	s	8	3	SIC	222	ABS	0	0	3	4	24_3_4	NA	NA	0	1	2.00369095802	None	None	None	None	1
3.0.1	2019_Mar_13_1050	s	s	8	3	SIC	223	ABS	0	0	3	2	24_3_2	NA	NA	0	1	6.813808918	None	None	None	None	1
3.0.1	2019_Mar_13_1050	s	s	8	3	SIC	224	1_2	1	2	4	2	23_4_2	3	0	1	0	0.575623989105	-430.0	26.0	-422.0	23.0	1
3.0.1	2019_Mar_13_1050	s	s	8	3	SIC	225	1_3	1	3	4	1	23_4_1	3	2	1	0	0.520861148834	78.0	-387.0	81.0	-392.0	1
3.0.1	2019_Mar_13_1050	s	s	8	3	SIC	226	1_4	1	4	2	1	23_2_1	1	3	1	0	0.622697114944	-181.0	-411.0	-185.0	-407.0	1
3.0.1	2019_Mar_13_1050	s	s	8	3	SIC	227	2_1	2	1	1	1	23_1_1	-1	0	1	0	1.14323401451	-122.0	-151.0	-125.0	-145.0	1
3.0.1	2019_Mar_13_1050	s	s	8	3	SIC	228	ABS	0	0	3	1	24_3_1	NA	NA	0	1	2.54642510414	None	None	None	None	1
3.0.1	2019_Mar_13_1050	s	s	8	3	SIC	229	4_4	4	4	4	2	23_4_2	0	2	1	0	0.528547048569	-253.0	158.0	-250.0	152.0	1
3.0.1	2019_Mar_13_1050	s	s	8	3	SIC	230	4_3	4	3	3	2	23_3_2	1	1	1	0	0.505094051361	-182.0	258.0	-186.0	251.0	1
3.0.1	2019_Mar_13_1050	s	s	8	3	SIC	231	ABS	0	0	3	1	24_3_1	NA	NA	0	1	4.14868712425	None	None	None	None	1
3.0.1	2019_Mar_13_1050	s	s	8	3	SIC	232	ABS	0	0	3	3	24_3_3	NA	NA	0	1	4.46186208725	None	None	None	None	1
3.0.1	2019_Mar_13_1050	s	s	8	3	SIC	233	ABS	0	0	3	4	24_3_4	NA	NA	0	1	3.0693500042	None	None	None	None	1
3.0.1	2019_Mar_13_1050	s	s	8	3	SIC	234	ABS	0	0	1	1	24_1_1	NA	NA	0	1	4.1569070816	None	None	None	None	1
3.0.1	2019_Mar_13_1050	s	s	8	3	SIC	235	ABS	0	0	1	4	24_1_4	NA	NA	0	1	3.84829807281	None	None	None	None	1
3.0.1	2019_Mar_13_1050	s	s	8	3	SIC	236	ABS	0	0	1	1	24_1_1	NA	NA	0	1	3.09752488136	None	None	None	None	1
3.0.1	2019_Mar_13_1050	s	s	8	3	SIC	237	ABS	0	0	3	1	24_3_1	NA	NA	0	1	2.63667297363	None	None	None	None	1
3.0.1	2019_Mar_13_1050	s	s	8	3	SIC	238	ABS	0	0	3	2	24_3_2	NA	NA	0	1	6.24982500076	None	None	None	None	1
3.0.1	2019_Mar_13_1050	s	s	8	3	SIC	239	ABS	0	0	1	3	24_1_3	NA	NA	0	1	5.1862821579	None	None	None	None	1
3.0.1	2019_Mar_13_1050	s	s	8	3	SIC	240	4_3	4	3	1	1	23_1_1	3	2	1	0	0.968728065491	-73.0	132.0	-65.0	129.0	1
3.0.1	2019_Mar_13_1050	s	s	8	3	SIC	241	ABS	0	0	1	3	24_1_3	NA	NA	0	1	4.77474379539	None	None	None	None	1
3.0.1	2019_Mar_13_1050	s	s	8	3	SIC	242	1_1	1	1	3	3	23_3_3	2	2	1	0	0.496198892593	359.0	-184.0	365.0	-187.0	1
3.0.1	2019_Mar_13_1050	s	s	8	3	SIC	243	3_3	3	3	1	3	23_1_3	2	0	1	0	0.517179012299	-3.0	326.0	-10.0	330.0	1
3.0.1	2019_Mar_13_1050	s	s	8	3	SIC	244	ABS	0	0	2	3	24_2_3	NA	NA	0	1	6.29748702049	None	None	None	None	1
3.0.1	2019_Mar_13_1050	s	s	8	3	SIC	245	ABS	0	0	3	2	24_3_2	NA	NA	0	1	5.432929039	None	None	None	None	1
3.0.1	2019_Mar_13_1050	s	s	8	3	SIC	246	ABS	0	0	3	3	24_3_3	NA	NA	0	1	2.98659801483	None	None	None	None	1
3.0.1	2019_Mar_13_1050	s	s	8	3	SIC	247	ABS	0	0	4	2	24_4_2	NA	NA	0	1	5.43316721916	None	None	None	None	1
3.0.1	2019_Mar_13_1050	s	s	8	3	SIC	248	1_4	1	4	3	1	23_3_1	2	3	1	0	0.528517007828	4.0	-177.0	-2.0	-177.0	1
3.0.1	2019_Mar_13_1050	s	s	8	3	SIC	249	ABS	0	0	1	2	24_1_2	NA	NA	0	1	6.00280499458	None	None	None	None	1
3.0.1	2019_Mar_13_1050	s	s	8	3	SIC	250	1_1	1	1	2	4	23_2_4	1	3	1	0	0.486423969269	322.0	-34.0	318.0	-33.0	1
3.0.1	2019_Mar_13_1050	s	s	8	3	SIC	251	3_4	3	4	2	1	23_2_1	1	3	1	0	0.540301084518	162.0	-250.0	166.0	-246.0	1
3.0.1	2019_Mar_13_1050	s	s	8	3	SIC	252	ABS	0	0	4	1	24_4_1	NA	NA	0	1	2.61030578613	None	None	None	None	1
3.0.1	2019_Mar_13_1050	s	s	8	3	SIC	253	1_1	1	1	2	2	23_2_2	1	1	1	0	3.86300611496	-381.0	-412.0	-382.0	-421.0	1
3.0.1	2019_Mar_13_1050	s	s	8	3	SIC	254	2_1	2	1	4	3	23_4_3	2	2	1	0	0.461467027664	114.0	201.0	113.0	197.0	1
3.0.1	2019_Mar_13_1050	s	s	8	3	SIC	255	1_2	1	2	2	2	23_2_2	1	0	1	0	3.97745585442	359.0	379.0	359.0	379.0	1
3.0.1	2019_Mar_13_1050	s	s	8	3	SIC	256	3_4	3	4	4	4	23_4_4	-1	0	1	0	0.469718933105	-36.0	128.0	-35.0	118.0	1
3.0.1	2019_Mar_13_1050	s	s	8	3	SIC	257	1_2	1	2	3	3	23_3_3	2	1	1	0	0.481559038162	-58.0	337.0	-58.0	336.0	1
3.0.1	2019_Mar_13_1050	s	s	8	3	SIC	258	ABS	0	0	1	4	24_1_4	NA	NA	0	1	3.53950405121	None	None	None	None	1
3.0.1	2019_Mar_13_1050	s	s	8	3	SIC	259	ABS	0	0	1	2	24_1_2	NA	NA	0	1	5.4569208622	None	None	None	None	1
3.0.1	2019_Mar_13_1050	s	s	8	3	SIC	260	ABS	0	0	2	4	24_2_4	NA	NA	0	1	4.22665596008	None	None	None	None	1
3.0.1	2019_Mar_13_1050	s	s	8	3	SIC	261	2_4	2	4	4	1	23_4_1	2	3	1	0	0.498558998108	537.0	219.0	547.0	222.0	1
3.0.1	2019_Mar_13_1050	s	s	8	3	SIC	262	3_2	3	2	3	4	23_3_4	0	2	1	0	0.754909038544	233.0	49.0	247.0	57.0	1
3.0.1	2019_Mar_13_1050	s	s	8	3	SIC	263	ABS	0	0	1	1	24_1_1	NA	NA	0	1	4.73568797112	None	None	None	None	1
3.0.1	2019_Mar_13_1050	s	s	8	3	SIC	264	4_2	4	2	1	4	23_1_4	3	2	1	0	0.499277114868	-434.0	182.0	-435.0	178.0	1
3.0.1	2019_Mar_13_1050	s	s	8	3	SIC	265	ABS	0	0	4	4	24_4_4	NA	NA	0	1	3.9656829834	None	None	None	None	1
3.0.1	2019_Mar_13_1050	s	s	8	3	SIC	266	ABS	0	0	1	1	24_1_1	NA	NA	0	1	5.35075807571	None	None	None	None	1
3.0.1	2019_Mar_13_1050	s	s	8	3	SIC	267	1_3	1	3	3	2	23_3_2	2	1	1	0	0.532793998718	304.0	-97.0	302.0	-103.0	1
3.0.1	2019_Mar_13_1050	s	s	8	3	SIC	268	ABS	0	0	4	3	24_4_3	NA	NA	0	1	3.59216284752	None	None	None	None	1
3.0.1	2019_Mar_13_1050	s	s	8	3	SIC	269	2_3	2	3	3	3	23_3_3	1	0	1	0	0.457990169525	304.0	-132.0	297.0	-129.0	1
3.0.1	2019_Mar_13_1050	s	s	8	3	SIC	270	ABS	0	0	4	3	24_4_3	NA	NA	0	1	2.76315307617	None	None	None	None	1
3.0.1	2019_Mar_13_1050	s	s	8	3	SIC	271	ABS	0	0	2	4	24_2_4	NA	NA	0	1	3.44200587273	None	None	None	None	1
3.0.1	2019_Mar_13_1050	s	s	8	3	SIC	272	3_4	3	4	3	2	23_3_2	0	2	1	0	0.815478086472	-394.0	-378.0	-384.0	-374.0	1
3.0.1	2019_Mar_13_1050	s	s	8	3	SIC	273	3_2	3	2	4	2	23_4_2	-1	0	1	0	0.457994937897	-327.0	-409.0	-323.0	-406.0	1
3.0.1	2019_Mar_13_1050	s	s	8	3	SIC	274	ABS	0	0	3	1	24_3_1	NA	NA	0	1	3.41524410248	None	None	None	None	1
3.0.1	2019_Mar_13_1050	s	s	8	3	SIC	275	ABS	0	0	2	1	24_2_1	NA	NA	0	1	6.03735208511	None	None	None	None	1
3.0.1	2019_Mar_13_1050	s	s	8	3	SIC	276	ABS	0	0	3	2	24_3_2	NA	NA	0	1	5.15064191818	None	None	None	None	1
3.0.1	2019_Mar_13_1050	s	s	8	3	SIC	277	3_3	3	3	1	2	23_1_2	2	1	1	0	0.679052829742	-493.0	-335.0	-489.0	-338.0	1
3.0.1	2019_Mar_13_1050	s	s	8	3	SIC	278	ABS	0	0	4	1	24_4_1	NA	NA	0	1	2.43670296669	None	None	None	None	1
3.0.1	2019_Mar_13_1050	s	s	8	3	SIC	279	4_1	4	1	3	4	23_3_4	1	3	1	0	0.547786951065	-306.0	269.0	-296.0	278.0	1
3.0.1	2019_Mar_13_1050	s	s	8	3	SIC	280	ABS	0	0	2	4	24_2_4	NA	NA	0	1	3.26888203621	None	None	None	None	1
3.0.1	2019_Mar_13_1050	s	s	8	3	SIC	281	4_3	4	3	4	2	23_4_2	0	1	1	0	2.81029105186	176.0	-239.0	179.0	-242.0	1
3.0.1	2019_Mar_13_1050	s	s	8	3	SIC	282	ABS	0	0	2	1	24_2_1	NA	NA	0	1	4.01400089264	None	None	None	None	1
3.0.1	2019_Mar_13_1050	s	s	8	3	SIC	283	ABS	0	0	3	1	24_3_1	NA	NA	0	1	2.52812099457	None	None	None	None	1
3.0.1	2019_Mar_13_1050	s	s	8	3	SIC	284	4_1	4	1	2	2	23_2_2	2	1	1	0	0.639590024948	118.0	-326.0	127.0	-325.0	1
3.0.1	2019_Mar_13_1050	s	s	8	3	SIC	285	2_2	2	2	4	3	23_4_3	2	1	1	0	0.441475868225	38.0	-212.0	39.0	-212.0	1
3.0.1	2019_Mar_13_1050	s	s	8	3	SIC	286	ABS	0	0	3	4	24_3_4	NA	NA	0	1	1.43803596497	None	None	None	None	1
3.0.1	2019_Mar_13_1050	s	s	8	3	SIC	287	ABS	0	0	2	1	24_2_1	NA	NA	0	1	3.98669695854	None	None	None	None	1
3.0.1	2019_Mar_13_1050	s	s	8	3	SIC	288	ABS	0	0	2	1	24_2_1	NA	NA	0	1	3.08074402809	None	None	None	None	1
3.0.1	2019_Mar_13_1050	s	s	8	3	SIC	289	1_3	1	3	2	1	23_2_1	1	2	1	0	0.592573165894	-13.0	-205.0	-15.0	-203.0	1
3.0.1	2019_Mar_13_1050	s	s	8	3	SIC	290	2_1	2	1	3	2	23_3_2	1	1	1	0	0.543652057648	454.0	93.0	451.0	79.0	1
3.0.1	2019_Mar_13_1050	s	s	8	3	SIC	291	2_4	2	4	4	4	23_4_4	2	0	1	0	0.356425046921	21.0	249.0	20.0	249.0	1
3.0.1	2019_Mar_13_1050	s	s	8	3	SIC	292	ABS	0	0	4	3	24_4_3	NA	NA	0	1	3.97206306458	None	None	None	None	1
3.0.1	2019_Mar_13_1050	s	s	8	3	SIC	293	ABS	0	0	3	4	24_3_4	NA	NA	0	1	2.27210617065	None	None	None	None	1
3.0.1	2019_Mar_13_1050	s	s	8	3	SIC	294	ABS	0	0	3	3	24_3_3	NA	NA	0	1	4.32734704018	None	None	None	None	1
3.0.1	2019_Mar_13_1050	s	s	8	3	SIC	295	ABS	0	0	4	2	24_4_2	NA	NA	0	1	4.64500617981	None	None	None	None	1
3.0.1	2019_Mar_13_1050	s	s	8	3	SIC	296	4_4	4	4	3	2	23_3_2	1	2	1	0	0.528554201126	497.0	-205.0	497.0	-201.0	1
3.0.1	2019_Mar_13_1050	s	s	8	3	SIC	297	ABS	0	0	2	4	24_2_4	NA	NA	0	1	3.59068989754	None	None	None	None	1
3.0.1	2019_Mar_13_1050	s	s	8	3	SIC	298	ABS	0	0	3	2	24_3_2	NA	NA	0	1	5.41579389572	None	None	None	None	1
3.0.1	2019_Mar_13_1050	s	s	8	3	SIC	299	3_4	3	4	2	3	23_2_3	1	1	1	0	0.54036283493	37.0	113.0	40.0	106.0	1
3.0.1	2019_Mar_13_1050	s	s	8	3	SIC	300	ABS	0	0	1	3	24_1_3	NA	NA	0	1	4.39793014526	None	None	None	None	1
3.0.1	2019_Mar_13_1050	s	s	8	3	SIC	301	ABS	0	0	2	2	24_2_2	NA	NA	0	1	5.99087905884	None	None	None	None	1
3.0.1	2019_Mar_13_1050	s	s	8	3	SIC	302	2_1	2	1	2	3	23_2_3	0	2	1	0	3.57512807846	-336.0	-178.0	-335.0	-178.0	1
3.0.1	2019_Mar_13_1050	s	s	8	3	SIC	303	2_3	2	3	1	4	23_1_4	-1	-1	1	0	0.5336830616	-383.0	-98.0	-377.0	-95.0	1
3.0.1	2019_Mar_13_1050	s	s	8	3	SIC	304	ABS	0	0	3	2	24_3_2	NA	NA	0	1	6.32107186317	None	None	None	None	1
3.0.1	2019_Mar_13_1050	s	s	8	3	SIC	305	4_2	4	2	2	2	23_2_2	2	0	1	0	0.486613035202	216.0	359.0	223.0	369.0	1
3.0.1	2019_Mar_13_1050	s	s	8	3	SIC	306	2_2	2	2	1	2	23_1_2	-1	0	1	0	2.36930298805	485.0	236.0	488.0	239.0	1
3.0.1	2019_Mar_13_1050	s	s	8	3	SIC	307	1_1	1	1	3	4	23_3_4	2	3	1	0	0.474055051804	-111.0	155.0	-120.0	159.0	1
3.0.1	2019_Mar_13_1050	s	s	8	3	SIC	308	4_3	4	3	2	4	23_2_4	2	-1	1	0	0.497092962265	197.0	-49.0	191.0	-46.0	1
3.0.1	2019_Mar_13_1050	s	s	8	3	SIC	309	1_2	1	2	4	1	23_4_1	3	-1	1	0	0.375702142715	-256.0	138.0	-244.0	145.0	1
3.0.1	2019_Mar_13_1050	s	s	8	3	SIC	310	ABS	0	0	2	4	24_2_4	NA	NA	0	1	3.36817097664	None	None	None	None	1
3.0.1	2019_Mar_13_1050	s	s	8	3	SIC	311	ABS	0	0	2	3	24_2_3	NA	NA	0	1	4.12229990959	None	None	None	None	1
3.0.1	2019_Mar_13_1050	s	s	8	3	SIC	312	ABS	0	0	4	4	24_4_4	NA	NA	0	1	1.52823495865	None	None	None	None	1
3.0.1	2019_Mar_13_1050	s	s	8	3	SIC	313	3_1	3	1	2	1	23_2_1	1	0	1	0	0.501179933548	-388.0	-136.0	-385.0	-135.0	1
3.0.1	2019_Mar_13_1050	s	s	8	3	SIC	314	3_4	3	4	4	3	23_4_3	-1	1	1	0	0.474390029907	-394.0	4.0	-386.0	3.0	1
3.0.1	2019_Mar_13_1050	s	s	8	3	SIC	315	ABS	0	0	2	2	24_2_2	NA	NA	0	1	7.37643909454	None	None	None	None	1
3.0.1	2019_Mar_13_1050	s	s	8	3	SIC	316	3_3	3	3	2	4	23_2_4	1	-1	1	0	0.613793849945	304.0	284.0	316.0	285.0	1
3.0.1	2019_Mar_13_1050	s	s	8	3	SIC	317	3_3	3	3	3	1	23_3_1	0	2	1	0	0.804917097092	-399.0	-56.0	-392.0	-53.0	1
3.0.1	2019_Mar_13_1050	s	s	8	3	SIC	318	4_2	4	2	3	2	23_3_2	1	0	1	0	0.363945007324	171.0	182.0	182.0	190.0	1
3.0.1	2019_Mar_13_1050	s	s	8	3	SIC	319	1_1	1	1	3	1	23_3_1	2	0	1	0	0.410950899124	91.0	175.0	87.0	165.0	1
3.0.1	2019_Mar_13_1050	s	s	8	3	SIC	320	4_3	4	3	3	1	23_3_1	1	2	1	0	0.446218967438	347.0	-5.0	356.0	-8.0	1
3.0.1	2019_Mar_13_1050	s	s	8	3	SIC	321	ABS	0	0	3	4	24_3_4	NA	NA	0	1	2.50730395317	None	None	None	None	1
3.0.1	2019_Mar_13_1050	s	s	8	3	SIC	322	4_2	4	2	1	3	23_1_3	3	1	1	0	1.05779290199	398.0	-411.0	397.0	-419.0	1
3.0.1	2019_Mar_13_1050	s	s	8	3	SIC	323	1_3	1	3	3	1	23_3_1	2	2	1	0	0.619411945343	524.0	280.0	521.0	276.0	1
3.0.1	2019_Mar_13_1050	s	s	8	3	SIC	324	ABS	0	0	1	3	24_1_3	NA	NA	0	1	3.37766599655	None	None	None	None	1
3.0.1	2019_Mar_13_1050	s	s	8	3	SIC	325	ABS	0	0	2	2	24_2_2	NA	NA	0	1	5.51981401443	None	None	None	None	1
3.0.1	2019_Mar_13_1050	s	s	8	3	SIC	326	1_2	1	2	2	4	23_2_4	1	2	1	0	0.697895050049	312.0	-199.0	309.0	-195.0	1
3.0.1	2019_Mar_13_1050	s	s	8	3	SIC	327	ABS	0	0	4	3	24_4_3	NA	NA	0	1	2.75138998032	None	None	None	None	1
3.0.1	2019_Mar_13_1050	s	s	8	3	SIC	328	ABS	0	0	3	2	24_3_2	NA	NA	0	1	4.78896594048	None	None	None	None	1
3.0.1	2019_Mar_13_1050	s	s	8	3	SIC	329	2_4	2	4	4	2	23_4_2	2	2	1	0	0.438261032104	92.0	308.0	85.0	303.0	1
3.0.1	2019_Mar_13_1050	s	s	8	3	SIC	330	ABS	0	0	4	3	24_4_3	NA	NA	0	1	3.8569688797	None	None	None	None	1
3.0.1	2019_Mar_13_1050	s	s	8	3	SIC	331	2_3	2	3	2	4	23_2_4	0	-1	1	0	0.737249135971	498.0	53.0	507.0	62.0	1
3.0.1	2019_Mar_13_1050	s	s	8	3	SIC	332	1_3	1	3	3	3	23_3_3	2	0	1	0	0.463295936584	105.0	-201.0	97.0	-194.0	1
3.0.1	2019_Mar_13_1050	s	s	8	3	SIC	333	1_2	1	2	2	1	23_2_1	1	-1	1	0	4.00321698189	-368.0	390.0	-365.0	393.0	1
3.0.1	2019_Mar_13_1050	s	s	8	3	SIC	334	2_1	2	1	2	2	23_2_2	0	1	1	0	4.21261286736	-503.0	-39.0	-502.0	-38.0	1
3.0.1	2019_Mar_13_1050	s	s	8	3	SIC	335	2_4	2	4	2	3	23_2_3	0	1	1	0	0.874611854553	-19.0	-254.0	-25.0	-255.0	1
3.0.1	2019_Mar_13_1050	s	s	8	3	SIC	336	ABS	0	0	2	2	24_2_2	NA	NA	0	1	5.46295905113	None	None	None	None	1
3.0.1	2019_Mar_13_1050	s	s	8	3	SIC	337	ABS	0	0	3	3	24_3_3	NA	NA	0	1	5.09185004234	None	None	None	None	1
3.0.1	2019_Mar_13_1050	s	s	8	3	SIC	338	1_4	1	4	2	4	23_2_4	1	0	1	0	3.33950996399	189.0	149.0	188.0	151.0	1
3.0.1	2019_Mar_13_1050	s	s	8	3	SIC	339	ABS	0	0	2	1	24_2_1	NA	NA	0	1	3.55403208733	None	None	None	None	1
3.0.1	2019_Mar_13_1050	s	s	8	3	SIC	340	ABS	0	0	1	2	24_1_2	NA	NA	0	1	5.77855491638	None	None	None	None	1
3.0.1	2019_Mar_13_1050	s	s	8	3	SIC	341	ABS	0	0	1	2	24_1_2	NA	NA	0	1	6.70742297173	None	None	None	None	1
3.0.1	2019_Mar_13_1050	s	s	8	3	SIC	342	4_1	4	1	1	1	23_1_1	3	0	1	0	0.545781850815	380.0	334.0	388.0	335.0	1
3.0.1	2019_Mar_13_1050	s	s	8	3	SIC	343	ABS	0	0	1	1	24_1_1	NA	NA	0	1	3.19144487381	None	None	None	None	1
3.0.1	2019_Mar_13_1050	s	s	8	3	SIC	344	2_1	2	1	3	1	23_3_1	1	0	1	0	0.5334379673	-191.0	237.0	-192.0	239.0	1
3.0.1	2019_Mar_13_1050	s	s	8	3	SIC	345	2_2	2	2	3	2	23_3_2	1	0	1	0	0.587314844131	289.0	-208.0	294.0	-217.0	1
3.0.1	2019_Mar_13_1050	s	s	8	3	SIC	346	1_4	1	4	4	1	23_4_1	3	3	1	0	0.485980033875	3.0	153.0	-3.0	146.0	1
3.0.1	2019_Mar_13_1050	s	s	8	3	SIC	347	ABS	0	0	2	1	24_2_1	NA	NA	0	1	4.79013800621	None	None	None	None	1
3.0.1	2019_Mar_13_1050	s	s	8	3	SIC	348	ABS	0	0	2	4	24_2_4	NA	NA	0	1	2.02616000175	None	None	None	None	1
3.0.1	2019_Mar_13_1050	s	s	8	3	SIC	349	3_1	3	1	1	4	23_1_4	2	3	1	0	0.657994031906	-256.0	338.0	-251.0	339.0	1
3.0.1	2019_Mar_13_1050	s	s	8	3	SIC	350	1_1	1	1	4	2	23_4_2	3	1	1	0	0.399184942245	-276.0	-13.0	-283.0	-15.0	1
3.0.1	2019_Mar_13_1050	s	s	8	3	SIC	351	2_3	2	3	4	2	23_4_2	2	1	1	0	0.410976886749	-18.0	184.0	-22.0	186.0	1
3.0.1	2019_Mar_13_1050	s	s	8	3	SIC	352	1_1	1	1	2	3	23_2_3	1	2	1	0	0.70498085022	-488.0	-107.0	-495.0	-109.0	1
3.0.1	2019_Mar_13_1050	s	s	8	3	SIC	353	ABS	0	0	1	3	24_1_3	NA	NA	0	1	4.65675497055	None	None	None	None	1
3.0.1	2019_Mar_13_1050	s	s	8	3	SIC	354	ABS	0	0	4	1	24_4_1	NA	NA	0	1	1.91640400887	None	None	None	None	1
3.0.1	2019_Mar_13_1050	s	s	8	3	SIC	355	1_1	1	1	1	3	23_1_3	0	2	1	0	2.8219909668	-290.0	404.0	-290.0	407.0	1
3.0.1	2019_Mar_13_1050	s	s	8	3	SIC	356	ABS	0	0	1	4	24_1_4	NA	NA	0	1	2.54401993752	None	None	None	None	1
3.0.1	2019_Mar_13_1050	s	s	8	3	SIC	357	ABS	0	0	1	1	24_1_1	NA	NA	0	1	2.41550803185	None	None	None	None	1
3.0.1	2019_Mar_13_1050	s	s	8	3	SIC	358	2_1	2	1	1	4	23_1_4	-1	3	1	0	0.90494799614	523.0	-287.0	523.0	-285.0	1
3.0.1	2019_Mar_13_1050	s	s	8	3	SIC	359	3_1	3	1	3	2	23_3_2	0	1	1	0	2.21590900421	194.0	-187.0	186.0	-187.0	1
3.0.1	2019_Mar_13_1050	s	s	8	3	SIC	360	ABS	0	0	2	2	24_2_2	NA	NA	0	1	7.37859010696	None	None	None	None	1
3.0.1	2019_Mar_13_1050	s	s	8	3	SIC	361	2_3	2	3	4	4	23_4_4	2	-1	1	0	0.434508085251	-328.0	5.0	-322.0	-1.0	1
3.0.1	2019_Mar_13_1050	s	s	8	3	SIC	362	3_2	3	2	2	2	23_2_2	1	0	1	0	0.592399835587	137.0	184.0	134.0	179.0	1
3.0.1	2019_Mar_13_1050	s	s	8	3	SIC	363	2_3	2	3	3	4	23_3_4	1	-1	1	0	0.446314096451	-350.0	-249.0	-358.0	-248.0	1
3.0.1	2019_Mar_13_1050	s	s	8	3	SIC	364	4_4	4	4	3	4	23_3_4	1	0	1	0	0.437397003174	-148.0	259.0	-150.0	263.0	1
3.0.1	2019_Mar_13_1050	s	s	8	3	SIC	365	4_4	4	4	1	1	23_1_1	3	3	1	0	0.463223934174	57.0	64.0	58.0	60.0	1
3.0.1	2019_Mar_13_1050	s	s	8	3	SIC	366	2_4	2	4	3	2	23_3_2	1	2	1	0	0.46976685524	357.0	-88.0	356.0	-85.0	1
3.0.1	2019_Mar_13_1050	s	s	8	3	SIC	367	3_3	3	3	3	2	23_3_2	0	1	1	0	1.81059598923	-256.0	134.0	-248.0	128.0	1
3.0.1	2019_Mar_13_1050	s	s	8	3	SIC	368	ABS	0	0	2	4	24_2_4	NA	NA	0	1	2.20789003372	None	None	None	None	1
3.0.1	2019_Mar_13_1050	s	s	8	3	SIC	369	ABS	0	0	2	2	24_2_2	NA	NA	0	1	7.39732694626	None	None	None	None	1
3.0.1	2019_Mar_13_1050	s	s	8	3	SIC	370	1_4	1	4	4	3	23_4_3	3	1	1	0	0.458040952682	-29.0	-333.0	-26.0	-339.0	1
3.0.1	2019_Mar_13_1050	s	s	8	3	SIC	371	ABS	0	0	4	2	24_4_2	NA	NA	0	1	4.35093402863	None	None	None	None	1
3.0.1	2019_Mar_13_1050	s	s	8	3	SIC	372	1_3	1	3	2	2	23_2_2	1	1	1	0	1.88116288185	-171.0	303.0	-170.0	309.0	1
3.0.1	2019_Mar_13_1050	s	s	8	3	SIC	373	ABS	0	0	1	3	24_1_3	NA	NA	0	1	2.56071901321	None	None	None	None	1
3.0.1	2019_Mar_13_1050	s	s	8	3	SIC	374	3_2	3	2	4	3	23_4_3	-1	1	1	0	0.473748922348	-107.0	-161.0	-108.0	-154.0	1
3.0.1	2019_Mar_13_1050	s	s	8	3	SIC	375	ABS	0	0	3	3	24_3_3	NA	NA	0	1	3.68579101562	None	None	None	None	1
3.0.1	2019_Mar_13_1050	s	s	8	3	SIC	376	3_4	3	4	3	1	23_3_1	0	3	1	0	1.41581606865	539.0	298.0	548.0	301.0	1
3.0.1	2019_Mar_13_1050	s	s	8	3	SIC	377	3_2	3	2	1	2	23_1_2	2	0	1	0	0.634464025497	-471.0	-285.0	-472.0	-285.0	1
3.0.1	2019_Mar_13_1050	s	s	8	3	SIC	378	1_3	1	3	4	4	23_4_4	3	-1	1	0	0.780408859253	-216.0	255.0	-219.0	258.0	1
3.0.1	2019_Mar_13_1050	s	s	8	3	SIC	379	ABS	0	0	1	3	24_1_3	NA	NA	0	1	3.86234903336	None	None	None	None	1
3.0.1	2019_Mar_13_1050	s	s	8	3	SIC	380	ABS	0	0	4	1	24_4_1	NA	NA	0	1	2.10759091377	None	None	None	None	1
3.0.1	2019_Mar_13_1050	s	s	8	3	SIC	381	3_2	3	2	2	1	23_2_1	1	-1	1	0	0.804253101349	-56.0	398.0	-55.0	405.0	1
3.0.1	2019_Mar_13_1050	s	s	8	3	SIC	382	ABS	0	0	1	3	24_1_3	NA	NA	0	1	3.44532895088	None	None	None	None	1
3.0.1	2019_Mar_13_1050	s	s	8	3	SIC	383	4_1	4	1	4	2	23_4_2	0	1	1	0	5.39768981934	-448.0	147.0	-450.0	140.0	1
3.0.1	2019_Mar_13_1050	s	s	8	3	SIC	384	1_3	1	3	3	4	23_3_4	2	-1	1	0	0.481512069702	12.0	-245.0	10.0	-237.0	1
3.0.1	2019_Mar_13_1050	s	s	8	3	SIC	385	ABS	0	0	2	1	24_2_1	NA	NA	0	1	3.42185282707	None	None	None	None	1
3.0.1	2019_Mar_13_1050	s	s	8	3	SIC	386	3_4	3	4	3	3	23_3_3	0	1	1	0	1.19012594223	-246.0	400.0	-243.0	402.0	1
3.0.1	2019_Mar_13_1050	s	s	8	3	SIC	387	ABS	0	0	3	4	24_3_4	NA	NA	0	1	2.12810897827	None	None	None	None	1
3.0.1	2019_Mar_13_1050	s	s	8	3	SIC	388	1_1	1	1	2	1	23_2_1	1	0	1	0	2.29269003868	366.0	-267.0	368.0	-268.0	1
3.0.1	2019_Mar_13_1050	s	s	8	3	SIC	389	ABS	0	0	1	1	24_1_1	NA	NA	0	1	2.5019659996	None	None	None	None	1
3.0.1	2019_Mar_13_1050	s	s	8	3	SIC	390	2_3	2	3	3	1	23_3_1	1	2	1	0	0.54069185257	378.0	-223.0	376.0	-220.0	1
3.0.1	2019_Mar_13_1050	s	s	8	3	SIC	391	ABS	0	0	1	2	24_1_2	NA	NA	0	1	5.85526394844	None	None	None	None	1
3.0.1	2019_Mar_13_1050	s	s	8	3	SIC	392	1_4	1	4	1	2	23_1_2	0	2	1	0	0.721694946289	399.0	-355.0	403.0	-356.0	1
3.0.1	2019_Mar_13_1050	s	s	8	3	SIC	393	ABS	0	0	2	3	24_2_3	NA	NA	0	1	6.05633187294	None	None	None	None	1
3.0.1	2019_Mar_13_1050	s	s	8	3	SIC	394	ABS	0	0	2	1	24_2_1	NA	NA	0	1	4.20978498459	None	None	None	None	1
3.0.1	2019_Mar_13_1050	s	s	8	3	SIC	395	ABS	0	0	4	4	24_4_4	NA	NA	0	1	2.42211389542	None	None	None	None	1
3.0.1	2019_Mar_13_1050	s	s	8	3	SIC	396	ABS	0	0	3	1	24_3_1	NA	NA	0	1	3.35123610497	None	None	None	None	1
3.0.1	2019_Mar_13_1050	s	s	8	3	SIC	397	1_2	1	2	1	3	23_1_3	0	1	1	0	3.35124897957	-478.0	271.0	-478.0	268.0	1
3.0.1	2019_Mar_13_1050	s	s	8	3	SIC	398	ABS	0	0	4	2	24_4_2	NA	NA	0	1	5.59080696106	None	None	None	None	1
3.0.1	2019_Mar_13_1050	s	s	8	3	SIC	399	ABS	0	0	2	4	24_2_4	NA	NA	0	1	2.86908006668	None	None	None	None	1
3.0.1	2019_Mar_13_1050	s	s	8	3	SIC	400	ABS	0	0	4	1	24_4_1	NA	NA	0	1	2.9631459713	None	None	None	None	1
3.0.1	2019_Mar_13_1050	s	s	8	3	SIC	401	1_4	1	4	3	2	23_3_2	2	2	1	0	0.634433031082	424.0	306.0	419.0	304.0	1
3.0.1	2019_Mar_13_1050	s	s	8	3	SIC	402	ABS	0	0	3	2	24_3_2	NA	NA	0	1	7.10293292999	None	None	None	None	1
3.0.1	2019_Mar_13_1050	s	s	8	3	SIC	403	ABS	0	0	2	3	24_2_3	NA	NA	0	1	4.10413384438	None	None	None	None	1
3.0.1	2019_Mar_13_1050	s	s	8	3	SIC	404	ABS	0	0	4	4	24_4_4	NA	NA	0	1	1.96632218361	None	None	None	None	1
3.0.1	2019_Mar_13_1050	s	s	8	3	SIC	405	3_2	3	2	1	1	23_1_1	2	-1	1	0	0.693202018738	-279.0	-212.0	-276.0	-211.0	1
3.0.1	2019_Mar_13_1050	s	s	8	3	SIC	406	3_1	3	1	2	2	23_2_2	1	1	1	0	0.928409099579	410.0	378.0	410.0	373.0	1
3.0.1	2019_Mar_13_1050	s	s	8	3	SIC	407	ABS	0	0	4	4	24_4_4	NA	NA	0	1	1.61066412926	None	None	None	None	1
3.0.1	2019_Mar_13_1050	s	s	8	3	SIC	408	ABS	0	0	3	2	24_3_2	NA	NA	0	1	7.09810519218	None	None	None	None	1
3.0.1	2019_Mar_13_1050	s	s	8	3	SIC	409	ABS	0	0	3	3	24_3_3	NA	NA	0	1	4.7390730381	None	None	None	None	1
3.0.1	2019_Mar_13_1050	s	s	8	3	SIC	410	ABS	0	0	3	1	24_3_1	NA	NA	0	1	4.11577105522	None	None	None	None	1
3.0.1	2019_Mar_13_1050	s	s	8	3	SIC	411	ABS	0	0	1	3	24_1_3	NA	NA	0	1	4.86187791824	None	None	None	None	1
3.0.1	2019_Mar_13_1050	s	s	8	3	SIC	412	4_4	4	4	3	1	23_3_1	1	3	1	0	0.540368080139	393.0	-98.0	399.0	-106.0	1
3.0.1	2019_Mar_13_1050	s	s	8	3	SIC	413	ABS	0	0	4	1	24_4_1	NA	NA	0	1	1.71646714211	None	None	None	None	1
3.0.1	2019_Mar_13_1050	s	s	8	3	SIC	414	2_1	2	1	3	4	23_3_4	1	3	1	0	0.469848155975	17.0	-184.0	19.0	-185.0	1
3.0.1	2019_Mar_13_1050	s	s	8	3	SIC	415	ABS	0	0	3	4	24_3_4	NA	NA	0	1	2.14486193657	None	None	None	None	1
3.0.1	2019_Mar_13_1050	s	s	8	3	SIC	416	ABS	0	0	4	1	24_4_1	NA	NA	0	1	1.42245388031	None	None	None	None	1
3.0.1	2019_Mar_13_1050	s	s	8	3	SIC	417	ABS	0	0	2	3	24_2_3	NA	NA	0	1	4.06878089905	None	None	None	None	1
3.0.1	2019_Mar_13_1050	s	s	8	3	SIC	418	2_4	2	4	4	3	23_4_3	2	1	1	0	0.516820907593	-222.0	-326.0	-225.0	-322.0	1
3.0.1	2019_Mar_13_1050	s	s	8	3	SIC	419	4_1	4	1	4	4	23_4_4	0	3	1	0	0.509373903275	291.0	-4.0	289.0	-1.0	1
3.0.1	2019_Mar_13_1050	s	s	8	3	SIC	420	ABS	0	0	3	3	24_3_3	NA	NA	0	1	3.49922204018	None	None	None	None	1
3.0.1	2019_Mar_13_1050	s	s	8	3	SIC	421	4_2	4	2	1	1	23_1_1	3	-1	1	0	0.425687074661	532.0	115.0	531.0	111.0	1
3.0.1	2019_Mar_13_1050	s	s	8	3	SIC	422	3_3	3	3	4	4	23_4_4	-1	-1	1	0	0.486968994141	-156.0	-346.0	-149.0	-343.0	1
3.0.1	2019_Mar_13_1050	s	s	8	3	SIC	423	4_1	4	1	3	3	23_3_3	1	2	1	0	0.41092300415	-190.0	11.0	-185.0	13.0	1
3.0.1	2019_Mar_13_1050	s	s	8	3	SIC	424	ABS	0	0	4	3	24_4_3	NA	NA	0	1	3.78107309341	None	None	None	None	1
3.0.1	2019_Mar_13_1050	s	s	8	3	SIC	425	4_4	4	4	1	4	23_1_4	3	0	1	0	0.469816923141	323.0	155.0	321.0	160.0	1
3.0.1	2019_Mar_13_1050	s	s	8	3	SIC	426	ABS	0	0	3	3	24_3_3	NA	NA	0	1	2.84837603569	None	None	None	None	1
3.0.1	2019_Mar_13_1050	s	s	8	3	SIC	427	ABS	0	0	1	1	24_1_1	NA	NA	0	1	1.63454294205	None	None	None	None	1
3.0.1	2019_Mar_13_1050	s	s	8	3	SIC	428	2_2	2	2	2	4	23_2_4	0	2	1	0	0.546826839447	-263.0	-388.0	-260.0	-388.0	1
3.0.1	2019_Mar_13_1050	s	s	8	3	SIC	429	ABS	0	0	1	3	24_1_3	NA	NA	0	1	3.66330718994	None	None	None	None	1
3.0.1	2019_Mar_13_1050	s	s	8	3	SIC	430	2_2	2	2	4	4	23_4_4	2	2	1	0	0.458043813705	-499.0	216.0	-490.0	223.0	1
3.0.1	2019_Mar_13_1050	s	s	8	3	SIC	431	ABS	0	0	3	4	24_3_4	NA	NA	0	1	2.39025402069	None	None	None	None	1
3.0.1	2019_Mar_13_1050	s	s	8	3	SIC	432	ABS	0	0	4	4	24_4_4	NA	NA	0	1	2.29277801514	None	None	None	None	1
3.0.1	2019_Mar_13_1050	s	s	8	3	SIC	433	1_1	1	1	4	1	23_4_1	3	0	1	0	1.33303308487	289.0	-9.0	280.0	-10.0	1
3.0.1	2019_Mar_13_1050	s	s	8	3	SIC	434	ABS	0	0	2	1	24_2_1	NA	NA	0	1	4.84785509109	None	None	None	None	1
3.0.1	2019_Mar_13_1050	s	s	8	3	SIC	435	ABS	0	0	3	3	24_3_3	NA	NA	0	1	3.33950901031	None	None	None	None	1
3.0.1	2019_Mar_13_1050	s	s	8	3	SIC	436	ABS	0	0	4	3	24_4_3	NA	NA	0	1	2.86905407906	None	None	None	None	1
3.0.1	2019_Mar_13_1050	s	s	8	3	SIC	437	1_4	1	4	1	1	23_1_1	0	3	1	0	0.8931620121	59.0	65.0	67.0	64.0	1
3.0.1	2019_Mar_13_1050	s	s	8	3	SIC	438	ABS	0	0	1	4	24_1_4	NA	NA	0	1	2.3789999485	None	None	None	None	1
3.0.1	2019_Mar_13_1050	s	s	8	3	SIC	439	2_3	2	3	4	1	23_4_1	2	2	1	0	0.528561115265	245.0	-66.0	251.0	-64.0	1
3.0.1	2019_Mar_13_1050	s	s	8	3	SIC	440	ABS	0	0	1	4	24_1_4	NA	NA	0	1	1.28672885895	None	None	None	None	1
3.0.1	2019_Mar_13_1050	s	s	8	3	SIC	441	1_2	1	2	1	1	23_1_1	0	-1	0	1	1.80411505699	-536.0	328.0	None	None	0
3.0.1	2019_Mar_13_1050	s	s	8	3	SIC	442	ABS	0	0	1	4	24_1_4	NA	NA	0	1	1.76760792732	None	None	None	None	1
3.0.1	2019_Mar_13_1050	s	s	8	3	SIC	443	4_4	4	4	2	1	23_2_1	2	3	1	0	0.442880868912	-503.0	240.0	-507.0	231.0	1
3.0.1	2019_Mar_13_1050	s	s	8	3	SIC	444	2_1	2	1	4	2	23_4_2	2	1	1	0	0.521270990372	-504.0	-188.0	-505.0	-187.0	1
3.0.1	2019_Mar_13_1050	s	s	8	3	SIC	445	ABS	0	0	1	2	24_1_2	NA	NA	0	1	6.62092113495	None	None	None	None	1
3.0.1	2019_Mar_13_1050	s	s	8	3	SIC	446	ABS	0	0	1	2	24_1_2	NA	NA	0	1	5.85647082329	None	None	None	None	1
3.0.1	2019_Mar_13_1050	s	s	8	3	SIC	447	ABS	0	0	2	2	24_2_2	NA	NA	0	1	8.29102492332	None	None	None	None	1
3.0.1	2019_Mar_13_1050	s	s	8	3	SIC	448	3_2	3	2	3	1	23_3_1	0	-1	0	1	2.96611094475	-522.0	262.0	None	None	0
3.0.1	2019_Mar_13_1050	s	s	8	3	SIC	449	ABS	0	0	4	4	24_4_4	NA	NA	0	1	0.678021907806	None	None	None	None	1
3.0.1	2019_Mar_13_1050	s	s	8	3	SIC	450	ABS	0	0	1	2	24_1_2	NA	NA	0	1	8.27234196663	None	None	None	None	1
3.0.1	2019_Mar_13_1050	s	s	8	3	SIC	451	ABS	0	0	4	2	24_4_2	NA	NA	0	1	6.57385587692	None	None	None	None	1
3.0.1	2019_Mar_13_1050	s	s	8	3	SIC	452	ABS	0	0	4	2	24_4_2	NA	NA	0	1	7.04429006577	None	None	None	None	1
3.0.1	2019_Mar_13_1050	s	s	8	3	SIC	453	4_3	4	3	2	3	23_2_3	2	0	1	0	0.646233081818	431.0	-351.0	425.0	-348.0	1
3.0.1	2019_Mar_13_1050	s	s	8	3	SIC	454	ABS	0	0	1	4	24_1_4	NA	NA	0	1	1.38707089424	None	None	None	None	1
3.0.1	2019_Mar_13_1050	s	s	8	3	SIC	455	ABS	0	0	2	2	24_2_2	NA	NA	0	1	6.99725413322	None	None	None	None	1
3.0.1	2019_Mar_13_1050	s	s	8	3	SIC	456	2_4	2	4	1	3	23_1_3	-1	1	1	0	1.20190811157	87.0	-348.0	79.0	-349.0	1
3.0.1	2019_Mar_13_1050	s	s	8	3	SIC	457	ABS	0	0	2	3	24_2_3	NA	NA	0	1	4.59789705276	None	None	None	None	1
3.0.1	2019_Mar_13_1050	s	s	8	3	SIC	458	ABS	0	0	2	4	24_2_4	NA	NA	0	1	2.52805781364	None	None	None	None	1
3.0.1	2019_Mar_13_1050	s	s	8	3	SIC	459	4_2	4	2	4	3	23_4_3	0	1	0	1	3.60320711136	158.0	219.0	None	None	0
3.0.1	2019_Mar_13_1050	s	s	8	3	SIC	460	2_4	2	4	3	3	23_3_3	1	1	1	0	0.619259119034	-503.0	-352.0	-492.0	-349.0	1
3.0.1	2019_Mar_13_1050	s	s	8	3	SIC	461	2_2	2	2	1	3	23_1_3	-1	1	1	0	1.23429012299	-369.0	-34.0	-377.0	-37.0	1
3.0.1	2019_Mar_13_1050	s	s	8	3	SIC	462	ABS	0	0	4	2	24_4_2	NA	NA	0	1	6.1034090519	None	None	None	None	1
3.0.1	2019_Mar_13_1050	s	s	8	3	SIC	463	ABS	0	0	4	2	24_4_2	NA	NA	0	1	6.90606093407	None	None	None	None	1
3.0.1	2019_Mar_13_1050	s	s	8	3	SIC	464	3_4	3	4	4	2	23_4_2	-1	2	1	0	0.563844919205	2.0	-223.0	12.0	-213.0	1
3.0.1	2019_Mar_13_1050	s	s	8	3	SIC	465	ABS	0	0	4	1	24_4_1	NA	NA	0	1	3.10420799255	None	None	None	None	1
3.0.1	2019_Mar_13_1050	s	s	8	3	SIC	466	4_4	4	4	4	1	23_4_1	0	3	1	0	0.568232059479	-7.0	156.0	-13.0	153.0	1
3.0.1	2019_Mar_13_1050	s	s	8	3	SIC	467	1_1	1	1	4	3	23_4_3	3	2	1	0	0.458034038544	-372.0	94.0	-376.0	91.0	1
3.0.1	2019_Mar_13_1050	s	s	8	3	SIC	468	ABS	0	0	1	3	24_1_3	NA	NA	1	0	0.72215795517	None	None	-524.0	308.0	0
3.0.1	2019_Mar_13_1050	s	s	8	3	SIC	469	4_3	4	3	3	4	23_3_4	1	-1	1	0	0.634442090988	-269.0	-24.0	-262.0	-25.0	1
3.0.1	2019_Mar_13_1050	s	s	8	3	SIC	470	ABS	0	0	3	1	24_3_1	NA	NA	0	1	2.99845099449	None	None	None	None	1
3.0.1	2019_Mar_13_1050	s	s	8	3	SIC	471	ABS	0	0	2	2	24_2_2	NA	NA	0	1	4.72084999084	None	None	None	None	1
3.0.1	2019_Mar_13_1050	s	s	8	3	SIC	472	3_4	3	4	1	2	23_1_2	2	2	1	0	0.496217012405	174.0	81.0	176.0	77.0	1
3.0.1	2019_Mar_13_1050	s	s	8	3	SIC	473	ABS	0	0	1	2	24_1_2	NA	NA	0	1	4.98893713951	None	None	None	None	1
3.0.1	2019_Mar_13_1050	s	s	8	3	SIC	474	ABS	0	0	4	2	24_4_2	NA	NA	0	1	5.26505804062	None	None	None	None	1
3.0.1	2019_Mar_13_1050	s	s	8	3	SIC	475	1_2	1	2	4	3	23_4_3	3	1	1	0	0.613708019257	-430.0	-334.0	-436.0	-343.0	1
3.0.1	2019_Mar_13_1050	s	s	8	3	SIC	476	ABS	0	0	1	4	24_1_4	NA	NA	0	1	3.85705709457	None	None	None	None	1
3.0.1	2019_Mar_13_1050	s	s	8	3	SIC	477	ABS	0	0	3	2	24_3_2	NA	NA	0	1	5.20953297615	None	None	None	None	1
3.0.1	2019_Mar_13_1050	s	s	8	3	SIC	478	ABS	0	0	1	3	24_1_3	NA	NA	0	1	4.03340291977	None	None	None	None	1
3.0.1	2019_Mar_13_1050	s	s	8	3	SIC	479	ABS	0	0	4	2	24_4_2	NA	NA	0	1	5.00957489014	None	None	None	None	1
3.0.1	2019_Mar_13_1050	s	s	8	3	SIC	480	3_1	3	1	4	4	23_4_4	-1	3	1	0	0.497355937958	418.0	-313.0	418.0	-312.0	1
