Version	Date	Stimuli	Method	Subject	Session	Condition	Trial	Target	TColor	TShape	DColor	DShape	Distractors	Channel1	Channel2	LMouseButton	RMouseButton	RT	TargetX	TargetY	ResponseX	ResponseY	Correct
3.0.1	2019_Mar_12_0905	s	s	8	2	Capacity	1	4_1	4	1	2	1	23_2_1	2	0	1	0	0.575623989105	-125.0	-271.0	-127.0	-284.0	1
3.0.1	2019_Mar_12_0905	s	s	8	2	Capacity	2	ABS	0	0	3	1	24_3_1	NA	NA	0	1	0.928415060043	None	None	None	None	1
3.0.1	2019_Mar_12_0905	s	s	8	2	Capacity	3	1_1	1	1	3	1	23_3_1	2	0	1	0	0.834410905838	139.0	309.0	142.0	308.0	1
3.0.1	2019_Mar_12_0905	s	s	8	2	Capacity	4	ABS	0	0	1	1	24_1_1	NA	NA	0	1	1.86932206154	None	None	None	None	1
3.0.1	2019_Mar_12_0905	s	s	8	2	Capacity	5	4_1	4	1	1	1	23_1_1	3	0	1	0	1.22582221031	199.0	256.0	196.0	263.0	1
3.0.1	2019_Mar_12_0905	s	s	8	2	Capacity	6	2_1	2	1	1	1	23_1_1	-1	0	1	0	1.04599905014	312.0	158.0	321.0	155.0	1
3.0.1	2019_Mar_12_0905	s	s	8	2	Capacity	7	4_1	4	1	3	1	23_3_1	1	0	1	0	0.951992988586	-406.0	-159.0	-402.0	-164.0	1
3.0.1	2019_Mar_12_0905	s	s	8	2	Capacity	8	ABS	0	0	4	1	24_4_1	NA	NA	0	1	1.37822890282	None	None	None	None	1
3.0.1	2019_Mar_12_0905	s	s	8	2	Capacity	9	ABS	0	0	2	1	24_2_1	NA	NA	0	1	1.83842396736	None	None	None	None	1
3.0.1	2019_Mar_12_0905	s	s	8	2	Capacity	10	ABS	0	0	1	1	24_1_1	NA	NA	0	1	3.15607309341	None	None	None	None	1
3.0.1	2019_Mar_12_0905	s	s	8	2	Capacity	11	2_1	2	1	4	1	23_4_1	2	0	1	0	0.745640039444	-491.0	-354.0	-498.0	-351.0	1
3.0.1	2019_Mar_12_0905	s	s	8	2	Capacity	12	1_1	1	1	4	1	23_4_1	3	0	1	0	0.778851032257	-394.0	146.0	-402.0	146.0	1
3.0.1	2019_Mar_12_0905	s	s	8	2	Capacity	13	2_1	2	1	3	1	23_3_1	1	0	1	0	1.01714897156	-74.0	411.0	-84.0	421.0	1
3.0.1	2019_Mar_12_0905	s	s	8	2	Capacity	14	ABS	0	0	2	1	24_2_1	NA	NA	0	1	2.82597994804	None	None	None	None	1
3.0.1	2019_Mar_12_0905	s	s	8	2	Capacity	15	ABS	0	0	3	1	24_3_1	NA	NA	0	1	2.17502999306	None	None	None	None	1
3.0.1	2019_Mar_12_0905	s	s	8	2	Capacity	16	ABS	0	0	2	1	24_2_1	NA	NA	0	1	1.76880216599	None	None	None	None	1
3.0.1	2019_Mar_12_0905	s	s	8	2	Capacity	17	3_1	3	1	4	1	23_4_1	-1	0	1	0	0.532459020615	-139.0	204.0	-138.0	198.0	1
3.0.1	2019_Mar_12_0905	s	s	8	2	Capacity	18	ABS	0	0	1	1	24_1_1	NA	NA	0	1	2.50181913376	None	None	None	None	1
3.0.1	2019_Mar_12_0905	s	s	8	2	Capacity	19	3_1	3	1	2	1	23_2_1	1	0	1	0	0.815985918045	454.0	-338.0	446.0	-343.0	1
3.0.1	2019_Mar_12_0905	s	s	8	2	Capacity	20	ABS	0	0	4	1	24_4_1	NA	NA	0	1	1.74540996552	None	None	None	None	1
3.0.1	2019_Mar_12_0905	s	s	8	2	Capacity	21	ABS	0	0	3	1	24_3_1	NA	NA	0	1	2.24860405922	None	None	None	None	1
3.0.1	2019_Mar_12_0905	s	s	8	2	Capacity	22	1_1	1	1	2	1	23_2_1	1	0	1	0	0.698721885681	-109.0	118.0	-107.0	120.0	1
3.0.1	2019_Mar_12_0905	s	s	8	2	Capacity	23	3_1	3	1	1	1	23_1_1	2	0	1	0	1.44377183914	-521.0	-270.0	-525.0	-262.0	1
3.0.1	2019_Mar_12_0905	s	s	8	2	Capacity	24	ABS	0	0	4	1	24_4_1	NA	NA	0	1	2.6179459095	None	None	None	None	1
3.0.1	2019_Mar_12_0905	s	s	8	2	Capacity	25	ABS	0	0	1	1	24_1_1	NA	NA	0	1	4.045181036	None	None	None	None	1
3.0.1	2019_Mar_12_0905	s	s	8	2	Capacity	26	2_1	2	1	4	1	23_4_1	2	0	1	0	1.0578110218	-154.0	189.0	-161.0	189.0	1
3.0.1	2019_Mar_12_0905	s	s	8	2	Capacity	27	ABS	0	0	4	1	24_4_1	NA	NA	0	1	2.90713787079	None	None	None	None	1
3.0.1	2019_Mar_12_0905	s	s	8	2	Capacity	28	ABS	0	0	4	1	24_4_1	NA	NA	0	1	2.61325311661	None	None	None	None	1
3.0.1	2019_Mar_12_0905	s	s	8	2	Capacity	29	ABS	0	0	1	1	24_1_1	NA	NA	0	1	2.01747703552	None	None	None	None	1
3.0.1	2019_Mar_12_0905	s	s	8	2	Capacity	30	3_1	3	1	2	1	23_2_1	1	0	1	0	1.15767598152	54.0	229.0	50.0	229.0	1
3.0.1	2019_Mar_12_0905	s	s	8	2	Capacity	31	2_1	2	1	1	1	23_1_1	-1	0	1	0	1.17540693283	-61.0	-239.0	-61.0	-242.0	1
3.0.1	2019_Mar_12_0905	s	s	8	2	Capacity	32	ABS	0	0	2	1	24_2_1	NA	NA	0	1	2.29904699326	None	None	None	None	1
3.0.1	2019_Mar_12_0905	s	s	8	2	Capacity	33	3_1	3	1	1	1	23_1_1	2	0	1	0	0.763790845871	-14.0	87.0	-17.0	85.0	1
3.0.1	2019_Mar_12_0905	s	s	8	2	Capacity	34	ABS	0	0	3	1	24_3_1	NA	NA	0	1	3.39815807343	None	None	None	None	1
3.0.1	2019_Mar_12_0905	s	s	8	2	Capacity	35	ABS	0	0	3	1	24_3_1	NA	NA	0	1	2.10454201698	None	None	None	None	1
3.0.1	2019_Mar_12_0905	s	s	8	2	Capacity	36	ABS	0	0	2	1	24_2_1	NA	NA	0	1	2.03397297859	None	None	None	None	1
3.0.1	2019_Mar_12_0905	s	s	8	2	Capacity	37	1_1	1	1	3	1	23_3_1	2	0	1	0	0.754945993423	-277.0	409.0	-279.0	400.0	1
3.0.1	2019_Mar_12_0905	s	s	8	2	Capacity	38	4_1	4	1	2	1	23_2_1	2	0	1	0	0.862140893936	-207.0	149.0	-201.0	141.0	1
3.0.1	2019_Mar_12_0905	s	s	8	2	Capacity	39	4_1	4	1	3	1	23_3_1	1	0	1	0	0.99220085144	-243.0	-352.0	-247.0	-355.0	1
3.0.1	2019_Mar_12_0905	s	s	8	2	Capacity	40	ABS	0	0	1	1	24_1_1	NA	NA	0	1	2.76366305351	None	None	None	None	1
3.0.1	2019_Mar_12_0905	s	s	8	2	Capacity	41	1_1	1	1	2	1	23_2_1	1	0	1	0	1.26073098183	189.0	219.0	195.0	215.0	1
3.0.1	2019_Mar_12_0905	s	s	8	2	Capacity	42	ABS	0	0	2	1	24_2_1	NA	NA	0	1	1.92815899849	None	None	None	None	1
3.0.1	2019_Mar_12_0905	s	s	8	2	Capacity	43	3_1	3	1	4	1	23_4_1	-1	0	1	0	0.921441078186	-8.0	-44.0	-13.0	-51.0	1
3.0.1	2019_Mar_12_0905	s	s	8	2	Capacity	44	1_1	1	1	4	1	23_4_1	3	0	1	0	0.796619176865	-247.0	-324.0	-250.0	-320.0	1
3.0.1	2019_Mar_12_0905	s	s	8	2	Capacity	45	4_1	4	1	1	1	23_1_1	3	0	1	0	0.744418859482	97.0	267.0	86.0	273.0	1
3.0.1	2019_Mar_12_0905	s	s	8	2	Capacity	46	ABS	0	0	4	1	24_4_1	NA	NA	0	1	2.30452680588	None	None	None	None	1
3.0.1	2019_Mar_12_0905	s	s	8	2	Capacity	47	ABS	0	0	3	1	24_3_1	NA	NA	0	1	2.8383409977	None	None	None	None	1
3.0.1	2019_Mar_12_0905	s	s	8	2	Capacity	48	2_1	2	1	3	1	23_3_1	1	0	1	0	0.912756919861	-476.0	-211.0	-473.0	-212.0	1
3.0.1	2019_Mar_12_0905	s	s	8	2	Capacity	49	4_1	4	1	3	1	23_3_1	1	0	1	0	0.696115016937	427.0	-315.0	423.0	-312.0	1
3.0.1	2019_Mar_12_0905	s	s	8	2	Capacity	50	ABS	0	0	3	1	24_3_1	NA	NA	0	1	3.46048593521	None	None	None	None	1
3.0.1	2019_Mar_12_0905	s	s	8	2	Capacity	51	4_1	4	1	2	1	23_2_1	2	0	1	0	0.716768026352	-232.0	348.0	-229.0	348.0	1
3.0.1	2019_Mar_12_0905	s	s	8	2	Capacity	52	ABS	0	0	1	1	24_1_1	NA	NA	0	1	2.93310308456	None	None	None	None	1
3.0.1	2019_Mar_12_0905	s	s	8	2	Capacity	53	3_1	3	1	1	1	23_1_1	2	0	1	0	0.639633893967	-455.0	77.0	-457.0	83.0	1
3.0.1	2019_Mar_12_0905	s	s	8	2	Capacity	54	ABS	0	0	3	1	24_3_1	NA	NA	0	1	2.76742720604	None	None	None	None	1
3.0.1	2019_Mar_12_0905	s	s	8	2	Capacity	55	1_1	1	1	3	1	23_3_1	2	0	1	0	0.96658205986	325.0	-135.0	320.0	-127.0	1
3.0.1	2019_Mar_12_0905	s	s	8	2	Capacity	56	ABS	0	0	2	1	24_2_1	NA	NA	0	1	2.51619696617	None	None	None	None	1
3.0.1	2019_Mar_12_0905	s	s	8	2	Capacity	57	ABS	0	0	2	1	24_2_1	NA	NA	0	1	2.09977197647	None	None	None	None	1
3.0.1	2019_Mar_12_0905	s	s	8	2	Capacity	58	ABS	0	0	4	1	24_4_1	NA	NA	0	1	3.10929393768	None	None	None	None	1
3.0.1	2019_Mar_12_0905	s	s	8	2	Capacity	59	ABS	0	0	2	1	24_2_1	NA	NA	0	1	2.91639614105	None	None	None	None	1
3.0.1	2019_Mar_12_0905	s	s	8	2	Capacity	60	3_1	3	1	2	1	23_2_1	1	0	1	0	0.75198507309	-224.0	-311.0	-224.0	-309.0	1
3.0.1	2019_Mar_12_0905	s	s	8	2	Capacity	61	ABS	0	0	3	1	24_3_1	NA	NA	0	1	2.70455288887	None	None	None	None	1
3.0.1	2019_Mar_12_0905	s	s	8	2	Capacity	62	1_1	1	1	4	1	23_4_1	3	0	1	0	0.620320081711	-78.0	-42.0	-81.0	-50.0	1
3.0.1	2019_Mar_12_0905	s	s	8	2	Capacity	63	ABS	0	0	4	1	24_4_1	NA	NA	0	1	1.89288902283	None	None	None	None	1
3.0.1	2019_Mar_12_0905	s	s	8	2	Capacity	64	2_1	2	1	3	1	23_3_1	1	0	1	0	0.587298154831	-64.0	89.0	-62.0	89.0	1
3.0.1	2019_Mar_12_0905	s	s	8	2	Capacity	65	ABS	0	0	1	1	24_1_1	NA	NA	0	1	2.12147212029	None	None	None	None	1
3.0.1	2019_Mar_12_0905	s	s	8	2	Capacity	66	4_1	4	1	1	1	23_1_1	3	0	1	0	0.575618028641	-392.0	-108.0	-388.0	-106.0	1
3.0.1	2019_Mar_12_0905	s	s	8	2	Capacity	67	1_1	1	1	2	1	23_2_1	1	0	1	0	1.7633960247	445.0	216.0	441.0	211.0	1
3.0.1	2019_Mar_12_0905	s	s	8	2	Capacity	68	ABS	0	0	1	1	24_1_1	NA	NA	0	1	3.18661117554	None	None	None	None	1
3.0.1	2019_Mar_12_0905	s	s	8	2	Capacity	69	3_1	3	1	4	1	23_4_1	-1	0	1	0	0.622679948807	-156.0	-143.0	-157.0	-140.0	1
3.0.1	2019_Mar_12_0905	s	s	8	2	Capacity	70	2_1	2	1	4	1	23_4_1	2	0	1	0	0.634411096573	-200.0	-298.0	-196.0	-295.0	1
3.0.1	2019_Mar_12_0905	s	s	8	2	Capacity	71	ABS	0	0	4	1	24_4_1	NA	NA	0	1	2.17980098724	None	None	None	None	1
3.0.1	2019_Mar_12_0905	s	s	8	2	Capacity	72	2_1	2	1	1	1	23_1_1	-1	0	1	0	1.41067314148	-369.0	356.0	-380.0	356.0	1
3.0.1	2019_Mar_12_0905	s	s	8	2	Capacity	73	4_1	4	1	2	1	23_2_1	2	0	1	0	0.854965209961	149.0	-334.0	146.0	-332.0	1
3.0.1	2019_Mar_12_0905	s	s	8	2	Capacity	74	ABS	0	0	3	1	24_3_1	NA	NA	0	1	2.72133421898	None	None	None	None	1
3.0.1	2019_Mar_12_0905	s	s	8	2	Capacity	75	ABS	0	0	4	1	24_4_1	NA	NA	0	1	2.38011097908	None	None	None	None	1
3.0.1	2019_Mar_12_0905	s	s	8	2	Capacity	76	1_1	1	1	2	1	23_2_1	1	0	1	0	2.17912006378	-495.0	117.0	-499.0	116.0	1
3.0.1	2019_Mar_12_0905	s	s	8	2	Capacity	77	ABS	0	0	2	1	24_2_1	NA	NA	0	1	3.64915394783	None	None	None	None	1
3.0.1	2019_Mar_12_0905	s	s	8	2	Capacity	78	ABS	0	0	4	1	24_4_1	NA	NA	0	1	3.38656210899	None	None	None	None	1
3.0.1	2019_Mar_12_0905	s	s	8	2	Capacity	79	ABS	0	0	1	1	24_1_1	NA	NA	0	1	3.55880999565	None	None	None	None	1
3.0.1	2019_Mar_12_0905	s	s	8	2	Capacity	80	ABS	0	0	3	1	24_3_1	NA	NA	0	1	2.41034293175	None	None	None	None	1
3.0.1	2019_Mar_12_0905	s	s	8	2	Capacity	81	ABS	0	0	1	1	24_1_1	NA	NA	0	1	3.7981710434	None	None	None	None	1
3.0.1	2019_Mar_12_0905	s	s	8	2	Capacity	82	ABS	0	0	4	1	24_4_1	NA	NA	0	1	3.14490008354	None	None	None	None	1
3.0.1	2019_Mar_12_0905	s	s	8	2	Capacity	83	ABS	0	0	2	1	24_2_1	NA	NA	0	1	4.99781703949	None	None	None	None	1
3.0.1	2019_Mar_12_0905	s	s	8	2	Capacity	84	ABS	0	0	3	1	24_3_1	NA	NA	0	1	3.4688141346	None	None	None	None	1
3.0.1	2019_Mar_12_0905	s	s	8	2	Capacity	85	ABS	0	0	1	1	24_1_1	NA	NA	0	1	3.71867108345	None	None	None	None	1
3.0.1	2019_Mar_12_0905	s	s	8	2	Capacity	86	ABS	0	0	2	1	24_2_1	NA	NA	0	1	5.45924305916	None	None	None	None	1
3.0.1	2019_Mar_12_0905	s	s	8	2	Capacity	87	3_1	3	1	1	1	23_1_1	2	0	1	0	1.03425216675	276.0	-216.0	276.0	-207.0	1
3.0.1	2019_Mar_12_0905	s	s	8	2	Capacity	88	3_1	3	1	4	1	23_4_1	-1	0	1	0	0.751992940903	387.0	151.0	382.0	157.0	1
3.0.1	2019_Mar_12_0905	s	s	8	2	Capacity	89	2_1	2	1	4	1	23_4_1	2	0	1	0	0.698437929153	213.0	-140.0	206.0	-137.0	1
3.0.1	2019_Mar_12_0905	s	s	8	2	Capacity	90	2_1	2	1	3	1	23_3_1	1	0	1	0	0.862608909607	476.0	-44.0	476.0	-40.0	1
3.0.1	2019_Mar_12_0905	s	s	8	2	Capacity	91	3_1	3	1	2	1	23_2_1	1	0	1	0	0.747200012207	-163.0	324.0	-166.0	312.0	1
3.0.1	2019_Mar_12_0905	s	s	8	2	Capacity	92	2_1	2	1	1	1	23_1_1	-1	0	1	0	1.29301190376	-240.0	-107.0	-243.0	-108.0	1
3.0.1	2019_Mar_12_0905	s	s	8	2	Capacity	93	4_1	4	1	1	1	23_1_1	3	0	1	0	0.881374835968	-476.0	-99.0	-466.0	-100.0	1
3.0.1	2019_Mar_12_0905	s	s	8	2	Capacity	94	4_1	4	1	3	1	23_3_1	1	0	1	0	0.81581902504	328.0	-104.0	336.0	-98.0	1
3.0.1	2019_Mar_12_0905	s	s	8	2	Capacity	95	1_1	1	1	3	1	23_3_1	2	0	1	0	0.944576025009	90.0	-110.0	97.0	-111.0	1
3.0.1	2019_Mar_12_0905	s	s	8	2	Capacity	96	1_1	1	1	4	1	23_4_1	3	0	1	0	0.613780021667	238.0	-27.0	227.0	-26.0	1
3.0.1	2019_Mar_12_0905	s	s	8	2	Capacity	1	ABS	0	0	1	4	24_1_4	NA	NA	0	1	5.44464588165	None	None	None	None	1
3.0.1	2019_Mar_12_0905	s	s	8	2	Capacity	2	1_2	1	2	1	1	23_1_1	0	-1	1	0	2.92166399956	-183.0	25.0	-191.0	24.0	1
3.0.1	2019_Mar_12_0905	s	s	8	2	Capacity	3	1_3	1	3	1	1	23_1_1	0	2	1	0	2.40294909477	91.0	-241.0	100.0	-239.0	1
3.0.1	2019_Mar_12_0905	s	s	8	2	Capacity	4	1_3	1	3	1	4	23_1_4	0	-1	1	0	0.780961036682	104.0	-72.0	105.0	-74.0	1
3.0.1	2019_Mar_12_0905	s	s	8	2	Capacity	5	1_2	1	2	1	3	23_1_3	0	1	1	0	4.0611538887	-232.0	-228.0	-223.0	-231.0	1
3.0.1	2019_Mar_12_0905	s	s	8	2	Capacity	6	1_4	1	4	1	2	23_1_2	0	2	1	0	0.850478887558	330.0	-331.0	334.0	-336.0	1
3.0.1	2019_Mar_12_0905	s	s	8	2	Capacity	7	1_3	1	3	1	2	23_1_2	0	1	0	1	6.64437007904	157.0	-69.0	None	None	0
3.0.1	2019_Mar_12_0905	s	s	8	2	Capacity	8	1_4	1	4	1	1	23_1_1	0	3	1	0	0.677659988403	42.0	-65.0	35.0	-71.0	1
3.0.1	2019_Mar_12_0905	s	s	8	2	Capacity	9	1_1	1	1	1	4	23_1_4	0	3	1	0	0.60453414917	40.0	-53.0	43.0	-48.0	1
3.0.1	2019_Mar_12_0905	s	s	8	2	Capacity	10	1_4	1	4	1	3	23_1_3	0	1	1	0	1.28125882149	-149.0	399.0	-147.0	394.0	1
3.0.1	2019_Mar_12_0905	s	s	8	2	Capacity	11	1_1	1	1	1	2	23_1_2	0	1	1	0	3.82161402702	-373.0	-216.0	-378.0	-220.0	1
3.0.1	2019_Mar_12_0905	s	s	8	2	Capacity	12	ABS	0	0	1	1	24_1_1	NA	NA	0	1	5.09791398048	None	None	None	None	1
3.0.1	2019_Mar_12_0905	s	s	8	2	Capacity	13	ABS	0	0	1	2	24_1_2	NA	NA	0	1	7.21389222145	None	None	None	None	1
3.0.1	2019_Mar_12_0905	s	s	8	2	Capacity	14	1_1	1	1	1	3	23_1_3	0	2	1	0	2.88372898102	370.0	-277.0	374.0	-267.0	1
3.0.1	2019_Mar_12_0905	s	s	8	2	Capacity	15	ABS	0	0	1	1	24_1_1	NA	NA	0	1	4.24512004852	None	None	None	None	1
3.0.1	2019_Mar_12_0905	s	s	8	2	Capacity	16	ABS	0	0	1	2	24_1_2	NA	NA	0	1	6.83738994598	None	None	None	None	1
3.0.1	2019_Mar_12_0905	s	s	8	2	Capacity	17	ABS	0	0	1	4	24_1_4	NA	NA	0	1	3.74353098869	None	None	None	None	1
3.0.1	2019_Mar_12_0905	s	s	8	2	Capacity	18	ABS	0	0	1	1	24_1_1	NA	NA	0	1	7.37647080421	None	None	None	None	1
3.0.1	2019_Mar_12_0905	s	s	8	2	Capacity	19	ABS	0	0	1	3	24_1_3	NA	NA	0	1	6.66240692139	None	None	None	None	1
3.0.1	2019_Mar_12_0905	s	s	8	2	Capacity	20	ABS	0	0	1	4	24_1_4	NA	NA	0	1	4.18634605408	None	None	None	None	1
3.0.1	2019_Mar_12_0905	s	s	8	2	Capacity	21	ABS	0	0	1	3	24_1_3	NA	NA	0	1	4.72726297379	None	None	None	None	1
3.0.1	2019_Mar_12_0905	s	s	8	2	Capacity	22	ABS	0	0	1	3	24_1_3	NA	NA	0	1	6.23718380928	None	None	None	None	1
3.0.1	2019_Mar_12_0905	s	s	8	2	Capacity	23	1_2	1	2	1	4	23_1_4	0	2	1	0	0.920842170715	-298.0	-346.0	-303.0	-344.0	1
3.0.1	2019_Mar_12_0905	s	s	8	2	Capacity	24	ABS	0	0	1	2	24_1_2	NA	NA	0	1	7.67309594154	None	None	None	None	1
3.0.1	2019_Mar_12_0905	s	s	8	2	Capacity	25	ABS	0	0	1	2	24_1_2	NA	NA	0	1	9.82491898537	None	None	None	None	1
3.0.1	2019_Mar_12_0905	s	s	8	2	Capacity	26	ABS	0	0	1	1	24_1_1	NA	NA	0	1	5.49578690529	None	None	None	None	1
3.0.1	2019_Mar_12_0905	s	s	8	2	Capacity	27	1_1	1	1	1	3	23_1_3	0	2	1	0	4.17862391472	-102.0	-367.0	-99.0	-368.0	1
3.0.1	2019_Mar_12_0905	s	s	8	2	Capacity	28	1_4	1	4	1	3	23_1_3	0	1	1	0	0.864161968231	-345.0	284.0	-340.0	285.0	1
3.0.1	2019_Mar_12_0905	s	s	8	2	Capacity	29	1_1	1	1	1	2	23_1_2	0	1	1	0	4.40973210335	87.0	-195.0	81.0	-198.0	1
3.0.1	2019_Mar_12_0905	s	s	8	2	Capacity	30	1_2	1	2	1	1	23_1_1	0	-1	1	0	5.20062994957	-472.0	-11.0	-472.0	-16.0	1
3.0.1	2019_Mar_12_0905	s	s	8	2	Capacity	31	ABS	0	0	1	3	24_1_3	NA	NA	0	1	6.73481798172	None	None	None	None	1
3.0.1	2019_Mar_12_0905	s	s	8	2	Capacity	32	ABS	0	0	1	4	24_1_4	NA	NA	0	1	4.08039307594	None	None	None	None	1
3.0.1	2019_Mar_12_0905	s	s	8	2	Capacity	33	1_4	1	4	1	1	23_1_1	0	3	1	0	1.90751194954	531.0	-271.0	529.0	-264.0	1
3.0.1	2019_Mar_12_0905	s	s	8	2	Capacity	34	ABS	0	0	1	1	24_1_1	NA	NA	0	1	6.74477887154	None	None	None	None	1
3.0.1	2019_Mar_12_0905	s	s	8	2	Capacity	35	ABS	0	0	1	4	24_1_4	NA	NA	0	1	3.80990004539	None	None	None	None	1
3.0.1	2019_Mar_12_0905	s	s	8	2	Capacity	36	1_2	1	2	1	3	23_1_3	0	1	0	1	8.82015299797	-180.0	-230.0	None	None	0
3.0.1	2019_Mar_12_0905	s	s	8	2	Capacity	37	ABS	0	0	1	2	24_1_2	NA	NA	0	1	8.01257705688	None	None	None	None	1
3.0.1	2019_Mar_12_0905	s	s	8	2	Capacity	38	1_3	1	3	1	1	23_1_1	0	2	1	0	1.004155159	-184.0	231.0	-191.0	233.0	1
3.0.1	2019_Mar_12_0905	s	s	8	2	Capacity	39	1_3	1	3	1	4	23_1_4	0	-1	1	0	0.76377081871	-274.0	343.0	-273.0	344.0	1
3.0.1	2019_Mar_12_0905	s	s	8	2	Capacity	40	ABS	0	0	1	2	24_1_2	NA	NA	0	1	7.6277320385	None	None	None	None	1
3.0.1	2019_Mar_12_0905	s	s	8	2	Capacity	41	ABS	0	0	1	3	24_1_3	NA	NA	0	1	7.67207813263	None	None	None	None	1
3.0.1	2019_Mar_12_0905	s	s	8	2	Capacity	42	1_2	1	2	1	4	23_1_4	0	2	1	0	1.34370493889	97.0	-372.0	93.0	-376.0	1
3.0.1	2019_Mar_12_0905	s	s	8	2	Capacity	43	ABS	0	0	1	1	24_1_1	NA	NA	0	1	3.80991387367	None	None	None	None	1
3.0.1	2019_Mar_12_0905	s	s	8	2	Capacity	44	ABS	0	0	1	4	24_1_4	NA	NA	0	1	4.42150306702	None	None	None	None	1
3.0.1	2019_Mar_12_0905	s	s	8	2	Capacity	45	ABS	0	0	1	3	24_1_3	NA	NA	0	1	6.30330610275	None	None	None	None	1
3.0.1	2019_Mar_12_0905	s	s	8	2	Capacity	46	1_3	1	3	1	2	23_1_2	0	1	1	0	3.01016807556	-196.0	-361.0	-204.0	-357.0	1
3.0.1	2019_Mar_12_0905	s	s	8	2	Capacity	47	1_4	1	4	1	2	23_1_2	0	2	1	0	0.719584941864	439.0	-309.0	434.0	-313.0	1
3.0.1	2019_Mar_12_0905	s	s	8	2	Capacity	48	1_1	1	1	1	4	23_1_4	0	3	1	0	0.704943180084	282.0	-51.0	279.0	-47.0	1
3.0.1	2019_Mar_12_0905	s	s	8	2	Capacity	49	ABS	0	0	1	2	24_1_2	NA	NA	0	1	7.55279612541	None	None	None	None	1
3.0.1	2019_Mar_12_0905	s	s	8	2	Capacity	50	ABS	0	0	1	1	24_1_1	NA	NA	0	1	7.43234682083	None	None	None	None	1
3.0.1	2019_Mar_12_0905	s	s	8	2	Capacity	51	1_3	1	3	1	1	23_1_1	0	2	1	0	3.29859399796	382.0	130.0	379.0	131.0	1
3.0.1	2019_Mar_12_0905	s	s	8	2	Capacity	52	1_2	1	2	1	1	23_1_1	0	-1	1	0	5.7769639492	375.0	-244.0	377.0	-243.0	1
3.0.1	2019_Mar_12_0905	s	s	8	2	Capacity	53	ABS	0	0	1	2	24_1_2	NA	NA	0	1	9.80804514885	None	None	None	None	1
3.0.1	2019_Mar_12_0905	s	s	8	2	Capacity	54	1_4	1	4	1	1	23_1_1	0	3	1	0	0.687597990036	-148.0	-228.0	-145.0	-223.0	1
3.0.1	2019_Mar_12_0905	s	s	8	2	Capacity	55	ABS	0	0	1	4	24_1_4	NA	NA	0	1	2.77489089966	None	None	None	None	1
3.0.1	2019_Mar_12_0905	s	s	8	2	Capacity	56	1_2	1	2	1	4	23_1_4	0	2	1	0	0.893615007401	366.0	-406.0	365.0	-407.0	1
3.0.1	2019_Mar_12_0905	s	s	8	2	Capacity	57	1_4	1	4	1	3	23_1_3	0	1	1	0	0.860542058945	-191.0	-375.0	-187.0	-386.0	1
3.0.1	2019_Mar_12_0905	s	s	8	2	Capacity	58	ABS	0	0	1	4	24_1_4	NA	NA	0	1	4.46854996681	None	None	None	None	1
3.0.1	2019_Mar_12_0905	s	s	8	2	Capacity	59	ABS	0	0	1	4	24_1_4	NA	NA	0	1	4.05686807632	None	None	None	None	1
3.0.1	2019_Mar_12_0905	s	s	8	2	Capacity	60	ABS	0	0	1	3	24_1_3	NA	NA	0	1	5.83292412758	None	None	None	None	1
3.0.1	2019_Mar_12_0905	s	s	8	2	Capacity	61	1_1	1	1	1	4	23_1_4	0	3	1	0	0.769166946411	-465.0	154.0	-460.0	155.0	1
3.0.1	2019_Mar_12_0905	s	s	8	2	Capacity	62	ABS	0	0	1	1	24_1_1	NA	NA	0	1	5.24474000931	None	None	None	None	1
3.0.1	2019_Mar_12_0905	s	s	8	2	Capacity	63	1_1	1	1	1	3	23_1_3	0	2	1	0	1.04610300064	137.0	381.0	141.0	378.0	1
3.0.1	2019_Mar_12_0905	s	s	8	2	Capacity	64	1_3	1	3	1	4	23_1_4	0	-1	1	0	0.81082201004	-335.0	-83.0	-339.0	-83.0	1
3.0.1	2019_Mar_12_0905	s	s	8	2	Capacity	65	1_1	1	1	1	2	23_1_2	0	1	1	0	3.6268389225	370.0	-189.0	372.0	-184.0	1
3.0.1	2019_Mar_12_0905	s	s	8	2	Capacity	66	ABS	0	0	1	3	24_1_3	NA	NA	0	1	6.34149599075	None	None	None	None	1
3.0.1	2019_Mar_12_0905	s	s	8	2	Capacity	67	ABS	0	0	1	3	24_1_3	NA	NA	0	1	7.18546390533	None	None	None	None	1
3.0.1	2019_Mar_12_0905	s	s	8	2	Capacity	68	ABS	0	0	1	2	24_1_2	NA	NA	0	1	5.93860888481	None	None	None	None	1
3.0.1	2019_Mar_12_0905	s	s	8	2	Capacity	69	1_4	1	4	1	2	23_1_2	0	2	1	0	0.795651912689	-331.0	-301.0	-339.0	-302.0	1
3.0.1	2019_Mar_12_0905	s	s	8	2	Capacity	70	ABS	0	0	1	1	24_1_1	NA	NA	0	1	3.59019303322	None	None	None	None	1
3.0.1	2019_Mar_12_0905	s	s	8	2	Capacity	71	1_2	1	2	1	3	23_1_3	0	1	1	0	2.45180988312	-317.0	1.0	-313.0	-2.0	1
3.0.1	2019_Mar_12_0905	s	s	8	2	Capacity	72	1_3	1	3	1	2	23_1_2	0	1	1	0	4.62647891045	445.0	-79.0	448.0	-88.0	1
3.0.1	2019_Mar_12_0905	s	s	8	2	Capacity	73	ABS	0	0	1	2	24_1_2	NA	NA	0	1	8.36152911186	None	None	None	None	1
3.0.1	2019_Mar_12_0905	s	s	8	2	Capacity	74	ABS	0	0	1	3	24_1_3	NA	NA	0	1	5.95075416565	None	None	None	None	1
3.0.1	2019_Mar_12_0905	s	s	8	2	Capacity	75	1_2	1	2	1	3	23_1_3	0	1	1	0	4.01532411575	-54.0	-401.0	-54.0	-394.0	1
3.0.1	2019_Mar_12_0905	s	s	8	2	Capacity	76	ABS	0	0	1	3	24_1_3	NA	NA	0	1	7.50799298286	None	None	None	None	1
3.0.1	2019_Mar_12_0905	s	s	8	2	Capacity	77	1_4	1	4	1	2	23_1_2	0	2	1	0	0.704951047897	213.0	290.0	210.0	290.0	1
3.0.1	2019_Mar_12_0905	s	s	8	2	Capacity	78	1_2	1	2	1	4	23_1_4	0	2	1	0	0.951992034912	-43.0	-255.0	-46.0	-259.0	1
3.0.1	2019_Mar_12_0905	s	s	8	2	Capacity	79	ABS	0	0	1	4	24_1_4	NA	NA	0	1	2.29763913155	None	None	None	None	1
3.0.1	2019_Mar_12_0905	s	s	8	2	Capacity	80	1_3	1	3	1	1	23_1_1	0	2	1	0	1.04621195793	386.0	267.0	390.0	262.0	1
3.0.1	2019_Mar_12_0905	s	s	8	2	Capacity	81	1_3	1	3	1	2	23_1_2	0	1	1	0	4.25974988937	-302.0	-319.0	-312.0	-311.0	1
3.0.1	2019_Mar_12_0905	s	s	8	2	Capacity	82	ABS	0	0	1	4	24_1_4	NA	NA	0	1	3.00352501869	None	None	None	None	1
3.0.1	2019_Mar_12_0905	s	s	8	2	Capacity	83	ABS	0	0	1	3	24_1_3	NA	NA	0	1	5.72985887527	None	None	None	None	1
3.0.1	2019_Mar_12_0905	s	s	8	2	Capacity	84	ABS	0	0	1	2	24_1_2	NA	NA	0	1	5.16284990311	None	None	None	None	1
3.0.1	2019_Mar_12_0905	s	s	8	2	Capacity	85	1_1	1	1	1	2	23_1_2	0	1	1	0	1.63408517838	83.0	144.0	85.0	141.0	1
3.0.1	2019_Mar_12_0905	s	s	8	2	Capacity	86	1_1	1	1	1	4	23_1_4	0	3	1	0	0.780180931091	81.0	98.0	73.0	93.0	1
3.0.1	2019_Mar_12_0905	s	s	8	2	Capacity	87	1_2	1	2	1	1	23_1_1	0	-1	1	0	1.3194630146	-346.0	-191.0	-340.0	-196.0	1
3.0.1	2019_Mar_12_0905	s	s	8	2	Capacity	88	1_1	1	1	1	3	23_1_3	0	2	1	0	1.78184604645	-398.0	225.0	-397.0	229.0	1
3.0.1	2019_Mar_12_0905	s	s	8	2	Capacity	89	1_4	1	4	1	3	23_1_3	0	1	1	0	1.17540502548	-145.0	32.0	-148.0	33.0	1
3.0.1	2019_Mar_12_0905	s	s	8	2	Capacity	90	ABS	0	0	1	1	24_1_1	NA	NA	0	1	3.40537595749	None	None	None	None	1
3.0.1	2019_Mar_12_0905	s	s	8	2	Capacity	91	ABS	0	0	1	1	24_1_1	NA	NA	0	1	3.45121717453	None	None	None	None	1
3.0.1	2019_Mar_12_0905	s	s	8	2	Capacity	92	ABS	0	0	1	1	24_1_1	NA	NA	0	1	3.22180008888	None	None	None	None	1
3.0.1	2019_Mar_12_0905	s	s	8	2	Capacity	93	1_4	1	4	1	1	23_1_1	0	3	1	0	0.731390953064	70.0	-347.0	65.0	-351.0	1
3.0.1	2019_Mar_12_0905	s	s	8	2	Capacity	94	ABS	0	0	1	2	24_1_2	NA	NA	0	1	7.09126615524	None	None	None	None	1
3.0.1	2019_Mar_12_0905	s	s	8	2	Capacity	95	1_3	1	3	1	4	23_1_4	0	-1	1	0	0.851014137268	-364.0	11.0	-366.0	-2.0	1
3.0.1	2019_Mar_12_0905	s	s	8	2	Capacity	96	ABS	0	0	1	4	24_1_4	NA	NA	0	1	1.56385993958	None	None	None	None	1
3.0.1	2019_Mar_12_0905	s	s	8	2	SIC	1	1_1	1	1	1	3	23_1_3	0	2	1	0	0.990285873413	-183.0	104.0	-188.0	107.0	1
3.0.1	2019_Mar_12_0905	s	s	8	2	SIC	2	ABS	0	0	1	3	24_1_3	NA	NA	0	1	6.5032389164	None	None	None	None	1
3.0.1	2019_Mar_12_0905	s	s	8	2	SIC	3	ABS	0	0	3	2	24_3_2	NA	NA	0	1	5.14191889763	None	None	None	None	1
3.0.1	2019_Mar_12_0905	s	s	8	2	SIC	4	3_2	3	2	4	3	23_4_3	-1	1	1	0	0.805115222931	185.0	-120.0	180.0	-119.0	1
3.0.1	2019_Mar_12_0905	s	s	8	2	SIC	5	ABS	0	0	4	4	24_4_4	NA	NA	0	1	1.35702705383	None	None	None	None	1
3.0.1	2019_Mar_12_0905	s	s	8	2	SIC	6	ABS	0	0	4	1	24_4_1	NA	NA	0	1	2.5548222065	None	None	None	None	1
3.0.1	2019_Mar_12_0905	s	s	8	2	SIC	7	4_4	4	4	1	2	23_1_2	3	2	1	0	0.613817930222	-202.0	-176.0	-210.0	-177.0	1
3.0.1	2019_Mar_12_0905	s	s	8	2	SIC	8	2_4	2	4	1	2	23_1_2	-1	2	1	0	0.966608047485	173.0	127.0	168.0	119.0	1
3.0.1	2019_Mar_12_0905	s	s	8	2	SIC	9	ABS	0	0	1	2	24_1_2	NA	NA	0	1	6.42557907104	None	None	None	None	1
3.0.1	2019_Mar_12_0905	s	s	8	2	SIC	10	3_4	3	4	3	3	23_3_3	0	1	1	0	0.756246089935	-205.0	13.0	-199.0	8.0	1
3.0.1	2019_Mar_12_0905	s	s	8	2	SIC	11	3_4	3	4	2	1	23_2_1	1	3	1	0	0.893187046051	-436.0	-75.0	-437.0	-78.0	1
3.0.1	2019_Mar_12_0905	s	s	8	2	SIC	12	ABS	0	0	1	3	24_1_3	NA	NA	0	1	6.27975201607	None	None	None	None	1
3.0.1	2019_Mar_12_0905	s	s	8	2	SIC	13	3_3	3	3	1	1	23_1_1	2	2	1	0	0.721889972687	-117.0	-239.0	-126.0	-242.0	1
3.0.1	2019_Mar_12_0905	s	s	8	2	SIC	14	4_2	4	2	3	1	23_3_1	1	-1	1	0	0.540325164795	-396.0	319.0	-394.0	316.0	1
3.0.1	2019_Mar_12_0905	s	s	8	2	SIC	15	4_3	4	3	1	4	23_1_4	3	-1	1	0	0.563914060593	-140.0	-47.0	-134.0	-46.0	1
3.0.1	2019_Mar_12_0905	s	s	8	2	SIC	16	3_1	3	1	2	4	23_2_4	1	3	1	0	0.716763973236	450.0	-76.0	451.0	-72.0	1
3.0.1	2019_Mar_12_0905	s	s	8	2	SIC	17	3_1	3	1	4	1	23_4_1	-1	0	1	0	0.575992107391	265.0	-60.0	260.0	-61.0	1
3.0.1	2019_Mar_12_0905	s	s	8	2	SIC	18	ABS	0	0	2	1	24_2_1	NA	NA	0	1	4.22656106949	None	None	None	None	1
3.0.1	2019_Mar_12_0905	s	s	8	2	SIC	19	1_3	1	3	1	1	23_1_1	0	2	1	0	2.06265306473	-39.0	113.0	-42.0	114.0	1
3.0.1	2019_Mar_12_0905	s	s	8	2	SIC	20	ABS	0	0	3	3	24_3_3	NA	NA	0	1	5.55343389511	None	None	None	None	1
3.0.1	2019_Mar_12_0905	s	s	8	2	SIC	21	ABS	0	0	4	3	24_4_3	NA	NA	0	1	4.72066903114	None	None	None	None	1
3.0.1	2019_Mar_12_0905	s	s	8	2	SIC	22	2_1	2	1	1	3	23_1_3	-1	2	1	0	2.88072085381	539.0	-254.0	537.0	-251.0	1
3.0.1	2019_Mar_12_0905	s	s	8	2	SIC	23	4_2	4	2	3	3	23_3_3	1	1	1	0	0.705073833466	26.0	-134.0	14.0	-129.0	1
3.0.1	2019_Mar_12_0905	s	s	8	2	SIC	24	4_2	4	2	2	3	23_2_3	2	1	1	0	0.502046108246	-435.0	-34.0	-428.0	-33.0	1
3.0.1	2019_Mar_12_0905	s	s	8	2	SIC	25	ABS	0	0	4	2	24_4_2	NA	NA	0	1	6.60910105705	None	None	None	None	1
3.0.1	2019_Mar_12_0905	s	s	8	2	SIC	26	ABS	0	0	3	2	24_3_2	NA	NA	0	1	8.76764702797	None	None	None	None	1
3.0.1	2019_Mar_12_0905	s	s	8	2	SIC	27	ABS	0	0	3	3	24_3_3	NA	NA	0	1	4.86836695671	None	None	None	None	1
3.0.1	2019_Mar_12_0905	s	s	8	2	SIC	28	1_1	1	1	3	4	23_3_4	2	3	1	0	0.613772153854	-158.0	-295.0	-162.0	-307.0	1
3.0.1	2019_Mar_12_0905	s	s	8	2	SIC	29	ABS	0	0	2	2	24_2_2	NA	NA	0	1	7.87248396873	None	None	None	None	1
3.0.1	2019_Mar_12_0905	s	s	8	2	SIC	30	2_1	2	1	1	2	23_1_2	-1	1	1	0	4.89643716812	-416.0	-129.0	-422.0	-133.0	1
3.0.1	2019_Mar_12_0905	s	s	8	2	SIC	31	1_4	1	4	3	1	23_3_1	2	3	1	0	0.810706853867	66.0	386.0	75.0	385.0	1
3.0.1	2019_Mar_12_0905	s	s	8	2	SIC	32	2_2	2	2	1	1	23_1_1	-1	-1	1	0	3.22178292274	397.0	74.0	405.0	68.0	1
3.0.1	2019_Mar_12_0905	s	s	8	2	SIC	33	ABS	0	0	1	4	24_1_4	NA	NA	0	1	3.73931097984	None	None	None	None	1
3.0.1	2019_Mar_12_0905	s	s	8	2	SIC	34	ABS	0	0	4	3	24_4_3	NA	NA	0	1	3.59127807617	None	None	None	None	1
3.0.1	2019_Mar_12_0905	s	s	8	2	SIC	35	ABS	0	0	4	3	24_4_3	NA	NA	0	1	3.73930811882	None	None	None	None	1
3.0.1	2019_Mar_12_0905	s	s	8	2	SIC	36	1_2	1	2	4	1	23_4_1	3	-1	1	0	0.626718044281	490.0	-374.0	487.0	-375.0	1
3.0.1	2019_Mar_12_0905	s	s	8	2	SIC	37	2_4	2	4	4	2	23_4_2	2	2	1	0	0.637445926666	492.0	304.0	489.0	303.0	1
3.0.1	2019_Mar_12_0905	s	s	8	2	SIC	38	ABS	0	0	3	2	24_3_2	NA	NA	0	1	7.0137860775	None	None	None	None	1
3.0.1	2019_Mar_12_0905	s	s	8	2	SIC	39	3_2	3	2	4	1	23_4_1	-1	-1	1	0	0.639528989792	48.0	392.0	44.0	392.0	1
3.0.1	2019_Mar_12_0905	s	s	8	2	SIC	40	ABS	0	0	2	3	24_2_3	NA	NA	0	1	5.20063996315	None	None	None	None	1
3.0.1	2019_Mar_12_0905	s	s	8	2	SIC	41	1_3	1	3	4	2	23_4_2	3	1	1	0	0.58732509613	512.0	119.0	505.0	116.0	1
3.0.1	2019_Mar_12_0905	s	s	8	2	SIC	42	ABS	0	0	3	2	24_3_2	NA	NA	0	1	7.17856478691	None	None	None	None	1
3.0.1	2019_Mar_12_0905	s	s	8	2	SIC	43	ABS	0	0	1	3	24_1_3	NA	NA	0	1	6.0327808857	None	None	None	None	1
3.0.1	2019_Mar_12_0905	s	s	8	2	SIC	44	ABS	0	0	3	4	24_3_4	NA	NA	0	1	5.67664289474	None	None	None	None	1
3.0.1	2019_Mar_12_0905	s	s	8	2	SIC	45	3_4	3	4	4	1	23_4_1	-1	3	1	0	0.758100032806	-360.0	313.0	-360.0	314.0	1
3.0.1	2019_Mar_12_0905	s	s	8	2	SIC	46	ABS	0	0	3	3	24_3_3	NA	NA	0	1	4.56650280952	None	None	None	None	1
3.0.1	2019_Mar_12_0905	s	s	8	2	SIC	47	4_2	4	2	1	1	23_1_1	3	-1	1	0	0.810830116272	-61.0	156.0	-51.0	156.0	1
3.0.1	2019_Mar_12_0905	s	s	8	2	SIC	48	ABS	0	0	3	4	24_3_4	NA	NA	0	1	2.45730113983	None	None	None	None	1
3.0.1	2019_Mar_12_0905	s	s	8	2	SIC	49	4_3	4	3	4	4	23_4_4	0	-1	1	0	0.664193868637	-337.0	-61.0	-335.0	-61.0	1
3.0.1	2019_Mar_12_0905	s	s	8	2	SIC	50	ABS	0	0	1	2	24_1_2	NA	NA	0	1	6.82072687149	None	None	None	None	1
3.0.1	2019_Mar_12_0905	s	s	8	2	SIC	51	ABS	0	0	2	3	24_2_3	NA	NA	0	1	4.37489891052	None	None	None	None	1
3.0.1	2019_Mar_12_0905	s	s	8	2	SIC	52	ABS	0	0	2	4	24_2_4	NA	NA	0	1	3.20617794991	None	None	None	None	1
3.0.1	2019_Mar_12_0905	s	s	8	2	SIC	53	2_1	2	1	1	1	23_1_1	-1	0	1	0	2.54456400871	-114.0	173.0	-110.0	173.0	1
3.0.1	2019_Mar_12_0905	s	s	8	2	SIC	54	1_4	1	4	2	4	23_2_4	1	0	1	0	2.01043081284	-528.0	342.0	-537.0	344.0	1
3.0.1	2019_Mar_12_0905	s	s	8	2	SIC	55	ABS	0	0	3	2	24_3_2	NA	NA	0	1	10.066893816	None	None	None	None	1
3.0.1	2019_Mar_12_0905	s	s	8	2	SIC	56	3_3	3	3	3	1	23_3_1	0	2	1	0	0.990807056427	-282.0	144.0	-277.0	151.0	1
3.0.1	2019_Mar_12_0905	s	s	8	2	SIC	57	ABS	0	0	2	3	24_2_3	NA	NA	0	1	8.34064507484	None	None	None	None	1
3.0.1	2019_Mar_12_0905	s	s	8	2	SIC	58	ABS	0	0	1	4	24_1_4	NA	NA	0	1	4.25023698807	None	None	None	None	1
3.0.1	2019_Mar_12_0905	s	s	8	2	SIC	59	2_2	2	2	1	4	23_1_4	-1	2	1	0	0.881425142288	175.0	34.0	180.0	37.0	1
3.0.1	2019_Mar_12_0905	s	s	8	2	SIC	60	3_1	3	1	3	2	23_3_2	0	1	1	0	3.65704393387	-391.0	-88.0	-399.0	-92.0	1
3.0.1	2019_Mar_12_0905	s	s	8	2	SIC	61	ABS	0	0	3	1	24_3_1	NA	NA	0	1	5.92690706253	None	None	None	None	1
3.0.1	2019_Mar_12_0905	s	s	8	2	SIC	62	3_3	3	3	1	2	23_1_2	2	1	1	0	1.07530999184	-211.0	325.0	-211.0	329.0	1
3.0.1	2019_Mar_12_0905	s	s	8	2	SIC	63	2_3	2	3	1	4	23_1_4	-1	-1	1	0	1.61350703239	282.0	44.0	273.0	46.0	1
3.0.1	2019_Mar_12_0905	s	s	8	2	SIC	64	ABS	0	0	4	3	24_4_3	NA	NA	0	1	4.574406147	None	None	None	None	1
3.0.1	2019_Mar_12_0905	s	s	8	2	SIC	65	ABS	0	0	2	2	24_2_2	NA	NA	0	1	7.59700202942	None	None	None	None	1
3.0.1	2019_Mar_12_0905	s	s	8	2	SIC	66	3_2	3	2	3	1	23_3_1	0	-1	1	0	2.15672922134	379.0	52.0	378.0	59.0	1
3.0.1	2019_Mar_12_0905	s	s	8	2	SIC	67	ABS	0	0	3	2	24_3_2	NA	NA	0	1	5.83893990517	None	None	None	None	1
3.0.1	2019_Mar_12_0905	s	s	8	2	SIC	68	ABS	0	0	4	4	24_4_4	NA	NA	0	1	2.42222809792	None	None	None	None	1
3.0.1	2019_Mar_12_0905	s	s	8	2	SIC	69	2_4	2	4	1	1	23_1_1	-1	3	1	0	0.799101114273	-246.0	-46.0	-252.0	-49.0	1
3.0.1	2019_Mar_12_0905	s	s	8	2	SIC	70	4_3	4	3	2	1	23_2_1	2	2	1	0	0.627830028534	-259.0	-125.0	-257.0	-124.0	1
3.0.1	2019_Mar_12_0905	s	s	8	2	SIC	71	ABS	0	0	4	2	24_4_2	NA	NA	0	1	6.87969493866	None	None	None	None	1
3.0.1	2019_Mar_12_0905	s	s	8	2	SIC	72	2_4	2	4	4	1	23_4_1	2	3	1	0	0.634397983551	-254.0	-161.0	-260.0	-159.0	1
3.0.1	2019_Mar_12_0905	s	s	8	2	SIC	73	ABS	0	0	1	1	24_1_1	NA	NA	0	1	6.18562412262	None	None	None	None	1
3.0.1	2019_Mar_12_0905	s	s	8	2	SIC	74	1_3	1	3	2	3	23_2_3	1	0	1	0	3.62617611885	-505.0	399.0	-505.0	391.0	1
3.0.1	2019_Mar_12_0905	s	s	8	2	SIC	75	4_3	4	3	1	2	23_1_2	3	1	1	0	0.543136119843	256.0	96.0	254.0	90.0	1
3.0.1	2019_Mar_12_0905	s	s	8	2	SIC	76	1_2	1	2	4	3	23_4_3	3	1	1	0	0.568696022034	-276.0	-299.0	-280.0	-297.0	1
3.0.1	2019_Mar_12_0905	s	s	8	2	SIC	77	2_1	2	1	1	4	23_1_4	-1	3	1	0	0.599198102951	153.0	-5.0	154.0	0.0	1
3.0.1	2019_Mar_12_0905	s	s	8	2	SIC	78	ABS	0	0	1	2	24_1_2	NA	NA	0	1	7.84686613083	None	None	None	None	1
3.0.1	2019_Mar_12_0905	s	s	8	2	SIC	79	2_4	2	4	3	2	23_3_2	1	2	1	0	0.780592918396	-424.0	410.0	-416.0	408.0	1
3.0.1	2019_Mar_12_0905	s	s	8	2	SIC	80	1_2	1	2	2	3	23_2_3	1	1	1	0	1.6341278553	167.0	131.0	165.0	134.0	1
3.0.1	2019_Mar_12_0905	s	s	8	2	SIC	81	ABS	0	0	3	3	24_3_3	NA	NA	0	1	7.92087697983	None	None	None	None	1
3.0.1	2019_Mar_12_0905	s	s	8	2	SIC	82	2_2	2	2	3	3	23_3_3	1	1	1	0	1.02789497375	-354.0	254.0	-355.0	251.0	1
3.0.1	2019_Mar_12_0905	s	s	8	2	SIC	83	1_2	1	2	1	3	23_1_3	0	1	1	0	2.79848313332	-172.0	114.0	-168.0	113.0	1
3.0.1	2019_Mar_12_0905	s	s	8	2	SIC	84	3_3	3	3	2	4	23_2_4	1	-1	1	0	0.907814979553	356.0	63.0	361.0	70.0	1
3.0.1	2019_Mar_12_0905	s	s	8	2	SIC	85	ABS	0	0	3	4	24_3_4	NA	NA	0	1	2.89893603325	None	None	None	None	1
3.0.1	2019_Mar_12_0905	s	s	8	2	SIC	86	2_3	2	3	4	4	23_4_4	2	-1	1	0	0.684387207031	45.0	-315.0	44.0	-317.0	1
3.0.1	2019_Mar_12_0905	s	s	8	2	SIC	87	ABS	0	0	4	3	24_4_3	NA	NA	0	1	5.28295612335	None	None	None	None	1
3.0.1	2019_Mar_12_0905	s	s	8	2	SIC	88	ABS	0	0	3	2	24_3_2	NA	NA	0	1	7.95518302917	None	None	None	None	1
3.0.1	2019_Mar_12_0905	s	s	8	2	SIC	89	4_1	4	1	4	2	23_4_2	0	1	1	0	4.40974593163	-24.0	-306.0	-28.0	-305.0	1
3.0.1	2019_Mar_12_0905	s	s	8	2	SIC	90	ABS	0	0	4	4	24_4_4	NA	NA	0	1	2.66684699059	None	None	None	None	1
3.0.1	2019_Mar_12_0905	s	s	8	2	SIC	91	ABS	0	0	2	1	24_2_1	NA	NA	0	1	7.35469102859	None	None	None	None	1
3.0.1	2019_Mar_12_0905	s	s	8	2	SIC	92	3_2	3	2	3	4	23_3_4	0	2	1	0	1.33269619942	537.0	-75.0	536.0	-76.0	1
3.0.1	2019_Mar_12_0905	s	s	8	2	SIC	93	ABS	0	0	1	4	24_1_4	NA	NA	0	1	3.49237394333	None	None	None	None	1
3.0.1	2019_Mar_12_0905	s	s	8	2	SIC	94	ABS	0	0	2	1	24_2_1	NA	NA	0	1	5.58032202721	None	None	None	None	1
3.0.1	2019_Mar_12_0905	s	s	8	2	SIC	95	2_1	2	1	4	2	23_4_2	2	1	1	0	0.740242004395	-101.0	-153.0	-101.0	-153.0	1
3.0.1	2019_Mar_12_0905	s	s	8	2	SIC	96	ABS	0	0	3	2	24_3_2	NA	NA	0	1	6.99716687202	None	None	None	None	1
3.0.1	2019_Mar_12_0905	s	s	8	2	SIC	97	2_1	2	1	4	4	23_4_4	2	3	1	0	0.646105051041	-7.0	193.0	-1.0	191.0	1
3.0.1	2019_Mar_12_0905	s	s	8	2	SIC	98	4_1	4	1	3	2	23_3_2	1	1	1	0	0.853743076324	-94.0	259.0	-91.0	253.0	1
3.0.1	2019_Mar_12_0905	s	s	8	2	SIC	99	ABS	0	0	4	4	24_4_4	NA	NA	0	1	2.17505216599	None	None	None	None	1
3.0.1	2019_Mar_12_0905	s	s	8	2	SIC	100	2_3	2	3	1	1	23_1_1	-1	2	1	0	1.86425495148	465.0	-176.0	465.0	-190.0	1
3.0.1	2019_Mar_12_0905	s	s	8	2	SIC	101	1_2	1	2	2	1	23_2_1	1	-1	1	0	1.54013800621	90.0	225.0	93.0	222.0	1
3.0.1	2019_Mar_12_0905	s	s	8	2	SIC	102	4_2	4	2	1	4	23_1_4	3	2	1	0	0.57554602623	-340.0	-291.0	-344.0	-290.0	1
3.0.1	2019_Mar_12_0905	s	s	8	2	SIC	103	ABS	0	0	2	2	24_2_2	NA	NA	0	1	8.25854802132	None	None	None	None	1
3.0.1	2019_Mar_12_0905	s	s	8	2	SIC	104	2_4	2	4	1	4	23_1_4	-1	0	1	0	1.77522182465	-6.0	-86.0	-3.0	-79.0	1
3.0.1	2019_Mar_12_0905	s	s	8	2	SIC	105	ABS	0	0	1	3	24_1_3	NA	NA	0	1	4.86145591736	None	None	None	None	1
3.0.1	2019_Mar_12_0905	s	s	8	2	SIC	106	1_2	1	2	4	2	23_4_2	3	0	1	0	0.693184137344	-308.0	42.0	-302.0	38.0	1
3.0.1	2019_Mar_12_0905	s	s	8	2	SIC	107	3_3	3	3	4	1	23_4_1	-1	2	1	0	0.621533155441	82.0	72.0	85.0	67.0	1
3.0.1	2019_Mar_12_0905	s	s	8	2	SIC	108	ABS	0	0	4	4	24_4_4	NA	NA	0	1	3.44113206863	None	None	None	None	1
3.0.1	2019_Mar_12_0905	s	s	8	2	SIC	109	ABS	0	0	2	2	24_2_2	NA	NA	0	1	5.34220504761	None	None	None	None	1
3.0.1	2019_Mar_12_0905	s	s	8	2	SIC	110	1_2	1	2	1	4	23_1_4	0	2	1	0	0.834797143936	-79.0	-288.0	-78.0	-291.0	1
3.0.1	2019_Mar_12_0905	s	s	8	2	SIC	111	3_4	3	4	4	4	23_4_4	-1	0	1	0	0.775517940521	478.0	-232.0	475.0	-225.0	1
3.0.1	2019_Mar_12_0905	s	s	8	2	SIC	112	4_1	4	1	1	3	23_1_3	3	2	1	0	0.59916806221	376.0	51.0	379.0	56.0	1
3.0.1	2019_Mar_12_0905	s	s	8	2	SIC	113	1_4	1	4	1	3	23_1_3	0	1	1	0	1.42258906364	137.0	240.0	132.0	229.0	1
3.0.1	2019_Mar_12_0905	s	s	8	2	SIC	114	ABS	0	0	3	2	24_3_2	NA	NA	0	1	5.31423521042	None	None	None	None	1
3.0.1	2019_Mar_12_0905	s	s	8	2	SIC	115	ABS	0	0	2	3	24_2_3	NA	NA	0	1	4.72194290161	None	None	None	None	1
3.0.1	2019_Mar_12_0905	s	s	8	2	SIC	116	1_1	1	1	4	2	23_4_2	3	1	1	0	0.540804862976	-127.0	90.0	-121.0	87.0	1
3.0.1	2019_Mar_12_0905	s	s	8	2	SIC	117	ABS	0	0	2	4	24_2_4	NA	NA	0	1	2.92083001137	None	None	None	None	1
3.0.1	2019_Mar_12_0905	s	s	8	2	SIC	118	ABS	0	0	3	2	24_3_2	NA	NA	0	1	6.69134998322	None	None	None	None	1
3.0.1	2019_Mar_12_0905	s	s	8	2	SIC	119	2_2	2	2	3	1	23_3_1	1	-1	1	0	0.709761142731	-143.0	-293.0	-144.0	-292.0	1
3.0.1	2019_Mar_12_0905	s	s	8	2	SIC	120	ABS	0	0	4	1	24_4_1	NA	NA	0	1	3.82172894478	None	None	None	None	1
3.0.1	2019_Mar_12_0905	s	s	8	2	SIC	121	ABS	0	0	4	2	24_4_2	NA	NA	0	1	6.04457688332	None	None	None	None	1
3.0.1	2019_Mar_12_0905	s	s	8	2	SIC	122	ABS	0	0	3	2	24_3_2	NA	NA	0	1	5.4799849987	None	None	None	None	1
3.0.1	2019_Mar_12_0905	s	s	8	2	SIC	123	4_1	4	1	1	2	23_1_2	3	1	1	0	0.634407997131	236.0	311.0	244.0	314.0	1
3.0.1	2019_Mar_12_0905	s	s	8	2	SIC	124	2_3	2	3	4	2	23_4_2	2	1	1	0	0.587433815002	102.0	29.0	99.0	29.0	1
3.0.1	2019_Mar_12_0905	s	s	8	2	SIC	125	ABS	0	0	1	4	24_1_4	NA	NA	0	1	2.09276604652	None	None	None	None	1
3.0.1	2019_Mar_12_0905	s	s	8	2	SIC	126	1_3	1	3	4	4	23_4_4	3	-1	1	0	0.528546094894	-19.0	13.0	-27.0	12.0	1
3.0.1	2019_Mar_12_0905	s	s	8	2	SIC	127	ABS	0	0	2	1	24_2_1	NA	NA	0	1	4.6713950634	None	None	None	None	1
3.0.1	2019_Mar_12_0905	s	s	8	2	SIC	128	4_2	4	2	1	3	23_1_3	3	1	1	0	0.575607061386	-226.0	-245.0	-219.0	-239.0	1
3.0.1	2019_Mar_12_0905	s	s	8	2	SIC	129	3_2	3	2	1	4	23_1_4	2	2	1	0	0.681493997574	-93.0	-363.0	-89.0	-375.0	1
3.0.1	2019_Mar_12_0905	s	s	8	2	SIC	130	ABS	0	0	3	3	24_3_3	NA	NA	0	1	4.90663599968	None	None	None	None	1
3.0.1	2019_Mar_12_0905	s	s	8	2	SIC	131	2_2	2	2	4	4	23_4_4	2	2	1	0	0.599128007889	408.0	46.0	411.0	43.0	1
3.0.1	2019_Mar_12_0905	s	s	8	2	SIC	132	ABS	0	0	4	3	24_4_3	NA	NA	0	1	5.04477500916	None	None	None	None	1
3.0.1	2019_Mar_12_0905	s	s	8	2	SIC	133	ABS	0	0	1	4	24_1_4	NA	NA	0	1	4.27309608459	None	None	None	None	1
3.0.1	2019_Mar_12_0905	s	s	8	2	SIC	134	1_1	1	1	1	2	23_1_2	0	1	1	0	3.9421889782	527.0	-345.0	530.0	-344.0	1
3.0.1	2019_Mar_12_0905	s	s	8	2	SIC	135	ABS	0	0	2	3	24_2_3	NA	NA	0	1	6.62088108063	None	None	None	None	1
3.0.1	2019_Mar_12_0905	s	s	8	2	SIC	136	4_3	4	3	2	4	23_2_4	2	-1	1	0	0.716789007187	-390.0	-355.0	-391.0	-347.0	1
3.0.1	2019_Mar_12_0905	s	s	8	2	SIC	137	2_2	2	2	2	1	23_2_1	0	-1	0	1	3.8540430069	483.0	-341.0	None	None	0
3.0.1	2019_Mar_12_0905	s	s	8	2	SIC	138	ABS	0	0	4	2	24_4_2	NA	NA	0	1	6.69137597084	None	None	None	None	1
3.0.1	2019_Mar_12_0905	s	s	8	2	SIC	139	4_2	4	2	2	2	23_2_2	2	0	1	0	0.575565099716	-329.0	-396.0	-325.0	-389.0	1
3.0.1	2019_Mar_12_0905	s	s	8	2	SIC	140	3_1	3	1	4	2	23_4_2	-1	1	1	0	0.555052995682	-93.0	-295.0	-89.0	-302.0	1
3.0.1	2019_Mar_12_0905	s	s	8	2	SIC	141	1_2	1	2	4	4	23_4_4	3	2	1	0	0.70988702774	-42.0	-214.0	-36.0	-217.0	1
3.0.1	2019_Mar_12_0905	s	s	8	2	SIC	142	ABS	0	0	1	1	24_1_1	NA	NA	0	1	3.76279211044	None	None	None	None	1
3.0.1	2019_Mar_12_0905	s	s	8	2	SIC	143	3_4	3	4	1	2	23_1_2	2	2	1	0	0.875110864639	409.0	394.0	416.0	395.0	1
3.0.1	2019_Mar_12_0905	s	s	8	2	SIC	144	ABS	0	0	3	3	24_3_3	NA	NA	0	1	5.71526193619	None	None	None	None	1
3.0.1	2019_Mar_12_0905	s	s	8	2	SIC	145	3_2	3	2	1	3	23_1_3	2	1	1	0	0.687460899353	-103.0	203.0	-109.0	195.0	1
3.0.1	2019_Mar_12_0905	s	s	8	2	SIC	146	2_4	2	4	2	2	23_2_2	0	2	1	0	0.810796976089	302.0	179.0	294.0	183.0	1
3.0.1	2019_Mar_12_0905	s	s	8	2	SIC	147	ABS	0	0	2	4	24_2_4	NA	NA	0	1	2.84538292885	None	None	None	None	1
3.0.1	2019_Mar_12_0905	s	s	8	2	SIC	148	3_2	3	2	2	1	23_2_1	1	-1	1	0	0.780424118042	298.0	-401.0	305.0	-400.0	1
3.0.1	2019_Mar_12_0905	s	s	8	2	SIC	149	4_2	4	2	4	1	23_4_1	0	-1	1	0	5.00263690948	-331.0	18.0	-326.0	8.0	1
3.0.1	2019_Mar_12_0905	s	s	8	2	SIC	150	ABS	0	0	3	4	24_3_4	NA	NA	0	1	2.98659992218	None	None	None	None	1
3.0.1	2019_Mar_12_0905	s	s	8	2	SIC	151	1_4	1	4	4	2	23_4_2	3	2	1	0	0.613846063614	352.0	-301.0	349.0	-302.0	1
3.0.1	2019_Mar_12_0905	s	s	8	2	SIC	152	ABS	0	0	2	1	24_2_1	NA	NA	0	1	9.17762303352	None	None	None	None	1
3.0.1	2019_Mar_12_0905	s	s	8	2	SIC	153	ABS	0	0	4	4	24_4_4	NA	NA	0	1	3.53937005997	None	None	None	None	1
3.0.1	2019_Mar_12_0905	s	s	8	2	SIC	154	4_3	4	3	2	3	23_2_3	2	0	1	0	0.815234899521	259.0	-194.0	252.0	-188.0	1
3.0.1	2019_Mar_12_0905	s	s	8	2	SIC	155	2_4	2	4	3	1	23_3_1	1	3	1	0	0.913898944855	443.0	311.0	443.0	301.0	1
3.0.1	2019_Mar_12_0905	s	s	8	2	SIC	156	ABS	0	0	2	1	24_2_1	NA	NA	0	1	6.50841283798	None	None	None	None	1
3.0.1	2019_Mar_12_0905	s	s	8	2	SIC	157	4_4	4	4	2	4	23_2_4	2	0	1	0	0.651216983795	-297.0	9.0	-297.0	9.0	1
3.0.1	2019_Mar_12_0905	s	s	8	2	SIC	158	ABS	0	0	2	3	24_2_3	NA	NA	0	1	8.25854802132	None	None	None	None	1
3.0.1	2019_Mar_12_0905	s	s	8	2	SIC	159	ABS	0	0	3	1	24_3_1	NA	NA	0	1	3.78932118416	None	None	None	None	1
3.0.1	2019_Mar_12_0905	s	s	8	2	SIC	160	1_4	1	4	4	1	23_4_1	3	3	1	0	0.601999998093	111.0	-196.0	106.0	-187.0	1
3.0.1	2019_Mar_12_0905	s	s	8	2	SIC	161	1_1	1	1	3	3	23_3_3	2	2	1	0	0.796956062317	141.0	319.0	130.0	320.0	1
3.0.1	2019_Mar_12_0905	s	s	8	2	SIC	162	2_2	2	2	3	4	23_3_4	1	2	1	0	0.780850887299	-489.0	-50.0	-476.0	-46.0	1
3.0.1	2019_Mar_12_0905	s	s	8	2	SIC	163	2_2	2	2	4	1	23_4_1	2	-1	1	0	0.646130084991	-310.0	378.0	-318.0	380.0	1
3.0.1	2019_Mar_12_0905	s	s	8	2	SIC	164	4_4	4	4	3	1	23_3_1	1	3	1	0	0.646159887314	374.0	153.0	364.0	158.0	1
3.0.1	2019_Mar_12_0905	s	s	8	2	SIC	165	ABS	0	0	4	2	24_4_2	NA	NA	0	1	5.1205830574	None	None	None	None	1
3.0.1	2019_Mar_12_0905	s	s	8	2	SIC	166	ABS	0	0	4	4	24_4_4	NA	NA	0	1	4.08045697212	None	None	None	None	1
3.0.1	2019_Mar_12_0905	s	s	8	2	SIC	167	4_4	4	4	2	1	23_2_1	2	3	1	0	0.651314973831	-16.0	187.0	-22.0	192.0	1
3.0.1	2019_Mar_12_0905	s	s	8	2	SIC	168	ABS	0	0	1	3	24_1_3	NA	NA	0	1	5.8329770565	None	None	None	None	1
3.0.1	2019_Mar_12_0905	s	s	8	2	SIC	169	4_2	4	2	1	2	23_1_2	3	0	1	0	0.651048183441	333.0	-391.0	330.0	-391.0	1
3.0.1	2019_Mar_12_0905	s	s	8	2	SIC	170	3_3	3	3	2	3	23_2_3	1	0	1	0	0.716767072678	-29.0	-124.0	-35.0	-130.0	1
3.0.1	2019_Mar_12_0905	s	s	8	2	SIC	171	4_4	4	4	1	4	23_1_4	3	0	1	0	0.634434938431	-179.0	37.0	-183.0	26.0	1
3.0.1	2019_Mar_12_0905	s	s	8	2	SIC	172	3_1	3	1	1	4	23_1_4	2	3	1	0	0.921543836594	521.0	372.0	524.0	372.0	1
3.0.1	2019_Mar_12_0905	s	s	8	2	SIC	173	4_4	4	4	1	3	23_1_3	3	1	1	0	0.563787937164	-323.0	158.0	-311.0	165.0	1
3.0.1	2019_Mar_12_0905	s	s	8	2	SIC	174	2_2	2	2	4	2	23_4_2	2	0	1	0	0.619492053986	294.0	-392.0	285.0	-387.0	1
3.0.1	2019_Mar_12_0905	s	s	8	2	SIC	175	4_1	4	1	1	1	23_1_1	3	0	1	0	0.50164604187	368.0	13.0	368.0	16.0	1
3.0.1	2019_Mar_12_0905	s	s	8	2	SIC	176	1_3	1	3	3	1	23_3_1	2	2	1	0	0.731391906738	480.0	-368.0	482.0	-368.0	1
3.0.1	2019_Mar_12_0905	s	s	8	2	SIC	177	4_3	4	3	1	1	23_1_1	3	2	1	0	0.504976987839	173.0	99.0	184.0	102.0	1
3.0.1	2019_Mar_12_0905	s	s	8	2	SIC	178	ABS	0	0	1	4	24_1_4	NA	NA	0	1	4.76255488396	None	None	None	None	1
3.0.1	2019_Mar_12_0905	s	s	8	2	SIC	179	1_3	1	3	1	4	23_1_4	0	-1	1	0	1.41508388519	-257.0	-374.0	-264.0	-369.0	1
3.0.1	2019_Mar_12_0905	s	s	8	2	SIC	180	ABS	0	0	3	1	24_3_1	NA	NA	0	1	3.98931384087	None	None	None	None	1
3.0.1	2019_Mar_12_0905	s	s	8	2	SIC	181	3_2	3	2	1	2	23_1_2	2	0	1	0	0.795773029327	326.0	-41.0	328.0	-46.0	1
3.0.1	2019_Mar_12_0905	s	s	8	2	SIC	182	ABS	0	0	4	2	24_4_2	NA	NA	0	1	7.53815698624	None	None	None	None	1
3.0.1	2019_Mar_12_0905	s	s	8	2	SIC	183	ABS	0	0	4	4	24_4_4	NA	NA	0	1	3.32766413689	None	None	None	None	1
3.0.1	2019_Mar_12_0905	s	s	8	2	SIC	184	1_2	1	2	2	2	23_2_2	1	0	1	0	5.13939499855	-260.0	-355.0	-255.0	-350.0	1
3.0.1	2019_Mar_12_0905	s	s	8	2	SIC	185	ABS	0	0	3	3	24_3_3	NA	NA	0	1	5.35064101219	None	None	None	None	1
3.0.1	2019_Mar_12_0905	s	s	8	2	SIC	186	ABS	0	0	3	4	24_3_4	NA	NA	0	1	3.39141798019	None	None	None	None	1
3.0.1	2019_Mar_12_0905	s	s	8	2	SIC	187	3_3	3	3	1	3	23_1_3	2	0	1	0	0.921344995499	-63.0	306.0	-59.0	308.0	1
3.0.1	2019_Mar_12_0905	s	s	8	2	SIC	188	ABS	0	0	1	4	24_1_4	NA	NA	0	1	3.80988001823	None	None	None	None	1
3.0.1	2019_Mar_12_0905	s	s	8	2	SIC	189	ABS	0	0	4	1	24_4_1	NA	NA	0	1	4.0451540947	None	None	None	None	1
3.0.1	2019_Mar_12_0905	s	s	8	2	SIC	190	ABS	0	0	4	1	24_4_1	NA	NA	0	1	3.31883311272	None	None	None	None	1
3.0.1	2019_Mar_12_0905	s	s	8	2	SIC	191	ABS	0	0	2	3	24_2_3	NA	NA	0	1	5.69180512428	None	None	None	None	1
3.0.1	2019_Mar_12_0905	s	s	8	2	SIC	192	3_1	3	1	4	3	23_4_3	-1	2	1	0	0.728499889374	304.0	373.0	301.0	371.0	1
3.0.1	2019_Mar_12_0905	s	s	8	2	SIC	193	ABS	0	0	1	2	24_1_2	NA	NA	0	1	7.78900003433	None	None	None	None	1
3.0.1	2019_Mar_12_0905	s	s	8	2	SIC	194	3_4	3	4	4	3	23_4_3	-1	1	1	0	0.672600030899	177.0	-359.0	175.0	-359.0	1
3.0.1	2019_Mar_12_0905	s	s	8	2	SIC	195	2_2	2	2	1	2	23_1_2	-1	0	1	0	2.02502989769	-60.0	-175.0	-59.0	-180.0	1
3.0.1	2019_Mar_12_0905	s	s	8	2	SIC	196	ABS	0	0	3	4	24_3_4	NA	NA	0	1	3.86866593361	None	None	None	None	1
3.0.1	2019_Mar_12_0905	s	s	8	2	SIC	197	1_1	1	1	2	1	23_2_1	1	0	1	0	2.17925786972	-155.0	138.0	-151.0	147.0	1
3.0.1	2019_Mar_12_0905	s	s	8	2	SIC	198	ABS	0	0	2	4	24_2_4	NA	NA	0	1	3.58645200729	None	None	None	None	1
3.0.1	2019_Mar_12_0905	s	s	8	2	SIC	199	ABS	0	0	4	1	24_4_1	NA	NA	0	1	6.05934619904	None	None	None	None	1
3.0.1	2019_Mar_12_0905	s	s	8	2	SIC	200	3_1	3	1	2	1	23_2_1	1	0	1	0	1.57531380653	533.0	-390.0	536.0	-389.0	1
3.0.1	2019_Mar_12_0905	s	s	8	2	SIC	201	ABS	0	0	1	3	24_1_3	NA	NA	0	1	5.96508407593	None	None	None	None	1
3.0.1	2019_Mar_12_0905	s	s	8	2	SIC	202	1_4	1	4	3	3	23_3_3	2	1	1	0	0.662019014359	238.0	-8.0	232.0	-6.0	1
3.0.1	2019_Mar_12_0905	s	s	8	2	SIC	203	ABS	0	0	2	4	24_2_4	NA	NA	0	1	3.29232692719	None	None	None	None	1
3.0.1	2019_Mar_12_0905	s	s	8	2	SIC	204	ABS	0	0	4	2	24_4_2	NA	NA	0	1	6.75059390068	None	None	None	None	1
3.0.1	2019_Mar_12_0905	s	s	8	2	SIC	205	2_1	2	1	4	3	23_4_3	2	2	1	0	0.64613199234	222.0	267.0	225.0	259.0	1
3.0.1	2019_Mar_12_0905	s	s	8	2	SIC	206	4_2	4	2	2	1	23_2_1	2	-1	1	0	0.592267036438	-381.0	-175.0	-385.0	-174.0	1
3.0.1	2019_Mar_12_0905	s	s	8	2	SIC	207	2_1	2	1	3	4	23_3_4	1	3	1	0	0.657870054245	-435.0	-22.0	-435.0	-29.0	1
3.0.1	2019_Mar_12_0905	s	s	8	2	SIC	208	1_1	1	1	4	4	23_4_4	3	3	1	0	0.568741083145	-451.0	-47.0	-456.0	-47.0	1
3.0.1	2019_Mar_12_0905	s	s	8	2	SIC	209	3_2	3	2	4	4	23_4_4	-1	2	1	0	0.528563022614	-401.0	315.0	-402.0	317.0	1
3.0.1	2019_Mar_12_0905	s	s	8	2	SIC	210	ABS	0	0	2	3	24_2_3	NA	NA	0	1	4.39800882339	None	None	None	None	1
3.0.1	2019_Mar_12_0905	s	s	8	2	SIC	211	4_1	4	1	3	1	23_3_1	1	0	1	0	0.618492126465	-362.0	-56.0	-358.0	-60.0	1
3.0.1	2019_Mar_12_0905	s	s	8	2	SIC	212	ABS	0	0	4	4	24_4_4	NA	NA	0	1	4.15099692345	None	None	None	None	1
3.0.1	2019_Mar_12_0905	s	s	8	2	SIC	213	ABS	0	0	3	1	24_3_1	NA	NA	0	1	3.64523482323	None	None	None	None	1
3.0.1	2019_Mar_12_0905	s	s	8	2	SIC	214	1_1	1	1	4	3	23_4_3	3	2	1	0	0.90988111496	82.0	378.0	87.0	378.0	1
3.0.1	2019_Mar_12_0905	s	s	8	2	SIC	215	ABS	0	0	1	4	24_1_4	NA	NA	0	1	4.12067103386	None	None	None	None	1
3.0.1	2019_Mar_12_0905	s	s	8	2	SIC	216	ABS	0	0	4	4	24_4_4	NA	NA	0	1	4.64501190186	None	None	None	None	1
3.0.1	2019_Mar_12_0905	s	s	8	2	SIC	217	2_3	2	3	2	1	23_2_1	0	2	1	0	2.08393502235	514.0	-200.0	511.0	-202.0	1
3.0.1	2019_Mar_12_0905	s	s	8	2	SIC	218	ABS	0	0	1	1	24_1_1	NA	NA	0	1	6.84876203537	None	None	None	None	1
3.0.1	2019_Mar_12_0905	s	s	8	2	SIC	219	1_1	1	1	2	4	23_2_4	1	3	1	0	0.795409917831	360.0	56.0	361.0	65.0	1
3.0.1	2019_Mar_12_0905	s	s	8	2	SIC	220	1_2	1	2	3	4	23_3_4	2	2	1	0	0.672599077225	113.0	-299.0	117.0	-309.0	1
3.0.1	2019_Mar_12_0905	s	s	8	2	SIC	221	3_3	3	3	4	4	23_4_4	-1	-1	1	0	0.575634002686	120.0	-49.0	110.0	-49.0	1
3.0.1	2019_Mar_12_0905	s	s	8	2	SIC	222	ABS	0	0	2	1	24_2_1	NA	NA	0	1	5.6248960495	None	None	None	None	1
3.0.1	2019_Mar_12_0905	s	s	8	2	SIC	223	ABS	0	0	1	2	24_1_2	NA	NA	0	1	5.38591909409	None	None	None	None	1
3.0.1	2019_Mar_12_0905	s	s	8	2	SIC	224	ABS	0	0	2	3	24_2_3	NA	NA	0	1	6.0969991684	None	None	None	None	1
3.0.1	2019_Mar_12_0905	s	s	8	2	SIC	225	4_3	4	3	2	2	23_2_2	2	1	1	0	0.869626045227	423.0	320.0	428.0	324.0	1
3.0.1	2019_Mar_12_0905	s	s	8	2	SIC	226	ABS	0	0	3	4	24_3_4	NA	NA	0	1	2.55448698997	None	None	None	None	1
3.0.1	2019_Mar_12_0905	s	s	8	2	SIC	227	2_3	2	3	3	1	23_3_1	1	2	1	0	0.716779947281	-237.0	77.0	-234.0	85.0	1
3.0.1	2019_Mar_12_0905	s	s	8	2	SIC	228	3_4	3	4	3	1	23_3_1	0	3	1	0	0.71956205368	-350.0	-222.0	-360.0	-218.0	1
3.0.1	2019_Mar_12_0905	s	s	8	2	SIC	229	4_4	4	4	4	1	23_4_1	0	3	1	0	0.97549700737	175.0	-320.0	174.0	-321.0	1
3.0.1	2019_Mar_12_0905	s	s	8	2	SIC	230	4_4	4	4	2	2	23_2_2	2	2	1	0	0.610888004303	-409.0	107.0	-418.0	106.0	1
3.0.1	2019_Mar_12_0905	s	s	8	2	SIC	231	ABS	0	0	2	2	24_2_2	NA	NA	0	1	5.45076799393	None	None	None	None	1
3.0.1	2019_Mar_12_0905	s	s	8	2	SIC	232	ABS	0	0	3	2	24_3_2	NA	NA	0	1	5.64462399483	None	None	None	None	1
3.0.1	2019_Mar_12_0905	s	s	8	2	SIC	233	ABS	0	0	3	1	24_3_1	NA	NA	0	1	3.96568608284	None	None	None	None	1
3.0.1	2019_Mar_12_0905	s	s	8	2	SIC	234	ABS	0	0	4	2	24_4_2	NA	NA	0	1	4.82146406174	None	None	None	None	1
3.0.1	2019_Mar_12_0905	s	s	8	2	SIC	235	ABS	0	0	1	1	24_1_1	NA	NA	0	1	3.43647503853	None	None	None	None	1
3.0.1	2019_Mar_12_0905	s	s	8	2	SIC	236	3_1	3	1	1	1	23_1_1	2	0	1	0	0.763720989227	-93.0	-226.0	-91.0	-224.0	1
3.0.1	2019_Mar_12_0905	s	s	8	2	SIC	237	2_2	2	2	2	4	23_2_4	0	2	1	0	0.928400039673	-258.0	-187.0	-261.0	-188.0	1
3.0.1	2019_Mar_12_0905	s	s	8	2	SIC	238	2_4	2	4	4	3	23_4_3	2	1	1	0	0.568871974945	-234.0	-236.0	-225.0	-233.0	1
3.0.1	2019_Mar_12_0905	s	s	8	2	SIC	239	1_3	1	3	4	1	23_4_1	3	2	1	0	0.603801012039	424.0	64.0	413.0	64.0	1
3.0.1	2019_Mar_12_0905	s	s	8	2	SIC	240	2_4	2	4	2	3	23_2_3	0	1	1	0	1.32141709328	-298.0	-61.0	-303.0	-70.0	1
3.0.1	2019_Mar_12_0905	s	s	8	2	SIC	241	ABS	0	0	4	3	24_4_3	NA	NA	0	1	2.97329807281	None	None	None	None	1
3.0.1	2019_Mar_12_0905	s	s	8	2	SIC	242	2_3	2	3	4	1	23_4_1	2	2	1	0	0.581631183624	-210.0	-342.0	-208.0	-340.0	1
3.0.1	2019_Mar_12_0905	s	s	8	2	SIC	243	ABS	0	0	1	3	24_1_3	NA	NA	0	1	3.86859488487	None	None	None	None	1
3.0.1	2019_Mar_12_0905	s	s	8	2	SIC	244	ABS	0	0	4	3	24_4_3	NA	NA	0	1	4.14779615402	None	None	None	None	1
3.0.1	2019_Mar_12_0905	s	s	8	2	SIC	245	1_3	1	3	4	3	23_4_3	3	0	1	0	0.617938041687	-363.0	178.0	-356.0	179.0	1
3.0.1	2019_Mar_12_0905	s	s	8	2	SIC	246	ABS	0	0	1	3	24_1_3	NA	NA	0	1	3.55119395256	None	None	None	None	1
3.0.1	2019_Mar_12_0905	s	s	8	2	SIC	247	ABS	0	0	4	4	24_4_4	NA	NA	0	1	2.13413500786	None	None	None	None	1
3.0.1	2019_Mar_12_0905	s	s	8	2	SIC	248	ABS	0	0	2	2	24_2_2	NA	NA	0	1	5.00221800804	None	None	None	None	1
3.0.1	2019_Mar_12_0905	s	s	8	2	SIC	249	ABS	0	0	2	2	24_2_2	NA	NA	0	1	5.64469408989	None	None	None	None	1
3.0.1	2019_Mar_12_0905	s	s	8	2	SIC	250	1_3	1	3	2	2	23_2_2	1	1	1	0	4.48669481277	59.0	-279.0	69.0	-276.0	1
3.0.1	2019_Mar_12_0905	s	s	8	2	SIC	251	ABS	0	0	3	3	24_3_3	NA	NA	0	1	5.92693400383	None	None	None	None	1
3.0.1	2019_Mar_12_0905	s	s	8	2	SIC	252	3_3	3	3	4	2	23_4_2	-1	1	1	0	0.663783073425	-368.0	-410.0	-364.0	-409.0	1
3.0.1	2019_Mar_12_0905	s	s	8	2	SIC	253	2_3	2	3	1	3	23_1_3	-1	0	1	0	2.10452198982	397.0	103.0	389.0	107.0	1
3.0.1	2019_Mar_12_0905	s	s	8	2	SIC	254	1_4	1	4	3	2	23_3_2	2	2	1	0	0.634702920914	-368.0	-299.0	-376.0	-296.0	1
3.0.1	2019_Mar_12_0905	s	s	8	2	SIC	255	2_3	2	3	2	4	23_2_4	0	-1	1	0	1.37536907196	-238.0	135.0	-230.0	140.0	1
3.0.1	2019_Mar_12_0905	s	s	8	2	SIC	256	ABS	0	0	2	4	24_2_4	NA	NA	0	1	4.35086894035	None	None	None	None	1
3.0.1	2019_Mar_12_0905	s	s	8	2	SIC	257	4_1	4	1	1	4	23_1_4	3	3	1	0	0.469597101212	-397.0	101.0	-396.0	109.0	1
3.0.1	2019_Mar_12_0905	s	s	8	2	SIC	258	ABS	0	0	1	4	24_1_4	NA	NA	0	1	2.79227495193	None	None	None	None	1
3.0.1	2019_Mar_12_0905	s	s	8	2	SIC	259	ABS	0	0	3	2	24_3_2	NA	NA	0	1	6.65906500816	None	None	None	None	1
3.0.1	2019_Mar_12_0905	s	s	8	2	SIC	260	ABS	0	0	4	1	24_4_1	NA	NA	0	1	3.83361101151	None	None	None	None	1
3.0.1	2019_Mar_12_0905	s	s	8	2	SIC	261	4_4	4	4	3	4	23_3_4	1	0	1	0	0.731359004974	265.0	347.0	266.0	345.0	1
3.0.1	2019_Mar_12_0905	s	s	8	2	SIC	262	3_2	3	2	2	4	23_2_4	1	2	1	0	1.27549099922	-517.0	396.0	-522.0	392.0	1
3.0.1	2019_Mar_12_0905	s	s	8	2	SIC	263	ABS	0	0	2	3	24_2_3	NA	NA	0	1	5.9202439785	None	None	None	None	1
3.0.1	2019_Mar_12_0905	s	s	8	2	SIC	264	2_3	2	3	3	3	23_3_3	1	0	1	0	0.940212965012	305.0	-340.0	305.0	-333.0	1
3.0.1	2019_Mar_12_0905	s	s	8	2	SIC	265	ABS	0	0	3	4	24_3_4	NA	NA	0	1	1.90763378143	None	None	None	None	1
3.0.1	2019_Mar_12_0905	s	s	8	2	SIC	266	3_4	3	4	1	1	23_1_1	2	3	1	0	0.746018886566	-485.0	256.0	-483.0	258.0	1
3.0.1	2019_Mar_12_0905	s	s	8	2	SIC	267	3_1	3	1	1	2	23_1_2	2	1	1	0	0.528512001038	-142.0	-260.0	-142.0	-254.0	1
3.0.1	2019_Mar_12_0905	s	s	8	2	SIC	268	4_4	4	4	1	1	23_1_1	3	3	1	0	0.70495390892	-405.0	-145.0	-411.0	-145.0	1
3.0.1	2019_Mar_12_0905	s	s	8	2	SIC	269	ABS	0	0	2	4	24_2_4	NA	NA	0	1	4.31852316856	None	None	None	None	1
3.0.1	2019_Mar_12_0905	s	s	8	2	SIC	270	ABS	0	0	1	4	24_1_4	NA	NA	0	1	3.42906904221	None	None	None	None	1
3.0.1	2019_Mar_12_0905	s	s	8	2	SIC	271	ABS	0	0	2	3	24_2_3	NA	NA	0	1	4.27373695374	None	None	None	None	1
3.0.1	2019_Mar_12_0905	s	s	8	2	SIC	272	ABS	0	0	1	1	24_1_1	NA	NA	0	1	4.09220099449	None	None	None	None	1
3.0.1	2019_Mar_12_0905	s	s	8	2	SIC	273	3_4	3	4	2	3	23_2_3	1	1	1	0	0.657929897308	36.0	313.0	35.0	320.0	1
3.0.1	2019_Mar_12_0905	s	s	8	2	SIC	274	2_4	2	4	4	4	23_4_4	2	0	1	0	0.496146917343	114.0	200.0	102.0	209.0	1
3.0.1	2019_Mar_12_0905	s	s	8	2	SIC	275	ABS	0	0	3	3	24_3_3	NA	NA	0	1	4.34558105469	None	None	None	None	1
3.0.1	2019_Mar_12_0905	s	s	8	2	SIC	276	4_4	4	4	4	3	23_4_3	0	1	1	0	0.672558069229	-425.0	139.0	-414.0	139.0	1
3.0.1	2019_Mar_12_0905	s	s	8	2	SIC	277	ABS	0	0	3	1	24_3_1	NA	NA	0	1	3.73041701317	None	None	None	None	1
3.0.1	2019_Mar_12_0905	s	s	8	2	SIC	278	1_4	1	4	2	3	23_2_3	1	1	1	0	0.857898950577	314.0	206.0	315.0	201.0	1
3.0.1	2019_Mar_12_0905	s	s	8	2	SIC	279	ABS	0	0	4	1	24_4_1	NA	NA	0	1	3.64522695541	None	None	None	None	1
3.0.1	2019_Mar_12_0905	s	s	8	2	SIC	280	ABS	0	0	3	4	24_3_4	NA	NA	0	1	2.83371901512	None	None	None	None	1
3.0.1	2019_Mar_12_0905	s	s	8	2	SIC	281	ABS	0	0	2	4	24_2_4	NA	NA	0	1	3.12777805328	None	None	None	None	1
3.0.1	2019_Mar_12_0905	s	s	8	2	SIC	282	2_1	2	1	2	3	23_2_3	0	2	1	0	0.839024066925	211.0	-49.0	202.0	-42.0	1
3.0.1	2019_Mar_12_0905	s	s	8	2	SIC	283	ABS	0	0	2	1	24_2_1	NA	NA	0	1	2.50219893456	None	None	None	None	1
3.0.1	2019_Mar_12_0905	s	s	8	2	SIC	284	ABS	0	0	2	4	24_2_4	NA	NA	0	1	2.61682105064	None	None	None	None	1
3.0.1	2019_Mar_12_0905	s	s	8	2	SIC	285	ABS	0	0	1	1	24_1_1	NA	NA	0	1	3.05055308342	None	None	None	None	1
3.0.1	2019_Mar_12_0905	s	s	8	2	SIC	286	ABS	0	0	2	3	24_2_3	NA	NA	0	1	3.7628428936	None	None	None	None	1
3.0.1	2019_Mar_12_0905	s	s	8	2	SIC	287	2_3	2	3	2	2	23_2_2	0	1	1	0	1.91675901413	-67.0	63.0	-62.0	61.0	1
3.0.1	2019_Mar_12_0905	s	s	8	2	SIC	288	ABS	0	0	4	2	24_4_2	NA	NA	0	1	6.60381007195	None	None	None	None	1
3.0.1	2019_Mar_12_0905	s	s	8	2	SIC	289	ABS	0	0	3	3	24_3_3	NA	NA	0	1	3.90716385841	None	None	None	None	1
3.0.1	2019_Mar_12_0905	s	s	8	2	SIC	290	ABS	0	0	2	2	24_2_2	NA	NA	0	1	8.54963898659	None	None	None	None	1
3.0.1	2019_Mar_12_0905	s	s	8	2	SIC	291	ABS	0	0	4	3	24_4_3	NA	NA	0	1	5.37411212921	None	None	None	None	1
3.0.1	2019_Mar_12_0905	s	s	8	2	SIC	292	1_3	1	3	3	3	23_3_3	2	0	1	0	0.780704975128	243.0	-390.0	240.0	-393.0	1
3.0.1	2019_Mar_12_0905	s	s	8	2	SIC	293	ABS	0	0	1	2	24_1_2	NA	NA	0	1	5.09674501419	None	None	None	None	1
3.0.1	2019_Mar_12_0905	s	s	8	2	SIC	294	3_4	3	4	3	2	23_3_2	0	2	1	0	0.790709018707	-192.0	27.0	-193.0	33.0	1
3.0.1	2019_Mar_12_0905	s	s	8	2	SIC	295	3_1	3	1	3	4	23_3_4	0	3	1	0	0.705392122269	-175.0	168.0	-180.0	175.0	1
3.0.1	2019_Mar_12_0905	s	s	8	2	SIC	296	ABS	0	0	4	2	24_4_2	NA	NA	0	1	6.08271288872	None	None	None	None	1
3.0.1	2019_Mar_12_0905	s	s	8	2	SIC	297	3_3	3	3	1	4	23_1_4	2	-1	1	0	0.592024087906	-145.0	-408.0	-136.0	-406.0	1
3.0.1	2019_Mar_12_0905	s	s	8	2	SIC	298	2_4	2	4	3	4	23_3_4	1	0	1	0	0.662250041962	-528.0	193.0	-522.0	191.0	1
3.0.1	2019_Mar_12_0905	s	s	8	2	SIC	299	2_4	2	4	2	1	23_2_1	0	3	1	0	0.834318161011	124.0	-220.0	130.0	-212.0	1
3.0.1	2019_Mar_12_0905	s	s	8	2	SIC	300	1_4	1	4	1	1	23_1_1	0	3	1	0	0.613788843155	-300.0	-218.0	-304.0	-219.0	1
3.0.1	2019_Mar_12_0905	s	s	8	2	SIC	301	3_1	3	1	3	3	23_3_3	0	2	1	0	2.28085780144	36.0	399.0	33.0	406.0	1
3.0.1	2019_Mar_12_0905	s	s	8	2	SIC	302	ABS	0	0	1	1	24_1_1	NA	NA	0	1	3.35116100311	None	None	None	None	1
3.0.1	2019_Mar_12_0905	s	s	8	2	SIC	303	4_4	4	4	3	2	23_3_2	1	2	1	0	0.516805887222	422.0	-262.0	425.0	-254.0	1
3.0.1	2019_Mar_12_0905	s	s	8	2	SIC	304	3_4	3	4	2	4	23_2_4	1	0	1	0	0.592545986176	397.0	-100.0	399.0	-98.0	1
3.0.1	2019_Mar_12_0905	s	s	8	2	SIC	305	ABS	0	0	4	3	24_4_3	NA	NA	0	1	3.46385407448	None	None	None	None	1
3.0.1	2019_Mar_12_0905	s	s	8	2	SIC	306	4_2	4	2	2	4	23_2_4	2	2	1	0	0.473985910416	-56.0	-291.0	-53.0	-291.0	1
3.0.1	2019_Mar_12_0905	s	s	8	2	SIC	307	ABS	0	0	4	1	24_4_1	NA	NA	0	1	2.39846420288	None	None	None	None	1
3.0.1	2019_Mar_12_0905	s	s	8	2	SIC	308	3_1	3	1	2	3	23_2_3	1	2	1	0	0.540318965912	-143.0	-157.0	-138.0	-153.0	1
3.0.1	2019_Mar_12_0905	s	s	8	2	SIC	309	4_3	4	3	3	1	23_3_1	1	2	1	0	0.804265022278	-389.0	365.0	-395.0	359.0	1
3.0.1	2019_Mar_12_0905	s	s	8	2	SIC	310	ABS	0	0	1	2	24_1_2	NA	NA	0	1	7.61631894112	None	None	None	None	1
3.0.1	2019_Mar_12_0905	s	s	8	2	SIC	311	1_4	1	4	4	3	23_4_3	3	1	1	0	0.474011898041	61.0	-124.0	69.0	-129.0	1
3.0.1	2019_Mar_12_0905	s	s	8	2	SIC	312	2_4	2	4	1	3	23_1_3	-1	1	1	0	0.627127885818	-141.0	25.0	-148.0	22.0	1
3.0.1	2019_Mar_12_0905	s	s	8	2	SIC	313	4_1	4	1	2	1	23_2_1	2	0	1	0	0.56923699379	81.0	-214.0	78.0	-209.0	1
3.0.1	2019_Mar_12_0905	s	s	8	2	SIC	314	ABS	0	0	4	1	24_4_1	NA	NA	0	1	3.50407505035	None	None	None	None	1
3.0.1	2019_Mar_12_0905	s	s	8	2	SIC	315	ABS	0	0	3	1	24_3_1	NA	NA	0	1	3.49528598785	None	None	None	None	1
3.0.1	2019_Mar_12_0905	s	s	8	2	SIC	316	2_3	2	3	4	3	23_4_3	2	0	1	0	0.532652854919	89.0	342.0	87.0	340.0	1
3.0.1	2019_Mar_12_0905	s	s	8	2	SIC	317	ABS	0	0	3	4	24_3_4	NA	NA	0	1	1.98693108559	None	None	None	None	1
3.0.1	2019_Mar_12_0905	s	s	8	2	SIC	318	1_3	1	3	2	1	23_2_1	1	2	1	0	0.562613010406	-116.0	-30.0	-120.0	-28.0	1
3.0.1	2019_Mar_12_0905	s	s	8	2	SIC	319	3_3	3	3	3	2	23_3_2	0	1	1	0	5.3339240551	-465.0	320.0	-463.0	316.0	1
3.0.1	2019_Mar_12_0905	s	s	8	2	SIC	320	ABS	0	0	2	2	24_2_2	NA	NA	0	1	4.83311295509	None	None	None	None	1
3.0.1	2019_Mar_12_0905	s	s	8	2	SIC	321	2_2	2	2	4	3	23_4_3	2	1	1	0	0.528552055359	-450.0	159.0	-452.0	160.0	1
3.0.1	2019_Mar_12_0905	s	s	8	2	SIC	322	ABS	0	0	1	2	24_1_2	NA	NA	0	1	5.61597800255	None	None	None	None	1
3.0.1	2019_Mar_12_0905	s	s	8	2	SIC	323	3_4	3	4	2	2	23_2_2	1	2	1	0	0.940162181854	-49.0	-372.0	-56.0	-377.0	1
3.0.1	2019_Mar_12_0905	s	s	8	2	SIC	324	ABS	0	0	1	4	24_1_4	NA	NA	0	1	3.51897215843	None	None	None	None	1
3.0.1	2019_Mar_12_0905	s	s	8	2	SIC	325	3_3	3	3	2	1	23_2_1	1	2	1	0	1.03424692154	-308.0	-251.0	-305.0	-247.0	1
3.0.1	2019_Mar_12_0905	s	s	8	2	SIC	326	ABS	0	0	4	4	24_4_4	NA	NA	0	1	2.28092980385	None	None	None	None	1
3.0.1	2019_Mar_12_0905	s	s	8	2	SIC	327	2_1	2	1	3	2	23_3_2	1	1	1	0	0.587354898453	-92.0	73.0	-96.0	76.0	1
3.0.1	2019_Mar_12_0905	s	s	8	2	SIC	328	1_3	1	3	3	2	23_3_2	2	1	1	0	0.73136305809	394.0	319.0	399.0	316.0	1
3.0.1	2019_Mar_12_0905	s	s	8	2	SIC	329	ABS	0	0	4	1	24_4_1	NA	NA	0	1	5.61229705811	None	None	None	None	1
3.0.1	2019_Mar_12_0905	s	s	8	2	SIC	330	ABS	0	0	4	2	24_4_2	NA	NA	1	0	0.981051921844	None	None	-61.0	207.0	0
3.0.1	2019_Mar_12_0905	s	s	8	2	SIC	331	1_1	1	1	2	3	23_2_3	1	2	1	0	2.29795694351	160.0	-242.0	156.0	-243.0	1
3.0.1	2019_Mar_12_0905	s	s	8	2	SIC	332	ABS	0	0	2	2	24_2_2	NA	NA	0	1	7.06095194817	None	None	None	None	1
3.0.1	2019_Mar_12_0905	s	s	8	2	SIC	333	ABS	0	0	4	3	24_4_3	NA	NA	0	1	4.93894290924	None	None	None	None	1
3.0.1	2019_Mar_12_0905	s	s	8	2	SIC	334	ABS	0	0	1	1	24_1_1	NA	NA	0	1	4.75119709969	None	None	None	None	1
3.0.1	2019_Mar_12_0905	s	s	8	2	SIC	335	1_2	1	2	3	1	23_3_1	2	-1	1	0	0.634325027466	-78.0	-329.0	-80.0	-330.0	1
3.0.1	2019_Mar_12_0905	s	s	8	2	SIC	336	ABS	0	0	2	2	24_2_2	NA	NA	0	1	7.35369205475	None	None	None	None	1
3.0.1	2019_Mar_12_0905	s	s	8	2	SIC	337	2_1	2	1	2	4	23_2_4	0	3	1	0	0.652504920959	121.0	188.0	115.0	181.0	1
3.0.1	2019_Mar_12_0905	s	s	8	2	SIC	338	2_3	2	3	3	2	23_3_2	1	1	1	0	0.885344028473	-274.0	35.0	-277.0	32.0	1
3.0.1	2019_Mar_12_0905	s	s	8	2	SIC	339	4_3	4	3	3	3	23_3_3	1	0	1	0	0.587333202362	-344.0	71.0	-343.0	76.0	1
3.0.1	2019_Mar_12_0905	s	s	8	2	SIC	340	ABS	0	0	2	4	24_2_4	NA	NA	0	1	3.12008905411	None	None	None	None	1
3.0.1	2019_Mar_12_0905	s	s	8	2	SIC	341	3_3	3	3	4	3	23_4_3	-1	0	1	0	0.780405044556	-498.0	-349.0	-500.0	-340.0	1
3.0.1	2019_Mar_12_0905	s	s	8	2	SIC	342	ABS	0	0	3	4	24_3_4	NA	NA	0	1	1.0745909214	None	None	None	None	1
3.0.1	2019_Mar_12_0905	s	s	8	2	SIC	343	ABS	0	0	3	4	24_3_4	NA	NA	0	1	1.72296500206	None	None	None	None	1
3.0.1	2019_Mar_12_0905	s	s	8	2	SIC	344	ABS	0	0	2	2	24_2_2	NA	NA	0	1	5.6151509285	None	None	None	None	1
3.0.1	2019_Mar_12_0905	s	s	8	2	SIC	345	ABS	0	0	4	3	24_4_3	NA	NA	0	1	3.80363297462	None	None	None	None	1
3.0.1	2019_Mar_12_0905	s	s	8	2	SIC	346	3_1	3	1	2	2	23_2_2	1	1	1	0	0.738044977188	-393.0	-131.0	-400.0	-128.0	1
3.0.1	2019_Mar_12_0905	s	s	8	2	SIC	347	1_2	1	2	1	1	23_1_1	0	-1	0	1	4.50383901596	-514.0	370.0	None	None	0
3.0.1	2019_Mar_12_0905	s	s	8	2	SIC	348	1_2	1	2	2	4	23_2_4	1	2	1	0	0.808382987976	259.0	-142.0	256.0	-147.0	1
3.0.1	2019_Mar_12_0905	s	s	8	2	SIC	349	1_4	1	4	4	4	23_4_4	3	0	1	0	0.461138010025	219.0	-46.0	213.0	-37.0	1
3.0.1	2019_Mar_12_0905	s	s	8	2	SIC	350	1_1	1	1	3	1	23_3_1	2	0	1	0	0.893186092377	265.0	304.0	258.0	303.0	1
3.0.1	2019_Mar_12_0905	s	s	8	2	SIC	351	ABS	0	0	1	2	24_1_2	NA	NA	0	1	6.87958407402	None	None	None	None	1
3.0.1	2019_Mar_12_0905	s	s	8	2	SIC	352	ABS	0	0	4	3	24_4_3	NA	NA	0	1	4.4690079689	None	None	None	None	1
3.0.1	2019_Mar_12_0905	s	s	8	2	SIC	353	ABS	0	0	1	3	24_1_3	NA	NA	0	1	5.47124314308	None	None	None	None	1
3.0.1	2019_Mar_12_0905	s	s	8	2	SIC	354	ABS	0	0	4	4	24_4_4	NA	NA	0	1	2.29309201241	None	None	None	None	1
3.0.1	2019_Mar_12_0905	s	s	8	2	SIC	355	ABS	0	0	2	1	24_2_1	NA	NA	0	1	4.65104603767	None	None	None	None	1
3.0.1	2019_Mar_12_0905	s	s	8	2	SIC	356	ABS	0	0	1	1	24_1_1	NA	NA	0	1	4.4361269474	None	None	None	None	1
3.0.1	2019_Mar_12_0905	s	s	8	2	SIC	357	ABS	0	0	1	2	24_1_2	NA	NA	0	1	6.22093391418	None	None	None	None	1
3.0.1	2019_Mar_12_0905	s	s	8	2	SIC	358	4_1	4	1	4	3	23_4_3	0	2	1	0	0.951959133148	-224.0	165.0	-222.0	165.0	1
3.0.1	2019_Mar_12_0905	s	s	8	2	SIC	359	4_1	4	1	2	2	23_2_2	2	1	1	0	0.578625202179	280.0	371.0	280.0	381.0	1
3.0.1	2019_Mar_12_0905	s	s	8	2	SIC	360	1_2	1	2	3	3	23_3_3	2	1	1	0	0.704982995987	-78.0	-192.0	-89.0	-189.0	1
3.0.1	2019_Mar_12_0905	s	s	8	2	SIC	361	1_4	1	4	3	4	23_3_4	2	0	1	0	0.769025087357	-537.0	411.0	-529.0	411.0	1
3.0.1	2019_Mar_12_0905	s	s	8	2	SIC	362	ABS	0	0	3	3	24_3_3	NA	NA	0	1	4.46070098877	None	None	None	None	1
3.0.1	2019_Mar_12_0905	s	s	8	2	SIC	363	2_1	2	1	2	2	23_2_2	0	1	1	0	1.99870705605	-423.0	77.0	-426.0	80.0	1
3.0.1	2019_Mar_12_0905	s	s	8	2	SIC	364	ABS	0	0	4	2	24_4_2	NA	NA	0	1	5.2683300972	None	None	None	None	1
3.0.1	2019_Mar_12_0905	s	s	8	2	SIC	365	4_3	4	3	1	3	23_1_3	3	0	1	0	0.677091121674	488.0	-279.0	485.0	-273.0	1
3.0.1	2019_Mar_12_0905	s	s	8	2	SIC	366	ABS	0	0	3	1	24_3_1	NA	NA	0	1	3.20120000839	None	None	None	None	1
3.0.1	2019_Mar_12_0905	s	s	8	2	SIC	367	4_4	4	4	4	2	23_4_2	0	2	1	0	0.696768045425	163.0	3.0	168.0	3.0	1
3.0.1	2019_Mar_12_0905	s	s	8	2	SIC	368	ABS	0	0	2	3	24_2_3	NA	NA	0	1	3.0690369606	None	None	None	None	1
3.0.1	2019_Mar_12_0905	s	s	8	2	SIC	369	ABS	0	0	1	4	24_1_4	NA	NA	0	1	1.36361789703	None	None	None	None	1
3.0.1	2019_Mar_12_0905	s	s	8	2	SIC	370	4_1	4	1	3	3	23_3_3	1	2	1	0	0.496112108231	-224.0	-356.0	-233.0	-360.0	1
3.0.1	2019_Mar_12_0905	s	s	8	2	SIC	371	ABS	0	0	4	3	24_4_3	NA	NA	0	1	3.48678994179	None	None	None	None	1
3.0.1	2019_Mar_12_0905	s	s	8	2	SIC	372	ABS	0	0	4	2	24_4_2	NA	NA	0	1	6.6680059433	None	None	None	None	1
3.0.1	2019_Mar_12_0905	s	s	8	2	SIC	373	ABS	0	0	2	4	24_2_4	NA	NA	0	1	3.06208586693	None	None	None	None	1
3.0.1	2019_Mar_12_0905	s	s	8	2	SIC	374	3_2	3	2	3	3	23_3_3	0	1	1	0	2.98005604744	368.0	-15.0	358.0	-12.0	1
3.0.1	2019_Mar_12_0905	s	s	8	2	SIC	375	ABS	0	0	4	1	24_4_1	NA	NA	0	1	3.71576094627	None	None	None	None	1
3.0.1	2019_Mar_12_0905	s	s	8	2	SIC	376	ABS	0	0	1	1	24_1_1	NA	NA	0	1	3.78025507927	None	None	None	None	1
3.0.1	2019_Mar_12_0905	s	s	8	2	SIC	377	ABS	0	0	3	3	24_3_3	NA	NA	0	1	3.91232895851	None	None	None	None	1
3.0.1	2019_Mar_12_0905	s	s	8	2	SIC	378	4_1	4	1	2	3	23_2_3	2	2	1	0	0.664530038834	-224.0	354.0	-223.0	349.0	1
3.0.1	2019_Mar_12_0905	s	s	8	2	SIC	379	3_2	3	2	4	2	23_4_2	-1	0	1	0	0.613807916641	-498.0	1.0	-499.0	2.0	1
3.0.1	2019_Mar_12_0905	s	s	8	2	SIC	380	4_2	4	2	4	3	23_4_3	0	1	1	0	2.33972907066	-534.0	-281.0	-533.0	-285.0	1
3.0.1	2019_Mar_12_0905	s	s	8	2	SIC	381	ABS	0	0	2	4	24_2_4	NA	NA	0	1	2.75139093399	None	None	None	None	1
3.0.1	2019_Mar_12_0905	s	s	8	2	SIC	382	2_2	2	2	1	3	23_1_3	-1	1	1	0	5.22640395164	-147.0	-392.0	-149.0	-403.0	1
3.0.1	2019_Mar_12_0905	s	s	8	2	SIC	383	ABS	0	0	4	3	24_4_3	NA	NA	0	1	4.72209000587	None	None	None	None	1
3.0.1	2019_Mar_12_0905	s	s	8	2	SIC	384	ABS	0	0	1	1	24_1_1	NA	NA	0	1	4.15094590187	None	None	None	None	1
3.0.1	2019_Mar_12_0905	s	s	8	2	SIC	385	ABS	0	0	2	1	24_2_1	NA	NA	0	1	2.9126830101	None	None	None	None	1
3.0.1	2019_Mar_12_0905	s	s	8	2	SIC	386	1_4	1	4	2	2	23_2_2	1	2	1	0	0.634375095367	-489.0	-85.0	-496.0	-78.0	1
3.0.1	2019_Mar_12_0905	s	s	8	2	SIC	387	4_1	4	1	4	4	23_4_4	0	3	1	0	0.849031925201	-22.0	-72.0	-21.0	-77.0	1
3.0.1	2019_Mar_12_0905	s	s	8	2	SIC	388	ABS	0	0	4	2	24_4_2	NA	NA	0	1	5.61224889755	None	None	None	None	1
3.0.1	2019_Mar_12_0905	s	s	8	2	SIC	389	2_2	2	2	3	2	23_3_2	1	0	1	0	1.00421690941	-415.0	-174.0	-414.0	-174.0	1
3.0.1	2019_Mar_12_0905	s	s	8	2	SIC	390	ABS	0	0	3	1	24_3_1	NA	NA	0	1	4.05687904358	None	None	None	None	1
3.0.1	2019_Mar_12_0905	s	s	8	2	SIC	391	4_3	4	3	4	2	23_4_2	0	1	1	0	3.69234108925	229.0	298.0	221.0	298.0	1
3.0.1	2019_Mar_12_0905	s	s	8	2	SIC	392	ABS	0	0	1	3	24_1_3	NA	NA	0	1	5.47227787971	None	None	None	None	1
3.0.1	2019_Mar_12_0905	s	s	8	2	SIC	393	1_4	1	4	1	2	23_1_2	0	2	1	0	0.863023996353	303.0	-364.0	305.0	-358.0	1
3.0.1	2019_Mar_12_0905	s	s	8	2	SIC	394	ABS	0	0	1	3	24_1_3	NA	NA	0	1	4.04507398605	None	None	None	None	1
3.0.1	2019_Mar_12_0905	s	s	8	2	SIC	395	ABS	0	0	3	4	24_3_4	NA	NA	0	1	1.06048989296	None	None	None	None	1
3.0.1	2019_Mar_12_0905	s	s	8	2	SIC	396	1_1	1	1	3	2	23_3_2	2	1	1	0	0.569921970367	-129.0	271.0	-134.0	277.0	1
3.0.1	2019_Mar_12_0905	s	s	8	2	SIC	397	3_2	3	2	1	1	23_1_1	2	-1	1	0	0.854895114899	-370.0	350.0	-370.0	339.0	1
3.0.1	2019_Mar_12_0905	s	s	8	2	SIC	398	1_4	1	4	2	1	23_2_1	1	3	1	0	0.720532178879	46.0	189.0	38.0	189.0	1
3.0.1	2019_Mar_12_0905	s	s	8	2	SIC	399	1_3	1	3	3	4	23_3_4	2	-1	1	0	0.560297012329	48.0	92.0	56.0	93.0	1
3.0.1	2019_Mar_12_0905	s	s	8	2	SIC	400	ABS	0	0	3	1	24_3_1	NA	NA	0	1	2.6277589798	None	None	None	None	1
3.0.1	2019_Mar_12_0905	s	s	8	2	SIC	401	ABS	0	0	2	4	24_2_4	NA	NA	0	1	2.32384800911	None	None	None	None	1
3.0.1	2019_Mar_12_0905	s	s	8	2	SIC	402	ABS	0	0	2	1	24_2_1	NA	NA	0	1	3.34282398224	None	None	None	None	1
3.0.1	2019_Mar_12_0905	s	s	8	2	SIC	403	ABS	0	0	2	1	24_2_1	NA	NA	0	1	2.94408488274	None	None	None	None	1
3.0.1	2019_Mar_12_0905	s	s	8	2	SIC	404	1_3	1	3	2	4	23_2_4	1	-1	1	0	0.834405899048	-168.0	-74.0	-160.0	-69.0	1
3.0.1	2019_Mar_12_0905	s	s	8	2	SIC	405	ABS	0	0	1	3	24_1_3	NA	NA	0	1	4.60143303871	None	None	None	None	1
3.0.1	2019_Mar_12_0905	s	s	8	2	SIC	406	ABS	0	0	1	3	24_1_3	NA	NA	0	1	3.5442609787	None	None	None	None	1
3.0.1	2019_Mar_12_0905	s	s	8	2	SIC	407	ABS	0	0	3	3	24_3_3	NA	NA	0	1	1.58704996109	None	None	None	None	1
3.0.1	2019_Mar_12_0905	s	s	8	2	SIC	408	4_4	4	4	3	3	23_3_3	1	1	1	0	0.65086889267	471.0	-223.0	457.0	-214.0	1
3.0.1	2019_Mar_12_0905	s	s	8	2	SIC	409	4_2	4	2	3	4	23_3_4	1	2	1	0	0.52206492424	210.0	312.0	207.0	313.0	1
3.0.1	2019_Mar_12_0905	s	s	8	2	SIC	410	ABS	0	0	4	4	24_4_4	NA	NA	0	1	1.52822899818	None	None	None	None	1
3.0.1	2019_Mar_12_0905	s	s	8	2	SIC	411	ABS	0	0	3	3	24_3_3	NA	NA	0	1	4.49498009682	None	None	None	None	1
3.0.1	2019_Mar_12_0905	s	s	8	2	SIC	412	ABS	0	0	3	2	24_3_2	NA	NA	0	1	4.63785505295	None	None	None	None	1
3.0.1	2019_Mar_12_0905	s	s	8	2	SIC	413	1_1	1	1	1	4	23_1_4	0	3	1	0	0.575760126114	260.0	-45.0	266.0	-48.0	1
3.0.1	2019_Mar_12_0905	s	s	8	2	SIC	414	ABS	0	0	1	4	24_1_4	NA	NA	0	1	1.49931788445	None	None	None	None	1
3.0.1	2019_Mar_12_0905	s	s	8	2	SIC	415	4_2	4	2	4	4	23_4_4	0	2	1	0	0.616030931473	174.0	-165.0	170.0	-166.0	1
3.0.1	2019_Mar_12_0905	s	s	8	2	SIC	416	ABS	0	0	2	1	24_2_1	NA	NA	0	1	3.08358383179	None	None	None	None	1
3.0.1	2019_Mar_12_0905	s	s	8	2	SIC	417	ABS	0	0	2	2	24_2_2	NA	NA	0	1	5.00903892517	None	None	None	None	1
3.0.1	2019_Mar_12_0905	s	s	8	2	SIC	418	2_1	2	1	3	1	23_3_1	1	0	1	0	0.82780790329	153.0	-184.0	160.0	-186.0	1
3.0.1	2019_Mar_12_0905	s	s	8	2	SIC	419	3_2	3	2	2	2	23_2_2	1	0	1	0	1.3329668045	228.0	330.0	218.0	340.0	1
3.0.1	2019_Mar_12_0905	s	s	8	2	SIC	420	ABS	0	0	2	2	24_2_2	NA	NA	0	1	5.87992310524	None	None	None	None	1
3.0.1	2019_Mar_12_0905	s	s	8	2	SIC	421	ABS	0	0	2	4	24_2_4	NA	NA	0	1	2.78670477867	None	None	None	None	1
3.0.1	2019_Mar_12_0905	s	s	8	2	SIC	422	4_1	4	1	3	4	23_3_4	1	3	1	0	0.740262031555	348.0	22.0	341.0	23.0	1
3.0.1	2019_Mar_12_0905	s	s	8	2	SIC	423	2_4	2	4	3	3	23_3_3	1	1	1	0	1.11017894745	-182.0	-122.0	-190.0	-116.0	1
3.0.1	2019_Mar_12_0905	s	s	8	2	SIC	424	4_3	4	3	3	2	23_3_2	1	1	1	0	0.529010057449	-370.0	-175.0	-368.0	-173.0	1
3.0.1	2019_Mar_12_0905	s	s	8	2	SIC	425	ABS	0	0	4	1	24_4_1	NA	NA	0	1	3.01463913918	None	None	None	None	1
3.0.1	2019_Mar_12_0905	s	s	8	2	SIC	426	ABS	0	0	1	1	24_1_1	NA	NA	0	1	2.03447890282	None	None	None	None	1
3.0.1	2019_Mar_12_0905	s	s	8	2	SIC	427	3_3	3	3	2	2	23_2_2	1	1	1	0	0.638846874237	-310.0	-319.0	-308.0	-323.0	1
3.0.1	2019_Mar_12_0905	s	s	8	2	SIC	428	4_2	4	2	3	2	23_3_2	1	0	1	0	0.457951784134	254.0	57.0	249.0	61.0	1
3.0.1	2019_Mar_12_0905	s	s	8	2	SIC	429	ABS	0	0	1	4	24_1_4	NA	NA	0	1	1.65773010254	None	None	None	None	1
3.0.1	2019_Mar_12_0905	s	s	8	2	SIC	430	3_4	3	4	1	3	23_1_3	2	1	1	0	0.469671010971	-228.0	268.0	-220.0	267.0	1
3.0.1	2019_Mar_12_0905	s	s	8	2	SIC	431	ABS	0	0	1	2	24_1_2	NA	NA	0	1	5.2064139843	None	None	None	None	1
3.0.1	2019_Mar_12_0905	s	s	8	2	SIC	432	ABS	0	0	1	1	24_1_1	NA	NA	0	1	2.43837690353	None	None	None	None	1
3.0.1	2019_Mar_12_0905	s	s	8	2	SIC	433	ABS	0	0	2	3	24_2_3	NA	NA	0	1	2.73963499069	None	None	None	None	1
3.0.1	2019_Mar_12_0905	s	s	8	2	SIC	434	ABS	0	0	1	2	24_1_2	NA	NA	0	1	4.13194513321	None	None	None	None	1
3.0.1	2019_Mar_12_0905	s	s	8	2	SIC	435	ABS	0	0	3	1	24_3_1	NA	NA	0	1	2.0270280838	None	None	None	None	1
3.0.1	2019_Mar_12_0905	s	s	8	2	SIC	436	ABS	0	0	3	3	24_3_3	NA	NA	0	1	4.11574697495	None	None	None	None	1
3.0.1	2019_Mar_12_0905	s	s	8	2	SIC	437	ABS	0	0	3	1	24_3_1	NA	NA	0	1	1.89286613464	None	None	None	None	1
3.0.1	2019_Mar_12_0905	s	s	8	2	SIC	438	3_1	3	1	1	3	23_1_3	2	2	1	0	0.74028801918	97.0	379.0	93.0	383.0	1
3.0.1	2019_Mar_12_0905	s	s	8	2	SIC	439	ABS	0	0	1	2	24_1_2	NA	NA	0	1	5.84882903099	None	None	None	None	1
3.0.1	2019_Mar_12_0905	s	s	8	2	SIC	440	ABS	0	0	2	1	24_2_1	NA	NA	0	1	2.66264486313	None	None	None	None	1
3.0.1	2019_Mar_12_0905	s	s	8	2	SIC	441	1_1	1	1	2	2	23_2_2	1	1	1	0	1.4105989933	323.0	-11.0	321.0	-17.0	1
3.0.1	2019_Mar_12_0905	s	s	8	2	SIC	442	ABS	0	0	4	1	24_4_1	NA	NA	0	1	1.95169782639	None	None	None	None	1
3.0.1	2019_Mar_12_0905	s	s	8	2	SIC	443	ABS	0	0	4	2	24_4_2	NA	NA	0	1	5.51521587372	None	None	None	None	1
3.0.1	2019_Mar_12_0905	s	s	8	2	SIC	444	1_2	1	2	3	2	23_3_2	2	0	1	0	0.569531917572	303.0	-63.0	293.0	-65.0	1
3.0.1	2019_Mar_12_0905	s	s	8	2	SIC	445	ABS	0	0	1	1	24_1_1	NA	NA	0	1	3.38652396202	None	None	None	None	1
3.0.1	2019_Mar_12_0905	s	s	8	2	SIC	446	3_2	3	2	2	3	23_2_3	1	1	1	0	0.563859939575	-51.0	150.0	-53.0	145.0	1
3.0.1	2019_Mar_12_0905	s	s	8	2	SIC	447	4_1	4	1	2	4	23_2_4	2	3	1	0	0.496162891388	-310.0	-230.0	-306.0	-220.0	1
3.0.1	2019_Mar_12_0905	s	s	8	2	SIC	448	ABS	0	0	3	4	24_3_4	NA	NA	0	1	1.1166100502	None	None	None	None	1
3.0.1	2019_Mar_12_0905	s	s	8	2	SIC	449	ABS	0	0	1	1	24_1_1	NA	NA	0	1	1.34002900124	None	None	None	None	1
3.0.1	2019_Mar_12_0905	s	s	8	2	SIC	450	ABS	0	0	4	1	24_4_1	NA	NA	0	1	2.0222120285	None	None	None	None	1
3.0.1	2019_Mar_12_0905	s	s	8	2	SIC	451	2_2	2	2	2	3	23_2_3	0	1	1	0	3.49803495407	-44.0	207.0	-41.0	214.0	1
3.0.1	2019_Mar_12_0905	s	s	8	2	SIC	452	4_3	4	3	3	4	23_3_4	1	-1	1	0	0.481527090073	370.0	-68.0	374.0	-62.0	1
3.0.1	2019_Mar_12_0905	s	s	8	2	SIC	453	2_1	2	1	4	1	23_4_1	2	0	1	0	0.402107954025	-383.0	328.0	-386.0	329.0	1
3.0.1	2019_Mar_12_0905	s	s	8	2	SIC	454	ABS	0	0	3	4	24_3_4	NA	NA	0	1	2.31430411339	None	None	None	None	1
3.0.1	2019_Mar_12_0905	s	s	8	2	SIC	455	ABS	0	0	4	4	24_4_4	NA	NA	0	1	1.6862590313	None	None	None	None	1
3.0.1	2019_Mar_12_0905	s	s	8	2	SIC	456	ABS	0	0	2	2	24_2_2	NA	NA	0	1	4.61982011795	None	None	None	None	1
3.0.1	2019_Mar_12_0905	s	s	8	2	SIC	457	3_3	3	3	3	4	23_3_4	0	-1	1	0	0.998970031738	-22.0	-97.0	-20.0	-96.0	1
3.0.1	2019_Mar_12_0905	s	s	8	2	SIC	458	2_3	2	3	1	2	23_1_2	-1	1	1	0	1.18039798737	-171.0	90.0	-168.0	88.0	1
3.0.1	2019_Mar_12_0905	s	s	8	2	SIC	459	ABS	0	0	1	2	24_1_2	NA	NA	0	1	4.22595500946	None	None	None	None	1
3.0.1	2019_Mar_12_0905	s	s	8	2	SIC	460	4_3	4	3	4	1	23_4_1	0	2	1	0	0.860809087753	69.0	171.0	63.0	163.0	1
3.0.1	2019_Mar_12_0905	s	s	8	2	SIC	461	3_1	3	1	4	4	23_4_4	-1	3	1	0	0.485291004181	306.0	-34.0	312.0	-32.0	1
3.0.1	2019_Mar_12_0905	s	s	8	2	SIC	462	ABS	0	0	1	4	24_1_4	NA	NA	0	1	1.90782618523	None	None	None	None	1
3.0.1	2019_Mar_12_0905	s	s	8	2	SIC	463	ABS	0	0	3	1	24_3_1	NA	NA	0	1	2.84549021721	None	None	None	None	1
3.0.1	2019_Mar_12_0905	s	s	8	2	SIC	464	3_4	3	4	4	2	23_4_2	-1	2	1	0	0.563868999481	-466.0	-296.0	-468.0	-292.0	1
3.0.1	2019_Mar_12_0905	s	s	8	2	SIC	465	3_4	3	4	1	4	23_1_4	2	0	1	0	0.681486129761	-384.0	-174.0	-393.0	-178.0	1
3.0.1	2019_Mar_12_0905	s	s	8	2	SIC	466	ABS	0	0	2	3	24_2_3	NA	NA	0	1	2.70461416245	None	None	None	None	1
3.0.1	2019_Mar_12_0905	s	s	8	2	SIC	467	2_1	2	1	3	3	23_3_3	1	2	1	0	0.545482873917	278.0	39.0	279.0	38.0	1
3.0.1	2019_Mar_12_0905	s	s	8	2	SIC	468	2_3	2	3	3	4	23_3_4	1	-1	1	0	0.437361001968	213.0	262.0	214.0	256.0	1
3.0.1	2019_Mar_12_0905	s	s	8	2	SIC	469	1_1	1	1	4	1	23_4_1	3	0	1	0	0.496169805527	333.0	-203.0	324.0	-201.0	1
3.0.1	2019_Mar_12_0905	s	s	8	2	SIC	470	ABS	0	0	1	3	24_1_3	NA	NA	0	1	3.19835710526	None	None	None	None	1
3.0.1	2019_Mar_12_0905	s	s	8	2	SIC	471	ABS	0	0	2	1	24_2_1	NA	NA	0	1	2.99249410629	None	None	None	None	1
3.0.1	2019_Mar_12_0905	s	s	8	2	SIC	472	ABS	0	0	4	1	24_4_1	NA	NA	0	1	1.05074882507	None	None	None	None	1
3.0.1	2019_Mar_12_0905	s	s	8	2	SIC	473	ABS	0	0	3	2	24_3_2	NA	NA	0	1	4.44540309906	None	None	None	None	1
3.0.1	2019_Mar_12_0905	s	s	8	2	SIC	474	ABS	0	0	3	1	24_3_1	NA	NA	0	1	2.29685211182	None	None	None	None	1
3.0.1	2019_Mar_12_0905	s	s	8	2	SIC	475	4_4	4	4	2	3	23_2_3	2	1	1	0	0.579230070114	346.0	-410.0	350.0	-409.0	1
3.0.1	2019_Mar_12_0905	s	s	8	2	SIC	476	ABS	0	0	2	4	24_2_4	NA	NA	0	1	2.59856200218	None	None	None	None	1
3.0.1	2019_Mar_12_0905	s	s	8	2	SIC	477	ABS	0	0	1	2	24_1_2	NA	NA	0	1	5.84459710121	None	None	None	None	1
3.0.1	2019_Mar_12_0905	s	s	8	2	SIC	478	1_3	1	3	1	2	23_1_2	0	1	1	0	5.49184608459	-264.0	-269.0	-270.0	-268.0	1
3.0.1	2019_Mar_12_0905	s	s	8	2	SIC	479	ABS	0	0	1	3	24_1_3	NA	NA	0	1	3.70922493935	None	None	None	None	1
3.0.1	2019_Mar_12_0905	s	s	8	2	SIC	480	ABS	0	0	3	1	24_3_1	NA	NA	0	1	1.11701512337	None	None	None	None	1
