Version	Date	Stimuli	Method	Subject	Session	Condition	Trial	Target	TColor	TShape	DColor	DShape	Distractors	Channel1	Channel2	LMouseButton	RMouseButton	RT	TargetX	TargetY	ResponseX	ResponseY	Correct
3.0.1	2019_Mar_05_1116	s	s	9	1	Capacity	1	4_1	4	1	1	1	23_1_1	3	0	1	0	0.822691917419	176.0	-153.0	185.0	-154.0	1
3.0.1	2019_Mar_05_1116	s	s	9	1	Capacity	2	2_1	2	1	1	1	23_1_1	-1	0	0	1	0.790199041367	340.0	47.0	None	None	0
3.0.1	2019_Mar_05_1116	s	s	9	1	Capacity	3	ABS	0	0	1	1	24_1_1	NA	NA	0	1	0.913652896881	None	None	None	None	1
3.0.1	2019_Mar_05_1116	s	s	9	1	Capacity	4	2_1	2	1	3	1	23_3_1	1	0	1	0	1.21411895752	300.0	-354.0	302.0	-354.0	1
3.0.1	2019_Mar_05_1116	s	s	9	1	Capacity	5	4_1	4	1	2	1	23_2_1	2	0	1	0	1.12092709541	-338.0	287.0	-344.0	292.0	1
3.0.1	2019_Mar_05_1116	s	s	9	1	Capacity	6	ABS	0	0	4	1	24_4_1	NA	NA	0	1	1.01083183289	None	None	None	None	1
3.0.1	2019_Mar_05_1116	s	s	9	1	Capacity	7	ABS	0	0	1	1	24_1_1	NA	NA	0	1	1.16360616684	None	None	None	None	1
3.0.1	2019_Mar_05_1116	s	s	9	1	Capacity	8	1_1	1	1	3	1	23_3_1	2	0	1	0	0.790206193924	530.0	257.0	540.0	256.0	1
3.0.1	2019_Mar_05_1116	s	s	9	1	Capacity	9	ABS	0	0	2	1	24_2_1	NA	NA	0	1	1.37036585808	None	None	None	None	1
3.0.1	2019_Mar_05_1116	s	s	9	1	Capacity	10	3_1	3	1	2	1	23_2_1	1	0	1	0	0.841145038605	299.0	193.0	312.0	198.0	1
3.0.1	2019_Mar_05_1116	s	s	9	1	Capacity	11	ABS	0	0	4	1	24_4_1	NA	NA	0	1	1.13515996933	None	None	None	None	1
3.0.1	2019_Mar_05_1116	s	s	9	1	Capacity	12	1_1	1	1	2	1	23_2_1	1	0	0	1	1.24597096443	486.0	-65.0	None	None	0
3.0.1	2019_Mar_05_1116	s	s	9	1	Capacity	13	ABS	0	0	3	1	24_3_1	NA	NA	0	1	1.1690568924	None	None	None	None	1
3.0.1	2019_Mar_05_1116	s	s	9	1	Capacity	14	ABS	0	0	3	1	24_3_1	NA	NA	0	1	1.28429389	None	None	None	None	1
3.0.1	2019_Mar_05_1116	s	s	9	1	Capacity	15	2_1	2	1	4	1	23_4_1	2	0	1	0	0.626931905746	-259.0	-208.0	-257.0	-205.0	1
3.0.1	2019_Mar_05_1116	s	s	9	1	Capacity	16	ABS	0	0	4	1	24_4_1	NA	NA	0	1	0.790270090103	None	None	None	None	1
3.0.1	2019_Mar_05_1116	s	s	9	1	Capacity	17	1_1	1	1	4	1	23_4_1	3	0	1	0	0.652939081192	-424.0	328.0	-429.0	330.0	1
3.0.1	2019_Mar_05_1116	s	s	9	1	Capacity	18	ABS	0	0	2	1	24_2_1	NA	NA	0	1	1.12851881981	None	None	None	None	1
3.0.1	2019_Mar_05_1116	s	s	9	1	Capacity	19	4_1	4	1	3	1	23_3_1	1	0	1	0	0.740427017212	72.0	-142.0	76.0	-148.0	1
3.0.1	2019_Mar_05_1116	s	s	9	1	Capacity	20	3_1	3	1	1	1	23_1_1	2	0	1	0	0.816169023514	-414.0	-155.0	-406.0	-155.0	1
3.0.1	2019_Mar_05_1116	s	s	9	1	Capacity	21	ABS	0	0	3	1	24_3_1	NA	NA	0	1	1.11662197113	None	None	None	None	1
3.0.1	2019_Mar_05_1116	s	s	9	1	Capacity	22	ABS	0	0	2	1	24_2_1	NA	NA	0	1	0.987272977829	None	None	None	None	1
3.0.1	2019_Mar_05_1116	s	s	9	1	Capacity	23	3_1	3	1	4	1	23_4_1	-1	0	1	0	0.690145015717	-78.0	411.0	-72.0	413.0	1
3.0.1	2019_Mar_05_1116	s	s	9	1	Capacity	24	ABS	0	0	1	1	24_1_1	NA	NA	0	1	0.998999834061	None	None	None	None	1
3.0.1	2019_Mar_05_1116	s	s	9	1	Capacity	25	ABS	0	0	3	1	24_3_1	NA	NA	0	1	1.26068210602	None	None	None	None	1
3.0.1	2019_Mar_05_1116	s	s	9	1	Capacity	26	3_1	3	1	1	1	23_1_1	2	0	1	0	0.666640996933	-154.0	284.0	-148.0	287.0	1
3.0.1	2019_Mar_05_1116	s	s	9	1	Capacity	27	ABS	0	0	3	1	24_3_1	NA	NA	0	1	0.990042209625	None	None	None	None	1
3.0.1	2019_Mar_05_1116	s	s	9	1	Capacity	28	ABS	0	0	4	1	24_4_1	NA	NA	0	1	0.799317121506	None	None	None	None	1
3.0.1	2019_Mar_05_1116	s	s	9	1	Capacity	29	ABS	0	0	3	1	24_3_1	NA	NA	0	1	1.14514994621	None	None	None	None	1
3.0.1	2019_Mar_05_1116	s	s	9	1	Capacity	30	ABS	0	0	2	1	24_2_1	NA	NA	0	1	1.10491394997	None	None	None	None	1
3.0.1	2019_Mar_05_1116	s	s	9	1	Capacity	31	4_1	4	1	2	1	23_2_1	2	0	1	0	0.625606060028	485.0	140.0	491.0	139.0	1
3.0.1	2019_Mar_05_1116	s	s	9	1	Capacity	32	2_1	2	1	4	1	23_4_1	2	0	1	0	0.721585988998	-339.0	-385.0	-332.0	-385.0	1
3.0.1	2019_Mar_05_1116	s	s	9	1	Capacity	33	1_1	1	1	4	1	23_4_1	3	0	1	0	0.745231151581	-424.0	-91.0	-418.0	-93.0	1
3.0.1	2019_Mar_05_1116	s	s	9	1	Capacity	34	ABS	0	0	2	1	24_2_1	NA	NA	0	1	0.928961038589	None	None	None	None	1
3.0.1	2019_Mar_05_1116	s	s	9	1	Capacity	35	ABS	0	0	4	1	24_4_1	NA	NA	0	1	0.610939025879	None	None	None	None	1
3.0.1	2019_Mar_05_1116	s	s	9	1	Capacity	36	3_1	3	1	4	1	23_4_1	-1	0	1	0	0.560617208481	145.0	85.0	157.0	90.0	1
3.0.1	2019_Mar_05_1116	s	s	9	1	Capacity	37	1_1	1	1	3	1	23_3_1	2	0	1	0	0.673593997955	-100.0	381.0	-95.0	383.0	1
3.0.1	2019_Mar_05_1116	s	s	9	1	Capacity	38	ABS	0	0	4	1	24_4_1	NA	NA	0	1	0.745600938797	None	None	None	None	1
3.0.1	2019_Mar_05_1116	s	s	9	1	Capacity	39	ABS	0	0	1	1	24_1_1	NA	NA	0	1	0.957432985306	None	None	None	None	1
3.0.1	2019_Mar_05_1116	s	s	9	1	Capacity	40	ABS	0	0	1	1	24_1_1	NA	NA	0	1	0.834415912628	None	None	None	None	1
3.0.1	2019_Mar_05_1116	s	s	9	1	Capacity	41	2_1	2	1	1	1	23_1_1	-1	0	0	1	0.614790916443	-533.0	164.0	None	None	0
3.0.1	2019_Mar_05_1116	s	s	9	1	Capacity	42	4_1	4	1	3	1	23_3_1	1	0	1	0	0.563873052597	291.0	-210.0	292.0	-214.0	1
3.0.1	2019_Mar_05_1116	s	s	9	1	Capacity	43	ABS	0	0	1	1	24_1_1	NA	NA	0	1	0.745531082153	None	None	None	None	1
3.0.1	2019_Mar_05_1116	s	s	9	1	Capacity	44	4_1	4	1	1	1	23_1_1	3	0	1	0	0.48824095726	101.0	-36.0	107.0	-39.0	1
3.0.1	2019_Mar_05_1116	s	s	9	1	Capacity	45	ABS	0	0	2	1	24_2_1	NA	NA	0	1	1.116574049	None	None	None	None	1
3.0.1	2019_Mar_05_1116	s	s	9	1	Capacity	46	2_1	2	1	3	1	23_3_1	1	0	1	0	0.704960823059	-310.0	99.0	-314.0	102.0	1
3.0.1	2019_Mar_05_1116	s	s	9	1	Capacity	47	3_1	3	1	2	1	23_2_1	1	0	1	0	0.82253408432	425.0	43.0	427.0	42.0	1
3.0.1	2019_Mar_05_1116	s	s	9	1	Capacity	48	1_1	1	1	2	1	23_2_1	1	0	0	1	1.26956915855	-228.0	284.0	None	None	0
3.0.1	2019_Mar_05_1116	s	s	9	1	Capacity	49	2_1	2	1	1	1	23_1_1	-1	0	0	1	0.731386184692	-15.0	-258.0	None	None	0
3.0.1	2019_Mar_05_1116	s	s	9	1	Capacity	50	2_1	2	1	4	1	23_4_1	2	0	1	0	0.469775915146	-372.0	-342.0	-373.0	-353.0	1
3.0.1	2019_Mar_05_1116	s	s	9	1	Capacity	51	3_1	3	1	4	1	23_4_1	-1	0	1	0	0.933627843857	459.0	-229.0	464.0	-233.0	1
3.0.1	2019_Mar_05_1116	s	s	9	1	Capacity	52	1_1	1	1	3	1	23_3_1	2	0	1	0	0.733598947525	151.0	-367.0	154.0	-370.0	1
3.0.1	2019_Mar_05_1116	s	s	9	1	Capacity	53	2_1	2	1	3	1	23_3_1	1	0	1	0	0.560710906982	-521.0	-102.0	-519.0	-105.0	1
3.0.1	2019_Mar_05_1116	s	s	9	1	Capacity	54	ABS	0	0	1	1	24_1_1	NA	NA	0	1	1.14819693565	None	None	None	None	1
3.0.1	2019_Mar_05_1116	s	s	9	1	Capacity	55	ABS	0	0	3	1	24_3_1	NA	NA	0	1	0.716800928116	None	None	None	None	1
3.0.1	2019_Mar_05_1116	s	s	9	1	Capacity	56	ABS	0	0	2	1	24_2_1	NA	NA	0	1	1.34299588203	None	None	None	None	1
3.0.1	2019_Mar_05_1116	s	s	9	1	Capacity	57	4_1	4	1	1	1	23_1_1	3	0	1	0	0.528579950333	-207.0	80.0	-212.0	84.0	1
3.0.1	2019_Mar_05_1116	s	s	9	1	Capacity	58	1_1	1	1	4	1	23_4_1	3	0	1	0	0.481541156769	61.0	168.0	60.0	171.0	1
3.0.1	2019_Mar_05_1116	s	s	9	1	Capacity	59	ABS	0	0	3	1	24_3_1	NA	NA	0	1	0.870028972626	None	None	None	None	1
3.0.1	2019_Mar_05_1116	s	s	9	1	Capacity	60	ABS	0	0	4	1	24_4_1	NA	NA	0	1	0.834280014038	None	None	None	None	1
3.0.1	2019_Mar_05_1116	s	s	9	1	Capacity	61	ABS	0	0	3	1	24_3_1	NA	NA	0	1	0.898010015488	None	None	None	None	1
3.0.1	2019_Mar_05_1116	s	s	9	1	Capacity	62	1_1	1	1	2	1	23_2_1	1	0	0	1	0.999068975449	477.0	-37.0	None	None	0
3.0.1	2019_Mar_05_1116	s	s	9	1	Capacity	63	ABS	0	0	4	1	24_4_1	NA	NA	0	1	0.710340976715	None	None	None	None	1
3.0.1	2019_Mar_05_1116	s	s	9	1	Capacity	64	ABS	0	0	2	1	24_2_1	NA	NA	0	1	0.998962163925	None	None	None	None	1
3.0.1	2019_Mar_05_1116	s	s	9	1	Capacity	65	ABS	0	0	4	1	24_4_1	NA	NA	0	1	0.732420921326	None	None	None	None	1
3.0.1	2019_Mar_05_1116	s	s	9	1	Capacity	66	3_1	3	1	1	1	23_1_1	2	0	1	0	0.661304950714	20.0	-123.0	19.0	-128.0	1
3.0.1	2019_Mar_05_1116	s	s	9	1	Capacity	67	3_1	3	1	2	1	23_2_1	1	0	1	0	0.732366085052	-127.0	292.0	-125.0	285.0	1
3.0.1	2019_Mar_05_1116	s	s	9	1	Capacity	68	4_1	4	1	2	1	23_2_1	2	0	1	0	0.452453136444	268.0	-192.0	266.0	-188.0	1
3.0.1	2019_Mar_05_1116	s	s	9	1	Capacity	69	ABS	0	0	1	1	24_1_1	NA	NA	0	1	0.646563053131	None	None	None	None	1
3.0.1	2019_Mar_05_1116	s	s	9	1	Capacity	70	ABS	0	0	2	1	24_2_1	NA	NA	0	1	0.849020957947	None	None	None	None	1
3.0.1	2019_Mar_05_1116	s	s	9	1	Capacity	71	4_1	4	1	3	1	23_3_1	1	0	1	0	0.505326032639	60.0	326.0	60.0	324.0	1
3.0.1	2019_Mar_05_1116	s	s	9	1	Capacity	72	ABS	0	0	1	1	24_1_1	NA	NA	0	1	1.1873281002	None	None	None	None	1
3.0.1	2019_Mar_05_1116	s	s	9	1	Capacity	73	ABS	0	0	3	1	24_3_1	NA	NA	0	1	0.756888151169	None	None	None	None	1
3.0.1	2019_Mar_05_1116	s	s	9	1	Capacity	74	ABS	0	0	1	1	24_1_1	NA	NA	0	1	0.658002138138	None	None	None	None	1
3.0.1	2019_Mar_05_1116	s	s	9	1	Capacity	75	ABS	0	0	3	1	24_3_1	NA	NA	0	1	0.782253980637	None	None	None	None	1
3.0.1	2019_Mar_05_1116	s	s	9	1	Capacity	76	3_1	3	1	4	1	23_4_1	-1	0	1	0	0.563884973526	218.0	386.0	228.0	384.0	1
3.0.1	2019_Mar_05_1116	s	s	9	1	Capacity	77	ABS	0	0	4	1	24_4_1	NA	NA	0	1	0.721839904785	None	None	None	None	1
3.0.1	2019_Mar_05_1116	s	s	9	1	Capacity	78	4_1	4	1	2	1	23_2_1	2	0	1	0	0.678915023804	-523.0	-303.0	-523.0	-303.0	1
3.0.1	2019_Mar_05_1116	s	s	9	1	Capacity	79	ABS	0	0	4	1	24_4_1	NA	NA	0	1	1.31140780449	None	None	None	None	1
3.0.1	2019_Mar_05_1116	s	s	9	1	Capacity	80	ABS	0	0	2	1	24_2_1	NA	NA	0	1	0.738885164261	None	None	None	None	1
3.0.1	2019_Mar_05_1116	s	s	9	1	Capacity	81	ABS	0	0	3	1	24_3_1	NA	NA	0	1	0.646154165268	None	None	None	None	1
3.0.1	2019_Mar_05_1116	s	s	9	1	Capacity	82	2_1	2	1	4	1	23_4_1	2	0	1	0	0.423130989075	-433.0	105.0	-434.0	106.0	1
3.0.1	2019_Mar_05_1116	s	s	9	1	Capacity	83	1_1	1	1	2	1	23_2_1	1	0	0	1	1.41068506241	50.0	17.0	None	None	0
3.0.1	2019_Mar_05_1116	s	s	9	1	Capacity	84	2_1	2	1	1	1	23_1_1	-1	0	0	1	1.32831597328	232.0	312.0	None	None	0
3.0.1	2019_Mar_05_1116	s	s	9	1	Capacity	85	ABS	0	0	1	1	24_1_1	NA	NA	0	1	1.10980892181	None	None	None	None	1
3.0.1	2019_Mar_05_1116	s	s	9	1	Capacity	86	ABS	0	0	2	1	24_2_1	NA	NA	0	1	1.12114787102	None	None	None	None	1
3.0.1	2019_Mar_05_1116	s	s	9	1	Capacity	87	3_1	3	1	2	1	23_2_1	1	0	1	0	0.698044061661	-278.0	-191.0	-273.0	-196.0	1
3.0.1	2019_Mar_05_1116	s	s	9	1	Capacity	88	3_1	3	1	1	1	23_1_1	2	0	1	0	0.569849967957	-358.0	63.0	-359.0	64.0	1
3.0.1	2019_Mar_05_1116	s	s	9	1	Capacity	89	ABS	0	0	4	1	24_4_1	NA	NA	0	1	0.790283918381	None	None	None	None	1
3.0.1	2019_Mar_05_1116	s	s	9	1	Capacity	90	2_1	2	1	3	1	23_3_1	1	0	1	0	0.634443044662	372.0	204.0	368.0	208.0	1
3.0.1	2019_Mar_05_1116	s	s	9	1	Capacity	91	4_1	4	1	1	1	23_1_1	3	0	1	0	0.540400028229	355.0	-216.0	363.0	-213.0	1
3.0.1	2019_Mar_05_1116	s	s	9	1	Capacity	92	1_1	1	1	4	1	23_4_1	3	0	1	0	0.502259969711	-83.0	146.0	-80.0	151.0	1
3.0.1	2019_Mar_05_1116	s	s	9	1	Capacity	93	1_1	1	1	3	1	23_3_1	2	0	1	0	0.651013851166	-101.0	70.0	-99.0	69.0	1
3.0.1	2019_Mar_05_1116	s	s	9	1	Capacity	94	ABS	0	0	2	1	24_2_1	NA	NA	0	1	0.886210918427	None	None	None	None	1
3.0.1	2019_Mar_05_1116	s	s	9	1	Capacity	95	ABS	0	0	1	1	24_1_1	NA	NA	0	1	0.971644878387	None	None	None	None	1
3.0.1	2019_Mar_05_1116	s	s	9	1	Capacity	96	4_1	4	1	3	1	23_3_1	1	0	1	0	0.460973978043	310.0	106.0	312.0	103.0	1
3.0.1	2019_Mar_05_1116	s	s	9	1	Capacity	1	1_1	1	1	1	2	23_1_2	0	1	0	1	2.33268404007	-101.0	-322.0	None	None	0
3.0.1	2019_Mar_05_1116	s	s	9	1	Capacity	2	1_4	1	4	1	3	23_1_3	0	1	1	0	0.769203901291	-121.0	-82.0	-121.0	-84.0	1
3.0.1	2019_Mar_05_1116	s	s	9	1	Capacity	3	ABS	0	0	1	4	24_1_4	NA	NA	0	1	2.11629581451	None	None	None	None	1
3.0.1	2019_Mar_05_1116	s	s	9	1	Capacity	4	1_2	1	2	1	3	23_1_3	0	1	1	0	2.80290699005	-162.0	365.0	-166.0	363.0	1
3.0.1	2019_Mar_05_1116	s	s	9	1	Capacity	5	ABS	0	0	1	1	24_1_1	NA	NA	0	1	2.06928801537	None	None	None	None	1
3.0.1	2019_Mar_05_1116	s	s	9	1	Capacity	6	1_2	1	2	1	1	23_1_1	0	-1	1	0	1.83407902718	179.0	-75.0	177.0	-75.0	1
3.0.1	2019_Mar_05_1116	s	s	9	1	Capacity	7	ABS	0	0	1	2	24_1_2	NA	NA	0	1	3.04536294937	None	None	None	None	1
3.0.1	2019_Mar_05_1116	s	s	9	1	Capacity	8	1_3	1	3	1	1	23_1_1	0	2	1	0	2.07446193695	-321.0	-403.0	-323.0	-405.0	1
3.0.1	2019_Mar_05_1116	s	s	9	1	Capacity	9	1_2	1	2	1	4	23_1_4	0	2	1	0	1.20195603371	-511.0	237.0	-511.0	234.0	1
3.0.1	2019_Mar_05_1116	s	s	9	1	Capacity	10	1_3	1	3	1	2	23_1_2	0	1	0	1	2.69264698029	-18.0	-108.0	None	None	0
3.0.1	2019_Mar_05_1116	s	s	9	1	Capacity	11	1_4	1	4	1	2	23_1_2	0	2	1	0	0.869712114334	472.0	-10.0	480.0	-9.0	1
3.0.1	2019_Mar_05_1116	s	s	9	1	Capacity	12	1_1	1	1	1	3	23_1_3	0	2	1	0	2.04574584961	-525.0	-69.0	-525.0	-70.0	1
3.0.1	2019_Mar_05_1116	s	s	9	1	Capacity	13	ABS	0	0	1	2	24_1_2	NA	NA	0	1	3.16811394691	None	None	None	None	1
3.0.1	2019_Mar_05_1116	s	s	9	1	Capacity	14	ABS	0	0	1	3	24_1_3	NA	NA	0	1	3.53147602081	None	None	None	None	1
3.0.1	2019_Mar_05_1116	s	s	9	1	Capacity	15	ABS	0	0	1	1	24_1_1	NA	NA	0	1	2.01050400734	None	None	None	None	1
3.0.1	2019_Mar_05_1116	s	s	9	1	Capacity	16	1_1	1	1	1	4	23_1_4	0	3	1	0	0.839470863342	132.0	-3.0	133.0	-3.0	1
3.0.1	2019_Mar_05_1116	s	s	9	1	Capacity	17	1_4	1	4	1	1	23_1_1	0	3	1	0	0.850154876709	511.0	179.0	508.0	178.0	1
3.0.1	2019_Mar_05_1116	s	s	9	1	Capacity	18	ABS	0	0	1	3	24_1_3	NA	NA	0	1	3.0248439312	None	None	None	None	1
3.0.1	2019_Mar_05_1116	s	s	9	1	Capacity	19	ABS	0	0	1	4	24_1_4	NA	NA	0	1	1.99295306206	None	None	None	None	1
3.0.1	2019_Mar_05_1116	s	s	9	1	Capacity	20	ABS	0	0	1	4	24_1_4	NA	NA	0	1	2.26038789749	None	None	None	None	1
3.0.1	2019_Mar_05_1116	s	s	9	1	Capacity	21	1_3	1	3	1	4	23_1_4	0	-1	1	0	0.893212080002	460.0	-181.0	460.0	-184.0	1
3.0.1	2019_Mar_05_1116	s	s	9	1	Capacity	22	ABS	0	0	1	2	24_1_2	NA	NA	0	1	3.51588010788	None	None	None	None	1
3.0.1	2019_Mar_05_1116	s	s	9	1	Capacity	23	ABS	0	0	1	1	24_1_1	NA	NA	0	1	2.93959784508	None	None	None	None	1
3.0.1	2019_Mar_05_1116	s	s	9	1	Capacity	24	ABS	0	0	1	3	24_1_3	NA	NA	0	1	3.34421396255	None	None	None	None	1
3.0.1	2019_Mar_05_1116	s	s	9	1	Capacity	25	1_3	1	3	1	1	23_1_1	0	2	1	0	0.827592849731	21.0	137.0	22.0	128.0	1
3.0.1	2019_Mar_05_1116	s	s	9	1	Capacity	26	ABS	0	0	1	4	24_1_4	NA	NA	0	1	2.69622993469	None	None	None	None	1
3.0.1	2019_Mar_05_1116	s	s	9	1	Capacity	27	1_4	1	4	1	3	23_1_3	0	1	1	0	0.79907989502	194.0	310.0	189.0	317.0	1
3.0.1	2019_Mar_05_1116	s	s	9	1	Capacity	28	ABS	0	0	1	4	24_1_4	NA	NA	0	1	2.35671591759	None	None	None	None	1
3.0.1	2019_Mar_05_1116	s	s	9	1	Capacity	29	ABS	0	0	1	1	24_1_1	NA	NA	0	1	2.83379006386	None	None	None	None	1
3.0.1	2019_Mar_05_1116	s	s	9	1	Capacity	30	ABS	0	0	1	3	24_1_3	NA	NA	0	1	3.30429291725	None	None	None	None	1
3.0.1	2019_Mar_05_1116	s	s	9	1	Capacity	31	1_1	1	1	1	3	23_1_3	0	2	1	0	0.869600057602	260.0	192.0	260.0	191.0	1
3.0.1	2019_Mar_05_1116	s	s	9	1	Capacity	32	ABS	0	0	1	3	24_1_3	NA	NA	0	1	3.79709887505	None	None	None	None	1
3.0.1	2019_Mar_05_1116	s	s	9	1	Capacity	33	ABS	0	0	1	4	24_1_4	NA	NA	0	1	2.50038003922	None	None	None	None	1
3.0.1	2019_Mar_05_1116	s	s	9	1	Capacity	34	ABS	0	0	1	3	24_1_3	NA	NA	0	1	4.19294691086	None	None	None	None	1
3.0.1	2019_Mar_05_1116	s	s	9	1	Capacity	35	1_3	1	3	1	4	23_1_4	0	-1	1	0	0.957278966904	-374.0	372.0	-373.0	373.0	1
3.0.1	2019_Mar_05_1116	s	s	9	1	Capacity	36	1_2	1	2	1	3	23_1_3	0	1	1	0	2.73191905022	-381.0	-237.0	-382.0	-237.0	1
3.0.1	2019_Mar_05_1116	s	s	9	1	Capacity	37	ABS	0	0	1	1	24_1_1	NA	NA	0	1	2.39357209206	None	None	None	None	1
3.0.1	2019_Mar_05_1116	s	s	9	1	Capacity	38	ABS	0	0	1	1	24_1_1	NA	NA	0	1	2.370002985	None	None	None	None	1
3.0.1	2019_Mar_05_1116	s	s	9	1	Capacity	39	ABS	0	0	1	2	24_1_2	NA	NA	0	1	4.23861312866	None	None	None	None	1
3.0.1	2019_Mar_05_1116	s	s	9	1	Capacity	40	ABS	0	0	1	2	24_1_2	NA	NA	0	1	4.02998685837	None	None	None	None	1
3.0.1	2019_Mar_05_1116	s	s	9	1	Capacity	41	1_3	1	3	1	2	23_1_2	0	1	1	0	4.78119301796	147.0	64.0	155.0	65.0	1
3.0.1	2019_Mar_05_1116	s	s	9	1	Capacity	42	ABS	0	0	1	2	24_1_2	NA	NA	0	1	5.33886408806	None	None	None	None	1
3.0.1	2019_Mar_05_1116	s	s	9	1	Capacity	43	1_1	1	1	1	2	23_1_2	0	1	1	0	2.92131090164	447.0	-271.0	449.0	-272.0	1
3.0.1	2019_Mar_05_1116	s	s	9	1	Capacity	44	1_1	1	1	1	4	23_1_4	0	3	1	0	0.89320898056	-319.0	179.0	-313.0	173.0	1
3.0.1	2019_Mar_05_1116	s	s	9	1	Capacity	45	1_4	1	4	1	2	23_1_2	0	2	1	0	0.775784015656	444.0	76.0	446.0	77.0	1
3.0.1	2019_Mar_05_1116	s	s	9	1	Capacity	46	1_2	1	2	1	1	23_1_1	0	-1	1	0	2.81384110451	13.0	362.0	20.0	363.0	1
3.0.1	2019_Mar_05_1116	s	s	9	1	Capacity	47	1_2	1	2	1	4	23_1_4	0	2	1	0	1.91638612747	-458.0	-380.0	-459.0	-381.0	1
3.0.1	2019_Mar_05_1116	s	s	9	1	Capacity	48	1_4	1	4	1	1	23_1_1	0	3	1	0	0.780363798141	-146.0	180.0	-150.0	175.0	1
3.0.1	2019_Mar_05_1116	s	s	9	1	Capacity	49	1_4	1	4	1	2	23_1_2	0	2	1	0	0.634402036667	285.0	-179.0	282.0	-181.0	1
3.0.1	2019_Mar_05_1116	s	s	9	1	Capacity	50	1_3	1	3	1	1	23_1_1	0	2	1	0	0.966640949249	514.0	163.0	514.0	162.0	1
3.0.1	2019_Mar_05_1116	s	s	9	1	Capacity	51	ABS	0	0	1	3	24_1_3	NA	NA	0	1	4.74193906784	None	None	None	None	1
3.0.1	2019_Mar_05_1116	s	s	9	1	Capacity	52	ABS	0	0	1	3	24_1_3	NA	NA	0	1	3.41005516052	None	None	None	None	1
3.0.1	2019_Mar_05_1116	s	s	9	1	Capacity	53	ABS	0	0	1	4	24_1_4	NA	NA	0	1	2.58022809029	None	None	None	None	1
3.0.1	2019_Mar_05_1116	s	s	9	1	Capacity	54	ABS	0	0	1	2	24_1_2	NA	NA	0	1	4.12747502327	None	None	None	None	1
3.0.1	2019_Mar_05_1116	s	s	9	1	Capacity	55	ABS	0	0	1	4	24_1_4	NA	NA	0	1	2.22721481323	None	None	None	None	1
3.0.1	2019_Mar_05_1116	s	s	9	1	Capacity	56	1_1	1	1	1	3	23_1_3	0	2	1	0	0.754933834076	-130.0	3.0	-121.0	4.0	1
3.0.1	2019_Mar_05_1116	s	s	9	1	Capacity	57	1_2	1	2	1	4	23_1_4	0	2	1	0	0.599183082581	-78.0	12.0	-80.0	11.0	1
3.0.1	2019_Mar_05_1116	s	s	9	1	Capacity	58	1_2	1	2	1	3	23_1_3	0	1	1	0	4.39808797836	155.0	152.0	162.0	153.0	1
3.0.1	2019_Mar_05_1116	s	s	9	1	Capacity	59	ABS	0	0	1	1	24_1_1	NA	NA	0	1	4.1916179657	None	None	None	None	1
3.0.1	2019_Mar_05_1116	s	s	9	1	Capacity	60	ABS	0	0	1	2	24_1_2	NA	NA	0	1	4.74442005157	None	None	None	None	1
3.0.1	2019_Mar_05_1116	s	s	9	1	Capacity	61	1_1	1	1	1	4	23_1_4	0	3	1	0	0.851140975952	486.0	19.0	491.0	15.0	1
3.0.1	2019_Mar_05_1116	s	s	9	1	Capacity	62	1_4	1	4	1	1	23_1_1	0	3	1	0	0.627341032028	-98.0	-45.0	-102.0	-48.0	1
3.0.1	2019_Mar_05_1116	s	s	9	1	Capacity	63	1_4	1	4	1	3	23_1_3	0	1	1	0	2.35199093819	30.0	-361.0	28.0	-362.0	1
3.0.1	2019_Mar_05_1116	s	s	9	1	Capacity	64	1_1	1	1	1	2	23_1_2	0	1	0	1	3.89894485474	187.0	-309.0	None	None	0
3.0.1	2019_Mar_05_1116	s	s	9	1	Capacity	65	1_3	1	3	1	4	23_1_4	0	-1	1	0	1.19255900383	-94.0	-318.0	-92.0	-319.0	1
3.0.1	2019_Mar_05_1116	s	s	9	1	Capacity	66	ABS	0	0	1	3	24_1_3	NA	NA	0	1	3.90402603149	None	None	None	None	1
3.0.1	2019_Mar_05_1116	s	s	9	1	Capacity	67	ABS	0	0	1	2	24_1_2	NA	NA	0	1	4.38619112968	None	None	None	None	1
3.0.1	2019_Mar_05_1116	s	s	9	1	Capacity	68	1_2	1	2	1	1	23_1_1	0	-1	1	0	1.74439001083	205.0	-155.0	205.0	-151.0	1
3.0.1	2019_Mar_05_1116	s	s	9	1	Capacity	69	1_3	1	3	1	2	23_1_2	0	1	0	1	4.29210209846	-425.0	28.0	None	None	0
3.0.1	2019_Mar_05_1116	s	s	9	1	Capacity	70	ABS	0	0	1	1	24_1_1	NA	NA	0	1	3.09578585625	None	None	None	None	1
3.0.1	2019_Mar_05_1116	s	s	9	1	Capacity	71	ABS	0	0	1	1	24_1_1	NA	NA	0	1	3.65065312386	None	None	None	None	1
3.0.1	2019_Mar_05_1116	s	s	9	1	Capacity	72	ABS	0	0	1	4	24_1_4	NA	NA	0	1	2.29276800156	None	None	None	None	1
3.0.1	2019_Mar_05_1116	s	s	9	1	Capacity	73	ABS	0	0	1	2	24_1_2	NA	NA	0	1	4.05687379837	None	None	None	None	1
3.0.1	2019_Mar_05_1116	s	s	9	1	Capacity	74	ABS	0	0	1	3	24_1_3	NA	NA	0	1	4.67668104172	None	None	None	None	1
3.0.1	2019_Mar_05_1116	s	s	9	1	Capacity	75	ABS	0	0	1	1	24_1_1	NA	NA	0	1	2.67753696442	None	None	None	None	1
3.0.1	2019_Mar_05_1116	s	s	9	1	Capacity	76	1_1	1	1	1	2	23_1_2	0	1	1	0	3.72428321838	110.0	-193.0	117.0	-193.0	1
3.0.1	2019_Mar_05_1116	s	s	9	1	Capacity	77	ABS	0	0	1	1	24_1_1	NA	NA	0	1	2.90433979034	None	None	None	None	1
3.0.1	2019_Mar_05_1116	s	s	9	1	Capacity	78	1_2	1	2	1	1	23_1_1	0	-1	1	0	1.57881498337	-420.0	-255.0	-415.0	-248.0	1
3.0.1	2019_Mar_05_1116	s	s	9	1	Capacity	79	1_4	1	4	1	2	23_1_2	0	2	1	0	1.78058505058	494.0	277.0	495.0	280.0	1
3.0.1	2019_Mar_05_1116	s	s	9	1	Capacity	80	1_3	1	3	1	1	23_1_1	0	2	1	0	1.28128194809	-415.0	-245.0	-414.0	-251.0	1
3.0.1	2019_Mar_05_1116	s	s	9	1	Capacity	81	1_4	1	4	1	1	23_1_1	0	3	1	0	0.613806962967	-403.0	367.0	-403.0	364.0	1
3.0.1	2019_Mar_05_1116	s	s	9	1	Capacity	82	ABS	0	0	1	1	24_1_1	NA	NA	0	1	3.07328891754	None	None	None	None	1
3.0.1	2019_Mar_05_1116	s	s	9	1	Capacity	83	ABS	0	0	1	2	24_1_2	NA	NA	0	1	3.95622777939	None	None	None	None	1
3.0.1	2019_Mar_05_1116	s	s	9	1	Capacity	84	1_2	1	2	1	3	23_1_3	0	1	1	0	1.81054902077	300.0	5.0	298.0	3.0	1
3.0.1	2019_Mar_05_1116	s	s	9	1	Capacity	85	1_4	1	4	1	3	23_1_3	0	1	1	0	1.06152796745	353.0	-287.0	353.0	-294.0	1
3.0.1	2019_Mar_05_1116	s	s	9	1	Capacity	86	1_3	1	3	1	2	23_1_2	0	1	0	1	4.35084295273	-243.0	-106.0	None	None	0
3.0.1	2019_Mar_05_1116	s	s	9	1	Capacity	87	ABS	0	0	1	4	24_1_4	NA	NA	0	1	2.37795686722	None	None	None	None	1
3.0.1	2019_Mar_05_1116	s	s	9	1	Capacity	88	1_1	1	1	1	4	23_1_4	0	3	1	0	0.672581911087	105.0	237.0	108.0	238.0	1
3.0.1	2019_Mar_05_1116	s	s	9	1	Capacity	89	ABS	0	0	1	4	24_1_4	NA	NA	0	1	2.57492899895	None	None	None	None	1
3.0.1	2019_Mar_05_1116	s	s	9	1	Capacity	90	ABS	0	0	1	4	24_1_4	NA	NA	0	1	2.41400408745	None	None	None	None	1
3.0.1	2019_Mar_05_1116	s	s	9	1	Capacity	91	1_1	1	1	1	3	23_1_3	0	2	1	0	0.587870121002	-232.0	177.0	-238.0	174.0	1
3.0.1	2019_Mar_05_1116	s	s	9	1	Capacity	92	ABS	0	0	1	3	24_1_3	NA	NA	0	1	2.83384990692	None	None	None	None	1
3.0.1	2019_Mar_05_1116	s	s	9	1	Capacity	93	1_3	1	3	1	4	23_1_4	0	-1	1	0	0.893229007721	-340.0	-314.0	-335.0	-316.0	1
3.0.1	2019_Mar_05_1116	s	s	9	1	Capacity	94	ABS	0	0	1	2	24_1_2	NA	NA	0	1	5.53886198997	None	None	None	None	1
3.0.1	2019_Mar_05_1116	s	s	9	1	Capacity	95	ABS	0	0	1	3	24_1_3	NA	NA	0	1	3.78936195374	None	None	None	None	1
3.0.1	2019_Mar_05_1116	s	s	9	1	Capacity	96	1_2	1	2	1	4	23_1_4	0	2	1	0	0.752038002014	-497.0	59.0	-495.0	54.0	1
3.0.1	2019_Mar_05_1116	s	s	9	1	SIC	1	2_2	2	2	2	4	23_2_4	0	2	1	0	0.6149289608	53.0	-239.0	57.0	-240.0	1
3.0.1	2019_Mar_05_1116	s	s	9	1	SIC	2	4_2	4	2	1	4	23_1_4	3	2	1	0	0.404680013657	-238.0	43.0	-235.0	45.0	1
3.0.1	2019_Mar_05_1116	s	s	9	1	SIC	3	ABS	0	0	3	1	24_3_1	NA	NA	0	1	2.86905789375	None	None	None	None	1
3.0.1	2019_Mar_05_1116	s	s	9	1	SIC	4	2_2	2	2	1	1	23_1_1	-1	-1	1	0	1.50474095345	214.0	-202.0	209.0	-206.0	1
3.0.1	2019_Mar_05_1116	s	s	9	1	SIC	5	2_4	2	4	1	4	23_1_4	-1	0	1	0	3.89556503296	237.0	114.0	239.0	110.0	1
3.0.1	2019_Mar_05_1116	s	s	9	1	SIC	6	1_2	1	2	2	3	23_2_3	1	1	1	0	1.1285071373	103.0	-38.0	104.0	-37.0	1
3.0.1	2019_Mar_05_1116	s	s	9	1	SIC	7	3_2	3	2	1	2	23_1_2	2	0	1	0	1.1804959774	431.0	337.0	431.0	329.0	1
3.0.1	2019_Mar_05_1116	s	s	9	1	SIC	8	ABS	0	0	4	2	24_4_2	NA	NA	0	1	5.45992207527	None	None	None	None	1
3.0.1	2019_Mar_05_1116	s	s	9	1	SIC	9	ABS	0	0	1	4	24_1_4	NA	NA	0	1	2.51628398895	None	None	None	None	1
3.0.1	2019_Mar_05_1116	s	s	9	1	SIC	10	ABS	0	0	2	1	24_2_1	NA	NA	0	1	3.28112912178	None	None	None	None	1
3.0.1	2019_Mar_05_1116	s	s	9	1	SIC	11	ABS	0	0	4	3	24_4_3	NA	NA	0	1	4.32765889168	None	None	None	None	1
3.0.1	2019_Mar_05_1116	s	s	9	1	SIC	12	ABS	0	0	4	1	24_4_1	NA	NA	0	1	3.31927394867	None	None	None	None	1
3.0.1	2019_Mar_05_1116	s	s	9	1	SIC	13	ABS	0	0	2	2	24_2_2	NA	NA	0	1	5.93875813484	None	None	None	None	1
3.0.1	2019_Mar_05_1116	s	s	9	1	SIC	14	2_1	2	1	4	2	23_4_2	2	1	1	0	0.743748903275	-420.0	393.0	-418.0	392.0	1
3.0.1	2019_Mar_05_1116	s	s	9	1	SIC	15	1_3	1	3	4	1	23_4_1	3	2	1	0	0.803776025772	495.0	282.0	494.0	280.0	1
3.0.1	2019_Mar_05_1116	s	s	9	1	SIC	16	4_1	4	1	2	1	23_2_1	2	0	1	0	0.599164962769	526.0	-258.0	533.0	-260.0	1
3.0.1	2019_Mar_05_1116	s	s	9	1	SIC	17	ABS	0	0	4	4	24_4_4	NA	NA	0	1	2.42218017578	None	None	None	None	1
3.0.1	2019_Mar_05_1116	s	s	9	1	SIC	18	ABS	0	0	4	4	24_4_4	NA	NA	0	1	2.34271407127	None	None	None	None	1
3.0.1	2019_Mar_05_1116	s	s	9	1	SIC	19	ABS	0	0	3	4	24_3_4	NA	NA	0	1	2.586840868	None	None	None	None	1
3.0.1	2019_Mar_05_1116	s	s	9	1	SIC	20	2_1	2	1	1	2	23_1_2	-1	1	1	0	2.92785906792	-262.0	-363.0	-256.0	-366.0	1
3.0.1	2019_Mar_05_1116	s	s	9	1	SIC	21	4_4	4	4	3	3	23_3_3	1	1	1	0	0.672617912292	-429.0	-337.0	-423.0	-336.0	1
3.0.1	2019_Mar_05_1116	s	s	9	1	SIC	22	ABS	0	0	3	4	24_3_4	NA	NA	0	1	3.08377504349	None	None	None	None	1
3.0.1	2019_Mar_05_1116	s	s	9	1	SIC	23	ABS	0	0	1	1	24_1_1	NA	NA	0	1	3.20135402679	None	None	None	None	1
3.0.1	2019_Mar_05_1116	s	s	9	1	SIC	24	ABS	0	0	4	1	24_4_1	NA	NA	0	1	3.03024482727	None	None	None	None	1
3.0.1	2019_Mar_05_1116	s	s	9	1	SIC	25	ABS	0	0	1	4	24_1_4	NA	NA	0	1	3.15589499474	None	None	None	None	1
3.0.1	2019_Mar_05_1116	s	s	9	1	SIC	26	2_1	2	1	2	4	23_2_4	0	3	1	0	0.610945224762	16.0	188.0	15.0	189.0	1
3.0.1	2019_Mar_05_1116	s	s	9	1	SIC	27	ABS	0	0	3	3	24_3_3	NA	NA	0	1	2.25097179413	None	None	None	None	1
3.0.1	2019_Mar_05_1116	s	s	9	1	SIC	28	3_1	3	1	2	3	23_2_3	1	2	1	0	1.04607200623	63.0	-312.0	69.0	-308.0	1
3.0.1	2019_Mar_05_1116	s	s	9	1	SIC	29	ABS	0	0	4	2	24_4_2	NA	NA	0	1	4.53917098045	None	None	None	None	1
3.0.1	2019_Mar_05_1116	s	s	9	1	SIC	30	ABS	0	0	3	1	24_3_1	NA	NA	0	1	2.74497199059	None	None	None	None	1
3.0.1	2019_Mar_05_1116	s	s	9	1	SIC	31	2_3	2	3	1	4	23_1_4	-1	-1	1	0	0.999059915543	-317.0	279.0	-327.0	277.0	1
3.0.1	2019_Mar_05_1116	s	s	9	1	SIC	32	4_4	4	4	3	2	23_3_2	1	2	1	0	0.705080986023	-412.0	61.0	-406.0	63.0	1
3.0.1	2019_Mar_05_1116	s	s	9	1	SIC	33	3_2	3	2	4	2	23_4_2	-1	0	1	0	0.704977035522	201.0	11.0	207.0	10.0	1
3.0.1	2019_Mar_05_1116	s	s	9	1	SIC	34	3_4	3	4	1	4	23_1_4	2	0	1	0	0.92844080925	334.0	352.0	333.0	347.0	1
3.0.1	2019_Mar_05_1116	s	s	9	1	SIC	35	ABS	0	0	4	2	24_4_2	NA	NA	0	1	6.10618901253	None	None	None	None	1
3.0.1	2019_Mar_05_1116	s	s	9	1	SIC	36	1_1	1	1	4	3	23_4_3	3	2	1	0	0.861853122711	-402.0	-401.0	-402.0	-414.0	1
3.0.1	2019_Mar_05_1116	s	s	9	1	SIC	37	ABS	0	0	3	1	24_3_1	NA	NA	0	1	3.3869202137	None	None	None	None	1
3.0.1	2019_Mar_05_1116	s	s	9	1	SIC	38	ABS	0	0	4	4	24_4_4	NA	NA	0	1	2.36792397499	None	None	None	None	1
3.0.1	2019_Mar_05_1116	s	s	9	1	SIC	39	ABS	0	0	2	2	24_2_2	NA	NA	0	1	4.65693497658	None	None	None	None	1
3.0.1	2019_Mar_05_1116	s	s	9	1	SIC	40	2_4	2	4	1	1	23_1_1	-1	3	1	0	0.82267999649	-494.0	343.0	-497.0	345.0	1
3.0.1	2019_Mar_05_1116	s	s	9	1	SIC	41	ABS	0	0	3	2	24_3_2	NA	NA	0	1	3.03224420547	None	None	None	None	1
3.0.1	2019_Mar_05_1116	s	s	9	1	SIC	42	2_1	2	1	3	4	23_3_4	1	3	1	0	0.846590042114	536.0	239.0	539.0	242.0	1
3.0.1	2019_Mar_05_1116	s	s	9	1	SIC	43	3_1	3	1	1	2	23_1_2	2	1	1	0	0.839730978012	432.0	-274.0	439.0	-278.0	1
3.0.1	2019_Mar_05_1116	s	s	9	1	SIC	44	4_2	4	2	3	2	23_3_2	1	0	1	0	0.561542034149	148.0	-277.0	144.0	-276.0	1
3.0.1	2019_Mar_05_1116	s	s	9	1	SIC	45	ABS	0	0	4	1	24_4_1	NA	NA	0	1	2.77494382858	None	None	None	None	1
3.0.1	2019_Mar_05_1116	s	s	9	1	SIC	46	ABS	0	0	4	3	24_4_3	NA	NA	0	1	3.42183995247	None	None	None	None	1
3.0.1	2019_Mar_05_1116	s	s	9	1	SIC	47	ABS	0	0	1	1	24_1_1	NA	NA	0	1	2.67203688622	None	None	None	None	1
3.0.1	2019_Mar_05_1116	s	s	9	1	SIC	48	2_3	2	3	1	1	23_1_1	-1	2	1	0	0.951987028122	-487.0	127.0	-494.0	127.0	1
3.0.1	2019_Mar_05_1116	s	s	9	1	SIC	49	1_1	1	1	4	1	23_4_1	3	0	1	0	0.592236042023	204.0	-312.0	198.0	-315.0	1
3.0.1	2019_Mar_05_1116	s	s	9	1	SIC	50	ABS	0	0	1	4	24_1_4	NA	NA	0	1	2.31925606728	None	None	None	None	1
3.0.1	2019_Mar_05_1116	s	s	9	1	SIC	51	ABS	0	0	2	4	24_2_4	NA	NA	0	1	1.92552399635	None	None	None	None	1
3.0.1	2019_Mar_05_1116	s	s	9	1	SIC	52	ABS	0	0	1	4	24_1_4	NA	NA	0	1	2.5750169754	None	None	None	None	1
3.0.1	2019_Mar_05_1116	s	s	9	1	SIC	53	4_1	4	1	3	1	23_3_1	1	0	1	0	0.605581998825	-503.0	-30.0	-508.0	-32.0	1
3.0.1	2019_Mar_05_1116	s	s	9	1	SIC	54	ABS	0	0	4	1	24_4_1	NA	NA	0	1	2.65037083626	None	None	None	None	1
3.0.1	2019_Mar_05_1116	s	s	9	1	SIC	55	ABS	0	0	3	4	24_3_4	NA	NA	0	1	1.59129619598	None	None	None	None	1
3.0.1	2019_Mar_05_1116	s	s	9	1	SIC	56	1_3	1	3	3	3	23_3_3	2	0	1	0	0.775585889816	-285.0	-376.0	-285.0	-376.0	1
3.0.1	2019_Mar_05_1116	s	s	9	1	SIC	57	4_2	4	2	4	3	23_4_3	0	1	1	0	1.81058192253	-163.0	-70.0	-164.0	-76.0	1
3.0.1	2019_Mar_05_1116	s	s	9	1	SIC	58	2_2	2	2	2	3	23_2_3	0	1	1	0	3.69746184349	164.0	-353.0	161.0	-356.0	1
3.0.1	2019_Mar_05_1116	s	s	9	1	SIC	59	1_1	1	1	3	2	23_3_2	2	1	1	0	0.67264509201	151.0	246.0	152.0	240.0	1
3.0.1	2019_Mar_05_1116	s	s	9	1	SIC	60	ABS	0	0	1	3	24_1_3	NA	NA	0	1	3.69234395027	None	None	None	None	1
3.0.1	2019_Mar_05_1116	s	s	9	1	SIC	61	ABS	0	0	4	3	24_4_3	NA	NA	0	1	3.05090904236	None	None	None	None	1
3.0.1	2019_Mar_05_1116	s	s	9	1	SIC	62	ABS	0	0	3	1	24_3_1	NA	NA	0	1	2.1427898407	None	None	None	None	1
3.0.1	2019_Mar_05_1116	s	s	9	1	SIC	63	2_2	2	2	3	4	23_3_4	1	2	1	0	0.822615146637	375.0	-205.0	376.0	-207.0	1
3.0.1	2019_Mar_05_1116	s	s	9	1	SIC	64	3_4	3	4	2	3	23_2_3	1	1	1	0	0.851951122284	-521.0	-196.0	-526.0	-200.0	1
3.0.1	2019_Mar_05_1116	s	s	9	1	SIC	65	ABS	0	0	3	1	24_3_1	NA	NA	0	1	2.45744109154	None	None	None	None	1
3.0.1	2019_Mar_05_1116	s	s	9	1	SIC	66	ABS	0	0	2	2	24_2_2	NA	NA	0	1	5.13273215294	None	None	None	None	1
3.0.1	2019_Mar_05_1116	s	s	9	1	SIC	67	ABS	0	0	2	3	24_2_3	NA	NA	0	1	3.69237112999	None	None	None	None	1
3.0.1	2019_Mar_05_1116	s	s	9	1	SIC	68	ABS	0	0	3	1	24_3_1	NA	NA	0	1	2.70444202423	None	None	None	None	1
3.0.1	2019_Mar_05_1116	s	s	9	1	SIC	69	1_2	1	2	3	2	23_3_2	2	0	1	0	0.810865163803	468.0	-93.0	462.0	-89.0	1
3.0.1	2019_Mar_05_1116	s	s	9	1	SIC	70	ABS	0	0	1	1	24_1_1	NA	NA	0	1	2.10979413986	None	None	None	None	1
3.0.1	2019_Mar_05_1116	s	s	9	1	SIC	71	3_2	3	2	1	1	23_1_1	2	-1	1	0	0.70504283905	102.0	-84.0	105.0	-85.0	1
3.0.1	2019_Mar_05_1116	s	s	9	1	SIC	72	ABS	0	0	1	1	24_1_1	NA	NA	0	1	2.7895898819	None	None	None	None	1
3.0.1	2019_Mar_05_1116	s	s	9	1	SIC	73	ABS	0	0	4	1	24_4_1	NA	NA	0	1	2.16619706154	None	None	None	None	1
3.0.1	2019_Mar_05_1116	s	s	9	1	SIC	74	ABS	0	0	1	3	24_1_3	NA	NA	0	1	2.78967905045	None	None	None	None	1
3.0.1	2019_Mar_05_1116	s	s	9	1	SIC	75	ABS	0	0	1	1	24_1_1	NA	NA	0	1	2.25107502937	None	None	None	None	1
3.0.1	2019_Mar_05_1116	s	s	9	1	SIC	76	4_3	4	3	3	3	23_3_3	1	0	1	0	0.578594923019	196.0	9.0	198.0	6.0	1
3.0.1	2019_Mar_05_1116	s	s	9	1	SIC	77	ABS	0	0	2	2	24_2_2	NA	NA	0	1	3.05720710754	None	None	None	None	1
3.0.1	2019_Mar_05_1116	s	s	9	1	SIC	78	ABS	0	0	2	4	24_2_4	NA	NA	0	1	2.18689894676	None	None	None	None	1
3.0.1	2019_Mar_05_1116	s	s	9	1	SIC	79	ABS	0	0	3	3	24_3_3	NA	NA	0	1	3.01024794579	None	None	None	None	1
3.0.1	2019_Mar_05_1116	s	s	9	1	SIC	80	ABS	0	0	2	1	24_2_1	NA	NA	0	1	3.63362693787	None	None	None	None	1
3.0.1	2019_Mar_05_1116	s	s	9	1	SIC	81	3_1	3	1	2	2	23_2_2	1	1	1	0	2.71627902985	335.0	-396.0	341.0	-398.0	1
3.0.1	2019_Mar_05_1116	s	s	9	1	SIC	82	ABS	0	0	1	1	24_1_1	NA	NA	0	1	5.84465193748	None	None	None	None	1
3.0.1	2019_Mar_05_1116	s	s	9	1	SIC	83	4_3	4	3	3	4	23_3_4	1	-1	1	0	0.615884065628	477.0	132.0	478.0	132.0	1
3.0.1	2019_Mar_05_1116	s	s	9	1	SIC	84	ABS	0	0	4	3	24_4_3	NA	NA	0	1	3.5462911129	None	None	None	None	1
3.0.1	2019_Mar_05_1116	s	s	9	1	SIC	85	4_1	4	1	2	4	23_2_4	2	3	1	0	0.651234149933	390.0	147.0	389.0	144.0	1
3.0.1	2019_Mar_05_1116	s	s	9	1	SIC	86	ABS	0	0	4	3	24_4_3	NA	NA	0	1	2.59897279739	None	None	None	None	1
3.0.1	2019_Mar_05_1116	s	s	9	1	SIC	87	ABS	0	0	4	2	24_4_2	NA	NA	0	1	4.91118407249	None	None	None	None	1
3.0.1	2019_Mar_05_1116	s	s	9	1	SIC	88	1_1	1	1	3	3	23_3_3	2	2	1	0	1.01736021042	320.0	-278.0	316.0	-277.0	1
3.0.1	2019_Mar_05_1116	s	s	9	1	SIC	89	ABS	0	0	1	3	24_1_3	NA	NA	0	1	2.95136904716	None	None	None	None	1
3.0.1	2019_Mar_05_1116	s	s	9	1	SIC	90	ABS	0	0	2	4	24_2_4	NA	NA	0	1	2.39375495911	None	None	None	None	1
3.0.1	2019_Mar_05_1116	s	s	9	1	SIC	91	2_4	2	4	4	4	23_4_4	2	0	1	0	0.575586795807	-203.0	241.0	-193.0	244.0	1
3.0.1	2019_Mar_05_1116	s	s	9	1	SIC	92	3_4	3	4	2	4	23_2_4	1	0	1	0	0.814595937729	233.0	-186.0	231.0	-190.0	1
3.0.1	2019_Mar_05_1116	s	s	9	1	SIC	93	ABS	0	0	4	3	24_4_3	NA	NA	0	1	3.50955915451	None	None	None	None	1
3.0.1	2019_Mar_05_1116	s	s	9	1	SIC	94	ABS	0	0	3	4	24_3_4	NA	NA	0	1	2.75681900978	None	None	None	None	1
3.0.1	2019_Mar_05_1116	s	s	9	1	SIC	95	1_1	1	1	1	3	23_1_3	0	2	1	0	1.16372799873	463.0	252.0	463.0	249.0	1
3.0.1	2019_Mar_05_1116	s	s	9	1	SIC	96	2_2	2	2	4	4	23_4_4	2	2	1	0	0.569276094437	93.0	321.0	100.0	320.0	1
3.0.1	2019_Mar_05_1116	s	s	9	1	SIC	97	ABS	0	0	3	4	24_3_4	NA	NA	0	1	1.93983197212	None	None	None	None	1
3.0.1	2019_Mar_05_1116	s	s	9	1	SIC	98	2_2	2	2	3	1	23_3_1	1	-1	1	0	0.869776010513	-378.0	258.0	-373.0	255.0	1
3.0.1	2019_Mar_05_1116	s	s	9	1	SIC	99	3_1	3	1	1	3	23_1_3	2	2	1	0	0.686429977417	231.0	-21.0	229.0	-20.0	1
3.0.1	2019_Mar_05_1116	s	s	9	1	SIC	100	4_2	4	2	3	1	23_3_1	1	-1	1	0	0.540378093719	302.0	224.0	302.0	222.0	1
3.0.1	2019_Mar_05_1116	s	s	9	1	SIC	101	1_2	1	2	1	4	23_1_4	0	2	1	0	0.693339109421	-368.0	-2.0	-374.0	5.0	1
3.0.1	2019_Mar_05_1116	s	s	9	1	SIC	102	1_4	1	4	2	4	23_2_4	1	0	0	1	2.30967593193	413.0	-264.0	None	None	0
3.0.1	2019_Mar_05_1116	s	s	9	1	SIC	103	ABS	0	0	3	4	24_3_4	NA	NA	0	1	1.6521589756	None	None	None	None	1
3.0.1	2019_Mar_05_1116	s	s	9	1	SIC	104	4_4	4	4	2	4	23_2_4	2	0	1	0	0.626848936081	-69.0	-302.0	-68.0	-301.0	1
3.0.1	2019_Mar_05_1116	s	s	9	1	SIC	105	2_1	2	1	2	2	23_2_2	0	1	0	1	2.58678007126	46.0	326.0	None	None	0
3.0.1	2019_Mar_05_1116	s	s	9	1	SIC	106	ABS	0	0	2	3	24_2_3	NA	NA	0	1	2.04577088356	None	None	None	None	1
3.0.1	2019_Mar_05_1116	s	s	9	1	SIC	107	1_3	1	3	1	2	23_1_2	0	1	1	0	2.59112882614	291.0	297.0	292.0	298.0	1
3.0.1	2019_Mar_05_1116	s	s	9	1	SIC	108	ABS	0	0	4	2	24_4_2	NA	NA	0	1	4.8478269577	None	None	None	None	1
3.0.1	2019_Mar_05_1116	s	s	9	1	SIC	109	ABS	0	0	3	1	24_3_1	NA	NA	0	1	2.98952102661	None	None	None	None	1
3.0.1	2019_Mar_05_1116	s	s	9	1	SIC	110	1_1	1	1	1	4	23_1_4	0	3	1	0	0.752201795578	411.0	-209.0	414.0	-211.0	1
3.0.1	2019_Mar_05_1116	s	s	9	1	SIC	111	ABS	0	0	1	4	24_1_4	NA	NA	0	1	3.10436987877	None	None	None	None	1
3.0.1	2019_Mar_05_1116	s	s	9	1	SIC	112	1_3	1	3	4	2	23_4_2	3	1	1	0	0.599239110947	-536.0	-53.0	-535.0	-56.0	1
3.0.1	2019_Mar_05_1116	s	s	9	1	SIC	113	ABS	0	0	4	1	24_4_1	NA	NA	0	1	2.49544692039	None	None	None	None	1
3.0.1	2019_Mar_05_1116	s	s	9	1	SIC	114	ABS	0	0	1	1	24_1_1	NA	NA	0	1	3.21596479416	None	None	None	None	1
3.0.1	2019_Mar_05_1116	s	s	9	1	SIC	115	ABS	0	0	2	3	24_2_3	NA	NA	0	1	3.80117106438	None	None	None	None	1
3.0.1	2019_Mar_05_1116	s	s	9	1	SIC	116	ABS	0	0	3	3	24_3_3	NA	NA	0	1	3.32302188873	None	None	None	None	1
3.0.1	2019_Mar_05_1116	s	s	9	1	SIC	117	ABS	0	0	3	2	24_3_2	NA	NA	0	1	3.90797305107	None	None	None	None	1
3.0.1	2019_Mar_05_1116	s	s	9	1	SIC	118	1_2	1	2	3	4	23_3_4	2	2	1	0	0.834553956985	-526.0	228.0	-523.0	229.0	1
3.0.1	2019_Mar_05_1116	s	s	9	1	SIC	119	ABS	0	0	3	1	24_3_1	NA	NA	0	1	3.51872396469	None	None	None	None	1
3.0.1	2019_Mar_05_1116	s	s	9	1	SIC	120	2_2	2	2	3	2	23_3_2	1	0	1	0	0.992304086685	214.0	16.0	213.0	21.0	1
3.0.1	2019_Mar_05_1116	s	s	9	1	SIC	121	ABS	0	0	3	3	24_3_3	NA	NA	0	1	2.78675484657	None	None	None	None	1
3.0.1	2019_Mar_05_1116	s	s	9	1	SIC	122	ABS	0	0	4	3	24_4_3	NA	NA	0	1	2.85254001617	None	None	None	None	1
3.0.1	2019_Mar_05_1116	s	s	9	1	SIC	123	ABS	0	0	3	3	24_3_3	NA	NA	0	1	2.73085618019	None	None	None	None	1
3.0.1	2019_Mar_05_1116	s	s	9	1	SIC	124	1_4	1	4	1	1	23_1_1	0	3	1	0	0.673093080521	105.0	-24.0	102.0	-25.0	1
3.0.1	2019_Mar_05_1116	s	s	9	1	SIC	125	ABS	0	0	2	3	24_2_3	NA	NA	0	1	3.10420203209	None	None	None	None	1
3.0.1	2019_Mar_05_1116	s	s	9	1	SIC	126	1_4	1	4	4	2	23_4_2	3	2	1	0	0.611431837082	-132.0	234.0	-131.0	237.0	1
3.0.1	2019_Mar_05_1116	s	s	9	1	SIC	127	3_3	3	3	2	2	23_2_2	1	1	1	0	0.834411859512	155.0	372.0	164.0	372.0	1
3.0.1	2019_Mar_05_1116	s	s	9	1	SIC	128	1_4	1	4	2	1	23_2_1	1	3	1	0	1.06289100647	-14.0	308.0	-11.0	300.0	1
3.0.1	2019_Mar_05_1116	s	s	9	1	SIC	129	1_3	1	3	2	4	23_2_4	1	-1	1	0	0.775613069534	-13.0	209.0	-16.0	210.0	1
3.0.1	2019_Mar_05_1116	s	s	9	1	SIC	130	ABS	0	0	2	4	24_2_4	NA	NA	0	1	3.31602120399	None	None	None	None	1
3.0.1	2019_Mar_05_1116	s	s	9	1	SIC	131	2_3	2	3	1	3	23_1_3	-1	0	0	1	3.89772105217	369.0	6.0	None	None	0
3.0.1	2019_Mar_05_1116	s	s	9	1	SIC	132	ABS	0	0	3	1	24_3_1	NA	NA	0	1	2.88078403473	None	None	None	None	1
3.0.1	2019_Mar_05_1116	s	s	9	1	SIC	133	ABS	0	0	2	2	24_2_2	NA	NA	0	1	3.62177395821	None	None	None	None	1
3.0.1	2019_Mar_05_1116	s	s	9	1	SIC	134	1_2	1	2	2	1	23_2_1	1	-1	1	0	1.22768211365	-478.0	267.0	-474.0	266.0	1
3.0.1	2019_Mar_05_1116	s	s	9	1	SIC	135	ABS	0	0	3	1	24_3_1	NA	NA	0	1	2.25242304802	None	None	None	None	1
3.0.1	2019_Mar_05_1116	s	s	9	1	SIC	136	ABS	0	0	4	1	24_4_1	NA	NA	0	1	2.42221593857	None	None	None	None	1
3.0.1	2019_Mar_05_1116	s	s	9	1	SIC	137	4_2	4	2	3	4	23_3_4	1	2	1	0	0.634449005127	-452.0	57.0	-452.0	60.0	1
3.0.1	2019_Mar_05_1116	s	s	9	1	SIC	138	ABS	0	0	2	1	24_2_1	NA	NA	0	1	2.34611296654	None	None	None	None	1
3.0.1	2019_Mar_05_1116	s	s	9	1	SIC	139	3_3	3	3	2	3	23_2_3	1	0	1	0	2.94383978844	-409.0	-336.0	-406.0	-337.0	1
3.0.1	2019_Mar_05_1116	s	s	9	1	SIC	140	ABS	0	0	1	2	24_1_2	NA	NA	0	1	4.40969204903	None	None	None	None	1
3.0.1	2019_Mar_05_1116	s	s	9	1	SIC	141	ABS	0	0	4	2	24_4_2	NA	NA	0	1	4.97960686684	None	None	None	None	1
3.0.1	2019_Mar_05_1116	s	s	9	1	SIC	142	4_3	4	3	3	2	23_3_2	1	1	1	0	0.710047960281	-110.0	-13.0	-108.0	-14.0	1
3.0.1	2019_Mar_05_1116	s	s	9	1	SIC	143	4_2	4	2	2	2	23_2_2	2	0	1	0	0.460927009583	-241.0	-28.0	-237.0	-24.0	1
3.0.1	2019_Mar_05_1116	s	s	9	1	SIC	144	3_3	3	3	2	4	23_2_4	1	-1	1	0	0.496150016785	301.0	31.0	304.0	29.0	1
3.0.1	2019_Mar_05_1116	s	s	9	1	SIC	145	ABS	0	0	2	1	24_2_1	NA	NA	0	1	3.46310591698	None	None	None	None	1
3.0.1	2019_Mar_05_1116	s	s	9	1	SIC	146	1_4	1	4	1	3	23_1_3	0	1	1	0	0.863160133362	-486.0	-282.0	-487.0	-275.0	1
3.0.1	2019_Mar_05_1116	s	s	9	1	SIC	147	ABS	0	0	4	2	24_4_2	NA	NA	0	1	3.84524607658	None	None	None	None	1
3.0.1	2019_Mar_05_1116	s	s	9	1	SIC	148	ABS	0	0	4	1	24_4_1	NA	NA	0	1	2.91610503197	None	None	None	None	1
3.0.1	2019_Mar_05_1116	s	s	9	1	SIC	149	ABS	0	0	2	3	24_2_3	NA	NA	0	1	5.29664206505	None	None	None	None	1
3.0.1	2019_Mar_05_1116	s	s	9	1	SIC	150	3_3	3	3	3	1	23_3_1	0	2	1	0	1.3342051506	-99.0	-239.0	-93.0	-235.0	1
3.0.1	2019_Mar_05_1116	s	s	9	1	SIC	151	ABS	0	0	3	3	24_3_3	NA	NA	0	1	3.45700907707	None	None	None	None	1
3.0.1	2019_Mar_05_1116	s	s	9	1	SIC	152	3_3	3	3	1	1	23_1_1	2	2	1	0	0.661896944046	466.0	-66.0	466.0	-67.0	1
3.0.1	2019_Mar_05_1116	s	s	9	1	SIC	153	ABS	0	0	2	1	24_2_1	NA	NA	0	1	2.26228618622	None	None	None	None	1
3.0.1	2019_Mar_05_1116	s	s	9	1	SIC	154	3_1	3	1	2	4	23_2_4	1	3	1	0	0.646260023117	135.0	57.0	136.0	60.0	1
3.0.1	2019_Mar_05_1116	s	s	9	1	SIC	155	1_2	1	2	3	1	23_3_1	2	-1	1	0	0.993844032288	39.0	-382.0	42.0	-382.0	1
3.0.1	2019_Mar_05_1116	s	s	9	1	SIC	156	2_1	2	1	3	1	23_3_1	1	0	1	0	0.65810418129	110.0	-15.0	118.0	-19.0	1
3.0.1	2019_Mar_05_1116	s	s	9	1	SIC	157	3_4	3	4	2	2	23_2_2	1	2	1	0	0.799103975296	438.0	149.0	440.0	148.0	1
3.0.1	2019_Mar_05_1116	s	s	9	1	SIC	158	4_4	4	4	1	1	23_1_1	3	3	1	0	0.51681303978	233.0	-194.0	230.0	-200.0	1
3.0.1	2019_Mar_05_1116	s	s	9	1	SIC	159	ABS	0	0	2	4	24_2_4	NA	NA	0	1	2.16336798668	None	None	None	None	1
3.0.1	2019_Mar_05_1116	s	s	9	1	SIC	160	ABS	0	0	2	1	24_2_1	NA	NA	0	1	2.121062994	None	None	None	None	1
3.0.1	2019_Mar_05_1116	s	s	9	1	SIC	161	ABS	0	0	4	2	24_4_2	NA	NA	0	1	2.61538887024	None	None	None	None	1
3.0.1	2019_Mar_05_1116	s	s	9	1	SIC	162	ABS	0	0	4	2	24_4_2	NA	NA	0	1	4.82143092155	None	None	None	None	1
3.0.1	2019_Mar_05_1116	s	s	9	1	SIC	163	ABS	0	0	4	4	24_4_4	NA	NA	0	1	3.28689885139	None	None	None	None	1
3.0.1	2019_Mar_05_1116	s	s	9	1	SIC	164	1_4	1	4	3	4	23_3_4	2	0	1	0	0.686514854431	23.0	51.0	25.0	50.0	1
3.0.1	2019_Mar_05_1116	s	s	9	1	SIC	165	1_4	1	4	3	2	23_3_2	2	2	1	0	0.746970891953	377.0	410.0	380.0	410.0	1
3.0.1	2019_Mar_05_1116	s	s	9	1	SIC	166	ABS	0	0	3	4	24_3_4	NA	NA	0	1	2.35670614243	None	None	None	None	1
3.0.1	2019_Mar_05_1116	s	s	9	1	SIC	167	ABS	0	0	3	4	24_3_4	NA	NA	0	1	2.04992198944	None	None	None	None	1
3.0.1	2019_Mar_05_1116	s	s	9	1	SIC	168	ABS	0	0	4	3	24_4_3	NA	NA	0	1	3.09714913368	None	None	None	None	1
3.0.1	2019_Mar_05_1116	s	s	9	1	SIC	169	ABS	0	0	2	4	24_2_4	NA	NA	0	1	1.90959596634	None	None	None	None	1
3.0.1	2019_Mar_05_1116	s	s	9	1	SIC	170	2_4	2	4	3	4	23_3_4	1	0	1	0	0.677462100983	-339.0	171.0	-336.0	170.0	1
3.0.1	2019_Mar_05_1116	s	s	9	1	SIC	171	1_2	1	2	4	4	23_4_4	3	2	1	0	0.554941892624	-5.0	-231.0	-5.0	-232.0	1
3.0.1	2019_Mar_05_1116	s	s	9	1	SIC	172	ABS	0	0	1	3	24_1_3	NA	NA	0	1	3.86872506142	None	None	None	None	1
3.0.1	2019_Mar_05_1116	s	s	9	1	SIC	173	1_4	1	4	1	2	23_1_2	0	2	1	0	0.697504043579	-370.0	-221.0	-365.0	-217.0	1
3.0.1	2019_Mar_05_1116	s	s	9	1	SIC	174	3_2	3	2	2	3	23_2_3	1	1	1	0	0.704988002777	-200.0	-269.0	-202.0	-271.0	1
3.0.1	2019_Mar_05_1116	s	s	9	1	SIC	175	1_4	1	4	4	3	23_4_3	3	1	1	0	0.5167760849	-481.0	148.0	-477.0	150.0	1
3.0.1	2019_Mar_05_1116	s	s	9	1	SIC	176	ABS	0	0	2	4	24_2_4	NA	NA	0	1	3.16310501099	None	None	None	None	1
3.0.1	2019_Mar_05_1116	s	s	9	1	SIC	177	1_1	1	1	2	3	23_2_3	1	2	1	0	0.973140954971	-440.0	254.0	-445.0	250.0	1
3.0.1	2019_Mar_05_1116	s	s	9	1	SIC	178	3_1	3	1	3	2	23_3_2	0	1	1	0	1.68115997314	-335.0	143.0	-335.0	147.0	1
3.0.1	2019_Mar_05_1116	s	s	9	1	SIC	179	2_3	2	3	2	2	23_2_2	0	1	1	0	4.13263511658	-354.0	-321.0	-353.0	-322.0	1
3.0.1	2019_Mar_05_1116	s	s	9	1	SIC	180	ABS	0	0	2	3	24_2_3	NA	NA	0	1	4.8478770256	None	None	None	None	1
3.0.1	2019_Mar_05_1116	s	s	9	1	SIC	181	ABS	0	0	1	2	24_1_2	NA	NA	0	1	5.58590602875	None	None	None	None	1
3.0.1	2019_Mar_05_1116	s	s	9	1	SIC	182	ABS	0	0	3	1	24_3_1	NA	NA	0	1	3.79826307297	None	None	None	None	1
3.0.1	2019_Mar_05_1116	s	s	9	1	SIC	183	ABS	0	0	3	1	24_3_1	NA	NA	0	1	2.82203793526	None	None	None	None	1
3.0.1	2019_Mar_05_1116	s	s	9	1	SIC	184	4_2	4	2	2	3	23_2_3	2	1	1	0	0.71714091301	536.0	122.0	529.0	117.0	1
3.0.1	2019_Mar_05_1116	s	s	9	1	SIC	185	ABS	0	0	2	1	24_2_1	NA	NA	0	1	3.01015281677	None	None	None	None	1
3.0.1	2019_Mar_05_1116	s	s	9	1	SIC	186	1_1	1	1	4	2	23_4_2	3	1	1	0	0.498346090317	-284.0	103.0	-283.0	107.0	1
3.0.1	2019_Mar_05_1116	s	s	9	1	SIC	187	1_2	1	2	4	2	23_4_2	3	0	1	0	0.496187925339	-121.0	-54.0	-118.0	-52.0	1
3.0.1	2019_Mar_05_1116	s	s	9	1	SIC	188	ABS	0	0	1	3	24_1_3	NA	NA	0	1	3.47386407852	None	None	None	None	1
3.0.1	2019_Mar_05_1116	s	s	9	1	SIC	189	2_1	2	1	4	4	23_4_4	2	3	1	0	0.618387937546	405.0	-330.0	415.0	-325.0	1
3.0.1	2019_Mar_05_1116	s	s	9	1	SIC	190	ABS	0	0	2	2	24_2_2	NA	NA	0	1	3.99807190895	None	None	None	None	1
3.0.1	2019_Mar_05_1116	s	s	9	1	SIC	191	ABS	0	0	4	4	24_4_4	NA	NA	0	1	1.91654205322	None	None	None	None	1
3.0.1	2019_Mar_05_1116	s	s	9	1	SIC	192	3_2	3	2	2	1	23_2_1	1	-1	1	0	0.869622945786	-433.0	-340.0	-429.0	-337.0	1
3.0.1	2019_Mar_05_1116	s	s	9	1	SIC	193	ABS	0	0	4	1	24_4_1	NA	NA	0	1	1.84871196747	None	None	None	None	1
3.0.1	2019_Mar_05_1116	s	s	9	1	SIC	194	ABS	0	0	1	3	24_1_3	NA	NA	0	1	2.62761688232	None	None	None	None	1
3.0.1	2019_Mar_05_1116	s	s	9	1	SIC	195	ABS	0	0	1	2	24_1_2	NA	NA	0	1	3.30424690247	None	None	None	None	1
3.0.1	2019_Mar_05_1116	s	s	9	1	SIC	196	ABS	0	0	2	1	24_2_1	NA	NA	0	1	2.53980398178	None	None	None	None	1
3.0.1	2019_Mar_05_1116	s	s	9	1	SIC	197	2_2	2	2	4	2	23_4_2	2	0	1	0	0.651225090027	-93.0	-119.0	-96.0	-126.0	1
3.0.1	2019_Mar_05_1116	s	s	9	1	SIC	198	ABS	0	0	1	4	24_1_4	NA	NA	0	1	2.33975315094	None	None	None	None	1
3.0.1	2019_Mar_05_1116	s	s	9	1	SIC	199	4_4	4	4	2	2	23_2_2	2	2	1	0	0.599221944809	-488.0	-207.0	-489.0	-201.0	1
3.0.1	2019_Mar_05_1116	s	s	9	1	SIC	200	3_2	3	2	3	4	23_3_4	0	2	1	0	1.0313270092	-168.0	378.0	-172.0	380.0	1
3.0.1	2019_Mar_05_1116	s	s	9	1	SIC	201	4_4	4	4	3	1	23_3_1	1	3	1	0	0.6393430233	85.0	-340.0	82.0	-340.0	1
3.0.1	2019_Mar_05_1116	s	s	9	1	SIC	202	1_2	1	2	4	3	23_4_3	3	1	1	0	0.475234985352	23.0	238.0	23.0	231.0	1
3.0.1	2019_Mar_05_1116	s	s	9	1	SIC	203	3_2	3	2	2	4	23_2_4	1	2	1	0	0.533694982529	381.0	187.0	377.0	185.0	1
3.0.1	2019_Mar_05_1116	s	s	9	1	SIC	204	4_4	4	4	2	3	23_2_3	2	1	1	0	0.587405920029	-338.0	-253.0	-340.0	-257.0	1
3.0.1	2019_Mar_05_1116	s	s	9	1	SIC	205	4_3	4	3	4	1	23_4_1	0	2	1	0	0.76868891716	-41.0	-234.0	-44.0	-239.0	1
3.0.1	2019_Mar_05_1116	s	s	9	1	SIC	206	ABS	0	0	2	1	24_2_1	NA	NA	0	1	3.05168914795	None	None	None	None	1
3.0.1	2019_Mar_05_1116	s	s	9	1	SIC	207	4_4	4	4	2	1	23_2_1	2	3	1	0	0.575588941574	154.0	-18.0	157.0	-18.0	1
3.0.1	2019_Mar_05_1116	s	s	9	1	SIC	208	ABS	0	0	2	4	24_2_4	NA	NA	0	1	3.2928609848	None	None	None	None	1
3.0.1	2019_Mar_05_1116	s	s	9	1	SIC	209	ABS	0	0	2	3	24_2_3	NA	NA	0	1	2.55437898636	None	None	None	None	1
3.0.1	2019_Mar_05_1116	s	s	9	1	SIC	210	ABS	0	0	1	2	24_1_2	NA	NA	0	1	3.42190980911	None	None	None	None	1
3.0.1	2019_Mar_05_1116	s	s	9	1	SIC	211	ABS	0	0	2	4	24_2_4	NA	NA	0	1	2.03134489059	None	None	None	None	1
3.0.1	2019_Mar_05_1116	s	s	9	1	SIC	212	ABS	0	0	1	4	24_1_4	NA	NA	0	1	2.48139715195	None	None	None	None	1
3.0.1	2019_Mar_05_1116	s	s	9	1	SIC	213	3_2	3	2	4	4	23_4_4	-1	2	1	0	0.639187097549	493.0	-165.0	491.0	-159.0	1
3.0.1	2019_Mar_05_1116	s	s	9	1	SIC	214	3_3	3	3	1	4	23_1_4	2	-1	1	0	0.493322134018	-188.0	28.0	-187.0	20.0	1
3.0.1	2019_Mar_05_1116	s	s	9	1	SIC	215	3_2	3	2	2	2	23_2_2	1	0	1	0	1.08139204979	-444.0	282.0	-451.0	282.0	1
3.0.1	2019_Mar_05_1116	s	s	9	1	SIC	216	2_1	2	1	2	3	23_2_3	0	2	1	0	2.48098993301	-117.0	-333.0	-121.0	-336.0	1
3.0.1	2019_Mar_05_1116	s	s	9	1	SIC	217	ABS	0	0	3	3	24_3_3	NA	NA	0	1	2.97332811356	None	None	None	None	1
3.0.1	2019_Mar_05_1116	s	s	9	1	SIC	218	ABS	0	0	3	4	24_3_4	NA	NA	0	1	3.16310119629	None	None	None	None	1
3.0.1	2019_Mar_05_1116	s	s	9	1	SIC	219	ABS	0	0	2	3	24_2_3	NA	NA	0	1	4.57914280891	None	None	None	None	1
3.0.1	2019_Mar_05_1116	s	s	9	1	SIC	220	ABS	0	0	4	3	24_4_3	NA	NA	0	1	2.77490901947	None	None	None	None	1
3.0.1	2019_Mar_05_1116	s	s	9	1	SIC	221	1_3	1	3	4	3	23_4_3	3	0	1	0	0.563903093338	70.0	-151.0	70.0	-151.0	1
3.0.1	2019_Mar_05_1116	s	s	9	1	SIC	222	2_1	2	1	1	1	23_1_1	-1	0	1	0	3.9221560955	-284.0	-405.0	-279.0	-406.0	1
3.0.1	2019_Mar_05_1116	s	s	9	1	SIC	223	ABS	0	0	2	3	24_2_3	NA	NA	0	1	3.7747168541	None	None	None	None	1
3.0.1	2019_Mar_05_1116	s	s	9	1	SIC	224	ABS	0	0	2	4	24_2_4	NA	NA	0	1	2.15154600143	None	None	None	None	1
3.0.1	2019_Mar_05_1116	s	s	9	1	SIC	225	ABS	0	0	4	2	24_4_2	NA	NA	0	1	4.36761498451	None	None	None	None	1
3.0.1	2019_Mar_05_1116	s	s	9	1	SIC	226	ABS	0	0	1	1	24_1_1	NA	NA	0	1	2.6626200676	None	None	None	None	1
3.0.1	2019_Mar_05_1116	s	s	9	1	SIC	227	1_1	1	1	3	4	23_3_4	2	3	1	0	0.627615213394	-108.0	257.0	-107.0	257.0	1
3.0.1	2019_Mar_05_1116	s	s	9	1	SIC	228	3_4	3	4	3	3	23_3_3	0	1	1	0	0.822597026825	410.0	-48.0	418.0	-49.0	1
3.0.1	2019_Mar_05_1116	s	s	9	1	SIC	229	ABS	0	0	1	2	24_1_2	NA	NA	0	1	3.01540493965	None	None	None	None	1
3.0.1	2019_Mar_05_1116	s	s	9	1	SIC	230	ABS	0	0	1	4	24_1_4	NA	NA	0	1	2.40356898308	None	None	None	None	1
3.0.1	2019_Mar_05_1116	s	s	9	1	SIC	231	ABS	0	0	2	3	24_2_3	NA	NA	0	1	2.86906504631	None	None	None	None	1
3.0.1	2019_Mar_05_1116	s	s	9	1	SIC	232	1_1	1	1	4	4	23_4_4	3	3	1	0	0.658134937286	-37.0	161.0	-32.0	163.0	1
3.0.1	2019_Mar_05_1116	s	s	9	1	SIC	233	2_1	2	1	4	3	23_4_3	2	2	1	0	0.587359905243	-460.0	297.0	-466.0	295.0	1
3.0.1	2019_Mar_05_1116	s	s	9	1	SIC	234	2_4	2	4	2	3	23_2_3	0	1	1	0	0.849071025848	336.0	324.0	334.0	317.0	1
3.0.1	2019_Mar_05_1116	s	s	9	1	SIC	235	4_4	4	4	1	4	23_1_4	3	0	1	0	0.568084001541	132.0	145.0	138.0	144.0	1
3.0.1	2019_Mar_05_1116	s	s	9	1	SIC	236	ABS	0	0	2	3	24_2_3	NA	NA	0	1	4.80966711044	None	None	None	None	1
3.0.1	2019_Mar_05_1116	s	s	9	1	SIC	237	3_3	3	3	4	3	23_4_3	-1	0	1	0	0.7785551548	-425.0	280.0	-425.0	275.0	1
3.0.1	2019_Mar_05_1116	s	s	9	1	SIC	238	4_2	4	2	4	1	23_4_1	0	-1	1	0	1.31945610046	98.0	88.0	102.0	85.0	1
3.0.1	2019_Mar_05_1116	s	s	9	1	SIC	239	1_3	1	3	3	2	23_3_2	2	1	1	0	0.709181070328	61.0	-138.0	60.0	-140.0	1
3.0.1	2019_Mar_05_1116	s	s	9	1	SIC	240	ABS	0	0	4	1	24_4_1	NA	NA	0	1	1.84583520889	None	None	None	None	1
3.0.1	2019_Mar_05_1116	s	s	9	1	SIC	241	ABS	0	0	4	3	24_4_3	NA	NA	0	1	1.90751886368	None	None	None	None	1
3.0.1	2019_Mar_05_1116	s	s	9	1	SIC	242	ABS	0	0	3	4	24_3_4	NA	NA	0	1	1.35201692581	None	None	None	None	1
3.0.1	2019_Mar_05_1116	s	s	9	1	SIC	243	1_4	1	4	2	3	23_2_3	1	1	1	0	0.869551897049	76.0	-74.0	79.0	-73.0	1
3.0.1	2019_Mar_05_1116	s	s	9	1	SIC	244	2_2	2	2	4	3	23_4_3	2	1	1	0	0.634461164474	-127.0	206.0	-121.0	207.0	1
3.0.1	2019_Mar_05_1116	s	s	9	1	SIC	245	ABS	0	0	4	1	24_4_1	NA	NA	0	1	1.68690085411	None	None	None	None	1
3.0.1	2019_Mar_05_1116	s	s	9	1	SIC	246	3_2	3	2	1	4	23_1_4	2	2	1	0	0.964184999466	150.0	-322.0	153.0	-322.0	1
3.0.1	2019_Mar_05_1116	s	s	9	1	SIC	247	ABS	0	0	2	2	24_2_2	NA	NA	0	1	3.01667094231	None	None	None	None	1
3.0.1	2019_Mar_05_1116	s	s	9	1	SIC	248	ABS	0	0	4	1	24_4_1	NA	NA	0	1	2.24572205544	None	None	None	None	1
3.0.1	2019_Mar_05_1116	s	s	9	1	SIC	249	3_2	3	2	3	3	23_3_3	0	1	1	0	1.11663484573	11.0	84.0	9.0	79.0	1
3.0.1	2019_Mar_05_1116	s	s	9	1	SIC	250	3_3	3	3	4	2	23_4_2	-1	1	1	0	0.678167104721	216.0	-259.0	214.0	-254.0	1
3.0.1	2019_Mar_05_1116	s	s	9	1	SIC	251	ABS	0	0	3	2	24_3_2	NA	NA	0	1	3.28073596954	None	None	None	None	1
3.0.1	2019_Mar_05_1116	s	s	9	1	SIC	252	ABS	0	0	1	1	24_1_1	NA	NA	0	1	2.69264888763	None	None	None	None	1
3.0.1	2019_Mar_05_1116	s	s	9	1	SIC	253	ABS	0	0	3	3	24_3_3	NA	NA	0	1	2.91044902802	None	None	None	None	1
3.0.1	2019_Mar_05_1116	s	s	9	1	SIC	254	4_3	4	3	2	3	23_2_3	2	0	1	0	0.652251005173	467.0	-59.0	462.0	-60.0	1
3.0.1	2019_Mar_05_1116	s	s	9	1	SIC	255	ABS	0	0	3	3	24_3_3	NA	NA	0	1	2.69761800766	None	None	None	None	1
3.0.1	2019_Mar_05_1116	s	s	9	1	SIC	256	ABS	0	0	3	3	24_3_3	NA	NA	0	1	2.61822319031	None	None	None	None	1
3.0.1	2019_Mar_05_1116	s	s	9	1	SIC	257	ABS	0	0	3	2	24_3_2	NA	NA	0	1	2.61318612099	None	None	None	None	1
3.0.1	2019_Mar_05_1116	s	s	9	1	SIC	258	ABS	0	0	2	4	24_2_4	NA	NA	0	1	2.53276109695	None	None	None	None	1
3.0.1	2019_Mar_05_1116	s	s	9	1	SIC	259	4_2	4	2	1	2	23_1_2	3	0	1	0	0.646138906479	-248.0	-222.0	-248.0	-223.0	1
3.0.1	2019_Mar_05_1116	s	s	9	1	SIC	260	3_1	3	1	4	1	23_4_1	-1	0	1	0	0.528541088104	-276.0	392.0	-272.0	392.0	1
3.0.1	2019_Mar_05_1116	s	s	9	1	SIC	261	1_3	1	3	2	2	23_2_2	1	1	1	0	0.709978103638	272.0	-94.0	269.0	-96.0	1
3.0.1	2019_Mar_05_1116	s	s	9	1	SIC	262	2_3	2	3	2	1	23_2_1	0	2	1	0	0.810796022415	-242.0	250.0	-240.0	247.0	1
3.0.1	2019_Mar_05_1116	s	s	9	1	SIC	263	ABS	0	0	3	3	24_3_3	NA	NA	1	0	0.815619945526	None	None	-182.0	219.0	0
3.0.1	2019_Mar_05_1116	s	s	9	1	SIC	264	2_4	2	4	3	1	23_3_1	1	3	1	0	0.775584936142	-362.0	-382.0	-364.0	-396.0	1
3.0.1	2019_Mar_05_1116	s	s	9	1	SIC	265	1_4	1	4	4	4	23_4_4	3	0	1	0	0.661885023117	22.0	-129.0	23.0	-138.0	1
3.0.1	2019_Mar_05_1116	s	s	9	1	SIC	266	ABS	0	0	3	2	24_3_2	NA	NA	0	1	5.06084704399	None	None	None	None	1
3.0.1	2019_Mar_05_1116	s	s	9	1	SIC	267	4_2	4	2	3	3	23_3_3	1	1	1	0	0.81073307991	-177.0	97.0	-191.0	103.0	1
3.0.1	2019_Mar_05_1116	s	s	9	1	SIC	268	3_2	3	2	1	3	23_1_3	2	1	1	0	0.858089923859	284.0	-93.0	281.0	-98.0	1
3.0.1	2019_Mar_05_1116	s	s	9	1	SIC	269	4_1	4	1	1	3	23_1_3	3	2	1	0	0.580554962158	-238.0	-296.0	-239.0	-298.0	1
3.0.1	2019_Mar_05_1116	s	s	9	1	SIC	270	4_3	4	3	4	2	23_4_2	0	1	1	0	2.83383512497	184.0	210.0	186.0	208.0	1
3.0.1	2019_Mar_05_1116	s	s	9	1	SIC	271	1_1	1	1	2	4	23_2_4	1	3	1	0	0.569892168045	237.0	77.0	245.0	77.0	1
3.0.1	2019_Mar_05_1116	s	s	9	1	SIC	272	ABS	0	0	3	4	24_3_4	NA	NA	0	1	2.60531497002	None	None	None	None	1
3.0.1	2019_Mar_05_1116	s	s	9	1	SIC	273	ABS	0	0	2	3	24_2_3	NA	NA	0	1	3.88453507423	None	None	None	None	1
3.0.1	2019_Mar_05_1116	s	s	9	1	SIC	274	3_4	3	4	1	1	23_1_1	2	3	1	0	0.719704151154	-82.0	398.0	-79.0	400.0	1
3.0.1	2019_Mar_05_1116	s	s	9	1	SIC	275	ABS	0	0	4	3	24_4_3	NA	NA	0	1	2.69612193108	None	None	None	None	1
3.0.1	2019_Mar_05_1116	s	s	9	1	SIC	276	4_3	4	3	3	1	23_3_1	1	2	1	0	0.893270969391	-94.0	-353.0	-94.0	-347.0	1
3.0.1	2019_Mar_05_1116	s	s	9	1	SIC	277	3_3	3	3	1	2	23_1_2	2	1	1	0	2.68089604378	382.0	-352.0	376.0	-356.0	1
3.0.1	2019_Mar_05_1116	s	s	9	1	SIC	278	ABS	0	0	1	3	24_1_3	NA	NA	0	1	2.89645195007	None	None	None	None	1
3.0.1	2019_Mar_05_1116	s	s	9	1	SIC	279	ABS	0	0	1	4	24_1_4	NA	NA	0	1	1.45769405365	None	None	None	None	1
3.0.1	2019_Mar_05_1116	s	s	9	1	SIC	280	1_4	1	4	3	1	23_3_1	2	3	1	0	0.63433599472	-307.0	190.0	-315.0	188.0	1
3.0.1	2019_Mar_05_1116	s	s	9	1	SIC	281	ABS	0	0	3	4	24_3_4	NA	NA	0	1	1.68735599518	None	None	None	None	1
3.0.1	2019_Mar_05_1116	s	s	9	1	SIC	282	2_4	2	4	2	2	23_2_2	0	2	1	0	0.810845851898	509.0	145.0	514.0	140.0	1
3.0.1	2019_Mar_05_1116	s	s	9	1	SIC	283	2_4	2	4	1	2	23_1_2	-1	2	1	0	0.678442001343	101.0	57.0	99.0	57.0	1
3.0.1	2019_Mar_05_1116	s	s	9	1	SIC	284	ABS	0	0	4	4	24_4_4	NA	NA	0	1	2.17513489723	None	None	None	None	1
3.0.1	2019_Mar_05_1116	s	s	9	1	SIC	285	ABS	0	0	4	4	24_4_4	NA	NA	0	1	1.1934800148	None	None	None	None	1
3.0.1	2019_Mar_05_1116	s	s	9	1	SIC	286	ABS	0	0	4	4	24_4_4	NA	NA	0	1	1.28125214577	None	None	None	None	1
3.0.1	2019_Mar_05_1116	s	s	9	1	SIC	287	ABS	0	0	1	2	24_1_2	NA	NA	0	1	3.18660521507	None	None	None	None	1
3.0.1	2019_Mar_05_1116	s	s	9	1	SIC	288	ABS	0	0	3	3	24_3_3	NA	NA	0	1	3.80988407135	None	None	None	None	1
3.0.1	2019_Mar_05_1116	s	s	9	1	SIC	289	1_4	1	4	2	2	23_2_2	1	2	1	0	0.705024957657	120.0	318.0	118.0	315.0	1
3.0.1	2019_Mar_05_1116	s	s	9	1	SIC	290	3_3	3	3	2	1	23_2_1	1	2	1	0	0.999017953873	-226.0	400.0	-234.0	396.0	1
3.0.1	2019_Mar_05_1116	s	s	9	1	SIC	291	3_4	3	4	4	1	23_4_1	-1	3	1	0	0.737361192703	-498.0	-405.0	-496.0	-415.0	1
3.0.1	2019_Mar_05_1116	s	s	9	1	SIC	292	ABS	0	0	2	1	24_2_1	NA	NA	0	1	2.59854698181	None	None	None	None	1
3.0.1	2019_Mar_05_1116	s	s	9	1	SIC	293	ABS	0	0	1	4	24_1_4	NA	NA	0	1	2.03825497627	None	None	None	None	1
3.0.1	2019_Mar_05_1116	s	s	9	1	SIC	294	2_3	2	3	3	3	23_3_3	1	0	1	0	1.34483218193	-411.0	67.0	-415.0	68.0	1
3.0.1	2019_Mar_05_1116	s	s	9	1	SIC	295	ABS	0	0	3	2	24_3_2	NA	NA	0	1	3.90987896919	None	None	None	None	1
3.0.1	2019_Mar_05_1116	s	s	9	1	SIC	296	1_2	1	2	3	3	23_3_3	2	1	1	0	0.9872610569	468.0	332.0	476.0	337.0	1
3.0.1	2019_Mar_05_1116	s	s	9	1	SIC	297	ABS	0	0	4	2	24_4_2	NA	NA	0	1	3.89228582382	None	None	None	None	1
3.0.1	2019_Mar_05_1116	s	s	9	1	SIC	298	ABS	0	0	4	4	24_4_4	NA	NA	0	1	1.83896303177	None	None	None	None	1
3.0.1	2019_Mar_05_1116	s	s	9	1	SIC	299	ABS	0	0	2	2	24_2_2	NA	NA	0	1	4.10897994041	None	None	None	None	1
3.0.1	2019_Mar_05_1116	s	s	9	1	SIC	300	4_4	4	4	4	2	23_4_2	0	2	1	0	0.693254947662	154.0	397.0	160.0	399.0	1
3.0.1	2019_Mar_05_1116	s	s	9	1	SIC	301	2_3	2	3	4	4	23_4_4	2	-1	1	0	0.622745037079	354.0	-92.0	357.0	-88.0	1
3.0.1	2019_Mar_05_1116	s	s	9	1	SIC	302	2_4	2	4	1	3	23_1_3	-1	1	1	0	0.637255907059	-486.0	204.0	-483.0	199.0	1
3.0.1	2019_Mar_05_1116	s	s	9	1	SIC	303	1_2	1	2	1	3	23_1_3	0	1	1	0	2.18696808815	-458.0	209.0	-455.0	205.0	1
3.0.1	2019_Mar_05_1116	s	s	9	1	SIC	304	3_1	3	1	2	1	23_2_1	1	0	1	0	0.736716032028	244.0	-72.0	248.0	-83.0	1
3.0.1	2019_Mar_05_1116	s	s	9	1	SIC	305	2_1	2	1	4	1	23_4_1	2	0	1	0	0.639835834503	-411.0	-280.0	-413.0	-282.0	1
3.0.1	2019_Mar_05_1116	s	s	9	1	SIC	306	ABS	0	0	1	2	24_1_2	NA	NA	0	1	5.57413101196	None	None	None	None	1
3.0.1	2019_Mar_05_1116	s	s	9	1	SIC	307	2_3	2	3	1	2	23_1_2	-1	1	1	0	2.70939803123	197.0	233.0	205.0	234.0	1
3.0.1	2019_Mar_05_1116	s	s	9	1	SIC	308	2_4	2	4	3	3	23_3_3	1	1	1	0	0.75888299942	74.0	-83.0	68.0	-83.0	1
3.0.1	2019_Mar_05_1116	s	s	9	1	SIC	309	4_1	4	1	3	3	23_3_3	1	2	1	0	1.06155800819	154.0	190.0	152.0	191.0	1
3.0.1	2019_Mar_05_1116	s	s	9	1	SIC	310	ABS	0	0	4	3	24_4_3	NA	NA	0	1	4.6567299366	None	None	None	None	1
3.0.1	2019_Mar_05_1116	s	s	9	1	SIC	311	ABS	0	0	3	4	24_3_4	NA	NA	0	1	1.85761189461	None	None	None	None	1
3.0.1	2019_Mar_05_1116	s	s	9	1	SIC	312	3_1	3	1	4	3	23_4_3	-1	2	1	0	0.669654130936	-274.0	-263.0	-276.0	-267.0	1
3.0.1	2019_Mar_05_1116	s	s	9	1	SIC	313	ABS	0	0	1	1	24_1_1	NA	NA	0	1	2.14629292488	None	None	None	None	1
3.0.1	2019_Mar_05_1116	s	s	9	1	SIC	314	1_3	1	3	3	1	23_3_1	2	2	1	0	0.73734998703	-260.0	-390.0	-253.0	-387.0	1
3.0.1	2019_Mar_05_1116	s	s	9	1	SIC	315	3_1	3	1	3	3	23_3_3	0	2	1	0	2.26940107346	-343.0	-213.0	-344.0	-220.0	1
3.0.1	2019_Mar_05_1116	s	s	9	1	SIC	316	ABS	0	0	3	2	24_3_2	NA	NA	0	1	4.65681886673	None	None	None	None	1
3.0.1	2019_Mar_05_1116	s	s	9	1	SIC	317	4_1	4	1	3	4	23_3_4	1	3	1	0	0.775592088699	492.0	404.0	488.0	406.0	1
3.0.1	2019_Mar_05_1116	s	s	9	1	SIC	318	ABS	0	0	2	2	24_2_2	NA	NA	0	1	2.80503797531	None	None	None	None	1
3.0.1	2019_Mar_05_1116	s	s	9	1	SIC	319	ABS	0	0	1	3	24_1_3	NA	NA	0	1	4.7156188488	None	None	None	None	1
3.0.1	2019_Mar_05_1116	s	s	9	1	SIC	320	2_2	2	2	1	3	23_1_3	-1	1	1	0	1.36370491982	174.0	340.0	182.0	340.0	1
3.0.1	2019_Mar_05_1116	s	s	9	1	SIC	321	ABS	0	0	2	4	24_2_4	NA	NA	0	1	1.66445302963	None	None	None	None	1
3.0.1	2019_Mar_05_1116	s	s	9	1	SIC	322	ABS	0	0	1	4	24_1_4	NA	NA	0	1	3.02486801147	None	None	None	None	1
3.0.1	2019_Mar_05_1116	s	s	9	1	SIC	323	2_3	2	3	4	3	23_4_3	2	0	1	0	0.575610876083	-237.0	179.0	-244.0	185.0	1
3.0.1	2019_Mar_05_1116	s	s	9	1	SIC	324	ABS	0	0	2	3	24_2_3	NA	NA	0	1	2.91610002518	None	None	None	None	1
3.0.1	2019_Mar_05_1116	s	s	9	1	SIC	325	2_3	2	3	4	2	23_4_2	2	1	1	0	0.622684001923	361.0	190.0	366.0	191.0	1
3.0.1	2019_Mar_05_1116	s	s	9	1	SIC	326	4_3	4	3	1	4	23_1_4	3	-1	1	0	0.672614097595	-43.0	353.0	-40.0	354.0	1
3.0.1	2019_Mar_05_1116	s	s	9	1	SIC	327	3_4	3	4	1	3	23_1_3	2	1	1	0	0.857951164246	160.0	-407.0	162.0	-401.0	1
3.0.1	2019_Mar_05_1116	s	s	9	1	SIC	328	ABS	0	0	2	2	24_2_2	NA	NA	0	1	4.2922539711	None	None	None	None	1
3.0.1	2019_Mar_05_1116	s	s	9	1	SIC	329	2_4	2	4	4	3	23_4_3	2	1	1	0	0.613837957382	-248.0	105.0	-247.0	105.0	1
3.0.1	2019_Mar_05_1116	s	s	9	1	SIC	330	2_3	2	3	3	2	23_3_2	1	1	1	0	0.705003023148	-125.0	291.0	-127.0	291.0	1
3.0.1	2019_Mar_05_1116	s	s	9	1	SIC	331	ABS	0	0	4	1	24_4_1	NA	NA	0	1	2.67289590836	None	None	None	None	1
3.0.1	2019_Mar_05_1116	s	s	9	1	SIC	332	3_4	3	4	4	3	23_4_3	-1	1	1	0	0.693166971207	324.0	134.0	330.0	129.0	1
3.0.1	2019_Mar_05_1116	s	s	9	1	SIC	333	1_1	1	1	3	1	23_3_1	2	0	1	0	0.540367126465	107.0	-193.0	110.0	-188.0	1
3.0.1	2019_Mar_05_1116	s	s	9	1	SIC	334	3_4	3	4	4	2	23_4_2	-1	2	1	0	0.560678958893	322.0	-13.0	316.0	-17.0	1
3.0.1	2019_Mar_05_1116	s	s	9	1	SIC	335	4_1	4	1	1	1	23_1_1	3	0	1	0	0.602044820786	58.0	-115.0	53.0	-113.0	1
3.0.1	2019_Mar_05_1116	s	s	9	1	SIC	336	ABS	0	0	4	4	24_4_4	NA	NA	0	1	2.20254588127	None	None	None	None	1
3.0.1	2019_Mar_05_1116	s	s	9	1	SIC	337	ABS	0	0	2	2	24_2_2	NA	NA	0	1	3.78929901123	None	None	None	None	1
3.0.1	2019_Mar_05_1116	s	s	9	1	SIC	338	ABS	0	0	3	1	24_3_1	NA	NA	0	1	2.35195302963	None	None	None	None	1
3.0.1	2019_Mar_05_1116	s	s	9	1	SIC	339	2_2	2	2	3	3	23_3_3	1	1	1	0	0.646202087402	-228.0	39.0	-234.0	40.0	1
3.0.1	2019_Mar_05_1116	s	s	9	1	SIC	340	2_3	2	3	3	4	23_3_4	1	-1	1	0	0.693270921707	-418.0	263.0	-418.0	263.0	1
3.0.1	2019_Mar_05_1116	s	s	9	1	SIC	341	ABS	0	0	4	2	24_4_2	NA	NA	0	1	3.75114297867	None	None	None	None	1
3.0.1	2019_Mar_05_1116	s	s	9	1	SIC	342	ABS	0	0	4	1	24_4_1	NA	NA	0	1	2.3633480072	None	None	None	None	1
3.0.1	2019_Mar_05_1116	s	s	9	1	SIC	343	3_4	3	4	1	2	23_1_2	2	2	1	0	0.815420150757	-77.0	-352.0	-74.0	-353.0	1
3.0.1	2019_Mar_05_1116	s	s	9	1	SIC	344	1_2	1	2	4	1	23_4_1	3	-1	1	0	0.651337862015	-395.0	275.0	-398.0	273.0	1
3.0.1	2019_Mar_05_1116	s	s	9	1	SIC	345	4_3	4	3	1	1	23_1_1	3	2	1	0	0.516812086105	42.0	-139.0	45.0	-134.0	1
3.0.1	2019_Mar_05_1116	s	s	9	1	SIC	346	2_3	2	3	4	1	23_4_1	2	2	1	0	0.446155071259	-453.0	236.0	-453.0	232.0	1
3.0.1	2019_Mar_05_1116	s	s	9	1	SIC	347	ABS	0	0	1	1	24_1_1	NA	NA	0	1	2.46032905579	None	None	None	None	1
3.0.1	2019_Mar_05_1116	s	s	9	1	SIC	348	3_1	3	1	1	1	23_1_1	2	0	1	0	1.20186018944	22.0	-218.0	20.0	-231.0	1
3.0.1	2019_Mar_05_1116	s	s	9	1	SIC	349	ABS	0	0	2	3	24_2_3	NA	NA	0	1	2.98661279678	None	None	None	None	1
3.0.1	2019_Mar_05_1116	s	s	9	1	SIC	350	ABS	0	0	2	2	24_2_2	NA	NA	0	1	4.08862090111	None	None	None	None	1
3.0.1	2019_Mar_05_1116	s	s	9	1	SIC	351	4_1	4	1	1	2	23_1_2	3	1	1	0	0.82262301445	351.0	313.0	349.0	310.0	1
3.0.1	2019_Mar_05_1116	s	s	9	1	SIC	352	3_3	3	3	3	2	23_3_2	0	1	1	0	3.0337498188	-130.0	-245.0	-125.0	-251.0	1
3.0.1	2019_Mar_05_1116	s	s	9	1	SIC	353	1_3	1	3	2	1	23_2_1	1	2	1	0	0.687697887421	-179.0	66.0	-178.0	66.0	1
3.0.1	2019_Mar_05_1116	s	s	9	1	SIC	354	4_3	4	3	4	4	23_4_4	0	-1	1	0	0.739135980606	-360.0	224.0	-363.0	230.0	1
3.0.1	2019_Mar_05_1116	s	s	9	1	SIC	355	3_1	3	1	4	2	23_4_2	-1	1	1	0	0.509659051895	-384.0	5.0	-383.0	1.0	1
3.0.1	2019_Mar_05_1116	s	s	9	1	SIC	356	4_3	4	3	2	4	23_2_4	2	-1	1	0	0.486566066742	154.0	-25.0	149.0	-29.0	1
3.0.1	2019_Mar_05_1116	s	s	9	1	SIC	357	4_4	4	4	1	2	23_1_2	3	2	1	0	0.54043507576	-480.0	31.0	-485.0	28.0	1
3.0.1	2019_Mar_05_1116	s	s	9	1	SIC	358	4_2	4	2	2	4	23_2_4	2	2	1	0	0.496185064316	-289.0	-197.0	-283.0	-193.0	1
3.0.1	2019_Mar_05_1116	s	s	9	1	SIC	359	1_4	1	4	4	1	23_4_1	3	3	1	0	0.510983943939	423.0	-207.0	424.0	-214.0	1
3.0.1	2019_Mar_05_1116	s	s	9	1	SIC	360	ABS	0	0	2	3	24_2_3	NA	NA	0	1	3.46351480484	None	None	None	None	1
3.0.1	2019_Mar_05_1116	s	s	9	1	SIC	361	ABS	0	0	1	3	24_1_3	NA	NA	0	1	2.80406308174	None	None	None	None	1
3.0.1	2019_Mar_05_1116	s	s	9	1	SIC	362	2_2	2	2	1	4	23_1_4	-1	2	1	0	0.738020896912	109.0	359.0	110.0	363.0	1
3.0.1	2019_Mar_05_1116	s	s	9	1	SIC	363	ABS	0	0	2	2	24_2_2	NA	NA	0	1	3.78929591179	None	None	None	None	1
3.0.1	2019_Mar_05_1116	s	s	9	1	SIC	364	4_4	4	4	3	4	23_3_4	1	0	1	0	0.815279960632	529.0	338.0	532.0	337.0	1
3.0.1	2019_Mar_05_1116	s	s	9	1	SIC	365	2_3	2	3	3	1	23_3_1	1	2	1	0	0.673033952713	-18.0	-187.0	-13.0	-188.0	1
3.0.1	2019_Mar_05_1116	s	s	9	1	SIC	366	1_3	1	3	1	4	23_1_4	0	-1	1	0	0.763855934143	238.0	286.0	244.0	286.0	1
3.0.1	2019_Mar_05_1116	s	s	9	1	SIC	367	4_2	4	2	1	1	23_1_1	3	-1	1	0	0.540328979492	-434.0	-362.0	-440.0	-357.0	1
3.0.1	2019_Mar_05_1116	s	s	9	1	SIC	368	4_1	4	1	4	2	23_4_2	0	1	0	1	3.28067708015	490.0	-78.0	None	None	0
3.0.1	2019_Mar_05_1116	s	s	9	1	SIC	369	ABS	0	0	1	2	24_1_2	NA	NA	0	1	3.59164905548	None	None	None	None	1
3.0.1	2019_Mar_05_1116	s	s	9	1	SIC	370	ABS	0	0	3	4	24_3_4	NA	NA	0	1	1.99875307083	None	None	None	None	1
3.0.1	2019_Mar_05_1116	s	s	9	1	SIC	371	ABS	0	0	4	4	24_4_4	NA	NA	0	1	1.8811378479	None	None	None	None	1
3.0.1	2019_Mar_05_1116	s	s	9	1	SIC	372	1_2	1	2	1	1	23_1_1	0	-1	1	0	1.38750696182	118.0	367.0	119.0	369.0	1
3.0.1	2019_Mar_05_1116	s	s	9	1	SIC	373	4_3	4	3	2	2	23_2_2	2	1	1	0	0.710310935974	360.0	317.0	368.0	319.0	1
3.0.1	2019_Mar_05_1116	s	s	9	1	SIC	374	ABS	0	0	3	4	24_3_4	NA	NA	0	1	1.96638083458	None	None	None	None	1
3.0.1	2019_Mar_05_1116	s	s	9	1	SIC	375	4_4	4	4	1	3	23_1_3	3	1	1	0	0.570780038834	-163.0	122.0	-160.0	127.0	1
3.0.1	2019_Mar_05_1116	s	s	9	1	SIC	376	ABS	0	0	1	3	24_1_3	NA	NA	0	1	3.60508108139	None	None	None	None	1
3.0.1	2019_Mar_05_1116	s	s	9	1	SIC	377	ABS	0	0	1	1	24_1_1	NA	NA	0	1	2.17521905899	None	None	None	None	1
3.0.1	2019_Mar_05_1116	s	s	9	1	SIC	378	4_1	4	1	4	3	23_4_3	0	2	1	0	2.08490610123	242.0	-178.0	248.0	-181.0	1
3.0.1	2019_Mar_05_1116	s	s	9	1	SIC	379	ABS	0	0	3	2	24_3_2	NA	NA	0	1	4.08048319817	None	None	None	None	1
3.0.1	2019_Mar_05_1116	s	s	9	1	SIC	380	4_1	4	1	2	3	23_2_3	2	2	1	0	0.622678995132	-540.0	28.0	-543.0	28.0	1
3.0.1	2019_Mar_05_1116	s	s	9	1	SIC	381	ABS	0	0	3	2	24_3_2	NA	NA	0	1	3.77471399307	None	None	None	None	1
3.0.1	2019_Mar_05_1116	s	s	9	1	SIC	382	4_3	4	3	2	1	23_2_1	2	2	1	0	0.693289041519	190.0	-177.0	194.0	-181.0	1
3.0.1	2019_Mar_05_1116	s	s	9	1	SIC	383	ABS	0	0	4	3	24_4_3	NA	NA	0	1	3.23368096352	None	None	None	None	1
3.0.1	2019_Mar_05_1116	s	s	9	1	SIC	384	ABS	0	0	3	3	24_3_3	NA	NA	0	1	3.26013016701	None	None	None	None	1
3.0.1	2019_Mar_05_1116	s	s	9	1	SIC	385	2_4	2	4	4	1	23_4_1	2	3	1	0	0.613790988922	296.0	3.0	298.0	-3.0	1
3.0.1	2019_Mar_05_1116	s	s	9	1	SIC	386	1_2	1	2	2	2	23_2_2	1	0	0	1	4.16283011436	-306.0	-208.0	None	None	0
3.0.1	2019_Mar_05_1116	s	s	9	1	SIC	387	ABS	0	0	1	2	24_1_2	NA	NA	0	1	5.14189291	None	None	None	None	1
3.0.1	2019_Mar_05_1116	s	s	9	1	SIC	388	3_4	3	4	3	1	23_3_1	0	3	1	0	2.20159196854	446.0	-257.0	452.0	-255.0	1
3.0.1	2019_Mar_05_1116	s	s	9	1	SIC	389	ABS	0	0	1	3	24_1_3	NA	NA	0	1	3.51592183113	None	None	None	None	1
3.0.1	2019_Mar_05_1116	s	s	9	1	SIC	390	ABS	0	0	4	4	24_4_4	NA	NA	0	1	1.7954120636	None	None	None	None	1
3.0.1	2019_Mar_05_1116	s	s	9	1	SIC	391	ABS	0	0	1	3	24_1_3	NA	NA	0	1	2.89789700508	None	None	None	None	1
3.0.1	2019_Mar_05_1116	s	s	9	1	SIC	392	2_1	2	1	1	4	23_1_4	-1	3	1	0	0.704957008362	-277.0	43.0	-279.0	44.0	1
3.0.1	2019_Mar_05_1116	s	s	9	1	SIC	393	ABS	0	0	2	1	24_2_1	NA	NA	0	1	2.28095912933	None	None	None	None	1
3.0.1	2019_Mar_05_1116	s	s	9	1	SIC	394	ABS	0	0	4	2	24_4_2	NA	NA	0	1	2.71617984772	None	None	None	None	1
3.0.1	2019_Mar_05_1116	s	s	9	1	SIC	395	ABS	0	0	4	4	24_4_4	NA	NA	0	1	1.29304003716	None	None	None	None	1
3.0.1	2019_Mar_05_1116	s	s	9	1	SIC	396	ABS	0	0	2	4	24_2_4	NA	NA	0	1	1.10875177383	None	None	None	None	1
3.0.1	2019_Mar_05_1116	s	s	9	1	SIC	397	ABS	0	0	4	4	24_4_4	NA	NA	0	1	1.57827019691	None	None	None	None	1
3.0.1	2019_Mar_05_1116	s	s	9	1	SIC	398	3_2	3	2	3	1	23_3_1	0	-1	1	0	2.16381597519	-153.0	-240.0	-152.0	-240.0	1
3.0.1	2019_Mar_05_1116	s	s	9	1	SIC	399	ABS	0	0	1	3	24_1_3	NA	NA	0	1	2.79674601555	None	None	None	None	1
3.0.1	2019_Mar_05_1116	s	s	9	1	SIC	400	ABS	0	0	2	1	24_2_1	NA	NA	0	1	2.18986701965	None	None	None	None	1
3.0.1	2019_Mar_05_1116	s	s	9	1	SIC	401	1_3	1	3	1	1	23_1_1	0	2	1	0	1.4577319622	29.0	-347.0	26.0	-345.0	1
3.0.1	2019_Mar_05_1116	s	s	9	1	SIC	402	ABS	0	0	1	3	24_1_3	NA	NA	0	1	2.58681678772	None	None	None	None	1
3.0.1	2019_Mar_05_1116	s	s	9	1	SIC	403	3_1	3	1	1	4	23_1_4	2	3	1	0	0.723500967026	515.0	-58.0	515.0	-54.0	1
3.0.1	2019_Mar_05_1116	s	s	9	1	SIC	404	2_1	2	1	1	3	23_1_3	-1	2	1	0	0.695987939835	-153.0	180.0	-150.0	182.0	1
3.0.1	2019_Mar_05_1116	s	s	9	1	SIC	405	3_2	3	2	4	1	23_4_1	-1	-1	1	0	0.662631034851	495.0	-207.0	492.0	-206.0	1
3.0.1	2019_Mar_05_1116	s	s	9	1	SIC	406	ABS	0	0	1	2	24_1_2	NA	NA	0	1	3.66698098183	None	None	None	None	1
3.0.1	2019_Mar_05_1116	s	s	9	1	SIC	407	ABS	0	0	3	2	24_3_2	NA	NA	0	1	3.09806704521	None	None	None	None	1
3.0.1	2019_Mar_05_1116	s	s	9	1	SIC	408	2_4	2	4	2	1	23_2_1	0	3	1	0	0.650575876236	447.0	172.0	445.0	174.0	1
3.0.1	2019_Mar_05_1116	s	s	9	1	SIC	409	ABS	0	0	1	1	24_1_1	NA	NA	0	1	2.39862680435	None	None	None	None	1
3.0.1	2019_Mar_05_1116	s	s	9	1	SIC	410	ABS	0	0	2	2	24_2_2	NA	NA	0	1	3.98635101318	None	None	None	None	1
3.0.1	2019_Mar_05_1116	s	s	9	1	SIC	411	2_4	2	4	4	2	23_4_2	2	2	1	0	0.614811897278	-30.0	-71.0	-30.0	-71.0	1
3.0.1	2019_Mar_05_1116	s	s	9	1	SIC	412	2_3	2	3	2	4	23_2_4	0	-1	1	0	0.705032110214	-56.0	-181.0	-56.0	-182.0	1
3.0.1	2019_Mar_05_1116	s	s	9	1	SIC	413	3_3	3	3	4	4	23_4_4	-1	-1	1	0	0.528584957123	25.0	-53.0	25.0	-55.0	1
3.0.1	2019_Mar_05_1116	s	s	9	1	SIC	414	ABS	0	0	2	1	24_2_1	NA	NA	0	1	2.41535496712	None	None	None	None	1
3.0.1	2019_Mar_05_1116	s	s	9	1	SIC	415	ABS	0	0	3	2	24_3_2	NA	NA	0	1	3.36308288574	None	None	None	None	1
3.0.1	2019_Mar_05_1116	s	s	9	1	SIC	416	ABS	0	0	1	4	24_1_4	NA	NA	0	1	1.7046790123	None	None	None	None	1
3.0.1	2019_Mar_05_1116	s	s	9	1	SIC	417	1_3	1	3	2	3	23_2_3	1	0	0	1	4.11574697495	492.0	79.0	None	None	0
3.0.1	2019_Mar_05_1116	s	s	9	1	SIC	418	ABS	0	0	1	4	24_1_4	NA	NA	0	1	2.0743470192	None	None	None	None	1
3.0.1	2019_Mar_05_1116	s	s	9	1	SIC	419	2_2	2	2	2	1	23_2_1	0	-1	0	1	2.00274896622	-274.0	176.0	None	None	0
3.0.1	2019_Mar_05_1116	s	s	9	1	SIC	420	4_2	4	2	1	3	23_1_3	3	1	1	0	0.719694852829	-316.0	-110.0	-320.0	-110.0	1
3.0.1	2019_Mar_05_1116	s	s	9	1	SIC	421	2_4	2	4	3	2	23_3_2	1	2	1	0	0.763830900192	3.0	-322.0	4.0	-319.0	1
3.0.1	2019_Mar_05_1116	s	s	9	1	SIC	422	3_4	3	4	3	2	23_3_2	0	2	1	0	0.657967805862	-76.0	-212.0	-74.0	-211.0	1
3.0.1	2019_Mar_05_1116	s	s	9	1	SIC	423	4_1	4	1	3	2	23_3_2	1	1	1	0	0.587469816208	189.0	10.0	192.0	6.0	1
3.0.1	2019_Mar_05_1116	s	s	9	1	SIC	424	1_1	1	1	2	2	23_2_2	1	1	1	0	1.41547489166	463.0	7.0	462.0	0.0	1
3.0.1	2019_Mar_05_1116	s	s	9	1	SIC	425	1_2	1	2	2	4	23_2_4	1	2	1	0	0.697629928589	310.0	-273.0	312.0	-271.0	1
3.0.1	2019_Mar_05_1116	s	s	9	1	SIC	426	4_2	4	2	2	1	23_2_1	2	-1	1	0	0.486449956894	169.0	39.0	168.0	35.0	1
3.0.1	2019_Mar_05_1116	s	s	9	1	SIC	427	ABS	0	0	2	4	24_2_4	NA	NA	0	1	2.25298595428	None	None	None	None	1
3.0.1	2019_Mar_05_1116	s	s	9	1	SIC	428	2_1	2	1	3	2	23_3_2	1	1	1	0	0.687142133713	181.0	15.0	183.0	18.0	1
3.0.1	2019_Mar_05_1116	s	s	9	1	SIC	429	2_1	2	1	3	3	23_3_3	1	2	1	0	0.716775894165	424.0	287.0	426.0	286.0	1
3.0.1	2019_Mar_05_1116	s	s	9	1	SIC	430	3_2	3	2	4	3	23_4_3	-1	1	1	0	0.532743930817	271.0	141.0	268.0	140.0	1
3.0.1	2019_Mar_05_1116	s	s	9	1	SIC	431	ABS	0	0	3	2	24_3_2	NA	NA	0	1	3.39834308624	None	None	None	None	1
3.0.1	2019_Mar_05_1116	s	s	9	1	SIC	432	4_3	4	3	1	2	23_1_2	3	1	1	0	0.620162010193	-336.0	-161.0	-340.0	-161.0	1
3.0.1	2019_Mar_05_1116	s	s	9	1	SIC	433	ABS	0	0	2	1	24_2_1	NA	NA	0	1	2.46909594536	None	None	None	None	1
3.0.1	2019_Mar_05_1116	s	s	9	1	SIC	434	2_2	2	2	1	2	23_1_2	-1	0	1	0	3.37800788879	-216.0	61.0	-212.0	57.0	1
3.0.1	2019_Mar_05_1116	s	s	9	1	SIC	435	ABS	0	0	1	2	24_1_2	NA	NA	0	1	4.37736201286	None	None	None	None	1
3.0.1	2019_Mar_05_1116	s	s	9	1	SIC	436	ABS	0	0	3	3	24_3_3	NA	NA	0	1	2.96791410446	None	None	None	None	1
3.0.1	2019_Mar_05_1116	s	s	9	1	SIC	437	4_2	4	2	4	4	23_4_4	0	2	1	0	1.46950602531	425.0	-247.0	430.0	-251.0	1
3.0.1	2019_Mar_05_1116	s	s	9	1	SIC	438	ABS	0	0	1	2	24_1_2	NA	NA	0	1	4.2269320488	None	None	None	None	1
3.0.1	2019_Mar_05_1116	s	s	9	1	SIC	439	1_4	1	4	3	3	23_3_3	2	1	1	0	0.602115869522	274.0	126.0	273.0	126.0	1
3.0.1	2019_Mar_05_1116	s	s	9	1	SIC	440	2_2	2	2	4	1	23_4_1	2	-1	1	0	0.563819169998	-18.0	360.0	-18.0	357.0	1
3.0.1	2019_Mar_05_1116	s	s	9	1	SIC	441	ABS	0	0	1	2	24_1_2	NA	NA	0	1	2.51614809036	None	None	None	None	1
3.0.1	2019_Mar_05_1116	s	s	9	1	SIC	442	4_3	4	3	1	3	23_1_3	3	0	1	0	0.563878774643	35.0	337.0	30.0	335.0	1
3.0.1	2019_Mar_05_1116	s	s	9	1	SIC	443	ABS	0	0	2	1	24_2_1	NA	NA	0	1	3.17980408669	None	None	None	None	1
3.0.1	2019_Mar_05_1116	s	s	9	1	SIC	444	3_4	3	4	2	1	23_2_1	1	3	1	0	0.881376981735	381.0	196.0	376.0	193.0	1
3.0.1	2019_Mar_05_1116	s	s	9	1	SIC	445	3_3	3	3	3	4	23_3_4	0	-1	1	0	0.869621038437	-45.0	80.0	-47.0	76.0	1
3.0.1	2019_Mar_05_1116	s	s	9	1	SIC	446	4_1	4	1	2	2	23_2_2	2	1	1	0	0.443106174469	-26.0	-140.0	-26.0	-144.0	1
3.0.1	2019_Mar_05_1116	s	s	9	1	SIC	447	1_3	1	3	4	4	23_4_4	3	-1	1	0	0.446224927902	42.0	346.0	45.0	344.0	1
3.0.1	2019_Mar_05_1116	s	s	9	1	SIC	448	ABS	0	0	4	1	24_4_1	NA	NA	0	1	2.06937122345	None	None	None	None	1
3.0.1	2019_Mar_05_1116	s	s	9	1	SIC	449	4_1	4	1	4	4	23_4_4	0	3	1	0	0.627423048019	-373.0	-63.0	-374.0	-62.0	1
3.0.1	2019_Mar_05_1116	s	s	9	1	SIC	450	ABS	0	0	1	2	24_1_2	NA	NA	0	1	4.19261407852	None	None	None	None	1
3.0.1	2019_Mar_05_1116	s	s	9	1	SIC	451	ABS	0	0	1	1	24_1_1	NA	NA	0	1	2.7984688282	None	None	None	None	1
3.0.1	2019_Mar_05_1116	s	s	9	1	SIC	452	3_1	3	1	4	4	23_4_4	-1	3	1	0	0.613792896271	-221.0	21.0	-226.0	22.0	1
3.0.1	2019_Mar_05_1116	s	s	9	1	SIC	453	ABS	0	0	2	2	24_2_2	NA	NA	0	1	3.28062200546	None	None	None	None	1
3.0.1	2019_Mar_05_1116	s	s	9	1	SIC	454	ABS	0	0	3	2	24_3_2	NA	NA	0	1	3.40687990189	None	None	None	None	1
3.0.1	2019_Mar_05_1116	s	s	9	1	SIC	455	ABS	0	0	2	4	24_2_4	NA	NA	0	1	2.57499217987	None	None	None	None	1
3.0.1	2019_Mar_05_1116	s	s	9	1	SIC	456	3_4	3	4	4	4	23_4_4	-1	0	1	0	0.745556116104	-337.0	131.0	-339.0	129.0	1
3.0.1	2019_Mar_05_1116	s	s	9	1	SIC	457	ABS	0	0	4	2	24_4_2	NA	NA	0	1	2.47413492203	None	None	None	None	1
3.0.1	2019_Mar_05_1116	s	s	9	1	SIC	458	3_3	3	3	4	1	23_4_1	-1	2	1	0	1.0329079628	-361.0	394.0	-358.0	392.0	1
3.0.1	2019_Mar_05_1116	s	s	9	1	SIC	459	4_4	4	4	4	1	23_4_1	0	3	1	0	0.663475990295	423.0	-278.0	421.0	-276.0	1
3.0.1	2019_Mar_05_1116	s	s	9	1	SIC	460	ABS	0	0	1	4	24_1_4	NA	NA	0	1	2.11628103256	None	None	None	None	1
3.0.1	2019_Mar_05_1116	s	s	9	1	SIC	461	1_3	1	3	3	4	23_3_4	2	-1	1	0	0.622589111328	-165.0	278.0	-168.0	276.0	1
3.0.1	2019_Mar_05_1116	s	s	9	1	SIC	462	ABS	0	0	1	4	24_1_4	NA	NA	0	1	2.16326999664	None	None	None	None	1
3.0.1	2019_Mar_05_1116	s	s	9	1	SIC	463	ABS	0	0	3	2	24_3_2	NA	NA	0	1	3.03103423119	None	None	None	None	1
3.0.1	2019_Mar_05_1116	s	s	9	1	SIC	464	ABS	0	0	1	2	24_1_2	NA	NA	0	1	3.89227294922	None	None	None	None	1
3.0.1	2019_Mar_05_1116	s	s	9	1	SIC	465	ABS	0	0	4	3	24_4_3	NA	NA	0	1	3.46531009674	None	None	None	None	1
3.0.1	2019_Mar_05_1116	s	s	9	1	SIC	466	ABS	0	0	1	3	24_1_3	NA	NA	0	1	2.96606516838	None	None	None	None	1
3.0.1	2019_Mar_05_1116	s	s	9	1	SIC	467	ABS	0	0	3	3	24_3_3	NA	NA	0	1	3.45751190186	None	None	None	None	1
3.0.1	2019_Mar_05_1116	s	s	9	1	SIC	468	ABS	0	0	4	3	24_4_3	NA	NA	0	1	3.29252815247	None	None	None	None	1
3.0.1	2019_Mar_05_1116	s	s	9	1	SIC	469	1_1	1	1	1	2	23_1_2	0	1	1	0	4.32748699188	-318.0	-255.0	-321.0	-253.0	1
3.0.1	2019_Mar_05_1116	s	s	9	1	SIC	470	ABS	0	0	3	1	24_3_1	NA	NA	0	1	3.59831690788	None	None	None	None	1
3.0.1	2019_Mar_05_1116	s	s	9	1	SIC	471	ABS	0	0	3	2	24_3_2	NA	NA	0	1	5.00964617729	None	None	None	None	1
3.0.1	2019_Mar_05_1116	s	s	9	1	SIC	472	ABS	0	0	3	1	24_3_1	NA	NA	0	1	2.61072492599	None	None	None	None	1
3.0.1	2019_Mar_05_1116	s	s	9	1	SIC	473	ABS	0	0	4	4	24_4_4	NA	NA	0	1	2.01047801971	None	None	None	None	1
3.0.1	2019_Mar_05_1116	s	s	9	1	SIC	474	ABS	0	0	1	1	24_1_1	NA	NA	0	1	3.29515004158	None	None	None	None	1
3.0.1	2019_Mar_05_1116	s	s	9	1	SIC	475	4_4	4	4	4	3	23_4_3	0	1	1	0	0.721682071686	195.0	290.0	192.0	288.0	1
3.0.1	2019_Mar_05_1116	s	s	9	1	SIC	476	3_3	3	3	1	3	23_1_3	2	0	1	0	0.587369918823	-334.0	-153.0	-330.0	-159.0	1
3.0.1	2019_Mar_05_1116	s	s	9	1	SIC	477	ABS	0	0	4	2	24_4_2	NA	NA	0	1	2.86400985718	None	None	None	None	1
3.0.1	2019_Mar_05_1116	s	s	9	1	SIC	478	4_1	4	1	1	4	23_1_4	3	3	1	0	0.63437795639	147.0	-392.0	147.0	-391.0	1
3.0.1	2019_Mar_05_1116	s	s	9	1	SIC	479	3_1	3	1	3	4	23_3_4	0	3	1	0	0.687597990036	517.0	-53.0	517.0	-52.0	1
3.0.1	2019_Mar_05_1116	s	s	9	1	SIC	480	1_1	1	1	2	1	23_2_1	1	0	0	1	2.89924907684	-387.0	258.0	None	None	0
