Version	Date	Stimuli	Method	Subject	Session	Condition	Trial	Target	TColor	TShape	DColor	DShape	Distractors	Channel1	Channel2	LMouseButton	RMouseButton	RT	TargetX	TargetY	ResponseX	ResponseY	Correct
3.0.1	2019_Mar_06_1110	s	s	9	2	Capacity	1	ABS	0	0	1	2	24_1_2	NA	NA	0	1	3.29783201218	None	None	None	None	1
3.0.1	2019_Mar_06_1110	s	s	9	2	Capacity	2	1_2	1	2	1	1	23_1_1	0	-1	1	0	1.78743600845	513.0	347.0	514.0	348.0	1
3.0.1	2019_Mar_06_1110	s	s	9	2	Capacity	3	ABS	0	0	1	1	24_1_1	NA	NA	0	1	2.70440101624	None	None	None	None	1
3.0.1	2019_Mar_06_1110	s	s	9	2	Capacity	4	1_4	1	4	1	3	23_1_3	0	1	1	0	2.03844499588	433.0	-286.0	430.0	-285.0	1
3.0.1	2019_Mar_06_1110	s	s	9	2	Capacity	5	ABS	0	0	1	3	24_1_3	NA	NA	0	1	3.32552313805	None	None	None	None	1
3.0.1	2019_Mar_06_1110	s	s	9	2	Capacity	6	ABS	0	0	1	3	24_1_3	NA	NA	0	1	3.11602687836	None	None	None	None	1
3.0.1	2019_Mar_06_1110	s	s	9	2	Capacity	7	ABS	0	0	1	2	24_1_2	NA	NA	0	1	4.39113402367	None	None	None	None	1
3.0.1	2019_Mar_06_1110	s	s	9	2	Capacity	8	1_2	1	2	1	3	23_1_3	0	1	1	0	2.85041499138	-253.0	-235.0	-254.0	-236.0	1
3.0.1	2019_Mar_06_1110	s	s	9	2	Capacity	9	1_1	1	1	1	4	23_1_4	0	3	1	0	0.728554964066	-375.0	230.0	-376.0	226.0	1
3.0.1	2019_Mar_06_1110	s	s	9	2	Capacity	10	1_3	1	3	1	4	23_1_4	0	-1	1	0	1.63691115379	491.0	-322.0	494.0	-320.0	1
3.0.1	2019_Mar_06_1110	s	s	9	2	Capacity	11	1_2	1	2	1	4	23_1_4	0	2	1	0	0.581387042999	-102.0	309.0	-102.0	314.0	1
3.0.1	2019_Mar_06_1110	s	s	9	2	Capacity	12	1_1	1	1	1	3	23_1_3	0	2	1	0	0.681474924088	-174.0	398.0	-177.0	396.0	1
3.0.1	2019_Mar_06_1110	s	s	9	2	Capacity	13	1_4	1	4	1	2	23_1_2	0	2	1	0	1.3521270752	105.0	-404.0	105.0	-403.0	1
3.0.1	2019_Mar_06_1110	s	s	9	2	Capacity	14	ABS	0	0	1	3	24_1_3	NA	NA	0	1	2.95177698135	None	None	None	None	1
3.0.1	2019_Mar_06_1110	s	s	9	2	Capacity	15	ABS	0	0	1	1	24_1_1	NA	NA	0	1	2.35467410088	None	None	None	None	1
3.0.1	2019_Mar_06_1110	s	s	9	2	Capacity	16	ABS	0	0	1	4	24_1_4	NA	NA	0	1	1.39392209053	None	None	None	None	1
3.0.1	2019_Mar_06_1110	s	s	9	2	Capacity	17	1_3	1	3	1	1	23_1_1	0	2	1	0	1.05775094032	421.0	131.0	428.0	130.0	1
3.0.1	2019_Mar_06_1110	s	s	9	2	Capacity	18	1_4	1	4	1	1	23_1_1	0	3	1	0	0.646151065826	442.0	11.0	451.0	13.0	1
3.0.1	2019_Mar_06_1110	s	s	9	2	Capacity	19	ABS	0	0	1	2	24_1_2	NA	NA	0	1	3.83813619614	None	None	None	None	1
3.0.1	2019_Mar_06_1110	s	s	9	2	Capacity	20	ABS	0	0	1	4	24_1_4	NA	NA	0	1	1.99872708321	None	None	None	None	1
3.0.1	2019_Mar_06_1110	s	s	9	2	Capacity	21	1_1	1	1	1	2	23_1_2	0	1	1	0	1.61450815201	238.0	211.0	232.0	217.0	1
3.0.1	2019_Mar_06_1110	s	s	9	2	Capacity	22	ABS	0	0	1	4	24_1_4	NA	NA	0	1	2.00357604027	None	None	None	None	1
3.0.1	2019_Mar_06_1110	s	s	9	2	Capacity	23	1_3	1	3	1	2	23_1_2	0	1	0	1	3.85012698174	-38.0	-215.0	None	None	0
3.0.1	2019_Mar_06_1110	s	s	9	2	Capacity	24	ABS	0	0	1	1	24_1_1	NA	NA	0	1	2.49779510498	None	None	None	None	1
3.0.1	2019_Mar_06_1110	s	s	9	2	Capacity	25	1_4	1	4	1	1	23_1_1	0	3	1	0	0.62041592598	142.0	127.0	135.0	132.0	1
3.0.1	2019_Mar_06_1110	s	s	9	2	Capacity	26	ABS	0	0	1	3	24_1_3	NA	NA	0	1	2.80134701729	None	None	None	None	1
3.0.1	2019_Mar_06_1110	s	s	9	2	Capacity	27	ABS	0	0	1	3	24_1_3	NA	NA	0	1	2.41582417488	None	None	None	None	1
3.0.1	2019_Mar_06_1110	s	s	9	2	Capacity	28	1_1	1	1	1	3	23_1_3	0	2	1	0	1.88763999939	276.0	-243.0	276.0	-248.0	1
3.0.1	2019_Mar_06_1110	s	s	9	2	Capacity	29	1_4	1	4	1	3	23_1_3	0	1	1	0	0.782337903976	-524.0	266.0	-527.0	266.0	1
3.0.1	2019_Mar_06_1110	s	s	9	2	Capacity	30	1_3	1	3	1	2	23_1_2	0	1	1	0	1.7520339489	242.0	-138.0	247.0	-136.0	1
3.0.1	2019_Mar_06_1110	s	s	9	2	Capacity	31	1_3	1	3	1	4	23_1_4	0	-1	1	0	0.639183998108	-154.0	264.0	-150.0	261.0	1
3.0.1	2019_Mar_06_1110	s	s	9	2	Capacity	32	1_3	1	3	1	1	23_1_1	0	2	1	0	1.07479286194	-41.0	62.0	-41.0	56.0	1
3.0.1	2019_Mar_06_1110	s	s	9	2	Capacity	33	1_1	1	1	1	2	23_1_2	0	1	1	0	3.06900286674	36.0	-313.0	26.0	-314.0	1
3.0.1	2019_Mar_06_1110	s	s	9	2	Capacity	34	1_2	1	2	1	3	23_1_3	0	1	1	0	2.89261198044	154.0	-320.0	153.0	-319.0	1
3.0.1	2019_Mar_06_1110	s	s	9	2	Capacity	35	ABS	0	0	1	1	24_1_1	NA	NA	0	1	2.06963801384	None	None	None	None	1
3.0.1	2019_Mar_06_1110	s	s	9	2	Capacity	36	ABS	0	0	1	2	24_1_2	NA	NA	0	1	4.98605012894	None	None	None	None	1
3.0.1	2019_Mar_06_1110	s	s	9	2	Capacity	37	1_4	1	4	1	2	23_1_2	0	2	1	0	0.560611009598	-112.0	235.0	-116.0	236.0	1
3.0.1	2019_Mar_06_1110	s	s	9	2	Capacity	38	ABS	0	0	1	1	24_1_1	NA	NA	0	1	2.41025090218	None	None	None	None	1
3.0.1	2019_Mar_06_1110	s	s	9	2	Capacity	39	1_1	1	1	1	4	23_1_4	0	3	1	0	0.757143974304	-503.0	199.0	-501.0	202.0	1
3.0.1	2019_Mar_06_1110	s	s	9	2	Capacity	40	1_2	1	2	1	1	23_1_1	0	-1	0	1	1.95824885368	92.0	192.0	None	None	0
3.0.1	2019_Mar_06_1110	s	s	9	2	Capacity	41	ABS	0	0	1	3	24_1_3	NA	NA	0	1	2.50970387459	None	None	None	None	1
3.0.1	2019_Mar_06_1110	s	s	9	2	Capacity	42	ABS	0	0	1	4	24_1_4	NA	NA	0	1	1.65764403343	None	None	None	None	1
3.0.1	2019_Mar_06_1110	s	s	9	2	Capacity	43	ABS	0	0	1	2	24_1_2	NA	NA	0	1	4.44500398636	None	None	None	None	1
3.0.1	2019_Mar_06_1110	s	s	9	2	Capacity	44	ABS	0	0	1	2	24_1_2	NA	NA	0	1	4.29633593559	None	None	None	None	1
3.0.1	2019_Mar_06_1110	s	s	9	2	Capacity	45	ABS	0	0	1	1	24_1_1	NA	NA	0	1	2.29799604416	None	None	None	None	1
3.0.1	2019_Mar_06_1110	s	s	9	2	Capacity	46	ABS	0	0	1	4	24_1_4	NA	NA	0	1	1.26957607269	None	None	None	None	1
3.0.1	2019_Mar_06_1110	s	s	9	2	Capacity	47	1_2	1	2	1	4	23_1_4	0	2	1	0	1.17543196678	38.0	-292.0	37.0	-300.0	1
3.0.1	2019_Mar_06_1110	s	s	9	2	Capacity	48	ABS	0	0	1	4	24_1_4	NA	NA	0	1	2.17513298988	None	None	None	None	1
3.0.1	2019_Mar_06_1110	s	s	9	2	Capacity	49	1_1	1	1	1	4	23_1_4	0	3	1	0	0.746845960617	-378.0	-252.0	-379.0	-252.0	1
3.0.1	2019_Mar_06_1110	s	s	9	2	Capacity	50	1_3	1	3	1	2	23_1_2	0	1	1	0	3.10423278809	-194.0	-381.0	-190.0	-385.0	1
3.0.1	2019_Mar_06_1110	s	s	9	2	Capacity	51	1_4	1	4	1	1	23_1_1	0	3	1	0	0.627124071121	-35.0	-324.0	-36.0	-328.0	1
3.0.1	2019_Mar_06_1110	s	s	9	2	Capacity	52	1_1	1	1	1	3	23_1_3	0	2	1	0	3.04542303085	6.0	-338.0	11.0	-346.0	1
3.0.1	2019_Mar_06_1110	s	s	9	2	Capacity	53	ABS	0	0	1	3	24_1_3	NA	NA	0	1	3.71048903465	None	None	None	None	1
3.0.1	2019_Mar_06_1110	s	s	9	2	Capacity	54	1_2	1	2	1	3	23_1_3	0	1	1	0	1.07451987267	-126.0	-17.0	-127.0	-21.0	1
3.0.1	2019_Mar_06_1110	s	s	9	2	Capacity	55	ABS	0	0	1	2	24_1_2	NA	NA	0	1	4.14924097061	None	None	None	None	1
3.0.1	2019_Mar_06_1110	s	s	9	2	Capacity	56	ABS	0	0	1	3	24_1_3	NA	NA	0	1	3.31604599953	None	None	None	None	1
3.0.1	2019_Mar_06_1110	s	s	9	2	Capacity	57	1_2	1	2	1	4	23_1_4	0	2	1	0	1.54012203217	-220.0	-388.0	-221.0	-393.0	1
3.0.1	2019_Mar_06_1110	s	s	9	2	Capacity	58	1_3	1	3	1	1	23_1_1	0	2	1	0	1.41068005562	158.0	312.0	156.0	310.0	1
3.0.1	2019_Mar_06_1110	s	s	9	2	Capacity	59	ABS	0	0	1	4	24_1_4	NA	NA	0	1	1.34005904198	None	None	None	None	1
3.0.1	2019_Mar_06_1110	s	s	9	2	Capacity	60	ABS	0	0	1	1	24_1_1	NA	NA	0	1	2.48588299751	None	None	None	None	1
3.0.1	2019_Mar_06_1110	s	s	9	2	Capacity	61	1_4	1	4	1	2	23_1_2	0	2	1	0	0.681974172592	126.0	-14.0	124.0	-20.0	1
3.0.1	2019_Mar_06_1110	s	s	9	2	Capacity	62	ABS	0	0	1	3	24_1_3	NA	NA	0	1	3.86870002747	None	None	None	None	1
3.0.1	2019_Mar_06_1110	s	s	9	2	Capacity	63	ABS	0	0	1	1	24_1_1	NA	NA	0	1	2.21045303345	None	None	None	None	1
3.0.1	2019_Mar_06_1110	s	s	9	2	Capacity	64	1_1	1	1	1	2	23_1_2	0	1	1	0	3.60265398026	-319.0	-270.0	-317.0	-269.0	1
3.0.1	2019_Mar_06_1110	s	s	9	2	Capacity	65	ABS	0	0	1	4	24_1_4	NA	NA	0	1	2.09671401978	None	None	None	None	1
3.0.1	2019_Mar_06_1110	s	s	9	2	Capacity	66	1_4	1	4	1	3	23_1_3	0	1	1	0	0.791156053543	131.0	353.0	138.0	356.0	1
3.0.1	2019_Mar_06_1110	s	s	9	2	Capacity	67	ABS	0	0	1	2	24_1_2	NA	NA	0	1	5.16243600845	None	None	None	None	1
3.0.1	2019_Mar_06_1110	s	s	9	2	Capacity	68	ABS	0	0	1	1	24_1_1	NA	NA	0	1	2.38263893127	None	None	None	None	1
3.0.1	2019_Mar_06_1110	s	s	9	2	Capacity	69	1_3	1	3	1	4	23_1_4	0	-1	1	0	0.956905126572	-40.0	-264.0	-39.0	-269.0	1
3.0.1	2019_Mar_06_1110	s	s	9	2	Capacity	70	ABS	0	0	1	2	24_1_2	NA	NA	0	1	3.33947992325	None	None	None	None	1
3.0.1	2019_Mar_06_1110	s	s	9	2	Capacity	71	1_2	1	2	1	1	23_1_1	0	-1	1	0	1.61335802078	339.0	206.0	343.0	206.0	1
3.0.1	2019_Mar_06_1110	s	s	9	2	Capacity	72	ABS	0	0	1	4	24_1_4	NA	NA	0	1	2.1374309063	None	None	None	None	1
3.0.1	2019_Mar_06_1110	s	s	9	2	Capacity	73	ABS	0	0	1	1	24_1_1	NA	NA	0	1	2.31919193268	None	None	None	None	1
3.0.1	2019_Mar_06_1110	s	s	9	2	Capacity	74	ABS	0	0	1	4	24_1_4	NA	NA	0	1	1.99169993401	None	None	None	None	1
3.0.1	2019_Mar_06_1110	s	s	9	2	Capacity	75	1_2	1	2	1	3	23_1_3	0	1	0	1	4.27487111092	-480.0	7.0	None	None	0
3.0.1	2019_Mar_06_1110	s	s	9	2	Capacity	76	1_2	1	2	1	1	23_1_1	0	-1	1	0	1.73997497559	-495.0	-393.0	-499.0	-394.0	1
3.0.1	2019_Mar_06_1110	s	s	9	2	Capacity	77	ABS	0	0	1	1	24_1_1	NA	NA	0	1	3.45077705383	None	None	None	None	1
3.0.1	2019_Mar_06_1110	s	s	9	2	Capacity	78	1_2	1	2	1	4	23_1_4	0	2	1	0	1.010835886	-398.0	111.0	-398.0	107.0	1
3.0.1	2019_Mar_06_1110	s	s	9	2	Capacity	79	1_3	1	3	1	2	23_1_2	0	1	1	0	1.09793901443	-245.0	26.0	-251.0	28.0	1
3.0.1	2019_Mar_06_1110	s	s	9	2	Capacity	80	ABS	0	0	1	2	24_1_2	NA	NA	0	1	6.15556406975	None	None	None	None	1
3.0.1	2019_Mar_06_1110	s	s	9	2	Capacity	81	1_4	1	4	1	3	23_1_3	0	1	1	0	3.14903283119	256.0	-383.0	264.0	-385.0	1
3.0.1	2019_Mar_06_1110	s	s	9	2	Capacity	82	ABS	0	0	1	3	24_1_3	NA	NA	0	1	4.3627538681	None	None	None	None	1
3.0.1	2019_Mar_06_1110	s	s	9	2	Capacity	83	ABS	0	0	1	4	24_1_4	NA	NA	0	1	1.92819905281	None	None	None	None	1
3.0.1	2019_Mar_06_1110	s	s	9	2	Capacity	84	ABS	0	0	1	2	24_1_2	NA	NA	0	1	5.17425608635	None	None	None	None	1
3.0.1	2019_Mar_06_1110	s	s	9	2	Capacity	85	ABS	0	0	1	3	24_1_3	NA	NA	0	1	3.71587204933	None	None	None	None	1
3.0.1	2019_Mar_06_1110	s	s	9	2	Capacity	86	ABS	0	0	1	1	24_1_1	NA	NA	0	1	1.63417410851	None	None	None	None	1
3.0.1	2019_Mar_06_1110	s	s	9	2	Capacity	87	1_1	1	1	1	2	23_1_2	0	1	1	0	1.07479190826	-388.0	200.0	-388.0	202.0	1
3.0.1	2019_Mar_06_1110	s	s	9	2	Capacity	88	ABS	0	0	1	3	24_1_3	NA	NA	0	1	3.55951714516	None	None	None	None	1
3.0.1	2019_Mar_06_1110	s	s	9	2	Capacity	89	ABS	0	0	1	4	24_1_4	NA	NA	0	1	1.5002720356	None	None	None	None	1
3.0.1	2019_Mar_06_1110	s	s	9	2	Capacity	90	1_1	1	1	1	4	23_1_4	0	3	1	0	0.679160118103	55.0	-86.0	59.0	-88.0	1
3.0.1	2019_Mar_06_1110	s	s	9	2	Capacity	91	1_4	1	4	1	2	23_1_2	0	2	1	0	0.740389823914	-437.0	308.0	-435.0	308.0	1
3.0.1	2019_Mar_06_1110	s	s	9	2	Capacity	92	1_3	1	3	1	4	23_1_4	0	-1	1	0	0.60382604599	-249.0	23.0	-248.0	22.0	1
3.0.1	2019_Mar_06_1110	s	s	9	2	Capacity	93	1_1	1	1	1	3	23_1_3	0	2	1	0	0.705009937286	-121.0	281.0	-121.0	280.0	1
3.0.1	2019_Mar_06_1110	s	s	9	2	Capacity	94	ABS	0	0	1	2	24_1_2	NA	NA	0	1	5.62131905556	None	None	None	None	1
3.0.1	2019_Mar_06_1110	s	s	9	2	Capacity	95	1_4	1	4	1	1	23_1_1	0	3	1	0	0.634496927261	142.0	329.0	144.0	329.0	1
3.0.1	2019_Mar_06_1110	s	s	9	2	Capacity	96	1_3	1	3	1	1	23_1_1	0	2	1	0	1.12036991119	135.0	-177.0	139.0	-180.0	1
3.0.1	2019_Mar_06_1110	s	s	9	2	Capacity	1	4_1	4	1	3	1	23_3_1	1	0	1	0	0.457982063293	274.0	-175.0	272.0	-171.0	1
3.0.1	2019_Mar_06_1110	s	s	9	2	Capacity	2	ABS	0	0	4	1	24_4_1	NA	NA	0	1	1.68154501915	None	None	None	None	1
3.0.1	2019_Mar_06_1110	s	s	9	2	Capacity	3	ABS	0	0	4	1	24_4_1	NA	NA	0	1	1.51645803452	None	None	None	None	1
3.0.1	2019_Mar_06_1110	s	s	9	2	Capacity	4	1_1	1	1	4	1	23_4_1	3	0	1	0	0.532685041428	259.0	-105.0	252.0	-102.0	1
3.0.1	2019_Mar_06_1110	s	s	9	2	Capacity	5	4_1	4	1	2	1	23_2_1	2	0	1	0	0.469756126404	-271.0	55.0	-275.0	60.0	1
3.0.1	2019_Mar_06_1110	s	s	9	2	Capacity	6	3_1	3	1	1	1	23_1_1	2	0	1	0	0.575623989105	-99.0	-227.0	-102.0	-229.0	1
3.0.1	2019_Mar_06_1110	s	s	9	2	Capacity	7	ABS	0	0	1	1	24_1_1	NA	NA	0	1	2.58673381805	None	None	None	None	1
3.0.1	2019_Mar_06_1110	s	s	9	2	Capacity	8	ABS	0	0	1	1	24_1_1	NA	NA	0	1	2.04572606087	None	None	None	None	1
3.0.1	2019_Mar_06_1110	s	s	9	2	Capacity	9	ABS	0	0	2	1	24_2_1	NA	NA	0	1	2.83917403221	None	None	None	None	1
3.0.1	2019_Mar_06_1110	s	s	9	2	Capacity	10	2_1	2	1	3	1	23_3_1	1	0	1	0	0.716819047928	-51.0	-164.0	-44.0	-164.0	1
3.0.1	2019_Mar_06_1110	s	s	9	2	Capacity	11	4_1	4	1	1	1	23_1_1	3	0	1	0	0.522916078568	-475.0	-52.0	-471.0	-56.0	1
3.0.1	2019_Mar_06_1110	s	s	9	2	Capacity	12	2_1	2	1	4	1	23_4_1	2	0	1	0	0.532796859741	481.0	217.0	481.0	212.0	1
3.0.1	2019_Mar_06_1110	s	s	9	2	Capacity	13	ABS	0	0	2	1	24_2_1	NA	NA	0	1	2.98664402962	None	None	None	None	1
3.0.1	2019_Mar_06_1110	s	s	9	2	Capacity	14	1_1	1	1	2	1	23_2_1	1	0	0	1	6.84726214409	472.0	-241.0	None	None	0
3.0.1	2019_Mar_06_1110	s	s	9	2	Capacity	15	ABS	0	0	4	1	24_4_1	NA	NA	0	1	1.30483698845	None	None	None	None	1
3.0.1	2019_Mar_06_1110	s	s	9	2	Capacity	16	ABS	0	0	3	1	24_3_1	NA	NA	0	1	2.27270293236	None	None	None	None	1
3.0.1	2019_Mar_06_1110	s	s	9	2	Capacity	17	1_1	1	1	3	1	23_3_1	2	0	1	0	0.521111965179	389.0	-205.0	397.0	-202.0	1
3.0.1	2019_Mar_06_1110	s	s	9	2	Capacity	18	ABS	0	0	3	1	24_3_1	NA	NA	0	1	1.31134009361	None	None	None	None	1
3.0.1	2019_Mar_06_1110	s	s	9	2	Capacity	19	2_1	2	1	1	1	23_1_1	-1	0	0	1	2.03073215485	78.0	366.0	None	None	0
3.0.1	2019_Mar_06_1110	s	s	9	2	Capacity	20	ABS	0	0	1	1	24_1_1	NA	NA	0	1	1.95176196098	None	None	None	None	1
3.0.1	2019_Mar_06_1110	s	s	9	2	Capacity	21	ABS	0	0	3	1	24_3_1	NA	NA	0	1	1.65777301788	None	None	None	None	1
3.0.1	2019_Mar_06_1110	s	s	9	2	Capacity	22	3_1	3	1	4	1	23_4_1	-1	0	1	0	0.528573036194	-265.0	106.0	-265.0	112.0	1
3.0.1	2019_Mar_06_1110	s	s	9	2	Capacity	23	3_1	3	1	2	1	23_2_1	1	0	1	0	0.686623096466	-423.0	-74.0	-421.0	-75.0	1
3.0.1	2019_Mar_06_1110	s	s	9	2	Capacity	24	ABS	0	0	2	1	24_2_1	NA	NA	0	1	1.90795207024	None	None	None	None	1
3.0.1	2019_Mar_06_1110	s	s	9	2	Capacity	25	3_1	3	1	4	1	23_4_1	-1	0	1	0	0.634418964386	128.0	-241.0	133.0	-244.0	1
3.0.1	2019_Mar_06_1110	s	s	9	2	Capacity	26	ABS	0	0	4	1	24_4_1	NA	NA	0	1	0.957798957825	None	None	None	None	1
3.0.1	2019_Mar_06_1110	s	s	9	2	Capacity	27	ABS	0	0	1	1	24_1_1	NA	NA	0	1	2.14375305176	None	None	None	None	1
3.0.1	2019_Mar_06_1110	s	s	9	2	Capacity	28	1_1	1	1	2	1	23_2_1	1	0	0	1	2.70439195633	174.0	17.0	None	None	0
3.0.1	2019_Mar_06_1110	s	s	9	2	Capacity	29	4_1	4	1	3	1	23_3_1	1	0	1	0	0.593454837799	-52.0	-61.0	-51.0	-62.0	1
3.0.1	2019_Mar_06_1110	s	s	9	2	Capacity	30	2_1	2	1	1	1	23_1_1	-1	0	0	1	2.45739388466	500.0	-122.0	None	None	0
3.0.1	2019_Mar_06_1110	s	s	9	2	Capacity	31	ABS	0	0	2	1	24_2_1	NA	NA	0	1	1.92272996902	None	None	None	None	1
3.0.1	2019_Mar_06_1110	s	s	9	2	Capacity	32	3_1	3	1	2	1	23_2_1	1	0	1	0	0.799064874649	-201.0	85.0	-204.0	85.0	1
3.0.1	2019_Mar_06_1110	s	s	9	2	Capacity	33	1_1	1	1	4	1	23_4_1	3	0	1	0	0.493283033371	49.0	-320.0	45.0	-328.0	1
3.0.1	2019_Mar_06_1110	s	s	9	2	Capacity	34	ABS	0	0	4	1	24_4_1	NA	NA	0	1	0.975501060486	None	None	None	None	1
3.0.1	2019_Mar_06_1110	s	s	9	2	Capacity	35	ABS	0	0	3	1	24_3_1	NA	NA	0	1	1.55223608017	None	None	None	None	1
3.0.1	2019_Mar_06_1110	s	s	9	2	Capacity	36	ABS	0	0	1	1	24_1_1	NA	NA	0	1	1.34013795853	None	None	None	None	1
3.0.1	2019_Mar_06_1110	s	s	9	2	Capacity	37	ABS	0	0	3	1	24_3_1	NA	NA	0	1	1.46217703819	None	None	None	None	1
3.0.1	2019_Mar_06_1110	s	s	9	2	Capacity	38	3_1	3	1	1	1	23_1_1	2	0	1	0	0.898925065994	525.0	122.0	532.0	120.0	1
3.0.1	2019_Mar_06_1110	s	s	9	2	Capacity	39	ABS	0	0	3	1	24_3_1	NA	NA	0	1	1.15864181519	None	None	None	None	1
3.0.1	2019_Mar_06_1110	s	s	9	2	Capacity	40	4_1	4	1	2	1	23_2_1	2	0	1	0	0.540311813354	-381.0	-145.0	-374.0	-146.0	1
3.0.1	2019_Mar_06_1110	s	s	9	2	Capacity	41	1_1	1	1	3	1	23_3_1	2	0	1	0	0.554980039597	-182.0	-188.0	-186.0	-189.0	1
3.0.1	2019_Mar_06_1110	s	s	9	2	Capacity	42	ABS	0	0	2	1	24_2_1	NA	NA	0	1	1.62785196304	None	None	None	None	1
3.0.1	2019_Mar_06_1110	s	s	9	2	Capacity	43	ABS	0	0	4	1	24_4_1	NA	NA	0	1	1.02539205551	None	None	None	None	1
3.0.1	2019_Mar_06_1110	s	s	9	2	Capacity	44	ABS	0	0	1	1	24_1_1	NA	NA	0	1	1.36366510391	None	None	None	None	1
3.0.1	2019_Mar_06_1110	s	s	9	2	Capacity	45	ABS	0	0	2	1	24_2_1	NA	NA	0	1	1.26066493988	None	None	None	None	1
3.0.1	2019_Mar_06_1110	s	s	9	2	Capacity	46	2_1	2	1	4	1	23_4_1	2	0	1	0	0.657977104187	-416.0	-196.0	-414.0	-198.0	1
3.0.1	2019_Mar_06_1110	s	s	9	2	Capacity	47	2_1	2	1	3	1	23_3_1	1	0	1	0	0.516753196716	-164.0	-162.0	-157.0	-162.0	1
3.0.1	2019_Mar_06_1110	s	s	9	2	Capacity	48	4_1	4	1	1	1	23_1_1	3	0	1	0	0.486922979355	342.0	-112.0	343.0	-117.0	1
3.0.1	2019_Mar_06_1110	s	s	9	2	Capacity	49	2_1	2	1	4	1	23_4_1	2	0	1	0	0.704998970032	381.0	369.0	383.0	369.0	1
3.0.1	2019_Mar_06_1110	s	s	9	2	Capacity	50	4_1	4	1	3	1	23_3_1	1	0	1	0	0.540436983109	-389.0	32.0	-389.0	30.0	1
3.0.1	2019_Mar_06_1110	s	s	9	2	Capacity	51	1_1	1	1	3	1	23_3_1	2	0	1	0	0.662730932236	37.0	49.0	34.0	44.0	1
3.0.1	2019_Mar_06_1110	s	s	9	2	Capacity	52	1_1	1	1	2	1	23_2_1	1	0	1	0	2.49276804924	-371.0	-217.0	-368.0	-224.0	1
3.0.1	2019_Mar_06_1110	s	s	9	2	Capacity	53	ABS	0	0	3	1	24_3_1	NA	NA	0	1	1.28681206703	None	None	None	None	1
3.0.1	2019_Mar_06_1110	s	s	9	2	Capacity	54	1_1	1	1	4	1	23_4_1	3	0	1	0	0.620187997818	491.0	332.0	489.0	326.0	1
3.0.1	2019_Mar_06_1110	s	s	9	2	Capacity	55	ABS	0	0	1	1	24_1_1	NA	NA	0	1	1.90748786926	None	None	None	None	1
3.0.1	2019_Mar_06_1110	s	s	9	2	Capacity	56	ABS	0	0	4	1	24_4_1	NA	NA	0	1	1.09312701225	None	None	None	None	1
3.0.1	2019_Mar_06_1110	s	s	9	2	Capacity	57	4_1	4	1	2	1	23_2_1	2	0	1	0	0.578445911407	-27.0	-77.0	-23.0	-80.0	1
3.0.1	2019_Mar_06_1110	s	s	9	2	Capacity	58	ABS	0	0	2	1	24_2_1	NA	NA	0	1	1.54000616074	None	None	None	None	1
3.0.1	2019_Mar_06_1110	s	s	9	2	Capacity	59	3_1	3	1	4	1	23_4_1	-1	0	1	0	0.738685846329	-487.0	-202.0	-491.0	-210.0	1
3.0.1	2019_Mar_06_1110	s	s	9	2	Capacity	60	2_1	2	1	1	1	23_1_1	-1	0	0	1	3.16666221619	-182.0	301.0	None	None	0
3.0.1	2019_Mar_06_1110	s	s	9	2	Capacity	61	ABS	0	0	4	1	24_4_1	NA	NA	0	1	1.13469719887	None	None	None	None	1
3.0.1	2019_Mar_06_1110	s	s	9	2	Capacity	62	4_1	4	1	1	1	23_1_1	3	0	1	0	0.599108934402	-288.0	-43.0	-290.0	-48.0	1
3.0.1	2019_Mar_06_1110	s	s	9	2	Capacity	63	ABS	0	0	3	1	24_3_1	NA	NA	0	1	1.36939096451	None	None	None	None	1
3.0.1	2019_Mar_06_1110	s	s	9	2	Capacity	64	ABS	0	0	1	1	24_1_1	NA	NA	0	1	1.48126196861	None	None	None	None	1
3.0.1	2019_Mar_06_1110	s	s	9	2	Capacity	65	ABS	0	0	2	1	24_2_1	NA	NA	0	1	2.15161395073	None	None	None	None	1
3.0.1	2019_Mar_06_1110	s	s	9	2	Capacity	66	ABS	0	0	3	1	24_3_1	NA	NA	0	1	1.6135289669	None	None	None	None	1
3.0.1	2019_Mar_06_1110	s	s	9	2	Capacity	67	2_1	2	1	3	1	23_3_1	1	0	1	0	0.790256977081	488.0	-245.0	493.0	-255.0	1
3.0.1	2019_Mar_06_1110	s	s	9	2	Capacity	68	ABS	0	0	2	1	24_2_1	NA	NA	0	1	1.80406403542	None	None	None	None	1
3.0.1	2019_Mar_06_1110	s	s	9	2	Capacity	69	ABS	0	0	4	1	24_4_1	NA	NA	0	1	1.29350304604	None	None	None	None	1
3.0.1	2019_Mar_06_1110	s	s	9	2	Capacity	70	3_1	3	1	1	1	23_1_1	2	0	1	0	0.628003120422	-8.0	-142.0	-8.0	-139.0	1
3.0.1	2019_Mar_06_1110	s	s	9	2	Capacity	71	ABS	0	0	1	1	24_1_1	NA	NA	0	1	2.37802195549	None	None	None	None	1
3.0.1	2019_Mar_06_1110	s	s	9	2	Capacity	72	3_1	3	1	2	1	23_2_1	1	0	1	0	1.1048681736	517.0	-395.0	521.0	-400.0	1
3.0.1	2019_Mar_06_1110	s	s	9	2	Capacity	73	ABS	0	0	2	1	24_2_1	NA	NA	0	1	1.97262382507	None	None	None	None	1
3.0.1	2019_Mar_06_1110	s	s	9	2	Capacity	74	ABS	0	0	1	1	24_1_1	NA	NA	0	1	2.16341900826	None	None	None	None	1
3.0.1	2019_Mar_06_1110	s	s	9	2	Capacity	75	ABS	0	0	1	1	24_1_1	NA	NA	0	1	1.80381894112	None	None	None	None	1
3.0.1	2019_Mar_06_1110	s	s	9	2	Capacity	76	2_1	2	1	1	1	23_1_1	-1	0	1	0	4.45668792725	-272.0	-166.0	-270.0	-168.0	1
3.0.1	2019_Mar_06_1110	s	s	9	2	Capacity	77	ABS	0	0	2	1	24_2_1	NA	NA	0	1	2.03903484344	None	None	None	None	1
3.0.1	2019_Mar_06_1110	s	s	9	2	Capacity	78	ABS	0	0	3	1	24_3_1	NA	NA	0	1	1.04895877838	None	None	None	None	1
3.0.1	2019_Mar_06_1110	s	s	9	2	Capacity	79	ABS	0	0	3	1	24_3_1	NA	NA	0	1	0.693205118179	None	None	None	None	1
3.0.1	2019_Mar_06_1110	s	s	9	2	Capacity	80	ABS	0	0	1	1	24_1_1	NA	NA	0	1	1.82229995728	None	None	None	None	1
3.0.1	2019_Mar_06_1110	s	s	9	2	Capacity	81	ABS	0	0	3	1	24_3_1	NA	NA	0	1	1.36897206306	None	None	None	None	1
3.0.1	2019_Mar_06_1110	s	s	9	2	Capacity	82	3_1	3	1	2	1	23_2_1	1	0	1	0	0.940229177475	246.0	-364.0	246.0	-364.0	1
3.0.1	2019_Mar_06_1110	s	s	9	2	Capacity	83	4_1	4	1	2	1	23_2_1	2	0	1	0	0.555006027222	483.0	-10.0	484.0	-19.0	1
3.0.1	2019_Mar_06_1110	s	s	9	2	Capacity	84	2_1	2	1	3	1	23_3_1	1	0	1	0	0.722280025482	-457.0	-240.0	-451.0	-241.0	1
3.0.1	2019_Mar_06_1110	s	s	9	2	Capacity	85	3_1	3	1	4	1	23_4_1	-1	0	1	0	0.662858009338	91.0	35.0	91.0	27.0	1
3.0.1	2019_Mar_06_1110	s	s	9	2	Capacity	86	1_1	1	1	3	1	23_3_1	2	0	1	0	0.591840982437	422.0	-40.0	424.0	-48.0	1
3.0.1	2019_Mar_06_1110	s	s	9	2	Capacity	87	4_1	4	1	3	1	23_3_1	1	0	1	0	0.446271181107	-438.0	-1.0	-439.0	-6.0	1
3.0.1	2019_Mar_06_1110	s	s	9	2	Capacity	88	1_1	1	1	2	1	23_2_1	1	0	1	0	1.11107087135	88.0	-159.0	83.0	-163.0	1
3.0.1	2019_Mar_06_1110	s	s	9	2	Capacity	89	ABS	0	0	4	1	24_4_1	NA	NA	0	1	1.22254300117	None	None	None	None	1
3.0.1	2019_Mar_06_1110	s	s	9	2	Capacity	90	ABS	0	0	4	1	24_4_1	NA	NA	0	1	1.26969099045	None	None	None	None	1
3.0.1	2019_Mar_06_1110	s	s	9	2	Capacity	91	ABS	0	0	4	1	24_4_1	NA	NA	0	1	1.77527093887	None	None	None	None	1
3.0.1	2019_Mar_06_1110	s	s	9	2	Capacity	92	4_1	4	1	1	1	23_1_1	3	0	1	0	0.570055961609	117.0	92.0	111.0	95.0	1
3.0.1	2019_Mar_06_1110	s	s	9	2	Capacity	93	ABS	0	0	2	1	24_2_1	NA	NA	0	1	2.92779302597	None	None	None	None	1
3.0.1	2019_Mar_06_1110	s	s	9	2	Capacity	94	1_1	1	1	4	1	23_4_1	3	0	1	0	0.677813053131	-254.0	-20.0	-263.0	-22.0	1
3.0.1	2019_Mar_06_1110	s	s	9	2	Capacity	95	2_1	2	1	4	1	23_4_1	2	0	1	0	0.554996967316	56.0	-228.0	61.0	-237.0	1
3.0.1	2019_Mar_06_1110	s	s	9	2	Capacity	96	3_1	3	1	1	1	23_1_1	2	0	1	0	0.613795995712	-1.0	-136.0	-1.0	-140.0	1
3.0.1	2019_Mar_06_1110	s	s	9	2	SIC	1	4_3	4	3	1	1	23_1_1	3	2	1	0	0.560545921326	-216.0	-5.0	-213.0	-7.0	1
3.0.1	2019_Mar_06_1110	s	s	9	2	SIC	2	ABS	0	0	4	4	24_4_4	NA	NA	0	1	1.75173616409	None	None	None	None	1
3.0.1	2019_Mar_06_1110	s	s	9	2	SIC	3	2_3	2	3	4	2	23_4_2	2	1	1	0	0.54557299614	402.0	-106.0	402.0	-104.0	1
3.0.1	2019_Mar_06_1110	s	s	9	2	SIC	4	2_4	2	4	2	1	23_2_1	0	3	1	0	0.657946109772	16.0	360.0	10.0	355.0	1
3.0.1	2019_Mar_06_1110	s	s	9	2	SIC	5	2_2	2	2	4	1	23_4_1	2	-1	1	0	0.415872097015	-327.0	-87.0	-332.0	-85.0	1
3.0.1	2019_Mar_06_1110	s	s	9	2	SIC	6	2_1	2	1	4	4	23_4_4	2	3	1	0	0.411443948746	-169.0	113.0	-173.0	114.0	1
3.0.1	2019_Mar_06_1110	s	s	9	2	SIC	7	3_4	3	4	4	4	23_4_4	-1	0	1	0	0.446240901947	373.0	-112.0	371.0	-110.0	1
3.0.1	2019_Mar_06_1110	s	s	9	2	SIC	8	ABS	0	0	2	1	24_2_1	NA	NA	0	1	2.33975696564	None	None	None	None	1
3.0.1	2019_Mar_06_1110	s	s	9	2	SIC	9	2_4	2	4	1	2	23_1_2	-1	2	1	0	0.735038042068	482.0	-40.0	487.0	-41.0	1
3.0.1	2019_Mar_06_1110	s	s	9	2	SIC	10	ABS	0	0	2	1	24_2_1	NA	NA	0	1	2.78960704803	None	None	None	None	1
3.0.1	2019_Mar_06_1110	s	s	9	2	SIC	11	1_1	1	1	3	2	23_3_2	2	1	1	0	0.511292934418	115.0	127.0	112.0	125.0	1
3.0.1	2019_Mar_06_1110	s	s	9	2	SIC	12	4_1	4	1	2	1	23_2_1	2	0	1	0	0.501625061035	8.0	343.0	3.0	340.0	1
3.0.1	2019_Mar_06_1110	s	s	9	2	SIC	13	1_3	1	3	1	1	23_1_1	0	2	1	0	2.3843100071	-353.0	-369.0	-357.0	-368.0	1
3.0.1	2019_Mar_06_1110	s	s	9	2	SIC	14	4_4	4	4	4	3	23_4_3	0	1	1	0	0.855752944946	218.0	-331.0	220.0	-330.0	1
3.0.1	2019_Mar_06_1110	s	s	9	2	SIC	15	3_3	3	3	1	4	23_1_4	2	-1	1	0	0.575590133667	207.0	-385.0	209.0	-384.0	1
3.0.1	2019_Mar_06_1110	s	s	9	2	SIC	16	3_1	3	1	4	2	23_4_2	-1	1	1	0	0.545720100403	274.0	129.0	272.0	120.0	1
3.0.1	2019_Mar_06_1110	s	s	9	2	SIC	17	2_3	2	3	3	1	23_3_1	1	2	1	0	0.886039018631	489.0	408.0	485.0	398.0	1
3.0.1	2019_Mar_06_1110	s	s	9	2	SIC	18	1_1	1	1	2	2	23_2_2	1	1	1	0	1.09311890602	-20.0	105.0	-16.0	107.0	1
3.0.1	2019_Mar_06_1110	s	s	9	2	SIC	19	ABS	0	0	2	1	24_2_1	NA	NA	0	1	4.08334088326	None	None	None	None	1
3.0.1	2019_Mar_06_1110	s	s	9	2	SIC	20	4_4	4	4	1	2	23_1_2	3	2	1	0	0.622653007507	376.0	-194.0	385.0	-197.0	1
3.0.1	2019_Mar_06_1110	s	s	9	2	SIC	21	2_4	2	4	4	4	23_4_4	2	0	1	0	0.698173999786	251.0	294.0	251.0	288.0	1
3.0.1	2019_Mar_06_1110	s	s	9	2	SIC	22	ABS	0	0	1	3	24_1_3	NA	NA	0	1	3.23358798027	None	None	None	None	1
3.0.1	2019_Mar_06_1110	s	s	9	2	SIC	23	3_4	3	4	3	1	23_3_1	0	3	1	0	0.723294973373	535.0	324.0	533.0	325.0	1
3.0.1	2019_Mar_06_1110	s	s	9	2	SIC	24	ABS	0	0	4	2	24_4_2	NA	NA	0	1	3.0167620182	None	None	None	None	1
3.0.1	2019_Mar_06_1110	s	s	9	2	SIC	25	4_2	4	2	2	2	23_2_2	2	0	1	0	0.663176059723	429.0	355.0	431.0	351.0	1
3.0.1	2019_Mar_06_1110	s	s	9	2	SIC	26	3_4	3	4	4	3	23_4_3	-1	1	1	0	0.622725009918	409.0	89.0	406.0	76.0	1
3.0.1	2019_Mar_06_1110	s	s	9	2	SIC	27	ABS	0	0	3	1	24_3_1	NA	NA	0	1	2.24572205544	None	None	None	None	1
3.0.1	2019_Mar_06_1110	s	s	9	2	SIC	28	ABS	0	0	4	1	24_4_1	NA	NA	0	1	2.61771011353	None	None	None	None	1
3.0.1	2019_Mar_06_1110	s	s	9	2	SIC	29	ABS	0	0	4	3	24_4_3	NA	NA	0	1	2.62202811241	None	None	None	None	1
3.0.1	2019_Mar_06_1110	s	s	9	2	SIC	30	ABS	0	0	1	2	24_1_2	NA	NA	0	1	3.27385401726	None	None	None	None	1
3.0.1	2019_Mar_06_1110	s	s	9	2	SIC	31	4_1	4	1	3	4	23_3_4	1	3	1	0	0.618150949478	245.0	268.0	246.0	266.0	1
3.0.1	2019_Mar_06_1110	s	s	9	2	SIC	32	ABS	0	0	3	2	24_3_2	NA	NA	0	1	2.88479018211	None	None	None	None	1
3.0.1	2019_Mar_06_1110	s	s	9	2	SIC	33	1_2	1	2	3	4	23_3_4	2	2	1	0	0.94028711319	12.0	-346.0	14.0	-348.0	1
3.0.1	2019_Mar_06_1110	s	s	9	2	SIC	34	2_1	2	1	2	2	23_2_2	0	1	1	0	3.90135598183	-510.0	-177.0	-508.0	-183.0	1
3.0.1	2019_Mar_06_1110	s	s	9	2	SIC	35	3_4	3	4	2	1	23_2_1	1	3	1	0	0.881314992905	-4.0	105.0	0.0	105.0	1
3.0.1	2019_Mar_06_1110	s	s	9	2	SIC	36	2_1	2	1	1	1	23_1_1	-1	0	0	1	2.42215585709	199.0	89.0	None	None	0
3.0.1	2019_Mar_06_1110	s	s	9	2	SIC	37	ABS	0	0	4	3	24_4_3	NA	NA	0	1	2.70442986488	None	None	None	None	1
3.0.1	2019_Mar_06_1110	s	s	9	2	SIC	38	ABS	0	0	4	3	24_4_3	NA	NA	0	1	2.25792598724	None	None	None	None	1
3.0.1	2019_Mar_06_1110	s	s	9	2	SIC	39	2_1	2	1	3	4	23_3_4	1	3	1	0	0.658054113388	-369.0	-23.0	-367.0	-21.0	1
3.0.1	2019_Mar_06_1110	s	s	9	2	SIC	40	3_1	3	1	2	1	23_2_1	1	0	1	0	0.757199048996	309.0	-104.0	305.0	-102.0	1
3.0.1	2019_Mar_06_1110	s	s	9	2	SIC	41	ABS	0	0	4	2	24_4_2	NA	NA	0	1	3.62176418304	None	None	None	None	1
3.0.1	2019_Mar_06_1110	s	s	9	2	SIC	42	1_2	1	2	2	4	23_2_4	1	2	1	0	0.857943058014	202.0	-281.0	203.0	-284.0	1
3.0.1	2019_Mar_06_1110	s	s	9	2	SIC	43	2_4	2	4	4	1	23_4_1	2	3	1	0	0.546167850494	-234.0	207.0	-239.0	203.0	1
3.0.1	2019_Mar_06_1110	s	s	9	2	SIC	44	ABS	0	0	3	2	24_3_2	NA	NA	0	1	3.25088191032	None	None	None	None	1
3.0.1	2019_Mar_06_1110	s	s	9	2	SIC	45	4_1	4	1	4	4	23_4_4	0	3	1	0	0.587368965149	134.0	-249.0	138.0	-247.0	1
3.0.1	2019_Mar_06_1110	s	s	9	2	SIC	46	ABS	0	0	2	3	24_2_3	NA	NA	0	1	2.78148007393	None	None	None	None	1
3.0.1	2019_Mar_06_1110	s	s	9	2	SIC	47	4_2	4	2	3	2	23_3_2	1	0	1	0	0.534393787384	-196.0	-219.0	-197.0	-217.0	1
3.0.1	2019_Mar_06_1110	s	s	9	2	SIC	48	2_2	2	2	1	1	23_1_1	-1	-1	1	0	1.95752811432	524.0	78.0	532.0	78.0	1
3.0.1	2019_Mar_06_1110	s	s	9	2	SIC	49	ABS	0	0	3	2	24_3_2	NA	NA	0	1	3.35120177269	None	None	None	None	1
3.0.1	2019_Mar_06_1110	s	s	9	2	SIC	50	ABS	0	0	3	4	24_3_4	NA	NA	0	1	1.23931598663	None	None	None	None	1
3.0.1	2019_Mar_06_1110	s	s	9	2	SIC	51	ABS	0	0	4	4	24_4_4	NA	NA	0	1	0.896847009659	None	None	None	None	1
3.0.1	2019_Mar_06_1110	s	s	9	2	SIC	52	4_3	4	3	1	3	23_1_3	3	0	1	0	0.673578977585	-191.0	-330.0	-191.0	-332.0	1
3.0.1	2019_Mar_06_1110	s	s	9	2	SIC	53	ABS	0	0	1	2	24_1_2	NA	NA	0	1	3.39113688469	None	None	None	None	1
3.0.1	2019_Mar_06_1110	s	s	9	2	SIC	54	ABS	0	0	4	4	24_4_4	NA	NA	0	1	1.87496399879	None	None	None	None	1
3.0.1	2019_Mar_06_1110	s	s	9	2	SIC	55	ABS	0	0	1	2	24_1_2	NA	NA	0	1	2.98667097092	None	None	None	None	1
3.0.1	2019_Mar_06_1110	s	s	9	2	SIC	56	ABS	0	0	4	2	24_4_2	NA	NA	0	1	3.10425496101	None	None	None	None	1
3.0.1	2019_Mar_06_1110	s	s	9	2	SIC	57	4_4	4	4	3	1	23_3_1	1	3	1	0	0.619130849838	490.0	-62.0	485.0	-64.0	1
3.0.1	2019_Mar_06_1110	s	s	9	2	SIC	58	4_3	4	3	3	2	23_3_2	1	1	1	0	0.603926897049	-209.0	-392.0	-207.0	-395.0	1
3.0.1	2019_Mar_06_1110	s	s	9	2	SIC	59	ABS	0	0	2	1	24_2_1	NA	NA	0	1	3.85086607933	None	None	None	None	1
3.0.1	2019_Mar_06_1110	s	s	9	2	SIC	60	1_1	1	1	2	4	23_2_4	1	3	1	0	0.898339986801	402.0	402.0	397.0	408.0	1
3.0.1	2019_Mar_06_1110	s	s	9	2	SIC	61	2_1	2	1	3	1	23_3_1	1	0	1	0	0.637315034866	-349.0	-216.0	-354.0	-224.0	1
3.0.1	2019_Mar_06_1110	s	s	9	2	SIC	62	4_2	4	2	2	3	23_2_3	2	1	1	0	0.458055973053	-271.0	85.0	-270.0	83.0	1
3.0.1	2019_Mar_06_1110	s	s	9	2	SIC	63	ABS	0	0	4	3	24_4_3	NA	NA	0	1	2.96707892418	None	None	None	None	1
3.0.1	2019_Mar_06_1110	s	s	9	2	SIC	64	ABS	0	0	4	4	24_4_4	NA	NA	0	1	1.22545790672	None	None	None	None	1
3.0.1	2019_Mar_06_1110	s	s	9	2	SIC	65	3_2	3	2	4	2	23_4_2	-1	0	1	0	0.810860157013	-333.0	389.0	-333.0	393.0	1
3.0.1	2019_Mar_06_1110	s	s	9	2	SIC	66	ABS	0	0	2	1	24_2_1	NA	NA	0	1	2.8690559864	None	None	None	None	1
3.0.1	2019_Mar_06_1110	s	s	9	2	SIC	67	1_4	1	4	2	2	23_2_2	1	2	1	0	0.613867044449	137.0	28.0	139.0	25.0	1
3.0.1	2019_Mar_06_1110	s	s	9	2	SIC	68	ABS	0	0	1	1	24_1_1	NA	NA	0	1	2.546241045	None	None	None	None	1
3.0.1	2019_Mar_06_1110	s	s	9	2	SIC	69	ABS	0	0	4	4	24_4_4	NA	NA	0	1	1.14550900459	None	None	None	None	1
3.0.1	2019_Mar_06_1110	s	s	9	2	SIC	70	3_3	3	3	2	2	23_2_2	1	1	1	0	0.728519916534	57.0	-22.0	61.0	-32.0	1
3.0.1	2019_Mar_06_1110	s	s	9	2	SIC	71	ABS	0	0	1	2	24_1_2	NA	NA	0	1	3.5864610672	None	None	None	None	1
3.0.1	2019_Mar_06_1110	s	s	9	2	SIC	72	2_4	2	4	2	2	23_2_2	0	2	1	0	0.693211078644	287.0	-147.0	289.0	-150.0	1
3.0.1	2019_Mar_06_1110	s	s	9	2	SIC	73	4_1	4	1	2	2	23_2_2	2	1	1	0	0.545585870743	166.0	-108.0	164.0	-107.0	1
3.0.1	2019_Mar_06_1110	s	s	9	2	SIC	74	2_3	2	3	3	4	23_3_4	1	-1	1	0	0.963732004166	-432.0	226.0	-435.0	227.0	1
3.0.1	2019_Mar_06_1110	s	s	9	2	SIC	75	4_3	4	3	2	2	23_2_2	2	1	1	0	0.493320941925	-271.0	-157.0	-264.0	-160.0	1
3.0.1	2019_Mar_06_1110	s	s	9	2	SIC	76	2_4	2	4	4	2	23_4_2	2	2	1	0	0.493322134018	-256.0	368.0	-252.0	364.0	1
3.0.1	2019_Mar_06_1110	s	s	9	2	SIC	77	ABS	0	0	4	2	24_4_2	NA	NA	0	1	2.80357694626	None	None	None	None	1
3.0.1	2019_Mar_06_1110	s	s	9	2	SIC	78	4_2	4	2	3	1	23_3_1	1	-1	1	0	0.604111909866	-347.0	60.0	-343.0	54.0	1
3.0.1	2019_Mar_06_1110	s	s	9	2	SIC	79	2_1	2	1	2	4	23_2_4	0	3	1	0	0.614196062088	31.0	99.0	39.0	96.0	1
3.0.1	2019_Mar_06_1110	s	s	9	2	SIC	80	ABS	0	0	2	4	24_2_4	NA	NA	0	1	1.76346087456	None	None	None	None	1
3.0.1	2019_Mar_06_1110	s	s	9	2	SIC	81	2_4	2	4	2	3	23_2_3	0	1	1	0	1.12842607498	379.0	-405.0	379.0	-410.0	1
3.0.1	2019_Mar_06_1110	s	s	9	2	SIC	82	ABS	0	0	1	4	24_1_4	NA	NA	0	1	1.18729996681	None	None	None	None	1
3.0.1	2019_Mar_06_1110	s	s	9	2	SIC	83	ABS	0	0	1	4	24_1_4	NA	NA	0	1	1.23910498619	None	None	None	None	1
3.0.1	2019_Mar_06_1110	s	s	9	2	SIC	84	1_3	1	3	2	4	23_2_4	1	-1	1	0	1.54487204552	-77.0	-358.0	-82.0	-369.0	1
3.0.1	2019_Mar_06_1110	s	s	9	2	SIC	85	2_2	2	2	4	3	23_4_3	2	1	1	0	0.634392023087	201.0	-134.0	201.0	-134.0	1
3.0.1	2019_Mar_06_1110	s	s	9	2	SIC	86	2_2	2	2	3	3	23_3_3	1	1	1	0	0.79157781601	205.0	-269.0	204.0	-271.0	1
3.0.1	2019_Mar_06_1110	s	s	9	2	SIC	87	1_1	1	1	2	3	23_2_3	1	2	1	0	0.73140001297	491.0	239.0	491.0	242.0	1
3.0.1	2019_Mar_06_1110	s	s	9	2	SIC	88	ABS	0	0	3	3	24_3_3	NA	NA	0	1	2.21580791473	None	None	None	None	1
3.0.1	2019_Mar_06_1110	s	s	9	2	SIC	89	1_3	1	3	2	1	23_2_1	1	2	1	0	0.696898937225	-225.0	237.0	-223.0	230.0	1
3.0.1	2019_Mar_06_1110	s	s	9	2	SIC	90	ABS	0	0	2	3	24_2_3	NA	NA	0	1	2.78008913994	None	None	None	None	1
3.0.1	2019_Mar_06_1110	s	s	9	2	SIC	91	ABS	0	0	1	4	24_1_4	NA	NA	0	1	1.41065692902	None	None	None	None	1
3.0.1	2019_Mar_06_1110	s	s	9	2	SIC	92	ABS	0	0	4	1	24_4_1	NA	NA	0	1	2.08435606956	None	None	None	None	1
3.0.1	2019_Mar_06_1110	s	s	9	2	SIC	93	3_2	3	2	2	2	23_2_2	1	0	1	0	2.5162088871	140.0	-326.0	140.0	-329.0	1
3.0.1	2019_Mar_06_1110	s	s	9	2	SIC	94	ABS	0	0	3	3	24_3_3	NA	NA	0	1	2.61947107315	None	None	None	None	1
3.0.1	2019_Mar_06_1110	s	s	9	2	SIC	95	1_4	1	4	3	4	23_3_4	2	0	1	0	1.72042322159	90.0	-274.0	97.0	-272.0	1
3.0.1	2019_Mar_06_1110	s	s	9	2	SIC	96	4_4	4	4	4	1	23_4_1	0	3	1	0	0.849025011063	-460.0	396.0	-462.0	392.0	1
3.0.1	2019_Mar_06_1110	s	s	9	2	SIC	97	4_2	4	2	2	4	23_2_4	2	2	1	0	0.634415864944	-41.0	383.0	-42.0	381.0	1
3.0.1	2019_Mar_06_1110	s	s	9	2	SIC	98	1_4	1	4	1	2	23_1_2	0	2	1	0	1.0254368782	47.0	-225.0	43.0	-227.0	1
3.0.1	2019_Mar_06_1110	s	s	9	2	SIC	99	2_4	2	4	4	3	23_4_3	2	1	1	0	0.627411842346	92.0	-124.0	94.0	-122.0	1
3.0.1	2019_Mar_06_1110	s	s	9	2	SIC	100	ABS	0	0	4	1	24_4_1	NA	NA	0	1	2.08591294289	None	None	None	None	1
3.0.1	2019_Mar_06_1110	s	s	9	2	SIC	101	2_4	2	4	3	3	23_3_3	1	1	1	0	0.663150072098	45.0	195.0	40.0	193.0	1
3.0.1	2019_Mar_06_1110	s	s	9	2	SIC	102	2_2	2	2	1	4	23_1_4	-1	2	1	0	0.728556871414	219.0	101.0	227.0	104.0	1
3.0.1	2019_Mar_06_1110	s	s	9	2	SIC	103	ABS	0	0	2	4	24_2_4	NA	NA	0	1	1.70846414566	None	None	None	None	1
3.0.1	2019_Mar_06_1110	s	s	9	2	SIC	104	1_1	1	1	4	3	23_4_3	3	2	1	0	0.723262071609	31.0	299.0	34.0	304.0	1
3.0.1	2019_Mar_06_1110	s	s	9	2	SIC	105	ABS	0	0	2	3	24_2_3	NA	NA	0	1	3.26895403862	None	None	None	None	1
3.0.1	2019_Mar_06_1110	s	s	9	2	SIC	106	ABS	0	0	3	4	24_3_4	NA	NA	0	1	1.39254021645	None	None	None	None	1
3.0.1	2019_Mar_06_1110	s	s	9	2	SIC	107	3_1	3	1	1	2	23_1_2	2	1	1	0	0.740247964859	287.0	25.0	281.0	23.0	1
3.0.1	2019_Mar_06_1110	s	s	9	2	SIC	108	1_1	1	1	1	3	23_1_3	0	2	1	0	1.30479598045	-49.0	334.0	-49.0	335.0	1
3.0.1	2019_Mar_06_1110	s	s	9	2	SIC	109	4_3	4	3	1	2	23_1_2	3	1	1	0	0.563887119293	-412.0	257.0	-415.0	260.0	1
3.0.1	2019_Mar_06_1110	s	s	9	2	SIC	110	2_2	2	2	3	1	23_3_1	1	-1	1	0	0.634401082993	521.0	108.0	521.0	106.0	1
3.0.1	2019_Mar_06_1110	s	s	9	2	SIC	111	ABS	0	0	4	3	24_4_3	NA	NA	0	1	2.95142698288	None	None	None	None	1
3.0.1	2019_Mar_06_1110	s	s	9	2	SIC	112	ABS	0	0	1	3	24_1_3	NA	NA	0	1	3.96572995186	None	None	None	None	1
3.0.1	2019_Mar_06_1110	s	s	9	2	SIC	113	ABS	0	0	2	3	24_2_3	NA	NA	0	1	2.12818789482	None	None	None	None	1
3.0.1	2019_Mar_06_1110	s	s	9	2	SIC	114	2_2	2	2	4	4	23_4_4	2	2	1	0	0.705023050308	475.0	338.0	473.0	337.0	1
3.0.1	2019_Mar_06_1110	s	s	9	2	SIC	115	3_1	3	1	2	3	23_2_3	1	2	1	0	0.731843948364	-522.0	-26.0	-526.0	-30.0	1
3.0.1	2019_Mar_06_1110	s	s	9	2	SIC	116	ABS	0	0	3	3	24_3_3	NA	NA	0	1	2.527998209	None	None	None	None	1
3.0.1	2019_Mar_06_1110	s	s	9	2	SIC	117	ABS	0	0	4	1	24_4_1	NA	NA	0	1	1.48124599457	None	None	None	None	1
3.0.1	2019_Mar_06_1110	s	s	9	2	SIC	118	ABS	0	0	4	4	24_4_4	NA	NA	0	1	1.58705615997	None	None	None	None	1
3.0.1	2019_Mar_06_1110	s	s	9	2	SIC	119	4_4	4	4	3	4	23_3_4	1	0	1	0	0.780208110809	33.0	-144.0	35.0	-152.0	1
3.0.1	2019_Mar_06_1110	s	s	9	2	SIC	120	ABS	0	0	1	2	24_1_2	NA	NA	0	1	3.07538700104	None	None	None	None	1
3.0.1	2019_Mar_06_1110	s	s	9	2	SIC	121	4_4	4	4	4	2	23_4_2	0	2	1	0	1.10955119133	425.0	-354.0	430.0	-359.0	1
3.0.1	2019_Mar_06_1110	s	s	9	2	SIC	122	4_2	4	2	1	1	23_1_1	3	-1	1	0	0.839523077011	486.0	318.0	485.0	324.0	1
3.0.1	2019_Mar_06_1110	s	s	9	2	SIC	123	ABS	0	0	3	4	24_3_4	NA	NA	0	1	1.63946485519	None	None	None	None	1
3.0.1	2019_Mar_06_1110	s	s	9	2	SIC	124	ABS	0	0	4	2	24_4_2	NA	NA	0	1	2.25090003014	None	None	None	None	1
3.0.1	2019_Mar_06_1110	s	s	9	2	SIC	125	2_1	2	1	1	3	23_1_3	-1	2	1	0	0.968732833862	341.0	251.0	337.0	252.0	1
3.0.1	2019_Mar_06_1110	s	s	9	2	SIC	126	1_1	1	1	4	1	23_4_1	3	0	1	0	0.610862970352	122.0	378.0	124.0	375.0	1
3.0.1	2019_Mar_06_1110	s	s	9	2	SIC	127	4_4	4	4	1	3	23_1_3	3	1	1	0	0.599164962769	497.0	39.0	501.0	34.0	1
3.0.1	2019_Mar_06_1110	s	s	9	2	SIC	128	4_1	4	1	1	2	23_1_2	3	1	1	0	0.669728040695	-148.0	-84.0	-152.0	-88.0	1
3.0.1	2019_Mar_06_1110	s	s	9	2	SIC	129	4_2	4	2	4	1	23_4_1	0	-1	0	1	2.33972597122	-249.0	-204.0	None	None	0
3.0.1	2019_Mar_06_1110	s	s	9	2	SIC	130	ABS	0	0	1	4	24_1_4	NA	NA	0	1	1.55469584465	None	None	None	None	1
3.0.1	2019_Mar_06_1110	s	s	9	2	SIC	131	ABS	0	0	4	3	24_4_3	NA	NA	0	1	2.52790594101	None	None	None	None	1
3.0.1	2019_Mar_06_1110	s	s	9	2	SIC	132	1_1	1	1	2	1	23_2_1	1	0	1	0	1.24601411819	322.0	240.0	322.0	240.0	1
3.0.1	2019_Mar_06_1110	s	s	9	2	SIC	133	3_4	3	4	1	4	23_1_4	2	0	1	0	0.940187931061	243.0	323.0	246.0	321.0	1
3.0.1	2019_Mar_06_1110	s	s	9	2	SIC	134	1_4	1	4	3	2	23_3_2	2	2	1	0	0.57559800148	-27.0	184.0	-31.0	175.0	1
3.0.1	2019_Mar_06_1110	s	s	9	2	SIC	135	4_3	4	3	1	4	23_1_4	3	-1	1	0	0.663229942322	82.0	167.0	81.0	165.0	1
3.0.1	2019_Mar_06_1110	s	s	9	2	SIC	136	2_4	2	4	1	1	23_1_1	-1	3	1	0	0.815274000168	-525.0	-97.0	-528.0	-101.0	1
3.0.1	2019_Mar_06_1110	s	s	9	2	SIC	137	ABS	0	0	1	3	24_1_3	NA	NA	0	1	4.20682001114	None	None	None	None	1
3.0.1	2019_Mar_06_1110	s	s	9	2	SIC	138	3_2	3	2	2	3	23_2_3	1	1	1	0	0.944602966309	354.0	343.0	352.0	339.0	1
3.0.1	2019_Mar_06_1110	s	s	9	2	SIC	139	ABS	0	0	3	4	24_3_4	NA	NA	0	1	1.21081590652	None	None	None	None	1
3.0.1	2019_Mar_06_1110	s	s	9	2	SIC	140	ABS	0	0	2	2	24_2_2	NA	NA	0	1	3.77944207191	None	None	None	None	1
3.0.1	2019_Mar_06_1110	s	s	9	2	SIC	141	ABS	0	0	4	3	24_4_3	NA	NA	0	1	3.33951306343	None	None	None	None	1
3.0.1	2019_Mar_06_1110	s	s	9	2	SIC	142	1_3	1	3	3	2	23_3_2	2	1	1	0	0.9989798069	-492.0	337.0	-487.0	336.0	1
3.0.1	2019_Mar_06_1110	s	s	9	2	SIC	143	ABS	0	0	4	4	24_4_4	NA	NA	0	1	1.8341088295	None	None	None	None	1
3.0.1	2019_Mar_06_1110	s	s	9	2	SIC	144	ABS	0	0	3	2	24_3_2	NA	NA	0	1	2.57499408722	None	None	None	None	1
3.0.1	2019_Mar_06_1110	s	s	9	2	SIC	145	ABS	0	0	2	2	24_2_2	NA	NA	0	1	2.92788100243	None	None	None	None	1
3.0.1	2019_Mar_06_1110	s	s	9	2	SIC	146	ABS	0	0	3	3	24_3_3	NA	NA	0	1	2.18693590164	None	None	None	None	1
3.0.1	2019_Mar_06_1110	s	s	9	2	SIC	147	3_4	3	4	1	2	23_1_2	2	2	1	0	0.721760034561	158.0	324.0	162.0	313.0	1
3.0.1	2019_Mar_06_1110	s	s	9	2	SIC	148	3_3	3	3	3	2	23_3_2	0	1	0	1	2.73079586029	286.0	114.0	None	None	0
3.0.1	2019_Mar_06_1110	s	s	9	2	SIC	149	4_1	4	1	4	2	23_4_2	0	1	0	1	1.76636695862	466.0	-251.0	None	None	0
3.0.1	2019_Mar_06_1110	s	s	9	2	SIC	150	1_3	1	3	3	1	23_3_1	2	2	1	0	0.698415994644	-55.0	-223.0	-51.0	-225.0	1
3.0.1	2019_Mar_06_1110	s	s	9	2	SIC	151	ABS	0	0	1	3	24_1_3	NA	NA	0	1	2.75138902664	None	None	None	None	1
3.0.1	2019_Mar_06_1110	s	s	9	2	SIC	152	ABS	0	0	2	4	24_2_4	NA	NA	0	1	1.64598488808	None	None	None	None	1
3.0.1	2019_Mar_06_1110	s	s	9	2	SIC	153	1_2	1	2	1	3	23_1_3	0	1	1	0	2.368475914	347.0	17.0	351.0	12.0	1
3.0.1	2019_Mar_06_1110	s	s	9	2	SIC	154	ABS	0	0	2	2	24_2_2	NA	NA	0	1	5.00962400436	None	None	None	None	1
3.0.1	2019_Mar_06_1110	s	s	9	2	SIC	155	3_1	3	1	2	2	23_2_2	1	1	1	0	0.799020051956	-505.0	286.0	-503.0	286.0	1
3.0.1	2019_Mar_06_1110	s	s	9	2	SIC	156	ABS	0	0	4	3	24_4_3	NA	NA	0	1	2.88077402115	None	None	None	None	1
3.0.1	2019_Mar_06_1110	s	s	9	2	SIC	157	ABS	0	0	1	1	24_1_1	NA	NA	0	1	2.75026702881	None	None	None	None	1
3.0.1	2019_Mar_06_1110	s	s	9	2	SIC	158	ABS	0	0	4	2	24_4_2	NA	NA	0	1	4.58617091179	None	None	None	None	1
3.0.1	2019_Mar_06_1110	s	s	9	2	SIC	159	1_1	1	1	3	1	23_3_1	2	0	1	0	0.693629026413	-76.0	-116.0	-74.0	-110.0	1
3.0.1	2019_Mar_06_1110	s	s	9	2	SIC	160	ABS	0	0	3	4	24_3_4	NA	NA	0	1	1.32048201561	None	None	None	None	1
3.0.1	2019_Mar_06_1110	s	s	9	2	SIC	161	2_2	2	2	3	2	23_3_2	1	0	1	0	1.18721699715	-327.0	-406.0	-325.0	-408.0	1
3.0.1	2019_Mar_06_1110	s	s	9	2	SIC	162	ABS	0	0	2	3	24_2_3	NA	NA	0	1	3.86142206192	None	None	None	None	1
3.0.1	2019_Mar_06_1110	s	s	9	2	SIC	163	ABS	0	0	1	3	24_1_3	NA	NA	0	1	2.95140385628	None	None	None	None	1
3.0.1	2019_Mar_06_1110	s	s	9	2	SIC	164	ABS	0	0	3	1	24_3_1	NA	NA	0	1	2.3685669899	None	None	None	None	1
3.0.1	2019_Mar_06_1110	s	s	9	2	SIC	165	ABS	0	0	1	3	24_1_3	NA	NA	0	1	2.89775490761	None	None	None	None	1
3.0.1	2019_Mar_06_1110	s	s	9	2	SIC	166	ABS	0	0	4	3	24_4_3	NA	NA	0	1	1.69923901558	None	None	None	None	1
3.0.1	2019_Mar_06_1110	s	s	9	2	SIC	167	4_1	4	1	2	3	23_2_3	2	2	1	0	0.681470155716	-406.0	-196.0	-405.0	-195.0	1
3.0.1	2019_Mar_06_1110	s	s	9	2	SIC	168	2_4	2	4	1	3	23_1_3	-1	1	1	0	0.893231153488	-248.0	394.0	-246.0	393.0	1
3.0.1	2019_Mar_06_1110	s	s	9	2	SIC	169	2_3	2	3	1	1	23_1_1	-1	2	1	0	1.1166369915	-274.0	-73.0	-280.0	-76.0	1
3.0.1	2019_Mar_06_1110	s	s	9	2	SIC	170	2_4	2	4	3	2	23_3_2	1	2	1	0	0.705105066299	371.0	237.0	366.0	235.0	1
3.0.1	2019_Mar_06_1110	s	s	9	2	SIC	171	ABS	0	0	2	3	24_2_3	NA	NA	0	1	3.83876991272	None	None	None	None	1
3.0.1	2019_Mar_06_1110	s	s	9	2	SIC	172	ABS	0	0	1	1	24_1_1	NA	NA	0	1	1.99885296822	None	None	None	None	1
3.0.1	2019_Mar_06_1110	s	s	9	2	SIC	173	2_2	2	2	3	4	23_3_4	1	2	1	0	0.731399059296	30.0	192.0	30.0	195.0	1
3.0.1	2019_Mar_06_1110	s	s	9	2	SIC	174	3_4	3	4	2	4	23_2_4	1	0	1	0	1.26694297791	-423.0	13.0	-432.0	14.0	1
3.0.1	2019_Mar_06_1110	s	s	9	2	SIC	175	ABS	0	0	2	4	24_2_4	NA	NA	0	1	1.96731615067	None	None	None	None	1
3.0.1	2019_Mar_06_1110	s	s	9	2	SIC	176	3_3	3	3	4	3	23_4_3	-1	0	1	0	0.63435292244	-322.0	-172.0	-315.0	-173.0	1
3.0.1	2019_Mar_06_1110	s	s	9	2	SIC	177	ABS	0	0	3	3	24_3_3	NA	NA	0	1	2.70965695381	None	None	None	None	1
3.0.1	2019_Mar_06_1110	s	s	9	2	SIC	178	2_2	2	2	1	3	23_1_3	-1	1	1	0	1.45774292946	531.0	-91.0	530.0	-88.0	1
3.0.1	2019_Mar_06_1110	s	s	9	2	SIC	179	3_2	3	2	2	1	23_2_1	1	-1	1	0	0.987207174301	-156.0	-362.0	-151.0	-364.0	1
3.0.1	2019_Mar_06_1110	s	s	9	2	SIC	180	ABS	0	0	2	3	24_2_3	NA	NA	0	1	2.9439470768	None	None	None	None	1
3.0.1	2019_Mar_06_1110	s	s	9	2	SIC	181	ABS	0	0	4	3	24_4_3	NA	NA	0	1	3.16595697403	None	None	None	None	1
3.0.1	2019_Mar_06_1110	s	s	9	2	SIC	182	1_3	1	3	1	2	23_1_2	0	1	1	0	4.00232005119	-28.0	-94.0	-26.0	-88.0	1
3.0.1	2019_Mar_06_1110	s	s	9	2	SIC	183	ABS	0	0	4	2	24_4_2	NA	NA	0	1	3.64568185806	None	None	None	None	1
3.0.1	2019_Mar_06_1110	s	s	9	2	SIC	184	1_2	1	2	3	3	23_3_3	2	1	1	0	0.704963922501	-258.0	-165.0	-261.0	-164.0	1
3.0.1	2019_Mar_06_1110	s	s	9	2	SIC	185	2_2	2	2	2	4	23_2_4	0	2	1	0	0.681432008743	-408.0	20.0	-403.0	17.0	1
3.0.1	2019_Mar_06_1110	s	s	9	2	SIC	186	ABS	0	0	2	3	24_2_3	NA	NA	0	1	3.88048100471	None	None	None	None	1
3.0.1	2019_Mar_06_1110	s	s	9	2	SIC	187	3_1	3	1	4	1	23_4_1	-1	0	1	0	0.705013990402	74.0	322.0	70.0	329.0	1
3.0.1	2019_Mar_06_1110	s	s	9	2	SIC	188	4_1	4	1	1	3	23_1_3	3	2	1	0	0.554955005646	-288.0	-213.0	-285.0	-214.0	1
3.0.1	2019_Mar_06_1110	s	s	9	2	SIC	189	ABS	0	0	4	2	24_4_2	NA	NA	0	1	3.86872291565	None	None	None	None	1
3.0.1	2019_Mar_06_1110	s	s	9	2	SIC	190	1_4	1	4	4	2	23_4_2	3	2	1	0	0.575674057007	205.0	78.0	198.0	78.0	1
3.0.1	2019_Mar_06_1110	s	s	9	2	SIC	191	ABS	0	0	3	1	24_3_1	NA	NA	0	1	2.60513496399	None	None	None	None	1
3.0.1	2019_Mar_06_1110	s	s	9	2	SIC	192	1_2	1	2	4	4	23_4_4	3	2	1	0	0.599175930023	88.0	-86.0	88.0	-89.0	1
3.0.1	2019_Mar_06_1110	s	s	9	2	SIC	193	2_3	2	3	4	4	23_4_4	2	-1	1	0	0.619350910187	-423.0	-398.0	-417.0	-399.0	1
3.0.1	2019_Mar_06_1110	s	s	9	2	SIC	194	ABS	0	0	2	4	24_2_4	NA	NA	0	1	1.9331908226	None	None	None	None	1
3.0.1	2019_Mar_06_1110	s	s	9	2	SIC	195	ABS	0	0	1	2	24_1_2	NA	NA	0	1	5.50370502472	None	None	None	None	1
3.0.1	2019_Mar_06_1110	s	s	9	2	SIC	196	2_4	2	4	1	4	23_1_4	-1	0	0	1	1.82744193077	-135.0	-279.0	None	None	0
3.0.1	2019_Mar_06_1110	s	s	9	2	SIC	197	3_2	3	2	3	4	23_3_4	0	2	1	0	0.719777822495	-157.0	308.0	-153.0	313.0	1
3.0.1	2019_Mar_06_1110	s	s	9	2	SIC	198	1_4	1	4	3	3	23_3_3	2	1	1	0	0.6863758564	25.0	305.0	29.0	300.0	1
3.0.1	2019_Mar_06_1110	s	s	9	2	SIC	199	ABS	0	0	1	3	24_1_3	NA	NA	0	1	3.09119796753	None	None	None	None	1
3.0.1	2019_Mar_06_1110	s	s	9	2	SIC	200	3_1	3	1	3	3	23_3_3	0	2	1	0	0.881719827652	-345.0	397.0	-339.0	395.0	1
3.0.1	2019_Mar_06_1110	s	s	9	2	SIC	201	ABS	0	0	1	1	24_1_1	NA	NA	0	1	1.84067106247	None	None	None	None	1
3.0.1	2019_Mar_06_1110	s	s	9	2	SIC	202	ABS	0	0	1	1	24_1_1	NA	NA	0	1	2.39214491844	None	None	None	None	1
3.0.1	2019_Mar_06_1110	s	s	9	2	SIC	203	4_3	4	3	4	1	23_4_1	0	2	1	0	1.11664199829	356.0	329.0	363.0	330.0	1
3.0.1	2019_Mar_06_1110	s	s	9	2	SIC	204	ABS	0	0	1	3	24_1_3	NA	NA	0	1	2.88084816933	None	None	None	None	1
3.0.1	2019_Mar_06_1110	s	s	9	2	SIC	205	ABS	0	0	1	4	24_1_4	NA	NA	0	1	1.36829805374	None	None	None	None	1
3.0.1	2019_Mar_06_1110	s	s	9	2	SIC	206	4_2	4	2	1	2	23_1_2	3	0	1	0	0.698570013046	-230.0	388.0	-227.0	391.0	1
3.0.1	2019_Mar_06_1110	s	s	9	2	SIC	207	ABS	0	0	4	1	24_4_1	NA	NA	0	1	2.11635088921	None	None	None	None	1
3.0.1	2019_Mar_06_1110	s	s	9	2	SIC	208	ABS	0	0	4	1	24_4_1	NA	NA	0	1	2.04577207565	None	None	None	None	1
3.0.1	2019_Mar_06_1110	s	s	9	2	SIC	209	ABS	0	0	3	1	24_3_1	NA	NA	0	1	2.04601597786	None	None	None	None	1
3.0.1	2019_Mar_06_1110	s	s	9	2	SIC	210	ABS	0	0	2	4	24_2_4	NA	NA	0	1	1.3518538475	None	None	None	None	1
3.0.1	2019_Mar_06_1110	s	s	9	2	SIC	211	ABS	0	0	4	2	24_4_2	NA	NA	0	1	2.91937398911	None	None	None	None	1
3.0.1	2019_Mar_06_1110	s	s	9	2	SIC	212	ABS	0	0	3	3	24_3_3	NA	NA	0	1	2.64557385445	None	None	None	None	1
3.0.1	2019_Mar_06_1110	s	s	9	2	SIC	213	ABS	0	0	3	4	24_3_4	NA	NA	0	1	1.19178509712	None	None	None	None	1
3.0.1	2019_Mar_06_1110	s	s	9	2	SIC	214	3_3	3	3	4	1	23_4_1	-1	2	1	0	1.35619211197	418.0	-411.0	419.0	-404.0	1
3.0.1	2019_Mar_06_1110	s	s	9	2	SIC	215	2_2	2	2	2	3	23_2_3	0	1	1	0	1.72290802002	-362.0	215.0	-362.0	210.0	1
3.0.1	2019_Mar_06_1110	s	s	9	2	SIC	216	ABS	0	0	1	1	24_1_1	NA	NA	0	1	2.13443803787	None	None	None	None	1
3.0.1	2019_Mar_06_1110	s	s	9	2	SIC	217	ABS	0	0	2	1	24_2_1	NA	NA	0	1	2.29282402992	None	None	None	None	1
3.0.1	2019_Mar_06_1110	s	s	9	2	SIC	218	4_3	4	3	2	3	23_2_3	2	0	1	0	0.592232942581	491.0	55.0	498.0	55.0	1
3.0.1	2019_Mar_06_1110	s	s	9	2	SIC	219	ABS	0	0	2	1	24_2_1	NA	NA	0	1	2.18692517281	None	None	None	None	1
3.0.1	2019_Mar_06_1110	s	s	9	2	SIC	220	ABS	0	0	3	4	24_3_4	NA	NA	0	1	0.849107027054	None	None	None	None	1
3.0.1	2019_Mar_06_1110	s	s	9	2	SIC	221	ABS	0	0	1	2	24_1_2	NA	NA	0	1	2.75142002106	None	None	None	None	1
3.0.1	2019_Mar_06_1110	s	s	9	2	SIC	222	ABS	0	0	4	1	24_4_1	NA	NA	0	1	0.928460121155	None	None	None	None	1
3.0.1	2019_Mar_06_1110	s	s	9	2	SIC	223	3_2	3	2	2	4	23_2_4	1	2	1	0	0.899834871292	-491.0	-385.0	-502.0	-385.0	1
3.0.1	2019_Mar_06_1110	s	s	9	2	SIC	224	ABS	0	0	3	4	24_3_4	NA	NA	0	1	1.43416190147	None	None	None	None	1
3.0.1	2019_Mar_06_1110	s	s	9	2	SIC	225	4_4	4	4	2	2	23_2_2	2	2	1	0	0.811127185822	414.0	-409.0	419.0	-411.0	1
3.0.1	2019_Mar_06_1110	s	s	9	2	SIC	226	4_3	4	3	3	4	23_3_4	1	-1	1	0	0.543287038803	342.0	-209.0	337.0	-208.0	1
3.0.1	2019_Mar_06_1110	s	s	9	2	SIC	227	4_4	4	4	3	3	23_3_3	1	1	1	0	0.486382007599	-264.0	44.0	-264.0	43.0	1
3.0.1	2019_Mar_06_1110	s	s	9	2	SIC	228	2_3	2	3	3	2	23_3_2	1	1	1	0	0.716757059097	-396.0	-357.0	-399.0	-361.0	1
3.0.1	2019_Mar_06_1110	s	s	9	2	SIC	229	1_1	1	1	3	3	23_3_3	2	2	1	0	0.533310890198	382.0	-116.0	378.0	-123.0	1
3.0.1	2019_Mar_06_1110	s	s	9	2	SIC	230	ABS	0	0	1	2	24_1_2	NA	NA	0	1	4.42148399353	None	None	None	None	1
3.0.1	2019_Mar_06_1110	s	s	9	2	SIC	231	ABS	0	0	4	2	24_4_2	NA	NA	0	1	2.59856104851	None	None	None	None	1
3.0.1	2019_Mar_06_1110	s	s	9	2	SIC	232	ABS	0	0	1	2	24_1_2	NA	NA	0	1	3.10881209373	None	None	None	None	1
3.0.1	2019_Mar_06_1110	s	s	9	2	SIC	233	ABS	0	0	4	2	24_4_2	NA	NA	0	1	3.03372788429	None	None	None	None	1
3.0.1	2019_Mar_06_1110	s	s	9	2	SIC	234	ABS	0	0	4	1	24_4_1	NA	NA	0	1	2.63380789757	None	None	None	None	1
3.0.1	2019_Mar_06_1110	s	s	9	2	SIC	235	4_1	4	1	2	4	23_2_4	2	3	1	0	0.834366083145	37.0	-347.0	36.0	-346.0	1
3.0.1	2019_Mar_06_1110	s	s	9	2	SIC	236	1_3	1	3	3	4	23_3_4	2	-1	1	0	0.716799974442	2.0	-47.0	1.0	-53.0	1
3.0.1	2019_Mar_06_1110	s	s	9	2	SIC	237	1_4	1	4	1	3	23_1_3	0	1	1	0	0.837195158005	-22.0	346.0	-20.0	347.0	1
3.0.1	2019_Mar_06_1110	s	s	9	2	SIC	238	ABS	0	0	1	1	24_1_1	NA	NA	0	1	1.64081597328	None	None	None	None	1
3.0.1	2019_Mar_06_1110	s	s	9	2	SIC	239	ABS	0	0	2	4	24_2_4	NA	NA	0	1	1.30966210365	None	None	None	None	1
3.0.1	2019_Mar_06_1110	s	s	9	2	SIC	240	ABS	0	0	2	1	24_2_1	NA	NA	0	1	1.42758488655	None	None	None	None	1
3.0.1	2019_Mar_06_1110	s	s	9	2	SIC	241	4_4	4	4	1	1	23_1_1	3	3	1	0	0.501725912094	-203.0	-267.0	-203.0	-276.0	1
3.0.1	2019_Mar_06_1110	s	s	9	2	SIC	242	ABS	0	0	3	4	24_3_4	NA	NA	0	1	1.32561802864	None	None	None	None	1
3.0.1	2019_Mar_06_1110	s	s	9	2	SIC	243	ABS	0	0	2	1	24_2_1	NA	NA	0	1	1.49590992928	None	None	None	None	1
3.0.1	2019_Mar_06_1110	s	s	9	2	SIC	244	ABS	0	0	4	3	24_4_3	NA	NA	0	1	2.14853787422	None	None	None	None	1
3.0.1	2019_Mar_06_1110	s	s	9	2	SIC	245	ABS	0	0	1	2	24_1_2	NA	NA	0	1	2.17510890961	None	None	None	None	1
3.0.1	2019_Mar_06_1110	s	s	9	2	SIC	246	ABS	0	0	4	4	24_4_4	NA	NA	0	1	1.70469594002	None	None	None	None	1
3.0.1	2019_Mar_06_1110	s	s	9	2	SIC	247	4_2	4	2	4	3	23_4_3	0	1	1	0	1.29794478416	360.0	217.0	352.0	217.0	1
3.0.1	2019_Mar_06_1110	s	s	9	2	SIC	248	ABS	0	0	3	1	24_3_1	NA	NA	0	1	2.36839103699	None	None	None	None	1
3.0.1	2019_Mar_06_1110	s	s	9	2	SIC	249	3_3	3	3	1	1	23_1_1	2	2	1	0	0.651340961456	185.0	-141.0	184.0	-144.0	1
3.0.1	2019_Mar_06_1110	s	s	9	2	SIC	250	ABS	0	0	3	3	24_3_3	NA	NA	0	1	2.01681399345	None	None	None	None	1
3.0.1	2019_Mar_06_1110	s	s	9	2	SIC	251	1_4	1	4	2	4	23_2_4	1	0	0	1	1.52191996574	48.0	-267.0	None	None	0
3.0.1	2019_Mar_06_1110	s	s	9	2	SIC	252	ABS	0	0	3	3	24_3_3	NA	NA	0	1	2.91651391983	None	None	None	None	1
3.0.1	2019_Mar_06_1110	s	s	9	2	SIC	253	3_2	3	2	3	1	23_3_1	0	-1	1	0	1.65102314949	318.0	247.0	317.0	247.0	1
3.0.1	2019_Mar_06_1110	s	s	9	2	SIC	254	ABS	0	0	3	3	24_3_3	NA	NA	0	1	3.72245001793	None	None	None	None	1
3.0.1	2019_Mar_06_1110	s	s	9	2	SIC	255	ABS	0	0	2	1	24_2_1	NA	NA	0	1	2.71619606018	None	None	None	None	1
3.0.1	2019_Mar_06_1110	s	s	9	2	SIC	256	ABS	0	0	3	1	24_3_1	NA	NA	0	1	3.53283405304	None	None	None	None	1
3.0.1	2019_Mar_06_1110	s	s	9	2	SIC	257	ABS	0	0	2	2	24_2_2	NA	NA	0	1	4.36277008057	None	None	None	None	1
3.0.1	2019_Mar_06_1110	s	s	9	2	SIC	258	ABS	0	0	3	4	24_3_4	NA	NA	0	1	1.46938610077	None	None	None	None	1
3.0.1	2019_Mar_06_1110	s	s	9	2	SIC	259	ABS	0	0	1	2	24_1_2	NA	NA	0	1	3.48546290398	None	None	None	None	1
3.0.1	2019_Mar_06_1110	s	s	9	2	SIC	260	ABS	0	0	4	1	24_4_1	NA	NA	0	1	3.37138080597	None	None	None	None	1
3.0.1	2019_Mar_06_1110	s	s	9	2	SIC	261	ABS	0	0	3	1	24_3_1	NA	NA	0	1	2.77500700951	None	None	None	None	1
3.0.1	2019_Mar_06_1110	s	s	9	2	SIC	262	ABS	0	0	3	2	24_3_2	NA	NA	0	1	3.87342309952	None	None	None	None	1
3.0.1	2019_Mar_06_1110	s	s	9	2	SIC	263	ABS	0	0	4	2	24_4_2	NA	NA	0	1	3.42183804512	None	None	None	None	1
3.0.1	2019_Mar_06_1110	s	s	9	2	SIC	264	ABS	0	0	3	1	24_3_1	NA	NA	0	1	2.88077998161	None	None	None	None	1
3.0.1	2019_Mar_06_1110	s	s	9	2	SIC	265	1_2	1	2	2	2	23_2_2	1	0	1	0	6.82562708855	-276.0	-151.0	-277.0	-153.0	1
3.0.1	2019_Mar_06_1110	s	s	9	2	SIC	266	2_1	2	1	3	3	23_3_3	1	2	1	0	1.69306492805	-419.0	-159.0	-424.0	-158.0	1
3.0.1	2019_Mar_06_1110	s	s	9	2	SIC	267	ABS	0	0	2	4	24_2_4	NA	NA	0	1	2.84557390213	None	None	None	None	1
3.0.1	2019_Mar_06_1110	s	s	9	2	SIC	268	ABS	0	0	4	3	24_4_3	NA	NA	0	1	2.78955101967	None	None	None	None	1
3.0.1	2019_Mar_06_1110	s	s	9	2	SIC	269	ABS	0	0	3	1	24_3_1	NA	NA	0	1	2.01628184319	None	None	None	None	1
3.0.1	2019_Mar_06_1110	s	s	9	2	SIC	270	2_4	2	4	3	4	23_3_4	1	0	1	0	1.01093482971	-129.0	257.0	-129.0	255.0	1
3.0.1	2019_Mar_06_1110	s	s	9	2	SIC	271	1_3	1	3	2	2	23_2_2	1	1	1	0	0.677154064178	-46.0	113.0	-37.0	110.0	1
3.0.1	2019_Mar_06_1110	s	s	9	2	SIC	272	1_4	1	4	1	1	23_1_1	0	3	1	0	0.528485059738	90.0	18.0	88.0	23.0	1
3.0.1	2019_Mar_06_1110	s	s	9	2	SIC	273	1_4	1	4	3	1	23_3_1	2	3	1	0	0.605973005295	-79.0	-292.0	-87.0	-292.0	1
3.0.1	2019_Mar_06_1110	s	s	9	2	SIC	274	2_1	2	1	4	3	23_4_3	2	2	1	0	0.540437936783	398.0	119.0	397.0	110.0	1
3.0.1	2019_Mar_06_1110	s	s	9	2	SIC	275	ABS	0	0	4	1	24_4_1	NA	NA	0	1	1.3194899559	None	None	None	None	1
3.0.1	2019_Mar_06_1110	s	s	9	2	SIC	276	ABS	0	0	3	3	24_3_3	NA	NA	0	1	2.67774796486	None	None	None	None	1
3.0.1	2019_Mar_06_1110	s	s	9	2	SIC	277	3_4	3	4	3	2	23_3_2	0	2	1	0	0.622709035873	-392.0	186.0	-397.0	193.0	1
3.0.1	2019_Mar_06_1110	s	s	9	2	SIC	278	1_2	1	2	2	1	23_2_1	1	-1	1	0	0.907799005508	-149.0	324.0	-149.0	324.0	1
3.0.1	2019_Mar_06_1110	s	s	9	2	SIC	279	ABS	0	0	1	3	24_1_3	NA	NA	0	1	2.75143694878	None	None	None	None	1
3.0.1	2019_Mar_06_1110	s	s	9	2	SIC	280	1_3	1	3	1	4	23_1_4	0	-1	1	0	0.695937871933	-390.0	-138.0	-384.0	-143.0	1
3.0.1	2019_Mar_06_1110	s	s	9	2	SIC	281	ABS	0	0	3	2	24_3_2	NA	NA	0	1	2.20153689384	None	None	None	None	1
3.0.1	2019_Mar_06_1110	s	s	9	2	SIC	282	ABS	0	0	4	1	24_4_1	NA	NA	0	1	1.41066098213	None	None	None	None	1
3.0.1	2019_Mar_06_1110	s	s	9	2	SIC	283	4_1	4	1	3	3	23_3_3	1	2	1	0	0.604297876358	215.0	267.0	221.0	265.0	1
3.0.1	2019_Mar_06_1110	s	s	9	2	SIC	284	ABS	0	0	4	3	24_4_3	NA	NA	0	1	2.42219114304	None	None	None	None	1
3.0.1	2019_Mar_06_1110	s	s	9	2	SIC	285	3_3	3	3	4	4	23_4_4	-1	-1	1	0	0.849050998688	344.0	325.0	347.0	323.0	1
3.0.1	2019_Mar_06_1110	s	s	9	2	SIC	286	3_1	3	1	1	1	23_1_1	2	0	1	0	0.822592973709	365.0	132.0	363.0	126.0	1
3.0.1	2019_Mar_06_1110	s	s	9	2	SIC	287	3_1	3	1	1	3	23_1_3	2	2	1	0	0.564136981964	-4.0	256.0	2.0	255.0	1
3.0.1	2019_Mar_06_1110	s	s	9	2	SIC	288	ABS	0	0	4	2	24_4_2	NA	NA	0	1	3.77470898628	None	None	None	None	1
3.0.1	2019_Mar_06_1110	s	s	9	2	SIC	289	ABS	0	0	3	1	24_3_1	NA	NA	0	1	2.55483913422	None	None	None	None	1
3.0.1	2019_Mar_06_1110	s	s	9	2	SIC	290	ABS	0	0	1	4	24_1_4	NA	NA	0	1	1.54007315636	None	None	None	None	1
3.0.1	2019_Mar_06_1110	s	s	9	2	SIC	291	ABS	0	0	2	3	24_2_3	NA	NA	0	1	2.75139498711	None	None	None	None	1
3.0.1	2019_Mar_06_1110	s	s	9	2	SIC	292	3_2	3	2	3	3	23_3_3	0	1	1	0	1.36828899384	-129.0	411.0	-131.0	411.0	1
3.0.1	2019_Mar_06_1110	s	s	9	2	SIC	293	ABS	0	0	2	4	24_2_4	NA	NA	0	1	1.35176706314	None	None	None	None	1
3.0.1	2019_Mar_06_1110	s	s	9	2	SIC	294	ABS	0	0	4	1	24_4_1	NA	NA	0	1	1.89942097664	None	None	None	None	1
3.0.1	2019_Mar_06_1110	s	s	9	2	SIC	295	2_3	2	3	1	4	23_1_4	-1	-1	1	0	1.33355712891	270.0	-411.0	277.0	-414.0	1
3.0.1	2019_Mar_06_1110	s	s	9	2	SIC	296	3_1	3	1	4	4	23_4_4	-1	3	1	0	0.592003822327	-155.0	211.0	-151.0	202.0	1
3.0.1	2019_Mar_06_1110	s	s	9	2	SIC	297	ABS	0	0	2	2	24_2_2	NA	NA	0	1	3.29244208336	None	None	None	None	1
3.0.1	2019_Mar_06_1110	s	s	9	2	SIC	298	2_3	2	3	4	1	23_4_1	2	2	1	0	0.599201917648	-327.0	-211.0	-330.0	-212.0	1
3.0.1	2019_Mar_06_1110	s	s	9	2	SIC	299	ABS	0	0	1	1	24_1_1	NA	NA	0	1	2.22211790085	None	None	None	None	1
3.0.1	2019_Mar_06_1110	s	s	9	2	SIC	300	ABS	0	0	2	4	24_2_4	NA	NA	0	1	1.17584609985	None	None	None	None	1
3.0.1	2019_Mar_06_1110	s	s	9	2	SIC	301	ABS	0	0	4	4	24_4_4	NA	NA	0	1	1.15219688416	None	None	None	None	1
3.0.1	2019_Mar_06_1110	s	s	9	2	SIC	302	4_1	4	1	4	3	23_4_3	0	2	1	0	0.863382101059	-334.0	39.0	-343.0	39.0	1
3.0.1	2019_Mar_06_1110	s	s	9	2	SIC	303	1_2	1	2	4	1	23_4_1	3	-1	1	0	0.540380954742	-448.0	289.0	-447.0	295.0	1
3.0.1	2019_Mar_06_1110	s	s	9	2	SIC	304	ABS	0	0	1	1	24_1_1	NA	NA	0	1	2.31914806366	None	None	None	None	1
3.0.1	2019_Mar_06_1110	s	s	9	2	SIC	305	1_1	1	1	1	2	23_1_2	0	1	1	0	1.69298696518	163.0	-111.0	164.0	-116.0	1
3.0.1	2019_Mar_06_1110	s	s	9	2	SIC	306	3_2	3	2	4	1	23_4_1	-1	-1	1	0	0.658013105392	451.0	-99.0	453.0	-101.0	1
3.0.1	2019_Mar_06_1110	s	s	9	2	SIC	307	ABS	0	0	1	1	24_1_1	NA	NA	0	1	2.12807512283	None	None	None	None	1
3.0.1	2019_Mar_06_1110	s	s	9	2	SIC	308	ABS	0	0	4	2	24_4_2	NA	NA	0	1	2.83373904228	None	None	None	None	1
3.0.1	2019_Mar_06_1110	s	s	9	2	SIC	309	3_2	3	2	1	1	23_1_1	2	-1	1	0	0.898926019669	-18.0	-235.0	-27.0	-236.0	1
3.0.1	2019_Mar_06_1110	s	s	9	2	SIC	310	ABS	0	0	1	4	24_1_4	NA	NA	0	1	1.48120307922	None	None	None	None	1
3.0.1	2019_Mar_06_1110	s	s	9	2	SIC	311	3_2	3	2	1	2	23_1_2	2	0	1	0	0.791945934296	-285.0	94.0	-280.0	98.0	1
3.0.1	2019_Mar_06_1110	s	s	9	2	SIC	312	ABS	0	0	1	3	24_1_3	NA	NA	0	1	2.91615200043	None	None	None	None	1
3.0.1	2019_Mar_06_1110	s	s	9	2	SIC	313	2_1	2	1	1	2	23_1_2	-1	1	1	0	2.57499599457	377.0	334.0	383.0	338.0	1
3.0.1	2019_Mar_06_1110	s	s	9	2	SIC	314	ABS	0	0	1	3	24_1_3	NA	NA	0	1	3.23653388023	None	None	None	None	1
3.0.1	2019_Mar_06_1110	s	s	9	2	SIC	315	1_2	1	2	3	2	23_3_2	2	0	1	0	0.813958883286	-64.0	386.0	-63.0	379.0	1
3.0.1	2019_Mar_06_1110	s	s	9	2	SIC	316	2_1	2	1	2	3	23_2_3	0	2	1	0	2.50447893143	-179.0	-314.0	-168.0	-313.0	1
3.0.1	2019_Mar_06_1110	s	s	9	2	SIC	317	ABS	0	0	1	3	24_1_3	NA	NA	0	1	2.65184187889	None	None	None	None	1
3.0.1	2019_Mar_06_1110	s	s	9	2	SIC	318	ABS	0	0	3	4	24_3_4	NA	NA	0	1	1.46944999695	None	None	None	None	1
3.0.1	2019_Mar_06_1110	s	s	9	2	SIC	319	ABS	0	0	3	2	24_3_2	NA	NA	0	1	2.18050408363	None	None	None	None	1
3.0.1	2019_Mar_06_1110	s	s	9	2	SIC	320	ABS	0	0	2	2	24_2_2	NA	NA	0	1	4.04794883728	None	None	None	None	1
3.0.1	2019_Mar_06_1110	s	s	9	2	SIC	321	2_2	2	2	4	2	23_4_2	2	0	1	0	0.687586069107	-258.0	-230.0	-257.0	-234.0	1
3.0.1	2019_Mar_06_1110	s	s	9	2	SIC	322	4_3	4	3	4	4	23_4_4	0	-1	1	0	0.73141002655	-73.0	-133.0	-72.0	-133.0	1
3.0.1	2019_Mar_06_1110	s	s	9	2	SIC	323	4_1	4	1	1	4	23_1_4	3	3	1	0	0.69603395462	161.0	198.0	168.0	198.0	1
3.0.1	2019_Mar_06_1110	s	s	9	2	SIC	324	ABS	0	0	2	4	24_2_4	NA	NA	0	1	1.81377696991	None	None	None	None	1
3.0.1	2019_Mar_06_1110	s	s	9	2	SIC	325	ABS	0	0	3	2	24_3_2	NA	NA	0	1	4.48603701591	None	None	None	None	1
3.0.1	2019_Mar_06_1110	s	s	9	2	SIC	326	ABS	0	0	4	2	24_4_2	NA	NA	0	1	2.9042930603	None	None	None	None	1
3.0.1	2019_Mar_06_1110	s	s	9	2	SIC	327	ABS	0	0	2	3	24_2_3	NA	NA	0	1	3.17783784866	None	None	None	None	1
3.0.1	2019_Mar_06_1110	s	s	9	2	SIC	328	ABS	0	0	4	4	24_4_4	NA	NA	0	1	1.08426690102	None	None	None	None	1
3.0.1	2019_Mar_06_1110	s	s	9	2	SIC	329	ABS	0	0	2	2	24_2_2	NA	NA	0	1	2.89258909225	None	None	None	None	1
3.0.1	2019_Mar_06_1110	s	s	9	2	SIC	330	3_4	3	4	3	3	23_3_3	0	1	1	0	0.780124902725	319.0	78.0	329.0	76.0	1
3.0.1	2019_Mar_06_1110	s	s	9	2	SIC	331	ABS	0	0	2	1	24_2_1	NA	NA	0	1	1.56917405128	None	None	None	None	1
3.0.1	2019_Mar_06_1110	s	s	9	2	SIC	332	4_1	4	1	1	1	23_1_1	3	0	1	0	0.563884973526	-290.0	406.0	-292.0	404.0	1
3.0.1	2019_Mar_06_1110	s	s	9	2	SIC	333	3_3	3	3	4	2	23_4_2	-1	1	1	0	0.591789007187	376.0	84.0	371.0	82.0	1
3.0.1	2019_Mar_06_1110	s	s	9	2	SIC	334	ABS	0	0	1	2	24_1_2	NA	NA	0	1	3.74345493317	None	None	None	None	1
3.0.1	2019_Mar_06_1110	s	s	9	2	SIC	335	ABS	0	0	3	1	24_3_1	NA	NA	0	1	1.91645503044	None	None	None	None	1
3.0.1	2019_Mar_06_1110	s	s	9	2	SIC	336	3_1	3	1	3	2	23_3_2	0	1	0	1	2.6136059761	-73.0	-230.0	None	None	0
3.0.1	2019_Mar_06_1110	s	s	9	2	SIC	337	1_2	1	2	4	2	23_4_2	3	0	1	0	0.678240060806	-312.0	-48.0	-317.0	-53.0	1
3.0.1	2019_Mar_06_1110	s	s	9	2	SIC	338	3_4	3	4	1	3	23_1_3	2	1	1	0	0.693191051483	-247.0	269.0	-245.0	266.0	1
3.0.1	2019_Mar_06_1110	s	s	9	2	SIC	339	3_4	3	4	2	2	23_2_2	1	2	1	0	0.540316820145	-254.0	-78.0	-255.0	-83.0	1
3.0.1	2019_Mar_06_1110	s	s	9	2	SIC	340	1_1	1	1	1	4	23_1_4	0	3	1	0	0.657954931259	241.0	192.0	246.0	195.0	1
3.0.1	2019_Mar_06_1110	s	s	9	2	SIC	341	2_2	2	2	2	1	23_2_1	0	-1	1	0	1.79881501198	344.0	132.0	348.0	136.0	1
3.0.1	2019_Mar_06_1110	s	s	9	2	SIC	342	3_4	3	4	1	1	23_1_1	2	3	1	0	0.613815069199	416.0	-110.0	421.0	-109.0	1
3.0.1	2019_Mar_06_1110	s	s	9	2	SIC	343	ABS	0	0	4	4	24_4_4	NA	NA	0	1	1.95170998573	None	None	None	None	1
3.0.1	2019_Mar_06_1110	s	s	9	2	SIC	344	3_3	3	3	1	2	23_1_2	2	1	1	0	0.716808080673	-303.0	-247.0	-305.0	-251.0	1
3.0.1	2019_Mar_06_1110	s	s	9	2	SIC	345	3_2	3	2	1	4	23_1_4	2	2	1	0	0.811220884323	-502.0	-226.0	-507.0	-230.0	1
3.0.1	2019_Mar_06_1110	s	s	9	2	SIC	346	ABS	0	0	1	4	24_1_4	NA	NA	0	1	2.29777002335	None	None	None	None	1
3.0.1	2019_Mar_06_1110	s	s	9	2	SIC	347	ABS	0	0	1	4	24_1_4	NA	NA	0	1	2.33448290825	None	None	None	None	1
3.0.1	2019_Mar_06_1110	s	s	9	2	SIC	348	ABS	0	0	3	3	24_3_3	NA	NA	0	1	2.91140413284	None	None	None	None	1
3.0.1	2019_Mar_06_1110	s	s	9	2	SIC	349	2_2	2	2	1	2	23_1_2	-1	0	1	0	3.17897582054	-484.0	266.0	-482.0	265.0	1
3.0.1	2019_Mar_06_1110	s	s	9	2	SIC	350	ABS	0	0	2	3	24_2_3	NA	NA	0	1	3.10932183266	None	None	None	None	1
3.0.1	2019_Mar_06_1110	s	s	9	2	SIC	351	ABS	0	0	2	4	24_2_4	NA	NA	0	1	2.73080706596	None	None	None	None	1
3.0.1	2019_Mar_06_1110	s	s	9	2	SIC	352	1_4	1	4	4	1	23_4_1	3	3	1	0	0.687442064285	487.0	-191.0	486.0	-193.0	1
3.0.1	2019_Mar_06_1110	s	s	9	2	SIC	353	ABS	0	0	2	1	24_2_1	NA	NA	0	1	3.35582089424	None	None	None	None	1
3.0.1	2019_Mar_06_1110	s	s	9	2	SIC	354	ABS	0	0	3	4	24_3_4	NA	NA	0	1	2.00370693207	None	None	None	None	1
3.0.1	2019_Mar_06_1110	s	s	9	2	SIC	355	ABS	0	0	1	1	24_1_1	NA	NA	0	1	3.95675206184	None	None	None	None	1
3.0.1	2019_Mar_06_1110	s	s	9	2	SIC	356	ABS	0	0	3	3	24_3_3	NA	NA	0	1	2.02692508698	None	None	None	None	1
3.0.1	2019_Mar_06_1110	s	s	9	2	SIC	357	3_1	3	1	1	4	23_1_4	2	3	1	0	0.65181183815	-388.0	76.0	-391.0	73.0	1
3.0.1	2019_Mar_06_1110	s	s	9	2	SIC	358	ABS	0	0	3	1	24_3_1	NA	NA	0	1	1.88644099236	None	None	None	None	1
3.0.1	2019_Mar_06_1110	s	s	9	2	SIC	359	4_3	4	3	2	4	23_2_4	2	-1	1	0	0.646305084229	155.0	-344.0	161.0	-340.0	1
3.0.1	2019_Mar_06_1110	s	s	9	2	SIC	360	ABS	0	0	2	2	24_2_2	NA	NA	0	1	3.2022550106	None	None	None	None	1
3.0.1	2019_Mar_06_1110	s	s	9	2	SIC	361	2_3	2	3	2	1	23_2_1	0	2	1	0	0.843091964722	-9.0	-159.0	-8.0	-169.0	1
3.0.1	2019_Mar_06_1110	s	s	9	2	SIC	362	3_3	3	3	3	4	23_3_4	0	-1	1	0	1.18727087975	-180.0	-390.0	-182.0	-389.0	1
3.0.1	2019_Mar_06_1110	s	s	9	2	SIC	363	2_3	2	3	3	3	23_3_3	1	0	1	0	0.869644880295	475.0	283.0	477.0	280.0	1
3.0.1	2019_Mar_06_1110	s	s	9	2	SIC	364	ABS	0	0	4	1	24_4_1	NA	NA	0	1	1.33995008469	None	None	None	None	1
3.0.1	2019_Mar_06_1110	s	s	9	2	SIC	365	3_1	3	1	2	4	23_2_4	1	3	1	0	0.693175077438	244.0	120.0	244.0	117.0	1
3.0.1	2019_Mar_06_1110	s	s	9	2	SIC	366	2_3	2	3	1	2	23_1_2	-1	1	1	0	0.981450796127	83.0	222.0	80.0	220.0	1
3.0.1	2019_Mar_06_1110	s	s	9	2	SIC	367	ABS	0	0	2	2	24_2_2	NA	NA	0	1	3.73936486244	None	None	None	None	1
3.0.1	2019_Mar_06_1110	s	s	9	2	SIC	368	4_2	4	2	1	3	23_1_3	3	1	1	0	0.669701099396	506.0	342.0	502.0	335.0	1
3.0.1	2019_Mar_06_1110	s	s	9	2	SIC	369	ABS	0	0	2	1	24_2_1	NA	NA	0	1	2.55441713333	None	None	None	None	1
3.0.1	2019_Mar_06_1110	s	s	9	2	SIC	370	ABS	0	0	3	3	24_3_3	NA	NA	0	1	2.16337800026	None	None	None	None	1
3.0.1	2019_Mar_06_1110	s	s	9	2	SIC	371	ABS	0	0	2	4	24_2_4	NA	NA	0	1	1.9728448391	None	None	None	None	1
3.0.1	2019_Mar_06_1110	s	s	9	2	SIC	372	ABS	0	0	2	2	24_2_2	NA	NA	0	1	2.65737390518	None	None	None	None	1
3.0.1	2019_Mar_06_1110	s	s	9	2	SIC	373	ABS	0	0	3	2	24_3_2	NA	NA	0	1	2.78964114189	None	None	None	None	1
3.0.1	2019_Mar_06_1110	s	s	9	2	SIC	374	ABS	0	0	4	4	24_4_4	NA	NA	0	1	0.780727148056	None	None	None	None	1
3.0.1	2019_Mar_06_1110	s	s	9	2	SIC	375	ABS	0	0	1	3	24_1_3	NA	NA	0	1	3.02996206284	None	None	None	None	1
3.0.1	2019_Mar_06_1110	s	s	9	2	SIC	376	ABS	0	0	1	4	24_1_4	NA	NA	0	1	1.34008693695	None	None	None	None	1
3.0.1	2019_Mar_06_1110	s	s	9	2	SIC	377	ABS	0	0	2	3	24_2_3	NA	NA	0	1	2.31921291351	None	None	None	None	1
3.0.1	2019_Mar_06_1110	s	s	9	2	SIC	378	3_3	3	3	2	4	23_2_4	1	-1	1	0	0.940144062042	-2.0	-173.0	-5.0	-169.0	1
3.0.1	2019_Mar_06_1110	s	s	9	2	SIC	379	ABS	0	0	2	2	24_2_2	NA	NA	0	1	4.28035116196	None	None	None	None	1
3.0.1	2019_Mar_06_1110	s	s	9	2	SIC	380	ABS	0	0	1	4	24_1_4	NA	NA	0	1	1.29734015465	None	None	None	None	1
3.0.1	2019_Mar_06_1110	s	s	9	2	SIC	381	2_4	2	4	3	1	23_3_1	1	3	1	0	0.74024605751	176.0	-168.0	173.0	-164.0	1
3.0.1	2019_Mar_06_1110	s	s	9	2	SIC	382	4_3	4	3	3	1	23_3_1	1	2	1	0	0.704961061478	449.0	365.0	454.0	364.0	1
3.0.1	2019_Mar_06_1110	s	s	9	2	SIC	383	2_1	2	1	4	2	23_4_2	2	1	1	0	0.546094894409	462.0	-254.0	459.0	-255.0	1
3.0.1	2019_Mar_06_1110	s	s	9	2	SIC	384	1_2	1	2	1	4	23_1_4	0	2	1	0	0.907798051834	230.0	169.0	233.0	172.0	1
3.0.1	2019_Mar_06_1110	s	s	9	2	SIC	385	1_1	1	1	3	4	23_3_4	2	3	1	0	0.554957866669	-286.0	-53.0	-287.0	-50.0	1
3.0.1	2019_Mar_06_1110	s	s	9	2	SIC	386	2_3	2	3	2	2	23_2_2	0	1	1	0	1.12843608856	-157.0	80.0	-157.0	79.0	1
3.0.1	2019_Mar_06_1110	s	s	9	2	SIC	387	ABS	0	0	3	3	24_3_3	NA	NA	0	1	3.57756400108	None	None	None	None	1
3.0.1	2019_Mar_06_1110	s	s	9	2	SIC	388	ABS	0	0	1	2	24_1_2	NA	NA	0	1	3.1212451458	None	None	None	None	1
3.0.1	2019_Mar_06_1110	s	s	9	2	SIC	389	ABS	0	0	3	2	24_3_2	NA	NA	0	1	4.18638801575	None	None	None	None	1
3.0.1	2019_Mar_06_1110	s	s	9	2	SIC	390	3_1	3	1	4	3	23_4_3	-1	2	1	0	0.70861697197	-338.0	-210.0	-333.0	-216.0	1
3.0.1	2019_Mar_06_1110	s	s	9	2	SIC	391	4_2	4	2	1	4	23_1_4	3	2	1	0	1.26951289177	-58.0	-303.0	-52.0	-306.0	1
3.0.1	2019_Mar_06_1110	s	s	9	2	SIC	392	3_3	3	3	2	3	23_2_3	1	0	1	0	1.66248416901	170.0	-320.0	174.0	-325.0	1
3.0.1	2019_Mar_06_1110	s	s	9	2	SIC	393	1_2	1	2	4	3	23_4_3	3	1	1	0	0.693451881409	538.0	-62.0	543.0	-66.0	1
3.0.1	2019_Mar_06_1110	s	s	9	2	SIC	394	2_1	2	1	1	4	23_1_4	-1	3	1	0	0.932317972183	-212.0	-411.0	-217.0	-417.0	1
3.0.1	2019_Mar_06_1110	s	s	9	2	SIC	395	4_3	4	3	4	2	23_4_2	0	1	1	0	1.40319705009	-302.0	183.0	-304.0	184.0	1
3.0.1	2019_Mar_06_1110	s	s	9	2	SIC	396	4_3	4	3	3	3	23_3_3	1	0	1	0	0.68146109581	535.0	269.0	538.0	267.0	1
3.0.1	2019_Mar_06_1110	s	s	9	2	SIC	397	1_1	1	1	4	2	23_4_2	3	1	1	0	0.437308073044	-539.0	124.0	-541.0	122.0	1
3.0.1	2019_Mar_06_1110	s	s	9	2	SIC	398	ABS	0	0	2	3	24_2_3	NA	NA	0	1	3.16976594925	None	None	None	None	1
3.0.1	2019_Mar_06_1110	s	s	9	2	SIC	399	ABS	0	0	3	1	24_3_1	NA	NA	0	1	2.18185710907	None	None	None	None	1
3.0.1	2019_Mar_06_1110	s	s	9	2	SIC	400	ABS	0	0	2	2	24_2_2	NA	NA	0	1	2.6808681488	None	None	None	None	1
3.0.1	2019_Mar_06_1110	s	s	9	2	SIC	401	ABS	0	0	4	4	24_4_4	NA	NA	0	1	1.50478982925	None	None	None	None	1
3.0.1	2019_Mar_06_1110	s	s	9	2	SIC	402	ABS	0	0	4	3	24_4_3	NA	NA	0	1	3.84163999557	None	None	None	None	1
3.0.1	2019_Mar_06_1110	s	s	9	2	SIC	403	4_4	4	4	2	3	23_2_3	2	1	1	0	0.989983797073	17.0	-345.0	19.0	-340.0	1
3.0.1	2019_Mar_06_1110	s	s	9	2	SIC	404	2_3	2	3	1	3	23_1_3	-1	0	0	1	3.7356159687	431.0	-86.0	None	None	0
3.0.1	2019_Mar_06_1110	s	s	9	2	SIC	405	ABS	0	0	3	4	24_3_4	NA	NA	0	1	1.86247611046	None	None	None	None	1
3.0.1	2019_Mar_06_1110	s	s	9	2	SIC	406	4_1	4	1	3	1	23_3_1	1	0	1	0	0.629629850388	-113.0	409.0	-113.0	407.0	1
3.0.1	2019_Mar_06_1110	s	s	9	2	SIC	407	ABS	0	0	1	2	24_1_2	NA	NA	0	1	4.12036991119	None	None	None	None	1
3.0.1	2019_Mar_06_1110	s	s	9	2	SIC	408	1_4	1	4	4	3	23_4_3	3	1	1	0	0.721723079681	505.0	-317.0	507.0	-318.0	1
3.0.1	2019_Mar_06_1110	s	s	9	2	SIC	409	ABS	0	0	4	1	24_4_1	NA	NA	0	1	1.29294800758	None	None	None	None	1
3.0.1	2019_Mar_06_1110	s	s	9	2	SIC	410	4_1	4	1	3	2	23_3_2	1	1	1	0	0.592214107513	-213.0	126.0	-208.0	121.0	1
3.0.1	2019_Mar_06_1110	s	s	9	2	SIC	411	ABS	0	0	2	4	24_2_4	NA	NA	0	1	1.81051397324	None	None	None	None	1
3.0.1	2019_Mar_06_1110	s	s	9	2	SIC	412	ABS	0	0	3	2	24_3_2	NA	NA	0	1	4.89573097229	None	None	None	None	1
3.0.1	2019_Mar_06_1110	s	s	9	2	SIC	413	2_1	2	1	4	1	23_4_1	2	0	1	0	0.540395975113	4.0	-212.0	10.0	-210.0	1
3.0.1	2019_Mar_06_1110	s	s	9	2	SIC	414	ABS	0	0	1	1	24_1_1	NA	NA	0	1	3.12782001495	None	None	None	None	1
3.0.1	2019_Mar_06_1110	s	s	9	2	SIC	415	1_2	1	2	1	1	23_1_1	0	-1	1	0	1.56908583641	273.0	348.0	272.0	349.0	1
3.0.1	2019_Mar_06_1110	s	s	9	2	SIC	416	ABS	0	0	3	4	24_3_4	NA	NA	0	1	1.65763998032	None	None	None	None	1
3.0.1	2019_Mar_06_1110	s	s	9	2	SIC	417	1_1	1	1	4	4	23_4_4	3	3	1	0	0.699892997742	13.0	-35.0	17.0	-37.0	1
3.0.1	2019_Mar_06_1110	s	s	9	2	SIC	418	1_4	1	4	4	4	23_4_4	3	0	1	0	0.544933080673	374.0	-101.0	379.0	-108.0	1
3.0.1	2019_Mar_06_1110	s	s	9	2	SIC	419	ABS	0	0	1	3	24_1_3	NA	NA	0	1	4.3627550602	None	None	None	None	1
3.0.1	2019_Mar_06_1110	s	s	9	2	SIC	420	ABS	0	0	2	2	24_2_2	NA	NA	0	1	3.78117704391	None	None	None	None	1
3.0.1	2019_Mar_06_1110	s	s	9	2	SIC	421	4_2	4	2	4	4	23_4_4	0	2	1	0	0.763800144196	62.0	12.0	63.0	13.0	1
3.0.1	2019_Mar_06_1110	s	s	9	2	SIC	422	1_4	1	4	2	1	23_2_1	1	3	1	0	1.02254295349	-508.0	-209.0	-501.0	-209.0	1
3.0.1	2019_Mar_06_1110	s	s	9	2	SIC	423	ABS	0	0	3	2	24_3_2	NA	NA	0	1	3.91246294975	None	None	None	None	1
3.0.1	2019_Mar_06_1110	s	s	9	2	SIC	424	ABS	0	0	1	2	24_1_2	NA	NA	1	0	3.40322089195	None	None	-21.0	59.0	0
3.0.1	2019_Mar_06_1110	s	s	9	2	SIC	425	1_4	1	4	2	3	23_2_3	1	1	1	0	1.10973095894	-486.0	375.0	-481.0	367.0	1
3.0.1	2019_Mar_06_1110	s	s	9	2	SIC	426	ABS	0	0	4	4	24_4_4	NA	NA	0	1	2.01712298393	None	None	None	None	1
3.0.1	2019_Mar_06_1110	s	s	9	2	SIC	427	1_3	1	3	4	4	23_4_4	3	-1	1	0	0.975500106812	287.0	-269.0	289.0	-266.0	1
3.0.1	2019_Mar_06_1110	s	s	9	2	SIC	428	1_3	1	3	4	3	23_4_3	3	0	1	0	0.662966012955	310.0	25.0	308.0	20.0	1
3.0.1	2019_Mar_06_1110	s	s	9	2	SIC	429	ABS	0	0	1	4	24_1_4	NA	NA	0	1	1.78991794586	None	None	None	None	1
3.0.1	2019_Mar_06_1110	s	s	9	2	SIC	430	ABS	0	0	1	4	24_1_4	NA	NA	0	1	1.51649999619	None	None	None	None	1
3.0.1	2019_Mar_06_1110	s	s	9	2	SIC	431	ABS	0	0	3	2	24_3_2	NA	NA	0	1	3.20739293098	None	None	None	None	1
3.0.1	2019_Mar_06_1110	s	s	9	2	SIC	432	ABS	0	0	2	3	24_2_3	NA	NA	0	1	2.84940004349	None	None	None	None	1
3.0.1	2019_Mar_06_1110	s	s	9	2	SIC	433	ABS	0	0	3	2	24_3_2	NA	NA	0	1	3.33955597878	None	None	None	None	1
3.0.1	2019_Mar_06_1110	s	s	9	2	SIC	434	ABS	0	0	3	1	24_3_1	NA	NA	0	1	2.88078212738	None	None	None	None	1
3.0.1	2019_Mar_06_1110	s	s	9	2	SIC	435	ABS	0	0	1	1	24_1_1	NA	NA	0	1	2.78682398796	None	None	None	None	1
3.0.1	2019_Mar_06_1110	s	s	9	2	SIC	436	4_4	4	4	2	1	23_2_1	2	3	1	0	0.716807842255	501.0	-122.0	499.0	-121.0	1
3.0.1	2019_Mar_06_1110	s	s	9	2	SIC	437	4_2	4	2	3	4	23_3_4	1	2	1	0	0.685992956161	-131.0	162.0	-123.0	165.0	1
3.0.1	2019_Mar_06_1110	s	s	9	2	SIC	438	3_2	3	2	1	3	23_1_3	2	1	1	0	0.886853933334	11.0	-315.0	17.0	-308.0	1
3.0.1	2019_Mar_06_1110	s	s	9	2	SIC	439	3_4	3	4	4	2	23_4_2	-1	2	1	0	0.677747011185	-406.0	143.0	-407.0	140.0	1
3.0.1	2019_Mar_06_1110	s	s	9	2	SIC	440	ABS	0	0	1	4	24_1_4	NA	NA	0	1	1.51919698715	None	None	None	None	1
3.0.1	2019_Mar_06_1110	s	s	9	2	SIC	441	ABS	0	0	2	1	24_2_1	NA	NA	0	1	1.98066520691	None	None	None	None	1
3.0.1	2019_Mar_06_1110	s	s	9	2	SIC	442	3_1	3	1	3	4	23_3_4	0	3	1	0	0.603888988495	-199.0	49.0	-198.0	44.0	1
3.0.1	2019_Mar_06_1110	s	s	9	2	SIC	443	ABS	0	0	2	1	24_2_1	NA	NA	0	1	1.96731495857	None	None	None	None	1
3.0.1	2019_Mar_06_1110	s	s	9	2	SIC	444	1_3	1	3	2	3	23_2_3	1	0	1	0	3.57474088669	405.0	-76.0	406.0	-75.0	1
3.0.1	2019_Mar_06_1110	s	s	9	2	SIC	445	3_2	3	2	4	4	23_4_4	-1	2	1	0	0.619349002838	-297.0	-7.0	-299.0	-11.0	1
3.0.1	2019_Mar_06_1110	s	s	9	2	SIC	446	4_4	4	4	2	4	23_2_4	2	0	1	0	0.709522008896	85.0	-185.0	88.0	-187.0	1
3.0.1	2019_Mar_06_1110	s	s	9	2	SIC	447	4_3	4	3	2	1	23_2_1	2	2	1	0	0.672636032104	505.0	-331.0	509.0	-331.0	1
3.0.1	2019_Mar_06_1110	s	s	9	2	SIC	448	3_3	3	3	2	1	23_2_1	1	2	1	0	0.834408998489	51.0	-282.0	51.0	-278.0	1
3.0.1	2019_Mar_06_1110	s	s	9	2	SIC	449	ABS	0	0	1	1	24_1_1	NA	NA	0	1	2.35589313507	None	None	None	None	1
3.0.1	2019_Mar_06_1110	s	s	9	2	SIC	450	2_3	2	3	4	3	23_4_3	2	0	1	0	0.5755610466	353.0	-344.0	350.0	-346.0	1
3.0.1	2019_Mar_06_1110	s	s	9	2	SIC	451	ABS	0	0	4	1	24_4_1	NA	NA	0	1	1.30982899666	None	None	None	None	1
3.0.1	2019_Mar_06_1110	s	s	9	2	SIC	452	4_4	4	4	3	2	23_3_2	1	2	1	0	0.698990106583	-260.0	13.0	-258.0	13.0	1
3.0.1	2019_Mar_06_1110	s	s	9	2	SIC	453	3_2	3	2	4	3	23_4_3	-1	1	1	0	0.587383985519	-428.0	-62.0	-426.0	-63.0	1
3.0.1	2019_Mar_06_1110	s	s	9	2	SIC	454	4_4	4	4	1	4	23_1_4	3	0	1	0	0.458405017853	-415.0	-27.0	-413.0	-24.0	1
3.0.1	2019_Mar_06_1110	s	s	9	2	SIC	455	ABS	0	0	2	4	24_2_4	NA	NA	0	1	1.7987601757	None	None	None	None	1
3.0.1	2019_Mar_06_1110	s	s	9	2	SIC	456	ABS	0	0	1	3	24_1_3	NA	NA	0	1	2.33235096931	None	None	None	None	1
3.0.1	2019_Mar_06_1110	s	s	9	2	SIC	457	3_4	3	4	4	1	23_4_1	-1	3	1	0	0.599204063416	-47.0	283.0	-50.0	282.0	1
3.0.1	2019_Mar_06_1110	s	s	9	2	SIC	458	3_3	3	3	1	3	23_1_3	2	0	1	0	0.94028711319	-36.0	-364.0	-39.0	-362.0	1
3.0.1	2019_Mar_06_1110	s	s	9	2	SIC	459	1_2	1	2	3	1	23_3_1	2	-1	1	0	0.662684202194	-105.0	131.0	-103.0	132.0	1
3.0.1	2019_Mar_06_1110	s	s	9	2	SIC	460	ABS	0	0	3	4	24_3_4	NA	NA	0	1	1.4224460125	None	None	None	None	1
3.0.1	2019_Mar_06_1110	s	s	9	2	SIC	461	3_4	3	4	2	3	23_2_3	1	1	1	0	0.641004800797	-267.0	222.0	-268.0	221.0	1
3.0.1	2019_Mar_06_1110	s	s	9	2	SIC	462	4_2	4	2	3	3	23_3_3	1	1	1	0	0.592659950256	-57.0	-55.0	-53.0	-57.0	1
3.0.1	2019_Mar_06_1110	s	s	9	2	SIC	463	ABS	0	0	4	3	24_4_3	NA	NA	0	1	3.06137418747	None	None	None	None	1
3.0.1	2019_Mar_06_1110	s	s	9	2	SIC	464	ABS	0	0	3	1	24_3_1	NA	NA	0	1	1.6526081562	None	None	None	None	1
3.0.1	2019_Mar_06_1110	s	s	9	2	SIC	465	ABS	0	0	3	3	24_3_3	NA	NA	0	1	3.03374910355	None	None	None	None	1
3.0.1	2019_Mar_06_1110	s	s	9	2	SIC	466	ABS	0	0	1	1	24_1_1	NA	NA	0	1	3.54522204399	None	None	None	None	1
3.0.1	2019_Mar_06_1110	s	s	9	2	SIC	467	4_2	4	2	2	1	23_2_1	2	-1	1	0	0.693279981613	-427.0	-123.0	-431.0	-121.0	1
3.0.1	2019_Mar_06_1110	s	s	9	2	SIC	468	2_3	2	3	2	4	23_2_4	0	-1	1	0	0.980762958527	208.0	-107.0	206.0	-106.0	1
3.0.1	2019_Mar_06_1110	s	s	9	2	SIC	469	1_3	1	3	4	2	23_4_2	3	1	1	0	0.545085191727	-521.0	180.0	-526.0	177.0	1
3.0.1	2019_Mar_06_1110	s	s	9	2	SIC	470	1_3	1	3	4	1	23_4_1	3	2	1	0	0.528531074524	-530.0	166.0	-528.0	166.0	1
3.0.1	2019_Mar_06_1110	s	s	9	2	SIC	471	ABS	0	0	4	4	24_4_4	NA	NA	0	1	1.38039398193	None	None	None	None	1
3.0.1	2019_Mar_06_1110	s	s	9	2	SIC	472	ABS	0	0	2	2	24_2_2	NA	NA	0	1	3.04021191597	None	None	None	None	1
3.0.1	2019_Mar_06_1110	s	s	9	2	SIC	473	ABS	0	0	3	2	24_3_2	NA	NA	0	1	2.97515511513	None	None	None	None	1
3.0.1	2019_Mar_06_1110	s	s	9	2	SIC	474	ABS	0	0	2	3	24_2_3	NA	NA	0	1	3.02491998672	None	None	None	None	1
3.0.1	2019_Mar_06_1110	s	s	9	2	SIC	475	ABS	0	0	1	4	24_1_4	NA	NA	0	1	1.43711304665	None	None	None	None	1
3.0.1	2019_Mar_06_1110	s	s	9	2	SIC	476	1_2	1	2	2	3	23_2_3	1	1	1	0	1.62725901604	62.0	371.0	66.0	375.0	1
3.0.1	2019_Mar_06_1110	s	s	9	2	SIC	477	3_3	3	3	3	1	23_3_1	0	2	1	0	0.928410053253	-357.0	89.0	-353.0	90.0	1
3.0.1	2019_Mar_06_1110	s	s	9	2	SIC	478	2_1	2	1	3	2	23_3_2	1	1	1	0	0.82253909111	5.0	59.0	3.0	57.0	1
3.0.1	2019_Mar_06_1110	s	s	9	2	SIC	479	1_3	1	3	3	3	23_3_3	2	0	1	0	0.627544879913	-300.0	-291.0	-301.0	-298.0	1
3.0.1	2019_Mar_06_1110	s	s	9	2	SIC	480	ABS	0	0	2	2	24_2_2	NA	NA	0	1	4.12026405334	None	None	None	None	1
