Version	Date	Stimuli	Method	Subject	Session	Condition	Trial	Target	TColor	TShape	DColor	DShape	Distractors	Channel1	Channel2	LMouseButton	RMouseButton	RT	TargetX	TargetY	ResponseX	ResponseY	Correct
3.0.1	2019_Mar_08_1102	s	s	9	4	Capacity	1	ABS	0	0	2	1	24_2_1	NA	NA	0	1	1.76352095604	None	None	None	None	1
3.0.1	2019_Mar_08_1102	s	s	9	4	Capacity	2	4_1	4	1	1	1	23_1_1	3	0	1	0	0.442526817322	401.0	52.0	396.0	52.0	1
3.0.1	2019_Mar_08_1102	s	s	9	4	Capacity	3	ABS	0	0	3	1	24_3_1	NA	NA	0	1	1.14307403564	None	None	None	None	1
3.0.1	2019_Mar_08_1102	s	s	9	4	Capacity	4	3_1	3	1	1	1	23_1_1	2	0	1	0	0.497350931168	-416.0	-9.0	-406.0	-9.0	1
3.0.1	2019_Mar_08_1102	s	s	9	4	Capacity	5	ABS	0	0	1	1	24_1_1	NA	NA	0	1	1.28125	None	None	None	None	1
3.0.1	2019_Mar_08_1102	s	s	9	4	Capacity	6	2_1	2	1	4	1	23_4_1	2	0	1	0	0.469778060913	-62.0	-102.0	-58.0	-101.0	1
3.0.1	2019_Mar_08_1102	s	s	9	4	Capacity	7	ABS	0	0	4	1	24_4_1	NA	NA	0	1	0.822627067566	None	None	None	None	1
3.0.1	2019_Mar_08_1102	s	s	9	4	Capacity	8	4_1	4	1	2	1	23_2_1	2	0	1	0	0.469824790955	-286.0	-210.0	-283.0	-209.0	1
3.0.1	2019_Mar_08_1102	s	s	9	4	Capacity	9	ABS	0	0	2	1	24_2_1	NA	NA	0	1	1.9095890522	None	None	None	None	1
3.0.1	2019_Mar_08_1102	s	s	9	4	Capacity	10	ABS	0	0	3	1	24_3_1	NA	NA	0	1	1.02259683609	None	None	None	None	1
3.0.1	2019_Mar_08_1102	s	s	9	4	Capacity	11	ABS	0	0	2	1	24_2_1	NA	NA	0	1	1.37927603722	None	None	None	None	1
3.0.1	2019_Mar_08_1102	s	s	9	4	Capacity	12	1_1	1	1	3	1	23_3_1	2	0	1	0	0.699177026749	267.0	-174.0	267.0	-179.0	1
3.0.1	2019_Mar_08_1102	s	s	9	4	Capacity	13	ABS	0	0	1	1	24_1_1	NA	NA	0	1	1.22253489494	None	None	None	None	1
3.0.1	2019_Mar_08_1102	s	s	9	4	Capacity	14	3_1	3	1	2	1	23_2_1	1	0	1	0	0.790468931198	-375.0	-300.0	-376.0	-305.0	1
3.0.1	2019_Mar_08_1102	s	s	9	4	Capacity	15	4_1	4	1	3	1	23_3_1	1	0	1	0	0.504987001419	215.0	88.0	212.0	85.0	1
3.0.1	2019_Mar_08_1102	s	s	9	4	Capacity	16	ABS	0	0	1	1	24_1_1	NA	NA	0	1	0.799085855484	None	None	None	None	1
3.0.1	2019_Mar_08_1102	s	s	9	4	Capacity	17	2_1	2	1	3	1	23_3_1	1	0	1	0	0.696109056473	99.0	138.0	96.0	133.0	1
3.0.1	2019_Mar_08_1102	s	s	9	4	Capacity	18	1_1	1	1	4	1	23_4_1	3	0	1	0	0.516760110855	474.0	-123.0	480.0	-128.0	1
3.0.1	2019_Mar_08_1102	s	s	9	4	Capacity	19	1_1	1	1	2	1	23_2_1	1	0	1	0	1.83854389191	118.0	-122.0	116.0	-122.0	1
3.0.1	2019_Mar_08_1102	s	s	9	4	Capacity	20	3_1	3	1	4	1	23_4_1	-1	0	1	0	0.458027124405	173.0	-236.0	173.0	-242.0	1
3.0.1	2019_Mar_08_1102	s	s	9	4	Capacity	21	2_1	2	1	1	1	23_1_1	-1	0	0	1	1.62265706062	507.0	314.0	None	None	0
3.0.1	2019_Mar_08_1102	s	s	9	4	Capacity	22	ABS	0	0	4	1	24_4_1	NA	NA	0	1	0.940255880356	None	None	None	None	1
3.0.1	2019_Mar_08_1102	s	s	9	4	Capacity	23	ABS	0	0	4	1	24_4_1	NA	NA	0	1	1.06956100464	None	None	None	None	1
3.0.1	2019_Mar_08_1102	s	s	9	4	Capacity	24	ABS	0	0	3	1	24_3_1	NA	NA	0	1	1.10485386848	None	None	None	None	1
3.0.1	2019_Mar_08_1102	s	s	9	4	Capacity	25	ABS	0	0	3	1	24_3_1	NA	NA	0	1	1.12440896034	None	None	None	None	1
3.0.1	2019_Mar_08_1102	s	s	9	4	Capacity	26	2_1	2	1	4	1	23_4_1	2	0	1	0	0.555010080338	324.0	403.0	327.0	404.0	1
3.0.1	2019_Mar_08_1102	s	s	9	4	Capacity	27	1_1	1	1	3	1	23_3_1	2	0	1	0	0.579287052155	-29.0	60.0	-30.0	55.0	1
3.0.1	2019_Mar_08_1102	s	s	9	4	Capacity	28	ABS	0	0	2	1	24_2_1	NA	NA	0	1	3.43358707428	None	None	None	None	1
3.0.1	2019_Mar_08_1102	s	s	9	4	Capacity	29	2_1	2	1	3	1	23_3_1	1	0	1	0	0.599588871002	-258.0	180.0	-260.0	180.0	1
3.0.1	2019_Mar_08_1102	s	s	9	4	Capacity	30	3_1	3	1	4	1	23_4_1	-1	0	1	0	0.652687072754	-10.0	403.0	-7.0	396.0	1
3.0.1	2019_Mar_08_1102	s	s	9	4	Capacity	31	1_1	1	1	4	1	23_4_1	3	0	1	0	0.516738891602	471.0	232.0	474.0	232.0	1
3.0.1	2019_Mar_08_1102	s	s	9	4	Capacity	32	ABS	0	0	4	1	24_4_1	NA	NA	0	1	0.814935922623	None	None	None	None	1
3.0.1	2019_Mar_08_1102	s	s	9	4	Capacity	33	ABS	0	0	2	1	24_2_1	NA	NA	0	1	2.56850504875	None	None	None	None	1
3.0.1	2019_Mar_08_1102	s	s	9	4	Capacity	34	4_1	4	1	2	1	23_2_1	2	0	1	0	0.451675891876	-315.0	-12.0	-325.0	-10.0	1
3.0.1	2019_Mar_08_1102	s	s	9	4	Capacity	35	3_1	3	1	2	1	23_2_1	1	0	1	0	0.510132074356	481.0	78.0	483.0	77.0	1
3.0.1	2019_Mar_08_1102	s	s	9	4	Capacity	36	ABS	0	0	4	1	24_4_1	NA	NA	0	1	0.559859991074	None	None	None	None	1
3.0.1	2019_Mar_08_1102	s	s	9	4	Capacity	37	ABS	0	0	2	1	24_2_1	NA	NA	0	1	1.54008293152	None	None	None	None	1
3.0.1	2019_Mar_08_1102	s	s	9	4	Capacity	38	1_1	1	1	2	1	23_2_1	1	0	0	1	1.84868121147	290.0	-330.0	None	None	0
3.0.1	2019_Mar_08_1102	s	s	9	4	Capacity	39	ABS	0	0	4	1	24_4_1	NA	NA	0	1	0.791198968887	None	None	None	None	1
3.0.1	2019_Mar_08_1102	s	s	9	4	Capacity	40	3_1	3	1	1	1	23_1_1	2	0	1	0	1.11667394638	519.0	-170.0	525.0	-168.0	1
3.0.1	2019_Mar_08_1102	s	s	9	4	Capacity	41	ABS	0	0	1	1	24_1_1	NA	NA	0	1	1.94481611252	None	None	None	None	1
3.0.1	2019_Mar_08_1102	s	s	9	4	Capacity	42	ABS	0	0	3	1	24_3_1	NA	NA	0	1	1.45769691467	None	None	None	None	1
3.0.1	2019_Mar_08_1102	s	s	9	4	Capacity	43	4_1	4	1	1	1	23_1_1	3	0	1	0	0.569370985031	-431.0	-246.0	-434.0	-248.0	1
3.0.1	2019_Mar_08_1102	s	s	9	4	Capacity	44	ABS	0	0	3	1	24_3_1	NA	NA	0	1	1.40337705612	None	None	None	None	1
3.0.1	2019_Mar_08_1102	s	s	9	4	Capacity	45	ABS	0	0	1	1	24_1_1	NA	NA	0	1	1.41487812996	None	None	None	None	1
3.0.1	2019_Mar_08_1102	s	s	9	4	Capacity	46	ABS	0	0	1	1	24_1_1	NA	NA	0	1	1.30488014221	None	None	None	None	1
3.0.1	2019_Mar_08_1102	s	s	9	4	Capacity	47	4_1	4	1	3	1	23_3_1	1	0	1	0	0.685926914215	-27.0	-136.0	-28.0	-137.0	1
3.0.1	2019_Mar_08_1102	s	s	9	4	Capacity	48	2_1	2	1	1	1	23_1_1	-1	0	0	1	1.06971502304	-324.0	410.0	None	None	0
3.0.1	2019_Mar_08_1102	s	s	9	4	Capacity	49	2_1	2	1	1	1	23_1_1	-1	0	1	0	1.29305386543	-117.0	282.0	-119.0	279.0	1
3.0.1	2019_Mar_08_1102	s	s	9	4	Capacity	50	ABS	0	0	2	1	24_2_1	NA	NA	0	1	1.22252702713	None	None	None	None	1
3.0.1	2019_Mar_08_1102	s	s	9	4	Capacity	51	ABS	0	0	4	1	24_4_1	NA	NA	0	1	0.799022197723	None	None	None	None	1
3.0.1	2019_Mar_08_1102	s	s	9	4	Capacity	52	3_1	3	1	4	1	23_4_1	-1	0	1	0	0.705374956131	-162.0	-325.0	-153.0	-323.0	1
3.0.1	2019_Mar_08_1102	s	s	9	4	Capacity	53	4_1	4	1	1	1	23_1_1	3	0	1	0	0.881415843964	437.0	-170.0	433.0	-169.0	1
3.0.1	2019_Mar_08_1102	s	s	9	4	Capacity	54	ABS	0	0	3	1	24_3_1	NA	NA	0	1	1.86238694191	None	None	None	None	1
3.0.1	2019_Mar_08_1102	s	s	9	4	Capacity	55	1_1	1	1	4	1	23_4_1	3	0	1	0	0.563887119293	123.0	-112.0	119.0	-118.0	1
3.0.1	2019_Mar_08_1102	s	s	9	4	Capacity	56	2_1	2	1	3	1	23_3_1	1	0	1	0	0.790209054947	-403.0	3.0	-403.0	2.0	1
3.0.1	2019_Mar_08_1102	s	s	9	4	Capacity	57	ABS	0	0	2	1	24_2_1	NA	NA	0	1	2.12811493874	None	None	None	None	1
3.0.1	2019_Mar_08_1102	s	s	9	4	Capacity	58	3_1	3	1	2	1	23_2_1	1	0	1	0	0.81084394455	487.0	347.0	493.0	339.0	1
3.0.1	2019_Mar_08_1102	s	s	9	4	Capacity	59	ABS	0	0	4	1	24_4_1	NA	NA	0	1	0.837291955948	None	None	None	None	1
3.0.1	2019_Mar_08_1102	s	s	9	4	Capacity	60	2_1	2	1	4	1	23_4_1	2	0	1	0	0.469699144363	483.0	184.0	487.0	180.0	1
3.0.1	2019_Mar_08_1102	s	s	9	4	Capacity	61	ABS	0	0	1	1	24_1_1	NA	NA	0	1	1.41062402725	None	None	None	None	1
3.0.1	2019_Mar_08_1102	s	s	9	4	Capacity	62	ABS	0	0	4	1	24_4_1	NA	NA	0	1	0.721925020218	None	None	None	None	1
3.0.1	2019_Mar_08_1102	s	s	9	4	Capacity	63	ABS	0	0	1	1	24_1_1	NA	NA	0	1	1.1635799408	None	None	None	None	1
3.0.1	2019_Mar_08_1102	s	s	9	4	Capacity	64	3_1	3	1	1	1	23_1_1	2	0	1	0	0.555030107498	193.0	229.0	194.0	231.0	1
3.0.1	2019_Mar_08_1102	s	s	9	4	Capacity	65	1_1	1	1	3	1	23_3_1	2	0	1	0	0.86251783371	-88.0	280.0	-90.0	281.0	1
3.0.1	2019_Mar_08_1102	s	s	9	4	Capacity	66	1_1	1	1	2	1	23_2_1	1	0	1	0	1.73996591568	436.0	326.0	434.0	325.0	1
3.0.1	2019_Mar_08_1102	s	s	9	4	Capacity	67	4_1	4	1	3	1	23_3_1	1	0	1	0	0.555016040802	392.0	-304.0	395.0	-309.0	1
3.0.1	2019_Mar_08_1102	s	s	9	4	Capacity	68	ABS	0	0	3	1	24_3_1	NA	NA	0	1	1.82733988762	None	None	None	None	1
3.0.1	2019_Mar_08_1102	s	s	9	4	Capacity	69	4_1	4	1	2	1	23_2_1	2	0	1	0	0.646201848984	-391.0	343.0	-393.0	343.0	1
3.0.1	2019_Mar_08_1102	s	s	9	4	Capacity	70	ABS	0	0	3	1	24_3_1	NA	NA	0	1	1.21073508263	None	None	None	None	1
3.0.1	2019_Mar_08_1102	s	s	9	4	Capacity	71	ABS	0	0	2	1	24_2_1	NA	NA	0	1	2.38691306114	None	None	None	None	1
3.0.1	2019_Mar_08_1102	s	s	9	4	Capacity	72	ABS	0	0	1	1	24_1_1	NA	NA	0	1	2.16339302063	None	None	None	None	1
3.0.1	2019_Mar_08_1102	s	s	9	4	Capacity	73	4_1	4	1	2	1	23_2_1	2	0	1	0	0.64618396759	-499.0	-303.0	-498.0	-304.0	1
3.0.1	2019_Mar_08_1102	s	s	9	4	Capacity	74	ABS	0	0	2	1	24_2_1	NA	NA	0	1	1.04607796669	None	None	None	None	1
3.0.1	2019_Mar_08_1102	s	s	9	4	Capacity	75	ABS	0	0	2	1	24_2_1	NA	NA	0	1	1.39890313148	None	None	None	None	1
3.0.1	2019_Mar_08_1102	s	s	9	4	Capacity	76	ABS	0	0	3	1	24_3_1	NA	NA	0	1	2.210490942	None	None	None	None	1
3.0.1	2019_Mar_08_1102	s	s	9	4	Capacity	77	2_1	2	1	3	1	23_3_1	1	0	1	0	0.716914176941	313.0	359.0	315.0	360.0	1
3.0.1	2019_Mar_08_1102	s	s	9	4	Capacity	78	ABS	0	0	3	1	24_3_1	NA	NA	0	1	1.78990602493	None	None	None	None	1
3.0.1	2019_Mar_08_1102	s	s	9	4	Capacity	79	ABS	0	0	1	1	24_1_1	NA	NA	0	1	2.04938411713	None	None	None	None	1
3.0.1	2019_Mar_08_1102	s	s	9	4	Capacity	80	2_1	2	1	4	1	23_4_1	2	0	1	0	0.614804029465	64.0	324.0	64.0	328.0	1
3.0.1	2019_Mar_08_1102	s	s	9	4	Capacity	81	ABS	0	0	1	1	24_1_1	NA	NA	0	1	1.86391115189	None	None	None	None	1
3.0.1	2019_Mar_08_1102	s	s	9	4	Capacity	82	1_1	1	1	3	1	23_3_1	2	0	1	0	0.505125045776	-257.0	240.0	-259.0	236.0	1
3.0.1	2019_Mar_08_1102	s	s	9	4	Capacity	83	ABS	0	0	2	1	24_2_1	NA	NA	0	1	1.44592905045	None	None	None	None	1
3.0.1	2019_Mar_08_1102	s	s	9	4	Capacity	84	ABS	0	0	3	1	24_3_1	NA	NA	0	1	1.38083910942	None	None	None	None	1
3.0.1	2019_Mar_08_1102	s	s	9	4	Capacity	85	4_1	4	1	3	1	23_3_1	1	0	1	0	0.540417909622	-81.0	189.0	-79.0	189.0	1
3.0.1	2019_Mar_08_1102	s	s	9	4	Capacity	86	1_1	1	1	2	1	23_2_1	1	0	1	0	1.44603514671	228.0	-124.0	226.0	-124.0	1
3.0.1	2019_Mar_08_1102	s	s	9	4	Capacity	87	1_1	1	1	4	1	23_4_1	3	0	1	0	0.462563991547	-255.0	138.0	-255.0	137.0	1
3.0.1	2019_Mar_08_1102	s	s	9	4	Capacity	88	3_1	3	1	2	1	23_2_1	1	0	1	0	0.57560300827	502.0	129.0	503.0	125.0	1
3.0.1	2019_Mar_08_1102	s	s	9	4	Capacity	89	2_1	2	1	1	1	23_1_1	-1	0	0	1	1.4370598793	95.0	54.0	None	None	0
3.0.1	2019_Mar_08_1102	s	s	9	4	Capacity	90	ABS	0	0	4	1	24_4_1	NA	NA	0	1	0.907835006714	None	None	None	None	1
3.0.1	2019_Mar_08_1102	s	s	9	4	Capacity	91	4_1	4	1	1	1	23_1_1	3	0	1	0	0.5756919384	485.0	266.0	486.0	268.0	1
3.0.1	2019_Mar_08_1102	s	s	9	4	Capacity	92	ABS	0	0	4	1	24_4_1	NA	NA	0	1	0.822578907013	None	None	None	None	1
3.0.1	2019_Mar_08_1102	s	s	9	4	Capacity	93	3_1	3	1	1	1	23_1_1	2	0	1	0	0.681841135025	-52.0	396.0	-48.0	398.0	1
3.0.1	2019_Mar_08_1102	s	s	9	4	Capacity	94	3_1	3	1	4	1	23_4_1	-1	0	1	0	0.563873052597	-74.0	134.0	-72.0	124.0	1
3.0.1	2019_Mar_08_1102	s	s	9	4	Capacity	95	ABS	0	0	4	1	24_4_1	NA	NA	0	1	0.975562095642	None	None	None	None	1
3.0.1	2019_Mar_08_1102	s	s	9	4	Capacity	96	ABS	0	0	1	1	24_1_1	NA	NA	0	1	2.19201898575	None	None	None	None	1
3.0.1	2019_Mar_08_1102	s	s	9	4	Capacity	1	ABS	0	0	1	4	24_1_4	NA	NA	0	1	1.42535400391	None	None	None	None	1
3.0.1	2019_Mar_08_1102	s	s	9	4	Capacity	2	ABS	0	0	1	2	24_1_2	NA	NA	0	1	3.71586799622	None	None	None	None	1
3.0.1	2019_Mar_08_1102	s	s	9	4	Capacity	3	ABS	0	0	1	3	24_1_3	NA	NA	0	1	2.84843420982	None	None	None	None	1
3.0.1	2019_Mar_08_1102	s	s	9	4	Capacity	4	1_4	1	4	1	2	23_1_2	0	2	1	0	0.907870054245	-198.0	-389.0	-195.0	-396.0	1
3.0.1	2019_Mar_08_1102	s	s	9	4	Capacity	5	ABS	0	0	1	2	24_1_2	NA	NA	0	1	3.35126209259	None	None	None	None	1
3.0.1	2019_Mar_08_1102	s	s	9	4	Capacity	6	1_3	1	3	1	4	23_1_4	0	-1	1	0	0.675034046173	222.0	-2.0	224.0	-8.0	1
3.0.1	2019_Mar_08_1102	s	s	9	4	Capacity	7	1_2	1	2	1	1	23_1_1	0	-1	1	0	2.18699812889	291.0	411.0	294.0	410.0	1
3.0.1	2019_Mar_08_1102	s	s	9	4	Capacity	8	1_3	1	3	1	1	23_1_1	0	2	1	0	1.95165801048	-306.0	-269.0	-303.0	-265.0	1
3.0.1	2019_Mar_08_1102	s	s	9	4	Capacity	9	1_4	1	4	1	1	23_1_1	0	3	1	0	0.580543994904	268.0	356.0	274.0	348.0	1
3.0.1	2019_Mar_08_1102	s	s	9	4	Capacity	10	ABS	0	0	1	2	24_1_2	NA	NA	0	1	3.88542795181	None	None	None	None	1
3.0.1	2019_Mar_08_1102	s	s	9	4	Capacity	11	ABS	0	0	1	4	24_1_4	NA	NA	0	1	2.1108379364	None	None	None	None	1
3.0.1	2019_Mar_08_1102	s	s	9	4	Capacity	12	ABS	0	0	1	1	24_1_1	NA	NA	0	1	2.52104496956	None	None	None	None	1
3.0.1	2019_Mar_08_1102	s	s	9	4	Capacity	13	1_4	1	4	1	3	23_1_3	0	1	1	0	0.874983072281	513.0	316.0	516.0	313.0	1
3.0.1	2019_Mar_08_1102	s	s	9	4	Capacity	14	1_1	1	1	1	2	23_1_2	0	1	1	0	1.27519011497	-211.0	371.0	-208.0	365.0	1
3.0.1	2019_Mar_08_1102	s	s	9	4	Capacity	15	ABS	0	0	1	1	24_1_1	NA	NA	0	1	1.95827889442	None	None	None	None	1
3.0.1	2019_Mar_08_1102	s	s	9	4	Capacity	16	1_1	1	1	1	4	23_1_4	0	3	1	0	0.613858938217	-311.0	58.0	-312.0	55.0	1
3.0.1	2019_Mar_08_1102	s	s	9	4	Capacity	17	1_2	1	2	1	3	23_1_3	0	1	1	0	1.54559111595	-523.0	-76.0	-519.0	-74.0	1
3.0.1	2019_Mar_08_1102	s	s	9	4	Capacity	18	ABS	0	0	1	3	24_1_3	NA	NA	0	1	3.49238204956	None	None	None	None	1
3.0.1	2019_Mar_08_1102	s	s	9	4	Capacity	19	1_1	1	1	1	3	23_1_3	0	2	1	0	1.43438410759	244.0	288.0	245.0	287.0	1
3.0.1	2019_Mar_08_1102	s	s	9	4	Capacity	20	1_2	1	2	1	4	23_1_4	0	2	1	0	0.834388971329	-152.0	201.0	-154.0	197.0	1
3.0.1	2019_Mar_08_1102	s	s	9	4	Capacity	21	ABS	0	0	1	3	24_1_3	NA	NA	0	1	3.78956794739	None	None	None	None	1
3.0.1	2019_Mar_08_1102	s	s	9	4	Capacity	22	ABS	0	0	1	1	24_1_1	NA	NA	0	1	2.24906682968	None	None	None	None	1
3.0.1	2019_Mar_08_1102	s	s	9	4	Capacity	23	ABS	0	0	1	4	24_1_4	NA	NA	0	1	1.2342479229	None	None	None	None	1
3.0.1	2019_Mar_08_1102	s	s	9	4	Capacity	24	1_3	1	3	1	2	23_1_2	0	1	1	0	1.28164601326	397.0	-145.0	393.0	-142.0	1
3.0.1	2019_Mar_08_1102	s	s	9	4	Capacity	25	1_3	1	3	1	1	23_1_1	0	2	1	0	0.716742992401	282.0	19.0	279.0	17.0	1
3.0.1	2019_Mar_08_1102	s	s	9	4	Capacity	26	1_3	1	3	1	4	23_1_4	0	-1	1	0	0.735881090164	-528.0	-162.0	-526.0	-162.0	1
3.0.1	2019_Mar_08_1102	s	s	9	4	Capacity	27	1_4	1	4	1	1	23_1_1	0	3	1	0	0.613877058029	273.0	404.0	273.0	403.0	1
3.0.1	2019_Mar_08_1102	s	s	9	4	Capacity	28	1_1	1	1	1	3	23_1_3	0	2	1	0	0.966636896133	-374.0	194.0	-383.0	195.0	1
3.0.1	2019_Mar_08_1102	s	s	9	4	Capacity	29	ABS	0	0	1	1	24_1_1	NA	NA	0	1	1.82236194611	None	None	None	None	1
3.0.1	2019_Mar_08_1102	s	s	9	4	Capacity	30	ABS	0	0	1	2	24_1_2	NA	NA	0	1	4.48036289215	None	None	None	None	1
3.0.1	2019_Mar_08_1102	s	s	9	4	Capacity	31	ABS	0	0	1	3	24_1_3	NA	NA	0	1	2.53311610222	None	None	None	None	1
3.0.1	2019_Mar_08_1102	s	s	9	4	Capacity	32	1_4	1	4	1	3	23_1_3	0	1	1	0	2.75145506859	-516.0	-338.0	-515.0	-345.0	1
3.0.1	2019_Mar_08_1102	s	s	9	4	Capacity	33	1_4	1	4	1	2	23_1_2	0	2	1	0	0.639562129974	-312.0	-186.0	-311.0	-192.0	1
3.0.1	2019_Mar_08_1102	s	s	9	4	Capacity	34	ABS	0	0	1	1	24_1_1	NA	NA	0	1	1.80361604691	None	None	None	None	1
3.0.1	2019_Mar_08_1102	s	s	9	4	Capacity	35	ABS	0	0	1	1	24_1_1	NA	NA	0	1	2.24574494362	None	None	None	None	1
3.0.1	2019_Mar_08_1102	s	s	9	4	Capacity	36	1_1	1	1	1	2	23_1_2	0	1	1	0	3.93964886665	127.0	-284.0	122.0	-281.0	1
3.0.1	2019_Mar_08_1102	s	s	9	4	Capacity	37	ABS	0	0	1	3	24_1_3	NA	NA	0	1	2.92144298553	None	None	None	None	1
3.0.1	2019_Mar_08_1102	s	s	9	4	Capacity	38	ABS	0	0	1	2	24_1_2	NA	NA	0	1	3.38654613495	None	None	None	None	1
3.0.1	2019_Mar_08_1102	s	s	9	4	Capacity	39	1_3	1	3	1	2	23_1_2	0	1	1	0	1.12079191208	-331.0	8.0	-333.0	10.0	1
3.0.1	2019_Mar_08_1102	s	s	9	4	Capacity	40	1_1	1	1	1	4	23_1_4	0	3	1	0	0.587407112122	-263.0	-169.0	-261.0	-173.0	1
3.0.1	2019_Mar_08_1102	s	s	9	4	Capacity	41	ABS	0	0	1	3	24_1_3	NA	NA	0	1	4.11020493507	None	None	None	None	1
3.0.1	2019_Mar_08_1102	s	s	9	4	Capacity	42	ABS	0	0	1	2	24_1_2	NA	NA	0	1	4.73917007446	None	None	None	None	1
3.0.1	2019_Mar_08_1102	s	s	9	4	Capacity	43	ABS	0	0	1	4	24_1_4	NA	NA	0	1	1.10483980179	None	None	None	None	1
3.0.1	2019_Mar_08_1102	s	s	9	4	Capacity	44	ABS	0	0	1	4	24_1_4	NA	NA	0	1	1.08428001404	None	None	None	None	1
3.0.1	2019_Mar_08_1102	s	s	9	4	Capacity	45	1_2	1	2	1	4	23_1_4	0	2	1	0	0.528695106506	63.0	-36.0	60.0	-39.0	1
3.0.1	2019_Mar_08_1102	s	s	9	4	Capacity	46	1_2	1	2	1	3	23_1_3	0	1	1	0	1.15610480309	-490.0	-335.0	-479.0	-331.0	1
3.0.1	2019_Mar_08_1102	s	s	9	4	Capacity	47	1_2	1	2	1	1	23_1_1	0	-1	0	1	2.28139686584	233.0	128.0	None	None	0
3.0.1	2019_Mar_08_1102	s	s	9	4	Capacity	48	ABS	0	0	1	4	24_1_4	NA	NA	0	1	1.12156605721	None	None	None	None	1
3.0.1	2019_Mar_08_1102	s	s	9	4	Capacity	49	ABS	0	0	1	4	24_1_4	NA	NA	0	1	1.75567889214	None	None	None	None	1
3.0.1	2019_Mar_08_1102	s	s	9	4	Capacity	50	ABS	0	0	1	2	24_1_2	NA	NA	0	1	4.43618512154	None	None	None	None	1
3.0.1	2019_Mar_08_1102	s	s	9	4	Capacity	51	1_1	1	1	1	2	23_1_2	0	1	1	0	5.64884185791	-188.0	34.0	-183.0	35.0	1
3.0.1	2019_Mar_08_1102	s	s	9	4	Capacity	52	ABS	0	0	1	2	24_1_2	NA	NA	0	1	3.77469491959	None	None	None	None	1
3.0.1	2019_Mar_08_1102	s	s	9	4	Capacity	53	1_1	1	1	1	3	23_1_3	0	2	1	0	2.25232315063	494.0	-285.0	496.0	-287.0	1
3.0.1	2019_Mar_08_1102	s	s	9	4	Capacity	54	ABS	0	0	1	1	24_1_1	NA	NA	0	1	2.38423585892	None	None	None	None	1
3.0.1	2019_Mar_08_1102	s	s	9	4	Capacity	55	1_2	1	2	1	1	23_1_1	0	-1	1	0	2.19329190254	-343.0	-225.0	-346.0	-220.0	1
3.0.1	2019_Mar_08_1102	s	s	9	4	Capacity	56	ABS	0	0	1	1	24_1_1	NA	NA	0	1	2.34479594231	None	None	None	None	1
3.0.1	2019_Mar_08_1102	s	s	9	4	Capacity	57	1_2	1	2	1	4	23_1_4	0	2	1	0	0.80418586731	-140.0	-166.0	-135.0	-170.0	1
3.0.1	2019_Mar_08_1102	s	s	9	4	Capacity	58	1_4	1	4	1	1	23_1_1	0	3	1	0	0.592261075974	-300.0	11.0	-296.0	4.0	1
3.0.1	2019_Mar_08_1102	s	s	9	4	Capacity	59	ABS	0	0	1	2	24_1_2	NA	NA	0	1	5.53081989288	None	None	None	None	1
3.0.1	2019_Mar_08_1102	s	s	9	4	Capacity	60	1_3	1	3	1	2	23_1_2	0	1	1	0	1.07413506508	-297.0	182.0	-295.0	176.0	1
3.0.1	2019_Mar_08_1102	s	s	9	4	Capacity	61	1_3	1	3	1	4	23_1_4	0	-1	1	0	1.00428104401	335.0	-401.0	333.0	-399.0	1
3.0.1	2019_Mar_08_1102	s	s	9	4	Capacity	62	ABS	0	0	1	3	24_1_3	NA	NA	0	1	2.77492594719	None	None	None	None	1
3.0.1	2019_Mar_08_1102	s	s	9	4	Capacity	63	ABS	0	0	1	3	24_1_3	NA	NA	0	1	2.35151100159	None	None	None	None	1
3.0.1	2019_Mar_08_1102	s	s	9	4	Capacity	64	ABS	0	0	1	3	24_1_3	NA	NA	0	1	2.68682312965	None	None	None	None	1
3.0.1	2019_Mar_08_1102	s	s	9	4	Capacity	65	1_4	1	4	1	3	23_1_3	0	1	1	0	0.67360496521	-123.0	22.0	-122.0	26.0	1
3.0.1	2019_Mar_08_1102	s	s	9	4	Capacity	66	1_3	1	3	1	1	23_1_1	0	2	1	0	0.799115896225	-110.0	40.0	-113.0	39.0	1
3.0.1	2019_Mar_08_1102	s	s	9	4	Capacity	67	1_1	1	1	1	4	23_1_4	0	3	1	0	0.599165916443	-323.0	-364.0	-326.0	-361.0	1
3.0.1	2019_Mar_08_1102	s	s	9	4	Capacity	68	1_2	1	2	1	3	23_1_3	0	1	1	0	1.20185303688	386.0	344.0	382.0	341.0	1
3.0.1	2019_Mar_08_1102	s	s	9	4	Capacity	69	ABS	0	0	1	4	24_1_4	NA	NA	0	1	1.10945606232	None	None	None	None	1
3.0.1	2019_Mar_08_1102	s	s	9	4	Capacity	70	ABS	0	0	1	1	24_1_1	NA	NA	0	1	2.89740896225	None	None	None	None	1
3.0.1	2019_Mar_08_1102	s	s	9	4	Capacity	71	1_4	1	4	1	2	23_1_2	0	2	1	0	0.672621965408	-94.0	-135.0	-88.0	-137.0	1
3.0.1	2019_Mar_08_1102	s	s	9	4	Capacity	72	ABS	0	0	1	4	24_1_4	NA	NA	0	1	1.03432703018	None	None	None	None	1
3.0.1	2019_Mar_08_1102	s	s	9	4	Capacity	73	1_2	1	2	1	1	23_1_1	0	-1	1	0	1.18729305267	432.0	292.0	440.0	292.0	1
3.0.1	2019_Mar_08_1102	s	s	9	4	Capacity	74	1_1	1	1	1	2	23_1_2	0	1	1	0	2.44332194328	400.0	-350.0	398.0	-347.0	1
3.0.1	2019_Mar_08_1102	s	s	9	4	Capacity	75	1_4	1	4	1	1	23_1_1	0	3	1	0	0.731371879578	-221.0	-270.0	-223.0	-277.0	1
3.0.1	2019_Mar_08_1102	s	s	9	4	Capacity	76	ABS	0	0	1	4	24_1_4	NA	NA	0	1	1.21079587936	None	None	None	None	1
3.0.1	2019_Mar_08_1102	s	s	9	4	Capacity	77	1_1	1	1	1	4	23_1_4	0	3	1	0	0.474539041519	47.0	37.0	44.0	31.0	1
3.0.1	2019_Mar_08_1102	s	s	9	4	Capacity	78	ABS	0	0	1	2	24_1_2	NA	NA	0	1	4.45004200935	None	None	None	None	1
3.0.1	2019_Mar_08_1102	s	s	9	4	Capacity	79	1_3	1	3	1	2	23_1_2	0	1	1	0	3.33946990967	-240.0	-100.0	-239.0	-97.0	1
3.0.1	2019_Mar_08_1102	s	s	9	4	Capacity	80	1_3	1	3	1	1	23_1_1	0	2	1	0	1.03737187386	-486.0	247.0	-487.0	249.0	1
3.0.1	2019_Mar_08_1102	s	s	9	4	Capacity	81	ABS	0	0	1	1	24_1_1	NA	NA	0	1	2.61965417862	None	None	None	None	1
3.0.1	2019_Mar_08_1102	s	s	9	4	Capacity	82	ABS	0	0	1	3	24_1_3	NA	NA	0	1	3.36785006523	None	None	None	None	1
3.0.1	2019_Mar_08_1102	s	s	9	4	Capacity	83	ABS	0	0	1	3	24_1_3	NA	NA	0	1	2.8977189064	None	None	None	None	1
3.0.1	2019_Mar_08_1102	s	s	9	4	Capacity	84	1_2	1	2	1	3	23_1_3	0	1	1	0	0.975535869598	-238.0	158.0	-242.0	162.0	1
3.0.1	2019_Mar_08_1102	s	s	9	4	Capacity	85	1_1	1	1	1	3	23_1_3	0	2	1	0	0.796834945679	136.0	256.0	136.0	254.0	1
3.0.1	2019_Mar_08_1102	s	s	9	4	Capacity	86	1_4	1	4	1	2	23_1_2	0	2	1	0	0.85791683197	-234.0	94.0	-230.0	89.0	1
3.0.1	2019_Mar_08_1102	s	s	9	4	Capacity	87	1_4	1	4	1	3	23_1_3	0	1	1	0	0.646188020706	-395.0	200.0	-391.0	201.0	1
3.0.1	2019_Mar_08_1102	s	s	9	4	Capacity	88	ABS	0	0	1	4	24_1_4	NA	NA	0	1	0.952083826065	None	None	None	None	1
3.0.1	2019_Mar_08_1102	s	s	9	4	Capacity	89	ABS	0	0	1	2	24_1_2	NA	NA	0	1	3.80994081497	None	None	None	None	1
3.0.1	2019_Mar_08_1102	s	s	9	4	Capacity	90	ABS	0	0	1	1	24_1_1	NA	NA	0	1	1.82234287262	None	None	None	None	1
3.0.1	2019_Mar_08_1102	s	s	9	4	Capacity	91	ABS	0	0	1	1	24_1_1	NA	NA	0	1	1.99872112274	None	None	None	None	1
3.0.1	2019_Mar_08_1102	s	s	9	4	Capacity	92	ABS	0	0	1	4	24_1_4	NA	NA	0	1	1.07001900673	None	None	None	None	1
3.0.1	2019_Mar_08_1102	s	s	9	4	Capacity	93	1_2	1	2	1	4	23_1_4	0	2	1	0	0.646191120148	-147.0	-211.0	-147.0	-212.0	1
3.0.1	2019_Mar_08_1102	s	s	9	4	Capacity	94	ABS	0	0	1	3	24_1_3	NA	NA	0	1	2.69259500504	None	None	None	None	1
3.0.1	2019_Mar_08_1102	s	s	9	4	Capacity	95	1_3	1	3	1	4	23_1_4	0	-1	1	0	0.602068901062	332.0	-17.0	329.0	-22.0	1
3.0.1	2019_Mar_08_1102	s	s	9	4	Capacity	96	ABS	0	0	1	2	24_1_2	NA	NA	0	1	4.33127593994	None	None	None	None	1
3.0.1	2019_Mar_08_1102	s	s	9	4	SIC	1	ABS	0	0	2	2	24_2_2	NA	NA	0	1	3.71594595909	None	None	None	None	1
3.0.1	2019_Mar_08_1102	s	s	9	4	SIC	2	ABS	0	0	2	2	24_2_2	NA	NA	0	1	5.39808511734	None	None	None	None	1
3.0.1	2019_Mar_08_1102	s	s	9	4	SIC	3	3_3	3	3	1	2	23_1_2	2	1	1	0	0.698958873749	293.0	54.0	296.0	62.0	1
3.0.1	2019_Mar_08_1102	s	s	9	4	SIC	4	1_1	1	1	1	3	23_1_3	0	2	1	0	1.3558909893	280.0	-33.0	291.0	-30.0	1
3.0.1	2019_Mar_08_1102	s	s	9	4	SIC	5	1_2	1	2	1	3	23_1_3	0	1	1	0	1.29766821861	293.0	172.0	292.0	175.0	1
3.0.1	2019_Mar_08_1102	s	s	9	4	SIC	6	1_2	1	2	3	2	23_3_2	2	0	1	0	0.53359079361	400.0	260.0	396.0	263.0	1
3.0.1	2019_Mar_08_1102	s	s	9	4	SIC	7	2_3	2	3	2	4	23_2_4	0	-1	1	0	0.752459049225	387.0	170.0	393.0	165.0	1
3.0.1	2019_Mar_08_1102	s	s	9	4	SIC	8	4_2	4	2	4	4	23_4_4	0	2	1	0	0.740326166153	480.0	-289.0	481.0	-295.0	1
3.0.1	2019_Mar_08_1102	s	s	9	4	SIC	9	ABS	0	0	1	4	24_1_4	NA	NA	0	1	1.64576387405	None	None	None	None	1
3.0.1	2019_Mar_08_1102	s	s	9	4	SIC	10	ABS	0	0	2	2	24_2_2	NA	NA	0	1	5.22129702568	None	None	None	None	1
3.0.1	2019_Mar_08_1102	s	s	9	4	SIC	11	ABS	0	0	3	3	24_3_3	NA	NA	0	1	2.77497911453	None	None	None	None	1
3.0.1	2019_Mar_08_1102	s	s	9	4	SIC	12	ABS	0	0	1	1	24_1_1	NA	NA	0	1	2.30486106873	None	None	None	None	1
3.0.1	2019_Mar_08_1102	s	s	9	4	SIC	13	ABS	0	0	4	4	24_4_4	NA	NA	0	1	0.754989147186	None	None	None	None	1
3.0.1	2019_Mar_08_1102	s	s	9	4	SIC	14	ABS	0	0	3	1	24_3_1	NA	NA	0	1	2.16859602928	None	None	None	None	1
3.0.1	2019_Mar_08_1102	s	s	9	4	SIC	15	3_4	3	4	3	3	23_3_3	0	1	1	0	0.716871023178	-101.0	77.0	-100.0	71.0	1
3.0.1	2019_Mar_08_1102	s	s	9	4	SIC	16	ABS	0	0	1	1	24_1_1	NA	NA	0	1	3.32800388336	None	None	None	None	1
3.0.1	2019_Mar_08_1102	s	s	9	4	SIC	17	2_3	2	3	4	2	23_4_2	2	1	1	0	0.473676919937	-193.0	271.0	-192.0	269.0	1
3.0.1	2019_Mar_08_1102	s	s	9	4	SIC	18	4_1	4	1	1	3	23_1_3	3	2	1	0	1.17540001869	464.0	319.0	465.0	319.0	1
3.0.1	2019_Mar_08_1102	s	s	9	4	SIC	19	ABS	0	0	2	1	24_2_1	NA	NA	0	1	2.53226590157	None	None	None	None	1
3.0.1	2019_Mar_08_1102	s	s	9	4	SIC	20	2_2	2	2	1	1	23_1_1	-1	-1	1	0	1.20851898193	315.0	-21.0	321.0	-20.0	1
3.0.1	2019_Mar_08_1102	s	s	9	4	SIC	21	ABS	0	0	3	4	24_3_4	NA	NA	0	1	1.17966508865	None	None	None	None	1
3.0.1	2019_Mar_08_1102	s	s	9	4	SIC	22	3_3	3	3	2	1	23_2_1	1	2	1	0	0.562255144119	-48.0	90.0	-47.0	84.0	1
3.0.1	2019_Mar_08_1102	s	s	9	4	SIC	23	2_2	2	2	4	2	23_4_2	2	0	1	0	0.512731075287	308.0	258.0	311.0	253.0	1
3.0.1	2019_Mar_08_1102	s	s	9	4	SIC	24	ABS	0	0	1	4	24_1_4	NA	NA	0	1	0.957858085632	None	None	None	None	1
3.0.1	2019_Mar_08_1102	s	s	9	4	SIC	25	3_3	3	3	2	3	23_2_3	1	0	1	0	0.731303930283	-105.0	-125.0	-107.0	-132.0	1
3.0.1	2019_Mar_08_1102	s	s	9	4	SIC	26	4_2	4	2	1	4	23_1_4	3	2	1	0	0.52859210968	-389.0	-272.0	-392.0	-275.0	1
3.0.1	2019_Mar_08_1102	s	s	9	4	SIC	27	1_3	1	3	4	4	23_4_4	3	-1	1	0	0.481586933136	-321.0	275.0	-318.0	272.0	1
3.0.1	2019_Mar_08_1102	s	s	9	4	SIC	28	1_1	1	1	2	1	23_2_1	1	0	1	0	1.63414597511	-267.0	-152.0	-271.0	-159.0	1
3.0.1	2019_Mar_08_1102	s	s	9	4	SIC	29	4_3	4	3	3	1	23_3_1	1	2	1	0	0.528951883316	-142.0	-118.0	-140.0	-115.0	1
3.0.1	2019_Mar_08_1102	s	s	9	4	SIC	30	ABS	0	0	1	3	24_1_3	NA	NA	0	1	4.12754297256	None	None	None	None	1
3.0.1	2019_Mar_08_1102	s	s	9	4	SIC	31	ABS	0	0	4	3	24_4_3	NA	NA	0	1	3.69520711899	None	None	None	None	1
3.0.1	2019_Mar_08_1102	s	s	9	4	SIC	32	1_1	1	1	3	4	23_3_4	2	3	1	0	0.516839027405	81.0	164.0	79.0	160.0	1
3.0.1	2019_Mar_08_1102	s	s	9	4	SIC	33	ABS	0	0	1	4	24_1_4	NA	NA	0	1	1.87500190735	None	None	None	None	1
3.0.1	2019_Mar_08_1102	s	s	9	4	SIC	34	2_2	2	2	2	1	23_2_1	0	-1	0	1	3.97942996025	-239.0	-395.0	None	None	0
3.0.1	2019_Mar_08_1102	s	s	9	4	SIC	35	ABS	0	0	4	2	24_4_2	NA	NA	0	1	4.69201612473	None	None	None	None	1
3.0.1	2019_Mar_08_1102	s	s	9	4	SIC	36	2_4	2	4	1	1	23_1_1	-1	3	1	0	1.5282459259	27.0	151.0	30.0	152.0	1
3.0.1	2019_Mar_08_1102	s	s	9	4	SIC	37	3_3	3	3	3	4	23_3_4	0	-1	1	0	0.73370718956	271.0	-268.0	271.0	-262.0	1
3.0.1	2019_Mar_08_1102	s	s	9	4	SIC	38	ABS	0	0	3	2	24_3_2	NA	NA	0	1	4.41453886032	None	None	None	None	1
3.0.1	2019_Mar_08_1102	s	s	9	4	SIC	39	ABS	0	0	4	4	24_4_4	NA	NA	0	1	1.16823506355	None	None	None	None	1
3.0.1	2019_Mar_08_1102	s	s	9	4	SIC	40	ABS	0	0	2	3	24_2_3	NA	NA	0	1	3.09793186188	None	None	None	None	1
3.0.1	2019_Mar_08_1102	s	s	9	4	SIC	41	ABS	0	0	1	4	24_1_4	NA	NA	0	1	1.30490612984	None	None	None	None	1
3.0.1	2019_Mar_08_1102	s	s	9	4	SIC	42	ABS	0	0	4	3	24_4_3	NA	NA	0	1	2.61326503754	None	None	None	None	1
3.0.1	2019_Mar_08_1102	s	s	9	4	SIC	43	1_3	1	3	2	3	23_2_3	1	0	1	0	1.84866213799	22.0	-368.0	18.0	-368.0	1
3.0.1	2019_Mar_08_1102	s	s	9	4	SIC	44	ABS	0	0	4	3	24_4_3	NA	NA	0	1	3.17489504814	None	None	None	None	1
3.0.1	2019_Mar_08_1102	s	s	9	4	SIC	45	ABS	0	0	2	3	24_2_3	NA	NA	0	1	2.69277381897	None	None	None	None	1
3.0.1	2019_Mar_08_1102	s	s	9	4	SIC	46	1_2	1	2	4	4	23_4_4	3	2	1	0	0.569244146347	193.0	-250.0	194.0	-251.0	1
3.0.1	2019_Mar_08_1102	s	s	9	4	SIC	47	4_4	4	4	1	3	23_1_3	3	1	1	0	0.533658981323	-498.0	-402.0	-497.0	-399.0	1
3.0.1	2019_Mar_08_1102	s	s	9	4	SIC	48	ABS	0	0	1	3	24_1_3	NA	NA	0	1	3.99259901047	None	None	None	None	1
3.0.1	2019_Mar_08_1102	s	s	9	4	SIC	49	3_4	3	4	1	2	23_1_2	2	2	1	0	0.616428136826	515.0	77.0	516.0	75.0	1
3.0.1	2019_Mar_08_1102	s	s	9	4	SIC	50	ABS	0	0	4	2	24_4_2	NA	NA	0	1	4.14213895798	None	None	None	None	1
3.0.1	2019_Mar_08_1102	s	s	9	4	SIC	51	3_4	3	4	4	3	23_4_3	-1	1	1	0	0.505039930344	251.0	-87.0	257.0	-92.0	1
3.0.1	2019_Mar_08_1102	s	s	9	4	SIC	52	ABS	0	0	4	1	24_4_1	NA	NA	0	1	2.501734972	None	None	None	None	1
3.0.1	2019_Mar_08_1102	s	s	9	4	SIC	53	ABS	0	0	2	1	24_2_1	NA	NA	0	1	2.30493617058	None	None	None	None	1
3.0.1	2019_Mar_08_1102	s	s	9	4	SIC	54	4_3	4	3	2	1	23_2_1	2	2	1	0	0.599166154861	82.0	-274.0	80.0	-272.0	1
3.0.1	2019_Mar_08_1102	s	s	9	4	SIC	55	1_2	1	2	1	4	23_1_4	0	2	1	0	0.775532007217	-352.0	-206.0	-351.0	-209.0	1
3.0.1	2019_Mar_08_1102	s	s	9	4	SIC	56	2_2	2	2	3	2	23_3_2	1	0	1	0	0.6389939785	-419.0	-156.0	-424.0	-161.0	1
3.0.1	2019_Mar_08_1102	s	s	9	4	SIC	57	1_3	1	3	3	1	23_3_1	2	2	1	0	0.540790081024	468.0	-3.0	468.0	-3.0	1
3.0.1	2019_Mar_08_1102	s	s	9	4	SIC	58	ABS	0	0	2	4	24_2_4	NA	NA	0	1	3.55626487732	None	None	None	None	1
3.0.1	2019_Mar_08_1102	s	s	9	4	SIC	59	4_1	4	1	3	1	23_3_1	1	0	1	0	0.439975976944	92.0	400.0	94.0	401.0	1
3.0.1	2019_Mar_08_1102	s	s	9	4	SIC	60	ABS	0	0	4	2	24_4_2	NA	NA	0	1	4.24514102936	None	None	None	None	1
3.0.1	2019_Mar_08_1102	s	s	9	4	SIC	61	ABS	0	0	1	3	24_1_3	NA	NA	0	1	3.26443099976	None	None	None	None	1
3.0.1	2019_Mar_08_1102	s	s	9	4	SIC	62	1_2	1	2	4	2	23_4_2	3	0	1	0	0.554993867874	501.0	-104.0	503.0	-111.0	1
3.0.1	2019_Mar_08_1102	s	s	9	4	SIC	63	ABS	0	0	4	4	24_4_4	NA	NA	0	1	0.893204927444	None	None	None	None	1
3.0.1	2019_Mar_08_1102	s	s	9	4	SIC	64	3_2	3	2	1	4	23_1_4	2	2	1	0	0.672606945038	489.0	32.0	497.0	32.0	1
3.0.1	2019_Mar_08_1102	s	s	9	4	SIC	65	ABS	0	0	1	1	24_1_1	NA	NA	0	1	1.56356716156	None	None	None	None	1
3.0.1	2019_Mar_08_1102	s	s	9	4	SIC	66	ABS	0	0	4	4	24_4_4	NA	NA	0	1	0.945281028748	None	None	None	None	1
3.0.1	2019_Mar_08_1102	s	s	9	4	SIC	67	ABS	0	0	1	4	24_1_4	NA	NA	0	1	1.26070284843	None	None	None	None	1
3.0.1	2019_Mar_08_1102	s	s	9	4	SIC	68	1_4	1	4	2	1	23_2_1	1	3	1	0	0.618098974228	162.0	-106.0	163.0	-110.0	1
3.0.1	2019_Mar_08_1102	s	s	9	4	SIC	69	ABS	0	0	4	1	24_4_1	NA	NA	0	1	0.912513017654	None	None	None	None	1
3.0.1	2019_Mar_08_1102	s	s	9	4	SIC	70	ABS	0	0	3	2	24_3_2	NA	NA	0	1	3.67163419724	None	None	None	None	1
3.0.1	2019_Mar_08_1102	s	s	9	4	SIC	71	ABS	0	0	4	3	24_4_3	NA	NA	0	1	2.99170708656	None	None	None	None	1
3.0.1	2019_Mar_08_1102	s	s	9	4	SIC	72	ABS	0	0	3	1	24_3_1	NA	NA	0	1	1.56374621391	None	None	None	None	1
3.0.1	2019_Mar_08_1102	s	s	9	4	SIC	73	1_4	1	4	2	4	23_2_4	1	0	0	1	2.01050901413	-41.0	239.0	None	None	0
3.0.1	2019_Mar_08_1102	s	s	9	4	SIC	74	3_3	3	3	4	4	23_4_4	-1	-1	1	0	0.540412902832	-218.0	115.0	-217.0	116.0	1
3.0.1	2019_Mar_08_1102	s	s	9	4	SIC	75	1_2	1	2	4	3	23_4_3	3	1	1	0	0.781167984009	-148.0	-161.0	-153.0	-166.0	1
3.0.1	2019_Mar_08_1102	s	s	9	4	SIC	76	ABS	0	0	3	3	24_3_3	NA	NA	0	1	1.84911298752	None	None	None	None	1
3.0.1	2019_Mar_08_1102	s	s	9	4	SIC	77	4_2	4	2	2	4	23_2_4	2	2	1	0	0.59120798111	64.0	89.0	60.0	90.0	1
3.0.1	2019_Mar_08_1102	s	s	9	4	SIC	78	ABS	0	0	4	2	24_4_2	NA	NA	0	1	2.98127913475	None	None	None	None	1
3.0.1	2019_Mar_08_1102	s	s	9	4	SIC	79	ABS	0	0	4	2	24_4_2	NA	NA	0	1	3.87470889091	None	None	None	None	1
3.0.1	2019_Mar_08_1102	s	s	9	4	SIC	80	ABS	0	0	3	2	24_3_2	NA	NA	0	1	4.32336497307	None	None	None	None	1
3.0.1	2019_Mar_08_1102	s	s	9	4	SIC	81	ABS	0	0	3	4	24_3_4	NA	NA	0	1	1.1636838913	None	None	None	None	1
3.0.1	2019_Mar_08_1102	s	s	9	4	SIC	82	ABS	0	0	2	2	24_2_2	NA	NA	0	1	4.47291898727	None	None	None	None	1
3.0.1	2019_Mar_08_1102	s	s	9	4	SIC	83	ABS	0	0	3	2	24_3_2	NA	NA	0	1	3.98637700081	None	None	None	None	1
3.0.1	2019_Mar_08_1102	s	s	9	4	SIC	84	3_2	3	2	2	4	23_2_4	1	2	1	0	0.693180084229	-471.0	-117.0	-465.0	-114.0	1
3.0.1	2019_Mar_08_1102	s	s	9	4	SIC	85	ABS	0	0	3	1	24_3_1	NA	NA	0	1	2.08396601677	None	None	None	None	1
3.0.1	2019_Mar_08_1102	s	s	9	4	SIC	86	2_3	2	3	4	1	23_4_1	2	2	1	0	0.646224021912	403.0	-219.0	410.0	-220.0	1
3.0.1	2019_Mar_08_1102	s	s	9	4	SIC	87	ABS	0	0	2	4	24_2_4	NA	NA	0	1	1.75182294846	None	None	None	None	1
3.0.1	2019_Mar_08_1102	s	s	9	4	SIC	88	3_2	3	2	2	3	23_2_3	1	1	1	0	0.622771024704	209.0	-43.0	209.0	-48.0	1
3.0.1	2019_Mar_08_1102	s	s	9	4	SIC	89	3_2	3	2	2	1	23_2_1	1	-1	1	0	0.579610109329	-88.0	-204.0	-88.0	-206.0	1
3.0.1	2019_Mar_08_1102	s	s	9	4	SIC	90	ABS	0	0	2	4	24_2_4	NA	NA	0	1	2.68075203896	None	None	None	None	1
3.0.1	2019_Mar_08_1102	s	s	9	4	SIC	91	ABS	0	0	2	2	24_2_2	NA	NA	0	1	5.20630407333	None	None	None	None	1
3.0.1	2019_Mar_08_1102	s	s	9	4	SIC	92	3_3	3	3	2	2	23_2_2	1	1	1	0	0.916656017303	317.0	-279.0	315.0	-276.0	1
3.0.1	2019_Mar_08_1102	s	s	9	4	SIC	93	2_4	2	4	3	3	23_3_3	1	1	1	0	0.540338039398	-373.0	-174.0	-376.0	-172.0	1
3.0.1	2019_Mar_08_1102	s	s	9	4	SIC	94	ABS	0	0	3	1	24_3_1	NA	NA	0	1	2.31119799614	None	None	None	None	1
3.0.1	2019_Mar_08_1102	s	s	9	4	SIC	95	ABS	0	0	2	3	24_2_3	NA	NA	0	1	4.08085107803	None	None	None	None	1
3.0.1	2019_Mar_08_1102	s	s	9	4	SIC	96	ABS	0	0	4	2	24_4_2	NA	NA	0	1	3.62174916267	None	None	None	None	1
3.0.1	2019_Mar_08_1102	s	s	9	4	SIC	97	ABS	0	0	2	2	24_2_2	NA	NA	0	1	3.51592922211	None	None	None	None	1
3.0.1	2019_Mar_08_1102	s	s	9	4	SIC	98	1_2	1	2	3	4	23_3_4	2	2	1	0	0.725879907608	179.0	-342.0	185.0	-345.0	1
3.0.1	2019_Mar_08_1102	s	s	9	4	SIC	99	ABS	0	0	1	2	24_1_2	NA	NA	0	1	2.83766293526	None	None	None	None	1
3.0.1	2019_Mar_08_1102	s	s	9	4	SIC	100	1_3	1	3	2	4	23_2_4	1	-1	1	0	0.855364084244	265.0	-336.0	266.0	-335.0	1
3.0.1	2019_Mar_08_1102	s	s	9	4	SIC	101	2_3	2	3	4	4	23_4_4	2	-1	1	0	0.469786882401	284.0	-75.0	282.0	-72.0	1
3.0.1	2019_Mar_08_1102	s	s	9	4	SIC	102	ABS	0	0	1	1	24_1_1	NA	NA	0	1	2.3095729351	None	None	None	None	1
3.0.1	2019_Mar_08_1102	s	s	9	4	SIC	103	3_4	3	4	3	1	23_3_1	0	3	1	0	0.716857910156	-463.0	120.0	-460.0	117.0	1
3.0.1	2019_Mar_08_1102	s	s	9	4	SIC	104	ABS	0	0	3	2	24_3_2	NA	NA	0	1	3.58001708984	None	None	None	None	1
3.0.1	2019_Mar_08_1102	s	s	9	4	SIC	105	4_2	4	2	1	1	23_1_1	3	-1	1	0	0.613806009293	38.0	36.0	33.0	34.0	1
3.0.1	2019_Mar_08_1102	s	s	9	4	SIC	106	ABS	0	0	3	2	24_3_2	NA	NA	0	1	3.19833397865	None	None	None	None	1
3.0.1	2019_Mar_08_1102	s	s	9	4	SIC	107	ABS	0	0	4	3	24_4_3	NA	NA	0	1	4.1863181591	None	None	None	None	1
3.0.1	2019_Mar_08_1102	s	s	9	4	SIC	108	ABS	0	0	3	1	24_3_1	NA	NA	0	1	1.98695492744	None	None	None	None	1
3.0.1	2019_Mar_08_1102	s	s	9	4	SIC	109	1_2	1	2	3	1	23_3_1	2	-1	1	0	0.709016084671	-384.0	139.0	-382.0	138.0	1
3.0.1	2019_Mar_08_1102	s	s	9	4	SIC	110	ABS	0	0	4	4	24_4_4	NA	NA	0	1	1.10492300987	None	None	None	None	1
3.0.1	2019_Mar_08_1102	s	s	9	4	SIC	111	4_1	4	1	4	4	23_4_4	0	3	1	0	0.849035978317	-327.0	-405.0	-322.0	-411.0	1
3.0.1	2019_Mar_08_1102	s	s	9	4	SIC	112	ABS	0	0	3	3	24_3_3	NA	NA	0	1	2.75143408775	None	None	None	None	1
3.0.1	2019_Mar_08_1102	s	s	9	4	SIC	113	1_1	1	1	2	3	23_2_3	1	2	1	0	0.716802835464	92.0	257.0	97.0	255.0	1
3.0.1	2019_Mar_08_1102	s	s	9	4	SIC	114	ABS	0	0	3	4	24_3_4	NA	NA	0	1	1.35717797279	None	None	None	None	1
3.0.1	2019_Mar_08_1102	s	s	9	4	SIC	115	ABS	0	0	2	1	24_2_1	NA	NA	0	1	3.22735381126	None	None	None	None	1
3.0.1	2019_Mar_08_1102	s	s	9	4	SIC	116	2_2	2	2	1	4	23_1_4	-1	2	1	0	0.569692850113	-475.0	-162.0	-468.0	-160.0	1
3.0.1	2019_Mar_08_1102	s	s	9	4	SIC	117	ABS	0	0	4	2	24_4_2	NA	NA	0	1	2.91235804558	None	None	None	None	1
3.0.1	2019_Mar_08_1102	s	s	9	4	SIC	118	ABS	0	0	3	2	24_3_2	NA	NA	0	1	3.116065979	None	None	None	None	1
3.0.1	2019_Mar_08_1102	s	s	9	4	SIC	119	2_4	2	4	3	1	23_3_1	1	3	1	0	0.591468811035	-303.0	87.0	-305.0	86.0	1
3.0.1	2019_Mar_08_1102	s	s	9	4	SIC	120	4_1	4	1	1	1	23_1_1	3	0	1	0	0.613766908646	-495.0	-251.0	-492.0	-251.0	1
3.0.1	2019_Mar_08_1102	s	s	9	4	SIC	121	ABS	0	0	2	4	24_2_4	NA	NA	0	1	1.61347389221	None	None	None	None	1
3.0.1	2019_Mar_08_1102	s	s	9	4	SIC	122	ABS	0	0	1	2	24_1_2	NA	NA	0	1	2.9988079071	None	None	None	None	1
3.0.1	2019_Mar_08_1102	s	s	9	4	SIC	123	ABS	0	0	2	4	24_2_4	NA	NA	0	1	2.13310599327	None	None	None	None	1
3.0.1	2019_Mar_08_1102	s	s	9	4	SIC	124	ABS	0	0	1	3	24_1_3	NA	NA	0	1	2.43678188324	None	None	None	None	1
3.0.1	2019_Mar_08_1102	s	s	9	4	SIC	125	3_4	3	4	2	3	23_2_3	1	1	1	0	0.787722110748	-463.0	22.0	-470.0	21.0	1
3.0.1	2019_Mar_08_1102	s	s	9	4	SIC	126	ABS	0	0	3	4	24_3_4	NA	NA	0	1	0.849008798599	None	None	None	None	1
3.0.1	2019_Mar_08_1102	s	s	9	4	SIC	127	1_4	1	4	3	1	23_3_1	2	3	1	0	0.554949998856	176.0	85.0	174.0	85.0	1
3.0.1	2019_Mar_08_1102	s	s	9	4	SIC	128	2_3	2	3	1	2	23_1_2	-1	1	1	0	1.11664509773	-183.0	55.0	-179.0	51.0	1
3.0.1	2019_Mar_08_1102	s	s	9	4	SIC	129	ABS	0	0	2	4	24_2_4	NA	NA	0	1	1.95459198952	None	None	None	None	1
3.0.1	2019_Mar_08_1102	s	s	9	4	SIC	130	2_2	2	2	3	4	23_3_4	1	2	1	0	0.556004047394	184.0	-252.0	191.0	-252.0	1
3.0.1	2019_Mar_08_1102	s	s	9	4	SIC	131	ABS	0	0	3	4	24_3_4	NA	NA	0	1	1.48126602173	None	None	None	None	1
3.0.1	2019_Mar_08_1102	s	s	9	4	SIC	132	ABS	0	0	1	3	24_1_3	NA	NA	0	1	3.22665786743	None	None	None	None	1
3.0.1	2019_Mar_08_1102	s	s	9	4	SIC	133	ABS	0	0	3	2	24_3_2	NA	NA	0	1	4.29754281044	None	None	None	None	1
3.0.1	2019_Mar_08_1102	s	s	9	4	SIC	134	1_1	1	1	2	2	23_2_2	1	1	1	0	0.893192052841	-232.0	-214.0	-233.0	-217.0	1
3.0.1	2019_Mar_08_1102	s	s	9	4	SIC	135	ABS	0	0	2	1	24_2_1	NA	NA	0	1	2.92778611183	None	None	None	None	1
3.0.1	2019_Mar_08_1102	s	s	9	4	SIC	136	4_4	4	4	2	3	23_2_3	2	1	1	0	0.602104187012	-178.0	-170.0	-172.0	-167.0	1
3.0.1	2019_Mar_08_1102	s	s	9	4	SIC	137	2_4	2	4	2	3	23_2_3	0	1	1	0	0.501072883606	-114.0	94.0	-112.0	93.0	1
3.0.1	2019_Mar_08_1102	s	s	9	4	SIC	138	ABS	0	0	1	1	24_1_1	NA	NA	0	1	1.72299289703	None	None	None	None	1
3.0.1	2019_Mar_08_1102	s	s	9	4	SIC	139	2_1	2	1	1	3	23_1_3	-1	2	1	0	1.42244791985	369.0	-307.0	369.0	-310.0	1
3.0.1	2019_Mar_08_1102	s	s	9	4	SIC	140	4_2	4	2	2	3	23_2_3	2	1	1	0	0.799102067947	58.0	160.0	55.0	156.0	1
3.0.1	2019_Mar_08_1102	s	s	9	4	SIC	141	4_1	4	1	3	4	23_3_4	1	3	1	0	0.780658006668	335.0	-291.0	331.0	-295.0	1
3.0.1	2019_Mar_08_1102	s	s	9	4	SIC	142	ABS	0	0	1	2	24_1_2	NA	NA	0	1	3.52763414383	None	None	None	None	1
3.0.1	2019_Mar_08_1102	s	s	9	4	SIC	143	2_3	2	3	4	3	23_4_3	2	0	1	0	0.693234920502	358.0	404.0	359.0	404.0	1
3.0.1	2019_Mar_08_1102	s	s	9	4	SIC	144	1_4	1	4	4	3	23_4_3	3	1	1	0	0.567054986954	-364.0	-55.0	-366.0	-57.0	1
3.0.1	2019_Mar_08_1102	s	s	9	4	SIC	145	ABS	0	0	4	2	24_4_2	NA	NA	0	1	4.29759192467	None	None	None	None	1
3.0.1	2019_Mar_08_1102	s	s	9	4	SIC	146	1_1	1	1	4	1	23_4_1	3	0	1	0	0.554957151413	360.0	300.0	354.0	301.0	1
3.0.1	2019_Mar_08_1102	s	s	9	4	SIC	147	ABS	0	0	2	1	24_2_1	NA	NA	0	1	3.80991196632	None	None	None	None	1
3.0.1	2019_Mar_08_1102	s	s	9	4	SIC	148	4_4	4	4	4	2	23_4_2	0	2	1	0	0.795808792114	393.0	187.0	393.0	181.0	1
3.0.1	2019_Mar_08_1102	s	s	9	4	SIC	149	1_3	1	3	1	2	23_1_2	0	1	1	0	2.56055402756	-478.0	140.0	-479.0	143.0	1
3.0.1	2019_Mar_08_1102	s	s	9	4	SIC	150	2_2	2	2	3	1	23_3_1	1	-1	1	0	0.763818025589	-365.0	-204.0	-364.0	-201.0	1
3.0.1	2019_Mar_08_1102	s	s	9	4	SIC	151	1_1	1	1	4	4	23_4_4	3	3	1	0	0.505055904388	225.0	158.0	224.0	161.0	1
3.0.1	2019_Mar_08_1102	s	s	9	4	SIC	152	ABS	0	0	1	2	24_1_2	NA	NA	0	1	4.20985794067	None	None	None	None	1
3.0.1	2019_Mar_08_1102	s	s	9	4	SIC	153	ABS	0	0	3	2	24_3_2	NA	NA	0	1	4.00990104675	None	None	None	None	1
3.0.1	2019_Mar_08_1102	s	s	9	4	SIC	154	1_3	1	3	1	4	23_1_4	0	-1	1	0	0.716758012772	-255.0	-361.0	-259.0	-361.0	1
3.0.1	2019_Mar_08_1102	s	s	9	4	SIC	155	ABS	0	0	3	1	24_3_1	NA	NA	0	1	3.38655304909	None	None	None	None	1
3.0.1	2019_Mar_08_1102	s	s	9	4	SIC	156	2_2	2	2	4	1	23_4_1	2	-1	1	0	0.65801692009	-305.0	384.0	-308.0	373.0	1
3.0.1	2019_Mar_08_1102	s	s	9	4	SIC	157	ABS	0	0	1	1	24_1_1	NA	NA	0	1	4.1980111599	None	None	None	None	1
3.0.1	2019_Mar_08_1102	s	s	9	4	SIC	158	1_2	1	2	2	2	23_2_2	1	0	0	1	4.41449785233	320.0	-128.0	None	None	0
3.0.1	2019_Mar_08_1102	s	s	9	4	SIC	159	ABS	0	0	2	3	24_2_3	NA	NA	0	1	2.98950886726	None	None	None	None	1
3.0.1	2019_Mar_08_1102	s	s	9	4	SIC	160	2_2	2	2	2	3	23_2_3	0	1	0	1	2.39861917496	-539.0	28.0	None	None	0
3.0.1	2019_Mar_08_1102	s	s	9	4	SIC	161	2_2	2	2	4	3	23_4_3	2	1	1	0	0.634397983551	519.0	376.0	521.0	371.0	1
3.0.1	2019_Mar_08_1102	s	s	9	4	SIC	162	1_1	1	1	1	4	23_1_4	0	3	1	0	0.634406089783	112.0	-387.0	113.0	-388.0	1
3.0.1	2019_Mar_08_1102	s	s	9	4	SIC	163	ABS	0	0	1	2	24_1_2	NA	NA	0	1	4.70889616013	None	None	None	None	1
3.0.1	2019_Mar_08_1102	s	s	9	4	SIC	164	ABS	0	0	4	4	24_4_4	NA	NA	0	1	1.11664009094	None	None	None	None	1
3.0.1	2019_Mar_08_1102	s	s	9	4	SIC	165	ABS	0	0	1	1	24_1_1	NA	NA	0	1	2.03399014473	None	None	None	None	1
3.0.1	2019_Mar_08_1102	s	s	9	4	SIC	166	2_2	2	2	4	4	23_4_4	2	2	1	0	0.787368059158	-312.0	375.0	-305.0	375.0	1
3.0.1	2019_Mar_08_1102	s	s	9	4	SIC	167	ABS	0	0	2	1	24_2_1	NA	NA	0	1	3.37776112556	None	None	None	None	1
3.0.1	2019_Mar_08_1102	s	s	9	4	SIC	168	4_3	4	3	2	3	23_2_3	2	0	1	0	0.88142490387	-418.0	-340.0	-422.0	-333.0	1
3.0.1	2019_Mar_08_1102	s	s	9	4	SIC	169	ABS	0	0	2	3	24_2_3	NA	NA	0	1	3.29246377945	None	None	None	None	1
3.0.1	2019_Mar_08_1102	s	s	9	4	SIC	170	4_3	4	3	4	1	23_4_1	0	2	1	0	0.716773033142	-257.0	-24.0	-256.0	-22.0	1
3.0.1	2019_Mar_08_1102	s	s	9	4	SIC	171	ABS	0	0	4	3	24_4_3	NA	NA	0	1	2.70431184769	None	None	None	None	1
3.0.1	2019_Mar_08_1102	s	s	9	4	SIC	172	ABS	0	0	4	3	24_4_3	NA	NA	0	1	2.43682003021	None	None	None	None	1
3.0.1	2019_Mar_08_1102	s	s	9	4	SIC	173	1_1	1	1	3	1	23_3_1	2	0	1	0	0.881445884705	302.0	-359.0	306.0	-354.0	1
3.0.1	2019_Mar_08_1102	s	s	9	4	SIC	174	1_1	1	1	4	3	23_4_3	3	2	1	0	0.580898046494	3.0	-124.0	-3.0	-127.0	1
3.0.1	2019_Mar_08_1102	s	s	9	4	SIC	175	ABS	0	0	2	3	24_2_3	NA	NA	0	1	3.33673405647	None	None	None	None	1
3.0.1	2019_Mar_08_1102	s	s	9	4	SIC	176	2_3	2	3	3	1	23_3_1	1	2	1	0	0.627473831177	-360.0	-92.0	-366.0	-91.0	1
3.0.1	2019_Mar_08_1102	s	s	9	4	SIC	177	4_4	4	4	2	2	23_2_2	2	2	1	0	0.804176092148	-100.0	25.0	-101.0	22.0	1
3.0.1	2019_Mar_08_1102	s	s	9	4	SIC	178	4_1	4	1	3	2	23_3_2	1	1	1	0	0.50501704216	-5.0	-152.0	-10.0	-159.0	1
3.0.1	2019_Mar_08_1102	s	s	9	4	SIC	179	3_3	3	3	1	3	23_1_3	2	0	1	0	1.13126897812	-412.0	396.0	-414.0	399.0	1
3.0.1	2019_Mar_08_1102	s	s	9	4	SIC	180	ABS	0	0	3	3	24_3_3	NA	NA	0	1	2.64556789398	None	None	None	None	1
3.0.1	2019_Mar_08_1102	s	s	9	4	SIC	181	ABS	0	0	2	2	24_2_2	NA	NA	0	1	4.95587205887	None	None	None	None	1
3.0.1	2019_Mar_08_1102	s	s	9	4	SIC	182	ABS	0	0	1	2	24_1_2	NA	NA	0	1	4.05691385269	None	None	None	None	1
3.0.1	2019_Mar_08_1102	s	s	9	4	SIC	183	ABS	0	0	1	1	24_1_1	NA	NA	0	1	3.5159368515	None	None	None	None	1
3.0.1	2019_Mar_08_1102	s	s	9	4	SIC	184	1_4	1	4	1	2	23_1_2	0	2	1	0	0.646191835403	237.0	116.0	241.0	115.0	1
3.0.1	2019_Mar_08_1102	s	s	9	4	SIC	185	1_3	1	3	4	1	23_4_1	3	2	1	0	0.646209001541	214.0	-117.0	212.0	-119.0	1
3.0.1	2019_Mar_08_1102	s	s	9	4	SIC	186	1_1	1	1	3	2	23_3_2	2	1	1	0	0.696805953979	-354.0	383.0	-346.0	386.0	1
3.0.1	2019_Mar_08_1102	s	s	9	4	SIC	187	ABS	0	0	2	3	24_2_3	NA	NA	0	1	3.51588320732	None	None	None	None	1
3.0.1	2019_Mar_08_1102	s	s	9	4	SIC	188	4_4	4	4	4	3	23_4_3	0	1	1	0	0.91302895546	15.0	43.0	10.0	43.0	1
3.0.1	2019_Mar_08_1102	s	s	9	4	SIC	189	3_2	3	2	4	2	23_4_2	-1	0	1	0	0.752123832703	-353.0	-166.0	-350.0	-162.0	1
3.0.1	2019_Mar_08_1102	s	s	9	4	SIC	190	3_2	3	2	4	3	23_4_3	-1	1	1	0	0.540338039398	451.0	344.0	458.0	341.0	1
3.0.1	2019_Mar_08_1102	s	s	9	4	SIC	191	1_4	1	4	4	2	23_4_2	3	2	1	0	0.501492977142	253.0	-373.0	257.0	-372.0	1
3.0.1	2019_Mar_08_1102	s	s	9	4	SIC	192	2_4	2	4	2	1	23_2_1	0	3	1	0	0.76376080513	514.0	96.0	511.0	97.0	1
3.0.1	2019_Mar_08_1102	s	s	9	4	SIC	193	ABS	0	0	2	3	24_2_3	NA	NA	0	1	3.30424594879	None	None	None	None	1
3.0.1	2019_Mar_08_1102	s	s	9	4	SIC	194	4_4	4	4	3	1	23_3_1	1	3	1	0	0.705124855042	-358.0	-272.0	-354.0	-267.0	1
3.0.1	2019_Mar_08_1102	s	s	9	4	SIC	195	4_4	4	4	3	4	23_3_4	1	0	1	0	1.09307909012	42.0	-112.0	32.0	-113.0	1
3.0.1	2019_Mar_08_1102	s	s	9	4	SIC	196	3_4	3	4	1	3	23_1_3	2	1	1	0	0.756837129593	203.0	-274.0	209.0	-276.0	1
3.0.1	2019_Mar_08_1102	s	s	9	4	SIC	197	2_1	2	1	3	4	23_3_4	1	3	1	0	0.501664876938	-209.0	-330.0	-206.0	-322.0	1
3.0.1	2019_Mar_08_1102	s	s	9	4	SIC	198	4_2	4	2	1	3	23_1_3	3	1	1	0	0.646228075027	-22.0	169.0	-20.0	164.0	1
3.0.1	2019_Mar_08_1102	s	s	9	4	SIC	199	ABS	0	0	4	4	24_4_4	NA	NA	0	1	1.2459769249	None	None	None	None	1
3.0.1	2019_Mar_08_1102	s	s	9	4	SIC	200	ABS	0	0	4	4	24_4_4	NA	NA	0	1	1.26070189476	None	None	None	None	1
3.0.1	2019_Mar_08_1102	s	s	9	4	SIC	201	ABS	0	0	1	2	24_1_2	NA	NA	0	1	4.27305698395	None	None	None	None	1
3.0.1	2019_Mar_08_1102	s	s	9	4	SIC	202	4_2	4	2	3	1	23_3_1	1	-1	1	0	0.8226749897	-213.0	-386.0	-212.0	-389.0	1
3.0.1	2019_Mar_08_1102	s	s	9	4	SIC	203	ABS	0	0	1	2	24_1_2	NA	NA	0	1	2.73969316483	None	None	None	None	1
3.0.1	2019_Mar_08_1102	s	s	9	4	SIC	204	4_1	4	1	4	2	23_4_2	0	1	1	0	3.04550886154	-471.0	-234.0	-467.0	-231.0	1
3.0.1	2019_Mar_08_1102	s	s	9	4	SIC	205	ABS	0	0	3	4	24_3_4	NA	NA	0	1	1.0042989254	None	None	None	None	1
3.0.1	2019_Mar_08_1102	s	s	9	4	SIC	206	1_2	1	2	2	1	23_2_1	1	-1	1	0	1.3636329174	357.0	253.0	363.0	251.0	1
3.0.1	2019_Mar_08_1102	s	s	9	4	SIC	207	1_3	1	3	3	2	23_3_2	2	1	1	0	0.540311813354	-180.0	93.0	-172.0	97.0	1
3.0.1	2019_Mar_08_1102	s	s	9	4	SIC	208	ABS	0	0	3	4	24_3_4	NA	NA	0	1	0.987239122391	None	None	None	None	1
3.0.1	2019_Mar_08_1102	s	s	9	4	SIC	209	ABS	0	0	4	1	24_4_1	NA	NA	0	1	1.6523900032	None	None	None	None	1
3.0.1	2019_Mar_08_1102	s	s	9	4	SIC	210	3_4	3	4	1	1	23_1_1	2	3	1	0	0.563908100128	-197.0	166.0	-200.0	165.0	1
3.0.1	2019_Mar_08_1102	s	s	9	4	SIC	211	ABS	0	0	1	3	24_1_3	NA	NA	0	1	3.25197315216	None	None	None	None	1
3.0.1	2019_Mar_08_1102	s	s	9	4	SIC	212	ABS	0	0	4	3	24_4_3	NA	NA	0	1	2.07226109505	None	None	None	None	1
3.0.1	2019_Mar_08_1102	s	s	9	4	SIC	213	ABS	0	0	3	4	24_3_4	NA	NA	0	1	1.34449696541	None	None	None	None	1
3.0.1	2019_Mar_08_1102	s	s	9	4	SIC	214	ABS	0	0	2	3	24_2_3	NA	NA	0	1	2.54466509819	None	None	None	None	1
3.0.1	2019_Mar_08_1102	s	s	9	4	SIC	215	ABS	0	0	4	3	24_4_3	NA	NA	0	1	2.51619982719	None	None	None	None	1
3.0.1	2019_Mar_08_1102	s	s	9	4	SIC	216	ABS	0	0	1	2	24_1_2	NA	NA	0	1	4.82132911682	None	None	None	None	1
3.0.1	2019_Mar_08_1102	s	s	9	4	SIC	217	ABS	0	0	3	3	24_3_3	NA	NA	0	1	3.26007199287	None	None	None	None	1
3.0.1	2019_Mar_08_1102	s	s	9	4	SIC	218	ABS	0	0	2	2	24_2_2	NA	NA	0	1	3.46883797646	None	None	None	None	1
3.0.1	2019_Mar_08_1102	s	s	9	4	SIC	219	2_3	2	3	3	3	23_3_3	1	0	1	0	0.966657876968	-56.0	359.0	-52.0	352.0	1
3.0.1	2019_Mar_08_1102	s	s	9	4	SIC	220	ABS	0	0	1	1	24_1_1	NA	NA	0	1	3.14410686493	None	None	None	None	1
3.0.1	2019_Mar_08_1102	s	s	9	4	SIC	221	1_3	1	3	2	1	23_2_1	1	2	1	0	0.874694108963	-262.0	37.0	-251.0	41.0	1
3.0.1	2019_Mar_08_1102	s	s	9	4	SIC	222	3_4	3	4	2	1	23_2_1	1	3	1	0	0.77556180954	208.0	291.0	207.0	295.0	1
3.0.1	2019_Mar_08_1102	s	s	9	4	SIC	223	4_1	4	1	2	2	23_2_2	2	1	1	0	0.575648784637	322.0	234.0	321.0	234.0	1
3.0.1	2019_Mar_08_1102	s	s	9	4	SIC	224	ABS	0	0	2	1	24_2_1	NA	NA	0	1	1.92815303802	None	None	None	None	1
3.0.1	2019_Mar_08_1102	s	s	9	4	SIC	225	ABS	0	0	1	3	24_1_3	NA	NA	0	1	3.5516769886	None	None	None	None	1
3.0.1	2019_Mar_08_1102	s	s	9	4	SIC	226	2_4	2	4	1	3	23_1_3	-1	1	1	0	0.735730886459	153.0	22.0	147.0	23.0	1
3.0.1	2019_Mar_08_1102	s	s	9	4	SIC	227	3_4	3	4	4	4	23_4_4	-1	0	1	0	0.646189928055	264.0	24.0	269.0	19.0	1
3.0.1	2019_Mar_08_1102	s	s	9	4	SIC	228	ABS	0	0	2	4	24_2_4	NA	NA	0	1	1.88151502609	None	None	None	None	1
3.0.1	2019_Mar_08_1102	s	s	9	4	SIC	229	4_3	4	3	1	1	23_1_1	3	2	1	0	0.45209980011	94.0	101.0	98.0	93.0	1
3.0.1	2019_Mar_08_1102	s	s	9	4	SIC	230	ABS	0	0	4	1	24_4_1	NA	NA	0	1	1.8810749054	None	None	None	None	1
3.0.1	2019_Mar_08_1102	s	s	9	4	SIC	231	ABS	0	0	1	4	24_1_4	NA	NA	0	1	1.82224392891	None	None	None	None	1
3.0.1	2019_Mar_08_1102	s	s	9	4	SIC	232	1_1	1	1	3	3	23_3_3	2	2	1	0	0.569225072861	-446.0	-327.0	-451.0	-333.0	1
3.0.1	2019_Mar_08_1102	s	s	9	4	SIC	233	4_4	4	4	2	1	23_2_1	2	3	1	0	0.555042028427	190.0	-181.0	195.0	-185.0	1
3.0.1	2019_Mar_08_1102	s	s	9	4	SIC	234	ABS	0	0	3	2	24_3_2	NA	NA	0	1	3.44527482986	None	None	None	None	1
3.0.1	2019_Mar_08_1102	s	s	9	4	SIC	235	ABS	0	0	4	1	24_4_1	NA	NA	0	1	1.54523706436	None	None	None	None	1
3.0.1	2019_Mar_08_1102	s	s	9	4	SIC	236	ABS	0	0	1	4	24_1_4	NA	NA	0	1	1.20404195786	None	None	None	None	1
3.0.1	2019_Mar_08_1102	s	s	9	4	SIC	237	2_2	2	2	1	3	23_1_3	-1	1	1	0	2.5323870182	64.0	-167.0	59.0	-166.0	1
3.0.1	2019_Mar_08_1102	s	s	9	4	SIC	238	ABS	0	0	2	3	24_2_3	NA	NA	0	1	2.7044069767	None	None	None	None	1
3.0.1	2019_Mar_08_1102	s	s	9	4	SIC	239	ABS	0	0	2	4	24_2_4	NA	NA	0	1	0.954950809479	None	None	None	None	1
3.0.1	2019_Mar_08_1102	s	s	9	4	SIC	240	3_3	3	3	4	1	23_4_1	-1	2	1	0	0.646218061447	312.0	-112.0	302.0	-114.0	1
3.0.1	2019_Mar_08_1102	s	s	9	4	SIC	241	ABS	0	0	1	3	24_1_3	NA	NA	0	1	2.51006603241	None	None	None	None	1
3.0.1	2019_Mar_08_1102	s	s	9	4	SIC	242	2_1	2	1	4	4	23_4_4	2	3	1	0	0.521157979965	415.0	-402.0	422.0	-399.0	1
3.0.1	2019_Mar_08_1102	s	s	9	4	SIC	243	4_3	4	3	4	2	23_4_2	0	1	0	1	3.03359818459	480.0	-176.0	None	None	0
3.0.1	2019_Mar_08_1102	s	s	9	4	SIC	244	ABS	0	0	3	1	24_3_1	NA	NA	0	1	1.51649403572	None	None	None	None	1
3.0.1	2019_Mar_08_1102	s	s	9	4	SIC	245	ABS	0	0	3	1	24_3_1	NA	NA	0	1	2.06178283691	None	None	None	None	1
3.0.1	2019_Mar_08_1102	s	s	9	4	SIC	246	ABS	0	0	2	1	24_2_1	NA	NA	0	1	1.97183203697	None	None	None	None	1
3.0.1	2019_Mar_08_1102	s	s	9	4	SIC	247	ABS	0	0	2	2	24_2_2	NA	NA	0	1	3.7893140316	None	None	None	None	1
3.0.1	2019_Mar_08_1102	s	s	9	4	SIC	248	ABS	0	0	4	2	24_4_2	NA	NA	0	1	3.93924188614	None	None	None	None	1
3.0.1	2019_Mar_08_1102	s	s	9	4	SIC	249	ABS	0	0	3	1	24_3_1	NA	NA	0	1	2.45098209381	None	None	None	None	1
3.0.1	2019_Mar_08_1102	s	s	9	4	SIC	250	1_1	1	1	4	2	23_4_2	3	1	1	0	0.604004144669	421.0	110.0	422.0	106.0	1
3.0.1	2019_Mar_08_1102	s	s	9	4	SIC	251	ABS	0	0	4	3	24_4_3	NA	NA	0	1	3.86909794807	None	None	None	None	1
3.0.1	2019_Mar_08_1102	s	s	9	4	SIC	252	2_2	2	2	1	2	23_1_2	-1	0	0	1	4.73909497261	-272.0	254.0	None	None	0
3.0.1	2019_Mar_08_1102	s	s	9	4	SIC	253	ABS	0	0	3	4	24_3_4	NA	NA	0	1	1.0578391552	None	None	None	None	1
3.0.1	2019_Mar_08_1102	s	s	9	4	SIC	254	ABS	0	0	3	2	24_3_2	NA	NA	0	1	3.49528503418	None	None	None	None	1
3.0.1	2019_Mar_08_1102	s	s	9	4	SIC	255	2_1	2	1	4	2	23_4_2	2	1	1	0	0.592245101929	198.0	105.0	195.0	103.0	1
3.0.1	2019_Mar_08_1102	s	s	9	4	SIC	256	ABS	0	0	1	2	24_1_2	NA	NA	0	1	3.43644094467	None	None	None	None	1
3.0.1	2019_Mar_08_1102	s	s	9	4	SIC	257	3_4	3	4	2	4	23_2_4	1	0	1	0	1.30482792854	-488.0	-380.0	-486.0	-385.0	1
3.0.1	2019_Mar_08_1102	s	s	9	4	SIC	258	1_3	1	3	3	4	23_3_4	2	-1	1	0	0.540335178375	-177.0	-318.0	-180.0	-324.0	1
3.0.1	2019_Mar_08_1102	s	s	9	4	SIC	259	3_4	3	4	4	1	23_4_1	-1	3	1	0	0.486871957779	99.0	-409.0	95.0	-406.0	1
3.0.1	2019_Mar_08_1102	s	s	9	4	SIC	260	ABS	0	0	2	2	24_2_2	NA	NA	0	1	6.07980084419	None	None	None	None	1
3.0.1	2019_Mar_08_1102	s	s	9	4	SIC	261	4_1	4	1	1	4	23_1_4	3	3	1	0	0.505071878433	91.0	133.0	97.0	127.0	1
3.0.1	2019_Mar_08_1102	s	s	9	4	SIC	262	4_2	4	2	2	1	23_2_1	2	-1	1	0	0.399208068848	-13.0	-318.0	-17.0	-324.0	1
3.0.1	2019_Mar_08_1102	s	s	9	4	SIC	263	ABS	0	0	3	3	24_3_3	NA	NA	0	1	3.58128404617	None	None	None	None	1
3.0.1	2019_Mar_08_1102	s	s	9	4	SIC	264	3_2	3	2	3	1	23_3_1	0	-1	0	1	2.77495408058	-535.0	159.0	None	None	0
3.0.1	2019_Mar_08_1102	s	s	9	4	SIC	265	ABS	0	0	3	1	24_3_1	NA	NA	0	1	2.99328184128	None	None	None	None	1
3.0.1	2019_Mar_08_1102	s	s	9	4	SIC	266	ABS	0	0	2	3	24_2_3	NA	NA	0	1	3.2673368454	None	None	None	None	1
3.0.1	2019_Mar_08_1102	s	s	9	4	SIC	267	1_1	1	1	2	4	23_2_4	1	3	1	0	0.681543827057	237.0	-229.0	247.0	-226.0	1
3.0.1	2019_Mar_08_1102	s	s	9	4	SIC	268	3_1	3	1	1	1	23_1_1	2	0	1	0	0.663093090057	-40.0	287.0	-38.0	284.0	1
3.0.1	2019_Mar_08_1102	s	s	9	4	SIC	269	3_1	3	1	4	1	23_4_1	-1	0	1	0	0.505063772202	392.0	212.0	392.0	211.0	1
3.0.1	2019_Mar_08_1102	s	s	9	4	SIC	270	ABS	0	0	1	2	24_1_2	NA	NA	0	1	4.74445915222	None	None	None	None	1
3.0.1	2019_Mar_08_1102	s	s	9	4	SIC	271	ABS	0	0	2	4	24_2_4	NA	NA	0	1	1.32835817337	None	None	None	None	1
3.0.1	2019_Mar_08_1102	s	s	9	4	SIC	272	ABS	0	0	4	3	24_4_3	NA	NA	0	1	2.45740509033	None	None	None	None	1
3.0.1	2019_Mar_08_1102	s	s	9	4	SIC	273	4_4	4	4	4	1	23_4_1	0	3	1	0	1.52839398384	206.0	-127.0	206.0	-124.0	1
3.0.1	2019_Mar_08_1102	s	s	9	4	SIC	274	ABS	0	0	1	1	24_1_1	NA	NA	0	1	2.39854598045	None	None	None	None	1
3.0.1	2019_Mar_08_1102	s	s	9	4	SIC	275	ABS	0	0	4	2	24_4_2	NA	NA	0	1	4.00994706154	None	None	None	None	1
3.0.1	2019_Mar_08_1102	s	s	9	4	SIC	276	ABS	0	0	1	3	24_1_3	NA	NA	0	1	3.02489900589	None	None	None	None	1
3.0.1	2019_Mar_08_1102	s	s	9	4	SIC	277	ABS	0	0	3	2	24_3_2	NA	NA	0	1	3.34390711784	None	None	None	None	1
3.0.1	2019_Mar_08_1102	s	s	9	4	SIC	278	2_4	2	4	1	4	23_1_4	-1	0	0	1	1.6137778759	200.0	406.0	None	None	0
3.0.1	2019_Mar_08_1102	s	s	9	4	SIC	279	ABS	0	0	1	4	24_1_4	NA	NA	0	1	1.03885507584	None	None	None	None	1
3.0.1	2019_Mar_08_1102	s	s	9	4	SIC	280	2_4	2	4	1	2	23_1_2	-1	2	1	0	0.619637012482	304.0	32.0	307.0	34.0	1
3.0.1	2019_Mar_08_1102	s	s	9	4	SIC	281	3_1	3	1	4	2	23_4_2	-1	1	1	0	0.604212999344	-249.0	411.0	-255.0	415.0	1
3.0.1	2019_Mar_08_1102	s	s	9	4	SIC	282	ABS	0	0	1	1	24_1_1	NA	NA	0	1	2.13461995125	None	None	None	None	1
3.0.1	2019_Mar_08_1102	s	s	9	4	SIC	283	1_3	1	3	4	3	23_4_3	3	0	1	0	0.505364894867	-484.0	26.0	-486.0	34.0	1
3.0.1	2019_Mar_08_1102	s	s	9	4	SIC	284	ABS	0	0	4	3	24_4_3	NA	NA	0	1	1.85513806343	None	None	None	None	1
3.0.1	2019_Mar_08_1102	s	s	9	4	SIC	285	4_2	4	2	3	2	23_3_2	1	0	1	0	0.446249961853	82.0	338.0	77.0	340.0	1
3.0.1	2019_Mar_08_1102	s	s	9	4	SIC	286	2_3	2	3	1	4	23_1_4	-1	-1	1	0	0.613821983337	282.0	398.0	285.0	390.0	1
3.0.1	2019_Mar_08_1102	s	s	9	4	SIC	287	4_3	4	3	4	4	23_4_4	0	-1	1	0	0.716813087463	428.0	245.0	434.0	239.0	1
3.0.1	2019_Mar_08_1102	s	s	9	4	SIC	288	3_1	3	1	3	2	23_3_2	0	1	1	0	1.21067500114	-192.0	95.0	-191.0	88.0	1
3.0.1	2019_Mar_08_1102	s	s	9	4	SIC	289	1_3	1	3	3	3	23_3_3	2	0	1	0	0.496220827103	331.0	-95.0	333.0	-96.0	1
3.0.1	2019_Mar_08_1102	s	s	9	4	SIC	290	3_1	3	1	2	4	23_2_4	1	3	1	0	0.634397029877	218.0	240.0	220.0	240.0	1
3.0.1	2019_Mar_08_1102	s	s	9	4	SIC	291	ABS	0	0	3	3	24_3_3	NA	NA	0	1	2.59853601456	None	None	None	None	1
3.0.1	2019_Mar_08_1102	s	s	9	4	SIC	292	ABS	0	0	1	3	24_1_3	NA	NA	0	1	3.18668198586	None	None	None	None	1
3.0.1	2019_Mar_08_1102	s	s	9	4	SIC	293	1_2	1	2	2	3	23_2_3	1	1	1	0	0.869579076767	-284.0	136.0	-290.0	136.0	1
3.0.1	2019_Mar_08_1102	s	s	9	4	SIC	294	3_2	3	2	1	1	23_1_1	2	-1	1	0	0.834372997284	168.0	-361.0	172.0	-364.0	1
3.0.1	2019_Mar_08_1102	s	s	9	4	SIC	295	ABS	0	0	1	3	24_1_3	NA	NA	0	1	3.18656611443	None	None	None	None	1
3.0.1	2019_Mar_08_1102	s	s	9	4	SIC	296	ABS	0	0	2	4	24_2_4	NA	NA	0	1	1.91644501686	None	None	None	None	1
3.0.1	2019_Mar_08_1102	s	s	9	4	SIC	297	ABS	0	0	3	3	24_3_3	NA	NA	0	1	2.34471702576	None	None	None	None	1
3.0.1	2019_Mar_08_1102	s	s	9	4	SIC	298	1_4	1	4	4	1	23_4_1	3	3	1	0	0.587403059006	-400.0	-212.0	-401.0	-208.0	1
3.0.1	2019_Mar_08_1102	s	s	9	4	SIC	299	1_4	1	4	1	3	23_1_3	0	1	1	0	0.672558069229	-310.0	371.0	-305.0	365.0	1
3.0.1	2019_Mar_08_1102	s	s	9	4	SIC	300	3_3	3	3	4	3	23_4_3	-1	0	1	0	0.457957983017	122.0	407.0	127.0	407.0	1
3.0.1	2019_Mar_08_1102	s	s	9	4	SIC	301	ABS	0	0	4	3	24_4_3	NA	NA	0	1	3.4100561142	None	None	None	None	1
3.0.1	2019_Mar_08_1102	s	s	9	4	SIC	302	ABS	0	0	3	3	24_3_3	NA	NA	0	1	4.12059307098	None	None	None	None	1
3.0.1	2019_Mar_08_1102	s	s	9	4	SIC	303	ABS	0	0	4	4	24_4_4	NA	NA	0	1	1.12837290764	None	None	None	None	1
3.0.1	2019_Mar_08_1102	s	s	9	4	SIC	304	ABS	0	0	3	3	24_3_3	NA	NA	0	1	2.35154700279	None	None	None	None	1
3.0.1	2019_Mar_08_1102	s	s	9	4	SIC	305	4_2	4	2	2	2	23_2_2	2	0	1	0	0.599210977554	-468.0	-367.0	-466.0	-372.0	1
3.0.1	2019_Mar_08_1102	s	s	9	4	SIC	306	ABS	0	0	2	4	24_2_4	NA	NA	0	1	1.52037501335	None	None	None	None	1
3.0.1	2019_Mar_08_1102	s	s	9	4	SIC	307	ABS	0	0	1	2	24_1_2	NA	NA	0	1	3.59132194519	None	None	None	None	1
3.0.1	2019_Mar_08_1102	s	s	9	4	SIC	308	ABS	0	0	1	4	24_1_4	NA	NA	0	1	1.08431601524	None	None	None	None	1
3.0.1	2019_Mar_08_1102	s	s	9	4	SIC	309	3_1	3	1	1	2	23_1_2	2	1	1	0	0.693207025528	-378.0	19.0	-378.0	14.0	1
3.0.1	2019_Mar_08_1102	s	s	9	4	SIC	310	4_4	4	4	1	4	23_1_4	3	0	1	0	0.458013057709	111.0	91.0	111.0	87.0	1
3.0.1	2019_Mar_08_1102	s	s	9	4	SIC	311	ABS	0	0	1	4	24_1_4	NA	NA	0	1	2.47289299965	None	None	None	None	1
3.0.1	2019_Mar_08_1102	s	s	9	4	SIC	312	3_3	3	3	4	2	23_4_2	-1	1	1	0	0.613049030304	160.0	-265.0	162.0	-262.0	1
3.0.1	2019_Mar_08_1102	s	s	9	4	SIC	313	2_2	2	2	3	3	23_3_3	1	1	1	0	0.745371103287	-132.0	-325.0	-128.0	-329.0	1
3.0.1	2019_Mar_08_1102	s	s	9	4	SIC	314	1_3	1	3	1	1	23_1_1	0	2	1	0	1.37541389465	-58.0	407.0	-59.0	411.0	1
3.0.1	2019_Mar_08_1102	s	s	9	4	SIC	315	3_4	3	4	4	2	23_4_2	-1	2	1	0	0.578465938568	-422.0	-101.0	-426.0	-100.0	1
3.0.1	2019_Mar_08_1102	s	s	9	4	SIC	316	4_4	4	4	1	2	23_1_2	3	2	1	0	0.458425998688	489.0	-80.0	487.0	-80.0	1
3.0.1	2019_Mar_08_1102	s	s	9	4	SIC	317	ABS	0	0	4	2	24_4_2	NA	NA	0	1	4.9066400528	None	None	None	None	1
3.0.1	2019_Mar_08_1102	s	s	9	4	SIC	318	ABS	0	0	2	2	24_2_2	NA	NA	0	1	4.04493689537	None	None	None	None	1
3.0.1	2019_Mar_08_1102	s	s	9	4	SIC	319	3_1	3	1	3	4	23_3_4	0	3	1	0	0.613801956177	-72.0	-27.0	-72.0	-24.0	1
3.0.1	2019_Mar_08_1102	s	s	9	4	SIC	320	1_1	1	1	1	2	23_1_2	0	1	1	0	1.01079702377	-43.0	181.0	-38.0	177.0	1
3.0.1	2019_Mar_08_1102	s	s	9	4	SIC	321	3_1	3	1	4	3	23_4_3	-1	2	1	0	0.568813085556	150.0	-149.0	148.0	-144.0	1
3.0.1	2019_Mar_08_1102	s	s	9	4	SIC	322	2_1	2	1	2	4	23_2_4	0	3	1	0	0.693235874176	-335.0	-370.0	-333.0	-373.0	1
3.0.1	2019_Mar_08_1102	s	s	9	4	SIC	323	3_4	3	4	1	4	23_1_4	2	0	1	0	0.852377891541	313.0	122.0	306.0	119.0	1
3.0.1	2019_Mar_08_1102	s	s	9	4	SIC	324	4_3	4	3	1	3	23_1_3	3	0	1	0	0.451285123825	-136.0	-120.0	-134.0	-121.0	1
3.0.1	2019_Mar_08_1102	s	s	9	4	SIC	325	4_3	4	3	3	2	23_3_2	1	1	1	0	0.53259396553	-40.0	184.0	-37.0	181.0	1
3.0.1	2019_Mar_08_1102	s	s	9	4	SIC	326	2_2	2	2	2	4	23_2_4	0	2	1	0	0.451017856598	-1.0	-135.0	-4.0	-137.0	1
3.0.1	2019_Mar_08_1102	s	s	9	4	SIC	327	ABS	0	0	2	4	24_2_4	NA	NA	0	1	1.50092291832	None	None	None	None	1
3.0.1	2019_Mar_08_1102	s	s	9	4	SIC	328	3_3	3	3	1	4	23_1_4	2	-1	1	0	0.533672094345	358.0	154.0	361.0	150.0	1
3.0.1	2019_Mar_08_1102	s	s	9	4	SIC	329	ABS	0	0	4	2	24_4_2	NA	NA	0	1	2.96701312065	None	None	None	None	1
3.0.1	2019_Mar_08_1102	s	s	9	4	SIC	330	4_3	4	3	3	3	23_3_3	1	0	1	0	0.493289232254	260.0	57.0	256.0	54.0	1
3.0.1	2019_Mar_08_1102	s	s	9	4	SIC	331	ABS	0	0	1	2	24_1_2	NA	NA	0	1	2.52798008919	None	None	None	None	1
3.0.1	2019_Mar_08_1102	s	s	9	4	SIC	332	2_1	2	1	1	1	23_1_1	-1	0	0	1	1.97810196877	14.0	72.0	None	None	0
3.0.1	2019_Mar_08_1102	s	s	9	4	SIC	333	1_3	1	3	2	2	23_2_2	1	1	1	0	0.893504142761	351.0	40.0	354.0	33.0	1
3.0.1	2019_Mar_08_1102	s	s	9	4	SIC	334	2_4	2	4	3	2	23_3_2	1	2	1	0	0.618592977524	382.0	-73.0	384.0	-74.0	1
3.0.1	2019_Mar_08_1102	s	s	9	4	SIC	335	ABS	0	0	3	1	24_3_1	NA	NA	0	1	1.59894895554	None	None	None	None	1
3.0.1	2019_Mar_08_1102	s	s	9	4	SIC	336	4_2	4	2	4	3	23_4_3	0	1	1	0	1.85773682594	-413.0	402.0	-413.0	403.0	1
3.0.1	2019_Mar_08_1102	s	s	9	4	SIC	337	2_3	2	3	1	3	23_1_3	-1	0	0	1	3.17754793167	-21.0	-383.0	None	None	0
3.0.1	2019_Mar_08_1102	s	s	9	4	SIC	338	ABS	0	0	2	3	24_2_3	NA	NA	0	1	3.48860907555	None	None	None	None	1
3.0.1	2019_Mar_08_1102	s	s	9	4	SIC	339	2_3	2	3	2	1	23_2_1	0	2	1	0	0.907868146896	-521.0	145.0	-523.0	144.0	1
3.0.1	2019_Mar_08_1102	s	s	9	4	SIC	340	4_2	4	2	1	2	23_1_2	3	0	1	0	0.476194858551	-92.0	337.0	-93.0	339.0	1
3.0.1	2019_Mar_08_1102	s	s	9	4	SIC	341	ABS	0	0	2	3	24_2_3	NA	NA	0	1	3.18944382668	None	None	None	None	1
3.0.1	2019_Mar_08_1102	s	s	9	4	SIC	342	2_3	2	3	1	1	23_1_1	-1	2	1	0	0.885431051254	-80.0	273.0	-93.0	277.0	1
3.0.1	2019_Mar_08_1102	s	s	9	4	SIC	343	2_1	2	1	4	1	23_4_1	2	0	1	0	0.55694103241	451.0	-388.0	452.0	-390.0	1
3.0.1	2019_Mar_08_1102	s	s	9	4	SIC	344	4_1	4	1	2	1	23_2_1	2	0	1	0	0.505062103271	117.0	350.0	115.0	349.0	1
3.0.1	2019_Mar_08_1102	s	s	9	4	SIC	345	3_1	3	1	3	3	23_3_3	0	2	1	0	0.839401006699	19.0	386.0	18.0	384.0	1
3.0.1	2019_Mar_08_1102	s	s	9	4	SIC	346	ABS	0	0	3	1	24_3_1	NA	NA	0	1	2.54490685463	None	None	None	None	1
3.0.1	2019_Mar_08_1102	s	s	9	4	SIC	347	2_1	2	1	1	4	23_1_4	-1	3	1	0	0.620307922363	300.0	85.0	298.0	81.0	1
3.0.1	2019_Mar_08_1102	s	s	9	4	SIC	348	2_1	2	1	2	2	23_2_2	0	1	1	0	1.92815613747	-95.0	-404.0	-94.0	-405.0	1
3.0.1	2019_Mar_08_1102	s	s	9	4	SIC	349	4_4	4	4	1	1	23_1_1	3	3	1	0	0.728526115417	-496.0	57.0	-498.0	51.0	1
3.0.1	2019_Mar_08_1102	s	s	9	4	SIC	350	ABS	0	0	1	1	24_1_1	NA	NA	0	1	1.88106584549	None	None	None	None	1
3.0.1	2019_Mar_08_1102	s	s	9	4	SIC	351	2_1	2	1	3	2	23_3_2	1	1	1	0	0.815749883652	419.0	-268.0	418.0	-268.0	1
3.0.1	2019_Mar_08_1102	s	s	9	4	SIC	352	3_2	3	2	4	4	23_4_4	-1	2	1	0	0.686287164688	-490.0	106.0	-486.0	105.0	1
3.0.1	2019_Mar_08_1102	s	s	9	4	SIC	353	2_4	2	4	4	4	23_4_4	2	0	1	0	0.473915100098	489.0	-241.0	490.0	-246.0	1
3.0.1	2019_Mar_08_1102	s	s	9	4	SIC	354	1_3	1	3	4	2	23_4_2	3	1	1	0	0.442224979401	-90.0	-394.0	-89.0	-394.0	1
3.0.1	2019_Mar_08_1102	s	s	9	4	SIC	355	4_4	4	4	2	4	23_2_4	2	0	1	0	0.469799041748	384.0	-128.0	384.0	-130.0	1
3.0.1	2019_Mar_08_1102	s	s	9	4	SIC	356	ABS	0	0	3	4	24_3_4	NA	NA	0	1	1.71664404869	None	None	None	None	1
3.0.1	2019_Mar_08_1102	s	s	9	4	SIC	357	3_3	3	3	2	4	23_2_4	1	-1	1	0	0.97270822525	178.0	-385.0	176.0	-387.0	1
3.0.1	2019_Mar_08_1102	s	s	9	4	SIC	358	3_2	3	2	4	1	23_4_1	-1	-1	1	0	0.657968997955	-131.0	364.0	-125.0	366.0	1
3.0.1	2019_Mar_08_1102	s	s	9	4	SIC	359	ABS	0	0	3	4	24_3_4	NA	NA	0	1	0.869626998901	None	None	None	None	1
3.0.1	2019_Mar_08_1102	s	s	9	4	SIC	360	ABS	0	0	2	4	24_2_4	NA	NA	0	1	1.41067910194	None	None	None	None	1
3.0.1	2019_Mar_08_1102	s	s	9	4	SIC	361	1_4	1	4	2	2	23_2_2	1	2	1	0	0.67261505127	468.0	-67.0	463.0	-65.0	1
3.0.1	2019_Mar_08_1102	s	s	9	4	SIC	362	3_1	3	1	2	1	23_2_1	1	0	1	0	0.779462099075	-36.0	329.0	-37.0	332.0	1
3.0.1	2019_Mar_08_1102	s	s	9	4	SIC	363	3_2	3	2	1	3	23_1_3	2	1	1	0	0.95681810379	176.0	-402.0	184.0	-406.0	1
3.0.1	2019_Mar_08_1102	s	s	9	4	SIC	364	4_3	4	3	1	2	23_1_2	3	1	1	0	0.510626077652	148.0	228.0	149.0	232.0	1
3.0.1	2019_Mar_08_1102	s	s	9	4	SIC	365	3_2	3	2	1	2	23_1_2	2	0	1	0	0.693265199661	-234.0	275.0	-235.0	270.0	1
3.0.1	2019_Mar_08_1102	s	s	9	4	SIC	366	4_3	4	3	2	2	23_2_2	2	1	1	0	0.415759086609	368.0	-130.0	369.0	-132.0	1
3.0.1	2019_Mar_08_1102	s	s	9	4	SIC	367	ABS	0	0	2	1	24_2_1	NA	NA	0	1	2.22824597359	None	None	None	None	1
3.0.1	2019_Mar_08_1102	s	s	9	4	SIC	368	1_2	1	2	1	1	23_1_1	0	-1	0	1	1.8721818924	-233.0	-364.0	None	None	0
3.0.1	2019_Mar_08_1102	s	s	9	4	SIC	369	4_1	4	1	3	3	23_3_3	1	2	1	0	1.34006500244	-455.0	212.0	-461.0	207.0	1
3.0.1	2019_Mar_08_1102	s	s	9	4	SIC	370	3_1	3	1	1	4	23_1_4	2	3	1	0	0.516808986664	-104.0	-199.0	-106.0	-205.0	1
3.0.1	2019_Mar_08_1102	s	s	9	4	SIC	371	ABS	0	0	2	3	24_2_3	NA	NA	0	1	2.89254999161	None	None	None	None	1
3.0.1	2019_Mar_08_1102	s	s	9	4	SIC	372	ABS	0	0	2	4	24_2_4	NA	NA	0	1	2.36629414558	None	None	None	None	1
3.0.1	2019_Mar_08_1102	s	s	9	4	SIC	373	ABS	0	0	4	4	24_4_4	NA	NA	0	1	0.816169023514	None	None	None	None	1
3.0.1	2019_Mar_08_1102	s	s	9	4	SIC	374	ABS	0	0	1	4	24_1_4	NA	NA	0	1	1.08428001404	None	None	None	None	1
3.0.1	2019_Mar_08_1102	s	s	9	4	SIC	375	ABS	0	0	3	2	24_3_2	NA	NA	0	1	1.73116493225	None	None	None	None	1
3.0.1	2019_Mar_08_1102	s	s	9	4	SIC	376	3_1	3	1	1	3	23_1_3	2	2	1	0	0.907777070999	53.0	-381.0	50.0	-380.0	1
3.0.1	2019_Mar_08_1102	s	s	9	4	SIC	377	ABS	0	0	4	1	24_4_1	NA	NA	0	1	1.82753801346	None	None	None	None	1
3.0.1	2019_Mar_08_1102	s	s	9	4	SIC	378	1_4	1	4	3	4	23_3_4	2	0	1	0	0.790233850479	-408.0	65.0	-418.0	66.0	1
3.0.1	2019_Mar_08_1102	s	s	9	4	SIC	379	2_3	2	3	2	2	23_2_2	0	1	1	0	0.840841054916	-17.0	142.0	-9.0	141.0	1
3.0.1	2019_Mar_08_1102	s	s	9	4	SIC	380	ABS	0	0	2	2	24_2_2	NA	NA	0	1	4.0842769146	None	None	None	None	1
3.0.1	2019_Mar_08_1102	s	s	9	4	SIC	381	ABS	0	0	2	1	24_2_1	NA	NA	0	1	2.99846100807	None	None	None	None	1
3.0.1	2019_Mar_08_1102	s	s	9	4	SIC	382	ABS	0	0	4	1	24_4_1	NA	NA	0	1	2.14278912544	None	None	None	None	1
3.0.1	2019_Mar_08_1102	s	s	9	4	SIC	383	4_2	4	2	3	3	23_3_3	1	1	1	0	1.16365003586	-50.0	-70.0	-53.0	-69.0	1
3.0.1	2019_Mar_08_1102	s	s	9	4	SIC	384	2_4	2	4	4	3	23_4_3	2	1	1	0	0.496212005615	350.0	198.0	344.0	195.0	1
3.0.1	2019_Mar_08_1102	s	s	9	4	SIC	385	2_3	2	3	3	2	23_3_2	1	1	1	0	2.79581809044	490.0	-202.0	491.0	-209.0	1
3.0.1	2019_Mar_08_1102	s	s	9	4	SIC	386	3_2	3	2	3	4	23_3_4	0	2	1	0	0.840745210648	-466.0	205.0	-467.0	204.0	1
3.0.1	2019_Mar_08_1102	s	s	9	4	SIC	387	ABS	0	0	1	4	24_1_4	NA	NA	0	1	1.29797291756	None	None	None	None	1
3.0.1	2019_Mar_08_1102	s	s	9	4	SIC	388	2_4	2	4	4	2	23_4_2	2	2	1	0	0.587398052216	531.0	202.0	533.0	199.0	1
3.0.1	2019_Mar_08_1102	s	s	9	4	SIC	389	ABS	0	0	3	2	24_3_2	NA	NA	0	1	2.36998391151	None	None	None	None	1
3.0.1	2019_Mar_08_1102	s	s	9	4	SIC	390	ABS	0	0	4	1	24_4_1	NA	NA	0	1	1.34004807472	None	None	None	None	1
3.0.1	2019_Mar_08_1102	s	s	9	4	SIC	391	ABS	0	0	4	1	24_4_1	NA	NA	0	1	1.81059288979	None	None	None	None	1
3.0.1	2019_Mar_08_1102	s	s	9	4	SIC	392	ABS	0	0	2	2	24_2_2	NA	NA	0	1	4.26863384247	None	None	None	None	1
3.0.1	2019_Mar_08_1102	s	s	9	4	SIC	393	ABS	0	0	4	4	24_4_4	NA	NA	0	1	1.35624098778	None	None	None	None	1
3.0.1	2019_Mar_08_1102	s	s	9	4	SIC	394	1_4	1	4	4	4	23_4_4	3	0	1	0	0.792699098587	-539.0	-310.0	-536.0	-312.0	1
3.0.1	2019_Mar_08_1102	s	s	9	4	SIC	395	ABS	0	0	3	4	24_3_4	NA	NA	0	1	1.73462700844	None	None	None	None	1
3.0.1	2019_Mar_08_1102	s	s	9	4	SIC	396	3_4	3	4	2	2	23_2_2	1	2	1	0	0.735903978348	-357.0	-134.0	-349.0	-139.0	1
3.0.1	2019_Mar_08_1102	s	s	9	4	SIC	397	ABS	0	0	4	1	24_4_1	NA	NA	0	1	0.907827854156	None	None	None	None	1
3.0.1	2019_Mar_08_1102	s	s	9	4	SIC	398	ABS	0	0	4	1	24_4_1	NA	NA	0	1	2.08825588226	None	None	None	None	1
3.0.1	2019_Mar_08_1102	s	s	9	4	SIC	399	ABS	0	0	4	3	24_4_3	NA	NA	0	1	2.92785596848	None	None	None	None	1
3.0.1	2019_Mar_08_1102	s	s	9	4	SIC	400	ABS	0	0	3	3	24_3_3	NA	NA	0	1	2.53547596931	None	None	None	None	1
3.0.1	2019_Mar_08_1102	s	s	9	4	SIC	401	3_3	3	3	3	2	23_3_2	0	1	1	0	2.41315102577	411.0	-268.0	410.0	-264.0	1
3.0.1	2019_Mar_08_1102	s	s	9	4	SIC	402	ABS	0	0	2	3	24_2_3	NA	NA	0	1	3.11609697342	None	None	None	None	1
3.0.1	2019_Mar_08_1102	s	s	9	4	SIC	403	ABS	0	0	1	3	24_1_3	NA	NA	0	1	2.37802386284	None	None	None	None	1
3.0.1	2019_Mar_08_1102	s	s	9	4	SIC	404	4_1	4	1	2	4	23_2_4	2	3	1	0	0.587363958359	-359.0	278.0	-356.0	278.0	1
3.0.1	2019_Mar_08_1102	s	s	9	4	SIC	405	1_2	1	2	3	3	23_3_3	2	1	1	0	1.32837200165	355.0	-313.0	363.0	-314.0	1
3.0.1	2019_Mar_08_1102	s	s	9	4	SIC	406	3_3	3	3	1	1	23_1_1	2	2	1	0	0.546806097031	448.0	-72.0	449.0	-77.0	1
3.0.1	2019_Mar_08_1102	s	s	9	4	SIC	407	ABS	0	0	1	4	24_1_4	NA	NA	0	1	1.84049797058	None	None	None	None	1
3.0.1	2019_Mar_08_1102	s	s	9	4	SIC	408	2_4	2	4	2	2	23_2_2	0	2	1	0	0.834379196167	372.0	-263.0	369.0	-267.0	1
3.0.1	2019_Mar_08_1102	s	s	9	4	SIC	409	3_2	3	2	3	3	23_3_3	0	1	1	0	2.56082296371	-153.0	-161.0	-154.0	-162.0	1
3.0.1	2019_Mar_08_1102	s	s	9	4	SIC	410	ABS	0	0	2	1	24_2_1	NA	NA	0	1	2.29270601273	None	None	None	None	1
3.0.1	2019_Mar_08_1102	s	s	9	4	SIC	411	1_2	1	2	2	4	23_2_4	1	2	1	0	0.837316989899	-147.0	-326.0	-144.0	-326.0	1
3.0.1	2019_Mar_08_1102	s	s	9	4	SIC	412	ABS	0	0	1	4	24_1_4	NA	NA	0	1	1.40370392799	None	None	None	None	1
3.0.1	2019_Mar_08_1102	s	s	9	4	SIC	413	ABS	0	0	2	1	24_2_1	NA	NA	0	1	1.708963871	None	None	None	None	1
3.0.1	2019_Mar_08_1102	s	s	9	4	SIC	414	2_1	2	1	1	2	23_1_2	-1	1	1	0	3.83651208878	-441.0	210.0	-441.0	205.0	1
3.0.1	2019_Mar_08_1102	s	s	9	4	SIC	415	4_1	4	1	2	3	23_2_3	2	2	1	0	0.622622966766	338.0	408.0	345.0	408.0	1
3.0.1	2019_Mar_08_1102	s	s	9	4	SIC	416	ABS	0	0	3	1	24_3_1	NA	NA	0	1	1.43421697617	None	None	None	None	1
3.0.1	2019_Mar_08_1102	s	s	9	4	SIC	417	3_3	3	3	3	1	23_3_1	0	2	1	0	0.950298070908	360.0	-272.0	361.0	-270.0	1
3.0.1	2019_Mar_08_1102	s	s	9	4	SIC	418	3_1	3	1	2	2	23_2_2	1	1	1	0	0.697546005249	173.0	-103.0	165.0	-104.0	1
3.0.1	2019_Mar_08_1102	s	s	9	4	SIC	419	ABS	0	0	3	4	24_3_4	NA	NA	0	1	0.99937915802	None	None	None	None	1
3.0.1	2019_Mar_08_1102	s	s	9	4	SIC	420	4_3	4	3	1	4	23_1_4	3	-1	1	0	0.57562494278	506.0	-406.0	510.0	-408.0	1
3.0.1	2019_Mar_08_1102	s	s	9	4	SIC	421	ABS	0	0	3	4	24_3_4	NA	NA	0	1	1.49996590614	None	None	None	None	1
3.0.1	2019_Mar_08_1102	s	s	9	4	SIC	422	3_4	3	4	3	2	23_3_2	0	2	1	0	0.822602987289	485.0	306.0	484.0	303.0	1
3.0.1	2019_Mar_08_1102	s	s	9	4	SIC	423	4_2	4	2	3	4	23_3_4	1	2	1	0	0.528585910797	-308.0	-82.0	-306.0	-85.0	1
3.0.1	2019_Mar_08_1102	s	s	9	4	SIC	424	2_1	2	1	3	3	23_3_3	1	2	1	0	0.710011005402	136.0	306.0	141.0	303.0	1
3.0.1	2019_Mar_08_1102	s	s	9	4	SIC	425	ABS	0	0	4	3	24_4_3	NA	NA	0	1	2.8689520359	None	None	None	None	1
3.0.1	2019_Mar_08_1102	s	s	9	4	SIC	426	ABS	0	0	2	1	24_2_1	NA	NA	0	1	3.22186994553	None	None	None	None	1
3.0.1	2019_Mar_08_1102	s	s	9	4	SIC	427	4_4	4	4	3	3	23_3_3	1	1	1	0	0.92848110199	-91.0	319.0	-87.0	314.0	1
3.0.1	2019_Mar_08_1102	s	s	9	4	SIC	428	ABS	0	0	2	4	24_2_4	NA	NA	0	1	2.83378005028	None	None	None	None	1
3.0.1	2019_Mar_08_1102	s	s	9	4	SIC	429	4_3	4	3	3	4	23_3_4	1	-1	1	0	0.822695970535	-156.0	-14.0	-159.0	-19.0	1
3.0.1	2019_Mar_08_1102	s	s	9	4	SIC	430	ABS	0	0	4	1	24_4_1	NA	NA	0	1	1.43746399879	None	None	None	None	1
3.0.1	2019_Mar_08_1102	s	s	9	4	SIC	431	1_4	1	4	3	3	23_3_3	2	1	1	0	0.731374979019	-32.0	279.0	-30.0	268.0	1
3.0.1	2019_Mar_08_1102	s	s	9	4	SIC	432	2_1	2	1	3	1	23_3_1	1	0	1	0	1.67229819298	500.0	-132.0	507.0	-124.0	1
3.0.1	2019_Mar_08_1102	s	s	9	4	SIC	433	ABS	0	0	4	4	24_4_4	NA	NA	0	1	1.11699295044	None	None	None	None	1
3.0.1	2019_Mar_08_1102	s	s	9	4	SIC	434	ABS	0	0	4	1	24_4_1	NA	NA	0	1	1.35608506203	None	None	None	None	1
3.0.1	2019_Mar_08_1102	s	s	9	4	SIC	435	ABS	0	0	3	1	24_3_1	NA	NA	0	1	1.30485105515	None	None	None	None	1
3.0.1	2019_Mar_08_1102	s	s	9	4	SIC	436	ABS	0	0	1	1	24_1_1	NA	NA	0	1	1.36657786369	None	None	None	None	1
3.0.1	2019_Mar_08_1102	s	s	9	4	SIC	437	ABS	0	0	4	4	24_4_4	NA	NA	0	1	0.922398090363	None	None	None	None	1
3.0.1	2019_Mar_08_1102	s	s	9	4	SIC	438	ABS	0	0	4	1	24_4_1	NA	NA	0	1	1.61833095551	None	None	None	None	1
3.0.1	2019_Mar_08_1102	s	s	9	4	SIC	439	ABS	0	0	4	1	24_4_1	NA	NA	0	1	2.30460500717	None	None	None	None	1
3.0.1	2019_Mar_08_1102	s	s	9	4	SIC	440	4_4	4	4	3	2	23_3_2	1	2	1	0	1.43714880943	90.0	-352.0	88.0	-350.0	1
3.0.1	2019_Mar_08_1102	s	s	9	4	SIC	441	ABS	0	0	4	2	24_4_2	NA	NA	0	1	4.36272382736	None	None	None	None	1
3.0.1	2019_Mar_08_1102	s	s	9	4	SIC	442	ABS	0	0	2	1	24_2_1	NA	NA	0	1	2.31921505928	None	None	None	None	1
3.0.1	2019_Mar_08_1102	s	s	9	4	SIC	443	ABS	0	0	2	2	24_2_2	NA	NA	0	1	4.21469092369	None	None	None	None	1
3.0.1	2019_Mar_08_1102	s	s	9	4	SIC	444	1_2	1	2	4	1	23_4_1	3	-1	1	0	0.839076042175	-438.0	187.0	-444.0	190.0	1
3.0.1	2019_Mar_08_1102	s	s	9	4	SIC	445	ABS	0	0	3	4	24_3_4	NA	NA	0	1	0.898212909698	None	None	None	None	1
3.0.1	2019_Mar_08_1102	s	s	9	4	SIC	446	3_1	3	1	4	4	23_4_4	-1	3	1	0	0.554991960526	-259.0	159.0	-266.0	156.0	1
3.0.1	2019_Mar_08_1102	s	s	9	4	SIC	447	ABS	0	0	1	1	24_1_1	NA	NA	0	1	1.79867291451	None	None	None	None	1
3.0.1	2019_Mar_08_1102	s	s	9	4	SIC	448	ABS	0	0	1	3	24_1_3	NA	NA	0	1	2.21041512489	None	None	None	None	1
3.0.1	2019_Mar_08_1102	s	s	9	4	SIC	449	ABS	0	0	2	2	24_2_2	NA	NA	0	1	3.56104493141	None	None	None	None	1
3.0.1	2019_Mar_08_1102	s	s	9	4	SIC	450	ABS	0	0	3	1	24_3_1	NA	NA	0	1	2.12817788124	None	None	None	None	1
3.0.1	2019_Mar_08_1102	s	s	9	4	SIC	451	ABS	0	0	1	3	24_1_3	NA	NA	0	1	3.09789395332	None	None	None	None	1
3.0.1	2019_Mar_08_1102	s	s	9	4	SIC	452	ABS	0	0	3	3	24_3_3	NA	NA	0	1	2.65739583969	None	None	None	None	1
3.0.1	2019_Mar_08_1102	s	s	9	4	SIC	453	4_2	4	2	4	1	23_4_1	0	-1	1	0	1.35596299171	151.0	-143.0	159.0	-139.0	1
3.0.1	2019_Mar_08_1102	s	s	9	4	SIC	454	ABS	0	0	2	1	24_2_1	NA	NA	0	1	2.50138092041	None	None	None	None	1
3.0.1	2019_Mar_08_1102	s	s	9	4	SIC	455	3_2	3	2	2	2	23_2_2	1	0	1	0	0.669695138931	165.0	46.0	162.0	46.0	1
3.0.1	2019_Mar_08_1102	s	s	9	4	SIC	456	ABS	0	0	1	2	24_1_2	NA	NA	0	1	4.0687251091	None	None	None	None	1
3.0.1	2019_Mar_08_1102	s	s	9	4	SIC	457	ABS	0	0	1	1	24_1_1	NA	NA	0	1	2.08113789558	None	None	None	None	1
3.0.1	2019_Mar_08_1102	s	s	9	4	SIC	458	4_3	4	3	2	4	23_2_4	2	-1	1	0	0.613832950592	-115.0	-53.0	-120.0	-60.0	1
3.0.1	2019_Mar_08_1102	s	s	9	4	SIC	459	ABS	0	0	1	4	24_1_4	NA	NA	0	1	2.17514801025	None	None	None	None	1
3.0.1	2019_Mar_08_1102	s	s	9	4	SIC	460	ABS	0	0	1	3	24_1_3	NA	NA	0	1	5.25942397118	None	None	None	None	1
3.0.1	2019_Mar_08_1102	s	s	9	4	SIC	461	ABS	0	0	3	3	24_3_3	NA	NA	0	1	3.89715790749	None	None	None	None	1
3.0.1	2019_Mar_08_1102	s	s	9	4	SIC	462	ABS	0	0	4	4	24_4_4	NA	NA	0	1	1.07511401176	None	None	None	None	1
3.0.1	2019_Mar_08_1102	s	s	9	4	SIC	463	1_4	1	4	2	3	23_2_3	1	1	1	0	0.803885936737	354.0	16.0	355.0	13.0	1
3.0.1	2019_Mar_08_1102	s	s	9	4	SIC	464	2_3	2	3	3	4	23_3_4	1	-1	1	0	0.780524969101	130.0	-354.0	129.0	-353.0	1
3.0.1	2019_Mar_08_1102	s	s	9	4	SIC	465	2_4	2	4	4	1	23_4_1	2	3	1	0	0.555001974106	-315.0	181.0	-314.0	175.0	1
3.0.1	2019_Mar_08_1102	s	s	9	4	SIC	466	1_4	1	4	1	1	23_1_1	0	3	1	0	0.646106004715	469.0	-238.0	469.0	-241.0	1
3.0.1	2019_Mar_08_1102	s	s	9	4	SIC	467	ABS	0	0	4	2	24_4_2	NA	NA	0	1	4.66162705421	None	None	None	None	1
3.0.1	2019_Mar_08_1102	s	s	9	4	SIC	468	ABS	0	0	3	3	24_3_3	NA	NA	0	1	2.50446105003	None	None	None	None	1
3.0.1	2019_Mar_08_1102	s	s	9	4	SIC	469	1_4	1	4	3	2	23_3_2	2	2	1	0	0.913835048676	68.0	-367.0	71.0	-362.0	1
3.0.1	2019_Mar_08_1102	s	s	9	4	SIC	470	ABS	0	0	1	2	24_1_2	NA	NA	0	1	4.48520302773	None	None	None	None	1
3.0.1	2019_Mar_08_1102	s	s	9	4	SIC	471	ABS	0	0	3	3	24_3_3	NA	NA	0	1	3.44535112381	None	None	None	None	1
3.0.1	2019_Mar_08_1102	s	s	9	4	SIC	472	2_1	2	1	2	3	23_2_3	0	2	1	0	0.710988998413	-66.0	242.0	-62.0	243.0	1
3.0.1	2019_Mar_08_1102	s	s	9	4	SIC	473	2_4	2	4	3	4	23_3_4	1	0	1	0	1.20437812805	485.0	215.0	488.0	212.0	1
3.0.1	2019_Mar_08_1102	s	s	9	4	SIC	474	ABS	0	0	3	2	24_3_2	NA	NA	0	1	5.64461898804	None	None	None	None	1
3.0.1	2019_Mar_08_1102	s	s	9	4	SIC	475	ABS	0	0	4	2	24_4_2	NA	NA	0	1	4.36279201508	None	None	None	None	1
3.0.1	2019_Mar_08_1102	s	s	9	4	SIC	476	2_1	2	1	4	3	23_4_3	2	2	1	0	0.614791870117	242.0	274.0	247.0	271.0	1
3.0.1	2019_Mar_08_1102	s	s	9	4	SIC	477	ABS	0	0	4	4	24_4_4	NA	NA	0	1	3.72759985924	None	None	None	None	1
3.0.1	2019_Mar_08_1102	s	s	9	4	SIC	478	4_1	4	1	4	3	23_4_3	0	2	1	0	1.61065411568	-139.0	-408.0	-143.0	-409.0	1
3.0.1	2019_Mar_08_1102	s	s	9	4	SIC	479	4_1	4	1	1	2	23_1_2	3	1	1	0	0.801771879196	480.0	-37.0	483.0	-44.0	1
3.0.1	2019_Mar_08_1102	s	s	9	4	SIC	480	3_1	3	1	2	3	23_2_3	1	2	1	0	0.893260002136	121.0	65.0	120.0	61.0	1
