Version	Date	Stimuli	Method	Subject	Session	Condition	Trial	Target	TColor	TShape	DColor	DShape	Distractors	Channel1	Channel2	LMouseButton	RMouseButton	RT	TargetX	TargetY	ResponseX	ResponseY	Correct
3.0.1	2019_Mar_07_1109	s	s	9	3	Capacity	1	ABS	0	0	2	1	24_2_1	NA	NA	0	1	2.8575758934	None	None	None	None	1
3.0.1	2019_Mar_07_1109	s	s	9	3	Capacity	2	2_1	2	1	3	1	23_3_1	1	0	1	0	0.540426015854	-136.0	26.0	-130.0	25.0	1
3.0.1	2019_Mar_07_1109	s	s	9	3	Capacity	3	3_1	3	1	4	1	23_4_1	-1	0	1	0	0.475107908249	180.0	-219.0	179.0	-217.0	1
3.0.1	2019_Mar_07_1109	s	s	9	3	Capacity	4	4_1	4	1	2	1	23_2_1	2	0	1	0	0.505056858063	146.0	304.0	149.0	305.0	1
3.0.1	2019_Mar_07_1109	s	s	9	3	Capacity	5	3_1	3	1	2	1	23_2_1	1	0	1	0	0.563805103302	-410.0	110.0	-411.0	100.0	1
3.0.1	2019_Mar_07_1109	s	s	9	3	Capacity	6	ABS	0	0	1	1	24_1_1	NA	NA	0	1	1.3165409565	None	None	None	None	1
3.0.1	2019_Mar_07_1109	s	s	9	3	Capacity	7	2_1	2	1	4	1	23_4_1	2	0	1	0	0.57559299469	-84.0	56.0	-83.0	56.0	1
3.0.1	2019_Mar_07_1109	s	s	9	3	Capacity	8	1_1	1	1	4	1	23_4_1	3	0	1	0	0.434509992599	-184.0	199.0	-186.0	197.0	1
3.0.1	2019_Mar_07_1109	s	s	9	3	Capacity	9	ABS	0	0	4	1	24_4_1	NA	NA	0	1	1.29302406311	None	None	None	None	1
3.0.1	2019_Mar_07_1109	s	s	9	3	Capacity	10	ABS	0	0	2	1	24_2_1	NA	NA	0	1	4.34406614304	None	None	None	None	1
3.0.1	2019_Mar_07_1109	s	s	9	3	Capacity	11	ABS	0	0	1	1	24_1_1	NA	NA	0	1	2.63372802734	None	None	None	None	1
3.0.1	2019_Mar_07_1109	s	s	9	3	Capacity	12	ABS	0	0	4	1	24_4_1	NA	NA	0	1	1.0512368679	None	None	None	None	1
3.0.1	2019_Mar_07_1109	s	s	9	3	Capacity	13	1_1	1	1	3	1	23_3_1	2	0	1	0	0.795971155167	201.0	-330.0	205.0	-332.0	1
3.0.1	2019_Mar_07_1109	s	s	9	3	Capacity	14	4_1	4	1	1	1	23_1_1	3	0	1	0	0.663109779358	532.0	22.0	530.0	19.0	1
3.0.1	2019_Mar_07_1109	s	s	9	3	Capacity	15	ABS	0	0	3	1	24_3_1	NA	NA	0	1	1.9222009182	None	None	None	None	1
3.0.1	2019_Mar_07_1109	s	s	9	3	Capacity	16	3_1	3	1	1	1	23_1_1	2	0	1	0	0.958567857742	385.0	-368.0	382.0	-367.0	1
3.0.1	2019_Mar_07_1109	s	s	9	3	Capacity	17	2_1	2	1	1	1	23_1_1	-1	0	1	0	1.1166241169	414.0	-23.0	419.0	-21.0	1
3.0.1	2019_Mar_07_1109	s	s	9	3	Capacity	18	4_1	4	1	3	1	23_3_1	1	0	1	0	0.517194986343	-201.0	-148.0	-196.0	-149.0	1
3.0.1	2019_Mar_07_1109	s	s	9	3	Capacity	19	ABS	0	0	1	1	24_1_1	NA	NA	0	1	2.12813091278	None	None	None	None	1
3.0.1	2019_Mar_07_1109	s	s	9	3	Capacity	20	ABS	0	0	3	1	24_3_1	NA	NA	0	1	1.49599909782	None	None	None	None	1
3.0.1	2019_Mar_07_1109	s	s	9	3	Capacity	21	ABS	0	0	2	1	24_2_1	NA	NA	0	1	3.26890087128	None	None	None	None	1
3.0.1	2019_Mar_07_1109	s	s	9	3	Capacity	22	ABS	0	0	4	1	24_4_1	NA	NA	0	1	1.12852406502	None	None	None	None	1
3.0.1	2019_Mar_07_1109	s	s	9	3	Capacity	23	ABS	0	0	3	1	24_3_1	NA	NA	0	1	1.39183187485	None	None	None	None	1
3.0.1	2019_Mar_07_1109	s	s	9	3	Capacity	24	1_1	1	1	2	1	23_2_1	1	0	1	0	3.10428881645	-518.0	-310.0	-516.0	-309.0	1
3.0.1	2019_Mar_07_1109	s	s	9	3	Capacity	25	4_1	4	1	1	1	23_1_1	3	0	1	0	0.599123954773	98.0	387.0	101.0	384.0	1
3.0.1	2019_Mar_07_1109	s	s	9	3	Capacity	26	4_1	4	1	2	1	23_2_1	2	0	1	0	0.61599111557	-178.0	-17.0	-176.0	-18.0	1
3.0.1	2019_Mar_07_1109	s	s	9	3	Capacity	27	ABS	0	0	4	1	24_4_1	NA	NA	0	1	1.20424318314	None	None	None	None	1
3.0.1	2019_Mar_07_1109	s	s	9	3	Capacity	28	ABS	0	0	3	1	24_3_1	NA	NA	0	1	1.26069784164	None	None	None	None	1
3.0.1	2019_Mar_07_1109	s	s	9	3	Capacity	29	3_1	3	1	1	1	23_1_1	2	0	1	0	0.510073184967	529.0	33.0	529.0	32.0	1
3.0.1	2019_Mar_07_1109	s	s	9	3	Capacity	30	ABS	0	0	2	1	24_2_1	NA	NA	0	1	2.77496004105	None	None	None	None	1
3.0.1	2019_Mar_07_1109	s	s	9	3	Capacity	31	1_1	1	1	4	1	23_4_1	3	0	1	0	0.592486858368	358.0	-314.0	358.0	-314.0	1
3.0.1	2019_Mar_07_1109	s	s	9	3	Capacity	32	ABS	0	0	4	1	24_4_1	NA	NA	0	1	2.70431303978	None	None	None	None	1
3.0.1	2019_Mar_07_1109	s	s	9	3	Capacity	33	1_1	1	1	2	1	23_2_1	1	0	1	0	1.61642789841	-280.0	-34.0	-280.0	-33.0	1
3.0.1	2019_Mar_07_1109	s	s	9	3	Capacity	34	ABS	0	0	3	1	24_3_1	NA	NA	0	1	1.89859700203	None	None	None	None	1
3.0.1	2019_Mar_07_1109	s	s	9	3	Capacity	35	4_1	4	1	3	1	23_3_1	1	0	1	0	0.59915804863	505.0	332.0	504.0	329.0	1
3.0.1	2019_Mar_07_1109	s	s	9	3	Capacity	36	1_1	1	1	3	1	23_3_1	2	0	1	0	0.51676607132	-58.0	-149.0	-52.0	-152.0	1
3.0.1	2019_Mar_07_1109	s	s	9	3	Capacity	37	ABS	0	0	3	1	24_3_1	NA	NA	0	1	2.11630892754	None	None	None	None	1
3.0.1	2019_Mar_07_1109	s	s	9	3	Capacity	38	ABS	0	0	1	1	24_1_1	NA	NA	0	1	2.0341899395	None	None	None	None	1
3.0.1	2019_Mar_07_1109	s	s	9	3	Capacity	39	ABS	0	0	1	1	24_1_1	NA	NA	0	1	2.45108795166	None	None	None	None	1
3.0.1	2019_Mar_07_1109	s	s	9	3	Capacity	40	2_1	2	1	1	1	23_1_1	-1	0	0	1	1.6723690033	-428.0	22.0	None	None	0
3.0.1	2019_Mar_07_1109	s	s	9	3	Capacity	41	2_1	2	1	3	1	23_3_1	1	0	1	0	0.693221092224	-386.0	194.0	-383.0	198.0	1
3.0.1	2019_Mar_07_1109	s	s	9	3	Capacity	42	ABS	0	0	2	1	24_2_1	NA	NA	0	1	2.58164405823	None	None	None	None	1
3.0.1	2019_Mar_07_1109	s	s	9	3	Capacity	43	ABS	0	0	1	1	24_1_1	NA	NA	0	1	1.59888291359	None	None	None	None	1
3.0.1	2019_Mar_07_1109	s	s	9	3	Capacity	44	ABS	0	0	4	1	24_4_1	NA	NA	0	1	1.1284160614	None	None	None	None	1
3.0.1	2019_Mar_07_1109	s	s	9	3	Capacity	45	2_1	2	1	4	1	23_4_1	2	0	1	0	0.592103004456	472.0	-399.0	478.0	-407.0	1
3.0.1	2019_Mar_07_1109	s	s	9	3	Capacity	46	ABS	0	0	2	1	24_2_1	NA	NA	0	1	2.25751280785	None	None	None	None	1
3.0.1	2019_Mar_07_1109	s	s	9	3	Capacity	47	3_1	3	1	4	1	23_4_1	-1	0	1	0	0.573414087296	484.0	-74.0	485.0	-78.0	1
3.0.1	2019_Mar_07_1109	s	s	9	3	Capacity	48	3_1	3	1	2	1	23_2_1	1	0	1	0	0.516788005829	-42.0	-147.0	-54.0	-146.0	1
3.0.1	2019_Mar_07_1109	s	s	9	3	Capacity	49	3_1	3	1	1	1	23_1_1	2	0	1	0	0.587371110916	190.0	223.0	187.0	223.0	1
3.0.1	2019_Mar_07_1109	s	s	9	3	Capacity	50	4_1	4	1	1	1	23_1_1	3	0	1	0	0.559669017792	257.0	147.0	257.0	147.0	1
3.0.1	2019_Mar_07_1109	s	s	9	3	Capacity	51	2_1	2	1	1	1	23_1_1	-1	0	1	0	1.81334400177	116.0	-131.0	119.0	-137.0	1
3.0.1	2019_Mar_07_1109	s	s	9	3	Capacity	52	4_1	4	1	3	1	23_3_1	1	0	1	0	0.676062822342	119.0	369.0	120.0	363.0	1
3.0.1	2019_Mar_07_1109	s	s	9	3	Capacity	53	2_1	2	1	4	1	23_4_1	2	0	1	0	0.516815900803	454.0	358.0	460.0	354.0	1
3.0.1	2019_Mar_07_1109	s	s	9	3	Capacity	54	ABS	0	0	3	1	24_3_1	NA	NA	0	1	1.82229399681	None	None	None	None	1
3.0.1	2019_Mar_07_1109	s	s	9	3	Capacity	55	ABS	0	0	4	1	24_4_1	NA	NA	0	1	1.22695302963	None	None	None	None	1
3.0.1	2019_Mar_07_1109	s	s	9	3	Capacity	56	ABS	0	0	4	1	24_4_1	NA	NA	0	1	1.38711118698	None	None	None	None	1
3.0.1	2019_Mar_07_1109	s	s	9	3	Capacity	57	3_1	3	1	2	1	23_2_1	1	0	1	0	0.893300056458	-518.0	174.0	-522.0	171.0	1
3.0.1	2019_Mar_07_1109	s	s	9	3	Capacity	58	ABS	0	0	3	1	24_3_1	NA	NA	0	1	1.65767192841	None	None	None	None	1
3.0.1	2019_Mar_07_1109	s	s	9	3	Capacity	59	ABS	0	0	3	1	24_3_1	NA	NA	0	1	1.19389796257	None	None	None	None	1
3.0.1	2019_Mar_07_1109	s	s	9	3	Capacity	60	ABS	0	0	2	1	24_2_1	NA	NA	0	1	2.04580616951	None	None	None	None	1
3.0.1	2019_Mar_07_1109	s	s	9	3	Capacity	61	ABS	0	0	1	1	24_1_1	NA	NA	0	1	1.49814987183	None	None	None	None	1
3.0.1	2019_Mar_07_1109	s	s	9	3	Capacity	62	ABS	0	0	1	1	24_1_1	NA	NA	0	1	2.37995386124	None	None	None	None	1
3.0.1	2019_Mar_07_1109	s	s	9	3	Capacity	63	ABS	0	0	2	1	24_2_1	NA	NA	0	1	2.77494311333	None	None	None	None	1
3.0.1	2019_Mar_07_1109	s	s	9	3	Capacity	64	ABS	0	0	2	1	24_2_1	NA	NA	0	1	1.82235598564	None	None	None	None	1
3.0.1	2019_Mar_07_1109	s	s	9	3	Capacity	65	ABS	0	0	4	1	24_4_1	NA	NA	0	1	1.03937697411	None	None	None	None	1
3.0.1	2019_Mar_07_1109	s	s	9	3	Capacity	66	1_1	1	1	4	1	23_4_1	3	0	1	0	0.629073143005	259.0	-336.0	265.0	-334.0	1
3.0.1	2019_Mar_07_1109	s	s	9	3	Capacity	67	3_1	3	1	4	1	23_4_1	-1	0	1	0	0.580714941025	300.0	-285.0	305.0	-288.0	1
3.0.1	2019_Mar_07_1109	s	s	9	3	Capacity	68	1_1	1	1	3	1	23_3_1	2	0	1	0	0.693222999573	101.0	-138.0	100.0	-136.0	1
3.0.1	2019_Mar_07_1109	s	s	9	3	Capacity	69	4_1	4	1	2	1	23_2_1	2	0	1	0	0.516878843307	-461.0	172.0	-460.0	171.0	1
3.0.1	2019_Mar_07_1109	s	s	9	3	Capacity	70	1_1	1	1	2	1	23_2_1	1	0	1	0	1.96734499931	7.0	133.0	14.0	129.0	1
3.0.1	2019_Mar_07_1109	s	s	9	3	Capacity	71	ABS	0	0	1	1	24_1_1	NA	NA	0	1	2.37801885605	None	None	None	None	1
3.0.1	2019_Mar_07_1109	s	s	9	3	Capacity	72	2_1	2	1	3	1	23_3_1	1	0	1	0	0.605601072311	128.0	-323.0	132.0	-323.0	1
3.0.1	2019_Mar_07_1109	s	s	9	3	Capacity	73	ABS	0	0	4	1	24_4_1	NA	NA	0	1	0.790202856064	None	None	None	None	1
3.0.1	2019_Mar_07_1109	s	s	9	3	Capacity	74	1_1	1	1	2	1	23_2_1	1	0	1	0	1.51931595802	369.0	-65.0	367.0	-59.0	1
3.0.1	2019_Mar_07_1109	s	s	9	3	Capacity	75	1_1	1	1	3	1	23_3_1	2	0	1	0	0.593929052353	-470.0	298.0	-471.0	301.0	1
3.0.1	2019_Mar_07_1109	s	s	9	3	Capacity	76	4_1	4	1	2	1	23_2_1	2	0	1	0	0.540343999863	-412.0	95.0	-412.0	96.0	1
3.0.1	2019_Mar_07_1109	s	s	9	3	Capacity	77	ABS	0	0	1	1	24_1_1	NA	NA	0	1	3.39825391769	None	None	None	None	1
3.0.1	2019_Mar_07_1109	s	s	9	3	Capacity	78	2_1	2	1	4	1	23_4_1	2	0	1	0	0.603811979294	328.0	151.0	336.0	146.0	1
3.0.1	2019_Mar_07_1109	s	s	9	3	Capacity	79	3_1	3	1	2	1	23_2_1	1	0	1	0	0.563739061356	484.0	-185.0	480.0	-190.0	1
3.0.1	2019_Mar_07_1109	s	s	9	3	Capacity	80	3_1	3	1	4	1	23_4_1	-1	0	1	0	0.469788074493	-41.0	-110.0	-47.0	-109.0	1
3.0.1	2019_Mar_07_1109	s	s	9	3	Capacity	81	2_1	2	1	1	1	23_1_1	-1	0	1	0	1.75213098526	-47.0	-114.0	-54.0	-117.0	1
3.0.1	2019_Mar_07_1109	s	s	9	3	Capacity	82	ABS	0	0	3	1	24_3_1	NA	NA	0	1	2.9749341011	None	None	None	None	1
3.0.1	2019_Mar_07_1109	s	s	9	3	Capacity	83	2_1	2	1	3	1	23_3_1	1	0	1	0	1.07597184181	-338.0	-390.0	-340.0	-390.0	1
3.0.1	2019_Mar_07_1109	s	s	9	3	Capacity	84	ABS	0	0	2	1	24_2_1	NA	NA	0	1	2.01061105728	None	None	None	None	1
3.0.1	2019_Mar_07_1109	s	s	9	3	Capacity	85	4_1	4	1	3	1	23_3_1	1	0	1	0	0.646182060242	405.0	363.0	410.0	354.0	1
3.0.1	2019_Mar_07_1109	s	s	9	3	Capacity	86	3_1	3	1	1	1	23_1_1	2	0	1	0	0.8578748703	-423.0	-404.0	-421.0	-405.0	1
3.0.1	2019_Mar_07_1109	s	s	9	3	Capacity	87	ABS	0	0	1	1	24_1_1	NA	NA	0	1	2.69793701172	None	None	None	None	1
3.0.1	2019_Mar_07_1109	s	s	9	3	Capacity	88	ABS	0	0	2	1	24_2_1	NA	NA	0	1	3.49543094635	None	None	None	None	1
3.0.1	2019_Mar_07_1109	s	s	9	3	Capacity	89	1_1	1	1	4	1	23_4_1	3	0	1	0	0.604293107986	-489.0	163.0	-489.0	160.0	1
3.0.1	2019_Mar_07_1109	s	s	9	3	Capacity	90	ABS	0	0	4	1	24_4_1	NA	NA	0	1	2.16342902184	None	None	None	None	1
3.0.1	2019_Mar_07_1109	s	s	9	3	Capacity	91	ABS	0	0	3	1	24_3_1	NA	NA	0	1	2.07440400124	None	None	None	None	1
3.0.1	2019_Mar_07_1109	s	s	9	3	Capacity	92	ABS	0	0	1	1	24_1_1	NA	NA	0	1	2.57985901833	None	None	None	None	1
3.0.1	2019_Mar_07_1109	s	s	9	3	Capacity	93	ABS	0	0	4	1	24_4_1	NA	NA	0	1	1.16879081726	None	None	None	None	1
3.0.1	2019_Mar_07_1109	s	s	9	3	Capacity	94	ABS	0	0	2	1	24_2_1	NA	NA	0	1	3.02578806877	None	None	None	None	1
3.0.1	2019_Mar_07_1109	s	s	9	3	Capacity	95	ABS	0	0	3	1	24_3_1	NA	NA	0	1	2.28656196594	None	None	None	None	1
3.0.1	2019_Mar_07_1109	s	s	9	3	Capacity	96	4_1	4	1	1	1	23_1_1	3	0	1	0	0.607501029968	154.0	105.0	151.0	98.0	1
3.0.1	2019_Mar_07_1109	s	s	9	3	Capacity	1	1_2	1	2	1	1	23_1_1	0	-1	1	0	1.82229089737	17.0	48.0	25.0	46.0	1
3.0.1	2019_Mar_07_1109	s	s	9	3	Capacity	2	ABS	0	0	1	1	24_1_1	NA	NA	0	1	2.88077807426	None	None	None	None	1
3.0.1	2019_Mar_07_1109	s	s	9	3	Capacity	3	ABS	0	0	1	3	24_1_3	NA	NA	0	1	2.93967485428	None	None	None	None	1
3.0.1	2019_Mar_07_1109	s	s	9	3	Capacity	4	1_3	1	3	1	4	23_1_4	0	-1	1	0	0.857866048813	521.0	-28.0	523.0	-28.0	1
3.0.1	2019_Mar_07_1109	s	s	9	3	Capacity	5	1_1	1	1	1	2	23_1_2	0	1	0	1	3.51588320732	157.0	-82.0	None	None	0
3.0.1	2019_Mar_07_1109	s	s	9	3	Capacity	6	ABS	0	0	1	2	24_1_2	NA	NA	0	1	3.02806997299	None	None	None	None	1
3.0.1	2019_Mar_07_1109	s	s	9	3	Capacity	7	ABS	0	0	1	2	24_1_2	NA	NA	0	1	2.65097403526	None	None	None	None	1
3.0.1	2019_Mar_07_1109	s	s	9	3	Capacity	8	ABS	0	0	1	4	24_1_4	NA	NA	0	1	3.37768697739	None	None	None	None	1
3.0.1	2019_Mar_07_1109	s	s	9	3	Capacity	9	ABS	0	0	1	3	24_1_3	NA	NA	0	1	2.26211810112	None	None	None	None	1
3.0.1	2019_Mar_07_1109	s	s	9	3	Capacity	10	1_4	1	4	1	1	23_1_1	0	3	1	0	0.657941818237	-410.0	134.0	-418.0	128.0	1
3.0.1	2019_Mar_07_1109	s	s	9	3	Capacity	11	1_3	1	3	1	2	23_1_2	0	1	1	0	1.15726280212	-351.0	83.0	-349.0	80.0	1
3.0.1	2019_Mar_07_1109	s	s	9	3	Capacity	12	ABS	0	0	1	1	24_1_1	NA	NA	0	1	2.98664999008	None	None	None	None	1
3.0.1	2019_Mar_07_1109	s	s	9	3	Capacity	13	ABS	0	0	1	3	24_1_3	NA	NA	0	1	1.88653492928	None	None	None	None	1
3.0.1	2019_Mar_07_1109	s	s	9	3	Capacity	14	1_1	1	1	1	4	23_1_4	0	3	1	0	0.745229959488	-212.0	366.0	-206.0	364.0	1
3.0.1	2019_Mar_07_1109	s	s	9	3	Capacity	15	1_3	1	3	1	1	23_1_1	0	2	1	0	0.676990032196	25.0	113.0	28.0	113.0	1
3.0.1	2019_Mar_07_1109	s	s	9	3	Capacity	16	1_4	1	4	1	3	23_1_3	0	1	1	0	0.581032991409	154.0	-56.0	157.0	-54.0	1
3.0.1	2019_Mar_07_1109	s	s	9	3	Capacity	17	1_1	1	1	1	3	23_1_3	0	2	1	0	0.778473854065	-20.0	391.0	-21.0	385.0	1
3.0.1	2019_Mar_07_1109	s	s	9	3	Capacity	18	1_4	1	4	1	2	23_1_2	0	2	1	0	0.651329994202	421.0	-370.0	421.0	-373.0	1
3.0.1	2019_Mar_07_1109	s	s	9	3	Capacity	19	1_2	1	2	1	3	23_1_3	0	1	1	0	3.8032181263	204.0	343.0	209.0	345.0	1
3.0.1	2019_Mar_07_1109	s	s	9	3	Capacity	20	ABS	0	0	1	2	24_1_2	NA	NA	0	1	3.46882605553	None	None	None	None	1
3.0.1	2019_Mar_07_1109	s	s	9	3	Capacity	21	ABS	0	0	1	4	24_1_4	NA	NA	0	1	1.29817605019	None	None	None	None	1
3.0.1	2019_Mar_07_1109	s	s	9	3	Capacity	22	1_2	1	2	1	4	23_1_4	0	2	1	0	0.728549957275	515.0	233.0	517.0	220.0	1
3.0.1	2019_Mar_07_1109	s	s	9	3	Capacity	23	ABS	0	0	1	4	24_1_4	NA	NA	0	1	1.32560896873	None	None	None	None	1
3.0.1	2019_Mar_07_1109	s	s	9	3	Capacity	24	ABS	0	0	1	1	24_1_1	NA	NA	0	1	2.73846292496	None	None	None	None	1
3.0.1	2019_Mar_07_1109	s	s	9	3	Capacity	25	1_2	1	2	1	3	23_1_3	0	1	0	1	4.33919596672	17.0	47.0	None	None	0
3.0.1	2019_Mar_07_1109	s	s	9	3	Capacity	26	1_2	1	2	1	4	23_1_4	0	2	1	0	0.70500087738	342.0	77.0	344.0	78.0	1
3.0.1	2019_Mar_07_1109	s	s	9	3	Capacity	27	ABS	0	0	1	1	24_1_1	NA	NA	0	1	2.29276585579	None	None	None	None	1
3.0.1	2019_Mar_07_1109	s	s	9	3	Capacity	28	1_4	1	4	1	3	23_1_3	0	1	1	0	0.672626972198	409.0	-68.0	409.0	-70.0	1
3.0.1	2019_Mar_07_1109	s	s	9	3	Capacity	29	ABS	0	0	1	3	24_1_3	NA	NA	0	1	3.41003680229	None	None	None	None	1
3.0.1	2019_Mar_07_1109	s	s	9	3	Capacity	30	ABS	0	0	1	2	24_1_2	NA	NA	0	1	4.44551610947	None	None	None	None	1
3.0.1	2019_Mar_07_1109	s	s	9	3	Capacity	31	1_1	1	1	1	3	23_1_3	0	2	1	0	0.911507129669	516.0	126.0	513.0	128.0	1
3.0.1	2019_Mar_07_1109	s	s	9	3	Capacity	32	ABS	0	0	1	3	24_1_3	NA	NA	0	1	4.36803483963	None	None	None	None	1
3.0.1	2019_Mar_07_1109	s	s	9	3	Capacity	33	1_3	1	3	1	4	23_1_4	0	-1	1	0	0.697483062744	-438.0	-108.0	-443.0	-112.0	1
3.0.1	2019_Mar_07_1109	s	s	9	3	Capacity	34	1_3	1	3	1	1	23_1_1	0	2	1	0	0.787362098694	17.0	-132.0	16.0	-136.0	1
3.0.1	2019_Mar_07_1109	s	s	9	3	Capacity	35	ABS	0	0	1	3	24_1_3	NA	NA	0	1	2.48095393181	None	None	None	None	1
3.0.1	2019_Mar_07_1109	s	s	9	3	Capacity	36	1_1	1	1	1	4	23_1_4	0	3	1	0	0.610925912857	-286.0	161.0	-296.0	162.0	1
3.0.1	2019_Mar_07_1109	s	s	9	3	Capacity	37	1_4	1	4	1	1	23_1_1	0	3	1	0	0.727391004562	-433.0	184.0	-431.0	180.0	1
3.0.1	2019_Mar_07_1109	s	s	9	3	Capacity	38	ABS	0	0	1	2	24_1_2	NA	NA	0	1	5.08300614357	None	None	None	None	1
3.0.1	2019_Mar_07_1109	s	s	9	3	Capacity	39	1_1	1	1	1	2	23_1_2	0	1	1	0	3.67735409737	-492.0	-381.0	-489.0	-382.0	1
3.0.1	2019_Mar_07_1109	s	s	9	3	Capacity	40	ABS	0	0	1	4	24_1_4	NA	NA	0	1	1.32085609436	None	None	None	None	1
3.0.1	2019_Mar_07_1109	s	s	9	3	Capacity	41	1_2	1	2	1	1	23_1_1	0	-1	0	1	2.15634179115	-107.0	-94.0	None	None	0
3.0.1	2019_Mar_07_1109	s	s	9	3	Capacity	42	ABS	0	0	1	2	24_1_2	NA	NA	0	1	4.24522900581	None	None	None	None	1
3.0.1	2019_Mar_07_1109	s	s	9	3	Capacity	43	1_3	1	3	1	2	23_1_2	0	1	0	1	3.31055188179	-132.0	381.0	None	None	0
3.0.1	2019_Mar_07_1109	s	s	9	3	Capacity	44	ABS	0	0	1	4	24_1_4	NA	NA	0	1	2.15627717972	None	None	None	None	1
3.0.1	2019_Mar_07_1109	s	s	9	3	Capacity	45	ABS	0	0	1	1	24_1_1	NA	NA	0	1	2.43694901466	None	None	None	None	1
3.0.1	2019_Mar_07_1109	s	s	9	3	Capacity	46	ABS	0	0	1	1	24_1_1	NA	NA	0	1	1.85761022568	None	None	None	None	1
3.0.1	2019_Mar_07_1109	s	s	9	3	Capacity	47	1_4	1	4	1	2	23_1_2	0	2	1	0	3.16831803322	-201.0	-352.0	-198.0	-351.0	1
3.0.1	2019_Mar_07_1109	s	s	9	3	Capacity	48	ABS	0	0	1	4	24_1_4	NA	NA	0	1	1.32655000687	None	None	None	None	1
3.0.1	2019_Mar_07_1109	s	s	9	3	Capacity	49	1_4	1	4	1	1	23_1_1	0	3	1	0	0.672589063644	215.0	-25.0	212.0	-25.0	1
3.0.1	2019_Mar_07_1109	s	s	9	3	Capacity	50	1_2	1	2	1	3	23_1_3	0	1	0	1	4.038367033	89.0	-180.0	None	None	0
3.0.1	2019_Mar_07_1109	s	s	9	3	Capacity	51	ABS	0	0	1	2	24_1_2	NA	NA	0	1	3.38651490211	None	None	None	None	1
3.0.1	2019_Mar_07_1109	s	s	9	3	Capacity	52	1_1	1	1	1	2	23_1_2	0	1	1	0	3.49533510208	-509.0	179.0	-507.0	172.0	1
3.0.1	2019_Mar_07_1109	s	s	9	3	Capacity	53	1_4	1	4	1	3	23_1_3	0	1	1	0	0.981999874115	488.0	130.0	490.0	124.0	1
3.0.1	2019_Mar_07_1109	s	s	9	3	Capacity	54	ABS	0	0	1	3	24_1_3	NA	NA	0	1	2.48984217644	None	None	None	None	1
3.0.1	2019_Mar_07_1109	s	s	9	3	Capacity	55	ABS	0	0	1	3	24_1_3	NA	NA	0	1	3.04545617104	None	None	None	None	1
3.0.1	2019_Mar_07_1109	s	s	9	3	Capacity	56	ABS	0	0	1	1	24_1_1	NA	NA	0	1	1.54010009766	None	None	None	None	1
3.0.1	2019_Mar_07_1109	s	s	9	3	Capacity	57	1_4	1	4	1	2	23_1_2	0	2	1	0	0.716838121414	-205.0	-162.0	-207.0	-160.0	1
3.0.1	2019_Mar_07_1109	s	s	9	3	Capacity	58	ABS	0	0	1	4	24_1_4	NA	NA	0	1	1.04620909691	None	None	None	None	1
3.0.1	2019_Mar_07_1109	s	s	9	3	Capacity	59	ABS	0	0	1	4	24_1_4	NA	NA	0	1	0.944138050079	None	None	None	None	1
3.0.1	2019_Mar_07_1109	s	s	9	3	Capacity	60	1_2	1	2	1	4	23_1_4	0	2	1	0	0.619699001312	-337.0	-146.0	-334.0	-144.0	1
3.0.1	2019_Mar_07_1109	s	s	9	3	Capacity	61	1_3	1	3	1	4	23_1_4	0	-1	1	0	0.716761112213	105.0	-362.0	101.0	-363.0	1
3.0.1	2019_Mar_07_1109	s	s	9	3	Capacity	62	ABS	0	0	1	2	24_1_2	NA	NA	0	1	4.12038397789	None	None	None	None	1
3.0.1	2019_Mar_07_1109	s	s	9	3	Capacity	63	1_3	1	3	1	2	23_1_2	0	1	1	0	2.07224702835	-495.0	161.0	-492.0	155.0	1
3.0.1	2019_Mar_07_1109	s	s	9	3	Capacity	64	ABS	0	0	1	3	24_1_3	NA	NA	0	1	4.80444788933	None	None	None	None	1
3.0.1	2019_Mar_07_1109	s	s	9	3	Capacity	65	1_2	1	2	1	1	23_1_1	0	-1	0	1	2.21532583237	-406.0	274.0	None	None	0
3.0.1	2019_Mar_07_1109	s	s	9	3	Capacity	66	ABS	0	0	1	2	24_1_2	NA	NA	0	1	4.40204191208	None	None	None	None	1
3.0.1	2019_Mar_07_1109	s	s	9	3	Capacity	67	1_3	1	3	1	1	23_1_1	0	2	1	0	1.81048202515	-98.0	-312.0	-99.0	-315.0	1
3.0.1	2019_Mar_07_1109	s	s	9	3	Capacity	68	ABS	0	0	1	1	24_1_1	NA	NA	0	1	2.70436882973	None	None	None	None	1
3.0.1	2019_Mar_07_1109	s	s	9	3	Capacity	69	ABS	0	0	1	4	24_1_4	NA	NA	0	1	1.20829105377	None	None	None	None	1
3.0.1	2019_Mar_07_1109	s	s	9	3	Capacity	70	1_1	1	1	1	4	23_1_4	0	3	1	0	0.767863035202	479.0	-100.0	477.0	-103.0	1
3.0.1	2019_Mar_07_1109	s	s	9	3	Capacity	71	ABS	0	0	1	1	24_1_1	NA	NA	0	1	4.61476111412	None	None	None	None	1
3.0.1	2019_Mar_07_1109	s	s	9	3	Capacity	72	1_1	1	1	1	3	23_1_3	0	2	1	0	0.893151044846	487.0	49.0	484.0	44.0	1
3.0.1	2019_Mar_07_1109	s	s	9	3	Capacity	73	1_4	1	4	1	3	23_1_3	0	1	1	0	0.790179014206	421.0	154.0	416.0	155.0	1
3.0.1	2019_Mar_07_1109	s	s	9	3	Capacity	74	1_4	1	4	1	1	23_1_1	0	3	1	0	0.775583028793	-28.0	117.0	-22.0	117.0	1
3.0.1	2019_Mar_07_1109	s	s	9	3	Capacity	75	ABS	0	0	1	3	24_1_3	NA	NA	0	1	3.46894812584	None	None	None	None	1
3.0.1	2019_Mar_07_1109	s	s	9	3	Capacity	76	1_1	1	1	1	4	23_1_4	0	3	1	0	0.660881996155	-308.0	328.0	-307.0	322.0	1
3.0.1	2019_Mar_07_1109	s	s	9	3	Capacity	77	1_4	1	4	1	2	23_1_2	0	2	1	0	0.674546957016	-330.0	-201.0	-332.0	-199.0	1
3.0.1	2019_Mar_07_1109	s	s	9	3	Capacity	78	1_1	1	1	1	3	23_1_3	0	2	1	0	0.980590820312	-105.0	223.0	-105.0	224.0	1
3.0.1	2019_Mar_07_1109	s	s	9	3	Capacity	79	ABS	0	0	1	1	24_1_1	NA	NA	0	1	2.18032503128	None	None	None	None	1
3.0.1	2019_Mar_07_1109	s	s	9	3	Capacity	80	ABS	0	0	1	4	24_1_4	NA	NA	0	1	2.22794914246	None	None	None	None	1
3.0.1	2019_Mar_07_1109	s	s	9	3	Capacity	81	ABS	0	0	1	2	24_1_2	NA	NA	0	1	3.72070288658	None	None	None	None	1
3.0.1	2019_Mar_07_1109	s	s	9	3	Capacity	82	ABS	0	0	1	2	24_1_2	NA	NA	0	1	4.00349807739	None	None	None	None	1
3.0.1	2019_Mar_07_1109	s	s	9	3	Capacity	83	ABS	0	0	1	2	24_1_2	NA	NA	0	1	3.68055105209	None	None	None	None	1
3.0.1	2019_Mar_07_1109	s	s	9	3	Capacity	84	1_1	1	1	1	2	23_1_2	0	1	1	0	2.36623501778	-309.0	82.0	-308.0	75.0	1
3.0.1	2019_Mar_07_1109	s	s	9	3	Capacity	85	ABS	0	0	1	3	24_1_3	NA	NA	0	1	3.46882295609	None	None	None	None	1
3.0.1	2019_Mar_07_1109	s	s	9	3	Capacity	86	ABS	0	0	1	3	24_1_3	NA	NA	0	1	3.04839706421	None	None	None	None	1
3.0.1	2019_Mar_07_1109	s	s	9	3	Capacity	87	1_2	1	2	1	4	23_1_4	0	2	1	0	0.699563980103	-242.0	-298.0	-240.0	-302.0	1
3.0.1	2019_Mar_07_1109	s	s	9	3	Capacity	88	ABS	0	0	1	1	24_1_1	NA	NA	0	1	2.58673787117	None	None	None	None	1
3.0.1	2019_Mar_07_1109	s	s	9	3	Capacity	89	ABS	0	0	1	1	24_1_1	NA	NA	0	1	1.90756583214	None	None	None	None	1
3.0.1	2019_Mar_07_1109	s	s	9	3	Capacity	90	ABS	0	0	1	4	24_1_4	NA	NA	0	1	1.14309096336	None	None	None	None	1
3.0.1	2019_Mar_07_1109	s	s	9	3	Capacity	91	1_2	1	2	1	1	23_1_1	0	-1	0	1	1.41055297852	-412.0	-403.0	None	None	0
3.0.1	2019_Mar_07_1109	s	s	9	3	Capacity	92	1_3	1	3	1	4	23_1_4	0	-1	1	0	0.646155118942	-68.0	144.0	-62.0	147.0	1
3.0.1	2019_Mar_07_1109	s	s	9	3	Capacity	93	1_2	1	2	1	3	23_1_3	0	1	1	0	3.2664539814	-22.0	-337.0	-22.0	-342.0	1
3.0.1	2019_Mar_07_1109	s	s	9	3	Capacity	94	1_3	1	3	1	2	23_1_2	0	1	1	0	1.35187506676	238.0	-152.0	241.0	-152.0	1
3.0.1	2019_Mar_07_1109	s	s	9	3	Capacity	95	1_3	1	3	1	1	23_1_1	0	2	1	0	1.13400387764	406.0	360.0	413.0	361.0	1
3.0.1	2019_Mar_07_1109	s	s	9	3	Capacity	96	ABS	0	0	1	4	24_1_4	NA	NA	0	1	1.42250609398	None	None	None	None	1
3.0.1	2019_Mar_07_1109	s	s	9	3	SIC	1	2_1	2	1	3	2	23_3_2	1	1	1	0	0.528687953949	388.0	339.0	387.0	341.0	1
3.0.1	2019_Mar_07_1109	s	s	9	3	SIC	2	ABS	0	0	4	2	24_4_2	NA	NA	0	1	4.22153306007	None	None	None	None	1
3.0.1	2019_Mar_07_1109	s	s	9	3	SIC	3	2_2	2	2	3	1	23_3_1	1	-1	1	0	0.699993133545	-215.0	250.0	-217.0	250.0	1
3.0.1	2019_Mar_07_1109	s	s	9	3	SIC	4	1_4	1	4	2	2	23_2_2	1	2	1	0	0.731716871262	179.0	-363.0	183.0	-363.0	1
3.0.1	2019_Mar_07_1109	s	s	9	3	SIC	5	ABS	0	0	2	3	24_2_3	NA	NA	0	1	4.20832800865	None	None	None	None	1
3.0.1	2019_Mar_07_1109	s	s	9	3	SIC	6	3_4	3	4	4	1	23_4_1	-1	3	1	0	0.604518890381	-141.0	-378.0	-144.0	-379.0	1
3.0.1	2019_Mar_07_1109	s	s	9	3	SIC	7	ABS	0	0	1	1	24_1_1	NA	NA	0	1	2.06229090691	None	None	None	None	1
3.0.1	2019_Mar_07_1109	s	s	9	3	SIC	8	2_2	2	2	2	1	23_2_1	0	-1	0	1	1.92101502419	-39.0	-351.0	None	None	0
3.0.1	2019_Mar_07_1109	s	s	9	3	SIC	9	1_4	1	4	1	2	23_1_2	0	2	1	0	0.681765079498	-70.0	-164.0	-72.0	-166.0	1
3.0.1	2019_Mar_07_1109	s	s	9	3	SIC	10	4_3	4	3	4	4	23_4_4	0	-1	1	0	0.651733875275	370.0	111.0	375.0	108.0	1
3.0.1	2019_Mar_07_1109	s	s	9	3	SIC	11	ABS	0	0	4	3	24_4_3	NA	NA	0	1	3.53202199936	None	None	None	None	1
3.0.1	2019_Mar_07_1109	s	s	9	3	SIC	12	ABS	0	0	1	3	24_1_3	NA	NA	0	1	2.98671007156	None	None	None	None	1
3.0.1	2019_Mar_07_1109	s	s	9	3	SIC	13	4_3	4	3	4	1	23_4_1	0	2	1	0	0.993958950043	330.0	349.0	334.0	356.0	1
3.0.1	2019_Mar_07_1109	s	s	9	3	SIC	14	4_1	4	1	1	2	23_1_2	3	1	1	0	0.427641868591	405.0	149.0	404.0	146.0	1
3.0.1	2019_Mar_07_1109	s	s	9	3	SIC	15	1_2	1	2	3	3	23_3_3	2	1	1	0	0.528604030609	188.0	270.0	194.0	266.0	1
3.0.1	2019_Mar_07_1109	s	s	9	3	SIC	16	ABS	0	0	2	1	24_2_1	NA	NA	0	1	2.22213101387	None	None	None	None	1
3.0.1	2019_Mar_07_1109	s	s	9	3	SIC	17	3_2	3	2	1	3	23_1_3	2	1	1	0	0.540394067764	-437.0	181.0	-437.0	177.0	1
3.0.1	2019_Mar_07_1109	s	s	9	3	SIC	18	2_2	2	2	2	4	23_2_4	0	2	1	0	0.634432077408	-424.0	-183.0	-415.0	-181.0	1
3.0.1	2019_Mar_07_1109	s	s	9	3	SIC	19	2_3	2	3	1	2	23_1_2	-1	1	1	0	2.85730099678	328.0	-179.0	334.0	-178.0	1
3.0.1	2019_Mar_07_1109	s	s	9	3	SIC	20	ABS	0	0	3	1	24_3_1	NA	NA	0	1	2.11630582809	None	None	None	None	1
3.0.1	2019_Mar_07_1109	s	s	9	3	SIC	21	3_1	3	1	2	2	23_2_2	1	1	1	0	1.12843489647	90.0	320.0	88.0	318.0	1
3.0.1	2019_Mar_07_1109	s	s	9	3	SIC	22	ABS	0	0	1	1	24_1_1	NA	NA	0	1	2.33968400955	None	None	None	None	1
3.0.1	2019_Mar_07_1109	s	s	9	3	SIC	23	ABS	0	0	3	2	24_3_2	NA	NA	0	1	4.73539614677	None	None	None	None	1
3.0.1	2019_Mar_07_1109	s	s	9	3	SIC	24	3_1	3	1	1	3	23_1_3	2	2	1	0	1.81454920769	318.0	-375.0	322.0	-378.0	1
3.0.1	2019_Mar_07_1109	s	s	9	3	SIC	25	1_1	1	1	1	3	23_1_3	0	2	1	0	1.01077890396	-252.0	67.0	-249.0	64.0	1
3.0.1	2019_Mar_07_1109	s	s	9	3	SIC	26	ABS	0	0	2	2	24_2_2	NA	NA	0	1	3.77953195572	None	None	None	None	1
3.0.1	2019_Mar_07_1109	s	s	9	3	SIC	27	1_4	1	4	4	2	23_4_2	3	2	1	0	0.516793012619	-203.0	181.0	-204.0	175.0	1
3.0.1	2019_Mar_07_1109	s	s	9	3	SIC	28	1_1	1	1	4	3	23_4_3	3	2	1	0	0.486350059509	208.0	123.0	215.0	123.0	1
3.0.1	2019_Mar_07_1109	s	s	9	3	SIC	29	2_3	2	3	2	1	23_2_1	0	2	1	0	0.657953023911	-100.0	307.0	-105.0	305.0	1
3.0.1	2019_Mar_07_1109	s	s	9	3	SIC	30	ABS	0	0	2	4	24_2_4	NA	NA	0	1	1.54043889046	None	None	None	None	1
3.0.1	2019_Mar_07_1109	s	s	9	3	SIC	31	ABS	0	0	3	3	24_3_3	NA	NA	0	1	2.93961405754	None	None	None	None	1
3.0.1	2019_Mar_07_1109	s	s	9	3	SIC	32	ABS	0	0	2	3	24_2_3	NA	NA	0	1	2.39902687073	None	None	None	None	1
3.0.1	2019_Mar_07_1109	s	s	9	3	SIC	33	ABS	0	0	3	1	24_3_1	NA	NA	0	1	1.93442797661	None	None	None	None	1
3.0.1	2019_Mar_07_1109	s	s	9	3	SIC	34	2_3	2	3	2	2	23_2_2	0	1	1	0	2.33979392052	240.0	-50.0	246.0	-57.0	1
3.0.1	2019_Mar_07_1109	s	s	9	3	SIC	35	4_3	4	3	2	2	23_2_2	2	1	1	0	0.54510307312	487.0	70.0	482.0	65.0	1
3.0.1	2019_Mar_07_1109	s	s	9	3	SIC	36	4_4	4	4	1	1	23_1_1	3	3	1	0	0.552166938782	382.0	-280.0	383.0	-282.0	1
3.0.1	2019_Mar_07_1109	s	s	9	3	SIC	37	ABS	0	0	1	2	24_1_2	NA	NA	0	1	4.25689816475	None	None	None	None	1
3.0.1	2019_Mar_07_1109	s	s	9	3	SIC	38	ABS	0	0	1	2	24_1_2	NA	NA	0	1	3.97194290161	None	None	None	None	1
3.0.1	2019_Mar_07_1109	s	s	9	3	SIC	39	2_4	2	4	3	4	23_3_4	1	0	1	0	0.975562810898	-276.0	-124.0	-276.0	-123.0	1
3.0.1	2019_Mar_07_1109	s	s	9	3	SIC	40	ABS	0	0	2	3	24_2_3	NA	NA	0	1	3.11054801941	None	None	None	None	1
3.0.1	2019_Mar_07_1109	s	s	9	3	SIC	41	1_4	1	4	3	4	23_3_4	2	0	1	0	0.907831907272	-519.0	267.0	-514.0	263.0	1
3.0.1	2019_Mar_07_1109	s	s	9	3	SIC	42	ABS	0	0	3	3	24_3_3	NA	NA	0	1	1.7320971489	None	None	None	None	1
3.0.1	2019_Mar_07_1109	s	s	9	3	SIC	43	ABS	0	0	1	4	24_1_4	NA	NA	0	1	3.44216609001	None	None	None	None	1
3.0.1	2019_Mar_07_1109	s	s	9	3	SIC	44	ABS	0	0	2	3	24_2_3	NA	NA	0	1	2.7939081192	None	None	None	None	1
3.0.1	2019_Mar_07_1109	s	s	9	3	SIC	45	ABS	0	0	4	2	24_4_2	NA	NA	0	1	2.90724492073	None	None	None	None	1
3.0.1	2019_Mar_07_1109	s	s	9	3	SIC	46	3_2	3	2	1	4	23_1_4	2	2	1	0	0.914336204529	-479.0	-407.0	-476.0	-406.0	1
3.0.1	2019_Mar_07_1109	s	s	9	3	SIC	47	1_1	1	1	2	3	23_2_3	1	2	1	0	0.657979011536	-218.0	120.0	-221.0	116.0	1
3.0.1	2019_Mar_07_1109	s	s	9	3	SIC	48	4_3	4	3	2	3	23_2_3	2	0	1	0	0.446225881577	315.0	-303.0	320.0	-304.0	1
3.0.1	2019_Mar_07_1109	s	s	9	3	SIC	49	3_3	3	3	1	4	23_1_4	2	-1	1	0	0.462260007858	315.0	-99.0	314.0	-103.0	1
3.0.1	2019_Mar_07_1109	s	s	9	3	SIC	50	ABS	0	0	2	1	24_2_1	NA	NA	0	1	2.96819901466	None	None	None	None	1
3.0.1	2019_Mar_07_1109	s	s	9	3	SIC	51	ABS	0	0	1	2	24_1_2	NA	NA	0	1	3.64533305168	None	None	None	None	1
3.0.1	2019_Mar_07_1109	s	s	9	3	SIC	52	3_4	3	4	3	3	23_3_3	0	1	1	0	0.745888948441	-50.0	235.0	-49.0	235.0	1
3.0.1	2019_Mar_07_1109	s	s	9	3	SIC	53	ABS	0	0	1	4	24_1_4	NA	NA	0	1	1.76345014572	None	None	None	None	1
3.0.1	2019_Mar_07_1109	s	s	9	3	SIC	54	ABS	0	0	4	3	24_4_3	NA	NA	0	1	2.35550785065	None	None	None	None	1
3.0.1	2019_Mar_07_1109	s	s	9	3	SIC	55	ABS	0	0	4	2	24_4_2	NA	NA	0	1	4.42664909363	None	None	None	None	1
3.0.1	2019_Mar_07_1109	s	s	9	3	SIC	56	ABS	0	0	1	2	24_1_2	NA	NA	0	1	2.98002409935	None	None	None	None	1
3.0.1	2019_Mar_07_1109	s	s	9	3	SIC	57	4_3	4	3	3	4	23_3_4	1	-1	1	0	0.563909053802	141.0	-46.0	138.0	-40.0	1
3.0.1	2019_Mar_07_1109	s	s	9	3	SIC	58	ABS	0	0	1	3	24_1_3	NA	NA	0	1	2.58677506447	None	None	None	None	1
3.0.1	2019_Mar_07_1109	s	s	9	3	SIC	59	ABS	0	0	1	3	24_1_3	NA	NA	0	1	3.33203601837	None	None	None	None	1
3.0.1	2019_Mar_07_1109	s	s	9	3	SIC	60	2_2	2	2	4	2	23_4_2	2	0	1	0	0.563915014267	213.0	-153.0	211.0	-156.0	1
3.0.1	2019_Mar_07_1109	s	s	9	3	SIC	61	4_2	4	2	1	3	23_1_3	3	1	1	0	0.587360858917	303.0	392.0	301.0	389.0	1
3.0.1	2019_Mar_07_1109	s	s	9	3	SIC	62	4_4	4	4	4	3	23_4_3	0	1	1	0	0.528697013855	-288.0	132.0	-284.0	131.0	1
3.0.1	2019_Mar_07_1109	s	s	9	3	SIC	63	ABS	0	0	2	4	24_2_4	NA	NA	0	1	2.08397197723	None	None	None	None	1
3.0.1	2019_Mar_07_1109	s	s	9	3	SIC	64	ABS	0	0	3	3	24_3_3	NA	NA	0	1	2.73506593704	None	None	None	None	1
3.0.1	2019_Mar_07_1109	s	s	9	3	SIC	65	ABS	0	0	2	2	24_2_2	NA	NA	0	1	5.73183894157	None	None	None	None	1
3.0.1	2019_Mar_07_1109	s	s	9	3	SIC	66	1_4	1	4	4	4	23_4_4	3	0	1	0	0.74028801918	346.0	254.0	338.0	258.0	1
3.0.1	2019_Mar_07_1109	s	s	9	3	SIC	67	ABS	0	0	2	4	24_2_4	NA	NA	0	1	2.28607606888	None	None	None	None	1
3.0.1	2019_Mar_07_1109	s	s	9	3	SIC	68	ABS	0	0	3	4	24_3_4	NA	NA	0	1	1.94479608536	None	None	None	None	1
3.0.1	2019_Mar_07_1109	s	s	9	3	SIC	69	2_1	2	1	1	4	23_1_4	-1	3	1	0	0.533707857132	-245.0	319.0	-247.0	317.0	1
3.0.1	2019_Mar_07_1109	s	s	9	3	SIC	70	ABS	0	0	3	3	24_3_3	NA	NA	0	1	2.71622300148	None	None	None	None	1
3.0.1	2019_Mar_07_1109	s	s	9	3	SIC	71	ABS	0	0	4	3	24_4_3	NA	NA	0	1	2.71660804749	None	None	None	None	1
3.0.1	2019_Mar_07_1109	s	s	9	3	SIC	72	3_1	3	1	2	3	23_2_3	1	2	1	0	1.40332698822	-41.0	-285.0	-38.0	-286.0	1
3.0.1	2019_Mar_07_1109	s	s	9	3	SIC	73	3_2	3	2	2	2	23_2_2	1	0	1	0	0.493313074112	-47.0	169.0	-44.0	170.0	1
3.0.1	2019_Mar_07_1109	s	s	9	3	SIC	74	ABS	0	0	3	2	24_3_2	NA	NA	0	1	2.84844207764	None	None	None	None	1
3.0.1	2019_Mar_07_1109	s	s	9	3	SIC	75	ABS	0	0	2	3	24_2_3	NA	NA	0	1	3.00359892845	None	None	None	None	1
3.0.1	2019_Mar_07_1109	s	s	9	3	SIC	76	ABS	0	0	1	2	24_1_2	NA	NA	0	1	3.73981404305	None	None	None	None	1
3.0.1	2019_Mar_07_1109	s	s	9	3	SIC	77	ABS	0	0	3	1	24_3_1	NA	NA	0	1	1.47369599342	None	None	None	None	1
3.0.1	2019_Mar_07_1109	s	s	9	3	SIC	78	1_1	1	1	1	2	23_1_2	0	1	0	1	3.37767314911	-95.0	-305.0	None	None	0
3.0.1	2019_Mar_07_1109	s	s	9	3	SIC	79	ABS	0	0	4	4	24_4_4	NA	NA	0	1	2.03926086426	None	None	None	None	1
3.0.1	2019_Mar_07_1109	s	s	9	3	SIC	80	2_1	2	1	3	1	23_3_1	1	0	1	0	0.855012893677	-195.0	-325.0	-193.0	-333.0	1
3.0.1	2019_Mar_07_1109	s	s	9	3	SIC	81	ABS	0	0	4	2	24_4_2	NA	NA	0	1	5.52705311775	None	None	None	None	1
3.0.1	2019_Mar_07_1109	s	s	9	3	SIC	82	2_3	2	3	3	3	23_3_3	1	0	1	0	0.678239107132	-166.0	-229.0	-167.0	-232.0	1
3.0.1	2019_Mar_07_1109	s	s	9	3	SIC	83	ABS	0	0	1	1	24_1_1	NA	NA	0	1	2.31908893585	None	None	None	None	1
3.0.1	2019_Mar_07_1109	s	s	9	3	SIC	84	2_2	2	2	4	1	23_4_1	2	-1	1	0	0.678868055344	496.0	-99.0	502.0	-99.0	1
3.0.1	2019_Mar_07_1109	s	s	9	3	SIC	85	4_1	4	1	4	2	23_4_2	0	1	1	0	1.51024889946	-45.0	211.0	-44.0	214.0	1
3.0.1	2019_Mar_07_1109	s	s	9	3	SIC	86	1_3	1	3	2	2	23_2_2	1	1	1	0	3.02584695816	301.0	-276.0	297.0	-277.0	1
3.0.1	2019_Mar_07_1109	s	s	9	3	SIC	87	4_1	4	1	2	2	23_2_2	2	1	1	0	0.528567075729	189.0	21.0	185.0	13.0	1
3.0.1	2019_Mar_07_1109	s	s	9	3	SIC	88	ABS	0	0	2	1	24_2_1	NA	NA	0	1	2.90158987045	None	None	None	None	1
3.0.1	2019_Mar_07_1109	s	s	9	3	SIC	89	2_3	2	3	4	1	23_4_1	2	2	1	0	0.510050058365	-457.0	134.0	-460.0	132.0	1
3.0.1	2019_Mar_07_1109	s	s	9	3	SIC	90	ABS	0	0	3	4	24_3_4	NA	NA	0	1	1.54007291794	None	None	None	None	1
3.0.1	2019_Mar_07_1109	s	s	9	3	SIC	91	1_3	1	3	4	3	23_4_3	3	0	1	0	0.497184038162	202.0	265.0	204.0	267.0	1
3.0.1	2019_Mar_07_1109	s	s	9	3	SIC	92	ABS	0	0	1	4	24_1_4	NA	NA	0	1	1.46946907043	None	None	None	None	1
3.0.1	2019_Mar_07_1109	s	s	9	3	SIC	93	2_3	2	3	2	4	23_2_4	0	-1	1	0	0.658041000366	418.0	-41.0	421.0	-46.0	1
3.0.1	2019_Mar_07_1109	s	s	9	3	SIC	94	ABS	0	0	1	3	24_1_3	NA	NA	0	1	3.37962698936	None	None	None	None	1
3.0.1	2019_Mar_07_1109	s	s	9	3	SIC	95	ABS	0	0	4	2	24_4_2	NA	NA	0	1	6.20599007607	None	None	None	None	1
3.0.1	2019_Mar_07_1109	s	s	9	3	SIC	96	ABS	0	0	4	1	24_4_1	NA	NA	0	1	2.61316585541	None	None	None	None	1
3.0.1	2019_Mar_07_1109	s	s	9	3	SIC	97	ABS	0	0	1	1	24_1_1	NA	NA	0	1	2.13328385353	None	None	None	None	1
3.0.1	2019_Mar_07_1109	s	s	9	3	SIC	98	4_4	4	4	2	4	23_2_4	2	0	1	0	0.578841924667	494.0	-188.0	494.0	-196.0	1
3.0.1	2019_Mar_07_1109	s	s	9	3	SIC	99	ABS	0	0	1	3	24_1_3	NA	NA	0	1	3.31892085075	None	None	None	None	1
3.0.1	2019_Mar_07_1109	s	s	9	3	SIC	100	3_2	3	2	2	1	23_2_1	1	-1	1	0	0.67515206337	475.0	136.0	470.0	132.0	1
3.0.1	2019_Mar_07_1109	s	s	9	3	SIC	101	4_2	4	2	3	1	23_3_1	1	-1	1	0	0.592469930649	425.0	379.0	423.0	375.0	1
3.0.1	2019_Mar_07_1109	s	s	9	3	SIC	102	1_1	1	1	4	2	23_4_2	3	1	1	0	0.505033969879	-522.0	-238.0	-518.0	-247.0	1
3.0.1	2019_Mar_07_1109	s	s	9	3	SIC	103	ABS	0	0	2	2	24_2_2	NA	NA	0	1	5.91534996033	None	None	None	None	1
3.0.1	2019_Mar_07_1109	s	s	9	3	SIC	104	ABS	0	0	3	4	24_3_4	NA	NA	0	1	0.870066165924	None	None	None	None	1
3.0.1	2019_Mar_07_1109	s	s	9	3	SIC	105	ABS	0	0	3	3	24_3_3	NA	NA	0	1	3.09259796143	None	None	None	None	1
3.0.1	2019_Mar_07_1109	s	s	9	3	SIC	106	ABS	0	0	3	4	24_3_4	NA	NA	0	1	2.2104640007	None	None	None	None	1
3.0.1	2019_Mar_07_1109	s	s	9	3	SIC	107	ABS	0	0	2	2	24_2_2	NA	NA	0	1	5.32716393471	None	None	None	None	1
3.0.1	2019_Mar_07_1109	s	s	9	3	SIC	108	4_4	4	4	1	2	23_1_2	3	2	1	0	0.658012151718	-1.0	20.0	-1.0	21.0	1
3.0.1	2019_Mar_07_1109	s	s	9	3	SIC	109	ABS	0	0	2	2	24_2_2	NA	NA	0	1	2.90806794167	None	None	None	None	1
3.0.1	2019_Mar_07_1109	s	s	9	3	SIC	110	2_1	2	1	2	3	23_2_3	0	2	1	0	2.09294319153	372.0	-108.0	374.0	-110.0	1
3.0.1	2019_Mar_07_1109	s	s	9	3	SIC	111	ABS	0	0	2	1	24_2_1	NA	NA	0	1	2.28464603424	None	None	None	None	1
3.0.1	2019_Mar_07_1109	s	s	9	3	SIC	112	ABS	0	0	3	2	24_3_2	NA	NA	0	1	3.73049807549	None	None	None	None	1
3.0.1	2019_Mar_07_1109	s	s	9	3	SIC	113	4_1	4	1	4	4	23_4_4	0	3	1	0	0.81082201004	136.0	217.0	132.0	221.0	1
3.0.1	2019_Mar_07_1109	s	s	9	3	SIC	114	ABS	0	0	4	4	24_4_4	NA	NA	0	1	1.10799694061	None	None	None	None	1
3.0.1	2019_Mar_07_1109	s	s	9	3	SIC	115	2_4	2	4	3	3	23_3_3	1	1	1	0	0.521430015564	-348.0	104.0	-349.0	102.0	1
3.0.1	2019_Mar_07_1109	s	s	9	3	SIC	116	4_3	4	3	3	1	23_3_1	1	2	1	0	0.554993867874	-540.0	-306.0	-536.0	-305.0	1
3.0.1	2019_Mar_07_1109	s	s	9	3	SIC	117	ABS	0	0	2	4	24_2_4	NA	NA	0	1	1.26259708405	None	None	None	None	1
3.0.1	2019_Mar_07_1109	s	s	9	3	SIC	118	ABS	0	0	4	4	24_4_4	NA	NA	0	1	0.975533008575	None	None	None	None	1
3.0.1	2019_Mar_07_1109	s	s	9	3	SIC	119	1_1	1	1	4	4	23_4_4	3	3	1	0	0.498723983765	-199.0	62.0	-203.0	63.0	1
3.0.1	2019_Mar_07_1109	s	s	9	3	SIC	120	ABS	0	0	1	1	24_1_1	NA	NA	0	1	1.56044793129	None	None	None	None	1
3.0.1	2019_Mar_07_1109	s	s	9	3	SIC	121	3_3	3	3	4	3	23_4_3	-1	0	1	0	0.637191057205	-176.0	-266.0	-180.0	-266.0	1
3.0.1	2019_Mar_07_1109	s	s	9	3	SIC	122	ABS	0	0	4	2	24_4_2	NA	NA	0	1	3.48683595657	None	None	None	None	1
3.0.1	2019_Mar_07_1109	s	s	9	3	SIC	123	ABS	0	0	3	4	24_3_4	NA	NA	0	1	1.22265005112	None	None	None	None	1
3.0.1	2019_Mar_07_1109	s	s	9	3	SIC	124	ABS	0	0	4	4	24_4_4	NA	NA	0	1	1.32137203217	None	None	None	None	1
3.0.1	2019_Mar_07_1109	s	s	9	3	SIC	125	3_1	3	1	4	3	23_4_3	-1	2	1	0	0.651023864746	-40.0	208.0	-37.0	207.0	1
3.0.1	2019_Mar_07_1109	s	s	9	3	SIC	126	1_3	1	3	3	4	23_3_4	2	-1	1	0	0.681468963623	-4.0	-375.0	-1.0	-385.0	1
3.0.1	2019_Mar_07_1109	s	s	9	3	SIC	127	ABS	0	0	4	3	24_4_3	NA	NA	0	1	2.72106385231	None	None	None	None	1
3.0.1	2019_Mar_07_1109	s	s	9	3	SIC	128	4_4	4	4	2	1	23_2_1	2	3	1	0	0.569109916687	219.0	-404.0	218.0	-408.0	1
3.0.1	2019_Mar_07_1109	s	s	9	3	SIC	129	3_3	3	3	3	4	23_3_4	0	-1	1	0	0.731489896774	-415.0	206.0	-410.0	207.0	1
3.0.1	2019_Mar_07_1109	s	s	9	3	SIC	130	ABS	0	0	1	1	24_1_1	NA	NA	0	1	1.69564604759	None	None	None	None	1
3.0.1	2019_Mar_07_1109	s	s	9	3	SIC	131	ABS	0	0	1	1	24_1_1	NA	NA	0	1	1.90755987167	None	None	None	None	1
3.0.1	2019_Mar_07_1109	s	s	9	3	SIC	132	ABS	0	0	4	2	24_4_2	NA	NA	0	1	3.37770295143	None	None	None	None	1
3.0.1	2019_Mar_07_1109	s	s	9	3	SIC	133	1_4	1	4	3	1	23_3_1	2	3	1	0	0.634342908859	360.0	-296.0	361.0	-296.0	1
3.0.1	2019_Mar_07_1109	s	s	9	3	SIC	134	3_4	3	4	3	2	23_3_2	0	2	1	0	0.6385679245	423.0	-284.0	419.0	-285.0	1
3.0.1	2019_Mar_07_1109	s	s	9	3	SIC	135	ABS	0	0	2	1	24_2_1	NA	NA	0	1	1.7898709774	None	None	None	None	1
3.0.1	2019_Mar_07_1109	s	s	9	3	SIC	136	3_4	3	4	3	1	23_3_1	0	3	1	0	0.422777175903	-261.0	6.0	-263.0	3.0	1
3.0.1	2019_Mar_07_1109	s	s	9	3	SIC	137	ABS	0	0	1	2	24_1_2	NA	NA	0	1	3.20124602318	None	None	None	None	1
3.0.1	2019_Mar_07_1109	s	s	9	3	SIC	138	1_2	1	2	4	2	23_4_2	3	0	1	0	0.681490898132	-266.0	120.0	-267.0	122.0	1
3.0.1	2019_Mar_07_1109	s	s	9	3	SIC	139	1_4	1	4	3	2	23_3_2	2	2	1	0	0.528568029404	79.0	144.0	84.0	140.0	1
3.0.1	2019_Mar_07_1109	s	s	9	3	SIC	140	4_2	4	2	2	1	23_2_1	2	-1	1	0	0.533643960953	-23.0	-184.0	-21.0	-182.0	1
3.0.1	2019_Mar_07_1109	s	s	9	3	SIC	141	3_3	3	3	2	4	23_2_4	1	-1	1	0	0.611274003983	232.0	238.0	239.0	244.0	1
3.0.1	2019_Mar_07_1109	s	s	9	3	SIC	142	2_1	2	1	4	2	23_4_2	2	1	1	0	0.502039909363	-535.0	363.0	-534.0	363.0	1
3.0.1	2019_Mar_07_1109	s	s	9	3	SIC	143	1_4	1	4	2	4	23_2_4	1	0	0	1	3.25716495514	478.0	135.0	None	None	0
3.0.1	2019_Mar_07_1109	s	s	9	3	SIC	144	ABS	0	0	2	3	24_2_3	NA	NA	0	1	2.55586719513	None	None	None	None	1
3.0.1	2019_Mar_07_1109	s	s	9	3	SIC	145	ABS	0	0	2	3	24_2_3	NA	NA	0	1	2.63385486603	None	None	None	None	1
3.0.1	2019_Mar_07_1109	s	s	9	3	SIC	146	4_1	4	1	1	4	23_1_4	3	3	1	0	0.634391069412	-186.0	146.0	-189.0	146.0	1
3.0.1	2019_Mar_07_1109	s	s	9	3	SIC	147	ABS	0	0	1	1	24_1_1	NA	NA	0	1	1.41068482399	None	None	None	None	1
3.0.1	2019_Mar_07_1109	s	s	9	3	SIC	148	ABS	0	0	2	3	24_2_3	NA	NA	0	1	2.88089609146	None	None	None	None	1
3.0.1	2019_Mar_07_1109	s	s	9	3	SIC	149	3_2	3	2	2	4	23_2_4	1	2	1	0	0.849023103714	9.0	-314.0	5.0	-317.0	1
3.0.1	2019_Mar_07_1109	s	s	9	3	SIC	150	ABS	0	0	3	3	24_3_3	NA	NA	0	1	2.53193497658	None	None	None	None	1
3.0.1	2019_Mar_07_1109	s	s	9	3	SIC	151	ABS	0	0	1	1	24_1_1	NA	NA	0	1	2.76323103905	None	None	None	None	1
3.0.1	2019_Mar_07_1109	s	s	9	3	SIC	152	ABS	0	0	4	2	24_4_2	NA	NA	0	1	3.90698194504	None	None	None	None	1
3.0.1	2019_Mar_07_1109	s	s	9	3	SIC	153	ABS	0	0	4	3	24_4_3	NA	NA	0	1	2.83372402191	None	None	None	None	1
3.0.1	2019_Mar_07_1109	s	s	9	3	SIC	154	2_4	2	4	4	3	23_4_3	2	1	1	0	0.639222145081	216.0	-323.0	213.0	-319.0	1
3.0.1	2019_Mar_07_1109	s	s	9	3	SIC	155	ABS	0	0	2	4	24_2_4	NA	NA	0	1	3.64534401894	None	None	None	None	1
3.0.1	2019_Mar_07_1109	s	s	9	3	SIC	156	2_4	2	4	3	1	23_3_1	1	3	1	0	0.69322013855	-529.0	238.0	-521.0	237.0	1
3.0.1	2019_Mar_07_1109	s	s	9	3	SIC	157	3_3	3	3	2	2	23_2_2	1	1	1	0	1.151927948	283.0	252.0	287.0	250.0	1
3.0.1	2019_Mar_07_1109	s	s	9	3	SIC	158	4_2	4	2	4	3	23_4_3	0	1	1	0	1.0744330883	209.0	195.0	208.0	195.0	1
3.0.1	2019_Mar_07_1109	s	s	9	3	SIC	159	ABS	0	0	3	2	24_3_2	NA	NA	0	1	4.09209990501	None	None	None	None	1
3.0.1	2019_Mar_07_1109	s	s	9	3	SIC	160	ABS	0	0	3	2	24_3_2	NA	NA	0	1	4.26561188698	None	None	None	None	1
3.0.1	2019_Mar_07_1109	s	s	9	3	SIC	161	ABS	0	0	2	2	24_2_2	NA	NA	0	1	4.45676207542	None	None	None	None	1
3.0.1	2019_Mar_07_1109	s	s	9	3	SIC	162	3_2	3	2	1	1	23_1_1	2	-1	1	0	0.763787031174	-249.0	385.0	-246.0	380.0	1
3.0.1	2019_Mar_07_1109	s	s	9	3	SIC	163	ABS	0	0	4	3	24_4_3	NA	NA	0	1	2.95750117302	None	None	None	None	1
3.0.1	2019_Mar_07_1109	s	s	9	3	SIC	164	3_4	3	4	2	2	23_2_2	1	2	1	0	2.78967404366	332.0	-288.0	329.0	-281.0	1
3.0.1	2019_Mar_07_1109	s	s	9	3	SIC	165	ABS	0	0	3	2	24_3_2	NA	NA	0	1	4.33280301094	None	None	None	None	1
3.0.1	2019_Mar_07_1109	s	s	9	3	SIC	166	4_3	4	3	2	1	23_2_1	2	2	1	0	0.619149923325	-500.0	-286.0	-502.0	-284.0	1
3.0.1	2019_Mar_07_1109	s	s	9	3	SIC	167	ABS	0	0	4	1	24_4_1	NA	NA	0	1	1.89925813675	None	None	None	None	1
3.0.1	2019_Mar_07_1109	s	s	9	3	SIC	168	3_1	3	1	3	4	23_3_4	0	3	1	0	0.740186929703	-283.0	-130.0	-282.0	-132.0	1
3.0.1	2019_Mar_07_1109	s	s	9	3	SIC	169	ABS	0	0	3	1	24_3_1	NA	NA	0	1	2.45736885071	None	None	None	None	1
3.0.1	2019_Mar_07_1109	s	s	9	3	SIC	170	1_1	1	1	3	3	23_3_3	2	2	1	0	0.658003091812	-132.0	-237.0	-133.0	-240.0	1
3.0.1	2019_Mar_07_1109	s	s	9	3	SIC	171	3_3	3	3	1	2	23_1_2	2	1	1	0	0.552099943161	167.0	-205.0	163.0	-209.0	1
3.0.1	2019_Mar_07_1109	s	s	9	3	SIC	172	ABS	0	0	3	1	24_3_1	NA	NA	0	1	1.89948701859	None	None	None	None	1
3.0.1	2019_Mar_07_1109	s	s	9	3	SIC	173	3_4	3	4	1	1	23_1_1	2	3	1	0	0.646285057068	338.0	-338.0	334.0	-339.0	1
3.0.1	2019_Mar_07_1109	s	s	9	3	SIC	174	1_2	1	2	3	1	23_3_1	2	-1	1	0	0.615534067154	2.0	369.0	3.0	376.0	1
3.0.1	2019_Mar_07_1109	s	s	9	3	SIC	175	4_2	4	2	4	4	23_4_4	0	2	1	0	0.543221950531	-87.0	-195.0	-89.0	-201.0	1
3.0.1	2019_Mar_07_1109	s	s	9	3	SIC	176	3_1	3	1	1	1	23_1_1	2	0	1	0	0.795962095261	-278.0	390.0	-275.0	385.0	1
3.0.1	2019_Mar_07_1109	s	s	9	3	SIC	177	4_2	4	2	4	1	23_4_1	0	-1	1	0	1.41435790062	226.0	-40.0	225.0	-39.0	1
3.0.1	2019_Mar_07_1109	s	s	9	3	SIC	178	1_2	1	2	2	2	23_2_2	1	0	0	1	5.10401892662	136.0	-214.0	None	None	0
3.0.1	2019_Mar_07_1109	s	s	9	3	SIC	179	ABS	0	0	3	1	24_3_1	NA	NA	0	1	2.77496099472	None	None	None	None	1
3.0.1	2019_Mar_07_1109	s	s	9	3	SIC	180	ABS	0	0	3	1	24_3_1	NA	NA	0	1	2.07230901718	None	None	None	None	1
3.0.1	2019_Mar_07_1109	s	s	9	3	SIC	181	4_4	4	4	2	2	23_2_2	2	2	1	0	0.451025009155	402.0	-270.0	404.0	-271.0	1
3.0.1	2019_Mar_07_1109	s	s	9	3	SIC	182	1_4	1	4	1	1	23_1_1	0	3	1	0	0.540714025497	389.0	150.0	380.0	148.0	1
3.0.1	2019_Mar_07_1109	s	s	9	3	SIC	183	ABS	0	0	3	4	24_3_4	NA	NA	0	1	2.11636900902	None	None	None	None	1
3.0.1	2019_Mar_07_1109	s	s	9	3	SIC	184	ABS	0	0	2	1	24_2_1	NA	NA	0	1	2.65059399605	None	None	None	None	1
3.0.1	2019_Mar_07_1109	s	s	9	3	SIC	185	ABS	0	0	3	2	24_3_2	NA	NA	0	1	3.89265489578	None	None	None	None	1
3.0.1	2019_Mar_07_1109	s	s	9	3	SIC	186	3_2	3	2	2	3	23_2_3	1	1	1	0	0.850774049759	325.0	-120.0	327.0	-120.0	1
3.0.1	2019_Mar_07_1109	s	s	9	3	SIC	187	1_4	1	4	4	1	23_4_1	3	3	1	0	0.839471101761	-531.0	383.0	-532.0	385.0	1
3.0.1	2019_Mar_07_1109	s	s	9	3	SIC	188	ABS	0	0	4	3	24_4_3	NA	NA	0	1	2.35620617867	None	None	None	None	1
3.0.1	2019_Mar_07_1109	s	s	9	3	SIC	189	ABS	0	0	4	4	24_4_4	NA	NA	0	1	0.840793132782	None	None	None	None	1
3.0.1	2019_Mar_07_1109	s	s	9	3	SIC	190	ABS	0	0	3	3	24_3_3	NA	NA	0	1	1.89583492279	None	None	None	None	1
3.0.1	2019_Mar_07_1109	s	s	9	3	SIC	191	ABS	0	0	3	4	24_3_4	NA	NA	0	1	1.09801316261	None	None	None	None	1
3.0.1	2019_Mar_07_1109	s	s	9	3	SIC	192	3_1	3	1	4	2	23_4_2	-1	1	1	0	0.634439945221	380.0	233.0	379.0	231.0	1
3.0.1	2019_Mar_07_1109	s	s	9	3	SIC	193	ABS	0	0	2	2	24_2_2	NA	NA	0	1	4.45684289932	None	None	None	None	1
3.0.1	2019_Mar_07_1109	s	s	9	3	SIC	194	ABS	0	0	1	2	24_1_2	NA	NA	0	1	3.77996706963	None	None	None	None	1
3.0.1	2019_Mar_07_1109	s	s	9	3	SIC	195	2_2	2	2	4	4	23_4_4	2	2	1	0	0.599190950394	-415.0	156.0	-417.0	153.0	1
3.0.1	2019_Mar_07_1109	s	s	9	3	SIC	196	2_4	2	4	1	3	23_1_3	-1	1	1	0	0.672587156296	90.0	120.0	91.0	119.0	1
3.0.1	2019_Mar_07_1109	s	s	9	3	SIC	197	2_1	2	1	3	4	23_3_4	1	3	1	0	0.575592041016	-426.0	-348.0	-422.0	-343.0	1
3.0.1	2019_Mar_07_1109	s	s	9	3	SIC	198	4_3	4	3	3	2	23_3_2	1	1	1	0	0.452220916748	-441.0	-19.0	-446.0	-20.0	1
3.0.1	2019_Mar_07_1109	s	s	9	3	SIC	199	4_2	4	2	2	2	23_2_2	2	0	1	0	0.458059072495	234.0	-156.0	226.0	-158.0	1
3.0.1	2019_Mar_07_1109	s	s	9	3	SIC	200	ABS	0	0	1	3	24_1_3	NA	NA	0	1	3.12785291672	None	None	None	None	1
3.0.1	2019_Mar_07_1109	s	s	9	3	SIC	201	ABS	0	0	1	4	24_1_4	NA	NA	0	1	1.6371948719	None	None	None	None	1
3.0.1	2019_Mar_07_1109	s	s	9	3	SIC	202	3_4	3	4	2	1	23_2_1	1	3	1	0	0.508372068405	-268.0	345.0	-267.0	346.0	1
3.0.1	2019_Mar_07_1109	s	s	9	3	SIC	203	ABS	0	0	2	1	24_2_1	NA	NA	0	1	2.19177007675	None	None	None	None	1
3.0.1	2019_Mar_07_1109	s	s	9	3	SIC	204	ABS	0	0	2	1	24_2_1	NA	NA	0	1	3.05733704567	None	None	None	None	1
3.0.1	2019_Mar_07_1109	s	s	9	3	SIC	205	4_1	4	1	2	3	23_2_3	2	2	1	0	0.469774007797	254.0	-240.0	259.0	-239.0	1
3.0.1	2019_Mar_07_1109	s	s	9	3	SIC	206	ABS	0	0	1	3	24_1_3	NA	NA	0	1	3.17995405197	None	None	None	None	1
3.0.1	2019_Mar_07_1109	s	s	9	3	SIC	207	2_1	2	1	4	3	23_4_3	2	2	1	0	0.560613870621	-439.0	54.0	-431.0	50.0	1
3.0.1	2019_Mar_07_1109	s	s	9	3	SIC	208	4_4	4	4	1	4	23_1_4	3	0	1	0	0.501081943512	-204.0	4.0	-203.0	4.0	1
3.0.1	2019_Mar_07_1109	s	s	9	3	SIC	209	ABS	0	0	4	2	24_4_2	NA	NA	0	1	4.01846385002	None	None	None	None	1
3.0.1	2019_Mar_07_1109	s	s	9	3	SIC	210	ABS	0	0	3	4	24_3_4	NA	NA	0	1	1.7047059536	None	None	None	None	1
3.0.1	2019_Mar_07_1109	s	s	9	3	SIC	211	ABS	0	0	4	1	24_4_1	NA	NA	0	1	2.81496477127	None	None	None	None	1
3.0.1	2019_Mar_07_1109	s	s	9	3	SIC	212	1_3	1	3	2	4	23_2_4	1	-1	1	0	0.728532791138	469.0	127.0	463.0	125.0	1
3.0.1	2019_Mar_07_1109	s	s	9	3	SIC	213	ABS	0	0	4	1	24_4_1	NA	NA	0	1	2.44572401047	None	None	None	None	1
3.0.1	2019_Mar_07_1109	s	s	9	3	SIC	214	ABS	0	0	2	2	24_2_2	NA	NA	0	1	4.36281394958	None	None	None	None	1
3.0.1	2019_Mar_07_1109	s	s	9	3	SIC	215	4_4	4	4	4	2	23_4_2	0	2	1	0	0.704976081848	-457.0	79.0	-465.0	80.0	1
3.0.1	2019_Mar_07_1109	s	s	9	3	SIC	216	ABS	0	0	3	2	24_3_2	NA	NA	0	1	3.59125185013	None	None	None	None	1
3.0.1	2019_Mar_07_1109	s	s	9	3	SIC	217	4_1	4	1	3	4	23_3_4	1	3	1	0	0.555013179779	-3.0	194.0	-7.0	198.0	1
3.0.1	2019_Mar_07_1109	s	s	9	3	SIC	218	ABS	0	0	3	2	24_3_2	NA	NA	0	1	3.56792902946	None	None	None	None	1
3.0.1	2019_Mar_07_1109	s	s	9	3	SIC	219	ABS	0	0	4	4	24_4_4	NA	NA	0	1	0.881505012512	None	None	None	None	1
3.0.1	2019_Mar_07_1109	s	s	9	3	SIC	220	4_4	4	4	4	1	23_4_1	0	3	1	0	0.693264007568	263.0	342.0	267.0	339.0	1
3.0.1	2019_Mar_07_1109	s	s	9	3	SIC	221	4_2	4	2	3	4	23_3_4	1	2	1	0	2.11633110046	96.0	20.0	100.0	18.0	1
3.0.1	2019_Mar_07_1109	s	s	9	3	SIC	222	ABS	0	0	2	2	24_2_2	NA	NA	0	1	3.76288104057	None	None	None	None	1
3.0.1	2019_Mar_07_1109	s	s	9	3	SIC	223	ABS	0	0	2	4	24_2_4	NA	NA	0	1	1.83413386345	None	None	None	None	1
3.0.1	2019_Mar_07_1109	s	s	9	3	SIC	224	ABS	0	0	4	1	24_4_1	NA	NA	0	1	1.89291882515	None	None	None	None	1
3.0.1	2019_Mar_07_1109	s	s	9	3	SIC	225	ABS	0	0	3	2	24_3_2	NA	NA	0	1	4.15117383003	None	None	None	None	1
3.0.1	2019_Mar_07_1109	s	s	9	3	SIC	226	ABS	0	0	3	3	24_3_3	NA	NA	0	1	2.23902416229	None	None	None	None	1
3.0.1	2019_Mar_07_1109	s	s	9	3	SIC	227	ABS	0	0	4	4	24_4_4	NA	NA	0	1	0.957553863525	None	None	None	None	1
3.0.1	2019_Mar_07_1109	s	s	9	3	SIC	228	3_3	3	3	4	4	23_4_4	-1	-1	1	0	0.697693109512	-9.0	279.0	-10.0	281.0	1
3.0.1	2019_Mar_07_1109	s	s	9	3	SIC	229	ABS	0	0	1	3	24_1_3	NA	NA	0	1	3.22189188004	None	None	None	None	1
3.0.1	2019_Mar_07_1109	s	s	9	3	SIC	230	1_1	1	1	2	4	23_2_4	1	3	1	0	0.975749969482	344.0	-313.0	352.0	-310.0	1
3.0.1	2019_Mar_07_1109	s	s	9	3	SIC	231	2_1	2	1	3	3	23_3_3	1	2	1	0	0.618845939636	-250.0	-191.0	-250.0	-189.0	1
3.0.1	2019_Mar_07_1109	s	s	9	3	SIC	232	1_2	1	2	1	1	23_1_1	0	-1	1	0	1.69295215607	269.0	-143.0	269.0	-146.0	1
3.0.1	2019_Mar_07_1109	s	s	9	3	SIC	233	1_4	1	4	4	3	23_4_3	3	1	1	0	0.458060979843	-198.0	-5.0	-199.0	-13.0	1
3.0.1	2019_Mar_07_1109	s	s	9	3	SIC	234	4_4	4	4	3	2	23_3_2	1	2	1	0	0.528567075729	-225.0	-219.0	-227.0	-218.0	1
3.0.1	2019_Mar_07_1109	s	s	9	3	SIC	235	2_3	2	3	4	2	23_4_2	2	1	1	0	0.437355995178	216.0	157.0	222.0	156.0	1
3.0.1	2019_Mar_07_1109	s	s	9	3	SIC	236	ABS	0	0	1	2	24_1_2	NA	NA	0	1	5.7153608799	None	None	None	None	1
3.0.1	2019_Mar_07_1109	s	s	9	3	SIC	237	3_1	3	1	1	4	23_1_4	2	3	1	0	0.898195981979	537.0	-387.0	537.0	-387.0	1
3.0.1	2019_Mar_07_1109	s	s	9	3	SIC	238	ABS	0	0	3	4	24_3_4	NA	NA	0	1	1.75173902512	None	None	None	None	1
3.0.1	2019_Mar_07_1109	s	s	9	3	SIC	239	3_4	3	4	2	3	23_2_3	1	1	1	0	0.587296009064	-328.0	110.0	-328.0	107.0	1
3.0.1	2019_Mar_07_1109	s	s	9	3	SIC	240	4_3	4	3	1	3	23_1_3	3	0	1	0	0.460775852203	-31.0	-215.0	-31.0	-212.0	1
3.0.1	2019_Mar_07_1109	s	s	9	3	SIC	241	ABS	0	0	2	1	24_2_1	NA	NA	0	1	2.02509617805	None	None	None	None	1
3.0.1	2019_Mar_07_1109	s	s	9	3	SIC	242	2_2	2	2	2	3	23_2_3	0	1	1	0	2.16343998909	453.0	-194.0	454.0	-200.0	1
3.0.1	2019_Mar_07_1109	s	s	9	3	SIC	243	2_1	2	1	2	2	23_2_2	0	1	0	1	3.73180389404	445.0	-79.0	None	None	0
3.0.1	2019_Mar_07_1109	s	s	9	3	SIC	244	ABS	0	0	1	1	24_1_1	NA	NA	0	1	2.31623601913	None	None	None	None	1
3.0.1	2019_Mar_07_1109	s	s	9	3	SIC	245	ABS	0	0	4	4	24_4_4	NA	NA	0	1	1.11668491364	None	None	None	None	1
3.0.1	2019_Mar_07_1109	s	s	9	3	SIC	246	2_3	2	3	3	2	23_3_2	1	1	1	0	0.704978942871	109.0	12.0	105.0	12.0	1
3.0.1	2019_Mar_07_1109	s	s	9	3	SIC	247	ABS	0	0	3	4	24_3_4	NA	NA	0	1	1.30983686447	None	None	None	None	1
3.0.1	2019_Mar_07_1109	s	s	9	3	SIC	248	ABS	0	0	1	4	24_1_4	NA	NA	0	1	1.074862957	None	None	None	None	1
3.0.1	2019_Mar_07_1109	s	s	9	3	SIC	249	4_1	4	1	1	1	23_1_1	3	0	1	0	0.587353944778	-287.0	-347.0	-286.0	-340.0	1
3.0.1	2019_Mar_07_1109	s	s	9	3	SIC	250	ABS	0	0	1	2	24_1_2	NA	NA	0	1	3.08365917206	None	None	None	None	1
3.0.1	2019_Mar_07_1109	s	s	9	3	SIC	251	ABS	0	0	2	4	24_2_4	NA	NA	0	1	2.45158791542	None	None	None	None	1
3.0.1	2019_Mar_07_1109	s	s	9	3	SIC	252	ABS	0	0	3	1	24_3_1	NA	NA	0	1	2.15583300591	None	None	None	None	1
3.0.1	2019_Mar_07_1109	s	s	9	3	SIC	253	1_3	1	3	2	1	23_2_1	1	2	1	0	1.29723715782	186.0	-342.0	190.0	-348.0	1
3.0.1	2019_Mar_07_1109	s	s	9	3	SIC	254	ABS	0	0	2	4	24_2_4	NA	NA	0	1	2.45746684074	None	None	None	None	1
3.0.1	2019_Mar_07_1109	s	s	9	3	SIC	255	1_1	1	1	1	4	23_1_4	0	3	1	0	0.678377151489	424.0	116.0	424.0	122.0	1
3.0.1	2019_Mar_07_1109	s	s	9	3	SIC	256	ABS	0	0	1	4	24_1_4	NA	NA	0	1	1.51949000359	None	None	None	None	1
3.0.1	2019_Mar_07_1109	s	s	9	3	SIC	257	ABS	0	0	3	1	24_3_1	NA	NA	0	1	1.90751886368	None	None	None	None	1
3.0.1	2019_Mar_07_1109	s	s	9	3	SIC	258	2_2	2	2	1	1	23_1_1	-1	-1	1	0	0.919978141785	-204.0	-86.0	-201.0	-81.0	1
3.0.1	2019_Mar_07_1109	s	s	9	3	SIC	259	ABS	0	0	3	3	24_3_3	NA	NA	0	1	2.32132196426	None	None	None	None	1
3.0.1	2019_Mar_07_1109	s	s	9	3	SIC	260	ABS	0	0	2	1	24_2_1	NA	NA	0	1	2.15486812592	None	None	None	None	1
3.0.1	2019_Mar_07_1109	s	s	9	3	SIC	261	ABS	0	0	1	3	24_1_3	NA	NA	0	1	2.37797784805	None	None	None	None	1
3.0.1	2019_Mar_07_1109	s	s	9	3	SIC	262	ABS	0	0	1	2	24_1_2	NA	NA	0	1	3.16846108437	None	None	None	None	1
3.0.1	2019_Mar_07_1109	s	s	9	3	SIC	263	ABS	0	0	3	4	24_3_4	NA	NA	0	1	2.36337590218	None	None	None	None	1
3.0.1	2019_Mar_07_1109	s	s	9	3	SIC	264	3_4	3	4	4	2	23_4_2	-1	2	1	0	0.672633886337	-4.0	410.0	-6.0	409.0	1
3.0.1	2019_Mar_07_1109	s	s	9	3	SIC	265	2_4	2	4	2	3	23_2_3	0	1	1	0	1.1077811718	437.0	402.0	435.0	402.0	1
3.0.1	2019_Mar_07_1109	s	s	9	3	SIC	266	ABS	0	0	2	4	24_2_4	NA	NA	0	1	1.61348795891	None	None	None	None	1
3.0.1	2019_Mar_07_1109	s	s	9	3	SIC	267	1_1	1	1	4	1	23_4_1	3	0	1	0	0.496220111847	126.0	-200.0	130.0	-198.0	1
3.0.1	2019_Mar_07_1109	s	s	9	3	SIC	268	ABS	0	0	2	1	24_2_1	NA	NA	0	1	2.12852621078	None	None	None	None	1
3.0.1	2019_Mar_07_1109	s	s	9	3	SIC	269	ABS	0	0	4	2	24_4_2	NA	NA	0	1	4.65676784515	None	None	None	None	1
3.0.1	2019_Mar_07_1109	s	s	9	3	SIC	270	ABS	0	0	4	1	24_4_1	NA	NA	0	1	5.59768199921	None	None	None	None	1
3.0.1	2019_Mar_07_1109	s	s	9	3	SIC	271	4_1	4	1	4	3	23_4_3	0	2	1	0	2.42215204239	1.0	-62.0	9.0	-63.0	1
3.0.1	2019_Mar_07_1109	s	s	9	3	SIC	272	1_4	1	4	2	1	23_2_1	1	3	1	0	0.810963869095	501.0	350.0	502.0	353.0	1
3.0.1	2019_Mar_07_1109	s	s	9	3	SIC	273	ABS	0	0	4	4	24_4_4	NA	NA	0	1	0.991142034531	None	None	None	None	1
3.0.1	2019_Mar_07_1109	s	s	9	3	SIC	274	ABS	0	0	1	2	24_1_2	NA	NA	0	1	3.68624901772	None	None	None	None	1
3.0.1	2019_Mar_07_1109	s	s	9	3	SIC	275	1_1	1	1	2	2	23_2_2	1	1	1	0	1.9075820446	337.0	-206.0	339.0	-205.0	1
3.0.1	2019_Mar_07_1109	s	s	9	3	SIC	276	2_3	2	3	4	4	23_4_4	2	-1	1	0	0.611307859421	220.0	71.0	214.0	71.0	1
3.0.1	2019_Mar_07_1109	s	s	9	3	SIC	277	3_1	3	1	1	2	23_1_2	2	1	1	0	0.616224050522	392.0	-60.0	390.0	-64.0	1
3.0.1	2019_Mar_07_1109	s	s	9	3	SIC	278	4_3	4	3	1	2	23_1_2	3	1	1	0	0.7216360569	13.0	314.0	12.0	305.0	1
3.0.1	2019_Mar_07_1109	s	s	9	3	SIC	279	4_3	4	3	1	1	23_1_1	3	2	1	0	0.415817975998	236.0	-29.0	244.0	-35.0	1
3.0.1	2019_Mar_07_1109	s	s	9	3	SIC	280	ABS	0	0	3	2	24_3_2	NA	NA	0	1	4.47279500961	None	None	None	None	1
3.0.1	2019_Mar_07_1109	s	s	9	3	SIC	281	1_3	1	3	1	2	23_1_2	0	1	1	0	1.91242408752	-474.0	388.0	-476.0	381.0	1
3.0.1	2019_Mar_07_1109	s	s	9	3	SIC	282	3_3	3	3	1	1	23_1_1	2	2	1	0	0.755717992783	-36.0	-301.0	-38.0	-300.0	1
3.0.1	2019_Mar_07_1109	s	s	9	3	SIC	283	3_3	3	3	4	1	23_4_1	-1	2	1	0	1.02301692963	-418.0	-401.0	-410.0	-407.0	1
3.0.1	2019_Mar_07_1109	s	s	9	3	SIC	284	2_2	2	2	3	2	23_3_2	1	0	1	0	0.75493311882	502.0	101.0	494.0	96.0	1
3.0.1	2019_Mar_07_1109	s	s	9	3	SIC	285	ABS	0	0	3	1	24_3_1	NA	NA	0	1	3.91574811935	None	None	None	None	1
3.0.1	2019_Mar_07_1109	s	s	9	3	SIC	286	ABS	0	0	3	1	24_3_1	NA	NA	0	1	2.41051983833	None	None	None	None	1
3.0.1	2019_Mar_07_1109	s	s	9	3	SIC	287	3_2	3	2	3	3	23_3_3	0	1	1	0	2.16338396072	-65.0	59.0	-60.0	52.0	1
3.0.1	2019_Mar_07_1109	s	s	9	3	SIC	288	ABS	0	0	4	1	24_4_1	NA	NA	0	1	3.09820914268	None	None	None	None	1
3.0.1	2019_Mar_07_1109	s	s	9	3	SIC	289	3_2	3	2	4	2	23_4_2	-1	0	1	0	0.627673864365	253.0	-56.0	253.0	-59.0	1
3.0.1	2019_Mar_07_1109	s	s	9	3	SIC	290	1_4	1	4	1	3	23_1_3	0	1	1	0	0.738036155701	-25.0	391.0	-16.0	391.0	1
3.0.1	2019_Mar_07_1109	s	s	9	3	SIC	291	2_3	2	3	3	1	23_3_1	1	2	1	0	0.916626214981	345.0	-338.0	344.0	-337.0	1
3.0.1	2019_Mar_07_1109	s	s	9	3	SIC	292	4_1	4	1	1	3	23_1_3	3	2	1	0	0.736521959305	17.0	-140.0	21.0	-135.0	1
3.0.1	2019_Mar_07_1109	s	s	9	3	SIC	293	ABS	0	0	2	4	24_2_4	NA	NA	0	1	1.51652002335	None	None	None	None	1
3.0.1	2019_Mar_07_1109	s	s	9	3	SIC	294	4_1	4	1	3	2	23_3_2	1	1	1	0	0.473512887955	-188.0	-235.0	-187.0	-237.0	1
3.0.1	2019_Mar_07_1109	s	s	9	3	SIC	295	ABS	0	0	2	4	24_2_4	NA	NA	0	1	1.51649403572	None	None	None	None	1
3.0.1	2019_Mar_07_1109	s	s	9	3	SIC	296	ABS	0	0	1	1	24_1_1	NA	NA	0	1	1.90746593475	None	None	None	None	1
3.0.1	2019_Mar_07_1109	s	s	9	3	SIC	297	2_4	2	4	4	4	23_4_4	2	0	1	0	0.528713941574	249.0	229.0	250.0	229.0	1
3.0.1	2019_Mar_07_1109	s	s	9	3	SIC	298	ABS	0	0	4	4	24_4_4	NA	NA	0	1	1.88109707832	None	None	None	None	1
3.0.1	2019_Mar_07_1109	s	s	9	3	SIC	299	ABS	0	0	3	1	24_3_1	NA	NA	0	1	1.51646995544	None	None	None	None	1
3.0.1	2019_Mar_07_1109	s	s	9	3	SIC	300	3_3	3	3	1	3	23_1_3	2	0	1	0	0.618499040604	89.0	-44.0	93.0	-48.0	1
3.0.1	2019_Mar_07_1109	s	s	9	3	SIC	301	2_4	2	4	1	4	23_1_4	-1	0	0	1	1.18724012375	202.0	-4.0	None	None	0
3.0.1	2019_Mar_07_1109	s	s	9	3	SIC	302	1_1	1	1	2	1	23_2_1	1	0	1	0	1.49298405647	246.0	-129.0	246.0	-132.0	1
3.0.1	2019_Mar_07_1109	s	s	9	3	SIC	303	ABS	0	0	2	3	24_2_3	NA	NA	0	1	3.94554209709	None	None	None	None	1
3.0.1	2019_Mar_07_1109	s	s	9	3	SIC	304	1_2	1	2	1	3	23_1_3	0	1	1	0	2.20334911346	374.0	262.0	374.0	264.0	1
3.0.1	2019_Mar_07_1109	s	s	9	3	SIC	305	ABS	0	0	1	2	24_1_2	NA	NA	0	1	4.36278605461	None	None	None	None	1
3.0.1	2019_Mar_07_1109	s	s	9	3	SIC	306	ABS	0	0	4	4	24_4_4	NA	NA	0	1	2.01344394684	None	None	None	None	1
3.0.1	2019_Mar_07_1109	s	s	9	3	SIC	307	1_2	1	2	2	4	23_2_4	1	2	1	0	0.697551012039	-521.0	-41.0	-523.0	-37.0	1
3.0.1	2019_Mar_07_1109	s	s	9	3	SIC	308	3_2	3	2	4	4	23_4_4	-1	2	1	0	0.604214906693	-464.0	340.0	-469.0	342.0	1
3.0.1	2019_Mar_07_1109	s	s	9	3	SIC	309	ABS	0	0	3	2	24_3_2	NA	NA	0	1	3.12130403519	None	None	None	None	1
3.0.1	2019_Mar_07_1109	s	s	9	3	SIC	310	ABS	0	0	1	3	24_1_3	NA	NA	0	1	3.75114703178	None	None	None	None	1
3.0.1	2019_Mar_07_1109	s	s	9	3	SIC	311	ABS	0	0	3	1	24_3_1	NA	NA	0	1	2.16338086128	None	None	None	None	1
3.0.1	2019_Mar_07_1109	s	s	9	3	SIC	312	ABS	0	0	4	3	24_4_3	NA	NA	0	1	3.3675160408	None	None	None	None	1
3.0.1	2019_Mar_07_1109	s	s	9	3	SIC	313	2_3	2	3	3	4	23_3_4	1	-1	1	0	0.822624921799	-5.0	-336.0	-2.0	-333.0	1
3.0.1	2019_Mar_07_1109	s	s	9	3	SIC	314	4_4	4	4	3	1	23_3_1	1	3	1	0	0.587462902069	37.0	-351.0	35.0	-352.0	1
3.0.1	2019_Mar_07_1109	s	s	9	3	SIC	315	ABS	0	0	4	3	24_4_3	NA	NA	0	1	2.50284695625	None	None	None	None	1
3.0.1	2019_Mar_07_1109	s	s	9	3	SIC	316	1_3	1	3	1	4	23_1_4	0	-1	1	0	0.657926082611	-504.0	-131.0	-506.0	-129.0	1
3.0.1	2019_Mar_07_1109	s	s	9	3	SIC	317	ABS	0	0	2	4	24_2_4	NA	NA	0	1	1.30479288101	None	None	None	None	1
3.0.1	2019_Mar_07_1109	s	s	9	3	SIC	318	ABS	0	0	3	3	24_3_3	NA	NA	0	1	2.55540704727	None	None	None	None	1
3.0.1	2019_Mar_07_1109	s	s	9	3	SIC	319	ABS	0	0	4	3	24_4_3	NA	NA	0	1	2.40322685242	None	None	None	None	1
3.0.1	2019_Mar_07_1109	s	s	9	3	SIC	320	ABS	0	0	4	2	24_4_2	NA	NA	0	1	3.36304306984	None	None	None	None	1
3.0.1	2019_Mar_07_1109	s	s	9	3	SIC	321	3_3	3	3	3	2	23_3_2	0	1	1	0	2.55434513092	274.0	-326.0	277.0	-327.0	1
3.0.1	2019_Mar_07_1109	s	s	9	3	SIC	322	ABS	0	0	4	2	24_4_2	NA	NA	0	1	3.75146102905	None	None	None	None	1
3.0.1	2019_Mar_07_1109	s	s	9	3	SIC	323	1_1	1	1	3	4	23_3_4	2	3	1	0	0.763907909393	-34.0	66.0	-36.0	67.0	1
3.0.1	2019_Mar_07_1109	s	s	9	3	SIC	324	4_4	4	4	2	3	23_2_3	2	1	1	0	1.01079511642	-287.0	299.0	-282.0	297.0	1
3.0.1	2019_Mar_07_1109	s	s	9	3	SIC	325	ABS	0	0	2	2	24_2_2	NA	NA	0	1	4.56555891037	None	None	None	None	1
3.0.1	2019_Mar_07_1109	s	s	9	3	SIC	326	4_2	4	2	2	3	23_2_3	2	1	1	0	0.77570605278	479.0	189.0	477.0	181.0	1
3.0.1	2019_Mar_07_1109	s	s	9	3	SIC	327	2_1	2	1	1	1	23_1_1	-1	0	0	1	1.46108698845	78.0	-412.0	None	None	0
3.0.1	2019_Mar_07_1109	s	s	9	3	SIC	328	ABS	0	0	1	1	24_1_1	NA	NA	0	1	2.35150980949	None	None	None	None	1
3.0.1	2019_Mar_07_1109	s	s	9	3	SIC	329	ABS	0	0	1	4	24_1_4	NA	NA	0	1	1.62803602219	None	None	None	None	1
3.0.1	2019_Mar_07_1109	s	s	9	3	SIC	330	4_3	4	3	4	2	23_4_2	0	1	1	0	1.09724807739	-302.0	-27.0	-306.0	-32.0	1
3.0.1	2019_Mar_07_1109	s	s	9	3	SIC	331	ABS	0	0	3	3	24_3_3	NA	NA	0	1	3.95492982864	None	None	None	None	1
3.0.1	2019_Mar_07_1109	s	s	9	3	SIC	332	ABS	0	0	4	1	24_4_1	NA	NA	0	1	1.89852309227	None	None	None	None	1
3.0.1	2019_Mar_07_1109	s	s	9	3	SIC	333	4_4	4	4	1	3	23_1_3	3	1	1	0	0.641051054001	-182.0	178.0	-188.0	179.0	1
3.0.1	2019_Mar_07_1109	s	s	9	3	SIC	334	ABS	0	0	2	1	24_2_1	NA	NA	0	1	2.97512292862	None	None	None	None	1
3.0.1	2019_Mar_07_1109	s	s	9	3	SIC	335	ABS	0	0	4	2	24_4_2	NA	NA	0	1	3.0180811882	None	None	None	None	1
3.0.1	2019_Mar_07_1109	s	s	9	3	SIC	336	ABS	0	0	2	3	24_2_3	NA	NA	0	1	3.52768611908	None	None	None	None	1
3.0.1	2019_Mar_07_1109	s	s	9	3	SIC	337	4_2	4	2	1	1	23_1_1	3	-1	1	0	0.502008914948	192.0	-176.0	193.0	-176.0	1
3.0.1	2019_Mar_07_1109	s	s	9	3	SIC	338	1_1	1	1	3	2	23_3_2	2	1	1	0	0.669682025909	26.0	133.0	29.0	134.0	1
3.0.1	2019_Mar_07_1109	s	s	9	3	SIC	339	ABS	0	0	1	4	24_1_4	NA	NA	0	1	2.39128088951	None	None	None	None	1
3.0.1	2019_Mar_07_1109	s	s	9	3	SIC	340	ABS	0	0	3	3	24_3_3	NA	NA	0	1	2.01053309441	None	None	None	None	1
3.0.1	2019_Mar_07_1109	s	s	9	3	SIC	341	ABS	0	0	1	3	24_1_3	NA	NA	0	1	2.84838891029	None	None	None	None	1
3.0.1	2019_Mar_07_1109	s	s	9	3	SIC	342	2_4	2	4	3	2	23_3_2	1	2	1	0	0.987279891968	516.0	363.0	523.0	362.0	1
3.0.1	2019_Mar_07_1109	s	s	9	3	SIC	343	1_3	1	3	2	3	23_2_3	1	0	1	0	1.16372895241	290.0	191.0	290.0	195.0	1
3.0.1	2019_Mar_07_1109	s	s	9	3	SIC	344	3_4	3	4	1	3	23_1_3	2	1	1	0	0.904993057251	-23.0	-317.0	-19.0	-319.0	1
3.0.1	2019_Mar_07_1109	s	s	9	3	SIC	345	3_2	3	2	3	1	23_3_1	0	-1	0	1	1.35182619095	415.0	238.0	None	None	0
3.0.1	2019_Mar_07_1109	s	s	9	3	SIC	346	2_3	2	3	1	4	23_1_4	-1	-1	1	0	0.928466081619	-388.0	-343.0	-391.0	-343.0	1
3.0.1	2019_Mar_07_1109	s	s	9	3	SIC	347	ABS	0	0	2	2	24_2_2	NA	NA	0	1	3.52763390541	None	None	None	None	1
3.0.1	2019_Mar_07_1109	s	s	9	3	SIC	348	ABS	0	0	3	3	24_3_3	NA	NA	0	1	2.69562387466	None	None	None	None	1
3.0.1	2019_Mar_07_1109	s	s	9	3	SIC	349	ABS	0	0	2	1	24_2_1	NA	NA	0	1	3.07389998436	None	None	None	None	1
3.0.1	2019_Mar_07_1109	s	s	9	3	SIC	350	ABS	0	0	1	2	24_1_2	NA	NA	0	1	3.02960395813	None	None	None	None	1
3.0.1	2019_Mar_07_1109	s	s	9	3	SIC	351	4_4	4	4	3	3	23_3_3	1	1	1	0	0.580420017242	423.0	193.0	430.0	189.0	1
3.0.1	2019_Mar_07_1109	s	s	9	3	SIC	352	3_2	3	2	4	1	23_4_1	-1	-1	1	0	0.532629966736	-260.0	-132.0	-258.0	-135.0	1
3.0.1	2019_Mar_07_1109	s	s	9	3	SIC	353	ABS	0	0	1	2	24_1_2	NA	NA	0	1	3.21004986763	None	None	None	None	1
3.0.1	2019_Mar_07_1109	s	s	9	3	SIC	354	ABS	0	0	4	3	24_4_3	NA	NA	0	1	2.56328988075	None	None	None	None	1
3.0.1	2019_Mar_07_1109	s	s	9	3	SIC	355	1_3	1	3	3	2	23_3_2	2	1	1	0	0.854423999786	109.0	297.0	108.0	299.0	1
3.0.1	2019_Mar_07_1109	s	s	9	3	SIC	356	1_3	1	3	4	1	23_4_1	3	2	1	0	0.509727954865	454.0	233.0	455.0	233.0	1
3.0.1	2019_Mar_07_1109	s	s	9	3	SIC	357	ABS	0	0	4	4	24_4_4	NA	NA	0	1	1.18723797798	None	None	None	None	1
3.0.1	2019_Mar_07_1109	s	s	9	3	SIC	358	ABS	0	0	2	3	24_2_3	NA	NA	0	1	4.16284489632	None	None	None	None	1
3.0.1	2019_Mar_07_1109	s	s	9	3	SIC	359	3_1	3	1	3	2	23_3_2	0	1	1	0	3.23191404343	-346.0	409.0	-345.0	413.0	1
3.0.1	2019_Mar_07_1109	s	s	9	3	SIC	360	1_2	1	2	3	4	23_3_4	2	2	1	0	0.752079963684	52.0	-307.0	58.0	-310.0	1
3.0.1	2019_Mar_07_1109	s	s	9	3	SIC	361	1_2	1	2	3	2	23_3_2	2	0	1	0	0.822599887848	315.0	14.0	314.0	8.0	1
3.0.1	2019_Mar_07_1109	s	s	9	3	SIC	362	3_4	3	4	1	4	23_1_4	2	0	1	0	1.43715500832	258.0	10.0	256.0	2.0	1
3.0.1	2019_Mar_07_1109	s	s	9	3	SIC	363	ABS	0	0	1	1	24_1_1	NA	NA	0	1	3.12176394463	None	None	None	None	1
3.0.1	2019_Mar_07_1109	s	s	9	3	SIC	364	ABS	0	0	1	1	24_1_1	NA	NA	0	1	1.69294214249	None	None	None	None	1
3.0.1	2019_Mar_07_1109	s	s	9	3	SIC	365	ABS	0	0	2	1	24_2_1	NA	NA	0	1	3.37480092049	None	None	None	None	1
3.0.1	2019_Mar_07_1109	s	s	9	3	SIC	366	2_4	2	4	1	1	23_1_1	-1	3	1	0	0.570018053055	-178.0	121.0	-182.0	115.0	1
3.0.1	2019_Mar_07_1109	s	s	9	3	SIC	367	ABS	0	0	1	3	24_1_3	NA	NA	0	1	2.58038902283	None	None	None	None	1
3.0.1	2019_Mar_07_1109	s	s	9	3	SIC	368	ABS	0	0	4	1	24_4_1	NA	NA	0	1	0.954887151718	None	None	None	None	1
3.0.1	2019_Mar_07_1109	s	s	9	3	SIC	369	1_2	1	2	4	3	23_4_3	3	1	1	0	0.634630918503	-148.0	158.0	-143.0	156.0	1
3.0.1	2019_Mar_07_1109	s	s	9	3	SIC	370	ABS	0	0	2	3	24_2_3	NA	NA	0	1	3.70898103714	None	None	None	None	1
3.0.1	2019_Mar_07_1109	s	s	9	3	SIC	371	1_3	1	3	3	1	23_3_1	2	2	1	0	0.745943069458	353.0	-57.0	348.0	-58.0	1
3.0.1	2019_Mar_07_1109	s	s	9	3	SIC	372	ABS	0	0	4	2	24_4_2	NA	NA	0	1	4.65677189827	None	None	None	None	1
3.0.1	2019_Mar_07_1109	s	s	9	3	SIC	373	3_4	3	4	4	3	23_4_3	-1	1	1	0	0.681509971619	-423.0	24.0	-420.0	16.0	1
3.0.1	2019_Mar_07_1109	s	s	9	3	SIC	374	ABS	0	0	4	2	24_4_2	NA	NA	0	1	3.29237413406	None	None	None	None	1
3.0.1	2019_Mar_07_1109	s	s	9	3	SIC	375	3_1	3	1	2	4	23_2_4	1	3	1	0	0.650441884995	-212.0	-340.0	-215.0	-347.0	1
3.0.1	2019_Mar_07_1109	s	s	9	3	SIC	376	4_2	4	2	1	4	23_1_4	3	2	1	0	0.528625965118	-338.0	-115.0	-330.0	-114.0	1
3.0.1	2019_Mar_07_1109	s	s	9	3	SIC	377	ABS	0	0	4	3	24_4_3	NA	NA	0	1	2.65736103058	None	None	None	None	1
3.0.1	2019_Mar_07_1109	s	s	9	3	SIC	378	ABS	0	0	2	3	24_2_3	NA	NA	0	1	3.00353002548	None	None	None	None	1
3.0.1	2019_Mar_07_1109	s	s	9	3	SIC	379	ABS	0	0	3	2	24_3_2	NA	NA	0	1	4.37740302086	None	None	None	None	1
3.0.1	2019_Mar_07_1109	s	s	9	3	SIC	380	2_2	2	2	3	3	23_3_3	1	1	1	0	0.672631978989	-232.0	275.0	-232.0	274.0	1
3.0.1	2019_Mar_07_1109	s	s	9	3	SIC	381	ABS	0	0	3	4	24_3_4	NA	NA	0	1	2.89546895027	None	None	None	None	1
3.0.1	2019_Mar_07_1109	s	s	9	3	SIC	382	4_2	4	2	2	4	23_2_4	2	2	1	0	0.980613946915	386.0	-185.0	388.0	-189.0	1
3.0.1	2019_Mar_07_1109	s	s	9	3	SIC	383	4_1	4	1	3	1	23_3_1	1	0	1	0	1.69308590889	-440.0	-255.0	-441.0	-257.0	1
3.0.1	2019_Mar_07_1109	s	s	9	3	SIC	384	ABS	0	0	2	2	24_2_2	NA	NA	0	1	3.61876702309	None	None	None	None	1
3.0.1	2019_Mar_07_1109	s	s	9	3	SIC	385	4_1	4	1	2	4	23_2_4	2	3	1	0	0.511090040207	68.0	-209.0	66.0	-208.0	1
3.0.1	2019_Mar_07_1109	s	s	9	3	SIC	386	ABS	0	0	3	1	24_3_1	NA	NA	0	1	2.17921590805	None	None	None	None	1
3.0.1	2019_Mar_07_1109	s	s	9	3	SIC	387	ABS	0	0	2	4	24_2_4	NA	NA	0	1	1.64076685905	None	None	None	None	1
3.0.1	2019_Mar_07_1109	s	s	9	3	SIC	388	ABS	0	0	1	4	24_1_4	NA	NA	0	1	1.40437102318	None	None	None	None	1
3.0.1	2019_Mar_07_1109	s	s	9	3	SIC	389	3_1	3	1	2	1	23_2_1	1	0	1	0	0.979448080063	524.0	408.0	527.0	407.0	1
3.0.1	2019_Mar_07_1109	s	s	9	3	SIC	390	ABS	0	0	2	1	24_2_1	NA	NA	0	1	1.73683214188	None	None	None	None	1
3.0.1	2019_Mar_07_1109	s	s	9	3	SIC	391	ABS	0	0	4	4	24_4_4	NA	NA	0	1	1.10479307175	None	None	None	None	1
3.0.1	2019_Mar_07_1109	s	s	9	3	SIC	392	2_2	2	2	4	3	23_4_3	2	1	1	0	0.752477884293	190.0	376.0	195.0	376.0	1
3.0.1	2019_Mar_07_1109	s	s	9	3	SIC	393	ABS	0	0	3	1	24_3_1	NA	NA	0	1	3.9157371521	None	None	None	None	1
3.0.1	2019_Mar_07_1109	s	s	9	3	SIC	394	ABS	0	0	4	3	24_4_3	NA	NA	0	1	3.1452460289	None	None	None	None	1
3.0.1	2019_Mar_07_1109	s	s	9	3	SIC	395	1_3	1	3	3	3	23_3_3	2	0	1	0	0.663026809692	185.0	380.0	182.0	379.0	1
3.0.1	2019_Mar_07_1109	s	s	9	3	SIC	396	4_3	4	3	1	4	23_1_4	3	-1	1	0	0.587357997894	-533.0	-299.0	-534.0	-300.0	1
3.0.1	2019_Mar_07_1109	s	s	9	3	SIC	397	3_3	3	3	2	3	23_2_3	1	0	1	0	0.88510799408	-132.0	-368.0	-131.0	-369.0	1
3.0.1	2019_Mar_07_1109	s	s	9	3	SIC	398	ABS	0	0	4	4	24_4_4	NA	NA	0	1	1.21100211143	None	None	None	None	1
3.0.1	2019_Mar_07_1109	s	s	9	3	SIC	399	ABS	0	0	1	3	24_1_3	NA	NA	0	1	2.26249098778	None	None	None	None	1
3.0.1	2019_Mar_07_1109	s	s	9	3	SIC	400	ABS	0	0	3	3	24_3_3	NA	NA	0	1	2.75150585175	None	None	None	None	1
3.0.1	2019_Mar_07_1109	s	s	9	3	SIC	401	ABS	0	0	1	4	24_1_4	NA	NA	0	1	1.99871611595	None	None	None	None	1
3.0.1	2019_Mar_07_1109	s	s	9	3	SIC	402	ABS	0	0	2	3	24_2_3	NA	NA	0	1	3.27359509468	None	None	None	None	1
3.0.1	2019_Mar_07_1109	s	s	9	3	SIC	403	1_4	1	4	2	3	23_2_3	1	1	1	0	0.810871839523	-321.0	-293.0	-316.0	-291.0	1
3.0.1	2019_Mar_07_1109	s	s	9	3	SIC	404	1_2	1	2	4	1	23_4_1	3	-1	1	0	0.486722946167	281.0	156.0	282.0	160.0	1
3.0.1	2019_Mar_07_1109	s	s	9	3	SIC	405	2_1	2	1	1	2	23_1_2	-1	1	1	0	2.60497903824	-397.0	263.0	-401.0	264.0	1
3.0.1	2019_Mar_07_1109	s	s	9	3	SIC	406	ABS	0	0	1	4	24_1_4	NA	NA	0	1	1.34011006355	None	None	None	None	1
3.0.1	2019_Mar_07_1109	s	s	9	3	SIC	407	4_1	4	1	2	1	23_2_1	2	0	1	0	0.575798988342	395.0	-79.0	390.0	-73.0	1
3.0.1	2019_Mar_07_1109	s	s	9	3	SIC	408	ABS	0	0	2	2	24_2_2	NA	NA	0	1	3.69556498528	None	None	None	None	1
3.0.1	2019_Mar_07_1109	s	s	9	3	SIC	409	2_3	2	3	4	3	23_4_3	2	0	1	0	0.620325088501	503.0	-235.0	498.0	-234.0	1
3.0.1	2019_Mar_07_1109	s	s	9	3	SIC	410	ABS	0	0	1	3	24_1_3	NA	NA	0	1	2.23385500908	None	None	None	None	1
3.0.1	2019_Mar_07_1109	s	s	9	3	SIC	411	4_2	4	2	3	3	23_3_3	1	1	1	0	0.563723802567	-400.0	323.0	-396.0	319.0	1
3.0.1	2019_Mar_07_1109	s	s	9	3	SIC	412	4_2	4	2	3	2	23_3_2	1	0	1	0	0.532338142395	-185.0	288.0	-187.0	287.0	1
3.0.1	2019_Mar_07_1109	s	s	9	3	SIC	413	2_4	2	4	2	2	23_2_2	0	2	1	0	0.642534971237	163.0	-43.0	169.0	-45.0	1
3.0.1	2019_Mar_07_1109	s	s	9	3	SIC	414	2_4	2	4	2	1	23_2_1	0	3	1	0	0.580314159393	343.0	-295.0	345.0	-295.0	1
3.0.1	2019_Mar_07_1109	s	s	9	3	SIC	415	2_2	2	2	1	2	23_1_2	-1	0	1	0	2.69261097908	-109.0	85.0	-108.0	85.0	1
3.0.1	2019_Mar_07_1109	s	s	9	3	SIC	416	ABS	0	0	3	4	24_3_4	NA	NA	0	1	1.6458439827	None	None	None	None	1
3.0.1	2019_Mar_07_1109	s	s	9	3	SIC	417	ABS	0	0	3	4	24_3_4	NA	NA	0	1	1.82226610184	None	None	None	None	1
3.0.1	2019_Mar_07_1109	s	s	9	3	SIC	418	ABS	0	0	2	4	24_2_4	NA	NA	0	1	2.60369896889	None	None	None	None	1
3.0.1	2019_Mar_07_1109	s	s	9	3	SIC	419	1_3	1	3	4	2	23_4_2	3	1	1	0	0.554991006851	-124.0	197.0	-124.0	198.0	1
3.0.1	2019_Mar_07_1109	s	s	9	3	SIC	420	2_1	2	1	4	1	23_4_1	2	0	1	0	0.613841056824	-44.0	-196.0	-42.0	-197.0	1
3.0.1	2019_Mar_07_1109	s	s	9	3	SIC	421	3_2	3	2	4	3	23_4_3	-1	1	1	0	0.569295883179	146.0	38.0	139.0	32.0	1
3.0.1	2019_Mar_07_1109	s	s	9	3	SIC	422	ABS	0	0	4	1	24_4_1	NA	NA	0	1	2.89264512062	None	None	None	None	1
3.0.1	2019_Mar_07_1109	s	s	9	3	SIC	423	4_1	4	1	3	3	23_3_3	1	2	1	0	0.561388015747	-23.0	-348.0	-18.0	-347.0	1
3.0.1	2019_Mar_07_1109	s	s	9	3	SIC	424	ABS	0	0	4	1	24_4_1	NA	NA	0	1	1.87347316742	None	None	None	None	1
3.0.1	2019_Mar_07_1109	s	s	9	3	SIC	425	ABS	0	0	2	2	24_2_2	NA	NA	0	1	4.49500894547	None	None	None	None	1
3.0.1	2019_Mar_07_1109	s	s	9	3	SIC	426	2_1	2	1	2	4	23_2_4	0	3	1	0	0.728495836258	20.0	346.0	17.0	343.0	1
3.0.1	2019_Mar_07_1109	s	s	9	3	SIC	427	ABS	0	0	1	4	24_1_4	NA	NA	0	1	1.85765790939	None	None	None	None	1
3.0.1	2019_Mar_07_1109	s	s	9	3	SIC	428	ABS	0	0	2	3	24_2_3	NA	NA	0	1	3.7864511013	None	None	None	None	1
3.0.1	2019_Mar_07_1109	s	s	9	3	SIC	429	2_3	2	3	1	3	23_1_3	-1	0	1	0	3.38653898239	-364.0	-249.0	-360.0	-248.0	1
3.0.1	2019_Mar_07_1109	s	s	9	3	SIC	430	3_1	3	1	3	3	23_3_3	0	2	1	0	2.92264509201	-509.0	267.0	-510.0	261.0	1
3.0.1	2019_Mar_07_1109	s	s	9	3	SIC	431	3_4	3	4	1	2	23_1_2	2	2	1	0	0.528601884842	284.0	142.0	289.0	143.0	1
3.0.1	2019_Mar_07_1109	s	s	9	3	SIC	432	1_3	1	3	4	4	23_4_4	3	-1	1	0	0.505020141602	408.0	330.0	416.0	331.0	1
3.0.1	2019_Mar_07_1109	s	s	9	3	SIC	433	ABS	0	0	4	3	24_4_3	NA	NA	0	1	3.6717338562	None	None	None	None	1
3.0.1	2019_Mar_07_1109	s	s	9	3	SIC	434	1_4	1	4	3	3	23_3_3	2	1	1	0	0.869679927826	61.0	-284.0	64.0	-277.0	1
3.0.1	2019_Mar_07_1109	s	s	9	3	SIC	435	ABS	0	0	3	2	24_3_2	NA	NA	0	1	2.70925688744	None	None	None	None	1
3.0.1	2019_Mar_07_1109	s	s	9	3	SIC	436	2_4	2	4	1	2	23_1_2	-1	2	1	0	0.940276145935	-295.0	-82.0	-296.0	-85.0	1
3.0.1	2019_Mar_07_1109	s	s	9	3	SIC	437	ABS	0	0	3	2	24_3_2	NA	NA	0	1	3.88046312332	None	None	None	None	1
3.0.1	2019_Mar_07_1109	s	s	9	3	SIC	438	ABS	0	0	2	4	24_2_4	NA	NA	0	1	1.41066384315	None	None	None	None	1
3.0.1	2019_Mar_07_1109	s	s	9	3	SIC	439	2_1	2	1	1	3	23_1_3	-1	2	1	0	1.4698741436	-380.0	41.0	-379.0	40.0	1
3.0.1	2019_Mar_07_1109	s	s	9	3	SIC	440	ABS	0	0	4	3	24_4_3	NA	NA	0	1	2.84845900536	None	None	None	None	1
3.0.1	2019_Mar_07_1109	s	s	9	3	SIC	441	ABS	0	0	3	3	24_3_3	NA	NA	0	1	2.70966291428	None	None	None	None	1
3.0.1	2019_Mar_07_1109	s	s	9	3	SIC	442	1_1	1	1	3	1	23_3_1	2	0	1	0	0.658024072647	-161.0	180.0	-155.0	178.0	1
3.0.1	2019_Mar_07_1109	s	s	9	3	SIC	443	ABS	0	0	4	1	24_4_1	NA	NA	0	1	1.67330098152	None	None	None	None	1
3.0.1	2019_Mar_07_1109	s	s	9	3	SIC	444	4_4	4	4	3	4	23_3_4	1	0	1	0	0.547045946121	135.0	-54.0	127.0	-56.0	1
3.0.1	2019_Mar_07_1109	s	s	9	3	SIC	445	ABS	0	0	1	4	24_1_4	NA	NA	0	1	1.6978020668	None	None	None	None	1
3.0.1	2019_Mar_07_1109	s	s	9	3	SIC	446	1_2	1	2	1	4	23_1_4	0	2	1	0	0.810794830322	-382.0	398.0	-385.0	392.0	1
3.0.1	2019_Mar_07_1109	s	s	9	3	SIC	447	3_2	3	2	3	4	23_3_4	0	2	1	0	0.610909938812	114.0	96.0	121.0	98.0	1
3.0.1	2019_Mar_07_1109	s	s	9	3	SIC	448	2_4	2	4	4	2	23_4_2	2	2	1	0	0.610997915268	333.0	213.0	337.0	210.0	1
3.0.1	2019_Mar_07_1109	s	s	9	3	SIC	449	ABS	0	0	1	3	24_1_3	NA	NA	0	1	3.77462601662	None	None	None	None	1
3.0.1	2019_Mar_07_1109	s	s	9	3	SIC	450	3_3	3	3	3	1	23_3_1	0	2	0	1	1.12187409401	-373.0	404.0	None	None	0
3.0.1	2019_Mar_07_1109	s	s	9	3	SIC	451	1_2	1	2	2	1	23_2_1	1	-1	1	0	1.33344697952	367.0	55.0	371.0	52.0	1
3.0.1	2019_Mar_07_1109	s	s	9	3	SIC	452	ABS	0	0	4	1	24_4_1	NA	NA	0	1	1.78037977219	None	None	None	None	1
3.0.1	2019_Mar_07_1109	s	s	9	3	SIC	453	3_3	3	3	2	1	23_2_1	1	2	1	0	0.881361961365	-300.0	-306.0	-302.0	-311.0	1
3.0.1	2019_Mar_07_1109	s	s	9	3	SIC	454	3_1	3	1	4	1	23_4_1	-1	0	1	0	0.486856937408	-10.0	-8.0	-2.0	-5.0	1
3.0.1	2019_Mar_07_1109	s	s	9	3	SIC	455	1_3	1	3	1	1	23_1_1	0	2	1	0	0.657940864563	30.0	-30.0	27.0	-32.0	1
3.0.1	2019_Mar_07_1109	s	s	9	3	SIC	456	ABS	0	0	4	1	24_4_1	NA	NA	0	1	2.23904681206	None	None	None	None	1
3.0.1	2019_Mar_07_1109	s	s	9	3	SIC	457	ABS	0	0	1	2	24_1_2	NA	NA	0	1	5.57883501053	None	None	None	None	1
3.0.1	2019_Mar_07_1109	s	s	9	3	SIC	458	ABS	0	0	1	4	24_1_4	NA	NA	0	1	1.18725299835	None	None	None	None	1
3.0.1	2019_Mar_07_1109	s	s	9	3	SIC	459	2_3	2	3	1	1	23_1_1	-1	2	1	0	2.23391199112	233.0	384.0	236.0	383.0	1
3.0.1	2019_Mar_07_1109	s	s	9	3	SIC	460	2_2	2	2	1	3	23_1_3	-1	1	1	0	1.29304289818	-256.0	390.0	-252.0	390.0	1
3.0.1	2019_Mar_07_1109	s	s	9	3	SIC	461	ABS	0	0	2	2	24_2_2	NA	NA	0	1	4.02169203758	None	None	None	None	1
3.0.1	2019_Mar_07_1109	s	s	9	3	SIC	462	ABS	0	0	1	4	24_1_4	NA	NA	0	1	1.04652810097	None	None	None	None	1
3.0.1	2019_Mar_07_1109	s	s	9	3	SIC	463	4_3	4	3	3	3	23_3_3	1	0	1	0	0.560035228729	260.0	-8.0	254.0	-11.0	1
3.0.1	2019_Mar_07_1109	s	s	9	3	SIC	464	3_1	3	1	4	4	23_4_4	-1	3	1	0	0.505168914795	341.0	-72.0	342.0	-78.0	1
3.0.1	2019_Mar_07_1109	s	s	9	3	SIC	465	ABS	0	0	1	1	24_1_1	NA	NA	0	1	1.63898491859	None	None	None	None	1
3.0.1	2019_Mar_07_1109	s	s	9	3	SIC	466	1_2	1	2	4	4	23_4_4	3	2	1	0	0.58735203743	273.0	-292.0	277.0	-291.0	1
3.0.1	2019_Mar_07_1109	s	s	9	3	SIC	467	ABS	0	0	4	1	24_4_1	NA	NA	0	1	1.11663103104	None	None	None	None	1
3.0.1	2019_Mar_07_1109	s	s	9	3	SIC	468	2_2	2	2	3	4	23_3_4	1	2	1	0	0.791235923767	-510.0	-288.0	-519.0	-292.0	1
3.0.1	2019_Mar_07_1109	s	s	9	3	SIC	469	3_4	3	4	2	4	23_2_4	1	0	1	0	1.77569890022	-429.0	324.0	-432.0	321.0	1
3.0.1	2019_Mar_07_1109	s	s	9	3	SIC	470	3_2	3	2	1	2	23_1_2	2	0	1	0	0.575605869293	82.0	241.0	87.0	239.0	1
3.0.1	2019_Mar_07_1109	s	s	9	3	SIC	471	2_1	2	1	4	4	23_4_4	2	3	1	0	0.528547048569	299.0	-383.0	297.0	-382.0	1
3.0.1	2019_Mar_07_1109	s	s	9	3	SIC	472	3_4	3	4	4	4	23_4_4	-1	0	1	0	0.622725963593	21.0	110.0	24.0	113.0	1
3.0.1	2019_Mar_07_1109	s	s	9	3	SIC	473	2_4	2	4	4	1	23_4_1	2	3	1	0	0.907820940018	156.0	160.0	156.0	153.0	1
3.0.1	2019_Mar_07_1109	s	s	9	3	SIC	474	2_2	2	2	1	4	23_1_4	-1	2	1	0	0.705410003662	-449.0	139.0	-451.0	139.0	1
3.0.1	2019_Mar_07_1109	s	s	9	3	SIC	475	4_3	4	3	2	4	23_2_4	2	-1	1	0	0.555105924606	-188.0	410.0	-194.0	406.0	1
3.0.1	2019_Mar_07_1109	s	s	9	3	SIC	476	3_3	3	3	4	2	23_4_2	-1	1	1	0	0.696156024933	292.0	-112.0	294.0	-123.0	1
3.0.1	2019_Mar_07_1109	s	s	9	3	SIC	477	1_2	1	2	2	3	23_2_3	1	1	1	0	1.31945681572	-381.0	281.0	-379.0	275.0	1
3.0.1	2019_Mar_07_1109	s	s	9	3	SIC	478	ABS	0	0	4	4	24_4_4	NA	NA	0	1	2.46966314316	None	None	None	None	1
3.0.1	2019_Mar_07_1109	s	s	9	3	SIC	479	ABS	0	0	3	4	24_3_4	NA	NA	0	1	1.58711314201	None	None	None	None	1
3.0.1	2019_Mar_07_1109	s	s	9	3	SIC	480	4_2	4	2	1	2	23_1_2	3	0	1	0	0.578490018845	-223.0	-243.0	-220.0	-243.0	1
