Version	Date	Stimuli	Method	Subject	Session	Condition	Trial	Target	Channel1	Channel2	Distractors	LMouseButton	RMouseButton	RT	TargetX	TargetY	ResponseX	ResponseY	Correct
1.7	2015_Jul_20_0914	s	s	10	1	Capacity	1	ABS	0	1	24RO	0	1	8.86048793793	None	None	None	None	1
1.7	2015_Jul_20_0914	s	s	10	1	Capacity	2	RC	0	2	23RD	1	0	1.17161893845	-508.0	-361.0	-508	-359	1
1.7	2015_Jul_20_0914	s	s	10	1	Capacity	3	ABS	0	2	24RD	0	1	6.85657095909	None	None	None	None	1
1.7	2015_Jul_20_0914	s	s	10	1	Capacity	4	RC	0	1	23RO	1	0	2.98914790154	-508.0	294.0	-509	290	1
1.7	2015_Jul_20_0914	s	s	10	1	Capacity	5	ABS	0	1	24RO	0	1	9.33331990242	None	None	None	None	1
1.7	2015_Jul_20_0914	s	s	10	1	Capacity	6	ABS	0	2	24RD	0	1	8.16825890541	None	None	None	None	1
1.7	2015_Jul_20_0914	s	s	10	1	Capacity	7	RC	0	1	23RO	1	0	1.45693993568	-49.0	-81.0	-52	-77	1
1.7	2015_Jul_20_0914	s	s	10	1	Capacity	8	RC	0	2	23RD	1	0	1.07042312622	-29.0	7.0	-24	6	1
1.7	2015_Jul_20_0914	s	s	10	1	Capacity	9	RC	0	1	23RO	1	0	3.4333460331	-177.0	222.0	-176	225	1
1.7	2015_Jul_20_0914	s	s	10	1	Capacity	10	RC	0	2	23RD	1	0	2.4278190136	-285.0	-325.0	-282	-326	1
1.7	2015_Jul_20_0914	s	s	10	1	Capacity	11	ABS	0	1	24RO	0	1	7.76406002045	None	None	None	None	1
1.7	2015_Jul_20_0914	s	s	10	1	Capacity	12	ABS	0	2	24RD	0	1	3.18391799927	None	None	None	None	1
1.7	2015_Jul_20_0914	s	s	10	1	Capacity	13	RC	0	1	23RO	1	0	2.26876306534	10.0	345.0	17	347	1
1.7	2015_Jul_20_0914	s	s	10	1	Capacity	14	ABS	0	1	24RO	0	1	8.19173002243	None	None	None	None	1
1.7	2015_Jul_20_0914	s	s	10	1	Capacity	15	RC	0	2	23RD	1	0	0.915092945099	331.0	-355.0	334	-350	1
1.7	2015_Jul_20_0914	s	s	10	1	Capacity	16	ABS	0	2	24RD	0	1	4.06390810013	None	None	None	None	1
1.7	2015_Jul_20_0914	s	s	10	1	Capacity	17	ABS	0	2	24RD	0	1	5.48091506958	None	None	None	None	1
1.7	2015_Jul_20_0914	s	s	10	1	Capacity	18	RC	0	2	23RD	1	0	0.806427001953	78.0	38.0	81	34	1
1.7	2015_Jul_20_0914	s	s	10	1	Capacity	19	ABS	0	1	24RO	0	1	7.46187400818	None	None	None	None	1
1.7	2015_Jul_20_0914	s	s	10	1	Capacity	20	RC	0	1	23RO	1	0	6.14957404137	138.0	202.0	140	199	1
1.7	2015_Jul_20_0914	s	s	10	1	Capacity	21	ABS	0	2	24RD	0	1	6.09394001961	None	None	None	None	1
1.7	2015_Jul_20_0914	s	s	10	1	Capacity	22	RC	0	2	23RD	1	0	2.46870994568	-501.0	-374.0	-504	-374	1
1.7	2015_Jul_20_0914	s	s	10	1	Capacity	23	ABS	0	1	24RO	0	1	5.74977588654	None	None	None	None	1
1.7	2015_Jul_20_0914	s	s	10	1	Capacity	24	RC	0	1	23RO	1	0	1.7121360302	90.0	167.0	95	167	1
1.7	2015_Jul_20_0914	s	s	10	1	Capacity	25	ABS	0	2	24RD	0	1	3.97772312164	None	None	None	None	1
1.7	2015_Jul_20_0914	s	s	10	1	Capacity	26	RC	0	2	23RD	1	0	1.63131809235	-537.0	103.0	-536	107	1
1.7	2015_Jul_20_0914	s	s	10	1	Capacity	27	ABS	0	1	24RO	0	1	11.2469959259	None	None	None	None	1
1.7	2015_Jul_20_0914	s	s	10	1	Capacity	28	RC	0	1	23RO	1	0	1.24700403214	-135.0	-155.0	-129	-159	1
1.7	2015_Jul_20_0914	s	s	10	1	Capacity	29	ABS	0	1	24RO	0	1	8.76339316368	None	None	None	None	1
1.7	2015_Jul_20_0914	s	s	10	1	Capacity	30	RC	0	1	23RO	1	0	9.18781495094	337.0	38.0	332	35	1
1.7	2015_Jul_20_0914	s	s	10	1	Capacity	31	ABS	0	2	24RD	0	1	4.1992559433	None	None	None	None	1
1.7	2015_Jul_20_0914	s	s	10	1	Capacity	32	RC	0	2	23RD	1	0	1.17074489594	277.0	188.0	276	193	1
1.7	2015_Jul_20_0914	s	s	10	1	Capacity	33	ABS	0	1	24RO	0	1	8.89800596237	None	None	None	None	1
1.7	2015_Jul_20_0914	s	s	10	1	Capacity	34	RC	0	1	23RO	1	0	9.03451299667	-454.0	170.0	-451	167	1
1.7	2015_Jul_20_0914	s	s	10	1	Capacity	35	ABS	0	2	24RD	0	1	5.11957406998	None	None	None	None	1
1.7	2015_Jul_20_0914	s	s	10	1	Capacity	36	RC	0	2	23RD	1	0	1.96261882782	14.0	379.0	26	383	1
1.7	2015_Jul_20_0914	s	s	10	1	Capacity	37	ABS	0	1	24RO	0	1	7.46846795082	None	None	None	None	1
1.7	2015_Jul_20_0914	s	s	10	1	Capacity	38	RC	0	2	23RD	1	0	1.28962802887	-431.0	162.0	-431	163	1
1.7	2015_Jul_20_0914	s	s	10	1	Capacity	39	ABS	0	2	24RD	0	1	4.1544508934	None	None	None	None	1
1.7	2015_Jul_20_0914	s	s	10	1	Capacity	40	RC	0	1	23RO	0	1	9.36635804176	368.0	165.0	None	None	0
1.7	2015_Jul_20_0914	s	s	10	1	Capacity	41	ABS	0	1	24RO	0	1	7.72989201546	None	None	None	None	1
1.7	2015_Jul_20_0914	s	s	10	1	Capacity	42	RC	0	2	23RD	1	0	0.938956975937	76.0	78.0	77	83	1
1.7	2015_Jul_20_0914	s	s	10	1	Capacity	43	RC	0	1	23RO	0	1	3.76092410088	-378.0	284.0	None	None	0
1.7	2015_Jul_20_0914	s	s	10	1	Capacity	44	ABS	0	2	24RD	0	1	4.13688898087	None	None	None	None	1
1.7	2015_Jul_20_0914	s	s	10	1	Capacity	45	RC	0	1	23RO	1	0	7.43505501747	-408.0	61.0	-404	60	1
1.7	2015_Jul_20_0914	s	s	10	1	Capacity	46	ABS	0	2	24RD	0	1	2.9865219593	None	None	None	None	1
1.7	2015_Jul_20_0914	s	s	10	1	Capacity	47	RC	0	2	23RD	0	1	1.08948087692	318.0	266.0	None	None	0
1.7	2015_Jul_20_0914	s	s	10	1	Capacity	48	ABS	0	1	24RO	0	1	9.61594390869	None	None	None	None	1
1.7	2015_Jul_20_0914	s	s	10	1	Capacity	49	RC	0	1	23RO	1	0	4.56129193306	-221.0	137.0	-217	132	1
1.7	2015_Jul_20_0914	s	s	10	1	Capacity	50	ABS	0	2	24RD	0	1	4.33090400696	None	None	None	None	1
1.7	2015_Jul_20_0914	s	s	10	1	Capacity	51	ABS	0	1	24RO	0	1	16.6665380001	None	None	None	None	1
1.7	2015_Jul_20_0914	s	s	10	1	Capacity	52	RC	0	2	23RD	1	0	2.12650585175	-337.0	109.0	-334	107	1
1.7	2015_Jul_20_0914	s	s	10	1	Capacity	53	ABS	0	2	24RD	0	1	4.67230296135	None	None	None	None	1
1.7	2015_Jul_20_0914	s	s	10	1	Capacity	54	RC	0	1	23RO	0	1	1.39516496658	148.0	-309.0	None	None	0
1.7	2015_Jul_20_0914	s	s	10	1	Capacity	55	RC	0	2	23RD	1	0	1.4541759491	-227.0	-381.0	-234	-378	1
1.7	2015_Jul_20_0914	s	s	10	1	Capacity	56	ABS	0	1	24RO	0	1	10.2223370075	None	None	None	None	1
1.7	2015_Jul_20_0914	s	s	10	1	Capacity	57	ABS	0	2	24RD	0	1	7.47367095947	None	None	None	None	1
1.7	2015_Jul_20_0914	s	s	10	1	Capacity	58	ABS	0	1	24RO	0	1	7.76248598099	None	None	None	None	1
1.7	2015_Jul_20_0914	s	s	10	1	Capacity	59	RC	0	1	23RO	0	1	7.2908551693	-133.0	393.0	None	None	0
1.7	2015_Jul_20_0914	s	s	10	1	Capacity	60	RC	0	2	23RD	1	0	1.45897507668	-8.0	-136.0	3	-130	1
1.7	2015_Jul_20_0914	s	s	10	1	Capacity	61	RC	0	1	23RO	1	0	3.37743616104	-462.0	-202.0	-450	-198	1
1.7	2015_Jul_20_0914	s	s	10	1	Capacity	62	ABS	0	1	24RO	0	1	7.7796561718	None	None	None	None	1
1.7	2015_Jul_20_0914	s	s	10	1	Capacity	63	ABS	0	2	24RD	0	1	3.80141806602	None	None	None	None	1
1.7	2015_Jul_20_0914	s	s	10	1	Capacity	64	RC	0	2	23RD	1	0	1.31766915321	-329.0	77.0	-322	73	1
1.7	2015_Jul_20_0914	s	s	10	1	Capacity	65	ABS	0	1	24RO	0	0	-1	None	None	None	None	-1
1.7	2015_Jul_20_0914	s	s	10	1	Capacity	66	RC	0	1	23RO	1	0	6.36186504364	29.0	-31.0	27	-29	1
1.7	2015_Jul_20_0914	s	s	10	1	Capacity	67	RC	0	2	23RD	1	0	1.10581994057	-117.0	81.0	-118	83	1
1.7	2015_Jul_20_0914	s	s	10	1	Capacity	68	ABS	0	2	24RD	0	1	2.70401501656	None	None	None	None	1
1.7	2015_Jul_20_0914	s	s	10	1	Capacity	69	ABS	0	1	24RO	0	1	8.07026100159	None	None	None	None	1
1.7	2015_Jul_20_0914	s	s	10	1	Capacity	70	RC	0	2	23RD	1	0	0.876576900482	461.0	170.0	472	172	1
1.7	2015_Jul_20_0914	s	s	10	1	Capacity	71	RC	0	1	23RO	1	0	1.58338093758	-194.0	-233.0	-187	-237	1
1.7	2015_Jul_20_0914	s	s	10	1	Capacity	72	ABS	0	2	24RD	0	1	2.38239812851	None	None	None	None	1
1.7	2015_Jul_20_0914	s	s	10	1	Capacity	73	ABS	0	1	24RO	0	1	8.23453402519	None	None	None	None	1
1.7	2015_Jul_20_0914	s	s	10	1	Capacity	74	RC	0	1	23RO	1	0	1.94843387604	-154.0	107.0	-143	110	1
1.7	2015_Jul_20_0914	s	s	10	1	Capacity	75	RC	0	2	23RD	1	0	1.03296899796	-48.0	50.0	-37	56	1
1.7	2015_Jul_20_0914	s	s	10	1	Capacity	76	ABS	0	2	24RD	0	1	3.47878503799	None	None	None	None	1
1.7	2015_Jul_20_0914	s	s	10	1	Capacity	77	RC	0	2	23RD	1	0	1.70613503456	222.0	-331.0	226	-331	1
1.7	2015_Jul_20_0914	s	s	10	1	Capacity	78	ABS	0	2	24RD	0	1	3.59771299362	None	None	None	None	1
1.7	2015_Jul_20_0914	s	s	10	1	Capacity	79	ABS	0	1	24RO	0	1	8.23873496056	None	None	None	None	1
1.7	2015_Jul_20_0914	s	s	10	1	Capacity	80	RC	0	1	23RO	1	0	2.21600317955	-370.0	295.0	-367	294	1
1.7	2015_Jul_20_0914	s	s	10	1	Capacity	81	ABS	0	1	24RO	0	1	6.21430897713	None	None	None	None	1
1.7	2015_Jul_20_0914	s	s	10	1	Capacity	82	RC	0	2	23RD	1	0	1.18583989143	-494.0	-157.0	-489	-161	1
1.7	2015_Jul_20_0914	s	s	10	1	Capacity	83	RC	0	1	23RO	1	0	1.9532930851	-486.0	170.0	-484	164	1
1.7	2015_Jul_20_0914	s	s	10	1	Capacity	84	ABS	0	2	24RD	0	1	1.88951301575	None	None	None	None	1
1.7	2015_Jul_20_0914	s	s	10	1	Capacity	85	ABS	0	2	24RD	0	1	1.75327587128	None	None	None	None	1
1.7	2015_Jul_20_0914	s	s	10	1	Capacity	86	RC	0	1	23RO	1	0	1.19981002808	-155.0	-70.0	-146	-61	1
1.7	2015_Jul_20_0914	s	s	10	1	Capacity	87	RC	0	2	23RD	1	0	0.976397037506	212.0	-129.0	220	-123	1
1.7	2015_Jul_20_0914	s	s	10	1	Capacity	88	ABS	0	1	24RO	0	1	5.28181409836	None	None	None	None	1
1.7	2015_Jul_20_0914	s	s	10	1	Capacity	89	ABS	0	1	24RO	0	1	5.25547790527	None	None	None	None	1
1.7	2015_Jul_20_0914	s	s	10	1	Capacity	90	ABS	0	2	24RD	0	1	2.85466599464	None	None	None	None	1
1.7	2015_Jul_20_0914	s	s	10	1	Capacity	91	RC	0	1	23RO	1	0	1.71782588959	245.0	-164.0	243	-167	1
1.7	2015_Jul_20_0914	s	s	10	1	Capacity	92	RC	0	2	23RD	1	0	0.740975856781	-140.0	51.0	-136	45	1
1.7	2015_Jul_20_0914	s	s	10	1	Capacity	1	ABS	1	0	24MC	0	1	9.92208099365	None	None	None	None	1
1.7	2015_Jul_20_0914	s	s	10	1	Capacity	2	RC	1	0	23MC	0	1	1.22978997231	106.0	-340.0	None	None	0
1.7	2015_Jul_20_0914	s	s	10	1	Capacity	3	ABS	2	0	24VC	0	1	5.97392582893	None	None	None	None	1
1.7	2015_Jul_20_0914	s	s	10	1	Capacity	4	RC	2	0	23VC	1	0	0.994721889496	-55.0	276.0	-64	276	1
1.7	2015_Jul_20_0914	s	s	10	1	Capacity	5	RC	1	0	23MC	0	1	10.6232848167	68.0	-257.0	None	None	0
1.7	2015_Jul_20_0914	s	s	10	1	Capacity	6	ABS	2	0	24VC	0	1	4.3269879818	None	None	None	None	1
1.7	2015_Jul_20_0914	s	s	10	1	Capacity	7	RC	2	0	23VC	1	0	1.31138491631	-48.0	166.0	-52	170	1
1.7	2015_Jul_20_0914	s	s	10	1	Capacity	8	ABS	1	0	24MC	0	1	7.64696407318	None	None	None	None	1
1.7	2015_Jul_20_0914	s	s	10	1	Capacity	9	RC	2	0	23VC	1	0	1.14106607437	-316.0	108.0	-320	110	1
1.7	2015_Jul_20_0914	s	s	10	1	Capacity	10	ABS	1	0	24MC	0	1	4.30749416351	None	None	None	None	1
1.7	2015_Jul_20_0914	s	s	10	1	Capacity	11	ABS	2	0	24VC	0	1	1.97216916084	None	None	None	None	1
1.7	2015_Jul_20_0914	s	s	10	1	Capacity	12	RC	1	0	23MC	0	1	9.95257592201	27.0	-342.0	None	None	0
1.7	2015_Jul_20_0914	s	s	10	1	Capacity	13	ABS	2	0	24VC	0	1	3.17157101631	None	None	None	None	1
1.7	2015_Jul_20_0914	s	s	10	1	Capacity	14	ABS	1	0	24MC	0	1	6.7948539257	None	None	None	None	1
1.7	2015_Jul_20_0914	s	s	10	1	Capacity	15	RC	2	0	23VC	1	0	1.00371789932	-96.0	59.0	-90	55	1
1.7	2015_Jul_20_0914	s	s	10	1	Capacity	16	RC	1	0	23MC	0	1	1.99575591087	167.0	181.0	None	None	0
1.7	2015_Jul_20_0914	s	s	10	1	Capacity	17	ABS	2	0	24VC	0	1	2.92787384987	None	None	None	None	1
1.7	2015_Jul_20_0914	s	s	10	1	Capacity	18	RC	1	0	23MC	0	1	9.65635895729	-57.0	-153.0	None	None	0
1.7	2015_Jul_20_0914	s	s	10	1	Capacity	19	ABS	1	0	24MC	0	1	8.26236319542	None	None	None	None	1
1.7	2015_Jul_20_0914	s	s	10	1	Capacity	20	RC	2	0	23VC	1	0	1.30586194992	-79.0	-326.0	-80	-323	1
1.7	2015_Jul_20_0914	s	s	10	1	Capacity	21	RC	2	0	23VC	1	0	0.917422056198	514.0	142.0	518	142	1
1.7	2015_Jul_20_0914	s	s	10	1	Capacity	22	RC	1	0	23MC	0	1	4.79911279678	-71.0	-373.0	None	None	0
1.7	2015_Jul_20_0914	s	s	10	1	Capacity	23	ABS	1	0	24MC	0	1	1.70320415497	None	None	None	None	1
1.7	2015_Jul_20_0914	s	s	10	1	Capacity	24	ABS	2	0	24VC	0	1	2.21921014786	None	None	None	None	1
1.7	2015_Jul_20_0914	s	s	10	1	Capacity	25	RC	2	0	23VC	1	0	1.42348003387	-499.0	-112.0	-494	-115	1
1.7	2015_Jul_20_0914	s	s	10	1	Capacity	26	ABS	1	0	24MC	0	1	1.27994513512	None	None	None	None	1
1.7	2015_Jul_20_0914	s	s	10	1	Capacity	27	RC	1	0	23MC	0	1	0.738144874573	-519.0	-30.0	None	None	0
1.7	2015_Jul_20_0914	s	s	10	1	Capacity	28	ABS	2	0	24VC	0	1	1.74140787125	None	None	None	None	1
1.7	2015_Jul_20_0914	s	s	10	1	Capacity	29	ABS	1	0	24MC	0	1	5.29613995552	None	None	None	None	1
1.7	2015_Jul_20_0914	s	s	10	1	Capacity	30	RC	1	0	23MC	0	1	5.10783600807	181.0	-83.0	None	None	0
1.7	2015_Jul_20_0914	s	s	10	1	Capacity	31	RC	2	0	23VC	1	0	1.4085149765	32.0	197.0	36	184	1
1.7	2015_Jul_20_0914	s	s	10	1	Capacity	32	ABS	2	0	24VC	0	1	8.7801721096	None	None	None	None	1
1.7	2015_Jul_20_0914	s	s	10	1	Capacity	33	ABS	2	0	24VC	0	1	3.94266915321	None	None	None	None	1
1.7	2015_Jul_20_0914	s	s	10	1	Capacity	34	ABS	1	0	24MC	0	1	1.96499991417	None	None	None	None	1
1.7	2015_Jul_20_0914	s	s	10	1	Capacity	35	RC	1	0	23MC	0	1	1.76500582695	-513.0	-51.0	None	None	0
1.7	2015_Jul_20_0914	s	s	10	1	Capacity	36	RC	2	0	23VC	1	0	1.52161097527	-253.0	-234.0	-247	-233	1
1.7	2015_Jul_20_0914	s	s	10	1	Capacity	37	ABS	2	0	24VC	0	1	3.91886496544	None	None	None	None	1
1.7	2015_Jul_20_0914	s	s	10	1	Capacity	38	ABS	1	0	24MC	0	1	6.09398913383	None	None	None	None	1
1.7	2015_Jul_20_0914	s	s	10	1	Capacity	39	RC	1	0	23MC	0	1	0.770403862	326.0	187.0	None	None	0
1.7	2015_Jul_20_0914	s	s	10	1	Capacity	40	RC	2	0	23VC	1	0	1.10564804077	-528.0	-336.0	-521	-338	1
1.7	2015_Jul_20_0914	s	s	10	1	Capacity	41	RC	1	0	23MC	0	1	4.177932024	127.0	-171.0	None	None	0
1.7	2015_Jul_20_0914	s	s	10	1	Capacity	42	ABS	2	0	24VC	0	1	3.30469298363	None	None	None	None	1
1.7	2015_Jul_20_0914	s	s	10	1	Capacity	43	ABS	1	0	24MC	0	1	10.2987139225	None	None	None	None	1
1.7	2015_Jul_20_0914	s	s	10	1	Capacity	44	RC	2	0	23VC	1	0	1.34745001793	-483.0	261.0	-479	255	1
1.7	2015_Jul_20_0914	s	s	10	1	Capacity	45	ABS	2	0	24VC	0	1	1.22358417511	None	None	None	None	1
1.7	2015_Jul_20_0914	s	s	10	1	Capacity	46	RC	2	0	23VC	1	0	1.0779299736	-69.0	221.0	-72	223	1
1.7	2015_Jul_20_0914	s	s	10	1	Capacity	47	ABS	1	0	24MC	0	1	0.843019962311	None	None	None	None	1
1.7	2015_Jul_20_0914	s	s	10	1	Capacity	48	RC	1	0	23MC	0	1	1.72701191902	-416.0	-370.0	None	None	0
1.7	2015_Jul_20_0914	s	s	10	1	Capacity	49	ABS	2	0	24VC	0	1	5.10782909393	None	None	None	None	1
1.7	2015_Jul_20_0914	s	s	10	1	Capacity	50	ABS	1	0	24MC	0	1	3.66880393028	None	None	None	None	1
1.7	2015_Jul_20_0914	s	s	10	1	Capacity	51	RC	2	0	23VC	1	0	0.925225019455	204.0	-233.0	207	-237	1
1.7	2015_Jul_20_0914	s	s	10	1	Capacity	52	RC	1	0	23MC	0	1	4.38738393784	-267.0	178.0	None	None	0
1.7	2015_Jul_20_0914	s	s	10	1	Capacity	53	RC	1	0	23MC	0	1	1.49427008629	61.0	-61.0	None	None	0
1.7	2015_Jul_20_0914	s	s	10	1	Capacity	54	RC	2	0	23VC	1	0	1.3294570446	-228.0	-86.0	-221	-83	1
1.7	2015_Jul_20_0914	s	s	10	1	Capacity	55	ABS	2	0	24VC	0	1	3.19536018372	None	None	None	None	1
1.7	2015_Jul_20_0914	s	s	10	1	Capacity	56	ABS	1	0	24MC	0	1	1.27752399445	None	None	None	None	1
1.7	2015_Jul_20_0914	s	s	10	1	Capacity	57	RC	2	0	23VC	1	0	0.902012109756	-21.0	0.0	-24	-5	1
1.7	2015_Jul_20_0914	s	s	10	1	Capacity	58	ABS	2	0	24VC	0	1	2.03339314461	None	None	None	None	1
1.7	2015_Jul_20_0914	s	s	10	1	Capacity	59	RC	1	0	23MC	0	1	0.850646972656	59.0	85.0	None	None	0
1.7	2015_Jul_20_0914	s	s	10	1	Capacity	60	ABS	1	0	24MC	0	1	2.00093507767	None	None	None	None	1
1.7	2015_Jul_20_0914	s	s	10	1	Capacity	61	ABS	2	0	24VC	0	1	1.63589882851	None	None	None	None	1
1.7	2015_Jul_20_0914	s	s	10	1	Capacity	62	RC	2	0	23VC	1	0	1.15666913986	-233.0	17.0	-223	17	1
1.7	2015_Jul_20_0914	s	s	10	1	Capacity	63	RC	1	0	23MC	0	1	4.13082885742	-353.0	-123.0	None	None	0
1.7	2015_Jul_20_0914	s	s	10	1	Capacity	64	ABS	1	0	24MC	0	1	7.03820681572	None	None	None	None	1
1.7	2015_Jul_20_0914	s	s	10	1	Capacity	65	RC	1	0	23MC	0	1	2.13707494736	-394.0	-296.0	None	None	0
1.7	2015_Jul_20_0914	s	s	10	1	Capacity	66	ABS	2	0	24VC	0	1	2.90237689018	None	None	None	None	1
1.7	2015_Jul_20_0914	s	s	10	1	Capacity	67	ABS	1	0	24MC	0	1	3.31341505051	None	None	None	None	1
1.7	2015_Jul_20_0914	s	s	10	1	Capacity	68	RC	2	0	23VC	1	0	1.27907299995	428.0	56.0	421	49	1
1.7	2015_Jul_20_0914	s	s	10	1	Capacity	69	RC	2	0	23VC	1	0	3.23638105392	278.0	122.0	270	117	1
1.7	2015_Jul_20_0914	s	s	10	1	Capacity	70	RC	1	0	23MC	0	1	1.67992377281	257.0	-305.0	None	None	0
1.7	2015_Jul_20_0914	s	s	10	1	Capacity	71	ABS	1	0	24MC	0	1	3.03613996506	None	None	None	None	1
1.7	2015_Jul_20_0914	s	s	10	1	Capacity	72	ABS	2	0	24VC	0	1	2.58891987801	None	None	None	None	1
1.7	2015_Jul_20_0914	s	s	10	1	Capacity	73	RC	1	0	23MC	0	1	1.32360100746	510.0	23.0	None	None	0
1.7	2015_Jul_20_0914	s	s	10	1	Capacity	74	ABS	2	0	24VC	0	1	1.78351688385	None	None	None	None	1
1.7	2015_Jul_20_0914	s	s	10	1	Capacity	75	RC	2	0	23VC	1	0	1.21176886559	179.0	265.0	187	262	1
1.7	2015_Jul_20_0914	s	s	10	1	Capacity	76	ABS	1	0	24MC	0	1	0.870374917984	None	None	None	None	1
1.7	2015_Jul_20_0914	s	s	10	1	Capacity	77	RC	1	0	23MC	0	1	1.15275597572	-219.0	-214.0	None	None	0
1.7	2015_Jul_20_0914	s	s	10	1	Capacity	78	ABS	2	0	24VC	0	1	2.0945250988	None	None	None	None	1
1.7	2015_Jul_20_0914	s	s	10	1	Capacity	79	RC	2	0	23VC	1	0	1.12144684792	-87.0	-131.0	-89	-137	1
1.7	2015_Jul_20_0914	s	s	10	1	Capacity	80	ABS	1	0	24MC	0	1	0.960021018982	None	None	None	None	1
1.7	2015_Jul_20_0914	s	s	10	1	Capacity	81	ABS	1	0	24MC	0	1	0.641869068146	None	None	None	None	1
1.7	2015_Jul_20_0914	s	s	10	1	Capacity	82	RC	2	0	23VC	1	0	0.917356014252	67.0	220.0	72	218	1
1.7	2015_Jul_20_0914	s	s	10	1	Capacity	83	ABS	2	0	24VC	0	1	1.71236920357	None	None	None	None	1
1.7	2015_Jul_20_0914	s	s	10	1	Capacity	84	RC	1	0	23MC	0	1	2.56536602974	104.0	170.0	None	None	0
1.7	2015_Jul_20_0914	s	s	10	1	Capacity	85	RC	2	0	23VC	1	0	0.84680891037	-133.0	309.0	-133	307	1
1.7	2015_Jul_20_0914	s	s	10	1	Capacity	86	RC	1	0	23MC	0	1	2.17207598686	127.0	-261.0	None	None	0
1.7	2015_Jul_20_0914	s	s	10	1	Capacity	87	ABS	1	0	24MC	0	1	1.82375192642	None	None	None	None	1
1.7	2015_Jul_20_0914	s	s	10	1	Capacity	88	ABS	2	0	24VC	0	1	13.0362181664	None	None	None	None	1
1.7	2015_Jul_20_0914	s	s	10	1	Capacity	89	RC	2	0	23VC	1	0	0.941036939621	-521.0	-401.0	-516	-404	1
1.7	2015_Jul_20_0914	s	s	10	1	Capacity	90	ABS	2	0	24VC	0	1	5.45587801933	None	None	None	None	1
1.7	2015_Jul_20_0914	s	s	10	1	Capacity	91	RC	1	0	23MC	0	1	5.63757395744	83.0	146.0	None	None	0
1.7	2015_Jul_20_0914	s	s	10	1	Capacity	92	ABS	1	0	24MC	0	1	1.92450809479	None	None	None	None	1
1.7	2015_Jul_20_0914	s	s	10	1	SIC	1	ABS	2	0	24VC	0	1	3.71361494064	None	None	None	None	1
1.7	2015_Jul_20_0914	s	s	10	1	SIC	2	RC	2	1	23VO	1	0	1.17403507233	-183.0	145.0	-184	137	1
1.7	2015_Jul_20_0914	s	s	10	1	SIC	3	RC	2	0	23VC	1	0	1.74859714508	-526.0	-192.0	-522	-190	1
1.7	2015_Jul_20_0914	s	s	10	1	SIC	4	ABS	0	1	24RO	0	1	13.0882370472	None	None	None	None	1
1.7	2015_Jul_20_0914	s	s	10	1	SIC	5	RC	0	1	23RO	1	0	5.40840101242	-1.0	-275.0	-4	-274	1
1.7	2015_Jul_20_0914	s	s	10	1	SIC	6	RC	2	2	23VD	1	0	0.870294809341	454.0	-195.0	455	-198	1
1.7	2015_Jul_20_0914	s	s	10	1	SIC	7	RC	1	1	23MO	1	0	2.80777311325	461.0	-70.0	459	-72	1
1.7	2015_Jul_20_0914	s	s	10	1	SIC	8	ABS	2	1	24VO	0	1	5.29600191116	None	None	None	None	1
1.7	2015_Jul_20_0914	s	s	10	1	SIC	9	RC	1	2	23MD	1	0	1.41185092926	178.0	364.0	176	367	1
1.7	2015_Jul_20_0914	s	s	10	1	SIC	10	ABS	0	2	24RD	0	1	4.38725399971	None	None	None	None	1
1.7	2015_Jul_20_0914	s	s	10	1	SIC	11	ABS	1	0	24MC	1	0	3.57754015923	None	None	-39	46	0
1.7	2015_Jul_20_0914	s	s	10	1	SIC	12	RC	0	2	23RD	1	0	1.21176099777	174.0	275.0	179	272	1
1.7	2015_Jul_20_0914	s	s	10	1	SIC	13	ABS	1	2	24MD	0	1	6.74095392227	None	None	None	None	1
1.7	2015_Jul_20_0914	s	s	10	1	SIC	14	RC	1	0	23MC	0	1	17.2260229588	522.0	-101.0	None	None	0
1.7	2015_Jul_20_0914	s	s	10	1	SIC	15	ABS	2	2	24VD	0	1	1.52548384666	None	None	None	None	1
1.7	2015_Jul_20_0914	s	s	10	1	SIC	16	ABS	1	1	24MO	0	1	12.7587771416	None	None	None	None	1
1.7	2015_Jul_20_0914	s	s	10	1	SIC	17	ABS	0	2	24RD	0	1	4.14258098602	None	None	None	None	1
1.7	2015_Jul_20_0914	s	s	10	1	SIC	18	RC	1	1	23MO	1	0	1.56478786469	17.0	249.0	13	249	1
1.7	2015_Jul_20_0914	s	s	10	1	SIC	19	RC	1	2	23MD	1	0	1.13610911369	-305.0	-74.0	-305	-74	1
1.7	2015_Jul_20_0914	s	s	10	1	SIC	20	RC	0	1	23RO	1	0	3.2009370327	347.0	405.0	348	404	1
1.7	2015_Jul_20_0914	s	s	10	1	SIC	21	ABS	1	1	24MO	0	1	11.4118449688	None	None	None	None	1
1.7	2015_Jul_20_0914	s	s	10	1	SIC	22	RC	2	0	23VC	1	0	0.940968990326	11.0	-218.0	11	-216	1
1.7	2015_Jul_20_0914	s	s	10	1	SIC	23	RC	2	2	23VD	1	0	0.823215961456	-424.0	232.0	-422	229	1
1.7	2015_Jul_20_0914	s	s	10	1	SIC	24	ABS	1	2	24MD	0	1	4.68119597435	None	None	None	None	1
1.7	2015_Jul_20_0914	s	s	10	1	SIC	25	ABS	2	0	24VC	0	1	3.09489202499	None	None	None	None	1
1.7	2015_Jul_20_0914	s	s	10	1	SIC	26	ABS	0	1	24RO	0	1	8.24555397034	None	None	None	None	1
1.7	2015_Jul_20_0914	s	s	10	1	SIC	27	ABS	2	1	24VO	0	1	1.84177899361	None	None	None	None	1
1.7	2015_Jul_20_0914	s	s	10	1	SIC	28	RC	0	2	23RD	1	0	1.38340401649	52.0	-369.0	55	-367	1
1.7	2015_Jul_20_0914	s	s	10	1	SIC	29	RC	2	1	23VO	1	0	2.60984516144	-444.0	278.0	-441	270	1
1.7	2015_Jul_20_0914	s	s	10	1	SIC	30	RC	1	0	23MC	1	0	5.45561313629	-499.0	120.0	-496	122	1
1.7	2015_Jul_20_0914	s	s	10	1	SIC	31	ABS	2	2	24VD	0	1	1.22344994545	None	None	None	None	1
1.7	2015_Jul_20_0914	s	s	10	1	SIC	32	ABS	1	0	24MC	0	1	5.84433293343	None	None	None	None	1
1.7	2015_Jul_20_0914	s	s	10	1	SIC	33	ABS	2	1	24VO	0	1	1.57669687271	None	None	None	None	1
1.7	2015_Jul_20_0914	s	s	10	1	SIC	34	ABS	1	1	24MO	0	1	6.98673701286	None	None	None	None	1
1.7	2015_Jul_20_0914	s	s	10	1	SIC	35	RC	1	1	23MO	1	0	2.76157021523	244.0	-24.0	253	-19	1
1.7	2015_Jul_20_0914	s	s	10	1	SIC	36	RC	2	0	23VC	1	0	1.19986391068	524.0	271.0	525	270	1
1.7	2015_Jul_20_0914	s	s	10	1	SIC	37	RC	0	1	23RO	0	1	13.1776111126	-400.0	-398.0	None	None	0
1.7	2015_Jul_20_0914	s	s	10	1	SIC	38	ABS	0	2	24RD	0	1	10.838203907	None	None	None	None	1
1.7	2015_Jul_20_0914	s	s	10	1	SIC	39	ABS	1	0	24MC	0	1	19.9744958878	None	None	None	None	1
1.7	2015_Jul_20_0914	s	s	10	1	SIC	40	RC	2	2	23VD	1	0	0.752692937851	419.0	-81.0	427	-78	1
1.7	2015_Jul_20_0914	s	s	10	1	SIC	41	RC	1	2	23MD	1	0	0.902527093887	154.0	322.0	148	321	1
1.7	2015_Jul_20_0914	s	s	10	1	SIC	42	ABS	0	1	24RO	0	1	8.07030200958	None	None	None	None	1
1.7	2015_Jul_20_0914	s	s	10	1	SIC	43	RC	1	0	23MC	1	0	10.952878952	-524.0	-63.0	-519	-62	1
1.7	2015_Jul_20_0914	s	s	10	1	SIC	44	ABS	1	2	24MD	0	1	6.02590298653	None	None	None	None	1
1.7	2015_Jul_20_0914	s	s	10	1	SIC	45	RC	2	1	23VO	1	0	0.806612014771	-326.0	-111.0	-327	-107	1
1.7	2015_Jul_20_0914	s	s	10	1	SIC	46	ABS	2	0	24VC	0	1	2.63108587265	None	None	None	None	1
1.7	2015_Jul_20_0914	s	s	10	1	SIC	47	ABS	2	2	24VD	0	1	2.44336009026	None	None	None	None	1
1.7	2015_Jul_20_0914	s	s	10	1	SIC	48	RC	0	2	23RD	1	0	1.26835894585	-377.0	-145.0	-380	-144	1
1.7	2015_Jul_20_0914	s	s	10	1	SIC	49	ABS	0	1	24RO	0	1	12.9089150429	None	None	None	None	1
1.7	2015_Jul_20_0914	s	s	10	1	SIC	50	RC	2	0	23VC	1	0	1.28226494789	170.0	159.0	173	155	1
1.7	2015_Jul_20_0914	s	s	10	1	SIC	51	ABS	1	0	24MC	0	1	7.62170886993	None	None	None	None	1
1.7	2015_Jul_20_0914	s	s	10	1	SIC	52	ABS	2	0	24VC	0	1	1.92731189728	None	None	None	None	1
1.7	2015_Jul_20_0914	s	s	10	1	SIC	53	ABS	0	2	24RD	0	1	3.43639397621	None	None	None	None	1
1.7	2015_Jul_20_0914	s	s	10	1	SIC	54	RC	1	1	23MO	1	0	4.2367811203	428.0	9.0	425	2	1
1.7	2015_Jul_20_0914	s	s	10	1	SIC	55	RC	0	1	23RO	0	1	8.3633389473	193.0	-183.0	None	None	0
1.7	2015_Jul_20_0914	s	s	10	1	SIC	56	ABS	1	2	24MD	0	1	2.10191583633	None	None	None	None	1
1.7	2015_Jul_20_0914	s	s	10	1	SIC	57	ABS	2	2	24VD	0	1	1.35300111771	None	None	None	None	1
1.7	2015_Jul_20_0914	s	s	10	1	SIC	58	RC	1	0	23MC	1	0	8.73357796669	-345.0	-216.0	-340	-218	1
1.7	2015_Jul_20_0914	s	s	10	1	SIC	59	RC	2	1	23VO	1	0	1.68938112259	-74.0	-348.0	-80	-353	1
1.7	2015_Jul_20_0914	s	s	10	1	SIC	60	ABS	2	1	24VO	0	1	2.39573502541	None	None	None	None	1
1.7	2015_Jul_20_0914	s	s	10	1	SIC	61	RC	0	2	23RD	1	0	1.00591206551	-214.0	-326.0	-215	-334	1
1.7	2015_Jul_20_0914	s	s	10	1	SIC	62	RC	1	2	23MD	1	0	1.04219412804	507.0	-310.0	508	-312	1
1.7	2015_Jul_20_0914	s	s	10	1	SIC	63	RC	2	2	23VD	1	0	0.772270917892	120.0	183.0	123	180	1
1.7	2015_Jul_20_0914	s	s	10	1	SIC	64	ABS	1	1	24MO	0	1	8.3985080719	None	None	None	None	1
1.7	2015_Jul_20_0914	s	s	10	1	SIC	65	ABS	1	1	24MO	0	1	11.8115129471	None	None	None	None	1
1.7	2015_Jul_20_0914	s	s	10	1	SIC	66	ABS	1	2	24MD	0	1	3.38931298256	None	None	None	None	1
1.7	2015_Jul_20_0914	s	s	10	1	SIC	67	RC	2	1	23VO	1	0	1.03224492073	0.0	-208.0	1	-215	1
1.7	2015_Jul_20_0914	s	s	10	1	SIC	68	ABS	0	2	24RD	0	1	3.337059021	None	None	None	None	1
1.7	2015_Jul_20_0914	s	s	10	1	SIC	69	RC	0	1	23RO	1	0	5.70479607582	-356.0	378.0	-359	379	1
1.7	2015_Jul_20_0914	s	s	10	1	SIC	70	ABS	2	2	24VD	0	1	1.61192703247	None	None	None	None	1
1.7	2015_Jul_20_0914	s	s	10	1	SIC	71	RC	2	2	23VD	1	0	0.96457195282	449.0	-158.0	446	-149	1
1.7	2015_Jul_20_0914	s	s	10	1	SIC	72	ABS	2	1	24VO	0	1	3.60781407356	None	None	None	None	1
1.7	2015_Jul_20_0914	s	s	10	1	SIC	73	RC	2	0	23VC	1	0	0.844408035278	-311.0	-278.0	-301	-277	1
1.7	2015_Jul_20_0914	s	s	10	1	SIC	74	RC	1	1	23MO	1	0	1.8355910778	16.0	-287.0	17	-286	1
1.7	2015_Jul_20_0914	s	s	10	1	SIC	75	RC	1	0	23MC	0	1	19.9450881481	312.0	-194.0	None	None	0
1.7	2015_Jul_20_0914	s	s	10	1	SIC	76	RC	0	2	23RD	1	0	0.949631929398	204.0	-333.0	205	-336	1
1.7	2015_Jul_20_0914	s	s	10	1	SIC	77	ABS	0	1	24RO	0	1	7.10887289047	None	None	None	None	1
1.7	2015_Jul_20_0914	s	s	10	1	SIC	78	RC	1	2	23MD	1	0	0.862323045731	211.0	-326.0	211	-318	1
1.7	2015_Jul_20_0914	s	s	10	1	SIC	79	ABS	1	0	24MC	0	1	6.10493707657	None	None	None	None	1
1.7	2015_Jul_20_0914	s	s	10	1	SIC	80	ABS	2	0	24VC	0	1	1.16846108437	None	None	None	None	1
1.7	2015_Jul_20_0914	s	s	10	1	SIC	81	RC	1	0	23MC	0	1	14.4302048683	-188.0	347.0	None	None	0
1.7	2015_Jul_20_0914	s	s	10	1	SIC	82	RC	2	0	23VC	1	0	0.879721879959	-400.0	-400.0	-404	-407	1
1.7	2015_Jul_20_0914	s	s	10	1	SIC	83	ABS	1	0	24MC	0	1	19.5101408958	None	None	None	None	1
1.7	2015_Jul_20_0914	s	s	10	1	SIC	84	ABS	1	1	24MO	0	1	9.05798816681	None	None	None	None	1
1.7	2015_Jul_20_0914	s	s	10	1	SIC	85	ABS	0	2	24RD	0	1	1.92608213425	None	None	None	None	1
1.7	2015_Jul_20_0914	s	s	10	1	SIC	86	RC	0	1	23RO	1	0	2.77151799202	34.0	-60.0	34	-61	1
1.7	2015_Jul_20_0914	s	s	10	1	SIC	87	ABS	2	0	24VC	0	1	2.1806409359	None	None	None	None	1
1.7	2015_Jul_20_0914	s	s	10	1	SIC	88	ABS	0	1	24RO	0	1	7.50895285606	None	None	None	None	1
1.7	2015_Jul_20_0914	s	s	10	1	SIC	89	ABS	2	2	24VD	0	1	1.36154198647	None	None	None	None	1
1.7	2015_Jul_20_0914	s	s	10	1	SIC	90	RC	2	2	23VD	1	0	1.17124295235	348.0	134.0	347	131	1
1.7	2015_Jul_20_0914	s	s	10	1	SIC	91	ABS	1	2	24MD	0	1	3.42463088036	None	None	None	None	1
1.7	2015_Jul_20_0914	s	s	10	1	SIC	92	ABS	2	1	24VO	0	1	2.56540799141	None	None	None	None	1
1.7	2015_Jul_20_0914	s	s	10	1	SIC	93	RC	2	1	23VO	1	0	0.970676898956	288.0	-183.0	298	-185	1
1.7	2015_Jul_20_0914	s	s	10	1	SIC	94	RC	1	2	23MD	1	0	0.973453998566	212.0	-248.0	215	-256	1
1.7	2015_Jul_20_0914	s	s	10	1	SIC	95	RC	1	1	23MO	1	0	1.60006809235	-47.0	-108.0	-44	-113	1
1.7	2015_Jul_20_0914	s	s	10	1	SIC	96	RC	0	2	23RD	1	0	0.823278903961	-250.0	96.0	-245	96	1
1.7	2015_Jul_20_0914	s	s	10	1	SIC	97	RC	2	1	23VO	1	0	0.799779891968	276.0	368.0	277	363	1
1.7	2015_Jul_20_0914	s	s	10	1	SIC	98	RC	1	0	23MC	0	1	3.1420841217	147.0	150.0	None	None	0
1.7	2015_Jul_20_0914	s	s	10	1	SIC	99	ABS	1	1	24MO	0	1	10.7893788815	None	None	None	None	1
1.7	2015_Jul_20_0914	s	s	10	1	SIC	100	ABS	2	1	24VO	0	1	2.3983259201	None	None	None	None	1
1.7	2015_Jul_20_0914	s	s	10	1	SIC	101	ABS	2	2	24VD	0	1	1.63249707222	None	None	None	None	1
1.7	2015_Jul_20_0914	s	s	10	1	SIC	102	RC	1	1	23MO	1	0	7.76802396774	-424.0	385.0	-423	382	1
1.7	2015_Jul_20_0914	s	s	10	1	SIC	103	ABS	0	1	24RO	0	1	9.23469090462	None	None	None	None	1
1.7	2015_Jul_20_0914	s	s	10	1	SIC	104	ABS	1	2	24MD	0	1	3.28103995323	None	None	None	None	1
1.7	2015_Jul_20_0914	s	s	10	1	SIC	105	ABS	2	0	24VC	0	1	1.97710680962	None	None	None	None	1
1.7	2015_Jul_20_0914	s	s	10	1	SIC	106	RC	2	0	23VC	1	0	0.8440990448	532.0	102.0	529	102	1
1.7	2015_Jul_20_0914	s	s	10	1	SIC	107	RC	0	1	23RO	1	0	6.41439008713	374.0	393.0	376	392	1
1.7	2015_Jul_20_0914	s	s	10	1	SIC	108	RC	0	2	23RD	1	0	0.685786962509	-40.0	78.0	-36	71	1
1.7	2015_Jul_20_0914	s	s	10	1	SIC	109	RC	1	2	23MD	1	0	0.841192007065	72.0	-194.0	71	-200	1
1.7	2015_Jul_20_0914	s	s	10	1	SIC	110	RC	2	2	23VD	1	0	0.764943122864	21.0	-228.0	27	-229	1
1.7	2015_Jul_20_0914	s	s	10	1	SIC	111	ABS	0	2	24RD	0	1	3.62847495079	None	None	None	None	1
1.7	2015_Jul_20_0914	s	s	10	1	SIC	112	ABS	1	0	24MC	0	1	6.23773980141	None	None	None	None	1
1.7	2015_Jul_20_0914	s	s	10	1	SIC	113	ABS	0	1	24RO	1	0	8.89791297913	None	None	478	-400	0
1.7	2015_Jul_20_0914	s	s	10	1	SIC	114	ABS	0	2	24RD	0	1	5.70808506012	None	None	None	None	1
1.7	2015_Jul_20_0914	s	s	10	1	SIC	115	ABS	2	2	24VD	0	1	1.20695400238	None	None	None	None	1
1.7	2015_Jul_20_0914	s	s	10	1	SIC	116	RC	0	2	23RD	1	0	1.23193788528	47.0	-85.0	47	-82	1
1.7	2015_Jul_20_0914	s	s	10	1	SIC	117	ABS	2	0	24VC	0	1	1.20900607109	None	None	None	None	1
1.7	2015_Jul_20_0914	s	s	10	1	SIC	118	ABS	1	0	24MC	1	0	12.9748950005	None	None	-361	-33	0
1.7	2015_Jul_20_0914	s	s	10	1	SIC	119	RC	2	1	23VO	1	0	1.94161605835	143.0	314.0	145	319	1
1.7	2015_Jul_20_0914	s	s	10	1	SIC	120	RC	1	2	23MD	1	0	0.726418972015	249.0	-346.0	260	-343	1
1.7	2015_Jul_20_0914	s	s	10	1	SIC	121	RC	2	2	23VD	1	0	1.67079496384	462.0	150.0	464	141	1
1.7	2015_Jul_20_0914	s	s	10	1	SIC	122	ABS	1	1	24MO	0	1	8.1858420372	None	None	None	None	1
1.7	2015_Jul_20_0914	s	s	10	1	SIC	123	RC	1	0	23MC	0	1	6.4377720356	286.0	406.0	None	None	0
1.7	2015_Jul_20_0914	s	s	10	1	SIC	124	RC	0	1	23RO	1	0	6.87937808037	-537.0	360.0	-533	363	1
1.7	2015_Jul_20_0914	s	s	10	1	SIC	125	ABS	2	1	24VO	0	1	3.31860899925	None	None	None	None	1
1.7	2015_Jul_20_0914	s	s	10	1	SIC	126	RC	2	0	23VC	1	0	1.0082051754	-239.0	-300.0	-232	-305	1
1.7	2015_Jul_20_0914	s	s	10	1	SIC	127	ABS	1	2	24MD	0	1	2.82129979134	None	None	None	None	1
1.7	2015_Jul_20_0914	s	s	10	1	SIC	128	RC	1	1	23MO	1	0	2.36277699471	-271.0	-28.0	-272	-34	1
1.7	2015_Jul_20_0914	s	s	10	1	SIC	129	RC	2	1	23VO	1	0	2.04114603996	-188.0	180.0	-185	180	1
1.7	2015_Jul_20_0914	s	s	10	1	SIC	130	RC	1	2	23MD	1	0	0.70561003685	335.0	-278.0	333	-280	1
1.7	2015_Jul_20_0914	s	s	10	1	SIC	131	RC	1	0	23MC	0	1	4.26786398888	-382.0	297.0	None	None	0
1.7	2015_Jul_20_0914	s	s	10	1	SIC	132	ABS	1	1	24MO	0	1	17.1791331768	None	None	None	None	1
1.7	2015_Jul_20_0914	s	s	10	1	SIC	133	RC	2	2	23VD	1	0	1.01176810265	-343.0	367.0	-346	365	1
1.7	2015_Jul_20_0914	s	s	10	1	SIC	134	ABS	2	0	24VC	0	1	1.49088811874	None	None	None	None	1
1.7	2015_Jul_20_0914	s	s	10	1	SIC	135	ABS	0	1	24RO	0	1	8.93318510056	None	None	None	None	1
1.7	2015_Jul_20_0914	s	s	10	1	SIC	136	RC	2	0	23VC	1	0	0.832110881805	-429.0	-341.0	-433	-350	1
1.7	2015_Jul_20_0914	s	s	10	1	SIC	137	ABS	1	0	24MC	0	1	12.2877719402	None	None	None	None	1
1.7	2015_Jul_20_0914	s	s	10	1	SIC	138	RC	1	1	23MO	1	0	4.34019088745	429.0	102.0	426	99	1
1.7	2015_Jul_20_0914	s	s	10	1	SIC	139	ABS	0	2	24RD	0	1	1.6886651516	None	None	None	None	1
1.7	2015_Jul_20_0914	s	s	10	1	SIC	140	RC	0	2	23RD	1	0	0.773195981979	117.0	-42.0	118	-39	1
1.7	2015_Jul_20_0914	s	s	10	1	SIC	141	ABS	1	2	24MD	0	1	2.22103285789	None	None	None	None	1
1.7	2015_Jul_20_0914	s	s	10	1	SIC	142	ABS	2	1	24VO	0	1	2.53014206886	None	None	None	None	1
1.7	2015_Jul_20_0914	s	s	10	1	SIC	143	RC	0	1	23RO	0	1	7.94961094856	-420.0	166.0	None	None	0
1.7	2015_Jul_20_0914	s	s	10	1	SIC	144	ABS	2	2	24VD	0	1	1.85928606987	None	None	None	None	1
1.7	2015_Jul_20_0914	s	s	10	1	SIC	145	RC	1	2	23MD	1	0	0.807913064957	-108.0	-34.0	-107	-37	1
1.7	2015_Jul_20_0914	s	s	10	1	SIC	146	ABS	2	1	24VO	0	1	1.78562092781	None	None	None	None	1
1.7	2015_Jul_20_0914	s	s	10	1	SIC	147	ABS	0	2	24RD	0	1	1.66513895988	None	None	None	None	1
1.7	2015_Jul_20_0914	s	s	10	1	SIC	148	RC	2	1	23VO	1	0	1.16265916824	438.0	77.0	448	79	1
1.7	2015_Jul_20_0914	s	s	10	1	SIC	149	ABS	0	1	24RO	0	1	11.2639260292	None	None	None	None	1
1.7	2015_Jul_20_0914	s	s	10	1	SIC	150	ABS	1	0	24MC	0	1	12.5470890999	None	None	None	None	1
1.7	2015_Jul_20_0914	s	s	10	1	SIC	151	RC	1	0	23MC	0	0	-1	-320.0	-246.0	None	None	-1
1.7	2015_Jul_20_0914	s	s	10	1	SIC	152	RC	0	2	23RD	1	0	0.935166120529	-315.0	154.0	-315	157	1
1.7	2015_Jul_20_0914	s	s	10	1	SIC	153	ABS	2	2	24VD	0	1	1.08232212067	None	None	None	None	1
1.7	2015_Jul_20_0914	s	s	10	1	SIC	154	RC	2	2	23VD	1	0	0.793782949448	499.0	345.0	496	341	1
1.7	2015_Jul_20_0914	s	s	10	1	SIC	155	ABS	1	1	24MO	0	1	10.1458230019	None	None	None	None	1
1.7	2015_Jul_20_0914	s	s	10	1	SIC	156	RC	2	0	23VC	1	0	0.711079120636	-266.0	65.0	-267	62	1
1.7	2015_Jul_20_0914	s	s	10	1	SIC	157	RC	0	1	23RO	1	0	4.22499895096	246.0	247.0	245	255	1
1.7	2015_Jul_20_0914	s	s	10	1	SIC	158	ABS	1	2	24MD	0	1	3.85199308395	None	None	None	None	1
1.7	2015_Jul_20_0914	s	s	10	1	SIC	159	RC	1	1	23MO	1	0	2.72437500954	-343.0	-392.0	-340	-392	1
1.7	2015_Jul_20_0914	s	s	10	1	SIC	160	ABS	2	0	24VC	0	1	1.64719605446	None	None	None	None	1
1.7	2015_Jul_20_0914	s	s	10	1	SIC	161	RC	2	2	23VD	1	0	0.724663972855	-8.0	219.0	-10	216	1
1.7	2015_Jul_20_0914	s	s	10	1	SIC	162	ABS	1	2	24MD	0	1	2.9538359642	None	None	None	None	1
1.7	2015_Jul_20_0914	s	s	10	1	SIC	163	ABS	0	2	24RD	0	1	3.3892531395	None	None	None	None	1
1.7	2015_Jul_20_0914	s	s	10	1	SIC	164	RC	0	2	23RD	1	0	2.1151509285	421.0	182.0	420	176	1
1.7	2015_Jul_20_0914	s	s	10	1	SIC	165	ABS	1	1	24MO	0	1	13.5922141075	None	None	None	None	1
1.7	2015_Jul_20_0914	s	s	10	1	SIC	166	RC	0	1	23RO	1	0	7.89485812187	-373.0	-124.0	-378	-126	1
1.7	2015_Jul_20_0914	s	s	10	1	SIC	167	ABS	0	1	24RO	0	1	17.2549579144	None	None	None	None	1
1.7	2015_Jul_20_0914	s	s	10	1	SIC	168	RC	1	2	23MD	1	0	0.879065990448	-186.0	223.0	-193	227	1
1.7	2015_Jul_20_0914	s	s	10	1	SIC	169	RC	1	1	23MO	1	0	1.71328401566	-172.0	71.0	-175	70	1
1.7	2015_Jul_20_0914	s	s	10	1	SIC	170	RC	1	0	23MC	0	0	-1	-322.0	-371.0	None	None	-1
1.7	2015_Jul_20_0914	s	s	10	1	SIC	171	ABS	1	0	24MC	0	1	8.36340093613	None	None	None	None	1
1.7	2015_Jul_20_0914	s	s	10	1	SIC	172	RC	2	0	23VC	1	0	0.78543305397	-532.0	285.0	-539	288	1
1.7	2015_Jul_20_0914	s	s	10	1	SIC	173	ABS	2	1	24VO	0	1	1.71793603897	None	None	None	None	1
1.7	2015_Jul_20_0914	s	s	10	1	SIC	174	ABS	2	2	24VD	0	1	0.876811981201	None	None	None	None	1
1.7	2015_Jul_20_0914	s	s	10	1	SIC	175	ABS	2	0	24VC	0	1	2.11500501633	None	None	None	None	1
1.7	2015_Jul_20_0914	s	s	10	1	SIC	176	RC	2	1	23VO	1	0	0.953180789948	295.0	-89.0	304	-86	1
1.7	2015_Jul_20_0914	s	s	10	1	SIC	177	RC	0	1	23RO	1	0	3.25982403755	-180.0	5.0	-186	6	1
1.7	2015_Jul_20_0914	s	s	10	1	SIC	178	RC	0	2	23RD	1	0	0.929238080978	447.0	-222.0	446	-227	1
1.7	2015_Jul_20_0914	s	s	10	1	SIC	179	RC	1	1	23MO	1	0	3.07149982452	110.0	-344.0	116	-345	1
1.7	2015_Jul_20_0914	s	s	10	1	SIC	180	ABS	0	1	24RO	0	1	10.4639899731	None	None	None	None	1
1.7	2015_Jul_20_0914	s	s	10	1	SIC	181	RC	2	2	23VD	1	0	0.893925905228	-473.0	261.0	-470	255	1
1.7	2015_Jul_20_0914	s	s	10	1	SIC	182	ABS	1	2	24MD	0	1	3.33708310127	None	None	None	None	1
1.7	2015_Jul_20_0914	s	s	10	1	SIC	183	ABS	0	2	24RD	0	1	1.58839607239	None	None	None	None	1
1.7	2015_Jul_20_0914	s	s	10	1	SIC	184	ABS	1	1	24MO	0	1	12.4242601395	None	None	None	None	1
1.7	2015_Jul_20_0914	s	s	10	1	SIC	185	RC	2	1	23VO	1	0	0.785068035126	518.0	-201.0	522	-199	1
1.7	2015_Jul_20_0914	s	s	10	1	SIC	186	ABS	2	0	24VC	0	1	1.67886900902	None	None	None	None	1
1.7	2015_Jul_20_0914	s	s	10	1	SIC	187	ABS	2	1	24VO	0	1	1.80710697174	None	None	None	None	1
1.7	2015_Jul_20_0914	s	s	10	1	SIC	188	RC	1	2	23MD	1	0	0.858670949936	114.0	281.0	114	285	1
1.7	2015_Jul_20_0914	s	s	10	1	SIC	189	RC	2	0	23VC	1	0	1.4321269989	257.0	-324.0	266	-323	1
1.7	2015_Jul_20_0914	s	s	10	1	SIC	190	ABS	1	0	24MC	0	1	5.93175601959	None	None	None	None	1
1.7	2015_Jul_20_0914	s	s	10	1	SIC	191	ABS	2	2	24VD	0	1	1.24234485626	None	None	None	None	1
1.7	2015_Jul_20_0914	s	s	10	1	SIC	192	RC	1	0	23MC	0	0	-1	-116.0	-110.0	None	None	-1
1.7	2015_Jul_20_0914	s	s	10	1	SIC	193	RC	2	2	23VD	1	0	1.52149796486	-88.0	-11.0	-85	-11	1
1.7	2015_Jul_20_0914	s	s	10	1	SIC	194	ABS	0	2	24RD	0	1	2.14915895462	None	None	None	None	1
1.7	2015_Jul_20_0914	s	s	10	1	SIC	195	RC	2	0	23VC	1	0	0.717415094376	457.0	-65.0	457	-60	1
1.7	2015_Jul_20_0914	s	s	10	1	SIC	196	ABS	0	1	24RO	0	1	12.4526159763	None	None	None	None	1
1.7	2015_Jul_20_0914	s	s	10	1	SIC	197	RC	1	2	23MD	1	0	0.970731019974	61.0	290.0	55	287	1
1.7	2015_Jul_20_0914	s	s	10	1	SIC	198	RC	1	0	23MC	0	1	6.30544519424	434.0	196.0	None	None	0
1.7	2015_Jul_20_0914	s	s	10	1	SIC	199	RC	1	1	23MO	1	0	2.20868206024	313.0	128.0	317	127	1
1.7	2015_Jul_20_0914	s	s	10	1	SIC	200	ABS	1	2	24MD	0	1	5.60871315002	None	None	None	None	1
1.7	2015_Jul_20_0914	s	s	10	1	SIC	201	ABS	2	2	24VD	0	1	1.63545417786	None	None	None	None	1
1.7	2015_Jul_20_0914	s	s	10	1	SIC	202	ABS	1	1	24MO	0	1	9.96353697777	None	None	None	None	1
1.7	2015_Jul_20_0914	s	s	10	1	SIC	203	ABS	1	0	24MC	0	1	12.3182020187	None	None	None	None	1
1.7	2015_Jul_20_0914	s	s	10	1	SIC	204	ABS	2	1	24VO	0	1	1.00589489937	None	None	None	None	1
1.7	2015_Jul_20_0914	s	s	10	1	SIC	205	RC	0	2	23RD	1	0	1.31750798225	318.0	221.0	326	218	1
1.7	2015_Jul_20_0914	s	s	10	1	SIC	206	RC	0	1	23RO	1	0	2.99335193634	365.0	-169.0	359	-169	1
1.7	2015_Jul_20_0914	s	s	10	1	SIC	207	RC	2	1	23VO	1	0	1.80645704269	-35.0	-20.0	-29	-18	1
1.7	2015_Jul_20_0914	s	s	10	1	SIC	208	ABS	2	0	24VC	0	1	3.10167002678	None	None	None	None	1
1.7	2015_Jul_20_0914	s	s	10	1	SIC	209	RC	1	2	23MD	1	0	0.94474697113	533.0	245.0	523	248	1
1.7	2015_Jul_20_0914	s	s	10	1	SIC	210	RC	0	1	23RO	1	0	3.74848604202	516.0	-99.0	513	-99	1
1.7	2015_Jul_20_0914	s	s	10	1	SIC	211	RC	2	1	23VO	1	0	0.77623295784	47.0	150.0	52	148	1
1.7	2015_Jul_20_0914	s	s	10	1	SIC	212	ABS	2	1	24VO	0	1	2.13960003853	None	None	None	None	1
1.7	2015_Jul_20_0914	s	s	10	1	SIC	213	ABS	0	1	24RO	0	1	1.73567986488	None	None	None	None	1
1.7	2015_Jul_20_0914	s	s	10	1	SIC	214	ABS	1	0	24MC	0	1	3.91676092148	None	None	None	None	1
1.7	2015_Jul_20_0914	s	s	10	1	SIC	215	RC	2	2	23VD	1	0	0.929278850555	458.0	-351.0	449	-344	1
1.7	2015_Jul_20_0914	s	s	10	1	SIC	216	ABS	0	2	24RD	0	1	2.76592803001	None	None	None	None	1
1.7	2015_Jul_20_0914	s	s	10	1	SIC	217	ABS	1	2	24MD	0	1	2.71839499474	None	None	None	None	1
1.7	2015_Jul_20_0914	s	s	10	1	SIC	218	ABS	2	2	24VD	0	1	1.04087281227	None	None	None	None	1
1.7	2015_Jul_20_0914	s	s	10	1	SIC	219	ABS	2	0	24VC	0	1	1.3835568428	None	None	None	None	1
1.7	2015_Jul_20_0914	s	s	10	1	SIC	220	ABS	1	1	24MO	0	1	16.1957111359	None	None	None	None	1
1.7	2015_Jul_20_0914	s	s	10	1	SIC	221	RC	1	0	23MC	0	1	12.6447911263	-469.0	296.0	None	None	0
1.7	2015_Jul_20_0914	s	s	10	1	SIC	222	RC	2	0	23VC	1	0	0.794708013535	-18.0	212.0	-11	210	1
1.7	2015_Jul_20_0914	s	s	10	1	SIC	223	RC	0	2	23RD	1	0	1.16461920738	-236.0	-73.0	-235	-80	1
1.7	2015_Jul_20_0914	s	s	10	1	SIC	224	RC	1	1	23MO	1	0	2.32994604111	356.0	-378.0	362	-377	1
1.7	2015_Jul_20_0914	s	s	10	1	SIC	225	ABS	2	1	24VO	0	1	1.95325493813	None	None	None	None	1
1.7	2015_Jul_20_0914	s	s	10	1	SIC	226	RC	0	2	23RD	1	0	0.794800043106	-474.0	-131.0	-473	-125	1
1.7	2015_Jul_20_0914	s	s	10	1	SIC	227	RC	1	2	23MD	1	0	1.24327087402	-504.0	-345.0	-504	-350	1
1.7	2015_Jul_20_0914	s	s	10	1	SIC	228	ABS	2	2	24VD	0	1	0.877241849899	None	None	None	None	1
1.7	2015_Jul_20_0914	s	s	10	1	SIC	229	RC	1	0	23MC	0	1	4.8580930233	-445.0	-37.0	None	None	0
1.7	2015_Jul_20_0914	s	s	10	1	SIC	230	RC	1	1	23MO	1	0	2.56535696983	241.0	-318.0	246	-312	1
1.7	2015_Jul_20_0914	s	s	10	1	SIC	231	RC	2	1	23VO	1	0	1.52708005905	193.0	-395.0	192	-401	1
1.7	2015_Jul_20_0914	s	s	10	1	SIC	232	RC	0	1	23RO	1	0	5.44118618965	449.0	-152.0	452	-151	1
1.7	2015_Jul_20_0914	s	s	10	1	SIC	233	RC	2	0	23VC	1	0	0.66538310051	38.0	-210.0	40	-213	1
1.7	2015_Jul_20_0914	s	s	10	1	SIC	234	RC	2	2	23VD	1	0	1.26251888275	-485.0	-152.0	-479	-157	1
1.7	2015_Jul_20_0914	s	s	10	1	SIC	235	ABS	0	2	24RD	0	1	2.6303229332	None	None	None	None	1
1.7	2015_Jul_20_0914	s	s	10	1	SIC	236	ABS	0	1	24RO	0	1	9.89597511292	None	None	None	None	1
1.7	2015_Jul_20_0914	s	s	10	1	SIC	237	ABS	2	0	24VC	0	1	1.98857903481	None	None	None	None	1
1.7	2015_Jul_20_0914	s	s	10	1	SIC	238	ABS	1	1	24MO	1	0	8.08066082001	None	None	-18	-21	0
1.7	2015_Jul_20_0914	s	s	10	1	SIC	239	ABS	1	0	24MC	0	1	5.56442785263	None	None	None	None	1
1.7	2015_Jul_20_0914	s	s	10	1	SIC	240	ABS	1	2	24MD	0	1	2.16163396835	None	None	None	None	1
1.7	2015_Jul_20_0914	s	s	10	1	SIC	241	ABS	1	2	24MD	0	1	1.44703912735	None	None	None	None	1
1.7	2015_Jul_20_0914	s	s	10	1	SIC	242	RC	0	1	23RO	1	0	3.51876497269	399.0	233.0	402	228	1
1.7	2015_Jul_20_0914	s	s	10	1	SIC	243	ABS	1	0	24MC	0	1	2.80736994743	None	None	None	None	1
1.7	2015_Jul_20_0914	s	s	10	1	SIC	244	ABS	0	2	24RD	1	0	2.45595097542	None	None	22	9	0
1.7	2015_Jul_20_0914	s	s	10	1	SIC	245	ABS	2	0	24VC	0	1	2.37347412109	None	None	None	None	1
1.7	2015_Jul_20_0914	s	s	10	1	SIC	246	RC	0	2	23RD	1	0	1.77221107483	-400.0	-127.0	-390	-123	1
1.7	2015_Jul_20_0914	s	s	10	1	SIC	247	RC	1	1	23MO	1	0	4.50276303291	-320.0	-249.0	-323	-247	1
1.7	2015_Jul_20_0914	s	s	10	1	SIC	248	RC	2	2	23VD	1	0	0.917443037033	133.0	90.0	139	88	1
1.7	2015_Jul_20_0914	s	s	10	1	SIC	249	RC	1	2	23MD	1	0	2.0473651886	-377.0	-122.0	-373	-128	1
1.7	2015_Jul_20_0914	s	s	10	1	SIC	250	RC	2	0	23VC	1	0	0.999631881714	-25.0	-159.0	-22	-166	1
1.7	2015_Jul_20_0914	s	s	10	1	SIC	251	ABS	2	1	24VO	0	1	2.26658701897	None	None	None	None	1
1.7	2015_Jul_20_0914	s	s	10	1	SIC	252	RC	2	1	23VO	1	0	1.42109489441	-269.0	287.0	-262	285	1
1.7	2015_Jul_20_0914	s	s	10	1	SIC	253	RC	1	0	23MC	0	1	4.30245113373	412.0	-95.0	None	None	0
1.7	2015_Jul_20_0914	s	s	10	1	SIC	254	ABS	0	1	24RO	0	1	11.3992161751	None	None	None	None	1
1.7	2015_Jul_20_0914	s	s	10	1	SIC	255	ABS	1	1	24MO	0	1	8.74918317795	None	None	None	None	1
1.7	2015_Jul_20_0914	s	s	10	1	SIC	256	ABS	2	2	24VD	0	1	5.95173001289	None	None	None	None	1
1.7	2015_Jul_20_0914	s	s	10	1	SIC	257	ABS	2	1	24VO	0	1	2.12988710403	None	None	None	None	1
1.7	2015_Jul_20_0914	s	s	10	1	SIC	258	ABS	2	0	24VC	0	1	1.76157188416	None	None	None	None	1
1.7	2015_Jul_20_0914	s	s	10	1	SIC	259	ABS	1	2	24MD	0	1	0.953029155731	None	None	None	None	1
1.7	2015_Jul_20_0914	s	s	10	1	SIC	260	RC	2	1	23VO	1	0	2.04520106316	-271.0	-164.0	-262	-165	1
1.7	2015_Jul_20_0914	s	s	10	1	SIC	261	RC	1	1	23MO	1	0	2.17687892914	-332.0	-43.0	-329	-53	1
1.7	2015_Jul_20_0914	s	s	10	1	SIC	262	RC	0	1	23RO	1	0	8.81043601036	453.0	-368.0	453	-370	1
1.7	2015_Jul_20_0914	s	s	10	1	SIC	263	RC	2	2	23VD	1	0	0.788056135178	-18.0	265.0	-13	259	1
1.7	2015_Jul_20_0914	s	s	10	1	SIC	264	ABS	1	1	24MO	0	1	9.85154390335	None	None	None	None	1
1.7	2015_Jul_20_0914	s	s	10	1	SIC	265	ABS	0	2	24RD	0	1	2.10188698769	None	None	None	None	1
1.7	2015_Jul_20_0914	s	s	10	1	SIC	266	RC	1	2	23MD	1	0	1.12925481796	145.0	381.0	151	385	1
1.7	2015_Jul_20_0914	s	s	10	1	SIC	267	RC	0	2	23RD	1	0	1.468116045	-495.0	-283.0	-504	-278	1
1.7	2015_Jul_20_0914	s	s	10	1	SIC	268	ABS	0	1	24RO	0	1	6.9557030201	None	None	None	None	1
1.7	2015_Jul_20_0914	s	s	10	1	SIC	269	RC	1	0	23MC	0	1	1.97688984871	70.0	-177.0	None	None	0
1.7	2015_Jul_20_0914	s	s	10	1	SIC	270	RC	2	0	23VC	1	0	0.806548118591	297.0	-138.0	295	-139	1
1.7	2015_Jul_20_0914	s	s	10	1	SIC	271	ABS	1	0	24MC	0	1	1.99481201172	None	None	None	None	1
1.7	2015_Jul_20_0914	s	s	10	1	SIC	272	ABS	2	2	24VD	0	1	0.748441934586	None	None	None	None	1
1.7	2015_Jul_20_0914	s	s	10	1	SIC	273	ABS	1	0	24MC	0	1	19.3738629818	None	None	None	None	1
1.7	2015_Jul_20_0914	s	s	10	1	SIC	274	ABS	2	2	24VD	0	1	1.03241705894	None	None	None	None	1
1.7	2015_Jul_20_0914	s	s	10	1	SIC	275	ABS	0	1	24RO	0	1	11.2705600262	None	None	None	None	1
1.7	2015_Jul_20_0914	s	s	10	1	SIC	276	ABS	2	0	24VC	0	1	4.19810914993	None	None	None	None	1
1.7	2015_Jul_20_0914	s	s	10	1	SIC	277	RC	2	1	23VO	1	0	1.29413294792	-285.0	-371.0	-287	-377	1
1.7	2015_Jul_20_0914	s	s	10	1	SIC	278	ABS	0	2	24RD	0	1	1.92623806	None	None	None	None	1
1.7	2015_Jul_20_0914	s	s	10	1	SIC	279	RC	1	0	23MC	0	1	4.95255994797	153.0	-245.0	None	None	0
1.7	2015_Jul_20_0914	s	s	10	1	SIC	280	RC	1	1	23MO	1	0	5.53989195824	482.0	-361.0	480	-359	1
1.7	2015_Jul_20_0914	s	s	10	1	SIC	281	RC	2	0	23VC	1	0	1.04171895981	-134.0	96.0	-131	97	1
1.7	2015_Jul_20_0914	s	s	10	1	SIC	282	ABS	1	1	24MO	0	1	15.28621912	None	None	None	None	1
1.7	2015_Jul_20_0914	s	s	10	1	SIC	283	ABS	2	1	24VO	0	1	2.10142707825	None	None	None	None	1
1.7	2015_Jul_20_0914	s	s	10	1	SIC	284	ABS	1	2	24MD	0	1	2.00751304626	None	None	None	None	1
1.7	2015_Jul_20_0914	s	s	10	1	SIC	285	RC	2	2	23VD	1	0	1.11762309074	-500.0	10.0	-493	10	1
1.7	2015_Jul_20_0914	s	s	10	1	SIC	286	RC	1	2	23MD	1	0	1.40891194344	-383.0	-11.0	-386	-12	1
1.7	2015_Jul_20_0914	s	s	10	1	SIC	287	RC	0	2	23RD	1	0	0.863167047501	-237.0	-277.0	-230	-270	1
1.7	2015_Jul_20_0914	s	s	10	1	SIC	288	RC	0	1	23RO	1	0	2.42414307594	-174.0	-385.0	-177	-392	1
1.7	2015_Jul_20_0914	s	s	10	1	SIC	289	ABS	1	1	24MO	0	1	7.85043907166	None	None	None	None	1
1.7	2015_Jul_20_0914	s	s	10	1	SIC	290	ABS	0	2	24RD	0	1	2.87755513191	None	None	None	None	1
1.7	2015_Jul_20_0914	s	s	10	1	SIC	291	ABS	2	0	24VC	1	0	0.877329826355	None	None	-96	7	0
1.7	2015_Jul_20_0914	s	s	10	1	SIC	292	ABS	1	0	24MC	0	1	2.41606998444	None	None	None	None	1
1.7	2015_Jul_20_0914	s	s	10	1	SIC	293	RC	2	1	23VO	1	0	1.30120706558	165.0	141.0	170	142	1
1.7	2015_Jul_20_0914	s	s	10	1	SIC	294	RC	0	1	23RO	1	0	5.696393013	-230.0	-268.0	-224	-276	1
1.7	2015_Jul_20_0914	s	s	10	1	SIC	295	ABS	2	2	24VD	0	1	1.44181489944	None	None	None	None	1
1.7	2015_Jul_20_0914	s	s	10	1	SIC	296	ABS	1	2	24MD	0	1	1.92981100082	None	None	None	None	1
1.7	2015_Jul_20_0914	s	s	10	1	SIC	297	RC	1	2	23MD	1	0	1.37257194519	-318.0	-362.0	-312	-358	1
1.7	2015_Jul_20_0914	s	s	10	1	SIC	298	RC	2	0	23VC	1	0	0.9480509758	-171.0	95.0	-171	95	1
1.7	2015_Jul_20_0914	s	s	10	1	SIC	299	RC	1	1	23MO	1	0	3.79494905472	496.0	334.0	493	334	1
1.7	2015_Jul_20_0914	s	s	10	1	SIC	300	RC	1	0	23MC	0	1	8.76576495171	475.0	-138.0	None	None	0
1.7	2015_Jul_20_0914	s	s	10	1	SIC	301	ABS	0	1	24RO	0	1	12.8387451172	None	None	None	None	1
1.7	2015_Jul_20_0914	s	s	10	1	SIC	302	RC	0	2	23RD	1	0	0.964640140533	201.0	37.0	207	34	1
1.7	2015_Jul_20_0914	s	s	10	1	SIC	303	ABS	2	1	24VO	0	1	1.75323390961	None	None	None	None	1
1.7	2015_Jul_20_0914	s	s	10	1	SIC	304	RC	2	2	23VD	1	0	0.788015842438	-95.0	-400.0	-94	-393	1
1.7	2015_Jul_20_0914	s	s	10	1	SIC	305	RC	2	1	23VO	1	0	1.11755084991	-469.0	-383.0	-472	-394	1
1.7	2015_Jul_20_0914	s	s	10	1	SIC	306	ABS	1	1	24MO	0	1	11.2381191254	None	None	None	None	1
1.7	2015_Jul_20_0914	s	s	10	1	SIC	307	RC	2	2	23VD	1	0	0.635030984879	-416.0	-124.0	-418	-124	1
1.7	2015_Jul_20_0914	s	s	10	1	SIC	308	RC	1	0	23MC	0	1	13.2347240448	383.0	-207.0	None	None	0
1.7	2015_Jul_20_0914	s	s	10	1	SIC	309	ABS	2	1	24VO	0	1	2.70659208298	None	None	None	None	1
1.7	2015_Jul_20_0914	s	s	10	1	SIC	310	ABS	0	1	24RO	0	1	15.1547460556	None	None	None	None	1
1.7	2015_Jul_20_0914	s	s	10	1	SIC	311	RC	0	2	23RD	1	0	0.776128053665	-126.0	-207.0	-128	-210	1
1.7	2015_Jul_20_0914	s	s	10	1	SIC	312	RC	1	2	23MD	1	0	1.64083313942	-357.0	-35.0	-353	-34	1
1.7	2015_Jul_20_0914	s	s	10	1	SIC	313	ABS	1	0	24MC	1	0	7.8385219574	None	None	-237	134	0
1.7	2015_Jul_20_0914	s	s	10	1	SIC	314	ABS	2	0	24VC	0	1	1.10204386711	None	None	None	None	1
1.7	2015_Jul_20_0914	s	s	10	1	SIC	315	ABS	1	2	24MD	0	1	4.19586205482	None	None	None	None	1
1.7	2015_Jul_20_0914	s	s	10	1	SIC	316	RC	2	0	23VC	1	0	0.858473062515	113.0	160.0	122	157	1
1.7	2015_Jul_20_0914	s	s	10	1	SIC	317	ABS	0	2	24RD	0	1	2.17695116997	None	None	None	None	1
1.7	2015_Jul_20_0914	s	s	10	1	SIC	318	ABS	2	2	24VD	0	1	1.05889582634	None	None	None	None	1
1.7	2015_Jul_20_0914	s	s	10	1	SIC	319	RC	1	1	23MO	1	0	1.71362113953	-151.0	145.0	-154	146	1
1.7	2015_Jul_20_0914	s	s	10	1	SIC	320	RC	0	1	23RO	1	0	2.16514587402	277.0	14.0	286	15	1
1.7	2015_Jul_20_0914	s	s	10	1	SIC	321	ABS	0	1	24RO	0	1	7.99153614044	None	None	None	None	1
1.7	2015_Jul_20_0914	s	s	10	1	SIC	322	ABS	1	1	24MO	0	1	10.2476539612	None	None	None	None	1
1.7	2015_Jul_20_0914	s	s	10	1	SIC	323	ABS	0	2	24RD	0	1	1.45509600639	None	None	None	None	1
1.7	2015_Jul_20_0914	s	s	10	1	SIC	324	RC	1	2	23MD	1	0	1.3175611496	469.0	244.0	474	245	1
1.7	2015_Jul_20_0914	s	s	10	1	SIC	325	RC	1	0	23MC	1	0	3.19754695892	499.0	304.0	503	305	1
1.7	2015_Jul_20_0914	s	s	10	1	SIC	326	ABS	1	0	24MC	0	1	11.6585769653	None	None	None	None	1
1.7	2015_Jul_20_0914	s	s	10	1	SIC	327	ABS	1	2	24MD	0	1	4.41963791847	None	None	None	None	1
1.7	2015_Jul_20_0914	s	s	10	1	SIC	328	ABS	2	2	24VD	0	1	1.07705283165	None	None	None	None	1
1.7	2015_Jul_20_0914	s	s	10	1	SIC	329	RC	0	1	23RO	1	0	3.9187579155	5.0	94.0	4	97	1
1.7	2015_Jul_20_0914	s	s	10	1	SIC	330	RC	2	2	23VD	1	0	1.81201195717	-211.0	-203.0	-199	-201	1
1.7	2015_Jul_20_0914	s	s	10	1	SIC	331	ABS	2	1	24VO	0	1	1.48998212814	None	None	None	None	1
1.7	2015_Jul_20_0914	s	s	10	1	SIC	332	RC	2	0	23VC	1	0	0.652575016022	452.0	159.0	452	155	1
1.7	2015_Jul_20_0914	s	s	10	1	SIC	333	RC	2	1	23VO	1	0	1.59459209442	325.0	-146.0	321	-151	1
1.7	2015_Jul_20_0914	s	s	10	1	SIC	334	RC	1	1	23MO	1	0	1.92521500587	424.0	-198.0	429	-197	1
1.7	2015_Jul_20_0914	s	s	10	1	SIC	335	RC	0	2	23RD	1	0	0.976331949234	-221.0	370.0	-215	372	1
1.7	2015_Jul_20_0914	s	s	10	1	SIC	336	ABS	2	0	24VC	0	1	1.92735886574	None	None	None	None	1
1.7	2015_Jul_20_0914	s	s	10	1	SIC	337	ABS	0	1	24RO	0	1	8.58017897606	None	None	None	None	1
1.7	2015_Jul_20_0914	s	s	10	1	SIC	338	RC	1	1	23MO	1	0	1.27051091194	243.0	135.0	246	139	1
1.7	2015_Jul_20_0914	s	s	10	1	SIC	339	RC	0	2	23RD	1	0	0.929623126984	-169.0	-371.0	-173	-376	1
1.7	2015_Jul_20_0914	s	s	10	1	SIC	340	RC	1	0	23MC	1	0	5.10473394394	96.0	185.0	98	183	1
1.7	2015_Jul_20_0914	s	s	10	1	SIC	341	RC	2	1	23VO	1	0	0.69430398941	80.0	-271.0	85	-266	1
1.7	2015_Jul_20_0914	s	s	10	1	SIC	342	RC	2	0	23VC	1	0	0.787948131561	-167.0	-222.0	-165	-227	1
1.7	2015_Jul_20_0914	s	s	10	1	SIC	343	ABS	1	2	24MD	0	1	2.25957393646	None	None	None	None	1
1.7	2015_Jul_20_0914	s	s	10	1	SIC	344	ABS	1	0	24MC	0	0	-1	None	None	None	None	-1
1.7	2015_Jul_20_0914	s	s	10	1	SIC	345	ABS	0	2	24RD	0	1	1.07088494301	None	None	None	None	1
1.7	2015_Jul_20_0914	s	s	10	1	SIC	346	ABS	2	1	24VO	0	1	1.54943418503	None	None	None	None	1
1.7	2015_Jul_20_0914	s	s	10	1	SIC	347	RC	1	2	23MD	1	0	0.773733854294	515.0	259.0	525	258	1
1.7	2015_Jul_20_0914	s	s	10	1	SIC	348	RC	2	2	23VD	1	0	0.655154943466	538.0	-115.0	534	-107	1
1.7	2015_Jul_20_0914	s	s	10	1	SIC	349	ABS	2	0	24VC	0	1	1.60699105263	None	None	None	None	1
1.7	2015_Jul_20_0914	s	s	10	1	SIC	350	ABS	1	1	24MO	0	1	9.07460403442	None	None	None	None	1
1.7	2015_Jul_20_0914	s	s	10	1	SIC	351	ABS	2	2	24VD	0	1	0.912550926208	None	None	None	None	1
1.7	2015_Jul_20_0914	s	s	10	1	SIC	352	RC	0	1	23RO	1	0	3.30689311028	-150.0	-399.0	-156	-402	1
1.7	2015_Jul_20_0914	s	s	10	1	SIC	353	RC	1	0	23MC	0	1	10.3667259216	206.0	194.0	None	None	0
1.7	2015_Jul_20_0914	s	s	10	1	SIC	354	RC	0	1	23RO	1	0	7.28078699112	508.0	72.0	506	73	1
1.7	2015_Jul_20_0914	s	s	10	1	SIC	355	RC	2	1	23VO	1	0	0.806473016739	-338.0	7.0	-332	9	1
1.7	2015_Jul_20_0914	s	s	10	1	SIC	356	ABS	2	2	24VD	0	1	1.11747908592	None	None	None	None	1
1.7	2015_Jul_20_0914	s	s	10	1	SIC	357	ABS	2	0	24VC	0	1	3.01976013184	None	None	None	None	1
1.7	2015_Jul_20_0914	s	s	10	1	SIC	358	ABS	1	1	24MO	0	1	11.1404969692	None	None	None	None	1
1.7	2015_Jul_20_0914	s	s	10	1	SIC	359	RC	2	2	23VD	1	0	0.797207117081	332.0	77.0	336	69	1
1.7	2015_Jul_20_0914	s	s	10	1	SIC	360	ABS	1	0	24MC	1	0	9.61351895332	None	None	-456	-44	0
1.7	2015_Jul_20_0914	s	s	10	1	SIC	361	RC	1	1	23MO	1	0	3.62502098083	535.0	330.0	535	329	1
1.7	2015_Jul_20_0914	s	s	10	1	SIC	362	RC	0	2	23RD	1	0	0.787905931473	425.0	81.0	434	79	1
1.7	2015_Jul_20_0914	s	s	10	1	SIC	363	ABS	0	2	24RD	0	1	1.07701706886	None	None	None	None	1
1.7	2015_Jul_20_0914	s	s	10	1	SIC	364	RC	2	0	23VC	1	0	0.682084083557	67.0	228.0	73	226	1
1.7	2015_Jul_20_0914	s	s	10	1	SIC	365	ABS	1	2	24MD	0	1	3.5830039978	None	None	None	None	1
1.7	2015_Jul_20_0914	s	s	10	1	SIC	366	ABS	0	1	24RO	0	1	10.9792480469	None	None	None	None	1
1.7	2015_Jul_20_0914	s	s	10	1	SIC	367	RC	1	2	23MD	1	0	0.771644115448	208.0	48.0	216	45	1
1.7	2015_Jul_20_0914	s	s	10	1	SIC	368	ABS	2	1	24VO	0	1	2.2238907814	None	None	None	None	1
1.7	2015_Jul_20_0914	s	s	10	1	SIC	369	RC	2	2	23VD	1	0	0.682050943375	-429.0	165.0	-436	165	1
1.7	2015_Jul_20_0914	s	s	10	1	SIC	370	ABS	2	2	24VD	0	1	1.15886211395	None	None	None	None	1
1.7	2015_Jul_20_0914	s	s	10	1	SIC	371	ABS	2	0	24VC	0	1	2.0475320816	None	None	None	None	1
1.7	2015_Jul_20_0914	s	s	10	1	SIC	372	RC	0	2	23RD	1	0	0.807147026062	-409.0	-218.0	-403	-214	1
1.7	2015_Jul_20_0914	s	s	10	1	SIC	373	RC	2	1	23VO	1	0	1.26575183868	-158.0	382.0	-151	383	1
1.7	2015_Jul_20_0914	s	s	10	1	SIC	374	ABS	0	1	24RO	0	1	7.23313713074	None	None	None	None	1
1.7	2015_Jul_20_0914	s	s	10	1	SIC	375	ABS	0	2	24RD	0	1	1.98418688774	None	None	None	None	1
1.7	2015_Jul_20_0914	s	s	10	1	SIC	376	ABS	1	1	24MO	0	1	5.93173694611	None	None	None	None	1
1.7	2015_Jul_20_0914	s	s	10	1	SIC	377	RC	0	1	23RO	1	0	1.78564596176	236.0	336.0	243	333	1
1.7	2015_Jul_20_0914	s	s	10	1	SIC	378	ABS	1	2	24MD	0	1	1.63550305367	None	None	None	None	1
1.7	2015_Jul_20_0914	s	s	10	1	SIC	379	ABS	2	1	24VO	0	1	1.73618483543	None	None	None	None	1
1.7	2015_Jul_20_0914	s	s	10	1	SIC	380	RC	2	0	23VC	1	0	0.762016057968	-113.0	-1.0	-109	-3	1
1.7	2015_Jul_20_0914	s	s	10	1	SIC	381	ABS	1	0	24MC	0	1	11.8406391144	None	None	None	None	1
1.7	2015_Jul_20_0914	s	s	10	1	SIC	382	RC	1	1	23MO	1	0	2.57213592529	519.0	92.0	523	90	1
1.7	2015_Jul_20_0914	s	s	10	1	SIC	383	RC	1	2	23MD	1	0	0.74728512764	148.0	-270.0	150	-280	1
1.7	2015_Jul_20_0914	s	s	10	1	SIC	384	RC	1	0	23MC	1	0	10.1043009758	-336.0	205.0	-332	208	1
1.7	2015_Jul_20_0914	s	s	10	1	SIC	385	RC	1	0	23MC	1	0	9.08122181892	-234.0	301.0	-231	305	1
1.7	2015_Jul_20_0914	s	s	10	1	SIC	386	ABS	1	0	24MC	0	1	14.4278149605	None	None	None	None	1
1.7	2015_Jul_20_0914	s	s	10	1	SIC	387	ABS	2	1	24VO	0	1	2.79766488075	None	None	None	None	1
1.7	2015_Jul_20_0914	s	s	10	1	SIC	388	RC	0	1	23RO	1	0	2.94884109497	508.0	232.0	510	234	1
1.7	2015_Jul_20_0914	s	s	10	1	SIC	389	RC	1	1	23MO	1	0	10.5285389423	-446.0	-11.0	-441	-14	1
1.7	2015_Jul_20_0914	s	s	10	1	SIC	390	RC	2	1	23VO	1	0	0.803485870361	151.0	-271.0	151	-269	1
1.7	2015_Jul_20_0914	s	s	10	1	SIC	391	RC	0	2	23RD	1	0	1.07059788704	-519.0	-370.0	-521	-375	1
1.7	2015_Jul_20_0914	s	s	10	1	SIC	392	ABS	0	1	24RO	0	1	12.0119040012	None	None	None	None	1
1.7	2015_Jul_20_0914	s	s	10	1	SIC	393	ABS	2	0	24VC	0	1	2.78903388977	None	None	None	None	1
1.7	2015_Jul_20_0914	s	s	10	1	SIC	394	RC	2	2	23VD	1	0	0.841073989868	69.0	-3.0	80	2	1
1.7	2015_Jul_20_0914	s	s	10	1	SIC	395	ABS	2	2	24VD	0	1	0.879637956619	None	None	None	None	1
1.7	2015_Jul_20_0914	s	s	10	1	SIC	396	ABS	1	2	24MD	0	1	1.64721798897	None	None	None	None	1
1.7	2015_Jul_20_0914	s	s	10	1	SIC	397	RC	1	2	23MD	1	0	0.693858861923	17.0	52.0	19	48	1
1.7	2015_Jul_20_0914	s	s	10	1	SIC	398	RC	2	0	23VC	1	0	0.702927112579	-423.0	-108.0	-417	-111	1
1.7	2015_Jul_20_0914	s	s	10	1	SIC	399	ABS	0	2	24RD	0	1	2.0120909214	None	None	None	None	1
1.7	2015_Jul_20_0914	s	s	10	1	SIC	400	ABS	1	1	24MO	0	1	12.4409220219	None	None	None	None	1
1.7	2015_Jul_20_0914	s	s	10	1	SIC	401	RC	1	1	23MO	1	0	1.58347916603	289.0	269.0	292	267	1
1.7	2015_Jul_20_0914	s	s	10	1	SIC	402	ABS	1	1	24MO	0	1	9.23934602737	None	None	None	None	1
1.7	2015_Jul_20_0914	s	s	10	1	SIC	403	RC	0	2	23RD	1	0	0.700668096542	-16.0	75.0	-15	70	1
1.7	2015_Jul_20_0914	s	s	10	1	SIC	404	RC	2	0	23VC	1	0	0.689350128174	19.0	-123.0	22	-119	1
1.7	2015_Jul_20_0914	s	s	10	1	SIC	405	ABS	0	1	24RO	0	1	12.1465158463	None	None	None	None	1
1.7	2015_Jul_20_0914	s	s	10	1	SIC	406	ABS	0	2	24RD	0	1	0.999830007553	None	None	None	None	1
1.7	2015_Jul_20_0914	s	s	10	1	SIC	407	RC	1	2	23MD	1	0	1.12366199493	334.0	107.0	338	110	1
1.7	2015_Jul_20_0914	s	s	10	1	SIC	408	ABS	1	0	24MC	0	1	9.71918106079	None	None	None	None	1
1.7	2015_Jul_20_0914	s	s	10	1	SIC	409	RC	2	2	23VD	1	0	0.764425039291	507.0	-299.0	501	-298	1
1.7	2015_Jul_20_0914	s	s	10	1	SIC	410	ABS	1	2	24MD	0	1	2.27467703819	None	None	None	None	1
1.7	2015_Jul_20_0914	s	s	10	1	SIC	411	RC	1	0	23MC	1	0	7.93276596069	-225.0	-195.0	-222	-199	1
1.7	2015_Jul_20_0914	s	s	10	1	SIC	412	RC	2	1	23VO	1	0	0.997601032257	87.0	142.0	87	137	1
1.7	2015_Jul_20_0914	s	s	10	1	SIC	413	ABS	2	1	24VO	0	1	2.01198506355	None	None	None	None	1
1.7	2015_Jul_20_0914	s	s	10	1	SIC	414	ABS	2	0	24VC	0	1	0.0881171226501	None	None	None	None	1
1.7	2015_Jul_20_0914	s	s	10	1	SIC	415	ABS	2	2	24VD	0	1	1.1178381443	None	None	None	None	1
1.7	2015_Jul_20_0914	s	s	10	1	SIC	416	RC	0	1	23RO	1	0	5.25857615471	-337.0	356.0	-334	356	1
1.7	2015_Jul_20_0914	s	s	10	1	SIC	417	ABS	0	1	24RO	0	1	16.219219923	None	None	None	None	1
1.7	2015_Jul_20_0914	s	s	10	1	SIC	418	RC	0	2	23RD	1	0	1.12608003616	-537.0	-37.0	-533	-39	1
1.7	2015_Jul_20_0914	s	s	10	1	SIC	419	ABS	0	2	24RD	0	1	3.81386709213	None	None	None	None	1
1.7	2015_Jul_20_0914	s	s	10	1	SIC	420	RC	0	1	23RO	0	1	6.78812789917	335.0	-171.0	None	None	0
1.7	2015_Jul_20_0914	s	s	10	1	SIC	421	ABS	1	1	24MO	0	1	11.5671179295	None	None	None	None	1
1.7	2015_Jul_20_0914	s	s	10	1	SIC	422	ABS	1	0	24MC	0	1	18.3379230499	None	None	None	None	1
1.7	2015_Jul_20_0914	s	s	10	1	SIC	423	ABS	2	2	24VD	0	1	1.22091197968	None	None	None	None	1
1.7	2015_Jul_20_0914	s	s	10	1	SIC	424	RC	2	2	23VD	1	0	0.815211057663	150.0	-359.0	152	-364	1
1.7	2015_Jul_20_0914	s	s	10	1	SIC	425	RC	1	0	23MC	0	1	18.4051439762	-236.0	100.0	None	None	0
1.7	2015_Jul_20_0914	s	s	10	1	SIC	426	ABS	2	1	24VO	0	1	1.49422907829	None	None	None	None	1
1.7	2015_Jul_20_0914	s	s	10	1	SIC	427	RC	2	1	23VO	1	0	0.856388092041	-310.0	314.0	-317	316	1
1.7	2015_Jul_20_0914	s	s	10	1	SIC	428	RC	1	2	23MD	1	0	0.838677167892	-367.0	187.0	-364	191	1
1.7	2015_Jul_20_0914	s	s	10	1	SIC	429	ABS	1	2	24MD	0	1	1.66572809219	None	None	None	None	1
1.7	2015_Jul_20_0914	s	s	10	1	SIC	430	ABS	2	0	24VC	0	1	1.17644190788	None	None	None	None	1
1.7	2015_Jul_20_0914	s	s	10	1	SIC	431	RC	1	1	23MO	1	0	2.35355710983	-502.0	-401.0	-497	-399	1
1.7	2015_Jul_20_0914	s	s	10	1	SIC	432	RC	2	0	23VC	1	0	0.723725795746	414.0	-294.0	420	-296	1
1.7	2015_Jul_20_0914	s	s	10	1	SIC	433	ABS	2	1	24VO	0	1	1.31217503548	None	None	None	None	1
1.7	2015_Jul_20_0914	s	s	10	1	SIC	434	ABS	0	2	24RD	0	1	2.99712204933	None	None	None	None	1
1.7	2015_Jul_20_0914	s	s	10	1	SIC	435	ABS	1	2	24MD	0	1	2.72525191307	None	None	None	None	1
1.7	2015_Jul_20_0914	s	s	10	1	SIC	436	RC	1	2	23MD	1	0	0.911112070084	20.0	-79.0	21	-83	1
1.7	2015_Jul_20_0914	s	s	10	1	SIC	437	ABS	1	0	24MC	0	1	9.1450419426	None	None	None	None	1
1.7	2015_Jul_20_0914	s	s	10	1	SIC	438	RC	2	2	23VD	1	0	0.772203922272	-218.0	202.0	-221	209	1
1.7	2015_Jul_20_0914	s	s	10	1	SIC	439	ABS	1	1	24MO	0	1	12.5546159744	None	None	None	None	1
1.7	2015_Jul_20_0914	s	s	10	1	SIC	440	RC	2	0	23VC	1	0	0.81147813797	-7.0	104.0	-2	100	1
1.7	2015_Jul_20_0914	s	s	10	1	SIC	441	ABS	2	0	24VC	0	1	1.48246693611	None	None	None	None	1
1.7	2015_Jul_20_0914	s	s	10	1	SIC	442	RC	0	2	23RD	1	0	0.752709150314	7.0	81.0	8	79	1
1.7	2015_Jul_20_0914	s	s	10	1	SIC	443	ABS	2	2	24VD	0	1	0.878700971603	None	None	None	None	1
1.7	2015_Jul_20_0914	s	s	10	1	SIC	444	RC	1	0	23MC	0	1	14.4718401432	354.0	188.0	None	None	0
1.7	2015_Jul_20_0914	s	s	10	1	SIC	445	ABS	0	1	24RO	0	1	9.64744997025	None	None	None	None	1
1.7	2015_Jul_20_0914	s	s	10	1	SIC	446	RC	0	1	23RO	1	0	3.16571617126	-69.0	-12.0	-73	-4	1
1.7	2015_Jul_20_0914	s	s	10	1	SIC	447	RC	2	1	23VO	1	0	0.807125091553	67.0	184.0	63	176	1
1.7	2015_Jul_20_0914	s	s	10	1	SIC	448	RC	1	1	23MO	1	0	1.19553995132	75.0	75.0	67	74	1
1.7	2015_Jul_20_0914	s	s	10	1	SIC	449	RC	2	1	23VO	1	0	0.800056934357	-522.0	270.0	-519	271	1
1.7	2015_Jul_20_0914	s	s	10	1	SIC	450	RC	1	2	23MD	1	0	0.846760988235	-438.0	188.0	-441	188	1
1.7	2015_Jul_20_0914	s	s	10	1	SIC	451	ABS	1	0	24MC	0	1	4.68783712387	None	None	None	None	1
1.7	2015_Jul_20_0914	s	s	10	1	SIC	452	RC	2	0	23VC	1	0	0.723990917206	-365.0	111.0	-359	114	1
1.7	2015_Jul_20_0914	s	s	10	1	SIC	453	RC	0	2	23RD	1	0	0.917485952377	-400.0	-333.0	-395	-341	1
1.7	2015_Jul_20_0914	s	s	10	1	SIC	454	ABS	2	1	24VO	0	1	1.81693100929	None	None	None	None	1
1.7	2015_Jul_20_0914	s	s	10	1	SIC	455	RC	1	0	23MC	0	0	-1	-280.0	37.0	None	None	-1
1.7	2015_Jul_20_0914	s	s	10	1	SIC	456	RC	0	1	23RO	1	0	6.21434307098	-284.0	-64.0	-277	-66	1
1.7	2015_Jul_20_0914	s	s	10	1	SIC	457	RC	1	1	23MO	1	0	2.62130594254	-341.0	-329.0	-342	-331	1
1.7	2015_Jul_20_0914	s	s	10	1	SIC	458	RC	2	2	23VD	1	0	1.29411387444	-507.0	-280.0	-508	-285	1
1.7	2015_Jul_20_0914	s	s	10	1	SIC	459	ABS	0	1	24RO	0	1	11.8821220398	None	None	None	None	1
1.7	2015_Jul_20_0914	s	s	10	1	SIC	460	ABS	0	2	24RD	0	1	1.49429512024	None	None	None	None	1
1.7	2015_Jul_20_0914	s	s	10	1	SIC	461	ABS	2	2	24VD	0	1	0.832675933838	None	None	None	None	1
1.7	2015_Jul_20_0914	s	s	10	1	SIC	462	ABS	1	2	24MD	0	1	0.858613014221	None	None	None	None	1
1.7	2015_Jul_20_0914	s	s	10	1	SIC	463	ABS	1	1	24MO	0	1	10.2284011841	None	None	None	None	1
1.7	2015_Jul_20_0914	s	s	10	1	SIC	464	ABS	2	0	24VC	0	1	1.83578205109	None	None	None	None	1
1.7	2015_Jul_20_0914	s	s	10	1	SIC	465	RC	0	2	23RD	1	0	0.885818958282	-533.0	22.0	-524	20	1
1.7	2015_Jul_20_0914	s	s	10	1	SIC	466	RC	1	2	23MD	1	0	0.854176044464	16.0	-257.0	21	-254	1
1.7	2015_Jul_20_0914	s	s	10	1	SIC	467	RC	1	0	23MC	1	0	10.0985770226	-296.0	131.0	-295	133	1
1.7	2015_Jul_20_0914	s	s	10	1	SIC	468	RC	1	1	23MO	1	0	8.85755991936	-51.0	-116.0	-53	-112	1
1.7	2015_Jul_20_0914	s	s	10	1	SIC	469	RC	0	1	23RO	1	0	3.06705904007	-191.0	-321.0	-192	-325	1
1.7	2015_Jul_20_0914	s	s	10	1	SIC	470	RC	2	2	23VD	1	0	0.629191875458	27.0	109.0	21	106	1
1.7	2015_Jul_20_0914	s	s	10	1	SIC	471	ABS	2	0	24VC	0	1	0.938024044037	None	None	None	None	1
1.7	2015_Jul_20_0914	s	s	10	1	SIC	472	ABS	1	0	24MC	0	1	11.2874109745	None	None	None	None	1
1.7	2015_Jul_20_0914	s	s	10	1	SIC	473	ABS	2	1	24VO	0	1	0.752579927444	None	None	None	None	1
1.7	2015_Jul_20_0914	s	s	10	1	SIC	474	ABS	1	2	24MD	0	1	0.835369110107	None	None	None	None	1
1.7	2015_Jul_20_0914	s	s	10	1	SIC	475	ABS	0	1	24RO	0	1	10.6636538506	None	None	None	None	1
1.7	2015_Jul_20_0914	s	s	10	1	SIC	476	ABS	1	1	24MO	0	1	7.36783003807	None	None	None	None	1
1.7	2015_Jul_20_0914	s	s	10	1	SIC	477	RC	2	0	23VC	1	0	0.909492969513	-531.0	22.0	-527	24	1
1.7	2015_Jul_20_0914	s	s	10	1	SIC	478	ABS	2	2	24VD	0	1	0.670293092728	None	None	None	None	1
1.7	2015_Jul_20_0914	s	s	10	1	SIC	479	RC	2	1	23VO	1	0	0.729667901993	417.0	40.0	414	44	1
1.7	2015_Jul_20_0914	s	s	10	1	SIC	480	ABS	0	2	24RD	0	1	0.799685955048	None	None	None	None	1
1.7	2015_Jul_20_0914	s	s	10	1	SIC	481	RC	1	2	23MD	1	0	1.84745192528	23.0	-48.0	20	-44	1
1.7	2015_Jul_20_0914	s	s	10	1	SIC	482	ABS	0	1	24RO	0	1	9.37789487839	None	None	None	None	1
1.7	2015_Jul_20_0914	s	s	10	1	SIC	483	ABS	2	2	24VD	0	1	2.36143088341	None	None	None	None	1
1.7	2015_Jul_20_0914	s	s	10	1	SIC	484	ABS	0	2	24RD	0	1	4.31450295448	None	None	None	None	1
1.7	2015_Jul_20_0914	s	s	10	1	SIC	485	RC	2	2	23VD	1	0	0.91238284111	-299.0	170.0	-306	163	1
1.7	2015_Jul_20_0914	s	s	10	1	SIC	486	ABS	1	2	24MD	0	1	0.968312978745	None	None	None	None	1
1.7	2015_Jul_20_0914	s	s	10	1	SIC	487	ABS	1	0	24MC	0	1	4.06026005745	None	None	None	None	1
1.7	2015_Jul_20_0914	s	s	10	1	SIC	488	RC	2	0	23VC	1	0	0.752573013306	452.0	177.0	448	178	1
1.7	2015_Jul_20_0914	s	s	10	1	SIC	489	ABS	1	1	24MO	0	1	7.60314917564	None	None	None	None	1
1.7	2015_Jul_20_0914	s	s	10	1	SIC	490	ABS	2	0	24VC	0	1	1.25887489319	None	None	None	None	1
1.7	2015_Jul_20_0914	s	s	10	1	SIC	491	ABS	2	1	24VO	0	1	0.631228923798	None	None	None	None	1
1.7	2015_Jul_20_0914	s	s	10	1	SIC	492	RC	0	1	23RO	0	1	7.65955400467	-57.0	123.0	None	None	0
1.7	2015_Jul_20_0914	s	s	10	1	SIC	493	RC	1	1	23MO	1	0	2.37251400948	-368.0	337.0	-374	335	1
1.7	2015_Jul_20_0914	s	s	10	1	SIC	494	RC	0	2	23RD	1	0	1.55314183235	78.0	-258.0	79	-263	1
1.7	2015_Jul_20_0914	s	s	10	1	SIC	495	RC	1	0	23MC	0	1	12.994122982	332.0	281.0	None	None	0
1.7	2015_Jul_20_0914	s	s	10	1	SIC	496	RC	2	1	23VO	1	0	1.36515593529	-78.0	-199.0	-74	-202	1
1.7	2015_Jul_20_0914	s	s	10	1	SIC	497	ABS	0	2	24RD	0	1	0.96462392807	None	None	None	None	1
1.7	2015_Jul_20_0914	s	s	10	1	SIC	498	RC	1	1	23MO	1	0	1.76224422455	211.0	209.0	207	208	1
1.7	2015_Jul_20_0914	s	s	10	1	SIC	499	ABS	2	1	24VO	0	1	2.5926668644	None	None	None	None	1
1.7	2015_Jul_20_0914	s	s	10	1	SIC	500	ABS	1	1	24MO	0	1	9.66298413277	None	None	None	None	1
1.7	2015_Jul_20_0914	s	s	10	1	SIC	501	RC	2	1	23VO	1	0	1.22058701515	362.0	318.0	369	318	1
1.7	2015_Jul_20_0914	s	s	10	1	SIC	502	RC	1	2	23MD	1	0	0.811536073685	92.0	-192.0	103	-188	1
1.7	2015_Jul_20_0914	s	s	10	1	SIC	503	RC	0	1	23RO	1	0	3.55035400391	-179.0	387.0	-177	392	1
1.7	2015_Jul_20_0914	s	s	10	1	SIC	504	RC	2	2	23VD	1	0	1.27425003052	320.0	387.0	323	396	1
1.7	2015_Jul_20_0914	s	s	10	1	SIC	505	ABS	0	1	24RO	0	1	8.11661195755	None	None	None	None	1
1.7	2015_Jul_20_0914	s	s	10	1	SIC	506	ABS	1	0	24MC	0	1	7.21233797073	None	None	None	None	1
1.7	2015_Jul_20_0914	s	s	10	1	SIC	507	RC	2	0	23VC	1	0	0.808810949326	-36.0	391.0	-38	388	1
1.7	2015_Jul_20_0914	s	s	10	1	SIC	508	ABS	1	2	24MD	0	1	1.05475997925	None	None	None	None	1
1.7	2015_Jul_20_0914	s	s	10	1	SIC	509	RC	0	2	23RD	1	0	1.22354698181	-9.0	372.0	-3	369	1
1.7	2015_Jul_20_0914	s	s	10	1	SIC	510	ABS	2	2	24VD	0	1	0.782293081284	None	None	None	None	1
1.7	2015_Jul_20_0914	s	s	10	1	SIC	511	RC	1	0	23MC	0	1	9.22368097305	-441.0	-250.0	None	None	0
1.7	2015_Jul_20_0914	s	s	10	1	SIC	512	ABS	2	0	24VC	0	1	1.21798181534	None	None	None	None	1
1.7	2015_Jul_20_0914	s	s	10	1	SIC	513	ABS	0	1	24RO	0	1	12.7060639858	None	None	None	None	1
1.7	2015_Jul_20_0914	s	s	10	1	SIC	514	RC	1	1	23MO	1	0	1.67845702171	-113.0	-196.0	-119	-201	1
1.7	2015_Jul_20_0914	s	s	10	1	SIC	515	ABS	2	0	24VC	0	1	0.841149091721	None	None	None	None	1
1.7	2015_Jul_20_0914	s	s	10	1	SIC	516	ABS	2	1	24VO	0	1	0.693732976913	None	None	None	None	1
1.7	2015_Jul_20_0914	s	s	10	1	SIC	517	RC	2	2	23VD	1	0	0.667757034302	494.0	-328.0	502	-325	1
1.7	2015_Jul_20_0914	s	s	10	1	SIC	518	ABS	1	2	24MD	0	1	1.26576590538	None	None	None	None	1
1.7	2015_Jul_20_0914	s	s	10	1	SIC	519	RC	1	0	23MC	1	0	5.37067198753	-513.0	-389.0	-517	-393	1
1.7	2015_Jul_20_0914	s	s	10	1	SIC	520	RC	0	2	23RD	1	0	1.40873813629	-357.0	-7.0	-362	-3	1
1.7	2015_Jul_20_0914	s	s	10	1	SIC	521	RC	1	2	23MD	1	0	2.84282398224	-11.0	-133.0	-11	-133	1
1.7	2015_Jul_20_0914	s	s	10	1	SIC	522	ABS	0	2	24RD	0	1	0.9762840271	None	None	None	None	1
1.7	2015_Jul_20_0914	s	s	10	1	SIC	523	RC	2	0	23VC	1	0	0.670291900635	104.0	-89.0	101	-93	1
1.7	2015_Jul_20_0914	s	s	10	1	SIC	524	RC	2	1	23VO	1	0	0.776160955429	81.0	105.0	77	105	1
1.7	2015_Jul_20_0914	s	s	10	1	SIC	525	RC	0	1	23RO	1	0	5.52934718132	-526.0	-63.0	-520	-58	1
1.7	2015_Jul_20_0914	s	s	10	1	SIC	526	ABS	1	0	24MC	0	1	13.0293731689	None	None	None	None	1
1.7	2015_Jul_20_0914	s	s	10	1	SIC	527	ABS	1	1	24MO	0	1	9.1636800766	None	None	None	None	1
1.7	2015_Jul_20_0914	s	s	10	1	SIC	528	ABS	2	2	24VD	0	1	0.84410405159	None	None	None	None	1
1.7	2015_Jul_20_0914	s	s	10	1	SIC	529	ABS	0	2	24RD	0	1	0.780429840088	None	None	None	None	1
1.7	2015_Jul_20_0914	s	s	10	1	SIC	530	RC	2	0	23VC	1	0	1.80894994736	9.0	378.0	10	374	1
1.7	2015_Jul_20_0914	s	s	10	1	SIC	531	ABS	1	2	24MD	0	1	0.653564214706	None	None	None	None	1
1.7	2015_Jul_20_0914	s	s	10	1	SIC	532	ABS	1	0	24MC	0	1	9.94551515579	None	None	None	None	1
1.7	2015_Jul_20_0914	s	s	10	1	SIC	533	RC	0	1	23RO	0	1	10.378480196	157.0	-288.0	None	None	0
1.7	2015_Jul_20_0914	s	s	10	1	SIC	534	ABS	0	1	24RO	0	1	6.63842988014	None	None	None	None	1
1.7	2015_Jul_20_0914	s	s	10	1	SIC	535	ABS	2	2	24VD	0	1	0.547029018402	None	None	None	None	1
1.7	2015_Jul_20_0914	s	s	10	1	SIC	536	RC	1	1	23MO	1	0	1.39543509483	-252.0	142.0	-238	150	1
1.7	2015_Jul_20_0914	s	s	10	1	SIC	537	ABS	1	1	24MO	0	1	10.0278980732	None	None	None	None	1
1.7	2015_Jul_20_0914	s	s	10	1	SIC	538	ABS	2	1	24VO	0	1	0.715057849884	None	None	None	None	1
1.7	2015_Jul_20_0914	s	s	10	1	SIC	539	RC	1	2	23MD	1	0	1.36473703384	241.0	-75.0	245	-78	1
1.7	2015_Jul_20_0914	s	s	10	1	SIC	540	ABS	2	0	24VC	0	1	0.726806879044	None	None	None	None	1
1.7	2015_Jul_20_0914	s	s	10	1	SIC	541	RC	2	2	23VD	1	0	0.867782115936	126.0	79.0	131	71	1
1.7	2015_Jul_20_0914	s	s	10	1	SIC	542	RC	0	2	23RD	1	0	0.936877965927	-325.0	-359.0	-328	-358	1
1.7	2015_Jul_20_0914	s	s	10	1	SIC	543	RC	1	0	23MC	0	1	4.93103408813	-344.0	338.0	None	None	0
1.7	2015_Jul_20_0914	s	s	10	1	SIC	544	RC	2	1	23VO	1	0	1.03198599815	-235.0	-303.0	-229	-305	1
1.7	2015_Jul_20_0914	s	s	10	1	SIC	545	ABS	2	0	24VC	0	1	1.02095985413	None	None	None	None	1
1.7	2015_Jul_20_0914	s	s	10	1	SIC	546	ABS	2	1	24VO	0	1	0.688263893127	None	None	None	None	1
1.7	2015_Jul_20_0914	s	s	10	1	SIC	547	ABS	2	2	24VD	0	1	0.976179838181	None	None	None	None	1
1.7	2015_Jul_20_0914	s	s	10	1	SIC	548	ABS	0	1	24RO	0	1	8.52922391891	None	None	None	None	1
1.7	2015_Jul_20_0914	s	s	10	1	SIC	549	ABS	1	0	24MC	0	1	3.64293909073	None	None	None	None	1
1.7	2015_Jul_20_0914	s	s	10	1	SIC	550	RC	0	1	23RO	1	0	1.89053916931	-208.0	188.0	-201	181	1
1.7	2015_Jul_20_0914	s	s	10	1	SIC	551	RC	2	0	23VC	1	0	0.623116970062	-197.0	130.0	-198	133	1
1.7	2015_Jul_20_0914	s	s	10	1	SIC	552	RC	1	0	23MC	0	1	4.2838511467	404.0	146.0	None	None	0
1.7	2015_Jul_20_0914	s	s	10	1	SIC	553	RC	0	2	23RD	1	0	1.30590987206	503.0	336.0	501	343	1
1.7	2015_Jul_20_0914	s	s	10	1	SIC	554	RC	1	2	23MD	1	0	0.999773025513	134.0	-161.0	138	-162	1
1.7	2015_Jul_20_0914	s	s	10	1	SIC	555	ABS	1	2	24MD	0	1	1.30311703682	None	None	None	None	1
1.7	2015_Jul_20_0914	s	s	10	1	SIC	556	RC	2	1	23VO	1	0	0.703480005264	-31.0	-243.0	-22	-237	1
1.7	2015_Jul_20_0914	s	s	10	1	SIC	557	RC	1	1	23MO	1	0	1.8355410099	312.0	251.0	314	257	1
1.7	2015_Jul_20_0914	s	s	10	1	SIC	558	ABS	0	2	24RD	0	1	0.823213100433	None	None	None	None	1
1.7	2015_Jul_20_0914	s	s	10	1	SIC	559	RC	2	2	23VD	1	0	0.653396844864	-39.0	-407.0	-35	-403	1
1.7	2015_Jul_20_0914	s	s	10	1	SIC	560	ABS	1	1	24MO	0	1	7.33231902122	None	None	None	None	1
1.7	2015_Jul_20_0914	s	s	10	1	SIC	561	RC	1	1	23MO	1	0	1.65335798264	2.0	-342.0	-3	-340	1
1.7	2015_Jul_20_0914	s	s	10	1	SIC	562	ABS	2	0	24VC	0	1	0.972431182861	None	None	None	None	1
1.7	2015_Jul_20_0914	s	s	10	1	SIC	563	RC	0	2	23RD	1	0	0.858589172363	-353.0	-152.0	-356	-154	1
1.7	2015_Jul_20_0914	s	s	10	1	SIC	564	ABS	1	2	24MD	0	1	1.72437882423	None	None	None	None	1
1.7	2015_Jul_20_0914	s	s	10	1	SIC	565	ABS	1	0	24MC	0	1	2.930341959	None	None	None	None	1
1.7	2015_Jul_20_0914	s	s	10	1	SIC	566	ABS	1	1	24MO	0	1	6.80266594887	None	None	None	None	1
1.7	2015_Jul_20_0914	s	s	10	1	SIC	567	ABS	2	2	24VD	0	1	0.841996908188	None	None	None	None	1
1.7	2015_Jul_20_0914	s	s	10	1	SIC	568	RC	1	0	23MC	0	1	7.07108592987	360.0	402.0	None	None	0
1.7	2015_Jul_20_0914	s	s	10	1	SIC	569	RC	1	2	23MD	0	1	0.55305480957	87.0	364.0	None	None	0
1.7	2015_Jul_20_0914	s	s	10	1	SIC	570	RC	2	1	23VO	1	0	1.47987294197	102.0	-167.0	108	-171	1
1.7	2015_Jul_20_0914	s	s	10	1	SIC	571	RC	2	2	23VD	1	0	1.19996595383	-267.0	319.0	-271	322	1
1.7	2015_Jul_20_0914	s	s	10	1	SIC	572	ABS	2	1	24VO	0	1	0.689124107361	None	None	None	None	1
1.7	2015_Jul_20_0914	s	s	10	1	SIC	573	ABS	0	1	24RO	0	1	10.0631361008	None	None	None	None	1
1.7	2015_Jul_20_0914	s	s	10	1	SIC	574	RC	0	1	23RO	0	1	5.44925498962	-309.0	-91.0	None	None	0
1.7	2015_Jul_20_0914	s	s	10	1	SIC	575	ABS	0	2	24RD	0	1	0.712121963501	None	None	None	None	1
1.7	2015_Jul_20_0914	s	s	10	1	SIC	576	RC	2	0	23VC	1	0	0.818783998489	-163.0	-352.0	-156	-356	1
1.7	2015_Jul_20_0914	s	s	10	1	SIC	577	ABS	1	0	24MC	0	1	2.61244702339	None	None	None	None	1
1.7	2015_Jul_20_0914	s	s	10	1	SIC	578	RC	1	2	23MD	1	0	1.07088899612	-538.0	-329.0	-539	-336	1
1.7	2015_Jul_20_0914	s	s	10	1	SIC	579	ABS	0	1	24RO	0	1	7.52065110207	None	None	None	None	1
1.7	2015_Jul_20_0914	s	s	10	1	SIC	580	ABS	2	0	24VC	0	1	1.52494311333	None	None	None	None	1
1.7	2015_Jul_20_0914	s	s	10	1	SIC	581	ABS	1	2	24MD	0	1	0.635015010834	None	None	None	None	1
1.7	2015_Jul_20_0914	s	s	10	1	SIC	582	RC	0	1	23RO	1	0	3.44811606407	-540.0	365.0	-535	366	1
1.7	2015_Jul_20_0914	s	s	10	1	SIC	583	RC	0	2	23RD	1	0	0.712486982346	-453.0	367.0	-457	366	1
1.7	2015_Jul_20_0914	s	s	10	1	SIC	584	ABS	2	1	24VO	0	1	0.705595970154	None	None	None	None	1
1.7	2015_Jul_20_0914	s	s	10	1	SIC	585	RC	1	0	23MC	1	0	1.08249402046	-469.0	289.0	-473	294	1
1.7	2015_Jul_20_0914	s	s	10	1	SIC	586	ABS	1	1	24MO	0	1	4.56622982025	None	None	None	None	1
1.7	2015_Jul_20_0914	s	s	10	1	SIC	587	RC	2	2	23VD	1	0	0.702955961227	-194.0	-292.0	-188	-289	1
1.7	2015_Jul_20_0914	s	s	10	1	SIC	588	RC	1	1	23MO	1	0	2.34847092628	418.0	205.0	419	203	1
1.7	2015_Jul_20_0914	s	s	10	1	SIC	589	ABS	0	2	24RD	0	1	0.843386888504	None	None	None	None	1
1.7	2015_Jul_20_0914	s	s	10	1	SIC	590	RC	2	0	23VC	1	0	0.641168117523	-81.0	-153.0	-78	-158	1
1.7	2015_Jul_20_0914	s	s	10	1	SIC	591	RC	2	1	23VO	1	0	0.858669996262	-96.0	-348.0	-88	-347	1
1.7	2015_Jul_20_0914	s	s	10	1	SIC	592	ABS	2	2	24VD	0	1	0.559938192368	None	None	None	None	1
