Version	Date	Stimuli	Method	Subject	Session	Condition	Trial	Target	Channel1	Channel2	Distractors	LMouseButton	RMouseButton	RT	TargetX	TargetY	ResponseX	ResponseY	Correct
1.7	2015_Jul_22_0912	s	s	10	3	Capacity	1	ABS	0	2	24RD	0	1	1.43540000916	None	None	None	None	1
1.7	2015_Jul_22_0912	s	s	10	3	Capacity	2	RC	0	2	23RD	1	0	0.750210046768	-268.0	246.0	-261	243	1
1.7	2015_Jul_22_0912	s	s	10	3	Capacity	3	RC	0	1	23RO	1	0	2.83594894409	-477.0	-165.0	-484	-169	1
1.7	2015_Jul_22_0912	s	s	10	3	Capacity	4	ABS	0	1	24RO	0	1	3.73746204376	None	None	None	None	1
1.7	2015_Jul_22_0912	s	s	10	3	Capacity	5	ABS	0	2	24RD	0	1	1.98490405083	None	None	None	None	1
1.7	2015_Jul_22_0912	s	s	10	3	Capacity	6	RC	0	1	23RO	1	0	1.56076717377	-290.0	-327.0	-295	-318	1
1.7	2015_Jul_22_0912	s	s	10	3	Capacity	7	ABS	0	1	24RO	0	1	3.93688392639	None	None	None	None	1
1.7	2015_Jul_22_0912	s	s	10	3	Capacity	8	RC	0	2	23RD	1	0	0.764414072037	457.0	-262.0	464	-261	1
1.7	2015_Jul_22_0912	s	s	10	3	Capacity	9	RC	0	1	23RO	1	0	2.09808897972	476.0	-398.0	482	-403	1
1.7	2015_Jul_22_0912	s	s	10	3	Capacity	10	RC	0	2	23RD	1	0	0.937551021576	265.0	287.0	260	289	1
1.7	2015_Jul_22_0912	s	s	10	3	Capacity	11	ABS	0	2	24RD	0	1	0.985054016113	None	None	None	None	1
1.7	2015_Jul_22_0912	s	s	10	3	Capacity	12	ABS	0	1	24RO	0	1	5.0960650444	None	None	None	None	1
1.7	2015_Jul_22_0912	s	s	10	3	Capacity	13	RC	0	2	23RD	1	0	0.506186008453	428.0	-193.0	426	-196	1
1.7	2015_Jul_22_0912	s	s	10	3	Capacity	14	RC	0	1	23RO	0	1	3.60117292404	-157.0	-208.0	None	None	0
1.7	2015_Jul_22_0912	s	s	10	3	Capacity	15	ABS	0	1	24RO	0	1	4.19577789307	None	None	None	None	1
1.7	2015_Jul_22_0912	s	s	10	3	Capacity	16	ABS	0	2	24RD	0	1	1.78853583336	None	None	None	None	1
1.7	2015_Jul_22_0912	s	s	10	3	Capacity	17	ABS	0	1	24RO	0	1	4.51345491409	None	None	None	None	1
1.7	2015_Jul_22_0912	s	s	10	3	Capacity	18	RC	0	1	23RO	0	1	5.86724495888	348.0	150.0	None	None	0
1.7	2015_Jul_22_0912	s	s	10	3	Capacity	19	ABS	0	2	24RD	0	1	2.44765996933	None	None	None	None	1
1.7	2015_Jul_22_0912	s	s	10	3	Capacity	20	RC	0	2	23RD	1	0	0.43168592453	349.0	9.0	348	12	1
1.7	2015_Jul_22_0912	s	s	10	3	Capacity	21	ABS	0	1	24RO	0	1	4.07202100754	None	None	None	None	1
1.7	2015_Jul_22_0912	s	s	10	3	Capacity	22	RC	0	2	23RD	1	0	0.540698051453	-469.0	161.0	-459	164	1
1.7	2015_Jul_22_0912	s	s	10	3	Capacity	23	RC	0	1	23RO	1	0	3.80857896805	64.0	408.0	67	404	1
1.7	2015_Jul_22_0912	s	s	10	3	Capacity	24	ABS	0	2	24RD	0	1	1.56233787537	None	None	None	None	1
1.7	2015_Jul_22_0912	s	s	10	3	Capacity	25	ABS	0	2	24RD	0	1	1.98406100273	None	None	None	None	1
1.7	2015_Jul_22_0912	s	s	10	3	Capacity	26	RC	0	1	23RO	1	0	1.20032310486	9.0	133.0	20	136	1
1.7	2015_Jul_22_0912	s	s	10	3	Capacity	27	ABS	0	1	24RO	0	1	4.50748515129	None	None	None	None	1
1.7	2015_Jul_22_0912	s	s	10	3	Capacity	28	RC	0	2	23RD	1	0	0.811631917953	-356.0	-355.0	-355	-347	1
1.7	2015_Jul_22_0912	s	s	10	3	Capacity	29	RC	0	1	23RO	1	0	3.58451890945	-320.0	-152.0	-323	-161	1
1.7	2015_Jul_22_0912	s	s	10	3	Capacity	30	RC	0	2	23RD	1	0	0.737369060516	-451.0	-355.0	-451	-349	1
1.7	2015_Jul_22_0912	s	s	10	3	Capacity	31	ABS	0	1	24RO	0	1	6.31751799583	None	None	None	None	1
1.7	2015_Jul_22_0912	s	s	10	3	Capacity	32	ABS	0	2	24RD	0	1	1.17683696747	None	None	None	None	1
1.7	2015_Jul_22_0912	s	s	10	3	Capacity	33	RC	0	2	23RD	1	0	0.599651098251	-466.0	-201.0	-456	-202	1
1.7	2015_Jul_22_0912	s	s	10	3	Capacity	34	ABS	0	1	24RO	0	1	3.94252109528	None	None	None	None	1
1.7	2015_Jul_22_0912	s	s	10	3	Capacity	35	ABS	0	2	24RD	0	1	1.89446806908	None	None	None	None	1
1.7	2015_Jul_22_0912	s	s	10	3	Capacity	36	RC	0	1	23RO	1	0	1.81190395355	-67.0	-275.0	-60	-268	1
1.7	2015_Jul_22_0912	s	s	10	3	Capacity	37	RC	0	1	23RO	0	1	3.38683581352	131.0	408.0	None	None	0
1.7	2015_Jul_22_0912	s	s	10	3	Capacity	38	RC	0	2	23RD	1	0	0.634953975677	55.0	-154.0	60	-160	1
1.7	2015_Jul_22_0912	s	s	10	3	Capacity	39	ABS	0	2	24RD	0	1	0.86531996727	None	None	None	None	1
1.7	2015_Jul_22_0912	s	s	10	3	Capacity	40	ABS	0	1	24RO	0	1	5.87053990364	None	None	None	None	1
1.7	2015_Jul_22_0912	s	s	10	3	Capacity	41	RC	0	2	23RD	1	0	0.688861846924	381.0	-106.0	377	-102	1
1.7	2015_Jul_22_0912	s	s	10	3	Capacity	42	ABS	0	2	24RD	0	1	1.99678301811	None	None	None	None	1
1.7	2015_Jul_22_0912	s	s	10	3	Capacity	43	ABS	0	1	24RO	0	1	5.50815916061	None	None	None	None	1
1.7	2015_Jul_22_0912	s	s	10	3	Capacity	44	RC	0	1	23RO	1	0	1.72969293594	315.0	111.0	320	100	1
1.7	2015_Jul_22_0912	s	s	10	3	Capacity	45	RC	0	2	23RD	1	0	1.17649507523	17.0	-90.0	11	-95	1
1.7	2015_Jul_22_0912	s	s	10	3	Capacity	46	RC	0	1	23RO	1	0	1.8473880291	319.0	338.0	315	334	1
1.7	2015_Jul_22_0912	s	s	10	3	Capacity	47	ABS	0	2	24RD	0	1	1.30598902702	None	None	None	None	1
1.7	2015_Jul_22_0912	s	s	10	3	Capacity	48	ABS	0	1	24RO	0	1	5.53966999054	None	None	None	None	1
1.7	2015_Jul_22_0912	s	s	10	3	Capacity	49	RC	0	1	23RO	0	1	4.13914513588	480.0	-238.0	None	None	0
1.7	2015_Jul_22_0912	s	s	10	3	Capacity	50	RC	0	2	23RD	1	0	0.596831083298	167.0	-272.0	168	-269	1
1.7	2015_Jul_22_0912	s	s	10	3	Capacity	51	ABS	0	1	24RO	0	1	4.72536110878	None	None	None	None	1
1.7	2015_Jul_22_0912	s	s	10	3	Capacity	52	ABS	0	2	24RD	0	1	1.18001103401	None	None	None	None	1
1.7	2015_Jul_22_0912	s	s	10	3	Capacity	53	RC	0	1	23RO	1	0	1.58464193344	212.0	204.0	213	201	1
1.7	2015_Jul_22_0912	s	s	10	3	Capacity	54	ABS	0	2	24RD	0	1	0.764522075653	None	None	None	None	1
1.7	2015_Jul_22_0912	s	s	10	3	Capacity	55	ABS	0	1	24RO	0	1	3.19598913193	None	None	None	None	1
1.7	2015_Jul_22_0912	s	s	10	3	Capacity	56	RC	0	2	23RD	1	0	0.724310874939	355.0	-43.0	350	-40	1
1.7	2015_Jul_22_0912	s	s	10	3	Capacity	57	RC	0	2	23RD	1	0	0.667767047882	319.0	-155.0	317	-157	1
1.7	2015_Jul_22_0912	s	s	10	3	Capacity	58	ABS	0	2	24RD	0	1	1.5830180645	None	None	None	None	1
1.7	2015_Jul_22_0912	s	s	10	3	Capacity	59	ABS	0	1	24RO	0	1	5.3382589817	None	None	None	None	1
1.7	2015_Jul_22_0912	s	s	10	3	Capacity	60	RC	0	1	23RO	1	0	1.891685009	-73.0	65.0	-63	66	1
1.7	2015_Jul_22_0912	s	s	10	3	Capacity	61	ABS	0	1	24RO	0	1	5.62297391891	None	None	None	None	1
1.7	2015_Jul_22_0912	s	s	10	3	Capacity	62	RC	0	2	23RD	1	0	0.787919998169	-388.0	20.0	-380	16	1
1.7	2015_Jul_22_0912	s	s	10	3	Capacity	63	ABS	0	2	24RD	0	1	1.03514313698	None	None	None	None	1
1.7	2015_Jul_22_0912	s	s	10	3	Capacity	64	RC	0	1	23RO	1	0	2.78087902069	79.0	-310.0	87	-309	1
1.7	2015_Jul_22_0912	s	s	10	3	Capacity	65	ABS	0	2	24RD	0	1	1.50344991684	None	None	None	None	1
1.7	2015_Jul_22_0912	s	s	10	3	Capacity	66	ABS	0	1	24RO	0	1	5.53158402443	None	None	None	None	1
1.7	2015_Jul_22_0912	s	s	10	3	Capacity	67	RC	0	1	23RO	1	0	3.74249100685	61.0	-265.0	62	-260	1
1.7	2015_Jul_22_0912	s	s	10	3	Capacity	68	RC	0	2	23RD	1	0	2.14189982414	-126.0	-328.0	-123	-332	1
1.7	2015_Jul_22_0912	s	s	10	3	Capacity	69	ABS	0	1	24RO	0	1	5.06759691238	None	None	None	None	1
1.7	2015_Jul_22_0912	s	s	10	3	Capacity	70	RC	0	2	23RD	1	0	0.570425987244	49.0	25.0	46	16	1
1.7	2015_Jul_22_0912	s	s	10	3	Capacity	71	ABS	0	2	24RD	0	1	1.65297484398	None	None	None	None	1
1.7	2015_Jul_22_0912	s	s	10	3	Capacity	72	RC	0	1	23RO	1	0	8.66258406639	205.0	277.0	202	272	1
1.7	2015_Jul_22_0912	s	s	10	3	Capacity	73	RC	0	1	23RO	0	1	3.08351111412	-271.0	29.0	None	None	0
1.7	2015_Jul_22_0912	s	s	10	3	Capacity	74	ABS	0	2	24RD	0	1	1.46810793877	None	None	None	None	1
1.7	2015_Jul_22_0912	s	s	10	3	Capacity	75	ABS	0	1	24RO	0	1	8.09187197685	None	None	None	None	1
1.7	2015_Jul_22_0912	s	s	10	3	Capacity	76	RC	0	2	23RD	1	0	0.735831022263	-114.0	-365.0	-109	-366	1
1.7	2015_Jul_22_0912	s	s	10	3	Capacity	77	ABS	0	1	24RO	0	1	4.1971180439	None	None	None	None	1
1.7	2015_Jul_22_0912	s	s	10	3	Capacity	78	RC	0	2	23RD	1	0	0.725889921188	-457.0	-135.0	-459	-129	1
1.7	2015_Jul_22_0912	s	s	10	3	Capacity	79	RC	0	1	23RO	0	1	4.1021001339	-119.0	-73.0	None	None	0
1.7	2015_Jul_22_0912	s	s	10	3	Capacity	80	ABS	0	2	24RD	0	1	0.911816120148	None	None	None	None	1
1.7	2015_Jul_22_0912	s	s	10	3	Capacity	81	RC	0	2	23RD	1	0	0.631271839142	-394.0	165.0	-395	162	1
1.7	2015_Jul_22_0912	s	s	10	3	Capacity	82	RC	0	1	23RO	0	1	4.7866499424	406.0	87.0	None	None	0
1.7	2015_Jul_22_0912	s	s	10	3	Capacity	83	ABS	0	1	24RO	0	1	3.01315999031	None	None	None	None	1
1.7	2015_Jul_22_0912	s	s	10	3	Capacity	84	ABS	0	2	24RD	0	1	0.764474868774	None	None	None	None	1
1.7	2015_Jul_22_0912	s	s	10	3	Capacity	85	ABS	0	1	24RO	0	1	3.66011500359	None	None	None	None	1
1.7	2015_Jul_22_0912	s	s	10	3	Capacity	86	ABS	0	2	24RD	0	1	1.04733681679	None	None	None	None	1
1.7	2015_Jul_22_0912	s	s	10	3	Capacity	87	RC	0	2	23RD	1	0	0.889518976212	232.0	-50.0	233	-47	1
1.7	2015_Jul_22_0912	s	s	10	3	Capacity	88	RC	0	1	23RO	0	1	4.6807448864	-109.0	354.0	None	None	0
1.7	2015_Jul_22_0912	s	s	10	3	Capacity	89	ABS	0	1	24RO	0	1	6.1553030014	None	None	None	None	1
1.7	2015_Jul_22_0912	s	s	10	3	Capacity	90	ABS	0	2	24RD	0	1	1.13784694672	None	None	None	None	1
1.7	2015_Jul_22_0912	s	s	10	3	Capacity	91	RC	0	2	23RD	1	0	0.634980916977	-181.0	132.0	-181	135	1
1.7	2015_Jul_22_0912	s	s	10	3	Capacity	92	RC	0	1	23RO	0	1	6.06795811653	194.0	330.0	None	None	0
1.7	2015_Jul_22_0912	s	s	10	3	Capacity	1	RC	2	0	23VC	1	0	0.535804033279	-220.0	16.0	-222	21	1
1.7	2015_Jul_22_0912	s	s	10	3	Capacity	2	ABS	2	0	24VC	0	1	0.740854978561	None	None	None	None	1
1.7	2015_Jul_22_0912	s	s	10	3	Capacity	3	RC	1	0	23MC	1	0	3.09065413475	411.0	386.0	412	381	1
1.7	2015_Jul_22_0912	s	s	10	3	Capacity	4	ABS	1	0	24MC	0	1	2.81857800484	None	None	None	None	1
1.7	2015_Jul_22_0912	s	s	10	3	Capacity	5	ABS	2	0	24VC	0	1	0.726181030273	None	None	None	None	1
1.7	2015_Jul_22_0912	s	s	10	3	Capacity	6	RC	2	0	23VC	1	0	0.558931112289	20.0	183.0	30	190	1
1.7	2015_Jul_22_0912	s	s	10	3	Capacity	7	ABS	1	0	24MC	0	1	2.83312797546	None	None	None	None	1
1.7	2015_Jul_22_0912	s	s	10	3	Capacity	8	RC	1	0	23MC	1	0	2.29470682144	-239.0	-310.0	-243	-308	1
1.7	2015_Jul_22_0912	s	s	10	3	Capacity	9	ABS	2	0	24VC	0	1	0.682092189789	None	None	None	None	1
1.7	2015_Jul_22_0912	s	s	10	3	Capacity	10	RC	2	0	23VC	1	0	0.682083129883	188.0	197.0	187	200	1
1.7	2015_Jul_22_0912	s	s	10	3	Capacity	11	RC	1	0	23MC	0	1	2.70657300949	-434.0	-258.0	None	None	0
1.7	2015_Jul_22_0912	s	s	10	3	Capacity	12	ABS	1	0	24MC	0	1	3.3422369957	None	None	None	None	1
1.7	2015_Jul_22_0912	s	s	10	3	Capacity	13	ABS	2	0	24VC	0	1	0.820436954498	None	None	None	None	1
1.7	2015_Jul_22_0912	s	s	10	3	Capacity	14	ABS	1	0	24MC	0	1	2.58898806572	None	None	None	None	1
1.7	2015_Jul_22_0912	s	s	10	3	Capacity	15	RC	1	0	23MC	1	0	1.96232795715	-400.0	-156.0	-402	-155	1
1.7	2015_Jul_22_0912	s	s	10	3	Capacity	16	RC	2	0	23VC	1	0	0.600059986115	-375.0	-293.0	-387	-291	1
1.7	2015_Jul_22_0912	s	s	10	3	Capacity	17	ABS	1	0	24MC	0	1	3.68359184265	None	None	None	None	1
1.7	2015_Jul_22_0912	s	s	10	3	Capacity	18	RC	1	0	23MC	1	0	2.18506813049	102.0	-23.0	102	-27	1
1.7	2015_Jul_22_0912	s	s	10	3	Capacity	19	ABS	2	0	24VC	0	1	0.846961975098	None	None	None	None	1
1.7	2015_Jul_22_0912	s	s	10	3	Capacity	20	RC	2	0	23VC	1	0	0.481981039047	-411.0	-259.0	-409	-253	1
1.7	2015_Jul_22_0912	s	s	10	3	Capacity	21	ABS	2	0	24VC	0	1	0.938368082047	None	None	None	None	1
1.7	2015_Jul_22_0912	s	s	10	3	Capacity	22	ABS	1	0	24MC	1	0	1.64226198196	None	None	-453	9	0
1.7	2015_Jul_22_0912	s	s	10	3	Capacity	23	RC	2	0	23VC	1	0	0.820405006409	342.0	410.0	347	406	1
1.7	2015_Jul_22_0912	s	s	10	3	Capacity	24	RC	1	0	23MC	1	0	3.05971813202	299.0	-410.0	303	-420	1
1.7	2015_Jul_22_0912	s	s	10	3	Capacity	25	RC	2	0	23VC	1	0	0.620128154755	94.0	-115.0	90	-112	1
1.7	2015_Jul_22_0912	s	s	10	3	Capacity	26	ABS	1	0	24MC	0	1	3.17251014709	None	None	None	None	1
1.7	2015_Jul_22_0912	s	s	10	3	Capacity	27	RC	1	0	23MC	1	0	0.753008127213	-146.0	2.0	-142	2	1
1.7	2015_Jul_22_0912	s	s	10	3	Capacity	28	ABS	2	0	24VC	0	1	1.16172599792	None	None	None	None	1
1.7	2015_Jul_22_0912	s	s	10	3	Capacity	29	ABS	1	0	24MC	0	1	7.14416885376	None	None	None	None	1
1.7	2015_Jul_22_0912	s	s	10	3	Capacity	30	ABS	2	0	24VC	0	1	1.51235890388	None	None	None	None	1
1.7	2015_Jul_22_0912	s	s	10	3	Capacity	31	RC	1	0	23MC	0	1	6.40257620811	-356.0	-391.0	None	None	0
1.7	2015_Jul_22_0912	s	s	10	3	Capacity	32	RC	2	0	23VC	1	0	0.665270090103	-364.0	61.0	-360	65	1
1.7	2015_Jul_22_0912	s	s	10	3	Capacity	33	RC	1	0	23MC	1	0	4.73799490929	267.0	173.0	264	169	1
1.7	2015_Jul_22_0912	s	s	10	3	Capacity	34	ABS	1	0	24MC	0	1	3.38932204247	None	None	None	None	1
1.7	2015_Jul_22_0912	s	s	10	3	Capacity	35	RC	2	0	23VC	1	0	0.630109071732	-129.0	263.0	-130	261	1
1.7	2015_Jul_22_0912	s	s	10	3	Capacity	36	ABS	2	0	24VC	0	1	0.623237133026	None	None	None	None	1
1.7	2015_Jul_22_0912	s	s	10	3	Capacity	37	ABS	2	0	24VC	0	1	0.701307058334	None	None	None	None	1
1.7	2015_Jul_22_0912	s	s	10	3	Capacity	38	RC	2	0	23VC	1	0	0.500265836716	142.0	-10.0	135	-12	1
1.7	2015_Jul_22_0912	s	s	10	3	Capacity	39	RC	1	0	23MC	1	0	0.901896953583	-314.0	60.0	-301	69	1
1.7	2015_Jul_22_0912	s	s	10	3	Capacity	40	ABS	1	0	24MC	0	1	3.03119397163	None	None	None	None	1
1.7	2015_Jul_22_0912	s	s	10	3	Capacity	41	RC	1	0	23MC	1	0	2.17692995071	10.0	370.0	12	367	1
1.7	2015_Jul_22_0912	s	s	10	3	Capacity	42	ABS	1	0	24MC	0	1	4.16616606712	None	None	None	None	1
1.7	2015_Jul_22_0912	s	s	10	3	Capacity	43	ABS	2	0	24VC	0	1	1.14114785194	None	None	None	None	1
1.7	2015_Jul_22_0912	s	s	10	3	Capacity	44	RC	2	0	23VC	1	0	0.668258905411	418.0	96.0	421	93	1
1.7	2015_Jul_22_0912	s	s	10	3	Capacity	45	RC	1	0	23MC	1	0	7.08032178879	331.0	-262.0	331	-256	1
1.7	2015_Jul_22_0912	s	s	10	3	Capacity	46	ABS	1	0	24MC	0	1	2.81238913536	None	None	None	None	1
1.7	2015_Jul_22_0912	s	s	10	3	Capacity	47	ABS	2	0	24VC	0	1	0.729119062424	None	None	None	None	1
1.7	2015_Jul_22_0912	s	s	10	3	Capacity	48	RC	2	0	23VC	1	0	0.552577972412	-497.0	-344.0	-495	-345	1
1.7	2015_Jul_22_0912	s	s	10	3	Capacity	49	ABS	2	0	24VC	0	1	0.599627971649	None	None	None	None	1
1.7	2015_Jul_22_0912	s	s	10	3	Capacity	50	RC	1	0	23MC	1	0	1.10137295723	-239.0	109.0	-239	107	1
1.7	2015_Jul_22_0912	s	s	10	3	Capacity	51	ABS	1	0	24MC	0	1	3.40733289719	None	None	None	None	1
1.7	2015_Jul_22_0912	s	s	10	3	Capacity	52	RC	2	0	23VC	1	0	0.526355028152	-125.0	-289.0	-117	-286	1
1.7	2015_Jul_22_0912	s	s	10	3	Capacity	53	RC	1	0	23MC	1	0	8.36815190315	-361.0	-248.0	-355	-252	1
1.7	2015_Jul_22_0912	s	s	10	3	Capacity	54	RC	2	0	23VC	1	0	0.631528139114	-398.0	-305.0	-403	-308	1
1.7	2015_Jul_22_0912	s	s	10	3	Capacity	55	ABS	2	0	24VC	0	1	0.783086061478	None	None	None	None	1
1.7	2015_Jul_22_0912	s	s	10	3	Capacity	56	ABS	1	0	24MC	0	1	4.15443587303	None	None	None	None	1
1.7	2015_Jul_22_0912	s	s	10	3	Capacity	57	ABS	2	0	24VC	0	1	1.0654938221	None	None	None	None	1
1.7	2015_Jul_22_0912	s	s	10	3	Capacity	58	RC	1	0	23MC	1	0	8.45077300072	95.0	-145.0	93	-150	1
1.7	2015_Jul_22_0912	s	s	10	3	Capacity	59	ABS	1	0	24MC	0	1	8.65081501007	None	None	None	None	1
1.7	2015_Jul_22_0912	s	s	10	3	Capacity	60	RC	2	0	23VC	1	0	0.96462392807	-286.0	384.0	-283	385	1
1.7	2015_Jul_22_0912	s	s	10	3	Capacity	61	RC	2	0	23VC	1	0	0.806512832642	-94.0	-153.0	-85	-152	1
1.7	2015_Jul_22_0912	s	s	10	3	Capacity	62	ABS	2	0	24VC	0	1	0.85396194458	None	None	None	None	1
1.7	2015_Jul_22_0912	s	s	10	3	Capacity	63	ABS	1	0	24MC	0	1	3.0915760994	None	None	None	None	1
1.7	2015_Jul_22_0912	s	s	10	3	Capacity	64	RC	1	0	23MC	1	0	4.31675577164	-59.0	228.0	-55	234	1
1.7	2015_Jul_22_0912	s	s	10	3	Capacity	65	ABS	1	0	24MC	0	1	4.05470204353	None	None	None	None	1
1.7	2015_Jul_22_0912	s	s	10	3	Capacity	66	RC	2	0	23VC	1	0	0.670392990112	-230.0	81.0	-221	78	1
1.7	2015_Jul_22_0912	s	s	10	3	Capacity	67	ABS	2	0	24VC	0	1	1.31755495071	None	None	None	None	1
1.7	2015_Jul_22_0912	s	s	10	3	Capacity	68	RC	1	0	23MC	0	1	3.43632698059	463.0	-359.0	None	None	0
1.7	2015_Jul_22_0912	s	s	10	3	Capacity	69	ABS	1	0	24MC	0	1	2.05308508873	None	None	None	None	1
1.7	2015_Jul_22_0912	s	s	10	3	Capacity	70	ABS	2	0	24VC	0	1	0.583155155182	None	None	None	None	1
1.7	2015_Jul_22_0912	s	s	10	3	Capacity	71	RC	1	0	23MC	0	1	2.04749202728	260.0	-394.0	None	None	0
1.7	2015_Jul_22_0912	s	s	10	3	Capacity	72	RC	2	0	23VC	1	0	0.682157993317	311.0	56.0	313	64	1
1.7	2015_Jul_22_0912	s	s	10	3	Capacity	73	RC	1	0	23MC	0	1	1.68922710419	324.0	-82.0	None	None	0
1.7	2015_Jul_22_0912	s	s	10	3	Capacity	74	ABS	1	0	24MC	0	1	1.01155877113	None	None	None	None	1
1.7	2015_Jul_22_0912	s	s	10	3	Capacity	75	RC	2	0	23VC	1	0	0.60843706131	58.0	-223.0	65	-222	1
1.7	2015_Jul_22_0912	s	s	10	3	Capacity	76	ABS	2	0	24VC	0	1	0.714965105057	None	None	None	None	1
1.7	2015_Jul_22_0912	s	s	10	3	Capacity	77	RC	2	0	23VC	1	0	0.576146125793	299.0	-302.0	302	-300	1
1.7	2015_Jul_22_0912	s	s	10	3	Capacity	78	ABS	2	0	24VC	0	1	0.785290002823	None	None	None	None	1
1.7	2015_Jul_22_0912	s	s	10	3	Capacity	79	ABS	1	0	24MC	0	1	1.77398681641	None	None	None	None	1
1.7	2015_Jul_22_0912	s	s	10	3	Capacity	80	RC	1	0	23MC	0	1	6.29420804977	520.0	-252.0	None	None	0
1.7	2015_Jul_22_0912	s	s	10	3	Capacity	81	ABS	2	0	24VC	0	1	0.841063976288	None	None	None	None	1
1.7	2015_Jul_22_0912	s	s	10	3	Capacity	82	RC	2	0	23VC	1	0	0.770802974701	16.0	378.0	19	383	1
1.7	2015_Jul_22_0912	s	s	10	3	Capacity	83	RC	1	0	23MC	1	0	2.21227788925	160.0	167.0	160	167	1
1.7	2015_Jul_22_0912	s	s	10	3	Capacity	84	ABS	1	0	24MC	0	1	2.33879113197	None	None	None	None	1
1.7	2015_Jul_22_0912	s	s	10	3	Capacity	85	ABS	2	0	24VC	0	1	0.870394945145	None	None	None	None	1
1.7	2015_Jul_22_0912	s	s	10	3	Capacity	86	RC	1	0	23MC	1	0	3.1773891449	-76.0	382.0	-71	384	1
1.7	2015_Jul_22_0912	s	s	10	3	Capacity	87	RC	2	0	23VC	1	0	0.536901950836	504.0	-77.0	508	-75	1
1.7	2015_Jul_22_0912	s	s	10	3	Capacity	88	ABS	1	0	24MC	0	1	6.29027414322	None	None	None	None	1
1.7	2015_Jul_22_0912	s	s	10	3	Capacity	89	ABS	1	0	24MC	0	1	4.36624002457	None	None	None	None	1
1.7	2015_Jul_22_0912	s	s	10	3	Capacity	90	RC	2	0	23VC	1	0	0.641476869583	-196.0	-299.0	-197	-306	1
1.7	2015_Jul_22_0912	s	s	10	3	Capacity	91	RC	1	0	23MC	0	1	4.01319098473	-516.0	-85.0	None	None	0
1.7	2015_Jul_22_0912	s	s	10	3	Capacity	92	ABS	2	0	24VC	0	1	0.811595916748	None	None	None	None	1
1.7	2015_Jul_22_0912	s	s	10	3	SIC	1	RC	1	1	23MO	1	0	1.23250699043	514.0	223.0	518	226	1
1.7	2015_Jul_22_0912	s	s	10	3	SIC	2	ABS	1	0	24MC	1	0	7.10378599167	None	None	-514	144	0
1.7	2015_Jul_22_0912	s	s	10	3	SIC	3	RC	2	2	23VD	1	0	0.693843841553	43.0	-106.0	49	-115	1
1.7	2015_Jul_22_0912	s	s	10	3	SIC	4	RC	0	2	23RD	1	0	0.569829940796	-446.0	85.0	-440	95	1
1.7	2015_Jul_22_0912	s	s	10	3	SIC	5	ABS	2	0	24VC	1	0	0.882177114487	None	None	345	-197	0
1.7	2015_Jul_22_0912	s	s	10	3	SIC	6	ABS	1	2	24MD	0	1	2.00559520721	None	None	None	None	1
1.7	2015_Jul_22_0912	s	s	10	3	SIC	7	ABS	0	2	24RD	0	1	2.10166311264	None	None	None	None	1
1.7	2015_Jul_22_0912	s	s	10	3	SIC	8	ABS	1	1	24MO	0	1	4.63148903847	None	None	None	None	1
1.7	2015_Jul_22_0912	s	s	10	3	SIC	9	RC	0	1	23RO	1	0	3.90173101425	10.0	-209.0	12	-208	1
1.7	2015_Jul_22_0912	s	s	10	3	SIC	10	ABS	2	2	24VD	0	1	0.854828834534	None	None	None	None	1
1.7	2015_Jul_22_0912	s	s	10	3	SIC	11	ABS	2	1	24VO	0	1	0.982405900955	None	None	None	None	1
1.7	2015_Jul_22_0912	s	s	10	3	SIC	12	RC	1	0	23MC	1	0	2.89503598213	-527.0	-94.0	-523	-92	1
1.7	2015_Jul_22_0912	s	s	10	3	SIC	13	RC	1	2	23MD	1	0	0.703042984009	-356.0	241.0	-354	238	1
1.7	2015_Jul_22_0912	s	s	10	3	SIC	14	RC	2	1	23VO	1	0	0.623076915741	-427.0	362.0	-426	363	1
1.7	2015_Jul_22_0912	s	s	10	3	SIC	15	RC	2	0	23VC	1	0	0.870416164398	325.0	-64.0	333	-56	1
1.7	2015_Jul_22_0912	s	s	10	3	SIC	16	ABS	0	1	24RO	0	1	7.24521708488	None	None	None	None	1
1.7	2015_Jul_22_0912	s	s	10	3	SIC	17	RC	2	1	23VO	1	0	0.764484882355	84.0	373.0	83	372	1
1.7	2015_Jul_22_0912	s	s	10	3	SIC	18	RC	2	0	23VC	1	0	0.500403881073	-278.0	96.0	-274	98	1
1.7	2015_Jul_22_0912	s	s	10	3	SIC	19	RC	0	1	23RO	0	1	3.74006986618	-336.0	-86.0	None	None	0
1.7	2015_Jul_22_0912	s	s	10	3	SIC	20	ABS	2	2	24VD	0	1	1.32927513123	None	None	None	None	1
1.7	2015_Jul_22_0912	s	s	10	3	SIC	21	ABS	0	2	24RD	0	1	1.8447971344	None	None	None	None	1
1.7	2015_Jul_22_0912	s	s	10	3	SIC	22	ABS	1	0	24MC	0	1	6.22605085373	None	None	None	None	1
1.7	2015_Jul_22_0912	s	s	10	3	SIC	23	ABS	2	0	24VC	0	1	0.905847072601	None	None	None	None	1
1.7	2015_Jul_22_0912	s	s	10	3	SIC	24	RC	2	2	23VD	1	0	0.540673017502	92.0	99.0	99	105	1
1.7	2015_Jul_22_0912	s	s	10	3	SIC	25	ABS	0	1	24RO	0	1	6.26964592934	None	None	None	None	1
1.7	2015_Jul_22_0912	s	s	10	3	SIC	26	ABS	2	1	24VO	0	1	0.678666114807	None	None	None	None	1
1.7	2015_Jul_22_0912	s	s	10	3	SIC	27	RC	0	2	23RD	1	0	0.611748933792	-209.0	209.0	-203	208	1
1.7	2015_Jul_22_0912	s	s	10	3	SIC	28	RC	1	2	23MD	1	0	0.606799125671	-456.0	150.0	-456	150	1
1.7	2015_Jul_22_0912	s	s	10	3	SIC	29	RC	1	0	23MC	0	1	4.97836089134	-420.0	-374.0	None	None	0
1.7	2015_Jul_22_0912	s	s	10	3	SIC	30	ABS	1	1	24MO	0	1	4.27200293541	None	None	None	None	1
1.7	2015_Jul_22_0912	s	s	10	3	SIC	31	ABS	1	2	24MD	0	1	0.682099819183	None	None	None	None	1
1.7	2015_Jul_22_0912	s	s	10	3	SIC	32	RC	1	1	23MO	1	0	1.90182089806	-99.0	-409.0	-95	-422	1
1.7	2015_Jul_22_0912	s	s	10	3	SIC	33	ABS	1	0	24MC	0	1	4.63688778877	None	None	None	None	1
1.7	2015_Jul_22_0912	s	s	10	3	SIC	34	ABS	2	0	24VC	0	1	0.650438070297	None	None	None	None	1
1.7	2015_Jul_22_0912	s	s	10	3	SIC	35	RC	2	0	23VC	1	0	0.69947218895	251.0	-275.0	256	-277	1
1.7	2015_Jul_22_0912	s	s	10	3	SIC	36	RC	2	1	23VO	1	0	0.575983047485	227.0	353.0	228	353	1
1.7	2015_Jul_22_0912	s	s	10	3	SIC	37	RC	2	2	23VD	1	0	0.52908706665	-151.0	77.0	-147	79	1
1.7	2015_Jul_22_0912	s	s	10	3	SIC	38	RC	1	0	23MC	0	1	5.11685800552	147.0	288.0	None	None	0
1.7	2015_Jul_22_0912	s	s	10	3	SIC	39	ABS	0	2	24RD	0	1	1.17059087753	None	None	None	None	1
1.7	2015_Jul_22_0912	s	s	10	3	SIC	40	RC	1	1	23MO	1	0	5.48149013519	39.0	-388.0	31	-387	1
1.7	2015_Jul_22_0912	s	s	10	3	SIC	41	ABS	2	1	24VO	0	1	0.762009143829	None	None	None	None	1
1.7	2015_Jul_22_0912	s	s	10	3	SIC	42	ABS	0	1	24RO	0	1	4.8488919735	None	None	None	None	1
1.7	2015_Jul_22_0912	s	s	10	3	SIC	43	ABS	1	1	24MO	0	1	4.77433395386	None	None	None	None	1
1.7	2015_Jul_22_0912	s	s	10	3	SIC	44	RC	0	1	23RO	0	1	17.2288169861	-350.0	337.0	None	None	0
1.7	2015_Jul_22_0912	s	s	10	3	SIC	45	RC	0	2	23RD	1	0	1.21170592308	108.0	-219.0	115	-221	1
1.7	2015_Jul_22_0912	s	s	10	3	SIC	46	ABS	2	2	24VD	0	1	0.634947061539	None	None	None	None	1
1.7	2015_Jul_22_0912	s	s	10	3	SIC	47	ABS	1	2	24MD	0	1	0.713541984558	None	None	None	None	1
1.7	2015_Jul_22_0912	s	s	10	3	SIC	48	RC	1	2	23MD	1	0	1.2941031456	-55.0	-83.0	-48	-75	1
1.7	2015_Jul_22_0912	s	s	10	3	SIC	49	RC	1	0	23MC	1	0	16.8549170494	134.0	-85.0	140	-88	1
1.7	2015_Jul_22_0912	s	s	10	3	SIC	50	ABS	0	1	24RO	0	1	6.5084540844	None	None	None	None	1
1.7	2015_Jul_22_0912	s	s	10	3	SIC	51	RC	1	1	23MO	1	0	8.26240682602	447.0	247.0	450	253	1
1.7	2015_Jul_22_0912	s	s	10	3	SIC	52	ABS	1	1	24MO	0	1	5.17385601997	None	None	None	None	1
1.7	2015_Jul_22_0912	s	s	10	3	SIC	53	RC	2	0	23VC	1	0	0.50551700592	420.0	87.0	420	88	1
1.7	2015_Jul_22_0912	s	s	10	3	SIC	54	ABS	2	1	24VO	0	1	0.629633188248	None	None	None	None	1
1.7	2015_Jul_22_0912	s	s	10	3	SIC	55	RC	0	1	23RO	0	1	6.37906599045	480.0	-267.0	None	None	0
1.7	2015_Jul_22_0912	s	s	10	3	SIC	56	ABS	0	2	24RD	0	1	0.806931018829	None	None	None	None	1
1.7	2015_Jul_22_0912	s	s	10	3	SIC	57	RC	2	2	23VD	1	0	0.623207092285	136.0	-290.0	135	-283	1
1.7	2015_Jul_22_0912	s	s	10	3	SIC	58	RC	0	2	23RD	1	0	0.7289249897	-113.0	-103.0	-109	-99	1
1.7	2015_Jul_22_0912	s	s	10	3	SIC	59	ABS	2	2	24VD	0	1	0.654664039612	None	None	None	None	1
1.7	2015_Jul_22_0912	s	s	10	3	SIC	60	ABS	1	0	24MC	0	1	3.71366596222	None	None	None	None	1
1.7	2015_Jul_22_0912	s	s	10	3	SIC	61	ABS	1	2	24MD	0	1	0.73521399498	None	None	None	None	1
1.7	2015_Jul_22_0912	s	s	10	3	SIC	62	ABS	2	0	24VC	0	1	0.606303930283	None	None	None	None	1
1.7	2015_Jul_22_0912	s	s	10	3	SIC	63	RC	2	1	23VO	1	0	0.573583126068	359.0	308.0	359	310	1
1.7	2015_Jul_22_0912	s	s	10	3	SIC	64	RC	1	2	23MD	1	0	0.670302867889	466.0	-27.0	474	-29	1
1.7	2015_Jul_22_0912	s	s	10	3	SIC	65	ABS	1	0	24MC	0	1	3.92785906792	None	None	None	None	1
1.7	2015_Jul_22_0912	s	s	10	3	SIC	66	ABS	0	2	24RD	0	1	0.650418043137	None	None	None	None	1
1.7	2015_Jul_22_0912	s	s	10	3	SIC	67	RC	2	1	23VO	1	0	0.646743059158	14.0	410.0	12	413	1
1.7	2015_Jul_22_0912	s	s	10	3	SIC	68	ABS	0	1	24RO	0	1	6.09659719467	None	None	None	None	1
1.7	2015_Jul_22_0912	s	s	10	3	SIC	69	RC	2	2	23VD	1	0	0.71456694603	393.0	311.0	393	307	1
1.7	2015_Jul_22_0912	s	s	10	3	SIC	70	RC	0	2	23RD	1	0	0.505499124527	-276.0	-272.0	-272	-267	1
1.7	2015_Jul_22_0912	s	s	10	3	SIC	71	ABS	2	0	24VC	0	1	0.670594930649	None	None	None	None	1
1.7	2015_Jul_22_0912	s	s	10	3	SIC	72	RC	1	2	23MD	1	0	0.67021894455	161.0	-107.0	161	-106	1
1.7	2015_Jul_22_0912	s	s	10	3	SIC	73	ABS	1	2	24MD	0	1	0.86757683754	None	None	None	None	1
1.7	2015_Jul_22_0912	s	s	10	3	SIC	74	ABS	1	1	24MO	0	1	4.95124197006	None	None	None	None	1
1.7	2015_Jul_22_0912	s	s	10	3	SIC	75	ABS	2	2	24VD	0	1	0.658550024033	None	None	None	None	1
1.7	2015_Jul_22_0912	s	s	10	3	SIC	76	RC	1	0	23MC	1	0	1.79457616806	-101.0	-32.0	-92	-29	1
1.7	2015_Jul_22_0912	s	s	10	3	SIC	77	RC	1	1	23MO	1	0	4.30387616158	411.0	-411.0	418	-406	1
1.7	2015_Jul_22_0912	s	s	10	3	SIC	78	ABS	2	1	24VO	0	1	0.799807786942	None	None	None	None	1
1.7	2015_Jul_22_0912	s	s	10	3	SIC	79	RC	2	0	23VC	1	0	0.588299036026	-316.0	-339.0	-316	-337	1
1.7	2015_Jul_22_0912	s	s	10	3	SIC	80	RC	0	1	23RO	1	0	3.53772783279	297.0	215.0	302	214	1
1.7	2015_Jul_22_0912	s	s	10	3	SIC	81	RC	1	1	23MO	1	0	1.55007100105	-146.0	-18.0	-144	-27	1
1.7	2015_Jul_22_0912	s	s	10	3	SIC	82	RC	0	2	23RD	1	0	0.792356967926	416.0	226.0	414	227	1
1.7	2015_Jul_22_0912	s	s	10	3	SIC	83	RC	2	1	23VO	1	0	0.49397110939	-518.0	103.0	-516	109	1
1.7	2015_Jul_22_0912	s	s	10	3	SIC	84	ABS	2	2	24VD	0	1	0.653909921646	None	None	None	None	1
1.7	2015_Jul_22_0912	s	s	10	3	SIC	85	RC	1	2	23MD	1	0	0.749747037888	149.0	409.0	153	410	1
1.7	2015_Jul_22_0912	s	s	10	3	SIC	86	ABS	1	2	24MD	0	1	1.10032701492	None	None	None	None	1
1.7	2015_Jul_22_0912	s	s	10	3	SIC	87	RC	2	0	23VC	1	0	0.545291900635	65.0	-367.0	64	-370	1
1.7	2015_Jul_22_0912	s	s	10	3	SIC	88	RC	0	1	23RO	0	1	6.69211196899	-294.0	-40.0	None	None	0
1.7	2015_Jul_22_0912	s	s	10	3	SIC	89	ABS	1	0	24MC	0	1	4.42263102531	None	None	None	None	1
1.7	2015_Jul_22_0912	s	s	10	3	SIC	90	ABS	2	0	24VC	0	1	0.853972196579	None	None	None	None	1
1.7	2015_Jul_22_0912	s	s	10	3	SIC	91	RC	1	0	23MC	0	1	4.89596891403	417.0	-313.0	None	None	0
1.7	2015_Jul_22_0912	s	s	10	3	SIC	92	ABS	1	1	24MO	0	1	4.62235212326	None	None	None	None	1
1.7	2015_Jul_22_0912	s	s	10	3	SIC	93	ABS	0	2	24RD	0	1	1.10628700256	None	None	None	None	1
1.7	2015_Jul_22_0912	s	s	10	3	SIC	94	ABS	0	1	24RO	0	1	6.17471790314	None	None	None	None	1
1.7	2015_Jul_22_0912	s	s	10	3	SIC	95	ABS	2	1	24VO	0	1	0.693912982941	None	None	None	None	1
1.7	2015_Jul_22_0912	s	s	10	3	SIC	96	RC	2	2	23VD	1	0	0.524063110352	-443.0	-227.0	-442	-236	1
1.7	2015_Jul_22_0912	s	s	10	3	SIC	97	ABS	0	1	24RO	0	1	6.49447393417	None	None	None	None	1
1.7	2015_Jul_22_0912	s	s	10	3	SIC	98	ABS	2	2	24VD	0	1	0.599846124649	None	None	None	None	1
1.7	2015_Jul_22_0912	s	s	10	3	SIC	99	RC	2	1	23VO	1	0	1.13652515411	129.0	349.0	121	350	1
1.7	2015_Jul_22_0912	s	s	10	3	SIC	100	RC	0	1	23RO	0	1	5.44458389282	524.0	333.0	None	None	0
1.7	2015_Jul_22_0912	s	s	10	3	SIC	101	ABS	1	2	24MD	0	1	0.86501121521	None	None	None	None	1
1.7	2015_Jul_22_0912	s	s	10	3	SIC	102	ABS	2	1	24VO	0	1	0.917515993118	None	None	None	None	1
1.7	2015_Jul_22_0912	s	s	10	3	SIC	103	ABS	1	1	24MO	0	1	3.79823899269	None	None	None	None	1
1.7	2015_Jul_22_0912	s	s	10	3	SIC	104	ABS	0	2	24RD	0	1	0.693768978119	None	None	None	None	1
1.7	2015_Jul_22_0912	s	s	10	3	SIC	105	ABS	2	0	24VC	0	1	0.846846103668	None	None	None	None	1
1.7	2015_Jul_22_0912	s	s	10	3	SIC	106	RC	2	2	23VD	1	0	0.844184875488	456.0	390.0	461	392	1
1.7	2015_Jul_22_0912	s	s	10	3	SIC	107	ABS	1	0	24MC	0	1	3.93857598305	None	None	None	None	1
1.7	2015_Jul_22_0912	s	s	10	3	SIC	108	RC	0	2	23RD	1	0	0.540769100189	137.0	151.0	144	150	1
1.7	2015_Jul_22_0912	s	s	10	3	SIC	109	RC	2	0	23VC	1	0	0.592445850372	-269.0	250.0	-269	255	1
1.7	2015_Jul_22_0912	s	s	10	3	SIC	110	RC	1	0	23MC	1	0	3.10070300102	482.0	385.0	485	391	1
1.7	2015_Jul_22_0912	s	s	10	3	SIC	111	RC	1	1	23MO	1	0	1.64709210396	-211.0	-194.0	-217	-201	1
1.7	2015_Jul_22_0912	s	s	10	3	SIC	112	RC	1	2	23MD	1	0	0.493759155273	185.0	127.0	190	128	1
1.7	2015_Jul_22_0912	s	s	10	3	SIC	113	ABS	2	2	24VD	0	1	0.64674782753	None	None	None	None	1
1.7	2015_Jul_22_0912	s	s	10	3	SIC	114	RC	1	0	23MC	1	0	2.56534409523	61.0	148.0	59	143	1
1.7	2015_Jul_22_0912	s	s	10	3	SIC	115	RC	0	1	23RO	1	0	3.61294102669	-392.0	189.0	-390	185	1
1.7	2015_Jul_22_0912	s	s	10	3	SIC	116	ABS	2	0	24VC	0	1	0.608792066574	None	None	None	None	1
1.7	2015_Jul_22_0912	s	s	10	3	SIC	117	RC	2	1	23VO	1	0	0.493771076202	60.0	345.0	62	345	1
1.7	2015_Jul_22_0912	s	s	10	3	SIC	118	ABS	1	2	24MD	0	1	0.784794092178	None	None	None	None	1
1.7	2015_Jul_22_0912	s	s	10	3	SIC	119	RC	1	2	23MD	1	0	0.594739198685	187.0	-134.0	180	-134	1
1.7	2015_Jul_22_0912	s	s	10	3	SIC	120	RC	1	1	23MO	1	0	3.31373500824	335.0	-369.0	331	-362	1
1.7	2015_Jul_22_0912	s	s	10	3	SIC	121	ABS	0	2	24RD	0	1	0.917424917221	None	None	None	None	1
1.7	2015_Jul_22_0912	s	s	10	3	SIC	122	RC	2	2	23VD	1	0	0.523531198502	405.0	-14.0	409	-17	1
1.7	2015_Jul_22_0912	s	s	10	3	SIC	123	ABS	2	1	24VO	0	1	0.711889982224	None	None	None	None	1
1.7	2015_Jul_22_0912	s	s	10	3	SIC	124	RC	0	2	23RD	1	0	0.623147010803	-337.0	-281.0	-330	-276	1
1.7	2015_Jul_22_0912	s	s	10	3	SIC	125	ABS	1	1	24MO	0	1	3.77363395691	None	None	None	None	1
1.7	2015_Jul_22_0912	s	s	10	3	SIC	126	RC	2	0	23VC	1	0	0.559344053268	-513.0	-344.0	-519	-343	1
1.7	2015_Jul_22_0912	s	s	10	3	SIC	127	ABS	0	1	24RO	0	1	5.60580992699	None	None	None	None	1
1.7	2015_Jul_22_0912	s	s	10	3	SIC	128	ABS	1	0	24MC	0	1	3.28346920013	None	None	None	None	1
1.7	2015_Jul_22_0912	s	s	10	3	SIC	129	ABS	2	1	24VO	0	1	0.902431964874	None	None	None	None	1
1.7	2015_Jul_22_0912	s	s	10	3	SIC	130	RC	0	1	23RO	0	1	5.18741798401	481.0	113.0	None	None	0
1.7	2015_Jul_22_0912	s	s	10	3	SIC	131	ABS	0	1	24RO	0	1	5.68462014198	None	None	None	None	1
1.7	2015_Jul_22_0912	s	s	10	3	SIC	132	RC	1	1	23MO	1	0	1.18305492401	-277.0	269.0	-277	277	1
1.7	2015_Jul_22_0912	s	s	10	3	SIC	133	RC	2	0	23VC	1	0	0.536623001099	230.0	-107.0	236	-112	1
1.7	2015_Jul_22_0912	s	s	10	3	SIC	134	ABS	1	0	24MC	0	1	15.4132130146	None	None	None	None	1
1.7	2015_Jul_22_0912	s	s	10	3	SIC	135	ABS	2	0	24VC	0	1	0.823240041733	None	None	None	None	1
1.7	2015_Jul_22_0912	s	s	10	3	SIC	136	ABS	2	2	24VD	0	1	0.643726825714	None	None	None	None	1
1.7	2015_Jul_22_0912	s	s	10	3	SIC	137	ABS	1	2	24MD	0	1	0.608808994293	None	None	None	None	1
1.7	2015_Jul_22_0912	s	s	10	3	SIC	138	ABS	1	1	24MO	0	1	3.73069787025	None	None	None	None	1
1.7	2015_Jul_22_0912	s	s	10	3	SIC	139	RC	2	2	23VD	1	0	0.564425945282	132.0	-102.0	135	-104	1
1.7	2015_Jul_22_0912	s	s	10	3	SIC	140	ABS	0	2	24RD	0	1	1.01825284958	None	None	None	None	1
1.7	2015_Jul_22_0912	s	s	10	3	SIC	141	RC	0	2	23RD	1	0	0.524050951004	-49.0	152.0	-55	154	1
1.7	2015_Jul_22_0912	s	s	10	3	SIC	142	RC	2	1	23VO	1	0	0.623195886612	-315.0	383.0	-314	378	1
1.7	2015_Jul_22_0912	s	s	10	3	SIC	143	RC	1	2	23MD	1	0	0.740746021271	-421.0	32.0	-416	32	1
1.7	2015_Jul_22_0912	s	s	10	3	SIC	144	RC	1	0	23MC	0	1	4.1747879982	496.0	-58.0	None	None	0
1.7	2015_Jul_22_0912	s	s	10	3	SIC	145	ABS	1	1	24MO	0	1	3.90713000298	None	None	None	None	1
1.7	2015_Jul_22_0912	s	s	10	3	SIC	146	ABS	0	1	24RO	0	1	4.37810611725	None	None	None	None	1
1.7	2015_Jul_22_0912	s	s	10	3	SIC	147	RC	2	0	23VC	1	0	0.793114185333	-20.0	-327.0	-11	-323	1
1.7	2015_Jul_22_0912	s	s	10	3	SIC	148	ABS	1	2	24MD	0	1	0.764455080032	None	None	None	None	1
1.7	2015_Jul_22_0912	s	s	10	3	SIC	149	RC	0	2	23RD	1	0	0.599614858627	265.0	102.0	260	102	1
1.7	2015_Jul_22_0912	s	s	10	3	SIC	150	ABS	2	0	24VC	0	1	0.997116088867	None	None	None	None	1
1.7	2015_Jul_22_0912	s	s	10	3	SIC	151	RC	2	2	23VD	1	0	0.652800798416	17.0	87.0	23	93	1
1.7	2015_Jul_22_0912	s	s	10	3	SIC	152	RC	1	2	23MD	1	0	0.611488819122	-199.0	320.0	-195	324	1
1.7	2015_Jul_22_0912	s	s	10	3	SIC	153	RC	1	0	23MC	1	0	1.862814188	-184.0	370.0	-194	373	1
1.7	2015_Jul_22_0912	s	s	10	3	SIC	154	RC	1	1	23MO	1	0	2.00719594955	-484.0	22.0	-488	30	1
1.7	2015_Jul_22_0912	s	s	10	3	SIC	155	ABS	2	1	24VO	0	1	0.658548116684	None	None	None	None	1
1.7	2015_Jul_22_0912	s	s	10	3	SIC	156	RC	0	1	23RO	0	1	10.1103839874	-99.0	-86.0	None	None	0
1.7	2015_Jul_22_0912	s	s	10	3	SIC	157	ABS	2	2	24VD	0	1	0.576070785522	None	None	None	None	1
1.7	2015_Jul_22_0912	s	s	10	3	SIC	158	ABS	1	0	24MC	0	1	3.50363206863	None	None	None	None	1
1.7	2015_Jul_22_0912	s	s	10	3	SIC	159	ABS	0	2	24RD	0	1	0.702388048172	None	None	None	None	1
1.7	2015_Jul_22_0912	s	s	10	3	SIC	160	RC	2	1	23VO	1	0	0.558380842209	-372.0	111.0	-365	115	1
1.7	2015_Jul_22_0912	s	s	10	3	SIC	161	RC	2	0	23VC	1	0	0.678249835968	197.0	-240.0	202	-242	1
1.7	2015_Jul_22_0912	s	s	10	3	SIC	162	RC	1	0	23MC	0	1	2.7183110714	363.0	287.0	None	None	0
1.7	2015_Jul_22_0912	s	s	10	3	SIC	163	ABS	2	0	24VC	0	1	1.09103608131	None	None	None	None	1
1.7	2015_Jul_22_0912	s	s	10	3	SIC	164	RC	0	2	23RD	1	0	0.570498943329	-411.0	-161.0	-411	-155	1
1.7	2015_Jul_22_0912	s	s	10	3	SIC	165	ABS	1	0	24MC	0	1	3.45991015434	None	None	None	None	1
1.7	2015_Jul_22_0912	s	s	10	3	SIC	166	RC	1	1	23MO	1	0	1.10161995888	-418.0	-105.0	-411	-101	1
1.7	2015_Jul_22_0912	s	s	10	3	SIC	167	ABS	0	2	24RD	0	1	0.835541963577	None	None	None	None	1
1.7	2015_Jul_22_0912	s	s	10	3	SIC	168	RC	2	2	23VD	1	0	0.525913000107	-148.0	-378.0	-151	-380	1
1.7	2015_Jul_22_0912	s	s	10	3	SIC	169	RC	2	1	23VO	1	0	0.623183012009	-418.0	-74.0	-411	-73	1
1.7	2015_Jul_22_0912	s	s	10	3	SIC	170	ABS	2	1	24VO	0	1	0.855343103409	None	None	None	None	1
1.7	2015_Jul_22_0912	s	s	10	3	SIC	171	RC	1	2	23MD	1	0	0.549980163574	301.0	-175.0	305	-179	1
1.7	2015_Jul_22_0912	s	s	10	3	SIC	172	ABS	1	2	24MD	0	1	0.670305013657	None	None	None	None	1
1.7	2015_Jul_22_0912	s	s	10	3	SIC	173	ABS	1	1	24MO	0	1	4.1851131916	None	None	None	None	1
1.7	2015_Jul_22_0912	s	s	10	3	SIC	174	RC	0	1	23RO	0	1	8.6123149395	-442.0	373.0	None	None	0
1.7	2015_Jul_22_0912	s	s	10	3	SIC	175	ABS	0	1	24RO	0	1	4.88460803032	None	None	None	None	1
1.7	2015_Jul_22_0912	s	s	10	3	SIC	176	ABS	2	2	24VD	0	1	0.635161876678	None	None	None	None	1
1.7	2015_Jul_22_0912	s	s	10	3	SIC	177	RC	1	0	23MC	0	1	3.81302881241	494.0	280.0	None	None	0
1.7	2015_Jul_22_0912	s	s	10	3	SIC	178	RC	2	2	23VD	1	0	0.564320087433	-288.0	-281.0	-283	-283	1
1.7	2015_Jul_22_0912	s	s	10	3	SIC	179	ABS	1	0	24MC	0	1	2.64775919914	None	None	None	None	1
1.7	2015_Jul_22_0912	s	s	10	3	SIC	180	RC	1	1	23MO	1	0	1.92989492416	237.0	-212.0	231	-209	1
1.7	2015_Jul_22_0912	s	s	10	3	SIC	181	ABS	0	2	24RD	0	1	0.665048122406	None	None	None	None	1
1.7	2015_Jul_22_0912	s	s	10	3	SIC	182	RC	2	1	23VO	1	0	0.535187005997	523.0	137.0	519	137	1
1.7	2015_Jul_22_0912	s	s	10	3	SIC	183	ABS	1	2	24MD	0	1	0.611366033554	None	None	None	None	1
1.7	2015_Jul_22_0912	s	s	10	3	SIC	184	ABS	2	2	24VD	0	1	0.528954029083	None	None	None	None	1
1.7	2015_Jul_22_0912	s	s	10	3	SIC	185	ABS	2	1	24VO	0	1	0.635051012039	None	None	None	None	1
1.7	2015_Jul_22_0912	s	s	10	3	SIC	186	RC	0	1	23RO	1	0	2.39787602425	218.0	-279.0	224	-271	1
1.7	2015_Jul_22_0912	s	s	10	3	SIC	187	RC	1	2	23MD	1	0	0.582100152969	-212.0	-88.0	-212	-86	1
1.7	2015_Jul_22_0912	s	s	10	3	SIC	188	RC	0	2	23RD	1	0	0.575980901718	106.0	-109.0	101	-118	1
1.7	2015_Jul_22_0912	s	s	10	3	SIC	189	ABS	0	1	24RO	0	1	5.39825797081	None	None	None	None	1
1.7	2015_Jul_22_0912	s	s	10	3	SIC	190	ABS	1	1	24MO	0	1	4.24857282639	None	None	None	None	1
1.7	2015_Jul_22_0912	s	s	10	3	SIC	191	ABS	2	0	24VC	0	1	0.667606115341	None	None	None	None	1
1.7	2015_Jul_22_0912	s	s	10	3	SIC	192	RC	2	0	23VC	1	0	0.655256032944	356.0	230.0	365	235	1
1.7	2015_Jul_22_0912	s	s	10	3	SIC	193	ABS	1	0	24MC	0	1	3.04782891273	None	None	None	None	1
1.7	2015_Jul_22_0912	s	s	10	3	SIC	194	ABS	1	1	24MO	0	1	4.89598798752	None	None	None	None	1
1.7	2015_Jul_22_0912	s	s	10	3	SIC	195	ABS	0	2	24RD	0	1	0.811604976654	None	None	None	None	1
1.7	2015_Jul_22_0912	s	s	10	3	SIC	196	RC	0	1	23RO	0	1	5.38515305519	-61.0	389.0	None	None	0
1.7	2015_Jul_22_0912	s	s	10	3	SIC	197	RC	2	1	23VO	1	0	0.729084014893	112.0	252.0	113	258	1
1.7	2015_Jul_22_0912	s	s	10	3	SIC	198	RC	1	1	23MO	1	0	1.19740414619	-487.0	-280.0	-496	-284	1
1.7	2015_Jul_22_0912	s	s	10	3	SIC	199	ABS	1	2	24MD	0	1	0.658496141434	None	None	None	None	1
1.7	2015_Jul_22_0912	s	s	10	3	SIC	200	RC	1	0	23MC	1	0	2.19490599632	96.0	274.0	88	275	1
1.7	2015_Jul_22_0912	s	s	10	3	SIC	201	RC	1	2	23MD	1	0	0.752712011337	18.0	286.0	19	276	1
1.7	2015_Jul_22_0912	s	s	10	3	SIC	202	ABS	2	0	24VC	0	1	0.797008037567	None	None	None	None	1
1.7	2015_Jul_22_0912	s	s	10	3	SIC	203	RC	2	2	23VD	1	0	0.479076147079	-474.0	-24.0	-483	-23	1
1.7	2015_Jul_22_0912	s	s	10	3	SIC	204	RC	2	0	23VC	1	0	0.595597028732	128.0	77.0	135	75	1
1.7	2015_Jul_22_0912	s	s	10	3	SIC	205	ABS	2	2	24VD	0	1	0.525377035141	None	None	None	None	1
1.7	2015_Jul_22_0912	s	s	10	3	SIC	206	ABS	2	1	24VO	0	1	0.911650896072	None	None	None	None	1
1.7	2015_Jul_22_0912	s	s	10	3	SIC	207	RC	0	2	23RD	1	0	0.560239076614	-312.0	-169.0	-305	-175	1
1.7	2015_Jul_22_0912	s	s	10	3	SIC	208	ABS	0	1	24RO	0	1	6.55554580688	None	None	None	None	1
1.7	2015_Jul_22_0912	s	s	10	3	SIC	209	RC	1	1	23MO	0	1	5.92597794533	308.0	327.0	None	None	0
1.7	2015_Jul_22_0912	s	s	10	3	SIC	210	ABS	2	0	24VC	0	1	0.540843963623	None	None	None	None	1
1.7	2015_Jul_22_0912	s	s	10	3	SIC	211	ABS	0	1	24RO	0	1	5.5964820385	None	None	None	None	1
1.7	2015_Jul_22_0912	s	s	10	3	SIC	212	ABS	1	2	24MD	0	1	0.63000702858	None	None	None	None	1
1.7	2015_Jul_22_0912	s	s	10	3	SIC	213	RC	2	1	23VO	1	0	0.611433982849	-381.0	369.0	-368	373	1
1.7	2015_Jul_22_0912	s	s	10	3	SIC	214	RC	1	2	23MD	1	0	1.69150400162	109.0	89.0	114	94	1
1.7	2015_Jul_22_0912	s	s	10	3	SIC	215	ABS	2	2	24VD	0	1	0.771430969238	None	None	None	None	1
1.7	2015_Jul_22_0912	s	s	10	3	SIC	216	ABS	1	1	24MO	0	1	4.48383903503	None	None	None	None	1
1.7	2015_Jul_22_0912	s	s	10	3	SIC	217	ABS	2	1	24VO	0	1	0.914706945419	None	None	None	None	1
1.7	2015_Jul_22_0912	s	s	10	3	SIC	218	RC	1	0	23MC	1	0	1.83553600311	-441.0	-351.0	-449	-349	1
1.7	2015_Jul_22_0912	s	s	10	3	SIC	219	ABS	0	2	24RD	0	1	1.87098503113	None	None	None	None	1
1.7	2015_Jul_22_0912	s	s	10	3	SIC	220	RC	2	2	23VD	1	0	0.632467985153	92.0	-210.0	90	-206	1
1.7	2015_Jul_22_0912	s	s	10	3	SIC	221	RC	2	0	23VC	1	0	0.62924695015	134.0	-132.0	134	-139	1
1.7	2015_Jul_22_0912	s	s	10	3	SIC	222	RC	0	1	23RO	0	1	5.46095514297	-487.0	-351.0	None	None	0
1.7	2015_Jul_22_0912	s	s	10	3	SIC	223	ABS	1	0	24MC	0	1	3.18431997299	None	None	None	None	1
1.7	2015_Jul_22_0912	s	s	10	3	SIC	224	RC	0	2	23RD	1	0	0.929301023483	-431.0	357.0	-425	354	1
1.7	2015_Jul_22_0912	s	s	10	3	SIC	225	RC	1	2	23MD	1	0	0.670244932175	358.0	-37.0	359	-37	1
1.7	2015_Jul_22_0912	s	s	10	3	SIC	226	ABS	1	1	24MO	0	1	4.55132293701	None	None	None	None	1
1.7	2015_Jul_22_0912	s	s	10	3	SIC	227	RC	2	2	23VD	1	0	0.552495956421	-193.0	79.0	-199	80	1
1.7	2015_Jul_22_0912	s	s	10	3	SIC	228	RC	2	1	23VO	1	0	0.882281064987	405.0	268.0	416	274	1
1.7	2015_Jul_22_0912	s	s	10	3	SIC	229	RC	0	2	23RD	1	0	0.490175008774	-169.0	-63.0	-168	-67	1
1.7	2015_Jul_22_0912	s	s	10	3	SIC	230	ABS	2	1	24VO	0	1	1.0668900013	None	None	None	None	1
1.7	2015_Jul_22_0912	s	s	10	3	SIC	231	ABS	1	0	24MC	0	1	6.71784806252	None	None	None	None	1
1.7	2015_Jul_22_0912	s	s	10	3	SIC	232	RC	1	0	23MC	1	0	2.85427498817	-371.0	-122.0	-373	-118	1
1.7	2015_Jul_22_0912	s	s	10	3	SIC	233	RC	0	1	23RO	0	1	6.44610500336	440.0	-107.0	None	None	0
1.7	2015_Jul_22_0912	s	s	10	3	SIC	234	ABS	0	2	24RD	0	1	0.881994962692	None	None	None	None	1
1.7	2015_Jul_22_0912	s	s	10	3	SIC	235	RC	2	0	23VC	1	0	0.618155002594	434.0	-132.0	434	-131	1
1.7	2015_Jul_22_0912	s	s	10	3	SIC	236	ABS	0	1	24RO	0	1	4.03413105011	None	None	None	None	1
1.7	2015_Jul_22_0912	s	s	10	3	SIC	237	ABS	2	0	24VC	0	1	0.646813869476	None	None	None	None	1
1.7	2015_Jul_22_0912	s	s	10	3	SIC	238	ABS	1	2	24MD	0	1	0.889759063721	None	None	None	None	1
1.7	2015_Jul_22_0912	s	s	10	3	SIC	239	ABS	2	2	24VD	0	1	0.479355812073	None	None	None	None	1
1.7	2015_Jul_22_0912	s	s	10	3	SIC	240	RC	1	1	23MO	1	0	3.11300086975	245.0	26.0	239	24	1
1.7	2015_Jul_22_0912	s	s	10	3	SIC	241	RC	0	2	23RD	1	0	1.07731294632	294.0	333.0	296	328	1
1.7	2015_Jul_22_0912	s	s	10	3	SIC	242	ABS	2	2	24VD	0	1	0.635045051575	None	None	None	None	1
1.7	2015_Jul_22_0912	s	s	10	3	SIC	243	ABS	0	1	24RO	0	1	6.52830505371	None	None	None	None	1
1.7	2015_Jul_22_0912	s	s	10	3	SIC	244	RC	1	2	23MD	1	0	0.984946966171	-22.0	323.0	-14	322	1
1.7	2015_Jul_22_0912	s	s	10	3	SIC	245	ABS	2	1	24VO	0	1	0.879419088364	None	None	None	None	1
1.7	2015_Jul_22_0912	s	s	10	3	SIC	246	RC	2	0	23VC	1	0	0.665917873383	403.0	-340.0	396	-346	1
1.7	2015_Jul_22_0912	s	s	10	3	SIC	247	RC	2	1	23VO	1	0	0.643945932388	-502.0	-288.0	-507	-294	1
1.7	2015_Jul_22_0912	s	s	10	3	SIC	248	RC	1	1	23MO	1	0	2.63646006584	-190.0	-40.0	-191	-41	1
1.7	2015_Jul_22_0912	s	s	10	3	SIC	249	ABS	1	0	24MC	0	1	5.0197532177	None	None	None	None	1
1.7	2015_Jul_22_0912	s	s	10	3	SIC	250	RC	2	2	23VD	1	0	0.564683914185	-245.0	86.0	-246	86	1
1.7	2015_Jul_22_0912	s	s	10	3	SIC	251	ABS	1	2	24MD	0	1	0.863926887512	None	None	None	None	1
1.7	2015_Jul_22_0912	s	s	10	3	SIC	252	ABS	0	2	24RD	0	1	0.749885797501	None	None	None	None	1
1.7	2015_Jul_22_0912	s	s	10	3	SIC	253	ABS	1	1	24MO	0	1	4.27210903168	None	None	None	None	1
1.7	2015_Jul_22_0912	s	s	10	3	SIC	254	RC	1	0	23MC	0	1	7.16242909431	-524.0	194.0	None	None	0
1.7	2015_Jul_22_0912	s	s	10	3	SIC	255	ABS	2	0	24VC	0	1	0.5108730793	None	None	None	None	1
1.7	2015_Jul_22_0912	s	s	10	3	SIC	256	RC	0	1	23RO	1	0	3.21042895317	-4.0	-26.0	-8	-26	1
1.7	2015_Jul_22_0912	s	s	10	3	SIC	257	RC	2	0	23VC	1	0	0.505577802658	-281.0	-73.0	-280	-76	1
1.7	2015_Jul_22_0912	s	s	10	3	SIC	258	RC	1	1	23MO	1	0	0.870855093002	-204.0	152.0	-204	149	1
1.7	2015_Jul_22_0912	s	s	10	3	SIC	259	RC	2	2	23VD	1	0	0.611431121826	376.0	-163.0	383	-165	1
1.7	2015_Jul_22_0912	s	s	10	3	SIC	260	ABS	2	1	24VO	0	1	0.632104158401	None	None	None	None	1
1.7	2015_Jul_22_0912	s	s	10	3	SIC	261	ABS	0	1	24RO	0	1	5.9851641655	None	None	None	None	1
1.7	2015_Jul_22_0912	s	s	10	3	SIC	262	ABS	2	2	24VD	0	1	1.46574902534	None	None	None	None	1
1.7	2015_Jul_22_0912	s	s	10	3	SIC	263	ABS	1	0	24MC	0	1	5.3030500412	None	None	None	None	1
1.7	2015_Jul_22_0912	s	s	10	3	SIC	264	RC	1	0	23MC	1	0	2.6599919796	111.0	-20.0	116	-21	1
1.7	2015_Jul_22_0912	s	s	10	3	SIC	265	RC	2	1	23VO	1	0	0.782721042633	416.0	-399.0	422	-402	1
1.7	2015_Jul_22_0912	s	s	10	3	SIC	266	RC	0	1	23RO	0	1	6.38575410843	-243.0	381.0	None	None	0
1.7	2015_Jul_22_0912	s	s	10	3	SIC	267	ABS	1	1	24MO	0	1	3.71891522408	None	None	None	None	1
1.7	2015_Jul_22_0912	s	s	10	3	SIC	268	RC	0	2	23RD	1	0	0.830121994019	-336.0	129.0	-334	126	1
1.7	2015_Jul_22_0912	s	s	10	3	SIC	269	ABS	2	0	24VC	0	1	0.626893997192	None	None	None	None	1
1.7	2015_Jul_22_0912	s	s	10	3	SIC	270	ABS	1	2	24MD	0	1	0.654855966568	None	None	None	None	1
1.7	2015_Jul_22_0912	s	s	10	3	SIC	271	RC	1	2	23MD	1	0	0.689232110977	-262.0	401.0	-263	403	1
1.7	2015_Jul_22_0912	s	s	10	3	SIC	272	ABS	0	2	24RD	0	1	0.858608007431	None	None	None	None	1
1.7	2015_Jul_22_0912	s	s	10	3	SIC	273	ABS	0	1	24RO	0	1	6.54381799698	None	None	None	None	1
1.7	2015_Jul_22_0912	s	s	10	3	SIC	274	RC	1	1	23MO	1	0	3.66048407555	296.0	-8.0	290	-4	1
1.7	2015_Jul_22_0912	s	s	10	3	SIC	275	RC	0	2	23RD	1	0	1.08219599724	-330.0	-291.0	-323	-286	1
1.7	2015_Jul_22_0912	s	s	10	3	SIC	276	RC	2	1	23VO	1	0	0.665406942368	-318.0	364.0	-316	362	1
1.7	2015_Jul_22_0912	s	s	10	3	SIC	277	RC	2	2	23VD	1	0	0.49371099472	-283.0	-210.0	-286	-211	1
1.7	2015_Jul_22_0912	s	s	10	3	SIC	278	RC	2	0	23VC	1	0	0.517314195633	322.0	-241.0	319	-245	1
1.7	2015_Jul_22_0912	s	s	10	3	SIC	279	ABS	2	2	24VD	0	1	0.77053809166	None	None	None	None	1
1.7	2015_Jul_22_0912	s	s	10	3	SIC	280	ABS	1	1	24MO	0	1	4.98447489738	None	None	None	None	1
1.7	2015_Jul_22_0912	s	s	10	3	SIC	281	ABS	2	1	24VO	0	1	0.666438102722	None	None	None	None	1
1.7	2015_Jul_22_0912	s	s	10	3	SIC	282	ABS	0	2	24RD	0	1	1.86726999283	None	None	None	None	1
1.7	2015_Jul_22_0912	s	s	10	3	SIC	283	ABS	1	0	24MC	0	1	4.29246711731	None	None	None	None	1
1.7	2015_Jul_22_0912	s	s	10	3	SIC	284	RC	0	1	23RO	0	1	4.93125200272	502.0	285.0	None	None	0
1.7	2015_Jul_22_0912	s	s	10	3	SIC	285	ABS	1	2	24MD	0	1	0.75933599472	None	None	None	None	1
1.7	2015_Jul_22_0912	s	s	10	3	SIC	286	ABS	2	0	24VC	0	1	0.617921113968	None	None	None	None	1
1.7	2015_Jul_22_0912	s	s	10	3	SIC	287	RC	1	2	23MD	1	0	0.536562204361	-219.0	135.0	-214	128	1
1.7	2015_Jul_22_0912	s	s	10	3	SIC	288	RC	1	0	23MC	0	1	4.89063310623	264.0	-46.0	None	None	0
1.7	2015_Jul_22_0912	s	s	10	3	SIC	289	ABS	1	2	24MD	0	1	0.664622783661	None	None	None	None	1
1.7	2015_Jul_22_0912	s	s	10	3	SIC	290	RC	2	1	23VO	1	0	0.579690933228	0.0	-93.0	-6	-95	1
1.7	2015_Jul_22_0912	s	s	10	3	SIC	291	ABS	0	1	24RO	0	1	2.89045596123	None	None	None	None	1
1.7	2015_Jul_22_0912	s	s	10	3	SIC	292	RC	0	2	23RD	1	0	1.00504899025	239.0	372.0	244	373	1
1.7	2015_Jul_22_0912	s	s	10	3	SIC	293	ABS	1	1	24MO	0	1	4.0575709343	None	None	None	None	1
1.7	2015_Jul_22_0912	s	s	10	3	SIC	294	ABS	0	2	24RD	0	1	0.705648899078	None	None	None	None	1
1.7	2015_Jul_22_0912	s	s	10	3	SIC	295	ABS	1	0	24MC	0	1	6.52820897102	None	None	None	None	1
1.7	2015_Jul_22_0912	s	s	10	3	SIC	296	RC	0	1	23RO	1	0	3.90767502785	-287.0	240.0	-286	236	1
1.7	2015_Jul_22_0912	s	s	10	3	SIC	297	RC	1	2	23MD	1	0	0.795378923416	-275.0	265.0	-272	265	1
1.7	2015_Jul_22_0912	s	s	10	3	SIC	298	RC	1	0	23MC	1	0	2.06283402443	-226.0	39.0	-219	37	1
1.7	2015_Jul_22_0912	s	s	10	3	SIC	299	ABS	2	1	24VO	0	1	0.682106971741	None	None	None	None	1
1.7	2015_Jul_22_0912	s	s	10	3	SIC	300	RC	1	1	23MO	1	0	1.76490497589	-362.0	381.0	-361	388	1
1.7	2015_Jul_22_0912	s	s	10	3	SIC	301	RC	2	0	23VC	1	0	0.564345121384	28.0	-73.0	37	-74	1
1.7	2015_Jul_22_0912	s	s	10	3	SIC	302	ABS	2	2	24VD	0	1	0.564439058304	None	None	None	None	1
1.7	2015_Jul_22_0912	s	s	10	3	SIC	303	ABS	2	0	24VC	0	1	0.735481977463	None	None	None	None	1
1.7	2015_Jul_22_0912	s	s	10	3	SIC	304	RC	2	2	23VD	1	0	0.52407002449	-439.0	69.0	-446	68	1
1.7	2015_Jul_22_0912	s	s	10	3	SIC	305	ABS	0	2	24RD	0	1	0.865222215652	None	None	None	None	1
1.7	2015_Jul_22_0912	s	s	10	3	SIC	306	ABS	2	0	24VC	0	1	0.770987987518	None	None	None	None	1
1.7	2015_Jul_22_0912	s	s	10	3	SIC	307	ABS	1	2	24MD	0	1	1.67079281807	None	None	None	None	1
1.7	2015_Jul_22_0912	s	s	10	3	SIC	308	ABS	0	1	24RO	0	1	5.61388587952	None	None	None	None	1
1.7	2015_Jul_22_0912	s	s	10	3	SIC	309	RC	0	1	23RO	1	0	2.19549894333	253.0	-329.0	260	-329	1
1.7	2015_Jul_22_0912	s	s	10	3	SIC	310	ABS	2	2	24VD	0	1	0.658354997635	None	None	None	None	1
1.7	2015_Jul_22_0912	s	s	10	3	SIC	311	ABS	1	1	24MO	0	1	4.78654098511	None	None	None	None	1
1.7	2015_Jul_22_0912	s	s	10	3	SIC	312	RC	0	2	23RD	1	0	0.764363050461	297.0	119.0	300	118	1
1.7	2015_Jul_22_0912	s	s	10	3	SIC	313	RC	1	2	23MD	1	0	0.776571989059	485.0	345.0	495	348	1
1.7	2015_Jul_22_0912	s	s	10	3	SIC	314	RC	2	0	23VC	1	0	0.607808828354	86.0	116.0	86	114	1
1.7	2015_Jul_22_0912	s	s	10	3	SIC	315	ABS	1	0	24MC	0	1	5.0255010128	None	None	None	None	1
1.7	2015_Jul_22_0912	s	s	10	3	SIC	316	ABS	2	1	24VO	0	1	0.723381996155	None	None	None	None	1
1.7	2015_Jul_22_0912	s	s	10	3	SIC	317	RC	1	0	23MC	1	0	2.13351488113	37.0	94.0	43	92	1
1.7	2015_Jul_22_0912	s	s	10	3	SIC	318	RC	2	1	23VO	1	0	0.611521959305	-539.0	-32.0	-546	-34	1
1.7	2015_Jul_22_0912	s	s	10	3	SIC	319	RC	1	1	23MO	1	0	1.17076182365	314.0	158.0	312	153	1
1.7	2015_Jul_22_0912	s	s	10	3	SIC	320	RC	2	2	23VD	1	0	0.477931022644	394.0	92.0	389	92	1
1.7	2015_Jul_22_0912	s	s	10	3	SIC	321	RC	0	1	23RO	0	1	7.54442191124	496.0	-151.0	None	None	0
1.7	2015_Jul_22_0912	s	s	10	3	SIC	322	RC	2	2	23VD	1	0	0.547753095627	-333.0	-51.0	-337	-49	1
1.7	2015_Jul_22_0912	s	s	10	3	SIC	323	ABS	1	0	24MC	0	1	4.03661084175	None	None	None	None	1
1.7	2015_Jul_22_0912	s	s	10	3	SIC	324	ABS	0	2	24RD	0	1	1.09940886497	None	None	None	None	1
1.7	2015_Jul_22_0912	s	s	10	3	SIC	325	ABS	2	1	24VO	0	1	0.723871946335	None	None	None	None	1
1.7	2015_Jul_22_0912	s	s	10	3	SIC	326	RC	2	1	23VO	1	0	0.769681930542	-137.0	-5.0	-133	-3	1
1.7	2015_Jul_22_0912	s	s	10	3	SIC	327	ABS	1	1	24MO	0	1	4.19755196571	None	None	None	None	1
1.7	2015_Jul_22_0912	s	s	10	3	SIC	328	RC	0	2	23RD	1	0	0.52561211586	-398.0	227.0	-388	229	1
1.7	2015_Jul_22_0912	s	s	10	3	SIC	329	ABS	2	0	24VC	0	1	0.573690891266	None	None	None	None	1
1.7	2015_Jul_22_0912	s	s	10	3	SIC	330	ABS	0	1	24RO	0	1	4.40946912766	None	None	None	None	1
1.7	2015_Jul_22_0912	s	s	10	3	SIC	331	ABS	1	2	24MD	0	1	1.10084891319	None	None	None	None	1
1.7	2015_Jul_22_0912	s	s	10	3	SIC	332	RC	1	1	23MO	1	0	1.21912503242	-124.0	-388.0	-121	-393	1
1.7	2015_Jul_22_0912	s	s	10	3	SIC	333	RC	2	0	23VC	1	0	0.688628911972	-468.0	-6.0	-462	-10	1
1.7	2015_Jul_22_0912	s	s	10	3	SIC	334	ABS	2	2	24VD	0	1	0.523202896118	None	None	None	None	1
1.7	2015_Jul_22_0912	s	s	10	3	SIC	335	RC	1	0	23MC	1	0	6.89105200768	-238.0	-90.0	-245	-95	1
1.7	2015_Jul_22_0912	s	s	10	3	SIC	336	RC	1	2	23MD	1	0	0.905644893646	-426.0	-224.0	-435	-227	1
1.7	2015_Jul_22_0912	s	s	10	3	SIC	337	ABS	2	2	24VD	0	1	0.737138986588	None	None	None	None	1
1.7	2015_Jul_22_0912	s	s	10	3	SIC	338	RC	2	1	23VO	1	0	0.467253923416	-51.0	-61.0	-56	-55	1
1.7	2015_Jul_22_0912	s	s	10	3	SIC	339	RC	1	2	23MD	1	0	0.54990696907	71.0	237.0	79	245	1
1.7	2015_Jul_22_0912	s	s	10	3	SIC	340	RC	1	1	23MO	1	0	2.1063079834	41.0	198.0	49	193	1
1.7	2015_Jul_22_0912	s	s	10	3	SIC	341	ABS	1	2	24MD	0	1	0.832530975342	None	None	None	None	1
1.7	2015_Jul_22_0912	s	s	10	3	SIC	342	ABS	1	0	24MC	0	1	4.84889912605	None	None	None	None	1
1.7	2015_Jul_22_0912	s	s	10	3	SIC	343	ABS	0	1	24RO	0	1	3.61898398399	None	None	None	None	1
1.7	2015_Jul_22_0912	s	s	10	3	SIC	344	ABS	1	1	24MO	0	1	4.07556986809	None	None	None	None	1
1.7	2015_Jul_22_0912	s	s	10	3	SIC	345	RC	2	0	23VC	1	0	0.477392911911	-216.0	-177.0	-216	-175	1
1.7	2015_Jul_22_0912	s	s	10	3	SIC	346	ABS	2	1	24VO	0	1	0.677020072937	None	None	None	None	1
1.7	2015_Jul_22_0912	s	s	10	3	SIC	347	RC	0	1	23RO	1	0	1.71406817436	70.0	234.0	65	227	1
1.7	2015_Jul_22_0912	s	s	10	3	SIC	348	RC	2	2	23VD	1	0	0.546767950058	519.0	-194.0	528	-194	1
1.7	2015_Jul_22_0912	s	s	10	3	SIC	349	RC	0	2	23RD	1	0	0.558481931686	83.0	253.0	78	246	1
1.7	2015_Jul_22_0912	s	s	10	3	SIC	350	ABS	2	0	24VC	0	1	0.793994903564	None	None	None	None	1
1.7	2015_Jul_22_0912	s	s	10	3	SIC	351	ABS	0	2	24RD	0	1	1.05275893211	None	None	None	None	1
1.7	2015_Jul_22_0912	s	s	10	3	SIC	352	RC	1	0	23MC	0	1	8.15633392334	-528.0	-287.0	None	None	0
1.7	2015_Jul_22_0912	s	s	10	3	SIC	353	ABS	1	2	24MD	0	1	0.791579008102	None	None	None	None	1
1.7	2015_Jul_22_0912	s	s	10	3	SIC	354	RC	1	2	23MD	1	0	0.653079032898	-10.0	-356.0	-1	-351	1
1.7	2015_Jul_22_0912	s	s	10	3	SIC	355	RC	0	1	23RO	1	0	3.66618013382	225.0	148.0	224	147	1
1.7	2015_Jul_22_0912	s	s	10	3	SIC	356	RC	2	2	23VD	1	0	0.617324113846	-325.0	-402.0	-326	-398	1
1.7	2015_Jul_22_0912	s	s	10	3	SIC	357	ABS	1	1	24MO	0	1	3.88374018669	None	None	None	None	1
1.7	2015_Jul_22_0912	s	s	10	3	SIC	358	ABS	2	2	24VD	0	1	0.599644899368	None	None	None	None	1
1.7	2015_Jul_22_0912	s	s	10	3	SIC	359	ABS	0	2	24RD	0	1	1.31302285194	None	None	None	None	1
1.7	2015_Jul_22_0912	s	s	10	3	SIC	360	RC	2	0	23VC	1	0	0.540940999985	-424.0	-85.0	-417	-87	1
1.7	2015_Jul_22_0912	s	s	10	3	SIC	361	ABS	2	0	24VC	0	1	0.549944162369	None	None	None	None	1
1.7	2015_Jul_22_0912	s	s	10	3	SIC	362	ABS	2	1	24VO	0	1	0.529104948044	None	None	None	None	1
1.7	2015_Jul_22_0912	s	s	10	3	SIC	363	ABS	0	1	24RO	0	1	5.19024610519	None	None	None	None	1
1.7	2015_Jul_22_0912	s	s	10	3	SIC	364	RC	1	0	23MC	1	0	2.33004593849	190.0	-75.0	190	-69	1
1.7	2015_Jul_22_0912	s	s	10	3	SIC	365	RC	1	1	23MO	1	0	1.10011196136	352.0	-262.0	355	-263	1
1.7	2015_Jul_22_0912	s	s	10	3	SIC	366	ABS	1	0	24MC	0	1	2.54837703705	None	None	None	None	1
1.7	2015_Jul_22_0912	s	s	10	3	SIC	367	RC	0	2	23RD	1	0	0.535062074661	-100.0	-138.0	-97	-137	1
1.7	2015_Jul_22_0912	s	s	10	3	SIC	368	RC	2	1	23VO	1	0	0.630520820618	34.0	403.0	27	397	1
1.7	2015_Jul_22_0912	s	s	10	3	SIC	369	RC	1	0	23MC	1	0	3.65441012383	-193.0	287.0	-194	291	1
1.7	2015_Jul_22_0912	s	s	10	3	SIC	370	ABS	0	2	24RD	0	1	0.611399888992	None	None	None	None	1
1.7	2015_Jul_22_0912	s	s	10	3	SIC	371	RC	1	1	23MO	1	0	0.964646100998	-190.0	404.0	-189	410	1
1.7	2015_Jul_22_0912	s	s	10	3	SIC	372	ABS	1	2	24MD	0	1	0.752691030502	None	None	None	None	1
1.7	2015_Jul_22_0912	s	s	10	3	SIC	373	RC	2	2	23VD	1	0	0.488564968109	113.0	-103.0	107	-107	1
1.7	2015_Jul_22_0912	s	s	10	3	SIC	374	ABS	2	1	24VO	0	1	0.678600072861	None	None	None	None	1
1.7	2015_Jul_22_0912	s	s	10	3	SIC	375	ABS	1	1	24MO	0	1	3.12777018547	None	None	None	None	1
1.7	2015_Jul_22_0912	s	s	10	3	SIC	376	RC	0	2	23RD	1	0	0.611392021179	169.0	57.0	177	64	1
1.7	2015_Jul_22_0912	s	s	10	3	SIC	377	RC	2	0	23VC	1	0	0.500090122223	474.0	-313.0	481	-312	1
1.7	2015_Jul_22_0912	s	s	10	3	SIC	378	ABS	0	1	24RO	0	1	4.97323513031	None	None	None	None	1
1.7	2015_Jul_22_0912	s	s	10	3	SIC	379	ABS	1	0	24MC	0	1	1.706179142	None	None	None	None	1
1.7	2015_Jul_22_0912	s	s	10	3	SIC	380	RC	1	2	23MD	1	0	0.561178922653	216.0	-408.0	210	-404	1
1.7	2015_Jul_22_0912	s	s	10	3	SIC	381	RC	0	1	23RO	1	0	4.55455899239	151.0	-40.0	158	-37	1
1.7	2015_Jul_22_0912	s	s	10	3	SIC	382	RC	2	1	23VO	1	0	0.688639879227	-105.0	-402.0	-102	-405	1
1.7	2015_Jul_22_0912	s	s	10	3	SIC	383	ABS	2	2	24VD	0	1	0.572113990784	None	None	None	None	1
1.7	2015_Jul_22_0912	s	s	10	3	SIC	384	ABS	2	0	24VC	0	1	0.58282494545	None	None	None	None	1
1.7	2015_Jul_22_0912	s	s	10	3	SIC	385	RC	0	2	23RD	1	0	0.64679312706	38.0	356.0	44	358	1
1.7	2015_Jul_22_0912	s	s	10	3	SIC	386	RC	0	1	23RO	1	0	4.7546620369	270.0	167.0	269	173	1
1.7	2015_Jul_22_0912	s	s	10	3	SIC	387	ABS	1	0	24MC	0	1	2.81240200996	None	None	None	None	1
1.7	2015_Jul_22_0912	s	s	10	3	SIC	388	RC	1	1	23MO	1	0	0.988137960434	3.0	14.0	7	16	1
1.7	2015_Jul_22_0912	s	s	10	3	SIC	389	ABS	2	1	24VO	0	1	0.734863996506	None	None	None	None	1
1.7	2015_Jul_22_0912	s	s	10	3	SIC	390	ABS	0	1	24RO	0	1	4.11438918114	None	None	None	None	1
1.7	2015_Jul_22_0912	s	s	10	3	SIC	391	RC	2	2	23VD	1	0	0.561532020569	-282.0	77.0	-286	71	1
1.7	2015_Jul_22_0912	s	s	10	3	SIC	392	RC	1	0	23MC	0	1	2.65383315086	227.0	-42.0	None	None	0
1.7	2015_Jul_22_0912	s	s	10	3	SIC	393	ABS	1	1	24MO	0	1	3.37428808212	None	None	None	None	1
1.7	2015_Jul_22_0912	s	s	10	3	SIC	394	RC	1	2	23MD	1	0	0.717453956604	-504.0	-116.0	-500	-110	1
1.7	2015_Jul_22_0912	s	s	10	3	SIC	395	ABS	2	2	24VD	0	1	0.619828939438	None	None	None	None	1
1.7	2015_Jul_22_0912	s	s	10	3	SIC	396	ABS	0	2	24RD	0	1	1.26762318611	None	None	None	None	1
1.7	2015_Jul_22_0912	s	s	10	3	SIC	397	RC	2	1	23VO	1	0	0.670310020447	441.0	104.0	444	105	1
1.7	2015_Jul_22_0912	s	s	10	3	SIC	398	ABS	2	0	24VC	0	1	0.573526144028	None	None	None	None	1
1.7	2015_Jul_22_0912	s	s	10	3	SIC	399	ABS	1	2	24MD	0	1	1.51467990875	None	None	None	None	1
1.7	2015_Jul_22_0912	s	s	10	3	SIC	400	RC	2	0	23VC	1	0	0.470179080963	258.0	49.0	254	50	1
1.7	2015_Jul_22_0912	s	s	10	3	SIC	401	ABS	1	2	24MD	0	1	1.13753986359	None	None	None	None	1
1.7	2015_Jul_22_0912	s	s	10	3	SIC	402	RC	0	1	23RO	1	0	1.61199116707	-302.0	38.0	-297	47	1
1.7	2015_Jul_22_0912	s	s	10	3	SIC	403	RC	2	0	23VC	1	0	1.19999408722	-200.0	-162.0	-209	-160	1
1.7	2015_Jul_22_0912	s	s	10	3	SIC	404	ABS	0	2	24RD	0	1	0.878505945206	None	None	None	None	1
1.7	2015_Jul_22_0912	s	s	10	3	SIC	405	RC	1	0	23MC	0	1	4.01673197746	238.0	-359.0	None	None	0
1.7	2015_Jul_22_0912	s	s	10	3	SIC	406	RC	1	1	23MO	1	0	1.53653812408	-483.0	373.0	-487	371	1
1.7	2015_Jul_22_0912	s	s	10	3	SIC	407	RC	2	2	23VD	1	0	0.523858070374	76.0	-79.0	73	-79	1
1.7	2015_Jul_22_0912	s	s	10	3	SIC	408	RC	1	2	23MD	1	0	0.647039175034	-538.0	-74.0	-544	-67	1
1.7	2015_Jul_22_0912	s	s	10	3	SIC	409	ABS	1	0	24MC	0	1	5.05567383766	None	None	None	None	1
1.7	2015_Jul_22_0912	s	s	10	3	SIC	410	ABS	1	1	24MO	0	1	4.35487794876	None	None	None	None	1
1.7	2015_Jul_22_0912	s	s	10	3	SIC	411	RC	0	2	23RD	1	0	1.24133896828	435.0	118.0	428	122	1
1.7	2015_Jul_22_0912	s	s	10	3	SIC	412	ABS	2	0	24VC	0	1	0.663763999939	None	None	None	None	1
1.7	2015_Jul_22_0912	s	s	10	3	SIC	413	ABS	2	1	24VO	0	1	0.56069111824	None	None	None	None	1
1.7	2015_Jul_22_0912	s	s	10	3	SIC	414	RC	2	1	23VO	1	0	0.479433059692	-483.0	-214.0	-483	-209	1
1.7	2015_Jul_22_0912	s	s	10	3	SIC	415	ABS	0	1	24RO	0	1	3.14211010933	None	None	None	None	1
1.7	2015_Jul_22_0912	s	s	10	3	SIC	416	ABS	2	2	24VD	0	1	0.49111700058	None	None	None	None	1
1.7	2015_Jul_22_0912	s	s	10	3	SIC	417	RC	1	1	23MO	1	0	2.53006982803	-377.0	-182.0	-368	-180	1
1.7	2015_Jul_22_0912	s	s	10	3	SIC	418	ABS	2	0	24VC	0	1	0.575947999954	None	None	None	None	1
1.7	2015_Jul_22_0912	s	s	10	3	SIC	419	RC	0	2	23RD	1	0	0.564394950867	232.0	-334.0	229	-328	1
1.7	2015_Jul_22_0912	s	s	10	3	SIC	420	ABS	2	2	24VD	0	1	0.646697998047	None	None	None	None	1
1.7	2015_Jul_22_0912	s	s	10	3	SIC	421	ABS	1	0	24MC	0	1	2.4122428894	None	None	None	None	1
1.7	2015_Jul_22_0912	s	s	10	3	SIC	422	RC	2	1	23VO	1	0	0.564341068268	-34.0	-111.0	-34	-109	1
1.7	2015_Jul_22_0912	s	s	10	3	SIC	423	RC	0	1	23RO	1	0	2.42413282394	454.0	7.0	459	9	1
1.7	2015_Jul_22_0912	s	s	10	3	SIC	424	ABS	2	1	24VO	0	1	0.593425989151	None	None	None	None	1
1.7	2015_Jul_22_0912	s	s	10	3	SIC	425	ABS	1	2	24MD	0	1	1.19651007652	None	None	None	None	1
1.7	2015_Jul_22_0912	s	s	10	3	SIC	426	RC	1	2	23MD	1	0	0.693897008896	273.0	-399.0	280	-394	1
1.7	2015_Jul_22_0912	s	s	10	3	SIC	427	RC	2	2	23VD	1	0	0.557941913605	256.0	-341.0	250	-343	1
1.7	2015_Jul_22_0912	s	s	10	3	SIC	428	RC	2	0	23VC	1	0	0.6659719944	517.0	355.0	511	355	1
1.7	2015_Jul_22_0912	s	s	10	3	SIC	429	RC	1	0	23MC	1	0	1.88271188736	291.0	314.0	292	310	1
1.7	2015_Jul_22_0912	s	s	10	3	SIC	430	ABS	1	1	24MO	0	1	4.15039896965	None	None	None	None	1
1.7	2015_Jul_22_0912	s	s	10	3	SIC	431	ABS	0	1	24RO	0	1	4.80183815956	None	None	None	None	1
1.7	2015_Jul_22_0912	s	s	10	3	SIC	432	ABS	0	2	24RD	0	1	1.09417390823	None	None	None	None	1
1.7	2015_Jul_22_0912	s	s	10	3	SIC	433	RC	2	2	23VD	1	0	0.505541086197	-277.0	258.0	-281	265	1
1.7	2015_Jul_22_0912	s	s	10	3	SIC	434	RC	1	0	23MC	1	0	1.04696702957	-409.0	146.0	-409	141	1
1.7	2015_Jul_22_0912	s	s	10	3	SIC	435	ABS	1	1	24MO	0	1	1.51427817345	None	None	None	None	1
1.7	2015_Jul_22_0912	s	s	10	3	SIC	436	ABS	0	1	24RO	0	1	3.37336397171	None	None	None	None	1
1.7	2015_Jul_22_0912	s	s	10	3	SIC	437	RC	2	1	23VO	1	0	0.464529037476	7.0	-244.0	11	-240	1
1.7	2015_Jul_22_0912	s	s	10	3	SIC	438	ABS	2	0	24VC	0	1	0.784861803055	None	None	None	None	1
1.7	2015_Jul_22_0912	s	s	10	3	SIC	439	RC	1	1	23MO	1	0	0.97634100914	302.0	255.0	304	253	1
1.7	2015_Jul_22_0912	s	s	10	3	SIC	440	RC	0	2	23RD	1	0	0.759641885757	-34.0	-395.0	-30	-387	1
1.7	2015_Jul_22_0912	s	s	10	3	SIC	441	RC	1	2	23MD	1	0	0.559937953949	458.0	145.0	457	150	1
1.7	2015_Jul_22_0912	s	s	10	3	SIC	442	ABS	2	1	24VO	0	1	0.689826965332	None	None	None	None	1
1.7	2015_Jul_22_0912	s	s	10	3	SIC	443	ABS	1	0	24MC	1	0	1.84737706184	None	None	-192	81	0
1.7	2015_Jul_22_0912	s	s	10	3	SIC	444	ABS	0	2	24RD	0	1	0.776239871979	None	None	None	None	1
1.7	2015_Jul_22_0912	s	s	10	3	SIC	445	ABS	1	2	24MD	0	1	0.878690958023	None	None	None	None	1
1.7	2015_Jul_22_0912	s	s	10	3	SIC	446	RC	0	1	23RO	0	1	4.58706307411	267.0	-248.0	None	None	0
1.7	2015_Jul_22_0912	s	s	10	3	SIC	447	ABS	2	2	24VD	0	1	0.599622011185	None	None	None	None	1
1.7	2015_Jul_22_0912	s	s	10	3	SIC	448	RC	2	0	23VC	1	0	0.560271978378	444.0	-245.0	449	-242	1
1.7	2015_Jul_22_0912	s	s	10	3	SIC	449	ABS	2	1	24VO	0	1	0.605929851532	None	None	None	None	1
1.7	2015_Jul_22_0912	s	s	10	3	SIC	450	RC	2	0	23VC	1	0	0.587952136993	-514.0	-333.0	-510	-342	1
1.7	2015_Jul_22_0912	s	s	10	3	SIC	451	RC	2	1	23VO	1	0	0.595063924789	203.0	131.0	198	131	1
1.7	2015_Jul_22_0912	s	s	10	3	SIC	452	RC	1	0	23MC	1	0	2.51292085648	-498.0	-358.0	-497	-366	1
1.7	2015_Jul_22_0912	s	s	10	3	SIC	453	RC	0	1	23RO	1	0	2.47944784164	-365.0	399.0	-358	399	1
1.7	2015_Jul_22_0912	s	s	10	3	SIC	454	ABS	2	2	24VD	0	1	0.559214830399	None	None	None	None	1
1.7	2015_Jul_22_0912	s	s	10	3	SIC	455	ABS	1	1	24MO	0	1	5.30804419518	None	None	None	None	1
1.7	2015_Jul_22_0912	s	s	10	3	SIC	456	RC	1	2	23MD	1	0	0.517359972	-216.0	-128.0	-209	-131	1
1.7	2015_Jul_22_0912	s	s	10	3	SIC	457	RC	0	2	23RD	1	0	0.540723085403	-195.0	211.0	-200	209	1
1.7	2015_Jul_22_0912	s	s	10	3	SIC	458	ABS	1	0	24MC	0	1	3.68359184265	None	None	None	None	1
1.7	2015_Jul_22_0912	s	s	10	3	SIC	459	ABS	2	0	24VC	0	1	0.842920064926	None	None	None	None	1
1.7	2015_Jul_22_0912	s	s	10	3	SIC	460	ABS	0	2	24RD	0	1	1.22352814674	None	None	None	None	1
1.7	2015_Jul_22_0912	s	s	10	3	SIC	461	RC	2	2	23VD	1	0	0.51731300354	390.0	-350.0	390	-357	1
1.7	2015_Jul_22_0912	s	s	10	3	SIC	462	ABS	0	1	24RO	0	1	4.55463004112	None	None	None	None	1
1.7	2015_Jul_22_0912	s	s	10	3	SIC	463	ABS	1	2	24MD	0	1	0.634970903397	None	None	None	None	1
1.7	2015_Jul_22_0912	s	s	10	3	SIC	464	RC	1	1	23MO	1	0	0.796153068542	476.0	238.0	481	241	1
1.7	2015_Jul_22_0912	s	s	10	3	SIC	465	ABS	2	2	24VD	0	1	0.806482076645	None	None	None	None	1
1.7	2015_Jul_22_0912	s	s	10	3	SIC	466	ABS	2	1	24VO	0	1	0.572169065475	None	None	None	None	1
1.7	2015_Jul_22_0912	s	s	10	3	SIC	467	RC	0	2	23RD	1	0	0.552577972412	50.0	54.0	50	54	1
1.7	2015_Jul_22_0912	s	s	10	3	SIC	468	RC	2	2	23VD	1	0	0.547784805298	-132.0	-73.0	-133	-72	1
1.7	2015_Jul_22_0912	s	s	10	3	SIC	469	ABS	1	1	24MO	0	1	2.499532938	None	None	None	None	1
1.7	2015_Jul_22_0912	s	s	10	3	SIC	470	RC	1	0	23MC	1	0	0.984534025192	296.0	-293.0	-283	96	0
1.7	2015_Jul_22_0912	s	s	10	3	SIC	471	RC	2	0	23VC	1	0	0.585123062134	184.0	-239.0	179	-242	1
1.7	2015_Jul_22_0912	s	s	10	3	SIC	472	ABS	2	0	24VC	0	1	0.599737167358	None	None	None	None	1
1.7	2015_Jul_22_0912	s	s	10	3	SIC	473	RC	0	1	23RO	1	0	3.25554203987	-497.0	257.0	-498	258	1
1.7	2015_Jul_22_0912	s	s	10	3	SIC	474	RC	2	1	23VO	1	0	0.632266998291	241.0	15.0	234	15	1
1.7	2015_Jul_22_0912	s	s	10	3	SIC	475	ABS	1	2	24MD	0	1	0.702806949615	None	None	None	None	1
1.7	2015_Jul_22_0912	s	s	10	3	SIC	476	ABS	0	1	24RO	0	1	3.72257804871	None	None	None	None	1
1.7	2015_Jul_22_0912	s	s	10	3	SIC	477	ABS	1	0	24MC	0	1	2.48040890694	None	None	None	None	1
1.7	2015_Jul_22_0912	s	s	10	3	SIC	478	ABS	0	2	24RD	0	1	0.61821603775	None	None	None	None	1
1.7	2015_Jul_22_0912	s	s	10	3	SIC	479	RC	1	2	23MD	1	0	0.576151847839	448.0	26.0	448	26	1
1.7	2015_Jul_22_0912	s	s	10	3	SIC	480	RC	1	1	23MO	1	0	1.0352139473	-271.0	79.0	-266	88	1
1.7	2015_Jul_22_0912	s	s	10	3	SIC	481	RC	0	1	23RO	1	0	2.4419901371	-81.0	-362.0	-72	-362	1
1.7	2015_Jul_22_0912	s	s	10	3	SIC	482	ABS	2	0	24VC	0	1	0.558640003204	None	None	None	None	1
1.7	2015_Jul_22_0912	s	s	10	3	SIC	483	RC	1	1	23MO	1	0	1.03520798683	-120.0	212.0	-119	213	1
1.7	2015_Jul_22_0912	s	s	10	3	SIC	484	RC	2	1	23VO	1	0	0.62319111824	-244.0	-370.0	-239	-370	1
1.7	2015_Jul_22_0912	s	s	10	3	SIC	485	ABS	0	1	24RO	0	1	4.16130208969	None	None	None	None	1
1.7	2015_Jul_22_0912	s	s	10	3	SIC	486	ABS	2	2	24VD	0	1	0.646744966507	None	None	None	None	1
1.7	2015_Jul_22_0912	s	s	10	3	SIC	487	ABS	1	1	24MO	0	1	3.22452402115	None	None	None	None	1
1.7	2015_Jul_22_0912	s	s	10	3	SIC	488	RC	2	2	23VD	1	0	0.525501012802	-279.0	-379.0	-272	-376	1
1.7	2015_Jul_22_0912	s	s	10	3	SIC	489	ABS	2	1	24VO	0	1	0.608675003052	None	None	None	None	1
1.7	2015_Jul_22_0912	s	s	10	3	SIC	490	ABS	1	2	24MD	0	1	1.17382121086	None	None	None	None	1
1.7	2015_Jul_22_0912	s	s	10	3	SIC	491	RC	2	0	23VC	1	0	0.540827989578	51.0	-210.0	48	-216	1
1.7	2015_Jul_22_0912	s	s	10	3	SIC	492	ABS	1	0	24MC	0	1	3.60778403282	None	None	None	None	1
1.7	2015_Jul_22_0912	s	s	10	3	SIC	493	RC	1	2	23MD	1	0	0.607455015182	266.0	250.0	269	247	1
1.7	2015_Jul_22_0912	s	s	10	3	SIC	494	RC	1	0	23MC	0	1	6.5152220726	-384.0	154.0	None	None	0
1.7	2015_Jul_22_0912	s	s	10	3	SIC	495	ABS	0	2	24RD	0	1	0.913704156876	None	None	None	None	1
1.7	2015_Jul_22_0912	s	s	10	3	SIC	496	RC	0	2	23RD	1	0	0.759530067444	434.0	-331.0	432	-329	1
1.7	2015_Jul_22_0912	s	s	10	3	SIC	497	ABS	0	2	24RD	0	1	1.13732409477	None	None	None	None	1
1.7	2015_Jul_22_0912	s	s	10	3	SIC	498	RC	0	2	23RD	1	0	0.490902900696	22.0	-137.0	20	-134	1
1.7	2015_Jul_22_0912	s	s	10	3	SIC	499	RC	1	1	23MO	1	0	2.49478316307	-485.0	294.0	-480	302	1
1.7	2015_Jul_22_0912	s	s	10	3	SIC	500	ABS	1	2	24MD	0	1	1.08231782913	None	None	None	None	1
1.7	2015_Jul_22_0912	s	s	10	3	SIC	501	ABS	2	2	24VD	0	1	0.608865976334	None	None	None	None	1
1.7	2015_Jul_22_0912	s	s	10	3	SIC	502	ABS	2	1	24VO	0	1	0.677572965622	None	None	None	None	1
1.7	2015_Jul_22_0912	s	s	10	3	SIC	503	ABS	2	0	24VC	1	0	0.524547100067	None	None	64	4	0
1.7	2015_Jul_22_0912	s	s	10	3	SIC	504	RC	1	2	23MD	1	0	0.844288110733	-259.0	268.0	-251	268	1
1.7	2015_Jul_22_0912	s	s	10	3	SIC	505	ABS	1	0	24MC	1	0	1.58842277527	None	None	-272	223	0
1.7	2015_Jul_22_0912	s	s	10	3	SIC	506	RC	2	1	23VO	1	0	0.658440828323	356.0	294.0	367	295	1
1.7	2015_Jul_22_0912	s	s	10	3	SIC	507	ABS	0	1	24RO	0	1	4.82001113892	None	None	None	None	1
1.7	2015_Jul_22_0912	s	s	10	3	SIC	508	RC	0	1	23RO	1	0	3.33034682274	-386.0	21.0	-382	29	1
1.7	2015_Jul_22_0912	s	s	10	3	SIC	509	ABS	1	1	24MO	0	1	2.47807312012	None	None	None	None	1
1.7	2015_Jul_22_0912	s	s	10	3	SIC	510	RC	2	2	23VD	1	0	0.580726146698	190.0	-192.0	194	-196	1
1.7	2015_Jul_22_0912	s	s	10	3	SIC	511	RC	2	0	23VC	1	0	0.641716003418	466.0	263.0	466	271	1
1.7	2015_Jul_22_0912	s	s	10	3	SIC	512	RC	1	0	23MC	1	0	0.66592001915	-134.0	7.0	-130	5	1
1.7	2015_Jul_22_0912	s	s	10	3	SIC	513	RC	2	2	23VD	1	0	0.481975078583	28.0	-178.0	18	-180	1
1.7	2015_Jul_22_0912	s	s	10	3	SIC	514	ABS	1	2	24MD	0	1	0.806587934494	None	None	None	None	1
1.7	2015_Jul_22_0912	s	s	10	3	SIC	515	RC	0	2	23RD	1	0	0.494092941284	412.0	-292.0	415	-293	1
1.7	2015_Jul_22_0912	s	s	10	3	SIC	516	RC	1	1	23MO	1	0	0.997355937958	-427.0	-214.0	-424	-209	1
1.7	2015_Jul_22_0912	s	s	10	3	SIC	517	ABS	0	2	24RD	0	1	0.764313936234	None	None	None	None	1
1.7	2015_Jul_22_0912	s	s	10	3	SIC	518	RC	0	1	23RO	1	0	1.85915017128	-218.0	126.0	-217	132	1
1.7	2015_Jul_22_0912	s	s	10	3	SIC	519	RC	2	1	23VO	1	0	2.4711561203	-415.0	231.0	-419	224	1
1.7	2015_Jul_22_0912	s	s	10	3	SIC	520	RC	1	2	23MD	1	0	0.61500787735	-285.0	266.0	-288	263	1
1.7	2015_Jul_22_0912	s	s	10	3	SIC	521	RC	1	0	23MC	0	1	8.25066518784	-291.0	-84.0	None	None	0
1.7	2015_Jul_22_0912	s	s	10	3	SIC	522	ABS	1	0	24MC	0	1	5.37535881996	None	None	None	None	1
1.7	2015_Jul_22_0912	s	s	10	3	SIC	523	ABS	0	1	24RO	0	1	4.64337706566	None	None	None	None	1
1.7	2015_Jul_22_0912	s	s	10	3	SIC	524	ABS	1	1	24MO	0	1	2.1366508007	None	None	None	None	1
1.7	2015_Jul_22_0912	s	s	10	3	SIC	525	ABS	2	0	24VC	0	1	0.540892839432	None	None	None	None	1
1.7	2015_Jul_22_0912	s	s	10	3	SIC	526	RC	2	0	23VC	1	0	0.525813102722	-104.0	-65.0	-99	-65	1
1.7	2015_Jul_22_0912	s	s	10	3	SIC	527	ABS	2	1	24VO	0	1	0.587832212448	None	None	None	None	1
1.7	2015_Jul_22_0912	s	s	10	3	SIC	528	ABS	2	2	24VD	0	1	0.465033054352	None	None	None	None	1
1.7	2015_Jul_22_0912	s	s	10	3	SIC	529	RC	2	1	23VO	1	0	0.51732301712	-288.0	155.0	-283	157	1
1.7	2015_Jul_22_0912	s	s	10	3	SIC	530	ABS	0	1	24RO	0	1	4.01322817802	None	None	None	None	1
1.7	2015_Jul_22_0912	s	s	10	3	SIC	531	RC	1	0	23MC	1	0	2.43598604202	-485.0	126.0	-483	126	1
1.7	2015_Jul_22_0912	s	s	10	3	SIC	532	ABS	0	2	24RD	0	1	0.670305967331	None	None	None	None	1
1.7	2015_Jul_22_0912	s	s	10	3	SIC	533	ABS	1	0	24MC	0	1	3.47165703773	None	None	None	None	1
1.7	2015_Jul_22_0912	s	s	10	3	SIC	534	RC	0	1	23RO	1	0	3.80801892281	441.0	322.0	438	325	1
1.7	2015_Jul_22_0912	s	s	10	3	SIC	535	ABS	1	2	24MD	0	1	0.865089893341	None	None	None	None	1
1.7	2015_Jul_22_0912	s	s	10	3	SIC	536	RC	0	2	23RD	1	0	0.583096027374	-297.0	171.0	-300	179	1
1.7	2015_Jul_22_0912	s	s	10	3	SIC	537	ABS	2	1	24VO	0	1	0.59638094902	None	None	None	None	1
1.7	2015_Jul_22_0912	s	s	10	3	SIC	538	ABS	1	1	24MO	0	1	2.94872617722	None	None	None	None	1
1.7	2015_Jul_22_0912	s	s	10	3	SIC	539	RC	1	1	23MO	1	0	1.13852596283	114.0	-22.0	116	-17	1
1.7	2015_Jul_22_0912	s	s	10	3	SIC	540	RC	2	2	23VD	1	0	0.634907007217	-246.0	18.0	-238	13	1
1.7	2015_Jul_22_0912	s	s	10	3	SIC	541	ABS	2	0	24VC	0	1	0.776266098022	None	None	None	None	1
1.7	2015_Jul_22_0912	s	s	10	3	SIC	542	RC	1	2	23MD	1	0	0.722650051117	495.0	-245.0	502	-245	1
1.7	2015_Jul_22_0912	s	s	10	3	SIC	543	ABS	2	2	24VD	0	1	0.529042005539	None	None	None	None	1
1.7	2015_Jul_22_0912	s	s	10	3	SIC	544	RC	2	0	23VC	1	0	1.61952996254	-433.0	52.0	-421	55	1
1.7	2015_Jul_22_0912	s	s	10	3	SIC	545	RC	0	1	23RO	1	0	1.73881196976	-128.0	-73.0	-125	-76	1
1.7	2015_Jul_22_0912	s	s	10	3	SIC	546	ABS	2	0	24VC	0	1	0.599776029587	None	None	None	None	1
1.7	2015_Jul_22_0912	s	s	10	3	SIC	547	RC	2	1	23VO	1	0	0.705585002899	-422.0	-393.0	-419	-384	1
1.7	2015_Jul_22_0912	s	s	10	3	SIC	548	RC	1	2	23MD	1	0	1.19479894638	-509.0	-134.0	-515	-140	1
1.7	2015_Jul_22_0912	s	s	10	3	SIC	549	RC	2	2	23VD	1	0	0.608584880829	365.0	248.0	360	246	1
1.7	2015_Jul_22_0912	s	s	10	3	SIC	550	ABS	1	2	24MD	0	1	1.67756009102	None	None	None	None	1
1.7	2015_Jul_22_0912	s	s	10	3	SIC	551	ABS	2	2	24VD	0	1	0.623255968094	None	None	None	None	1
1.7	2015_Jul_22_0912	s	s	10	3	SIC	552	RC	1	1	23MO	0	1	4.08383393288	-436.0	-407.0	None	None	0
1.7	2015_Jul_22_0912	s	s	10	3	SIC	553	ABS	0	1	24RO	0	1	5.16708707809	None	None	None	None	1
1.7	2015_Jul_22_0912	s	s	10	3	SIC	554	ABS	2	1	24VO	0	1	0.68195104599	None	None	None	None	1
1.7	2015_Jul_22_0912	s	s	10	3	SIC	555	ABS	1	1	24MO	0	1	3.6601729393	None	None	None	None	1
1.7	2015_Jul_22_0912	s	s	10	3	SIC	556	ABS	0	2	24RD	0	1	0.843765974045	None	None	None	None	1
1.7	2015_Jul_22_0912	s	s	10	3	SIC	557	RC	0	2	23RD	1	0	0.752774000168	340.0	-158.0	337	-149	1
1.7	2015_Jul_22_0912	s	s	10	3	SIC	558	ABS	1	0	24MC	0	1	3.12572813034	None	None	None	None	1
1.7	2015_Jul_22_0912	s	s	10	3	SIC	559	RC	2	0	23VC	1	0	0.658621072769	-36.0	-372.0	-28	-370	1
1.7	2015_Jul_22_0912	s	s	10	3	SIC	560	RC	1	0	23MC	0	1	5.58497714996	320.0	-363.0	None	None	0
1.7	2015_Jul_22_0912	s	s	10	3	SIC	561	RC	2	2	23VD	1	0	0.552633047104	-263.0	290.0	-262	284	1
1.7	2015_Jul_22_0912	s	s	10	3	SIC	562	RC	0	2	23RD	1	0	0.570422172546	-386.0	-174.0	-384	-180	1
1.7	2015_Jul_22_0912	s	s	10	3	SIC	563	RC	2	1	23VO	1	0	0.572997093201	408.0	-194.0	410	-199	1
1.7	2015_Jul_22_0912	s	s	10	3	SIC	564	ABS	0	2	24RD	0	1	0.623252153397	None	None	None	None	1
1.7	2015_Jul_22_0912	s	s	10	3	SIC	565	RC	0	1	23RO	0	1	3.89007091522	-172.0	-24.0	None	None	0
1.7	2015_Jul_22_0912	s	s	10	3	SIC	566	RC	1	0	23MC	0	1	4.84873795509	-326.0	200.0	None	None	0
1.7	2015_Jul_22_0912	s	s	10	3	SIC	567	ABS	2	2	24VD	0	1	0.474436044693	None	None	None	None	1
1.7	2015_Jul_22_0912	s	s	10	3	SIC	568	ABS	1	1	24MO	0	1	3.13055706024	None	None	None	None	1
1.7	2015_Jul_22_0912	s	s	10	3	SIC	569	ABS	0	1	24RO	0	1	4.34898805618	None	None	None	None	1
1.7	2015_Jul_22_0912	s	s	10	3	SIC	570	ABS	1	2	24MD	0	1	0.501646995544	None	None	None	None	1
1.7	2015_Jul_22_0912	s	s	10	3	SIC	571	ABS	2	0	24VC	0	1	0.573529958725	None	None	None	None	1
1.7	2015_Jul_22_0912	s	s	10	3	SIC	572	RC	1	1	23MO	1	0	1.47066092491	320.0	182.0	321	188	1
1.7	2015_Jul_22_0912	s	s	10	3	SIC	573	ABS	2	1	24VO	0	1	0.559216022491	None	None	None	None	1
1.7	2015_Jul_22_0912	s	s	10	3	SIC	574	ABS	1	0	24MC	0	1	3.49001193047	None	None	None	None	1
1.7	2015_Jul_22_0912	s	s	10	3	SIC	575	RC	2	0	23VC	1	0	0.64408993721	359.0	-236.0	362	-236	1
1.7	2015_Jul_22_0912	s	s	10	3	SIC	576	RC	1	2	23MD	1	0	0.560994148254	166.0	14.0	171	10	1
1.7	2015_Jul_22_0912	s	s	10	3	SIC	577	RC	1	1	23MO	1	0	1.51125597954	-268.0	112.0	-267	105	1
1.7	2015_Jul_22_0912	s	s	10	3	SIC	578	ABS	1	1	24MO	0	1	3.1160390377	None	None	None	None	1
1.7	2015_Jul_22_0912	s	s	10	3	SIC	579	ABS	2	0	24VC	0	1	0.705624103546	None	None	None	None	1
1.7	2015_Jul_22_0912	s	s	10	3	SIC	580	RC	0	2	23RD	1	0	0.629064083099	-230.0	-309.0	-227	-307	1
1.7	2015_Jul_22_0912	s	s	10	3	SIC	581	RC	2	2	23VD	1	0	0.455628156662	22.0	135.0	19	129	1
1.7	2015_Jul_22_0912	s	s	10	3	SIC	582	ABS	1	2	24MD	0	1	0.665338993073	None	None	None	None	1
1.7	2015_Jul_22_0912	s	s	10	3	SIC	583	RC	0	1	23RO	1	0	1.56015396118	-42.0	83.0	-42	81	1
1.7	2015_Jul_22_0912	s	s	10	3	SIC	584	RC	2	1	23VO	1	0	0.629200935364	405.0	298.0	398	303	1
1.7	2015_Jul_22_0912	s	s	10	3	SIC	585	ABS	0	2	24RD	0	1	0.673940896988	None	None	None	None	1
1.7	2015_Jul_22_0912	s	s	10	3	SIC	586	ABS	2	1	24VO	0	1	0.479053020477	None	None	None	None	1
1.7	2015_Jul_22_0912	s	s	10	3	SIC	587	RC	1	0	23MC	1	0	1.3716738224	-409.0	-235.0	324	168	0
1.7	2015_Jul_22_0912	s	s	10	3	SIC	588	ABS	1	0	24MC	0	1	2.14904594421	None	None	None	None	1
1.7	2015_Jul_22_0912	s	s	10	3	SIC	589	ABS	0	1	24RO	0	1	5.00831007957	None	None	None	None	1
1.7	2015_Jul_22_0912	s	s	10	3	SIC	590	RC	1	2	23MD	1	0	0.529035806656	181.0	-173.0	178	-164	1
1.7	2015_Jul_22_0912	s	s	10	3	SIC	591	RC	2	0	23VC	1	0	0.482041120529	153.0	-71.0	148	-66	1
1.7	2015_Jul_22_0912	s	s	10	3	SIC	592	ABS	2	2	24VD	0	1	0.540819883347	None	None	None	None	1
