Version	Date	Stimuli	Method	Subject	Session	Condition	Trial	Target	Channel1	Channel2	Distractors	LMouseButton	RMouseButton	RT	TargetX	TargetY	ResponseX	ResponseY	Correct
1.7	2015_Jul_23_0913	s	s	10	4	Capacity	1	ABS	1	0	24MC	0	1	4.86052513123	None	None	None	None	1
1.7	2015_Jul_23_0913	s	s	10	4	Capacity	2	RC	2	0	23VC	1	0	0.713884115219	66.0	202.0	72	204	1
1.7	2015_Jul_23_0913	s	s	10	4	Capacity	3	ABS	2	0	24VC	0	1	2.26732420921	None	None	None	None	1
1.7	2015_Jul_23_0913	s	s	10	4	Capacity	4	RC	1	0	23MC	1	0	7.62081003189	-103.0	-33.0	-95	-34	1
1.7	2015_Jul_23_0913	s	s	10	4	Capacity	5	RC	1	0	23MC	1	0	13.5906698704	-263.0	14.0	-257	8	1
1.7	2015_Jul_23_0913	s	s	10	4	Capacity	6	ABS	1	0	24MC	0	1	4.84531879425	None	None	None	None	1
1.7	2015_Jul_23_0913	s	s	10	4	Capacity	7	ABS	2	0	24VC	0	1	0.729171991348	None	None	None	None	1
1.7	2015_Jul_23_0913	s	s	10	4	Capacity	8	RC	2	0	23VC	1	0	0.564436912537	-78.0	311.0	-63	317	1
1.7	2015_Jul_23_0913	s	s	10	4	Capacity	9	RC	2	0	23VC	1	0	0.587837934494	-229.0	68.0	-228	66	1
1.7	2015_Jul_23_0913	s	s	10	4	Capacity	10	RC	1	0	23MC	1	0	5.95528411865	-86.0	206.0	-80	204	1
1.7	2015_Jul_23_0913	s	s	10	4	Capacity	11	ABS	1	0	24MC	0	1	2.52761697769	None	None	None	None	1
1.7	2015_Jul_23_0913	s	s	10	4	Capacity	12	ABS	2	0	24VC	0	1	1.72692513466	None	None	None	None	1
1.7	2015_Jul_23_0913	s	s	10	4	Capacity	13	ABS	2	0	24VC	0	1	1.1763150692	None	None	None	None	1
1.7	2015_Jul_23_0913	s	s	10	4	Capacity	14	ABS	1	0	24MC	0	1	3.88370394707	None	None	None	None	1
1.7	2015_Jul_23_0913	s	s	10	4	Capacity	15	RC	2	0	23VC	1	0	0.560193061829	-22.0	-302.0	-24	-309	1
1.7	2015_Jul_23_0913	s	s	10	4	Capacity	16	RC	1	0	23MC	1	0	3.69165182114	-202.0	-382.0	-194	-385	1
1.7	2015_Jul_23_0913	s	s	10	4	Capacity	17	RC	2	0	23VC	1	0	0.489044904709	295.0	118.0	286	119	1
1.7	2015_Jul_23_0913	s	s	10	4	Capacity	18	RC	1	0	23MC	1	0	1.0190820694	-271.0	-118.0	-262	-115	1
1.7	2015_Jul_23_0913	s	s	10	4	Capacity	19	ABS	1	0	24MC	0	1	2.58357810974	None	None	None	None	1
1.7	2015_Jul_23_0913	s	s	10	4	Capacity	20	ABS	2	0	24VC	0	1	0.764473199844	None	None	None	None	1
1.7	2015_Jul_23_0913	s	s	10	4	Capacity	21	RC	2	0	23VC	1	0	0.470264196396	-204.0	124.0	-199	125	1
1.7	2015_Jul_23_0913	s	s	10	4	Capacity	22	ABS	1	0	24MC	0	1	3.33830809593	None	None	None	None	1
1.7	2015_Jul_23_0913	s	s	10	4	Capacity	23	ABS	2	0	24VC	0	1	0.988148927689	None	None	None	None	1
1.7	2015_Jul_23_0913	s	s	10	4	Capacity	24	RC	1	0	23MC	0	1	3.86662483215	493.0	395.0	None	None	0
1.7	2015_Jul_23_0913	s	s	10	4	Capacity	25	RC	1	0	23MC	1	0	0.83159995079	-3.0	223.0	-2	225	1
1.7	2015_Jul_23_0913	s	s	10	4	Capacity	26	ABS	1	0	24MC	0	1	4.90387678146	None	None	None	None	1
1.7	2015_Jul_23_0913	s	s	10	4	Capacity	27	ABS	2	0	24VC	0	1	0.629525184631	None	None	None	None	1
1.7	2015_Jul_23_0913	s	s	10	4	Capacity	28	RC	2	0	23VC	1	0	0.759685993195	325.0	58.0	330	57	1
1.7	2015_Jul_23_0913	s	s	10	4	Capacity	29	RC	2	0	23VC	1	0	1.33313012123	475.0	115.0	481	116	1
1.7	2015_Jul_23_0913	s	s	10	4	Capacity	30	ABS	1	0	24MC	0	1	2.90340518951	None	None	None	None	1
1.7	2015_Jul_23_0913	s	s	10	4	Capacity	31	ABS	2	0	24VC	0	1	0.794103145599	None	None	None	None	1
1.7	2015_Jul_23_0913	s	s	10	4	Capacity	32	RC	1	0	23MC	1	0	0.854272127151	6.0	-260.0	14	-256	1
1.7	2015_Jul_23_0913	s	s	10	4	Capacity	33	RC	1	0	23MC	1	0	3.08056211472	372.0	326.0	368	331	1
1.7	2015_Jul_23_0913	s	s	10	4	Capacity	34	ABS	2	0	24VC	0	1	0.694015979767	None	None	None	None	1
1.7	2015_Jul_23_0913	s	s	10	4	Capacity	35	RC	2	0	23VC	1	0	0.646812915802	221.0	107.0	225	104	1
1.7	2015_Jul_23_0913	s	s	10	4	Capacity	36	ABS	1	0	24MC	0	1	2.58894085884	None	None	None	None	1
1.7	2015_Jul_23_0913	s	s	10	4	Capacity	37	ABS	2	0	24VC	0	1	1.05368804932	None	None	None	None	1
1.7	2015_Jul_23_0913	s	s	10	4	Capacity	38	RC	2	0	23VC	1	0	0.532649993896	136.0	-202.0	141	-199	1
1.7	2015_Jul_23_0913	s	s	10	4	Capacity	39	ABS	1	0	24MC	0	1	2.41857910156	None	None	None	None	1
1.7	2015_Jul_23_0913	s	s	10	4	Capacity	40	RC	1	0	23MC	1	0	1.14551496506	488.0	194.0	492	192	1
1.7	2015_Jul_23_0913	s	s	10	4	Capacity	41	RC	1	0	23MC	1	0	1.51570701599	-450.0	132.0	-456	129	1
1.7	2015_Jul_23_0913	s	s	10	4	Capacity	42	ABS	2	0	24VC	0	1	0.8232858181	None	None	None	None	1
1.7	2015_Jul_23_0913	s	s	10	4	Capacity	43	RC	2	0	23VC	1	0	0.629513978958	534.0	195.0	528	187	1
1.7	2015_Jul_23_0913	s	s	10	4	Capacity	44	ABS	1	0	24MC	0	1	3.66885399818	None	None	None	None	1
1.7	2015_Jul_23_0913	s	s	10	4	Capacity	45	ABS	2	0	24VC	0	1	0.670313835144	None	None	None	None	1
1.7	2015_Jul_23_0913	s	s	10	4	Capacity	46	RC	2	0	23VC	1	0	0.524149894714	30.0	264.0	38	263	1
1.7	2015_Jul_23_0913	s	s	10	4	Capacity	47	RC	1	0	23MC	1	0	1.16893219948	289.0	163.0	290	161	1
1.7	2015_Jul_23_0913	s	s	10	4	Capacity	48	ABS	1	0	24MC	0	1	3.0325448513	None	None	None	None	1
1.7	2015_Jul_23_0913	s	s	10	4	Capacity	49	RC	2	0	23VC	1	0	0.500383138657	252.0	275.0	255	269	1
1.7	2015_Jul_23_0913	s	s	10	4	Capacity	50	ABS	1	0	24MC	0	1	4.48093414307	None	None	None	None	1
1.7	2015_Jul_23_0913	s	s	10	4	Capacity	51	RC	1	0	23MC	1	0	5.6806910038	-508.0	344.0	-507	340	1
1.7	2015_Jul_23_0913	s	s	10	4	Capacity	52	ABS	2	0	24VC	0	1	0.536063194275	None	None	None	None	1
1.7	2015_Jul_23_0913	s	s	10	4	Capacity	53	RC	2	0	23VC	1	0	0.701323986053	339.0	124.0	338	128	1
1.7	2015_Jul_23_0913	s	s	10	4	Capacity	54	RC	1	0	23MC	1	0	0.723922014236	-245.0	244.0	-237	242	1
1.7	2015_Jul_23_0913	s	s	10	4	Capacity	55	ABS	1	0	24MC	0	1	5.24616098404	None	None	None	None	1
1.7	2015_Jul_23_0913	s	s	10	4	Capacity	56	ABS	2	0	24VC	0	1	0.938121795654	None	None	None	None	1
1.7	2015_Jul_23_0913	s	s	10	4	Capacity	57	ABS	2	0	24VC	0	1	0.634811878204	None	None	None	None	1
1.7	2015_Jul_23_0913	s	s	10	4	Capacity	58	ABS	1	0	24MC	0	1	2.15997099876	None	None	None	None	1
1.7	2015_Jul_23_0913	s	s	10	4	Capacity	59	RC	1	0	23MC	1	0	0.596033811569	126.0	217.0	128	214	1
1.7	2015_Jul_23_0913	s	s	10	4	Capacity	60	RC	2	0	23VC	1	0	0.677248001099	410.0	18.0	410	13	1
1.7	2015_Jul_23_0913	s	s	10	4	Capacity	61	ABS	1	0	24MC	0	1	2.69228196144	None	None	None	None	1
1.7	2015_Jul_23_0913	s	s	10	4	Capacity	62	RC	1	0	23MC	1	0	2.01218485832	-80.0	201.0	-83	199	1
1.7	2015_Jul_23_0913	s	s	10	4	Capacity	63	RC	2	0	23VC	1	0	0.540853977203	-300.0	296.0	-302	298	1
1.7	2015_Jul_23_0913	s	s	10	4	Capacity	64	ABS	2	0	24VC	0	1	1.01774692535	None	None	None	None	1
1.7	2015_Jul_23_0913	s	s	10	4	Capacity	65	ABS	1	0	24MC	0	1	3.53998088837	None	None	None	None	1
1.7	2015_Jul_23_0913	s	s	10	4	Capacity	66	ABS	2	0	24VC	0	1	0.823193073273	None	None	None	None	1
1.7	2015_Jul_23_0913	s	s	10	4	Capacity	67	RC	2	0	23VC	1	0	0.606691122055	478.0	201.0	480	197	1
1.7	2015_Jul_23_0913	s	s	10	4	Capacity	68	RC	1	0	23MC	1	0	1.27066683769	240.0	265.0	233	262	1
1.7	2015_Jul_23_0913	s	s	10	4	Capacity	69	RC	2	0	23VC	1	0	0.535246133804	-388.0	-89.0	-394	-94	1
1.7	2015_Jul_23_0913	s	s	10	4	Capacity	70	ABS	1	0	24MC	0	1	2.49080300331	None	None	None	None	1
1.7	2015_Jul_23_0913	s	s	10	4	Capacity	71	RC	1	0	23MC	1	0	0.69380402565	-115.0	-2.0	-114	-2	1
1.7	2015_Jul_23_0913	s	s	10	4	Capacity	72	ABS	2	0	24VC	0	1	0.620715141296	None	None	None	None	1
1.7	2015_Jul_23_0913	s	s	10	4	Capacity	73	ABS	2	0	24VC	0	1	0.658556222916	None	None	None	None	1
1.7	2015_Jul_23_0913	s	s	10	4	Capacity	74	RC	2	0	23VC	1	0	0.458492040634	425.0	49.0	420	51	1
1.7	2015_Jul_23_0913	s	s	10	4	Capacity	75	RC	1	0	23MC	1	0	1.07734799385	159.0	-230.0	164	-232	1
1.7	2015_Jul_23_0913	s	s	10	4	Capacity	76	ABS	1	0	24MC	0	1	2.35726284981	None	None	None	None	1
1.7	2015_Jul_23_0913	s	s	10	4	Capacity	77	ABS	2	0	24VC	0	1	1.00643992424	None	None	None	None	1
1.7	2015_Jul_23_0913	s	s	10	4	Capacity	78	RC	1	0	23MC	1	0	4.03409981728	-57.0	-264.0	-59	-268	1
1.7	2015_Jul_23_0913	s	s	10	4	Capacity	79	ABS	1	0	24MC	0	1	3.96599507332	None	None	None	None	1
1.7	2015_Jul_23_0913	s	s	10	4	Capacity	80	RC	2	0	23VC	1	0	0.634877920151	531.0	-349.0	536	-346	1
1.7	2015_Jul_23_0913	s	s	10	4	Capacity	81	ABS	2	0	24VC	0	1	0.776196956635	None	None	None	None	1
1.7	2015_Jul_23_0913	s	s	10	4	Capacity	82	ABS	1	0	24MC	0	1	2.83042001724	None	None	None	None	1
1.7	2015_Jul_23_0913	s	s	10	4	Capacity	83	RC	1	0	23MC	1	0	1.46557402611	-516.0	228.0	-514	226	1
1.7	2015_Jul_23_0913	s	s	10	4	Capacity	84	RC	2	0	23VC	1	0	0.513929843903	109.0	-183.0	113	-181	1
1.7	2015_Jul_23_0913	s	s	10	4	Capacity	85	ABS	2	0	24VC	0	1	0.77618598938	None	None	None	None	1
1.7	2015_Jul_23_0913	s	s	10	4	Capacity	86	RC	2	0	23VC	1	0	0.571157932281	-275.0	-251.0	-275	-250	1
1.7	2015_Jul_23_0913	s	s	10	4	Capacity	87	ABS	1	0	24MC	0	1	2.16266202927	None	None	None	None	1
1.7	2015_Jul_23_0913	s	s	10	4	Capacity	88	RC	1	0	23MC	1	0	0.712270021439	-529.0	-95.0	-535	-95	1
1.7	2015_Jul_23_0913	s	s	10	4	Capacity	89	ABS	2	0	24VC	0	1	0.74133515358	None	None	None	None	1
1.7	2015_Jul_23_0913	s	s	10	4	Capacity	90	RC	1	0	23MC	1	0	1.34632205963	515.0	379.0	516	378	1
1.7	2015_Jul_23_0913	s	s	10	4	Capacity	91	RC	2	0	23VC	1	0	0.690240859985	120.0	-360.0	120	-365	1
1.7	2015_Jul_23_0913	s	s	10	4	Capacity	92	ABS	1	0	24MC	0	1	2.91844797134	None	None	None	None	1
1.7	2015_Jul_23_0913	s	s	10	4	Capacity	1	RC	0	1	23RO	1	0	1.66269898415	-209.0	156.0	-204	160	1
1.7	2015_Jul_23_0913	s	s	10	4	Capacity	2	RC	0	2	23RD	1	0	0.714313030243	-190.0	-281.0	-192	-277	1
1.7	2015_Jul_23_0913	s	s	10	4	Capacity	3	ABS	0	1	24RO	0	1	5.04547405243	None	None	None	None	1
1.7	2015_Jul_23_0913	s	s	10	4	Capacity	4	ABS	0	2	24RD	0	1	1.42364001274	None	None	None	None	1
1.7	2015_Jul_23_0913	s	s	10	4	Capacity	5	ABS	0	1	24RO	0	1	5.58749890327	None	None	None	None	1
1.7	2015_Jul_23_0913	s	s	10	4	Capacity	6	RC	0	2	23RD	1	0	0.641494035721	202.0	267.0	202	265	1
1.7	2015_Jul_23_0913	s	s	10	4	Capacity	7	RC	0	1	23RO	1	0	3.23137903214	514.0	-223.0	521	-215	1
1.7	2015_Jul_23_0913	s	s	10	4	Capacity	8	ABS	0	2	24RD	0	1	1.11239504814	None	None	None	None	1
1.7	2015_Jul_23_0913	s	s	10	4	Capacity	9	ABS	0	2	24RD	0	1	1.34122109413	None	None	None	None	1
1.7	2015_Jul_23_0913	s	s	10	4	Capacity	10	ABS	0	1	24RO	0	1	9.29000496864	None	None	None	None	1
1.7	2015_Jul_23_0913	s	s	10	4	Capacity	11	RC	0	1	23RO	0	1	5.00862002373	-500.0	-288.0	None	None	0
1.7	2015_Jul_23_0913	s	s	10	4	Capacity	12	RC	0	2	23RD	1	0	0.658591985703	92.0	393.0	88	388	1
1.7	2015_Jul_23_0913	s	s	10	4	Capacity	13	ABS	0	2	24RD	0	1	0.738149881363	None	None	None	None	1
1.7	2015_Jul_23_0913	s	s	10	4	Capacity	14	RC	0	1	23RO	1	0	2.47116518021	-164.0	321.0	-168	325	1
1.7	2015_Jul_23_0913	s	s	10	4	Capacity	15	ABS	0	1	24RO	0	1	4.06912708282	None	None	None	None	1
1.7	2015_Jul_23_0913	s	s	10	4	Capacity	16	RC	0	2	23RD	1	0	0.665979146957	-513.0	-115.0	-514	-116	1
1.7	2015_Jul_23_0913	s	s	10	4	Capacity	17	RC	0	1	23RO	1	0	2.34976100922	273.0	115.0	271	113	1
1.7	2015_Jul_23_0913	s	s	10	4	Capacity	18	ABS	0	2	24RD	0	1	1.17649698257	None	None	None	None	1
1.7	2015_Jul_23_0913	s	s	10	4	Capacity	19	ABS	0	1	24RO	0	1	5.36225986481	None	None	None	None	1
1.7	2015_Jul_23_0913	s	s	10	4	Capacity	20	RC	0	2	23RD	1	0	0.756345033646	200.0	282.0	196	275	1
1.7	2015_Jul_23_0913	s	s	10	4	Capacity	21	RC	0	2	23RD	1	0	0.620589971542	206.0	11.0	215	14	1
1.7	2015_Jul_23_0913	s	s	10	4	Capacity	22	ABS	0	2	24RD	0	1	0.905736923218	None	None	None	None	1
1.7	2015_Jul_23_0913	s	s	10	4	Capacity	23	ABS	0	1	24RO	0	1	5.69636893272	None	None	None	None	1
1.7	2015_Jul_23_0913	s	s	10	4	Capacity	24	RC	0	1	23RO	1	0	2.47159099579	158.0	-358.0	165	-361	1
1.7	2015_Jul_23_0913	s	s	10	4	Capacity	25	RC	0	1	23RO	1	0	3.07140183449	58.0	-132.0	57	-139	1
1.7	2015_Jul_23_0913	s	s	10	4	Capacity	26	ABS	0	2	24RD	0	1	0.764345884323	None	None	None	None	1
1.7	2015_Jul_23_0913	s	s	10	4	Capacity	27	RC	0	2	23RD	1	0	0.646755933762	-33.0	353.0	-34	355	1
1.7	2015_Jul_23_0913	s	s	10	4	Capacity	28	ABS	0	1	24RO	0	1	5.00188088417	None	None	None	None	1
1.7	2015_Jul_23_0913	s	s	10	4	Capacity	29	ABS	0	2	24RD	0	1	0.702163934708	None	None	None	None	1
1.7	2015_Jul_23_0913	s	s	10	4	Capacity	30	ABS	0	1	24RO	0	1	3.94262599945	None	None	None	None	1
1.7	2015_Jul_23_0913	s	s	10	4	Capacity	31	RC	0	2	23RD	1	0	0.640271186829	30.0	45.0	29	42	1
1.7	2015_Jul_23_0913	s	s	10	4	Capacity	32	RC	0	1	23RO	1	0	0.78801202774	-3.0	1.0	-7	2	1
1.7	2015_Jul_23_0913	s	s	10	4	Capacity	33	RC	0	1	23RO	1	0	1.28851294518	128.0	262.0	132	270	1
1.7	2015_Jul_23_0913	s	s	10	4	Capacity	34	ABS	0	1	24RO	0	1	4.96164917946	None	None	None	None	1
1.7	2015_Jul_23_0913	s	s	10	4	Capacity	35	ABS	0	2	24RD	0	1	1.33595204353	None	None	None	None	1
1.7	2015_Jul_23_0913	s	s	10	4	Capacity	36	RC	0	2	23RD	1	0	0.682144165039	278.0	-43.0	273	-38	1
1.7	2015_Jul_23_0913	s	s	10	4	Capacity	37	ABS	0	1	24RO	0	1	4.23680782318	None	None	None	None	1
1.7	2015_Jul_23_0913	s	s	10	4	Capacity	38	ABS	0	2	24RD	0	1	0.740807056427	None	None	None	None	1
1.7	2015_Jul_23_0913	s	s	10	4	Capacity	39	RC	0	1	23RO	1	0	3.99967694283	393.0	320.0	395	322	1
1.7	2015_Jul_23_0913	s	s	10	4	Capacity	40	RC	0	2	23RD	1	0	0.500689029694	78.0	-176.0	81	-181	1
1.7	2015_Jul_23_0913	s	s	10	4	Capacity	41	RC	0	2	23RD	1	0	0.582494020462	-488.0	17.0	-485	18	1
1.7	2015_Jul_23_0913	s	s	10	4	Capacity	42	ABS	0	2	24RD	0	1	1.58840799332	None	None	None	None	1
1.7	2015_Jul_23_0913	s	s	10	4	Capacity	43	ABS	0	1	24RO	0	1	5.76207685471	None	None	None	None	1
1.7	2015_Jul_23_0913	s	s	10	4	Capacity	44	RC	0	1	23RO	0	1	3.8599820137	50.0	-88.0	None	None	0
1.7	2015_Jul_23_0913	s	s	10	4	Capacity	45	RC	0	1	23RO	1	0	2.4449031353	-351.0	50.0	-343	52	1
1.7	2015_Jul_23_0913	s	s	10	4	Capacity	46	ABS	0	1	24RO	0	1	3.78951191902	None	None	None	None	1
1.7	2015_Jul_23_0913	s	s	10	4	Capacity	47	RC	0	2	23RD	1	0	0.501137971878	-333.0	85.0	-330	86	1
1.7	2015_Jul_23_0913	s	s	10	4	Capacity	48	ABS	0	2	24RD	0	1	0.714593172073	None	None	None	None	1
1.7	2015_Jul_23_0913	s	s	10	4	Capacity	49	ABS	0	2	24RD	0	1	0.700721979141	None	None	None	None	1
1.7	2015_Jul_23_0913	s	s	10	4	Capacity	50	RC	0	2	23RD	1	0	0.682063102722	271.0	338.0	273	333	1
1.7	2015_Jul_23_0913	s	s	10	4	Capacity	51	ABS	0	1	24RO	0	1	5.19015288353	None	None	None	None	1
1.7	2015_Jul_23_0913	s	s	10	4	Capacity	52	RC	0	1	23RO	0	1	7.26180696487	168.0	363.0	None	None	0
1.7	2015_Jul_23_0913	s	s	10	4	Capacity	53	RC	0	1	23RO	1	0	1.20682501793	-62.0	397.0	-55	398	1
1.7	2015_Jul_23_0913	s	s	10	4	Capacity	54	ABS	0	1	24RO	0	1	3.80133414268	None	None	None	None	1
1.7	2015_Jul_23_0913	s	s	10	4	Capacity	55	ABS	0	2	24RD	0	1	0.807574033737	None	None	None	None	1
1.7	2015_Jul_23_0913	s	s	10	4	Capacity	56	RC	0	2	23RD	1	0	0.505393981934	369.0	93.0	363	85	1
1.7	2015_Jul_23_0913	s	s	10	4	Capacity	57	ABS	0	1	24RO	0	1	5.20203900337	None	None	None	None	1
1.7	2015_Jul_23_0913	s	s	10	4	Capacity	58	ABS	0	2	24RD	0	1	0.676512956619	None	None	None	None	1
1.7	2015_Jul_23_0913	s	s	10	4	Capacity	59	RC	0	1	23RO	1	0	2.51834416389	-287.0	-6.0	-285	-4	1
1.7	2015_Jul_23_0913	s	s	10	4	Capacity	60	RC	0	2	23RD	1	0	0.776168823242	71.0	347.0	71	356	1
1.7	2015_Jul_23_0913	s	s	10	4	Capacity	61	ABS	0	1	24RO	0	1	3.56001210213	None	None	None	None	1
1.7	2015_Jul_23_0913	s	s	10	4	Capacity	62	RC	0	2	23RD	1	0	0.560513019562	404.0	120.0	403	121	1
1.7	2015_Jul_23_0913	s	s	10	4	Capacity	63	RC	0	1	23RO	0	1	3.3774189949	247.0	-124.0	None	None	0
1.7	2015_Jul_23_0913	s	s	10	4	Capacity	64	ABS	0	2	24RD	0	1	1.03019809723	None	None	None	None	1
1.7	2015_Jul_23_0913	s	s	10	4	Capacity	65	RC	0	2	23RD	1	0	0.691073894501	331.0	-304.0	336	-299	1
1.7	2015_Jul_23_0913	s	s	10	4	Capacity	66	RC	0	1	23RO	0	1	6.32027196884	249.0	331.0	None	None	0
1.7	2015_Jul_23_0913	s	s	10	4	Capacity	67	ABS	0	2	24RD	0	1	0.870245933533	None	None	None	None	1
1.7	2015_Jul_23_0913	s	s	10	4	Capacity	68	ABS	0	1	24RO	0	1	5.08433699608	None	None	None	None	1
1.7	2015_Jul_23_0913	s	s	10	4	Capacity	69	RC	0	1	23RO	1	0	2.80762481689	-247.0	-273.0	-246	-274	1
1.7	2015_Jul_23_0913	s	s	10	4	Capacity	70	ABS	0	1	24RO	0	1	2.95919799805	None	None	None	None	1
1.7	2015_Jul_23_0913	s	s	10	4	Capacity	71	RC	0	2	23RD	1	0	0.717308044434	-230.0	380.0	-226	377	1
1.7	2015_Jul_23_0913	s	s	10	4	Capacity	72	ABS	0	2	24RD	0	1	2.34176683426	None	None	None	None	1
1.7	2015_Jul_23_0913	s	s	10	4	Capacity	73	RC	0	1	23RO	1	0	4.23434901237	-518.0	248.0	-510	251	1
1.7	2015_Jul_23_0913	s	s	10	4	Capacity	74	RC	0	2	23RD	1	0	0.689517021179	259.0	-283.0	257	-284	1
1.7	2015_Jul_23_0913	s	s	10	4	Capacity	75	ABS	0	1	24RO	0	1	5.13131117821	None	None	None	None	1
1.7	2015_Jul_23_0913	s	s	10	4	Capacity	76	ABS	0	2	24RD	0	1	0.642056941986	None	None	None	None	1
1.7	2015_Jul_23_0913	s	s	10	4	Capacity	77	RC	0	2	23RD	1	0	0.630630016327	374.0	-11.0	380	-9	1
1.7	2015_Jul_23_0913	s	s	10	4	Capacity	78	ABS	0	1	24RO	0	1	4.78673195839	None	None	None	None	1
1.7	2015_Jul_23_0913	s	s	10	4	Capacity	79	RC	0	1	23RO	1	0	3.13824796677	19.0	313.0	28	316	1
1.7	2015_Jul_23_0913	s	s	10	4	Capacity	80	ABS	0	2	24RD	0	1	0.564322948456	None	None	None	None	1
1.7	2015_Jul_23_0913	s	s	10	4	Capacity	81	ABS	0	2	24RD	0	1	0.585219860077	None	None	None	None	1
1.7	2015_Jul_23_0913	s	s	10	4	Capacity	82	RC	0	2	23RD	1	0	0.677093029022	-443.0	-230.0	-439	-230	1
1.7	2015_Jul_23_0913	s	s	10	4	Capacity	83	RC	0	1	23RO	1	0	1.24131989479	145.0	183.0	143	175	1
1.7	2015_Jul_23_0913	s	s	10	4	Capacity	84	ABS	0	1	24RO	0	1	3.93073415756	None	None	None	None	1
1.7	2015_Jul_23_0913	s	s	10	4	Capacity	85	ABS	0	2	24RD	0	1	0.664736032486	None	None	None	None	1
1.7	2015_Jul_23_0913	s	s	10	4	Capacity	86	RC	0	2	23RD	1	0	0.564427137375	65.0	231.0	60	235	1
1.7	2015_Jul_23_0913	s	s	10	4	Capacity	87	RC	0	1	23RO	1	0	2.48991513252	-424.0	385.0	-426	387	1
1.7	2015_Jul_23_0913	s	s	10	4	Capacity	88	ABS	0	1	24RO	0	1	1.77711606026	None	None	None	None	1
1.7	2015_Jul_23_0913	s	s	10	4	Capacity	89	RC	0	2	23RD	1	0	0.705796957016	-252.0	29.0	-256	32	1
1.7	2015_Jul_23_0913	s	s	10	4	Capacity	90	RC	0	1	23RO	0	1	5.6845240593	464.0	-52.0	None	None	0
1.7	2015_Jul_23_0913	s	s	10	4	Capacity	91	ABS	0	2	24RD	0	1	0.670295000076	None	None	None	None	1
1.7	2015_Jul_23_0913	s	s	10	4	Capacity	92	ABS	0	1	24RO	0	1	2.37093901634	None	None	None	None	1
1.7	2015_Jul_23_0913	s	s	10	4	SIC	1	ABS	0	2	24RD	0	1	1.05333209038	None	None	None	None	1
1.7	2015_Jul_23_0913	s	s	10	4	SIC	2	ABS	0	1	24RO	0	1	4.53604888916	None	None	None	None	1
1.7	2015_Jul_23_0913	s	s	10	4	SIC	3	RC	2	1	23VO	1	0	1.15952897072	527.0	173.0	532	174	1
1.7	2015_Jul_23_0913	s	s	10	4	SIC	4	RC	2	0	23VC	1	0	0.478473186493	100.0	336.0	102	339	1
1.7	2015_Jul_23_0913	s	s	10	4	SIC	5	ABS	1	1	24MO	0	1	4.8346619606	None	None	None	None	1
1.7	2015_Jul_23_0913	s	s	10	4	SIC	6	ABS	2	1	24VO	0	1	1.08225297928	None	None	None	None	1
1.7	2015_Jul_23_0913	s	s	10	4	SIC	7	ABS	2	2	24VD	1	0	0.123933792114	None	None	-19	11	0
1.7	2015_Jul_23_0913	s	s	10	4	SIC	8	RC	1	1	23MO	1	0	1.25384283066	-90.0	-323.0	-84	-324	1
1.7	2015_Jul_23_0913	s	s	10	4	SIC	9	RC	0	2	23RD	1	0	0.617594957352	309.0	-215.0	312	-208	1
1.7	2015_Jul_23_0913	s	s	10	4	SIC	10	RC	1	0	23MC	0	1	5.48442292213	357.0	389.0	None	None	0
1.7	2015_Jul_23_0913	s	s	10	4	SIC	11	ABS	1	0	24MC	0	1	6.72887587547	None	None	None	None	1
1.7	2015_Jul_23_0913	s	s	10	4	SIC	12	RC	1	2	23MD	1	0	0.536066055298	335.0	119.0	338	118	1
1.7	2015_Jul_23_0913	s	s	10	4	SIC	13	ABS	2	0	24VC	0	1	0.693941831589	None	None	None	None	1
1.7	2015_Jul_23_0913	s	s	10	4	SIC	14	RC	2	2	23VD	1	0	0.903295993805	-394.0	-111.0	-396	-120	1
1.7	2015_Jul_23_0913	s	s	10	4	SIC	15	RC	0	1	23RO	0	1	1.90617799759	-62.0	81.0	None	None	0
1.7	2015_Jul_23_0913	s	s	10	4	SIC	16	ABS	1	2	24MD	0	1	0.988170146942	None	None	None	None	1
1.7	2015_Jul_23_0913	s	s	10	4	SIC	17	ABS	0	2	24RD	0	1	0.599713087082	None	None	None	None	1
1.7	2015_Jul_23_0913	s	s	10	4	SIC	18	RC	2	1	23VO	1	0	0.540874958038	-189.0	225.0	-187	219	1
1.7	2015_Jul_23_0913	s	s	10	4	SIC	19	RC	2	0	23VC	1	0	0.653526067734	229.0	276.0	233	285	1
1.7	2015_Jul_23_0913	s	s	10	4	SIC	20	RC	1	2	23MD	1	0	0.89394903183	-105.0	-253.0	-105	-256	1
1.7	2015_Jul_23_0913	s	s	10	4	SIC	21	ABS	2	2	24VD	0	1	0.937993049622	None	None	None	None	1
1.7	2015_Jul_23_0913	s	s	10	4	SIC	22	RC	0	2	23RD	1	0	0.505528926849	154.0	-222.0	157	-223	1
1.7	2015_Jul_23_0913	s	s	10	4	SIC	23	ABS	1	2	24MD	0	1	0.917558908463	None	None	None	None	1
1.7	2015_Jul_23_0913	s	s	10	4	SIC	24	ABS	0	1	24RO	0	1	5.44397497177	None	None	None	None	1
1.7	2015_Jul_23_0913	s	s	10	4	SIC	25	ABS	2	1	24VO	0	1	0.70565199852	None	None	None	None	1
1.7	2015_Jul_23_0913	s	s	10	4	SIC	26	RC	2	2	23VD	1	0	0.588120937347	378.0	262.0	382	262	1
1.7	2015_Jul_23_0913	s	s	10	4	SIC	27	ABS	1	0	24MC	0	1	4.42565608025	None	None	None	None	1
1.7	2015_Jul_23_0913	s	s	10	4	SIC	28	RC	1	0	23MC	0	1	3.9193880558	13.0	-56.0	None	None	0
1.7	2015_Jul_23_0913	s	s	10	4	SIC	29	RC	1	1	23MO	1	0	4.10467290878	126.0	58.0	132	50	1
1.7	2015_Jul_23_0913	s	s	10	4	SIC	30	RC	0	1	23RO	1	0	4.16619300842	18.0	-265.0	16	-260	1
1.7	2015_Jul_23_0913	s	s	10	4	SIC	31	ABS	2	0	24VC	0	1	0.620688199997	None	None	None	None	1
1.7	2015_Jul_23_0913	s	s	10	4	SIC	32	ABS	1	1	24MO	0	1	4.38503909111	None	None	None	None	1
1.7	2015_Jul_23_0913	s	s	10	4	SIC	33	RC	1	1	23MO	1	0	1.28246212006	-203.0	-102.0	-204	-103	1
1.7	2015_Jul_23_0913	s	s	10	4	SIC	34	ABS	2	2	24VD	0	1	0.594690799713	None	None	None	None	1
1.7	2015_Jul_23_0913	s	s	10	4	SIC	35	RC	1	0	23MC	1	0	0.960564851761	437.0	162.0	436	160	1
1.7	2015_Jul_23_0913	s	s	10	4	SIC	36	RC	1	2	23MD	1	0	0.796222925186	-394.0	-370.0	-387	-376	1
1.7	2015_Jul_23_0913	s	s	10	4	SIC	37	ABS	1	2	24MD	0	1	0.807154178619	None	None	None	None	1
1.7	2015_Jul_23_0913	s	s	10	4	SIC	38	ABS	1	0	24MC	0	1	3.01282405853	None	None	None	None	1
1.7	2015_Jul_23_0913	s	s	10	4	SIC	39	ABS	2	1	24VO	0	1	0.665329933167	None	None	None	None	1
1.7	2015_Jul_23_0913	s	s	10	4	SIC	40	RC	0	2	23RD	1	0	0.617328166962	181.0	-172.0	182	-167	1
1.7	2015_Jul_23_0913	s	s	10	4	SIC	41	RC	2	1	23VO	1	0	0.726665973663	385.0	-280.0	385	-292	1
1.7	2015_Jul_23_0913	s	s	10	4	SIC	42	ABS	0	1	24RO	0	1	5.00181889534	None	None	None	None	1
1.7	2015_Jul_23_0913	s	s	10	4	SIC	43	RC	2	2	23VD	1	0	0.478106975555	462.0	-317.0	458	-320	1
1.7	2015_Jul_23_0913	s	s	10	4	SIC	44	ABS	1	1	24MO	0	1	3.3151640892	None	None	None	None	1
1.7	2015_Jul_23_0913	s	s	10	4	SIC	45	RC	0	1	23RO	0	1	5.00192499161	-131.0	-309.0	None	None	0
1.7	2015_Jul_23_0913	s	s	10	4	SIC	46	ABS	0	2	24RD	0	1	0.658512115479	None	None	None	None	1
1.7	2015_Jul_23_0913	s	s	10	4	SIC	47	RC	2	0	23VC	1	0	0.564404010773	-321.0	221.0	-321	219	1
1.7	2015_Jul_23_0913	s	s	10	4	SIC	48	ABS	2	0	24VC	0	1	0.685856103897	None	None	None	None	1
1.7	2015_Jul_23_0913	s	s	10	4	SIC	49	RC	2	1	23VO	1	0	0.682068824768	483.0	226.0	483	223	1
1.7	2015_Jul_23_0913	s	s	10	4	SIC	50	ABS	1	2	24MD	0	1	0.682050943375	None	None	None	None	1
1.7	2015_Jul_23_0913	s	s	10	4	SIC	51	ABS	0	2	24RD	0	1	0.86696100235	None	None	None	None	1
1.7	2015_Jul_23_0913	s	s	10	4	SIC	52	RC	0	2	23RD	1	0	0.893890142441	454.0	-335.0	451	-331	1
1.7	2015_Jul_23_0913	s	s	10	4	SIC	53	RC	2	0	23VC	1	0	0.623505115509	-488.0	-15.0	-485	-12	1
1.7	2015_Jul_23_0913	s	s	10	4	SIC	54	ABS	2	0	24VC	0	1	0.729255914688	None	None	None	None	1
1.7	2015_Jul_23_0913	s	s	10	4	SIC	55	RC	1	0	23MC	0	1	2.77712583542	-302.0	-347.0	None	None	0
1.7	2015_Jul_23_0913	s	s	10	4	SIC	56	ABS	1	0	24MC	0	1	2.56058287621	None	None	None	None	1
1.7	2015_Jul_23_0913	s	s	10	4	SIC	57	RC	0	1	23RO	0	1	4.48460793495	469.0	-13.0	None	None	0
1.7	2015_Jul_23_0913	s	s	10	4	SIC	58	ABS	2	2	24VD	0	1	0.54728603363	None	None	None	None	1
1.7	2015_Jul_23_0913	s	s	10	4	SIC	59	RC	2	2	23VD	1	0	0.529042959213	428.0	-361.0	428	-364	1
1.7	2015_Jul_23_0913	s	s	10	4	SIC	60	RC	1	1	23MO	1	0	1.78850078583	-390.0	233.0	-383	237	1
1.7	2015_Jul_23_0913	s	s	10	4	SIC	61	RC	1	2	23MD	1	0	1.40013098717	-179.0	-89.0	-176	-91	1
1.7	2015_Jul_23_0913	s	s	10	4	SIC	62	ABS	0	1	24RO	0	1	4.40781092644	None	None	None	None	1
1.7	2015_Jul_23_0913	s	s	10	4	SIC	63	ABS	1	1	24MO	0	1	2.88355302811	None	None	None	None	1
1.7	2015_Jul_23_0913	s	s	10	4	SIC	64	ABS	2	1	24VO	0	1	0.65810084343	None	None	None	None	1
1.7	2015_Jul_23_0913	s	s	10	4	SIC	65	RC	0	1	23RO	0	1	4.11953806877	-303.0	160.0	None	None	0
1.7	2015_Jul_23_0913	s	s	10	4	SIC	66	RC	1	1	23MO	1	0	1.58844208717	194.0	263.0	194	257	1
1.7	2015_Jul_23_0913	s	s	10	4	SIC	67	ABS	1	1	24MO	0	1	3.42468595505	None	None	None	None	1
1.7	2015_Jul_23_0913	s	s	10	4	SIC	68	ABS	2	1	24VO	0	1	0.552464008331	None	None	None	None	1
1.7	2015_Jul_23_0913	s	s	10	4	SIC	69	RC	1	2	23MD	1	0	0.608709096909	-451.0	-83.0	-444	-84	1
1.7	2015_Jul_23_0913	s	s	10	4	SIC	70	RC	2	2	23VD	1	0	0.535135984421	-326.0	-197.0	-319	-196	1
1.7	2015_Jul_23_0913	s	s	10	4	SIC	71	ABS	0	1	24RO	0	1	4.8227519989	None	None	None	None	1
1.7	2015_Jul_23_0913	s	s	10	4	SIC	72	RC	2	1	23VO	1	0	0.482524871826	471.0	-274.0	476	-277	1
1.7	2015_Jul_23_0913	s	s	10	4	SIC	73	ABS	1	0	24MC	0	1	5.96213793755	None	None	None	None	1
1.7	2015_Jul_23_0913	s	s	10	4	SIC	74	ABS	1	2	24MD	0	1	0.86668419838	None	None	None	None	1
1.7	2015_Jul_23_0913	s	s	10	4	SIC	75	RC	0	2	23RD	1	0	0.811429023743	392.0	205.0	393	203	1
1.7	2015_Jul_23_0913	s	s	10	4	SIC	76	ABS	0	2	24RD	0	1	0.70564699173	None	None	None	None	1
1.7	2015_Jul_23_0913	s	s	10	4	SIC	77	ABS	2	2	24VD	0	1	0.540869951248	None	None	None	None	1
1.7	2015_Jul_23_0913	s	s	10	4	SIC	78	RC	1	0	23MC	1	0	1.21757793427	-132.0	-309.0	-129	-313	1
1.7	2015_Jul_23_0913	s	s	10	4	SIC	79	ABS	2	0	24VC	0	1	0.787981987	None	None	None	None	1
1.7	2015_Jul_23_0913	s	s	10	4	SIC	80	RC	2	0	23VC	1	0	0.536280155182	-32.0	-405.0	-29	-405	1
1.7	2015_Jul_23_0913	s	s	10	4	SIC	81	ABS	1	0	24MC	0	1	3.04236507416	None	None	None	None	1
1.7	2015_Jul_23_0913	s	s	10	4	SIC	82	ABS	1	2	24MD	0	1	0.826975822449	None	None	None	None	1
1.7	2015_Jul_23_0913	s	s	10	4	SIC	83	ABS	1	1	24MO	0	1	3.30396795273	None	None	None	None	1
1.7	2015_Jul_23_0913	s	s	10	4	SIC	84	RC	2	1	23VO	1	0	0.501487016678	-248.0	279.0	-242	273	1
1.7	2015_Jul_23_0913	s	s	10	4	SIC	85	RC	0	1	23RO	0	1	4.44368195534	448.0	-339.0	None	None	0
1.7	2015_Jul_23_0913	s	s	10	4	SIC	86	ABS	0	2	24RD	0	1	0.705549955368	None	None	None	None	1
1.7	2015_Jul_23_0913	s	s	10	4	SIC	87	ABS	0	1	24RO	0	1	3.54226303101	None	None	None	None	1
1.7	2015_Jul_23_0913	s	s	10	4	SIC	88	RC	1	1	23MO	1	0	1.80033802986	378.0	64.0	374	68	1
1.7	2015_Jul_23_0913	s	s	10	4	SIC	89	RC	0	2	23RD	1	0	0.909312963486	493.0	134.0	497	137	1
1.7	2015_Jul_23_0913	s	s	10	4	SIC	90	RC	2	0	23VC	1	0	0.470156908035	309.0	-231.0	301	-233	1
1.7	2015_Jul_23_0913	s	s	10	4	SIC	91	ABS	2	2	24VD	0	1	0.855087995529	None	None	None	None	1
1.7	2015_Jul_23_0913	s	s	10	4	SIC	92	ABS	2	1	24VO	0	1	0.576105833054	None	None	None	None	1
1.7	2015_Jul_23_0913	s	s	10	4	SIC	93	RC	1	0	23MC	1	0	1.17641210556	-130.0	77.0	-122	81	1
1.7	2015_Jul_23_0913	s	s	10	4	SIC	94	ABS	2	0	24VC	1	0	0.505432128906	None	None	504	-290	0
1.7	2015_Jul_23_0913	s	s	10	4	SIC	95	RC	2	2	23VD	1	0	0.737053155899	-171.0	-175.0	-171	-169	1
1.7	2015_Jul_23_0913	s	s	10	4	SIC	96	RC	1	2	23MD	1	0	0.643851995468	-330.0	-142.0	-332	-146	1
1.7	2015_Jul_23_0913	s	s	10	4	SIC	97	RC	1	1	23MO	1	0	1.02053499222	342.0	297.0	343	300	1
1.7	2015_Jul_23_0913	s	s	10	4	SIC	98	RC	2	0	23VC	1	0	0.735421895981	51.0	-171.0	56	-173	1
1.7	2015_Jul_23_0913	s	s	10	4	SIC	99	ABS	2	0	24VC	0	1	0.634984016418	None	None	None	None	1
1.7	2015_Jul_23_0913	s	s	10	4	SIC	100	ABS	2	1	24VO	0	1	0.587926149368	None	None	None	None	1
1.7	2015_Jul_23_0913	s	s	10	4	SIC	101	ABS	0	2	24RD	0	1	0.936670064926	None	None	None	None	1
1.7	2015_Jul_23_0913	s	s	10	4	SIC	102	RC	2	1	23VO	1	0	0.764504909515	55.0	76.0	53	75	1
1.7	2015_Jul_23_0913	s	s	10	4	SIC	103	RC	0	1	23RO	0	1	5.14312791824	-5.0	-342.0	None	None	0
1.7	2015_Jul_23_0913	s	s	10	4	SIC	104	RC	1	2	23MD	1	0	0.458406925201	-291.0	46.0	-291	45	1
1.7	2015_Jul_23_0913	s	s	10	4	SIC	105	ABS	0	1	24RO	0	1	4.57813811302	None	None	None	None	1
1.7	2015_Jul_23_0913	s	s	10	4	SIC	106	RC	2	2	23VD	1	0	9.70363616943e-05	66.0	126.0	528	-175	0
1.7	2015_Jul_23_0913	s	s	10	4	SIC	107	ABS	2	2	24VD	0	1	1.0643799305	None	None	None	None	1
1.7	2015_Jul_23_0913	s	s	10	4	SIC	108	ABS	1	1	24MO	0	1	3.90433883667	None	None	None	None	1
1.7	2015_Jul_23_0913	s	s	10	4	SIC	109	RC	0	2	23RD	1	0	0.690460920334	-506.0	-144.0	-501	-149	1
1.7	2015_Jul_23_0913	s	s	10	4	SIC	110	ABS	1	0	24MC	0	1	3.26897501945	None	None	None	None	1
1.7	2015_Jul_23_0913	s	s	10	4	SIC	111	ABS	1	2	24MD	0	1	1.00672197342	None	None	None	None	1
1.7	2015_Jul_23_0913	s	s	10	4	SIC	112	RC	1	0	23MC	0	1	4.55467295647	462.0	-22.0	None	None	0
1.7	2015_Jul_23_0913	s	s	10	4	SIC	113	RC	2	1	23VO	1	0	0.490249156952	-181.0	29.0	-183	21	1
1.7	2015_Jul_23_0913	s	s	10	4	SIC	114	RC	2	2	23VD	1	0	0.549247026443	-507.0	-96.0	-508	-101	1
1.7	2015_Jul_23_0913	s	s	10	4	SIC	115	ABS	0	2	24RD	0	1	0.903268098831	None	None	None	None	1
1.7	2015_Jul_23_0913	s	s	10	4	SIC	116	RC	2	0	23VC	1	0	0.597095966339	-95.0	157.0	-92	156	1
1.7	2015_Jul_23_0913	s	s	10	4	SIC	117	ABS	2	1	24VO	0	1	0.611400842667	None	None	None	None	1
1.7	2015_Jul_23_0913	s	s	10	4	SIC	118	ABS	0	1	24RO	0	1	5.55518889427	None	None	None	None	1
1.7	2015_Jul_23_0913	s	s	10	4	SIC	119	RC	0	1	23RO	1	0	2.47489118576	92.0	393.0	103	394	1
1.7	2015_Jul_23_0913	s	s	10	4	SIC	120	ABS	1	1	24MO	0	1	3.86894607544	None	None	None	None	1
1.7	2015_Jul_23_0913	s	s	10	4	SIC	121	ABS	1	0	24MC	0	1	3.96209812164	None	None	None	None	1
1.7	2015_Jul_23_0913	s	s	10	4	SIC	122	ABS	2	2	24VD	0	1	0.547672986984	None	None	None	None	1
1.7	2015_Jul_23_0913	s	s	10	4	SIC	123	RC	1	1	23MO	1	0	1.57054901123	1.0	158.0	8	153	1
1.7	2015_Jul_23_0913	s	s	10	4	SIC	124	RC	0	2	23RD	1	0	0.699506998062	-528.0	-170.0	-522	-176	1
1.7	2015_Jul_23_0913	s	s	10	4	SIC	125	ABS	2	0	24VC	0	1	0.55261182785	None	None	None	None	1
1.7	2015_Jul_23_0913	s	s	10	4	SIC	126	RC	1	2	23MD	1	0	0.623080015182	358.0	-31.0	350	-35	1
1.7	2015_Jul_23_0913	s	s	10	4	SIC	127	RC	1	0	23MC	0	1	3.38426780701	18.0	-323.0	None	None	0
1.7	2015_Jul_23_0913	s	s	10	4	SIC	128	ABS	1	2	24MD	0	1	1.90625095367	None	None	None	None	1
1.7	2015_Jul_23_0913	s	s	10	4	SIC	129	ABS	1	0	24MC	0	1	2.58364892006	None	None	None	None	1
1.7	2015_Jul_23_0913	s	s	10	4	SIC	130	ABS	0	1	24RO	0	1	5.4609670639	None	None	None	None	1
1.7	2015_Jul_23_0913	s	s	10	4	SIC	131	RC	1	1	23MO	1	0	2.61772704124	30.0	341.0	35	340	1
1.7	2015_Jul_23_0913	s	s	10	4	SIC	132	RC	2	2	23VD	1	0	0.635004997253	-68.0	148.0	-65	142	1
1.7	2015_Jul_23_0913	s	s	10	4	SIC	133	ABS	1	2	24MD	0	1	0.641905069351	None	None	None	None	1
1.7	2015_Jul_23_0913	s	s	10	4	SIC	134	ABS	2	1	24VO	0	1	0.964705944061	None	None	None	None	1
1.7	2015_Jul_23_0913	s	s	10	4	SIC	135	RC	1	2	23MD	1	0	1.01169395447	434.0	347.0	441	343	1
1.7	2015_Jul_23_0913	s	s	10	4	SIC	136	ABS	1	1	24MO	0	1	3.67182993889	None	None	None	None	1
1.7	2015_Jul_23_0913	s	s	10	4	SIC	137	RC	0	1	23RO	1	0	3.78952693939	506.0	-376.0	508	-375	1
1.7	2015_Jul_23_0913	s	s	10	4	SIC	138	RC	2	0	23VC	1	0	0.781996011734	453.0	187.0	451	186	1
1.7	2015_Jul_23_0913	s	s	10	4	SIC	139	ABS	0	2	24RD	0	1	1.02953195572	None	None	None	None	1
1.7	2015_Jul_23_0913	s	s	10	4	SIC	140	ABS	2	0	24VC	0	1	0.596744060516	None	None	None	None	1
1.7	2015_Jul_23_0913	s	s	10	4	SIC	141	RC	1	0	23MC	1	0	6.17630410194	-151.0	-352.0	-148	-355	1
1.7	2015_Jul_23_0913	s	s	10	4	SIC	142	RC	2	1	23VO	1	0	0.523468017578	-177.0	49.0	-176	43	1
1.7	2015_Jul_23_0913	s	s	10	4	SIC	143	ABS	2	2	24VD	0	1	0.552666902542	None	None	None	None	1
1.7	2015_Jul_23_0913	s	s	10	4	SIC	144	RC	0	2	23RD	1	0	0.5940990448	265.0	-296.0	271	-296	1
1.7	2015_Jul_23_0913	s	s	10	4	SIC	145	ABS	1	2	24MD	0	1	0.650424003601	None	None	None	None	1
1.7	2015_Jul_23_0913	s	s	10	4	SIC	146	RC	2	1	23VO	1	0	0.481960058212	-526.0	-115.0	-530	-117	1
1.7	2015_Jul_23_0913	s	s	10	4	SIC	147	RC	2	0	23VC	1	0	0.717256069183	387.0	-389.0	388	-390	1
1.7	2015_Jul_23_0913	s	s	10	4	SIC	148	ABS	0	2	24RD	0	1	0.773526191711	None	None	None	None	1
1.7	2015_Jul_23_0913	s	s	10	4	SIC	149	RC	1	0	23MC	1	0	2.8905570507	224.0	121.0	232	122	1
1.7	2015_Jul_23_0913	s	s	10	4	SIC	150	RC	1	1	23MO	1	0	2.51563715935	-294.0	128.0	-290	125	1
1.7	2015_Jul_23_0913	s	s	10	4	SIC	151	ABS	2	2	24VD	0	1	0.623601913452	None	None	None	None	1
1.7	2015_Jul_23_0913	s	s	10	4	SIC	152	RC	1	2	23MD	1	0	0.741357088089	-257.0	153.0	-252	150	1
1.7	2015_Jul_23_0913	s	s	10	4	SIC	153	RC	2	2	23VD	1	0	1.23042583466	-151.0	-313.0	-150	-317	1
1.7	2015_Jul_23_0913	s	s	10	4	SIC	154	ABS	2	0	24VC	0	1	0.667345046997	None	None	None	None	1
1.7	2015_Jul_23_0913	s	s	10	4	SIC	155	RC	0	1	23RO	1	0	2.56907892227	54.0	86.0	52	82	1
1.7	2015_Jul_23_0913	s	s	10	4	SIC	156	RC	0	2	23RD	1	0	0.643465042114	393.0	293.0	392	294	1
1.7	2015_Jul_23_0913	s	s	10	4	SIC	157	ABS	0	1	24RO	0	1	5.83809995651	None	None	None	None	1
1.7	2015_Jul_23_0913	s	s	10	4	SIC	158	ABS	1	0	24MC	0	1	2.9184679985	None	None	None	None	1
1.7	2015_Jul_23_0913	s	s	10	4	SIC	159	ABS	2	1	24VO	0	1	0.528972864151	None	None	None	None	1
1.7	2015_Jul_23_0913	s	s	10	4	SIC	160	ABS	1	1	24MO	0	1	3.16321897507	None	None	None	None	1
1.7	2015_Jul_23_0913	s	s	10	4	SIC	161	ABS	2	0	24VC	0	1	0.529299020767	None	None	None	None	1
1.7	2015_Jul_23_0913	s	s	10	4	SIC	162	RC	0	2	23RD	1	0	0.712471961975	-112.0	127.0	-107	134	1
1.7	2015_Jul_23_0913	s	s	10	4	SIC	163	ABS	0	1	24RO	0	1	3.30692315102	None	None	None	None	1
1.7	2015_Jul_23_0913	s	s	10	4	SIC	164	ABS	1	2	24MD	0	1	0.63224196434	None	None	None	None	1
1.7	2015_Jul_23_0913	s	s	10	4	SIC	165	RC	1	1	23MO	1	0	1.78856396675	277.0	-238.0	280	-241	1
1.7	2015_Jul_23_0913	s	s	10	4	SIC	166	ABS	2	1	24VO	0	1	0.623268127441	None	None	None	None	1
1.7	2015_Jul_23_0913	s	s	10	4	SIC	167	RC	1	0	23MC	1	0	0.974045038223	332.0	-366.0	328	-372	1
1.7	2015_Jul_23_0913	s	s	10	4	SIC	168	ABS	1	0	24MC	0	1	2.74191904068	None	None	None	None	1
1.7	2015_Jul_23_0913	s	s	10	4	SIC	169	RC	0	1	23RO	1	0	6.32015109062	-240.0	-65.0	-233	-61	1
1.7	2015_Jul_23_0913	s	s	10	4	SIC	170	ABS	0	2	24RD	0	1	1.34122300148	None	None	None	None	1
1.7	2015_Jul_23_0913	s	s	10	4	SIC	171	RC	2	0	23VC	1	0	0.59961104393	222.0	-381.0	222	-377	1
1.7	2015_Jul_23_0913	s	s	10	4	SIC	172	ABS	1	1	24MO	0	1	4.54315686226	None	None	None	None	1
1.7	2015_Jul_23_0913	s	s	10	4	SIC	173	RC	1	2	23MD	1	0	0.723988056183	315.0	170.0	315	168	1
1.7	2015_Jul_23_0913	s	s	10	4	SIC	174	RC	2	1	23VO	1	0	0.575993776321	-177.0	-131.0	-173	-132	1
1.7	2015_Jul_23_0913	s	s	10	4	SIC	175	RC	2	2	23VD	1	0	0.505473852158	-526.0	361.0	-521	361	1
1.7	2015_Jul_23_0913	s	s	10	4	SIC	176	ABS	2	2	24VD	0	1	0.582728862762	None	None	None	None	1
1.7	2015_Jul_23_0913	s	s	10	4	SIC	177	ABS	1	0	24MC	0	1	2.83248209953	None	None	None	None	1
1.7	2015_Jul_23_0913	s	s	10	4	SIC	178	ABS	2	1	24VO	0	1	0.567999124527	None	None	None	None	1
1.7	2015_Jul_23_0913	s	s	10	4	SIC	179	ABS	1	1	24MO	0	1	5.0672390461	None	None	None	None	1
1.7	2015_Jul_23_0913	s	s	10	4	SIC	180	RC	0	1	23RO	1	0	2.24763798714	348.0	244.0	354	243	1
1.7	2015_Jul_23_0913	s	s	10	4	SIC	181	RC	1	0	23MC	1	0	1.69054603577	87.0	360.0	95	364	1
1.7	2015_Jul_23_0913	s	s	10	4	SIC	182	RC	2	0	23VC	1	0	0.559514045715	181.0	-33.0	183	-35	1
1.7	2015_Jul_23_0913	s	s	10	4	SIC	183	RC	1	1	23MO	1	0	3.56932997704	-24.0	345.0	-15	343	1
1.7	2015_Jul_23_0913	s	s	10	4	SIC	184	ABS	1	2	24MD	0	1	0.78795003891	None	None	None	None	1
1.7	2015_Jul_23_0913	s	s	10	4	SIC	185	ABS	0	1	24RO	0	1	5.30787587166	None	None	None	None	1
1.7	2015_Jul_23_0913	s	s	10	4	SIC	186	ABS	0	2	24RD	0	1	0.846825122833	None	None	None	None	1
1.7	2015_Jul_23_0913	s	s	10	4	SIC	187	RC	0	2	23RD	1	0	1.52706003189	-454.0	103.0	-459	101	1
1.7	2015_Jul_23_0913	s	s	10	4	SIC	188	ABS	2	0	24VC	0	1	0.912670135498	None	None	None	None	1
1.7	2015_Jul_23_0913	s	s	10	4	SIC	189	RC	1	2	23MD	1	0	0.717653989792	60.0	53.0	61	52	1
1.7	2015_Jul_23_0913	s	s	10	4	SIC	190	RC	2	2	23VD	1	0	0.61830496788	349.0	2.0	344	2	1
1.7	2015_Jul_23_0913	s	s	10	4	SIC	191	ABS	2	2	24VD	0	1	0.582976102829	None	None	None	None	1
1.7	2015_Jul_23_0913	s	s	10	4	SIC	192	RC	2	1	23VO	1	0	0.576044082642	-163.0	-70.0	-153	-68	1
1.7	2015_Jul_23_0913	s	s	10	4	SIC	193	RC	1	0	23MC	1	0	8.65716791153	159.0	16.0	161	17	1
1.7	2015_Jul_23_0913	s	s	10	4	SIC	194	RC	0	1	23RO	0	1	5.1726667881	-20.0	-340.0	None	None	0
1.7	2015_Jul_23_0913	s	s	10	4	SIC	195	RC	2	1	23VO	1	0	0.576195001602	-31.0	301.0	-23	307	1
1.7	2015_Jul_23_0913	s	s	10	4	SIC	196	ABS	2	1	24VO	0	1	0.564337015152	None	None	None	None	1
1.7	2015_Jul_23_0913	s	s	10	4	SIC	197	ABS	2	2	24VD	0	1	0.608741998672	None	None	None	None	1
1.7	2015_Jul_23_0913	s	s	10	4	SIC	198	RC	0	2	23RD	1	0	0.58398103714	349.0	-180.0	352	-180	1
1.7	2015_Jul_23_0913	s	s	10	4	SIC	199	RC	1	2	23MD	1	0	0.547621965408	361.0	-119.0	364	-116	1
1.7	2015_Jul_23_0913	s	s	10	4	SIC	200	ABS	1	2	24MD	0	1	0.759595155716	None	None	None	None	1
1.7	2015_Jul_23_0913	s	s	10	4	SIC	201	RC	2	2	23VD	1	0	0.467602014542	-13.0	-336.0	-11	-332	1
1.7	2015_Jul_23_0913	s	s	10	4	SIC	202	ABS	2	0	24VC	0	1	0.564221858978	None	None	None	None	1
1.7	2015_Jul_23_0913	s	s	10	4	SIC	203	ABS	0	1	24RO	0	1	5.42963504791	None	None	None	None	1
1.7	2015_Jul_23_0913	s	s	10	4	SIC	204	ABS	1	1	24MO	0	1	3.03359007835	None	None	None	None	1
1.7	2015_Jul_23_0913	s	s	10	4	SIC	205	RC	2	0	23VC	1	0	0.717303991318	-206.0	-61.0	-204	-63	1
1.7	2015_Jul_23_0913	s	s	10	4	SIC	206	RC	1	1	23MO	1	0	0.952723026276	3.0	135.0	8	137	1
1.7	2015_Jul_23_0913	s	s	10	4	SIC	207	ABS	0	2	24RD	0	1	1.25868296623	None	None	None	None	1
1.7	2015_Jul_23_0913	s	s	10	4	SIC	208	ABS	1	0	24MC	0	1	3.74277496338	None	None	None	None	1
1.7	2015_Jul_23_0913	s	s	10	4	SIC	209	RC	2	0	23VC	1	0	0.529117107391	-504.0	-73.0	-496	-65	1
1.7	2015_Jul_23_0913	s	s	10	4	SIC	210	RC	2	1	23VO	1	0	0.611410140991	456.0	-124.0	452	-122	1
1.7	2015_Jul_23_0913	s	s	10	4	SIC	211	ABS	2	2	24VD	0	1	0.717378139496	None	None	None	None	1
1.7	2015_Jul_23_0913	s	s	10	4	SIC	212	RC	2	2	23VD	1	0	0.646682024002	317.0	-25.0	311	-25	1
1.7	2015_Jul_23_0913	s	s	10	4	SIC	213	ABS	1	2	24MD	0	1	1.25386404991	None	None	None	None	1
1.7	2015_Jul_23_0913	s	s	10	4	SIC	214	ABS	1	1	24MO	0	1	7.01102399826	None	None	None	None	1
1.7	2015_Jul_23_0913	s	s	10	4	SIC	215	RC	1	1	23MO	1	0	5.45591306686	-31.0	407.0	-25	414	1
1.7	2015_Jul_23_0913	s	s	10	4	SIC	216	ABS	1	0	24MC	0	1	3.489620924	None	None	None	None	1
1.7	2015_Jul_23_0913	s	s	10	4	SIC	217	RC	1	2	23MD	1	0	0.619869947433	-60.0	354.0	-62	351	1
1.7	2015_Jul_23_0913	s	s	10	4	SIC	218	ABS	2	0	24VC	0	1	1.03159213066	None	None	None	None	1
1.7	2015_Jul_23_0913	s	s	10	4	SIC	219	ABS	0	2	24RD	0	1	0.964536190033	None	None	None	None	1
1.7	2015_Jul_23_0913	s	s	10	4	SIC	220	RC	0	2	23RD	1	0	0.623155117035	475.0	404.0	479	404	1
1.7	2015_Jul_23_0913	s	s	10	4	SIC	221	RC	0	1	23RO	0	1	9.67478895187	-413.0	180.0	None	None	0
1.7	2015_Jul_23_0913	s	s	10	4	SIC	222	ABS	2	1	24VO	0	1	0.541183948517	None	None	None	None	1
1.7	2015_Jul_23_0913	s	s	10	4	SIC	223	RC	1	0	23MC	0	1	5.39659810066	-106.0	164.0	None	None	0
1.7	2015_Jul_23_0913	s	s	10	4	SIC	224	ABS	0	1	24RO	0	1	6.76114678383	None	None	None	None	1
1.7	2015_Jul_23_0913	s	s	10	4	SIC	225	ABS	1	2	24MD	0	1	1.38825297356	None	None	None	None	1
1.7	2015_Jul_23_0913	s	s	10	4	SIC	226	RC	1	1	23MO	0	1	4.91953492165	476.0	277.0	None	None	0
1.7	2015_Jul_23_0913	s	s	10	4	SIC	227	ABS	1	1	24MO	0	1	4.13898706436	None	None	None	None	1
1.7	2015_Jul_23_0913	s	s	10	4	SIC	228	RC	1	2	23MD	1	0	0.670424938202	-501.0	-141.0	-507	-146	1
1.7	2015_Jul_23_0913	s	s	10	4	SIC	229	ABS	2	2	24VD	0	1	0.641721010208	None	None	None	None	1
1.7	2015_Jul_23_0913	s	s	10	4	SIC	230	ABS	2	0	24VC	0	1	0.608807086945	None	None	None	None	1
1.7	2015_Jul_23_0913	s	s	10	4	SIC	231	ABS	0	1	24RO	0	1	5.86122608185	None	None	None	None	1
1.7	2015_Jul_23_0913	s	s	10	4	SIC	232	RC	0	2	23RD	1	0	0.642184019089	-274.0	68.0	-269	61	1
1.7	2015_Jul_23_0913	s	s	10	4	SIC	233	RC	1	0	23MC	1	0	1.38810300827	-211.0	137.0	-203	135	1
1.7	2015_Jul_23_0913	s	s	10	4	SIC	234	ABS	0	2	24RD	0	1	0.844206094742	None	None	None	None	1
1.7	2015_Jul_23_0913	s	s	10	4	SIC	235	RC	2	2	23VD	1	0	0.616321086884	-53.0	-143.0	-44	-140	1
1.7	2015_Jul_23_0913	s	s	10	4	SIC	236	RC	2	1	23VO	1	0	0.678082942963	-238.0	57.0	-234	57	1
1.7	2015_Jul_23_0913	s	s	10	4	SIC	237	ABS	1	0	24MC	0	1	3.21266102791	None	None	None	None	1
1.7	2015_Jul_23_0913	s	s	10	4	SIC	238	RC	2	0	23VC	1	0	0.54988193512	-441.0	42.0	-438	40	1
1.7	2015_Jul_23_0913	s	s	10	4	SIC	239	RC	0	1	23RO	1	0	4.32529807091	342.0	-16.0	348	-17	1
1.7	2015_Jul_23_0913	s	s	10	4	SIC	240	ABS	2	1	24VO	0	1	0.740855932236	None	None	None	None	1
1.7	2015_Jul_23_0913	s	s	10	4	SIC	241	ABS	2	1	24VO	0	1	0.618695020676	None	None	None	None	1
1.7	2015_Jul_23_0913	s	s	10	4	SIC	242	ABS	0	1	24RO	0	1	6.06847500801	None	None	None	None	1
1.7	2015_Jul_23_0913	s	s	10	4	SIC	243	ABS	1	0	24MC	0	1	5.50461483002	None	None	None	None	1
1.7	2015_Jul_23_0913	s	s	10	4	SIC	244	RC	1	0	23MC	1	0	1.85913681984	275.0	280.0	277	277	1
1.7	2015_Jul_23_0913	s	s	10	4	SIC	245	ABS	0	2	24RD	0	1	0.902704000473	None	None	None	None	1
1.7	2015_Jul_23_0913	s	s	10	4	SIC	246	ABS	1	1	24MO	0	1	4.36106491089	None	None	None	None	1
1.7	2015_Jul_23_0913	s	s	10	4	SIC	247	RC	0	1	23RO	0	1	6.38845205307	-126.0	32.0	None	None	0
1.7	2015_Jul_23_0913	s	s	10	4	SIC	248	RC	0	2	23RD	1	0	1.38836812973	-518.0	-391.0	-527	-390	1
1.7	2015_Jul_23_0913	s	s	10	4	SIC	249	RC	1	1	23MO	1	0	1.17647790909	-140.0	151.0	-142	148	1
1.7	2015_Jul_23_0913	s	s	10	4	SIC	250	ABS	1	2	24MD	0	1	0.878857135773	None	None	None	None	1
1.7	2015_Jul_23_0913	s	s	10	4	SIC	251	ABS	2	0	24VC	0	1	0.897485971451	None	None	None	None	1
1.7	2015_Jul_23_0913	s	s	10	4	SIC	252	RC	1	2	23MD	1	0	0.549664020538	-454.0	82.0	-450	76	1
1.7	2015_Jul_23_0913	s	s	10	4	SIC	253	RC	2	2	23VD	1	0	0.564320087433	-47.0	-210.0	-44	-217	1
1.7	2015_Jul_23_0913	s	s	10	4	SIC	254	RC	2	0	23VC	1	0	0.490653038025	174.0	-104.0	169	-101	1
1.7	2015_Jul_23_0913	s	s	10	4	SIC	255	RC	2	1	23VO	1	0	0.576130151749	76.0	325.0	79	330	1
1.7	2015_Jul_23_0913	s	s	10	4	SIC	256	ABS	2	2	24VD	0	1	0.647253036499	None	None	None	None	1
1.7	2015_Jul_23_0913	s	s	10	4	SIC	257	RC	2	0	23VC	1	0	0.631085157394	334.0	381.0	338	374	1
1.7	2015_Jul_23_0913	s	s	10	4	SIC	258	RC	0	2	23RD	1	0	0.702582120895	96.0	-293.0	102	-298	1
1.7	2015_Jul_23_0913	s	s	10	4	SIC	259	RC	2	2	23VD	1	0	0.858714103699	-473.0	404.0	-476	412	1
1.7	2015_Jul_23_0913	s	s	10	4	SIC	260	ABS	0	2	24RD	0	1	0.676313877106	None	None	None	None	1
1.7	2015_Jul_23_0913	s	s	10	4	SIC	261	ABS	2	2	24VD	0	1	0.475948095322	None	None	None	None	1
1.7	2015_Jul_23_0913	s	s	10	4	SIC	262	ABS	1	2	24MD	0	1	0.60848402977	None	None	None	None	1
1.7	2015_Jul_23_0913	s	s	10	4	SIC	263	ABS	1	0	24MC	0	1	2.24754881859	None	None	None	None	1
1.7	2015_Jul_23_0913	s	s	10	4	SIC	264	ABS	1	1	24MO	0	1	2.37214112282	None	None	None	None	1
1.7	2015_Jul_23_0913	s	s	10	4	SIC	265	ABS	2	0	24VC	0	1	0.490206003189	None	None	None	None	1
1.7	2015_Jul_23_0913	s	s	10	4	SIC	266	ABS	2	1	24VO	0	1	0.650431871414	None	None	None	None	1
1.7	2015_Jul_23_0913	s	s	10	4	SIC	267	RC	1	0	23MC	1	0	6.60269999504	-527.0	-27.0	-520	-28	1
1.7	2015_Jul_23_0913	s	s	10	4	SIC	268	RC	0	1	23RO	0	1	5.79411196709	-294.0	-142.0	None	None	0
1.7	2015_Jul_23_0913	s	s	10	4	SIC	269	ABS	0	1	24RO	0	1	5.59606313705	None	None	None	None	1
1.7	2015_Jul_23_0913	s	s	10	4	SIC	270	RC	1	2	23MD	1	0	0.935128927231	270.0	175.0	267	176	1
1.7	2015_Jul_23_0913	s	s	10	4	SIC	271	RC	1	1	23MO	1	0	0.984671115875	-243.0	69.0	-242	66	1
1.7	2015_Jul_23_0913	s	s	10	4	SIC	272	RC	2	1	23VO	1	0	0.505536079407	203.0	-22.0	204	-17	1
1.7	2015_Jul_23_0913	s	s	10	4	SIC	273	RC	1	0	23MC	1	0	2.21226191521	47.0	357.0	46	360	1
1.7	2015_Jul_23_0913	s	s	10	4	SIC	274	ABS	0	1	24RO	0	1	6.99730706215	None	None	None	None	1
1.7	2015_Jul_23_0913	s	s	10	4	SIC	275	ABS	2	2	24VD	0	1	0.953325986862	None	None	None	None	1
1.7	2015_Jul_23_0913	s	s	10	4	SIC	276	ABS	1	0	24MC	0	1	5.62202000618	None	None	None	None	1
1.7	2015_Jul_23_0913	s	s	10	4	SIC	277	RC	1	1	23MO	1	0	7.83853793144	-46.0	7.0	-48	10	1
1.7	2015_Jul_23_0913	s	s	10	4	SIC	278	ABS	2	1	24VO	0	1	0.535531997681	None	None	None	None	1
1.7	2015_Jul_23_0913	s	s	10	4	SIC	279	RC	2	1	23VO	1	0	0.596792936325	-33.0	-285.0	-44	-280	1
1.7	2015_Jul_23_0913	s	s	10	4	SIC	280	ABS	1	2	24MD	0	1	1.18425798416	None	None	None	None	1
1.7	2015_Jul_23_0913	s	s	10	4	SIC	281	RC	2	2	23VD	1	0	0.596210002899	-460.0	304.0	-470	311	1
1.7	2015_Jul_23_0913	s	s	10	4	SIC	282	RC	2	0	23VC	1	0	0.564328193665	-496.0	257.0	-492	256	1
1.7	2015_Jul_23_0913	s	s	10	4	SIC	283	ABS	2	0	24VC	0	1	0.843280076981	None	None	None	None	1
1.7	2015_Jul_23_0913	s	s	10	4	SIC	284	ABS	0	2	24RD	0	1	0.700433015823	None	None	None	None	1
1.7	2015_Jul_23_0913	s	s	10	4	SIC	285	RC	0	1	23RO	1	0	2.87755084038	-69.0	-356.0	-74	-364	1
1.7	2015_Jul_23_0913	s	s	10	4	SIC	286	ABS	1	1	24MO	0	1	4.6959002018	None	None	None	None	1
1.7	2015_Jul_23_0913	s	s	10	4	SIC	287	RC	0	2	23RD	1	0	0.54689002037	-24.0	230.0	-15	234	1
1.7	2015_Jul_23_0913	s	s	10	4	SIC	288	RC	1	2	23MD	1	0	0.481953859329	-134.0	114.0	-137	112	1
1.7	2015_Jul_23_0913	s	s	10	4	SIC	289	ABS	2	0	24VC	0	1	0.599674940109	None	None	None	None	1
1.7	2015_Jul_23_0913	s	s	10	4	SIC	290	ABS	0	2	24RD	0	1	0.784605026245	None	None	None	None	1
1.7	2015_Jul_23_0913	s	s	10	4	SIC	291	RC	1	1	23MO	1	0	2.26299881935	311.0	366.0	316	359	1
1.7	2015_Jul_23_0913	s	s	10	4	SIC	292	RC	1	0	23MC	1	0	4.51406502724	-486.0	-84.0	-494	-83	1
1.7	2015_Jul_23_0913	s	s	10	4	SIC	293	RC	1	2	23MD	1	0	0.700617074966	396.0	-46.0	395	-45	1
1.7	2015_Jul_23_0913	s	s	10	4	SIC	294	ABS	1	1	24MO	0	1	2.56527400017	None	None	None	None	1
1.7	2015_Jul_23_0913	s	s	10	4	SIC	295	RC	2	2	23VD	1	0	0.879347801208	-120.0	387.0	-120	385	1
1.7	2015_Jul_23_0913	s	s	10	4	SIC	296	RC	2	0	23VC	1	0	0.817980051041	468.0	-316.0	458	-315	1
1.7	2015_Jul_23_0913	s	s	10	4	SIC	297	ABS	1	2	24MD	0	1	0.86541891098	None	None	None	None	1
1.7	2015_Jul_23_0913	s	s	10	4	SIC	298	ABS	2	1	24VO	0	1	0.618225097656	None	None	None	None	1
1.7	2015_Jul_23_0913	s	s	10	4	SIC	299	ABS	0	1	24RO	0	1	4.46688890457	None	None	None	None	1
1.7	2015_Jul_23_0913	s	s	10	4	SIC	300	RC	0	1	23RO	0	1	2.8243560791	210.0	-107.0	None	None	0
1.7	2015_Jul_23_0913	s	s	10	4	SIC	301	RC	0	2	23RD	0	1	4.09172487259	232.0	181.0	None	None	0
1.7	2015_Jul_23_0913	s	s	10	4	SIC	302	ABS	2	2	24VD	0	1	0.547591924667	None	None	None	None	1
1.7	2015_Jul_23_0913	s	s	10	4	SIC	303	RC	2	1	23VO	1	0	0.835065126419	180.0	-409.0	181	-406	1
1.7	2015_Jul_23_0913	s	s	10	4	SIC	304	ABS	1	0	24MC	0	1	3.91448020935	None	None	None	None	1
1.7	2015_Jul_23_0913	s	s	10	4	SIC	305	ABS	1	0	24MC	0	1	2.31809997559	None	None	None	None	1
1.7	2015_Jul_23_0913	s	s	10	4	SIC	306	ABS	2	0	24VC	0	1	0.50550198555	None	None	None	None	1
1.7	2015_Jul_23_0913	s	s	10	4	SIC	307	RC	1	1	23MO	0	1	3.24324798584	-143.0	410.0	None	None	0
1.7	2015_Jul_23_0913	s	s	10	4	SIC	308	ABS	0	1	24RO	0	1	4.79026007652	None	None	None	None	1
1.7	2015_Jul_23_0913	s	s	10	4	SIC	309	ABS	2	1	24VO	0	1	0.493536949158	None	None	None	None	1
1.7	2015_Jul_23_0913	s	s	10	4	SIC	310	ABS	1	1	24MO	0	1	2.23587584496	None	None	None	None	1
1.7	2015_Jul_23_0913	s	s	10	4	SIC	311	RC	2	0	23VC	1	0	0.835063934326	268.0	404.0	268	407	1
1.7	2015_Jul_23_0913	s	s	10	4	SIC	312	RC	1	2	23MD	1	0	0.584438085556	-206.0	-312.0	-204	-307	1
1.7	2015_Jul_23_0913	s	s	10	4	SIC	313	RC	1	0	23MC	1	0	2.17703700066	-168.0	-150.0	-172	-144	1
1.7	2015_Jul_23_0913	s	s	10	4	SIC	314	RC	2	1	23VO	1	0	0.738564014435	-438.0	-34.0	-430	-29	1
1.7	2015_Jul_23_0913	s	s	10	4	SIC	315	ABS	1	2	24MD	0	1	0.864727020264	None	None	None	None	1
1.7	2015_Jul_23_0913	s	s	10	4	SIC	316	RC	0	1	23RO	0	1	4.97838902473	479.0	14.0	None	None	0
1.7	2015_Jul_23_0913	s	s	10	4	SIC	317	ABS	0	2	24RD	0	1	1.2677359581	None	None	None	None	1
1.7	2015_Jul_23_0913	s	s	10	4	SIC	318	RC	0	2	23RD	1	0	0.558153867722	-421.0	379.0	-416	371	1
1.7	2015_Jul_23_0913	s	s	10	4	SIC	319	RC	2	2	23VD	1	0	0.587871074677	-259.0	-186.0	-262	-192	1
1.7	2015_Jul_23_0913	s	s	10	4	SIC	320	ABS	2	2	24VD	0	1	0.514688968658	None	None	None	None	1
1.7	2015_Jul_23_0913	s	s	10	4	SIC	321	RC	1	1	23MO	1	0	1.48807001114	395.0	-183.0	396	-185	1
1.7	2015_Jul_23_0913	s	s	10	4	SIC	322	ABS	2	0	24VC	0	1	0.533801078796	None	None	None	None	1
1.7	2015_Jul_23_0913	s	s	10	4	SIC	323	RC	1	0	23MC	0	1	4.25528907776	208.0	-390.0	None	None	0
1.7	2015_Jul_23_0913	s	s	10	4	SIC	324	RC	2	1	23VO	1	0	0.585527896881	110.0	252.0	110	251	1
1.7	2015_Jul_23_0913	s	s	10	4	SIC	325	ABS	1	1	24MO	0	1	3.2785589695	None	None	None	None	1
1.7	2015_Jul_23_0913	s	s	10	4	SIC	326	RC	1	2	23MD	1	0	0.867339134216	389.0	-261.0	388	-255	1
1.7	2015_Jul_23_0913	s	s	10	4	SIC	327	RC	0	2	23RD	1	0	0.752680063248	364.0	170.0	364	170	1
1.7	2015_Jul_23_0913	s	s	10	4	SIC	328	ABS	1	2	24MD	0	1	1.46581721306	None	None	None	None	1
1.7	2015_Jul_23_0913	s	s	10	4	SIC	329	ABS	1	0	24MC	0	1	3.01267385483	None	None	None	None	1
1.7	2015_Jul_23_0913	s	s	10	4	SIC	330	ABS	0	1	24RO	1	0	2.6242711544	None	None	231	97	0
1.7	2015_Jul_23_0913	s	s	10	4	SIC	331	RC	0	1	23RO	0	1	4.78622508049	-296.0	-281.0	None	None	0
1.7	2015_Jul_23_0913	s	s	10	4	SIC	332	RC	2	2	23VD	1	0	0.599687099457	381.0	226.0	389	227	1
1.7	2015_Jul_23_0913	s	s	10	4	SIC	333	ABS	0	2	24RD	0	1	1.29418611526	None	None	None	None	1
1.7	2015_Jul_23_0913	s	s	10	4	SIC	334	RC	2	0	23VC	1	0	0.605348110199	-24.0	-236.0	-22	-236	1
1.7	2015_Jul_23_0913	s	s	10	4	SIC	335	ABS	2	1	24VO	0	1	0.605000019073	None	None	None	None	1
1.7	2015_Jul_23_0913	s	s	10	4	SIC	336	ABS	2	2	24VD	0	1	0.641747951508	None	None	None	None	1
1.7	2015_Jul_23_0913	s	s	10	4	SIC	337	RC	2	1	23VO	1	0	0.573992967606	-107.0	-12.0	-109	-17	1
1.7	2015_Jul_23_0913	s	s	10	4	SIC	338	RC	1	2	23MD	1	0	0.517598867416	-292.0	257.0	-294	260	1
1.7	2015_Jul_23_0913	s	s	10	4	SIC	339	ABS	0	1	24RO	0	1	4.07182002068	None	None	None	None	1
1.7	2015_Jul_23_0913	s	s	10	4	SIC	340	RC	1	1	23MO	0	1	2.03578686714	-526.0	-264.0	None	None	0
1.7	2015_Jul_23_0913	s	s	10	4	SIC	341	RC	1	0	23MC	0	1	5.87028884888	-256.0	-141.0	None	None	0
1.7	2015_Jul_23_0913	s	s	10	4	SIC	342	RC	0	1	23RO	0	1	8.83916091919	260.0	-344.0	None	None	0
1.7	2015_Jul_23_0913	s	s	10	4	SIC	343	ABS	2	1	24VO	0	1	0.526286125183	None	None	None	None	1
1.7	2015_Jul_23_0913	s	s	10	4	SIC	344	ABS	1	1	24MO	0	1	3.74840712547	None	None	None	None	1
1.7	2015_Jul_23_0913	s	s	10	4	SIC	345	ABS	1	2	24MD	0	1	0.941497087479	None	None	None	None	1
1.7	2015_Jul_23_0913	s	s	10	4	SIC	346	ABS	1	0	24MC	0	1	4.06013607979	None	None	None	None	1
1.7	2015_Jul_23_0913	s	s	10	4	SIC	347	ABS	2	0	24VC	0	1	0.540847063065	None	None	None	None	1
1.7	2015_Jul_23_0913	s	s	10	4	SIC	348	RC	2	2	23VD	1	0	0.800208091736	525.0	363.0	523	362	1
1.7	2015_Jul_23_0913	s	s	10	4	SIC	349	ABS	0	2	24RD	0	1	0.623114824295	None	None	None	None	1
1.7	2015_Jul_23_0913	s	s	10	4	SIC	350	RC	0	2	23RD	1	0	0.599689006805	-65.0	275.0	-62	284	1
1.7	2015_Jul_23_0913	s	s	10	4	SIC	351	ABS	2	2	24VD	0	1	0.852965116501	None	None	None	None	1
1.7	2015_Jul_23_0913	s	s	10	4	SIC	352	RC	2	0	23VC	1	0	0.587884902954	-402.0	-315.0	-398	-310	1
1.7	2015_Jul_23_0913	s	s	10	4	SIC	353	ABS	2	0	24VC	0	1	0.547599077225	None	None	None	None	1
1.7	2015_Jul_23_0913	s	s	10	4	SIC	354	RC	1	0	23MC	1	0	4.19617295265	98.0	10.0	96	11	1
1.7	2015_Jul_23_0913	s	s	10	4	SIC	355	RC	2	1	23VO	1	0	0.689807891846	260.0	322.0	259	329	1
1.7	2015_Jul_23_0913	s	s	10	4	SIC	356	RC	1	2	23MD	1	0	1.08231019974	-339.0	-318.0	-333	-323	1
1.7	2015_Jul_23_0913	s	s	10	4	SIC	357	ABS	0	1	24RO	0	1	4.22505903244	None	None	None	None	1
1.7	2015_Jul_23_0913	s	s	10	4	SIC	358	RC	1	1	23MO	1	0	6.2680311203	142.0	174.0	136	176	1
1.7	2015_Jul_23_0913	s	s	10	4	SIC	359	ABS	2	1	24VO	0	1	0.458490133286	None	None	None	None	1
1.7	2015_Jul_23_0913	s	s	10	4	SIC	360	ABS	0	2	24RD	0	1	0.674433946609	None	None	None	None	1
1.7	2015_Jul_23_0913	s	s	10	4	SIC	361	RC	0	2	23RD	1	0	0.611471891403	-99.0	197.0	-95	199	1
1.7	2015_Jul_23_0913	s	s	10	4	SIC	362	ABS	2	2	24VD	0	1	0.540769815445	None	None	None	None	1
1.7	2015_Jul_23_0913	s	s	10	4	SIC	363	RC	2	2	23VD	1	0	0.595491170883	275.0	-24.0	276	-26	1
1.7	2015_Jul_23_0913	s	s	10	4	SIC	364	RC	2	0	23VC	1	0	0.709285974503	-64.0	-75.0	-58	-70	1
1.7	2015_Jul_23_0913	s	s	10	4	SIC	365	ABS	1	2	24MD	0	1	0.785449028015	None	None	None	None	1
1.7	2015_Jul_23_0913	s	s	10	4	SIC	366	ABS	1	0	24MC	0	1	2.2559170723	None	None	None	None	1
1.7	2015_Jul_23_0913	s	s	10	4	SIC	367	ABS	1	1	24MO	0	1	2.82434415817	None	None	None	None	1
1.7	2015_Jul_23_0913	s	s	10	4	SIC	368	RC	0	1	23RO	0	1	7.66205501556	-253.0	126.0	None	None	0
1.7	2015_Jul_23_0913	s	s	10	4	SIC	369	ABS	2	1	24VO	0	1	0.514271974564	None	None	None	None	1
1.7	2015_Jul_23_0913	s	s	10	4	SIC	370	ABS	0	1	24RO	0	1	4.13925099373	None	None	None	None	1
1.7	2015_Jul_23_0913	s	s	10	4	SIC	371	RC	2	1	23VO	1	0	0.588023900986	154.0	174.0	157	166	1
1.7	2015_Jul_23_0913	s	s	10	4	SIC	372	RC	1	0	23MC	0	1	3.20716404915	24.0	-152.0	None	None	0
1.7	2015_Jul_23_0913	s	s	10	4	SIC	373	ABS	2	2	24VD	0	1	0.517325162888	None	None	None	None	1
1.7	2015_Jul_23_0913	s	s	10	4	SIC	374	ABS	0	2	24RD	0	1	0.725402832031	None	None	None	None	1
1.7	2015_Jul_23_0913	s	s	10	4	SIC	375	RC	2	2	23VD	1	0	0.629487037659	-369.0	309.0	-367	306	1
1.7	2015_Jul_23_0913	s	s	10	4	SIC	376	RC	2	0	23VC	1	0	0.693781852722	-329.0	-58.0	-331	-57	1
1.7	2015_Jul_23_0913	s	s	10	4	SIC	377	RC	1	2	23MD	1	0	0.65839600563	-305.0	-380.0	-299	-382	1
1.7	2015_Jul_23_0913	s	s	10	4	SIC	378	RC	0	1	23RO	1	0	1.85916519165	306.0	-375.0	308	-389	1
1.7	2015_Jul_23_0913	s	s	10	4	SIC	379	ABS	2	0	24VC	0	1	0.576117992401	None	None	None	None	1
1.7	2015_Jul_23_0913	s	s	10	4	SIC	380	ABS	1	0	24MC	0	1	2.11807608604	None	None	None	None	1
1.7	2015_Jul_23_0913	s	s	10	4	SIC	381	ABS	1	2	24MD	0	1	0.606641054153	None	None	None	None	1
1.7	2015_Jul_23_0913	s	s	10	4	SIC	382	ABS	1	1	24MO	0	1	3.60817718506	None	None	None	None	1
1.7	2015_Jul_23_0913	s	s	10	4	SIC	383	RC	0	2	23RD	1	0	0.748042821884	-29.0	-136.0	-20	-139	1
1.7	2015_Jul_23_0913	s	s	10	4	SIC	384	RC	1	1	23MO	1	0	0.912379026413	-25.0	249.0	-26	244	1
1.7	2015_Jul_23_0913	s	s	10	4	SIC	385	ABS	2	1	24VO	0	1	0.655114889145	None	None	None	None	1
1.7	2015_Jul_23_0913	s	s	10	4	SIC	386	ABS	0	2	24RD	0	1	1.29410409927	None	None	None	None	1
1.7	2015_Jul_23_0913	s	s	10	4	SIC	387	ABS	2	0	24VC	0	1	0.876855134964	None	None	None	None	1
1.7	2015_Jul_23_0913	s	s	10	4	SIC	388	RC	2	1	23VO	1	0	0.646754026413	220.0	-19.0	217	-21	1
1.7	2015_Jul_23_0913	s	s	10	4	SIC	389	RC	1	0	23MC	1	0	10.1692390442	-423.0	-186.0	-417	-187	1
1.7	2015_Jul_23_0913	s	s	10	4	SIC	390	RC	1	2	23MD	1	0	1.31220412254	270.0	143.0	271	149	1
1.7	2015_Jul_23_0913	s	s	10	4	SIC	391	ABS	1	2	24MD	0	1	0.6768450737	None	None	None	None	1
1.7	2015_Jul_23_0913	s	s	10	4	SIC	392	ABS	2	2	24VD	0	1	0.561657905579	None	None	None	None	1
1.7	2015_Jul_23_0913	s	s	10	4	SIC	393	RC	2	0	23VC	1	0	0.658509969711	-530.0	195.0	-532	192	1
1.7	2015_Jul_23_0913	s	s	10	4	SIC	394	RC	1	1	23MO	1	0	2.82078194618	105.0	149.0	107	150	1
1.7	2015_Jul_23_0913	s	s	10	4	SIC	395	ABS	1	1	24MO	0	1	2.8950381279	None	None	None	None	1
1.7	2015_Jul_23_0913	s	s	10	4	SIC	396	RC	2	2	23VD	1	0	0.564344167709	-50.0	284.0	-50	284	1
1.7	2015_Jul_23_0913	s	s	10	4	SIC	397	ABS	0	1	24RO	0	1	4.0367000103	None	None	None	None	1
1.7	2015_Jul_23_0913	s	s	10	4	SIC	398	ABS	1	0	24MC	0	1	4.42517805099	None	None	None	None	1
1.7	2015_Jul_23_0913	s	s	10	4	SIC	399	RC	0	2	23RD	1	0	0.729019165039	-403.0	-399.0	-409	-397	1
1.7	2015_Jul_23_0913	s	s	10	4	SIC	400	RC	0	1	23RO	0	1	4.69581317902	-464.0	29.0	None	None	0
1.7	2015_Jul_23_0913	s	s	10	4	SIC	401	ABS	2	1	24VO	0	1	0.552994966507	None	None	None	None	1
1.7	2015_Jul_23_0913	s	s	10	4	SIC	402	ABS	0	1	24RO	0	1	4.36621689796	None	None	None	None	1
1.7	2015_Jul_23_0913	s	s	10	4	SIC	403	RC	2	2	23VD	1	0	0.524080991745	-199.0	-278.0	-208	-277	1
1.7	2015_Jul_23_0913	s	s	10	4	SIC	404	RC	1	0	23MC	0	1	1.47773909569	158.0	-331.0	None	None	0
1.7	2015_Jul_23_0913	s	s	10	4	SIC	405	ABS	2	0	24VC	0	1	0.549165010452	None	None	None	None	1
1.7	2015_Jul_23_0913	s	s	10	4	SIC	406	RC	2	0	23VC	1	0	0.617221832275	182.0	87.0	175	88	1
1.7	2015_Jul_23_0913	s	s	10	4	SIC	407	RC	0	2	23RD	1	0	1.04692697525	423.0	2.0	430	0	1
1.7	2015_Jul_23_0913	s	s	10	4	SIC	408	ABS	1	1	24MO	0	1	1.44726586342	None	None	None	None	1
1.7	2015_Jul_23_0913	s	s	10	4	SIC	409	ABS	1	2	24MD	0	1	1.1502840519	None	None	None	None	1
1.7	2015_Jul_23_0913	s	s	10	4	SIC	410	RC	2	1	23VO	1	0	0.57675409317	45.0	-261.0	40	-257	1
1.7	2015_Jul_23_0913	s	s	10	4	SIC	411	RC	1	2	23MD	1	0	0.541197061539	-472.0	-5.0	-466	-10	1
1.7	2015_Jul_23_0913	s	s	10	4	SIC	412	ABS	1	0	24MC	0	1	1.60014390945	None	None	None	None	1
1.7	2015_Jul_23_0913	s	s	10	4	SIC	413	ABS	0	2	24RD	0	1	0.632694959641	None	None	None	None	1
1.7	2015_Jul_23_0913	s	s	10	4	SIC	414	RC	1	1	23MO	1	0	0.772846221924	-371.0	-233.0	-375	-232	1
1.7	2015_Jul_23_0913	s	s	10	4	SIC	415	ABS	2	2	24VD	0	1	0.523877859116	None	None	None	None	1
1.7	2015_Jul_23_0913	s	s	10	4	SIC	416	RC	0	1	23RO	1	0	3.67825007439	-271.0	330.0	-260	334	1
1.7	2015_Jul_23_0913	s	s	10	4	SIC	417	ABS	2	2	24VD	0	1	0.470161914825	None	None	None	None	1
1.7	2015_Jul_23_0913	s	s	10	4	SIC	418	ABS	0	1	24RO	0	1	5.80224609375	None	None	None	None	1
1.7	2015_Jul_23_0913	s	s	10	4	SIC	419	ABS	1	0	24MC	0	1	1.88276696205	None	None	None	None	1
1.7	2015_Jul_23_0913	s	s	10	4	SIC	420	ABS	1	2	24MD	0	1	0.596943855286	None	None	None	None	1
1.7	2015_Jul_23_0913	s	s	10	4	SIC	421	RC	2	2	23VD	1	0	0.893797159195	-171.0	45.0	-158	50	1
1.7	2015_Jul_23_0913	s	s	10	4	SIC	422	RC	0	1	23RO	0	1	4.51951789856	82.0	248.0	None	None	0
1.7	2015_Jul_23_0913	s	s	10	4	SIC	423	RC	0	2	23RD	1	0	1.03004002571	535.0	405.0	533	409	1
1.7	2015_Jul_23_0913	s	s	10	4	SIC	424	RC	2	0	23VC	1	0	0.693817853928	45.0	225.0	42	231	1
1.7	2015_Jul_23_0913	s	s	10	4	SIC	425	RC	1	1	23MO	0	1	1.67074394226	169.0	228.0	None	None	0
1.7	2015_Jul_23_0913	s	s	10	4	SIC	426	ABS	2	0	24VC	0	1	0.653352975845	None	None	None	None	1
1.7	2015_Jul_23_0913	s	s	10	4	SIC	427	ABS	1	1	24MO	0	1	2.81256699562	None	None	None	None	1
1.7	2015_Jul_23_0913	s	s	10	4	SIC	428	RC	1	0	23MC	0	1	8.57526397705	330.0	-21.0	None	None	0
1.7	2015_Jul_23_0913	s	s	10	4	SIC	429	ABS	2	1	24VO	0	1	0.584486961365	None	None	None	None	1
1.7	2015_Jul_23_0913	s	s	10	4	SIC	430	ABS	0	2	24RD	0	1	0.723799943924	None	None	None	None	1
1.7	2015_Jul_23_0913	s	s	10	4	SIC	431	RC	2	1	23VO	1	0	0.623196125031	-243.0	215.0	-247	214	1
1.7	2015_Jul_23_0913	s	s	10	4	SIC	432	RC	1	2	23MD	1	0	0.596312999725	372.0	238.0	373	236	1
1.7	2015_Jul_23_0913	s	s	10	4	SIC	433	RC	2	2	23VD	1	0	0.537184000015	481.0	-60.0	482	-57	1
1.7	2015_Jul_23_0913	s	s	10	4	SIC	434	ABS	2	0	24VC	0	1	0.646790981293	None	None	None	None	1
1.7	2015_Jul_23_0913	s	s	10	4	SIC	435	ABS	2	1	24VO	0	1	0.61149597168	None	None	None	None	1
1.7	2015_Jul_23_0913	s	s	10	4	SIC	436	ABS	1	0	24MC	0	1	4.06025385857	None	None	None	None	1
1.7	2015_Jul_23_0913	s	s	10	4	SIC	437	ABS	0	1	24RO	0	1	2.90676999092	None	None	None	None	1
1.7	2015_Jul_23_0913	s	s	10	4	SIC	438	ABS	2	2	24VD	0	1	0.0316948890686	None	None	None	None	1
1.7	2015_Jul_23_0913	s	s	10	4	SIC	439	RC	2	0	23VC	1	0	0.689064025879	-231.0	-186.0	-233	-183	1
1.7	2015_Jul_23_0913	s	s	10	4	SIC	440	RC	2	1	23VO	1	0	0.583904981613	202.0	116.0	203	115	1
1.7	2015_Jul_23_0913	s	s	10	4	SIC	441	RC	0	2	23RD	1	0	0.676562070847	-202.0	296.0	-199	299	1
1.7	2015_Jul_23_0913	s	s	10	4	SIC	442	ABS	1	1	24MO	0	1	2.29104399681	None	None	None	None	1
1.7	2015_Jul_23_0913	s	s	10	4	SIC	443	ABS	0	2	24RD	0	1	0.961827039719	None	None	None	None	1
1.7	2015_Jul_23_0913	s	s	10	4	SIC	444	ABS	1	2	24MD	0	1	0.841745853424	None	None	None	None	1
1.7	2015_Jul_23_0913	s	s	10	4	SIC	445	RC	1	0	23MC	0	1	3.31422305107	239.0	149.0	None	None	0
1.7	2015_Jul_23_0913	s	s	10	4	SIC	446	RC	0	1	23RO	0	1	2.34172701836	108.0	-338.0	None	None	0
1.7	2015_Jul_23_0913	s	s	10	4	SIC	447	RC	1	2	23MD	1	0	0.688848972321	-282.0	135.0	-278	136	1
1.7	2015_Jul_23_0913	s	s	10	4	SIC	448	RC	1	1	23MO	0	1	1.72961783409	-488.0	-135.0	None	None	0
1.7	2015_Jul_23_0913	s	s	10	4	SIC	449	RC	1	2	23MD	1	0	0.576122999191	-229.0	178.0	-227	175	1
1.7	2015_Jul_23_0913	s	s	10	4	SIC	450	ABS	1	0	24MC	0	1	2.51832199097	None	None	None	None	1
1.7	2015_Jul_23_0913	s	s	10	4	SIC	451	ABS	0	2	24RD	0	1	0.582189083099	None	None	None	None	1
1.7	2015_Jul_23_0913	s	s	10	4	SIC	452	ABS	1	1	24MO	0	1	4.6721739769	None	None	None	None	1
1.7	2015_Jul_23_0913	s	s	10	4	SIC	453	RC	2	0	23VC	1	0	0.564117193222	-164.0	133.0	-157	134	1
1.7	2015_Jul_23_0913	s	s	10	4	SIC	454	RC	1	1	23MO	0	1	6.52036690712	-166.0	-151.0	None	None	0
1.7	2015_Jul_23_0913	s	s	10	4	SIC	455	RC	2	2	23VD	1	0	0.512162923813	-138.0	-117.0	-131	-109	1
1.7	2015_Jul_23_0913	s	s	10	4	SIC	456	ABS	2	1	24VO	0	1	0.570355892181	None	None	None	None	1
1.7	2015_Jul_23_0913	s	s	10	4	SIC	457	ABS	0	1	24RO	0	1	4.96662783623	None	None	None	None	1
1.7	2015_Jul_23_0913	s	s	10	4	SIC	458	RC	2	1	23VO	1	0	0.561026096344	-340.0	133.0	-333	138	1
1.7	2015_Jul_23_0913	s	s	10	4	SIC	459	RC	0	1	23RO	1	0	1.28930711746	-346.0	155.0	-344	156	1
1.7	2015_Jul_23_0913	s	s	10	4	SIC	460	RC	0	2	23RD	1	0	0.535804986954	-59.0	5.0	-57	8	1
1.7	2015_Jul_23_0913	s	s	10	4	SIC	461	ABS	2	2	24VD	0	1	0.571091890335	None	None	None	None	1
1.7	2015_Jul_23_0913	s	s	10	4	SIC	462	ABS	2	0	24VC	0	1	0.512148141861	None	None	None	None	1
1.7	2015_Jul_23_0913	s	s	10	4	SIC	463	ABS	1	2	24MD	0	1	0.676925897598	None	None	None	None	1
1.7	2015_Jul_23_0913	s	s	10	4	SIC	464	RC	1	0	23MC	1	0	7.32738113403	182.0	176.0	188	181	1
1.7	2015_Jul_23_0913	s	s	10	4	SIC	465	ABS	2	0	24VC	0	1	0.446641921997	None	None	None	None	1
1.7	2015_Jul_23_0913	s	s	10	4	SIC	466	ABS	1	1	24MO	0	1	3.5474460125	None	None	None	None	1
1.7	2015_Jul_23_0913	s	s	10	4	SIC	467	RC	2	2	23VD	1	0	0.62321305275	410.0	239.0	401	242	1
1.7	2015_Jul_23_0913	s	s	10	4	SIC	468	ABS	1	2	24MD	0	1	0.747946977615	None	None	None	None	1
1.7	2015_Jul_23_0913	s	s	10	4	SIC	469	RC	0	2	23RD	1	0	0.776247024536	488.0	343.0	492	345	1
1.7	2015_Jul_23_0913	s	s	10	4	SIC	470	ABS	0	2	24RD	0	1	0.796628952026	None	None	None	None	1
1.7	2015_Jul_23_0913	s	s	10	4	SIC	471	RC	0	1	23RO	0	1	4.72800993919	244.0	67.0	None	None	0
1.7	2015_Jul_23_0913	s	s	10	4	SIC	472	RC	2	1	23VO	1	0	0.65857219696	135.0	57.0	132	54	1
1.7	2015_Jul_23_0913	s	s	10	4	SIC	473	RC	1	1	23MO	1	0	0.973567008972	-8.0	-19.0	-4	-14	1
1.7	2015_Jul_23_0913	s	s	10	4	SIC	474	ABS	0	1	24RO	0	1	3.77774000168	None	None	None	None	1
1.7	2015_Jul_23_0913	s	s	10	4	SIC	475	ABS	1	0	24MC	0	1	2.30149698257	None	None	None	None	1
1.7	2015_Jul_23_0913	s	s	10	4	SIC	476	ABS	2	2	24VD	0	1	0.540801048279	None	None	None	None	1
1.7	2015_Jul_23_0913	s	s	10	4	SIC	477	RC	1	2	23MD	1	0	0.564351081848	-216.0	376.0	-211	376	1
1.7	2015_Jul_23_0913	s	s	10	4	SIC	478	RC	1	0	23MC	0	1	2.95115113258	-199.0	-238.0	None	None	0
1.7	2015_Jul_23_0913	s	s	10	4	SIC	479	RC	2	0	23VC	1	0	0.629868030548	-358.0	7.0	-355	4	1
1.7	2015_Jul_23_0913	s	s	10	4	SIC	480	ABS	2	1	24VO	0	1	0.509088993073	None	None	None	None	1
1.7	2015_Jul_23_0913	s	s	10	4	SIC	481	ABS	1	1	24MO	0	1	2.77224302292	None	None	None	None	1
1.7	2015_Jul_23_0913	s	s	10	4	SIC	482	RC	2	0	23VC	1	0	0.540714025497	-5.0	-3.0	-1	0	1
1.7	2015_Jul_23_0913	s	s	10	4	SIC	483	RC	1	2	23MD	1	0	0.793987035751	389.0	54.0	392	49	1
1.7	2015_Jul_23_0913	s	s	10	4	SIC	484	RC	2	2	23VD	1	0	0.585103988647	276.0	73.0	279	66	1
1.7	2015_Jul_23_0913	s	s	10	4	SIC	485	RC	2	1	23VO	1	0	0.511996984482	21.0	149.0	23	147	1
1.7	2015_Jul_23_0913	s	s	10	4	SIC	486	ABS	0	1	24RO	0	1	7.2436299324	None	None	None	None	1
1.7	2015_Jul_23_0913	s	s	10	4	SIC	487	RC	1	1	23MO	1	0	2.47780394554	538.0	-114.0	545	-119	1
1.7	2015_Jul_23_0913	s	s	10	4	SIC	488	ABS	2	0	24VC	0	1	0.705584049225	None	None	None	None	1
1.7	2015_Jul_23_0913	s	s	10	4	SIC	489	ABS	2	2	24VD	0	1	0.665180921555	None	None	None	None	1
1.7	2015_Jul_23_0913	s	s	10	4	SIC	490	RC	0	1	23RO	1	0	2.17697000504	533.0	-55.0	542	-48	1
1.7	2015_Jul_23_0913	s	s	10	4	SIC	491	RC	0	2	23RD	1	0	0.623237848282	60.0	-271.0	61	-272	1
1.7	2015_Jul_23_0913	s	s	10	4	SIC	492	ABS	0	2	24RD	0	1	0.717308998108	None	None	None	None	1
1.7	2015_Jul_23_0913	s	s	10	4	SIC	493	RC	1	0	23MC	1	0	2.32991099358	-391.0	268.0	-389	267	1
1.7	2015_Jul_23_0913	s	s	10	4	SIC	494	ABS	1	2	24MD	0	1	0.629930973053	None	None	None	None	1
1.7	2015_Jul_23_0913	s	s	10	4	SIC	495	ABS	2	1	24VO	0	1	0.611460924149	None	None	None	None	1
1.7	2015_Jul_23_0913	s	s	10	4	SIC	496	ABS	1	0	24MC	0	1	3.63123178482	None	None	None	None	1
1.7	2015_Jul_23_0913	s	s	10	4	SIC	497	ABS	1	1	24MO	0	1	2.76201701164	None	None	None	None	1
1.7	2015_Jul_23_0913	s	s	10	4	SIC	498	ABS	2	1	24VO	0	1	0.476837158203	None	None	None	None	1
1.7	2015_Jul_23_0913	s	s	10	4	SIC	499	RC	2	0	23VC	1	0	0.782272100449	529.0	-318.0	529	-327	1
1.7	2015_Jul_23_0913	s	s	10	4	SIC	500	RC	0	1	23RO	1	0	3.18398785591	200.0	-194.0	199	-192	1
1.7	2015_Jul_23_0913	s	s	10	4	SIC	501	ABS	1	2	24MD	0	1	0.682006120682	None	None	None	None	1
1.7	2015_Jul_23_0913	s	s	10	4	SIC	502	RC	1	1	23MO	1	0	1.36246204376	512.0	74.0	507	77	1
1.7	2015_Jul_23_0913	s	s	10	4	SIC	503	ABS	2	0	24VC	0	1	0.512830972672	None	None	None	None	1
1.7	2015_Jul_23_0913	s	s	10	4	SIC	504	ABS	1	0	24MC	0	1	2.53965997696	None	None	None	None	1
1.7	2015_Jul_23_0913	s	s	10	4	SIC	505	ABS	0	2	24RD	0	1	0.664496898651	None	None	None	None	1
1.7	2015_Jul_23_0913	s	s	10	4	SIC	506	RC	1	0	23MC	0	1	1.78054785728	102.0	380.0	None	None	0
1.7	2015_Jul_23_0913	s	s	10	4	SIC	507	RC	2	2	23VD	1	0	0.608646869659	498.0	127.0	495	118	1
1.7	2015_Jul_23_0913	s	s	10	4	SIC	508	RC	1	2	23MD	1	0	0.584640979767	-5.0	91.0	-4	92	1
1.7	2015_Jul_23_0913	s	s	10	4	SIC	509	RC	2	1	23VO	1	0	0.643044948578	309.0	-103.0	314	-101	1
1.7	2015_Jul_23_0913	s	s	10	4	SIC	510	ABS	2	2	24VD	0	1	0.505587100983	None	None	None	None	1
1.7	2015_Jul_23_0913	s	s	10	4	SIC	511	ABS	0	1	24RO	0	1	3.99865603447	None	None	None	None	1
1.7	2015_Jul_23_0913	s	s	10	4	SIC	512	RC	0	2	23RD	1	0	0.500430107117	-209.0	-241.0	-213	-243	1
1.7	2015_Jul_23_0913	s	s	10	4	SIC	513	ABS	2	1	24VO	0	1	0.505468130112	None	None	None	None	1
1.7	2015_Jul_23_0913	s	s	10	4	SIC	514	ABS	0	1	24RO	0	1	3.65721297264	None	None	None	None	1
1.7	2015_Jul_23_0913	s	s	10	4	SIC	515	ABS	1	1	24MO	0	1	2.00819396973	None	None	None	None	1
1.7	2015_Jul_23_0913	s	s	10	4	SIC	516	RC	2	1	23VO	1	0	0.571545124054	-137.0	401.0	-135	399	1
1.7	2015_Jul_23_0913	s	s	10	4	SIC	517	RC	1	2	23MD	1	0	0.493605852127	291.0	-92.0	294	-92	1
1.7	2015_Jul_23_0913	s	s	10	4	SIC	518	RC	1	1	23MO	1	0	0.900161027908	-141.0	-319.0	-143	-328	1
1.7	2015_Jul_23_0913	s	s	10	4	SIC	519	RC	0	2	23RD	1	0	0.479434967041	292.0	-333.0	300	-339	1
1.7	2015_Jul_23_0913	s	s	10	4	SIC	520	RC	2	0	23VC	1	0	0.431006908417	139.0	-4.0	144	-2	1
1.7	2015_Jul_23_0913	s	s	10	4	SIC	521	RC	1	0	23MC	0	1	2.26568102837	-319.0	-382.0	None	None	0
1.7	2015_Jul_23_0913	s	s	10	4	SIC	522	ABS	1	2	24MD	0	1	0.841580867767	None	None	None	None	1
1.7	2015_Jul_23_0913	s	s	10	4	SIC	523	ABS	2	0	24VC	0	1	0.505530118942	None	None	None	None	1
1.7	2015_Jul_23_0913	s	s	10	4	SIC	524	ABS	0	2	24RD	0	1	0.550250053406	None	None	None	None	1
1.7	2015_Jul_23_0913	s	s	10	4	SIC	525	ABS	1	0	24MC	0	1	0.846883058548	None	None	None	None	1
1.7	2015_Jul_23_0913	s	s	10	4	SIC	526	RC	2	2	23VD	1	0	0.488075017929	-23.0	346.0	-23	355	1
1.7	2015_Jul_23_0913	s	s	10	4	SIC	527	ABS	2	2	24VD	0	1	0.611550092697	None	None	None	None	1
1.7	2015_Jul_23_0913	s	s	10	4	SIC	528	RC	0	1	23RO	1	0	2.26801586151	-83.0	-122.0	-78	-124	1
1.7	2015_Jul_23_0913	s	s	10	4	SIC	529	ABS	1	2	24MD	0	1	0.587901115417	None	None	None	None	1
1.7	2015_Jul_23_0913	s	s	10	4	SIC	530	RC	1	0	23MC	1	0	2.29470896721	-466.0	-55.0	-458	-53	1
1.7	2015_Jul_23_0913	s	s	10	4	SIC	531	RC	1	2	23MD	0	1	0.548802852631	475.0	-226.0	None	None	0
1.7	2015_Jul_23_0913	s	s	10	4	SIC	532	RC	0	2	23RD	1	0	0.634890079498	506.0	383.0	505	379	1
1.7	2015_Jul_23_0913	s	s	10	4	SIC	533	ABS	2	0	24VC	0	1	0.691475152969	None	None	None	None	1
1.7	2015_Jul_23_0913	s	s	10	4	SIC	534	RC	2	0	23VC	1	0	0.617434978485	96.0	27.0	94	26	1
1.7	2015_Jul_23_0913	s	s	10	4	SIC	535	RC	0	1	23RO	1	0	1.40677189827	447.0	-24.0	439	-23	1
1.7	2015_Jul_23_0913	s	s	10	4	SIC	536	ABS	2	2	24VD	0	1	0.547423839569	None	None	None	None	1
1.7	2015_Jul_23_0913	s	s	10	4	SIC	537	ABS	0	1	24RO	0	1	3.75055408478	None	None	None	None	1
1.7	2015_Jul_23_0913	s	s	10	4	SIC	538	ABS	1	0	24MC	0	1	1.92473196983	None	None	None	None	1
1.7	2015_Jul_23_0913	s	s	10	4	SIC	539	ABS	0	2	24RD	0	1	0.538442134857	None	None	None	None	1
1.7	2015_Jul_23_0913	s	s	10	4	SIC	540	ABS	1	1	24MO	0	1	1.20677185059	None	None	None	None	1
1.7	2015_Jul_23_0913	s	s	10	4	SIC	541	RC	2	1	23VO	1	0	0.458467960358	-114.0	-327.0	-113	-324	1
1.7	2015_Jul_23_0913	s	s	10	4	SIC	542	ABS	2	1	24VO	0	1	0.493716001511	None	None	None	None	1
1.7	2015_Jul_23_0913	s	s	10	4	SIC	543	RC	1	1	23MO	1	0	1.52484321594	282.0	191.0	281	188	1
1.7	2015_Jul_23_0913	s	s	10	4	SIC	544	RC	2	2	23VD	1	0	0.49992609024	181.0	-103.0	173	-101	1
1.7	2015_Jul_23_0913	s	s	10	4	SIC	545	ABS	0	2	24RD	0	1	0.582545042038	None	None	None	None	1
1.7	2015_Jul_23_0913	s	s	10	4	SIC	546	RC	1	1	23MO	1	0	0.725167036057	-140.0	63.0	-136	67	1
1.7	2015_Jul_23_0913	s	s	10	4	SIC	547	RC	2	2	23VD	1	0	0.47027182579	-480.0	-20.0	-474	-22	1
1.7	2015_Jul_23_0913	s	s	10	4	SIC	548	RC	0	2	23RD	1	0	0.523912906647	-504.0	-93.0	-496	-90	1
1.7	2015_Jul_23_0913	s	s	10	4	SIC	549	RC	0	1	23RO	1	0	1.3294069767	-340.0	78.0	-340	72	1
1.7	2015_Jul_23_0913	s	s	10	4	SIC	550	ABS	0	1	24RO	0	1	2.91334414482	None	None	None	None	1
1.7	2015_Jul_23_0913	s	s	10	4	SIC	551	ABS	2	1	24VO	0	1	0.623099803925	None	None	None	None	1
1.7	2015_Jul_23_0913	s	s	10	4	SIC	552	ABS	1	1	24MO	0	1	2.3455119133	None	None	None	None	1
1.7	2015_Jul_23_0913	s	s	10	4	SIC	553	ABS	1	2	24MD	0	1	0.795408010483	None	None	None	None	1
1.7	2015_Jul_23_0913	s	s	10	4	SIC	554	RC	1	2	23MD	1	0	0.536761045456	-11.0	-274.0	-10	-273	1
1.7	2015_Jul_23_0913	s	s	10	4	SIC	555	ABS	1	0	24MC	0	1	2.02388501167	None	None	None	None	1
1.7	2015_Jul_23_0913	s	s	10	4	SIC	556	RC	2	0	23VC	1	0	0.45340514183	197.0	-226.0	202	-230	1
1.7	2015_Jul_23_0913	s	s	10	4	SIC	557	RC	2	1	23VO	1	0	0.51181602478	293.0	32.0	297	31	1
1.7	2015_Jul_23_0913	s	s	10	4	SIC	558	ABS	2	0	24VC	0	1	0.56435585022	None	None	None	None	1
1.7	2015_Jul_23_0913	s	s	10	4	SIC	559	RC	1	0	23MC	1	0	0.69384098053	-200.0	53.0	-205	54	1
1.7	2015_Jul_23_0913	s	s	10	4	SIC	560	ABS	2	2	24VD	0	1	0.535487890244	None	None	None	None	1
1.7	2015_Jul_23_0913	s	s	10	4	SIC	561	ABS	0	2	24RD	0	1	0.576170921326	None	None	None	None	1
1.7	2015_Jul_23_0913	s	s	10	4	SIC	562	RC	2	1	23VO	1	0	0.470220088959	-60.0	-108.0	-58	-107	1
1.7	2015_Jul_23_0913	s	s	10	4	SIC	563	ABS	2	1	24VO	0	1	0.665382862091	None	None	None	None	1
1.7	2015_Jul_23_0913	s	s	10	4	SIC	564	RC	0	1	23RO	0	1	1.81199502945	-336.0	-405.0	None	None	0
1.7	2015_Jul_23_0913	s	s	10	4	SIC	565	ABS	1	1	24MO	0	1	2.45461606979	None	None	None	None	1
1.7	2015_Jul_23_0913	s	s	10	4	SIC	566	ABS	1	0	24MC	0	1	2.63598895073	None	None	None	None	1
1.7	2015_Jul_23_0913	s	s	10	4	SIC	567	RC	1	0	23MC	1	0	0.497413158417	-73.0	-78.0	-76	-71	1
1.7	2015_Jul_23_0913	s	s	10	4	SIC	568	RC	2	2	23VD	1	0	0.514642000198	369.0	120.0	368	122	1
1.7	2015_Jul_23_0913	s	s	10	4	SIC	569	RC	0	2	23RD	1	0	0.676552057266	-399.0	-382.0	-397	-382	1
1.7	2015_Jul_23_0913	s	s	10	4	SIC	570	RC	1	2	23MD	1	0	0.446637153625	-364.0	-175.0	-364	-179	1
1.7	2015_Jul_23_0913	s	s	10	4	SIC	571	ABS	0	1	24RO	0	1	2.74570989609	None	None	None	None	1
1.7	2015_Jul_23_0913	s	s	10	4	SIC	572	ABS	1	2	24MD	0	1	0.788028001785	None	None	None	None	1
1.7	2015_Jul_23_0913	s	s	10	4	SIC	573	ABS	2	2	24VD	0	1	0.491250991821	None	None	None	None	1
1.7	2015_Jul_23_0913	s	s	10	4	SIC	574	RC	2	0	23VC	1	0	0.693862199783	-200.0	-130.0	-192	-134	1
1.7	2015_Jul_23_0913	s	s	10	4	SIC	575	RC	1	1	23MO	1	0	0.806217908859	122.0	37.0	127	32	1
1.7	2015_Jul_23_0913	s	s	10	4	SIC	576	ABS	2	0	24VC	0	1	0.549696922302	None	None	None	None	1
1.7	2015_Jul_23_0913	s	s	10	4	SIC	577	ABS	2	2	24VD	0	1	0.523857116699	None	None	None	None	1
1.7	2015_Jul_23_0913	s	s	10	4	SIC	578	RC	1	1	23MO	1	0	1.906208992	-362.0	400.0	-355	404	1
1.7	2015_Jul_23_0913	s	s	10	4	SIC	579	ABS	1	0	24MC	0	1	1.2587120533	None	None	None	None	1
1.7	2015_Jul_23_0913	s	s	10	4	SIC	580	ABS	1	2	24MD	0	1	0.646605014801	None	None	None	None	1
1.7	2015_Jul_23_0913	s	s	10	4	SIC	581	ABS	0	1	24RO	0	1	3.39296102524	None	None	None	None	1
1.7	2015_Jul_23_0913	s	s	10	4	SIC	582	ABS	2	0	24VC	0	1	0.774360895157	None	None	None	None	1
1.7	2015_Jul_23_0913	s	s	10	4	SIC	583	RC	0	1	23RO	0	1	3.67882514	-301.0	78.0	None	None	0
1.7	2015_Jul_23_0913	s	s	10	4	SIC	584	RC	1	0	23MC	0	1	2.05659389496	514.0	332.0	None	None	0
1.7	2015_Jul_23_0913	s	s	10	4	SIC	585	RC	2	1	23VO	1	0	0.584297895432	-394.0	-5.0	-390	-5	1
1.7	2015_Jul_23_0913	s	s	10	4	SIC	586	ABS	0	2	24RD	0	1	0.63010597229	None	None	None	None	1
1.7	2015_Jul_23_0913	s	s	10	4	SIC	587	ABS	1	1	24MO	0	1	1.46557688713	None	None	None	None	1
1.7	2015_Jul_23_0913	s	s	10	4	SIC	588	RC	0	2	23RD	1	0	0.611418962479	-150.0	-245.0	-147	-244	1
1.7	2015_Jul_23_0913	s	s	10	4	SIC	589	RC	2	2	23VD	1	0	0.548940181732	-244.0	-133.0	-243	-135	1
1.7	2015_Jul_23_0913	s	s	10	4	SIC	590	RC	1	2	23MD	1	0	0.858570098877	91.0	366.0	98	371	1
1.7	2015_Jul_23_0913	s	s	10	4	SIC	591	RC	2	0	23VC	1	0	0.552533149719	-219.0	405.0	-209	403	1
1.7	2015_Jul_23_0913	s	s	10	4	SIC	592	ABS	2	1	24VO	0	1	0.687427997589	None	None	None	None	1
