Version	Date	Stimuli	Method	Subject	Session	Condition	Trial	Target	Channel1	Channel2	Distractors	LMouseButton	RMouseButton	RT	TargetX	TargetY	ResponseX	ResponseY	Correct
1.7	2015_Jul_21_0910	s	s	10	2	Capacity	1	RC	0	2	23RD	1	0	0.736100196838	-20.0	255.0	-16	254	1
1.7	2015_Jul_21_0910	s	s	10	2	Capacity	2	ABS	0	2	24RD	0	1	2.39497089386	None	None	None	None	1
1.7	2015_Jul_21_0910	s	s	10	2	Capacity	3	ABS	0	1	24RO	0	1	5.83266401291	None	None	None	None	1
1.7	2015_Jul_21_0910	s	s	10	2	Capacity	4	RC	0	1	23RO	0	1	5.92569804192	196.0	100.0	None	None	0
1.7	2015_Jul_21_0910	s	s	10	2	Capacity	5	RC	0	2	23RD	1	0	0.891144037247	-387.0	-384.0	-389	-381	1
1.7	2015_Jul_21_0910	s	s	10	2	Capacity	6	ABS	0	2	24RD	0	1	1.74829697609	None	None	None	None	1
1.7	2015_Jul_21_0910	s	s	10	2	Capacity	7	RC	0	1	23RO	1	0	5.93181490898	-130.0	-252.0	-119	-249	1
1.7	2015_Jul_21_0910	s	s	10	2	Capacity	8	ABS	0	1	24RO	0	1	5.19016814232	None	None	None	None	1
1.7	2015_Jul_21_0910	s	s	10	2	Capacity	9	ABS	0	1	24RO	0	1	4.25226807594	None	None	None	None	1
1.7	2015_Jul_21_0910	s	s	10	2	Capacity	10	RC	0	2	23RD	1	0	0.705649137497	-174.0	306.0	-173	301	1
1.7	2015_Jul_21_0910	s	s	10	2	Capacity	11	ABS	0	2	24RD	1	0	0.0759720802307	None	None	-200	364	0
1.7	2015_Jul_21_0910	s	s	10	2	Capacity	12	RC	0	1	23RO	0	1	6.03771305084	182.0	247.0	None	None	0
1.7	2015_Jul_21_0910	s	s	10	2	Capacity	13	ABS	0	1	24RO	0	1	5.99655985832	None	None	None	None	1
1.7	2015_Jul_21_0910	s	s	10	2	Capacity	14	RC	0	2	23RD	1	0	0.903035163879	-145.0	311.0	-143	309	1
1.7	2015_Jul_21_0910	s	s	10	2	Capacity	15	RC	0	1	23RO	1	0	3.90719413757	-297.0	268.0	-293	272	1
1.7	2015_Jul_21_0910	s	s	10	2	Capacity	16	ABS	0	2	24RD	0	1	2.20048522949	None	None	None	None	1
1.7	2015_Jul_21_0910	s	s	10	2	Capacity	17	ABS	0	2	24RD	0	1	2.89491009712	None	None	None	None	1
1.7	2015_Jul_21_0910	s	s	10	2	Capacity	18	RC	0	1	23RO	0	1	5.22049593925	401.0	-332.0	None	None	0
1.7	2015_Jul_21_0910	s	s	10	2	Capacity	19	RC	0	2	23RD	1	0	0.764479875565	-402.0	331.0	-404	321	1
1.7	2015_Jul_21_0910	s	s	10	2	Capacity	20	ABS	0	1	24RO	0	1	5.27015900612	None	None	None	None	1
1.7	2015_Jul_21_0910	s	s	10	2	Capacity	21	RC	0	2	23RD	1	0	0.796720027924	298.0	-178.0	303	-174	1
1.7	2015_Jul_21_0910	s	s	10	2	Capacity	22	ABS	0	2	24RD	0	1	4.16621899605	None	None	None	None	1
1.7	2015_Jul_21_0910	s	s	10	2	Capacity	23	ABS	0	1	24RO	0	1	6.01784801483	None	None	None	None	1
1.7	2015_Jul_21_0910	s	s	10	2	Capacity	24	RC	0	1	23RO	0	1	3.63360977173	-137.0	-379.0	None	None	0
1.7	2015_Jul_21_0910	s	s	10	2	Capacity	25	RC	0	2	23RD	1	0	0.726712942123	-25.0	-313.0	-21	-306	1
1.7	2015_Jul_21_0910	s	s	10	2	Capacity	26	ABS	0	2	24RD	0	1	1.80937409401	None	None	None	None	1
1.7	2015_Jul_21_0910	s	s	10	2	Capacity	27	ABS	0	1	24RO	0	1	4.04503202438	None	None	None	None	1
1.7	2015_Jul_21_0910	s	s	10	2	Capacity	28	RC	0	1	23RO	1	0	3.91418290138	242.0	34.0	242	44	1
1.7	2015_Jul_21_0910	s	s	10	2	Capacity	29	ABS	0	2	24RD	0	1	1.37151503563	None	None	None	None	1
1.7	2015_Jul_21_0910	s	s	10	2	Capacity	30	ABS	0	1	24RO	0	1	6.8498840332	None	None	None	None	1
1.7	2015_Jul_21_0910	s	s	10	2	Capacity	31	RC	0	2	23RD	1	0	0.858700037003	394.0	124.0	396	127	1
1.7	2015_Jul_21_0910	s	s	10	2	Capacity	32	RC	0	1	23RO	1	0	3.00090193748	381.0	-101.0	385	-93	1
1.7	2015_Jul_21_0910	s	s	10	2	Capacity	33	RC	0	2	23RD	1	0	1.43079519272	170.0	53.0	180	55	1
1.7	2015_Jul_21_0910	s	s	10	2	Capacity	34	RC	0	1	23RO	0	1	9.09243297577	-526.0	204.0	None	None	0
1.7	2015_Jul_21_0910	s	s	10	2	Capacity	35	ABS	0	2	24RD	0	1	2.73014998436	None	None	None	None	1
1.7	2015_Jul_21_0910	s	s	10	2	Capacity	36	ABS	0	1	24RO	0	1	6.06124615669	None	None	None	None	1
1.7	2015_Jul_21_0910	s	s	10	2	Capacity	37	RC	0	2	23RD	1	0	1.03027701378	171.0	405.0	170	403	1
1.7	2015_Jul_21_0910	s	s	10	2	Capacity	38	RC	0	1	23RO	1	0	1.66588377953	-370.0	-328.0	-365	-326	1
1.7	2015_Jul_21_0910	s	s	10	2	Capacity	39	ABS	0	2	24RD	0	1	1.15965104103	None	None	None	None	1
1.7	2015_Jul_21_0910	s	s	10	2	Capacity	40	ABS	0	1	24RO	0	1	7.52065491676	None	None	None	None	1
1.7	2015_Jul_21_0910	s	s	10	2	Capacity	41	ABS	0	2	24RD	0	1	1.91493010521	None	None	None	None	1
1.7	2015_Jul_21_0910	s	s	10	2	Capacity	42	RC	0	1	23RO	0	1	5.62569689751	329.0	-372.0	None	None	0
1.7	2015_Jul_21_0910	s	s	10	2	Capacity	43	RC	0	2	23RD	1	0	0.819246053696	-356.0	7.0	-349	8	1
1.7	2015_Jul_21_0910	s	s	10	2	Capacity	44	ABS	0	1	24RO	0	1	6.2731449604	None	None	None	None	1
1.7	2015_Jul_21_0910	s	s	10	2	Capacity	45	RC	0	1	23RO	0	1	5.04899215698	-92.0	40.0	None	None	0
1.7	2015_Jul_21_0910	s	s	10	2	Capacity	46	ABS	0	1	24RO	0	1	4.98451709747	None	None	None	None	1
1.7	2015_Jul_21_0910	s	s	10	2	Capacity	47	ABS	0	2	24RD	0	1	2.13680481911	None	None	None	None	1
1.7	2015_Jul_21_0910	s	s	10	2	Capacity	48	RC	0	2	23RD	1	0	0.858773946762	135.0	-121.0	130	-128	1
1.7	2015_Jul_21_0910	s	s	10	2	Capacity	49	RC	0	2	23RD	1	0	0.858625888824	-268.0	-53.0	-260	-49	1
1.7	2015_Jul_21_0910	s	s	10	2	Capacity	50	RC	0	1	23RO	1	0	3.34877800941	508.0	375.0	512	369	1
1.7	2015_Jul_21_0910	s	s	10	2	Capacity	51	ABS	0	2	24RD	0	1	1.91793107986	None	None	None	None	1
1.7	2015_Jul_21_0910	s	s	10	2	Capacity	52	ABS	0	1	24RO	0	1	4.60832190514	None	None	None	None	1
1.7	2015_Jul_21_0910	s	s	10	2	Capacity	53	RC	0	2	23RD	1	0	0.702450037003	-518.0	-121.0	-521	-114	1
1.7	2015_Jul_21_0910	s	s	10	2	Capacity	54	ABS	0	1	24RO	0	1	4.17554497719	None	None	None	None	1
1.7	2015_Jul_21_0910	s	s	10	2	Capacity	55	ABS	0	2	24RD	0	1	1.72714805603	None	None	None	None	1
1.7	2015_Jul_21_0910	s	s	10	2	Capacity	56	RC	0	1	23RO	1	0	3.66005301476	-505.0	349.0	-507	343	1
1.7	2015_Jul_21_0910	s	s	10	2	Capacity	57	RC	0	1	23RO	1	0	1.90627193451	-88.0	-291.0	-78	-290	1
1.7	2015_Jul_21_0910	s	s	10	2	Capacity	58	ABS	0	2	24RD	0	1	1.47071099281	None	None	None	None	1
1.7	2015_Jul_21_0910	s	s	10	2	Capacity	59	ABS	0	1	24RO	0	1	4.76378703117	None	None	None	None	1
1.7	2015_Jul_21_0910	s	s	10	2	Capacity	60	RC	0	2	23RD	1	0	0.729193925858	-163.0	284.0	-162	284	1
1.7	2015_Jul_21_0910	s	s	10	2	Capacity	61	ABS	0	2	24RD	0	1	1.00647521019	None	None	None	None	1
1.7	2015_Jul_21_0910	s	s	10	2	Capacity	62	RC	0	1	23RO	0	1	6.09163379669	444.0	-192.0	None	None	0
1.7	2015_Jul_21_0910	s	s	10	2	Capacity	63	ABS	0	1	24RO	0	1	5.99056005478	None	None	None	None	1
1.7	2015_Jul_21_0910	s	s	10	2	Capacity	64	RC	0	2	23RD	1	0	0.893980026245	-81.0	393.0	-84	396	1
1.7	2015_Jul_21_0910	s	s	10	2	Capacity	65	ABS	0	2	24RD	0	1	3.1658449173	None	None	None	None	1
1.7	2015_Jul_21_0910	s	s	10	2	Capacity	66	RC	0	2	23RD	1	0	2.05432701111	265.0	-146.0	272	-144	1
1.7	2015_Jul_21_0910	s	s	10	2	Capacity	67	ABS	0	1	24RO	0	1	12.0968911648	None	None	None	None	1
1.7	2015_Jul_21_0910	s	s	10	2	Capacity	68	RC	0	1	23RO	0	1	5.8218100071	395.0	-306.0	None	None	0
1.7	2015_Jul_21_0910	s	s	10	2	Capacity	69	ABS	0	2	24RD	0	1	1.41873216629	None	None	None	None	1
1.7	2015_Jul_21_0910	s	s	10	2	Capacity	70	ABS	0	1	24RO	0	1	6.03177404404	None	None	None	None	1
1.7	2015_Jul_21_0910	s	s	10	2	Capacity	71	RC	0	2	23RD	1	0	0.994903087616	-525.0	-196.0	-524	-197	1
1.7	2015_Jul_21_0910	s	s	10	2	Capacity	72	RC	0	1	23RO	0	1	3.98965096474	-500.0	82.0	None	None	0
1.7	2015_Jul_21_0910	s	s	10	2	Capacity	73	RC	0	1	23RO	1	0	4.1958220005	-311.0	266.0	-308	268	1
1.7	2015_Jul_21_0910	s	s	10	2	Capacity	74	ABS	0	2	24RD	0	1	2.07097291946	None	None	None	None	1
1.7	2015_Jul_21_0910	s	s	10	2	Capacity	75	ABS	0	1	24RO	0	1	5.78445696831	None	None	None	None	1
1.7	2015_Jul_21_0910	s	s	10	2	Capacity	76	RC	0	2	23RD	1	0	1.55895400047	414.0	-344.0	415	-346	1
1.7	2015_Jul_21_0910	s	s	10	2	Capacity	77	ABS	0	1	24RO	0	1	2.33400511742	None	None	None	None	1
1.7	2015_Jul_21_0910	s	s	10	2	Capacity	78	RC	0	2	23RD	1	0	0.741265058517	236.0	-1.0	248	4	1
1.7	2015_Jul_21_0910	s	s	10	2	Capacity	79	RC	0	1	23RO	0	1	5.02296614647	-410.0	-52.0	None	None	0
1.7	2015_Jul_21_0910	s	s	10	2	Capacity	80	ABS	0	2	24RD	0	1	1.79225206375	None	None	None	None	1
1.7	2015_Jul_21_0910	s	s	10	2	Capacity	81	RC	0	1	23RO	1	0	2.62420201302	-238.0	277.0	-233	277	1
1.7	2015_Jul_21_0910	s	s	10	2	Capacity	82	ABS	0	1	24RO	0	1	5.76699399948	None	None	None	None	1
1.7	2015_Jul_21_0910	s	s	10	2	Capacity	83	ABS	0	2	24RD	0	1	1.2235429287	None	None	None	None	1
1.7	2015_Jul_21_0910	s	s	10	2	Capacity	84	RC	0	2	23RD	1	0	0.788033008575	328.0	-58.0	327	-64	1
1.7	2015_Jul_21_0910	s	s	10	2	Capacity	85	RC	0	1	23RO	1	0	6.80855703354	-108.0	263.0	-104	264	1
1.7	2015_Jul_21_0910	s	s	10	2	Capacity	86	ABS	0	2	24RD	0	1	1.51229190826	None	None	None	None	1
1.7	2015_Jul_21_0910	s	s	10	2	Capacity	87	ABS	0	1	24RO	0	1	5.20241904259	None	None	None	None	1
1.7	2015_Jul_21_0910	s	s	10	2	Capacity	88	RC	0	2	23RD	1	0	0.88218998909	377.0	-281.0	374	-285	1
1.7	2015_Jul_21_0910	s	s	10	2	Capacity	89	RC	0	2	23RD	1	0	0.964600086212	424.0	-305.0	427	-303	1
1.7	2015_Jul_21_0910	s	s	10	2	Capacity	90	RC	0	1	23RO	1	0	2.63605999947	-384.0	-398.0	-389	-401	1
1.7	2015_Jul_21_0910	s	s	10	2	Capacity	91	ABS	0	1	24RO	0	1	5.89659309387	None	None	None	None	1
1.7	2015_Jul_21_0910	s	s	10	2	Capacity	92	ABS	0	2	24RD	0	1	1.78333806992	None	None	None	None	1
1.7	2015_Jul_21_0910	s	s	10	2	Capacity	1	ABS	1	0	24MC	0	1	3.87191700935	None	None	None	None	1
1.7	2015_Jul_21_0910	s	s	10	2	Capacity	2	RC	2	0	23VC	1	0	1.30241799355	-123.0	-342.0	-123	-335	1
1.7	2015_Jul_21_0910	s	s	10	2	Capacity	3	RC	1	0	23MC	1	0	1.20578193665	-86.0	-268.0	-90	-264	1
1.7	2015_Jul_21_0910	s	s	10	2	Capacity	4	ABS	2	0	24VC	0	1	1.27906703949	None	None	None	None	1
1.7	2015_Jul_21_0910	s	s	10	2	Capacity	5	RC	2	0	23VC	1	0	0.835041999817	89.0	216.0	99	223	1
1.7	2015_Jul_21_0910	s	s	10	2	Capacity	6	ABS	1	0	24MC	0	1	7.4922170639	None	None	None	None	1
1.7	2015_Jul_21_0910	s	s	10	2	Capacity	7	ABS	2	0	24VC	0	1	1.96534204483	None	None	None	None	1
1.7	2015_Jul_21_0910	s	s	10	2	Capacity	8	RC	1	0	23MC	1	0	6.3516728878	-442.0	371.0	-444	371	1
1.7	2015_Jul_21_0910	s	s	10	2	Capacity	9	ABS	1	0	24MC	0	1	8.38608789444	None	None	None	None	1
1.7	2015_Jul_21_0910	s	s	10	2	Capacity	10	ABS	2	0	24VC	0	1	1.34142494202	None	None	None	None	1
1.7	2015_Jul_21_0910	s	s	10	2	Capacity	11	RC	2	0	23VC	1	0	0.914746999741	-211.0	68.0	-214	77	1
1.7	2015_Jul_21_0910	s	s	10	2	Capacity	12	RC	1	0	23MC	1	0	9.51849389076	-484.0	383.0	-480	378	1
1.7	2015_Jul_21_0910	s	s	10	2	Capacity	13	RC	1	0	23MC	1	0	7.06931591034	374.0	91.0	370	84	1
1.7	2015_Jul_21_0910	s	s	10	2	Capacity	14	ABS	2	0	24VC	0	1	1.65908694267	None	None	None	None	1
1.7	2015_Jul_21_0910	s	s	10	2	Capacity	15	ABS	1	0	24MC	0	1	15.1104619503	None	None	None	None	1
1.7	2015_Jul_21_0910	s	s	10	2	Capacity	16	RC	2	0	23VC	1	0	0.865114927292	110.0	404.0	112	396	1
1.7	2015_Jul_21_0910	s	s	10	2	Capacity	17	ABS	2	0	24VC	0	1	1.10583901405	None	None	None	None	1
1.7	2015_Jul_21_0910	s	s	10	2	Capacity	18	RC	2	0	23VC	1	0	0.949620008469	-104.0	-247.0	-102	-257	1
1.7	2015_Jul_21_0910	s	s	10	2	Capacity	19	ABS	1	0	24MC	0	1	15.7546880245	None	None	None	None	1
1.7	2015_Jul_21_0910	s	s	10	2	Capacity	20	RC	1	0	23MC	0	1	16.6078839302	-273.0	307.0	None	None	0
1.7	2015_Jul_21_0910	s	s	10	2	Capacity	21	ABS	1	0	24MC	0	1	11.6702110767	None	None	None	None	1
1.7	2015_Jul_21_0910	s	s	10	2	Capacity	22	RC	2	0	23VC	1	0	0.831828117371	518.0	79.0	517	74	1
1.7	2015_Jul_21_0910	s	s	10	2	Capacity	23	RC	1	0	23MC	1	0	13.4179170132	241.0	305.0	239	297	1
1.7	2015_Jul_21_0910	s	s	10	2	Capacity	24	ABS	2	0	24VC	0	1	1.12689304352	None	None	None	None	1
1.7	2015_Jul_21_0910	s	s	10	2	Capacity	25	ABS	2	0	24VC	0	1	1.1620631218	None	None	None	None	1
1.7	2015_Jul_21_0910	s	s	10	2	Capacity	26	RC	2	0	23VC	1	0	1.17644309998	-290.0	-127.0	-286	-123	1
1.7	2015_Jul_21_0910	s	s	10	2	Capacity	27	ABS	1	0	24MC	0	1	11.5584149361	None	None	None	None	1
1.7	2015_Jul_21_0910	s	s	10	2	Capacity	28	RC	1	0	23MC	1	0	8.45433211327	-537.0	-160.0	-539	-158	1
1.7	2015_Jul_21_0910	s	s	10	2	Capacity	29	RC	1	0	23MC	0	1	6.88016200066	-102.0	117.0	None	None	0
1.7	2015_Jul_21_0910	s	s	10	2	Capacity	30	ABS	2	0	24VC	0	1	1.57199192047	None	None	None	None	1
1.7	2015_Jul_21_0910	s	s	10	2	Capacity	31	ABS	1	0	24MC	0	1	6.8697988987	None	None	None	None	1
1.7	2015_Jul_21_0910	s	s	10	2	Capacity	32	RC	2	0	23VC	1	0	1.83029389381	-280.0	91.0	-284	85	1
1.7	2015_Jul_21_0910	s	s	10	2	Capacity	33	ABS	2	0	24VC	0	1	1.64732289314	None	None	None	None	1
1.7	2015_Jul_21_0910	s	s	10	2	Capacity	34	RC	2	0	23VC	1	0	1.00779891014	-508.0	149.0	-496	154	1
1.7	2015_Jul_21_0910	s	s	10	2	Capacity	35	ABS	1	0	24MC	0	1	4.42528104782	None	None	None	None	1
1.7	2015_Jul_21_0910	s	s	10	2	Capacity	36	RC	1	0	23MC	0	1	6.48496603966	357.0	180.0	None	None	0
1.7	2015_Jul_21_0910	s	s	10	2	Capacity	37	ABS	1	0	24MC	0	1	13.3237199783	None	None	None	None	1
1.7	2015_Jul_21_0910	s	s	10	2	Capacity	38	ABS	2	0	24VC	0	1	1.0530269146	None	None	None	None	1
1.7	2015_Jul_21_0910	s	s	10	2	Capacity	39	RC	1	0	23MC	0	1	3.47846412659	434.0	334.0	None	None	0
1.7	2015_Jul_21_0910	s	s	10	2	Capacity	40	RC	2	0	23VC	1	0	0.806303977966	204.0	-105.0	205	-99	1
1.7	2015_Jul_21_0910	s	s	10	2	Capacity	41	ABS	2	0	24VC	0	1	0.976281881332	None	None	None	None	1
1.7	2015_Jul_21_0910	s	s	10	2	Capacity	42	RC	2	0	23VC	1	0	0.750236988068	393.0	253.0	386	257	1
1.7	2015_Jul_21_0910	s	s	10	2	Capacity	43	RC	1	0	23MC	0	1	14.5595879555	359.0	411.0	None	None	0
1.7	2015_Jul_21_0910	s	s	10	2	Capacity	44	ABS	1	0	24MC	0	1	4.94071722031	None	None	None	None	1
1.7	2015_Jul_21_0910	s	s	10	2	Capacity	45	ABS	2	0	24VC	0	1	1.12938904762	None	None	None	None	1
1.7	2015_Jul_21_0910	s	s	10	2	Capacity	46	RC	2	0	23VC	1	0	0.97078704834	-75.0	294.0	-64	301	1
1.7	2015_Jul_21_0910	s	s	10	2	Capacity	47	RC	1	0	23MC	1	0	8.65078997612	111.0	-191.0	115	-191	1
1.7	2015_Jul_21_0910	s	s	10	2	Capacity	48	ABS	1	0	24MC	0	1	6.43807983398	None	None	None	None	1
1.7	2015_Jul_21_0910	s	s	10	2	Capacity	49	RC	1	0	23MC	0	1	3.51620292664	333.0	162.0	None	None	0
1.7	2015_Jul_21_0910	s	s	10	2	Capacity	50	ABS	2	0	24VC	0	1	1.02085804939	None	None	None	None	1
1.7	2015_Jul_21_0910	s	s	10	2	Capacity	51	ABS	1	0	24MC	0	1	2.48859786987	None	None	None	None	1
1.7	2015_Jul_21_0910	s	s	10	2	Capacity	52	RC	2	0	23VC	1	0	0.782313108444	120.0	149.0	112	154	1
1.7	2015_Jul_21_0910	s	s	10	2	Capacity	53	ABS	2	0	24VC	0	1	0.772912979126	None	None	None	None	1
1.7	2015_Jul_21_0910	s	s	10	2	Capacity	54	RC	2	0	23VC	1	0	1.00827693939	300.0	404.0	307	397	1
1.7	2015_Jul_21_0910	s	s	10	2	Capacity	55	RC	1	0	23MC	1	0	2.0912361145	-515.0	131.0	-523	133	1
1.7	2015_Jul_21_0910	s	s	10	2	Capacity	56	ABS	1	0	24MC	0	1	6.8819642067	None	None	None	None	1
1.7	2015_Jul_21_0910	s	s	10	2	Capacity	57	ABS	1	0	24MC	0	1	3.05975794792	None	None	None	None	1
1.7	2015_Jul_21_0910	s	s	10	2	Capacity	58	RC	2	0	23VC	1	0	0.741240024567	272.0	-157.0	269	-161	1
1.7	2015_Jul_21_0910	s	s	10	2	Capacity	59	ABS	2	0	24VC	0	1	0.912705183029	None	None	None	None	1
1.7	2015_Jul_21_0910	s	s	10	2	Capacity	60	RC	1	0	23MC	1	0	11.7769958973	-212.0	83.0	-208	81	1
1.7	2015_Jul_21_0910	s	s	10	2	Capacity	61	RC	2	0	23VC	1	0	0.98332285881	-231.0	-399.0	-227	-402	1
1.7	2015_Jul_21_0910	s	s	10	2	Capacity	62	RC	1	0	23MC	0	1	5.53157806396	513.0	88.0	None	None	0
1.7	2015_Jul_21_0910	s	s	10	2	Capacity	63	ABS	1	0	24MC	0	1	2.86749982834	None	None	None	None	1
1.7	2015_Jul_21_0910	s	s	10	2	Capacity	64	ABS	2	0	24VC	0	1	1.18869113922	None	None	None	None	1
1.7	2015_Jul_21_0910	s	s	10	2	Capacity	65	ABS	1	0	24MC	0	1	7.34788703918	None	None	None	None	1
1.7	2015_Jul_21_0910	s	s	10	2	Capacity	66	RC	2	0	23VC	1	0	0.847268104553	339.0	-50.0	340	-48	1
1.7	2015_Jul_21_0910	s	s	10	2	Capacity	67	RC	1	0	23MC	0	1	6.48218488693	73.0	-62.0	None	None	0
1.7	2015_Jul_21_0910	s	s	10	2	Capacity	68	ABS	2	0	24VC	0	1	1.64738297462	None	None	None	None	1
1.7	2015_Jul_21_0910	s	s	10	2	Capacity	69	ABS	2	0	24VC	0	1	1.55861592293	None	None	None	None	1
1.7	2015_Jul_21_0910	s	s	10	2	Capacity	70	RC	2	0	23VC	1	0	0.776658058167	141.0	-374.0	138	-372	1
1.7	2015_Jul_21_0910	s	s	10	2	Capacity	71	ABS	1	0	24MC	0	1	12.7587888241	None	None	None	None	1
1.7	2015_Jul_21_0910	s	s	10	2	Capacity	72	RC	1	0	23MC	1	0	11.2824499607	465.0	-371.0	-533	-368	0
1.7	2015_Jul_21_0910	s	s	10	2	Capacity	73	RC	1	0	23MC	0	1	6.99111700058	-485.0	-147.0	None	None	0
1.7	2015_Jul_21_0910	s	s	10	2	Capacity	74	ABS	2	0	24VC	0	1	0.811553001404	None	None	None	None	1
1.7	2015_Jul_21_0910	s	s	10	2	Capacity	75	ABS	1	0	24MC	0	1	18.9972710609	None	None	None	None	1
1.7	2015_Jul_21_0910	s	s	10	2	Capacity	76	RC	2	0	23VC	1	0	2.69039011002	-221.0	-214.0	-223	-212	1
1.7	2015_Jul_21_0910	s	s	10	2	Capacity	77	RC	2	0	23VC	1	0	0.714112043381	158.0	-338.0	159	-343	1
1.7	2015_Jul_21_0910	s	s	10	2	Capacity	78	RC	1	0	23MC	0	1	4.69588088989	-408.0	-343.0	None	None	0
1.7	2015_Jul_21_0910	s	s	10	2	Capacity	79	ABS	1	0	24MC	0	1	4.47584009171	None	None	None	None	1
1.7	2015_Jul_21_0910	s	s	10	2	Capacity	80	ABS	2	0	24VC	0	1	1.39510297775	None	None	None	None	1
1.7	2015_Jul_21_0910	s	s	10	2	Capacity	81	ABS	2	0	24VC	0	1	1.63098692894	None	None	None	None	1
1.7	2015_Jul_21_0910	s	s	10	2	Capacity	82	RC	1	0	23MC	0	1	2.2946190834	-285.0	-116.0	None	None	0
1.7	2015_Jul_21_0910	s	s	10	2	Capacity	83	ABS	1	0	24MC	0	1	2.79819512367	None	None	None	None	1
1.7	2015_Jul_21_0910	s	s	10	2	Capacity	84	RC	2	0	23VC	1	0	0.806659936905	-447.0	151.0	-446	154	1
1.7	2015_Jul_21_0910	s	s	10	2	Capacity	85	RC	1	0	23MC	0	1	5.00733995438	-179.0	195.0	None	None	0
1.7	2015_Jul_21_0910	s	s	10	2	Capacity	86	ABS	2	0	24VC	0	1	1.27777886391	None	None	None	None	1
1.7	2015_Jul_21_0910	s	s	10	2	Capacity	87	RC	2	0	23VC	1	0	0.705721855164	-324.0	-15.0	-323	-17	1
1.7	2015_Jul_21_0910	s	s	10	2	Capacity	88	ABS	1	0	24MC	0	1	2.67499804497	None	None	None	None	1
1.7	2015_Jul_21_0910	s	s	10	2	Capacity	89	RC	2	0	23VC	1	0	0.770607948303	-508.0	-287.0	-508	-292	1
1.7	2015_Jul_21_0910	s	s	10	2	Capacity	90	ABS	2	0	24VC	0	1	1.45571708679	None	None	None	None	1
1.7	2015_Jul_21_0910	s	s	10	2	Capacity	91	RC	1	0	23MC	0	1	6.35201120377	185.0	-194.0	None	None	0
1.7	2015_Jul_21_0910	s	s	10	2	Capacity	92	ABS	1	0	24MC	0	1	6.2730679512	None	None	None	None	1
1.7	2015_Jul_21_0910	s	s	10	2	SIC	1	RC	1	1	23MO	1	0	1.29398989677	-13.0	-67.0	-6	-73	1
1.7	2015_Jul_21_0910	s	s	10	2	SIC	2	RC	1	0	23MC	1	0	8.84529185295	-501.0	9.0	-504	1	1
1.7	2015_Jul_21_0910	s	s	10	2	SIC	3	ABS	0	2	24RD	0	1	1.10313391685	None	None	None	None	1
1.7	2015_Jul_21_0910	s	s	10	2	SIC	4	ABS	1	0	24MC	0	1	19.4749960899	None	None	None	None	1
1.7	2015_Jul_21_0910	s	s	10	2	SIC	5	RC	2	1	23VO	1	0	0.67022395134	-143.0	-380.0	-142	-388	1
1.7	2015_Jul_21_0910	s	s	10	2	SIC	6	ABS	2	2	24VD	0	1	0.693876981735	None	None	None	None	1
1.7	2015_Jul_21_0910	s	s	10	2	SIC	7	ABS	0	1	24RO	0	1	4.51446700096	None	None	None	None	1
1.7	2015_Jul_21_0910	s	s	10	2	SIC	8	ABS	1	1	24MO	0	1	5.17653489113	None	None	None	None	1
1.7	2015_Jul_21_0910	s	s	10	2	SIC	9	RC	0	2	23RD	1	0	0.723509073257	-69.0	-107.0	-65	-102	1
1.7	2015_Jul_21_0910	s	s	10	2	SIC	10	ABS	2	1	24VO	0	1	1.79527401924	None	None	None	None	1
1.7	2015_Jul_21_0910	s	s	10	2	SIC	11	ABS	1	2	24MD	0	1	1.32558107376	None	None	None	None	1
1.7	2015_Jul_21_0910	s	s	10	2	SIC	12	RC	2	2	23VD	1	0	0.670316934586	501.0	-83.0	501	-85	1
1.7	2015_Jul_21_0910	s	s	10	2	SIC	13	ABS	2	0	24VC	0	1	1.60848116875	None	None	None	None	1
1.7	2015_Jul_21_0910	s	s	10	2	SIC	14	RC	0	1	23RO	0	1	7.44729304314	-443.0	-273.0	None	None	0
1.7	2015_Jul_21_0910	s	s	10	2	SIC	15	RC	2	0	23VC	1	0	0.540845870972	520.0	117.0	513	118	1
1.7	2015_Jul_21_0910	s	s	10	2	SIC	16	RC	1	2	23MD	1	0	0.587959051132	2.0	206.0	4	202	1
1.7	2015_Jul_21_0910	s	s	10	2	SIC	17	RC	0	1	23RO	1	0	1.83296298981	-20.0	-89.0	-18	-94	1
1.7	2015_Jul_21_0910	s	s	10	2	SIC	18	ABS	2	2	24VD	0	1	1.80936813354	None	None	None	None	1
1.7	2015_Jul_21_0910	s	s	10	2	SIC	19	RC	0	2	23RD	1	0	0.80724978447	6.0	-389.0	9	-391	1
1.7	2015_Jul_21_0910	s	s	10	2	SIC	20	ABS	1	0	24MC	0	1	18.6265900135	None	None	None	None	1
1.7	2015_Jul_21_0910	s	s	10	2	SIC	21	RC	2	1	23VO	1	0	2.34184598923	66.0	104.0	68	106	1
1.7	2015_Jul_21_0910	s	s	10	2	SIC	22	RC	1	1	23MO	1	0	2.91266703606	52.0	127.0	57	122	1
1.7	2015_Jul_21_0910	s	s	10	2	SIC	23	RC	1	2	23MD	1	0	1.05314803123	380.0	237.0	386	241	1
1.7	2015_Jul_21_0910	s	s	10	2	SIC	24	RC	2	2	23VD	1	0	0.597051143646	187.0	-164.0	186	-172	1
1.7	2015_Jul_21_0910	s	s	10	2	SIC	25	ABS	0	2	24RD	0	1	1.82382392883	None	None	None	None	1
1.7	2015_Jul_21_0910	s	s	10	2	SIC	26	ABS	1	2	24MD	0	1	1.31769108772	None	None	None	None	1
1.7	2015_Jul_21_0910	s	s	10	2	SIC	27	RC	2	0	23VC	1	0	0.691320180893	407.0	-260.0	414	-258	1
1.7	2015_Jul_21_0910	s	s	10	2	SIC	28	ABS	2	1	24VO	0	1	1.51459217072	None	None	None	None	1
1.7	2015_Jul_21_0910	s	s	10	2	SIC	29	RC	1	0	23MC	1	0	2.00035309792	320.0	-128.0	322	-128	1
1.7	2015_Jul_21_0910	s	s	10	2	SIC	30	ABS	0	1	24RO	0	1	5.07239794731	None	None	None	None	1
1.7	2015_Jul_21_0910	s	s	10	2	SIC	31	ABS	1	1	24MO	0	1	4.56075382233	None	None	None	None	1
1.7	2015_Jul_21_0910	s	s	10	2	SIC	32	ABS	2	0	24VC	0	1	0.994266033173	None	None	None	None	1
1.7	2015_Jul_21_0910	s	s	10	2	SIC	33	ABS	1	0	24MC	0	1	4.30507397652	None	None	None	None	1
1.7	2015_Jul_21_0910	s	s	10	2	SIC	34	RC	1	2	23MD	1	0	0.846837997437	17.0	-317.0	22	-323	1
1.7	2015_Jul_21_0910	s	s	10	2	SIC	35	RC	0	1	23RO	0	1	6.79101896286	-66.0	-356.0	None	None	0
1.7	2015_Jul_21_0910	s	s	10	2	SIC	36	RC	2	0	23VC	1	0	0.705476999283	-55.0	192.0	-50	187	1
1.7	2015_Jul_21_0910	s	s	10	2	SIC	37	ABS	2	1	24VO	0	1	1.06610298157	None	None	None	None	1
1.7	2015_Jul_21_0910	s	s	10	2	SIC	38	RC	1	0	23MC	0	1	9.55184078217	-272.0	-407.0	None	None	0
1.7	2015_Jul_21_0910	s	s	10	2	SIC	39	ABS	2	2	24VD	0	1	0.828643083572	None	None	None	None	1
1.7	2015_Jul_21_0910	s	s	10	2	SIC	40	RC	0	2	23RD	1	0	1.02328896523	467.0	139.0	469	134	1
1.7	2015_Jul_21_0910	s	s	10	2	SIC	41	RC	2	1	23VO	1	0	0.617469072342	-16.0	65.0	-14	59	1
1.7	2015_Jul_21_0910	s	s	10	2	SIC	42	RC	1	1	23MO	1	0	1.97688388824	-55.0	-170.0	-54	-173	1
1.7	2015_Jul_21_0910	s	s	10	2	SIC	43	ABS	0	2	24RD	0	1	0.787981033325	None	None	None	None	1
1.7	2015_Jul_21_0910	s	s	10	2	SIC	44	ABS	2	0	24VC	0	1	0.761579990387	None	None	None	None	1
1.7	2015_Jul_21_0910	s	s	10	2	SIC	45	ABS	1	2	24MD	0	1	0.667019128799	None	None	None	None	1
1.7	2015_Jul_21_0910	s	s	10	2	SIC	46	ABS	0	1	24RO	0	1	5.2198009491	None	None	None	None	1
1.7	2015_Jul_21_0910	s	s	10	2	SIC	47	ABS	1	1	24MO	0	1	3.84835886955	None	None	None	None	1
1.7	2015_Jul_21_0910	s	s	10	2	SIC	48	RC	2	2	23VD	1	0	0.713910102844	503.0	-242.0	511	-240	1
1.7	2015_Jul_21_0910	s	s	10	2	SIC	49	ABS	1	1	24MO	0	1	5.51981091499	None	None	None	None	1
1.7	2015_Jul_21_0910	s	s	10	2	SIC	50	ABS	1	2	24MD	0	1	1.55327320099	None	None	None	None	1
1.7	2015_Jul_21_0910	s	s	10	2	SIC	51	RC	2	0	23VC	1	0	0.737442970276	-411.0	380.0	-407	376	1
1.7	2015_Jul_21_0910	s	s	10	2	SIC	52	RC	1	1	23MO	1	0	2.39576601982	62.0	384.0	66	391	1
1.7	2015_Jul_21_0910	s	s	10	2	SIC	53	ABS	1	0	24MC	0	1	5.27260804176	None	None	None	None	1
1.7	2015_Jul_21_0910	s	s	10	2	SIC	54	ABS	2	1	24VO	0	1	4.45802879333	None	None	None	None	1
1.7	2015_Jul_21_0910	s	s	10	2	SIC	55	ABS	2	2	24VD	0	1	0.529075145721	None	None	None	None	1
1.7	2015_Jul_21_0910	s	s	10	2	SIC	56	RC	0	2	23RD	1	0	0.808423042297	408.0	179.0	415	188	1
1.7	2015_Jul_21_0910	s	s	10	2	SIC	57	ABS	2	0	24VC	0	1	0.729103088379	None	None	None	None	1
1.7	2015_Jul_21_0910	s	s	10	2	SIC	58	RC	1	2	23MD	1	0	0.643748044968	344.0	377.0	345	380	1
1.7	2015_Jul_21_0910	s	s	10	2	SIC	59	RC	2	1	23VO	1	0	0.901195049286	279.0	-202.0	283	-207	1
1.7	2015_Jul_21_0910	s	s	10	2	SIC	60	ABS	0	1	24RO	0	1	3.31387495995	None	None	None	None	1
1.7	2015_Jul_21_0910	s	s	10	2	SIC	61	RC	1	0	23MC	1	0	2.78901696205	505.0	371.0	508	374	1
1.7	2015_Jul_21_0910	s	s	10	2	SIC	62	RC	2	2	23VD	1	0	0.675209999084	129.0	320.0	136	314	1
1.7	2015_Jul_21_0910	s	s	10	2	SIC	63	ABS	0	2	24RD	0	1	1.51404905319	None	None	None	None	1
1.7	2015_Jul_21_0910	s	s	10	2	SIC	64	RC	0	1	23RO	1	0	3.74279999733	316.0	20.0	322	22	1
1.7	2015_Jul_21_0910	s	s	10	2	SIC	65	ABS	1	1	24MO	0	1	3.53427600861	None	None	None	None	1
1.7	2015_Jul_21_0910	s	s	10	2	SIC	66	RC	1	0	23MC	0	1	2.8190779686	-497.0	380.0	None	None	0
1.7	2015_Jul_21_0910	s	s	10	2	SIC	67	RC	0	1	23RO	1	0	5.11681318283	-44.0	297.0	-39	293	1
1.7	2015_Jul_21_0910	s	s	10	2	SIC	68	ABS	2	2	24VD	0	1	0.702226877213	None	None	None	None	1
1.7	2015_Jul_21_0910	s	s	10	2	SIC	69	RC	2	0	23VC	1	0	0.599655866623	-21.0	339.0	-18	335	1
1.7	2015_Jul_21_0910	s	s	10	2	SIC	70	ABS	1	2	24MD	0	1	0.858621120453	None	None	None	None	1
1.7	2015_Jul_21_0910	s	s	10	2	SIC	71	ABS	2	1	24VO	0	1	1.15304398537	None	None	None	None	1
1.7	2015_Jul_21_0910	s	s	10	2	SIC	72	RC	1	2	23MD	1	0	0.934633016586	425.0	-240.0	430	-248	1
1.7	2015_Jul_21_0910	s	s	10	2	SIC	73	RC	2	2	23VD	1	0	0.926836967468	-200.0	383.0	-197	384	1
1.7	2015_Jul_21_0910	s	s	10	2	SIC	74	RC	1	1	23MO	1	0	2.36523795128	-363.0	-65.0	-365	-76	1
1.7	2015_Jul_21_0910	s	s	10	2	SIC	75	ABS	0	1	24RO	0	1	6.23272800446	None	None	None	None	1
1.7	2015_Jul_21_0910	s	s	10	2	SIC	76	ABS	0	2	24RD	0	1	3.5723669529	None	None	None	None	1
1.7	2015_Jul_21_0910	s	s	10	2	SIC	77	RC	2	1	23VO	1	0	0.623198986053	-94.0	-383.0	-87	-385	1
1.7	2015_Jul_21_0910	s	s	10	2	SIC	78	ABS	1	0	24MC	0	1	4.28091788292	None	None	None	None	1
1.7	2015_Jul_21_0910	s	s	10	2	SIC	79	RC	0	2	23RD	1	0	0.646771907806	-334.0	-31.0	-327	-37	1
1.7	2015_Jul_21_0910	s	s	10	2	SIC	80	ABS	2	0	24VC	0	1	0.705534934998	None	None	None	None	1
1.7	2015_Jul_21_0910	s	s	10	2	SIC	81	RC	2	2	23VD	1	0	0.513997077942	-101.0	135.0	-96	136	1
1.7	2015_Jul_21_0910	s	s	10	2	SIC	82	RC	1	1	23MO	1	0	2.09451603889	-32.0	-265.0	-27	-262	1
1.7	2015_Jul_21_0910	s	s	10	2	SIC	83	ABS	0	2	24RD	0	1	0.948441028595	None	None	None	None	1
1.7	2015_Jul_21_0910	s	s	10	2	SIC	84	ABS	1	2	24MD	0	1	0.712432146072	None	None	None	None	1
1.7	2015_Jul_21_0910	s	s	10	2	SIC	85	ABS	1	0	24MC	1	0	2.72610998154	None	None	-128	-13	0
1.7	2015_Jul_21_0910	s	s	10	2	SIC	86	ABS	2	2	24VD	0	1	0.607887029648	None	None	None	None	1
1.7	2015_Jul_21_0910	s	s	10	2	SIC	87	ABS	0	1	24RO	0	1	6.08459019661	None	None	None	None	1
1.7	2015_Jul_21_0910	s	s	10	2	SIC	88	RC	1	0	23MC	0	1	6.27087211609	490.0	-183.0	None	None	0
1.7	2015_Jul_21_0910	s	s	10	2	SIC	89	RC	2	0	23VC	1	0	0.693852186203	-303.0	-289.0	-295	-290	1
1.7	2015_Jul_21_0910	s	s	10	2	SIC	90	ABS	2	1	24VO	0	1	1.3364880085	None	None	None	None	1
1.7	2015_Jul_21_0910	s	s	10	2	SIC	91	RC	2	1	23VO	1	0	0.688226938248	-42.0	328.0	-30	333	1
1.7	2015_Jul_21_0910	s	s	10	2	SIC	92	RC	0	1	23RO	1	0	9.41587781906	-381.0	227.0	-376	226	1
1.7	2015_Jul_21_0910	s	s	10	2	SIC	93	RC	0	2	23RD	1	0	0.687478065491	-302.0	-302.0	-301	-296	1
1.7	2015_Jul_21_0910	s	s	10	2	SIC	94	ABS	2	0	24VC	0	1	1.08005690575	None	None	None	None	1
1.7	2015_Jul_21_0910	s	s	10	2	SIC	95	RC	1	2	23MD	1	0	1.10580801964	153.0	291.0	165	299	1
1.7	2015_Jul_21_0910	s	s	10	2	SIC	96	ABS	1	1	24MO	0	1	6.06183195114	None	None	None	None	1
1.7	2015_Jul_21_0910	s	s	10	2	SIC	97	RC	2	0	23VC	1	0	0.693698167801	-313.0	235.0	-309	229	1
1.7	2015_Jul_21_0910	s	s	10	2	SIC	98	ABS	0	2	24RD	0	1	1.38357806206	None	None	None	None	1
1.7	2015_Jul_21_0910	s	s	10	2	SIC	99	RC	2	1	23VO	1	0	0.912331104279	29.0	361.0	33	362	1
1.7	2015_Jul_21_0910	s	s	10	2	SIC	100	RC	1	0	23MC	0	1	5.11950206757	-438.0	-228.0	None	None	0
1.7	2015_Jul_21_0910	s	s	10	2	SIC	101	ABS	1	0	24MC	0	1	3.95173406601	None	None	None	None	1
1.7	2015_Jul_21_0910	s	s	10	2	SIC	102	RC	2	2	23VD	1	0	0.666615009308	-336.0	-59.0	-330	-59	1
1.7	2015_Jul_21_0910	s	s	10	2	SIC	103	ABS	2	0	24VC	0	1	1.26586198807	None	None	None	None	1
1.7	2015_Jul_21_0910	s	s	10	2	SIC	104	ABS	1	2	24MD	0	1	0.867738962173	None	None	None	None	1
1.7	2015_Jul_21_0910	s	s	10	2	SIC	105	RC	0	2	23RD	1	0	0.878347158432	27.0	298.0	26	294	1
1.7	2015_Jul_21_0910	s	s	10	2	SIC	106	RC	1	1	23MO	1	0	2.04388594627	352.0	153.0	354	151	1
1.7	2015_Jul_21_0910	s	s	10	2	SIC	107	RC	0	1	23RO	1	0	2.84281802177	-133.0	-186.0	-129	-186	1
1.7	2015_Jul_21_0910	s	s	10	2	SIC	108	ABS	0	1	24RO	0	1	13.0248699188	None	None	None	None	1
1.7	2015_Jul_21_0910	s	s	10	2	SIC	109	ABS	1	1	24MO	0	1	5.05842089653	None	None	None	None	1
1.7	2015_Jul_21_0910	s	s	10	2	SIC	110	RC	1	2	23MD	1	0	0.962194919586	441.0	-254.0	443	-257	1
1.7	2015_Jul_21_0910	s	s	10	2	SIC	111	ABS	2	1	24VO	0	1	0.999918937683	None	None	None	None	1
1.7	2015_Jul_21_0910	s	s	10	2	SIC	112	ABS	2	2	24VD	0	1	0.655825138092	None	None	None	None	1
1.7	2015_Jul_21_0910	s	s	10	2	SIC	113	ABS	2	2	24VD	0	1	0.564231872559	None	None	None	None	1
1.7	2015_Jul_21_0910	s	s	10	2	SIC	114	ABS	2	1	24VO	0	1	0.693837881088	None	None	None	None	1
1.7	2015_Jul_21_0910	s	s	10	2	SIC	115	RC	0	1	23RO	1	0	3.76099205017	-34.0	-85.0	-37	-91	1
1.7	2015_Jul_21_0910	s	s	10	2	SIC	116	RC	0	2	23RD	1	0	0.664659023285	98.0	-93.0	99	-99	1
1.7	2015_Jul_21_0910	s	s	10	2	SIC	117	RC	1	2	23MD	1	0	1.15047693253	-523.0	-373.0	-523	-369	1
1.7	2015_Jul_21_0910	s	s	10	2	SIC	118	ABS	1	1	24MO	0	1	6.14354896545	None	None	None	None	1
1.7	2015_Jul_21_0910	s	s	10	2	SIC	119	RC	2	0	23VC	1	0	0.656038045883	505.0	-86.0	505	-91	1
1.7	2015_Jul_21_0910	s	s	10	2	SIC	120	RC	1	1	23MO	1	0	3.11274814606	-144.0	339.0	-142	341	1
1.7	2015_Jul_21_0910	s	s	10	2	SIC	121	ABS	1	2	24MD	0	1	0.770509004593	None	None	None	None	1
1.7	2015_Jul_21_0910	s	s	10	2	SIC	122	ABS	0	1	24RO	0	1	7.41060709953	None	None	None	None	1
1.7	2015_Jul_21_0910	s	s	10	2	SIC	123	RC	2	2	23VD	1	0	0.740950107574	350.0	-382.0	355	-384	1
1.7	2015_Jul_21_0910	s	s	10	2	SIC	124	ABS	2	0	24VC	0	1	1.04275298119	None	None	None	None	1
1.7	2015_Jul_21_0910	s	s	10	2	SIC	125	ABS	1	0	24MC	0	1	8.45580387115	None	None	None	None	1
1.7	2015_Jul_21_0910	s	s	10	2	SIC	126	ABS	0	2	24RD	0	1	1.22078490257	None	None	None	None	1
1.7	2015_Jul_21_0910	s	s	10	2	SIC	127	RC	1	0	23MC	1	0	5.7593460083	131.0	264.0	133	273	1
1.7	2015_Jul_21_0910	s	s	10	2	SIC	128	RC	2	1	23VO	1	0	0.738328933716	46.0	195.0	48	191	1
1.7	2015_Jul_21_0910	s	s	10	2	SIC	129	ABS	2	1	24VO	0	1	1.14992904663	None	None	None	None	1
1.7	2015_Jul_21_0910	s	s	10	2	SIC	130	ABS	0	1	24RO	0	1	7.52964496613	None	None	None	None	1
1.7	2015_Jul_21_0910	s	s	10	2	SIC	131	RC	2	2	23VD	1	0	0.700743198395	-487.0	262.0	-501	269	1
1.7	2015_Jul_21_0910	s	s	10	2	SIC	132	RC	1	0	23MC	1	0	4.81369781494	432.0	379.0	435	384	1
1.7	2015_Jul_21_0910	s	s	10	2	SIC	133	ABS	1	0	24MC	0	1	3.50396895409	None	None	None	None	1
1.7	2015_Jul_21_0910	s	s	10	2	SIC	134	ABS	0	2	24RD	0	1	3.29503083229	None	None	None	None	1
1.7	2015_Jul_21_0910	s	s	10	2	SIC	135	RC	2	1	23VO	1	0	0.552481174469	265.0	67.0	266	65	1
1.7	2015_Jul_21_0910	s	s	10	2	SIC	136	RC	1	1	23MO	1	0	2.77765393257	-477.0	-405.0	-471	-408	1
1.7	2015_Jul_21_0910	s	s	10	2	SIC	137	ABS	1	2	24MD	0	1	1.31265211105	None	None	None	None	1
1.7	2015_Jul_21_0910	s	s	10	2	SIC	138	ABS	2	2	24VD	0	1	0.846909999847	None	None	None	None	1
1.7	2015_Jul_21_0910	s	s	10	2	SIC	139	RC	0	2	23RD	1	0	1.09136915207	-199.0	-84.0	-194	-89	1
1.7	2015_Jul_21_0910	s	s	10	2	SIC	140	RC	0	1	23RO	1	0	1.00870704651	-92.0	169.0	-88	164	1
1.7	2015_Jul_21_0910	s	s	10	2	SIC	141	ABS	1	1	24MO	0	1	5.02253317833	None	None	None	None	1
1.7	2015_Jul_21_0910	s	s	10	2	SIC	142	ABS	2	0	24VC	0	1	0.914975881577	None	None	None	None	1
1.7	2015_Jul_21_0910	s	s	10	2	SIC	143	RC	2	0	23VC	1	0	0.570868015289	-10.0	-404.0	-17	-408	1
1.7	2015_Jul_21_0910	s	s	10	2	SIC	144	RC	1	2	23MD	1	0	0.717395067215	469.0	-82.0	467	-80	1
1.7	2015_Jul_21_0910	s	s	10	2	SIC	145	ABS	1	1	24MO	0	1	4.04523015022	None	None	None	None	1
1.7	2015_Jul_21_0910	s	s	10	2	SIC	146	RC	2	2	23VD	1	0	0.571270942688	-537.0	10.0	-539	10	1
1.7	2015_Jul_21_0910	s	s	10	2	SIC	147	ABS	0	1	24RO	0	1	5.0252559185	None	None	None	None	1
1.7	2015_Jul_21_0910	s	s	10	2	SIC	148	ABS	1	2	24MD	0	1	0.68202495575	None	None	None	None	1
1.7	2015_Jul_21_0910	s	s	10	2	SIC	149	ABS	1	0	24MC	0	1	4.66685605049	None	None	None	None	1
1.7	2015_Jul_21_0910	s	s	10	2	SIC	150	ABS	0	2	24RD	0	1	0.752678871155	None	None	None	None	1
1.7	2015_Jul_21_0910	s	s	10	2	SIC	151	RC	1	1	23MO	1	0	4.2101290226	296.0	216.0	295	204	1
1.7	2015_Jul_21_0910	s	s	10	2	SIC	152	ABS	2	0	24VC	0	1	0.715022087097	None	None	None	None	1
1.7	2015_Jul_21_0910	s	s	10	2	SIC	153	RC	1	2	23MD	1	0	1.02348184586	-501.0	288.0	-500	288	1
1.7	2015_Jul_21_0910	s	s	10	2	SIC	154	RC	0	1	23RO	1	0	3.1251809597	388.0	-290.0	391	-299	1
1.7	2015_Jul_21_0910	s	s	10	2	SIC	155	RC	2	0	23VC	1	0	0.667776823044	309.0	270.0	308	260	1
1.7	2015_Jul_21_0910	s	s	10	2	SIC	156	RC	0	2	23RD	1	0	0.788089990616	434.0	-130.0	437	-131	1
1.7	2015_Jul_21_0910	s	s	10	2	SIC	157	RC	2	1	23VO	1	0	0.572889089584	64.0	82.0	72	83	1
1.7	2015_Jul_21_0910	s	s	10	2	SIC	158	ABS	2	1	24VO	0	1	1.397356987	None	None	None	None	1
1.7	2015_Jul_21_0910	s	s	10	2	SIC	159	ABS	2	2	24VD	0	1	0.666790008545	None	None	None	None	1
1.7	2015_Jul_21_0910	s	s	10	2	SIC	160	RC	1	0	23MC	0	1	5.50321602821	-224.0	226.0	None	None	0
1.7	2015_Jul_21_0910	s	s	10	2	SIC	161	RC	2	1	23VO	1	0	0.618633985519	187.0	213.0	187	217	1
1.7	2015_Jul_21_0910	s	s	10	2	SIC	162	ABS	0	1	24RO	0	1	9.63709402084	None	None	None	None	1
1.7	2015_Jul_21_0910	s	s	10	2	SIC	163	RC	0	2	23RD	1	0	0.717242002487	402.0	89.0	404	89	1
1.7	2015_Jul_21_0910	s	s	10	2	SIC	164	RC	0	1	23RO	1	0	2.75360798836	-220.0	-324.0	-220	-326	1
1.7	2015_Jul_21_0910	s	s	10	2	SIC	165	ABS	1	0	24MC	0	1	3.91662096977	None	None	None	None	1
1.7	2015_Jul_21_0910	s	s	10	2	SIC	166	RC	2	0	23VC	1	0	0.646783828735	371.0	4.0	371	10	1
1.7	2015_Jul_21_0910	s	s	10	2	SIC	167	ABS	1	2	24MD	0	1	0.882225036621	None	None	None	None	1
1.7	2015_Jul_21_0910	s	s	10	2	SIC	168	ABS	0	2	24RD	0	1	0.723287820816	None	None	None	None	1
1.7	2015_Jul_21_0910	s	s	10	2	SIC	169	RC	1	0	23MC	0	1	3.94242286682	182.0	-88.0	None	None	0
1.7	2015_Jul_21_0910	s	s	10	2	SIC	170	ABS	1	1	24MO	0	1	4.47223806381	None	None	None	None	1
1.7	2015_Jul_21_0910	s	s	10	2	SIC	171	RC	2	2	23VD	1	0	0.599735975266	-173.0	-144.0	-163	-136	1
1.7	2015_Jul_21_0910	s	s	10	2	SIC	172	RC	1	1	23MO	1	0	3.35059595108	476.0	114.0	466	121	1
1.7	2015_Jul_21_0910	s	s	10	2	SIC	173	RC	1	2	23MD	1	0	0.606287956238	84.0	-3.0	79	-14	1
1.7	2015_Jul_21_0910	s	s	10	2	SIC	174	ABS	2	2	24VD	0	1	0.584130048752	None	None	None	None	1
1.7	2015_Jul_21_0910	s	s	10	2	SIC	175	ABS	2	0	24VC	0	1	0.94889497757	None	None	None	None	1
1.7	2015_Jul_21_0910	s	s	10	2	SIC	176	ABS	2	1	24VO	0	1	0.571135997772	None	None	None	None	1
1.7	2015_Jul_21_0910	s	s	10	2	SIC	177	RC	0	2	23RD	1	0	0.688719034195	-81.0	140.0	-82	138	1
1.7	2015_Jul_21_0910	s	s	10	2	SIC	178	RC	2	1	23VO	1	0	2.27114009857	401.0	-387.0	405	-388	1
1.7	2015_Jul_21_0910	s	s	10	2	SIC	179	ABS	2	1	24VO	0	1	2.30373191833	None	None	None	None	1
1.7	2015_Jul_21_0910	s	s	10	2	SIC	180	ABS	1	1	24MO	0	1	5.43237996101	None	None	None	None	1
1.7	2015_Jul_21_0910	s	s	10	2	SIC	181	ABS	0	1	24RO	0	1	4.24280714989	None	None	None	None	1
1.7	2015_Jul_21_0910	s	s	10	2	SIC	182	RC	2	2	23VD	1	0	0.652916908264	54.0	-387.0	57	-387	1
1.7	2015_Jul_21_0910	s	s	10	2	SIC	183	ABS	1	0	24MC	0	1	1.58448696136	None	None	None	None	1
1.7	2015_Jul_21_0910	s	s	10	2	SIC	184	RC	1	0	23MC	0	1	1.5969440937	-106.0	7.0	None	None	0
1.7	2015_Jul_21_0910	s	s	10	2	SIC	185	ABS	0	2	24RD	0	1	0.750349998474	None	None	None	None	1
1.7	2015_Jul_21_0910	s	s	10	2	SIC	186	ABS	2	2	24VD	0	1	0.749306917191	None	None	None	None	1
1.7	2015_Jul_21_0910	s	s	10	2	SIC	187	RC	0	1	23RO	0	1	5.90829110146	-320.0	131.0	None	None	0
1.7	2015_Jul_21_0910	s	s	10	2	SIC	188	ABS	2	0	24VC	0	1	0.937366008759	None	None	None	None	1
1.7	2015_Jul_21_0910	s	s	10	2	SIC	189	RC	1	2	23MD	1	0	0.923512935638	288.0	136.0	280	133	1
1.7	2015_Jul_21_0910	s	s	10	2	SIC	190	RC	1	1	23MO	1	0	1.29419088364	-22.0	-292.0	-11	-284	1
1.7	2015_Jul_21_0910	s	s	10	2	SIC	191	ABS	1	2	24MD	0	1	0.597258090973	None	None	None	None	1
1.7	2015_Jul_21_0910	s	s	10	2	SIC	192	RC	2	0	23VC	1	0	0.6114590168	15.0	-161.0	16	-166	1
1.7	2015_Jul_21_0910	s	s	10	2	SIC	193	RC	2	1	23VO	1	0	0.711435079575	-509.0	222.0	-513	227	1
1.7	2015_Jul_21_0910	s	s	10	2	SIC	194	ABS	2	2	24VD	0	1	1.02074599266	None	None	None	None	1
1.7	2015_Jul_21_0910	s	s	10	2	SIC	195	RC	0	1	23RO	0	1	4.82212591171	415.0	408.0	None	None	0
1.7	2015_Jul_21_0910	s	s	10	2	SIC	196	ABS	2	0	24VC	0	1	0.662775993347	None	None	None	None	1
1.7	2015_Jul_21_0910	s	s	10	2	SIC	197	RC	1	1	23MO	1	0	1.43305301666	205.0	302.0	210	298	1
1.7	2015_Jul_21_0910	s	s	10	2	SIC	198	ABS	2	1	24VO	0	1	0.693682909012	None	None	None	None	1
1.7	2015_Jul_21_0910	s	s	10	2	SIC	199	RC	1	2	23MD	1	0	0.653524875641	129.0	-196.0	132	-206	1
1.7	2015_Jul_21_0910	s	s	10	2	SIC	200	RC	2	2	23VD	1	0	0.599595069885	-491.0	37.0	-482	45	1
1.7	2015_Jul_21_0910	s	s	10	2	SIC	201	ABS	1	1	24MO	0	1	3.41292405128	None	None	None	None	1
1.7	2015_Jul_21_0910	s	s	10	2	SIC	202	RC	1	0	23MC	1	0	1.0470199585	18.0	335.0	-38	202	0
1.7	2015_Jul_21_0910	s	s	10	2	SIC	203	ABS	1	2	24MD	0	1	0.634948968887	None	None	None	None	1
1.7	2015_Jul_21_0910	s	s	10	2	SIC	204	RC	0	2	23RD	1	0	0.811619997025	133.0	231.0	139	222	1
1.7	2015_Jul_21_0910	s	s	10	2	SIC	205	ABS	0	1	24RO	0	1	4.26034498215	None	None	None	None	1
1.7	2015_Jul_21_0910	s	s	10	2	SIC	206	ABS	1	0	24MC	0	1	1.84439992905	None	None	None	None	1
1.7	2015_Jul_21_0910	s	s	10	2	SIC	207	ABS	0	2	24RD	0	1	0.7879550457	None	None	None	None	1
1.7	2015_Jul_21_0910	s	s	10	2	SIC	208	RC	2	0	23VC	1	0	0.712055921555	489.0	39.0	493	32	1
1.7	2015_Jul_21_0910	s	s	10	2	SIC	209	ABS	1	1	24MO	0	1	3.85611796379	None	None	None	None	1
1.7	2015_Jul_21_0910	s	s	10	2	SIC	210	RC	0	2	23RD	1	0	0.747842073441	60.0	334.0	56	328	1
1.7	2015_Jul_21_0910	s	s	10	2	SIC	211	ABS	1	0	24MC	1	0	0.772727012634	None	None	-11	288	0
1.7	2015_Jul_21_0910	s	s	10	2	SIC	212	RC	1	1	23MO	1	0	3.62016892433	440.0	393.0	442	397	1
1.7	2015_Jul_21_0910	s	s	10	2	SIC	213	ABS	0	1	24RO	0	1	3.83428478241	None	None	None	None	1
1.7	2015_Jul_21_0910	s	s	10	2	SIC	214	RC	1	2	23MD	1	0	0.595533847809	-226.0	142.0	-226	142	1
1.7	2015_Jul_21_0910	s	s	10	2	SIC	215	ABS	1	2	24MD	0	1	0.717265129089	None	None	None	None	1
1.7	2015_Jul_21_0910	s	s	10	2	SIC	216	RC	2	0	23VC	1	0	0.62036895752	499.0	-379.0	506	-377	1
1.7	2015_Jul_21_0910	s	s	10	2	SIC	217	ABS	2	2	24VD	0	1	0.611477136612	None	None	None	None	1
1.7	2015_Jul_21_0910	s	s	10	2	SIC	218	RC	1	0	23MC	0	1	1.77298998833	-196.0	-342.0	None	None	0
1.7	2015_Jul_21_0910	s	s	10	2	SIC	219	ABS	2	1	24VO	0	1	0.588378190994	None	None	None	None	1
1.7	2015_Jul_21_0910	s	s	10	2	SIC	220	RC	2	2	23VD	1	0	0.523847103119	127.0	-101.0	132	-94	1
1.7	2015_Jul_21_0910	s	s	10	2	SIC	221	ABS	0	2	24RD	0	1	0.456091165543	None	None	None	None	1
1.7	2015_Jul_21_0910	s	s	10	2	SIC	222	ABS	2	0	24VC	0	1	0.769901037216	None	None	None	None	1
1.7	2015_Jul_21_0910	s	s	10	2	SIC	223	RC	2	1	23VO	1	0	0.523605108261	-475.0	-371.0	-477	-364	1
1.7	2015_Jul_21_0910	s	s	10	2	SIC	224	RC	0	1	23RO	1	0	4.65511584282	-472.0	273.0	-465	280	1
1.7	2015_Jul_21_0910	s	s	10	2	SIC	225	ABS	1	0	24MC	0	1	2.4359498024	None	None	None	None	1
1.7	2015_Jul_21_0910	s	s	10	2	SIC	226	ABS	2	0	24VC	0	1	0.73736000061	None	None	None	None	1
1.7	2015_Jul_21_0910	s	s	10	2	SIC	227	ABS	1	1	24MO	0	1	4.26038098335	None	None	None	None	1
1.7	2015_Jul_21_0910	s	s	10	2	SIC	228	ABS	0	1	24RO	0	1	3.87947010994	None	None	None	None	1
1.7	2015_Jul_21_0910	s	s	10	2	SIC	229	RC	1	0	23MC	0	1	3.61998414993	126.0	303.0	None	None	0
1.7	2015_Jul_21_0910	s	s	10	2	SIC	230	RC	2	2	23VD	1	0	0.581848859787	321.0	47.0	333	49	1
1.7	2015_Jul_21_0910	s	s	10	2	SIC	231	RC	2	0	23VC	1	0	0.611518859863	-77.0	-376.0	-75	-379	1
1.7	2015_Jul_21_0910	s	s	10	2	SIC	232	RC	1	1	23MO	1	0	2.70662498474	22.0	-152.0	21	-151	1
1.7	2015_Jul_21_0910	s	s	10	2	SIC	233	RC	0	1	23RO	1	0	2.37230086327	66.0	-292.0	62	-298	1
1.7	2015_Jul_21_0910	s	s	10	2	SIC	234	ABS	2	1	24VO	0	1	0.664531946182	None	None	None	None	1
1.7	2015_Jul_21_0910	s	s	10	2	SIC	235	RC	0	2	23RD	1	0	0.606256008148	-512.0	131.0	-503	133	1
1.7	2015_Jul_21_0910	s	s	10	2	SIC	236	ABS	2	2	24VD	0	1	0.997210979462	None	None	None	None	1
1.7	2015_Jul_21_0910	s	s	10	2	SIC	237	ABS	1	2	24MD	0	1	1.20704317093	None	None	None	None	1
1.7	2015_Jul_21_0910	s	s	10	2	SIC	238	ABS	0	2	24RD	0	1	0.876259088516	None	None	None	None	1
1.7	2015_Jul_21_0910	s	s	10	2	SIC	239	RC	1	2	23MD	1	0	0.88258600235	331.0	56.0	327	55	1
1.7	2015_Jul_21_0910	s	s	10	2	SIC	240	RC	2	1	23VO	1	0	0.701775074005	302.0	-38.0	306	-35	1
1.7	2015_Jul_21_0910	s	s	10	2	SIC	241	RC	1	0	23MC	0	1	2.64486885071	123.0	-228.0	None	None	0
1.7	2015_Jul_21_0910	s	s	10	2	SIC	242	RC	2	1	23VO	1	0	0.576171159744	328.0	-410.0	330	-414	1
1.7	2015_Jul_21_0910	s	s	10	2	SIC	243	RC	0	2	23RD	1	0	0.740911006927	-115.0	-52.0	-123	-53	1
1.7	2015_Jul_21_0910	s	s	10	2	SIC	244	ABS	1	2	24MD	0	1	1.37673211098	None	None	None	None	1
1.7	2015_Jul_21_0910	s	s	10	2	SIC	245	ABS	1	0	24MC	0	1	3.52458000183	None	None	None	None	1
1.7	2015_Jul_21_0910	s	s	10	2	SIC	246	RC	2	2	23VD	1	0	0.620591163635	276.0	-357.0	279	-364	1
1.7	2015_Jul_21_0910	s	s	10	2	SIC	247	RC	2	0	23VC	1	0	0.552561044693	439.0	-236.0	447	-238	1
1.7	2015_Jul_21_0910	s	s	10	2	SIC	248	ABS	1	1	24MO	0	1	4.30297684669	None	None	None	None	1
1.7	2015_Jul_21_0910	s	s	10	2	SIC	249	RC	1	1	23MO	1	0	1.06534790993	292.0	-407.0	295	-401	1
1.7	2015_Jul_21_0910	s	s	10	2	SIC	250	ABS	2	2	24VD	0	1	0.561716079712	None	None	None	None	1
1.7	2015_Jul_21_0910	s	s	10	2	SIC	251	ABS	2	0	24VC	0	1	0.599539995193	None	None	None	None	1
1.7	2015_Jul_21_0910	s	s	10	2	SIC	252	RC	0	1	23RO	1	0	2.59775686264	295.0	388.0	298	391	1
1.7	2015_Jul_21_0910	s	s	10	2	SIC	253	ABS	2	1	24VO	0	1	0.501773118973	None	None	None	None	1
1.7	2015_Jul_21_0910	s	s	10	2	SIC	254	RC	1	2	23MD	1	0	0.829316139221	-368.0	-92.0	-363	-96	1
1.7	2015_Jul_21_0910	s	s	10	2	SIC	255	ABS	0	2	24RD	0	1	0.890346050262	None	None	None	None	1
1.7	2015_Jul_21_0910	s	s	10	2	SIC	256	ABS	0	1	24RO	0	1	4.79882383347	None	None	None	None	1
1.7	2015_Jul_21_0910	s	s	10	2	SIC	257	ABS	2	0	24VC	0	1	0.511729001999	None	None	None	None	1
1.7	2015_Jul_21_0910	s	s	10	2	SIC	258	RC	0	2	23RD	1	0	0.721853971481	-129.0	-203.0	-133	-208	1
1.7	2015_Jul_21_0910	s	s	10	2	SIC	259	ABS	1	2	24MD	0	1	1.06709289551	None	None	None	None	1
1.7	2015_Jul_21_0910	s	s	10	2	SIC	260	ABS	2	2	24VD	0	1	0.564321994781	None	None	None	None	1
1.7	2015_Jul_21_0910	s	s	10	2	SIC	261	RC	2	1	23VO	1	0	0.632344961166	-466.0	127.0	-462	128	1
1.7	2015_Jul_21_0910	s	s	10	2	SIC	262	ABS	1	0	24MC	0	1	1.78449106216	None	None	None	None	1
1.7	2015_Jul_21_0910	s	s	10	2	SIC	263	ABS	0	2	24RD	0	1	0.561711072922	None	None	None	None	1
1.7	2015_Jul_21_0910	s	s	10	2	SIC	264	ABS	2	1	24VO	0	1	0.571037054062	None	None	None	None	1
1.7	2015_Jul_21_0910	s	s	10	2	SIC	265	RC	0	1	23RO	1	0	2.04747700691	-514.0	264.0	-516	270	1
1.7	2015_Jul_21_0910	s	s	10	2	SIC	266	RC	1	1	23MO	1	0	1.67112183571	-528.0	168.0	-527	168	1
1.7	2015_Jul_21_0910	s	s	10	2	SIC	267	RC	1	2	23MD	1	0	0.773782968521	209.0	-12.0	208	-14	1
1.7	2015_Jul_21_0910	s	s	10	2	SIC	268	RC	1	0	23MC	1	0	1.1237308979	65.0	-346.0	64	-355	1
1.7	2015_Jul_21_0910	s	s	10	2	SIC	269	ABS	0	1	24RO	0	1	3.96168899536	None	None	None	None	1
1.7	2015_Jul_21_0910	s	s	10	2	SIC	270	RC	2	2	23VD	1	0	0.685776948929	174.0	-167.0	183	-171	1
1.7	2015_Jul_21_0910	s	s	10	2	SIC	271	RC	2	0	23VC	1	0	0.552606105804	117.0	318.0	127	318	1
1.7	2015_Jul_21_0910	s	s	10	2	SIC	272	ABS	1	1	24MO	0	1	3.42456793785	None	None	None	None	1
1.7	2015_Jul_21_0910	s	s	10	2	SIC	273	ABS	0	2	24RD	0	1	0.92116189003	None	None	None	None	1
1.7	2015_Jul_21_0910	s	s	10	2	SIC	274	RC	2	2	23VD	1	0	0.643933057785	57.0	199.0	55	202	1
1.7	2015_Jul_21_0910	s	s	10	2	SIC	275	ABS	2	1	24VO	0	1	0.587917804718	None	None	None	None	1
1.7	2015_Jul_21_0910	s	s	10	2	SIC	276	RC	2	0	23VC	1	0	0.611443042755	-200.0	-289.0	-192	-288	1
1.7	2015_Jul_21_0910	s	s	10	2	SIC	277	ABS	0	1	24RO	0	1	3.97425198555	None	None	None	None	1
1.7	2015_Jul_21_0910	s	s	10	2	SIC	278	ABS	1	1	24MO	0	1	2.65504193306	None	None	None	None	1
1.7	2015_Jul_21_0910	s	s	10	2	SIC	279	ABS	2	2	24VD	0	1	0.664963006973	None	None	None	None	1
1.7	2015_Jul_21_0910	s	s	10	2	SIC	280	RC	2	1	23VO	1	0	0.724040985107	-380.0	199.0	-381	194	1
1.7	2015_Jul_21_0910	s	s	10	2	SIC	281	ABS	1	0	24MC	0	1	3.89095687866	None	None	None	None	1
1.7	2015_Jul_21_0910	s	s	10	2	SIC	282	RC	1	0	23MC	0	1	7.52956700325	-65.0	204.0	None	None	0
1.7	2015_Jul_21_0910	s	s	10	2	SIC	283	RC	0	2	23RD	1	0	0.482037067413	-475.0	6.0	-471	15	1
1.7	2015_Jul_21_0910	s	s	10	2	SIC	284	ABS	1	2	24MD	0	1	0.584953069687	None	None	None	None	1
1.7	2015_Jul_21_0910	s	s	10	2	SIC	285	RC	1	1	23MO	1	0	1.4773478508	109.0	-77.0	114	-68	1
1.7	2015_Jul_21_0910	s	s	10	2	SIC	286	RC	0	1	23RO	0	1	3.62476801872	161.0	-131.0	None	None	0
1.7	2015_Jul_21_0910	s	s	10	2	SIC	287	ABS	2	0	24VC	0	1	0.713886022568	None	None	None	None	1
1.7	2015_Jul_21_0910	s	s	10	2	SIC	288	RC	1	2	23MD	1	0	0.6201171875	-400.0	-39.0	-401	-36	1
1.7	2015_Jul_21_0910	s	s	10	2	SIC	289	RC	1	1	23MO	1	0	1.46790599823	44.0	-378.0	38	-377	1
1.7	2015_Jul_21_0910	s	s	10	2	SIC	290	ABS	2	2	24VD	0	1	0.5476770401	None	None	None	None	1
1.7	2015_Jul_21_0910	s	s	10	2	SIC	291	ABS	2	0	24VC	0	1	0.63130402565	None	None	None	None	1
1.7	2015_Jul_21_0910	s	s	10	2	SIC	292	RC	2	0	23VC	1	0	0.632609844208	129.0	-135.0	131	-146	1
1.7	2015_Jul_21_0910	s	s	10	2	SIC	293	ABS	2	1	24VO	0	1	0.91166806221	None	None	None	None	1
1.7	2015_Jul_21_0910	s	s	10	2	SIC	294	ABS	1	1	24MO	0	1	5.17831516266	None	None	None	None	1
1.7	2015_Jul_21_0910	s	s	10	2	SIC	295	RC	2	2	23VD	1	0	0.700359106064	-285.0	294.0	-283	302	1
1.7	2015_Jul_21_0910	s	s	10	2	SIC	296	RC	1	2	23MD	1	0	0.764380931854	-441.0	401.0	-446	403	1
1.7	2015_Jul_21_0910	s	s	10	2	SIC	297	RC	0	2	23RD	1	0	0.841257810593	-149.0	-68.0	-149	-64	1
1.7	2015_Jul_21_0910	s	s	10	2	SIC	298	RC	0	1	23RO	1	0	2.17372488976	-50.0	-135.0	-42	-132	1
1.7	2015_Jul_21_0910	s	s	10	2	SIC	299	ABS	1	2	24MD	0	1	0.599575996399	None	None	None	None	1
1.7	2015_Jul_21_0910	s	s	10	2	SIC	300	ABS	0	1	24RO	0	1	4.90415692329	None	None	None	None	1
1.7	2015_Jul_21_0910	s	s	10	2	SIC	301	RC	2	1	23VO	1	0	0.634964942932	-164.0	-386.0	-167	-380	1
1.7	2015_Jul_21_0910	s	s	10	2	SIC	302	ABS	0	2	24RD	0	1	1.05393886566	None	None	None	None	1
1.7	2015_Jul_21_0910	s	s	10	2	SIC	303	RC	1	0	23MC	1	0	5.00823402405	68.0	273.0	64	268	1
1.7	2015_Jul_21_0910	s	s	10	2	SIC	304	ABS	1	0	24MC	0	1	2.65392303467	None	None	None	None	1
1.7	2015_Jul_21_0910	s	s	10	2	SIC	305	RC	1	2	23MD	1	0	0.646734952927	100.0	-385.0	105	-378	1
1.7	2015_Jul_21_0910	s	s	10	2	SIC	306	ABS	1	0	24MC	0	1	3.24804282188	None	None	None	None	1
1.7	2015_Jul_21_0910	s	s	10	2	SIC	307	ABS	0	2	24RD	0	1	0.764333963394	None	None	None	None	1
1.7	2015_Jul_21_0910	s	s	10	2	SIC	308	RC	0	2	23RD	1	0	0.925953149796	186.0	282.0	189	282	1
1.7	2015_Jul_21_0910	s	s	10	2	SIC	309	ABS	2	0	24VC	0	1	1.19447803497	None	None	None	None	1
1.7	2015_Jul_21_0910	s	s	10	2	SIC	310	RC	0	1	23RO	1	0	1.54507613182	-220.0	-44.0	-218	-45	1
1.7	2015_Jul_21_0910	s	s	10	2	SIC	311	ABS	1	1	24MO	0	1	5.19834518433	None	None	None	None	1
1.7	2015_Jul_21_0910	s	s	10	2	SIC	312	RC	1	0	23MC	0	1	10.5025000572	-143.0	269.0	None	None	0
1.7	2015_Jul_21_0910	s	s	10	2	SIC	313	RC	2	0	23VC	1	0	0.51390004158	379.0	-108.0	374	-115	1
1.7	2015_Jul_21_0910	s	s	10	2	SIC	314	ABS	0	1	24RO	0	1	7.63629508018	None	None	None	None	1
1.7	2015_Jul_21_0910	s	s	10	2	SIC	315	ABS	2	2	24VD	0	1	0.599524974823	None	None	None	None	1
1.7	2015_Jul_21_0910	s	s	10	2	SIC	316	RC	1	1	23MO	0	1	4.56402301788	436.0	402.0	None	None	0
1.7	2015_Jul_21_0910	s	s	10	2	SIC	317	ABS	2	1	24VO	0	1	0.552490949631	None	None	None	None	1
1.7	2015_Jul_21_0910	s	s	10	2	SIC	318	RC	2	1	23VO	1	0	0.576308965683	-258.0	-274.0	-267	-274	1
1.7	2015_Jul_21_0910	s	s	10	2	SIC	319	ABS	1	2	24MD	0	1	0.748175859451	None	None	None	None	1
1.7	2015_Jul_21_0910	s	s	10	2	SIC	320	RC	2	2	23VD	1	0	0.817476034164	118.0	240.0	120	239	1
1.7	2015_Jul_21_0910	s	s	10	2	SIC	321	RC	1	0	23MC	0	1	3.56582403183	-457.0	203.0	None	None	0
1.7	2015_Jul_21_0910	s	s	10	2	SIC	322	ABS	0	1	24RO	0	1	3.84480595589	None	None	None	None	1
1.7	2015_Jul_21_0910	s	s	10	2	SIC	323	ABS	1	2	24MD	0	1	0.712094068527	None	None	None	None	1
1.7	2015_Jul_21_0910	s	s	10	2	SIC	324	RC	0	2	23RD	1	0	0.611385822296	25.0	-16.0	21	-15	1
1.7	2015_Jul_21_0910	s	s	10	2	SIC	325	RC	2	1	23VO	1	0	0.634837150574	-209.0	125.0	-211	121	1
1.7	2015_Jul_21_0910	s	s	10	2	SIC	326	ABS	2	0	24VC	0	1	1.06506705284	None	None	None	None	1
1.7	2015_Jul_21_0910	s	s	10	2	SIC	327	RC	2	0	23VC	1	0	0.552666902542	-113.0	122.0	-106	124	1
1.7	2015_Jul_21_0910	s	s	10	2	SIC	328	RC	0	1	23RO	0	1	4.55459403992	348.0	-208.0	None	None	0
1.7	2015_Jul_21_0910	s	s	10	2	SIC	329	ABS	1	0	24MC	0	1	3.74012708664	None	None	None	None	1
1.7	2015_Jul_21_0910	s	s	10	2	SIC	330	ABS	0	2	24RD	0	1	0.724555969238	None	None	None	None	1
1.7	2015_Jul_21_0910	s	s	10	2	SIC	331	RC	2	2	23VD	1	0	0.576361894608	35.0	-17.0	29	-18	1
1.7	2015_Jul_21_0910	s	s	10	2	SIC	332	RC	1	1	23MO	1	0	1.61566185951	-70.0	-285.0	-60	-285	1
1.7	2015_Jul_21_0910	s	s	10	2	SIC	333	ABS	2	2	24VD	0	1	0.874115943909	None	None	None	None	1
1.7	2015_Jul_21_0910	s	s	10	2	SIC	334	ABS	2	1	24VO	0	1	0.659291982651	None	None	None	None	1
1.7	2015_Jul_21_0910	s	s	10	2	SIC	335	RC	1	2	23MD	1	0	0.611756086349	-418.0	304.0	-411	303	1
1.7	2015_Jul_21_0910	s	s	10	2	SIC	336	ABS	1	1	24MO	0	1	3.26919388771	None	None	None	None	1
1.7	2015_Jul_21_0910	s	s	10	2	SIC	337	RC	2	2	23VD	1	0	0.470431804657	-189.0	250.0	-182	254	1
1.7	2015_Jul_21_0910	s	s	10	2	SIC	338	RC	0	1	23RO	0	1	3.08056306839	-417.0	223.0	None	None	0
1.7	2015_Jul_21_0910	s	s	10	2	SIC	339	RC	1	0	23MC	0	1	6.7854681015	98.0	-307.0	None	None	0
1.7	2015_Jul_21_0910	s	s	10	2	SIC	340	ABS	1	0	24MC	0	1	5.99950408936	None	None	None	None	1
1.7	2015_Jul_21_0910	s	s	10	2	SIC	341	ABS	0	1	24RO	0	1	7.43146014214	None	None	None	None	1
1.7	2015_Jul_21_0910	s	s	10	2	SIC	342	RC	0	2	23RD	1	0	0.905545949936	-491.0	-407.0	-491	-409	1
1.7	2015_Jul_21_0910	s	s	10	2	SIC	343	RC	2	0	23VC	1	0	1.35299491882	441.0	373.0	452	375	1
1.7	2015_Jul_21_0910	s	s	10	2	SIC	344	RC	1	2	23MD	1	0	0.865267038345	470.0	62.0	474	61	1
1.7	2015_Jul_21_0910	s	s	10	2	SIC	345	ABS	0	2	24RD	0	1	1.63551616669	None	None	None	None	1
1.7	2015_Jul_21_0910	s	s	10	2	SIC	346	ABS	1	2	24MD	0	1	1.32457900047	None	None	None	None	1
1.7	2015_Jul_21_0910	s	s	10	2	SIC	347	RC	2	1	23VO	1	0	0.505588054657	-294.0	-260.0	-293	-259	1
1.7	2015_Jul_21_0910	s	s	10	2	SIC	348	ABS	1	1	24MO	0	1	4.67231583595	None	None	None	None	1
1.7	2015_Jul_21_0910	s	s	10	2	SIC	349	ABS	2	2	24VD	0	1	0.641901016235	None	None	None	None	1
1.7	2015_Jul_21_0910	s	s	10	2	SIC	350	ABS	2	1	24VO	0	1	1.05875205994	None	None	None	None	1
1.7	2015_Jul_21_0910	s	s	10	2	SIC	351	RC	1	1	23MO	1	0	3.33046197891	-422.0	402.0	-414	407	1
1.7	2015_Jul_21_0910	s	s	10	2	SIC	352	ABS	2	0	24VC	0	1	1.37161302567	None	None	None	None	1
1.7	2015_Jul_21_0910	s	s	10	2	SIC	353	RC	2	1	23VO	1	0	0.548579931259	357.0	-227.0	365	-233	1
1.7	2015_Jul_21_0910	s	s	10	2	SIC	354	RC	1	2	23MD	1	0	0.620160102844	278.0	122.0	288	128	1
1.7	2015_Jul_21_0910	s	s	10	2	SIC	355	ABS	2	2	24VD	0	1	1.24705600739	None	None	None	None	1
1.7	2015_Jul_21_0910	s	s	10	2	SIC	356	RC	2	0	23VC	1	0	0.535737037659	54.0	15.0	52	12	1
1.7	2015_Jul_21_0910	s	s	10	2	SIC	357	RC	0	1	23RO	1	0	4.19686198235	410.0	250.0	411	250	1
1.7	2015_Jul_21_0910	s	s	10	2	SIC	358	RC	1	1	23MO	1	0	3.98954916	-22.0	-66.0	-19	-61	1
1.7	2015_Jul_21_0910	s	s	10	2	SIC	359	RC	0	2	23RD	1	0	0.705530881882	362.0	-352.0	370	-353	1
1.7	2015_Jul_21_0910	s	s	10	2	SIC	360	RC	2	2	23VD	1	0	1.29398298264	-149.0	-41.0	-154	-44	1
1.7	2015_Jul_21_0910	s	s	10	2	SIC	361	ABS	1	0	24MC	0	1	4.14257192612	None	None	None	None	1
1.7	2015_Jul_21_0910	s	s	10	2	SIC	362	ABS	1	1	24MO	0	1	4.6444580555	None	None	None	None	1
1.7	2015_Jul_21_0910	s	s	10	2	SIC	363	ABS	2	0	24VC	0	1	0.805871009827	None	None	None	None	1
1.7	2015_Jul_21_0910	s	s	10	2	SIC	364	ABS	0	2	24RD	0	1	0.889083147049	None	None	None	None	1
1.7	2015_Jul_21_0910	s	s	10	2	SIC	365	ABS	2	1	24VO	0	1	0.587816953659	None	None	None	None	1
1.7	2015_Jul_21_0910	s	s	10	2	SIC	366	ABS	1	2	24MD	0	1	1.28927206993	None	None	None	None	1
1.7	2015_Jul_21_0910	s	s	10	2	SIC	367	RC	1	0	23MC	0	1	4.49578499794	14.0	-410.0	None	None	0
1.7	2015_Jul_21_0910	s	s	10	2	SIC	368	ABS	0	1	24RO	0	1	5.52061796188	None	None	None	None	1
1.7	2015_Jul_21_0910	s	s	10	2	SIC	369	RC	1	2	23MD	1	0	1.04420900345	-536.0	394.0	-543	390	1
1.7	2015_Jul_21_0910	s	s	10	2	SIC	370	ABS	2	2	24VD	0	1	1.20864319801	None	None	None	None	1
1.7	2015_Jul_21_0910	s	s	10	2	SIC	371	ABS	1	1	24MO	0	1	4.01325702667	None	None	None	None	1
1.7	2015_Jul_21_0910	s	s	10	2	SIC	372	RC	1	1	23MO	1	0	1.04697394371	-519.0	378.0	-522	368	1
1.7	2015_Jul_21_0910	s	s	10	2	SIC	373	ABS	0	1	24RO	0	1	5.18679904938	None	None	None	None	1
1.7	2015_Jul_21_0910	s	s	10	2	SIC	374	RC	1	0	23MC	1	0	5.63452100754	-400.0	243.0	-399	237	1
1.7	2015_Jul_21_0910	s	s	10	2	SIC	375	RC	0	1	23RO	1	0	3.84548306465	280.0	290.0	275	296	1
1.7	2015_Jul_21_0910	s	s	10	2	SIC	376	RC	0	2	23RD	1	0	0.658567905426	-165.0	-356.0	-158	-348	1
1.7	2015_Jul_21_0910	s	s	10	2	SIC	377	RC	2	0	23VC	1	0	0.50204706192	302.0	-224.0	300	-223	1
1.7	2015_Jul_21_0910	s	s	10	2	SIC	378	ABS	2	0	24VC	0	1	0.630317926407	None	None	None	None	1
1.7	2015_Jul_21_0910	s	s	10	2	SIC	379	ABS	1	0	24MC	1	0	1.33602499962	None	None	-419	321	0
1.7	2015_Jul_21_0910	s	s	10	2	SIC	380	RC	2	2	23VD	1	0	0.664602041245	-335.0	117.0	-325	115	1
1.7	2015_Jul_21_0910	s	s	10	2	SIC	381	RC	2	1	23VO	1	0	0.579784154892	-145.0	-253.0	-138	-255	1
1.7	2015_Jul_21_0910	s	s	10	2	SIC	382	ABS	0	2	24RD	0	1	1.04679608345	None	None	None	None	1
1.7	2015_Jul_21_0910	s	s	10	2	SIC	383	ABS	2	1	24VO	0	1	0.64680814743	None	None	None	None	1
1.7	2015_Jul_21_0910	s	s	10	2	SIC	384	ABS	1	2	24MD	0	1	1.35304522514	None	None	None	None	1
1.7	2015_Jul_21_0910	s	s	10	2	SIC	385	RC	2	2	23VD	1	0	0.540870189667	-215.0	-174.0	-216	-169	1
1.7	2015_Jul_21_0910	s	s	10	2	SIC	386	RC	1	0	23MC	0	1	3.85435199738	394.0	-302.0	None	None	0
1.7	2015_Jul_21_0910	s	s	10	2	SIC	387	RC	1	2	23MD	1	0	0.599623918533	-398.0	31.0	-398	31	1
1.7	2015_Jul_21_0910	s	s	10	2	SIC	388	RC	0	1	23RO	0	1	7.79747390747	514.0	-373.0	None	None	0
1.7	2015_Jul_21_0910	s	s	10	2	SIC	389	ABS	1	1	24MO	0	1	3.3069050312	None	None	None	None	1
1.7	2015_Jul_21_0910	s	s	10	2	SIC	390	ABS	0	2	24RD	0	1	1.45900392532	None	None	None	None	1
1.7	2015_Jul_21_0910	s	s	10	2	SIC	391	ABS	0	1	24RO	0	1	5.89181280136	None	None	None	None	1
1.7	2015_Jul_21_0910	s	s	10	2	SIC	392	ABS	2	1	24VO	0	1	0.658529996872	None	None	None	None	1
1.7	2015_Jul_21_0910	s	s	10	2	SIC	393	ABS	2	0	24VC	0	1	0.537729978561	None	None	None	None	1
1.7	2015_Jul_21_0910	s	s	10	2	SIC	394	ABS	2	2	24VD	0	1	0.913419961929	None	None	None	None	1
1.7	2015_Jul_21_0910	s	s	10	2	SIC	395	ABS	1	0	24MC	0	1	4.6878080368	None	None	None	None	1
1.7	2015_Jul_21_0910	s	s	10	2	SIC	396	ABS	1	2	24MD	0	1	0.806537866592	None	None	None	None	1
1.7	2015_Jul_21_0910	s	s	10	2	SIC	397	RC	1	1	23MO	1	0	1.0185918808	151.0	270.0	144	272	1
1.7	2015_Jul_21_0910	s	s	10	2	SIC	398	RC	0	2	23RD	1	0	0.890949964523	-533.0	255.0	-531	251	1
1.7	2015_Jul_21_0910	s	s	10	2	SIC	399	RC	2	0	23VC	1	0	0.501238107681	119.0	-79.0	125	-78	1
1.7	2015_Jul_21_0910	s	s	10	2	SIC	400	RC	2	1	23VO	1	0	0.644250869751	153.0	-85.0	149	-86	1
1.7	2015_Jul_21_0910	s	s	10	2	SIC	401	RC	2	2	23VD	1	0	0.514495849609	473.0	290.0	473	286	1
1.7	2015_Jul_21_0910	s	s	10	2	SIC	402	RC	2	1	23VO	1	0	0.440867900848	-297.0	40.0	-294	38	1
1.7	2015_Jul_21_0910	s	s	10	2	SIC	403	RC	0	1	23RO	0	1	2.57711005211	-263.0	246.0	None	None	0
1.7	2015_Jul_21_0910	s	s	10	2	SIC	404	ABS	2	2	24VD	0	1	0.84681391716	None	None	None	None	1
1.7	2015_Jul_21_0910	s	s	10	2	SIC	405	ABS	2	1	24VO	0	1	0.596135139465	None	None	None	None	1
1.7	2015_Jul_21_0910	s	s	10	2	SIC	406	RC	2	0	23VC	1	0	0.529100894928	-256.0	-361.0	-259	-360	1
1.7	2015_Jul_21_0910	s	s	10	2	SIC	407	ABS	0	2	24RD	0	1	1.23172807693	None	None	None	None	1
1.7	2015_Jul_21_0910	s	s	10	2	SIC	408	ABS	1	2	24MD	0	1	0.752520084381	None	None	None	None	1
1.7	2015_Jul_21_0910	s	s	10	2	SIC	409	ABS	2	0	24VC	0	1	0.771316051483	None	None	None	None	1
1.7	2015_Jul_21_0910	s	s	10	2	SIC	410	RC	1	1	23MO	1	0	2.21222805977	-293.0	-342.0	-289	-347	1
1.7	2015_Jul_21_0910	s	s	10	2	SIC	411	ABS	0	1	24RO	0	1	5.03760409355	None	None	None	None	1
1.7	2015_Jul_21_0910	s	s	10	2	SIC	412	ABS	1	1	24MO	0	1	5.1549141407	None	None	None	None	1
1.7	2015_Jul_21_0910	s	s	10	2	SIC	413	RC	0	2	23RD	1	0	0.608705997467	264.0	-32.0	265	-29	1
1.7	2015_Jul_21_0910	s	s	10	2	SIC	414	RC	1	0	23MC	0	1	4.04572296143	402.0	260.0	None	None	0
1.7	2015_Jul_21_0910	s	s	10	2	SIC	415	RC	1	2	23MD	1	0	0.529453039169	-496.0	115.0	-498	116	1
1.7	2015_Jul_21_0910	s	s	10	2	SIC	416	ABS	1	0	24MC	0	1	1.42362213135	None	None	None	None	1
1.7	2015_Jul_21_0910	s	s	10	2	SIC	417	RC	1	1	23MO	1	0	1.41848397255	297.0	-7.0	300	-6	1
1.7	2015_Jul_21_0910	s	s	10	2	SIC	418	RC	0	1	23RO	1	0	1.83543896675	7.0	108.0	-1	114	1
1.7	2015_Jul_21_0910	s	s	10	2	SIC	419	ABS	2	1	24VO	0	1	0.724295854568	None	None	None	None	1
1.7	2015_Jul_21_0910	s	s	10	2	SIC	420	RC	2	0	23VC	1	0	0.688741922379	-536.0	267.0	-532	259	1
1.7	2015_Jul_21_0910	s	s	10	2	SIC	421	ABS	2	0	24VC	0	1	0.584540128708	None	None	None	None	1
1.7	2015_Jul_21_0910	s	s	10	2	SIC	422	ABS	0	1	24RO	0	1	4.32665419579	None	None	None	None	1
1.7	2015_Jul_21_0910	s	s	10	2	SIC	423	ABS	1	2	24MD	0	1	0.818518161774	None	None	None	None	1
1.7	2015_Jul_21_0910	s	s	10	2	SIC	424	RC	2	1	23VO	1	0	0.541286945343	-419.0	-187.0	-413	-181	1
1.7	2015_Jul_21_0910	s	s	10	2	SIC	425	RC	1	2	23MD	1	0	1.4471487999	245.0	118.0	246	113	1
1.7	2015_Jul_21_0910	s	s	10	2	SIC	426	RC	0	2	23RD	1	0	0.50556397438	211.0	41.0	211	41	1
1.7	2015_Jul_21_0910	s	s	10	2	SIC	427	RC	1	0	23MC	0	1	2.63593816757	10.0	294.0	None	None	0
1.7	2015_Jul_21_0910	s	s	10	2	SIC	428	ABS	1	0	24MC	0	1	2.89499187469	None	None	None	None	1
1.7	2015_Jul_21_0910	s	s	10	2	SIC	429	ABS	1	1	24MO	0	1	5.14008998871	None	None	None	None	1
1.7	2015_Jul_21_0910	s	s	10	2	SIC	430	RC	2	2	23VD	1	0	0.576079130173	-57.0	-255.0	-60	-257	1
1.7	2015_Jul_21_0910	s	s	10	2	SIC	431	ABS	0	2	24RD	0	1	1.82414913177	None	None	None	None	1
1.7	2015_Jul_21_0910	s	s	10	2	SIC	432	ABS	2	2	24VD	0	1	0.797338962555	None	None	None	None	1
1.7	2015_Jul_21_0910	s	s	10	2	SIC	433	RC	2	0	23VC	1	0	0.623152017593	53.0	-231.0	61	-230	1
1.7	2015_Jul_21_0910	s	s	10	2	SIC	434	ABS	2	1	24VO	0	1	1.18234109879	None	None	None	None	1
1.7	2015_Jul_21_0910	s	s	10	2	SIC	435	RC	2	1	23VO	1	0	0.59625005722	-393.0	-118.0	-398	-117	1
1.7	2015_Jul_21_0910	s	s	10	2	SIC	436	ABS	2	2	24VD	0	1	1.0677549839	None	None	None	None	1
1.7	2015_Jul_21_0910	s	s	10	2	SIC	437	ABS	1	1	24MO	0	1	5.36385583878	None	None	None	None	1
1.7	2015_Jul_21_0910	s	s	10	2	SIC	438	RC	0	1	23RO	0	1	4.09068989754	-12.0	-367.0	None	None	0
1.7	2015_Jul_21_0910	s	s	10	2	SIC	439	RC	0	2	23RD	1	0	0.641531944275	75.0	-117.0	69	-123	1
1.7	2015_Jul_21_0910	s	s	10	2	SIC	440	RC	1	0	23MC	0	1	2.62416696548	164.0	-1.0	None	None	0
1.7	2015_Jul_21_0910	s	s	10	2	SIC	441	ABS	1	0	24MC	0	1	2.39551591873	None	None	None	None	1
1.7	2015_Jul_21_0910	s	s	10	2	SIC	442	RC	1	1	23MO	1	0	1.39453792572	180.0	-404.0	175	-409	1
1.7	2015_Jul_21_0910	s	s	10	2	SIC	443	ABS	0	1	24RO	0	1	4.7969789505	None	None	None	None	1
1.7	2015_Jul_21_0910	s	s	10	2	SIC	444	ABS	1	2	24MD	0	1	0.641808986664	None	None	None	None	1
1.7	2015_Jul_21_0910	s	s	10	2	SIC	445	RC	1	2	23MD	1	0	0.559403896332	228.0	-125.0	228	-119	1
1.7	2015_Jul_21_0910	s	s	10	2	SIC	446	ABS	2	0	24VC	0	1	0.711760997772	None	None	None	None	1
1.7	2015_Jul_21_0910	s	s	10	2	SIC	447	ABS	0	2	24RD	0	1	0.843637943268	None	None	None	None	1
1.7	2015_Jul_21_0910	s	s	10	2	SIC	448	RC	2	2	23VD	1	0	0.983221054077	-531.0	-88.0	-530	-92	1
1.7	2015_Jul_21_0910	s	s	10	2	SIC	449	ABS	1	1	24MO	0	1	4.25571298599	None	None	None	None	1
1.7	2015_Jul_21_0910	s	s	10	2	SIC	450	RC	2	1	23VO	1	0	1.16230607033	405.0	-32.0	409	-33	1
1.7	2015_Jul_21_0910	s	s	10	2	SIC	451	RC	0	2	23RD	1	0	0.677839994431	213.0	70.0	222	67	1
1.7	2015_Jul_21_0910	s	s	10	2	SIC	452	RC	1	1	23MO	1	0	1.43526482582	-221.0	357.0	-214	359	1
1.7	2015_Jul_21_0910	s	s	10	2	SIC	453	ABS	2	2	24VD	0	1	0.66539812088	None	None	None	None	1
1.7	2015_Jul_21_0910	s	s	10	2	SIC	454	RC	1	2	23MD	1	0	0.579838991165	-50.0	33.0	-56	32	1
1.7	2015_Jul_21_0910	s	s	10	2	SIC	455	ABS	1	0	24MC	0	1	2.2420630455	None	None	None	None	1
1.7	2015_Jul_21_0910	s	s	10	2	SIC	456	ABS	0	2	24RD	0	1	0.611500024796	None	None	None	None	1
1.7	2015_Jul_21_0910	s	s	10	2	SIC	457	ABS	1	2	24MD	0	1	0.547462940216	None	None	None	None	1
1.7	2015_Jul_21_0910	s	s	10	2	SIC	458	RC	2	2	23VD	1	0	0.505546092987	-506.0	391.0	-505	386	1
1.7	2015_Jul_21_0910	s	s	10	2	SIC	459	RC	1	0	23MC	0	1	1.90070915222	106.0	-295.0	None	None	0
1.7	2015_Jul_21_0910	s	s	10	2	SIC	460	RC	2	0	23VC	1	0	0.524522066116	-463.0	-302.0	-461	-294	1
1.7	2015_Jul_21_0910	s	s	10	2	SIC	461	ABS	0	1	24RO	0	1	3.36577105522	None	None	None	None	1
1.7	2015_Jul_21_0910	s	s	10	2	SIC	462	ABS	2	1	24VO	0	1	0.729312181473	None	None	None	None	1
1.7	2015_Jul_21_0910	s	s	10	2	SIC	463	ABS	2	0	24VC	0	1	0.764479160309	None	None	None	None	1
1.7	2015_Jul_21_0910	s	s	10	2	SIC	464	RC	0	1	23RO	0	1	5.08426690102	-391.0	-11.0	None	None	0
1.7	2015_Jul_21_0910	s	s	10	2	SIC	465	RC	1	1	23MO	1	0	1.41918301582	44.0	-64.0	50	-63	1
1.7	2015_Jul_21_0910	s	s	10	2	SIC	466	ABS	1	2	24MD	0	1	0.729115962982	None	None	None	None	1
1.7	2015_Jul_21_0910	s	s	10	2	SIC	467	RC	2	2	23VD	1	0	0.599648952484	413.0	99.0	420	101	1
1.7	2015_Jul_21_0910	s	s	10	2	SIC	468	RC	0	2	23RD	1	0	0.893883228302	-275.0	-313.0	-272	-319	1
1.7	2015_Jul_21_0910	s	s	10	2	SIC	469	ABS	2	0	24VC	0	1	0.737722873688	None	None	None	None	1
1.7	2015_Jul_21_0910	s	s	10	2	SIC	470	ABS	1	0	24MC	0	1	3.35395789146	None	None	None	None	1
1.7	2015_Jul_21_0910	s	s	10	2	SIC	471	RC	1	2	23MD	1	0	0.535633087158	-286.0	167.0	-295	170	1
1.7	2015_Jul_21_0910	s	s	10	2	SIC	472	RC	2	1	23VO	1	0	0.597015142441	130.0	-42.0	137	-43	1
1.7	2015_Jul_21_0910	s	s	10	2	SIC	473	RC	2	0	23VC	1	0	0.493796110153	300.0	-103.0	303	-106	1
1.7	2015_Jul_21_0910	s	s	10	2	SIC	474	ABS	0	1	24RO	0	1	2.57697892189	None	None	None	None	1
1.7	2015_Jul_21_0910	s	s	10	2	SIC	475	ABS	2	1	24VO	0	1	0.929137945175	None	None	None	None	1
1.7	2015_Jul_21_0910	s	s	10	2	SIC	476	ABS	0	2	24RD	0	1	1.21172690392	None	None	None	None	1
1.7	2015_Jul_21_0910	s	s	10	2	SIC	477	ABS	1	1	24MO	0	1	3.11851596832	None	None	None	None	1
1.7	2015_Jul_21_0910	s	s	10	2	SIC	478	ABS	2	2	24VD	0	1	0.541137933731	None	None	None	None	1
1.7	2015_Jul_21_0910	s	s	10	2	SIC	479	RC	0	1	23RO	1	0	2.10622906685	425.0	374.0	424	377	1
1.7	2015_Jul_21_0910	s	s	10	2	SIC	480	RC	1	0	23MC	0	1	2.10127592087	225.0	-246.0	None	None	0
1.7	2015_Jul_21_0910	s	s	10	2	SIC	481	ABS	2	2	24VD	0	1	0.599597215652	None	None	None	None	1
1.7	2015_Jul_21_0910	s	s	10	2	SIC	482	ABS	1	0	24MC	0	1	3.53058385849	None	None	None	None	1
1.7	2015_Jul_21_0910	s	s	10	2	SIC	483	ABS	0	2	24RD	0	1	0.53511595726	None	None	None	None	1
1.7	2015_Jul_21_0910	s	s	10	2	SIC	484	ABS	0	1	24RO	0	1	4.31467199326	None	None	None	None	1
1.7	2015_Jul_21_0910	s	s	10	2	SIC	485	RC	0	2	23RD	1	0	0.587812185287	412.0	248.0	419	244	1
1.7	2015_Jul_21_0910	s	s	10	2	SIC	486	RC	1	2	23MD	1	0	0.679100990295	137.0	-320.0	138	-314	1
1.7	2015_Jul_21_0910	s	s	10	2	SIC	487	ABS	1	1	24MO	0	1	2.39544701576	None	None	None	None	1
1.7	2015_Jul_21_0910	s	s	10	2	SIC	488	RC	2	1	23VO	1	0	0.564348936081	369.0	-298.0	370	-299	1
1.7	2015_Jul_21_0910	s	s	10	2	SIC	489	RC	1	0	23MC	0	1	2.81245493889	311.0	-34.0	None	None	0
1.7	2015_Jul_21_0910	s	s	10	2	SIC	490	RC	1	1	23MO	1	0	1.47124814987	426.0	-12.0	432	-13	1
1.7	2015_Jul_21_0910	s	s	10	2	SIC	491	RC	2	2	23VD	1	0	0.458403110504	58.0	-83.0	51	-86	1
1.7	2015_Jul_21_0910	s	s	10	2	SIC	492	ABS	2	0	24VC	0	1	0.995481014252	None	None	None	None	1
1.7	2015_Jul_21_0910	s	s	10	2	SIC	493	ABS	1	2	24MD	0	1	0.782975912094	None	None	None	None	1
1.7	2015_Jul_21_0910	s	s	10	2	SIC	494	ABS	2	1	24VO	0	1	0.517287015915	None	None	None	None	1
1.7	2015_Jul_21_0910	s	s	10	2	SIC	495	RC	2	0	23VC	1	0	0.641026973724	-96.0	331.0	-101	325	1
1.7	2015_Jul_21_0910	s	s	10	2	SIC	496	RC	0	1	23RO	1	0	5.04456615448	481.0	-186.0	474	-189	1
1.7	2015_Jul_21_0910	s	s	10	2	SIC	497	RC	0	1	23RO	0	1	2.7598528862	458.0	235.0	None	None	0
1.7	2015_Jul_21_0910	s	s	10	2	SIC	498	ABS	2	0	24VC	0	1	1.23525905609	None	None	None	None	1
1.7	2015_Jul_21_0910	s	s	10	2	SIC	499	RC	1	1	23MO	1	0	1.84730386734	-82.0	341.0	-76	340	1
1.7	2015_Jul_21_0910	s	s	10	2	SIC	500	RC	2	0	23VC	1	0	0.607757091522	-305.0	225.0	-306	215	1
1.7	2015_Jul_21_0910	s	s	10	2	SIC	501	RC	2	1	23VO	1	0	0.623152017593	477.0	192.0	477	194	1
1.7	2015_Jul_21_0910	s	s	10	2	SIC	502	RC	2	2	23VD	1	0	0.505560874939	126.0	135.0	129	139	1
1.7	2015_Jul_21_0910	s	s	10	2	SIC	503	RC	0	2	23RD	1	0	0.52897310257	180.0	193.0	185	194	1
1.7	2015_Jul_21_0910	s	s	10	2	SIC	504	ABS	1	0	24MC	0	1	1.36214804649	None	None	None	None	1
1.7	2015_Jul_21_0910	s	s	10	2	SIC	505	ABS	2	1	24VO	0	1	0.670269012451	None	None	None	None	1
1.7	2015_Jul_21_0910	s	s	10	2	SIC	506	RC	1	2	23MD	1	0	0.658943891525	250.0	176.0	257	172	1
1.7	2015_Jul_21_0910	s	s	10	2	SIC	507	RC	1	0	23MC	0	1	1.47075605392	-140.0	241.0	None	None	0
1.7	2015_Jul_21_0910	s	s	10	2	SIC	508	ABS	0	2	24RD	0	1	0.722063064575	None	None	None	None	1
1.7	2015_Jul_21_0910	s	s	10	2	SIC	509	ABS	0	1	24RO	0	1	3.34211111069	None	None	None	None	1
1.7	2015_Jul_21_0910	s	s	10	2	SIC	510	ABS	1	1	24MO	0	1	3.78945183754	None	None	None	None	1
1.7	2015_Jul_21_0910	s	s	10	2	SIC	511	ABS	2	2	24VD	0	1	0.893863916397	None	None	None	None	1
1.7	2015_Jul_21_0910	s	s	10	2	SIC	512	ABS	1	2	24MD	0	1	0.564270973206	None	None	None	None	1
1.7	2015_Jul_21_0910	s	s	10	2	SIC	513	ABS	1	1	24MO	0	1	2.88312888145	None	None	None	None	1
1.7	2015_Jul_21_0910	s	s	10	2	SIC	514	RC	1	0	23MC	0	1	2.69108581543	-332.0	-409.0	None	None	0
1.7	2015_Jul_21_0910	s	s	10	2	SIC	515	RC	1	2	23MD	1	0	0.726221084595	297.0	-305.0	295	-301	1
1.7	2015_Jul_21_0910	s	s	10	2	SIC	516	ABS	0	2	24RD	0	1	0.815274953842	None	None	None	None	1
1.7	2015_Jul_21_0910	s	s	10	2	SIC	517	ABS	2	0	24VC	0	1	0.582515954971	None	None	None	None	1
1.7	2015_Jul_21_0910	s	s	10	2	SIC	518	ABS	2	2	24VD	0	1	0.537862062454	None	None	None	None	1
1.7	2015_Jul_21_0910	s	s	10	2	SIC	519	RC	2	0	23VC	1	0	0.559271097183	206.0	-292.0	204	-302	1
1.7	2015_Jul_21_0910	s	s	10	2	SIC	520	RC	0	2	23RD	1	0	1.18020105362	355.0	383.0	364	386	1
1.7	2015_Jul_21_0910	s	s	10	2	SIC	521	RC	2	2	23VD	1	0	0.505434989929	-363.0	-21.0	-361	-22	1
1.7	2015_Jul_21_0910	s	s	10	2	SIC	522	ABS	1	0	24MC	0	1	1.92710208893	None	None	None	None	1
1.7	2015_Jul_21_0910	s	s	10	2	SIC	523	ABS	2	1	24VO	0	1	1.28951501846	None	None	None	None	1
1.7	2015_Jul_21_0910	s	s	10	2	SIC	524	RC	0	1	23RO	1	0	2.13901185989	-16.0	197.0	-20	195	1
1.7	2015_Jul_21_0910	s	s	10	2	SIC	525	ABS	0	1	24RO	0	1	4.23321604729	None	None	None	None	1
1.7	2015_Jul_21_0910	s	s	10	2	SIC	526	RC	2	1	23VO	1	0	0.564442157745	-163.0	-278.0	-150	-273	1
1.7	2015_Jul_21_0910	s	s	10	2	SIC	527	RC	1	1	23MO	1	0	1.46581602097	531.0	-321.0	533	-323	1
1.7	2015_Jul_21_0910	s	s	10	2	SIC	528	ABS	1	2	24MD	0	1	0.844169855118	None	None	None	None	1
1.7	2015_Jul_21_0910	s	s	10	2	SIC	529	ABS	1	0	24MC	0	1	2.85962295532	None	None	None	None	1
1.7	2015_Jul_21_0910	s	s	10	2	SIC	530	ABS	2	1	24VO	0	1	0.587955951691	None	None	None	None	1
1.7	2015_Jul_21_0910	s	s	10	2	SIC	531	RC	0	2	23RD	1	0	0.634984970093	-97.0	-158.0	-90	-151	1
1.7	2015_Jul_21_0910	s	s	10	2	SIC	532	RC	1	1	23MO	1	0	1.98461890221	-301.0	-68.0	-301	-73	1
1.7	2015_Jul_21_0910	s	s	10	2	SIC	533	ABS	0	1	24RO	0	1	4.90772199631	None	None	None	None	1
1.7	2015_Jul_21_0910	s	s	10	2	SIC	534	RC	1	2	23MD	1	0	0.67392706871	-476.0	114.0	-472	114	1
1.7	2015_Jul_21_0910	s	s	10	2	SIC	535	RC	2	1	23VO	1	0	0.665061950684	-142.0	-189.0	-143	-192	1
1.7	2015_Jul_21_0910	s	s	10	2	SIC	536	ABS	2	0	24VC	0	1	0.717339992523	None	None	None	None	1
1.7	2015_Jul_21_0910	s	s	10	2	SIC	537	RC	2	2	23VD	1	0	0.632552146912	-434.0	16.0	-439	10	1
1.7	2015_Jul_21_0910	s	s	10	2	SIC	538	ABS	0	2	24RD	0	1	1.10019683838	None	None	None	None	1
1.7	2015_Jul_21_0910	s	s	10	2	SIC	539	RC	1	0	23MC	0	1	5.84682297707	-225.0	186.0	None	None	0
1.7	2015_Jul_21_0910	s	s	10	2	SIC	540	ABS	1	1	24MO	0	1	5.26823186874	None	None	None	None	1
1.7	2015_Jul_21_0910	s	s	10	2	SIC	541	ABS	2	2	24VD	0	1	0.536090135574	None	None	None	None	1
1.7	2015_Jul_21_0910	s	s	10	2	SIC	542	ABS	1	2	24MD	0	1	0.782675981522	None	None	None	None	1
1.7	2015_Jul_21_0910	s	s	10	2	SIC	543	RC	2	0	23VC	1	0	0.618016004562	-360.0	-348.0	-352	-350	1
1.7	2015_Jul_21_0910	s	s	10	2	SIC	544	RC	0	1	23RO	0	1	4.96660399437	102.0	118.0	None	None	0
1.7	2015_Jul_21_0910	s	s	10	2	SIC	545	RC	1	1	23MO	1	0	1.39702296257	158.0	85.0	166	79	1
1.7	2015_Jul_21_0910	s	s	10	2	SIC	546	ABS	0	1	24RO	0	1	4.52771282196	None	None	None	None	1
1.7	2015_Jul_21_0910	s	s	10	2	SIC	547	RC	2	0	23VC	1	0	0.729147911072	-133.0	339.0	-126	338	1
1.7	2015_Jul_21_0910	s	s	10	2	SIC	548	RC	2	1	23VO	1	0	0.546937942505	-42.0	223.0	-39	224	1
1.7	2015_Jul_21_0910	s	s	10	2	SIC	549	RC	2	2	23VD	1	0	0.44665813446	-211.0	117.0	-209	107	1
1.7	2015_Jul_21_0910	s	s	10	2	SIC	550	RC	1	2	23MD	1	0	0.960056066513	473.0	-188.0	475	-183	1
1.7	2015_Jul_21_0910	s	s	10	2	SIC	551	ABS	1	1	24MO	0	1	2.9221868515	None	None	None	None	1
1.7	2015_Jul_21_0910	s	s	10	2	SIC	552	RC	0	1	23RO	1	0	0.970865011215	-30.0	260.0	-30	267	1
1.7	2015_Jul_21_0910	s	s	10	2	SIC	553	RC	1	0	23MC	0	1	2.20967197418	323.0	-313.0	None	None	0
1.7	2015_Jul_21_0910	s	s	10	2	SIC	554	ABS	2	1	24VO	0	1	0.740784883499	None	None	None	None	1
1.7	2015_Jul_21_0910	s	s	10	2	SIC	555	ABS	1	0	24MC	0	1	3.02034807205	None	None	None	None	1
1.7	2015_Jul_21_0910	s	s	10	2	SIC	556	ABS	2	2	24VD	0	1	0.547348022461	None	None	None	None	1
1.7	2015_Jul_21_0910	s	s	10	2	SIC	557	ABS	2	0	24VC	0	1	0.576486110687	None	None	None	None	1
1.7	2015_Jul_21_0910	s	s	10	2	SIC	558	ABS	0	2	24RD	0	1	0.517184019089	None	None	None	None	1
1.7	2015_Jul_21_0910	s	s	10	2	SIC	559	RC	0	2	23RD	1	0	0.75825214386	-310.0	-127.0	-306	-124	1
1.7	2015_Jul_21_0910	s	s	10	2	SIC	560	ABS	1	2	24MD	0	1	0.752763032913	None	None	None	None	1
1.7	2015_Jul_21_0910	s	s	10	2	SIC	561	ABS	2	0	24VC	0	1	0.61141204834	None	None	None	None	1
1.7	2015_Jul_21_0910	s	s	10	2	SIC	562	RC	0	1	23RO	1	0	4.19637584686	386.0	-366.0	392	-367	1
1.7	2015_Jul_21_0910	s	s	10	2	SIC	563	RC	2	1	23VO	1	0	0.643197059631	46.0	-321.0	39	-319	1
1.7	2015_Jul_21_0910	s	s	10	2	SIC	564	RC	2	0	23VC	1	0	0.52393913269	-395.0	-381.0	-392	-384	1
1.7	2015_Jul_21_0910	s	s	10	2	SIC	565	ABS	0	1	24RO	0	1	5.76363992691	None	None	None	None	1
1.7	2015_Jul_21_0910	s	s	10	2	SIC	566	RC	0	2	23RD	1	0	0.700524091721	-223.0	56.0	-214	55	1
1.7	2015_Jul_21_0910	s	s	10	2	SIC	567	RC	2	2	23VD	1	0	0.573588848114	395.0	-377.0	396	-380	1
1.7	2015_Jul_21_0910	s	s	10	2	SIC	568	RC	1	1	23MO	0	1	3.22453904152	352.0	125.0	None	None	0
1.7	2015_Jul_21_0910	s	s	10	2	SIC	569	RC	1	0	23MC	0	1	3.68351697922	529.0	-223.0	None	None	0
1.7	2015_Jul_21_0910	s	s	10	2	SIC	570	ABS	1	1	24MO	0	1	3.97299981117	None	None	None	None	1
1.7	2015_Jul_21_0910	s	s	10	2	SIC	571	ABS	0	2	24RD	0	1	0.819941997528	None	None	None	None	1
1.7	2015_Jul_21_0910	s	s	10	2	SIC	572	ABS	2	1	24VO	0	1	0.771045923233	None	None	None	None	1
1.7	2015_Jul_21_0910	s	s	10	2	SIC	573	ABS	1	0	24MC	0	1	3.35134601593	None	None	None	None	1
1.7	2015_Jul_21_0910	s	s	10	2	SIC	574	RC	1	2	23MD	1	0	0.689478874207	-408.0	-205.0	-416	-205	1
1.7	2015_Jul_21_0910	s	s	10	2	SIC	575	ABS	2	2	24VD	0	1	0.526611089706	None	None	None	None	1
1.7	2015_Jul_21_0910	s	s	10	2	SIC	576	ABS	1	2	24MD	0	1	0.717380046844	None	None	None	None	1
1.7	2015_Jul_21_0910	s	s	10	2	SIC	577	RC	1	2	23MD	1	0	0.641327142715	32.0	-269.0	38	-277	1
1.7	2015_Jul_21_0910	s	s	10	2	SIC	578	ABS	0	2	24RD	0	1	0.611488819122	None	None	None	None	1
1.7	2015_Jul_21_0910	s	s	10	2	SIC	579	ABS	0	1	24RO	0	1	5.0576338768	None	None	None	None	1
1.7	2015_Jul_21_0910	s	s	10	2	SIC	580	RC	2	0	23VC	1	0	0.823311090469	380.0	44.0	376	41	1
1.7	2015_Jul_21_0910	s	s	10	2	SIC	581	ABS	1	1	24MO	0	1	3.70187592506	None	None	None	None	1
1.7	2015_Jul_21_0910	s	s	10	2	SIC	582	RC	2	1	23VO	1	0	0.667976140976	-348.0	213.0	-350	208	1
1.7	2015_Jul_21_0910	s	s	10	2	SIC	583	ABS	1	0	24MC	0	1	1.33617901802	None	None	None	None	1
1.7	2015_Jul_21_0910	s	s	10	2	SIC	584	ABS	2	1	24VO	0	1	1.73640799522	None	None	None	None	1
1.7	2015_Jul_21_0910	s	s	10	2	SIC	585	ABS	1	2	24MD	0	1	1.03045296669	None	None	None	None	1
1.7	2015_Jul_21_0910	s	s	10	2	SIC	586	RC	1	1	23MO	1	0	2.12723612785	493.0	391.0	496	390	1
1.7	2015_Jul_21_0910	s	s	10	2	SIC	587	RC	0	1	23RO	0	1	3.62195706367	340.0	-321.0	None	None	0
1.7	2015_Jul_21_0910	s	s	10	2	SIC	588	RC	0	2	23RD	1	0	0.595851898193	-282.0	-252.0	-285	-248	1
1.7	2015_Jul_21_0910	s	s	10	2	SIC	589	ABS	2	2	24VD	0	1	0.770332098007	None	None	None	None	1
1.7	2015_Jul_21_0910	s	s	10	2	SIC	590	ABS	2	0	24VC	0	1	0.740970134735	None	None	None	None	1
1.7	2015_Jul_21_0910	s	s	10	2	SIC	591	RC	1	0	23MC	0	1	3.95439696312	83.0	-20.0	None	None	0
1.7	2015_Jul_21_0910	s	s	10	2	SIC	592	RC	2	2	23VD	1	0	0.653146028519	-501.0	-326.0	-488	-322	1
