Version	Date	Stimuli	Method	Subject	Session	Condition	Trial	Target	Channel1	Channel2	Distractors	LMouseButton	RMouseButton	RT	TargetX	TargetY	ResponseX	ResponseY	Correct
1.7	2015_Jul_23_1207	s	s	11	4	Capacity	1	RC	0	1	23RO	1	0	0.666855812073	-37.0	239.0	-36	228	1
1.7	2015_Jul_23_1207	s	s	11	4	Capacity	2	ABS	0	1	24RO	0	1	3.25487780571	None	None	None	None	1
1.7	2015_Jul_23_1207	s	s	11	4	Capacity	3	ABS	0	2	24RD	0	1	1.00645899773	None	None	None	None	1
1.7	2015_Jul_23_1207	s	s	11	4	Capacity	4	RC	0	2	23RD	1	0	0.57125711441	270.0	-324.0	273	-323	1
1.7	2015_Jul_23_1207	s	s	11	4	Capacity	5	ABS	0	2	24RD	0	1	0.641571998596	None	None	None	None	1
1.7	2015_Jul_23_1207	s	s	11	4	Capacity	6	RC	0	1	23RO	1	0	3.09012198448	399.0	-193.0	394	-197	1
1.7	2015_Jul_23_1207	s	s	11	4	Capacity	7	ABS	0	1	24RO	0	1	3.42466592789	None	None	None	None	1
1.7	2015_Jul_23_1207	s	s	11	4	Capacity	8	RC	0	2	23RD	1	0	1.23513698578	437.0	392.0	444	394	1
1.7	2015_Jul_23_1207	s	s	11	4	Capacity	9	ABS	0	1	24RO	0	1	4.71440505981	None	None	None	None	1
1.7	2015_Jul_23_1207	s	s	11	4	Capacity	10	ABS	0	2	24RD	0	1	1.18326997757	None	None	None	None	1
1.7	2015_Jul_23_1207	s	s	11	4	Capacity	11	RC	0	1	23RO	1	0	1.4068570137	165.0	-193.0	178	-188	1
1.7	2015_Jul_23_1207	s	s	11	4	Capacity	12	RC	0	2	23RD	1	0	0.606556892395	373.0	-69.0	360	-65	1
1.7	2015_Jul_23_1207	s	s	11	4	Capacity	13	RC	0	1	23RO	0	1	5.31617903709	-297.0	265.0	None	None	0
1.7	2015_Jul_23_1207	s	s	11	4	Capacity	14	ABS	0	2	24RD	0	1	1.36482214928	None	None	None	None	1
1.7	2015_Jul_23_1207	s	s	11	4	Capacity	15	ABS	0	1	24RO	0	1	5.82582998276	None	None	None	None	1
1.7	2015_Jul_23_1207	s	s	11	4	Capacity	16	RC	0	2	23RD	1	0	0.517282009125	147.0	210.0	143	211	1
1.7	2015_Jul_23_1207	s	s	11	4	Capacity	17	RC	0	1	23RO	1	0	0.888778924942	285.0	133.0	286	131	1
1.7	2015_Jul_23_1207	s	s	11	4	Capacity	18	ABS	0	1	24RO	0	1	9.23436117172	None	None	None	None	1
1.7	2015_Jul_23_1207	s	s	11	4	Capacity	19	ABS	0	2	24RD	0	1	1.99225997925	None	None	None	None	1
1.7	2015_Jul_23_1207	s	s	11	4	Capacity	20	RC	0	2	23RD	1	0	0.611421108246	486.0	161.0	486	160	1
1.7	2015_Jul_23_1207	s	s	11	4	Capacity	21	RC	0	2	23RD	1	0	0.823287010193	19.0	-252.0	18	-258	1
1.7	2015_Jul_23_1207	s	s	11	4	Capacity	22	RC	0	1	23RO	1	0	5.93854498863	-68.0	225.0	-65	228	1
1.7	2015_Jul_23_1207	s	s	11	4	Capacity	23	ABS	0	2	24RD	0	1	0.858664035797	None	None	None	None	1
1.7	2015_Jul_23_1207	s	s	11	4	Capacity	24	ABS	0	1	24RO	0	1	3.7247300148	None	None	None	None	1
1.7	2015_Jul_23_1207	s	s	11	4	Capacity	25	ABS	0	2	24RD	0	1	1.20681095123	None	None	None	None	1
1.7	2015_Jul_23_1207	s	s	11	4	Capacity	26	RC	0	1	23RO	1	0	2.36281394958	-319.0	287.0	-315	286	1
1.7	2015_Jul_23_1207	s	s	11	4	Capacity	27	ABS	0	1	24RO	0	1	5.65601301193	None	None	None	None	1
1.7	2015_Jul_23_1207	s	s	11	4	Capacity	28	RC	0	2	23RD	1	0	0.611886024475	14.0	-375.0	13	-382	1
1.7	2015_Jul_23_1207	s	s	11	4	Capacity	29	RC	0	1	23RO	1	0	0.688861846924	161.0	-104.0	167	-102	1
1.7	2015_Jul_23_1207	s	s	11	4	Capacity	30	RC	0	2	23RD	1	0	0.571339845657	-243.0	217.0	-249	209	1
1.7	2015_Jul_23_1207	s	s	11	4	Capacity	31	ABS	0	1	24RO	0	1	4.82528614998	None	None	None	None	1
1.7	2015_Jul_23_1207	s	s	11	4	Capacity	32	ABS	0	2	24RD	0	1	0.677025079727	None	None	None	None	1
1.7	2015_Jul_23_1207	s	s	11	4	Capacity	33	RC	0	1	23RO	1	0	1.48222899437	-76.0	368.0	-68	365	1
1.7	2015_Jul_23_1207	s	s	11	4	Capacity	34	ABS	0	2	24RD	0	1	1.26695489883	None	None	None	None	1
1.7	2015_Jul_23_1207	s	s	11	4	Capacity	35	ABS	0	1	24RO	0	1	4.73875188828	None	None	None	None	1
1.7	2015_Jul_23_1207	s	s	11	4	Capacity	36	RC	0	2	23RD	1	0	0.470222949982	234.0	27.0	245	29	1
1.7	2015_Jul_23_1207	s	s	11	4	Capacity	37	RC	0	2	23RD	1	0	0.435026168823	-292.0	37.0	-285	40	1
1.7	2015_Jul_23_1207	s	s	11	4	Capacity	38	ABS	0	1	24RO	0	1	7.69228601456	None	None	None	None	1
1.7	2015_Jul_23_1207	s	s	11	4	Capacity	39	RC	0	1	23RO	1	0	3.13710188866	215.0	395.0	225	404	1
1.7	2015_Jul_23_1207	s	s	11	4	Capacity	40	ABS	0	2	24RD	0	1	0.876272916794	None	None	None	None	1
1.7	2015_Jul_23_1207	s	s	11	4	Capacity	41	ABS	0	1	24RO	0	1	7.02145504951	None	None	None	None	1
1.7	2015_Jul_23_1207	s	s	11	4	Capacity	42	RC	0	2	23RD	1	0	0.540810108185	79.0	-56.0	78	-66	1
1.7	2015_Jul_23_1207	s	s	11	4	Capacity	43	RC	0	1	23RO	1	0	2.87133812904	339.0	369.0	340	370	1
1.7	2015_Jul_23_1207	s	s	11	4	Capacity	44	ABS	0	2	24RD	0	1	0.658496856689	None	None	None	None	1
1.7	2015_Jul_23_1207	s	s	11	4	Capacity	45	RC	0	2	23RD	1	0	0.559489965439	534.0	-13.0	537	-7	1
1.7	2015_Jul_23_1207	s	s	11	4	Capacity	46	ABS	0	2	24RD	0	1	0.940915107727	None	None	None	None	1
1.7	2015_Jul_23_1207	s	s	11	4	Capacity	47	RC	0	1	23RO	0	1	6.75001096725	457.0	-170.0	None	None	0
1.7	2015_Jul_23_1207	s	s	11	4	Capacity	48	ABS	0	1	24RO	0	1	7.06172704697	None	None	None	None	1
1.7	2015_Jul_23_1207	s	s	11	4	Capacity	49	ABS	0	2	24RD	0	1	1.15950393677	None	None	None	None	1
1.7	2015_Jul_23_1207	s	s	11	4	Capacity	50	ABS	0	1	24RO	0	1	4.3979780674	None	None	None	None	1
1.7	2015_Jul_23_1207	s	s	11	4	Capacity	51	RC	0	1	23RO	1	0	1.32946681976	-445.0	-108.0	-440	-111	1
1.7	2015_Jul_23_1207	s	s	11	4	Capacity	52	RC	0	2	23RD	1	0	0.544492959976	-50.0	-218.0	-49	-219	1
1.7	2015_Jul_23_1207	s	s	11	4	Capacity	53	ABS	0	2	24RD	0	1	0.712224960327	None	None	None	None	1
1.7	2015_Jul_23_1207	s	s	11	4	Capacity	54	ABS	0	1	24RO	0	1	6.63476800919	None	None	None	None	1
1.7	2015_Jul_23_1207	s	s	11	4	Capacity	55	RC	0	1	23RO	1	0	1.01862597466	-265.0	-188.0	-256	-189	1
1.7	2015_Jul_23_1207	s	s	11	4	Capacity	56	RC	0	2	23RD	1	0	0.547559976578	374.0	6.0	369	7	1
1.7	2015_Jul_23_1207	s	s	11	4	Capacity	57	ABS	0	2	24RD	0	1	0.891012907028	None	None	None	None	1
1.7	2015_Jul_23_1207	s	s	11	4	Capacity	58	ABS	0	1	24RO	0	1	4.99618411064	None	None	None	None	1
1.7	2015_Jul_23_1207	s	s	11	4	Capacity	59	RC	0	2	23RD	1	0	0.46701002121	116.0	-51.0	116	-41	1
1.7	2015_Jul_23_1207	s	s	11	4	Capacity	60	RC	0	1	23RO	1	0	2.81969499588	-150.0	-245.0	-154	-251	1
1.7	2015_Jul_23_1207	s	s	11	4	Capacity	61	ABS	0	2	24RD	0	1	0.724001169205	None	None	None	None	1
1.7	2015_Jul_23_1207	s	s	11	4	Capacity	62	RC	0	1	23RO	1	0	3.17742300034	92.0	-238.0	106	-233	1
1.7	2015_Jul_23_1207	s	s	11	4	Capacity	63	RC	0	2	23RD	1	0	0.52894616127	-463.0	19.0	-454	16	1
1.7	2015_Jul_23_1207	s	s	11	4	Capacity	64	ABS	0	1	24RO	0	1	4.91949415207	None	None	None	None	1
1.7	2015_Jul_23_1207	s	s	11	4	Capacity	65	RC	0	1	23RO	1	0	1.45888996124	134.0	222.0	139	225	1
1.7	2015_Jul_23_1207	s	s	11	4	Capacity	66	ABS	0	1	24RO	0	1	4.88413906097	None	None	None	None	1
1.7	2015_Jul_23_1207	s	s	11	4	Capacity	67	ABS	0	2	24RD	0	1	0.717434883118	None	None	None	None	1
1.7	2015_Jul_23_1207	s	s	11	4	Capacity	68	RC	0	2	23RD	1	0	0.564363002777	-242.0	244.0	-234	246	1
1.7	2015_Jul_23_1207	s	s	11	4	Capacity	69	RC	0	2	23RD	1	0	0.576215028763	202.0	-391.0	211	-388	1
1.7	2015_Jul_23_1207	s	s	11	4	Capacity	70	ABS	0	2	24RD	0	1	1.03282094002	None	None	None	None	1
1.7	2015_Jul_23_1207	s	s	11	4	Capacity	71	ABS	0	1	24RO	0	1	8.08084416389	None	None	None	None	1
1.7	2015_Jul_23_1207	s	s	11	4	Capacity	72	RC	0	1	23RO	1	0	1.85908794403	482.0	392.0	492	400	1
1.7	2015_Jul_23_1207	s	s	11	4	Capacity	73	RC	0	2	23RD	1	0	1.04237294197	-494.0	-202.0	-485	-203	1
1.7	2015_Jul_23_1207	s	s	11	4	Capacity	74	ABS	0	2	24RD	0	1	0.697543859482	None	None	None	None	1
1.7	2015_Jul_23_1207	s	s	11	4	Capacity	75	ABS	0	1	24RO	0	1	4.10724306107	None	None	None	None	1
1.7	2015_Jul_23_1207	s	s	11	4	Capacity	76	RC	0	1	23RO	1	0	1.34795999527	-267.0	-309.0	-256	-309	1
1.7	2015_Jul_23_1207	s	s	11	4	Capacity	77	RC	0	1	23RO	1	0	4.0012140274	-372.0	192.0	-378	184	1
1.7	2015_Jul_23_1207	s	s	11	4	Capacity	78	RC	0	2	23RD	1	0	0.488806009293	189.0	15.0	189	16	1
1.7	2015_Jul_23_1207	s	s	11	4	Capacity	79	ABS	0	1	24RO	0	1	4.53934192657	None	None	None	None	1
1.7	2015_Jul_23_1207	s	s	11	4	Capacity	80	ABS	0	2	24RD	0	1	0.764271974564	None	None	None	None	1
1.7	2015_Jul_23_1207	s	s	11	4	Capacity	81	ABS	0	2	24RD	0	1	1.07420086861	None	None	None	None	1
1.7	2015_Jul_23_1207	s	s	11	4	Capacity	82	RC	0	1	23RO	1	0	0.924424886703	200.0	-145.0	204	-144	1
1.7	2015_Jul_23_1207	s	s	11	4	Capacity	83	RC	0	2	23RD	1	0	0.599853038788	524.0	332.0	520	327	1
1.7	2015_Jul_23_1207	s	s	11	4	Capacity	84	ABS	0	1	24RO	0	1	4.65551185608	None	None	None	None	1
1.7	2015_Jul_23_1207	s	s	11	4	Capacity	85	ABS	0	1	24RO	0	1	7.36764907837	None	None	None	None	1
1.7	2015_Jul_23_1207	s	s	11	4	Capacity	86	RC	0	1	23RO	1	0	3.3949110508	-197.0	-289.0	-192	-290	1
1.7	2015_Jul_23_1207	s	s	11	4	Capacity	87	RC	0	2	23RD	1	0	0.538448095322	-312.0	394.0	-302	393	1
1.7	2015_Jul_23_1207	s	s	11	4	Capacity	88	ABS	0	2	24RD	0	1	0.759541034698	None	None	None	None	1
1.7	2015_Jul_23_1207	s	s	11	4	Capacity	89	RC	0	1	23RO	1	0	1.78844094276	236.0	28.0	241	25	1
1.7	2015_Jul_23_1207	s	s	11	4	Capacity	90	RC	0	2	23RD	1	0	0.67031288147	520.0	-368.0	521	-368	1
1.7	2015_Jul_23_1207	s	s	11	4	Capacity	91	ABS	0	2	24RD	0	1	1.39486908913	None	None	None	None	1
1.7	2015_Jul_23_1207	s	s	11	4	Capacity	92	ABS	0	1	24RO	0	1	6.27002286911	None	None	None	None	1
1.7	2015_Jul_23_1207	s	s	11	4	Capacity	1	ABS	1	0	24MC	0	1	0.729176044464	None	None	None	None	1
1.7	2015_Jul_23_1207	s	s	11	4	Capacity	2	RC	2	0	23VC	1	0	0.493725061417	270.0	-108.0	270	-119	1
1.7	2015_Jul_23_1207	s	s	11	4	Capacity	3	RC	1	0	23MC	1	0	0.940991163254	125.0	153.0	127	149	1
1.7	2015_Jul_23_1207	s	s	11	4	Capacity	4	ABS	2	0	24VC	0	1	0.86353302002	None	None	None	None	1
1.7	2015_Jul_23_1207	s	s	11	4	Capacity	5	RC	2	0	23VC	1	0	0.517349004745	-384.0	162.0	-389	169	1
1.7	2015_Jul_23_1207	s	s	11	4	Capacity	6	ABS	2	0	24VC	0	1	0.59485912323	None	None	None	None	1
1.7	2015_Jul_23_1207	s	s	11	4	Capacity	7	RC	1	0	23MC	1	0	0.709875106812	-262.0	-187.0	-265	-192	1
1.7	2015_Jul_23_1207	s	s	11	4	Capacity	8	ABS	1	0	24MC	0	1	0.714135169983	None	None	None	None	1
1.7	2015_Jul_23_1207	s	s	11	4	Capacity	9	RC	2	0	23VC	1	0	0.419777154922	425.0	13.0	424	17	1
1.7	2015_Jul_23_1207	s	s	11	4	Capacity	10	ABS	2	0	24VC	0	1	0.82328414917	None	None	None	None	1
1.7	2015_Jul_23_1207	s	s	11	4	Capacity	11	RC	1	0	23MC	1	0	0.45515704155	371.0	214.0	370	213	1
1.7	2015_Jul_23_1207	s	s	11	4	Capacity	12	ABS	1	0	24MC	0	1	0.893822908401	None	None	None	None	1
1.7	2015_Jul_23_1207	s	s	11	4	Capacity	13	ABS	2	0	24VC	0	1	0.58789896965	None	None	None	None	1
1.7	2015_Jul_23_1207	s	s	11	4	Capacity	14	ABS	1	0	24MC	0	1	1.31769514084	None	None	None	None	1
1.7	2015_Jul_23_1207	s	s	11	4	Capacity	15	RC	2	0	23VC	1	0	0.453455209732	-356.0	-316.0	-353	-317	1
1.7	2015_Jul_23_1207	s	s	11	4	Capacity	16	RC	1	0	23MC	1	0	0.524255037308	-399.0	-407.0	-391	-410	1
1.7	2015_Jul_23_1207	s	s	11	4	Capacity	17	RC	2	0	23VC	1	0	0.405404090881	-285.0	-85.0	-286	-81	1
1.7	2015_Jul_23_1207	s	s	11	4	Capacity	18	ABS	2	0	24VC	0	1	0.623266935349	None	None	None	None	1
1.7	2015_Jul_23_1207	s	s	11	4	Capacity	19	ABS	1	0	24MC	0	1	1.41185808182	None	None	None	None	1
1.7	2015_Jul_23_1207	s	s	11	4	Capacity	20	RC	1	0	23MC	1	0	0.552626132965	333.0	120.0	344	122	1
1.7	2015_Jul_23_1207	s	s	11	4	Capacity	21	ABS	1	0	24MC	0	1	1.30103898048	None	None	None	None	1
1.7	2015_Jul_23_1207	s	s	11	4	Capacity	22	ABS	2	0	24VC	0	1	0.667840957642	None	None	None	None	1
1.7	2015_Jul_23_1207	s	s	11	4	Capacity	23	RC	1	0	23MC	1	0	0.764448881149	-15.0	-105.0	-17	-108	1
1.7	2015_Jul_23_1207	s	s	11	4	Capacity	24	RC	2	0	23VC	1	0	0.418174028397	-163.0	-389.0	-163	-388	1
1.7	2015_Jul_23_1207	s	s	11	4	Capacity	25	ABS	1	0	24MC	0	1	2.17401790619	None	None	None	None	1
1.7	2015_Jul_23_1207	s	s	11	4	Capacity	26	RC	2	0	23VC	1	0	0.493684053421	383.0	-246.0	374	-247	1
1.7	2015_Jul_23_1207	s	s	11	4	Capacity	27	RC	1	0	23MC	1	0	0.549608945847	58.0	7.0	48	11	1
1.7	2015_Jul_23_1207	s	s	11	4	Capacity	28	ABS	2	0	24VC	1	0	0.441661834717	None	None	-36	48	0
1.7	2015_Jul_23_1207	s	s	11	4	Capacity	29	RC	2	0	23VC	1	0	0.453107833862	261.0	222.0	258	217	1
1.7	2015_Jul_23_1207	s	s	11	4	Capacity	30	ABS	1	0	24MC	0	1	1.31515192986	None	None	None	None	1
1.7	2015_Jul_23_1207	s	s	11	4	Capacity	31	RC	1	0	23MC	1	0	0.776277780533	-495.0	-185.0	-492	-185	1
1.7	2015_Jul_23_1207	s	s	11	4	Capacity	32	ABS	2	0	24VC	0	1	1.0116109848	None	None	None	None	1
1.7	2015_Jul_23_1207	s	s	11	4	Capacity	33	ABS	1	0	24MC	0	1	1.23281598091	None	None	None	None	1
1.7	2015_Jul_23_1207	s	s	11	4	Capacity	34	RC	1	0	23MC	1	0	0.900488138199	329.0	-39.0	326	-40	1
1.7	2015_Jul_23_1207	s	s	11	4	Capacity	35	ABS	2	0	24VC	0	1	0.807955026627	None	None	None	None	1
1.7	2015_Jul_23_1207	s	s	11	4	Capacity	36	RC	2	0	23VC	1	0	0.41135597229	-423.0	-26.0	-417	-28	1
1.7	2015_Jul_23_1207	s	s	11	4	Capacity	37	ABS	2	0	24VC	0	1	0.729166984558	None	None	None	None	1
1.7	2015_Jul_23_1207	s	s	11	4	Capacity	38	RC	1	0	23MC	1	0	2.1954870224	-167.0	-166.0	-163	-169	1
1.7	2015_Jul_23_1207	s	s	11	4	Capacity	39	RC	2	0	23VC	1	0	0.441747903824	-270.0	-202.0	-262	-202	1
1.7	2015_Jul_23_1207	s	s	11	4	Capacity	40	ABS	1	0	24MC	0	1	1.70052695274	None	None	None	None	1
1.7	2015_Jul_23_1207	s	s	11	4	Capacity	41	RC	2	0	23VC	1	0	0.470175027847	-498.0	348.0	-489	346	1
1.7	2015_Jul_23_1207	s	s	11	4	Capacity	42	RC	1	0	23MC	1	0	0.617486000061	261.0	22.0	264	21	1
1.7	2015_Jul_23_1207	s	s	11	4	Capacity	43	ABS	1	0	24MC	0	1	4.83707714081	None	None	None	None	1
1.7	2015_Jul_23_1207	s	s	11	4	Capacity	44	ABS	2	0	24VC	0	1	1.01156997681	None	None	None	None	1
1.7	2015_Jul_23_1207	s	s	11	4	Capacity	45	RC	1	0	23MC	1	0	1.69138002396	81.0	219.0	83	218	1
1.7	2015_Jul_23_1207	s	s	11	4	Capacity	46	ABS	2	0	24VC	0	1	0.805876016617	None	None	None	None	1
1.7	2015_Jul_23_1207	s	s	11	4	Capacity	47	RC	2	0	23VC	1	0	0.438585042953	-271.0	361.0	-278	363	1
1.7	2015_Jul_23_1207	s	s	11	4	Capacity	48	ABS	1	0	24MC	0	1	2.31815886497	None	None	None	None	1
1.7	2015_Jul_23_1207	s	s	11	4	Capacity	49	RC	2	0	23VC	1	0	0.453421831131	308.0	73.0	314	77	1
1.7	2015_Jul_23_1207	s	s	11	4	Capacity	50	RC	1	0	23MC	1	0	5.53828716278	68.0	-285.0	59	-281	1
1.7	2015_Jul_23_1207	s	s	11	4	Capacity	51	ABS	1	0	24MC	0	1	0.126174926758	None	None	None	None	1
1.7	2015_Jul_23_1207	s	s	11	4	Capacity	52	ABS	2	0	24VC	0	1	0.552888154984	None	None	None	None	1
1.7	2015_Jul_23_1207	s	s	11	4	Capacity	53	ABS	2	0	24VC	0	1	0.971337080002	None	None	None	None	1
1.7	2015_Jul_23_1207	s	s	11	4	Capacity	54	ABS	1	0	24MC	0	1	2.33692288399	None	None	None	None	1
1.7	2015_Jul_23_1207	s	s	11	4	Capacity	55	RC	2	0	23VC	1	0	0.513495922089	-109.0	-216.0	-110	-224	1
1.7	2015_Jul_23_1207	s	s	11	4	Capacity	56	RC	1	0	23MC	1	0	0.947719812393	-479.0	103.0	-482	110	1
1.7	2015_Jul_23_1207	s	s	11	4	Capacity	57	ABS	1	0	24MC	0	1	1.08815908432	None	None	None	None	1
1.7	2015_Jul_23_1207	s	s	11	4	Capacity	58	RC	2	0	23VC	1	0	0.458489894867	-530.0	182.0	-529	184	1
1.7	2015_Jul_23_1207	s	s	11	4	Capacity	59	ABS	2	0	24VC	0	1	0.615107059479	None	None	None	None	1
1.7	2015_Jul_23_1207	s	s	11	4	Capacity	60	RC	1	0	23MC	1	0	0.712195158005	271.0	15.0	279	24	1
1.7	2015_Jul_23_1207	s	s	11	4	Capacity	61	ABS	1	0	24MC	0	1	2.33679580688	None	None	None	None	1
1.7	2015_Jul_23_1207	s	s	11	4	Capacity	62	ABS	2	0	24VC	0	1	0.582893848419	None	None	None	None	1
1.7	2015_Jul_23_1207	s	s	11	4	Capacity	63	RC	1	0	23MC	1	0	0.98303604126	206.0	-243.0	210	-242	1
1.7	2015_Jul_23_1207	s	s	11	4	Capacity	64	RC	2	0	23VC	1	0	0.464323997498	177.0	291.0	181	294	1
1.7	2015_Jul_23_1207	s	s	11	4	Capacity	65	RC	1	0	23MC	1	0	0.724200963974	-405.0	-21.0	-402	-18	1
1.7	2015_Jul_23_1207	s	s	11	4	Capacity	66	RC	2	0	23VC	1	0	0.40634894371	-293.0	-51.0	-287	-45	1
1.7	2015_Jul_23_1207	s	s	11	4	Capacity	67	ABS	2	0	24VC	0	1	0.631493091583	None	None	None	None	1
1.7	2015_Jul_23_1207	s	s	11	4	Capacity	68	ABS	1	0	24MC	0	1	2.27963590622	None	None	None	None	1
1.7	2015_Jul_23_1207	s	s	11	4	Capacity	69	RC	2	0	23VC	1	0	0.465092897415	54.0	86.0	51	80	1
1.7	2015_Jul_23_1207	s	s	11	4	Capacity	70	ABS	2	0	24VC	0	1	0.700513124466	None	None	None	None	1
1.7	2015_Jul_23_1207	s	s	11	4	Capacity	71	RC	1	0	23MC	1	0	1.26545095444	-274.0	409.0	-269	403	1
1.7	2015_Jul_23_1207	s	s	11	4	Capacity	72	ABS	1	0	24MC	0	1	4.87849879265	None	None	None	None	1
1.7	2015_Jul_23_1207	s	s	11	4	Capacity	73	RC	2	0	23VC	1	0	0.670324087143	233.0	-213.0	233	-212	1
1.7	2015_Jul_23_1207	s	s	11	4	Capacity	74	ABS	2	0	24VC	0	1	0.783076047897	None	None	None	None	1
1.7	2015_Jul_23_1207	s	s	11	4	Capacity	75	RC	1	0	23MC	1	0	0.882157087326	-211.0	15.0	-205	23	1
1.7	2015_Jul_23_1207	s	s	11	4	Capacity	76	ABS	1	0	24MC	0	1	2.18873500824	None	None	None	None	1
1.7	2015_Jul_23_1207	s	s	11	4	Capacity	77	RC	2	0	23VC	1	0	0.429857969284	-414.0	6.0	-421	8	1
1.7	2015_Jul_23_1207	s	s	11	4	Capacity	78	RC	1	0	23MC	1	0	0.572462081909	-534.0	-360.0	-526	-353	1
1.7	2015_Jul_23_1207	s	s	11	4	Capacity	79	ABS	2	0	24VC	0	1	0.717490196228	None	None	None	None	1
1.7	2015_Jul_23_1207	s	s	11	4	Capacity	80	ABS	1	0	24MC	0	1	2.01210999489	None	None	None	None	1
1.7	2015_Jul_23_1207	s	s	11	4	Capacity	81	RC	1	0	23MC	0	1	2.57195591927	2.0	56.0	None	None	0
1.7	2015_Jul_23_1207	s	s	11	4	Capacity	82	RC	2	0	23VC	1	0	0.535480976105	406.0	-274.0	403	-280	1
1.7	2015_Jul_23_1207	s	s	11	4	Capacity	83	ABS	1	0	24MC	0	1	1.02909088135	None	None	None	None	1
1.7	2015_Jul_23_1207	s	s	11	4	Capacity	84	ABS	2	0	24VC	0	1	0.670216083527	None	None	None	None	1
1.7	2015_Jul_23_1207	s	s	11	4	Capacity	85	ABS	1	0	24MC	0	1	1.63547897339	None	None	None	None	1
1.7	2015_Jul_23_1207	s	s	11	4	Capacity	86	RC	1	0	23MC	1	0	0.505424976349	452.0	234.0	456	234	1
1.7	2015_Jul_23_1207	s	s	11	4	Capacity	87	ABS	2	0	24VC	0	1	0.729105949402	None	None	None	None	1
1.7	2015_Jul_23_1207	s	s	11	4	Capacity	88	RC	2	0	23VC	1	0	0.540844917297	228.0	-191.0	229	-190	1
1.7	2015_Jul_23_1207	s	s	11	4	Capacity	89	ABS	1	0	24MC	0	1	1.83041405678	None	None	None	None	1
1.7	2015_Jul_23_1207	s	s	11	4	Capacity	90	RC	1	0	23MC	1	0	0.493940114975	-113.0	228.0	-111	221	1
1.7	2015_Jul_23_1207	s	s	11	4	Capacity	91	RC	2	0	23VC	1	0	0.428461074829	239.0	-281.0	242	-287	1
1.7	2015_Jul_23_1207	s	s	11	4	Capacity	92	ABS	2	0	24VC	0	1	0.673872232437	None	None	None	None	1
1.7	2015_Jul_23_1207	s	s	11	4	SIC	1	RC	2	1	23VO	1	0	0.45329117775	-310.0	150.0	-311	142	1
1.7	2015_Jul_23_1207	s	s	11	4	SIC	2	ABS	0	1	24RO	0	1	2.60064601898	None	None	None	None	1
1.7	2015_Jul_23_1207	s	s	11	4	SIC	3	ABS	0	2	24RD	0	1	0.594566106796	None	None	None	None	1
1.7	2015_Jul_23_1207	s	s	11	4	SIC	4	ABS	2	0	24VC	0	1	0.581493854523	None	None	None	None	1
1.7	2015_Jul_23_1207	s	s	11	4	SIC	5	RC	2	2	23VD	1	0	0.582284927368	22.0	-226.0	22	-221	1
1.7	2015_Jul_23_1207	s	s	11	4	SIC	6	ABS	1	1	24MO	0	1	0.783089160919	None	None	None	None	1
1.7	2015_Jul_23_1207	s	s	11	4	SIC	7	ABS	1	0	24MC	0	1	1.31215000153	None	None	None	None	1
1.7	2015_Jul_23_1207	s	s	11	4	SIC	8	RC	2	0	23VC	1	0	0.587847948074	-50.0	-230.0	-52	-226	1
1.7	2015_Jul_23_1207	s	s	11	4	SIC	9	RC	0	2	23RD	1	0	0.54082608223	494.0	253.0	494	254	1
1.7	2015_Jul_23_1207	s	s	11	4	SIC	10	RC	1	0	23MC	1	0	0.888828039169	-389.0	186.0	-382	190	1
1.7	2015_Jul_23_1207	s	s	11	4	SIC	11	RC	1	1	23MO	1	0	1.04175496101	-103.0	-348.0	-113	-350	1
1.7	2015_Jul_23_1207	s	s	11	4	SIC	12	RC	1	2	23MD	1	0	0.502751111984	190.0	293.0	188	282	1
1.7	2015_Jul_23_1207	s	s	11	4	SIC	13	ABS	1	2	24MD	0	1	0.689341068268	None	None	None	None	1
1.7	2015_Jul_23_1207	s	s	11	4	SIC	14	RC	0	1	23RO	1	0	1.65420413017	470.0	-381.0	466	-375	1
1.7	2015_Jul_23_1207	s	s	11	4	SIC	15	ABS	2	2	24VD	0	1	0.682114124298	None	None	None	None	1
1.7	2015_Jul_23_1207	s	s	11	4	SIC	16	ABS	2	1	24VO	0	1	0.466573953629	None	None	None	None	1
1.7	2015_Jul_23_1207	s	s	11	4	SIC	17	RC	2	1	23VO	1	0	0.446666955948	328.0	153.0	325	153	1
1.7	2015_Jul_23_1207	s	s	11	4	SIC	18	ABS	1	0	24MC	0	1	2.71363592148	None	None	None	None	1
1.7	2015_Jul_23_1207	s	s	11	4	SIC	19	ABS	2	2	24VD	0	1	0.52911901474	None	None	None	None	1
1.7	2015_Jul_23_1207	s	s	11	4	SIC	20	RC	1	1	23MO	1	0	1.6473441124	532.0	-323.0	538	-325	1
1.7	2015_Jul_23_1207	s	s	11	4	SIC	21	RC	1	0	23MC	1	0	0.741035938263	523.0	-224.0	526	-221	1
1.7	2015_Jul_23_1207	s	s	11	4	SIC	22	ABS	0	1	24RO	0	1	4.91936206818	None	None	None	None	1
1.7	2015_Jul_23_1207	s	s	11	4	SIC	23	RC	1	2	23MD	1	0	0.505360841751	-498.0	-217.0	-505	-216	1
1.7	2015_Jul_23_1207	s	s	11	4	SIC	24	ABS	2	1	24VO	0	1	0.6185297966	None	None	None	None	1
1.7	2015_Jul_23_1207	s	s	11	4	SIC	25	ABS	0	2	24RD	0	1	2.14835906029	None	None	None	None	1
1.7	2015_Jul_23_1207	s	s	11	4	SIC	26	ABS	1	2	24MD	0	1	0.724378108978	None	None	None	None	1
1.7	2015_Jul_23_1207	s	s	11	4	SIC	27	ABS	2	0	24VC	0	1	0.611456871033	None	None	None	None	1
1.7	2015_Jul_23_1207	s	s	11	4	SIC	28	ABS	1	1	24MO	0	1	1.62035083771	None	None	None	None	1
1.7	2015_Jul_23_1207	s	s	11	4	SIC	29	RC	2	0	23VC	1	0	0.517259120941	494.0	258.0	500	257	1
1.7	2015_Jul_23_1207	s	s	11	4	SIC	30	RC	0	1	23RO	1	0	2.56521582603	-405.0	-371.0	-412	-373	1
1.7	2015_Jul_23_1207	s	s	11	4	SIC	31	RC	2	2	23VD	1	0	0.418269872665	-196.0	308.0	-186	308	1
1.7	2015_Jul_23_1207	s	s	11	4	SIC	32	RC	0	2	23RD	1	0	0.465159893036	-527.0	228.0	-525	227	1
1.7	2015_Jul_23_1207	s	s	11	4	SIC	33	RC	1	0	23MC	1	0	1.31341409683	409.0	271.0	405	268	1
1.7	2015_Jul_23_1207	s	s	11	4	SIC	34	ABS	1	1	24MO	0	1	1.3647248745	None	None	None	None	1
1.7	2015_Jul_23_1207	s	s	11	4	SIC	35	RC	2	0	23VC	1	0	0.77152299881	238.0	-166.0	236	-160	1
1.7	2015_Jul_23_1207	s	s	11	4	SIC	36	ABS	1	0	24MC	0	1	2.5016579628	None	None	None	None	1
1.7	2015_Jul_23_1207	s	s	11	4	SIC	37	ABS	2	0	24VC	0	1	0.540783166885	None	None	None	None	1
1.7	2015_Jul_23_1207	s	s	11	4	SIC	38	ABS	2	2	24VD	0	1	0.588352918625	None	None	None	None	1
1.7	2015_Jul_23_1207	s	s	11	4	SIC	39	RC	0	1	23RO	1	0	3.36123585701	136.0	409.0	142	404	1
1.7	2015_Jul_23_1207	s	s	11	4	SIC	40	ABS	0	1	24RO	0	1	3.92717599869	None	None	None	None	1
1.7	2015_Jul_23_1207	s	s	11	4	SIC	41	RC	1	1	23MO	0	1	0.888998031616	-333.0	-288.0	None	None	0
1.7	2015_Jul_23_1207	s	s	11	4	SIC	42	RC	1	2	23MD	1	0	0.4937748909	-450.0	160.0	-451	147	1
1.7	2015_Jul_23_1207	s	s	11	4	SIC	43	RC	0	2	23RD	1	0	0.477178096771	530.0	-206.0	535	-204	1
1.7	2015_Jul_23_1207	s	s	11	4	SIC	44	RC	2	1	23VO	1	0	1.00597190857	-158.0	-149.0	-167	-146	1
1.7	2015_Jul_23_1207	s	s	11	4	SIC	45	RC	2	2	23VD	1	0	0.411288976669	245.0	50.0	250	49	1
1.7	2015_Jul_23_1207	s	s	11	4	SIC	46	ABS	2	1	24VO	0	1	0.618395090103	None	None	None	None	1
1.7	2015_Jul_23_1207	s	s	11	4	SIC	47	ABS	1	2	24MD	0	1	0.688650131226	None	None	None	None	1
1.7	2015_Jul_23_1207	s	s	11	4	SIC	48	ABS	0	2	24RD	0	1	0.938076972961	None	None	None	None	1
1.7	2015_Jul_23_1207	s	s	11	4	SIC	49	ABS	0	2	24RD	0	1	0.952768087387	None	None	None	None	1
1.7	2015_Jul_23_1207	s	s	11	4	SIC	50	ABS	0	1	24RO	0	1	4.15166211128	None	None	None	None	1
1.7	2015_Jul_23_1207	s	s	11	4	SIC	51	RC	1	2	23MD	1	0	0.505522966385	-143.0	310.0	-137	307	1
1.7	2015_Jul_23_1207	s	s	11	4	SIC	52	ABS	2	1	24VO	0	1	0.576140880585	None	None	None	None	1
1.7	2015_Jul_23_1207	s	s	11	4	SIC	53	RC	0	1	23RO	1	0	0.941071987152	305.0	302.0	299	304	1
1.7	2015_Jul_23_1207	s	s	11	4	SIC	54	RC	2	1	23VO	1	0	0.505483150482	-144.0	328.0	-133	336	1
1.7	2015_Jul_23_1207	s	s	11	4	SIC	55	RC	0	2	23RD	1	0	0.700004816055	477.0	160.0	474	160	1
1.7	2015_Jul_23_1207	s	s	11	4	SIC	56	RC	1	1	23MO	1	0	1.11756801605	-142.0	247.0	-130	250	1
1.7	2015_Jul_23_1207	s	s	11	4	SIC	57	ABS	1	1	24MO	0	1	0.889400959015	None	None	None	None	1
1.7	2015_Jul_23_1207	s	s	11	4	SIC	58	RC	2	2	23VD	1	0	0.47027182579	-283.0	218.0	-275	226	1
1.7	2015_Jul_23_1207	s	s	11	4	SIC	59	RC	2	0	23VC	1	0	0.462097167969	-444.0	-38.0	-440	-42	1
1.7	2015_Jul_23_1207	s	s	11	4	SIC	60	ABS	1	0	24MC	0	1	1.61876988411	None	None	None	None	1
1.7	2015_Jul_23_1207	s	s	11	4	SIC	61	RC	1	0	23MC	1	0	0.891360044479	-356.0	-360.0	-354	-369	1
1.7	2015_Jul_23_1207	s	s	11	4	SIC	62	ABS	1	2	24MD	0	1	0.902263879776	None	None	None	None	1
1.7	2015_Jul_23_1207	s	s	11	4	SIC	63	ABS	2	0	24VC	0	1	0.641800880432	None	None	None	None	1
1.7	2015_Jul_23_1207	s	s	11	4	SIC	64	ABS	2	2	24VD	0	1	0.658499002457	None	None	None	None	1
1.7	2015_Jul_23_1207	s	s	11	4	SIC	65	RC	1	2	23MD	1	0	0.446817874908	384.0	-240.0	377	-241	1
1.7	2015_Jul_23_1207	s	s	11	4	SIC	66	RC	1	0	23MC	1	0	0.464742898941	-108.0	90.0	-100	95	1
1.7	2015_Jul_23_1207	s	s	11	4	SIC	67	ABS	1	0	24MC	0	1	2.30637979507	None	None	None	None	1
1.7	2015_Jul_23_1207	s	s	11	4	SIC	68	ABS	2	1	24VO	0	1	0.611443042755	None	None	None	None	1
1.7	2015_Jul_23_1207	s	s	11	4	SIC	69	RC	2	0	23VC	1	0	0.72943520546	258.0	-150.0	256	-159	1
1.7	2015_Jul_23_1207	s	s	11	4	SIC	70	RC	1	1	23MO	1	0	0.864910125732	231.0	212.0	236	219	1
1.7	2015_Jul_23_1207	s	s	11	4	SIC	71	ABS	0	1	24RO	0	1	3.94255208969	None	None	None	None	1
1.7	2015_Jul_23_1207	s	s	11	4	SIC	72	ABS	1	1	24MO	0	1	1.33632493019	None	None	None	None	1
1.7	2015_Jul_23_1207	s	s	11	4	SIC	73	RC	2	1	23VO	1	0	0.430042028427	364.0	-241.0	374	-235	1
1.7	2015_Jul_23_1207	s	s	11	4	SIC	74	RC	0	2	23RD	1	0	0.416031122208	130.0	-66.0	129	-64	1
1.7	2015_Jul_23_1207	s	s	11	4	SIC	75	ABS	0	2	24RD	0	1	0.605789899826	None	None	None	None	1
1.7	2015_Jul_23_1207	s	s	11	4	SIC	76	ABS	2	2	24VD	0	1	0.505522966385	None	None	None	None	1
1.7	2015_Jul_23_1207	s	s	11	4	SIC	77	RC	0	1	23RO	1	0	1.05360794067	474.0	56.0	481	57	1
1.7	2015_Jul_23_1207	s	s	11	4	SIC	78	ABS	1	2	24MD	0	1	0.594793081284	None	None	None	None	1
1.7	2015_Jul_23_1207	s	s	11	4	SIC	79	RC	2	2	23VD	1	0	0.435131072998	54.0	-136.0	51	-139	1
1.7	2015_Jul_23_1207	s	s	11	4	SIC	80	ABS	2	0	24VC	0	1	0.607017993927	None	None	None	None	1
1.7	2015_Jul_23_1207	s	s	11	4	SIC	81	ABS	2	2	24VD	0	1	0.58225607872	None	None	None	None	1
1.7	2015_Jul_23_1207	s	s	11	4	SIC	82	RC	2	2	23VD	1	0	0.429587841034	-106.0	-272.0	-99	-268	1
1.7	2015_Jul_23_1207	s	s	11	4	SIC	83	ABS	2	0	24VC	0	1	0.653664827347	None	None	None	None	1
1.7	2015_Jul_23_1207	s	s	11	4	SIC	84	RC	1	0	23MC	1	0	0.82376408577	-119.0	-328.0	-119	-326	1
1.7	2015_Jul_23_1207	s	s	11	4	SIC	85	RC	0	2	23RD	1	0	0.446594953537	-465.0	-201.0	-460	-201	1
1.7	2015_Jul_23_1207	s	s	11	4	SIC	86	ABS	1	2	24MD	0	1	0.572496891022	None	None	None	None	1
1.7	2015_Jul_23_1207	s	s	11	4	SIC	87	RC	1	1	23MO	1	0	1.33626794815	262.0	-394.0	269	-398	1
1.7	2015_Jul_23_1207	s	s	11	4	SIC	88	RC	1	2	23MD	1	0	0.434843063354	-367.0	-309.0	-376	-307	1
1.7	2015_Jul_23_1207	s	s	11	4	SIC	89	ABS	1	1	24MO	0	1	1.88267707825	None	None	None	None	1
1.7	2015_Jul_23_1207	s	s	11	4	SIC	90	ABS	1	0	24MC	0	1	1.73651695251	None	None	None	None	1
1.7	2015_Jul_23_1207	s	s	11	4	SIC	91	ABS	0	1	24RO	0	1	3.99813103676	None	None	None	None	1
1.7	2015_Jul_23_1207	s	s	11	4	SIC	92	ABS	0	2	24RD	0	1	1.42405581474	None	None	None	None	1
1.7	2015_Jul_23_1207	s	s	11	4	SIC	93	ABS	2	1	24VO	0	1	0.74089384079	None	None	None	None	1
1.7	2015_Jul_23_1207	s	s	11	4	SIC	94	RC	0	1	23RO	1	0	4.59785699844	-447.0	391.0	-437	396	1
1.7	2015_Jul_23_1207	s	s	11	4	SIC	95	RC	2	0	23VC	1	0	0.558301925659	-81.0	-381.0	-69	-379	1
1.7	2015_Jul_23_1207	s	s	11	4	SIC	96	RC	2	1	23VO	1	0	0.411144018173	-146.0	362.0	-136	368	1
1.7	2015_Jul_23_1207	s	s	11	4	SIC	97	RC	2	0	23VC	1	0	0.465384960175	189.0	103.0	184	105	1
1.7	2015_Jul_23_1207	s	s	11	4	SIC	98	RC	0	1	23RO	1	0	1.72455716133	389.0	-131.0	402	-128	1
1.7	2015_Jul_23_1207	s	s	11	4	SIC	99	RC	2	2	23VD	1	0	0.500360965729	-334.0	411.0	-339	404	1
1.7	2015_Jul_23_1207	s	s	11	4	SIC	100	ABS	0	1	24RO	0	1	7.72743296623	None	None	None	None	1
1.7	2015_Jul_23_1207	s	s	11	4	SIC	101	RC	2	1	23VO	1	0	0.47016620636	-16.0	-168.0	-4	-164	1
1.7	2015_Jul_23_1207	s	s	11	4	SIC	102	RC	0	2	23RD	1	0	0.726418972015	-4.0	-245.0	-10	-243	1
1.7	2015_Jul_23_1207	s	s	11	4	SIC	103	ABS	1	1	24MO	0	1	3.08933091164	None	None	None	None	1
1.7	2015_Jul_23_1207	s	s	11	4	SIC	104	ABS	1	0	24MC	0	1	4.25772404671	None	None	None	None	1
1.7	2015_Jul_23_1207	s	s	11	4	SIC	105	ABS	2	1	24VO	0	1	0.540834903717	None	None	None	None	1
1.7	2015_Jul_23_1207	s	s	11	4	SIC	106	ABS	2	0	24VC	0	1	0.678879022598	None	None	None	None	1
1.7	2015_Jul_23_1207	s	s	11	4	SIC	107	ABS	1	2	24MD	0	1	0.71421790123	None	None	None	None	1
1.7	2015_Jul_23_1207	s	s	11	4	SIC	108	RC	1	1	23MO	1	0	1.05871105194	-366.0	375.0	-367	384	1
1.7	2015_Jul_23_1207	s	s	11	4	SIC	109	RC	1	0	23MC	1	0	0.523162126541	-187.0	-39.0	-188	-42	1
1.7	2015_Jul_23_1207	s	s	11	4	SIC	110	ABS	2	2	24VD	0	1	0.517200946808	None	None	None	None	1
1.7	2015_Jul_23_1207	s	s	11	4	SIC	111	ABS	0	2	24RD	0	1	0.776228904724	None	None	None	None	1
1.7	2015_Jul_23_1207	s	s	11	4	SIC	112	RC	1	2	23MD	1	0	0.724003791809	487.0	-311.0	487	-302	1
1.7	2015_Jul_23_1207	s	s	11	4	SIC	113	RC	0	1	23RO	0	1	1.79522204399	-412.0	334.0	None	None	0
1.7	2015_Jul_23_1207	s	s	11	4	SIC	114	ABS	1	1	24MO	0	1	2.01209211349	None	None	None	None	1
1.7	2015_Jul_23_1207	s	s	11	4	SIC	115	ABS	1	0	24MC	0	1	1.45401000977	None	None	None	None	1
1.7	2015_Jul_23_1207	s	s	11	4	SIC	116	ABS	2	1	24VO	0	1	0.541116952896	None	None	None	None	1
1.7	2015_Jul_23_1207	s	s	11	4	SIC	117	ABS	2	2	24VD	0	1	0.630114793777	None	None	None	None	1
1.7	2015_Jul_23_1207	s	s	11	4	SIC	118	RC	2	0	23VC	1	0	0.53820514679	-475.0	-371.0	-470	-374	1
1.7	2015_Jul_23_1207	s	s	11	4	SIC	119	RC	2	2	23VD	1	0	0.502778053284	125.0	205.0	132	212	1
1.7	2015_Jul_23_1207	s	s	11	4	SIC	120	ABS	0	1	24RO	0	1	2.6543109417	None	None	None	None	1
1.7	2015_Jul_23_1207	s	s	11	4	SIC	121	RC	2	1	23VO	1	0	0.411406993866	74.0	-378.0	76	-383	1
1.7	2015_Jul_23_1207	s	s	11	4	SIC	122	RC	1	1	23MO	1	0	0.641647100449	-356.0	-55.0	-362	-52	1
1.7	2015_Jul_23_1207	s	s	11	4	SIC	123	RC	1	2	23MD	1	0	0.493715047836	202.0	241.0	207	249	1
1.7	2015_Jul_23_1207	s	s	11	4	SIC	124	ABS	0	2	24RD	0	1	0.994776964188	None	None	None	None	1
1.7	2015_Jul_23_1207	s	s	11	4	SIC	125	RC	0	2	23RD	1	0	0.688688993454	497.0	-329.0	496	-328	1
1.7	2015_Jul_23_1207	s	s	11	4	SIC	126	ABS	2	0	24VC	0	1	0.642353057861	None	None	None	None	1
1.7	2015_Jul_23_1207	s	s	11	4	SIC	127	ABS	1	2	24MD	0	1	0.759328126907	None	None	None	None	1
1.7	2015_Jul_23_1207	s	s	11	4	SIC	128	RC	1	0	23MC	1	0	1.65399813652	508.0	365.0	506	358	1
1.7	2015_Jul_23_1207	s	s	11	4	SIC	129	ABS	1	1	24MO	0	1	1.71290111542	None	None	None	None	1
1.7	2015_Jul_23_1207	s	s	11	4	SIC	130	ABS	1	2	24MD	0	1	0.646713972092	None	None	None	None	1
1.7	2015_Jul_23_1207	s	s	11	4	SIC	131	RC	2	0	23VC	1	0	0.493990182877	268.0	-40.0	261	-37	1
1.7	2015_Jul_23_1207	s	s	11	4	SIC	132	ABS	0	2	24RD	0	1	0.646636009216	None	None	None	None	1
1.7	2015_Jul_23_1207	s	s	11	4	SIC	133	ABS	2	1	24VO	0	1	0.512140035629	None	None	None	None	1
1.7	2015_Jul_23_1207	s	s	11	4	SIC	134	ABS	2	0	24VC	0	1	0.606318950653	None	None	None	None	1
1.7	2015_Jul_23_1207	s	s	11	4	SIC	135	ABS	2	2	24VD	0	1	0.700595140457	None	None	None	None	1
1.7	2015_Jul_23_1207	s	s	11	4	SIC	136	RC	1	1	23MO	1	0	2.42411279678	502.0	-357.0	508	-354	1
1.7	2015_Jul_23_1207	s	s	11	4	SIC	137	RC	2	1	23VO	1	0	0.865838050842	340.0	350.0	336	345	1
1.7	2015_Jul_23_1207	s	s	11	4	SIC	138	ABS	1	0	24MC	0	1	4.52585101128	None	None	None	None	1
1.7	2015_Jul_23_1207	s	s	11	4	SIC	139	RC	0	1	23RO	1	0	1.23542308807	20.0	-369.0	19	-375	1
1.7	2015_Jul_23_1207	s	s	11	4	SIC	140	RC	1	2	23MD	1	0	0.547539949417	361.0	-78.0	365	-78	1
1.7	2015_Jul_23_1207	s	s	11	4	SIC	141	ABS	0	1	24RO	0	1	5.1666970253	None	None	None	None	1
1.7	2015_Jul_23_1207	s	s	11	4	SIC	142	RC	0	2	23RD	1	0	0.54886007309	329.0	60.0	329	53	1
1.7	2015_Jul_23_1207	s	s	11	4	SIC	143	RC	2	2	23VD	1	0	0.481904029846	97.0	395.0	100	394	1
1.7	2015_Jul_23_1207	s	s	11	4	SIC	144	RC	1	0	23MC	1	0	1.69430708885	-537.0	23.0	-531	26	1
1.7	2015_Jul_23_1207	s	s	11	4	SIC	145	RC	1	2	23MD	1	0	0.829873085022	-249.0	-360.0	-261	-358	1
1.7	2015_Jul_23_1207	s	s	11	4	SIC	146	ABS	0	1	24RO	0	1	2.6801609993	None	None	None	None	1
1.7	2015_Jul_23_1207	s	s	11	4	SIC	147	ABS	0	2	24RD	0	1	0.641681909561	None	None	None	None	1
1.7	2015_Jul_23_1207	s	s	11	4	SIC	148	ABS	1	1	24MO	0	1	0.735077142715	None	None	None	None	1
1.7	2015_Jul_23_1207	s	s	11	4	SIC	149	RC	0	1	23RO	1	0	2.54170584679	-236.0	289.0	-232	283	1
1.7	2015_Jul_23_1207	s	s	11	4	SIC	150	RC	0	2	23RD	1	0	1.07665109634	495.0	156.0	501	152	1
1.7	2015_Jul_23_1207	s	s	11	4	SIC	151	RC	2	1	23VO	1	0	0.458493947983	-121.0	127.0	-117	127	1
1.7	2015_Jul_23_1207	s	s	11	4	SIC	152	ABS	2	0	24VC	0	1	0.729137182236	None	None	None	None	1
1.7	2015_Jul_23_1207	s	s	11	4	SIC	153	ABS	1	0	24MC	0	1	2.94990515709	None	None	None	None	1
1.7	2015_Jul_23_1207	s	s	11	4	SIC	154	ABS	2	2	24VD	0	1	0.524077177048	None	None	None	None	1
1.7	2015_Jul_23_1207	s	s	11	4	SIC	155	RC	2	0	23VC	1	0	0.488642930984	-397.0	269.0	-390	268	1
1.7	2015_Jul_23_1207	s	s	11	4	SIC	156	RC	1	1	23MO	1	0	0.760959863663	-384.0	349.0	-384	346	1
1.7	2015_Jul_23_1207	s	s	11	4	SIC	157	ABS	1	2	24MD	0	1	0.924289941788	None	None	None	None	1
1.7	2015_Jul_23_1207	s	s	11	4	SIC	158	RC	1	0	23MC	1	0	7.01467108727	102.0	-203.0	105	-207	1
1.7	2015_Jul_23_1207	s	s	11	4	SIC	159	ABS	2	1	24VO	0	1	0.926557779312	None	None	None	None	1
1.7	2015_Jul_23_1207	s	s	11	4	SIC	160	RC	2	2	23VD	1	0	0.56433391571	-125.0	-10.0	-110	-4	1
1.7	2015_Jul_23_1207	s	s	11	4	SIC	161	ABS	2	1	24VO	0	1	5.54323291779	None	None	None	None	1
1.7	2015_Jul_23_1207	s	s	11	4	SIC	162	RC	0	1	23RO	1	0	6.32691502571	394.0	-272.0	395	-273	1
1.7	2015_Jul_23_1207	s	s	11	4	SIC	163	ABS	0	1	24RO	0	1	6.92718696594	None	None	None	None	1
1.7	2015_Jul_23_1207	s	s	11	4	SIC	164	RC	2	2	23VD	1	0	0.487319946289	454.0	91.0	454	88	1
1.7	2015_Jul_23_1207	s	s	11	4	SIC	165	RC	0	2	23RD	1	0	0.535332918167	-12.0	27.0	-17	25	1
1.7	2015_Jul_23_1207	s	s	11	4	SIC	166	ABS	1	1	24MO	0	1	1.88961791992	None	None	None	None	1
1.7	2015_Jul_23_1207	s	s	11	4	SIC	167	RC	2	0	23VC	1	0	0.458434104919	153.0	-297.0	161	-299	1
1.7	2015_Jul_23_1207	s	s	11	4	SIC	168	ABS	2	0	24VC	0	1	0.994761943817	None	None	None	None	1
1.7	2015_Jul_23_1207	s	s	11	4	SIC	169	RC	1	2	23MD	1	0	0.547477006912	-100.0	-107.0	-94	-111	1
1.7	2015_Jul_23_1207	s	s	11	4	SIC	170	ABS	1	2	24MD	0	1	0.893973827362	None	None	None	None	1
1.7	2015_Jul_23_1207	s	s	11	4	SIC	171	ABS	0	2	24RD	0	1	0.740899801254	None	None	None	None	1
1.7	2015_Jul_23_1207	s	s	11	4	SIC	172	ABS	2	2	24VD	0	1	0.503005981445	None	None	None	None	1
1.7	2015_Jul_23_1207	s	s	11	4	SIC	173	ABS	1	0	24MC	0	1	3.30190610886	None	None	None	None	1
1.7	2015_Jul_23_1207	s	s	11	4	SIC	174	RC	2	1	23VO	1	0	0.552860975266	527.0	405.0	527	399	1
1.7	2015_Jul_23_1207	s	s	11	4	SIC	175	RC	1	0	23MC	1	0	1.46805286407	-380.0	263.0	-382	271	1
1.7	2015_Jul_23_1207	s	s	11	4	SIC	176	RC	1	1	23MO	1	0	1.17097878456	288.0	234.0	291	233	1
1.7	2015_Jul_23_1207	s	s	11	4	SIC	177	ABS	2	1	24VO	0	1	0.653640985489	None	None	None	None	1
1.7	2015_Jul_23_1207	s	s	11	4	SIC	178	RC	1	2	23MD	1	0	0.53590297699	300.0	41.0	306	42	1
1.7	2015_Jul_23_1207	s	s	11	4	SIC	179	ABS	1	1	24MO	0	1	3.04787707329	None	None	None	None	1
1.7	2015_Jul_23_1207	s	s	11	4	SIC	180	ABS	2	0	24VC	0	1	0.818469047546	None	None	None	None	1
1.7	2015_Jul_23_1207	s	s	11	4	SIC	181	ABS	2	2	24VD	0	1	0.717237949371	None	None	None	None	1
1.7	2015_Jul_23_1207	s	s	11	4	SIC	182	RC	1	0	23MC	1	0	2.14154791832	20.0	9.0	22	7	1
1.7	2015_Jul_23_1207	s	s	11	4	SIC	183	RC	2	1	23VO	1	0	3.61285591125	519.0	-396.0	523	-397	1
1.7	2015_Jul_23_1207	s	s	11	4	SIC	184	RC	1	1	23MO	1	0	3.2903470993	-399.0	324.0	-390	325	1
1.7	2015_Jul_23_1207	s	s	11	4	SIC	185	RC	0	1	23RO	1	0	5.46089887619	246.0	-104.0	244	-107	1
1.7	2015_Jul_23_1207	s	s	11	4	SIC	186	RC	2	2	23VD	1	0	0.434871912003	45.0	-363.0	44	-372	1
1.7	2015_Jul_23_1207	s	s	11	4	SIC	187	ABS	0	1	24RO	0	1	5.93856692314	None	None	None	None	1
1.7	2015_Jul_23_1207	s	s	11	4	SIC	188	ABS	0	2	24RD	0	1	0.729097127914	None	None	None	None	1
1.7	2015_Jul_23_1207	s	s	11	4	SIC	189	ABS	1	0	24MC	0	1	5.19016718864	None	None	None	None	1
1.7	2015_Jul_23_1207	s	s	11	4	SIC	190	ABS	1	2	24MD	0	1	0.564345836639	None	None	None	None	1
1.7	2015_Jul_23_1207	s	s	11	4	SIC	191	RC	2	0	23VC	1	0	0.493771791458	2.0	302.0	1	300	1
1.7	2015_Jul_23_1207	s	s	11	4	SIC	192	RC	0	2	23RD	1	0	0.45832490921	-115.0	-58.0	-112	-64	1
1.7	2015_Jul_23_1207	s	s	11	4	SIC	193	RC	1	0	23MC	1	0	4.84491491318	32.0	231.0	38	222	1
1.7	2015_Jul_23_1207	s	s	11	4	SIC	194	RC	1	1	23MO	1	0	1.10095191002	-24.0	-326.0	-20	-326	1
1.7	2015_Jul_23_1207	s	s	11	4	SIC	195	ABS	2	2	24VD	0	1	0.605747938156	None	None	None	None	1
1.7	2015_Jul_23_1207	s	s	11	4	SIC	196	ABS	0	2	24RD	0	1	0.540812015533	None	None	None	None	1
1.7	2015_Jul_23_1207	s	s	11	4	SIC	197	RC	1	2	23MD	1	0	0.517290830612	-414.0	268.0	-415	267	1
1.7	2015_Jul_23_1207	s	s	11	4	SIC	198	ABS	2	0	24VC	0	1	0.524031162262	None	None	None	None	1
1.7	2015_Jul_23_1207	s	s	11	4	SIC	199	RC	0	1	23RO	1	0	2.14527702332	-108.0	-185.0	-99	-178	1
1.7	2015_Jul_23_1207	s	s	11	4	SIC	200	ABS	1	1	24MO	0	1	1.37071919441	None	None	None	None	1
1.7	2015_Jul_23_1207	s	s	11	4	SIC	201	ABS	1	2	24MD	0	1	0.914728164673	None	None	None	None	1
1.7	2015_Jul_23_1207	s	s	11	4	SIC	202	RC	2	2	23VD	1	0	0.517247200012	-176.0	195.0	-168	198	1
1.7	2015_Jul_23_1207	s	s	11	4	SIC	203	ABS	0	1	24RO	0	1	4.59353399277	None	None	None	None	1
1.7	2015_Jul_23_1207	s	s	11	4	SIC	204	ABS	2	1	24VO	0	1	0.630524873734	None	None	None	None	1
1.7	2015_Jul_23_1207	s	s	11	4	SIC	205	RC	2	1	23VO	1	0	0.529042959213	294.0	402.0	289	402	1
1.7	2015_Jul_23_1207	s	s	11	4	SIC	206	RC	0	2	23RD	1	0	0.54084610939	-405.0	405.0	-402	414	1
1.7	2015_Jul_23_1207	s	s	11	4	SIC	207	ABS	1	0	24MC	0	1	15.8778760433	None	None	None	None	1
1.7	2015_Jul_23_1207	s	s	11	4	SIC	208	RC	2	0	23VC	1	0	0.520967960358	-79.0	180.0	-90	180	1
1.7	2015_Jul_23_1207	s	s	11	4	SIC	209	RC	1	0	23MC	1	0	1.81829309464	8.0	-197.0	6	-195	1
1.7	2015_Jul_23_1207	s	s	11	4	SIC	210	ABS	2	0	24VC	0	1	1.63545084	None	None	None	None	1
1.7	2015_Jul_23_1207	s	s	11	4	SIC	211	ABS	1	1	24MO	0	1	4.74939990044	None	None	None	None	1
1.7	2015_Jul_23_1207	s	s	11	4	SIC	212	ABS	2	2	24VD	0	1	0.564787149429	None	None	None	None	1
1.7	2015_Jul_23_1207	s	s	11	4	SIC	213	RC	1	1	23MO	1	0	0.917479991913	120.0	13.0	133	16	1
1.7	2015_Jul_23_1207	s	s	11	4	SIC	214	ABS	1	0	24MC	0	1	3.83384394646	None	None	None	None	1
1.7	2015_Jul_23_1207	s	s	11	4	SIC	215	ABS	1	2	24MD	0	1	0.764848947525	None	None	None	None	1
1.7	2015_Jul_23_1207	s	s	11	4	SIC	216	RC	0	2	23RD	1	0	0.559275150299	-98.0	-371.0	-103	-365	1
1.7	2015_Jul_23_1207	s	s	11	4	SIC	217	RC	0	1	23RO	0	1	2.95377588272	-263.0	-261.0	None	None	0
1.7	2015_Jul_23_1207	s	s	11	4	SIC	218	RC	2	1	23VO	1	0	0.434891939163	-211.0	30.0	-200	39	1
1.7	2015_Jul_23_1207	s	s	11	4	SIC	219	RC	2	0	23VC	1	0	0.41130900383	-267.0	-234.0	-270	-225	1
1.7	2015_Jul_23_1207	s	s	11	4	SIC	220	ABS	0	2	24RD	0	1	0.617884159088	None	None	None	None	1
1.7	2015_Jul_23_1207	s	s	11	4	SIC	221	RC	2	2	23VD	1	0	0.512553215027	412.0	402.0	421	398	1
1.7	2015_Jul_23_1207	s	s	11	4	SIC	222	ABS	2	1	24VO	0	1	0.882213115692	None	None	None	None	1
1.7	2015_Jul_23_1207	s	s	11	4	SIC	223	RC	1	2	23MD	1	0	0.458447933197	-121.0	-65.0	-116	-59	1
1.7	2015_Jul_23_1207	s	s	11	4	SIC	224	ABS	0	1	24RO	0	1	3.49013209343	None	None	None	None	1
1.7	2015_Jul_23_1207	s	s	11	4	SIC	225	RC	1	0	23MC	0	1	1.49425315857	-499.0	-333.0	None	None	0
1.7	2015_Jul_23_1207	s	s	11	4	SIC	226	ABS	0	2	24RD	0	1	1.39503216743	None	None	None	None	1
1.7	2015_Jul_23_1207	s	s	11	4	SIC	227	ABS	1	2	24MD	0	1	0.608767032623	None	None	None	None	1
1.7	2015_Jul_23_1207	s	s	11	4	SIC	228	RC	1	2	23MD	1	0	0.623236179352	-44.0	292.0	-52	296	1
1.7	2015_Jul_23_1207	s	s	11	4	SIC	229	ABS	2	2	24VD	0	1	0.540824174881	None	None	None	None	1
1.7	2015_Jul_23_1207	s	s	11	4	SIC	230	ABS	1	0	24MC	0	1	4.32290506363	None	None	None	None	1
1.7	2015_Jul_23_1207	s	s	11	4	SIC	231	RC	1	1	23MO	1	0	1.00849819183	-518.0	-11.0	-520	-8	1
1.7	2015_Jul_23_1207	s	s	11	4	SIC	232	ABS	1	1	24MO	0	1	0.84677696228	None	None	None	None	1
1.7	2015_Jul_23_1207	s	s	11	4	SIC	233	RC	2	2	23VD	0	1	0.399544000626	266.0	314.0	None	None	0
1.7	2015_Jul_23_1207	s	s	11	4	SIC	234	ABS	2	0	24VC	0	1	0.629978895187	None	None	None	None	1
1.7	2015_Jul_23_1207	s	s	11	4	SIC	235	RC	0	1	23RO	0	1	4.7640209198	-526.0	-106.0	None	None	0
1.7	2015_Jul_23_1207	s	s	11	4	SIC	236	ABS	2	1	24VO	0	1	0.559257984161	None	None	None	None	1
1.7	2015_Jul_23_1207	s	s	11	4	SIC	237	RC	2	0	23VC	1	0	0.41810297966	-370.0	-260.0	-367	-259	1
1.7	2015_Jul_23_1207	s	s	11	4	SIC	238	ABS	0	1	24RO	0	1	3.16241002083	None	None	None	None	1
1.7	2015_Jul_23_1207	s	s	11	4	SIC	239	RC	2	1	23VO	1	0	0.458400964737	-168.0	-189.0	-158	-184	1
1.7	2015_Jul_23_1207	s	s	11	4	SIC	240	RC	0	2	23RD	1	0	0.759430885315	459.0	-364.0	469	-359	1
1.7	2015_Jul_23_1207	s	s	11	4	SIC	241	RC	0	2	23RD	1	0	0.465149879456	-40.0	277.0	-51	284	1
1.7	2015_Jul_23_1207	s	s	11	4	SIC	242	RC	1	0	23MC	0	1	3.27876996994	539.0	198.0	None	None	0
1.7	2015_Jul_23_1207	s	s	11	4	SIC	243	RC	2	2	23VD	1	0	0.411336898804	17.0	259.0	20	257	1
1.7	2015_Jul_23_1207	s	s	11	4	SIC	244	RC	1	1	23MO	1	0	0.808680057526	-213.0	-166.0	-210	-169	1
1.7	2015_Jul_23_1207	s	s	11	4	SIC	245	ABS	2	0	24VC	0	1	0.618106126785	None	None	None	None	1
1.7	2015_Jul_23_1207	s	s	11	4	SIC	246	RC	2	1	23VO	1	0	0.478101968765	256.0	307.0	248	311	1
1.7	2015_Jul_23_1207	s	s	11	4	SIC	247	RC	1	2	23MD	1	0	0.434952974319	100.0	-331.0	101	-324	1
1.7	2015_Jul_23_1207	s	s	11	4	SIC	248	ABS	2	2	24VD	0	1	0.618217945099	None	None	None	None	1
1.7	2015_Jul_23_1207	s	s	11	4	SIC	249	ABS	1	0	24MC	0	1	2.23079299927	None	None	None	None	1
1.7	2015_Jul_23_1207	s	s	11	4	SIC	250	ABS	1	1	24MO	0	1	2.91231989861	None	None	None	None	1
1.7	2015_Jul_23_1207	s	s	11	4	SIC	251	RC	2	0	23VC	1	0	0.482091188431	80.0	313.0	72	315	1
1.7	2015_Jul_23_1207	s	s	11	4	SIC	252	RC	0	1	23RO	1	0	2.40050888062	281.0	-211.0	273	-211	1
1.7	2015_Jul_23_1207	s	s	11	4	SIC	253	ABS	2	1	24VO	0	1	0.682085037231	None	None	None	None	1
1.7	2015_Jul_23_1207	s	s	11	4	SIC	254	ABS	0	2	24RD	0	1	0.658435106277	None	None	None	None	1
1.7	2015_Jul_23_1207	s	s	11	4	SIC	255	ABS	1	2	24MD	0	1	0.666049957275	None	None	None	None	1
1.7	2015_Jul_23_1207	s	s	11	4	SIC	256	ABS	0	1	24RO	0	1	7.91785502434	None	None	None	None	1
1.7	2015_Jul_23_1207	s	s	11	4	SIC	257	ABS	1	2	24MD	0	1	0.558866977692	None	None	None	None	1
1.7	2015_Jul_23_1207	s	s	11	4	SIC	258	ABS	2	0	24VC	0	1	0.541013002396	None	None	None	None	1
1.7	2015_Jul_23_1207	s	s	11	4	SIC	259	RC	1	0	23MC	1	0	0.630103111267	-165.0	213.0	-172	213	1
1.7	2015_Jul_23_1207	s	s	11	4	SIC	260	ABS	2	1	24VO	0	1	0.470243930817	None	None	None	None	1
1.7	2015_Jul_23_1207	s	s	11	4	SIC	261	RC	0	2	23RD	1	0	0.653163194656	463.0	-257.0	477	-248	1
1.7	2015_Jul_23_1207	s	s	11	4	SIC	262	ABS	1	1	24MO	0	1	2.07092809677	None	None	None	None	1
1.7	2015_Jul_23_1207	s	s	11	4	SIC	263	RC	1	1	23MO	1	0	1.5884039402	520.0	401.0	526	395	1
1.7	2015_Jul_23_1207	s	s	11	4	SIC	264	RC	1	2	23MD	1	0	0.512211084366	-288.0	15.0	-287	15	1
1.7	2015_Jul_23_1207	s	s	11	4	SIC	265	RC	0	1	23RO	0	1	3.15389800072	-342.0	210.0	None	None	0
1.7	2015_Jul_23_1207	s	s	11	4	SIC	266	RC	2	0	23VC	1	0	0.41827583313	58.0	-292.0	61	-290	1
1.7	2015_Jul_23_1207	s	s	11	4	SIC	267	RC	2	1	23VO	1	0	0.513864994049	496.0	62.0	501	63	1
1.7	2015_Jul_23_1207	s	s	11	4	SIC	268	ABS	0	1	24RO	0	1	3.80119800568	None	None	None	None	1
1.7	2015_Jul_23_1207	s	s	11	4	SIC	269	ABS	2	2	24VD	0	1	0.808883190155	None	None	None	None	1
1.7	2015_Jul_23_1207	s	s	11	4	SIC	270	RC	2	2	23VD	1	0	0.408756017685	56.0	-89.0	61	-80	1
1.7	2015_Jul_23_1207	s	s	11	4	SIC	271	ABS	0	2	24RD	0	1	1.57357192039	None	None	None	None	1
1.7	2015_Jul_23_1207	s	s	11	4	SIC	272	ABS	1	0	24MC	0	1	2.41914796829	None	None	None	None	1
1.7	2015_Jul_23_1207	s	s	11	4	SIC	273	RC	2	1	23VO	1	0	0.458359003067	-338.0	306.0	-337	313	1
1.7	2015_Jul_23_1207	s	s	11	4	SIC	274	RC	0	2	23RD	1	0	0.500464916229	-303.0	-342.0	-301	-356	1
1.7	2015_Jul_23_1207	s	s	11	4	SIC	275	RC	1	0	23MC	1	0	1.25969696045	268.0	-117.0	264	-116	1
1.7	2015_Jul_23_1207	s	s	11	4	SIC	276	ABS	2	2	24VD	0	1	0.64675617218	None	None	None	None	1
1.7	2015_Jul_23_1207	s	s	11	4	SIC	277	RC	2	0	23VC	1	0	0.47683596611	472.0	346.0	468	344	1
1.7	2015_Jul_23_1207	s	s	11	4	SIC	278	ABS	2	1	24VO	0	1	0.689201831818	None	None	None	None	1
1.7	2015_Jul_23_1207	s	s	11	4	SIC	279	RC	1	2	23MD	1	0	0.599656105042	374.0	364.0	375	369	1
1.7	2015_Jul_23_1207	s	s	11	4	SIC	280	RC	1	1	23MO	0	1	0.877303123474	292.0	162.0	None	None	0
1.7	2015_Jul_23_1207	s	s	11	4	SIC	281	ABS	1	1	24MO	0	1	1.81203889847	None	None	None	None	1
1.7	2015_Jul_23_1207	s	s	11	4	SIC	282	ABS	1	2	24MD	0	1	0.611426115036	None	None	None	None	1
1.7	2015_Jul_23_1207	s	s	11	4	SIC	283	RC	2	2	23VD	1	0	0.511856079102	-21.0	133.0	-13	137	1
1.7	2015_Jul_23_1207	s	s	11	4	SIC	284	ABS	1	0	24MC	0	1	0.752658843994	None	None	None	None	1
1.7	2015_Jul_23_1207	s	s	11	4	SIC	285	ABS	0	2	24RD	0	1	0.511455059052	None	None	None	None	1
1.7	2015_Jul_23_1207	s	s	11	4	SIC	286	RC	0	1	23RO	1	0	0.764549970627	333.0	-162.0	333	-181	1
1.7	2015_Jul_23_1207	s	s	11	4	SIC	287	ABS	2	0	24VC	0	1	0.658577919006	None	None	None	None	1
1.7	2015_Jul_23_1207	s	s	11	4	SIC	288	ABS	0	1	24RO	0	1	3.85781812668	None	None	None	None	1
1.7	2015_Jul_23_1207	s	s	11	4	SIC	289	ABS	1	2	24MD	0	1	0.69749712944	None	None	None	None	1
1.7	2015_Jul_23_1207	s	s	11	4	SIC	290	RC	1	1	23MO	1	0	0.49369597435	57.0	18.0	67	25	1
1.7	2015_Jul_23_1207	s	s	11	4	SIC	291	ABS	2	0	24VC	0	1	0.56448507309	None	None	None	None	1
1.7	2015_Jul_23_1207	s	s	11	4	SIC	292	ABS	0	1	24RO	0	1	3.14883899689	None	None	None	None	1
1.7	2015_Jul_23_1207	s	s	11	4	SIC	293	RC	0	1	23RO	0	1	3.8920340538	-400.0	-221.0	None	None	0
1.7	2015_Jul_23_1207	s	s	11	4	SIC	294	RC	2	2	23VD	1	0	0.423038959503	305.0	-373.0	301	-378	1
1.7	2015_Jul_23_1207	s	s	11	4	SIC	295	ABS	2	2	24VD	0	1	0.776162862778	None	None	None	None	1
1.7	2015_Jul_23_1207	s	s	11	4	SIC	296	ABS	0	2	24RD	0	1	0.729430913925	None	None	None	None	1
1.7	2015_Jul_23_1207	s	s	11	4	SIC	297	ABS	2	1	24VO	0	1	0.677140951157	None	None	None	None	1
1.7	2015_Jul_23_1207	s	s	11	4	SIC	298	RC	1	2	23MD	1	0	0.537617921829	-158.0	366.0	-155	374	1
1.7	2015_Jul_23_1207	s	s	11	4	SIC	299	RC	2	0	23VC	1	0	0.453517198563	-10.0	-118.0	-12	-118	1
1.7	2015_Jul_23_1207	s	s	11	4	SIC	300	ABS	1	1	24MO	0	1	1.48934483528	None	None	None	None	1
1.7	2015_Jul_23_1207	s	s	11	4	SIC	301	ABS	1	0	24MC	0	1	1.19708490372	None	None	None	None	1
1.7	2015_Jul_23_1207	s	s	11	4	SIC	302	RC	0	2	23RD	1	0	0.525465965271	453.0	-106.0	465	-105	1
1.7	2015_Jul_23_1207	s	s	11	4	SIC	303	RC	1	0	23MC	1	0	0.588001012802	-394.0	-186.0	-386	-178	1
1.7	2015_Jul_23_1207	s	s	11	4	SIC	304	RC	2	1	23VO	1	0	0.599706888199	422.0	-393.0	419	-386	1
1.7	2015_Jul_23_1207	s	s	11	4	SIC	305	RC	0	1	23RO	1	0	2.82444882393	-522.0	-102.0	-525	-103	1
1.7	2015_Jul_23_1207	s	s	11	4	SIC	306	RC	1	1	23MO	1	0	1.20686507225	-540.0	365.0	-530	364	1
1.7	2015_Jul_23_1207	s	s	11	4	SIC	307	RC	0	2	23RD	1	0	0.617602109909	51.0	-51.0	40	-51	1
1.7	2015_Jul_23_1207	s	s	11	4	SIC	308	ABS	2	2	24VD	0	1	0.570441961288	None	None	None	None	1
1.7	2015_Jul_23_1207	s	s	11	4	SIC	309	ABS	2	1	24VO	0	1	0.423046827316	None	None	None	None	1
1.7	2015_Jul_23_1207	s	s	11	4	SIC	310	RC	1	0	23MC	1	0	1.04691886902	519.0	-100.0	524	-108	1
1.7	2015_Jul_23_1207	s	s	11	4	SIC	311	RC	2	0	23VC	1	0	0.42928481102	-180.0	-108.0	-178	-115	1
1.7	2015_Jul_23_1207	s	s	11	4	SIC	312	ABS	0	2	24RD	0	1	0.576200008392	None	None	None	None	1
1.7	2015_Jul_23_1207	s	s	11	4	SIC	313	RC	2	2	23VD	1	0	0.394562005997	-64.0	-326.0	-74	-320	1
1.7	2015_Jul_23_1207	s	s	11	4	SIC	314	RC	1	2	23MD	1	0	0.387809991837	-147.0	20.0	-157	21	1
1.7	2015_Jul_23_1207	s	s	11	4	SIC	315	ABS	1	1	24MO	0	1	1.80387306213	None	None	None	None	1
1.7	2015_Jul_23_1207	s	s	11	4	SIC	316	ABS	0	1	24RO	0	1	3.18913793564	None	None	None	None	1
1.7	2015_Jul_23_1207	s	s	11	4	SIC	317	ABS	1	0	24MC	0	1	1.26614904404	None	None	None	None	1
1.7	2015_Jul_23_1207	s	s	11	4	SIC	318	ABS	1	2	24MD	0	1	0.664983987808	None	None	None	None	1
1.7	2015_Jul_23_1207	s	s	11	4	SIC	319	RC	2	1	23VO	1	0	0.452788114548	-3.0	324.0	-5	316	1
1.7	2015_Jul_23_1207	s	s	11	4	SIC	320	ABS	2	0	24VC	0	1	0.547083854675	None	None	None	None	1
1.7	2015_Jul_23_1207	s	s	11	4	SIC	321	RC	1	2	23MD	1	0	0.481930971146	472.0	364.0	464	360	1
1.7	2015_Jul_23_1207	s	s	11	4	SIC	322	ABS	1	0	24MC	0	1	1.63039112091	None	None	None	None	1
1.7	2015_Jul_23_1207	s	s	11	4	SIC	323	RC	0	1	23RO	1	0	1.12936306	-445.0	202.0	-444	205	1
1.7	2015_Jul_23_1207	s	s	11	4	SIC	324	ABS	0	1	24RO	0	1	3.48348093033	None	None	None	None	1
1.7	2015_Jul_23_1207	s	s	11	4	SIC	325	RC	2	0	23VC	1	0	0.540699958801	344.0	172.0	343	177	1
1.7	2015_Jul_23_1207	s	s	11	4	SIC	326	RC	2	1	23VO	1	0	0.394523859024	450.0	-243.0	456	-234	1
1.7	2015_Jul_23_1207	s	s	11	4	SIC	327	ABS	2	2	24VD	0	1	0.829787969589	None	None	None	None	1
1.7	2015_Jul_23_1207	s	s	11	4	SIC	328	ABS	2	0	24VC	0	1	0.470266819	None	None	None	None	1
1.7	2015_Jul_23_1207	s	s	11	4	SIC	329	RC	1	1	23MO	1	0	1.04220294952	-186.0	-399.0	-188	-397	1
1.7	2015_Jul_23_1207	s	s	11	4	SIC	330	RC	0	2	23RD	1	0	0.538347005844	-466.0	148.0	-459	154	1
1.7	2015_Jul_23_1207	s	s	11	4	SIC	331	ABS	1	2	24MD	0	1	0.593992948532	None	None	None	None	1
1.7	2015_Jul_23_1207	s	s	11	4	SIC	332	RC	1	0	23MC	1	0	1.13526988029	523.0	303.0	526	303	1
1.7	2015_Jul_23_1207	s	s	11	4	SIC	333	ABS	2	1	24VO	0	1	0.721070051193	None	None	None	None	1
1.7	2015_Jul_23_1207	s	s	11	4	SIC	334	ABS	0	2	24RD	0	1	1.58839201927	None	None	None	None	1
1.7	2015_Jul_23_1207	s	s	11	4	SIC	335	RC	2	2	23VD	1	0	0.488843917847	-291.0	259.0	-290	261	1
1.7	2015_Jul_23_1207	s	s	11	4	SIC	336	ABS	1	1	24MO	0	1	2.01686096191	None	None	None	None	1
1.7	2015_Jul_23_1207	s	s	11	4	SIC	337	RC	0	2	23RD	1	0	0.489557981491	-26.0	79.0	-36	82	1
1.7	2015_Jul_23_1207	s	s	11	4	SIC	338	ABS	1	1	24MO	0	1	1.57663488388	None	None	None	None	1
1.7	2015_Jul_23_1207	s	s	11	4	SIC	339	ABS	1	0	24MC	0	1	2.19532799721	None	None	None	None	1
1.7	2015_Jul_23_1207	s	s	11	4	SIC	340	ABS	0	1	24RO	0	1	3.7263610363	None	None	None	None	1
1.7	2015_Jul_23_1207	s	s	11	4	SIC	341	RC	0	1	23RO	1	0	1.39441490173	-516.0	-364.0	-524	-364	1
1.7	2015_Jul_23_1207	s	s	11	4	SIC	342	ABS	2	0	24VC	0	1	0.611341953278	None	None	None	None	1
1.7	2015_Jul_23_1207	s	s	11	4	SIC	343	ABS	0	2	24RD	0	1	0.890508890152	None	None	None	None	1
1.7	2015_Jul_23_1207	s	s	11	4	SIC	344	ABS	2	1	24VO	0	1	0.529031038284	None	None	None	None	1
1.7	2015_Jul_23_1207	s	s	11	4	SIC	345	RC	1	0	23MC	1	0	0.929298877716	-375.0	272.0	-373	260	1
1.7	2015_Jul_23_1207	s	s	11	4	SIC	346	RC	2	1	23VO	1	0	0.458549022675	141.0	270.0	143	267	1
1.7	2015_Jul_23_1207	s	s	11	4	SIC	347	RC	2	0	23VC	1	0	0.39305305481	-234.0	351.0	-225	358	1
1.7	2015_Jul_23_1207	s	s	11	4	SIC	348	ABS	1	2	24MD	0	1	1.04693508148	None	None	None	None	1
1.7	2015_Jul_23_1207	s	s	11	4	SIC	349	ABS	2	2	24VD	0	1	0.482115983963	None	None	None	None	1
1.7	2015_Jul_23_1207	s	s	11	4	SIC	350	RC	2	2	23VD	1	0	0.587786912918	-66.0	-215.0	-61	-214	1
1.7	2015_Jul_23_1207	s	s	11	4	SIC	351	RC	1	2	23MD	1	0	0.441606998444	251.0	-108.0	247	-109	1
1.7	2015_Jul_23_1207	s	s	11	4	SIC	352	RC	1	1	23MO	1	0	2.04745912552	-214.0	278.0	-218	272	1
1.7	2015_Jul_23_1207	s	s	11	4	SIC	353	RC	1	0	23MC	1	0	0.799785852432	-491.0	349.0	-492	343	1
1.7	2015_Jul_23_1207	s	s	11	4	SIC	354	ABS	1	0	24MC	0	1	2.31812310219	None	None	None	None	1
1.7	2015_Jul_23_1207	s	s	11	4	SIC	355	RC	2	1	23VO	1	0	0.470178127289	-101.0	-183.0	-101	-189	1
1.7	2015_Jul_23_1207	s	s	11	4	SIC	356	RC	0	2	23RD	1	0	0.512289047241	-171.0	-88.0	-172	-87	1
1.7	2015_Jul_23_1207	s	s	11	4	SIC	357	RC	0	1	23RO	1	0	1.58834004402	462.0	-109.0	457	-109	1
1.7	2015_Jul_23_1207	s	s	11	4	SIC	358	ABS	0	2	24RD	0	1	0.667520999908	None	None	None	None	1
1.7	2015_Jul_23_1207	s	s	11	4	SIC	359	ABS	2	1	24VO	0	1	0.446686983109	None	None	None	None	1
1.7	2015_Jul_23_1207	s	s	11	4	SIC	360	ABS	1	1	24MO	0	1	0.926513195038	None	None	None	None	1
1.7	2015_Jul_23_1207	s	s	11	4	SIC	361	ABS	2	0	24VC	0	1	0.505509853363	None	None	None	None	1
1.7	2015_Jul_23_1207	s	s	11	4	SIC	362	RC	2	2	23VD	1	0	0.382732868195	-295.0	-187.0	-290	-181	1
1.7	2015_Jul_23_1207	s	s	11	4	SIC	363	RC	1	2	23MD	1	0	0.470185995102	-427.0	-32.0	-425	-24	1
1.7	2015_Jul_23_1207	s	s	11	4	SIC	364	ABS	2	2	24VD	0	1	0.524168014526	None	None	None	None	1
1.7	2015_Jul_23_1207	s	s	11	4	SIC	365	RC	2	0	23VC	1	0	0.441648006439	-207.0	261.0	-211	250	1
1.7	2015_Jul_23_1207	s	s	11	4	SIC	366	ABS	1	2	24MD	0	1	0.623263120651	None	None	None	None	1
1.7	2015_Jul_23_1207	s	s	11	4	SIC	367	ABS	0	1	24RO	0	1	2.92722606659	None	None	None	None	1
1.7	2015_Jul_23_1207	s	s	11	4	SIC	368	RC	1	1	23MO	1	0	1.3647480011	521.0	1.0	526	4	1
1.7	2015_Jul_23_1207	s	s	11	4	SIC	369	ABS	1	2	24MD	0	1	0.572603940964	None	None	None	None	1
1.7	2015_Jul_23_1207	s	s	11	4	SIC	370	ABS	1	1	24MO	0	1	1.43517613411	None	None	None	None	1
1.7	2015_Jul_23_1207	s	s	11	4	SIC	371	RC	0	2	23RD	1	0	0.505508899689	-335.0	152.0	-333	161	1
1.7	2015_Jul_23_1207	s	s	11	4	SIC	372	ABS	2	1	24VO	0	1	0.924135923386	None	None	None	None	1
1.7	2015_Jul_23_1207	s	s	11	4	SIC	373	RC	2	0	23VC	1	0	0.547393083572	-379.0	-348.0	-378	-347	1
1.7	2015_Jul_23_1207	s	s	11	4	SIC	374	ABS	1	0	24MC	0	1	2.71348500252	None	None	None	None	1
1.7	2015_Jul_23_1207	s	s	11	4	SIC	375	ABS	2	2	24VD	0	1	0.493722915649	None	None	None	None	1
1.7	2015_Jul_23_1207	s	s	11	4	SIC	376	RC	1	0	23MC	1	0	1.7470331192	-446.0	302.0	-446	301	1
1.7	2015_Jul_23_1207	s	s	11	4	SIC	377	RC	2	2	23VD	1	0	0.395908117294	-203.0	-292.0	-196	-285	1
1.7	2015_Jul_23_1207	s	s	11	4	SIC	378	RC	1	1	23MO	1	0	0.905672073364	-326.0	-317.0	-318	-319	1
1.7	2015_Jul_23_1207	s	s	11	4	SIC	379	ABS	0	1	24RO	0	1	1.98854017258	None	None	None	None	1
1.7	2015_Jul_23_1207	s	s	11	4	SIC	380	ABS	2	0	24VC	0	1	0.536106109619	None	None	None	None	1
1.7	2015_Jul_23_1207	s	s	11	4	SIC	381	RC	2	1	23VO	1	0	0.435283899307	-231.0	-19.0	-231	-22	1
1.7	2015_Jul_23_1207	s	s	11	4	SIC	382	RC	0	1	23RO	0	1	3.41933917999	432.0	-272.0	None	None	0
1.7	2015_Jul_23_1207	s	s	11	4	SIC	383	RC	1	2	23MD	1	0	0.481896877289	76.0	-297.0	68	-290	1
1.7	2015_Jul_23_1207	s	s	11	4	SIC	384	ABS	0	2	24RD	0	1	0.606225967407	None	None	None	None	1
1.7	2015_Jul_23_1207	s	s	11	4	SIC	385	RC	1	1	23MO	1	0	0.858590841293	165.0	-261.0	168	-262	1
1.7	2015_Jul_23_1207	s	s	11	4	SIC	386	ABS	2	2	24VD	0	1	0.423123121262	None	None	None	None	1
1.7	2015_Jul_23_1207	s	s	11	4	SIC	387	RC	0	2	23RD	1	0	0.493674039841	-195.0	-255.0	-193	-246	1
1.7	2015_Jul_23_1207	s	s	11	4	SIC	388	ABS	0	2	24RD	0	1	0.623115062714	None	None	None	None	1
1.7	2015_Jul_23_1207	s	s	11	4	SIC	389	ABS	2	1	24VO	0	1	0.512544155121	None	None	None	None	1
1.7	2015_Jul_23_1207	s	s	11	4	SIC	390	RC	1	2	23MD	1	0	0.646720170975	302.0	213.0	298	201	1
1.7	2015_Jul_23_1207	s	s	11	4	SIC	391	ABS	2	0	24VC	0	1	0.564417123795	None	None	None	None	1
1.7	2015_Jul_23_1207	s	s	11	4	SIC	392	RC	1	0	23MC	1	0	0.964492082596	-278.0	-307.0	-276	-303	1
1.7	2015_Jul_23_1207	s	s	11	4	SIC	393	ABS	1	0	24MC	0	1	1.06533384323	None	None	None	None	1
1.7	2015_Jul_23_1207	s	s	11	4	SIC	394	RC	2	1	23VO	1	0	0.465341091156	-283.0	13.0	-280	15	1
1.7	2015_Jul_23_1207	s	s	11	4	SIC	395	ABS	0	1	24RO	0	1	4.30245995522	None	None	None	None	1
1.7	2015_Jul_23_1207	s	s	11	4	SIC	396	RC	2	0	23VC	1	0	0.470189094543	452.0	401.0	454	407	1
1.7	2015_Jul_23_1207	s	s	11	4	SIC	397	ABS	1	1	24MO	0	1	4.31418204308	None	None	None	None	1
1.7	2015_Jul_23_1207	s	s	11	4	SIC	398	RC	0	1	23RO	1	0	4.07198309898	-414.0	-243.0	-411	-239	1
1.7	2015_Jul_23_1207	s	s	11	4	SIC	399	ABS	1	2	24MD	0	1	0.682153940201	None	None	None	None	1
1.7	2015_Jul_23_1207	s	s	11	4	SIC	400	RC	2	2	23VD	1	0	0.470119953156	-370.0	343.0	-378	337	1
1.7	2015_Jul_23_1207	s	s	11	4	SIC	401	ABS	2	2	24VD	0	1	0.529016017914	None	None	None	None	1
1.7	2015_Jul_23_1207	s	s	11	4	SIC	402	ABS	2	0	24VC	0	1	0.700448989868	None	None	None	None	1
1.7	2015_Jul_23_1207	s	s	11	4	SIC	403	RC	1	0	23MC	1	0	5.10517787933	-210.0	69.0	-210	66	1
1.7	2015_Jul_23_1207	s	s	11	4	SIC	404	ABS	2	1	24VO	0	1	0.587909936905	None	None	None	None	1
1.7	2015_Jul_23_1207	s	s	11	4	SIC	405	ABS	0	1	24RO	0	1	4.22500085831	None	None	None	None	1
1.7	2015_Jul_23_1207	s	s	11	4	SIC	406	ABS	1	0	24MC	0	1	2.2122490406	None	None	None	None	1
1.7	2015_Jul_23_1207	s	s	11	4	SIC	407	RC	1	1	23MO	1	0	0.552489042282	-129.0	41.0	-127	43	1
1.7	2015_Jul_23_1207	s	s	11	4	SIC	408	RC	1	2	23MD	1	0	0.505436897278	-32.0	-194.0	-31	-196	1
1.7	2015_Jul_23_1207	s	s	11	4	SIC	409	ABS	1	2	24MD	0	1	0.599581956863	None	None	None	None	1
1.7	2015_Jul_23_1207	s	s	11	4	SIC	410	RC	2	2	23VD	1	0	0.431547164917	-144.0	-119.0	-131	-111	1
1.7	2015_Jul_23_1207	s	s	11	4	SIC	411	RC	0	2	23RD	1	0	0.528881788254	-477.0	-358.0	-481	-360	1
1.7	2015_Jul_23_1207	s	s	11	4	SIC	412	RC	2	1	23VO	1	0	0.544364213943	393.0	-347.0	396	-355	1
1.7	2015_Jul_23_1207	s	s	11	4	SIC	413	ABS	0	2	24RD	0	1	0.705611944199	None	None	None	None	1
1.7	2015_Jul_23_1207	s	s	11	4	SIC	414	RC	0	1	23RO	1	0	1.97678089142	-505.0	-345.0	-510	-343	1
1.7	2015_Jul_23_1207	s	s	11	4	SIC	415	ABS	1	1	24MO	0	1	1.3838121891	None	None	None	None	1
1.7	2015_Jul_23_1207	s	s	11	4	SIC	416	RC	2	0	23VC	1	0	0.418335914612	400.0	-144.0	394	-138	1
1.7	2015_Jul_23_1207	s	s	11	4	SIC	417	RC	1	2	23MD	1	0	0.429776906967	446.0	-64.0	447	-57	1
1.7	2015_Jul_23_1207	s	s	11	4	SIC	418	ABS	0	1	24RO	0	1	2.70211005211	None	None	None	None	1
1.7	2015_Jul_23_1207	s	s	11	4	SIC	419	ABS	1	2	24MD	0	1	0.653530836105	None	None	None	None	1
1.7	2015_Jul_23_1207	s	s	11	4	SIC	420	RC	2	1	23VO	1	0	0.481948137283	-373.0	347.0	-373	345	1
1.7	2015_Jul_23_1207	s	s	11	4	SIC	421	RC	1	0	23MC	1	0	0.776198863983	-487.0	196.0	-488	198	1
1.7	2015_Jul_23_1207	s	s	11	4	SIC	422	ABS	1	1	24MO	0	1	1.75315904617	None	None	None	None	1
1.7	2015_Jul_23_1207	s	s	11	4	SIC	423	ABS	2	1	24VO	0	1	0.540835142136	None	None	None	None	1
1.7	2015_Jul_23_1207	s	s	11	4	SIC	424	RC	0	1	23RO	1	0	2.12482213974	-390.0	-398.0	-386	-403	1
1.7	2015_Jul_23_1207	s	s	11	4	SIC	425	RC	2	2	23VD	1	0	0.423470973969	-145.0	208.0	-148	200	1
1.7	2015_Jul_23_1207	s	s	11	4	SIC	426	RC	2	0	23VC	1	0	0.405250787735	42.0	166.0	49	166	1
1.7	2015_Jul_23_1207	s	s	11	4	SIC	427	ABS	2	0	24VC	0	1	0.517283916473	None	None	None	None	1
1.7	2015_Jul_23_1207	s	s	11	4	SIC	428	ABS	2	2	24VD	0	1	0.549844026566	None	None	None	None	1
1.7	2015_Jul_23_1207	s	s	11	4	SIC	429	RC	0	2	23RD	1	0	0.559360980988	375.0	-244.0	381	-243	1
1.7	2015_Jul_23_1207	s	s	11	4	SIC	430	ABS	0	2	24RD	0	1	0.749220848083	None	None	None	None	1
1.7	2015_Jul_23_1207	s	s	11	4	SIC	431	RC	1	1	23MO	1	0	1.02957105637	105.0	-235.0	98	-233	1
1.7	2015_Jul_23_1207	s	s	11	4	SIC	432	ABS	1	0	24MC	0	1	2.43955183029	None	None	None	None	1
1.7	2015_Jul_23_1207	s	s	11	4	SIC	433	ABS	2	0	24VC	0	1	0.559315919876	None	None	None	None	1
1.7	2015_Jul_23_1207	s	s	11	4	SIC	434	ABS	2	1	24VO	0	1	0.505511045456	None	None	None	None	1
1.7	2015_Jul_23_1207	s	s	11	4	SIC	435	RC	2	2	23VD	1	0	0.488720178604	11.0	180.0	10	168	1
1.7	2015_Jul_23_1207	s	s	11	4	SIC	436	RC	0	1	23RO	1	0	1.2470459938	-21.0	178.0	-19	168	1
1.7	2015_Jul_23_1207	s	s	11	4	SIC	437	RC	1	1	23MO	1	0	0.646670818329	-161.0	-98.0	-163	-102	1
1.7	2015_Jul_23_1207	s	s	11	4	SIC	438	ABS	0	1	24RO	0	1	5.05714607239	None	None	None	None	1
1.7	2015_Jul_23_1207	s	s	11	4	SIC	439	RC	1	2	23MD	1	0	0.46534705162	-184.0	-381.0	-176	-384	1
1.7	2015_Jul_23_1207	s	s	11	4	SIC	440	RC	0	2	23RD	1	0	0.500522851944	368.0	131.0	364	130	1
1.7	2015_Jul_23_1207	s	s	11	4	SIC	441	RC	1	0	23MC	1	0	0.658483028412	-487.0	-261.0	17	-41	0
1.7	2015_Jul_23_1207	s	s	11	4	SIC	442	ABS	1	2	24MD	0	1	0.864831924438	None	None	None	None	1
1.7	2015_Jul_23_1207	s	s	11	4	SIC	443	ABS	0	2	24RD	0	1	0.629956960678	None	None	None	None	1
1.7	2015_Jul_23_1207	s	s	11	4	SIC	444	RC	2	1	23VO	1	0	0.429923057556	455.0	368.0	452	365	1
1.7	2015_Jul_23_1207	s	s	11	4	SIC	445	RC	2	0	23VC	1	0	0.429866075516	-175.0	-120.0	-182	-118	1
1.7	2015_Jul_23_1207	s	s	11	4	SIC	446	ABS	2	2	24VD	0	1	0.552583932877	None	None	None	None	1
1.7	2015_Jul_23_1207	s	s	11	4	SIC	447	ABS	1	1	24MO	0	1	1.88266682625	None	None	None	None	1
1.7	2015_Jul_23_1207	s	s	11	4	SIC	448	ABS	1	0	24MC	0	1	1.12508106232	None	None	None	None	1
1.7	2015_Jul_23_1207	s	s	11	4	SIC	449	RC	2	0	23VC	1	0	0.505456924438	-438.0	357.0	-443	366	1
1.7	2015_Jul_23_1207	s	s	11	4	SIC	450	RC	2	2	23VD	1	0	0.370834827423	-518.0	66.0	-511	64	1
1.7	2015_Jul_23_1207	s	s	11	4	SIC	451	ABS	2	0	24VC	0	1	0.599673032761	None	None	None	None	1
1.7	2015_Jul_23_1207	s	s	11	4	SIC	452	ABS	2	2	24VD	0	1	0.455697059631	None	None	None	None	1
1.7	2015_Jul_23_1207	s	s	11	4	SIC	453	RC	1	1	23MO	1	0	2.44264793396	177.0	154.0	184	159	1
1.7	2015_Jul_23_1207	s	s	11	4	SIC	454	RC	2	1	23VO	1	0	0.411719083786	151.0	28.0	151	23	1
1.7	2015_Jul_23_1207	s	s	11	4	SIC	455	ABS	0	1	24RO	0	1	3.64291906357	None	None	None	None	1
1.7	2015_Jul_23_1207	s	s	11	4	SIC	456	ABS	1	1	24MO	0	1	1.1175661087	None	None	None	None	1
1.7	2015_Jul_23_1207	s	s	11	4	SIC	457	ABS	1	2	24MD	0	1	0.587905883789	None	None	None	None	1
1.7	2015_Jul_23_1207	s	s	11	4	SIC	458	RC	1	0	23MC	1	0	0.745600938797	406.0	97.0	396	96	1
1.7	2015_Jul_23_1207	s	s	11	4	SIC	459	ABS	0	2	24RD	0	1	0.932894945145	None	None	None	None	1
1.7	2015_Jul_23_1207	s	s	11	4	SIC	460	ABS	1	0	24MC	0	1	1.85916018486	None	None	None	None	1
1.7	2015_Jul_23_1207	s	s	11	4	SIC	461	RC	0	1	23RO	1	0	0.818236112595	244.0	15.0	240	13	1
1.7	2015_Jul_23_1207	s	s	11	4	SIC	462	RC	1	2	23MD	1	0	0.423075914383	-372.0	100.0	-362	110	1
1.7	2015_Jul_23_1207	s	s	11	4	SIC	463	ABS	2	1	24VO	0	1	0.560240030289	None	None	None	None	1
1.7	2015_Jul_23_1207	s	s	11	4	SIC	464	RC	0	2	23RD	1	0	0.40732717514	-51.0	-59.0	-43	-52	1
1.7	2015_Jul_23_1207	s	s	11	4	SIC	465	RC	1	0	23MC	1	0	1.05063486099	-252.0	-48.0	-257	-49	1
1.7	2015_Jul_23_1207	s	s	11	4	SIC	466	RC	1	2	23MD	1	0	0.57608294487	299.0	34.0	300	36	1
1.7	2015_Jul_23_1207	s	s	11	4	SIC	467	ABS	2	2	24VD	0	1	0.670206069946	None	None	None	None	1
1.7	2015_Jul_23_1207	s	s	11	4	SIC	468	ABS	1	0	24MC	0	1	3.30686402321	None	None	None	None	1
1.7	2015_Jul_23_1207	s	s	11	4	SIC	469	ABS	1	1	24MO	0	1	3.03620100021	None	None	None	None	1
1.7	2015_Jul_23_1207	s	s	11	4	SIC	470	ABS	0	2	24RD	0	1	0.670365095139	None	None	None	None	1
1.7	2015_Jul_23_1207	s	s	11	4	SIC	471	ABS	2	1	24VO	0	1	1.05868077278	None	None	None	None	1
1.7	2015_Jul_23_1207	s	s	11	4	SIC	472	ABS	1	2	24MD	0	1	0.676877975464	None	None	None	None	1
1.7	2015_Jul_23_1207	s	s	11	4	SIC	473	RC	2	0	23VC	1	0	0.576143026352	444.0	311.0	448	311	1
1.7	2015_Jul_23_1207	s	s	11	4	SIC	474	RC	0	1	23RO	1	0	1.04201507568	79.0	8.0	80	4	1
1.7	2015_Jul_23_1207	s	s	11	4	SIC	475	RC	2	1	23VO	1	0	0.458422899246	-418.0	134.0	-424	131	1
1.7	2015_Jul_23_1207	s	s	11	4	SIC	476	RC	0	2	23RD	1	0	0.417922973633	283.0	-150.0	292	-150	1
1.7	2015_Jul_23_1207	s	s	11	4	SIC	477	RC	2	2	23VD	1	0	0.441120862961	-93.0	115.0	-90	114	1
1.7	2015_Jul_23_1207	s	s	11	4	SIC	478	ABS	2	0	24VC	0	1	0.835370063782	None	None	None	None	1
1.7	2015_Jul_23_1207	s	s	11	4	SIC	479	RC	1	1	23MO	1	0	0.443711996078	-333.0	-112.0	-328	-110	1
1.7	2015_Jul_23_1207	s	s	11	4	SIC	480	ABS	0	1	24RO	0	1	4.29543399811	None	None	None	None	1
1.7	2015_Jul_23_1207	s	s	11	4	SIC	481	RC	1	0	23MC	1	0	1.12451386452	453.0	-12.0	462	-6	1
1.7	2015_Jul_23_1207	s	s	11	4	SIC	482	ABS	0	2	24RD	0	1	0.594362020493	None	None	None	None	1
1.7	2015_Jul_23_1207	s	s	11	4	SIC	483	RC	2	0	23VC	1	0	0.440977096558	-186.0	-374.0	-192	-371	1
1.7	2015_Jul_23_1207	s	s	11	4	SIC	484	RC	1	2	23MD	1	0	0.470181941986	506.0	-71.0	502	-67	1
1.7	2015_Jul_23_1207	s	s	11	4	SIC	485	ABS	2	1	24VO	0	1	0.618012189865	None	None	None	None	1
1.7	2015_Jul_23_1207	s	s	11	4	SIC	486	ABS	1	1	24MO	0	1	0.831837892532	None	None	None	None	1
1.7	2015_Jul_23_1207	s	s	11	4	SIC	487	RC	0	1	23RO	1	0	2.58894205093	312.0	-83.0	314	-77	1
1.7	2015_Jul_23_1207	s	s	11	4	SIC	488	ABS	2	0	24VC	0	1	0.470236063004	None	None	None	None	1
1.7	2015_Jul_23_1207	s	s	11	4	SIC	489	RC	2	1	23VO	1	0	0.465897083282	268.0	0.0	259	-2	1
1.7	2015_Jul_23_1207	s	s	11	4	SIC	490	ABS	1	2	24MD	0	1	0.529028177261	None	None	None	None	1
1.7	2015_Jul_23_1207	s	s	11	4	SIC	491	RC	1	1	23MO	1	0	1.07701992989	202.0	-338.0	208	-339	1
1.7	2015_Jul_23_1207	s	s	11	4	SIC	492	ABS	1	0	24MC	0	1	1.38824081421	None	None	None	None	1
1.7	2015_Jul_23_1207	s	s	11	4	SIC	493	RC	0	2	23RD	1	0	0.423150062561	-325.0	-339.0	-322	-334	1
1.7	2015_Jul_23_1207	s	s	11	4	SIC	494	ABS	0	1	24RO	0	1	3.45433497429	None	None	None	None	1
1.7	2015_Jul_23_1207	s	s	11	4	SIC	495	ABS	2	2	24VD	0	1	0.641043901443	None	None	None	None	1
1.7	2015_Jul_23_1207	s	s	11	4	SIC	496	RC	2	2	23VD	0	1	0.561810016632	52.0	-343.0	None	None	0
1.7	2015_Jul_23_1207	s	s	11	4	SIC	497	RC	2	2	23VD	1	0	0.488592863083	-370.0	408.0	-367	401	1
1.7	2015_Jul_23_1207	s	s	11	4	SIC	498	ABS	1	2	24MD	0	1	0.620530843735	None	None	None	None	1
1.7	2015_Jul_23_1207	s	s	11	4	SIC	499	ABS	2	0	24VC	0	1	0.569859981537	None	None	None	None	1
1.7	2015_Jul_23_1207	s	s	11	4	SIC	500	RC	0	1	23RO	1	0	2.20738983154	-289.0	-178.0	-288	-185	1
1.7	2015_Jul_23_1207	s	s	11	4	SIC	501	RC	0	2	23RD	1	0	0.512193918228	-18.0	-186.0	-22	-193	1
1.7	2015_Jul_23_1207	s	s	11	4	SIC	502	ABS	1	1	24MO	0	1	0.853487014771	None	None	None	None	1
1.7	2015_Jul_23_1207	s	s	11	4	SIC	503	ABS	1	0	24MC	0	1	5.25274515152	None	None	None	None	1
1.7	2015_Jul_23_1207	s	s	11	4	SIC	504	ABS	2	1	24VO	0	1	7.48545598984	None	None	None	None	1
1.7	2015_Jul_23_1207	s	s	11	4	SIC	505	RC	2	1	23VO	1	0	0.481994867325	120.0	324.0	114	321	1
1.7	2015_Jul_23_1207	s	s	11	4	SIC	506	ABS	0	1	24RO	0	1	3.77763581276	None	None	None	None	1
1.7	2015_Jul_23_1207	s	s	11	4	SIC	507	ABS	0	2	24RD	0	1	0.642783880234	None	None	None	None	1
1.7	2015_Jul_23_1207	s	s	11	4	SIC	508	RC	1	2	23MD	1	0	0.399524927139	91.0	138.0	84	131	1
1.7	2015_Jul_23_1207	s	s	11	4	SIC	509	ABS	2	2	24VD	0	1	0.611497163773	None	None	None	None	1
1.7	2015_Jul_23_1207	s	s	11	4	SIC	510	RC	2	0	23VC	1	0	0.418777942657	62.0	342.0	67	336	1
1.7	2015_Jul_23_1207	s	s	11	4	SIC	511	RC	1	1	23MO	1	0	0.764834165573	-232.0	345.0	-239	344	1
1.7	2015_Jul_23_1207	s	s	11	4	SIC	512	RC	1	0	23MC	1	0	1.07417321205	99.0	-106.0	97	-116	1
1.7	2015_Jul_23_1207	s	s	11	4	SIC	513	ABS	1	2	24MD	0	1	0.587776899338	None	None	None	None	1
1.7	2015_Jul_23_1207	s	s	11	4	SIC	514	ABS	2	1	24VO	0	1	0.540818929672	None	None	None	None	1
1.7	2015_Jul_23_1207	s	s	11	4	SIC	515	RC	1	1	23MO	1	0	0.830010890961	-47.0	-246.0	-51	-251	1
1.7	2015_Jul_23_1207	s	s	11	4	SIC	516	RC	0	2	23RD	1	0	0.500423192978	75.0	-248.0	78	-259	1
1.7	2015_Jul_23_1207	s	s	11	4	SIC	517	RC	2	0	23VC	1	0	0.529088020325	197.0	405.0	200	397	1
1.7	2015_Jul_23_1207	s	s	11	4	SIC	518	ABS	1	1	24MO	0	1	2.41232204437	None	None	None	None	1
1.7	2015_Jul_23_1207	s	s	11	4	SIC	519	ABS	0	2	24RD	0	1	0.570873022079	None	None	None	None	1
1.7	2015_Jul_23_1207	s	s	11	4	SIC	520	ABS	2	2	24VD	0	1	0.52904009819	None	None	None	None	1
1.7	2015_Jul_23_1207	s	s	11	4	SIC	521	ABS	2	0	24VC	0	1	0.523848056793	None	None	None	None	1
1.7	2015_Jul_23_1207	s	s	11	4	SIC	522	RC	2	1	23VO	1	0	0.462074995041	-491.0	-325.0	-498	-316	1
1.7	2015_Jul_23_1207	s	s	11	4	SIC	523	ABS	1	0	24MC	0	1	2.5720500946	None	None	None	None	1
1.7	2015_Jul_23_1207	s	s	11	4	SIC	524	RC	0	1	23RO	1	0	2.28290319443	-18.0	255.0	-5	258	1
1.7	2015_Jul_23_1207	s	s	11	4	SIC	525	RC	2	2	23VD	1	0	0.434868097305	244.0	280.0	242	271	1
1.7	2015_Jul_23_1207	s	s	11	4	SIC	526	RC	1	2	23MD	1	0	0.394040822983	150.0	-99.0	148	-102	1
1.7	2015_Jul_23_1207	s	s	11	4	SIC	527	RC	1	0	23MC	1	0	0.997318983078	47.0	299.0	54	305	1
1.7	2015_Jul_23_1207	s	s	11	4	SIC	528	ABS	0	1	24RO	0	1	4.23673295975	None	None	None	None	1
1.7	2015_Jul_23_1207	s	s	11	4	SIC	529	RC	1	0	23MC	1	0	0.688889980316	271.0	1.0	285	6	1
1.7	2015_Jul_23_1207	s	s	11	4	SIC	530	RC	2	2	23VD	1	0	0.406305074692	-350.0	-352.0	-347	-350	1
1.7	2015_Jul_23_1207	s	s	11	4	SIC	531	ABS	2	1	24VO	0	1	0.641646146774	None	None	None	None	1
1.7	2015_Jul_23_1207	s	s	11	4	SIC	532	ABS	1	1	24MO	0	1	1.99501109123	None	None	None	None	1
1.7	2015_Jul_23_1207	s	s	11	4	SIC	533	RC	1	1	23MO	0	1	0.705585956573	276.0	315.0	None	None	0
1.7	2015_Jul_23_1207	s	s	11	4	SIC	534	RC	0	1	23RO	1	0	5.01361918449	459.0	-177.0	472	-172	1
1.7	2015_Jul_23_1207	s	s	11	4	SIC	535	RC	2	1	23VO	1	0	2.15329909325	-162.0	307.0	-168	309	1
1.7	2015_Jul_23_1207	s	s	11	4	SIC	536	ABS	0	2	24RD	0	1	6.9733710289	None	None	None	None	1
1.7	2015_Jul_23_1207	s	s	11	4	SIC	537	ABS	2	0	24VC	0	1	0.4793009758	None	None	None	None	1
1.7	2015_Jul_23_1207	s	s	11	4	SIC	538	RC	0	2	23RD	1	0	3.33571195602	-420.0	-332.0	-426	-333	1
1.7	2015_Jul_23_1207	s	s	11	4	SIC	539	ABS	2	2	24VD	0	1	0.700757026672	None	None	None	None	1
1.7	2015_Jul_23_1207	s	s	11	4	SIC	540	ABS	1	0	24MC	0	1	1.41858196259	None	None	None	None	1
1.7	2015_Jul_23_1207	s	s	11	4	SIC	541	RC	1	2	23MD	1	0	0.458386898041	105.0	-191.0	101	-190	1
1.7	2015_Jul_23_1207	s	s	11	4	SIC	542	ABS	1	2	24MD	0	1	0.846794843674	None	None	None	None	1
1.7	2015_Jul_23_1207	s	s	11	4	SIC	543	ABS	0	1	24RO	0	1	4.81054496765	None	None	None	None	1
1.7	2015_Jul_23_1207	s	s	11	4	SIC	544	RC	2	0	23VC	1	0	0.529047966003	190.0	319.0	197	322	1
1.7	2015_Jul_23_1207	s	s	11	4	SIC	545	ABS	0	2	24RD	0	1	1.03009414673	None	None	None	None	1
1.7	2015_Jul_23_1207	s	s	11	4	SIC	546	RC	1	0	23MC	1	0	1.51445388794	315.0	255.0	318	250	1
1.7	2015_Jul_23_1207	s	s	11	4	SIC	547	ABS	1	1	24MO	0	1	4.04323911667	None	None	None	None	1
1.7	2015_Jul_23_1207	s	s	11	4	SIC	548	RC	2	0	23VC	1	0	0.505453109741	70.0	-186.0	74	-199	1
1.7	2015_Jul_23_1207	s	s	11	4	SIC	549	ABS	2	2	24VD	0	1	0.72673201561	None	None	None	None	1
1.7	2015_Jul_23_1207	s	s	11	4	SIC	550	RC	2	2	23VD	1	0	0.540838003159	-522.0	410.0	-522	406	1
1.7	2015_Jul_23_1207	s	s	11	4	SIC	551	ABS	1	0	24MC	0	1	4.30229592323	None	None	None	None	1
1.7	2015_Jul_23_1207	s	s	11	4	SIC	552	ABS	1	2	24MD	0	1	0.629848957062	None	None	None	None	1
1.7	2015_Jul_23_1207	s	s	11	4	SIC	553	RC	0	1	23RO	1	0	1.66575884819	170.0	156.0	166	160	1
1.7	2015_Jul_23_1207	s	s	11	4	SIC	554	RC	0	2	23RD	1	0	0.423117876053	-403.0	-28.0	-408	-31	1
1.7	2015_Jul_23_1207	s	s	11	4	SIC	555	ABS	2	0	24VC	0	1	0.571318149567	None	None	None	None	1
1.7	2015_Jul_23_1207	s	s	11	4	SIC	556	RC	1	1	23MO	1	0	1.40002298355	41.0	-400.0	50	-401	1
1.7	2015_Jul_23_1207	s	s	11	4	SIC	557	RC	1	2	23MD	1	0	0.523824930191	-388.0	-290.0	-382	-291	1
1.7	2015_Jul_23_1207	s	s	11	4	SIC	558	RC	2	1	23VO	1	0	0.50065279007	-513.0	227.0	-524	233	1
1.7	2015_Jul_23_1207	s	s	11	4	SIC	559	ABS	0	1	24RO	0	1	2.78410005569	None	None	None	None	1
1.7	2015_Jul_23_1207	s	s	11	4	SIC	560	ABS	2	1	24VO	0	1	0.493759155273	None	None	None	None	1
1.7	2015_Jul_23_1207	s	s	11	4	SIC	561	RC	2	0	23VC	1	0	0.537025928497	213.0	-235.0	217	-241	1
1.7	2015_Jul_23_1207	s	s	11	4	SIC	562	RC	1	2	23MD	1	0	0.453377008438	137.0	214.0	136	212	1
1.7	2015_Jul_23_1207	s	s	11	4	SIC	563	RC	2	1	23VO	1	0	0.455780029297	-15.0	325.0	-16	323	1
1.7	2015_Jul_23_1207	s	s	11	4	SIC	564	ABS	1	2	24MD	0	1	1.3647081852	None	None	None	None	1
1.7	2015_Jul_23_1207	s	s	11	4	SIC	565	RC	0	1	23RO	1	0	6.50851416588	-328.0	365.0	-329	363	1
1.7	2015_Jul_23_1207	s	s	11	4	SIC	566	ABS	2	1	24VO	1	0	2.47110795975	None	None	50	-9	0
1.7	2015_Jul_23_1207	s	s	11	4	SIC	567	ABS	1	0	24MC	0	1	14.2181050777	None	None	None	None	1
1.7	2015_Jul_23_1207	s	s	11	4	SIC	568	ABS	2	2	24VD	0	1	2.27103495598	None	None	None	None	1
1.7	2015_Jul_23_1207	s	s	11	4	SIC	569	ABS	1	1	24MO	0	1	1.91295194626	None	None	None	None	1
1.7	2015_Jul_23_1207	s	s	11	4	SIC	570	RC	1	0	23MC	1	0	1.16511106491	299.0	33.0	314	40	1
1.7	2015_Jul_23_1207	s	s	11	4	SIC	571	ABS	0	1	24RO	0	1	3.9425868988	None	None	None	None	1
1.7	2015_Jul_23_1207	s	s	11	4	SIC	572	RC	1	1	23MO	1	0	0.799701929092	530.0	-30.0	528	-25	1
1.7	2015_Jul_23_1207	s	s	11	4	SIC	573	RC	2	2	23VD	1	0	0.423050880432	-273.0	31.0	-275	35	1
1.7	2015_Jul_23_1207	s	s	11	4	SIC	574	ABS	2	0	24VC	0	1	0.53627204895	None	None	None	None	1
1.7	2015_Jul_23_1207	s	s	11	4	SIC	575	RC	0	2	23RD	1	0	0.455384016037	141.0	6.0	134	8	1
1.7	2015_Jul_23_1207	s	s	11	4	SIC	576	ABS	0	2	24RD	0	1	0.559236049652	None	None	None	None	1
1.7	2015_Jul_23_1207	s	s	11	4	SIC	577	RC	1	2	23MD	1	0	0.524207115173	150.0	-350.0	148	-343	1
1.7	2015_Jul_23_1207	s	s	11	4	SIC	578	ABS	1	1	24MO	0	1	1.41801214218	None	None	None	None	1
1.7	2015_Jul_23_1207	s	s	11	4	SIC	579	ABS	2	1	24VO	0	1	0.517244100571	None	None	None	None	1
1.7	2015_Jul_23_1207	s	s	11	4	SIC	580	ABS	2	2	24VD	0	1	0.470108985901	None	None	None	None	1
1.7	2015_Jul_23_1207	s	s	11	4	SIC	581	RC	1	0	23MC	0	1	2.47121906281	261.0	293.0	None	None	0
1.7	2015_Jul_23_1207	s	s	11	4	SIC	582	RC	1	1	23MO	1	0	1.80671715736	-159.0	-117.0	-150	-112	1
1.7	2015_Jul_23_1207	s	s	11	4	SIC	583	ABS	1	0	24MC	0	1	2.58237099648	None	None	None	None	1
1.7	2015_Jul_23_1207	s	s	11	4	SIC	584	ABS	1	2	24MD	0	1	0.646682977676	None	None	None	None	1
1.7	2015_Jul_23_1207	s	s	11	4	SIC	585	RC	2	0	23VC	1	0	0.426805019379	-444.0	-253.0	-437	-251	1
1.7	2015_Jul_23_1207	s	s	11	4	SIC	586	RC	2	2	23VD	1	0	0.418642044067	-159.0	-361.0	-158	-359	1
1.7	2015_Jul_23_1207	s	s	11	4	SIC	587	RC	2	1	23VO	1	0	0.729129076004	424.0	147.0	431	154	1
1.7	2015_Jul_23_1207	s	s	11	4	SIC	588	ABS	2	0	24VC	0	1	0.670248985291	None	None	None	None	1
1.7	2015_Jul_23_1207	s	s	11	4	SIC	589	RC	0	2	23RD	1	0	0.641596078873	-540.0	-32.0	-533	-32	1
1.7	2015_Jul_23_1207	s	s	11	4	SIC	590	ABS	0	1	24RO	0	1	3.39802098274	None	None	None	None	1
1.7	2015_Jul_23_1207	s	s	11	4	SIC	591	RC	0	1	23RO	1	0	1.22944498062	230.0	-62.0	234	-61	1
1.7	2015_Jul_23_1207	s	s	11	4	SIC	592	ABS	0	2	24RD	0	1	1.18006587029	None	None	None	None	1
