Version	Date	Stimuli	Method	Subject	Session	Condition	Trial	Target	Channel1	Channel2	Distractors	LMouseButton	RMouseButton	RT	TargetX	TargetY	ResponseX	ResponseY	Correct
1.7	2015_Jul_22_1206	s	s	11	3	Capacity	1	ABS	0	2	24RD	0	1	1.89433097839	None	None	None	None	1
1.7	2015_Jul_22_1206	s	s	11	3	Capacity	2	ABS	0	1	24RO	0	1	2.6422419548	None	None	None	None	1
1.7	2015_Jul_22_1206	s	s	11	3	Capacity	3	RC	0	2	23RD	1	0	0.599580049515	519.0	-292.0	513	-288	1
1.7	2015_Jul_22_1206	s	s	11	3	Capacity	4	RC	0	1	23RO	1	0	0.794798851013	220.0	-213.0	229	-209	1
1.7	2015_Jul_22_1206	s	s	11	3	Capacity	5	RC	0	2	23RD	1	0	0.470060825348	-495.0	312.0	-493	313	1
1.7	2015_Jul_22_1206	s	s	11	3	Capacity	6	ABS	0	1	24RO	0	1	3.80124187469	None	None	None	None	1
1.7	2015_Jul_22_1206	s	s	11	3	Capacity	7	RC	0	1	23RO	1	0	0.630106925964	-185.0	-93.0	-178	-97	1
1.7	2015_Jul_22_1206	s	s	11	3	Capacity	8	ABS	0	2	24RD	0	1	0.831845998764	None	None	None	None	1
1.7	2015_Jul_22_1206	s	s	11	3	Capacity	9	RC	0	2	23RD	1	0	0.540714979172	-203.0	323.0	-206	322	1
1.7	2015_Jul_22_1206	s	s	11	3	Capacity	10	ABS	0	2	24RD	0	1	0.787928104401	None	None	None	None	1
1.7	2015_Jul_22_1206	s	s	11	3	Capacity	11	RC	0	1	23RO	1	0	0.900844097137	-352.0	-78.0	-346	-82	1
1.7	2015_Jul_22_1206	s	s	11	3	Capacity	12	ABS	0	1	24RO	0	1	4.5024189949	None	None	None	None	1
1.7	2015_Jul_22_1206	s	s	11	3	Capacity	13	RC	0	1	23RO	1	0	1.04199910164	-197.0	100.0	-186	105	1
1.7	2015_Jul_22_1206	s	s	11	3	Capacity	14	ABS	0	2	24RD	0	1	0.759416103363	None	None	None	None	1
1.7	2015_Jul_22_1206	s	s	11	3	Capacity	15	RC	0	2	23RD	1	0	0.736221075058	-279.0	-401.0	-276	-406	1
1.7	2015_Jul_22_1206	s	s	11	3	Capacity	16	ABS	0	1	24RO	0	1	3.78390192986	None	None	None	None	1
1.7	2015_Jul_22_1206	s	s	11	3	Capacity	17	ABS	0	2	24RD	0	1	0.740901947021	None	None	None	None	1
1.7	2015_Jul_22_1206	s	s	11	3	Capacity	18	RC	0	2	23RD	1	0	0.688511133194	191.0	64.0	191	54	1
1.7	2015_Jul_22_1206	s	s	11	3	Capacity	19	RC	0	1	23RO	1	0	1.27977108955	434.0	279.0	433	278	1
1.7	2015_Jul_22_1206	s	s	11	3	Capacity	20	ABS	0	1	24RO	0	1	4.22491407394	None	None	None	None	1
1.7	2015_Jul_22_1206	s	s	11	3	Capacity	21	RC	0	2	23RD	1	0	0.505395174026	116.0	305.0	119	307	1
1.7	2015_Jul_22_1206	s	s	11	3	Capacity	22	ABS	0	1	24RO	0	1	3.90066599846	None	None	None	None	1
1.7	2015_Jul_22_1206	s	s	11	3	Capacity	23	RC	0	1	23RO	1	0	2.36520504951	-366.0	-294.0	-361	-285	1
1.7	2015_Jul_22_1206	s	s	11	3	Capacity	24	ABS	0	2	24RD	0	1	1.25629997253	None	None	None	None	1
1.7	2015_Jul_22_1206	s	s	11	3	Capacity	25	ABS	0	1	24RO	0	1	5.22547507286	None	None	None	None	1
1.7	2015_Jul_22_1206	s	s	11	3	Capacity	26	RC	0	1	23RO	0	1	3.21269512177	375.0	-215.0	None	None	0
1.7	2015_Jul_22_1206	s	s	11	3	Capacity	27	ABS	0	2	24RD	0	1	0.773773908615	None	None	None	None	1
1.7	2015_Jul_22_1206	s	s	11	3	Capacity	28	RC	0	2	23RD	1	0	0.641725063324	-222.0	-129.0	-220	-131	1
1.7	2015_Jul_22_1206	s	s	11	3	Capacity	29	ABS	0	2	24RD	0	1	1.16456985474	None	None	None	None	1
1.7	2015_Jul_22_1206	s	s	11	3	Capacity	30	RC	0	1	23RO	1	0	1.49800014496	539.0	-318.0	537	-323	1
1.7	2015_Jul_22_1206	s	s	11	3	Capacity	31	RC	0	2	23RD	1	0	0.79496884346	69.0	254.0	74	259	1
1.7	2015_Jul_22_1206	s	s	11	3	Capacity	32	ABS	0	1	24RO	0	1	4.86055612564	None	None	None	None	1
1.7	2015_Jul_22_1206	s	s	11	3	Capacity	33	RC	0	2	23RD	1	0	0.503052949905	13.0	87.0	16	91	1
1.7	2015_Jul_22_1206	s	s	11	3	Capacity	34	ABS	0	2	24RD	0	1	0.835487127304	None	None	None	None	1
1.7	2015_Jul_22_1206	s	s	11	3	Capacity	35	RC	0	1	23RO	1	0	2.50156497955	369.0	197.0	371	195	1
1.7	2015_Jul_22_1206	s	s	11	3	Capacity	36	ABS	0	1	24RO	0	1	4.5168530941	None	None	None	None	1
1.7	2015_Jul_22_1206	s	s	11	3	Capacity	37	RC	0	2	23RD	1	0	0.619966030121	-377.0	342.0	-383	343	1
1.7	2015_Jul_22_1206	s	s	11	3	Capacity	38	ABS	0	2	24RD	0	1	0.996119976044	None	None	None	None	1
1.7	2015_Jul_22_1206	s	s	11	3	Capacity	39	RC	0	1	23RO	0	1	5.46086883545	-289.0	-284.0	None	None	0
1.7	2015_Jul_22_1206	s	s	11	3	Capacity	40	ABS	0	1	24RO	0	1	5.32626485825	None	None	None	None	1
1.7	2015_Jul_22_1206	s	s	11	3	Capacity	41	RC	0	2	23RD	1	0	0.732863903046	-320.0	361.0	-321	367	1
1.7	2015_Jul_22_1206	s	s	11	3	Capacity	42	RC	0	1	23RO	0	1	4.13762116432	368.0	297.0	None	None	0
1.7	2015_Jul_22_1206	s	s	11	3	Capacity	43	ABS	0	2	24RD	0	1	0.679660081863	None	None	None	None	1
1.7	2015_Jul_22_1206	s	s	11	3	Capacity	44	ABS	0	1	24RO	0	1	4.09069490433	None	None	None	None	1
1.7	2015_Jul_22_1206	s	s	11	3	Capacity	45	ABS	0	1	24RO	0	1	5.02028083801	None	None	None	None	1
1.7	2015_Jul_22_1206	s	s	11	3	Capacity	46	RC	0	2	23RD	1	0	0.752765893936	65.0	-209.0	79	-204	1
1.7	2015_Jul_22_1206	s	s	11	3	Capacity	47	RC	0	1	23RO	0	1	4.10717892647	-214.0	-121.0	None	None	0
1.7	2015_Jul_22_1206	s	s	11	3	Capacity	48	ABS	0	2	24RD	0	1	0.897659063339	None	None	None	None	1
1.7	2015_Jul_22_1206	s	s	11	3	Capacity	49	RC	0	1	23RO	1	0	1.5059800148	-288.0	-21.0	-295	-15	1
1.7	2015_Jul_22_1206	s	s	11	3	Capacity	50	ABS	0	2	24RD	0	1	0.924019098282	None	None	None	None	1
1.7	2015_Jul_22_1206	s	s	11	3	Capacity	51	RC	0	2	23RD	1	0	0.605757951736	-3.0	-26.0	-2	-31	1
1.7	2015_Jul_22_1206	s	s	11	3	Capacity	52	ABS	0	1	24RO	0	1	6.50844883919	None	None	None	None	1
1.7	2015_Jul_22_1206	s	s	11	3	Capacity	53	ABS	0	2	24RD	0	1	0.761954069138	None	None	None	None	1
1.7	2015_Jul_22_1206	s	s	11	3	Capacity	54	RC	0	2	23RD	1	0	0.630136013031	532.0	180.0	537	187	1
1.7	2015_Jul_22_1206	s	s	11	3	Capacity	55	ABS	0	1	24RO	0	1	3.90228390694	None	None	None	None	1
1.7	2015_Jul_22_1206	s	s	11	3	Capacity	56	RC	0	1	23RO	1	0	4.72558999062	-427.0	392.0	-424	382	1
1.7	2015_Jul_22_1206	s	s	11	3	Capacity	57	RC	0	2	23RD	1	0	0.587854862213	-380.0	308.0	-388	306	1
1.7	2015_Jul_22_1206	s	s	11	3	Capacity	58	RC	0	1	23RO	1	0	0.748047113419	-345.0	370.0	-352	373	1
1.7	2015_Jul_22_1206	s	s	11	3	Capacity	59	ABS	0	2	24RD	0	1	1.04685902596	None	None	None	None	1
1.7	2015_Jul_22_1206	s	s	11	3	Capacity	60	ABS	0	1	24RO	0	1	5.36698698997	None	None	None	None	1
1.7	2015_Jul_22_1206	s	s	11	3	Capacity	61	ABS	0	2	24RD	0	1	0.712542057037	None	None	None	None	1
1.7	2015_Jul_22_1206	s	s	11	3	Capacity	62	ABS	0	1	24RO	0	1	4.89133000374	None	None	None	None	1
1.7	2015_Jul_22_1206	s	s	11	3	Capacity	63	RC	0	2	23RD	1	0	0.670296192169	-329.0	-228.0	-325	-230	1
1.7	2015_Jul_22_1206	s	s	11	3	Capacity	64	RC	0	1	23RO	1	0	3.61951112747	-480.0	236.0	-474	236	1
1.7	2015_Jul_22_1206	s	s	11	3	Capacity	65	ABS	0	1	24RO	0	1	8.37995886803	None	None	None	None	1
1.7	2015_Jul_22_1206	s	s	11	3	Capacity	66	RC	0	2	23RD	1	0	0.747887134552	527.0	182.0	527	185	1
1.7	2015_Jul_22_1206	s	s	11	3	Capacity	67	ABS	0	2	24RD	0	1	1.11270785332	None	None	None	None	1
1.7	2015_Jul_22_1206	s	s	11	3	Capacity	68	RC	0	1	23RO	1	0	1.47438597679	142.0	-236.0	155	-231	1
1.7	2015_Jul_22_1206	s	s	11	3	Capacity	69	ABS	0	1	24RO	0	1	8.81548118591	None	None	None	None	1
1.7	2015_Jul_22_1206	s	s	11	3	Capacity	70	RC	0	2	23RD	1	0	0.634938955307	-242.0	-83.0	-239	-76	1
1.7	2015_Jul_22_1206	s	s	11	3	Capacity	71	ABS	0	2	24RD	0	1	1.39679384232	None	None	None	None	1
1.7	2015_Jul_22_1206	s	s	11	3	Capacity	72	RC	0	1	23RO	1	0	3.4902639389	-496.0	164.0	-485	164	1
1.7	2015_Jul_22_1206	s	s	11	3	Capacity	73	RC	0	1	23RO	1	0	2.02380204201	498.0	57.0	498	61	1
1.7	2015_Jul_22_1206	s	s	11	3	Capacity	74	RC	0	2	23RD	1	0	0.618201971054	-178.0	27.0	-170	29	1
1.7	2015_Jul_22_1206	s	s	11	3	Capacity	75	ABS	0	1	24RO	0	1	4.13073205948	None	None	None	None	1
1.7	2015_Jul_22_1206	s	s	11	3	Capacity	76	ABS	0	2	24RD	0	1	0.882038116455	None	None	None	None	1
1.7	2015_Jul_22_1206	s	s	11	3	Capacity	77	ABS	0	2	24RD	0	1	0.693794965744	None	None	None	None	1
1.7	2015_Jul_22_1206	s	s	11	3	Capacity	78	RC	0	2	23RD	1	0	0.606498003006	-422.0	159.0	-434	160	1
1.7	2015_Jul_22_1206	s	s	11	3	Capacity	79	ABS	0	1	24RO	0	1	4.00125598907	None	None	None	None	1
1.7	2015_Jul_22_1206	s	s	11	3	Capacity	80	RC	0	1	23RO	1	0	4.70257997513	-451.0	177.0	-456	176	1
1.7	2015_Jul_22_1206	s	s	11	3	Capacity	81	RC	0	2	23RD	1	0	0.717361927032	-405.0	107.0	-392	111	1
1.7	2015_Jul_22_1206	s	s	11	3	Capacity	82	ABS	0	2	24RD	0	1	0.900861024857	None	None	None	None	1
1.7	2015_Jul_22_1206	s	s	11	3	Capacity	83	RC	0	1	23RO	1	0	1.2179620266	-398.0	-190.0	-398	-196	1
1.7	2015_Jul_22_1206	s	s	11	3	Capacity	84	ABS	0	1	24RO	0	1	5.67889118195	None	None	None	None	1
1.7	2015_Jul_22_1206	s	s	11	3	Capacity	85	ABS	0	1	24RO	0	1	4.54273700714	None	None	None	None	1
1.7	2015_Jul_22_1206	s	s	11	3	Capacity	86	RC	0	2	23RD	1	0	0.528970956802	-303.0	-185.0	-307	-189	1
1.7	2015_Jul_22_1206	s	s	11	3	Capacity	87	RC	0	1	23RO	1	0	2.5770740509	-4.0	-220.0	-1	-221	1
1.7	2015_Jul_22_1206	s	s	11	3	Capacity	88	ABS	0	2	24RD	0	1	1.06543803215	None	None	None	None	1
1.7	2015_Jul_22_1206	s	s	11	3	Capacity	89	RC	0	2	23RD	1	0	0.51727604866	32.0	-57.0	42	-54	1
1.7	2015_Jul_22_1206	s	s	11	3	Capacity	90	RC	0	1	23RO	1	0	3.65999913216	-539.0	-391.0	-542	-394	1
1.7	2015_Jul_22_1206	s	s	11	3	Capacity	91	ABS	0	2	24RD	0	1	1.22347903252	None	None	None	None	1
1.7	2015_Jul_22_1206	s	s	11	3	Capacity	92	ABS	0	1	24RO	0	1	4.93879914284	None	None	None	None	1
1.7	2015_Jul_22_1206	s	s	11	3	Capacity	1	ABS	2	0	24VC	0	1	0.783181190491	None	None	None	None	1
1.7	2015_Jul_22_1206	s	s	11	3	Capacity	2	RC	2	0	23VC	1	0	0.55028295517	-404.0	-117.0	-396	-115	1
1.7	2015_Jul_22_1206	s	s	11	3	Capacity	3	RC	1	0	23MC	1	0	0.599619865417	-283.0	-191.0	-281	-193	1
1.7	2015_Jul_22_1206	s	s	11	3	Capacity	4	ABS	1	0	24MC	0	1	2.00703406334	None	None	None	None	1
1.7	2015_Jul_22_1206	s	s	11	3	Capacity	5	ABS	1	0	24MC	0	1	1.38825893402	None	None	None	None	1
1.7	2015_Jul_22_1206	s	s	11	3	Capacity	6	RC	1	0	23MC	1	0	0.717283964157	-516.0	-52.0	-521	-58	1
1.7	2015_Jul_22_1206	s	s	11	3	Capacity	7	RC	2	0	23VC	1	0	0.81151008606	303.0	82.0	305	83	1
1.7	2015_Jul_22_1206	s	s	11	3	Capacity	8	ABS	2	0	24VC	0	1	0.646703004837	None	None	None	None	1
1.7	2015_Jul_22_1206	s	s	11	3	Capacity	9	RC	1	0	23MC	1	0	0.587898015976	-184.0	355.0	-187	350	1
1.7	2015_Jul_22_1206	s	s	11	3	Capacity	10	RC	2	0	23VC	1	0	0.440267086029	-418.0	223.0	-424	215	1
1.7	2015_Jul_22_1206	s	s	11	3	Capacity	11	ABS	1	0	24MC	0	1	1.41859602928	None	None	None	None	1
1.7	2015_Jul_22_1206	s	s	11	3	Capacity	12	ABS	2	0	24VC	0	1	0.653611183167	None	None	None	None	1
1.7	2015_Jul_22_1206	s	s	11	3	Capacity	13	ABS	2	0	24VC	0	1	0.477041006088	None	None	None	None	1
1.7	2015_Jul_22_1206	s	s	11	3	Capacity	14	ABS	1	0	24MC	0	1	1.14485812187	None	None	None	None	1
1.7	2015_Jul_22_1206	s	s	11	3	Capacity	15	RC	2	0	23VC	1	0	0.618752002716	415.0	363.0	416	367	1
1.7	2015_Jul_22_1206	s	s	11	3	Capacity	16	RC	1	0	23MC	1	0	0.756452798843	531.0	38.0	529	41	1
1.7	2015_Jul_22_1206	s	s	11	3	Capacity	17	ABS	2	0	24VC	0	1	0.900150060654	None	None	None	None	1
1.7	2015_Jul_22_1206	s	s	11	3	Capacity	18	RC	2	0	23VC	1	0	0.646686077118	-290.0	-405.0	-290	-401	1
1.7	2015_Jul_22_1206	s	s	11	3	Capacity	19	ABS	1	0	24MC	0	1	1.62141990662	None	None	None	None	1
1.7	2015_Jul_22_1206	s	s	11	3	Capacity	20	RC	1	0	23MC	1	0	1.05244803429	495.0	-11.0	491	-7	1
1.7	2015_Jul_22_1206	s	s	11	3	Capacity	21	RC	2	0	23VC	1	0	0.583023071289	-498.0	306.0	-493	302	1
1.7	2015_Jul_22_1206	s	s	11	3	Capacity	22	ABS	2	0	24VC	0	1	0.988092184067	None	None	None	None	1
1.7	2015_Jul_22_1206	s	s	11	3	Capacity	23	ABS	1	0	24MC	0	1	1.49418306351	None	None	None	None	1
1.7	2015_Jul_22_1206	s	s	11	3	Capacity	24	RC	1	0	23MC	1	0	0.665400028229	-264.0	-110.0	-259	-103	1
1.7	2015_Jul_22_1206	s	s	11	3	Capacity	25	ABS	1	0	24MC	0	1	2.2656519413	None	None	None	None	1
1.7	2015_Jul_22_1206	s	s	11	3	Capacity	26	RC	1	0	23MC	1	0	1.57161402702	495.0	186.0	496	188	1
1.7	2015_Jul_22_1206	s	s	11	3	Capacity	27	RC	2	0	23VC	1	0	0.45348405838	285.0	-203.0	282	-206	1
1.7	2015_Jul_22_1206	s	s	11	3	Capacity	28	ABS	2	0	24VC	0	1	0.886178970337	None	None	None	None	1
1.7	2015_Jul_22_1206	s	s	11	3	Capacity	29	RC	2	0	23VC	1	0	0.470124006271	-403.0	124.0	-415	126	1
1.7	2015_Jul_22_1206	s	s	11	3	Capacity	30	RC	1	0	23MC	1	0	0.818915128708	-327.0	335.0	-325	339	1
1.7	2015_Jul_22_1206	s	s	11	3	Capacity	31	ABS	1	0	24MC	0	1	1.8473200798	None	None	None	None	1
1.7	2015_Jul_22_1206	s	s	11	3	Capacity	32	ABS	2	0	24VC	0	1	0.852729082108	None	None	None	None	1
1.7	2015_Jul_22_1206	s	s	11	3	Capacity	33	ABS	1	0	24MC	0	1	0.959611177444	None	None	None	None	1
1.7	2015_Jul_22_1206	s	s	11	3	Capacity	34	RC	1	0	23MC	1	0	0.560685873032	313.0	134.0	312	135	1
1.7	2015_Jul_22_1206	s	s	11	3	Capacity	35	ABS	2	0	24VC	0	1	0.846833944321	None	None	None	None	1
1.7	2015_Jul_22_1206	s	s	11	3	Capacity	36	RC	2	0	23VC	1	0	0.559288978577	-228.0	238.0	-230	228	1
1.7	2015_Jul_22_1206	s	s	11	3	Capacity	37	ABS	2	0	24VC	0	1	0.724438905716	None	None	None	None	1
1.7	2015_Jul_22_1206	s	s	11	3	Capacity	38	RC	2	0	23VC	1	0	0.561062097549	-139.0	-87.0	-128	-79	1
1.7	2015_Jul_22_1206	s	s	11	3	Capacity	39	RC	1	0	23MC	1	0	0.517190933228	146.0	226.0	150	227	1
1.7	2015_Jul_22_1206	s	s	11	3	Capacity	40	ABS	1	0	24MC	0	1	1.44711399078	None	None	None	None	1
1.7	2015_Jul_22_1206	s	s	11	3	Capacity	41	RC	2	0	23VC	1	0	0.517252206802	103.0	52.0	104	50	1
1.7	2015_Jul_22_1206	s	s	11	3	Capacity	42	RC	1	0	23MC	1	0	0.846864938736	360.0	121.0	359	120	1
1.7	2015_Jul_22_1206	s	s	11	3	Capacity	43	ABS	1	0	24MC	0	1	2.75362896919	None	None	None	None	1
1.7	2015_Jul_22_1206	s	s	11	3	Capacity	44	ABS	2	0	24VC	0	1	0.799705982208	None	None	None	None	1
1.7	2015_Jul_22_1206	s	s	11	3	Capacity	45	ABS	1	0	24MC	0	1	1.27055883408	None	None	None	None	1
1.7	2015_Jul_22_1206	s	s	11	3	Capacity	46	RC	1	0	23MC	0	1	0.630007982254	517.0	260.0	None	None	0
1.7	2015_Jul_22_1206	s	s	11	3	Capacity	47	ABS	2	0	24VC	0	1	0.717311859131	None	None	None	None	1
1.7	2015_Jul_22_1206	s	s	11	3	Capacity	48	RC	2	0	23VC	1	0	0.523685932159	-539.0	-407.0	-543	-411	1
1.7	2015_Jul_22_1206	s	s	11	3	Capacity	49	ABS	2	0	24VC	0	1	0.646733045578	None	None	None	None	1
1.7	2015_Jul_22_1206	s	s	11	3	Capacity	50	RC	1	0	23MC	1	0	0.905649900436	-9.0	-211.0	-5	-208	1
1.7	2015_Jul_22_1206	s	s	11	3	Capacity	51	RC	2	0	23VC	1	0	0.462262153625	-44.0	56.0	-46	59	1
1.7	2015_Jul_22_1206	s	s	11	3	Capacity	52	ABS	1	0	24MC	0	1	0.820845127106	None	None	None	None	1
1.7	2015_Jul_22_1206	s	s	11	3	Capacity	53	ABS	1	0	24MC	0	1	2.25429916382	None	None	None	None	1
1.7	2015_Jul_22_1206	s	s	11	3	Capacity	54	RC	1	0	23MC	1	0	1.12428712845	-506.0	-227.0	-506	-231	1
1.7	2015_Jul_22_1206	s	s	11	3	Capacity	55	RC	2	0	23VC	1	0	0.51720905304	410.0	-298.0	410	-298	1
1.7	2015_Jul_22_1206	s	s	11	3	Capacity	56	ABS	2	0	24VC	0	1	1.09401488304	None	None	None	None	1
1.7	2015_Jul_22_1206	s	s	11	3	Capacity	57	ABS	1	0	24MC	0	1	1.61189198494	None	None	None	None	1
1.7	2015_Jul_22_1206	s	s	11	3	Capacity	58	RC	2	0	23VC	1	0	0.517150163651	271.0	-251.0	268	-259	1
1.7	2015_Jul_22_1206	s	s	11	3	Capacity	59	RC	1	0	23MC	1	0	0.794979095459	141.0	316.0	141	310	1
1.7	2015_Jul_22_1206	s	s	11	3	Capacity	60	ABS	2	0	24VC	0	1	0.688893079758	None	None	None	None	1
1.7	2015_Jul_22_1206	s	s	11	3	Capacity	61	RC	1	0	23MC	1	0	0.693780899048	165.0	196.0	163	192	1
1.7	2015_Jul_22_1206	s	s	11	3	Capacity	62	ABS	1	0	24MC	0	1	1.48236703873	None	None	None	None	1
1.7	2015_Jul_22_1206	s	s	11	3	Capacity	63	ABS	2	0	24VC	1	0	0.606309175491	None	None	46	-126	0
1.7	2015_Jul_22_1206	s	s	11	3	Capacity	64	RC	2	0	23VC	1	0	0.776040077209	223.0	-402.0	235	-400	1
1.7	2015_Jul_22_1206	s	s	11	3	Capacity	65	RC	2	0	23VC	1	0	0.512033939362	-149.0	8.0	-154	4	1
1.7	2015_Jul_22_1206	s	s	11	3	Capacity	66	RC	1	0	23MC	1	0	0.552524089813	-77.0	46.0	-69	44	1
1.7	2015_Jul_22_1206	s	s	11	3	Capacity	67	ABS	2	0	24VC	0	1	0.841791152954	None	None	None	None	1
1.7	2015_Jul_22_1206	s	s	11	3	Capacity	68	ABS	1	0	24MC	0	1	2.17359900475	None	None	None	None	1
1.7	2015_Jul_22_1206	s	s	11	3	Capacity	69	RC	1	0	23MC	1	0	0.712401151657	230.0	-47.0	239	-51	1
1.7	2015_Jul_22_1206	s	s	11	3	Capacity	70	ABS	1	0	24MC	0	1	2.22393393517	None	None	None	None	1
1.7	2015_Jul_22_1206	s	s	11	3	Capacity	71	ABS	2	0	24VC	0	1	1.03182983398	None	None	None	None	1
1.7	2015_Jul_22_1206	s	s	11	3	Capacity	72	RC	2	0	23VC	1	0	0.523988962173	501.0	116.0	500	126	1
1.7	2015_Jul_22_1206	s	s	11	3	Capacity	73	ABS	2	0	24VC	0	1	0.771233081818	None	None	None	None	1
1.7	2015_Jul_22_1206	s	s	11	3	Capacity	74	ABS	1	0	24MC	0	1	2.14191603661	None	None	None	None	1
1.7	2015_Jul_22_1206	s	s	11	3	Capacity	75	RC	2	0	23VC	1	0	0.70085310936	382.0	-379.0	381	-382	1
1.7	2015_Jul_22_1206	s	s	11	3	Capacity	76	RC	1	0	23MC	1	0	0.768187046051	40.0	-193.0	38	-194	1
1.7	2015_Jul_22_1206	s	s	11	3	Capacity	77	RC	1	0	23MC	1	0	0.933977842331	-488.0	-181.0	-493	-185	1
1.7	2015_Jul_22_1206	s	s	11	3	Capacity	78	ABS	2	0	24VC	0	1	0.983142137527	None	None	None	None	1
1.7	2015_Jul_22_1206	s	s	11	3	Capacity	79	RC	2	0	23VC	1	0	0.57148194313	-213.0	394.0	-211	401	1
1.7	2015_Jul_22_1206	s	s	11	3	Capacity	80	ABS	1	0	24MC	0	1	2.86625409126	None	None	None	None	1
1.7	2015_Jul_22_1206	s	s	11	3	Capacity	81	ABS	1	0	24MC	0	1	1.5952129364	None	None	None	None	1
1.7	2015_Jul_22_1206	s	s	11	3	Capacity	82	RC	1	0	23MC	1	0	0.999849081039	13.0	-320.0	15	-320	1
1.7	2015_Jul_22_1206	s	s	11	3	Capacity	83	ABS	2	0	24VC	0	1	0.634983062744	None	None	None	None	1
1.7	2015_Jul_22_1206	s	s	11	3	Capacity	84	RC	2	0	23VC	1	0	0.538484811783	-199.0	-171.0	-193	-167	1
1.7	2015_Jul_22_1206	s	s	11	3	Capacity	85	ABS	2	0	24VC	0	1	0.646679878235	None	None	None	None	1
1.7	2015_Jul_22_1206	s	s	11	3	Capacity	86	RC	2	0	23VC	1	0	0.541228055954	-23.0	-349.0	-18	-345	1
1.7	2015_Jul_22_1206	s	s	11	3	Capacity	87	ABS	1	0	24MC	0	1	1.64498209953	None	None	None	None	1
1.7	2015_Jul_22_1206	s	s	11	3	Capacity	88	RC	1	0	23MC	1	0	1.58834600449	-143.0	-316.0	-142	-320	1
1.7	2015_Jul_22_1206	s	s	11	3	Capacity	89	ABS	2	0	24VC	0	1	0.559497117996	None	None	None	None	1
1.7	2015_Jul_22_1206	s	s	11	3	Capacity	90	RC	2	0	23VC	1	0	0.50542807579	-13.0	212.0	-17	214	1
1.7	2015_Jul_22_1206	s	s	11	3	Capacity	91	ABS	1	0	24MC	0	1	0.826946020126	None	None	None	None	1
1.7	2015_Jul_22_1206	s	s	11	3	Capacity	92	RC	1	0	23MC	1	0	1.90634894371	343.0	357.0	351	366	1
1.7	2015_Jul_22_1206	s	s	11	3	SIC	1	RC	1	1	23MO	1	0	0.591678142548	420.0	260.0	410	260	1
1.7	2015_Jul_22_1206	s	s	11	3	SIC	2	RC	2	2	23VD	1	0	0.481907129288	349.0	-246.0	346	-242	1
1.7	2015_Jul_22_1206	s	s	11	3	SIC	3	ABS	2	2	24VD	0	1	0.642005205154	None	None	None	None	1
1.7	2015_Jul_22_1206	s	s	11	3	SIC	4	RC	2	1	23VO	1	0	0.487240076065	-404.0	-279.0	-419	-273	1
1.7	2015_Jul_22_1206	s	s	11	3	SIC	5	ABS	0	1	24RO	0	1	2.3690931797	None	None	None	None	1
1.7	2015_Jul_22_1206	s	s	11	3	SIC	6	RC	0	1	23RO	1	0	4.51368308067	187.0	-56.0	198	-54	1
1.7	2015_Jul_22_1206	s	s	11	3	SIC	7	RC	1	0	23MC	1	0	1.52514696121	-7.0	-231.0	-13	-238	1
1.7	2015_Jul_22_1206	s	s	11	3	SIC	8	ABS	0	2	24RD	0	1	0.7055580616	None	None	None	None	1
1.7	2015_Jul_22_1206	s	s	11	3	SIC	9	RC	1	2	23MD	1	0	0.430037021637	104.0	-151.0	108	-150	1
1.7	2015_Jul_22_1206	s	s	11	3	SIC	10	ABS	2	1	24VO	0	1	0.540802955627	None	None	None	None	1
1.7	2015_Jul_22_1206	s	s	11	3	SIC	11	RC	0	2	23RD	1	0	0.476841926575	-198.0	343.0	-202	345	1
1.7	2015_Jul_22_1206	s	s	11	3	SIC	12	ABS	1	2	24MD	0	1	0.832830190659	None	None	None	None	1
1.7	2015_Jul_22_1206	s	s	11	3	SIC	13	ABS	1	0	24MC	0	1	3.03108096123	None	None	None	None	1
1.7	2015_Jul_22_1206	s	s	11	3	SIC	14	ABS	2	0	24VC	0	1	0.752640962601	None	None	None	None	1
1.7	2015_Jul_22_1206	s	s	11	3	SIC	15	ABS	1	1	24MO	0	1	2.68299794197	None	None	None	None	1
1.7	2015_Jul_22_1206	s	s	11	3	SIC	16	RC	2	0	23VC	1	0	0.494109153748	-54.0	317.0	-48	324	1
1.7	2015_Jul_22_1206	s	s	11	3	SIC	17	RC	1	0	23MC	1	0	0.983340024948	336.0	77.0	329	73	1
1.7	2015_Jul_22_1206	s	s	11	3	SIC	18	RC	0	2	23RD	1	0	0.488824129105	397.0	113.0	388	110	1
1.7	2015_Jul_22_1206	s	s	11	3	SIC	19	RC	2	1	23VO	1	0	0.452100038528	445.0	231.0	449	229	1
1.7	2015_Jul_22_1206	s	s	11	3	SIC	20	RC	1	1	23MO	1	0	0.759404182434	-342.0	-56.0	-339	-70	1
1.7	2015_Jul_22_1206	s	s	11	3	SIC	21	ABS	1	0	24MC	0	1	1.3008890152	None	None	None	None	1
1.7	2015_Jul_22_1206	s	s	11	3	SIC	22	ABS	1	1	24MO	0	1	2.78619885445	None	None	None	None	1
1.7	2015_Jul_22_1206	s	s	11	3	SIC	23	ABS	0	2	24RD	0	1	0.693765163422	None	None	None	None	1
1.7	2015_Jul_22_1206	s	s	11	3	SIC	24	ABS	2	2	24VD	0	1	0.465339899063	None	None	None	None	1
1.7	2015_Jul_22_1206	s	s	11	3	SIC	25	ABS	1	2	24MD	0	1	0.729117870331	None	None	None	None	1
1.7	2015_Jul_22_1206	s	s	11	3	SIC	26	ABS	0	1	24RO	0	1	2.90665006638	None	None	None	None	1
1.7	2015_Jul_22_1206	s	s	11	3	SIC	27	RC	0	1	23RO	0	1	2.59548997879	-275.0	-145.0	None	None	0
1.7	2015_Jul_22_1206	s	s	11	3	SIC	28	ABS	2	1	24VO	0	1	0.597033977509	None	None	None	None	1
1.7	2015_Jul_22_1206	s	s	11	3	SIC	29	RC	2	0	23VC	1	0	0.571211099625	280.0	-70.0	271	-68	1
1.7	2015_Jul_22_1206	s	s	11	3	SIC	30	RC	1	2	23MD	1	0	0.443979978561	-24.0	14.0	-31	12	1
1.7	2015_Jul_22_1206	s	s	11	3	SIC	31	RC	2	2	23VD	1	0	0.43110704422	-450.0	-225.0	-447	-235	1
1.7	2015_Jul_22_1206	s	s	11	3	SIC	32	ABS	2	0	24VC	0	1	0.693629026413	None	None	None	None	1
1.7	2015_Jul_22_1206	s	s	11	3	SIC	33	RC	0	1	23RO	1	0	5.00865316391	-432.0	380.0	-437	371	1
1.7	2015_Jul_22_1206	s	s	11	3	SIC	34	ABS	2	2	24VD	0	1	0.587877988815	None	None	None	None	1
1.7	2015_Jul_22_1206	s	s	11	3	SIC	35	RC	0	2	23RD	1	0	0.665942907333	-288.0	249.0	-285	250	1
1.7	2015_Jul_22_1206	s	s	11	3	SIC	36	RC	1	1	23MO	1	0	1.09397387505	-236.0	-327.0	-234	-331	1
1.7	2015_Jul_22_1206	s	s	11	3	SIC	37	ABS	1	1	24MO	0	1	1.47728896141	None	None	None	None	1
1.7	2015_Jul_22_1206	s	s	11	3	SIC	38	ABS	2	0	24VC	0	1	0.664854049683	None	None	None	None	1
1.7	2015_Jul_22_1206	s	s	11	3	SIC	39	ABS	1	0	24MC	0	1	2.08991599083	None	None	None	None	1
1.7	2015_Jul_22_1206	s	s	11	3	SIC	40	RC	1	0	23MC	1	0	1.25328111649	252.0	151.0	260	145	1
1.7	2015_Jul_22_1206	s	s	11	3	SIC	41	ABS	0	1	24RO	0	1	3.44499206543	None	None	None	None	1
1.7	2015_Jul_22_1206	s	s	11	3	SIC	42	ABS	0	2	24RD	0	1	0.552454948425	None	None	None	None	1
1.7	2015_Jul_22_1206	s	s	11	3	SIC	43	RC	1	2	23MD	1	0	0.764393091202	522.0	-292.0	532	-291	1
1.7	2015_Jul_22_1206	s	s	11	3	SIC	44	ABS	1	2	24MD	0	1	0.882050991058	None	None	None	None	1
1.7	2015_Jul_22_1206	s	s	11	3	SIC	45	RC	2	1	23VO	1	0	0.632493019104	530.0	-255.0	525	-261	1
1.7	2015_Jul_22_1206	s	s	11	3	SIC	46	RC	2	0	23VC	1	0	0.453341007233	212.0	0.0	209	0	1
1.7	2015_Jul_22_1206	s	s	11	3	SIC	47	RC	2	2	23VD	1	0	0.47714304924	-494.0	239.0	-501	237	1
1.7	2015_Jul_22_1206	s	s	11	3	SIC	48	ABS	2	1	24VO	0	1	0.670450925827	None	None	None	None	1
1.7	2015_Jul_22_1206	s	s	11	3	SIC	49	ABS	2	0	24VC	0	1	0.712466001511	None	None	None	None	1
1.7	2015_Jul_22_1206	s	s	11	3	SIC	50	RC	0	2	23RD	1	0	0.453565120697	-200.0	-10.0	-202	-20	1
1.7	2015_Jul_22_1206	s	s	11	3	SIC	51	RC	2	0	23VC	1	0	0.488544940948	-366.0	-51.0	-371	-54	1
1.7	2015_Jul_22_1206	s	s	11	3	SIC	52	ABS	2	1	24VO	0	1	0.664620161057	None	None	None	None	1
1.7	2015_Jul_22_1206	s	s	11	3	SIC	53	RC	2	1	23VO	1	0	0.517215967178	-461.0	17.0	-462	16	1
1.7	2015_Jul_22_1206	s	s	11	3	SIC	54	ABS	0	1	24RO	0	1	3.55846595764	None	None	None	None	1
1.7	2015_Jul_22_1206	s	s	11	3	SIC	55	RC	1	0	23MC	1	0	0.587867021561	-198.0	-321.0	-199	-326	1
1.7	2015_Jul_22_1206	s	s	11	3	SIC	56	RC	0	1	23RO	1	0	1.02343606949	-288.0	-318.0	-294	-324	1
1.7	2015_Jul_22_1206	s	s	11	3	SIC	57	RC	2	2	23VD	1	0	0.411547899246	-316.0	12.0	-326	11	1
1.7	2015_Jul_22_1206	s	s	11	3	SIC	58	ABS	0	2	24RD	0	1	0.923769950867	None	None	None	None	1
1.7	2015_Jul_22_1206	s	s	11	3	SIC	59	ABS	1	0	24MC	0	1	1.65882897377	None	None	None	None	1
1.7	2015_Jul_22_1206	s	s	11	3	SIC	60	RC	1	2	23MD	1	0	0.477312088013	-459.0	272.0	-460	271	1
1.7	2015_Jul_22_1206	s	s	11	3	SIC	61	ABS	2	2	24VD	0	1	0.665519952774	None	None	None	None	1
1.7	2015_Jul_22_1206	s	s	11	3	SIC	62	RC	1	1	23MO	1	0	2.03011703491	440.0	293.0	441	302	1
1.7	2015_Jul_22_1206	s	s	11	3	SIC	63	ABS	1	2	24MD	0	1	0.799732923508	None	None	None	None	1
1.7	2015_Jul_22_1206	s	s	11	3	SIC	64	ABS	1	1	24MO	0	1	1.65413999557	None	None	None	None	1
1.7	2015_Jul_22_1206	s	s	11	3	SIC	65	ABS	2	0	24VC	0	1	0.676957130432	None	None	None	None	1
1.7	2015_Jul_22_1206	s	s	11	3	SIC	66	ABS	1	2	24MD	0	1	1.11757278442	None	None	None	None	1
1.7	2015_Jul_22_1206	s	s	11	3	SIC	67	RC	2	1	23VO	1	0	0.481960058212	-203.0	-389.0	-199	-395	1
1.7	2015_Jul_22_1206	s	s	11	3	SIC	68	ABS	2	2	24VD	0	1	0.634989976883	None	None	None	None	1
1.7	2015_Jul_22_1206	s	s	11	3	SIC	69	RC	0	2	23RD	1	0	0.505484104156	-238.0	31.0	-240	32	1
1.7	2015_Jul_22_1206	s	s	11	3	SIC	70	ABS	0	1	24RO	0	1	4.23671603203	None	None	None	None	1
1.7	2015_Jul_22_1206	s	s	11	3	SIC	71	ABS	1	0	24MC	0	1	2.4829480648	None	None	None	None	1
1.7	2015_Jul_22_1206	s	s	11	3	SIC	72	RC	1	2	23MD	1	0	0.514446973801	-271.0	177.0	-261	182	1
1.7	2015_Jul_22_1206	s	s	11	3	SIC	73	ABS	0	2	24RD	0	1	0.679287910461	None	None	None	None	1
1.7	2015_Jul_22_1206	s	s	11	3	SIC	74	ABS	2	1	24VO	0	1	0.70555305481	None	None	None	None	1
1.7	2015_Jul_22_1206	s	s	11	3	SIC	75	RC	0	1	23RO	1	0	4.6839158535	115.0	326.0	113	324	1
1.7	2015_Jul_22_1206	s	s	11	3	SIC	76	RC	1	1	23MO	1	0	0.818381071091	-245.0	147.0	-239	149	1
1.7	2015_Jul_22_1206	s	s	11	3	SIC	77	RC	2	0	23VC	1	0	0.564237117767	-108.0	-146.0	-101	-144	1
1.7	2015_Jul_22_1206	s	s	11	3	SIC	78	RC	2	2	23VD	1	0	0.500652074814	505.0	-49.0	499	-42	1
1.7	2015_Jul_22_1206	s	s	11	3	SIC	79	ABS	1	1	24MO	0	1	0.858502149582	None	None	None	None	1
1.7	2015_Jul_22_1206	s	s	11	3	SIC	80	RC	1	0	23MC	1	0	0.851093053818	77.0	280.0	75	279	1
1.7	2015_Jul_22_1206	s	s	11	3	SIC	81	RC	1	2	23MD	1	0	0.776036024094	-199.0	-366.0	-205	-366	1
1.7	2015_Jul_22_1206	s	s	11	3	SIC	82	RC	0	1	23RO	1	0	4.23674798012	340.0	-339.0	338	-346	1
1.7	2015_Jul_22_1206	s	s	11	3	SIC	83	ABS	0	2	24RD	0	1	0.724098920822	None	None	None	None	1
1.7	2015_Jul_22_1206	s	s	11	3	SIC	84	ABS	1	2	24MD	0	1	0.759374141693	None	None	None	None	1
1.7	2015_Jul_22_1206	s	s	11	3	SIC	85	ABS	2	1	24VO	0	1	0.494125127792	None	None	None	None	1
1.7	2015_Jul_22_1206	s	s	11	3	SIC	86	ABS	1	1	24MO	0	1	1.83571791649	None	None	None	None	1
1.7	2015_Jul_22_1206	s	s	11	3	SIC	87	RC	2	1	23VO	1	0	0.536343097687	-78.0	-81.0	-77	-83	1
1.7	2015_Jul_22_1206	s	s	11	3	SIC	88	RC	2	2	23VD	1	0	0.38262295723	349.0	-204.0	352	-203	1
1.7	2015_Jul_22_1206	s	s	11	3	SIC	89	ABS	2	0	24VC	0	1	0.752667188644	None	None	None	None	1
1.7	2015_Jul_22_1206	s	s	11	3	SIC	90	ABS	1	0	24MC	0	1	1.34872817993	None	None	None	None	1
1.7	2015_Jul_22_1206	s	s	11	3	SIC	91	ABS	2	2	24VD	0	1	0.653748989105	None	None	None	None	1
1.7	2015_Jul_22_1206	s	s	11	3	SIC	92	RC	1	1	23MO	1	0	0.764455080032	163.0	54.0	164	52	1
1.7	2015_Jul_22_1206	s	s	11	3	SIC	93	RC	2	0	23VC	1	0	0.988009929657	-293.0	126.0	-287	132	1
1.7	2015_Jul_22_1206	s	s	11	3	SIC	94	ABS	0	1	24RO	0	1	6.27303195	None	None	None	None	1
1.7	2015_Jul_22_1206	s	s	11	3	SIC	95	RC	1	0	23MC	1	0	2.78663802147	362.0	47.0	360	47	1
1.7	2015_Jul_22_1206	s	s	11	3	SIC	96	RC	0	2	23RD	1	0	3.18910694122	513.0	6.0	518	2	1
1.7	2015_Jul_22_1206	s	s	11	3	SIC	97	ABS	1	2	24MD	0	1	6.46130990982	None	None	None	None	1
1.7	2015_Jul_22_1206	s	s	11	3	SIC	98	ABS	1	1	24MO	0	1	7.81493186951	None	None	None	None	1
1.7	2015_Jul_22_1206	s	s	11	3	SIC	99	ABS	0	1	24RO	0	1	14.9785459042	None	None	None	None	1
1.7	2015_Jul_22_1206	s	s	11	3	SIC	100	RC	1	1	23MO	1	0	0.509240150452	-98.0	193.0	-103	193	1
1.7	2015_Jul_22_1206	s	s	11	3	SIC	101	RC	2	0	23VC	1	0	0.634853839874	423.0	-117.0	428	-111	1
1.7	2015_Jul_22_1206	s	s	11	3	SIC	102	RC	0	2	23RD	1	0	2.10174107552	448.0	407.0	448	408	1
1.7	2015_Jul_22_1206	s	s	11	3	SIC	103	ABS	2	0	24VC	0	1	1.76264095306	None	None	None	None	1
1.7	2015_Jul_22_1206	s	s	11	3	SIC	104	RC	1	2	23MD	1	0	0.759570837021	138.0	16.0	138	13	1
1.7	2015_Jul_22_1206	s	s	11	3	SIC	105	ABS	0	2	24RD	0	1	1.61195492744	None	None	None	None	1
1.7	2015_Jul_22_1206	s	s	11	3	SIC	106	RC	2	2	23VD	1	0	0.48193192482	-267.0	-237.0	-262	-232	1
1.7	2015_Jul_22_1206	s	s	11	3	SIC	107	ABS	2	2	24VD	0	1	1.36247181892	None	None	None	None	1
1.7	2015_Jul_22_1206	s	s	11	3	SIC	108	RC	1	0	23MC	1	0	0.799404144287	433.0	-195.0	433	-193	1
1.7	2015_Jul_22_1206	s	s	11	3	SIC	109	ABS	1	0	24MC	0	1	3.24278306961	None	None	None	None	1
1.7	2015_Jul_22_1206	s	s	11	3	SIC	110	ABS	2	1	24VO	0	1	0.60687994957	None	None	None	None	1
1.7	2015_Jul_22_1206	s	s	11	3	SIC	111	RC	0	1	23RO	1	0	2.9856607914	420.0	-145.0	426	-145	1
1.7	2015_Jul_22_1206	s	s	11	3	SIC	112	RC	2	1	23VO	1	0	2.04234600067	-345.0	-107.0	-343	-107	1
1.7	2015_Jul_22_1206	s	s	11	3	SIC	113	RC	0	1	23RO	1	0	5.07246804237	-376.0	-102.0	-371	-98	1
1.7	2015_Jul_22_1206	s	s	11	3	SIC	114	ABS	0	1	24RO	0	1	8.74485611916	None	None	None	None	1
1.7	2015_Jul_22_1206	s	s	11	3	SIC	115	ABS	2	0	24VC	0	1	0.646709918976	None	None	None	None	1
1.7	2015_Jul_22_1206	s	s	11	3	SIC	116	RC	2	0	23VC	1	0	0.611413955688	178.0	371.0	177	366	1
1.7	2015_Jul_22_1206	s	s	11	3	SIC	117	ABS	0	2	24RD	0	1	3.33726787567	None	None	None	None	1
1.7	2015_Jul_22_1206	s	s	11	3	SIC	118	RC	2	1	23VO	1	0	0.447052001953	110.0	184.0	111	188	1
1.7	2015_Jul_22_1206	s	s	11	3	SIC	119	RC	1	1	23MO	1	0	0.947798967361	-492.0	313.0	-492	313	1
1.7	2015_Jul_22_1206	s	s	11	3	SIC	120	ABS	1	1	24MO	0	1	0.99768781662	None	None	None	None	1
1.7	2015_Jul_22_1206	s	s	11	3	SIC	121	ABS	1	0	24MC	0	1	1.44209003448	None	None	None	None	1
1.7	2015_Jul_22_1206	s	s	11	3	SIC	122	RC	1	0	23MC	1	0	0.893910169601	121.0	-263.0	126	-264	1
1.7	2015_Jul_22_1206	s	s	11	3	SIC	123	RC	1	2	23MD	1	0	0.48894405365	-384.0	318.0	-386	316	1
1.7	2015_Jul_22_1206	s	s	11	3	SIC	124	ABS	2	1	24VO	0	1	0.711867809296	None	None	None	None	1
1.7	2015_Jul_22_1206	s	s	11	3	SIC	125	ABS	2	2	24VD	0	1	0.552484989166	None	None	None	None	1
1.7	2015_Jul_22_1206	s	s	11	3	SIC	126	RC	0	2	23RD	1	0	0.705556869507	139.0	389.0	145	381	1
1.7	2015_Jul_22_1206	s	s	11	3	SIC	127	ABS	1	2	24MD	0	1	0.764456987381	None	None	None	None	1
1.7	2015_Jul_22_1206	s	s	11	3	SIC	128	RC	2	2	23VD	1	0	0.609173059464	-527.0	51.0	-523	47	1
1.7	2015_Jul_22_1206	s	s	11	3	SIC	129	ABS	2	0	24VC	0	1	0.582937955856	None	None	None	None	1
1.7	2015_Jul_22_1206	s	s	11	3	SIC	130	RC	2	1	23VO	1	0	0.655190944672	308.0	24.0	309	24	1
1.7	2015_Jul_22_1206	s	s	11	3	SIC	131	RC	0	1	23RO	1	0	1.55304217339	180.0	-412.0	174	-409	1
1.7	2015_Jul_22_1206	s	s	11	3	SIC	132	RC	2	2	23VD	1	0	0.458403110504	8.0	-223.0	9	-228	1
1.7	2015_Jul_22_1206	s	s	11	3	SIC	133	RC	1	2	23MD	1	0	0.458400011063	11.0	-125.0	18	-129	1
1.7	2015_Jul_22_1206	s	s	11	3	SIC	134	RC	1	1	23MO	1	0	0.653909921646	237.0	-50.0	237	-48	1
1.7	2015_Jul_22_1206	s	s	11	3	SIC	135	ABS	1	0	24MC	0	1	2.10135412216	None	None	None	None	1
1.7	2015_Jul_22_1206	s	s	11	3	SIC	136	ABS	2	2	24VD	0	1	0.502191066742	None	None	None	None	1
1.7	2015_Jul_22_1206	s	s	11	3	SIC	137	ABS	2	1	24VO	0	1	1.38495111465	None	None	None	None	1
1.7	2015_Jul_22_1206	s	s	11	3	SIC	138	RC	1	0	23MC	1	0	0.853040933609	64.0	-58.0	65	-62	1
1.7	2015_Jul_22_1206	s	s	11	3	SIC	139	ABS	1	2	24MD	0	1	0.6065928936	None	None	None	None	1
1.7	2015_Jul_22_1206	s	s	11	3	SIC	140	ABS	0	1	24RO	0	1	4.38427400589	None	None	None	None	1
1.7	2015_Jul_22_1206	s	s	11	3	SIC	141	RC	2	0	23VC	1	0	0.512341022491	-335.0	-83.0	-338	-78	1
1.7	2015_Jul_22_1206	s	s	11	3	SIC	142	ABS	1	1	24MO	0	1	1.75299286842	None	None	None	None	1
1.7	2015_Jul_22_1206	s	s	11	3	SIC	143	ABS	0	2	24RD	0	1	0.889088153839	None	None	None	None	1
1.7	2015_Jul_22_1206	s	s	11	3	SIC	144	RC	0	2	23RD	1	0	0.726589918137	-377.0	-65.0	-374	-72	1
1.7	2015_Jul_22_1206	s	s	11	3	SIC	145	ABS	0	2	24RD	0	1	0.993960857391	None	None	None	None	1
1.7	2015_Jul_22_1206	s	s	11	3	SIC	146	RC	2	0	23VC	1	0	0.481927156448	-222.0	206.0	-220	203	1
1.7	2015_Jul_22_1206	s	s	11	3	SIC	147	ABS	1	0	24MC	0	1	0.830768108368	None	None	None	None	1
1.7	2015_Jul_22_1206	s	s	11	3	SIC	148	ABS	0	1	24RO	0	1	2.34162306786	None	None	None	None	1
1.7	2015_Jul_22_1206	s	s	11	3	SIC	149	ABS	2	0	24VC	0	1	0.535315036774	None	None	None	None	1
1.7	2015_Jul_22_1206	s	s	11	3	SIC	150	RC	1	1	23MO	1	0	0.694011211395	-457.0	67.0	-462	68	1
1.7	2015_Jul_22_1206	s	s	11	3	SIC	151	RC	1	2	23MD	1	0	0.500830173492	33.0	-318.0	31	-322	1
1.7	2015_Jul_22_1206	s	s	11	3	SIC	152	RC	2	2	23VD	1	0	0.441724061966	308.0	74.0	311	74	1
1.7	2015_Jul_22_1206	s	s	11	3	SIC	153	RC	0	2	23RD	1	0	0.705518960953	-307.0	396.0	-315	398	1
1.7	2015_Jul_22_1206	s	s	11	3	SIC	154	RC	1	0	23MC	1	0	1.96500205994	459.0	367.0	467	373	1
1.7	2015_Jul_22_1206	s	s	11	3	SIC	155	RC	0	1	23RO	1	0	1.39678287506	-152.0	-26.0	-149	-29	1
1.7	2015_Jul_22_1206	s	s	11	3	SIC	156	ABS	2	1	24VO	0	1	0.667879104614	None	None	None	None	1
1.7	2015_Jul_22_1206	s	s	11	3	SIC	157	ABS	1	2	24MD	0	1	0.705524921417	None	None	None	None	1
1.7	2015_Jul_22_1206	s	s	11	3	SIC	158	ABS	2	2	24VD	0	1	0.634916067123	None	None	None	None	1
1.7	2015_Jul_22_1206	s	s	11	3	SIC	159	ABS	1	1	24MO	0	1	0.855422973633	None	None	None	None	1
1.7	2015_Jul_22_1206	s	s	11	3	SIC	160	RC	2	1	23VO	1	0	0.528878927231	25.0	-67.0	24	-70	1
1.7	2015_Jul_22_1206	s	s	11	3	SIC	161	ABS	2	2	24VD	0	1	0.49369597435	None	None	None	None	1
1.7	2015_Jul_22_1206	s	s	11	3	SIC	162	ABS	1	1	24MO	0	1	1.24163389206	None	None	None	None	1
1.7	2015_Jul_22_1206	s	s	11	3	SIC	163	RC	1	2	23MD	1	0	0.406383037567	147.0	203.0	136	207	1
1.7	2015_Jul_22_1206	s	s	11	3	SIC	164	RC	2	1	23VO	1	0	0.493666172028	489.0	155.0	498	157	1
1.7	2015_Jul_22_1206	s	s	11	3	SIC	165	ABS	1	0	24MC	0	1	0.807544231415	None	None	None	None	1
1.7	2015_Jul_22_1206	s	s	11	3	SIC	166	ABS	2	0	24VC	0	1	0.465378046036	None	None	None	None	1
1.7	2015_Jul_22_1206	s	s	11	3	SIC	167	ABS	0	2	24RD	0	1	1.12359380722	None	None	None	None	1
1.7	2015_Jul_22_1206	s	s	11	3	SIC	168	ABS	0	1	24RO	0	1	2.96551394463	None	None	None	None	1
1.7	2015_Jul_22_1206	s	s	11	3	SIC	169	RC	0	2	23RD	1	0	0.634966135025	2.0	-254.0	-2	-250	1
1.7	2015_Jul_22_1206	s	s	11	3	SIC	170	ABS	2	1	24VO	0	1	0.535921096802	None	None	None	None	1
1.7	2015_Jul_22_1206	s	s	11	3	SIC	171	RC	1	1	23MO	1	0	1.24705886841	499.0	346.0	505	352	1
1.7	2015_Jul_22_1206	s	s	11	3	SIC	172	RC	2	2	23VD	1	0	0.524389028549	224.0	-364.0	220	-370	1
1.7	2015_Jul_22_1206	s	s	11	3	SIC	173	RC	0	1	23RO	1	0	1.35293602943	-403.0	-301.0	-397	-294	1
1.7	2015_Jul_22_1206	s	s	11	3	SIC	174	ABS	1	2	24MD	0	1	0.644470930099	None	None	None	None	1
1.7	2015_Jul_22_1206	s	s	11	3	SIC	175	RC	2	0	23VC	1	0	0.481920003891	-123.0	-295.0	-119	-295	1
1.7	2015_Jul_22_1206	s	s	11	3	SIC	176	RC	1	0	23MC	1	0	0.658538818359	52.0	52.0	57	49	1
1.7	2015_Jul_22_1206	s	s	11	3	SIC	177	RC	2	1	23VO	1	0	0.411261081696	-425.0	-315.0	-435	-316	1
1.7	2015_Jul_22_1206	s	s	11	3	SIC	178	ABS	1	0	24MC	0	1	1.66697192192	None	None	None	None	1
1.7	2015_Jul_22_1206	s	s	11	3	SIC	179	ABS	2	2	24VD	0	1	0.46213889122	None	None	None	None	1
1.7	2015_Jul_22_1206	s	s	11	3	SIC	180	RC	0	2	23RD	1	0	0.64115691185	-254.0	291.0	-251	285	1
1.7	2015_Jul_22_1206	s	s	11	3	SIC	181	ABS	1	1	24MO	0	1	1.69151306152	None	None	None	None	1
1.7	2015_Jul_22_1206	s	s	11	3	SIC	182	RC	1	2	23MD	1	0	0.576120138168	156.0	-218.0	155	-221	1
1.7	2015_Jul_22_1206	s	s	11	3	SIC	183	ABS	0	2	24RD	0	1	0.634964942932	None	None	None	None	1
1.7	2015_Jul_22_1206	s	s	11	3	SIC	184	RC	2	0	23VC	1	0	0.524238109589	247.0	79.0	242	85	1
1.7	2015_Jul_22_1206	s	s	11	3	SIC	185	RC	1	0	23MC	1	0	0.611403942108	-108.0	-249.0	-111	-251	1
1.7	2015_Jul_22_1206	s	s	11	3	SIC	186	ABS	1	2	24MD	0	1	0.693665027618	None	None	None	None	1
1.7	2015_Jul_22_1206	s	s	11	3	SIC	187	RC	2	2	23VD	1	0	0.458570957184	152.0	-181.0	154	-177	1
1.7	2015_Jul_22_1206	s	s	11	3	SIC	188	RC	1	1	23MO	1	0	1.10581612587	321.0	-324.0	321	-315	1
1.7	2015_Jul_22_1206	s	s	11	3	SIC	189	ABS	2	1	24VO	0	1	0.710644960403	None	None	None	None	1
1.7	2015_Jul_22_1206	s	s	11	3	SIC	190	ABS	2	0	24VC	0	1	0.493746995926	None	None	None	None	1
1.7	2015_Jul_22_1206	s	s	11	3	SIC	191	RC	0	1	23RO	1	0	1.23002099991	-13.0	-237.0	-12	-230	1
1.7	2015_Jul_22_1206	s	s	11	3	SIC	192	ABS	0	1	24RO	0	1	5.07958197594	None	None	None	None	1
1.7	2015_Jul_22_1206	s	s	11	3	SIC	193	RC	1	2	23MD	1	0	0.4701359272	237.0	55.0	239	50	1
1.7	2015_Jul_22_1206	s	s	11	3	SIC	194	RC	1	1	23MO	1	0	0.44312286377	76.0	71.0	78	70	1
1.7	2015_Jul_22_1206	s	s	11	3	SIC	195	ABS	1	0	24MC	0	1	1.33834910393	None	None	None	None	1
1.7	2015_Jul_22_1206	s	s	11	3	SIC	196	ABS	1	2	24MD	0	1	0.724145174026	None	None	None	None	1
1.7	2015_Jul_22_1206	s	s	11	3	SIC	197	ABS	0	1	24RO	0	1	3.38926696777	None	None	None	None	1
1.7	2015_Jul_22_1206	s	s	11	3	SIC	198	RC	0	2	23RD	1	0	0.564327955246	358.0	160.0	354	164	1
1.7	2015_Jul_22_1206	s	s	11	3	SIC	199	ABS	1	1	24MO	0	1	1.90159893036	None	None	None	None	1
1.7	2015_Jul_22_1206	s	s	11	3	SIC	200	RC	2	2	23VD	1	0	0.505429029465	-321.0	-210.0	-327	-207	1
1.7	2015_Jul_22_1206	s	s	11	3	SIC	201	RC	1	0	23MC	1	0	1.19514489174	497.0	363.0	499	371	1
1.7	2015_Jul_22_1206	s	s	11	3	SIC	202	RC	2	0	23VC	1	0	0.529010057449	-504.0	-106.0	-513	-109	1
1.7	2015_Jul_22_1206	s	s	11	3	SIC	203	ABS	2	1	24VO	0	1	0.61814904213	None	None	None	None	1
1.7	2015_Jul_22_1206	s	s	11	3	SIC	204	RC	2	1	23VO	1	0	0.493653059006	2.0	-152.0	0	-155	1
1.7	2015_Jul_22_1206	s	s	11	3	SIC	205	ABS	2	0	24VC	0	1	0.564412117004	None	None	None	None	1
1.7	2015_Jul_22_1206	s	s	11	3	SIC	206	ABS	2	2	24VD	0	1	0.376182079315	None	None	None	None	1
1.7	2015_Jul_22_1206	s	s	11	3	SIC	207	RC	0	1	23RO	1	0	1.98852515221	290.0	383.0	290	374	1
1.7	2015_Jul_22_1206	s	s	11	3	SIC	208	ABS	0	2	24RD	0	1	0.564285993576	None	None	None	None	1
1.7	2015_Jul_22_1206	s	s	11	3	SIC	209	RC	2	2	23VD	1	0	0.549015045166	248.0	-398.0	247	-403	1
1.7	2015_Jul_22_1206	s	s	11	3	SIC	210	ABS	0	2	24RD	0	1	0.693737030029	None	None	None	None	1
1.7	2015_Jul_22_1206	s	s	11	3	SIC	211	RC	1	1	23MO	1	0	0.693745851517	-72.0	-364.0	-70	-373	1
1.7	2015_Jul_22_1206	s	s	11	3	SIC	212	RC	0	2	23RD	1	0	0.470055103302	-393.0	-351.0	-391	-353	1
1.7	2015_Jul_22_1206	s	s	11	3	SIC	213	ABS	2	0	24VC	0	1	0.634967088699	None	None	None	None	1
1.7	2015_Jul_22_1206	s	s	11	3	SIC	214	RC	1	2	23MD	1	0	0.488163948059	-313.0	-73.0	-320	-78	1
1.7	2015_Jul_22_1206	s	s	11	3	SIC	215	ABS	2	2	24VD	0	1	0.587800979614	None	None	None	None	1
1.7	2015_Jul_22_1206	s	s	11	3	SIC	216	ABS	1	0	24MC	0	1	1.96503305435	None	None	None	None	1
1.7	2015_Jul_22_1206	s	s	11	3	SIC	217	RC	2	0	23VC	1	0	0.465327978134	443.0	80.0	451	87	1
1.7	2015_Jul_22_1206	s	s	11	3	SIC	218	ABS	0	1	24RO	0	1	4.20144891739	None	None	None	None	1
1.7	2015_Jul_22_1206	s	s	11	3	SIC	219	RC	1	0	23MC	1	0	0.959416866302	-318.0	316.0	-319	313	1
1.7	2015_Jul_22_1206	s	s	11	3	SIC	220	ABS	1	1	24MO	0	1	1.71302890778	None	None	None	None	1
1.7	2015_Jul_22_1206	s	s	11	3	SIC	221	ABS	2	1	24VO	0	1	0.470128059387	None	None	None	None	1
1.7	2015_Jul_22_1206	s	s	11	3	SIC	222	RC	0	1	23RO	1	0	2.88313007355	6.0	397.0	13	401	1
1.7	2015_Jul_22_1206	s	s	11	3	SIC	223	ABS	1	2	24MD	0	1	0.853718042374	None	None	None	None	1
1.7	2015_Jul_22_1206	s	s	11	3	SIC	224	RC	2	1	23VO	1	0	0.505424976349	35.0	31.0	41	24	1
1.7	2015_Jul_22_1206	s	s	11	3	SIC	225	ABS	1	0	24MC	0	1	1.82369399071	None	None	None	None	1
1.7	2015_Jul_22_1206	s	s	11	3	SIC	226	RC	2	2	23VD	1	0	0.45338511467	437.0	64.0	442	69	1
1.7	2015_Jul_22_1206	s	s	11	3	SIC	227	ABS	2	2	24VD	0	1	0.658500909805	None	None	None	None	1
1.7	2015_Jul_22_1206	s	s	11	3	SIC	228	RC	2	1	23VO	1	0	0.528926849365	102.0	1.0	102	-1	1
1.7	2015_Jul_22_1206	s	s	11	3	SIC	229	RC	1	2	23MD	1	0	0.582639932632	-274.0	195.0	-282	197	1
1.7	2015_Jul_22_1206	s	s	11	3	SIC	230	ABS	2	0	24VC	0	1	0.642374038696	None	None	None	None	1
1.7	2015_Jul_22_1206	s	s	11	3	SIC	231	ABS	0	2	24RD	0	1	0.79966711998	None	None	None	None	1
1.7	2015_Jul_22_1206	s	s	11	3	SIC	232	RC	0	1	23RO	1	0	1.19749212265	434.0	101.0	434	106	1
1.7	2015_Jul_22_1206	s	s	11	3	SIC	233	ABS	1	2	24MD	0	1	0.608459949493	None	None	None	None	1
1.7	2015_Jul_22_1206	s	s	11	3	SIC	234	ABS	2	1	24VO	0	1	0.488857030869	None	None	None	None	1
1.7	2015_Jul_22_1206	s	s	11	3	SIC	235	RC	0	2	23RD	1	0	0.550154924393	231.0	284.0	237	280	1
1.7	2015_Jul_22_1206	s	s	11	3	SIC	236	ABS	1	1	24MO	0	1	2.27777981758	None	None	None	None	1
1.7	2015_Jul_22_1206	s	s	11	3	SIC	237	ABS	0	1	24RO	0	1	4.39654588699	None	None	None	None	1
1.7	2015_Jul_22_1206	s	s	11	3	SIC	238	RC	1	0	23MC	1	0	1.48926901817	-521.0	-371.0	-526	-375	1
1.7	2015_Jul_22_1206	s	s	11	3	SIC	239	RC	1	1	23MO	1	0	1.25875496864	315.0	-104.0	308	-103	1
1.7	2015_Jul_22_1206	s	s	11	3	SIC	240	RC	2	0	23VC	1	0	0.619973897934	-38.0	-395.0	-46	-395	1
1.7	2015_Jul_22_1206	s	s	11	3	SIC	241	RC	0	2	23RD	1	0	0.523777008057	375.0	-6.0	373	2	1
1.7	2015_Jul_22_1206	s	s	11	3	SIC	242	ABS	0	1	24RO	0	1	3.16558003426	None	None	None	None	1
1.7	2015_Jul_22_1206	s	s	11	3	SIC	243	RC	2	0	23VC	1	0	0.467957019806	-520.0	-260.0	-526	-258	1
1.7	2015_Jul_22_1206	s	s	11	3	SIC	244	ABS	0	2	24RD	0	1	0.818421125412	None	None	None	None	1
1.7	2015_Jul_22_1206	s	s	11	3	SIC	245	RC	2	2	23VD	1	0	0.465521812439	103.0	17.0	97	17	1
1.7	2015_Jul_22_1206	s	s	11	3	SIC	246	ABS	2	1	24VO	0	1	0.571929931641	None	None	None	None	1
1.7	2015_Jul_22_1206	s	s	11	3	SIC	247	RC	1	1	23MO	1	0	0.889602899551	-536.0	339.0	-541	338	1
1.7	2015_Jul_22_1206	s	s	11	3	SIC	248	RC	2	1	23VO	1	0	0.422940969467	-377.0	343.0	-375	333	1
1.7	2015_Jul_22_1206	s	s	11	3	SIC	249	ABS	1	2	24MD	0	1	0.66680598259	None	None	None	None	1
1.7	2015_Jul_22_1206	s	s	11	3	SIC	250	ABS	2	2	24VD	0	1	0.489084005356	None	None	None	None	1
1.7	2015_Jul_22_1206	s	s	11	3	SIC	251	RC	1	2	23MD	1	0	0.724720001221	183.0	-363.0	185	-368	1
1.7	2015_Jul_22_1206	s	s	11	3	SIC	252	ABS	1	1	24MO	0	1	1.00663304329	None	None	None	None	1
1.7	2015_Jul_22_1206	s	s	11	3	SIC	253	RC	0	1	23RO	1	0	0.665335178375	208.0	-63.0	212	-62	1
1.7	2015_Jul_22_1206	s	s	11	3	SIC	254	ABS	2	0	24VC	0	1	0.631896972656	None	None	None	None	1
1.7	2015_Jul_22_1206	s	s	11	3	SIC	255	ABS	1	0	24MC	0	1	1.55989193916	None	None	None	None	1
1.7	2015_Jul_22_1206	s	s	11	3	SIC	256	RC	1	0	23MC	1	0	1.15279197693	217.0	371.0	213	367	1
1.7	2015_Jul_22_1206	s	s	11	3	SIC	257	ABS	1	0	24MC	0	1	2.44554281235	None	None	None	None	1
1.7	2015_Jul_22_1206	s	s	11	3	SIC	258	ABS	0	2	24RD	0	1	1.16463685036	None	None	None	None	1
1.7	2015_Jul_22_1206	s	s	11	3	SIC	259	RC	1	1	23MO	1	0	0.497489929199	331.0	-19.0	335	-20	1
1.7	2015_Jul_22_1206	s	s	11	3	SIC	260	RC	0	2	23RD	1	0	0.477230072021	342.0	-307.0	344	-316	1
1.7	2015_Jul_22_1206	s	s	11	3	SIC	261	RC	2	1	23VO	1	0	0.375977993011	353.0	-158.0	355	-156	1
1.7	2015_Jul_22_1206	s	s	11	3	SIC	262	ABS	0	1	24RO	0	1	9.05086803436	None	None	None	None	1
1.7	2015_Jul_22_1206	s	s	11	3	SIC	263	ABS	1	1	24MO	0	1	2.12976288795	None	None	None	None	1
1.7	2015_Jul_22_1206	s	s	11	3	SIC	264	RC	2	0	23VC	1	0	0.470117092133	-294.0	257.0	-286	251	1
1.7	2015_Jul_22_1206	s	s	11	3	SIC	265	RC	1	0	23MC	0	1	1.52558279037	-273.0	-103.0	None	None	0
1.7	2015_Jul_22_1206	s	s	11	3	SIC	266	RC	1	2	23MD	1	0	0.95653295517	390.0	270.0	392	257	1
1.7	2015_Jul_22_1206	s	s	11	3	SIC	267	ABS	2	1	24VO	0	1	0.656111001968	None	None	None	None	1
1.7	2015_Jul_22_1206	s	s	11	3	SIC	268	ABS	2	0	24VC	0	1	0.446646928787	None	None	None	None	1
1.7	2015_Jul_22_1206	s	s	11	3	SIC	269	RC	2	2	23VD	1	0	1.88259601593	83.0	-129.0	89	-133	1
1.7	2015_Jul_22_1206	s	s	11	3	SIC	270	RC	0	1	23RO	1	0	1.18809890747	-128.0	19.0	-121	21	1
1.7	2015_Jul_22_1206	s	s	11	3	SIC	271	ABS	2	2	24VD	0	1	0.599630117416	None	None	None	None	1
1.7	2015_Jul_22_1206	s	s	11	3	SIC	272	ABS	1	2	24MD	0	1	0.841954946518	None	None	None	None	1
1.7	2015_Jul_22_1206	s	s	11	3	SIC	273	RC	1	2	23MD	1	0	0.752619981766	-174.0	397.0	-166	398	1
1.7	2015_Jul_22_1206	s	s	11	3	SIC	274	RC	0	2	23RD	1	0	0.493700027466	-396.0	-108.0	-398	-107	1
1.7	2015_Jul_22_1206	s	s	11	3	SIC	275	RC	2	2	23VD	1	0	0.489386796951	-522.0	-280.0	-525	-286	1
1.7	2015_Jul_22_1206	s	s	11	3	SIC	276	ABS	1	1	24MO	0	1	1.7835290432	None	None	None	None	1
1.7	2015_Jul_22_1206	s	s	11	3	SIC	277	RC	1	0	23MC	1	0	1.26691889763	281.0	-241.0	280	-247	1
1.7	2015_Jul_22_1206	s	s	11	3	SIC	278	ABS	0	2	24RD	0	1	0.670418977737	None	None	None	None	1
1.7	2015_Jul_22_1206	s	s	11	3	SIC	279	RC	1	1	23MO	1	0	1.00617098808	286.0	-412.0	290	-409	1
1.7	2015_Jul_22_1206	s	s	11	3	SIC	280	RC	0	1	23RO	1	0	1.81865382195	-414.0	-389.0	-408	-387	1
1.7	2015_Jul_22_1206	s	s	11	3	SIC	281	ABS	1	0	24MC	0	1	1.46528720856	None	None	None	None	1
1.7	2015_Jul_22_1206	s	s	11	3	SIC	282	RC	2	1	23VO	1	0	0.453059911728	103.0	236.0	103	236	1
1.7	2015_Jul_22_1206	s	s	11	3	SIC	283	RC	2	0	23VC	1	0	0.505436182022	-455.0	12.0	-455	6	1
1.7	2015_Jul_22_1206	s	s	11	3	SIC	284	ABS	2	0	24VC	0	1	0.618428945541	None	None	None	None	1
1.7	2015_Jul_22_1206	s	s	11	3	SIC	285	ABS	1	2	24MD	0	1	0.693802118301	None	None	None	None	1
1.7	2015_Jul_22_1206	s	s	11	3	SIC	286	ABS	2	1	24VO	0	1	0.458410978317	None	None	None	None	1
1.7	2015_Jul_22_1206	s	s	11	3	SIC	287	ABS	2	2	24VD	0	1	0.453509092331	None	None	None	None	1
1.7	2015_Jul_22_1206	s	s	11	3	SIC	288	ABS	0	1	24RO	0	1	5.50801897049	None	None	None	None	1
1.7	2015_Jul_22_1206	s	s	11	3	SIC	289	ABS	2	1	24VO	0	1	0.549782037735	None	None	None	None	1
1.7	2015_Jul_22_1206	s	s	11	3	SIC	290	RC	1	2	23MD	1	0	0.528993844986	-461.0	95.0	-463	89	1
1.7	2015_Jul_22_1206	s	s	11	3	SIC	291	RC	0	2	23RD	1	0	0.470162153244	-140.0	-108.0	-142	-114	1
1.7	2015_Jul_22_1206	s	s	11	3	SIC	292	ABS	1	1	24MO	0	1	1.9183819294	None	None	None	None	1
1.7	2015_Jul_22_1206	s	s	11	3	SIC	293	RC	2	0	23VC	1	0	0.5128698349	152.0	-195.0	147	-200	1
1.7	2015_Jul_22_1206	s	s	11	3	SIC	294	ABS	1	2	24MD	0	1	0.681972980499	None	None	None	None	1
1.7	2015_Jul_22_1206	s	s	11	3	SIC	295	RC	2	2	23VD	1	0	0.403305053711	11.0	100.0	6	101	1
1.7	2015_Jul_22_1206	s	s	11	3	SIC	296	ABS	0	1	24RO	0	1	3.0831580162	None	None	None	None	1
1.7	2015_Jul_22_1206	s	s	11	3	SIC	297	RC	1	1	23MO	1	0	1.1359398365	324.0	344.0	314	346	1
1.7	2015_Jul_22_1206	s	s	11	3	SIC	298	ABS	0	2	24RD	0	1	1.22957706451	None	None	None	None	1
1.7	2015_Jul_22_1206	s	s	11	3	SIC	299	RC	0	1	23RO	1	0	4.25756978989	-192.0	148.0	-185	141	1
1.7	2015_Jul_22_1206	s	s	11	3	SIC	300	ABS	1	0	24MC	0	1	1.28024601936	None	None	None	None	1
1.7	2015_Jul_22_1206	s	s	11	3	SIC	301	RC	1	0	23MC	1	0	1.04050707817	134.0	-117.0	126	-112	1
1.7	2015_Jul_22_1206	s	s	11	3	SIC	302	ABS	2	0	24VC	0	1	0.594736099243	None	None	None	None	1
1.7	2015_Jul_22_1206	s	s	11	3	SIC	303	ABS	2	2	24VD	0	1	0.463838100433	None	None	None	None	1
1.7	2015_Jul_22_1206	s	s	11	3	SIC	304	RC	2	1	23VO	1	0	0.514221906662	318.0	-173.0	322	-168	1
1.7	2015_Jul_22_1206	s	s	11	3	SIC	305	ABS	2	0	24VC	0	1	0.568024873734	None	None	None	None	1
1.7	2015_Jul_22_1206	s	s	11	3	SIC	306	RC	0	1	23RO	1	0	2.25536704063	533.0	-390.0	535	-393	1
1.7	2015_Jul_22_1206	s	s	11	3	SIC	307	RC	1	0	23MC	1	0	1.15972614288	-481.0	-174.0	-489	-178	1
1.7	2015_Jul_22_1206	s	s	11	3	SIC	308	RC	2	0	23VC	1	0	0.510993003845	-210.0	193.0	-207	193	1
1.7	2015_Jul_22_1206	s	s	11	3	SIC	309	RC	1	2	23MD	1	0	0.723549842834	373.0	256.0	379	263	1
1.7	2015_Jul_22_1206	s	s	11	3	SIC	310	RC	1	1	23MO	1	0	1.24203515053	158.0	-285.0	158	-286	1
1.7	2015_Jul_22_1206	s	s	11	3	SIC	311	RC	2	1	23VO	1	0	0.540632963181	306.0	303.0	295	306	1
1.7	2015_Jul_22_1206	s	s	11	3	SIC	312	ABS	2	2	24VD	0	1	0.681993961334	None	None	None	None	1
1.7	2015_Jul_22_1206	s	s	11	3	SIC	313	ABS	1	0	24MC	0	1	1.48283982277	None	None	None	None	1
1.7	2015_Jul_22_1206	s	s	11	3	SIC	314	ABS	1	2	24MD	0	1	0.676529884338	None	None	None	None	1
1.7	2015_Jul_22_1206	s	s	11	3	SIC	315	ABS	2	1	24VO	0	1	0.608304023743	None	None	None	None	1
1.7	2015_Jul_22_1206	s	s	11	3	SIC	316	RC	0	2	23RD	1	0	0.454725027084	340.0	-144.0	334	-150	1
1.7	2015_Jul_22_1206	s	s	11	3	SIC	317	RC	2	2	23VD	1	0	0.394726037979	-394.0	-399.0	-394	-395	1
1.7	2015_Jul_22_1206	s	s	11	3	SIC	318	ABS	0	2	24RD	0	1	0.688674926758	None	None	None	None	1
1.7	2015_Jul_22_1206	s	s	11	3	SIC	319	ABS	1	1	24MO	0	1	2.20739889145	None	None	None	None	1
1.7	2015_Jul_22_1206	s	s	11	3	SIC	320	ABS	0	1	24RO	0	1	3.79369997978	None	None	None	None	1
1.7	2015_Jul_22_1206	s	s	11	3	SIC	321	RC	1	0	23MC	1	0	0.564301013947	287.0	-99.0	296	-103	1
1.7	2015_Jul_22_1206	s	s	11	3	SIC	322	ABS	2	0	24VC	0	1	0.540800094604	None	None	None	None	1
1.7	2015_Jul_22_1206	s	s	11	3	SIC	323	RC	0	2	23RD	1	0	0.465409040451	-433.0	-64.0	-435	-65	1
1.7	2015_Jul_22_1206	s	s	11	3	SIC	324	RC	0	1	23RO	1	0	2.74881792068	398.0	81.0	398	88	1
1.7	2015_Jul_22_1206	s	s	11	3	SIC	325	ABS	0	2	24RD	0	1	0.877166032791	None	None	None	None	1
1.7	2015_Jul_22_1206	s	s	11	3	SIC	326	RC	2	2	23VD	1	0	0.52899479866	352.0	205.0	352	205	1
1.7	2015_Jul_22_1206	s	s	11	3	SIC	327	RC	1	1	23MO	1	0	0.729141950607	-218.0	-16.0	-211	-16	1
1.7	2015_Jul_22_1206	s	s	11	3	SIC	328	RC	1	2	23MD	1	0	0.453404903412	-132.0	17.0	-122	17	1
1.7	2015_Jul_22_1206	s	s	11	3	SIC	329	ABS	1	1	24MO	0	1	0.606593132019	None	None	None	None	1
1.7	2015_Jul_22_1206	s	s	11	3	SIC	330	ABS	2	1	24VO	1	0	0.611421108246	None	None	-140	-78	0
1.7	2015_Jul_22_1206	s	s	11	3	SIC	331	RC	2	1	23VO	1	0	0.641673088074	-291.0	-411.0	-299	-410	1
1.7	2015_Jul_22_1206	s	s	11	3	SIC	332	ABS	0	1	24RO	0	1	4.44413304329	None	None	None	None	1
1.7	2015_Jul_22_1206	s	s	11	3	SIC	333	ABS	2	2	24VD	0	1	0.571210861206	None	None	None	None	1
1.7	2015_Jul_22_1206	s	s	11	3	SIC	334	ABS	1	2	24MD	0	1	0.693741798401	None	None	None	None	1
1.7	2015_Jul_22_1206	s	s	11	3	SIC	335	ABS	1	0	24MC	0	1	1.24379086494	None	None	None	None	1
1.7	2015_Jul_22_1206	s	s	11	3	SIC	336	RC	2	0	23VC	1	0	0.535841941833	-415.0	345.0	-412	346	1
1.7	2015_Jul_22_1206	s	s	11	3	SIC	337	ABS	2	0	24VC	0	1	0.618323087692	None	None	None	None	1
1.7	2015_Jul_22_1206	s	s	11	3	SIC	338	ABS	1	2	24MD	0	1	0.611530065536	None	None	None	None	1
1.7	2015_Jul_22_1206	s	s	11	3	SIC	339	ABS	0	2	24RD	0	1	0.658548116684	None	None	None	None	1
1.7	2015_Jul_22_1206	s	s	11	3	SIC	340	ABS	1	1	24MO	0	1	2.01205801964	None	None	None	None	1
1.7	2015_Jul_22_1206	s	s	11	3	SIC	341	RC	0	2	23RD	1	0	0.571322202682	-190.0	2.0	-189	-8	1
1.7	2015_Jul_22_1206	s	s	11	3	SIC	342	RC	0	1	23RO	1	0	1.46579098701	-486.0	-378.0	-483	-381	1
1.7	2015_Jul_22_1206	s	s	11	3	SIC	343	RC	2	0	23VC	1	0	0.476996898651	514.0	100.0	515	98	1
1.7	2015_Jul_22_1206	s	s	11	3	SIC	344	RC	2	2	23VD	1	0	0.441638946533	-281.0	-372.0	-276	-375	1
1.7	2015_Jul_22_1206	s	s	11	3	SIC	345	RC	2	1	23VO	1	0	0.423074007034	-487.0	-185.0	-497	-185	1
1.7	2015_Jul_22_1206	s	s	11	3	SIC	346	RC	1	0	23MC	1	0	0.611377000809	-18.0	-60.0	-15	-61	1
1.7	2015_Jul_22_1206	s	s	11	3	SIC	347	ABS	1	0	24MC	0	1	2.66781902313	None	None	None	None	1
1.7	2015_Jul_22_1206	s	s	11	3	SIC	348	ABS	0	1	24RO	0	1	5.797301054	None	None	None	None	1
1.7	2015_Jul_22_1206	s	s	11	3	SIC	349	ABS	2	1	24VO	0	1	0.761048078537	None	None	None	None	1
1.7	2015_Jul_22_1206	s	s	11	3	SIC	350	RC	1	1	23MO	1	0	0.756464004517	14.0	278.0	20	285	1
1.7	2015_Jul_22_1206	s	s	11	3	SIC	351	ABS	2	2	24VD	0	1	0.764446020126	None	None	None	None	1
1.7	2015_Jul_22_1206	s	s	11	3	SIC	352	RC	1	2	23MD	1	0	0.611392021179	-275.0	-225.0	-274	-231	1
1.7	2015_Jul_22_1206	s	s	11	3	SIC	353	ABS	1	2	24MD	0	1	1.1999361515	None	None	None	None	1
1.7	2015_Jul_22_1206	s	s	11	3	SIC	354	RC	2	1	23VO	1	0	0.564331054688	-427.0	-197.0	-425	-197	1
1.7	2015_Jul_22_1206	s	s	11	3	SIC	355	RC	2	0	23VC	1	0	0.477010965347	-269.0	-54.0	-266	-56	1
1.7	2015_Jul_22_1206	s	s	11	3	SIC	356	ABS	2	2	24VD	0	1	0.477499961853	None	None	None	None	1
1.7	2015_Jul_22_1206	s	s	11	3	SIC	357	RC	1	2	23MD	1	0	0.548598051071	-28.0	-201.0	-26	-204	1
1.7	2015_Jul_22_1206	s	s	11	3	SIC	358	ABS	2	1	24VO	0	1	0.552519083023	None	None	None	None	1
1.7	2015_Jul_22_1206	s	s	11	3	SIC	359	RC	1	0	23MC	1	0	0.517225980759	86.0	133.0	85	129	1
1.7	2015_Jul_22_1206	s	s	11	3	SIC	360	ABS	1	1	24MO	0	1	1.69427585602	None	None	None	None	1
1.7	2015_Jul_22_1206	s	s	11	3	SIC	361	ABS	0	2	24RD	0	1	0.877413988113	None	None	None	None	1
1.7	2015_Jul_22_1206	s	s	11	3	SIC	362	RC	0	1	23RO	1	0	3.27837896347	384.0	276.0	385	272	1
1.7	2015_Jul_22_1206	s	s	11	3	SIC	363	RC	0	2	23RD	1	0	0.51473402977	-322.0	244.0	-311	251	1
1.7	2015_Jul_22_1206	s	s	11	3	SIC	364	ABS	2	0	24VC	0	1	0.576083898544	None	None	None	None	1
1.7	2015_Jul_22_1206	s	s	11	3	SIC	365	ABS	1	0	24MC	0	1	1.12365198135	None	None	None	None	1
1.7	2015_Jul_22_1206	s	s	11	3	SIC	366	RC	1	1	23MO	1	0	1.05345416069	-18.0	-241.0	-15	-241	1
1.7	2015_Jul_22_1206	s	s	11	3	SIC	367	ABS	0	1	24RO	0	1	5.63738417625	None	None	None	None	1
1.7	2015_Jul_22_1206	s	s	11	3	SIC	368	RC	2	2	23VD	1	0	0.540737867355	242.0	286.0	253	289	1
1.7	2015_Jul_22_1206	s	s	11	3	SIC	369	RC	2	1	23VO	1	0	0.411256790161	274.0	167.0	282	173	1
1.7	2015_Jul_22_1206	s	s	11	3	SIC	370	ABS	0	2	24RD	0	1	0.681978940964	None	None	None	None	1
1.7	2015_Jul_22_1206	s	s	11	3	SIC	371	ABS	1	2	24MD	0	1	0.67916893959	None	None	None	None	1
1.7	2015_Jul_22_1206	s	s	11	3	SIC	372	RC	1	2	23MD	1	0	0.540781974792	-210.0	303.0	-200	303	1
1.7	2015_Jul_22_1206	s	s	11	3	SIC	373	ABS	2	1	24VO	0	1	0.828824043274	None	None	None	None	1
1.7	2015_Jul_22_1206	s	s	11	3	SIC	374	ABS	0	1	24RO	0	1	2.77218389511	None	None	None	None	1
1.7	2015_Jul_22_1206	s	s	11	3	SIC	375	ABS	2	2	24VD	0	1	0.540731191635	None	None	None	None	1
1.7	2015_Jul_22_1206	s	s	11	3	SIC	376	ABS	1	1	24MO	0	1	1.72435712814	None	None	None	None	1
1.7	2015_Jul_22_1206	s	s	11	3	SIC	377	RC	2	2	23VD	1	0	0.548178195953	234.0	202.0	235	201	1
1.7	2015_Jul_22_1206	s	s	11	3	SIC	378	RC	2	0	23VC	1	0	0.418216943741	-191.0	162.0	-193	160	1
1.7	2015_Jul_22_1206	s	s	11	3	SIC	379	RC	0	1	23RO	0	1	8.07778096199	-486.0	406.0	None	None	0
1.7	2015_Jul_22_1206	s	s	11	3	SIC	380	RC	0	2	23RD	1	0	0.587809085846	-49.0	94.0	-43	92	1
1.7	2015_Jul_22_1206	s	s	11	3	SIC	381	ABS	2	0	24VC	0	1	0.700658082962	None	None	None	None	1
1.7	2015_Jul_22_1206	s	s	11	3	SIC	382	RC	1	1	23MO	1	0	1.25882196426	-125.0	-403.0	-125	-401	1
1.7	2015_Jul_22_1206	s	s	11	3	SIC	383	ABS	1	0	24MC	0	1	1.26521611214	None	None	None	None	1
1.7	2015_Jul_22_1206	s	s	11	3	SIC	384	RC	1	0	23MC	1	0	1.27726006508	529.0	9.0	522	11	1
1.7	2015_Jul_22_1206	s	s	11	3	SIC	385	ABS	1	0	24MC	0	1	1.52456498146	None	None	None	None	1
1.7	2015_Jul_22_1206	s	s	11	3	SIC	386	RC	1	2	23MD	1	0	0.490715026855	-326.0	-306.0	-333	-313	1
1.7	2015_Jul_22_1206	s	s	11	3	SIC	387	ABS	0	2	24RD	0	1	1.1133620739	None	None	None	None	1
1.7	2015_Jul_22_1206	s	s	11	3	SIC	388	ABS	1	1	24MO	0	1	2.31317090988	None	None	None	None	1
1.7	2015_Jul_22_1206	s	s	11	3	SIC	389	ABS	0	1	24RO	0	1	3.07152104378	None	None	None	None	1
1.7	2015_Jul_22_1206	s	s	11	3	SIC	390	ABS	2	0	24VC	0	1	0.468075990677	None	None	None	None	1
1.7	2015_Jul_22_1206	s	s	11	3	SIC	391	ABS	2	1	24VO	0	1	0.509254932404	None	None	None	None	1
1.7	2015_Jul_22_1206	s	s	11	3	SIC	392	RC	2	1	23VO	1	0	0.514072179794	-199.0	-37.0	-196	-35	1
1.7	2015_Jul_22_1206	s	s	11	3	SIC	393	ABS	2	2	24VD	0	1	0.587846040726	None	None	None	None	1
1.7	2015_Jul_22_1206	s	s	11	3	SIC	394	ABS	1	2	24MD	0	1	0.582976818085	None	None	None	None	1
1.7	2015_Jul_22_1206	s	s	11	3	SIC	395	RC	0	1	23RO	1	0	1.31763410568	259.0	184.0	264	192	1
1.7	2015_Jul_22_1206	s	s	11	3	SIC	396	RC	2	0	23VC	1	0	0.517295837402	-342.0	-27.0	-351	-31	1
1.7	2015_Jul_22_1206	s	s	11	3	SIC	397	RC	2	2	23VD	1	0	0.512255907059	2.0	-411.0	12	-407	1
1.7	2015_Jul_22_1206	s	s	11	3	SIC	398	RC	1	0	23MC	1	0	3.51362299919	441.0	-60.0	455	-54	1
1.7	2015_Jul_22_1206	s	s	11	3	SIC	399	RC	1	1	23MO	1	0	0.524078845978	43.0	98.0	37	90	1
1.7	2015_Jul_22_1206	s	s	11	3	SIC	400	RC	0	2	23RD	1	0	0.670313119888	411.0	-247.0	417	-246	1
1.7	2015_Jul_22_1206	s	s	11	3	SIC	401	ABS	0	2	24RD	0	1	0.729152917862	None	None	None	None	1
1.7	2015_Jul_22_1206	s	s	11	3	SIC	402	ABS	0	1	24RO	0	1	5.01963305473	None	None	None	None	1
1.7	2015_Jul_22_1206	s	s	11	3	SIC	403	ABS	2	0	24VC	0	1	0.535835981369	None	None	None	None	1
1.7	2015_Jul_22_1206	s	s	11	3	SIC	404	RC	2	0	23VC	1	0	0.517306089401	340.0	-386.0	343	-377	1
1.7	2015_Jul_22_1206	s	s	11	3	SIC	405	RC	1	1	23MO	1	0	0.674873828888	246.0	-175.0	252	-173	1
1.7	2015_Jul_22_1206	s	s	11	3	SIC	406	RC	1	0	23MC	1	0	2.12985491753	-367.0	258.0	-370	265	1
1.7	2015_Jul_22_1206	s	s	11	3	SIC	407	RC	1	2	23MD	1	0	0.465095996857	344.0	274.0	346	279	1
1.7	2015_Jul_22_1206	s	s	11	3	SIC	408	RC	2	2	23VD	1	0	0.441806077957	537.0	327.0	534	335	1
1.7	2015_Jul_22_1206	s	s	11	3	SIC	409	ABS	2	2	24VD	0	1	0.811614990234	None	None	None	None	1
1.7	2015_Jul_22_1206	s	s	11	3	SIC	410	RC	0	1	23RO	1	0	1.44759202003	-56.0	120.0	-52	129	1
1.7	2015_Jul_22_1206	s	s	11	3	SIC	411	ABS	1	0	24MC	0	1	1.8894340992	None	None	None	None	1
1.7	2015_Jul_22_1206	s	s	11	3	SIC	412	ABS	1	2	24MD	0	1	0.564230918884	None	None	None	None	1
1.7	2015_Jul_22_1206	s	s	11	3	SIC	413	ABS	2	1	24VO	0	1	0.476982116699	None	None	None	None	1
1.7	2015_Jul_22_1206	s	s	11	3	SIC	414	RC	2	1	23VO	1	0	0.5172560215	-185.0	109.0	-185	111	1
1.7	2015_Jul_22_1206	s	s	11	3	SIC	415	RC	0	2	23RD	1	0	0.505435943604	138.0	-260.0	145	-263	1
1.7	2015_Jul_22_1206	s	s	11	3	SIC	416	ABS	1	1	24MO	0	1	2.47110915184	None	None	None	None	1
1.7	2015_Jul_22_1206	s	s	11	3	SIC	417	ABS	1	0	24MC	0	1	2.55391716957	None	None	None	None	1
1.7	2015_Jul_22_1206	s	s	11	3	SIC	418	RC	2	1	23VO	1	0	0.467044830322	-301.0	256.0	-298	263	1
1.7	2015_Jul_22_1206	s	s	11	3	SIC	419	RC	2	0	23VC	1	0	0.49368596077	60.0	404.0	74	409	1
1.7	2015_Jul_22_1206	s	s	11	3	SIC	420	RC	1	0	23MC	1	0	0.85860991478	-406.0	-187.0	-406	-189	1
1.7	2015_Jul_22_1206	s	s	11	3	SIC	421	RC	2	2	23VD	1	0	0.45592880249	481.0	295.0	485	287	1
1.7	2015_Jul_22_1206	s	s	11	3	SIC	422	ABS	1	1	24MO	0	1	3.04791212082	None	None	None	None	1
1.7	2015_Jul_22_1206	s	s	11	3	SIC	423	RC	0	1	23RO	1	0	0.882061958313	-415.0	206.0	-420	214	1
1.7	2015_Jul_22_1206	s	s	11	3	SIC	424	ABS	0	2	24RD	0	1	1.05870389938	None	None	None	None	1
1.7	2015_Jul_22_1206	s	s	11	3	SIC	425	ABS	2	2	24VD	0	1	0.524016141891	None	None	None	None	1
1.7	2015_Jul_22_1206	s	s	11	3	SIC	426	ABS	2	0	24VC	0	1	0.623170137405	None	None	None	None	1
1.7	2015_Jul_22_1206	s	s	11	3	SIC	427	ABS	2	1	24VO	0	1	0.453679084778	None	None	None	None	1
1.7	2015_Jul_22_1206	s	s	11	3	SIC	428	ABS	0	1	24RO	0	1	4.12584805489	None	None	None	None	1
1.7	2015_Jul_22_1206	s	s	11	3	SIC	429	RC	1	2	23MD	1	0	0.572391033173	-166.0	-151.0	-165	-145	1
1.7	2015_Jul_22_1206	s	s	11	3	SIC	430	RC	0	2	23RD	1	0	0.59458398819	414.0	-12.0	422	-16	1
1.7	2015_Jul_22_1206	s	s	11	3	SIC	431	RC	1	1	23MO	1	0	1.02333903313	153.0	-146.0	153	-144	1
1.7	2015_Jul_22_1206	s	s	11	3	SIC	432	ABS	1	2	24MD	0	1	0.747644901276	None	None	None	None	1
1.7	2015_Jul_22_1206	s	s	11	3	SIC	433	RC	1	1	23MO	1	0	0.524127960205	59.0	-24.0	51	-24	1
1.7	2015_Jul_22_1206	s	s	11	3	SIC	434	RC	2	1	23VO	1	0	0.481966018677	214.0	-193.0	209	-196	1
1.7	2015_Jul_22_1206	s	s	11	3	SIC	435	ABS	1	1	24MO	0	1	2.27123188972	None	None	None	None	1
1.7	2015_Jul_22_1206	s	s	11	3	SIC	436	ABS	1	0	24MC	0	1	2.23571705818	None	None	None	None	1
1.7	2015_Jul_22_1206	s	s	11	3	SIC	437	RC	1	0	23MC	1	0	1.49976205826	467.0	390.0	471	390	1
1.7	2015_Jul_22_1206	s	s	11	3	SIC	438	RC	2	2	23VD	1	0	0.423144817352	345.0	-205.0	339	-206	1
1.7	2015_Jul_22_1206	s	s	11	3	SIC	439	RC	0	2	23RD	1	0	0.549387931824	-58.0	-284.0	-64	-286	1
1.7	2015_Jul_22_1206	s	s	11	3	SIC	440	ABS	2	0	24VC	0	1	0.611435890198	None	None	None	None	1
1.7	2015_Jul_22_1206	s	s	11	3	SIC	441	ABS	0	1	24RO	0	1	3.99648594856	None	None	None	None	1
1.7	2015_Jul_22_1206	s	s	11	3	SIC	442	RC	2	0	23VC	1	0	0.446605920792	224.0	-222.0	216	-215	1
1.7	2015_Jul_22_1206	s	s	11	3	SIC	443	ABS	0	2	24RD	0	1	0.626947879791	None	None	None	None	1
1.7	2015_Jul_22_1206	s	s	11	3	SIC	444	RC	0	1	23RO	1	0	3.75039505959	-434.0	376.0	-439	373	1
1.7	2015_Jul_22_1206	s	s	11	3	SIC	445	ABS	1	2	24MD	0	1	0.773126840591	None	None	None	None	1
1.7	2015_Jul_22_1206	s	s	11	3	SIC	446	ABS	2	2	24VD	0	1	0.547605037689	None	None	None	None	1
1.7	2015_Jul_22_1206	s	s	11	3	SIC	447	RC	1	2	23MD	1	0	0.465441942215	-46.0	-128.0	-42	-125	1
1.7	2015_Jul_22_1206	s	s	11	3	SIC	448	ABS	2	1	24VO	0	1	0.512264966965	None	None	None	None	1
1.7	2015_Jul_22_1206	s	s	11	3	SIC	449	ABS	1	0	24MC	0	1	1.68937516212	None	None	None	None	1
1.7	2015_Jul_22_1206	s	s	11	3	SIC	450	RC	1	0	23MC	1	0	0.705569028854	268.0	-172.0	265	-163	1
1.7	2015_Jul_22_1206	s	s	11	3	SIC	451	RC	1	1	23MO	1	0	0.552530050278	149.0	-137.0	147	-135	1
1.7	2015_Jul_22_1206	s	s	11	3	SIC	452	RC	0	2	23RD	1	0	0.411305904388	-66.0	-337.0	-75	-338	1
1.7	2015_Jul_22_1206	s	s	11	3	SIC	453	RC	0	1	23RO	1	0	2.07706284523	204.0	369.0	207	377	1
1.7	2015_Jul_22_1206	s	s	11	3	SIC	454	RC	2	0	23VC	1	0	0.594804048538	523.0	-403.0	528	-404	1
1.7	2015_Jul_22_1206	s	s	11	3	SIC	455	ABS	2	1	24VO	0	1	0.641997098923	None	None	None	None	1
1.7	2015_Jul_22_1206	s	s	11	3	SIC	456	RC	2	1	23VO	1	0	0.503160953522	-372.0	20.0	-372	21	1
1.7	2015_Jul_22_1206	s	s	11	3	SIC	457	RC	2	2	23VD	1	0	0.406327962875	-405.0	-151.0	-400	-153	1
1.7	2015_Jul_22_1206	s	s	11	3	SIC	458	RC	1	2	23MD	1	0	0.505511045456	215.0	-164.0	221	-158	1
1.7	2015_Jul_22_1206	s	s	11	3	SIC	459	ABS	2	2	24VD	0	1	0.571091890335	None	None	None	None	1
1.7	2015_Jul_22_1206	s	s	11	3	SIC	460	ABS	1	1	24MO	0	1	1.01840901375	None	None	None	None	1
1.7	2015_Jul_22_1206	s	s	11	3	SIC	461	ABS	0	1	24RO	0	1	4.54949307442	None	None	None	None	1
1.7	2015_Jul_22_1206	s	s	11	3	SIC	462	ABS	0	2	24RD	0	1	0.681993961334	None	None	None	None	1
1.7	2015_Jul_22_1206	s	s	11	3	SIC	463	ABS	2	0	24VC	0	1	0.524071931839	None	None	None	None	1
1.7	2015_Jul_22_1206	s	s	11	3	SIC	464	ABS	1	2	24MD	0	1	0.547914028168	None	None	None	None	1
1.7	2015_Jul_22_1206	s	s	11	3	SIC	465	RC	1	2	23MD	1	0	0.646589040756	-200.0	343.0	-202	342	1
1.7	2015_Jul_22_1206	s	s	11	3	SIC	466	RC	2	0	23VC	1	0	0.559388160706	-113.0	-237.0	-112	-249	1
1.7	2015_Jul_22_1206	s	s	11	3	SIC	467	RC	1	1	23MO	1	0	0.476935863495	-99.0	14.0	-108	13	1
1.7	2015_Jul_22_1206	s	s	11	3	SIC	468	RC	2	1	23VO	1	0	0.418007135391	69.0	49.0	75	56	1
1.7	2015_Jul_22_1206	s	s	11	3	SIC	469	ABS	1	0	24MC	0	1	3.10679984093	None	None	None	None	1
1.7	2015_Jul_22_1206	s	s	11	3	SIC	470	ABS	0	2	24RD	0	1	1.59594917297	None	None	None	None	1
1.7	2015_Jul_22_1206	s	s	11	3	SIC	471	RC	0	2	23RD	1	0	0.562157869339	338.0	191.0	337	194	1
1.7	2015_Jul_22_1206	s	s	11	3	SIC	472	RC	1	0	23MC	1	0	1.50601816177	78.0	-163.0	76	-170	1
1.7	2015_Jul_22_1206	s	s	11	3	SIC	473	ABS	1	2	24MD	0	1	1.04155802727	None	None	None	None	1
1.7	2015_Jul_22_1206	s	s	11	3	SIC	474	ABS	1	1	24MO	0	1	3.10183691978	None	None	None	None	1
1.7	2015_Jul_22_1206	s	s	11	3	SIC	475	RC	0	1	23RO	1	0	1.75935816765	457.0	352.0	467	352	1
1.7	2015_Jul_22_1206	s	s	11	3	SIC	476	ABS	2	1	24VO	0	1	0.642583847046	None	None	None	None	1
1.7	2015_Jul_22_1206	s	s	11	3	SIC	477	ABS	0	1	24RO	0	1	7.04192090034	None	None	None	None	1
1.7	2015_Jul_22_1206	s	s	11	3	SIC	478	RC	2	2	23VD	1	0	0.476554870605	-204.0	-235.0	-198	-242	1
1.7	2015_Jul_22_1206	s	s	11	3	SIC	479	ABS	2	2	24VD	0	1	0.490437030792	None	None	None	None	1
1.7	2015_Jul_22_1206	s	s	11	3	SIC	480	ABS	2	0	24VC	0	1	0.607843875885	None	None	None	None	1
1.7	2015_Jul_22_1206	s	s	11	3	SIC	481	ABS	0	1	24RO	0	1	3.41960501671	None	None	None	None	1
1.7	2015_Jul_22_1206	s	s	11	3	SIC	482	RC	2	1	23VO	1	0	0.477511882782	-72.0	292.0	-62	291	1
1.7	2015_Jul_22_1206	s	s	11	3	SIC	483	ABS	1	2	24MD	0	1	0.564304828644	None	None	None	None	1
1.7	2015_Jul_22_1206	s	s	11	3	SIC	484	RC	0	1	23RO	1	0	1.62889504433	37.0	-330.0	40	-326	1
1.7	2015_Jul_22_1206	s	s	11	3	SIC	485	RC	1	2	23MD	1	0	0.394671916962	-248.0	44.0	-252	47	1
1.7	2015_Jul_22_1206	s	s	11	3	SIC	486	ABS	0	2	24RD	0	1	0.705582141876	None	None	None	None	1
1.7	2015_Jul_22_1206	s	s	11	3	SIC	487	RC	2	2	23VD	1	0	0.406270980835	384.0	-106.0	380	-111	1
1.7	2015_Jul_22_1206	s	s	11	3	SIC	488	RC	1	1	23MO	1	0	1.05526995659	387.0	-198.0	382	-197	1
1.7	2015_Jul_22_1206	s	s	11	3	SIC	489	RC	1	0	23MC	1	0	0.752632141113	451.0	-200.0	452	-208	1
1.7	2015_Jul_22_1206	s	s	11	3	SIC	490	ABS	2	2	24VD	0	1	0.594732999802	None	None	None	None	1
1.7	2015_Jul_22_1206	s	s	11	3	SIC	491	ABS	1	1	24MO	0	1	0.752604007721	None	None	None	None	1
1.7	2015_Jul_22_1206	s	s	11	3	SIC	492	ABS	1	0	24MC	0	1	1.9060781002	None	None	None	None	1
1.7	2015_Jul_22_1206	s	s	11	3	SIC	493	ABS	2	0	24VC	0	1	0.453513145447	None	None	None	None	1
1.7	2015_Jul_22_1206	s	s	11	3	SIC	494	RC	0	2	23RD	1	0	0.54937005043	-206.0	73.0	-211	71	1
1.7	2015_Jul_22_1206	s	s	11	3	SIC	495	RC	2	0	23VC	1	0	0.423066139221	157.0	-108.0	158	-111	1
1.7	2015_Jul_22_1206	s	s	11	3	SIC	496	ABS	2	1	24VO	0	1	0.653546094894	None	None	None	None	1
1.7	2015_Jul_22_1206	s	s	11	3	SIC	497	RC	0	2	23RD	1	0	0.576049804688	412.0	-16.0	416	-12	1
1.7	2015_Jul_22_1206	s	s	11	3	SIC	498	RC	1	1	23MO	1	0	0.564182043076	64.0	-179.0	62	-172	1
1.7	2015_Jul_22_1206	s	s	11	3	SIC	499	ABS	1	0	24MC	0	1	1.51771306992	None	None	None	None	1
1.7	2015_Jul_22_1206	s	s	11	3	SIC	500	RC	1	2	23MD	1	0	0.547559976578	360.0	403.0	364	403	1
1.7	2015_Jul_22_1206	s	s	11	3	SIC	501	ABS	0	2	24RD	0	1	0.66531419754	None	None	None	None	1
1.7	2015_Jul_22_1206	s	s	11	3	SIC	502	ABS	2	0	24VC	0	1	0.490193843842	None	None	None	None	1
1.7	2015_Jul_22_1206	s	s	11	3	SIC	503	ABS	1	1	24MO	0	1	1.47063398361	None	None	None	None	1
1.7	2015_Jul_22_1206	s	s	11	3	SIC	504	RC	1	0	23MC	0	1	1.5060069561	-490.0	-196.0	None	None	0
1.7	2015_Jul_22_1206	s	s	11	3	SIC	505	RC	2	0	23VC	1	0	0.406898021698	-538.0	-119.0	-537	-120	1
1.7	2015_Jul_22_1206	s	s	11	3	SIC	506	ABS	2	1	24VO	0	1	0.629842996597	None	None	None	None	1
1.7	2015_Jul_22_1206	s	s	11	3	SIC	507	RC	0	1	23RO	1	0	2.52994203568	-238.0	251.0	-241	259	1
1.7	2015_Jul_22_1206	s	s	11	3	SIC	508	ABS	2	2	24VD	0	1	0.677639007568	None	None	None	None	1
1.7	2015_Jul_22_1206	s	s	11	3	SIC	509	RC	2	1	23VO	1	0	0.493715047836	-446.0	37.0	-444	46	1
1.7	2015_Jul_22_1206	s	s	11	3	SIC	510	ABS	0	1	24RO	0	1	4.65555596352	None	None	None	None	1
1.7	2015_Jul_22_1206	s	s	11	3	SIC	511	RC	2	2	23VD	1	0	0.493649959564	477.0	319.0	475	324	1
1.7	2015_Jul_22_1206	s	s	11	3	SIC	512	ABS	1	2	24MD	0	1	0.638735055923	None	None	None	None	1
1.7	2015_Jul_22_1206	s	s	11	3	SIC	513	RC	1	2	23MD	1	0	0.490130901337	59.0	26.0	60	33	1
1.7	2015_Jul_22_1206	s	s	11	3	SIC	514	ABS	2	2	24VD	0	1	0.576402902603	None	None	None	None	1
1.7	2015_Jul_22_1206	s	s	11	3	SIC	515	ABS	2	1	24VO	0	1	0.513926029205	None	None	None	None	1
1.7	2015_Jul_22_1206	s	s	11	3	SIC	516	RC	0	1	23RO	1	0	4.24335408211	282.0	410.0	281	401	1
1.7	2015_Jul_22_1206	s	s	11	3	SIC	517	RC	2	0	23VC	1	0	0.462657928467	-352.0	286.0	-355	285	1
1.7	2015_Jul_22_1206	s	s	11	3	SIC	518	RC	2	1	23VO	1	0	0.441634893417	54.0	252.0	62	254	1
1.7	2015_Jul_22_1206	s	s	11	3	SIC	519	RC	1	0	23MC	1	0	0.787918806076	-245.0	-19.0	-247	-15	1
1.7	2015_Jul_22_1206	s	s	11	3	SIC	520	RC	1	1	23MO	1	0	0.752535104752	-98.0	-188.0	-94	-193	1
1.7	2015_Jul_22_1206	s	s	11	3	SIC	521	ABS	1	2	24MD	0	1	0.69384598732	None	None	None	None	1
1.7	2015_Jul_22_1206	s	s	11	3	SIC	522	ABS	1	1	24MO	0	1	0.858615875244	None	None	None	None	1
1.7	2015_Jul_22_1206	s	s	11	3	SIC	523	ABS	0	1	24RO	0	1	4.57811594009	None	None	None	None	1
1.7	2015_Jul_22_1206	s	s	11	3	SIC	524	RC	2	2	23VD	1	0	0.411195039749	212.0	-140.0	202	-131	1
1.7	2015_Jul_22_1206	s	s	11	3	SIC	525	ABS	2	0	24VC	0	1	0.556398868561	None	None	None	None	1
1.7	2015_Jul_22_1206	s	s	11	3	SIC	526	RC	0	2	23RD	1	0	0.823261022568	376.0	393.0	374	389	1
1.7	2015_Jul_22_1206	s	s	11	3	SIC	527	ABS	0	2	24RD	0	1	0.784898042679	None	None	None	None	1
1.7	2015_Jul_22_1206	s	s	11	3	SIC	528	ABS	1	0	24MC	0	1	2.63198184967	None	None	None	None	1
1.7	2015_Jul_22_1206	s	s	11	3	SIC	529	ABS	1	1	24MO	0	1	1.44711995125	None	None	None	None	1
1.7	2015_Jul_22_1206	s	s	11	3	SIC	530	ABS	2	0	24VC	0	1	0.481819152832	None	None	None	None	1
1.7	2015_Jul_22_1206	s	s	11	3	SIC	531	RC	0	1	23RO	1	0	1.54133605957	13.0	-132.0	24	-127	1
1.7	2015_Jul_22_1206	s	s	11	3	SIC	532	RC	1	2	23MD	1	0	0.455940961838	357.0	-187.0	358	-184	1
1.7	2015_Jul_22_1206	s	s	11	3	SIC	533	RC	0	2	23RD	1	0	0.587806940079	414.0	-377.0	411	-387	1
1.7	2015_Jul_22_1206	s	s	11	3	SIC	534	RC	2	2	23VD	1	0	0.500517129898	256.0	269.0	254	270	1
1.7	2015_Jul_22_1206	s	s	11	3	SIC	535	RC	2	0	23VC	1	0	0.453315973282	217.0	373.0	215	369	1
1.7	2015_Jul_22_1206	s	s	11	3	SIC	536	RC	1	1	23MO	1	0	0.406452178955	161.0	390.0	160	393	1
1.7	2015_Jul_22_1206	s	s	11	3	SIC	537	ABS	1	0	24MC	0	1	1.48926401138	None	None	None	None	1
1.7	2015_Jul_22_1206	s	s	11	3	SIC	538	RC	1	0	23MC	1	0	1.24202013016	393.0	94.0	399	91	1
1.7	2015_Jul_22_1206	s	s	11	3	SIC	539	ABS	2	2	24VD	0	1	0.547666072845	None	None	None	None	1
1.7	2015_Jul_22_1206	s	s	11	3	SIC	540	ABS	0	1	24RO	0	1	3.55408191681	None	None	None	None	1
1.7	2015_Jul_22_1206	s	s	11	3	SIC	541	ABS	0	2	24RD	0	1	1.04198694229	None	None	None	None	1
1.7	2015_Jul_22_1206	s	s	11	3	SIC	542	ABS	2	1	24VO	0	1	0.50049996376	None	None	None	None	1
1.7	2015_Jul_22_1206	s	s	11	3	SIC	543	ABS	1	2	24MD	0	1	1.3058950901	None	None	None	None	1
1.7	2015_Jul_22_1206	s	s	11	3	SIC	544	RC	2	1	23VO	1	0	0.493716001511	250.0	90.0	247	90	1
1.7	2015_Jul_22_1206	s	s	11	3	SIC	545	ABS	2	1	24VO	0	1	0.587853908539	None	None	None	None	1
1.7	2015_Jul_22_1206	s	s	11	3	SIC	546	RC	0	2	23RD	1	0	0.522908210754	123.0	355.0	124	353	1
1.7	2015_Jul_22_1206	s	s	11	3	SIC	547	RC	2	0	23VC	1	0	0.818173885345	485.0	-383.0	488	-388	1
1.7	2015_Jul_22_1206	s	s	11	3	SIC	548	ABS	2	2	24VD	0	1	1.53622508049	None	None	None	None	1
1.7	2015_Jul_22_1206	s	s	11	3	SIC	549	ABS	0	1	24RO	0	1	4.3983900547	None	None	None	None	1
1.7	2015_Jul_22_1206	s	s	11	3	SIC	550	ABS	1	1	24MO	0	1	0.968319892883	None	None	None	None	1
1.7	2015_Jul_22_1206	s	s	11	3	SIC	551	RC	1	0	23MC	1	0	1.15054678917	-149.0	203.0	-146	210	1
1.7	2015_Jul_22_1206	s	s	11	3	SIC	552	RC	1	2	23MD	0	1	0.446509838104	173.0	-99.0	None	None	0
1.7	2015_Jul_22_1206	s	s	11	3	SIC	553	ABS	2	0	24VC	0	1	0.582600831985	None	None	None	None	1
1.7	2015_Jul_22_1206	s	s	11	3	SIC	554	RC	1	1	23MO	1	0	0.795724153519	-319.0	-192.0	-326	-187	1
1.7	2015_Jul_22_1206	s	s	11	3	SIC	555	RC	2	2	23VD	1	0	0.538445234299	-93.0	322.0	-92	320	1
1.7	2015_Jul_22_1206	s	s	11	3	SIC	556	RC	2	1	23VO	1	0	2.16896009445	492.0	-243.0	492	-241	1
1.7	2015_Jul_22_1206	s	s	11	3	SIC	557	ABS	0	2	24RD	0	1	0.988054037094	None	None	None	None	1
1.7	2015_Jul_22_1206	s	s	11	3	SIC	558	RC	0	1	23RO	1	0	3.6835360527	-342.0	281.0	-346	286	1
1.7	2015_Jul_22_1206	s	s	11	3	SIC	559	ABS	1	0	24MC	0	1	1.51231002808	None	None	None	None	1
1.7	2015_Jul_22_1206	s	s	11	3	SIC	560	ABS	1	2	24MD	0	1	0.889098167419	None	None	None	None	1
1.7	2015_Jul_22_1206	s	s	11	3	SIC	561	RC	2	2	23VD	1	0	0.489096879959	-240.0	-110.0	-235	-119	1
1.7	2015_Jul_22_1206	s	s	11	3	SIC	562	ABS	2	0	24VC	0	1	0.582890033722	None	None	None	None	1
1.7	2015_Jul_22_1206	s	s	11	3	SIC	563	RC	1	1	23MO	1	0	0.877296924591	-253.0	-311.0	-247	-311	1
1.7	2015_Jul_22_1206	s	s	11	3	SIC	564	RC	0	2	23RD	1	0	0.451950788498	103.0	-88.0	109	-81	1
1.7	2015_Jul_22_1206	s	s	11	3	SIC	565	ABS	2	2	24VD	0	1	0.56432890892	None	None	None	None	1
1.7	2015_Jul_22_1206	s	s	11	3	SIC	566	RC	0	1	23RO	1	0	3.43633794785	394.0	-116.0	392	-117	1
1.7	2015_Jul_22_1206	s	s	11	3	SIC	567	RC	1	0	23MC	1	0	0.964454174042	-235.0	-257.0	-243	-262	1
1.7	2015_Jul_22_1206	s	s	11	3	SIC	568	RC	2	0	23VC	1	0	0.50052690506	93.0	246.0	101	254	1
1.7	2015_Jul_22_1206	s	s	11	3	SIC	569	ABS	0	2	24RD	0	1	2.82064294815	None	None	None	None	1
1.7	2015_Jul_22_1206	s	s	11	3	SIC	570	ABS	2	1	24VO	0	1	0.606485128403	None	None	None	None	1
1.7	2015_Jul_22_1206	s	s	11	3	SIC	571	ABS	1	2	24MD	0	1	0.599572896957	None	None	None	None	1
1.7	2015_Jul_22_1206	s	s	11	3	SIC	572	RC	2	1	23VO	1	0	0.608137130737	406.0	-91.0	403	-94	1
1.7	2015_Jul_22_1206	s	s	11	3	SIC	573	RC	1	2	23MD	1	0	0.509241104126	456.0	73.0	456	73	1
1.7	2015_Jul_22_1206	s	s	11	3	SIC	574	ABS	1	1	24MO	0	1	1.54793787003	None	None	None	None	1
1.7	2015_Jul_22_1206	s	s	11	3	SIC	575	ABS	1	0	24MC	0	1	2.97206282616	None	None	None	None	1
1.7	2015_Jul_22_1206	s	s	11	3	SIC	576	ABS	0	1	24RO	0	1	4.78485107422	None	None	None	None	1
1.7	2015_Jul_22_1206	s	s	11	3	SIC	577	RC	0	2	23RD	1	0	0.634929895401	-172.0	359.0	-161	366	1
1.7	2015_Jul_22_1206	s	s	11	3	SIC	578	ABS	1	0	24MC	0	1	1.27743887901	None	None	None	None	1
1.7	2015_Jul_22_1206	s	s	11	3	SIC	579	ABS	0	1	24RO	0	1	2.72558307648	None	None	None	None	1
1.7	2015_Jul_22_1206	s	s	11	3	SIC	580	ABS	2	0	24VC	0	1	0.54713177681	None	None	None	None	1
1.7	2015_Jul_22_1206	s	s	11	3	SIC	581	RC	0	1	23RO	1	0	1.83234000206	354.0	7.0	356	0	1
1.7	2015_Jul_22_1206	s	s	11	3	SIC	582	RC	2	2	23VD	1	0	0.441742181778	383.0	-213.0	391	-218	1
1.7	2015_Jul_22_1206	s	s	11	3	SIC	583	ABS	0	2	24RD	0	1	0.688839912415	None	None	None	None	1
1.7	2015_Jul_22_1206	s	s	11	3	SIC	584	RC	1	0	23MC	0	1	0.714190006256	-166.0	-330.0	None	None	0
1.7	2015_Jul_22_1206	s	s	11	3	SIC	585	ABS	1	1	24MO	0	1	0.799789905548	None	None	None	None	1
1.7	2015_Jul_22_1206	s	s	11	3	SIC	586	RC	1	1	23MO	1	0	3.10363698006	398.0	181.0	388	182	1
1.7	2015_Jul_22_1206	s	s	11	3	SIC	587	RC	1	2	23MD	1	0	0.517452001572	-354.0	-26.0	-354	-26	1
1.7	2015_Jul_22_1206	s	s	11	3	SIC	588	RC	2	0	23VC	1	0	0.587838888168	-435.0	-342.0	-431	-346	1
1.7	2015_Jul_22_1206	s	s	11	3	SIC	589	RC	2	1	23VO	1	0	0.478081941605	-231.0	377.0	-232	376	1
1.7	2015_Jul_22_1206	s	s	11	3	SIC	590	ABS	2	2	24VD	0	1	0.582883119583	None	None	None	None	1
1.7	2015_Jul_22_1206	s	s	11	3	SIC	591	ABS	1	2	24MD	0	1	0.736143827438	None	None	None	None	1
1.7	2015_Jul_22_1206	s	s	11	3	SIC	592	ABS	2	1	24VO	0	1	0.501266002655	None	None	None	None	1
