Version	Date	Stimuli	Method	Subject	Session	Condition	Trial	Target	Channel1	Channel2	Distractors	LMouseButton	RMouseButton	RT	TargetX	TargetY	ResponseX	ResponseY	Correct
1.7	2015_Jul_21_1200	s	s	11	2	Capacity	1	RC	0	1	23RO	0	1	2.44195389748	-312.0	278.0	None	None	0
1.7	2015_Jul_21_1200	s	s	11	2	Capacity	2	RC	0	2	23RD	1	0	0.91264295578	-208.0	224.0	-207	229	1
1.7	2015_Jul_21_1200	s	s	11	2	Capacity	3	ABS	0	1	24RO	0	1	5.57858300209	None	None	None	None	1
1.7	2015_Jul_21_1200	s	s	11	2	Capacity	4	ABS	0	2	24RD	0	1	1.04706406593	None	None	None	None	1
1.7	2015_Jul_21_1200	s	s	11	2	Capacity	5	RC	0	2	23RD	1	0	0.865515947342	-88.0	-235.0	-92	-237	1
1.7	2015_Jul_21_1200	s	s	11	2	Capacity	6	ABS	0	1	24RO	0	1	2.58891415596	None	None	None	None	1
1.7	2015_Jul_21_1200	s	s	11	2	Capacity	7	ABS	0	2	24RD	0	1	1.3716981411	None	None	None	None	1
1.7	2015_Jul_21_1200	s	s	11	2	Capacity	8	RC	0	1	23RO	0	1	4.20143985748	-435.0	226.0	None	None	0
1.7	2015_Jul_21_1200	s	s	11	2	Capacity	9	RC	0	1	23RO	1	0	1.28238201141	255.0	-154.0	254	-152	1
1.7	2015_Jul_21_1200	s	s	11	2	Capacity	10	ABS	0	1	24RO	0	1	1.86588978767	None	None	None	None	1
1.7	2015_Jul_21_1200	s	s	11	2	Capacity	11	RC	0	2	23RD	1	0	0.7712059021	124.0	-282.0	130	-281	1
1.7	2015_Jul_21_1200	s	s	11	2	Capacity	12	ABS	0	2	24RD	0	1	1.5855820179	None	None	None	None	1
1.7	2015_Jul_21_1200	s	s	11	2	Capacity	13	RC	0	1	23RO	1	0	2.03313922882	-240.0	349.0	-227	352	1
1.7	2015_Jul_21_1200	s	s	11	2	Capacity	14	RC	0	2	23RD	1	0	0.729137897491	-242.0	-208.0	-239	-207	1
1.7	2015_Jul_21_1200	s	s	11	2	Capacity	15	ABS	0	1	24RO	0	1	3.04787707329	None	None	None	None	1
1.7	2015_Jul_21_1200	s	s	11	2	Capacity	16	ABS	0	2	24RD	0	1	0.842138767242	None	None	None	None	1
1.7	2015_Jul_21_1200	s	s	11	2	Capacity	17	ABS	0	2	24RD	0	1	1.29456591606	None	None	None	None	1
1.7	2015_Jul_21_1200	s	s	11	2	Capacity	18	RC	0	1	23RO	1	0	1.47490692139	-404.0	-353.0	-399	-352	1
1.7	2015_Jul_21_1200	s	s	11	2	Capacity	19	RC	0	2	23RD	1	0	0.717351913452	-274.0	-311.0	-279	-311	1
1.7	2015_Jul_21_1200	s	s	11	2	Capacity	20	ABS	0	1	24RO	0	1	2.84400391579	None	None	None	None	1
1.7	2015_Jul_21_1200	s	s	11	2	Capacity	21	ABS	0	2	24RD	0	1	1.23519897461	None	None	None	None	1
1.7	2015_Jul_21_1200	s	s	11	2	Capacity	22	ABS	0	1	24RO	0	1	3.64324688911	None	None	None	None	1
1.7	2015_Jul_21_1200	s	s	11	2	Capacity	23	RC	0	2	23RD	1	0	0.528965950012	-91.0	-128.0	-86	-132	1
1.7	2015_Jul_21_1200	s	s	11	2	Capacity	24	RC	0	1	23RO	1	0	2.32509803772	-340.0	103.0	-347	108	1
1.7	2015_Jul_21_1200	s	s	11	2	Capacity	25	RC	0	2	23RD	1	0	0.854696035385	-2.0	384.0	-3	388	1
1.7	2015_Jul_21_1200	s	s	11	2	Capacity	26	ABS	0	1	24RO	0	1	3.12794613838	None	None	None	None	1
1.7	2015_Jul_21_1200	s	s	11	2	Capacity	27	ABS	0	2	24RD	0	1	2.40059399605	None	None	None	None	1
1.7	2015_Jul_21_1200	s	s	11	2	Capacity	28	RC	0	1	23RO	1	0	4.55461502075	398.0	-86.0	408	-82	1
1.7	2015_Jul_21_1200	s	s	11	2	Capacity	29	RC	0	2	23RD	1	0	0.529033184052	141.0	58.0	136	65	1
1.7	2015_Jul_21_1200	s	s	11	2	Capacity	30	RC	0	1	23RO	1	0	3.14890384674	-470.0	-297.0	-478	-294	1
1.7	2015_Jul_21_1200	s	s	11	2	Capacity	31	ABS	0	2	24RD	0	1	10.3103280067	None	None	None	None	1
1.7	2015_Jul_21_1200	s	s	11	2	Capacity	32	ABS	0	1	24RO	0	1	4.47824597359	None	None	None	None	1
1.7	2015_Jul_21_1200	s	s	11	2	Capacity	33	ABS	0	2	24RD	0	1	0.835125923157	None	None	None	None	1
1.7	2015_Jul_21_1200	s	s	11	2	Capacity	34	RC	0	1	23RO	1	0	1.60916590691	-288.0	372.0	-281	378	1
1.7	2015_Jul_21_1200	s	s	11	2	Capacity	35	ABS	0	1	24RO	0	1	4.1602909565	None	None	None	None	1
1.7	2015_Jul_21_1200	s	s	11	2	Capacity	36	RC	0	2	23RD	1	0	0.564414024353	-243.0	-46.0	-237	-55	1
1.7	2015_Jul_21_1200	s	s	11	2	Capacity	37	RC	0	1	23RO	1	0	3.05506896973	-352.0	204.0	-344	209	1
1.7	2015_Jul_21_1200	s	s	11	2	Capacity	38	ABS	0	1	24RO	0	1	3.6550321579	None	None	None	None	1
1.7	2015_Jul_21_1200	s	s	11	2	Capacity	39	RC	0	2	23RD	1	0	0.653220891953	300.0	130.0	306	128	1
1.7	2015_Jul_21_1200	s	s	11	2	Capacity	40	ABS	0	2	24RD	0	1	0.925717115402	None	None	None	None	1
1.7	2015_Jul_21_1200	s	s	11	2	Capacity	41	ABS	0	1	24RO	0	1	3.1388168335	None	None	None	None	1
1.7	2015_Jul_21_1200	s	s	11	2	Capacity	42	RC	0	2	23RD	1	0	0.552623987198	-180.0	306.0	-172	309	1
1.7	2015_Jul_21_1200	s	s	11	2	Capacity	43	ABS	0	2	24RD	0	1	1.50154209137	None	None	None	None	1
1.7	2015_Jul_21_1200	s	s	11	2	Capacity	44	RC	0	1	23RO	1	0	1.54964208603	243.0	-398.0	253	-392	1
1.7	2015_Jul_21_1200	s	s	11	2	Capacity	45	RC	0	1	23RO	1	0	3.02450704575	176.0	-75.0	170	-78	1
1.7	2015_Jul_21_1200	s	s	11	2	Capacity	46	RC	0	2	23RD	1	0	0.658560991287	-22.0	-289.0	-28	-293	1
1.7	2015_Jul_21_1200	s	s	11	2	Capacity	47	ABS	0	2	24RD	0	1	0.877473115921	None	None	None	None	1
1.7	2015_Jul_21_1200	s	s	11	2	Capacity	48	ABS	0	1	24RO	0	1	3.25981092453	None	None	None	None	1
1.7	2015_Jul_21_1200	s	s	11	2	Capacity	49	ABS	0	1	24RO	0	1	5.20965003967	None	None	None	None	1
1.7	2015_Jul_21_1200	s	s	11	2	Capacity	50	RC	0	1	23RO	1	0	1.17195796967	305.0	411.0	300	417	1
1.7	2015_Jul_21_1200	s	s	11	2	Capacity	51	RC	0	2	23RD	1	0	0.646731138229	32.0	167.0	37	164	1
1.7	2015_Jul_21_1200	s	s	11	2	Capacity	52	ABS	0	2	24RD	0	1	1.09406304359	None	None	None	None	1
1.7	2015_Jul_21_1200	s	s	11	2	Capacity	53	RC	0	2	23RD	1	0	0.66525387764	-191.0	-117.0	-188	-119	1
1.7	2015_Jul_21_1200	s	s	11	2	Capacity	54	ABS	0	1	24RO	0	1	5.21964907646	None	None	None	None	1
1.7	2015_Jul_21_1200	s	s	11	2	Capacity	55	ABS	0	2	24RD	0	1	0.841435194016	None	None	None	None	1
1.7	2015_Jul_21_1200	s	s	11	2	Capacity	56	RC	0	1	23RO	1	0	1.48964214325	206.0	-14.0	206	-16	1
1.7	2015_Jul_21_1200	s	s	11	2	Capacity	57	ABS	0	2	24RD	0	1	0.870401859283	None	None	None	None	1
1.7	2015_Jul_21_1200	s	s	11	2	Capacity	58	ABS	0	1	24RO	0	1	4.57303905487	None	None	None	None	1
1.7	2015_Jul_21_1200	s	s	11	2	Capacity	59	RC	0	2	23RD	1	0	0.576145887375	-205.0	221.0	-198	225	1
1.7	2015_Jul_21_1200	s	s	11	2	Capacity	60	RC	0	1	23RO	1	0	1.00683903694	-46.0	318.0	-53	313	1
1.7	2015_Jul_21_1200	s	s	11	2	Capacity	61	RC	0	1	23RO	1	0	2.10633301735	-329.0	-318.0	-332	-319	1
1.7	2015_Jul_21_1200	s	s	11	2	Capacity	62	ABS	0	2	24RD	0	1	1.01162195206	None	None	None	None	1
1.7	2015_Jul_21_1200	s	s	11	2	Capacity	63	RC	0	2	23RD	1	0	0.53607416153	244.0	-149.0	249	-149	1
1.7	2015_Jul_21_1200	s	s	11	2	Capacity	64	ABS	0	1	24RO	0	1	5.249366045	None	None	None	None	1
1.7	2015_Jul_21_1200	s	s	11	2	Capacity	65	ABS	0	2	24RD	0	1	0.799797058105	None	None	None	None	1
1.7	2015_Jul_21_1200	s	s	11	2	Capacity	66	ABS	0	1	24RO	0	1	3.76168990135	None	None	None	None	1
1.7	2015_Jul_21_1200	s	s	11	2	Capacity	67	RC	0	1	23RO	1	0	2.4947180748	278.0	-279.0	268	-278	1
1.7	2015_Jul_21_1200	s	s	11	2	Capacity	68	RC	0	2	23RD	1	0	0.646753072739	-397.0	31.0	-390	31	1
1.7	2015_Jul_21_1200	s	s	11	2	Capacity	69	RC	0	2	23RD	1	0	0.678826808929	384.0	-329.0	389	-329	1
1.7	2015_Jul_21_1200	s	s	11	2	Capacity	70	RC	0	1	23RO	0	1	3.00780105591	-87.0	94.0	None	None	0
1.7	2015_Jul_21_1200	s	s	11	2	Capacity	71	ABS	0	1	24RO	0	1	3.29294991493	None	None	None	None	1
1.7	2015_Jul_21_1200	s	s	11	2	Capacity	72	ABS	0	2	24RD	0	1	1.08914804459	None	None	None	None	1
1.7	2015_Jul_21_1200	s	s	11	2	Capacity	73	ABS	0	2	24RD	0	1	0.799784898758	None	None	None	None	1
1.7	2015_Jul_21_1200	s	s	11	2	Capacity	74	ABS	0	1	24RO	0	1	2.51329898834	None	None	None	None	1
1.7	2015_Jul_21_1200	s	s	11	2	Capacity	75	RC	0	1	23RO	1	0	2.09219193459	483.0	-99.0	474	-100	1
1.7	2015_Jul_21_1200	s	s	11	2	Capacity	76	RC	0	2	23RD	1	0	0.677045106888	509.0	-272.0	510	-272	1
1.7	2015_Jul_21_1200	s	s	11	2	Capacity	77	ABS	0	2	24RD	0	1	0.893942117691	None	None	None	None	1
1.7	2015_Jul_21_1200	s	s	11	2	Capacity	78	RC	0	2	23RD	1	0	0.729197978973	139.0	-115.0	150	-105	1
1.7	2015_Jul_21_1200	s	s	11	2	Capacity	79	RC	0	1	23RO	1	0	3.97226810455	193.0	-45.0	196	-49	1
1.7	2015_Jul_21_1200	s	s	11	2	Capacity	80	ABS	0	1	24RO	0	1	2.16521406174	None	None	None	None	1
1.7	2015_Jul_21_1200	s	s	11	2	Capacity	81	RC	0	2	23RD	1	0	0.564764976501	-478.0	-180.0	-474	-179	1
1.7	2015_Jul_21_1200	s	s	11	2	Capacity	82	RC	0	1	23RO	1	0	1.01862192154	-511.0	-217.0	-519	-213	1
1.7	2015_Jul_21_1200	s	s	11	2	Capacity	83	ABS	0	1	24RO	0	1	4.56640911102	None	None	None	None	1
1.7	2015_Jul_21_1200	s	s	11	2	Capacity	84	ABS	0	2	24RD	0	1	0.830081939697	None	None	None	None	1
1.7	2015_Jul_21_1200	s	s	11	2	Capacity	85	ABS	0	1	24RO	0	1	3.51877498627	None	None	None	None	1
1.7	2015_Jul_21_1200	s	s	11	2	Capacity	86	RC	0	1	23RO	0	1	3.21878504753	-204.0	320.0	None	None	0
1.7	2015_Jul_21_1200	s	s	11	2	Capacity	87	RC	0	2	23RD	1	0	0.618259906769	-482.0	-265.0	-487	-270	1
1.7	2015_Jul_21_1200	s	s	11	2	Capacity	88	ABS	0	2	24RD	0	1	0.948297023773	None	None	None	None	1
1.7	2015_Jul_21_1200	s	s	11	2	Capacity	89	ABS	0	2	24RD	0	1	2.71862220764	None	None	None	None	1
1.7	2015_Jul_21_1200	s	s	11	2	Capacity	90	ABS	0	1	24RO	0	1	2.43570399284	None	None	None	None	1
1.7	2015_Jul_21_1200	s	s	11	2	Capacity	91	RC	0	2	23RD	1	0	0.596842050552	179.0	-35.0	176	-43	1
1.7	2015_Jul_21_1200	s	s	11	2	Capacity	92	RC	0	1	23RO	1	0	0.870408058167	283.0	-134.0	281	-136	1
1.7	2015_Jul_21_1200	s	s	11	2	Capacity	1	RC	2	0	23VC	1	0	0.729140996933	-102.0	-294.0	-100	-302	1
1.7	2015_Jul_21_1200	s	s	11	2	Capacity	2	ABS	1	0	24MC	0	1	2.56537294388	None	None	None	None	1
1.7	2015_Jul_21_1200	s	s	11	2	Capacity	3	ABS	2	0	24VC	0	1	1.73641991615	None	None	None	None	1
1.7	2015_Jul_21_1200	s	s	11	2	Capacity	4	RC	1	0	23MC	1	0	0.88596701622	-415.0	-127.0	-417	-125	1
1.7	2015_Jul_21_1200	s	s	11	2	Capacity	5	RC	2	0	23VC	1	0	0.670222997665	47.0	-191.0	45	-189	1
1.7	2015_Jul_21_1200	s	s	11	2	Capacity	6	ABS	1	0	24MC	0	1	2.31304693222	None	None	None	None	1
1.7	2015_Jul_21_1200	s	s	11	2	Capacity	7	ABS	2	0	24VC	0	1	1.52938485146	None	None	None	None	1
1.7	2015_Jul_21_1200	s	s	11	2	Capacity	8	RC	1	0	23MC	1	0	0.877233028412	-117.0	-245.0	-116	-239	1
1.7	2015_Jul_21_1200	s	s	11	2	Capacity	9	ABS	1	0	24MC	0	1	2.85445284843	None	None	None	None	1
1.7	2015_Jul_21_1200	s	s	11	2	Capacity	10	RC	1	0	23MC	1	0	1.34112405777	439.0	-68.0	443	-64	1
1.7	2015_Jul_21_1200	s	s	11	2	Capacity	11	ABS	2	0	24VC	0	1	0.865617036819	None	None	None	None	1
1.7	2015_Jul_21_1200	s	s	11	2	Capacity	12	RC	2	0	23VC	1	0	0.559457778931	-284.0	-176.0	-277	-174	1
1.7	2015_Jul_21_1200	s	s	11	2	Capacity	13	RC	1	0	23MC	1	0	0.724014043808	233.0	-39.0	237	-45	1
1.7	2015_Jul_21_1200	s	s	11	2	Capacity	14	ABS	1	0	24MC	0	1	2.5837829113	None	None	None	None	1
1.7	2015_Jul_21_1200	s	s	11	2	Capacity	15	RC	2	0	23VC	1	0	0.418064117432	-64.0	-19.0	-69	-20	1
1.7	2015_Jul_21_1200	s	s	11	2	Capacity	16	ABS	2	0	24VC	0	1	1.32455682755	None	None	None	None	1
1.7	2015_Jul_21_1200	s	s	11	2	Capacity	17	RC	1	0	23MC	1	0	1.34123587608	435.0	-6.0	435	-8	1
1.7	2015_Jul_21_1200	s	s	11	2	Capacity	18	RC	2	0	23VC	1	0	0.571382045746	-17.0	35.0	-19	37	1
1.7	2015_Jul_21_1200	s	s	11	2	Capacity	19	ABS	2	0	24VC	0	1	1.05669498444	None	None	None	None	1
1.7	2015_Jul_21_1200	s	s	11	2	Capacity	20	ABS	1	0	24MC	0	1	1.9297440052	None	None	None	None	1
1.7	2015_Jul_21_1200	s	s	11	2	Capacity	21	RC	2	0	23VC	1	0	0.537536859512	-138.0	273.0	-133	266	1
1.7	2015_Jul_21_1200	s	s	11	2	Capacity	22	RC	1	0	23MC	1	0	0.844102859497	298.0	166.0	307	167	1
1.7	2015_Jul_21_1200	s	s	11	2	Capacity	23	ABS	1	0	24MC	0	1	1.70372891426	None	None	None	None	1
1.7	2015_Jul_21_1200	s	s	11	2	Capacity	24	ABS	2	0	24VC	0	1	0.832695007324	None	None	None	None	1
1.7	2015_Jul_21_1200	s	s	11	2	Capacity	25	RC	1	0	23MC	1	0	0.594722032547	-277.0	273.0	-281	268	1
1.7	2015_Jul_21_1200	s	s	11	2	Capacity	26	ABS	1	0	24MC	0	1	1.86562895775	None	None	None	None	1
1.7	2015_Jul_21_1200	s	s	11	2	Capacity	27	ABS	2	0	24VC	0	1	0.995144844055	None	None	None	None	1
1.7	2015_Jul_21_1200	s	s	11	2	Capacity	28	RC	2	0	23VC	1	0	0.517096042633	-433.0	-305.0	-429	-298	1
1.7	2015_Jul_21_1200	s	s	11	2	Capacity	29	RC	2	0	23VC	1	0	0.505456924438	0.0	-397.0	-8	-399	1
1.7	2015_Jul_21_1200	s	s	11	2	Capacity	30	ABS	2	0	24VC	1	0	0.552600860596	None	None	492	-403	0
1.7	2015_Jul_21_1200	s	s	11	2	Capacity	31	ABS	1	0	24MC	0	1	1.83019781113	None	None	None	None	1
1.7	2015_Jul_21_1200	s	s	11	2	Capacity	32	RC	1	0	23MC	1	0	0.699798107147	276.0	-75.0	281	-74	1
1.7	2015_Jul_21_1200	s	s	11	2	Capacity	33	RC	1	0	23MC	1	0	0.771255970001	-429.0	154.0	-426	151	1
1.7	2015_Jul_21_1200	s	s	11	2	Capacity	34	RC	2	0	23VC	1	0	0.629994153976	377.0	278.0	381	283	1
1.7	2015_Jul_21_1200	s	s	11	2	Capacity	35	ABS	1	0	24MC	0	1	3.97318696976	None	None	None	None	1
1.7	2015_Jul_21_1200	s	s	11	2	Capacity	36	ABS	2	0	24VC	0	1	1.08221197128	None	None	None	None	1
1.7	2015_Jul_21_1200	s	s	11	2	Capacity	37	ABS	2	0	24VC	0	1	2.05421805382	None	None	None	None	1
1.7	2015_Jul_21_1200	s	s	11	2	Capacity	38	RC	1	0	23MC	1	0	0.805785894394	378.0	314.0	382	315	1
1.7	2015_Jul_21_1200	s	s	11	2	Capacity	39	RC	2	0	23VC	1	0	0.676957845688	-471.0	116.0	-480	117	1
1.7	2015_Jul_21_1200	s	s	11	2	Capacity	40	ABS	1	0	24MC	0	1	1.61206197739	None	None	None	None	1
1.7	2015_Jul_21_1200	s	s	11	2	Capacity	41	RC	2	0	23VC	1	0	0.465296030045	-436.0	68.0	-443	69	1
1.7	2015_Jul_21_1200	s	s	11	2	Capacity	42	ABS	2	0	24VC	0	1	0.799781084061	None	None	None	None	1
1.7	2015_Jul_21_1200	s	s	11	2	Capacity	43	ABS	1	0	24MC	0	1	2.53000307083	None	None	None	None	1
1.7	2015_Jul_21_1200	s	s	11	2	Capacity	44	RC	1	0	23MC	1	0	0.947518110275	463.0	219.0	468	219	1
1.7	2015_Jul_21_1200	s	s	11	2	Capacity	45	RC	2	0	23VC	1	0	0.584259033203	-526.0	23.0	-530	16	1
1.7	2015_Jul_21_1200	s	s	11	2	Capacity	46	ABS	2	0	24VC	0	1	0.924653053284	None	None	None	None	1
1.7	2015_Jul_21_1200	s	s	11	2	Capacity	47	ABS	1	0	24MC	0	1	1.27440214157	None	None	None	None	1
1.7	2015_Jul_21_1200	s	s	11	2	Capacity	48	RC	1	0	23MC	1	0	0.593914985657	-489.0	69.0	-490	73	1
1.7	2015_Jul_21_1200	s	s	11	2	Capacity	49	RC	1	0	23MC	1	0	1.20689582825	67.0	-300.0	68	-297	1
1.7	2015_Jul_21_1200	s	s	11	2	Capacity	50	ABS	1	0	24MC	0	1	1.68949484825	None	None	None	None	1
1.7	2015_Jul_21_1200	s	s	11	2	Capacity	51	ABS	2	0	24VC	0	1	0.79435300827	None	None	None	None	1
1.7	2015_Jul_21_1200	s	s	11	2	Capacity	52	RC	2	0	23VC	1	0	0.538099050522	185.0	61.0	188	55	1
1.7	2015_Jul_21_1200	s	s	11	2	Capacity	53	RC	1	0	23MC	1	0	0.905697822571	374.0	-222.0	367	-229	1
1.7	2015_Jul_21_1200	s	s	11	2	Capacity	54	ABS	1	0	24MC	0	1	1.53747391701	None	None	None	None	1
1.7	2015_Jul_21_1200	s	s	11	2	Capacity	55	ABS	2	0	24VC	0	1	0.688829898834	None	None	None	None	1
1.7	2015_Jul_21_1200	s	s	11	2	Capacity	56	RC	2	0	23VC	1	0	0.571962118149	-459.0	296.0	-455	299	1
1.7	2015_Jul_21_1200	s	s	11	2	Capacity	57	RC	1	0	23MC	1	0	1.6943860054	515.0	-24.0	511	-23	1
1.7	2015_Jul_21_1200	s	s	11	2	Capacity	58	RC	2	0	23VC	1	0	0.536550998688	-190.0	224.0	-195	229	1
1.7	2015_Jul_21_1200	s	s	11	2	Capacity	59	ABS	2	0	24VC	0	1	1.00908899307	None	None	None	None	1
1.7	2015_Jul_21_1200	s	s	11	2	Capacity	60	ABS	1	0	24MC	0	1	1.25368595123	None	None	None	None	1
1.7	2015_Jul_21_1200	s	s	11	2	Capacity	61	ABS	1	0	24MC	0	1	1.08830690384	None	None	None	None	1
1.7	2015_Jul_21_1200	s	s	11	2	Capacity	62	RC	2	0	23VC	1	0	0.599690914154	-292.0	-193.0	-296	-194	1
1.7	2015_Jul_21_1200	s	s	11	2	Capacity	63	RC	1	0	23MC	1	0	1.7246389389	286.0	323.0	291	327	1
1.7	2015_Jul_21_1200	s	s	11	2	Capacity	64	ABS	2	0	24VC	0	1	1.09064006805	None	None	None	None	1
1.7	2015_Jul_21_1200	s	s	11	2	Capacity	65	RC	1	0	23MC	1	0	0.794813871384	74.0	-61.0	73	-61	1
1.7	2015_Jul_21_1200	s	s	11	2	Capacity	66	ABS	2	0	24VC	0	1	0.711874008179	None	None	None	None	1
1.7	2015_Jul_21_1200	s	s	11	2	Capacity	67	ABS	1	0	24MC	0	1	1.7617418766	None	None	None	None	1
1.7	2015_Jul_21_1200	s	s	11	2	Capacity	68	RC	2	0	23VC	1	0	0.528976917267	509.0	-163.0	518	-157	1
1.7	2015_Jul_21_1200	s	s	11	2	Capacity	69	ABS	1	0	24MC	0	1	0.823295116425	None	None	None	None	1
1.7	2015_Jul_21_1200	s	s	11	2	Capacity	70	RC	1	0	23MC	1	0	1.05362987518	105.0	74.0	113	84	1
1.7	2015_Jul_21_1200	s	s	11	2	Capacity	71	RC	2	0	23VC	1	0	0.509270906448	227.0	209.0	233	213	1
1.7	2015_Jul_21_1200	s	s	11	2	Capacity	72	ABS	2	0	24VC	0	1	0.808429002762	None	None	None	None	1
1.7	2015_Jul_21_1200	s	s	11	2	Capacity	73	ABS	2	0	24VC	0	1	0.973013877869	None	None	None	None	1
1.7	2015_Jul_21_1200	s	s	11	2	Capacity	74	ABS	1	0	24MC	0	1	3.28342199326	None	None	None	None	1
1.7	2015_Jul_21_1200	s	s	11	2	Capacity	75	RC	1	0	23MC	1	0	1.10578203201	-461.0	-180.0	-463	-181	1
1.7	2015_Jul_21_1200	s	s	11	2	Capacity	76	RC	2	0	23VC	1	0	0.488763093948	87.0	-27.0	91	-30	1
1.7	2015_Jul_21_1200	s	s	11	2	Capacity	77	ABS	2	0	24VC	0	1	0.929223775864	None	None	None	None	1
1.7	2015_Jul_21_1200	s	s	11	2	Capacity	78	ABS	1	0	24MC	0	1	1.54134893417	None	None	None	None	1
1.7	2015_Jul_21_1200	s	s	11	2	Capacity	79	RC	1	0	23MC	1	0	0.853569030762	-426.0	220.0	-420	227	1
1.7	2015_Jul_21_1200	s	s	11	2	Capacity	80	RC	2	0	23VC	1	0	0.552621126175	-162.0	-384.0	-157	-391	1
1.7	2015_Jul_21_1200	s	s	11	2	Capacity	81	ABS	2	0	24VC	0	1	0.702106952667	None	None	None	None	1
1.7	2015_Jul_21_1200	s	s	11	2	Capacity	82	ABS	1	0	24MC	0	1	1.19482898712	None	None	None	None	1
1.7	2015_Jul_21_1200	s	s	11	2	Capacity	83	RC	2	0	23VC	1	0	0.501266956329	-408.0	-305.0	-412	-318	1
1.7	2015_Jul_21_1200	s	s	11	2	Capacity	84	RC	1	0	23MC	1	0	0.747928857803	-468.0	-60.0	-458	-53	1
1.7	2015_Jul_21_1200	s	s	11	2	Capacity	85	RC	2	0	23VC	1	0	0.512807130814	189.0	2.0	184	-2	1
1.7	2015_Jul_21_1200	s	s	11	2	Capacity	86	RC	1	0	23MC	1	0	2.51501512527	137.0	166.0	134	160	1
1.7	2015_Jul_21_1200	s	s	11	2	Capacity	87	ABS	1	0	24MC	0	1	5.21374821663	None	None	None	None	1
1.7	2015_Jul_21_1200	s	s	11	2	Capacity	88	ABS	2	0	24VC	0	1	0.737737894058	None	None	None	None	1
1.7	2015_Jul_21_1200	s	s	11	2	Capacity	89	RC	2	0	23VC	1	0	0.477087974548	-203.0	7.0	-206	2	1
1.7	2015_Jul_21_1200	s	s	11	2	Capacity	90	ABS	2	0	24VC	0	1	0.799655914307	None	None	None	None	1
1.7	2015_Jul_21_1200	s	s	11	2	Capacity	91	ABS	1	0	24MC	0	1	1.43540787697	None	None	None	None	1
1.7	2015_Jul_21_1200	s	s	11	2	Capacity	92	RC	1	0	23MC	1	0	0.729126930237	-475.0	-383.0	-475	-391	1
1.7	2015_Jul_21_1200	s	s	11	2	SIC	1	RC	1	0	23MC	1	0	2.41256999969	33.0	-377.0	33	-372	1
1.7	2015_Jul_21_1200	s	s	11	2	SIC	2	RC	0	1	23RO	0	1	2.06594896317	300.0	283.0	None	None	0
1.7	2015_Jul_21_1200	s	s	11	2	SIC	3	ABS	2	2	24VD	0	1	0.571842908859	None	None	None	None	1
1.7	2015_Jul_21_1200	s	s	11	2	SIC	4	RC	2	0	23VC	1	0	0.70067691803	-340.0	374.0	-334	376	1
1.7	2015_Jul_21_1200	s	s	11	2	SIC	5	ABS	1	0	24MC	0	1	1.5833837986	None	None	None	None	1
1.7	2015_Jul_21_1200	s	s	11	2	SIC	6	RC	2	1	23VO	1	0	0.523638010025	115.0	-66.0	122	-67	1
1.7	2015_Jul_21_1200	s	s	11	2	SIC	7	RC	0	2	23RD	1	0	0.611409902573	239.0	-306.0	244	-310	1
1.7	2015_Jul_21_1200	s	s	11	2	SIC	8	ABS	1	2	24MD	0	1	0.973468065262	None	None	None	None	1
1.7	2015_Jul_21_1200	s	s	11	2	SIC	9	ABS	1	1	24MO	0	1	2.14163303375	None	None	None	None	1
1.7	2015_Jul_21_1200	s	s	11	2	SIC	10	ABS	0	1	24RO	0	1	3.31363797188	None	None	None	None	1
1.7	2015_Jul_21_1200	s	s	11	2	SIC	11	ABS	0	2	24RD	0	1	0.900753974915	None	None	None	None	1
1.7	2015_Jul_21_1200	s	s	11	2	SIC	12	RC	1	2	23MD	1	0	0.512359142303	-418.0	-95.0	-409	-86	1
1.7	2015_Jul_21_1200	s	s	11	2	SIC	13	ABS	2	0	24VC	0	1	1.33630609512	None	None	None	None	1
1.7	2015_Jul_21_1200	s	s	11	2	SIC	14	ABS	2	1	24VO	0	1	0.701417922974	None	None	None	None	1
1.7	2015_Jul_21_1200	s	s	11	2	SIC	15	RC	1	1	23MO	1	0	2.0592341423	464.0	70.0	474	78	1
1.7	2015_Jul_21_1200	s	s	11	2	SIC	16	RC	2	2	23VD	1	0	0.534902095795	161.0	-398.0	158	-397	1
1.7	2015_Jul_21_1200	s	s	11	2	SIC	17	RC	1	1	23MO	1	0	1.42110800743	-271.0	201.0	-273	196	1
1.7	2015_Jul_21_1200	s	s	11	2	SIC	18	RC	1	2	23MD	1	0	0.469965934753	68.0	-167.0	74	-170	1
1.7	2015_Jul_21_1200	s	s	11	2	SIC	19	ABS	0	2	24RD	0	1	1.88888311386	None	None	None	None	1
1.7	2015_Jul_21_1200	s	s	11	2	SIC	20	RC	1	0	23MC	1	0	0.646775007248	220.0	32.0	225	32	1
1.7	2015_Jul_21_1200	s	s	11	2	SIC	21	ABS	1	1	24MO	0	1	2.93028497696	None	None	None	None	1
1.7	2015_Jul_21_1200	s	s	11	2	SIC	22	ABS	2	1	24VO	0	1	0.512484788895	None	None	None	None	1
1.7	2015_Jul_21_1200	s	s	11	2	SIC	23	RC	0	1	23RO	0	1	2.94649815559	-469.0	-318.0	None	None	0
1.7	2015_Jul_21_1200	s	s	11	2	SIC	24	RC	2	2	23VD	1	0	0.517261981964	-252.0	-115.0	-245	-113	1
1.7	2015_Jul_21_1200	s	s	11	2	SIC	25	RC	0	2	23RD	1	0	0.44665813446	-369.0	-131.0	-366	-134	1
1.7	2015_Jul_21_1200	s	s	11	2	SIC	26	ABS	2	2	24VD	0	1	0.72919011116	None	None	None	None	1
1.7	2015_Jul_21_1200	s	s	11	2	SIC	27	RC	2	1	23VO	1	0	0.423407077789	526.0	260.0	522	260	1
1.7	2015_Jul_21_1200	s	s	11	2	SIC	28	RC	2	0	23VC	1	0	0.559391021729	470.0	359.0	480	358	1
1.7	2015_Jul_21_1200	s	s	11	2	SIC	29	ABS	2	0	24VC	0	1	1.00662708282	None	None	None	None	1
1.7	2015_Jul_21_1200	s	s	11	2	SIC	30	ABS	1	0	24MC	0	1	2.11808609962	None	None	None	None	1
1.7	2015_Jul_21_1200	s	s	11	2	SIC	31	ABS	1	2	24MD	0	1	0.700671195984	None	None	None	None	1
1.7	2015_Jul_21_1200	s	s	11	2	SIC	32	ABS	0	1	24RO	0	1	4.27203989029	None	None	None	None	1
1.7	2015_Jul_21_1200	s	s	11	2	SIC	33	RC	1	0	23MC	1	0	0.512402057648	444.0	340.0	-101	-14	0
1.7	2015_Jul_21_1200	s	s	11	2	SIC	34	ABS	0	1	24RO	0	1	4.05529808998	None	None	None	None	1
1.7	2015_Jul_21_1200	s	s	11	2	SIC	35	ABS	0	2	24RD	0	1	0.662258148193	None	None	None	None	1
1.7	2015_Jul_21_1200	s	s	11	2	SIC	36	RC	1	1	23MO	1	0	0.823271989822	-390.0	-347.0	-389	-354	1
1.7	2015_Jul_21_1200	s	s	11	2	SIC	37	RC	2	1	23VO	1	0	0.470159053802	162.0	73.0	167	77	1
1.7	2015_Jul_21_1200	s	s	11	2	SIC	38	ABS	2	2	24VD	0	1	0.689105987549	None	None	None	None	1
1.7	2015_Jul_21_1200	s	s	11	2	SIC	39	RC	1	2	23MD	1	0	0.752705097198	354.0	-280.0	349	-277	1
1.7	2015_Jul_21_1200	s	s	11	2	SIC	40	ABS	1	0	24MC	0	1	3.31869697571	None	None	None	None	1
1.7	2015_Jul_21_1200	s	s	11	2	SIC	41	ABS	2	0	24VC	0	1	0.921288013458	None	None	None	None	1
1.7	2015_Jul_21_1200	s	s	11	2	SIC	42	RC	2	2	23VD	1	0	0.587874174118	300.0	71.0	296	67	1
1.7	2015_Jul_21_1200	s	s	11	2	SIC	43	RC	0	1	23RO	1	0	1.21897506714	450.0	213.0	449	213	1
1.7	2015_Jul_21_1200	s	s	11	2	SIC	44	RC	2	0	23VC	1	0	0.50551199913	51.0	-296.0	49	-301	1
1.7	2015_Jul_21_1200	s	s	11	2	SIC	45	ABS	1	1	24MO	0	1	0.994964122772	None	None	None	None	1
1.7	2015_Jul_21_1200	s	s	11	2	SIC	46	ABS	1	2	24MD	0	1	0.867784023285	None	None	None	None	1
1.7	2015_Jul_21_1200	s	s	11	2	SIC	47	RC	0	2	23RD	1	0	1.11266684532	473.0	338.0	465	334	1
1.7	2015_Jul_21_1200	s	s	11	2	SIC	48	ABS	2	1	24VO	0	1	1.5833799839	None	None	None	None	1
1.7	2015_Jul_21_1200	s	s	11	2	SIC	49	ABS	1	2	24MD	0	1	0.729027032852	None	None	None	None	1
1.7	2015_Jul_21_1200	s	s	11	2	SIC	50	RC	2	1	23VO	1	0	0.658558130264	-459.0	-393.0	-463	-395	1
1.7	2015_Jul_21_1200	s	s	11	2	SIC	51	RC	2	0	23VC	1	0	0.497527122498	275.0	56.0	279	63	1
1.7	2015_Jul_21_1200	s	s	11	2	SIC	52	ABS	1	1	24MO	0	1	1.10099482536	None	None	None	None	1
1.7	2015_Jul_21_1200	s	s	11	2	SIC	53	RC	0	1	23RO	1	0	3.43639802933	427.0	68.0	437	73	1
1.7	2015_Jul_21_1200	s	s	11	2	SIC	54	ABS	0	1	24RO	0	1	4.60822606087	None	None	None	None	1
1.7	2015_Jul_21_1200	s	s	11	2	SIC	55	ABS	2	1	24VO	0	1	0.787983894348	None	None	None	None	1
1.7	2015_Jul_21_1200	s	s	11	2	SIC	56	RC	1	1	23MO	1	0	1.83045005798	84.0	-256.0	78	-264	1
1.7	2015_Jul_21_1200	s	s	11	2	SIC	57	RC	1	2	23MD	1	0	0.640510797501	-314.0	-192.0	-313	-194	1
1.7	2015_Jul_21_1200	s	s	11	2	SIC	58	ABS	0	2	24RD	0	1	1.33863306046	None	None	None	None	1
1.7	2015_Jul_21_1200	s	s	11	2	SIC	59	RC	1	0	23MC	1	0	0.7645008564	82.0	-45.0	85	-47	1
1.7	2015_Jul_21_1200	s	s	11	2	SIC	60	RC	0	2	23RD	1	0	0.776200056076	384.0	139.0	382	130	1
1.7	2015_Jul_21_1200	s	s	11	2	SIC	61	ABS	1	0	24MC	0	1	1.19997215271	None	None	None	None	1
1.7	2015_Jul_21_1200	s	s	11	2	SIC	62	ABS	2	2	24VD	0	1	0.900844097137	None	None	None	None	1
1.7	2015_Jul_21_1200	s	s	11	2	SIC	63	RC	2	2	23VD	1	0	0.441799879074	37.0	217.0	45	211	1
1.7	2015_Jul_21_1200	s	s	11	2	SIC	64	ABS	2	0	24VC	0	1	0.947639942169	None	None	None	None	1
1.7	2015_Jul_21_1200	s	s	11	2	SIC	65	ABS	0	1	24RO	0	1	4.01314306259	None	None	None	None	1
1.7	2015_Jul_21_1200	s	s	11	2	SIC	66	RC	2	2	23VD	1	0	0.611449956894	537.0	240.0	539	227	1
1.7	2015_Jul_21_1200	s	s	11	2	SIC	67	ABS	1	1	24MO	0	1	2.31331992149	None	None	None	None	1
1.7	2015_Jul_21_1200	s	s	11	2	SIC	68	RC	2	1	23VO	1	0	0.488948106766	-484.0	-253.0	-478	-260	1
1.7	2015_Jul_21_1200	s	s	11	2	SIC	69	ABS	1	2	24MD	0	1	2.95390319824	None	None	None	None	1
1.7	2015_Jul_21_1200	s	s	11	2	SIC	70	ABS	1	0	24MC	1	0	0.729118108749	None	None	479	355	0
1.7	2015_Jul_21_1200	s	s	11	2	SIC	71	ABS	2	1	24VO	0	1	1.10075497627	None	None	None	None	1
1.7	2015_Jul_21_1200	s	s	11	2	SIC	72	RC	0	1	23RO	1	0	2.30640721321	-137.0	351.0	-129	349	1
1.7	2015_Jul_21_1200	s	s	11	2	SIC	73	ABS	2	2	24VD	0	1	0.70100402832	None	None	None	None	1
1.7	2015_Jul_21_1200	s	s	11	2	SIC	74	RC	1	1	23MO	0	1	0.846854925156	275.0	78.0	None	None	0
1.7	2015_Jul_21_1200	s	s	11	2	SIC	75	RC	0	2	23RD	1	0	0.866505146027	292.0	-399.0	295	-395	1
1.7	2015_Jul_21_1200	s	s	11	2	SIC	76	RC	2	0	23VC	1	0	0.51729798317	-416.0	377.0	-417	374	1
1.7	2015_Jul_21_1200	s	s	11	2	SIC	77	RC	1	2	23MD	1	0	0.63011598587	528.0	392.0	534	394	1
1.7	2015_Jul_21_1200	s	s	11	2	SIC	78	RC	1	0	23MC	1	0	1.89442586899	308.0	-2.0	308	-8	1
1.7	2015_Jul_21_1200	s	s	11	2	SIC	79	ABS	2	0	24VC	0	1	0.841742038727	None	None	None	None	1
1.7	2015_Jul_21_1200	s	s	11	2	SIC	80	ABS	0	2	24RD	0	1	0.65852689743	None	None	None	None	1
1.7	2015_Jul_21_1200	s	s	11	2	SIC	81	RC	1	0	23MC	1	0	5.46093702316	-4.0	-114.0	-8	-127	1
1.7	2015_Jul_21_1200	s	s	11	2	SIC	82	RC	1	2	23MD	1	0	0.547690868378	230.0	-152.0	235	-162	1
1.7	2015_Jul_21_1200	s	s	11	2	SIC	83	RC	1	1	23MO	1	0	0.618218183517	-109.0	20.0	-112	22	1
1.7	2015_Jul_21_1200	s	s	11	2	SIC	84	ABS	0	2	24RD	0	1	0.941022872925	None	None	None	None	1
1.7	2015_Jul_21_1200	s	s	11	2	SIC	85	RC	0	1	23RO	1	0	1.05868697166	205.0	-244.0	208	-248	1
1.7	2015_Jul_21_1200	s	s	11	2	SIC	86	ABS	1	1	24MO	0	1	1.95321989059	None	None	None	None	1
1.7	2015_Jul_21_1200	s	s	11	2	SIC	87	RC	2	2	23VD	1	0	0.540870904922	-184.0	-331.0	-172	-328	1
1.7	2015_Jul_21_1200	s	s	11	2	SIC	88	ABS	2	0	24VC	0	1	0.654872179031	None	None	None	None	1
1.7	2015_Jul_21_1200	s	s	11	2	SIC	89	RC	2	1	23VO	1	0	0.581617116928	482.0	27.0	477	26	1
1.7	2015_Jul_21_1200	s	s	11	2	SIC	90	ABS	0	1	24RO	0	1	5.53824090958	None	None	None	None	1
1.7	2015_Jul_21_1200	s	s	11	2	SIC	91	ABS	2	1	24VO	0	1	0.620872020721	None	None	None	None	1
1.7	2015_Jul_21_1200	s	s	11	2	SIC	92	ABS	2	2	24VD	0	1	0.38777589798	None	None	None	None	1
1.7	2015_Jul_21_1200	s	s	11	2	SIC	93	ABS	1	2	24MD	0	1	0.658540964127	None	None	None	None	1
1.7	2015_Jul_21_1200	s	s	11	2	SIC	94	RC	2	0	23VC	1	0	0.546737909317	233.0	236.0	240	243	1
1.7	2015_Jul_21_1200	s	s	11	2	SIC	95	RC	0	2	23RD	0	1	0.603382825851	-530.0	-82.0	None	None	0
1.7	2015_Jul_21_1200	s	s	11	2	SIC	96	ABS	1	0	24MC	0	1	1.4541618824	None	None	None	None	1
1.7	2015_Jul_21_1200	s	s	11	2	SIC	97	RC	1	1	23MO	1	0	0.893948078156	-58.0	-266.0	-59	-273	1
1.7	2015_Jul_21_1200	s	s	11	2	SIC	98	ABS	2	1	24VO	0	1	1.06689286232	None	None	None	None	1
1.7	2015_Jul_21_1200	s	s	11	2	SIC	99	ABS	0	1	24RO	0	1	4.63196396828	None	None	None	None	1
1.7	2015_Jul_21_1200	s	s	11	2	SIC	100	RC	1	0	23MC	1	0	5.26783514023	29.0	-288.0	37	-289	1
1.7	2015_Jul_21_1200	s	s	11	2	SIC	101	RC	1	2	23MD	1	0	0.587887048721	510.0	-255.0	517	-255	1
1.7	2015_Jul_21_1200	s	s	11	2	SIC	102	ABS	1	1	24MO	0	1	1.9650490284	None	None	None	None	1
1.7	2015_Jul_21_1200	s	s	11	2	SIC	103	RC	0	2	23RD	1	0	0.576119184494	537.0	-204.0	541	-205	1
1.7	2015_Jul_21_1200	s	s	11	2	SIC	104	ABS	1	0	24MC	0	1	2.59267187119	None	None	None	None	1
1.7	2015_Jul_21_1200	s	s	11	2	SIC	105	RC	2	1	23VO	1	0	0.481934785843	474.0	210.0	473	206	1
1.7	2015_Jul_21_1200	s	s	11	2	SIC	106	ABS	1	2	24MD	0	1	0.717337846756	None	None	None	None	1
1.7	2015_Jul_21_1200	s	s	11	2	SIC	107	ABS	0	2	24RD	0	1	0.540859937668	None	None	None	None	1
1.7	2015_Jul_21_1200	s	s	11	2	SIC	108	RC	2	2	23VD	1	0	0.493705034256	-438.0	10.0	-439	17	1
1.7	2015_Jul_21_1200	s	s	11	2	SIC	109	RC	0	1	23RO	0	1	3.21021389961	483.0	-395.0	None	None	0
1.7	2015_Jul_21_1200	s	s	11	2	SIC	110	ABS	2	0	24VC	0	1	0.764467000961	None	None	None	None	1
1.7	2015_Jul_21_1200	s	s	11	2	SIC	111	RC	2	0	23VC	1	0	0.489680051804	-472.0	-220.0	-473	-219	1
1.7	2015_Jul_21_1200	s	s	11	2	SIC	112	ABS	2	2	24VD	0	1	0.787981033325	None	None	None	None	1
1.7	2015_Jul_21_1200	s	s	11	2	SIC	113	RC	1	0	23MC	1	0	0.856188058853	-251.0	340.0	-256	345	1
1.7	2015_Jul_21_1200	s	s	11	2	SIC	114	RC	1	1	23MO	1	0	3.01942586899	479.0	407.0	479	395	1
1.7	2015_Jul_21_1200	s	s	11	2	SIC	115	ABS	0	2	24RD	0	1	0.75267791748	None	None	None	None	1
1.7	2015_Jul_21_1200	s	s	11	2	SIC	116	ABS	0	1	24RO	0	1	2.51339387894	None	None	None	None	1
1.7	2015_Jul_21_1200	s	s	11	2	SIC	117	RC	1	2	23MD	1	0	0.49747300148	35.0	-6.0	37	-11	1
1.7	2015_Jul_21_1200	s	s	11	2	SIC	118	ABS	2	0	24VC	0	1	0.500719070435	None	None	None	None	1
1.7	2015_Jul_21_1200	s	s	11	2	SIC	119	ABS	2	1	24VO	0	1	0.820701122284	None	None	None	None	1
1.7	2015_Jul_21_1200	s	s	11	2	SIC	120	RC	2	1	23VO	1	0	0.535835027695	-258.0	365.0	-266	374	1
1.7	2015_Jul_21_1200	s	s	11	2	SIC	121	RC	2	0	23VC	1	0	0.552493095398	-281.0	316.0	-279	312	1
1.7	2015_Jul_21_1200	s	s	11	2	SIC	122	ABS	2	2	24VD	0	1	0.705615997314	None	None	None	None	1
1.7	2015_Jul_21_1200	s	s	11	2	SIC	123	RC	0	1	23RO	0	1	2.07796597481	297.0	-110.0	None	None	0
1.7	2015_Jul_21_1200	s	s	11	2	SIC	124	ABS	1	1	24MO	0	1	3.02133989334	None	None	None	None	1
1.7	2015_Jul_21_1200	s	s	11	2	SIC	125	ABS	1	0	24MC	0	1	5.33812689781	None	None	None	None	1
1.7	2015_Jul_21_1200	s	s	11	2	SIC	126	RC	0	2	23RD	1	0	0.603410005569	360.0	254.0	367	253	1
1.7	2015_Jul_21_1200	s	s	11	2	SIC	127	ABS	1	2	24MD	0	1	0.700829029083	None	None	None	None	1
1.7	2015_Jul_21_1200	s	s	11	2	SIC	128	RC	2	2	23VD	1	0	0.582138061523	-273.0	326.0	-272	322	1
1.7	2015_Jul_21_1200	s	s	11	2	SIC	129	RC	2	1	23VO	1	0	0.776149988174	-181.0	295.0	-173	293	1
1.7	2015_Jul_21_1200	s	s	11	2	SIC	130	ABS	2	1	24VO	0	1	0.603433132172	None	None	None	None	1
1.7	2015_Jul_21_1200	s	s	11	2	SIC	131	RC	0	2	23RD	1	0	0.458383083344	-288.0	-16.0	-283	-9	1
1.7	2015_Jul_21_1200	s	s	11	2	SIC	132	ABS	1	1	24MO	0	1	1.55306506157	None	None	None	None	1
1.7	2015_Jul_21_1200	s	s	11	2	SIC	133	ABS	0	1	24RO	0	1	5.44915413857	None	None	None	None	1
1.7	2015_Jul_21_1200	s	s	11	2	SIC	134	ABS	1	2	24MD	0	1	0.599678993225	None	None	None	None	1
1.7	2015_Jul_21_1200	s	s	11	2	SIC	135	ABS	2	2	24VD	0	1	0.721133947372	None	None	None	None	1
1.7	2015_Jul_21_1200	s	s	11	2	SIC	136	ABS	0	2	24RD	0	1	0.571145057678	None	None	None	None	1
1.7	2015_Jul_21_1200	s	s	11	2	SIC	137	ABS	1	0	24MC	0	1	2.21907615662	None	None	None	None	1
1.7	2015_Jul_21_1200	s	s	11	2	SIC	138	RC	1	0	23MC	0	1	1.98860502243	-379.0	83.0	None	None	0
1.7	2015_Jul_21_1200	s	s	11	2	SIC	139	RC	1	2	23MD	1	0	0.505556106567	516.0	390.0	509	390	1
1.7	2015_Jul_21_1200	s	s	11	2	SIC	140	ABS	2	0	24VC	0	1	0.682022094727	None	None	None	None	1
1.7	2015_Jul_21_1200	s	s	11	2	SIC	141	RC	1	1	23MO	1	0	3.0689330101	273.0	-260.0	278	-262	1
1.7	2015_Jul_21_1200	s	s	11	2	SIC	142	RC	2	0	23VC	1	0	0.524054050446	-164.0	37.0	-159	41	1
1.7	2015_Jul_21_1200	s	s	11	2	SIC	143	RC	2	2	23VD	1	0	0.45511007309	274.0	70.0	281	74	1
1.7	2015_Jul_21_1200	s	s	11	2	SIC	144	RC	0	1	23RO	1	0	1.51285600662	-42.0	49.0	-32	49	1
1.7	2015_Jul_21_1200	s	s	11	2	SIC	145	RC	1	2	23MD	1	0	2.81254792213	252.0	40.0	245	37	1
1.7	2015_Jul_21_1200	s	s	11	2	SIC	146	RC	0	2	23RD	1	0	0.481963157654	-55.0	-124.0	-57	-131	1
1.7	2015_Jul_21_1200	s	s	11	2	SIC	147	ABS	2	1	24VO	0	1	0.693826913834	None	None	None	None	1
1.7	2015_Jul_21_1200	s	s	11	2	SIC	148	ABS	1	2	24MD	0	1	0.76088809967	None	None	None	None	1
1.7	2015_Jul_21_1200	s	s	11	2	SIC	149	ABS	0	2	24RD	0	1	1.03522801399	None	None	None	None	1
1.7	2015_Jul_21_1200	s	s	11	2	SIC	150	RC	1	1	23MO	1	0	1.06245613098	-128.0	-152.0	-131	-157	1
1.7	2015_Jul_21_1200	s	s	11	2	SIC	151	ABS	2	0	24VC	0	1	0.740929841995	None	None	None	None	1
1.7	2015_Jul_21_1200	s	s	11	2	SIC	152	ABS	0	1	24RO	0	1	4.04545998573	None	None	None	None	1
1.7	2015_Jul_21_1200	s	s	11	2	SIC	153	RC	2	1	23VO	1	0	0.564802885056	265.0	371.0	269	362	1
1.7	2015_Jul_21_1200	s	s	11	2	SIC	154	ABS	1	0	24MC	0	1	2.23098087311	None	None	None	None	1
1.7	2015_Jul_21_1200	s	s	11	2	SIC	155	RC	2	0	23VC	1	0	0.69380402565	486.0	-229.0	486	-221	1
1.7	2015_Jul_21_1200	s	s	11	2	SIC	156	RC	1	0	23MC	1	0	1.76496195793	242.0	-123.0	244	-130	1
1.7	2015_Jul_21_1200	s	s	11	2	SIC	157	ABS	1	1	24MO	0	1	2.38374090195	None	None	None	None	1
1.7	2015_Jul_21_1200	s	s	11	2	SIC	158	RC	0	1	23RO	1	0	1.64226198196	461.0	-247.0	468	-240	1
1.7	2015_Jul_21_1200	s	s	11	2	SIC	159	RC	2	2	23VD	1	0	0.512211799622	212.0	-107.0	218	-105	1
1.7	2015_Jul_21_1200	s	s	11	2	SIC	160	ABS	2	2	24VD	0	1	0.829874992371	None	None	None	None	1
1.7	2015_Jul_21_1200	s	s	11	2	SIC	161	ABS	0	1	24RO	0	1	2.84511899948	None	None	None	None	1
1.7	2015_Jul_21_1200	s	s	11	2	SIC	162	RC	1	1	23MO	1	0	0.128861188889	455.0	-250.0	-39	100	0
1.7	2015_Jul_21_1200	s	s	11	2	SIC	163	ABS	2	2	24VD	0	1	0.470582008362	None	None	None	None	1
1.7	2015_Jul_21_1200	s	s	11	2	SIC	164	RC	2	2	23VD	1	0	0.517284154892	223.0	-344.0	227	-343	1
1.7	2015_Jul_21_1200	s	s	11	2	SIC	165	RC	0	1	23RO	0	1	4.60889697075	-522.0	228.0	None	None	0
1.7	2015_Jul_21_1200	s	s	11	2	SIC	166	ABS	1	1	24MO	0	1	5.25578284264	None	None	None	None	1
1.7	2015_Jul_21_1200	s	s	11	2	SIC	167	ABS	2	0	24VC	0	1	2.41232204437	None	None	None	None	1
1.7	2015_Jul_21_1200	s	s	11	2	SIC	168	RC	1	2	23MD	1	0	0.494135141373	194.0	-33.0	182	-24	1
1.7	2015_Jul_21_1200	s	s	11	2	SIC	169	ABS	1	0	24MC	1	0	2.10113501549	None	None	61	-3	0
1.7	2015_Jul_21_1200	s	s	11	2	SIC	170	ABS	0	2	24RD	0	1	0.534461975098	None	None	None	None	1
1.7	2015_Jul_21_1200	s	s	11	2	SIC	171	RC	0	2	23RD	1	0	0.937824964523	513.0	288.0	516	276	1
1.7	2015_Jul_21_1200	s	s	11	2	SIC	172	RC	1	0	23MC	1	0	5.28439211845	-140.0	101.0	-140	98	1
1.7	2015_Jul_21_1200	s	s	11	2	SIC	173	ABS	1	2	24MD	0	1	0.726715087891	None	None	None	None	1
1.7	2015_Jul_21_1200	s	s	11	2	SIC	174	ABS	2	1	24VO	0	1	0.488901853561	None	None	None	None	1
1.7	2015_Jul_21_1200	s	s	11	2	SIC	175	RC	2	1	23VO	1	0	0.611328840256	504.0	38.0	513	44	1
1.7	2015_Jul_21_1200	s	s	11	2	SIC	176	RC	2	0	23VC	1	0	0.511533021927	144.0	-50.0	139	-57	1
1.7	2015_Jul_21_1200	s	s	11	2	SIC	177	ABS	2	0	24VC	0	1	1.08918595314	None	None	None	None	1
1.7	2015_Jul_21_1200	s	s	11	2	SIC	178	RC	2	2	23VD	0	1	0.470142126083	309.0	-402.0	None	None	0
1.7	2015_Jul_21_1200	s	s	11	2	SIC	179	RC	0	1	23RO	0	1	1.89443302155	-455.0	-314.0	None	None	0
1.7	2015_Jul_21_1200	s	s	11	2	SIC	180	RC	1	0	23MC	1	0	0.976284980774	308.0	34.0	313	40	1
1.7	2015_Jul_21_1200	s	s	11	2	SIC	181	RC	2	1	23VO	1	0	0.536455869675	182.0	-19.0	191	-16	1
1.7	2015_Jul_21_1200	s	s	11	2	SIC	182	ABS	0	2	24RD	0	1	1.06505298615	None	None	None	None	1
1.7	2015_Jul_21_1200	s	s	11	2	SIC	183	RC	0	2	23RD	1	0	0.585526943207	-211.0	-250.0	-214	-251	1
1.7	2015_Jul_21_1200	s	s	11	2	SIC	184	ABS	2	2	24VD	0	1	0.729285001755	None	None	None	None	1
1.7	2015_Jul_21_1200	s	s	11	2	SIC	185	RC	2	0	23VC	1	0	0.479056119919	278.0	-19.0	285	-24	1
1.7	2015_Jul_21_1200	s	s	11	2	SIC	186	ABS	1	0	24MC	0	1	2.64289593697	None	None	None	None	1
1.7	2015_Jul_21_1200	s	s	11	2	SIC	187	ABS	0	1	24RO	0	1	3.69064903259	None	None	None	None	1
1.7	2015_Jul_21_1200	s	s	11	2	SIC	188	ABS	1	2	24MD	0	1	0.687520027161	None	None	None	None	1
1.7	2015_Jul_21_1200	s	s	11	2	SIC	189	RC	1	2	23MD	1	0	0.512228012085	-407.0	-75.0	-407	-77	1
1.7	2015_Jul_21_1200	s	s	11	2	SIC	190	ABS	1	1	24MO	0	1	2.44282197952	None	None	None	None	1
1.7	2015_Jul_21_1200	s	s	11	2	SIC	191	RC	1	1	23MO	1	0	0.878145933151	-515.0	107.0	-515	107	1
1.7	2015_Jul_21_1200	s	s	11	2	SIC	192	ABS	2	1	24VO	0	1	0.771327018738	None	None	None	None	1
1.7	2015_Jul_21_1200	s	s	11	2	SIC	193	RC	1	0	23MC	1	0	3.57760810852	-121.0	216.0	-120	217	1
1.7	2015_Jul_21_1200	s	s	11	2	SIC	194	RC	0	1	23RO	1	0	4.21325111389	-148.0	329.0	-152	328	1
1.7	2015_Jul_21_1200	s	s	11	2	SIC	195	RC	0	2	23RD	1	0	0.573632001877	-72.0	384.0	-65	377	1
1.7	2015_Jul_21_1200	s	s	11	2	SIC	196	RC	1	1	23MO	1	0	1.51377701759	508.0	300.0	500	308	1
1.7	2015_Jul_21_1200	s	s	11	2	SIC	197	RC	2	2	23VD	1	0	0.552677869797	-430.0	-256.0	-429	-267	1
1.7	2015_Jul_21_1200	s	s	11	2	SIC	198	ABS	1	2	24MD	0	1	0.99662399292	None	None	None	None	1
1.7	2015_Jul_21_1200	s	s	11	2	SIC	199	RC	1	2	23MD	1	0	0.540781021118	415.0	-73.0	414	-83	1
1.7	2015_Jul_21_1200	s	s	11	2	SIC	200	ABS	1	0	24MC	0	1	2.21895289421	None	None	None	None	1
1.7	2015_Jul_21_1200	s	s	11	2	SIC	201	RC	2	0	23VC	1	0	0.478301048279	-75.0	375.0	-80	376	1
1.7	2015_Jul_21_1200	s	s	11	2	SIC	202	ABS	2	0	24VC	0	1	0.571264028549	None	None	None	None	1
1.7	2015_Jul_21_1200	s	s	11	2	SIC	203	ABS	0	1	24RO	0	1	3.74244713783	None	None	None	None	1
1.7	2015_Jul_21_1200	s	s	11	2	SIC	204	ABS	2	1	24VO	0	1	0.740943908691	None	None	None	None	1
1.7	2015_Jul_21_1200	s	s	11	2	SIC	205	ABS	0	2	24RD	0	1	0.689028024673	None	None	None	None	1
1.7	2015_Jul_21_1200	s	s	11	2	SIC	206	ABS	1	1	24MO	0	1	1.80870509148	None	None	None	None	1
1.7	2015_Jul_21_1200	s	s	11	2	SIC	207	RC	2	1	23VO	1	0	0.487998962402	9.0	367.0	12	362	1
1.7	2015_Jul_21_1200	s	s	11	2	SIC	208	ABS	2	2	24VD	0	1	0.570913791656	None	None	None	None	1
1.7	2015_Jul_21_1200	s	s	11	2	SIC	209	ABS	1	1	24MO	0	1	1.58377408981	None	None	None	None	1
1.7	2015_Jul_21_1200	s	s	11	2	SIC	210	RC	2	2	23VD	1	0	0.546285152435	-74.0	-254.0	-70	-255	1
1.7	2015_Jul_21_1200	s	s	11	2	SIC	211	ABS	0	1	24RO	0	1	3.84833717346	None	None	None	None	1
1.7	2015_Jul_21_1200	s	s	11	2	SIC	212	ABS	2	1	24VO	0	1	0.605922937393	None	None	None	None	1
1.7	2015_Jul_21_1200	s	s	11	2	SIC	213	ABS	2	2	24VD	0	1	0.417747020721	None	None	None	None	1
1.7	2015_Jul_21_1200	s	s	11	2	SIC	214	RC	1	2	23MD	1	0	0.670311927795	-67.0	-246.0	-61	-244	1
1.7	2015_Jul_21_1200	s	s	11	2	SIC	215	RC	1	0	23MC	1	0	0.582324028015	330.0	-404.0	329	-406	1
1.7	2015_Jul_21_1200	s	s	11	2	SIC	216	RC	0	1	23RO	1	0	1.30593204498	25.0	67.0	27	57	1
1.7	2015_Jul_21_1200	s	s	11	2	SIC	217	ABS	1	2	24MD	0	1	0.705600976944	None	None	None	None	1
1.7	2015_Jul_21_1200	s	s	11	2	SIC	218	RC	2	1	23VO	1	0	0.505591154099	-408.0	308.0	-412	307	1
1.7	2015_Jul_21_1200	s	s	11	2	SIC	219	ABS	1	0	24MC	1	0	0.846863985062	None	None	-405	151	0
1.7	2015_Jul_21_1200	s	s	11	2	SIC	220	RC	0	2	23RD	1	0	0.54079413414	65.0	-98.0	73	-99	1
1.7	2015_Jul_21_1200	s	s	11	2	SIC	221	RC	1	1	23MO	1	0	2.98910093307	-538.0	-358.0	-548	-352	1
1.7	2015_Jul_21_1200	s	s	11	2	SIC	222	ABS	2	0	24VC	0	1	0.799837112427	None	None	None	None	1
1.7	2015_Jul_21_1200	s	s	11	2	SIC	223	ABS	0	2	24RD	0	1	1.01164197922	None	None	None	None	1
1.7	2015_Jul_21_1200	s	s	11	2	SIC	224	RC	2	0	23VC	1	0	0.528956890106	-535.0	-15.0	-523	-12	1
1.7	2015_Jul_21_1200	s	s	11	2	SIC	225	ABS	0	2	24RD	0	1	1.01886510849	None	None	None	None	1
1.7	2015_Jul_21_1200	s	s	11	2	SIC	226	RC	0	2	23RD	1	0	0.540827989578	284.0	204.0	288	205	1
1.7	2015_Jul_21_1200	s	s	11	2	SIC	227	ABS	1	0	24MC	0	1	2.07088017464	None	None	None	None	1
1.7	2015_Jul_21_1200	s	s	11	2	SIC	228	RC	1	2	23MD	1	0	0.493551969528	-226.0	238.0	-224	236	1
1.7	2015_Jul_21_1200	s	s	11	2	SIC	229	ABS	1	1	24MO	0	1	6.79101395607	None	None	None	None	1
1.7	2015_Jul_21_1200	s	s	11	2	SIC	230	RC	1	0	23MC	1	0	1.34123086929	224.0	-337.0	231	-334	1
1.7	2015_Jul_21_1200	s	s	11	2	SIC	231	RC	1	1	23MO	1	0	0.905695915222	359.0	171.0	356	171	1
1.7	2015_Jul_21_1200	s	s	11	2	SIC	232	ABS	0	1	24RO	0	1	9.81604886055	None	None	None	None	1
1.7	2015_Jul_21_1200	s	s	11	2	SIC	233	ABS	2	0	24VC	0	1	0.903162002563	None	None	None	None	1
1.7	2015_Jul_21_1200	s	s	11	2	SIC	234	RC	0	1	23RO	1	0	1.24203181267	102.0	405.0	100	412	1
1.7	2015_Jul_21_1200	s	s	11	2	SIC	235	ABS	2	2	24VD	0	1	0.817409038544	None	None	None	None	1
1.7	2015_Jul_21_1200	s	s	11	2	SIC	236	RC	2	0	23VC	1	0	0.52666592598	105.0	181.0	109	179	1
1.7	2015_Jul_21_1200	s	s	11	2	SIC	237	ABS	1	2	24MD	0	1	0.608319997787	None	None	None	None	1
1.7	2015_Jul_21_1200	s	s	11	2	SIC	238	ABS	2	1	24VO	0	1	0.752663135529	None	None	None	None	1
1.7	2015_Jul_21_1200	s	s	11	2	SIC	239	RC	2	1	23VO	1	0	0.55982708931	-91.0	-135.0	-89	-136	1
1.7	2015_Jul_21_1200	s	s	11	2	SIC	240	RC	2	2	23VD	1	0	0.465265035629	-369.0	-408.0	-366	-406	1
1.7	2015_Jul_21_1200	s	s	11	2	SIC	241	RC	1	0	23MC	0	1	1.05656313896	52.0	279.0	None	None	0
1.7	2015_Jul_21_1200	s	s	11	2	SIC	242	RC	2	1	23VO	1	0	0.535825014114	256.0	310.0	261	308	1
1.7	2015_Jul_21_1200	s	s	11	2	SIC	243	RC	0	1	23RO	1	0	1.93646502495	126.0	-223.0	128	-230	1
1.7	2015_Jul_21_1200	s	s	11	2	SIC	244	RC	2	2	23VD	1	0	3.06812787056	477.0	-62.0	481	-60	1
1.7	2015_Jul_21_1200	s	s	11	2	SIC	245	ABS	2	2	24VD	0	1	0.782659053802	None	None	None	None	1
1.7	2015_Jul_21_1200	s	s	11	2	SIC	246	ABS	2	1	24VO	0	1	0.635027170181	None	None	None	None	1
1.7	2015_Jul_21_1200	s	s	11	2	SIC	247	ABS	0	1	24RO	0	1	3.77128410339	None	None	None	None	1
1.7	2015_Jul_21_1200	s	s	11	2	SIC	248	ABS	2	0	24VC	0	1	1.33683419228	None	None	None	None	1
1.7	2015_Jul_21_1200	s	s	11	2	SIC	249	ABS	1	2	24MD	0	1	0.747619867325	None	None	None	None	1
1.7	2015_Jul_21_1200	s	s	11	2	SIC	250	RC	1	2	23MD	1	0	2.73719215393	345.0	-177.0	351	-180	1
1.7	2015_Jul_21_1200	s	s	11	2	SIC	251	ABS	1	0	24MC	0	1	5.99058413506	None	None	None	None	1
1.7	2015_Jul_21_1200	s	s	11	2	SIC	252	RC	1	1	23MO	1	0	0.793504953384	135.0	12.0	130	15	1
1.7	2015_Jul_21_1200	s	s	11	2	SIC	253	ABS	0	2	24RD	0	1	0.783267021179	None	None	None	None	1
1.7	2015_Jul_21_1200	s	s	11	2	SIC	254	ABS	1	1	24MO	0	1	4.31918692589	None	None	None	None	1
1.7	2015_Jul_21_1200	s	s	11	2	SIC	255	RC	0	2	23RD	1	0	1.07049202919	389.0	271.0	391	267	1
1.7	2015_Jul_21_1200	s	s	11	2	SIC	256	RC	2	0	23VC	1	0	0.677252054214	-66.0	-386.0	-63	-391	1
1.7	2015_Jul_21_1200	s	s	11	2	SIC	257	RC	1	1	23MO	1	0	1.1646399498	186.0	-329.0	190	-337	1
1.7	2015_Jul_21_1200	s	s	11	2	SIC	258	RC	2	0	23VC	1	0	0.615952014923	182.0	142.0	179	135	1
1.7	2015_Jul_21_1200	s	s	11	2	SIC	259	ABS	1	0	24MC	0	1	1.11272597313	None	None	None	None	1
1.7	2015_Jul_21_1200	s	s	11	2	SIC	260	RC	0	1	23RO	0	1	3.45487880707	-35.0	-153.0	None	None	0
1.7	2015_Jul_21_1200	s	s	11	2	SIC	261	RC	1	2	23MD	1	0	0.552597045898	-109.0	239.0	-105	238	1
1.7	2015_Jul_21_1200	s	s	11	2	SIC	262	ABS	1	2	24MD	0	1	0.770679950714	None	None	None	None	1
1.7	2015_Jul_21_1200	s	s	11	2	SIC	263	RC	2	1	23VO	1	0	0.45840716362	-246.0	7.0	-240	0	1
1.7	2015_Jul_21_1200	s	s	11	2	SIC	264	RC	1	0	23MC	1	0	1.4589881897	25.0	-121.0	27	-115	1
1.7	2015_Jul_21_1200	s	s	11	2	SIC	265	RC	0	2	23RD	1	0	0.488383054733	-435.0	-409.0	-428	-412	1
1.7	2015_Jul_21_1200	s	s	11	2	SIC	266	RC	2	2	23VD	1	0	0.596441030502	-190.0	-254.0	-189	-247	1
1.7	2015_Jul_21_1200	s	s	11	2	SIC	267	ABS	1	1	24MO	0	1	2.91605114937	None	None	None	None	1
1.7	2015_Jul_21_1200	s	s	11	2	SIC	268	ABS	0	1	24RO	0	1	6.75571012497	None	None	None	None	1
1.7	2015_Jul_21_1200	s	s	11	2	SIC	269	ABS	0	2	24RD	0	1	2.08965706825	None	None	None	None	1
1.7	2015_Jul_21_1200	s	s	11	2	SIC	270	ABS	2	1	24VO	0	1	0.689366817474	None	None	None	None	1
1.7	2015_Jul_21_1200	s	s	11	2	SIC	271	ABS	2	0	24VC	0	1	1.07034897804	None	None	None	None	1
1.7	2015_Jul_21_1200	s	s	11	2	SIC	272	ABS	2	2	24VD	0	1	0.415111064911	None	None	None	None	1
1.7	2015_Jul_21_1200	s	s	11	2	SIC	273	ABS	2	0	24VC	0	1	0.524285078049	None	None	None	None	1
1.7	2015_Jul_21_1200	s	s	11	2	SIC	274	ABS	0	1	24RO	0	1	4.62527298927	None	None	None	None	1
1.7	2015_Jul_21_1200	s	s	11	2	SIC	275	ABS	1	1	24MO	0	1	1.19530200958	None	None	None	None	1
1.7	2015_Jul_21_1200	s	s	11	2	SIC	276	ABS	1	0	24MC	0	1	0.761178970337	None	None	None	None	1
1.7	2015_Jul_21_1200	s	s	11	2	SIC	277	ABS	0	2	24RD	0	1	0.587925195694	None	None	None	None	1
1.7	2015_Jul_21_1200	s	s	11	2	SIC	278	RC	0	1	23RO	1	0	1.79522609711	-202.0	-189.0	-193	-185	1
1.7	2015_Jul_21_1200	s	s	11	2	SIC	279	RC	1	0	23MC	0	1	1.18366384506	-69.0	355.0	None	None	0
1.7	2015_Jul_21_1200	s	s	11	2	SIC	280	ABS	2	2	24VD	0	1	0.559118032455	None	None	None	None	1
1.7	2015_Jul_21_1200	s	s	11	2	SIC	281	RC	0	2	23RD	1	0	0.524432897568	-351.0	69.0	-349	63	1
1.7	2015_Jul_21_1200	s	s	11	2	SIC	282	RC	2	1	23VO	1	0	0.529080867767	-170.0	96.0	-165	103	1
1.7	2015_Jul_21_1200	s	s	11	2	SIC	283	RC	1	2	23MD	1	0	0.406246185303	64.0	-68.0	65	-68	1
1.7	2015_Jul_21_1200	s	s	11	2	SIC	284	ABS	1	2	24MD	0	1	1.06493711472	None	None	None	None	1
1.7	2015_Jul_21_1200	s	s	11	2	SIC	285	RC	2	2	23VD	1	0	0.423097133636	185.0	123.0	181	129	1
1.7	2015_Jul_21_1200	s	s	11	2	SIC	286	ABS	2	1	24VO	0	1	0.776163101196	None	None	None	None	1
1.7	2015_Jul_21_1200	s	s	11	2	SIC	287	RC	2	0	23VC	1	0	0.818854093552	356.0	-3.0	357	-2	1
1.7	2015_Jul_21_1200	s	s	11	2	SIC	288	RC	1	1	23MO	1	0	0.500684976578	205.0	-39.0	204	-43	1
1.7	2015_Jul_21_1200	s	s	11	2	SIC	289	ABS	0	1	24RO	0	1	3.90256214142	None	None	None	None	1
1.7	2015_Jul_21_1200	s	s	11	2	SIC	290	RC	1	0	23MC	1	0	0.81968998909	240.0	260.0	250	259	1
1.7	2015_Jul_21_1200	s	s	11	2	SIC	291	RC	2	0	23VC	1	0	0.47709107399	-382.0	253.0	-384	252	1
1.7	2015_Jul_21_1200	s	s	11	2	SIC	292	ABS	2	1	24VO	0	1	0.736051082611	None	None	None	None	1
1.7	2015_Jul_21_1200	s	s	11	2	SIC	293	RC	2	1	23VO	1	0	0.529044151306	-52.0	42.0	-50	42	1
1.7	2015_Jul_21_1200	s	s	11	2	SIC	294	ABS	1	1	24MO	0	1	1.50098395348	None	None	None	None	1
1.7	2015_Jul_21_1200	s	s	11	2	SIC	295	RC	1	2	23MD	1	0	0.452055215836	-59.0	-185.0	-57	-178	1
1.7	2015_Jul_21_1200	s	s	11	2	SIC	296	ABS	2	0	24VC	0	1	0.670328140259	None	None	None	None	1
1.7	2015_Jul_21_1200	s	s	11	2	SIC	297	RC	2	2	23VD	1	0	0.458447933197	-156.0	-103.0	-151	-99	1
1.7	2015_Jul_21_1200	s	s	11	2	SIC	298	RC	0	1	23RO	1	0	1.64748978615	158.0	-235.0	158	-241	1
1.7	2015_Jul_21_1200	s	s	11	2	SIC	299	RC	0	2	23RD	1	0	0.682096004486	-97.0	385.0	-86	387	1
1.7	2015_Jul_21_1200	s	s	11	2	SIC	300	ABS	1	0	24MC	0	1	0.782966852188	None	None	None	None	1
1.7	2015_Jul_21_1200	s	s	11	2	SIC	301	ABS	0	2	24RD	0	1	0.903244018555	None	None	None	None	1
1.7	2015_Jul_21_1200	s	s	11	2	SIC	302	ABS	2	2	24VD	0	1	0.466826915741	None	None	None	None	1
1.7	2015_Jul_21_1200	s	s	11	2	SIC	303	RC	1	1	23MO	1	0	2.11010193825	-314.0	-359.0	-306	-364	1
1.7	2015_Jul_21_1200	s	s	11	2	SIC	304	ABS	1	2	24MD	0	1	0.42992401123	None	None	None	None	1
1.7	2015_Jul_21_1200	s	s	11	2	SIC	305	RC	1	2	23MD	1	0	0.505468130112	-232.0	390.0	-226	381	1
1.7	2015_Jul_21_1200	s	s	11	2	SIC	306	RC	2	2	23VD	0	1	0.411428928375	145.0	-58.0	None	None	0
1.7	2015_Jul_21_1200	s	s	11	2	SIC	307	RC	1	0	23MC	1	0	0.599688053131	-31.0	-25.0	-27	-20	1
1.7	2015_Jul_21_1200	s	s	11	2	SIC	308	ABS	1	1	24MO	0	1	1.55827903748	None	None	None	None	1
1.7	2015_Jul_21_1200	s	s	11	2	SIC	309	ABS	1	0	24MC	0	1	3.24799895287	None	None	None	None	1
1.7	2015_Jul_21_1200	s	s	11	2	SIC	310	RC	2	1	23VO	1	0	0.434839963913	-422.0	377.0	-417	375	1
1.7	2015_Jul_21_1200	s	s	11	2	SIC	311	RC	2	0	23VC	1	0	0.524954080582	142.0	-138.0	141	-143	1
1.7	2015_Jul_21_1200	s	s	11	2	SIC	312	ABS	2	0	24VC	0	1	0.643559217453	None	None	None	None	1
1.7	2015_Jul_21_1200	s	s	11	2	SIC	313	ABS	1	2	24MD	0	1	1.05065798759	None	None	None	None	1
1.7	2015_Jul_21_1200	s	s	11	2	SIC	314	ABS	0	1	24RO	0	1	5.09111213684	None	None	None	None	1
1.7	2015_Jul_21_1200	s	s	11	2	SIC	315	ABS	2	1	24VO	0	1	0.568157196045	None	None	None	None	1
1.7	2015_Jul_21_1200	s	s	11	2	SIC	316	RC	0	2	23RD	1	0	0.529098033905	162.0	255.0	162	255	1
1.7	2015_Jul_21_1200	s	s	11	2	SIC	317	RC	0	1	23RO	0	1	4.29047894478	-524.0	-220.0	None	None	0
1.7	2015_Jul_21_1200	s	s	11	2	SIC	318	ABS	2	2	24VD	0	1	0.552595853806	None	None	None	None	1
1.7	2015_Jul_21_1200	s	s	11	2	SIC	319	RC	1	1	23MO	1	0	0.787990808487	-400.0	325.0	-396	329	1
1.7	2015_Jul_21_1200	s	s	11	2	SIC	320	ABS	0	2	24RD	0	1	1.09404397011	None	None	None	None	1
1.7	2015_Jul_21_1200	s	s	11	2	SIC	321	ABS	1	1	24MO	0	1	1.37152886391	None	None	None	None	1
1.7	2015_Jul_21_1200	s	s	11	2	SIC	322	RC	0	2	23RD	1	0	0.493777036667	-313.0	191.0	-317	185	1
1.7	2015_Jul_21_1200	s	s	11	2	SIC	323	RC	1	1	23MO	1	0	0.596961021423	-427.0	333.0	-425	333	1
1.7	2015_Jul_21_1200	s	s	11	2	SIC	324	ABS	2	1	24VO	0	1	0.853086948395	None	None	None	None	1
1.7	2015_Jul_21_1200	s	s	11	2	SIC	325	RC	1	2	23MD	1	0	0.406371116638	-76.0	21.0	-73	22	1
1.7	2015_Jul_21_1200	s	s	11	2	SIC	326	RC	2	2	23VD	1	0	0.517334938049	-316.0	-327.0	-315	-332	1
1.7	2015_Jul_21_1200	s	s	11	2	SIC	327	RC	1	0	23MC	1	0	1.38283801079	37.0	-378.0	36	-383	1
1.7	2015_Jul_21_1200	s	s	11	2	SIC	328	ABS	1	0	24MC	0	1	1.80025792122	None	None	None	None	1
1.7	2015_Jul_21_1200	s	s	11	2	SIC	329	ABS	2	2	24VD	0	1	0.537527084351	None	None	None	None	1
1.7	2015_Jul_21_1200	s	s	11	2	SIC	330	ABS	0	1	24RO	0	1	3.4008731842	None	None	None	None	1
1.7	2015_Jul_21_1200	s	s	11	2	SIC	331	ABS	1	2	24MD	0	1	0.811483860016	None	None	None	None	1
1.7	2015_Jul_21_1200	s	s	11	2	SIC	332	RC	2	1	23VO	1	0	0.611279010773	504.0	179.0	507	178	1
1.7	2015_Jul_21_1200	s	s	11	2	SIC	333	RC	0	1	23RO	1	0	0.736018180847	201.0	140.0	193	138	1
1.7	2015_Jul_21_1200	s	s	11	2	SIC	334	RC	2	0	23VC	1	0	0.406605958939	319.0	262.0	323	249	1
1.7	2015_Jul_21_1200	s	s	11	2	SIC	335	ABS	2	0	24VC	0	1	0.783118009567	None	None	None	None	1
1.7	2015_Jul_21_1200	s	s	11	2	SIC	336	ABS	0	2	24RD	0	1	0.81551194191	None	None	None	None	1
1.7	2015_Jul_21_1200	s	s	11	2	SIC	337	ABS	1	0	24MC	0	1	1.97680807114	None	None	None	None	1
1.7	2015_Jul_21_1200	s	s	11	2	SIC	338	RC	0	1	23RO	1	0	2.5616209507	-1.0	-408.0	1	-407	1
1.7	2015_Jul_21_1200	s	s	11	2	SIC	339	ABS	1	2	24MD	0	1	0.640434980392	None	None	None	None	1
1.7	2015_Jul_21_1200	s	s	11	2	SIC	340	ABS	0	1	24RO	0	1	1.75358009338	None	None	None	None	1
1.7	2015_Jul_21_1200	s	s	11	2	SIC	341	RC	2	2	23VD	1	0	0.470582008362	370.0	-59.0	369	-62	1
1.7	2015_Jul_21_1200	s	s	11	2	SIC	342	RC	1	1	23MO	1	0	0.523275852203	214.0	-51.0	211	-45	1
1.7	2015_Jul_21_1200	s	s	11	2	SIC	343	ABS	2	1	24VO	0	1	0.576113939285	None	None	None	None	1
1.7	2015_Jul_21_1200	s	s	11	2	SIC	344	ABS	1	1	24MO	0	1	1.79651999474	None	None	None	None	1
1.7	2015_Jul_21_1200	s	s	11	2	SIC	345	RC	0	2	23RD	1	0	0.550086975098	78.0	-256.0	78	-257	1
1.7	2015_Jul_21_1200	s	s	11	2	SIC	346	ABS	2	0	24VC	0	1	0.678467035294	None	None	None	None	1
1.7	2015_Jul_21_1200	s	s	11	2	SIC	347	RC	2	0	23VC	1	0	0.529069900513	-150.0	-43.0	-159	-40	1
1.7	2015_Jul_21_1200	s	s	11	2	SIC	348	RC	1	0	23MC	1	0	1.50599884987	230.0	121.0	227	122	1
1.7	2015_Jul_21_1200	s	s	11	2	SIC	349	RC	1	2	23MD	1	0	0.81152510643	-352.0	-228.0	-351	-221	1
1.7	2015_Jul_21_1200	s	s	11	2	SIC	350	ABS	2	2	24VD	0	1	0.434880018234	None	None	None	None	1
1.7	2015_Jul_21_1200	s	s	11	2	SIC	351	ABS	0	2	24RD	0	1	1.0943441391	None	None	None	None	1
1.7	2015_Jul_21_1200	s	s	11	2	SIC	352	RC	2	1	23VO	1	0	0.564356803894	433.0	-394.0	429	-390	1
1.7	2015_Jul_21_1200	s	s	11	2	SIC	353	ABS	1	1	24MO	0	1	2.84552788734	None	None	None	None	1
1.7	2015_Jul_21_1200	s	s	11	2	SIC	354	ABS	0	2	24RD	0	1	1.01844906807	None	None	None	None	1
1.7	2015_Jul_21_1200	s	s	11	2	SIC	355	ABS	1	2	24MD	0	1	0.893925905228	None	None	None	None	1
1.7	2015_Jul_21_1200	s	s	11	2	SIC	356	RC	2	1	23VO	1	0	0.547582149506	-14.0	271.0	-5	271	1
1.7	2015_Jul_21_1200	s	s	11	2	SIC	357	RC	0	1	23RO	0	1	3.70706009865	-466.0	-384.0	None	None	0
1.7	2015_Jul_21_1200	s	s	11	2	SIC	358	ABS	2	0	24VC	0	1	0.771394968033	None	None	None	None	1
1.7	2015_Jul_21_1200	s	s	11	2	SIC	359	ABS	0	1	24RO	0	1	3.79830408096	None	None	None	None	1
1.7	2015_Jul_21_1200	s	s	11	2	SIC	360	RC	2	2	23VD	1	0	0.529044151306	-447.0	-35.0	-438	-34	1
1.7	2015_Jul_21_1200	s	s	11	2	SIC	361	RC	1	0	23MC	1	0	0.736639022827	-118.0	162.0	-114	169	1
1.7	2015_Jul_21_1200	s	s	11	2	SIC	362	RC	2	0	23VC	1	0	0.524149894714	483.0	-112.0	492	-105	1
1.7	2015_Jul_21_1200	s	s	11	2	SIC	363	RC	1	2	23MD	1	0	0.561586141586	-378.0	175.0	-383	183	1
1.7	2015_Jul_21_1200	s	s	11	2	SIC	364	ABS	1	0	24MC	0	1	5.00834703445	None	None	None	None	1
1.7	2015_Jul_21_1200	s	s	11	2	SIC	365	RC	0	2	23RD	1	0	0.452817201614	59.0	-122.0	55	-122	1
1.7	2015_Jul_21_1200	s	s	11	2	SIC	366	RC	1	1	23MO	1	0	0.925937175751	-380.0	-340.0	-386	-345	1
1.7	2015_Jul_21_1200	s	s	11	2	SIC	367	ABS	2	1	24VO	0	1	0.899878025055	None	None	None	None	1
1.7	2015_Jul_21_1200	s	s	11	2	SIC	368	ABS	2	2	24VD	0	1	0.446657896042	None	None	None	None	1
1.7	2015_Jul_21_1200	s	s	11	2	SIC	369	RC	1	2	23MD	1	0	0.5408411026	-383.0	110.0	-385	107	1
1.7	2015_Jul_21_1200	s	s	11	2	SIC	370	RC	0	2	23RD	1	0	1.40012407303	486.0	-401.0	486	-399	1
1.7	2015_Jul_21_1200	s	s	11	2	SIC	371	ABS	1	2	24MD	0	1	0.882163047791	None	None	None	None	1
1.7	2015_Jul_21_1200	s	s	11	2	SIC	372	ABS	2	0	24VC	0	1	0.7644739151	None	None	None	None	1
1.7	2015_Jul_21_1200	s	s	11	2	SIC	373	RC	0	1	23RO	1	0	4.30745911598	-19.0	341.0	-14	336	1
1.7	2015_Jul_21_1200	s	s	11	2	SIC	374	ABS	0	1	24RO	0	1	3.70447397232	None	None	None	None	1
1.7	2015_Jul_21_1200	s	s	11	2	SIC	375	ABS	2	2	24VD	0	1	0.611414909363	None	None	None	None	1
1.7	2015_Jul_21_1200	s	s	11	2	SIC	376	RC	2	2	23VD	1	0	0.458389997482	-106.0	272.0	-110	268	1
1.7	2015_Jul_21_1200	s	s	11	2	SIC	377	ABS	0	2	24RD	0	1	0.877118110657	None	None	None	None	1
1.7	2015_Jul_21_1200	s	s	11	2	SIC	378	ABS	2	1	24VO	0	1	1.87090301514	None	None	None	None	1
1.7	2015_Jul_21_1200	s	s	11	2	SIC	379	ABS	1	0	24MC	1	0	0.81834602356	None	None	-69	130	0
1.7	2015_Jul_21_1200	s	s	11	2	SIC	380	RC	1	0	23MC	1	0	1.19506692886	-450.0	30.0	-450	27	1
1.7	2015_Jul_21_1200	s	s	11	2	SIC	381	RC	2	1	23VO	1	0	0.653835058212	-343.0	212.0	-335	206	1
1.7	2015_Jul_21_1200	s	s	11	2	SIC	382	RC	2	0	23VC	1	0	0.5122859478	-198.0	-290.0	-198	-290	1
1.7	2015_Jul_21_1200	s	s	11	2	SIC	383	ABS	1	1	24MO	0	1	2.10628581047	None	None	None	None	1
1.7	2015_Jul_21_1200	s	s	11	2	SIC	384	RC	1	1	23MO	1	0	0.858651161194	-158.0	-278.0	-156	-280	1
1.7	2015_Jul_21_1200	s	s	11	2	SIC	385	ABS	2	2	24VD	0	1	0.889046907425	None	None	None	None	1
1.7	2015_Jul_21_1200	s	s	11	2	SIC	386	RC	1	2	23MD	1	0	0.538677930832	287.0	120.0	299	130	1
1.7	2015_Jul_21_1200	s	s	11	2	SIC	387	ABS	2	1	24VO	0	1	0.587985992432	None	None	None	None	1
1.7	2015_Jul_21_1200	s	s	11	2	SIC	388	RC	2	1	23VO	1	0	0.446614980698	-276.0	25.0	-271	24	1
1.7	2015_Jul_21_1200	s	s	11	2	SIC	389	RC	1	1	23MO	1	0	0.67936205864	62.0	393.0	71	390	1
1.7	2015_Jul_21_1200	s	s	11	2	SIC	390	RC	1	0	23MC	1	0	1.03030991554	428.0	-120.0	432	-115	1
1.7	2015_Jul_21_1200	s	s	11	2	SIC	391	RC	2	0	23VC	1	0	0.499784946442	-462.0	325.0	-467	327	1
1.7	2015_Jul_21_1200	s	s	11	2	SIC	392	ABS	1	1	24MO	0	1	2.12392497063	None	None	None	None	1
1.7	2015_Jul_21_1200	s	s	11	2	SIC	393	ABS	0	1	24RO	0	1	6.50328087807	None	None	None	None	1
1.7	2015_Jul_21_1200	s	s	11	2	SIC	394	RC	0	1	23RO	1	0	4.4839451313	318.0	27.0	320	17	1
1.7	2015_Jul_21_1200	s	s	11	2	SIC	395	RC	2	2	23VD	1	0	0.44050693512	-111.0	-162.0	-110	-157	1
1.7	2015_Jul_21_1200	s	s	11	2	SIC	396	ABS	0	2	24RD	0	1	1.0234708786	None	None	None	None	1
1.7	2015_Jul_21_1200	s	s	11	2	SIC	397	ABS	2	0	24VC	0	1	1.79457783699	None	None	None	None	1
1.7	2015_Jul_21_1200	s	s	11	2	SIC	398	RC	0	2	23RD	1	0	0.55260515213	283.0	-41.0	288	-41	1
1.7	2015_Jul_21_1200	s	s	11	2	SIC	399	ABS	1	0	24MC	0	1	1.28917694092	None	None	None	None	1
1.7	2015_Jul_21_1200	s	s	11	2	SIC	400	ABS	1	2	24MD	0	1	1.75318598747	None	None	None	None	1
1.7	2015_Jul_21_1200	s	s	11	2	SIC	401	RC	2	0	23VC	1	0	0.912693023682	531.0	72.0	522	73	1
1.7	2015_Jul_21_1200	s	s	11	2	SIC	402	ABS	2	2	24VD	0	1	0.634953022003	None	None	None	None	1
1.7	2015_Jul_21_1200	s	s	11	2	SIC	403	ABS	1	2	24MD	0	1	0.536071062088	None	None	None	None	1
1.7	2015_Jul_21_1200	s	s	11	2	SIC	404	ABS	2	1	24VO	0	1	0.512871026993	None	None	None	None	1
1.7	2015_Jul_21_1200	s	s	11	2	SIC	405	ABS	1	0	24MC	0	1	0.634929180145	None	None	None	None	1
1.7	2015_Jul_21_1200	s	s	11	2	SIC	406	RC	1	2	23MD	1	0	0.682101011276	434.0	-16.0	438	-16	1
1.7	2015_Jul_21_1200	s	s	11	2	SIC	407	ABS	2	0	24VC	0	1	0.700155973434	None	None	None	None	1
1.7	2015_Jul_21_1200	s	s	11	2	SIC	408	RC	0	2	23RD	1	0	0.441779851913	-262.0	-107.0	-265	-113	1
1.7	2015_Jul_21_1200	s	s	11	2	SIC	409	RC	1	0	23MC	0	1	2.81633400917	223.0	123.0	None	None	0
1.7	2015_Jul_21_1200	s	s	11	2	SIC	410	RC	2	2	23VD	1	0	0.423296928406	-315.0	27.0	-311	28	1
1.7	2015_Jul_21_1200	s	s	11	2	SIC	411	ABS	0	2	24RD	0	1	0.737783908844	None	None	None	None	1
1.7	2015_Jul_21_1200	s	s	11	2	SIC	412	RC	2	1	23VO	1	0	0.606420040131	177.0	342.0	174	335	1
1.7	2015_Jul_21_1200	s	s	11	2	SIC	413	ABS	0	1	24RO	0	1	2.50013685226	None	None	None	None	1
1.7	2015_Jul_21_1200	s	s	11	2	SIC	414	ABS	1	1	24MO	0	1	1.7834239006	None	None	None	None	1
1.7	2015_Jul_21_1200	s	s	11	2	SIC	415	RC	0	1	23RO	1	0	3.09865498543	-507.0	-395.0	-504	-395	1
1.7	2015_Jul_21_1200	s	s	11	2	SIC	416	RC	1	1	23MO	1	0	1.06538510323	415.0	-59.0	419	-58	1
1.7	2015_Jul_21_1200	s	s	11	2	SIC	417	ABS	1	0	24MC	0	1	0.905747890472	None	None	None	None	1
1.7	2015_Jul_21_1200	s	s	11	2	SIC	418	RC	2	0	23VC	1	0	0.466837882996	-200.0	237.0	-208	235	1
1.7	2015_Jul_21_1200	s	s	11	2	SIC	419	RC	2	1	23VO	1	0	0.485599040985	289.0	298.0	300	305	1
1.7	2015_Jul_21_1200	s	s	11	2	SIC	420	RC	1	2	23MD	1	0	0.635009765625	-159.0	-169.0	-155	-167	1
1.7	2015_Jul_21_1200	s	s	11	2	SIC	421	ABS	2	1	24VO	0	1	0.752612113953	None	None	None	None	1
1.7	2015_Jul_21_1200	s	s	11	2	SIC	422	RC	2	2	23VD	1	0	0.658555030823	10.0	-17.0	10	-23	1
1.7	2015_Jul_21_1200	s	s	11	2	SIC	423	ABS	0	2	24RD	0	1	0.712069988251	None	None	None	None	1
1.7	2015_Jul_21_1200	s	s	11	2	SIC	424	ABS	1	2	24MD	0	1	0.505545139313	None	None	None	None	1
1.7	2015_Jul_21_1200	s	s	11	2	SIC	425	ABS	1	1	24MO	0	1	3.86509799957	None	None	None	None	1
1.7	2015_Jul_21_1200	s	s	11	2	SIC	426	RC	0	1	23RO	0	1	5.63319182396	256.0	125.0	None	None	0
1.7	2015_Jul_21_1200	s	s	11	2	SIC	427	ABS	2	0	24VC	0	1	0.583035945892	None	None	None	None	1
1.7	2015_Jul_21_1200	s	s	11	2	SIC	428	RC	0	2	23RD	1	0	0.764486074448	135.0	-394.0	142	-386	1
1.7	2015_Jul_21_1200	s	s	11	2	SIC	429	RC	1	1	23MO	1	0	2.99630403519	-414.0	314.0	-418	312	1
1.7	2015_Jul_21_1200	s	s	11	2	SIC	430	ABS	0	1	24RO	0	1	4.56152582169	None	None	None	None	1
1.7	2015_Jul_21_1200	s	s	11	2	SIC	431	ABS	2	2	24VD	0	1	0.58340716362	None	None	None	None	1
1.7	2015_Jul_21_1200	s	s	11	2	SIC	432	RC	1	0	23MC	1	0	0.811588048935	16.0	134.0	22	137	1
1.7	2015_Jul_21_1200	s	s	11	2	SIC	433	ABS	2	0	24VC	0	1	0.524029970169	None	None	None	None	1
1.7	2015_Jul_21_1200	s	s	11	2	SIC	434	RC	2	1	23VO	1	0	0.473966121674	-329.0	-100.0	-331	-96	1
1.7	2015_Jul_21_1200	s	s	11	2	SIC	435	RC	2	0	23VC	1	0	0.52423286438	-464.0	208.0	-461	215	1
1.7	2015_Jul_21_1200	s	s	11	2	SIC	436	ABS	1	1	24MO	0	1	1.75069189072	None	None	None	None	1
1.7	2015_Jul_21_1200	s	s	11	2	SIC	437	ABS	0	2	24RD	0	1	0.764472961426	None	None	None	None	1
1.7	2015_Jul_21_1200	s	s	11	2	SIC	438	RC	0	2	23RD	1	0	0.509215831757	137.0	30.0	136	25	1
1.7	2015_Jul_21_1200	s	s	11	2	SIC	439	ABS	2	2	24VD	0	1	0.524125099182	None	None	None	None	1
1.7	2015_Jul_21_1200	s	s	11	2	SIC	440	ABS	1	2	24MD	0	1	0.569467067719	None	None	None	None	1
1.7	2015_Jul_21_1200	s	s	11	2	SIC	441	RC	0	1	23RO	1	0	0.964818000793	225.0	-252.0	226	-247	1
1.7	2015_Jul_21_1200	s	s	11	2	SIC	442	ABS	0	1	24RO	0	1	3.47856497765	None	None	None	None	1
1.7	2015_Jul_21_1200	s	s	11	2	SIC	443	RC	1	0	23MC	1	0	1.35067796707	254.0	312.0	252	316	1
1.7	2015_Jul_21_1200	s	s	11	2	SIC	444	RC	1	2	23MD	1	0	0.961745023727	466.0	384.0	468	390	1
1.7	2015_Jul_21_1200	s	s	11	2	SIC	445	RC	1	1	23MO	1	0	1.04056692123	-114.0	-228.0	-118	-229	1
1.7	2015_Jul_21_1200	s	s	11	2	SIC	446	ABS	2	1	24VO	0	1	1.19195508957	None	None	None	None	1
1.7	2015_Jul_21_1200	s	s	11	2	SIC	447	ABS	1	0	24MC	0	1	1.5884308815	None	None	None	None	1
1.7	2015_Jul_21_1200	s	s	11	2	SIC	448	RC	2	2	23VD	1	0	0.606385946274	-147.0	391.0	-144	383	1
1.7	2015_Jul_21_1200	s	s	11	2	SIC	449	RC	0	2	23RD	1	0	0.599998950958	-37.0	137.0	-38	145	1
1.7	2015_Jul_21_1200	s	s	11	2	SIC	450	ABS	0	2	24RD	0	1	0.634954929352	None	None	None	None	1
1.7	2015_Jul_21_1200	s	s	11	2	SIC	451	RC	1	1	23MO	1	0	1.07762098312	380.0	-38.0	383	-28	1
1.7	2015_Jul_21_1200	s	s	11	2	SIC	452	ABS	1	2	24MD	0	1	0.665540933609	None	None	None	None	1
1.7	2015_Jul_21_1200	s	s	11	2	SIC	453	ABS	0	1	24RO	0	1	3.25514006615	None	None	None	None	1
1.7	2015_Jul_21_1200	s	s	11	2	SIC	454	RC	0	1	23RO	1	0	1.69078803062	478.0	170.0	474	167	1
1.7	2015_Jul_21_1200	s	s	11	2	SIC	455	ABS	1	0	24MC	0	1	2.37205410004	None	None	None	None	1
1.7	2015_Jul_21_1200	s	s	11	2	SIC	456	RC	1	0	23MC	0	1	1.37174892426	265.0	66.0	None	None	0
1.7	2015_Jul_21_1200	s	s	11	2	SIC	457	RC	2	2	23VD	1	0	0.524276971817	495.0	306.0	490	307	1
1.7	2015_Jul_21_1200	s	s	11	2	SIC	458	ABS	2	0	24VC	0	1	0.505513906479	None	None	None	None	1
1.7	2015_Jul_21_1200	s	s	11	2	SIC	459	ABS	2	1	24VO	0	1	0.564407110214	None	None	None	None	1
1.7	2015_Jul_21_1200	s	s	11	2	SIC	460	RC	2	0	23VC	1	0	0.61141705513	375.0	-237.0	377	-232	1
1.7	2015_Jul_21_1200	s	s	11	2	SIC	461	ABS	1	1	24MO	0	1	1.38347196579	None	None	None	None	1
1.7	2015_Jul_21_1200	s	s	11	2	SIC	462	RC	2	1	23VO	1	0	0.446630954742	-423.0	-154.0	-417	-148	1
1.7	2015_Jul_21_1200	s	s	11	2	SIC	463	RC	1	2	23MD	1	0	0.552635908127	147.0	69.0	139	74	1
1.7	2015_Jul_21_1200	s	s	11	2	SIC	464	ABS	2	2	24VD	0	1	0.547356128693	None	None	None	None	1
1.7	2015_Jul_21_1200	s	s	11	2	SIC	465	ABS	2	0	24VC	0	1	0.481872797012	None	None	None	None	1
1.7	2015_Jul_21_1200	s	s	11	2	SIC	466	ABS	1	1	24MO	0	1	2.09454202652	None	None	None	None	1
1.7	2015_Jul_21_1200	s	s	11	2	SIC	467	ABS	0	2	24RD	0	1	0.570914983749	None	None	None	None	1
1.7	2015_Jul_21_1200	s	s	11	2	SIC	468	ABS	0	1	24RO	0	1	4.52622795105	None	None	None	None	1
1.7	2015_Jul_21_1200	s	s	11	2	SIC	469	RC	1	1	23MO	1	0	1.42365193367	40.0	-262.0	45	-254	1
1.7	2015_Jul_21_1200	s	s	11	2	SIC	470	RC	0	1	23RO	1	0	1.50594210625	315.0	-380.0	316	-382	1
1.7	2015_Jul_21_1200	s	s	11	2	SIC	471	RC	0	2	23RD	1	0	0.501837015152	348.0	-236.0	351	-233	1
1.7	2015_Jul_21_1200	s	s	11	2	SIC	472	RC	2	2	23VD	1	0	0.481960058212	-94.0	387.0	-101	382	1
1.7	2015_Jul_21_1200	s	s	11	2	SIC	473	RC	1	0	23MC	1	0	0.976197004318	-373.0	195.0	-364	197	1
1.7	2015_Jul_21_1200	s	s	11	2	SIC	474	RC	1	2	23MD	1	0	0.547476053238	-426.0	-349.0	-424	-353	1
1.7	2015_Jul_21_1200	s	s	11	2	SIC	475	RC	2	0	23VC	1	0	0.606293916702	-45.0	-208.0	-50	-208	1
1.7	2015_Jul_21_1200	s	s	11	2	SIC	476	ABS	2	1	24VO	0	1	0.752606868744	None	None	None	None	1
1.7	2015_Jul_21_1200	s	s	11	2	SIC	477	ABS	2	2	24VD	0	1	0.359344005585	None	None	None	None	1
1.7	2015_Jul_21_1200	s	s	11	2	SIC	478	RC	2	1	23VO	1	0	0.509350061417	-365.0	-119.0	-354	-119	1
1.7	2015_Jul_21_1200	s	s	11	2	SIC	479	ABS	1	0	24MC	0	1	1.78051614761	None	None	None	None	1
1.7	2015_Jul_21_1200	s	s	11	2	SIC	480	ABS	1	2	24MD	0	1	0.611442089081	None	None	None	None	1
1.7	2015_Jul_21_1200	s	s	11	2	SIC	481	RC	0	2	23RD	1	0	0.576176166534	101.0	-240.0	107	-234	1
1.7	2015_Jul_21_1200	s	s	11	2	SIC	482	RC	1	2	23MD	1	0	0.525820970535	-177.0	20.0	-164	27	1
1.7	2015_Jul_21_1200	s	s	11	2	SIC	483	ABS	1	0	24MC	0	1	1.06591701508	None	None	None	None	1
1.7	2015_Jul_21_1200	s	s	11	2	SIC	484	ABS	2	2	24VD	0	1	0.611873865128	None	None	None	None	1
1.7	2015_Jul_21_1200	s	s	11	2	SIC	485	ABS	2	1	24VO	0	1	0.558490991592	None	None	None	None	1
1.7	2015_Jul_21_1200	s	s	11	2	SIC	486	RC	2	0	23VC	1	0	0.441783905029	-63.0	391.0	-55	391	1
1.7	2015_Jul_21_1200	s	s	11	2	SIC	487	ABS	0	1	24RO	0	1	1.78357577324	None	None	None	None	1
1.7	2015_Jul_21_1200	s	s	11	2	SIC	488	ABS	2	0	24VC	0	1	0.571399927139	None	None	None	None	1
1.7	2015_Jul_21_1200	s	s	11	2	SIC	489	RC	2	2	23VD	1	0	0.51512503624	-203.0	100.0	-214	109	1
1.7	2015_Jul_21_1200	s	s	11	2	SIC	490	RC	1	0	23MC	1	0	1.31769609451	123.0	-268.0	115	-273	1
1.7	2015_Jul_21_1200	s	s	11	2	SIC	491	ABS	1	1	24MO	0	1	1.21166014671	None	None	None	None	1
1.7	2015_Jul_21_1200	s	s	11	2	SIC	492	RC	2	1	23VO	1	0	0.488792896271	-126.0	-395.0	-126	-403	1
1.7	2015_Jul_21_1200	s	s	11	2	SIC	493	RC	0	1	23RO	1	0	0.952769041061	-85.0	-5.0	-78	5	1
1.7	2015_Jul_21_1200	s	s	11	2	SIC	494	RC	1	1	23MO	1	0	0.646702051163	-423.0	-404.0	-425	-411	1
1.7	2015_Jul_21_1200	s	s	11	2	SIC	495	ABS	1	2	24MD	0	1	1.01771593094	None	None	None	None	1
1.7	2015_Jul_21_1200	s	s	11	2	SIC	496	ABS	0	2	24RD	0	1	0.677260160446	None	None	None	None	1
1.7	2015_Jul_21_1200	s	s	11	2	SIC	497	RC	1	1	23MO	1	0	0.771184921265	-398.0	102.0	-395	112	1
1.7	2015_Jul_21_1200	s	s	11	2	SIC	498	ABS	1	1	24MO	0	1	1.99581408501	None	None	None	None	1
1.7	2015_Jul_21_1200	s	s	11	2	SIC	499	ABS	0	1	24RO	0	1	3.43393802643	None	None	None	None	1
1.7	2015_Jul_21_1200	s	s	11	2	SIC	500	RC	0	1	23RO	0	1	3.57245802879	385.0	-70.0	None	None	0
1.7	2015_Jul_21_1200	s	s	11	2	SIC	501	RC	2	0	23VC	1	0	0.523980855942	84.0	-162.0	80	-161	1
1.7	2015_Jul_21_1200	s	s	11	2	SIC	502	ABS	1	0	24MC	0	1	2.56038713455	None	None	None	None	1
1.7	2015_Jul_21_1200	s	s	11	2	SIC	503	ABS	2	0	24VC	0	1	0.547793149948	None	None	None	None	1
1.7	2015_Jul_21_1200	s	s	11	2	SIC	504	ABS	1	2	24MD	0	1	0.57053899765	None	None	None	None	1
1.7	2015_Jul_21_1200	s	s	11	2	SIC	505	RC	1	0	23MC	1	0	1.80025196075	385.0	329.0	383	319	1
1.7	2015_Jul_21_1200	s	s	11	2	SIC	506	ABS	0	2	24RD	0	1	1.57667899132	None	None	None	None	1
1.7	2015_Jul_21_1200	s	s	11	2	SIC	507	ABS	2	1	24VO	0	1	0.498367071152	None	None	None	None	1
1.7	2015_Jul_21_1200	s	s	11	2	SIC	508	RC	2	1	23VO	1	0	0.594655990601	508.0	271.0	508	268	1
1.7	2015_Jul_21_1200	s	s	11	2	SIC	509	ABS	2	2	24VD	0	1	0.582822084427	None	None	None	None	1
1.7	2015_Jul_21_1200	s	s	11	2	SIC	510	RC	1	2	23MD	1	0	0.500587940216	393.0	130.0	392	131	1
1.7	2015_Jul_21_1200	s	s	11	2	SIC	511	RC	0	2	23RD	1	0	0.5290350914	127.0	-308.0	126	-311	1
1.7	2015_Jul_21_1200	s	s	11	2	SIC	512	RC	2	2	23VD	1	0	0.50062417984	-474.0	381.0	-474	368	1
1.7	2015_Jul_21_1200	s	s	11	2	SIC	513	ABS	2	0	24VC	0	1	0.642109870911	None	None	None	None	1
1.7	2015_Jul_21_1200	s	s	11	2	SIC	514	ABS	1	1	24MO	0	1	1.77677607536	None	None	None	None	1
1.7	2015_Jul_21_1200	s	s	11	2	SIC	515	RC	0	2	23RD	1	0	0.534353017807	-445.0	301.0	-443	302	1
1.7	2015_Jul_21_1200	s	s	11	2	SIC	516	ABS	0	1	24RO	0	1	2.00958800316	None	None	None	None	1
1.7	2015_Jul_21_1200	s	s	11	2	SIC	517	RC	2	0	23VC	1	0	0.38777589798	13.0	293.0	7	291	1
1.7	2015_Jul_21_1200	s	s	11	2	SIC	518	RC	1	2	23MD	1	0	0.453654050827	150.0	220.0	155	222	1
1.7	2015_Jul_21_1200	s	s	11	2	SIC	519	RC	2	1	23VO	1	0	0.653103113174	-464.0	300.0	-467	299	1
1.7	2015_Jul_21_1200	s	s	11	2	SIC	520	ABS	0	2	24RD	0	1	0.983310937881	None	None	None	None	1
1.7	2015_Jul_21_1200	s	s	11	2	SIC	521	RC	2	2	23VD	1	0	0.477565050125	65.0	-258.0	67	-258	1
1.7	2015_Jul_21_1200	s	s	11	2	SIC	522	ABS	2	2	24VD	0	1	0.676610946655	None	None	None	None	1
1.7	2015_Jul_21_1200	s	s	11	2	SIC	523	ABS	2	1	24VO	0	1	0.568162918091	None	None	None	None	1
1.7	2015_Jul_21_1200	s	s	11	2	SIC	524	RC	0	1	23RO	1	0	1.07730197906	197.0	-88.0	202	-79	1
1.7	2015_Jul_21_1200	s	s	11	2	SIC	525	RC	1	1	23MO	1	0	1.48874187469	398.0	300.0	403	304	1
1.7	2015_Jul_21_1200	s	s	11	2	SIC	526	RC	1	0	23MC	1	0	0.535927057266	-491.0	34.0	53	266	0
1.7	2015_Jul_21_1200	s	s	11	2	SIC	527	ABS	1	2	24MD	0	1	0.835022211075	None	None	None	None	1
1.7	2015_Jul_21_1200	s	s	11	2	SIC	528	ABS	1	0	24MC	0	1	1.58837914467	None	None	None	None	1
1.7	2015_Jul_21_1200	s	s	11	2	SIC	529	ABS	1	1	24MO	0	1	1.31766104698	None	None	None	None	1
1.7	2015_Jul_21_1200	s	s	11	2	SIC	530	ABS	0	1	24RO	0	1	3.48348879814	None	None	None	None	1
1.7	2015_Jul_21_1200	s	s	11	2	SIC	531	ABS	2	0	24VC	0	1	0.865367174149	None	None	None	None	1
1.7	2015_Jul_21_1200	s	s	11	2	SIC	532	RC	0	2	23RD	1	0	0.547008037567	239.0	209.0	244	211	1
1.7	2015_Jul_21_1200	s	s	11	2	SIC	533	ABS	1	0	24MC	0	1	0.959555864334	None	None	None	None	1
1.7	2015_Jul_21_1200	s	s	11	2	SIC	534	RC	1	0	23MC	1	0	3.09504079819	345.0	-149.0	345	-143	1
1.7	2015_Jul_21_1200	s	s	11	2	SIC	535	ABS	2	1	24VO	0	1	0.53760099411	None	None	None	None	1
1.7	2015_Jul_21_1200	s	s	11	2	SIC	536	RC	1	2	23MD	1	0	0.547683954239	374.0	-85.0	379	-79	1
1.7	2015_Jul_21_1200	s	s	11	2	SIC	537	ABS	1	2	24MD	0	1	0.705630779266	None	None	None	None	1
1.7	2015_Jul_21_1200	s	s	11	2	SIC	538	RC	2	0	23VC	1	0	0.524163007736	-504.0	-73.0	-501	-72	1
1.7	2015_Jul_21_1200	s	s	11	2	SIC	539	RC	2	1	23VO	1	0	0.512364864349	255.0	149.0	248	146	1
1.7	2015_Jul_21_1200	s	s	11	2	SIC	540	RC	1	1	23MO	1	0	0.950042963028	-198.0	-75.0	-199	-66	1
1.7	2015_Jul_21_1200	s	s	11	2	SIC	541	ABS	2	2	24VD	0	1	0.573250770569	None	None	None	None	1
1.7	2015_Jul_21_1200	s	s	11	2	SIC	542	ABS	0	2	24RD	0	1	0.71741104126	None	None	None	None	1
1.7	2015_Jul_21_1200	s	s	11	2	SIC	543	RC	2	2	23VD	1	0	0.497488975525	-509.0	40.0	-511	43	1
1.7	2015_Jul_21_1200	s	s	11	2	SIC	544	RC	0	1	23RO	1	0	2.5742380619	434.0	15.0	443	19	1
1.7	2015_Jul_21_1200	s	s	11	2	SIC	545	ABS	1	2	24MD	0	1	0.811472892761	None	None	None	None	1
1.7	2015_Jul_21_1200	s	s	11	2	SIC	546	ABS	0	2	24RD	0	1	0.705549955368	None	None	None	None	1
1.7	2015_Jul_21_1200	s	s	11	2	SIC	547	ABS	2	0	24VC	0	1	0.585474967957	None	None	None	None	1
1.7	2015_Jul_21_1200	s	s	11	2	SIC	548	RC	1	1	23MO	1	0	1.48922896385	-106.0	-120.0	-99	-112	1
1.7	2015_Jul_21_1200	s	s	11	2	SIC	549	RC	2	1	23VO	1	0	0.618074178696	408.0	-409.0	410	-407	1
1.7	2015_Jul_21_1200	s	s	11	2	SIC	550	ABS	1	0	24MC	0	1	3.06759881973	None	None	None	None	1
1.7	2015_Jul_21_1200	s	s	11	2	SIC	551	RC	2	2	23VD	1	0	0.493788003922	-151.0	31.0	-154	33	1
1.7	2015_Jul_21_1200	s	s	11	2	SIC	552	ABS	1	1	24MO	0	1	2.10143017769	None	None	None	None	1
1.7	2015_Jul_21_1200	s	s	11	2	SIC	553	ABS	2	1	24VO	0	1	0.505894899368	None	None	None	None	1
1.7	2015_Jul_21_1200	s	s	11	2	SIC	554	ABS	0	1	24RO	0	1	4.07218694687	None	None	None	None	1
1.7	2015_Jul_21_1200	s	s	11	2	SIC	555	ABS	2	2	24VD	0	1	0.500254154205	None	None	None	None	1
1.7	2015_Jul_21_1200	s	s	11	2	SIC	556	RC	0	1	23RO	1	0	0.988085985184	8.0	-66.0	10	-57	1
1.7	2015_Jul_21_1200	s	s	11	2	SIC	557	RC	1	2	23MD	1	0	0.51310801506	-502.0	76.0	-494	72	1
1.7	2015_Jul_21_1200	s	s	11	2	SIC	558	RC	1	0	23MC	1	0	0.983209133148	236.0	-53.0	234	-45	1
1.7	2015_Jul_21_1200	s	s	11	2	SIC	559	RC	0	2	23RD	1	0	0.464797973633	217.0	-373.0	217	-376	1
1.7	2015_Jul_21_1200	s	s	11	2	SIC	560	RC	2	0	23VC	1	0	0.618937015533	63.0	41.0	73	46	1
1.7	2015_Jul_21_1200	s	s	11	2	SIC	561	ABS	2	2	24VD	0	1	0.619431018829	None	None	None	None	1
1.7	2015_Jul_21_1200	s	s	11	2	SIC	562	ABS	1	2	24MD	0	1	0.658576965332	None	None	None	None	1
1.7	2015_Jul_21_1200	s	s	11	2	SIC	563	RC	1	1	23MO	1	0	0.69024682045	149.0	-58.0	160	-56	1
1.7	2015_Jul_21_1200	s	s	11	2	SIC	564	ABS	0	2	24RD	0	1	0.524131059647	None	None	None	None	1
1.7	2015_Jul_21_1200	s	s	11	2	SIC	565	RC	0	2	23RD	1	0	0.536205053329	-335.0	-278.0	-343	-279	1
1.7	2015_Jul_21_1200	s	s	11	2	SIC	566	RC	0	1	23RO	1	0	0.84679889679	-429.0	74.0	-437	72	1
1.7	2015_Jul_21_1200	s	s	11	2	SIC	567	RC	1	0	23MC	1	0	1.19752383232	530.0	106.0	537	110	1
1.7	2015_Jul_21_1200	s	s	11	2	SIC	568	RC	2	0	23VC	1	0	0.770617008209	-356.0	-191.0	-366	-192	1
1.7	2015_Jul_21_1200	s	s	11	2	SIC	569	ABS	2	1	24VO	0	1	0.576154947281	None	None	None	None	1
1.7	2015_Jul_21_1200	s	s	11	2	SIC	570	ABS	1	0	24MC	0	1	0.811980962753	None	None	None	None	1
1.7	2015_Jul_21_1200	s	s	11	2	SIC	571	ABS	1	1	24MO	0	1	1.14114093781	None	None	None	None	1
1.7	2015_Jul_21_1200	s	s	11	2	SIC	572	ABS	0	1	24RO	0	1	3.46678519249	None	None	None	None	1
1.7	2015_Jul_21_1200	s	s	11	2	SIC	573	ABS	2	0	24VC	0	1	0.561044931412	None	None	None	None	1
1.7	2015_Jul_21_1200	s	s	11	2	SIC	574	RC	2	2	23VD	1	0	0.547647953033	-331.0	232.0	-329	237	1
1.7	2015_Jul_21_1200	s	s	11	2	SIC	575	RC	2	1	23VO	1	0	0.552592992783	65.0	288.0	60	277	1
1.7	2015_Jul_21_1200	s	s	11	2	SIC	576	RC	1	2	23MD	1	0	0.465040922165	-34.0	305.0	-25	301	1
1.7	2015_Jul_21_1200	s	s	11	2	SIC	577	ABS	2	2	24VD	0	1	0.526584863663	None	None	None	None	1
1.7	2015_Jul_21_1200	s	s	11	2	SIC	578	ABS	1	2	24MD	0	1	0.842128992081	None	None	None	None	1
1.7	2015_Jul_21_1200	s	s	11	2	SIC	579	RC	2	1	23VO	1	0	0.517110109329	-193.0	276.0	-197	272	1
1.7	2015_Jul_21_1200	s	s	11	2	SIC	580	ABS	1	0	24MC	0	1	1.41184282303	None	None	None	None	1
1.7	2015_Jul_21_1200	s	s	11	2	SIC	581	RC	0	2	23RD	1	0	0.529083013535	280.0	-266.0	282	-271	1
1.7	2015_Jul_21_1200	s	s	11	2	SIC	582	ABS	1	1	24MO	0	1	1.71271085739	None	None	None	None	1
1.7	2015_Jul_21_1200	s	s	11	2	SIC	583	ABS	2	0	24VC	0	1	0.623234987259	None	None	None	None	1
1.7	2015_Jul_21_1200	s	s	11	2	SIC	584	ABS	0	2	24RD	0	1	0.029088973999	None	None	None	None	1
1.7	2015_Jul_21_1200	s	s	11	2	SIC	585	ABS	0	1	24RO	0	1	4.61345291138	None	None	None	None	1
1.7	2015_Jul_21_1200	s	s	11	2	SIC	586	RC	0	1	23RO	1	0	3.53052401543	3.0	-269.0	1	-265	1
1.7	2015_Jul_21_1200	s	s	11	2	SIC	587	RC	1	2	23MD	1	0	0.535876989365	-535.0	-69.0	-539	-64	1
1.7	2015_Jul_21_1200	s	s	11	2	SIC	588	RC	1	0	23MC	1	0	1.21167206764	-412.0	-50.0	-406	-49	1
1.7	2015_Jul_21_1200	s	s	11	2	SIC	589	RC	2	0	23VC	1	0	0.470196962357	-267.0	25.0	-267	20	1
1.7	2015_Jul_21_1200	s	s	11	2	SIC	590	ABS	2	1	24VO	0	1	0.60892701149	None	None	None	None	1
1.7	2015_Jul_21_1200	s	s	11	2	SIC	591	RC	1	1	23MO	1	0	0.936074972153	-414.0	46.0	-420	44	1
1.7	2015_Jul_21_1200	s	s	11	2	SIC	592	RC	2	2	23VD	1	0	0.51726603508	-392.0	409.0	-397	412	1
