Version	Date	Stimuli	Method	Subject	Session	Condition	Trial	Target	Channel1	Channel2	Distractors	LMouseButton	RMouseButton	RT	TargetX	TargetY	ResponseX	ResponseY	Correct
1.7	2015_Jul_20_1212	s	s	11	1	Capacity	1	ABS	1	0	24MC	0	1	5.92548704147	None	None	None	None	1
1.7	2015_Jul_20_1212	s	s	11	1	Capacity	2	ABS	2	0	24VC	0	1	1.68931484222	None	None	None	None	1
1.7	2015_Jul_20_1212	s	s	11	1	Capacity	3	RC	2	0	23VC	1	0	1.05384922028	-326.0	-159.0	-321	-167	1
1.7	2015_Jul_20_1212	s	s	11	1	Capacity	4	RC	1	0	23MC	1	0	2.10358309746	-183.0	-92.0	-185	-87	1
1.7	2015_Jul_20_1212	s	s	11	1	Capacity	5	ABS	1	0	24MC	0	1	3.20093894005	None	None	None	None	1
1.7	2015_Jul_20_1212	s	s	11	1	Capacity	6	ABS	2	0	24VC	0	1	1.1246201992	None	None	None	None	1
1.7	2015_Jul_20_1212	s	s	11	1	Capacity	7	RC	2	0	23VC	1	0	1.01977992058	-163.0	-220.0	-159	-217	1
1.7	2015_Jul_20_1212	s	s	11	1	Capacity	8	RC	1	0	23MC	1	0	4.50745606422	-347.0	4.0	-348	1	1
1.7	2015_Jul_20_1212	s	s	11	1	Capacity	9	ABS	1	0	24MC	0	1	8.08575391769	None	None	None	None	1
1.7	2015_Jul_20_1212	s	s	11	1	Capacity	10	RC	1	0	23MC	1	0	2.03559613228	153.0	8.0	157	9	1
1.7	2015_Jul_20_1212	s	s	11	1	Capacity	11	RC	2	0	23VC	1	0	1.23185801506	-58.0	-138.0	-57	-138	1
1.7	2015_Jul_20_1212	s	s	11	1	Capacity	12	ABS	2	0	24VC	0	1	1.77676796913	None	None	None	None	1
1.7	2015_Jul_20_1212	s	s	11	1	Capacity	13	ABS	2	0	24VC	0	1	2.10627317429	None	None	None	None	1
1.7	2015_Jul_20_1212	s	s	11	1	Capacity	14	RC	2	0	23VC	1	0	1.77709889412	192.0	31.0	200	32	1
1.7	2015_Jul_20_1212	s	s	11	1	Capacity	15	ABS	1	0	24MC	0	1	4.30396008492	None	None	None	None	1
1.7	2015_Jul_20_1212	s	s	11	1	Capacity	16	RC	1	0	23MC	1	0	4.61773204803	438.0	337.0	440	341	1
1.7	2015_Jul_20_1212	s	s	11	1	Capacity	17	RC	2	0	23VC	1	0	1.20697402954	456.0	-82.0	453	-83	1
1.7	2015_Jul_20_1212	s	s	11	1	Capacity	18	ABS	1	0	24MC	0	1	3.93731498718	None	None	None	None	1
1.7	2015_Jul_20_1212	s	s	11	1	Capacity	19	RC	1	0	23MC	1	0	1.27715587616	-438.0	140.0	-431	135	1
1.7	2015_Jul_20_1212	s	s	11	1	Capacity	20	ABS	2	0	24VC	0	1	1.98353385925	None	None	None	None	1
1.7	2015_Jul_20_1212	s	s	11	1	Capacity	21	ABS	1	0	24MC	0	1	11.3699228764	None	None	None	None	1
1.7	2015_Jul_20_1212	s	s	11	1	Capacity	22	RC	2	0	23VC	1	0	1.51291489601	107.0	-13.0	112	-7	1
1.7	2015_Jul_20_1212	s	s	11	1	Capacity	23	ABS	2	0	24VC	0	1	1.4706799984	None	None	None	None	1
1.7	2015_Jul_20_1212	s	s	11	1	Capacity	24	RC	1	0	23MC	1	0	1.95319199562	534.0	-158.0	540	-160	1
1.7	2015_Jul_20_1212	s	s	11	1	Capacity	25	RC	1	0	23MC	1	0	2.7772269249	-498.0	-236.0	-497	-228	1
1.7	2015_Jul_20_1212	s	s	11	1	Capacity	26	RC	2	0	23VC	1	0	1.25892210007	-285.0	192.0	-276	194	1
1.7	2015_Jul_20_1212	s	s	11	1	Capacity	27	ABS	2	0	24VC	0	1	2.68996596336	None	None	None	None	1
1.7	2015_Jul_20_1212	s	s	11	1	Capacity	28	ABS	1	0	24MC	0	1	6.52741503716	None	None	None	None	1
1.7	2015_Jul_20_1212	s	s	11	1	Capacity	29	ABS	1	0	24MC	0	1	10.7812359333	None	None	None	None	1
1.7	2015_Jul_20_1212	s	s	11	1	Capacity	30	ABS	2	0	24VC	0	1	3.03617095947	None	None	None	None	1
1.7	2015_Jul_20_1212	s	s	11	1	Capacity	31	RC	2	0	23VC	1	0	0.84161901474	-187.0	-28.0	-183	-31	1
1.7	2015_Jul_20_1212	s	s	11	1	Capacity	32	RC	1	0	23MC	1	0	11.2352931499	-474.0	338.0	-480	340	1
1.7	2015_Jul_20_1212	s	s	11	1	Capacity	33	ABS	1	0	24MC	0	1	11.4499249458	None	None	None	None	1
1.7	2015_Jul_20_1212	s	s	11	1	Capacity	34	ABS	2	0	24VC	0	1	4.78703689575	None	None	None	None	1
1.7	2015_Jul_20_1212	s	s	11	1	Capacity	35	RC	1	0	23MC	1	0	2.2244079113	325.0	-311.0	326	-313	1
1.7	2015_Jul_20_1212	s	s	11	1	Capacity	36	RC	2	0	23VC	1	0	1.32436013222	-458.0	36.0	-451	32	1
1.7	2015_Jul_20_1212	s	s	11	1	Capacity	37	RC	1	0	23MC	1	0	1.51303482056	-258.0	-134.0	-251	-139	1
1.7	2015_Jul_20_1212	s	s	11	1	Capacity	38	ABS	2	0	24VC	0	1	2.11790585518	None	None	None	None	1
1.7	2015_Jul_20_1212	s	s	11	1	Capacity	39	RC	2	0	23VC	1	0	1.07044816017	189.0	-163.0	196	-168	1
1.7	2015_Jul_20_1212	s	s	11	1	Capacity	40	ABS	1	0	24MC	0	1	3.47171902657	None	None	None	None	1
1.7	2015_Jul_20_1212	s	s	11	1	Capacity	41	RC	1	0	23MC	1	0	1.60725998878	-214.0	-210.0	-216	-203	1
1.7	2015_Jul_20_1212	s	s	11	1	Capacity	42	RC	2	0	23VC	1	0	3.44297719002	162.0	197.0	156	198	1
1.7	2015_Jul_20_1212	s	s	11	1	Capacity	43	ABS	1	0	24MC	0	1	9.67477488518	None	None	None	None	1
1.7	2015_Jul_20_1212	s	s	11	1	Capacity	44	ABS	2	0	24VC	0	1	3.01640486717	None	None	None	None	1
1.7	2015_Jul_20_1212	s	s	11	1	Capacity	45	ABS	1	0	24MC	0	1	3.560587883	None	None	None	None	1
1.7	2015_Jul_20_1212	s	s	11	1	Capacity	46	ABS	2	0	24VC	0	1	4.3378610611	None	None	None	None	1
1.7	2015_Jul_20_1212	s	s	11	1	Capacity	47	RC	1	0	23MC	1	0	3.47171211243	50.0	-9.0	51	-8	1
1.7	2015_Jul_20_1212	s	s	11	1	Capacity	48	RC	2	0	23VC	1	0	1.25878405571	-193.0	-216.0	-192	-220	1
1.7	2015_Jul_20_1212	s	s	11	1	Capacity	49	ABS	2	0	24VC	0	1	1.78373289108	None	None	None	None	1
1.7	2015_Jul_20_1212	s	s	11	1	Capacity	50	RC	2	0	23VC	1	0	0.806679010391	-94.0	379.0	-95	371	1
1.7	2015_Jul_20_1212	s	s	11	1	Capacity	51	ABS	1	0	24MC	0	1	3.13040304184	None	None	None	None	1
1.7	2015_Jul_20_1212	s	s	11	1	Capacity	52	RC	1	0	23MC	1	0	2.45460009575	-144.0	-346.0	-153	-346	1
1.7	2015_Jul_20_1212	s	s	11	1	Capacity	53	RC	2	0	23VC	1	0	3.69521307945	45.0	350.0	39	344	1
1.7	2015_Jul_20_1212	s	s	11	1	Capacity	54	ABS	2	0	24VC	0	1	2.87140917778	None	None	None	None	1
1.7	2015_Jul_20_1212	s	s	11	1	Capacity	55	ABS	1	0	24MC	0	1	5.26061296463	None	None	None	None	1
1.7	2015_Jul_20_1212	s	s	11	1	Capacity	56	RC	1	0	23MC	1	0	1.91309094429	-311.0	132.0	-317	134	1
1.7	2015_Jul_20_1212	s	s	11	1	Capacity	57	RC	2	0	23VC	1	0	1.34118509293	-1.0	333.0	2	337	1
1.7	2015_Jul_20_1212	s	s	11	1	Capacity	58	ABS	2	0	24VC	0	1	2.49212694168	None	None	None	None	1
1.7	2015_Jul_20_1212	s	s	11	1	Capacity	59	ABS	1	0	24MC	0	1	12.523152113	None	None	None	None	1
1.7	2015_Jul_20_1212	s	s	11	1	Capacity	60	RC	1	0	23MC	1	0	4.1494448185	381.0	-210.0	377	-222	1
1.7	2015_Jul_20_1212	s	s	11	1	Capacity	61	RC	1	0	23MC	1	0	3.43605780602	-412.0	-214.0	-408	-227	1
1.7	2015_Jul_20_1212	s	s	11	1	Capacity	62	ABS	2	0	24VC	0	1	1.13827514648	None	None	None	None	1
1.7	2015_Jul_20_1212	s	s	11	1	Capacity	63	ABS	1	0	24MC	0	1	7.27362799644	None	None	None	None	1
1.7	2015_Jul_20_1212	s	s	11	1	Capacity	64	RC	2	0	23VC	1	0	1.01165604591	274.0	36.0	285	40	1
1.7	2015_Jul_20_1212	s	s	11	1	Capacity	65	ABS	1	0	24MC	0	1	4.89596915245	None	None	None	None	1
1.7	2015_Jul_20_1212	s	s	11	1	Capacity	66	ABS	2	0	24VC	0	1	1.85914301872	None	None	None	None	1
1.7	2015_Jul_20_1212	s	s	11	1	Capacity	67	RC	1	0	23MC	1	0	1.73630714417	80.0	-381.0	85	-380	1
1.7	2015_Jul_20_1212	s	s	11	1	Capacity	68	RC	2	0	23VC	1	0	1.47762608528	-157.0	167.0	-149	173	1
1.7	2015_Jul_20_1212	s	s	11	1	Capacity	69	ABS	1	0	24MC	0	1	6.16717505455	None	None	None	None	1
1.7	2015_Jul_20_1212	s	s	11	1	Capacity	70	RC	2	0	23VC	1	0	0.854772090912	-93.0	67.0	-89	77	1
1.7	2015_Jul_20_1212	s	s	11	1	Capacity	71	ABS	2	0	24VC	0	1	4.17549204826	None	None	None	None	1
1.7	2015_Jul_20_1212	s	s	11	1	Capacity	72	RC	1	0	23MC	1	0	2.06722402573	154.0	-198.0	159	-192	1
1.7	2015_Jul_20_1212	s	s	11	1	Capacity	73	ABS	1	0	24MC	0	1	3.93066215515	None	None	None	None	1
1.7	2015_Jul_20_1212	s	s	11	1	Capacity	74	RC	1	0	23MC	1	0	2.41004300117	-111.0	356.0	-99	365	1
1.7	2015_Jul_20_1212	s	s	11	1	Capacity	75	ABS	2	0	24VC	0	1	3.84344005585	None	None	None	None	1
1.7	2015_Jul_20_1212	s	s	11	1	Capacity	76	RC	2	0	23VC	1	0	0.835068225861	527.0	360.0	536	362	1
1.7	2015_Jul_20_1212	s	s	11	1	Capacity	77	RC	2	0	23VC	1	0	1.04289889336	-422.0	408.0	-410	410	1
1.7	2015_Jul_20_1212	s	s	11	1	Capacity	78	ABS	1	0	24MC	0	1	2.20775079727	None	None	None	None	1
1.7	2015_Jul_20_1212	s	s	11	1	Capacity	79	RC	1	0	23MC	1	0	4.7033970356	-516.0	-199.0	-515	-198	1
1.7	2015_Jul_20_1212	s	s	11	1	Capacity	80	ABS	2	0	24VC	0	1	2.36499285698	None	None	None	None	1
1.7	2015_Jul_20_1212	s	s	11	1	Capacity	81	RC	2	0	23VC	1	0	0.988093852997	79.0	-25.0	74	-32	1
1.7	2015_Jul_20_1212	s	s	11	1	Capacity	82	ABS	2	0	24VC	0	1	2.91844415665	None	None	None	None	1
1.7	2015_Jul_20_1212	s	s	11	1	Capacity	83	ABS	1	0	24MC	0	1	5.62945199013	None	None	None	None	1
1.7	2015_Jul_20_1212	s	s	11	1	Capacity	84	RC	1	0	23MC	1	0	1.41184806824	-338.0	-83.0	-351	-77	1
1.7	2015_Jul_20_1212	s	s	11	1	Capacity	85	ABS	1	0	24MC	0	1	5.62265205383	None	None	None	None	1
1.7	2015_Jul_20_1212	s	s	11	1	Capacity	86	RC	2	0	23VC	1	0	0.831830978394	-191.0	-374.0	-188	-371	1
1.7	2015_Jul_20_1212	s	s	11	1	Capacity	87	ABS	2	0	24VC	0	1	4.33093810081	None	None	None	None	1
1.7	2015_Jul_20_1212	s	s	11	1	Capacity	88	RC	1	0	23MC	1	0	1.52432608604	-237.0	-78.0	-249	-70	1
1.7	2015_Jul_20_1212	s	s	11	1	Capacity	89	ABS	1	0	24MC	0	1	1.8879108429	None	None	None	None	1
1.7	2015_Jul_20_1212	s	s	11	1	Capacity	90	RC	2	0	23VC	1	0	0.941022872925	520.0	-192.0	519	-183	1
1.7	2015_Jul_20_1212	s	s	11	1	Capacity	91	ABS	2	0	24VC	0	1	2.85954403877	None	None	None	None	1
1.7	2015_Jul_20_1212	s	s	11	1	Capacity	92	RC	1	0	23MC	1	0	0.846834897995	32.0	226.0	31	227	1
1.7	2015_Jul_20_1212	s	s	11	1	Capacity	1	ABS	0	2	24RD	0	1	2.45232391357	None	None	None	None	1
1.7	2015_Jul_20_1212	s	s	11	1	Capacity	2	ABS	0	1	24RO	0	1	7.55609583855	None	None	None	None	1
1.7	2015_Jul_20_1212	s	s	11	1	Capacity	3	RC	0	2	23RD	1	0	0.891389131546	-175.0	-116.0	-175	-116	1
1.7	2015_Jul_20_1212	s	s	11	1	Capacity	4	RC	0	1	23RO	0	1	3.57762098312	219.0	-341.0	None	None	0
1.7	2015_Jul_20_1212	s	s	11	1	Capacity	5	ABS	0	1	24RO	0	1	5.9842300415	None	None	None	None	1
1.7	2015_Jul_20_1212	s	s	11	1	Capacity	6	RC	0	2	23RD	1	0	0.98433303833	-430.0	-344.0	-430	-336	1
1.7	2015_Jul_20_1212	s	s	11	1	Capacity	7	RC	0	1	23RO	1	0	2.33036804199	-361.0	-195.0	-357	-188	1
1.7	2015_Jul_20_1212	s	s	11	1	Capacity	8	ABS	0	2	24RD	0	1	1.72364902496	None	None	None	None	1
1.7	2015_Jul_20_1212	s	s	11	1	Capacity	9	ABS	0	1	24RO	0	1	4.64382505417	None	None	None	None	1
1.7	2015_Jul_20_1212	s	s	11	1	Capacity	10	RC	0	1	23RO	0	1	4.34273099899	32.0	-297.0	None	None	0
1.7	2015_Jul_20_1212	s	s	11	1	Capacity	11	ABS	0	2	24RD	0	1	2.56528902054	None	None	None	None	1
1.7	2015_Jul_20_1212	s	s	11	1	Capacity	12	RC	0	2	23RD	1	0	0.864159107208	-332.0	61.0	-322	60	1
1.7	2015_Jul_20_1212	s	s	11	1	Capacity	13	RC	0	1	23RO	1	0	3.24803805351	-57.0	-272.0	-57	-268	1
1.7	2015_Jul_20_1212	s	s	11	1	Capacity	14	ABS	0	1	24RO	0	1	5.46755409241	None	None	None	None	1
1.7	2015_Jul_20_1212	s	s	11	1	Capacity	15	ABS	0	2	24RD	0	1	1.80718493462	None	None	None	None	1
1.7	2015_Jul_20_1212	s	s	11	1	Capacity	16	RC	0	2	23RD	1	0	1.01164603233	95.0	139.0	104	142	1
1.7	2015_Jul_20_1212	s	s	11	1	Capacity	17	ABS	0	2	24RD	0	1	1.29410409927	None	None	None	None	1
1.7	2015_Jul_20_1212	s	s	11	1	Capacity	18	ABS	0	1	24RO	0	1	4.98498106003	None	None	None	None	1
1.7	2015_Jul_20_1212	s	s	11	1	Capacity	19	RC	0	2	23RD	1	0	1.51275706291	521.0	-322.0	523	-320	1
1.7	2015_Jul_20_1212	s	s	11	1	Capacity	20	RC	0	1	23RO	1	0	8.9047369957	-508.0	-32.0	-502	-31	1
1.7	2015_Jul_20_1212	s	s	11	1	Capacity	21	ABS	0	1	24RO	0	1	5.97878789902	None	None	None	None	1
1.7	2015_Jul_20_1212	s	s	11	1	Capacity	22	RC	0	2	23RD	1	0	0.729137897491	-149.0	138.0	-145	133	1
1.7	2015_Jul_20_1212	s	s	11	1	Capacity	23	ABS	0	2	24RD	0	1	1.62417197227	None	None	None	None	1
1.7	2015_Jul_20_1212	s	s	11	1	Capacity	24	RC	0	1	23RO	1	0	4.14950799942	258.0	337.0	262	333	1
1.7	2015_Jul_20_1212	s	s	11	1	Capacity	25	RC	0	1	23RO	1	0	2.40719389915	119.0	-307.0	127	-301	1
1.7	2015_Jul_20_1212	s	s	11	1	Capacity	26	RC	0	2	23RD	1	0	1.06737494469	239.0	2.0	241	-8	1
1.7	2015_Jul_20_1212	s	s	11	1	Capacity	27	ABS	0	1	24RO	0	1	12.7066278458	None	None	None	None	1
1.7	2015_Jul_20_1212	s	s	11	1	Capacity	28	ABS	0	2	24RD	0	1	2.68962001801	None	None	None	None	1
1.7	2015_Jul_20_1212	s	s	11	1	Capacity	29	RC	0	2	23RD	1	0	0.811560153961	252.0	198.0	261	195	1
1.7	2015_Jul_20_1212	s	s	11	1	Capacity	30	ABS	0	2	24RD	0	1	2.47119402885	None	None	None	None	1
1.7	2015_Jul_20_1212	s	s	11	1	Capacity	31	ABS	0	1	24RO	0	1	4.67915201187	None	None	None	None	1
1.7	2015_Jul_20_1212	s	s	11	1	Capacity	32	RC	0	1	23RO	1	0	3.04307699203	328.0	-337.0	333	-335	1
1.7	2015_Jul_20_1212	s	s	11	1	Capacity	33	ABS	0	2	24RD	0	1	6.69175601006	None	None	None	None	1
1.7	2015_Jul_20_1212	s	s	11	1	Capacity	34	RC	0	2	23RD	1	0	0.764415979385	158.0	246.0	159	232	1
1.7	2015_Jul_20_1212	s	s	11	1	Capacity	35	RC	0	1	23RO	1	0	4.94292783737	-490.0	288.0	-479	295	1
1.7	2015_Jul_20_1212	s	s	11	1	Capacity	36	ABS	0	1	24RO	0	1	4.91947388649	None	None	None	None	1
1.7	2015_Jul_20_1212	s	s	11	1	Capacity	37	ABS	0	1	24RO	0	1	7.72090196609	None	None	None	None	1
1.7	2015_Jul_20_1212	s	s	11	1	Capacity	38	RC	0	1	23RO	0	1	3.66006803513	-521.0	303.0	None	None	0
1.7	2015_Jul_20_1212	s	s	11	1	Capacity	39	ABS	0	2	24RD	0	1	3.07838892937	None	None	None	None	1
1.7	2015_Jul_20_1212	s	s	11	1	Capacity	40	RC	0	2	23RD	1	0	0.976129055023	308.0	214.0	307	208	1
1.7	2015_Jul_20_1212	s	s	11	1	Capacity	41	ABS	0	1	24RO	0	1	4.58977007866	None	None	None	None	1
1.7	2015_Jul_20_1212	s	s	11	1	Capacity	42	RC	0	1	23RO	1	0	1.67076206207	85.0	279.0	88	280	1
1.7	2015_Jul_20_1212	s	s	11	1	Capacity	43	RC	0	2	23RD	1	0	0.999921798706	109.0	-38.0	117	-38	1
1.7	2015_Jul_20_1212	s	s	11	1	Capacity	44	ABS	0	2	24RD	0	1	1.75961184502	None	None	None	None	1
1.7	2015_Jul_20_1212	s	s	11	1	Capacity	45	RC	0	1	23RO	1	0	4.85726284981	423.0	-187.0	426	-194	1
1.7	2015_Jul_20_1212	s	s	11	1	Capacity	46	ABS	0	2	24RD	0	1	1.24704909325	None	None	None	None	1
1.7	2015_Jul_20_1212	s	s	11	1	Capacity	47	ABS	0	1	24RO	0	1	6.46816110611	None	None	None	None	1
1.7	2015_Jul_20_1212	s	s	11	1	Capacity	48	RC	0	2	23RD	1	0	0.811470985413	340.0	276.0	348	282	1
1.7	2015_Jul_20_1212	s	s	11	1	Capacity	49	RC	0	2	23RD	1	0	0.736069917679	1.0	126.0	-4	125	1
1.7	2015_Jul_20_1212	s	s	11	1	Capacity	50	RC	0	1	23RO	0	1	4.72598195076	-156.0	264.0	None	None	0
1.7	2015_Jul_20_1212	s	s	11	1	Capacity	51	ABS	0	1	24RO	0	1	3.30202913284	None	None	None	None	1
1.7	2015_Jul_20_1212	s	s	11	1	Capacity	52	ABS	0	2	24RD	0	1	1.91296100616	None	None	None	None	1
1.7	2015_Jul_20_1212	s	s	11	1	Capacity	53	ABS	0	2	24RD	0	1	2.17691087723	None	None	None	None	1
1.7	2015_Jul_20_1212	s	s	11	1	Capacity	54	RC	0	2	23RD	1	0	1.05872583389	258.0	-343.0	267	-341	1
1.7	2015_Jul_20_1212	s	s	11	1	Capacity	55	ABS	0	1	24RO	0	1	5.64925885201	None	None	None	None	1
1.7	2015_Jul_20_1212	s	s	11	1	Capacity	56	RC	0	1	23RO	1	0	6.02062797546	-481.0	-57.0	-468	-49	1
1.7	2015_Jul_20_1212	s	s	11	1	Capacity	57	RC	0	2	23RD	1	0	0.724721193314	-152.0	-178.0	-141	-176	1
1.7	2015_Jul_20_1212	s	s	11	1	Capacity	58	RC	0	1	23RO	1	0	1.83542704582	-156.0	117.0	-157	109	1
1.7	2015_Jul_20_1212	s	s	11	1	Capacity	59	ABS	0	1	24RO	0	1	7.0914080143	None	None	None	None	1
1.7	2015_Jul_20_1212	s	s	11	1	Capacity	60	ABS	0	2	24RD	0	1	1.44716691971	None	None	None	None	1
1.7	2015_Jul_20_1212	s	s	11	1	Capacity	61	ABS	0	2	24RD	0	1	1.63534498215	None	None	None	None	1
1.7	2015_Jul_20_1212	s	s	11	1	Capacity	62	RC	0	1	23RO	1	0	0.905700922012	-196.0	10.0	-197	10	1
1.7	2015_Jul_20_1212	s	s	11	1	Capacity	63	ABS	0	1	24RO	0	1	2.74183607101	None	None	None	None	1
1.7	2015_Jul_20_1212	s	s	11	1	Capacity	64	RC	0	2	23RD	1	0	0.828701972961	308.0	-294.0	316	-296	1
1.7	2015_Jul_20_1212	s	s	11	1	Capacity	65	RC	0	2	23RD	1	0	0.80573797226	-134.0	-73.0	-133	-66	1
1.7	2015_Jul_20_1212	s	s	11	1	Capacity	66	RC	0	1	23RO	0	1	5.11958098412	-483.0	-138.0	None	None	0
1.7	2015_Jul_20_1212	s	s	11	1	Capacity	67	ABS	0	2	24RD	0	1	1.2553961277	None	None	None	None	1
1.7	2015_Jul_20_1212	s	s	11	1	Capacity	68	ABS	0	1	24RO	0	1	2.70160007477	None	None	None	None	1
1.7	2015_Jul_20_1212	s	s	11	1	Capacity	69	ABS	0	1	24RO	0	1	3.62104392052	None	None	None	None	1
1.7	2015_Jul_20_1212	s	s	11	1	Capacity	70	RC	0	1	23RO	1	0	2.46864199638	514.0	142.0	508	137	1
1.7	2015_Jul_20_1212	s	s	11	1	Capacity	71	RC	0	2	23RD	1	0	0.78444814682	17.0	76.0	12	78	1
1.7	2015_Jul_20_1212	s	s	11	1	Capacity	72	ABS	0	2	24RD	0	1	0.964587926865	None	None	None	None	1
1.7	2015_Jul_20_1212	s	s	11	1	Capacity	73	ABS	0	2	24RD	0	1	1.27055692673	None	None	None	None	1
1.7	2015_Jul_20_1212	s	s	11	1	Capacity	74	RC	0	2	23RD	1	0	0.870428085327	490.0	351.0	478	355	1
1.7	2015_Jul_20_1212	s	s	11	1	Capacity	75	RC	0	1	23RO	1	0	3.86660599709	-405.0	395.0	-406	394	1
1.7	2015_Jul_20_1212	s	s	11	1	Capacity	76	ABS	0	1	24RO	0	1	5.4321539402	None	None	None	None	1
1.7	2015_Jul_20_1212	s	s	11	1	Capacity	77	ABS	0	1	24RO	0	1	6.56736516953	None	None	None	None	1
1.7	2015_Jul_20_1212	s	s	11	1	Capacity	78	RC	0	2	23RD	1	0	0.961874961853	-406.0	-301.0	-409	-300	1
1.7	2015_Jul_20_1212	s	s	11	1	Capacity	79	ABS	0	2	24RD	0	1	1.10576701164	None	None	None	None	1
1.7	2015_Jul_20_1212	s	s	11	1	Capacity	80	RC	0	1	23RO	0	1	1.95062017441	-513.0	307.0	None	None	0
1.7	2015_Jul_20_1212	s	s	11	1	Capacity	81	RC	0	1	23RO	1	0	3.67870593071	345.0	194.0	353	196	1
1.7	2015_Jul_20_1212	s	s	11	1	Capacity	82	ABS	0	2	24RD	0	1	1.54774188995	None	None	None	None	1
1.7	2015_Jul_20_1212	s	s	11	1	Capacity	83	RC	0	2	23RD	1	0	0.714914798737	244.0	109.0	249	111	1
1.7	2015_Jul_20_1212	s	s	11	1	Capacity	84	ABS	0	1	24RO	0	1	4.69297504425	None	None	None	None	1
1.7	2015_Jul_20_1212	s	s	11	1	Capacity	85	RC	0	1	23RO	1	0	0.961263895035	-112.0	71.0	-102	73	1
1.7	2015_Jul_20_1212	s	s	11	1	Capacity	86	ABS	0	2	24RD	0	1	1.65632987022	None	None	None	None	1
1.7	2015_Jul_20_1212	s	s	11	1	Capacity	87	ABS	0	1	24RO	0	1	6.71531891823	None	None	None	None	1
1.7	2015_Jul_20_1212	s	s	11	1	Capacity	88	RC	0	2	23RD	1	0	0.958410978317	-265.0	-114.0	-271	-109	1
1.7	2015_Jul_20_1212	s	s	11	1	Capacity	89	RC	0	1	23RO	0	1	5.03716301918	-529.0	190.0	None	None	0
1.7	2015_Jul_20_1212	s	s	11	1	Capacity	90	ABS	0	1	24RO	0	1	8.55157017708	None	None	None	None	1
1.7	2015_Jul_20_1212	s	s	11	1	Capacity	91	RC	0	2	23RD	1	0	0.773603200912	-109.0	-111.0	-106	-111	1
1.7	2015_Jul_20_1212	s	s	11	1	Capacity	92	ABS	0	2	24RD	0	1	0.987977027893	None	None	None	None	1
1.7	2015_Jul_20_1212	s	s	11	1	SIC	1	RC	1	1	23MO	1	0	1.00656294823	220.0	-128.0	223	-123	1
1.7	2015_Jul_20_1212	s	s	11	1	SIC	2	RC	0	2	23RD	1	0	1.09385490417	355.0	-196.0	354	-191	1
1.7	2015_Jul_20_1212	s	s	11	1	SIC	3	RC	1	0	23MC	1	0	2.58890199661	-322.0	253.0	-328	261	1
1.7	2015_Jul_20_1212	s	s	11	1	SIC	4	ABS	2	2	24VD	0	1	1.11263990402	None	None	None	None	1
1.7	2015_Jul_20_1212	s	s	11	1	SIC	5	RC	2	1	23VO	1	0	0.678857088089	-12.0	-78.0	-2	-75	1
1.7	2015_Jul_20_1212	s	s	11	1	SIC	6	RC	2	2	23VD	1	0	0.664655923843	-217.0	-249.0	-212	-244	1
1.7	2015_Jul_20_1212	s	s	11	1	SIC	7	ABS	0	1	24RO	0	1	6.29663491249	None	None	None	None	1
1.7	2015_Jul_20_1212	s	s	11	1	SIC	8	ABS	2	1	24VO	0	1	2.18865299225	None	None	None	None	1
1.7	2015_Jul_20_1212	s	s	11	1	SIC	9	ABS	1	0	24MC	0	1	3.67177200317	None	None	None	None	1
1.7	2015_Jul_20_1212	s	s	11	1	SIC	10	ABS	1	2	24MD	0	1	2.19679999352	None	None	None	None	1
1.7	2015_Jul_20_1212	s	s	11	1	SIC	11	RC	1	2	23MD	1	0	0.729154109955	-72.0	216.0	-66	223	1
1.7	2015_Jul_20_1212	s	s	11	1	SIC	12	ABS	0	2	24RD	0	1	1.447245121	None	None	None	None	1
1.7	2015_Jul_20_1212	s	s	11	1	SIC	13	ABS	1	1	24MO	0	1	5.30212211609	None	None	None	None	1
1.7	2015_Jul_20_1212	s	s	11	1	SIC	14	ABS	2	0	24VC	0	1	1.61191010475	None	None	None	None	1
1.7	2015_Jul_20_1212	s	s	11	1	SIC	15	RC	0	1	23RO	1	0	5.63131403923	-300.0	-48.0	-304	-53	1
1.7	2015_Jul_20_1212	s	s	11	1	SIC	16	RC	2	0	23VC	1	0	0.914973020554	-129.0	-106.0	-126	-102	1
1.7	2015_Jul_20_1212	s	s	11	1	SIC	17	ABS	2	2	24VD	1	0	0.112404108047	None	None	-72	83	0
1.7	2015_Jul_20_1212	s	s	11	1	SIC	18	ABS	0	2	24RD	0	1	1.66561198235	None	None	None	None	1
1.7	2015_Jul_20_1212	s	s	11	1	SIC	19	ABS	1	1	24MO	0	1	3.70450091362	None	None	None	None	1
1.7	2015_Jul_20_1212	s	s	11	1	SIC	20	ABS	2	0	24VC	0	1	2.09009695053	None	None	None	None	1
1.7	2015_Jul_20_1212	s	s	11	1	SIC	21	RC	1	2	23MD	1	0	2.03571581841	315.0	281.0	314	287	1
1.7	2015_Jul_20_1212	s	s	11	1	SIC	22	RC	1	1	23MO	1	0	0.866540193558	78.0	249.0	79	257	1
1.7	2015_Jul_20_1212	s	s	11	1	SIC	23	RC	0	1	23RO	1	0	3.59621310234	35.0	-280.0	39	-292	1
1.7	2015_Jul_20_1212	s	s	11	1	SIC	24	RC	2	1	23VO	1	0	0.994874954224	-440.0	333.0	-439	333	1
1.7	2015_Jul_20_1212	s	s	11	1	SIC	25	ABS	0	1	24RO	0	1	6.26130700111	None	None	None	None	1
1.7	2015_Jul_20_1212	s	s	11	1	SIC	26	ABS	1	0	24MC	0	1	2.71839404106	None	None	None	None	1
1.7	2015_Jul_20_1212	s	s	11	1	SIC	27	RC	2	2	23VD	1	0	0.658561944962	-508.0	-215.0	-509	-217	1
1.7	2015_Jul_20_1212	s	s	11	1	SIC	28	RC	2	0	23VC	1	0	3.40960097313	46.0	-175.0	50	-174	1
1.7	2015_Jul_20_1212	s	s	11	1	SIC	29	ABS	1	2	24MD	0	1	1.21848106384	None	None	None	None	1
1.7	2015_Jul_20_1212	s	s	11	1	SIC	30	RC	0	2	23RD	1	0	0.88204407692	-410.0	379.0	-415	370	1
1.7	2015_Jul_20_1212	s	s	11	1	SIC	31	ABS	2	1	24VO	0	1	0.799795150757	None	None	None	None	1
1.7	2015_Jul_20_1212	s	s	11	1	SIC	32	RC	1	0	23MC	1	0	1.36475014687	-347.0	139.0	-338	135	1
1.7	2015_Jul_20_1212	s	s	11	1	SIC	33	ABS	2	2	24VD	0	1	0.841665029526	None	None	None	None	1
1.7	2015_Jul_20_1212	s	s	11	1	SIC	34	ABS	0	2	24RD	0	1	1.06549596786	None	None	None	None	1
1.7	2015_Jul_20_1212	s	s	11	1	SIC	35	ABS	1	1	24MO	0	1	2.28286790848	None	None	None	None	1
1.7	2015_Jul_20_1212	s	s	11	1	SIC	36	RC	0	2	23RD	1	0	0.759226083755	156.0	267.0	158	261	1
1.7	2015_Jul_20_1212	s	s	11	1	SIC	37	ABS	2	1	24VO	0	1	0.929309129715	None	None	None	None	1
1.7	2015_Jul_20_1212	s	s	11	1	SIC	38	RC	1	2	23MD	1	0	0.794965028763	25.0	-27.0	32	-21	1
1.7	2015_Jul_20_1212	s	s	11	1	SIC	39	RC	2	0	23VC	1	0	0.764456987381	-518.0	305.0	-513	305	1
1.7	2015_Jul_20_1212	s	s	11	1	SIC	40	RC	0	1	23RO	1	0	3.23629903793	176.0	224.0	169	223	1
1.7	2015_Jul_20_1212	s	s	11	1	SIC	41	RC	1	0	23MC	1	0	1.30085206032	-39.0	-92.0	-31	-91	1
1.7	2015_Jul_20_1212	s	s	11	1	SIC	42	RC	2	1	23VO	1	0	0.68946814537	528.0	-389.0	529	-387	1
1.7	2015_Jul_20_1212	s	s	11	1	SIC	43	ABS	1	0	24MC	0	1	2.71366000175	None	None	None	None	1
1.7	2015_Jul_20_1212	s	s	11	1	SIC	44	RC	1	1	23MO	1	0	0.653448104858	-17.0	16.0	-16	21	1
1.7	2015_Jul_20_1212	s	s	11	1	SIC	45	ABS	2	0	24VC	0	1	0.912341833115	None	None	None	None	1
1.7	2015_Jul_20_1212	s	s	11	1	SIC	46	ABS	1	2	24MD	0	1	1.23016500473	None	None	None	None	1
1.7	2015_Jul_20_1212	s	s	11	1	SIC	47	ABS	0	1	24RO	0	1	6.79946613312	None	None	None	None	1
1.7	2015_Jul_20_1212	s	s	11	1	SIC	48	RC	2	2	23VD	1	0	0.653057098389	294.0	125.0	291	124	1
1.7	2015_Jul_20_1212	s	s	11	1	SIC	49	ABS	2	2	24VD	0	1	1.12941884995	None	None	None	None	1
1.7	2015_Jul_20_1212	s	s	11	1	SIC	50	RC	1	2	23MD	1	0	0.769814968109	-394.0	-64.0	-393	-71	1
1.7	2015_Jul_20_1212	s	s	11	1	SIC	51	ABS	1	1	24MO	0	1	4.05656909943	None	None	None	None	1
1.7	2015_Jul_20_1212	s	s	11	1	SIC	52	ABS	0	1	24RO	0	1	5.00888395309	None	None	None	None	1
1.7	2015_Jul_20_1212	s	s	11	1	SIC	53	ABS	0	2	24RD	0	1	0.867342948914	None	None	None	None	1
1.7	2015_Jul_20_1212	s	s	11	1	SIC	54	RC	2	1	23VO	1	0	0.688275098801	-42.0	397.0	-34	403	1
1.7	2015_Jul_20_1212	s	s	11	1	SIC	55	RC	0	2	23RD	1	0	0.841401100159	16.0	10.0	16	16	1
1.7	2015_Jul_20_1212	s	s	11	1	SIC	56	ABS	1	0	24MC	0	1	2.07102012634	None	None	None	None	1
1.7	2015_Jul_20_1212	s	s	11	1	SIC	57	ABS	1	2	24MD	0	1	0.92457985878	None	None	None	None	1
1.7	2015_Jul_20_1212	s	s	11	1	SIC	58	RC	2	2	23VD	1	0	0.646770954132	188.0	299.0	186	298	1
1.7	2015_Jul_20_1212	s	s	11	1	SIC	59	ABS	2	1	24VO	0	1	0.964546918869	None	None	None	None	1
1.7	2015_Jul_20_1212	s	s	11	1	SIC	60	RC	2	0	23VC	1	0	0.618378162384	-290.0	-85.0	-292	-95	1
1.7	2015_Jul_20_1212	s	s	11	1	SIC	61	RC	1	1	23MO	1	0	1.2470741272	-244.0	300.0	-236	296	1
1.7	2015_Jul_20_1212	s	s	11	1	SIC	62	RC	0	1	23RO	1	0	2.83971810341	-266.0	19.0	-258	18	1
1.7	2015_Jul_20_1212	s	s	11	1	SIC	63	ABS	2	0	24VC	0	1	0.888516187668	None	None	None	None	1
1.7	2015_Jul_20_1212	s	s	11	1	SIC	64	RC	1	0	23MC	1	0	1.08224797249	20.0	256.0	17	255	1
1.7	2015_Jul_20_1212	s	s	11	1	SIC	65	ABS	1	1	24MO	0	1	1.77674293518	None	None	None	None	1
1.7	2015_Jul_20_1212	s	s	11	1	SIC	66	RC	0	1	23RO	0	1	3.65518307686	345.0	336.0	None	None	0
1.7	2015_Jul_20_1212	s	s	11	1	SIC	67	RC	0	2	23RD	1	0	0.729154109955	198.0	56.0	201	56	1
1.7	2015_Jul_20_1212	s	s	11	1	SIC	68	ABS	1	2	24MD	0	1	1.03516602516	None	None	None	None	1
1.7	2015_Jul_20_1212	s	s	11	1	SIC	69	RC	1	1	23MO	1	0	1.90619182587	518.0	315.0	510	316	1
1.7	2015_Jul_20_1212	s	s	11	1	SIC	70	ABS	0	2	24RD	0	1	0.947733163834	None	None	None	None	1
1.7	2015_Jul_20_1212	s	s	11	1	SIC	71	RC	1	0	23MC	0	1	1.97670888901	-288.0	153.0	None	None	0
1.7	2015_Jul_20_1212	s	s	11	1	SIC	72	ABS	0	1	24RO	0	1	4.67918109894	None	None	None	None	1
1.7	2015_Jul_20_1212	s	s	11	1	SIC	73	RC	2	2	23VD	1	0	0.846849918365	-25.0	176.0	-18	180	1
1.7	2015_Jul_20_1212	s	s	11	1	SIC	74	RC	1	2	23MD	1	0	1.08221101761	-492.0	57.0	-487	55	1
1.7	2015_Jul_20_1212	s	s	11	1	SIC	75	RC	2	0	23VC	1	0	0.70041680336	335.0	-176.0	341	-185	1
1.7	2015_Jul_20_1212	s	s	11	1	SIC	76	ABS	1	0	24MC	0	1	1.95336389542	None	None	None	None	1
1.7	2015_Jul_20_1212	s	s	11	1	SIC	77	ABS	2	0	24VC	0	1	0.811522960663	None	None	None	None	1
1.7	2015_Jul_20_1212	s	s	11	1	SIC	78	ABS	2	1	24VO	0	1	0.776204824448	None	None	None	None	1
1.7	2015_Jul_20_1212	s	s	11	1	SIC	79	RC	2	1	23VO	1	0	1.05351305008	518.0	-266.0	524	-259	1
1.7	2015_Jul_20_1212	s	s	11	1	SIC	80	ABS	2	2	24VD	0	1	1.00655198097	None	None	None	None	1
1.7	2015_Jul_20_1212	s	s	11	1	SIC	81	ABS	1	1	24MO	0	1	1.93662786484	None	None	None	None	1
1.7	2015_Jul_20_1212	s	s	11	1	SIC	82	ABS	2	2	24VD	0	1	0.700485944748	None	None	None	None	1
1.7	2015_Jul_20_1212	s	s	11	1	SIC	83	RC	2	2	23VD	1	0	0.688653945923	101.0	-97.0	102	-95	1
1.7	2015_Jul_20_1212	s	s	11	1	SIC	84	RC	0	1	23RO	1	0	5.49621510506	106.0	394.0	111	398	1
1.7	2015_Jul_20_1212	s	s	11	1	SIC	85	ABS	0	2	24RD	0	1	1.44716095924	None	None	None	None	1
1.7	2015_Jul_20_1212	s	s	11	1	SIC	86	RC	1	1	23MO	1	0	3.17758393288	198.0	393.0	198	394	1
1.7	2015_Jul_20_1212	s	s	11	1	SIC	87	ABS	2	0	24VC	0	1	1.02070617676	None	None	None	None	1
1.7	2015_Jul_20_1212	s	s	11	1	SIC	88	RC	0	2	23RD	1	0	1.35991382599	-90.0	289.0	-79	292	1
1.7	2015_Jul_20_1212	s	s	11	1	SIC	89	RC	1	2	23MD	1	0	0.740919113159	101.0	-102.0	111	-99	1
1.7	2015_Jul_20_1212	s	s	11	1	SIC	90	ABS	0	1	24RO	0	1	4.35187101364	None	None	None	None	1
1.7	2015_Jul_20_1212	s	s	11	1	SIC	91	RC	2	1	23VO	1	0	0.721089839935	-104.0	-96.0	-119	-90	1
1.7	2015_Jul_20_1212	s	s	11	1	SIC	92	ABS	1	0	24MC	0	1	2.28290295601	None	None	None	None	1
1.7	2015_Jul_20_1212	s	s	11	1	SIC	93	RC	2	0	23VC	1	0	0.641694068909	379.0	-278.0	371	-276	1
1.7	2015_Jul_20_1212	s	s	11	1	SIC	94	RC	1	0	23MC	0	1	2.44775319099	146.0	34.0	None	None	0
1.7	2015_Jul_20_1212	s	s	11	1	SIC	95	ABS	1	2	24MD	0	1	1.5596768856	None	None	None	None	1
1.7	2015_Jul_20_1212	s	s	11	1	SIC	96	ABS	2	1	24VO	0	1	1.37650084496	None	None	None	None	1
1.7	2015_Jul_20_1212	s	s	11	1	SIC	97	ABS	1	2	24MD	0	1	1.35976314545	None	None	None	None	1
1.7	2015_Jul_20_1212	s	s	11	1	SIC	98	ABS	1	0	24MC	0	1	4.67915415764	None	None	None	None	1
1.7	2015_Jul_20_1212	s	s	11	1	SIC	99	RC	2	1	23VO	1	0	0.84419298172	177.0	-75.0	178	-70	1
1.7	2015_Jul_20_1212	s	s	11	1	SIC	100	ABS	2	1	24VO	0	1	2.44771981239	None	None	None	None	1
1.7	2015_Jul_20_1212	s	s	11	1	SIC	101	RC	1	1	23MO	1	0	1.30150103569	-466.0	206.0	-464	207	1
1.7	2015_Jul_20_1212	s	s	11	1	SIC	102	ABS	2	2	24VD	0	1	1.14117288589	None	None	None	None	1
1.7	2015_Jul_20_1212	s	s	11	1	SIC	103	ABS	0	2	24RD	0	1	1.52493309975	None	None	None	None	1
1.7	2015_Jul_20_1212	s	s	11	1	SIC	104	RC	0	2	23RD	1	0	0.924725055695	-17.0	288.0	-10	288	1
1.7	2015_Jul_20_1212	s	s	11	1	SIC	105	ABS	2	0	24VC	0	1	0.794877052307	None	None	None	None	1
1.7	2015_Jul_20_1212	s	s	11	1	SIC	106	RC	1	0	23MC	0	1	2.91839408875	267.0	356.0	None	None	0
1.7	2015_Jul_20_1212	s	s	11	1	SIC	107	RC	0	1	23RO	0	1	2.20052790642	207.0	-173.0	None	None	0
1.7	2015_Jul_20_1212	s	s	11	1	SIC	108	ABS	1	1	24MO	0	1	1.965031147	None	None	None	None	1
1.7	2015_Jul_20_1212	s	s	11	1	SIC	109	RC	1	2	23MD	1	0	1.24204111099	478.0	73.0	481	73	1
1.7	2015_Jul_20_1212	s	s	11	1	SIC	110	ABS	0	1	24RO	0	1	1.4470140934	None	None	None	None	1
1.7	2015_Jul_20_1212	s	s	11	1	SIC	111	RC	2	0	23VC	1	0	0.53640294075	-35.0	39.0	-37	38	1
1.7	2015_Jul_20_1212	s	s	11	1	SIC	112	RC	2	2	23VD	1	0	0.646754026413	194.0	289.0	187	285	1
1.7	2015_Jul_20_1212	s	s	11	1	SIC	113	ABS	1	0	24MC	0	1	1.99546790123	None	None	None	None	1
1.7	2015_Jul_20_1212	s	s	11	1	SIC	114	ABS	0	1	24RO	0	1	3.90204906464	None	None	None	None	1
1.7	2015_Jul_20_1212	s	s	11	1	SIC	115	RC	1	1	23MO	1	0	1.83557891846	439.0	-100.0	439	-103	1
1.7	2015_Jul_20_1212	s	s	11	1	SIC	116	ABS	2	0	24VC	0	1	1.42362713814	None	None	None	None	1
1.7	2015_Jul_20_1212	s	s	11	1	SIC	117	RC	2	0	23VC	1	0	0.835104942322	104.0	168.0	120	177	1
1.7	2015_Jul_20_1212	s	s	11	1	SIC	118	ABS	1	1	24MO	0	1	4.09547591209	None	None	None	None	1
1.7	2015_Jul_20_1212	s	s	11	1	SIC	119	ABS	2	1	24VO	0	1	2.03057909012	None	None	None	None	1
1.7	2015_Jul_20_1212	s	s	11	1	SIC	120	RC	2	1	23VO	1	0	0.760251998901	206.0	189.0	197	196	1
1.7	2015_Jul_20_1212	s	s	11	1	SIC	121	ABS	0	2	24RD	0	1	1.35283899307	None	None	None	None	1
1.7	2015_Jul_20_1212	s	s	11	1	SIC	122	RC	0	2	23RD	1	0	1.06547284126	-416.0	-32.0	-409	-38	1
1.7	2015_Jul_20_1212	s	s	11	1	SIC	123	RC	1	0	23MC	0	1	5.01009106636	174.0	123.0	None	None	0
1.7	2015_Jul_20_1212	s	s	11	1	SIC	124	RC	0	1	23RO	0	1	3.28348493576	-536.0	359.0	None	None	0
1.7	2015_Jul_20_1212	s	s	11	1	SIC	125	RC	1	2	23MD	1	0	0.773563861847	-497.0	-146.0	-496	-144	1
1.7	2015_Jul_20_1212	s	s	11	1	SIC	126	RC	2	2	23VD	1	0	2.29479408264	-25.0	265.0	-22	268	1
1.7	2015_Jul_20_1212	s	s	11	1	SIC	127	ABS	1	2	24MD	0	1	1.57172322273	None	None	None	None	1
1.7	2015_Jul_20_1212	s	s	11	1	SIC	128	ABS	2	2	24VD	0	1	0.688938140869	None	None	None	None	1
1.7	2015_Jul_20_1212	s	s	11	1	SIC	129	ABS	2	1	24VO	0	1	0.66520190239	None	None	None	None	1
1.7	2015_Jul_20_1212	s	s	11	1	SIC	130	RC	0	1	23RO	1	0	2.11114096642	-331.0	310.0	-334	300	1
1.7	2015_Jul_20_1212	s	s	11	1	SIC	131	RC	2	1	23VO	0	1	0.705554962158	478.0	-385.0	None	None	0
1.7	2015_Jul_20_1212	s	s	11	1	SIC	132	RC	2	2	23VD	1	0	0.705672025681	478.0	373.0	485	379	1
1.7	2015_Jul_20_1212	s	s	11	1	SIC	133	ABS	1	0	24MC	0	1	1.4236240387	None	None	None	None	1
1.7	2015_Jul_20_1212	s	s	11	1	SIC	134	ABS	1	1	24MO	0	1	1.37154698372	None	None	None	None	1
1.7	2015_Jul_20_1212	s	s	11	1	SIC	135	RC	1	1	23MO	1	0	2.40058302879	355.0	-155.0	358	-147	1
1.7	2015_Jul_20_1212	s	s	11	1	SIC	136	RC	0	2	23RD	1	0	0.626795053482	126.0	53.0	133	57	1
1.7	2015_Jul_20_1212	s	s	11	1	SIC	137	ABS	2	2	24VD	0	1	0.646679162979	None	None	None	None	1
1.7	2015_Jul_20_1212	s	s	11	1	SIC	138	ABS	0	2	24RD	0	1	1.36473107338	None	None	None	None	1
1.7	2015_Jul_20_1212	s	s	11	1	SIC	139	ABS	1	2	24MD	0	1	1.67083191872	None	None	None	None	1
1.7	2015_Jul_20_1212	s	s	11	1	SIC	140	ABS	2	0	24VC	0	1	0.658473014832	None	None	None	None	1
1.7	2015_Jul_20_1212	s	s	11	1	SIC	141	RC	1	0	23MC	1	0	1.12484288216	445.0	-12.0	459	-7	1
1.7	2015_Jul_20_1212	s	s	11	1	SIC	142	RC	1	2	23MD	1	0	0.68919801712	88.0	-104.0	91	-103	1
1.7	2015_Jul_20_1212	s	s	11	1	SIC	143	RC	2	0	23VC	1	0	1.09404015541	-522.0	98.0	-517	99	1
1.7	2015_Jul_20_1212	s	s	11	1	SIC	144	ABS	0	1	24RO	0	1	1.97262883186	None	None	None	None	1
1.7	2015_Jul_20_1212	s	s	11	1	SIC	145	ABS	0	2	24RD	0	1	1.08232402802	None	None	None	None	1
1.7	2015_Jul_20_1212	s	s	11	1	SIC	146	ABS	1	1	24MO	0	1	2.08261084557	None	None	None	None	1
1.7	2015_Jul_20_1212	s	s	11	1	SIC	147	RC	2	2	23VD	1	0	0.658525943756	302.0	-40.0	306	-35	1
1.7	2015_Jul_20_1212	s	s	11	1	SIC	148	ABS	2	0	24VC	0	1	1.01160287857	None	None	None	None	1
1.7	2015_Jul_20_1212	s	s	11	1	SIC	149	RC	0	1	23RO	0	1	1.91802406311	-303.0	176.0	None	None	0
1.7	2015_Jul_20_1212	s	s	11	1	SIC	150	ABS	1	2	24MD	0	1	0.826982975006	None	None	None	None	1
1.7	2015_Jul_20_1212	s	s	11	1	SIC	151	RC	1	1	23MO	1	0	2.34853291512	-105.0	-369.0	-100	-363	1
1.7	2015_Jul_20_1212	s	s	11	1	SIC	152	RC	2	1	23VO	1	0	0.776283025742	333.0	305.0	333	311	1
1.7	2015_Jul_20_1212	s	s	11	1	SIC	153	ABS	2	1	24VO	0	1	0.993412971497	None	None	None	None	1
1.7	2015_Jul_20_1212	s	s	11	1	SIC	154	RC	2	0	23VC	1	0	0.697550058365	100.0	-303.0	105	-300	1
1.7	2015_Jul_20_1212	s	s	11	1	SIC	155	RC	1	2	23MD	1	0	0.90563416481	49.0	31.0	50	37	1
1.7	2015_Jul_20_1212	s	s	11	1	SIC	156	ABS	1	0	24MC	0	1	4.91950893402	None	None	None	None	1
1.7	2015_Jul_20_1212	s	s	11	1	SIC	157	RC	1	0	23MC	1	0	2.38373494148	34.0	-93.0	29	-91	1
1.7	2015_Jul_20_1212	s	s	11	1	SIC	158	ABS	0	1	24RO	0	1	4.34937405586	None	None	None	None	1
1.7	2015_Jul_20_1212	s	s	11	1	SIC	159	ABS	2	2	24VD	0	1	0.771810054779	None	None	None	None	1
1.7	2015_Jul_20_1212	s	s	11	1	SIC	160	RC	0	2	23RD	1	0	0.735940217972	-183.0	43.0	-182	46	1
1.7	2015_Jul_20_1212	s	s	11	1	SIC	161	ABS	0	2	24RD	0	1	3.18921804428	None	None	None	None	1
1.7	2015_Jul_20_1212	s	s	11	1	SIC	162	RC	1	1	23MO	1	0	1.46704387665	525.0	-339.0	525	-345	1
1.7	2015_Jul_20_1212	s	s	11	1	SIC	163	RC	0	2	23RD	1	0	0.999880075455	-249.0	-278.0	-253	-278	1
1.7	2015_Jul_20_1212	s	s	11	1	SIC	164	ABS	1	1	24MO	0	1	2.67735695839	None	None	None	None	1
1.7	2015_Jul_20_1212	s	s	11	1	SIC	165	ABS	1	2	24MD	0	1	1.07053804398	None	None	None	None	1
1.7	2015_Jul_20_1212	s	s	11	1	SIC	166	ABS	0	1	24RO	0	1	4.13757109642	None	None	None	None	1
1.7	2015_Jul_20_1212	s	s	11	1	SIC	167	RC	0	1	23RO	0	1	3.64822101593	214.0	180.0	None	None	0
1.7	2015_Jul_20_1212	s	s	11	1	SIC	168	ABS	2	0	24VC	0	1	0.785661935806	None	None	None	None	1
1.7	2015_Jul_20_1212	s	s	11	1	SIC	169	RC	1	0	23MC	0	1	3.92641687393	-338.0	-121.0	None	None	0
1.7	2015_Jul_20_1212	s	s	11	1	SIC	170	RC	2	0	23VC	1	0	0.776129961014	82.0	408.0	85	403	1
1.7	2015_Jul_20_1212	s	s	11	1	SIC	171	ABS	1	0	24MC	0	1	2.62169408798	None	None	None	None	1
1.7	2015_Jul_20_1212	s	s	11	1	SIC	172	RC	2	1	23VO	1	0	0.811548948288	-154.0	328.0	-161	331	1
1.7	2015_Jul_20_1212	s	s	11	1	SIC	173	ABS	2	2	24VD	0	1	1.00889801979	None	None	None	None	1
1.7	2015_Jul_20_1212	s	s	11	1	SIC	174	RC	2	2	23VD	1	0	0.693903923035	369.0	14.0	361	19	1
1.7	2015_Jul_20_1212	s	s	11	1	SIC	175	ABS	2	1	24VO	0	1	1.160187006	None	None	None	None	1
1.7	2015_Jul_20_1212	s	s	11	1	SIC	176	RC	1	2	23MD	1	0	0.858519077301	491.0	-98.0	485	-95	1
1.7	2015_Jul_20_1212	s	s	11	1	SIC	177	RC	2	2	23VD	1	0	0.631918907166	-47.0	377.0	-40	379	1
1.7	2015_Jul_20_1212	s	s	11	1	SIC	178	RC	0	1	23RO	0	1	1.44708299637	-467.0	-89.0	None	None	0
1.7	2015_Jul_20_1212	s	s	11	1	SIC	179	ABS	1	2	24MD	0	1	1.16109204292	None	None	None	None	1
1.7	2015_Jul_20_1212	s	s	11	1	SIC	180	ABS	1	0	24MC	0	1	1.67446208	None	None	None	None	1
1.7	2015_Jul_20_1212	s	s	11	1	SIC	181	RC	1	1	23MO	1	0	2.87943315506	8.0	224.0	10	226	1
1.7	2015_Jul_20_1212	s	s	11	1	SIC	182	ABS	2	0	24VC	0	1	0.926739931107	None	None	None	None	1
1.7	2015_Jul_20_1212	s	s	11	1	SIC	183	ABS	0	2	24RD	0	1	1.27426600456	None	None	None	None	1
1.7	2015_Jul_20_1212	s	s	11	1	SIC	184	ABS	0	1	24RO	0	1	6.35032892227	None	None	None	None	1
1.7	2015_Jul_20_1212	s	s	11	1	SIC	185	ABS	2	1	24VO	0	1	0.59960603714	None	None	None	None	1
1.7	2015_Jul_20_1212	s	s	11	1	SIC	186	RC	0	2	23RD	1	0	0.86527299881	336.0	-323.0	333	-321	1
1.7	2015_Jul_20_1212	s	s	11	1	SIC	187	RC	1	2	23MD	1	0	0.764387130737	49.0	-330.0	52	-331	1
1.7	2015_Jul_20_1212	s	s	11	1	SIC	188	ABS	2	2	24VD	0	1	0.759097099304	None	None	None	None	1
1.7	2015_Jul_20_1212	s	s	11	1	SIC	189	RC	2	1	23VO	1	0	0.646783828735	15.0	287.0	18	288	1
1.7	2015_Jul_20_1212	s	s	11	1	SIC	190	RC	1	0	23MC	1	0	5.67315506935	259.0	-227.0	260	-225	1
1.7	2015_Jul_20_1212	s	s	11	1	SIC	191	ABS	1	1	24MO	0	1	1.88942098618	None	None	None	None	1
1.7	2015_Jul_20_1212	s	s	11	1	SIC	192	RC	2	0	23VC	1	0	0.662245988846	-8.0	25.0	-10	25	1
1.7	2015_Jul_20_1212	s	s	11	1	SIC	193	ABS	2	0	24VC	0	1	0.865329027176	None	None	None	None	1
1.7	2015_Jul_20_1212	s	s	11	1	SIC	194	ABS	0	1	24RO	0	1	2.43085289001	None	None	None	None	1
1.7	2015_Jul_20_1212	s	s	11	1	SIC	195	ABS	1	0	24MC	0	1	7.70645689964	None	None	None	None	1
1.7	2015_Jul_20_1212	s	s	11	1	SIC	196	ABS	2	1	24VO	0	1	0.629722118378	None	None	None	None	1
1.7	2015_Jul_20_1212	s	s	11	1	SIC	197	ABS	0	2	24RD	0	1	0.843966007233	None	None	None	None	1
1.7	2015_Jul_20_1212	s	s	11	1	SIC	198	RC	2	1	23VO	1	0	0.818758010864	-130.0	-19.0	-126	-23	1
1.7	2015_Jul_20_1212	s	s	11	1	SIC	199	ABS	1	1	24MO	0	1	0.982601881027	None	None	None	None	1
1.7	2015_Jul_20_1212	s	s	11	1	SIC	200	RC	1	0	23MC	0	1	1.40000486374	-122.0	367.0	None	None	0
1.7	2015_Jul_20_1212	s	s	11	1	SIC	201	RC	1	1	23MO	0	1	0.865478038788	-498.0	229.0	None	None	0
1.7	2015_Jul_20_1212	s	s	11	1	SIC	202	RC	0	2	23RD	1	0	0.855921030045	443.0	-264.0	439	-260	1
1.7	2015_Jul_20_1212	s	s	11	1	SIC	203	RC	1	2	23MD	1	0	0.976315021515	138.0	182.0	136	175	1
1.7	2015_Jul_20_1212	s	s	11	1	SIC	204	ABS	1	2	24MD	0	1	2.50164222717	None	None	None	None	1
1.7	2015_Jul_20_1212	s	s	11	1	SIC	205	ABS	2	2	24VD	0	1	0.712543964386	None	None	None	None	1
1.7	2015_Jul_20_1212	s	s	11	1	SIC	206	RC	2	2	23VD	1	0	0.758785009384	179.0	195.0	179	192	1
1.7	2015_Jul_20_1212	s	s	11	1	SIC	207	RC	0	1	23RO	1	0	3.31374502182	314.0	-367.0	314	-371	1
1.7	2015_Jul_20_1212	s	s	11	1	SIC	208	RC	2	0	23VC	1	0	0.665234088898	467.0	335.0	462	340	1
1.7	2015_Jul_20_1212	s	s	11	1	SIC	209	RC	0	1	23RO	1	0	5.5616850853	271.0	-135.0	281	-131	1
1.7	2015_Jul_20_1212	s	s	11	1	SIC	210	ABS	1	0	24MC	0	1	3.16037201881	None	None	None	None	1
1.7	2015_Jul_20_1212	s	s	11	1	SIC	211	RC	1	2	23MD	1	0	0.888772964478	-75.0	-134.0	-72	-141	1
1.7	2015_Jul_20_1212	s	s	11	1	SIC	212	ABS	1	2	24MD	0	1	2.00037693977	None	None	None	None	1
1.7	2015_Jul_20_1212	s	s	11	1	SIC	213	RC	2	2	23VD	1	0	0.570774078369	-271.0	81.0	-276	80	1
1.7	2015_Jul_20_1212	s	s	11	1	SIC	214	ABS	2	0	24VC	0	1	1.00671601295	None	None	None	None	1
1.7	2015_Jul_20_1212	s	s	11	1	SIC	215	RC	0	2	23RD	1	0	0.65317606926	-292.0	-333.0	-283	-332	1
1.7	2015_Jul_20_1212	s	s	11	1	SIC	216	ABS	2	1	24VO	0	1	0.994761943817	None	None	None	None	1
1.7	2015_Jul_20_1212	s	s	11	1	SIC	217	RC	1	1	23MO	0	1	1.43541908264	-135.0	409.0	None	None	0
1.7	2015_Jul_20_1212	s	s	11	1	SIC	218	ABS	0	2	24RD	0	1	0.952969074249	None	None	None	None	1
1.7	2015_Jul_20_1212	s	s	11	1	SIC	219	RC	2	0	23VC	1	0	0.665128946304	-132.0	78.0	-135	79	1
1.7	2015_Jul_20_1212	s	s	11	1	SIC	220	ABS	1	1	24MO	0	1	2.31825494766	None	None	None	None	1
1.7	2015_Jul_20_1212	s	s	11	1	SIC	221	RC	2	1	23VO	1	0	0.706027984619	517.0	291.0	517	286	1
1.7	2015_Jul_20_1212	s	s	11	1	SIC	222	ABS	2	2	24VD	0	1	1.18333101273	None	None	None	None	1
1.7	2015_Jul_20_1212	s	s	11	1	SIC	223	RC	1	0	23MC	0	1	0.658326148987	55.0	-176.0	None	None	0
1.7	2015_Jul_20_1212	s	s	11	1	SIC	224	ABS	0	1	24RO	0	1	5.27922320366	None	None	None	None	1
1.7	2015_Jul_20_1212	s	s	11	1	SIC	225	ABS	1	1	24MO	0	1	2.07783818245	None	None	None	None	1
1.7	2015_Jul_20_1212	s	s	11	1	SIC	226	RC	2	2	23VD	1	0	0.69381403923	219.0	-50.0	227	-44	1
1.7	2015_Jul_20_1212	s	s	11	1	SIC	227	RC	1	1	23MO	1	0	3.1138548851	-354.0	-245.0	-350	-242	1
1.7	2015_Jul_20_1212	s	s	11	1	SIC	228	RC	1	0	23MC	1	0	2.49475693703	530.0	86.0	527	92	1
1.7	2015_Jul_20_1212	s	s	11	1	SIC	229	ABS	1	0	24MC	0	1	1.47052121162	None	None	None	None	1
1.7	2015_Jul_20_1212	s	s	11	1	SIC	230	ABS	1	2	24MD	0	1	1.93624711037	None	None	None	None	1
1.7	2015_Jul_20_1212	s	s	11	1	SIC	231	RC	1	2	23MD	1	0	0.768034934998	41.0	68.0	43	62	1
1.7	2015_Jul_20_1212	s	s	11	1	SIC	232	ABS	2	0	24VC	0	1	1.77670502663	None	None	None	None	1
1.7	2015_Jul_20_1212	s	s	11	1	SIC	233	RC	2	1	23VO	1	0	0.618270874023	138.0	-69.0	135	-66	1
1.7	2015_Jul_20_1212	s	s	11	1	SIC	234	ABS	2	1	24VO	0	1	1.54787611961	None	None	None	None	1
1.7	2015_Jul_20_1212	s	s	11	1	SIC	235	RC	2	0	23VC	1	0	0.59481215477	-321.0	269.0	-315	269	1
1.7	2015_Jul_20_1212	s	s	11	1	SIC	236	RC	0	2	23RD	1	0	0.658451795578	355.0	-28.0	358	-19	1
1.7	2015_Jul_20_1212	s	s	11	1	SIC	237	ABS	0	2	24RD	0	1	0.959411144257	None	None	None	None	1
1.7	2015_Jul_20_1212	s	s	11	1	SIC	238	RC	0	1	23RO	0	1	2.26299786568	375.0	9.0	None	None	0
1.7	2015_Jul_20_1212	s	s	11	1	SIC	239	ABS	2	2	24VD	0	1	0.750005960464	None	None	None	None	1
1.7	2015_Jul_20_1212	s	s	11	1	SIC	240	ABS	0	1	24RO	0	1	1.68932390213	None	None	None	None	1
1.7	2015_Jul_20_1212	s	s	11	1	SIC	241	RC	2	1	23VO	1	0	0.787958860397	231.0	-173.0	232	-180	1
1.7	2015_Jul_20_1212	s	s	11	1	SIC	242	ABS	1	1	24MO	0	1	2.76283597946	None	None	None	None	1
1.7	2015_Jul_20_1212	s	s	11	1	SIC	243	ABS	0	1	24RO	0	1	5.50802183151	None	None	None	None	1
1.7	2015_Jul_20_1212	s	s	11	1	SIC	244	ABS	1	2	24MD	0	1	1.68259000778	None	None	None	None	1
1.7	2015_Jul_20_1212	s	s	11	1	SIC	245	RC	2	2	23VD	1	0	0.641826868057	438.0	-97.0	453	-89	1
1.7	2015_Jul_20_1212	s	s	11	1	SIC	246	RC	0	2	23RD	1	0	0.572139024734	73.0	-11.0	70	-24	1
1.7	2015_Jul_20_1212	s	s	11	1	SIC	247	ABS	1	0	24MC	0	1	2.96040201187	None	None	None	None	1
1.7	2015_Jul_20_1212	s	s	11	1	SIC	248	RC	1	1	23MO	1	0	0.854283094406	-286.0	185.0	-283	189	1
1.7	2015_Jul_20_1212	s	s	11	1	SIC	249	ABS	2	2	24VD	0	1	0.823307037354	None	None	None	None	1
1.7	2015_Jul_20_1212	s	s	11	1	SIC	250	RC	1	2	23MD	1	0	0.68918299675	77.0	-33.0	68	-32	1
1.7	2015_Jul_20_1212	s	s	11	1	SIC	251	RC	1	0	23MC	1	0	1.11745095253	171.0	201.0	173	210	1
1.7	2015_Jul_20_1212	s	s	11	1	SIC	252	RC	0	1	23RO	1	0	1.81186795235	-49.0	157.0	-51	155	1
1.7	2015_Jul_20_1212	s	s	11	1	SIC	253	ABS	2	1	24VO	0	1	0.829262971878	None	None	None	None	1
1.7	2015_Jul_20_1212	s	s	11	1	SIC	254	RC	2	0	23VC	1	0	0.700552940369	-484.0	37.0	-478	39	1
1.7	2015_Jul_20_1212	s	s	11	1	SIC	255	ABS	2	0	24VC	0	1	0.724618911743	None	None	None	None	1
1.7	2015_Jul_20_1212	s	s	11	1	SIC	256	ABS	0	2	24RD	0	1	1.30591702461	None	None	None	None	1
1.7	2015_Jul_20_1212	s	s	11	1	SIC	257	ABS	2	1	24VO	0	1	0.87712097168	None	None	None	None	1
1.7	2015_Jul_20_1212	s	s	11	1	SIC	258	RC	1	1	23MO	1	0	0.994549036026	-208.0	70.0	-206	79	1
1.7	2015_Jul_20_1212	s	s	11	1	SIC	259	RC	1	2	23MD	1	0	1.21867799759	536.0	195.0	544	193	1
1.7	2015_Jul_20_1212	s	s	11	1	SIC	260	RC	2	1	23VO	1	0	0.964546918869	-456.0	208.0	-445	208	1
1.7	2015_Jul_20_1212	s	s	11	1	SIC	261	RC	1	0	23MC	1	0	1.20400214195	-38.0	-171.0	-29	-171	1
1.7	2015_Jul_20_1212	s	s	11	1	SIC	262	RC	2	0	23VC	1	0	6.62145996094	155.0	-260.0	149	-262	1
1.7	2015_Jul_20_1212	s	s	11	1	SIC	263	ABS	0	1	24RO	0	1	6.7673227787	None	None	None	None	1
1.7	2015_Jul_20_1212	s	s	11	1	SIC	264	RC	0	2	23RD	1	0	0.88209104538	-225.0	101.0	-222	102	1
1.7	2015_Jul_20_1212	s	s	11	1	SIC	265	RC	2	2	23VD	1	0	6.87343001366	268.0	361.0	267	355	1
1.7	2015_Jul_20_1212	s	s	11	1	SIC	266	RC	0	1	23RO	1	0	4.26903605461	-540.0	402.0	-537	395	1
1.7	2015_Jul_20_1212	s	s	11	1	SIC	267	ABS	1	0	24MC	0	1	2.82444882393	None	None	None	None	1
1.7	2015_Jul_20_1212	s	s	11	1	SIC	268	ABS	2	2	24VD	0	1	0.840644836426	None	None	None	None	1
1.7	2015_Jul_20_1212	s	s	11	1	SIC	269	ABS	1	2	24MD	0	1	2.39538383484	None	None	None	None	1
1.7	2015_Jul_20_1212	s	s	11	1	SIC	270	ABS	1	1	24MO	0	1	1.69435882568	None	None	None	None	1
1.7	2015_Jul_20_1212	s	s	11	1	SIC	271	ABS	0	2	24RD	0	1	0.571358919144	None	None	None	None	1
1.7	2015_Jul_20_1212	s	s	11	1	SIC	272	ABS	2	0	24VC	0	1	0.470233917236	None	None	None	None	1
1.7	2015_Jul_20_1212	s	s	11	1	SIC	273	RC	1	0	23MC	1	0	6.12689805031	338.0	95.0	347	96	1
1.7	2015_Jul_20_1212	s	s	11	1	SIC	274	RC	2	0	23VC	1	0	1.38348197937	393.0	101.0	395	100	1
1.7	2015_Jul_20_1212	s	s	11	1	SIC	275	ABS	2	0	24VC	0	1	2.04248404503	None	None	None	None	1
1.7	2015_Jul_20_1212	s	s	11	1	SIC	276	RC	0	1	23RO	0	1	1.27052497864	131.0	371.0	None	None	0
1.7	2015_Jul_20_1212	s	s	11	1	SIC	277	RC	2	1	23VO	1	0	0.597012042999	-255.0	160.0	-267	162	1
1.7	2015_Jul_20_1212	s	s	11	1	SIC	278	ABS	2	2	24VD	0	1	0.702927112579	None	None	None	None	1
1.7	2015_Jul_20_1212	s	s	11	1	SIC	279	RC	2	2	23VD	1	0	0.634902000427	-421.0	354.0	-420	351	1
1.7	2015_Jul_20_1212	s	s	11	1	SIC	280	ABS	0	1	24RO	0	1	1.9062128067	None	None	None	None	1
1.7	2015_Jul_20_1212	s	s	11	1	SIC	281	ABS	2	1	24VO	0	1	0.811515808105	None	None	None	None	1
1.7	2015_Jul_20_1212	s	s	11	1	SIC	282	ABS	1	2	24MD	0	1	1.47744584084	None	None	None	None	1
1.7	2015_Jul_20_1212	s	s	11	1	SIC	283	ABS	0	2	24RD	0	1	0.852919101715	None	None	None	None	1
1.7	2015_Jul_20_1212	s	s	11	1	SIC	284	RC	0	2	23RD	1	0	0.689621210098	440.0	-168.0	449	-171	1
1.7	2015_Jul_20_1212	s	s	11	1	SIC	285	RC	1	1	23MO	1	0	1.64183998108	-213.0	190.0	-219	198	1
1.7	2015_Jul_20_1212	s	s	11	1	SIC	286	ABS	1	1	24MO	0	1	5.46771502495	None	None	None	None	1
1.7	2015_Jul_20_1212	s	s	11	1	SIC	287	ABS	1	0	24MC	0	1	1.96006202698	None	None	None	None	1
1.7	2015_Jul_20_1212	s	s	11	1	SIC	288	RC	1	2	23MD	1	0	1.04299616814	235.0	-337.0	242	-337	1
1.7	2015_Jul_20_1212	s	s	11	1	SIC	289	ABS	1	2	24MD	0	1	0.835044145584	None	None	None	None	1
1.7	2015_Jul_20_1212	s	s	11	1	SIC	290	ABS	2	1	24VO	0	1	0.811598062515	None	None	None	None	1
1.7	2015_Jul_20_1212	s	s	11	1	SIC	291	RC	1	0	23MC	1	0	8.06972694397	-254.0	327.0	-250	323	1
1.7	2015_Jul_20_1212	s	s	11	1	SIC	292	RC	0	1	23RO	1	0	2.13670396805	-449.0	406.0	-442	410	1
1.7	2015_Jul_20_1212	s	s	11	1	SIC	293	ABS	0	1	24RO	0	1	2.28287386894	None	None	None	None	1
1.7	2015_Jul_20_1212	s	s	11	1	SIC	294	RC	2	2	23VD	1	0	2.18357205391	-169.0	-152.0	-167	-152	1
1.7	2015_Jul_20_1212	s	s	11	1	SIC	295	RC	1	2	23MD	1	0	1.15818500519	-6.0	-91.0	-14	-94	1
1.7	2015_Jul_20_1212	s	s	11	1	SIC	296	RC	1	1	23MO	1	0	2.11804819107	331.0	-95.0	332	-97	1
1.7	2015_Jul_20_1212	s	s	11	1	SIC	297	RC	2	1	23VO	1	0	2.31817412376	-302.0	234.0	-302	220	1
1.7	2015_Jul_20_1212	s	s	11	1	SIC	298	ABS	2	0	24VC	0	1	0.738595962524	None	None	None	None	1
1.7	2015_Jul_20_1212	s	s	11	1	SIC	299	RC	0	2	23RD	1	0	1.32947206497	-83.0	-370.0	-80	-377	1
1.7	2015_Jul_20_1212	s	s	11	1	SIC	300	RC	2	0	23VC	1	0	1.27766108513	91.0	-33.0	84	-40	1
1.7	2015_Jul_20_1212	s	s	11	1	SIC	301	ABS	2	2	24VD	0	1	0.771800994873	None	None	None	None	1
1.7	2015_Jul_20_1212	s	s	11	1	SIC	302	ABS	1	1	24MO	0	1	1.78852891922	None	None	None	None	1
1.7	2015_Jul_20_1212	s	s	11	1	SIC	303	ABS	0	2	24RD	0	1	1.32944607735	None	None	None	None	1
1.7	2015_Jul_20_1212	s	s	11	1	SIC	304	ABS	1	0	24MC	0	1	1.10569787025	None	None	None	None	1
1.7	2015_Jul_20_1212	s	s	11	1	SIC	305	ABS	0	1	24RO	0	1	1.92459988594	None	None	None	None	1
1.7	2015_Jul_20_1212	s	s	11	1	SIC	306	RC	2	2	23VD	1	0	0.630128860474	-66.0	-220.0	-75	-220	1
1.7	2015_Jul_20_1212	s	s	11	1	SIC	307	RC	1	1	23MO	0	1	1.28891897202	512.0	315.0	None	None	0
1.7	2015_Jul_20_1212	s	s	11	1	SIC	308	ABS	0	2	24RD	0	1	1.03026986122	None	None	None	None	1
1.7	2015_Jul_20_1212	s	s	11	1	SIC	309	RC	2	1	23VO	1	0	0.59966802597	-25.0	224.0	-26	223	1
1.7	2015_Jul_20_1212	s	s	11	1	SIC	310	RC	0	2	23RD	1	0	0.72349691391	119.0	-214.0	121	-211	1
1.7	2015_Jul_20_1212	s	s	11	1	SIC	311	RC	1	2	23MD	1	0	0.677007913589	405.0	157.0	409	158	1
1.7	2015_Jul_20_1212	s	s	11	1	SIC	312	ABS	2	2	24VD	0	1	0.929669857025	None	None	None	None	1
1.7	2015_Jul_20_1212	s	s	11	1	SIC	313	RC	1	0	23MC	1	0	1.35948896408	-242.0	-174.0	-237	-171	1
1.7	2015_Jul_20_1212	s	s	11	1	SIC	314	RC	0	1	23RO	1	0	1.98288297653	-82.0	179.0	-88	175	1
1.7	2015_Jul_20_1212	s	s	11	1	SIC	315	ABS	2	0	24VC	0	1	0.634973049164	None	None	None	None	1
1.7	2015_Jul_20_1212	s	s	11	1	SIC	316	ABS	1	1	24MO	0	1	3.35400509834	None	None	None	None	1
1.7	2015_Jul_20_1212	s	s	11	1	SIC	317	ABS	1	0	24MC	0	1	3.86014389992	None	None	None	None	1
1.7	2015_Jul_20_1212	s	s	11	1	SIC	318	ABS	1	2	24MD	0	1	0.846812009811	None	None	None	None	1
1.7	2015_Jul_20_1212	s	s	11	1	SIC	319	RC	2	0	23VC	1	0	0.759853124619	184.0	210.0	188	209	1
1.7	2015_Jul_20_1212	s	s	11	1	SIC	320	ABS	2	1	24VO	0	1	0.735996961594	None	None	None	None	1
1.7	2015_Jul_20_1212	s	s	11	1	SIC	321	RC	0	2	23RD	1	0	0.740962982178	-114.0	-170.0	-117	-173	1
1.7	2015_Jul_20_1212	s	s	11	1	SIC	322	ABS	1	0	24MC	0	1	1.13744783401	None	None	None	None	1
1.7	2015_Jul_20_1212	s	s	11	1	SIC	323	RC	0	1	23RO	0	1	1.24708485603	527.0	125.0	None	None	0
1.7	2015_Jul_20_1212	s	s	11	1	SIC	324	ABS	0	2	24RD	0	1	1.65409493446	None	None	None	None	1
1.7	2015_Jul_20_1212	s	s	11	1	SIC	325	RC	2	0	23VC	1	0	0.540872812271	-357.0	93.0	-356	93	1
1.7	2015_Jul_20_1212	s	s	11	1	SIC	326	RC	2	1	23VO	1	0	0.52339720726	-359.0	323.0	-359	323	1
1.7	2015_Jul_20_1212	s	s	11	1	SIC	327	RC	1	1	23MO	1	0	0.929286956787	-470.0	-9.0	-470	-13	1
1.7	2015_Jul_20_1212	s	s	11	1	SIC	328	ABS	2	2	24VD	0	1	0.795417070389	None	None	None	None	1
1.7	2015_Jul_20_1212	s	s	11	1	SIC	329	ABS	1	1	24MO	0	1	1.47071099281	None	None	None	None	1
1.7	2015_Jul_20_1212	s	s	11	1	SIC	330	ABS	2	0	24VC	0	1	0.924436092377	None	None	None	None	1
1.7	2015_Jul_20_1212	s	s	11	1	SIC	331	RC	2	2	23VD	1	0	0.67023897171	-120.0	408.0	-113	416	1
1.7	2015_Jul_20_1212	s	s	11	1	SIC	332	ABS	0	1	24RO	0	1	1.6656730175	None	None	None	None	1
1.7	2015_Jul_20_1212	s	s	11	1	SIC	333	ABS	1	2	24MD	0	1	0.717353820801	None	None	None	None	1
1.7	2015_Jul_20_1212	s	s	11	1	SIC	334	RC	1	2	23MD	1	0	0.587899923325	195.0	304.0	192	300	1
1.7	2015_Jul_20_1212	s	s	11	1	SIC	335	RC	1	0	23MC	0	1	1.0084810257	-419.0	-260.0	None	None	0
1.7	2015_Jul_20_1212	s	s	11	1	SIC	336	ABS	2	1	24VO	0	1	0.623566865921	None	None	None	None	1
1.7	2015_Jul_20_1212	s	s	11	1	SIC	337	ABS	1	0	24MC	0	1	0.776298046112	None	None	None	None	1
1.7	2015_Jul_20_1212	s	s	11	1	SIC	338	RC	1	1	23MO	1	0	0.929204940796	298.0	43.0	303	49	1
1.7	2015_Jul_20_1212	s	s	11	1	SIC	339	RC	0	2	23RD	1	0	0.576183080673	166.0	-181.0	158	-172	1
1.7	2015_Jul_20_1212	s	s	11	1	SIC	340	ABS	1	1	24MO	0	1	1.93887209892	None	None	None	None	1
1.7	2015_Jul_20_1212	s	s	11	1	SIC	341	RC	1	2	23MD	1	0	0.809058189392	373.0	404.0	373	409	1
1.7	2015_Jul_20_1212	s	s	11	1	SIC	342	RC	2	2	23VD	1	0	0.549857139587	309.0	-46.0	310	-45	1
1.7	2015_Jul_20_1212	s	s	11	1	SIC	343	RC	1	0	23MC	1	0	3.06633019447	329.0	91.0	329	87	1
1.7	2015_Jul_20_1212	s	s	11	1	SIC	344	ABS	0	1	24RO	0	1	1.31262087822	None	None	None	None	1
1.7	2015_Jul_20_1212	s	s	11	1	SIC	345	RC	0	1	23RO	1	0	1.75347590446	378.0	-291.0	380	-289	1
1.7	2015_Jul_20_1212	s	s	11	1	SIC	346	ABS	1	2	24MD	0	1	0.865116834641	None	None	None	None	1
1.7	2015_Jul_20_1212	s	s	11	1	SIC	347	ABS	2	1	24VO	0	1	0.564363956451	None	None	None	None	1
1.7	2015_Jul_20_1212	s	s	11	1	SIC	348	RC	2	1	23VO	1	0	0.705611944199	345.0	-163.0	350	-162	1
1.7	2015_Jul_20_1212	s	s	11	1	SIC	349	RC	2	0	23VC	1	0	0.587870836258	8.0	210.0	7	210	1
1.7	2015_Jul_20_1212	s	s	11	1	SIC	350	ABS	2	0	24VC	0	1	0.712250947952	None	None	None	None	1
1.7	2015_Jul_20_1212	s	s	11	1	SIC	351	ABS	2	2	24VD	0	1	0.690515041351	None	None	None	None	1
1.7	2015_Jul_20_1212	s	s	11	1	SIC	352	ABS	0	2	24RD	0	1	0.688231229782	None	None	None	None	1
1.7	2015_Jul_20_1212	s	s	11	1	SIC	353	RC	2	0	23VC	1	0	0.646759033203	-294.0	-165.0	-287	-165	1
1.7	2015_Jul_20_1212	s	s	11	1	SIC	354	RC	0	2	23RD	0	1	1.51772809029	506.0	-3.0	None	None	0
1.7	2015_Jul_20_1212	s	s	11	1	SIC	355	RC	2	2	23VD	1	0	0.453655004501	-105.0	-291.0	-103	-291	1
1.7	2015_Jul_20_1212	s	s	11	1	SIC	356	ABS	0	1	24RO	0	1	2.4946641922	None	None	None	None	1
1.7	2015_Jul_20_1212	s	s	11	1	SIC	357	ABS	2	1	24VO	0	1	0.905616044998	None	None	None	None	1
1.7	2015_Jul_20_1212	s	s	11	1	SIC	358	ABS	1	1	24MO	0	1	2.65953087807	None	None	None	None	1
1.7	2015_Jul_20_1212	s	s	11	1	SIC	359	ABS	0	2	24RD	0	1	1.67798304558	None	None	None	None	1
1.7	2015_Jul_20_1212	s	s	11	1	SIC	360	RC	1	1	23MO	1	0	2.14824223518	-468.0	171.0	-459	176	1
1.7	2015_Jul_20_1212	s	s	11	1	SIC	361	ABS	2	0	24VC	0	1	0.941040992737	None	None	None	None	1
1.7	2015_Jul_20_1212	s	s	11	1	SIC	362	ABS	1	0	24MC	0	1	1.23048710823	None	None	None	None	1
1.7	2015_Jul_20_1212	s	s	11	1	SIC	363	RC	1	2	23MD	1	0	0.693856954575	188.0	-153.0	194	-158	1
1.7	2015_Jul_20_1212	s	s	11	1	SIC	364	RC	0	1	23RO	0	1	0.764405012131	-509.0	340.0	None	None	0
1.7	2015_Jul_20_1212	s	s	11	1	SIC	365	RC	2	1	23VO	1	0	0.486941814423	-319.0	-143.0	-314	-141	1
1.7	2015_Jul_20_1212	s	s	11	1	SIC	366	RC	1	0	23MC	1	0	1.10958504677	-419.0	-252.0	-420	-246	1
1.7	2015_Jul_20_1212	s	s	11	1	SIC	367	ABS	2	2	24VD	0	1	0.63063788414	None	None	None	None	1
1.7	2015_Jul_20_1212	s	s	11	1	SIC	368	ABS	1	2	24MD	0	1	0.665719985962	None	None	None	None	1
1.7	2015_Jul_20_1212	s	s	11	1	SIC	369	ABS	0	1	24RO	0	1	1.91232514381	None	None	None	None	1
1.7	2015_Jul_20_1212	s	s	11	1	SIC	370	ABS	1	0	24MC	0	1	1.80784988403	None	None	None	None	1
1.7	2015_Jul_20_1212	s	s	11	1	SIC	371	RC	1	0	23MC	1	0	4.14263296127	266.0	-205.0	270	-207	1
1.7	2015_Jul_20_1212	s	s	11	1	SIC	372	ABS	1	2	24MD	0	1	0.68851017952	None	None	None	None	1
1.7	2015_Jul_20_1212	s	s	11	1	SIC	373	RC	0	1	23RO	1	0	3.70715498924	406.0	411.0	411	413	1
1.7	2015_Jul_20_1212	s	s	11	1	SIC	374	ABS	0	2	24RD	0	1	0.994198083878	None	None	None	None	1
1.7	2015_Jul_20_1212	s	s	11	1	SIC	375	RC	2	2	23VD	1	0	0.717388153076	-223.0	193.0	-222	195	1
1.7	2015_Jul_20_1212	s	s	11	1	SIC	376	ABS	1	1	24MO	0	1	1.12459802628	None	None	None	None	1
1.7	2015_Jul_20_1212	s	s	11	1	SIC	377	RC	1	1	23MO	1	0	0.81152510643	174.0	14.0	180	8	1
1.7	2015_Jul_20_1212	s	s	11	1	SIC	378	ABS	2	0	24VC	0	1	0.69398188591	None	None	None	None	1
1.7	2015_Jul_20_1212	s	s	11	1	SIC	379	ABS	2	1	24VO	0	1	0.62322306633	None	None	None	None	1
1.7	2015_Jul_20_1212	s	s	11	1	SIC	380	ABS	2	2	24VD	0	1	0.632485151291	None	None	None	None	1
1.7	2015_Jul_20_1212	s	s	11	1	SIC	381	RC	1	2	23MD	1	0	0.655861139297	66.0	65.0	77	74	1
1.7	2015_Jul_20_1212	s	s	11	1	SIC	382	RC	0	2	23RD	1	0	0.629664182663	183.0	-245.0	182	-239	1
1.7	2015_Jul_20_1212	s	s	11	1	SIC	383	RC	2	1	23VO	1	0	0.968216896057	33.0	-397.0	27	-389	1
1.7	2015_Jul_20_1212	s	s	11	1	SIC	384	RC	2	0	23VC	1	0	0.667706012726	106.0	75.0	115	80	1
1.7	2015_Jul_20_1212	s	s	11	1	SIC	385	ABS	2	0	24VC	0	1	0.634876012802	None	None	None	None	1
1.7	2015_Jul_20_1212	s	s	11	1	SIC	386	RC	0	1	23RO	1	0	1.15289902687	362.0	73.0	366	71	1
1.7	2015_Jul_20_1212	s	s	11	1	SIC	387	ABS	1	0	24MC	0	1	1.52474784851	None	None	None	None	1
1.7	2015_Jul_20_1212	s	s	11	1	SIC	388	RC	2	0	23VC	1	0	0.653393983841	-453.0	-289.0	-462	-287	1
1.7	2015_Jul_20_1212	s	s	11	1	SIC	389	ABS	0	1	24RO	0	1	2.74773311615	None	None	None	None	1
1.7	2015_Jul_20_1212	s	s	11	1	SIC	390	ABS	1	2	24MD	0	1	0.740761041641	None	None	None	None	1
1.7	2015_Jul_20_1212	s	s	11	1	SIC	391	RC	2	1	23VO	1	0	0.964548110962	526.0	-394.0	530	-392	1
1.7	2015_Jul_20_1212	s	s	11	1	SIC	392	RC	1	1	23MO	1	0	1.05854821205	182.0	-191.0	179	-184	1
1.7	2015_Jul_20_1212	s	s	11	1	SIC	393	ABS	1	1	24MO	0	1	1.51282000542	None	None	None	None	1
1.7	2015_Jul_20_1212	s	s	11	1	SIC	394	ABS	0	2	24RD	0	1	0.984996795654	None	None	None	None	1
1.7	2015_Jul_20_1212	s	s	11	1	SIC	395	RC	0	2	23RD	1	0	0.564376831055	270.0	-47.0	282	-45	1
1.7	2015_Jul_20_1212	s	s	11	1	SIC	396	RC	1	2	23MD	1	0	0.594042062759	433.0	131.0	440	126	1
1.7	2015_Jul_20_1212	s	s	11	1	SIC	397	ABS	2	2	24VD	0	1	0.630246162415	None	None	None	None	1
1.7	2015_Jul_20_1212	s	s	11	1	SIC	398	RC	1	0	23MC	1	0	1.38363385201	141.0	-318.0	140	-318	1
1.7	2015_Jul_20_1212	s	s	11	1	SIC	399	RC	2	2	23VD	1	0	0.540756940842	-135.0	350.0	-124	359	1
1.7	2015_Jul_20_1212	s	s	11	1	SIC	400	ABS	2	1	24VO	0	1	0.760749101639	None	None	None	None	1
1.7	2015_Jul_20_1212	s	s	11	1	SIC	401	RC	2	2	23VD	1	0	0.571161031723	-88.0	325.0	-81	326	1
1.7	2015_Jul_20_1212	s	s	11	1	SIC	402	RC	1	2	23MD	1	0	0.635007143021	379.0	-342.0	389	-340	1
1.7	2015_Jul_20_1212	s	s	11	1	SIC	403	ABS	1	1	24MO	0	1	3.62503695488	None	None	None	None	1
1.7	2015_Jul_20_1212	s	s	11	1	SIC	404	RC	2	0	23VC	1	0	0.606574058533	-63.0	144.0	-69	151	1
1.7	2015_Jul_20_1212	s	s	11	1	SIC	405	ABS	2	0	24VC	1	0	0.62321305275	None	None	-69	-16	0
1.7	2015_Jul_20_1212	s	s	11	1	SIC	406	ABS	0	1	24RO	0	1	3.77291488647	None	None	None	None	1
1.7	2015_Jul_20_1212	s	s	11	1	SIC	407	RC	1	0	23MC	0	1	2.0827589035	-299.0	-172.0	None	None	0
1.7	2015_Jul_20_1212	s	s	11	1	SIC	408	ABS	2	2	24VD	0	1	0.68248295784	None	None	None	None	1
1.7	2015_Jul_20_1212	s	s	11	1	SIC	409	ABS	1	2	24MD	0	1	0.588026046753	None	None	None	None	1
1.7	2015_Jul_20_1212	s	s	11	1	SIC	410	RC	1	1	23MO	1	0	1.87081980705	473.0	-374.0	469	-379	1
1.7	2015_Jul_20_1212	s	s	11	1	SIC	411	RC	0	2	23RD	1	0	0.905680894852	-437.0	3.0	-445	-1	1
1.7	2015_Jul_20_1212	s	s	11	1	SIC	412	RC	0	1	23RO	1	0	3.34222197533	103.0	325.0	94	323	1
1.7	2015_Jul_20_1212	s	s	11	1	SIC	413	ABS	1	0	24MC	0	1	0.905742883682	None	None	None	None	1
1.7	2015_Jul_20_1212	s	s	11	1	SIC	414	RC	2	1	23VO	1	0	0.650454044342	-66.0	-277.0	-69	-273	1
1.7	2015_Jul_20_1212	s	s	11	1	SIC	415	ABS	0	2	24RD	0	1	0.940953969955	None	None	None	None	1
1.7	2015_Jul_20_1212	s	s	11	1	SIC	416	ABS	2	1	24VO	0	1	0.634953022003	None	None	None	None	1
1.7	2015_Jul_20_1212	s	s	11	1	SIC	417	ABS	0	1	24RO	0	1	3.80762696266	None	None	None	None	1
1.7	2015_Jul_20_1212	s	s	11	1	SIC	418	ABS	2	1	24VO	0	1	0.646717071533	None	None	None	None	1
1.7	2015_Jul_20_1212	s	s	11	1	SIC	419	ABS	1	1	24MO	0	1	1.96503400803	None	None	None	None	1
1.7	2015_Jul_20_1212	s	s	11	1	SIC	420	ABS	1	2	24MD	0	1	0.52410697937	None	None	None	None	1
1.7	2015_Jul_20_1212	s	s	11	1	SIC	421	ABS	2	0	24VC	0	1	0.923777103424	None	None	None	None	1
1.7	2015_Jul_20_1212	s	s	11	1	SIC	422	ABS	1	0	24MC	0	1	3.17746806145	None	None	None	None	1
1.7	2015_Jul_20_1212	s	s	11	1	SIC	423	RC	1	2	23MD	1	0	0.644096851349	289.0	239.0	291	235	1
1.7	2015_Jul_20_1212	s	s	11	1	SIC	424	RC	0	2	23RD	1	0	1.19491219521	416.0	-173.0	418	-179	1
1.7	2015_Jul_20_1212	s	s	11	1	SIC	425	RC	2	2	23VD	1	0	0.570062160492	136.0	135.0	133	136	1
1.7	2015_Jul_20_1212	s	s	11	1	SIC	426	RC	0	1	23RO	1	0	2.51460909843	383.0	-385.0	383	-380	1
1.7	2015_Jul_20_1212	s	s	11	1	SIC	427	ABS	2	2	24VD	0	1	0.697414875031	None	None	None	None	1
1.7	2015_Jul_20_1212	s	s	11	1	SIC	428	RC	1	1	23MO	1	0	0.658400058746	22.0	64.0	31	70	1
1.7	2015_Jul_20_1212	s	s	11	1	SIC	429	ABS	0	2	24RD	0	1	0.732802152634	None	None	None	None	1
1.7	2015_Jul_20_1212	s	s	11	1	SIC	430	RC	2	0	23VC	1	0	0.493751049042	15.0	389.0	8	389	1
1.7	2015_Jul_20_1212	s	s	11	1	SIC	431	RC	1	0	23MC	0	1	1.79782700539	-469.0	253.0	None	None	0
1.7	2015_Jul_20_1212	s	s	11	1	SIC	432	RC	2	1	23VO	1	0	0.49054312706	512.0	207.0	509	205	1
1.7	2015_Jul_20_1212	s	s	11	1	SIC	433	ABS	1	2	24MD	0	1	0.747269153595	None	None	None	None	1
1.7	2015_Jul_20_1212	s	s	11	1	SIC	434	RC	2	0	23VC	1	0	0.548830032349	353.0	-41.0	347	-43	1
1.7	2015_Jul_20_1212	s	s	11	1	SIC	435	RC	1	1	23MO	1	0	1.41579008102	101.0	-194.0	103	-196	1
1.7	2015_Jul_20_1212	s	s	11	1	SIC	436	ABS	1	0	24MC	0	1	1.50140404701	None	None	None	None	1
1.7	2015_Jul_20_1212	s	s	11	1	SIC	437	RC	1	2	23MD	1	0	0.629278898239	311.0	151.0	313	149	1
1.7	2015_Jul_20_1212	s	s	11	1	SIC	438	ABS	0	1	24RO	0	1	3.59629893303	None	None	None	None	1
1.7	2015_Jul_20_1212	s	s	11	1	SIC	439	ABS	1	1	24MO	0	1	1.06558489799	None	None	None	None	1
1.7	2015_Jul_20_1212	s	s	11	1	SIC	440	ABS	2	1	24VO	0	1	0.500382184982	None	None	None	None	1
1.7	2015_Jul_20_1212	s	s	11	1	SIC	441	RC	2	1	23VO	1	0	0.735350847244	-194.0	-286.0	-193	-293	1
1.7	2015_Jul_20_1212	s	s	11	1	SIC	442	RC	0	2	23RD	1	0	0.764440059662	509.0	259.0	504	259	1
1.7	2015_Jul_20_1212	s	s	11	1	SIC	443	ABS	0	2	24RD	0	1	1.40006613731	None	None	None	None	1
1.7	2015_Jul_20_1212	s	s	11	1	SIC	444	RC	0	1	23RO	0	1	1.31269097328	33.0	-39.0	None	None	0
1.7	2015_Jul_20_1212	s	s	11	1	SIC	445	ABS	2	0	24VC	0	1	0.594548940659	None	None	None	None	1
1.7	2015_Jul_20_1212	s	s	11	1	SIC	446	RC	1	0	23MC	1	0	1.34125590324	460.0	176.0	461	176	1
1.7	2015_Jul_20_1212	s	s	11	1	SIC	447	RC	2	2	23VD	1	0	0.552616834641	363.0	-63.0	371	-56	1
1.7	2015_Jul_20_1212	s	s	11	1	SIC	448	ABS	2	2	24VD	0	1	0.729103088379	None	None	None	None	1
1.7	2015_Jul_20_1212	s	s	11	1	SIC	449	ABS	2	0	24VC	0	1	0.818422079086	None	None	None	None	1
1.7	2015_Jul_20_1212	s	s	11	1	SIC	450	RC	0	2	23RD	1	0	0.770080089569	-512.0	64.0	-513	66	1
1.7	2015_Jul_20_1212	s	s	11	1	SIC	451	ABS	1	0	24MC	0	1	1.18284511566	None	None	None	None	1
1.7	2015_Jul_20_1212	s	s	11	1	SIC	452	RC	2	1	23VO	1	0	0.658537149429	-278.0	-110.0	-281	-109	1
1.7	2015_Jul_20_1212	s	s	11	1	SIC	453	RC	2	0	23VC	1	0	0.744617938995	378.0	144.0	380	146	1
1.7	2015_Jul_20_1212	s	s	11	1	SIC	454	RC	1	1	23MO	1	0	0.811416864395	-132.0	247.0	-128	250	1
1.7	2015_Jul_20_1212	s	s	11	1	SIC	455	ABS	2	2	24VD	0	1	0.62361907959	None	None	None	None	1
1.7	2015_Jul_20_1212	s	s	11	1	SIC	456	RC	2	2	23VD	1	0	0.61146402359	485.0	-144.0	481	-138	1
1.7	2015_Jul_20_1212	s	s	11	1	SIC	457	RC	1	0	23MC	1	0	2.13697600365	-397.0	-225.0	-400	-228	1
1.7	2015_Jul_20_1212	s	s	11	1	SIC	458	ABS	0	2	24RD	0	1	0.752574205399	None	None	None	None	1
1.7	2015_Jul_20_1212	s	s	11	1	SIC	459	RC	0	1	23RO	1	0	4.05502891541	212.0	267.0	215	271	1
1.7	2015_Jul_20_1212	s	s	11	1	SIC	460	ABS	0	1	24RO	0	1	3.78453207016	None	None	None	None	1
1.7	2015_Jul_20_1212	s	s	11	1	SIC	461	ABS	1	2	24MD	0	1	0.752696037292	None	None	None	None	1
1.7	2015_Jul_20_1212	s	s	11	1	SIC	462	RC	1	2	23MD	1	0	0.818138122559	-145.0	128.0	-138	136	1
1.7	2015_Jul_20_1212	s	s	11	1	SIC	463	ABS	1	1	24MO	0	1	0.929270982742	None	None	None	None	1
1.7	2015_Jul_20_1212	s	s	11	1	SIC	464	ABS	2	1	24VO	0	1	0.740969181061	None	None	None	None	1
1.7	2015_Jul_20_1212	s	s	11	1	SIC	465	RC	2	2	23VD	1	0	0.587913036346	-332.0	-317.0	-333	-323	1
1.7	2015_Jul_20_1212	s	s	11	1	SIC	466	RC	1	2	23MD	1	0	1.18306708336	85.0	-129.0	83	-125	1
1.7	2015_Jul_20_1212	s	s	11	1	SIC	467	ABS	0	1	24RO	0	1	3.36576914787	None	None	None	None	1
1.7	2015_Jul_20_1212	s	s	11	1	SIC	468	ABS	0	2	24RD	0	1	1.15288615227	None	None	None	None	1
1.7	2015_Jul_20_1212	s	s	11	1	SIC	469	ABS	2	1	24VO	0	1	0.735225915909	None	None	None	None	1
1.7	2015_Jul_20_1212	s	s	11	1	SIC	470	ABS	2	2	24VD	0	1	0.667646884918	None	None	None	None	1
1.7	2015_Jul_20_1212	s	s	11	1	SIC	471	RC	2	1	23VO	1	0	0.629442930222	362.0	-7.0	354	-5	1
1.7	2015_Jul_20_1212	s	s	11	1	SIC	472	RC	0	2	23RD	1	0	0.524183034897	-150.0	87.0	-144	80	1
1.7	2015_Jul_20_1212	s	s	11	1	SIC	473	RC	0	1	23RO	0	1	1.38829421997	-373.0	39.0	None	None	0
1.7	2015_Jul_20_1212	s	s	11	1	SIC	474	RC	1	0	23MC	0	1	1.23022007942	-536.0	-229.0	None	None	0
1.7	2015_Jul_20_1212	s	s	11	1	SIC	475	ABS	1	2	24MD	0	1	0.635016918182	None	None	None	None	1
1.7	2015_Jul_20_1212	s	s	11	1	SIC	476	ABS	1	0	24MC	0	1	0.735931873322	None	None	None	None	1
1.7	2015_Jul_20_1212	s	s	11	1	SIC	477	RC	1	1	23MO	1	0	1.52445888519	-120.0	142.0	-118	143	1
1.7	2015_Jul_20_1212	s	s	11	1	SIC	478	RC	2	0	23VC	1	0	0.935934782028	343.0	-333.0	348	-331	1
1.7	2015_Jul_20_1212	s	s	11	1	SIC	479	ABS	1	1	24MO	0	1	1.94151091576	None	None	None	None	1
1.7	2015_Jul_20_1212	s	s	11	1	SIC	480	ABS	2	0	24VC	0	1	1.07895708084	None	None	None	None	1
1.7	2015_Jul_20_1212	s	s	11	1	SIC	481	RC	1	1	23MO	1	0	0.646718978882	-386.0	369.0	-392	370	1
1.7	2015_Jul_20_1212	s	s	11	1	SIC	482	ABS	1	1	24MO	0	1	1.23140406609	None	None	None	None	1
1.7	2015_Jul_20_1212	s	s	11	1	SIC	483	ABS	1	0	24MC	0	1	1.76496005058	None	None	None	None	1
1.7	2015_Jul_20_1212	s	s	11	1	SIC	484	ABS	0	1	24RO	0	1	3.02216506004	None	None	None	None	1
1.7	2015_Jul_20_1212	s	s	11	1	SIC	485	RC	0	2	23RD	1	0	0.630156040192	-35.0	237.0	-39	234	1
1.7	2015_Jul_20_1212	s	s	11	1	SIC	486	ABS	2	1	24VO	0	1	0.913523197174	None	None	None	None	1
1.7	2015_Jul_20_1212	s	s	11	1	SIC	487	RC	2	1	23VO	1	0	0.670195102692	-236.0	302.0	-234	298	1
1.7	2015_Jul_20_1212	s	s	11	1	SIC	488	ABS	2	0	24VC	0	1	0.693856954575	None	None	None	None	1
1.7	2015_Jul_20_1212	s	s	11	1	SIC	489	ABS	2	2	24VD	0	1	0.588273048401	None	None	None	None	1
1.7	2015_Jul_20_1212	s	s	11	1	SIC	490	RC	0	1	23RO	0	1	1.03518509865	16.0	335.0	None	None	0
1.7	2015_Jul_20_1212	s	s	11	1	SIC	491	RC	2	0	23VC	1	0	0.50071310997	-493.0	52.0	-501	46	1
1.7	2015_Jul_20_1212	s	s	11	1	SIC	492	RC	1	2	23MD	1	0	0.615092992783	-381.0	55.0	-379	54	1
1.7	2015_Jul_20_1212	s	s	11	1	SIC	493	ABS	1	2	24MD	0	1	0.682296991348	None	None	None	None	1
1.7	2015_Jul_20_1212	s	s	11	1	SIC	494	RC	2	2	23VD	1	0	0.676862001419	-230.0	-202.0	-227	-209	1
1.7	2015_Jul_20_1212	s	s	11	1	SIC	495	ABS	0	2	24RD	0	1	0.862221002579	None	None	None	None	1
1.7	2015_Jul_20_1212	s	s	11	1	SIC	496	RC	1	0	23MC	0	1	1.97130084038	79.0	-126.0	None	None	0
1.7	2015_Jul_20_1212	s	s	11	1	SIC	497	ABS	1	2	24MD	0	1	0.835030794144	None	None	None	None	1
1.7	2015_Jul_20_1212	s	s	11	1	SIC	498	RC	1	0	23MC	1	0	3.23146080971	-35.0	403.0	-45	402	1
1.7	2015_Jul_20_1212	s	s	11	1	SIC	499	RC	2	1	23VO	1	0	0.547604084015	503.0	269.0	509	269	1
1.7	2015_Jul_20_1212	s	s	11	1	SIC	500	RC	1	2	23MD	1	0	0.772797107697	354.0	-363.0	355	-359	1
1.7	2015_Jul_20_1212	s	s	11	1	SIC	501	ABS	2	2	24VD	0	1	0.799716949463	None	None	None	None	1
1.7	2015_Jul_20_1212	s	s	11	1	SIC	502	RC	0	2	23RD	1	0	1.62368702888	114.0	-298.0	105	-293	1
1.7	2015_Jul_20_1212	s	s	11	1	SIC	503	ABS	0	1	24RO	0	1	2.00840902328	None	None	None	None	1
1.7	2015_Jul_20_1212	s	s	11	1	SIC	504	ABS	1	1	24MO	0	1	2.96538305283	None	None	None	None	1
1.7	2015_Jul_20_1212	s	s	11	1	SIC	505	ABS	0	2	24RD	0	1	1.01154708862	None	None	None	None	1
1.7	2015_Jul_20_1212	s	s	11	1	SIC	506	RC	0	1	23RO	1	0	3.5893509388	-284.0	-337.0	-278	-337	1
1.7	2015_Jul_20_1212	s	s	11	1	SIC	507	ABS	1	0	24MC	0	1	0.823317050934	None	None	None	None	1
1.7	2015_Jul_20_1212	s	s	11	1	SIC	508	RC	2	2	23VD	1	0	0.547575950623	408.0	107.0	420	112	1
1.7	2015_Jul_20_1212	s	s	11	1	SIC	509	ABS	2	0	24VC	0	1	1.34775996208	None	None	None	None	1
1.7	2015_Jul_20_1212	s	s	11	1	SIC	510	ABS	2	1	24VO	0	1	0.641620159149	None	None	None	None	1
1.7	2015_Jul_20_1212	s	s	11	1	SIC	511	RC	1	1	23MO	0	1	0.666790008545	-369.0	-241.0	None	None	0
1.7	2015_Jul_20_1212	s	s	11	1	SIC	512	RC	2	0	23VC	1	0	0.658579111099	-59.0	-297.0	-51	-297	1
1.7	2015_Jul_20_1212	s	s	11	1	SIC	513	RC	2	2	23VD	1	0	0.738214969635	533.0	-247.0	527	-256	1
1.7	2015_Jul_20_1212	s	s	11	1	SIC	514	RC	1	2	23MD	1	0	0.583207130432	535.0	-370.0	533	-386	1
1.7	2015_Jul_20_1212	s	s	11	1	SIC	515	ABS	1	0	24MC	0	1	0.853658914566	None	None	None	None	1
1.7	2015_Jul_20_1212	s	s	11	1	SIC	516	ABS	2	0	24VC	0	1	0.65048789978	None	None	None	None	1
1.7	2015_Jul_20_1212	s	s	11	1	SIC	517	ABS	0	1	24RO	0	1	2.61874914169	None	None	None	None	1
1.7	2015_Jul_20_1212	s	s	11	1	SIC	518	RC	2	0	23VC	1	0	0.535620927811	99.0	-295.0	95	-296	1
1.7	2015_Jul_20_1212	s	s	11	1	SIC	519	ABS	1	2	24MD	0	1	0.889119148254	None	None	None	None	1
1.7	2015_Jul_20_1212	s	s	11	1	SIC	520	RC	0	1	23RO	1	0	3.65426588058	-240.0	50.0	-242	54	1
1.7	2015_Jul_20_1212	s	s	11	1	SIC	521	ABS	0	2	24RD	0	1	0.752682924271	None	None	None	None	1
1.7	2015_Jul_20_1212	s	s	11	1	SIC	522	RC	0	2	23RD	1	0	0.611421823502	95.0	-148.0	103	-140	1
1.7	2015_Jul_20_1212	s	s	11	1	SIC	523	RC	1	0	23MC	0	1	0.846853017807	530.0	396.0	None	None	0
1.7	2015_Jul_20_1212	s	s	11	1	SIC	524	ABS	1	1	24MO	0	1	1.00870704651	None	None	None	None	1
1.7	2015_Jul_20_1212	s	s	11	1	SIC	525	RC	1	1	23MO	0	1	0.693838119507	-85.0	-352.0	None	None	0
1.7	2015_Jul_20_1212	s	s	11	1	SIC	526	ABS	2	1	24VO	0	1	0.656075000763	None	None	None	None	1
1.7	2015_Jul_20_1212	s	s	11	1	SIC	527	RC	2	1	23VO	1	0	0.529460906982	117.0	128.0	122	135	1
1.7	2015_Jul_20_1212	s	s	11	1	SIC	528	ABS	2	2	24VD	0	1	0.540767908096	None	None	None	None	1
1.7	2015_Jul_20_1212	s	s	11	1	SIC	529	RC	1	2	23MD	1	0	0.803270101547	-433.0	204.0	-427	202	1
1.7	2015_Jul_20_1212	s	s	11	1	SIC	530	ABS	0	2	24RD	0	1	0.740850925446	None	None	None	None	1
1.7	2015_Jul_20_1212	s	s	11	1	SIC	531	ABS	1	2	24MD	0	1	0.711745977402	None	None	None	None	1
1.7	2015_Jul_20_1212	s	s	11	1	SIC	532	ABS	0	1	24RO	0	1	1.96503210068	None	None	None	None	1
1.7	2015_Jul_20_1212	s	s	11	1	SIC	533	RC	2	1	23VO	1	0	0.71227478981	-116.0	-294.0	-108	-290	1
1.7	2015_Jul_20_1212	s	s	11	1	SIC	534	RC	0	1	23RO	0	1	1.11759185791	99.0	265.0	None	None	0
1.7	2015_Jul_20_1212	s	s	11	1	SIC	535	ABS	1	0	24MC	0	1	0.764470100403	None	None	None	None	1
1.7	2015_Jul_20_1212	s	s	11	1	SIC	536	ABS	1	1	24MO	0	1	0.65607881546	None	None	None	None	1
1.7	2015_Jul_20_1212	s	s	11	1	SIC	537	ABS	2	1	24VO	0	1	0.729171037674	None	None	None	None	1
1.7	2015_Jul_20_1212	s	s	11	1	SIC	538	ABS	2	2	24VD	0	1	0.347435951233	None	None	None	None	1
1.7	2015_Jul_20_1212	s	s	11	1	SIC	539	RC	2	0	23VC	1	0	0.774096012115	-522.0	-218.0	-525	-221	1
1.7	2015_Jul_20_1212	s	s	11	1	SIC	540	RC	1	0	23MC	1	0	3.00081110001	291.0	-56.0	298	-59	1
1.7	2015_Jul_20_1212	s	s	11	1	SIC	541	RC	0	2	23RD	1	0	0.62021112442	-96.0	384.0	-104	386	1
1.7	2015_Jul_20_1212	s	s	11	1	SIC	542	RC	2	2	23VD	1	0	0.623158931732	352.0	-18.0	362	-20	1
1.7	2015_Jul_20_1212	s	s	11	1	SIC	543	ABS	2	0	24VC	0	1	0.737267017365	None	None	None	None	1
1.7	2015_Jul_20_1212	s	s	11	1	SIC	544	RC	1	1	23MO	1	0	1.03522610664	47.0	-108.0	52	-106	1
1.7	2015_Jul_20_1212	s	s	11	1	SIC	545	ABS	2	2	24VD	0	1	0.688676834106	None	None	None	None	1
1.7	2015_Jul_20_1212	s	s	11	1	SIC	546	RC	2	2	23VD	1	0	0.618180990219	198.0	-52.0	190	-49	1
1.7	2015_Jul_20_1212	s	s	11	1	SIC	547	RC	1	2	23MD	1	0	0.611425161362	-474.0	305.0	-469	310	1
1.7	2015_Jul_20_1212	s	s	11	1	SIC	548	ABS	0	1	24RO	0	1	3.49516820908	None	None	None	None	1
1.7	2015_Jul_20_1212	s	s	11	1	SIC	549	ABS	0	2	24RD	0	1	0.846790075302	None	None	None	None	1
1.7	2015_Jul_20_1212	s	s	11	1	SIC	550	RC	1	0	23MC	1	0	0.926816940308	-342.0	148.0	-339	153	1
1.7	2015_Jul_20_1212	s	s	11	1	SIC	551	ABS	1	0	24MC	0	1	5.27257514	None	None	None	None	1
1.7	2015_Jul_20_1212	s	s	11	1	SIC	552	RC	1	1	23MO	1	0	1.45111918449	-353.0	314.0	-353	320	1
1.7	2015_Jul_20_1212	s	s	11	1	SIC	553	RC	2	0	23VC	1	0	0.502901792526	412.0	58.0	405	63	1
1.7	2015_Jul_20_1212	s	s	11	1	SIC	554	RC	2	1	23VO	1	0	0.482012033463	396.0	30.0	399	33	1
1.7	2015_Jul_20_1212	s	s	11	1	SIC	555	ABS	2	1	24VO	0	1	0.776136159897	None	None	None	None	1
1.7	2015_Jul_20_1212	s	s	11	1	SIC	556	ABS	1	2	24MD	0	1	0.59509396553	None	None	None	None	1
1.7	2015_Jul_20_1212	s	s	11	1	SIC	557	ABS	2	0	24VC	0	1	0.583534002304	None	None	None	None	1
1.7	2015_Jul_20_1212	s	s	11	1	SIC	558	RC	0	1	23RO	0	1	2.65937495232	-369.0	114.0	None	None	0
1.7	2015_Jul_20_1212	s	s	11	1	SIC	559	ABS	1	1	24MO	0	1	0.665242195129	None	None	None	None	1
1.7	2015_Jul_20_1212	s	s	11	1	SIC	560	RC	0	2	23RD	1	0	0.587862014771	-300.0	-46.0	-310	-41	1
1.7	2015_Jul_20_1212	s	s	11	1	SIC	561	RC	0	1	23RO	0	1	1.08841395378	535.0	109.0	None	None	0
1.7	2015_Jul_20_1212	s	s	11	1	SIC	562	ABS	1	0	24MC	0	1	0.905956983566	None	None	None	None	1
1.7	2015_Jul_20_1212	s	s	11	1	SIC	563	ABS	1	2	24MD	0	1	0.630733013153	None	None	None	None	1
1.7	2015_Jul_20_1212	s	s	11	1	SIC	564	RC	1	1	23MO	1	0	1.38834309578	-153.0	-311.0	-145	-316	1
1.7	2015_Jul_20_1212	s	s	11	1	SIC	565	RC	2	2	23VD	1	0	0.858633995056	-163.0	224.0	-162	228	1
1.7	2015_Jul_20_1212	s	s	11	1	SIC	566	RC	0	2	23RD	1	0	1.80027794838	-344.0	-293.0	-347	-291	1
1.7	2015_Jul_20_1212	s	s	11	1	SIC	567	ABS	2	0	24VC	0	1	0.747076034546	None	None	None	None	1
1.7	2015_Jul_20_1212	s	s	11	1	SIC	568	ABS	0	2	24RD	0	1	1.67757892609	None	None	None	None	1
1.7	2015_Jul_20_1212	s	s	11	1	SIC	569	RC	2	0	23VC	1	0	1.08244895935	-406.0	331.0	-401	337	1
1.7	2015_Jul_20_1212	s	s	11	1	SIC	570	ABS	2	2	24VD	0	1	0.67728805542	None	None	None	None	1
1.7	2015_Jul_20_1212	s	s	11	1	SIC	571	ABS	0	1	24RO	0	1	1.9885699749	None	None	None	None	1
1.7	2015_Jul_20_1212	s	s	11	1	SIC	572	RC	2	1	23VO	1	0	1.61190795898	470.0	353.0	477	348	1
1.7	2015_Jul_20_1212	s	s	11	1	SIC	573	ABS	2	1	24VO	0	1	0.764400959015	None	None	None	None	1
1.7	2015_Jul_20_1212	s	s	11	1	SIC	574	RC	1	2	23MD	1	0	0.641917943954	-167.0	69.0	-174	63	1
1.7	2015_Jul_20_1212	s	s	11	1	SIC	575	ABS	1	1	24MO	0	1	1.02340197563	None	None	None	None	1
1.7	2015_Jul_20_1212	s	s	11	1	SIC	576	RC	1	0	23MC	1	0	2.91628718376	225.0	-309.0	225	-306	1
1.7	2015_Jul_20_1212	s	s	11	1	SIC	577	RC	1	1	23MO	1	0	1.70601820946	-205.0	-46.0	-202	-41	1
1.7	2015_Jul_20_1212	s	s	11	1	SIC	578	RC	2	2	23VD	1	0	0.582921981812	361.0	-247.0	369	-249	1
1.7	2015_Jul_20_1212	s	s	11	1	SIC	579	RC	2	0	23VC	1	0	0.571059942245	242.0	164.0	246	170	1
1.7	2015_Jul_20_1212	s	s	11	1	SIC	580	ABS	2	0	24VC	0	1	0.752677202225	None	None	None	None	1
1.7	2015_Jul_20_1212	s	s	11	1	SIC	581	RC	1	0	23MC	0	1	1.30046319962	503.0	-375.0	None	None	0
1.7	2015_Jul_20_1212	s	s	11	1	SIC	582	ABS	1	1	24MO	1	0	1.43018198013	None	None	-50	63	0
1.7	2015_Jul_20_1212	s	s	11	1	SIC	583	ABS	0	2	24RD	0	1	0.724619150162	None	None	None	None	1
1.7	2015_Jul_20_1212	s	s	11	1	SIC	584	ABS	0	1	24RO	0	1	4.58993196487	None	None	None	None	1
1.7	2015_Jul_20_1212	s	s	11	1	SIC	585	RC	1	2	23MD	1	0	0.506354808807	0.0	185.0	2	176	1
1.7	2015_Jul_20_1212	s	s	11	1	SIC	586	ABS	1	0	24MC	0	1	1.5488319397	None	None	None	None	1
1.7	2015_Jul_20_1212	s	s	11	1	SIC	587	ABS	2	2	24VD	0	1	0.630054950714	None	None	None	None	1
1.7	2015_Jul_20_1212	s	s	11	1	SIC	588	RC	2	1	23VO	1	0	0.717367172241	246.0	68.0	245	70	1
1.7	2015_Jul_20_1212	s	s	11	1	SIC	589	ABS	1	2	24MD	0	1	0.799789905548	None	None	None	None	1
1.7	2015_Jul_20_1212	s	s	11	1	SIC	590	RC	0	1	23RO	0	1	6.46140980721	421.0	-266.0	None	None	0
1.7	2015_Jul_20_1212	s	s	11	1	SIC	591	ABS	2	1	24VO	0	1	0.544536113739	None	None	None	None	1
1.7	2015_Jul_20_1212	s	s	11	1	SIC	592	RC	0	2	23RD	1	0	1.58843183517	188.0	260.0	189	259	1
