Version	Date	Stimuli	Method	Subject	Session	Condition	Trial	Target	Channel1	Channel2	Distractors	LMouseButton	RMouseButton	RT	TargetX	TargetY	ResponseX	ResponseY	Correct
1.7	2015_Jul_20_1438	s	s	12	1	Capacity	1	RC	0	1	23RO	1	0	2.30638599396	-177.0	-314.0	-168	-305	1
1.7	2015_Jul_20_1438	s	s	12	1	Capacity	2	RC	0	2	23RD	1	0	0.964560985565	41.0	-89.0	42	-92	1
1.7	2015_Jul_20_1438	s	s	12	1	Capacity	3	ABS	0	1	24RO	1	0	0.0856950283051	None	None	-70	66	0
1.7	2015_Jul_20_1438	s	s	12	1	Capacity	4	ABS	0	2	24RD	0	1	4.83699393272	None	None	None	None	1
1.7	2015_Jul_20_1438	s	s	12	1	Capacity	5	ABS	0	2	24RD	0	1	5.799710989	None	None	None	None	1
1.7	2015_Jul_20_1438	s	s	12	1	Capacity	6	ABS	0	1	24RO	0	1	10.7053749561	None	None	None	None	1
1.7	2015_Jul_20_1438	s	s	12	1	Capacity	7	RC	0	2	23RD	1	0	1.20619702339	-507.0	-301.0	-511	-303	1
1.7	2015_Jul_20_1438	s	s	12	1	Capacity	8	RC	0	1	23RO	0	1	6.72902083397	409.0	-110.0	None	None	0
1.7	2015_Jul_20_1438	s	s	12	1	Capacity	9	ABS	0	2	24RD	0	1	6.72408294678	None	None	None	None	1
1.7	2015_Jul_20_1438	s	s	12	1	Capacity	10	RC	0	1	23RO	1	0	2.76035284996	-112.0	408.0	-117	411	1
1.7	2015_Jul_20_1438	s	s	12	1	Capacity	11	ABS	0	1	24RO	0	1	7.30641293526	None	None	None	None	1
1.7	2015_Jul_20_1438	s	s	12	1	Capacity	12	RC	0	2	23RD	1	0	1.52632904053	-465.0	391.0	-464	397	1
1.7	2015_Jul_20_1438	s	s	12	1	Capacity	13	ABS	0	1	24RO	0	1	5.76679801941	None	None	None	None	1
1.7	2015_Jul_20_1438	s	s	12	1	Capacity	14	RC	0	2	23RD	1	0	4.01041388512	493.0	8.0	501	8	1
1.7	2015_Jul_20_1438	s	s	12	1	Capacity	15	RC	0	1	23RO	1	0	1.88264989853	-8.0	131.0	2	131	1
1.7	2015_Jul_20_1438	s	s	12	1	Capacity	16	ABS	0	2	24RD	0	1	3.97270202637	None	None	None	None	1
1.7	2015_Jul_20_1438	s	s	12	1	Capacity	17	RC	0	2	23RD	1	0	1.41914010048	425.0	134.0	425	127	1
1.7	2015_Jul_20_1438	s	s	12	1	Capacity	18	ABS	0	2	24RD	0	1	4.8322250843	None	None	None	None	1
1.7	2015_Jul_20_1438	s	s	12	1	Capacity	19	RC	0	1	23RO	1	0	1.11448502541	-375.0	290.0	-380	281	1
1.7	2015_Jul_20_1438	s	s	12	1	Capacity	20	ABS	0	1	24RO	0	1	6.79110407829	None	None	None	None	1
1.7	2015_Jul_20_1438	s	s	12	1	Capacity	21	RC	0	1	23RO	1	0	3.79312586784	-334.0	-355.0	-336	-355	1
1.7	2015_Jul_20_1438	s	s	12	1	Capacity	22	RC	0	2	23RD	0	1	1.28236699104	445.0	10.0	None	None	0
1.7	2015_Jul_20_1438	s	s	12	1	Capacity	23	ABS	0	1	24RO	0	1	7.67374491692	None	None	None	None	1
1.7	2015_Jul_20_1438	s	s	12	1	Capacity	24	ABS	0	2	24RD	0	1	5.3667049408	None	None	None	None	1
1.7	2015_Jul_20_1438	s	s	12	1	Capacity	25	ABS	0	1	24RO	0	1	8.91730809212	None	None	None	None	1
1.7	2015_Jul_20_1438	s	s	12	1	Capacity	26	RC	0	2	23RD	1	0	1.79735398293	392.0	-202.0	394	-205	1
1.7	2015_Jul_20_1438	s	s	12	1	Capacity	27	RC	0	1	23RO	1	0	2.84530591965	-468.0	-280.0	-473	-279	1
1.7	2015_Jul_20_1438	s	s	12	1	Capacity	28	ABS	0	2	24RD	0	1	3.66866493225	None	None	None	None	1
1.7	2015_Jul_20_1438	s	s	12	1	Capacity	29	RC	0	1	23RO	1	0	6.58849382401	-79.0	-313.0	-79	-309	1
1.7	2015_Jul_20_1438	s	s	12	1	Capacity	30	RC	0	2	23RD	1	0	2.32587695122	192.0	199.0	197	194	1
1.7	2015_Jul_20_1438	s	s	12	1	Capacity	31	ABS	0	2	24RD	0	1	3.29517197609	None	None	None	None	1
1.7	2015_Jul_20_1438	s	s	12	1	Capacity	32	ABS	0	1	24RO	0	1	9.15335297585	None	None	None	None	1
1.7	2015_Jul_20_1438	s	s	12	1	Capacity	33	RC	0	2	23RD	1	0	1.63552117348	134.0	-379.0	138	-380	1
1.7	2015_Jul_20_1438	s	s	12	1	Capacity	34	ABS	0	2	24RD	0	1	4.32819414139	None	None	None	None	1
1.7	2015_Jul_20_1438	s	s	12	1	Capacity	35	RC	0	1	23RO	1	0	4.49249815941	197.0	288.0	195	284	1
1.7	2015_Jul_20_1438	s	s	12	1	Capacity	36	ABS	0	1	24RO	0	1	5.96369385719	None	None	None	None	1
1.7	2015_Jul_20_1438	s	s	12	1	Capacity	37	ABS	0	2	24RD	0	1	3.52523803711	None	None	None	None	1
1.7	2015_Jul_20_1438	s	s	12	1	Capacity	38	RC	0	2	23RD	1	0	1.61782693863	195.0	-349.0	196	-352	1
1.7	2015_Jul_20_1438	s	s	12	1	Capacity	39	RC	0	1	23RO	1	0	4.90414905548	262.0	406.0	266	404	1
1.7	2015_Jul_20_1438	s	s	12	1	Capacity	40	ABS	0	1	24RO	0	1	9.75728392601	None	None	None	None	1
1.7	2015_Jul_20_1438	s	s	12	1	Capacity	41	ABS	0	1	24RO	0	1	9.00388383865	None	None	None	None	1
1.7	2015_Jul_20_1438	s	s	12	1	Capacity	42	RC	0	2	23RD	1	0	1.25487995148	-289.0	-117.0	-290	-116	1
1.7	2015_Jul_20_1438	s	s	12	1	Capacity	43	RC	0	1	23RO	1	0	1.12699103355	-236.0	18.0	-231	24	1
1.7	2015_Jul_20_1438	s	s	12	1	Capacity	44	ABS	0	2	24RD	0	1	2.64411401749	None	None	None	None	1
1.7	2015_Jul_20_1438	s	s	12	1	Capacity	45	ABS	0	1	24RO	0	1	10.1221499443	None	None	None	None	1
1.7	2015_Jul_20_1438	s	s	12	1	Capacity	46	RC	0	2	23RD	1	0	1.89434194565	-166.0	-277.0	-152	-270	1
1.7	2015_Jul_20_1438	s	s	12	1	Capacity	47	RC	0	1	23RO	0	1	5.48447489738	445.0	97.0	None	None	0
1.7	2015_Jul_20_1438	s	s	12	1	Capacity	48	ABS	0	2	24RD	0	1	3.68366003036	None	None	None	None	1
1.7	2015_Jul_20_1438	s	s	12	1	Capacity	49	RC	0	1	23RO	1	0	1.3244240284	-356.0	37.0	-354	40	1
1.7	2015_Jul_20_1438	s	s	12	1	Capacity	50	RC	0	2	23RD	1	0	1.7622730732	347.0	-100.0	359	-96	1
1.7	2015_Jul_20_1438	s	s	12	1	Capacity	51	ABS	0	1	24RO	0	1	8.61537790298	None	None	None	None	1
1.7	2015_Jul_20_1438	s	s	12	1	Capacity	52	ABS	0	2	24RD	0	1	3.41269302368	None	None	None	None	1
1.7	2015_Jul_20_1438	s	s	12	1	Capacity	53	RC	0	1	23RO	1	0	4.21320104599	477.0	14.0	475	16	1
1.7	2015_Jul_20_1438	s	s	12	1	Capacity	54	ABS	0	2	24RD	0	1	7.03824687004	None	None	None	None	1
1.7	2015_Jul_20_1438	s	s	12	1	Capacity	55	RC	0	2	23RD	1	0	0.858625888824	123.0	275.0	116	269	1
1.7	2015_Jul_20_1438	s	s	12	1	Capacity	56	ABS	0	1	24RO	0	1	6.88899993896	None	None	None	None	1
1.7	2015_Jul_20_1438	s	s	12	1	Capacity	57	RC	0	1	23RO	1	0	1.40723800659	-369.0	-176.0	-370	-172	1
1.7	2015_Jul_20_1438	s	s	12	1	Capacity	58	ABS	0	2	24RD	0	1	7.76308608055	None	None	None	None	1
1.7	2015_Jul_20_1438	s	s	12	1	Capacity	59	ABS	0	1	24RO	0	1	5.84935903549	None	None	None	None	1
1.7	2015_Jul_20_1438	s	s	12	1	Capacity	60	RC	0	2	23RD	1	0	0.952585935593	-535.0	366.0	-526	375	1
1.7	2015_Jul_20_1438	s	s	12	1	Capacity	61	RC	0	2	23RD	1	0	1.13552308083	-363.0	31.0	-359	27	1
1.7	2015_Jul_20_1438	s	s	12	1	Capacity	62	ABS	0	1	24RO	0	1	7.36780691147	None	None	None	None	1
1.7	2015_Jul_20_1438	s	s	12	1	Capacity	63	ABS	0	2	24RD	0	1	3.76303505898	None	None	None	None	1
1.7	2015_Jul_20_1438	s	s	12	1	Capacity	64	RC	0	1	23RO	1	0	3.04249787331	35.0	242.0	44	240	1
1.7	2015_Jul_20_1438	s	s	12	1	Capacity	65	RC	0	2	23RD	1	0	2.22402119637	379.0	268.0	369	267	1
1.7	2015_Jul_20_1438	s	s	12	1	Capacity	66	RC	0	1	23RO	1	0	5.84592199326	180.0	22.0	187	22	1
1.7	2015_Jul_20_1438	s	s	12	1	Capacity	67	ABS	0	2	24RD	0	1	9.18036103249	None	None	None	None	1
1.7	2015_Jul_20_1438	s	s	12	1	Capacity	68	ABS	0	1	24RO	0	1	7.23622584343	None	None	None	None	1
1.7	2015_Jul_20_1438	s	s	12	1	Capacity	69	ABS	0	1	24RO	0	1	7.7679810524	None	None	None	None	1
1.7	2015_Jul_20_1438	s	s	12	1	Capacity	70	ABS	0	2	24RD	0	1	2.84441399574	None	None	None	None	1
1.7	2015_Jul_20_1438	s	s	12	1	Capacity	71	RC	0	1	23RO	1	0	2.83069682121	155.0	-163.0	163	-157	1
1.7	2015_Jul_20_1438	s	s	12	1	Capacity	72	RC	0	2	23RD	0	1	0.959990024567	-88.0	-39.0	None	None	0
1.7	2015_Jul_20_1438	s	s	12	1	Capacity	73	ABS	0	1	24RO	0	1	8.15319800377	None	None	None	None	1
1.7	2015_Jul_20_1438	s	s	12	1	Capacity	74	RC	0	2	23RD	1	0	1.07723784447	252.0	-318.0	254	-320	1
1.7	2015_Jul_20_1438	s	s	12	1	Capacity	75	ABS	0	2	24RD	0	1	2.8831679821	None	None	None	None	1
1.7	2015_Jul_20_1438	s	s	12	1	Capacity	76	RC	0	1	23RO	1	0	1.9534099102	538.0	37.0	549	43	1
1.7	2015_Jul_20_1438	s	s	12	1	Capacity	77	ABS	0	1	24RO	0	1	5.97082996368	None	None	None	None	1
1.7	2015_Jul_20_1438	s	s	12	1	Capacity	78	RC	0	2	23RD	1	0	1.27060389519	402.0	364.0	395	362	1
1.7	2015_Jul_20_1438	s	s	12	1	Capacity	79	RC	0	1	23RO	1	0	2.34173297882	-98.0	-304.0	-98	-302	1
1.7	2015_Jul_20_1438	s	s	12	1	Capacity	80	ABS	0	2	24RD	0	1	3.28947997093	None	None	None	None	1
1.7	2015_Jul_20_1438	s	s	12	1	Capacity	81	ABS	0	2	24RD	0	1	3.22220993042	None	None	None	None	1
1.7	2015_Jul_20_1438	s	s	12	1	Capacity	82	RC	0	2	23RD	1	0	1.1360681057	173.0	-285.0	177	-284	1
1.7	2015_Jul_20_1438	s	s	12	1	Capacity	83	RC	0	1	23RO	1	0	2.51269698143	160.0	-274.0	165	-277	1
1.7	2015_Jul_20_1438	s	s	12	1	Capacity	84	ABS	0	1	24RO	0	1	7.56779313087	None	None	None	None	1
1.7	2015_Jul_20_1438	s	s	12	1	Capacity	85	RC	0	1	23RO	1	0	4.68418312073	138.0	153.0	140	149	1
1.7	2015_Jul_20_1438	s	s	12	1	Capacity	86	ABS	0	2	24RD	0	1	2.6446211338	None	None	None	None	1
1.7	2015_Jul_20_1438	s	s	12	1	Capacity	87	RC	0	2	23RD	1	0	0.83873796463	-356.0	337.0	-352	326	1
1.7	2015_Jul_20_1438	s	s	12	1	Capacity	88	ABS	0	1	24RO	0	1	7.39766597748	None	None	None	None	1
1.7	2015_Jul_20_1438	s	s	12	1	Capacity	89	ABS	0	1	24RO	0	1	9.62479805946	None	None	None	None	1
1.7	2015_Jul_20_1438	s	s	12	1	Capacity	90	RC	0	1	23RO	1	0	2.98913884163	419.0	116.0	423	119	1
1.7	2015_Jul_20_1438	s	s	12	1	Capacity	91	RC	0	2	23RD	1	0	0.905633926392	499.0	154.0	500	157	1
1.7	2015_Jul_20_1438	s	s	12	1	Capacity	92	ABS	0	2	24RD	0	1	3.93703889847	None	None	None	None	1
1.7	2015_Jul_20_1438	s	s	12	1	Capacity	1	RC	2	0	23VC	1	0	0.924419164658	-496.0	-374.0	-503	-367	1
1.7	2015_Jul_20_1438	s	s	12	1	Capacity	2	RC	1	0	23MC	1	0	1.95074391365	-187.0	312.0	-186	308	1
1.7	2015_Jul_20_1438	s	s	12	1	Capacity	3	ABS	1	0	24MC	0	1	2.82427406311	None	None	None	None	1
1.7	2015_Jul_20_1438	s	s	12	1	Capacity	4	ABS	2	0	24VC	0	1	3.21273398399	None	None	None	None	1
1.7	2015_Jul_20_1438	s	s	12	1	Capacity	5	RC	2	0	23VC	1	0	0.82981801033	56.0	276.0	54	271	1
1.7	2015_Jul_20_1438	s	s	12	1	Capacity	6	RC	1	0	23MC	1	0	6.85844492912	-5.0	-334.0	-3	-327	1
1.7	2015_Jul_20_1438	s	s	12	1	Capacity	7	ABS	2	0	24VC	0	1	1.28933906555	None	None	None	None	1
1.7	2015_Jul_20_1438	s	s	12	1	Capacity	8	ABS	1	0	24MC	1	0	6.02338504791	None	None	-25	-322	0
1.7	2015_Jul_20_1438	s	s	12	1	Capacity	9	ABS	2	0	24VC	0	1	1.27724790573	None	None	None	None	1
1.7	2015_Jul_20_1438	s	s	12	1	Capacity	10	RC	1	0	23MC	1	0	4.99010682106	87.0	-326.0	92	-319	1
1.7	2015_Jul_20_1438	s	s	12	1	Capacity	11	RC	2	0	23VC	1	0	1.18469190598	-479.0	47.0	-485	49	1
1.7	2015_Jul_20_1438	s	s	12	1	Capacity	12	ABS	1	0	24MC	0	1	11.4246189594	None	None	None	None	1
1.7	2015_Jul_20_1438	s	s	12	1	Capacity	13	RC	2	0	23VC	1	0	3.23634314537	450.0	-170.0	451	-168	1
1.7	2015_Jul_20_1438	s	s	12	1	Capacity	14	RC	1	0	23MC	0	1	1.98366093636	333.0	128.0	None	None	0
1.7	2015_Jul_20_1438	s	s	12	1	Capacity	15	ABS	2	0	24VC	0	1	1.41618108749	None	None	None	None	1
1.7	2015_Jul_20_1438	s	s	12	1	Capacity	16	ABS	1	0	24MC	0	1	17.8388710022	None	None	None	None	1
1.7	2015_Jul_20_1438	s	s	12	1	Capacity	17	RC	2	0	23VC	1	0	0.985657930374	10.0	-213.0	12	-207	1
1.7	2015_Jul_20_1438	s	s	12	1	Capacity	18	RC	1	0	23MC	1	0	5.11967802048	-23.0	313.0	-23	315	1
1.7	2015_Jul_20_1438	s	s	12	1	Capacity	19	ABS	1	0	24MC	0	1	3.67185211182	None	None	None	None	1
1.7	2015_Jul_20_1438	s	s	12	1	Capacity	20	ABS	2	0	24VC	0	1	1.90187001228	None	None	None	None	1
1.7	2015_Jul_20_1438	s	s	12	1	Capacity	21	ABS	2	0	24VC	0	1	2.31803297997	None	None	None	None	1
1.7	2015_Jul_20_1438	s	s	12	1	Capacity	22	RC	1	0	23MC	1	0	3.36937594414	-326.0	-274.0	-317	-274	1
1.7	2015_Jul_20_1438	s	s	12	1	Capacity	23	RC	2	0	23VC	1	0	0.914099931717	-439.0	-28.0	-446	-20	1
1.7	2015_Jul_20_1438	s	s	12	1	Capacity	24	ABS	1	0	24MC	0	1	9.16856002808	None	None	None	None	1
1.7	2015_Jul_20_1438	s	s	12	1	Capacity	25	ABS	1	0	24MC	1	0	3.98405098915	None	None	-74	-42	0
1.7	2015_Jul_20_1438	s	s	12	1	Capacity	26	ABS	2	0	24VC	0	1	1.18859100342	None	None	None	None	1
1.7	2015_Jul_20_1438	s	s	12	1	Capacity	27	RC	1	0	23MC	1	0	4.56379103661	-303.0	-273.0	-312	-272	1
1.7	2015_Jul_20_1438	s	s	12	1	Capacity	28	RC	2	0	23VC	1	0	1.48250102997	-38.0	112.0	-45	111	1
1.7	2015_Jul_20_1438	s	s	12	1	Capacity	29	RC	1	0	23MC	1	0	3.54229712486	466.0	184.0	472	180	1
1.7	2015_Jul_20_1438	s	s	12	1	Capacity	30	RC	2	0	23VC	1	0	0.655549049377	33.0	164.0	45	166	1
1.7	2015_Jul_20_1438	s	s	12	1	Capacity	31	ABS	2	0	24VC	0	1	0.959854125977	None	None	None	None	1
1.7	2015_Jul_20_1438	s	s	12	1	Capacity	32	ABS	1	0	24MC	1	0	13.5676290989	None	None	-4	100	0
1.7	2015_Jul_20_1438	s	s	12	1	Capacity	33	ABS	2	0	24VC	0	1	1.04105091095	None	None	None	None	1
1.7	2015_Jul_20_1438	s	s	12	1	Capacity	34	RC	2	0	23VC	1	0	0.835066080093	125.0	107.0	129	112	1
1.7	2015_Jul_20_1438	s	s	12	1	Capacity	35	ABS	1	0	24MC	1	0	2.43297696114	None	None	159	178	0
1.7	2015_Jul_20_1438	s	s	12	1	Capacity	36	RC	1	0	23MC	1	0	1.22349905968	379.0	163.0	372	162	1
1.7	2015_Jul_20_1438	s	s	12	1	Capacity	37	ABS	1	0	24MC	0	1	2.32697892189	None	None	None	None	1
1.7	2015_Jul_20_1438	s	s	12	1	Capacity	38	ABS	2	0	24VC	0	1	0.841615915298	None	None	None	None	1
1.7	2015_Jul_20_1438	s	s	12	1	Capacity	39	RC	2	0	23VC	1	0	1.20849490166	1.0	151.0	4	153	1
1.7	2015_Jul_20_1438	s	s	12	1	Capacity	40	RC	1	0	23MC	1	0	3.30165600777	-197.0	-138.0	-191	-138	1
1.7	2015_Jul_20_1438	s	s	12	1	Capacity	41	RC	2	0	23VC	1	0	1.13755297661	-17.0	113.0	-15	107	1
1.7	2015_Jul_20_1438	s	s	12	1	Capacity	42	ABS	1	0	24MC	1	0	8.23901200294	None	None	-127	120	0
1.7	2015_Jul_20_1438	s	s	12	1	Capacity	43	ABS	2	0	24VC	0	1	1.37390518188	None	None	None	None	1
1.7	2015_Jul_20_1438	s	s	12	1	Capacity	44	RC	1	0	23MC	1	0	2.66647100449	-121.0	-224.0	-120	-230	1
1.7	2015_Jul_20_1438	s	s	12	1	Capacity	45	RC	2	0	23VC	1	0	0.900496006012	-118.0	-238.0	-105	-235	1
1.7	2015_Jul_20_1438	s	s	12	1	Capacity	46	ABS	2	0	24VC	0	1	2.40059685707	None	None	None	None	1
1.7	2015_Jul_20_1438	s	s	12	1	Capacity	47	ABS	1	0	24MC	0	1	11.5196499825	None	None	None	None	1
1.7	2015_Jul_20_1438	s	s	12	1	Capacity	48	RC	1	0	23MC	1	0	1.57376909256	150.0	245.0	146	240	1
1.7	2015_Jul_20_1438	s	s	12	1	Capacity	49	RC	1	0	23MC	1	0	1.23267698288	-402.0	263.0	-407	265	1
1.7	2015_Jul_20_1438	s	s	12	1	Capacity	50	RC	2	0	23VC	1	0	0.864696979523	162.0	244.0	162	237	1
1.7	2015_Jul_20_1438	s	s	12	1	Capacity	51	ABS	2	0	24VC	0	1	1.48848295212	None	None	None	None	1
1.7	2015_Jul_20_1438	s	s	12	1	Capacity	52	ABS	1	0	24MC	0	1	17.3349239826	None	None	None	None	1
1.7	2015_Jul_20_1438	s	s	12	1	Capacity	53	ABS	1	0	24MC	0	1	17.5258948803	None	None	None	None	1
1.7	2015_Jul_20_1438	s	s	12	1	Capacity	54	RC	1	0	23MC	1	0	4.93125700951	150.0	143.0	145	145	1
1.7	2015_Jul_20_1438	s	s	12	1	Capacity	55	RC	2	0	23VC	1	0	1.00912690163	392.0	149.0	390	133	1
1.7	2015_Jul_20_1438	s	s	12	1	Capacity	56	ABS	2	0	24VC	0	1	2.01742315292	None	None	None	None	1
1.7	2015_Jul_20_1438	s	s	12	1	Capacity	57	ABS	2	0	24VC	0	1	2.41231298447	None	None	None	None	1
1.7	2015_Jul_20_1438	s	s	12	1	Capacity	58	RC	2	0	23VC	1	0	0.897655010223	-178.0	-272.0	-178	-268	1
1.7	2015_Jul_20_1438	s	s	12	1	Capacity	59	ABS	1	0	24MC	0	1	12.5911011696	None	None	None	None	1
1.7	2015_Jul_20_1438	s	s	12	1	Capacity	60	RC	1	0	23MC	1	0	1.65633296967	149.0	161.0	146	162	1
1.7	2015_Jul_20_1438	s	s	12	1	Capacity	61	ABS	2	0	24VC	0	1	1.211632967	None	None	None	None	1
1.7	2015_Jul_20_1438	s	s	12	1	Capacity	62	RC	2	0	23VC	1	0	0.92668390274	-365.0	-264.0	-356	-263	1
1.7	2015_Jul_20_1438	s	s	12	1	Capacity	63	RC	1	0	23MC	1	0	2.11161494255	-297.0	-103.0	-306	-100	1
1.7	2015_Jul_20_1438	s	s	12	1	Capacity	64	ABS	1	0	24MC	0	1	5.53830313683	None	None	None	None	1
1.7	2015_Jul_20_1438	s	s	12	1	Capacity	65	RC	1	0	23MC	1	0	1.32460713387	-274.0	-34.0	-268	-34	1
1.7	2015_Jul_20_1438	s	s	12	1	Capacity	66	RC	2	0	23VC	0	1	0.764575004578	333.0	276.0	None	None	0
1.7	2015_Jul_20_1438	s	s	12	1	Capacity	67	ABS	1	0	24MC	1	0	2.0675702095	None	None	-37	-44	0
1.7	2015_Jul_20_1438	s	s	12	1	Capacity	68	ABS	2	0	24VC	0	1	1.23527288437	None	None	None	None	1
1.7	2015_Jul_20_1438	s	s	12	1	Capacity	69	ABS	2	0	24VC	0	1	1.26794791222	None	None	None	None	1
1.7	2015_Jul_20_1438	s	s	12	1	Capacity	70	RC	2	0	23VC	1	0	1.27057504654	359.0	389.0	363	393	1
1.7	2015_Jul_20_1438	s	s	12	1	Capacity	71	ABS	1	0	24MC	0	1	3.89274501801	None	None	None	None	1
1.7	2015_Jul_20_1438	s	s	12	1	Capacity	72	RC	1	0	23MC	1	0	2.07921910286	-350.0	372.0	-352	368	1
1.7	2015_Jul_20_1438	s	s	12	1	Capacity	73	RC	1	0	23MC	1	0	1.14955496788	80.0	-65.0	70	-64	1
1.7	2015_Jul_20_1438	s	s	12	1	Capacity	74	RC	2	0	23VC	1	0	0.737500905991	-261.0	331.0	-256	330	1
1.7	2015_Jul_20_1438	s	s	12	1	Capacity	75	ABS	2	0	24VC	0	1	1.43093013763	None	None	None	None	1
1.7	2015_Jul_20_1438	s	s	12	1	Capacity	76	ABS	1	0	24MC	0	1	8.0213329792	None	None	None	None	1
1.7	2015_Jul_20_1438	s	s	12	1	Capacity	77	RC	2	0	23VC	1	0	0.865498065948	357.0	-134.0	359	-134	1
1.7	2015_Jul_20_1438	s	s	12	1	Capacity	78	RC	1	0	23MC	1	0	1.53650784492	-225.0	153.0	-227	158	1
1.7	2015_Jul_20_1438	s	s	12	1	Capacity	79	ABS	2	0	24VC	0	1	1.72974705696	None	None	None	None	1
1.7	2015_Jul_20_1438	s	s	12	1	Capacity	80	ABS	1	0	24MC	0	1	4.74926304817	None	None	None	None	1
1.7	2015_Jul_20_1438	s	s	12	1	Capacity	81	RC	1	0	23MC	1	0	2.45551800728	-433.0	224.0	-431	226	1
1.7	2015_Jul_20_1438	s	s	12	1	Capacity	82	RC	2	0	23VC	1	0	1.18818497658	319.0	-240.0	323	-237	1
1.7	2015_Jul_20_1438	s	s	12	1	Capacity	83	ABS	1	0	24MC	0	1	6.19737505913	None	None	None	None	1
1.7	2015_Jul_20_1438	s	s	12	1	Capacity	84	ABS	2	0	24VC	0	1	1.12707281113	None	None	None	None	1
1.7	2015_Jul_20_1438	s	s	12	1	Capacity	85	ABS	2	0	24VC	0	1	2.69242501259	None	None	None	None	1
1.7	2015_Jul_20_1438	s	s	12	1	Capacity	86	RC	1	0	23MC	0	1	9.8722949028	513.0	17.0	None	None	0
1.7	2015_Jul_20_1438	s	s	12	1	Capacity	87	ABS	1	0	24MC	0	1	2.83382797241	None	None	None	None	1
1.7	2015_Jul_20_1438	s	s	12	1	Capacity	88	RC	2	0	23VC	1	0	0.96248292923	-372.0	378.0	-369	377	1
1.7	2015_Jul_20_1438	s	s	12	1	Capacity	89	ABS	2	0	24VC	0	1	2.86886286736	None	None	None	None	1
1.7	2015_Jul_20_1438	s	s	12	1	Capacity	90	ABS	1	0	24MC	0	1	5.42562294006	None	None	None	None	1
1.7	2015_Jul_20_1438	s	s	12	1	Capacity	91	RC	1	0	23MC	1	0	1.72544598579	245.0	-38.0	256	-36	1
1.7	2015_Jul_20_1438	s	s	12	1	Capacity	92	RC	2	0	23VC	1	0	1.39749193192	483.0	239.0	480	233	1
1.7	2015_Jul_20_1438	s	s	12	1	SIC	1	RC	1	0	23MC	1	0	1.6774930954	-430.0	152.0	-429	144	1
1.7	2015_Jul_20_1438	s	s	12	1	SIC	2	ABS	2	2	24VD	0	1	1.47753691673	None	None	None	None	1
1.7	2015_Jul_20_1438	s	s	12	1	SIC	3	ABS	0	1	24RO	0	1	6.43555307388	None	None	None	None	1
1.7	2015_Jul_20_1438	s	s	12	1	SIC	4	ABS	0	2	24RD	0	1	3.40111804008	None	None	None	None	1
1.7	2015_Jul_20_1438	s	s	12	1	SIC	5	ABS	2	0	24VC	0	1	1.6001458168	None	None	None	None	1
1.7	2015_Jul_20_1438	s	s	12	1	SIC	6	RC	0	1	23RO	1	0	6.05888295174	459.0	322.0	455	325	1
1.7	2015_Jul_20_1438	s	s	12	1	SIC	7	RC	2	1	23VO	1	0	1.07698392868	420.0	-85.0	422	-84	1
1.7	2015_Jul_20_1438	s	s	12	1	SIC	8	RC	1	2	23MD	1	0	0.95296216011	366.0	92.0	361	92	1
1.7	2015_Jul_20_1438	s	s	12	1	SIC	9	RC	0	2	23RD	1	0	1.25377202034	-205.0	242.0	-200	235	1
1.7	2015_Jul_20_1438	s	s	12	1	SIC	10	ABS	1	0	24MC	0	1	3.42455410957	None	None	None	None	1
1.7	2015_Jul_20_1438	s	s	12	1	SIC	11	ABS	1	1	24MO	0	1	7.75611209869	None	None	None	None	1
1.7	2015_Jul_20_1438	s	s	12	1	SIC	12	RC	2	0	23VC	1	0	1.05194687843	-259.0	-356.0	-250	-360	1
1.7	2015_Jul_20_1438	s	s	12	1	SIC	13	ABS	2	1	24VO	0	1	1.52955508232	None	None	None	None	1
1.7	2015_Jul_20_1438	s	s	12	1	SIC	14	RC	1	1	23MO	1	0	1.40033316612	-249.0	131.0	-251	119	1
1.7	2015_Jul_20_1438	s	s	12	1	SIC	15	RC	2	2	23VD	1	0	0.959398031235	-482.0	18.0	-482	26	1
1.7	2015_Jul_20_1438	s	s	12	1	SIC	16	ABS	1	2	24MD	0	1	2.00035881996	None	None	None	None	1
1.7	2015_Jul_20_1438	s	s	12	1	SIC	17	RC	2	2	23VD	1	0	1.63590312004	433.0	-90.0	439	-89	1
1.7	2015_Jul_20_1438	s	s	12	1	SIC	18	ABS	2	2	24VD	0	1	1.08204507828	None	None	None	None	1
1.7	2015_Jul_20_1438	s	s	12	1	SIC	19	ABS	1	0	24MC	1	0	6.93827199936	None	None	-184	85	0
1.7	2015_Jul_20_1438	s	s	12	1	SIC	20	ABS	1	1	24MO	0	1	12.5857839584	None	None	None	None	1
1.7	2015_Jul_20_1438	s	s	12	1	SIC	21	RC	1	1	23MO	1	0	1.25891590118	221.0	-22.0	219	-22	1
1.7	2015_Jul_20_1438	s	s	12	1	SIC	22	RC	1	2	23MD	1	0	0.99647808075	-266.0	410.0	-263	399	1
1.7	2015_Jul_20_1438	s	s	12	1	SIC	23	RC	1	0	23MC	1	0	1.8439540863	186.0	219.0	178	213	1
1.7	2015_Jul_20_1438	s	s	12	1	SIC	24	RC	0	1	23RO	1	0	6.00931692123	-478.0	-173.0	-486	-167	1
1.7	2015_Jul_20_1438	s	s	12	1	SIC	25	ABS	1	2	24MD	0	1	3.57255911827	None	None	None	None	1
1.7	2015_Jul_20_1438	s	s	12	1	SIC	26	ABS	0	2	24RD	0	1	4.54279184341	None	None	None	None	1
1.7	2015_Jul_20_1438	s	s	12	1	SIC	27	ABS	2	0	24VC	0	1	1.32718086243	None	None	None	None	1
1.7	2015_Jul_20_1438	s	s	12	1	SIC	28	RC	2	1	23VO	1	0	0.841761112213	-374.0	396.0	-377	392	1
1.7	2015_Jul_20_1438	s	s	12	1	SIC	29	ABS	2	1	24VO	0	1	0.952759027481	None	None	None	None	1
1.7	2015_Jul_20_1438	s	s	12	1	SIC	30	ABS	0	1	24RO	0	1	6.36224007607	None	None	None	None	1
1.7	2015_Jul_20_1438	s	s	12	1	SIC	31	RC	2	0	23VC	1	0	0.771303892136	-356.0	-127.0	-356	-126	1
1.7	2015_Jul_20_1438	s	s	12	1	SIC	32	RC	0	2	23RD	1	0	0.794112205505	-414.0	-36.0	-408	-31	1
1.7	2015_Jul_20_1438	s	s	12	1	SIC	33	ABS	2	2	24VD	0	1	1.13557004929	None	None	None	None	1
1.7	2015_Jul_20_1438	s	s	12	1	SIC	34	ABS	1	1	24MO	0	1	4.17204904556	None	None	None	None	1
1.7	2015_Jul_20_1438	s	s	12	1	SIC	35	RC	1	2	23MD	1	0	1.19516801834	464.0	388.0	462	386	1
1.7	2015_Jul_20_1438	s	s	12	1	SIC	36	ABS	2	1	24VO	0	1	0.853108882904	None	None	None	None	1
1.7	2015_Jul_20_1438	s	s	12	1	SIC	37	ABS	0	1	24RO	0	1	4.11408090591	None	None	None	None	1
1.7	2015_Jul_20_1438	s	s	12	1	SIC	38	RC	0	2	23RD	1	0	0.776181936264	273.0	202.0	272	200	1
1.7	2015_Jul_20_1438	s	s	12	1	SIC	39	RC	2	2	23VD	1	0	1.27740693092	-188.0	93.0	-189	94	1
1.7	2015_Jul_20_1438	s	s	12	1	SIC	40	RC	2	0	23VC	1	0	0.693920135498	-159.0	181.0	-157	172	1
1.7	2015_Jul_20_1438	s	s	12	1	SIC	41	RC	1	0	23MC	1	0	1.76038384438	370.0	-325.0	-288	203	0
1.7	2015_Jul_20_1438	s	s	12	1	SIC	42	ABS	0	2	24RD	0	1	3.77766394615	None	None	None	None	1
1.7	2015_Jul_20_1438	s	s	12	1	SIC	43	ABS	1	0	24MC	1	0	8.25055503845	None	None	-257	146	0
1.7	2015_Jul_20_1438	s	s	12	1	SIC	44	ABS	2	0	24VC	0	1	1.32489013672	None	None	None	None	1
1.7	2015_Jul_20_1438	s	s	12	1	SIC	45	ABS	1	2	24MD	0	1	1.9885661602	None	None	None	None	1
1.7	2015_Jul_20_1438	s	s	12	1	SIC	46	RC	1	1	23MO	1	0	1.1970410347	-168.0	276.0	-176	279	1
1.7	2015_Jul_20_1438	s	s	12	1	SIC	47	RC	2	1	23VO	1	0	0.783163070679	484.0	-110.0	481	-104	1
1.7	2015_Jul_20_1438	s	s	12	1	SIC	48	RC	0	1	23RO	1	0	4.19888496399	203.0	-336.0	199	-331	1
1.7	2015_Jul_20_1438	s	s	12	1	SIC	49	RC	0	1	23RO	1	0	1.06742501259	-200.0	256.0	-209	252	1
1.7	2015_Jul_20_1438	s	s	12	1	SIC	50	ABS	2	2	24VD	0	1	0.820925951004	None	None	None	None	1
1.7	2015_Jul_20_1438	s	s	12	1	SIC	51	ABS	2	0	24VC	0	1	1.55857014656	None	None	None	None	1
1.7	2015_Jul_20_1438	s	s	12	1	SIC	52	ABS	1	2	24MD	0	1	3.21653103828	None	None	None	None	1
1.7	2015_Jul_20_1438	s	s	12	1	SIC	53	ABS	2	1	24VO	0	1	1.69138503075	None	None	None	None	1
1.7	2015_Jul_20_1438	s	s	12	1	SIC	54	RC	2	0	23VC	1	0	0.876581907272	6.0	-135.0	5	-129	1
1.7	2015_Jul_20_1438	s	s	12	1	SIC	55	ABS	0	2	24RD	0	1	3.50708794594	None	None	None	None	1
1.7	2015_Jul_20_1438	s	s	12	1	SIC	56	ABS	1	0	24MC	0	1	5.61020803452	None	None	None	None	1
1.7	2015_Jul_20_1438	s	s	12	1	SIC	57	RC	1	0	23MC	1	0	1.53655409813	-236.0	207.0	-237	212	1
1.7	2015_Jul_20_1438	s	s	12	1	SIC	58	RC	2	2	23VD	1	0	0.773060798645	-480.0	97.0	-485	107	1
1.7	2015_Jul_20_1438	s	s	12	1	SIC	59	RC	0	2	23RD	1	0	0.917380094528	61.0	91.0	50	93	1
1.7	2015_Jul_20_1438	s	s	12	1	SIC	60	RC	1	2	23MD	1	0	0.758703947067	-201.0	-95.0	-209	-98	1
1.7	2015_Jul_20_1438	s	s	12	1	SIC	61	RC	2	1	23VO	1	0	0.655904054642	-214.0	169.0	-206	174	1
1.7	2015_Jul_20_1438	s	s	12	1	SIC	62	ABS	0	1	24RO	0	1	5.01368999481	None	None	None	None	1
1.7	2015_Jul_20_1438	s	s	12	1	SIC	63	ABS	1	1	24MO	0	1	4.02008795738	None	None	None	None	1
1.7	2015_Jul_20_1438	s	s	12	1	SIC	64	RC	1	1	23MO	1	0	1.12941813469	360.0	323.0	354	317	1
1.7	2015_Jul_20_1438	s	s	12	1	SIC	65	RC	2	2	23VD	1	0	0.738343954086	99.0	-160.0	102	-162	1
1.7	2015_Jul_20_1438	s	s	12	1	SIC	66	ABS	1	2	24MD	0	1	1.95971703529	None	None	None	None	1
1.7	2015_Jul_20_1438	s	s	12	1	SIC	67	RC	1	2	23MD	1	0	1.07047104836	446.0	201.0	443	208	1
1.7	2015_Jul_20_1438	s	s	12	1	SIC	68	RC	2	0	23VC	1	0	0.634932041168	315.0	161.0	322	161	1
1.7	2015_Jul_20_1438	s	s	12	1	SIC	69	RC	1	1	23MO	1	0	1.19995999336	-432.0	1.0	-424	2	1
1.7	2015_Jul_20_1438	s	s	12	1	SIC	70	ABS	0	2	24RD	0	1	1.90051412582	None	None	None	None	1
1.7	2015_Jul_20_1438	s	s	12	1	SIC	71	RC	1	0	23MC	1	0	1.11760616302	-393.0	304.0	-397	310	1
1.7	2015_Jul_20_1438	s	s	12	1	SIC	72	RC	0	1	23RO	0	1	4.55453801155	402.0	-191.0	None	None	0
1.7	2015_Jul_20_1438	s	s	12	1	SIC	73	ABS	1	0	24MC	0	1	1.82396292686	None	None	None	None	1
1.7	2015_Jul_20_1438	s	s	12	1	SIC	74	ABS	0	1	24RO	0	1	4.99021100998	None	None	None	None	1
1.7	2015_Jul_20_1438	s	s	12	1	SIC	75	RC	0	2	23RD	1	0	1.15290498734	338.0	-149.0	337	-157	1
1.7	2015_Jul_20_1438	s	s	12	1	SIC	76	ABS	1	1	24MO	0	1	4.2672290802	None	None	None	None	1
1.7	2015_Jul_20_1438	s	s	12	1	SIC	77	RC	2	1	23VO	1	0	0.870416879654	-419.0	61.0	-418	59	1
1.7	2015_Jul_20_1438	s	s	12	1	SIC	78	ABS	2	1	24VO	0	1	0.729288101196	None	None	None	None	1
1.7	2015_Jul_20_1438	s	s	12	1	SIC	79	ABS	2	2	24VD	0	1	1.52393198013	None	None	None	None	1
1.7	2015_Jul_20_1438	s	s	12	1	SIC	80	ABS	2	0	24VC	0	1	1.28034710884	None	None	None	None	1
1.7	2015_Jul_20_1438	s	s	12	1	SIC	81	ABS	2	1	24VO	0	1	1.32931089401	None	None	None	None	1
1.7	2015_Jul_20_1438	s	s	12	1	SIC	82	ABS	0	2	24RD	0	1	1.76865506172	None	None	None	None	1
1.7	2015_Jul_20_1438	s	s	12	1	SIC	83	RC	2	0	23VC	1	0	1.83194994926	484.0	-65.0	492	-60	1
1.7	2015_Jul_20_1438	s	s	12	1	SIC	84	RC	2	1	23VO	1	0	0.913069009781	-4.0	-319.0	-10	-320	1
1.7	2015_Jul_20_1438	s	s	12	1	SIC	85	ABS	1	2	24MD	0	1	4.90764904022	None	None	None	None	1
1.7	2015_Jul_20_1438	s	s	12	1	SIC	86	RC	0	1	23RO	1	0	4.83715510368	-145.0	-110.0	-140	-112	1
1.7	2015_Jul_20_1438	s	s	12	1	SIC	87	ABS	1	1	24MO	0	1	6.54995799065	None	None	None	None	1
1.7	2015_Jul_20_1438	s	s	12	1	SIC	88	ABS	2	2	24VD	0	1	1.30069708824	None	None	None	None	1
1.7	2015_Jul_20_1438	s	s	12	1	SIC	89	RC	0	2	23RD	1	0	0.799688816071	338.0	71.0	345	67	1
1.7	2015_Jul_20_1438	s	s	12	1	SIC	90	RC	2	2	23VD	1	0	0.723487138748	72.0	380.0	70	372	1
1.7	2015_Jul_20_1438	s	s	12	1	SIC	91	ABS	0	1	24RO	0	1	5.05274891853	None	None	None	None	1
1.7	2015_Jul_20_1438	s	s	12	1	SIC	92	ABS	2	0	24VC	0	1	1.21186804771	None	None	None	None	1
1.7	2015_Jul_20_1438	s	s	12	1	SIC	93	RC	1	2	23MD	1	0	1.00904011726	505.0	203.0	499	203	1
1.7	2015_Jul_20_1438	s	s	12	1	SIC	94	ABS	1	0	24MC	0	1	6.03537297249	None	None	None	None	1
1.7	2015_Jul_20_1438	s	s	12	1	SIC	95	RC	1	1	23MO	1	0	0.925711870193	-329.0	-247.0	-331	-245	1
1.7	2015_Jul_20_1438	s	s	12	1	SIC	96	RC	1	0	23MC	1	0	3.54237699509	-409.0	17.0	-400	18	1
1.7	2015_Jul_20_1438	s	s	12	1	SIC	97	RC	2	2	23VD	1	0	0.946957111359	-324.0	-206.0	-319	-203	1
1.7	2015_Jul_20_1438	s	s	12	1	SIC	98	RC	2	1	23VO	1	0	0.717424154282	-514.0	-281.0	-524	-281	1
1.7	2015_Jul_20_1438	s	s	12	1	SIC	99	ABS	2	2	24VD	0	1	0.835470914841	None	None	None	None	1
1.7	2015_Jul_20_1438	s	s	12	1	SIC	100	ABS	1	2	24MD	0	1	1.83298397064	None	None	None	None	1
1.7	2015_Jul_20_1438	s	s	12	1	SIC	101	RC	0	2	23RD	1	0	0.877157926559	-499.0	166.0	-507	165	1
1.7	2015_Jul_20_1438	s	s	12	1	SIC	102	ABS	2	1	24VO	0	1	0.90215420723	None	None	None	None	1
1.7	2015_Jul_20_1438	s	s	12	1	SIC	103	ABS	1	0	24MC	1	0	1.12608194351	None	None	-193	130	0
1.7	2015_Jul_20_1438	s	s	12	1	SIC	104	ABS	1	1	24MO	0	1	4.10495305061	None	None	None	None	1
1.7	2015_Jul_20_1438	s	s	12	1	SIC	105	RC	0	1	23RO	1	0	3.20077300072	271.0	-303.0	265	-305	1
1.7	2015_Jul_20_1438	s	s	12	1	SIC	106	ABS	0	1	24RO	0	1	4.83218288422	None	None	None	None	1
1.7	2015_Jul_20_1438	s	s	12	1	SIC	107	RC	2	0	23VC	1	0	0.764456033707	351.0	-361.0	359	-361	1
1.7	2015_Jul_20_1438	s	s	12	1	SIC	108	ABS	0	2	24RD	0	1	1.59431290627	None	None	None	None	1
1.7	2015_Jul_20_1438	s	s	12	1	SIC	109	RC	1	1	23MO	1	0	0.741106033325	44.0	-57.0	35	-57	1
1.7	2015_Jul_20_1438	s	s	12	1	SIC	110	ABS	2	0	24VC	0	1	1.33862185478	None	None	None	None	1
1.7	2015_Jul_20_1438	s	s	12	1	SIC	111	RC	1	0	23MC	1	0	1.84079003334	-28.0	260.0	-28	260	1
1.7	2015_Jul_20_1438	s	s	12	1	SIC	112	RC	1	2	23MD	1	0	0.783584117889	107.0	-193.0	109	-187	1
1.7	2015_Jul_20_1438	s	s	12	1	SIC	113	ABS	2	0	24VC	0	1	0.807259082794	None	None	None	None	1
1.7	2015_Jul_20_1438	s	s	12	1	SIC	114	RC	2	1	23VO	1	0	0.794821977615	505.0	-265.0	500	-263	1
1.7	2015_Jul_20_1438	s	s	12	1	SIC	115	ABS	2	2	24VD	0	1	0.745721101761	None	None	None	None	1
1.7	2015_Jul_20_1438	s	s	12	1	SIC	116	ABS	1	0	24MC	0	1	3.10408616066	None	None	None	None	1
1.7	2015_Jul_20_1438	s	s	12	1	SIC	117	RC	0	1	23RO	1	0	4.30250191689	169.0	277.0	166	278	1
1.7	2015_Jul_20_1438	s	s	12	1	SIC	118	RC	2	0	23VC	1	0	0.736163854599	290.0	-100.0	301	-100	1
1.7	2015_Jul_20_1438	s	s	12	1	SIC	119	RC	1	0	23MC	1	0	0.749497175217	6.0	-51.0	12	-48	1
1.7	2015_Jul_20_1438	s	s	12	1	SIC	120	ABS	0	1	24RO	0	1	4.66850304604	None	None	None	None	1
1.7	2015_Jul_20_1438	s	s	12	1	SIC	121	ABS	0	2	24RD	0	1	2.62801194191	None	None	None	None	1
1.7	2015_Jul_20_1438	s	s	12	1	SIC	122	ABS	1	2	24MD	0	1	1.51205301285	None	None	None	None	1
1.7	2015_Jul_20_1438	s	s	12	1	SIC	123	ABS	1	1	24MO	0	1	3.38928794861	None	None	None	None	1
1.7	2015_Jul_20_1438	s	s	12	1	SIC	124	RC	1	2	23MD	1	0	2.77417302132	330.0	350.0	333	355	1
1.7	2015_Jul_20_1438	s	s	12	1	SIC	125	RC	1	1	23MO	0	1	1.33605003357	475.0	-217.0	None	None	0
1.7	2015_Jul_20_1438	s	s	12	1	SIC	126	ABS	2	1	24VO	0	1	0.935595989227	None	None	None	None	1
1.7	2015_Jul_20_1438	s	s	12	1	SIC	127	RC	0	2	23RD	1	0	0.807934999466	285.0	159.0	284	152	1
1.7	2015_Jul_20_1438	s	s	12	1	SIC	128	RC	2	2	23VD	1	0	0.700611114502	-30.0	-42.0	-38	-34	1
1.7	2015_Jul_20_1438	s	s	12	1	SIC	129	RC	2	1	23VO	1	0	0.630858898163	61.0	-179.0	67	-186	1
1.7	2015_Jul_20_1438	s	s	12	1	SIC	130	ABS	1	0	24MC	0	1	1.83558797836	None	None	None	None	1
1.7	2015_Jul_20_1438	s	s	12	1	SIC	131	RC	2	0	23VC	1	0	0.855886220932	444.0	227.0	448	229	1
1.7	2015_Jul_20_1438	s	s	12	1	SIC	132	ABS	1	1	24MO	0	1	1.48628306389	None	None	None	None	1
1.7	2015_Jul_20_1438	s	s	12	1	SIC	133	ABS	2	2	24VD	0	1	0.787937879562	None	None	None	None	1
1.7	2015_Jul_20_1438	s	s	12	1	SIC	134	ABS	1	2	24MD	0	1	1.75940418243	None	None	None	None	1
1.7	2015_Jul_20_1438	s	s	12	1	SIC	135	ABS	2	1	24VO	0	1	1.71781492233	None	None	None	None	1
1.7	2015_Jul_20_1438	s	s	12	1	SIC	136	RC	1	2	23MD	1	0	0.823283910751	-26.0	291.0	-19	295	1
1.7	2015_Jul_20_1438	s	s	12	1	SIC	137	ABS	0	1	24RO	0	1	5.26454305649	None	None	None	None	1
1.7	2015_Jul_20_1438	s	s	12	1	SIC	138	RC	2	2	23VD	1	0	1.05905604362	343.0	-406.0	351	-403	1
1.7	2015_Jul_20_1438	s	s	12	1	SIC	139	RC	0	1	23RO	1	0	3.7775888443	-78.0	-140.0	-72	-132	1
1.7	2015_Jul_20_1438	s	s	12	1	SIC	140	ABS	0	2	24RD	0	1	1.88638997078	None	None	None	None	1
1.7	2015_Jul_20_1438	s	s	12	1	SIC	141	RC	0	2	23RD	1	0	0.81151008606	-292.0	232.0	-295	237	1
1.7	2015_Jul_20_1438	s	s	12	1	SIC	142	RC	1	1	23MO	1	0	2.51312208176	534.0	-391.0	534	-384	1
1.7	2015_Jul_20_1438	s	s	12	1	SIC	143	RC	1	0	23MC	1	0	1.31199002266	164.0	-390.0	156	-395	1
1.7	2015_Jul_20_1438	s	s	12	1	SIC	144	ABS	2	0	24VC	0	1	0.912720918655	None	None	None	None	1
1.7	2015_Jul_20_1438	s	s	12	1	SIC	145	ABS	1	0	24MC	0	1	5.01927804947	None	None	None	None	1
1.7	2015_Jul_20_1438	s	s	12	1	SIC	146	ABS	2	2	24VD	0	1	0.608810901642	None	None	None	None	1
1.7	2015_Jul_20_1438	s	s	12	1	SIC	147	ABS	2	1	24VO	0	1	1.11525011063	None	None	None	None	1
1.7	2015_Jul_20_1438	s	s	12	1	SIC	148	RC	1	2	23MD	1	0	1.67123699188	69.0	-337.0	72	-340	1
1.7	2015_Jul_20_1438	s	s	12	1	SIC	149	RC	1	1	23MO	1	0	1.69000196457	280.0	308.0	275	306	1
1.7	2015_Jul_20_1438	s	s	12	1	SIC	150	ABS	0	1	24RO	0	1	4.10729503632	None	None	None	None	1
1.7	2015_Jul_20_1438	s	s	12	1	SIC	151	ABS	1	2	24MD	0	1	2.24391889572	None	None	None	None	1
1.7	2015_Jul_20_1438	s	s	12	1	SIC	152	RC	0	1	23RO	1	0	3.65706992149	361.0	228.0	357	221	1
1.7	2015_Jul_20_1438	s	s	12	1	SIC	153	ABS	1	1	24MO	0	1	4.12585186958	None	None	None	None	1
1.7	2015_Jul_20_1438	s	s	12	1	SIC	154	ABS	0	2	24RD	0	1	2.7511408329	None	None	None	None	1
1.7	2015_Jul_20_1438	s	s	12	1	SIC	155	RC	1	0	23MC	1	0	2.89533209801	163.0	31.0	163	30	1
1.7	2015_Jul_20_1438	s	s	12	1	SIC	156	ABS	2	0	24VC	0	1	1.28241300583	None	None	None	None	1
1.7	2015_Jul_20_1438	s	s	12	1	SIC	157	RC	0	2	23RD	1	0	0.953252792358	265.0	32.0	257	34	1
1.7	2015_Jul_20_1438	s	s	12	1	SIC	158	RC	2	2	23VD	1	0	0.729085922241	-321.0	116.0	-314	119	1
1.7	2015_Jul_20_1438	s	s	12	1	SIC	159	RC	2	0	23VC	1	0	0.949551105499	57.0	323.0	59	325	1
1.7	2015_Jul_20_1438	s	s	12	1	SIC	160	RC	2	1	23VO	1	0	0.617571115494	297.0	166.0	295	170	1
1.7	2015_Jul_20_1438	s	s	12	1	SIC	161	RC	1	2	23MD	1	0	1.01163387299	-49.0	-369.0	-49	-377	1
1.7	2015_Jul_20_1438	s	s	12	1	SIC	162	ABS	2	0	24VC	0	1	1.04438209534	None	None	None	None	1
1.7	2015_Jul_20_1438	s	s	12	1	SIC	163	RC	2	0	23VC	1	0	0.646634101868	-199.0	-15.0	-197	-5	1
1.7	2015_Jul_20_1438	s	s	12	1	SIC	164	RC	1	1	23MO	1	0	1.06726813316	152.0	-295.0	147	-301	1
1.7	2015_Jul_20_1438	s	s	12	1	SIC	165	RC	2	2	23VD	1	0	0.635076999664	-233.0	-255.0	-234	-253	1
1.7	2015_Jul_20_1438	s	s	12	1	SIC	166	ABS	2	1	24VO	0	1	0.79981803894	None	None	None	None	1
1.7	2015_Jul_20_1438	s	s	12	1	SIC	167	ABS	1	1	24MO	0	1	6.88524699211	None	None	None	None	1
1.7	2015_Jul_20_1438	s	s	12	1	SIC	168	ABS	1	2	24MD	0	1	1.16457295418	None	None	None	None	1
1.7	2015_Jul_20_1438	s	s	12	1	SIC	169	RC	0	2	23RD	1	0	0.858631134033	500.0	128.0	501	130	1
1.7	2015_Jul_20_1438	s	s	12	1	SIC	170	ABS	1	0	24MC	0	1	3.59546685219	None	None	None	None	1
1.7	2015_Jul_20_1438	s	s	12	1	SIC	171	RC	2	1	23VO	1	0	0.901208877563	-201.0	-332.0	-195	-328	1
1.7	2015_Jul_20_1438	s	s	12	1	SIC	172	ABS	0	2	24RD	0	1	2.0827870369	None	None	None	None	1
1.7	2015_Jul_20_1438	s	s	12	1	SIC	173	ABS	0	1	24RO	0	1	4.74295806885	None	None	None	None	1
1.7	2015_Jul_20_1438	s	s	12	1	SIC	174	ABS	2	2	24VD	0	1	0.529444932938	None	None	None	None	1
1.7	2015_Jul_20_1438	s	s	12	1	SIC	175	RC	0	1	23RO	1	0	1.40629982948	56.0	194.0	58	193	1
1.7	2015_Jul_20_1438	s	s	12	1	SIC	176	RC	1	0	23MC	1	0	2.10616207123	346.0	44.0	344	48	1
1.7	2015_Jul_20_1438	s	s	12	1	SIC	177	ABS	2	2	24VD	0	1	0.882075071335	None	None	None	None	1
1.7	2015_Jul_20_1438	s	s	12	1	SIC	178	ABS	2	1	24VO	0	1	1.27097201347	None	None	None	None	1
1.7	2015_Jul_20_1438	s	s	12	1	SIC	179	ABS	1	1	24MO	0	1	8.15643811226	None	None	None	None	1
1.7	2015_Jul_20_1438	s	s	12	1	SIC	180	ABS	1	2	24MD	0	1	2.12985706329	None	None	None	None	1
1.7	2015_Jul_20_1438	s	s	12	1	SIC	181	RC	0	1	23RO	1	0	5.47276592255	204.0	-138.0	203	-138	1
1.7	2015_Jul_20_1438	s	s	12	1	SIC	182	RC	0	2	23RD	1	0	0.988041162491	-327.0	-368.0	-325	-374	1
1.7	2015_Jul_20_1438	s	s	12	1	SIC	183	ABS	1	0	24MC	0	1	4.92501807213	None	None	None	None	1
1.7	2015_Jul_20_1438	s	s	12	1	SIC	184	RC	2	1	23VO	1	0	0.820461988449	109.0	-171.0	112	-183	1
1.7	2015_Jul_20_1438	s	s	12	1	SIC	185	ABS	2	0	24VC	0	1	1.47067403793	None	None	None	None	1
1.7	2015_Jul_20_1438	s	s	12	1	SIC	186	RC	1	1	23MO	0	1	6.53210401535	372.0	154.0	None	None	0
1.7	2015_Jul_20_1438	s	s	12	1	SIC	187	ABS	0	2	24RD	0	1	2.70666480064	None	None	None	None	1
1.7	2015_Jul_20_1438	s	s	12	1	SIC	188	RC	1	2	23MD	1	0	0.749444961548	-520.0	354.0	-522	347	1
1.7	2015_Jul_20_1438	s	s	12	1	SIC	189	RC	2	0	23VC	1	0	2.22059583664	360.0	56.0	360	59	1
1.7	2015_Jul_20_1438	s	s	12	1	SIC	190	RC	2	2	23VD	1	0	0.584735870361	-455.0	126.0	-456	125	1
1.7	2015_Jul_20_1438	s	s	12	1	SIC	191	ABS	0	1	24RO	0	1	4.43681192398	None	None	None	None	1
1.7	2015_Jul_20_1438	s	s	12	1	SIC	192	RC	1	0	23MC	1	0	1.45944404602	418.0	46.0	417	42	1
1.7	2015_Jul_20_1438	s	s	12	1	SIC	193	ABS	2	0	24VC	0	1	0.925916910172	None	None	None	None	1
1.7	2015_Jul_20_1438	s	s	12	1	SIC	194	ABS	0	2	24RD	0	1	2.36531209946	None	None	None	None	1
1.7	2015_Jul_20_1438	s	s	12	1	SIC	195	ABS	1	2	24MD	0	1	1.83556103706	None	None	None	None	1
1.7	2015_Jul_20_1438	s	s	12	1	SIC	196	RC	2	0	23VC	1	0	1.58293795586	15.0	359.0	21	362	1
1.7	2015_Jul_20_1438	s	s	12	1	SIC	197	RC	1	2	23MD	1	0	1.11752486229	411.0	262.0	407	266	1
1.7	2015_Jul_20_1438	s	s	12	1	SIC	198	RC	1	1	23MO	1	0	1.17285013199	53.0	-52.0	56	-57	1
1.7	2015_Jul_20_1438	s	s	12	1	SIC	199	ABS	2	1	24VO	0	1	1.05260181427	None	None	None	None	1
1.7	2015_Jul_20_1438	s	s	12	1	SIC	200	ABS	0	1	24RO	0	1	5.56202101707	None	None	None	None	1
1.7	2015_Jul_20_1438	s	s	12	1	SIC	201	RC	0	1	23RO	1	0	4.24112987518	372.0	18.0	363	15	1
1.7	2015_Jul_20_1438	s	s	12	1	SIC	202	RC	2	1	23VO	1	0	0.805802822113	421.0	83.0	423	83	1
1.7	2015_Jul_20_1438	s	s	12	1	SIC	203	ABS	2	2	24VD	0	1	0.953153133392	None	None	None	None	1
1.7	2015_Jul_20_1438	s	s	12	1	SIC	204	ABS	1	1	24MO	0	1	5.95582199097	None	None	None	None	1
1.7	2015_Jul_20_1438	s	s	12	1	SIC	205	RC	1	0	23MC	1	0	1.58611083031	249.0	51.0	252	61	1
1.7	2015_Jul_20_1438	s	s	12	1	SIC	206	RC	0	2	23RD	1	0	0.889007091522	168.0	-139.0	173	-134	1
1.7	2015_Jul_20_1438	s	s	12	1	SIC	207	ABS	1	0	24MC	0	1	2.44765281677	None	None	None	None	1
1.7	2015_Jul_20_1438	s	s	12	1	SIC	208	RC	2	2	23VD	1	0	0.634927988052	-290.0	-144.0	-283	-149	1
1.7	2015_Jul_20_1438	s	s	12	1	SIC	209	RC	1	2	23MD	1	0	0.771243810654	28.0	189.0	31	185	1
1.7	2015_Jul_20_1438	s	s	12	1	SIC	210	RC	2	0	23VC	1	0	0.632141113281	453.0	233.0	444	234	1
1.7	2015_Jul_20_1438	s	s	12	1	SIC	211	ABS	2	1	24VO	0	1	1.01857805252	None	None	None	None	1
1.7	2015_Jul_20_1438	s	s	12	1	SIC	212	RC	1	0	23MC	1	0	1.34841299057	345.0	-16.0	345	-20	1
1.7	2015_Jul_20_1438	s	s	12	1	SIC	213	ABS	1	1	24MO	0	1	3.98610186577	None	None	None	None	1
1.7	2015_Jul_20_1438	s	s	12	1	SIC	214	ABS	0	1	24RO	1	0	3.28077197075	None	None	-66	44	0
1.7	2015_Jul_20_1438	s	s	12	1	SIC	215	RC	0	1	23RO	1	0	1.22009801865	77.0	203.0	77	205	1
1.7	2015_Jul_20_1438	s	s	12	1	SIC	216	RC	2	1	23VO	1	0	0.681967020035	-380.0	-129.0	-377	-124	1
1.7	2015_Jul_20_1438	s	s	12	1	SIC	217	ABS	1	0	24MC	0	1	1.61195802689	None	None	None	None	1
1.7	2015_Jul_20_1438	s	s	12	1	SIC	218	ABS	1	2	24MD	0	1	1.47836089134	None	None	None	None	1
1.7	2015_Jul_20_1438	s	s	12	1	SIC	219	ABS	2	0	24VC	0	1	1.71541404724	None	None	None	None	1
1.7	2015_Jul_20_1438	s	s	12	1	SIC	220	ABS	2	2	24VD	0	1	0.925586938858	None	None	None	None	1
1.7	2015_Jul_20_1438	s	s	12	1	SIC	221	ABS	0	2	24RD	0	1	2.27817893028	None	None	None	None	1
1.7	2015_Jul_20_1438	s	s	12	1	SIC	222	RC	2	2	23VD	1	0	0.776191949844	375.0	216.0	382	222	1
1.7	2015_Jul_20_1438	s	s	12	1	SIC	223	RC	0	2	23RD	1	0	0.999798059464	322.0	25.0	318	23	1
1.7	2015_Jul_20_1438	s	s	12	1	SIC	224	RC	1	1	23MO	1	0	0.905764102936	-194.0	401.0	-196	406	1
1.7	2015_Jul_20_1438	s	s	12	1	SIC	225	RC	1	2	23MD	1	0	0.676352977753	533.0	-42.0	539	-33	1
1.7	2015_Jul_20_1438	s	s	12	1	SIC	226	RC	0	1	23RO	1	0	2.93570303917	102.0	405.0	107	414	1
1.7	2015_Jul_20_1438	s	s	12	1	SIC	227	RC	1	1	23MO	1	0	3.25512194633	507.0	-3.0	501	3	1
1.7	2015_Jul_20_1438	s	s	12	1	SIC	228	ABS	0	2	24RD	0	1	2.2202270031	None	None	None	None	1
1.7	2015_Jul_20_1438	s	s	12	1	SIC	229	RC	2	1	23VO	1	0	0.717350959778	322.0	-300.0	317	-305	1
1.7	2015_Jul_20_1438	s	s	12	1	SIC	230	RC	0	2	23RD	1	0	0.693850040436	-300.0	72.0	-300	80	1
1.7	2015_Jul_20_1438	s	s	12	1	SIC	231	ABS	0	1	24RO	0	1	6.00935506821	None	None	None	None	1
1.7	2015_Jul_20_1438	s	s	12	1	SIC	232	ABS	2	0	24VC	0	1	1.28217577934	None	None	None	None	1
1.7	2015_Jul_20_1438	s	s	12	1	SIC	233	RC	1	0	23MC	1	0	4.08016014099	484.0	159.0	476	154	1
1.7	2015_Jul_20_1438	s	s	12	1	SIC	234	ABS	1	0	24MC	0	1	1.97449302673	None	None	None	None	1
1.7	2015_Jul_20_1438	s	s	12	1	SIC	235	ABS	2	1	24VO	0	1	1.14766693115	None	None	None	None	1
1.7	2015_Jul_20_1438	s	s	12	1	SIC	236	RC	2	0	23VC	1	0	0.821620941162	15.0	300.0	17	302	1
1.7	2015_Jul_20_1438	s	s	12	1	SIC	237	ABS	1	1	24MO	0	1	3.11367082596	None	None	None	None	1
1.7	2015_Jul_20_1438	s	s	12	1	SIC	238	RC	2	2	23VD	1	0	0.628014087677	-4.0	390.0	5	390	1
1.7	2015_Jul_20_1438	s	s	12	1	SIC	239	ABS	1	2	24MD	0	1	4.80953288078	None	None	None	None	1
1.7	2015_Jul_20_1438	s	s	12	1	SIC	240	ABS	2	2	24VD	0	1	0.740868806839	None	None	None	None	1
1.7	2015_Jul_20_1438	s	s	12	1	SIC	241	RC	2	1	23VO	1	0	0.702728033066	-266.0	-96.0	-258	-101	1
1.7	2015_Jul_20_1438	s	s	12	1	SIC	242	ABS	1	1	24MO	0	1	4.9430539608	None	None	None	None	1
1.7	2015_Jul_20_1438	s	s	12	1	SIC	243	ABS	0	2	24RD	0	1	1.7766418457	None	None	None	None	1
1.7	2015_Jul_20_1438	s	s	12	1	SIC	244	ABS	1	2	24MD	0	1	1.61888599396	None	None	None	None	1
1.7	2015_Jul_20_1438	s	s	12	1	SIC	245	RC	0	1	23RO	1	0	4.83231401443	-136.0	-63.0	-127	-67	1
1.7	2015_Jul_20_1438	s	s	12	1	SIC	246	RC	2	0	23VC	1	0	0.818704843521	479.0	259.0	483	268	1
1.7	2015_Jul_20_1438	s	s	12	1	SIC	247	ABS	1	0	24MC	0	1	2.11408686638	None	None	None	None	1
1.7	2015_Jul_20_1438	s	s	12	1	SIC	248	RC	1	2	23MD	1	0	0.717433929443	-360.0	160.0	-359	158	1
1.7	2015_Jul_20_1438	s	s	12	1	SIC	249	RC	2	2	23VD	1	0	0.547491788864	-465.0	-181.0	-469	-183	1
1.7	2015_Jul_20_1438	s	s	12	1	SIC	250	ABS	2	2	24VD	0	1	0.71741604805	None	None	None	None	1
1.7	2015_Jul_20_1438	s	s	12	1	SIC	251	RC	0	2	23RD	1	0	0.599580049515	-234.0	-295.0	-237	-288	1
1.7	2015_Jul_20_1438	s	s	12	1	SIC	252	ABS	0	1	24RO	0	1	6.36724281311	None	None	None	None	1
1.7	2015_Jul_20_1438	s	s	12	1	SIC	253	ABS	2	0	24VC	0	1	1.12451910973	None	None	None	None	1
1.7	2015_Jul_20_1438	s	s	12	1	SIC	254	RC	1	0	23MC	1	0	1.62360405922	280.0	-286.0	279	-282	1
1.7	2015_Jul_20_1438	s	s	12	1	SIC	255	RC	1	1	23MO	1	0	0.889216184616	-261.0	260.0	-258	253	1
1.7	2015_Jul_20_1438	s	s	12	1	SIC	256	ABS	2	1	24VO	0	1	0.752640008926	None	None	None	None	1
1.7	2015_Jul_20_1438	s	s	12	1	SIC	257	RC	0	2	23RD	1	0	1.0822789669	421.0	5.0	420	5	1
1.7	2015_Jul_20_1438	s	s	12	1	SIC	258	ABS	1	1	24MO	0	1	2.05909609795	None	None	None	None	1
1.7	2015_Jul_20_1438	s	s	12	1	SIC	259	ABS	1	2	24MD	0	1	1.64774894714	None	None	None	None	1
1.7	2015_Jul_20_1438	s	s	12	1	SIC	260	ABS	2	0	24VC	0	1	1.2470331192	None	None	None	None	1
1.7	2015_Jul_20_1438	s	s	12	1	SIC	261	RC	0	1	23RO	1	0	1.55009007454	-491.0	256.0	-497	257	1
1.7	2015_Jul_20_1438	s	s	12	1	SIC	262	ABS	2	1	24VO	0	1	1.25882506371	None	None	None	None	1
1.7	2015_Jul_20_1438	s	s	12	1	SIC	263	RC	1	1	23MO	1	0	0.988128900528	237.0	190.0	234	194	1
1.7	2015_Jul_20_1438	s	s	12	1	SIC	264	RC	2	0	23VC	1	0	1.29410791397	355.0	77.0	354	76	1
1.7	2015_Jul_20_1438	s	s	12	1	SIC	265	ABS	0	2	24RD	0	1	2.24473309517	None	None	None	None	1
1.7	2015_Jul_20_1438	s	s	12	1	SIC	266	ABS	2	2	24VD	0	1	0.835027933121	None	None	None	None	1
1.7	2015_Jul_20_1438	s	s	12	1	SIC	267	ABS	0	1	24RO	0	1	7.00280594826	None	None	None	None	1
1.7	2015_Jul_20_1438	s	s	12	1	SIC	268	RC	2	2	23VD	1	0	0.691120147705	53.0	130.0	52	129	1
1.7	2015_Jul_20_1438	s	s	12	1	SIC	269	ABS	1	0	24MC	0	1	3.23128390312	None	None	None	None	1
1.7	2015_Jul_20_1438	s	s	12	1	SIC	270	RC	1	2	23MD	1	0	0.729118824005	-360.0	144.0	-361	136	1
1.7	2015_Jul_20_1438	s	s	12	1	SIC	271	RC	1	0	23MC	1	0	1.51508593559	75.0	232.0	69	230	1
1.7	2015_Jul_20_1438	s	s	12	1	SIC	272	RC	2	1	23VO	1	0	0.61144900322	-292.0	322.0	-299	320	1
1.7	2015_Jul_20_1438	s	s	12	1	SIC	273	RC	0	1	23RO	1	0	4.53991603851	367.0	-6.0	368	-5	1
1.7	2015_Jul_20_1438	s	s	12	1	SIC	274	ABS	1	0	24MC	0	1	3.56060290337	None	None	None	None	1
1.7	2015_Jul_20_1438	s	s	12	1	SIC	275	ABS	0	1	24RO	0	1	5.02528786659	None	None	None	None	1
1.7	2015_Jul_20_1438	s	s	12	1	SIC	276	RC	1	1	23MO	1	0	2.61244297028	175.0	-34.0	170	-34	1
1.7	2015_Jul_20_1438	s	s	12	1	SIC	277	ABS	1	2	24MD	0	1	1.53661203384	None	None	None	None	1
1.7	2015_Jul_20_1438	s	s	12	1	SIC	278	RC	0	2	23RD	1	0	0.677122831345	78.0	-210.0	86	-204	1
1.7	2015_Jul_20_1438	s	s	12	1	SIC	279	RC	2	1	23VO	1	0	0.658528089523	-525.0	315.0	-522	318	1
1.7	2015_Jul_20_1438	s	s	12	1	SIC	280	ABS	2	0	24VC	0	1	0.84686589241	None	None	None	None	1
1.7	2015_Jul_20_1438	s	s	12	1	SIC	281	ABS	2	2	24VD	0	1	0.724492073059	None	None	None	None	1
1.7	2015_Jul_20_1438	s	s	12	1	SIC	282	RC	2	2	23VD	1	0	0.710483074188	487.0	307.0	494	314	1
1.7	2015_Jul_20_1438	s	s	12	1	SIC	283	RC	2	0	23VC	1	0	0.617765903473	134.0	-293.0	137	-291	1
1.7	2015_Jul_20_1438	s	s	12	1	SIC	284	RC	1	2	23MD	1	0	0.68213891983	-72.0	-127.0	-62	-126	1
1.7	2015_Jul_20_1438	s	s	12	1	SIC	285	ABS	0	2	24RD	0	1	2.97735619545	None	None	None	None	1
1.7	2015_Jul_20_1438	s	s	12	1	SIC	286	RC	1	0	23MC	1	0	1.51774406433	313.0	217.0	321	226	1
1.7	2015_Jul_20_1438	s	s	12	1	SIC	287	ABS	1	1	24MO	0	1	2.65507411957	None	None	None	None	1
1.7	2015_Jul_20_1438	s	s	12	1	SIC	288	ABS	2	1	24VO	0	1	0.756866931915	None	None	None	None	1
1.7	2015_Jul_20_1438	s	s	12	1	SIC	289	ABS	2	1	24VO	0	1	0.900137901306	None	None	None	None	1
1.7	2015_Jul_20_1438	s	s	12	1	SIC	290	ABS	1	0	24MC	0	1	1.36218380928	None	None	None	None	1
1.7	2015_Jul_20_1438	s	s	12	1	SIC	291	ABS	2	0	24VC	0	1	0.65839099884	None	None	None	None	1
1.7	2015_Jul_20_1438	s	s	12	1	SIC	292	RC	2	0	23VC	1	0	0.717261075974	144.0	-391.0	143	-391	1
1.7	2015_Jul_20_1438	s	s	12	1	SIC	293	RC	2	2	23VD	1	0	0.929105043411	-352.0	-398.0	-351	-397	1
1.7	2015_Jul_20_1438	s	s	12	1	SIC	294	RC	0	2	23RD	1	0	0.982372045517	104.0	315.0	107	322	1
1.7	2015_Jul_20_1438	s	s	12	1	SIC	295	RC	1	1	23MO	1	0	1.59486198425	-319.0	-29.0	-309	-31	1
1.7	2015_Jul_20_1438	s	s	12	1	SIC	296	ABS	1	1	24MO	0	1	1.89430999756	None	None	None	None	1
1.7	2015_Jul_20_1438	s	s	12	1	SIC	297	RC	0	1	23RO	1	0	3.0478811264	-418.0	-376.0	-408	-367	1
1.7	2015_Jul_20_1438	s	s	12	1	SIC	298	ABS	2	2	24VD	0	1	1.05279994011	None	None	None	None	1
1.7	2015_Jul_20_1438	s	s	12	1	SIC	299	ABS	0	1	24RO	0	1	6.46144604683	None	None	None	None	1
1.7	2015_Jul_20_1438	s	s	12	1	SIC	300	RC	1	0	23MC	1	0	1.64331912994	-375.0	156.0	-375	160	1
1.7	2015_Jul_20_1438	s	s	12	1	SIC	301	RC	2	1	23VO	1	0	0.905669927597	70.0	154.0	70	159	1
1.7	2015_Jul_20_1438	s	s	12	1	SIC	302	RC	1	2	23MD	1	0	0.752691030502	-492.0	175.0	-502	177	1
1.7	2015_Jul_20_1438	s	s	12	1	SIC	303	ABS	1	2	24MD	0	1	1.58837199211	None	None	None	None	1
1.7	2015_Jul_20_1438	s	s	12	1	SIC	304	ABS	0	2	24RD	0	1	2.82431006432	None	None	None	None	1
1.7	2015_Jul_20_1438	s	s	12	1	SIC	305	ABS	0	2	24RD	0	1	1.97683691978	None	None	None	None	1
1.7	2015_Jul_20_1438	s	s	12	1	SIC	306	RC	2	0	23VC	1	0	0.635061979294	-195.0	-163.0	-184	-159	1
1.7	2015_Jul_20_1438	s	s	12	1	SIC	307	ABS	2	0	24VC	0	1	0.724817037582	None	None	None	None	1
1.7	2015_Jul_20_1438	s	s	12	1	SIC	308	ABS	2	1	24VO	0	1	0.87775683403	None	None	None	None	1
1.7	2015_Jul_20_1438	s	s	12	1	SIC	309	RC	1	0	23MC	1	0	1.23249292374	312.0	39.0	307	37	1
1.7	2015_Jul_20_1438	s	s	12	1	SIC	310	RC	0	2	23RD	1	0	1.2650539875	-44.0	77.0	-37	82	1
1.7	2015_Jul_20_1438	s	s	12	1	SIC	311	RC	1	2	23MD	1	0	0.764407873154	-375.0	272.0	-381	272	1
1.7	2015_Jul_20_1438	s	s	12	1	SIC	312	ABS	0	1	24RO	0	1	3.90389704704	None	None	None	None	1
1.7	2015_Jul_20_1438	s	s	12	1	SIC	313	ABS	2	2	24VD	0	1	1.00849890709	None	None	None	None	1
1.7	2015_Jul_20_1438	s	s	12	1	SIC	314	ABS	1	2	24MD	0	1	3.14920496941	None	None	None	None	1
1.7	2015_Jul_20_1438	s	s	12	1	SIC	315	RC	0	1	23RO	1	0	1.36155605316	182.0	11.0	182	15	1
1.7	2015_Jul_20_1438	s	s	12	1	SIC	316	RC	1	1	23MO	1	0	0.795171022415	-188.0	100.0	-185	98	1
1.7	2015_Jul_20_1438	s	s	12	1	SIC	317	ABS	1	0	24MC	0	1	2.02035617828	None	None	None	None	1
1.7	2015_Jul_20_1438	s	s	12	1	SIC	318	RC	2	2	23VD	1	0	0.658461093903	-370.0	142.0	-371	145	1
1.7	2015_Jul_20_1438	s	s	12	1	SIC	319	ABS	1	1	24MO	0	1	1.584856987	None	None	None	None	1
1.7	2015_Jul_20_1438	s	s	12	1	SIC	320	RC	2	1	23VO	1	0	0.689230918884	-121.0	321.0	-109	329	1
1.7	2015_Jul_20_1438	s	s	12	1	SIC	321	RC	1	1	23MO	1	0	1.73869490623	-406.0	201.0	-400	207	1
1.7	2015_Jul_20_1438	s	s	12	1	SIC	322	ABS	1	0	24MC	0	1	5.62579417229	None	None	None	None	1
1.7	2015_Jul_20_1438	s	s	12	1	SIC	323	ABS	1	2	24MD	0	1	1.43968987465	None	None	None	None	1
1.7	2015_Jul_20_1438	s	s	12	1	SIC	324	RC	1	2	23MD	1	0	0.858505964279	-7.0	-283.0	-11	-296	1
1.7	2015_Jul_20_1438	s	s	12	1	SIC	325	ABS	0	2	24RD	0	1	1.98902606964	None	None	None	None	1
1.7	2015_Jul_20_1438	s	s	12	1	SIC	326	ABS	2	1	24VO	0	1	1.00807309151	None	None	None	None	1
1.7	2015_Jul_20_1438	s	s	12	1	SIC	327	ABS	2	0	24VC	0	1	0.703186035156	None	None	None	None	1
1.7	2015_Jul_20_1438	s	s	12	1	SIC	328	RC	2	2	23VD	1	0	0.568017959595	-237.0	113.0	-230	113	1
1.7	2015_Jul_20_1438	s	s	12	1	SIC	329	ABS	0	1	24RO	0	1	4.18478107452	None	None	None	None	1
1.7	2015_Jul_20_1438	s	s	12	1	SIC	330	RC	2	0	23VC	1	0	0.701751947403	-289.0	-376.0	-289	-376	1
1.7	2015_Jul_20_1438	s	s	12	1	SIC	331	RC	1	0	23MC	1	0	1.83546304703	104.0	-320.0	109	-311	1
1.7	2015_Jul_20_1438	s	s	12	1	SIC	332	ABS	2	2	24VD	0	1	2.16054797173	None	None	None	None	1
1.7	2015_Jul_20_1438	s	s	12	1	SIC	333	ABS	1	1	24MO	0	1	4.05531311035	None	None	None	None	1
1.7	2015_Jul_20_1438	s	s	12	1	SIC	334	RC	2	1	23VO	1	0	0.914786100388	241.0	-320.0	251	-320	1
1.7	2015_Jul_20_1438	s	s	12	1	SIC	335	RC	0	1	23RO	1	0	4.65473008156	48.0	-192.0	49	-192	1
1.7	2015_Jul_20_1438	s	s	12	1	SIC	336	RC	0	2	23RD	1	0	0.729136943817	-416.0	385.0	-420	381	1
1.7	2015_Jul_20_1438	s	s	12	1	SIC	337	RC	2	1	23VO	1	0	0.59424495697	-5.0	119.0	-7	129	1
1.7	2015_Jul_20_1438	s	s	12	1	SIC	338	RC	2	2	23VD	1	0	0.889054059982	478.0	-301.0	488	-300	1
1.7	2015_Jul_20_1438	s	s	12	1	SIC	339	ABS	1	0	24MC	0	1	2.52621102333	None	None	None	None	1
1.7	2015_Jul_20_1438	s	s	12	1	SIC	340	RC	2	0	23VC	1	0	0.693854808807	198.0	80.0	202	78	1
1.7	2015_Jul_20_1438	s	s	12	1	SIC	341	ABS	1	2	24MD	0	1	1.23031902313	None	None	None	None	1
1.7	2015_Jul_20_1438	s	s	12	1	SIC	342	ABS	0	2	24RD	0	1	1.14479613304	None	None	None	None	1
1.7	2015_Jul_20_1438	s	s	12	1	SIC	343	ABS	2	0	24VC	0	1	2.20051002502	None	None	None	None	1
1.7	2015_Jul_20_1438	s	s	12	1	SIC	344	RC	1	0	23MC	1	0	1.04191398621	-282.0	-190.0	-281	-188	1
1.7	2015_Jul_20_1438	s	s	12	1	SIC	345	RC	0	1	23RO	0	1	5.19069719315	449.0	-406.0	None	None	0
1.7	2015_Jul_20_1438	s	s	12	1	SIC	346	ABS	2	1	24VO	0	1	1.20912981033	None	None	None	None	1
1.7	2015_Jul_20_1438	s	s	12	1	SIC	347	ABS	0	1	24RO	0	1	3.98951101303	None	None	None	None	1
1.7	2015_Jul_20_1438	s	s	12	1	SIC	348	RC	1	2	23MD	1	0	0.888952970505	-483.0	36.0	-479	39	1
1.7	2015_Jul_20_1438	s	s	12	1	SIC	349	RC	0	2	23RD	1	0	0.646719932556	-208.0	218.0	-198	221	1
1.7	2015_Jul_20_1438	s	s	12	1	SIC	350	RC	1	1	23MO	1	0	1.74769282341	-99.0	-197.0	-104	-198	1
1.7	2015_Jul_20_1438	s	s	12	1	SIC	351	ABS	1	1	24MO	0	1	2.77293300629	None	None	None	None	1
1.7	2015_Jul_20_1438	s	s	12	1	SIC	352	ABS	2	2	24VD	0	1	0.776239871979	None	None	None	None	1
1.7	2015_Jul_20_1438	s	s	12	1	SIC	353	RC	1	1	23MO	1	0	1.1058049202	256.0	-381.0	251	-379	1
1.7	2015_Jul_20_1438	s	s	12	1	SIC	354	ABS	2	0	24VC	0	1	3.66889405251	None	None	None	None	1
1.7	2015_Jul_20_1438	s	s	12	1	SIC	355	RC	2	0	23VC	1	0	1.06542396545	518.0	11.0	523	14	1
1.7	2015_Jul_20_1438	s	s	12	1	SIC	356	ABS	1	1	24MO	0	1	1.79705405235	None	None	None	None	1
1.7	2015_Jul_20_1438	s	s	12	1	SIC	357	RC	1	2	23MD	1	0	0.841017961502	-41.0	377.0	-48	377	1
1.7	2015_Jul_20_1438	s	s	12	1	SIC	358	ABS	0	2	24RD	0	1	1.57312488556	None	None	None	None	1
1.7	2015_Jul_20_1438	s	s	12	1	SIC	359	RC	2	1	23VO	1	0	0.582724809647	-30.0	287.0	-28	283	1
1.7	2015_Jul_20_1438	s	s	12	1	SIC	360	RC	1	0	23MC	1	0	1.30594706535	206.0	-199.0	196	-191	1
1.7	2015_Jul_20_1438	s	s	12	1	SIC	361	RC	2	2	23VD	1	0	0.546168804169	237.0	35.0	226	43	1
1.7	2015_Jul_20_1438	s	s	12	1	SIC	362	RC	0	1	23RO	1	0	4.17792797089	432.0	-104.0	429	-101	1
1.7	2015_Jul_20_1438	s	s	12	1	SIC	363	ABS	1	0	24MC	1	0	1.53900504112	None	None	-98	395	0
1.7	2015_Jul_20_1438	s	s	12	1	SIC	364	ABS	1	2	24MD	0	1	1.68259000778	None	None	None	None	1
1.7	2015_Jul_20_1438	s	s	12	1	SIC	365	ABS	0	1	24RO	0	1	3.59650301933	None	None	None	None	1
1.7	2015_Jul_20_1438	s	s	12	1	SIC	366	ABS	2	2	24VD	0	1	0.914775133133	None	None	None	None	1
1.7	2015_Jul_20_1438	s	s	12	1	SIC	367	ABS	2	1	24VO	0	1	0.787906885147	None	None	None	None	1
1.7	2015_Jul_20_1438	s	s	12	1	SIC	368	RC	0	2	23RD	1	0	1.40932917595	305.0	-313.0	313	-314	1
1.7	2015_Jul_20_1438	s	s	12	1	SIC	369	RC	0	1	23RO	1	0	1.95929598808	-447.0	6.0	-450	10	1
1.7	2015_Jul_20_1438	s	s	12	1	SIC	370	RC	0	2	23RD	1	0	0.658552885056	-258.0	223.0	-254	221	1
1.7	2015_Jul_20_1438	s	s	12	1	SIC	371	RC	2	1	23VO	1	0	0.670356035233	198.0	-378.0	194	-379	1
1.7	2015_Jul_20_1438	s	s	12	1	SIC	372	RC	2	0	23VC	1	0	0.611448049545	28.0	-353.0	25	-350	1
1.7	2015_Jul_20_1438	s	s	12	1	SIC	373	ABS	2	1	24VO	0	1	0.768842935562	None	None	None	None	1
1.7	2015_Jul_20_1438	s	s	12	1	SIC	374	ABS	0	1	24RO	0	1	4.70765995979	None	None	None	None	1
1.7	2015_Jul_20_1438	s	s	12	1	SIC	375	RC	2	2	23VD	1	0	1.02343201637	-83.0	-65.0	-75	-59	1
1.7	2015_Jul_20_1438	s	s	12	1	SIC	376	ABS	0	2	24RD	0	1	1.86726808548	None	None	None	None	1
1.7	2015_Jul_20_1438	s	s	12	1	SIC	377	RC	1	1	23MO	1	0	1.18829083443	126.0	251.0	136	254	1
1.7	2015_Jul_20_1438	s	s	12	1	SIC	378	ABS	1	2	24MD	0	1	2.05914616585	None	None	None	None	1
1.7	2015_Jul_20_1438	s	s	12	1	SIC	379	ABS	1	1	24MO	0	1	2.151034832	None	None	None	None	1
1.7	2015_Jul_20_1438	s	s	12	1	SIC	380	ABS	2	2	24VD	0	1	1.02327799797	None	None	None	None	1
1.7	2015_Jul_20_1438	s	s	12	1	SIC	381	ABS	1	0	24MC	0	1	2.35925078392	None	None	None	None	1
1.7	2015_Jul_20_1438	s	s	12	1	SIC	382	RC	1	0	23MC	1	0	2.12796092033	-174.0	-242.0	-173	-245	1
1.7	2015_Jul_20_1438	s	s	12	1	SIC	383	ABS	2	0	24VC	0	1	0.703040122986	None	None	None	None	1
1.7	2015_Jul_20_1438	s	s	12	1	SIC	384	RC	1	2	23MD	1	0	0.917431116104	415.0	407.0	411	413	1
1.7	2015_Jul_20_1438	s	s	12	1	SIC	385	ABS	2	2	24VD	0	1	0.66765499115	None	None	None	None	1
1.7	2015_Jul_20_1438	s	s	12	1	SIC	386	RC	1	0	23MC	1	0	1.29181098938	307.0	307.0	301	310	1
1.7	2015_Jul_20_1438	s	s	12	1	SIC	387	RC	1	2	23MD	1	0	0.646664857864	405.0	-9.0	403	-9	1
1.7	2015_Jul_20_1438	s	s	12	1	SIC	388	ABS	1	0	24MC	0	1	1.74144506454	None	None	None	None	1
1.7	2015_Jul_20_1438	s	s	12	1	SIC	389	RC	0	2	23RD	1	0	0.984219074249	-34.0	403.0	-39	393	1
1.7	2015_Jul_20_1438	s	s	12	1	SIC	390	RC	2	2	23VD	1	0	0.701904058456	-211.0	306.0	-214	310	1
1.7	2015_Jul_20_1438	s	s	12	1	SIC	391	ABS	0	2	24RD	0	1	1.37377381325	None	None	None	None	1
1.7	2015_Jul_20_1438	s	s	12	1	SIC	392	ABS	0	1	24RO	0	1	4.37801098824	None	None	None	None	1
1.7	2015_Jul_20_1438	s	s	12	1	SIC	393	RC	0	1	23RO	1	0	1.70347595215	272.0	-321.0	274	-312	1
1.7	2015_Jul_20_1438	s	s	12	1	SIC	394	ABS	1	2	24MD	0	1	2.69479298592	None	None	None	None	1
1.7	2015_Jul_20_1438	s	s	12	1	SIC	395	RC	2	0	23VC	1	0	0.587794065475	364.0	-23.0	364	-24	1
1.7	2015_Jul_20_1438	s	s	12	1	SIC	396	ABS	2	0	24VC	0	1	0.829821825027	None	None	None	None	1
1.7	2015_Jul_20_1438	s	s	12	1	SIC	397	ABS	1	1	24MO	0	1	1.6328561306	None	None	None	None	1
1.7	2015_Jul_20_1438	s	s	12	1	SIC	398	RC	1	1	23MO	1	0	1.42719292641	-320.0	-264.0	-317	-259	1
1.7	2015_Jul_20_1438	s	s	12	1	SIC	399	RC	2	1	23VO	1	0	0.587907075882	21.0	-284.0	23	-287	1
1.7	2015_Jul_20_1438	s	s	12	1	SIC	400	ABS	2	1	24VO	0	1	1.94147109985	None	None	None	None	1
1.7	2015_Jul_20_1438	s	s	12	1	SIC	401	ABS	2	1	24VO	0	1	0.689191102982	None	None	None	None	1
1.7	2015_Jul_20_1438	s	s	12	1	SIC	402	RC	1	1	23MO	1	0	1.64735293388	374.0	-377.0	382	-376	1
1.7	2015_Jul_20_1438	s	s	12	1	SIC	403	RC	0	1	23RO	1	0	3.81330895424	293.0	82.0	297	78	1
1.7	2015_Jul_20_1438	s	s	12	1	SIC	404	RC	2	1	23VO	1	0	0.564214944839	95.0	-338.0	102	-333	1
1.7	2015_Jul_20_1438	s	s	12	1	SIC	405	ABS	1	2	24MD	0	1	1.23034715652	None	None	None	None	1
1.7	2015_Jul_20_1438	s	s	12	1	SIC	406	ABS	1	0	24MC	0	1	2.78671479225	None	None	None	None	1
1.7	2015_Jul_20_1438	s	s	12	1	SIC	407	ABS	0	1	24RO	0	1	3.01645183563	None	None	None	None	1
1.7	2015_Jul_20_1438	s	s	12	1	SIC	408	ABS	2	0	24VC	0	1	1.31491208076	None	None	None	None	1
1.7	2015_Jul_20_1438	s	s	12	1	SIC	409	RC	1	2	23MD	1	0	0.682132959366	-245.0	-69.0	-241	-63	1
1.7	2015_Jul_20_1438	s	s	12	1	SIC	410	RC	0	2	23RD	1	0	0.96466088295	484.0	-240.0	490	-231	1
1.7	2015_Jul_20_1438	s	s	12	1	SIC	411	RC	2	2	23VD	1	0	0.560128927231	-65.0	74.0	-65	71	1
1.7	2015_Jul_20_1438	s	s	12	1	SIC	412	ABS	0	2	24RD	0	1	2.05917882919	None	None	None	None	1
1.7	2015_Jul_20_1438	s	s	12	1	SIC	413	RC	1	0	23MC	1	0	1.09180188179	25.0	251.0	17	246	1
1.7	2015_Jul_20_1438	s	s	12	1	SIC	414	RC	2	0	23VC	1	0	0.748211860657	-1.0	352.0	-3	352	1
1.7	2015_Jul_20_1438	s	s	12	1	SIC	415	ABS	2	2	24VD	0	1	0.91215801239	None	None	None	None	1
1.7	2015_Jul_20_1438	s	s	12	1	SIC	416	ABS	1	1	24MO	0	1	3.85464882851	None	None	None	None	1
1.7	2015_Jul_20_1438	s	s	12	1	SIC	417	RC	0	1	23RO	1	0	1.09407305717	159.0	380.0	155	382	1
1.7	2015_Jul_20_1438	s	s	12	1	SIC	418	ABS	1	1	24MO	0	1	3.42460680008	None	None	None	None	1
1.7	2015_Jul_20_1438	s	s	12	1	SIC	419	ABS	2	1	24VO	0	1	0.811559200287	None	None	None	None	1
1.7	2015_Jul_20_1438	s	s	12	1	SIC	420	RC	2	1	23VO	1	0	0.853069067001	90.0	-125.0	88	-128	1
1.7	2015_Jul_20_1438	s	s	12	1	SIC	421	ABS	0	2	24RD	0	1	1.41849899292	None	None	None	None	1
1.7	2015_Jul_20_1438	s	s	12	1	SIC	422	RC	0	2	23RD	1	0	0.761692047119	-232.0	-399.0	-236	-395	1
1.7	2015_Jul_20_1438	s	s	12	1	SIC	423	ABS	2	0	24VC	0	1	0.679482936859	None	None	None	None	1
1.7	2015_Jul_20_1438	s	s	12	1	SIC	424	ABS	2	2	24VD	0	1	1.92961287498	None	None	None	None	1
1.7	2015_Jul_20_1438	s	s	12	1	SIC	425	ABS	1	2	24MD	0	1	1.58847689629	None	None	None	None	1
1.7	2015_Jul_20_1438	s	s	12	1	SIC	426	RC	1	1	23MO	1	0	1.22354507446	28.0	368.0	32	365	1
1.7	2015_Jul_20_1438	s	s	12	1	SIC	427	RC	2	0	23VC	1	0	0.576086044312	-25.0	-62.0	-28	-65	1
1.7	2015_Jul_20_1438	s	s	12	1	SIC	428	RC	1	0	23MC	1	0	2.16155195236	-182.0	15.0	-184	18	1
1.7	2015_Jul_20_1438	s	s	12	1	SIC	429	ABS	0	1	24RO	0	1	4.69290709496	None	None	None	None	1
1.7	2015_Jul_20_1438	s	s	12	1	SIC	430	ABS	1	0	24MC	0	1	2.5037150383	None	None	None	None	1
1.7	2015_Jul_20_1438	s	s	12	1	SIC	431	RC	2	2	23VD	1	0	0.796797037125	-13.0	178.0	-11	179	1
1.7	2015_Jul_20_1438	s	s	12	1	SIC	432	RC	1	2	23MD	1	0	1.15021395683	530.0	-398.0	535	-395	1
1.7	2015_Jul_20_1438	s	s	12	1	SIC	433	ABS	0	2	24RD	0	1	2.3368139267	None	None	None	None	1
1.7	2015_Jul_20_1438	s	s	12	1	SIC	434	ABS	1	0	24MC	0	1	2.27951097488	None	None	None	None	1
1.7	2015_Jul_20_1438	s	s	12	1	SIC	435	RC	1	1	23MO	1	0	1.67059397697	428.0	271.0	433	270	1
1.7	2015_Jul_20_1438	s	s	12	1	SIC	436	ABS	2	2	24VD	0	1	1.01784396172	None	None	None	None	1
1.7	2015_Jul_20_1438	s	s	12	1	SIC	437	RC	0	2	23RD	1	0	0.63489484787	-406.0	127.0	-398	133	1
1.7	2015_Jul_20_1438	s	s	12	1	SIC	438	RC	2	2	23VD	1	0	0.634943962097	328.0	50.0	330	49	1
1.7	2015_Jul_20_1438	s	s	12	1	SIC	439	RC	1	2	23MD	1	0	0.599657058716	-216.0	-170.0	-215	-170	1
1.7	2015_Jul_20_1438	s	s	12	1	SIC	440	ABS	2	0	24VC	0	1	0.936009168625	None	None	None	None	1
1.7	2015_Jul_20_1438	s	s	12	1	SIC	441	ABS	1	1	24MO	0	1	3.0304710865	None	None	None	None	1
1.7	2015_Jul_20_1438	s	s	12	1	SIC	442	RC	1	0	23MC	1	0	1.03111791611	-398.0	32.0	-405	33	1
1.7	2015_Jul_20_1438	s	s	12	1	SIC	443	RC	2	1	23VO	1	0	0.559278011322	195.0	108.0	196	110	1
1.7	2015_Jul_20_1438	s	s	12	1	SIC	444	ABS	2	1	24VO	0	1	0.711773872375	None	None	None	None	1
1.7	2015_Jul_20_1438	s	s	12	1	SIC	445	RC	2	0	23VC	1	0	0.676550865173	5.0	-113.0	13	-111	1
1.7	2015_Jul_20_1438	s	s	12	1	SIC	446	RC	0	1	23RO	1	0	1.44695878029	-260.0	-35.0	-250	-28	1
1.7	2015_Jul_20_1438	s	s	12	1	SIC	447	ABS	0	1	24RO	0	1	4.50737309456	None	None	None	None	1
1.7	2015_Jul_20_1438	s	s	12	1	SIC	448	ABS	1	2	24MD	0	1	1.52335810661	None	None	None	None	1
1.7	2015_Jul_20_1438	s	s	12	1	SIC	449	ABS	2	2	24VD	0	1	0.811964035034	None	None	None	None	1
1.7	2015_Jul_20_1438	s	s	12	1	SIC	450	ABS	0	1	24RO	0	1	4.44435596466	None	None	None	None	1
1.7	2015_Jul_20_1438	s	s	12	1	SIC	451	ABS	1	1	24MO	0	1	4.33791613579	None	None	None	None	1
1.7	2015_Jul_20_1438	s	s	12	1	SIC	452	RC	1	1	23MO	1	0	2.51831293106	-138.0	-299.0	-130	-293	1
1.7	2015_Jul_20_1438	s	s	12	1	SIC	453	ABS	2	1	24VO	0	1	0.623172044754	None	None	None	None	1
1.7	2015_Jul_20_1438	s	s	12	1	SIC	454	ABS	1	2	24MD	0	1	2.53942203522	None	None	None	None	1
1.7	2015_Jul_20_1438	s	s	12	1	SIC	455	RC	2	2	23VD	1	0	0.682013988495	-234.0	96.0	-226	90	1
1.7	2015_Jul_20_1438	s	s	12	1	SIC	456	RC	1	2	23MD	1	0	1.39728593826	477.0	215.0	477	211	1
1.7	2015_Jul_20_1438	s	s	12	1	SIC	457	ABS	1	0	24MC	0	1	2.06566405296	None	None	None	None	1
1.7	2015_Jul_20_1438	s	s	12	1	SIC	458	RC	2	1	23VO	1	0	0.616005182266	303.0	-46.0	295	-44	1
1.7	2015_Jul_20_1438	s	s	12	1	SIC	459	RC	1	0	23MC	1	0	1.20819711685	223.0	-38.0	216	-28	1
1.7	2015_Jul_20_1438	s	s	12	1	SIC	460	RC	0	1	23RO	1	0	3.95170903206	288.0	313.0	284	301	1
1.7	2015_Jul_20_1438	s	s	12	1	SIC	461	ABS	2	0	24VC	0	1	1.15289998055	None	None	None	None	1
1.7	2015_Jul_20_1438	s	s	12	1	SIC	462	RC	2	0	23VC	1	0	0.71745300293	-135.0	-236.0	-131	-235	1
1.7	2015_Jul_20_1438	s	s	12	1	SIC	463	RC	0	2	23RD	1	0	0.776283025742	348.0	-23.0	352	-15	1
1.7	2015_Jul_20_1438	s	s	12	1	SIC	464	ABS	0	2	24RD	0	1	2.05337309837	None	None	None	None	1
1.7	2015_Jul_20_1438	s	s	12	1	SIC	465	RC	2	1	23VO	1	0	0.740963935852	211.0	-153.0	206	-151	1
1.7	2015_Jul_20_1438	s	s	12	1	SIC	466	ABS	2	1	24VO	0	1	1.7027130127	None	None	None	None	1
1.7	2015_Jul_20_1438	s	s	12	1	SIC	467	ABS	1	2	24MD	0	1	1.03169989586	None	None	None	None	1
1.7	2015_Jul_20_1438	s	s	12	1	SIC	468	RC	1	0	23MC	1	0	1.9061460495	248.0	85.0	245	82	1
1.7	2015_Jul_20_1438	s	s	12	1	SIC	469	ABS	1	1	24MO	0	1	4.34317779541	None	None	None	None	1
1.7	2015_Jul_20_1438	s	s	12	1	SIC	470	ABS	0	1	24RO	0	1	4.1841750145	None	None	None	None	1
1.7	2015_Jul_20_1438	s	s	12	1	SIC	471	ABS	0	2	24RD	0	1	1.92412614822	None	None	None	None	1
1.7	2015_Jul_20_1438	s	s	12	1	SIC	472	RC	1	1	23MO	1	0	3.86739706993	364.0	-95.0	373	-88	1
1.7	2015_Jul_20_1438	s	s	12	1	SIC	473	ABS	1	0	24MC	1	0	1.74856495857	None	None	-500	219	0
1.7	2015_Jul_20_1438	s	s	12	1	SIC	474	RC	0	1	23RO	1	0	3.44816589355	376.0	-357.0	377	-356	1
1.7	2015_Jul_20_1438	s	s	12	1	SIC	475	ABS	2	0	24VC	0	1	0.853436946869	None	None	None	None	1
1.7	2015_Jul_20_1438	s	s	12	1	SIC	476	RC	1	2	23MD	1	0	0.665232896805	-214.0	-355.0	-214	-359	1
1.7	2015_Jul_20_1438	s	s	12	1	SIC	477	RC	2	0	23VC	1	0	0.70564198494	202.0	-163.0	201	-168	1
1.7	2015_Jul_20_1438	s	s	12	1	SIC	478	RC	2	2	23VD	1	0	0.865497112274	-415.0	-359.0	-411	-355	1
1.7	2015_Jul_20_1438	s	s	12	1	SIC	479	RC	0	2	23RD	1	0	0.853625059128	518.0	-47.0	513	-55	1
1.7	2015_Jul_20_1438	s	s	12	1	SIC	480	ABS	2	2	24VD	0	1	0.729201078415	None	None	None	None	1
1.7	2015_Jul_20_1438	s	s	12	1	SIC	481	ABS	1	2	24MD	0	1	1.56489491463	None	None	None	None	1
1.7	2015_Jul_20_1438	s	s	12	1	SIC	482	RC	1	2	23MD	1	0	0.635048866272	354.0	-209.0	351	-206	1
1.7	2015_Jul_20_1438	s	s	12	1	SIC	483	RC	2	2	23VD	1	0	1.05430817604	2.0	-329.0	-2	-333	1
1.7	2015_Jul_20_1438	s	s	12	1	SIC	484	ABS	0	1	24RO	0	1	5.26501393318	None	None	None	None	1
1.7	2015_Jul_20_1438	s	s	12	1	SIC	485	RC	2	1	23VO	1	0	0.658445835114	-406.0	298.0	-397	300	1
1.7	2015_Jul_20_1438	s	s	12	1	SIC	486	RC	0	2	23RD	1	0	0.670269012451	-438.0	-241.0	-434	-237	1
1.7	2015_Jul_20_1438	s	s	12	1	SIC	487	RC	1	0	23MC	1	0	1.03007006645	176.0	-161.0	179	-157	1
1.7	2015_Jul_20_1438	s	s	12	1	SIC	488	ABS	2	0	24VC	0	1	1.32471895218	None	None	None	None	1
1.7	2015_Jul_20_1438	s	s	12	1	SIC	489	RC	2	0	23VC	1	0	0.635058879852	158.0	-268.0	162	-259	1
1.7	2015_Jul_20_1438	s	s	12	1	SIC	490	ABS	2	2	24VD	0	1	0.693703174591	None	None	None	None	1
1.7	2015_Jul_20_1438	s	s	12	1	SIC	491	ABS	2	1	24VO	0	1	0.619490861893	None	None	None	None	1
1.7	2015_Jul_20_1438	s	s	12	1	SIC	492	ABS	1	0	24MC	0	1	4.23130393028	None	None	None	None	1
1.7	2015_Jul_20_1438	s	s	12	1	SIC	493	ABS	1	1	24MO	0	1	3.41066813469	None	None	None	None	1
1.7	2015_Jul_20_1438	s	s	12	1	SIC	494	RC	1	1	23MO	1	0	1.51767492294	-327.0	-289.0	-316	-285	1
1.7	2015_Jul_20_1438	s	s	12	1	SIC	495	ABS	0	2	24RD	0	1	4.70379304886	None	None	None	None	1
1.7	2015_Jul_20_1438	s	s	12	1	SIC	496	RC	0	1	23RO	1	0	2.10120010376	220.0	388.0	221	392	1
1.7	2015_Jul_20_1438	s	s	12	1	SIC	497	RC	1	2	23MD	1	0	1.34834003448	-363.0	-114.0	-361	-113	1
1.7	2015_Jul_20_1438	s	s	12	1	SIC	498	RC	2	0	23VC	1	0	0.535753011703	-529.0	-384.0	-528	-385	1
1.7	2015_Jul_20_1438	s	s	12	1	SIC	499	RC	2	2	23VD	1	0	0.476459026337	-464.0	-185.0	-466	-181	1
1.7	2015_Jul_20_1438	s	s	12	1	SIC	500	ABS	2	0	24VC	0	1	0.693626880646	None	None	None	None	1
1.7	2015_Jul_20_1438	s	s	12	1	SIC	501	RC	1	1	23MO	1	0	3.0677280426	421.0	-340.0	421	-336	1
1.7	2015_Jul_20_1438	s	s	12	1	SIC	502	ABS	1	0	24MC	0	1	4.17792606354	None	None	None	None	1
1.7	2015_Jul_20_1438	s	s	12	1	SIC	503	ABS	2	2	24VD	0	1	0.603721857071	None	None	None	None	1
1.7	2015_Jul_20_1438	s	s	12	1	SIC	504	ABS	1	2	24MD	0	1	1.21931290627	None	None	None	None	1
1.7	2015_Jul_20_1438	s	s	12	1	SIC	505	ABS	1	1	24MO	0	1	3.28958106041	None	None	None	None	1
1.7	2015_Jul_20_1438	s	s	12	1	SIC	506	RC	2	1	23VO	1	0	0.678185939789	209.0	-67.0	215	-67	1
1.7	2015_Jul_20_1438	s	s	12	1	SIC	507	RC	0	2	23RD	1	0	0.670366048813	105.0	38.0	111	39	1
1.7	2015_Jul_20_1438	s	s	12	1	SIC	508	ABS	2	1	24VO	0	1	0.62318611145	None	None	None	None	1
1.7	2015_Jul_20_1438	s	s	12	1	SIC	509	ABS	0	1	24RO	0	1	5.85637688637	None	None	None	None	1
1.7	2015_Jul_20_1438	s	s	12	1	SIC	510	RC	0	1	23RO	1	0	2.96102499962	93.0	34.0	100	34	1
1.7	2015_Jul_20_1438	s	s	12	1	SIC	511	RC	1	0	23MC	1	0	1.22349381447	370.0	166.0	364	162	1
1.7	2015_Jul_20_1438	s	s	12	1	SIC	512	ABS	0	2	24RD	0	1	0.971702814102	None	None	None	None	1
1.7	2015_Jul_20_1438	s	s	12	1	SIC	513	ABS	1	1	24MO	0	1	2.43568205833	None	None	None	None	1
1.7	2015_Jul_20_1438	s	s	12	1	SIC	514	ABS	2	2	24VD	0	1	0.587934017181	None	None	None	None	1
1.7	2015_Jul_20_1438	s	s	12	1	SIC	515	RC	1	0	23MC	1	0	1.26843690872	-505.0	-324.0	-508	-334	1
1.7	2015_Jul_20_1438	s	s	12	1	SIC	516	RC	0	1	23RO	1	0	1.6001060009	-137.0	237.0	-135	233	1
1.7	2015_Jul_20_1438	s	s	12	1	SIC	517	RC	1	2	23MD	1	0	0.617587089539	-440.0	-218.0	-435	-216	1
1.7	2015_Jul_20_1438	s	s	12	1	SIC	518	ABS	1	2	24MD	0	1	1.37258815765	None	None	None	None	1
1.7	2015_Jul_20_1438	s	s	12	1	SIC	519	ABS	0	1	24RO	0	1	4.07199001312	None	None	None	None	1
1.7	2015_Jul_20_1438	s	s	12	1	SIC	520	RC	2	2	23VD	1	0	0.759485960007	-498.0	293.0	-500	297	1
1.7	2015_Jul_20_1438	s	s	12	1	SIC	521	ABS	0	2	24RD	0	1	1.56475090981	None	None	None	None	1
1.7	2015_Jul_20_1438	s	s	12	1	SIC	522	RC	2	1	23VO	1	0	0.576042890549	-337.0	-203.0	-347	-195	1
1.7	2015_Jul_20_1438	s	s	12	1	SIC	523	ABS	2	1	24VO	0	1	1.72964906693	None	None	None	None	1
1.7	2015_Jul_20_1438	s	s	12	1	SIC	524	RC	0	2	23RD	1	0	0.623194932938	-210.0	232.0	-218	226	1
1.7	2015_Jul_20_1438	s	s	12	1	SIC	525	ABS	1	0	24MC	0	1	1.89440107346	None	None	None	None	1
1.7	2015_Jul_20_1438	s	s	12	1	SIC	526	RC	1	1	23MO	1	0	1.7708568573	438.0	-101.0	443	-97	1
1.7	2015_Jul_20_1438	s	s	12	1	SIC	527	RC	2	0	23VC	1	0	0.582421064377	-160.0	-331.0	-165	-329	1
1.7	2015_Jul_20_1438	s	s	12	1	SIC	528	ABS	2	0	24VC	0	1	0.73766207695	None	None	None	None	1
1.7	2015_Jul_20_1438	s	s	12	1	SIC	529	RC	0	2	23RD	1	0	0.608411073685	167.0	121.0	163	120	1
1.7	2015_Jul_20_1438	s	s	12	1	SIC	530	RC	0	1	23RO	1	0	2.37727808952	70.0	-397.0	80	-399	1
1.7	2015_Jul_20_1438	s	s	12	1	SIC	531	ABS	0	1	24RO	0	1	3.3540699482	None	None	None	None	1
1.7	2015_Jul_20_1438	s	s	12	1	SIC	532	ABS	2	2	24VD	0	1	0.634942770004	None	None	None	None	1
1.7	2015_Jul_20_1438	s	s	12	1	SIC	533	ABS	0	2	24RD	0	1	1.14889502525	None	None	None	None	1
1.7	2015_Jul_20_1438	s	s	12	1	SIC	534	ABS	2	1	24VO	0	1	0.547873973846	None	None	None	None	1
1.7	2015_Jul_20_1438	s	s	12	1	SIC	535	ABS	1	2	24MD	0	1	0.634987831116	None	None	None	None	1
1.7	2015_Jul_20_1438	s	s	12	1	SIC	536	ABS	1	1	24MO	0	1	2.60836482048	None	None	None	None	1
1.7	2015_Jul_20_1438	s	s	12	1	SIC	537	RC	2	2	23VD	1	0	0.676498174667	194.0	315.0	204	318	1
1.7	2015_Jul_20_1438	s	s	12	1	SIC	538	ABS	2	0	24VC	0	1	0.629546165466	None	None	None	None	1
1.7	2015_Jul_20_1438	s	s	12	1	SIC	539	RC	1	2	23MD	1	0	0.740942955017	1.0	-83.0	14	-79	1
1.7	2015_Jul_20_1438	s	s	12	1	SIC	540	ABS	1	0	24MC	0	1	2.10294508934	None	None	None	None	1
1.7	2015_Jul_20_1438	s	s	12	1	SIC	541	RC	1	1	23MO	1	0	2.12397217751	338.0	-8.0	348	-5	1
1.7	2015_Jul_20_1438	s	s	12	1	SIC	542	RC	1	0	23MC	1	0	1.14995503426	288.0	286.0	288	283	1
1.7	2015_Jul_20_1438	s	s	12	1	SIC	543	RC	2	1	23VO	1	0	0.635054826736	12.0	-34.0	16	-29	1
1.7	2015_Jul_20_1438	s	s	12	1	SIC	544	RC	2	0	23VC	1	0	0.702173948288	519.0	-276.0	528	-269	1
1.7	2015_Jul_20_1438	s	s	12	1	SIC	545	ABS	2	1	24VO	0	1	0.855005025864	None	None	None	None	1
1.7	2015_Jul_20_1438	s	s	12	1	SIC	546	ABS	0	1	24RO	0	1	5.06105780602	None	None	None	None	1
1.7	2015_Jul_20_1438	s	s	12	1	SIC	547	ABS	2	2	24VD	0	1	1.52485203743	None	None	None	None	1
1.7	2015_Jul_20_1438	s	s	12	1	SIC	548	ABS	1	1	24MO	0	1	2.09195804596	None	None	None	None	1
1.7	2015_Jul_20_1438	s	s	12	1	SIC	549	ABS	2	0	24VC	0	1	0.806429862976	None	None	None	None	1
1.7	2015_Jul_20_1438	s	s	12	1	SIC	550	ABS	1	0	24MC	0	1	2.77420306206	None	None	None	None	1
1.7	2015_Jul_20_1438	s	s	12	1	SIC	551	RC	2	0	23VC	1	0	0.81760597229	255.0	-140.0	263	-140	1
1.7	2015_Jul_20_1438	s	s	12	1	SIC	552	ABS	1	2	24MD	0	1	1.58333301544	None	None	None	None	1
1.7	2015_Jul_20_1438	s	s	12	1	SIC	553	RC	2	1	23VO	1	0	0.585287094116	106.0	299.0	101	298	1
1.7	2015_Jul_20_1438	s	s	12	1	SIC	554	RC	1	0	23MC	0	1	1.24707579613	-20.0	-199.0	None	None	0
1.7	2015_Jul_20_1438	s	s	12	1	SIC	555	RC	0	1	23RO	1	0	1.58822894096	329.0	369.0	324	369	1
1.7	2015_Jul_20_1438	s	s	12	1	SIC	556	RC	2	2	23VD	1	0	0.547108888626	-357.0	-318.0	-360	-317	1
1.7	2015_Jul_20_1438	s	s	12	1	SIC	557	RC	1	2	23MD	1	0	0.68808889389	-219.0	-189.0	-220	-191	1
1.7	2015_Jul_20_1438	s	s	12	1	SIC	558	ABS	0	2	24RD	0	1	1.12933516502	None	None	None	None	1
1.7	2015_Jul_20_1438	s	s	12	1	SIC	559	RC	0	2	23RD	1	0	0.796494960785	417.0	-328.0	424	-326	1
1.7	2015_Jul_20_1438	s	s	12	1	SIC	560	RC	1	1	23MO	1	0	1.45455694199	498.0	124.0	496	127	1
1.7	2015_Jul_20_1438	s	s	12	1	SIC	561	ABS	0	1	24RO	0	1	5.51988506317	None	None	None	None	1
1.7	2015_Jul_20_1438	s	s	12	1	SIC	562	RC	0	1	23RO	1	0	1.87086510658	-355.0	329.0	-355	329	1
1.7	2015_Jul_20_1438	s	s	12	1	SIC	563	ABS	2	0	24VC	0	1	0.623060941696	None	None	None	None	1
1.7	2015_Jul_20_1438	s	s	12	1	SIC	564	RC	2	0	23VC	1	0	0.782655954361	362.0	410.0	363	409	1
1.7	2015_Jul_20_1438	s	s	12	1	SIC	565	ABS	0	2	24RD	0	1	1.16451621056	None	None	None	None	1
1.7	2015_Jul_20_1438	s	s	12	1	SIC	566	RC	1	2	23MD	1	0	0.667789936066	42.0	292.0	44	294	1
1.7	2015_Jul_20_1438	s	s	12	1	SIC	567	RC	2	2	23VD	1	0	0.670170783997	-355.0	-210.0	-350	-204	1
1.7	2015_Jul_20_1438	s	s	12	1	SIC	568	RC	1	1	23MO	1	0	0.835143089294	-265.0	-42.0	-259	-44	1
1.7	2015_Jul_20_1438	s	s	12	1	SIC	569	ABS	2	1	24VO	0	1	0.652938127518	None	None	None	None	1
1.7	2015_Jul_20_1438	s	s	12	1	SIC	570	RC	1	0	23MC	1	0	1.00932598114	-424.0	14.0	-431	12	1
1.7	2015_Jul_20_1438	s	s	12	1	SIC	571	ABS	2	2	24VD	0	1	0.818547010422	None	None	None	None	1
1.7	2015_Jul_20_1438	s	s	12	1	SIC	572	ABS	1	2	24MD	0	1	0.670421123505	None	None	None	None	1
1.7	2015_Jul_20_1438	s	s	12	1	SIC	573	RC	2	1	23VO	1	0	0.646704912186	-198.0	406.0	-191	415	1
1.7	2015_Jul_20_1438	s	s	12	1	SIC	574	RC	0	2	23RD	1	0	0.854907989502	-175.0	-350.0	-186	-346	1
1.7	2015_Jul_20_1438	s	s	12	1	SIC	575	ABS	1	1	24MO	0	1	1.376527071	None	None	None	None	1
1.7	2015_Jul_20_1438	s	s	12	1	SIC	576	ABS	1	0	24MC	0	1	1.34916305542	None	None	None	None	1
1.7	2015_Jul_20_1438	s	s	12	1	SIC	577	ABS	0	1	24RO	0	1	1.65432906151	None	None	None	None	1
1.7	2015_Jul_20_1438	s	s	12	1	SIC	578	ABS	2	2	24VD	0	1	0.596321105957	None	None	None	None	1
1.7	2015_Jul_20_1438	s	s	12	1	SIC	579	RC	0	2	23RD	1	0	0.682101964951	-299.0	-233.0	-292	-228	1
1.7	2015_Jul_20_1438	s	s	12	1	SIC	580	ABS	1	1	24MO	0	1	1.06454014778	None	None	None	None	1
1.7	2015_Jul_20_1438	s	s	12	1	SIC	581	RC	2	0	23VC	1	0	0.611431837082	186.0	276.0	182	274	1
1.7	2015_Jul_20_1438	s	s	12	1	SIC	582	ABS	1	0	24MC	0	1	2.7575199604	None	None	None	None	1
1.7	2015_Jul_20_1438	s	s	12	1	SIC	583	RC	1	0	23MC	1	0	1.33889698982	-436.0	-145.0	-445	-141	1
1.7	2015_Jul_20_1438	s	s	12	1	SIC	584	ABS	0	2	24RD	0	1	0.679718017578	None	None	None	None	1
1.7	2015_Jul_20_1438	s	s	12	1	SIC	585	RC	1	2	23MD	1	0	0.599673986435	43.0	274.0	44	278	1
1.7	2015_Jul_20_1438	s	s	12	1	SIC	586	RC	2	2	23VD	1	0	0.502009868622	-496.0	142.0	-504	144	1
1.7	2015_Jul_20_1438	s	s	12	1	SIC	587	ABS	2	0	24VC	0	1	0.75274014473	None	None	None	None	1
1.7	2015_Jul_20_1438	s	s	12	1	SIC	588	ABS	2	1	24VO	0	1	0.776219844818	None	None	None	None	1
1.7	2015_Jul_20_1438	s	s	12	1	SIC	589	RC	2	1	23VO	1	0	1.31504297256	190.0	-278.0	198	-276	1
1.7	2015_Jul_20_1438	s	s	12	1	SIC	590	RC	0	1	23RO	1	0	1.63128089905	268.0	300.0	268	294	1
1.7	2015_Jul_20_1438	s	s	12	1	SIC	591	ABS	1	2	24MD	0	1	1.74128293991	None	None	None	None	1
1.7	2015_Jul_20_1438	s	s	12	1	SIC	592	RC	1	1	23MO	1	0	0.59605884552	-341.0	91.0	-338	96	1
