Version	Date	Stimuli	Method	Subject	Session	Condition	Trial	Target	Channel1	Channel2	Distractors	LMouseButton	RMouseButton	RT	TargetX	TargetY	ResponseX	ResponseY	Correct
1.7	2015_Jul_21_1155	s	s	12	2	Capacity	1	RC	0	1	23RO	1	0	1.81191587448	-460.0	-241.0	-468	-238	1
1.7	2015_Jul_21_1155	s	s	12	2	Capacity	2	RC	0	2	23RD	1	0	1.2561519146	372.0	320.0	374	327	1
1.7	2015_Jul_21_1155	s	s	12	2	Capacity	3	ABS	0	2	24RD	1	0	2.48974704742	None	None	-395	293	0
1.7	2015_Jul_21_1155	s	s	12	2	Capacity	4	ABS	0	1	24RO	0	1	6.57927584648	None	None	None	None	1
1.7	2015_Jul_21_1155	s	s	12	2	Capacity	5	RC	0	1	23RO	1	0	5.30790996552	507.0	-121.0	516	-120	1
1.7	2015_Jul_21_1155	s	s	12	2	Capacity	6	ABS	0	1	24RO	0	1	6.30419301987	None	None	None	None	1
1.7	2015_Jul_21_1155	s	s	12	2	Capacity	7	ABS	0	2	24RD	0	1	1.95990586281	None	None	None	None	1
1.7	2015_Jul_21_1155	s	s	12	2	Capacity	8	RC	0	2	23RD	1	0	0.960256099701	-536.0	-259.0	-538	-266	1
1.7	2015_Jul_21_1155	s	s	12	2	Capacity	9	RC	0	2	23RD	1	0	0.746911048889	-505.0	-191.0	-504	-189	1
1.7	2015_Jul_21_1155	s	s	12	2	Capacity	10	ABS	0	1	24RO	0	1	6.73218202591	None	None	None	None	1
1.7	2015_Jul_21_1155	s	s	12	2	Capacity	11	RC	0	1	23RO	1	0	2.58892416954	-379.0	-173.0	-380	-169	1
1.7	2015_Jul_21_1155	s	s	12	2	Capacity	12	ABS	0	2	24RD	0	1	2.6309068203	None	None	None	None	1
1.7	2015_Jul_21_1155	s	s	12	2	Capacity	13	RC	0	1	23RO	1	0	3.997205019	-15.0	-236.0	-14	-242	1
1.7	2015_Jul_21_1155	s	s	12	2	Capacity	14	ABS	0	1	24RO	0	1	4.22521114349	None	None	None	None	1
1.7	2015_Jul_21_1155	s	s	12	2	Capacity	15	RC	0	2	23RD	1	0	0.900957107544	106.0	-196.0	112	-200	1
1.7	2015_Jul_21_1155	s	s	12	2	Capacity	16	ABS	0	2	24RD	0	1	1.21863794327	None	None	None	None	1
1.7	2015_Jul_21_1155	s	s	12	2	Capacity	17	ABS	0	2	24RD	0	1	1.30338692665	None	None	None	None	1
1.7	2015_Jul_21_1155	s	s	12	2	Capacity	18	RC	0	1	23RO	1	0	1.6707470417	-400.0	-12.0	-400	-10	1
1.7	2015_Jul_21_1155	s	s	12	2	Capacity	19	RC	0	2	23RD	1	0	0.740896940231	-386.0	367.0	-374	376	1
1.7	2015_Jul_21_1155	s	s	12	2	Capacity	20	ABS	0	1	24RO	0	1	3.66003894806	None	None	None	None	1
1.7	2015_Jul_21_1155	s	s	12	2	Capacity	21	RC	0	1	23RO	1	0	3.59802913666	-144.0	-281.0	-142	-279	1
1.7	2015_Jul_21_1155	s	s	12	2	Capacity	22	RC	0	2	23RD	1	0	1.07945299149	-338.0	-46.0	-344	-47	1
1.7	2015_Jul_21_1155	s	s	12	2	Capacity	23	ABS	0	1	24RO	0	1	5.29085707664	None	None	None	None	1
1.7	2015_Jul_21_1155	s	s	12	2	Capacity	24	ABS	0	2	24RD	0	1	3.88377213478	None	None	None	None	1
1.7	2015_Jul_21_1155	s	s	12	2	Capacity	25	RC	0	1	23RO	1	0	3.69041013718	66.0	109.0	69	114	1
1.7	2015_Jul_21_1155	s	s	12	2	Capacity	26	ABS	0	2	24RD	0	1	2.19630002975	None	None	None	None	1
1.7	2015_Jul_21_1155	s	s	12	2	Capacity	27	ABS	0	1	24RO	0	1	5.2806289196	None	None	None	None	1
1.7	2015_Jul_21_1155	s	s	12	2	Capacity	28	RC	0	2	23RD	1	0	0.820540189743	-32.0	130.0	-29	130	1
1.7	2015_Jul_21_1155	s	s	12	2	Capacity	29	ABS	0	2	24RD	0	1	1.92962217331	None	None	None	None	1
1.7	2015_Jul_21_1155	s	s	12	2	Capacity	30	ABS	0	1	24RO	0	1	7.23836088181	None	None	None	None	1
1.7	2015_Jul_21_1155	s	s	12	2	Capacity	31	RC	0	1	23RO	1	0	6.1497130394	365.0	-165.0	356	-156	1
1.7	2015_Jul_21_1155	s	s	12	2	Capacity	32	RC	0	2	23RD	1	0	2.2070069313	-450.0	-109.0	-439	-108	1
1.7	2015_Jul_21_1155	s	s	12	2	Capacity	33	RC	0	2	23RD	1	0	0.697488069534	-460.0	-149.0	-463	-152	1
1.7	2015_Jul_21_1155	s	s	12	2	Capacity	34	RC	0	1	23RO	1	0	7.49725794792	-401.0	327.0	-394	330	1
1.7	2015_Jul_21_1155	s	s	12	2	Capacity	35	ABS	0	1	24RO	0	1	5.1431748867	None	None	None	None	1
1.7	2015_Jul_21_1155	s	s	12	2	Capacity	36	ABS	0	2	24RD	0	1	2.40058994293	None	None	None	None	1
1.7	2015_Jul_21_1155	s	s	12	2	Capacity	37	ABS	0	2	24RD	0	1	2.2911260128	None	None	None	None	1
1.7	2015_Jul_21_1155	s	s	12	2	Capacity	38	RC	0	1	23RO	1	0	4.56640100479	-289.0	-391.0	-286	-387	1
1.7	2015_Jul_21_1155	s	s	12	2	Capacity	39	ABS	0	1	24RO	0	1	5.34328699112	None	None	None	None	1
1.7	2015_Jul_21_1155	s	s	12	2	Capacity	40	RC	0	2	23RD	1	0	4.23667812347	457.0	11.0	455	15	1
1.7	2015_Jul_21_1155	s	s	12	2	Capacity	41	RC	0	1	23RO	1	0	4.03161406517	416.0	-5.0	411	-3	1
1.7	2015_Jul_21_1155	s	s	12	2	Capacity	42	RC	0	2	23RD	1	0	0.576170921326	-289.0	-23.0	-290	-26	1
1.7	2015_Jul_21_1155	s	s	12	2	Capacity	43	ABS	0	1	24RO	0	1	8.77671098709	None	None	None	None	1
1.7	2015_Jul_21_1155	s	s	12	2	Capacity	44	ABS	0	2	24RD	0	1	3.91549897194	None	None	None	None	1
1.7	2015_Jul_21_1155	s	s	12	2	Capacity	45	ABS	0	1	24RO	0	1	7.80043005943	None	None	None	None	1
1.7	2015_Jul_21_1155	s	s	12	2	Capacity	46	RC	0	1	23RO	1	0	2.87964105606	105.0	329.0	107	323	1
1.7	2015_Jul_21_1155	s	s	12	2	Capacity	47	RC	0	2	23RD	1	0	0.705648899078	-218.0	183.0	-218	183	1
1.7	2015_Jul_21_1155	s	s	12	2	Capacity	48	ABS	0	2	24RD	0	1	1.65561485291	None	None	None	None	1
1.7	2015_Jul_21_1155	s	s	12	2	Capacity	49	RC	0	1	23RO	1	0	3.24807596207	197.0	-159.0	201	-161	1
1.7	2015_Jul_21_1155	s	s	12	2	Capacity	50	RC	0	2	23RD	1	0	0.629042863846	-480.0	-8.0	-489	-3	1
1.7	2015_Jul_21_1155	s	s	12	2	Capacity	51	ABS	0	2	24RD	0	1	1.96060395241	None	None	None	None	1
1.7	2015_Jul_21_1155	s	s	12	2	Capacity	52	ABS	0	1	24RO	0	1	6.88162612915	None	None	None	None	1
1.7	2015_Jul_21_1155	s	s	12	2	Capacity	53	RC	0	1	23RO	1	0	1.18330192566	-252.0	168.0	-245	168	1
1.7	2015_Jul_21_1155	s	s	12	2	Capacity	54	RC	0	2	23RD	1	0	1.03568720818	321.0	289.0	308	295	1
1.7	2015_Jul_21_1155	s	s	12	2	Capacity	55	ABS	0	2	24RD	0	1	1.03229403496	None	None	None	None	1
1.7	2015_Jul_21_1155	s	s	12	2	Capacity	56	ABS	0	1	24RO	0	1	4.7021651268	None	None	None	None	1
1.7	2015_Jul_21_1155	s	s	12	2	Capacity	57	ABS	0	1	24RO	0	1	6.00861501694	None	None	None	None	1
1.7	2015_Jul_21_1155	s	s	12	2	Capacity	58	RC	0	2	23RD	1	0	0.752716064453	-520.0	-328.0	-525	-320	1
1.7	2015_Jul_21_1155	s	s	12	2	Capacity	59	RC	0	1	23RO	0	1	5.39008712769	-107.0	275.0	None	None	0
1.7	2015_Jul_21_1155	s	s	12	2	Capacity	60	ABS	0	2	24RD	0	1	1.80021882057	None	None	None	None	1
1.7	2015_Jul_21_1155	s	s	12	2	Capacity	61	RC	0	2	23RD	1	0	0.948970079422	48.0	-347.0	49	-352	1
1.7	2015_Jul_21_1155	s	s	12	2	Capacity	62	RC	0	1	23RO	1	0	6.7385571003	-30.0	373.0	-25	376	1
1.7	2015_Jul_21_1155	s	s	12	2	Capacity	63	ABS	0	2	24RD	0	1	2.41919803619	None	None	None	None	1
1.7	2015_Jul_21_1155	s	s	12	2	Capacity	64	ABS	0	1	24RO	0	1	10.2229230404	None	None	None	None	1
1.7	2015_Jul_21_1155	s	s	12	2	Capacity	65	RC	0	1	23RO	1	0	1.721585989	-452.0	118.0	-454	125	1
1.7	2015_Jul_21_1155	s	s	12	2	Capacity	66	ABS	0	1	24RO	0	1	6.13854789734	None	None	None	None	1
1.7	2015_Jul_21_1155	s	s	12	2	Capacity	67	RC	0	2	23RD	1	0	0.70308303833	221.0	-168.0	229	-172	1
1.7	2015_Jul_21_1155	s	s	12	2	Capacity	68	ABS	0	2	24RD	0	1	3.09027194977	None	None	None	None	1
1.7	2015_Jul_21_1155	s	s	12	2	Capacity	69	RC	0	1	23RO	1	0	4.25625300407	217.0	161.0	227	160	1
1.7	2015_Jul_21_1155	s	s	12	2	Capacity	70	ABS	0	1	24RO	0	1	3.4015481472	None	None	None	None	1
1.7	2015_Jul_21_1155	s	s	12	2	Capacity	71	ABS	0	2	24RD	0	1	1.37658786774	None	None	None	None	1
1.7	2015_Jul_21_1155	s	s	12	2	Capacity	72	RC	0	2	23RD	1	0	0.925614118576	-477.0	-380.0	-472	-381	1
1.7	2015_Jul_21_1155	s	s	12	2	Capacity	73	RC	0	2	23RD	1	0	2.67800688744	363.0	90.0	367	93	1
1.7	2015_Jul_21_1155	s	s	12	2	Capacity	74	ABS	0	1	24RO	0	1	8.56836009026	None	None	None	None	1
1.7	2015_Jul_21_1155	s	s	12	2	Capacity	75	ABS	0	2	24RD	0	1	3.59382605553	None	None	None	None	1
1.7	2015_Jul_21_1155	s	s	12	2	Capacity	76	RC	0	1	23RO	1	0	3.09506011009	-33.0	-311.0	-34	-316	1
1.7	2015_Jul_21_1155	s	s	12	2	Capacity	77	ABS	0	2	24RD	0	1	1.09156894684	None	None	None	None	1
1.7	2015_Jul_21_1155	s	s	12	2	Capacity	78	ABS	0	1	24RO	0	1	5.6021130085	None	None	None	None	1
1.7	2015_Jul_21_1155	s	s	12	2	Capacity	79	RC	0	1	23RO	1	0	4.95478892326	21.0	234.0	15	236	1
1.7	2015_Jul_21_1155	s	s	12	2	Capacity	80	RC	0	2	23RD	1	0	0.985242843628	-135.0	-183.0	-131	-177	1
1.7	2015_Jul_21_1155	s	s	12	2	Capacity	81	RC	0	1	23RO	0	1	6.87948417664	-529.0	-41.0	None	None	0
1.7	2015_Jul_21_1155	s	s	12	2	Capacity	82	ABS	0	2	24RD	0	1	2.78623008728	None	None	None	None	1
1.7	2015_Jul_21_1155	s	s	12	2	Capacity	83	ABS	0	1	24RO	0	1	8.45080399513	None	None	None	None	1
1.7	2015_Jul_21_1155	s	s	12	2	Capacity	84	RC	0	2	23RD	1	0	1.11179804802	203.0	370.0	209	365	1
1.7	2015_Jul_21_1155	s	s	12	2	Capacity	85	ABS	0	1	24RO	0	1	6.47321891785	None	None	None	None	1
1.7	2015_Jul_21_1155	s	s	12	2	Capacity	86	RC	0	2	23RD	1	0	0.670248985291	-206.0	-340.0	-211	-345	1
1.7	2015_Jul_21_1155	s	s	12	2	Capacity	87	ABS	0	2	24RD	0	1	2.56038117409	None	None	None	None	1
1.7	2015_Jul_21_1155	s	s	12	2	Capacity	88	RC	0	1	23RO	1	0	1.43544912338	224.0	386.0	218	386	1
1.7	2015_Jul_21_1155	s	s	12	2	Capacity	89	ABS	0	2	24RD	0	1	1.16130304337	None	None	None	None	1
1.7	2015_Jul_21_1155	s	s	12	2	Capacity	90	RC	0	2	23RD	1	0	0.597077131271	-476.0	396.0	-485	400	1
1.7	2015_Jul_21_1155	s	s	12	2	Capacity	91	ABS	0	1	24RO	0	1	5.76366710663	None	None	None	None	1
1.7	2015_Jul_21_1155	s	s	12	2	Capacity	92	RC	0	1	23RO	1	0	1.97316288948	-424.0	-403.0	-431	-405	1
1.7	2015_Jul_21_1155	s	s	12	2	Capacity	1	RC	1	0	23MC	1	0	3.03337192535	489.0	68.0	495	70	1
1.7	2015_Jul_21_1155	s	s	12	2	Capacity	2	ABS	2	0	24VC	0	1	1.30573606491	None	None	None	None	1
1.7	2015_Jul_21_1155	s	s	12	2	Capacity	3	ABS	1	0	24MC	0	1	2.08923506737	None	None	None	None	1
1.7	2015_Jul_21_1155	s	s	12	2	Capacity	4	RC	2	0	23VC	1	0	0.65857219696	-376.0	347.0	-378	336	1
1.7	2015_Jul_21_1155	s	s	12	2	Capacity	5	ABS	2	0	24VC	0	1	7.79885697365	None	None	None	None	1
1.7	2015_Jul_21_1155	s	s	12	2	Capacity	6	RC	1	0	23MC	1	0	1.43304014206	392.0	292.0	395	287	1
1.7	2015_Jul_21_1155	s	s	12	2	Capacity	7	ABS	1	0	24MC	1	0	8.78050708771	None	None	141	-32	0
1.7	2015_Jul_21_1155	s	s	12	2	Capacity	8	RC	2	0	23VC	1	0	0.623600959778	-207.0	-94.0	-199	-84	1
1.7	2015_Jul_21_1155	s	s	12	2	Capacity	9	ABS	1	0	24MC	0	1	1.40006899834	None	None	None	None	1
1.7	2015_Jul_21_1155	s	s	12	2	Capacity	10	RC	2	0	23VC	1	0	0.941008090973	-39.0	-56.0	-34	-61	1
1.7	2015_Jul_21_1155	s	s	12	2	Capacity	11	ABS	2	0	24VC	0	1	1.43289709091	None	None	None	None	1
1.7	2015_Jul_21_1155	s	s	12	2	Capacity	12	RC	1	0	23MC	1	0	1.20597696304	-209.0	23.0	-205	17	1
1.7	2015_Jul_21_1155	s	s	12	2	Capacity	13	ABS	2	0	24VC	0	1	1.37209796906	None	None	None	None	1
1.7	2015_Jul_21_1155	s	s	12	2	Capacity	14	RC	2	0	23VC	1	0	0.618538141251	270.0	-235.0	263	-235	1
1.7	2015_Jul_21_1155	s	s	12	2	Capacity	15	RC	1	0	23MC	0	1	7.52079391479	521.0	-35.0	None	None	0
1.7	2015_Jul_21_1155	s	s	12	2	Capacity	16	ABS	1	0	24MC	0	1	1.88269495964	None	None	None	None	1
1.7	2015_Jul_21_1155	s	s	12	2	Capacity	17	RC	1	0	23MC	1	0	5.0491271019	497.0	394.0	499	395	1
1.7	2015_Jul_21_1155	s	s	12	2	Capacity	18	ABS	1	0	24MC	0	1	6.36767816544	None	None	None	None	1
1.7	2015_Jul_21_1155	s	s	12	2	Capacity	19	ABS	2	0	24VC	0	1	1.96541500092	None	None	None	None	1
1.7	2015_Jul_21_1155	s	s	12	2	Capacity	20	RC	2	0	23VC	1	0	0.68202495575	-29.0	380.0	-25	377	1
1.7	2015_Jul_21_1155	s	s	12	2	Capacity	21	RC	1	0	23MC	0	1	1.23515701294	-301.0	-358.0	None	None	0
1.7	2015_Jul_21_1155	s	s	12	2	Capacity	22	ABS	2	0	24VC	0	1	2.32991600037	None	None	None	None	1
1.7	2015_Jul_21_1155	s	s	12	2	Capacity	23	ABS	1	0	24MC	0	1	2.87146282196	None	None	None	None	1
1.7	2015_Jul_21_1155	s	s	12	2	Capacity	24	RC	2	0	23VC	1	0	1.07046604156	304.0	-383.0	311	-378	1
1.7	2015_Jul_21_1155	s	s	12	2	Capacity	25	RC	2	0	23VC	1	0	0.677552938461	-327.0	-336.0	-339	-333	1
1.7	2015_Jul_21_1155	s	s	12	2	Capacity	26	ABS	1	0	24MC	0	1	1.47995901108	None	None	None	None	1
1.7	2015_Jul_21_1155	s	s	12	2	Capacity	27	ABS	2	0	24VC	0	1	1.32407784462	None	None	None	None	1
1.7	2015_Jul_21_1155	s	s	12	2	Capacity	28	RC	1	0	23MC	1	0	1.33660411835	204.0	-98.0	209	-101	1
1.7	2015_Jul_21_1155	s	s	12	2	Capacity	29	RC	1	0	23MC	1	0	2.43592596054	447.0	126.0	445	126	1
1.7	2015_Jul_21_1155	s	s	12	2	Capacity	30	ABS	1	0	24MC	0	1	1.184664011	None	None	None	None	1
1.7	2015_Jul_21_1155	s	s	12	2	Capacity	31	RC	2	0	23VC	1	0	0.705560922623	-413.0	-257.0	-406	-255	1
1.7	2015_Jul_21_1155	s	s	12	2	Capacity	32	ABS	2	0	24VC	0	1	1.12430500984	None	None	None	None	1
1.7	2015_Jul_21_1155	s	s	12	2	Capacity	33	ABS	2	0	24VC	0	1	0.912434101105	None	None	None	None	1
1.7	2015_Jul_21_1155	s	s	12	2	Capacity	34	RC	1	0	23MC	1	0	1.32690000534	-426.0	-35.0	-433	-33	1
1.7	2015_Jul_21_1155	s	s	12	2	Capacity	35	ABS	1	0	24MC	0	1	1.9478058815	None	None	None	None	1
1.7	2015_Jul_21_1155	s	s	12	2	Capacity	36	RC	2	0	23VC	1	0	0.646843910217	161.0	274.0	165	275	1
1.7	2015_Jul_21_1155	s	s	12	2	Capacity	37	ABS	1	0	24MC	0	1	1.88986802101	None	None	None	None	1
1.7	2015_Jul_21_1155	s	s	12	2	Capacity	38	RC	1	0	23MC	1	0	0.854952096939	-75.0	149.0	-72	148	1
1.7	2015_Jul_21_1155	s	s	12	2	Capacity	39	ABS	2	0	24VC	0	1	0.74973487854	None	None	None	None	1
1.7	2015_Jul_21_1155	s	s	12	2	Capacity	40	RC	2	0	23VC	1	0	1.14798498154	228.0	322.0	228	331	1
1.7	2015_Jul_21_1155	s	s	12	2	Capacity	41	RC	2	0	23VC	1	0	0.573077201843	-186.0	-1.0	-184	0	1
1.7	2015_Jul_21_1155	s	s	12	2	Capacity	42	ABS	2	0	24VC	0	1	0.642227888107	None	None	None	None	1
1.7	2015_Jul_21_1155	s	s	12	2	Capacity	43	ABS	1	0	24MC	0	1	1.12644004822	None	None	None	None	1
1.7	2015_Jul_21_1155	s	s	12	2	Capacity	44	RC	1	0	23MC	0	1	1.12939691544	182.0	-271.0	None	None	0
1.7	2015_Jul_21_1155	s	s	12	2	Capacity	45	ABS	2	0	24VC	0	1	0.835093021393	None	None	None	None	1
1.7	2015_Jul_21_1155	s	s	12	2	Capacity	46	RC	1	0	23MC	1	0	1.34104514122	-148.0	181.0	-144	178	1
1.7	2015_Jul_21_1155	s	s	12	2	Capacity	47	RC	2	0	23VC	1	0	0.608799934387	413.0	132.0	416	127	1
1.7	2015_Jul_21_1155	s	s	12	2	Capacity	48	ABS	1	0	24MC	0	1	1.70613718033	None	None	None	None	1
1.7	2015_Jul_21_1155	s	s	12	2	Capacity	49	ABS	2	0	24VC	0	1	1.51515293121	None	None	None	None	1
1.7	2015_Jul_21_1155	s	s	12	2	Capacity	50	RC	1	0	23MC	1	0	1.26301598549	333.0	51.0	342	56	1
1.7	2015_Jul_21_1155	s	s	12	2	Capacity	51	RC	2	0	23VC	1	0	1.0939810276	-235.0	240.0	-223	245	1
1.7	2015_Jul_21_1155	s	s	12	2	Capacity	52	ABS	1	0	24MC	1	0	9.21586894989	None	None	-135	182	0
1.7	2015_Jul_21_1155	s	s	12	2	Capacity	53	RC	1	0	23MC	1	0	1.07053589821	-1.0	-227.0	-4	-241	1
1.7	2015_Jul_21_1155	s	s	12	2	Capacity	54	ABS	2	0	24VC	0	1	1.90631103516	None	None	None	None	1
1.7	2015_Jul_21_1155	s	s	12	2	Capacity	55	ABS	1	0	24MC	0	1	1.23524594307	None	None	None	None	1
1.7	2015_Jul_21_1155	s	s	12	2	Capacity	56	RC	2	0	23VC	1	0	0.705639123917	-456.0	-75.0	-459	-76	1
1.7	2015_Jul_21_1155	s	s	12	2	Capacity	57	RC	1	0	23MC	1	0	0.617933034897	41.0	35.0	41	27	1
1.7	2015_Jul_21_1155	s	s	12	2	Capacity	58	ABS	1	0	24MC	0	1	1.35868000984	None	None	None	None	1
1.7	2015_Jul_21_1155	s	s	12	2	Capacity	59	RC	2	0	23VC	1	0	0.688760042191	-192.0	-105.0	-184	-100	1
1.7	2015_Jul_21_1155	s	s	12	2	Capacity	60	ABS	2	0	24VC	0	1	4.69250392914	None	None	None	None	1
1.7	2015_Jul_21_1155	s	s	12	2	Capacity	61	RC	1	0	23MC	0	1	0.783231019974	-535.0	322.0	None	None	0
1.7	2015_Jul_21_1155	s	s	12	2	Capacity	62	ABS	1	0	24MC	0	1	3.64233016968	None	None	None	None	1
1.7	2015_Jul_21_1155	s	s	12	2	Capacity	63	RC	2	0	23VC	1	0	0.528906106949	-299.0	-45.0	-314	-39	1
1.7	2015_Jul_21_1155	s	s	12	2	Capacity	64	ABS	2	0	24VC	0	1	0.697540998459	None	None	None	None	1
1.7	2015_Jul_21_1155	s	s	12	2	Capacity	65	ABS	2	0	24VC	0	1	0.865635156631	None	None	None	None	1
1.7	2015_Jul_21_1155	s	s	12	2	Capacity	66	RC	2	0	23VC	1	0	0.776611089706	72.0	304.0	69	297	1
1.7	2015_Jul_21_1155	s	s	12	2	Capacity	67	ABS	1	0	24MC	0	1	5.50314903259	None	None	None	None	1
1.7	2015_Jul_21_1155	s	s	12	2	Capacity	68	RC	1	0	23MC	1	0	1.58030796051	-524.0	-84.0	-512	-79	1
1.7	2015_Jul_21_1155	s	s	12	2	Capacity	69	ABS	1	0	24MC	0	1	3.37450504303	None	None	None	None	1
1.7	2015_Jul_21_1155	s	s	12	2	Capacity	70	ABS	2	0	24VC	0	1	1.03228807449	None	None	None	None	1
1.7	2015_Jul_21_1155	s	s	12	2	Capacity	71	RC	2	0	23VC	1	0	0.540725946426	-246.0	293.0	-236	294	1
1.7	2015_Jul_21_1155	s	s	12	2	Capacity	72	RC	1	0	23MC	0	1	0.917366981506	452.0	-356.0	None	None	0
1.7	2015_Jul_21_1155	s	s	12	2	Capacity	73	RC	2	0	23VC	1	0	0.523733139038	-24.0	-280.0	-32	-278	1
1.7	2015_Jul_21_1155	s	s	12	2	Capacity	74	RC	1	0	23MC	1	0	1.00527095795	-236.0	154.0	-235	162	1
1.7	2015_Jul_21_1155	s	s	12	2	Capacity	75	ABS	2	0	24VC	0	1	1.36108899117	None	None	None	None	1
1.7	2015_Jul_21_1155	s	s	12	2	Capacity	76	ABS	1	0	24MC	0	1	1.23272299767	None	None	None	None	1
1.7	2015_Jul_21_1155	s	s	12	2	Capacity	77	RC	1	0	23MC	1	0	0.799691915512	368.0	-152.0	367	-151	1
1.7	2015_Jul_21_1155	s	s	12	2	Capacity	78	ABS	1	0	24MC	0	1	1.327023983	None	None	None	None	1
1.7	2015_Jul_21_1155	s	s	12	2	Capacity	79	RC	2	0	23VC	1	0	0.605515003204	286.0	345.0	281	354	1
1.7	2015_Jul_21_1155	s	s	12	2	Capacity	80	ABS	2	0	24VC	0	1	0.615159988403	None	None	None	None	1
1.7	2015_Jul_21_1155	s	s	12	2	Capacity	81	ABS	1	0	24MC	0	1	2.232172966	None	None	None	None	1
1.7	2015_Jul_21_1155	s	s	12	2	Capacity	82	ABS	2	0	24VC	0	1	2.6830599308	None	None	None	None	1
1.7	2015_Jul_21_1155	s	s	12	2	Capacity	83	RC	2	0	23VC	1	0	0.619555950165	-63.0	376.0	-65	376	1
1.7	2015_Jul_21_1155	s	s	12	2	Capacity	84	RC	1	0	23MC	0	1	0.9295129776	289.0	-96.0	None	None	0
1.7	2015_Jul_21_1155	s	s	12	2	Capacity	85	RC	2	0	23VC	1	0	0.465543985367	-454.0	-133.0	-451	-127	1
1.7	2015_Jul_21_1155	s	s	12	2	Capacity	86	RC	1	0	23MC	0	1	0.905735969543	-82.0	410.0	None	None	0
1.7	2015_Jul_21_1155	s	s	12	2	Capacity	87	ABS	1	0	24MC	0	1	1.04686307907	None	None	None	None	1
1.7	2015_Jul_21_1155	s	s	12	2	Capacity	88	ABS	2	0	24VC	0	1	0.670336008072	None	None	None	None	1
1.7	2015_Jul_21_1155	s	s	12	2	Capacity	89	RC	1	0	23MC	1	0	0.906129837036	55.0	52.0	62	46	1
1.7	2015_Jul_21_1155	s	s	12	2	Capacity	90	ABS	2	0	24VC	0	1	0.952797889709	None	None	None	None	1
1.7	2015_Jul_21_1155	s	s	12	2	Capacity	91	RC	2	0	23VC	1	0	0.811513900757	526.0	229.0	534	226	1
1.7	2015_Jul_21_1155	s	s	12	2	Capacity	92	ABS	1	0	24MC	0	1	1.16469597816	None	None	None	None	1
1.7	2015_Jul_21_1155	s	s	12	2	SIC	1	RC	1	0	23MC	1	0	2.98916912079	-291.0	-355.0	-286	-358	1
1.7	2015_Jul_21_1155	s	s	12	2	SIC	2	ABS	2	1	24VO	0	1	1.40005612373	None	None	None	None	1
1.7	2015_Jul_21_1155	s	s	12	2	SIC	3	RC	1	2	23MD	1	0	0.68187713623	-83.0	-156.0	-76	-158	1
1.7	2015_Jul_21_1155	s	s	12	2	SIC	4	RC	2	2	23VD	1	0	0.69392490387	441.0	-325.0	439	-329	1
1.7	2015_Jul_21_1155	s	s	12	2	SIC	5	ABS	0	1	24RO	0	1	3.91894006729	None	None	None	None	1
1.7	2015_Jul_21_1155	s	s	12	2	SIC	6	RC	1	1	23MO	1	0	1.40669512749	-343.0	-370.0	-345	-367	1
1.7	2015_Jul_21_1155	s	s	12	2	SIC	7	RC	2	0	23VC	1	0	0.535434007645	-331.0	-130.0	-333	-123	1
1.7	2015_Jul_21_1155	s	s	12	2	SIC	8	ABS	1	1	24MO	1	0	2.77723002434	None	None	-104	81	0
1.7	2015_Jul_21_1155	s	s	12	2	SIC	9	ABS	0	2	24RD	0	1	0.811574935913	None	None	None	None	1
1.7	2015_Jul_21_1155	s	s	12	2	SIC	10	ABS	2	2	24VD	0	1	0.823307991028	None	None	None	None	1
1.7	2015_Jul_21_1155	s	s	12	2	SIC	11	RC	2	1	23VO	1	0	0.558933019638	-519.0	38.0	-515	34	1
1.7	2015_Jul_21_1155	s	s	12	2	SIC	12	RC	0	1	23RO	1	0	3.46601104736	100.0	188.0	106	188	1
1.7	2015_Jul_21_1155	s	s	12	2	SIC	13	ABS	1	2	24MD	0	1	1.24014496803	None	None	None	None	1
1.7	2015_Jul_21_1155	s	s	12	2	SIC	14	ABS	2	0	24VC	0	1	1.07052898407	None	None	None	None	1
1.7	2015_Jul_21_1155	s	s	12	2	SIC	15	ABS	1	0	24MC	0	1	2.24401497841	None	None	None	None	1
1.7	2015_Jul_21_1155	s	s	12	2	SIC	16	RC	0	2	23RD	1	0	0.62854719162	86.0	-346.0	89	-341	1
1.7	2015_Jul_21_1155	s	s	12	2	SIC	17	RC	2	0	23VC	1	0	0.623040914536	344.0	200.0	345	199	1
1.7	2015_Jul_21_1155	s	s	12	2	SIC	18	ABS	2	1	24VO	0	1	0.717405796051	None	None	None	None	1
1.7	2015_Jul_21_1155	s	s	12	2	SIC	19	RC	1	2	23MD	1	0	0.941013097763	-79.0	-391.0	-67	-384	1
1.7	2015_Jul_21_1155	s	s	12	2	SIC	20	RC	2	2	23VD	1	0	0.606297016144	145.0	362.0	145	368	1
1.7	2015_Jul_21_1155	s	s	12	2	SIC	21	ABS	1	0	24MC	0	1	1.06831598282	None	None	None	None	1
1.7	2015_Jul_21_1155	s	s	12	2	SIC	22	RC	2	1	23VO	1	0	0.748287916183	-90.0	-242.0	-86	-243	1
1.7	2015_Jul_21_1155	s	s	12	2	SIC	23	RC	0	1	23RO	1	0	3.15121984482	424.0	30.0	420	37	1
1.7	2015_Jul_21_1155	s	s	12	2	SIC	24	RC	0	2	23RD	1	0	0.693773984909	-140.0	-333.0	-139	-324	1
1.7	2015_Jul_21_1155	s	s	12	2	SIC	25	ABS	1	2	24MD	0	1	0.65852189064	None	None	None	None	1
1.7	2015_Jul_21_1155	s	s	12	2	SIC	26	ABS	1	1	24MO	1	0	4.47882699966	None	None	-316	185	0
1.7	2015_Jul_21_1155	s	s	12	2	SIC	27	ABS	0	1	24RO	0	1	4.45738005638	None	None	None	None	1
1.7	2015_Jul_21_1155	s	s	12	2	SIC	28	RC	1	1	23MO	1	0	0.991822957993	251.0	175.0	256	171	1
1.7	2015_Jul_21_1155	s	s	12	2	SIC	29	ABS	2	2	24VD	0	1	0.678294897079	None	None	None	None	1
1.7	2015_Jul_21_1155	s	s	12	2	SIC	30	RC	1	0	23MC	1	0	1.80711317062	374.0	111.0	375	112	1
1.7	2015_Jul_21_1155	s	s	12	2	SIC	31	ABS	2	0	24VC	0	1	0.747257947922	None	None	None	None	1
1.7	2015_Jul_21_1155	s	s	12	2	SIC	32	ABS	0	2	24RD	0	1	1.70601701736	None	None	None	None	1
1.7	2015_Jul_21_1155	s	s	12	2	SIC	33	ABS	1	0	24MC	0	1	4.09052181244	None	None	None	None	1
1.7	2015_Jul_21_1155	s	s	12	2	SIC	34	ABS	2	2	24VD	0	1	0.776278972626	None	None	None	None	1
1.7	2015_Jul_21_1155	s	s	12	2	SIC	35	RC	1	2	23MD	1	0	0.617842197418	-61.0	50.0	-56	51	1
1.7	2015_Jul_21_1155	s	s	12	2	SIC	36	RC	2	0	23VC	1	0	0.646806955338	527.0	71.0	535	68	1
1.7	2015_Jul_21_1155	s	s	12	2	SIC	37	ABS	0	2	24RD	0	1	1.18825101852	None	None	None	None	1
1.7	2015_Jul_21_1155	s	s	12	2	SIC	38	RC	0	2	23RD	1	0	0.58427977562	200.0	-109.0	192	-111	1
1.7	2015_Jul_21_1155	s	s	12	2	SIC	39	ABS	1	1	24MO	0	1	2.90676498413	None	None	None	None	1
1.7	2015_Jul_21_1155	s	s	12	2	SIC	40	RC	2	2	23VD	1	0	0.905613183975	-439.0	213.0	-447	211	1
1.7	2015_Jul_21_1155	s	s	12	2	SIC	41	ABS	2	1	24VO	0	1	0.69363284111	None	None	None	None	1
1.7	2015_Jul_21_1155	s	s	12	2	SIC	42	ABS	1	2	24MD	0	1	3.25421309471	None	None	None	None	1
1.7	2015_Jul_21_1155	s	s	12	2	SIC	43	ABS	2	0	24VC	0	1	1.63039588928	None	None	None	None	1
1.7	2015_Jul_21_1155	s	s	12	2	SIC	44	RC	0	1	23RO	1	0	1.06481814384	-105.0	249.0	-110	241	1
1.7	2015_Jul_21_1155	s	s	12	2	SIC	45	ABS	0	1	24RO	0	1	4.44566297531	None	None	None	None	1
1.7	2015_Jul_21_1155	s	s	12	2	SIC	46	RC	1	0	23MC	1	0	0.901846885681	-282.0	280.0	-281	281	1
1.7	2015_Jul_21_1155	s	s	12	2	SIC	47	RC	2	1	23VO	1	0	0.576101064682	237.0	-403.0	238	-401	1
1.7	2015_Jul_21_1155	s	s	12	2	SIC	48	RC	1	1	23MO	1	0	2.77711796761	-35.0	-326.0	-32	-332	1
1.7	2015_Jul_21_1155	s	s	12	2	SIC	49	RC	0	1	23RO	1	0	1.51566100121	-20.0	118.0	-19	125	1
1.7	2015_Jul_21_1155	s	s	12	2	SIC	50	RC	2	0	23VC	1	0	0.564288854599	-108.0	-40.0	-99	-33	1
1.7	2015_Jul_21_1155	s	s	12	2	SIC	51	ABS	0	1	24RO	0	1	5.20734715462	None	None	None	None	1
1.7	2015_Jul_21_1155	s	s	12	2	SIC	52	ABS	1	1	24MO	0	1	2.97433304787	None	None	None	None	1
1.7	2015_Jul_21_1155	s	s	12	2	SIC	53	RC	1	1	23MO	1	0	1.22086191177	-94.0	-159.0	-90	-158	1
1.7	2015_Jul_21_1155	s	s	12	2	SIC	54	RC	1	2	23MD	1	0	0.547347068787	-106.0	44.0	-111	41	1
1.7	2015_Jul_21_1155	s	s	12	2	SIC	55	ABS	1	2	24MD	0	1	1.6552760601	None	None	None	None	1
1.7	2015_Jul_21_1155	s	s	12	2	SIC	56	ABS	0	2	24RD	0	1	1.63563489914	None	None	None	None	1
1.7	2015_Jul_21_1155	s	s	12	2	SIC	57	RC	0	2	23RD	1	0	0.726673126221	-452.0	-152.0	-456	-157	1
1.7	2015_Jul_21_1155	s	s	12	2	SIC	58	RC	1	0	23MC	1	0	1.6826210022	8.0	-127.0	11	-130	1
1.7	2015_Jul_21_1155	s	s	12	2	SIC	59	ABS	2	1	24VO	0	1	1.05868983269	None	None	None	None	1
1.7	2015_Jul_21_1155	s	s	12	2	SIC	60	ABS	2	0	24VC	0	1	1.121270895	None	None	None	None	1
1.7	2015_Jul_21_1155	s	s	12	2	SIC	61	RC	2	1	23VO	1	0	0.734786987305	-472.0	348.0	-476	342	1
1.7	2015_Jul_21_1155	s	s	12	2	SIC	62	RC	2	2	23VD	1	0	0.712884902954	455.0	22.0	455	22	1
1.7	2015_Jul_21_1155	s	s	12	2	SIC	63	ABS	2	2	24VD	0	1	0.670096874237	None	None	None	None	1
1.7	2015_Jul_21_1155	s	s	12	2	SIC	64	ABS	1	0	24MC	0	1	1.72961902618	None	None	None	None	1
1.7	2015_Jul_21_1155	s	s	12	2	SIC	65	RC	1	2	23MD	1	0	0.823306083679	198.0	-243.0	196	-249	1
1.7	2015_Jul_21_1155	s	s	12	2	SIC	66	ABS	2	1	24VO	0	1	1.38286590576	None	None	None	None	1
1.7	2015_Jul_21_1155	s	s	12	2	SIC	67	ABS	0	1	24RO	1	0	6.23792600632	None	None	-56	81	0
1.7	2015_Jul_21_1155	s	s	12	2	SIC	68	RC	1	0	23MC	1	0	2.16520500183	290.0	405.0	292	401	1
1.7	2015_Jul_21_1155	s	s	12	2	SIC	69	RC	0	2	23RD	1	0	0.819536924362	-355.0	351.0	-350	353	1
1.7	2015_Jul_21_1155	s	s	12	2	SIC	70	ABS	0	2	24RD	0	1	1.32626795769	None	None	None	None	1
1.7	2015_Jul_21_1155	s	s	12	2	SIC	71	RC	2	1	23VO	1	0	0.528923988342	374.0	-196.0	375	-192	1
1.7	2015_Jul_21_1155	s	s	12	2	SIC	72	ABS	1	0	24MC	0	1	3.42460989952	None	None	None	None	1
1.7	2015_Jul_21_1155	s	s	12	2	SIC	73	ABS	2	0	24VC	0	1	0.808161973953	None	None	None	None	1
1.7	2015_Jul_21_1155	s	s	12	2	SIC	74	ABS	1	1	24MO	0	1	3.24815297127	None	None	None	None	1
1.7	2015_Jul_21_1155	s	s	12	2	SIC	75	RC	0	1	23RO	1	0	2.93722295761	-70.0	-308.0	-64	-307	1
1.7	2015_Jul_21_1155	s	s	12	2	SIC	76	ABS	2	2	24VD	0	1	1.65467905998	None	None	None	None	1
1.7	2015_Jul_21_1155	s	s	12	2	SIC	77	RC	2	0	23VC	1	0	0.599598884583	96.0	380.0	104	384	1
1.7	2015_Jul_21_1155	s	s	12	2	SIC	78	ABS	1	2	24MD	0	1	0.779895067215	None	None	None	None	1
1.7	2015_Jul_21_1155	s	s	12	2	SIC	79	RC	1	1	23MO	1	0	0.917551994324	23.0	218.0	30	220	1
1.7	2015_Jul_21_1155	s	s	12	2	SIC	80	RC	2	2	23VD	1	0	0.653470039368	-275.0	-325.0	-270	-330	1
1.7	2015_Jul_21_1155	s	s	12	2	SIC	81	RC	2	0	23VC	1	0	0.740909099579	-19.0	329.0	-12	328	1
1.7	2015_Jul_21_1155	s	s	12	2	SIC	82	RC	0	2	23RD	1	0	1.20622396469	-297.0	337.0	-291	341	1
1.7	2015_Jul_21_1155	s	s	12	2	SIC	83	ABS	2	1	24VO	0	1	1.75074100494	None	None	None	None	1
1.7	2015_Jul_21_1155	s	s	12	2	SIC	84	ABS	1	0	24MC	0	1	5.37591385841	None	None	None	None	1
1.7	2015_Jul_21_1155	s	s	12	2	SIC	85	RC	2	2	23VD	1	0	0.83541893959	-139.0	221.0	-130	221	1
1.7	2015_Jul_21_1155	s	s	12	2	SIC	86	ABS	1	1	24MO	0	1	5.59045600891	None	None	None	None	1
1.7	2015_Jul_21_1155	s	s	12	2	SIC	87	RC	1	2	23MD	1	0	1.18007898331	139.0	378.0	147	375	1
1.7	2015_Jul_21_1155	s	s	12	2	SIC	88	ABS	0	1	24RO	0	1	3.81032896042	None	None	None	None	1
1.7	2015_Jul_21_1155	s	s	12	2	SIC	89	RC	1	1	23MO	1	0	1.0199508667	-133.0	376.0	-132	378	1
1.7	2015_Jul_21_1155	s	s	12	2	SIC	90	RC	2	1	23VO	1	0	0.596359968185	-351.0	152.0	-346	152	1
1.7	2015_Jul_21_1155	s	s	12	2	SIC	91	ABS	0	2	24RD	0	1	1.27663898468	None	None	None	None	1
1.7	2015_Jul_21_1155	s	s	12	2	SIC	92	ABS	2	0	24VC	0	1	0.678999185562	None	None	None	None	1
1.7	2015_Jul_21_1155	s	s	12	2	SIC	93	ABS	1	2	24MD	0	1	1.23517990112	None	None	None	None	1
1.7	2015_Jul_21_1155	s	s	12	2	SIC	94	RC	0	1	23RO	1	0	2.21227312088	116.0	-205.0	118	-200	1
1.7	2015_Jul_21_1155	s	s	12	2	SIC	95	ABS	2	2	24VD	0	1	0.911870956421	None	None	None	None	1
1.7	2015_Jul_21_1155	s	s	12	2	SIC	96	RC	1	0	23MC	1	0	2.03566098213	531.0	394.0	532	399	1
1.7	2015_Jul_21_1155	s	s	12	2	SIC	97	RC	1	0	23MC	1	0	0.705564975739	-4.0	164.0	-2	169	1
1.7	2015_Jul_21_1155	s	s	12	2	SIC	98	RC	1	2	23MD	1	0	0.705613136292	135.0	-36.0	124	-35	1
1.7	2015_Jul_21_1155	s	s	12	2	SIC	99	ABS	2	2	24VD	0	1	0.773489952087	None	None	None	None	1
1.7	2015_Jul_21_1155	s	s	12	2	SIC	100	RC	2	1	23VO	1	0	0.6114590168	-96.0	-379.0	-92	-377	1
1.7	2015_Jul_21_1155	s	s	12	2	SIC	101	RC	1	1	23MO	1	0	1.3120470047	507.0	291.0	497	295	1
1.7	2015_Jul_21_1155	s	s	12	2	SIC	102	RC	2	2	23VD	1	0	0.594004869461	35.0	247.0	30	248	1
1.7	2015_Jul_21_1155	s	s	12	2	SIC	103	RC	2	0	23VC	1	0	0.538228988647	-463.0	353.0	-456	358	1
1.7	2015_Jul_21_1155	s	s	12	2	SIC	104	ABS	2	1	24VO	0	1	1.02911996841	None	None	None	None	1
1.7	2015_Jul_21_1155	s	s	12	2	SIC	105	ABS	2	0	24VC	0	1	1.87703609467	None	None	None	None	1
1.7	2015_Jul_21_1155	s	s	12	2	SIC	106	ABS	1	0	24MC	0	1	1.92429494858	None	None	None	None	1
1.7	2015_Jul_21_1155	s	s	12	2	SIC	107	ABS	0	2	24RD	0	1	0.793782949448	None	None	None	None	1
1.7	2015_Jul_21_1155	s	s	12	2	SIC	108	RC	0	1	23RO	1	0	4.49577498436	-399.0	236.0	-408	235	1
1.7	2015_Jul_21_1155	s	s	12	2	SIC	109	ABS	0	1	24RO	0	1	7.92102479935	None	None	None	None	1
1.7	2015_Jul_21_1155	s	s	12	2	SIC	110	ABS	1	1	24MO	0	1	6.37642478943	None	None	None	None	1
1.7	2015_Jul_21_1155	s	s	12	2	SIC	111	ABS	1	2	24MD	0	1	1.09964799881	None	None	None	None	1
1.7	2015_Jul_21_1155	s	s	12	2	SIC	112	RC	0	2	23RD	1	0	1.11765599251	303.0	152.0	313	156	1
1.7	2015_Jul_21_1155	s	s	12	2	SIC	113	RC	1	0	23MC	1	0	1.38814306259	180.0	-143.0	180	-146	1
1.7	2015_Jul_21_1155	s	s	12	2	SIC	114	ABS	2	0	24VC	0	1	0.973347902298	None	None	None	None	1
1.7	2015_Jul_21_1155	s	s	12	2	SIC	115	RC	1	2	23MD	1	0	0.664798974991	-149.0	-342.0	-141	-333	1
1.7	2015_Jul_21_1155	s	s	12	2	SIC	116	ABS	1	1	24MO	0	1	4.72883296013	None	None	None	None	1
1.7	2015_Jul_21_1155	s	s	12	2	SIC	117	ABS	2	1	24VO	0	1	0.618111133575	None	None	None	None	1
1.7	2015_Jul_21_1155	s	s	12	2	SIC	118	RC	2	1	23VO	1	0	0.729136943817	49.0	399.0	54	404	1
1.7	2015_Jul_21_1155	s	s	12	2	SIC	119	ABS	0	1	24RO	0	1	3.86686420441	None	None	None	None	1
1.7	2015_Jul_21_1155	s	s	12	2	SIC	120	ABS	0	2	24RD	0	1	1.29048109055	None	None	None	None	1
1.7	2015_Jul_21_1155	s	s	12	2	SIC	121	ABS	2	2	24VD	0	1	0.712252140045	None	None	None	None	1
1.7	2015_Jul_21_1155	s	s	12	2	SIC	122	RC	0	2	23RD	1	0	1.41827487946	118.0	-407.0	121	-417	1
1.7	2015_Jul_21_1155	s	s	12	2	SIC	123	ABS	1	2	24MD	0	1	1.17822098732	None	None	None	None	1
1.7	2015_Jul_21_1155	s	s	12	2	SIC	124	ABS	1	0	24MC	0	1	2.30641007423	None	None	None	None	1
1.7	2015_Jul_21_1155	s	s	12	2	SIC	125	RC	2	2	23VD	1	0	0.835402011871	283.0	28.0	275	27	1
1.7	2015_Jul_21_1155	s	s	12	2	SIC	126	RC	1	1	23MO	1	0	2.77734303474	-190.0	255.0	-188	260	1
1.7	2015_Jul_21_1155	s	s	12	2	SIC	127	RC	2	0	23VC	1	0	0.984451055527	-240.0	-308.0	-235	-301	1
1.7	2015_Jul_21_1155	s	s	12	2	SIC	128	RC	0	1	23RO	0	1	3.40107917786	120.0	-228.0	None	None	0
1.7	2015_Jul_21_1155	s	s	12	2	SIC	129	RC	0	2	23RD	1	0	1.19660282135	-249.0	-313.0	-246	-317	1
1.7	2015_Jul_21_1155	s	s	12	2	SIC	130	RC	2	1	23VO	1	0	0.776262044907	276.0	335.0	283	334	1
1.7	2015_Jul_21_1155	s	s	12	2	SIC	131	ABS	2	0	24VC	0	1	1.48238897324	None	None	None	None	1
1.7	2015_Jul_21_1155	s	s	12	2	SIC	132	RC	1	2	23MD	1	0	0.605869054794	-3.0	-166.0	7	-168	1
1.7	2015_Jul_21_1155	s	s	12	2	SIC	133	RC	2	0	23VC	1	0	0.658485889435	389.0	311.0	393	310	1
1.7	2015_Jul_21_1155	s	s	12	2	SIC	134	RC	0	1	23RO	1	0	0.953069925308	334.0	234.0	28	77	0
1.7	2015_Jul_21_1155	s	s	12	2	SIC	135	ABS	0	2	24RD	0	1	1.71510219574	None	None	None	None	1
1.7	2015_Jul_21_1155	s	s	12	2	SIC	136	ABS	1	1	24MO	0	1	2.91852998734	None	None	None	None	1
1.7	2015_Jul_21_1155	s	s	12	2	SIC	137	RC	1	0	23MC	1	0	2.9601149559	-440.0	47.0	-437	47	1
1.7	2015_Jul_21_1155	s	s	12	2	SIC	138	RC	1	1	23MO	1	0	0.835026025772	10.0	-39.0	6	-43	1
1.7	2015_Jul_21_1155	s	s	12	2	SIC	139	ABS	2	2	24VD	0	1	0.776256084442	None	None	None	None	1
1.7	2015_Jul_21_1155	s	s	12	2	SIC	140	ABS	2	1	24VO	0	1	0.576174020767	None	None	None	None	1
1.7	2015_Jul_21_1155	s	s	12	2	SIC	141	ABS	1	0	24MC	0	1	2.3157351017	None	None	None	None	1
1.7	2015_Jul_21_1155	s	s	12	2	SIC	142	ABS	0	1	24RO	0	1	4.21699905396	None	None	None	None	1
1.7	2015_Jul_21_1155	s	s	12	2	SIC	143	RC	2	2	23VD	1	0	0.618814945221	-90.0	-230.0	-83	-224	1
1.7	2015_Jul_21_1155	s	s	12	2	SIC	144	ABS	1	2	24MD	0	1	1.20451307297	None	None	None	None	1
1.7	2015_Jul_21_1155	s	s	12	2	SIC	145	RC	1	1	23MO	1	0	1.34163784981	-58.0	-229.0	-60	-221	1
1.7	2015_Jul_21_1155	s	s	12	2	SIC	146	ABS	1	2	24MD	0	1	1.11746907234	None	None	None	None	1
1.7	2015_Jul_21_1155	s	s	12	2	SIC	147	RC	2	1	23VO	1	0	0.540766000748	158.0	-397.0	162	-395	1
1.7	2015_Jul_21_1155	s	s	12	2	SIC	148	ABS	1	1	24MO	0	1	1.80026507378	None	None	None	None	1
1.7	2015_Jul_21_1155	s	s	12	2	SIC	149	RC	0	1	23RO	1	0	4.11910104752	323.0	318.0	321	322	1
1.7	2015_Jul_21_1155	s	s	12	2	SIC	150	ABS	0	2	24RD	0	1	0.806711912155	None	None	None	None	1
1.7	2015_Jul_21_1155	s	s	12	2	SIC	151	ABS	1	0	24MC	0	1	2.23220801353	None	None	None	None	1
1.7	2015_Jul_21_1155	s	s	12	2	SIC	152	ABS	0	1	24RO	0	1	4.11439394951	None	None	None	None	1
1.7	2015_Jul_21_1155	s	s	12	2	SIC	153	RC	2	2	23VD	1	0	0.729236125946	463.0	324.0	457	320	1
1.7	2015_Jul_21_1155	s	s	12	2	SIC	154	ABS	2	0	24VC	0	1	0.564722061157	None	None	None	None	1
1.7	2015_Jul_21_1155	s	s	12	2	SIC	155	ABS	2	1	24VO	0	1	0.502796888351	None	None	None	None	1
1.7	2015_Jul_21_1155	s	s	12	2	SIC	156	RC	1	0	23MC	1	0	2.61243104935	-327.0	-227.0	-326	-220	1
1.7	2015_Jul_21_1155	s	s	12	2	SIC	157	RC	2	0	23VC	1	0	0.670244932175	287.0	207.0	286	206	1
1.7	2015_Jul_21_1155	s	s	12	2	SIC	158	ABS	2	2	24VD	0	1	0.676964998245	None	None	None	None	1
1.7	2015_Jul_21_1155	s	s	12	2	SIC	159	RC	0	2	23RD	1	0	0.800002098083	518.0	266.0	520	268	1
1.7	2015_Jul_21_1155	s	s	12	2	SIC	160	RC	1	2	23MD	1	0	0.522346973419	-109.0	103.0	-104	106	1
1.7	2015_Jul_21_1155	s	s	12	2	SIC	161	RC	1	1	23MO	1	0	3.01258301735	194.0	-338.0	198	-331	1
1.7	2015_Jul_21_1155	s	s	12	2	SIC	162	RC	0	1	23RO	1	0	3.236369133	407.0	307.0	405	305	1
1.7	2015_Jul_21_1155	s	s	12	2	SIC	163	ABS	2	1	24VO	0	1	0.632073879242	None	None	None	None	1
1.7	2015_Jul_21_1155	s	s	12	2	SIC	164	ABS	1	1	24MO	0	1	1.90056705475	None	None	None	None	1
1.7	2015_Jul_21_1155	s	s	12	2	SIC	165	RC	1	2	23MD	1	0	0.753013849258	283.0	17.0	283	19	1
1.7	2015_Jul_21_1155	s	s	12	2	SIC	166	RC	2	0	23VC	1	0	0.635082960129	522.0	165.0	514	168	1
1.7	2015_Jul_21_1155	s	s	12	2	SIC	167	RC	0	2	23RD	1	0	0.618311882019	179.0	-227.0	177	-222	1
1.7	2015_Jul_21_1155	s	s	12	2	SIC	168	ABS	2	0	24VC	0	1	0.760838031769	None	None	None	None	1
1.7	2015_Jul_21_1155	s	s	12	2	SIC	169	ABS	1	0	24MC	0	1	5.53166699409	None	None	None	None	1
1.7	2015_Jul_21_1155	s	s	12	2	SIC	170	RC	2	2	23VD	1	0	0.830508947372	344.0	-310.0	351	-309	1
1.7	2015_Jul_21_1155	s	s	12	2	SIC	171	RC	2	1	23VO	1	0	0.641850948334	272.0	-285.0	273	-290	1
1.7	2015_Jul_21_1155	s	s	12	2	SIC	172	ABS	2	2	24VD	0	1	2.29465508461	None	None	None	None	1
1.7	2015_Jul_21_1155	s	s	12	2	SIC	173	ABS	0	2	24RD	0	1	1.03231310844	None	None	None	None	1
1.7	2015_Jul_21_1155	s	s	12	2	SIC	174	RC	1	0	23MC	1	0	1.10592508316	-371.0	256.0	-375	259	1
1.7	2015_Jul_21_1155	s	s	12	2	SIC	175	ABS	1	2	24MD	0	1	0.481932878494	None	None	None	None	1
1.7	2015_Jul_21_1155	s	s	12	2	SIC	176	ABS	0	1	24RO	0	1	4.66428089142	None	None	None	None	1
1.7	2015_Jul_21_1155	s	s	12	2	SIC	177	ABS	1	1	24MO	0	1	1.63239789009	None	None	None	None	1
1.7	2015_Jul_21_1155	s	s	12	2	SIC	178	RC	2	0	23VC	1	0	0.679090976715	266.0	52.0	266	55	1
1.7	2015_Jul_21_1155	s	s	12	2	SIC	179	RC	2	2	23VD	1	0	0.544445037842	177.0	298.0	176	298	1
1.7	2015_Jul_21_1155	s	s	12	2	SIC	180	RC	1	1	23MO	1	0	0.771595001221	38.0	364.0	37	364	1
1.7	2015_Jul_21_1155	s	s	12	2	SIC	181	RC	1	2	23MD	1	0	0.805804014206	-74.0	-102.0	-83	-100	1
1.7	2015_Jul_21_1155	s	s	12	2	SIC	182	ABS	1	2	24MD	0	1	1.03891086578	None	None	None	None	1
1.7	2015_Jul_21_1155	s	s	12	2	SIC	183	ABS	1	0	24MC	0	1	2.0294752121	None	None	None	None	1
1.7	2015_Jul_21_1155	s	s	12	2	SIC	184	RC	0	1	23RO	1	0	2.68927598	-342.0	134.0	-332	134	1
1.7	2015_Jul_21_1155	s	s	12	2	SIC	185	ABS	2	2	24VD	0	1	0.58513212204	None	None	None	None	1
1.7	2015_Jul_21_1155	s	s	12	2	SIC	186	ABS	0	1	24RO	0	1	4.10480117798	None	None	None	None	1
1.7	2015_Jul_21_1155	s	s	12	2	SIC	187	ABS	2	0	24VC	0	1	0.552666902542	None	None	None	None	1
1.7	2015_Jul_21_1155	s	s	12	2	SIC	188	ABS	0	2	24RD	0	1	1.44723796844	None	None	None	None	1
1.7	2015_Jul_21_1155	s	s	12	2	SIC	189	RC	1	0	23MC	1	0	4.64879703522	-420.0	-275.0	-407	-267	1
1.7	2015_Jul_21_1155	s	s	12	2	SIC	190	RC	0	2	23RD	1	0	0.576179981232	-337.0	-302.0	-335	-305	1
1.7	2015_Jul_21_1155	s	s	12	2	SIC	191	RC	2	1	23VO	1	0	0.505566835403	-345.0	137.0	-338	143	1
1.7	2015_Jul_21_1155	s	s	12	2	SIC	192	ABS	2	1	24VO	0	1	0.784888982773	None	None	None	None	1
1.7	2015_Jul_21_1155	s	s	12	2	SIC	193	ABS	0	2	24RD	0	1	1.87651801109	None	None	None	None	1
1.7	2015_Jul_21_1155	s	s	12	2	SIC	194	ABS	0	1	24RO	0	1	6.88157200813	None	None	None	None	1
1.7	2015_Jul_21_1155	s	s	12	2	SIC	195	RC	2	2	23VD	1	0	0.608793973923	213.0	371.0	210	375	1
1.7	2015_Jul_21_1155	s	s	12	2	SIC	196	ABS	2	1	24VO	0	1	0.658489942551	None	None	None	None	1
1.7	2015_Jul_21_1155	s	s	12	2	SIC	197	ABS	2	0	24VC	0	1	0.631672143936	None	None	None	None	1
1.7	2015_Jul_21_1155	s	s	12	2	SIC	198	RC	0	1	23RO	0	1	3.86857509613	373.0	-356.0	None	None	0
1.7	2015_Jul_21_1155	s	s	12	2	SIC	199	RC	2	1	23VO	1	0	2.11817908287	520.0	-315.0	505	-308	1
1.7	2015_Jul_21_1155	s	s	12	2	SIC	200	ABS	2	2	24VD	0	1	0.560172080994	None	None	None	None	1
1.7	2015_Jul_21_1155	s	s	12	2	SIC	201	RC	1	1	23MO	1	0	1.1059088707	-52.0	373.0	-53	373	1
1.7	2015_Jul_21_1155	s	s	12	2	SIC	202	RC	2	0	23VC	1	0	0.599738836288	380.0	156.0	389	157	1
1.7	2015_Jul_21_1155	s	s	12	2	SIC	203	ABS	1	2	24MD	0	1	4.81342196465	None	None	None	None	1
1.7	2015_Jul_21_1155	s	s	12	2	SIC	204	RC	1	0	23MC	1	0	1.43545818329	306.0	383.0	315	382	1
1.7	2015_Jul_21_1155	s	s	12	2	SIC	205	ABS	1	0	24MC	0	1	1.11512899399	None	None	None	None	1
1.7	2015_Jul_21_1155	s	s	12	2	SIC	206	RC	1	2	23MD	1	0	0.713188171387	413.0	-393.0	415	-389	1
1.7	2015_Jul_21_1155	s	s	12	2	SIC	207	RC	0	2	23RD	1	0	0.646902084351	137.0	-37.0	139	-35	1
1.7	2015_Jul_21_1155	s	s	12	2	SIC	208	ABS	1	1	24MO	0	1	4.26692295074	None	None	None	None	1
1.7	2015_Jul_21_1155	s	s	12	2	SIC	209	ABS	1	0	24MC	0	1	4.65495204926	None	None	None	None	1
1.7	2015_Jul_21_1155	s	s	12	2	SIC	210	ABS	0	1	24RO	0	1	5.63744592667	None	None	None	None	1
1.7	2015_Jul_21_1155	s	s	12	2	SIC	211	RC	1	2	23MD	1	0	1.51229691505	274.0	-134.0	285	-129	1
1.7	2015_Jul_21_1155	s	s	12	2	SIC	212	ABS	0	2	24RD	0	1	0.773465156555	None	None	None	None	1
1.7	2015_Jul_21_1155	s	s	12	2	SIC	213	RC	2	0	23VC	1	0	1.38241100311	436.0	110.0	440	113	1
1.7	2015_Jul_21_1155	s	s	12	2	SIC	214	RC	2	1	23VO	1	0	0.572705984116	68.0	-288.0	72	-280	1
1.7	2015_Jul_21_1155	s	s	12	2	SIC	215	ABS	2	2	24VD	0	1	0.540867805481	None	None	None	None	1
1.7	2015_Jul_21_1155	s	s	12	2	SIC	216	ABS	2	0	24VC	0	1	0.677063941956	None	None	None	None	1
1.7	2015_Jul_21_1155	s	s	12	2	SIC	217	RC	1	1	23MO	1	0	0.882051944733	-246.0	-229.0	-237	-228	1
1.7	2015_Jul_21_1155	s	s	12	2	SIC	218	RC	2	2	23VD	1	0	0.532607078552	454.0	-137.0	451	-129	1
1.7	2015_Jul_21_1155	s	s	12	2	SIC	219	ABS	2	1	24VO	0	1	0.593874931335	None	None	None	None	1
1.7	2015_Jul_21_1155	s	s	12	2	SIC	220	RC	0	2	23RD	1	0	0.517322063446	-257.0	-96.0	-259	-96	1
1.7	2015_Jul_21_1155	s	s	12	2	SIC	221	ABS	1	2	24MD	0	1	1.62354922295	None	None	None	None	1
1.7	2015_Jul_21_1155	s	s	12	2	SIC	222	RC	0	1	23RO	1	0	6.46145701408	211.0	-364.0	207	-359	1
1.7	2015_Jul_21_1155	s	s	12	2	SIC	223	RC	1	0	23MC	1	0	0.646757125854	-76.0	-5.0	-73	2	1
1.7	2015_Jul_21_1155	s	s	12	2	SIC	224	ABS	1	1	24MO	0	1	2.03084802628	None	None	None	None	1
1.7	2015_Jul_21_1155	s	s	12	2	SIC	225	RC	0	2	23RD	0	1	0.799751996994	175.0	402.0	None	None	0
1.7	2015_Jul_21_1155	s	s	12	2	SIC	226	ABS	1	1	24MO	0	1	2.73383283615	None	None	None	None	1
1.7	2015_Jul_21_1155	s	s	12	2	SIC	227	ABS	0	1	24RO	0	1	6.53206896782	None	None	None	None	1
1.7	2015_Jul_21_1155	s	s	12	2	SIC	228	RC	2	2	23VD	1	0	0.772469043732	-307.0	-184.0	-300	-182	1
1.7	2015_Jul_21_1155	s	s	12	2	SIC	229	RC	1	1	23MO	1	0	1.02866888046	-105.0	-311.0	-106	-313	1
1.7	2015_Jul_21_1155	s	s	12	2	SIC	230	ABS	1	2	24MD	0	1	4.84384703636	None	None	None	None	1
1.7	2015_Jul_21_1155	s	s	12	2	SIC	231	ABS	2	2	24VD	0	1	0.537349939346	None	None	None	None	1
1.7	2015_Jul_21_1155	s	s	12	2	SIC	232	RC	2	0	23VC	1	0	2.25599098206	442.0	-399.0	445	-396	1
1.7	2015_Jul_21_1155	s	s	12	2	SIC	233	RC	1	2	23MD	1	0	0.811393976212	73.0	113.0	78	109	1
1.7	2015_Jul_21_1155	s	s	12	2	SIC	234	ABS	1	0	24MC	0	1	4.51936101913	None	None	None	None	1
1.7	2015_Jul_21_1155	s	s	12	2	SIC	235	RC	2	1	23VO	1	0	0.458313941956	275.0	126.0	269	127	1
1.7	2015_Jul_21_1155	s	s	12	2	SIC	236	RC	0	1	23RO	1	0	1.68857097626	170.0	136.0	165	132	1
1.7	2015_Jul_21_1155	s	s	12	2	SIC	237	ABS	0	2	24RD	0	1	1.35294699669	None	None	None	None	1
1.7	2015_Jul_21_1155	s	s	12	2	SIC	238	ABS	2	1	24VO	0	1	5.47922587395	None	None	None	None	1
1.7	2015_Jul_21_1155	s	s	12	2	SIC	239	RC	1	0	23MC	1	0	1.19658493996	-515.0	211.0	-515	217	1
1.7	2015_Jul_21_1155	s	s	12	2	SIC	240	ABS	2	0	24VC	0	1	5.0725209713	None	None	None	None	1
1.7	2015_Jul_21_1155	s	s	12	2	SIC	241	RC	0	2	23RD	1	0	0.677088022232	326.0	-116.0	319	-111	1
1.7	2015_Jul_21_1155	s	s	12	2	SIC	242	RC	1	2	23MD	1	0	0.655530929565	142.0	-385.0	142	-380	1
1.7	2015_Jul_21_1155	s	s	12	2	SIC	243	RC	2	1	23VO	1	0	0.571357965469	194.0	-320.0	201	-320	1
1.7	2015_Jul_21_1155	s	s	12	2	SIC	244	RC	0	1	23RO	0	1	10.5223119259	-327.0	13.0	None	None	0
1.7	2015_Jul_21_1155	s	s	12	2	SIC	245	RC	1	0	23MC	1	0	0.768187999725	-323.0	51.0	-326	49	1
1.7	2015_Jul_21_1155	s	s	12	2	SIC	246	ABS	1	0	24MC	0	1	1.16218113899	None	None	None	None	1
1.7	2015_Jul_21_1155	s	s	12	2	SIC	247	RC	2	0	23VC	1	0	0.561738014221	-409.0	260.0	-410	255	1
1.7	2015_Jul_21_1155	s	s	12	2	SIC	248	RC	1	1	23MO	1	0	1.95939302444	309.0	257.0	304	246	1
1.7	2015_Jul_21_1155	s	s	12	2	SIC	249	RC	2	2	23VD	1	0	0.502413988113	200.0	240.0	210	243	1
1.7	2015_Jul_21_1155	s	s	12	2	SIC	250	ABS	1	1	24MO	0	1	2.5418279171	None	None	None	None	1
1.7	2015_Jul_21_1155	s	s	12	2	SIC	251	ABS	1	2	24MD	0	1	1.3833360672	None	None	None	None	1
1.7	2015_Jul_21_1155	s	s	12	2	SIC	252	ABS	2	1	24VO	0	1	0.701971054077	None	None	None	None	1
1.7	2015_Jul_21_1155	s	s	12	2	SIC	253	ABS	2	2	24VD	0	1	0.623224020004	None	None	None	None	1
1.7	2015_Jul_21_1155	s	s	12	2	SIC	254	ABS	0	2	24RD	0	1	2.92733812332	None	None	None	None	1
1.7	2015_Jul_21_1155	s	s	12	2	SIC	255	ABS	0	1	24RO	0	1	8.68194913864	None	None	None	None	1
1.7	2015_Jul_21_1155	s	s	12	2	SIC	256	ABS	2	0	24VC	0	1	0.870418071747	None	None	None	None	1
1.7	2015_Jul_21_1155	s	s	12	2	SIC	257	RC	2	0	23VC	1	0	0.911652088165	536.0	-139.0	530	-138	1
1.7	2015_Jul_21_1155	s	s	12	2	SIC	258	ABS	0	1	24RO	0	1	3.84563088417	None	None	None	None	1
1.7	2015_Jul_21_1155	s	s	12	2	SIC	259	ABS	2	2	24VD	0	1	2.04461407661	None	None	None	None	1
1.7	2015_Jul_21_1155	s	s	12	2	SIC	260	RC	0	1	23RO	0	1	9.06264519691	427.0	231.0	None	None	0
1.7	2015_Jul_21_1155	s	s	12	2	SIC	261	RC	1	1	23MO	1	0	2.24252486229	-417.0	-308.0	-411	-316	1
1.7	2015_Jul_21_1155	s	s	12	2	SIC	262	RC	1	0	23MC	1	0	1.38264894485	-439.0	-329.0	-428	-321	1
1.7	2015_Jul_21_1155	s	s	12	2	SIC	263	ABS	1	2	24MD	0	1	1.93012285233	None	None	None	None	1
1.7	2015_Jul_21_1155	s	s	12	2	SIC	264	RC	2	1	23VO	1	0	0.725357055664	212.0	-323.0	209	-322	1
1.7	2015_Jul_21_1155	s	s	12	2	SIC	265	ABS	2	0	24VC	0	1	0.882550001144	None	None	None	None	1
1.7	2015_Jul_21_1155	s	s	12	2	SIC	266	ABS	1	0	24MC	0	1	1.51293587685	None	None	None	None	1
1.7	2015_Jul_21_1155	s	s	12	2	SIC	267	ABS	0	2	24RD	0	1	1.32667088509	None	None	None	None	1
1.7	2015_Jul_21_1155	s	s	12	2	SIC	268	RC	2	2	23VD	1	0	0.476963996887	346.0	234.0	347	230	1
1.7	2015_Jul_21_1155	s	s	12	2	SIC	269	RC	1	2	23MD	1	0	0.611407995224	-448.0	-125.0	-449	-121	1
1.7	2015_Jul_21_1155	s	s	12	2	SIC	270	ABS	2	1	24VO	0	1	0.713647842407	None	None	None	None	1
1.7	2015_Jul_21_1155	s	s	12	2	SIC	271	ABS	1	1	24MO	0	1	1.95072197914	None	None	None	None	1
1.7	2015_Jul_21_1155	s	s	12	2	SIC	272	RC	0	2	23RD	1	0	0.524247169495	-87.0	-138.0	-86	-133	1
1.7	2015_Jul_21_1155	s	s	12	2	SIC	273	ABS	2	0	24VC	0	1	0.582877159119	None	None	None	None	1
1.7	2015_Jul_21_1155	s	s	12	2	SIC	274	ABS	2	2	24VD	0	1	0.523888111115	None	None	None	None	1
1.7	2015_Jul_21_1155	s	s	12	2	SIC	275	ABS	0	2	24RD	0	1	1.04674196243	None	None	None	None	1
1.7	2015_Jul_21_1155	s	s	12	2	SIC	276	RC	2	0	23VC	1	0	0.85564494133	-538.0	306.0	-549	313	1
1.7	2015_Jul_21_1155	s	s	12	2	SIC	277	RC	1	2	23MD	1	0	0.703139066696	-171.0	205.0	-161	203	1
1.7	2015_Jul_21_1155	s	s	12	2	SIC	278	RC	0	1	23RO	1	0	4.36618614197	19.0	-161.0	18	-158	1
1.7	2015_Jul_21_1155	s	s	12	2	SIC	279	RC	2	1	23VO	1	0	0.535074949265	58.0	3.0	61	6	1
1.7	2015_Jul_21_1155	s	s	12	2	SIC	280	ABS	1	0	24MC	0	1	2.03252506256	None	None	None	None	1
1.7	2015_Jul_21_1155	s	s	12	2	SIC	281	RC	2	2	23VD	1	0	0.440912008286	-450.0	-54.0	-453	-58	1
1.7	2015_Jul_21_1155	s	s	12	2	SIC	282	ABS	2	1	24VO	0	1	0.617750883102	None	None	None	None	1
1.7	2015_Jul_21_1155	s	s	12	2	SIC	283	RC	0	2	23RD	1	0	0.575974941254	-158.0	-375.0	-150	-377	1
1.7	2015_Jul_21_1155	s	s	12	2	SIC	284	ABS	1	2	24MD	0	1	0.729112863541	None	None	None	None	1
1.7	2015_Jul_21_1155	s	s	12	2	SIC	285	RC	1	0	23MC	1	0	0.938135147095	-93.0	-168.0	-91	-176	1
1.7	2015_Jul_21_1155	s	s	12	2	SIC	286	RC	1	1	23MO	1	0	0.664040088654	19.0	-77.0	20	-73	1
1.7	2015_Jul_21_1155	s	s	12	2	SIC	287	ABS	0	1	24RO	0	1	3.13042497635	None	None	None	None	1
1.7	2015_Jul_21_1155	s	s	12	2	SIC	288	ABS	1	1	24MO	0	1	3.24315214157	None	None	None	None	1
1.7	2015_Jul_21_1155	s	s	12	2	SIC	289	RC	0	1	23RO	1	0	3.36624598503	301.0	335.0	297	334	1
1.7	2015_Jul_21_1155	s	s	12	2	SIC	290	RC	1	2	23MD	0	1	0.681939125061	401.0	-359.0	None	None	0
1.7	2015_Jul_21_1155	s	s	12	2	SIC	291	ABS	2	0	24VC	1	0	0.587909936905	None	None	-7	-65	0
1.7	2015_Jul_21_1155	s	s	12	2	SIC	292	RC	2	0	23VC	1	0	0.552583217621	-526.0	-136.0	-517	-134	1
1.7	2015_Jul_21_1155	s	s	12	2	SIC	293	RC	1	1	23MO	1	0	0.988220930099	-324.0	148.0	-318	145	1
1.7	2015_Jul_21_1155	s	s	12	2	SIC	294	ABS	2	2	24VD	0	1	0.528916120529	None	None	None	None	1
1.7	2015_Jul_21_1155	s	s	12	2	SIC	295	ABS	0	1	24RO	0	1	5.31636095047	None	None	None	None	1
1.7	2015_Jul_21_1155	s	s	12	2	SIC	296	ABS	1	0	24MC	0	1	2.15337586403	None	None	None	None	1
1.7	2015_Jul_21_1155	s	s	12	2	SIC	297	ABS	2	1	24VO	0	1	1.42354297638	None	None	None	None	1
1.7	2015_Jul_21_1155	s	s	12	2	SIC	298	RC	2	2	23VD	1	0	2.05915284157	-94.0	-206.0	-85	-209	1
1.7	2015_Jul_21_1155	s	s	12	2	SIC	299	RC	1	0	23MC	1	0	1.06514286995	-180.0	45.0	-186	49	1
1.7	2015_Jul_21_1155	s	s	12	2	SIC	300	ABS	0	2	24RD	0	1	0.706037044525	None	None	None	None	1
1.7	2015_Jul_21_1155	s	s	12	2	SIC	301	ABS	1	2	24MD	0	1	0.844146966934	None	None	None	None	1
1.7	2015_Jul_21_1155	s	s	12	2	SIC	302	RC	0	2	23RD	1	0	0.841892004013	279.0	106.0	287	111	1
1.7	2015_Jul_21_1155	s	s	12	2	SIC	303	RC	2	1	23VO	1	0	0.652731895447	463.0	-238.0	458	-238	1
1.7	2015_Jul_21_1155	s	s	12	2	SIC	304	ABS	1	1	24MO	0	1	2.74193501472	None	None	None	None	1
1.7	2015_Jul_21_1155	s	s	12	2	SIC	305	RC	0	1	23RO	1	0	2.53047609329	-204.0	-275.0	-203	-268	1
1.7	2015_Jul_21_1155	s	s	12	2	SIC	306	RC	2	0	23VC	1	0	0.952663898468	322.0	220.0	315	220	1
1.7	2015_Jul_21_1155	s	s	12	2	SIC	307	RC	1	2	23MD	1	0	0.505388021469	46.0	174.0	47	172	1
1.7	2015_Jul_21_1155	s	s	12	2	SIC	308	ABS	0	1	24RO	0	1	3.09504079819	None	None	None	None	1
1.7	2015_Jul_21_1155	s	s	12	2	SIC	309	RC	1	0	23MC	1	0	0.988070011139	267.0	234.0	267	231	1
1.7	2015_Jul_21_1155	s	s	12	2	SIC	310	ABS	2	0	24VC	0	1	0.729526996613	None	None	None	None	1
1.7	2015_Jul_21_1155	s	s	12	2	SIC	311	ABS	2	2	24VD	0	1	0.693763017654	None	None	None	None	1
1.7	2015_Jul_21_1155	s	s	12	2	SIC	312	RC	0	2	23RD	1	0	0.587859869003	-416.0	116.0	-411	112	1
1.7	2015_Jul_21_1155	s	s	12	2	SIC	313	ABS	1	2	24MD	0	1	0.752739906311	None	None	None	None	1
1.7	2015_Jul_21_1155	s	s	12	2	SIC	314	ABS	1	1	24MO	0	1	2.68045806885	None	None	None	None	1
1.7	2015_Jul_21_1155	s	s	12	2	SIC	315	ABS	2	1	24VO	0	1	0.858632087708	None	None	None	None	1
1.7	2015_Jul_21_1155	s	s	12	2	SIC	316	RC	1	1	23MO	1	0	0.629750013351	54.0	245.0	60	240	1
1.7	2015_Jul_21_1155	s	s	12	2	SIC	317	ABS	1	0	24MC	0	1	2.35355186462	None	None	None	None	1
1.7	2015_Jul_21_1155	s	s	12	2	SIC	318	RC	2	1	23VO	1	0	0.654213190079	517.0	-82.0	508	-79	1
1.7	2015_Jul_21_1155	s	s	12	2	SIC	319	ABS	0	2	24RD	0	1	2.29521417618	None	None	None	None	1
1.7	2015_Jul_21_1155	s	s	12	2	SIC	320	RC	2	2	23VD	1	0	0.517251968384	8.0	-166.0	3	-161	1
1.7	2015_Jul_21_1155	s	s	12	2	SIC	321	RC	2	2	23VD	1	0	0.532717943192	286.0	-69.0	293	-67	1
1.7	2015_Jul_21_1155	s	s	12	2	SIC	322	RC	0	1	23RO	1	0	2.11813116074	-413.0	-361.0	-413	-363	1
1.7	2015_Jul_21_1155	s	s	12	2	SIC	323	ABS	2	0	24VC	0	1	0.630136013031	None	None	None	None	1
1.7	2015_Jul_21_1155	s	s	12	2	SIC	324	ABS	2	2	24VD	0	1	0.607911109924	None	None	None	None	1
1.7	2015_Jul_21_1155	s	s	12	2	SIC	325	ABS	1	1	24MO	0	1	4.05225300789	None	None	None	None	1
1.7	2015_Jul_21_1155	s	s	12	2	SIC	326	RC	2	1	23VO	1	0	0.576550960541	-225.0	-136.0	-225	-133	1
1.7	2015_Jul_21_1155	s	s	12	2	SIC	327	RC	1	2	23MD	1	0	0.617533922195	-127.0	280.0	-124	279	1
1.7	2015_Jul_21_1155	s	s	12	2	SIC	328	ABS	0	2	24RD	0	1	1.34120392799	None	None	None	None	1
1.7	2015_Jul_21_1155	s	s	12	2	SIC	329	RC	1	1	23MO	1	0	0.764378070831	87.0	31.0	84	33	1
1.7	2015_Jul_21_1155	s	s	12	2	SIC	330	RC	2	0	23VC	1	0	0.747386932373	-497.0	375.0	-504	375	1
1.7	2015_Jul_21_1155	s	s	12	2	SIC	331	RC	1	0	23MC	1	0	1.85914611816	190.0	-384.0	191	-382	1
1.7	2015_Jul_21_1155	s	s	12	2	SIC	332	ABS	0	1	24RO	0	1	4.50760316849	None	None	None	None	1
1.7	2015_Jul_21_1155	s	s	12	2	SIC	333	ABS	1	2	24MD	0	1	1.55307412148	None	None	None	None	1
1.7	2015_Jul_21_1155	s	s	12	2	SIC	334	RC	0	2	23RD	1	0	0.59961605072	272.0	-75.0	272	-69	1
1.7	2015_Jul_21_1155	s	s	12	2	SIC	335	ABS	1	0	24MC	0	1	3.59769797325	None	None	None	None	1
1.7	2015_Jul_21_1155	s	s	12	2	SIC	336	ABS	2	1	24VO	0	1	0.788058996201	None	None	None	None	1
1.7	2015_Jul_21_1155	s	s	12	2	SIC	337	RC	1	1	23MO	1	0	1.29412102699	96.0	-297.0	93	-306	1
1.7	2015_Jul_21_1155	s	s	12	2	SIC	338	ABS	2	1	24VO	0	1	0.481920957565	None	None	None	None	1
1.7	2015_Jul_21_1155	s	s	12	2	SIC	339	RC	2	1	23VO	1	0	0.540824174881	473.0	122.0	478	118	1
1.7	2015_Jul_21_1155	s	s	12	2	SIC	340	RC	0	1	23RO	1	0	3.04804706573	-411.0	-218.0	-406	-222	1
1.7	2015_Jul_21_1155	s	s	12	2	SIC	341	RC	0	2	23RD	1	0	0.835100889206	523.0	-232.0	537	-227	1
1.7	2015_Jul_21_1155	s	s	12	2	SIC	342	ABS	1	2	24MD	0	1	1.05409002304	None	None	None	None	1
1.7	2015_Jul_21_1155	s	s	12	2	SIC	343	ABS	1	0	24MC	0	1	4.3637919426	None	None	None	None	1
1.7	2015_Jul_21_1155	s	s	12	2	SIC	344	ABS	0	2	24RD	0	1	0.882195949554	None	None	None	None	1
1.7	2015_Jul_21_1155	s	s	12	2	SIC	345	RC	1	2	23MD	1	0	0.529066085815	25.0	-184.0	26	-180	1
1.7	2015_Jul_21_1155	s	s	12	2	SIC	346	RC	2	2	23VD	1	0	0.752681970596	-353.0	349.0	-359	353	1
1.7	2015_Jul_21_1155	s	s	12	2	SIC	347	ABS	2	0	24VC	0	1	0.587932109833	None	None	None	None	1
1.7	2015_Jul_21_1155	s	s	12	2	SIC	348	ABS	1	1	24MO	0	1	4.1012980938	None	None	None	None	1
1.7	2015_Jul_21_1155	s	s	12	2	SIC	349	ABS	0	1	24RO	0	1	5.25776314735	None	None	None	None	1
1.7	2015_Jul_21_1155	s	s	12	2	SIC	350	RC	1	0	23MC	1	0	1.60018777847	-81.0	-193.0	-72	-184	1
1.7	2015_Jul_21_1155	s	s	12	2	SIC	351	ABS	2	2	24VD	0	1	3.5725710392	None	None	None	None	1
1.7	2015_Jul_21_1155	s	s	12	2	SIC	352	RC	2	0	23VC	1	0	0.66499209404	-237.0	78.0	-233	77	1
1.7	2015_Jul_21_1155	s	s	12	2	SIC	353	RC	2	0	23VC	1	0	1.83557891846	183.0	-39.0	180	-34	1
1.7	2015_Jul_21_1155	s	s	12	2	SIC	354	RC	2	1	23VO	1	0	0.537888050079	-455.0	-74.0	-462	-67	1
1.7	2015_Jul_21_1155	s	s	12	2	SIC	355	ABS	2	2	24VD	0	1	0.623219966888	None	None	None	None	1
1.7	2015_Jul_21_1155	s	s	12	2	SIC	356	ABS	1	1	24MO	0	1	2.78351306915	None	None	None	None	1
1.7	2015_Jul_21_1155	s	s	12	2	SIC	357	RC	0	2	23RD	1	0	0.776237010956	-46.0	364.0	-53	362	1
1.7	2015_Jul_21_1155	s	s	12	2	SIC	358	ABS	2	0	24VC	0	1	0.55958199501	None	None	None	None	1
1.7	2015_Jul_21_1155	s	s	12	2	SIC	359	RC	1	2	23MD	1	0	0.525990009308	30.0	-19.0	26	-19	1
1.7	2015_Jul_21_1155	s	s	12	2	SIC	360	RC	1	1	23MO	1	0	1.91287493706	-77.0	-285.0	-81	-291	1
1.7	2015_Jul_21_1155	s	s	12	2	SIC	361	ABS	0	1	24RO	0	1	2.11812114716	None	None	None	None	1
1.7	2015_Jul_21_1155	s	s	12	2	SIC	362	RC	0	1	23RO	1	0	1.72957015038	-248.0	-158.0	-241	-162	1
1.7	2015_Jul_21_1155	s	s	12	2	SIC	363	RC	1	0	23MC	0	1	1.43024897575	-142.0	-402.0	None	None	0
1.7	2015_Jul_21_1155	s	s	12	2	SIC	364	ABS	2	1	24VO	0	1	0.682816028595	None	None	None	None	1
1.7	2015_Jul_21_1155	s	s	12	2	SIC	365	ABS	0	2	24RD	0	1	0.711496114731	None	None	None	None	1
1.7	2015_Jul_21_1155	s	s	12	2	SIC	366	ABS	1	2	24MD	0	1	0.705687046051	None	None	None	None	1
1.7	2015_Jul_21_1155	s	s	12	2	SIC	367	RC	2	2	23VD	1	0	0.735567092896	-476.0	251.0	-480	250	1
1.7	2015_Jul_21_1155	s	s	12	2	SIC	368	ABS	1	0	24MC	0	1	0.776238918304	None	None	None	None	1
1.7	2015_Jul_21_1155	s	s	12	2	SIC	369	RC	1	1	23MO	1	0	1.25874304771	38.0	328.0	39	332	1
1.7	2015_Jul_21_1155	s	s	12	2	SIC	370	RC	1	2	23MD	1	0	0.502722978592	-93.0	-91.0	-94	-96	1
1.7	2015_Jul_21_1155	s	s	12	2	SIC	371	ABS	1	1	24MO	0	1	3.28337001801	None	None	None	None	1
1.7	2015_Jul_21_1155	s	s	12	2	SIC	372	ABS	2	1	24VO	0	1	0.552421092987	None	None	None	None	1
1.7	2015_Jul_21_1155	s	s	12	2	SIC	373	ABS	2	0	24VC	0	1	2.15692710876	None	None	None	None	1
1.7	2015_Jul_21_1155	s	s	12	2	SIC	374	ABS	0	1	24RO	0	1	4.05496096611	None	None	None	None	1
1.7	2015_Jul_21_1155	s	s	12	2	SIC	375	ABS	0	2	24RD	0	1	1.58588194847	None	None	None	None	1
1.7	2015_Jul_21_1155	s	s	12	2	SIC	376	RC	0	1	23RO	1	0	3.01251721382	414.0	-358.0	405	-349	1
1.7	2015_Jul_21_1155	s	s	12	2	SIC	377	RC	1	0	23MC	1	0	1.59453392029	-420.0	34.0	-419	32	1
1.7	2015_Jul_21_1155	s	s	12	2	SIC	378	RC	2	0	23VC	1	0	0.482016086578	-325.0	13.0	-321	15	1
1.7	2015_Jul_21_1155	s	s	12	2	SIC	379	RC	2	2	23VD	1	0	0.529000997543	-133.0	13.0	-131	14	1
1.7	2015_Jul_21_1155	s	s	12	2	SIC	380	ABS	1	2	24MD	0	1	1.37652683258	None	None	None	None	1
1.7	2015_Jul_21_1155	s	s	12	2	SIC	381	ABS	1	0	24MC	0	1	1.88311815262	None	None	None	None	1
1.7	2015_Jul_21_1155	s	s	12	2	SIC	382	ABS	2	2	24VD	1	0	0.717872142792	None	None	31	11	0
1.7	2015_Jul_21_1155	s	s	12	2	SIC	383	RC	0	2	23RD	1	0	0.58281493187	76.0	217.0	76	213	1
1.7	2015_Jul_21_1155	s	s	12	2	SIC	384	RC	2	1	23VO	1	0	0.599676132202	-402.0	387.0	-392	391	1
1.7	2015_Jul_21_1155	s	s	12	2	SIC	385	ABS	2	0	24VC	0	1	0.705626010895	None	None	None	None	1
1.7	2015_Jul_21_1155	s	s	12	2	SIC	386	RC	1	0	23MC	1	0	1.22348999977	-85.0	-404.0	-81	-401	1
1.7	2015_Jul_21_1155	s	s	12	2	SIC	387	RC	1	1	23MO	1	0	0.552546024323	-236.0	16.0	-235	22	1
1.7	2015_Jul_21_1155	s	s	12	2	SIC	388	RC	2	2	23VD	1	0	0.47959280014	90.0	263.0	94	264	1
1.7	2015_Jul_21_1155	s	s	12	2	SIC	389	ABS	2	2	24VD	0	1	0.714120149612	None	None	None	None	1
1.7	2015_Jul_21_1155	s	s	12	2	SIC	390	RC	1	2	23MD	1	0	0.576159000397	-300.0	187.0	-298	181	1
1.7	2015_Jul_21_1155	s	s	12	2	SIC	391	ABS	1	1	24MO	0	1	1.39507389069	None	None	None	None	1
1.7	2015_Jul_21_1155	s	s	12	2	SIC	392	RC	0	2	23RD	1	0	0.561908006668	-78.0	-195.0	-79	-200	1
1.7	2015_Jul_21_1155	s	s	12	2	SIC	393	ABS	0	1	24RO	0	1	2.64492988586	None	None	None	None	1
1.7	2015_Jul_21_1155	s	s	12	2	SIC	394	ABS	1	2	24MD	0	1	1.41183400154	None	None	None	None	1
1.7	2015_Jul_21_1155	s	s	12	2	SIC	395	ABS	0	2	24RD	0	1	1.29403495789	None	None	None	None	1
1.7	2015_Jul_21_1155	s	s	12	2	SIC	396	RC	2	1	23VO	1	0	1.20024108887	-538.0	343.0	-535	349	1
1.7	2015_Jul_21_1155	s	s	12	2	SIC	397	ABS	1	0	24MC	1	0	0.714716911316	None	None	-504	373	0
1.7	2015_Jul_21_1155	s	s	12	2	SIC	398	RC	0	1	23RO	1	0	3.23628902435	-312.0	-74.0	-309	-69	1
1.7	2015_Jul_21_1155	s	s	12	2	SIC	399	ABS	2	1	24VO	0	1	0.630121946335	None	None	None	None	1
1.7	2015_Jul_21_1155	s	s	12	2	SIC	400	RC	2	0	23VC	1	0	0.547051906586	273.0	-268.0	281	-268	1
1.7	2015_Jul_21_1155	s	s	12	2	SIC	401	RC	2	1	23VO	1	0	0.529083967209	-281.0	-101.0	-271	-101	1
1.7	2015_Jul_21_1155	s	s	12	2	SIC	402	ABS	1	2	24MD	0	1	0.61612200737	None	None	None	None	1
1.7	2015_Jul_21_1155	s	s	12	2	SIC	403	RC	0	2	23RD	1	0	0.549081087112	362.0	-187.0	373	-182	1
1.7	2015_Jul_21_1155	s	s	12	2	SIC	404	RC	1	2	23MD	1	0	0.497281074524	-359.0	196.0	-359	194	1
1.7	2015_Jul_21_1155	s	s	12	2	SIC	405	ABS	1	0	24MC	0	1	1.31288504601	None	None	None	None	1
1.7	2015_Jul_21_1155	s	s	12	2	SIC	406	RC	2	0	23VC	1	0	0.481987953186	-153.0	-199.0	-151	-193	1
1.7	2015_Jul_21_1155	s	s	12	2	SIC	407	ABS	1	1	24MO	0	1	0.776216030121	None	None	None	None	1
1.7	2015_Jul_21_1155	s	s	12	2	SIC	408	RC	1	0	23MC	1	0	1.96503996849	170.0	-247.0	171	-238	1
1.7	2015_Jul_21_1155	s	s	12	2	SIC	409	RC	2	2	23VD	1	0	0.517246961594	-163.0	50.0	-161	52	1
1.7	2015_Jul_21_1155	s	s	12	2	SIC	410	ABS	0	1	24RO	0	1	3.72603607178	None	None	None	None	1
1.7	2015_Jul_21_1155	s	s	12	2	SIC	411	ABS	2	2	24VD	0	1	1.16189599037	None	None	None	None	1
1.7	2015_Jul_21_1155	s	s	12	2	SIC	412	RC	1	1	23MO	1	0	1.02346897125	-378.0	281.0	-374	278	1
1.7	2015_Jul_21_1155	s	s	12	2	SIC	413	ABS	0	2	24RD	0	1	0.870349168777	None	None	None	None	1
1.7	2015_Jul_21_1155	s	s	12	2	SIC	414	ABS	2	1	24VO	0	1	0.658576965332	None	None	None	None	1
1.7	2015_Jul_21_1155	s	s	12	2	SIC	415	RC	0	1	23RO	1	0	1.80020809174	29.0	281.0	33	280	1
1.7	2015_Jul_21_1155	s	s	12	2	SIC	416	ABS	2	0	24VC	0	1	0.632256984711	None	None	None	None	1
1.7	2015_Jul_21_1155	s	s	12	2	SIC	417	RC	0	2	23RD	1	0	0.796998023987	461.0	-209.0	469	-206	1
1.7	2015_Jul_21_1155	s	s	12	2	SIC	418	ABS	1	1	24MO	0	1	2.81258201599	None	None	None	None	1
1.7	2015_Jul_21_1155	s	s	12	2	SIC	419	RC	0	1	23RO	1	0	4.24853396416	398.0	240.0	408	239	1
1.7	2015_Jul_21_1155	s	s	12	2	SIC	420	ABS	2	0	24VC	0	1	0.559318065643	None	None	None	None	1
1.7	2015_Jul_21_1155	s	s	12	2	SIC	421	RC	2	1	23VO	1	0	0.45330286026	203.0	-39.0	203	-47	1
1.7	2015_Jul_21_1155	s	s	12	2	SIC	422	ABS	2	1	24VO	0	1	1.00793600082	None	None	None	None	1
1.7	2015_Jul_21_1155	s	s	12	2	SIC	423	ABS	0	1	24RO	0	1	4.84575986862	None	None	None	None	1
1.7	2015_Jul_21_1155	s	s	12	2	SIC	424	RC	2	0	23VC	1	0	1.69140505791	346.0	116.0	355	115	1
1.7	2015_Jul_21_1155	s	s	12	2	SIC	425	RC	1	1	23MO	1	0	1.68016409874	-273.0	-399.0	-270	-391	1
1.7	2015_Jul_21_1155	s	s	12	2	SIC	426	ABS	1	0	24MC	0	1	4.51972198486	None	None	None	None	1
1.7	2015_Jul_21_1155	s	s	12	2	SIC	427	ABS	0	2	24RD	0	1	0.623200893402	None	None	None	None	1
1.7	2015_Jul_21_1155	s	s	12	2	SIC	428	RC	2	2	23VD	1	0	0.61146903038	-15.0	255.0	-18	255	1
1.7	2015_Jul_21_1155	s	s	12	2	SIC	429	RC	1	2	23MD	1	0	0.532673120499	-13.0	-40.0	-13	-35	1
1.7	2015_Jul_21_1155	s	s	12	2	SIC	430	ABS	1	2	24MD	0	1	0.737292051315	None	None	None	None	1
1.7	2015_Jul_21_1155	s	s	12	2	SIC	431	ABS	2	2	24VD	0	1	0.547508955002	None	None	None	None	1
1.7	2015_Jul_21_1155	s	s	12	2	SIC	432	RC	1	0	23MC	1	0	0.709357976913	-117.0	289.0	-115	290	1
1.7	2015_Jul_21_1155	s	s	12	2	SIC	433	RC	0	2	23RD	1	0	0.759317159653	-87.0	-223.0	-80	-218	1
1.7	2015_Jul_21_1155	s	s	12	2	SIC	434	RC	2	2	23VD	1	0	0.446883916855	-266.0	-267.0	-276	-267	1
1.7	2015_Jul_21_1155	s	s	12	2	SIC	435	RC	1	1	23MO	1	0	0.891217947006	-180.0	384.0	-185	383	1
1.7	2015_Jul_21_1155	s	s	12	2	SIC	436	ABS	0	2	24RD	0	1	1.51203894615	None	None	None	None	1
1.7	2015_Jul_21_1155	s	s	12	2	SIC	437	RC	0	1	23RO	1	0	1.26567006111	-172.0	-35.0	-175	-30	1
1.7	2015_Jul_21_1155	s	s	12	2	SIC	438	RC	1	0	23MC	1	0	0.67760181427	-160.0	-55.0	-157	-53	1
1.7	2015_Jul_21_1155	s	s	12	2	SIC	439	ABS	1	0	24MC	0	1	2.06655597687	None	None	None	None	1
1.7	2015_Jul_21_1155	s	s	12	2	SIC	440	ABS	1	2	24MD	0	1	0.759443998337	None	None	None	None	1
1.7	2015_Jul_21_1155	s	s	12	2	SIC	441	RC	1	2	23MD	1	0	1.75839090347	359.0	285.0	352	282	1
1.7	2015_Jul_21_1155	s	s	12	2	SIC	442	ABS	1	1	24MO	0	1	1.85917401314	None	None	None	None	1
1.7	2015_Jul_21_1155	s	s	12	2	SIC	443	RC	2	0	23VC	1	0	0.497390985489	-338.0	-407.0	-338	-401	1
1.7	2015_Jul_21_1155	s	s	12	2	SIC	444	ABS	2	0	24VC	0	1	0.596713066101	None	None	None	None	1
1.7	2015_Jul_21_1155	s	s	12	2	SIC	445	ABS	2	2	24VD	0	1	0.575996875763	None	None	None	None	1
1.7	2015_Jul_21_1155	s	s	12	2	SIC	446	ABS	0	1	24RO	0	1	5.69247889519	None	None	None	None	1
1.7	2015_Jul_21_1155	s	s	12	2	SIC	447	RC	2	1	23VO	1	0	0.59969496727	59.0	-395.0	61	-400	1
1.7	2015_Jul_21_1155	s	s	12	2	SIC	448	ABS	2	1	24VO	0	1	0.594712972641	None	None	None	None	1
1.7	2015_Jul_21_1155	s	s	12	2	SIC	449	ABS	2	1	24VO	0	1	0.952749013901	None	None	None	None	1
1.7	2015_Jul_21_1155	s	s	12	2	SIC	450	RC	1	2	23MD	1	0	0.911720991135	-272.0	363.0	-265	366	1
1.7	2015_Jul_21_1155	s	s	12	2	SIC	451	RC	0	2	23RD	1	0	0.540843009949	-129.0	390.0	-133	383	1
1.7	2015_Jul_21_1155	s	s	12	2	SIC	452	ABS	1	0	24MC	0	1	2.87510108948	None	None	None	None	1
1.7	2015_Jul_21_1155	s	s	12	2	SIC	453	ABS	0	2	24RD	0	1	2.23039102554	None	None	None	None	1
1.7	2015_Jul_21_1155	s	s	12	2	SIC	454	ABS	1	1	24MO	0	1	3.03619909286	None	None	None	None	1
1.7	2015_Jul_21_1155	s	s	12	2	SIC	455	RC	2	2	23VD	1	0	0.423145055771	227.0	-222.0	234	-219	1
1.7	2015_Jul_21_1155	s	s	12	2	SIC	456	ABS	2	0	24VC	0	1	1.22964596748	None	None	None	None	1
1.7	2015_Jul_21_1155	s	s	12	2	SIC	457	ABS	2	2	24VD	0	1	0.454150915146	None	None	None	None	1
1.7	2015_Jul_21_1155	s	s	12	2	SIC	458	RC	2	1	23VO	1	0	0.585180997849	57.0	111.0	58	114	1
1.7	2015_Jul_21_1155	s	s	12	2	SIC	459	RC	1	0	23MC	1	0	1.22349405289	-480.0	272.0	-468	274	1
1.7	2015_Jul_21_1155	s	s	12	2	SIC	460	RC	2	0	23VC	1	0	0.514644145966	112.0	-198.0	109	-196	1
1.7	2015_Jul_21_1155	s	s	12	2	SIC	461	RC	1	1	23MO	1	0	0.940952777863	-12.0	-37.0	-16	-43	1
1.7	2015_Jul_21_1155	s	s	12	2	SIC	462	ABS	0	1	24RO	0	1	3.5304620266	None	None	None	None	1
1.7	2015_Jul_21_1155	s	s	12	2	SIC	463	RC	0	1	23RO	0	1	6.50855588913	238.0	-51.0	None	None	0
1.7	2015_Jul_21_1155	s	s	12	2	SIC	464	ABS	1	2	24MD	0	1	1.34119796753	None	None	None	None	1
1.7	2015_Jul_21_1155	s	s	12	2	SIC	465	ABS	2	1	24VO	0	1	0.617578983307	None	None	None	None	1
1.7	2015_Jul_21_1155	s	s	12	2	SIC	466	RC	0	2	23RD	1	0	0.717442989349	249.0	-51.0	251	-49	1
1.7	2015_Jul_21_1155	s	s	12	2	SIC	467	ABS	2	0	24VC	0	1	0.635015964508	None	None	None	None	1
1.7	2015_Jul_21_1155	s	s	12	2	SIC	468	RC	1	1	23MO	1	0	0.893903970718	-313.0	-366.0	-308	-367	1
1.7	2015_Jul_21_1155	s	s	12	2	SIC	469	RC	2	2	23VD	1	0	0.517357110977	-241.0	-27.0	-244	-23	1
1.7	2015_Jul_21_1155	s	s	12	2	SIC	470	RC	2	0	23VC	1	0	0.547810077667	-365.0	193.0	-365	192	1
1.7	2015_Jul_21_1155	s	s	12	2	SIC	471	ABS	0	2	24RD	0	1	1.32560181618	None	None	None	None	1
1.7	2015_Jul_21_1155	s	s	12	2	SIC	472	ABS	0	1	24RO	0	1	4.64065217972	None	None	None	None	1
1.7	2015_Jul_21_1155	s	s	12	2	SIC	473	ABS	1	0	24MC	0	1	4.16979718208	None	None	None	None	1
1.7	2015_Jul_21_1155	s	s	12	2	SIC	474	RC	1	2	23MD	1	0	0.540730953217	121.0	218.0	113	217	1
1.7	2015_Jul_21_1155	s	s	12	2	SIC	475	ABS	1	2	24MD	0	1	0.772583961487	None	None	None	None	1
1.7	2015_Jul_21_1155	s	s	12	2	SIC	476	RC	1	0	23MC	1	0	0.799566030502	255.0	276.0	261	283	1
1.7	2015_Jul_21_1155	s	s	12	2	SIC	477	ABS	1	1	24MO	0	1	4.87815189362	None	None	None	None	1
1.7	2015_Jul_21_1155	s	s	12	2	SIC	478	RC	0	1	23RO	1	0	1.49082994461	-303.0	377.0	-307	381	1
1.7	2015_Jul_21_1155	s	s	12	2	SIC	479	ABS	2	2	24VD	0	1	0.81153512001	None	None	None	None	1
1.7	2015_Jul_21_1155	s	s	12	2	SIC	480	RC	2	1	23VO	1	0	0.552613973618	-22.0	-234.0	-24	-234	1
1.7	2015_Jul_21_1155	s	s	12	2	SIC	481	ABS	2	0	24VC	0	1	0.658564090729	None	None	None	None	1
1.7	2015_Jul_21_1155	s	s	12	2	SIC	482	ABS	1	1	24MO	0	1	2.09461712837	None	None	None	None	1
1.7	2015_Jul_21_1155	s	s	12	2	SIC	483	ABS	1	0	24MC	0	1	2.98529791832	None	None	None	None	1
1.7	2015_Jul_21_1155	s	s	12	2	SIC	484	RC	0	1	23RO	1	0	1.84743118286	-304.0	163.0	-300	168	1
1.7	2015_Jul_21_1155	s	s	12	2	SIC	485	RC	0	2	23RD	1	0	1.03195881844	477.0	-287.0	473	-282	1
1.7	2015_Jul_21_1155	s	s	12	2	SIC	486	ABS	2	1	24VO	0	1	0.655863046646	None	None	None	None	1
1.7	2015_Jul_21_1155	s	s	12	2	SIC	487	ABS	1	2	24MD	0	1	0.996929883957	None	None	None	None	1
1.7	2015_Jul_21_1155	s	s	12	2	SIC	488	ABS	0	1	24RO	0	1	5.53163385391	None	None	None	None	1
1.7	2015_Jul_21_1155	s	s	12	2	SIC	489	RC	1	2	23MD	1	0	0.564424991608	-350.0	-407.0	-342	-408	1
1.7	2015_Jul_21_1155	s	s	12	2	SIC	490	RC	2	1	23VO	1	0	0.476883172989	-207.0	-253.0	-208	-262	1
1.7	2015_Jul_21_1155	s	s	12	2	SIC	491	RC	2	0	23VC	1	0	0.511617898941	-81.0	312.0	-87	317	1
1.7	2015_Jul_21_1155	s	s	12	2	SIC	492	RC	1	1	23MO	1	0	0.838768005371	-215.0	158.0	-216	164	1
1.7	2015_Jul_21_1155	s	s	12	2	SIC	493	ABS	0	2	24RD	0	1	0.902971029282	None	None	None	None	1
1.7	2015_Jul_21_1155	s	s	12	2	SIC	494	RC	1	0	23MC	1	0	1.06795406342	77.0	257.0	76	254	1
1.7	2015_Jul_21_1155	s	s	12	2	SIC	495	RC	2	2	23VD	1	0	0.479553937912	88.0	318.0	88	316	1
1.7	2015_Jul_21_1155	s	s	12	2	SIC	496	ABS	2	2	24VD	0	1	0.631201028824	None	None	None	None	1
1.7	2015_Jul_21_1155	s	s	12	2	SIC	497	RC	1	0	23MC	1	0	0.81832408905	196.0	300.0	189	300	1
1.7	2015_Jul_21_1155	s	s	12	2	SIC	498	RC	2	1	23VO	1	0	0.623089075089	391.0	-77.0	394	-72	1
1.7	2015_Jul_21_1155	s	s	12	2	SIC	499	RC	2	2	23VD	1	0	0.513419151306	-502.0	-10.0	-498	-13	1
1.7	2015_Jul_21_1155	s	s	12	2	SIC	500	RC	0	1	23RO	1	0	1.30974507332	-232.0	378.0	-238	373	1
1.7	2015_Jul_21_1155	s	s	12	2	SIC	501	ABS	0	2	24RD	0	1	0.703166007996	None	None	None	None	1
1.7	2015_Jul_21_1155	s	s	12	2	SIC	502	ABS	2	2	24VD	0	1	0.564337968826	None	None	None	None	1
1.7	2015_Jul_21_1155	s	s	12	2	SIC	503	ABS	2	0	24VC	0	1	0.65936088562	None	None	None	None	1
1.7	2015_Jul_21_1155	s	s	12	2	SIC	504	RC	0	2	23RD	1	0	0.505442142487	239.0	134.0	243	133	1
1.7	2015_Jul_21_1155	s	s	12	2	SIC	505	ABS	1	1	24MO	0	1	2.04747700691	None	None	None	None	1
1.7	2015_Jul_21_1155	s	s	12	2	SIC	506	ABS	1	0	24MC	0	1	3.81300902367	None	None	None	None	1
1.7	2015_Jul_21_1155	s	s	12	2	SIC	507	ABS	1	2	24MD	0	1	0.547487974167	None	None	None	None	1
1.7	2015_Jul_21_1155	s	s	12	2	SIC	508	RC	2	0	23VC	1	0	0.759469985962	320.0	-55.0	326	-56	1
1.7	2015_Jul_21_1155	s	s	12	2	SIC	509	RC	1	2	23MD	1	0	0.576113939285	293.0	15.0	292	19	1
1.7	2015_Jul_21_1155	s	s	12	2	SIC	510	ABS	2	1	24VO	0	1	0.946292877197	None	None	None	None	1
1.7	2015_Jul_21_1155	s	s	12	2	SIC	511	RC	1	1	23MO	1	0	1.44135904312	224.0	-163.0	219	-159	1
1.7	2015_Jul_21_1155	s	s	12	2	SIC	512	ABS	0	1	24RO	0	1	3.05665397644	None	None	None	None	1
1.7	2015_Jul_21_1155	s	s	12	2	SIC	513	RC	1	1	23MO	1	0	1.12711119652	-322.0	79.0	-319	78	1
1.7	2015_Jul_21_1155	s	s	12	2	SIC	514	RC	2	1	23VO	1	0	0.500732898712	-316.0	-129.0	-308	-128	1
1.7	2015_Jul_21_1155	s	s	12	2	SIC	515	ABS	1	1	24MO	0	1	2.30199599266	None	None	None	None	1
1.7	2015_Jul_21_1155	s	s	12	2	SIC	516	RC	1	2	23MD	1	0	0.514389038086	400.0	-88.0	396	-88	1
1.7	2015_Jul_21_1155	s	s	12	2	SIC	517	RC	0	1	23RO	0	1	4.57284021378	524.0	-224.0	None	None	0
1.7	2015_Jul_21_1155	s	s	12	2	SIC	518	ABS	2	2	24VD	0	1	0.906136035919	None	None	None	None	1
1.7	2015_Jul_21_1155	s	s	12	2	SIC	519	RC	2	0	23VC	1	0	0.670323133469	-223.0	-216.0	-214	-216	1
1.7	2015_Jul_21_1155	s	s	12	2	SIC	520	ABS	2	0	24VC	0	1	1.53875017166	None	None	None	None	1
1.7	2015_Jul_21_1155	s	s	12	2	SIC	521	ABS	2	1	24VO	0	1	2.34765386581	None	None	None	None	1
1.7	2015_Jul_21_1155	s	s	12	2	SIC	522	RC	1	0	23MC	1	0	3.47898387909	431.0	-223.0	430	-218	1
1.7	2015_Jul_21_1155	s	s	12	2	SIC	523	RC	0	2	23RD	1	0	0.771515846252	-496.0	-165.0	-501	-164	1
1.7	2015_Jul_21_1155	s	s	12	2	SIC	524	RC	2	2	23VD	1	0	0.947166919708	222.0	-24.0	211	-21	1
1.7	2015_Jul_21_1155	s	s	12	2	SIC	525	ABS	1	0	24MC	0	1	1.16468000412	None	None	None	None	1
1.7	2015_Jul_21_1155	s	s	12	2	SIC	526	ABS	0	1	24RO	0	1	4.23395800591	None	None	None	None	1
1.7	2015_Jul_21_1155	s	s	12	2	SIC	527	ABS	1	2	24MD	0	1	0.650406122208	None	None	None	None	1
1.7	2015_Jul_21_1155	s	s	12	2	SIC	528	ABS	0	2	24RD	0	1	1.10603785515	None	None	None	None	1
1.7	2015_Jul_21_1155	s	s	12	2	SIC	529	ABS	0	2	24RD	0	1	1.13765597343	None	None	None	None	1
1.7	2015_Jul_21_1155	s	s	12	2	SIC	530	RC	2	2	23VD	1	0	0.560502052307	-74.0	-236.0	-65	-227	1
1.7	2015_Jul_21_1155	s	s	12	2	SIC	531	ABS	2	2	24VD	0	1	0.712137937546	None	None	None	None	1
1.7	2015_Jul_21_1155	s	s	12	2	SIC	532	ABS	1	1	24MO	0	1	3.13068199158	None	None	None	None	1
1.7	2015_Jul_21_1155	s	s	12	2	SIC	533	RC	2	1	23VO	1	0	0.489265918732	-494.0	-210.0	-495	-208	1
1.7	2015_Jul_21_1155	s	s	12	2	SIC	534	RC	0	1	23RO	1	0	3.17379808426	393.0	-239.0	394	-241	1
1.7	2015_Jul_21_1155	s	s	12	2	SIC	535	RC	0	2	23RD	1	0	1.37655901909	-462.0	-212.0	-462	-206	1
1.7	2015_Jul_21_1155	s	s	12	2	SIC	536	ABS	1	0	24MC	0	1	1.38840389252	None	None	None	None	1
1.7	2015_Jul_21_1155	s	s	12	2	SIC	537	RC	1	0	23MC	1	0	1.15290307999	-155.0	-271.0	-149	-279	1
1.7	2015_Jul_21_1155	s	s	12	2	SIC	538	ABS	0	1	24RO	0	1	3.23058009148	None	None	None	None	1
1.7	2015_Jul_21_1155	s	s	12	2	SIC	539	ABS	1	2	24MD	0	1	2.62422704697	None	None	None	None	1
1.7	2015_Jul_21_1155	s	s	12	2	SIC	540	RC	1	2	23MD	1	0	0.587919950485	44.0	-57.0	52	-56	1
1.7	2015_Jul_21_1155	s	s	12	2	SIC	541	RC	1	1	23MO	1	0	2.26641607285	504.0	374.0	498	372	1
1.7	2015_Jul_21_1155	s	s	12	2	SIC	542	ABS	2	1	24VO	0	1	0.78799700737	None	None	None	None	1
1.7	2015_Jul_21_1155	s	s	12	2	SIC	543	RC	2	0	23VC	1	0	0.5213098526	-306.0	350.0	-297	347	1
1.7	2015_Jul_21_1155	s	s	12	2	SIC	544	ABS	2	0	24VC	0	1	0.658571004868	None	None	None	None	1
1.7	2015_Jul_21_1155	s	s	12	2	SIC	545	ABS	2	2	24VD	0	1	0.528939962387	None	None	None	None	1
1.7	2015_Jul_21_1155	s	s	12	2	SIC	546	RC	1	1	23MO	1	0	1.1646630764	-478.0	-1.0	-472	2	1
1.7	2015_Jul_21_1155	s	s	12	2	SIC	547	ABS	1	1	24MO	0	1	2.25568604469	None	None	None	None	1
1.7	2015_Jul_21_1155	s	s	12	2	SIC	548	ABS	2	0	24VC	0	1	0.608052968979	None	None	None	None	1
1.7	2015_Jul_21_1155	s	s	12	2	SIC	549	ABS	1	2	24MD	0	1	1.31424713135	None	None	None	None	1
1.7	2015_Jul_21_1155	s	s	12	2	SIC	550	ABS	1	0	24MC	1	0	2.15063595772	None	None	-100	-231	0
1.7	2015_Jul_21_1155	s	s	12	2	SIC	551	RC	0	1	23RO	1	0	0.670315027237	-163.0	-87.0	-158	-86	1
1.7	2015_Jul_21_1155	s	s	12	2	SIC	552	RC	2	0	23VC	1	0	0.535787820816	386.0	162.0	379	161	1
1.7	2015_Jul_21_1155	s	s	12	2	SIC	553	RC	1	2	23MD	1	0	0.53507900238	-426.0	-10.0	-421	-6	1
1.7	2015_Jul_21_1155	s	s	12	2	SIC	554	RC	1	0	23MC	1	0	1.6825928688	356.0	-166.0	352	-166	1
1.7	2015_Jul_21_1155	s	s	12	2	SIC	555	RC	2	2	23VD	1	0	0.653917074203	-459.0	328.0	-467	330	1
1.7	2015_Jul_21_1155	s	s	12	2	SIC	556	RC	2	1	23VO	1	0	0.618535995483	212.0	-181.0	215	-176	1
1.7	2015_Jul_21_1155	s	s	12	2	SIC	557	ABS	0	2	24RD	0	1	1.92550301552	None	None	None	None	1
1.7	2015_Jul_21_1155	s	s	12	2	SIC	558	ABS	0	1	24RO	0	1	4.5254778862	None	None	None	None	1
1.7	2015_Jul_21_1155	s	s	12	2	SIC	559	RC	0	2	23RD	0	1	0.655339956284	534.0	-304.0	None	None	0
1.7	2015_Jul_21_1155	s	s	12	2	SIC	560	ABS	2	1	24VO	1	0	0.658560991287	None	None	69	-37	0
1.7	2015_Jul_21_1155	s	s	12	2	SIC	561	ABS	2	0	24VC	0	1	1.06695199013	None	None	None	None	1
1.7	2015_Jul_21_1155	s	s	12	2	SIC	562	RC	2	0	23VC	1	0	0.488540172577	54.0	-42.0	42	-33	1
1.7	2015_Jul_21_1155	s	s	12	2	SIC	563	RC	0	2	23RD	1	0	0.725596904755	-424.0	274.0	-429	274	1
1.7	2015_Jul_21_1155	s	s	12	2	SIC	564	RC	1	1	23MO	1	0	2.51251888275	-438.0	-344.0	-434	-343	1
1.7	2015_Jul_21_1155	s	s	12	2	SIC	565	ABS	1	2	24MD	0	1	2.16009187698	None	None	None	None	1
1.7	2015_Jul_21_1155	s	s	12	2	SIC	566	RC	1	2	23MD	1	0	0.654474020004	-166.0	-337.0	-168	-328	1
1.7	2015_Jul_21_1155	s	s	12	2	SIC	567	RC	1	0	23MC	1	0	0.9174721241	-111.0	360.0	-106	359	1
1.7	2015_Jul_21_1155	s	s	12	2	SIC	568	ABS	1	0	24MC	0	1	2.5628118515	None	None	None	None	1
1.7	2015_Jul_21_1155	s	s	12	2	SIC	569	ABS	1	1	24MO	0	1	3.41956591606	None	None	None	None	1
1.7	2015_Jul_21_1155	s	s	12	2	SIC	570	RC	2	1	23VO	1	0	0.843106031418	435.0	215.0	428	212	1
1.7	2015_Jul_21_1155	s	s	12	2	SIC	571	ABS	0	2	24RD	0	1	1.51777696609	None	None	None	None	1
1.7	2015_Jul_21_1155	s	s	12	2	SIC	572	ABS	0	1	24RO	0	1	3.29883909225	None	None	None	None	1
1.7	2015_Jul_21_1155	s	s	12	2	SIC	573	ABS	2	1	24VO	0	1	1.76155591011	None	None	None	None	1
1.7	2015_Jul_21_1155	s	s	12	2	SIC	574	RC	0	1	23RO	1	0	1.74752998352	-495.0	-77.0	-504	-75	1
1.7	2015_Jul_21_1155	s	s	12	2	SIC	575	ABS	2	2	24VD	0	1	1.38827395439	None	None	None	None	1
1.7	2015_Jul_21_1155	s	s	12	2	SIC	576	RC	2	2	23VD	1	0	1.21180605888	267.0	117.0	273	115	1
1.7	2015_Jul_21_1155	s	s	12	2	SIC	577	RC	1	2	23MD	1	0	0.560361862183	111.0	-261.0	105	-260	1
1.7	2015_Jul_21_1155	s	s	12	2	SIC	578	ABS	0	1	24RO	0	1	4.87851500511	None	None	None	None	1
1.7	2015_Jul_21_1155	s	s	12	2	SIC	579	RC	2	1	23VO	1	0	0.466599941254	-137.0	402.0	-148	408	1
1.7	2015_Jul_21_1155	s	s	12	2	SIC	580	ABS	1	0	24MC	1	0	1.09399819374	None	None	-121	298	0
1.7	2015_Jul_21_1155	s	s	12	2	SIC	581	RC	0	2	23RD	1	0	1.12424492836	-494.0	-12.0	-492	-13	1
1.7	2015_Jul_21_1155	s	s	12	2	SIC	582	ABS	1	2	24MD	0	1	0.876489877701	None	None	None	None	1
1.7	2015_Jul_21_1155	s	s	12	2	SIC	583	RC	1	0	23MC	1	0	0.717396020889	-351.0	-98.0	-138	363	0
1.7	2015_Jul_21_1155	s	s	12	2	SIC	584	ABS	0	2	24RD	0	1	0.95271396637	None	None	None	None	1
1.7	2015_Jul_21_1155	s	s	12	2	SIC	585	ABS	2	1	24VO	0	1	0.80641913414	None	None	None	None	1
1.7	2015_Jul_21_1155	s	s	12	2	SIC	586	RC	1	1	23MO	1	0	0.946785211563	215.0	18.0	208	15	1
1.7	2015_Jul_21_1155	s	s	12	2	SIC	587	ABS	2	2	24VD	0	1	0.829349994659	None	None	None	None	1
1.7	2015_Jul_21_1155	s	s	12	2	SIC	588	RC	2	2	23VD	1	0	0.632110118866	138.0	395.0	142	399	1
1.7	2015_Jul_21_1155	s	s	12	2	SIC	589	ABS	1	1	24MO	0	1	0.783025979996	None	None	None	None	1
1.7	2015_Jul_21_1155	s	s	12	2	SIC	590	RC	2	0	23VC	1	0	0.619137048721	-219.0	-382.0	-220	-382	1
1.7	2015_Jul_21_1155	s	s	12	2	SIC	591	ABS	2	0	24VC	0	1	0.623126029968	None	None	None	None	1
1.7	2015_Jul_21_1155	s	s	12	2	SIC	592	RC	0	1	23RO	0	1	1.41828298569	227.0	270.0	None	None	0
