Version	Date	Stimuli	Method	Subject	Session	Condition	Trial	Target	Channel1	Channel2	Distractors	LMouseButton	RMouseButton	RT	TargetX	TargetY	ResponseX	ResponseY	Correct
1.7	2015_Jul_22_1348	s	s	12	3	Capacity	1	ABS	2	0	24VC	0	1	0.962421178818	None	None	None	None	1
1.7	2015_Jul_22_1348	s	s	12	3	Capacity	2	RC	2	0	23VC	1	0	0.593919038773	-148.0	232.0	-147	238	1
1.7	2015_Jul_22_1348	s	s	12	3	Capacity	3	RC	1	0	23MC	0	1	1.16015696526	-391.0	-346.0	None	None	0
1.7	2015_Jul_22_1348	s	s	12	3	Capacity	4	ABS	1	0	24MC	0	1	1.23542690277	None	None	None	None	1
1.7	2015_Jul_22_1348	s	s	12	3	Capacity	5	RC	2	0	23VC	1	0	0.842972040176	456.0	-185.0	458	-176	1
1.7	2015_Jul_22_1348	s	s	12	3	Capacity	6	RC	1	0	23MC	1	0	1.13552212715	-54.0	217.0	-60	214	1
1.7	2015_Jul_22_1348	s	s	12	3	Capacity	7	ABS	1	0	24MC	0	1	1.80022501945	None	None	None	None	1
1.7	2015_Jul_22_1348	s	s	12	3	Capacity	8	ABS	2	0	24VC	1	0	0.665327072144	None	None	-174	84	0
1.7	2015_Jul_22_1348	s	s	12	3	Capacity	9	RC	1	0	23MC	1	0	2.08969497681	-537.0	-49.0	-539	-46	1
1.7	2015_Jul_22_1348	s	s	12	3	Capacity	10	RC	2	0	23VC	0	1	0.458440065384	180.0	-273.0	None	None	0
1.7	2015_Jul_22_1348	s	s	12	3	Capacity	11	ABS	1	0	24MC	0	1	0.988155126572	None	None	None	None	1
1.7	2015_Jul_22_1348	s	s	12	3	Capacity	12	ABS	2	0	24VC	0	1	0.641674995422	None	None	None	None	1
1.7	2015_Jul_22_1348	s	s	12	3	Capacity	13	RC	1	0	23MC	1	0	3.02439785004	-122.0	-233.0	-115	-240	1
1.7	2015_Jul_22_1348	s	s	12	3	Capacity	14	ABS	2	0	24VC	0	1	0.701509952545	None	None	None	None	1
1.7	2015_Jul_22_1348	s	s	12	3	Capacity	15	RC	2	0	23VC	1	0	0.564377069473	360.0	104.0	356	102	1
1.7	2015_Jul_22_1348	s	s	12	3	Capacity	16	ABS	1	0	24MC	0	1	0.776246070862	None	None	None	None	1
1.7	2015_Jul_22_1348	s	s	12	3	Capacity	17	ABS	2	0	24VC	0	1	0.741278171539	None	None	None	None	1
1.7	2015_Jul_22_1348	s	s	12	3	Capacity	18	RC	1	0	23MC	1	0	1.2705681324	-28.0	-58.0	-24	-52	1
1.7	2015_Jul_22_1348	s	s	12	3	Capacity	19	ABS	1	0	24MC	0	1	0.676541090012	None	None	None	None	1
1.7	2015_Jul_22_1348	s	s	12	3	Capacity	20	RC	2	0	23VC	1	0	0.549397945404	254.0	97.0	261	104	1
1.7	2015_Jul_22_1348	s	s	12	3	Capacity	21	ABS	1	0	24MC	0	1	0.900830984116	None	None	None	None	1
1.7	2015_Jul_22_1348	s	s	12	3	Capacity	22	ABS	2	0	24VC	0	1	0.72300195694	None	None	None	None	1
1.7	2015_Jul_22_1348	s	s	12	3	Capacity	23	RC	1	0	23MC	1	0	1.25478005409	107.0	-310.0	-264	85	0
1.7	2015_Jul_22_1348	s	s	12	3	Capacity	24	RC	2	0	23VC	1	0	0.544487953186	-380.0	173.0	-372	175	1
1.7	2015_Jul_22_1348	s	s	12	3	Capacity	25	RC	1	0	23MC	1	0	0.693773031235	326.0	142.0	331	142	1
1.7	2015_Jul_22_1348	s	s	12	3	Capacity	26	RC	2	0	23VC	0	1	0.788022994995	403.0	-405.0	None	None	0
1.7	2015_Jul_22_1348	s	s	12	3	Capacity	27	ABS	1	0	24MC	0	1	1.80027294159	None	None	None	None	1
1.7	2015_Jul_22_1348	s	s	12	3	Capacity	28	ABS	2	0	24VC	0	1	1.68304491043	None	None	None	None	1
1.7	2015_Jul_22_1348	s	s	12	3	Capacity	29	RC	1	0	23MC	1	0	1.18824315071	101.0	-234.0	102	-240	1
1.7	2015_Jul_22_1348	s	s	12	3	Capacity	30	ABS	2	0	24VC	0	1	0.878895044327	None	None	None	None	1
1.7	2015_Jul_22_1348	s	s	12	3	Capacity	31	ABS	1	0	24MC	0	1	1.7247300148	None	None	None	None	1
1.7	2015_Jul_22_1348	s	s	12	3	Capacity	32	RC	2	0	23VC	1	0	0.594682216644	248.0	55.0	253	58	1
1.7	2015_Jul_22_1348	s	s	12	3	Capacity	33	ABS	1	0	24MC	0	1	0.596922874451	None	None	None	None	1
1.7	2015_Jul_22_1348	s	s	12	3	Capacity	34	RC	2	0	23VC	1	0	0.503359079361	-248.0	178.0	-250	174	1
1.7	2015_Jul_22_1348	s	s	12	3	Capacity	35	ABS	2	0	24VC	0	1	0.329174995422	None	None	None	None	1
1.7	2015_Jul_22_1348	s	s	12	3	Capacity	36	RC	1	0	23MC	1	0	0.808883905411	437.0	117.0	431	119	1
1.7	2015_Jul_22_1348	s	s	12	3	Capacity	37	RC	1	0	23MC	1	0	1.37113189697	-146.0	-375.0	-142	-381	1
1.7	2015_Jul_22_1348	s	s	12	3	Capacity	38	ABS	1	0	24MC	0	1	1.63552093506	None	None	None	None	1
1.7	2015_Jul_22_1348	s	s	12	3	Capacity	39	RC	2	0	23VC	1	0	0.473945140839	6.0	-44.0	5	-50	1
1.7	2015_Jul_22_1348	s	s	12	3	Capacity	40	ABS	2	0	24VC	0	1	0.655256986618	None	None	None	None	1
1.7	2015_Jul_22_1348	s	s	12	3	Capacity	41	ABS	2	0	24VC	0	1	0.58821105957	None	None	None	None	1
1.7	2015_Jul_22_1348	s	s	12	3	Capacity	42	RC	2	0	23VC	1	0	0.652886152267	350.0	-385.0	353	-386	1
1.7	2015_Jul_22_1348	s	s	12	3	Capacity	43	ABS	1	0	24MC	0	1	0.655887842178	None	None	None	None	1
1.7	2015_Jul_22_1348	s	s	12	3	Capacity	44	RC	1	0	23MC	1	0	0.729145050049	33.0	292.0	30	286	1
1.7	2015_Jul_22_1348	s	s	12	3	Capacity	45	ABS	1	0	24MC	0	1	0.817718982697	None	None	None	None	1
1.7	2015_Jul_22_1348	s	s	12	3	Capacity	46	ABS	2	0	24VC	0	1	0.621047973633	None	None	None	None	1
1.7	2015_Jul_22_1348	s	s	12	3	Capacity	47	RC	1	0	23MC	1	0	0.99991106987	366.0	321.0	367	320	1
1.7	2015_Jul_22_1348	s	s	12	3	Capacity	48	RC	2	0	23VC	1	0	0.665490865707	392.0	50.0	388	44	1
1.7	2015_Jul_22_1348	s	s	12	3	Capacity	49	RC	2	0	23VC	1	0	0.54779291153	-145.0	359.0	-146	353	1
1.7	2015_Jul_22_1348	s	s	12	3	Capacity	50	ABS	1	0	24MC	0	1	0.628911018372	None	None	None	None	1
1.7	2015_Jul_22_1348	s	s	12	3	Capacity	51	ABS	2	0	24VC	0	1	0.57986497879	None	None	None	None	1
1.7	2015_Jul_22_1348	s	s	12	3	Capacity	52	RC	1	0	23MC	1	0	0.72901892662	-437.0	140.0	-432	143	1
1.7	2015_Jul_22_1348	s	s	12	3	Capacity	53	ABS	1	0	24MC	0	1	1.62367606163	None	None	None	None	1
1.7	2015_Jul_22_1348	s	s	12	3	Capacity	54	RC	1	0	23MC	1	0	0.832226037979	-401.0	-216.0	-389	-210	1
1.7	2015_Jul_22_1348	s	s	12	3	Capacity	55	ABS	2	0	24VC	0	1	0.653657913208	None	None	None	None	1
1.7	2015_Jul_22_1348	s	s	12	3	Capacity	56	RC	2	0	23VC	1	0	0.493824005127	139.0	44.0	139	43	1
1.7	2015_Jul_22_1348	s	s	12	3	Capacity	57	ABS	1	0	24MC	0	1	2.04726004601	None	None	None	None	1
1.7	2015_Jul_22_1348	s	s	12	3	Capacity	58	RC	2	0	23VC	1	0	0.50231385231	12.0	42.0	10	34	1
1.7	2015_Jul_22_1348	s	s	12	3	Capacity	59	RC	1	0	23MC	1	0	0.738432884216	119.0	-307.0	119	-307	1
1.7	2015_Jul_22_1348	s	s	12	3	Capacity	60	ABS	2	0	24VC	0	1	0.764365911484	None	None	None	None	1
1.7	2015_Jul_22_1348	s	s	12	3	Capacity	61	ABS	1	0	24MC	0	1	2.00935411453	None	None	None	None	1
1.7	2015_Jul_22_1348	s	s	12	3	Capacity	62	RC	2	0	23VC	1	0	0.434832811356	244.0	-124.0	247	-124	1
1.7	2015_Jul_22_1348	s	s	12	3	Capacity	63	ABS	2	0	24VC	0	1	1.08230900764	None	None	None	None	1
1.7	2015_Jul_22_1348	s	s	12	3	Capacity	64	RC	1	0	23MC	1	0	1.27686309814	-13.0	-363.0	-14	-370	1
1.7	2015_Jul_22_1348	s	s	12	3	Capacity	65	ABS	1	0	24MC	0	1	1.39445996284	None	None	None	None	1
1.7	2015_Jul_22_1348	s	s	12	3	Capacity	66	RC	2	0	23VC	1	0	0.587928056717	454.0	-153.0	448	-158	1
1.7	2015_Jul_22_1348	s	s	12	3	Capacity	67	RC	1	0	23MC	1	0	0.807772874832	447.0	199.0	440	198	1
1.7	2015_Jul_22_1348	s	s	12	3	Capacity	68	ABS	2	0	24VC	0	1	0.879672050476	None	None	None	None	1
1.7	2015_Jul_22_1348	s	s	12	3	Capacity	69	RC	1	0	23MC	1	0	0.658451080322	-372.0	-120.0	-372	-116	1
1.7	2015_Jul_22_1348	s	s	12	3	Capacity	70	RC	2	0	23VC	1	0	0.505498170853	134.0	307.0	127	302	1
1.7	2015_Jul_22_1348	s	s	12	3	Capacity	71	ABS	1	0	24MC	0	1	2.27824616432	None	None	None	None	1
1.7	2015_Jul_22_1348	s	s	12	3	Capacity	72	ABS	2	0	24VC	0	1	0.818405866623	None	None	None	None	1
1.7	2015_Jul_22_1348	s	s	12	3	Capacity	73	RC	2	0	23VC	1	0	0.764560937881	-485.0	318.0	-478	318	1
1.7	2015_Jul_22_1348	s	s	12	3	Capacity	74	ABS	2	0	24VC	0	1	0.676792860031	None	None	None	None	1
1.7	2015_Jul_22_1348	s	s	12	3	Capacity	75	RC	1	0	23MC	1	0	0.988087177277	-24.0	-104.0	-25	-104	1
1.7	2015_Jul_22_1348	s	s	12	3	Capacity	76	ABS	1	0	24MC	0	1	1.4415769577	None	None	None	None	1
1.7	2015_Jul_22_1348	s	s	12	3	Capacity	77	RC	1	0	23MC	1	0	0.846814870834	-146.0	373.0	-142	379	1
1.7	2015_Jul_22_1348	s	s	12	3	Capacity	78	ABS	1	0	24MC	0	1	1.98853993416	None	None	None	None	1
1.7	2015_Jul_22_1348	s	s	12	3	Capacity	79	RC	2	0	23VC	1	0	0.552539825439	236.0	101.0	240	102	1
1.7	2015_Jul_22_1348	s	s	12	3	Capacity	80	ABS	2	0	24VC	0	1	0.72428894043	None	None	None	None	1
1.7	2015_Jul_22_1348	s	s	12	3	Capacity	81	ABS	2	0	24VC	0	1	1.06779503822	None	None	None	None	1
1.7	2015_Jul_22_1348	s	s	12	3	Capacity	82	ABS	1	0	24MC	0	1	2.172549963	None	None	None	None	1
1.7	2015_Jul_22_1348	s	s	12	3	Capacity	83	RC	2	0	23VC	1	0	0.512042999268	96.0	275.0	84	279	1
1.7	2015_Jul_22_1348	s	s	12	3	Capacity	84	RC	1	0	23MC	1	0	0.893743038177	-329.0	19.0	-337	22	1
1.7	2015_Jul_22_1348	s	s	12	3	Capacity	85	RC	1	0	23MC	1	0	1.19624400139	451.0	103.0	442	102	1
1.7	2015_Jul_22_1348	s	s	12	3	Capacity	86	RC	2	0	23VC	1	0	0.467735052109	-398.0	-287.0	-391	-278	1
1.7	2015_Jul_22_1348	s	s	12	3	Capacity	87	ABS	2	0	24VC	0	1	1.7859210968	None	None	None	None	1
1.7	2015_Jul_22_1348	s	s	12	3	Capacity	88	ABS	1	0	24MC	0	1	2.58885812759	None	None	None	None	1
1.7	2015_Jul_22_1348	s	s	12	3	Capacity	89	ABS	2	0	24VC	0	1	0.866883993149	None	None	None	None	1
1.7	2015_Jul_22_1348	s	s	12	3	Capacity	90	RC	2	0	23VC	1	0	0.528970956802	-248.0	-188.0	-251	-186	1
1.7	2015_Jul_22_1348	s	s	12	3	Capacity	91	RC	1	0	23MC	1	0	1.22334909439	376.0	122.0	368	116	1
1.7	2015_Jul_22_1348	s	s	12	3	Capacity	92	ABS	1	0	24MC	0	1	1.66331315041	None	None	None	None	1
1.7	2015_Jul_22_1348	s	s	12	3	Capacity	1	RC	0	1	23RO	1	0	1.05651211739	201.0	254.0	200	251	1
1.7	2015_Jul_22_1348	s	s	12	3	Capacity	2	ABS	0	2	24RD	0	1	1.21173596382	None	None	None	None	1
1.7	2015_Jul_22_1348	s	s	12	3	Capacity	3	RC	0	2	23RD	1	0	0.605951070786	-435.0	-250.0	-432	-250	1
1.7	2015_Jul_22_1348	s	s	12	3	Capacity	4	ABS	0	1	24RO	0	1	3.0195710659	None	None	None	None	1
1.7	2015_Jul_22_1348	s	s	12	3	Capacity	5	RC	0	1	23RO	1	0	1.34122204781	-9.0	305.0	-9	312	1
1.7	2015_Jul_22_1348	s	s	12	3	Capacity	6	ABS	0	2	24RD	0	1	1.22995090485	None	None	None	None	1
1.7	2015_Jul_22_1348	s	s	12	3	Capacity	7	RC	0	2	23RD	1	0	0.572863101959	-50.0	375.0	-49	384	1
1.7	2015_Jul_22_1348	s	s	12	3	Capacity	8	ABS	0	1	24RO	0	1	4.76371598244	None	None	None	None	1
1.7	2015_Jul_22_1348	s	s	12	3	Capacity	9	ABS	0	2	24RD	0	1	0.783001899719	None	None	None	None	1
1.7	2015_Jul_22_1348	s	s	12	3	Capacity	10	ABS	0	1	24RO	0	1	4.47267389297	None	None	None	None	1
1.7	2015_Jul_22_1348	s	s	12	3	Capacity	11	RC	0	1	23RO	1	0	1.38831400871	-280.0	-80.0	-286	-76	1
1.7	2015_Jul_22_1348	s	s	12	3	Capacity	12	RC	0	2	23RD	1	0	0.582875013351	-67.0	275.0	-61	282	1
1.7	2015_Jul_22_1348	s	s	12	3	Capacity	13	RC	0	1	23RO	0	1	2.41656780243	61.0	-316.0	None	None	0
1.7	2015_Jul_22_1348	s	s	12	3	Capacity	14	RC	0	2	23RD	1	0	0.500451087952	76.0	108.0	71	112	1
1.7	2015_Jul_22_1348	s	s	12	3	Capacity	15	ABS	0	2	24RD	0	1	1.03192996979	None	None	None	None	1
1.7	2015_Jul_22_1348	s	s	12	3	Capacity	16	ABS	0	1	24RO	0	1	4.04302406311	None	None	None	None	1
1.7	2015_Jul_22_1348	s	s	12	3	Capacity	17	ABS	0	1	24RO	0	1	3.75794410706	None	None	None	None	1
1.7	2015_Jul_22_1348	s	s	12	3	Capacity	18	ABS	0	2	24RD	0	1	1.18455600739	None	None	None	None	1
1.7	2015_Jul_22_1348	s	s	12	3	Capacity	19	RC	0	1	23RO	1	0	3.29038691521	450.0	237.0	451	233	1
1.7	2015_Jul_22_1348	s	s	12	3	Capacity	20	RC	0	2	23RD	1	0	0.605855941772	117.0	0.0	117	1	1
1.7	2015_Jul_22_1348	s	s	12	3	Capacity	21	RC	0	1	23RO	1	0	1.48242998123	-203.0	-8.0	-200	-6	1
1.7	2015_Jul_22_1348	s	s	12	3	Capacity	22	RC	0	2	23RD	1	0	0.623054981232	509.0	91.0	509	97	1
1.7	2015_Jul_22_1348	s	s	12	3	Capacity	23	ABS	0	1	24RO	0	1	3.98488998413	None	None	None	None	1
1.7	2015_Jul_22_1348	s	s	12	3	Capacity	24	ABS	0	2	24RD	0	1	0.947378873825	None	None	None	None	1
1.7	2015_Jul_22_1348	s	s	12	3	Capacity	25	ABS	0	1	24RO	0	1	4.64608502388	None	None	None	None	1
1.7	2015_Jul_22_1348	s	s	12	3	Capacity	26	RC	0	2	23RD	1	0	0.596153020859	-522.0	-383.0	-524	-377	1
1.7	2015_Jul_22_1348	s	s	12	3	Capacity	27	RC	0	1	23RO	1	0	0.888290882111	-93.0	138.0	-88	129	1
1.7	2015_Jul_22_1348	s	s	12	3	Capacity	28	ABS	0	2	24RD	0	1	1.4558660984	None	None	None	None	1
1.7	2015_Jul_22_1348	s	s	12	3	Capacity	29	ABS	0	2	24RD	0	1	1.36097288132	None	None	None	None	1
1.7	2015_Jul_22_1348	s	s	12	3	Capacity	30	RC	0	1	23RO	1	0	2.33620619774	-264.0	-260.0	-268	-273	1
1.7	2015_Jul_22_1348	s	s	12	3	Capacity	31	ABS	0	1	24RO	0	1	3.74827504158	None	None	None	None	1
1.7	2015_Jul_22_1348	s	s	12	3	Capacity	32	RC	0	2	23RD	1	0	0.54079079628	65.0	237.0	58	235	1
1.7	2015_Jul_22_1348	s	s	12	3	Capacity	33	RC	0	2	23RD	1	0	0.570152044296	-363.0	174.0	-367	176	1
1.7	2015_Jul_22_1348	s	s	12	3	Capacity	34	RC	0	1	23RO	1	0	0.599535942078	-25.0	127.0	-36	129	1
1.7	2015_Jul_22_1348	s	s	12	3	Capacity	35	ABS	0	1	24RO	0	1	4.75232291222	None	None	None	None	1
1.7	2015_Jul_22_1348	s	s	12	3	Capacity	36	ABS	0	2	24RD	0	1	1.51469397545	None	None	None	None	1
1.7	2015_Jul_22_1348	s	s	12	3	Capacity	37	RC	0	1	23RO	1	0	3.82480406761	348.0	-39.0	346	-30	1
1.7	2015_Jul_22_1348	s	s	12	3	Capacity	38	RC	0	2	23RD	1	0	0.611331939697	-109.0	-406.0	-105	-410	1
1.7	2015_Jul_22_1348	s	s	12	3	Capacity	39	ABS	0	1	24RO	0	1	4.59871101379	None	None	None	None	1
1.7	2015_Jul_22_1348	s	s	12	3	Capacity	40	ABS	0	2	24RD	0	1	1.04456615448	None	None	None	None	1
1.7	2015_Jul_22_1348	s	s	12	3	Capacity	41	ABS	0	2	24RD	0	1	1.54722189903	None	None	None	None	1
1.7	2015_Jul_22_1348	s	s	12	3	Capacity	42	ABS	0	1	24RO	0	1	5.10823011398	None	None	None	None	1
1.7	2015_Jul_22_1348	s	s	12	3	Capacity	43	RC	0	2	23RD	1	0	0.587870836258	350.0	-348.0	353	-346	1
1.7	2015_Jul_22_1348	s	s	12	3	Capacity	44	RC	0	1	23RO	0	1	4.88410210609	524.0	116.0	None	None	0
1.7	2015_Jul_22_1348	s	s	12	3	Capacity	45	RC	0	1	23RO	0	1	8.80383205414	514.0	-270.0	None	None	0
1.7	2015_Jul_22_1348	s	s	12	3	Capacity	46	RC	0	2	23RD	1	0	0.846874952316	384.0	270.0	380	266	1
1.7	2015_Jul_22_1348	s	s	12	3	Capacity	47	ABS	0	2	24RD	0	1	1.52938604355	None	None	None	None	1
1.7	2015_Jul_22_1348	s	s	12	3	Capacity	48	ABS	0	1	24RO	0	1	8.00106501579	None	None	None	None	1
1.7	2015_Jul_22_1348	s	s	12	3	Capacity	49	ABS	0	2	24RD	0	1	0.976209163666	None	None	None	None	1
1.7	2015_Jul_22_1348	s	s	12	3	Capacity	50	RC	0	1	23RO	1	0	1.59264492989	-9.0	258.0	-15	249	1
1.7	2015_Jul_22_1348	s	s	12	3	Capacity	51	RC	0	2	23RD	1	0	0.568091154099	536.0	385.0	526	391	1
1.7	2015_Jul_22_1348	s	s	12	3	Capacity	52	ABS	0	1	24RO	0	1	8.33990597725	None	None	None	None	1
1.7	2015_Jul_22_1348	s	s	12	3	Capacity	53	ABS	0	1	24RO	0	1	4.36130094528	None	None	None	None	1
1.7	2015_Jul_22_1348	s	s	12	3	Capacity	54	ABS	0	2	24RD	0	1	1.29413604736	None	None	None	None	1
1.7	2015_Jul_22_1348	s	s	12	3	Capacity	55	RC	0	1	23RO	0	1	3.50698399544	421.0	261.0	None	None	0
1.7	2015_Jul_22_1348	s	s	12	3	Capacity	56	RC	0	2	23RD	1	0	0.634988069534	-404.0	-251.0	-401	-252	1
1.7	2015_Jul_22_1348	s	s	12	3	Capacity	57	RC	0	2	23RD	1	0	0.548889160156	-18.0	29.0	-7	36	1
1.7	2015_Jul_22_1348	s	s	12	3	Capacity	58	ABS	0	2	24RD	0	1	1.06723499298	None	None	None	None	1
1.7	2015_Jul_22_1348	s	s	12	3	Capacity	59	ABS	0	1	24RO	0	1	3.79797387123	None	None	None	None	1
1.7	2015_Jul_22_1348	s	s	12	3	Capacity	60	RC	0	1	23RO	1	0	1.81195306778	-362.0	-32.0	-366	-24	1
1.7	2015_Jul_22_1348	s	s	12	3	Capacity	61	RC	0	1	23RO	1	0	0.782917022705	-319.0	68.0	-318	71	1
1.7	2015_Jul_22_1348	s	s	12	3	Capacity	62	RC	0	2	23RD	1	0	0.517354011536	-409.0	226.0	-403	224	1
1.7	2015_Jul_22_1348	s	s	12	3	Capacity	63	ABS	0	1	24RO	0	1	4.58987998962	None	None	None	None	1
1.7	2015_Jul_22_1348	s	s	12	3	Capacity	64	ABS	0	2	24RD	0	1	1.00028896332	None	None	None	None	1
1.7	2015_Jul_22_1348	s	s	12	3	Capacity	65	ABS	0	1	24RO	0	1	4.12552499771	None	None	None	None	1
1.7	2015_Jul_22_1348	s	s	12	3	Capacity	66	RC	0	2	23RD	1	0	0.630455970764	209.0	180.0	209	182	1
1.7	2015_Jul_22_1348	s	s	12	3	Capacity	67	RC	0	1	23RO	1	0	2.20041298866	346.0	-343.0	347	-339	1
1.7	2015_Jul_22_1348	s	s	12	3	Capacity	68	ABS	0	2	24RD	0	1	0.867527008057	None	None	None	None	1
1.7	2015_Jul_22_1348	s	s	12	3	Capacity	69	RC	0	1	23RO	0	1	4.27891111374	420.0	-89.0	None	None	0
1.7	2015_Jul_22_1348	s	s	12	3	Capacity	70	RC	0	2	23RD	1	0	0.537433862686	-359.0	-384.0	-347	-381	1
1.7	2015_Jul_22_1348	s	s	12	3	Capacity	71	ABS	0	2	24RD	0	1	0.846843004227	None	None	None	None	1
1.7	2015_Jul_22_1348	s	s	12	3	Capacity	72	ABS	0	1	24RO	0	1	3.90728712082	None	None	None	None	1
1.7	2015_Jul_22_1348	s	s	12	3	Capacity	73	ABS	0	2	24RD	0	1	0.717336893082	None	None	None	None	1
1.7	2015_Jul_22_1348	s	s	12	3	Capacity	74	ABS	0	1	24RO	0	1	3.51380801201	None	None	None	None	1
1.7	2015_Jul_22_1348	s	s	12	3	Capacity	75	RC	0	2	23RD	1	0	0.69374704361	-250.0	-315.0	-250	-312	1
1.7	2015_Jul_22_1348	s	s	12	3	Capacity	76	RC	0	1	23RO	1	0	3.036206007	473.0	-160.0	470	-159	1
1.7	2015_Jul_22_1348	s	s	12	3	Capacity	77	RC	0	1	23RO	0	1	4.00137209892	466.0	178.0	None	None	0
1.7	2015_Jul_22_1348	s	s	12	3	Capacity	78	ABS	0	2	24RD	0	1	1.0180118084	None	None	None	None	1
1.7	2015_Jul_22_1348	s	s	12	3	Capacity	79	RC	0	2	23RD	1	0	0.540761947632	378.0	304.0	372	307	1
1.7	2015_Jul_22_1348	s	s	12	3	Capacity	80	ABS	0	1	24RO	0	1	3.91099786758	None	None	None	None	1
1.7	2015_Jul_22_1348	s	s	12	3	Capacity	81	RC	0	1	23RO	1	0	2.83052897453	81.0	165.0	75	172	1
1.7	2015_Jul_22_1348	s	s	12	3	Capacity	82	RC	0	2	23RD	1	0	0.879745006561	384.0	186.0	388	185	1
1.7	2015_Jul_22_1348	s	s	12	3	Capacity	83	ABS	0	1	24RO	0	1	5.74084806442	None	None	None	None	1
1.7	2015_Jul_22_1348	s	s	12	3	Capacity	84	ABS	0	2	24RD	0	1	1.30587816238	None	None	None	None	1
1.7	2015_Jul_22_1348	s	s	12	3	Capacity	85	RC	0	2	23RD	1	0	0.536739110947	-84.0	-95.0	-87	-103	1
1.7	2015_Jul_22_1348	s	s	12	3	Capacity	86	ABS	0	2	24RD	0	1	1.01982116699	None	None	None	None	1
1.7	2015_Jul_22_1348	s	s	12	3	Capacity	87	ABS	0	1	24RO	0	1	3.61053609848	None	None	None	None	1
1.7	2015_Jul_22_1348	s	s	12	3	Capacity	88	RC	0	1	23RO	1	0	3.46940493584	-300.0	-230.0	-297	-228	1
1.7	2015_Jul_22_1348	s	s	12	3	Capacity	89	RC	0	1	23RO	1	0	1.07038998604	-470.0	226.0	-473	225	1
1.7	2015_Jul_22_1348	s	s	12	3	Capacity	90	ABS	0	2	24RD	0	1	1.60019493103	None	None	None	None	1
1.7	2015_Jul_22_1348	s	s	12	3	Capacity	91	ABS	0	1	24RO	0	1	4.5726878643	None	None	None	None	1
1.7	2015_Jul_22_1348	s	s	12	3	Capacity	92	RC	0	2	23RD	1	0	0.587893009186	103.0	-346.0	110	-348	1
1.7	2015_Jul_22_1348	s	s	12	3	SIC	1	RC	2	2	23VD	1	0	0.582668066025	463.0	-24.0	469	-15	1
1.7	2015_Jul_22_1348	s	s	12	3	SIC	2	ABS	0	2	24RD	0	1	1.05209708214	None	None	None	None	1
1.7	2015_Jul_22_1348	s	s	12	3	SIC	3	RC	0	1	23RO	1	0	2.30129098892	417.0	-192.0	415	-188	1
1.7	2015_Jul_22_1348	s	s	12	3	SIC	4	RC	2	0	23VC	1	0	0.419170856476	155.0	-117.0	153	-113	1
1.7	2015_Jul_22_1348	s	s	12	3	SIC	5	ABS	1	1	24MO	0	1	1.77210617065	None	None	None	None	1
1.7	2015_Jul_22_1348	s	s	12	3	SIC	6	ABS	2	1	24VO	0	1	0.900274991989	None	None	None	None	1
1.7	2015_Jul_22_1348	s	s	12	3	SIC	7	ABS	0	1	24RO	0	1	2.9984691143	None	None	None	None	1
1.7	2015_Jul_22_1348	s	s	12	3	SIC	8	ABS	2	2	24VD	0	1	0.591542959213	None	None	None	None	1
1.7	2015_Jul_22_1348	s	s	12	3	SIC	9	RC	1	2	23MD	1	0	0.611440896988	187.0	309.0	193	315	1
1.7	2015_Jul_22_1348	s	s	12	3	SIC	10	RC	0	2	23RD	1	0	0.529071092606	-132.0	402.0	-139	401	1
1.7	2015_Jul_22_1348	s	s	12	3	SIC	11	RC	1	1	23MO	1	0	0.88964509964	400.0	-192.0	400	-198	1
1.7	2015_Jul_22_1348	s	s	12	3	SIC	12	ABS	1	2	24MD	0	1	0.905725002289	None	None	None	None	1
1.7	2015_Jul_22_1348	s	s	12	3	SIC	13	RC	1	0	23MC	1	0	0.617926836014	-283.0	-322.0	-278	-323	1
1.7	2015_Jul_22_1348	s	s	12	3	SIC	14	RC	2	1	23VO	1	0	0.441663980484	144.0	-322.0	152	-313	1
1.7	2015_Jul_22_1348	s	s	12	3	SIC	15	ABS	1	0	24MC	0	1	1.53612518311	None	None	None	None	1
1.7	2015_Jul_22_1348	s	s	12	3	SIC	16	ABS	2	0	24VC	0	1	0.740806818008	None	None	None	None	1
1.7	2015_Jul_22_1348	s	s	12	3	SIC	17	RC	2	0	23VC	1	0	0.544429063797	376.0	45.0	379	45	1
1.7	2015_Jul_22_1348	s	s	12	3	SIC	18	RC	1	2	23MD	1	0	0.889059066772	335.0	89.0	334	92	1
1.7	2015_Jul_22_1348	s	s	12	3	SIC	19	RC	1	1	23MO	1	0	1.00652503967	474.0	268.0	475	269	1
1.7	2015_Jul_22_1348	s	s	12	3	SIC	20	ABS	2	0	24VC	0	1	0.630429983139	None	None	None	None	1
1.7	2015_Jul_22_1348	s	s	12	3	SIC	21	RC	2	1	23VO	1	0	0.458359956741	405.0	259.0	410	259	1
1.7	2015_Jul_22_1348	s	s	12	3	SIC	22	RC	0	2	23RD	1	0	0.470197916031	433.0	100.0	444	100	1
1.7	2015_Jul_22_1348	s	s	12	3	SIC	23	ABS	1	2	24MD	0	1	1.17273378372	None	None	None	None	1
1.7	2015_Jul_22_1348	s	s	12	3	SIC	24	RC	1	0	23MC	1	0	0.944797039032	-21.0	-174.0	-20	-167	1
1.7	2015_Jul_22_1348	s	s	12	3	SIC	25	ABS	2	1	24VO	0	1	0.693818092346	None	None	None	None	1
1.7	2015_Jul_22_1348	s	s	12	3	SIC	26	RC	2	2	23VD	1	0	0.470103025436	-270.0	188.0	-272	189	1
1.7	2015_Jul_22_1348	s	s	12	3	SIC	27	ABS	0	2	24RD	0	1	1.14095711708	None	None	None	None	1
1.7	2015_Jul_22_1348	s	s	12	3	SIC	28	ABS	1	0	24MC	0	1	1.64165592194	None	None	None	None	1
1.7	2015_Jul_22_1348	s	s	12	3	SIC	29	ABS	0	1	24RO	0	1	5.08082199097	None	None	None	None	1
1.7	2015_Jul_22_1348	s	s	12	3	SIC	30	ABS	2	2	24VD	0	1	0.677674055099	None	None	None	None	1
1.7	2015_Jul_22_1348	s	s	12	3	SIC	31	RC	0	1	23RO	1	0	2.33368110657	447.0	51.0	458	60	1
1.7	2015_Jul_22_1348	s	s	12	3	SIC	32	ABS	1	1	24MO	0	1	2.89096498489	None	None	None	None	1
1.7	2015_Jul_22_1348	s	s	12	3	SIC	33	RC	2	2	23VD	1	0	0.434777975082	168.0	3.0	171	2	1
1.7	2015_Jul_22_1348	s	s	12	3	SIC	34	ABS	1	2	24MD	0	1	1.32463097572	None	None	None	None	1
1.7	2015_Jul_22_1348	s	s	12	3	SIC	35	ABS	1	0	24MC	0	1	2.56012916565	None	None	None	None	1
1.7	2015_Jul_22_1348	s	s	12	3	SIC	36	ABS	2	0	24VC	0	1	0.658499956131	None	None	None	None	1
1.7	2015_Jul_22_1348	s	s	12	3	SIC	37	ABS	0	1	24RO	0	1	4.28390288353	None	None	None	None	1
1.7	2015_Jul_22_1348	s	s	12	3	SIC	38	RC	1	1	23MO	1	0	1.31281614304	-514.0	-175.0	-506	-166	1
1.7	2015_Jul_22_1348	s	s	12	3	SIC	39	ABS	1	1	24MO	0	1	1.08200001717	None	None	None	None	1
1.7	2015_Jul_22_1348	s	s	12	3	SIC	40	RC	0	1	23RO	1	0	2.10230207443	212.0	-388.0	223	-384	1
1.7	2015_Jul_22_1348	s	s	12	3	SIC	41	ABS	2	1	24VO	1	0	0.485721111298	None	None	4	22	0
1.7	2015_Jul_22_1348	s	s	12	3	SIC	42	RC	2	0	23VC	1	0	0.540712118149	-222.0	-205.0	-213	-204	1
1.7	2015_Jul_22_1348	s	s	12	3	SIC	43	RC	1	2	23MD	1	0	0.488244056702	-105.0	-353.0	-103	-364	1
1.7	2015_Jul_22_1348	s	s	12	3	SIC	44	RC	0	2	23RD	1	0	0.564301967621	58.0	288.0	59	287	1
1.7	2015_Jul_22_1348	s	s	12	3	SIC	45	RC	1	0	23MC	1	0	1.58362197876	465.0	-320.0	474	-323	1
1.7	2015_Jul_22_1348	s	s	12	3	SIC	46	RC	2	1	23VO	1	0	0.505495071411	-352.0	-194.0	-356	-196	1
1.7	2015_Jul_22_1348	s	s	12	3	SIC	47	ABS	0	2	24RD	0	1	1.19187688828	None	None	None	None	1
1.7	2015_Jul_22_1348	s	s	12	3	SIC	48	ABS	2	2	24VD	0	1	0.740957975388	None	None	None	None	1
1.7	2015_Jul_22_1348	s	s	12	3	SIC	49	RC	0	1	23RO	1	0	3.20101881027	-431.0	-372.0	-436	-371	1
1.7	2015_Jul_22_1348	s	s	12	3	SIC	50	RC	1	0	23MC	1	0	0.764456033707	361.0	-260.0	369	-264	1
1.7	2015_Jul_22_1348	s	s	12	3	SIC	51	ABS	0	1	24RO	0	1	6.2377820015	None	None	None	None	1
1.7	2015_Jul_22_1348	s	s	12	3	SIC	52	RC	0	2	23RD	1	0	0.772686958313	258.0	-289.0	255	-285	1
1.7	2015_Jul_22_1348	s	s	12	3	SIC	53	ABS	1	1	24MO	1	0	2.72521805763	None	None	87	-62	0
1.7	2015_Jul_22_1348	s	s	12	3	SIC	54	RC	2	0	23VC	1	0	0.488876819611	122.0	156.0	121	158	1
1.7	2015_Jul_22_1348	s	s	12	3	SIC	55	RC	1	1	23MO	1	0	0.611330986023	181.0	64.0	177	69	1
1.7	2015_Jul_22_1348	s	s	12	3	SIC	56	ABS	2	0	24VC	0	1	0.717292070389	None	None	None	None	1
1.7	2015_Jul_22_1348	s	s	12	3	SIC	57	ABS	0	2	24RD	0	1	0.841169118881	None	None	None	None	1
1.7	2015_Jul_22_1348	s	s	12	3	SIC	58	RC	1	2	23MD	1	0	0.95263004303	112.0	167.0	116	171	1
1.7	2015_Jul_22_1348	s	s	12	3	SIC	59	ABS	2	2	24VD	0	1	0.597306966782	None	None	None	None	1
1.7	2015_Jul_22_1348	s	s	12	3	SIC	60	RC	2	1	23VO	1	0	0.5853099823	-459.0	330.0	-458	327	1
1.7	2015_Jul_22_1348	s	s	12	3	SIC	61	RC	2	2	23VD	1	0	0.465246200562	-140.0	-262.0	-148	-257	1
1.7	2015_Jul_22_1348	s	s	12	3	SIC	62	ABS	1	2	24MD	0	1	1.25889992714	None	None	None	None	1
1.7	2015_Jul_22_1348	s	s	12	3	SIC	63	ABS	2	1	24VO	0	1	1.97393202782	None	None	None	None	1
1.7	2015_Jul_22_1348	s	s	12	3	SIC	64	ABS	1	0	24MC	0	1	2.66576004028	None	None	None	None	1
1.7	2015_Jul_22_1348	s	s	12	3	SIC	65	RC	2	1	23VO	1	0	0.811490058899	266.0	-99.0	269	-90	1
1.7	2015_Jul_22_1348	s	s	12	3	SIC	66	ABS	1	1	24MO	0	1	2.37685585022	None	None	None	None	1
1.7	2015_Jul_22_1348	s	s	12	3	SIC	67	RC	1	1	23MO	1	0	0.670336961746	114.0	-79.0	117	-71	1
1.7	2015_Jul_22_1348	s	s	12	3	SIC	68	ABS	2	0	24VC	0	1	0.564345836639	None	None	None	None	1
1.7	2015_Jul_22_1348	s	s	12	3	SIC	69	RC	2	0	23VC	1	0	2.50178313255	-297.0	-11.0	-287	-8	1
1.7	2015_Jul_22_1348	s	s	12	3	SIC	70	RC	0	2	23RD	1	0	0.850558996201	-531.0	281.0	-533	278	1
1.7	2015_Jul_22_1348	s	s	12	3	SIC	71	RC	1	0	23MC	1	0	1.1566529274	420.0	397.0	418	391	1
1.7	2015_Jul_22_1348	s	s	12	3	SIC	72	ABS	2	1	24VO	0	1	3.28096103668	None	None	None	None	1
1.7	2015_Jul_22_1348	s	s	12	3	SIC	73	RC	2	2	23VD	1	0	0.446586847305	-221.0	-341.0	-230	-339	1
1.7	2015_Jul_22_1348	s	s	12	3	SIC	74	ABS	1	2	24MD	0	1	1.39995312691	None	None	None	None	1
1.7	2015_Jul_22_1348	s	s	12	3	SIC	75	ABS	2	2	24VD	0	1	0.653282880783	None	None	None	None	1
1.7	2015_Jul_22_1348	s	s	12	3	SIC	76	ABS	1	0	24MC	0	1	4.92884612083	None	None	None	None	1
1.7	2015_Jul_22_1348	s	s	12	3	SIC	77	RC	0	1	23RO	1	0	1.53682994843	507.0	333.0	511	332	1
1.7	2015_Jul_22_1348	s	s	12	3	SIC	78	ABS	0	2	24RD	0	1	1.7741189003	None	None	None	None	1
1.7	2015_Jul_22_1348	s	s	12	3	SIC	79	ABS	0	1	24RO	0	1	5.87039899826	None	None	None	None	1
1.7	2015_Jul_22_1348	s	s	12	3	SIC	80	RC	1	2	23MD	1	0	0.700143098831	527.0	-21.0	523	-24	1
1.7	2015_Jul_22_1348	s	s	12	3	SIC	81	RC	0	1	23RO	1	0	1.9038579464	272.0	-278.0	279	-285	1
1.7	2015_Jul_22_1348	s	s	12	3	SIC	82	RC	0	2	23RD	1	0	0.485680103302	-31.0	-37.0	-32	-37	1
1.7	2015_Jul_22_1348	s	s	12	3	SIC	83	ABS	2	0	24VC	0	1	0.776107788086	None	None	None	None	1
1.7	2015_Jul_22_1348	s	s	12	3	SIC	84	ABS	2	2	24VD	0	1	0.819406986237	None	None	None	None	1
1.7	2015_Jul_22_1348	s	s	12	3	SIC	85	ABS	1	2	24MD	0	1	1.02942585945	None	None	None	None	1
1.7	2015_Jul_22_1348	s	s	12	3	SIC	86	RC	2	0	23VC	1	0	0.646713972092	-506.0	113.0	-504	120	1
1.7	2015_Jul_22_1348	s	s	12	3	SIC	87	ABS	1	1	24MO	0	1	3.37284302711	None	None	None	None	1
1.7	2015_Jul_22_1348	s	s	12	3	SIC	88	RC	2	1	23VO	1	0	0.535779953003	-135.0	79.0	-140	83	1
1.7	2015_Jul_22_1348	s	s	12	3	SIC	89	ABS	1	0	24MC	0	1	2.6669151783	None	None	None	None	1
1.7	2015_Jul_22_1348	s	s	12	3	SIC	90	ABS	2	1	24VO	0	1	0.794054985046	None	None	None	None	1
1.7	2015_Jul_22_1348	s	s	12	3	SIC	91	ABS	0	2	24RD	0	1	0.865449905396	None	None	None	None	1
1.7	2015_Jul_22_1348	s	s	12	3	SIC	92	ABS	0	1	24RO	0	1	4.30250000954	None	None	None	None	1
1.7	2015_Jul_22_1348	s	s	12	3	SIC	93	RC	1	2	23MD	1	0	0.666941165924	337.0	-263.0	335	-256	1
1.7	2015_Jul_22_1348	s	s	12	3	SIC	94	RC	1	1	23MO	1	0	0.832144021988	478.0	-69.0	479	-68	1
1.7	2015_Jul_22_1348	s	s	12	3	SIC	95	RC	2	2	23VD	1	0	0.423069000244	-182.0	-61.0	-183	-61	1
1.7	2015_Jul_22_1348	s	s	12	3	SIC	96	RC	1	0	23MC	1	0	0.642222166061	258.0	-159.0	261	-169	1
1.7	2015_Jul_22_1348	s	s	12	3	SIC	97	RC	0	1	23RO	1	0	1.06673407555	-217.0	94.0	-224	94	1
1.7	2015_Jul_22_1348	s	s	12	3	SIC	98	ABS	1	2	24MD	0	1	0.785121202469	None	None	None	None	1
1.7	2015_Jul_22_1348	s	s	12	3	SIC	99	ABS	2	2	24VD	0	1	0.780014038086	None	None	None	None	1
1.7	2015_Jul_22_1348	s	s	12	3	SIC	100	ABS	2	1	24VO	0	1	0.724581003189	None	None	None	None	1
1.7	2015_Jul_22_1348	s	s	12	3	SIC	101	ABS	0	2	24RD	0	1	0.823270082474	None	None	None	None	1
1.7	2015_Jul_22_1348	s	s	12	3	SIC	102	ABS	0	1	24RO	0	1	4.7663629055	None	None	None	None	1
1.7	2015_Jul_22_1348	s	s	12	3	SIC	103	RC	2	1	23VO	1	0	0.517261981964	-232.0	-236.0	-229	-232	1
1.7	2015_Jul_22_1348	s	s	12	3	SIC	104	RC	1	2	23MD	1	0	1.85399889946	-480.0	331.0	-485	327	1
1.7	2015_Jul_22_1348	s	s	12	3	SIC	105	ABS	1	1	24MO	0	1	3.7380092144	None	None	None	None	1
1.7	2015_Jul_22_1348	s	s	12	3	SIC	106	RC	2	0	23VC	1	0	0.491367101669	-249.0	-149.0	-249	-150	1
1.7	2015_Jul_22_1348	s	s	12	3	SIC	107	ABS	2	0	24VC	0	1	0.655653953552	None	None	None	None	1
1.7	2015_Jul_22_1348	s	s	12	3	SIC	108	ABS	1	0	24MC	0	1	3.62057900429	None	None	None	None	1
1.7	2015_Jul_22_1348	s	s	12	3	SIC	109	RC	1	0	23MC	1	0	1.37654399872	307.0	-49.0	304	-41	1
1.7	2015_Jul_22_1348	s	s	12	3	SIC	110	RC	1	1	23MO	1	0	1.34121894836	-110.0	-384.0	-107	-389	1
1.7	2015_Jul_22_1348	s	s	12	3	SIC	111	RC	2	2	23VD	1	0	0.481812953949	-95.0	168.0	-100	165	1
1.7	2015_Jul_22_1348	s	s	12	3	SIC	112	RC	0	2	23RD	1	0	0.511826038361	58.0	358.0	53	354	1
1.7	2015_Jul_22_1348	s	s	12	3	SIC	113	ABS	1	1	24MO	0	1	2.10194206238	None	None	None	None	1
1.7	2015_Jul_22_1348	s	s	12	3	SIC	114	RC	1	2	23MD	1	0	0.501555919647	3.0	36.0	2	42	1
1.7	2015_Jul_22_1348	s	s	12	3	SIC	115	ABS	1	0	24MC	0	1	1.51768302917	None	None	None	None	1
1.7	2015_Jul_22_1348	s	s	12	3	SIC	116	ABS	0	2	24RD	0	1	1.91833090782	None	None	None	None	1
1.7	2015_Jul_22_1348	s	s	12	3	SIC	117	RC	0	1	23RO	1	0	3.98318004608	224.0	-285.0	232	-291	1
1.7	2015_Jul_22_1348	s	s	12	3	SIC	118	ABS	1	2	24MD	0	1	0.63497710228	None	None	None	None	1
1.7	2015_Jul_22_1348	s	s	12	3	SIC	119	ABS	0	1	24RO	0	1	3.97774195671	None	None	None	None	1
1.7	2015_Jul_22_1348	s	s	12	3	SIC	120	RC	2	0	23VC	1	0	0.63498210907	-337.0	-141.0	-340	-144	1
1.7	2015_Jul_22_1348	s	s	12	3	SIC	121	RC	1	1	23MO	1	0	1.0207631588	-105.0	208.0	-108	208	1
1.7	2015_Jul_22_1348	s	s	12	3	SIC	122	RC	2	2	23VD	1	0	0.481992006302	-213.0	-317.0	-206	-314	1
1.7	2015_Jul_22_1348	s	s	12	3	SIC	123	RC	0	2	23RD	1	0	0.512274026871	389.0	-277.0	385	-270	1
1.7	2015_Jul_22_1348	s	s	12	3	SIC	124	RC	2	1	23VO	1	0	0.429266929626	298.0	-258.0	307	-259	1
1.7	2015_Jul_22_1348	s	s	12	3	SIC	125	ABS	2	2	24VD	1	0	0.526554107666	None	None	-97	15	0
1.7	2015_Jul_22_1348	s	s	12	3	SIC	126	ABS	2	0	24VC	0	1	0.611444950104	None	None	None	None	1
1.7	2015_Jul_22_1348	s	s	12	3	SIC	127	ABS	2	1	24VO	0	1	0.917510032654	None	None	None	None	1
1.7	2015_Jul_22_1348	s	s	12	3	SIC	128	RC	1	0	23MC	1	0	1.18812298775	-535.0	168.0	-532	164	1
1.7	2015_Jul_22_1348	s	s	12	3	SIC	129	ABS	2	0	24VC	0	1	0.667836904526	None	None	None	None	1
1.7	2015_Jul_22_1348	s	s	12	3	SIC	130	RC	0	1	23RO	1	0	1.73885989189	-319.0	200.0	-319	206	1
1.7	2015_Jul_22_1348	s	s	12	3	SIC	131	RC	1	1	23MO	1	0	0.84203004837	49.0	56.0	61	57	1
1.7	2015_Jul_22_1348	s	s	12	3	SIC	132	RC	2	2	23VD	1	0	0.491269111633	534.0	-179.0	535	-180	1
1.7	2015_Jul_22_1348	s	s	12	3	SIC	133	ABS	0	1	24RO	0	1	4.59807300568	None	None	None	None	1
1.7	2015_Jul_22_1348	s	s	12	3	SIC	134	RC	0	2	23RD	1	0	0.853766202927	-341.0	-62.0	-342	-64	1
1.7	2015_Jul_22_1348	s	s	12	3	SIC	135	RC	1	0	23MC	1	0	0.994701147079	310.0	250.0	309	259	1
1.7	2015_Jul_22_1348	s	s	12	3	SIC	136	ABS	0	2	24RD	0	1	1.01159095764	None	None	None	None	1
1.7	2015_Jul_22_1348	s	s	12	3	SIC	137	ABS	1	0	24MC	0	1	3.34810709953	None	None	None	None	1
1.7	2015_Jul_22_1348	s	s	12	3	SIC	138	ABS	1	2	24MD	0	1	0.644016981125	None	None	None	None	1
1.7	2015_Jul_22_1348	s	s	12	3	SIC	139	ABS	1	1	24MO	0	1	1.78847503662	None	None	None	None	1
1.7	2015_Jul_22_1348	s	s	12	3	SIC	140	RC	1	2	23MD	1	0	0.846899986267	92.0	169.0	94	174	1
1.7	2015_Jul_22_1348	s	s	12	3	SIC	141	RC	2	1	23VO	1	0	0.476347923279	-252.0	-192.0	-252	-184	1
1.7	2015_Jul_22_1348	s	s	12	3	SIC	142	RC	2	0	23VC	1	0	0.470452070236	268.0	1.0	273	6	1
1.7	2015_Jul_22_1348	s	s	12	3	SIC	143	ABS	2	2	24VD	0	1	0.641112089157	None	None	None	None	1
1.7	2015_Jul_22_1348	s	s	12	3	SIC	144	ABS	2	1	24VO	0	1	0.714718818665	None	None	None	None	1
1.7	2015_Jul_22_1348	s	s	12	3	SIC	145	ABS	1	0	24MC	0	1	2.96589803696	None	None	None	None	1
1.7	2015_Jul_22_1348	s	s	12	3	SIC	146	RC	2	0	23VC	1	0	0.500009059906	398.0	-404.0	396	-404	1
1.7	2015_Jul_22_1348	s	s	12	3	SIC	147	RC	1	0	23MC	1	0	0.678733825684	-110.0	371.0	-115	376	1
1.7	2015_Jul_22_1348	s	s	12	3	SIC	148	RC	2	1	23VO	1	0	0.465085983276	-14.0	-42.0	-16	-55	1
1.7	2015_Jul_22_1348	s	s	12	3	SIC	149	RC	1	2	23MD	1	0	0.407728910446	-26.0	54.0	-36	61	1
1.7	2015_Jul_22_1348	s	s	12	3	SIC	150	RC	0	2	23RD	1	0	0.502238035202	136.0	-155.0	140	-156	1
1.7	2015_Jul_22_1348	s	s	12	3	SIC	151	ABS	0	1	24RO	0	1	5.99669790268	None	None	None	None	1
1.7	2015_Jul_22_1348	s	s	12	3	SIC	152	ABS	2	0	24VC	0	1	0.68248295784	None	None	None	None	1
1.7	2015_Jul_22_1348	s	s	12	3	SIC	153	RC	0	1	23RO	1	0	3.02211999893	2.0	-53.0	6	-48	1
1.7	2015_Jul_22_1348	s	s	12	3	SIC	154	ABS	1	1	24MO	0	1	3.10673713684	None	None	None	None	1
1.7	2015_Jul_22_1348	s	s	12	3	SIC	155	ABS	0	2	24RD	0	1	1.34741520882	None	None	None	None	1
1.7	2015_Jul_22_1348	s	s	12	3	SIC	156	ABS	2	2	24VD	0	1	1.0704729557	None	None	None	None	1
1.7	2015_Jul_22_1348	s	s	12	3	SIC	157	RC	1	1	23MO	1	0	0.773976802826	-172.0	319.0	-170	322	1
1.7	2015_Jul_22_1348	s	s	12	3	SIC	158	ABS	2	1	24VO	0	1	1.17151403427	None	None	None	None	1
1.7	2015_Jul_22_1348	s	s	12	3	SIC	159	RC	2	2	23VD	1	0	0.522929906845	-439.0	141.0	-430	138	1
1.7	2015_Jul_22_1348	s	s	12	3	SIC	160	ABS	1	2	24MD	0	1	0.818462133408	None	None	None	None	1
1.7	2015_Jul_22_1348	s	s	12	3	SIC	161	RC	1	0	23MC	1	0	2.13021492958	-273.0	-314.0	-273	-318	1
1.7	2015_Jul_22_1348	s	s	12	3	SIC	162	ABS	0	1	24RO	0	1	5.68189406395	None	None	None	None	1
1.7	2015_Jul_22_1348	s	s	12	3	SIC	163	RC	1	1	23MO	1	0	0.962234973907	297.0	236.0	291	229	1
1.7	2015_Jul_22_1348	s	s	12	3	SIC	164	RC	0	2	23RD	1	0	0.783195972443	-403.0	-153.0	-415	-152	1
1.7	2015_Jul_22_1348	s	s	12	3	SIC	165	RC	0	1	23RO	1	0	1.72964501381	426.0	278.0	417	278	1
1.7	2015_Jul_22_1348	s	s	12	3	SIC	166	ABS	0	2	24RD	0	1	1.47723293304	None	None	None	None	1
1.7	2015_Jul_22_1348	s	s	12	3	SIC	167	ABS	1	2	24MD	0	1	0.630135059357	None	None	None	None	1
1.7	2015_Jul_22_1348	s	s	12	3	SIC	168	ABS	1	1	24MO	0	1	3.90349411964	None	None	None	None	1
1.7	2015_Jul_22_1348	s	s	12	3	SIC	169	ABS	1	0	24MC	0	1	2.88962602615	None	None	None	None	1
1.7	2015_Jul_22_1348	s	s	12	3	SIC	170	ABS	2	2	24VD	0	1	0.691071987152	None	None	None	None	1
1.7	2015_Jul_22_1348	s	s	12	3	SIC	171	ABS	2	1	24VO	0	1	0.558939933777	None	None	None	None	1
1.7	2015_Jul_22_1348	s	s	12	3	SIC	172	RC	1	2	23MD	1	0	0.583121061325	-5.0	302.0	-5	296	1
1.7	2015_Jul_22_1348	s	s	12	3	SIC	173	ABS	2	0	24VC	0	1	0.858583927155	None	None	None	None	1
1.7	2015_Jul_22_1348	s	s	12	3	SIC	174	RC	2	1	23VO	1	0	0.561482906342	-90.0	-331.0	-96	-334	1
1.7	2015_Jul_22_1348	s	s	12	3	SIC	175	RC	2	2	23VD	1	0	0.521666049957	193.0	361.0	197	357	1
1.7	2015_Jul_22_1348	s	s	12	3	SIC	176	RC	2	0	23VC	1	0	0.493848085403	319.0	-327.0	312	-329	1
1.7	2015_Jul_22_1348	s	s	12	3	SIC	177	ABS	0	2	24RD	0	1	0.932893037796	None	None	None	None	1
1.7	2015_Jul_22_1348	s	s	12	3	SIC	178	RC	0	1	23RO	1	0	5.04916810989	-255.0	8.0	-253	8	1
1.7	2015_Jul_22_1348	s	s	12	3	SIC	179	RC	2	1	23VO	1	0	0.497492074966	-352.0	119.0	-348	121	1
1.7	2015_Jul_22_1348	s	s	12	3	SIC	180	RC	2	2	23VD	1	0	0.511780023575	48.0	116.0	41	121	1
1.7	2015_Jul_22_1348	s	s	12	3	SIC	181	ABS	2	0	24VC	0	1	1.81891083717	None	None	None	None	1
1.7	2015_Jul_22_1348	s	s	12	3	SIC	182	RC	2	0	23VC	1	0	0.477095127106	-323.0	145.0	-320	141	1
1.7	2015_Jul_22_1348	s	s	12	3	SIC	183	RC	1	1	23MO	1	0	0.82705283165	-36.0	-286.0	-36	-288	1
1.7	2015_Jul_22_1348	s	s	12	3	SIC	184	RC	1	2	23MD	1	0	0.444297075272	20.0	112.0	18	99	1
1.7	2015_Jul_22_1348	s	s	12	3	SIC	185	ABS	1	2	24MD	0	1	2.0473921299	None	None	None	None	1
1.7	2015_Jul_22_1348	s	s	12	3	SIC	186	ABS	2	2	24VD	0	1	1.48803400993	None	None	None	None	1
1.7	2015_Jul_22_1348	s	s	12	3	SIC	187	ABS	0	1	24RO	0	1	5.79770803452	None	None	None	None	1
1.7	2015_Jul_22_1348	s	s	12	3	SIC	188	RC	0	2	23RD	1	0	0.864258050919	-170.0	364.0	-175	355	1
1.7	2015_Jul_22_1348	s	s	12	3	SIC	189	ABS	1	1	24MO	0	1	3.10330510139	None	None	None	None	1
1.7	2015_Jul_22_1348	s	s	12	3	SIC	190	ABS	1	0	24MC	0	1	6.0937461853	None	None	None	None	1
1.7	2015_Jul_22_1348	s	s	12	3	SIC	191	ABS	2	1	24VO	0	1	0.605983972549	None	None	None	None	1
1.7	2015_Jul_22_1348	s	s	12	3	SIC	192	RC	1	0	23MC	1	0	0.759360790253	381.0	-122.0	386	-113	1
1.7	2015_Jul_22_1348	s	s	12	3	SIC	193	ABS	0	1	24RO	0	1	10.0812759399	None	None	None	None	1
1.7	2015_Jul_22_1348	s	s	12	3	SIC	194	ABS	2	1	24VO	0	1	0.761688947678	None	None	None	None	1
1.7	2015_Jul_22_1348	s	s	12	3	SIC	195	RC	1	0	23MC	1	0	0.823261976242	-405.0	41.0	-402	45	1
1.7	2015_Jul_22_1348	s	s	12	3	SIC	196	RC	0	2	23RD	1	0	0.560899019241	151.0	201.0	154	206	1
1.7	2015_Jul_22_1348	s	s	12	3	SIC	197	RC	2	0	23VC	1	0	0.505608081818	-466.0	-4.0	-469	1	1
1.7	2015_Jul_22_1348	s	s	12	3	SIC	198	ABS	2	0	24VC	0	1	0.705571889877	None	None	None	None	1
1.7	2015_Jul_22_1348	s	s	12	3	SIC	199	RC	0	1	23RO	1	0	3.14209914207	-220.0	-136.0	-222	-130	1
1.7	2015_Jul_22_1348	s	s	12	3	SIC	200	ABS	1	0	24MC	0	1	2.4440908432	None	None	None	None	1
1.7	2015_Jul_22_1348	s	s	12	3	SIC	201	RC	2	1	23VO	1	0	0.51359295845	-296.0	-395.0	-295	-389	1
1.7	2015_Jul_22_1348	s	s	12	3	SIC	202	RC	2	2	23VD	1	0	0.408427000046	134.0	279.0	133	275	1
1.7	2015_Jul_22_1348	s	s	12	3	SIC	203	ABS	2	2	24VD	0	1	1.11752200127	None	None	None	None	1
1.7	2015_Jul_22_1348	s	s	12	3	SIC	204	ABS	1	2	24MD	0	1	0.83509516716	None	None	None	None	1
1.7	2015_Jul_22_1348	s	s	12	3	SIC	205	RC	1	1	23MO	1	0	1.19367694855	-540.0	-125.0	-537	-119	1
1.7	2015_Jul_22_1348	s	s	12	3	SIC	206	ABS	1	1	24MO	0	1	5.68208289146	None	None	None	None	1
1.7	2015_Jul_22_1348	s	s	12	3	SIC	207	ABS	0	2	24RD	0	1	1.01979994774	None	None	None	None	1
1.7	2015_Jul_22_1348	s	s	12	3	SIC	208	RC	1	2	23MD	1	0	0.549921989441	98.0	-107.0	101	-110	1
1.7	2015_Jul_22_1348	s	s	12	3	SIC	209	ABS	0	1	24RO	0	1	4.36390781403	None	None	None	None	1
1.7	2015_Jul_22_1348	s	s	12	3	SIC	210	ABS	2	2	24VD	0	1	2.05403900146	None	None	None	None	1
1.7	2015_Jul_22_1348	s	s	12	3	SIC	211	RC	1	2	23MD	0	1	0.069981098175	59.0	23.0	None	None	0
1.7	2015_Jul_22_1348	s	s	12	3	SIC	212	ABS	0	2	24RD	1	0	1.34113407135	None	None	-72	6	0
1.7	2015_Jul_22_1348	s	s	12	3	SIC	213	RC	2	2	23VD	1	0	0.607591867447	106.0	73.0	111	67	1
1.7	2015_Jul_22_1348	s	s	12	3	SIC	214	RC	2	1	23VO	1	0	0.505430936813	-67.0	9.0	-61	8	1
1.7	2015_Jul_22_1348	s	s	12	3	SIC	215	ABS	1	2	24MD	0	1	0.667973995209	None	None	None	None	1
1.7	2015_Jul_22_1348	s	s	12	3	SIC	216	RC	0	2	23RD	1	0	0.950227975845	536.0	-317.0	547	-316	1
1.7	2015_Jul_22_1348	s	s	12	3	SIC	217	ABS	2	1	24VO	0	1	0.764461994171	None	None	None	None	1
1.7	2015_Jul_22_1348	s	s	12	3	SIC	218	ABS	1	0	24MC	0	1	2.71833014488	None	None	None	None	1
1.7	2015_Jul_22_1348	s	s	12	3	SIC	219	RC	0	1	23RO	0	1	3.50101804733	301.0	-327.0	None	None	0
1.7	2015_Jul_22_1348	s	s	12	3	SIC	220	RC	1	1	23MO	1	0	1.06514406204	-391.0	253.0	-385	256	1
1.7	2015_Jul_22_1348	s	s	12	3	SIC	221	RC	2	0	23VC	1	0	0.477650165558	322.0	88.0	320	84	1
1.7	2015_Jul_22_1348	s	s	12	3	SIC	222	RC	1	0	23MC	1	0	0.59969496727	-253.0	92.0	-259	85	1
1.7	2015_Jul_22_1348	s	s	12	3	SIC	223	ABS	2	0	24VC	0	1	0.711403846741	None	None	None	None	1
1.7	2015_Jul_22_1348	s	s	12	3	SIC	224	ABS	1	1	24MO	0	1	2.58625006676	None	None	None	None	1
1.7	2015_Jul_22_1348	s	s	12	3	SIC	225	ABS	1	2	24MD	0	1	0.817741155624	None	None	None	None	1
1.7	2015_Jul_22_1348	s	s	12	3	SIC	226	RC	2	0	23VC	1	0	0.509299039841	-183.0	19.0	-173	20	1
1.7	2015_Jul_22_1348	s	s	12	3	SIC	227	RC	0	2	23RD	1	0	0.505426883698	-458.0	341.0	-459	340	1
1.7	2015_Jul_22_1348	s	s	12	3	SIC	228	RC	1	1	23MO	1	0	1.21168684959	-268.0	100.0	-268	100	1
1.7	2015_Jul_22_1348	s	s	12	3	SIC	229	RC	1	0	23MC	1	0	2.40660095215	-377.0	246.0	-369	247	1
1.7	2015_Jul_22_1348	s	s	12	3	SIC	230	ABS	2	1	24VO	0	1	0.700510978699	None	None	None	None	1
1.7	2015_Jul_22_1348	s	s	12	3	SIC	231	RC	2	1	23VO	1	0	0.752951860428	450.0	-268.0	449	-272	1
1.7	2015_Jul_22_1348	s	s	12	3	SIC	232	ABS	0	1	24RO	0	1	11.9348208904	None	None	None	None	1
1.7	2015_Jul_22_1348	s	s	12	3	SIC	233	RC	0	1	23RO	1	0	5.56686902046	-476.0	-327.0	-468	-327	1
1.7	2015_Jul_22_1348	s	s	12	3	SIC	234	RC	1	2	23MD	1	0	0.511731147766	-489.0	215.0	-486	218	1
1.7	2015_Jul_22_1348	s	s	12	3	SIC	235	ABS	2	2	24VD	0	1	2.31815719604	None	None	None	None	1
1.7	2015_Jul_22_1348	s	s	12	3	SIC	236	RC	2	2	23VD	1	0	0.455638885498	-289.0	410.0	-292	409	1
1.7	2015_Jul_22_1348	s	s	12	3	SIC	237	ABS	2	0	24VC	0	1	0.771151065826	None	None	None	None	1
1.7	2015_Jul_22_1348	s	s	12	3	SIC	238	ABS	1	1	24MO	0	1	5.98806405067	None	None	None	None	1
1.7	2015_Jul_22_1348	s	s	12	3	SIC	239	ABS	0	2	24RD	0	1	3.17153787613	None	None	None	None	1
1.7	2015_Jul_22_1348	s	s	12	3	SIC	240	ABS	1	0	24MC	0	1	3.99810004234	None	None	None	None	1
1.7	2015_Jul_22_1348	s	s	12	3	SIC	241	RC	2	1	23VO	1	0	0.482324123383	-290.0	280.0	-283	273	1
1.7	2015_Jul_22_1348	s	s	12	3	SIC	242	ABS	2	1	24VO	0	1	0.712490081787	None	None	None	None	1
1.7	2015_Jul_22_1348	s	s	12	3	SIC	243	RC	0	2	23RD	1	0	0.796148061752	125.0	201.0	124	205	1
1.7	2015_Jul_22_1348	s	s	12	3	SIC	244	RC	0	1	23RO	1	0	4.74349403381	176.0	105.0	174	107	1
1.7	2015_Jul_22_1348	s	s	12	3	SIC	245	ABS	1	1	24MO	0	1	3.67181682587	None	None	None	None	1
1.7	2015_Jul_22_1348	s	s	12	3	SIC	246	ABS	1	2	24MD	0	1	0.756337881088	None	None	None	None	1
1.7	2015_Jul_22_1348	s	s	12	3	SIC	247	ABS	2	2	24VD	0	1	0.500271081924	None	None	None	None	1
1.7	2015_Jul_22_1348	s	s	12	3	SIC	248	ABS	0	1	24RO	0	1	4.09170484543	None	None	None	None	1
1.7	2015_Jul_22_1348	s	s	12	3	SIC	249	ABS	2	0	24VC	0	1	0.925990104675	None	None	None	None	1
1.7	2015_Jul_22_1348	s	s	12	3	SIC	250	RC	2	2	23VD	1	0	0.458385944366	-212.0	136.0	-208	136	1
1.7	2015_Jul_22_1348	s	s	12	3	SIC	251	ABS	1	0	24MC	0	1	2.33685708046	None	None	None	None	1
1.7	2015_Jul_22_1348	s	s	12	3	SIC	252	RC	1	0	23MC	1	0	1.72960782051	187.0	305.0	185	301	1
1.7	2015_Jul_22_1348	s	s	12	3	SIC	253	RC	1	2	23MD	1	0	0.488981962204	-310.0	270.0	-304	273	1
1.7	2015_Jul_22_1348	s	s	12	3	SIC	254	RC	2	0	23VC	1	0	0.470258951187	482.0	-30.0	480	-29	1
1.7	2015_Jul_22_1348	s	s	12	3	SIC	255	ABS	0	2	24RD	0	1	1.02009296417	None	None	None	None	1
1.7	2015_Jul_22_1348	s	s	12	3	SIC	256	RC	1	1	23MO	1	0	0.893806934357	269.0	-166.0	259	-165	1
1.7	2015_Jul_22_1348	s	s	12	3	SIC	257	RC	2	2	23VD	1	0	0.53801202774	504.0	-300.0	510	-295	1
1.7	2015_Jul_22_1348	s	s	12	3	SIC	258	RC	2	0	23VC	1	0	0.434901952744	-358.0	29.0	-356	34	1
1.7	2015_Jul_22_1348	s	s	12	3	SIC	259	ABS	2	0	24VC	1	0	0.523984193802	None	None	214	-349	0
1.7	2015_Jul_22_1348	s	s	12	3	SIC	260	ABS	1	0	24MC	0	1	3.5725851059	None	None	None	None	1
1.7	2015_Jul_22_1348	s	s	12	3	SIC	261	RC	1	1	23MO	1	0	1.57412791252	483.0	263.0	480	260	1
1.7	2015_Jul_22_1348	s	s	12	3	SIC	262	RC	1	2	23MD	1	0	0.488233089447	-87.0	291.0	-83	299	1
1.7	2015_Jul_22_1348	s	s	12	3	SIC	263	ABS	2	2	24VD	0	1	0.564525127411	None	None	None	None	1
1.7	2015_Jul_22_1348	s	s	12	3	SIC	264	RC	0	2	23RD	1	0	0.564378023148	267.0	240.0	268	239	1
1.7	2015_Jul_22_1348	s	s	12	3	SIC	265	ABS	2	1	24VO	0	1	0.658446073532	None	None	None	None	1
1.7	2015_Jul_22_1348	s	s	12	3	SIC	266	ABS	0	1	24RO	0	1	6.44957613945	None	None	None	None	1
1.7	2015_Jul_22_1348	s	s	12	3	SIC	267	ABS	1	2	24MD	0	1	0.594580173492	None	None	None	None	1
1.7	2015_Jul_22_1348	s	s	12	3	SIC	268	RC	0	1	23RO	0	1	4.44385194778	-106.0	-292.0	None	None	0
1.7	2015_Jul_22_1348	s	s	12	3	SIC	269	ABS	0	2	24RD	0	1	1.30592799187	None	None	None	None	1
1.7	2015_Jul_22_1348	s	s	12	3	SIC	270	ABS	1	1	24MO	0	1	4.13789606094	None	None	None	None	1
1.7	2015_Jul_22_1348	s	s	12	3	SIC	271	RC	2	1	23VO	1	0	1.95323395729	280.0	-233.0	276	-231	1
1.7	2015_Jul_22_1348	s	s	12	3	SIC	272	RC	1	0	23MC	1	0	0.953110933304	-142.0	266.0	-140	270	1
1.7	2015_Jul_22_1348	s	s	12	3	SIC	273	RC	2	0	23VC	1	0	0.876437902451	486.0	230.0	489	232	1
1.7	2015_Jul_22_1348	s	s	12	3	SIC	274	ABS	2	1	24VO	0	1	0.617739915848	None	None	None	None	1
1.7	2015_Jul_22_1348	s	s	12	3	SIC	275	ABS	2	2	24VD	0	1	0.587785005569	None	None	None	None	1
1.7	2015_Jul_22_1348	s	s	12	3	SIC	276	RC	0	1	23RO	1	0	4.92905402184	312.0	393.0	321	392	1
1.7	2015_Jul_22_1348	s	s	12	3	SIC	277	ABS	0	1	24RO	0	1	4.37803792953	None	None	None	None	1
1.7	2015_Jul_22_1348	s	s	12	3	SIC	278	RC	1	0	23MC	1	0	0.853172063828	-446.0	217.0	-443	212	1
1.7	2015_Jul_22_1348	s	s	12	3	SIC	279	ABS	1	1	24MO	0	1	2.62422394753	None	None	None	None	1
1.7	2015_Jul_22_1348	s	s	12	3	SIC	280	ABS	0	2	24RD	0	1	0.831780195236	None	None	None	None	1
1.7	2015_Jul_22_1348	s	s	12	3	SIC	281	ABS	1	2	24MD	0	1	1.12393903732	None	None	None	None	1
1.7	2015_Jul_22_1348	s	s	12	3	SIC	282	RC	2	2	23VD	1	0	0.465260982513	-214.0	217.0	-218	222	1
1.7	2015_Jul_22_1348	s	s	12	3	SIC	283	RC	1	2	23MD	1	0	0.431878089905	362.0	103.0	354	102	1
1.7	2015_Jul_22_1348	s	s	12	3	SIC	284	ABS	1	0	24MC	0	1	1.42357897758	None	None	None	None	1
1.7	2015_Jul_22_1348	s	s	12	3	SIC	285	RC	1	1	23MO	1	0	1.15974497795	493.0	-411.0	502	-408	1
1.7	2015_Jul_22_1348	s	s	12	3	SIC	286	RC	2	1	23VO	1	0	0.446499109268	356.0	233.0	350	233	1
1.7	2015_Jul_22_1348	s	s	12	3	SIC	287	RC	0	2	23RD	1	0	0.552654027939	483.0	178.0	481	173	1
1.7	2015_Jul_22_1348	s	s	12	3	SIC	288	ABS	2	0	24VC	0	1	0.972856044769	None	None	None	None	1
1.7	2015_Jul_22_1348	s	s	12	3	SIC	289	RC	1	0	23MC	1	0	0.819756984711	359.0	-391.0	355	-387	1
1.7	2015_Jul_22_1348	s	s	12	3	SIC	290	RC	0	1	23RO	1	0	2.24753904343	174.0	-372.0	173	-371	1
1.7	2015_Jul_22_1348	s	s	12	3	SIC	291	ABS	1	1	24MO	0	1	4.90770196915	None	None	None	None	1
1.7	2015_Jul_22_1348	s	s	12	3	SIC	292	ABS	0	1	24RO	0	1	10.3411149979	None	None	None	None	1
1.7	2015_Jul_22_1348	s	s	12	3	SIC	293	ABS	2	1	24VO	0	1	1.57437181473	None	None	None	None	1
1.7	2015_Jul_22_1348	s	s	12	3	SIC	294	ABS	1	0	24MC	0	1	4.02173089981	None	None	None	None	1
1.7	2015_Jul_22_1348	s	s	12	3	SIC	295	ABS	2	0	24VC	0	1	0.57097697258	None	None	None	None	1
1.7	2015_Jul_22_1348	s	s	12	3	SIC	296	ABS	2	2	24VD	0	1	0.740949869156	None	None	None	None	1
1.7	2015_Jul_22_1348	s	s	12	3	SIC	297	RC	2	0	23VC	1	0	0.631580114365	-533.0	-329.0	-528	-328	1
1.7	2015_Jul_22_1348	s	s	12	3	SIC	298	RC	1	1	23MO	1	0	0.500575065613	1.0	-58.0	4	-57	1
1.7	2015_Jul_22_1348	s	s	12	3	SIC	299	RC	2	1	23VO	1	0	0.476798057556	483.0	394.0	485	399	1
1.7	2015_Jul_22_1348	s	s	12	3	SIC	300	RC	2	2	23VD	1	0	0.418702125549	454.0	-352.0	454	-346	1
1.7	2015_Jul_22_1348	s	s	12	3	SIC	301	RC	0	2	23RD	1	0	0.493762016296	-425.0	260.0	-428	255	1
1.7	2015_Jul_22_1348	s	s	12	3	SIC	302	ABS	1	2	24MD	0	1	0.973567962646	None	None	None	None	1
1.7	2015_Jul_22_1348	s	s	12	3	SIC	303	RC	1	2	23MD	1	0	0.512217998505	291.0	270.0	292	279	1
1.7	2015_Jul_22_1348	s	s	12	3	SIC	304	ABS	0	2	24RD	0	1	1.63201808929	None	None	None	None	1
1.7	2015_Jul_22_1348	s	s	12	3	SIC	305	ABS	2	0	24VC	0	1	0.817795038223	None	None	None	None	1
1.7	2015_Jul_22_1348	s	s	12	3	SIC	306	RC	0	1	23RO	1	0	2.01897597313	425.0	-345.0	419	-339	1
1.7	2015_Jul_22_1348	s	s	12	3	SIC	307	ABS	0	2	24RD	0	1	3.54228401184	None	None	None	None	1
1.7	2015_Jul_22_1348	s	s	12	3	SIC	308	RC	2	0	23VC	1	0	0.465311050415	-484.0	-198.0	-491	-193	1
1.7	2015_Jul_22_1348	s	s	12	3	SIC	309	ABS	1	1	24MO	0	1	3.71886587143	None	None	None	None	1
1.7	2015_Jul_22_1348	s	s	12	3	SIC	310	RC	0	2	23RD	1	0	0.665134906769	320.0	262.0	320	269	1
1.7	2015_Jul_22_1348	s	s	12	3	SIC	311	ABS	2	1	24VO	0	1	0.618254899979	None	None	None	None	1
1.7	2015_Jul_22_1348	s	s	12	3	SIC	312	RC	1	2	23MD	1	0	0.511383056641	-131.0	19.0	-121	17	1
1.7	2015_Jul_22_1348	s	s	12	3	SIC	313	ABS	0	1	24RO	0	1	5.51488614082	None	None	None	None	1
1.7	2015_Jul_22_1348	s	s	12	3	SIC	314	RC	1	1	23MO	1	0	0.858667850494	508.0	-317.0	507	-313	1
1.7	2015_Jul_22_1348	s	s	12	3	SIC	315	RC	2	1	23VO	1	0	0.411276817322	-39.0	107.0	-33	106	1
1.7	2015_Jul_22_1348	s	s	12	3	SIC	316	ABS	1	2	24MD	0	1	0.855800867081	None	None	None	None	1
1.7	2015_Jul_22_1348	s	s	12	3	SIC	317	ABS	1	0	24MC	0	1	3.89076495171	None	None	None	None	1
1.7	2015_Jul_22_1348	s	s	12	3	SIC	318	RC	1	0	23MC	1	0	1.16180086136	134.0	-22.0	137	-21	1
1.7	2015_Jul_22_1348	s	s	12	3	SIC	319	ABS	2	2	24VD	0	1	0.679448127747	None	None	None	None	1
1.7	2015_Jul_22_1348	s	s	12	3	SIC	320	RC	2	2	23VD	1	0	0.464266061783	-327.0	-195.0	-329	-196	1
1.7	2015_Jul_22_1348	s	s	12	3	SIC	321	ABS	0	1	24RO	0	1	5.52582907677	None	None	None	None	1
1.7	2015_Jul_22_1348	s	s	12	3	SIC	322	ABS	2	2	24VD	0	1	0.658383131027	None	None	None	None	1
1.7	2015_Jul_22_1348	s	s	12	3	SIC	323	RC	2	2	23VD	1	0	0.444361209869	-55.0	-91.0	-45	-91	1
1.7	2015_Jul_22_1348	s	s	12	3	SIC	324	RC	1	2	23MD	1	0	0.415091991425	174.0	-111.0	180	-113	1
1.7	2015_Jul_22_1348	s	s	12	3	SIC	325	RC	2	1	23VO	1	0	0.4937479496	-477.0	-257.0	-470	-258	1
1.7	2015_Jul_22_1348	s	s	12	3	SIC	326	RC	2	0	23VC	1	0	0.514569044113	-149.0	403.0	-144	402	1
1.7	2015_Jul_22_1348	s	s	12	3	SIC	327	RC	1	1	23MO	1	0	0.652929067612	0.0	116.0	-2	123	1
1.7	2015_Jul_22_1348	s	s	12	3	SIC	328	RC	0	2	23RD	1	0	0.481939792633	420.0	53.0	412	50	1
1.7	2015_Jul_22_1348	s	s	12	3	SIC	329	ABS	0	2	24RD	0	1	1.07051086426	None	None	None	None	1
1.7	2015_Jul_22_1348	s	s	12	3	SIC	330	ABS	2	1	24VO	0	1	0.962016820908	None	None	None	None	1
1.7	2015_Jul_22_1348	s	s	12	3	SIC	331	RC	1	0	23MC	1	0	0.854699850082	393.0	-89.0	395	-83	1
1.7	2015_Jul_22_1348	s	s	12	3	SIC	332	ABS	2	0	24VC	0	1	0.729046821594	None	None	None	None	1
1.7	2015_Jul_22_1348	s	s	12	3	SIC	333	ABS	1	2	24MD	0	1	0.700139045715	None	None	None	None	1
1.7	2015_Jul_22_1348	s	s	12	3	SIC	334	ABS	1	1	24MO	0	1	2.52486515045	None	None	None	None	1
1.7	2015_Jul_22_1348	s	s	12	3	SIC	335	ABS	1	0	24MC	0	1	2.29460787773	None	None	None	None	1
1.7	2015_Jul_22_1348	s	s	12	3	SIC	336	RC	0	1	23RO	1	0	1.83602690697	258.0	145.0	262	150	1
1.7	2015_Jul_22_1348	s	s	12	3	SIC	337	ABS	2	2	24VD	0	1	0.536867141724	None	None	None	None	1
1.7	2015_Jul_22_1348	s	s	12	3	SIC	338	RC	1	2	23MD	1	0	0.582706928253	498.0	148.0	495	151	1
1.7	2015_Jul_22_1348	s	s	12	3	SIC	339	RC	2	1	23VO	1	0	0.452786922455	-44.0	248.0	-44	247	1
1.7	2015_Jul_22_1348	s	s	12	3	SIC	340	ABS	0	1	24RO	0	1	3.99589180946	None	None	None	None	1
1.7	2015_Jul_22_1348	s	s	12	3	SIC	341	RC	1	0	23MC	1	0	0.12864112854	-92.0	-215.0	75	8	0
1.7	2015_Jul_22_1348	s	s	12	3	SIC	342	ABS	2	1	24VO	1	0	0.194319963455	None	None	1	-23	0
1.7	2015_Jul_22_1348	s	s	12	3	SIC	343	ABS	1	0	24MC	0	1	1.74141001701	None	None	None	None	1
1.7	2015_Jul_22_1348	s	s	12	3	SIC	344	ABS	1	1	24MO	0	1	5.21415805817	None	None	None	None	1
1.7	2015_Jul_22_1348	s	s	12	3	SIC	345	RC	2	2	23VD	1	0	0.552561044693	-506.0	-171.0	-499	-172	1
1.7	2015_Jul_22_1348	s	s	12	3	SIC	346	ABS	1	2	24MD	0	1	1.21733593941	None	None	None	None	1
1.7	2015_Jul_22_1348	s	s	12	3	SIC	347	RC	1	1	23MO	1	0	1.235227108	368.0	-26.0	369	-23	1
1.7	2015_Jul_22_1348	s	s	12	3	SIC	348	ABS	2	0	24VC	0	1	0.760442018509	None	None	None	None	1
1.7	2015_Jul_22_1348	s	s	12	3	SIC	349	ABS	0	2	24RD	0	1	0.902105093002	None	None	None	None	1
1.7	2015_Jul_22_1348	s	s	12	3	SIC	350	RC	2	0	23VC	1	0	0.488714933395	-400.0	74.0	-399	72	1
1.7	2015_Jul_22_1348	s	s	12	3	SIC	351	RC	0	2	23RD	1	0	0.526476860046	-240.0	-26.0	-238	-26	1
1.7	2015_Jul_22_1348	s	s	12	3	SIC	352	RC	0	1	23RO	1	0	2.00042080879	474.0	-1.0	476	6	1
1.7	2015_Jul_22_1348	s	s	12	3	SIC	353	ABS	0	1	24RO	0	1	5.8375980854	None	None	None	None	1
1.7	2015_Jul_22_1348	s	s	12	3	SIC	354	RC	2	1	23VO	1	0	0.617688894272	-333.0	385.0	-326	384	1
1.7	2015_Jul_22_1348	s	s	12	3	SIC	355	ABS	0	2	24RD	0	1	0.936035871506	None	None	None	None	1
1.7	2015_Jul_22_1348	s	s	12	3	SIC	356	ABS	2	2	24VD	0	1	4.27921295166	None	None	None	None	1
1.7	2015_Jul_22_1348	s	s	12	3	SIC	357	ABS	1	2	24MD	0	1	1.15862107277	None	None	None	None	1
1.7	2015_Jul_22_1348	s	s	12	3	SIC	358	RC	2	2	23VD	1	0	0.489029884338	-315.0	167.0	-314	164	1
1.7	2015_Jul_22_1348	s	s	12	3	SIC	359	RC	1	0	23MC	1	0	0.827429056168	233.0	-342.0	227	-340	1
1.7	2015_Jul_22_1348	s	s	12	3	SIC	360	ABS	1	0	24MC	0	1	1.55946302414	None	None	None	None	1
1.7	2015_Jul_22_1348	s	s	12	3	SIC	361	ABS	1	1	24MO	0	1	1.47693610191	None	None	None	None	1
1.7	2015_Jul_22_1348	s	s	12	3	SIC	362	RC	1	1	23MO	1	0	0.74085187912	245.0	386.0	245	388	1
1.7	2015_Jul_22_1348	s	s	12	3	SIC	363	ABS	2	0	24VC	0	1	0.641674041748	None	None	None	None	1
1.7	2015_Jul_22_1348	s	s	12	3	SIC	364	RC	0	1	23RO	1	0	1.8072218895	-512.0	-317.0	-507	-318	1
1.7	2015_Jul_22_1348	s	s	12	3	SIC	365	ABS	2	1	24VO	0	1	0.634984016418	None	None	None	None	1
1.7	2015_Jul_22_1348	s	s	12	3	SIC	366	RC	1	2	23MD	1	0	0.499811887741	409.0	-31.0	413	-30	1
1.7	2015_Jul_22_1348	s	s	12	3	SIC	367	RC	0	2	23RD	1	0	0.493701934814	-24.0	167.0	-28	167	1
1.7	2015_Jul_22_1348	s	s	12	3	SIC	368	RC	2	0	23VC	1	0	0.454203128815	-285.0	-42.0	-283	-37	1
1.7	2015_Jul_22_1348	s	s	12	3	SIC	369	ABS	2	2	24VD	0	1	0.662243127823	None	None	None	None	1
1.7	2015_Jul_22_1348	s	s	12	3	SIC	370	RC	1	1	23MO	1	0	0.828907012939	409.0	-262.0	396	-258	1
1.7	2015_Jul_22_1348	s	s	12	3	SIC	371	RC	2	0	23VC	1	0	0.514917850494	-126.0	24.0	-127	20	1
1.7	2015_Jul_22_1348	s	s	12	3	SIC	372	ABS	1	2	24MD	0	1	0.747945070267	None	None	None	None	1
1.7	2015_Jul_22_1348	s	s	12	3	SIC	373	ABS	2	0	24VC	0	1	0.677556991577	None	None	None	None	1
1.7	2015_Jul_22_1348	s	s	12	3	SIC	374	RC	1	2	23MD	1	0	0.547989845276	209.0	-302.0	205	-293	1
1.7	2015_Jul_22_1348	s	s	12	3	SIC	375	RC	2	1	23VO	1	0	0.458423137665	-397.0	-299.0	-392	-294	1
1.7	2015_Jul_22_1348	s	s	12	3	SIC	376	RC	0	2	23RD	1	0	0.807070970535	-123.0	-270.0	-119	-262	1
1.7	2015_Jul_22_1348	s	s	12	3	SIC	377	ABS	1	1	24MO	0	1	1.91360998154	None	None	None	None	1
1.7	2015_Jul_22_1348	s	s	12	3	SIC	378	RC	0	1	23RO	1	0	3.88073515892	214.0	4.0	212	4	1
1.7	2015_Jul_22_1348	s	s	12	3	SIC	379	ABS	0	1	24RO	0	1	3.52666115761	None	None	None	None	1
1.7	2015_Jul_22_1348	s	s	12	3	SIC	380	ABS	2	1	24VO	0	1	0.573533058167	None	None	None	None	1
1.7	2015_Jul_22_1348	s	s	12	3	SIC	381	ABS	1	0	24MC	0	1	2.49515390396	None	None	None	None	1
1.7	2015_Jul_22_1348	s	s	12	3	SIC	382	RC	1	0	23MC	1	0	1.29136681557	13.0	-203.0	16	-196	1
1.7	2015_Jul_22_1348	s	s	12	3	SIC	383	RC	2	2	23VD	1	0	0.431586027145	-168.0	181.0	-169	185	1
1.7	2015_Jul_22_1348	s	s	12	3	SIC	384	ABS	0	2	24RD	0	1	0.841257810593	None	None	None	None	1
1.7	2015_Jul_22_1348	s	s	12	3	SIC	385	RC	2	2	23VD	1	0	0.452612876892	-537.0	-366.0	-549	-363	1
1.7	2015_Jul_22_1348	s	s	12	3	SIC	386	RC	1	0	23MC	1	0	1.88283395767	-539.0	240.0	-539	248	1
1.7	2015_Jul_22_1348	s	s	12	3	SIC	387	ABS	1	0	24MC	0	1	3.33978390694	None	None	None	None	1
1.7	2015_Jul_22_1348	s	s	12	3	SIC	388	RC	0	2	23RD	1	0	0.561803817749	-503.0	116.0	-508	111	1
1.7	2015_Jul_22_1348	s	s	12	3	SIC	389	ABS	0	1	24RO	0	1	5.13498997688	None	None	None	None	1
1.7	2015_Jul_22_1348	s	s	12	3	SIC	390	ABS	1	1	24MO	0	1	4.62526702881	None	None	None	None	1
1.7	2015_Jul_22_1348	s	s	12	3	SIC	391	ABS	2	2	24VD	0	1	0.725692033768	None	None	None	None	1
1.7	2015_Jul_22_1348	s	s	12	3	SIC	392	RC	1	1	23MO	1	0	2.33918190002	-19.0	-291.0	-24	-287	1
1.7	2015_Jul_22_1348	s	s	12	3	SIC	393	ABS	2	0	24VC	0	1	0.6658411026	None	None	None	None	1
1.7	2015_Jul_22_1348	s	s	12	3	SIC	394	RC	2	1	23VO	1	0	0.48907494545	376.0	138.0	377	145	1
1.7	2015_Jul_22_1348	s	s	12	3	SIC	395	ABS	0	2	24RD	0	1	0.913076877594	None	None	None	None	1
1.7	2015_Jul_22_1348	s	s	12	3	SIC	396	ABS	2	1	24VO	0	1	0.643444061279	None	None	None	None	1
1.7	2015_Jul_22_1348	s	s	12	3	SIC	397	RC	1	2	23MD	1	0	0.936620950699	275.0	-374.0	277	-369	1
1.7	2015_Jul_22_1348	s	s	12	3	SIC	398	RC	2	0	23VC	1	0	0.611820936203	-488.0	140.0	-490	140	1
1.7	2015_Jul_22_1348	s	s	12	3	SIC	399	RC	0	1	23RO	1	0	1.52396798134	-284.0	374.0	-289	369	1
1.7	2015_Jul_22_1348	s	s	12	3	SIC	400	ABS	1	2	24MD	0	1	1.33619618416	None	None	None	None	1
1.7	2015_Jul_22_1348	s	s	12	3	SIC	401	ABS	1	0	24MC	0	1	2.63606309891	None	None	None	None	1
1.7	2015_Jul_22_1348	s	s	12	3	SIC	402	RC	2	0	23VC	1	0	1.36484217644	-261.0	-41.0	-257	-36	1
1.7	2015_Jul_22_1348	s	s	12	3	SIC	403	RC	1	1	23MO	1	0	0.537853956223	-280.0	226.0	-287	226	1
1.7	2015_Jul_22_1348	s	s	12	3	SIC	404	RC	2	2	23VD	1	0	0.394578933716	327.0	-21.0	332	-21	1
1.7	2015_Jul_22_1348	s	s	12	3	SIC	405	RC	0	1	23RO	1	0	2.41816806793	-234.0	348.0	-239	356	1
1.7	2015_Jul_22_1348	s	s	12	3	SIC	406	ABS	0	1	24RO	0	1	3.74771714211	None	None	None	None	1
1.7	2015_Jul_22_1348	s	s	12	3	SIC	407	RC	1	0	23MC	1	0	1.10622501373	282.0	13.0	286	18	1
1.7	2015_Jul_22_1348	s	s	12	3	SIC	408	ABS	1	1	24MO	0	1	1.45542216301	None	None	None	None	1
1.7	2015_Jul_22_1348	s	s	12	3	SIC	409	RC	0	2	23RD	1	0	0.514477014542	383.0	283.0	382	290	1
1.7	2015_Jul_22_1348	s	s	12	3	SIC	410	ABS	2	1	24VO	0	1	0.670311927795	None	None	None	None	1
1.7	2015_Jul_22_1348	s	s	12	3	SIC	411	ABS	0	2	24RD	0	1	1.93784594536	None	None	None	None	1
1.7	2015_Jul_22_1348	s	s	12	3	SIC	412	RC	1	2	23MD	1	0	0.564370155334	303.0	264.0	298	261	1
1.7	2015_Jul_22_1348	s	s	12	3	SIC	413	ABS	2	0	24VC	0	1	0.691539049149	None	None	None	None	1
1.7	2015_Jul_22_1348	s	s	12	3	SIC	414	ABS	1	2	24MD	0	1	1.21158719063	None	None	None	None	1
1.7	2015_Jul_22_1348	s	s	12	3	SIC	415	ABS	2	2	24VD	0	1	0.693745136261	None	None	None	None	1
1.7	2015_Jul_22_1348	s	s	12	3	SIC	416	RC	2	1	23VO	1	0	0.51472902298	380.0	389.0	382	389	1
1.7	2015_Jul_22_1348	s	s	12	3	SIC	417	RC	0	1	23RO	0	1	2.82413911819	214.0	-199.0	None	None	0
1.7	2015_Jul_22_1348	s	s	12	3	SIC	418	ABS	2	0	24VC	0	1	0.620442152023	None	None	None	None	1
1.7	2015_Jul_22_1348	s	s	12	3	SIC	419	RC	2	1	23VO	1	0	0.582280874252	170.0	-354.0	170	-348	1
1.7	2015_Jul_22_1348	s	s	12	3	SIC	420	RC	1	2	23MD	1	0	0.606944799423	34.0	359.0	30	364	1
1.7	2015_Jul_22_1348	s	s	12	3	SIC	421	ABS	1	0	24MC	0	1	2.8087348938	None	None	None	None	1
1.7	2015_Jul_22_1348	s	s	12	3	SIC	422	RC	0	2	23RD	1	0	0.828984975815	324.0	-405.0	330	-397	1
1.7	2015_Jul_22_1348	s	s	12	3	SIC	423	ABS	1	1	24MO	0	1	3.97781896591	None	None	None	None	1
1.7	2015_Jul_22_1348	s	s	12	3	SIC	424	RC	1	1	23MO	1	0	2.15742683411	-503.0	64.0	-503	65	1
1.7	2015_Jul_22_1348	s	s	12	3	SIC	425	ABS	1	2	24MD	0	1	0.893913984299	None	None	None	None	1
1.7	2015_Jul_22_1348	s	s	12	3	SIC	426	ABS	0	2	24RD	0	1	1.33765006065	None	None	None	None	1
1.7	2015_Jul_22_1348	s	s	12	3	SIC	427	ABS	2	1	24VO	0	1	0.658444881439	None	None	None	None	1
1.7	2015_Jul_22_1348	s	s	12	3	SIC	428	RC	2	2	23VD	1	0	0.420455932617	450.0	328.0	455	325	1
1.7	2015_Jul_22_1348	s	s	12	3	SIC	429	RC	1	0	23MC	1	0	0.854645967484	-283.0	107.0	-291	103	1
1.7	2015_Jul_22_1348	s	s	12	3	SIC	430	ABS	2	2	24VD	0	1	0.599570035934	None	None	None	None	1
1.7	2015_Jul_22_1348	s	s	12	3	SIC	431	RC	2	0	23VC	1	0	0.773998022079	330.0	-225.0	330	-221	1
1.7	2015_Jul_22_1348	s	s	12	3	SIC	432	ABS	0	1	24RO	0	1	3.45990109444	None	None	None	None	1
1.7	2015_Jul_22_1348	s	s	12	3	SIC	433	RC	1	0	23MC	1	0	1.27713608742	185.0	340.0	183	344	1
1.7	2015_Jul_22_1348	s	s	12	3	SIC	434	ABS	2	1	24VO	0	1	0.623147010803	None	None	None	None	1
1.7	2015_Jul_22_1348	s	s	12	3	SIC	435	ABS	0	1	24RO	0	1	5.08429789543	None	None	None	None	1
1.7	2015_Jul_22_1348	s	s	12	3	SIC	436	ABS	1	1	24MO	0	1	1.9768269062	None	None	None	None	1
1.7	2015_Jul_22_1348	s	s	12	3	SIC	437	ABS	1	2	24MD	0	1	0.700675010681	None	None	None	None	1
1.7	2015_Jul_22_1348	s	s	12	3	SIC	438	RC	1	1	23MO	1	0	1.17397880554	316.0	-6.0	323	-3	1
1.7	2015_Jul_22_1348	s	s	12	3	SIC	439	ABS	2	2	24VD	0	1	0.481878995895	None	None	None	None	1
1.7	2015_Jul_22_1348	s	s	12	3	SIC	440	RC	2	0	23VC	1	0	0.703193902969	457.0	-162.0	449	-154	1
1.7	2015_Jul_22_1348	s	s	12	3	SIC	441	RC	0	2	23RD	1	0	0.724562883377	11.0	-386.0	22	-377	1
1.7	2015_Jul_22_1348	s	s	12	3	SIC	442	ABS	2	0	24VC	0	1	0.667603969574	None	None	None	None	1
1.7	2015_Jul_22_1348	s	s	12	3	SIC	443	RC	0	1	23RO	1	0	5.31971502304	191.0	309.0	187	311	1
1.7	2015_Jul_22_1348	s	s	12	3	SIC	444	RC	2	2	23VD	1	0	0.502903938293	465.0	153.0	471	154	1
1.7	2015_Jul_22_1348	s	s	12	3	SIC	445	ABS	0	2	24RD	0	1	0.670377969742	None	None	None	None	1
1.7	2015_Jul_22_1348	s	s	12	3	SIC	446	ABS	1	0	24MC	0	1	2.47634792328	None	None	None	None	1
1.7	2015_Jul_22_1348	s	s	12	3	SIC	447	RC	1	2	23MD	1	0	0.470211029053	-317.0	26.0	-318	21	1
1.7	2015_Jul_22_1348	s	s	12	3	SIC	448	RC	2	1	23VO	1	0	0.453999996185	-174.0	58.0	-169	52	1
1.7	2015_Jul_22_1348	s	s	12	3	SIC	449	ABS	2	1	24VO	0	1	0.717230796814	None	None	None	None	1
1.7	2015_Jul_22_1348	s	s	12	3	SIC	450	RC	1	0	23MC	1	0	1.48242688179	474.0	-391.0	472	-386	1
1.7	2015_Jul_22_1348	s	s	12	3	SIC	451	ABS	1	2	24MD	0	1	0.670292139053	None	None	None	None	1
1.7	2015_Jul_22_1348	s	s	12	3	SIC	452	ABS	2	0	24VC	0	1	0.893898963928	None	None	None	None	1
1.7	2015_Jul_22_1348	s	s	12	3	SIC	453	RC	2	1	23VO	1	0	0.456220149994	223.0	-301.0	220	-307	1
1.7	2015_Jul_22_1348	s	s	12	3	SIC	454	RC	0	1	23RO	1	0	5.39882302284	501.0	393.0	495	398	1
1.7	2015_Jul_22_1348	s	s	12	3	SIC	455	ABS	0	1	24RO	0	1	3.48348283768	None	None	None	None	1
1.7	2015_Jul_22_1348	s	s	12	3	SIC	456	RC	0	2	23RD	1	0	0.540764093399	468.0	-221.0	470	-221	1
1.7	2015_Jul_22_1348	s	s	12	3	SIC	457	ABS	2	2	24VD	0	1	0.587731122971	None	None	None	None	1
1.7	2015_Jul_22_1348	s	s	12	3	SIC	458	ABS	1	0	24MC	0	1	4.10383296013	None	None	None	None	1
1.7	2015_Jul_22_1348	s	s	12	3	SIC	459	RC	2	2	23VD	1	0	0.458460092545	-83.0	-44.0	-74	-36	1
1.7	2015_Jul_22_1348	s	s	12	3	SIC	460	RC	1	1	23MO	0	1	0.981992006302	27.0	-195.0	None	None	0
1.7	2015_Jul_22_1348	s	s	12	3	SIC	461	RC	2	0	23VC	1	0	0.470020055771	-437.0	-86.0	-433	-84	1
1.7	2015_Jul_22_1348	s	s	12	3	SIC	462	ABS	1	1	24MO	0	1	5.41389298439	None	None	None	None	1
1.7	2015_Jul_22_1348	s	s	12	3	SIC	463	ABS	0	2	24RD	0	1	0.94096493721	None	None	None	None	1
1.7	2015_Jul_22_1348	s	s	12	3	SIC	464	RC	1	2	23MD	1	0	0.520882129669	-242.0	-114.0	-240	-109	1
1.7	2015_Jul_22_1348	s	s	12	3	SIC	465	ABS	2	2	24VD	0	1	0.68193602562	None	None	None	None	1
1.7	2015_Jul_22_1348	s	s	12	3	SIC	466	RC	1	0	23MC	1	0	1.12931990623	-444.0	-367.0	-445	-375	1
1.7	2015_Jul_22_1348	s	s	12	3	SIC	467	RC	2	0	23VC	1	0	0.470142841339	342.0	358.0	341	357	1
1.7	2015_Jul_22_1348	s	s	12	3	SIC	468	RC	0	1	23RO	1	0	4.0086350441	-249.0	-242.0	-253	-247	1
1.7	2015_Jul_22_1348	s	s	12	3	SIC	469	RC	1	1	23MO	1	0	0.57609796524	271.0	-47.0	263	-48	1
1.7	2015_Jul_22_1348	s	s	12	3	SIC	470	ABS	1	0	24MC	0	1	2.53684020042	None	None	None	None	1
1.7	2015_Jul_22_1348	s	s	12	3	SIC	471	ABS	1	1	24MO	0	1	4.71672201157	None	None	None	None	1
1.7	2015_Jul_22_1348	s	s	12	3	SIC	472	RC	0	2	23RD	1	0	0.617556095123	158.0	-70.0	164	-70	1
1.7	2015_Jul_22_1348	s	s	12	3	SIC	473	ABS	0	2	24RD	0	1	1.84143686295	None	None	None	None	1
1.7	2015_Jul_22_1348	s	s	12	3	SIC	474	ABS	1	2	24MD	0	1	1.4183280468	None	None	None	None	1
1.7	2015_Jul_22_1348	s	s	12	3	SIC	475	RC	2	1	23VO	1	0	0.557840108871	-405.0	-182.0	-403	-174	1
1.7	2015_Jul_22_1348	s	s	12	3	SIC	476	ABS	2	1	24VO	0	1	0.761837005615	None	None	None	None	1
1.7	2015_Jul_22_1348	s	s	12	3	SIC	477	RC	1	2	23MD	1	0	0.57183098793	92.0	-118.0	89	-119	1
1.7	2015_Jul_22_1348	s	s	12	3	SIC	478	ABS	2	0	24VC	0	1	0.643268108368	None	None	None	None	1
1.7	2015_Jul_22_1348	s	s	12	3	SIC	479	ABS	0	1	24RO	0	1	5.00552201271	None	None	None	None	1
1.7	2015_Jul_22_1348	s	s	12	3	SIC	480	RC	2	2	23VD	1	0	0.490436077118	-506.0	209.0	-519	217	1
1.7	2015_Jul_22_1348	s	s	12	3	SIC	481	RC	0	1	23RO	1	0	1.50337195396	33.0	299.0	33	307	1
1.7	2015_Jul_22_1348	s	s	12	3	SIC	482	ABS	2	2	24VD	0	1	0.670292139053	None	None	None	None	1
1.7	2015_Jul_22_1348	s	s	12	3	SIC	483	ABS	1	1	24MO	0	1	1.7622718811	None	None	None	None	1
1.7	2015_Jul_22_1348	s	s	12	3	SIC	484	ABS	1	2	24MD	0	1	0.75004696846	None	None	None	None	1
1.7	2015_Jul_22_1348	s	s	12	3	SIC	485	ABS	0	2	24RD	0	1	1.10305714607	None	None	None	None	1
1.7	2015_Jul_22_1348	s	s	12	3	SIC	486	RC	1	1	23MO	1	0	0.611354112625	98.0	-152.0	104	-152	1
1.7	2015_Jul_22_1348	s	s	12	3	SIC	487	RC	2	1	23VO	1	0	0.479408025742	443.0	365.0	445	360	1
1.7	2015_Jul_22_1348	s	s	12	3	SIC	488	RC	1	2	23MD	1	0	0.434849977493	-458.0	87.0	-455	86	1
1.7	2015_Jul_22_1348	s	s	12	3	SIC	489	RC	1	0	23MC	1	0	1.37649202347	57.0	-373.0	52	-384	1
1.7	2015_Jul_22_1348	s	s	12	3	SIC	490	ABS	1	0	24MC	0	1	1.37654995918	None	None	None	None	1
1.7	2015_Jul_22_1348	s	s	12	3	SIC	491	RC	0	2	23RD	1	0	0.491223096848	-403.0	-121.0	-403	-123	1
1.7	2015_Jul_22_1348	s	s	12	3	SIC	492	RC	2	2	23VD	1	0	0.443960905075	-57.0	402.0	-54	408	1
1.7	2015_Jul_22_1348	s	s	12	3	SIC	493	RC	2	0	23VC	1	0	0.423128843307	-420.0	-132.0	-418	-132	1
1.7	2015_Jul_22_1348	s	s	12	3	SIC	494	ABS	2	0	24VC	0	1	0.792676925659	None	None	None	None	1
1.7	2015_Jul_22_1348	s	s	12	3	SIC	495	ABS	2	1	24VO	0	1	0.655503988266	None	None	None	None	1
1.7	2015_Jul_22_1348	s	s	12	3	SIC	496	ABS	0	1	24RO	0	1	6.22026181221	None	None	None	None	1
1.7	2015_Jul_22_1348	s	s	12	3	SIC	497	RC	1	2	23MD	1	0	0.537434101105	-475.0	78.0	-468	82	1
1.7	2015_Jul_22_1348	s	s	12	3	SIC	498	ABS	2	2	24VD	0	1	0.501964092255	None	None	None	None	1
1.7	2015_Jul_22_1348	s	s	12	3	SIC	499	ABS	2	1	24VO	0	1	0.656209230423	None	None	None	None	1
1.7	2015_Jul_22_1348	s	s	12	3	SIC	500	ABS	0	1	24RO	0	1	3.38936114311	None	None	None	None	1
1.7	2015_Jul_22_1348	s	s	12	3	SIC	501	RC	2	0	23VC	1	0	0.51388502121	66.0	252.0	65	258	1
1.7	2015_Jul_22_1348	s	s	12	3	SIC	502	RC	2	1	23VO	1	0	0.470546960831	101.0	-216.0	105	-220	1
1.7	2015_Jul_22_1348	s	s	12	3	SIC	503	RC	1	1	23MO	1	0	0.806887149811	182.0	-396.0	173	-396	1
1.7	2015_Jul_22_1348	s	s	12	3	SIC	504	ABS	0	2	24RD	0	1	0.726505994797	None	None	None	None	1
1.7	2015_Jul_22_1348	s	s	12	3	SIC	505	RC	0	1	23RO	1	0	0.0867900848389	428.0	224.0	-83	97	0
1.7	2015_Jul_22_1348	s	s	12	3	SIC	506	ABS	2	0	24VC	0	1	0.546900033951	None	None	None	None	1
1.7	2015_Jul_22_1348	s	s	12	3	SIC	507	RC	1	0	23MC	1	0	1.82975006104	29.0	-89.0	32	-90	1
1.7	2015_Jul_22_1348	s	s	12	3	SIC	508	RC	2	2	23VD	1	0	0.443305969238	-12.0	-282.0	-9	-273	1
1.7	2015_Jul_22_1348	s	s	12	3	SIC	509	ABS	1	0	24MC	0	1	2.00876188278	None	None	None	None	1
1.7	2015_Jul_22_1348	s	s	12	3	SIC	510	RC	0	2	23RD	1	0	0.797535896301	81.0	207.0	76	206	1
1.7	2015_Jul_22_1348	s	s	12	3	SIC	511	ABS	1	1	24MO	0	1	1.83024191856	None	None	None	None	1
1.7	2015_Jul_22_1348	s	s	12	3	SIC	512	ABS	1	2	24MD	0	1	0.915065050125	None	None	None	None	1
1.7	2015_Jul_22_1348	s	s	12	3	SIC	513	RC	1	0	23MC	1	0	0.924067020416	339.0	59.0	344	59	1
1.7	2015_Jul_22_1348	s	s	12	3	SIC	514	ABS	1	0	24MC	0	1	1.12918591499	None	None	None	None	1
1.7	2015_Jul_22_1348	s	s	12	3	SIC	515	ABS	0	1	24RO	0	1	6.23781895638	None	None	None	None	1
1.7	2015_Jul_22_1348	s	s	12	3	SIC	516	RC	1	1	23MO	1	0	0.879987955093	117.0	-80.0	112	-71	1
1.7	2015_Jul_22_1348	s	s	12	3	SIC	517	ABS	0	2	24RD	0	1	1.05556702614	None	None	None	None	1
1.7	2015_Jul_22_1348	s	s	12	3	SIC	518	RC	1	2	23MD	1	0	0.573513031006	-454.0	118.0	-462	120	1
1.7	2015_Jul_22_1348	s	s	12	3	SIC	519	ABS	2	0	24VC	0	1	0.585688829422	None	None	None	None	1
1.7	2015_Jul_22_1348	s	s	12	3	SIC	520	RC	2	2	23VD	1	0	0.475834131241	438.0	345.0	436	343	1
1.7	2015_Jul_22_1348	s	s	12	3	SIC	521	RC	0	1	23RO	1	0	1.8942220211	-361.0	-355.0	-362	-359	1
1.7	2015_Jul_22_1348	s	s	12	3	SIC	522	RC	2	1	23VO	1	0	0.458410978317	148.0	349.0	143	345	1
1.7	2015_Jul_22_1348	s	s	12	3	SIC	523	ABS	1	2	24MD	0	1	0.888407945633	None	None	None	None	1
1.7	2015_Jul_22_1348	s	s	12	3	SIC	524	ABS	2	2	24VD	0	1	1.64710903168	None	None	None	None	1
1.7	2015_Jul_22_1348	s	s	12	3	SIC	525	RC	0	2	23RD	1	0	0.458293199539	53.0	162.0	64	164	1
1.7	2015_Jul_22_1348	s	s	12	3	SIC	526	RC	2	0	23VC	1	0	0.423412084579	-421.0	-168.0	-417	-166	1
1.7	2015_Jul_22_1348	s	s	12	3	SIC	527	ABS	2	1	24VO	0	1	0.65626001358	None	None	None	None	1
1.7	2015_Jul_22_1348	s	s	12	3	SIC	528	ABS	1	1	24MO	0	1	2.99576497078	None	None	None	None	1
1.7	2015_Jul_22_1348	s	s	12	3	SIC	529	ABS	0	1	24RO	0	1	4.62268781662	None	None	None	None	1
1.7	2015_Jul_22_1348	s	s	12	3	SIC	530	RC	1	1	23MO	1	0	0.772989034653	174.0	17.0	181	15	1
1.7	2015_Jul_22_1348	s	s	12	3	SIC	531	RC	1	0	23MC	1	0	0.747902154922	-514.0	381.0	-507	375	1
1.7	2015_Jul_22_1348	s	s	12	3	SIC	532	RC	2	0	23VC	1	0	0.399833917618	45.0	83.0	32	89	1
1.7	2015_Jul_22_1348	s	s	12	3	SIC	533	RC	2	2	23VD	1	0	0.405956983566	-509.0	-156.0	-506	-154	1
1.7	2015_Jul_22_1348	s	s	12	3	SIC	534	ABS	1	0	24MC	0	1	2.26862812042	None	None	None	None	1
1.7	2015_Jul_22_1348	s	s	12	3	SIC	535	RC	1	2	23MD	1	0	0.420565128326	-502.0	-53.0	-496	-50	1
1.7	2015_Jul_22_1348	s	s	12	3	SIC	536	ABS	0	2	24RD	0	1	0.799674034119	None	None	None	None	1
1.7	2015_Jul_22_1348	s	s	12	3	SIC	537	ABS	2	0	24VC	0	1	0.561732053757	None	None	None	None	1
1.7	2015_Jul_22_1348	s	s	12	3	SIC	538	ABS	2	1	24VO	0	1	0.644474983215	None	None	None	None	1
1.7	2015_Jul_22_1348	s	s	12	3	SIC	539	RC	2	1	23VO	1	0	0.638583183289	164.0	-208.0	169	-201	1
1.7	2015_Jul_22_1348	s	s	12	3	SIC	540	ABS	2	2	24VD	0	1	0.642688035965	None	None	None	None	1
1.7	2015_Jul_22_1348	s	s	12	3	SIC	541	RC	0	1	23RO	0	1	2.52521705627	134.0	-37.0	None	None	0
1.7	2015_Jul_22_1348	s	s	12	3	SIC	542	RC	0	2	23RD	1	0	0.61142206192	162.0	-320.0	168	-323	1
1.7	2015_Jul_22_1348	s	s	12	3	SIC	543	ABS	1	2	24MD	0	1	0.670256137848	None	None	None	None	1
1.7	2015_Jul_22_1348	s	s	12	3	SIC	544	ABS	1	1	24MO	0	1	2.25129699707	None	None	None	None	1
1.7	2015_Jul_22_1348	s	s	12	3	SIC	545	ABS	0	1	24RO	0	1	4.30502796173	None	None	None	None	1
1.7	2015_Jul_22_1348	s	s	12	3	SIC	546	ABS	1	1	24MO	0	1	0.811541080475	None	None	None	None	1
1.7	2015_Jul_22_1348	s	s	12	3	SIC	547	RC	2	1	23VO	1	0	0.737962961197	479.0	-304.0	485	-297	1
1.7	2015_Jul_22_1348	s	s	12	3	SIC	548	ABS	2	2	24VD	0	1	0.452564001083	None	None	None	None	1
1.7	2015_Jul_22_1348	s	s	12	3	SIC	549	ABS	2	0	24VC	0	1	0.776257991791	None	None	None	None	1
1.7	2015_Jul_22_1348	s	s	12	3	SIC	550	RC	2	0	23VC	1	0	0.446681022644	450.0	-290.0	456	-286	1
1.7	2015_Jul_22_1348	s	s	12	3	SIC	551	RC	1	1	23MO	1	0	1.04318499565	275.0	-349.0	276	-344	1
1.7	2015_Jul_22_1348	s	s	12	3	SIC	552	RC	0	1	23RO	0	1	3.78979110718	28.0	124.0	None	None	0
1.7	2015_Jul_22_1348	s	s	12	3	SIC	553	ABS	2	1	24VO	0	1	0.724780082703	None	None	None	None	1
1.7	2015_Jul_22_1348	s	s	12	3	SIC	554	RC	1	2	23MD	1	0	1.01147389412	-21.0	-216.0	-19	-223	1
1.7	2015_Jul_22_1348	s	s	12	3	SIC	555	ABS	1	2	24MD	0	1	0.705476045609	None	None	None	None	1
1.7	2015_Jul_22_1348	s	s	12	3	SIC	556	RC	2	2	23VD	1	0	0.434885025024	-57.0	32.0	-64	31	1
1.7	2015_Jul_22_1348	s	s	12	3	SIC	557	RC	0	2	23RD	1	0	0.442033052444	-33.0	29.0	-27	27	1
1.7	2015_Jul_22_1348	s	s	12	3	SIC	558	ABS	0	2	24RD	0	1	0.783229827881	None	None	None	None	1
1.7	2015_Jul_22_1348	s	s	12	3	SIC	559	ABS	1	0	24MC	0	1	2.96938204765	None	None	None	None	1
1.7	2015_Jul_22_1348	s	s	12	3	SIC	560	RC	1	0	23MC	1	0	3.00794792175	-131.0	226.0	-127	220	1
1.7	2015_Jul_22_1348	s	s	12	3	SIC	561	RC	0	1	23RO	0	1	2.80834507942	-102.0	-183.0	None	None	0
1.7	2015_Jul_22_1348	s	s	12	3	SIC	562	RC	1	1	23MO	1	0	0.771199941635	-484.0	-71.0	-490	-68	1
1.7	2015_Jul_22_1348	s	s	12	3	SIC	563	RC	0	2	23RD	1	0	0.559242963791	-367.0	-408.0	-370	-404	1
1.7	2015_Jul_22_1348	s	s	12	3	SIC	564	ABS	2	2	24VD	0	1	0.493762969971	None	None	None	None	1
1.7	2015_Jul_22_1348	s	s	12	3	SIC	565	ABS	1	1	24MO	0	1	1.51271700859	None	None	None	None	1
1.7	2015_Jul_22_1348	s	s	12	3	SIC	566	ABS	2	0	24VC	0	1	0.623281955719	None	None	None	None	1
1.7	2015_Jul_22_1348	s	s	12	3	SIC	567	RC	2	2	23VD	1	0	0.517259836197	-87.0	222.0	-81	226	1
1.7	2015_Jul_22_1348	s	s	12	3	SIC	568	RC	1	0	23MC	1	0	1.02339696884	50.0	218.0	48	223	1
1.7	2015_Jul_22_1348	s	s	12	3	SIC	569	ABS	0	1	24RO	0	1	2.98667287827	None	None	None	None	1
1.7	2015_Jul_22_1348	s	s	12	3	SIC	570	RC	1	2	23MD	1	0	0.505400180817	435.0	-238.0	435	-235	1
1.7	2015_Jul_22_1348	s	s	12	3	SIC	571	ABS	1	2	24MD	0	1	0.746772050858	None	None	None	None	1
1.7	2015_Jul_22_1348	s	s	12	3	SIC	572	ABS	0	2	24RD	0	1	0.900434017181	None	None	None	None	1
1.7	2015_Jul_22_1348	s	s	12	3	SIC	573	ABS	1	0	24MC	0	1	3.95459890366	None	None	None	None	1
1.7	2015_Jul_22_1348	s	s	12	3	SIC	574	ABS	2	1	24VO	0	1	0.599623918533	None	None	None	None	1
1.7	2015_Jul_22_1348	s	s	12	3	SIC	575	RC	2	0	23VC	1	0	0.525910139084	202.0	282.0	192	283	1
1.7	2015_Jul_22_1348	s	s	12	3	SIC	576	RC	2	1	23VO	1	0	0.524220943451	464.0	-218.0	460	-210	1
1.7	2015_Jul_22_1348	s	s	12	3	SIC	577	RC	2	1	23VO	1	0	0.408800125122	-416.0	226.0	-416	226	1
1.7	2015_Jul_22_1348	s	s	12	3	SIC	578	RC	2	0	23VC	1	0	0.455569028854	-373.0	-387.0	-369	-382	1
1.7	2015_Jul_22_1348	s	s	12	3	SIC	579	RC	1	1	23MO	1	0	0.776212930679	526.0	-343.0	528	-347	1
1.7	2015_Jul_22_1348	s	s	12	3	SIC	580	ABS	2	1	24VO	0	1	0.65829706192	None	None	None	None	1
1.7	2015_Jul_22_1348	s	s	12	3	SIC	581	RC	2	2	23VD	1	0	0.481854915619	426.0	128.0	428	130	1
1.7	2015_Jul_22_1348	s	s	12	3	SIC	582	ABS	2	0	24VC	0	1	0.658589839935	None	None	None	None	1
1.7	2015_Jul_22_1348	s	s	12	3	SIC	583	RC	0	2	23RD	1	0	0.536231040955	-218.0	-257.0	-218	-264	1
1.7	2015_Jul_22_1348	s	s	12	3	SIC	584	ABS	0	1	24RO	0	1	4.19424700737	None	None	None	None	1
1.7	2015_Jul_22_1348	s	s	12	3	SIC	585	ABS	1	1	24MO	0	1	1.10304403305	None	None	None	None	1
1.7	2015_Jul_22_1348	s	s	12	3	SIC	586	ABS	1	0	24MC	0	1	3.36146306992	None	None	None	None	1
1.7	2015_Jul_22_1348	s	s	12	3	SIC	587	RC	0	1	23RO	1	0	5.17851996422	-450.0	-379.0	-448	-386	1
1.7	2015_Jul_22_1348	s	s	12	3	SIC	588	ABS	1	2	24MD	0	1	0.556257009506	None	None	None	None	1
1.7	2015_Jul_22_1348	s	s	12	3	SIC	589	RC	1	0	23MC	1	0	1.69429206848	161.0	-156.0	160	-155	1
1.7	2015_Jul_22_1348	s	s	12	3	SIC	590	ABS	0	2	24RD	0	1	1.02342915535	None	None	None	None	1
1.7	2015_Jul_22_1348	s	s	12	3	SIC	591	RC	1	2	23MD	1	0	0.458348989487	-258.0	224.0	-253	220	1
1.7	2015_Jul_22_1348	s	s	12	3	SIC	592	ABS	2	2	24VD	0	1	0.482089996338	None	None	None	None	1
