Version	Date	Stimuli	Method	Subject	Session	Condition	Trial	Target	Channel1	Channel2	Distractors	LMouseButton	RMouseButton	RT	TargetX	TargetY	ResponseX	ResponseY	Correct
1.7	2015_Jul_23_1403	s	s	12	4	Capacity	1	ABS	1	0	24MC	0	1	2.20943403244	None	None	None	None	1
1.7	2015_Jul_23_1403	s	s	12	4	Capacity	2	RC	1	0	23MC	1	0	1.3059360981	-341.0	-249.0	-339	-243	1
1.7	2015_Jul_23_1403	s	s	12	4	Capacity	3	ABS	2	0	24VC	1	0	0.187721014023	None	None	-133	-53	0
1.7	2015_Jul_23_1403	s	s	12	4	Capacity	4	RC	2	0	23VC	1	0	0.493808031082	-56.0	326.0	-52	335	1
1.7	2015_Jul_23_1403	s	s	12	4	Capacity	5	ABS	2	0	24VC	0	1	1.1261279583	None	None	None	None	1
1.7	2015_Jul_23_1403	s	s	12	4	Capacity	6	ABS	1	0	24MC	0	1	4.95010399818	None	None	None	None	1
1.7	2015_Jul_23_1403	s	s	12	4	Capacity	7	RC	2	0	23VC	1	0	0.606281995773	232.0	-160.0	240	-158	1
1.7	2015_Jul_23_1403	s	s	12	4	Capacity	8	RC	1	0	23MC	1	0	0.499491930008	9.0	23.0	18	27	1
1.7	2015_Jul_23_1403	s	s	12	4	Capacity	9	ABS	1	0	24MC	0	1	1.7832570076	None	None	None	None	1
1.7	2015_Jul_23_1403	s	s	12	4	Capacity	10	RC	1	0	23MC	1	0	0.646707057953	-132.0	249.0	-124	250	1
1.7	2015_Jul_23_1403	s	s	12	4	Capacity	11	RC	2	0	23VC	1	0	0.397114038467	81.0	-37.0	85	-40	1
1.7	2015_Jul_23_1403	s	s	12	4	Capacity	12	ABS	2	0	24VC	1	0	0.831419944763	None	None	-104	-55	0
1.7	2015_Jul_23_1403	s	s	12	4	Capacity	13	ABS	2	0	24VC	0	1	0.90568113327	None	None	None	None	1
1.7	2015_Jul_23_1403	s	s	12	4	Capacity	14	RC	2	0	23VC	1	0	0.476353883743	149.0	370.0	144	364	1
1.7	2015_Jul_23_1403	s	s	12	4	Capacity	15	RC	1	0	23MC	1	0	0.741008996964	-387.0	253.0	-392	259	1
1.7	2015_Jul_23_1403	s	s	12	4	Capacity	16	ABS	1	0	24MC	0	1	4.55143713951	None	None	None	None	1
1.7	2015_Jul_23_1403	s	s	12	4	Capacity	17	RC	1	0	23MC	1	0	0.858568906784	26.0	260.0	24	267	1
1.7	2015_Jul_23_1403	s	s	12	4	Capacity	18	ABS	2	0	24VC	0	1	1.21837806702	None	None	None	None	1
1.7	2015_Jul_23_1403	s	s	12	4	Capacity	19	RC	2	0	23VC	1	0	0.441738843918	-262.0	-29.0	-257	-34	1
1.7	2015_Jul_23_1403	s	s	12	4	Capacity	20	ABS	1	0	24MC	0	1	2.79565191269	None	None	None	None	1
1.7	2015_Jul_23_1403	s	s	12	4	Capacity	21	RC	1	0	23MC	1	0	3.036206007	-369.0	198.0	-364	195	1
1.7	2015_Jul_23_1403	s	s	12	4	Capacity	22	RC	2	0	23VC	1	0	0.465270996094	-262.0	133.0	-256	128	1
1.7	2015_Jul_23_1403	s	s	12	4	Capacity	23	ABS	2	0	24VC	0	1	0.717305898666	None	None	None	None	1
1.7	2015_Jul_23_1403	s	s	12	4	Capacity	24	ABS	1	0	24MC	0	1	2.01208305359	None	None	None	None	1
1.7	2015_Jul_23_1403	s	s	12	4	Capacity	25	ABS	1	0	24MC	0	1	1.56493711472	None	None	None	None	1
1.7	2015_Jul_23_1403	s	s	12	4	Capacity	26	ABS	2	0	24VC	0	1	0.632623195648	None	None	None	None	1
1.7	2015_Jul_23_1403	s	s	12	4	Capacity	27	RC	2	0	23VC	1	0	0.548288106918	204.0	361.0	206	361	1
1.7	2015_Jul_23_1403	s	s	12	4	Capacity	28	RC	1	0	23MC	1	0	1.0469288826	-210.0	-163.0	-205	-156	1
1.7	2015_Jul_23_1403	s	s	12	4	Capacity	29	RC	2	0	23VC	1	0	0.473937034607	-348.0	298.0	-343	302	1
1.7	2015_Jul_23_1403	s	s	12	4	Capacity	30	ABS	2	0	24VC	0	1	0.595415830612	None	None	None	None	1
1.7	2015_Jul_23_1403	s	s	12	4	Capacity	31	ABS	1	0	24MC	0	1	1.68629908562	None	None	None	None	1
1.7	2015_Jul_23_1403	s	s	12	4	Capacity	32	RC	1	0	23MC	1	0	1.09403300285	-282.0	-170.0	-284	-168	1
1.7	2015_Jul_23_1403	s	s	12	4	Capacity	33	RC	1	0	23MC	1	0	0.970725059509	231.0	-49.0	232	-43	1
1.7	2015_Jul_23_1403	s	s	12	4	Capacity	34	ABS	2	0	24VC	0	1	0.564384937286	None	None	None	None	1
1.7	2015_Jul_23_1403	s	s	12	4	Capacity	35	RC	2	0	23VC	1	0	0.428514957428	-356.0	233.0	-354	233	1
1.7	2015_Jul_23_1403	s	s	12	4	Capacity	36	ABS	1	0	24MC	0	1	2.28953194618	None	None	None	None	1
1.7	2015_Jul_23_1403	s	s	12	4	Capacity	37	ABS	1	0	24MC	0	1	1.76229906082	None	None	None	None	1
1.7	2015_Jul_23_1403	s	s	12	4	Capacity	38	ABS	2	0	24VC	0	1	1.28850317001	None	None	None	None	1
1.7	2015_Jul_23_1403	s	s	12	4	Capacity	39	RC	2	0	23VC	1	0	0.596977949142	346.0	82.0	347	82	1
1.7	2015_Jul_23_1403	s	s	12	4	Capacity	40	RC	1	0	23MC	1	0	1.18383598328	472.0	-270.0	467	-264	1
1.7	2015_Jul_23_1403	s	s	12	4	Capacity	41	ABS	2	0	24VC	0	1	0.552570819855	None	None	None	None	1
1.7	2015_Jul_23_1403	s	s	12	4	Capacity	42	ABS	1	0	24MC	0	1	3.06629991531	None	None	None	None	1
1.7	2015_Jul_23_1403	s	s	12	4	Capacity	43	RC	1	0	23MC	1	0	1.04702591896	382.0	-383.0	382	-385	1
1.7	2015_Jul_23_1403	s	s	12	4	Capacity	44	RC	2	0	23VC	1	0	0.42928481102	-311.0	160.0	-314	161	1
1.7	2015_Jul_23_1403	s	s	12	4	Capacity	45	ABS	1	0	24MC	0	1	2.45943498611	None	None	None	None	1
1.7	2015_Jul_23_1403	s	s	12	4	Capacity	46	ABS	2	0	24VC	0	1	0.682080030441	None	None	None	None	1
1.7	2015_Jul_23_1403	s	s	12	4	Capacity	47	RC	1	0	23MC	1	0	0.846915960312	-284.0	76.0	-276	76	1
1.7	2015_Jul_23_1403	s	s	12	4	Capacity	48	RC	2	0	23VC	1	0	0.538269996643	-164.0	380.0	-168	389	1
1.7	2015_Jul_23_1403	s	s	12	4	Capacity	49	RC	1	0	23MC	1	0	0.735228061676	-57.0	156.0	-57	163	1
1.7	2015_Jul_23_1403	s	s	12	4	Capacity	50	RC	2	0	23VC	1	0	0.44401216507	-533.0	122.0	-538	128	1
1.7	2015_Jul_23_1403	s	s	12	4	Capacity	51	ABS	1	0	24MC	0	1	1.86684894562	None	None	None	None	1
1.7	2015_Jul_23_1403	s	s	12	4	Capacity	52	ABS	2	0	24VC	0	1	0.842063903809	None	None	None	None	1
1.7	2015_Jul_23_1403	s	s	12	4	Capacity	53	RC	1	0	23MC	1	0	0.596215963364	473.0	214.0	472	208	1
1.7	2015_Jul_23_1403	s	s	12	4	Capacity	54	ABS	1	0	24MC	0	1	3.3018078804	None	None	None	None	1
1.7	2015_Jul_23_1403	s	s	12	4	Capacity	55	RC	2	0	23VC	1	0	0.505631923676	382.0	-362.0	376	-360	1
1.7	2015_Jul_23_1403	s	s	12	4	Capacity	56	ABS	2	0	24VC	0	1	1.07039999962	None	None	None	None	1
1.7	2015_Jul_23_1403	s	s	12	4	Capacity	57	ABS	2	0	24VC	0	1	1.12537097931	None	None	None	None	1
1.7	2015_Jul_23_1403	s	s	12	4	Capacity	58	ABS	1	0	24MC	0	1	1.80563497543	None	None	None	None	1
1.7	2015_Jul_23_1403	s	s	12	4	Capacity	59	RC	2	0	23VC	1	0	0.764392137527	449.0	-126.0	452	-124	1
1.7	2015_Jul_23_1403	s	s	12	4	Capacity	60	RC	1	0	23MC	1	0	0.818041801453	279.0	-340.0	286	-335	1
1.7	2015_Jul_23_1403	s	s	12	4	Capacity	61	RC	1	0	23MC	1	0	2.24759507179	-393.0	-272.0	-397	-277	1
1.7	2015_Jul_23_1403	s	s	12	4	Capacity	62	ABS	2	0	24VC	0	1	0.64661693573	None	None	None	None	1
1.7	2015_Jul_23_1403	s	s	12	4	Capacity	63	ABS	1	0	24MC	0	1	3.26934099197	None	None	None	None	1
1.7	2015_Jul_23_1403	s	s	12	4	Capacity	64	RC	2	0	23VC	1	0	0.423174858093	13.0	168.0	16	164	1
1.7	2015_Jul_23_1403	s	s	12	4	Capacity	65	ABS	2	0	24VC	0	1	0.729207038879	None	None	None	None	1
1.7	2015_Jul_23_1403	s	s	12	4	Capacity	66	RC	1	0	23MC	1	0	0.534767150879	158.0	-172.0	150	-168	1
1.7	2015_Jul_23_1403	s	s	12	4	Capacity	67	ABS	1	0	24MC	0	1	1.44466114044	None	None	None	None	1
1.7	2015_Jul_23_1403	s	s	12	4	Capacity	68	RC	2	0	23VC	1	0	0.428913831711	-85.0	144.0	-89	153	1
1.7	2015_Jul_23_1403	s	s	12	4	Capacity	69	RC	1	0	23MC	1	0	0.828540086746	-434.0	221.0	-434	218	1
1.7	2015_Jul_23_1403	s	s	12	4	Capacity	70	ABS	2	0	24VC	0	1	0.571053028107	None	None	None	None	1
1.7	2015_Jul_23_1403	s	s	12	4	Capacity	71	RC	2	0	23VC	1	0	0.408861875534	-230.0	238.0	-224	241	1
1.7	2015_Jul_23_1403	s	s	12	4	Capacity	72	ABS	1	0	24MC	0	1	1.45402097702	None	None	None	None	1
1.7	2015_Jul_23_1403	s	s	12	4	Capacity	73	ABS	1	0	24MC	0	1	3.25999307632	None	None	None	None	1
1.7	2015_Jul_23_1403	s	s	12	4	Capacity	74	ABS	2	0	24VC	0	1	0.917387962341	None	None	None	None	1
1.7	2015_Jul_23_1403	s	s	12	4	Capacity	75	RC	2	0	23VC	1	0	0.595535039902	273.0	-403.0	271	-403	1
1.7	2015_Jul_23_1403	s	s	12	4	Capacity	76	RC	1	0	23MC	1	0	0.783926963806	-460.0	208.0	-459	214	1
1.7	2015_Jul_23_1403	s	s	12	4	Capacity	77	RC	1	0	23MC	1	0	0.631638050079	-513.0	134.0	-508	137	1
1.7	2015_Jul_23_1403	s	s	12	4	Capacity	78	RC	2	0	23VC	1	0	0.505474090576	-104.0	-343.0	-101	-344	1
1.7	2015_Jul_23_1403	s	s	12	4	Capacity	79	ABS	1	0	24MC	0	1	2.586550951	None	None	None	None	1
1.7	2015_Jul_23_1403	s	s	12	4	Capacity	80	ABS	2	0	24VC	0	1	1.40725588799	None	None	None	None	1
1.7	2015_Jul_23_1403	s	s	12	4	Capacity	81	ABS	2	0	24VC	0	1	2.07102894783	None	None	None	None	1
1.7	2015_Jul_23_1403	s	s	12	4	Capacity	82	ABS	1	0	24MC	0	1	2.28288006783	None	None	None	None	1
1.7	2015_Jul_23_1403	s	s	12	4	Capacity	83	RC	2	0	23VC	1	0	0.631717920303	-169.0	-245.0	-161	-243	1
1.7	2015_Jul_23_1403	s	s	12	4	Capacity	84	RC	1	0	23MC	1	0	1.01819109917	-242.0	-314.0	-238	-318	1
1.7	2015_Jul_23_1403	s	s	12	4	Capacity	85	ABS	2	0	24VC	0	1	0.693819999695	None	None	None	None	1
1.7	2015_Jul_23_1403	s	s	12	4	Capacity	86	ABS	1	0	24MC	0	1	2.30630803108	None	None	None	None	1
1.7	2015_Jul_23_1403	s	s	12	4	Capacity	87	RC	1	0	23MC	1	0	0.856107950211	-364.0	154.0	-358	157	1
1.7	2015_Jul_23_1403	s	s	12	4	Capacity	88	RC	2	0	23VC	1	0	0.382966041565	-300.0	228.0	-305	224	1
1.7	2015_Jul_23_1403	s	s	12	4	Capacity	89	ABS	2	0	24VC	1	0	0.0645887851715	None	None	-81	125	0
1.7	2015_Jul_23_1403	s	s	12	4	Capacity	90	ABS	1	0	24MC	0	1	0.961712837219	None	None	None	None	1
1.7	2015_Jul_23_1403	s	s	12	4	Capacity	91	RC	2	0	23VC	1	0	0.441221952438	330.0	-32.0	329	-23	1
1.7	2015_Jul_23_1403	s	s	12	4	Capacity	92	RC	1	0	23MC	1	0	0.988022089005	-91.0	291.0	-99	287	1
1.7	2015_Jul_23_1403	s	s	12	4	Capacity	1	RC	0	2	23RD	1	0	0.594899177551	-410.0	247.0	-415	247	1
1.7	2015_Jul_23_1403	s	s	12	4	Capacity	2	ABS	0	2	24RD	0	1	0.830780029297	None	None	None	None	1
1.7	2015_Jul_23_1403	s	s	12	4	Capacity	3	RC	0	1	23RO	1	0	2.08959007263	-87.0	-230.0	-87	-222	1
1.7	2015_Jul_23_1403	s	s	12	4	Capacity	4	ABS	0	1	24RO	0	1	3.91561985016	None	None	None	None	1
1.7	2015_Jul_23_1403	s	s	12	4	Capacity	5	RC	0	1	23RO	1	0	0.811524152756	-66.0	255.0	-55	257	1
1.7	2015_Jul_23_1403	s	s	12	4	Capacity	6	ABS	0	1	24RO	0	1	3.819617033	None	None	None	None	1
1.7	2015_Jul_23_1403	s	s	12	4	Capacity	7	ABS	0	2	24RD	0	1	0.841530799866	None	None	None	None	1
1.7	2015_Jul_23_1403	s	s	12	4	Capacity	8	RC	0	2	23RD	1	0	0.479290962219	-109.0	-177.0	-98	-174	1
1.7	2015_Jul_23_1403	s	s	12	4	Capacity	9	ABS	0	2	24RD	0	1	1.25246286392	None	None	None	None	1
1.7	2015_Jul_23_1403	s	s	12	4	Capacity	10	RC	0	1	23RO	1	0	2.87129688263	407.0	206.0	403	205	1
1.7	2015_Jul_23_1403	s	s	12	4	Capacity	11	RC	0	2	23RD	1	0	0.450224876404	-206.0	157.0	-199	157	1
1.7	2015_Jul_23_1403	s	s	12	4	Capacity	12	ABS	0	1	24RO	0	1	4.99381089211	None	None	None	None	1
1.7	2015_Jul_23_1403	s	s	12	4	Capacity	13	ABS	0	1	24RO	0	1	5.51486420631	None	None	None	None	1
1.7	2015_Jul_23_1403	s	s	12	4	Capacity	14	RC	0	1	23RO	1	0	2.94209885597	243.0	-137.0	244	-135	1
1.7	2015_Jul_23_1403	s	s	12	4	Capacity	15	RC	0	2	23RD	1	0	0.490427970886	119.0	356.0	123	358	1
1.7	2015_Jul_23_1403	s	s	12	4	Capacity	16	ABS	0	2	24RD	1	0	0.611482143402	None	None	1	140	0
1.7	2015_Jul_23_1403	s	s	12	4	Capacity	17	RC	0	2	23RD	1	0	0.432313919067	155.0	44.0	149	50	1
1.7	2015_Jul_23_1403	s	s	12	4	Capacity	18	ABS	0	2	24RD	0	1	0.644395828247	None	None	None	None	1
1.7	2015_Jul_23_1403	s	s	12	4	Capacity	19	RC	0	1	23RO	1	0	4.23424887657	282.0	-236.0	284	-228	1
1.7	2015_Jul_23_1403	s	s	12	4	Capacity	20	ABS	0	1	24RO	0	1	4.50503802299	None	None	None	None	1
1.7	2015_Jul_23_1403	s	s	12	4	Capacity	21	ABS	0	1	24RO	0	1	5.33148288727	None	None	None	None	1
1.7	2015_Jul_23_1403	s	s	12	4	Capacity	22	RC	0	2	23RD	1	0	0.499718904495	-324.0	163.0	-322	161	1
1.7	2015_Jul_23_1403	s	s	12	4	Capacity	23	RC	0	1	23RO	1	0	2.68304991722	133.0	409.0	125	403	1
1.7	2015_Jul_23_1403	s	s	12	4	Capacity	24	ABS	0	2	24RD	0	1	0.723781108856	None	None	None	None	1
1.7	2015_Jul_23_1403	s	s	12	4	Capacity	25	ABS	0	1	24RO	0	1	3.56586122513	None	None	None	None	1
1.7	2015_Jul_23_1403	s	s	12	4	Capacity	26	ABS	0	2	24RD	0	1	0.917470216751	None	None	None	None	1
1.7	2015_Jul_23_1403	s	s	12	4	Capacity	27	RC	0	2	23RD	1	0	0.54695391655	-446.0	229.0	-448	224	1
1.7	2015_Jul_23_1403	s	s	12	4	Capacity	28	RC	0	1	23RO	1	0	3.37482905388	477.0	-50.0	478	-49	1
1.7	2015_Jul_23_1403	s	s	12	4	Capacity	29	ABS	0	2	24RD	0	1	0.658545017242	None	None	None	None	1
1.7	2015_Jul_23_1403	s	s	12	4	Capacity	30	ABS	0	1	24RO	0	1	4.71948003769	None	None	None	None	1
1.7	2015_Jul_23_1403	s	s	12	4	Capacity	31	RC	0	1	23RO	1	0	5.11962389946	527.0	-196.0	529	-194	1
1.7	2015_Jul_23_1403	s	s	12	4	Capacity	32	RC	0	2	23RD	1	0	0.893890857697	397.0	384.0	397	387	1
1.7	2015_Jul_23_1403	s	s	12	4	Capacity	33	ABS	0	2	24RD	0	1	0.540966033936	None	None	None	None	1
1.7	2015_Jul_23_1403	s	s	12	4	Capacity	34	ABS	0	1	24RO	0	1	5.05842113495	None	None	None	None	1
1.7	2015_Jul_23_1403	s	s	12	4	Capacity	35	RC	0	2	23RD	1	0	0.540806055069	-345.0	321.0	-347	326	1
1.7	2015_Jul_23_1403	s	s	12	4	Capacity	36	RC	0	1	23RO	1	0	2.09454393387	307.0	348.0	305	343	1
1.7	2015_Jul_23_1403	s	s	12	4	Capacity	37	ABS	0	2	24RD	0	1	0.960240840912	None	None	None	None	1
1.7	2015_Jul_23_1403	s	s	12	4	Capacity	38	RC	0	2	23RD	1	0	0.587951898575	301.0	-222.0	294	-218	1
1.7	2015_Jul_23_1403	s	s	12	4	Capacity	39	ABS	0	1	24RO	0	1	4.62523198128	None	None	None	None	1
1.7	2015_Jul_23_1403	s	s	12	4	Capacity	40	RC	0	1	23RO	1	0	0.952748060226	-406.0	-113.0	-405	-114	1
1.7	2015_Jul_23_1403	s	s	12	4	Capacity	41	ABS	0	2	24RD	0	1	0.740937948227	None	None	None	None	1
1.7	2015_Jul_23_1403	s	s	12	4	Capacity	42	ABS	0	1	24RO	0	1	3.88982915878	None	None	None	None	1
1.7	2015_Jul_23_1403	s	s	12	4	Capacity	43	RC	0	1	23RO	1	0	2.515843153	55.0	178.0	58	187	1
1.7	2015_Jul_23_1403	s	s	12	4	Capacity	44	RC	0	2	23RD	1	0	0.476632118225	-220.0	216.0	-220	225	1
1.7	2015_Jul_23_1403	s	s	12	4	Capacity	45	RC	0	2	23RD	1	0	0.540815830231	-399.0	-166.0	-394	-164	1
1.7	2015_Jul_23_1403	s	s	12	4	Capacity	46	ABS	0	1	24RO	0	1	4.45755386353	None	None	None	None	1
1.7	2015_Jul_23_1403	s	s	12	4	Capacity	47	RC	0	1	23RO	1	0	2.2639400959	401.0	144.0	406	141	1
1.7	2015_Jul_23_1403	s	s	12	4	Capacity	48	ABS	0	2	24RD	0	1	1.11215400696	None	None	None	None	1
1.7	2015_Jul_23_1403	s	s	12	4	Capacity	49	ABS	0	2	24RD	0	1	0.882216930389	None	None	None	None	1
1.7	2015_Jul_23_1403	s	s	12	4	Capacity	50	RC	0	2	23RD	1	0	3.64519500732	24.0	352.0	30	354	1
1.7	2015_Jul_23_1403	s	s	12	4	Capacity	51	RC	0	1	23RO	1	0	2.47756481171	257.0	-345.0	254	-344	1
1.7	2015_Jul_23_1403	s	s	12	4	Capacity	52	ABS	0	1	24RO	0	1	5.00194478035	None	None	None	None	1
1.7	2015_Jul_23_1403	s	s	12	4	Capacity	53	ABS	0	1	24RO	0	1	4.27202391624	None	None	None	None	1
1.7	2015_Jul_23_1403	s	s	12	4	Capacity	54	RC	0	2	23RD	1	0	0.668162107468	470.0	-191.0	466	-189	1
1.7	2015_Jul_23_1403	s	s	12	4	Capacity	55	RC	0	1	23RO	1	0	1.97681188583	185.0	92.0	186	93	1
1.7	2015_Jul_23_1403	s	s	12	4	Capacity	56	ABS	0	2	24RD	0	1	1.19183015823	None	None	None	None	1
1.7	2015_Jul_23_1403	s	s	12	4	Capacity	57	ABS	0	2	24RD	0	1	0.846807003021	None	None	None	None	1
1.7	2015_Jul_23_1403	s	s	12	4	Capacity	58	RC	0	1	23RO	1	0	1.81199812889	341.0	139.0	342	142	1
1.7	2015_Jul_23_1403	s	s	12	4	Capacity	59	ABS	0	1	24RO	0	1	4.47223305702	None	None	None	None	1
1.7	2015_Jul_23_1403	s	s	12	4	Capacity	60	RC	0	2	23RD	1	0	0.694279193878	203.0	162.0	206	157	1
1.7	2015_Jul_23_1403	s	s	12	4	Capacity	61	RC	0	2	23RD	1	0	0.462016105652	-26.0	336.0	-31	327	1
1.7	2015_Jul_23_1403	s	s	12	4	Capacity	62	RC	0	1	23RO	1	0	3.69289517403	5.0	-339.0	15	-333	1
1.7	2015_Jul_23_1403	s	s	12	4	Capacity	63	ABS	0	2	24RD	0	1	0.764424085617	None	None	None	None	1
1.7	2015_Jul_23_1403	s	s	12	4	Capacity	64	ABS	0	1	24RO	0	1	3.73884105682	None	None	None	None	1
1.7	2015_Jul_23_1403	s	s	12	4	Capacity	65	ABS	0	1	24RO	0	1	4.81368088722	None	None	None	None	1
1.7	2015_Jul_23_1403	s	s	12	4	Capacity	66	RC	0	2	23RD	1	0	0.467617988586	-104.0	-54.0	-99	-57	1
1.7	2015_Jul_23_1403	s	s	12	4	Capacity	67	ABS	0	2	24RD	0	1	2.8477370739	None	None	None	None	1
1.7	2015_Jul_23_1403	s	s	12	4	Capacity	68	RC	0	1	23RO	1	0	3.81007814407	-261.0	-59.0	-257	-57	1
1.7	2015_Jul_23_1403	s	s	12	4	Capacity	69	ABS	0	1	24RO	0	1	4.49576592445	None	None	None	None	1
1.7	2015_Jul_23_1403	s	s	12	4	Capacity	70	RC	0	2	23RD	1	0	0.68205499649	357.0	-345.0	368	-336	1
1.7	2015_Jul_23_1403	s	s	12	4	Capacity	71	RC	0	1	23RO	1	0	3.28345799446	-200.0	84.0	-212	87	1
1.7	2015_Jul_23_1403	s	s	12	4	Capacity	72	ABS	0	2	24RD	0	1	0.914618968964	None	None	None	None	1
1.7	2015_Jul_23_1403	s	s	12	4	Capacity	73	ABS	0	2	24RD	0	1	0.629865884781	None	None	None	None	1
1.7	2015_Jul_23_1403	s	s	12	4	Capacity	74	ABS	0	1	24RO	0	1	3.66774582863	None	None	None	None	1
1.7	2015_Jul_23_1403	s	s	12	4	Capacity	75	RC	0	2	23RD	1	0	0.658555984497	312.0	-268.0	314	-264	1
1.7	2015_Jul_23_1403	s	s	12	4	Capacity	76	RC	0	1	23RO	1	0	4.39770102501	266.0	334.0	265	337	1
1.7	2015_Jul_23_1403	s	s	12	4	Capacity	77	ABS	0	1	24RO	0	1	4.50757598877	None	None	None	None	1
1.7	2015_Jul_23_1403	s	s	12	4	Capacity	78	ABS	0	2	24RD	0	1	1.37655687332	None	None	None	None	1
1.7	2015_Jul_23_1403	s	s	12	4	Capacity	79	RC	0	2	23RD	1	0	0.587842941284	-539.0	-252.0	-537	-256	1
1.7	2015_Jul_23_1403	s	s	12	4	Capacity	80	RC	0	1	23RO	0	1	15.5919339657	454.0	-67.0	None	None	0
1.7	2015_Jul_23_1403	s	s	12	4	Capacity	81	ABS	0	1	24RO	0	1	3.34822702408	None	None	None	None	1
1.7	2015_Jul_23_1403	s	s	12	4	Capacity	82	RC	0	2	23RD	1	0	0.549649000168	99.0	-287.0	99	-299	1
1.7	2015_Jul_23_1403	s	s	12	4	Capacity	83	ABS	0	2	24RD	0	1	1.05880999565	None	None	None	None	1
1.7	2015_Jul_23_1403	s	s	12	4	Capacity	84	RC	0	1	23RO	1	0	0.882238864899	-227.0	-76.0	-218	-71	1
1.7	2015_Jul_23_1403	s	s	12	4	Capacity	85	ABS	0	1	24RO	0	1	4.02492880821	None	None	None	None	1
1.7	2015_Jul_23_1403	s	s	12	4	Capacity	86	RC	0	2	23RD	1	0	0.505506038666	-122.0	-63.0	-119	-53	1
1.7	2015_Jul_23_1403	s	s	12	4	Capacity	87	ABS	0	2	24RD	0	1	0.747988939285	None	None	None	None	1
1.7	2015_Jul_23_1403	s	s	12	4	Capacity	88	RC	0	1	23RO	1	0	2.81920385361	269.0	206.0	260	207	1
1.7	2015_Jul_23_1403	s	s	12	4	Capacity	89	RC	0	2	23RD	1	0	0.458404064178	257.0	-69.0	265	-70	1
1.7	2015_Jul_23_1403	s	s	12	4	Capacity	90	RC	0	1	23RO	1	0	1.94851398468	368.0	-141.0	357	-141	1
1.7	2015_Jul_23_1403	s	s	12	4	Capacity	91	ABS	0	1	24RO	0	1	4.42029190063	None	None	None	None	1
1.7	2015_Jul_23_1403	s	s	12	4	Capacity	92	ABS	0	2	24RD	0	1	0.879711866379	None	None	None	None	1
1.7	2015_Jul_23_1403	s	s	12	4	SIC	1	RC	2	1	23VO	1	0	0.599776029587	-242.0	-297.0	-249	-292	1
1.7	2015_Jul_23_1403	s	s	12	4	SIC	2	ABS	0	2	24RD	0	1	0.64665389061	None	None	None	None	1
1.7	2015_Jul_23_1403	s	s	12	4	SIC	3	RC	0	2	23RD	1	0	0.806042909622	509.0	-344.0	517	-341	1
1.7	2015_Jul_23_1403	s	s	12	4	SIC	4	ABS	1	1	24MO	0	1	2.58295297623	None	None	None	None	1
1.7	2015_Jul_23_1403	s	s	12	4	SIC	5	ABS	2	0	24VC	0	1	0.758711099625	None	None	None	None	1
1.7	2015_Jul_23_1403	s	s	12	4	SIC	6	ABS	1	2	24MD	0	1	0.690809011459	None	None	None	None	1
1.7	2015_Jul_23_1403	s	s	12	4	SIC	7	RC	2	0	23VC	1	0	0.585430860519	415.0	-249.0	413	-248	1
1.7	2015_Jul_23_1403	s	s	12	4	SIC	8	RC	1	0	23MC	1	0	0.635368824005	-423.0	-165.0	-424	-167	1
1.7	2015_Jul_23_1403	s	s	12	4	SIC	9	ABS	1	0	24MC	0	1	2.56538796425	None	None	None	None	1
1.7	2015_Jul_23_1403	s	s	12	4	SIC	10	ABS	2	2	24VD	0	1	0.973982095718	None	None	None	None	1
1.7	2015_Jul_23_1403	s	s	12	4	SIC	11	ABS	0	1	24RO	0	1	5.27941703796	None	None	None	None	1
1.7	2015_Jul_23_1403	s	s	12	4	SIC	12	RC	0	1	23RO	0	1	3.18915200233	-297.0	-252.0	None	None	0
1.7	2015_Jul_23_1403	s	s	12	4	SIC	13	RC	2	2	23VD	1	0	0.478982925415	-39.0	283.0	-44	279	1
1.7	2015_Jul_23_1403	s	s	12	4	SIC	14	ABS	2	1	24VO	0	1	0.65864610672	None	None	None	None	1
1.7	2015_Jul_23_1403	s	s	12	4	SIC	15	RC	1	1	23MO	1	0	0.705580949783	104.0	-54.0	110	-52	1
1.7	2015_Jul_23_1403	s	s	12	4	SIC	16	RC	1	2	23MD	1	0	0.642944097519	-421.0	-312.0	-421	-310	1
1.7	2015_Jul_23_1403	s	s	12	4	SIC	17	ABS	1	0	24MC	0	1	1.29418611526	None	None	None	None	1
1.7	2015_Jul_23_1403	s	s	12	4	SIC	18	RC	1	2	23MD	1	0	0.646639108658	412.0	370.0	417	372	1
1.7	2015_Jul_23_1403	s	s	12	4	SIC	19	RC	2	2	23VD	1	0	0.440911054611	314.0	87.0	316	92	1
1.7	2015_Jul_23_1403	s	s	12	4	SIC	20	RC	1	0	23MC	1	0	0.740918874741	99.0	-142.0	108	-137	1
1.7	2015_Jul_23_1403	s	s	12	4	SIC	21	RC	2	0	23VC	1	0	0.399631023407	366.0	146.0	361	149	1
1.7	2015_Jul_23_1403	s	s	12	4	SIC	22	RC	0	1	23RO	0	1	2.90670704842	217.0	-76.0	None	None	0
1.7	2015_Jul_23_1403	s	s	12	4	SIC	23	ABS	2	2	24VD	0	1	0.517732143402	None	None	None	None	1
1.7	2015_Jul_23_1403	s	s	12	4	SIC	24	ABS	0	2	24RD	0	1	1.7296500206	None	None	None	None	1
1.7	2015_Jul_23_1403	s	s	12	4	SIC	25	ABS	1	2	24MD	0	1	0.526269197464	None	None	None	None	1
1.7	2015_Jul_23_1403	s	s	12	4	SIC	26	ABS	1	1	24MO	0	1	2.05442690849	None	None	None	None	1
1.7	2015_Jul_23_1403	s	s	12	4	SIC	27	RC	1	1	23MO	1	0	0.643790006638	157.0	-139.0	150	-133	1
1.7	2015_Jul_23_1403	s	s	12	4	SIC	28	RC	2	1	23VO	0	1	0.464991092682	336.0	392.0	None	None	0
1.7	2015_Jul_23_1403	s	s	12	4	SIC	29	RC	0	2	23RD	1	0	0.571138858795	-103.0	-49.0	-99	-46	1
1.7	2015_Jul_23_1403	s	s	12	4	SIC	30	ABS	0	1	24RO	1	0	4.56639814377	None	None	11	74	0
1.7	2015_Jul_23_1403	s	s	12	4	SIC	31	ABS	2	1	24VO	0	1	0.61144900322	None	None	None	None	1
1.7	2015_Jul_23_1403	s	s	12	4	SIC	32	ABS	2	0	24VC	0	1	0.712293863297	None	None	None	None	1
1.7	2015_Jul_23_1403	s	s	12	4	SIC	33	ABS	1	0	24MC	0	1	2.60066890717	None	None	None	None	1
1.7	2015_Jul_23_1403	s	s	12	4	SIC	34	RC	2	2	23VD	1	0	0.655862092972	-309.0	379.0	-308	377	1
1.7	2015_Jul_23_1403	s	s	12	4	SIC	35	RC	1	2	23MD	1	0	0.47022485733	-30.0	344.0	-31	339	1
1.7	2015_Jul_23_1403	s	s	12	4	SIC	36	ABS	1	2	24MD	0	1	0.888581991196	None	None	None	None	1
1.7	2015_Jul_23_1403	s	s	12	4	SIC	37	ABS	2	2	24VD	0	1	0.513409137726	None	None	None	None	1
1.7	2015_Jul_23_1403	s	s	12	4	SIC	38	ABS	1	1	24MO	0	1	1.80935811996	None	None	None	None	1
1.7	2015_Jul_23_1403	s	s	12	4	SIC	39	ABS	2	0	24VC	1	0	0.441914081573	None	None	-30	101	0
1.7	2015_Jul_23_1403	s	s	12	4	SIC	40	RC	2	0	23VC	1	0	0.582016944885	-265.0	-136.0	-275	-129	1
1.7	2015_Jul_23_1403	s	s	12	4	SIC	41	ABS	2	1	24VO	0	1	0.61825799942	None	None	None	None	1
1.7	2015_Jul_23_1403	s	s	12	4	SIC	42	RC	2	1	23VO	1	0	0.481968164444	-70.0	260.0	-61	263	1
1.7	2015_Jul_23_1403	s	s	12	4	SIC	43	ABS	0	1	24RO	0	1	3.10230612755	None	None	None	None	1
1.7	2015_Jul_23_1403	s	s	12	4	SIC	44	RC	0	2	23RD	1	0	0.517261981964	42.0	65.0	35	71	1
1.7	2015_Jul_23_1403	s	s	12	4	SIC	45	RC	1	0	23MC	1	0	1.37653708458	-437.0	292.0	-431	290	1
1.7	2015_Jul_23_1403	s	s	12	4	SIC	46	RC	1	1	23MO	1	0	1.02326607704	172.0	-285.0	173	-285	1
1.7	2015_Jul_23_1403	s	s	12	4	SIC	47	RC	0	1	23RO	1	0	3.78560805321	350.0	359.0	348	356	1
1.7	2015_Jul_23_1403	s	s	12	4	SIC	48	ABS	0	2	24RD	0	1	0.658580064774	None	None	None	None	1
1.7	2015_Jul_23_1403	s	s	12	4	SIC	49	ABS	2	1	24VO	0	1	0.670217990875	None	None	None	None	1
1.7	2015_Jul_23_1403	s	s	12	4	SIC	50	RC	1	0	23MC	1	0	0.549212932587	-364.0	251.0	-356	253	1
1.7	2015_Jul_23_1403	s	s	12	4	SIC	51	RC	1	1	23MO	1	0	0.740881919861	-136.0	-374.0	-134	-371	1
1.7	2015_Jul_23_1403	s	s	12	4	SIC	52	ABS	2	0	24VC	0	1	0.587887048721	None	None	None	None	1
1.7	2015_Jul_23_1403	s	s	12	4	SIC	53	RC	1	2	23MD	1	0	0.500564813614	367.0	-265.0	371	-265	1
1.7	2015_Jul_23_1403	s	s	12	4	SIC	54	RC	2	1	23VO	1	0	0.458411931992	-185.0	-353.0	-178	-353	1
1.7	2015_Jul_23_1403	s	s	12	4	SIC	55	ABS	1	1	24MO	0	1	2.68309211731	None	None	None	None	1
1.7	2015_Jul_23_1403	s	s	12	4	SIC	56	RC	0	1	23RO	1	0	4.87954688072	202.0	351.0	202	350	1
1.7	2015_Jul_23_1403	s	s	12	4	SIC	57	ABS	1	2	24MD	0	1	0.948542833328	None	None	None	None	1
1.7	2015_Jul_23_1403	s	s	12	4	SIC	58	RC	2	2	23VD	1	0	0.606437921524	245.0	167.0	248	171	1
1.7	2015_Jul_23_1403	s	s	12	4	SIC	59	ABS	2	2	24VD	0	1	0.808805942535	None	None	None	None	1
1.7	2015_Jul_23_1403	s	s	12	4	SIC	60	ABS	1	0	24MC	0	1	2.41867494583	None	None	None	None	1
1.7	2015_Jul_23_1403	s	s	12	4	SIC	61	RC	0	2	23RD	1	0	0.441939115524	86.0	-26.0	85	-34	1
1.7	2015_Jul_23_1403	s	s	12	4	SIC	62	ABS	0	1	24RO	0	1	4.12280988693	None	None	None	None	1
1.7	2015_Jul_23_1403	s	s	12	4	SIC	63	ABS	0	2	24RD	0	1	1.12940502167	None	None	None	None	1
1.7	2015_Jul_23_1403	s	s	12	4	SIC	64	RC	2	0	23VC	1	0	0.44131398201	-246.0	201.0	-251	203	1
1.7	2015_Jul_23_1403	s	s	12	4	SIC	65	ABS	1	1	24MO	0	1	1.65899205208	None	None	None	None	1
1.7	2015_Jul_23_1403	s	s	12	4	SIC	66	ABS	0	2	24RD	0	1	0.948734045029	None	None	None	None	1
1.7	2015_Jul_23_1403	s	s	12	4	SIC	67	ABS	0	1	24RO	0	1	3.23144602776	None	None	None	None	1
1.7	2015_Jul_23_1403	s	s	12	4	SIC	68	RC	1	1	23MO	1	0	0.94109082222	-245.0	-64.0	-244	-57	1
1.7	2015_Jul_23_1403	s	s	12	4	SIC	69	ABS	2	1	24VO	0	1	0.529142141342	None	None	None	None	1
1.7	2015_Jul_23_1403	s	s	12	4	SIC	70	RC	2	0	23VC	1	0	0.667546033859	-417.0	238.0	-409	241	1
1.7	2015_Jul_23_1403	s	s	12	4	SIC	71	RC	2	1	23VO	1	0	0.634869813919	-308.0	374.0	-304	373	1
1.7	2015_Jul_23_1403	s	s	12	4	SIC	72	ABS	2	2	24VD	0	1	0.62316608429	None	None	None	None	1
1.7	2015_Jul_23_1403	s	s	12	4	SIC	73	RC	0	1	23RO	0	1	3.74897193909	237.0	-369.0	None	None	0
1.7	2015_Jul_23_1403	s	s	12	4	SIC	74	ABS	1	2	24MD	0	1	0.52329492569	None	None	None	None	1
1.7	2015_Jul_23_1403	s	s	12	4	SIC	75	ABS	1	0	24MC	0	1	1.6186299324	None	None	None	None	1
1.7	2015_Jul_23_1403	s	s	12	4	SIC	76	RC	2	2	23VD	1	0	0.560224056244	456.0	167.0	452	165	1
1.7	2015_Jul_23_1403	s	s	12	4	SIC	77	ABS	2	0	24VC	0	1	0.576354980469	None	None	None	None	1
1.7	2015_Jul_23_1403	s	s	12	4	SIC	78	RC	1	2	23MD	0	1	0.646759986877	342.0	60.0	None	None	0
1.7	2015_Jul_23_1403	s	s	12	4	SIC	79	RC	1	0	23MC	1	0	0.591609954834	76.0	331.0	73	334	1
1.7	2015_Jul_23_1403	s	s	12	4	SIC	80	RC	0	2	23RD	1	0	0.415086984634	-291.0	223.0	-286	222	1
1.7	2015_Jul_23_1403	s	s	12	4	SIC	81	ABS	0	2	24RD	1	0	0.536751031876	None	None	3	42	0
1.7	2015_Jul_23_1403	s	s	12	4	SIC	82	RC	2	2	23VD	1	0	0.470621824265	-125.0	-113.0	-127	-109	1
1.7	2015_Jul_23_1403	s	s	12	4	SIC	83	ABS	1	0	24MC	0	1	1.75859880447	None	None	None	None	1
1.7	2015_Jul_23_1403	s	s	12	4	SIC	84	RC	2	0	23VC	1	0	0.573519945145	328.0	-254.0	336	-251	1
1.7	2015_Jul_23_1403	s	s	12	4	SIC	85	RC	0	1	23RO	0	1	3.31508898735	-199.0	-297.0	None	None	0
1.7	2015_Jul_23_1403	s	s	12	4	SIC	86	ABS	1	2	24MD	0	1	0.899724006653	None	None	None	None	1
1.7	2015_Jul_23_1403	s	s	12	4	SIC	87	ABS	2	0	24VC	0	1	0.736220121384	None	None	None	None	1
1.7	2015_Jul_23_1403	s	s	12	4	SIC	88	ABS	1	1	24MO	0	1	2.44146609306	None	None	None	None	1
1.7	2015_Jul_23_1403	s	s	12	4	SIC	89	RC	1	2	23MD	1	0	0.511669158936	-273.0	-203.0	-265	-197	1
1.7	2015_Jul_23_1403	s	s	12	4	SIC	90	ABS	0	1	24RO	0	1	4.11375522614	None	None	None	None	1
1.7	2015_Jul_23_1403	s	s	12	4	SIC	91	ABS	2	1	24VO	0	1	0.635468006134	None	None	None	None	1
1.7	2015_Jul_23_1403	s	s	12	4	SIC	92	RC	0	2	23RD	1	0	1.06765007973	140.0	302.0	146	302	1
1.7	2015_Jul_23_1403	s	s	12	4	SIC	93	ABS	2	2	24VD	0	1	0.611359834671	None	None	None	None	1
1.7	2015_Jul_23_1403	s	s	12	4	SIC	94	RC	1	0	23MC	1	0	0.811597108841	174.0	71.0	177	79	1
1.7	2015_Jul_23_1403	s	s	12	4	SIC	95	RC	2	1	23VO	1	0	0.529031038284	261.0	172.0	256	178	1
1.7	2015_Jul_23_1403	s	s	12	4	SIC	96	RC	1	1	23MO	1	0	0.552559137344	202.0	306.0	210	305	1
1.7	2015_Jul_23_1403	s	s	12	4	SIC	97	ABS	0	1	24RO	0	1	10.345774889	None	None	None	None	1
1.7	2015_Jul_23_1403	s	s	12	4	SIC	98	ABS	2	1	24VO	0	1	0.877321958542	None	None	None	None	1
1.7	2015_Jul_23_1403	s	s	12	4	SIC	99	RC	0	1	23RO	0	1	4.18481397629	-212.0	68.0	None	None	0
1.7	2015_Jul_23_1403	s	s	12	4	SIC	100	RC	0	2	23RD	1	0	0.51241517067	-118.0	302.0	-116	304	1
1.7	2015_Jul_23_1403	s	s	12	4	SIC	101	RC	1	2	23MD	1	0	0.450551986694	84.0	323.0	93	321	1
1.7	2015_Jul_23_1403	s	s	12	4	SIC	102	RC	1	0	23MC	1	0	0.647062063217	339.0	324.0	336	323	1
1.7	2015_Jul_23_1403	s	s	12	4	SIC	103	RC	2	2	23VD	1	0	1.3247590065	-377.0	-347.0	-385	-349	1
1.7	2015_Jul_23_1403	s	s	12	4	SIC	104	ABS	2	0	24VC	0	1	0.653605937958	None	None	None	None	1
1.7	2015_Jul_23_1403	s	s	12	4	SIC	105	ABS	0	2	24RD	0	1	1.53677082062	None	None	None	None	1
1.7	2015_Jul_23_1403	s	s	12	4	SIC	106	RC	2	1	23VO	1	0	0.446686029434	69.0	152.0	78	159	1
1.7	2015_Jul_23_1403	s	s	12	4	SIC	107	ABS	2	2	24VD	0	1	0.587934017181	None	None	None	None	1
1.7	2015_Jul_23_1403	s	s	12	4	SIC	108	ABS	1	0	24MC	0	1	1.99551606178	None	None	None	None	1
1.7	2015_Jul_23_1403	s	s	12	4	SIC	109	ABS	1	1	24MO	0	1	0.973751068115	None	None	None	None	1
1.7	2015_Jul_23_1403	s	s	12	4	SIC	110	ABS	1	2	24MD	0	1	1.11795091629	None	None	None	None	1
1.7	2015_Jul_23_1403	s	s	12	4	SIC	111	RC	2	0	23VC	1	0	0.713126897812	-364.0	65.0	-349	73	1
1.7	2015_Jul_23_1403	s	s	12	4	SIC	112	RC	1	1	23MO	1	0	0.714461088181	-319.0	160.0	-312	154	1
1.7	2015_Jul_23_1403	s	s	12	4	SIC	113	ABS	1	2	24MD	0	1	0.726355075836	None	None	None	None	1
1.7	2015_Jul_23_1403	s	s	12	4	SIC	114	ABS	2	1	24VO	0	1	1.07035207748	None	None	None	None	1
1.7	2015_Jul_23_1403	s	s	12	4	SIC	115	RC	1	2	23MD	1	0	0.702119112015	-427.0	124.0	-423	126	1
1.7	2015_Jul_23_1403	s	s	12	4	SIC	116	RC	1	1	23MO	1	0	0.561741113663	-156.0	202.0	-155	207	1
1.7	2015_Jul_23_1403	s	s	12	4	SIC	117	ABS	2	0	24VC	0	1	0.882464885712	None	None	None	None	1
1.7	2015_Jul_23_1403	s	s	12	4	SIC	118	RC	2	1	23VO	1	0	0.932956933975	-435.0	-66.0	-439	-69	1
1.7	2015_Jul_23_1403	s	s	12	4	SIC	119	ABS	1	0	24MC	0	1	1.71196818352	None	None	None	None	1
1.7	2015_Jul_23_1403	s	s	12	4	SIC	120	ABS	0	2	24RD	0	1	1.87844991684	None	None	None	None	1
1.7	2015_Jul_23_1403	s	s	12	4	SIC	121	ABS	0	1	24RO	0	1	5.66117286682	None	None	None	None	1
1.7	2015_Jul_23_1403	s	s	12	4	SIC	122	RC	2	0	23VC	1	0	0.453675031662	-200.0	-259.0	-196	-253	1
1.7	2015_Jul_23_1403	s	s	12	4	SIC	123	ABS	1	1	24MO	0	1	3.10163593292	None	None	None	None	1
1.7	2015_Jul_23_1403	s	s	12	4	SIC	124	RC	0	2	23RD	1	0	0.599766016006	-85.0	-386.0	-82	-383	1
1.7	2015_Jul_23_1403	s	s	12	4	SIC	125	RC	0	1	23RO	1	0	0.912568092346	-306.0	-236.0	-301	-229	1
1.7	2015_Jul_23_1403	s	s	12	4	SIC	126	ABS	2	2	24VD	0	1	0.59467291832	None	None	None	None	1
1.7	2015_Jul_23_1403	s	s	12	4	SIC	127	RC	1	0	23MC	1	0	0.809211015701	-189.0	42.0	-190	35	1
1.7	2015_Jul_23_1403	s	s	12	4	SIC	128	RC	2	2	23VD	1	0	0.399559020996	114.0	54.0	114	48	1
1.7	2015_Jul_23_1403	s	s	12	4	SIC	129	RC	0	1	23RO	1	0	1.93825602531	230.0	223.0	227	225	1
1.7	2015_Jul_23_1403	s	s	12	4	SIC	130	ABS	1	2	24MD	0	1	0.597192049026	None	None	None	None	1
1.7	2015_Jul_23_1403	s	s	12	4	SIC	131	ABS	2	2	24VD	0	1	0.540862083435	None	None	None	None	1
1.7	2015_Jul_23_1403	s	s	12	4	SIC	132	RC	1	2	23MD	1	0	0.488847017288	424.0	122.0	434	125	1
1.7	2015_Jul_23_1403	s	s	12	4	SIC	133	RC	0	2	23RD	1	0	0.382949113846	422.0	-174.0	419	-166	1
1.7	2015_Jul_23_1403	s	s	12	4	SIC	134	RC	1	0	23MC	1	0	2.37133288383	-513.0	-171.0	-512	-165	1
1.7	2015_Jul_23_1403	s	s	12	4	SIC	135	RC	1	1	23MO	1	0	1.76229095459	-26.0	-226.0	-26	-229	1
1.7	2015_Jul_23_1403	s	s	12	4	SIC	136	ABS	1	1	24MO	0	1	2.44268083572	None	None	None	None	1
1.7	2015_Jul_23_1403	s	s	12	4	SIC	137	ABS	0	1	24RO	0	1	2.94198107719	None	None	None	None	1
1.7	2015_Jul_23_1403	s	s	12	4	SIC	138	ABS	1	0	24MC	0	1	2.32999610901	None	None	None	None	1
1.7	2015_Jul_23_1403	s	s	12	4	SIC	139	ABS	2	0	24VC	0	1	0.764466047287	None	None	None	None	1
1.7	2015_Jul_23_1403	s	s	12	4	SIC	140	ABS	0	2	24RD	0	1	0.60644698143	None	None	None	None	1
1.7	2015_Jul_23_1403	s	s	12	4	SIC	141	ABS	2	1	24VO	0	1	0.8821849823	None	None	None	None	1
1.7	2015_Jul_23_1403	s	s	12	4	SIC	142	RC	2	0	23VC	1	0	0.411292076111	-182.0	-92.0	-174	-91	1
1.7	2015_Jul_23_1403	s	s	12	4	SIC	143	RC	2	2	23VD	1	0	0.423101902008	-380.0	-174.0	-375	-169	1
1.7	2015_Jul_23_1403	s	s	12	4	SIC	144	RC	2	1	23VO	1	0	0.396898984909	-249.0	-30.0	-253	-24	1
1.7	2015_Jul_23_1403	s	s	12	4	SIC	145	RC	2	0	23VC	1	0	0.395308971405	47.0	-282.0	46	-282	1
1.7	2015_Jul_23_1403	s	s	12	4	SIC	146	RC	1	2	23MD	1	0	0.411334991455	302.0	157.0	305	153	1
1.7	2015_Jul_23_1403	s	s	12	4	SIC	147	ABS	2	2	24VD	0	1	1.03132486343	None	None	None	None	1
1.7	2015_Jul_23_1403	s	s	12	4	SIC	148	ABS	1	1	24MO	1	0	0.500784158707	None	None	30	-210	0
1.7	2015_Jul_23_1403	s	s	12	4	SIC	149	ABS	0	2	24RD	0	1	0.752744197845	None	None	None	None	1
1.7	2015_Jul_23_1403	s	s	12	4	SIC	150	ABS	0	1	24RO	0	1	4.27209401131	None	None	None	None	1
1.7	2015_Jul_23_1403	s	s	12	4	SIC	151	ABS	2	0	24VC	0	1	0.682106971741	None	None	None	None	1
1.7	2015_Jul_23_1403	s	s	12	4	SIC	152	RC	1	0	23MC	1	0	0.676934957504	-337.0	400.0	-338	399	1
1.7	2015_Jul_23_1403	s	s	12	4	SIC	153	RC	0	2	23RD	1	0	0.481930017471	-79.0	146.0	-85	147	1
1.7	2015_Jul_23_1403	s	s	12	4	SIC	154	ABS	2	1	24VO	0	1	0.599748134613	None	None	None	None	1
1.7	2015_Jul_23_1403	s	s	12	4	SIC	155	ABS	1	0	24MC	0	1	1.97389388084	None	None	None	None	1
1.7	2015_Jul_23_1403	s	s	12	4	SIC	156	RC	2	2	23VD	1	0	0.49987411499	171.0	390.0	165	390	1
1.7	2015_Jul_23_1403	s	s	12	4	SIC	157	RC	0	1	23RO	0	1	4.00729584694	176.0	222.0	None	None	0
1.7	2015_Jul_23_1403	s	s	12	4	SIC	158	RC	2	1	23VO	1	0	1.02976298332	466.0	308.0	471	317	1
1.7	2015_Jul_23_1403	s	s	12	4	SIC	159	RC	1	1	23MO	1	0	1.11223006248	537.0	47.0	535	55	1
1.7	2015_Jul_23_1403	s	s	12	4	SIC	160	ABS	1	2	24MD	0	1	0.570776939392	None	None	None	None	1
1.7	2015_Jul_23_1403	s	s	12	4	SIC	161	ABS	1	2	24MD	0	1	0.776167869568	None	None	None	None	1
1.7	2015_Jul_23_1403	s	s	12	4	SIC	162	RC	1	1	23MO	1	0	0.57156586647	-267.0	344.0	-267	344	1
1.7	2015_Jul_23_1403	s	s	12	4	SIC	163	ABS	2	0	24VC	0	1	0.540786981583	None	None	None	None	1
1.7	2015_Jul_23_1403	s	s	12	4	SIC	164	RC	2	0	23VC	1	0	0.491214036942	279.0	281.0	271	277	1
1.7	2015_Jul_23_1403	s	s	12	4	SIC	165	RC	1	2	23MD	1	0	0.420094013214	97.0	98.0	96	98	1
1.7	2015_Jul_23_1403	s	s	12	4	SIC	166	RC	0	2	23RD	1	0	0.717868804932	375.0	244.0	371	238	1
1.7	2015_Jul_23_1403	s	s	12	4	SIC	167	ABS	2	2	24VD	0	1	0.670310020447	None	None	None	None	1
1.7	2015_Jul_23_1403	s	s	12	4	SIC	168	ABS	0	1	24RO	0	1	4.19596719742	None	None	None	None	1
1.7	2015_Jul_23_1403	s	s	12	4	SIC	169	ABS	0	2	24RD	0	1	0.679473161697	None	None	None	None	1
1.7	2015_Jul_23_1403	s	s	12	4	SIC	170	RC	1	0	23MC	1	0	1.83247685432	46.0	-275.0	51	-270	1
1.7	2015_Jul_23_1403	s	s	12	4	SIC	171	ABS	2	1	24VO	0	1	0.729150056839	None	None	None	None	1
1.7	2015_Jul_23_1403	s	s	12	4	SIC	172	ABS	1	0	24MC	0	1	3.12655115128	None	None	None	None	1
1.7	2015_Jul_23_1403	s	s	12	4	SIC	173	RC	2	2	23VD	1	0	0.561043977737	-362.0	-398.0	-366	-403	1
1.7	2015_Jul_23_1403	s	s	12	4	SIC	174	RC	0	1	23RO	0	1	2.83053803444	-387.0	122.0	None	None	0
1.7	2015_Jul_23_1403	s	s	12	4	SIC	175	ABS	1	1	24MO	0	1	1.61879491806	None	None	None	None	1
1.7	2015_Jul_23_1403	s	s	12	4	SIC	176	RC	2	1	23VO	1	0	0.528857946396	-159.0	243.0	-153	241	1
1.7	2015_Jul_23_1403	s	s	12	4	SIC	177	ABS	1	2	24MD	0	1	0.558841943741	None	None	None	None	1
1.7	2015_Jul_23_1403	s	s	12	4	SIC	178	RC	2	0	23VC	1	0	0.523561954498	-322.0	168.0	-322	164	1
1.7	2015_Jul_23_1403	s	s	12	4	SIC	179	RC	2	2	23VD	1	0	0.434731960297	-213.0	346.0	-217	335	1
1.7	2015_Jul_23_1403	s	s	12	4	SIC	180	RC	2	1	23VO	1	0	0.419847011566	354.0	-44.0	351	-50	1
1.7	2015_Jul_23_1403	s	s	12	4	SIC	181	RC	1	2	23MD	1	0	0.596581220627	-493.0	-333.0	-493	-335	1
1.7	2015_Jul_23_1403	s	s	12	4	SIC	182	ABS	0	1	24RO	0	1	5.3380818367	None	None	None	None	1
1.7	2015_Jul_23_1403	s	s	12	4	SIC	183	ABS	1	1	24MO	0	1	2.16517710686	None	None	None	None	1
1.7	2015_Jul_23_1403	s	s	12	4	SIC	184	ABS	0	2	24RD	0	1	0.690249919891	None	None	None	None	1
1.7	2015_Jul_23_1403	s	s	12	4	SIC	185	RC	0	2	23RD	1	0	0.467592000961	-189.0	20.0	-187	15	1
1.7	2015_Jul_23_1403	s	s	12	4	SIC	186	ABS	1	0	24MC	0	1	3.00095200539	None	None	None	None	1
1.7	2015_Jul_23_1403	s	s	12	4	SIC	187	ABS	2	0	24VC	0	1	0.611466884613	None	None	None	None	1
1.7	2015_Jul_23_1403	s	s	12	4	SIC	188	RC	1	1	23MO	1	0	0.74091219902	-227.0	154.0	-231	155	1
1.7	2015_Jul_23_1403	s	s	12	4	SIC	189	ABS	2	2	24VD	0	1	0.517298936844	None	None	None	None	1
1.7	2015_Jul_23_1403	s	s	12	4	SIC	190	RC	1	0	23MC	1	0	0.952800989151	200.0	-288.0	207	-287	1
1.7	2015_Jul_23_1403	s	s	12	4	SIC	191	RC	0	1	23RO	1	0	2.89487409592	-19.0	-128.0	-16	-121	1
1.7	2015_Jul_23_1403	s	s	12	4	SIC	192	ABS	2	1	24VO	1	0	0.51370215416	None	None	163	24	0
1.7	2015_Jul_23_1403	s	s	12	4	SIC	193	ABS	2	2	24VD	0	1	0.429844856262	None	None	None	None	1
1.7	2015_Jul_23_1403	s	s	12	4	SIC	194	RC	2	2	23VD	1	0	0.40615105629	282.0	-65.0	271	-63	1
1.7	2015_Jul_23_1403	s	s	12	4	SIC	195	RC	2	1	23VO	1	0	0.423079967499	-446.0	-131.0	-451	-132	1
1.7	2015_Jul_23_1403	s	s	12	4	SIC	196	RC	1	1	23MO	1	0	1.21994614601	322.0	177.0	323	182	1
1.7	2015_Jul_23_1403	s	s	12	4	SIC	197	ABS	2	1	24VO	0	1	0.594743967056	None	None	None	None	1
1.7	2015_Jul_23_1403	s	s	12	4	SIC	198	ABS	0	2	24RD	0	1	0.689306974411	None	None	None	None	1
1.7	2015_Jul_23_1403	s	s	12	4	SIC	199	ABS	1	0	24MC	0	1	3.37299013138	None	None	None	None	1
1.7	2015_Jul_23_1403	s	s	12	4	SIC	200	ABS	1	1	24MO	0	1	2.75369596481	None	None	None	None	1
1.7	2015_Jul_23_1403	s	s	12	4	SIC	201	RC	1	0	23MC	1	0	0.752642154694	305.0	-140.0	294	-131	1
1.7	2015_Jul_23_1403	s	s	12	4	SIC	202	RC	0	2	23RD	1	0	0.768132925034	-472.0	-302.0	-477	-295	1
1.7	2015_Jul_23_1403	s	s	12	4	SIC	203	ABS	2	0	24VC	0	1	0.587880134583	None	None	None	None	1
1.7	2015_Jul_23_1403	s	s	12	4	SIC	204	RC	1	2	23MD	1	0	0.479062080383	290.0	288.0	295	286	1
1.7	2015_Jul_23_1403	s	s	12	4	SIC	205	ABS	0	1	24RO	0	1	5.11995100975	None	None	None	None	1
1.7	2015_Jul_23_1403	s	s	12	4	SIC	206	RC	0	1	23RO	0	1	2.64770507812	-523.0	-281.0	None	None	0
1.7	2015_Jul_23_1403	s	s	12	4	SIC	207	ABS	1	2	24MD	0	1	0.587819099426	None	None	None	None	1
1.7	2015_Jul_23_1403	s	s	12	4	SIC	208	RC	2	0	23VC	1	0	0.759587049484	224.0	371.0	215	373	1
1.7	2015_Jul_23_1403	s	s	12	4	SIC	209	RC	0	2	23RD	1	0	0.512286186218	442.0	41.0	443	49	1
1.7	2015_Jul_23_1403	s	s	12	4	SIC	210	RC	2	2	23VD	1	0	0.411334037781	40.0	215.0	42	221	1
1.7	2015_Jul_23_1403	s	s	12	4	SIC	211	ABS	2	0	24VC	0	1	0.644503116608	None	None	None	None	1
1.7	2015_Jul_23_1403	s	s	12	4	SIC	212	ABS	1	0	24MC	0	1	2.98915910721	None	None	None	None	1
1.7	2015_Jul_23_1403	s	s	12	4	SIC	213	RC	0	1	23RO	0	1	4.78995895386	-356.0	-369.0	None	None	0
1.7	2015_Jul_23_1403	s	s	12	4	SIC	214	ABS	0	2	24RD	0	1	0.536396026611	None	None	None	None	1
1.7	2015_Jul_23_1403	s	s	12	4	SIC	215	ABS	0	1	24RO	0	1	3.51397490501	None	None	None	None	1
1.7	2015_Jul_23_1403	s	s	12	4	SIC	216	RC	1	1	23MO	1	0	1.50592589378	-540.0	14.0	-534	18	1
1.7	2015_Jul_23_1403	s	s	12	4	SIC	217	RC	2	0	23VC	1	0	0.442273139954	401.0	2.0	403	0	1
1.7	2015_Jul_23_1403	s	s	12	4	SIC	218	ABS	1	1	24MO	0	1	1.10072398186	None	None	None	None	1
1.7	2015_Jul_23_1403	s	s	12	4	SIC	219	ABS	2	2	24VD	0	1	1.08920001984	None	None	None	None	1
1.7	2015_Jul_23_1403	s	s	12	4	SIC	220	ABS	1	2	24MD	0	1	3.92783379555	None	None	None	None	1
1.7	2015_Jul_23_1403	s	s	12	4	SIC	221	RC	1	0	23MC	1	0	1.4996907711	271.0	-83.0	269	-79	1
1.7	2015_Jul_23_1403	s	s	12	4	SIC	222	RC	1	2	23MD	1	0	0.470194101334	-434.0	-70.0	-431	-70	1
1.7	2015_Jul_23_1403	s	s	12	4	SIC	223	ABS	2	1	24VO	0	1	0.617657899857	None	None	None	None	1
1.7	2015_Jul_23_1403	s	s	12	4	SIC	224	RC	2	1	23VO	1	0	0.420509815216	-299.0	299.0	-297	300	1
1.7	2015_Jul_23_1403	s	s	12	4	SIC	225	ABS	1	2	24MD	0	1	2.1469168663	None	None	None	None	1
1.7	2015_Jul_23_1403	s	s	12	4	SIC	226	ABS	0	1	24RO	0	1	7.23583889008	None	None	None	None	1
1.7	2015_Jul_23_1403	s	s	12	4	SIC	227	ABS	2	0	24VC	0	1	0.568205833435	None	None	None	None	1
1.7	2015_Jul_23_1403	s	s	12	4	SIC	228	RC	1	1	23MO	1	0	0.623242855072	123.0	224.0	138	232	1
1.7	2015_Jul_23_1403	s	s	12	4	SIC	229	RC	2	0	23VC	1	0	0.429605960846	-397.0	-336.0	-389	-332	1
1.7	2015_Jul_23_1403	s	s	12	4	SIC	230	ABS	2	1	24VO	0	1	0.587770938873	None	None	None	None	1
1.7	2015_Jul_23_1403	s	s	12	4	SIC	231	RC	0	2	23RD	1	0	0.887989044189	428.0	315.0	434	321	1
1.7	2015_Jul_23_1403	s	s	12	4	SIC	232	RC	0	1	23RO	1	0	1.96507787704	-528.0	87.0	-529	90	1
1.7	2015_Jul_23_1403	s	s	12	4	SIC	233	ABS	2	2	24VD	0	1	0.750231027603	None	None	None	None	1
1.7	2015_Jul_23_1403	s	s	12	4	SIC	234	ABS	0	2	24RD	0	1	1.10079717636	None	None	None	None	1
1.7	2015_Jul_23_1403	s	s	12	4	SIC	235	RC	1	2	23MD	1	0	0.717283010483	134.0	101.0	125	101	1
1.7	2015_Jul_23_1403	s	s	12	4	SIC	236	RC	1	0	23MC	1	0	0.584691047668	-33.0	-138.0	-26	-129	1
1.7	2015_Jul_23_1403	s	s	12	4	SIC	237	ABS	1	0	24MC	0	1	2.40057396889	None	None	None	None	1
1.7	2015_Jul_23_1403	s	s	12	4	SIC	238	RC	2	1	23VO	1	0	0.417761087418	-345.0	385.0	-344	394	1
1.7	2015_Jul_23_1403	s	s	12	4	SIC	239	RC	2	2	23VD	1	0	0.384780168533	-444.0	-165.0	-444	-167	1
1.7	2015_Jul_23_1403	s	s	12	4	SIC	240	ABS	1	1	24MO	0	1	1.26557803154	None	None	None	None	1
1.7	2015_Jul_23_1403	s	s	12	4	SIC	241	ABS	1	1	24MO	0	1	4.90765500069	None	None	None	None	1
1.7	2015_Jul_23_1403	s	s	12	4	SIC	242	RC	2	0	23VC	1	0	0.693923950195	39.0	-404.0	46	-407	1
1.7	2015_Jul_23_1403	s	s	12	4	SIC	243	ABS	1	2	24MD	0	1	0.500417947769	None	None	None	None	1
1.7	2015_Jul_23_1403	s	s	12	4	SIC	244	RC	0	1	23RO	0	1	1.88264203072	-467.0	37.0	None	None	0
1.7	2015_Jul_23_1403	s	s	12	4	SIC	245	ABS	2	0	24VC	0	1	0.701199054718	None	None	None	None	1
1.7	2015_Jul_23_1403	s	s	12	4	SIC	246	ABS	1	0	24MC	0	1	0.776727199554	None	None	None	None	1
1.7	2015_Jul_23_1403	s	s	12	4	SIC	247	RC	1	1	23MO	1	0	3.56228089333	-479.0	82.0	-469	86	1
1.7	2015_Jul_23_1403	s	s	12	4	SIC	248	ABS	0	1	24RO	0	1	3.69035816193	None	None	None	None	1
1.7	2015_Jul_23_1403	s	s	12	4	SIC	249	RC	2	2	23VD	1	0	0.399585962296	-126.0	-38.0	-126	-32	1
1.7	2015_Jul_23_1403	s	s	12	4	SIC	250	RC	0	2	23RD	1	0	0.434861898422	136.0	346.0	134	347	1
1.7	2015_Jul_23_1403	s	s	12	4	SIC	251	RC	2	1	23VO	1	0	0.42987203598	-503.0	-273.0	-500	-276	1
1.7	2015_Jul_23_1403	s	s	12	4	SIC	252	RC	1	0	23MC	1	0	0.597257852554	-101.0	-21.0	-92	-19	1
1.7	2015_Jul_23_1403	s	s	12	4	SIC	253	ABS	0	2	24RD	0	1	0.882436037064	None	None	None	None	1
1.7	2015_Jul_23_1403	s	s	12	4	SIC	254	ABS	2	1	24VO	0	1	0.941115140915	None	None	None	None	1
1.7	2015_Jul_23_1403	s	s	12	4	SIC	255	ABS	2	2	24VD	0	1	0.877658128738	None	None	None	None	1
1.7	2015_Jul_23_1403	s	s	12	4	SIC	256	RC	1	2	23MD	1	0	0.4349360466	-97.0	96.0	-87	94	1
1.7	2015_Jul_23_1403	s	s	12	4	SIC	257	RC	1	2	23MD	1	0	0.396858930588	-312.0	98.0	-303	98	1
1.7	2015_Jul_23_1403	s	s	12	4	SIC	258	ABS	1	1	24MO	0	1	2.7890150547	None	None	None	None	1
1.7	2015_Jul_23_1403	s	s	12	4	SIC	259	ABS	0	1	24RO	0	1	3.24454712868	None	None	None	None	1
1.7	2015_Jul_23_1403	s	s	12	4	SIC	260	ABS	2	0	24VC	0	1	2.0681540966	None	None	None	None	1
1.7	2015_Jul_23_1403	s	s	12	4	SIC	261	RC	0	2	23RD	1	0	0.641272068024	-164.0	70.0	-159	63	1
1.7	2015_Jul_23_1403	s	s	12	4	SIC	262	RC	2	2	23VD	1	0	0.511610031128	56.0	314.0	56	317	1
1.7	2015_Jul_23_1403	s	s	12	4	SIC	263	ABS	2	1	24VO	1	0	0.434792041779	None	None	16	-33	0
1.7	2015_Jul_23_1403	s	s	12	4	SIC	264	RC	1	1	23MO	1	0	0.764408826828	-122.0	-330.0	-113	-331	1
1.7	2015_Jul_23_1403	s	s	12	4	SIC	265	RC	1	0	23MC	1	0	0.968552827835	407.0	229.0	402	236	1
1.7	2015_Jul_23_1403	s	s	12	4	SIC	266	ABS	1	0	24MC	0	1	2.47119021416	None	None	None	None	1
1.7	2015_Jul_23_1403	s	s	12	4	SIC	267	RC	2	0	23VC	1	0	0.489109992981	-285.0	-237.0	-280	-234	1
1.7	2015_Jul_23_1403	s	s	12	4	SIC	268	ABS	1	2	24MD	0	1	0.665426015854	None	None	None	None	1
1.7	2015_Jul_23_1403	s	s	12	4	SIC	269	RC	0	1	23RO	1	0	1.52958416939	25.0	-63.0	27	-58	1
1.7	2015_Jul_23_1403	s	s	12	4	SIC	270	RC	2	1	23VO	1	0	0.442137002945	-361.0	-69.0	-369	-65	1
1.7	2015_Jul_23_1403	s	s	12	4	SIC	271	ABS	0	2	24RD	0	1	1.77199292183	None	None	None	None	1
1.7	2015_Jul_23_1403	s	s	12	4	SIC	272	ABS	2	2	24VD	0	1	0.534440994263	None	None	None	None	1
1.7	2015_Jul_23_1403	s	s	12	4	SIC	273	ABS	2	0	24VC	0	1	0.524282932281	None	None	None	None	1
1.7	2015_Jul_23_1403	s	s	12	4	SIC	274	RC	2	2	23VD	1	0	0.45831990242	322.0	-134.0	318	-128	1
1.7	2015_Jul_23_1403	s	s	12	4	SIC	275	RC	2	1	23VO	1	0	0.407990932465	-333.0	-96.0	-328	-95	1
1.7	2015_Jul_23_1403	s	s	12	4	SIC	276	RC	2	0	23VC	1	0	0.376098155975	-65.0	-139.0	-67	-134	1
1.7	2015_Jul_23_1403	s	s	12	4	SIC	277	ABS	2	1	24VO	0	1	0.491354942322	None	None	None	None	1
1.7	2015_Jul_23_1403	s	s	12	4	SIC	278	RC	1	0	23MC	1	0	1.03246116638	378.0	-188.0	382	-179	1
1.7	2015_Jul_23_1403	s	s	12	4	SIC	279	ABS	1	1	24MO	0	1	1.16233587265	None	None	None	None	1
1.7	2015_Jul_23_1403	s	s	12	4	SIC	280	ABS	0	2	24RD	0	1	0.723317146301	None	None	None	None	1
1.7	2015_Jul_23_1403	s	s	12	4	SIC	281	RC	1	1	23MO	1	0	1.1174929142	409.0	130.0	406	129	1
1.7	2015_Jul_23_1403	s	s	12	4	SIC	282	RC	0	1	23RO	1	0	1.50602722168	245.0	262.0	244	262	1
1.7	2015_Jul_23_1403	s	s	12	4	SIC	283	RC	0	2	23RD	1	0	0.385342121124	-288.0	110.0	-286	117	1
1.7	2015_Jul_23_1403	s	s	12	4	SIC	284	RC	1	2	23MD	1	0	0.419891834259	-516.0	149.0	-509	149	1
1.7	2015_Jul_23_1403	s	s	12	4	SIC	285	ABS	0	1	24RO	0	1	4.4109120369	None	None	None	None	1
1.7	2015_Jul_23_1403	s	s	12	4	SIC	286	ABS	1	2	24MD	0	1	0.721074104309	None	None	None	None	1
1.7	2015_Jul_23_1403	s	s	12	4	SIC	287	ABS	1	0	24MC	0	1	2.54185986519	None	None	None	None	1
1.7	2015_Jul_23_1403	s	s	12	4	SIC	288	ABS	2	2	24VD	1	0	0.561602830887	None	None	4	-27	0
1.7	2015_Jul_23_1403	s	s	12	4	SIC	289	ABS	1	1	24MO	0	1	1.77666091919	None	None	None	None	1
1.7	2015_Jul_23_1403	s	s	12	4	SIC	290	ABS	2	0	24VC	0	1	0.535404920578	None	None	None	None	1
1.7	2015_Jul_23_1403	s	s	12	4	SIC	291	ABS	2	1	24VO	0	1	0.443728923798	None	None	None	None	1
1.7	2015_Jul_23_1403	s	s	12	4	SIC	292	ABS	2	2	24VD	0	1	0.548241853714	None	None	None	None	1
1.7	2015_Jul_23_1403	s	s	12	4	SIC	293	RC	1	0	23MC	1	0	0.831203937531	-130.0	401.0	-131	410	1
1.7	2015_Jul_23_1403	s	s	12	4	SIC	294	RC	1	2	23MD	1	0	0.441753149033	-516.0	65.0	-516	67	1
1.7	2015_Jul_23_1403	s	s	12	4	SIC	295	RC	0	2	23RD	1	0	0.505522966385	420.0	189.0	414	193	1
1.7	2015_Jul_23_1403	s	s	12	4	SIC	296	RC	2	0	23VC	1	0	0.487597942352	-489.0	-185.0	-491	-187	1
1.7	2015_Jul_23_1403	s	s	12	4	SIC	297	ABS	1	0	24MC	1	0	3.89053201675	None	None	57	381	0
1.7	2015_Jul_23_1403	s	s	12	4	SIC	298	ABS	1	2	24MD	0	1	0.63502407074	None	None	None	None	1
1.7	2015_Jul_23_1403	s	s	12	4	SIC	299	RC	2	1	23VO	1	0	1.39504504204	-92.0	-116.0	-99	-115	1
1.7	2015_Jul_23_1403	s	s	12	4	SIC	300	RC	2	2	23VD	1	0	0.479368209839	-400.0	306.0	-395	309	1
1.7	2015_Jul_23_1403	s	s	12	4	SIC	301	RC	1	1	23MO	1	0	0.517239093781	130.0	46.0	129	54	1
1.7	2015_Jul_23_1403	s	s	12	4	SIC	302	RC	0	1	23RO	1	0	1.24341917038	-329.0	349.0	-328	351	1
1.7	2015_Jul_23_1403	s	s	12	4	SIC	303	ABS	0	2	24RD	0	1	0.606743097305	None	None	None	None	1
1.7	2015_Jul_23_1403	s	s	12	4	SIC	304	ABS	0	1	24RO	0	1	3.5623459816	None	None	None	None	1
1.7	2015_Jul_23_1403	s	s	12	4	SIC	305	ABS	2	1	24VO	0	1	0.452935934067	None	None	None	None	1
1.7	2015_Jul_23_1403	s	s	12	4	SIC	306	RC	1	1	23MO	1	0	1.0765850544	27.0	-216.0	31	-214	1
1.7	2015_Jul_23_1403	s	s	12	4	SIC	307	RC	2	2	23VD	1	0	0.423218011856	-307.0	-380.0	-305	-381	1
1.7	2015_Jul_23_1403	s	s	12	4	SIC	308	ABS	1	2	24MD	0	1	0.570975780487	None	None	None	None	1
1.7	2015_Jul_23_1403	s	s	12	4	SIC	309	ABS	0	2	24RD	0	1	0.573124885559	None	None	None	None	1
1.7	2015_Jul_23_1403	s	s	12	4	SIC	310	RC	1	2	23MD	1	0	0.405490875244	-406.0	169.0	-400	173	1
1.7	2015_Jul_23_1403	s	s	12	4	SIC	311	RC	2	0	23VC	1	0	0.446504831314	223.0	85.0	226	79	1
1.7	2015_Jul_23_1403	s	s	12	4	SIC	312	ABS	2	0	24VC	0	1	0.654083967209	None	None	None	None	1
1.7	2015_Jul_23_1403	s	s	12	4	SIC	313	RC	0	1	23RO	1	0	0.929176092148	-76.0	242.0	-74	247	1
1.7	2015_Jul_23_1403	s	s	12	4	SIC	314	RC	2	1	23VO	1	0	0.423052072525	161.0	23.0	164	28	1
1.7	2015_Jul_23_1403	s	s	12	4	SIC	315	RC	1	0	23MC	1	0	3.17729902267	-510.0	154.0	-498	160	1
1.7	2015_Jul_23_1403	s	s	12	4	SIC	316	ABS	0	1	24RO	0	1	5.16194391251	None	None	None	None	1
1.7	2015_Jul_23_1403	s	s	12	4	SIC	317	RC	0	2	23RD	1	0	0.758987188339	425.0	129.0	419	133	1
1.7	2015_Jul_23_1403	s	s	12	4	SIC	318	ABS	2	2	24VD	0	1	0.452505111694	None	None	None	None	1
1.7	2015_Jul_23_1403	s	s	12	4	SIC	319	ABS	1	1	24MO	0	1	2.82157492638	None	None	None	None	1
1.7	2015_Jul_23_1403	s	s	12	4	SIC	320	ABS	1	0	24MC	0	1	4.63191604614	None	None	None	None	1
1.7	2015_Jul_23_1403	s	s	12	4	SIC	321	ABS	0	1	24RO	0	1	3.843075037	None	None	None	None	1
1.7	2015_Jul_23_1403	s	s	12	4	SIC	322	RC	2	0	23VC	1	0	0.446740150452	175.0	-193.0	175	-184	1
1.7	2015_Jul_23_1403	s	s	12	4	SIC	323	RC	0	1	23RO	1	0	2.15968799591	182.0	-143.0	172	-140	1
1.7	2015_Jul_23_1403	s	s	12	4	SIC	324	RC	2	2	23VD	1	0	0.526410102844	-340.0	-94.0	-340	-86	1
1.7	2015_Jul_23_1403	s	s	12	4	SIC	325	ABS	0	2	24RD	0	1	4.29566812515	None	None	None	None	1
1.7	2015_Jul_23_1403	s	s	12	4	SIC	326	RC	0	2	23RD	1	0	1.42980790138	395.0	-174.0	405	-172	1
1.7	2015_Jul_23_1403	s	s	12	4	SIC	327	ABS	2	0	24VC	0	1	0.702068805695	None	None	None	None	1
1.7	2015_Jul_23_1403	s	s	12	4	SIC	328	ABS	2	2	24VD	0	1	1.52944111824	None	None	None	None	1
1.7	2015_Jul_23_1403	s	s	12	4	SIC	329	ABS	1	2	24MD	0	1	0.582382202148	None	None	None	None	1
1.7	2015_Jul_23_1403	s	s	12	4	SIC	330	RC	1	0	23MC	1	0	1.75329995155	-220.0	-266.0	-213	-269	1
1.7	2015_Jul_23_1403	s	s	12	4	SIC	331	ABS	1	0	24MC	0	1	5.40665888786	None	None	None	None	1
1.7	2015_Jul_23_1403	s	s	12	4	SIC	332	ABS	1	1	24MO	0	1	0.81158208847	None	None	None	None	1
1.7	2015_Jul_23_1403	s	s	12	4	SIC	333	RC	2	1	23VO	1	0	0.700258970261	328.0	-329.0	332	-329	1
1.7	2015_Jul_23_1403	s	s	12	4	SIC	334	RC	1	2	23MD	1	0	0.529008865356	93.0	-134.0	92	-131	1
1.7	2015_Jul_23_1403	s	s	12	4	SIC	335	RC	1	1	23MO	1	0	0.517266988754	-126.0	-163.0	-127	-166	1
1.7	2015_Jul_23_1403	s	s	12	4	SIC	336	ABS	2	1	24VO	0	1	4.75109815598	None	None	None	None	1
1.7	2015_Jul_23_1403	s	s	12	4	SIC	337	ABS	2	1	24VO	0	1	0.705530166626	None	None	None	None	1
1.7	2015_Jul_23_1403	s	s	12	4	SIC	338	RC	0	1	23RO	1	0	2.94204497337	340.0	159.0	341	168	1
1.7	2015_Jul_23_1403	s	s	12	4	SIC	339	ABS	1	0	24MC	0	1	1.92965507507	None	None	None	None	1
1.7	2015_Jul_23_1403	s	s	12	4	SIC	340	ABS	2	2	24VD	0	1	1.6181769371	None	None	None	None	1
1.7	2015_Jul_23_1403	s	s	12	4	SIC	341	ABS	0	2	24RD	0	1	0.823271989822	None	None	None	None	1
1.7	2015_Jul_23_1403	s	s	12	4	SIC	342	ABS	0	1	24RO	0	1	8.94496297836	None	None	None	None	1
1.7	2015_Jul_23_1403	s	s	12	4	SIC	343	RC	2	0	23VC	1	0	0.478243112564	373.0	-28.0	372	-26	1
1.7	2015_Jul_23_1403	s	s	12	4	SIC	344	RC	1	2	23MD	1	0	0.547946929932	151.0	199.0	155	201	1
1.7	2015_Jul_23_1403	s	s	12	4	SIC	345	RC	1	1	23MO	1	0	0.914137125015	58.0	-265.0	59	-265	1
1.7	2015_Jul_23_1403	s	s	12	4	SIC	346	ABS	1	2	24MD	0	1	0.655570983887	None	None	None	None	1
1.7	2015_Jul_23_1403	s	s	12	4	SIC	347	ABS	1	1	24MO	0	1	1.80067491531	None	None	None	None	1
1.7	2015_Jul_23_1403	s	s	12	4	SIC	348	RC	0	2	23RD	1	0	0.635005950928	297.0	-372.0	305	-372	1
1.7	2015_Jul_23_1403	s	s	12	4	SIC	349	RC	2	1	23VO	1	0	0.470097064972	161.0	364.0	164	352	1
1.7	2015_Jul_23_1403	s	s	12	4	SIC	350	RC	2	2	23VD	1	0	0.415033102036	-512.0	82.0	-518	81	1
1.7	2015_Jul_23_1403	s	s	12	4	SIC	351	ABS	2	0	24VC	1	0	0.552500963211	None	None	-49	103	0
1.7	2015_Jul_23_1403	s	s	12	4	SIC	352	RC	1	0	23MC	1	0	0.537448883057	-108.0	-69.0	-102	-73	1
1.7	2015_Jul_23_1403	s	s	12	4	SIC	353	ABS	1	1	24MO	0	1	1.67741894722	None	None	None	None	1
1.7	2015_Jul_23_1403	s	s	12	4	SIC	354	ABS	2	0	24VC	0	1	0.729161977768	None	None	None	None	1
1.7	2015_Jul_23_1403	s	s	12	4	SIC	355	ABS	1	2	24MD	0	1	0.588377952576	None	None	None	None	1
1.7	2015_Jul_23_1403	s	s	12	4	SIC	356	RC	2	2	23VD	1	0	0.45569396019	269.0	337.0	268	346	1
1.7	2015_Jul_23_1403	s	s	12	4	SIC	357	RC	1	1	23MO	1	0	0.664907932281	-58.0	308.0	-54	304	1
1.7	2015_Jul_23_1403	s	s	12	4	SIC	358	RC	0	1	23RO	1	0	1.6799659729	357.0	179.0	360	182	1
1.7	2015_Jul_23_1403	s	s	12	4	SIC	359	RC	2	0	23VC	1	0	0.491384983063	-427.0	-373.0	-436	-374	1
1.7	2015_Jul_23_1403	s	s	12	4	SIC	360	ABS	0	2	24RD	0	1	0.776243925095	None	None	None	None	1
1.7	2015_Jul_23_1403	s	s	12	4	SIC	361	RC	2	1	23VO	1	0	0.446449995041	-85.0	-166.0	-80	-166	1
1.7	2015_Jul_23_1403	s	s	12	4	SIC	362	ABS	2	1	24VO	0	1	0.642902135849	None	None	None	None	1
1.7	2015_Jul_23_1403	s	s	12	4	SIC	363	RC	1	0	23MC	1	0	0.611446857452	285.0	57.0	283	59	1
1.7	2015_Jul_23_1403	s	s	12	4	SIC	364	RC	0	2	23RD	1	0	0.491045951843	121.0	-182.0	124	-183	1
1.7	2015_Jul_23_1403	s	s	12	4	SIC	365	RC	1	2	23MD	1	0	0.46630191803	483.0	-171.0	486	-171	1
1.7	2015_Jul_23_1403	s	s	12	4	SIC	366	ABS	2	2	24VD	0	1	0.512130022049	None	None	None	None	1
1.7	2015_Jul_23_1403	s	s	12	4	SIC	367	ABS	0	1	24RO	0	1	4.55182099342	None	None	None	None	1
1.7	2015_Jul_23_1403	s	s	12	4	SIC	368	ABS	1	0	24MC	0	1	5.11382484436	None	None	None	None	1
1.7	2015_Jul_23_1403	s	s	12	4	SIC	369	RC	0	1	23RO	1	0	2.37708115578	80.0	-309.0	83	-305	1
1.7	2015_Jul_23_1403	s	s	12	4	SIC	370	RC	2	1	23VO	1	0	0.502713918686	-368.0	-399.0	-366	-390	1
1.7	2015_Jul_23_1403	s	s	12	4	SIC	371	ABS	2	0	24VC	0	1	0.679493188858	None	None	None	None	1
1.7	2015_Jul_23_1403	s	s	12	4	SIC	372	ABS	2	1	24VO	0	1	0.749685049057	None	None	None	None	1
1.7	2015_Jul_23_1403	s	s	12	4	SIC	373	ABS	2	2	24VD	0	1	0.701083183289	None	None	None	None	1
1.7	2015_Jul_23_1403	s	s	12	4	SIC	374	RC	1	1	23MO	1	0	0.747489929199	-447.0	174.0	-443	176	1
1.7	2015_Jul_23_1403	s	s	12	4	SIC	375	ABS	1	0	24MC	0	1	1.7492120266	None	None	None	None	1
1.7	2015_Jul_23_1403	s	s	12	4	SIC	376	ABS	1	1	24MO	0	1	2.94215488434	None	None	None	None	1
1.7	2015_Jul_23_1403	s	s	12	4	SIC	377	RC	1	0	23MC	1	0	0.879034042358	401.0	138.0	403	134	1
1.7	2015_Jul_23_1403	s	s	12	4	SIC	378	ABS	1	2	24MD	0	1	0.493896961212	None	None	None	None	1
1.7	2015_Jul_23_1403	s	s	12	4	SIC	379	RC	1	2	23MD	1	0	0.446666002274	316.0	-12.0	315	-9	1
1.7	2015_Jul_23_1403	s	s	12	4	SIC	380	ABS	0	2	24RD	0	1	0.81143116951	None	None	None	None	1
1.7	2015_Jul_23_1403	s	s	12	4	SIC	381	RC	2	0	23VC	1	0	0.423101902008	-365.0	-114.0	-363	-110	1
1.7	2015_Jul_23_1403	s	s	12	4	SIC	382	RC	0	2	23RD	1	0	0.383661985397	-225.0	-143.0	-221	-145	1
1.7	2015_Jul_23_1403	s	s	12	4	SIC	383	ABS	0	1	24RO	0	1	3.44808793068	None	None	None	None	1
1.7	2015_Jul_23_1403	s	s	12	4	SIC	384	RC	2	2	23VD	1	0	0.49133515358	229.0	223.0	224	228	1
1.7	2015_Jul_23_1403	s	s	12	4	SIC	385	ABS	1	2	24MD	0	1	0.658461093903	None	None	None	None	1
1.7	2015_Jul_23_1403	s	s	12	4	SIC	386	ABS	0	2	24RD	0	1	0.584408998489	None	None	None	None	1
1.7	2015_Jul_23_1403	s	s	12	4	SIC	387	RC	1	0	23MC	1	0	0.817906856537	-285.0	-117.0	-285	-119	1
1.7	2015_Jul_23_1403	s	s	12	4	SIC	388	ABS	1	1	24MO	0	1	1.29039216042	None	None	None	None	1
1.7	2015_Jul_23_1403	s	s	12	4	SIC	389	ABS	0	1	24RO	0	1	3.07144284248	None	None	None	None	1
1.7	2015_Jul_23_1403	s	s	12	4	SIC	390	RC	1	1	23MO	1	0	0.97647190094	271.0	152.0	273	152	1
1.7	2015_Jul_23_1403	s	s	12	4	SIC	391	ABS	2	0	24VC	0	1	0.558794021606	None	None	None	None	1
1.7	2015_Jul_23_1403	s	s	12	4	SIC	392	RC	1	2	23MD	1	0	0.465658187866	-505.0	-343.0	-497	-345	1
1.7	2015_Jul_23_1403	s	s	12	4	SIC	393	ABS	1	0	24MC	0	1	3.3775601387	None	None	None	None	1
1.7	2015_Jul_23_1403	s	s	12	4	SIC	394	RC	2	1	23VO	1	0	0.411359071732	-444.0	-162.0	-439	-158	1
1.7	2015_Jul_23_1403	s	s	12	4	SIC	395	ABS	2	1	24VO	0	1	0.434881925583	None	None	None	None	1
1.7	2015_Jul_23_1403	s	s	12	4	SIC	396	RC	2	2	23VD	1	0	0.537058830261	382.0	243.0	379	242	1
1.7	2015_Jul_23_1403	s	s	12	4	SIC	397	ABS	2	2	24VD	0	1	0.540827989578	None	None	None	None	1
1.7	2015_Jul_23_1403	s	s	12	4	SIC	398	RC	2	0	23VC	1	0	0.411355018616	-153.0	-37.0	-150	-33	1
1.7	2015_Jul_23_1403	s	s	12	4	SIC	399	RC	0	1	23RO	1	0	1.72967886925	71.0	289.0	75	288	1
1.7	2015_Jul_23_1403	s	s	12	4	SIC	400	RC	0	2	23RD	1	0	0.558604001999	164.0	-121.0	169	-125	1
1.7	2015_Jul_23_1403	s	s	12	4	SIC	401	RC	2	0	23VC	1	0	0.394301891327	-430.0	3.0	-427	2	1
1.7	2015_Jul_23_1403	s	s	12	4	SIC	402	ABS	2	1	24VO	0	1	0.497364997864	None	None	None	None	1
1.7	2015_Jul_23_1403	s	s	12	4	SIC	403	ABS	0	1	24RO	0	1	4.32446718216	None	None	None	None	1
1.7	2015_Jul_23_1403	s	s	12	4	SIC	404	ABS	1	1	24MO	0	1	2.34861803055	None	None	None	None	1
1.7	2015_Jul_23_1403	s	s	12	4	SIC	405	RC	0	2	23RD	1	0	0.540733098984	509.0	21.0	508	25	1
1.7	2015_Jul_23_1403	s	s	12	4	SIC	406	ABS	1	0	24MC	0	1	2.69481420517	None	None	None	None	1
1.7	2015_Jul_23_1403	s	s	12	4	SIC	407	ABS	1	2	24MD	0	1	0.599694013596	None	None	None	None	1
1.7	2015_Jul_23_1403	s	s	12	4	SIC	408	ABS	2	2	24VD	0	1	0.879165887833	None	None	None	None	1
1.7	2015_Jul_23_1403	s	s	12	4	SIC	409	ABS	2	0	24VC	0	1	1.31551599503	None	None	None	None	1
1.7	2015_Jul_23_1403	s	s	12	4	SIC	410	RC	2	2	23VD	1	0	0.453459978104	-355.0	310.0	-354	300	1
1.7	2015_Jul_23_1403	s	s	12	4	SIC	411	ABS	0	2	24RD	0	1	0.523424863815	None	None	None	None	1
1.7	2015_Jul_23_1403	s	s	12	4	SIC	412	RC	1	1	23MO	1	0	1.87717986107	-57.0	-409.0	-61	-413	1
1.7	2015_Jul_23_1403	s	s	12	4	SIC	413	RC	1	2	23MD	1	0	0.481940031052	-124.0	-270.0	-126	-264	1
1.7	2015_Jul_23_1403	s	s	12	4	SIC	414	RC	1	0	23MC	1	0	0.594156980515	-113.0	153.0	-108	156	1
1.7	2015_Jul_23_1403	s	s	12	4	SIC	415	RC	2	1	23VO	1	0	0.464797973633	515.0	-374.0	521	-376	1
1.7	2015_Jul_23_1403	s	s	12	4	SIC	416	RC	0	1	23RO	1	0	4.2577111721	-292.0	312.0	-292	314	1
1.7	2015_Jul_23_1403	s	s	12	4	SIC	417	ABS	2	2	24VD	0	1	0.664463043213	None	None	None	None	1
1.7	2015_Jul_23_1403	s	s	12	4	SIC	418	RC	1	0	23MC	1	0	0.493767023087	42.0	7.0	41	6	1
1.7	2015_Jul_23_1403	s	s	12	4	SIC	419	ABS	2	1	24VO	0	1	0.582931995392	None	None	None	None	1
1.7	2015_Jul_23_1403	s	s	12	4	SIC	420	RC	0	1	23RO	1	0	1.14947390556	368.0	235.0	377	240	1
1.7	2015_Jul_23_1403	s	s	12	4	SIC	421	ABS	1	1	24MO	0	1	2.10634589195	None	None	None	None	1
1.7	2015_Jul_23_1403	s	s	12	4	SIC	422	ABS	0	2	24RD	0	1	0.666960000992	None	None	None	None	1
1.7	2015_Jul_23_1403	s	s	12	4	SIC	423	RC	2	2	23VD	1	0	0.470205068588	-538.0	-184.0	-534	-179	1
1.7	2015_Jul_23_1403	s	s	12	4	SIC	424	RC	2	1	23VO	1	0	0.570868968964	95.0	-118.0	90	-110	1
1.7	2015_Jul_23_1403	s	s	12	4	SIC	425	RC	2	0	23VC	1	0	0.43251991272	381.0	-13.0	379	-13	1
1.7	2015_Jul_23_1403	s	s	12	4	SIC	426	ABS	0	1	24RO	0	1	7.24663996696	None	None	None	None	1
1.7	2015_Jul_23_1403	s	s	12	4	SIC	427	RC	0	2	23RD	1	0	0.488383054733	-314.0	116.0	-314	118	1
1.7	2015_Jul_23_1403	s	s	12	4	SIC	428	ABS	1	0	24MC	0	1	5.71987891197	None	None	None	None	1
1.7	2015_Jul_23_1403	s	s	12	4	SIC	429	ABS	1	2	24MD	0	1	0.595134973526	None	None	None	None	1
1.7	2015_Jul_23_1403	s	s	12	4	SIC	430	RC	1	1	23MO	1	0	0.679773807526	472.0	148.0	469	145	1
1.7	2015_Jul_23_1403	s	s	12	4	SIC	431	RC	1	2	23MD	1	0	0.455306053162	-286.0	-78.0	-282	-68	1
1.7	2015_Jul_23_1403	s	s	12	4	SIC	432	ABS	2	0	24VC	0	1	1.70609021187	None	None	None	None	1
1.7	2015_Jul_23_1403	s	s	12	4	SIC	433	RC	2	1	23VO	1	0	1.04174685478	451.0	411.0	453	418	1
1.7	2015_Jul_23_1403	s	s	12	4	SIC	434	RC	1	0	23MC	1	0	0.823282003403	401.0	-230.0	400	-226	1
1.7	2015_Jul_23_1403	s	s	12	4	SIC	435	ABS	0	2	24RD	0	1	1.0233039856	None	None	None	None	1
1.7	2015_Jul_23_1403	s	s	12	4	SIC	436	RC	2	0	23VC	1	0	0.548331022263	517.0	-111.0	522	-109	1
1.7	2015_Jul_23_1403	s	s	12	4	SIC	437	ABS	1	2	24MD	0	1	0.693824052811	None	None	None	None	1
1.7	2015_Jul_23_1403	s	s	12	4	SIC	438	ABS	1	1	24MO	0	1	1.8068048954	None	None	None	None	1
1.7	2015_Jul_23_1403	s	s	12	4	SIC	439	RC	1	2	23MD	1	0	1.29129290581	360.0	-145.0	364	-142	1
1.7	2015_Jul_23_1403	s	s	12	4	SIC	440	ABS	1	0	24MC	0	1	4.98475384712	None	None	None	None	1
1.7	2015_Jul_23_1403	s	s	12	4	SIC	441	RC	0	1	23RO	1	0	4.03148603439	-178.0	-72.0	-174	-71	1
1.7	2015_Jul_23_1403	s	s	12	4	SIC	442	RC	0	2	23RD	1	0	0.605657815933	515.0	164.0	512	170	1
1.7	2015_Jul_23_1403	s	s	12	4	SIC	443	RC	2	2	23VD	1	0	0.399483919144	196.0	-312.0	200	-313	1
1.7	2015_Jul_23_1403	s	s	12	4	SIC	444	RC	1	1	23MO	1	0	0.546434879303	391.0	-35.0	391	-34	1
1.7	2015_Jul_23_1403	s	s	12	4	SIC	445	ABS	2	2	24VD	0	1	0.576110124588	None	None	None	None	1
1.7	2015_Jul_23_1403	s	s	12	4	SIC	446	ABS	2	0	24VC	0	1	0.641695022583	None	None	None	None	1
1.7	2015_Jul_23_1403	s	s	12	4	SIC	447	ABS	2	1	24VO	0	1	0.81152510643	None	None	None	None	1
1.7	2015_Jul_23_1403	s	s	12	4	SIC	448	ABS	0	1	24RO	0	1	8.03889203072	None	None	None	None	1
1.7	2015_Jul_23_1403	s	s	12	4	SIC	449	RC	1	0	23MC	1	0	0.717388868332	157.0	359.0	160	367	1
1.7	2015_Jul_23_1403	s	s	12	4	SIC	450	ABS	2	0	24VC	0	1	0.547052145004	None	None	None	None	1
1.7	2015_Jul_23_1403	s	s	12	4	SIC	451	ABS	1	0	24MC	0	1	4.66061902046	None	None	None	None	1
1.7	2015_Jul_23_1403	s	s	12	4	SIC	452	RC	0	2	23RD	1	0	0.529012918472	-341.0	213.0	-339	206	1
1.7	2015_Jul_23_1403	s	s	12	4	SIC	453	ABS	0	1	24RO	0	1	4.6488058567	None	None	None	None	1
1.7	2015_Jul_23_1403	s	s	12	4	SIC	454	RC	2	1	23VO	1	0	0.458349943161	117.0	-99.0	122	-95	1
1.7	2015_Jul_23_1403	s	s	12	4	SIC	455	ABS	1	2	24MD	0	1	0.856172084808	None	None	None	None	1
1.7	2015_Jul_23_1403	s	s	12	4	SIC	456	RC	2	2	23VD	1	0	0.973628997803	139.0	-159.0	141	-160	1
1.7	2015_Jul_23_1403	s	s	12	4	SIC	457	RC	2	0	23VC	1	0	0.408726215363	-452.0	-167.0	-449	-162	1
1.7	2015_Jul_23_1403	s	s	12	4	SIC	458	ABS	2	2	24VD	0	1	0.603358983994	None	None	None	None	1
1.7	2015_Jul_23_1403	s	s	12	4	SIC	459	RC	1	2	23MD	1	0	0.679051876068	127.0	151.0	125	158	1
1.7	2015_Jul_23_1403	s	s	12	4	SIC	460	ABS	1	1	24MO	0	1	2.75025701523	None	None	None	None	1
1.7	2015_Jul_23_1403	s	s	12	4	SIC	461	ABS	2	1	24VO	0	1	0.658576011658	None	None	None	None	1
1.7	2015_Jul_23_1403	s	s	12	4	SIC	462	ABS	0	2	24RD	0	1	1.67069482803	None	None	None	None	1
1.7	2015_Jul_23_1403	s	s	12	4	SIC	463	RC	1	1	23MO	1	0	0.999916791916	-207.0	269.0	-208	275	1
1.7	2015_Jul_23_1403	s	s	12	4	SIC	464	RC	0	1	23RO	1	0	1.94151711464	276.0	-185.0	277	-181	1
1.7	2015_Jul_23_1403	s	s	12	4	SIC	465	RC	2	2	23VD	1	0	0.396818161011	151.0	296.0	146	299	1
1.7	2015_Jul_23_1403	s	s	12	4	SIC	466	ABS	1	0	24MC	0	1	2.34176397324	None	None	None	None	1
1.7	2015_Jul_23_1403	s	s	12	4	SIC	467	RC	1	2	23MD	1	0	0.434902906418	-254.0	-25.0	-257	-25	1
1.7	2015_Jul_23_1403	s	s	12	4	SIC	468	RC	0	2	23RD	1	0	0.399664878845	361.0	136.0	361	139	1
1.7	2015_Jul_23_1403	s	s	12	4	SIC	469	ABS	1	2	24MD	0	1	0.654731988907	None	None	None	None	1
1.7	2015_Jul_23_1403	s	s	12	4	SIC	470	RC	1	0	23MC	1	0	0.658589839935	352.0	226.0	358	226	1
1.7	2015_Jul_23_1403	s	s	12	4	SIC	471	RC	0	1	23RO	0	1	8.75672411919	494.0	-174.0	None	None	0
1.7	2015_Jul_23_1403	s	s	12	4	SIC	472	ABS	1	1	24MO	0	1	5.44274091721	None	None	None	None	1
1.7	2015_Jul_23_1403	s	s	12	4	SIC	473	ABS	2	1	24VO	0	1	0.994814157486	None	None	None	None	1
1.7	2015_Jul_23_1403	s	s	12	4	SIC	474	ABS	2	2	24VD	0	1	0.594774007797	None	None	None	None	1
1.7	2015_Jul_23_1403	s	s	12	4	SIC	475	ABS	2	0	24VC	0	1	0.564147949219	None	None	None	None	1
1.7	2015_Jul_23_1403	s	s	12	4	SIC	476	ABS	0	2	24RD	0	1	0.917436122894	None	None	None	None	1
1.7	2015_Jul_23_1403	s	s	12	4	SIC	477	ABS	0	1	24RO	0	1	3.75150895119	None	None	None	None	1
1.7	2015_Jul_23_1403	s	s	12	4	SIC	478	RC	2	1	23VO	1	0	1.41176009178	449.0	-241.0	446	-237	1
1.7	2015_Jul_23_1403	s	s	12	4	SIC	479	RC	2	0	23VC	1	0	0.423192977905	353.0	-326.0	353	-328	1
1.7	2015_Jul_23_1403	s	s	12	4	SIC	480	RC	1	1	23MO	1	0	0.725292921066	315.0	-52.0	318	-48	1
1.7	2015_Jul_23_1403	s	s	12	4	SIC	481	ABS	2	1	24VO	0	1	0.576172828674	None	None	None	None	1
1.7	2015_Jul_23_1403	s	s	12	4	SIC	482	RC	0	1	23RO	1	0	1.78860211372	-135.0	0.0	-130	-3	1
1.7	2015_Jul_23_1403	s	s	12	4	SIC	483	ABS	1	2	24MD	0	1	0.564373970032	None	None	None	None	1
1.7	2015_Jul_23_1403	s	s	12	4	SIC	484	ABS	1	0	24MC	0	1	1.83557200432	None	None	None	None	1
1.7	2015_Jul_23_1403	s	s	12	4	SIC	485	RC	1	2	23MD	1	0	0.599644184113	-421.0	341.0	-417	344	1
1.7	2015_Jul_23_1403	s	s	12	4	SIC	486	RC	0	2	23RD	1	0	0.546939134598	451.0	-364.0	442	-365	1
1.7	2015_Jul_23_1403	s	s	12	4	SIC	487	ABS	1	1	24MO	0	1	3.32555007935	None	None	None	None	1
1.7	2015_Jul_23_1403	s	s	12	4	SIC	488	ABS	0	1	24RO	0	1	3.35100698471	None	None	None	None	1
1.7	2015_Jul_23_1403	s	s	12	4	SIC	489	RC	2	1	23VO	1	0	0.36160993576	49.0	-19.0	58	-18	1
1.7	2015_Jul_23_1403	s	s	12	4	SIC	490	RC	1	1	23MO	1	0	2.06647896767	19.0	350.0	25	349	1
1.7	2015_Jul_23_1403	s	s	12	4	SIC	491	RC	2	0	23VC	1	0	0.747002124786	435.0	-35.0	435	-37	1
1.7	2015_Jul_23_1403	s	s	12	4	SIC	492	RC	2	2	23VD	1	0	0.411216974258	257.0	352.0	249	349	1
1.7	2015_Jul_23_1403	s	s	12	4	SIC	493	ABS	0	2	24RD	0	1	0.816898107529	None	None	None	None	1
1.7	2015_Jul_23_1403	s	s	12	4	SIC	494	ABS	2	0	24VC	0	1	0.529072999954	None	None	None	None	1
1.7	2015_Jul_23_1403	s	s	12	4	SIC	495	RC	1	0	23MC	1	0	0.470168828964	370.0	-319.0	370	-326	1
1.7	2015_Jul_23_1403	s	s	12	4	SIC	496	ABS	2	2	24VD	0	1	0.570276975632	None	None	None	None	1
1.7	2015_Jul_23_1403	s	s	12	4	SIC	497	ABS	0	1	24RO	0	1	5.36184120178	None	None	None	None	1
1.7	2015_Jul_23_1403	s	s	12	4	SIC	498	ABS	2	0	24VC	0	1	0.0893709659576	None	None	None	None	1
1.7	2015_Jul_23_1403	s	s	12	4	SIC	499	ABS	0	2	24RD	0	1	0.747092962265	None	None	None	None	1
1.7	2015_Jul_23_1403	s	s	12	4	SIC	500	RC	2	0	23VC	1	0	0.515320062637	-530.0	405.0	-527	402	1
1.7	2015_Jul_23_1403	s	s	12	4	SIC	501	ABS	1	1	24MO	0	1	3.17755007744	None	None	None	None	1
1.7	2015_Jul_23_1403	s	s	12	4	SIC	502	RC	0	1	23RO	0	1	2.94583415985	412.0	379.0	None	None	0
1.7	2015_Jul_23_1403	s	s	12	4	SIC	503	RC	1	1	23MO	1	0	0.702986001968	268.0	50.0	273	49	1
1.7	2015_Jul_23_1403	s	s	12	4	SIC	504	ABS	1	0	24MC	0	1	1.19995594025	None	None	None	None	1
1.7	2015_Jul_23_1403	s	s	12	4	SIC	505	ABS	2	2	24VD	0	1	0.488743782043	None	None	None	None	1
1.7	2015_Jul_23_1403	s	s	12	4	SIC	506	RC	1	2	23MD	1	0	0.595191001892	-449.0	195.0	-446	193	1
1.7	2015_Jul_23_1403	s	s	12	4	SIC	507	ABS	1	2	24MD	0	1	0.582914113998	None	None	None	None	1
1.7	2015_Jul_23_1403	s	s	12	4	SIC	508	RC	2	2	23VD	1	0	0.443907022476	-52.0	-375.0	-43	-377	1
1.7	2015_Jul_23_1403	s	s	12	4	SIC	509	ABS	2	1	24VO	0	1	0.629836082458	None	None	None	None	1
1.7	2015_Jul_23_1403	s	s	12	4	SIC	510	RC	0	2	23RD	1	0	0.952790975571	-19.0	39.0	-22	42	1
1.7	2015_Jul_23_1403	s	s	12	4	SIC	511	RC	2	1	23VO	1	0	0.411653995514	-318.0	177.0	-311	173	1
1.7	2015_Jul_23_1403	s	s	12	4	SIC	512	RC	1	0	23MC	1	0	1.45392608643	-129.0	-337.0	-136	-341	1
1.7	2015_Jul_23_1403	s	s	12	4	SIC	513	RC	1	1	23MO	0	1	0.96033000946	479.0	-353.0	None	None	0
1.7	2015_Jul_23_1403	s	s	12	4	SIC	514	ABS	2	0	24VC	0	1	0.961308956146	None	None	None	None	1
1.7	2015_Jul_23_1403	s	s	12	4	SIC	515	RC	2	0	23VC	1	0	0.608525037766	83.0	404.0	88	407	1
1.7	2015_Jul_23_1403	s	s	12	4	SIC	516	RC	1	2	23MD	1	0	0.405523061752	-376.0	2.0	-372	1	1
1.7	2015_Jul_23_1403	s	s	12	4	SIC	517	RC	0	1	23RO	1	0	0.642987012863	-87.0	-95.0	-88	-96	1
1.7	2015_Jul_23_1403	s	s	12	4	SIC	518	RC	2	2	23VD	1	0	0.458472013474	11.0	-25.0	-1	-18	1
1.7	2015_Jul_23_1403	s	s	12	4	SIC	519	RC	1	0	23MC	1	0	0.773162841797	526.0	266.0	518	270	1
1.7	2015_Jul_23_1403	s	s	12	4	SIC	520	RC	0	2	23RD	1	0	0.878632068634	156.0	161.0	158	160	1
1.7	2015_Jul_23_1403	s	s	12	4	SIC	521	ABS	0	1	24RO	0	1	6.24959015846	None	None	None	None	1
1.7	2015_Jul_23_1403	s	s	12	4	SIC	522	ABS	0	2	24RD	0	1	1.74883294106	None	None	None	None	1
1.7	2015_Jul_23_1403	s	s	12	4	SIC	523	ABS	1	0	24MC	0	1	3.07152700424	None	None	None	None	1
1.7	2015_Jul_23_1403	s	s	12	4	SIC	524	ABS	1	2	24MD	0	1	0.7028901577	None	None	None	None	1
1.7	2015_Jul_23_1403	s	s	12	4	SIC	525	ABS	2	2	24VD	0	1	0.713076114655	None	None	None	None	1
1.7	2015_Jul_23_1403	s	s	12	4	SIC	526	RC	2	1	23VO	1	0	0.434890985489	139.0	188.0	143	187	1
1.7	2015_Jul_23_1403	s	s	12	4	SIC	527	ABS	2	1	24VO	0	1	0.488842964172	None	None	None	None	1
1.7	2015_Jul_23_1403	s	s	12	4	SIC	528	ABS	1	1	24MO	0	1	1.54711198807	None	None	None	None	1
1.7	2015_Jul_23_1403	s	s	12	4	SIC	529	ABS	1	1	24MO	0	1	0.827121019363	None	None	None	None	1
1.7	2015_Jul_23_1403	s	s	12	4	SIC	530	RC	0	2	23RD	1	0	0.512073993683	96.0	15.0	95	13	1
1.7	2015_Jul_23_1403	s	s	12	4	SIC	531	ABS	1	0	24MC	0	1	2.97737812996	None	None	None	None	1
1.7	2015_Jul_23_1403	s	s	12	4	SIC	532	ABS	2	1	24VO	1	0	0.479212999344	None	None	-36	125	0
1.7	2015_Jul_23_1403	s	s	12	4	SIC	533	RC	1	1	23MO	1	0	0.585496902466	-239.0	-100.0	-232	-92	1
1.7	2015_Jul_23_1403	s	s	12	4	SIC	534	ABS	1	2	24MD	0	1	0.532681941986	None	None	None	None	1
1.7	2015_Jul_23_1403	s	s	12	4	SIC	535	ABS	2	0	24VC	0	1	0.682076931	None	None	None	None	1
1.7	2015_Jul_23_1403	s	s	12	4	SIC	536	RC	1	0	23MC	1	0	1.96508216858	-158.0	265.0	-169	267	1
1.7	2015_Jul_23_1403	s	s	12	4	SIC	537	ABS	0	1	24RO	0	1	1.26547694206	None	None	None	None	1
1.7	2015_Jul_23_1403	s	s	12	4	SIC	538	RC	0	1	23RO	1	0	1.65906596184	527.0	-295.0	521	-293	1
1.7	2015_Jul_23_1403	s	s	12	4	SIC	539	RC	2	0	23VC	1	0	0.572275876999	-307.0	-339.0	-302	-338	1
1.7	2015_Jul_23_1403	s	s	12	4	SIC	540	RC	1	2	23MD	1	0	0.635065793991	208.0	-265.0	202	-266	1
1.7	2015_Jul_23_1403	s	s	12	4	SIC	541	RC	2	1	23VO	1	0	0.399449825287	-394.0	-75.0	-384	-67	1
1.7	2015_Jul_23_1403	s	s	12	4	SIC	542	RC	2	2	23VD	1	0	0.361789941788	-356.0	-148.0	-356	-147	1
1.7	2015_Jul_23_1403	s	s	12	4	SIC	543	ABS	0	2	24RD	0	1	0.538506031036	None	None	None	None	1
1.7	2015_Jul_23_1403	s	s	12	4	SIC	544	ABS	2	2	24VD	0	1	0.517384052277	None	None	None	None	1
1.7	2015_Jul_23_1403	s	s	12	4	SIC	545	ABS	2	1	24VO	0	1	0.502541065216	None	None	None	None	1
1.7	2015_Jul_23_1403	s	s	12	4	SIC	546	RC	2	2	23VD	1	0	0.973882913589	-209.0	388.0	-208	391	1
1.7	2015_Jul_23_1403	s	s	12	4	SIC	547	ABS	1	2	24MD	0	1	1.23262500763	None	None	None	None	1
1.7	2015_Jul_23_1403	s	s	12	4	SIC	548	ABS	1	1	24MO	0	1	3.89544320107	None	None	None	None	1
1.7	2015_Jul_23_1403	s	s	12	4	SIC	549	ABS	2	0	24VC	0	1	0.717386007309	None	None	None	None	1
1.7	2015_Jul_23_1403	s	s	12	4	SIC	550	RC	1	2	23MD	1	0	0.538108825684	-289.0	-130.0	-297	-132	1
1.7	2015_Jul_23_1403	s	s	12	4	SIC	551	ABS	1	0	24MC	0	1	3.36591386795	None	None	None	None	1
1.7	2015_Jul_23_1403	s	s	12	4	SIC	552	RC	2	1	23VO	1	0	0.429017066956	-446.0	-112.0	-437	-115	1
1.7	2015_Jul_23_1403	s	s	12	4	SIC	553	ABS	2	2	24VD	1	0	0.446657896042	None	None	26	92	0
1.7	2015_Jul_23_1403	s	s	12	4	SIC	554	RC	0	2	23RD	1	0	0.54075884819	501.0	-364.0	504	-359	1
1.7	2015_Jul_23_1403	s	s	12	4	SIC	555	ABS	0	2	24RD	0	1	1.04408097267	None	None	None	None	1
1.7	2015_Jul_23_1403	s	s	12	4	SIC	556	RC	0	1	23RO	0	1	2.15346479416	-440.0	410.0	None	None	0
1.7	2015_Jul_23_1403	s	s	12	4	SIC	557	RC	1	0	23MC	1	0	0.726402997971	295.0	304.0	295	303	1
1.7	2015_Jul_23_1403	s	s	12	4	SIC	558	ABS	0	1	24RO	0	1	2.69490218163	None	None	None	None	1
1.7	2015_Jul_23_1403	s	s	12	4	SIC	559	RC	2	0	23VC	1	0	0.736897945404	331.0	-133.0	340	-131	1
1.7	2015_Jul_23_1403	s	s	12	4	SIC	560	RC	1	1	23MO	1	0	0.46587896347	61.0	142.0	73	145	1
1.7	2015_Jul_23_1403	s	s	12	4	SIC	561	ABS	1	0	24MC	0	1	1.69430398941	None	None	None	None	1
1.7	2015_Jul_23_1403	s	s	12	4	SIC	562	ABS	1	2	24MD	0	1	2.80714917183	None	None	None	None	1
1.7	2015_Jul_23_1403	s	s	12	4	SIC	563	ABS	2	2	24VD	0	1	0.434917926788	None	None	None	None	1
1.7	2015_Jul_23_1403	s	s	12	4	SIC	564	ABS	0	1	24RO	0	1	3.18311095238	None	None	None	None	1
1.7	2015_Jul_23_1403	s	s	12	4	SIC	565	RC	2	2	23VD	1	0	0.470248937607	144.0	-402.0	148	-401	1
1.7	2015_Jul_23_1403	s	s	12	4	SIC	566	ABS	0	2	24RD	0	1	0.752707004547	None	None	None	None	1
1.7	2015_Jul_23_1403	s	s	12	4	SIC	567	ABS	2	0	24VC	0	1	0.547815799713	None	None	None	None	1
1.7	2015_Jul_23_1403	s	s	12	4	SIC	568	ABS	2	1	24VO	0	1	0.470189094543	None	None	None	None	1
1.7	2015_Jul_23_1403	s	s	12	4	SIC	569	RC	2	1	23VO	1	0	0.470191955566	-117.0	-56.0	-129	-54	1
1.7	2015_Jul_23_1403	s	s	12	4	SIC	570	RC	1	0	23MC	1	0	1.07724308968	-533.0	395.0	-530	395	1
1.7	2015_Jul_23_1403	s	s	12	4	SIC	571	RC	0	2	23RD	1	0	0.446712017059	-429.0	238.0	-429	239	1
1.7	2015_Jul_23_1403	s	s	12	4	SIC	572	RC	0	1	23RO	1	0	1.35302805901	-328.0	360.0	-339	361	1
1.7	2015_Jul_23_1403	s	s	12	4	SIC	573	ABS	1	1	24MO	0	1	1.90617513657	None	None	None	None	1
1.7	2015_Jul_23_1403	s	s	12	4	SIC	574	RC	1	1	23MO	1	0	0.66721701622	-158.0	391.0	-153	382	1
1.7	2015_Jul_23_1403	s	s	12	4	SIC	575	RC	1	2	23MD	1	0	0.442153930664	-187.0	-405.0	-188	-407	1
1.7	2015_Jul_23_1403	s	s	12	4	SIC	576	RC	2	0	23VC	1	0	0.37099814415	-133.0	363.0	-130	364	1
1.7	2015_Jul_23_1403	s	s	12	4	SIC	577	ABS	2	2	24VD	0	1	0.597229957581	None	None	None	None	1
1.7	2015_Jul_23_1403	s	s	12	4	SIC	578	RC	0	2	23RD	1	0	0.397364139557	-270.0	150.0	-265	148	1
1.7	2015_Jul_23_1403	s	s	12	4	SIC	579	RC	1	2	23MD	1	0	0.458492994308	454.0	237.0	462	245	1
1.7	2015_Jul_23_1403	s	s	12	4	SIC	580	ABS	1	0	24MC	0	1	1.71218490601	None	None	None	None	1
1.7	2015_Jul_23_1403	s	s	12	4	SIC	581	ABS	0	1	24RO	0	1	2.77352190018	None	None	None	None	1
1.7	2015_Jul_23_1403	s	s	12	4	SIC	582	ABS	0	2	24RD	0	1	1.43029618263	None	None	None	None	1
1.7	2015_Jul_23_1403	s	s	12	4	SIC	583	ABS	2	0	24VC	0	1	0.540771007538	None	None	None	None	1
1.7	2015_Jul_23_1403	s	s	12	4	SIC	584	RC	1	1	23MO	1	0	0.879166126251	73.0	368.0	69	372	1
1.7	2015_Jul_23_1403	s	s	12	4	SIC	585	ABS	1	1	24MO	0	1	3.06619596481	None	None	None	None	1
1.7	2015_Jul_23_1403	s	s	12	4	SIC	586	RC	2	2	23VD	1	0	0.446563959122	-364.0	-247.0	-368	-243	1
1.7	2015_Jul_23_1403	s	s	12	4	SIC	587	RC	0	1	23RO	1	0	2.1271469593	-342.0	96.0	-348	98	1
1.7	2015_Jul_23_1403	s	s	12	4	SIC	588	RC	1	0	23MC	1	0	0.476912975311	-43.0	232.0	-44	238	1
1.7	2015_Jul_23_1403	s	s	12	4	SIC	589	RC	2	0	23VC	1	0	0.414917945862	509.0	160.0	515	166	1
1.7	2015_Jul_23_1403	s	s	12	4	SIC	590	RC	2	1	23VO	1	0	0.408894062042	-505.0	206.0	-502	211	1
1.7	2015_Jul_23_1403	s	s	12	4	SIC	591	ABS	2	1	24VO	0	1	0.999878883362	None	None	None	None	1
1.7	2015_Jul_23_1403	s	s	12	4	SIC	592	ABS	1	2	24MD	0	1	0.858595132828	None	None	None	None	1
