Version	Date	Stimuli	Method	Subject	Session	Condition	Trial	Target	Channel1	Channel2	Distractors	LMouseButton	RMouseButton	RT	TargetX	TargetY	ResponseX	ResponseY	Correct
1.7	2015_Jul_20_1612	s	s	13	1	Capacity	1	RC	1	0	23MC	1	0	2.28288817406	515.0	200.0	-67	-179	0
1.7	2015_Jul_20_1612	s	s	13	1	Capacity	2	ABS	1	0	24MC	1	0	2.64218711853	None	None	-63	39	0
1.7	2015_Jul_20_1612	s	s	13	1	Capacity	3	ABS	2	0	24VC	0	1	15.6071250439	None	None	None	None	1
1.7	2015_Jul_20_1612	s	s	13	1	Capacity	4	RC	2	0	23VC	1	0	2.23074698448	-106.0	162.0	-107	166	1
1.7	2015_Jul_20_1612	s	s	13	1	Capacity	5	ABS	1	0	24MC	1	0	5.91208386421	None	None	-52	29	0
1.7	2015_Jul_20_1612	s	s	13	1	Capacity	6	RC	1	0	23MC	1	0	3.43105387688	-76.0	-309.0	45	-163	0
1.7	2015_Jul_20_1612	s	s	13	1	Capacity	7	ABS	2	0	24VC	0	1	3.14839482307	None	None	None	None	1
1.7	2015_Jul_20_1612	s	s	13	1	Capacity	8	RC	2	0	23VC	1	0	4.23672986031	-260.0	317.0	-261	315	1
1.7	2015_Jul_20_1612	s	s	13	1	Capacity	9	ABS	1	0	24MC	1	0	3.77258896828	None	None	-219	-204	0
1.7	2015_Jul_20_1612	s	s	13	1	Capacity	10	RC	2	0	23VC	1	0	2.37709593773	-177.0	282.0	-176	279	1
1.7	2015_Jul_20_1612	s	s	13	1	Capacity	11	RC	1	0	23MC	1	0	1.0067679882	231.0	119.0	312	-198	0
1.7	2015_Jul_20_1612	s	s	13	1	Capacity	12	ABS	2	0	24VC	0	1	2.53776597977	None	None	None	None	1
1.7	2015_Jul_20_1612	s	s	13	1	Capacity	13	RC	2	0	23VC	1	0	6.5406370163	448.0	-242.0	440	-236	1
1.7	2015_Jul_20_1612	s	s	13	1	Capacity	14	RC	1	0	23MC	1	0	3.44818615913	97.0	52.0	-513	307	0
1.7	2015_Jul_20_1612	s	s	13	1	Capacity	15	ABS	2	0	24VC	0	1	1.52360701561	None	None	None	None	1
1.7	2015_Jul_20_1612	s	s	13	1	Capacity	16	ABS	1	0	24MC	1	0	2.96112012863	None	None	-80	-271	0
1.7	2015_Jul_20_1612	s	s	13	1	Capacity	17	ABS	1	0	24MC	1	0	2.06855297089	None	None	-518	-70	0
1.7	2015_Jul_20_1612	s	s	13	1	Capacity	18	RC	1	0	23MC	1	0	1.56468510628	134.0	-6.0	455	236	0
1.7	2015_Jul_20_1612	s	s	13	1	Capacity	19	RC	2	0	23VC	1	0	2.55351209641	399.0	-251.0	400	-249	1
1.7	2015_Jul_20_1612	s	s	13	1	Capacity	20	ABS	2	0	24VC	0	1	1.01172685623	None	None	None	None	1
1.7	2015_Jul_20_1612	s	s	13	1	Capacity	21	RC	2	0	23VC	1	0	2.12980604172	-298.0	-40.0	-298	-38	1
1.7	2015_Jul_20_1612	s	s	13	1	Capacity	22	RC	1	0	23MC	1	0	1.73617601395	-477.0	-294.0	-390	-400	0
1.7	2015_Jul_20_1612	s	s	13	1	Capacity	23	ABS	1	0	24MC	1	0	2.06871604919	None	None	-10	351	0
1.7	2015_Jul_20_1612	s	s	13	1	Capacity	24	ABS	2	0	24VC	0	1	3.28338694572	None	None	None	None	1
1.7	2015_Jul_20_1612	s	s	13	1	Capacity	25	RC	2	0	23VC	1	0	3.50755882263	-530.0	-306.0	-532	-308	1
1.7	2015_Jul_20_1612	s	s	13	1	Capacity	26	ABS	1	0	24MC	1	0	2.32997012138	None	None	327	39	0
1.7	2015_Jul_20_1612	s	s	13	1	Capacity	27	RC	1	0	23MC	1	0	4.5781519413	-279.0	-50.0	-278	-54	1
1.7	2015_Jul_20_1612	s	s	13	1	Capacity	28	ABS	2	0	24VC	0	1	1.11754703522	None	None	None	None	1
1.7	2015_Jul_20_1612	s	s	13	1	Capacity	29	ABS	1	0	24MC	1	0	10.5671358109	None	None	145	-279	0
1.7	2015_Jul_20_1612	s	s	13	1	Capacity	30	RC	1	0	23MC	1	0	5.34317398071	27.0	-189.0	-282	-163	0
1.7	2015_Jul_20_1612	s	s	13	1	Capacity	31	RC	2	0	23VC	1	0	2.23321008682	-304.0	264.0	-310	266	1
1.7	2015_Jul_20_1612	s	s	13	1	Capacity	32	ABS	2	0	24VC	0	1	0.396165847778	None	None	None	None	1
1.7	2015_Jul_20_1612	s	s	13	1	Capacity	33	RC	1	0	23MC	1	0	0.736055850983	-429.0	-385.0	134	358	0
1.7	2015_Jul_20_1612	s	s	13	1	Capacity	34	ABS	1	0	24MC	1	0	1.16447997093	None	None	371	186	0
1.7	2015_Jul_20_1612	s	s	13	1	Capacity	35	ABS	2	0	24VC	0	1	0.687975883484	None	None	None	None	1
1.7	2015_Jul_20_1612	s	s	13	1	Capacity	36	RC	2	0	23VC	1	0	2.2418820858	496.0	-411.0	500	-413	1
1.7	2015_Jul_20_1612	s	s	13	1	Capacity	37	RC	1	0	23MC	1	0	2.04750800133	-91.0	-372.0	-224	-239	0
1.7	2015_Jul_20_1612	s	s	13	1	Capacity	38	ABS	2	0	24VC	0	1	1.14982700348	None	None	None	None	1
1.7	2015_Jul_20_1612	s	s	13	1	Capacity	39	ABS	1	0	24MC	1	0	1.16441011429	None	None	234	-175	0
1.7	2015_Jul_20_1612	s	s	13	1	Capacity	40	RC	2	0	23VC	1	0	1.57087612152	376.0	188.0	377	180	1
1.7	2015_Jul_20_1612	s	s	13	1	Capacity	41	ABS	2	0	24VC	0	1	1.86579108238	None	None	None	None	1
1.7	2015_Jul_20_1612	s	s	13	1	Capacity	42	ABS	1	0	24MC	1	0	2.66434693336	None	None	-24	-213	0
1.7	2015_Jul_20_1612	s	s	13	1	Capacity	43	RC	2	0	23VC	1	0	2.242415905	11.0	-113.0	13	-127	1
1.7	2015_Jul_20_1612	s	s	13	1	Capacity	44	RC	1	0	23MC	1	0	0.988550901413	156.0	229.0	101	20	0
1.7	2015_Jul_20_1612	s	s	13	1	Capacity	45	RC	1	0	23MC	1	0	2.31322002411	331.0	57.0	-260	101	0
1.7	2015_Jul_20_1612	s	s	13	1	Capacity	46	ABS	1	0	24MC	1	0	0.794538021088	None	None	-136	-45	0
1.7	2015_Jul_20_1612	s	s	13	1	Capacity	47	RC	2	0	23VC	1	0	1.3646800518	-456.0	-111.0	-448	-109	1
1.7	2015_Jul_20_1612	s	s	13	1	Capacity	48	ABS	2	0	24VC	0	1	0.517246961594	None	None	None	None	1
1.7	2015_Jul_20_1612	s	s	13	1	Capacity	49	ABS	1	0	24MC	1	0	0.655971050262	None	None	206	286	0
1.7	2015_Jul_20_1612	s	s	13	1	Capacity	50	RC	1	0	23MC	1	0	1.01165103912	-105.0	-317.0	58	312	0
1.7	2015_Jul_20_1612	s	s	13	1	Capacity	51	ABS	2	0	24VC	0	1	0.8896920681	None	None	None	None	1
1.7	2015_Jul_20_1612	s	s	13	1	Capacity	52	RC	2	0	23VC	1	0	1.67070913315	-413.0	344.0	-410	351	1
1.7	2015_Jul_20_1612	s	s	13	1	Capacity	53	ABS	1	0	24MC	1	0	1.40009307861	None	None	-303	184	0
1.7	2015_Jul_20_1612	s	s	13	1	Capacity	54	RC	2	0	23VC	1	0	1.19700407982	-81.0	356.0	-77	354	1
1.7	2015_Jul_20_1612	s	s	13	1	Capacity	55	RC	1	0	23MC	1	0	0.988003969193	343.0	209.0	-31	-92	0
1.7	2015_Jul_20_1612	s	s	13	1	Capacity	56	ABS	2	0	24VC	0	1	0.502121925354	None	None	None	None	1
1.7	2015_Jul_20_1612	s	s	13	1	Capacity	57	RC	2	0	23VC	1	0	1.46536278725	-267.0	60.0	-261	56	1
1.7	2015_Jul_20_1612	s	s	13	1	Capacity	58	ABS	1	0	24MC	1	0	0.714174985886	None	None	50	47	0
1.7	2015_Jul_20_1612	s	s	13	1	Capacity	59	RC	1	0	23MC	1	0	0.793797016144	199.0	-210.0	365	-383	0
1.7	2015_Jul_20_1612	s	s	13	1	Capacity	60	ABS	2	0	24VC	0	1	1.02078104019	None	None	None	None	1
1.7	2015_Jul_20_1612	s	s	13	1	Capacity	61	ABS	2	0	24VC	0	1	0.973841905594	None	None	None	None	1
1.7	2015_Jul_20_1612	s	s	13	1	Capacity	62	RC	1	0	23MC	1	0	1.45561599731	-534.0	-267.0	45	139	0
1.7	2015_Jul_20_1612	s	s	13	1	Capacity	63	ABS	1	0	24MC	1	0	1.59724617004	None	None	-119	59	0
1.7	2015_Jul_20_1612	s	s	13	1	Capacity	64	RC	2	0	23VC	1	0	1.88883805275	449.0	260.0	449	260	1
1.7	2015_Jul_20_1612	s	s	13	1	Capacity	65	RC	2	0	23VC	1	0	2.34171295166	-335.0	-302.0	-334	-314	1
1.7	2015_Jul_20_1612	s	s	13	1	Capacity	66	ABS	1	0	24MC	1	0	0.823312997818	None	None	66	54	0
1.7	2015_Jul_20_1612	s	s	13	1	Capacity	67	ABS	2	0	24VC	0	1	0.858515024185	None	None	None	None	1
1.7	2015_Jul_20_1612	s	s	13	1	Capacity	68	RC	1	0	23MC	1	0	1.1645720005	-444.0	349.0	-510	-212	0
1.7	2015_Jul_20_1612	s	s	13	1	Capacity	69	ABS	1	0	24MC	1	0	1.03117489815	None	None	-54	-60	0
1.7	2015_Jul_20_1612	s	s	13	1	Capacity	70	RC	2	0	23VC	1	0	0.938046216965	95.0	128.0	89	136	1
1.7	2015_Jul_20_1612	s	s	13	1	Capacity	71	ABS	2	0	24VC	0	1	0.887001037598	None	None	None	None	1
1.7	2015_Jul_20_1612	s	s	13	1	Capacity	72	RC	1	0	23MC	1	0	1.03517699242	-364.0	316.0	-111	58	0
1.7	2015_Jul_20_1612	s	s	13	1	Capacity	73	ABS	2	0	24VC	0	1	0.91411113739	None	None	None	None	1
1.7	2015_Jul_20_1612	s	s	13	1	Capacity	74	RC	2	0	23VC	1	0	1.17398786545	344.0	-261.0	344	-273	1
1.7	2015_Jul_20_1612	s	s	13	1	Capacity	75	RC	1	0	23MC	1	0	1.45462799072	-65.0	-345.0	-93	18	0
1.7	2015_Jul_20_1612	s	s	13	1	Capacity	76	ABS	1	0	24MC	1	0	1.04369592667	None	None	-64	71	0
1.7	2015_Jul_20_1612	s	s	13	1	Capacity	77	RC	1	0	23MC	1	0	0.699380874634	-154.0	27.0	39	-1	0
1.7	2015_Jul_20_1612	s	s	13	1	Capacity	78	ABS	1	0	24MC	1	0	0.587785959244	None	None	43	3	0
1.7	2015_Jul_20_1612	s	s	13	1	Capacity	79	RC	2	0	23VC	1	0	1.75316905975	93.0	-41.0	89	-44	1
1.7	2015_Jul_20_1612	s	s	13	1	Capacity	80	ABS	2	0	24VC	0	1	0.446707963943	None	None	None	None	1
1.7	2015_Jul_20_1612	s	s	13	1	Capacity	81	RC	1	0	23MC	1	0	0.817831039429	6.0	-385.0	42	-109	0
1.7	2015_Jul_20_1612	s	s	13	1	Capacity	82	RC	2	0	23VC	1	0	1.24347805977	-351.0	378.0	-362	384	1
1.7	2015_Jul_20_1612	s	s	13	1	Capacity	83	ABS	1	0	24MC	1	0	0.623248100281	None	None	-56	79	0
1.7	2015_Jul_20_1612	s	s	13	1	Capacity	84	ABS	2	0	24VC	0	1	0.794370889664	None	None	None	None	1
1.7	2015_Jul_20_1612	s	s	13	1	Capacity	85	ABS	2	0	24VC	0	1	0.811598062515	None	None	None	None	1
1.7	2015_Jul_20_1612	s	s	13	1	Capacity	86	RC	1	0	23MC	1	0	0.667674064636	439.0	-346.0	40	-22	0
1.7	2015_Jul_20_1612	s	s	13	1	Capacity	87	ABS	1	0	24MC	1	0	0.65299487114	None	None	35	36	0
1.7	2015_Jul_20_1612	s	s	13	1	Capacity	88	RC	2	0	23VC	1	0	1.27045822144	-374.0	-354.0	-381	-352	1
1.7	2015_Jul_20_1612	s	s	13	1	Capacity	89	ABS	1	0	24MC	1	0	0.526520967484	None	None	98	55	0
1.7	2015_Jul_20_1612	s	s	13	1	Capacity	90	RC	2	0	23VC	1	0	1.21891689301	-26.0	-77.0	-29	-69	1
1.7	2015_Jul_20_1612	s	s	13	1	Capacity	91	RC	1	0	23MC	1	0	0.823300123215	517.0	217.0	26	32	0
1.7	2015_Jul_20_1612	s	s	13	1	Capacity	92	ABS	2	0	24VC	0	1	0.811906814575	None	None	None	None	1
1.7	2015_Jul_20_1612	s	s	13	1	Capacity	1	RC	0	1	23RO	1	0	1.2305560112	31.0	-48.0	38	-43	1
1.7	2015_Jul_20_1612	s	s	13	1	Capacity	2	ABS	0	2	24RD	0	1	2.44334316254	None	None	None	None	1
1.7	2015_Jul_20_1612	s	s	13	1	Capacity	3	RC	0	2	23RD	1	0	2.01217484474	-256.0	93.0	-265	93	1
1.7	2015_Jul_20_1612	s	s	13	1	Capacity	4	ABS	0	1	24RO	0	1	5.98822212219	None	None	None	None	1
1.7	2015_Jul_20_1612	s	s	13	1	Capacity	5	ABS	0	1	24RO	0	1	7.33237290382	None	None	None	None	1
1.7	2015_Jul_20_1612	s	s	13	1	Capacity	6	ABS	0	2	24RD	0	1	3.25713706017	None	None	None	None	1
1.7	2015_Jul_20_1612	s	s	13	1	Capacity	7	RC	0	2	23RD	1	0	1.53737306595	208.0	9.0	217	7	1
1.7	2015_Jul_20_1612	s	s	13	1	Capacity	8	RC	0	1	23RO	1	0	5.3671028614	430.0	-106.0	424	-105	1
1.7	2015_Jul_20_1612	s	s	13	1	Capacity	9	RC	0	2	23RD	1	0	1.16226506233	-94.0	-195.0	-91	-201	1
1.7	2015_Jul_20_1612	s	s	13	1	Capacity	10	ABS	0	1	24RO	0	1	7.95292186737	None	None	None	None	1
1.7	2015_Jul_20_1612	s	s	13	1	Capacity	11	RC	0	1	23RO	1	0	4.68154191971	-94.0	-349.0	-95	-355	1
1.7	2015_Jul_20_1612	s	s	13	1	Capacity	12	ABS	0	2	24RD	0	1	4.10364699364	None	None	None	None	1
1.7	2015_Jul_20_1612	s	s	13	1	Capacity	13	ABS	0	1	24RO	0	1	9.84007310867	None	None	None	None	1
1.7	2015_Jul_20_1612	s	s	13	1	Capacity	14	RC	0	2	23RD	1	0	1.52374887466	343.0	344.0	349	351	1
1.7	2015_Jul_20_1612	s	s	13	1	Capacity	15	RC	0	1	23RO	1	0	1.39992499352	-259.0	57.0	-264	53	1
1.7	2015_Jul_20_1612	s	s	13	1	Capacity	16	ABS	0	2	24RD	0	1	2.00036787987	None	None	None	None	1
1.7	2015_Jul_20_1612	s	s	13	1	Capacity	17	RC	0	1	23RO	1	0	5.4374768734	293.0	-41.0	295	-48	1
1.7	2015_Jul_20_1612	s	s	13	1	Capacity	18	RC	0	2	23RD	1	0	1.28276896477	-531.0	399.0	-535	395	1
1.7	2015_Jul_20_1612	s	s	13	1	Capacity	19	ABS	0	1	24RO	0	1	7.8503549099	None	None	None	None	1
1.7	2015_Jul_20_1612	s	s	13	1	Capacity	20	ABS	0	2	24RD	0	1	2.09069299698	None	None	None	None	1
1.7	2015_Jul_20_1612	s	s	13	1	Capacity	21	RC	0	2	23RD	1	0	0.91176199913	289.0	-367.0	287	-369	1
1.7	2015_Jul_20_1612	s	s	13	1	Capacity	22	ABS	0	1	24RO	0	1	7.49380588531	None	None	None	None	1
1.7	2015_Jul_20_1612	s	s	13	1	Capacity	23	RC	0	1	23RO	1	0	4.18374705315	394.0	-132.0	394	-134	1
1.7	2015_Jul_20_1612	s	s	13	1	Capacity	24	ABS	0	2	24RD	0	1	2.04743719101	None	None	None	None	1
1.7	2015_Jul_20_1612	s	s	13	1	Capacity	25	ABS	0	2	24RD	0	1	2.77730607986	None	None	None	None	1
1.7	2015_Jul_20_1612	s	s	13	1	Capacity	26	ABS	0	1	24RO	0	1	10.4813959599	None	None	None	None	1
1.7	2015_Jul_20_1612	s	s	13	1	Capacity	27	RC	0	1	23RO	1	0	1.94161605835	442.0	234.0	444	230	1
1.7	2015_Jul_20_1612	s	s	13	1	Capacity	28	RC	0	2	23RD	1	0	0.936766147614	-443.0	4.0	-448	1	1
1.7	2015_Jul_20_1612	s	s	13	1	Capacity	29	RC	0	1	23RO	1	0	3.45469689369	-262.0	-412.0	-266	-422	1
1.7	2015_Jul_20_1612	s	s	13	1	Capacity	30	RC	0	2	23RD	1	0	0.952694892883	302.0	67.0	300	68	1
1.7	2015_Jul_20_1612	s	s	13	1	Capacity	31	ABS	0	2	24RD	0	1	1.95976996422	None	None	None	None	1
1.7	2015_Jul_20_1612	s	s	13	1	Capacity	32	ABS	0	1	24RO	0	1	15.9761018753	None	None	None	None	1
1.7	2015_Jul_20_1612	s	s	13	1	Capacity	33	ABS	0	1	24RO	0	1	10.3164129257	None	None	None	None	1
1.7	2015_Jul_20_1612	s	s	13	1	Capacity	34	RC	0	2	23RD	1	0	1.09148001671	220.0	-315.0	226	-324	1
1.7	2015_Jul_20_1612	s	s	13	1	Capacity	35	RC	0	1	23RO	1	0	4.731112957	-415.0	-116.0	-415	-114	1
1.7	2015_Jul_20_1612	s	s	13	1	Capacity	36	ABS	0	2	24RD	0	1	3.57766509056	None	None	None	None	1
1.7	2015_Jul_20_1612	s	s	13	1	Capacity	37	ABS	0	2	24RD	0	1	4.39071798325	None	None	None	None	1
1.7	2015_Jul_20_1612	s	s	13	1	Capacity	38	RC	0	1	23RO	1	0	3.89298605919	-244.0	339.0	-239	336	1
1.7	2015_Jul_20_1612	s	s	13	1	Capacity	39	ABS	0	1	24RO	0	1	11.1342380047	None	None	None	None	1
1.7	2015_Jul_20_1612	s	s	13	1	Capacity	40	RC	0	2	23RD	1	0	0.912024974823	-364.0	309.0	-361	307	1
1.7	2015_Jul_20_1612	s	s	13	1	Capacity	41	RC	0	1	23RO	1	0	5.77514100075	-234.0	-117.0	-239	-120	1
1.7	2015_Jul_20_1612	s	s	13	1	Capacity	42	ABS	0	1	24RO	0	1	7.4972679615	None	None	None	None	1
1.7	2015_Jul_20_1612	s	s	13	1	Capacity	43	ABS	0	2	24RD	0	1	1.8562579155	None	None	None	None	1
1.7	2015_Jul_20_1612	s	s	13	1	Capacity	44	RC	0	2	23RD	1	0	1.52679014206	-133.0	141.0	-137	145	1
1.7	2015_Jul_20_1612	s	s	13	1	Capacity	45	ABS	0	2	24RD	0	1	1.6083419323	None	None	None	None	1
1.7	2015_Jul_20_1612	s	s	13	1	Capacity	46	ABS	0	1	24RO	0	1	9.2157330513	None	None	None	None	1
1.7	2015_Jul_20_1612	s	s	13	1	Capacity	47	RC	0	2	23RD	1	0	0.92426109314	468.0	-205.0	473	-207	1
1.7	2015_Jul_20_1612	s	s	13	1	Capacity	48	RC	0	1	23RO	1	0	5.16152191162	-486.0	-90.0	-487	-90	1
1.7	2015_Jul_20_1612	s	s	13	1	Capacity	49	RC	0	1	23RO	1	0	1.17266702652	61.0	38.0	60	40	1
1.7	2015_Jul_20_1612	s	s	13	1	Capacity	50	ABS	0	1	24RO	0	1	6.28004097939	None	None	None	None	1
1.7	2015_Jul_20_1612	s	s	13	1	Capacity	51	RC	0	2	23RD	1	0	0.788000106812	115.0	-274.0	113	-280	1
1.7	2015_Jul_20_1612	s	s	13	1	Capacity	52	ABS	0	2	24RD	0	1	2.18348097801	None	None	None	None	1
1.7	2015_Jul_20_1612	s	s	13	1	Capacity	53	ABS	0	1	24RO	0	1	7.03348898888	None	None	None	None	1
1.7	2015_Jul_20_1612	s	s	13	1	Capacity	54	RC	0	1	23RO	1	0	0.875894069672	31.0	-219.0	33	-214	1
1.7	2015_Jul_20_1612	s	s	13	1	Capacity	55	ABS	0	2	24RD	0	1	1.71791601181	None	None	None	None	1
1.7	2015_Jul_20_1612	s	s	13	1	Capacity	56	RC	0	2	23RD	1	0	0.74810385704	29.0	294.0	35	298	1
1.7	2015_Jul_20_1612	s	s	13	1	Capacity	57	RC	0	2	23RD	1	0	0.776170969009	-68.0	3.0	-72	-8	1
1.7	2015_Jul_20_1612	s	s	13	1	Capacity	58	RC	0	1	23RO	1	0	0.999894857407	-174.0	107.0	-166	113	1
1.7	2015_Jul_20_1612	s	s	13	1	Capacity	59	ABS	0	1	24RO	0	1	5.46092486382	None	None	None	None	1
1.7	2015_Jul_20_1612	s	s	13	1	Capacity	60	ABS	0	2	24RD	0	1	1.45642995834	None	None	None	None	1
1.7	2015_Jul_20_1612	s	s	13	1	Capacity	61	RC	0	1	23RO	1	0	2.47847986221	463.0	316.0	466	314	1
1.7	2015_Jul_20_1612	s	s	13	1	Capacity	62	ABS	0	1	24RO	0	1	4.64391708374	None	None	None	None	1
1.7	2015_Jul_20_1612	s	s	13	1	Capacity	63	ABS	0	2	24RD	0	1	0.921091794968	None	None	None	None	1
1.7	2015_Jul_20_1612	s	s	13	1	Capacity	64	RC	0	2	23RD	1	0	0.749863147736	461.0	329.0	466	331	1
1.7	2015_Jul_20_1612	s	s	13	1	Capacity	65	RC	0	1	23RO	1	0	1.12933397293	-89.0	125.0	-84	117	1
1.7	2015_Jul_20_1612	s	s	13	1	Capacity	66	RC	0	2	23RD	1	0	1.04693007469	-120.0	-386.0	-115	-390	1
1.7	2015_Jul_20_1612	s	s	13	1	Capacity	67	ABS	0	2	24RD	0	1	1.53603219986	None	None	None	None	1
1.7	2015_Jul_20_1612	s	s	13	1	Capacity	68	ABS	0	1	24RO	0	1	7.08533382416	None	None	None	None	1
1.7	2015_Jul_20_1612	s	s	13	1	Capacity	69	RC	0	2	23RD	1	0	0.746870994568	-276.0	-130.0	-272	-127	1
1.7	2015_Jul_20_1612	s	s	13	1	Capacity	70	ABS	0	1	24RO	0	1	4.27201390266	None	None	None	None	1
1.7	2015_Jul_20_1612	s	s	13	1	Capacity	71	RC	0	1	23RO	1	0	1.31768107414	-326.0	-109.0	-329	-110	1
1.7	2015_Jul_20_1612	s	s	13	1	Capacity	72	ABS	0	2	24RD	0	1	1.15292310715	None	None	None	None	1
1.7	2015_Jul_20_1612	s	s	13	1	Capacity	73	ABS	0	1	24RO	0	1	6.19068694115	None	None	None	None	1
1.7	2015_Jul_20_1612	s	s	13	1	Capacity	74	RC	0	1	23RO	1	0	0.917344808578	-238.0	-14.0	-233	-18	1
1.7	2015_Jul_20_1612	s	s	13	1	Capacity	75	RC	0	2	23RD	1	0	0.670653104782	-341.0	-5.0	-343	-4	1
1.7	2015_Jul_20_1612	s	s	13	1	Capacity	76	ABS	0	2	24RD	0	1	1.1475019455	None	None	None	None	1
1.7	2015_Jul_20_1612	s	s	13	1	Capacity	77	ABS	0	1	24RO	0	1	6.64336490631	None	None	None	None	1
1.7	2015_Jul_20_1612	s	s	13	1	Capacity	78	RC	0	2	23RD	1	0	0.717380046844	-165.0	304.0	-173	305	1
1.7	2015_Jul_20_1612	s	s	13	1	Capacity	79	RC	0	1	23RO	0	1	5.33145499229	163.0	371.0	None	None	0
1.7	2015_Jul_20_1612	s	s	13	1	Capacity	80	ABS	0	2	24RD	0	1	1.49433112144	None	None	None	None	1
1.7	2015_Jul_20_1612	s	s	13	1	Capacity	81	ABS	0	1	24RO	0	1	5.0019030571	None	None	None	None	1
1.7	2015_Jul_20_1612	s	s	13	1	Capacity	82	RC	0	1	23RO	1	0	1.22357606888	221.0	-11.0	227	-16	1
1.7	2015_Jul_20_1612	s	s	13	1	Capacity	83	ABS	0	2	24RD	0	1	1.25883507729	None	None	None	None	1
1.7	2015_Jul_20_1612	s	s	13	1	Capacity	84	RC	0	2	23RD	1	0	0.910456180573	395.0	-239.0	401	-244	1
1.7	2015_Jul_20_1612	s	s	13	1	Capacity	85	RC	0	2	23RD	1	0	0.788407087326	402.0	-210.0	405	-219	1
1.7	2015_Jul_20_1612	s	s	13	1	Capacity	86	RC	0	1	23RO	1	0	4.22498679161	144.0	-243.0	147	-248	1
1.7	2015_Jul_20_1612	s	s	13	1	Capacity	87	ABS	0	2	24RD	0	1	1.73737096786	None	None	None	None	1
1.7	2015_Jul_20_1612	s	s	13	1	Capacity	88	ABS	0	1	24RO	0	1	6.64720988274	None	None	None	None	1
1.7	2015_Jul_20_1612	s	s	13	1	Capacity	89	ABS	0	1	24RO	0	1	5.82247805595	None	None	None	None	1
1.7	2015_Jul_20_1612	s	s	13	1	Capacity	90	RC	0	2	23RD	1	0	0.740911960602	-241.0	0.0	-240	-9	1
1.7	2015_Jul_20_1612	s	s	13	1	Capacity	91	ABS	0	2	24RD	0	1	1.46847987175	None	None	None	None	1
1.7	2015_Jul_20_1612	s	s	13	1	Capacity	92	RC	0	1	23RO	1	0	3.63648986816	-57.0	378.0	-54	376	1
1.7	2015_Jul_20_1612	s	s	13	1	SIC	1	RC	1	1	23MO	1	0	3.80869698524	-453.0	167.0	-450	163	1
1.7	2015_Jul_20_1612	s	s	13	1	SIC	2	ABS	2	2	24VD	0	1	0.823302030563	None	None	None	None	1
1.7	2015_Jul_20_1612	s	s	13	1	SIC	3	RC	0	2	23RD	1	0	1.3413028717	-156.0	-374.0	-152	-376	1
1.7	2015_Jul_20_1612	s	s	13	1	SIC	4	RC	1	0	23MC	1	0	16.8250150681	-143.0	201.0	-146	201	1
1.7	2015_Jul_20_1612	s	s	13	1	SIC	5	RC	1	2	23MD	1	0	0.982181072235	269.0	-231.0	265	-235	1
1.7	2015_Jul_20_1612	s	s	13	1	SIC	6	ABS	1	2	24MD	0	1	3.15391516685	None	None	None	None	1
1.7	2015_Jul_20_1612	s	s	13	1	SIC	7	ABS	1	1	24MO	0	1	5.38761806488	None	None	None	None	1
1.7	2015_Jul_20_1612	s	s	13	1	SIC	8	ABS	2	0	24VC	0	1	0.868147850037	None	None	None	None	1
1.7	2015_Jul_20_1612	s	s	13	1	SIC	9	RC	2	1	23VO	1	0	0.806325912476	178.0	87.0	180	87	1
1.7	2015_Jul_20_1612	s	s	13	1	SIC	10	RC	2	0	23VC	1	0	1.87974095345	208.0	153.0	211	151	1
1.7	2015_Jul_20_1612	s	s	13	1	SIC	11	ABS	0	1	24RO	0	1	5.70370388031	None	None	None	None	1
1.7	2015_Jul_20_1612	s	s	13	1	SIC	12	ABS	2	1	24VO	0	1	0.89969587326	None	None	None	None	1
1.7	2015_Jul_20_1612	s	s	13	1	SIC	13	ABS	1	0	24MC	0	0	-1	None	None	None	None	-1
1.7	2015_Jul_20_1612	s	s	13	1	SIC	14	RC	0	1	23RO	1	0	1.50431895256	-69.0	180.0	-70	178	1
1.7	2015_Jul_20_1612	s	s	13	1	SIC	15	RC	2	2	23VD	1	0	1.62370896339	-291.0	-261.0	-295	-260	1
1.7	2015_Jul_20_1612	s	s	13	1	SIC	16	ABS	0	2	24RD	0	1	2.38879680634	None	None	None	None	1
1.7	2015_Jul_20_1612	s	s	13	1	SIC	17	RC	2	2	23VD	1	0	0.855966091156	503.0	352.0	505	345	1
1.7	2015_Jul_20_1612	s	s	13	1	SIC	18	RC	1	0	23MC	0	1	4.35920190811	-183.0	-206.0	None	None	0
1.7	2015_Jul_20_1612	s	s	13	1	SIC	19	RC	1	2	23MD	1	0	0.932921886444	234.0	-337.0	236	-342	1
1.7	2015_Jul_20_1612	s	s	13	1	SIC	20	ABS	0	1	24RO	0	1	5.28812503815	None	None	None	None	1
1.7	2015_Jul_20_1612	s	s	13	1	SIC	21	ABS	1	2	24MD	0	1	0.935702085495	None	None	None	None	1
1.7	2015_Jul_20_1612	s	s	13	1	SIC	22	RC	0	2	23RD	1	0	0.811537027359	61.0	-356.0	55	-351	1
1.7	2015_Jul_20_1612	s	s	13	1	SIC	23	RC	0	1	23RO	1	0	2.60978603363	480.0	-61.0	480	-60	1
1.7	2015_Jul_20_1612	s	s	13	1	SIC	24	ABS	2	0	24VC	0	1	0.776082038879	None	None	None	None	1
1.7	2015_Jul_20_1612	s	s	13	1	SIC	25	RC	2	1	23VO	1	0	0.788013935089	-247.0	-356.0	-250	-354	1
1.7	2015_Jul_20_1612	s	s	13	1	SIC	26	ABS	0	2	24RD	0	1	1.89448094368	None	None	None	None	1
1.7	2015_Jul_20_1612	s	s	13	1	SIC	27	RC	1	1	23MO	1	0	0.960041046143	-227.0	245.0	-229	240	1
1.7	2015_Jul_20_1612	s	s	13	1	SIC	28	ABS	2	1	24VO	0	1	1.55016112328	None	None	None	None	1
1.7	2015_Jul_20_1612	s	s	13	1	SIC	29	RC	2	0	23VC	1	0	1.31231808662	267.0	295.0	265	290	1
1.7	2015_Jul_20_1612	s	s	13	1	SIC	30	ABS	1	0	24MC	1	0	6.79112696648	None	None	-468	-99	0
1.7	2015_Jul_20_1612	s	s	13	1	SIC	31	ABS	1	1	24MO	0	1	4.85820889473	None	None	None	None	1
1.7	2015_Jul_20_1612	s	s	13	1	SIC	32	ABS	2	2	24VD	0	1	0.805710077286	None	None	None	None	1
1.7	2015_Jul_20_1612	s	s	13	1	SIC	33	RC	0	1	23RO	1	0	4.64102292061	-66.0	378.0	-67	373	1
1.7	2015_Jul_20_1612	s	s	13	1	SIC	34	ABS	1	2	24MD	0	1	1.19172406197	None	None	None	None	1
1.7	2015_Jul_20_1612	s	s	13	1	SIC	35	RC	1	0	23MC	1	0	4.8842279911	135.0	223.0	138	230	1
1.7	2015_Jul_20_1612	s	s	13	1	SIC	36	RC	1	1	23MO	1	0	2.33688402176	241.0	-299.0	245	-303	1
1.7	2015_Jul_20_1612	s	s	13	1	SIC	37	RC	2	1	23VO	1	0	3.02444005013	-167.0	-98.0	-167	-98	1
1.7	2015_Jul_20_1612	s	s	13	1	SIC	38	ABS	0	2	24RD	0	1	1.35967707634	None	None	None	None	1
1.7	2015_Jul_20_1612	s	s	13	1	SIC	39	RC	0	2	23RD	1	0	1.14494609833	-507.0	-356.0	-505	-363	1
1.7	2015_Jul_20_1612	s	s	13	1	SIC	40	ABS	0	1	24RO	0	1	5.87981510162	None	None	None	None	1
1.7	2015_Jul_20_1612	s	s	13	1	SIC	41	ABS	2	2	24VD	0	1	0.988137960434	None	None	None	None	1
1.7	2015_Jul_20_1612	s	s	13	1	SIC	42	ABS	2	0	24VC	0	1	0.682093858719	None	None	None	None	1
1.7	2015_Jul_20_1612	s	s	13	1	SIC	43	RC	2	2	23VD	1	0	0.559505939484	211.0	156.0	211	153	1
1.7	2015_Jul_20_1612	s	s	13	1	SIC	44	RC	1	2	23MD	1	0	0.807480096817	417.0	97.0	408	93	1
1.7	2015_Jul_20_1612	s	s	13	1	SIC	45	ABS	2	1	24VO	0	1	0.635033845901	None	None	None	None	1
1.7	2015_Jul_20_1612	s	s	13	1	SIC	46	ABS	1	1	24MO	0	1	3.57765293121	None	None	None	None	1
1.7	2015_Jul_20_1612	s	s	13	1	SIC	47	RC	2	0	23VC	1	0	0.59706902504	-319.0	68.0	-316	62	1
1.7	2015_Jul_20_1612	s	s	13	1	SIC	48	ABS	1	0	24MC	0	1	4.4368891716	None	None	None	None	1
1.7	2015_Jul_20_1612	s	s	13	1	SIC	49	ABS	2	2	24VD	0	1	1.08817195892	None	None	None	None	1
1.7	2015_Jul_20_1612	s	s	13	1	SIC	50	ABS	0	2	24RD	0	1	1.72966098785	None	None	None	None	1
1.7	2015_Jul_20_1612	s	s	13	1	SIC	51	RC	1	0	23MC	1	0	2.57205915451	-98.0	206.0	-97	193	1
1.7	2015_Jul_20_1612	s	s	13	1	SIC	52	RC	0	1	23RO	1	0	4.03410100937	-408.0	-258.0	-408	-257	1
1.7	2015_Jul_20_1612	s	s	13	1	SIC	53	ABS	1	2	24MD	0	1	1.50056600571	None	None	None	None	1
1.7	2015_Jul_20_1612	s	s	13	1	SIC	54	ABS	2	0	24VC	0	1	0.746882915497	None	None	None	None	1
1.7	2015_Jul_20_1612	s	s	13	1	SIC	55	ABS	0	1	24RO	0	1	7.22655200958	None	None	None	None	1
1.7	2015_Jul_20_1612	s	s	13	1	SIC	56	ABS	1	1	24MO	0	1	4.31925797462	None	None	None	None	1
1.7	2015_Jul_20_1612	s	s	13	1	SIC	57	RC	1	2	23MD	1	0	1.91802787781	203.0	83.0	204	79	1
1.7	2015_Jul_20_1612	s	s	13	1	SIC	58	RC	2	1	23VO	1	0	2.64776492119	206.0	132.0	203	125	1
1.7	2015_Jul_20_1612	s	s	13	1	SIC	59	RC	2	0	23VC	1	0	1.09405517578	159.0	149.0	154	149	1
1.7	2015_Jul_20_1612	s	s	13	1	SIC	60	ABS	1	0	24MC	0	1	5.99952912331	None	None	None	None	1
1.7	2015_Jul_20_1612	s	s	13	1	SIC	61	RC	0	2	23RD	1	0	1.07701706886	-463.0	34.0	-467	36	1
1.7	2015_Jul_20_1612	s	s	13	1	SIC	62	ABS	2	1	24VO	0	1	1.75924086571	None	None	None	None	1
1.7	2015_Jul_20_1612	s	s	13	1	SIC	63	RC	2	2	23VD	1	0	0.670297861099	-107.0	-94.0	-116	-93	1
1.7	2015_Jul_20_1612	s	s	13	1	SIC	64	RC	1	1	23MO	1	0	1.98850703239	415.0	164.0	414	158	1
1.7	2015_Jul_20_1612	s	s	13	1	SIC	65	ABS	0	1	24RO	0	1	6.24984502792	None	None	None	None	1
1.7	2015_Jul_20_1612	s	s	13	1	SIC	66	ABS	1	0	24MC	1	0	5.71993708611	None	None	-484	404	0
1.7	2015_Jul_20_1612	s	s	13	1	SIC	67	ABS	1	1	24MO	0	1	3.49033093452	None	None	None	None	1
1.7	2015_Jul_20_1612	s	s	13	1	SIC	68	RC	1	1	23MO	1	0	4.43687105179	-249.0	100.0	-243	98	1
1.7	2015_Jul_20_1612	s	s	13	1	SIC	69	ABS	1	2	24MD	0	1	1.38826680183	None	None	None	None	1
1.7	2015_Jul_20_1612	s	s	13	1	SIC	70	ABS	0	2	24RD	0	1	2.21590280533	None	None	None	None	1
1.7	2015_Jul_20_1612	s	s	13	1	SIC	71	RC	1	0	23MC	1	0	8.9276239872	255.0	54.0	-150	101	0
1.7	2015_Jul_20_1612	s	s	13	1	SIC	72	RC	2	1	23VO	1	0	2.79777097702	-468.0	17.0	-468	18	1
1.7	2015_Jul_20_1612	s	s	13	1	SIC	73	RC	2	2	23VD	1	0	0.740880966187	-179.0	110.0	-177	106	1
1.7	2015_Jul_20_1612	s	s	13	1	SIC	74	ABS	2	0	24VC	0	1	0.764403820038	None	None	None	None	1
1.7	2015_Jul_20_1612	s	s	13	1	SIC	75	ABS	2	2	24VD	0	1	0.823405981064	None	None	None	None	1
1.7	2015_Jul_20_1612	s	s	13	1	SIC	76	RC	0	1	23RO	1	0	3.5722990036	-375.0	121.0	-379	116	1
1.7	2015_Jul_20_1612	s	s	13	1	SIC	77	RC	1	2	23MD	1	0	0.640899896622	224.0	-117.0	228	-117	1
1.7	2015_Jul_20_1612	s	s	13	1	SIC	78	RC	2	0	23VC	1	0	0.617435932159	416.0	17.0	414	11	1
1.7	2015_Jul_20_1612	s	s	13	1	SIC	79	ABS	2	1	24VO	0	1	0.558753013611	None	None	None	None	1
1.7	2015_Jul_20_1612	s	s	13	1	SIC	80	RC	0	2	23RD	1	0	0.964579820633	-213.0	-249.0	-214	-249	1
1.7	2015_Jul_20_1612	s	s	13	1	SIC	81	RC	1	1	23MO	1	0	0.830121994019	-388.0	-88.0	-391	-90	1
1.7	2015_Jul_20_1612	s	s	13	1	SIC	82	ABS	2	0	24VC	0	1	0.524040937424	None	None	None	None	1
1.7	2015_Jul_20_1612	s	s	13	1	SIC	83	RC	2	0	23VC	1	0	0.764462947845	-323.0	-379.0	-326	-370	1
1.7	2015_Jul_20_1612	s	s	13	1	SIC	84	ABS	0	1	24RO	0	1	7.08004307747	None	None	None	None	1
1.7	2015_Jul_20_1612	s	s	13	1	SIC	85	RC	2	2	23VD	1	0	0.594654083252	269.0	-92.0	260	-92	1
1.7	2015_Jul_20_1612	s	s	13	1	SIC	86	RC	0	1	23RO	1	0	4.30744409561	-183.0	-396.0	-176	-395	1
1.7	2015_Jul_20_1612	s	s	13	1	SIC	87	RC	1	0	23MC	1	0	5.93547105789	399.0	301.0	401	298	1
1.7	2015_Jul_20_1612	s	s	13	1	SIC	88	ABS	2	1	24VO	0	1	0.658564805984	None	None	None	None	1
1.7	2015_Jul_20_1612	s	s	13	1	SIC	89	ABS	1	0	24MC	0	1	9.09792613983	None	None	None	None	1
1.7	2015_Jul_20_1612	s	s	13	1	SIC	90	ABS	2	2	24VD	0	1	0.717383861542	None	None	None	None	1
1.7	2015_Jul_20_1612	s	s	13	1	SIC	91	RC	2	1	23VO	1	0	0.632826089859	88.0	-363.0	82	-359	1
1.7	2015_Jul_20_1612	s	s	13	1	SIC	92	ABS	1	2	24MD	0	1	1.67814183235	None	None	None	None	1
1.7	2015_Jul_20_1612	s	s	13	1	SIC	93	RC	1	2	23MD	1	0	0.78808093071	369.0	-354.0	374	-354	1
1.7	2015_Jul_20_1612	s	s	13	1	SIC	94	RC	0	2	23RD	1	0	0.547435998917	208.0	-5.0	202	-10	1
1.7	2015_Jul_20_1612	s	s	13	1	SIC	95	ABS	0	2	24RD	0	1	2.84786891937	None	None	None	None	1
1.7	2015_Jul_20_1612	s	s	13	1	SIC	96	ABS	1	1	24MO	0	1	11.1342549324	None	None	None	None	1
1.7	2015_Jul_20_1612	s	s	13	1	SIC	97	RC	2	0	23VC	1	0	1.04696297646	-146.0	362.0	-140	361	1
1.7	2015_Jul_20_1612	s	s	13	1	SIC	98	RC	1	1	23MO	1	0	3.84824609756	396.0	-31.0	398	-32	1
1.7	2015_Jul_20_1612	s	s	13	1	SIC	99	ABS	1	1	24MO	0	1	5.99060511589	None	None	None	None	1
1.7	2015_Jul_20_1612	s	s	13	1	SIC	100	ABS	2	2	24VD	0	1	0.682293176651	None	None	None	None	1
1.7	2015_Jul_20_1612	s	s	13	1	SIC	101	RC	1	0	23MC	1	0	8.42753791809	439.0	-346.0	-304	-399	0
1.7	2015_Jul_20_1612	s	s	13	1	SIC	102	RC	1	2	23MD	1	0	2.04792904854	-35.0	-386.0	-33	-391	1
1.7	2015_Jul_20_1612	s	s	13	1	SIC	103	RC	0	1	23RO	1	0	6.24949002266	-253.0	310.0	-258	309	1
1.7	2015_Jul_20_1612	s	s	13	1	SIC	104	ABS	0	2	24RD	0	1	1.45401597023	None	None	None	None	1
1.7	2015_Jul_20_1612	s	s	13	1	SIC	105	ABS	0	1	24RO	0	1	7.84689998627	None	None	None	None	1
1.7	2015_Jul_20_1612	s	s	13	1	SIC	106	ABS	1	2	24MD	0	1	1.89447498322	None	None	None	None	1
1.7	2015_Jul_20_1612	s	s	13	1	SIC	107	RC	2	2	23VD	1	0	0.761940002441	-141.0	-407.0	-143	-413	1
1.7	2015_Jul_20_1612	s	s	13	1	SIC	108	ABS	1	0	24MC	0	1	10.8468170166	None	None	None	None	1
1.7	2015_Jul_20_1612	s	s	13	1	SIC	109	RC	2	1	23VO	1	0	1.30336809158	-330.0	355.0	-326	349	1
1.7	2015_Jul_20_1612	s	s	13	1	SIC	110	ABS	2	0	24VC	0	1	0.69043302536	None	None	None	None	1
1.7	2015_Jul_20_1612	s	s	13	1	SIC	111	ABS	2	1	24VO	0	1	0.668324947357	None	None	None	None	1
1.7	2015_Jul_20_1612	s	s	13	1	SIC	112	RC	0	2	23RD	1	0	1.61188912392	-198.0	400.0	-204	398	1
1.7	2015_Jul_20_1612	s	s	13	1	SIC	113	RC	2	2	23VD	1	0	0.699733018875	12.0	-349.0	12	-349	1
1.7	2015_Jul_20_1612	s	s	13	1	SIC	114	RC	1	0	23MC	0	1	12.5662090778	-303.0	-361.0	None	None	0
1.7	2015_Jul_20_1612	s	s	13	1	SIC	115	RC	2	1	23VO	1	0	0.785737037659	-246.0	-370.0	-247	-366	1
1.7	2015_Jul_20_1612	s	s	13	1	SIC	116	ABS	1	1	24MO	0	1	8.76282095909	None	None	None	None	1
1.7	2015_Jul_20_1612	s	s	13	1	SIC	117	RC	0	2	23RD	1	0	2.39706707001	-389.0	258.0	-386	261	1
1.7	2015_Jul_20_1612	s	s	13	1	SIC	118	ABS	0	2	24RD	0	1	1.31765890121	None	None	None	None	1
1.7	2015_Jul_20_1612	s	s	13	1	SIC	119	RC	2	0	23VC	1	0	0.929259061813	-533.0	320.0	-540	324	1
1.7	2015_Jul_20_1612	s	s	13	1	SIC	120	ABS	2	0	24VC	0	1	0.867807149887	None	None	None	None	1
1.7	2015_Jul_20_1612	s	s	13	1	SIC	121	RC	0	1	23RO	1	0	1.8473610878	33.0	36.0	25	38	1
1.7	2015_Jul_20_1612	s	s	13	1	SIC	122	ABS	2	1	24VO	0	1	0.738108873367	None	None	None	None	1
1.7	2015_Jul_20_1612	s	s	13	1	SIC	123	ABS	1	0	24MC	1	0	6.22121191025	None	None	359	117	0
1.7	2015_Jul_20_1612	s	s	13	1	SIC	124	RC	1	1	23MO	1	0	3.12654709816	-426.0	46.0	-426	47	1
1.7	2015_Jul_20_1612	s	s	13	1	SIC	125	ABS	0	1	24RO	0	1	5.35016298294	None	None	None	None	1
1.7	2015_Jul_20_1612	s	s	13	1	SIC	126	ABS	1	2	24MD	0	1	0.764277935028	None	None	None	None	1
1.7	2015_Jul_20_1612	s	s	13	1	SIC	127	RC	1	2	23MD	1	0	0.705665111542	256.0	-139.0	254	-132	1
1.7	2015_Jul_20_1612	s	s	13	1	SIC	128	ABS	2	2	24VD	0	1	0.846915960312	None	None	None	None	1
1.7	2015_Jul_20_1612	s	s	13	1	SIC	129	ABS	0	1	24RO	0	1	6.33182907104	None	None	None	None	1
1.7	2015_Jul_20_1612	s	s	13	1	SIC	130	RC	1	2	23MD	1	0	0.734538078308	-382.0	41.0	-385	42	1
1.7	2015_Jul_20_1612	s	s	13	1	SIC	131	ABS	0	2	24RD	0	1	2.70666408539	None	None	None	None	1
1.7	2015_Jul_20_1612	s	s	13	1	SIC	132	RC	1	0	23MC	1	0	6.44718599319	-7.0	-233.0	-7	-233	1
1.7	2015_Jul_20_1612	s	s	13	1	SIC	133	RC	0	2	23RD	1	0	0.816791772842	322.0	138.0	323	123	1
1.7	2015_Jul_20_1612	s	s	13	1	SIC	134	ABS	2	0	24VC	0	1	0.740880012512	None	None	None	None	1
1.7	2015_Jul_20_1612	s	s	13	1	SIC	135	ABS	1	2	24MD	0	1	0.870459079742	None	None	None	None	1
1.7	2015_Jul_20_1612	s	s	13	1	SIC	136	ABS	1	0	24MC	1	0	12.6356160641	None	None	75	79	0
1.7	2015_Jul_20_1612	s	s	13	1	SIC	137	RC	1	1	23MO	1	0	5.36374998093	-512.0	93.0	-505	91	1
1.7	2015_Jul_20_1612	s	s	13	1	SIC	138	RC	2	0	23VC	1	0	2.93674492836	-34.0	-86.0	-37	-89	1
1.7	2015_Jul_20_1612	s	s	13	1	SIC	139	ABS	2	2	24VD	0	1	0.735929965973	None	None	None	None	1
1.7	2015_Jul_20_1612	s	s	13	1	SIC	140	ABS	1	1	24MO	0	1	6.42615008354	None	None	None	None	1
1.7	2015_Jul_20_1612	s	s	13	1	SIC	141	RC	0	1	23RO	1	0	5.03217506409	496.0	-32.0	503	-30	1
1.7	2015_Jul_20_1612	s	s	13	1	SIC	142	RC	2	2	23VD	1	0	1.10267996788	-20.0	-341.0	-23	-337	1
1.7	2015_Jul_20_1612	s	s	13	1	SIC	143	RC	2	1	23VO	1	0	1.43076515198	159.0	282.0	154	278	1
1.7	2015_Jul_20_1612	s	s	13	1	SIC	144	ABS	2	1	24VO	0	1	1.10074400902	None	None	None	None	1
1.7	2015_Jul_20_1612	s	s	13	1	SIC	145	ABS	1	1	24MO	0	1	3.02222204208	None	None	None	None	1
1.7	2015_Jul_20_1612	s	s	13	1	SIC	146	RC	0	2	23RD	1	0	1.00780415535	20.0	300.0	27	298	1
1.7	2015_Jul_20_1612	s	s	13	1	SIC	147	RC	1	0	23MC	0	1	13.9630889893	-192.0	-175.0	None	None	0
1.7	2015_Jul_20_1612	s	s	13	1	SIC	148	RC	2	1	23VO	1	0	0.965023994446	432.0	362.0	428	361	1
1.7	2015_Jul_20_1612	s	s	13	1	SIC	149	ABS	2	1	24VO	0	1	2.0944981575	None	None	None	None	1
1.7	2015_Jul_20_1612	s	s	13	1	SIC	150	ABS	1	2	24MD	0	1	1.21175312996	None	None	None	None	1
1.7	2015_Jul_20_1612	s	s	13	1	SIC	151	RC	0	1	23RO	1	0	2.08276081085	-55.0	227.0	-51	222	1
1.7	2015_Jul_20_1612	s	s	13	1	SIC	152	ABS	2	2	24VD	0	1	0.917474031448	None	None	None	None	1
1.7	2015_Jul_20_1612	s	s	13	1	SIC	153	RC	1	2	23MD	1	0	0.90299987793	-12.0	122.0	-5	124	1
1.7	2015_Jul_20_1612	s	s	13	1	SIC	154	ABS	0	2	24RD	0	1	1.37401103973	None	None	None	None	1
1.7	2015_Jul_20_1612	s	s	13	1	SIC	155	RC	1	1	23MO	1	0	1.76013588905	-538.0	15.0	-540	19	1
1.7	2015_Jul_20_1612	s	s	13	1	SIC	156	RC	2	0	23VC	1	0	0.759510040283	410.0	299.0	404	297	1
1.7	2015_Jul_20_1612	s	s	13	1	SIC	157	ABS	0	1	24RO	0	1	8.07407093048	None	None	None	None	1
1.7	2015_Jul_20_1612	s	s	13	1	SIC	158	ABS	1	0	24MC	1	0	9.36880683899	None	None	55	-315	0
1.7	2015_Jul_20_1612	s	s	13	1	SIC	159	RC	2	2	23VD	1	0	0.693901062012	-356.0	39.0	-363	43	1
1.7	2015_Jul_20_1612	s	s	13	1	SIC	160	ABS	2	0	24VC	0	1	0.796120882034	None	None	None	None	1
1.7	2015_Jul_20_1612	s	s	13	1	SIC	161	ABS	1	1	24MO	0	1	3.78466892242	None	None	None	None	1
1.7	2015_Jul_20_1612	s	s	13	1	SIC	162	ABS	0	1	24RO	0	1	7.68556880951	None	None	None	None	1
1.7	2015_Jul_20_1612	s	s	13	1	SIC	163	RC	1	0	23MC	1	0	9.02750992775	175.0	52.0	-528	284	0
1.7	2015_Jul_20_1612	s	s	13	1	SIC	164	RC	1	2	23MD	1	0	0.676997184753	-83.0	-116.0	-87	-114	1
1.7	2015_Jul_20_1612	s	s	13	1	SIC	165	ABS	0	2	24RD	0	1	0.893918037415	None	None	None	None	1
1.7	2015_Jul_20_1612	s	s	13	1	SIC	166	ABS	1	0	24MC	1	0	17.1078460217	None	None	-13	317	0
1.7	2015_Jul_20_1612	s	s	13	1	SIC	167	RC	0	2	23RD	1	0	1.04687404633	309.0	143.0	309	145	1
1.7	2015_Jul_20_1612	s	s	13	1	SIC	168	RC	2	0	23VC	1	0	1.27058792114	95.0	-247.0	92	-245	1
1.7	2015_Jul_20_1612	s	s	13	1	SIC	169	RC	2	1	23VO	1	0	1.05048513412	-233.0	34.0	-227	31	1
1.7	2015_Jul_20_1612	s	s	13	1	SIC	170	ABS	1	2	24MD	0	1	1.30262899399	None	None	None	None	1
1.7	2015_Jul_20_1612	s	s	13	1	SIC	171	RC	0	1	23RO	1	0	3.25171208382	13.0	322.0	18	322	1
1.7	2015_Jul_20_1612	s	s	13	1	SIC	172	ABS	2	2	24VD	0	1	1.76015901566	None	None	None	None	1
1.7	2015_Jul_20_1612	s	s	13	1	SIC	173	ABS	2	1	24VO	0	1	1.31470990181	None	None	None	None	1
1.7	2015_Jul_20_1612	s	s	13	1	SIC	174	ABS	2	0	24VC	0	1	0.830160856247	None	None	None	None	1
1.7	2015_Jul_20_1612	s	s	13	1	SIC	175	RC	2	2	23VD	1	0	0.752637863159	117.0	-249.0	120	-248	1
1.7	2015_Jul_20_1612	s	s	13	1	SIC	176	RC	1	1	23MO	1	0	1.77403903008	43.0	397.0	43	404	1
1.7	2015_Jul_20_1612	s	s	13	1	SIC	177	ABS	2	1	24VO	0	1	0.890325069427	None	None	None	None	1
1.7	2015_Jul_20_1612	s	s	13	1	SIC	178	RC	0	1	23RO	1	0	4.02207899094	442.0	-45.0	435	-43	1
1.7	2015_Jul_20_1612	s	s	13	1	SIC	179	ABS	1	2	24MD	0	1	2.20409703255	None	None	None	None	1
1.7	2015_Jul_20_1612	s	s	13	1	SIC	180	ABS	0	1	24RO	0	1	7.08534312248	None	None	None	None	1
1.7	2015_Jul_20_1612	s	s	13	1	SIC	181	RC	1	1	23MO	1	0	3.16173386574	93.0	-292.0	90	-288	1
1.7	2015_Jul_20_1612	s	s	13	1	SIC	182	RC	1	0	23MC	1	0	3.31348705292	429.0	270.0	433	269	1
1.7	2015_Jul_20_1612	s	s	13	1	SIC	183	ABS	1	0	24MC	1	0	8.40104699135	None	None	532	-317	0
1.7	2015_Jul_20_1612	s	s	13	1	SIC	184	RC	0	2	23RD	1	0	0.829430103302	-13.0	-399.0	-18	-402	1
1.7	2015_Jul_20_1612	s	s	13	1	SIC	185	ABS	1	1	24MO	0	1	8.43420815468	None	None	None	None	1
1.7	2015_Jul_20_1612	s	s	13	1	SIC	186	ABS	0	2	24RD	0	1	4.30216097832	None	None	None	None	1
1.7	2015_Jul_20_1612	s	s	13	1	SIC	187	RC	2	1	23VO	1	0	0.75953912735	-148.0	-266.0	-143	-266	1
1.7	2015_Jul_20_1612	s	s	13	1	SIC	188	RC	2	0	23VC	1	0	0.654971837997	388.0	121.0	391	121	1
1.7	2015_Jul_20_1612	s	s	13	1	SIC	189	RC	2	2	23VD	1	0	1.00831913948	139.0	282.0	130	286	1
1.7	2015_Jul_20_1612	s	s	13	1	SIC	190	ABS	2	2	24VD	0	1	0.608680009842	None	None	None	None	1
1.7	2015_Jul_20_1612	s	s	13	1	SIC	191	RC	1	2	23MD	1	0	0.799550056458	-336.0	-55.0	-336	-53	1
1.7	2015_Jul_20_1612	s	s	13	1	SIC	192	ABS	2	0	24VC	0	1	0.597149133682	None	None	None	None	1
1.7	2015_Jul_20_1612	s	s	13	1	SIC	193	ABS	0	1	24RO	0	1	5.33159184456	None	None	None	None	1
1.7	2015_Jul_20_1612	s	s	13	1	SIC	194	RC	2	0	23VC	1	0	0.638612031937	523.0	-76.0	521	-73	1
1.7	2015_Jul_20_1612	s	s	13	1	SIC	195	RC	1	2	23MD	1	0	1.03036093712	53.0	350.0	56	347	1
1.7	2015_Jul_20_1612	s	s	13	1	SIC	196	RC	1	1	23MO	1	0	0.995977163315	-194.0	20.0	-190	12	1
1.7	2015_Jul_20_1612	s	s	13	1	SIC	197	ABS	1	2	24MD	0	1	0.914216995239	None	None	None	None	1
1.7	2015_Jul_20_1612	s	s	13	1	SIC	198	ABS	2	1	24VO	0	1	0.834957122803	None	None	None	None	1
1.7	2015_Jul_20_1612	s	s	13	1	SIC	199	ABS	1	0	24MC	0	1	13.6248350143	None	None	None	None	1
1.7	2015_Jul_20_1612	s	s	13	1	SIC	200	RC	0	1	23RO	1	0	1.26834177971	-480.0	55.0	-481	53	1
1.7	2015_Jul_20_1612	s	s	13	1	SIC	201	RC	2	1	23VO	1	0	1.57413482666	243.0	43.0	240	44	1
1.7	2015_Jul_20_1612	s	s	13	1	SIC	202	ABS	0	2	24RD	0	1	1.83213210106	None	None	None	None	1
1.7	2015_Jul_20_1612	s	s	13	1	SIC	203	RC	0	2	23RD	1	0	0.95814204216	433.0	-41.0	429	-33	1
1.7	2015_Jul_20_1612	s	s	13	1	SIC	204	RC	2	2	23VD	1	0	0.59969496727	426.0	-386.0	416	-387	1
1.7	2015_Jul_20_1612	s	s	13	1	SIC	205	ABS	2	0	24VC	0	1	0.594569921494	None	None	None	None	1
1.7	2015_Jul_20_1612	s	s	13	1	SIC	206	RC	1	0	23MC	1	0	4.88425111771	-404.0	61.0	-395	62	1
1.7	2015_Jul_20_1612	s	s	13	1	SIC	207	ABS	1	1	24MO	0	1	3.53962802887	None	None	None	None	1
1.7	2015_Jul_20_1612	s	s	13	1	SIC	208	ABS	2	2	24VD	0	1	0.57047700882	None	None	None	None	1
1.7	2015_Jul_20_1612	s	s	13	1	SIC	209	RC	0	1	23RO	1	0	5.62180995941	-457.0	252.0	-461	258	1
1.7	2015_Jul_20_1612	s	s	13	1	SIC	210	ABS	0	1	24RO	0	1	5.97924995422	None	None	None	None	1
1.7	2015_Jul_20_1612	s	s	13	1	SIC	211	RC	1	0	23MC	1	0	4.56352877617	492.0	-173.0	495	-174	1
1.7	2015_Jul_20_1612	s	s	13	1	SIC	212	ABS	0	2	24RD	0	1	1.81586790085	None	None	None	None	1
1.7	2015_Jul_20_1612	s	s	13	1	SIC	213	ABS	2	2	24VD	0	1	0.63498711586	None	None	None	None	1
1.7	2015_Jul_20_1612	s	s	13	1	SIC	214	RC	2	2	23VD	1	0	0.573463916779	60.0	249.0	68	245	1
1.7	2015_Jul_20_1612	s	s	13	1	SIC	215	RC	2	1	23VO	1	0	0.76217508316	-297.0	-112.0	-302	-108	1
1.7	2015_Jul_20_1612	s	s	13	1	SIC	216	RC	0	2	23RD	1	0	1.01204800606	512.0	-267.0	508	-271	1
1.7	2015_Jul_20_1612	s	s	13	1	SIC	217	ABS	2	1	24VO	0	1	0.726464986801	None	None	None	None	1
1.7	2015_Jul_20_1612	s	s	13	1	SIC	218	RC	2	0	23VC	1	0	0.466289043427	-440.0	-322.0	-443	-325	1
1.7	2015_Jul_20_1612	s	s	13	1	SIC	219	RC	1	1	23MO	1	0	1.88044786453	480.0	298.0	468	303	1
1.7	2015_Jul_20_1612	s	s	13	1	SIC	220	RC	1	2	23MD	1	0	0.971050024033	-127.0	-391.0	-135	-387	1
1.7	2015_Jul_20_1612	s	s	13	1	SIC	221	ABS	1	1	24MO	0	1	3.78498315811	None	None	None	None	1
1.7	2015_Jul_20_1612	s	s	13	1	SIC	222	ABS	2	0	24VC	0	1	0.61982011795	None	None	None	None	1
1.7	2015_Jul_20_1612	s	s	13	1	SIC	223	ABS	1	0	24MC	1	0	8.9638030529	None	None	-473	386	0
1.7	2015_Jul_20_1612	s	s	13	1	SIC	224	ABS	1	2	24MD	0	1	0.938586950302	None	None	None	None	1
1.7	2015_Jul_20_1612	s	s	13	1	SIC	225	RC	1	2	23MD	1	0	0.693732976913	153.0	40.0	149	31	1
1.7	2015_Jul_20_1612	s	s	13	1	SIC	226	ABS	2	0	24VC	0	1	0.593412160873	None	None	None	None	1
1.7	2015_Jul_20_1612	s	s	13	1	SIC	227	RC	2	2	23VD	1	0	1.15964913368	256.0	95.0	252	96	1
1.7	2015_Jul_20_1612	s	s	13	1	SIC	228	ABS	1	1	24MO	0	1	4.23674607277	None	None	None	None	1
1.7	2015_Jul_20_1612	s	s	13	1	SIC	229	RC	1	0	23MC	1	0	3.72255301476	-73.0	-49.0	-69	-56	1
1.7	2015_Jul_20_1612	s	s	13	1	SIC	230	RC	2	1	23VO	1	0	0.658450126648	27.0	174.0	32	178	1
1.7	2015_Jul_20_1612	s	s	13	1	SIC	231	ABS	2	2	24VD	0	1	0.70290184021	None	None	None	None	1
1.7	2015_Jul_20_1612	s	s	13	1	SIC	232	ABS	2	1	24VO	0	1	0.540853977203	None	None	None	None	1
1.7	2015_Jul_20_1612	s	s	13	1	SIC	233	RC	2	0	23VC	1	0	0.552646875381	104.0	-290.0	105	-285	1
1.7	2015_Jul_20_1612	s	s	13	1	SIC	234	ABS	0	1	24RO	0	1	4.6331949234	None	None	None	None	1
1.7	2015_Jul_20_1612	s	s	13	1	SIC	235	ABS	1	0	24MC	1	0	0.517052173615	None	None	0	73	0
1.7	2015_Jul_20_1612	s	s	13	1	SIC	236	ABS	1	2	24MD	0	1	1.03226900101	None	None	None	None	1
1.7	2015_Jul_20_1612	s	s	13	1	SIC	237	RC	1	1	23MO	1	0	1.15051198006	368.0	-379.0	371	-382	1
1.7	2015_Jul_20_1612	s	s	13	1	SIC	238	ABS	0	2	24RD	0	1	1.95334100723	None	None	None	None	1
1.7	2015_Jul_20_1612	s	s	13	1	SIC	239	RC	0	1	23RO	1	0	3.29876494408	474.0	-171.0	474	-171	1
1.7	2015_Jul_20_1612	s	s	13	1	SIC	240	RC	0	2	23RD	1	0	1.02970290184	-395.0	281.0	-393	277	1
1.7	2015_Jul_20_1612	s	s	13	1	SIC	241	ABS	1	1	24MO	0	1	3.37265992165	None	None	None	None	1
1.7	2015_Jul_20_1612	s	s	13	1	SIC	242	RC	0	2	23RD	1	0	1.05302500725	-13.0	-318.0	-20	-311	1
1.7	2015_Jul_20_1612	s	s	13	1	SIC	243	RC	1	0	23MC	1	0	4.52746987343	-109.0	334.0	-255	227	0
1.7	2015_Jul_20_1612	s	s	13	1	SIC	244	RC	2	2	23VD	1	0	0.729129076004	-498.0	-303.0	-502	-305	1
1.7	2015_Jul_20_1612	s	s	13	1	SIC	245	ABS	1	0	24MC	1	0	2.67758703232	None	None	-475	219	0
1.7	2015_Jul_20_1612	s	s	13	1	SIC	246	ABS	0	2	24RD	0	1	0.903236865997	None	None	None	None	1
1.7	2015_Jul_20_1612	s	s	13	1	SIC	247	RC	2	1	23VO	1	0	0.481999158859	-170.0	-115.0	-183	-112	1
1.7	2015_Jul_20_1612	s	s	13	1	SIC	248	RC	1	1	23MO	1	0	2.0646212101	-165.0	-132.0	-165	-132	1
1.7	2015_Jul_20_1612	s	s	13	1	SIC	249	ABS	2	2	24VD	0	1	0.66469502449	None	None	None	None	1
1.7	2015_Jul_20_1612	s	s	13	1	SIC	250	ABS	2	0	24VC	0	1	0.550023078918	None	None	None	None	1
1.7	2015_Jul_20_1612	s	s	13	1	SIC	251	RC	2	0	23VC	1	0	0.799809932709	-126.0	-84.0	-125	-82	1
1.7	2015_Jul_20_1612	s	s	13	1	SIC	252	ABS	1	2	24MD	0	1	0.773519992828	None	None	None	None	1
1.7	2015_Jul_20_1612	s	s	13	1	SIC	253	ABS	0	1	24RO	0	1	6.66515493393	None	None	None	None	1
1.7	2015_Jul_20_1612	s	s	13	1	SIC	254	RC	1	2	23MD	1	0	0.6306848526	91.0	-102.0	93	-103	1
1.7	2015_Jul_20_1612	s	s	13	1	SIC	255	ABS	2	1	24VO	0	1	0.594506978989	None	None	None	None	1
1.7	2015_Jul_20_1612	s	s	13	1	SIC	256	RC	0	1	23RO	1	0	2.48315215111	517.0	-230.0	522	-225	1
1.7	2015_Jul_20_1612	s	s	13	1	SIC	257	RC	1	0	23MC	1	0	4.77075791359	-20.0	375.0	-163	20	0
1.7	2015_Jul_20_1612	s	s	13	1	SIC	258	ABS	2	1	24VO	0	1	0.631506919861	None	None	None	None	1
1.7	2015_Jul_20_1612	s	s	13	1	SIC	259	ABS	0	2	24RD	0	1	2.25594496727	None	None	None	None	1
1.7	2015_Jul_20_1612	s	s	13	1	SIC	260	ABS	2	2	24VD	0	1	0.968245029449	None	None	None	None	1
1.7	2015_Jul_20_1612	s	s	13	1	SIC	261	RC	0	2	23RD	1	0	1.04341602325	-400.0	106.0	-395	111	1
1.7	2015_Jul_20_1612	s	s	13	1	SIC	262	ABS	1	0	24MC	1	0	8.01528215408	None	None	-188	-39	0
1.7	2015_Jul_20_1612	s	s	13	1	SIC	263	RC	2	2	23VD	1	0	0.752743959427	-386.0	-55.0	-385	-51	1
1.7	2015_Jul_20_1612	s	s	13	1	SIC	264	RC	1	1	23MO	1	0	2.50656199455	222.0	-128.0	221	-134	1
1.7	2015_Jul_20_1612	s	s	13	1	SIC	265	ABS	1	2	24MD	0	1	0.797080039978	None	None	None	None	1
1.7	2015_Jul_20_1612	s	s	13	1	SIC	266	RC	0	1	23RO	1	0	3.03143405914	-80.0	-80.0	-86	-81	1
1.7	2015_Jul_20_1612	s	s	13	1	SIC	267	ABS	0	1	24RO	0	1	6.78839182854	None	None	None	None	1
1.7	2015_Jul_20_1612	s	s	13	1	SIC	268	RC	2	0	23VC	1	0	0.588207006454	-180.0	302.0	-181	303	1
1.7	2015_Jul_20_1612	s	s	13	1	SIC	269	RC	2	1	23VO	1	0	0.630178928375	-357.0	34.0	-368	40	1
1.7	2015_Jul_20_1612	s	s	13	1	SIC	270	RC	1	2	23MD	1	0	0.996856927872	272.0	299.0	282	304	1
1.7	2015_Jul_20_1612	s	s	13	1	SIC	271	ABS	1	1	24MO	0	1	1.16833686829	None	None	None	None	1
1.7	2015_Jul_20_1612	s	s	13	1	SIC	272	ABS	2	0	24VC	0	1	0.682033061981	None	None	None	None	1
1.7	2015_Jul_20_1612	s	s	13	1	SIC	273	ABS	1	0	24MC	0	1	5.86119103432	None	None	None	None	1
1.7	2015_Jul_20_1612	s	s	13	1	SIC	274	ABS	0	2	24RD	0	1	0.75004696846	None	None	None	None	1
1.7	2015_Jul_20_1612	s	s	13	1	SIC	275	RC	1	2	23MD	1	0	1.08210897446	-437.0	404.0	-441	402	1
1.7	2015_Jul_20_1612	s	s	13	1	SIC	276	RC	2	1	23VO	1	0	0.905680894852	344.0	-377.0	348	-379	1
1.7	2015_Jul_20_1612	s	s	13	1	SIC	277	RC	2	2	23VD	1	0	1.03218817711	334.0	-324.0	334	-329	1
1.7	2015_Jul_20_1612	s	s	13	1	SIC	278	RC	0	2	23RD	1	0	0.823376178741	468.0	-8.0	470	-17	1
1.7	2015_Jul_20_1612	s	s	13	1	SIC	279	RC	2	0	23VC	1	0	0.606706857681	-238.0	-68.0	-250	-64	1
1.7	2015_Jul_20_1612	s	s	13	1	SIC	280	ABS	2	2	24VD	0	1	0.659007072449	None	None	None	None	1
1.7	2015_Jul_20_1612	s	s	13	1	SIC	281	ABS	1	2	24MD	0	1	1.02345895767	None	None	None	None	1
1.7	2015_Jul_20_1612	s	s	13	1	SIC	282	ABS	1	1	24MO	0	1	2.91834115982	None	None	None	None	1
1.7	2015_Jul_20_1612	s	s	13	1	SIC	283	RC	1	1	23MO	1	0	1.72678589821	-407.0	-276.0	-411	-277	1
1.7	2015_Jul_20_1612	s	s	13	1	SIC	284	ABS	2	0	24VC	0	1	0.830752134323	None	None	None	None	1
1.7	2015_Jul_20_1612	s	s	13	1	SIC	285	ABS	0	1	24RO	0	1	9.09816908836	None	None	None	None	1
1.7	2015_Jul_20_1612	s	s	13	1	SIC	286	RC	0	1	23RO	1	0	5.88835692406	-464.0	92.0	-475	92	1
1.7	2015_Jul_20_1612	s	s	13	1	SIC	287	RC	1	0	23MC	1	0	4.76638197899	335.0	205.0	335	203	1
1.7	2015_Jul_20_1612	s	s	13	1	SIC	288	ABS	2	1	24VO	0	1	0.665292024612	None	None	None	None	1
1.7	2015_Jul_20_1612	s	s	13	1	SIC	289	RC	1	1	23MO	1	0	2.16243195534	491.0	139.0	491	137	1
1.7	2015_Jul_20_1612	s	s	13	1	SIC	290	ABS	1	2	24MD	0	1	0.773717880249	None	None	None	None	1
1.7	2015_Jul_20_1612	s	s	13	1	SIC	291	ABS	2	0	24VC	0	1	0.582365989685	None	None	None	None	1
1.7	2015_Jul_20_1612	s	s	13	1	SIC	292	RC	2	1	23VO	1	0	0.608556985855	-42.0	144.0	-43	145	1
1.7	2015_Jul_20_1612	s	s	13	1	SIC	293	ABS	1	0	24MC	0	1	9.51007413864	None	None	None	None	1
1.7	2015_Jul_20_1612	s	s	13	1	SIC	294	RC	1	2	23MD	1	0	2.82443714142	110.0	-309.0	111	-309	1
1.7	2015_Jul_20_1612	s	s	13	1	SIC	295	RC	0	1	23RO	1	0	6.17656898499	-378.0	305.0	-383	301	1
1.7	2015_Jul_20_1612	s	s	13	1	SIC	296	RC	2	0	23VC	1	0	0.855811834335	209.0	287.0	219	291	1
1.7	2015_Jul_20_1612	s	s	13	1	SIC	297	ABS	2	2	24VD	0	1	1.09406208992	None	None	None	None	1
1.7	2015_Jul_20_1612	s	s	13	1	SIC	298	ABS	0	2	24RD	0	1	0.776154994965	None	None	None	None	1
1.7	2015_Jul_20_1612	s	s	13	1	SIC	299	RC	0	2	23RD	1	0	1.71793293953	322.0	289.0	320	288	1
1.7	2015_Jul_20_1612	s	s	13	1	SIC	300	RC	1	0	23MC	1	0	5.83317995071	395.0	143.0	398	141	1
1.7	2015_Jul_20_1612	s	s	13	1	SIC	301	RC	2	2	23VD	1	0	0.559486865997	-107.0	-264.0	-111	-260	1
1.7	2015_Jul_20_1612	s	s	13	1	SIC	302	ABS	1	1	24MO	0	1	3.91370606422	None	None	None	None	1
1.7	2015_Jul_20_1612	s	s	13	1	SIC	303	ABS	2	1	24VO	0	1	0.65398311615	None	None	None	None	1
1.7	2015_Jul_20_1612	s	s	13	1	SIC	304	ABS	0	1	24RO	0	1	7.55242991447	None	None	None	None	1
1.7	2015_Jul_20_1612	s	s	13	1	SIC	305	ABS	1	2	24MD	0	1	1.31429386139	None	None	None	None	1
1.7	2015_Jul_20_1612	s	s	13	1	SIC	306	RC	1	0	23MC	1	0	5.66103196144	-259.0	-163.0	-261	-164	1
1.7	2015_Jul_20_1612	s	s	13	1	SIC	307	RC	2	2	23VD	1	0	0.582062005997	312.0	9.0	305	5	1
1.7	2015_Jul_20_1612	s	s	13	1	SIC	308	ABS	0	1	24RO	0	1	6.37905406952	None	None	None	None	1
1.7	2015_Jul_20_1612	s	s	13	1	SIC	309	ABS	0	2	24RD	0	1	2.42412304878	None	None	None	None	1
1.7	2015_Jul_20_1612	s	s	13	1	SIC	310	RC	1	2	23MD	1	0	1.43202996254	-309.0	-308.0	-317	-310	1
1.7	2015_Jul_20_1612	s	s	13	1	SIC	311	ABS	1	1	24MO	0	1	5.93554091454	None	None	None	None	1
1.7	2015_Jul_20_1612	s	s	13	1	SIC	312	ABS	2	2	24VD	0	1	0.585207939148	None	None	None	None	1
1.7	2015_Jul_20_1612	s	s	13	1	SIC	313	RC	2	1	23VO	1	0	0.97637295723	-127.0	-181.0	-130	-175	1
1.7	2015_Jul_20_1612	s	s	13	1	SIC	314	ABS	2	0	24VC	0	1	0.585484027863	None	None	None	None	1
1.7	2015_Jul_20_1612	s	s	13	1	SIC	315	ABS	2	1	24VO	0	1	0.617712020874	None	None	None	None	1
1.7	2015_Jul_20_1612	s	s	13	1	SIC	316	RC	2	0	23VC	1	0	0.823371887207	-334.0	84.0	-330	79	1
1.7	2015_Jul_20_1612	s	s	13	1	SIC	317	RC	1	1	23MO	1	0	2.25348114967	-454.0	205.0	-455	209	1
1.7	2015_Jul_20_1612	s	s	13	1	SIC	318	RC	0	2	23RD	1	0	0.929248094559	109.0	-294.0	117	-291	1
1.7	2015_Jul_20_1612	s	s	13	1	SIC	319	RC	0	1	23RO	1	0	1.49406409264	41.0	18.0	43	22	1
1.7	2015_Jul_20_1612	s	s	13	1	SIC	320	ABS	1	0	24MC	1	0	5.64923810959	None	None	83	99	0
1.7	2015_Jul_20_1612	s	s	13	1	SIC	321	ABS	1	2	24MD	0	1	0.772080898285	None	None	None	None	1
1.7	2015_Jul_20_1612	s	s	13	1	SIC	322	RC	2	2	23VD	1	0	1.59448981285	517.0	411.0	513	412	1
1.7	2015_Jul_20_1612	s	s	13	1	SIC	323	ABS	0	2	24RD	0	1	2.20037698746	None	None	None	None	1
1.7	2015_Jul_20_1612	s	s	13	1	SIC	324	ABS	2	1	24VO	0	1	0.56084895134	None	None	None	None	1
1.7	2015_Jul_20_1612	s	s	13	1	SIC	325	ABS	2	2	24VD	0	1	0.705545902252	None	None	None	None	1
1.7	2015_Jul_20_1612	s	s	13	1	SIC	326	ABS	1	1	24MO	0	1	3.57232499123	None	None	None	None	1
1.7	2015_Jul_20_1612	s	s	13	1	SIC	327	ABS	1	0	24MC	0	1	12.1175808907	None	None	None	None	1
1.7	2015_Jul_20_1612	s	s	13	1	SIC	328	RC	1	2	23MD	1	0	1.30353212357	29.0	-110.0	34	-109	1
1.7	2015_Jul_20_1612	s	s	13	1	SIC	329	ABS	0	1	24RO	0	1	6.72029399872	None	None	None	None	1
1.7	2015_Jul_20_1612	s	s	13	1	SIC	330	RC	2	1	23VO	1	0	0.882217884064	409.0	231.0	417	229	1
1.7	2015_Jul_20_1612	s	s	13	1	SIC	331	RC	0	1	23RO	1	0	3.87190008163	-444.0	129.0	-446	131	1
1.7	2015_Jul_20_1612	s	s	13	1	SIC	332	RC	2	0	23VC	1	0	0.823313951492	-383.0	185.0	-381	184	1
1.7	2015_Jul_20_1612	s	s	13	1	SIC	333	ABS	2	0	24VC	0	1	0.658493041992	None	None	None	None	1
1.7	2015_Jul_20_1612	s	s	13	1	SIC	334	RC	1	0	23MC	1	0	4.64871692657	373.0	215.0	372	220	1
1.7	2015_Jul_20_1612	s	s	13	1	SIC	335	RC	0	2	23RD	1	0	0.999884843826	-534.0	340.0	-537	345	1
1.7	2015_Jul_20_1612	s	s	13	1	SIC	336	RC	1	1	23MO	1	0	2.84520792961	-265.0	225.0	-268	232	1
1.7	2015_Jul_20_1612	s	s	13	1	SIC	337	RC	2	0	23VC	1	0	0.658519029617	-277.0	279.0	-280	282	1
1.7	2015_Jul_20_1612	s	s	13	1	SIC	338	ABS	0	1	24RO	0	1	6.29670095444	None	None	None	None	1
1.7	2015_Jul_20_1612	s	s	13	1	SIC	339	RC	1	1	23MO	1	0	1.1858921051	242.0	313.0	246	306	1
1.7	2015_Jul_20_1612	s	s	13	1	SIC	340	ABS	1	0	24MC	0	1	3.52886390686	None	None	None	None	1
1.7	2015_Jul_20_1612	s	s	13	1	SIC	341	RC	1	0	23MC	1	0	3.22198605537	403.0	40.0	401	39	1
1.7	2015_Jul_20_1612	s	s	13	1	SIC	342	RC	1	2	23MD	1	0	1.82084798813	-50.0	228.0	-48	232	1
1.7	2015_Jul_20_1612	s	s	13	1	SIC	343	ABS	2	1	24VO	0	1	0.682033061981	None	None	None	None	1
1.7	2015_Jul_20_1612	s	s	13	1	SIC	344	ABS	2	2	24VD	0	1	0.587781906128	None	None	None	None	1
1.7	2015_Jul_20_1612	s	s	13	1	SIC	345	ABS	1	2	24MD	0	1	1.10240602493	None	None	None	None	1
1.7	2015_Jul_20_1612	s	s	13	1	SIC	346	ABS	0	2	24RD	0	1	1.62373304367	None	None	None	None	1
1.7	2015_Jul_20_1612	s	s	13	1	SIC	347	RC	0	2	23RD	1	0	1.73811912537	406.0	267.0	398	264	1
1.7	2015_Jul_20_1612	s	s	13	1	SIC	348	RC	2	2	23VD	1	0	0.632369995117	-474.0	258.0	-476	252	1
1.7	2015_Jul_20_1612	s	s	13	1	SIC	349	RC	0	1	23RO	1	0	1.49999403954	100.0	329.0	93	329	1
1.7	2015_Jul_20_1612	s	s	13	1	SIC	350	ABS	1	1	24MO	0	1	1.47071313858	None	None	None	None	1
1.7	2015_Jul_20_1612	s	s	13	1	SIC	351	ABS	2	0	24VC	0	1	0.670271158218	None	None	None	None	1
1.7	2015_Jul_20_1612	s	s	13	1	SIC	352	RC	2	1	23VO	1	0	0.806532859802	150.0	269.0	151	259	1
1.7	2015_Jul_20_1612	s	s	13	1	SIC	353	RC	1	0	23MC	1	0	4.38410997391	64.0	94.0	60	96	1
1.7	2015_Jul_20_1612	s	s	13	1	SIC	354	ABS	2	1	24VO	0	1	0.682036876678	None	None	None	None	1
1.7	2015_Jul_20_1612	s	s	13	1	SIC	355	ABS	2	0	24VC	0	1	0.641901016235	None	None	None	None	1
1.7	2015_Jul_20_1612	s	s	13	1	SIC	356	RC	2	0	23VC	1	0	0.641832113266	-1.0	-64.0	-6	-64	1
1.7	2015_Jul_20_1612	s	s	13	1	SIC	357	RC	0	1	23RO	1	0	1.44713902473	157.0	109.0	149	112	1
1.7	2015_Jul_20_1612	s	s	13	1	SIC	358	RC	1	2	23MD	1	0	0.853749990463	424.0	-330.0	432	-334	1
1.7	2015_Jul_20_1612	s	s	13	1	SIC	359	ABS	0	1	24RO	0	1	4.72802495956	None	None	None	None	1
1.7	2015_Jul_20_1612	s	s	13	1	SIC	360	ABS	1	2	24MD	0	1	0.823365926743	None	None	None	None	1
1.7	2015_Jul_20_1612	s	s	13	1	SIC	361	ABS	1	0	24MC	0	1	4.94315910339	None	None	None	None	1
1.7	2015_Jul_20_1612	s	s	13	1	SIC	362	RC	2	1	23VO	1	0	0.634926080704	-40.0	-406.0	-39	-411	1
1.7	2015_Jul_20_1612	s	s	13	1	SIC	363	RC	1	1	23MO	1	0	2.16193389893	-423.0	105.0	-422	105	1
1.7	2015_Jul_20_1612	s	s	13	1	SIC	364	RC	0	2	23RD	1	0	0.58785700798	-116.0	-154.0	-112	-150	1
1.7	2015_Jul_20_1612	s	s	13	1	SIC	365	ABS	1	1	24MO	0	1	2.57238698006	None	None	None	None	1
1.7	2015_Jul_20_1612	s	s	13	1	SIC	366	RC	2	2	23VD	1	0	0.617305994034	-370.0	-264.0	-364	-264	1
1.7	2015_Jul_20_1612	s	s	13	1	SIC	367	ABS	0	2	24RD	0	1	0.611453056335	None	None	None	None	1
1.7	2015_Jul_20_1612	s	s	13	1	SIC	368	ABS	2	2	24VD	0	1	0.541020154953	None	None	None	None	1
1.7	2015_Jul_20_1612	s	s	13	1	SIC	369	ABS	2	1	24VO	0	1	0.490567922592	None	None	None	None	1
1.7	2015_Jul_20_1612	s	s	13	1	SIC	370	ABS	2	0	24VC	0	1	0.561976909637	None	None	None	None	1
1.7	2015_Jul_20_1612	s	s	13	1	SIC	371	RC	2	2	23VD	1	0	0.571783065796	-434.0	-222.0	-433	-225	1
1.7	2015_Jul_20_1612	s	s	13	1	SIC	372	RC	2	0	23VC	1	0	0.897583007812	513.0	-230.0	512	-223	1
1.7	2015_Jul_20_1612	s	s	13	1	SIC	373	RC	1	2	23MD	1	0	0.725746154785	-54.0	214.0	-52	215	1
1.7	2015_Jul_20_1612	s	s	13	1	SIC	374	RC	1	1	23MO	1	0	1.80667710304	261.0	104.0	265	102	1
1.7	2015_Jul_20_1612	s	s	13	1	SIC	375	RC	0	1	23RO	1	0	2.53629183769	-535.0	390.0	-533	390	1
1.7	2015_Jul_20_1612	s	s	13	1	SIC	376	ABS	1	1	24MO	0	1	2.20047903061	None	None	None	None	1
1.7	2015_Jul_20_1612	s	s	13	1	SIC	377	RC	1	0	23MC	1	0	5.63285493851	286.0	157.0	93	28	0
1.7	2015_Jul_20_1612	s	s	13	1	SIC	378	ABS	0	1	24RO	0	1	6.65839099884	None	None	None	None	1
1.7	2015_Jul_20_1612	s	s	13	1	SIC	379	ABS	2	2	24VD	0	1	0.582890987396	None	None	None	None	1
1.7	2015_Jul_20_1612	s	s	13	1	SIC	380	RC	2	1	23VO	1	0	0.843021869659	-101.0	108.0	-102	101	1
1.7	2015_Jul_20_1612	s	s	13	1	SIC	381	ABS	1	2	24MD	0	1	1.92969107628	None	None	None	None	1
1.7	2015_Jul_20_1612	s	s	13	1	SIC	382	ABS	1	0	24MC	0	1	15.1011919975	None	None	None	None	1
1.7	2015_Jul_20_1612	s	s	13	1	SIC	383	ABS	0	2	24RD	0	1	1.27441716194	None	None	None	None	1
1.7	2015_Jul_20_1612	s	s	13	1	SIC	384	RC	0	2	23RD	1	0	2.41225194931	-373.0	73.0	-367	71	1
1.7	2015_Jul_20_1612	s	s	13	1	SIC	385	RC	2	1	23VO	1	0	0.787961959839	315.0	363.0	313	359	1
1.7	2015_Jul_20_1612	s	s	13	1	SIC	386	RC	1	0	23MC	0	1	3.20742797852	104.0	286.0	None	None	0
1.7	2015_Jul_20_1612	s	s	13	1	SIC	387	ABS	1	2	24MD	0	1	0.785265922546	None	None	None	None	1
1.7	2015_Jul_20_1612	s	s	13	1	SIC	388	RC	0	2	23RD	1	0	0.941002130508	-364.0	92.0	-363	84	1
1.7	2015_Jul_20_1612	s	s	13	1	SIC	389	RC	2	0	23VC	1	0	0.913838148117	62.0	168.0	65	164	1
1.7	2015_Jul_20_1612	s	s	13	1	SIC	390	ABS	2	0	24VC	0	1	0.81956410408	None	None	None	None	1
1.7	2015_Jul_20_1612	s	s	13	1	SIC	391	RC	0	1	23RO	1	0	3.04462718964	-509.0	24.0	-501	23	1
1.7	2015_Jul_20_1612	s	s	13	1	SIC	392	ABS	1	1	24MO	0	1	1.6431210041	None	None	None	None	1
1.7	2015_Jul_20_1612	s	s	13	1	SIC	393	RC	1	2	23MD	1	0	0.693786144257	-329.0	126.0	-332	118	1
1.7	2015_Jul_20_1612	s	s	13	1	SIC	394	RC	1	1	23MO	1	0	1.11504483223	-141.0	29.0	-141	20	1
1.7	2015_Jul_20_1612	s	s	13	1	SIC	395	ABS	2	1	24VO	0	1	2.20813798904	None	None	None	None	1
1.7	2015_Jul_20_1612	s	s	13	1	SIC	396	ABS	0	1	24RO	0	1	10.0139069557	None	None	None	None	1
1.7	2015_Jul_20_1612	s	s	13	1	SIC	397	ABS	2	2	24VD	0	1	0.611393928528	None	None	None	None	1
1.7	2015_Jul_20_1612	s	s	13	1	SIC	398	ABS	1	0	24MC	0	1	4.61343789101	None	None	None	None	1
1.7	2015_Jul_20_1612	s	s	13	1	SIC	399	RC	2	2	23VD	1	0	0.726444005966	-207.0	154.0	-199	154	1
1.7	2015_Jul_20_1612	s	s	13	1	SIC	400	ABS	0	2	24RD	0	1	1.73615312576	None	None	None	None	1
1.7	2015_Jul_20_1612	s	s	13	1	SIC	401	ABS	1	1	24MO	0	1	2.2682299614	None	None	None	None	1
1.7	2015_Jul_20_1612	s	s	13	1	SIC	402	ABS	2	1	24VO	0	1	0.594051837921	None	None	None	None	1
1.7	2015_Jul_20_1612	s	s	13	1	SIC	403	RC	0	1	23RO	1	0	5.63207983971	367.0	-116.0	372	-118	1
1.7	2015_Jul_20_1612	s	s	13	1	SIC	404	ABS	1	0	24MC	0	1	11.270031929	None	None	None	None	1
1.7	2015_Jul_20_1612	s	s	13	1	SIC	405	RC	1	0	23MC	1	0	2.00965094566	479.0	-150.0	482	-152	1
1.7	2015_Jul_20_1612	s	s	13	1	SIC	406	RC	2	2	23VD	1	0	0.663920879364	10.0	-90.0	10	-98	1
1.7	2015_Jul_20_1612	s	s	13	1	SIC	407	RC	2	0	23VC	1	0	0.576056003571	-241.0	-159.0	-236	-159	1
1.7	2015_Jul_20_1612	s	s	13	1	SIC	408	RC	1	2	23MD	1	0	2.32687306404	496.0	335.0	492	331	1
1.7	2015_Jul_20_1612	s	s	13	1	SIC	409	ABS	2	2	24VD	1	0	0.470262050629	None	None	-61	-33	0
1.7	2015_Jul_20_1612	s	s	13	1	SIC	410	RC	1	1	23MO	1	0	4.08119606972	-26.0	156.0	-27	153	1
1.7	2015_Jul_20_1612	s	s	13	1	SIC	411	ABS	1	2	24MD	0	1	1.75922679901	None	None	None	None	1
1.7	2015_Jul_20_1612	s	s	13	1	SIC	412	RC	0	2	23RD	1	0	0.968211889267	-6.0	309.0	-12	311	1
1.7	2015_Jul_20_1612	s	s	13	1	SIC	413	ABS	2	0	24VC	0	1	0.635056018829	None	None	None	None	1
1.7	2015_Jul_20_1612	s	s	13	1	SIC	414	ABS	0	1	24RO	0	1	6.38841199875	None	None	None	None	1
1.7	2015_Jul_20_1612	s	s	13	1	SIC	415	RC	2	1	23VO	1	0	0.678963899612	-310.0	-251.0	-306	-251	1
1.7	2015_Jul_20_1612	s	s	13	1	SIC	416	ABS	0	2	24RD	0	1	1.10591602325	None	None	None	None	1
1.7	2015_Jul_20_1612	s	s	13	1	SIC	417	ABS	1	0	24MC	0	1	2.29458403587	None	None	None	None	1
1.7	2015_Jul_20_1612	s	s	13	1	SIC	418	RC	2	1	23VO	1	0	0.688904047012	-298.0	-238.0	-294	-235	1
1.7	2015_Jul_20_1612	s	s	13	1	SIC	419	ABS	2	1	24VO	0	1	0.505509138107	None	None	None	None	1
1.7	2015_Jul_20_1612	s	s	13	1	SIC	420	RC	2	0	23VC	1	0	0.63501906395	-473.0	-407.0	-471	-406	1
1.7	2015_Jul_20_1612	s	s	13	1	SIC	421	RC	1	1	23MO	1	0	1.97135090828	116.0	151.0	115	154	1
1.7	2015_Jul_20_1612	s	s	13	1	SIC	422	ABS	0	1	24RO	0	1	7.40301084518	None	None	None	None	1
1.7	2015_Jul_20_1612	s	s	13	1	SIC	423	RC	0	2	23RD	1	0	0.879800081253	-286.0	350.0	-279	349	1
1.7	2015_Jul_20_1612	s	s	13	1	SIC	424	ABS	0	2	24RD	0	1	0.961902141571	None	None	None	None	1
1.7	2015_Jul_20_1612	s	s	13	1	SIC	425	ABS	2	0	24VC	0	1	0.721556901932	None	None	None	None	1
1.7	2015_Jul_20_1612	s	s	13	1	SIC	426	ABS	1	2	24MD	0	1	1.23528218269	None	None	None	None	1
1.7	2015_Jul_20_1612	s	s	13	1	SIC	427	ABS	2	2	24VD	0	1	0.52685713768	None	None	None	None	1
1.7	2015_Jul_20_1612	s	s	13	1	SIC	428	ABS	1	1	24MO	0	1	1.68951702118	None	None	None	None	1
1.7	2015_Jul_20_1612	s	s	13	1	SIC	429	RC	1	2	23MD	1	0	0.712210893631	429.0	-67.0	430	-71	1
1.7	2015_Jul_20_1612	s	s	13	1	SIC	430	RC	1	0	23MC	1	0	3.49034810066	418.0	5.0	418	1	1
1.7	2015_Jul_20_1612	s	s	13	1	SIC	431	RC	2	2	23VD	1	0	0.678975105286	387.0	209.0	389	205	1
1.7	2015_Jul_20_1612	s	s	13	1	SIC	432	RC	0	1	23RO	1	0	1.84240317345	-418.0	333.0	-414	326	1
1.7	2015_Jul_20_1612	s	s	13	1	SIC	433	RC	2	1	23VO	1	0	0.617758989334	496.0	143.0	491	134	1
1.7	2015_Jul_20_1612	s	s	13	1	SIC	434	RC	2	0	23VC	1	0	0.544489860535	533.0	-345.0	534	-347	1
1.7	2015_Jul_20_1612	s	s	13	1	SIC	435	ABS	1	2	24MD	0	1	0.676912069321	None	None	None	None	1
1.7	2015_Jul_20_1612	s	s	13	1	SIC	436	ABS	0	1	24RO	0	1	9.73070192337	None	None	None	None	1
1.7	2015_Jul_20_1612	s	s	13	1	SIC	437	RC	0	1	23RO	1	0	1.75315999985	496.0	-77.0	494	-78	1
1.7	2015_Jul_20_1612	s	s	13	1	SIC	438	ABS	2	2	24VD	0	1	0.634941101074	None	None	None	None	1
1.7	2015_Jul_20_1612	s	s	13	1	SIC	439	ABS	1	0	24MC	0	1	2.48909187317	None	None	None	None	1
1.7	2015_Jul_20_1612	s	s	13	1	SIC	440	ABS	2	0	24VC	0	1	0.689604997635	None	None	None	None	1
1.7	2015_Jul_20_1612	s	s	13	1	SIC	441	RC	0	2	23RD	1	0	0.737944126129	198.0	219.0	190	216	1
1.7	2015_Jul_20_1612	s	s	13	1	SIC	442	ABS	2	1	24VO	0	1	1.06803703308	None	None	None	None	1
1.7	2015_Jul_20_1612	s	s	13	1	SIC	443	RC	2	2	23VD	1	0	0.587984085083	-80.0	57.0	-76	56	1
1.7	2015_Jul_20_1612	s	s	13	1	SIC	444	RC	1	1	23MO	1	0	1.52949404716	442.0	183.0	435	182	1
1.7	2015_Jul_20_1612	s	s	13	1	SIC	445	RC	1	2	23MD	1	0	1.19996404648	-199.0	147.0	-198	150	1
1.7	2015_Jul_20_1612	s	s	13	1	SIC	446	RC	1	0	23MC	0	1	5.46769785881	485.0	259.0	None	None	0
1.7	2015_Jul_20_1612	s	s	13	1	SIC	447	ABS	0	2	24RD	0	1	0.984409809113	None	None	None	None	1
1.7	2015_Jul_20_1612	s	s	13	1	SIC	448	ABS	1	1	24MO	0	1	1.35991001129	None	None	None	None	1
1.7	2015_Jul_20_1612	s	s	13	1	SIC	449	RC	2	0	23VC	1	0	0.682056903839	-196.0	-357.0	-204	-354	1
1.7	2015_Jul_20_1612	s	s	13	1	SIC	450	RC	2	1	23VO	1	0	1.06582689285	263.0	78.0	263	78	1
1.7	2015_Jul_20_1612	s	s	13	1	SIC	451	ABS	1	1	24MO	0	1	1.00792503357	None	None	None	None	1
1.7	2015_Jul_20_1612	s	s	13	1	SIC	452	ABS	2	2	24VD	0	1	0.658486127853	None	None	None	None	1
1.7	2015_Jul_20_1612	s	s	13	1	SIC	453	RC	2	2	23VD	1	0	0.57617688179	-187.0	331.0	-185	338	1
1.7	2015_Jul_20_1612	s	s	13	1	SIC	454	RC	1	1	23MO	1	0	1.40650486946	-478.0	-366.0	-487	-366	1
1.7	2015_Jul_20_1612	s	s	13	1	SIC	455	ABS	2	1	24VO	0	1	0.606164932251	None	None	None	None	1
1.7	2015_Jul_20_1612	s	s	13	1	SIC	456	ABS	1	0	24MC	0	1	1.70159292221	None	None	None	None	1
1.7	2015_Jul_20_1612	s	s	13	1	SIC	457	RC	1	2	23MD	1	0	0.764857769012	535.0	-250.0	529	-258	1
1.7	2015_Jul_20_1612	s	s	13	1	SIC	458	ABS	1	2	24MD	0	1	0.67022895813	None	None	None	None	1
1.7	2015_Jul_20_1612	s	s	13	1	SIC	459	ABS	2	0	24VC	0	1	0.882061004639	None	None	None	None	1
1.7	2015_Jul_20_1612	s	s	13	1	SIC	460	ABS	0	2	24RD	0	1	0.970712184906	None	None	None	None	1
1.7	2015_Jul_20_1612	s	s	13	1	SIC	461	RC	1	0	23MC	1	0	1.78852987289	72.0	-120.0	75	-118	1
1.7	2015_Jul_20_1612	s	s	13	1	SIC	462	RC	0	1	23RO	1	0	1.78416085243	-418.0	-395.0	-423	-389	1
1.7	2015_Jul_20_1612	s	s	13	1	SIC	463	RC	0	2	23RD	1	0	0.747670173645	-258.0	155.0	-253	160	1
1.7	2015_Jul_20_1612	s	s	13	1	SIC	464	ABS	0	1	24RO	0	1	6.33196187019	None	None	None	None	1
1.7	2015_Jul_20_1612	s	s	13	1	SIC	465	ABS	2	0	24VC	0	1	0.618638038635	None	None	None	None	1
1.7	2015_Jul_20_1612	s	s	13	1	SIC	466	ABS	1	2	24MD	0	1	0.819088935852	None	None	None	None	1
1.7	2015_Jul_20_1612	s	s	13	1	SIC	467	ABS	1	0	24MC	0	1	3.17518305779	None	None	None	None	1
1.7	2015_Jul_20_1612	s	s	13	1	SIC	468	ABS	2	2	24VD	0	1	1.07679200172	None	None	None	None	1
1.7	2015_Jul_20_1612	s	s	13	1	SIC	469	RC	2	2	23VD	1	0	0.764467000961	19.0	-350.0	23	-345	1
1.7	2015_Jul_20_1612	s	s	13	1	SIC	470	RC	0	1	23RO	1	0	2.83614397049	-227.0	229.0	-233	227	1
1.7	2015_Jul_20_1612	s	s	13	1	SIC	471	ABS	1	1	24MO	0	1	1.88937997818	None	None	None	None	1
1.7	2015_Jul_20_1612	s	s	13	1	SIC	472	RC	1	0	23MC	1	0	3.31485390663	322.0	-324.0	324	-317	1
1.7	2015_Jul_20_1612	s	s	13	1	SIC	473	ABS	0	1	24RO	0	1	5.76706409454	None	None	None	None	1
1.7	2015_Jul_20_1612	s	s	13	1	SIC	474	RC	0	2	23RD	1	0	1.24707198143	-64.0	-393.0	-63	-391	1
1.7	2015_Jul_20_1612	s	s	13	1	SIC	475	ABS	2	1	24VO	0	1	0.717444896698	None	None	None	None	1
1.7	2015_Jul_20_1612	s	s	13	1	SIC	476	RC	2	1	23VO	1	0	0.670683860779	-215.0	294.0	-219	300	1
1.7	2015_Jul_20_1612	s	s	13	1	SIC	477	RC	2	0	23VC	1	0	0.655954122543	-165.0	-6.0	-155	-1	1
1.7	2015_Jul_20_1612	s	s	13	1	SIC	478	RC	1	1	23MO	1	0	2.19599413872	-534.0	360.0	-532	357	1
1.7	2015_Jul_20_1612	s	s	13	1	SIC	479	ABS	0	2	24RD	0	1	2.30627417564	None	None	None	None	1
1.7	2015_Jul_20_1612	s	s	13	1	SIC	480	RC	1	2	23MD	1	0	0.900876045227	-199.0	-235.0	-194	-230	1
1.7	2015_Jul_20_1612	s	s	13	1	SIC	481	RC	2	2	23VD	1	0	0.608696937561	359.0	79.0	362	75	1
1.7	2015_Jul_20_1612	s	s	13	1	SIC	482	ABS	2	0	24VC	0	1	0.752743959427	None	None	None	None	1
1.7	2015_Jul_20_1612	s	s	13	1	SIC	483	ABS	0	1	24RO	0	1	5.77867484093	None	None	None	None	1
1.7	2015_Jul_20_1612	s	s	13	1	SIC	484	RC	1	1	23MO	1	0	1.15290808678	-301.0	-250.0	-303	-249	1
1.7	2015_Jul_20_1612	s	s	13	1	SIC	485	RC	2	1	23VO	1	0	0.752793073654	-491.0	-139.0	-493	-138	1
1.7	2015_Jul_20_1612	s	s	13	1	SIC	486	ABS	2	2	24VD	0	1	0.60598897934	None	None	None	None	1
1.7	2015_Jul_20_1612	s	s	13	1	SIC	487	RC	1	0	23MC	0	1	4.81022810936	-63.0	-146.0	None	None	0
1.7	2015_Jul_20_1612	s	s	13	1	SIC	488	ABS	1	1	24MO	0	1	1.92175984383	None	None	None	None	1
1.7	2015_Jul_20_1612	s	s	13	1	SIC	489	RC	2	0	23VC	1	0	0.870500087738	-223.0	221.0	-225	214	1
1.7	2015_Jul_20_1612	s	s	13	1	SIC	490	RC	1	2	23MD	1	0	0.655487060547	88.0	26.0	81	27	1
1.7	2015_Jul_20_1612	s	s	13	1	SIC	491	ABS	1	2	24MD	0	1	0.744683027267	None	None	None	None	1
1.7	2015_Jul_20_1612	s	s	13	1	SIC	492	ABS	0	2	24RD	0	1	1.18359398842	None	None	None	None	1
1.7	2015_Jul_20_1612	s	s	13	1	SIC	493	RC	0	1	23RO	1	0	2.23332905769	-292.0	12.0	-289	12	1
1.7	2015_Jul_20_1612	s	s	13	1	SIC	494	ABS	1	0	24MC	0	1	3.91912293434	None	None	None	None	1
1.7	2015_Jul_20_1612	s	s	13	1	SIC	495	ABS	2	1	24VO	0	1	1.2086160183	None	None	None	None	1
1.7	2015_Jul_20_1612	s	s	13	1	SIC	496	RC	0	2	23RD	1	0	0.747092008591	164.0	-220.0	170	-220	1
1.7	2015_Jul_20_1612	s	s	13	1	SIC	497	RC	0	1	23RO	1	0	1.65897321701	-233.0	-111.0	-242	-112	1
1.7	2015_Jul_20_1612	s	s	13	1	SIC	498	ABS	0	1	24RO	0	1	3.87197685242	None	None	None	None	1
1.7	2015_Jul_20_1612	s	s	13	1	SIC	499	ABS	0	2	24RD	0	1	0.788048028946	None	None	None	None	1
1.7	2015_Jul_20_1612	s	s	13	1	SIC	500	RC	1	0	23MC	1	0	4.17783784866	71.0	38.0	71	41	1
1.7	2015_Jul_20_1612	s	s	13	1	SIC	501	RC	2	1	23VO	1	0	0.655206918716	-362.0	-127.0	-373	-120	1
1.7	2015_Jul_20_1612	s	s	13	1	SIC	502	ABS	1	2	24MD	0	1	0.84668302536	None	None	None	None	1
1.7	2015_Jul_20_1612	s	s	13	1	SIC	503	RC	0	2	23RD	1	0	1.37656593323	425.0	-356.0	426	-363	1
1.7	2015_Jul_20_1612	s	s	13	1	SIC	504	RC	2	2	23VD	1	0	0.646781206131	267.0	-178.0	265	-176	1
1.7	2015_Jul_20_1612	s	s	13	1	SIC	505	ABS	2	2	24VD	0	1	0.546905040741	None	None	None	None	1
1.7	2015_Jul_20_1612	s	s	13	1	SIC	506	ABS	1	1	24MO	0	1	1.69423294067	None	None	None	None	1
1.7	2015_Jul_20_1612	s	s	13	1	SIC	507	RC	1	1	23MO	1	0	1.1737549305	413.0	-176.0	417	-177	1
1.7	2015_Jul_20_1612	s	s	13	1	SIC	508	RC	1	2	23MD	1	0	1.47073602676	189.0	333.0	183	326	1
1.7	2015_Jul_20_1612	s	s	13	1	SIC	509	RC	2	0	23VC	1	0	0.693886995316	507.0	276.0	516	279	1
1.7	2015_Jul_20_1612	s	s	13	1	SIC	510	ABS	2	1	24VO	0	1	0.705584049225	None	None	None	None	1
1.7	2015_Jul_20_1612	s	s	13	1	SIC	511	ABS	1	0	24MC	0	1	1.69961595535	None	None	None	None	1
1.7	2015_Jul_20_1612	s	s	13	1	SIC	512	ABS	2	0	24VC	0	1	0.721165895462	None	None	None	None	1
1.7	2015_Jul_20_1612	s	s	13	1	SIC	513	ABS	2	1	24VO	0	1	0.583088159561	None	None	None	None	1
1.7	2015_Jul_20_1612	s	s	13	1	SIC	514	ABS	1	0	24MC	0	1	1.76055502892	None	None	None	None	1
1.7	2015_Jul_20_1612	s	s	13	1	SIC	515	ABS	2	0	24VC	0	1	0.706007003784	None	None	None	None	1
1.7	2015_Jul_20_1612	s	s	13	1	SIC	516	RC	1	1	23MO	1	0	1.46568202972	28.0	340.0	21	340	1
1.7	2015_Jul_20_1612	s	s	13	1	SIC	517	RC	2	1	23VO	1	0	0.617607116699	-450.0	-98.0	-454	-97	1
1.7	2015_Jul_20_1612	s	s	13	1	SIC	518	RC	0	1	23RO	1	0	4.60826587677	446.0	184.0	444	187	1
1.7	2015_Jul_20_1612	s	s	13	1	SIC	519	ABS	0	2	24RD	0	1	1.41214990616	None	None	None	None	1
1.7	2015_Jul_20_1612	s	s	13	1	SIC	520	RC	2	2	23VD	1	0	0.724266052246	-16.0	33.0	-13	25	1
1.7	2015_Jul_20_1612	s	s	13	1	SIC	521	RC	1	0	23MC	1	0	7.44472122192	194.0	404.0	199	407	1
1.7	2015_Jul_20_1612	s	s	13	1	SIC	522	RC	1	2	23MD	1	0	0.653799057007	-349.0	-392.0	-341	-398	1
1.7	2015_Jul_20_1612	s	s	13	1	SIC	523	ABS	1	2	24MD	0	1	0.817719936371	None	None	None	None	1
1.7	2015_Jul_20_1612	s	s	13	1	SIC	524	RC	2	0	23VC	1	0	1.16472101212	-227.0	41.0	-218	41	1
1.7	2015_Jul_20_1612	s	s	13	1	SIC	525	ABS	1	1	24MO	0	1	2.0065472126	None	None	None	None	1
1.7	2015_Jul_20_1612	s	s	13	1	SIC	526	ABS	0	1	24RO	0	1	5.90240097046	None	None	None	None	1
1.7	2015_Jul_20_1612	s	s	13	1	SIC	527	ABS	2	2	24VD	0	1	0.603435993195	None	None	None	None	1
1.7	2015_Jul_20_1612	s	s	13	1	SIC	528	RC	0	2	23RD	1	0	1.60832715034	149.0	-186.0	142	-191	1
1.7	2015_Jul_20_1612	s	s	13	1	SIC	529	RC	2	0	23VC	1	0	0.705626010895	438.0	393.0	438	395	1
1.7	2015_Jul_20_1612	s	s	13	1	SIC	530	RC	0	2	23RD	1	0	0.752745866776	528.0	36.0	526	36	1
1.7	2015_Jul_20_1612	s	s	13	1	SIC	531	RC	0	1	23RO	1	0	2.65945005417	-338.0	-372.0	-343	-371	1
1.7	2015_Jul_20_1612	s	s	13	1	SIC	532	ABS	2	0	24VC	0	1	0.750186920166	None	None	None	None	1
1.7	2015_Jul_20_1612	s	s	13	1	SIC	533	ABS	0	2	24RD	0	1	1.11373806	None	None	None	None	1
1.7	2015_Jul_20_1612	s	s	13	1	SIC	534	ABS	1	2	24MD	0	1	0.86785197258	None	None	None	None	1
1.7	2015_Jul_20_1612	s	s	13	1	SIC	535	ABS	1	0	24MC	0	1	1.78846788406	None	None	None	None	1
1.7	2015_Jul_20_1612	s	s	13	1	SIC	536	RC	1	1	23MO	1	0	1.02080607414	84.0	-194.0	84	-200	1
1.7	2015_Jul_20_1612	s	s	13	1	SIC	537	RC	1	0	23MC	1	0	4.99908304214	271.0	-87.0	267	-89	1
1.7	2015_Jul_20_1612	s	s	13	1	SIC	538	RC	2	1	23VO	1	0	0.890998840332	405.0	168.0	407	165	1
1.7	2015_Jul_20_1612	s	s	13	1	SIC	539	ABS	2	1	24VO	0	1	0.78792309761	None	None	None	None	1
1.7	2015_Jul_20_1612	s	s	13	1	SIC	540	RC	2	2	23VD	1	0	0.618021965027	219.0	-12.0	219	-5	1
1.7	2015_Jul_20_1612	s	s	13	1	SIC	541	ABS	2	2	24VD	0	1	0.69996380806	None	None	None	None	1
1.7	2015_Jul_20_1612	s	s	13	1	SIC	542	ABS	1	1	24MO	0	1	2.52529382706	None	None	None	None	1
1.7	2015_Jul_20_1612	s	s	13	1	SIC	543	ABS	0	1	24RO	0	1	7.8940551281	None	None	None	None	1
1.7	2015_Jul_20_1612	s	s	13	1	SIC	544	RC	1	2	23MD	1	0	0.609007120132	-129.0	342.0	-130	331	1
1.7	2015_Jul_20_1612	s	s	13	1	SIC	545	ABS	2	2	24VD	0	1	0.996654033661	None	None	None	None	1
1.7	2015_Jul_20_1612	s	s	13	1	SIC	546	ABS	0	2	24RD	0	1	1.37648415565	None	None	None	None	1
1.7	2015_Jul_20_1612	s	s	13	1	SIC	547	RC	1	0	23MC	1	0	1.88927602768	531.0	-383.0	536	-385	1
1.7	2015_Jul_20_1612	s	s	13	1	SIC	548	ABS	2	1	24VO	0	1	1.26806712151	None	None	None	None	1
1.7	2015_Jul_20_1612	s	s	13	1	SIC	549	RC	2	0	23VC	1	0	0.540880918503	244.0	334.0	247	328	1
1.7	2015_Jul_20_1612	s	s	13	1	SIC	550	ABS	1	2	24MD	0	1	0.80927491188	None	None	None	None	1
1.7	2015_Jul_20_1612	s	s	13	1	SIC	551	ABS	1	0	24MC	0	1	6.40943098068	None	None	None	None	1
1.7	2015_Jul_20_1612	s	s	13	1	SIC	552	ABS	0	1	24RO	0	1	9.25113606453	None	None	None	None	1
1.7	2015_Jul_20_1612	s	s	13	1	SIC	553	RC	1	1	23MO	1	0	3.60750603676	54.0	300.0	52	299	1
1.7	2015_Jul_20_1612	s	s	13	1	SIC	554	RC	0	1	23RO	1	0	1.75937414169	-267.0	-70.0	-260	-68	1
1.7	2015_Jul_20_1612	s	s	13	1	SIC	555	RC	2	2	23VD	1	0	0.500560045242	395.0	30.0	396	21	1
1.7	2015_Jul_20_1612	s	s	13	1	SIC	556	ABS	1	1	24MO	0	1	1.19991898537	None	None	None	None	1
1.7	2015_Jul_20_1612	s	s	13	1	SIC	557	RC	2	1	23VO	1	0	0.738036155701	458.0	206.0	457	203	1
1.7	2015_Jul_20_1612	s	s	13	1	SIC	558	RC	0	2	23RD	1	0	2.59778594971	446.0	400.0	449	402	1
1.7	2015_Jul_20_1612	s	s	13	1	SIC	559	ABS	2	0	24VC	0	1	1.19995594025	None	None	None	None	1
1.7	2015_Jul_20_1612	s	s	13	1	SIC	560	RC	1	2	23MD	1	0	1.99408006668	-28.0	-281.0	-28	-274	1
1.7	2015_Jul_20_1612	s	s	13	1	SIC	561	RC	2	0	23VC	1	0	0.705641031265	-72.0	271.0	-77	280	1
1.7	2015_Jul_20_1612	s	s	13	1	SIC	562	ABS	1	0	24MC	0	1	2.37686014175	None	None	None	None	1
1.7	2015_Jul_20_1612	s	s	13	1	SIC	563	ABS	2	2	24VD	0	1	0.823429822922	None	None	None	None	1
1.7	2015_Jul_20_1612	s	s	13	1	SIC	564	RC	1	1	23MO	1	0	1.82383799553	-80.0	277.0	-86	281	1
1.7	2015_Jul_20_1612	s	s	13	1	SIC	565	ABS	2	1	24VO	0	1	0.710937976837	None	None	None	None	1
1.7	2015_Jul_20_1612	s	s	13	1	SIC	566	RC	1	2	23MD	1	0	0.693835020065	-306.0	-220.0	-303	-217	1
1.7	2015_Jul_20_1612	s	s	13	1	SIC	567	RC	0	1	23RO	1	0	4.20151400566	14.0	-329.0	15	-330	1
1.7	2015_Jul_20_1612	s	s	13	1	SIC	568	RC	1	0	23MC	1	0	4.18699598312	290.0	-199.0	282	-193	1
1.7	2015_Jul_20_1612	s	s	13	1	SIC	569	RC	2	2	23VD	1	0	1.01891088486	86.0	-69.0	92	-75	1
1.7	2015_Jul_20_1612	s	s	13	1	SIC	570	RC	0	2	23RD	1	0	1.58839702606	-331.0	52.0	-332	47	1
1.7	2015_Jul_20_1612	s	s	13	1	SIC	571	ABS	2	0	24VC	0	1	0.74497294426	None	None	None	None	1
1.7	2015_Jul_20_1612	s	s	13	1	SIC	572	ABS	0	2	24RD	0	1	1.90003991127	None	None	None	None	1
1.7	2015_Jul_20_1612	s	s	13	1	SIC	573	ABS	1	1	24MO	0	1	3.17741799355	None	None	None	None	1
1.7	2015_Jul_20_1612	s	s	13	1	SIC	574	ABS	0	1	24RO	0	1	6.24959301949	None	None	None	None	1
1.7	2015_Jul_20_1612	s	s	13	1	SIC	575	RC	2	1	23VO	1	0	0.85569190979	293.0	173.0	292	178	1
1.7	2015_Jul_20_1612	s	s	13	1	SIC	576	ABS	1	2	24MD	0	1	0.674752950668	None	None	None	None	1
1.7	2015_Jul_20_1612	s	s	13	1	SIC	577	RC	0	1	23RO	1	0	2.73941206932	429.0	-135.0	427	-139	1
1.7	2015_Jul_20_1612	s	s	13	1	SIC	578	ABS	2	0	24VC	0	1	0.670222997665	None	None	None	None	1
1.7	2015_Jul_20_1612	s	s	13	1	SIC	579	ABS	2	2	24VD	0	1	0.799779891968	None	None	None	None	1
1.7	2015_Jul_20_1612	s	s	13	1	SIC	580	RC	1	2	23MD	1	0	2.52521491051	-231.0	235.0	-229	229	1
1.7	2015_Jul_20_1612	s	s	13	1	SIC	581	RC	2	1	23VO	1	0	0.784754037857	-375.0	-283.0	-383	-285	1
1.7	2015_Jul_20_1612	s	s	13	1	SIC	582	ABS	0	2	24RD	0	1	0.971345901489	None	None	None	None	1
1.7	2015_Jul_20_1612	s	s	13	1	SIC	583	ABS	0	1	24RO	0	1	7.47990083694	None	None	None	None	1
1.7	2015_Jul_20_1612	s	s	13	1	SIC	584	ABS	1	0	24MC	0	1	3.11287212372	None	None	None	None	1
1.7	2015_Jul_20_1612	s	s	13	1	SIC	585	RC	2	2	23VD	1	0	1.19447493553	-66.0	-389.0	-58	-393	1
1.7	2015_Jul_20_1612	s	s	13	1	SIC	586	ABS	2	1	24VO	0	1	0.887583017349	None	None	None	None	1
1.7	2015_Jul_20_1612	s	s	13	1	SIC	587	RC	2	0	23VC	1	0	1.24709105492	-429.0	152.0	-425	156	1
1.7	2015_Jul_20_1612	s	s	13	1	SIC	588	RC	0	2	23RD	1	0	1.99770212173	-223.0	-325.0	-219	-323	1
1.7	2015_Jul_20_1612	s	s	13	1	SIC	589	RC	1	0	23MC	1	0	1.74864292145	-105.0	112.0	-107	111	1
1.7	2015_Jul_20_1612	s	s	13	1	SIC	590	ABS	1	2	24MD	0	1	0.782615184784	None	None	None	None	1
1.7	2015_Jul_20_1612	s	s	13	1	SIC	591	RC	1	1	23MO	1	0	1.07050514221	271.0	-30.0	267	-33	1
1.7	2015_Jul_20_1612	s	s	13	1	SIC	592	ABS	1	1	24MO	0	1	3.58667206764	None	None	None	None	1
