Version	Date	Stimuli	Method	Subject	Session	Condition	Trial	Target	Channel1	Channel2	Distractors	LMouseButton	RMouseButton	RT	TargetX	TargetY	ResponseX	ResponseY	Correct
1.7	2015_Jul_24_1508	s	s	13	4	Capacity	1	ABS	0	2	24RD	0	1	1.21174192429	None	None	None	None	1
1.7	2015_Jul_24_1508	s	s	13	4	Capacity	2	ABS	0	1	24RO	0	1	4.88107013702	None	None	None	None	1
1.7	2015_Jul_24_1508	s	s	13	4	Capacity	3	RC	0	1	23RO	1	0	3.34215903282	-42.0	-120.0	-42	-120	1
1.7	2015_Jul_24_1508	s	s	13	4	Capacity	4	RC	0	2	23RD	1	0	0.481912851334	-34.0	-297.0	-31	-305	1
1.7	2015_Jul_24_1508	s	s	13	4	Capacity	5	ABS	0	1	24RO	0	1	4.57018017769	None	None	None	None	1
1.7	2015_Jul_24_1508	s	s	13	4	Capacity	6	RC	0	1	23RO	1	0	1.12589216232	513.0	-143.0	512	-147	1
1.7	2015_Jul_24_1508	s	s	13	4	Capacity	7	ABS	0	2	24RD	0	1	0.688936948776	None	None	None	None	1
1.7	2015_Jul_24_1508	s	s	13	4	Capacity	8	RC	0	2	23RD	1	0	0.454733133316	-269.0	289.0	-262	291	1
1.7	2015_Jul_24_1508	s	s	13	4	Capacity	9	RC	0	1	23RO	1	0	2.90179586411	32.0	-167.0	35	-175	1
1.7	2015_Jul_24_1508	s	s	13	4	Capacity	10	RC	0	2	23RD	1	0	0.493782043457	-112.0	-93.0	-109	-96	1
1.7	2015_Jul_24_1508	s	s	13	4	Capacity	11	ABS	0	1	24RO	0	1	3.90464019775	None	None	None	None	1
1.7	2015_Jul_24_1508	s	s	13	4	Capacity	12	ABS	0	2	24RD	0	1	0.914525032043	None	None	None	None	1
1.7	2015_Jul_24_1508	s	s	13	4	Capacity	13	RC	0	2	23RD	1	0	0.512774944305	-520.0	132.0	-515	128	1
1.7	2015_Jul_24_1508	s	s	13	4	Capacity	14	RC	0	1	23RO	1	0	1.48234701157	-205.0	16.0	-197	13	1
1.7	2015_Jul_24_1508	s	s	13	4	Capacity	15	ABS	0	1	24RO	0	1	4.15440917015	None	None	None	None	1
1.7	2015_Jul_24_1508	s	s	13	4	Capacity	16	ABS	0	2	24RD	0	1	0.690496921539	None	None	None	None	1
1.7	2015_Jul_24_1508	s	s	13	4	Capacity	17	RC	0	2	23RD	1	0	0.926236152649	-461.0	-197.0	-453	-191	1
1.7	2015_Jul_24_1508	s	s	13	4	Capacity	18	ABS	0	2	24RD	0	1	0.899894952774	None	None	None	None	1
1.7	2015_Jul_24_1508	s	s	13	4	Capacity	19	RC	0	1	23RO	1	0	1.02339196205	287.0	-264.0	295	-264	1
1.7	2015_Jul_24_1508	s	s	13	4	Capacity	20	ABS	0	1	24RO	0	1	5.3902618885	None	None	None	None	1
1.7	2015_Jul_24_1508	s	s	13	4	Capacity	21	ABS	0	2	24RD	0	1	1.08804178238	None	None	None	None	1
1.7	2015_Jul_24_1508	s	s	13	4	Capacity	22	RC	0	1	23RO	1	0	0.524713993073	115.0	86.0	109	89	1
1.7	2015_Jul_24_1508	s	s	13	4	Capacity	23	RC	0	2	23RD	1	0	0.823364019394	-305.0	305.0	-300	305	1
1.7	2015_Jul_24_1508	s	s	13	4	Capacity	24	ABS	0	1	24RO	0	1	3.07157301903	None	None	None	None	1
1.7	2015_Jul_24_1508	s	s	13	4	Capacity	25	RC	0	1	23RO	1	0	1.52618694305	441.0	-162.0	447	-160	1
1.7	2015_Jul_24_1508	s	s	13	4	Capacity	26	ABS	0	2	24RD	0	1	0.929257154465	None	None	None	None	1
1.7	2015_Jul_24_1508	s	s	13	4	Capacity	27	ABS	0	1	24RO	0	1	4.61343002319	None	None	None	None	1
1.7	2015_Jul_24_1508	s	s	13	4	Capacity	28	RC	0	2	23RD	1	0	0.540709972382	413.0	103.0	407	96	1
1.7	2015_Jul_24_1508	s	s	13	4	Capacity	29	ABS	0	2	24RD	0	1	0.665653944016	None	None	None	None	1
1.7	2015_Jul_24_1508	s	s	13	4	Capacity	30	RC	0	1	23RO	1	0	0.959548950195	435.0	-56.0	432	-62	1
1.7	2015_Jul_24_1508	s	s	13	4	Capacity	31	RC	0	2	23RD	1	0	0.481784820557	-179.0	-117.0	-173	-118	1
1.7	2015_Jul_24_1508	s	s	13	4	Capacity	32	ABS	0	1	24RO	0	1	3.1222858429	None	None	None	None	1
1.7	2015_Jul_24_1508	s	s	13	4	Capacity	33	RC	0	2	23RD	1	0	0.481945037842	410.0	139.0	409	128	1
1.7	2015_Jul_24_1508	s	s	13	4	Capacity	34	RC	0	1	23RO	1	0	0.587904930115	-72.0	2.0	-61	2	1
1.7	2015_Jul_24_1508	s	s	13	4	Capacity	35	ABS	0	2	24RD	0	1	0.619340896606	None	None	None	None	1
1.7	2015_Jul_24_1508	s	s	13	4	Capacity	36	ABS	0	1	24RO	0	1	3.76604199409	None	None	None	None	1
1.7	2015_Jul_24_1508	s	s	13	4	Capacity	37	RC	0	1	23RO	1	0	4.11648201942	-11.0	317.0	-4	312	1
1.7	2015_Jul_24_1508	s	s	13	4	Capacity	38	ABS	0	2	24RD	0	1	0.891483068466	None	None	None	None	1
1.7	2015_Jul_24_1508	s	s	13	4	Capacity	39	ABS	0	1	24RO	0	1	4.63695502281	None	None	None	None	1
1.7	2015_Jul_24_1508	s	s	13	4	Capacity	40	RC	0	2	23RD	1	0	0.540910005569	-464.0	187.0	-468	179	1
1.7	2015_Jul_24_1508	s	s	13	4	Capacity	41	ABS	0	2	24RD	0	1	0.83033490181	None	None	None	None	1
1.7	2015_Jul_24_1508	s	s	13	4	Capacity	42	RC	0	1	23RO	1	0	2.33718490601	282.0	-331.0	272	-326	1
1.7	2015_Jul_24_1508	s	s	13	4	Capacity	43	ABS	0	1	24RO	0	1	5.04525089264	None	None	None	None	1
1.7	2015_Jul_24_1508	s	s	13	4	Capacity	44	RC	0	2	23RD	1	0	0.536072969437	508.0	147.0	504	148	1
1.7	2015_Jul_24_1508	s	s	13	4	Capacity	45	RC	0	1	23RO	1	0	0.855806827545	348.0	-31.0	353	-36	1
1.7	2015_Jul_24_1508	s	s	13	4	Capacity	46	RC	0	2	23RD	1	0	0.481982946396	-266.0	-172.0	-267	-163	1
1.7	2015_Jul_24_1508	s	s	13	4	Capacity	47	ABS	0	1	24RO	0	1	4.54280781746	None	None	None	None	1
1.7	2015_Jul_24_1508	s	s	13	4	Capacity	48	ABS	0	2	24RD	0	1	1.22110795975	None	None	None	None	1
1.7	2015_Jul_24_1508	s	s	13	4	Capacity	49	ABS	0	2	24RD	0	1	1.07660698891	None	None	None	None	1
1.7	2015_Jul_24_1508	s	s	13	4	Capacity	50	ABS	0	1	24RO	0	1	5.22551584244	None	None	None	None	1
1.7	2015_Jul_24_1508	s	s	13	4	Capacity	51	RC	0	1	23RO	1	0	1.07051801682	123.0	140.0	122	138	1
1.7	2015_Jul_24_1508	s	s	13	4	Capacity	52	RC	0	2	23RD	1	0	0.540803909302	-453.0	408.0	-455	409	1
1.7	2015_Jul_24_1508	s	s	13	4	Capacity	53	ABS	0	1	24RO	0	1	5.65715885162	None	None	None	None	1
1.7	2015_Jul_24_1508	s	s	13	4	Capacity	54	RC	0	2	23RD	1	0	0.443295955658	170.0	242.0	169	240	1
1.7	2015_Jul_24_1508	s	s	13	4	Capacity	55	ABS	0	2	24RD	0	1	0.713804960251	None	None	None	None	1
1.7	2015_Jul_24_1508	s	s	13	4	Capacity	56	RC	0	1	23RO	1	0	0.513384103775	-80.0	19.0	-86	27	1
1.7	2015_Jul_24_1508	s	s	13	4	Capacity	57	RC	0	1	23RO	1	0	1.34867501259	338.0	-375.0	332	-376	1
1.7	2015_Jul_24_1508	s	s	13	4	Capacity	58	RC	0	2	23RD	1	0	0.773714065552	167.0	159.0	170	149	1
1.7	2015_Jul_24_1508	s	s	13	4	Capacity	59	ABS	0	1	24RO	0	1	5.58715796471	None	None	None	None	1
1.7	2015_Jul_24_1508	s	s	13	4	Capacity	60	ABS	0	2	24RD	0	1	0.858578920364	None	None	None	None	1
1.7	2015_Jul_24_1508	s	s	13	4	Capacity	61	RC	0	1	23RO	1	0	1.10582399368	-206.0	-396.0	-212	-392	1
1.7	2015_Jul_24_1508	s	s	13	4	Capacity	62	RC	0	2	23RD	1	0	0.634855031967	-113.0	-195.0	-110	-194	1
1.7	2015_Jul_24_1508	s	s	13	4	Capacity	63	ABS	0	1	24RO	0	1	5.35012197495	None	None	None	None	1
1.7	2015_Jul_24_1508	s	s	13	4	Capacity	64	ABS	0	2	24RD	0	1	1.0704870224	None	None	None	None	1
1.7	2015_Jul_24_1508	s	s	13	4	Capacity	65	RC	0	2	23RD	1	0	0.78792309761	-491.0	-367.0	-489	-377	1
1.7	2015_Jul_24_1508	s	s	13	4	Capacity	66	ABS	0	2	24RD	0	1	0.788041114807	None	None	None	None	1
1.7	2015_Jul_24_1508	s	s	13	4	Capacity	67	ABS	0	1	24RO	0	1	5.48445892334	None	None	None	None	1
1.7	2015_Jul_24_1508	s	s	13	4	Capacity	68	RC	0	1	23RO	1	0	0.877452135086	-32.0	-272.0	-30	-270	1
1.7	2015_Jul_24_1508	s	s	13	4	Capacity	69	RC	0	1	23RO	1	0	2.00958991051	-479.0	-38.0	-484	-35	1
1.7	2015_Jul_24_1508	s	s	13	4	Capacity	70	ABS	0	1	24RO	0	1	4.80826187134	None	None	None	None	1
1.7	2015_Jul_24_1508	s	s	13	4	Capacity	71	ABS	0	2	24RD	0	1	3.8902759552	None	None	None	None	1
1.7	2015_Jul_24_1508	s	s	13	4	Capacity	72	RC	0	2	23RD	1	0	0.670347929001	-153.0	313.0	-161	309	1
1.7	2015_Jul_24_1508	s	s	13	4	Capacity	73	ABS	0	1	24RO	0	1	4.94984197617	None	None	None	None	1
1.7	2015_Jul_24_1508	s	s	13	4	Capacity	74	RC	0	1	23RO	1	0	2.40052390099	507.0	408.0	504	406	1
1.7	2015_Jul_24_1508	s	s	13	4	Capacity	75	RC	0	2	23RD	1	0	0.524235010147	-498.0	188.0	-500	182	1
1.7	2015_Jul_24_1508	s	s	13	4	Capacity	76	ABS	0	2	24RD	0	1	0.808472156525	None	None	None	None	1
1.7	2015_Jul_24_1508	s	s	13	4	Capacity	77	ABS	0	1	24RO	0	1	5.49380111694	None	None	None	None	1
1.7	2015_Jul_24_1508	s	s	13	4	Capacity	78	RC	0	1	23RO	1	0	2.52684211731	268.0	354.0	267	350	1
1.7	2015_Jul_24_1508	s	s	13	4	Capacity	79	ABS	0	2	24RD	0	1	1.03509998322	None	None	None	None	1
1.7	2015_Jul_24_1508	s	s	13	4	Capacity	80	RC	0	2	23RD	1	0	0.654826164246	179.0	293.0	185	291	1
1.7	2015_Jul_24_1508	s	s	13	4	Capacity	81	ABS	0	2	24RD	0	1	0.86759185791	None	None	None	None	1
1.7	2015_Jul_24_1508	s	s	13	4	Capacity	82	ABS	0	1	24RO	0	1	6.96410393715	None	None	None	None	1
1.7	2015_Jul_24_1508	s	s	13	4	Capacity	83	RC	0	1	23RO	1	0	2.0591211319	484.0	147.0	490	144	1
1.7	2015_Jul_24_1508	s	s	13	4	Capacity	84	RC	0	2	23RD	1	0	0.640371084213	-409.0	-236.0	-409	-251	1
1.7	2015_Jul_24_1508	s	s	13	4	Capacity	85	ABS	0	2	24RD	0	1	1.69435715675	None	None	None	None	1
1.7	2015_Jul_24_1508	s	s	13	4	Capacity	86	RC	0	1	23RO	1	0	1.90141892433	-227.0	-34.0	-231	-35	1
1.7	2015_Jul_24_1508	s	s	13	4	Capacity	87	ABS	0	1	24RO	0	1	4.9994661808	None	None	None	None	1
1.7	2015_Jul_24_1508	s	s	13	4	Capacity	88	RC	0	2	23RD	1	0	0.517674922943	-512.0	276.0	-514	271	1
1.7	2015_Jul_24_1508	s	s	13	4	Capacity	89	RC	0	1	23RO	1	0	1.55292797089	120.0	-301.0	121	-305	1
1.7	2015_Jul_24_1508	s	s	13	4	Capacity	90	RC	0	2	23RD	1	0	0.476408958435	282.0	-80.0	279	-76	1
1.7	2015_Jul_24_1508	s	s	13	4	Capacity	91	ABS	0	1	24RO	0	1	5.08048701286	None	None	None	None	1
1.7	2015_Jul_24_1508	s	s	13	4	Capacity	92	ABS	0	2	24RD	0	1	0.976300001144	None	None	None	None	1
1.7	2015_Jul_24_1508	s	s	13	4	Capacity	1	RC	2	0	23VC	1	0	0.444227933884	-465.0	131.0	-466	127	1
1.7	2015_Jul_24_1508	s	s	13	4	Capacity	2	ABS	2	0	24VC	0	1	0.653544902802	None	None	None	None	1
1.7	2015_Jul_24_1508	s	s	13	4	Capacity	3	RC	1	0	23MC	1	0	0.670394182205	-115.0	-237.0	-112	-243	1
1.7	2015_Jul_24_1508	s	s	13	4	Capacity	4	ABS	1	0	24MC	0	1	0.964396953583	None	None	None	None	1
1.7	2015_Jul_24_1508	s	s	13	4	Capacity	5	ABS	1	0	24MC	0	1	1.18572092056	None	None	None	None	1
1.7	2015_Jul_24_1508	s	s	13	4	Capacity	6	RC	2	0	23VC	1	0	0.446661949158	-321.0	216.0	-314	212	1
1.7	2015_Jul_24_1508	s	s	13	4	Capacity	7	ABS	2	0	24VC	0	1	0.617616891861	None	None	None	None	1
1.7	2015_Jul_24_1508	s	s	13	4	Capacity	8	RC	1	0	23MC	1	0	0.858615875244	223.0	-150.0	217	-148	1
1.7	2015_Jul_24_1508	s	s	13	4	Capacity	9	RC	2	0	23VC	1	0	0.617774963379	-487.0	-6.0	-487	-7	1
1.7	2015_Jul_24_1508	s	s	13	4	Capacity	10	RC	1	0	23MC	1	0	0.771432876587	-502.0	144.0	-507	145	1
1.7	2015_Jul_24_1508	s	s	13	4	Capacity	11	ABS	2	0	24VC	0	1	0.559267997742	None	None	None	None	1
1.7	2015_Jul_24_1508	s	s	13	4	Capacity	12	ABS	1	0	24MC	0	1	1.10320901871	None	None	None	None	1
1.7	2015_Jul_24_1508	s	s	13	4	Capacity	13	RC	2	0	23VC	1	0	0.423134803772	-20.0	296.0	-21	291	1
1.7	2015_Jul_24_1508	s	s	13	4	Capacity	14	ABS	1	0	24MC	0	1	1.81748390198	None	None	None	None	1
1.7	2015_Jul_24_1508	s	s	13	4	Capacity	15	ABS	2	0	24VC	0	1	0.540842056274	None	None	None	None	1
1.7	2015_Jul_24_1508	s	s	13	4	Capacity	16	RC	1	0	23MC	1	0	0.811569929123	2.0	-289.0	8	-296	1
1.7	2015_Jul_24_1508	s	s	13	4	Capacity	17	ABS	2	0	24VC	0	1	0.537695884705	None	None	None	None	1
1.7	2015_Jul_24_1508	s	s	13	4	Capacity	18	ABS	1	0	24MC	0	1	1.55680799484	None	None	None	None	1
1.7	2015_Jul_24_1508	s	s	13	4	Capacity	19	RC	1	0	23MC	1	0	1.11765503883	476.0	-317.0	477	-317	1
1.7	2015_Jul_24_1508	s	s	13	4	Capacity	20	RC	2	0	23VC	1	0	0.434895992279	-461.0	-256.0	-463	-257	1
1.7	2015_Jul_24_1508	s	s	13	4	Capacity	21	RC	1	0	23MC	1	0	1.22353696823	498.0	126.0	492	127	1
1.7	2015_Jul_24_1508	s	s	13	4	Capacity	22	ABS	1	0	24MC	0	1	1.89069914818	None	None	None	None	1
1.7	2015_Jul_24_1508	s	s	13	4	Capacity	23	ABS	2	0	24VC	0	1	0.582398891449	None	None	None	None	1
1.7	2015_Jul_24_1508	s	s	13	4	Capacity	24	RC	2	0	23VC	1	0	0.582888841629	-11.0	202.0	-10	196	1
1.7	2015_Jul_24_1508	s	s	13	4	Capacity	25	ABS	1	0	24MC	0	1	1.42370581627	None	None	None	None	1
1.7	2015_Jul_24_1508	s	s	13	4	Capacity	26	RC	1	0	23MC	1	0	3.87888503075	-26.0	-296.0	-23	-301	1
1.7	2015_Jul_24_1508	s	s	13	4	Capacity	27	ABS	2	0	24VC	0	1	0.611465930939	None	None	None	None	1
1.7	2015_Jul_24_1508	s	s	13	4	Capacity	28	RC	2	0	23VC	1	0	0.635065793991	325.0	-58.0	324	-65	1
1.7	2015_Jul_24_1508	s	s	13	4	Capacity	29	RC	2	0	23VC	1	0	0.446609020233	-10.0	402.0	-15	404	1
1.7	2015_Jul_24_1508	s	s	13	4	Capacity	30	ABS	2	0	24VC	0	1	0.479602098465	None	None	None	None	1
1.7	2015_Jul_24_1508	s	s	13	4	Capacity	31	ABS	1	0	24MC	0	1	2.17463803291	None	None	None	None	1
1.7	2015_Jul_24_1508	s	s	13	4	Capacity	32	RC	1	0	23MC	1	0	5.96393895149	-69.0	-78.0	-70	-75	1
1.7	2015_Jul_24_1508	s	s	13	4	Capacity	33	ABS	2	0	24VC	0	1	0.477629899979	None	None	None	None	1
1.7	2015_Jul_24_1508	s	s	13	4	Capacity	34	RC	1	0	23MC	1	0	0.882125139236	26.0	154.0	23	150	1
1.7	2015_Jul_24_1508	s	s	13	4	Capacity	35	RC	2	0	23VC	1	0	0.493740081787	-110.0	391.0	-108	397	1
1.7	2015_Jul_24_1508	s	s	13	4	Capacity	36	ABS	1	0	24MC	0	1	1.54932594299	None	None	None	None	1
1.7	2015_Jul_24_1508	s	s	13	4	Capacity	37	ABS	2	0	24VC	0	1	0.535903930664	None	None	None	None	1
1.7	2015_Jul_24_1508	s	s	13	4	Capacity	38	ABS	1	0	24MC	0	1	1.13602113724	None	None	None	None	1
1.7	2015_Jul_24_1508	s	s	13	4	Capacity	39	RC	1	0	23MC	0	1	2.76299595833	-477.0	147.0	None	None	0
1.7	2015_Jul_24_1508	s	s	13	4	Capacity	40	RC	2	0	23VC	1	0	0.529237031937	-382.0	290.0	-379	290	1
1.7	2015_Jul_24_1508	s	s	13	4	Capacity	41	RC	1	0	23MC	1	0	0.952729940414	-506.0	263.0	-497	262	1
1.7	2015_Jul_24_1508	s	s	13	4	Capacity	42	RC	2	0	23VC	1	0	0.520915031433	-216.0	237.0	-220	230	1
1.7	2015_Jul_24_1508	s	s	13	4	Capacity	43	ABS	1	0	24MC	0	1	1.82381296158	None	None	None	None	1
1.7	2015_Jul_24_1508	s	s	13	4	Capacity	44	ABS	2	0	24VC	0	1	0.505599021912	None	None	None	None	1
1.7	2015_Jul_24_1508	s	s	13	4	Capacity	45	ABS	1	0	24MC	0	1	1.81211614609	None	None	None	None	1
1.7	2015_Jul_24_1508	s	s	13	4	Capacity	46	RC	1	0	23MC	1	0	4.21943211555	95.0	-339.0	94	-340	1
1.7	2015_Jul_24_1508	s	s	13	4	Capacity	47	RC	2	0	23VC	1	0	0.41730594635	-336.0	-169.0	-339	-174	1
1.7	2015_Jul_24_1508	s	s	13	4	Capacity	48	ABS	2	0	24VC	0	1	0.587918043137	None	None	None	None	1
1.7	2015_Jul_24_1508	s	s	13	4	Capacity	49	RC	1	0	23MC	1	0	2.7158100605	438.0	-3.0	440	-1	1
1.7	2015_Jul_24_1508	s	s	13	4	Capacity	50	ABS	1	0	24MC	0	1	0.831560850143	None	None	None	None	1
1.7	2015_Jul_24_1508	s	s	13	4	Capacity	51	ABS	2	0	24VC	0	1	0.576475143433	None	None	None	None	1
1.7	2015_Jul_24_1508	s	s	13	4	Capacity	52	RC	2	0	23VC	1	0	0.491532087326	322.0	-155.0	331	-156	1
1.7	2015_Jul_24_1508	s	s	13	4	Capacity	53	RC	2	0	23VC	1	0	0.440651893616	-24.0	-329.0	-25	-326	1
1.7	2015_Jul_24_1508	s	s	13	4	Capacity	54	ABS	2	0	24VC	0	1	0.53581404686	None	None	None	None	1
1.7	2015_Jul_24_1508	s	s	13	4	Capacity	55	ABS	1	0	24MC	0	1	2.2542860508	None	None	None	None	1
1.7	2015_Jul_24_1508	s	s	13	4	Capacity	56	RC	1	0	23MC	1	0	5.2693631649	-3.0	-131.0	-9	-125	1
1.7	2015_Jul_24_1508	s	s	13	4	Capacity	57	RC	1	0	23MC	1	0	0.809345960617	-208.0	102.0	-204	103	1
1.7	2015_Jul_24_1508	s	s	13	4	Capacity	58	ABS	1	0	24MC	0	1	1.17394900322	None	None	None	None	1
1.7	2015_Jul_24_1508	s	s	13	4	Capacity	59	ABS	2	0	24VC	0	1	0.634974002838	None	None	None	None	1
1.7	2015_Jul_24_1508	s	s	13	4	Capacity	60	RC	2	0	23VC	1	0	0.446647882462	-291.0	-83.0	-286	-79	1
1.7	2015_Jul_24_1508	s	s	13	4	Capacity	61	RC	2	0	23VC	1	0	0.428926229477	195.0	-140.0	191	-135	1
1.7	2015_Jul_24_1508	s	s	13	4	Capacity	62	RC	1	0	23MC	1	0	0.961664915085	211.0	-320.0	212	-317	1
1.7	2015_Jul_24_1508	s	s	13	4	Capacity	63	ABS	2	0	24VC	0	1	0.524217128754	None	None	None	None	1
1.7	2015_Jul_24_1508	s	s	13	4	Capacity	64	ABS	1	0	24MC	0	1	2.29470801353	None	None	None	None	1
1.7	2015_Jul_24_1508	s	s	13	4	Capacity	65	RC	1	0	23MC	0	1	7.63337993622	-241.0	176.0	None	None	0
1.7	2015_Jul_24_1508	s	s	13	4	Capacity	66	ABS	1	0	24MC	0	1	1.73888397217	None	None	None	None	1
1.7	2015_Jul_24_1508	s	s	13	4	Capacity	67	ABS	2	0	24VC	0	1	0.552607059479	None	None	None	None	1
1.7	2015_Jul_24_1508	s	s	13	4	Capacity	68	RC	2	0	23VC	1	0	0.452786922455	507.0	-163.0	516	-155	1
1.7	2015_Jul_24_1508	s	s	13	4	Capacity	69	ABS	1	0	24MC	0	1	2.33366513252	None	None	None	None	1
1.7	2015_Jul_24_1508	s	s	13	4	Capacity	70	RC	1	0	23MC	0	1	1.66576600075	491.0	-164.0	None	None	0
1.7	2015_Jul_24_1508	s	s	13	4	Capacity	71	ABS	2	0	24VC	0	1	0.57058596611	None	None	None	None	1
1.7	2015_Jul_24_1508	s	s	13	4	Capacity	72	RC	2	0	23VC	1	0	0.561588048935	-527.0	316.0	-529	307	1
1.7	2015_Jul_24_1508	s	s	13	4	Capacity	73	ABS	2	0	24VC	0	1	0.623573064804	None	None	None	None	1
1.7	2015_Jul_24_1508	s	s	13	4	Capacity	74	RC	1	0	23MC	1	0	2.90358805656	450.0	177.0	448	177	1
1.7	2015_Jul_24_1508	s	s	13	4	Capacity	75	ABS	1	0	24MC	0	1	2.53828597069	None	None	None	None	1
1.7	2015_Jul_24_1508	s	s	13	4	Capacity	76	RC	2	0	23VC	1	0	0.49370598793	-414.0	-255.0	-404	-256	1
1.7	2015_Jul_24_1508	s	s	13	4	Capacity	77	RC	1	0	23MC	1	0	4.06931185722	178.0	214.0	173	212	1
1.7	2015_Jul_24_1508	s	s	13	4	Capacity	78	RC	2	0	23VC	1	0	0.552697181702	309.0	-310.0	308	-305	1
1.7	2015_Jul_24_1508	s	s	13	4	Capacity	79	ABS	1	0	24MC	0	1	1.92973613739	None	None	None	None	1
1.7	2015_Jul_24_1508	s	s	13	4	Capacity	80	ABS	2	0	24VC	0	1	0.664582967758	None	None	None	None	1
1.7	2015_Jul_24_1508	s	s	13	4	Capacity	81	RC	1	0	23MC	0	1	3.16566514969	69.0	153.0	None	None	0
1.7	2015_Jul_24_1508	s	s	13	4	Capacity	82	RC	2	0	23VC	1	0	0.399632930756	31.0	-251.0	23	-249	1
1.7	2015_Jul_24_1508	s	s	13	4	Capacity	83	ABS	1	0	24MC	0	1	3.24805784225	None	None	None	None	1
1.7	2015_Jul_24_1508	s	s	13	4	Capacity	84	ABS	2	0	24VC	0	1	0.808177947998	None	None	None	None	1
1.7	2015_Jul_24_1508	s	s	13	4	Capacity	85	RC	1	0	23MC	1	0	2.09437799454	-540.0	274.0	-536	274	1
1.7	2015_Jul_24_1508	s	s	13	4	Capacity	86	RC	2	0	23VC	1	0	0.550127983093	72.0	361.0	69	363	1
1.7	2015_Jul_24_1508	s	s	13	4	Capacity	87	ABS	1	0	24MC	0	1	1.65407681465	None	None	None	None	1
1.7	2015_Jul_24_1508	s	s	13	4	Capacity	88	ABS	2	0	24VC	0	1	0.594695091248	None	None	None	None	1
1.7	2015_Jul_24_1508	s	s	13	4	Capacity	89	ABS	1	0	24MC	0	1	1.77660012245	None	None	None	None	1
1.7	2015_Jul_24_1508	s	s	13	4	Capacity	90	RC	1	0	23MC	1	0	1.14112901688	-9.0	38.0	-7	37	1
1.7	2015_Jul_24_1508	s	s	13	4	Capacity	91	RC	2	0	23VC	1	0	0.532819986343	142.0	-265.0	135	-260	1
1.7	2015_Jul_24_1508	s	s	13	4	Capacity	92	ABS	2	0	24VC	0	1	0.623104095459	None	None	None	None	1
1.7	2015_Jul_24_1508	s	s	13	4	SIC	1	ABS	0	2	24RD	0	1	0.693953990936	None	None	None	None	1
1.7	2015_Jul_24_1508	s	s	13	4	SIC	2	RC	1	2	23MD	1	0	0.434829950333	-421.0	58.0	-416	58	1
1.7	2015_Jul_24_1508	s	s	13	4	SIC	3	RC	1	0	23MC	1	0	0.623625040054	-117.0	-37.0	-120	-32	1
1.7	2015_Jul_24_1508	s	s	13	4	SIC	4	RC	1	1	23MO	1	0	0.552514076233	-433.0	170.0	-430	168	1
1.7	2015_Jul_24_1508	s	s	13	4	SIC	5	ABS	1	2	24MD	0	1	0.529083013535	None	None	None	None	1
1.7	2015_Jul_24_1508	s	s	13	4	SIC	6	RC	2	1	23VO	1	0	0.476394891739	97.0	-410.0	94	-409	1
1.7	2015_Jul_24_1508	s	s	13	4	SIC	7	RC	0	2	23RD	1	0	0.505523920059	-132.0	35.0	-133	36	1
1.7	2015_Jul_24_1508	s	s	13	4	SIC	8	ABS	2	0	24VC	0	1	0.476947069168	None	None	None	None	1
1.7	2015_Jul_24_1508	s	s	13	4	SIC	9	ABS	2	1	24VO	0	1	0.522907972336	None	None	None	None	1
1.7	2015_Jul_24_1508	s	s	13	4	SIC	10	RC	2	2	23VD	1	0	0.431298971176	197.0	101.0	204	98	1
1.7	2015_Jul_24_1508	s	s	13	4	SIC	11	ABS	2	2	24VD	0	1	0.623245000839	None	None	None	None	1
1.7	2015_Jul_24_1508	s	s	13	4	SIC	12	ABS	1	1	24MO	0	1	2.27815794945	None	None	None	None	1
1.7	2015_Jul_24_1508	s	s	13	4	SIC	13	RC	0	1	23RO	1	0	1.35878992081	193.0	-354.0	189	-353	1
1.7	2015_Jul_24_1508	s	s	13	4	SIC	14	ABS	1	0	24MC	0	1	2.65617704391	None	None	None	None	1
1.7	2015_Jul_24_1508	s	s	13	4	SIC	15	RC	2	0	23VC	1	0	0.43240904808	-419.0	-391.0	-415	-384	1
1.7	2015_Jul_24_1508	s	s	13	4	SIC	16	ABS	0	1	24RO	1	0	0.105262041092	None	None	58	-70	0
1.7	2015_Jul_24_1508	s	s	13	4	SIC	17	RC	2	1	23VO	1	0	0.467435121536	155.0	233.0	152	232	1
1.7	2015_Jul_24_1508	s	s	13	4	SIC	18	ABS	0	2	24RD	0	1	0.575973033905	None	None	None	None	1
1.7	2015_Jul_24_1508	s	s	13	4	SIC	19	RC	2	0	23VC	1	0	0.517303943634	-347.0	-319.0	-346	-327	1
1.7	2015_Jul_24_1508	s	s	13	4	SIC	20	ABS	1	1	24MO	0	1	2.10631895065	None	None	None	None	1
1.7	2015_Jul_24_1508	s	s	13	4	SIC	21	ABS	2	1	24VO	1	0	0.00874805450439	None	None	11	-78	0
1.7	2015_Jul_24_1508	s	s	13	4	SIC	22	RC	0	2	23RD	1	0	0.597054958344	538.0	33.0	533	28	1
1.7	2015_Jul_24_1508	s	s	13	4	SIC	23	ABS	1	2	24MD	0	1	0.540788888931	None	None	None	None	1
1.7	2015_Jul_24_1508	s	s	13	4	SIC	24	ABS	2	0	24VC	0	1	0.576467990875	None	None	None	None	1
1.7	2015_Jul_24_1508	s	s	13	4	SIC	25	RC	1	2	23MD	1	0	0.532799005508	-232.0	-192.0	-227	-195	1
1.7	2015_Jul_24_1508	s	s	13	4	SIC	26	RC	2	2	23VD	1	0	0.454362869263	45.0	-146.0	42	-140	1
1.7	2015_Jul_24_1508	s	s	13	4	SIC	27	RC	0	1	23RO	0	1	1.3412539959	298.0	268.0	None	None	0
1.7	2015_Jul_24_1508	s	s	13	4	SIC	28	ABS	0	1	24RO	0	1	4.23681688309	None	None	None	None	1
1.7	2015_Jul_24_1508	s	s	13	4	SIC	29	ABS	1	0	24MC	0	1	1.01800394058	None	None	None	None	1
1.7	2015_Jul_24_1508	s	s	13	4	SIC	30	RC	1	0	23MC	0	1	2.09172701836	-380.0	381.0	None	None	0
1.7	2015_Jul_24_1508	s	s	13	4	SIC	31	ABS	2	2	24VD	0	1	0.465693950653	None	None	None	None	1
1.7	2015_Jul_24_1508	s	s	13	4	SIC	32	RC	1	1	23MO	1	0	1.03051996231	-253.0	-280.0	-247	-272	1
1.7	2015_Jul_24_1508	s	s	13	4	SIC	33	RC	2	1	23VO	1	0	0.446677923203	358.0	336.0	367	333	1
1.7	2015_Jul_24_1508	s	s	13	4	SIC	34	ABS	2	0	24VC	0	1	0.659028053284	None	None	None	None	1
1.7	2015_Jul_24_1508	s	s	13	4	SIC	35	RC	0	1	23RO	1	0	3.35161280632	-512.0	-9.0	-512	-16	1
1.7	2015_Jul_24_1508	s	s	13	4	SIC	36	ABS	2	2	24VD	0	1	0.689136981964	None	None	None	None	1
1.7	2015_Jul_24_1508	s	s	13	4	SIC	37	ABS	1	1	24MO	0	1	2.16295599937	None	None	None	None	1
1.7	2015_Jul_24_1508	s	s	13	4	SIC	38	RC	2	0	23VC	1	0	0.502947807312	177.0	42.0	174	38	1
1.7	2015_Jul_24_1508	s	s	13	4	SIC	39	RC	1	2	23MD	1	0	0.487478017807	-238.0	64.0	-237	56	1
1.7	2015_Jul_24_1508	s	s	13	4	SIC	40	RC	1	1	23MO	1	0	0.787826061249	84.0	-306.0	82	-305	1
1.7	2015_Jul_24_1508	s	s	13	4	SIC	41	ABS	0	1	24RO	0	1	4.69582295418	None	None	None	None	1
1.7	2015_Jul_24_1508	s	s	13	4	SIC	42	RC	2	2	23VD	1	0	0.564204931259	361.0	-217.0	368	-224	1
1.7	2015_Jul_24_1508	s	s	13	4	SIC	43	RC	0	2	23RD	1	0	0.576472043991	-26.0	-318.0	-18	-316	1
1.7	2015_Jul_24_1508	s	s	13	4	SIC	44	ABS	1	0	24MC	0	1	1.38832712173	None	None	None	None	1
1.7	2015_Jul_24_1508	s	s	13	4	SIC	45	ABS	0	2	24RD	0	1	0.850448131561	None	None	None	None	1
1.7	2015_Jul_24_1508	s	s	13	4	SIC	46	ABS	2	1	24VO	0	1	0.702862977982	None	None	None	None	1
1.7	2015_Jul_24_1508	s	s	13	4	SIC	47	RC	1	0	23MC	1	0	2.81265592575	195.0	-303.0	189	-301	1
1.7	2015_Jul_24_1508	s	s	13	4	SIC	48	ABS	1	2	24MD	0	1	0.54061293602	None	None	None	None	1
1.7	2015_Jul_24_1508	s	s	13	4	SIC	49	RC	2	1	23VO	1	0	0.0536518096924	-128.0	294.0	-124	294	1
1.7	2015_Jul_24_1508	s	s	13	4	SIC	50	ABS	1	1	24MO	0	1	0.658438205719	None	None	None	None	1
1.7	2015_Jul_24_1508	s	s	13	4	SIC	51	ABS	2	2	24VD	0	1	0.564353942871	None	None	None	None	1
1.7	2015_Jul_24_1508	s	s	13	4	SIC	52	RC	1	0	23MC	1	0	2.09440207481	466.0	1.0	465	1	1
1.7	2015_Jul_24_1508	s	s	13	4	SIC	53	ABS	2	0	24VC	0	1	0.736673116684	None	None	None	None	1
1.7	2015_Jul_24_1508	s	s	13	4	SIC	54	RC	0	2	23RD	1	0	0.605798006058	-532.0	24.0	-532	20	1
1.7	2015_Jul_24_1508	s	s	13	4	SIC	55	ABS	0	1	24RO	0	1	3.99581503868	None	None	None	None	1
1.7	2015_Jul_24_1508	s	s	13	4	SIC	56	ABS	1	2	24MD	0	1	0.523224115372	None	None	None	None	1
1.7	2015_Jul_24_1508	s	s	13	4	SIC	57	RC	1	1	23MO	1	0	0.773908138275	436.0	-310.0	434	-301	1
1.7	2015_Jul_24_1508	s	s	13	4	SIC	58	ABS	0	2	24RD	0	1	0.694197893143	None	None	None	None	1
1.7	2015_Jul_24_1508	s	s	13	4	SIC	59	ABS	2	1	24VO	0	1	0.729128837585	None	None	None	None	1
1.7	2015_Jul_24_1508	s	s	13	4	SIC	60	RC	1	2	23MD	1	0	0.022852897644	382.0	-273.0	451	-92	0
1.7	2015_Jul_24_1508	s	s	13	4	SIC	61	RC	0	1	23RO	1	0	1.83059096336	457.0	44.0	462	43	1
1.7	2015_Jul_24_1508	s	s	13	4	SIC	62	RC	2	2	23VD	1	0	0.629814863205	297.0	-113.0	303	-117	1
1.7	2015_Jul_24_1508	s	s	13	4	SIC	63	RC	2	0	23VC	1	0	0.529049158096	30.0	-326.0	36	-335	1
1.7	2015_Jul_24_1508	s	s	13	4	SIC	64	ABS	1	0	24MC	0	1	2.31825590134	None	None	None	None	1
1.7	2015_Jul_24_1508	s	s	13	4	SIC	65	RC	2	0	23VC	1	0	0.477066040039	152.0	139.0	148	135	1
1.7	2015_Jul_24_1508	s	s	13	4	SIC	66	ABS	1	1	24MO	0	1	1.19506692886	None	None	None	None	1
1.7	2015_Jul_24_1508	s	s	13	4	SIC	67	RC	0	2	23RD	1	0	0.705572128296	388.0	-262.0	388	-255	1
1.7	2015_Jul_24_1508	s	s	13	4	SIC	68	RC	1	2	23MD	1	0	0.537192821503	-87.0	-149.0	-90	-154	1
1.7	2015_Jul_24_1508	s	s	13	4	SIC	69	ABS	2	2	24VD	0	1	0.552627086639	None	None	None	None	1
1.7	2015_Jul_24_1508	s	s	13	4	SIC	70	ABS	2	1	24VO	0	1	0.653928995132	None	None	None	None	1
1.7	2015_Jul_24_1508	s	s	13	4	SIC	71	ABS	0	2	24RD	0	1	0.841548919678	None	None	None	None	1
1.7	2015_Jul_24_1508	s	s	13	4	SIC	72	RC	2	2	23VD	1	0	0.630263090134	-106.0	-175.0	-109	-185	1
1.7	2015_Jul_24_1508	s	s	13	4	SIC	73	ABS	1	2	24MD	0	1	0.587825059891	None	None	None	None	1
1.7	2015_Jul_24_1508	s	s	13	4	SIC	74	ABS	1	0	24MC	0	1	1.84736514091	None	None	None	None	1
1.7	2015_Jul_24_1508	s	s	13	4	SIC	75	RC	1	0	23MC	1	0	1.17189192772	-4.0	-247.0	-4	-255	1
1.7	2015_Jul_24_1508	s	s	13	4	SIC	76	RC	2	1	23VO	1	0	0.517231941223	-249.0	16.0	-254	17	1
1.7	2015_Jul_24_1508	s	s	13	4	SIC	77	RC	0	1	23RO	1	0	1.80029702187	-155.0	-407.0	-153	-412	1
1.7	2015_Jul_24_1508	s	s	13	4	SIC	78	ABS	2	0	24VC	0	1	0.540863990784	None	None	None	None	1
1.7	2015_Jul_24_1508	s	s	13	4	SIC	79	ABS	0	1	24RO	0	1	4.25700283051	None	None	None	None	1
1.7	2015_Jul_24_1508	s	s	13	4	SIC	80	RC	1	1	23MO	1	0	1.14114189148	318.0	250.0	311	244	1
1.7	2015_Jul_24_1508	s	s	13	4	SIC	81	ABS	1	2	24MD	0	1	0.619604825974	None	None	None	None	1
1.7	2015_Jul_24_1508	s	s	13	4	SIC	82	ABS	0	1	24RO	0	1	4.94033789635	None	None	None	None	1
1.7	2015_Jul_24_1508	s	s	13	4	SIC	83	RC	0	2	23RD	1	0	0.646792888641	-56.0	350.0	-61	344	1
1.7	2015_Jul_24_1508	s	s	13	4	SIC	84	RC	2	2	23VD	1	0	0.538506984711	372.0	-70.0	367	-73	1
1.7	2015_Jul_24_1508	s	s	13	4	SIC	85	RC	1	2	23MD	1	0	0.653007984161	26.0	-290.0	23	-291	1
1.7	2015_Jul_24_1508	s	s	13	4	SIC	86	ABS	0	2	24RD	0	1	0.691179990768	None	None	None	None	1
1.7	2015_Jul_24_1508	s	s	13	4	SIC	87	RC	2	1	23VO	1	0	0.52911400795	-434.0	333.0	-427	327	1
1.7	2015_Jul_24_1508	s	s	13	4	SIC	88	ABS	2	1	24VO	0	1	0.572242975235	None	None	None	None	1
1.7	2015_Jul_24_1508	s	s	13	4	SIC	89	ABS	1	1	24MO	0	1	1.8121111393	None	None	None	None	1
1.7	2015_Jul_24_1508	s	s	13	4	SIC	90	RC	2	0	23VC	1	0	0.641057014465	-403.0	-320.0	-409	-320	1
1.7	2015_Jul_24_1508	s	s	13	4	SIC	91	RC	1	0	23MC	1	0	1.05239796638	537.0	152.0	545	147	1
1.7	2015_Jul_24_1508	s	s	13	4	SIC	92	ABS	2	2	24VD	0	1	0.606413125992	None	None	None	None	1
1.7	2015_Jul_24_1508	s	s	13	4	SIC	93	RC	0	1	23RO	1	0	3.84574389458	-388.0	270.0	-391	266	1
1.7	2015_Jul_24_1508	s	s	13	4	SIC	94	RC	1	1	23MO	1	0	0.964601993561	357.0	294.0	354	294	1
1.7	2015_Jul_24_1508	s	s	13	4	SIC	95	ABS	2	0	24VC	0	1	0.64355802536	None	None	None	None	1
1.7	2015_Jul_24_1508	s	s	13	4	SIC	96	ABS	1	0	24MC	0	1	1.59681296349	None	None	None	None	1
1.7	2015_Jul_24_1508	s	s	13	4	SIC	97	ABS	1	1	24MO	0	1	1.84744000435	None	None	None	None	1
1.7	2015_Jul_24_1508	s	s	13	4	SIC	98	ABS	1	0	24MC	0	1	2.20069289207	None	None	None	None	1
1.7	2015_Jul_24_1508	s	s	13	4	SIC	99	ABS	0	2	24RD	0	1	0.632579088211	None	None	None	None	1
1.7	2015_Jul_24_1508	s	s	13	4	SIC	100	ABS	2	1	24VO	0	1	0.634827852249	None	None	None	None	1
1.7	2015_Jul_24_1508	s	s	13	4	SIC	101	ABS	2	0	24VC	0	1	1.1387860775	None	None	None	None	1
1.7	2015_Jul_24_1508	s	s	13	4	SIC	102	RC	0	2	23RD	1	0	0.842660903931	-48.0	42.0	-43	45	1
1.7	2015_Jul_24_1508	s	s	13	4	SIC	103	ABS	0	1	24RO	0	1	3.79884719849	None	None	None	None	1
1.7	2015_Jul_24_1508	s	s	13	4	SIC	104	RC	2	0	23VC	1	0	0.4651658535	306.0	-313.0	300	-313	1
1.7	2015_Jul_24_1508	s	s	13	4	SIC	105	RC	1	1	23MO	1	0	0.729206085205	249.0	410.0	247	401	1
1.7	2015_Jul_24_1508	s	s	13	4	SIC	106	RC	1	2	23MD	1	0	0.529099941254	-345.0	-246.0	-351	-247	1
1.7	2015_Jul_24_1508	s	s	13	4	SIC	107	ABS	2	2	24VD	0	1	0.517582178116	None	None	None	None	1
1.7	2015_Jul_24_1508	s	s	13	4	SIC	108	RC	0	1	23RO	1	0	1.43164682388	-219.0	-142.0	-220	-148	1
1.7	2015_Jul_24_1508	s	s	13	4	SIC	109	RC	1	0	23MC	1	0	3.63391900063	-495.0	-242.0	-503	-246	1
1.7	2015_Jul_24_1508	s	s	13	4	SIC	110	ABS	1	2	24MD	0	1	0.587939023972	None	None	None	None	1
1.7	2015_Jul_24_1508	s	s	13	4	SIC	111	RC	2	1	23VO	1	0	1.05541300774	511.0	-114.0	517	-122	1
1.7	2015_Jul_24_1508	s	s	13	4	SIC	112	RC	2	2	23VD	1	0	0.609148025513	236.0	122.0	241	120	1
1.7	2015_Jul_24_1508	s	s	13	4	SIC	113	ABS	1	1	24MO	0	1	1.89447903633	None	None	None	None	1
1.7	2015_Jul_24_1508	s	s	13	4	SIC	114	RC	0	1	23RO	1	0	0.702826976776	161.0	-57.0	156	-60	1
1.7	2015_Jul_24_1508	s	s	13	4	SIC	115	RC	0	2	23RD	1	0	0.512372016907	-298.0	-200.0	-295	-203	1
1.7	2015_Jul_24_1508	s	s	13	4	SIC	116	RC	1	1	23MO	1	0	5.71432304382	-423.0	360.0	-421	355	1
1.7	2015_Jul_24_1508	s	s	13	4	SIC	117	ABS	2	1	24VO	0	1	0.776288032532	None	None	None	None	1
1.7	2015_Jul_24_1508	s	s	13	4	SIC	118	ABS	0	2	24RD	0	1	0.796253919601	None	None	None	None	1
1.7	2015_Jul_24_1508	s	s	13	4	SIC	119	ABS	0	1	24RO	0	1	5.53211593628	None	None	None	None	1
1.7	2015_Jul_24_1508	s	s	13	4	SIC	120	RC	1	0	23MC	1	0	3.8459649086	-321.0	197.0	-322	192	1
1.7	2015_Jul_24_1508	s	s	13	4	SIC	121	ABS	2	2	24VD	0	1	0.817879199982	None	None	None	None	1
1.7	2015_Jul_24_1508	s	s	13	4	SIC	122	ABS	1	2	24MD	0	1	1.01162004471	None	None	None	None	1
1.7	2015_Jul_24_1508	s	s	13	4	SIC	123	RC	2	1	23VO	1	0	0.712491989136	-336.0	-232.0	-335	-234	1
1.7	2015_Jul_24_1508	s	s	13	4	SIC	124	ABS	1	0	24MC	0	1	2.20052409172	None	None	None	None	1
1.7	2015_Jul_24_1508	s	s	13	4	SIC	125	RC	2	2	23VD	1	0	0.487712144852	72.0	-85.0	75	-81	1
1.7	2015_Jul_24_1508	s	s	13	4	SIC	126	ABS	2	0	24VC	0	1	0.582103967667	None	None	None	None	1
1.7	2015_Jul_24_1508	s	s	13	4	SIC	127	RC	2	0	23VC	1	0	0.606768131256	-148.0	-140.0	-143	-133	1
1.7	2015_Jul_24_1508	s	s	13	4	SIC	128	RC	1	2	23MD	1	0	0.726001024246	442.0	-60.0	440	-63	1
1.7	2015_Jul_24_1508	s	s	13	4	SIC	129	ABS	0	1	24RO	0	1	4.94301700592	None	None	None	None	1
1.7	2015_Jul_24_1508	s	s	13	4	SIC	130	RC	1	0	23MC	1	0	1.06717681885	128.0	248.0	123	248	1
1.7	2015_Jul_24_1508	s	s	13	4	SIC	131	ABS	1	0	24MC	0	1	2.17690706253	None	None	None	None	1
1.7	2015_Jul_24_1508	s	s	13	4	SIC	132	ABS	1	2	24MD	0	1	1.40691709518	None	None	None	None	1
1.7	2015_Jul_24_1508	s	s	13	4	SIC	133	RC	2	1	23VO	1	0	3.84313893318	-497.0	-24.0	-495	-25	1
1.7	2015_Jul_24_1508	s	s	13	4	SIC	134	RC	2	2	23VD	1	0	1.38827610016	-18.0	236.0	-17	233	1
1.7	2015_Jul_24_1508	s	s	13	4	SIC	135	RC	0	2	23RD	1	0	1.48006391525	199.0	141.0	197	148	1
1.7	2015_Jul_24_1508	s	s	13	4	SIC	136	ABS	2	0	24VC	0	1	3.5847120285	None	None	None	None	1
1.7	2015_Jul_24_1508	s	s	13	4	SIC	137	ABS	0	2	24RD	0	1	3.03267002106	None	None	None	None	1
1.7	2015_Jul_24_1508	s	s	13	4	SIC	138	RC	2	0	23VC	1	0	0.51730298996	498.0	-186.0	490	-187	1
1.7	2015_Jul_24_1508	s	s	13	4	SIC	139	RC	1	2	23MD	1	0	0.485563993454	-119.0	66.0	-117	61	1
1.7	2015_Jul_24_1508	s	s	13	4	SIC	140	RC	1	1	23MO	1	0	1.57650208473	-221.0	159.0	-228	158	1
1.7	2015_Jul_24_1508	s	s	13	4	SIC	141	ABS	2	1	24VO	0	1	0.611424922943	None	None	None	None	1
1.7	2015_Jul_24_1508	s	s	13	4	SIC	142	ABS	2	2	24VD	0	1	1.01165008545	None	None	None	None	1
1.7	2015_Jul_24_1508	s	s	13	4	SIC	143	RC	0	1	23RO	1	0	2.65379309654	-487.0	78.0	-491	80	1
1.7	2015_Jul_24_1508	s	s	13	4	SIC	144	ABS	1	1	24MO	0	1	1.38829708099	None	None	None	None	1
1.7	2015_Jul_24_1508	s	s	13	4	SIC	145	ABS	2	0	24VC	0	1	0.597234010696	None	None	None	None	1
1.7	2015_Jul_24_1508	s	s	13	4	SIC	146	ABS	0	1	24RO	0	1	3.58939790726	None	None	None	None	1
1.7	2015_Jul_24_1508	s	s	13	4	SIC	147	RC	2	1	23VO	1	0	0.856354951859	-352.0	126.0	-346	122	1
1.7	2015_Jul_24_1508	s	s	13	4	SIC	148	RC	1	1	23MO	1	0	1.03136992455	-388.0	-256.0	-390	-249	1
1.7	2015_Jul_24_1508	s	s	13	4	SIC	149	ABS	1	2	24MD	0	1	0.581822156906	None	None	None	None	1
1.7	2015_Jul_24_1508	s	s	13	4	SIC	150	RC	0	1	23RO	1	0	1.5417637825	-89.0	-285.0	-88	-298	1
1.7	2015_Jul_24_1508	s	s	13	4	SIC	151	RC	0	2	23RD	1	0	0.640615940094	-296.0	-116.0	-296	-116	1
1.7	2015_Jul_24_1508	s	s	13	4	SIC	152	RC	1	2	23MD	1	0	1.0071208477	25.0	373.0	24	379	1
1.7	2015_Jul_24_1508	s	s	13	4	SIC	153	ABS	2	2	24VD	0	1	0.994765996933	None	None	None	None	1
1.7	2015_Jul_24_1508	s	s	13	4	SIC	154	ABS	1	1	24MO	0	1	1.07735395432	None	None	None	None	1
1.7	2015_Jul_24_1508	s	s	13	4	SIC	155	RC	2	2	23VD	1	0	7.62405085564	-320.0	281.0	-322	278	1
1.7	2015_Jul_24_1508	s	s	13	4	SIC	156	ABS	1	0	24MC	0	1	5.88457798958	None	None	None	None	1
1.7	2015_Jul_24_1508	s	s	13	4	SIC	157	ABS	0	2	24RD	0	1	1.16461706161	None	None	None	None	1
1.7	2015_Jul_24_1508	s	s	13	4	SIC	158	RC	2	0	23VC	1	0	1.99589014053	104.0	-27.0	110	-21	1
1.7	2015_Jul_24_1508	s	s	13	4	SIC	159	RC	1	0	23MC	0	1	1.69437193871	-219.0	-138.0	None	None	0
1.7	2015_Jul_24_1508	s	s	13	4	SIC	160	ABS	2	1	24VO	0	1	0.587862014771	None	None	None	None	1
1.7	2015_Jul_24_1508	s	s	13	4	SIC	161	RC	0	1	23RO	1	0	1.25537586212	248.0	-290.0	236	-288	1
1.7	2015_Jul_24_1508	s	s	13	4	SIC	162	RC	1	2	23MD	1	0	0.549038887024	-129.0	-360.0	-126	-358	1
1.7	2015_Jul_24_1508	s	s	13	4	SIC	163	RC	1	0	23MC	0	1	1.28236889839	-214.0	205.0	None	None	0
1.7	2015_Jul_24_1508	s	s	13	4	SIC	164	ABS	1	0	24MC	0	1	0.678362131119	None	None	None	None	1
1.7	2015_Jul_24_1508	s	s	13	4	SIC	165	ABS	0	2	24RD	0	1	0.724087953568	None	None	None	None	1
1.7	2015_Jul_24_1508	s	s	13	4	SIC	166	RC	0	2	23RD	1	0	0.667032957077	535.0	-398.0	542	-391	1
1.7	2015_Jul_24_1508	s	s	13	4	SIC	167	ABS	1	2	24MD	0	1	0.776268005371	None	None	None	None	1
1.7	2015_Jul_24_1508	s	s	13	4	SIC	168	ABS	1	1	24MO	0	1	0.811527967453	None	None	None	None	1
1.7	2015_Jul_24_1508	s	s	13	4	SIC	169	ABS	2	0	24VC	0	1	0.583043813705	None	None	None	None	1
1.7	2015_Jul_24_1508	s	s	13	4	SIC	170	ABS	2	2	24VD	0	1	0.564297199249	None	None	None	None	1
1.7	2015_Jul_24_1508	s	s	13	4	SIC	171	RC	2	2	23VD	1	0	0.617964029312	326.0	90.0	322	90	1
1.7	2015_Jul_24_1508	s	s	13	4	SIC	172	RC	1	1	23MO	1	0	2.08056378365	-159.0	155.0	-159	148	1
1.7	2015_Jul_24_1508	s	s	13	4	SIC	173	ABS	2	1	24VO	0	1	0.478418111801	None	None	None	None	1
1.7	2015_Jul_24_1508	s	s	13	4	SIC	174	RC	2	1	23VO	1	0	4.56634116173	34.0	258.0	36	257	1
1.7	2015_Jul_24_1508	s	s	13	4	SIC	175	ABS	0	1	24RO	0	1	3.98463702202	None	None	None	None	1
1.7	2015_Jul_24_1508	s	s	13	4	SIC	176	RC	2	0	23VC	1	0	2.61252713203	296.0	-92.0	296	-94	1
1.7	2015_Jul_24_1508	s	s	13	4	SIC	177	RC	1	1	23MO	1	0	0.499600172043	-405.0	-124.0	-397	-122	1
1.7	2015_Jul_24_1508	s	s	13	4	SIC	178	RC	2	2	23VD	1	0	0.417853116989	412.0	-127.0	412	-128	1
1.7	2015_Jul_24_1508	s	s	13	4	SIC	179	RC	0	2	23RD	1	0	0.446641921997	69.0	173.0	71	176	1
1.7	2015_Jul_24_1508	s	s	13	4	SIC	180	ABS	1	0	24MC	0	1	1.09064507484	None	None	None	None	1
1.7	2015_Jul_24_1508	s	s	13	4	SIC	181	ABS	1	2	24MD	0	1	0.782609939575	None	None	None	None	1
1.7	2015_Jul_24_1508	s	s	13	4	SIC	182	ABS	2	1	24VO	0	1	0.65846991539	None	None	None	None	1
1.7	2015_Jul_24_1508	s	s	13	4	SIC	183	ABS	1	1	24MO	0	1	1.64395999908	None	None	None	None	1
1.7	2015_Jul_24_1508	s	s	13	4	SIC	184	RC	1	0	23MC	1	0	0.99657702446	246.0	284.0	245	287	1
1.7	2015_Jul_24_1508	s	s	13	4	SIC	185	ABS	2	2	24VD	0	1	0.549759864807	None	None	None	None	1
1.7	2015_Jul_24_1508	s	s	13	4	SIC	186	RC	0	1	23RO	1	0	0.794132947922	-211.0	-64.0	-212	-61	1
1.7	2015_Jul_24_1508	s	s	13	4	SIC	187	RC	1	2	23MD	1	0	0.558876991272	243.0	88.0	234	92	1
1.7	2015_Jul_24_1508	s	s	13	4	SIC	188	ABS	0	2	24RD	0	1	0.653795003891	None	None	None	None	1
1.7	2015_Jul_24_1508	s	s	13	4	SIC	189	ABS	2	0	24VC	0	1	1.05533003807	None	None	None	None	1
1.7	2015_Jul_24_1508	s	s	13	4	SIC	190	RC	2	0	23VC	1	0	0.466357946396	144.0	106.0	142	105	1
1.7	2015_Jul_24_1508	s	s	13	4	SIC	191	RC	2	1	23VO	1	0	0.411550045013	61.0	309.0	57	309	1
1.7	2015_Jul_24_1508	s	s	13	4	SIC	192	ABS	0	1	24RO	0	1	3.00086808205	None	None	None	None	1
1.7	2015_Jul_24_1508	s	s	13	4	SIC	193	RC	2	2	23VD	1	0	0.488575935364	188.0	-94.0	184	-91	1
1.7	2015_Jul_24_1508	s	s	13	4	SIC	194	ABS	0	2	24RD	0	1	0.493710041046	None	None	None	None	1
1.7	2015_Jul_24_1508	s	s	13	4	SIC	195	ABS	1	2	24MD	0	1	0.599558115005	None	None	None	None	1
1.7	2015_Jul_24_1508	s	s	13	4	SIC	196	RC	2	0	23VC	1	0	0.623157024384	344.0	367.0	339	369	1
1.7	2015_Jul_24_1508	s	s	13	4	SIC	197	RC	0	1	23RO	1	0	1.595454216	364.0	-274.0	366	-266	1
1.7	2015_Jul_24_1508	s	s	13	4	SIC	198	RC	1	0	23MC	1	0	0.776240825653	145.0	168.0	146	171	1
1.7	2015_Jul_24_1508	s	s	13	4	SIC	199	ABS	1	0	24MC	0	1	1.11504006386	None	None	None	None	1
1.7	2015_Jul_24_1508	s	s	13	4	SIC	200	ABS	1	1	24MO	0	1	0.667791128159	None	None	None	None	1
1.7	2015_Jul_24_1508	s	s	13	4	SIC	201	RC	1	2	23MD	1	0	0.681962013245	305.0	-73.0	306	-82	1
1.7	2015_Jul_24_1508	s	s	13	4	SIC	202	ABS	2	1	24VO	0	1	0.605829000473	None	None	None	None	1
1.7	2015_Jul_24_1508	s	s	13	4	SIC	203	ABS	2	0	24VC	0	1	0.705608844757	None	None	None	None	1
1.7	2015_Jul_24_1508	s	s	13	4	SIC	204	ABS	2	2	24VD	0	1	0.667422056198	None	None	None	None	1
1.7	2015_Jul_24_1508	s	s	13	4	SIC	205	RC	0	2	23RD	1	0	0.493751049042	466.0	67.0	470	60	1
1.7	2015_Jul_24_1508	s	s	13	4	SIC	206	RC	1	1	23MO	1	0	0.467577934265	472.0	22.0	478	17	1
1.7	2015_Jul_24_1508	s	s	13	4	SIC	207	RC	2	1	23VO	1	0	0.512344121933	-224.0	-243.0	-218	-242	1
1.7	2015_Jul_24_1508	s	s	13	4	SIC	208	ABS	0	1	24RO	0	1	3.24323105812	None	None	None	None	1
1.7	2015_Jul_24_1508	s	s	13	4	SIC	209	RC	2	2	23VD	1	0	0.434920072556	213.0	-372.0	210	-376	1
1.7	2015_Jul_24_1508	s	s	13	4	SIC	210	ABS	1	1	24MO	0	1	1.2650680542	None	None	None	None	1
1.7	2015_Jul_24_1508	s	s	13	4	SIC	211	RC	0	2	23RD	1	0	0.538620948792	-479.0	352.0	-490	355	1
1.7	2015_Jul_24_1508	s	s	13	4	SIC	212	RC	1	1	23MO	1	0	1.11756896973	-339.0	-195.0	-334	-193	1
1.7	2015_Jul_24_1508	s	s	13	4	SIC	213	ABS	0	1	24RO	0	1	2.23575305939	None	None	None	None	1
1.7	2015_Jul_24_1508	s	s	13	4	SIC	214	ABS	1	0	24MC	0	1	1.26807999611	None	None	None	None	1
1.7	2015_Jul_24_1508	s	s	13	4	SIC	215	ABS	2	2	24VD	0	1	0.711537122726	None	None	None	None	1
1.7	2015_Jul_24_1508	s	s	13	4	SIC	216	RC	2	0	23VC	1	0	0.501805782318	-126.0	-204.0	-135	-206	1
1.7	2015_Jul_24_1508	s	s	13	4	SIC	217	RC	1	2	23MD	1	0	0.423555135727	-158.0	-283.0	-159	-283	1
1.7	2015_Jul_24_1508	s	s	13	4	SIC	218	ABS	2	1	24VO	0	1	0.467557907104	None	None	None	None	1
1.7	2015_Jul_24_1508	s	s	13	4	SIC	219	ABS	0	2	24RD	0	1	1.7686290741	None	None	None	None	1
1.7	2015_Jul_24_1508	s	s	13	4	SIC	220	RC	2	1	23VO	1	0	0.430474996567	-397.0	153.0	-399	144	1
1.7	2015_Jul_24_1508	s	s	13	4	SIC	221	RC	0	1	23RO	0	1	4.4251639843	403.0	-5.0	None	None	0
1.7	2015_Jul_24_1508	s	s	13	4	SIC	222	ABS	2	0	24VC	0	1	2.12519288063	None	None	None	None	1
1.7	2015_Jul_24_1508	s	s	13	4	SIC	223	ABS	1	2	24MD	0	1	3.07155108452	None	None	None	None	1
1.7	2015_Jul_24_1508	s	s	13	4	SIC	224	RC	1	0	23MC	1	0	1.10259389877	-376.0	113.0	-378	106	1
1.7	2015_Jul_24_1508	s	s	13	4	SIC	225	RC	1	1	23MO	1	0	3.58436203003	-247.0	-74.0	-247	-81	1
1.7	2015_Jul_24_1508	s	s	13	4	SIC	226	RC	1	2	23MD	1	0	2.07961392403	-68.0	140.0	-63	137	1
1.7	2015_Jul_24_1508	s	s	13	4	SIC	227	ABS	2	2	24VD	0	1	0.670174121857	None	None	None	None	1
1.7	2015_Jul_24_1508	s	s	13	4	SIC	228	RC	2	2	23VD	1	0	0.423209190369	-251.0	249.0	-251	244	1
1.7	2015_Jul_24_1508	s	s	13	4	SIC	229	ABS	1	0	24MC	0	1	1.36501789093	None	None	None	None	1
1.7	2015_Jul_24_1508	s	s	13	4	SIC	230	ABS	1	1	24MO	0	1	3.30692911148	None	None	None	None	1
1.7	2015_Jul_24_1508	s	s	13	4	SIC	231	ABS	2	0	24VC	0	1	5.59041118622	None	None	None	None	1
1.7	2015_Jul_24_1508	s	s	13	4	SIC	232	ABS	0	1	24RO	0	1	5.55515098572	None	None	None	None	1
1.7	2015_Jul_24_1508	s	s	13	4	SIC	233	RC	1	0	23MC	1	0	2.1848590374	408.0	71.0	410	64	1
1.7	2015_Jul_24_1508	s	s	13	4	SIC	234	ABS	0	2	24RD	0	1	1.49077486992	None	None	None	None	1
1.7	2015_Jul_24_1508	s	s	13	4	SIC	235	ABS	2	1	24VO	0	1	0.952825069427	None	None	None	None	1
1.7	2015_Jul_24_1508	s	s	13	4	SIC	236	RC	2	0	23VC	1	0	0.493751049042	34.0	-316.0	34	-323	1
1.7	2015_Jul_24_1508	s	s	13	4	SIC	237	RC	0	1	23RO	0	1	2.16909003258	451.0	322.0	None	None	0
1.7	2015_Jul_24_1508	s	s	13	4	SIC	238	ABS	1	2	24MD	0	1	0.505481004715	None	None	None	None	1
1.7	2015_Jul_24_1508	s	s	13	4	SIC	239	RC	0	2	23RD	1	0	0.623234033585	-205.0	172.0	-205	176	1
1.7	2015_Jul_24_1508	s	s	13	4	SIC	240	RC	2	1	23VO	1	0	0.411274194717	-30.0	-306.0	-37	-300	1
1.7	2015_Jul_24_1508	s	s	13	4	SIC	241	ABS	0	2	24RD	0	1	0.548519849777	None	None	None	None	1
1.7	2015_Jul_24_1508	s	s	13	4	SIC	242	ABS	2	0	24VC	0	1	0.62319111824	None	None	None	None	1
1.7	2015_Jul_24_1508	s	s	13	4	SIC	243	RC	2	1	23VO	1	0	0.740761041641	-277.0	204.0	-275	199	1
1.7	2015_Jul_24_1508	s	s	13	4	SIC	244	RC	0	1	23RO	1	0	0.985602140427	-485.0	173.0	-488	172	1
1.7	2015_Jul_24_1508	s	s	13	4	SIC	245	RC	2	0	23VC	1	0	0.529075860977	25.0	398.0	23	396	1
1.7	2015_Jul_24_1508	s	s	13	4	SIC	246	ABS	1	0	24MC	0	1	1.14105510712	None	None	None	None	1
1.7	2015_Jul_24_1508	s	s	13	4	SIC	247	RC	1	0	23MC	1	0	1.1329870224	-538.0	-115.0	-538	-116	1
1.7	2015_Jul_24_1508	s	s	13	4	SIC	248	RC	1	2	23MD	1	0	0.49111199379	-490.0	366.0	-488	372	1
1.7	2015_Jul_24_1508	s	s	13	4	SIC	249	RC	0	2	23RD	1	0	0.408481836319	-173.0	198.0	-171	193	1
1.7	2015_Jul_24_1508	s	s	13	4	SIC	250	ABS	2	1	24VO	0	1	0.51728105545	None	None	None	None	1
1.7	2015_Jul_24_1508	s	s	13	4	SIC	251	ABS	1	2	24MD	0	1	0.594226837158	None	None	None	None	1
1.7	2015_Jul_24_1508	s	s	13	4	SIC	252	ABS	0	1	24RO	0	1	4.51507997513	None	None	None	None	1
1.7	2015_Jul_24_1508	s	s	13	4	SIC	253	ABS	1	1	24MO	0	1	1.79457116127	None	None	None	None	1
1.7	2015_Jul_24_1508	s	s	13	4	SIC	254	ABS	2	2	24VD	0	1	0.741098880768	None	None	None	None	1
1.7	2015_Jul_24_1508	s	s	13	4	SIC	255	RC	1	1	23MO	1	0	1.82125496864	279.0	277.0	282	274	1
1.7	2015_Jul_24_1508	s	s	13	4	SIC	256	RC	2	2	23VD	1	0	0.642945051193	-512.0	85.0	-516	88	1
1.7	2015_Jul_24_1508	s	s	13	4	SIC	257	RC	2	0	23VC	1	0	0.711651086807	133.0	-328.0	134	-325	1
1.7	2015_Jul_24_1508	s	s	13	4	SIC	258	ABS	1	2	24MD	0	1	0.523599147797	None	None	None	None	1
1.7	2015_Jul_24_1508	s	s	13	4	SIC	259	ABS	2	0	24VC	0	1	0.61136007309	None	None	None	None	1
1.7	2015_Jul_24_1508	s	s	13	4	SIC	260	ABS	2	1	24VO	0	1	0.446514129639	None	None	None	None	1
1.7	2015_Jul_24_1508	s	s	13	4	SIC	261	RC	1	0	23MC	0	1	3.37003016472	122.0	359.0	None	None	0
1.7	2015_Jul_24_1508	s	s	13	4	SIC	262	ABS	0	1	24RO	0	1	4.37806391716	None	None	None	None	1
1.7	2015_Jul_24_1508	s	s	13	4	SIC	263	ABS	1	0	24MC	0	1	1.27051711082	None	None	None	None	1
1.7	2015_Jul_24_1508	s	s	13	4	SIC	264	RC	0	1	23RO	1	0	1.19475197792	-222.0	58.0	-226	51	1
1.7	2015_Jul_24_1508	s	s	13	4	SIC	265	RC	2	1	23VO	0	1	0.465657949448	-40.0	-358.0	None	None	0
1.7	2015_Jul_24_1508	s	s	13	4	SIC	266	RC	0	2	23RD	1	0	0.45207285881	-166.0	44.0	-157	40	1
1.7	2015_Jul_24_1508	s	s	13	4	SIC	267	ABS	0	2	24RD	0	1	0.72918009758	None	None	None	None	1
1.7	2015_Jul_24_1508	s	s	13	4	SIC	268	ABS	1	1	24MO	0	1	1.9886059761	None	None	None	None	1
1.7	2015_Jul_24_1508	s	s	13	4	SIC	269	RC	2	2	23VD	1	0	0.487128973007	-330.0	105.0	-327	102	1
1.7	2015_Jul_24_1508	s	s	13	4	SIC	270	RC	1	2	23MD	1	0	1.7061958313	-76.0	15.0	-74	23	1
1.7	2015_Jul_24_1508	s	s	13	4	SIC	271	RC	1	1	23MO	1	0	1.31305599213	85.0	-386.0	88	-393	1
1.7	2015_Jul_24_1508	s	s	13	4	SIC	272	ABS	2	2	24VD	0	1	0.71744799614	None	None	None	None	1
1.7	2015_Jul_24_1508	s	s	13	4	SIC	273	ABS	1	2	24MD	0	1	0.717419147491	None	None	None	None	1
1.7	2015_Jul_24_1508	s	s	13	4	SIC	274	ABS	2	1	24VO	0	1	0.618918895721	None	None	None	None	1
1.7	2015_Jul_24_1508	s	s	13	4	SIC	275	ABS	0	1	24RO	0	1	3.930768013	None	None	None	None	1
1.7	2015_Jul_24_1508	s	s	13	4	SIC	276	ABS	1	0	24MC	0	1	2.30633401871	None	None	None	None	1
1.7	2015_Jul_24_1508	s	s	13	4	SIC	277	ABS	2	2	24VD	0	1	0.545231103897	None	None	None	None	1
1.7	2015_Jul_24_1508	s	s	13	4	SIC	278	RC	1	2	23MD	1	0	0.549293994904	-181.0	384.0	-179	382	1
1.7	2015_Jul_24_1508	s	s	13	4	SIC	279	ABS	0	2	24RD	0	1	1.22347712517	None	None	None	None	1
1.7	2015_Jul_24_1508	s	s	13	4	SIC	280	RC	0	1	23RO	1	0	3.21275210381	517.0	-92.0	525	-87	1
1.7	2015_Jul_24_1508	s	s	13	4	SIC	281	RC	1	0	23MC	1	0	0.971128940582	387.0	-166.0	396	-166	1
1.7	2015_Jul_24_1508	s	s	13	4	SIC	282	RC	1	1	23MO	1	0	1.04186987877	171.0	-120.0	176	-118	1
1.7	2015_Jul_24_1508	s	s	13	4	SIC	283	ABS	2	0	24VC	0	1	0.587833166122	None	None	None	None	1
1.7	2015_Jul_24_1508	s	s	13	4	SIC	284	RC	2	1	23VO	1	0	0.488773822784	-10.0	129.0	-22	131	1
1.7	2015_Jul_24_1508	s	s	13	4	SIC	285	RC	2	2	23VD	1	0	0.438544988632	-533.0	132.0	-534	132	1
1.7	2015_Jul_24_1508	s	s	13	4	SIC	286	RC	0	2	23RD	1	0	0.45388007164	169.0	-39.0	169	-47	1
1.7	2015_Jul_24_1508	s	s	13	4	SIC	287	RC	2	0	23VC	1	0	0.458439826965	474.0	272.0	477	270	1
1.7	2015_Jul_24_1508	s	s	13	4	SIC	288	ABS	1	1	24MO	0	1	0.819802999496	None	None	None	None	1
1.7	2015_Jul_24_1508	s	s	13	4	SIC	289	ABS	1	0	24MC	0	1	1.00725007057	None	None	None	None	1
1.7	2015_Jul_24_1508	s	s	13	4	SIC	290	RC	1	0	23MC	1	0	0.78325510025	-408.0	222.0	-418	226	1
1.7	2015_Jul_24_1508	s	s	13	4	SIC	291	RC	0	1	23RO	1	0	0.762176990509	51.0	-70.0	48	-66	1
1.7	2015_Jul_24_1508	s	s	13	4	SIC	292	ABS	0	2	24RD	0	1	0.596882820129	None	None	None	None	1
1.7	2015_Jul_24_1508	s	s	13	4	SIC	293	ABS	0	1	24RO	0	1	5.17840480804	None	None	None	None	1
1.7	2015_Jul_24_1508	s	s	13	4	SIC	294	RC	0	2	23RD	1	0	0.597199201584	-217.0	-153.0	-214	-150	1
1.7	2015_Jul_24_1508	s	s	13	4	SIC	295	RC	2	2	23VD	1	0	0.408243894577	-331.0	81.0	-336	77	1
1.7	2015_Jul_24_1508	s	s	13	4	SIC	296	RC	1	1	23MO	1	0	0.564227104187	-153.0	148.0	-153	148	1
1.7	2015_Jul_24_1508	s	s	13	4	SIC	297	RC	2	0	23VC	1	0	0.561831951141	230.0	363.0	234	352	1
1.7	2015_Jul_24_1508	s	s	13	4	SIC	298	ABS	2	1	24VO	0	1	0.470180988312	None	None	None	None	1
1.7	2015_Jul_24_1508	s	s	13	4	SIC	299	RC	2	1	23VO	1	0	0.41937494278	314.0	-314.0	313	-320	1
1.7	2015_Jul_24_1508	s	s	13	4	SIC	300	ABS	2	0	24VC	0	1	0.440521001816	None	None	None	None	1
1.7	2015_Jul_24_1508	s	s	13	4	SIC	301	RC	1	2	23MD	1	0	0.430998086929	-133.0	-300.0	-136	-303	1
1.7	2015_Jul_24_1508	s	s	13	4	SIC	302	ABS	1	1	24MO	0	1	0.572857141495	None	None	None	None	1
1.7	2015_Jul_24_1508	s	s	13	4	SIC	303	ABS	1	2	24MD	0	1	0.576188087463	None	None	None	None	1
1.7	2015_Jul_24_1508	s	s	13	4	SIC	304	ABS	2	2	24VD	0	1	0.571182012558	None	None	None	None	1
1.7	2015_Jul_24_1508	s	s	13	4	SIC	305	RC	0	2	23RD	1	0	0.505527973175	-186.0	211.0	-194	207	1
1.7	2015_Jul_24_1508	s	s	13	4	SIC	306	ABS	0	2	24RD	0	1	0.552636146545	None	None	None	None	1
1.7	2015_Jul_24_1508	s	s	13	4	SIC	307	RC	2	2	23VD	1	0	0.408997058868	4.0	-138.0	2	-140	1
1.7	2015_Jul_24_1508	s	s	13	4	SIC	308	ABS	2	2	24VD	0	1	0.47605919838	None	None	None	None	1
1.7	2015_Jul_24_1508	s	s	13	4	SIC	309	RC	2	1	23VO	1	0	0.564244031906	-367.0	236.0	-367	231	1
1.7	2015_Jul_24_1508	s	s	13	4	SIC	310	ABS	1	2	24MD	0	1	0.584689855576	None	None	None	None	1
1.7	2015_Jul_24_1508	s	s	13	4	SIC	311	ABS	1	1	24MO	0	1	1.21783900261	None	None	None	None	1
1.7	2015_Jul_24_1508	s	s	13	4	SIC	312	ABS	2	0	24VC	0	1	0.481971979141	None	None	None	None	1
1.7	2015_Jul_24_1508	s	s	13	4	SIC	313	RC	1	1	23MO	1	0	0.705592155457	-307.0	-232.0	-314	-232	1
1.7	2015_Jul_24_1508	s	s	13	4	SIC	314	RC	1	0	23MC	1	0	0.608858823776	30.0	-39.0	34	-40	1
1.7	2015_Jul_24_1508	s	s	13	4	SIC	315	ABS	2	1	24VO	0	1	0.540795087814	None	None	None	None	1
1.7	2015_Jul_24_1508	s	s	13	4	SIC	316	RC	1	2	23MD	1	0	0.571093082428	206.0	241.0	204	247	1
1.7	2015_Jul_24_1508	s	s	13	4	SIC	317	RC	0	1	23RO	1	0	0.782223939896	141.0	-112.0	140	-105	1
1.7	2015_Jul_24_1508	s	s	13	4	SIC	318	RC	2	0	23VC	1	0	0.723698139191	-162.0	-67.0	-164	-71	1
1.7	2015_Jul_24_1508	s	s	13	4	SIC	319	ABS	1	0	24MC	0	1	1.16175103188	None	None	None	None	1
1.7	2015_Jul_24_1508	s	s	13	4	SIC	320	ABS	0	1	24RO	0	1	3.52492499352	None	None	None	None	1
1.7	2015_Jul_24_1508	s	s	13	4	SIC	321	RC	0	2	23RD	1	0	0.599664926529	-208.0	330.0	-201	323	1
1.7	2015_Jul_24_1508	s	s	13	4	SIC	322	RC	1	0	23MC	1	0	0.724080085754	113.0	5.0	116	4	1
1.7	2015_Jul_24_1508	s	s	13	4	SIC	323	ABS	2	2	24VD	0	1	0.524026155472	None	None	None	None	1
1.7	2015_Jul_24_1508	s	s	13	4	SIC	324	ABS	0	1	24RO	0	1	4.26033902168	None	None	None	None	1
1.7	2015_Jul_24_1508	s	s	13	4	SIC	325	RC	2	1	23VO	1	0	0.517263174057	301.0	-159.0	299	-162	1
1.7	2015_Jul_24_1508	s	s	13	4	SIC	326	RC	1	1	23MO	1	0	0.846913099289	136.0	-239.0	139	-241	1
1.7	2015_Jul_24_1508	s	s	13	4	SIC	327	ABS	1	2	24MD	0	1	0.6114590168	None	None	None	None	1
1.7	2015_Jul_24_1508	s	s	13	4	SIC	328	ABS	2	1	24VO	0	1	0.548523902893	None	None	None	None	1
1.7	2015_Jul_24_1508	s	s	13	4	SIC	329	RC	1	2	23MD	1	0	0.549717903137	382.0	278.0	382	277	1
1.7	2015_Jul_24_1508	s	s	13	4	SIC	330	ABS	1	0	24MC	0	1	1.09098386765	None	None	None	None	1
1.7	2015_Jul_24_1508	s	s	13	4	SIC	331	RC	2	0	23VC	1	0	0.540889024734	-338.0	-196.0	-341	-193	1
1.7	2015_Jul_24_1508	s	s	13	4	SIC	332	ABS	0	2	24RD	0	1	0.799798965454	None	None	None	None	1
1.7	2015_Jul_24_1508	s	s	13	4	SIC	333	RC	2	2	23VD	1	0	0.441764116287	413.0	265.0	410	273	1
1.7	2015_Jul_24_1508	s	s	13	4	SIC	334	ABS	1	1	24MO	0	1	1.10325598717	None	None	None	None	1
1.7	2015_Jul_24_1508	s	s	13	4	SIC	335	RC	0	1	23RO	1	0	0.559541940689	-27.0	-16.0	-30	-14	1
1.7	2015_Jul_24_1508	s	s	13	4	SIC	336	ABS	2	0	24VC	0	1	0.787917137146	None	None	None	None	1
1.7	2015_Jul_24_1508	s	s	13	4	SIC	337	RC	1	1	23MO	1	0	1.0564661026	505.0	-148.0	510	-152	1
1.7	2015_Jul_24_1508	s	s	13	4	SIC	338	ABS	0	2	24RD	0	1	0.655966997147	None	None	None	None	1
1.7	2015_Jul_24_1508	s	s	13	4	SIC	339	ABS	1	0	24MC	0	1	1.28228402138	None	None	None	None	1
1.7	2015_Jul_24_1508	s	s	13	4	SIC	340	ABS	2	0	24VC	0	1	0.785603046417	None	None	None	None	1
1.7	2015_Jul_24_1508	s	s	13	4	SIC	341	RC	1	2	23MD	1	0	0.705602169037	-360.0	-290.0	-369	-292	1
1.7	2015_Jul_24_1508	s	s	13	4	SIC	342	ABS	1	2	24MD	0	1	0.924932956696	None	None	None	None	1
1.7	2015_Jul_24_1508	s	s	13	4	SIC	343	RC	2	1	23VO	1	0	0.564387083054	20.0	357.0	16	362	1
1.7	2015_Jul_24_1508	s	s	13	4	SIC	344	RC	1	0	23MC	1	0	1.50307798386	-461.0	40.0	-469	40	1
1.7	2015_Jul_24_1508	s	s	13	4	SIC	345	RC	0	2	23RD	1	0	0.666265964508	427.0	360.0	426	362	1
1.7	2015_Jul_24_1508	s	s	13	4	SIC	346	RC	2	0	23VC	1	0	0.526828050613	199.0	-309.0	196	-311	1
1.7	2015_Jul_24_1508	s	s	13	4	SIC	347	ABS	0	1	24RO	0	1	4.15438079834	None	None	None	None	1
1.7	2015_Jul_24_1508	s	s	13	4	SIC	348	ABS	2	2	24VD	0	1	0.722659111023	None	None	None	None	1
1.7	2015_Jul_24_1508	s	s	13	4	SIC	349	ABS	1	1	24MO	0	1	1.45911693573	None	None	None	None	1
1.7	2015_Jul_24_1508	s	s	13	4	SIC	350	RC	2	2	23VD	1	0	0.435295820236	374.0	96.0	367	95	1
1.7	2015_Jul_24_1508	s	s	13	4	SIC	351	ABS	2	1	24VO	0	1	0.573808908463	None	None	None	None	1
1.7	2015_Jul_24_1508	s	s	13	4	SIC	352	RC	0	1	23RO	1	0	0.740920066833	-133.0	-29.0	-134	-34	1
1.7	2015_Jul_24_1508	s	s	13	4	SIC	353	ABS	2	2	24VD	0	1	0.629859924316	None	None	None	None	1
1.7	2015_Jul_24_1508	s	s	13	4	SIC	354	RC	2	0	23VC	1	0	0.44207906723	-516.0	-341.0	-523	-335	1
1.7	2015_Jul_24_1508	s	s	13	4	SIC	355	RC	1	2	23MD	1	0	0.608397006989	-93.0	-151.0	-92	-150	1
1.7	2015_Jul_24_1508	s	s	13	4	SIC	356	RC	0	2	23RD	1	0	0.564345121384	75.0	250.0	69	247	1
1.7	2015_Jul_24_1508	s	s	13	4	SIC	357	RC	2	2	23VD	1	0	0.552555084229	205.0	46.0	194	49	1
1.7	2015_Jul_24_1508	s	s	13	4	SIC	358	RC	0	1	23RO	1	0	0.738584041595	211.0	-148.0	214	-140	1
1.7	2015_Jul_24_1508	s	s	13	4	SIC	359	ABS	0	1	24RO	0	1	3.33935284615	None	None	None	None	1
1.7	2015_Jul_24_1508	s	s	13	4	SIC	360	RC	1	1	23MO	1	0	0.893996953964	448.0	-273.0	446	-275	1
1.7	2015_Jul_24_1508	s	s	13	4	SIC	361	ABS	2	1	24VO	0	1	0.64329791069	None	None	None	None	1
1.7	2015_Jul_24_1508	s	s	13	4	SIC	362	ABS	0	2	24RD	0	1	0.747429847717	None	None	None	None	1
1.7	2015_Jul_24_1508	s	s	13	4	SIC	363	RC	2	1	23VO	1	0	0.426694154739	-460.0	198.0	-463	196	1
1.7	2015_Jul_24_1508	s	s	13	4	SIC	364	ABS	1	0	24MC	0	1	1.22968411446	None	None	None	None	1
1.7	2015_Jul_24_1508	s	s	13	4	SIC	365	RC	1	0	23MC	0	1	0.970848798752	-386.0	-375.0	None	None	0
1.7	2015_Jul_24_1508	s	s	13	4	SIC	366	ABS	1	2	24MD	0	1	0.570299863815	None	None	None	None	1
1.7	2015_Jul_24_1508	s	s	13	4	SIC	367	ABS	2	0	24VC	0	1	0.620069026947	None	None	None	None	1
1.7	2015_Jul_24_1508	s	s	13	4	SIC	368	ABS	1	1	24MO	0	1	0.752697944641	None	None	None	None	1
1.7	2015_Jul_24_1508	s	s	13	4	SIC	369	ABS	0	2	24RD	0	1	0.653706073761	None	None	None	None	1
1.7	2015_Jul_24_1508	s	s	13	4	SIC	370	RC	0	1	23RO	1	0	0.835063934326	195.0	-361.0	205	-357	1
1.7	2015_Jul_24_1508	s	s	13	4	SIC	371	ABS	2	2	24VD	0	1	0.547468900681	None	None	None	None	1
1.7	2015_Jul_24_1508	s	s	13	4	SIC	372	ABS	0	1	24RO	0	1	3.5893239975	None	None	None	None	1
1.7	2015_Jul_24_1508	s	s	13	4	SIC	373	RC	2	0	23VC	1	0	0.452866077423	-197.0	200.0	-196	201	1
1.7	2015_Jul_24_1508	s	s	13	4	SIC	374	RC	1	2	23MD	1	0	0.682056188583	345.0	343.0	342	337	1
1.7	2015_Jul_24_1508	s	s	13	4	SIC	375	ABS	1	0	24MC	0	1	2.02380490303	None	None	None	None	1
1.7	2015_Jul_24_1508	s	s	13	4	SIC	376	RC	0	2	23RD	1	0	0.50549197197	-311.0	379.0	-312	384	1
1.7	2015_Jul_24_1508	s	s	13	4	SIC	377	ABS	1	1	24MO	0	1	1.03516602516	None	None	None	None	1
1.7	2015_Jul_24_1508	s	s	13	4	SIC	378	RC	1	0	23MC	1	0	1.05447816849	-308.0	-367.0	-318	-361	1
1.7	2015_Jul_24_1508	s	s	13	4	SIC	379	RC	2	2	23VD	1	0	0.481814146042	26.0	-79.0	38	-76	1
1.7	2015_Jul_24_1508	s	s	13	4	SIC	380	ABS	2	1	24VO	0	1	0.658555030823	None	None	None	None	1
1.7	2015_Jul_24_1508	s	s	13	4	SIC	381	ABS	2	0	24VC	0	1	0.728976011276	None	None	None	None	1
1.7	2015_Jul_24_1508	s	s	13	4	SIC	382	RC	2	1	23VO	1	0	0.643754959106	62.0	-218.0	61	-221	1
1.7	2015_Jul_24_1508	s	s	13	4	SIC	383	ABS	1	2	24MD	0	1	0.70933008194	None	None	None	None	1
1.7	2015_Jul_24_1508	s	s	13	4	SIC	384	RC	1	1	23MO	1	0	1.06612992287	258.0	123.0	256	124	1
1.7	2015_Jul_24_1508	s	s	13	4	SIC	385	RC	1	0	23MC	0	1	2.37708592415	430.0	-37.0	None	None	0
1.7	2015_Jul_24_1508	s	s	13	4	SIC	386	RC	0	2	23RD	1	0	0.564284086227	400.0	364.0	389	364	1
1.7	2015_Jul_24_1508	s	s	13	4	SIC	387	ABS	0	1	24RO	0	1	4.142578125	None	None	None	None	1
1.7	2015_Jul_24_1508	s	s	13	4	SIC	388	RC	1	2	23MD	1	0	0.560516119003	261.0	-398.0	255	-396	1
1.7	2015_Jul_24_1508	s	s	13	4	SIC	389	RC	0	1	23RO	1	0	1.28228807449	337.0	-223.0	341	-223	1
1.7	2015_Jul_24_1508	s	s	13	4	SIC	390	ABS	2	1	24VO	0	1	0.711888074875	None	None	None	None	1
1.7	2015_Jul_24_1508	s	s	13	4	SIC	391	ABS	1	1	24MO	0	1	1.13599991798	None	None	None	None	1
1.7	2015_Jul_24_1508	s	s	13	4	SIC	392	ABS	1	2	24MD	0	1	0.572923183441	None	None	None	None	1
1.7	2015_Jul_24_1508	s	s	13	4	SIC	393	RC	2	0	23VC	1	0	0.489164113998	504.0	181.0	505	183	1
1.7	2015_Jul_24_1508	s	s	13	4	SIC	394	ABS	2	0	24VC	0	1	3.50141215324	None	None	None	None	1
1.7	2015_Jul_24_1508	s	s	13	4	SIC	395	RC	1	1	23MO	1	0	0.865624904633	394.0	-43.0	397	-46	1
1.7	2015_Jul_24_1508	s	s	13	4	SIC	396	ABS	0	2	24RD	0	1	0.808476924896	None	None	None	None	1
1.7	2015_Jul_24_1508	s	s	13	4	SIC	397	RC	2	1	23VO	1	0	4.06605911255	-13.0	-201.0	-8	-203	1
1.7	2015_Jul_24_1508	s	s	13	4	SIC	398	ABS	2	2	24VD	0	1	0.714452028275	None	None	None	None	1
1.7	2015_Jul_24_1508	s	s	13	4	SIC	399	RC	2	2	23VD	1	0	0.528980970383	-194.0	348.0	-198	348	1
1.7	2015_Jul_24_1508	s	s	13	4	SIC	400	ABS	1	0	24MC	0	1	2.11450386047	None	None	None	None	1
1.7	2015_Jul_24_1508	s	s	13	4	SIC	401	ABS	2	0	24VC	0	1	0.62331700325	None	None	None	None	1
1.7	2015_Jul_24_1508	s	s	13	4	SIC	402	RC	2	2	23VD	1	0	0.493762016296	-284.0	315.0	-282	311	1
1.7	2015_Jul_24_1508	s	s	13	4	SIC	403	ABS	1	2	24MD	0	1	0.681926965714	None	None	None	None	1
1.7	2015_Jul_24_1508	s	s	13	4	SIC	404	RC	0	1	23RO	1	0	1.48241901398	367.0	307.0	374	306	1
1.7	2015_Jul_24_1508	s	s	13	4	SIC	405	ABS	2	1	24VO	0	1	0.79979801178	None	None	None	None	1
1.7	2015_Jul_24_1508	s	s	13	4	SIC	406	RC	2	0	23VC	1	0	0.517092943192	-251.0	92.0	-257	97	1
1.7	2015_Jul_24_1508	s	s	13	4	SIC	407	ABS	0	2	24RD	0	1	0.726511955261	None	None	None	None	1
1.7	2015_Jul_24_1508	s	s	13	4	SIC	408	ABS	0	1	24RO	0	1	3.60117912292	None	None	None	None	1
1.7	2015_Jul_24_1508	s	s	13	4	SIC	409	ABS	1	1	24MO	0	1	1.35295414925	None	None	None	None	1
1.7	2015_Jul_24_1508	s	s	13	4	SIC	410	RC	2	1	23VO	1	0	0.803388118744	-23.0	210.0	-27	206	1
1.7	2015_Jul_24_1508	s	s	13	4	SIC	411	ABS	1	0	24MC	0	1	1.12614583969	None	None	None	None	1
1.7	2015_Jul_24_1508	s	s	13	4	SIC	412	ABS	2	2	24VD	0	1	0.573010921478	None	None	None	None	1
1.7	2015_Jul_24_1508	s	s	13	4	SIC	413	RC	0	2	23RD	1	0	0.561742782593	522.0	389.0	524	382	1
1.7	2015_Jul_24_1508	s	s	13	4	SIC	414	RC	1	2	23MD	1	0	0.44664311409	-398.0	41.0	-404	34	1
1.7	2015_Jul_24_1508	s	s	13	4	SIC	415	RC	1	0	23MC	0	1	1.68260812759	82.0	-19.0	None	None	0
1.7	2015_Jul_24_1508	s	s	13	4	SIC	416	RC	1	1	23MO	1	0	0.783071994781	-126.0	355.0	-133	353	1
1.7	2015_Jul_24_1508	s	s	13	4	SIC	417	RC	1	1	23MO	1	0	0.517255067825	150.0	141.0	156	143	1
1.7	2015_Jul_24_1508	s	s	13	4	SIC	418	ABS	1	2	24MD	0	1	0.623229026794	None	None	None	None	1
1.7	2015_Jul_24_1508	s	s	13	4	SIC	419	ABS	0	1	24RO	0	1	4.43692803383	None	None	None	None	1
1.7	2015_Jul_24_1508	s	s	13	4	SIC	420	ABS	1	0	24MC	1	0	0.752712011337	None	None	60	-44	0
1.7	2015_Jul_24_1508	s	s	13	4	SIC	421	ABS	2	2	24VD	0	1	0.513864040375	None	None	None	None	1
1.7	2015_Jul_24_1508	s	s	13	4	SIC	422	ABS	1	1	24MO	0	1	1.17649388313	None	None	None	None	1
1.7	2015_Jul_24_1508	s	s	13	4	SIC	423	RC	2	2	23VD	1	0	0.788035154343	-221.0	238.0	-224	238	1
1.7	2015_Jul_24_1508	s	s	13	4	SIC	424	RC	0	1	23RO	1	0	1.39753603935	338.0	-80.0	339	-83	1
1.7	2015_Jul_24_1508	s	s	13	4	SIC	425	RC	0	2	23RD	1	0	0.432000160217	-151.0	16.0	-148	18	1
1.7	2015_Jul_24_1508	s	s	13	4	SIC	426	RC	2	1	23VO	1	0	0.454608917236	-403.0	-251.0	-403	-250	1
1.7	2015_Jul_24_1508	s	s	13	4	SIC	427	RC	1	0	23MC	1	0	0.882130861282	-490.0	-76.0	-484	-78	1
1.7	2015_Jul_24_1508	s	s	13	4	SIC	428	ABS	2	0	24VC	0	1	0.734972000122	None	None	None	None	1
1.7	2015_Jul_24_1508	s	s	13	4	SIC	429	ABS	0	2	24RD	0	1	0.855217933655	None	None	None	None	1
1.7	2015_Jul_24_1508	s	s	13	4	SIC	430	RC	1	2	23MD	1	0	0.550398111343	-364.0	380.0	-364	383	1
1.7	2015_Jul_24_1508	s	s	13	4	SIC	431	RC	2	0	23VC	1	0	0.493680000305	60.0	335.0	65	333	1
1.7	2015_Jul_24_1508	s	s	13	4	SIC	432	ABS	2	1	24VO	0	1	0.64022397995	None	None	None	None	1
1.7	2015_Jul_24_1508	s	s	13	4	SIC	433	RC	1	2	23MD	1	0	0.59400510788	-101.0	3.0	-106	7	1
1.7	2015_Jul_24_1508	s	s	13	4	SIC	434	RC	1	0	23MC	0	1	1.7249250412	-233.0	69.0	None	None	0
1.7	2015_Jul_24_1508	s	s	13	4	SIC	435	RC	0	2	23RD	1	0	0.552606105804	480.0	317.0	485	317	1
1.7	2015_Jul_24_1508	s	s	13	4	SIC	436	ABS	0	1	24RO	0	1	3.42459487915	None	None	None	None	1
1.7	2015_Jul_24_1508	s	s	13	4	SIC	437	RC	0	1	23RO	1	0	0.512565851212	-96.0	65.0	-95	65	1
1.7	2015_Jul_24_1508	s	s	13	4	SIC	438	ABS	2	2	24VD	0	1	0.729090929031	None	None	None	None	1
1.7	2015_Jul_24_1508	s	s	13	4	SIC	439	ABS	1	2	24MD	0	1	0.652381896973	None	None	None	None	1
1.7	2015_Jul_24_1508	s	s	13	4	SIC	440	RC	1	1	23MO	1	0	2.14164805412	-251.0	-299.0	-248	-293	1
1.7	2015_Jul_24_1508	s	s	13	4	SIC	441	ABS	2	1	24VO	0	1	0.55260181427	None	None	None	None	1
1.7	2015_Jul_24_1508	s	s	13	4	SIC	442	ABS	1	0	24MC	0	1	0.940996170044	None	None	None	None	1
1.7	2015_Jul_24_1508	s	s	13	4	SIC	443	ABS	1	1	24MO	0	1	0.961171150208	None	None	None	None	1
1.7	2015_Jul_24_1508	s	s	13	4	SIC	444	RC	2	2	23VD	1	0	0.699734926224	-34.0	315.0	-38	315	1
1.7	2015_Jul_24_1508	s	s	13	4	SIC	445	ABS	2	0	24VC	0	1	0.632426023483	None	None	None	None	1
1.7	2015_Jul_24_1508	s	s	13	4	SIC	446	ABS	0	2	24RD	0	1	0.843207120895	None	None	None	None	1
1.7	2015_Jul_24_1508	s	s	13	4	SIC	447	RC	2	1	23VO	1	0	0.619285106659	-517.0	134.0	-518	135	1
1.7	2015_Jul_24_1508	s	s	13	4	SIC	448	RC	2	0	23VC	1	0	0.670138835907	381.0	377.0	383	376	1
1.7	2015_Jul_24_1508	s	s	13	4	SIC	449	ABS	0	1	24RO	0	1	4.38968086243	None	None	None	None	1
1.7	2015_Jul_24_1508	s	s	13	4	SIC	450	RC	2	1	23VO	1	0	0.458180189133	117.0	-309.0	113	-306	1
1.7	2015_Jul_24_1508	s	s	13	4	SIC	451	RC	2	0	23VC	1	0	0.547006845474	336.0	115.0	327	113	1
1.7	2015_Jul_24_1508	s	s	13	4	SIC	452	RC	1	2	23MD	1	0	0.512771844864	-210.0	-350.0	-210	-355	1
1.7	2015_Jul_24_1508	s	s	13	4	SIC	453	ABS	2	1	24VO	0	1	0.670301914215	None	None	None	None	1
1.7	2015_Jul_24_1508	s	s	13	4	SIC	454	ABS	1	2	24MD	0	1	0.952859163284	None	None	None	None	1
1.7	2015_Jul_24_1508	s	s	13	4	SIC	455	ABS	2	0	24VC	0	1	0.893919944763	None	None	None	None	1
1.7	2015_Jul_24_1508	s	s	13	4	SIC	456	ABS	1	0	24MC	0	1	2.12489295006	None	None	None	None	1
1.7	2015_Jul_24_1508	s	s	13	4	SIC	457	ABS	2	2	24VD	0	1	0.561135053635	None	None	None	None	1
1.7	2015_Jul_24_1508	s	s	13	4	SIC	458	RC	1	1	23MO	1	0	0.70561003685	-263.0	-4.0	-253	-3	1
1.7	2015_Jul_24_1508	s	s	13	4	SIC	459	RC	2	2	23VD	1	0	0.47683095932	-355.0	38.0	-346	39	1
1.7	2015_Jul_24_1508	s	s	13	4	SIC	460	RC	1	0	23MC	1	0	0.96452999115	-167.0	-20.0	-174	-16	1
1.7	2015_Jul_24_1508	s	s	13	4	SIC	461	ABS	0	2	24RD	0	1	0.88896894455	None	None	None	None	1
1.7	2015_Jul_24_1508	s	s	13	4	SIC	462	ABS	1	1	24MO	0	1	0.646856069565	None	None	None	None	1
1.7	2015_Jul_24_1508	s	s	13	4	SIC	463	RC	0	2	23RD	1	0	0.505548000336	-168.0	169.0	-169	171	1
1.7	2015_Jul_24_1508	s	s	13	4	SIC	464	RC	0	1	23RO	1	0	0.888118982315	14.0	-181.0	17	-190	1
1.7	2015_Jul_24_1508	s	s	13	4	SIC	465	RC	2	0	23VC	1	0	0.634903907776	411.0	-364.0	410	-372	1
1.7	2015_Jul_24_1508	s	s	13	4	SIC	466	RC	0	1	23RO	1	0	1.12981915474	229.0	-402.0	235	-405	1
1.7	2015_Jul_24_1508	s	s	13	4	SIC	467	ABS	0	2	24RD	0	1	0.677369117737	None	None	None	None	1
1.7	2015_Jul_24_1508	s	s	13	4	SIC	468	RC	1	2	23MD	1	0	0.630217790604	336.0	-391.0	334	-386	1
1.7	2015_Jul_24_1508	s	s	13	4	SIC	469	RC	2	2	23VD	1	0	0.523469924927	60.0	335.0	59	341	1
1.7	2015_Jul_24_1508	s	s	13	4	SIC	470	ABS	2	1	24VO	0	1	0.717353820801	None	None	None	None	1
1.7	2015_Jul_24_1508	s	s	13	4	SIC	471	ABS	2	2	24VD	0	1	0.582247018814	None	None	None	None	1
1.7	2015_Jul_24_1508	s	s	13	4	SIC	472	RC	0	2	23RD	1	0	0.634998083115	-245.0	410.0	-241	413	1
1.7	2015_Jul_24_1508	s	s	13	4	SIC	473	RC	2	1	23VO	1	0	0.431974887848	-438.0	9.0	-435	11	1
1.7	2015_Jul_24_1508	s	s	13	4	SIC	474	ABS	0	1	24RO	0	1	4.29564404488	None	None	None	None	1
1.7	2015_Jul_24_1508	s	s	13	4	SIC	475	RC	1	0	23MC	1	0	4.57818603516	429.0	-229.0	438	-231	1
1.7	2015_Jul_24_1508	s	s	13	4	SIC	476	RC	1	1	23MO	1	0	0.584563016891	93.0	134.0	91	135	1
1.7	2015_Jul_24_1508	s	s	13	4	SIC	477	ABS	2	0	24VC	0	1	0.58789896965	None	None	None	None	1
1.7	2015_Jul_24_1508	s	s	13	4	SIC	478	ABS	1	1	24MO	0	1	1.40862107277	None	None	None	None	1
1.7	2015_Jul_24_1508	s	s	13	4	SIC	479	ABS	1	0	24MC	0	1	1.21176791191	None	None	None	None	1
1.7	2015_Jul_24_1508	s	s	13	4	SIC	480	ABS	1	2	24MD	0	1	0.658504009247	None	None	None	None	1
1.7	2015_Jul_24_1508	s	s	13	4	SIC	481	ABS	1	1	24MO	0	1	2.64428901672	None	None	None	None	1
1.7	2015_Jul_24_1508	s	s	13	4	SIC	482	ABS	1	2	24MD	0	1	0.641801118851	None	None	None	None	1
1.7	2015_Jul_24_1508	s	s	13	4	SIC	483	RC	0	2	23RD	1	0	0.630062103271	408.0	-83.0	403	-83	1
1.7	2015_Jul_24_1508	s	s	13	4	SIC	484	RC	2	2	23VD	1	0	0.582903862	-98.0	-216.0	-99	-224	1
1.7	2015_Jul_24_1508	s	s	13	4	SIC	485	ABS	0	1	24RO	0	1	3.11864495277	None	None	None	None	1
1.7	2015_Jul_24_1508	s	s	13	4	SIC	486	ABS	2	0	24VC	0	1	0.512644052505	None	None	None	None	1
1.7	2015_Jul_24_1508	s	s	13	4	SIC	487	RC	1	2	23MD	1	0	0.44659781456	-286.0	-285.0	-279	-276	1
1.7	2015_Jul_24_1508	s	s	13	4	SIC	488	ABS	2	2	24VD	0	1	0.653879880905	None	None	None	None	1
1.7	2015_Jul_24_1508	s	s	13	4	SIC	489	ABS	0	2	24RD	0	1	0.811591863632	None	None	None	None	1
1.7	2015_Jul_24_1508	s	s	13	4	SIC	490	RC	2	0	23VC	1	0	0.434937953949	314.0	214.0	314	214	1
1.7	2015_Jul_24_1508	s	s	13	4	SIC	491	RC	2	1	23VO	1	0	0.529060125351	525.0	-253.0	525	-258	1
1.7	2015_Jul_24_1508	s	s	13	4	SIC	492	ABS	1	0	24MC	0	1	1.92608594894	None	None	None	None	1
1.7	2015_Jul_24_1508	s	s	13	4	SIC	493	RC	1	0	23MC	1	0	0.971507072449	42.0	65.0	47	66	1
1.7	2015_Jul_24_1508	s	s	13	4	SIC	494	RC	0	1	23RO	1	0	1.52955412865	169.0	-162.0	171	-168	1
1.7	2015_Jul_24_1508	s	s	13	4	SIC	495	ABS	2	1	24VO	0	1	0.700192928314	None	None	None	None	1
1.7	2015_Jul_24_1508	s	s	13	4	SIC	496	RC	1	1	23MO	1	0	0.765273094177	62.0	-68.0	57	-67	1
1.7	2015_Jul_24_1508	s	s	13	4	SIC	497	RC	2	1	23VO	1	0	0.582633972168	42.0	-271.0	41	-271	1
1.7	2015_Jul_24_1508	s	s	13	4	SIC	498	ABS	0	1	24RO	0	1	3.29224705696	None	None	None	None	1
1.7	2015_Jul_24_1508	s	s	13	4	SIC	499	RC	0	1	23RO	0	1	3.26666212082	523.0	-44.0	None	None	0
1.7	2015_Jul_24_1508	s	s	13	4	SIC	500	ABS	1	2	24MD	0	1	0.606402158737	None	None	None	None	1
1.7	2015_Jul_24_1508	s	s	13	4	SIC	501	RC	1	1	23MO	1	0	1.17393302917	-290.0	-18.0	-293	-15	1
1.7	2015_Jul_24_1508	s	s	13	4	SIC	502	ABS	2	2	24VD	0	1	0.552675008774	None	None	None	None	1
1.7	2015_Jul_24_1508	s	s	13	4	SIC	503	RC	1	0	23MC	0	1	1.33864617348	154.0	117.0	None	None	0
1.7	2015_Jul_24_1508	s	s	13	4	SIC	504	ABS	0	2	24RD	0	1	0.521000862122	None	None	None	None	1
1.7	2015_Jul_24_1508	s	s	13	4	SIC	505	ABS	2	1	24VO	0	1	0.740942955017	None	None	None	None	1
1.7	2015_Jul_24_1508	s	s	13	4	SIC	506	RC	0	2	23RD	1	0	0.559319972992	200.0	-363.0	196	-363	1
1.7	2015_Jul_24_1508	s	s	13	4	SIC	507	RC	2	0	23VC	1	0	0.462501049042	-117.0	-1.0	-119	0	1
1.7	2015_Jul_24_1508	s	s	13	4	SIC	508	ABS	1	1	24MO	0	1	1.47752380371	None	None	None	None	1
1.7	2015_Jul_24_1508	s	s	13	4	SIC	509	RC	2	2	23VD	1	0	0.69140791893	-354.0	-384.0	-354	-382	1
1.7	2015_Jul_24_1508	s	s	13	4	SIC	510	ABS	2	0	24VC	0	1	1.21168899536	None	None	None	None	1
1.7	2015_Jul_24_1508	s	s	13	4	SIC	511	RC	1	2	23MD	1	0	0.550235033035	-116.0	257.0	-114	260	1
1.7	2015_Jul_24_1508	s	s	13	4	SIC	512	ABS	1	0	24MC	0	1	1.26476812363	None	None	None	None	1
1.7	2015_Jul_24_1508	s	s	13	4	SIC	513	ABS	1	2	24MD	0	1	0.549100160599	None	None	None	None	1
1.7	2015_Jul_24_1508	s	s	13	4	SIC	514	RC	0	1	23RO	1	0	1.73643684387	19.0	330.0	29	332	1
1.7	2015_Jul_24_1508	s	s	13	4	SIC	515	ABS	0	2	24RD	0	1	0.576040029526	None	None	None	None	1
1.7	2015_Jul_24_1508	s	s	13	4	SIC	516	RC	2	2	23VD	1	0	0.717401027679	38.0	-130.0	37	-124	1
1.7	2015_Jul_24_1508	s	s	13	4	SIC	517	ABS	1	0	24MC	0	1	1.27098107338	None	None	None	None	1
1.7	2015_Jul_24_1508	s	s	13	4	SIC	518	RC	0	2	23RD	1	0	0.490787982941	-447.0	93.0	-451	95	1
1.7	2015_Jul_24_1508	s	s	13	4	SIC	519	RC	2	0	23VC	1	0	0.453965902328	149.0	-248.0	148	-248	1
1.7	2015_Jul_24_1508	s	s	13	4	SIC	520	ABS	2	0	24VC	0	1	0.623039007187	None	None	None	None	1
1.7	2015_Jul_24_1508	s	s	13	4	SIC	521	ABS	2	2	24VD	0	1	0.587846040726	None	None	None	None	1
1.7	2015_Jul_24_1508	s	s	13	4	SIC	522	ABS	0	1	24RO	0	1	3.58939790726	None	None	None	None	1
1.7	2015_Jul_24_1508	s	s	13	4	SIC	523	ABS	1	1	24MO	0	1	0.9489839077	None	None	None	None	1
1.7	2015_Jul_24_1508	s	s	13	4	SIC	524	RC	1	2	23MD	1	0	0.585005044937	-528.0	-214.0	-530	-210	1
1.7	2015_Jul_24_1508	s	s	13	4	SIC	525	ABS	2	1	24VO	0	1	0.560214042664	None	None	None	None	1
1.7	2015_Jul_24_1508	s	s	13	4	SIC	526	RC	2	1	23VO	1	0	0.446657896042	488.0	47.0	490	51	1
1.7	2015_Jul_24_1508	s	s	13	4	SIC	527	RC	1	1	23MO	1	0	0.705574035645	375.0	-223.0	368	-228	1
1.7	2015_Jul_24_1508	s	s	13	4	SIC	528	RC	1	0	23MC	1	0	1.25386595726	291.0	387.0	296	394	1
1.7	2015_Jul_24_1508	s	s	13	4	SIC	529	ABS	1	0	24MC	0	1	1.08638191223	None	None	None	None	1
1.7	2015_Jul_24_1508	s	s	13	4	SIC	530	RC	2	2	23VD	1	0	1.83562493324	-101.0	-271.0	-97	-266	1
1.7	2015_Jul_24_1508	s	s	13	4	SIC	531	RC	2	1	23VO	1	0	0.408614873886	377.0	-108.0	380	-110	1
1.7	2015_Jul_24_1508	s	s	13	4	SIC	532	ABS	0	2	24RD	0	1	0.517339944839	None	None	None	None	1
1.7	2015_Jul_24_1508	s	s	13	4	SIC	533	ABS	2	1	24VO	0	1	0.794611930847	None	None	None	None	1
1.7	2015_Jul_24_1508	s	s	13	4	SIC	534	ABS	0	1	24RO	0	1	2.99503207207	None	None	None	None	1
1.7	2015_Jul_24_1508	s	s	13	4	SIC	535	RC	0	2	23RD	1	0	0.514674901962	-379.0	33.0	-381	25	1
1.7	2015_Jul_24_1508	s	s	13	4	SIC	536	ABS	1	2	24MD	0	1	0.494117021561	None	None	None	None	1
1.7	2015_Jul_24_1508	s	s	13	4	SIC	537	RC	1	0	23MC	1	0	0.84447479248	81.0	-278.0	86	-277	1
1.7	2015_Jul_24_1508	s	s	13	4	SIC	538	ABS	2	0	24VC	0	1	0.550118923187	None	None	None	None	1
1.7	2015_Jul_24_1508	s	s	13	4	SIC	539	RC	2	0	23VC	1	0	0.582305908203	-497.0	50.0	-500	46	1
1.7	2015_Jul_24_1508	s	s	13	4	SIC	540	RC	1	1	23MO	1	0	0.870416164398	-408.0	-110.0	-410	-103	1
1.7	2015_Jul_24_1508	s	s	13	4	SIC	541	ABS	2	2	24VD	0	1	0.37601518631	None	None	None	None	1
1.7	2015_Jul_24_1508	s	s	13	4	SIC	542	ABS	1	1	24MO	0	1	0.882178068161	None	None	None	None	1
1.7	2015_Jul_24_1508	s	s	13	4	SIC	543	RC	1	2	23MD	1	0	0.594452857971	212.0	152.0	216	150	1
1.7	2015_Jul_24_1508	s	s	13	4	SIC	544	RC	0	1	23RO	1	0	1.7765648365	341.0	-148.0	336	-150	1
1.7	2015_Jul_24_1508	s	s	13	4	SIC	545	ABS	1	0	24MC	0	1	1.7123041153	None	None	None	None	1
1.7	2015_Jul_24_1508	s	s	13	4	SIC	546	ABS	2	0	24VC	0	1	0.525806903839	None	None	None	None	1
1.7	2015_Jul_24_1508	s	s	13	4	SIC	547	ABS	2	1	24VO	0	1	0.481962919235	None	None	None	None	1
1.7	2015_Jul_24_1508	s	s	13	4	SIC	548	ABS	1	1	24MO	0	1	2.2122399807	None	None	None	None	1
1.7	2015_Jul_24_1508	s	s	13	4	SIC	549	RC	2	0	23VC	1	0	0.434920787811	-74.0	-180.0	-67	-180	1
1.7	2015_Jul_24_1508	s	s	13	4	SIC	550	ABS	0	1	24RO	0	1	4.01934695244	None	None	None	None	1
1.7	2015_Jul_24_1508	s	s	13	4	SIC	551	ABS	1	2	24MD	0	1	0.609215021133	None	None	None	None	1
1.7	2015_Jul_24_1508	s	s	13	4	SIC	552	RC	0	2	23RD	1	0	0.729405879974	-515.0	355.0	-514	354	1
1.7	2015_Jul_24_1508	s	s	13	4	SIC	553	ABS	0	2	24RD	0	1	0.794152975082	None	None	None	None	1
1.7	2015_Jul_24_1508	s	s	13	4	SIC	554	RC	2	1	23VO	1	0	0.630111932755	440.0	-224.0	437	-222	1
1.7	2015_Jul_24_1508	s	s	13	4	SIC	555	ABS	2	2	24VD	0	1	0.60618019104	None	None	None	None	1
1.7	2015_Jul_24_1508	s	s	13	4	SIC	556	RC	2	2	23VD	1	0	0.491093158722	97.0	-228.0	97	-224	1
1.7	2015_Jul_24_1508	s	s	13	4	SIC	557	RC	1	2	23MD	1	0	0.408461093903	352.0	150.0	350	153	1
1.7	2015_Jul_24_1508	s	s	13	4	SIC	558	RC	1	0	23MC	1	0	0.709361076355	284.0	35.0	290	34	1
1.7	2015_Jul_24_1508	s	s	13	4	SIC	559	RC	1	1	23MO	1	0	0.917518138885	-201.0	367.0	-199	375	1
1.7	2015_Jul_24_1508	s	s	13	4	SIC	560	RC	0	1	23RO	1	0	0.893802881241	-399.0	-5.0	-403	-13	1
1.7	2015_Jul_24_1508	s	s	13	4	SIC	561	ABS	2	1	24VO	0	1	0.595692873001	None	None	None	None	1
1.7	2015_Jul_24_1508	s	s	13	4	SIC	562	RC	0	2	23RD	1	0	0.643085956573	-170.0	-283.0	-161	-282	1
1.7	2015_Jul_24_1508	s	s	13	4	SIC	563	ABS	0	2	24RD	0	1	0.606622934341	None	None	None	None	1
1.7	2015_Jul_24_1508	s	s	13	4	SIC	564	RC	0	1	23RO	1	0	3.37244296074	507.0	-238.0	510	-240	1
1.7	2015_Jul_24_1508	s	s	13	4	SIC	565	RC	1	1	23MO	1	0	0.652783870697	-163.0	113.0	-160	108	1
1.7	2015_Jul_24_1508	s	s	13	4	SIC	566	RC	1	2	23MD	1	0	0.500422954559	180.0	233.0	182	230	1
1.7	2015_Jul_24_1508	s	s	13	4	SIC	567	ABS	2	0	24VC	0	1	0.594426870346	None	None	None	None	1
1.7	2015_Jul_24_1508	s	s	13	4	SIC	568	ABS	2	2	24VD	0	1	0.564638853073	None	None	None	None	1
1.7	2015_Jul_24_1508	s	s	13	4	SIC	569	ABS	0	1	24RO	0	1	3.7513859272	None	None	None	None	1
1.7	2015_Jul_24_1508	s	s	13	4	SIC	570	ABS	1	0	24MC	0	1	1.96490907669	None	None	None	None	1
1.7	2015_Jul_24_1508	s	s	13	4	SIC	571	RC	2	1	23VO	1	0	0.529097080231	258.0	-170.0	257	-167	1
1.7	2015_Jul_24_1508	s	s	13	4	SIC	572	ABS	1	2	24MD	0	1	0.641686916351	None	None	None	None	1
1.7	2015_Jul_24_1508	s	s	13	4	SIC	573	RC	2	0	23VC	1	0	0.488332033157	189.0	-277.0	181	-278	1
1.7	2015_Jul_24_1508	s	s	13	4	SIC	574	ABS	1	1	24MO	0	1	1.58833503723	None	None	None	None	1
1.7	2015_Jul_24_1508	s	s	13	4	SIC	575	RC	2	2	23VD	1	0	0.576084136963	-277.0	-182.0	-280	-189	1
1.7	2015_Jul_24_1508	s	s	13	4	SIC	576	RC	1	0	23MC	1	0	1.06711316109	525.0	-333.0	516	-336	1
1.7	2015_Jul_24_1508	s	s	13	4	SIC	577	ABS	1	2	24MD	0	1	0.587898015976	None	None	None	None	1
1.7	2015_Jul_24_1508	s	s	13	4	SIC	578	RC	0	1	23RO	1	0	1.16171693802	-141.0	252.0	-144	254	1
1.7	2015_Jul_24_1508	s	s	13	4	SIC	579	RC	1	0	23MC	1	0	1.0036110878	-292.0	110.0	-289	108	1
1.7	2015_Jul_24_1508	s	s	13	4	SIC	580	RC	1	1	23MO	1	0	1.33755898476	191.0	-45.0	191	-47	1
1.7	2015_Jul_24_1508	s	s	13	4	SIC	581	RC	2	2	23VD	1	0	0.464462041855	530.0	51.0	534	51	1
1.7	2015_Jul_24_1508	s	s	13	4	SIC	582	RC	1	2	23MD	1	0	0.467548131943	-354.0	198.0	-357	199	1
1.7	2015_Jul_24_1508	s	s	13	4	SIC	583	ABS	2	1	24VO	0	1	0.576101064682	None	None	None	None	1
1.7	2015_Jul_24_1508	s	s	13	4	SIC	584	ABS	0	2	24RD	0	1	0.724529981613	None	None	None	None	1
1.7	2015_Jul_24_1508	s	s	13	4	SIC	585	RC	0	2	23RD	1	0	0.564357995987	-494.0	318.0	-498	323	1
1.7	2015_Jul_24_1508	s	s	13	4	SIC	586	RC	2	1	23VO	1	0	0.446673154831	-269.0	87.0	-271	84	1
1.7	2015_Jul_24_1508	s	s	13	4	SIC	587	ABS	1	1	24MO	0	1	1.28231596947	None	None	None	None	1
1.7	2015_Jul_24_1508	s	s	13	4	SIC	588	RC	2	0	23VC	1	0	0.493701219559	-507.0	262.0	-507	262	1
1.7	2015_Jul_24_1508	s	s	13	4	SIC	589	ABS	2	2	24VD	0	1	0.664748907089	None	None	None	None	1
1.7	2015_Jul_24_1508	s	s	13	4	SIC	590	ABS	2	0	24VC	0	1	0.599593877792	None	None	None	None	1
1.7	2015_Jul_24_1508	s	s	13	4	SIC	591	ABS	1	0	24MC	0	1	1.7294921875	None	None	None	None	1
1.7	2015_Jul_24_1508	s	s	13	4	SIC	592	ABS	0	1	24RO	0	1	3.17521214485	None	None	None	None	1
