Version	Date	Stimuli	Method	Subject	Session	Condition	Trial	Target	Channel1	Channel2	Distractors	LMouseButton	RMouseButton	RT	TargetX	TargetY	ResponseX	ResponseY	Correct
1.7	2015_Jul_21_1530	s	s	13	2	Capacity	1	ABS	0	1	24RO	0	1	8.10442090034	None	None	None	None	1
1.7	2015_Jul_21_1530	s	s	13	2	Capacity	2	ABS	0	2	24RD	0	1	1.07049894333	None	None	None	None	1
1.7	2015_Jul_21_1530	s	s	13	2	Capacity	3	RC	0	1	23RO	1	0	9.95738315582	-231.0	-376.0	-230	-374	1
1.7	2015_Jul_21_1530	s	s	13	2	Capacity	4	RC	0	2	23RD	1	0	0.99472618103	519.0	-404.0	521	-411	1
1.7	2015_Jul_21_1530	s	s	13	2	Capacity	5	ABS	0	2	24RD	0	1	0.634912014008	None	None	None	None	1
1.7	2015_Jul_21_1530	s	s	13	2	Capacity	6	ABS	0	1	24RO	0	1	11.6956059933	None	None	None	None	1
1.7	2015_Jul_21_1530	s	s	13	2	Capacity	7	RC	0	2	23RD	1	0	0.71745800972	-1.0	-142.0	-2	-155	1
1.7	2015_Jul_21_1530	s	s	13	2	Capacity	8	RC	0	1	23RO	1	0	1.57664895058	-123.0	236.0	-122	234	1
1.7	2015_Jul_21_1530	s	s	13	2	Capacity	9	ABS	0	2	24RD	0	1	1.43964195251	None	None	None	None	1
1.7	2015_Jul_21_1530	s	s	13	2	Capacity	10	ABS	0	1	24RO	0	1	8.6929910183	None	None	None	None	1
1.7	2015_Jul_21_1530	s	s	13	2	Capacity	11	RC	0	1	23RO	1	0	6.43292212486	382.0	-146.0	380	-146	1
1.7	2015_Jul_21_1530	s	s	13	2	Capacity	12	RC	0	2	23RD	1	0	0.670309066772	-189.0	382.0	-190	377	1
1.7	2015_Jul_21_1530	s	s	13	2	Capacity	13	RC	0	1	23RO	1	0	1.40693712234	-283.0	-148.0	-287	-145	1
1.7	2015_Jul_21_1530	s	s	13	2	Capacity	14	ABS	0	2	24RD	0	1	0.88215303421	None	None	None	None	1
1.7	2015_Jul_21_1530	s	s	13	2	Capacity	15	ABS	0	1	24RO	0	1	8.53309106827	None	None	None	None	1
1.7	2015_Jul_21_1530	s	s	13	2	Capacity	16	RC	0	2	23RD	1	0	0.618079900742	253.0	356.0	259	365	1
1.7	2015_Jul_21_1530	s	s	13	2	Capacity	17	RC	0	2	23RD	1	0	0.547495126724	304.0	124.0	302	126	1
1.7	2015_Jul_21_1530	s	s	13	2	Capacity	18	ABS	0	1	24RO	0	1	7.68337321281	None	None	None	None	1
1.7	2015_Jul_21_1530	s	s	13	2	Capacity	19	RC	0	1	23RO	1	0	1.42032313347	327.0	-71.0	324	-73	1
1.7	2015_Jul_21_1530	s	s	13	2	Capacity	20	ABS	0	2	24RD	0	1	0.865046024323	None	None	None	None	1
1.7	2015_Jul_21_1530	s	s	13	2	Capacity	21	RC	0	1	23RO	1	0	4.16606712341	-525.0	-276.0	-522	-276	1
1.7	2015_Jul_21_1530	s	s	13	2	Capacity	22	ABS	0	2	24RD	0	1	0.678372144699	None	None	None	None	1
1.7	2015_Jul_21_1530	s	s	13	2	Capacity	23	ABS	0	1	24RO	0	1	5.55306410789	None	None	None	None	1
1.7	2015_Jul_21_1530	s	s	13	2	Capacity	24	RC	0	2	23RD	1	0	0.536151170731	-211.0	6.0	-206	7	1
1.7	2015_Jul_21_1530	s	s	13	2	Capacity	25	RC	0	2	23RD	1	0	0.794905185699	-257.0	-104.0	-254	-105	1
1.7	2015_Jul_21_1530	s	s	13	2	Capacity	26	RC	0	1	23RO	1	0	0.995059967041	378.0	-234.0	377	-228	1
1.7	2015_Jul_21_1530	s	s	13	2	Capacity	27	ABS	0	1	24RO	0	1	4.82185411453	None	None	None	None	1
1.7	2015_Jul_21_1530	s	s	13	2	Capacity	28	ABS	0	2	24RD	0	1	0.788111925125	None	None	None	None	1
1.7	2015_Jul_21_1530	s	s	13	2	Capacity	29	RC	0	2	23RD	1	0	0.681944847107	-281.0	-149.0	-276	-140	1
1.7	2015_Jul_21_1530	s	s	13	2	Capacity	30	RC	0	1	23RO	1	0	1.05867290497	322.0	-241.0	326	-236	1
1.7	2015_Jul_21_1530	s	s	13	2	Capacity	31	ABS	0	2	24RD	0	1	0.753127098083	None	None	None	None	1
1.7	2015_Jul_21_1530	s	s	13	2	Capacity	32	ABS	0	1	24RO	0	1	7.37670016289	None	None	None	None	1
1.7	2015_Jul_21_1530	s	s	13	2	Capacity	33	ABS	0	2	24RD	0	1	0.794945955276	None	None	None	None	1
1.7	2015_Jul_21_1530	s	s	13	2	Capacity	34	ABS	0	1	24RO	0	1	9.82781410217	None	None	None	None	1
1.7	2015_Jul_21_1530	s	s	13	2	Capacity	35	RC	0	2	23RD	1	0	0.917480945587	439.0	323.0	440	318	1
1.7	2015_Jul_21_1530	s	s	13	2	Capacity	36	RC	0	1	23RO	1	0	0.726866960526	-241.0	130.0	-241	129	1
1.7	2015_Jul_21_1530	s	s	13	2	Capacity	37	ABS	0	2	24RD	0	1	0.665748119354	None	None	None	None	1
1.7	2015_Jul_21_1530	s	s	13	2	Capacity	38	ABS	0	1	24RO	1	0	0.493762016296	None	None	-462	349	0
1.7	2015_Jul_21_1530	s	s	13	2	Capacity	39	RC	0	1	23RO	1	0	2.14990901947	41.0	-89.0	38	-94	1
1.7	2015_Jul_21_1530	s	s	13	2	Capacity	40	RC	0	2	23RD	1	0	2.49477601051	-21.0	52.0	-21	52	1
1.7	2015_Jul_21_1530	s	s	13	2	Capacity	41	ABS	0	1	24RO	0	1	6.9440009594	None	None	None	None	1
1.7	2015_Jul_21_1530	s	s	13	2	Capacity	42	RC	0	1	23RO	1	0	1.35293316841	280.0	-171.0	286	-163	1
1.7	2015_Jul_21_1530	s	s	13	2	Capacity	43	ABS	0	2	24RD	0	1	1.27058696747	None	None	None	None	1
1.7	2015_Jul_21_1530	s	s	13	2	Capacity	44	RC	0	2	23RD	1	0	0.552623033524	110.0	70.0	110	67	1
1.7	2015_Jul_21_1530	s	s	13	2	Capacity	45	RC	0	2	23RD	1	0	0.770946979523	-268.0	196.0	-270	199	1
1.7	2015_Jul_21_1530	s	s	13	2	Capacity	46	ABS	0	2	24RD	0	1	0.976376056671	None	None	None	None	1
1.7	2015_Jul_21_1530	s	s	13	2	Capacity	47	ABS	0	1	24RO	0	1	8.22741413116	None	None	None	None	1
1.7	2015_Jul_21_1530	s	s	13	2	Capacity	48	RC	0	1	23RO	1	0	1.02380895615	427.0	-38.0	429	-39	1
1.7	2015_Jul_21_1530	s	s	13	2	Capacity	49	ABS	0	2	24RD	0	1	0.93550491333	None	None	None	None	1
1.7	2015_Jul_21_1530	s	s	13	2	Capacity	50	RC	0	2	23RD	1	0	0.666483163834	-420.0	-78.0	-418	-80	1
1.7	2015_Jul_21_1530	s	s	13	2	Capacity	51	RC	0	1	23RO	1	0	1.0204269886	-490.0	-164.0	-488	-163	1
1.7	2015_Jul_21_1530	s	s	13	2	Capacity	52	ABS	0	1	24RO	0	1	6.52025604248	None	None	None	None	1
1.7	2015_Jul_21_1530	s	s	13	2	Capacity	53	ABS	0	1	24RO	0	1	7.87945890427	None	None	None	None	1
1.7	2015_Jul_21_1530	s	s	13	2	Capacity	54	RC	0	2	23RD	1	0	0.785351991653	-195.0	252.0	-199	245	1
1.7	2015_Jul_21_1530	s	s	13	2	Capacity	55	ABS	0	2	24RD	0	1	0.949241876602	None	None	None	None	1
1.7	2015_Jul_21_1530	s	s	13	2	Capacity	56	RC	0	1	23RO	1	0	2.10636806488	146.0	-377.0	152	-375	1
1.7	2015_Jul_21_1530	s	s	13	2	Capacity	57	ABS	0	2	24RD	0	1	1.05853509903	None	None	None	None	1
1.7	2015_Jul_21_1530	s	s	13	2	Capacity	58	RC	0	1	23RO	1	0	0.799810886383	-140.0	-137.0	-134	-137	1
1.7	2015_Jul_21_1530	s	s	13	2	Capacity	59	RC	0	2	23RD	1	0	0.653294086456	289.0	258.0	283	267	1
1.7	2015_Jul_21_1530	s	s	13	2	Capacity	60	ABS	0	1	24RO	0	1	4.83372688293	None	None	None	None	1
1.7	2015_Jul_21_1530	s	s	13	2	Capacity	61	RC	0	2	23RD	1	0	0.60702586174	167.0	-332.0	165	-325	1
1.7	2015_Jul_21_1530	s	s	13	2	Capacity	62	RC	0	1	23RO	1	0	1.36112308502	465.0	146.0	469	141	1
1.7	2015_Jul_21_1530	s	s	13	2	Capacity	63	ABS	0	1	24RO	0	1	5.05680584908	None	None	None	None	1
1.7	2015_Jul_21_1530	s	s	13	2	Capacity	64	ABS	0	2	24RD	0	1	0.799755811691	None	None	None	None	1
1.7	2015_Jul_21_1530	s	s	13	2	Capacity	65	RC	0	2	23RD	1	0	0.701920032501	63.0	-152.0	62	-148	1
1.7	2015_Jul_21_1530	s	s	13	2	Capacity	66	RC	0	1	23RO	1	0	2.71830797195	-203.0	339.0	-196	342	1
1.7	2015_Jul_21_1530	s	s	13	2	Capacity	67	ABS	0	2	24RD	0	1	0.88220500946	None	None	None	None	1
1.7	2015_Jul_21_1530	s	s	13	2	Capacity	68	ABS	0	1	24RO	0	1	7.48283290863	None	None	None	None	1
1.7	2015_Jul_21_1530	s	s	13	2	Capacity	69	ABS	0	1	24RO	0	1	7.01133799553	None	None	None	None	1
1.7	2015_Jul_21_1530	s	s	13	2	Capacity	70	ABS	0	2	24RD	0	1	4.30386304855	None	None	None	None	1
1.7	2015_Jul_21_1530	s	s	13	2	Capacity	71	RC	0	2	23RD	1	0	0.905733108521	-276.0	258.0	-269	255	1
1.7	2015_Jul_21_1530	s	s	13	2	Capacity	72	RC	0	1	23RO	1	0	1.19994401932	-539.0	183.0	-545	176	1
1.7	2015_Jul_21_1530	s	s	13	2	Capacity	73	RC	0	2	23RD	1	0	0.717267036438	-163.0	-139.0	-163	-139	1
1.7	2015_Jul_21_1530	s	s	13	2	Capacity	74	ABS	0	2	24RD	0	1	1.43208789825	None	None	None	None	1
1.7	2015_Jul_21_1530	s	s	13	2	Capacity	75	RC	0	1	23RO	1	0	0.901083946228	38.0	-122.0	42	-120	1
1.7	2015_Jul_21_1530	s	s	13	2	Capacity	76	ABS	0	1	24RO	0	1	6.72682118416	None	None	None	None	1
1.7	2015_Jul_21_1530	s	s	13	2	Capacity	77	RC	0	1	23RO	1	0	2.38890004158	204.0	-199.0	202	-193	1
1.7	2015_Jul_21_1530	s	s	13	2	Capacity	78	ABS	0	1	24RO	0	1	6.61444997787	None	None	None	None	1
1.7	2015_Jul_21_1530	s	s	13	2	Capacity	79	RC	0	2	23RD	1	0	0.690751075745	-83.0	274.0	-82	269	1
1.7	2015_Jul_21_1530	s	s	13	2	Capacity	80	ABS	0	2	24RD	0	1	1.22095489502	None	None	None	None	1
1.7	2015_Jul_21_1530	s	s	13	2	Capacity	81	ABS	0	2	24RD	0	1	0.838702917099	None	None	None	None	1
1.7	2015_Jul_21_1530	s	s	13	2	Capacity	82	ABS	0	1	24RO	0	1	9.67481803894	None	None	None	None	1
1.7	2015_Jul_21_1530	s	s	13	2	Capacity	83	RC	0	1	23RO	1	0	1.48944187164	-129.0	-136.0	-125	-138	1
1.7	2015_Jul_21_1530	s	s	13	2	Capacity	84	RC	0	2	23RD	1	0	1.74141907692	180.0	8.0	173	15	1
1.7	2015_Jul_21_1530	s	s	13	2	Capacity	85	RC	0	1	23RO	1	0	3.51873588562	69.0	377.0	76	373	1
1.7	2015_Jul_21_1530	s	s	13	2	Capacity	86	RC	0	2	23RD	1	0	0.631565093994	298.0	345.0	298	348	1
1.7	2015_Jul_21_1530	s	s	13	2	Capacity	87	ABS	0	2	24RD	0	1	0.835110902786	None	None	None	None	1
1.7	2015_Jul_21_1530	s	s	13	2	Capacity	88	ABS	0	1	24RO	0	1	6.93951392174	None	None	None	None	1
1.7	2015_Jul_21_1530	s	s	13	2	Capacity	89	RC	0	2	23RD	1	0	0.70569896698	-166.0	-308.0	-169	-303	1
1.7	2015_Jul_21_1530	s	s	13	2	Capacity	90	ABS	0	2	24RD	0	1	1.80758404732	None	None	None	None	1
1.7	2015_Jul_21_1530	s	s	13	2	Capacity	91	RC	0	1	23RO	1	0	2.00704479218	455.0	403.0	451	402	1
1.7	2015_Jul_21_1530	s	s	13	2	Capacity	92	ABS	0	1	24RO	0	1	6.80286884308	None	None	None	None	1
1.7	2015_Jul_21_1530	s	s	13	2	Capacity	1	RC	1	0	23MC	1	0	1.67076396942	530.0	-17.0	534	-17	1
1.7	2015_Jul_21_1530	s	s	13	2	Capacity	2	RC	2	0	23VC	1	0	0.634954929352	-367.0	-328.0	-369	-333	1
1.7	2015_Jul_21_1530	s	s	13	2	Capacity	3	ABS	1	0	24MC	0	1	4.10480999947	None	None	None	None	1
1.7	2015_Jul_21_1530	s	s	13	2	Capacity	4	ABS	2	0	24VC	0	1	0.760416030884	None	None	None	None	1
1.7	2015_Jul_21_1530	s	s	13	2	Capacity	5	ABS	1	0	24MC	0	1	3.33649682999	None	None	None	None	1
1.7	2015_Jul_21_1530	s	s	13	2	Capacity	6	RC	1	0	23MC	1	0	3.21274495125	-237.0	221.0	-232	216	1
1.7	2015_Jul_21_1530	s	s	13	2	Capacity	7	RC	2	0	23VC	1	0	1.28260111809	-493.0	397.0	-495	402	1
1.7	2015_Jul_21_1530	s	s	13	2	Capacity	8	ABS	2	0	24VC	0	1	0.866017103195	None	None	None	None	1
1.7	2015_Jul_21_1530	s	s	13	2	Capacity	9	RC	2	0	23VC	1	0	0.91179394722	177.0	385.0	185	383	1
1.7	2015_Jul_21_1530	s	s	13	2	Capacity	10	ABS	1	0	24MC	0	1	4.97399806976	None	None	None	None	1
1.7	2015_Jul_21_1530	s	s	13	2	Capacity	11	RC	1	0	23MC	1	0	3.0339910984	278.0	286.0	286	280	1
1.7	2015_Jul_21_1530	s	s	13	2	Capacity	12	ABS	2	0	24VC	0	1	0.712028980255	None	None	None	None	1
1.7	2015_Jul_21_1530	s	s	13	2	Capacity	13	RC	1	0	23MC	1	0	1.53721499443	-71.0	-165.0	-75	-161	1
1.7	2015_Jul_21_1530	s	s	13	2	Capacity	14	ABS	2	0	24VC	0	1	0.68877696991	None	None	None	None	1
1.7	2015_Jul_21_1530	s	s	13	2	Capacity	15	ABS	1	0	24MC	0	1	2.24753689766	None	None	None	None	1
1.7	2015_Jul_21_1530	s	s	13	2	Capacity	16	RC	2	0	23VC	1	0	0.811533927917	-158.0	-325.0	-153	-325	1
1.7	2015_Jul_21_1530	s	s	13	2	Capacity	17	ABS	2	0	24VC	0	1	0.677164077759	None	None	None	None	1
1.7	2015_Jul_21_1530	s	s	13	2	Capacity	18	RC	2	0	23VC	1	0	0.618110179901	-207.0	-123.0	-200	-122	1
1.7	2015_Jul_21_1530	s	s	13	2	Capacity	19	ABS	1	0	24MC	0	1	2.67132806778	None	None	None	None	1
1.7	2015_Jul_21_1530	s	s	13	2	Capacity	20	RC	1	0	23MC	1	0	1.25675392151	-375.0	-113.0	-382	-109	1
1.7	2015_Jul_21_1530	s	s	13	2	Capacity	21	ABS	1	0	24MC	0	1	4.22259306908	None	None	None	None	1
1.7	2015_Jul_21_1530	s	s	13	2	Capacity	22	ABS	2	0	24VC	0	1	0.84200501442	None	None	None	None	1
1.7	2015_Jul_21_1530	s	s	13	2	Capacity	23	RC	1	0	23MC	1	0	4.98548388481	486.0	-144.0	490	-140	1
1.7	2015_Jul_21_1530	s	s	13	2	Capacity	24	RC	2	0	23VC	1	0	0.829731941223	-100.0	-204.0	-98	-198	1
1.7	2015_Jul_21_1530	s	s	13	2	Capacity	25	RC	1	0	23MC	1	0	4.14032888412	-55.0	-22.0	-51	-17	1
1.7	2015_Jul_21_1530	s	s	13	2	Capacity	26	ABS	2	0	24VC	0	1	0.629262924194	None	None	None	None	1
1.7	2015_Jul_21_1530	s	s	13	2	Capacity	27	ABS	1	0	24MC	0	1	4.5623190403	None	None	None	None	1
1.7	2015_Jul_21_1530	s	s	13	2	Capacity	28	RC	2	0	23VC	1	0	0.90008687973	298.0	208.0	306	210	1
1.7	2015_Jul_21_1530	s	s	13	2	Capacity	29	RC	1	0	23MC	1	0	15.2630310059	-394.0	-227.0	-389	-225	1
1.7	2015_Jul_21_1530	s	s	13	2	Capacity	30	ABS	1	0	24MC	0	1	5.69299411774	None	None	None	None	1
1.7	2015_Jul_21_1530	s	s	13	2	Capacity	31	RC	2	0	23VC	1	0	0.729048967361	-347.0	117.0	-340	114	1
1.7	2015_Jul_21_1530	s	s	13	2	Capacity	32	ABS	2	0	24VC	0	1	0.714120149612	None	None	None	None	1
1.7	2015_Jul_21_1530	s	s	13	2	Capacity	33	ABS	1	0	24MC	0	1	1.79512882233	None	None	None	None	1
1.7	2015_Jul_21_1530	s	s	13	2	Capacity	34	RC	1	0	23MC	1	0	4.67233490944	461.0	207.0	465	206	1
1.7	2015_Jul_21_1530	s	s	13	2	Capacity	35	ABS	2	0	24VC	0	1	0.64689207077	None	None	None	None	1
1.7	2015_Jul_21_1530	s	s	13	2	Capacity	36	RC	2	0	23VC	1	0	0.629161119461	69.0	-167.0	75	-170	1
1.7	2015_Jul_21_1530	s	s	13	2	Capacity	37	RC	2	0	23VC	1	0	0.655918121338	-308.0	246.0	-305	235	1
1.7	2015_Jul_21_1530	s	s	13	2	Capacity	38	ABS	1	0	24MC	0	1	3.18918299675	None	None	None	None	1
1.7	2015_Jul_21_1530	s	s	13	2	Capacity	39	RC	1	0	23MC	1	0	2.60063505173	-338.0	-7.0	-340	-9	1
1.7	2015_Jul_21_1530	s	s	13	2	Capacity	40	ABS	2	0	24VC	0	1	0.632200956345	None	None	None	None	1
1.7	2015_Jul_21_1530	s	s	13	2	Capacity	41	RC	1	0	23MC	1	0	5.82588791847	-211.0	-21.0	-208	-27	1
1.7	2015_Jul_21_1530	s	s	13	2	Capacity	42	RC	2	0	23VC	1	0	0.682125091553	264.0	-311.0	264	-312	1
1.7	2015_Jul_21_1530	s	s	13	2	Capacity	43	ABS	2	0	24VC	0	1	0.505384922028	None	None	None	None	1
1.7	2015_Jul_21_1530	s	s	13	2	Capacity	44	ABS	1	0	24MC	0	1	1.90231704712	None	None	None	None	1
1.7	2015_Jul_21_1530	s	s	13	2	Capacity	45	ABS	1	0	24MC	0	1	2.58649206161	None	None	None	None	1
1.7	2015_Jul_21_1530	s	s	13	2	Capacity	46	RC	1	0	23MC	1	0	4.86061882973	-86.0	293.0	-89	289	1
1.7	2015_Jul_21_1530	s	s	13	2	Capacity	47	RC	2	0	23VC	1	0	1.13539290428	-318.0	60.0	-322	64	1
1.7	2015_Jul_21_1530	s	s	13	2	Capacity	48	ABS	2	0	24VC	0	1	0.591599941254	None	None	None	None	1
1.7	2015_Jul_21_1530	s	s	13	2	Capacity	49	ABS	1	0	24MC	0	1	4.88157987595	None	None	None	None	1
1.7	2015_Jul_21_1530	s	s	13	2	Capacity	50	RC	2	0	23VC	1	0	0.559016942978	-287.0	-211.0	-285	-210	1
1.7	2015_Jul_21_1530	s	s	13	2	Capacity	51	ABS	2	0	24VC	0	1	0.526623010635	None	None	None	None	1
1.7	2015_Jul_21_1530	s	s	13	2	Capacity	52	RC	1	0	23MC	1	0	19.2652821541	449.0	127.0	450	123	1
1.7	2015_Jul_21_1530	s	s	13	2	Capacity	53	ABS	1	0	24MC	0	1	4.42040991783	None	None	None	None	1
1.7	2015_Jul_21_1530	s	s	13	2	Capacity	54	RC	1	0	23MC	0	1	14.3333189487	-66.0	-190.0	None	None	0
1.7	2015_Jul_21_1530	s	s	13	2	Capacity	55	RC	2	0	23VC	1	0	2.82432985306	252.0	-216.0	254	-216	1
1.7	2015_Jul_21_1530	s	s	13	2	Capacity	56	ABS	2	0	24VC	0	1	0.688760995865	None	None	None	None	1
1.7	2015_Jul_21_1530	s	s	13	2	Capacity	57	RC	2	0	23VC	1	0	0.961384057999	-471.0	331.0	-470	333	1
1.7	2015_Jul_21_1530	s	s	13	2	Capacity	58	ABS	2	0	24VC	0	1	1.30359792709	None	None	None	None	1
1.7	2015_Jul_21_1530	s	s	13	2	Capacity	59	RC	1	0	23MC	1	0	4.67249894142	-282.0	187.0	-286	184	1
1.7	2015_Jul_21_1530	s	s	13	2	Capacity	60	ABS	1	0	24MC	0	1	3.82483100891	None	None	None	None	1
1.7	2015_Jul_21_1530	s	s	13	2	Capacity	61	ABS	2	0	24VC	0	1	0.61822104454	None	None	None	None	1
1.7	2015_Jul_21_1530	s	s	13	2	Capacity	62	ABS	1	0	24MC	0	1	4.4015390873	None	None	None	None	1
1.7	2015_Jul_21_1530	s	s	13	2	Capacity	63	RC	1	0	23MC	1	0	4.97838401794	451.0	83.0	447	85	1
1.7	2015_Jul_21_1530	s	s	13	2	Capacity	64	RC	2	0	23VC	1	0	0.747578859329	-289.0	110.0	-285	106	1
1.7	2015_Jul_21_1530	s	s	13	2	Capacity	65	ABS	2	0	24VC	0	1	0.576115131378	None	None	None	None	1
1.7	2015_Jul_21_1530	s	s	13	2	Capacity	66	RC	2	0	23VC	1	0	0.835099935532	154.0	-94.0	149	-87	1
1.7	2015_Jul_21_1530	s	s	13	2	Capacity	67	ABS	1	0	24MC	0	1	2.36062788963	None	None	None	None	1
1.7	2015_Jul_21_1530	s	s	13	2	Capacity	68	RC	1	0	23MC	1	0	10.4479730129	419.0	231.0	424	231	1
1.7	2015_Jul_21_1530	s	s	13	2	Capacity	69	ABS	2	0	24VC	0	1	0.665369987488	None	None	None	None	1
1.7	2015_Jul_21_1530	s	s	13	2	Capacity	70	RC	2	0	23VC	1	0	0.630166053772	54.0	106.0	57	106	1
1.7	2015_Jul_21_1530	s	s	13	2	Capacity	71	RC	1	0	23MC	1	0	7.3862118721	319.0	75.0	317	74	1
1.7	2015_Jul_21_1530	s	s	13	2	Capacity	72	ABS	1	0	24MC	0	1	1.85291099548	None	None	None	None	1
1.7	2015_Jul_21_1530	s	s	13	2	Capacity	73	RC	2	0	23VC	1	0	0.752592086792	217.0	-260.0	221	-259	1
1.7	2015_Jul_21_1530	s	s	13	2	Capacity	74	ABS	2	0	24VC	0	1	0.785695791245	None	None	None	None	1
1.7	2015_Jul_21_1530	s	s	13	2	Capacity	75	ABS	1	0	24MC	0	1	3.38624405861	None	None	None	None	1
1.7	2015_Jul_21_1530	s	s	13	2	Capacity	76	RC	1	0	23MC	1	0	7.626693964	-234.0	-127.0	-238	-129	1
1.7	2015_Jul_21_1530	s	s	13	2	Capacity	77	ABS	1	0	24MC	0	1	2.29011297226	None	None	None	None	1
1.7	2015_Jul_21_1530	s	s	13	2	Capacity	78	RC	1	0	23MC	1	0	6.95581197739	258.0	76.0	257	80	1
1.7	2015_Jul_21_1530	s	s	13	2	Capacity	79	ABS	2	0	24VC	0	1	1.16461706161	None	None	None	None	1
1.7	2015_Jul_21_1530	s	s	13	2	Capacity	80	RC	2	0	23VC	1	0	0.635357141495	-300.0	323.0	-297	322	1
1.7	2015_Jul_21_1530	s	s	13	2	Capacity	81	RC	2	0	23VC	1	0	0.653750181198	246.0	-79.0	248	-88	1
1.7	2015_Jul_21_1530	s	s	13	2	Capacity	82	ABS	1	0	24MC	0	1	3.27147984505	None	None	None	None	1
1.7	2015_Jul_21_1530	s	s	13	2	Capacity	83	RC	1	0	23MC	1	0	6.22594094276	274.0	-327.0	268	-325	1
1.7	2015_Jul_21_1530	s	s	13	2	Capacity	84	ABS	2	0	24VC	0	1	0.550060033798	None	None	None	None	1
1.7	2015_Jul_21_1530	s	s	13	2	Capacity	85	ABS	2	0	24VC	0	1	0.569408893585	None	None	None	None	1
1.7	2015_Jul_21_1530	s	s	13	2	Capacity	86	RC	1	0	23MC	1	0	1.57676196098	259.0	60.0	254	67	1
1.7	2015_Jul_21_1530	s	s	13	2	Capacity	87	RC	2	0	23VC	1	0	0.594623804092	204.0	251.0	197	256	1
1.7	2015_Jul_21_1530	s	s	13	2	Capacity	88	ABS	1	0	24MC	0	1	2.44426202774	None	None	None	None	1
1.7	2015_Jul_21_1530	s	s	13	2	Capacity	89	ABS	1	0	24MC	0	1	2.90405082703	None	None	None	None	1
1.7	2015_Jul_21_1530	s	s	13	2	Capacity	90	RC	1	0	23MC	1	0	15.4021229744	3.0	-233.0	2	-229	1
1.7	2015_Jul_21_1530	s	s	13	2	Capacity	91	ABS	2	0	24VC	0	1	0.864838123322	None	None	None	None	1
1.7	2015_Jul_21_1530	s	s	13	2	Capacity	92	RC	2	0	23VC	1	0	0.6664249897	-59.0	83.0	-55	87	1
1.7	2015_Jul_21_1530	s	s	13	2	SIC	1	RC	0	2	23RD	1	0	0.760375976562	-221.0	119.0	-223	123	1
1.7	2015_Jul_21_1530	s	s	13	2	SIC	2	RC	1	0	23MC	1	0	3.96050405502	18.0	114.0	18	109	1
1.7	2015_Jul_21_1530	s	s	13	2	SIC	3	ABS	2	2	24VD	0	1	0.690199136734	None	None	None	None	1
1.7	2015_Jul_21_1530	s	s	13	2	SIC	4	RC	2	2	23VD	1	0	0.588140010834	-130.0	246.0	-130	243	1
1.7	2015_Jul_21_1530	s	s	13	2	SIC	5	ABS	0	2	24RD	0	1	0.76088809967	None	None	None	None	1
1.7	2015_Jul_21_1530	s	s	13	2	SIC	6	RC	1	2	23MD	1	0	0.595928907394	104.0	61.0	112	60	1
1.7	2015_Jul_21_1530	s	s	13	2	SIC	7	ABS	2	1	24VO	0	1	0.752737045288	None	None	None	None	1
1.7	2015_Jul_21_1530	s	s	13	2	SIC	8	ABS	0	1	24RO	0	1	7.41469597816	None	None	None	None	1
1.7	2015_Jul_21_1530	s	s	13	2	SIC	9	ABS	1	1	24MO	0	1	2.7018802166	None	None	None	None	1
1.7	2015_Jul_21_1530	s	s	13	2	SIC	10	ABS	1	0	24MC	0	1	2.6061809063	None	None	None	None	1
1.7	2015_Jul_21_1530	s	s	13	2	SIC	11	RC	1	1	23MO	1	0	1.01152396202	-402.0	-175.0	-410	-166	1
1.7	2015_Jul_21_1530	s	s	13	2	SIC	12	ABS	1	2	24MD	0	1	0.670336008072	None	None	None	None	1
1.7	2015_Jul_21_1530	s	s	13	2	SIC	13	RC	2	0	23VC	1	0	0.583253145218	12.0	76.0	10	77	1
1.7	2015_Jul_21_1530	s	s	13	2	SIC	14	RC	0	1	23RO	1	0	1.28934597969	508.0	5.0	509	11	1
1.7	2015_Jul_21_1530	s	s	13	2	SIC	15	RC	2	1	23VO	1	0	0.583567142487	-531.0	157.0	-541	158	1
1.7	2015_Jul_21_1530	s	s	13	2	SIC	16	ABS	2	0	24VC	0	1	1.10579609871	None	None	None	None	1
1.7	2015_Jul_21_1530	s	s	13	2	SIC	17	RC	1	1	23MO	1	0	0.97310590744	80.0	-137.0	74	-144	1
1.7	2015_Jul_21_1530	s	s	13	2	SIC	18	ABS	1	0	24MC	0	1	2.6126499176	None	None	None	None	1
1.7	2015_Jul_21_1530	s	s	13	2	SIC	19	ABS	2	1	24VO	0	1	0.724090099335	None	None	None	None	1
1.7	2015_Jul_21_1530	s	s	13	2	SIC	20	ABS	0	1	24RO	0	1	7.91614985466	None	None	None	None	1
1.7	2015_Jul_21_1530	s	s	13	2	SIC	21	ABS	1	1	24MO	0	1	2.82434201241	None	None	None	None	1
1.7	2015_Jul_21_1530	s	s	13	2	SIC	22	RC	2	2	23VD	1	0	1.30182600021	-486.0	-6.0	-483	-1	1
1.7	2015_Jul_21_1530	s	s	13	2	SIC	23	RC	2	1	23VO	1	0	1.37397289276	-178.0	217.0	-186	219	1
1.7	2015_Jul_21_1530	s	s	13	2	SIC	24	RC	1	0	23MC	1	0	3.24782586098	-81.0	389.0	-77	395	1
1.7	2015_Jul_21_1530	s	s	13	2	SIC	25	RC	0	2	23RD	1	0	0.788001060486	-101.0	-134.0	-97	-137	1
1.7	2015_Jul_21_1530	s	s	13	2	SIC	26	ABS	1	2	24MD	0	1	1.62367606163	None	None	None	None	1
1.7	2015_Jul_21_1530	s	s	13	2	SIC	27	RC	1	2	23MD	1	0	0.811473846436	412.0	-52.0	410	-49	1
1.7	2015_Jul_21_1530	s	s	13	2	SIC	28	ABS	0	2	24RD	0	1	1.01162385941	None	None	None	None	1
1.7	2015_Jul_21_1530	s	s	13	2	SIC	29	RC	2	0	23VC	1	0	0.787983894348	-520.0	245.0	-521	245	1
1.7	2015_Jul_21_1530	s	s	13	2	SIC	30	ABS	2	0	24VC	0	1	0.71483206749	None	None	None	None	1
1.7	2015_Jul_21_1530	s	s	13	2	SIC	31	ABS	2	2	24VD	0	1	0.804925918579	None	None	None	None	1
1.7	2015_Jul_21_1530	s	s	13	2	SIC	32	RC	0	1	23RO	1	0	2.67934823036	530.0	-103.0	527	-105	1
1.7	2015_Jul_21_1530	s	s	13	2	SIC	33	ABS	1	0	24MC	0	1	2.90675711632	None	None	None	None	1
1.7	2015_Jul_21_1530	s	s	13	2	SIC	34	RC	1	0	23MC	1	0	6.43790197372	67.0	-235.0	71	-235	1
1.7	2015_Jul_21_1530	s	s	13	2	SIC	35	RC	1	2	23MD	1	0	0.776182889938	31.0	98.0	31	106	1
1.7	2015_Jul_21_1530	s	s	13	2	SIC	36	ABS	2	1	24VO	0	1	2.33541607857	None	None	None	None	1
1.7	2015_Jul_21_1530	s	s	13	2	SIC	37	RC	1	1	23MO	1	0	3.15080499649	-341.0	-159.0	-346	-152	1
1.7	2015_Jul_21_1530	s	s	13	2	SIC	38	ABS	1	2	24MD	0	1	0.996076822281	None	None	None	None	1
1.7	2015_Jul_21_1530	s	s	13	2	SIC	39	RC	2	1	23VO	1	0	0.700304985046	428.0	358.0	429	355	1
1.7	2015_Jul_21_1530	s	s	13	2	SIC	40	ABS	2	0	24VC	0	1	1.22353506088	None	None	None	None	1
1.7	2015_Jul_21_1530	s	s	13	2	SIC	41	ABS	0	2	24RD	0	1	1.34122109413	None	None	None	None	1
1.7	2015_Jul_21_1530	s	s	13	2	SIC	42	ABS	0	1	24RO	0	1	10.0579419136	None	None	None	None	1
1.7	2015_Jul_21_1530	s	s	13	2	SIC	43	RC	2	2	23VD	1	0	0.688952922821	-17.0	-242.0	-18	-238	1
1.7	2015_Jul_21_1530	s	s	13	2	SIC	44	ABS	1	1	24MO	0	1	3.01872587204	None	None	None	None	1
1.7	2015_Jul_21_1530	s	s	13	2	SIC	45	RC	0	2	23RD	1	0	0.670326948166	6.0	-155.0	6	-155	1
1.7	2015_Jul_21_1530	s	s	13	2	SIC	46	RC	0	1	23RO	1	0	2.452876091	-516.0	-392.0	-512	-394	1
1.7	2015_Jul_21_1530	s	s	13	2	SIC	47	ABS	2	2	24VD	0	1	0.870370864868	None	None	None	None	1
1.7	2015_Jul_21_1530	s	s	13	2	SIC	48	RC	2	0	23VC	1	0	0.547981023788	-70.0	217.0	-63	215	1
1.7	2015_Jul_21_1530	s	s	13	2	SIC	49	ABS	1	2	24MD	0	1	0.653082132339	None	None	None	None	1
1.7	2015_Jul_21_1530	s	s	13	2	SIC	50	RC	0	2	23RD	1	0	0.611423969269	-307.0	17.0	-306	13	1
1.7	2015_Jul_21_1530	s	s	13	2	SIC	51	ABS	2	1	24VO	0	1	0.635088920593	None	None	None	None	1
1.7	2015_Jul_21_1530	s	s	13	2	SIC	52	ABS	2	2	24VD	0	1	0.773607969284	None	None	None	None	1
1.7	2015_Jul_21_1530	s	s	13	2	SIC	53	RC	1	1	23MO	1	0	0.912476062775	208.0	-100.0	214	-104	1
1.7	2015_Jul_21_1530	s	s	13	2	SIC	54	ABS	1	1	24MO	0	1	1.80725193024	None	None	None	None	1
1.7	2015_Jul_21_1530	s	s	13	2	SIC	55	ABS	2	0	24VC	0	1	0.631667852402	None	None	None	None	1
1.7	2015_Jul_21_1530	s	s	13	2	SIC	56	ABS	0	2	24RD	0	1	0.870275020599	None	None	None	None	1
1.7	2015_Jul_21_1530	s	s	13	2	SIC	57	ABS	1	0	24MC	0	1	2.66845488548	None	None	None	None	1
1.7	2015_Jul_21_1530	s	s	13	2	SIC	58	ABS	0	1	24RO	0	1	6.77916908264	None	None	None	None	1
1.7	2015_Jul_21_1530	s	s	13	2	SIC	59	RC	1	2	23MD	1	0	0.679125070572	511.0	45.0	509	40	1
1.7	2015_Jul_21_1530	s	s	13	2	SIC	60	RC	0	1	23RO	1	0	1.03921103477	402.0	-366.0	394	-371	1
1.7	2015_Jul_21_1530	s	s	13	2	SIC	61	RC	1	0	23MC	1	0	1.08228802681	-126.0	-48.0	-128	-50	1
1.7	2015_Jul_21_1530	s	s	13	2	SIC	62	RC	2	0	23VC	1	0	0.535989999771	441.0	-3.0	447	-5	1
1.7	2015_Jul_21_1530	s	s	13	2	SIC	63	RC	2	1	23VO	1	0	0.618141174316	117.0	200.0	118	199	1
1.7	2015_Jul_21_1530	s	s	13	2	SIC	64	RC	2	2	23VD	1	0	0.517132997513	-280.0	173.0	-275	175	1
1.7	2015_Jul_21_1530	s	s	13	2	SIC	65	ABS	0	1	24RO	0	1	8.02372407913	None	None	None	None	1
1.7	2015_Jul_21_1530	s	s	13	2	SIC	66	ABS	0	2	24RD	0	1	1.04011678696	None	None	None	None	1
1.7	2015_Jul_21_1530	s	s	13	2	SIC	67	RC	2	2	23VD	1	0	0.674016952515	-77.0	-224.0	-81	-224	1
1.7	2015_Jul_21_1530	s	s	13	2	SIC	68	RC	1	2	23MD	1	0	1.08875203133	242.0	-84.0	242	-79	1
1.7	2015_Jul_21_1530	s	s	13	2	SIC	69	RC	2	0	23VC	1	0	0.526548147202	-137.0	-245.0	-142	-251	1
1.7	2015_Jul_21_1530	s	s	13	2	SIC	70	RC	1	1	23MO	1	0	0.853600978851	255.0	-147.0	254	-160	1
1.7	2015_Jul_21_1530	s	s	13	2	SIC	71	ABS	1	1	24MO	0	1	1.7615749836	None	None	None	None	1
1.7	2015_Jul_21_1530	s	s	13	2	SIC	72	RC	0	2	23RD	1	0	1.21161794662	-83.0	294.0	-79	289	1
1.7	2015_Jul_21_1530	s	s	13	2	SIC	73	RC	2	1	23VO	1	0	0.587863922119	-424.0	317.0	-428	323	1
1.7	2015_Jul_21_1530	s	s	13	2	SIC	74	ABS	2	2	24VD	0	1	0.634940862656	None	None	None	None	1
1.7	2015_Jul_21_1530	s	s	13	2	SIC	75	RC	0	1	23RO	1	0	1.52700686455	211.0	-178.0	213	-188	1
1.7	2015_Jul_21_1530	s	s	13	2	SIC	76	ABS	2	1	24VO	0	1	1.01839613914	None	None	None	None	1
1.7	2015_Jul_21_1530	s	s	13	2	SIC	77	ABS	1	2	24MD	0	1	0.842250108719	None	None	None	None	1
1.7	2015_Jul_21_1530	s	s	13	2	SIC	78	ABS	1	0	24MC	0	1	3.03627991676	None	None	None	None	1
1.7	2015_Jul_21_1530	s	s	13	2	SIC	79	RC	1	0	23MC	1	0	2.26588082314	87.0	311.0	82	318	1
1.7	2015_Jul_21_1530	s	s	13	2	SIC	80	ABS	2	0	24VC	0	1	0.729109048843	None	None	None	None	1
1.7	2015_Jul_21_1530	s	s	13	2	SIC	81	ABS	0	1	24RO	0	1	5.75285816193	None	None	None	None	1
1.7	2015_Jul_21_1530	s	s	13	2	SIC	82	RC	0	1	23RO	1	0	0.90206694603	73.0	-29.0	70	-26	1
1.7	2015_Jul_21_1530	s	s	13	2	SIC	83	RC	2	0	23VC	1	0	0.564206838608	185.0	351.0	182	351	1
1.7	2015_Jul_21_1530	s	s	13	2	SIC	84	RC	1	1	23MO	1	0	0.676394939423	309.0	-72.0	313	-77	1
1.7	2015_Jul_21_1530	s	s	13	2	SIC	85	ABS	1	1	24MO	0	1	1.37194705009	None	None	None	None	1
1.7	2015_Jul_21_1530	s	s	13	2	SIC	86	ABS	2	2	24VD	0	1	0.584949016571	None	None	None	None	1
1.7	2015_Jul_21_1530	s	s	13	2	SIC	87	ABS	1	2	24MD	0	1	0.620828866959	None	None	None	None	1
1.7	2015_Jul_21_1530	s	s	13	2	SIC	88	ABS	2	0	24VC	0	1	0.594107151031	None	None	None	None	1
1.7	2015_Jul_21_1530	s	s	13	2	SIC	89	RC	2	2	23VD	1	0	0.605775117874	-152.0	376.0	-150	371	1
1.7	2015_Jul_21_1530	s	s	13	2	SIC	90	RC	1	0	23MC	1	0	3.65764594078	-444.0	295.0	-438	300	1
1.7	2015_Jul_21_1530	s	s	13	2	SIC	91	ABS	1	0	24MC	0	1	4.18164181709	None	None	None	None	1
1.7	2015_Jul_21_1530	s	s	13	2	SIC	92	ABS	2	1	24VO	0	1	0.594572067261	None	None	None	None	1
1.7	2015_Jul_21_1530	s	s	13	2	SIC	93	RC	2	1	23VO	1	0	0.623320102692	-56.0	-130.0	-48	-135	1
1.7	2015_Jul_21_1530	s	s	13	2	SIC	94	ABS	0	2	24RD	0	1	1.22966814041	None	None	None	None	1
1.7	2015_Jul_21_1530	s	s	13	2	SIC	95	RC	0	2	23RD	1	0	0.676446199417	351.0	-53.0	353	-54	1
1.7	2015_Jul_21_1530	s	s	13	2	SIC	96	RC	1	2	23MD	1	0	0.68202495575	537.0	393.0	540	384	1
1.7	2015_Jul_21_1530	s	s	13	2	SIC	97	RC	2	2	23VD	1	0	0.815227985382	-154.0	358.0	-150	353	1
1.7	2015_Jul_21_1530	s	s	13	2	SIC	98	ABS	1	1	24MO	0	1	1.01767992973	None	None	None	None	1
1.7	2015_Jul_21_1530	s	s	13	2	SIC	99	RC	1	1	23MO	1	0	0.891473770142	49.0	-332.0	47	-333	1
1.7	2015_Jul_21_1530	s	s	13	2	SIC	100	RC	0	1	23RO	1	0	1.18193292618	138.0	-248.0	142	-247	1
1.7	2015_Jul_21_1530	s	s	13	2	SIC	101	RC	1	2	23MD	1	0	0.846786022186	330.0	166.0	335	164	1
1.7	2015_Jul_21_1530	s	s	13	2	SIC	102	RC	2	0	23VC	1	0	0.550206899643	495.0	-245.0	496	-248	1
1.7	2015_Jul_21_1530	s	s	13	2	SIC	103	ABS	2	2	24VD	0	1	0.79177904129	None	None	None	None	1
1.7	2015_Jul_21_1530	s	s	13	2	SIC	104	RC	1	0	23MC	1	0	5.89729881287	-175.0	-9.0	-177	-2	1
1.7	2015_Jul_21_1530	s	s	13	2	SIC	105	RC	0	2	23RD	1	0	0.582329034805	341.0	128.0	347	123	1
1.7	2015_Jul_21_1530	s	s	13	2	SIC	106	ABS	0	1	24RO	0	1	6.1435918808	None	None	None	None	1
1.7	2015_Jul_21_1530	s	s	13	2	SIC	107	ABS	2	0	24VC	0	1	0.599678039551	None	None	None	None	1
1.7	2015_Jul_21_1530	s	s	13	2	SIC	108	ABS	1	2	24MD	0	1	0.564371824265	None	None	None	None	1
1.7	2015_Jul_21_1530	s	s	13	2	SIC	109	ABS	0	2	24RD	0	1	1.35061001778	None	None	None	None	1
1.7	2015_Jul_21_1530	s	s	13	2	SIC	110	ABS	1	0	24MC	0	1	5.33157610893	None	None	None	None	1
1.7	2015_Jul_21_1530	s	s	13	2	SIC	111	RC	2	1	23VO	1	0	0.517213106155	333.0	214.0	342	210	1
1.7	2015_Jul_21_1530	s	s	13	2	SIC	112	ABS	2	1	24VO	0	1	0.905721902847	None	None	None	None	1
1.7	2015_Jul_21_1530	s	s	13	2	SIC	113	ABS	2	1	24VO	0	1	0.558967828751	None	None	None	None	1
1.7	2015_Jul_21_1530	s	s	13	2	SIC	114	RC	0	1	23RO	1	0	3.01966404915	-85.0	-337.0	-86	-340	1
1.7	2015_Jul_21_1530	s	s	13	2	SIC	115	ABS	1	2	24MD	0	1	0.658502101898	None	None	None	None	1
1.7	2015_Jul_21_1530	s	s	13	2	SIC	116	RC	2	0	23VC	1	0	0.691205978394	-461.0	-329.0	-466	-329	1
1.7	2015_Jul_21_1530	s	s	13	2	SIC	117	RC	2	1	23VO	1	0	0.536996841431	-229.0	37.0	-226	45	1
1.7	2015_Jul_21_1530	s	s	13	2	SIC	118	RC	1	2	23MD	1	0	0.585509061813	-422.0	-410.0	-422	-410	1
1.7	2015_Jul_21_1530	s	s	13	2	SIC	119	ABS	2	2	24VD	0	1	0.594684839249	None	None	None	None	1
1.7	2015_Jul_21_1530	s	s	13	2	SIC	120	RC	1	1	23MO	1	0	1.32943701744	42.0	286.0	46	294	1
1.7	2015_Jul_21_1530	s	s	13	2	SIC	121	ABS	1	1	24MO	0	1	2.6477599144	None	None	None	None	1
1.7	2015_Jul_21_1530	s	s	13	2	SIC	122	ABS	1	0	24MC	0	1	2.93956208229	None	None	None	None	1
1.7	2015_Jul_21_1530	s	s	13	2	SIC	123	ABS	0	2	24RD	0	1	0.641020059586	None	None	None	None	1
1.7	2015_Jul_21_1530	s	s	13	2	SIC	124	RC	1	0	23MC	1	0	6.67331314087	120.0	-152.0	113	-156	1
1.7	2015_Jul_21_1530	s	s	13	2	SIC	125	RC	0	2	23RD	1	0	0.988109111786	457.0	-237.0	456	-244	1
1.7	2015_Jul_21_1530	s	s	13	2	SIC	126	RC	2	2	23VD	1	0	0.435309886932	-347.0	126.0	-351	134	1
1.7	2015_Jul_21_1530	s	s	13	2	SIC	127	ABS	2	0	24VC	0	1	0.844455003738	None	None	None	None	1
1.7	2015_Jul_21_1530	s	s	13	2	SIC	128	ABS	0	1	24RO	0	1	7.72090101242	None	None	None	None	1
1.7	2015_Jul_21_1530	s	s	13	2	SIC	129	ABS	2	1	24VO	0	1	0.599648952484	None	None	None	None	1
1.7	2015_Jul_21_1530	s	s	13	2	SIC	130	ABS	0	2	24RD	0	1	0.867791891098	None	None	None	None	1
1.7	2015_Jul_21_1530	s	s	13	2	SIC	131	RC	1	2	23MD	1	0	1.22338604927	-318.0	28.0	-317	25	1
1.7	2015_Jul_21_1530	s	s	13	2	SIC	132	RC	0	1	23RO	1	0	2.56171298027	-29.0	263.0	-33	263	1
1.7	2015_Jul_21_1530	s	s	13	2	SIC	133	RC	0	2	23RD	1	0	0.572703123093	-425.0	162.0	-424	160	1
1.7	2015_Jul_21_1530	s	s	13	2	SIC	134	ABS	0	1	24RO	0	1	7.55610609055	None	None	None	None	1
1.7	2015_Jul_21_1530	s	s	13	2	SIC	135	ABS	2	0	24VC	0	1	1.41950297356	None	None	None	None	1
1.7	2015_Jul_21_1530	s	s	13	2	SIC	136	RC	1	1	23MO	1	0	1.13567900658	380.0	-208.0	381	-210	1
1.7	2015_Jul_21_1530	s	s	13	2	SIC	137	ABS	1	2	24MD	0	1	0.976335048676	None	None	None	None	1
1.7	2015_Jul_21_1530	s	s	13	2	SIC	138	ABS	2	2	24VD	0	1	0.561245918274	None	None	None	None	1
1.7	2015_Jul_21_1530	s	s	13	2	SIC	139	ABS	1	1	24MO	0	1	2.0238699913	None	None	None	None	1
1.7	2015_Jul_21_1530	s	s	13	2	SIC	140	RC	1	0	23MC	1	0	0.971565008163	268.0	16.0	268	20	1
1.7	2015_Jul_21_1530	s	s	13	2	SIC	141	RC	2	2	23VD	1	0	0.552545070648	298.0	-3.0	297	-14	1
1.7	2015_Jul_21_1530	s	s	13	2	SIC	142	RC	2	0	23VC	1	0	0.599602937698	-273.0	-109.0	-274	-115	1
1.7	2015_Jul_21_1530	s	s	13	2	SIC	143	ABS	1	0	24MC	0	1	2.74889588356	None	None	None	None	1
1.7	2015_Jul_21_1530	s	s	13	2	SIC	144	RC	2	1	23VO	1	0	0.634871959686	-427.0	-356.0	-424	-353	1
1.7	2015_Jul_21_1530	s	s	13	2	SIC	145	RC	0	2	23RD	1	0	0.941096067429	-369.0	73.0	-376	74	1
1.7	2015_Jul_21_1530	s	s	13	2	SIC	146	ABS	1	0	24MC	0	1	3.61293101311	None	None	None	None	1
1.7	2015_Jul_21_1530	s	s	13	2	SIC	147	RC	1	0	23MC	1	0	6.83329606056	-373.0	-355.0	-372	-359	1
1.7	2015_Jul_21_1530	s	s	13	2	SIC	148	RC	1	2	23MD	1	0	0.893913984299	510.0	231.0	520	230	1
1.7	2015_Jul_21_1530	s	s	13	2	SIC	149	ABS	0	2	24RD	0	1	0.913611888885	None	None	None	None	1
1.7	2015_Jul_21_1530	s	s	13	2	SIC	150	RC	2	1	23VO	1	0	1.51774787903	-468.0	244.0	-472	251	1
1.7	2015_Jul_21_1530	s	s	13	2	SIC	151	ABS	1	1	24MO	0	1	1.18548202515	None	None	None	None	1
1.7	2015_Jul_21_1530	s	s	13	2	SIC	152	ABS	0	1	24RO	0	1	4.93116092682	None	None	None	None	1
1.7	2015_Jul_21_1530	s	s	13	2	SIC	153	RC	1	1	23MO	1	0	0.811412096024	247.0	-26.0	247	-19	1
1.7	2015_Jul_21_1530	s	s	13	2	SIC	154	ABS	1	2	24MD	0	1	1.37085390091	None	None	None	None	1
1.7	2015_Jul_21_1530	s	s	13	2	SIC	155	RC	0	1	23RO	1	0	4.09559798241	-47.0	223.0	-54	220	1
1.7	2015_Jul_21_1530	s	s	13	2	SIC	156	ABS	2	0	24VC	0	1	0.902922868729	None	None	None	None	1
1.7	2015_Jul_21_1530	s	s	13	2	SIC	157	ABS	2	2	24VD	0	1	0.788042068481	None	None	None	None	1
1.7	2015_Jul_21_1530	s	s	13	2	SIC	158	ABS	2	1	24VO	0	1	0.606070041656	None	None	None	None	1
1.7	2015_Jul_21_1530	s	s	13	2	SIC	159	RC	2	2	23VD	1	0	0.603393793106	-114.0	85.0	-110	82	1
1.7	2015_Jul_21_1530	s	s	13	2	SIC	160	RC	2	0	23VC	1	0	0.57363986969	244.0	-202.0	239	-203	1
1.7	2015_Jul_21_1530	s	s	13	2	SIC	161	ABS	1	0	24MC	0	1	3.59873199463	None	None	None	None	1
1.7	2015_Jul_21_1530	s	s	13	2	SIC	162	ABS	2	0	24VC	0	1	0.512413978577	None	None	None	None	1
1.7	2015_Jul_21_1530	s	s	13	2	SIC	163	RC	2	0	23VC	1	0	0.623127937317	338.0	296.0	336	287	1
1.7	2015_Jul_21_1530	s	s	13	2	SIC	164	ABS	1	1	24MO	0	1	2.93617081642	None	None	None	None	1
1.7	2015_Jul_21_1530	s	s	13	2	SIC	165	RC	1	2	23MD	1	0	0.693855047226	-354.0	356.0	-352	359	1
1.7	2015_Jul_21_1530	s	s	13	2	SIC	166	RC	2	2	23VD	1	0	0.584932088852	-380.0	5.0	-379	-5	1
1.7	2015_Jul_21_1530	s	s	13	2	SIC	167	RC	1	1	23MO	1	0	0.925884962082	472.0	64.0	468	65	1
1.7	2015_Jul_21_1530	s	s	13	2	SIC	168	RC	1	0	23MC	1	0	1.241989851	-25.0	174.0	-27	170	1
1.7	2015_Jul_21_1530	s	s	13	2	SIC	169	RC	2	1	23VO	1	0	0.549316883087	-415.0	264.0	-414	268	1
1.7	2015_Jul_21_1530	s	s	13	2	SIC	170	ABS	2	1	24VO	0	1	0.635011911392	None	None	None	None	1
1.7	2015_Jul_21_1530	s	s	13	2	SIC	171	RC	0	1	23RO	1	0	2.47770500183	-324.0	122.0	-325	126	1
1.7	2015_Jul_21_1530	s	s	13	2	SIC	172	ABS	0	2	24RD	0	1	0.773105859756	None	None	None	None	1
1.7	2015_Jul_21_1530	s	s	13	2	SIC	173	ABS	1	2	24MD	0	1	1.78854489326	None	None	None	None	1
1.7	2015_Jul_21_1530	s	s	13	2	SIC	174	RC	0	2	23RD	1	0	0.561774969101	394.0	138.0	394	140	1
1.7	2015_Jul_21_1530	s	s	13	2	SIC	175	ABS	2	2	24VD	0	1	0.618278026581	None	None	None	None	1
1.7	2015_Jul_21_1530	s	s	13	2	SIC	176	ABS	0	1	24RO	0	1	5.07243704796	None	None	None	None	1
1.7	2015_Jul_21_1530	s	s	13	2	SIC	177	RC	2	0	23VC	1	0	0.428905963898	117.0	392.0	107	392	1
1.7	2015_Jul_21_1530	s	s	13	2	SIC	178	ABS	2	0	24VC	0	1	0.595389842987	None	None	None	None	1
1.7	2015_Jul_21_1530	s	s	13	2	SIC	179	RC	2	1	23VO	1	0	0.440165996552	-228.0	245.0	-223	247	1
1.7	2015_Jul_21_1530	s	s	13	2	SIC	180	ABS	1	2	24MD	0	1	0.771500110626	None	None	None	None	1
1.7	2015_Jul_21_1530	s	s	13	2	SIC	181	ABS	1	1	24MO	0	1	1.60636591911	None	None	None	None	1
1.7	2015_Jul_21_1530	s	s	13	2	SIC	182	RC	2	2	23VD	1	0	0.43488907814	534.0	160.0	535	159	1
1.7	2015_Jul_21_1530	s	s	13	2	SIC	183	RC	0	2	23RD	1	0	0.999835014343	-472.0	-394.0	-472	-394	1
1.7	2015_Jul_21_1530	s	s	13	2	SIC	184	ABS	1	0	24MC	0	1	0.956580162048	None	None	None	None	1
1.7	2015_Jul_21_1530	s	s	13	2	SIC	185	RC	1	2	23MD	1	0	0.644217014313	21.0	286.0	27	288	1
1.7	2015_Jul_21_1530	s	s	13	2	SIC	186	RC	1	0	23MC	1	0	4.36365413666	-499.0	230.0	-501	236	1
1.7	2015_Jul_21_1530	s	s	13	2	SIC	187	RC	0	1	23RO	1	0	0.999812841415	163.0	41.0	169	39	1
1.7	2015_Jul_21_1530	s	s	13	2	SIC	188	ABS	2	2	24VD	0	1	0.52910399437	None	None	None	None	1
1.7	2015_Jul_21_1530	s	s	13	2	SIC	189	ABS	2	1	24VO	0	1	0.735561847687	None	None	None	None	1
1.7	2015_Jul_21_1530	s	s	13	2	SIC	190	RC	1	1	23MO	1	0	1.0705909729	503.0	155.0	507	149	1
1.7	2015_Jul_21_1530	s	s	13	2	SIC	191	ABS	0	1	24RO	0	1	5.05497097969	None	None	None	None	1
1.7	2015_Jul_21_1530	s	s	13	2	SIC	192	ABS	0	2	24RD	0	1	1.71403980255	None	None	None	None	1
1.7	2015_Jul_21_1530	s	s	13	2	SIC	193	RC	2	1	23VO	1	0	0.606467008591	303.0	-348.0	305	-348	1
1.7	2015_Jul_21_1530	s	s	13	2	SIC	194	ABS	0	2	24RD	0	1	1.10331296921	None	None	None	None	1
1.7	2015_Jul_21_1530	s	s	13	2	SIC	195	ABS	2	2	24VD	0	1	0.823362112045	None	None	None	None	1
1.7	2015_Jul_21_1530	s	s	13	2	SIC	196	ABS	2	1	24VO	0	1	0.60693693161	None	None	None	None	1
1.7	2015_Jul_21_1530	s	s	13	2	SIC	197	ABS	2	0	24VC	0	1	0.630226135254	None	None	None	None	1
1.7	2015_Jul_21_1530	s	s	13	2	SIC	198	RC	0	1	23RO	1	0	3.01989293098	-383.0	-141.0	-380	-146	1
1.7	2015_Jul_21_1530	s	s	13	2	SIC	199	ABS	0	1	24RO	0	1	6.05666303635	None	None	None	None	1
1.7	2015_Jul_21_1530	s	s	13	2	SIC	200	RC	1	2	23MD	1	0	0.846853017807	70.0	108.0	76	105	1
1.7	2015_Jul_21_1530	s	s	13	2	SIC	201	ABS	1	1	24MO	0	1	1.57649898529	None	None	None	None	1
1.7	2015_Jul_21_1530	s	s	13	2	SIC	202	RC	1	1	23MO	1	0	0.879591941833	518.0	-10.0	519	-11	1
1.7	2015_Jul_21_1530	s	s	13	2	SIC	203	RC	2	2	23VD	1	0	0.700347900391	381.0	141.0	389	140	1
1.7	2015_Jul_21_1530	s	s	13	2	SIC	204	ABS	1	2	24MD	0	1	2.03009295464	None	None	None	None	1
1.7	2015_Jul_21_1530	s	s	13	2	SIC	205	RC	0	2	23RD	1	0	0.715035915375	228.0	-195.0	222	-192	1
1.7	2015_Jul_21_1530	s	s	13	2	SIC	206	RC	1	0	23MC	1	0	2.08027505875	226.0	389.0	223	392	1
1.7	2015_Jul_21_1530	s	s	13	2	SIC	207	RC	2	0	23VC	1	0	0.818495988846	-327.0	382.0	-329	384	1
1.7	2015_Jul_21_1530	s	s	13	2	SIC	208	ABS	1	0	24MC	0	1	2.60069108009	None	None	None	None	1
1.7	2015_Jul_21_1530	s	s	13	2	SIC	209	ABS	0	1	24RO	0	1	5.81389808655	None	None	None	None	1
1.7	2015_Jul_21_1530	s	s	13	2	SIC	210	RC	1	0	23MC	1	0	4.13082909584	514.0	-225.0	507	-216	1
1.7	2015_Jul_21_1530	s	s	13	2	SIC	211	ABS	2	0	24VC	0	1	0.678941965103	None	None	None	None	1
1.7	2015_Jul_21_1530	s	s	13	2	SIC	212	ABS	1	2	24MD	0	1	0.858702898026	None	None	None	None	1
1.7	2015_Jul_21_1530	s	s	13	2	SIC	213	RC	2	0	23VC	1	0	0.712316989899	-325.0	-33.0	-319	-41	1
1.7	2015_Jul_21_1530	s	s	13	2	SIC	214	ABS	1	0	24MC	0	1	1.150192976	None	None	None	None	1
1.7	2015_Jul_21_1530	s	s	13	2	SIC	215	ABS	0	2	24RD	0	1	1.18820810318	None	None	None	None	1
1.7	2015_Jul_21_1530	s	s	13	2	SIC	216	ABS	2	2	24VD	0	1	0.759206056595	None	None	None	None	1
1.7	2015_Jul_21_1530	s	s	13	2	SIC	217	RC	1	2	23MD	1	0	1.52947998047	-116.0	-207.0	-111	-203	1
1.7	2015_Jul_21_1530	s	s	13	2	SIC	218	RC	2	2	23VD	1	0	0.621396780014	133.0	8.0	135	9	1
1.7	2015_Jul_21_1530	s	s	13	2	SIC	219	RC	0	2	23RD	1	0	0.585529088974	188.0	-27.0	184	-36	1
1.7	2015_Jul_21_1530	s	s	13	2	SIC	220	ABS	2	1	24VO	0	1	0.559133052826	None	None	None	None	1
1.7	2015_Jul_21_1530	s	s	13	2	SIC	221	RC	0	1	23RO	1	0	1.41235184669	365.0	188.0	367	190	1
1.7	2015_Jul_21_1530	s	s	13	2	SIC	222	RC	1	1	23MO	1	0	2.49011206627	-272.0	-277.0	-269	-282	1
1.7	2015_Jul_21_1530	s	s	13	2	SIC	223	ABS	1	1	24MO	0	1	2.63098311424	None	None	None	None	1
1.7	2015_Jul_21_1530	s	s	13	2	SIC	224	RC	2	1	23VO	1	0	0.611425876617	-199.0	-191.0	-199	-182	1
1.7	2015_Jul_21_1530	s	s	13	2	SIC	225	ABS	1	2	24MD	0	1	0.747241973877	None	None	None	None	1
1.7	2015_Jul_21_1530	s	s	13	2	SIC	226	RC	0	1	23RO	1	0	1.35296487808	234.0	-76.0	232	-74	1
1.7	2015_Jul_21_1530	s	s	13	2	SIC	227	RC	0	2	23RD	1	0	0.647089004517	-243.0	77.0	-234	76	1
1.7	2015_Jul_21_1530	s	s	13	2	SIC	228	RC	1	0	23MC	1	0	0.925848007202	58.0	15.0	62	12	1
1.7	2015_Jul_21_1530	s	s	13	2	SIC	229	ABS	2	1	24VO	0	1	0.71014881134	None	None	None	None	1
1.7	2015_Jul_21_1530	s	s	13	2	SIC	230	RC	2	2	23VD	1	0	0.658607006073	365.0	153.0	359	148	1
1.7	2015_Jul_21_1530	s	s	13	2	SIC	231	RC	2	1	23VO	1	0	0.630702018738	-365.0	-274.0	-373	-278	1
1.7	2015_Jul_21_1530	s	s	13	2	SIC	232	ABS	1	1	24MO	0	1	0.77622795105	None	None	None	None	1
1.7	2015_Jul_21_1530	s	s	13	2	SIC	233	RC	1	1	23MO	1	0	1.37658286095	410.0	-305.0	404	-303	1
1.7	2015_Jul_21_1530	s	s	13	2	SIC	234	ABS	0	1	24RO	0	1	4.05789685249	None	None	None	None	1
1.7	2015_Jul_21_1530	s	s	13	2	SIC	235	ABS	1	0	24MC	0	1	3.86018896103	None	None	None	None	1
1.7	2015_Jul_21_1530	s	s	13	2	SIC	236	ABS	2	2	24VD	0	1	0.547432899475	None	None	None	None	1
1.7	2015_Jul_21_1530	s	s	13	2	SIC	237	ABS	0	2	24RD	0	1	0.974141120911	None	None	None	None	1
1.7	2015_Jul_21_1530	s	s	13	2	SIC	238	RC	2	0	23VC	1	0	0.587744951248	195.0	296.0	195	299	1
1.7	2015_Jul_21_1530	s	s	13	2	SIC	239	ABS	2	0	24VC	0	1	1.08219695091	None	None	None	None	1
1.7	2015_Jul_21_1530	s	s	13	2	SIC	240	RC	1	2	23MD	1	0	0.952795028687	-386.0	391.0	-380	382	1
1.7	2015_Jul_21_1530	s	s	13	2	SIC	241	ABS	1	2	24MD	0	1	0.529000997543	None	None	None	None	1
1.7	2015_Jul_21_1530	s	s	13	2	SIC	242	RC	2	0	23VC	1	0	0.752598047256	124.0	388.0	130	389	1
1.7	2015_Jul_21_1530	s	s	13	2	SIC	243	ABS	1	0	24MC	0	1	1.30592679977	None	None	None	None	1
1.7	2015_Jul_21_1530	s	s	13	2	SIC	244	RC	1	0	23MC	1	0	0.811560869217	68.0	-19.0	74	-26	1
1.7	2015_Jul_21_1530	s	s	13	2	SIC	245	ABS	2	0	24VC	0	1	0.623188018799	None	None	None	None	1
1.7	2015_Jul_21_1530	s	s	13	2	SIC	246	ABS	1	1	24MO	0	1	1.19629502296	None	None	None	None	1
1.7	2015_Jul_21_1530	s	s	13	2	SIC	247	RC	2	1	23VO	1	0	0.524117946625	-154.0	-153.0	-155	-160	1
1.7	2015_Jul_21_1530	s	s	13	2	SIC	248	ABS	2	1	24VO	0	1	0.470229148865	None	None	None	None	1
1.7	2015_Jul_21_1530	s	s	13	2	SIC	249	RC	1	1	23MO	1	0	0.858533143997	338.0	147.0	343	149	1
1.7	2015_Jul_21_1530	s	s	13	2	SIC	250	RC	0	1	23RO	1	0	0.941118955612	193.0	27.0	185	32	1
1.7	2015_Jul_21_1530	s	s	13	2	SIC	251	ABS	2	2	24VD	0	1	0.59527182579	None	None	None	None	1
1.7	2015_Jul_21_1530	s	s	13	2	SIC	252	RC	0	2	23RD	1	0	0.547616004944	219.0	-205.0	214	-214	1
1.7	2015_Jul_21_1530	s	s	13	2	SIC	253	RC	1	2	23MD	1	0	0.56124997139	-28.0	137.0	-24	145	1
1.7	2015_Jul_21_1530	s	s	13	2	SIC	254	ABS	0	2	24RD	0	1	0.971108198166	None	None	None	None	1
1.7	2015_Jul_21_1530	s	s	13	2	SIC	255	ABS	0	1	24RO	0	1	5.42930793762	None	None	None	None	1
1.7	2015_Jul_21_1530	s	s	13	2	SIC	256	RC	2	2	23VD	1	0	0.489902973175	272.0	272.0	266	263	1
1.7	2015_Jul_21_1530	s	s	13	2	SIC	257	ABS	2	2	24VD	0	1	0.682115077972	None	None	None	None	1
1.7	2015_Jul_21_1530	s	s	13	2	SIC	258	ABS	2	0	24VC	0	1	0.587920188904	None	None	None	None	1
1.7	2015_Jul_21_1530	s	s	13	2	SIC	259	ABS	2	1	24VO	0	1	0.538321018219	None	None	None	None	1
1.7	2015_Jul_21_1530	s	s	13	2	SIC	260	RC	1	1	23MO	1	0	0.609041213989	-213.0	-128.0	-208	-136	1
1.7	2015_Jul_21_1530	s	s	13	2	SIC	261	ABS	1	0	24MC	0	1	1.09405517578	None	None	None	None	1
1.7	2015_Jul_21_1530	s	s	13	2	SIC	262	ABS	0	2	24RD	0	1	0.867725849152	None	None	None	None	1
1.7	2015_Jul_21_1530	s	s	13	2	SIC	263	RC	2	2	23VD	1	0	0.476987123489	436.0	316.0	433	311	1
1.7	2015_Jul_21_1530	s	s	13	2	SIC	264	RC	2	0	23VC	1	0	0.489883899689	212.0	-263.0	208	-259	1
1.7	2015_Jul_21_1530	s	s	13	2	SIC	265	RC	0	2	23RD	1	0	0.776293039322	501.0	155.0	504	148	1
1.7	2015_Jul_21_1530	s	s	13	2	SIC	266	RC	0	1	23RO	1	0	1.35827302933	-111.0	-150.0	-109	-161	1
1.7	2015_Jul_21_1530	s	s	13	2	SIC	267	ABS	1	1	24MO	0	1	0.972949028015	None	None	None	None	1
1.7	2015_Jul_21_1530	s	s	13	2	SIC	268	RC	2	1	23VO	1	0	0.646671056747	464.0	398.0	466	394	1
1.7	2015_Jul_21_1530	s	s	13	2	SIC	269	RC	1	2	23MD	1	0	0.489826917648	119.0	338.0	117	347	1
1.7	2015_Jul_21_1530	s	s	13	2	SIC	270	ABS	0	1	24RO	0	1	4.0093691349	None	None	None	None	1
1.7	2015_Jul_21_1530	s	s	13	2	SIC	271	ABS	1	2	24MD	0	1	0.634874820709	None	None	None	None	1
1.7	2015_Jul_21_1530	s	s	13	2	SIC	272	RC	1	0	23MC	1	0	2.3535130024	-301.0	124.0	-301	124	1
1.7	2015_Jul_21_1530	s	s	13	2	SIC	273	ABS	0	2	24RD	0	1	1.09389591217	None	None	None	None	1
1.7	2015_Jul_21_1530	s	s	13	2	SIC	274	RC	2	2	23VD	1	0	0.634917020798	-248.0	-177.0	-245	-173	1
1.7	2015_Jul_21_1530	s	s	13	2	SIC	275	RC	2	1	23VO	1	0	0.607514858246	-14.0	-206.0	-13	-203	1
1.7	2015_Jul_21_1530	s	s	13	2	SIC	276	ABS	0	1	24RO	0	1	4.10338306427	None	None	None	None	1
1.7	2015_Jul_21_1530	s	s	13	2	SIC	277	RC	0	1	23RO	1	0	2.77209496498	-136.0	266.0	-131	264	1
1.7	2015_Jul_21_1530	s	s	13	2	SIC	278	RC	1	1	23MO	1	0	2.44280982018	-399.0	391.0	-396	389	1
1.7	2015_Jul_21_1530	s	s	13	2	SIC	279	RC	1	0	23MC	1	0	8.41063785553	-399.0	-212.0	-399	-206	1
1.7	2015_Jul_21_1530	s	s	13	2	SIC	280	ABS	1	0	24MC	0	1	1.52622294426	None	None	None	None	1
1.7	2015_Jul_21_1530	s	s	13	2	SIC	281	ABS	1	1	24MO	0	1	1.62075591087	None	None	None	None	1
1.7	2015_Jul_21_1530	s	s	13	2	SIC	282	ABS	1	2	24MD	0	1	0.717836141586	None	None	None	None	1
1.7	2015_Jul_21_1530	s	s	13	2	SIC	283	RC	2	0	23VC	1	0	0.499820947647	-451.0	-109.0	-449	-110	1
1.7	2015_Jul_21_1530	s	s	13	2	SIC	284	ABS	2	1	24VO	0	1	1.63243103027	None	None	None	None	1
1.7	2015_Jul_21_1530	s	s	13	2	SIC	285	RC	0	2	23RD	1	0	0.68207192421	-454.0	-278.0	-447	-280	1
1.7	2015_Jul_21_1530	s	s	13	2	SIC	286	ABS	2	0	24VC	0	1	0.772590875626	None	None	None	None	1
1.7	2015_Jul_21_1530	s	s	13	2	SIC	287	RC	1	2	23MD	1	0	1.07864284515	496.0	84.0	496	91	1
1.7	2015_Jul_21_1530	s	s	13	2	SIC	288	ABS	2	2	24VD	0	1	0.852657079697	None	None	None	None	1
1.7	2015_Jul_21_1530	s	s	13	2	SIC	289	RC	0	1	23RO	1	0	3.74217605591	-245.0	298.0	-241	299	1
1.7	2015_Jul_21_1530	s	s	13	2	SIC	290	RC	1	1	23MO	1	0	1.53325009346	462.0	-327.0	461	-336	1
1.7	2015_Jul_21_1530	s	s	13	2	SIC	291	RC	2	2	23VD	1	0	0.501204967499	147.0	197.0	139	197	1
1.7	2015_Jul_21_1530	s	s	13	2	SIC	292	ABS	1	1	24MO	0	1	0.924479961395	None	None	None	None	1
1.7	2015_Jul_21_1530	s	s	13	2	SIC	293	ABS	2	2	24VD	0	1	0.540810108185	None	None	None	None	1
1.7	2015_Jul_21_1530	s	s	13	2	SIC	294	ABS	0	1	24RO	0	1	4.13638186455	None	None	None	None	1
1.7	2015_Jul_21_1530	s	s	13	2	SIC	295	ABS	0	2	24RD	0	1	1.26501107216	None	None	None	None	1
1.7	2015_Jul_21_1530	s	s	13	2	SIC	296	ABS	2	0	24VC	0	1	0.585653066635	None	None	None	None	1
1.7	2015_Jul_21_1530	s	s	13	2	SIC	297	ABS	1	2	24MD	0	1	0.68195605278	None	None	None	None	1
1.7	2015_Jul_21_1530	s	s	13	2	SIC	298	RC	2	1	23VO	1	0	0.529026031494	251.0	-30.0	257	-37	1
1.7	2015_Jul_21_1530	s	s	13	2	SIC	299	ABS	1	0	24MC	0	1	1.09989190102	None	None	None	None	1
1.7	2015_Jul_21_1530	s	s	13	2	SIC	300	RC	1	0	23MC	0	1	1.39501810074	-513.0	362.0	None	None	0
1.7	2015_Jul_21_1530	s	s	13	2	SIC	301	ABS	2	1	24VO	1	0	0.465182065964	None	None	-27	45	0
1.7	2015_Jul_21_1530	s	s	13	2	SIC	302	RC	1	2	23MD	1	0	0.846935033798	494.0	87.0	501	84	1
1.7	2015_Jul_21_1530	s	s	13	2	SIC	303	RC	2	0	23VC	1	0	0.705601930618	-16.0	-262.0	-20	-266	1
1.7	2015_Jul_21_1530	s	s	13	2	SIC	304	RC	0	2	23RD	1	0	0.831992864609	23.0	252.0	28	250	1
1.7	2015_Jul_21_1530	s	s	13	2	SIC	305	RC	0	2	23RD	1	0	0.702925920486	183.0	391.0	181	389	1
1.7	2015_Jul_21_1530	s	s	13	2	SIC	306	ABS	2	2	24VD	0	1	1.42902088165	None	None	None	None	1
1.7	2015_Jul_21_1530	s	s	13	2	SIC	307	ABS	0	2	24RD	0	1	0.748908042908	None	None	None	None	1
1.7	2015_Jul_21_1530	s	s	13	2	SIC	308	ABS	1	0	24MC	0	1	1.41190195084	None	None	None	None	1
1.7	2015_Jul_21_1530	s	s	13	2	SIC	309	RC	1	2	23MD	1	0	0.711757898331	-318.0	82.0	-317	80	1
1.7	2015_Jul_21_1530	s	s	13	2	SIC	310	ABS	1	1	24MO	0	1	1.41833806038	None	None	None	None	1
1.7	2015_Jul_21_1530	s	s	13	2	SIC	311	ABS	1	2	24MD	0	1	0.676963090897	None	None	None	None	1
1.7	2015_Jul_21_1530	s	s	13	2	SIC	312	RC	2	0	23VC	1	0	0.78249001503	14.0	-255.0	4	-249	1
1.7	2015_Jul_21_1530	s	s	13	2	SIC	313	ABS	0	1	24RO	0	1	4.91955709457	None	None	None	None	1
1.7	2015_Jul_21_1530	s	s	13	2	SIC	314	RC	2	1	23VO	1	0	0.584936857224	387.0	-237.0	390	-241	1
1.7	2015_Jul_21_1530	s	s	13	2	SIC	315	RC	0	1	23RO	1	0	0.976337194443	-257.0	-44.0	-256	-48	1
1.7	2015_Jul_21_1530	s	s	13	2	SIC	316	RC	1	1	23MO	1	0	0.820945978165	282.0	13.0	275	16	1
1.7	2015_Jul_21_1530	s	s	13	2	SIC	317	ABS	2	1	24VO	0	1	0.585178136826	None	None	None	None	1
1.7	2015_Jul_21_1530	s	s	13	2	SIC	318	RC	2	2	23VD	1	0	0.549911022186	-516.0	43.0	-514	41	1
1.7	2015_Jul_21_1530	s	s	13	2	SIC	319	ABS	2	0	24VC	0	1	0.646826982498	None	None	None	None	1
1.7	2015_Jul_21_1530	s	s	13	2	SIC	320	RC	1	0	23MC	1	0	1.18561697006	184.0	-78.0	180	-72	1
1.7	2015_Jul_21_1530	s	s	13	2	SIC	321	ABS	2	1	24VO	0	1	0.526421070099	None	None	None	None	1
1.7	2015_Jul_21_1530	s	s	13	2	SIC	322	RC	2	1	23VO	1	0	0.434872150421	458.0	292.0	458	284	1
1.7	2015_Jul_21_1530	s	s	13	2	SIC	323	RC	1	0	23MC	1	0	0.799728870392	299.0	-50.0	295	-54	1
1.7	2015_Jul_21_1530	s	s	13	2	SIC	324	ABS	1	2	24MD	0	1	0.615299940109	None	None	None	None	1
1.7	2015_Jul_21_1530	s	s	13	2	SIC	325	RC	2	2	23VD	1	0	0.532773971558	407.0	170.0	404	164	1
1.7	2015_Jul_21_1530	s	s	13	2	SIC	326	ABS	2	2	24VD	0	1	0.988154888153	None	None	None	None	1
1.7	2015_Jul_21_1530	s	s	13	2	SIC	327	RC	0	1	23RO	1	0	3.27534604073	226.0	-230.0	221	-230	1
1.7	2015_Jul_21_1530	s	s	13	2	SIC	328	ABS	2	0	24VC	0	1	0.511281967163	None	None	None	None	1
1.7	2015_Jul_21_1530	s	s	13	2	SIC	329	RC	0	2	23RD	1	0	0.738038063049	-146.0	-376.0	-147	-383	1
1.7	2015_Jul_21_1530	s	s	13	2	SIC	330	RC	2	0	23VC	1	0	0.606394052505	-279.0	-250.0	-281	-253	1
1.7	2015_Jul_21_1530	s	s	13	2	SIC	331	RC	1	2	23MD	1	0	0.593891859055	312.0	286.0	312	285	1
1.7	2015_Jul_21_1530	s	s	13	2	SIC	332	ABS	0	1	24RO	0	1	4.2603700161	None	None	None	None	1
1.7	2015_Jul_21_1530	s	s	13	2	SIC	333	ABS	1	1	24MO	0	1	1.80656003952	None	None	None	None	1
1.7	2015_Jul_21_1530	s	s	13	2	SIC	334	RC	1	1	23MO	1	0	0.729113817215	175.0	-192.0	170	-199	1
1.7	2015_Jul_21_1530	s	s	13	2	SIC	335	ABS	0	2	24RD	0	1	0.717941999435	None	None	None	None	1
1.7	2015_Jul_21_1530	s	s	13	2	SIC	336	ABS	1	0	24MC	0	1	2.99849796295	None	None	None	None	1
1.7	2015_Jul_21_1530	s	s	13	2	SIC	337	ABS	2	2	24VD	0	1	0.690365076065	None	None	None	None	1
1.7	2015_Jul_21_1530	s	s	13	2	SIC	338	RC	0	1	23RO	1	0	1.12952184677	88.0	-237.0	85	-244	1
1.7	2015_Jul_21_1530	s	s	13	2	SIC	339	RC	2	2	23VD	1	0	0.615155935287	219.0	232.0	212	234	1
1.7	2015_Jul_21_1530	s	s	13	2	SIC	340	RC	2	1	23VO	1	0	0.493712902069	-313.0	-42.0	-306	-41	1
1.7	2015_Jul_21_1530	s	s	13	2	SIC	341	RC	1	0	23MC	1	0	6.31792211533	481.0	-105.0	485	-104	1
1.7	2015_Jul_21_1530	s	s	13	2	SIC	342	ABS	1	0	24MC	0	1	1.83148217201	None	None	None	None	1
1.7	2015_Jul_21_1530	s	s	13	2	SIC	343	RC	2	0	23VC	1	0	0.667417049408	-49.0	350.0	-54	347	1
1.7	2015_Jul_21_1530	s	s	13	2	SIC	344	ABS	2	1	24VO	0	1	0.823362112045	None	None	None	None	1
1.7	2015_Jul_21_1530	s	s	13	2	SIC	345	ABS	0	1	24RO	0	1	3.38454604149	None	None	None	None	1
1.7	2015_Jul_21_1530	s	s	13	2	SIC	346	ABS	0	2	24RD	0	1	1.0203230381	None	None	None	None	1
1.7	2015_Jul_21_1530	s	s	13	2	SIC	347	RC	1	2	23MD	1	0	0.60680103302	-129.0	167.0	-132	161	1
1.7	2015_Jul_21_1530	s	s	13	2	SIC	348	RC	0	2	23RD	1	0	1.39734077454	-82.0	78.0	-75	82	1
1.7	2015_Jul_21_1530	s	s	13	2	SIC	349	ABS	1	2	24MD	0	1	0.705523014069	None	None	None	None	1
1.7	2015_Jul_21_1530	s	s	13	2	SIC	350	ABS	2	0	24VC	0	1	0.667240142822	None	None	None	None	1
1.7	2015_Jul_21_1530	s	s	13	2	SIC	351	ABS	1	1	24MO	0	1	1.17672896385	None	None	None	None	1
1.7	2015_Jul_21_1530	s	s	13	2	SIC	352	RC	1	1	23MO	1	0	4.52824878693	-69.0	-60.0	-62	-59	1
1.7	2015_Jul_21_1530	s	s	13	2	SIC	353	ABS	2	1	24VO	0	1	0.512814998627	None	None	None	None	1
1.7	2015_Jul_21_1530	s	s	13	2	SIC	354	RC	1	0	23MC	1	0	2.17691493034	389.0	382.0	393	383	1
1.7	2015_Jul_21_1530	s	s	13	2	SIC	355	ABS	1	0	24MC	0	1	2.6006629467	None	None	None	None	1
1.7	2015_Jul_21_1530	s	s	13	2	SIC	356	RC	2	1	23VO	1	0	0.559462070465	-370.0	295.0	-364	296	1
1.7	2015_Jul_21_1530	s	s	13	2	SIC	357	ABS	0	2	24RD	0	1	0.997497081757	None	None	None	None	1
1.7	2015_Jul_21_1530	s	s	13	2	SIC	358	RC	1	2	23MD	1	0	0.799739122391	-135.0	-258.0	-138	-257	1
1.7	2015_Jul_21_1530	s	s	13	2	SIC	359	RC	0	2	23RD	1	0	1.01200389862	-225.0	-404.0	-234	-403	1
1.7	2015_Jul_21_1530	s	s	13	2	SIC	360	ABS	2	0	24VC	0	1	0.387846946716	None	None	None	None	1
1.7	2015_Jul_21_1530	s	s	13	2	SIC	361	RC	2	2	23VD	1	0	0.646744012833	476.0	-290.0	467	-293	1
1.7	2015_Jul_21_1530	s	s	13	2	SIC	362	ABS	1	2	24MD	0	1	0.791761875153	None	None	None	None	1
1.7	2015_Jul_21_1530	s	s	13	2	SIC	363	RC	0	1	23RO	1	0	3.37757301331	-505.0	-130.0	-503	-126	1
1.7	2015_Jul_21_1530	s	s	13	2	SIC	364	RC	1	1	23MO	1	0	1.05590891838	-118.0	326.0	-122	324	1
1.7	2015_Jul_21_1530	s	s	13	2	SIC	365	RC	2	0	23VC	1	0	0.634938001633	-244.0	368.0	-242	362	1
1.7	2015_Jul_21_1530	s	s	13	2	SIC	366	ABS	0	1	24RO	0	1	3.70393586159	None	None	None	None	1
1.7	2015_Jul_21_1530	s	s	13	2	SIC	367	ABS	2	2	24VD	0	1	0.584764003754	None	None	None	None	1
1.7	2015_Jul_21_1530	s	s	13	2	SIC	368	ABS	1	1	24MO	0	1	1.43272304535	None	None	None	None	1
1.7	2015_Jul_21_1530	s	s	13	2	SIC	369	ABS	1	1	24MO	0	1	1.45425605774	None	None	None	None	1
1.7	2015_Jul_21_1530	s	s	13	2	SIC	370	RC	1	1	23MO	1	0	1.44713687897	180.0	-178.0	175	-170	1
1.7	2015_Jul_21_1530	s	s	13	2	SIC	371	RC	2	2	23VD	1	0	0.517207860947	-95.0	178.0	-95	169	1
1.7	2015_Jul_21_1530	s	s	13	2	SIC	372	RC	2	0	23VC	1	0	0.523989915848	-208.0	385.0	-202	389	1
1.7	2015_Jul_21_1530	s	s	13	2	SIC	373	RC	1	2	23MD	1	0	0.584620952606	-115.0	364.0	-123	373	1
1.7	2015_Jul_21_1530	s	s	13	2	SIC	374	ABS	2	1	24VO	0	1	0.664664030075	None	None	None	None	1
1.7	2015_Jul_21_1530	s	s	13	2	SIC	375	ABS	2	0	24VC	0	1	0.618910074234	None	None	None	None	1
1.7	2015_Jul_21_1530	s	s	13	2	SIC	376	ABS	0	2	24RD	0	1	0.844408035278	None	None	None	None	1
1.7	2015_Jul_21_1530	s	s	13	2	SIC	377	ABS	1	0	24MC	0	1	2.32984900475	None	None	None	None	1
1.7	2015_Jul_21_1530	s	s	13	2	SIC	378	ABS	2	2	24VD	0	1	0.584401845932	None	None	None	None	1
1.7	2015_Jul_21_1530	s	s	13	2	SIC	379	RC	1	0	23MC	1	0	6.9209189415	499.0	315.0	495	324	1
1.7	2015_Jul_21_1530	s	s	13	2	SIC	380	ABS	1	2	24MD	0	1	2.27806019783	None	None	None	None	1
1.7	2015_Jul_21_1530	s	s	13	2	SIC	381	RC	0	1	23RO	1	0	2.52505779266	-407.0	22.0	-407	23	1
1.7	2015_Jul_21_1530	s	s	13	2	SIC	382	RC	2	1	23VO	1	0	0.594760894775	-229.0	245.0	-234	244	1
1.7	2015_Jul_21_1530	s	s	13	2	SIC	383	RC	0	2	23RD	1	0	0.620111942291	276.0	-54.0	277	-65	1
1.7	2015_Jul_21_1530	s	s	13	2	SIC	384	ABS	0	1	24RO	0	1	4.44873094559	None	None	None	None	1
1.7	2015_Jul_21_1530	s	s	13	2	SIC	385	RC	1	0	23MC	1	0	3.78429698944	485.0	27.0	487	28	1
1.7	2015_Jul_21_1530	s	s	13	2	SIC	386	ABS	1	2	24MD	0	1	0.550150871277	None	None	None	None	1
1.7	2015_Jul_21_1530	s	s	13	2	SIC	387	ABS	1	1	24MO	0	1	2.01203107834	None	None	None	None	1
1.7	2015_Jul_21_1530	s	s	13	2	SIC	388	RC	2	0	23VC	1	0	0.973455905914	-141.0	190.0	-137	199	1
1.7	2015_Jul_21_1530	s	s	13	2	SIC	389	RC	2	2	23VD	1	0	0.500195026398	-231.0	-280.0	-234	-286	1
1.7	2015_Jul_21_1530	s	s	13	2	SIC	390	RC	2	1	23VO	1	0	0.93821811676	319.0	-309.0	318	-306	1
1.7	2015_Jul_21_1530	s	s	13	2	SIC	391	RC	0	1	23RO	1	0	3.36574578285	146.0	375.0	148	381	1
1.7	2015_Jul_21_1530	s	s	13	2	SIC	392	RC	1	2	23MD	1	0	0.526293039322	-57.0	-118.0	-60	-120	1
1.7	2015_Jul_21_1530	s	s	13	2	SIC	393	ABS	2	0	24VC	0	1	0.890591859818	None	None	None	None	1
1.7	2015_Jul_21_1530	s	s	13	2	SIC	394	ABS	0	2	24RD	0	1	0.858883857727	None	None	None	None	1
1.7	2015_Jul_21_1530	s	s	13	2	SIC	395	ABS	2	2	24VD	0	1	0.501313924789	None	None	None	None	1
1.7	2015_Jul_21_1530	s	s	13	2	SIC	396	RC	0	2	23RD	1	0	0.658498048782	-317.0	146.0	-322	153	1
1.7	2015_Jul_21_1530	s	s	13	2	SIC	397	ABS	0	1	24RO	0	1	4.80181312561	None	None	None	None	1
1.7	2015_Jul_21_1530	s	s	13	2	SIC	398	RC	1	1	23MO	1	0	0.929291009903	517.0	-86.0	514	-78	1
1.7	2015_Jul_21_1530	s	s	13	2	SIC	399	ABS	1	0	24MC	0	1	2.45644187927	None	None	None	None	1
1.7	2015_Jul_21_1530	s	s	13	2	SIC	400	ABS	2	1	24VO	0	1	0.67698597908	None	None	None	None	1
1.7	2015_Jul_21_1530	s	s	13	2	SIC	401	RC	0	2	23RD	1	0	0.54637503624	396.0	-134.0	392	-129	1
1.7	2015_Jul_21_1530	s	s	13	2	SIC	402	ABS	1	1	24MO	0	1	1.55905508995	None	None	None	None	1
1.7	2015_Jul_21_1530	s	s	13	2	SIC	403	RC	2	0	23VC	1	0	0.57611489296	-128.0	-315.0	-129	-324	1
1.7	2015_Jul_21_1530	s	s	13	2	SIC	404	RC	1	1	23MO	1	0	2.56542897224	97.0	-96.0	91	-91	1
1.7	2015_Jul_21_1530	s	s	13	2	SIC	405	ABS	2	2	24VD	0	1	0.603217840195	None	None	None	None	1
1.7	2015_Jul_21_1530	s	s	13	2	SIC	406	RC	0	1	23RO	0	1	3.23365116119	-195.0	-179.0	None	None	0
1.7	2015_Jul_21_1530	s	s	13	2	SIC	407	ABS	2	0	24VC	0	1	0.846768140793	None	None	None	None	1
1.7	2015_Jul_21_1530	s	s	13	2	SIC	408	ABS	0	1	24RO	0	1	3.68060803413	None	None	None	None	1
1.7	2015_Jul_21_1530	s	s	13	2	SIC	409	RC	2	2	23VD	1	0	0.729022979736	340.0	-16.0	348	-22	1
1.7	2015_Jul_21_1530	s	s	13	2	SIC	410	ABS	0	2	24RD	0	1	0.882180929184	None	None	None	None	1
1.7	2015_Jul_21_1530	s	s	13	2	SIC	411	ABS	2	1	24VO	0	1	1.07043218613	None	None	None	None	1
1.7	2015_Jul_21_1530	s	s	13	2	SIC	412	RC	2	1	23VO	1	0	0.717422008514	-128.0	-381.0	-125	-390	1
1.7	2015_Jul_21_1530	s	s	13	2	SIC	413	ABS	1	0	24MC	0	1	1.4202170372	None	None	None	None	1
1.7	2015_Jul_21_1530	s	s	13	2	SIC	414	RC	1	2	23MD	1	0	0.846725940704	-453.0	277.0	-451	267	1
1.7	2015_Jul_21_1530	s	s	13	2	SIC	415	ABS	1	2	24MD	0	1	1.14730000496	None	None	None	None	1
1.7	2015_Jul_21_1530	s	s	13	2	SIC	416	RC	1	0	23MC	1	0	3.9424829483	-493.0	63.0	-491	66	1
1.7	2015_Jul_21_1530	s	s	13	2	SIC	417	RC	2	0	23VC	1	0	0.552537918091	-39.0	60.0	-35	55	1
1.7	2015_Jul_21_1530	s	s	13	2	SIC	418	ABS	1	0	24MC	0	1	0.864383935928	None	None	None	None	1
1.7	2015_Jul_21_1530	s	s	13	2	SIC	419	ABS	1	2	24MD	0	1	0.724596977234	None	None	None	None	1
1.7	2015_Jul_21_1530	s	s	13	2	SIC	420	ABS	0	2	24RD	0	1	0.552546977997	None	None	None	None	1
1.7	2015_Jul_21_1530	s	s	13	2	SIC	421	ABS	0	1	24RO	0	1	4.3377289772	None	None	None	None	1
1.7	2015_Jul_21_1530	s	s	13	2	SIC	422	RC	1	1	23MO	1	0	1.38860583305	242.0	-224.0	237	-225	1
1.7	2015_Jul_21_1530	s	s	13	2	SIC	423	RC	2	1	23VO	1	0	0.59681892395	110.0	198.0	106	202	1
1.7	2015_Jul_21_1530	s	s	13	2	SIC	424	RC	0	1	23RO	1	0	2.37700891495	473.0	-380.0	475	-376	1
1.7	2015_Jul_21_1530	s	s	13	2	SIC	425	ABS	1	1	24MO	0	1	1.03896307945	None	None	None	None	1
1.7	2015_Jul_21_1530	s	s	13	2	SIC	426	ABS	2	2	24VD	0	1	0.76146697998	None	None	None	None	1
1.7	2015_Jul_21_1530	s	s	13	2	SIC	427	RC	1	2	23MD	1	0	0.764309883118	-196.0	-116.0	-203	-113	1
1.7	2015_Jul_21_1530	s	s	13	2	SIC	428	RC	2	2	23VD	1	0	0.693832874298	-201.0	367.0	-198	364	1
1.7	2015_Jul_21_1530	s	s	13	2	SIC	429	RC	1	0	23MC	1	0	8.94227194786	-393.0	-107.0	-392	-109	1
1.7	2015_Jul_21_1530	s	s	13	2	SIC	430	ABS	2	0	24VC	0	1	0.587944030762	None	None	None	None	1
1.7	2015_Jul_21_1530	s	s	13	2	SIC	431	ABS	2	1	24VO	0	1	0.594541072845	None	None	None	None	1
1.7	2015_Jul_21_1530	s	s	13	2	SIC	432	RC	0	2	23RD	1	0	0.580417871475	399.0	168.0	407	163	1
1.7	2015_Jul_21_1530	s	s	13	2	SIC	433	RC	2	2	23VD	1	0	0.59539103508	-302.0	-155.0	-310	-155	1
1.7	2015_Jul_21_1530	s	s	13	2	SIC	434	RC	0	1	23RO	1	0	2.22400712967	-279.0	-345.0	-285	-347	1
1.7	2015_Jul_21_1530	s	s	13	2	SIC	435	ABS	1	1	24MO	0	1	1.47064995766	None	None	None	None	1
1.7	2015_Jul_21_1530	s	s	13	2	SIC	436	ABS	2	2	24VD	0	1	1.00826501846	None	None	None	None	1
1.7	2015_Jul_21_1530	s	s	13	2	SIC	437	ABS	2	1	24VO	0	1	0.620445013046	None	None	None	None	1
1.7	2015_Jul_21_1530	s	s	13	2	SIC	438	RC	2	1	23VO	1	0	0.75275015831	-271.0	-340.0	-280	-341	1
1.7	2015_Jul_21_1530	s	s	13	2	SIC	439	RC	1	2	23MD	1	0	1.5583460331	168.0	156.0	170	163	1
1.7	2015_Jul_21_1530	s	s	13	2	SIC	440	ABS	0	2	24RD	0	1	0.799804925919	None	None	None	None	1
1.7	2015_Jul_21_1530	s	s	13	2	SIC	441	RC	1	0	23MC	1	0	2.27106976509	17.0	188.0	20	189	1
1.7	2015_Jul_21_1530	s	s	13	2	SIC	442	ABS	1	0	24MC	0	1	1.43165397644	None	None	None	None	1
1.7	2015_Jul_21_1530	s	s	13	2	SIC	443	ABS	1	2	24MD	0	1	0.595546007156	None	None	None	None	1
1.7	2015_Jul_21_1530	s	s	13	2	SIC	444	RC	1	1	23MO	1	0	0.853080034256	110.0	-308.0	118	-310	1
1.7	2015_Jul_21_1530	s	s	13	2	SIC	445	RC	2	0	23VC	1	0	0.740876913071	-360.0	350.0	-363	345	1
1.7	2015_Jul_21_1530	s	s	13	2	SIC	446	ABS	0	1	24RO	0	1	5.39041209221	None	None	None	None	1
1.7	2015_Jul_21_1530	s	s	13	2	SIC	447	ABS	2	0	24VC	0	1	0.705621004105	None	None	None	None	1
1.7	2015_Jul_21_1530	s	s	13	2	SIC	448	RC	0	2	23RD	1	0	0.852967977524	73.0	177.0	65	171	1
1.7	2015_Jul_21_1530	s	s	13	2	SIC	449	RC	2	0	23VC	1	0	0.632640838623	-255.0	-291.0	-255	-299	1
1.7	2015_Jul_21_1530	s	s	13	2	SIC	450	RC	0	2	23RD	1	0	0.599534034729	-4.0	78.0	-13	75	1
1.7	2015_Jul_21_1530	s	s	13	2	SIC	451	ABS	2	0	24VC	0	1	0.740931987762	None	None	None	None	1
1.7	2015_Jul_21_1530	s	s	13	2	SIC	452	ABS	0	2	24RD	0	1	0.682036876678	None	None	None	None	1
1.7	2015_Jul_21_1530	s	s	13	2	SIC	453	ABS	1	1	24MO	0	1	1.37639403343	None	None	None	None	1
1.7	2015_Jul_21_1530	s	s	13	2	SIC	454	RC	2	1	23VO	1	0	0.611414909363	-168.0	-408.0	-170	-406	1
1.7	2015_Jul_21_1530	s	s	13	2	SIC	455	RC	0	1	23RO	1	0	2.70698094368	538.0	-298.0	539	-302	1
1.7	2015_Jul_21_1530	s	s	13	2	SIC	456	RC	1	2	23MD	1	0	1.19995284081	337.0	-324.0	343	-329	1
1.7	2015_Jul_21_1530	s	s	13	2	SIC	457	RC	1	1	23MO	1	0	1.58833098412	-33.0	271.0	-31	272	1
1.7	2015_Jul_21_1530	s	s	13	2	SIC	458	RC	1	0	23MC	1	0	1.84225606918	320.0	383.0	322	380	1
1.7	2015_Jul_21_1530	s	s	13	2	SIC	459	RC	2	2	23VD	1	0	0.750282049179	-19.0	-258.0	-20	-261	1
1.7	2015_Jul_21_1530	s	s	13	2	SIC	460	ABS	2	1	24VO	0	1	0.646698951721	None	None	None	None	1
1.7	2015_Jul_21_1530	s	s	13	2	SIC	461	ABS	0	1	24RO	0	1	4.30498409271	None	None	None	None	1
1.7	2015_Jul_21_1530	s	s	13	2	SIC	462	ABS	2	2	24VD	0	1	0.596905946732	None	None	None	None	1
1.7	2015_Jul_21_1530	s	s	13	2	SIC	463	ABS	1	2	24MD	0	1	0.829634189606	None	None	None	None	1
1.7	2015_Jul_21_1530	s	s	13	2	SIC	464	ABS	1	0	24MC	0	1	1.36465787888	None	None	None	None	1
1.7	2015_Jul_21_1530	s	s	13	2	SIC	465	RC	0	2	23RD	1	0	0.646721124649	-50.0	-53.0	-53	-53	1
1.7	2015_Jul_21_1530	s	s	13	2	SIC	466	ABS	2	2	24VD	0	1	0.599761009216	None	None	None	None	1
1.7	2015_Jul_21_1530	s	s	13	2	SIC	467	RC	2	1	23VO	1	0	0.842602968216	-389.0	364.0	-395	363	1
1.7	2015_Jul_21_1530	s	s	13	2	SIC	468	ABS	2	1	24VO	0	1	0.984158992767	None	None	None	None	1
1.7	2015_Jul_21_1530	s	s	13	2	SIC	469	RC	0	1	23RO	1	0	1.22353291512	420.0	198.0	413	196	1
1.7	2015_Jul_21_1530	s	s	13	2	SIC	470	ABS	1	0	24MC	0	1	2.90299892426	None	None	None	None	1
1.7	2015_Jul_21_1530	s	s	13	2	SIC	471	ABS	1	1	24MO	0	1	1.71787786484	None	None	None	None	1
1.7	2015_Jul_21_1530	s	s	13	2	SIC	472	RC	2	2	23VD	1	0	0.764430046082	62.0	281.0	64	281	1
1.7	2015_Jul_21_1530	s	s	13	2	SIC	473	ABS	0	2	24RD	0	1	1.74766302109	None	None	None	None	1
1.7	2015_Jul_21_1530	s	s	13	2	SIC	474	RC	1	2	23MD	1	0	0.665488004684	-216.0	-174.0	-219	-173	1
1.7	2015_Jul_21_1530	s	s	13	2	SIC	475	RC	1	0	23MC	1	0	2.63601493835	-424.0	355.0	-423	357	1
1.7	2015_Jul_21_1530	s	s	13	2	SIC	476	ABS	2	0	24VC	0	1	0.714164018631	None	None	None	None	1
1.7	2015_Jul_21_1530	s	s	13	2	SIC	477	ABS	1	2	24MD	0	1	0.523837089539	None	None	None	None	1
1.7	2015_Jul_21_1530	s	s	13	2	SIC	478	RC	2	0	23VC	1	0	0.784245014191	-254.0	-181.0	-258	-177	1
1.7	2015_Jul_21_1530	s	s	13	2	SIC	479	RC	1	1	23MO	1	0	2.68072080612	475.0	-83.0	480	-85	1
1.7	2015_Jul_21_1530	s	s	13	2	SIC	480	ABS	0	1	24RO	0	1	6.2465338707	None	None	None	None	1
1.7	2015_Jul_21_1530	s	s	13	2	SIC	481	ABS	2	1	24VO	0	1	0.655866146088	None	None	None	None	1
1.7	2015_Jul_21_1530	s	s	13	2	SIC	482	ABS	0	2	24RD	0	1	0.784815073013	None	None	None	None	1
1.7	2015_Jul_21_1530	s	s	13	2	SIC	483	ABS	2	2	24VD	0	1	0.561255931854	None	None	None	None	1
1.7	2015_Jul_21_1530	s	s	13	2	SIC	484	ABS	1	0	24MC	0	1	2.51299405098	None	None	None	None	1
1.7	2015_Jul_21_1530	s	s	13	2	SIC	485	RC	0	1	23RO	1	0	1.52451896667	-210.0	371.0	-212	365	1
1.7	2015_Jul_21_1530	s	s	13	2	SIC	486	RC	1	1	23MO	1	0	4.21095585823	-457.0	212.0	-455	212	1
1.7	2015_Jul_21_1530	s	s	13	2	SIC	487	RC	2	0	23VC	1	0	0.67013502121	275.0	232.0	272	232	1
1.7	2015_Jul_21_1530	s	s	13	2	SIC	488	RC	2	1	23VO	1	0	0.619513034821	166.0	98.0	168	104	1
1.7	2015_Jul_21_1530	s	s	13	2	SIC	489	RC	1	2	23MD	1	0	0.950181007385	-412.0	-335.0	-420	-332	1
1.7	2015_Jul_21_1530	s	s	13	2	SIC	490	RC	0	2	23RD	1	0	1.40921592712	379.0	288.0	372	289	1
1.7	2015_Jul_21_1530	s	s	13	2	SIC	491	ABS	1	2	24MD	0	1	0.679412126541	None	None	None	None	1
1.7	2015_Jul_21_1530	s	s	13	2	SIC	492	ABS	2	0	24VC	0	1	0.723202943802	None	None	None	None	1
1.7	2015_Jul_21_1530	s	s	13	2	SIC	493	RC	1	0	23MC	1	0	10.3186202049	-117.0	206.0	-111	208	1
1.7	2015_Jul_21_1530	s	s	13	2	SIC	494	ABS	1	1	24MO	0	1	2.22395205498	None	None	None	None	1
1.7	2015_Jul_21_1530	s	s	13	2	SIC	495	RC	2	2	23VD	1	0	1.15978503227	308.0	-271.0	303	-270	1
1.7	2015_Jul_21_1530	s	s	13	2	SIC	496	ABS	0	1	24RO	0	1	4.26632905006	None	None	None	None	1
1.7	2015_Jul_21_1530	s	s	13	2	SIC	497	ABS	1	0	24MC	0	1	1.60630106926	None	None	None	None	1
1.7	2015_Jul_21_1530	s	s	13	2	SIC	498	RC	1	2	23MD	1	0	2.60979294777	-179.0	-230.0	-182	-232	1
1.7	2015_Jul_21_1530	s	s	13	2	SIC	499	ABS	0	2	24RD	0	1	0.881953954697	None	None	None	None	1
1.7	2015_Jul_21_1530	s	s	13	2	SIC	500	RC	2	1	23VO	1	0	0.799798965454	-262.0	335.0	-268	334	1
1.7	2015_Jul_21_1530	s	s	13	2	SIC	501	RC	2	2	23VD	1	0	0.73289680481	-448.0	305.0	-448	310	1
1.7	2015_Jul_21_1530	s	s	13	2	SIC	502	ABS	1	1	24MO	0	1	2.22406315804	None	None	None	None	1
1.7	2015_Jul_21_1530	s	s	13	2	SIC	503	RC	1	1	23MO	1	0	1.58876800537	340.0	401.0	335	399	1
1.7	2015_Jul_21_1530	s	s	13	2	SIC	504	ABS	2	1	24VO	0	1	0.985422849655	None	None	None	None	1
1.7	2015_Jul_21_1530	s	s	13	2	SIC	505	ABS	1	2	24MD	0	1	0.665092945099	None	None	None	None	1
1.7	2015_Jul_21_1530	s	s	13	2	SIC	506	RC	2	0	23VC	1	0	0.774136066437	212.0	-123.0	205	-124	1
1.7	2015_Jul_21_1530	s	s	13	2	SIC	507	RC	0	2	23RD	1	0	1.5960791111	-177.0	-380.0	-170	-383	1
1.7	2015_Jul_21_1530	s	s	13	2	SIC	508	ABS	2	0	24VC	0	1	1.20683598518	None	None	None	None	1
1.7	2015_Jul_21_1530	s	s	13	2	SIC	509	RC	1	0	23MC	1	0	3.31569504738	-4.0	-134.0	-3	-135	1
1.7	2015_Jul_21_1530	s	s	13	2	SIC	510	ABS	2	2	24VD	0	1	0.505412101746	None	None	None	None	1
1.7	2015_Jul_21_1530	s	s	13	2	SIC	511	RC	0	1	23RO	1	0	3.22449016571	452.0	299.0	444	294	1
1.7	2015_Jul_21_1530	s	s	13	2	SIC	512	ABS	0	1	24RO	0	1	4.94349884987	None	None	None	None	1
1.7	2015_Jul_21_1530	s	s	13	2	SIC	513	RC	2	0	23VC	1	0	0.949846982956	0.0	302.0	-4	305	1
1.7	2015_Jul_21_1530	s	s	13	2	SIC	514	RC	0	1	23RO	1	0	1.18858194351	-53.0	343.0	-53	325	1
1.7	2015_Jul_21_1530	s	s	13	2	SIC	515	ABS	0	2	24RD	0	1	0.772917032242	None	None	None	None	1
1.7	2015_Jul_21_1530	s	s	13	2	SIC	516	RC	2	1	23VO	1	0	0.67631983757	412.0	197.0	407	190	1
1.7	2015_Jul_21_1530	s	s	13	2	SIC	517	ABS	1	2	24MD	0	1	0.68199801445	None	None	None	None	1
1.7	2015_Jul_21_1530	s	s	13	2	SIC	518	ABS	1	1	24MO	0	1	1.40531086922	None	None	None	None	1
1.7	2015_Jul_21_1530	s	s	13	2	SIC	519	RC	0	2	23RD	1	0	0.611376047134	188.0	-146.0	187	-143	1
1.7	2015_Jul_21_1530	s	s	13	2	SIC	520	RC	2	2	23VD	1	0	0.630989074707	-177.0	-280.0	-172	-285	1
1.7	2015_Jul_21_1530	s	s	13	2	SIC	521	RC	1	1	23MO	1	0	2.47972393036	-24.0	-381.0	-25	-372	1
1.7	2015_Jul_21_1530	s	s	13	2	SIC	522	RC	1	0	23MC	1	0	2.92777299881	143.0	46.0	149	47	1
1.7	2015_Jul_21_1530	s	s	13	2	SIC	523	ABS	0	1	24RO	0	1	5.36202812195	None	None	None	None	1
1.7	2015_Jul_21_1530	s	s	13	2	SIC	524	RC	1	2	23MD	1	0	0.658622980118	417.0	112.0	417	116	1
1.7	2015_Jul_21_1530	s	s	13	2	SIC	525	ABS	1	0	24MC	0	1	2.31301903725	None	None	None	None	1
1.7	2015_Jul_21_1530	s	s	13	2	SIC	526	ABS	2	0	24VC	0	1	0.60610294342	None	None	None	None	1
1.7	2015_Jul_21_1530	s	s	13	2	SIC	527	ABS	2	2	24VD	0	1	0.583620071411	None	None	None	None	1
1.7	2015_Jul_21_1530	s	s	13	2	SIC	528	ABS	2	1	24VO	0	1	0.643249034882	None	None	None	None	1
1.7	2015_Jul_21_1530	s	s	13	2	SIC	529	RC	0	1	23RO	1	0	1.79515910149	502.0	212.0	495	209	1
1.7	2015_Jul_21_1530	s	s	13	2	SIC	530	ABS	1	2	24MD	0	1	0.715099096298	None	None	None	None	1
1.7	2015_Jul_21_1530	s	s	13	2	SIC	531	ABS	0	1	24RO	0	1	5.06062507629	None	None	None	None	1
1.7	2015_Jul_21_1530	s	s	13	2	SIC	532	ABS	1	0	24MC	0	1	2.7713470459	None	None	None	None	1
1.7	2015_Jul_21_1530	s	s	13	2	SIC	533	RC	1	1	23MO	1	0	0.971354007721	229.0	100.0	230	109	1
1.7	2015_Jul_21_1530	s	s	13	2	SIC	534	ABS	0	2	24RD	0	1	0.853572130203	None	None	None	None	1
1.7	2015_Jul_21_1530	s	s	13	2	SIC	535	RC	1	2	23MD	1	0	0.693799972534	-139.0	-21.0	-138	-13	1
1.7	2015_Jul_21_1530	s	s	13	2	SIC	536	RC	2	1	23VO	1	0	0.623196125031	82.0	-182.0	82	-184	1
1.7	2015_Jul_21_1530	s	s	13	2	SIC	537	ABS	1	1	24MO	0	1	1.03507304192	None	None	None	None	1
1.7	2015_Jul_21_1530	s	s	13	2	SIC	538	RC	2	0	23VC	1	0	0.679445028305	288.0	-243.0	286	-240	1
1.7	2015_Jul_21_1530	s	s	13	2	SIC	539	ABS	2	2	24VD	0	1	0.670152187347	None	None	None	None	1
1.7	2015_Jul_21_1530	s	s	13	2	SIC	540	RC	1	0	23MC	1	0	1.15662384033	319.0	354.0	312	354	1
1.7	2015_Jul_21_1530	s	s	13	2	SIC	541	ABS	2	1	24VO	0	1	0.479148864746	None	None	None	None	1
1.7	2015_Jul_21_1530	s	s	13	2	SIC	542	RC	0	2	23RD	1	0	0.771019935608	112.0	-171.0	104	-174	1
1.7	2015_Jul_21_1530	s	s	13	2	SIC	543	RC	2	2	23VD	1	0	0.64403295517	279.0	-352.0	277	-355	1
1.7	2015_Jul_21_1530	s	s	13	2	SIC	544	ABS	2	0	24VC	0	1	0.634911060333	None	None	None	None	1
1.7	2015_Jul_21_1530	s	s	13	2	SIC	545	RC	0	2	23RD	1	0	0.829607963562	-374.0	-292.0	-379	-289	1
1.7	2015_Jul_21_1530	s	s	13	2	SIC	546	RC	2	2	23VD	1	0	0.526823997498	-33.0	285.0	-34	286	1
1.7	2015_Jul_21_1530	s	s	13	2	SIC	547	RC	1	2	23MD	1	0	0.582129001617	227.0	118.0	231	116	1
1.7	2015_Jul_21_1530	s	s	13	2	SIC	548	RC	2	1	23VO	1	0	0.817482948303	488.0	133.0	486	134	1
1.7	2015_Jul_21_1530	s	s	13	2	SIC	549	ABS	2	0	24VC	0	1	0.57047700882	None	None	None	None	1
1.7	2015_Jul_21_1530	s	s	13	2	SIC	550	ABS	0	1	24RO	0	1	4.21321702003	None	None	None	None	1
1.7	2015_Jul_21_1530	s	s	13	2	SIC	551	RC	1	0	23MC	1	0	7.04475188255	-141.0	299.0	-150	304	1
1.7	2015_Jul_21_1530	s	s	13	2	SIC	552	RC	2	0	23VC	1	0	1.68264198303	42.0	233.0	37	230	1
1.7	2015_Jul_21_1530	s	s	13	2	SIC	553	ABS	1	2	24MD	0	1	0.623224973679	None	None	None	None	1
1.7	2015_Jul_21_1530	s	s	13	2	SIC	554	ABS	2	1	24VO	0	1	1.08962202072	None	None	None	None	1
1.7	2015_Jul_21_1530	s	s	13	2	SIC	555	ABS	2	2	24VD	0	1	0.630315065384	None	None	None	None	1
1.7	2015_Jul_21_1530	s	s	13	2	SIC	556	RC	0	1	23RO	1	0	1.26495099068	-414.0	-88.0	-408	-89	1
1.7	2015_Jul_21_1530	s	s	13	2	SIC	557	RC	1	1	23MO	1	0	0.900074958801	272.0	83.0	270	79	1
1.7	2015_Jul_21_1530	s	s	13	2	SIC	558	ABS	1	0	24MC	0	1	1.41171097755	None	None	None	None	1
1.7	2015_Jul_21_1530	s	s	13	2	SIC	559	ABS	1	1	24MO	0	1	1.81609106064	None	None	None	None	1
1.7	2015_Jul_21_1530	s	s	13	2	SIC	560	ABS	0	2	24RD	0	1	0.724091053009	None	None	None	None	1
1.7	2015_Jul_21_1530	s	s	13	2	SIC	561	ABS	1	2	24MD	0	1	1.21807909012	None	None	None	None	1
1.7	2015_Jul_21_1530	s	s	13	2	SIC	562	RC	2	1	23VO	1	0	0.738121986389	-239.0	-381.0	-248	-382	1
1.7	2015_Jul_21_1530	s	s	13	2	SIC	563	RC	1	1	23MO	1	0	2.95119309425	-327.0	-94.0	-324	-92	1
1.7	2015_Jul_21_1530	s	s	13	2	SIC	564	ABS	2	1	24VO	0	1	0.917468070984	None	None	None	None	1
1.7	2015_Jul_21_1530	s	s	13	2	SIC	565	RC	2	0	23VC	1	0	1.35035300255	288.0	-283.0	288	-278	1
1.7	2015_Jul_21_1530	s	s	13	2	SIC	566	RC	0	1	23RO	1	0	2.67826700211	-367.0	320.0	-365	325	1
1.7	2015_Jul_21_1530	s	s	13	2	SIC	567	ABS	0	1	24RO	0	1	4.49569487572	None	None	None	None	1
1.7	2015_Jul_21_1530	s	s	13	2	SIC	568	ABS	0	2	24RD	0	1	0.893951892853	None	None	None	None	1
1.7	2015_Jul_21_1530	s	s	13	2	SIC	569	ABS	2	0	24VC	0	1	0.525959968567	None	None	None	None	1
1.7	2015_Jul_21_1530	s	s	13	2	SIC	570	RC	0	2	23RD	1	0	1.28252410889	-428.0	-345.0	-434	-346	1
1.7	2015_Jul_21_1530	s	s	13	2	SIC	571	RC	2	2	23VD	1	0	0.776185035706	141.0	104.0	138	105	1
1.7	2015_Jul_21_1530	s	s	13	2	SIC	572	ABS	1	1	24MO	0	1	1.25082015991	None	None	None	None	1
1.7	2015_Jul_21_1530	s	s	13	2	SIC	573	RC	1	0	23MC	1	0	3.51373291016	-317.0	-283.0	-313	-284	1
1.7	2015_Jul_21_1530	s	s	13	2	SIC	574	ABS	1	0	24MC	0	1	3.9189388752	None	None	None	None	1
1.7	2015_Jul_21_1530	s	s	13	2	SIC	575	RC	1	2	23MD	1	0	1.10329699516	-378.0	-64.0	-373	-58	1
1.7	2015_Jul_21_1530	s	s	13	2	SIC	576	ABS	2	2	24VD	0	1	0.699902057648	None	None	None	None	1
1.7	2015_Jul_21_1530	s	s	13	2	SIC	577	ABS	0	2	24RD	0	1	1.18323707581	None	None	None	None	1
1.7	2015_Jul_21_1530	s	s	13	2	SIC	578	ABS	2	2	24VD	0	1	0.476947069168	None	None	None	None	1
1.7	2015_Jul_21_1530	s	s	13	2	SIC	579	ABS	0	1	24RO	0	1	4.36629605293	None	None	None	None	1
1.7	2015_Jul_21_1530	s	s	13	2	SIC	580	RC	2	2	23VD	1	0	0.56439614296	-229.0	284.0	-221	285	1
1.7	2015_Jul_21_1530	s	s	13	2	SIC	581	RC	1	0	23MC	1	0	8.89312314987	145.0	-218.0	137	-210	1
1.7	2015_Jul_21_1530	s	s	13	2	SIC	582	RC	2	1	23VO	1	0	0.735836029053	224.0	-65.0	228	-70	1
1.7	2015_Jul_21_1530	s	s	13	2	SIC	583	ABS	1	1	24MO	0	1	2.1745839119	None	None	None	None	1
1.7	2015_Jul_21_1530	s	s	13	2	SIC	584	RC	2	0	23VC	1	0	1.25870394707	317.0	1.0	309	6	1
1.7	2015_Jul_21_1530	s	s	13	2	SIC	585	ABS	2	1	24VO	0	1	1.70340490341	None	None	None	None	1
1.7	2015_Jul_21_1530	s	s	13	2	SIC	586	ABS	1	0	24MC	0	1	1.21173882484	None	None	None	None	1
1.7	2015_Jul_21_1530	s	s	13	2	SIC	587	ABS	2	0	24VC	0	1	0.571396112442	None	None	None	None	1
1.7	2015_Jul_21_1530	s	s	13	2	SIC	588	RC	0	2	23RD	1	0	0.988093137741	146.0	333.0	140	330	1
1.7	2015_Jul_21_1530	s	s	13	2	SIC	589	RC	1	2	23MD	1	0	0.85856795311	388.0	-18.0	391	-20	1
1.7	2015_Jul_21_1530	s	s	13	2	SIC	590	RC	1	1	23MO	1	0	1.59723091125	-144.0	8.0	-149	9	1
1.7	2015_Jul_21_1530	s	s	13	2	SIC	591	ABS	1	2	24MD	0	1	0.854743003845	None	None	None	None	1
1.7	2015_Jul_21_1530	s	s	13	2	SIC	592	RC	0	1	23RO	1	0	2.49474406242	-455.0	409.0	-458	403	1
