Version	Date	Stimuli	Method	Subject	Session	Condition	Trial	Target	Channel1	Channel2	Distractors	LMouseButton	RMouseButton	RT	TargetX	TargetY	ResponseX	ResponseY	Correct
1.7	2015_Jul_23_1601	s	s	13	3	Capacity	1	RC	0	2	23RD	1	0	0.793990135193	-376.0	-411.0	-379	-406	1
1.7	2015_Jul_23_1601	s	s	13	3	Capacity	2	ABS	0	1	24RO	0	1	6.03768706322	None	None	None	None	1
1.7	2015_Jul_23_1601	s	s	13	3	Capacity	3	ABS	0	2	24RD	0	1	0.877393007278	None	None	None	None	1
1.7	2015_Jul_23_1601	s	s	13	3	Capacity	4	RC	0	1	23RO	1	0	3.77384400368	316.0	-299.0	320	-300	1
1.7	2015_Jul_23_1601	s	s	13	3	Capacity	5	RC	0	2	23RD	1	0	0.632010936737	226.0	404.0	228	399	1
1.7	2015_Jul_23_1601	s	s	13	3	Capacity	6	RC	0	1	23RO	1	0	3.46665501595	-187.0	-116.0	-191	-113	1
1.7	2015_Jul_23_1601	s	s	13	3	Capacity	7	ABS	0	2	24RD	0	1	0.72912478447	None	None	None	None	1
1.7	2015_Jul_23_1601	s	s	13	3	Capacity	8	ABS	0	1	24RO	0	1	5.0842730999	None	None	None	None	1
1.7	2015_Jul_23_1601	s	s	13	3	Capacity	9	ABS	0	1	24RO	0	1	5.96229910851	None	None	None	None	1
1.7	2015_Jul_23_1601	s	s	13	3	Capacity	10	ABS	0	2	24RD	0	1	0.961541891098	None	None	None	None	1
1.7	2015_Jul_23_1601	s	s	13	3	Capacity	11	RC	0	2	23RD	1	0	0.693798065186	15.0	-198.0	18	-193	1
1.7	2015_Jul_23_1601	s	s	13	3	Capacity	12	RC	0	1	23RO	1	0	2.80970311165	-231.0	-368.0	-228	-363	1
1.7	2015_Jul_23_1601	s	s	13	3	Capacity	13	ABS	0	1	24RO	0	1	4.77847003937	None	None	None	None	1
1.7	2015_Jul_23_1601	s	s	13	3	Capacity	14	RC	0	1	23RO	1	0	4.28389406204	-350.0	-278.0	-345	-280	1
1.7	2015_Jul_23_1601	s	s	13	3	Capacity	15	RC	0	2	23RD	1	0	0.642936944962	-77.0	130.0	-72	120	1
1.7	2015_Jul_23_1601	s	s	13	3	Capacity	16	ABS	0	2	24RD	0	1	0.831403970718	None	None	None	None	1
1.7	2015_Jul_23_1601	s	s	13	3	Capacity	17	ABS	0	1	24RO	0	1	6.24152588844	None	None	None	None	1
1.7	2015_Jul_23_1601	s	s	13	3	Capacity	18	RC	0	1	23RO	1	0	0.785356998444	-16.0	199.0	-8	201	1
1.7	2015_Jul_23_1601	s	s	13	3	Capacity	19	ABS	0	2	24RD	0	1	0.564381837845	None	None	None	None	1
1.7	2015_Jul_23_1601	s	s	13	3	Capacity	20	RC	0	2	23RD	1	0	0.611457109451	-336.0	215.0	-328	216	1
1.7	2015_Jul_23_1601	s	s	13	3	Capacity	21	ABS	0	1	24RO	0	1	5.90822911263	None	None	None	None	1
1.7	2015_Jul_23_1601	s	s	13	3	Capacity	22	ABS	0	2	24RD	0	1	0.717266082764	None	None	None	None	1
1.7	2015_Jul_23_1601	s	s	13	3	Capacity	23	RC	0	1	23RO	0	1	5.33172297478	56.0	-313.0	None	None	0
1.7	2015_Jul_23_1601	s	s	13	3	Capacity	24	RC	0	2	23RD	1	0	0.641142129898	-192.0	246.0	-189	246	1
1.7	2015_Jul_23_1601	s	s	13	3	Capacity	25	ABS	0	1	24RO	0	1	6.17410087585	None	None	None	None	1
1.7	2015_Jul_23_1601	s	s	13	3	Capacity	26	ABS	0	2	24RD	0	1	0.682102918625	None	None	None	None	1
1.7	2015_Jul_23_1601	s	s	13	3	Capacity	27	RC	0	2	23RD	1	0	0.60854101181	-119.0	126.0	-123	123	1
1.7	2015_Jul_23_1601	s	s	13	3	Capacity	28	RC	0	1	23RO	1	0	1.43083810806	454.0	-383.0	454	-384	1
1.7	2015_Jul_23_1601	s	s	13	3	Capacity	29	RC	0	2	23RD	1	0	0.606353998184	432.0	220.0	437	213	1
1.7	2015_Jul_23_1601	s	s	13	3	Capacity	30	ABS	0	2	24RD	0	1	0.93559384346	None	None	None	None	1
1.7	2015_Jul_23_1601	s	s	13	3	Capacity	31	ABS	0	1	24RO	0	1	6.32021594048	None	None	None	None	1
1.7	2015_Jul_23_1601	s	s	13	3	Capacity	32	RC	0	1	23RO	1	0	2.09160995483	511.0	-383.0	511	-382	1
1.7	2015_Jul_23_1601	s	s	13	3	Capacity	33	RC	0	2	23RD	1	0	0.490416049957	-182.0	-48.0	-179	-45	1
1.7	2015_Jul_23_1601	s	s	13	3	Capacity	34	ABS	0	1	24RO	0	1	5.11947107315	None	None	None	None	1
1.7	2015_Jul_23_1601	s	s	13	3	Capacity	35	RC	0	1	23RO	1	0	5.99763011932	-527.0	330.0	-525	323	1
1.7	2015_Jul_23_1601	s	s	13	3	Capacity	36	ABS	0	2	24RD	0	1	0.937436103821	None	None	None	None	1
1.7	2015_Jul_23_1601	s	s	13	3	Capacity	37	ABS	0	1	24RO	0	1	5.85556101799	None	None	None	None	1
1.7	2015_Jul_23_1601	s	s	13	3	Capacity	38	RC	0	2	23RD	1	0	0.606594085693	-465.0	-187.0	-468	-198	1
1.7	2015_Jul_23_1601	s	s	13	3	Capacity	39	ABS	0	2	24RD	0	1	0.611699104309	None	None	None	None	1
1.7	2015_Jul_23_1601	s	s	13	3	Capacity	40	RC	0	1	23RO	1	0	1.08851099014	132.0	-276.0	126	-276	1
1.7	2015_Jul_23_1601	s	s	13	3	Capacity	41	ABS	0	1	24RO	0	1	6.32690906525	None	None	None	None	1
1.7	2015_Jul_23_1601	s	s	13	3	Capacity	42	ABS	0	2	24RD	0	1	0.830358982086	None	None	None	None	1
1.7	2015_Jul_23_1601	s	s	13	3	Capacity	43	RC	0	1	23RO	1	0	1.45589399338	495.0	-274.0	499	-270	1
1.7	2015_Jul_23_1601	s	s	13	3	Capacity	44	RC	0	2	23RD	1	0	0.505522012711	170.0	-151.0	169	-147	1
1.7	2015_Jul_23_1601	s	s	13	3	Capacity	45	RC	0	1	23RO	1	0	1.1003408432	385.0	-262.0	391	-270	1
1.7	2015_Jul_23_1601	s	s	13	3	Capacity	46	RC	0	2	23RD	1	0	0.552573919296	-454.0	73.0	-448	65	1
1.7	2015_Jul_23_1601	s	s	13	3	Capacity	47	ABS	0	1	24RO	0	1	5.65309095383	None	None	None	None	1
1.7	2015_Jul_23_1601	s	s	13	3	Capacity	48	ABS	0	2	24RD	0	1	0.69097495079	None	None	None	None	1
1.7	2015_Jul_23_1601	s	s	13	3	Capacity	49	ABS	0	2	24RD	0	1	0.75963807106	None	None	None	None	1
1.7	2015_Jul_23_1601	s	s	13	3	Capacity	50	RC	0	1	23RO	1	0	1.07040810585	23.0	322.0	20	312	1
1.7	2015_Jul_23_1601	s	s	13	3	Capacity	51	ABS	0	1	24RO	0	1	6.10581207275	None	None	None	None	1
1.7	2015_Jul_23_1601	s	s	13	3	Capacity	52	RC	0	2	23RD	1	0	0.937297821045	-382.0	348.0	-378	343	1
1.7	2015_Jul_23_1601	s	s	13	3	Capacity	53	ABS	0	1	24RO	0	1	4.01882982254	None	None	None	None	1
1.7	2015_Jul_23_1601	s	s	13	3	Capacity	54	ABS	0	2	24RD	0	1	0.987953901291	None	None	None	None	1
1.7	2015_Jul_23_1601	s	s	13	3	Capacity	55	RC	0	1	23RO	1	0	3.41285300255	-454.0	322.0	-448	326	1
1.7	2015_Jul_23_1601	s	s	13	3	Capacity	56	RC	0	2	23RD	1	0	1.14744710922	143.0	-247.0	145	-238	1
1.7	2015_Jul_23_1601	s	s	13	3	Capacity	57	RC	0	1	23RO	1	0	3.48343396187	-518.0	-20.0	-518	-19	1
1.7	2015_Jul_23_1601	s	s	13	3	Capacity	58	ABS	0	2	24RD	0	1	1.07052898407	None	None	None	None	1
1.7	2015_Jul_23_1601	s	s	13	3	Capacity	59	ABS	0	1	24RO	0	1	5.12525987625	None	None	None	None	1
1.7	2015_Jul_23_1601	s	s	13	3	Capacity	60	RC	0	2	23RD	1	0	0.738373041153	150.0	-161.0	151	-167	1
1.7	2015_Jul_23_1601	s	s	13	3	Capacity	61	ABS	0	2	24RD	0	1	2.15088319778	None	None	None	None	1
1.7	2015_Jul_23_1601	s	s	13	3	Capacity	62	RC	0	1	23RO	1	0	0.866937875748	-258.0	293.0	-256	291	1
1.7	2015_Jul_23_1601	s	s	13	3	Capacity	63	ABS	0	1	24RO	0	1	3.67224097252	None	None	None	None	1
1.7	2015_Jul_23_1601	s	s	13	3	Capacity	64	RC	0	2	23RD	1	0	0.599600076675	-87.0	191.0	-86	192	1
1.7	2015_Jul_23_1601	s	s	13	3	Capacity	65	ABS	0	2	24RD	0	1	0.678780078888	None	None	None	None	1
1.7	2015_Jul_23_1601	s	s	13	3	Capacity	66	ABS	0	1	24RO	0	1	3.78950500488	None	None	None	None	1
1.7	2015_Jul_23_1601	s	s	13	3	Capacity	67	RC	0	2	23RD	1	0	0.627009868622	-433.0	331.0	-426	327	1
1.7	2015_Jul_23_1601	s	s	13	3	Capacity	68	RC	0	1	23RO	1	0	2.81955504417	-66.0	-307.0	-71	-306	1
1.7	2015_Jul_23_1601	s	s	13	3	Capacity	69	ABS	0	2	24RD	0	1	0.618400096893	None	None	None	None	1
1.7	2015_Jul_23_1601	s	s	13	3	Capacity	70	ABS	0	1	24RO	0	1	4.4340429306	None	None	None	None	1
1.7	2015_Jul_23_1601	s	s	13	3	Capacity	71	RC	0	2	23RD	1	0	1.97679185867	-266.0	397.0	-274	391	1
1.7	2015_Jul_23_1601	s	s	13	3	Capacity	72	RC	0	1	23RO	1	0	1.4471051693	152.0	-395.0	158	-397	1
1.7	2015_Jul_23_1601	s	s	13	3	Capacity	73	ABS	0	1	24RO	0	1	5.55512499809	None	None	None	None	1
1.7	2015_Jul_23_1601	s	s	13	3	Capacity	74	RC	0	2	23RD	1	0	0.682130098343	340.0	-227.0	332	-226	1
1.7	2015_Jul_23_1601	s	s	13	3	Capacity	75	ABS	0	2	24RD	0	1	1.48860883713	None	None	None	None	1
1.7	2015_Jul_23_1601	s	s	13	3	Capacity	76	RC	0	1	23RO	1	0	0.853439092636	37.0	-97.0	37	-97	1
1.7	2015_Jul_23_1601	s	s	13	3	Capacity	77	RC	0	1	23RO	1	0	2.47810506821	281.0	392.0	289	386	1
1.7	2015_Jul_23_1601	s	s	13	3	Capacity	78	RC	0	2	23RD	1	0	0.490206956863	-11.0	-199.0	-12	-190	1
1.7	2015_Jul_23_1601	s	s	13	3	Capacity	79	ABS	0	2	24RD	0	1	0.634962797165	None	None	None	None	1
1.7	2015_Jul_23_1601	s	s	13	3	Capacity	80	ABS	0	1	24RO	0	1	4.29576301575	None	None	None	None	1
1.7	2015_Jul_23_1601	s	s	13	3	Capacity	81	ABS	0	2	24RD	0	1	0.726370096207	None	None	None	None	1
1.7	2015_Jul_23_1601	s	s	13	3	Capacity	82	RC	0	1	23RO	1	0	1.60914206505	266.0	177.0	262	169	1
1.7	2015_Jul_23_1601	s	s	13	3	Capacity	83	RC	0	2	23RD	1	0	0.51252412796	-60.0	-122.0	-62	-123	1
1.7	2015_Jul_23_1601	s	s	13	3	Capacity	84	ABS	0	1	24RO	0	1	3.98986506462	None	None	None	None	1
1.7	2015_Jul_23_1601	s	s	13	3	Capacity	85	RC	0	1	23RO	1	0	1.13709902763	-326.0	153.0	-331	156	1
1.7	2015_Jul_23_1601	s	s	13	3	Capacity	86	RC	0	2	23RD	1	0	0.429797887802	-232.0	3.0	-221	3	1
1.7	2015_Jul_23_1601	s	s	13	3	Capacity	87	ABS	0	1	24RO	0	1	4.1165869236	None	None	None	None	1
1.7	2015_Jul_23_1601	s	s	13	3	Capacity	88	ABS	0	2	24RD	0	1	0.753017902374	None	None	None	None	1
1.7	2015_Jul_23_1601	s	s	13	3	Capacity	89	ABS	0	1	24RO	0	1	5.5080370903	None	None	None	None	1
1.7	2015_Jul_23_1601	s	s	13	3	Capacity	90	ABS	0	2	24RD	0	1	0.89404797554	None	None	None	None	1
1.7	2015_Jul_23_1601	s	s	13	3	Capacity	91	RC	0	2	23RD	1	0	0.652289152145	-497.0	-136.0	-491	-141	1
1.7	2015_Jul_23_1601	s	s	13	3	Capacity	92	RC	0	1	23RO	1	0	0.894014120102	-5.0	-306.0	-12	-307	1
1.7	2015_Jul_23_1601	s	s	13	3	Capacity	1	RC	2	0	23VC	1	0	0.654853105545	445.0	192.0	450	192	1
1.7	2015_Jul_23_1601	s	s	13	3	Capacity	2	ABS	1	0	24MC	0	1	1.7006919384	None	None	None	None	1
1.7	2015_Jul_23_1601	s	s	13	3	Capacity	3	RC	1	0	23MC	1	0	0.859025001526	38.0	-287.0	36	-290	1
1.7	2015_Jul_23_1601	s	s	13	3	Capacity	4	ABS	2	0	24VC	0	1	0.618366956711	None	None	None	None	1
1.7	2015_Jul_23_1601	s	s	13	3	Capacity	5	RC	1	0	23MC	1	0	1.05432987213	438.0	252.0	437	250	1
1.7	2015_Jul_23_1601	s	s	13	3	Capacity	6	ABS	1	0	24MC	0	1	2.61240005493	None	None	None	None	1
1.7	2015_Jul_23_1601	s	s	13	3	Capacity	7	RC	2	0	23VC	1	0	0.44170498848	79.0	-87.0	71	-82	1
1.7	2015_Jul_23_1601	s	s	13	3	Capacity	8	ABS	2	0	24VC	0	1	0.623305797577	None	None	None	None	1
1.7	2015_Jul_23_1601	s	s	13	3	Capacity	9	ABS	1	0	24MC	0	1	1.90618109703	None	None	None	None	1
1.7	2015_Jul_23_1601	s	s	13	3	Capacity	10	ABS	2	0	24VC	0	1	0.587917089462	None	None	None	None	1
1.7	2015_Jul_23_1601	s	s	13	3	Capacity	11	RC	2	0	23VC	1	0	0.493728160858	319.0	-333.0	319	-331	1
1.7	2015_Jul_23_1601	s	s	13	3	Capacity	12	RC	1	0	23MC	1	0	2.23324990273	-315.0	-183.0	-310	-185	1
1.7	2015_Jul_23_1601	s	s	13	3	Capacity	13	RC	2	0	23VC	1	0	0.465092897415	16.0	-352.0	16	-355	1
1.7	2015_Jul_23_1601	s	s	13	3	Capacity	14	ABS	2	0	24VC	0	1	0.470185041428	None	None	None	None	1
1.7	2015_Jul_23_1601	s	s	13	3	Capacity	15	RC	1	0	23MC	1	0	1.77678203583	-219.0	154.0	-216	158	1
1.7	2015_Jul_23_1601	s	s	13	3	Capacity	16	ABS	1	0	24MC	0	1	0.799721002579	None	None	None	None	1
1.7	2015_Jul_23_1601	s	s	13	3	Capacity	17	ABS	1	0	24MC	0	1	1.08868408203	None	None	None	None	1
1.7	2015_Jul_23_1601	s	s	13	3	Capacity	18	RC	1	0	23MC	1	0	1.47061395645	-246.0	1.0	-248	1	1
1.7	2015_Jul_23_1601	s	s	13	3	Capacity	19	RC	2	0	23VC	1	0	0.44172501564	29.0	209.0	36	204	1
1.7	2015_Jul_23_1601	s	s	13	3	Capacity	20	ABS	2	0	24VC	0	1	0.481972932816	None	None	None	None	1
1.7	2015_Jul_23_1601	s	s	13	3	Capacity	21	RC	2	0	23VC	1	0	0.608764886856	471.0	400.0	471	406	1
1.7	2015_Jul_23_1601	s	s	13	3	Capacity	22	RC	1	0	23MC	1	0	1.882625103	-336.0	387.0	-337	380	1
1.7	2015_Jul_23_1601	s	s	13	3	Capacity	23	ABS	1	0	24MC	0	1	1.94146800041	None	None	None	None	1
1.7	2015_Jul_23_1601	s	s	13	3	Capacity	24	ABS	2	0	24VC	0	1	0.517126083374	None	None	None	None	1
1.7	2015_Jul_23_1601	s	s	13	3	Capacity	25	RC	2	0	23VC	1	0	0.435137033463	447.0	157.0	450	155	1
1.7	2015_Jul_23_1601	s	s	13	3	Capacity	26	ABS	1	0	24MC	0	1	1.8766849041	None	None	None	None	1
1.7	2015_Jul_23_1601	s	s	13	3	Capacity	27	RC	1	0	23MC	1	0	0.794506788254	-185.0	256.0	-184	251	1
1.7	2015_Jul_23_1601	s	s	13	3	Capacity	28	ABS	2	0	24VC	0	1	0.630088090897	None	None	None	None	1
1.7	2015_Jul_23_1601	s	s	13	3	Capacity	29	ABS	1	0	24MC	0	1	1.24356794357	None	None	None	None	1
1.7	2015_Jul_23_1601	s	s	13	3	Capacity	30	RC	2	0	23VC	1	0	0.549638032913	-479.0	169.0	-473	161	1
1.7	2015_Jul_23_1601	s	s	13	3	Capacity	31	ABS	2	0	24VC	0	1	0.594588041306	None	None	None	None	1
1.7	2015_Jul_23_1601	s	s	13	3	Capacity	32	RC	1	0	23MC	1	0	0.634975910187	9.0	86.0	15	80	1
1.7	2015_Jul_23_1601	s	s	13	3	Capacity	33	RC	1	0	23MC	1	0	2.91266298294	-481.0	-392.0	-492	-390	1
1.7	2015_Jul_23_1601	s	s	13	3	Capacity	34	RC	2	0	23VC	1	0	0.576020002365	478.0	-185.0	480	-192	1
1.7	2015_Jul_23_1601	s	s	13	3	Capacity	35	ABS	2	0	24VC	0	1	0.43222784996	None	None	None	None	1
1.7	2015_Jul_23_1601	s	s	13	3	Capacity	36	ABS	1	0	24MC	0	1	2.00416707993	None	None	None	None	1
1.7	2015_Jul_23_1601	s	s	13	3	Capacity	37	ABS	1	0	24MC	0	1	1.97336316109	None	None	None	None	1
1.7	2015_Jul_23_1601	s	s	13	3	Capacity	38	ABS	2	0	24VC	0	1	0.646765947342	None	None	None	None	1
1.7	2015_Jul_23_1601	s	s	13	3	Capacity	39	RC	1	0	23MC	0	1	1.50602507591	247.0	-318.0	None	None	0
1.7	2015_Jul_23_1601	s	s	13	3	Capacity	40	RC	2	0	23VC	1	0	0.556347131729	-373.0	42.0	-381	46	1
1.7	2015_Jul_23_1601	s	s	13	3	Capacity	41	ABS	2	0	24VC	0	1	0.51718211174	None	None	None	None	1
1.7	2015_Jul_23_1601	s	s	13	3	Capacity	42	RC	1	0	23MC	1	0	3.13969707489	-470.0	-334.0	-463	-333	1
1.7	2015_Jul_23_1601	s	s	13	3	Capacity	43	RC	2	0	23VC	1	0	2.04495406151	-70.0	2.0	-67	0	1
1.7	2015_Jul_23_1601	s	s	13	3	Capacity	44	ABS	1	0	24MC	0	1	2.35337591171	None	None	None	None	1
1.7	2015_Jul_23_1601	s	s	13	3	Capacity	45	RC	1	0	23MC	1	0	0.917309045792	421.0	-352.0	430	-353	1
1.7	2015_Jul_23_1601	s	s	13	3	Capacity	46	ABS	2	0	24VC	1	0	0.434850931168	None	None	21	-113	0
1.7	2015_Jul_23_1601	s	s	13	3	Capacity	47	ABS	1	0	24MC	0	1	1.00683307648	None	None	None	None	1
1.7	2015_Jul_23_1601	s	s	13	3	Capacity	48	RC	2	0	23VC	1	0	0.446568965912	155.0	-157.0	151	-155	1
1.7	2015_Jul_23_1601	s	s	13	3	Capacity	49	ABS	1	0	24MC	0	1	0.959636926651	None	None	None	None	1
1.7	2015_Jul_23_1601	s	s	13	3	Capacity	50	RC	1	0	23MC	1	0	1.85120487213	-232.0	-229.0	-230	-225	1
1.7	2015_Jul_23_1601	s	s	13	3	Capacity	51	ABS	2	0	24VC	0	1	0.68203496933	None	None	None	None	1
1.7	2015_Jul_23_1601	s	s	13	3	Capacity	52	RC	2	0	23VC	1	0	0.619863033295	18.0	356.0	19	356	1
1.7	2015_Jul_23_1601	s	s	13	3	Capacity	53	RC	2	0	23VC	1	0	0.947247982025	-265.0	-214.0	-271	-220	1
1.7	2015_Jul_23_1601	s	s	13	3	Capacity	54	ABS	1	0	24MC	0	1	0.915104150772	None	None	None	None	1
1.7	2015_Jul_23_1601	s	s	13	3	Capacity	55	ABS	2	0	24VC	0	1	0.752637863159	None	None	None	None	1
1.7	2015_Jul_23_1601	s	s	13	3	Capacity	56	RC	1	0	23MC	1	0	1.37653207779	-246.0	-165.0	-242	-158	1
1.7	2015_Jul_23_1601	s	s	13	3	Capacity	57	ABS	2	0	24VC	0	1	0.501686096191	None	None	None	None	1
1.7	2015_Jul_23_1601	s	s	13	3	Capacity	58	ABS	1	0	24MC	0	1	0.983956813812	None	None	None	None	1
1.7	2015_Jul_23_1601	s	s	13	3	Capacity	59	RC	2	0	23VC	1	0	0.505551099777	-381.0	375.0	-371	377	1
1.7	2015_Jul_23_1601	s	s	13	3	Capacity	60	RC	1	0	23MC	1	0	4.02489614487	21.0	136.0	12	142	1
1.7	2015_Jul_23_1601	s	s	13	3	Capacity	61	RC	2	0	23VC	1	0	0.45439696312	-363.0	-7.0	-366	-12	1
1.7	2015_Jul_23_1601	s	s	13	3	Capacity	62	ABS	1	0	24MC	0	1	1.28242397308	None	None	None	None	1
1.7	2015_Jul_23_1601	s	s	13	3	Capacity	63	ABS	2	0	24VC	0	1	0.473801136017	None	None	None	None	1
1.7	2015_Jul_23_1601	s	s	13	3	Capacity	64	RC	1	0	23MC	1	0	0.846827030182	-330.0	-14.0	-325	-13	1
1.7	2015_Jul_23_1601	s	s	13	3	Capacity	65	RC	1	0	23MC	1	0	2.52741909027	504.0	150.0	500	149	1
1.7	2015_Jul_23_1601	s	s	13	3	Capacity	66	ABS	2	0	24VC	0	1	0.726832151413	None	None	None	None	1
1.7	2015_Jul_23_1601	s	s	13	3	Capacity	67	ABS	1	0	24MC	0	1	0.811550855637	None	None	None	None	1
1.7	2015_Jul_23_1601	s	s	13	3	Capacity	68	RC	2	0	23VC	1	0	0.538289070129	81.0	-199.0	83	-203	1
1.7	2015_Jul_23_1601	s	s	13	3	Capacity	69	ABS	2	0	24VC	0	1	0.55954003334	None	None	None	None	1
1.7	2015_Jul_23_1601	s	s	13	3	Capacity	70	RC	2	0	23VC	1	0	0.467809915543	-129.0	-279.0	-127	-275	1
1.7	2015_Jul_23_1601	s	s	13	3	Capacity	71	RC	1	0	23MC	1	0	1.82426285744	-100.0	360.0	-108	363	1
1.7	2015_Jul_23_1601	s	s	13	3	Capacity	72	ABS	1	0	24MC	0	1	0.843621969223	None	None	None	None	1
1.7	2015_Jul_23_1601	s	s	13	3	Capacity	73	RC	2	0	23VC	1	0	0.500417947769	222.0	29.0	218	32	1
1.7	2015_Jul_23_1601	s	s	13	3	Capacity	74	RC	1	0	23MC	1	0	0.796700954437	125.0	308.0	118	301	1
1.7	2015_Jul_23_1601	s	s	13	3	Capacity	75	ABS	1	0	24MC	0	1	0.643023967743	None	None	None	None	1
1.7	2015_Jul_23_1601	s	s	13	3	Capacity	76	ABS	2	0	24VC	0	1	0.831157922745	None	None	None	None	1
1.7	2015_Jul_23_1601	s	s	13	3	Capacity	77	ABS	1	0	24MC	1	0	1.53897500038	None	None	-129	50	0
1.7	2015_Jul_23_1601	s	s	13	3	Capacity	78	RC	2	0	23VC	1	0	0.606719970703	54.0	198.0	51	198	1
1.7	2015_Jul_23_1601	s	s	13	3	Capacity	79	ABS	2	0	24VC	0	1	0.429714918137	None	None	None	None	1
1.7	2015_Jul_23_1601	s	s	13	3	Capacity	80	RC	1	0	23MC	1	0	1.36477303505	-77.0	-208.0	-73	-210	1
1.7	2015_Jul_23_1601	s	s	13	3	Capacity	81	RC	2	0	23VC	1	0	0.477009057999	-530.0	-260.0	-535	-263	1
1.7	2015_Jul_23_1601	s	s	13	3	Capacity	82	ABS	1	0	24MC	0	1	1.01832103729	None	None	None	None	1
1.7	2015_Jul_23_1601	s	s	13	3	Capacity	83	RC	1	0	23MC	1	0	0.846781015396	487.0	47.0	489	39	1
1.7	2015_Jul_23_1601	s	s	13	3	Capacity	84	ABS	2	0	24VC	0	1	0.444076061249	None	None	None	None	1
1.7	2015_Jul_23_1601	s	s	13	3	Capacity	85	RC	2	0	23VC	1	0	0.397032976151	-361.0	124.0	-366	128	1
1.7	2015_Jul_23_1601	s	s	13	3	Capacity	86	ABS	1	0	24MC	0	1	1.00605297089	None	None	None	None	1
1.7	2015_Jul_23_1601	s	s	13	3	Capacity	87	RC	1	0	23MC	1	0	1.10570478439	399.0	-316.0	405	-315	1
1.7	2015_Jul_23_1601	s	s	13	3	Capacity	88	ABS	2	0	24VC	0	1	0.623234033585	None	None	None	None	1
1.7	2015_Jul_23_1601	s	s	13	3	Capacity	89	ABS	2	0	24VC	0	1	0.780651092529	None	None	None	None	1
1.7	2015_Jul_23_1601	s	s	13	3	Capacity	90	RC	2	0	23VC	1	0	0.458505153656	-144.0	-71.0	-145	-71	1
1.7	2015_Jul_23_1601	s	s	13	3	Capacity	91	RC	1	0	23MC	1	0	0.658447980881	384.0	69.0	383	69	1
1.7	2015_Jul_23_1601	s	s	13	3	Capacity	92	ABS	1	0	24MC	0	1	1.25637507439	None	None	None	None	1
1.7	2015_Jul_23_1601	s	s	13	3	SIC	1	ABS	0	2	24RD	0	1	0.631489992142	None	None	None	None	1
1.7	2015_Jul_23_1601	s	s	13	3	SIC	2	ABS	2	0	24VC	0	1	1.93606996536	None	None	None	None	1
1.7	2015_Jul_23_1601	s	s	13	3	SIC	3	ABS	1	2	24MD	1	0	0.164128065109	None	None	118	20	0
1.7	2015_Jul_23_1601	s	s	13	3	SIC	4	RC	1	0	23MC	1	0	0.905755996704	266.0	-391.0	264	-387	1
1.7	2015_Jul_23_1601	s	s	13	3	SIC	5	RC	0	1	23RO	1	0	0.703220129013	-10.0	-273.0	-11	-269	1
1.7	2015_Jul_23_1601	s	s	13	3	SIC	6	RC	1	2	23MD	1	0	0.417148113251	-96.0	-33.0	-96	-41	1
1.7	2015_Jul_23_1601	s	s	13	3	SIC	7	ABS	2	2	24VD	0	1	0.497547864914	None	None	None	None	1
1.7	2015_Jul_23_1601	s	s	13	3	SIC	8	ABS	1	0	24MC	0	1	0.900151014328	None	None	None	None	1
1.7	2015_Jul_23_1601	s	s	13	3	SIC	9	RC	2	2	23VD	1	0	0.605937004089	-518.0	-353.0	-516	-357	1
1.7	2015_Jul_23_1601	s	s	13	3	SIC	10	ABS	2	1	24VO	0	1	0.517383813858	None	None	None	None	1
1.7	2015_Jul_23_1601	s	s	13	3	SIC	11	RC	2	0	23VC	1	0	0.441898822784	-25.0	-361.0	-25	-365	1
1.7	2015_Jul_23_1601	s	s	13	3	SIC	12	ABS	1	1	24MO	0	1	0.681982040405	None	None	None	None	1
1.7	2015_Jul_23_1601	s	s	13	3	SIC	13	ABS	0	1	24RO	0	1	3.78935480118	None	None	None	None	1
1.7	2015_Jul_23_1601	s	s	13	3	SIC	14	RC	2	1	23VO	1	0	0.470719814301	-323.0	-12.0	-330	-9	1
1.7	2015_Jul_23_1601	s	s	13	3	SIC	15	RC	0	2	23RD	1	0	0.478404045105	-89.0	-222.0	-93	-220	1
1.7	2015_Jul_23_1601	s	s	13	3	SIC	16	RC	1	1	23MO	1	0	0.73596405983	-510.0	18.0	-517	18	1
1.7	2015_Jul_23_1601	s	s	13	3	SIC	17	ABS	2	1	24VO	0	1	0.550116062164	None	None	None	None	1
1.7	2015_Jul_23_1601	s	s	13	3	SIC	18	RC	2	0	23VC	1	0	0.502763986588	400.0	-108.0	395	-105	1
1.7	2015_Jul_23_1601	s	s	13	3	SIC	19	ABS	2	2	24VD	0	1	0.536071062088	None	None	None	None	1
1.7	2015_Jul_23_1601	s	s	13	3	SIC	20	ABS	0	2	24RD	0	1	0.795115947723	None	None	None	None	1
1.7	2015_Jul_23_1601	s	s	13	3	SIC	21	ABS	1	2	24MD	0	1	0.61138176918	None	None	None	None	1
1.7	2015_Jul_23_1601	s	s	13	3	SIC	22	RC	1	1	23MO	1	0	1.00650000572	239.0	-261.0	244	-252	1
1.7	2015_Jul_23_1601	s	s	13	3	SIC	23	RC	1	2	23MD	1	0	0.493854999542	-63.0	-189.0	-64	-187	1
1.7	2015_Jul_23_1601	s	s	13	3	SIC	24	RC	1	0	23MC	1	0	0.6673848629	146.0	-382.0	145	-383	1
1.7	2015_Jul_23_1601	s	s	13	3	SIC	25	ABS	1	0	24MC	0	1	1.47796988487	None	None	None	None	1
1.7	2015_Jul_23_1601	s	s	13	3	SIC	26	RC	2	1	23VO	1	0	0.387685060501	127.0	-329.0	130	-334	1
1.7	2015_Jul_23_1601	s	s	13	3	SIC	27	RC	0	2	23RD	1	0	0.489970207214	-221.0	-208.0	-222	-212	1
1.7	2015_Jul_23_1601	s	s	13	3	SIC	28	ABS	1	1	24MO	0	1	1.29415202141	None	None	None	None	1
1.7	2015_Jul_23_1601	s	s	13	3	SIC	29	RC	0	1	23RO	1	0	0.776188135147	-15.0	63.0	-22	59	1
1.7	2015_Jul_23_1601	s	s	13	3	SIC	30	RC	2	2	23VD	1	0	0.387653112411	-335.0	74.0	-333	77	1
1.7	2015_Jul_23_1601	s	s	13	3	SIC	31	ABS	2	0	24VC	0	1	0.517300844193	None	None	None	None	1
1.7	2015_Jul_23_1601	s	s	13	3	SIC	32	ABS	0	1	24RO	0	1	4.31924390793	None	None	None	None	1
1.7	2015_Jul_23_1601	s	s	13	3	SIC	33	RC	1	1	23MO	1	0	0.973107814789	462.0	141.0	465	139	1
1.7	2015_Jul_23_1601	s	s	13	3	SIC	34	RC	0	2	23RD	1	0	0.470139980316	83.0	270.0	74	277	1
1.7	2015_Jul_23_1601	s	s	13	3	SIC	35	RC	1	0	23MC	1	0	0.467747926712	13.0	40.0	19	33	1
1.7	2015_Jul_23_1601	s	s	13	3	SIC	36	ABS	0	2	24RD	0	1	0.576150178909	None	None	None	None	1
1.7	2015_Jul_23_1601	s	s	13	3	SIC	37	ABS	2	2	24VD	0	1	0.599720001221	None	None	None	None	1
1.7	2015_Jul_23_1601	s	s	13	3	SIC	38	ABS	0	1	24RO	0	1	2.9250369072	None	None	None	None	1
1.7	2015_Jul_23_1601	s	s	13	3	SIC	39	RC	0	1	23RO	1	0	3.58368206024	433.0	-394.0	429	-390	1
1.7	2015_Jul_23_1601	s	s	13	3	SIC	40	ABS	2	1	24VO	0	1	0.59680891037	None	None	None	None	1
1.7	2015_Jul_23_1601	s	s	13	3	SIC	41	RC	2	0	23VC	1	0	0.458405017853	-77.0	-200.0	-71	-199	1
1.7	2015_Jul_23_1601	s	s	13	3	SIC	42	ABS	1	1	24MO	0	1	1.12940597534	None	None	None	None	1
1.7	2015_Jul_23_1601	s	s	13	3	SIC	43	RC	2	2	23VD	1	0	0.361191034317	-18.0	-274.0	-28	-275	1
1.7	2015_Jul_23_1601	s	s	13	3	SIC	44	RC	1	2	23MD	1	0	0.387789964676	471.0	-5.0	473	-6	1
1.7	2015_Jul_23_1601	s	s	13	3	SIC	45	ABS	1	2	24MD	0	1	0.536077976227	None	None	None	None	1
1.7	2015_Jul_23_1601	s	s	13	3	SIC	46	ABS	1	0	24MC	0	1	1.50586700439	None	None	None	None	1
1.7	2015_Jul_23_1601	s	s	13	3	SIC	47	RC	2	1	23VO	1	0	0.576133966446	-369.0	-261.0	-368	-261	1
1.7	2015_Jul_23_1601	s	s	13	3	SIC	48	ABS	2	0	24VC	0	1	0.595921993256	None	None	None	None	1
1.7	2015_Jul_23_1601	s	s	13	3	SIC	49	RC	1	2	23MD	1	0	0.47016119957	452.0	-366.0	456	-363	1
1.7	2015_Jul_23_1601	s	s	13	3	SIC	50	RC	2	2	23VD	1	0	0.376008987427	-136.0	308.0	-144	305	1
1.7	2015_Jul_23_1601	s	s	13	3	SIC	51	ABS	1	1	24MO	0	1	0.92472910881	None	None	None	None	1
1.7	2015_Jul_23_1601	s	s	13	3	SIC	52	ABS	2	0	24VC	1	0	0.535034894943	None	None	134	30	0
1.7	2015_Jul_23_1601	s	s	13	3	SIC	53	RC	0	1	23RO	1	0	0.529027938843	-99.0	-64.0	-103	-59	1
1.7	2015_Jul_23_1601	s	s	13	3	SIC	54	RC	0	2	23RD	1	0	0.481984138489	136.0	36.0	132	39	1
1.7	2015_Jul_23_1601	s	s	13	3	SIC	55	RC	1	1	23MO	1	0	0.717372894287	259.0	364.0	254	360	1
1.7	2015_Jul_23_1601	s	s	13	3	SIC	56	ABS	1	0	24MC	0	1	0.971091985703	None	None	None	None	1
1.7	2015_Jul_23_1601	s	s	13	3	SIC	57	ABS	2	1	24VO	0	1	0.644370079041	None	None	None	None	1
1.7	2015_Jul_23_1601	s	s	13	3	SIC	58	ABS	2	2	24VD	0	1	0.712651014328	None	None	None	None	1
1.7	2015_Jul_23_1601	s	s	13	3	SIC	59	RC	1	0	23MC	1	0	0.634956121445	504.0	-97.0	498	-92	1
1.7	2015_Jul_23_1601	s	s	13	3	SIC	60	ABS	0	2	24RD	0	1	0.473915100098	None	None	None	None	1
1.7	2015_Jul_23_1601	s	s	13	3	SIC	61	ABS	1	2	24MD	0	1	0.611346960068	None	None	None	None	1
1.7	2015_Jul_23_1601	s	s	13	3	SIC	62	RC	2	0	23VC	1	0	0.540838003159	447.0	-297.0	447	-290	1
1.7	2015_Jul_23_1601	s	s	13	3	SIC	63	ABS	0	1	24RO	0	1	4.93125486374	None	None	None	None	1
1.7	2015_Jul_23_1601	s	s	13	3	SIC	64	RC	2	1	23VO	1	0	0.359539031982	-165.0	-200.0	-159	-200	1
1.7	2015_Jul_23_1601	s	s	13	3	SIC	65	RC	0	2	23RD	1	0	0.442327976227	328.0	-25.0	335	-30	1
1.7	2015_Jul_23_1601	s	s	13	3	SIC	66	RC	1	2	23MD	1	0	0.36428809166	20.0	151.0	28	149	1
1.7	2015_Jul_23_1601	s	s	13	3	SIC	67	ABS	1	2	24MD	0	1	0.505420923233	None	None	None	None	1
1.7	2015_Jul_23_1601	s	s	13	3	SIC	68	RC	1	1	23MO	1	0	0.538099050522	462.0	-48.0	461	-40	1
1.7	2015_Jul_23_1601	s	s	13	3	SIC	69	RC	2	2	23VD	1	0	0.347849845886	-322.0	231.0	-321	233	1
1.7	2015_Jul_23_1601	s	s	13	3	SIC	70	ABS	2	0	24VC	0	1	0.599682092667	None	None	None	None	1
1.7	2015_Jul_23_1601	s	s	13	3	SIC	71	ABS	0	2	24RD	0	1	0.623234033585	None	None	None	None	1
1.7	2015_Jul_23_1601	s	s	13	3	SIC	72	ABS	2	2	24VD	0	1	0.571563959122	None	None	None	None	1
1.7	2015_Jul_23_1601	s	s	13	3	SIC	73	RC	2	1	23VO	1	0	0.41175699234	-406.0	257.0	-412	260	1
1.7	2015_Jul_23_1601	s	s	13	3	SIC	74	ABS	0	1	24RO	0	1	4.44062304497	None	None	None	None	1
1.7	2015_Jul_23_1601	s	s	13	3	SIC	75	ABS	2	1	24VO	0	1	0.891558885574	None	None	None	None	1
1.7	2015_Jul_23_1601	s	s	13	3	SIC	76	RC	2	0	23VC	1	0	0.458405971527	484.0	-32.0	488	-32	1
1.7	2015_Jul_23_1601	s	s	13	3	SIC	77	RC	0	1	23RO	1	0	3.21322488785	352.0	108.0	347	111	1
1.7	2015_Jul_23_1601	s	s	13	3	SIC	78	ABS	1	1	24MO	0	1	0.964551925659	None	None	None	None	1
1.7	2015_Jul_23_1601	s	s	13	3	SIC	79	RC	1	0	23MC	1	0	1.07049798965	-302.0	62.0	-295	62	1
1.7	2015_Jul_23_1601	s	s	13	3	SIC	80	ABS	1	0	24MC	0	1	0.844322919846	None	None	None	None	1
1.7	2015_Jul_23_1601	s	s	13	3	SIC	81	ABS	2	1	24VO	0	1	0.58793592453	None	None	None	None	1
1.7	2015_Jul_23_1601	s	s	13	3	SIC	82	ABS	1	2	24MD	0	1	0.620504140854	None	None	None	None	1
1.7	2015_Jul_23_1601	s	s	13	3	SIC	83	RC	1	1	23MO	1	0	0.664515972137	54.0	-146.0	60	-137	1
1.7	2015_Jul_23_1601	s	s	13	3	SIC	84	ABS	2	2	24VD	0	1	0.618219852448	None	None	None	None	1
1.7	2015_Jul_23_1601	s	s	13	3	SIC	85	ABS	0	1	24RO	0	1	4.1660630703	None	None	None	None	1
1.7	2015_Jul_23_1601	s	s	13	3	SIC	86	RC	2	2	23VD	1	0	0.576164960861	91.0	-341.0	93	-351	1
1.7	2015_Jul_23_1601	s	s	13	3	SIC	87	ABS	0	2	24RD	0	1	1.2069849968	None	None	None	None	1
1.7	2015_Jul_23_1601	s	s	13	3	SIC	88	RC	1	0	23MC	1	0	0.846814155579	35.0	120.0	41	122	1
1.7	2015_Jul_23_1601	s	s	13	3	SIC	89	ABS	1	1	24MO	0	1	1.76167106628	None	None	None	None	1
1.7	2015_Jul_23_1601	s	s	13	3	SIC	90	RC	2	1	23VO	1	0	0.453172922134	-242.0	-52.0	-239	-52	1
1.7	2015_Jul_23_1601	s	s	13	3	SIC	91	RC	1	2	23MD	1	0	0.529159069061	241.0	189.0	242	187	1
1.7	2015_Jul_23_1601	s	s	13	3	SIC	92	RC	0	1	23RO	1	0	0.947664022446	-150.0	44.0	-156	51	1
1.7	2015_Jul_23_1601	s	s	13	3	SIC	93	ABS	2	0	24VC	0	1	0.405738830566	None	None	None	None	1
1.7	2015_Jul_23_1601	s	s	13	3	SIC	94	RC	2	0	23VC	1	0	0.383071899414	-197.0	-267.0	-198	-259	1
1.7	2015_Jul_23_1601	s	s	13	3	SIC	95	RC	0	2	23RD	1	0	0.411250829697	-430.0	-63.0	-435	-61	1
1.7	2015_Jul_23_1601	s	s	13	3	SIC	96	ABS	1	0	24MC	0	1	0.658456087112	None	None	None	None	1
1.7	2015_Jul_23_1601	s	s	13	3	SIC	97	RC	1	2	23MD	1	0	0.370938062668	366.0	125.0	365	128	1
1.7	2015_Jul_23_1601	s	s	13	3	SIC	98	RC	0	1	23RO	1	0	0.867623090744	-289.0	293.0	-290	297	1
1.7	2015_Jul_23_1601	s	s	13	3	SIC	99	RC	1	1	23MO	1	0	1.37703514099	-521.0	-218.0	-522	-214	1
1.7	2015_Jul_23_1601	s	s	13	3	SIC	100	RC	2	0	23VC	1	0	1.32410812378	-290.0	-141.0	-284	-142	1
1.7	2015_Jul_23_1601	s	s	13	3	SIC	101	ABS	1	1	24MO	0	1	2.76549816132	None	None	None	None	1
1.7	2015_Jul_23_1601	s	s	13	3	SIC	102	RC	0	2	23RD	1	0	0.364243984222	-403.0	-16.0	-412	-10	1
1.7	2015_Jul_23_1601	s	s	13	3	SIC	103	RC	1	0	23MC	1	0	0.796370983124	-322.0	-327.0	-321	-329	1
1.7	2015_Jul_23_1601	s	s	13	3	SIC	104	ABS	2	0	24VC	0	1	0.682112932205	None	None	None	None	1
1.7	2015_Jul_23_1601	s	s	13	3	SIC	105	RC	2	2	23VD	1	0	0.359050035477	187.0	403.0	179	405	1
1.7	2015_Jul_23_1601	s	s	13	3	SIC	106	ABS	2	1	24VO	0	1	0.67019701004	None	None	None	None	1
1.7	2015_Jul_23_1601	s	s	13	3	SIC	107	ABS	2	2	24VD	0	1	0.505584955215	None	None	None	None	1
1.7	2015_Jul_23_1601	s	s	13	3	SIC	108	RC	2	1	23VO	1	0	0.399655103683	94.0	363.0	89	360	1
1.7	2015_Jul_23_1601	s	s	13	3	SIC	109	ABS	0	2	24RD	0	1	0.797649860382	None	None	None	None	1
1.7	2015_Jul_23_1601	s	s	13	3	SIC	110	ABS	0	1	24RO	0	1	3.33048796654	None	None	None	None	1
1.7	2015_Jul_23_1601	s	s	13	3	SIC	111	ABS	1	0	24MC	0	1	1.30043101311	None	None	None	None	1
1.7	2015_Jul_23_1601	s	s	13	3	SIC	112	ABS	1	2	24MD	0	1	0.619712114334	None	None	None	None	1
1.7	2015_Jul_23_1601	s	s	13	3	SIC	113	RC	0	2	23RD	1	0	0.681967973709	-347.0	233.0	-347	235	1
1.7	2015_Jul_23_1601	s	s	13	3	SIC	114	ABS	2	1	24VO	0	1	0.517166137695	None	None	None	None	1
1.7	2015_Jul_23_1601	s	s	13	3	SIC	115	RC	1	2	23MD	1	0	0.458457946777	121.0	-237.0	116	-236	1
1.7	2015_Jul_23_1601	s	s	13	3	SIC	116	ABS	1	0	24MC	0	1	0.757843971252	None	None	None	None	1
1.7	2015_Jul_23_1601	s	s	13	3	SIC	117	RC	1	1	23MO	1	0	1.69109296799	350.0	391.0	349	390	1
1.7	2015_Jul_23_1601	s	s	13	3	SIC	118	ABS	1	2	24MD	0	1	1.06790113449	None	None	None	None	1
1.7	2015_Jul_23_1601	s	s	13	3	SIC	119	RC	2	1	23VO	1	0	1.15045499802	60.0	299.0	54	291	1
1.7	2015_Jul_23_1601	s	s	13	3	SIC	120	RC	0	1	23RO	1	0	2.0473690033	-516.0	81.0	-514	82	1
1.7	2015_Jul_23_1601	s	s	13	3	SIC	121	ABS	0	2	24RD	0	1	0.811469078064	None	None	None	None	1
1.7	2015_Jul_23_1601	s	s	13	3	SIC	122	RC	2	2	23VD	1	0	0.679795980453	418.0	-176.0	414	-178	1
1.7	2015_Jul_23_1601	s	s	13	3	SIC	123	ABS	0	1	24RO	0	1	4.35448312759	None	None	None	None	1
1.7	2015_Jul_23_1601	s	s	13	3	SIC	124	RC	2	0	23VC	1	0	0.623344182968	146.0	245.0	140	246	1
1.7	2015_Jul_23_1601	s	s	13	3	SIC	125	ABS	2	2	24VD	0	1	1.07944703102	None	None	None	None	1
1.7	2015_Jul_23_1601	s	s	13	3	SIC	126	ABS	1	1	24MO	0	1	1.17658901215	None	None	None	None	1
1.7	2015_Jul_23_1601	s	s	13	3	SIC	127	ABS	2	0	24VC	0	1	0.79452586174	None	None	None	None	1
1.7	2015_Jul_23_1601	s	s	13	3	SIC	128	RC	1	0	23MC	1	0	0.729094028473	202.0	-360.0	201	-353	1
1.7	2015_Jul_23_1601	s	s	13	3	SIC	129	ABS	1	2	24MD	0	1	1.88889479637	None	None	None	None	1
1.7	2015_Jul_23_1601	s	s	13	3	SIC	130	RC	1	0	23MC	1	0	1.44709706306	-47.0	338.0	-44	333	1
1.7	2015_Jul_23_1601	s	s	13	3	SIC	131	ABS	0	2	24RD	0	1	2.17693305016	None	None	None	None	1
1.7	2015_Jul_23_1601	s	s	13	3	SIC	132	RC	0	2	23RD	1	0	1.37652087212	123.0	161.0	118	159	1
1.7	2015_Jul_23_1601	s	s	13	3	SIC	133	ABS	2	0	24VC	0	1	3.62465500832	None	None	None	None	1
1.7	2015_Jul_23_1601	s	s	13	3	SIC	134	ABS	0	1	24RO	0	1	4.52858996391	None	None	None	None	1
1.7	2015_Jul_23_1601	s	s	13	3	SIC	135	RC	0	1	23RO	1	0	4.20157003403	-195.0	318.0	-202	316	1
1.7	2015_Jul_23_1601	s	s	13	3	SIC	136	ABS	2	1	24VO	0	1	1.12932395935	None	None	None	None	1
1.7	2015_Jul_23_1601	s	s	13	3	SIC	137	RC	2	1	23VO	1	0	2.07098817825	-490.0	329.0	-488	330	1
1.7	2015_Jul_23_1601	s	s	13	3	SIC	138	RC	1	1	23MO	1	0	1.88880300522	149.0	393.0	152	398	1
1.7	2015_Jul_23_1601	s	s	13	3	SIC	139	ABS	1	1	24MO	0	1	4.54285097122	None	None	None	None	1
1.7	2015_Jul_23_1601	s	s	13	3	SIC	140	ABS	2	2	24VD	0	1	1.52143716812	None	None	None	None	1
1.7	2015_Jul_23_1601	s	s	13	3	SIC	141	RC	1	2	23MD	1	0	2.18310308456	-52.0	-116.0	-49	-113	1
1.7	2015_Jul_23_1601	s	s	13	3	SIC	142	ABS	1	0	24MC	0	1	2.93050694466	None	None	None	None	1
1.7	2015_Jul_23_1601	s	s	13	3	SIC	143	RC	2	0	23VC	1	0	0.646642208099	340.0	-318.0	338	-316	1
1.7	2015_Jul_23_1601	s	s	13	3	SIC	144	RC	2	2	23VD	1	0	2.7140481472	-422.0	222.0	-413	226	1
1.7	2015_Jul_23_1601	s	s	13	3	SIC	145	ABS	1	1	24MO	0	1	1.07850694656	None	None	None	None	1
1.7	2015_Jul_23_1601	s	s	13	3	SIC	146	RC	1	2	23MD	1	0	0.787940979004	-174.0	-312.0	-168	-314	1
1.7	2015_Jul_23_1601	s	s	13	3	SIC	147	RC	0	2	23RD	1	0	2.45358490944	-12.0	80.0	-12	90	1
1.7	2015_Jul_23_1601	s	s	13	3	SIC	148	ABS	2	0	24VC	0	1	1.52481102943	None	None	None	None	1
1.7	2015_Jul_23_1601	s	s	13	3	SIC	149	RC	0	1	23RO	1	0	0.488675117493	-33.0	174.0	-28	173	1
1.7	2015_Jul_23_1601	s	s	13	3	SIC	150	RC	2	1	23VO	1	0	4.30382490158	475.0	172.0	471	165	1
1.7	2015_Jul_23_1601	s	s	13	3	SIC	151	ABS	0	1	24RO	0	1	7.20975995064	None	None	None	None	1
1.7	2015_Jul_23_1601	s	s	13	3	SIC	152	ABS	0	2	24RD	0	1	1.40923595428	None	None	None	None	1
1.7	2015_Jul_23_1601	s	s	13	3	SIC	153	RC	2	2	23VD	1	0	0.629114151001	53.0	205.0	45	202	1
1.7	2015_Jul_23_1601	s	s	13	3	SIC	154	ABS	2	2	24VD	0	1	0.726593017578	None	None	None	None	1
1.7	2015_Jul_23_1601	s	s	13	3	SIC	155	ABS	2	1	24VO	0	1	0.76450419426	None	None	None	None	1
1.7	2015_Jul_23_1601	s	s	13	3	SIC	156	RC	2	0	23VC	1	0	0.407894849777	-409.0	-223.0	-405	-220	1
1.7	2015_Jul_23_1601	s	s	13	3	SIC	157	RC	1	0	23MC	1	0	0.853574991226	-429.0	-349.0	-425	-346	1
1.7	2015_Jul_23_1601	s	s	13	3	SIC	158	RC	1	1	23MO	1	0	0.475914001465	233.0	69.0	229	69	1
1.7	2015_Jul_23_1601	s	s	13	3	SIC	159	ABS	1	0	24MC	0	1	0.806457042694	None	None	None	None	1
1.7	2015_Jul_23_1601	s	s	13	3	SIC	160	ABS	1	2	24MD	0	1	0.693908929825	None	None	None	None	1
1.7	2015_Jul_23_1601	s	s	13	3	SIC	161	ABS	2	0	24VC	0	1	0.811653137207	None	None	None	None	1
1.7	2015_Jul_23_1601	s	s	13	3	SIC	162	RC	2	0	23VC	1	0	0.547698020935	59.0	-152.0	65	-147	1
1.7	2015_Jul_23_1601	s	s	13	3	SIC	163	ABS	2	2	24VD	0	1	0.702420949936	None	None	None	None	1
1.7	2015_Jul_23_1601	s	s	13	3	SIC	164	RC	1	0	23MC	1	0	3.71896409988	228.0	170.0	226	175	1
1.7	2015_Jul_23_1601	s	s	13	3	SIC	165	ABS	1	0	24MC	0	1	1.76497912407	None	None	None	None	1
1.7	2015_Jul_23_1601	s	s	13	3	SIC	166	RC	1	1	23MO	1	0	0.891057014465	-114.0	-154.0	-120	-147	1
1.7	2015_Jul_23_1601	s	s	13	3	SIC	167	RC	0	2	23RD	1	0	0.48820400238	-400.0	-390.0	-393	-392	1
1.7	2015_Jul_23_1601	s	s	13	3	SIC	168	ABS	0	1	24RO	0	1	3.48328208923	None	None	None	None	1
1.7	2015_Jul_23_1601	s	s	13	3	SIC	169	RC	2	2	23VD	1	0	0.419308900833	-208.0	-25.0	-203	-28	1
1.7	2015_Jul_23_1601	s	s	13	3	SIC	170	ABS	2	1	24VO	0	1	0.478133916855	None	None	None	None	1
1.7	2015_Jul_23_1601	s	s	13	3	SIC	171	RC	1	2	23MD	1	0	0.618412971497	416.0	40.0	419	36	1
1.7	2015_Jul_23_1601	s	s	13	3	SIC	172	RC	2	1	23VO	1	0	0.399587869644	306.0	-268.0	303	-264	1
1.7	2015_Jul_23_1601	s	s	13	3	SIC	173	RC	0	1	23RO	1	0	1.03015303612	163.0	-279.0	172	-282	1
1.7	2015_Jul_23_1601	s	s	13	3	SIC	174	ABS	0	2	24RD	0	1	0.641324996948	None	None	None	None	1
1.7	2015_Jul_23_1601	s	s	13	3	SIC	175	ABS	1	2	24MD	0	1	0.611298084259	None	None	None	None	1
1.7	2015_Jul_23_1601	s	s	13	3	SIC	176	ABS	1	1	24MO	0	1	1.25528287888	None	None	None	None	1
1.7	2015_Jul_23_1601	s	s	13	3	SIC	177	ABS	2	0	24VC	0	1	0.488587856293	None	None	None	None	1
1.7	2015_Jul_23_1601	s	s	13	3	SIC	178	RC	1	2	23MD	1	0	0.523452043533	-259.0	378.0	-266	379	1
1.7	2015_Jul_23_1601	s	s	13	3	SIC	179	RC	1	1	23MO	1	0	0.761391878128	534.0	9.0	537	7	1
1.7	2015_Jul_23_1601	s	s	13	3	SIC	180	ABS	1	1	24MO	0	1	1.06253814697	None	None	None	None	1
1.7	2015_Jul_23_1601	s	s	13	3	SIC	181	ABS	0	2	24RD	0	1	1.01523399353	None	None	None	None	1
1.7	2015_Jul_23_1601	s	s	13	3	SIC	182	ABS	0	1	24RO	0	1	3.49513912201	None	None	None	None	1
1.7	2015_Jul_23_1601	s	s	13	3	SIC	183	ABS	2	2	24VD	0	1	0.441150903702	None	None	None	None	1
1.7	2015_Jul_23_1601	s	s	13	3	SIC	184	ABS	1	2	24MD	0	1	0.646711826324	None	None	None	None	1
1.7	2015_Jul_23_1601	s	s	13	3	SIC	185	RC	2	2	23VD	1	0	0.607545137405	178.0	-22.0	175	-13	1
1.7	2015_Jul_23_1601	s	s	13	3	SIC	186	RC	0	2	23RD	1	0	0.546975135803	-519.0	356.0	-520	348	1
1.7	2015_Jul_23_1601	s	s	13	3	SIC	187	RC	0	1	23RO	1	0	1.46564006805	394.0	-379.0	395	-387	1
1.7	2015_Jul_23_1601	s	s	13	3	SIC	188	RC	2	1	23VO	1	0	0.564339160919	440.0	120.0	441	111	1
1.7	2015_Jul_23_1601	s	s	13	3	SIC	189	ABS	1	0	24MC	0	1	1.30971503258	None	None	None	None	1
1.7	2015_Jul_23_1601	s	s	13	3	SIC	190	ABS	2	1	24VO	0	1	0.596339941025	None	None	None	None	1
1.7	2015_Jul_23_1601	s	s	13	3	SIC	191	RC	1	0	23MC	1	0	0.465671062469	-79.0	-110.0	-22	40	0
1.7	2015_Jul_23_1601	s	s	13	3	SIC	192	RC	2	0	23VC	1	0	0.3995449543	-279.0	-351.0	-285	-352	1
1.7	2015_Jul_23_1601	s	s	13	3	SIC	193	RC	2	0	23VC	1	0	0.387867927551	-401.0	367.0	-398	359	1
1.7	2015_Jul_23_1601	s	s	13	3	SIC	194	ABS	1	0	24MC	0	1	2.43215298653	None	None	None	None	1
1.7	2015_Jul_23_1601	s	s	13	3	SIC	195	RC	1	1	23MO	1	0	0.534713983536	-212.0	-148.0	-210	-147	1
1.7	2015_Jul_23_1601	s	s	13	3	SIC	196	RC	1	2	23MD	1	0	0.418402194977	112.0	-81.0	117	-79	1
1.7	2015_Jul_23_1601	s	s	13	3	SIC	197	ABS	0	1	24RO	0	1	4.20180511475	None	None	None	None	1
1.7	2015_Jul_23_1601	s	s	13	3	SIC	198	ABS	2	2	24VD	0	1	0.587862968445	None	None	None	None	1
1.7	2015_Jul_23_1601	s	s	13	3	SIC	199	ABS	0	2	24RD	0	1	0.870266914368	None	None	None	None	1
1.7	2015_Jul_23_1601	s	s	13	3	SIC	200	RC	2	2	23VD	1	0	0.435251951218	-374.0	275.0	-369	272	1
1.7	2015_Jul_23_1601	s	s	13	3	SIC	201	RC	0	2	23RD	1	0	0.535051107407	-54.0	-278.0	-57	-274	1
1.7	2015_Jul_23_1601	s	s	13	3	SIC	202	ABS	2	1	24VO	0	1	0.780013084412	None	None	None	None	1
1.7	2015_Jul_23_1601	s	s	13	3	SIC	203	ABS	1	2	24MD	0	1	0.705603837967	None	None	None	None	1
1.7	2015_Jul_23_1601	s	s	13	3	SIC	204	RC	2	1	23VO	1	0	0.635272026062	-136.0	399.0	-140	400	1
1.7	2015_Jul_23_1601	s	s	13	3	SIC	205	RC	1	0	23MC	1	0	0.973770856857	421.0	163.0	424	161	1
1.7	2015_Jul_23_1601	s	s	13	3	SIC	206	ABS	1	1	24MO	0	1	1.329433918	None	None	None	None	1
1.7	2015_Jul_23_1601	s	s	13	3	SIC	207	RC	0	1	23RO	1	0	1.51800298691	454.0	380.0	456	382	1
1.7	2015_Jul_23_1601	s	s	13	3	SIC	208	ABS	2	0	24VC	0	1	0.658432006836	None	None	None	None	1
1.7	2015_Jul_23_1601	s	s	13	3	SIC	209	ABS	2	0	24VC	0	1	0.607619047165	None	None	None	None	1
1.7	2015_Jul_23_1601	s	s	13	3	SIC	210	RC	2	2	23VD	1	0	0.599687099457	-232.0	-146.0	-230	-146	1
1.7	2015_Jul_23_1601	s	s	13	3	SIC	211	ABS	0	2	24RD	0	1	0.599565029144	None	None	None	None	1
1.7	2015_Jul_23_1601	s	s	13	3	SIC	212	RC	1	0	23MC	1	0	2.43623685837	-427.0	391.0	-421	391	1
1.7	2015_Jul_23_1601	s	s	13	3	SIC	213	ABS	0	1	24RO	0	1	3.50439381599	None	None	None	None	1
1.7	2015_Jul_23_1601	s	s	13	3	SIC	214	ABS	1	0	24MC	0	1	1.644769907	None	None	None	None	1
1.7	2015_Jul_23_1601	s	s	13	3	SIC	215	RC	0	2	23RD	1	0	0.547639131546	-439.0	80.0	-435	81	1
1.7	2015_Jul_23_1601	s	s	13	3	SIC	216	RC	1	1	23MO	1	0	1.78049015999	301.0	382.0	296	383	1
1.7	2015_Jul_23_1601	s	s	13	3	SIC	217	ABS	1	2	24MD	0	1	0.597007036209	None	None	None	None	1
1.7	2015_Jul_23_1601	s	s	13	3	SIC	218	RC	0	1	23RO	1	0	1.00864386559	113.0	206.0	117	202	1
1.7	2015_Jul_23_1601	s	s	13	3	SIC	219	ABS	2	2	24VD	0	1	0.548909902573	None	None	None	None	1
1.7	2015_Jul_23_1601	s	s	13	3	SIC	220	RC	2	1	23VO	1	0	0.406798124313	142.0	-77.0	140	-77	1
1.7	2015_Jul_23_1601	s	s	13	3	SIC	221	RC	2	0	23VC	1	0	0.36422085762	14.0	-115.0	15	-109	1
1.7	2015_Jul_23_1601	s	s	13	3	SIC	222	RC	1	2	23MD	1	0	0.393710851669	-369.0	164.0	-363	164	1
1.7	2015_Jul_23_1601	s	s	13	3	SIC	223	ABS	1	1	24MO	0	1	1.65577793121	None	None	None	None	1
1.7	2015_Jul_23_1601	s	s	13	3	SIC	224	ABS	2	1	24VO	0	1	0.609049081802	None	None	None	None	1
1.7	2015_Jul_23_1601	s	s	13	3	SIC	225	RC	0	2	23RD	1	0	0.512751102448	-478.0	318.0	-476	318	1
1.7	2015_Jul_23_1601	s	s	13	3	SIC	226	RC	0	1	23RO	1	0	3.24802207947	-112.0	-306.0	-117	-307	1
1.7	2015_Jul_23_1601	s	s	13	3	SIC	227	RC	2	1	23VO	1	0	0.388113021851	7.0	-323.0	11	-318	1
1.7	2015_Jul_23_1601	s	s	13	3	SIC	228	ABS	2	2	24VD	0	1	0.512005805969	None	None	None	None	1
1.7	2015_Jul_23_1601	s	s	13	3	SIC	229	ABS	2	1	24VO	0	1	0.560763120651	None	None	None	None	1
1.7	2015_Jul_23_1601	s	s	13	3	SIC	230	ABS	0	1	24RO	0	1	6.81155490875	None	None	None	None	1
1.7	2015_Jul_23_1601	s	s	13	3	SIC	231	ABS	0	2	24RD	0	1	0.858626842499	None	None	None	None	1
1.7	2015_Jul_23_1601	s	s	13	3	SIC	232	RC	2	2	23VD	1	0	0.670318126678	-290.0	322.0	-287	319	1
1.7	2015_Jul_23_1601	s	s	13	3	SIC	233	ABS	1	1	24MO	0	1	2.11805701256	None	None	None	None	1
1.7	2015_Jul_23_1601	s	s	13	3	SIC	234	RC	1	1	23MO	1	0	0.682153940201	165.0	-67.0	172	-73	1
1.7	2015_Jul_23_1601	s	s	13	3	SIC	235	RC	1	0	23MC	0	1	5.01982212067	-419.0	-167.0	None	None	0
1.7	2015_Jul_23_1601	s	s	13	3	SIC	236	RC	1	2	23MD	1	0	0.41118812561	-359.0	-271.0	-355	-271	1
1.7	2015_Jul_23_1601	s	s	13	3	SIC	237	ABS	1	2	24MD	0	1	0.799734115601	None	None	None	None	1
1.7	2015_Jul_23_1601	s	s	13	3	SIC	238	ABS	2	0	24VC	0	1	0.772222995758	None	None	None	None	1
1.7	2015_Jul_23_1601	s	s	13	3	SIC	239	RC	2	0	23VC	1	0	0.741231203079	-219.0	-227.0	-219	-235	1
1.7	2015_Jul_23_1601	s	s	13	3	SIC	240	ABS	1	0	24MC	0	1	1.5295779705	None	None	None	None	1
1.7	2015_Jul_23_1601	s	s	13	3	SIC	241	ABS	2	0	24VC	0	1	0.552608966827	None	None	None	None	1
1.7	2015_Jul_23_1601	s	s	13	3	SIC	242	RC	1	1	23MO	1	0	0.583747148514	145.0	-203.0	150	-203	1
1.7	2015_Jul_23_1601	s	s	13	3	SIC	243	ABS	1	1	24MO	0	1	1.40004014969	None	None	None	None	1
1.7	2015_Jul_23_1601	s	s	13	3	SIC	244	RC	2	1	23VO	1	0	0.517702102661	100.0	-127.0	89	-120	1
1.7	2015_Jul_23_1601	s	s	13	3	SIC	245	ABS	2	2	24VD	0	1	0.646672964096	None	None	None	None	1
1.7	2015_Jul_23_1601	s	s	13	3	SIC	246	ABS	1	2	24MD	0	1	0.705613136292	None	None	None	None	1
1.7	2015_Jul_23_1601	s	s	13	3	SIC	247	RC	1	0	23MC	1	0	1.25890493393	106.0	-201.0	115	-205	1
1.7	2015_Jul_23_1601	s	s	13	3	SIC	248	ABS	2	1	24VO	0	1	0.549077987671	None	None	None	None	1
1.7	2015_Jul_23_1601	s	s	13	3	SIC	249	ABS	0	1	24RO	1	0	6.9557890892	None	None	6	-67	0
1.7	2015_Jul_23_1601	s	s	13	3	SIC	250	ABS	0	2	24RD	0	1	1.09764790535	None	None	None	None	1
1.7	2015_Jul_23_1601	s	s	13	3	SIC	251	RC	1	2	23MD	1	0	0.717396020889	271.0	196.0	278	196	1
1.7	2015_Jul_23_1601	s	s	13	3	SIC	252	ABS	1	0	24MC	0	1	1.91280984879	None	None	None	None	1
1.7	2015_Jul_23_1601	s	s	13	3	SIC	253	RC	0	2	23RD	1	0	0.623273849487	474.0	66.0	469	67	1
1.7	2015_Jul_23_1601	s	s	13	3	SIC	254	RC	2	2	23VD	1	0	0.729053974152	-293.0	-181.0	-301	-187	1
1.7	2015_Jul_23_1601	s	s	13	3	SIC	255	RC	2	0	23VC	1	0	0.408446073532	-490.0	-320.0	-485	-323	1
1.7	2015_Jul_23_1601	s	s	13	3	SIC	256	RC	0	1	23RO	1	0	0.800323963165	-345.0	-113.0	-344	-116	1
1.7	2015_Jul_23_1601	s	s	13	3	SIC	257	ABS	2	0	24VC	0	1	0.558970928192	None	None	None	None	1
1.7	2015_Jul_23_1601	s	s	13	3	SIC	258	ABS	1	1	24MO	0	1	1.46684217453	None	None	None	None	1
1.7	2015_Jul_23_1601	s	s	13	3	SIC	259	RC	1	2	23MD	1	0	0.414963960648	-279.0	50.0	-281	48	1
1.7	2015_Jul_23_1601	s	s	13	3	SIC	260	ABS	2	2	24VD	0	1	0.834990978241	None	None	None	None	1
1.7	2015_Jul_23_1601	s	s	13	3	SIC	261	RC	2	1	23VO	1	0	0.564348936081	-169.0	-378.0	-173	-371	1
1.7	2015_Jul_23_1601	s	s	13	3	SIC	262	ABS	2	1	24VO	0	1	0.823379993439	None	None	None	None	1
1.7	2015_Jul_23_1601	s	s	13	3	SIC	263	ABS	1	2	24MD	0	1	0.894244194031	None	None	None	None	1
1.7	2015_Jul_23_1601	s	s	13	3	SIC	264	RC	1	1	23MO	1	0	0.726487874985	-154.0	363.0	-152	361	1
1.7	2015_Jul_23_1601	s	s	13	3	SIC	265	ABS	1	0	24MC	0	1	1.88861584663	None	None	None	None	1
1.7	2015_Jul_23_1601	s	s	13	3	SIC	266	RC	0	1	23RO	1	0	1.07056307793	-23.0	-366.0	-17	-361	1
1.7	2015_Jul_23_1601	s	s	13	3	SIC	267	RC	2	2	23VD	1	0	0.397433042526	-117.0	189.0	-116	182	1
1.7	2015_Jul_23_1601	s	s	13	3	SIC	268	RC	0	2	23RD	1	0	0.52458190918	373.0	-64.0	369	-73	1
1.7	2015_Jul_23_1601	s	s	13	3	SIC	269	RC	1	0	23MC	1	0	0.682098865509	-4.0	192.0	-10	192	1
1.7	2015_Jul_23_1601	s	s	13	3	SIC	270	ABS	0	1	24RO	0	1	3.04794597626	None	None	None	None	1
1.7	2015_Jul_23_1601	s	s	13	3	SIC	271	ABS	0	2	24RD	0	1	0.709311008453	None	None	None	None	1
1.7	2015_Jul_23_1601	s	s	13	3	SIC	272	RC	2	0	23VC	1	0	0.45821595192	-149.0	302.0	-149	299	1
1.7	2015_Jul_23_1601	s	s	13	3	SIC	273	ABS	1	0	24MC	0	1	2.05920290947	None	None	None	None	1
1.7	2015_Jul_23_1601	s	s	13	3	SIC	274	RC	1	2	23MD	1	0	0.493743896484	112.0	-6.0	109	-6	1
1.7	2015_Jul_23_1601	s	s	13	3	SIC	275	RC	2	0	23VC	1	0	0.399481058121	-324.0	-156.0	-320	-158	1
1.7	2015_Jul_23_1601	s	s	13	3	SIC	276	RC	0	1	23RO	1	0	1.64724516869	-129.0	-297.0	-127	-298	1
1.7	2015_Jul_23_1601	s	s	13	3	SIC	277	ABS	0	1	24RO	0	1	3.5632288456	None	None	None	None	1
1.7	2015_Jul_23_1601	s	s	13	3	SIC	278	RC	1	1	23MO	1	0	0.67694401741	-262.0	145.0	-266	150	1
1.7	2015_Jul_23_1601	s	s	13	3	SIC	279	ABS	2	1	24VO	0	1	0.606329917908	None	None	None	None	1
1.7	2015_Jul_23_1601	s	s	13	3	SIC	280	ABS	1	2	24MD	0	1	0.623294830322	None	None	None	None	1
1.7	2015_Jul_23_1601	s	s	13	3	SIC	281	RC	2	2	23VD	1	0	0.50005698204	-186.0	404.0	-177	401	1
1.7	2015_Jul_23_1601	s	s	13	3	SIC	282	ABS	2	0	24VC	0	1	0.658596992493	None	None	None	None	1
1.7	2015_Jul_23_1601	s	s	13	3	SIC	283	ABS	1	1	24MO	0	1	1.23530912399	None	None	None	None	1
1.7	2015_Jul_23_1601	s	s	13	3	SIC	284	RC	1	0	23MC	1	0	0.635060071945	144.0	36.0	149	36	1
1.7	2015_Jul_23_1601	s	s	13	3	SIC	285	ABS	0	2	24RD	0	1	0.559299945831	None	None	None	None	1
1.7	2015_Jul_23_1601	s	s	13	3	SIC	286	RC	2	1	23VO	1	0	0.406460046768	282.0	398.0	283	391	1
1.7	2015_Jul_23_1601	s	s	13	3	SIC	287	RC	0	2	23RD	1	0	0.446672916412	101.0	-170.0	100	-173	1
1.7	2015_Jul_23_1601	s	s	13	3	SIC	288	ABS	2	2	24VD	0	1	0.725733041763	None	None	None	None	1
1.7	2015_Jul_23_1601	s	s	13	3	SIC	289	ABS	2	2	24VD	0	1	0.560747146606	None	None	None	None	1
1.7	2015_Jul_23_1601	s	s	13	3	SIC	290	ABS	2	0	24VC	1	0	0.470440149307	None	None	1	-28	0
1.7	2015_Jul_23_1601	s	s	13	3	SIC	291	ABS	1	1	24MO	0	1	0.752733945847	None	None	None	None	1
1.7	2015_Jul_23_1601	s	s	13	3	SIC	292	RC	2	0	23VC	1	0	0.515043020248	438.0	-228.0	443	-222	1
1.7	2015_Jul_23_1601	s	s	13	3	SIC	293	RC	2	2	23VD	1	0	0.458454847336	-22.0	-315.0	-20	-314	1
1.7	2015_Jul_23_1601	s	s	13	3	SIC	294	RC	1	0	23MC	1	0	3.58955097198	-334.0	194.0	-329	198	1
1.7	2015_Jul_23_1601	s	s	13	3	SIC	295	ABS	1	2	24MD	0	1	0.858860015869	None	None	None	None	1
1.7	2015_Jul_23_1601	s	s	13	3	SIC	296	ABS	2	1	24VO	0	1	0.564383983612	None	None	None	None	1
1.7	2015_Jul_23_1601	s	s	13	3	SIC	297	RC	2	1	23VO	1	0	0.559426784515	176.0	-176.0	175	-170	1
1.7	2015_Jul_23_1601	s	s	13	3	SIC	298	RC	0	2	23RD	1	0	0.5055539608	388.0	-25.0	386	-28	1
1.7	2015_Jul_23_1601	s	s	13	3	SIC	299	ABS	0	1	24RO	0	1	1.97075915337	None	None	None	None	1
1.7	2015_Jul_23_1601	s	s	13	3	SIC	300	RC	1	2	23MD	1	0	0.399499177933	-46.0	167.0	-56	170	1
1.7	2015_Jul_23_1601	s	s	13	3	SIC	301	ABS	1	0	24MC	0	1	0.700860977173	None	None	None	None	1
1.7	2015_Jul_23_1601	s	s	13	3	SIC	302	RC	0	1	23RO	1	0	3.51322317123	-264.0	351.0	-261	347	1
1.7	2015_Jul_23_1601	s	s	13	3	SIC	303	RC	1	1	23MO	1	0	0.877814054489	20.0	382.0	24	371	1
1.7	2015_Jul_23_1601	s	s	13	3	SIC	304	ABS	0	2	24RD	0	1	0.856228113174	None	None	None	None	1
1.7	2015_Jul_23_1601	s	s	13	3	SIC	305	RC	0	2	23RD	1	0	0.558739185333	-531.0	297.0	-539	301	1
1.7	2015_Jul_23_1601	s	s	13	3	SIC	306	ABS	1	0	24MC	0	1	1.06573104858	None	None	None	None	1
1.7	2015_Jul_23_1601	s	s	13	3	SIC	307	RC	2	1	23VO	0	1	0.405569076538	-495.0	-13.0	None	None	0
1.7	2015_Jul_23_1601	s	s	13	3	SIC	308	ABS	1	2	24MD	0	1	0.781903028488	None	None	None	None	1
1.7	2015_Jul_23_1601	s	s	13	3	SIC	309	RC	2	0	23VC	1	0	0.517325878143	240.0	-391.0	242	-399	1
1.7	2015_Jul_23_1601	s	s	13	3	SIC	310	ABS	0	2	24RD	0	1	0.799937009811	None	None	None	None	1
1.7	2015_Jul_23_1601	s	s	13	3	SIC	311	RC	1	2	23MD	1	0	0.479731082916	-247.0	-241.0	-249	-242	1
1.7	2015_Jul_23_1601	s	s	13	3	SIC	312	RC	2	2	23VD	1	0	0.387784004211	-227.0	-127.0	-228	-126	1
1.7	2015_Jul_23_1601	s	s	13	3	SIC	313	ABS	2	0	24VC	0	1	0.61142206192	None	None	None	None	1
1.7	2015_Jul_23_1601	s	s	13	3	SIC	314	RC	1	0	23MC	0	1	1.88265395164	246.0	-31.0	None	None	0
1.7	2015_Jul_23_1601	s	s	13	3	SIC	315	ABS	2	1	24VO	0	1	0.623180866241	None	None	None	None	1
1.7	2015_Jul_23_1601	s	s	13	3	SIC	316	ABS	1	1	24MO	0	1	1.05286312103	None	None	None	None	1
1.7	2015_Jul_23_1601	s	s	13	3	SIC	317	RC	0	1	23RO	1	0	1.98865389824	206.0	-366.0	201	-361	1
1.7	2015_Jul_23_1601	s	s	13	3	SIC	318	ABS	0	1	24RO	0	1	2.00030303001	None	None	None	None	1
1.7	2015_Jul_23_1601	s	s	13	3	SIC	319	ABS	2	2	24VD	0	1	0.56923699379	None	None	None	None	1
1.7	2015_Jul_23_1601	s	s	13	3	SIC	320	RC	1	1	23MO	1	0	4.18965101242	-302.0	-388.0	-305	-386	1
1.7	2015_Jul_23_1601	s	s	13	3	SIC	321	RC	2	1	23VO	1	0	0.64323592186	314.0	9.0	321	6	1
1.7	2015_Jul_23_1601	s	s	13	3	SIC	322	ABS	2	0	24VC	0	1	0.820935964584	None	None	None	None	1
1.7	2015_Jul_23_1601	s	s	13	3	SIC	323	RC	2	2	23VD	1	0	0.547621011734	-263.0	265.0	-261	261	1
1.7	2015_Jul_23_1601	s	s	13	3	SIC	324	RC	1	2	23MD	1	0	0.784467935562	-83.0	-226.0	-85	-222	1
1.7	2015_Jul_23_1601	s	s	13	3	SIC	325	ABS	2	1	24VO	0	1	0.587788105011	None	None	None	None	1
1.7	2015_Jul_23_1601	s	s	13	3	SIC	326	RC	0	2	23RD	1	0	0.517235994339	488.0	-84.0	490	-86	1
1.7	2015_Jul_23_1601	s	s	13	3	SIC	327	ABS	2	2	24VD	0	1	0.536201953888	None	None	None	None	1
1.7	2015_Jul_23_1601	s	s	13	3	SIC	328	ABS	0	1	24RO	0	1	4.51490592957	None	None	None	None	1
1.7	2015_Jul_23_1601	s	s	13	3	SIC	329	ABS	1	1	24MO	0	1	1.42368388176	None	None	None	None	1
1.7	2015_Jul_23_1601	s	s	13	3	SIC	330	RC	1	0	23MC	1	0	1.00654411316	-131.0	288.0	-132	285	1
1.7	2015_Jul_23_1601	s	s	13	3	SIC	331	ABS	1	2	24MD	0	1	0.623152971268	None	None	None	None	1
1.7	2015_Jul_23_1601	s	s	13	3	SIC	332	ABS	0	2	24RD	0	1	1.15967607498	None	None	None	None	1
1.7	2015_Jul_23_1601	s	s	13	3	SIC	333	RC	2	0	23VC	1	0	0.493651866913	-427.0	18.0	-427	17	1
1.7	2015_Jul_23_1601	s	s	13	3	SIC	334	ABS	1	0	24MC	0	1	3.20714616776	None	None	None	None	1
1.7	2015_Jul_23_1601	s	s	13	3	SIC	335	RC	0	1	23RO	0	1	4.12704706192	505.0	-350.0	None	None	0
1.7	2015_Jul_23_1601	s	s	13	3	SIC	336	RC	1	1	23MO	1	0	0.54981303215	-188.0	6.0	-185	12	1
1.7	2015_Jul_23_1601	s	s	13	3	SIC	337	RC	2	0	23VC	1	0	0.514624118805	-221.0	261.0	-221	264	1
1.7	2015_Jul_23_1601	s	s	13	3	SIC	338	RC	1	1	23MO	1	0	0.912090063095	263.0	-50.0	268	-51	1
1.7	2015_Jul_23_1601	s	s	13	3	SIC	339	RC	1	0	23MC	1	0	0.807285070419	310.0	-257.0	306	-266	1
1.7	2015_Jul_23_1601	s	s	13	3	SIC	340	ABS	0	2	24RD	0	1	0.635022163391	None	None	None	None	1
1.7	2015_Jul_23_1601	s	s	13	3	SIC	341	RC	1	2	23MD	1	0	0.682056188583	-171.0	-280.0	-164	-277	1
1.7	2015_Jul_23_1601	s	s	13	3	SIC	342	ABS	0	1	24RO	0	1	6.9532160759	None	None	None	None	1
1.7	2015_Jul_23_1601	s	s	13	3	SIC	343	RC	0	2	23RD	1	0	0.464679956436	-107.0	187.0	-118	190	1
1.7	2015_Jul_23_1601	s	s	13	3	SIC	344	ABS	1	1	24MO	0	1	1.45322608948	None	None	None	None	1
1.7	2015_Jul_23_1601	s	s	13	3	SIC	345	RC	2	2	23VD	1	0	0.405500888824	-15.0	-53.0	-16	-51	1
1.7	2015_Jul_23_1601	s	s	13	3	SIC	346	ABS	2	1	24VO	0	1	0.529042005539	None	None	None	None	1
1.7	2015_Jul_23_1601	s	s	13	3	SIC	347	RC	2	1	23VO	1	0	0.418041944504	-281.0	152.0	-268	156	1
1.7	2015_Jul_23_1601	s	s	13	3	SIC	348	ABS	1	2	24MD	0	1	0.529054164886	None	None	None	None	1
1.7	2015_Jul_23_1601	s	s	13	3	SIC	349	ABS	2	2	24VD	0	1	0.482087135315	None	None	None	None	1
1.7	2015_Jul_23_1601	s	s	13	3	SIC	350	ABS	2	0	24VC	0	1	0.582227945328	None	None	None	None	1
1.7	2015_Jul_23_1601	s	s	13	3	SIC	351	ABS	1	0	24MC	0	1	1.32713413239	None	None	None	None	1
1.7	2015_Jul_23_1601	s	s	13	3	SIC	352	RC	0	1	23RO	1	0	1.69433999062	-31.0	-97.0	-34	-93	1
1.7	2015_Jul_23_1601	s	s	13	3	SIC	353	ABS	1	0	24MC	0	1	0.973875999451	None	None	None	None	1
1.7	2015_Jul_23_1601	s	s	13	3	SIC	354	RC	0	1	23RO	1	0	2.89207005501	-195.0	-183.0	-192	-177	1
1.7	2015_Jul_23_1601	s	s	13	3	SIC	355	RC	0	2	23RD	1	0	0.617459774017	147.0	-232.0	147	-228	1
1.7	2015_Jul_23_1601	s	s	13	3	SIC	356	ABS	0	2	24RD	0	1	0.63149023056	None	None	None	None	1
1.7	2015_Jul_23_1601	s	s	13	3	SIC	357	ABS	1	1	24MO	0	1	0.988059997559	None	None	None	None	1
1.7	2015_Jul_23_1601	s	s	13	3	SIC	358	ABS	2	0	24VC	0	1	0.893966913223	None	None	None	None	1
1.7	2015_Jul_23_1601	s	s	13	3	SIC	359	ABS	2	1	24VO	0	1	0.498835086823	None	None	None	None	1
1.7	2015_Jul_23_1601	s	s	13	3	SIC	360	ABS	0	1	24RO	0	1	3.0599091053	None	None	None	None	1
1.7	2015_Jul_23_1601	s	s	13	3	SIC	361	RC	1	2	23MD	1	0	0.481940984726	-521.0	-131.0	-519	-128	1
1.7	2015_Jul_23_1601	s	s	13	3	SIC	362	RC	2	2	23VD	1	0	1.16120910645	185.0	-125.0	174	-120	1
1.7	2015_Jul_23_1601	s	s	13	3	SIC	363	RC	1	1	23MO	1	0	0.72919011116	-17.0	-211.0	-26	-207	1
1.7	2015_Jul_23_1601	s	s	13	3	SIC	364	ABS	1	2	24MD	0	1	0.809098005295	None	None	None	None	1
1.7	2015_Jul_23_1601	s	s	13	3	SIC	365	RC	2	0	23VC	1	0	0.47776889801	-28.0	131.0	-24	133	1
1.7	2015_Jul_23_1601	s	s	13	3	SIC	366	RC	2	1	23VO	1	0	0.470279932022	-19.0	-283.0	-15	-285	1
1.7	2015_Jul_23_1601	s	s	13	3	SIC	367	ABS	2	2	24VD	0	1	0.579895019531	None	None	None	None	1
1.7	2015_Jul_23_1601	s	s	13	3	SIC	368	RC	1	0	23MC	1	0	0.723731040955	-108.0	147.0	-100	148	1
1.7	2015_Jul_23_1601	s	s	13	3	SIC	369	ABS	2	2	24VD	0	1	0.540842056274	None	None	None	None	1
1.7	2015_Jul_23_1601	s	s	13	3	SIC	370	ABS	1	1	24MO	0	1	1.8830640316	None	None	None	None	1
1.7	2015_Jul_23_1601	s	s	13	3	SIC	371	RC	0	2	23RD	1	0	0.5364818573	96.0	113.0	99	105	1
1.7	2015_Jul_23_1601	s	s	13	3	SIC	372	RC	2	1	23VO	1	0	0.705539941788	-143.0	-166.0	-146	-167	1
1.7	2015_Jul_23_1601	s	s	13	3	SIC	373	ABS	0	2	24RD	0	1	0.717394113541	None	None	None	None	1
1.7	2015_Jul_23_1601	s	s	13	3	SIC	374	RC	2	2	23VD	1	0	0.690369129181	-24.0	18.0	-26	17	1
1.7	2015_Jul_23_1601	s	s	13	3	SIC	375	RC	1	0	23MC	0	1	2.09449791908	189.0	-213.0	None	None	0
1.7	2015_Jul_23_1601	s	s	13	3	SIC	376	ABS	1	2	24MD	0	1	0.576536893845	None	None	None	None	1
1.7	2015_Jul_23_1601	s	s	13	3	SIC	377	RC	1	2	23MD	0	1	0.458449840546	22.0	-245.0	None	None	0
1.7	2015_Jul_23_1601	s	s	13	3	SIC	378	ABS	2	1	24VO	0	1	0.603849887848	None	None	None	None	1
1.7	2015_Jul_23_1601	s	s	13	3	SIC	379	ABS	2	0	24VC	0	1	0.571465969086	None	None	None	None	1
1.7	2015_Jul_23_1601	s	s	13	3	SIC	380	RC	0	1	23RO	1	0	1.6065659523	-203.0	-313.0	-200	-314	1
1.7	2015_Jul_23_1601	s	s	13	3	SIC	381	ABS	1	0	24MC	0	1	1.00649785995	None	None	None	None	1
1.7	2015_Jul_23_1601	s	s	13	3	SIC	382	RC	2	0	23VC	1	0	0.428769111633	-317.0	-90.0	-317	-84	1
1.7	2015_Jul_23_1601	s	s	13	3	SIC	383	ABS	0	1	24RO	0	1	6.06685304642	None	None	None	None	1
1.7	2015_Jul_23_1601	s	s	13	3	SIC	384	RC	1	1	23MO	1	0	1.34648489952	473.0	172.0	479	167	1
1.7	2015_Jul_23_1601	s	s	13	3	SIC	385	RC	1	0	23MC	1	0	1.32705593109	434.0	-159.0	431	-156	1
1.7	2015_Jul_23_1601	s	s	13	3	SIC	386	RC	1	2	23MD	1	0	0.658541917801	224.0	-40.0	223	-32	1
1.7	2015_Jul_23_1601	s	s	13	3	SIC	387	ABS	2	1	24VO	0	1	0.582852125168	None	None	None	None	1
1.7	2015_Jul_23_1601	s	s	13	3	SIC	388	RC	2	1	23VO	1	0	0.988523006439	525.0	95.0	523	101	1
1.7	2015_Jul_23_1601	s	s	13	3	SIC	389	ABS	1	2	24MD	0	1	0.929224967957	None	None	None	None	1
1.7	2015_Jul_23_1601	s	s	13	3	SIC	390	RC	1	1	23MO	1	0	0.675659894943	-492.0	-47.0	-503	-44	1
1.7	2015_Jul_23_1601	s	s	13	3	SIC	391	ABS	1	0	24MC	0	1	2.67943406105	None	None	None	None	1
1.7	2015_Jul_23_1601	s	s	13	3	SIC	392	ABS	0	2	24RD	0	1	1.12403798103	None	None	None	None	1
1.7	2015_Jul_23_1601	s	s	13	3	SIC	393	ABS	2	2	24VD	0	1	0.635027170181	None	None	None	None	1
1.7	2015_Jul_23_1601	s	s	13	3	SIC	394	RC	0	1	23RO	1	0	1.21905088425	-375.0	-133.0	-371	-130	1
1.7	2015_Jul_23_1601	s	s	13	3	SIC	395	RC	2	0	23VC	1	0	0.446574211121	-110.0	-246.0	-110	-246	1
1.7	2015_Jul_23_1601	s	s	13	3	SIC	396	RC	0	2	23RD	1	0	0.599624872208	123.0	-266.0	124	-270	1
1.7	2015_Jul_23_1601	s	s	13	3	SIC	397	RC	2	2	23VD	1	0	0.634907007217	516.0	164.0	507	160	1
1.7	2015_Jul_23_1601	s	s	13	3	SIC	398	ABS	1	1	24MO	0	1	1.37229895592	None	None	None	None	1
1.7	2015_Jul_23_1601	s	s	13	3	SIC	399	ABS	0	1	24RO	0	1	6.57431006432	None	None	None	None	1
1.7	2015_Jul_23_1601	s	s	13	3	SIC	400	ABS	2	0	24VC	0	1	0.584810018539	None	None	None	None	1
1.7	2015_Jul_23_1601	s	s	13	3	SIC	401	RC	2	2	23VD	1	0	0.465704202652	47.0	-267.0	53	-272	1
1.7	2015_Jul_23_1601	s	s	13	3	SIC	402	ABS	1	2	24MD	0	1	0.681988954544	None	None	None	None	1
1.7	2015_Jul_23_1601	s	s	13	3	SIC	403	ABS	2	1	24VO	0	1	0.641452074051	None	None	None	None	1
1.7	2015_Jul_23_1601	s	s	13	3	SIC	404	ABS	2	0	24VC	0	1	0.422966957092	None	None	None	None	1
1.7	2015_Jul_23_1601	s	s	13	3	SIC	405	ABS	1	0	24MC	0	1	0.858582019806	None	None	None	None	1
1.7	2015_Jul_23_1601	s	s	13	3	SIC	406	RC	2	0	23VC	1	0	0.587779998779	-226.0	-372.0	-229	-372	1
1.7	2015_Jul_23_1601	s	s	13	3	SIC	407	RC	1	0	23MC	0	1	2.72213602066	332.0	-319.0	None	None	0
1.7	2015_Jul_23_1601	s	s	13	3	SIC	408	ABS	0	1	24RO	0	1	4.62013792992	None	None	None	None	1
1.7	2015_Jul_23_1601	s	s	13	3	SIC	409	RC	0	2	23RD	1	0	0.464673995972	274.0	-339.0	269	-331	1
1.7	2015_Jul_23_1601	s	s	13	3	SIC	410	ABS	2	2	24VD	0	1	0.711931943893	None	None	None	None	1
1.7	2015_Jul_23_1601	s	s	13	3	SIC	411	ABS	0	2	24RD	0	1	1.05869412422	None	None	None	None	1
1.7	2015_Jul_23_1601	s	s	13	3	SIC	412	RC	2	1	23VO	1	0	0.423516988754	-427.0	-59.0	-424	-63	1
1.7	2015_Jul_23_1601	s	s	13	3	SIC	413	RC	1	2	23MD	1	0	0.59969496727	336.0	-15.0	337	-10	1
1.7	2015_Jul_23_1601	s	s	13	3	SIC	414	RC	1	1	23MO	1	0	1.21841406822	-248.0	351.0	-250	355	1
1.7	2015_Jul_23_1601	s	s	13	3	SIC	415	RC	0	1	23RO	1	0	2.32999396324	462.0	-309.0	456	-310	1
1.7	2015_Jul_23_1601	s	s	13	3	SIC	416	ABS	1	1	24MO	0	1	1.12708115578	None	None	None	None	1
1.7	2015_Jul_23_1601	s	s	13	3	SIC	417	ABS	2	1	24VO	0	1	0.750107049942	None	None	None	None	1
1.7	2015_Jul_23_1601	s	s	13	3	SIC	418	RC	1	2	23MD	1	0	0.646813869476	300.0	346.0	297	339	1
1.7	2015_Jul_23_1601	s	s	13	3	SIC	419	RC	1	0	23MC	0	1	2.87149810791	430.0	-105.0	None	None	0
1.7	2015_Jul_23_1601	s	s	13	3	SIC	420	RC	1	1	23MO	1	0	0.84205198288	214.0	-48.0	213	-49	1
1.7	2015_Jul_23_1601	s	s	13	3	SIC	421	ABS	2	0	24VC	0	1	0.782558917999	None	None	None	None	1
1.7	2015_Jul_23_1601	s	s	13	3	SIC	422	ABS	2	2	24VD	0	1	1.42103290558	None	None	None	None	1
1.7	2015_Jul_23_1601	s	s	13	3	SIC	423	ABS	1	2	24MD	0	1	0.797142982483	None	None	None	None	1
1.7	2015_Jul_23_1601	s	s	13	3	SIC	424	RC	2	2	23VD	1	0	0.655195951462	-504.0	18.0	-499	20	1
1.7	2015_Jul_23_1601	s	s	13	3	SIC	425	ABS	1	0	24MC	0	1	2.01924514771	None	None	None	None	1
1.7	2015_Jul_23_1601	s	s	13	3	SIC	426	ABS	0	2	24RD	0	1	0.740967035294	None	None	None	None	1
1.7	2015_Jul_23_1601	s	s	13	3	SIC	427	RC	0	1	23RO	1	0	2.59790420532	-346.0	170.0	-344	166	1
1.7	2015_Jul_23_1601	s	s	13	3	SIC	428	ABS	0	1	24RO	0	1	4.31436014175	None	None	None	None	1
1.7	2015_Jul_23_1601	s	s	13	3	SIC	429	RC	2	1	23VO	1	0	0.444402933121	-466.0	-333.0	-465	-335	1
1.7	2015_Jul_23_1601	s	s	13	3	SIC	430	RC	2	0	23VC	1	0	0.434828996658	-436.0	-312.0	-435	-310	1
1.7	2015_Jul_23_1601	s	s	13	3	SIC	431	RC	0	2	23RD	1	0	0.481837034225	-19.0	-284.0	-21	-288	1
1.7	2015_Jul_23_1601	s	s	13	3	SIC	432	ABS	1	1	24MO	0	1	0.864815950394	None	None	None	None	1
1.7	2015_Jul_23_1601	s	s	13	3	SIC	433	RC	1	1	23MO	1	0	0.88916015625	-379.0	356.0	-380	348	1
1.7	2015_Jul_23_1601	s	s	13	3	SIC	434	RC	2	2	23VD	1	0	0.476399898529	-405.0	104.0	-402	104	1
1.7	2015_Jul_23_1601	s	s	13	3	SIC	435	ABS	2	2	24VD	0	1	0.58794093132	None	None	None	None	1
1.7	2015_Jul_23_1601	s	s	13	3	SIC	436	RC	1	0	23MC	0	1	1.68252706528	-31.0	-275.0	None	None	0
1.7	2015_Jul_23_1601	s	s	13	3	SIC	437	ABS	1	1	24MO	0	1	1.73926591873	None	None	None	None	1
1.7	2015_Jul_23_1601	s	s	13	3	SIC	438	RC	0	1	23RO	1	0	2.13352704048	408.0	106.0	409	115	1
1.7	2015_Jul_23_1601	s	s	13	3	SIC	439	ABS	1	0	24MC	1	0	0.536440849304	None	None	-64	-27	0
1.7	2015_Jul_23_1601	s	s	13	3	SIC	440	ABS	0	2	24RD	0	1	0.552670955658	None	None	None	None	1
1.7	2015_Jul_23_1601	s	s	13	3	SIC	441	RC	2	0	23VC	1	0	0.576108932495	409.0	-175.0	416	-170	1
1.7	2015_Jul_23_1601	s	s	13	3	SIC	442	ABS	2	1	24VO	0	1	0.54734992981	None	None	None	None	1
1.7	2015_Jul_23_1601	s	s	13	3	SIC	443	RC	1	2	23MD	1	0	0.493793010712	-297.0	-291.0	-302	-285	1
1.7	2015_Jul_23_1601	s	s	13	3	SIC	444	ABS	0	1	24RO	0	1	2.83222103119	None	None	None	None	1
1.7	2015_Jul_23_1601	s	s	13	3	SIC	445	ABS	2	0	24VC	0	1	1.13608598709	None	None	None	None	1
1.7	2015_Jul_23_1601	s	s	13	3	SIC	446	ABS	1	2	24MD	0	1	0.682047843933	None	None	None	None	1
1.7	2015_Jul_23_1601	s	s	13	3	SIC	447	RC	2	1	23VO	1	0	0.517124176025	363.0	-179.0	358	-175	1
1.7	2015_Jul_23_1601	s	s	13	3	SIC	448	RC	0	2	23RD	1	0	0.478319883347	-125.0	-122.0	-123	-128	1
1.7	2015_Jul_23_1601	s	s	13	3	SIC	449	ABS	0	1	24RO	0	1	3.39896893501	None	None	None	None	1
1.7	2015_Jul_23_1601	s	s	13	3	SIC	450	ABS	1	2	24MD	0	1	0.891336917877	None	None	None	None	1
1.7	2015_Jul_23_1601	s	s	13	3	SIC	451	RC	0	1	23RO	1	0	2.78420615196	399.0	-348.0	402	-340	1
1.7	2015_Jul_23_1601	s	s	13	3	SIC	452	ABS	2	1	24VO	0	1	0.938344955444	None	None	None	None	1
1.7	2015_Jul_23_1601	s	s	13	3	SIC	453	RC	1	0	23MC	0	1	2.63113498688	-33.0	138.0	None	None	0
1.7	2015_Jul_23_1601	s	s	13	3	SIC	454	ABS	2	2	24VD	0	1	3.22446584702	None	None	None	None	1
1.7	2015_Jul_23_1601	s	s	13	3	SIC	455	RC	1	2	23MD	1	0	0.549607992172	-38.0	6.0	-34	2	1
1.7	2015_Jul_23_1601	s	s	13	3	SIC	456	ABS	2	0	24VC	0	1	0.721153020859	None	None	None	None	1
1.7	2015_Jul_23_1601	s	s	13	3	SIC	457	RC	2	1	23VO	1	0	0.587907075882	-270.0	367.0	-277	368	1
1.7	2015_Jul_23_1601	s	s	13	3	SIC	458	ABS	1	0	24MC	0	1	1.9593501091	None	None	None	None	1
1.7	2015_Jul_23_1601	s	s	13	3	SIC	459	RC	1	1	23MO	1	0	1.0078098774	-132.0	-390.0	-135	-399	1
1.7	2015_Jul_23_1601	s	s	13	3	SIC	460	ABS	1	1	24MO	0	1	1.11747813225	None	None	None	None	1
1.7	2015_Jul_23_1601	s	s	13	3	SIC	461	RC	2	0	23VC	1	0	0.444169044495	-286.0	-89.0	-287	-86	1
1.7	2015_Jul_23_1601	s	s	13	3	SIC	462	ABS	0	2	24RD	0	1	1.07057189941	None	None	None	None	1
1.7	2015_Jul_23_1601	s	s	13	3	SIC	463	RC	2	2	23VD	1	0	0.422992944717	-325.0	50.0	-325	46	1
1.7	2015_Jul_23_1601	s	s	13	3	SIC	464	RC	0	2	23RD	1	0	0.558835983276	-443.0	-203.0	-439	-201	1
1.7	2015_Jul_23_1601	s	s	13	3	SIC	465	RC	0	1	23RO	1	0	2.40675902367	-46.0	300.0	-56	303	1
1.7	2015_Jul_23_1601	s	s	13	3	SIC	466	ABS	1	1	24MO	0	1	1.53888511658	None	None	None	None	1
1.7	2015_Jul_23_1601	s	s	13	3	SIC	467	RC	2	2	23VD	1	0	0.735734939575	101.0	39.0	92	41	1
1.7	2015_Jul_23_1601	s	s	13	3	SIC	468	ABS	0	1	24RO	0	1	3.96132111549	None	None	None	None	1
1.7	2015_Jul_23_1601	s	s	13	3	SIC	469	ABS	0	2	24RD	0	1	1.25385093689	None	None	None	None	1
1.7	2015_Jul_23_1601	s	s	13	3	SIC	470	ABS	1	0	24MC	0	1	1.75359892845	None	None	None	None	1
1.7	2015_Jul_23_1601	s	s	13	3	SIC	471	RC	2	1	23VO	1	0	0.550140142441	366.0	-153.0	363	-154	1
1.7	2015_Jul_23_1601	s	s	13	3	SIC	472	RC	0	2	23RD	1	0	0.493700027466	-87.0	-302.0	-92	-309	1
1.7	2015_Jul_23_1601	s	s	13	3	SIC	473	ABS	2	2	24VD	0	1	0.733626127243	None	None	None	None	1
1.7	2015_Jul_23_1601	s	s	13	3	SIC	474	RC	1	0	23MC	0	1	1.30616307259	53.0	-131.0	None	None	0
1.7	2015_Jul_23_1601	s	s	13	3	SIC	475	ABS	2	0	24VC	0	1	0.576008081436	None	None	None	None	1
1.7	2015_Jul_23_1601	s	s	13	3	SIC	476	RC	2	0	23VC	1	0	0.642296075821	-523.0	232.0	-525	231	1
1.7	2015_Jul_23_1601	s	s	13	3	SIC	477	ABS	1	2	24MD	0	1	0.717212200165	None	None	None	None	1
1.7	2015_Jul_23_1601	s	s	13	3	SIC	478	RC	1	1	23MO	0	1	1.16510486603	537.0	-294.0	None	None	0
1.7	2015_Jul_23_1601	s	s	13	3	SIC	479	RC	1	2	23MD	1	0	0.440853834152	172.0	249.0	172	252	1
1.7	2015_Jul_23_1601	s	s	13	3	SIC	480	ABS	2	1	24VO	0	1	0.670253038406	None	None	None	None	1
1.7	2015_Jul_23_1601	s	s	13	3	SIC	481	RC	0	2	23RD	1	0	0.600569963455	444.0	-142.0	443	-144	1
1.7	2015_Jul_23_1601	s	s	13	3	SIC	482	ABS	2	1	24VO	0	1	0.547616958618	None	None	None	None	1
1.7	2015_Jul_23_1601	s	s	13	3	SIC	483	ABS	0	2	24RD	0	1	0.584138870239	None	None	None	None	1
1.7	2015_Jul_23_1601	s	s	13	3	SIC	484	RC	1	1	23MO	1	0	1.09031581879	-433.0	364.0	-433	363	1
1.7	2015_Jul_23_1601	s	s	13	3	SIC	485	ABS	2	0	24VC	0	1	0.83504486084	None	None	None	None	1
1.7	2015_Jul_23_1601	s	s	13	3	SIC	486	RC	1	0	23MC	0	1	1.46779990196	-331.0	201.0	None	None	0
1.7	2015_Jul_23_1601	s	s	13	3	SIC	487	RC	0	1	23RO	1	0	1.20650100708	-177.0	-144.0	-179	-146	1
1.7	2015_Jul_23_1601	s	s	13	3	SIC	488	ABS	1	0	24MC	0	1	2.16002607346	None	None	None	None	1
1.7	2015_Jul_23_1601	s	s	13	3	SIC	489	ABS	1	2	24MD	0	1	1.06812691689	None	None	None	None	1
1.7	2015_Jul_23_1601	s	s	13	3	SIC	490	ABS	0	1	24RO	0	1	4.79939603806	None	None	None	None	1
1.7	2015_Jul_23_1601	s	s	13	3	SIC	491	RC	2	1	23VO	1	0	0.676227807999	156.0	273.0	157	276	1
1.7	2015_Jul_23_1601	s	s	13	3	SIC	492	ABS	2	2	24VD	0	1	0.732913017273	None	None	None	None	1
1.7	2015_Jul_23_1601	s	s	13	3	SIC	493	ABS	1	1	24MO	0	1	1.5413210392	None	None	None	None	1
1.7	2015_Jul_23_1601	s	s	13	3	SIC	494	RC	1	2	23MD	1	0	0.556349992752	-214.0	-95.0	-221	-97	1
1.7	2015_Jul_23_1601	s	s	13	3	SIC	495	RC	2	2	23VD	1	0	3.99864912033	-224.0	-388.0	-223	-387	1
1.7	2015_Jul_23_1601	s	s	13	3	SIC	496	RC	2	0	23VC	1	0	0.729211807251	127.0	-229.0	124	-229	1
1.7	2015_Jul_23_1601	s	s	13	3	SIC	497	ABS	0	1	24RO	0	1	2.55022001266	None	None	None	None	1
1.7	2015_Jul_23_1601	s	s	13	3	SIC	498	ABS	2	2	24VD	0	1	0.905647993088	None	None	None	None	1
1.7	2015_Jul_23_1601	s	s	13	3	SIC	499	RC	1	0	23MC	1	0	0.634853124619	498.0	-277.0	500	-275	1
1.7	2015_Jul_23_1601	s	s	13	3	SIC	500	ABS	1	2	24MD	0	1	0.658702135086	None	None	None	None	1
1.7	2015_Jul_23_1601	s	s	13	3	SIC	501	ABS	1	1	24MO	0	1	2.20048308372	None	None	None	None	1
1.7	2015_Jul_23_1601	s	s	13	3	SIC	502	RC	1	2	23MD	1	0	0.646610975266	428.0	358.0	433	359	1
1.7	2015_Jul_23_1601	s	s	13	3	SIC	503	RC	0	1	23RO	1	0	2.46751689911	109.0	-235.0	108	-240	1
1.7	2015_Jul_23_1601	s	s	13	3	SIC	504	ABS	0	2	24RD	0	1	1.58875894547	None	None	None	None	1
1.7	2015_Jul_23_1601	s	s	13	3	SIC	505	RC	0	2	23RD	1	0	0.689218044281	285.0	199.0	284	190	1
1.7	2015_Jul_23_1601	s	s	13	3	SIC	506	ABS	2	1	24VO	0	1	1.0822520256	None	None	None	None	1
1.7	2015_Jul_23_1601	s	s	13	3	SIC	507	ABS	2	0	24VC	0	1	0.658374071121	None	None	None	None	1
1.7	2015_Jul_23_1601	s	s	13	3	SIC	508	ABS	1	0	24MC	0	1	1.56126093864	None	None	None	None	1
1.7	2015_Jul_23_1601	s	s	13	3	SIC	509	RC	2	1	23VO	1	0	0.626935958862	538.0	-64.0	543	-59	1
1.7	2015_Jul_23_1601	s	s	13	3	SIC	510	RC	2	0	23VC	1	0	0.514788866043	-361.0	-305.0	-359	-298	1
1.7	2015_Jul_23_1601	s	s	13	3	SIC	511	RC	1	1	23MO	1	0	0.629262924194	301.0	341.0	295	339	1
1.7	2015_Jul_23_1601	s	s	13	3	SIC	512	RC	2	2	23VD	1	0	0.540835142136	-238.0	-92.0	-234	-92	1
1.7	2015_Jul_23_1601	s	s	13	3	SIC	513	ABS	0	2	24RD	0	1	0.699908971786	None	None	None	None	1
1.7	2015_Jul_23_1601	s	s	13	3	SIC	514	RC	1	2	23MD	1	0	0.623173952103	-278.0	-16.0	-271	-14	1
1.7	2015_Jul_23_1601	s	s	13	3	SIC	515	ABS	2	0	24VC	0	1	0.799804925919	None	None	None	None	1
1.7	2015_Jul_23_1601	s	s	13	3	SIC	516	RC	1	0	23MC	0	1	1.41552996635	-24.0	282.0	None	None	0
1.7	2015_Jul_23_1601	s	s	13	3	SIC	517	ABS	0	1	24RO	0	1	5.88474202156	None	None	None	None	1
1.7	2015_Jul_23_1601	s	s	13	3	SIC	518	ABS	2	2	24VD	0	1	0.76448392868	None	None	None	None	1
1.7	2015_Jul_23_1601	s	s	13	3	SIC	519	RC	2	2	23VD	1	0	0.858674049377	-178.0	342.0	-180	337	1
1.7	2015_Jul_23_1601	s	s	13	3	SIC	520	ABS	1	0	24MC	0	1	2.61722993851	None	None	None	None	1
1.7	2015_Jul_23_1601	s	s	13	3	SIC	521	ABS	1	1	24MO	0	1	1.72530198097	None	None	None	None	1
1.7	2015_Jul_23_1601	s	s	13	3	SIC	522	RC	0	2	23RD	1	0	0.623313188553	-358.0	-370.0	-355	-369	1
1.7	2015_Jul_23_1601	s	s	13	3	SIC	523	RC	1	1	23MO	1	0	1.23523402214	499.0	168.0	499	164	1
1.7	2015_Jul_23_1601	s	s	13	3	SIC	524	ABS	1	2	24MD	0	1	0.783382892609	None	None	None	None	1
1.7	2015_Jul_23_1601	s	s	13	3	SIC	525	ABS	2	1	24VO	0	1	0.558364868164	None	None	None	None	1
1.7	2015_Jul_23_1601	s	s	13	3	SIC	526	RC	0	1	23RO	1	0	1.60639810562	323.0	358.0	319	353	1
1.7	2015_Jul_23_1601	s	s	13	3	SIC	527	RC	2	0	23VC	1	0	0.552618026733	295.0	216.0	297	217	1
1.7	2015_Jul_23_1601	s	s	13	3	SIC	528	RC	2	1	23VO	1	0	0.973425865173	-21.0	-260.0	-27	-259	1
1.7	2015_Jul_23_1601	s	s	13	3	SIC	529	ABS	1	0	24MC	0	1	1.94153904915	None	None	None	None	1
1.7	2015_Jul_23_1601	s	s	13	3	SIC	530	RC	0	1	23RO	1	0	2.25935697556	-413.0	99.0	-412	91	1
1.7	2015_Jul_23_1601	s	s	13	3	SIC	531	RC	0	2	23RD	1	0	0.795006036758	445.0	364.0	443	354	1
1.7	2015_Jul_23_1601	s	s	13	3	SIC	532	RC	2	2	23VD	1	0	0.458271980286	512.0	-187.0	504	-186	1
1.7	2015_Jul_23_1601	s	s	13	3	SIC	533	ABS	0	1	24RO	0	1	4.63695597649	None	None	None	None	1
1.7	2015_Jul_23_1601	s	s	13	3	SIC	534	ABS	2	0	24VC	0	1	0.693867921829	None	None	None	None	1
1.7	2015_Jul_23_1601	s	s	13	3	SIC	535	ABS	0	2	24RD	0	1	1.421200037	None	None	None	None	1
1.7	2015_Jul_23_1601	s	s	13	3	SIC	536	RC	1	0	23MC	0	1	3.06378507614	-229.0	-400.0	None	None	0
1.7	2015_Jul_23_1601	s	s	13	3	SIC	537	RC	1	2	23MD	1	0	0.714876174927	-532.0	86.0	-527	82	1
1.7	2015_Jul_23_1601	s	s	13	3	SIC	538	ABS	1	1	24MO	0	1	3.09226107597	None	None	None	None	1
1.7	2015_Jul_23_1601	s	s	13	3	SIC	539	ABS	1	2	24MD	0	1	0.866791963577	None	None	None	None	1
1.7	2015_Jul_23_1601	s	s	13	3	SIC	540	ABS	2	1	24VO	0	1	0.741451978683	None	None	None	None	1
1.7	2015_Jul_23_1601	s	s	13	3	SIC	541	RC	2	0	23VC	1	0	0.899347066879	463.0	263.0	467	260	1
1.7	2015_Jul_23_1601	s	s	13	3	SIC	542	ABS	2	2	24VD	0	1	0.949157953262	None	None	None	None	1
1.7	2015_Jul_23_1601	s	s	13	3	SIC	543	RC	1	1	23MO	1	0	1.27750205994	277.0	-300.0	278	-301	1
1.7	2015_Jul_23_1601	s	s	13	3	SIC	544	RC	2	1	23VO	1	0	0.476324796677	-132.0	254.0	-125	249	1
1.7	2015_Jul_23_1601	s	s	13	3	SIC	545	RC	2	2	23VD	1	0	0.475611925125	278.0	-180.0	276	-176	1
1.7	2015_Jul_23_1601	s	s	13	3	SIC	546	ABS	0	2	24RD	0	1	0.729173898697	None	None	None	None	1
1.7	2015_Jul_23_1601	s	s	13	3	SIC	547	RC	1	2	23MD	1	0	0.502918958664	281.0	-218.0	282	-213	1
1.7	2015_Jul_23_1601	s	s	13	3	SIC	548	ABS	1	1	24MO	0	1	1.68252897263	None	None	None	None	1
1.7	2015_Jul_23_1601	s	s	13	3	SIC	549	ABS	1	0	24MC	0	1	2.92225408554	None	None	None	None	1
1.7	2015_Jul_23_1601	s	s	13	3	SIC	550	RC	1	0	23MC	0	1	3.74873018265	499.0	-216.0	None	None	0
1.7	2015_Jul_23_1601	s	s	13	3	SIC	551	RC	2	0	23VC	1	0	0.988109111786	443.0	-170.0	445	-168	1
1.7	2015_Jul_23_1601	s	s	13	3	SIC	552	RC	0	1	23RO	1	0	1.23577809334	-496.0	-126.0	-501	-131	1
1.7	2015_Jul_23_1601	s	s	13	3	SIC	553	RC	1	1	23MO	1	0	0.630264043808	-387.0	-201.0	-377	-197	1
1.7	2015_Jul_23_1601	s	s	13	3	SIC	554	RC	0	2	23RD	1	0	0.536528110504	289.0	-382.0	285	-384	1
1.7	2015_Jul_23_1601	s	s	13	3	SIC	555	ABS	2	2	24VD	0	1	1.42015790939	None	None	None	None	1
1.7	2015_Jul_23_1601	s	s	13	3	SIC	556	RC	2	1	23VO	1	0	0.58503985405	-17.0	365.0	-15	367	1
1.7	2015_Jul_23_1601	s	s	13	3	SIC	557	ABS	1	2	24MD	0	1	2.37222218513	None	None	None	None	1
1.7	2015_Jul_23_1601	s	s	13	3	SIC	558	ABS	2	0	24VC	0	1	0.576159000397	None	None	None	None	1
1.7	2015_Jul_23_1601	s	s	13	3	SIC	559	ABS	2	1	24VO	0	1	0.772922992706	None	None	None	None	1
1.7	2015_Jul_23_1601	s	s	13	3	SIC	560	ABS	0	1	24RO	0	1	3.66479587555	None	None	None	None	1
1.7	2015_Jul_23_1601	s	s	13	3	SIC	561	RC	2	2	23VD	1	0	0.550125837326	351.0	33.0	346	25	1
1.7	2015_Jul_23_1601	s	s	13	3	SIC	562	RC	1	1	23MO	1	0	1.59669589996	122.0	275.0	123	272	1
1.7	2015_Jul_23_1601	s	s	13	3	SIC	563	RC	2	0	23VC	1	0	0.688935041428	-459.0	-82.0	-463	-88	1
1.7	2015_Jul_23_1601	s	s	13	3	SIC	564	RC	1	2	23MD	1	0	0.596182107925	366.0	180.0	363	178	1
1.7	2015_Jul_23_1601	s	s	13	3	SIC	565	RC	0	2	23RD	1	0	0.81162405014	-138.0	-135.0	-135	-139	1
1.7	2015_Jul_23_1601	s	s	13	3	SIC	566	RC	0	1	23RO	1	0	1.56019306183	356.0	-232.0	355	-242	1
1.7	2015_Jul_23_1601	s	s	13	3	SIC	567	ABS	2	2	24VD	0	1	0.693828821182	None	None	None	None	1
1.7	2015_Jul_23_1601	s	s	13	3	SIC	568	ABS	0	1	24RO	0	1	3.82483291626	None	None	None	None	1
1.7	2015_Jul_23_1601	s	s	13	3	SIC	569	ABS	1	0	24MC	0	1	1.74697113037	None	None	None	None	1
1.7	2015_Jul_23_1601	s	s	13	3	SIC	570	RC	1	0	23MC	1	0	2.90288710594	217.0	-132.0	210	-139	1
1.7	2015_Jul_23_1601	s	s	13	3	SIC	571	ABS	2	0	24VC	0	1	0.941051006317	None	None	None	None	1
1.7	2015_Jul_23_1601	s	s	13	3	SIC	572	ABS	1	2	24MD	0	1	2.19497919083	None	None	None	None	1
1.7	2015_Jul_23_1601	s	s	13	3	SIC	573	ABS	0	2	24RD	0	1	1.05853509903	None	None	None	None	1
1.7	2015_Jul_23_1601	s	s	13	3	SIC	574	ABS	1	1	24MO	0	1	1.58284807205	None	None	None	None	1
1.7	2015_Jul_23_1601	s	s	13	3	SIC	575	ABS	2	1	24VO	0	1	0.923963069916	None	None	None	None	1
1.7	2015_Jul_23_1601	s	s	13	3	SIC	576	RC	2	1	23VO	1	0	1.23512506485	200.0	-140.0	199	-148	1
1.7	2015_Jul_23_1601	s	s	13	3	SIC	577	ABS	1	2	24MD	0	1	0.690473079681	None	None	None	None	1
1.7	2015_Jul_23_1601	s	s	13	3	SIC	578	RC	2	2	23VD	1	0	0.795366048813	-34.0	-258.0	-31	-263	1
1.7	2015_Jul_23_1601	s	s	13	3	SIC	579	RC	2	1	23VO	1	0	0.558685064316	355.0	33.0	348	36	1
1.7	2015_Jul_23_1601	s	s	13	3	SIC	580	ABS	0	2	24RD	0	1	0.606795072556	None	None	None	None	1
1.7	2015_Jul_23_1601	s	s	13	3	SIC	581	ABS	2	2	24VD	0	1	0.558603048325	None	None	None	None	1
1.7	2015_Jul_23_1601	s	s	13	3	SIC	582	ABS	0	1	24RO	0	1	5.20189499855	None	None	None	None	1
1.7	2015_Jul_23_1601	s	s	13	3	SIC	583	ABS	2	0	24VC	0	1	0.917457818985	None	None	None	None	1
1.7	2015_Jul_23_1601	s	s	13	3	SIC	584	RC	2	0	23VC	1	0	0.653110027313	-306.0	57.0	-312	59	1
1.7	2015_Jul_23_1601	s	s	13	3	SIC	585	RC	0	1	23RO	0	1	3.75106310844	123.0	408.0	None	None	0
1.7	2015_Jul_23_1601	s	s	13	3	SIC	586	RC	1	0	23MC	1	0	6.22614002228	-401.0	-72.0	-403	-62	1
1.7	2015_Jul_23_1601	s	s	13	3	SIC	587	ABS	1	1	24MO	0	1	1.07042598724	None	None	None	None	1
1.7	2015_Jul_23_1601	s	s	13	3	SIC	588	RC	1	2	23MD	1	0	0.587929010391	-162.0	305.0	-160	301	1
1.7	2015_Jul_23_1601	s	s	13	3	SIC	589	RC	0	2	23RD	1	0	0.691120147705	-272.0	-302.0	-270	-301	1
1.7	2015_Jul_23_1601	s	s	13	3	SIC	590	ABS	2	1	24VO	0	1	0.646810054779	None	None	None	None	1
1.7	2015_Jul_23_1601	s	s	13	3	SIC	591	ABS	1	0	24MC	0	1	1.23151302338	None	None	None	None	1
1.7	2015_Jul_23_1601	s	s	13	3	SIC	592	RC	1	1	23MO	1	0	1.53622508049	-534.0	-219.0	-531	-228	1
