Version	Date	Stimuli	Method	Subject	Session	Condition	Trial	Target	Channel1	Channel2	Distractors	LMouseButton	RMouseButton	RT	TargetX	TargetY	ResponseX	ResponseY	Correct
1.7	2015_Jul_28_1515	s	s	14	2	Capacity	1	RC	0	1	23RO	1	0	1.71212387085	249.0	-199.0	250	-204	1
1.7	2015_Jul_28_1515	s	s	14	2	Capacity	2	RC	0	2	23RD	1	0	0.752635955811	268.0	255.0	273	257	1
1.7	2015_Jul_28_1515	s	s	14	2	Capacity	3	ABS	0	1	24RO	0	1	5.0451438427	None	None	None	None	1
1.7	2015_Jul_28_1515	s	s	14	2	Capacity	4	ABS	0	2	24RD	0	1	2.07983589172	None	None	None	None	1
1.7	2015_Jul_28_1515	s	s	14	2	Capacity	5	ABS	0	2	24RD	0	1	2.01209402084	None	None	None	None	1
1.7	2015_Jul_28_1515	s	s	14	2	Capacity	6	ABS	0	1	24RO	0	1	4.37239694595	None	None	None	None	1
1.7	2015_Jul_28_1515	s	s	14	2	Capacity	7	RC	0	1	23RO	1	0	1.38827395439	-349.0	-158.0	-349	-154	1
1.7	2015_Jul_28_1515	s	s	14	2	Capacity	8	RC	0	2	23RD	1	0	1.20811891556	539.0	48.0	543	51	1
1.7	2015_Jul_28_1515	s	s	14	2	Capacity	9	ABS	0	2	24RD	0	1	1.57651090622	None	None	None	None	1
1.7	2015_Jul_28_1515	s	s	14	2	Capacity	10	RC	0	1	23RO	1	0	1.4541041851	-361.0	-180.0	-363	-187	1
1.7	2015_Jul_28_1515	s	s	14	2	Capacity	11	RC	0	2	23RD	1	0	1.95326685905	257.0	-237.0	255	-234	1
1.7	2015_Jul_28_1515	s	s	14	2	Capacity	12	ABS	0	1	24RO	0	1	5.40925312042	None	None	None	None	1
1.7	2015_Jul_28_1515	s	s	14	2	Capacity	13	RC	0	2	23RD	1	0	0.56442117691	-400.0	349.0	-401	345	1
1.7	2015_Jul_28_1515	s	s	14	2	Capacity	14	ABS	0	2	24RD	0	1	1.42361116409	None	None	None	None	1
1.7	2015_Jul_28_1515	s	s	14	2	Capacity	15	RC	0	1	23RO	1	0	1.133207798	-158.0	213.0	-158	208	1
1.7	2015_Jul_28_1515	s	s	14	2	Capacity	16	ABS	0	1	24RO	0	1	5.00187492371	None	None	None	None	1
1.7	2015_Jul_28_1515	s	s	14	2	Capacity	17	ABS	0	2	24RD	0	1	1.30079698563	None	None	None	None	1
1.7	2015_Jul_28_1515	s	s	14	2	Capacity	18	RC	0	2	23RD	1	0	0.564389944077	-508.0	223.0	-503	221	1
1.7	2015_Jul_28_1515	s	s	14	2	Capacity	19	ABS	0	1	24RO	0	1	5.44916081429	None	None	None	None	1
1.7	2015_Jul_28_1515	s	s	14	2	Capacity	20	RC	0	1	23RO	1	0	1.13652706146	-369.0	-356.0	-378	-347	1
1.7	2015_Jul_28_1515	s	s	14	2	Capacity	21	ABS	0	2	24RD	0	1	0.988054990768	None	None	None	None	1
1.7	2015_Jul_28_1515	s	s	14	2	Capacity	22	RC	0	2	23RD	1	0	0.911922931671	476.0	397.0	477	390	1
1.7	2015_Jul_28_1515	s	s	14	2	Capacity	23	RC	0	1	23RO	1	0	0.905636072159	-526.0	353.0	-516	356	1
1.7	2015_Jul_28_1515	s	s	14	2	Capacity	24	ABS	0	1	24RO	0	1	4.44861388206	None	None	None	None	1
1.7	2015_Jul_28_1515	s	s	14	2	Capacity	25	ABS	0	2	24RD	0	1	1.31502914429	None	None	None	None	1
1.7	2015_Jul_28_1515	s	s	14	2	Capacity	26	RC	0	1	23RO	1	0	1.267318964	362.0	-365.0	370	-359	1
1.7	2015_Jul_28_1515	s	s	14	2	Capacity	27	RC	0	2	23RD	1	0	0.764471054077	-482.0	309.0	-482	308	1
1.7	2015_Jul_28_1515	s	s	14	2	Capacity	28	ABS	0	1	24RO	0	1	5.15174007416	None	None	None	None	1
1.7	2015_Jul_28_1515	s	s	14	2	Capacity	29	RC	0	2	23RD	1	0	0.779913902283	-310.0	363.0	-306	357	1
1.7	2015_Jul_28_1515	s	s	14	2	Capacity	30	ABS	0	2	24RD	0	1	1.12919807434	None	None	None	None	1
1.7	2015_Jul_28_1515	s	s	14	2	Capacity	31	RC	0	1	23RO	1	0	1.41851305962	318.0	-338.0	320	-343	1
1.7	2015_Jul_28_1515	s	s	14	2	Capacity	32	ABS	0	1	24RO	0	1	6.32020998001	None	None	None	None	1
1.7	2015_Jul_28_1515	s	s	14	2	Capacity	33	ABS	0	2	24RD	0	1	0.964569091797	None	None	None	None	1
1.7	2015_Jul_28_1515	s	s	14	2	Capacity	34	ABS	0	1	24RO	0	1	4.00141716003	None	None	None	None	1
1.7	2015_Jul_28_1515	s	s	14	2	Capacity	35	RC	0	2	23RD	1	0	0.611392974854	181.0	-94.0	186	-99	1
1.7	2015_Jul_28_1515	s	s	14	2	Capacity	36	RC	0	1	23RO	1	0	2.76070594788	-425.0	182.0	-432	183	1
1.7	2015_Jul_28_1515	s	s	14	2	Capacity	37	ABS	0	2	24RD	0	1	2.16196107864	None	None	None	None	1
1.7	2015_Jul_28_1515	s	s	14	2	Capacity	38	RC	0	2	23RD	1	0	0.571192979813	144.0	-192.0	148	-191	1
1.7	2015_Jul_28_1515	s	s	14	2	Capacity	39	ABS	0	1	24RO	0	1	4.34882688522	None	None	None	None	1
1.7	2015_Jul_28_1515	s	s	14	2	Capacity	40	RC	0	1	23RO	0	1	3.90240907669	46.0	-234.0	None	None	0
1.7	2015_Jul_28_1515	s	s	14	2	Capacity	41	RC	0	1	23RO	1	0	1.81985521317	-426.0	315.0	-424	321	1
1.7	2015_Jul_28_1515	s	s	14	2	Capacity	42	ABS	0	2	24RD	0	1	1.66636610031	None	None	None	None	1
1.7	2015_Jul_28_1515	s	s	14	2	Capacity	43	ABS	0	1	24RO	0	1	4.97834086418	None	None	None	None	1
1.7	2015_Jul_28_1515	s	s	14	2	Capacity	44	RC	0	2	23RD	1	0	0.5996530056	220.0	185.0	225	181	1
1.7	2015_Jul_28_1515	s	s	14	2	Capacity	45	RC	0	2	23RD	1	0	0.655887842178	440.0	138.0	439	139	1
1.7	2015_Jul_28_1515	s	s	14	2	Capacity	46	ABS	0	2	24RD	0	1	1.35973405838	None	None	None	None	1
1.7	2015_Jul_28_1515	s	s	14	2	Capacity	47	ABS	0	1	24RO	0	1	4.23675704002	None	None	None	None	1
1.7	2015_Jul_28_1515	s	s	14	2	Capacity	48	RC	0	1	23RO	1	0	4.82101011276	-395.0	-133.0	-384	-124	1
1.7	2015_Jul_28_1515	s	s	14	2	Capacity	49	ABS	0	2	24RD	0	1	1.14112615585	None	None	None	None	1
1.7	2015_Jul_28_1515	s	s	14	2	Capacity	50	RC	0	2	23RD	1	0	0.493780851364	-478.0	20.0	-479	22	1
1.7	2015_Jul_28_1515	s	s	14	2	Capacity	51	RC	0	1	23RO	1	0	3.03131699562	-390.0	355.0	-389	355	1
1.7	2015_Jul_28_1515	s	s	14	2	Capacity	52	ABS	0	1	24RO	0	1	4.34259104729	None	None	None	None	1
1.7	2015_Jul_28_1515	s	s	14	2	Capacity	53	RC	0	1	23RO	1	0	1.73619198799	-530.0	379.0	-535	387	1
1.7	2015_Jul_28_1515	s	s	14	2	Capacity	54	RC	0	2	23RD	1	0	0.546580076218	215.0	-148.0	218	-146	1
1.7	2015_Jul_28_1515	s	s	14	2	Capacity	55	ABS	0	2	24RD	0	1	0.960056781769	None	None	None	None	1
1.7	2015_Jul_28_1515	s	s	14	2	Capacity	56	ABS	0	1	24RO	0	1	6.72669506073	None	None	None	None	1
1.7	2015_Jul_28_1515	s	s	14	2	Capacity	57	RC	0	2	23RD	1	0	0.665867090225	-529.0	267.0	-537	273	1
1.7	2015_Jul_28_1515	s	s	14	2	Capacity	58	ABS	0	1	24RO	0	1	3.77770900726	None	None	None	None	1
1.7	2015_Jul_28_1515	s	s	14	2	Capacity	59	ABS	0	2	24RD	0	1	1.373016119	None	None	None	None	1
1.7	2015_Jul_28_1515	s	s	14	2	Capacity	60	RC	0	1	23RO	0	1	3.49521899223	133.0	20.0	None	None	0
1.7	2015_Jul_28_1515	s	s	14	2	Capacity	61	ABS	0	1	24RO	0	1	3.63655900955	None	None	None	None	1
1.7	2015_Jul_28_1515	s	s	14	2	Capacity	62	RC	0	2	23RD	1	0	0.502929925919	-220.0	-101.0	-217	-101	1
1.7	2015_Jul_28_1515	s	s	14	2	Capacity	63	RC	0	1	23RO	1	0	4.26026916504	230.0	-151.0	224	-157	1
1.7	2015_Jul_28_1515	s	s	14	2	Capacity	64	ABS	0	2	24RD	0	1	1.01883506775	None	None	None	None	1
1.7	2015_Jul_28_1515	s	s	14	2	Capacity	65	RC	0	2	23RD	1	0	0.573647975922	66.0	134.0	61	138	1
1.7	2015_Jul_28_1515	s	s	14	2	Capacity	66	ABS	0	2	24RD	0	1	0.937920093536	None	None	None	None	1
1.7	2015_Jul_28_1515	s	s	14	2	Capacity	67	ABS	0	1	24RO	0	1	4.61342287064	None	None	None	None	1
1.7	2015_Jul_28_1515	s	s	14	2	Capacity	68	RC	0	1	23RO	1	0	3.62227797508	229.0	-12.0	222	-5	1
1.7	2015_Jul_28_1515	s	s	14	2	Capacity	69	RC	0	1	23RO	1	0	4.58514714241	-315.0	242.0	-311	251	1
1.7	2015_Jul_28_1515	s	s	14	2	Capacity	70	RC	0	2	23RD	1	0	0.611411094666	258.0	-321.0	258	-313	1
1.7	2015_Jul_28_1515	s	s	14	2	Capacity	71	ABS	0	2	24RD	1	0	1.19532799721	None	None	50	-33	0
1.7	2015_Jul_28_1515	s	s	14	2	Capacity	72	ABS	0	1	24RO	0	1	4.77825403214	None	None	None	None	1
1.7	2015_Jul_28_1515	s	s	14	2	Capacity	73	ABS	0	2	24RD	0	1	1.28228020668	None	None	None	None	1
1.7	2015_Jul_28_1515	s	s	14	2	Capacity	74	RC	0	2	23RD	1	0	0.572903871536	-476.0	318.0	-471	320	1
1.7	2015_Jul_28_1515	s	s	14	2	Capacity	75	RC	0	1	23RO	1	0	1.86287403107	-381.0	-317.0	-371	-311	1
1.7	2015_Jul_28_1515	s	s	14	2	Capacity	76	ABS	0	1	24RO	0	1	3.31063103676	None	None	None	None	1
1.7	2015_Jul_28_1515	s	s	14	2	Capacity	77	RC	0	2	23RD	1	0	0.925702810287	269.0	399.0	274	403	1
1.7	2015_Jul_28_1515	s	s	14	2	Capacity	78	ABS	0	1	24RO	0	1	3.91336894035	None	None	None	None	1
1.7	2015_Jul_28_1515	s	s	14	2	Capacity	79	ABS	0	2	24RD	0	1	1.10565900803	None	None	None	None	1
1.7	2015_Jul_28_1515	s	s	14	2	Capacity	80	RC	0	1	23RO	1	0	0.917468070984	-52.0	-199.0	-59	-202	1
1.7	2015_Jul_28_1515	s	s	14	2	Capacity	81	RC	0	2	23RD	1	0	0.559265851974	-491.0	210.0	-493	211	1
1.7	2015_Jul_28_1515	s	s	14	2	Capacity	82	ABS	0	1	24RO	0	1	4.61957883835	None	None	None	None	1
1.7	2015_Jul_28_1515	s	s	14	2	Capacity	83	ABS	0	2	24RD	0	1	1.10229802132	None	None	None	None	1
1.7	2015_Jul_28_1515	s	s	14	2	Capacity	84	RC	0	1	23RO	1	0	3.70788192749	127.0	138.0	134	143	1
1.7	2015_Jul_28_1515	s	s	14	2	Capacity	85	ABS	0	2	24RD	0	1	0.929337024689	None	None	None	None	1
1.7	2015_Jul_28_1515	s	s	14	2	Capacity	86	ABS	0	1	24RO	0	1	4.22309994698	None	None	None	None	1
1.7	2015_Jul_28_1515	s	s	14	2	Capacity	87	RC	0	2	23RD	1	0	0.587661981583	-443.0	-409.0	-438	-416	1
1.7	2015_Jul_28_1515	s	s	14	2	Capacity	88	RC	0	1	23RO	1	0	2.75387310982	185.0	80.0	190	88	1
1.7	2015_Jul_28_1515	s	s	14	2	Capacity	89	RC	0	1	23RO	1	0	2.47116613388	468.0	305.0	472	301	1
1.7	2015_Jul_28_1515	s	s	14	2	Capacity	90	ABS	0	1	24RO	0	1	4.14001297951	None	None	None	None	1
1.7	2015_Jul_28_1515	s	s	14	2	Capacity	91	RC	0	2	23RD	1	0	0.481979846954	96.0	91.0	96	95	1
1.7	2015_Jul_28_1515	s	s	14	2	Capacity	92	ABS	0	2	24RD	0	1	1.23529195786	None	None	None	None	1
1.7	2015_Jul_28_1515	s	s	14	2	Capacity	1	ABS	2	0	24VC	0	1	0.62327003479	None	None	None	None	1
1.7	2015_Jul_28_1515	s	s	14	2	Capacity	2	RC	1	0	23MC	1	0	1.89447689056	459.0	-309.0	455	-316	1
1.7	2015_Jul_28_1515	s	s	14	2	Capacity	3	RC	2	0	23VC	1	0	0.587900876999	-381.0	226.0	-381	226	1
1.7	2015_Jul_28_1515	s	s	14	2	Capacity	4	ABS	1	0	24MC	0	1	1.68257188797	None	None	None	None	1
1.7	2015_Jul_28_1515	s	s	14	2	Capacity	5	RC	1	0	23MC	1	0	2.25698208809	-56.0	298.0	-59	302	1
1.7	2015_Jul_28_1515	s	s	14	2	Capacity	6	RC	2	0	23VC	1	0	0.703142881393	536.0	-86.0	536	-82	1
1.7	2015_Jul_28_1515	s	s	14	2	Capacity	7	ABS	1	0	24MC	0	1	1.32941508293	None	None	None	None	1
1.7	2015_Jul_28_1515	s	s	14	2	Capacity	8	ABS	2	0	24VC	0	1	0.865544080734	None	None	None	None	1
1.7	2015_Jul_28_1515	s	s	14	2	Capacity	9	RC	1	0	23MC	1	0	0.546965122223	-319.0	284.0	-326	277	1
1.7	2015_Jul_28_1515	s	s	14	2	Capacity	10	ABS	2	0	24VC	0	1	0.61146402359	None	None	None	None	1
1.7	2015_Jul_28_1515	s	s	14	2	Capacity	11	ABS	1	0	24MC	0	1	1.65904188156	None	None	None	None	1
1.7	2015_Jul_28_1515	s	s	14	2	Capacity	12	RC	2	0	23VC	1	0	0.473809957504	152.0	234.0	151	233	1
1.7	2015_Jul_28_1515	s	s	14	2	Capacity	13	RC	2	0	23VC	1	0	1.54799318314	-457.0	34.0	-451	36	1
1.7	2015_Jul_28_1515	s	s	14	2	Capacity	14	RC	1	0	23MC	1	0	0.909460067749	117.0	179.0	121	178	1
1.7	2015_Jul_28_1515	s	s	14	2	Capacity	15	ABS	1	0	24MC	0	1	3.21768093109	None	None	None	None	1
1.7	2015_Jul_28_1515	s	s	14	2	Capacity	16	ABS	2	0	24VC	0	1	0.827101945877	None	None	None	None	1
1.7	2015_Jul_28_1515	s	s	14	2	Capacity	17	ABS	2	0	24VC	0	1	0.8741979599	None	None	None	None	1
1.7	2015_Jul_28_1515	s	s	14	2	Capacity	18	RC	2	0	23VC	1	0	0.513494968414	-192.0	-361.0	-192	-360	1
1.7	2015_Jul_28_1515	s	s	14	2	Capacity	19	RC	1	0	23MC	1	0	2.35356998444	-176.0	-53.0	-175	-61	1
1.7	2015_Jul_28_1515	s	s	14	2	Capacity	20	ABS	1	0	24MC	0	1	1.8355410099	None	None	None	None	1
1.7	2015_Jul_28_1515	s	s	14	2	Capacity	21	RC	1	0	23MC	1	0	0.538820028305	-296.0	-87.0	-305	-91	1
1.7	2015_Jul_28_1515	s	s	14	2	Capacity	22	RC	2	0	23VC	1	0	0.559274196625	-3.0	-349.0	-6	-349	1
1.7	2015_Jul_28_1515	s	s	14	2	Capacity	23	ABS	2	0	24VC	0	1	0.748670101166	None	None	None	None	1
1.7	2015_Jul_28_1515	s	s	14	2	Capacity	24	ABS	1	0	24MC	0	1	2.68881702423	None	None	None	None	1
1.7	2015_Jul_28_1515	s	s	14	2	Capacity	25	RC	1	0	23MC	1	0	2.63329005241	134.0	317.0	132	317	1
1.7	2015_Jul_28_1515	s	s	14	2	Capacity	26	RC	2	0	23VC	1	0	0.847057819366	-138.0	337.0	-131	338	1
1.7	2015_Jul_28_1515	s	s	14	2	Capacity	27	ABS	1	0	24MC	0	1	2.44299793243	None	None	None	None	1
1.7	2015_Jul_28_1515	s	s	14	2	Capacity	28	ABS	2	0	24VC	0	1	0.717406988144	None	None	None	None	1
1.7	2015_Jul_28_1515	s	s	14	2	Capacity	29	ABS	1	0	24MC	0	1	2.63632082939	None	None	None	None	1
1.7	2015_Jul_28_1515	s	s	14	2	Capacity	30	RC	2	0	23VC	1	0	0.476572990417	-481.0	-65.0	-479	-64	1
1.7	2015_Jul_28_1515	s	s	14	2	Capacity	31	ABS	2	0	24VC	0	1	0.55890083313	None	None	None	None	1
1.7	2015_Jul_28_1515	s	s	14	2	Capacity	32	RC	1	0	23MC	1	0	0.805588006973	-20.0	129.0	-14	131	1
1.7	2015_Jul_28_1515	s	s	14	2	Capacity	33	RC	2	0	23VC	1	0	0.764312028885	514.0	-228.0	511	-233	1
1.7	2015_Jul_28_1515	s	s	14	2	Capacity	34	ABS	2	0	24VC	0	1	0.596787929535	None	None	None	None	1
1.7	2015_Jul_28_1515	s	s	14	2	Capacity	35	RC	1	0	23MC	1	0	0.58792591095	-26.0	-131.0	-21	-132	1
1.7	2015_Jul_28_1515	s	s	14	2	Capacity	36	ABS	1	0	24MC	0	1	3.74239492416	None	None	None	None	1
1.7	2015_Jul_28_1515	s	s	14	2	Capacity	37	ABS	2	0	24VC	0	1	0.752569913864	None	None	None	None	1
1.7	2015_Jul_28_1515	s	s	14	2	Capacity	38	RC	2	0	23VC	1	0	0.538558006287	258.0	-139.0	249	-137	1
1.7	2015_Jul_28_1515	s	s	14	2	Capacity	39	RC	1	0	23MC	1	0	0.741192102432	-376.0	-72.0	-380	-69	1
1.7	2015_Jul_28_1515	s	s	14	2	Capacity	40	ABS	1	0	24MC	0	1	2.69233107567	None	None	None	None	1
1.7	2015_Jul_28_1515	s	s	14	2	Capacity	41	RC	2	0	23VC	1	0	0.493749856949	388.0	-145.0	395	-136	1
1.7	2015_Jul_28_1515	s	s	14	2	Capacity	42	ABS	1	0	24MC	0	1	2.64359092712	None	None	None	None	1
1.7	2015_Jul_28_1515	s	s	14	2	Capacity	43	RC	1	0	23MC	1	0	1.75313401222	487.0	64.0	492	74	1
1.7	2015_Jul_28_1515	s	s	14	2	Capacity	44	ABS	2	0	24VC	0	1	0.603297948837	None	None	None	None	1
1.7	2015_Jul_28_1515	s	s	14	2	Capacity	45	RC	1	0	23MC	1	0	1.35083699226	-147.0	-267.0	-146	-267	1
1.7	2015_Jul_28_1515	s	s	14	2	Capacity	46	ABS	2	0	24VC	0	1	0.652135133743	None	None	None	None	1
1.7	2015_Jul_28_1515	s	s	14	2	Capacity	47	RC	2	0	23VC	1	0	0.44170999527	-176.0	-30.0	-162	-22	1
1.7	2015_Jul_28_1515	s	s	14	2	Capacity	48	ABS	1	0	24MC	0	1	2.99825310707	None	None	None	None	1
1.7	2015_Jul_28_1515	s	s	14	2	Capacity	49	ABS	1	0	24MC	0	1	2.88302898407	None	None	None	None	1
1.7	2015_Jul_28_1515	s	s	14	2	Capacity	50	RC	1	0	23MC	1	0	0.717348098755	-118.0	-173.0	-117	-171	1
1.7	2015_Jul_28_1515	s	s	14	2	Capacity	51	RC	2	0	23VC	1	0	0.576108932495	201.0	373.0	198	360	1
1.7	2015_Jul_28_1515	s	s	14	2	Capacity	52	ABS	2	0	24VC	0	1	0.815391778946	None	None	None	None	1
1.7	2015_Jul_28_1515	s	s	14	2	Capacity	53	ABS	1	0	24MC	0	1	3.27786397934	None	None	None	None	1
1.7	2015_Jul_28_1515	s	s	14	2	Capacity	54	ABS	2	0	24VC	0	1	0.888927936554	None	None	None	None	1
1.7	2015_Jul_28_1515	s	s	14	2	Capacity	55	RC	2	0	23VC	1	0	0.676534175873	-493.0	-162.0	-497	-161	1
1.7	2015_Jul_28_1515	s	s	14	2	Capacity	56	RC	1	0	23MC	1	0	2.70324492455	-244.0	290.0	-241	290	1
1.7	2015_Jul_28_1515	s	s	14	2	Capacity	57	ABS	1	0	24MC	0	1	4.70761990547	None	None	None	None	1
1.7	2015_Jul_28_1515	s	s	14	2	Capacity	58	ABS	2	0	24VC	0	1	0.877333879471	None	None	None	None	1
1.7	2015_Jul_28_1515	s	s	14	2	Capacity	59	RC	1	0	23MC	1	0	2.68359398842	533.0	-173.0	542	-177	1
1.7	2015_Jul_28_1515	s	s	14	2	Capacity	60	RC	2	0	23VC	1	0	0.501011133194	40.0	256.0	39	258	1
1.7	2015_Jul_28_1515	s	s	14	2	Capacity	61	ABS	1	0	24MC	0	1	3.17744112015	None	None	None	None	1
1.7	2015_Jul_28_1515	s	s	14	2	Capacity	62	RC	2	0	23VC	1	0	0.505527973175	-347.0	278.0	-346	272	1
1.7	2015_Jul_28_1515	s	s	14	2	Capacity	63	RC	1	0	23MC	1	0	1.49154186249	539.0	-391.0	549	-388	1
1.7	2015_Jul_28_1515	s	s	14	2	Capacity	64	ABS	2	0	24VC	0	1	0.815300941467	None	None	None	None	1
1.7	2015_Jul_28_1515	s	s	14	2	Capacity	65	ABS	2	0	24VC	0	1	0.772057056427	None	None	None	None	1
1.7	2015_Jul_28_1515	s	s	14	2	Capacity	66	ABS	1	0	24MC	0	1	3.14216303825	None	None	None	None	1
1.7	2015_Jul_28_1515	s	s	14	2	Capacity	67	RC	1	0	23MC	1	0	1.18816685677	259.0	303.0	264	301	1
1.7	2015_Jul_28_1515	s	s	14	2	Capacity	68	RC	2	0	23VC	1	0	1.00374102592	-284.0	-64.0	-287	-60	1
1.7	2015_Jul_28_1515	s	s	14	2	Capacity	69	ABS	1	0	24MC	0	1	2.30645298958	None	None	None	None	1
1.7	2015_Jul_28_1515	s	s	14	2	Capacity	70	RC	1	0	23MC	1	0	1.03572392464	133.0	150.0	141	154	1
1.7	2015_Jul_28_1515	s	s	14	2	Capacity	71	RC	2	0	23VC	0	1	0.858550071716	529.0	-336.0	None	None	0
1.7	2015_Jul_28_1515	s	s	14	2	Capacity	72	ABS	2	0	24VC	0	1	0.771162033081	None	None	None	None	1
1.7	2015_Jul_28_1515	s	s	14	2	Capacity	73	ABS	2	0	24VC	0	1	1.2915430069	None	None	None	None	1
1.7	2015_Jul_28_1515	s	s	14	2	Capacity	74	RC	2	0	23VC	1	0	0.658494949341	520.0	-214.0	530	-210	1
1.7	2015_Jul_28_1515	s	s	14	2	Capacity	75	RC	1	0	23MC	1	0	2.7772769928	-219.0	307.0	-218	301	1
1.7	2015_Jul_28_1515	s	s	14	2	Capacity	76	ABS	1	0	24MC	0	1	3.01269698143	None	None	None	None	1
1.7	2015_Jul_28_1515	s	s	14	2	Capacity	77	ABS	1	0	24MC	0	1	2.92716097832	None	None	None	None	1
1.7	2015_Jul_28_1515	s	s	14	2	Capacity	78	RC	1	0	23MC	1	0	1.03274703026	365.0	-214.0	377	-213	1
1.7	2015_Jul_28_1515	s	s	14	2	Capacity	79	ABS	2	0	24VC	0	1	0.905650138855	None	None	None	None	1
1.7	2015_Jul_28_1515	s	s	14	2	Capacity	80	RC	2	0	23VC	1	0	0.564278125763	-227.0	328.0	-226	330	1
1.7	2015_Jul_28_1515	s	s	14	2	Capacity	81	ABS	2	0	24VC	0	1	0.676879882812	None	None	None	None	1
1.7	2015_Jul_28_1515	s	s	14	2	Capacity	82	RC	2	0	23VC	1	0	0.702341079712	34.0	-291.0	44	-290	1
1.7	2015_Jul_28_1515	s	s	14	2	Capacity	83	ABS	1	0	24MC	0	1	3.02442002296	None	None	None	None	1
1.7	2015_Jul_28_1515	s	s	14	2	Capacity	84	RC	1	0	23MC	1	0	0.940891027451	-481.0	383.0	-481	379	1
1.7	2015_Jul_28_1515	s	s	14	2	Capacity	85	ABS	2	0	24VC	0	1	1.24705004692	None	None	None	None	1
1.7	2015_Jul_28_1515	s	s	14	2	Capacity	86	RC	2	0	23VC	1	0	0.49370598793	303.0	-390.0	306	-389	1
1.7	2015_Jul_28_1515	s	s	14	2	Capacity	87	ABS	1	0	24MC	0	1	2.32761597633	None	None	None	None	1
1.7	2015_Jul_28_1515	s	s	14	2	Capacity	88	RC	1	0	23MC	1	0	1.59493803978	508.0	-381.0	509	-374	1
1.7	2015_Jul_28_1515	s	s	14	2	Capacity	89	ABS	2	0	24VC	0	1	0.891426086426	None	None	None	None	1
1.7	2015_Jul_28_1515	s	s	14	2	Capacity	90	ABS	1	0	24MC	0	1	3.1607670784	None	None	None	None	1
1.7	2015_Jul_28_1515	s	s	14	2	Capacity	91	RC	1	0	23MC	1	0	3.42013812065	-110.0	-286.0	-104	-278	1
1.7	2015_Jul_28_1515	s	s	14	2	Capacity	92	RC	2	0	23VC	1	0	0.84303689003	526.0	81.0	533	88	1
1.7	2015_Jul_28_1515	s	s	14	2	SIC	1	RC	2	2	23VD	1	0	1.03164887428	2.0	-404.0	9	-403	1
1.7	2015_Jul_28_1515	s	s	14	2	SIC	2	ABS	2	2	24VD	0	1	0.808914899826	None	None	None	None	1
1.7	2015_Jul_28_1515	s	s	14	2	SIC	3	RC	1	0	23MC	1	0	1.21170401573	105.0	96.0	110	100	1
1.7	2015_Jul_28_1515	s	s	14	2	SIC	4	ABS	1	0	24MC	0	1	2.25932002068	None	None	None	None	1
1.7	2015_Jul_28_1515	s	s	14	2	SIC	5	ABS	0	2	24RD	0	1	1.73875403404	None	None	None	None	1
1.7	2015_Jul_28_1515	s	s	14	2	SIC	6	ABS	1	2	24MD	0	1	1.15293097496	None	None	None	None	1
1.7	2015_Jul_28_1515	s	s	14	2	SIC	7	ABS	0	1	24RO	0	1	4.21893191338	None	None	None	None	1
1.7	2015_Jul_28_1515	s	s	14	2	SIC	8	RC	0	1	23RO	1	0	1.9956741333	537.0	311.0	537	304	1
1.7	2015_Jul_28_1515	s	s	14	2	SIC	9	RC	2	0	23VC	1	0	0.611443996429	-339.0	-75.0	-343	-70	1
1.7	2015_Jul_28_1515	s	s	14	2	SIC	10	RC	1	2	23MD	1	0	0.500967979431	159.0	-280.0	160	-282	1
1.7	2015_Jul_28_1515	s	s	14	2	SIC	11	ABS	1	1	24MO	0	1	2.52458500862	None	None	None	None	1
1.7	2015_Jul_28_1515	s	s	14	2	SIC	12	ABS	2	0	24VC	1	0	0.524942874908	None	None	-43	-31	0
1.7	2015_Jul_28_1515	s	s	14	2	SIC	13	ABS	2	1	24VO	0	1	0.643083810806	None	None	None	None	1
1.7	2015_Jul_28_1515	s	s	14	2	SIC	14	RC	2	1	23VO	1	0	0.171589136124	254.0	289.0	254	291	1
1.7	2015_Jul_28_1515	s	s	14	2	SIC	15	RC	1	1	23MO	1	0	0.738428115845	207.0	73.0	209	68	1
1.7	2015_Jul_28_1515	s	s	14	2	SIC	16	RC	0	2	23RD	1	0	0.676239967346	-172.0	-193.0	-178	-194	1
1.7	2015_Jul_28_1515	s	s	14	2	SIC	17	RC	2	0	23VC	1	0	0.552546977997	-221.0	-122.0	-213	-114	1
1.7	2015_Jul_28_1515	s	s	14	2	SIC	18	ABS	1	2	24MD	0	1	1.02330994606	None	None	None	None	1
1.7	2015_Jul_28_1515	s	s	14	2	SIC	19	RC	1	0	23MC	1	0	0.940989017487	18.0	-317.0	20	-308	1
1.7	2015_Jul_28_1515	s	s	14	2	SIC	20	RC	0	1	23RO	1	0	1.60710597038	89.0	-263.0	98	-257	1
1.7	2015_Jul_28_1515	s	s	14	2	SIC	21	ABS	1	1	24MO	0	1	2.20683288574	None	None	None	None	1
1.7	2015_Jul_28_1515	s	s	14	2	SIC	22	ABS	0	2	24RD	0	1	1.04696393013	None	None	None	None	1
1.7	2015_Jul_28_1515	s	s	14	2	SIC	23	RC	2	1	23VO	1	0	0.458339929581	284.0	86.0	288	91	1
1.7	2015_Jul_28_1515	s	s	14	2	SIC	24	RC	0	2	23RD	1	0	0.476999044418	-292.0	-179.0	-290	-179	1
1.7	2015_Jul_28_1515	s	s	14	2	SIC	25	RC	1	1	23MO	1	0	0.735896110535	280.0	-48.0	275	-56	1
1.7	2015_Jul_28_1515	s	s	14	2	SIC	26	ABS	2	0	24VC	0	1	0.626950025558	None	None	None	None	1
1.7	2015_Jul_28_1515	s	s	14	2	SIC	27	RC	1	2	23MD	1	0	0.423140048981	-11.0	65.0	-3	71	1
1.7	2015_Jul_28_1515	s	s	14	2	SIC	28	ABS	0	1	24RO	0	1	3.19870996475	None	None	None	None	1
1.7	2015_Jul_28_1515	s	s	14	2	SIC	29	ABS	2	1	24VO	0	1	0.721721887589	None	None	None	None	1
1.7	2015_Jul_28_1515	s	s	14	2	SIC	30	ABS	1	0	24MC	0	1	3.65516495705	None	None	None	None	1
1.7	2015_Jul_28_1515	s	s	14	2	SIC	31	RC	2	2	23VD	1	0	0.49952507019	470.0	16.0	464	16	1
1.7	2015_Jul_28_1515	s	s	14	2	SIC	32	ABS	2	2	24VD	0	1	0.666572093964	None	None	None	None	1
1.7	2015_Jul_28_1515	s	s	14	2	SIC	33	RC	1	0	23MC	1	0	0.846894979477	10.0	228.0	10	224	1
1.7	2015_Jul_28_1515	s	s	14	2	SIC	34	RC	2	1	23VO	1	0	0.537683963776	351.0	310.0	357	306	1
1.7	2015_Jul_28_1515	s	s	14	2	SIC	35	ABS	0	1	24RO	0	1	3.60112404823	None	None	None	None	1
1.7	2015_Jul_28_1515	s	s	14	2	SIC	36	RC	2	2	23VD	1	0	0.473721027374	-361.0	-214.0	-352	-209	1
1.7	2015_Jul_28_1515	s	s	14	2	SIC	37	ABS	2	1	24VO	0	1	0.629209041595	None	None	None	None	1
1.7	2015_Jul_28_1515	s	s	14	2	SIC	38	RC	1	1	23MO	1	0	1.0587618351	-353.0	264.0	-351	269	1
1.7	2015_Jul_28_1515	s	s	14	2	SIC	39	ABS	1	2	24MD	0	1	0.594649076462	None	None	None	None	1
1.7	2015_Jul_28_1515	s	s	14	2	SIC	40	RC	0	2	23RD	1	0	0.540813922882	-32.0	-378.0	-34	-381	1
1.7	2015_Jul_28_1515	s	s	14	2	SIC	41	RC	0	1	23RO	1	0	1.32949590683	-227.0	229.0	-223	228	1
1.7	2015_Jul_28_1515	s	s	14	2	SIC	42	ABS	2	2	24VD	0	1	0.658509016037	None	None	None	None	1
1.7	2015_Jul_28_1515	s	s	14	2	SIC	43	ABS	0	2	24RD	0	1	0.764467954636	None	None	None	None	1
1.7	2015_Jul_28_1515	s	s	14	2	SIC	44	RC	2	0	23VC	1	0	0.655488967896	349.0	-277.0	361	-276	1
1.7	2015_Jul_28_1515	s	s	14	2	SIC	45	RC	1	2	23MD	1	0	0.679573774338	-26.0	399.0	-34	400	1
1.7	2015_Jul_28_1515	s	s	14	2	SIC	46	ABS	2	0	24VC	0	1	0.668148040771	None	None	None	None	1
1.7	2015_Jul_28_1515	s	s	14	2	SIC	47	ABS	1	0	24MC	0	1	2.44762778282	None	None	None	None	1
1.7	2015_Jul_28_1515	s	s	14	2	SIC	48	ABS	1	1	24MO	0	1	2.26303696632	None	None	None	None	1
1.7	2015_Jul_28_1515	s	s	14	2	SIC	49	ABS	2	2	24VD	0	1	0.717347860336	None	None	None	None	1
1.7	2015_Jul_28_1515	s	s	14	2	SIC	50	ABS	2	0	24VC	0	1	0.725701093674	None	None	None	None	1
1.7	2015_Jul_28_1515	s	s	14	2	SIC	51	RC	2	2	23VD	1	0	0.458400964737	-527.0	52.0	-521	52	1
1.7	2015_Jul_28_1515	s	s	14	2	SIC	52	ABS	0	2	24RD	0	1	1.04695105553	None	None	None	None	1
1.7	2015_Jul_28_1515	s	s	14	2	SIC	53	ABS	2	1	24VO	0	1	0.571038007736	None	None	None	None	1
1.7	2015_Jul_28_1515	s	s	14	2	SIC	54	RC	2	0	23VC	1	0	0.505417108536	-409.0	-46.0	-407	-47	1
1.7	2015_Jul_28_1515	s	s	14	2	SIC	55	ABS	1	2	24MD	0	1	0.724344968796	None	None	None	None	1
1.7	2015_Jul_28_1515	s	s	14	2	SIC	56	RC	0	1	23RO	1	0	0.76486492157	19.0	-50.0	21	-60	1
1.7	2015_Jul_28_1515	s	s	14	2	SIC	57	RC	1	2	23MD	1	0	0.411504030228	164.0	-43.0	161	-43	1
1.7	2015_Jul_28_1515	s	s	14	2	SIC	58	RC	2	1	23VO	1	0	0.453976154327	90.0	-95.0	86	-94	1
1.7	2015_Jul_28_1515	s	s	14	2	SIC	59	ABS	1	1	24MO	0	1	2.34624314308	None	None	None	None	1
1.7	2015_Jul_28_1515	s	s	14	2	SIC	60	ABS	1	0	24MC	0	1	2.84360980988	None	None	None	None	1
1.7	2015_Jul_28_1515	s	s	14	2	SIC	61	ABS	0	1	24RO	0	1	3.42449998856	None	None	None	None	1
1.7	2015_Jul_28_1515	s	s	14	2	SIC	62	RC	1	0	23MC	1	0	1.27056384087	-380.0	-376.0	-379	-370	1
1.7	2015_Jul_28_1515	s	s	14	2	SIC	63	RC	1	1	23MO	1	0	0.962004899979	-349.0	-149.0	-354	-146	1
1.7	2015_Jul_28_1515	s	s	14	2	SIC	64	RC	0	2	23RD	1	0	0.426815032959	-146.0	3.0	-143	2	1
1.7	2015_Jul_28_1515	s	s	14	2	SIC	65	RC	2	0	23VC	1	0	0.735557079315	334.0	279.0	344	283	1
1.7	2015_Jul_28_1515	s	s	14	2	SIC	66	ABS	2	2	24VD	0	1	0.576003789902	None	None	None	None	1
1.7	2015_Jul_28_1515	s	s	14	2	SIC	67	RC	0	1	23RO	1	0	1.32688713074	-210.0	151.0	-206	156	1
1.7	2015_Jul_28_1515	s	s	14	2	SIC	68	RC	2	2	23VD	1	0	0.458739042282	-416.0	239.0	-404	247	1
1.7	2015_Jul_28_1515	s	s	14	2	SIC	69	RC	2	1	23VO	1	0	0.576131820679	467.0	145.0	475	148	1
1.7	2015_Jul_28_1515	s	s	14	2	SIC	70	ABS	1	2	24MD	0	1	0.844305992126	None	None	None	None	1
1.7	2015_Jul_28_1515	s	s	14	2	SIC	71	RC	1	1	23MO	1	0	0.423552036285	-32.0	-5.0	-36	-9	1
1.7	2015_Jul_28_1515	s	s	14	2	SIC	72	RC	0	2	23RD	1	0	0.690160036087	166.0	270.0	173	270	1
1.7	2015_Jul_28_1515	s	s	14	2	SIC	73	RC	1	2	23MD	1	0	0.441138982773	14.0	-192.0	4	-194	1
1.7	2015_Jul_28_1515	s	s	14	2	SIC	74	ABS	0	2	24RD	0	1	0.776160001755	None	None	None	None	1
1.7	2015_Jul_28_1515	s	s	14	2	SIC	75	ABS	2	1	24VO	0	1	0.475522994995	None	None	None	None	1
1.7	2015_Jul_28_1515	s	s	14	2	SIC	76	RC	1	0	23MC	1	0	1.28938317299	-415.0	315.0	-416	324	1
1.7	2015_Jul_28_1515	s	s	14	2	SIC	77	ABS	2	0	24VC	0	1	0.65313410759	None	None	None	None	1
1.7	2015_Jul_28_1515	s	s	14	2	SIC	78	ABS	1	0	24MC	0	1	3.06645512581	None	None	None	None	1
1.7	2015_Jul_28_1515	s	s	14	2	SIC	79	ABS	1	1	24MO	0	1	1.80037379265	None	None	None	None	1
1.7	2015_Jul_28_1515	s	s	14	2	SIC	80	ABS	0	1	24RO	0	1	3.17148709297	None	None	None	None	1
1.7	2015_Jul_28_1515	s	s	14	2	SIC	81	RC	1	1	23MO	0	1	2.09452295303	-145.0	229.0	None	None	0
1.7	2015_Jul_28_1515	s	s	14	2	SIC	82	ABS	2	2	24VD	0	1	0.511477947235	None	None	None	None	1
1.7	2015_Jul_28_1515	s	s	14	2	SIC	83	ABS	2	0	24VC	0	1	0.517255067825	None	None	None	None	1
1.7	2015_Jul_28_1515	s	s	14	2	SIC	84	RC	0	2	23RD	1	0	0.458298921585	-322.0	96.0	-317	101	1
1.7	2015_Jul_28_1515	s	s	14	2	SIC	85	ABS	1	2	24MD	0	1	0.699500083923	None	None	None	None	1
1.7	2015_Jul_28_1515	s	s	14	2	SIC	86	RC	1	2	23MD	1	0	0.51731801033	-436.0	241.0	-429	243	1
1.7	2015_Jul_28_1515	s	s	14	2	SIC	87	ABS	0	2	24RD	0	1	1.06393790245	None	None	None	None	1
1.7	2015_Jul_28_1515	s	s	14	2	SIC	88	ABS	0	1	24RO	0	1	3.16332697868	None	None	None	None	1
1.7	2015_Jul_28_1515	s	s	14	2	SIC	89	ABS	1	1	24MO	0	1	2.28996801376	None	None	None	None	1
1.7	2015_Jul_28_1515	s	s	14	2	SIC	90	RC	2	1	23VO	1	0	0.499866008759	-476.0	149.0	-481	154	1
1.7	2015_Jul_28_1515	s	s	14	2	SIC	91	ABS	1	0	24MC	0	1	2.70657801628	None	None	None	None	1
1.7	2015_Jul_28_1515	s	s	14	2	SIC	92	RC	0	1	23RO	0	1	2.951171875	-279.0	-61.0	None	None	0
1.7	2015_Jul_28_1515	s	s	14	2	SIC	93	RC	2	0	23VC	1	0	0.505583047867	266.0	168.0	276	173	1
1.7	2015_Jul_28_1515	s	s	14	2	SIC	94	RC	2	2	23VD	1	0	0.509609937668	-486.0	-399.0	-482	-398	1
1.7	2015_Jul_28_1515	s	s	14	2	SIC	95	ABS	2	1	24VO	0	1	0.511975049973	None	None	None	None	1
1.7	2015_Jul_28_1515	s	s	14	2	SIC	96	RC	1	0	23MC	1	0	1.05871009827	-222.0	-121.0	-225	-126	1
1.7	2015_Jul_28_1515	s	s	14	2	SIC	97	RC	0	1	23RO	1	0	2.90672397614	492.0	374.0	492	380	1
1.7	2015_Jul_28_1515	s	s	14	2	SIC	98	ABS	0	2	24RD	0	1	0.893928050995	None	None	None	None	1
1.7	2015_Jul_28_1515	s	s	14	2	SIC	99	RC	1	2	23MD	1	0	0.659085035324	217.0	371.0	222	372	1
1.7	2015_Jul_28_1515	s	s	14	2	SIC	100	RC	1	1	23MO	1	0	1.04114294052	183.0	-343.0	174	-339	1
1.7	2015_Jul_28_1515	s	s	14	2	SIC	101	RC	2	2	23VD	1	0	0.473956108093	-485.0	213.0	-493	213	1
1.7	2015_Jul_28_1515	s	s	14	2	SIC	102	ABS	2	0	24VC	0	1	0.681936979294	None	None	None	None	1
1.7	2015_Jul_28_1515	s	s	14	2	SIC	103	RC	2	0	23VC	1	0	0.503187894821	117.0	323.0	116	324	1
1.7	2015_Jul_28_1515	s	s	14	2	SIC	104	RC	1	0	23MC	1	0	1.19433307648	-146.0	373.0	-145	373	1
1.7	2015_Jul_28_1515	s	s	14	2	SIC	105	ABS	1	1	24MO	0	1	1.71348404884	None	None	None	None	1
1.7	2015_Jul_28_1515	s	s	14	2	SIC	106	ABS	1	2	24MD	0	1	0.846839904785	None	None	None	None	1
1.7	2015_Jul_28_1515	s	s	14	2	SIC	107	RC	2	1	23VO	1	0	0.452975988388	360.0	-357.0	368	-356	1
1.7	2015_Jul_28_1515	s	s	14	2	SIC	108	ABS	0	1	24RO	0	1	2.47114610672	None	None	None	None	1
1.7	2015_Jul_28_1515	s	s	14	2	SIC	109	RC	0	2	23RD	1	0	0.903108119965	424.0	314.0	432	318	1
1.7	2015_Jul_28_1515	s	s	14	2	SIC	110	ABS	2	2	24VD	0	1	0.521718025208	None	None	None	None	1
1.7	2015_Jul_28_1515	s	s	14	2	SIC	111	ABS	1	0	24MC	0	1	2.90347790718	None	None	None	None	1
1.7	2015_Jul_28_1515	s	s	14	2	SIC	112	ABS	2	1	24VO	0	1	0.550132036209	None	None	None	None	1
1.7	2015_Jul_28_1515	s	s	14	2	SIC	113	RC	1	2	23MD	1	0	0.736361026764	-252.0	135.0	-241	140	1
1.7	2015_Jul_28_1515	s	s	14	2	SIC	114	RC	1	0	23MC	1	0	0.749122858047	126.0	-175.0	129	-173	1
1.7	2015_Jul_28_1515	s	s	14	2	SIC	115	ABS	1	0	24MC	0	1	3.09504508972	None	None	None	None	1
1.7	2015_Jul_28_1515	s	s	14	2	SIC	116	ABS	0	1	24RO	0	1	3.69278597832	None	None	None	None	1
1.7	2015_Jul_28_1515	s	s	14	2	SIC	117	ABS	1	2	24MD	0	1	0.971745967865	None	None	None	None	1
1.7	2015_Jul_28_1515	s	s	14	2	SIC	118	RC	0	2	23RD	1	0	0.611349105835	-408.0	-398.0	-401	-393	1
1.7	2015_Jul_28_1515	s	s	14	2	SIC	119	ABS	2	2	24VD	0	1	0.608759880066	None	None	None	None	1
1.7	2015_Jul_28_1515	s	s	14	2	SIC	120	ABS	2	0	24VC	0	1	0.529093027115	None	None	None	None	1
1.7	2015_Jul_28_1515	s	s	14	2	SIC	121	ABS	1	1	24MO	0	1	2.98913598061	None	None	None	None	1
1.7	2015_Jul_28_1515	s	s	14	2	SIC	122	RC	2	0	23VC	1	0	0.629946947098	-297.0	239.0	-298	239	1
1.7	2015_Jul_28_1515	s	s	14	2	SIC	123	RC	0	1	23RO	1	0	3.0949780941	-189.0	382.0	-181	386	1
1.7	2015_Jul_28_1515	s	s	14	2	SIC	124	RC	2	2	23VD	1	0	0.462018013	168.0	-109.0	176	-112	1
1.7	2015_Jul_28_1515	s	s	14	2	SIC	125	RC	1	1	23MO	1	0	2.23573303223	-127.0	172.0	-130	179	1
1.7	2015_Jul_28_1515	s	s	14	2	SIC	126	ABS	2	1	24VO	0	1	0.548056840897	None	None	None	None	1
1.7	2015_Jul_28_1515	s	s	14	2	SIC	127	ABS	0	2	24RD	0	1	0.712279081345	None	None	None	None	1
1.7	2015_Jul_28_1515	s	s	14	2	SIC	128	RC	2	1	23VO	1	0	0.441926002502	-57.0	-125.0	-52	-123	1
1.7	2015_Jul_28_1515	s	s	14	2	SIC	129	ABS	1	0	24MC	0	1	2.6949160099	None	None	None	None	1
1.7	2015_Jul_28_1515	s	s	14	2	SIC	130	RC	1	2	23MD	1	0	0.611317873001	126.0	-401.0	127	-398	1
1.7	2015_Jul_28_1515	s	s	14	2	SIC	131	RC	0	2	23RD	1	0	0.546810150146	-151.0	224.0	-155	230	1
1.7	2015_Jul_28_1515	s	s	14	2	SIC	132	ABS	2	2	24VD	0	1	0.517304182053	None	None	None	None	1
1.7	2015_Jul_28_1515	s	s	14	2	SIC	133	ABS	2	0	24VC	0	1	0.634855985641	None	None	None	None	1
1.7	2015_Jul_28_1515	s	s	14	2	SIC	134	RC	2	2	23VD	1	0	0.478455066681	308.0	-25.0	300	-24	1
1.7	2015_Jul_28_1515	s	s	14	2	SIC	135	RC	0	1	23RO	0	1	2.6661901474	191.0	236.0	None	None	0
1.7	2015_Jul_28_1515	s	s	14	2	SIC	136	ABS	2	1	24VO	0	1	0.773384094238	None	None	None	None	1
1.7	2015_Jul_28_1515	s	s	14	2	SIC	137	ABS	0	1	24RO	0	1	3.77216696739	None	None	None	None	1
1.7	2015_Jul_28_1515	s	s	14	2	SIC	138	ABS	0	2	24RD	0	1	0.783490896225	None	None	None	None	1
1.7	2015_Jul_28_1515	s	s	14	2	SIC	139	ABS	1	2	24MD	0	1	0.564355134964	None	None	None	None	1
1.7	2015_Jul_28_1515	s	s	14	2	SIC	140	RC	2	1	23VO	1	0	0.47017788887	-277.0	40.0	-266	41	1
1.7	2015_Jul_28_1515	s	s	14	2	SIC	141	RC	2	0	23VC	1	0	0.49373292923	344.0	-344.0	351	-338	1
1.7	2015_Jul_28_1515	s	s	14	2	SIC	142	RC	1	0	23MC	1	0	2.60875082016	319.0	142.0	320	143	1
1.7	2015_Jul_28_1515	s	s	14	2	SIC	143	RC	1	1	23MO	1	0	0.677097082138	237.0	-107.0	240	-108	1
1.7	2015_Jul_28_1515	s	s	14	2	SIC	144	ABS	1	1	24MO	0	1	1.40954709053	None	None	None	None	1
1.7	2015_Jul_28_1515	s	s	14	2	SIC	145	RC	1	0	23MC	1	0	1.41893696785	-191.0	-161.0	-191	-163	1
1.7	2015_Jul_28_1515	s	s	14	2	SIC	146	RC	1	2	23MD	1	0	0.517329931259	-467.0	-344.0	-472	-338	1
1.7	2015_Jul_28_1515	s	s	14	2	SIC	147	RC	2	2	23VD	1	0	0.540872812271	94.0	-47.0	90	-48	1
1.7	2015_Jul_28_1515	s	s	14	2	SIC	148	RC	0	1	23RO	1	0	1.00784015656	316.0	106.0	313	97	1
1.7	2015_Jul_28_1515	s	s	14	2	SIC	149	RC	2	0	23VC	1	0	0.458397865295	0.0	162.0	8	164	1
1.7	2015_Jul_28_1515	s	s	14	2	SIC	150	ABS	2	0	24VC	0	1	0.764565944672	None	None	None	None	1
1.7	2015_Jul_28_1515	s	s	14	2	SIC	151	RC	1	1	23MO	1	0	0.879635095596	-125.0	-322.0	-127	-332	1
1.7	2015_Jul_28_1515	s	s	14	2	SIC	152	ABS	0	1	24RO	0	1	3.56591892242	None	None	None	None	1
1.7	2015_Jul_28_1515	s	s	14	2	SIC	153	ABS	1	2	24MD	0	1	0.811528205872	None	None	None	None	1
1.7	2015_Jul_28_1515	s	s	14	2	SIC	154	ABS	1	1	24MO	0	1	2.8658080101	None	None	None	None	1
1.7	2015_Jul_28_1515	s	s	14	2	SIC	155	ABS	2	2	24VD	0	1	0.679722070694	None	None	None	None	1
1.7	2015_Jul_28_1515	s	s	14	2	SIC	156	ABS	1	0	24MC	0	1	3.78940320015	None	None	None	None	1
1.7	2015_Jul_28_1515	s	s	14	2	SIC	157	ABS	2	1	24VO	0	1	0.688536167145	None	None	None	None	1
1.7	2015_Jul_28_1515	s	s	14	2	SIC	158	ABS	0	2	24RD	0	1	0.917317867279	None	None	None	None	1
1.7	2015_Jul_28_1515	s	s	14	2	SIC	159	RC	0	2	23RD	1	0	0.49373292923	-341.0	12.0	-332	16	1
1.7	2015_Jul_28_1515	s	s	14	2	SIC	160	RC	2	1	23VO	1	0	0.559380054474	294.0	-173.0	293	-168	1
1.7	2015_Jul_28_1515	s	s	14	2	SIC	161	ABS	0	1	24RO	0	1	3.39867806435	None	None	None	None	1
1.7	2015_Jul_28_1515	s	s	14	2	SIC	162	RC	1	1	23MO	0	1	2.10075616837	-427.0	407.0	None	None	0
1.7	2015_Jul_28_1515	s	s	14	2	SIC	163	ABS	1	1	24MO	0	1	2.88312697411	None	None	None	None	1
1.7	2015_Jul_28_1515	s	s	14	2	SIC	164	ABS	0	2	24RD	0	1	0.882327795029	None	None	None	None	1
1.7	2015_Jul_28_1515	s	s	14	2	SIC	165	RC	0	2	23RD	1	0	0.476964950562	-112.0	177.0	-107	170	1
1.7	2015_Jul_28_1515	s	s	14	2	SIC	166	RC	2	0	23VC	1	0	0.454708814621	350.0	271.0	351	267	1
1.7	2015_Jul_28_1515	s	s	14	2	SIC	167	RC	1	0	23MC	1	0	0.807835817337	-468.0	122.0	-470	123	1
1.7	2015_Jul_28_1515	s	s	14	2	SIC	168	RC	0	1	23RO	0	1	3.58541083336	65.0	-99.0	None	None	0
1.7	2015_Jul_28_1515	s	s	14	2	SIC	169	ABS	2	1	24VO	0	1	0.576122999191	None	None	None	None	1
1.7	2015_Jul_28_1515	s	s	14	2	SIC	170	ABS	2	2	24VD	0	1	0.607938051224	None	None	None	None	1
1.7	2015_Jul_28_1515	s	s	14	2	SIC	171	RC	1	2	23MD	1	0	0.717816829681	-296.0	132.0	-288	132	1
1.7	2015_Jul_28_1515	s	s	14	2	SIC	172	RC	2	1	23VO	1	0	0.478472948074	-87.0	-381.0	-87	-374	1
1.7	2015_Jul_28_1515	s	s	14	2	SIC	173	ABS	1	2	24MD	0	1	0.843396902084	None	None	None	None	1
1.7	2015_Jul_28_1515	s	s	14	2	SIC	174	ABS	1	0	24MC	0	1	3.73055505753	None	None	None	None	1
1.7	2015_Jul_28_1515	s	s	14	2	SIC	175	ABS	2	0	24VC	0	1	0.608855009079	None	None	None	None	1
1.7	2015_Jul_28_1515	s	s	14	2	SIC	176	RC	2	2	23VD	1	0	0.423192977905	-367.0	-60.0	-365	-55	1
1.7	2015_Jul_28_1515	s	s	14	2	SIC	177	RC	1	2	23MD	1	0	0.470187902451	-373.0	253.0	-370	251	1
1.7	2015_Jul_28_1515	s	s	14	2	SIC	178	ABS	0	1	24RO	0	1	3.13401508331	None	None	None	None	1
1.7	2015_Jul_28_1515	s	s	14	2	SIC	179	RC	0	1	23RO	1	0	1.72542786598	96.0	-312.0	101	-311	1
1.7	2015_Jul_28_1515	s	s	14	2	SIC	180	ABS	1	2	24MD	0	1	1.00953102112	None	None	None	None	1
1.7	2015_Jul_28_1515	s	s	14	2	SIC	181	ABS	2	0	24VC	0	1	0.535802125931	None	None	None	None	1
1.7	2015_Jul_28_1515	s	s	14	2	SIC	182	RC	2	2	23VD	1	0	0.470164060593	276.0	-248.0	292	-240	1
1.7	2015_Jul_28_1515	s	s	14	2	SIC	183	ABS	1	1	24MO	0	1	3.76149201393	None	None	None	None	1
1.7	2015_Jul_28_1515	s	s	14	2	SIC	184	ABS	2	1	24VO	0	1	0.512361049652	None	None	None	None	1
1.7	2015_Jul_28_1515	s	s	14	2	SIC	185	RC	2	1	23VO	1	0	0.526437997818	218.0	-171.0	224	-171	1
1.7	2015_Jul_28_1515	s	s	14	2	SIC	186	ABS	0	2	24RD	0	1	0.811547040939	None	None	None	None	1
1.7	2015_Jul_28_1515	s	s	14	2	SIC	187	RC	1	1	23MO	1	0	0.702683925629	245.0	-355.0	248	-355	1
1.7	2015_Jul_28_1515	s	s	14	2	SIC	188	RC	1	0	23MC	1	0	0.784296035767	186.0	-138.0	188	-141	1
1.7	2015_Jul_28_1515	s	s	14	2	SIC	189	ABS	2	2	24VD	0	1	0.523930072784	None	None	None	None	1
1.7	2015_Jul_28_1515	s	s	14	2	SIC	190	ABS	1	0	24MC	0	1	2.99630999565	None	None	None	None	1
1.7	2015_Jul_28_1515	s	s	14	2	SIC	191	RC	2	0	23VC	1	0	0.453235864639	-176.0	-227.0	-166	-219	1
1.7	2015_Jul_28_1515	s	s	14	2	SIC	192	RC	0	2	23RD	1	0	0.529439926147	101.0	-327.0	112	-321	1
1.7	2015_Jul_28_1515	s	s	14	2	SIC	193	RC	0	2	23RD	1	0	0.640689134598	484.0	-195.0	482	-192	1
1.7	2015_Jul_28_1515	s	s	14	2	SIC	194	RC	1	2	23MD	1	0	0.631790876389	492.0	126.0	496	123	1
1.7	2015_Jul_28_1515	s	s	14	2	SIC	195	RC	1	1	23MO	1	0	2.91844296455	-431.0	348.0	-424	352	1
1.7	2015_Jul_28_1515	s	s	14	2	SIC	196	ABS	2	0	24VC	0	1	0.676938056946	None	None	None	None	1
1.7	2015_Jul_28_1515	s	s	14	2	SIC	197	RC	0	1	23RO	0	1	3.00088405609	-203.0	-341.0	None	None	0
1.7	2015_Jul_28_1515	s	s	14	2	SIC	198	ABS	1	2	24MD	0	1	0.811539888382	None	None	None	None	1
1.7	2015_Jul_28_1515	s	s	14	2	SIC	199	ABS	0	2	24RD	0	1	0.750141143799	None	None	None	None	1
1.7	2015_Jul_28_1515	s	s	14	2	SIC	200	ABS	2	2	24VD	1	0	0.655473232269	None	None	14	72	0
1.7	2015_Jul_28_1515	s	s	14	2	SIC	201	RC	2	1	23VO	1	0	0.712282896042	-532.0	-166.0	-526	-173	1
1.7	2015_Jul_28_1515	s	s	14	2	SIC	202	ABS	1	1	24MO	0	1	1.85647797585	None	None	None	None	1
1.7	2015_Jul_28_1515	s	s	14	2	SIC	203	RC	2	0	23VC	1	0	0.481975078583	66.0	219.0	77	222	1
1.7	2015_Jul_28_1515	s	s	14	2	SIC	204	ABS	0	1	24RO	0	1	3.61037492752	None	None	None	None	1
1.7	2015_Jul_28_1515	s	s	14	2	SIC	205	RC	2	2	23VD	1	0	0.45610499382	37.0	179.0	41	176	1
1.7	2015_Jul_28_1515	s	s	14	2	SIC	206	ABS	2	1	24VO	0	1	0.634979963303	None	None	None	None	1
1.7	2015_Jul_28_1515	s	s	14	2	SIC	207	ABS	1	0	24MC	0	1	3.61926698685	None	None	None	None	1
1.7	2015_Jul_28_1515	s	s	14	2	SIC	208	RC	1	0	23MC	1	0	0.87646985054	188.0	-368.0	192	-370	1
1.7	2015_Jul_28_1515	s	s	14	2	SIC	209	ABS	0	2	24RD	0	1	1.68256616592	None	None	None	None	1
1.7	2015_Jul_28_1515	s	s	14	2	SIC	210	ABS	1	2	24MD	0	1	1.60710597038	None	None	None	None	1
1.7	2015_Jul_28_1515	s	s	14	2	SIC	211	RC	1	2	23MD	1	0	0.514183998108	-431.0	71.0	-433	67	1
1.7	2015_Jul_28_1515	s	s	14	2	SIC	212	RC	1	0	23MC	1	0	1.17408680916	-131.0	44.0	-129	43	1
1.7	2015_Jul_28_1515	s	s	14	2	SIC	213	RC	2	0	23VC	1	0	0.458369970322	-188.0	222.0	-183	227	1
1.7	2015_Jul_28_1515	s	s	14	2	SIC	214	RC	1	1	23MO	1	0	2.21806788445	-418.0	-42.0	-417	-43	1
1.7	2015_Jul_28_1515	s	s	14	2	SIC	215	RC	0	1	23RO	0	1	3.53829598427	-329.0	173.0	None	None	0
1.7	2015_Jul_28_1515	s	s	14	2	SIC	216	RC	0	2	23RD	1	0	0.818269014359	-429.0	372.0	-426	379	1
1.7	2015_Jul_28_1515	s	s	14	2	SIC	217	ABS	2	2	24VD	0	1	0.935972929001	None	None	None	None	1
1.7	2015_Jul_28_1515	s	s	14	2	SIC	218	ABS	2	0	24VC	0	1	1.22762608528	None	None	None	None	1
1.7	2015_Jul_28_1515	s	s	14	2	SIC	219	ABS	1	0	24MC	0	1	2.48037600517	None	None	None	None	1
1.7	2015_Jul_28_1515	s	s	14	2	SIC	220	RC	2	2	23VD	1	0	0.535632133484	-284.0	307.0	-282	301	1
1.7	2015_Jul_28_1515	s	s	14	2	SIC	221	ABS	0	1	24RO	0	1	3.2362010479	None	None	None	None	1
1.7	2015_Jul_28_1515	s	s	14	2	SIC	222	ABS	1	1	24MO	0	1	2.00688004494	None	None	None	None	1
1.7	2015_Jul_28_1515	s	s	14	2	SIC	223	RC	2	1	23VO	1	0	0.700345039368	-232.0	98.0	-228	100	1
1.7	2015_Jul_28_1515	s	s	14	2	SIC	224	ABS	2	1	24VO	0	1	0.652770042419	None	None	None	None	1
1.7	2015_Jul_28_1515	s	s	14	2	SIC	225	RC	0	1	23RO	0	1	2.71268486977	495.0	175.0	None	None	0
1.7	2015_Jul_28_1515	s	s	14	2	SIC	226	ABS	1	2	24MD	0	1	0.73455786705	None	None	None	None	1
1.7	2015_Jul_28_1515	s	s	14	2	SIC	227	ABS	2	0	24VC	0	1	0.536008834839	None	None	None	None	1
1.7	2015_Jul_28_1515	s	s	14	2	SIC	228	RC	2	0	23VC	1	0	0.493657112122	-418.0	-347.0	-419	-353	1
1.7	2015_Jul_28_1515	s	s	14	2	SIC	229	ABS	0	1	24RO	0	1	3.63154983521	None	None	None	None	1
1.7	2015_Jul_28_1515	s	s	14	2	SIC	230	RC	1	1	23MO	1	0	0.758810997009	-49.0	23.0	-41	25	1
1.7	2015_Jul_28_1515	s	s	14	2	SIC	231	RC	0	2	23RD	1	0	1.27880597115	-308.0	-34.0	-306	-44	1
1.7	2015_Jul_28_1515	s	s	14	2	SIC	232	RC	1	2	23MD	1	0	0.476776123047	-455.0	-64.0	-453	-68	1
1.7	2015_Jul_28_1515	s	s	14	2	SIC	233	RC	1	0	23MC	0	1	2.76322603226	381.0	-389.0	None	None	0
1.7	2015_Jul_28_1515	s	s	14	2	SIC	234	RC	2	2	23VD	1	0	0.552623033524	26.0	370.0	17	368	1
1.7	2015_Jul_28_1515	s	s	14	2	SIC	235	ABS	0	2	24RD	0	1	1.11752605438	None	None	None	None	1
1.7	2015_Jul_28_1515	s	s	14	2	SIC	236	ABS	2	2	24VD	0	1	0.71395111084	None	None	None	None	1
1.7	2015_Jul_28_1515	s	s	14	2	SIC	237	ABS	1	0	24MC	0	1	3.59881520271	None	None	None	None	1
1.7	2015_Jul_28_1515	s	s	14	2	SIC	238	RC	2	1	23VO	1	0	0.441657066345	-133.0	167.0	-130	166	1
1.7	2015_Jul_28_1515	s	s	14	2	SIC	239	ABS	1	1	24MO	0	1	2.82139992714	None	None	None	None	1
1.7	2015_Jul_28_1515	s	s	14	2	SIC	240	ABS	2	1	24VO	0	1	0.72914981842	None	None	None	None	1
1.7	2015_Jul_28_1515	s	s	14	2	SIC	241	RC	2	0	23VC	1	0	0.626989841461	-530.0	-341.0	-530	-345	1
1.7	2015_Jul_28_1515	s	s	14	2	SIC	242	ABS	1	1	24MO	0	1	1.95338702202	None	None	None	None	1
1.7	2015_Jul_28_1515	s	s	14	2	SIC	243	RC	0	2	23RD	1	0	0.599585056305	278.0	-322.0	268	-324	1
1.7	2015_Jul_28_1515	s	s	14	2	SIC	244	ABS	1	2	24MD	0	1	0.712234020233	None	None	None	None	1
1.7	2015_Jul_28_1515	s	s	14	2	SIC	245	ABS	2	0	24VC	0	1	0.630541086197	None	None	None	None	1
1.7	2015_Jul_28_1515	s	s	14	2	SIC	246	RC	1	2	23MD	1	0	0.43115401268	-87.0	-42.0	-88	-46	1
1.7	2015_Jul_28_1515	s	s	14	2	SIC	247	RC	0	1	23RO	0	1	2.49478316307	-134.0	-136.0	None	None	0
1.7	2015_Jul_28_1515	s	s	14	2	SIC	248	ABS	1	0	24MC	0	1	1.98863887787	None	None	None	None	1
1.7	2015_Jul_28_1515	s	s	14	2	SIC	249	RC	2	2	23VD	1	0	0.623122930527	-114.0	225.0	-106	227	1
1.7	2015_Jul_28_1515	s	s	14	2	SIC	250	ABS	2	1	24VO	0	1	0.611243009567	None	None	None	None	1
1.7	2015_Jul_28_1515	s	s	14	2	SIC	251	RC	2	1	23VO	1	0	0.430090904236	170.0	53.0	169	51	1
1.7	2015_Jul_28_1515	s	s	14	2	SIC	252	ABS	0	1	24RO	0	1	3.44812011719	None	None	None	None	1
1.7	2015_Jul_28_1515	s	s	14	2	SIC	253	ABS	0	2	24RD	0	1	0.599870920181	None	None	None	None	1
1.7	2015_Jul_28_1515	s	s	14	2	SIC	254	RC	1	0	23MC	1	0	0.823320865631	195.0	-93.0	192	-89	1
1.7	2015_Jul_28_1515	s	s	14	2	SIC	255	ABS	2	2	24VD	0	1	0.520932912827	None	None	None	None	1
1.7	2015_Jul_28_1515	s	s	14	2	SIC	256	RC	1	1	23MO	1	0	2.4545519352	-196.0	346.0	-203	347	1
1.7	2015_Jul_28_1515	s	s	14	2	SIC	257	ABS	2	2	24VD	0	1	0.691083908081	None	None	None	None	1
1.7	2015_Jul_28_1515	s	s	14	2	SIC	258	ABS	1	0	24MC	0	1	3.99824500084	None	None	None	None	1
1.7	2015_Jul_28_1515	s	s	14	2	SIC	259	ABS	2	0	24VC	0	1	0.699936151505	None	None	None	None	1
1.7	2015_Jul_28_1515	s	s	14	2	SIC	260	RC	1	2	23MD	1	0	0.593631982803	-490.0	123.0	-484	128	1
1.7	2015_Jul_28_1515	s	s	14	2	SIC	261	ABS	0	1	24RO	0	1	3.73051309586	None	None	None	None	1
1.7	2015_Jul_28_1515	s	s	14	2	SIC	262	ABS	2	1	24VO	0	1	0.500496149063	None	None	None	None	1
1.7	2015_Jul_28_1515	s	s	14	2	SIC	263	ABS	1	1	24MO	0	1	2.72491502762	None	None	None	None	1
1.7	2015_Jul_28_1515	s	s	14	2	SIC	264	RC	2	1	23VO	1	0	0.560712099075	441.0	228.0	448	229	1
1.7	2015_Jul_28_1515	s	s	14	2	SIC	265	ABS	1	2	24MD	0	1	0.95055603981	None	None	None	None	1
1.7	2015_Jul_28_1515	s	s	14	2	SIC	266	RC	2	2	23VD	1	0	0.502912044525	113.0	-348.0	105	-351	1
1.7	2015_Jul_28_1515	s	s	14	2	SIC	267	RC	1	0	23MC	1	0	1.73858690262	-508.0	367.0	-511	367	1
1.7	2015_Jul_28_1515	s	s	14	2	SIC	268	RC	0	1	23RO	1	0	1.1057639122	-129.0	-22.0	-123	-20	1
1.7	2015_Jul_28_1515	s	s	14	2	SIC	269	RC	2	0	23VC	1	0	0.588346004486	406.0	30.0	409	33	1
1.7	2015_Jul_28_1515	s	s	14	2	SIC	270	ABS	0	2	24RD	0	1	0.952848911285	None	None	None	None	1
1.7	2015_Jul_28_1515	s	s	14	2	SIC	271	RC	0	2	23RD	1	0	0.570677042007	35.0	-2.0	34	-1	1
1.7	2015_Jul_28_1515	s	s	14	2	SIC	272	RC	1	1	23MO	1	0	0.843569040298	-292.0	229.0	-291	225	1
1.7	2015_Jul_28_1515	s	s	14	2	SIC	273	RC	2	0	23VC	1	0	0.441964864731	-89.0	-277.0	-98	-277	1
1.7	2015_Jul_28_1515	s	s	14	2	SIC	274	RC	0	2	23RD	1	0	0.525450944901	-463.0	-278.0	-463	-279	1
1.7	2015_Jul_28_1515	s	s	14	2	SIC	275	ABS	2	0	24VC	0	1	0.599644184113	None	None	None	None	1
1.7	2015_Jul_28_1515	s	s	14	2	SIC	276	ABS	1	0	24MC	0	1	1.61191892624	None	None	None	None	1
1.7	2015_Jul_28_1515	s	s	14	2	SIC	277	ABS	0	2	24RD	1	0	0.947188138962	None	None	31	118	0
1.7	2015_Jul_28_1515	s	s	14	2	SIC	278	RC	0	1	23RO	1	0	2.27738785744	95.0	-219.0	96	-219	1
1.7	2015_Jul_28_1515	s	s	14	2	SIC	279	ABS	1	1	24MO	0	1	1.92977905273	None	None	None	None	1
1.7	2015_Jul_28_1515	s	s	14	2	SIC	280	RC	1	2	23MD	1	0	0.564392089844	-269.0	355.0	-269	344	1
1.7	2015_Jul_28_1515	s	s	14	2	SIC	281	ABS	1	2	24MD	0	1	1.22353601456	None	None	None	None	1
1.7	2015_Jul_28_1515	s	s	14	2	SIC	282	RC	2	1	23VO	1	0	0.482385158539	136.0	-301.0	137	-295	1
1.7	2015_Jul_28_1515	s	s	14	2	SIC	283	ABS	2	1	24VO	0	1	0.478781938553	None	None	None	None	1
1.7	2015_Jul_28_1515	s	s	14	2	SIC	284	RC	1	1	23MO	1	0	0.682131052017	239.0	-200.0	235	-206	1
1.7	2015_Jul_28_1515	s	s	14	2	SIC	285	ABS	0	1	24RO	0	1	2.60989809036	None	None	None	None	1
1.7	2015_Jul_28_1515	s	s	14	2	SIC	286	RC	2	2	23VD	1	0	0.55256819725	454.0	-298.0	447	-297	1
1.7	2015_Jul_28_1515	s	s	14	2	SIC	287	RC	1	0	23MC	1	0	0.809010982513	273.0	-155.0	272	-157	1
1.7	2015_Jul_28_1515	s	s	14	2	SIC	288	ABS	2	2	24VD	0	1	0.570400953293	None	None	None	None	1
1.7	2015_Jul_28_1515	s	s	14	2	SIC	289	ABS	0	1	24RO	0	1	2.44400501251	None	None	None	None	1
1.7	2015_Jul_28_1515	s	s	14	2	SIC	290	ABS	1	2	24MD	0	1	0.593541145325	None	None	None	None	1
1.7	2015_Jul_28_1515	s	s	14	2	SIC	291	ABS	1	0	24MC	0	1	1.42346000671	None	None	None	None	1
1.7	2015_Jul_28_1515	s	s	14	2	SIC	292	RC	2	1	23VO	1	0	0.667654037476	-230.0	-382.0	-226	-381	1
1.7	2015_Jul_28_1515	s	s	14	2	SIC	293	RC	1	2	23MD	1	0	0.618215084076	312.0	209.0	316	218	1
1.7	2015_Jul_28_1515	s	s	14	2	SIC	294	RC	2	2	23VD	1	0	0.465865135193	-460.0	-180.0	-463	-176	1
1.7	2015_Jul_28_1515	s	s	14	2	SIC	295	RC	0	2	23RD	1	0	0.606683969498	403.0	-327.0	410	-330	1
1.7	2015_Jul_28_1515	s	s	14	2	SIC	296	ABS	2	0	24VC	0	1	0.575997829437	None	None	None	None	1
1.7	2015_Jul_28_1515	s	s	14	2	SIC	297	RC	1	0	23MC	0	1	1.89189291	2.0	-391.0	None	None	0
1.7	2015_Jul_28_1515	s	s	14	2	SIC	298	ABS	0	2	24RD	0	1	0.879451036453	None	None	None	None	1
1.7	2015_Jul_28_1515	s	s	14	2	SIC	299	RC	0	1	23RO	1	0	2.21973085403	-513.0	199.0	-514	198	1
1.7	2015_Jul_28_1515	s	s	14	2	SIC	300	ABS	2	1	24VO	0	1	0.493761777878	None	None	None	None	1
1.7	2015_Jul_28_1515	s	s	14	2	SIC	301	RC	1	1	23MO	1	0	1.99527716637	213.0	269.0	216	271	1
1.7	2015_Jul_28_1515	s	s	14	2	SIC	302	RC	2	0	23VC	1	0	0.514062166214	-50.0	-227.0	-49	-226	1
1.7	2015_Jul_28_1515	s	s	14	2	SIC	303	ABS	2	2	24VD	0	1	0.611297130585	None	None	None	None	1
1.7	2015_Jul_28_1515	s	s	14	2	SIC	304	ABS	1	1	24MO	0	1	3.99656105042	None	None	None	None	1
1.7	2015_Jul_28_1515	s	s	14	2	SIC	305	RC	1	2	23MD	1	0	0.576007127762	372.0	-37.0	384	-34	1
1.7	2015_Jul_28_1515	s	s	14	2	SIC	306	ABS	2	2	24VD	0	1	0.511672973633	None	None	None	None	1
1.7	2015_Jul_28_1515	s	s	14	2	SIC	307	ABS	2	1	24VO	0	1	0.726526975632	None	None	None	None	1
1.7	2015_Jul_28_1515	s	s	14	2	SIC	308	ABS	1	2	24MD	0	1	1.40005207062	None	None	None	None	1
1.7	2015_Jul_28_1515	s	s	14	2	SIC	309	ABS	0	2	24RD	0	1	1.14713597298	None	None	None	None	1
1.7	2015_Jul_28_1515	s	s	14	2	SIC	310	RC	0	2	23RD	1	0	1.67081618309	206.0	-360.0	207	-363	1
1.7	2015_Jul_28_1515	s	s	14	2	SIC	311	RC	0	1	23RO	1	0	0.823323011398	158.0	-213.0	153	-217	1
1.7	2015_Jul_28_1515	s	s	14	2	SIC	312	RC	1	1	23MO	1	0	3.10082507133	-371.0	-75.0	-375	-78	1
1.7	2015_Jul_28_1515	s	s	14	2	SIC	313	ABS	1	0	24MC	0	1	2.72512507439	None	None	None	None	1
1.7	2015_Jul_28_1515	s	s	14	2	SIC	314	ABS	1	1	24MO	0	1	3.12585997581	None	None	None	None	1
1.7	2015_Jul_28_1515	s	s	14	2	SIC	315	ABS	0	1	24RO	0	1	2.85384607315	None	None	None	None	1
1.7	2015_Jul_28_1515	s	s	14	2	SIC	316	RC	2	2	23VD	1	0	0.446677207947	108.0	-232.0	99	-235	1
1.7	2015_Jul_28_1515	s	s	14	2	SIC	317	RC	2	0	23VC	1	0	0.528836965561	-494.0	-67.0	-495	-66	1
1.7	2015_Jul_28_1515	s	s	14	2	SIC	318	RC	2	1	23VO	1	0	0.464529037476	227.0	181.0	216	185	1
1.7	2015_Jul_28_1515	s	s	14	2	SIC	319	RC	1	0	23MC	1	0	0.72895693779	-527.0	42.0	-520	40	1
1.7	2015_Jul_28_1515	s	s	14	2	SIC	320	ABS	2	0	24VC	0	1	0.747459173203	None	None	None	None	1
1.7	2015_Jul_28_1515	s	s	14	2	SIC	321	RC	0	2	23RD	1	0	0.552591085434	-407.0	322.0	-401	328	1
1.7	2015_Jul_28_1515	s	s	14	2	SIC	322	ABS	2	0	24VC	0	1	0.558833122253	None	None	None	None	1
1.7	2015_Jul_28_1515	s	s	14	2	SIC	323	ABS	0	1	24RO	0	1	4.33809089661	None	None	None	None	1
1.7	2015_Jul_28_1515	s	s	14	2	SIC	324	ABS	0	2	24RD	0	1	0.729490995407	None	None	None	None	1
1.7	2015_Jul_28_1515	s	s	14	2	SIC	325	ABS	1	0	24MC	0	1	2.42182302475	None	None	None	None	1
1.7	2015_Jul_28_1515	s	s	14	2	SIC	326	ABS	2	2	24VD	0	1	0.595711946487	None	None	None	None	1
1.7	2015_Jul_28_1515	s	s	14	2	SIC	327	RC	1	2	23MD	1	0	0.658572912216	382.0	172.0	372	171	1
1.7	2015_Jul_28_1515	s	s	14	2	SIC	328	RC	1	0	23MC	1	0	1.83561396599	468.0	287.0	474	291	1
1.7	2015_Jul_28_1515	s	s	14	2	SIC	329	RC	2	0	23VC	1	0	0.490857124329	73.0	-96.0	84	-96	1
1.7	2015_Jul_28_1515	s	s	14	2	SIC	330	RC	2	1	23VO	1	0	0.638544082642	-485.0	213.0	-473	215	1
1.7	2015_Jul_28_1515	s	s	14	2	SIC	331	RC	1	1	23MO	1	0	0.571360111237	29.0	57.0	26	64	1
1.7	2015_Jul_28_1515	s	s	14	2	SIC	332	ABS	1	2	24MD	0	1	0.654561042786	None	None	None	None	1
1.7	2015_Jul_28_1515	s	s	14	2	SIC	333	RC	2	2	23VD	1	0	0.466774940491	-35.0	-336.0	-31	-334	1
1.7	2015_Jul_28_1515	s	s	14	2	SIC	334	ABS	2	1	24VO	0	1	0.570493936539	None	None	None	None	1
1.7	2015_Jul_28_1515	s	s	14	2	SIC	335	ABS	1	1	24MO	0	1	2.31800103188	None	None	None	None	1
1.7	2015_Jul_28_1515	s	s	14	2	SIC	336	RC	0	1	23RO	1	0	0.877336978912	-62.0	-106.0	-54	-100	1
1.7	2015_Jul_28_1515	s	s	14	2	SIC	337	ABS	0	2	24RD	0	1	0.72416806221	None	None	None	None	1
1.7	2015_Jul_28_1515	s	s	14	2	SIC	338	RC	2	2	23VD	1	0	0.487334012985	478.0	411.0	484	415	1
1.7	2015_Jul_28_1515	s	s	14	2	SIC	339	ABS	2	0	24VC	0	1	0.623637914658	None	None	None	None	1
1.7	2015_Jul_28_1515	s	s	14	2	SIC	340	ABS	2	2	24VD	0	1	1.32137608528	None	None	None	None	1
1.7	2015_Jul_28_1515	s	s	14	2	SIC	341	ABS	1	0	24MC	0	1	3.03064012527	None	None	None	None	1
1.7	2015_Jul_28_1515	s	s	14	2	SIC	342	ABS	0	1	24RO	0	1	2.90710902214	None	None	None	None	1
1.7	2015_Jul_28_1515	s	s	14	2	SIC	343	ABS	1	1	24MO	0	1	1.35681891441	None	None	None	None	1
1.7	2015_Jul_28_1515	s	s	14	2	SIC	344	RC	0	2	23RD	1	0	0.482102870941	207.0	-289.0	212	-285	1
1.7	2015_Jul_28_1515	s	s	14	2	SIC	345	ABS	2	1	24VO	0	1	0.5462038517	None	None	None	None	1
1.7	2015_Jul_28_1515	s	s	14	2	SIC	346	RC	2	0	23VC	1	0	0.479475021362	140.0	176.0	135	170	1
1.7	2015_Jul_28_1515	s	s	14	2	SIC	347	RC	2	1	23VO	1	0	0.538167953491	-169.0	155.0	-163	153	1
1.7	2015_Jul_28_1515	s	s	14	2	SIC	348	RC	0	1	23RO	0	1	2.22166013718	-420.0	-138.0	None	None	0
1.7	2015_Jul_28_1515	s	s	14	2	SIC	349	ABS	1	2	24MD	0	1	0.666224002838	None	None	None	None	1
1.7	2015_Jul_28_1515	s	s	14	2	SIC	350	RC	1	2	23MD	1	0	0.441272974014	-73.0	-61.0	-68	-60	1
1.7	2015_Jul_28_1515	s	s	14	2	SIC	351	RC	1	1	23MO	1	0	1.41784501076	451.0	381.0	453	379	1
1.7	2015_Jul_28_1515	s	s	14	2	SIC	352	RC	1	0	23MC	1	0	1.18821597099	-43.0	-128.0	-38	-127	1
1.7	2015_Jul_28_1515	s	s	14	2	SIC	353	ABS	2	2	24VD	0	1	0.538258075714	None	None	None	None	1
1.7	2015_Jul_28_1515	s	s	14	2	SIC	354	RC	2	0	23VC	1	0	0.505469083786	69.0	350.0	69	353	1
1.7	2015_Jul_28_1515	s	s	14	2	SIC	355	RC	1	0	23MC	1	0	2.44471502304	328.0	167.0	325	165	1
1.7	2015_Jul_28_1515	s	s	14	2	SIC	356	ABS	2	1	24VO	0	1	0.740902900696	None	None	None	None	1
1.7	2015_Jul_28_1515	s	s	14	2	SIC	357	RC	2	1	23VO	1	0	0.465502977371	-468.0	-134.0	-470	-132	1
1.7	2015_Jul_28_1515	s	s	14	2	SIC	358	ABS	0	1	24RO	0	1	2.73017692566	None	None	None	None	1
1.7	2015_Jul_28_1515	s	s	14	2	SIC	359	RC	2	2	23VD	1	0	0.429008960724	257.0	-246.0	255	-242	1
1.7	2015_Jul_28_1515	s	s	14	2	SIC	360	RC	0	1	23RO	1	0	1.41159701347	267.0	-187.0	266	-186	1
1.7	2015_Jul_28_1515	s	s	14	2	SIC	361	ABS	1	1	24MO	0	1	1.30148506165	None	None	None	None	1
1.7	2015_Jul_28_1515	s	s	14	2	SIC	362	ABS	1	0	24MC	0	1	2.76163220406	None	None	None	None	1
1.7	2015_Jul_28_1515	s	s	14	2	SIC	363	ABS	1	2	24MD	0	1	0.55922293663	None	None	None	None	1
1.7	2015_Jul_28_1515	s	s	14	2	SIC	364	RC	0	2	23RD	1	0	0.44297003746	-299.0	44.0	-310	47	1
1.7	2015_Jul_28_1515	s	s	14	2	SIC	365	RC	1	2	23MD	1	0	0.490395069122	-137.0	-201.0	-138	-197	1
1.7	2015_Jul_28_1515	s	s	14	2	SIC	366	ABS	0	2	24RD	0	1	0.984566926956	None	None	None	None	1
1.7	2015_Jul_28_1515	s	s	14	2	SIC	367	ABS	2	0	24VC	0	1	0.517282962799	None	None	None	None	1
1.7	2015_Jul_28_1515	s	s	14	2	SIC	368	RC	1	1	23MO	1	0	1.35945987701	118.0	401.0	121	391	1
1.7	2015_Jul_28_1515	s	s	14	2	SIC	369	RC	2	0	23VC	1	0	0.502988100052	-60.0	305.0	-52	306	1
1.7	2015_Jul_28_1515	s	s	14	2	SIC	370	RC	2	2	23VD	1	0	0.465309858322	-166.0	-101.0	-173	-105	1
1.7	2015_Jul_28_1515	s	s	14	2	SIC	371	ABS	0	2	24RD	0	1	1.074229002	None	None	None	None	1
1.7	2015_Jul_28_1515	s	s	14	2	SIC	372	ABS	2	1	24VO	0	1	0.481930971146	None	None	None	None	1
1.7	2015_Jul_28_1515	s	s	14	2	SIC	373	ABS	1	0	24MC	0	1	2.87810707092	None	None	None	None	1
1.7	2015_Jul_28_1515	s	s	14	2	SIC	374	RC	0	1	23RO	1	0	0.90265917778	80.0	202.0	87	209	1
1.7	2015_Jul_28_1515	s	s	14	2	SIC	375	RC	0	2	23RD	1	0	0.737977027893	-476.0	100.0	-471	95	1
1.7	2015_Jul_28_1515	s	s	14	2	SIC	376	ABS	1	1	24MO	0	1	2.12420105934	None	None	None	None	1
1.7	2015_Jul_28_1515	s	s	14	2	SIC	377	ABS	0	1	24RO	0	1	2.43056511879	None	None	None	None	1
1.7	2015_Jul_28_1515	s	s	14	2	SIC	378	ABS	1	2	24MD	0	1	0.835057973862	None	None	None	None	1
1.7	2015_Jul_28_1515	s	s	14	2	SIC	379	RC	1	0	23MC	1	0	1.48986697197	-419.0	310.0	-419	311	1
1.7	2015_Jul_28_1515	s	s	14	2	SIC	380	RC	1	2	23MD	1	0	0.505458116531	117.0	301.0	124	306	1
1.7	2015_Jul_28_1515	s	s	14	2	SIC	381	RC	1	1	23MO	1	0	0.86474108696	-225.0	111.0	-217	110	1
1.7	2015_Jul_28_1515	s	s	14	2	SIC	382	ABS	2	0	24VC	0	1	0.56417798996	None	None	None	None	1
1.7	2015_Jul_28_1515	s	s	14	2	SIC	383	RC	2	1	23VO	1	0	0.635389089584	-139.0	-208.0	-134	-207	1
1.7	2015_Jul_28_1515	s	s	14	2	SIC	384	ABS	2	2	24VD	0	1	0.599690914154	None	None	None	None	1
1.7	2015_Jul_28_1515	s	s	14	2	SIC	385	ABS	2	2	24VD	0	1	0.481895923615	None	None	None	None	1
1.7	2015_Jul_28_1515	s	s	14	2	SIC	386	RC	0	2	23RD	1	0	0.532556056976	-148.0	376.0	-150	378	1
1.7	2015_Jul_28_1515	s	s	14	2	SIC	387	ABS	1	1	24MO	0	1	2.94198083878	None	None	None	None	1
1.7	2015_Jul_28_1515	s	s	14	2	SIC	388	RC	1	1	23MO	1	0	0.556282997131	204.0	93.0	199	93	1
1.7	2015_Jul_28_1515	s	s	14	2	SIC	389	ABS	0	2	24RD	0	1	0.693793773651	None	None	None	None	1
1.7	2015_Jul_28_1515	s	s	14	2	SIC	390	ABS	1	0	24MC	0	1	2.74932789803	None	None	None	None	1
1.7	2015_Jul_28_1515	s	s	14	2	SIC	391	RC	2	1	23VO	1	0	0.493767976761	-332.0	294.0	-331	293	1
1.7	2015_Jul_28_1515	s	s	14	2	SIC	392	ABS	0	1	24RO	0	1	3.68362617493	None	None	None	None	1
1.7	2015_Jul_28_1515	s	s	14	2	SIC	393	ABS	1	2	24MD	0	1	0.877392053604	None	None	None	None	1
1.7	2015_Jul_28_1515	s	s	14	2	SIC	394	RC	1	0	23MC	1	0	1.47446298599	-382.0	-404.0	-377	-409	1
1.7	2015_Jul_28_1515	s	s	14	2	SIC	395	RC	2	0	23VC	1	0	0.540763139725	434.0	30.0	446	32	1
1.7	2015_Jul_28_1515	s	s	14	2	SIC	396	RC	2	2	23VD	1	0	0.631296157837	502.0	79.0	506	80	1
1.7	2015_Jul_28_1515	s	s	14	2	SIC	397	ABS	2	0	24VC	0	1	0.68883395195	None	None	None	None	1
1.7	2015_Jul_28_1515	s	s	14	2	SIC	398	ABS	2	1	24VO	0	1	0.646689176559	None	None	None	None	1
1.7	2015_Jul_28_1515	s	s	14	2	SIC	399	RC	0	1	23RO	0	1	3.513712883	-119.0	103.0	None	None	0
1.7	2015_Jul_28_1515	s	s	14	2	SIC	400	RC	1	2	23MD	1	0	0.596379995346	161.0	378.0	162	375	1
1.7	2015_Jul_28_1515	s	s	14	2	SIC	401	RC	2	0	23VC	1	0	0.4819688797	360.0	-76.0	357	-77	1
1.7	2015_Jul_28_1515	s	s	14	2	SIC	402	ABS	1	1	24MO	0	1	2.74573302269	None	None	None	None	1
1.7	2015_Jul_28_1515	s	s	14	2	SIC	403	ABS	0	1	24RO	0	1	3.36571216583	None	None	None	None	1
1.7	2015_Jul_28_1515	s	s	14	2	SIC	404	RC	1	2	23MD	1	0	0.561441898346	24.0	367.0	35	372	1
1.7	2015_Jul_28_1515	s	s	14	2	SIC	405	RC	0	1	23RO	1	0	1.05635714531	448.0	-103.0	456	-98	1
1.7	2015_Jul_28_1515	s	s	14	2	SIC	406	ABS	1	2	24MD	0	1	0.737990140915	None	None	None	None	1
1.7	2015_Jul_28_1515	s	s	14	2	SIC	407	RC	2	1	23VO	1	0	0.42316198349	-223.0	-47.0	-228	-51	1
1.7	2015_Jul_28_1515	s	s	14	2	SIC	408	ABS	2	2	24VD	0	1	0.48194694519	None	None	None	None	1
1.7	2015_Jul_28_1515	s	s	14	2	SIC	409	ABS	0	2	24RD	0	1	1.11263608932	None	None	None	None	1
1.7	2015_Jul_28_1515	s	s	14	2	SIC	410	RC	0	2	23RD	1	0	0.453508138657	16.0	85.0	13	84	1
1.7	2015_Jul_28_1515	s	s	14	2	SIC	411	RC	1	0	23MC	1	0	1.69434785843	84.0	-223.0	91	-216	1
1.7	2015_Jul_28_1515	s	s	14	2	SIC	412	ABS	2	1	24VO	0	1	0.48855304718	None	None	None	None	1
1.7	2015_Jul_28_1515	s	s	14	2	SIC	413	RC	1	1	23MO	1	0	0.811634063721	-7.0	410.0	1	406	1
1.7	2015_Jul_28_1515	s	s	14	2	SIC	414	ABS	1	0	24MC	0	1	2.50348997116	None	None	None	None	1
1.7	2015_Jul_28_1515	s	s	14	2	SIC	415	ABS	2	0	24VC	0	1	1.05875682831	None	None	None	None	1
1.7	2015_Jul_28_1515	s	s	14	2	SIC	416	RC	2	2	23VD	1	0	0.458280086517	365.0	-169.0	360	-180	1
1.7	2015_Jul_28_1515	s	s	14	2	SIC	417	ABS	2	0	24VC	0	1	0.564337015152	None	None	None	None	1
1.7	2015_Jul_28_1515	s	s	14	2	SIC	418	ABS	1	0	24MC	0	1	3.34796094894	None	None	None	None	1
1.7	2015_Jul_28_1515	s	s	14	2	SIC	419	ABS	1	2	24MD	0	1	0.570895910263	None	None	None	None	1
1.7	2015_Jul_28_1515	s	s	14	2	SIC	420	RC	2	0	23VC	1	0	0.478413105011	-62.0	160.0	-66	163	1
1.7	2015_Jul_28_1515	s	s	14	2	SIC	421	RC	1	2	23MD	1	0	0.714754104614	-151.0	-150.0	-158	-155	1
1.7	2015_Jul_28_1515	s	s	14	2	SIC	422	ABS	0	1	24RO	0	1	3.11858701706	None	None	None	None	1
1.7	2015_Jul_28_1515	s	s	14	2	SIC	423	RC	1	0	23MC	1	0	1.65535902977	-210.0	327.0	-207	324	1
1.7	2015_Jul_28_1515	s	s	14	2	SIC	424	RC	1	1	23MO	0	1	1.92484116554	362.0	-354.0	None	None	0
1.7	2015_Jul_28_1515	s	s	14	2	SIC	425	ABS	0	2	24RD	0	1	0.879759788513	None	None	None	None	1
1.7	2015_Jul_28_1515	s	s	14	2	SIC	426	ABS	2	2	24VD	0	1	0.49115896225	None	None	None	None	1
1.7	2015_Jul_28_1515	s	s	14	2	SIC	427	ABS	1	1	24MO	0	1	1.83556604385	None	None	None	None	1
1.7	2015_Jul_28_1515	s	s	14	2	SIC	428	RC	2	1	23VO	1	0	0.505448102951	-223.0	-301.0	-222	-305	1
1.7	2015_Jul_28_1515	s	s	14	2	SIC	429	RC	2	2	23VD	1	0	0.517665147781	158.0	-351.0	165	-347	1
1.7	2015_Jul_28_1515	s	s	14	2	SIC	430	ABS	2	1	24VO	0	1	0.549962997437	None	None	None	None	1
1.7	2015_Jul_28_1515	s	s	14	2	SIC	431	RC	0	2	23RD	1	0	0.549875974655	445.0	342.0	449	346	1
1.7	2015_Jul_28_1515	s	s	14	2	SIC	432	RC	0	1	23RO	0	1	2.63316607475	-400.0	184.0	None	None	0
1.7	2015_Jul_28_1515	s	s	14	2	SIC	433	ABS	0	1	24RO	0	1	2.48860192299	None	None	None	None	1
1.7	2015_Jul_28_1515	s	s	14	2	SIC	434	ABS	0	2	24RD	0	1	1.5531539917	None	None	None	None	1
1.7	2015_Jul_28_1515	s	s	14	2	SIC	435	RC	2	2	23VD	1	0	0.493701934814	372.0	350.0	376	359	1
1.7	2015_Jul_28_1515	s	s	14	2	SIC	436	RC	0	2	23RD	1	0	0.534274101257	-46.0	-92.0	-46	-91	1
1.7	2015_Jul_28_1515	s	s	14	2	SIC	437	ABS	2	2	24VD	0	1	0.805927991867	None	None	None	None	1
1.7	2015_Jul_28_1515	s	s	14	2	SIC	438	RC	2	1	23VO	1	0	0.632184028625	-421.0	169.0	-420	173	1
1.7	2015_Jul_28_1515	s	s	14	2	SIC	439	RC	1	0	23MC	1	0	0.962028026581	395.0	-309.0	401	-306	1
1.7	2015_Jul_28_1515	s	s	14	2	SIC	440	ABS	1	0	24MC	0	1	1.41184091568	None	None	None	None	1
1.7	2015_Jul_28_1515	s	s	14	2	SIC	441	RC	1	1	23MO	1	0	1.30094408989	130.0	-116.0	136	-119	1
1.7	2015_Jul_28_1515	s	s	14	2	SIC	442	RC	2	0	23VC	1	0	0.489921092987	448.0	-291.0	454	-292	1
1.7	2015_Jul_28_1515	s	s	14	2	SIC	443	ABS	1	2	24MD	0	1	0.735197067261	None	None	None	None	1
1.7	2015_Jul_28_1515	s	s	14	2	SIC	444	ABS	2	0	24VC	0	1	0.573625087738	None	None	None	None	1
1.7	2015_Jul_28_1515	s	s	14	2	SIC	445	RC	1	2	23MD	1	0	0.442224979401	193.0	69.0	197	74	1
1.7	2015_Jul_28_1515	s	s	14	2	SIC	446	RC	0	1	23RO	1	0	1.15944194794	-97.0	-257.0	-96	-256	1
1.7	2015_Jul_28_1515	s	s	14	2	SIC	447	ABS	2	1	24VO	0	1	0.4794921875	None	None	None	None	1
1.7	2015_Jul_28_1515	s	s	14	2	SIC	448	ABS	1	1	24MO	0	1	2.18373298645	None	None	None	None	1
1.7	2015_Jul_28_1515	s	s	14	2	SIC	449	ABS	2	1	24VO	0	1	0.595911979675	None	None	None	None	1
1.7	2015_Jul_28_1515	s	s	14	2	SIC	450	RC	0	1	23RO	1	0	0.926519155502	523.0	-68.0	521	-63	1
1.7	2015_Jul_28_1515	s	s	14	2	SIC	451	RC	2	2	23VD	1	0	0.478095054626	-530.0	-408.0	-540	-410	1
1.7	2015_Jul_28_1515	s	s	14	2	SIC	452	ABS	0	1	24RO	0	1	3.25337409973	None	None	None	None	1
1.7	2015_Jul_28_1515	s	s	14	2	SIC	453	ABS	1	1	24MO	0	1	3.34224820137	None	None	None	None	1
1.7	2015_Jul_28_1515	s	s	14	2	SIC	454	ABS	0	2	24RD	0	1	0.688760995865	None	None	None	None	1
1.7	2015_Jul_28_1515	s	s	14	2	SIC	455	ABS	2	2	24VD	0	1	0.588314056396	None	None	None	None	1
1.7	2015_Jul_28_1515	s	s	14	2	SIC	456	RC	1	0	23MC	1	0	2.24260497093	-512.0	-340.0	-514	-338	1
1.7	2015_Jul_28_1515	s	s	14	2	SIC	457	RC	1	2	23MD	1	0	0.55259013176	-241.0	-146.0	-246	-151	1
1.7	2015_Jul_28_1515	s	s	14	2	SIC	458	ABS	1	2	24MD	0	1	0.59965801239	None	None	None	None	1
1.7	2015_Jul_28_1515	s	s	14	2	SIC	459	RC	2	1	23VO	1	0	0.499040126801	339.0	-85.0	346	-79	1
1.7	2015_Jul_28_1515	s	s	14	2	SIC	460	RC	0	2	23RD	1	0	0.458428144455	-188.0	27.0	-198	32	1
1.7	2015_Jul_28_1515	s	s	14	2	SIC	461	ABS	2	0	24VC	0	1	0.59960603714	None	None	None	None	1
1.7	2015_Jul_28_1515	s	s	14	2	SIC	462	RC	1	1	23MO	1	0	2.36531186104	163.0	-126.0	159	-129	1
1.7	2015_Jul_28_1515	s	s	14	2	SIC	463	ABS	1	0	24MC	0	1	2.12972688675	None	None	None	None	1
1.7	2015_Jul_28_1515	s	s	14	2	SIC	464	RC	2	0	23VC	1	0	0.58310008049	-404.0	191.0	-400	194	1
1.7	2015_Jul_28_1515	s	s	14	2	SIC	465	RC	1	2	23MD	1	0	0.571173191071	-4.0	330.0	3	337	1
1.7	2015_Jul_28_1515	s	s	14	2	SIC	466	ABS	1	2	24MD	0	1	0.705636978149	None	None	None	None	1
1.7	2015_Jul_28_1515	s	s	14	2	SIC	467	RC	0	2	23RD	0	1	0.540760040283	239.0	-161.0	None	None	0
1.7	2015_Jul_28_1515	s	s	14	2	SIC	468	ABS	1	1	24MO	0	1	3.06611299515	None	None	None	None	1
1.7	2015_Jul_28_1515	s	s	14	2	SIC	469	RC	2	1	23VO	1	0	0.466824054718	-244.0	-343.0	-242	-356	1
1.7	2015_Jul_28_1515	s	s	14	2	SIC	470	RC	1	1	23MO	1	0	0.73770904541	129.0	216.0	131	214	1
1.7	2015_Jul_28_1515	s	s	14	2	SIC	471	RC	2	2	23VD	1	0	0.434864997864	334.0	-105.0	337	-100	1
1.7	2015_Jul_28_1515	s	s	14	2	SIC	472	ABS	2	0	24VC	0	1	0.585350990295	None	None	None	None	1
1.7	2015_Jul_28_1515	s	s	14	2	SIC	473	RC	0	1	23RO	1	0	2.40737390518	-375.0	-163.0	-379	-162	1
1.7	2015_Jul_28_1515	s	s	14	2	SIC	474	ABS	2	2	24VD	0	1	0.752684116364	None	None	None	None	1
1.7	2015_Jul_28_1515	s	s	14	2	SIC	475	RC	2	0	23VC	1	0	0.476994037628	413.0	-37.0	426	-33	1
1.7	2015_Jul_28_1515	s	s	14	2	SIC	476	RC	1	0	23MC	1	0	0.882200956345	356.0	178.0	356	180	1
1.7	2015_Jul_28_1515	s	s	14	2	SIC	477	ABS	0	2	24RD	1	0	0.511885166168	None	None	54	-9	0
1.7	2015_Jul_28_1515	s	s	14	2	SIC	478	ABS	1	0	24MC	0	1	1.11764502525	None	None	None	None	1
1.7	2015_Jul_28_1515	s	s	14	2	SIC	479	ABS	2	1	24VO	0	1	0.594886779785	None	None	None	None	1
1.7	2015_Jul_28_1515	s	s	14	2	SIC	480	ABS	0	1	24RO	0	1	3.14212679863	None	None	None	None	1
1.7	2015_Jul_28_1515	s	s	14	2	SIC	481	RC	2	0	23VC	1	0	1.04370117188	434.0	-136.0	439	-133	1
1.7	2015_Jul_28_1515	s	s	14	2	SIC	482	ABS	2	1	24VO	0	1	0.6295170784	None	None	None	None	1
1.7	2015_Jul_28_1515	s	s	14	2	SIC	483	ABS	2	0	24VC	0	1	0.626841068268	None	None	None	None	1
1.7	2015_Jul_28_1515	s	s	14	2	SIC	484	RC	0	2	23RD	1	0	0.587900876999	300.0	281.0	289	283	1
1.7	2015_Jul_28_1515	s	s	14	2	SIC	485	RC	2	1	23VO	1	0	1.44461011887	251.0	-96.0	241	-95	1
1.7	2015_Jul_28_1515	s	s	14	2	SIC	486	RC	1	0	23MC	1	0	0.996407985687	266.0	161.0	262	161	1
1.7	2015_Jul_28_1515	s	s	14	2	SIC	487	ABS	0	1	24RO	0	1	3.63129401207	None	None	None	None	1
1.7	2015_Jul_28_1515	s	s	14	2	SIC	488	ABS	1	2	24MD	0	1	0.576194047928	None	None	None	None	1
1.7	2015_Jul_28_1515	s	s	14	2	SIC	489	ABS	1	0	24MC	0	1	1.72971892357	None	None	None	None	1
1.7	2015_Jul_28_1515	s	s	14	2	SIC	490	ABS	2	2	24VD	0	1	0.505545854568	None	None	None	None	1
1.7	2015_Jul_28_1515	s	s	14	2	SIC	491	RC	1	2	23MD	1	0	0.479864835739	10.0	213.0	3	221	1
1.7	2015_Jul_28_1515	s	s	14	2	SIC	492	ABS	1	1	24MO	0	1	1.42358803749	None	None	None	None	1
1.7	2015_Jul_28_1515	s	s	14	2	SIC	493	ABS	0	2	24RD	0	1	0.712001085281	None	None	None	None	1
1.7	2015_Jul_28_1515	s	s	14	2	SIC	494	RC	2	2	23VD	1	0	0.47741985321	-479.0	-66.0	-474	-66	1
1.7	2015_Jul_28_1515	s	s	14	2	SIC	495	RC	0	1	23RO	0	1	3.1539068222	276.0	-258.0	None	None	0
1.7	2015_Jul_28_1515	s	s	14	2	SIC	496	RC	1	1	23MO	1	0	1.14808893204	-431.0	-156.0	-427	-157	1
1.7	2015_Jul_28_1515	s	s	14	2	SIC	497	ABS	2	0	24VC	0	1	0.517294883728	None	None	None	None	1
1.7	2015_Jul_28_1515	s	s	14	2	SIC	498	ABS	2	1	24VO	0	1	0.749589920044	None	None	None	None	1
1.7	2015_Jul_28_1515	s	s	14	2	SIC	499	RC	2	1	23VO	1	0	0.458436965942	-343.0	230.0	-335	231	1
1.7	2015_Jul_28_1515	s	s	14	2	SIC	500	RC	2	0	23VC	1	0	0.444656133652	-411.0	-201.0	-421	-202	1
1.7	2015_Jul_28_1515	s	s	14	2	SIC	501	RC	0	1	23RO	1	0	1.91529917717	-315.0	82.0	-306	83	1
1.7	2015_Jul_28_1515	s	s	14	2	SIC	502	ABS	1	1	24MO	0	1	1.9481780529	None	None	None	None	1
1.7	2015_Jul_28_1515	s	s	14	2	SIC	503	RC	0	2	23RD	1	0	0.770899057388	-456.0	-157.0	-466	-156	1
1.7	2015_Jul_28_1515	s	s	14	2	SIC	504	ABS	0	1	24RO	0	1	2.02027416229	None	None	None	None	1
1.7	2015_Jul_28_1515	s	s	14	2	SIC	505	ABS	1	0	24MC	0	1	3.61298084259	None	None	None	None	1
1.7	2015_Jul_28_1515	s	s	14	2	SIC	506	RC	2	2	23VD	1	0	0.42005610466	-14.0	161.0	-21	157	1
1.7	2015_Jul_28_1515	s	s	14	2	SIC	507	RC	1	0	23MC	1	0	0.725931882858	377.0	8.0	384	13	1
1.7	2015_Jul_28_1515	s	s	14	2	SIC	508	RC	1	2	23MD	1	0	0.476771116257	-269.0	-370.0	-260	-363	1
1.7	2015_Jul_28_1515	s	s	14	2	SIC	509	ABS	1	2	24MD	0	1	0.752632141113	None	None	None	None	1
1.7	2015_Jul_28_1515	s	s	14	2	SIC	510	ABS	0	2	24RD	0	1	0.606673002243	None	None	None	None	1
1.7	2015_Jul_28_1515	s	s	14	2	SIC	511	ABS	2	2	24VD	0	1	0.488922119141	None	None	None	None	1
1.7	2015_Jul_28_1515	s	s	14	2	SIC	512	RC	1	1	23MO	1	0	0.843022108078	213.0	-15.0	215	-14	1
1.7	2015_Jul_28_1515	s	s	14	2	SIC	513	ABS	2	2	24VD	0	1	0.520956039429	None	None	None	None	1
1.7	2015_Jul_28_1515	s	s	14	2	SIC	514	RC	1	2	23MD	1	0	0.629450082779	190.0	-265.0	184	-256	1
1.7	2015_Jul_28_1515	s	s	14	2	SIC	515	RC	2	2	23VD	1	0	0.485572099686	-185.0	265.0	-190	269	1
1.7	2015_Jul_28_1515	s	s	14	2	SIC	516	ABS	2	1	24VO	0	1	0.493729114532	None	None	None	None	1
1.7	2015_Jul_28_1515	s	s	14	2	SIC	517	ABS	1	1	24MO	0	1	2.73017811775	None	None	None	None	1
1.7	2015_Jul_28_1515	s	s	14	2	SIC	518	RC	0	1	23RO	1	0	2.64473605156	-341.0	-151.0	-341	-157	1
1.7	2015_Jul_28_1515	s	s	14	2	SIC	519	ABS	1	2	24MD	0	1	0.587822198868	None	None	None	None	1
1.7	2015_Jul_28_1515	s	s	14	2	SIC	520	RC	2	0	23VC	1	0	0.470104932785	-197.0	-346.0	-205	-346	1
1.7	2015_Jul_28_1515	s	s	14	2	SIC	521	RC	0	2	23RD	1	0	0.643114805222	203.0	-134.0	201	-137	1
1.7	2015_Jul_28_1515	s	s	14	2	SIC	522	RC	1	0	23MC	1	0	0.712090015411	225.0	35.0	229	33	1
1.7	2015_Jul_28_1515	s	s	14	2	SIC	523	ABS	2	0	24VC	0	1	0.635012865067	None	None	None	None	1
1.7	2015_Jul_28_1515	s	s	14	2	SIC	524	ABS	1	0	24MC	0	1	3.51871109009	None	None	None	None	1
1.7	2015_Jul_28_1515	s	s	14	2	SIC	525	ABS	0	1	24RO	0	1	2.7012219429	None	None	None	None	1
1.7	2015_Jul_28_1515	s	s	14	2	SIC	526	RC	2	1	23VO	1	0	0.591518878937	-520.0	362.0	-519	363	1
1.7	2015_Jul_28_1515	s	s	14	2	SIC	527	ABS	0	2	24RD	0	1	0.580765008926	None	None	None	None	1
1.7	2015_Jul_28_1515	s	s	14	2	SIC	528	RC	1	1	23MO	1	0	2.23573684692	172.0	133.0	182	131	1
1.7	2015_Jul_28_1515	s	s	14	2	SIC	529	RC	2	0	23VC	1	0	0.550363063812	-111.0	-286.0	-115	-287	1
1.7	2015_Jul_28_1515	s	s	14	2	SIC	530	ABS	0	1	24RO	0	1	1.87778997421	None	None	None	None	1
1.7	2015_Jul_28_1515	s	s	14	2	SIC	531	ABS	2	0	24VC	0	1	0.666754007339	None	None	None	None	1
1.7	2015_Jul_28_1515	s	s	14	2	SIC	532	ABS	2	2	24VD	0	1	0.656125068665	None	None	None	None	1
1.7	2015_Jul_28_1515	s	s	14	2	SIC	533	RC	1	1	23MO	1	0	1.19494700432	-493.0	-302.0	-499	-299	1
1.7	2015_Jul_28_1515	s	s	14	2	SIC	534	RC	2	1	23VO	1	0	0.524049043655	263.0	-61.0	259	-56	1
1.7	2015_Jul_28_1515	s	s	14	2	SIC	535	ABS	1	0	24MC	0	1	3.44810414314	None	None	None	None	1
1.7	2015_Jul_28_1515	s	s	14	2	SIC	536	RC	2	2	23VD	1	0	0.964570999146	187.0	-359.0	180	-355	1
1.7	2015_Jul_28_1515	s	s	14	2	SIC	537	ABS	0	2	24RD	0	1	0.870186090469	None	None	None	None	1
1.7	2015_Jul_28_1515	s	s	14	2	SIC	538	ABS	1	2	24MD	0	1	0.723981142044	None	None	None	None	1
1.7	2015_Jul_28_1515	s	s	14	2	SIC	539	ABS	2	1	24VO	0	1	0.60338807106	None	None	None	None	1
1.7	2015_Jul_28_1515	s	s	14	2	SIC	540	RC	1	0	23MC	1	0	0.870422124863	196.0	237.0	198	236	1
1.7	2015_Jul_28_1515	s	s	14	2	SIC	541	RC	1	2	23MD	1	0	0.50538611412	164.0	115.0	165	116	1
1.7	2015_Jul_28_1515	s	s	14	2	SIC	542	RC	0	1	23RO	1	0	1.80581116676	-188.0	-62.0	-187	-63	1
1.7	2015_Jul_28_1515	s	s	14	2	SIC	543	ABS	1	1	24MO	0	1	2.12964296341	None	None	None	None	1
1.7	2015_Jul_28_1515	s	s	14	2	SIC	544	RC	0	2	23RD	1	0	0.489756822586	258.0	210.0	256	216	1
1.7	2015_Jul_28_1515	s	s	14	2	SIC	545	ABS	0	2	24RD	0	1	0.611390113831	None	None	None	None	1
1.7	2015_Jul_28_1515	s	s	14	2	SIC	546	ABS	2	0	24VC	0	1	0.596991062164	None	None	None	None	1
1.7	2015_Jul_28_1515	s	s	14	2	SIC	547	ABS	1	1	24MO	1	0	1.52957105637	None	None	-58	-88	0
1.7	2015_Jul_28_1515	s	s	14	2	SIC	548	ABS	1	0	24MC	0	1	2.2921769619	None	None	None	None	1
1.7	2015_Jul_28_1515	s	s	14	2	SIC	549	ABS	1	2	24MD	0	1	0.929231882095	None	None	None	None	1
1.7	2015_Jul_28_1515	s	s	14	2	SIC	550	RC	2	2	23VD	1	0	0.500910043716	-178.0	-367.0	-179	-373	1
1.7	2015_Jul_28_1515	s	s	14	2	SIC	551	RC	1	0	23MC	1	0	0.682044029236	200.0	-47.0	197	-60	1
1.7	2015_Jul_28_1515	s	s	14	2	SIC	552	RC	0	2	23RD	1	0	0.488660097122	65.0	-411.0	65	-420	1
1.7	2015_Jul_28_1515	s	s	14	2	SIC	553	RC	0	1	23RO	1	0	1.0939450264	151.0	2.0	150	2	1
1.7	2015_Jul_28_1515	s	s	14	2	SIC	554	ABS	2	2	24VD	0	1	0.505496025085	None	None	None	None	1
1.7	2015_Jul_28_1515	s	s	14	2	SIC	555	ABS	0	1	24RO	0	1	3.16923499107	None	None	None	None	1
1.7	2015_Jul_28_1515	s	s	14	2	SIC	556	RC	2	0	23VC	1	0	0.599692106247	-367.0	187.0	-359	190	1
1.7	2015_Jul_28_1515	s	s	14	2	SIC	557	RC	1	1	23MO	1	0	0.528875827789	-148.0	44.0	-143	37	1
1.7	2015_Jul_28_1515	s	s	14	2	SIC	558	RC	2	1	23VO	1	0	0.576138019562	-105.0	-386.0	-105	-381	1
1.7	2015_Jul_28_1515	s	s	14	2	SIC	559	RC	1	2	23MD	1	0	0.423094034195	-78.0	-76.0	-74	-76	1
1.7	2015_Jul_28_1515	s	s	14	2	SIC	560	ABS	2	1	24VO	0	1	0.526424884796	None	None	None	None	1
1.7	2015_Jul_28_1515	s	s	14	2	SIC	561	ABS	0	2	24RD	0	1	0.903253793716	None	None	None	None	1
1.7	2015_Jul_28_1515	s	s	14	2	SIC	562	RC	0	1	23RO	1	0	1.29419088364	-300.0	-310.0	-297	-308	1
1.7	2015_Jul_28_1515	s	s	14	2	SIC	563	ABS	1	2	24MD	0	1	0.512019872665	None	None	None	None	1
1.7	2015_Jul_28_1515	s	s	14	2	SIC	564	RC	1	1	23MO	1	0	0.576029777527	-251.0	-142.0	-246	-138	1
1.7	2015_Jul_28_1515	s	s	14	2	SIC	565	ABS	2	0	24VC	0	1	0.470148801804	None	None	None	None	1
1.7	2015_Jul_28_1515	s	s	14	2	SIC	566	ABS	1	0	24MC	0	1	2.47629404068	None	None	None	None	1
1.7	2015_Jul_28_1515	s	s	14	2	SIC	567	RC	2	0	23VC	1	0	0.443293809891	-390.0	-154.0	-386	-161	1
1.7	2015_Jul_28_1515	s	s	14	2	SIC	568	RC	1	2	23MD	1	0	1.07694196701	519.0	299.0	521	298	1
1.7	2015_Jul_28_1515	s	s	14	2	SIC	569	RC	2	2	23VD	1	0	0.583817005157	507.0	-407.0	516	-407	1
1.7	2015_Jul_28_1515	s	s	14	2	SIC	570	ABS	1	1	24MO	0	1	1.44714999199	None	None	None	None	1
1.7	2015_Jul_28_1515	s	s	14	2	SIC	571	RC	0	2	23RD	1	0	0.423127889633	236.0	-94.0	231	-102	1
1.7	2015_Jul_28_1515	s	s	14	2	SIC	572	RC	2	1	23VO	1	0	0.493735074997	-352.0	-181.0	-354	-189	1
1.7	2015_Jul_28_1515	s	s	14	2	SIC	573	ABS	2	1	24VO	0	1	0.62050485611	None	None	None	None	1
1.7	2015_Jul_28_1515	s	s	14	2	SIC	574	RC	1	0	23MC	1	0	0.776255130768	-463.0	144.0	-466	151	1
1.7	2015_Jul_28_1515	s	s	14	2	SIC	575	ABS	0	1	24RO	0	1	1.61871600151	None	None	None	None	1
1.7	2015_Jul_28_1515	s	s	14	2	SIC	576	ABS	2	2	24VD	0	1	0.517299175262	None	None	None	None	1
1.7	2015_Jul_28_1515	s	s	14	2	SIC	577	ABS	0	1	24RO	0	1	3.83656096458	None	None	None	None	1
1.7	2015_Jul_28_1515	s	s	14	2	SIC	578	RC	2	1	23VO	1	0	0.478591918945	-455.0	-66.0	-451	-67	1
1.7	2015_Jul_28_1515	s	s	14	2	SIC	579	ABS	2	0	24VC	0	1	0.51323890686	None	None	None	None	1
1.7	2015_Jul_28_1515	s	s	14	2	SIC	580	ABS	2	1	24VO	0	1	0.587947130203	None	None	None	None	1
1.7	2015_Jul_28_1515	s	s	14	2	SIC	581	ABS	1	0	24MC	0	1	2.44275903702	None	None	None	None	1
1.7	2015_Jul_28_1515	s	s	14	2	SIC	582	RC	0	1	23RO	1	0	1.90607094765	-474.0	263.0	-476	260	1
1.7	2015_Jul_28_1515	s	s	14	2	SIC	583	RC	0	2	23RD	1	0	0.534889936447	87.0	-80.0	96	-74	1
1.7	2015_Jul_28_1515	s	s	14	2	SIC	584	RC	2	2	23VD	1	0	0.432500123978	-496.0	-1.0	-488	-4	1
1.7	2015_Jul_28_1515	s	s	14	2	SIC	585	ABS	1	2	24MD	0	1	0.700617074966	None	None	None	None	1
1.7	2015_Jul_28_1515	s	s	14	2	SIC	586	ABS	2	2	24VD	0	1	0.429845094681	None	None	None	None	1
1.7	2015_Jul_28_1515	s	s	14	2	SIC	587	RC	1	2	23MD	1	0	0.493627071381	356.0	86.0	348	87	1
1.7	2015_Jul_28_1515	s	s	14	2	SIC	588	RC	2	0	23VC	1	0	0.517107009888	-52.0	262.0	-43	258	1
1.7	2015_Jul_28_1515	s	s	14	2	SIC	589	ABS	1	1	24MO	0	1	1.76163911819	None	None	None	None	1
1.7	2015_Jul_28_1515	s	s	14	2	SIC	590	RC	1	1	23MO	1	0	0.799734115601	192.0	31.0	189	37	1
1.7	2015_Jul_28_1515	s	s	14	2	SIC	591	RC	1	0	23MC	1	0	1.19514298439	-272.0	-278.0	-271	-282	1
1.7	2015_Jul_28_1515	s	s	14	2	SIC	592	ABS	0	2	24RD	0	1	0.84418797493	None	None	None	None	1
