Version	Date	Stimuli	Method	Subject	Session	Condition	Trial	Target	Channel1	Channel2	Distractors	LMouseButton	RMouseButton	RT	TargetX	TargetY	ResponseX	ResponseY	Correct
1.7	2015_Jul_27_1521	s	s	14	1	Capacity	1	RC	0	2	23RD	1	0	0.917427778244	100.0	375.0	101	376	1
1.7	2015_Jul_27_1521	s	s	14	1	Capacity	2	RC	0	1	23RO	1	0	0.0699288845062	2.0	227.0	216	273	0
1.7	2015_Jul_27_1521	s	s	14	1	Capacity	3	ABS	0	1	24RO	0	1	4.39921498299	None	None	None	None	1
1.7	2015_Jul_27_1521	s	s	14	1	Capacity	4	ABS	0	2	24RD	1	0	2.90160894394	None	None	-10	-2	0
1.7	2015_Jul_27_1521	s	s	14	1	Capacity	5	RC	0	2	23RD	1	0	1.19506001472	-136.0	87.0	-138	87	1
1.7	2015_Jul_27_1521	s	s	14	1	Capacity	6	RC	0	1	23RO	1	0	4.50203108788	-435.0	183.0	-439	182	1
1.7	2015_Jul_27_1521	s	s	14	1	Capacity	7	ABS	0	1	24RO	0	1	5.77873301506	None	None	None	None	1
1.7	2015_Jul_27_1521	s	s	14	1	Capacity	8	ABS	0	2	24RD	0	1	3.03383803368	None	None	None	None	1
1.7	2015_Jul_27_1521	s	s	14	1	Capacity	9	RC	0	1	23RO	1	0	4.47221112251	-79.0	291.0	-82	287	1
1.7	2015_Jul_27_1521	s	s	14	1	Capacity	10	RC	0	2	23RD	1	0	1.16458702087	-7.0	70.0	-8	66	1
1.7	2015_Jul_27_1521	s	s	14	1	Capacity	11	ABS	0	2	24RD	0	1	2.80075192451	None	None	None	None	1
1.7	2015_Jul_27_1521	s	s	14	1	Capacity	12	ABS	0	1	24RO	0	1	5.09150004387	None	None	None	None	1
1.7	2015_Jul_27_1521	s	s	14	1	Capacity	13	ABS	0	2	24RD	0	1	2.91849207878	None	None	None	None	1
1.7	2015_Jul_27_1521	s	s	14	1	Capacity	14	ABS	0	1	24RO	0	1	6.39728093147	None	None	None	None	1
1.7	2015_Jul_27_1521	s	s	14	1	Capacity	15	RC	0	2	23RD	1	0	0.973762989044	212.0	103.0	208	104	1
1.7	2015_Jul_27_1521	s	s	14	1	Capacity	16	RC	0	1	23RO	0	1	6.11731290817	238.0	13.0	None	None	0
1.7	2015_Jul_27_1521	s	s	14	1	Capacity	17	RC	0	1	23RO	0	1	5.13134598732	-409.0	32.0	None	None	0
1.7	2015_Jul_27_1521	s	s	14	1	Capacity	18	RC	0	2	23RD	1	0	1.18518710136	75.0	42.0	70	39	1
1.7	2015_Jul_27_1521	s	s	14	1	Capacity	19	ABS	0	2	24RD	0	1	2.30152583122	None	None	None	None	1
1.7	2015_Jul_27_1521	s	s	14	1	Capacity	20	ABS	0	1	24RO	0	1	7.0351228714	None	None	None	None	1
1.7	2015_Jul_27_1521	s	s	14	1	Capacity	21	RC	0	1	23RO	1	0	4.01305007935	104.0	-361.0	100	-359	1
1.7	2015_Jul_27_1521	s	s	14	1	Capacity	22	ABS	0	2	24RD	0	1	3.64363002777	None	None	None	None	1
1.7	2015_Jul_27_1521	s	s	14	1	Capacity	23	RC	0	2	23RD	1	0	1.17680501938	323.0	72.0	323	71	1
1.7	2015_Jul_27_1521	s	s	14	1	Capacity	24	ABS	0	1	24RO	0	1	7.0032248497	None	None	None	None	1
1.7	2015_Jul_27_1521	s	s	14	1	Capacity	25	ABS	0	1	24RO	0	1	5.50548601151	None	None	None	None	1
1.7	2015_Jul_27_1521	s	s	14	1	Capacity	26	ABS	0	2	24RD	0	1	2.31301593781	None	None	None	None	1
1.7	2015_Jul_27_1521	s	s	14	1	Capacity	27	RC	0	2	23RD	1	0	1.31759405136	443.0	-216.0	440	-223	1
1.7	2015_Jul_27_1521	s	s	14	1	Capacity	28	RC	0	1	23RO	1	0	2.86810994148	424.0	159.0	421	153	1
1.7	2015_Jul_27_1521	s	s	14	1	Capacity	29	ABS	0	2	24RD	0	1	3.61046600342	None	None	None	None	1
1.7	2015_Jul_27_1521	s	s	14	1	Capacity	30	RC	0	1	23RO	1	0	3.00749182701	-48.0	-329.0	-40	-320	1
1.7	2015_Jul_27_1521	s	s	14	1	Capacity	31	RC	0	2	23RD	1	0	1.51133084297	507.0	-354.0	509	-346	1
1.7	2015_Jul_27_1521	s	s	14	1	Capacity	32	ABS	0	1	24RO	0	1	4.88416910172	None	None	None	None	1
1.7	2015_Jul_27_1521	s	s	14	1	Capacity	33	ABS	0	1	24RO	0	1	5.98599290848	None	None	None	None	1
1.7	2015_Jul_27_1521	s	s	14	1	Capacity	34	RC	0	2	23RD	1	0	0.97634100914	115.0	30.0	114	32	1
1.7	2015_Jul_27_1521	s	s	14	1	Capacity	35	ABS	0	2	24RD	0	1	2.29211807251	None	None	None	None	1
1.7	2015_Jul_27_1521	s	s	14	1	Capacity	36	RC	0	1	23RO	1	0	2.16514587402	-440.0	-375.0	-445	-374	1
1.7	2015_Jul_27_1521	s	s	14	1	Capacity	37	RC	0	1	23RO	1	0	1.736369133	365.0	-195.0	361	-191	1
1.7	2015_Jul_27_1521	s	s	14	1	Capacity	38	ABS	0	1	24RO	0	1	6.66773295403	None	None	None	None	1
1.7	2015_Jul_27_1521	s	s	14	1	Capacity	39	RC	0	2	23RD	1	0	0.83512711525	-78.0	-335.0	-74	-331	1
1.7	2015_Jul_27_1521	s	s	14	1	Capacity	40	ABS	0	2	24RD	0	1	2.32997989655	None	None	None	None	1
1.7	2015_Jul_27_1521	s	s	14	1	Capacity	41	RC	0	2	23RD	1	0	1.10576796532	455.0	226.0	452	227	1
1.7	2015_Jul_27_1521	s	s	14	1	Capacity	42	ABS	0	2	24RD	0	1	1.81879210472	None	None	None	None	1
1.7	2015_Jul_27_1521	s	s	14	1	Capacity	43	RC	0	1	23RO	1	0	4.50748109818	113.0	333.0	114	334	1
1.7	2015_Jul_27_1521	s	s	14	1	Capacity	44	ABS	0	1	24RO	0	1	6.22600102425	None	None	None	None	1
1.7	2015_Jul_27_1521	s	s	14	1	Capacity	45	RC	0	2	23RD	1	0	1.98405098915	17.0	317.0	18	318	1
1.7	2015_Jul_27_1521	s	s	14	1	Capacity	46	ABS	0	1	24RO	0	1	5.0317800045	None	None	None	None	1
1.7	2015_Jul_27_1521	s	s	14	1	Capacity	47	RC	0	1	23RO	1	0	5.53907513618	-392.0	-207.0	-391	-202	1
1.7	2015_Jul_27_1521	s	s	14	1	Capacity	48	ABS	0	2	24RD	0	1	3.24249482155	None	None	None	None	1
1.7	2015_Jul_27_1521	s	s	14	1	Capacity	49	RC	0	1	23RO	0	1	7.250177145	160.0	-61.0	None	None	0
1.7	2015_Jul_27_1521	s	s	14	1	Capacity	50	RC	0	2	23RD	1	0	1.02357292175	231.0	278.0	233	277	1
1.7	2015_Jul_27_1521	s	s	14	1	Capacity	51	ABS	0	1	24RO	0	1	6.53839707375	None	None	None	None	1
1.7	2015_Jul_27_1521	s	s	14	1	Capacity	52	ABS	0	2	24RD	0	1	3.0714700222	None	None	None	None	1
1.7	2015_Jul_27_1521	s	s	14	1	Capacity	53	ABS	0	1	24RO	0	1	6.26964879036	None	None	None	None	1
1.7	2015_Jul_27_1521	s	s	14	1	Capacity	54	RC	0	2	23RD	1	0	0.923613071442	-87.0	-272.0	-88	-273	1
1.7	2015_Jul_27_1521	s	s	14	1	Capacity	55	RC	0	1	23RO	1	0	6.11464691162	-342.0	361.0	-341	356	1
1.7	2015_Jul_27_1521	s	s	14	1	Capacity	56	ABS	0	2	24RD	0	1	2.91845417023	None	None	None	None	1
1.7	2015_Jul_27_1521	s	s	14	1	Capacity	57	RC	0	2	23RD	1	0	1.22353005409	-506.0	-359.0	-507	-370	1
1.7	2015_Jul_27_1521	s	s	14	1	Capacity	58	RC	0	1	23RO	1	0	1.41879606247	-283.0	-248.0	-289	-248	1
1.7	2015_Jul_27_1521	s	s	14	1	Capacity	59	ABS	0	1	24RO	0	1	4.9311568737	None	None	None	None	1
1.7	2015_Jul_27_1521	s	s	14	1	Capacity	60	ABS	0	2	24RD	0	1	1.88944411278	None	None	None	None	1
1.7	2015_Jul_27_1521	s	s	14	1	Capacity	61	ABS	0	2	24RD	0	1	1.84481191635	None	None	None	None	1
1.7	2015_Jul_27_1521	s	s	14	1	Capacity	62	RC	0	2	23RD	1	0	0.73604798317	-64.0	169.0	-67	165	1
1.7	2015_Jul_27_1521	s	s	14	1	Capacity	63	RC	0	1	23RO	1	0	2.85459017754	-423.0	-232.0	-418	-232	1
1.7	2015_Jul_27_1521	s	s	14	1	Capacity	64	ABS	0	1	24RO	1	0	7.24652910233	None	None	342	254	0
1.7	2015_Jul_27_1521	s	s	14	1	Capacity	65	ABS	0	2	24RD	0	1	2.40078186989	None	None	None	None	1
1.7	2015_Jul_27_1521	s	s	14	1	Capacity	66	RC	0	2	23RD	1	0	1.16460418701	-267.0	331.0	-276	327	1
1.7	2015_Jul_27_1521	s	s	14	1	Capacity	67	RC	0	1	23RO	1	0	7.19113707542	240.0	232.0	242	232	1
1.7	2015_Jul_27_1521	s	s	14	1	Capacity	68	ABS	0	1	24RO	0	1	9.50477385521	None	None	None	None	1
1.7	2015_Jul_27_1521	s	s	14	1	Capacity	69	ABS	0	1	24RO	0	1	6.32705283165	None	None	None	None	1
1.7	2015_Jul_27_1521	s	s	14	1	Capacity	70	RC	0	1	23RO	1	0	5.7316570282	-7.0	95.0	-6	96	1
1.7	2015_Jul_27_1521	s	s	14	1	Capacity	71	RC	0	2	23RD	1	0	0.985641002655	-420.0	145.0	-425	149	1
1.7	2015_Jul_27_1521	s	s	14	1	Capacity	72	ABS	0	2	24RD	0	1	2.553606987	None	None	None	None	1
1.7	2015_Jul_27_1521	s	s	14	1	Capacity	73	RC	0	1	23RO	1	0	5.92668700218	-441.0	-371.0	-444	-373	1
1.7	2015_Jul_27_1521	s	s	14	1	Capacity	74	ABS	0	1	24RO	0	1	7.07714700699	None	None	None	None	1
1.7	2015_Jul_27_1521	s	s	14	1	Capacity	75	ABS	0	2	24RD	0	1	1.85550713539	None	None	None	None	1
1.7	2015_Jul_27_1521	s	s	14	1	Capacity	76	RC	0	2	23RD	1	0	0.587953090668	-402.0	6.0	-403	2	1
1.7	2015_Jul_27_1521	s	s	14	1	Capacity	77	ABS	0	2	24RD	0	1	1.69093704224	None	None	None	None	1
1.7	2015_Jul_27_1521	s	s	14	1	Capacity	78	ABS	0	1	24RO	0	1	7.4382750988	None	None	None	None	1
1.7	2015_Jul_27_1521	s	s	14	1	Capacity	79	RC	0	2	23RD	1	0	1.2176759243	-232.0	363.0	-229	371	1
1.7	2015_Jul_27_1521	s	s	14	1	Capacity	80	RC	0	1	23RO	1	0	7.09710907936	400.0	379.0	401	376	1
1.7	2015_Jul_27_1521	s	s	14	1	Capacity	81	ABS	0	1	24RO	0	1	7.33000898361	None	None	None	None	1
1.7	2015_Jul_27_1521	s	s	14	1	Capacity	82	RC	0	2	23RD	1	0	1.24689412117	502.0	-170.0	498	-172	1
1.7	2015_Jul_27_1521	s	s	14	1	Capacity	83	ABS	0	2	24RD	0	1	2.69499611855	None	None	None	None	1
1.7	2015_Jul_27_1521	s	s	14	1	Capacity	84	RC	0	1	23RO	1	0	1.5884180069	-334.0	-263.0	-332	-261	1
1.7	2015_Jul_27_1521	s	s	14	1	Capacity	85	RC	0	2	23RD	1	0	1.01160907745	-215.0	-291.0	-217	-282	1
1.7	2015_Jul_27_1521	s	s	14	1	Capacity	86	ABS	0	1	24RO	0	1	5.49345707893	None	None	None	None	1
1.7	2015_Jul_27_1521	s	s	14	1	Capacity	87	RC	0	1	23RO	1	0	4.9616818428	5.0	88.0	1	86	1
1.7	2015_Jul_27_1521	s	s	14	1	Capacity	88	ABS	0	2	24RD	0	1	2.64762592316	None	None	None	None	1
1.7	2015_Jul_27_1521	s	s	14	1	Capacity	89	RC	0	2	23RD	1	0	0.876363992691	37.0	-109.0	35	-114	1
1.7	2015_Jul_27_1521	s	s	14	1	Capacity	90	RC	0	1	23RO	1	0	1.418820858	2.0	-285.0	5	-284	1
1.7	2015_Jul_27_1521	s	s	14	1	Capacity	91	ABS	0	2	24RD	0	1	2.61244893074	None	None	None	None	1
1.7	2015_Jul_27_1521	s	s	14	1	Capacity	92	ABS	0	1	24RO	0	1	7.51835513115	None	None	None	None	1
1.7	2015_Jul_27_1521	s	s	14	1	Capacity	1	RC	1	0	23MC	1	0	1.09403705597	165.0	51.0	161	49	1
1.7	2015_Jul_27_1521	s	s	14	1	Capacity	2	RC	2	0	23VC	1	0	0.70553612709	-60.0	137.0	-59	131	1
1.7	2015_Jul_27_1521	s	s	14	1	Capacity	3	ABS	2	0	24VC	0	1	1.59825086594	None	None	None	None	1
1.7	2015_Jul_27_1521	s	s	14	1	Capacity	4	ABS	1	0	24MC	0	1	3.09502983093	None	None	None	None	1
1.7	2015_Jul_27_1521	s	s	14	1	Capacity	5	ABS	1	0	24MC	0	1	4.24445199966	None	None	None	None	1
1.7	2015_Jul_27_1521	s	s	14	1	Capacity	6	RC	1	0	23MC	1	0	1.29195308685	58.0	109.0	52	106	1
1.7	2015_Jul_27_1521	s	s	14	1	Capacity	7	RC	2	0	23VC	1	0	0.823325157166	-267.0	265.0	-264	264	1
1.7	2015_Jul_27_1521	s	s	14	1	Capacity	8	ABS	2	0	24VC	0	1	1.03516721725	None	None	None	None	1
1.7	2015_Jul_27_1521	s	s	14	1	Capacity	9	ABS	1	0	24MC	0	1	2.95148801804	None	None	None	None	1
1.7	2015_Jul_27_1521	s	s	14	1	Capacity	10	ABS	2	0	24VC	0	1	1.80774617195	None	None	None	None	1
1.7	2015_Jul_27_1521	s	s	14	1	Capacity	11	RC	2	0	23VC	1	0	0.773004055023	-291.0	-21.0	-292	-26	1
1.7	2015_Jul_27_1521	s	s	14	1	Capacity	12	RC	1	0	23MC	0	1	1.19999504089	238.0	-21.0	None	None	0
1.7	2015_Jul_27_1521	s	s	14	1	Capacity	13	RC	1	0	23MC	1	0	0.868221998215	211.0	-12.0	214	-18	1
1.7	2015_Jul_27_1521	s	s	14	1	Capacity	14	ABS	1	0	24MC	0	1	2.69490718842	None	None	None	None	1
1.7	2015_Jul_27_1521	s	s	14	1	Capacity	15	RC	2	0	23VC	1	0	2.2358288765	-277.0	-187.0	-281	-187	1
1.7	2015_Jul_27_1521	s	s	14	1	Capacity	16	ABS	2	0	24VC	0	1	0.999795913696	None	None	None	None	1
1.7	2015_Jul_27_1521	s	s	14	1	Capacity	17	ABS	2	0	24VC	0	1	0.747227907181	None	None	None	None	1
1.7	2015_Jul_27_1521	s	s	14	1	Capacity	18	RC	1	0	23MC	1	0	1.57666492462	-345.0	63.0	-341	61	1
1.7	2015_Jul_27_1521	s	s	14	1	Capacity	19	RC	2	0	23VC	1	0	0.724448919296	-506.0	-212.0	-514	-218	1
1.7	2015_Jul_27_1521	s	s	14	1	Capacity	20	ABS	1	0	24MC	0	1	1.83560204506	None	None	None	None	1
1.7	2015_Jul_27_1521	s	s	14	1	Capacity	21	ABS	2	0	24VC	0	1	0.994900941849	None	None	None	None	1
1.7	2015_Jul_27_1521	s	s	14	1	Capacity	22	RC	2	0	23VC	1	0	1.05439400673	67.0	-357.0	63	-354	1
1.7	2015_Jul_27_1521	s	s	14	1	Capacity	23	RC	1	0	23MC	1	0	2.57126808167	-157.0	241.0	-157	235	1
1.7	2015_Jul_27_1521	s	s	14	1	Capacity	24	ABS	1	0	24MC	0	1	2.40057206154	None	None	None	None	1
1.7	2015_Jul_27_1521	s	s	14	1	Capacity	25	RC	2	0	23VC	1	0	0.976223945618	222.0	377.0	224	380	1
1.7	2015_Jul_27_1521	s	s	14	1	Capacity	26	ABS	2	0	24VC	0	1	1.21852993965	None	None	None	None	1
1.7	2015_Jul_27_1521	s	s	14	1	Capacity	27	RC	1	0	23MC	1	0	1.16477704048	443.0	7.0	446	7	1
1.7	2015_Jul_27_1521	s	s	14	1	Capacity	28	ABS	1	0	24MC	0	1	4.86065196991	None	None	None	None	1
1.7	2015_Jul_27_1521	s	s	14	1	Capacity	29	RC	2	0	23VC	1	0	0.853360891342	522.0	354.0	517	352	1
1.7	2015_Jul_27_1521	s	s	14	1	Capacity	30	ABS	1	0	24MC	0	1	2.67138409615	None	None	None	None	1
1.7	2015_Jul_27_1521	s	s	14	1	Capacity	31	RC	1	0	23MC	0	1	4.50753092766	-141.0	373.0	None	None	0
1.7	2015_Jul_27_1521	s	s	14	1	Capacity	32	ABS	2	0	24VC	0	1	1.25885891914	None	None	None	None	1
1.7	2015_Jul_27_1521	s	s	14	1	Capacity	33	ABS	2	0	24VC	0	1	1.39559292793	None	None	None	None	1
1.7	2015_Jul_27_1521	s	s	14	1	Capacity	34	ABS	1	0	24MC	0	1	2.35936808586	None	None	None	None	1
1.7	2015_Jul_27_1521	s	s	14	1	Capacity	35	RC	2	0	23VC	1	0	0.760259866714	399.0	293.0	395	300	1
1.7	2015_Jul_27_1521	s	s	14	1	Capacity	36	RC	1	0	23MC	1	0	2.19816493988	-53.0	-332.0	-60	-335	1
1.7	2015_Jul_27_1521	s	s	14	1	Capacity	37	ABS	2	0	24VC	0	1	0.970960140228	None	None	None	None	1
1.7	2015_Jul_27_1521	s	s	14	1	Capacity	38	RC	2	0	23VC	1	0	0.917468070984	-203.0	282.0	-196	283	1
1.7	2015_Jul_27_1521	s	s	14	1	Capacity	39	ABS	1	0	24MC	0	1	3.48067903519	None	None	None	None	1
1.7	2015_Jul_27_1521	s	s	14	1	Capacity	40	RC	1	0	23MC	1	0	2.53679394722	-372.0	51.0	-377	54	1
1.7	2015_Jul_27_1521	s	s	14	1	Capacity	41	RC	1	0	23MC	1	0	2.77724695206	-174.0	-334.0	-170	-328	1
1.7	2015_Jul_27_1521	s	s	14	1	Capacity	42	ABS	1	0	24MC	0	1	4.84234714508	None	None	None	None	1
1.7	2015_Jul_27_1521	s	s	14	1	Capacity	43	RC	2	0	23VC	1	0	0.941029071808	133.0	0.0	144	10	1
1.7	2015_Jul_27_1521	s	s	14	1	Capacity	44	ABS	2	0	24VC	0	1	0.976326942444	None	None	None	None	1
1.7	2015_Jul_27_1521	s	s	14	1	Capacity	45	RC	2	0	23VC	1	0	0.926448822021	502.0	342.0	510	344	1
1.7	2015_Jul_27_1521	s	s	14	1	Capacity	46	ABS	2	0	24VC	0	1	0.999656915665	None	None	None	None	1
1.7	2015_Jul_27_1521	s	s	14	1	Capacity	47	ABS	1	0	24MC	0	1	3.68132209778	None	None	None	None	1
1.7	2015_Jul_27_1521	s	s	14	1	Capacity	48	RC	1	0	23MC	1	0	1.15291285515	-215.0	-329.0	-220	-334	1
1.7	2015_Jul_27_1521	s	s	14	1	Capacity	49	ABS	2	0	24VC	0	1	1.02371191978	None	None	None	None	1
1.7	2015_Jul_27_1521	s	s	14	1	Capacity	50	RC	2	0	23VC	1	0	0.655410051346	190.0	-61.0	191	-58	1
1.7	2015_Jul_27_1521	s	s	14	1	Capacity	51	RC	1	0	23MC	1	0	1.31504607201	-100.0	-320.0	-102	-321	1
1.7	2015_Jul_27_1521	s	s	14	1	Capacity	52	ABS	1	0	24MC	0	1	4.32556295395	None	None	None	None	1
1.7	2015_Jul_27_1521	s	s	14	1	Capacity	53	ABS	2	0	24VC	0	1	1.9060690403	None	None	None	None	1
1.7	2015_Jul_27_1521	s	s	14	1	Capacity	54	RC	1	0	23MC	1	0	1.60027694702	436.0	125.0	434	125	1
1.7	2015_Jul_27_1521	s	s	14	1	Capacity	55	ABS	1	0	24MC	0	1	3.99632096291	None	None	None	None	1
1.7	2015_Jul_27_1521	s	s	14	1	Capacity	56	RC	2	0	23VC	1	0	1.17116785049	516.0	164.0	519	165	1
1.7	2015_Jul_27_1521	s	s	14	1	Capacity	57	ABS	1	0	24MC	0	1	3.428429842	None	None	None	None	1
1.7	2015_Jul_27_1521	s	s	14	1	Capacity	58	ABS	2	0	24VC	0	1	1.02936506271	None	None	None	None	1
1.7	2015_Jul_27_1521	s	s	14	1	Capacity	59	RC	2	0	23VC	1	0	0.783257007599	281.0	112.0	291	120	1
1.7	2015_Jul_27_1521	s	s	14	1	Capacity	60	RC	1	0	23MC	1	0	2.29144501686	-496.0	-107.0	-495	-110	1
1.7	2015_Jul_27_1521	s	s	14	1	Capacity	61	ABS	2	0	24VC	0	1	1.12403893471	None	None	None	None	1
1.7	2015_Jul_27_1521	s	s	14	1	Capacity	62	RC	2	0	23VC	1	0	0.595194101334	-525.0	70.0	-523	68	1
1.7	2015_Jul_27_1521	s	s	14	1	Capacity	63	RC	1	0	23MC	1	0	1.21639204025	-383.0	54.0	-375	56	1
1.7	2015_Jul_27_1521	s	s	14	1	Capacity	64	ABS	1	0	24MC	0	1	4.49043011665	None	None	None	None	1
1.7	2015_Jul_27_1521	s	s	14	1	Capacity	65	RC	2	0	23VC	1	0	0.752883911133	271.0	-357.0	277	-356	1
1.7	2015_Jul_27_1521	s	s	14	1	Capacity	66	ABS	2	0	24VC	0	1	1.0512638092	None	None	None	None	1
1.7	2015_Jul_27_1521	s	s	14	1	Capacity	67	ABS	1	0	24MC	0	1	3.8908457756	None	None	None	None	1
1.7	2015_Jul_27_1521	s	s	14	1	Capacity	68	RC	1	0	23MC	1	0	1.67718911171	-510.0	-411.0	-503	-404	1
1.7	2015_Jul_27_1521	s	s	14	1	Capacity	69	ABS	2	0	24VC	0	1	1.09404492378	None	None	None	None	1
1.7	2015_Jul_27_1521	s	s	14	1	Capacity	70	RC	1	0	23MC	1	0	0.959996938705	-192.0	-290.0	-183	-290	1
1.7	2015_Jul_27_1521	s	s	14	1	Capacity	71	RC	2	0	23VC	1	0	0.830879926682	-262.0	-339.0	-272	-336	1
1.7	2015_Jul_27_1521	s	s	14	1	Capacity	72	ABS	1	0	24MC	0	1	6.86161899567	None	None	None	None	1
1.7	2015_Jul_27_1521	s	s	14	1	Capacity	73	ABS	1	0	24MC	0	1	5.69629597664	None	None	None	None	1
1.7	2015_Jul_27_1521	s	s	14	1	Capacity	74	RC	2	0	23VC	1	0	0.652912855148	57.0	-163.0	57	-180	1
1.7	2015_Jul_27_1521	s	s	14	1	Capacity	75	ABS	2	0	24VC	0	1	1.14790797234	None	None	None	None	1
1.7	2015_Jul_27_1521	s	s	14	1	Capacity	76	RC	1	0	23MC	1	0	1.8831050396	334.0	-260.0	325	-254	1
1.7	2015_Jul_27_1521	s	s	14	1	Capacity	77	ABS	2	0	24VC	0	1	1.24703097343	None	None	None	None	1
1.7	2015_Jul_27_1521	s	s	14	1	Capacity	78	RC	1	0	23MC	1	0	3.30694699287	224.0	64.0	231	72	1
1.7	2015_Jul_27_1521	s	s	14	1	Capacity	79	ABS	1	0	24MC	0	1	5.17831802368	None	None	None	None	1
1.7	2015_Jul_27_1521	s	s	14	1	Capacity	80	RC	2	0	23VC	1	0	0.682085037231	295.0	95.0	287	98	1
1.7	2015_Jul_27_1521	s	s	14	1	Capacity	81	RC	1	0	23MC	1	0	1.50246119499	459.0	256.0	462	256	1
1.7	2015_Jul_27_1521	s	s	14	1	Capacity	82	RC	2	0	23VC	1	0	0.748034000397	308.0	46.0	306	43	1
1.7	2015_Jul_27_1521	s	s	14	1	Capacity	83	ABS	2	0	24VC	0	1	0.973206043243	None	None	None	None	1
1.7	2015_Jul_27_1521	s	s	14	1	Capacity	84	ABS	1	0	24MC	0	1	3.98536896706	None	None	None	None	1
1.7	2015_Jul_27_1521	s	s	14	1	Capacity	85	ABS	2	0	24VC	0	1	1.02333402634	None	None	None	None	1
1.7	2015_Jul_27_1521	s	s	14	1	Capacity	86	RC	1	0	23MC	1	0	0.893868923187	-224.0	-185.0	-234	-186	1
1.7	2015_Jul_27_1521	s	s	14	1	Capacity	87	RC	2	0	23VC	1	0	0.893932819366	107.0	108.0	118	109	1
1.7	2015_Jul_27_1521	s	s	14	1	Capacity	88	ABS	1	0	24MC	0	1	4.79622101784	None	None	None	None	1
1.7	2015_Jul_27_1521	s	s	14	1	Capacity	89	RC	1	0	23MC	1	0	1.86751484871	-497.0	153.0	-489	158	1
1.7	2015_Jul_27_1521	s	s	14	1	Capacity	90	ABS	1	0	24MC	0	1	3.27158784866	None	None	None	None	1
1.7	2015_Jul_27_1521	s	s	14	1	Capacity	91	RC	2	0	23VC	1	0	1.10134005547	285.0	342.0	298	346	1
1.7	2015_Jul_27_1521	s	s	14	1	Capacity	92	ABS	2	0	24VC	0	1	1.97682499886	None	None	None	None	1
1.7	2015_Jul_27_1521	s	s	14	1	SIC	1	ABS	1	2	24MD	0	1	1.73633790016	None	None	None	None	1
1.7	2015_Jul_27_1521	s	s	14	1	SIC	2	RC	0	2	23RD	1	0	0.776300907135	-305.0	-406.0	-304	-404	1
1.7	2015_Jul_27_1521	s	s	14	1	SIC	3	ABS	2	0	24VC	0	1	1.52642607689	None	None	None	None	1
1.7	2015_Jul_27_1521	s	s	14	1	SIC	4	RC	1	2	23MD	1	0	0.617659091949	-38.0	-361.0	-39	-363	1
1.7	2015_Jul_27_1521	s	s	14	1	SIC	5	ABS	0	1	24RO	0	1	4.9615650177	None	None	None	None	1
1.7	2015_Jul_27_1521	s	s	14	1	SIC	6	RC	1	0	23MC	1	0	5.98579192162	-308.0	291.0	-301	295	1
1.7	2015_Jul_27_1521	s	s	14	1	SIC	7	ABS	2	1	24VO	0	1	1.28209400177	None	None	None	None	1
1.7	2015_Jul_27_1521	s	s	14	1	SIC	8	RC	1	1	23MO	1	0	3.22910499573	125.0	198.0	130	199	1
1.7	2015_Jul_27_1521	s	s	14	1	SIC	9	ABS	1	1	24MO	0	1	4.97403502464	None	None	None	None	1
1.7	2015_Jul_27_1521	s	s	14	1	SIC	10	ABS	0	2	24RD	0	1	1.92981910706	None	None	None	None	1
1.7	2015_Jul_27_1521	s	s	14	1	SIC	11	RC	0	1	23RO	1	0	2.19694399834	-37.0	155.0	-38	160	1
1.7	2015_Jul_27_1521	s	s	14	1	SIC	12	RC	2	1	23VO	1	0	1.06715011597	483.0	-205.0	485	-212	1
1.7	2015_Jul_27_1521	s	s	14	1	SIC	13	RC	2	0	23VC	1	0	0.737781047821	60.0	383.0	58	384	1
1.7	2015_Jul_27_1521	s	s	14	1	SIC	14	RC	2	2	23VD	1	0	1.24718093872	54.0	18.0	60	19	1
1.7	2015_Jul_27_1521	s	s	14	1	SIC	15	ABS	1	0	24MC	0	1	3.61292314529	None	None	None	None	1
1.7	2015_Jul_27_1521	s	s	14	1	SIC	16	ABS	2	2	24VD	0	1	1.28891086578	None	None	None	None	1
1.7	2015_Jul_27_1521	s	s	14	1	SIC	17	ABS	0	1	24RO	0	1	5.27640008926	None	None	None	None	1
1.7	2015_Jul_27_1521	s	s	14	1	SIC	18	RC	1	2	23MD	1	0	1.04284405708	53.0	228.0	51	233	1
1.7	2015_Jul_27_1521	s	s	14	1	SIC	19	RC	0	2	23RD	1	0	0.77209687233	185.0	-73.0	177	-69	1
1.7	2015_Jul_27_1521	s	s	14	1	SIC	20	RC	1	1	23MO	1	0	1.34907317162	40.0	-406.0	33	-412	1
1.7	2015_Jul_27_1521	s	s	14	1	SIC	21	RC	2	2	23VD	1	0	0.605874061584	-43.0	-322.0	-37	-322	1
1.7	2015_Jul_27_1521	s	s	14	1	SIC	22	ABS	0	2	24RD	0	1	1.85598611832	None	None	None	None	1
1.7	2015_Jul_27_1521	s	s	14	1	SIC	23	ABS	1	0	24MC	0	1	2.986743927	None	None	None	None	1
1.7	2015_Jul_27_1521	s	s	14	1	SIC	24	RC	2	0	23VC	1	0	0.524252891541	-100.0	116.0	-101	111	1
1.7	2015_Jul_27_1521	s	s	14	1	SIC	25	RC	2	1	23VO	0	1	0.772700071335	-224.0	-187.0	None	None	0
1.7	2015_Jul_27_1521	s	s	14	1	SIC	26	RC	1	0	23MC	1	0	1.20683503151	-307.0	-66.0	-308	-65	1
1.7	2015_Jul_27_1521	s	s	14	1	SIC	27	RC	0	1	23RO	1	0	2.76072597504	367.0	181.0	363	184	1
1.7	2015_Jul_27_1521	s	s	14	1	SIC	28	ABS	2	0	24VC	0	1	1.6359641552	None	None	None	None	1
1.7	2015_Jul_27_1521	s	s	14	1	SIC	29	ABS	1	1	24MO	0	1	3.54011511803	None	None	None	None	1
1.7	2015_Jul_27_1521	s	s	14	1	SIC	30	ABS	2	2	24VD	0	1	1.28626012802	None	None	None	None	1
1.7	2015_Jul_27_1521	s	s	14	1	SIC	31	ABS	1	2	24MD	0	1	1.81215786934	None	None	None	None	1
1.7	2015_Jul_27_1521	s	s	14	1	SIC	32	ABS	2	1	24VO	0	1	1.1944770813	None	None	None	None	1
1.7	2015_Jul_27_1521	s	s	14	1	SIC	33	RC	0	1	23RO	1	0	2.50306797028	-540.0	273.0	-540	274	1
1.7	2015_Jul_27_1521	s	s	14	1	SIC	34	RC	1	1	23MO	1	0	3.7367079258	284.0	154.0	287	154	1
1.7	2015_Jul_27_1521	s	s	14	1	SIC	35	RC	2	1	23VO	1	0	0.940984010696	174.0	112.0	181	113	1
1.7	2015_Jul_27_1521	s	s	14	1	SIC	36	RC	2	2	23VD	1	0	0.843599081039	-252.0	403.0	-242	409	1
1.7	2015_Jul_27_1521	s	s	14	1	SIC	37	ABS	0	1	24RO	0	1	6.11770319939	None	None	None	None	1
1.7	2015_Jul_27_1521	s	s	14	1	SIC	38	ABS	2	0	24VC	0	1	1.2769010067	None	None	None	None	1
1.7	2015_Jul_27_1521	s	s	14	1	SIC	39	ABS	2	2	24VD	0	1	0.864565134048	None	None	None	None	1
1.7	2015_Jul_27_1521	s	s	14	1	SIC	40	ABS	2	1	24VO	0	1	0.858641147614	None	None	None	None	1
1.7	2015_Jul_27_1521	s	s	14	1	SIC	41	RC	0	2	23RD	1	0	1.13832902908	285.0	366.0	276	371	1
1.7	2015_Jul_27_1521	s	s	14	1	SIC	42	ABS	1	1	24MO	0	1	5.69145202637	None	None	None	None	1
1.7	2015_Jul_27_1521	s	s	14	1	SIC	43	RC	1	0	23MC	1	0	4.22502708435	253.0	163.0	248	163	1
1.7	2015_Jul_27_1521	s	s	14	1	SIC	44	ABS	1	2	24MD	0	1	1.07982587814	None	None	None	None	1
1.7	2015_Jul_27_1521	s	s	14	1	SIC	45	RC	2	0	23VC	1	0	0.57608795166	-345.0	-153.0	-344	-153	1
1.7	2015_Jul_27_1521	s	s	14	1	SIC	46	RC	1	2	23MD	1	0	0.744600057602	348.0	47.0	344	46	1
1.7	2015_Jul_27_1521	s	s	14	1	SIC	47	ABS	1	0	24MC	0	1	4.09549403191	None	None	None	None	1
1.7	2015_Jul_27_1521	s	s	14	1	SIC	48	ABS	0	2	24RD	0	1	1.87089300156	None	None	None	None	1
1.7	2015_Jul_27_1521	s	s	14	1	SIC	49	RC	2	2	23VD	1	0	0.856106042862	340.0	-377.0	347	-374	1
1.7	2015_Jul_27_1521	s	s	14	1	SIC	50	RC	2	0	23VC	1	0	1.0533220768	449.0	-303.0	452	-301	1
1.7	2015_Jul_27_1521	s	s	14	1	SIC	51	RC	1	1	23MO	1	0	0.630370855331	19.0	-40.0	22	-42	1
1.7	2015_Jul_27_1521	s	s	14	1	SIC	52	ABS	1	0	24MC	0	1	4.43126487732	None	None	None	None	1
1.7	2015_Jul_27_1521	s	s	14	1	SIC	53	ABS	2	0	24VC	0	1	1.34746813774	None	None	None	None	1
1.7	2015_Jul_27_1521	s	s	14	1	SIC	54	RC	0	1	23RO	1	0	4.17791318893	-61.0	-400.0	-67	-397	1
1.7	2015_Jul_27_1521	s	s	14	1	SIC	55	ABS	1	2	24MD	0	1	2.13012290001	None	None	None	None	1
1.7	2015_Jul_27_1521	s	s	14	1	SIC	56	ABS	0	2	24RD	0	1	2.43192195892	None	None	None	None	1
1.7	2015_Jul_27_1521	s	s	14	1	SIC	57	ABS	2	1	24VO	0	1	2.09459495544	None	None	None	None	1
1.7	2015_Jul_27_1521	s	s	14	1	SIC	58	ABS	2	2	24VD	0	1	1.0704908371	None	None	None	None	1
1.7	2015_Jul_27_1521	s	s	14	1	SIC	59	RC	1	2	23MD	1	0	0.560633182526	-175.0	-222.0	-167	-216	1
1.7	2015_Jul_27_1521	s	s	14	1	SIC	60	RC	0	2	23RD	1	0	0.917401075363	227.0	-25.0	227	-23	1
1.7	2015_Jul_27_1521	s	s	14	1	SIC	61	ABS	1	1	24MO	0	1	6.05322813988	None	None	None	None	1
1.7	2015_Jul_27_1521	s	s	14	1	SIC	62	RC	1	0	23MC	1	0	7.1169629097	436.0	-144.0	438	-154	1
1.7	2015_Jul_27_1521	s	s	14	1	SIC	63	ABS	0	1	24RO	0	1	3.65531802177	None	None	None	None	1
1.7	2015_Jul_27_1521	s	s	14	1	SIC	64	RC	2	1	23VO	1	0	0.773721218109	-51.0	-315.0	-47	-318	1
1.7	2015_Jul_27_1521	s	s	14	1	SIC	65	RC	2	1	23VO	1	0	0.835102081299	149.0	290.0	144	286	1
1.7	2015_Jul_27_1521	s	s	14	1	SIC	66	ABS	0	2	24RD	0	1	1.82972097397	None	None	None	None	1
1.7	2015_Jul_27_1521	s	s	14	1	SIC	67	RC	1	1	23MO	1	0	1.36483097076	-417.0	-113.0	-413	-116	1
1.7	2015_Jul_27_1521	s	s	14	1	SIC	68	RC	1	0	23MC	1	0	2.77015018463	234.0	-255.0	234	-252	1
1.7	2015_Jul_27_1521	s	s	14	1	SIC	69	RC	2	0	23VC	1	0	1.57662200928	411.0	-218.0	414	-217	1
1.7	2015_Jul_27_1521	s	s	14	1	SIC	70	RC	0	2	23RD	1	0	0.750123977661	-445.0	272.0	-444	278	1
1.7	2015_Jul_27_1521	s	s	14	1	SIC	71	RC	1	2	23MD	1	0	0.653330087662	-313.0	-395.0	-315	-397	1
1.7	2015_Jul_27_1521	s	s	14	1	SIC	72	ABS	2	0	24VC	0	1	2.70665407181	None	None	None	None	1
1.7	2015_Jul_27_1521	s	s	14	1	SIC	73	ABS	2	2	24VD	0	1	1.22007107735	None	None	None	None	1
1.7	2015_Jul_27_1521	s	s	14	1	SIC	74	RC	2	2	23VD	1	0	0.702265024185	157.0	368.0	156	371	1
1.7	2015_Jul_27_1521	s	s	14	1	SIC	75	ABS	1	0	24MC	0	1	5.06808495522	None	None	None	None	1
1.7	2015_Jul_27_1521	s	s	14	1	SIC	76	RC	0	1	23RO	1	0	2.43589687347	300.0	182.0	299	188	1
1.7	2015_Jul_27_1521	s	s	14	1	SIC	77	ABS	2	1	24VO	0	1	1.1528339386	None	None	None	None	1
1.7	2015_Jul_27_1521	s	s	14	1	SIC	78	ABS	1	1	24MO	0	1	5.39976286888	None	None	None	None	1
1.7	2015_Jul_27_1521	s	s	14	1	SIC	79	ABS	0	1	24RO	0	1	4.61340785027	None	None	None	None	1
1.7	2015_Jul_27_1521	s	s	14	1	SIC	80	ABS	1	2	24MD	0	1	1.85959601402	None	None	None	None	1
1.7	2015_Jul_27_1521	s	s	14	1	SIC	81	RC	1	2	23MD	1	0	0.830919027328	100.0	-248.0	95	-257	1
1.7	2015_Jul_27_1521	s	s	14	1	SIC	82	ABS	2	2	24VD	0	1	1.22088599205	None	None	None	None	1
1.7	2015_Jul_27_1521	s	s	14	1	SIC	83	RC	2	0	23VC	1	0	0.552574157715	230.0	-167.0	230	-170	1
1.7	2015_Jul_27_1521	s	s	14	1	SIC	84	RC	1	1	23MO	1	0	0.795508146286	-7.0	-95.0	-3	-90	1
1.7	2015_Jul_27_1521	s	s	14	1	SIC	85	ABS	0	2	24RD	0	1	1.9014878273	None	None	None	None	1
1.7	2015_Jul_27_1521	s	s	14	1	SIC	86	RC	2	2	23VD	1	0	0.552567005157	117.0	-312.0	112	-309	1
1.7	2015_Jul_27_1521	s	s	14	1	SIC	87	RC	0	1	23RO	1	0	1.23222589493	-105.0	-45.0	-114	-40	1
1.7	2015_Jul_27_1521	s	s	14	1	SIC	88	RC	1	0	23MC	1	0	1.01764297485	90.0	-358.0	82	-360	1
1.7	2015_Jul_27_1521	s	s	14	1	SIC	89	ABS	1	0	24MC	0	1	3.4575920105	None	None	None	None	1
1.7	2015_Jul_27_1521	s	s	14	1	SIC	90	ABS	1	1	24MO	0	1	3.3776140213	None	None	None	None	1
1.7	2015_Jul_27_1521	s	s	14	1	SIC	91	ABS	0	1	24RO	0	1	5.42155885696	None	None	None	None	1
1.7	2015_Jul_27_1521	s	s	14	1	SIC	92	ABS	2	1	24VO	0	1	1.49428510666	None	None	None	None	1
1.7	2015_Jul_27_1521	s	s	14	1	SIC	93	RC	0	2	23RD	1	0	1.17164182663	466.0	-350.0	471	-347	1
1.7	2015_Jul_27_1521	s	s	14	1	SIC	94	ABS	1	2	24MD	0	1	1.64720702171	None	None	None	None	1
1.7	2015_Jul_27_1521	s	s	14	1	SIC	95	RC	2	1	23VO	1	0	1.19788193703	85.0	340.0	89	346	1
1.7	2015_Jul_27_1521	s	s	14	1	SIC	96	ABS	2	0	24VC	0	1	0.917424917221	None	None	None	None	1
1.7	2015_Jul_27_1521	s	s	14	1	SIC	97	ABS	2	2	24VD	0	1	1.11273002625	None	None	None	None	1
1.7	2015_Jul_27_1521	s	s	14	1	SIC	98	ABS	0	1	24RO	0	1	5.67668008804	None	None	None	None	1
1.7	2015_Jul_27_1521	s	s	14	1	SIC	99	ABS	1	1	24MO	0	1	2.99513196945	None	None	None	None	1
1.7	2015_Jul_27_1521	s	s	14	1	SIC	100	RC	1	2	23MD	1	0	0.523854017258	-302.0	49.0	-301	50	1
1.7	2015_Jul_27_1521	s	s	14	1	SIC	101	ABS	2	1	24VO	0	1	1.94160294533	None	None	None	None	1
1.7	2015_Jul_27_1521	s	s	14	1	SIC	102	RC	2	1	23VO	1	0	0.732848882675	265.0	-97.0	255	-91	1
1.7	2015_Jul_27_1521	s	s	14	1	SIC	103	ABS	2	0	24VC	0	1	0.776237010956	None	None	None	None	1
1.7	2015_Jul_27_1521	s	s	14	1	SIC	104	ABS	1	0	24MC	0	1	3.62468099594	None	None	None	None	1
1.7	2015_Jul_27_1521	s	s	14	1	SIC	105	RC	0	2	23RD	1	0	0.744704961777	0.0	229.0	2	233	1
1.7	2015_Jul_27_1521	s	s	14	1	SIC	106	RC	2	2	23VD	1	0	0.936133861542	497.0	169.0	498	167	1
1.7	2015_Jul_27_1521	s	s	14	1	SIC	107	RC	1	0	23MC	1	0	1.12430500984	-138.0	38.0	-138	40	1
1.7	2015_Jul_27_1521	s	s	14	1	SIC	108	ABS	0	2	24RD	0	1	1.80027508736	None	None	None	None	1
1.7	2015_Jul_27_1521	s	s	14	1	SIC	109	RC	0	1	23RO	1	0	4.87248396873	-528.0	98.0	-533	95	1
1.7	2015_Jul_27_1521	s	s	14	1	SIC	110	ABS	1	2	24MD	0	1	1.76497387886	None	None	None	None	1
1.7	2015_Jul_27_1521	s	s	14	1	SIC	111	RC	2	0	23VC	1	0	0.500659942627	-233.0	-276.0	-223	-277	1
1.7	2015_Jul_27_1521	s	s	14	1	SIC	112	RC	1	1	23MO	1	0	1.28913092613	-185.0	120.0	-187	118	1
1.7	2015_Jul_27_1521	s	s	14	1	SIC	113	ABS	1	1	24MO	0	1	2.96551799774	None	None	None	None	1
1.7	2015_Jul_27_1521	s	s	14	1	SIC	114	RC	1	1	23MO	1	0	3.14218711853	348.0	88.0	343	90	1
1.7	2015_Jul_27_1521	s	s	14	1	SIC	115	ABS	1	2	24MD	0	1	1.70144104958	None	None	None	None	1
1.7	2015_Jul_27_1521	s	s	14	1	SIC	116	RC	2	1	23VO	1	0	0.844660997391	319.0	373.0	314	376	1
1.7	2015_Jul_27_1521	s	s	14	1	SIC	117	RC	0	2	23RD	1	0	2.66541218758	443.0	407.0	448	405	1
1.7	2015_Jul_27_1521	s	s	14	1	SIC	118	ABS	2	2	24VD	0	1	1.01158595085	None	None	None	None	1
1.7	2015_Jul_27_1521	s	s	14	1	SIC	119	ABS	2	1	24VO	0	1	0.847197055817	None	None	None	None	1
1.7	2015_Jul_27_1521	s	s	14	1	SIC	120	RC	1	0	23MC	1	0	1.6119658947	77.0	-79.0	75	-75	1
1.7	2015_Jul_27_1521	s	s	14	1	SIC	121	ABS	0	2	24RD	0	1	2.08274793625	None	None	None	None	1
1.7	2015_Jul_27_1521	s	s	14	1	SIC	122	ABS	2	0	24VC	0	1	1.42362809181	None	None	None	None	1
1.7	2015_Jul_27_1521	s	s	14	1	SIC	123	RC	2	0	23VC	1	0	0.972018003464	-539.0	-177.0	-551	-174	1
1.7	2015_Jul_27_1521	s	s	14	1	SIC	124	RC	2	2	23VD	1	0	0.641972064972	29.0	172.0	40	173	1
1.7	2015_Jul_27_1521	s	s	14	1	SIC	125	RC	1	2	23MD	1	0	0.587733983994	132.0	-232.0	131	-234	1
1.7	2015_Jul_27_1521	s	s	14	1	SIC	126	ABS	0	1	24RO	0	1	4.44520187378	None	None	None	None	1
1.7	2015_Jul_27_1521	s	s	14	1	SIC	127	ABS	1	0	24MC	0	1	3.19628095627	None	None	None	None	1
1.7	2015_Jul_27_1521	s	s	14	1	SIC	128	RC	0	1	23RO	1	0	3.61290812492	389.0	229.0	390	225	1
1.7	2015_Jul_27_1521	s	s	14	1	SIC	129	RC	0	1	23RO	1	0	3.86004805565	433.0	-216.0	435	-217	1
1.7	2015_Jul_27_1521	s	s	14	1	SIC	130	RC	1	2	23MD	1	0	1.26631498337	431.0	374.0	437	370	1
1.7	2015_Jul_27_1521	s	s	14	1	SIC	131	ABS	2	2	24VD	0	1	2.04299783707	None	None	None	None	1
1.7	2015_Jul_27_1521	s	s	14	1	SIC	132	RC	0	2	23RD	1	0	0.885841846466	22.0	403.0	25	402	1
1.7	2015_Jul_27_1521	s	s	14	1	SIC	133	ABS	0	1	24RO	0	1	9.78908705711	None	None	None	None	1
1.7	2015_Jul_27_1521	s	s	14	1	SIC	134	ABS	0	2	24RD	0	1	1.20934605598	None	None	None	None	1
1.7	2015_Jul_27_1521	s	s	14	1	SIC	135	ABS	1	2	24MD	0	1	2.5535531044	None	None	None	None	1
1.7	2015_Jul_27_1521	s	s	14	1	SIC	136	ABS	2	1	24VO	0	1	1.34842395782	None	None	None	None	1
1.7	2015_Jul_27_1521	s	s	14	1	SIC	137	ABS	1	1	24MO	0	1	5.6445119381	None	None	None	None	1
1.7	2015_Jul_27_1521	s	s	14	1	SIC	138	RC	2	1	23VO	1	0	0.59964299202	-149.0	-55.0	-145	-53	1
1.7	2015_Jul_27_1521	s	s	14	1	SIC	139	RC	1	0	23MC	1	0	4.07809495926	262.0	-146.0	269	-143	1
1.7	2015_Jul_27_1521	s	s	14	1	SIC	140	ABS	2	0	24VC	0	1	1.20043301582	None	None	None	None	1
1.7	2015_Jul_27_1521	s	s	14	1	SIC	141	ABS	1	0	24MC	0	1	4.39698600769	None	None	None	None	1
1.7	2015_Jul_27_1521	s	s	14	1	SIC	142	RC	2	2	23VD	1	0	0.544659137726	146.0	-261.0	153	-257	1
1.7	2015_Jul_27_1521	s	s	14	1	SIC	143	RC	1	1	23MO	1	0	0.8233730793	-49.0	-243.0	-52	-245	1
1.7	2015_Jul_27_1521	s	s	14	1	SIC	144	RC	2	0	23VC	1	0	0.570947885513	226.0	-288.0	233	-284	1
1.7	2015_Jul_27_1521	s	s	14	1	SIC	145	RC	0	1	23RO	1	0	6.5267560482	536.0	295.0	536	297	1
1.7	2015_Jul_27_1521	s	s	14	1	SIC	146	ABS	0	2	24RD	0	1	2.30667805672	None	None	None	None	1
1.7	2015_Jul_27_1521	s	s	14	1	SIC	147	ABS	2	1	24VO	0	1	0.96454501152	None	None	None	None	1
1.7	2015_Jul_27_1521	s	s	14	1	SIC	148	RC	0	2	23RD	1	0	0.917297840118	-322.0	-361.0	-323	-356	1
1.7	2015_Jul_27_1521	s	s	14	1	SIC	149	ABS	2	2	24VD	0	1	0.823279857635	None	None	None	None	1
1.7	2015_Jul_27_1521	s	s	14	1	SIC	150	RC	2	0	23VC	1	0	0.970280170441	503.0	301.0	496	296	1
1.7	2015_Jul_27_1521	s	s	14	1	SIC	151	ABS	1	1	24MO	0	1	5.61143803596	None	None	None	None	1
1.7	2015_Jul_27_1521	s	s	14	1	SIC	152	ABS	0	1	24RO	0	1	5.84607982635	None	None	None	None	1
1.7	2015_Jul_27_1521	s	s	14	1	SIC	153	RC	1	0	23MC	1	0	1.36478209496	-299.0	-20.0	-291	-19	1
1.7	2015_Jul_27_1521	s	s	14	1	SIC	154	ABS	1	0	24MC	0	1	7.62676286697	None	None	None	None	1
1.7	2015_Jul_27_1521	s	s	14	1	SIC	155	RC	1	1	23MO	1	0	3.20085287094	-145.0	204.0	-148	211	1
1.7	2015_Jul_27_1521	s	s	14	1	SIC	156	ABS	1	2	24MD	0	1	1.70606303215	None	None	None	None	1
1.7	2015_Jul_27_1521	s	s	14	1	SIC	157	RC	2	1	23VO	1	0	0.54087805748	133.0	-355.0	139	-358	1
1.7	2015_Jul_27_1521	s	s	14	1	SIC	158	RC	2	2	23VD	1	0	0.797221183777	15.0	-331.0	13	-338	1
1.7	2015_Jul_27_1521	s	s	14	1	SIC	159	RC	1	2	23MD	1	0	1.09433102608	-502.0	263.0	-506	265	1
1.7	2015_Jul_27_1521	s	s	14	1	SIC	160	ABS	2	0	24VC	0	1	0.917838096619	None	None	None	None	1
1.7	2015_Jul_27_1521	s	s	14	1	SIC	161	ABS	1	1	24MO	0	1	3.83172702789	None	None	None	None	1
1.7	2015_Jul_27_1521	s	s	14	1	SIC	162	RC	2	0	23VC	1	0	0.88890004158	478.0	160.0	478	168	1
1.7	2015_Jul_27_1521	s	s	14	1	SIC	163	ABS	1	2	24MD	0	1	1.50117397308	None	None	None	None	1
1.7	2015_Jul_27_1521	s	s	14	1	SIC	164	ABS	0	2	24RD	0	1	1.8084051609	None	None	None	None	1
1.7	2015_Jul_27_1521	s	s	14	1	SIC	165	ABS	1	0	24MC	0	1	2.83610796928	None	None	None	None	1
1.7	2015_Jul_27_1521	s	s	14	1	SIC	166	RC	1	2	23MD	1	0	0.654171943665	362.0	51.0	357	57	1
1.7	2015_Jul_27_1521	s	s	14	1	SIC	167	ABS	2	0	24VC	0	1	1.00807905197	None	None	None	None	1
1.7	2015_Jul_27_1521	s	s	14	1	SIC	168	RC	0	2	23RD	1	0	0.717365026474	-257.0	-409.0	-255	-406	1
1.7	2015_Jul_27_1521	s	s	14	1	SIC	169	ABS	2	1	24VO	0	1	0.808841943741	None	None	None	None	1
1.7	2015_Jul_27_1521	s	s	14	1	SIC	170	ABS	2	2	24VD	0	1	0.72910284996	None	None	None	None	1
1.7	2015_Jul_27_1521	s	s	14	1	SIC	171	RC	1	0	23MC	1	0	2.76305890083	149.0	238.0	142	234	1
1.7	2015_Jul_27_1521	s	s	14	1	SIC	172	ABS	0	1	24RO	0	1	3.94261908531	None	None	None	None	1
1.7	2015_Jul_27_1521	s	s	14	1	SIC	173	RC	2	1	23VO	1	0	0.634948015213	-517.0	-134.0	-523	-136	1
1.7	2015_Jul_27_1521	s	s	14	1	SIC	174	RC	2	2	23VD	1	0	0.541237831116	-354.0	134.0	-348	132	1
1.7	2015_Jul_27_1521	s	s	14	1	SIC	175	RC	1	1	23MO	1	0	3.58943295479	-477.0	184.0	-481	182	1
1.7	2015_Jul_27_1521	s	s	14	1	SIC	176	RC	0	1	23RO	1	0	4.00721597672	-46.0	133.0	-42	134	1
1.7	2015_Jul_27_1521	s	s	14	1	SIC	177	ABS	1	2	24MD	0	1	2.00887203217	None	None	None	None	1
1.7	2015_Jul_27_1521	s	s	14	1	SIC	178	ABS	1	0	24MC	0	1	4.9725959301	None	None	None	None	1
1.7	2015_Jul_27_1521	s	s	14	1	SIC	179	RC	0	2	23RD	1	0	0.737504005432	-368.0	-192.0	-363	-197	1
1.7	2015_Jul_27_1521	s	s	14	1	SIC	180	RC	2	0	23VC	1	0	0.558532953262	-389.0	-4.0	-391	0	1
1.7	2015_Jul_27_1521	s	s	14	1	SIC	181	RC	2	1	23VO	1	0	0.77033495903	-189.0	362.0	-189	367	1
1.7	2015_Jul_27_1521	s	s	14	1	SIC	182	ABS	0	2	24RD	0	1	1.40016317368	None	None	None	None	1
1.7	2015_Jul_27_1521	s	s	14	1	SIC	183	ABS	2	1	24VO	0	1	1.25871300697	None	None	None	None	1
1.7	2015_Jul_27_1521	s	s	14	1	SIC	184	RC	1	2	23MD	1	0	0.858580112457	78.0	168.0	80	168	1
1.7	2015_Jul_27_1521	s	s	14	1	SIC	185	ABS	2	0	24VC	0	1	0.665694952011	None	None	None	None	1
1.7	2015_Jul_27_1521	s	s	14	1	SIC	186	ABS	2	2	24VD	0	1	0.968339204788	None	None	None	None	1
1.7	2015_Jul_27_1521	s	s	14	1	SIC	187	ABS	1	1	24MO	0	1	3.58553099632	None	None	None	None	1
1.7	2015_Jul_27_1521	s	s	14	1	SIC	188	RC	0	1	23RO	0	1	3.47654485703	189.0	348.0	None	None	0
1.7	2015_Jul_27_1521	s	s	14	1	SIC	189	RC	2	2	23VD	1	0	0.621011972427	445.0	0.0	445	1	1
1.7	2015_Jul_27_1521	s	s	14	1	SIC	190	ABS	0	1	24RO	0	1	4.32666301727	None	None	None	None	1
1.7	2015_Jul_27_1521	s	s	14	1	SIC	191	RC	1	0	23MC	1	0	2.47113490105	105.0	346.0	107	346	1
1.7	2015_Jul_27_1521	s	s	14	1	SIC	192	RC	1	1	23MO	1	0	3.17370009422	362.0	87.0	367	91	1
1.7	2015_Jul_27_1521	s	s	14	1	SIC	193	RC	1	0	23MC	1	0	1.31753897667	512.0	-348.0	509	-346	1
1.7	2015_Jul_27_1521	s	s	14	1	SIC	194	RC	1	2	23MD	1	0	0.87409901619	401.0	314.0	401	316	1
1.7	2015_Jul_27_1521	s	s	14	1	SIC	195	ABS	1	1	24MO	0	1	2.44764399529	None	None	None	None	1
1.7	2015_Jul_27_1521	s	s	14	1	SIC	196	ABS	2	1	24VO	0	1	0.867929935455	None	None	None	None	1
1.7	2015_Jul_27_1521	s	s	14	1	SIC	197	ABS	1	0	24MC	0	1	5.82339382172	None	None	None	None	1
1.7	2015_Jul_27_1521	s	s	14	1	SIC	198	RC	0	1	23RO	1	0	2.98670697212	219.0	-45.0	222	-44	1
1.7	2015_Jul_27_1521	s	s	14	1	SIC	199	RC	2	0	23VC	1	0	0.620780944824	-76.0	-251.0	-80	-249	1
1.7	2015_Jul_27_1521	s	s	14	1	SIC	200	RC	1	1	23MO	1	0	1.10097789764	-70.0	-196.0	-66	-188	1
1.7	2015_Jul_27_1521	s	s	14	1	SIC	201	RC	0	2	23RD	1	0	0.641223192215	-533.0	-100.0	-531	-97	1
1.7	2015_Jul_27_1521	s	s	14	1	SIC	202	ABS	2	2	24VD	0	1	0.703297138214	None	None	None	None	1
1.7	2015_Jul_27_1521	s	s	14	1	SIC	203	RC	2	2	23VD	1	0	0.488244056702	52.0	37.0	56	36	1
1.7	2015_Jul_27_1521	s	s	14	1	SIC	204	ABS	2	0	24VC	0	1	0.658525943756	None	None	None	None	1
1.7	2015_Jul_27_1521	s	s	14	1	SIC	205	RC	2	1	23VO	1	0	0.464679002762	-431.0	-59.0	-425	-58	1
1.7	2015_Jul_27_1521	s	s	14	1	SIC	206	ABS	0	2	24RD	0	1	1.7956571579	None	None	None	None	1
1.7	2015_Jul_27_1521	s	s	14	1	SIC	207	ABS	0	1	24RO	0	1	4.55120301247	None	None	None	None	1
1.7	2015_Jul_27_1521	s	s	14	1	SIC	208	ABS	1	2	24MD	0	1	1.1999630928	None	None	None	None	1
1.7	2015_Jul_27_1521	s	s	14	1	SIC	209	ABS	2	1	24VO	0	1	1.43529391289	None	None	None	None	1
1.7	2015_Jul_27_1521	s	s	14	1	SIC	210	RC	2	1	23VO	1	0	0.585529088974	100.0	260.0	96	264	1
1.7	2015_Jul_27_1521	s	s	14	1	SIC	211	RC	2	2	23VD	1	0	0.56067109108	-346.0	-178.0	-333	-174	1
1.7	2015_Jul_27_1521	s	s	14	1	SIC	212	RC	1	2	23MD	1	0	0.750254869461	-191.0	281.0	-189	288	1
1.7	2015_Jul_27_1521	s	s	14	1	SIC	213	RC	1	1	23MO	1	0	0.917394161224	175.0	-142.0	180	-141	1
1.7	2015_Jul_27_1521	s	s	14	1	SIC	214	ABS	1	0	24MC	0	1	3.9162299633	None	None	None	None	1
1.7	2015_Jul_27_1521	s	s	14	1	SIC	215	ABS	2	0	24VC	0	1	0.935376882553	None	None	None	None	1
1.7	2015_Jul_27_1521	s	s	14	1	SIC	216	ABS	2	2	24VD	0	1	0.823375225067	None	None	None	None	1
1.7	2015_Jul_27_1521	s	s	14	1	SIC	217	ABS	0	1	24RO	0	1	5.63206505775	None	None	None	None	1
1.7	2015_Jul_27_1521	s	s	14	1	SIC	218	ABS	0	2	24RD	0	1	0.962026834488	None	None	None	None	1
1.7	2015_Jul_27_1521	s	s	14	1	SIC	219	RC	2	0	23VC	1	0	0.634873867035	409.0	-36.0	411	-35	1
1.7	2015_Jul_27_1521	s	s	14	1	SIC	220	RC	0	1	23RO	1	0	1.37644886971	287.0	397.0	289	398	1
1.7	2015_Jul_27_1521	s	s	14	1	SIC	221	RC	0	2	23RD	1	0	0.564368009567	-94.0	-92.0	-95	-93	1
1.7	2015_Jul_27_1521	s	s	14	1	SIC	222	ABS	1	2	24MD	0	1	1.26598715782	None	None	None	None	1
1.7	2015_Jul_27_1521	s	s	14	1	SIC	223	RC	1	0	23MC	1	0	4.40664315224	-168.0	-228.0	-169	-225	1
1.7	2015_Jul_27_1521	s	s	14	1	SIC	224	ABS	1	1	24MO	0	1	3.33049583435	None	None	None	None	1
1.7	2015_Jul_27_1521	s	s	14	1	SIC	225	ABS	1	1	24MO	0	1	3.20099592209	None	None	None	None	1
1.7	2015_Jul_27_1521	s	s	14	1	SIC	226	ABS	1	2	24MD	0	1	1.97428512573	None	None	None	None	1
1.7	2015_Jul_27_1521	s	s	14	1	SIC	227	ABS	2	2	24VD	0	1	0.926268100739	None	None	None	None	1
1.7	2015_Jul_27_1521	s	s	14	1	SIC	228	RC	2	1	23VO	1	0	0.584451198578	187.0	277.0	190	284	1
1.7	2015_Jul_27_1521	s	s	14	1	SIC	229	RC	1	1	23MO	1	0	0.940922021866	-26.0	251.0	-35	260	1
1.7	2015_Jul_27_1521	s	s	14	1	SIC	230	RC	1	0	23MC	1	0	1.38567590714	-149.0	372.0	-150	375	1
1.7	2015_Jul_27_1521	s	s	14	1	SIC	231	ABS	1	0	24MC	0	1	2.86347985268	None	None	None	None	1
1.7	2015_Jul_27_1521	s	s	14	1	SIC	232	RC	2	0	23VC	1	0	0.514913082123	-519.0	69.0	-519	72	1
1.7	2015_Jul_27_1521	s	s	14	1	SIC	233	RC	0	1	23RO	1	0	2.64775896072	-498.0	221.0	-500	222	1
1.7	2015_Jul_27_1521	s	s	14	1	SIC	234	ABS	0	2	24RD	0	1	1.51496696472	None	None	None	None	1
1.7	2015_Jul_27_1521	s	s	14	1	SIC	235	ABS	2	1	24VO	0	1	0.688940048218	None	None	None	None	1
1.7	2015_Jul_27_1521	s	s	14	1	SIC	236	RC	1	2	23MD	1	0	0.499839067459	126.0	-80.0	120	-81	1
1.7	2015_Jul_27_1521	s	s	14	1	SIC	237	ABS	2	0	24VC	0	1	0.641475915909	None	None	None	None	1
1.7	2015_Jul_27_1521	s	s	14	1	SIC	238	RC	2	2	23VD	1	0	0.517311811447	-145.0	328.0	-146	330	1
1.7	2015_Jul_27_1521	s	s	14	1	SIC	239	RC	0	2	23RD	1	0	0.712150812149	399.0	139.0	404	140	1
1.7	2015_Jul_27_1521	s	s	14	1	SIC	240	ABS	0	1	24RO	0	1	4.29364514351	None	None	None	None	1
1.7	2015_Jul_27_1521	s	s	14	1	SIC	241	RC	1	2	23MD	1	0	0.64230298996	-33.0	341.0	-32	346	1
1.7	2015_Jul_27_1521	s	s	14	1	SIC	242	ABS	2	2	24VD	0	1	0.823263883591	None	None	None	None	1
1.7	2015_Jul_27_1521	s	s	14	1	SIC	243	ABS	1	0	24MC	0	1	3.71350216866	None	None	None	None	1
1.7	2015_Jul_27_1521	s	s	14	1	SIC	244	ABS	2	1	24VO	0	1	0.693695068359	None	None	None	None	1
1.7	2015_Jul_27_1521	s	s	14	1	SIC	245	ABS	1	1	24MO	0	1	4.43171691895	None	None	None	None	1
1.7	2015_Jul_27_1521	s	s	14	1	SIC	246	ABS	0	2	24RD	0	1	1.2318778038	None	None	None	None	1
1.7	2015_Jul_27_1521	s	s	14	1	SIC	247	RC	1	1	23MO	1	0	1.07944297791	462.0	370.0	466	363	1
1.7	2015_Jul_27_1521	s	s	14	1	SIC	248	RC	0	2	23RD	1	0	1.32470917702	309.0	-83.0	303	-78	1
1.7	2015_Jul_27_1521	s	s	14	1	SIC	249	RC	0	1	23RO	1	0	2.27109313011	355.0	-379.0	356	-381	1
1.7	2015_Jul_27_1521	s	s	14	1	SIC	250	RC	2	0	23VC	1	0	1.04214191437	242.0	109.0	240	109	1
1.7	2015_Jul_27_1521	s	s	14	1	SIC	251	RC	2	2	23VD	1	0	0.70187997818	-394.0	340.0	-403	344	1
1.7	2015_Jul_27_1521	s	s	14	1	SIC	252	RC	1	0	23MC	1	0	1.38580012321	19.0	205.0	16	202	1
1.7	2015_Jul_27_1521	s	s	14	1	SIC	253	RC	2	1	23VO	1	0	1.42999601364	438.0	384.0	439	385	1
1.7	2015_Jul_27_1521	s	s	14	1	SIC	254	ABS	1	2	24MD	0	1	1.23198103905	None	None	None	None	1
1.7	2015_Jul_27_1521	s	s	14	1	SIC	255	ABS	2	0	24VC	0	1	0.831876039505	None	None	None	None	1
1.7	2015_Jul_27_1521	s	s	14	1	SIC	256	ABS	0	1	24RO	0	1	3.27831792831	None	None	None	None	1
1.7	2015_Jul_27_1521	s	s	14	1	SIC	257	RC	1	0	23MC	1	0	1.16462087631	-8.0	154.0	-12	160	1
1.7	2015_Jul_27_1521	s	s	14	1	SIC	258	RC	2	0	23VC	1	0	0.559736967087	532.0	119.0	532	117	1
1.7	2015_Jul_27_1521	s	s	14	1	SIC	259	ABS	1	1	24MO	0	1	2.58307814598	None	None	None	None	1
1.7	2015_Jul_27_1521	s	s	14	1	SIC	260	ABS	1	2	24MD	0	1	1.40693593025	None	None	None	None	1
1.7	2015_Jul_27_1521	s	s	14	1	SIC	261	ABS	2	0	24VC	0	1	0.587953090668	None	None	None	None	1
1.7	2015_Jul_27_1521	s	s	14	1	SIC	262	ABS	2	1	24VO	0	1	0.66312122345	None	None	None	None	1
1.7	2015_Jul_27_1521	s	s	14	1	SIC	263	RC	0	1	23RO	1	0	4.14644098282	-304.0	-257.0	-306	-260	1
1.7	2015_Jul_27_1521	s	s	14	1	SIC	264	ABS	1	0	24MC	0	1	4.69584202766	None	None	None	None	1
1.7	2015_Jul_27_1521	s	s	14	1	SIC	265	ABS	0	2	24RD	0	1	0.87709903717	None	None	None	None	1
1.7	2015_Jul_27_1521	s	s	14	1	SIC	266	RC	1	1	23MO	1	0	1.29401993752	-524.0	-165.0	-532	-163	1
1.7	2015_Jul_27_1521	s	s	14	1	SIC	267	ABS	2	2	24VD	0	1	0.912774085999	None	None	None	None	1
1.7	2015_Jul_27_1521	s	s	14	1	SIC	268	RC	2	2	23VD	1	0	0.587913036346	333.0	-253.0	334	-251	1
1.7	2015_Jul_27_1521	s	s	14	1	SIC	269	RC	0	2	23RD	1	0	0.570441007614	-281.0	190.0	-279	183	1
1.7	2015_Jul_27_1521	s	s	14	1	SIC	270	RC	1	2	23MD	1	0	1.43526601791	-421.0	-176.0	-428	-174	1
1.7	2015_Jul_27_1521	s	s	14	1	SIC	271	RC	2	1	23VO	1	0	0.682109117508	-215.0	-127.0	-209	-122	1
1.7	2015_Jul_27_1521	s	s	14	1	SIC	272	ABS	0	1	24RO	0	1	4.23334908485	None	None	None	None	1
1.7	2015_Jul_27_1521	s	s	14	1	SIC	273	RC	2	1	23VO	1	0	0.799777030945	481.0	354.0	476	357	1
1.7	2015_Jul_27_1521	s	s	14	1	SIC	274	RC	1	1	23MO	1	0	3.20138597488	-82.0	-177.0	-85	-182	1
1.7	2015_Jul_27_1521	s	s	14	1	SIC	275	ABS	1	2	24MD	0	1	1.4471449852	None	None	None	None	1
1.7	2015_Jul_27_1521	s	s	14	1	SIC	276	ABS	0	1	24RO	0	1	5.30789518356	None	None	None	None	1
1.7	2015_Jul_27_1521	s	s	14	1	SIC	277	RC	2	2	23VD	1	0	0.703086853027	-488.0	-241.0	-482	-240	1
1.7	2015_Jul_27_1521	s	s	14	1	SIC	278	RC	1	2	23MD	1	0	0.980014801025	-307.0	314.0	-303	319	1
1.7	2015_Jul_27_1521	s	s	14	1	SIC	279	ABS	0	2	24RD	0	1	1.30965209007	None	None	None	None	1
1.7	2015_Jul_27_1521	s	s	14	1	SIC	280	ABS	1	1	24MO	0	1	3.62510704994	None	None	None	None	1
1.7	2015_Jul_27_1521	s	s	14	1	SIC	281	RC	0	2	23RD	1	0	0.547412157059	-334.0	-52.0	-325	-52	1
1.7	2015_Jul_27_1521	s	s	14	1	SIC	282	RC	1	0	23MC	1	0	4.40784692764	490.0	396.0	492	400	1
1.7	2015_Jul_27_1521	s	s	14	1	SIC	283	ABS	2	2	24VD	0	1	0.605913877487	None	None	None	None	1
1.7	2015_Jul_27_1521	s	s	14	1	SIC	284	RC	2	0	23VC	1	0	0.512937068939	182.0	187.0	178	192	1
1.7	2015_Jul_27_1521	s	s	14	1	SIC	285	ABS	2	0	24VC	0	1	0.846665143967	None	None	None	None	1
1.7	2015_Jul_27_1521	s	s	14	1	SIC	286	ABS	1	0	24MC	0	1	4.94692993164	None	None	None	None	1
1.7	2015_Jul_27_1521	s	s	14	1	SIC	287	ABS	2	1	24VO	0	1	0.784831047058	None	None	None	None	1
1.7	2015_Jul_27_1521	s	s	14	1	SIC	288	RC	0	1	23RO	1	0	0.964646100998	-485.0	-65.0	-494	-68	1
1.7	2015_Jul_27_1521	s	s	14	1	SIC	289	ABS	2	1	24VO	0	1	0.711724042892	None	None	None	None	1
1.7	2015_Jul_27_1521	s	s	14	1	SIC	290	RC	1	2	23MD	1	0	0.517330169678	148.0	157.0	152	159	1
1.7	2015_Jul_27_1521	s	s	14	1	SIC	291	RC	2	2	23VD	1	0	0.550380945206	477.0	190.0	477	196	1
1.7	2015_Jul_27_1521	s	s	14	1	SIC	292	ABS	0	2	24RD	0	1	1.38316106796	None	None	None	None	1
1.7	2015_Jul_27_1521	s	s	14	1	SIC	293	RC	2	0	23VC	1	0	1.0553560257	82.0	12.0	90	8	1
1.7	2015_Jul_27_1521	s	s	14	1	SIC	294	ABS	0	1	24RO	0	1	3.44553518295	None	None	None	None	1
1.7	2015_Jul_27_1521	s	s	14	1	SIC	295	RC	1	0	23MC	1	0	2.54169988632	-132.0	293.0	-134	287	1
1.7	2015_Jul_27_1521	s	s	14	1	SIC	296	ABS	1	2	24MD	0	1	0.846807956696	None	None	None	None	1
1.7	2015_Jul_27_1521	s	s	14	1	SIC	297	ABS	1	1	24MO	0	1	3.25634598732	None	None	None	None	1
1.7	2015_Jul_27_1521	s	s	14	1	SIC	298	RC	0	2	23RD	1	0	0.688803911209	232.0	124.0	238	122	1
1.7	2015_Jul_27_1521	s	s	14	1	SIC	299	ABS	2	2	24VD	0	1	0.673873186111	None	None	None	None	1
1.7	2015_Jul_27_1521	s	s	14	1	SIC	300	RC	2	1	23VO	1	0	0.570654153824	-353.0	-351.0	-351	-349	1
1.7	2015_Jul_27_1521	s	s	14	1	SIC	301	RC	0	1	23RO	1	0	4.00121092796	-17.0	303.0	-14	306	1
1.7	2015_Jul_27_1521	s	s	14	1	SIC	302	ABS	1	0	24MC	0	1	3.95109391212	None	None	None	None	1
1.7	2015_Jul_27_1521	s	s	14	1	SIC	303	ABS	2	0	24VC	0	1	0.96077299118	None	None	None	None	1
1.7	2015_Jul_27_1521	s	s	14	1	SIC	304	RC	1	1	23MO	1	0	3.53062796593	-537.0	259.0	-529	264	1
1.7	2015_Jul_27_1521	s	s	14	1	SIC	305	ABS	1	1	24MO	0	1	3.83678197861	None	None	None	None	1
1.7	2015_Jul_27_1521	s	s	14	1	SIC	306	ABS	2	1	24VO	0	1	1.07767605782	None	None	None	None	1
1.7	2015_Jul_27_1521	s	s	14	1	SIC	307	RC	1	1	23MO	1	0	0.709735870361	-92.0	-8.0	-89	-11	1
1.7	2015_Jul_27_1521	s	s	14	1	SIC	308	ABS	2	0	24VC	0	1	0.74462389946	None	None	None	None	1
1.7	2015_Jul_27_1521	s	s	14	1	SIC	309	RC	1	0	23MC	1	0	1.69902086258	-467.0	-359.0	-458	-351	1
1.7	2015_Jul_27_1521	s	s	14	1	SIC	310	RC	2	2	23VD	1	0	0.57052898407	-469.0	10.0	-468	13	1
1.7	2015_Jul_27_1521	s	s	14	1	SIC	311	ABS	1	0	24MC	0	1	3.95187783241	None	None	None	None	1
1.7	2015_Jul_27_1521	s	s	14	1	SIC	312	RC	2	1	23VO	1	0	0.740961074829	501.0	-346.0	502	-346	1
1.7	2015_Jul_27_1521	s	s	14	1	SIC	313	RC	0	2	23RD	1	0	1.36052417755	448.0	-397.0	448	-392	1
1.7	2015_Jul_27_1521	s	s	14	1	SIC	314	ABS	1	2	24MD	0	1	1.16456890106	None	None	None	None	1
1.7	2015_Jul_27_1521	s	s	14	1	SIC	315	ABS	2	2	24VD	0	1	0.561891078949	None	None	None	None	1
1.7	2015_Jul_27_1521	s	s	14	1	SIC	316	RC	1	2	23MD	1	0	0.559382915497	21.0	36.0	28	41	1
1.7	2015_Jul_27_1521	s	s	14	1	SIC	317	RC	0	1	23RO	0	1	4.1374900341	-145.0	272.0	None	None	0
1.7	2015_Jul_27_1521	s	s	14	1	SIC	318	ABS	0	2	24RD	0	1	1.05905890465	None	None	None	None	1
1.7	2015_Jul_27_1521	s	s	14	1	SIC	319	RC	2	0	23VC	1	0	0.525582075119	-102.0	-48.0	-101	-45	1
1.7	2015_Jul_27_1521	s	s	14	1	SIC	320	ABS	0	1	24RO	0	1	4.4642829895	None	None	None	None	1
1.7	2015_Jul_27_1521	s	s	14	1	SIC	321	ABS	1	1	24MO	0	1	3.24296808243	None	None	None	None	1
1.7	2015_Jul_27_1521	s	s	14	1	SIC	322	ABS	0	2	24RD	0	1	1.15874004364	None	None	None	None	1
1.7	2015_Jul_27_1521	s	s	14	1	SIC	323	RC	0	1	23RO	0	1	4.33794808388	59.0	30.0	None	None	0
1.7	2015_Jul_27_1521	s	s	14	1	SIC	324	ABS	2	0	24VC	0	1	1.00658512115	None	None	None	None	1
1.7	2015_Jul_27_1521	s	s	14	1	SIC	325	ABS	1	0	24MC	0	1	2.93991208076	None	None	None	None	1
1.7	2015_Jul_27_1521	s	s	14	1	SIC	326	ABS	2	1	24VO	0	1	0.599565982819	None	None	None	None	1
1.7	2015_Jul_27_1521	s	s	14	1	SIC	327	ABS	1	2	24MD	0	1	0.712005853653	None	None	None	None	1
1.7	2015_Jul_27_1521	s	s	14	1	SIC	328	ABS	0	1	24RO	0	1	5.79057002068	None	None	None	None	1
1.7	2015_Jul_27_1521	s	s	14	1	SIC	329	RC	2	2	23VD	1	0	0.523862123489	257.0	-28.0	257	-34	1
1.7	2015_Jul_27_1521	s	s	14	1	SIC	330	RC	2	1	23VO	1	0	0.820838928223	229.0	296.0	229	293	1
1.7	2015_Jul_27_1521	s	s	14	1	SIC	331	RC	0	2	23RD	1	0	1.1008181572	-476.0	-212.0	-475	-214	1
1.7	2015_Jul_27_1521	s	s	14	1	SIC	332	RC	2	0	23VC	1	0	0.509265899658	-122.0	-104.0	-114	-99	1
1.7	2015_Jul_27_1521	s	s	14	1	SIC	333	RC	1	0	23MC	1	0	0.905687093735	-77.0	-74.0	-84	-77	1
1.7	2015_Jul_27_1521	s	s	14	1	SIC	334	RC	1	2	23MD	1	0	0.536451101303	261.0	-169.0	267	-161	1
1.7	2015_Jul_27_1521	s	s	14	1	SIC	335	RC	1	1	23MO	1	0	1.38334798813	61.0	-232.0	74	-229	1
1.7	2015_Jul_27_1521	s	s	14	1	SIC	336	ABS	2	2	24VD	0	1	0.662274122238	None	None	None	None	1
1.7	2015_Jul_27_1521	s	s	14	1	SIC	337	ABS	1	0	24MC	0	1	3.94028997421	None	None	None	None	1
1.7	2015_Jul_27_1521	s	s	14	1	SIC	338	RC	0	2	23RD	1	0	0.670271873474	-505.0	101.0	-514	97	1
1.7	2015_Jul_27_1521	s	s	14	1	SIC	339	RC	0	1	23RO	1	0	1.3717648983	-493.0	-10.0	-505	-7	1
1.7	2015_Jul_27_1521	s	s	14	1	SIC	340	ABS	2	0	24VC	0	1	1.28637480736	None	None	None	None	1
1.7	2015_Jul_27_1521	s	s	14	1	SIC	341	ABS	2	1	24VO	0	1	0.747825145721	None	None	None	None	1
1.7	2015_Jul_27_1521	s	s	14	1	SIC	342	RC	1	2	23MD	1	0	0.616759061813	-67.0	-79.0	-68	-77	1
1.7	2015_Jul_27_1521	s	s	14	1	SIC	343	RC	1	1	23MO	1	0	1.57416009903	535.0	-289.0	530	-284	1
1.7	2015_Jul_27_1521	s	s	14	1	SIC	344	RC	2	0	23VC	1	0	0.77385020256	427.0	208.0	422	206	1
1.7	2015_Jul_27_1521	s	s	14	1	SIC	345	RC	2	1	23VO	1	0	0.536450147629	-342.0	-33.0	-345	-32	1
1.7	2015_Jul_27_1521	s	s	14	1	SIC	346	ABS	1	1	24MO	0	1	3.62129998207	None	None	None	None	1
1.7	2015_Jul_27_1521	s	s	14	1	SIC	347	RC	2	2	23VD	1	0	0.446630954742	-73.0	106.0	-70	101	1
1.7	2015_Jul_27_1521	s	s	14	1	SIC	348	RC	1	0	23MC	0	1	2.73645186424	-180.0	-115.0	None	None	0
1.7	2015_Jul_27_1521	s	s	14	1	SIC	349	ABS	1	2	24MD	0	1	1.04452013969	None	None	None	None	1
1.7	2015_Jul_27_1521	s	s	14	1	SIC	350	ABS	0	2	24RD	0	1	1.95343589783	None	None	None	None	1
1.7	2015_Jul_27_1521	s	s	14	1	SIC	351	ABS	2	2	24VD	0	1	1.01169013977	None	None	None	None	1
1.7	2015_Jul_27_1521	s	s	14	1	SIC	352	ABS	0	1	24RO	0	1	4.06775808334	None	None	None	None	1
1.7	2015_Jul_27_1521	s	s	14	1	SIC	353	RC	2	2	23VD	1	0	0.485872983932	201.0	-144.0	201	-138	1
1.7	2015_Jul_27_1521	s	s	14	1	SIC	354	ABS	0	2	24RD	0	1	1.52673792839	None	None	None	None	1
1.7	2015_Jul_27_1521	s	s	14	1	SIC	355	RC	0	1	23RO	1	0	1.37087893486	-73.0	-173.0	-71	-164	1
1.7	2015_Jul_27_1521	s	s	14	1	SIC	356	ABS	2	2	24VD	0	1	1.37148284912	None	None	None	None	1
1.7	2015_Jul_27_1521	s	s	14	1	SIC	357	ABS	0	1	24RO	0	1	5.66111278534	None	None	None	None	1
1.7	2015_Jul_27_1521	s	s	14	1	SIC	358	RC	1	1	23MO	1	0	0.913208007812	22.0	-164.0	24	-178	1
1.7	2015_Jul_27_1521	s	s	14	1	SIC	359	ABS	1	0	24MC	0	1	4.98580408096	None	None	None	None	1
1.7	2015_Jul_27_1521	s	s	14	1	SIC	360	RC	1	0	23MC	1	0	3.44350910187	-198.0	158.0	-200	158	1
1.7	2015_Jul_27_1521	s	s	14	1	SIC	361	ABS	2	1	24VO	0	1	0.823580980301	None	None	None	None	1
1.7	2015_Jul_27_1521	s	s	14	1	SIC	362	RC	0	2	23RD	1	0	0.576133966446	55.0	-189.0	61	-197	1
1.7	2015_Jul_27_1521	s	s	14	1	SIC	363	ABS	2	0	24VC	0	1	0.599735021591	None	None	None	None	1
1.7	2015_Jul_27_1521	s	s	14	1	SIC	364	RC	1	2	23MD	1	0	0.65864610672	404.0	-284.0	406	-287	1
1.7	2015_Jul_27_1521	s	s	14	1	SIC	365	RC	2	1	23VO	1	0	0.597304105759	176.0	101.0	182	102	1
1.7	2015_Jul_27_1521	s	s	14	1	SIC	366	ABS	1	2	24MD	0	1	1.04171419144	None	None	None	None	1
1.7	2015_Jul_27_1521	s	s	14	1	SIC	367	ABS	1	1	24MO	0	1	4.12867498398	None	None	None	None	1
1.7	2015_Jul_27_1521	s	s	14	1	SIC	368	RC	2	0	23VC	1	0	0.705623865128	-239.0	-353.0	-235	-347	1
1.7	2015_Jul_27_1521	s	s	14	1	SIC	369	ABS	2	2	24VD	0	1	0.729103803635	None	None	None	None	1
1.7	2015_Jul_27_1521	s	s	14	1	SIC	370	RC	1	2	23MD	1	0	0.435076951981	21.0	30.0	15	33	1
1.7	2015_Jul_27_1521	s	s	14	1	SIC	371	ABS	0	2	24RD	0	1	1.19285202026	None	None	None	None	1
1.7	2015_Jul_27_1521	s	s	14	1	SIC	372	ABS	2	0	24VC	0	1	0.762095928192	None	None	None	None	1
1.7	2015_Jul_27_1521	s	s	14	1	SIC	373	ABS	0	1	24RO	0	1	3.84836101532	None	None	None	None	1
1.7	2015_Jul_27_1521	s	s	14	1	SIC	374	RC	1	1	23MO	1	0	1.04698586464	-509.0	90.0	-522	93	1
1.7	2015_Jul_27_1521	s	s	14	1	SIC	375	ABS	1	2	24MD	0	1	1.05303311348	None	None	None	None	1
1.7	2015_Jul_27_1521	s	s	14	1	SIC	376	RC	2	0	23VC	1	0	0.876538991928	239.0	318.0	239	314	1
1.7	2015_Jul_27_1521	s	s	14	1	SIC	377	ABS	1	0	24MC	0	1	2.47127985954	None	None	None	None	1
1.7	2015_Jul_27_1521	s	s	14	1	SIC	378	RC	2	2	23VD	1	0	0.443120002747	-285.0	97.0	-282	103	1
1.7	2015_Jul_27_1521	s	s	14	1	SIC	379	ABS	2	1	24VO	0	1	0.596837043762	None	None	None	None	1
1.7	2015_Jul_27_1521	s	s	14	1	SIC	380	RC	1	0	23MC	1	0	2.19819498062	519.0	-347.0	528	-343	1
1.7	2015_Jul_27_1521	s	s	14	1	SIC	381	ABS	1	1	24MO	0	1	3.33625388145	None	None	None	None	1
1.7	2015_Jul_27_1521	s	s	14	1	SIC	382	RC	0	2	23RD	1	0	0.465306043625	-115.0	-57.0	-112	-54	1
1.7	2015_Jul_27_1521	s	s	14	1	SIC	383	RC	0	1	23RO	1	0	1.03000020981	-123.0	-306.0	-123	-302	1
1.7	2015_Jul_27_1521	s	s	14	1	SIC	384	RC	2	1	23VO	1	0	0.560821056366	25.0	16.0	29	15	1
1.7	2015_Jul_27_1521	s	s	14	1	SIC	385	RC	2	1	23VO	1	0	0.500540971756	-112.0	183.0	-109	190	1
1.7	2015_Jul_27_1521	s	s	14	1	SIC	386	RC	0	2	23RD	1	0	0.611428976059	226.0	-61.0	221	-60	1
1.7	2015_Jul_27_1521	s	s	14	1	SIC	387	RC	1	0	23MC	0	1	2.57442688942	-347.0	-259.0	None	None	0
1.7	2015_Jul_27_1521	s	s	14	1	SIC	388	ABS	2	0	24VC	0	1	0.629502058029	None	None	None	None	1
1.7	2015_Jul_27_1521	s	s	14	1	SIC	389	ABS	0	2	24RD	0	1	1.18823504448	None	None	None	None	1
1.7	2015_Jul_27_1521	s	s	14	1	SIC	390	ABS	1	0	24MC	0	1	2.07091808319	None	None	None	None	1
1.7	2015_Jul_27_1521	s	s	14	1	SIC	391	RC	0	1	23RO	1	0	1.51198601723	-369.0	-117.0	-368	-109	1
1.7	2015_Jul_27_1521	s	s	14	1	SIC	392	RC	1	2	23MD	1	0	0.630071878433	-419.0	-273.0	-422	-267	1
1.7	2015_Jul_27_1521	s	s	14	1	SIC	393	ABS	1	1	24MO	0	1	2.86889886856	None	None	None	None	1
1.7	2015_Jul_27_1521	s	s	14	1	SIC	394	RC	1	1	23MO	1	0	0.99656701088	8.0	101.0	4	99	1
1.7	2015_Jul_27_1521	s	s	14	1	SIC	395	ABS	0	1	24RO	0	1	3.94252419472	None	None	None	None	1
1.7	2015_Jul_27_1521	s	s	14	1	SIC	396	ABS	1	2	24MD	0	1	1.08829689026	None	None	None	None	1
1.7	2015_Jul_27_1521	s	s	14	1	SIC	397	RC	2	2	23VD	1	0	0.550142049789	63.0	57.0	58	51	1
1.7	2015_Jul_27_1521	s	s	14	1	SIC	398	ABS	2	1	24VO	0	1	0.723009824753	None	None	None	None	1
1.7	2015_Jul_27_1521	s	s	14	1	SIC	399	RC	2	0	23VC	1	0	0.587801933289	95.0	212.0	95	211	1
1.7	2015_Jul_27_1521	s	s	14	1	SIC	400	ABS	2	2	24VD	0	1	0.700845003128	None	None	None	None	1
1.7	2015_Jul_27_1521	s	s	14	1	SIC	401	ABS	2	1	24VO	1	0	0.905699014664	None	None	39	62	0
1.7	2015_Jul_27_1521	s	s	14	1	SIC	402	ABS	1	0	24MC	0	1	4.01301598549	None	None	None	None	1
1.7	2015_Jul_27_1521	s	s	14	1	SIC	403	RC	0	1	23RO	1	0	2.83605384827	457.0	54.0	460	60	1
1.7	2015_Jul_27_1521	s	s	14	1	SIC	404	ABS	1	2	24MD	0	1	1.68993806839	None	None	None	None	1
1.7	2015_Jul_27_1521	s	s	14	1	SIC	405	RC	1	0	23MC	1	0	3.93920111656	196.0	-81.0	190	-85	1
1.7	2015_Jul_27_1521	s	s	14	1	SIC	406	ABS	2	0	24VC	0	1	0.841553926468	None	None	None	None	1
1.7	2015_Jul_27_1521	s	s	14	1	SIC	407	RC	2	1	23VO	1	0	0.572448968887	-348.0	279.0	-352	282	1
1.7	2015_Jul_27_1521	s	s	14	1	SIC	408	ABS	1	1	24MO	0	1	2.79816484451	None	None	None	None	1
1.7	2015_Jul_27_1521	s	s	14	1	SIC	409	ABS	0	2	24RD	0	1	1.50651812553	None	None	None	None	1
1.7	2015_Jul_27_1521	s	s	14	1	SIC	410	RC	0	2	23RD	1	0	1.37651896477	510.0	387.0	508	382	1
1.7	2015_Jul_27_1521	s	s	14	1	SIC	411	RC	1	1	23MO	1	0	3.48153400421	528.0	-355.0	530	-352	1
1.7	2015_Jul_27_1521	s	s	14	1	SIC	412	ABS	0	1	24RO	0	1	4.45547103882	None	None	None	None	1
1.7	2015_Jul_27_1521	s	s	14	1	SIC	413	RC	2	0	23VC	1	0	0.69421505928	45.0	385.0	47	387	1
1.7	2015_Jul_27_1521	s	s	14	1	SIC	414	ABS	2	2	24VD	0	1	0.870712041855	None	None	None	None	1
1.7	2015_Jul_27_1521	s	s	14	1	SIC	415	RC	1	2	23MD	1	0	0.701970100403	-317.0	-383.0	-313	-383	1
1.7	2015_Jul_27_1521	s	s	14	1	SIC	416	RC	2	2	23VD	1	0	0.690634965897	-528.0	-267.0	-527	-270	1
1.7	2015_Jul_27_1521	s	s	14	1	SIC	417	RC	2	1	23VO	1	0	0.576099157333	-419.0	-258.0	-421	-261	1
1.7	2015_Jul_27_1521	s	s	14	1	SIC	418	ABS	0	1	24RO	0	1	6.34752583504	None	None	None	None	1
1.7	2015_Jul_27_1521	s	s	14	1	SIC	419	RC	0	2	23RD	1	0	0.740942955017	406.0	-280.0	413	-283	1
1.7	2015_Jul_27_1521	s	s	14	1	SIC	420	RC	0	1	23RO	1	0	4.6094250679	293.0	6.0	305	13	1
1.7	2015_Jul_27_1521	s	s	14	1	SIC	421	ABS	1	0	24MC	0	1	5.34325194359	None	None	None	None	1
1.7	2015_Jul_27_1521	s	s	14	1	SIC	422	ABS	2	1	24VO	0	1	0.749521970749	None	None	None	None	1
1.7	2015_Jul_27_1521	s	s	14	1	SIC	423	RC	2	0	23VC	1	0	0.53583407402	-487.0	199.0	-485	195	1
1.7	2015_Jul_27_1521	s	s	14	1	SIC	424	RC	1	0	23MC	1	0	1.90116810799	153.0	56.0	161	54	1
1.7	2015_Jul_27_1521	s	s	14	1	SIC	425	RC	1	1	23MO	1	0	1.16091299057	-516.0	-194.0	-526	-188	1
1.7	2015_Jul_27_1521	s	s	14	1	SIC	426	ABS	1	2	24MD	0	1	2.11846399307	None	None	None	None	1
1.7	2015_Jul_27_1521	s	s	14	1	SIC	427	RC	1	2	23MD	1	0	0.748409986496	-12.0	145.0	-14	147	1
1.7	2015_Jul_27_1521	s	s	14	1	SIC	428	ABS	2	0	24VC	0	1	0.799735069275	None	None	None	None	1
1.7	2015_Jul_27_1521	s	s	14	1	SIC	429	ABS	1	1	24MO	0	1	3.48343300819	None	None	None	None	1
1.7	2015_Jul_27_1521	s	s	14	1	SIC	430	ABS	2	2	24VD	0	1	0.700425863266	None	None	None	None	1
1.7	2015_Jul_27_1521	s	s	14	1	SIC	431	ABS	0	2	24RD	0	1	1.94139814377	None	None	None	None	1
1.7	2015_Jul_27_1521	s	s	14	1	SIC	432	RC	2	2	23VD	1	0	0.665390014648	55.0	176.0	63	175	1
1.7	2015_Jul_27_1521	s	s	14	1	SIC	433	RC	1	0	23MC	1	0	3.68360090256	-386.0	-309.0	-379	-305	1
1.7	2015_Jul_27_1521	s	s	14	1	SIC	434	ABS	2	0	24VC	0	1	0.691469907761	None	None	None	None	1
1.7	2015_Jul_27_1521	s	s	14	1	SIC	435	ABS	1	1	24MO	0	1	4.4776198864	None	None	None	None	1
1.7	2015_Jul_27_1521	s	s	14	1	SIC	436	RC	1	1	23MO	1	0	2.18599891663	385.0	-56.0	383	-56	1
1.7	2015_Jul_27_1521	s	s	14	1	SIC	437	RC	1	2	23MD	1	0	0.523524999619	-363.0	114.0	-365	116	1
1.7	2015_Jul_27_1521	s	s	14	1	SIC	438	RC	2	1	23VO	1	0	0.583958864212	-33.0	-181.0	-37	-186	1
1.7	2015_Jul_27_1521	s	s	14	1	SIC	439	RC	0	2	23RD	1	0	0.846909046173	-152.0	313.0	-152	319	1
1.7	2015_Jul_27_1521	s	s	14	1	SIC	440	RC	2	2	23VD	1	0	0.564335107803	-113.0	-383.0	-107	-375	1
1.7	2015_Jul_27_1521	s	s	14	1	SIC	441	ABS	2	2	24VD	1	0	0.710264921188	None	None	98	108	0
1.7	2015_Jul_27_1521	s	s	14	1	SIC	442	RC	0	1	23RO	1	0	3.41289901733	335.0	-196.0	338	-193	1
1.7	2015_Jul_27_1521	s	s	14	1	SIC	443	RC	2	0	23VC	1	0	1.02942991257	-160.0	346.0	-158	355	1
1.7	2015_Jul_27_1521	s	s	14	1	SIC	444	ABS	0	1	24RO	1	0	4.95452404022	None	None	86	5	0
1.7	2015_Jul_27_1521	s	s	14	1	SIC	445	ABS	2	1	24VO	0	1	0.988117933273	None	None	None	None	1
1.7	2015_Jul_27_1521	s	s	14	1	SIC	446	ABS	0	2	24RD	0	1	1.37652397156	None	None	None	None	1
1.7	2015_Jul_27_1521	s	s	14	1	SIC	447	ABS	1	2	24MD	0	1	1.67454099655	None	None	None	None	1
1.7	2015_Jul_27_1521	s	s	14	1	SIC	448	ABS	1	0	24MC	0	1	4.96429514885	None	None	None	None	1
1.7	2015_Jul_27_1521	s	s	14	1	SIC	449	RC	2	0	23VC	1	0	0.597491025925	129.0	33.0	135	25	1
1.7	2015_Jul_27_1521	s	s	14	1	SIC	450	ABS	2	2	24VD	0	1	0.679050207138	None	None	None	None	1
1.7	2015_Jul_27_1521	s	s	14	1	SIC	451	RC	0	2	23RD	1	0	0.999835968018	-461.0	-267.0	-455	-269	1
1.7	2015_Jul_27_1521	s	s	14	1	SIC	452	ABS	0	2	24RD	0	1	1.67681598663	None	None	None	None	1
1.7	2015_Jul_27_1521	s	s	14	1	SIC	453	ABS	1	1	24MO	0	1	4.7865459919	None	None	None	None	1
1.7	2015_Jul_27_1521	s	s	14	1	SIC	454	ABS	0	1	24RO	0	1	5.45843195915	None	None	None	None	1
1.7	2015_Jul_27_1521	s	s	14	1	SIC	455	RC	1	0	23MC	1	0	5.07958889008	-136.0	245.0	-129	249	1
1.7	2015_Jul_27_1521	s	s	14	1	SIC	456	RC	0	1	23RO	0	1	3.94253706932	406.0	123.0	None	None	0
1.7	2015_Jul_27_1521	s	s	14	1	SIC	457	ABS	2	0	24VC	0	1	0.811501979828	None	None	None	None	1
1.7	2015_Jul_27_1521	s	s	14	1	SIC	458	ABS	1	2	24MD	0	1	0.858617067337	None	None	None	None	1
1.7	2015_Jul_27_1521	s	s	14	1	SIC	459	ABS	2	1	24VO	0	1	0.68213891983	None	None	None	None	1
1.7	2015_Jul_27_1521	s	s	14	1	SIC	460	RC	2	2	23VD	1	0	0.571004152298	208.0	144.0	217	145	1
1.7	2015_Jul_27_1521	s	s	14	1	SIC	461	ABS	1	0	24MC	0	1	2.58893799782	None	None	None	None	1
1.7	2015_Jul_27_1521	s	s	14	1	SIC	462	RC	1	2	23MD	1	0	0.571152210236	343.0	-65.0	348	-65	1
1.7	2015_Jul_27_1521	s	s	14	1	SIC	463	RC	1	1	23MO	1	0	1.55040001869	-233.0	292.0	-232	293	1
1.7	2015_Jul_27_1521	s	s	14	1	SIC	464	RC	2	1	23VO	1	0	0.517367124557	-97.0	-96.0	-98	-93	1
1.7	2015_Jul_27_1521	s	s	14	1	SIC	465	RC	2	0	23VC	1	0	0.548145055771	232.0	-199.0	244	-197	1
1.7	2015_Jul_27_1521	s	s	14	1	SIC	466	ABS	1	1	24MO	0	1	3.18918180466	None	None	None	None	1
1.7	2015_Jul_27_1521	s	s	14	1	SIC	467	RC	2	2	23VD	1	0	0.529359817505	-4.0	197.0	2	190	1
1.7	2015_Jul_27_1521	s	s	14	1	SIC	468	ABS	0	1	24RO	0	1	4.41316199303	None	None	None	None	1
1.7	2015_Jul_27_1521	s	s	14	1	SIC	469	ABS	1	2	24MD	0	1	1.11432886124	None	None	None	None	1
1.7	2015_Jul_27_1521	s	s	14	1	SIC	470	ABS	1	0	24MC	0	1	2.89139413834	None	None	None	None	1
1.7	2015_Jul_27_1521	s	s	14	1	SIC	471	ABS	2	2	24VD	0	1	0.668047904968	None	None	None	None	1
1.7	2015_Jul_27_1521	s	s	14	1	SIC	472	ABS	2	0	24VC	0	1	0.529224157333	None	None	None	None	1
1.7	2015_Jul_27_1521	s	s	14	1	SIC	473	ABS	2	1	24VO	0	1	0.627144098282	None	None	None	None	1
1.7	2015_Jul_27_1521	s	s	14	1	SIC	474	RC	0	1	23RO	1	0	2.08279418945	-439.0	314.0	-434	321	1
1.7	2015_Jul_27_1521	s	s	14	1	SIC	475	ABS	0	2	24RD	0	1	0.90257191658	None	None	None	None	1
1.7	2015_Jul_27_1521	s	s	14	1	SIC	476	RC	0	2	23RD	1	0	0.587908983231	295.0	367.0	297	363	1
1.7	2015_Jul_27_1521	s	s	14	1	SIC	477	RC	1	2	23MD	1	0	0.584098815918	512.0	154.0	508	157	1
1.7	2015_Jul_27_1521	s	s	14	1	SIC	478	RC	1	0	23MC	1	0	1.88252091408	-38.0	334.0	-36	331	1
1.7	2015_Jul_27_1521	s	s	14	1	SIC	479	RC	1	1	23MO	1	0	0.99752497673	276.0	60.0	279	57	1
1.7	2015_Jul_27_1521	s	s	14	1	SIC	480	RC	2	1	23VO	1	0	0.585381984711	427.0	355.0	427	358	1
1.7	2015_Jul_27_1521	s	s	14	1	SIC	481	ABS	0	2	24RD	0	1	1.22077202797	None	None	None	None	1
1.7	2015_Jul_27_1521	s	s	14	1	SIC	482	ABS	1	1	24MO	0	1	2.30160212517	None	None	None	None	1
1.7	2015_Jul_27_1521	s	s	14	1	SIC	483	RC	0	2	23RD	1	0	0.841085910797	-262.0	-16.0	-267	-20	1
1.7	2015_Jul_27_1521	s	s	14	1	SIC	484	RC	1	1	23MO	1	0	0.750118017197	-294.0	38.0	-294	45	1
1.7	2015_Jul_27_1521	s	s	14	1	SIC	485	ABS	1	2	24MD	0	1	0.611451148987	None	None	None	None	1
1.7	2015_Jul_27_1521	s	s	14	1	SIC	486	ABS	2	1	24VO	0	1	0.724978923798	None	None	None	None	1
1.7	2015_Jul_27_1521	s	s	14	1	SIC	487	RC	0	1	23RO	1	0	3.89547896385	301.0	-152.0	303	-145	1
1.7	2015_Jul_27_1521	s	s	14	1	SIC	488	ABS	1	0	24MC	0	1	2.22142696381	None	None	None	None	1
1.7	2015_Jul_27_1521	s	s	14	1	SIC	489	RC	2	1	23VO	1	0	0.6071600914	500.0	353.0	506	355	1
1.7	2015_Jul_27_1521	s	s	14	1	SIC	490	ABS	2	0	24VC	0	1	0.788135051727	None	None	None	None	1
1.7	2015_Jul_27_1521	s	s	14	1	SIC	491	ABS	2	2	24VD	0	1	0.599637031555	None	None	None	None	1
1.7	2015_Jul_27_1521	s	s	14	1	SIC	492	ABS	0	1	24RO	0	1	3.76978516579	None	None	None	None	1
1.7	2015_Jul_27_1521	s	s	14	1	SIC	493	RC	2	2	23VD	1	0	0.50551199913	-155.0	-191.0	-149	-187	1
1.7	2015_Jul_27_1521	s	s	14	1	SIC	494	RC	1	0	23MC	1	0	1.30588102341	139.0	-90.0	140	-88	1
1.7	2015_Jul_27_1521	s	s	14	1	SIC	495	RC	2	0	23VC	1	0	0.54717206955	416.0	-4.0	414	-8	1
1.7	2015_Jul_27_1521	s	s	14	1	SIC	496	RC	1	2	23MD	1	0	0.889024019241	-126.0	235.0	-121	236	1
1.7	2015_Jul_27_1521	s	s	14	1	SIC	497	ABS	2	1	24VO	0	1	0.773761987686	None	None	None	None	1
1.7	2015_Jul_27_1521	s	s	14	1	SIC	498	RC	1	2	23MD	1	0	0.434897899628	-76.0	-20.0	-84	-13	1
1.7	2015_Jul_27_1521	s	s	14	1	SIC	499	ABS	2	2	24VD	0	1	1.11757588387	None	None	None	None	1
1.7	2015_Jul_27_1521	s	s	14	1	SIC	500	ABS	2	0	24VC	0	1	0.540809869766	None	None	None	None	1
1.7	2015_Jul_27_1521	s	s	14	1	SIC	501	ABS	0	2	24RD	0	1	1.44713997841	None	None	None	None	1
1.7	2015_Jul_27_1521	s	s	14	1	SIC	502	ABS	1	0	24MC	0	1	1.84395217896	None	None	None	None	1
1.7	2015_Jul_27_1521	s	s	14	1	SIC	503	RC	0	2	23RD	1	0	0.808079957962	512.0	-55.0	508	-62	1
1.7	2015_Jul_27_1521	s	s	14	1	SIC	504	RC	2	2	23VD	1	0	0.493762969971	-109.0	151.0	-119	150	1
1.7	2015_Jul_27_1521	s	s	14	1	SIC	505	ABS	0	1	24RO	0	1	3.56583094597	None	None	None	None	1
1.7	2015_Jul_27_1521	s	s	14	1	SIC	506	RC	1	1	23MO	1	0	2.10627889633	188.0	179.0	191	179	1
1.7	2015_Jul_27_1521	s	s	14	1	SIC	507	RC	2	1	23VO	1	0	0.619828939438	450.0	243.0	450	243	1
1.7	2015_Jul_27_1521	s	s	14	1	SIC	508	RC	1	0	23MC	1	0	2.50645709038	311.0	212.0	318	215	1
1.7	2015_Jul_27_1521	s	s	14	1	SIC	509	RC	0	1	23RO	1	0	3.50706386566	492.0	-284.0	489	-284	1
1.7	2015_Jul_27_1521	s	s	14	1	SIC	510	RC	2	0	23VC	1	0	0.658499002457	466.0	122.0	460	120	1
1.7	2015_Jul_27_1521	s	s	14	1	SIC	511	ABS	1	2	24MD	0	1	1.12327599525	None	None	None	None	1
1.7	2015_Jul_27_1521	s	s	14	1	SIC	512	ABS	1	1	24MO	0	1	1.78857803345	None	None	None	None	1
1.7	2015_Jul_27_1521	s	s	14	1	SIC	513	ABS	2	0	24VC	0	1	0.633067131042	None	None	None	None	1
1.7	2015_Jul_27_1521	s	s	14	1	SIC	514	RC	2	2	23VD	1	0	0.499389886856	-376.0	-161.0	-374	-156	1
1.7	2015_Jul_27_1521	s	s	14	1	SIC	515	RC	0	2	23RD	1	0	0.503338098526	-25.0	-25.0	-21	-22	1
1.7	2015_Jul_27_1521	s	s	14	1	SIC	516	ABS	0	2	24RD	0	1	1.11731600761	None	None	None	None	1
1.7	2015_Jul_27_1521	s	s	14	1	SIC	517	RC	2	1	23VO	1	0	0.491239070892	-340.0	-387.0	-346	-383	1
1.7	2015_Jul_27_1521	s	s	14	1	SIC	518	RC	2	0	23VC	1	0	0.48991394043	-183.0	150.0	-184	150	1
1.7	2015_Jul_27_1521	s	s	14	1	SIC	519	ABS	2	2	24VD	0	1	0.552577018738	None	None	None	None	1
1.7	2015_Jul_27_1521	s	s	14	1	SIC	520	ABS	1	1	24MO	0	1	3.34885811806	None	None	None	None	1
1.7	2015_Jul_27_1521	s	s	14	1	SIC	521	ABS	1	2	24MD	0	1	1.30341792107	None	None	None	None	1
1.7	2015_Jul_27_1521	s	s	14	1	SIC	522	RC	1	0	23MC	0	1	3.01265192032	-491.0	116.0	None	None	0
1.7	2015_Jul_27_1521	s	s	14	1	SIC	523	ABS	2	1	24VO	0	1	0.559267997742	None	None	None	None	1
1.7	2015_Jul_27_1521	s	s	14	1	SIC	524	RC	0	1	23RO	1	0	2.70664381981	244.0	-91.0	248	-96	1
1.7	2015_Jul_27_1521	s	s	14	1	SIC	525	ABS	0	1	24RO	0	1	3.60708498955	None	None	None	None	1
1.7	2015_Jul_27_1521	s	s	14	1	SIC	526	RC	1	2	23MD	1	0	0.490321159363	-78.0	-34.0	-76	-32	1
1.7	2015_Jul_27_1521	s	s	14	1	SIC	527	RC	1	1	23MO	1	0	1.25677990913	174.0	-201.0	173	-197	1
1.7	2015_Jul_27_1521	s	s	14	1	SIC	528	ABS	1	0	24MC	0	1	1.79574203491	None	None	None	None	1
1.7	2015_Jul_27_1521	s	s	14	1	SIC	529	ABS	1	2	24MD	0	1	0.677088022232	None	None	None	None	1
1.7	2015_Jul_27_1521	s	s	14	1	SIC	530	ABS	0	2	24RD	0	1	1.02049088478	None	None	None	None	1
1.7	2015_Jul_27_1521	s	s	14	1	SIC	531	ABS	2	2	24VD	0	1	0.605612039566	None	None	None	None	1
1.7	2015_Jul_27_1521	s	s	14	1	SIC	532	ABS	2	0	24VC	0	1	0.536870002747	None	None	None	None	1
1.7	2015_Jul_27_1521	s	s	14	1	SIC	533	RC	1	0	23MC	1	0	1.2824318409	-440.0	-271.0	-447	-269	1
1.7	2015_Jul_27_1521	s	s	14	1	SIC	534	ABS	0	1	24RO	0	1	4.38674807549	None	None	None	None	1
1.7	2015_Jul_27_1521	s	s	14	1	SIC	535	RC	2	1	23VO	1	0	0.49160695076	-281.0	53.0	-270	60	1
1.7	2015_Jul_27_1521	s	s	14	1	SIC	536	ABS	2	1	24VO	0	1	0.634987831116	None	None	None	None	1
1.7	2015_Jul_27_1521	s	s	14	1	SIC	537	ABS	1	0	24MC	0	1	3.4105899334	None	None	None	None	1
1.7	2015_Jul_27_1521	s	s	14	1	SIC	538	RC	0	1	23RO	0	1	3.44440603256	446.0	-74.0	None	None	0
1.7	2015_Jul_27_1521	s	s	14	1	SIC	539	ABS	1	1	24MO	0	1	2.12987399101	None	None	None	None	1
1.7	2015_Jul_27_1521	s	s	14	1	SIC	540	RC	2	2	23VD	1	0	0.479412078857	-61.0	252.0	-58	255	1
1.7	2015_Jul_27_1521	s	s	14	1	SIC	541	RC	0	2	23RD	1	0	1.13555502892	30.0	-167.0	32	-166	1
1.7	2015_Jul_27_1521	s	s	14	1	SIC	542	RC	1	2	23MD	1	0	0.547696828842	-432.0	213.0	-436	209	1
1.7	2015_Jul_27_1521	s	s	14	1	SIC	543	RC	1	1	23MO	1	0	0.48897600174	-18.0	21.0	-14	22	1
1.7	2015_Jul_27_1521	s	s	14	1	SIC	544	RC	2	0	23VC	1	0	0.700456142426	-118.0	-235.0	-117	-232	1
1.7	2015_Jul_27_1521	s	s	14	1	SIC	545	RC	1	0	23MC	1	0	1.93668079376	15.0	-216.0	10	-216	1
1.7	2015_Jul_27_1521	s	s	14	1	SIC	546	ABS	1	0	24MC	0	1	3.2363140583	None	None	None	None	1
1.7	2015_Jul_27_1521	s	s	14	1	SIC	547	ABS	2	0	24VC	0	1	0.700545072556	None	None	None	None	1
1.7	2015_Jul_27_1521	s	s	14	1	SIC	548	ABS	2	2	24VD	0	1	0.666618824005	None	None	None	None	1
1.7	2015_Jul_27_1521	s	s	14	1	SIC	549	ABS	1	1	24MO	0	1	3.1721599102	None	None	None	None	1
1.7	2015_Jul_27_1521	s	s	14	1	SIC	550	RC	0	1	23RO	0	1	2.99517798424	529.0	-12.0	None	None	0
1.7	2015_Jul_27_1521	s	s	14	1	SIC	551	ABS	0	2	24RD	0	1	0.623189926147	None	None	None	None	1
1.7	2015_Jul_27_1521	s	s	14	1	SIC	552	ABS	0	1	24RO	0	1	2.39521789551	None	None	None	None	1
1.7	2015_Jul_27_1521	s	s	14	1	SIC	553	RC	1	2	23MD	1	0	0.638668060303	-497.0	-298.0	-488	-298	1
1.7	2015_Jul_27_1521	s	s	14	1	SIC	554	RC	2	1	23VO	1	0	0.59721493721	-322.0	399.0	-317	394	1
1.7	2015_Jul_27_1521	s	s	14	1	SIC	555	RC	2	0	23VC	1	0	0.505601882935	27.0	-319.0	30	-320	1
1.7	2015_Jul_27_1521	s	s	14	1	SIC	556	RC	0	2	23RD	1	0	0.787922859192	-344.0	-169.0	-348	-165	1
1.7	2015_Jul_27_1521	s	s	14	1	SIC	557	ABS	2	1	24VO	0	1	0.832739830017	None	None	None	None	1
1.7	2015_Jul_27_1521	s	s	14	1	SIC	558	RC	1	1	23MO	1	0	0.994796037674	-407.0	-137.0	-406	-136	1
1.7	2015_Jul_27_1521	s	s	14	1	SIC	559	ABS	1	2	24MD	0	1	0.738411903381	None	None	None	None	1
1.7	2015_Jul_27_1521	s	s	14	1	SIC	560	RC	2	2	23VD	1	0	0.693821907043	-137.0	388.0	-140	389	1
1.7	2015_Jul_27_1521	s	s	14	1	SIC	561	RC	2	2	23VD	1	0	0.503007888794	53.0	-248.0	65	-247	1
1.7	2015_Jul_27_1521	s	s	14	1	SIC	562	ABS	2	2	24VD	0	1	0.594861030579	None	None	None	None	1
1.7	2015_Jul_27_1521	s	s	14	1	SIC	563	ABS	0	1	24RO	0	1	5.48453307152	None	None	None	None	1
1.7	2015_Jul_27_1521	s	s	14	1	SIC	564	ABS	1	1	24MO	0	1	2.67125701904	None	None	None	None	1
1.7	2015_Jul_27_1521	s	s	14	1	SIC	565	RC	2	0	23VC	1	0	0.583554029465	-375.0	19.0	-370	12	1
1.7	2015_Jul_27_1521	s	s	14	1	SIC	566	RC	1	1	23MO	1	0	0.700273990631	-197.0	83.0	-205	85	1
1.7	2015_Jul_27_1521	s	s	14	1	SIC	567	RC	1	2	23MD	1	0	0.466146945953	-384.0	-6.0	-388	-5	1
1.7	2015_Jul_27_1521	s	s	14	1	SIC	568	ABS	2	1	24VO	0	1	0.794886112213	None	None	None	None	1
1.7	2015_Jul_27_1521	s	s	14	1	SIC	569	RC	0	1	23RO	0	1	4.07856583595	388.0	-282.0	None	None	0
1.7	2015_Jul_27_1521	s	s	14	1	SIC	570	RC	2	1	23VO	1	0	0.529055118561	-133.0	-224.0	-136	-226	1
1.7	2015_Jul_27_1521	s	s	14	1	SIC	571	ABS	0	2	24RD	0	1	1.06566691399	None	None	None	None	1
1.7	2015_Jul_27_1521	s	s	14	1	SIC	572	ABS	2	0	24VC	0	1	0.646728038788	None	None	None	None	1
1.7	2015_Jul_27_1521	s	s	14	1	SIC	573	ABS	1	0	24MC	0	1	3.37751913071	None	None	None	None	1
1.7	2015_Jul_27_1521	s	s	14	1	SIC	574	RC	0	2	23RD	1	0	0.579675912857	-382.0	236.0	-381	240	1
1.7	2015_Jul_27_1521	s	s	14	1	SIC	575	ABS	1	2	24MD	0	1	0.867923021317	None	None	None	None	1
1.7	2015_Jul_27_1521	s	s	14	1	SIC	576	RC	1	0	23MC	1	0	0.976350069046	-195.0	-79.0	-184	-72	1
1.7	2015_Jul_27_1521	s	s	14	1	SIC	577	RC	1	2	23MD	1	0	0.623181819916	-168.0	136.0	-173	142	1
1.7	2015_Jul_27_1521	s	s	14	1	SIC	578	RC	2	2	23VD	1	0	0.500459909439	220.0	-329.0	226	-334	1
1.7	2015_Jul_27_1521	s	s	14	1	SIC	579	ABS	1	2	24MD	0	1	1.0092458725	None	None	None	None	1
1.7	2015_Jul_27_1521	s	s	14	1	SIC	580	ABS	2	2	24VD	0	1	0.604207992554	None	None	None	None	1
1.7	2015_Jul_27_1521	s	s	14	1	SIC	581	ABS	1	1	24MO	0	1	3.75421500206	None	None	None	None	1
1.7	2015_Jul_27_1521	s	s	14	1	SIC	582	RC	1	0	23MC	1	0	1.38500189781	-7.0	-287.0	-9	-281	1
1.7	2015_Jul_27_1521	s	s	14	1	SIC	583	ABS	0	2	24RD	0	1	0.905715942383	None	None	None	None	1
1.7	2015_Jul_27_1521	s	s	14	1	SIC	584	ABS	1	0	24MC	0	1	1.80025196075	None	None	None	None	1
1.7	2015_Jul_27_1521	s	s	14	1	SIC	585	RC	0	2	23RD	1	0	0.667570114136	-468.0	254.0	-466	256	1
1.7	2015_Jul_27_1521	s	s	14	1	SIC	586	ABS	2	0	24VC	0	1	0.48973107338	None	None	None	None	1
1.7	2015_Jul_27_1521	s	s	14	1	SIC	587	RC	1	1	23MO	1	0	1.2302441597	-41.0	-145.0	-41	-155	1
1.7	2015_Jul_27_1521	s	s	14	1	SIC	588	ABS	2	1	24VO	0	1	0.481961965561	None	None	None	None	1
1.7	2015_Jul_27_1521	s	s	14	1	SIC	589	RC	2	1	23VO	1	0	0.561028003693	28.0	-318.0	34	-316	1
1.7	2015_Jul_27_1521	s	s	14	1	SIC	590	ABS	0	1	24RO	0	1	2.38551211357	None	None	None	None	1
1.7	2015_Jul_27_1521	s	s	14	1	SIC	591	RC	2	0	23VC	1	0	0.752825975418	-471.0	-408.0	-469	-413	1
1.7	2015_Jul_27_1521	s	s	14	1	SIC	592	RC	0	1	23RO	1	0	1.63552308083	-519.0	-352.0	-517	-353	1
