Version	Date	Stimuli	Method	Subject	Session	Condition	Trial	Target	Channel1	Channel2	Distractors	LMouseButton	RMouseButton	RT	TargetX	TargetY	ResponseX	ResponseY	Correct
1.7	2015_Jul_29_1516	s	s	14	3	Capacity	1	RC	0	2	23RD	1	0	1.05377388	-132.0	-351.0	-129	-354	1
1.7	2015_Jul_29_1516	s	s	14	3	Capacity	2	ABS	0	2	24RD	0	1	1.25610804558	None	None	None	None	1
1.7	2015_Jul_29_1516	s	s	14	3	Capacity	3	ABS	0	1	24RO	0	1	3.90297794342	None	None	None	None	1
1.7	2015_Jul_29_1516	s	s	14	3	Capacity	4	RC	0	1	23RO	0	1	3.78381419182	-422.0	-116.0	None	None	0
1.7	2015_Jul_29_1516	s	s	14	3	Capacity	5	ABS	0	1	24RO	0	1	3.60120201111	None	None	None	None	1
1.7	2015_Jul_29_1516	s	s	14	3	Capacity	6	ABS	0	2	24RD	0	1	0.976298093796	None	None	None	None	1
1.7	2015_Jul_29_1516	s	s	14	3	Capacity	7	RC	0	2	23RD	1	0	0.606354951859	198.0	-133.0	198	-136	1
1.7	2015_Jul_29_1516	s	s	14	3	Capacity	8	RC	0	1	23RO	1	0	2.20032811165	-454.0	-197.0	-451	-202	1
1.7	2015_Jul_29_1516	s	s	14	3	Capacity	9	RC	0	1	23RO	1	0	0.923825025558	-488.0	-166.0	-491	-171	1
1.7	2015_Jul_29_1516	s	s	14	3	Capacity	10	ABS	0	2	24RD	0	1	0.929216861725	None	None	None	None	1
1.7	2015_Jul_29_1516	s	s	14	3	Capacity	11	ABS	0	1	24RO	0	1	3.36001515388	None	None	None	None	1
1.7	2015_Jul_29_1516	s	s	14	3	Capacity	12	RC	0	2	23RD	1	0	0.740956068039	-56.0	-142.0	-57	-137	1
1.7	2015_Jul_29_1516	s	s	14	3	Capacity	13	ABS	0	1	24RO	0	1	4.372164011	None	None	None	None	1
1.7	2015_Jul_29_1516	s	s	14	3	Capacity	14	RC	0	1	23RO	0	1	4.07201004028	-465.0	21.0	None	None	0
1.7	2015_Jul_29_1516	s	s	14	3	Capacity	15	RC	0	2	23RD	1	0	0.560706853867	261.0	-307.0	267	-307	1
1.7	2015_Jul_29_1516	s	s	14	3	Capacity	16	ABS	0	2	24RD	0	1	1.5059261322	None	None	None	None	1
1.7	2015_Jul_29_1516	s	s	14	3	Capacity	17	ABS	0	2	24RD	0	1	1.68241405487	None	None	None	None	1
1.7	2015_Jul_29_1516	s	s	14	3	Capacity	18	RC	0	1	23RO	0	1	4.01326799393	390.0	-340.0	None	None	0
1.7	2015_Jul_29_1516	s	s	14	3	Capacity	19	ABS	0	1	24RO	0	1	4.00138306618	None	None	None	None	1
1.7	2015_Jul_29_1516	s	s	14	3	Capacity	20	RC	0	2	23RD	1	0	0.52392911911	27.0	-278.0	34	-272	1
1.7	2015_Jul_29_1516	s	s	14	3	Capacity	21	RC	0	2	23RD	1	0	0.644217967987	-354.0	-309.0	-353	-311	1
1.7	2015_Jul_29_1516	s	s	14	3	Capacity	22	ABS	0	2	24RD	0	1	1.54801797867	None	None	None	None	1
1.7	2015_Jul_29_1516	s	s	14	3	Capacity	23	RC	0	1	23RO	0	1	4.26935386658	-69.0	162.0	None	None	0
1.7	2015_Jul_29_1516	s	s	14	3	Capacity	24	ABS	0	1	24RO	0	1	3.14841198921	None	None	None	None	1
1.7	2015_Jul_29_1516	s	s	14	3	Capacity	25	RC	0	2	23RD	1	0	0.523386955261	99.0	-304.0	92	-305	1
1.7	2015_Jul_29_1516	s	s	14	3	Capacity	26	RC	0	1	23RO	0	1	3.68361401558	20.0	134.0	None	None	0
1.7	2015_Jul_29_1516	s	s	14	3	Capacity	27	ABS	0	2	24RD	0	1	1.76510620117	None	None	None	None	1
1.7	2015_Jul_29_1516	s	s	14	3	Capacity	28	ABS	0	1	24RO	0	1	4.70394396782	None	None	None	None	1
1.7	2015_Jul_29_1516	s	s	14	3	Capacity	29	RC	0	2	23RD	1	0	0.623291015625	489.0	17.0	479	21	1
1.7	2015_Jul_29_1516	s	s	14	3	Capacity	30	RC	0	1	23RO	1	0	1.34125494957	-64.0	-296.0	-67	-297	1
1.7	2015_Jul_29_1516	s	s	14	3	Capacity	31	ABS	0	2	24RD	0	1	1.42716097832	None	None	None	None	1
1.7	2015_Jul_29_1516	s	s	14	3	Capacity	32	ABS	0	1	24RO	0	1	4.21326398849	None	None	None	None	1
1.7	2015_Jul_29_1516	s	s	14	3	Capacity	33	ABS	0	2	24RD	0	1	1.20689511299	None	None	None	None	1
1.7	2015_Jul_29_1516	s	s	14	3	Capacity	34	RC	0	2	23RD	1	0	0.477833032608	137.0	-28.0	134	-26	1
1.7	2015_Jul_29_1516	s	s	14	3	Capacity	35	RC	0	1	23RO	1	0	1.74139308929	-121.0	346.0	-118	346	1
1.7	2015_Jul_29_1516	s	s	14	3	Capacity	36	ABS	0	1	24RO	0	1	3.93073105812	None	None	None	None	1
1.7	2015_Jul_29_1516	s	s	14	3	Capacity	37	ABS	0	2	24RD	0	1	1.03523421288	None	None	None	None	1
1.7	2015_Jul_29_1516	s	s	14	3	Capacity	38	RC	0	1	23RO	1	0	0.811614990234	39.0	125.0	37	129	1
1.7	2015_Jul_29_1516	s	s	14	3	Capacity	39	RC	0	2	23RD	1	0	0.46530008316	262.0	18.0	259	16	1
1.7	2015_Jul_29_1516	s	s	14	3	Capacity	40	ABS	0	1	24RO	0	1	4.55445480347	None	None	None	None	1
1.7	2015_Jul_29_1516	s	s	14	3	Capacity	41	ABS	0	2	24RD	0	1	1.0067179203	None	None	None	None	1
1.7	2015_Jul_29_1516	s	s	14	3	Capacity	42	RC	0	1	23RO	1	0	3.20722603798	-503.0	21.0	-497	23	1
1.7	2015_Jul_29_1516	s	s	14	3	Capacity	43	ABS	0	1	24RO	0	1	4.28039193153	None	None	None	None	1
1.7	2015_Jul_29_1516	s	s	14	3	Capacity	44	RC	0	2	23RD	1	0	0.761750936508	164.0	405.0	161	400	1
1.7	2015_Jul_29_1516	s	s	14	3	Capacity	45	ABS	0	2	24RD	0	1	0.846639871597	None	None	None	None	1
1.7	2015_Jul_29_1516	s	s	14	3	Capacity	46	RC	0	1	23RO	0	1	6.8000190258	13.0	-201.0	None	None	0
1.7	2015_Jul_29_1516	s	s	14	3	Capacity	47	ABS	0	1	24RO	0	1	3.63646101952	None	None	None	None	1
1.7	2015_Jul_29_1516	s	s	14	3	Capacity	48	RC	0	2	23RD	1	0	0.772540092468	-469.0	-212.0	-462	-218	1
1.7	2015_Jul_29_1516	s	s	14	3	Capacity	49	RC	0	2	23RD	1	0	1.14108395576	-8.0	237.0	-10	236	1
1.7	2015_Jul_29_1516	s	s	14	3	Capacity	50	ABS	0	1	24RO	0	1	3.36615681648	None	None	None	None	1
1.7	2015_Jul_29_1516	s	s	14	3	Capacity	51	RC	0	1	23RO	0	1	4.89048480988	509.0	406.0	None	None	0
1.7	2015_Jul_29_1516	s	s	14	3	Capacity	52	ABS	0	2	24RD	0	1	6.82641100883	None	None	None	None	1
1.7	2015_Jul_29_1516	s	s	14	3	Capacity	53	ABS	0	2	24RD	0	1	1.05852603912	None	None	None	None	1
1.7	2015_Jul_29_1516	s	s	14	3	Capacity	54	ABS	0	1	24RO	0	1	2.87132906914	None	None	None	None	1
1.7	2015_Jul_29_1516	s	s	14	3	Capacity	55	RC	0	1	23RO	1	0	1.35304903984	-436.0	248.0	-432	237	1
1.7	2015_Jul_29_1516	s	s	14	3	Capacity	56	RC	0	2	23RD	1	0	0.603150129318	96.0	-316.0	98	-316	1
1.7	2015_Jul_29_1516	s	s	14	3	Capacity	57	RC	0	1	23RO	1	0	0.938529968262	-241.0	-45.0	-241	-48	1
1.7	2015_Jul_29_1516	s	s	14	3	Capacity	58	ABS	0	2	24RD	0	1	0.761938810349	None	None	None	None	1
1.7	2015_Jul_29_1516	s	s	14	3	Capacity	59	RC	0	2	23RD	1	0	0.784892082214	138.0	-234.0	134	-234	1
1.7	2015_Jul_29_1516	s	s	14	3	Capacity	60	ABS	0	1	24RO	1	0	4.06704092026	None	None	-46	81	0
1.7	2015_Jul_29_1516	s	s	14	3	Capacity	61	ABS	0	2	24RD	0	1	1.00592017174	None	None	None	None	1
1.7	2015_Jul_29_1516	s	s	14	3	Capacity	62	RC	0	2	23RD	1	0	0.57245516777	-459.0	366.0	-461	366	1
1.7	2015_Jul_29_1516	s	s	14	3	Capacity	63	RC	0	1	23RO	1	0	2.57301521301	78.0	-289.0	77	-287	1
1.7	2015_Jul_29_1516	s	s	14	3	Capacity	64	ABS	0	1	24RO	0	1	5.63269686699	None	None	None	None	1
1.7	2015_Jul_29_1516	s	s	14	3	Capacity	65	ABS	0	1	24RO	0	1	3.00611901283	None	None	None	None	1
1.7	2015_Jul_29_1516	s	s	14	3	Capacity	66	RC	0	1	23RO	1	0	1.7269949913	201.0	-226.0	207	-228	1
1.7	2015_Jul_29_1516	s	s	14	3	Capacity	67	RC	0	2	23RD	1	0	0.796617984772	-416.0	-336.0	-420	-343	1
1.7	2015_Jul_29_1516	s	s	14	3	Capacity	68	ABS	0	2	24RD	0	1	3.80125713348	None	None	None	None	1
1.7	2015_Jul_29_1516	s	s	14	3	Capacity	69	RC	0	1	23RO	1	0	1.4082930088	-327.0	-340.0	-209	182	0
1.7	2015_Jul_29_1516	s	s	14	3	Capacity	70	ABS	0	1	24RO	0	1	2.98154306412	None	None	None	None	1
1.7	2015_Jul_29_1516	s	s	14	3	Capacity	71	ABS	0	2	24RD	0	1	0.788008213043	None	None	None	None	1
1.7	2015_Jul_29_1516	s	s	14	3	Capacity	72	RC	0	2	23RD	1	0	0.57609796524	447.0	-19.0	451	-23	1
1.7	2015_Jul_29_1516	s	s	14	3	Capacity	73	ABS	0	2	24RD	0	1	1.27416586876	None	None	None	None	1
1.7	2015_Jul_29_1516	s	s	14	3	Capacity	74	RC	0	1	23RO	1	0	0.760143041611	120.0	98.0	122	90	1
1.7	2015_Jul_29_1516	s	s	14	3	Capacity	75	RC	0	2	23RD	1	0	1.22350597382	-489.0	-100.0	-484	-107	1
1.7	2015_Jul_29_1516	s	s	14	3	Capacity	76	ABS	0	1	24RO	0	1	2.78265881538	None	None	None	None	1
1.7	2015_Jul_29_1516	s	s	14	3	Capacity	77	ABS	0	1	24RO	0	1	3.88351106644	None	None	None	None	1
1.7	2015_Jul_29_1516	s	s	14	3	Capacity	78	RC	0	1	23RO	0	1	3.99386000633	-329.0	-253.0	None	None	0
1.7	2015_Jul_29_1516	s	s	14	3	Capacity	79	ABS	0	2	24RD	0	1	2.4593911171	None	None	None	None	1
1.7	2015_Jul_29_1516	s	s	14	3	Capacity	80	RC	0	2	23RD	1	0	0.619605064392	-531.0	335.0	-532	332	1
1.7	2015_Jul_29_1516	s	s	14	3	Capacity	81	RC	0	1	23RO	0	1	4.16064691544	-444.0	376.0	None	None	0
1.7	2015_Jul_29_1516	s	s	14	3	Capacity	82	ABS	0	1	24RO	0	1	2.25485515594	None	None	None	None	1
1.7	2015_Jul_29_1516	s	s	14	3	Capacity	83	ABS	0	2	24RD	0	1	3.00982713699	None	None	None	None	1
1.7	2015_Jul_29_1516	s	s	14	3	Capacity	84	RC	0	2	23RD	1	0	0.607970952988	386.0	-124.0	378	-124	1
1.7	2015_Jul_29_1516	s	s	14	3	Capacity	85	ABS	0	1	24RO	0	1	2.38427805901	None	None	None	None	1
1.7	2015_Jul_29_1516	s	s	14	3	Capacity	86	RC	0	2	23RD	0	1	2.83037090302	521.0	-123.0	None	None	0
1.7	2015_Jul_29_1516	s	s	14	3	Capacity	87	ABS	0	2	24RD	0	1	0.846737146378	None	None	None	None	1
1.7	2015_Jul_29_1516	s	s	14	3	Capacity	88	RC	0	1	23RO	1	0	1.78577303886	-246.0	-266.0	-234	-265	1
1.7	2015_Jul_29_1516	s	s	14	3	Capacity	89	ABS	0	2	24RD	0	1	0.58792090416	None	None	None	None	1
1.7	2015_Jul_29_1516	s	s	14	3	Capacity	90	RC	0	1	23RO	1	0	0.690356969833	-39.0	115.0	-44	116	1
1.7	2015_Jul_29_1516	s	s	14	3	Capacity	91	ABS	0	1	24RO	0	1	3.54590010643	None	None	None	None	1
1.7	2015_Jul_29_1516	s	s	14	3	Capacity	92	RC	0	2	23RD	1	0	0.501699924469	201.0	265.0	203	271	1
1.7	2015_Jul_29_1516	s	s	14	3	Capacity	1	ABS	1	0	24MC	0	1	1.29121994972	None	None	None	None	1
1.7	2015_Jul_29_1516	s	s	14	3	Capacity	2	RC	2	0	23VC	1	0	0.867153167725	309.0	21.0	318	24	1
1.7	2015_Jul_29_1516	s	s	14	3	Capacity	3	ABS	2	0	24VC	0	1	0.514267921448	None	None	None	None	1
1.7	2015_Jul_29_1516	s	s	14	3	Capacity	4	RC	1	0	23MC	1	0	0.740993022919	428.0	-36.0	432	-34	1
1.7	2015_Jul_29_1516	s	s	14	3	Capacity	5	ABS	2	0	24VC	0	1	0.56063079834	None	None	None	None	1
1.7	2015_Jul_29_1516	s	s	14	3	Capacity	6	ABS	1	0	24MC	0	1	1.94823122025	None	None	None	None	1
1.7	2015_Jul_29_1516	s	s	14	3	Capacity	7	RC	2	0	23VC	1	0	0.536448001862	-411.0	293.0	-411	294	1
1.7	2015_Jul_29_1516	s	s	14	3	Capacity	8	RC	1	0	23MC	1	0	0.646713018417	-466.0	169.0	-474	172	1
1.7	2015_Jul_29_1516	s	s	14	3	Capacity	9	RC	1	0	23MC	1	0	1.43267011642	361.0	384.0	353	379	1
1.7	2015_Jul_29_1516	s	s	14	3	Capacity	10	ABS	2	0	24VC	0	1	0.79958486557	None	None	None	None	1
1.7	2015_Jul_29_1516	s	s	14	3	Capacity	11	ABS	1	0	24MC	0	1	2.91595101357	None	None	None	None	1
1.7	2015_Jul_29_1516	s	s	14	3	Capacity	12	RC	2	0	23VC	1	0	0.429967880249	-15.0	-149.0	-14	-147	1
1.7	2015_Jul_29_1516	s	s	14	3	Capacity	13	ABS	2	0	24VC	0	1	0.57023191452	None	None	None	None	1
1.7	2015_Jul_29_1516	s	s	14	3	Capacity	14	RC	1	0	23MC	1	0	2.30371880531	392.0	-219.0	402	-220	1
1.7	2015_Jul_29_1516	s	s	14	3	Capacity	15	ABS	1	0	24MC	0	1	0.693648815155	None	None	None	None	1
1.7	2015_Jul_29_1516	s	s	14	3	Capacity	16	RC	2	0	23VC	1	0	0.494187831879	320.0	-199.0	324	-197	1
1.7	2015_Jul_29_1516	s	s	14	3	Capacity	17	ABS	1	0	24MC	0	1	1.47983789444	None	None	None	None	1
1.7	2015_Jul_29_1516	s	s	14	3	Capacity	18	RC	2	0	23VC	1	0	0.434872865677	-192.0	361.0	-192	363	1
1.7	2015_Jul_29_1516	s	s	14	3	Capacity	19	ABS	2	0	24VC	0	1	0.535341978073	None	None	None	None	1
1.7	2015_Jul_29_1516	s	s	14	3	Capacity	20	RC	1	0	23MC	1	0	0.717413902283	-468.0	-293.0	-468	-298	1
1.7	2015_Jul_29_1516	s	s	14	3	Capacity	21	ABS	1	0	24MC	0	1	1.91799402237	None	None	None	None	1
1.7	2015_Jul_29_1516	s	s	14	3	Capacity	22	ABS	2	0	24VC	0	1	0.611431121826	None	None	None	None	1
1.7	2015_Jul_29_1516	s	s	14	3	Capacity	23	RC	2	0	23VC	1	0	0.417887926102	-229.0	-171.0	-227	-175	1
1.7	2015_Jul_29_1516	s	s	14	3	Capacity	24	RC	1	0	23MC	1	0	0.682060003281	-444.0	112.0	-438	109	1
1.7	2015_Jul_29_1516	s	s	14	3	Capacity	25	ABS	2	0	24VC	0	1	0.594851970673	None	None	None	None	1
1.7	2015_Jul_29_1516	s	s	14	3	Capacity	26	RC	2	0	23VC	1	0	0.375996112823	324.0	36.0	327	39	1
1.7	2015_Jul_29_1516	s	s	14	3	Capacity	27	ABS	1	0	24MC	0	1	1.83051419258	None	None	None	None	1
1.7	2015_Jul_29_1516	s	s	14	3	Capacity	28	RC	1	0	23MC	1	0	0.630748033524	-143.0	-305.0	-142	-314	1
1.7	2015_Jul_29_1516	s	s	14	3	Capacity	29	ABS	2	0	24VC	0	1	0.529083013535	None	None	None	None	1
1.7	2015_Jul_29_1516	s	s	14	3	Capacity	30	RC	2	0	23VC	1	0	0.441836118698	267.0	-401.0	262	-406	1
1.7	2015_Jul_29_1516	s	s	14	3	Capacity	31	RC	1	0	23MC	1	0	0.723486185074	-298.0	-110.0	-298	-112	1
1.7	2015_Jul_29_1516	s	s	14	3	Capacity	32	ABS	1	0	24MC	0	1	1.82378196716	None	None	None	None	1
1.7	2015_Jul_29_1516	s	s	14	3	Capacity	33	ABS	2	0	24VC	0	1	0.547092914581	None	None	None	None	1
1.7	2015_Jul_29_1516	s	s	14	3	Capacity	34	RC	1	0	23MC	1	0	0.91747713089	33.0	-226.0	37	-224	1
1.7	2015_Jul_29_1516	s	s	14	3	Capacity	35	RC	2	0	23VC	1	0	0.505544900894	233.0	-121.0	241	-126	1
1.7	2015_Jul_29_1516	s	s	14	3	Capacity	36	ABS	1	0	24MC	0	1	2.03328418732	None	None	None	None	1
1.7	2015_Jul_29_1516	s	s	14	3	Capacity	37	ABS	1	0	24MC	0	1	1.85350394249	None	None	None	None	1
1.7	2015_Jul_29_1516	s	s	14	3	Capacity	38	RC	1	0	23MC	1	0	2.21892309189	-219.0	297.0	-224	294	1
1.7	2015_Jul_29_1516	s	s	14	3	Capacity	39	RC	2	0	23VC	1	0	0.489985942841	-462.0	-105.0	-472	-101	1
1.7	2015_Jul_29_1516	s	s	14	3	Capacity	40	ABS	2	0	24VC	0	1	0.611451864243	None	None	None	None	1
1.7	2015_Jul_29_1516	s	s	14	3	Capacity	41	RC	1	0	23MC	1	0	0.902193069458	-336.0	-357.0	-330	-354	1
1.7	2015_Jul_29_1516	s	s	14	3	Capacity	42	ABS	1	0	24MC	0	1	1.07053399086	None	None	None	None	1
1.7	2015_Jul_29_1516	s	s	14	3	Capacity	43	RC	2	0	23VC	1	0	0.709254026413	216.0	339.0	217	340	1
1.7	2015_Jul_29_1516	s	s	14	3	Capacity	44	ABS	2	0	24VC	0	1	0.70560503006	None	None	None	None	1
1.7	2015_Jul_29_1516	s	s	14	3	Capacity	45	ABS	1	0	24MC	0	1	1.88963007927	None	None	None	None	1
1.7	2015_Jul_29_1516	s	s	14	3	Capacity	46	ABS	2	0	24VC	0	1	0.526399850845	None	None	None	None	1
1.7	2015_Jul_29_1516	s	s	14	3	Capacity	47	RC	1	0	23MC	1	0	0.740807056427	317.0	-153.0	316	-154	1
1.7	2015_Jul_29_1516	s	s	14	3	Capacity	48	RC	2	0	23VC	1	0	0.900744915009	538.0	-287.0	546	-286	1
1.7	2015_Jul_29_1516	s	s	14	3	Capacity	49	RC	2	0	23VC	1	0	0.488983869553	-19.0	-185.0	-15	-190	1
1.7	2015_Jul_29_1516	s	s	14	3	Capacity	50	ABS	1	0	24MC	0	1	2.15344595909	None	None	None	None	1
1.7	2015_Jul_29_1516	s	s	14	3	Capacity	51	RC	1	0	23MC	1	0	0.607476949692	13.0	-43.0	5	-40	1
1.7	2015_Jul_29_1516	s	s	14	3	Capacity	52	ABS	2	0	24VC	0	1	0.740855932236	None	None	None	None	1
1.7	2015_Jul_29_1516	s	s	14	3	Capacity	53	ABS	2	0	24VC	0	1	0.877173185349	None	None	None	None	1
1.7	2015_Jul_29_1516	s	s	14	3	Capacity	54	RC	1	0	23MC	1	0	1.11525011063	482.0	-263.0	484	-259	1
1.7	2015_Jul_29_1516	s	s	14	3	Capacity	55	ABS	1	0	24MC	0	1	1.46722579002	None	None	None	None	1
1.7	2015_Jul_29_1516	s	s	14	3	Capacity	56	RC	2	0	23VC	1	0	0.408041000366	-34.0	10.0	-32	20	1
1.7	2015_Jul_29_1516	s	s	14	3	Capacity	57	ABS	1	0	24MC	0	1	1.87448906898	None	None	None	None	1
1.7	2015_Jul_29_1516	s	s	14	3	Capacity	58	RC	1	0	23MC	1	0	2.0121679306	-465.0	191.0	-463	194	1
1.7	2015_Jul_29_1516	s	s	14	3	Capacity	59	ABS	2	0	24VC	0	1	0.573155879974	None	None	None	None	1
1.7	2015_Jul_29_1516	s	s	14	3	Capacity	60	RC	2	0	23VC	1	0	0.441035985947	35.0	-259.0	40	-256	1
1.7	2015_Jul_29_1516	s	s	14	3	Capacity	61	RC	1	0	23MC	1	0	1.95327806473	254.0	249.0	258	246	1
1.7	2015_Jul_29_1516	s	s	14	3	Capacity	62	ABS	1	0	24MC	0	1	1.37650609016	None	None	None	None	1
1.7	2015_Jul_29_1516	s	s	14	3	Capacity	63	ABS	2	0	24VC	0	1	0.528969049454	None	None	None	None	1
1.7	2015_Jul_29_1516	s	s	14	3	Capacity	64	RC	2	0	23VC	1	0	1.67075109482	396.0	-303.0	392	-295	1
1.7	2015_Jul_29_1516	s	s	14	3	Capacity	65	ABS	1	0	24MC	0	1	1.24699807167	None	None	None	None	1
1.7	2015_Jul_29_1516	s	s	14	3	Capacity	66	RC	1	0	23MC	1	0	0.552648067474	227.0	-263.0	234	-268	1
1.7	2015_Jul_29_1516	s	s	14	3	Capacity	67	ABS	2	0	24VC	0	1	0.546331882477	None	None	None	None	1
1.7	2015_Jul_29_1516	s	s	14	3	Capacity	68	RC	2	0	23VC	1	0	0.561484098434	355.0	294.0	359	290	1
1.7	2015_Jul_29_1516	s	s	14	3	Capacity	69	ABS	2	0	24VC	0	1	0.552443027496	None	None	None	None	1
1.7	2015_Jul_29_1516	s	s	14	3	Capacity	70	ABS	1	0	24MC	0	1	2.81627202034	None	None	None	None	1
1.7	2015_Jul_29_1516	s	s	14	3	Capacity	71	RC	2	0	23VC	1	0	0.50600194931	407.0	-229.0	409	-226	1
1.7	2015_Jul_29_1516	s	s	14	3	Capacity	72	RC	1	0	23MC	1	0	2.01208996773	330.0	374.0	334	380	1
1.7	2015_Jul_29_1516	s	s	14	3	Capacity	73	ABS	1	0	24MC	0	1	2.28282284737	None	None	None	None	1
1.7	2015_Jul_29_1516	s	s	14	3	Capacity	74	ABS	2	0	24VC	0	1	0.670353889465	None	None	None	None	1
1.7	2015_Jul_29_1516	s	s	14	3	Capacity	75	RC	1	0	23MC	1	0	0.682070016861	-234.0	-123.0	-233	-124	1
1.7	2015_Jul_29_1516	s	s	14	3	Capacity	76	RC	2	0	23VC	1	0	0.481900930405	113.0	38.0	115	43	1
1.7	2015_Jul_29_1516	s	s	14	3	Capacity	77	RC	2	0	23VC	1	0	0.573427915573	-118.0	340.0	-112	340	1
1.7	2015_Jul_29_1516	s	s	14	3	Capacity	78	ABS	2	0	24VC	0	1	0.964545965195	None	None	None	None	1
1.7	2015_Jul_29_1516	s	s	14	3	Capacity	79	ABS	1	0	24MC	0	1	2.05939793587	None	None	None	None	1
1.7	2015_Jul_29_1516	s	s	14	3	Capacity	80	RC	1	0	23MC	1	0	0.938406944275	123.0	-390.0	126	-393	1
1.7	2015_Jul_29_1516	s	s	14	3	Capacity	81	RC	1	0	23MC	1	0	2.24757099152	-473.0	185.0	-473	182	1
1.7	2015_Jul_29_1516	s	s	14	3	Capacity	82	ABS	1	0	24MC	0	1	2.12719392776	None	None	None	None	1
1.7	2015_Jul_29_1516	s	s	14	3	Capacity	83	RC	2	0	23VC	1	0	0.420264959335	-401.0	-228.0	-398	-220	1
1.7	2015_Jul_29_1516	s	s	14	3	Capacity	84	ABS	2	0	24VC	0	1	0.597086191177	None	None	None	None	1
1.7	2015_Jul_29_1516	s	s	14	3	Capacity	85	RC	1	0	23MC	1	0	0.576136112213	89.0	-185.0	91	-188	1
1.7	2015_Jul_29_1516	s	s	14	3	Capacity	86	ABS	1	0	24MC	0	1	2.86623597145	None	None	None	None	1
1.7	2015_Jul_29_1516	s	s	14	3	Capacity	87	ABS	2	0	24VC	1	0	1.05155301094	None	None	16	50	0
1.7	2015_Jul_29_1516	s	s	14	3	Capacity	88	RC	2	0	23VC	1	0	0.57267999649	-501.0	-292.0	-495	-293	1
1.7	2015_Jul_29_1516	s	s	14	3	Capacity	89	ABS	2	0	24VC	0	1	0.576069116592	None	None	None	None	1
1.7	2015_Jul_29_1516	s	s	14	3	Capacity	90	RC	1	0	23MC	1	0	1.00358104706	412.0	-299.0	411	-303	1
1.7	2015_Jul_29_1516	s	s	14	3	Capacity	91	ABS	1	0	24MC	0	1	2.17688012123	None	None	None	None	1
1.7	2015_Jul_29_1516	s	s	14	3	Capacity	92	RC	2	0	23VC	1	0	0.476161956787	208.0	-69.0	209	-70	1
1.7	2015_Jul_29_1516	s	s	14	3	SIC	1	RC	2	1	23VO	1	0	0.670325040817	104.0	-396.0	108	-393	1
1.7	2015_Jul_29_1516	s	s	14	3	SIC	2	RC	2	0	23VC	1	0	0.423216819763	174.0	21.0	174	22	1
1.7	2015_Jul_29_1516	s	s	14	3	SIC	3	RC	0	1	23RO	1	0	1.25252914429	382.0	-116.0	394	-115	1
1.7	2015_Jul_29_1516	s	s	14	3	SIC	4	RC	1	0	23MC	1	0	0.776128053665	-91.0	-167.0	-105	-158	1
1.7	2015_Jul_29_1516	s	s	14	3	SIC	5	RC	1	1	23MO	1	0	0.853817939758	-185.0	369.0	-181	368	1
1.7	2015_Jul_29_1516	s	s	14	3	SIC	6	ABS	2	1	24VO	0	1	0.721112966537	None	None	None	None	1
1.7	2015_Jul_29_1516	s	s	14	3	SIC	7	ABS	0	1	24RO	0	1	4.25547599792	None	None	None	None	1
1.7	2015_Jul_29_1516	s	s	14	3	SIC	8	RC	1	2	23MD	1	0	0.67743897438	484.0	-270.0	476	-268	1
1.7	2015_Jul_29_1516	s	s	14	3	SIC	9	ABS	1	0	24MC	0	1	3.7777159214	None	None	None	None	1
1.7	2015_Jul_29_1516	s	s	14	3	SIC	10	RC	0	2	23RD	1	0	0.466509103775	-302.0	390.0	-299	396	1
1.7	2015_Jul_29_1516	s	s	14	3	SIC	11	ABS	2	0	24VC	0	1	0.584999084473	None	None	None	None	1
1.7	2015_Jul_29_1516	s	s	14	3	SIC	12	ABS	2	2	24VD	0	1	0.528980970383	None	None	None	None	1
1.7	2015_Jul_29_1516	s	s	14	3	SIC	13	ABS	1	1	24MO	0	1	2.74174785614	None	None	None	None	1
1.7	2015_Jul_29_1516	s	s	14	3	SIC	14	ABS	0	2	24RD	0	1	1.3381049633	None	None	None	None	1
1.7	2015_Jul_29_1516	s	s	14	3	SIC	15	ABS	1	2	24MD	0	1	1.30275201797	None	None	None	None	1
1.7	2015_Jul_29_1516	s	s	14	3	SIC	16	RC	2	2	23VD	1	0	0.500820875168	-374.0	206.0	-379	212	1
1.7	2015_Jul_29_1516	s	s	14	3	SIC	17	ABS	1	0	24MC	0	1	2.41220808029	None	None	None	None	1
1.7	2015_Jul_29_1516	s	s	14	3	SIC	18	ABS	2	1	24VO	0	1	0.559866905212	None	None	None	None	1
1.7	2015_Jul_29_1516	s	s	14	3	SIC	19	RC	1	1	23MO	1	0	1.36467599869	-342.0	127.0	-335	122	1
1.7	2015_Jul_29_1516	s	s	14	3	SIC	20	ABS	1	1	24MO	0	1	2.32553005219	None	None	None	None	1
1.7	2015_Jul_29_1516	s	s	14	3	SIC	21	RC	0	1	23RO	0	1	2.29468202591	-401.0	-321.0	None	None	0
1.7	2015_Jul_29_1516	s	s	14	3	SIC	22	RC	0	2	23RD	1	0	0.773502111435	515.0	406.0	524	407	1
1.7	2015_Jul_29_1516	s	s	14	3	SIC	23	RC	2	0	23VC	1	0	0.479338884354	156.0	148.0	154	154	1
1.7	2015_Jul_29_1516	s	s	14	3	SIC	24	ABS	2	0	24VC	0	1	0.576501131058	None	None	None	None	1
1.7	2015_Jul_29_1516	s	s	14	3	SIC	25	RC	2	1	23VO	1	0	0.40633392334	114.0	-191.0	112	-190	1
1.7	2015_Jul_29_1516	s	s	14	3	SIC	26	RC	1	0	23MC	1	0	0.882162094116	-370.0	-369.0	-366	-375	1
1.7	2015_Jul_29_1516	s	s	14	3	SIC	27	ABS	0	1	24RO	0	1	3.58691191673	None	None	None	None	1
1.7	2015_Jul_29_1516	s	s	14	3	SIC	28	ABS	0	2	24RD	0	1	0.682053804398	None	None	None	None	1
1.7	2015_Jul_29_1516	s	s	14	3	SIC	29	ABS	2	2	24VD	0	1	0.608308076859	None	None	None	None	1
1.7	2015_Jul_29_1516	s	s	14	3	SIC	30	ABS	1	2	24MD	0	1	0.653115034103	None	None	None	None	1
1.7	2015_Jul_29_1516	s	s	14	3	SIC	31	RC	1	2	23MD	1	0	0.475292921066	-422.0	221.0	-418	221	1
1.7	2015_Jul_29_1516	s	s	14	3	SIC	32	RC	2	2	23VD	1	0	0.443984985352	-388.0	-254.0	-394	-248	1
1.7	2015_Jul_29_1516	s	s	14	3	SIC	33	ABS	2	0	24VC	0	1	0.714725971222	None	None	None	None	1
1.7	2015_Jul_29_1516	s	s	14	3	SIC	34	ABS	1	0	24MC	0	1	2.03018283844	None	None	None	None	1
1.7	2015_Jul_29_1516	s	s	14	3	SIC	35	ABS	0	1	24RO	0	1	4.10735678673	None	None	None	None	1
1.7	2015_Jul_29_1516	s	s	14	3	SIC	36	RC	2	2	23VD	1	0	0.517311811447	207.0	366.0	210	375	1
1.7	2015_Jul_29_1516	s	s	14	3	SIC	37	RC	0	1	23RO	1	0	1.20638585091	398.0	347.0	406	341	1
1.7	2015_Jul_29_1516	s	s	14	3	SIC	38	ABS	2	2	24VD	0	1	0.808875083923	None	None	None	None	1
1.7	2015_Jul_29_1516	s	s	14	3	SIC	39	RC	0	2	23RD	1	0	0.712593078613	102.0	-343.0	96	-336	1
1.7	2015_Jul_29_1516	s	s	14	3	SIC	40	RC	2	1	23VO	1	0	0.505352973938	-386.0	218.0	-389	219	1
1.7	2015_Jul_29_1516	s	s	14	3	SIC	41	ABS	0	2	24RD	0	1	0.736097812653	None	None	None	None	1
1.7	2015_Jul_29_1516	s	s	14	3	SIC	42	ABS	1	2	24MD	0	1	1.55066609383	None	None	None	None	1
1.7	2015_Jul_29_1516	s	s	14	3	SIC	43	RC	1	1	23MO	1	0	0.564322948456	-190.0	47.0	-189	53	1
1.7	2015_Jul_29_1516	s	s	14	3	SIC	44	ABS	2	1	24VO	0	1	0.536082983017	None	None	None	None	1
1.7	2015_Jul_29_1516	s	s	14	3	SIC	45	ABS	1	1	24MO	0	1	1.72595691681	None	None	None	None	1
1.7	2015_Jul_29_1516	s	s	14	3	SIC	46	RC	2	0	23VC	1	0	0.46671295166	344.0	-127.0	346	-122	1
1.7	2015_Jul_29_1516	s	s	14	3	SIC	47	RC	1	0	23MC	1	0	1.45423388481	-330.0	382.0	-336	384	1
1.7	2015_Jul_29_1516	s	s	14	3	SIC	48	RC	1	2	23MD	1	0	0.71235203743	517.0	260.0	523	261	1
1.7	2015_Jul_29_1516	s	s	14	3	SIC	49	RC	2	0	23VC	1	0	0.56169295311	-518.0	-163.0	-519	-157	1
1.7	2015_Jul_29_1516	s	s	14	3	SIC	50	ABS	2	2	24VD	0	1	0.670278072357	None	None	None	None	1
1.7	2015_Jul_29_1516	s	s	14	3	SIC	51	RC	1	0	23MC	1	0	2.16283106804	512.0	-232.0	514	-232	1
1.7	2015_Jul_29_1516	s	s	14	3	SIC	52	ABS	0	1	24RO	0	1	2.54168081284	None	None	None	None	1
1.7	2015_Jul_29_1516	s	s	14	3	SIC	53	ABS	2	1	24VO	0	1	0.585323095322	None	None	None	None	1
1.7	2015_Jul_29_1516	s	s	14	3	SIC	54	RC	2	1	23VO	1	0	0.524045944214	405.0	257.0	410	263	1
1.7	2015_Jul_29_1516	s	s	14	3	SIC	55	RC	0	1	23RO	1	0	0.811521053314	243.0	17.0	247	19	1
1.7	2015_Jul_29_1516	s	s	14	3	SIC	56	ABS	1	2	24MD	0	1	0.587960004807	None	None	None	None	1
1.7	2015_Jul_29_1516	s	s	14	3	SIC	57	ABS	1	0	24MC	1	0	0.929469108582	None	None	-207	-145	0
1.7	2015_Jul_29_1516	s	s	14	3	SIC	58	RC	1	2	23MD	1	0	0.434790849686	49.0	-5.0	41	-6	1
1.7	2015_Jul_29_1516	s	s	14	3	SIC	59	RC	2	2	23VD	1	0	0.407968044281	3.0	51.0	-1	39	1
1.7	2015_Jul_29_1516	s	s	14	3	SIC	60	RC	0	2	23RD	1	0	0.467647075653	185.0	-219.0	176	-210	1
1.7	2015_Jul_29_1516	s	s	14	3	SIC	61	ABS	1	1	24MO	0	1	2.86675906181	None	None	None	None	1
1.7	2015_Jul_29_1516	s	s	14	3	SIC	62	ABS	2	0	24VC	0	1	0.559967041016	None	None	None	None	1
1.7	2015_Jul_29_1516	s	s	14	3	SIC	63	RC	1	1	23MO	1	0	0.702977180481	337.0	43.0	333	47	1
1.7	2015_Jul_29_1516	s	s	14	3	SIC	64	ABS	0	2	24RD	0	1	0.599497795105	None	None	None	None	1
1.7	2015_Jul_29_1516	s	s	14	3	SIC	65	RC	1	2	23MD	1	0	0.559052944183	476.0	-347.0	480	-347	1
1.7	2015_Jul_29_1516	s	s	14	3	SIC	66	RC	2	1	23VO	1	0	0.582642793655	-2.0	191.0	-2	185	1
1.7	2015_Jul_29_1516	s	s	14	3	SIC	67	ABS	2	1	24VO	0	1	0.502021074295	None	None	None	None	1
1.7	2015_Jul_29_1516	s	s	14	3	SIC	68	RC	1	1	23MO	1	0	0.874857187271	-33.0	156.0	-28	150	1
1.7	2015_Jul_29_1516	s	s	14	3	SIC	69	ABS	0	1	24RO	0	1	3.11847305298	None	None	None	None	1
1.7	2015_Jul_29_1516	s	s	14	3	SIC	70	RC	0	2	23RD	1	0	0.453311920166	-301.0	135.0	-301	132	1
1.7	2015_Jul_29_1516	s	s	14	3	SIC	71	ABS	2	2	24VD	0	1	0.523360967636	None	None	None	None	1
1.7	2015_Jul_29_1516	s	s	14	3	SIC	72	RC	2	0	23VC	1	0	0.493633985519	194.0	309.0	194	307	1
1.7	2015_Jul_29_1516	s	s	14	3	SIC	73	ABS	0	2	24RD	0	1	0.705660820007	None	None	None	None	1
1.7	2015_Jul_29_1516	s	s	14	3	SIC	74	ABS	2	0	24VC	0	1	0.547688007355	None	None	None	None	1
1.7	2015_Jul_29_1516	s	s	14	3	SIC	75	ABS	1	2	24MD	0	1	0.682135105133	None	None	None	None	1
1.7	2015_Jul_29_1516	s	s	14	3	SIC	76	ABS	1	0	24MC	0	1	1.88257980347	None	None	None	None	1
1.7	2015_Jul_29_1516	s	s	14	3	SIC	77	RC	2	2	23VD	1	0	0.632083892822	423.0	-269.0	428	-271	1
1.7	2015_Jul_29_1516	s	s	14	3	SIC	78	RC	1	0	23MC	1	0	3.09501886368	262.0	395.0	267	386	1
1.7	2015_Jul_29_1516	s	s	14	3	SIC	79	RC	0	1	23RO	1	0	1.0704600811	-109.0	-105.0	-115	-102	1
1.7	2015_Jul_29_1516	s	s	14	3	SIC	80	ABS	1	1	24MO	0	1	3.60105109215	None	None	None	None	1
1.7	2015_Jul_29_1516	s	s	14	3	SIC	81	RC	2	2	23VD	1	0	2.25365185738	-174.0	-143.0	-171	-152	1
1.7	2015_Jul_29_1516	s	s	14	3	SIC	82	ABS	2	0	24VC	0	1	0.9174888134	None	None	None	None	1
1.7	2015_Jul_29_1516	s	s	14	3	SIC	83	ABS	1	1	24MO	0	1	2.63044190407	None	None	None	None	1
1.7	2015_Jul_29_1516	s	s	14	3	SIC	84	RC	0	1	23RO	1	0	4.53692793846	373.0	46.0	374	48	1
1.7	2015_Jul_29_1516	s	s	14	3	SIC	85	RC	2	1	23VO	1	0	0.971317052841	298.0	-142.0	293	-148	1
1.7	2015_Jul_29_1516	s	s	14	3	SIC	86	RC	1	2	23MD	1	0	0.634986877441	-86.0	-53.0	-88	-49	1
1.7	2015_Jul_29_1516	s	s	14	3	SIC	87	ABS	2	1	24VO	0	1	0.491036891937	None	None	None	None	1
1.7	2015_Jul_29_1516	s	s	14	3	SIC	88	RC	1	0	23MC	1	0	1.00648903847	153.0	319.0	150	314	1
1.7	2015_Jul_29_1516	s	s	14	3	SIC	89	ABS	2	2	24VD	0	1	0.512145996094	None	None	None	None	1
1.7	2015_Jul_29_1516	s	s	14	3	SIC	90	ABS	1	2	24MD	0	1	1.03277897835	None	None	None	None	1
1.7	2015_Jul_29_1516	s	s	14	3	SIC	91	RC	0	2	23RD	1	0	0.538374900818	133.0	82.0	139	83	1
1.7	2015_Jul_29_1516	s	s	14	3	SIC	92	RC	1	1	23MO	1	0	1.23192310333	-531.0	-273.0	-525	-274	1
1.7	2015_Jul_29_1516	s	s	14	3	SIC	93	RC	2	0	23VC	1	0	0.453255176544	71.0	56.0	65	52	1
1.7	2015_Jul_29_1516	s	s	14	3	SIC	94	ABS	0	2	24RD	0	1	1.58329486847	None	None	None	None	1
1.7	2015_Jul_29_1516	s	s	14	3	SIC	95	ABS	0	1	24RO	0	1	3.11865401268	None	None	None	None	1
1.7	2015_Jul_29_1516	s	s	14	3	SIC	96	ABS	1	0	24MC	0	1	2.27917504311	None	None	None	None	1
1.7	2015_Jul_29_1516	s	s	14	3	SIC	97	ABS	2	1	24VO	0	1	0.581979990005	None	None	None	None	1
1.7	2015_Jul_29_1516	s	s	14	3	SIC	98	ABS	0	1	24RO	0	1	3.48037600517	None	None	None	None	1
1.7	2015_Jul_29_1516	s	s	14	3	SIC	99	ABS	1	2	24MD	0	1	0.599488019943	None	None	None	None	1
1.7	2015_Jul_29_1516	s	s	14	3	SIC	100	RC	0	2	23RD	1	0	0.476138114929	185.0	174.0	178	168	1
1.7	2015_Jul_29_1516	s	s	14	3	SIC	101	ABS	1	1	24MO	0	1	2.93960905075	None	None	None	None	1
1.7	2015_Jul_29_1516	s	s	14	3	SIC	102	RC	1	1	23MO	1	0	0.971175193787	-520.0	-102.0	-518	-97	1
1.7	2015_Jul_29_1516	s	s	14	3	SIC	103	ABS	1	0	24MC	0	1	3.679240942	None	None	None	None	1
1.7	2015_Jul_29_1516	s	s	14	3	SIC	104	ABS	2	2	24VD	0	1	0.500422954559	None	None	None	None	1
1.7	2015_Jul_29_1516	s	s	14	3	SIC	105	RC	2	0	23VC	0	1	0.533051013947	357.0	-384.0	None	None	0
1.7	2015_Jul_29_1516	s	s	14	3	SIC	106	RC	0	1	23RO	1	0	3.43634700775	-77.0	319.0	-77	314	1
1.7	2015_Jul_29_1516	s	s	14	3	SIC	107	RC	2	1	23VO	1	0	0.57075214386	457.0	63.0	459	57	1
1.7	2015_Jul_29_1516	s	s	14	3	SIC	108	RC	1	0	23MC	1	0	1.64726996422	-342.0	237.0	-341	234	1
1.7	2015_Jul_29_1516	s	s	14	3	SIC	109	RC	2	2	23VD	1	0	0.56790304184	-477.0	326.0	-483	332	1
1.7	2015_Jul_29_1516	s	s	14	3	SIC	110	ABS	0	2	24RD	0	1	1.44739294052	None	None	None	None	1
1.7	2015_Jul_29_1516	s	s	14	3	SIC	111	ABS	2	0	24VC	0	1	0.835525035858	None	None	None	None	1
1.7	2015_Jul_29_1516	s	s	14	3	SIC	112	RC	1	2	23MD	1	0	0.561253070831	10.0	-403.0	11	-405	1
1.7	2015_Jul_29_1516	s	s	14	3	SIC	113	RC	0	2	23RD	1	0	0.509114027023	321.0	-199.0	316	-190	1
1.7	2015_Jul_29_1516	s	s	14	3	SIC	114	ABS	2	0	24VC	0	1	0.564270019531	None	None	None	None	1
1.7	2015_Jul_29_1516	s	s	14	3	SIC	115	ABS	0	2	24RD	0	1	1.09407496452	None	None	None	None	1
1.7	2015_Jul_29_1516	s	s	14	3	SIC	116	ABS	1	0	24MC	0	1	2.30381393433	None	None	None	None	1
1.7	2015_Jul_29_1516	s	s	14	3	SIC	117	RC	1	2	23MD	1	0	0.44379401207	-282.0	-150.0	-285	-148	1
1.7	2015_Jul_29_1516	s	s	14	3	SIC	118	ABS	2	1	24VO	0	1	0.574026823044	None	None	None	None	1
1.7	2015_Jul_29_1516	s	s	14	3	SIC	119	RC	2	0	23VC	1	0	0.481976032257	-446.0	-246.0	-448	-247	1
1.7	2015_Jul_29_1516	s	s	14	3	SIC	120	ABS	0	1	24RO	0	1	4.36630797386	None	None	None	None	1
1.7	2015_Jul_29_1516	s	s	14	3	SIC	121	ABS	1	2	24MD	0	1	2.09114789963	None	None	None	None	1
1.7	2015_Jul_29_1516	s	s	14	3	SIC	122	RC	0	1	23RO	1	0	3.31378316879	440.0	-34.0	444	-28	1
1.7	2015_Jul_29_1516	s	s	14	3	SIC	123	ABS	2	2	24VD	0	1	0.646717071533	None	None	None	None	1
1.7	2015_Jul_29_1516	s	s	14	3	SIC	124	RC	1	0	23MC	1	0	1.18821501732	-516.0	36.0	-511	39	1
1.7	2015_Jul_29_1516	s	s	14	3	SIC	125	RC	1	1	23MO	1	0	1.29397511482	218.0	286.0	217	284	1
1.7	2015_Jul_29_1516	s	s	14	3	SIC	126	ABS	1	1	24MO	0	1	3.01823806763	None	None	None	None	1
1.7	2015_Jul_29_1516	s	s	14	3	SIC	127	RC	2	2	23VD	1	0	0.478538036346	399.0	0.0	401	8	1
1.7	2015_Jul_29_1516	s	s	14	3	SIC	128	RC	2	1	23VO	1	0	1.83105993271	528.0	285.0	535	280	1
1.7	2015_Jul_29_1516	s	s	14	3	SIC	129	ABS	2	1	24VO	0	1	0.76185297966	None	None	None	None	1
1.7	2015_Jul_29_1516	s	s	14	3	SIC	130	RC	0	2	23RD	1	0	0.571149110794	371.0	-43.0	381	-43	1
1.7	2015_Jul_29_1516	s	s	14	3	SIC	131	ABS	1	0	24MC	0	1	2.43338298798	None	None	None	None	1
1.7	2015_Jul_29_1516	s	s	14	3	SIC	132	ABS	2	0	24VC	0	1	0.616770029068	None	None	None	None	1
1.7	2015_Jul_29_1516	s	s	14	3	SIC	133	ABS	1	1	24MO	0	1	2.94191789627	None	None	None	None	1
1.7	2015_Jul_29_1516	s	s	14	3	SIC	134	ABS	2	2	24VD	0	1	0.540828943253	None	None	None	None	1
1.7	2015_Jul_29_1516	s	s	14	3	SIC	135	ABS	0	1	24RO	0	1	3.88371300697	None	None	None	None	1
1.7	2015_Jul_29_1516	s	s	14	3	SIC	136	RC	2	1	23VO	1	0	0.44667506218	-75.0	51.0	-73	58	1
1.7	2015_Jul_29_1516	s	s	14	3	SIC	137	ABS	1	2	24MD	0	1	0.844330072403	None	None	None	None	1
1.7	2015_Jul_29_1516	s	s	14	3	SIC	138	ABS	0	2	24RD	0	1	0.877772092819	None	None	None	None	1
1.7	2015_Jul_29_1516	s	s	14	3	SIC	139	RC	0	1	23RO	1	0	3.2244989872	188.0	-23.0	188	-21	1
1.7	2015_Jul_29_1516	s	s	14	3	SIC	140	RC	2	0	23VC	1	0	0.467855930328	-280.0	52.0	-284	53	1
1.7	2015_Jul_29_1516	s	s	14	3	SIC	141	RC	1	1	23MO	1	0	1.14878487587	121.0	324.0	129	333	1
1.7	2015_Jul_29_1516	s	s	14	3	SIC	142	RC	1	0	23MC	1	0	2.08952498436	68.0	368.0	69	366	1
1.7	2015_Jul_29_1516	s	s	14	3	SIC	143	RC	2	2	23VD	1	0	0.446686983109	-262.0	101.0	-262	91	1
1.7	2015_Jul_29_1516	s	s	14	3	SIC	144	RC	1	2	23MD	1	0	0.406236886978	0.0	-71.0	3	-62	1
1.7	2015_Jul_29_1516	s	s	14	3	SIC	145	RC	2	0	23VC	1	0	0.585020065308	491.0	203.0	484	204	1
1.7	2015_Jul_29_1516	s	s	14	3	SIC	146	ABS	2	2	24VD	0	1	0.971744060516	None	None	None	None	1
1.7	2015_Jul_29_1516	s	s	14	3	SIC	147	ABS	1	1	24MO	1	0	2.38884496689	None	None	157	65	0
1.7	2015_Jul_29_1516	s	s	14	3	SIC	148	RC	2	2	23VD	1	0	0.481815099716	-202.0	-62.0	-208	-64	1
1.7	2015_Jul_29_1516	s	s	14	3	SIC	149	ABS	0	2	24RD	0	1	0.983314990997	None	None	None	None	1
1.7	2015_Jul_29_1516	s	s	14	3	SIC	150	ABS	2	1	24VO	0	1	0.564311027527	None	None	None	None	1
1.7	2015_Jul_29_1516	s	s	14	3	SIC	151	RC	0	2	23RD	1	0	0.653533935547	473.0	-315.0	478	-321	1
1.7	2015_Jul_29_1516	s	s	14	3	SIC	152	RC	1	1	23MO	1	0	0.961540937424	-55.0	-277.0	-58	-270	1
1.7	2015_Jul_29_1516	s	s	14	3	SIC	153	RC	0	1	23RO	1	0	3.40802311897	-33.0	379.0	-31	377	1
1.7	2015_Jul_29_1516	s	s	14	3	SIC	154	ABS	1	0	24MC	0	1	3.78470516205	None	None	None	None	1
1.7	2015_Jul_29_1516	s	s	14	3	SIC	155	ABS	2	0	24VC	0	1	0.512177944183	None	None	None	None	1
1.7	2015_Jul_29_1516	s	s	14	3	SIC	156	RC	1	0	23MC	1	0	0.764441013336	219.0	168.0	227	166	1
1.7	2015_Jul_29_1516	s	s	14	3	SIC	157	RC	1	2	23MD	1	0	0.500032186508	257.0	4.0	249	5	1
1.7	2015_Jul_29_1516	s	s	14	3	SIC	158	RC	2	1	23VO	1	0	0.453464984894	335.0	136.0	330	135	1
1.7	2015_Jul_29_1516	s	s	14	3	SIC	159	ABS	0	1	24RO	0	1	4.23667287827	None	None	None	None	1
1.7	2015_Jul_29_1516	s	s	14	3	SIC	160	ABS	1	2	24MD	0	1	0.631403923035	None	None	None	None	1
1.7	2015_Jul_29_1516	s	s	14	3	SIC	161	ABS	1	0	24MC	0	1	2.92217111588	None	None	None	None	1
1.7	2015_Jul_29_1516	s	s	14	3	SIC	162	RC	0	2	23RD	1	0	0.538042068481	-481.0	-215.0	-479	-215	1
1.7	2015_Jul_29_1516	s	s	14	3	SIC	163	RC	2	1	23VO	1	0	0.470238924026	411.0	146.0	403	150	1
1.7	2015_Jul_29_1516	s	s	14	3	SIC	164	RC	1	0	23MC	1	0	1.30588102341	74.0	352.0	76	347	1
1.7	2015_Jul_29_1516	s	s	14	3	SIC	165	ABS	1	2	24MD	0	1	1.16465592384	None	None	None	None	1
1.7	2015_Jul_29_1516	s	s	14	3	SIC	166	ABS	2	2	24VD	0	1	0.517130851746	None	None	None	None	1
1.7	2015_Jul_29_1516	s	s	14	3	SIC	167	ABS	0	1	24RO	0	1	3.44808602333	None	None	None	None	1
1.7	2015_Jul_29_1516	s	s	14	3	SIC	168	RC	2	0	23VC	1	0	0.430254936218	-434.0	148.0	-431	154	1
1.7	2015_Jul_29_1516	s	s	14	3	SIC	169	ABS	1	1	24MO	0	1	1.48242998123	None	None	None	None	1
1.7	2015_Jul_29_1516	s	s	14	3	SIC	170	RC	1	2	23MD	1	0	0.458458900452	300.0	-48.0	294	-50	1
1.7	2015_Jul_29_1516	s	s	14	3	SIC	171	RC	2	2	23VD	1	0	0.631625175476	-44.0	-225.0	-40	-217	1
1.7	2015_Jul_29_1516	s	s	14	3	SIC	172	ABS	2	0	24VC	0	1	0.667076826096	None	None	None	None	1
1.7	2015_Jul_29_1516	s	s	14	3	SIC	173	ABS	0	2	24RD	0	1	0.876307964325	None	None	None	None	1
1.7	2015_Jul_29_1516	s	s	14	3	SIC	174	RC	1	1	23MO	1	0	1.24697303772	-91.0	277.0	-89	282	1
1.7	2015_Jul_29_1516	s	s	14	3	SIC	175	ABS	2	1	24VO	0	1	0.458456039429	None	None	None	None	1
1.7	2015_Jul_29_1516	s	s	14	3	SIC	176	RC	0	1	23RO	1	0	0.923794984818	-97.0	182.0	-97	185	1
1.7	2015_Jul_29_1516	s	s	14	3	SIC	177	RC	1	2	23MD	1	0	0.632443189621	494.0	317.0	494	320	1
1.7	2015_Jul_29_1516	s	s	14	3	SIC	178	RC	1	0	23MC	1	0	0.736400842667	380.0	78.0	382	78	1
1.7	2015_Jul_29_1516	s	s	14	3	SIC	179	ABS	0	1	24RO	0	1	4.20172810555	None	None	None	None	1
1.7	2015_Jul_29_1516	s	s	14	3	SIC	180	RC	2	1	23VO	1	0	0.477000951767	414.0	-82.0	415	-78	1
1.7	2015_Jul_29_1516	s	s	14	3	SIC	181	RC	2	2	23VD	1	0	0.478390932083	500.0	-264.0	502	-266	1
1.7	2015_Jul_29_1516	s	s	14	3	SIC	182	RC	0	2	23RD	1	0	0.434798002243	285.0	57.0	276	57	1
1.7	2015_Jul_29_1516	s	s	14	3	SIC	183	ABS	0	2	24RD	0	1	0.693778991699	None	None	None	None	1
1.7	2015_Jul_29_1516	s	s	14	3	SIC	184	RC	2	0	23VC	1	0	0.477040052414	-523.0	-139.0	-526	-136	1
1.7	2015_Jul_29_1516	s	s	14	3	SIC	185	RC	0	1	23RO	0	1	3.34226799011	-501.0	-281.0	None	None	0
1.7	2015_Jul_29_1516	s	s	14	3	SIC	186	ABS	2	0	24VC	0	1	0.616843938828	None	None	None	None	1
1.7	2015_Jul_29_1516	s	s	14	3	SIC	187	ABS	1	2	24MD	0	1	0.846883773804	None	None	None	None	1
1.7	2015_Jul_29_1516	s	s	14	3	SIC	188	ABS	1	1	24MO	0	1	1.67442703247	None	None	None	None	1
1.7	2015_Jul_29_1516	s	s	14	3	SIC	189	RC	1	1	23MO	1	0	1.32425308228	468.0	-388.0	473	-391	1
1.7	2015_Jul_29_1516	s	s	14	3	SIC	190	ABS	2	2	24VD	0	1	0.470201015472	None	None	None	None	1
1.7	2015_Jul_29_1516	s	s	14	3	SIC	191	ABS	2	1	24VO	0	1	0.48201417923	None	None	None	None	1
1.7	2015_Jul_29_1516	s	s	14	3	SIC	192	ABS	1	0	24MC	0	1	4.01301598549	None	None	None	None	1
1.7	2015_Jul_29_1516	s	s	14	3	SIC	193	ABS	2	1	24VO	0	1	0.87694311142	None	None	None	None	1
1.7	2015_Jul_29_1516	s	s	14	3	SIC	194	ABS	0	2	24RD	0	1	0.579793930054	None	None	None	None	1
1.7	2015_Jul_29_1516	s	s	14	3	SIC	195	RC	1	0	23MC	1	0	0.682293891907	-88.0	-78.0	-77	-77	1
1.7	2015_Jul_29_1516	s	s	14	3	SIC	196	ABS	1	2	24MD	0	1	0.629741191864	None	None	None	None	1
1.7	2015_Jul_29_1516	s	s	14	3	SIC	197	ABS	1	0	24MC	0	1	1.75360488892	None	None	None	None	1
1.7	2015_Jul_29_1516	s	s	14	3	SIC	198	RC	1	2	23MD	1	0	0.877446174622	450.0	316.0	445	317	1
1.7	2015_Jul_29_1516	s	s	14	3	SIC	199	ABS	2	2	24VD	0	1	0.567924976349	None	None	None	None	1
1.7	2015_Jul_29_1516	s	s	14	3	SIC	200	ABS	2	0	24VC	0	1	0.514773845673	None	None	None	None	1
1.7	2015_Jul_29_1516	s	s	14	3	SIC	201	RC	2	2	23VD	1	0	0.482017040253	-486.0	165.0	-485	165	1
1.7	2015_Jul_29_1516	s	s	14	3	SIC	202	RC	1	1	23MO	1	0	0.79522895813	-284.0	216.0	-287	217	1
1.7	2015_Jul_29_1516	s	s	14	3	SIC	203	ABS	0	1	24RO	0	1	3.22458791733	None	None	None	None	1
1.7	2015_Jul_29_1516	s	s	14	3	SIC	204	RC	2	1	23VO	1	0	0.454866886139	331.0	-334.0	332	-340	1
1.7	2015_Jul_29_1516	s	s	14	3	SIC	205	RC	0	1	23RO	1	0	3.32599496841	-169.0	248.0	-168	248	1
1.7	2015_Jul_29_1516	s	s	14	3	SIC	206	ABS	1	1	24MO	0	1	2.03563690186	None	None	None	None	1
1.7	2015_Jul_29_1516	s	s	14	3	SIC	207	RC	2	0	23VC	1	0	0.464962005615	110.0	-238.0	117	-241	1
1.7	2015_Jul_29_1516	s	s	14	3	SIC	208	RC	0	2	23RD	1	0	0.576097011566	356.0	-18.0	362	-23	1
1.7	2015_Jul_29_1516	s	s	14	3	SIC	209	ABS	0	2	24RD	0	1	0.524296998978	None	None	None	None	1
1.7	2015_Jul_29_1516	s	s	14	3	SIC	210	RC	2	2	23VD	1	0	0.467620849609	418.0	-236.0	420	-228	1
1.7	2015_Jul_29_1516	s	s	14	3	SIC	211	ABS	1	0	24MC	0	1	2.22041320801	None	None	None	None	1
1.7	2015_Jul_29_1516	s	s	14	3	SIC	212	ABS	2	1	24VO	0	1	0.558922052383	None	None	None	None	1
1.7	2015_Jul_29_1516	s	s	14	3	SIC	213	ABS	2	2	24VD	0	1	0.453508138657	None	None	None	None	1
1.7	2015_Jul_29_1516	s	s	14	3	SIC	214	ABS	1	2	24MD	0	1	1.00594210625	None	None	None	None	1
1.7	2015_Jul_29_1516	s	s	14	3	SIC	215	ABS	2	0	24VC	0	1	0.488952159882	None	None	None	None	1
1.7	2015_Jul_29_1516	s	s	14	3	SIC	216	RC	2	0	23VC	1	0	0.490434169769	-369.0	-345.0	-370	-336	1
1.7	2015_Jul_29_1516	s	s	14	3	SIC	217	ABS	0	1	24RO	0	1	3.15392613411	None	None	None	None	1
1.7	2015_Jul_29_1516	s	s	14	3	SIC	218	ABS	1	1	24MO	0	1	1.56208086014	None	None	None	None	1
1.7	2015_Jul_29_1516	s	s	14	3	SIC	219	RC	1	2	23MD	1	0	0.47011590004	204.0	146.0	210	147	1
1.7	2015_Jul_29_1516	s	s	14	3	SIC	220	RC	1	1	23MO	1	0	0.576658010483	324.0	126.0	325	131	1
1.7	2015_Jul_29_1516	s	s	14	3	SIC	221	RC	0	1	23RO	0	1	2.90713405609	85.0	-201.0	None	None	0
1.7	2015_Jul_29_1516	s	s	14	3	SIC	222	RC	1	0	23MC	1	0	1.20566105843	-33.0	-317.0	-42	-319	1
1.7	2015_Jul_29_1516	s	s	14	3	SIC	223	RC	0	2	23RD	1	0	0.903294086456	498.0	-400.0	496	-409	1
1.7	2015_Jul_29_1516	s	s	14	3	SIC	224	RC	2	1	23VO	1	0	0.570394039154	506.0	-185.0	502	-187	1
1.7	2015_Jul_29_1516	s	s	14	3	SIC	225	ABS	0	1	24RO	0	1	3.04778695107	None	None	None	None	1
1.7	2015_Jul_29_1516	s	s	14	3	SIC	226	RC	1	2	23MD	1	0	0.435260057449	204.0	-56.0	206	-56	1
1.7	2015_Jul_29_1516	s	s	14	3	SIC	227	ABS	1	1	24MO	0	1	2.59255099297	None	None	None	None	1
1.7	2015_Jul_29_1516	s	s	14	3	SIC	228	ABS	2	2	24VD	0	1	0.58793592453	None	None	None	None	1
1.7	2015_Jul_29_1516	s	s	14	3	SIC	229	ABS	1	2	24MD	0	1	0.867067098618	None	None	None	None	1
1.7	2015_Jul_29_1516	s	s	14	3	SIC	230	RC	2	0	23VC	1	0	0.517081975937	327.0	-333.0	320	-337	1
1.7	2015_Jul_29_1516	s	s	14	3	SIC	231	ABS	2	0	24VC	0	1	0.670292854309	None	None	None	None	1
1.7	2015_Jul_29_1516	s	s	14	3	SIC	232	RC	1	0	23MC	1	0	0.630125999451	-256.0	336.0	-267	336	1
1.7	2015_Jul_29_1516	s	s	14	3	SIC	233	RC	1	1	23MO	1	0	0.628562927246	-54.0	73.0	-49	70	1
1.7	2015_Jul_29_1516	s	s	14	3	SIC	234	RC	2	1	23VO	1	0	0.493757963181	-281.0	386.0	-280	393	1
1.7	2015_Jul_29_1516	s	s	14	3	SIC	235	ABS	0	2	24RD	0	1	0.676746845245	None	None	None	None	1
1.7	2015_Jul_29_1516	s	s	14	3	SIC	236	RC	0	1	23RO	0	1	1.85395908356	296.0	-96.0	None	None	0
1.7	2015_Jul_29_1516	s	s	14	3	SIC	237	ABS	1	0	24MC	0	1	1.24702596664	None	None	None	None	1
1.7	2015_Jul_29_1516	s	s	14	3	SIC	238	RC	0	2	23RD	1	0	0.693942070007	-44.0	280.0	-47	283	1
1.7	2015_Jul_29_1516	s	s	14	3	SIC	239	ABS	2	1	24VO	0	1	0.69158411026	None	None	None	None	1
1.7	2015_Jul_29_1516	s	s	14	3	SIC	240	RC	2	2	23VD	1	0	0.512704849243	-365.0	252.0	-367	261	1
1.7	2015_Jul_29_1516	s	s	14	3	SIC	241	ABS	2	0	24VC	0	1	0.493765115738	None	None	None	None	1
1.7	2015_Jul_29_1516	s	s	14	3	SIC	242	RC	1	0	23MC	1	0	0.752519845963	-106.0	180.0	-110	184	1
1.7	2015_Jul_29_1516	s	s	14	3	SIC	243	ABS	1	2	24MD	0	1	0.55942606926	None	None	None	None	1
1.7	2015_Jul_29_1516	s	s	14	3	SIC	244	RC	2	0	23VC	1	0	0.576110124588	-519.0	-30.0	-522	-34	1
1.7	2015_Jul_29_1516	s	s	14	3	SIC	245	ABS	0	2	24RD	0	1	0.858677864075	None	None	None	None	1
1.7	2015_Jul_29_1516	s	s	14	3	SIC	246	ABS	1	0	24MC	0	1	2.1008181572	None	None	None	None	1
1.7	2015_Jul_29_1516	s	s	14	3	SIC	247	ABS	1	1	24MO	0	1	2.40733385086	None	None	None	None	1
1.7	2015_Jul_29_1516	s	s	14	3	SIC	248	RC	0	2	23RD	1	0	0.552656888962	217.0	407.0	214	402	1
1.7	2015_Jul_29_1516	s	s	14	3	SIC	249	RC	2	1	23VO	1	0	0.454918146133	214.0	-364.0	220	-373	1
1.7	2015_Jul_29_1516	s	s	14	3	SIC	250	ABS	2	2	24VD	0	1	0.493754863739	None	None	None	None	1
1.7	2015_Jul_29_1516	s	s	14	3	SIC	251	RC	2	2	23VD	1	0	0.435101985931	-170.0	-115.0	-167	-112	1
1.7	2015_Jul_29_1516	s	s	14	3	SIC	252	RC	1	1	23MO	1	0	1.03165912628	109.0	-305.0	111	-306	1
1.7	2015_Jul_29_1516	s	s	14	3	SIC	253	ABS	0	1	24RO	0	1	2.94206500053	None	None	None	None	1
1.7	2015_Jul_29_1516	s	s	14	3	SIC	254	ABS	2	1	24VO	0	1	0.540730953217	None	None	None	None	1
1.7	2015_Jul_29_1516	s	s	14	3	SIC	255	RC	1	2	23MD	1	0	0.529066085815	486.0	301.0	492	308	1
1.7	2015_Jul_29_1516	s	s	14	3	SIC	256	RC	0	1	23RO	0	1	2.89237689972	538.0	-295.0	None	None	0
1.7	2015_Jul_29_1516	s	s	14	3	SIC	257	ABS	1	0	24MC	0	1	1.44117617607	None	None	None	None	1
1.7	2015_Jul_29_1516	s	s	14	3	SIC	258	RC	1	1	23MO	1	0	0.71725487709	44.0	228.0	42	237	1
1.7	2015_Jul_29_1516	s	s	14	3	SIC	259	ABS	1	1	24MO	0	1	1.94784402847	None	None	None	None	1
1.7	2015_Jul_29_1516	s	s	14	3	SIC	260	RC	2	2	23VD	1	0	0.429215908051	-409.0	-206.0	-407	-197	1
1.7	2015_Jul_29_1516	s	s	14	3	SIC	261	ABS	2	2	24VD	0	1	0.479160070419	None	None	None	None	1
1.7	2015_Jul_29_1516	s	s	14	3	SIC	262	ABS	0	2	24RD	0	1	1.3999478817	None	None	None	None	1
1.7	2015_Jul_29_1516	s	s	14	3	SIC	263	ABS	0	1	24RO	0	1	3.78445792198	None	None	None	None	1
1.7	2015_Jul_29_1516	s	s	14	3	SIC	264	ABS	2	0	24VC	0	1	0.517285108566	None	None	None	None	1
1.7	2015_Jul_29_1516	s	s	14	3	SIC	265	RC	0	1	23RO	0	1	3.74912405014	-94.0	210.0	None	None	0
1.7	2015_Jul_29_1516	s	s	14	3	SIC	266	ABS	2	1	24VO	0	1	0.620292901993	None	None	None	None	1
1.7	2015_Jul_29_1516	s	s	14	3	SIC	267	RC	2	0	23VC	1	0	0.499563932419	326.0	155.0	329	159	1
1.7	2015_Jul_29_1516	s	s	14	3	SIC	268	RC	2	1	23VO	1	0	0.512614011765	-449.0	60.0	-450	65	1
1.7	2015_Jul_29_1516	s	s	14	3	SIC	269	RC	0	2	23RD	1	0	0.422979831696	-406.0	257.0	-404	256	1
1.7	2015_Jul_29_1516	s	s	14	3	SIC	270	ABS	1	2	24MD	0	1	0.752742052078	None	None	None	None	1
1.7	2015_Jul_29_1516	s	s	14	3	SIC	271	RC	1	0	23MC	1	0	0.517321109772	-160.0	-58.0	-157	-59	1
1.7	2015_Jul_29_1516	s	s	14	3	SIC	272	RC	1	2	23MD	1	0	0.482022047043	-364.0	-272.0	-360	-271	1
1.7	2015_Jul_29_1516	s	s	14	3	SIC	273	RC	2	0	23VC	1	0	0.391534090042	234.0	-108.0	226	-111	1
1.7	2015_Jul_29_1516	s	s	14	3	SIC	274	ABS	2	2	24VD	0	1	0.464732885361	None	None	None	None	1
1.7	2015_Jul_29_1516	s	s	14	3	SIC	275	RC	1	2	23MD	1	0	0.399517059326	-349.0	14.0	-351	11	1
1.7	2015_Jul_29_1516	s	s	14	3	SIC	276	ABS	0	1	24RO	0	1	3.32489895821	None	None	None	None	1
1.7	2015_Jul_29_1516	s	s	14	3	SIC	277	RC	0	2	23RD	1	0	0.511474847794	90.0	-283.0	90	-292	1
1.7	2015_Jul_29_1516	s	s	14	3	SIC	278	ABS	0	2	24RD	0	1	0.705631971359	None	None	None	None	1
1.7	2015_Jul_29_1516	s	s	14	3	SIC	279	ABS	1	1	24MO	0	1	3.51930904388	None	None	None	None	1
1.7	2015_Jul_29_1516	s	s	14	3	SIC	280	RC	2	1	23VO	1	0	0.44645690918	-21.0	130.0	-20	128	1
1.7	2015_Jul_29_1516	s	s	14	3	SIC	281	ABS	2	0	24VC	0	1	0.576029062271	None	None	None	None	1
1.7	2015_Jul_29_1516	s	s	14	3	SIC	282	ABS	1	0	24MC	0	1	2.51824402809	None	None	None	None	1
1.7	2015_Jul_29_1516	s	s	14	3	SIC	283	RC	1	1	23MO	1	0	0.964617967606	374.0	-411.0	378	-416	1
1.7	2015_Jul_29_1516	s	s	14	3	SIC	284	RC	0	1	23RO	1	0	1.98861193657	-474.0	282.0	-482	289	1
1.7	2015_Jul_29_1516	s	s	14	3	SIC	285	RC	1	0	23MC	1	0	1.36128807068	-208.0	-411.0	-206	-407	1
1.7	2015_Jul_29_1516	s	s	14	3	SIC	286	ABS	1	2	24MD	0	1	0.729200124741	None	None	None	None	1
1.7	2015_Jul_29_1516	s	s	14	3	SIC	287	RC	2	2	23VD	1	0	0.623163938522	405.0	164.0	414	164	1
1.7	2015_Jul_29_1516	s	s	14	3	SIC	288	ABS	2	1	24VO	0	1	0.500473976135	None	None	None	None	1
1.7	2015_Jul_29_1516	s	s	14	3	SIC	289	ABS	2	2	24VD	0	1	0.434904098511	None	None	None	None	1
1.7	2015_Jul_29_1516	s	s	14	3	SIC	290	ABS	0	1	24RO	0	1	3.96163105965	None	None	None	None	1
1.7	2015_Jul_29_1516	s	s	14	3	SIC	291	RC	0	2	23RD	1	0	0.478624105453	-242.0	193.0	-250	189	1
1.7	2015_Jul_29_1516	s	s	14	3	SIC	292	ABS	1	0	24MC	0	1	1.74139904976	None	None	None	None	1
1.7	2015_Jul_29_1516	s	s	14	3	SIC	293	ABS	0	2	24RD	0	1	0.843308925629	None	None	None	None	1
1.7	2015_Jul_29_1516	s	s	14	3	SIC	294	RC	2	0	23VC	1	0	0.470579862595	-422.0	-77.0	-418	-79	1
1.7	2015_Jul_29_1516	s	s	14	3	SIC	295	RC	1	0	23MC	1	0	0.949455022812	-102.0	-140.0	-95	-139	1
1.7	2015_Jul_29_1516	s	s	14	3	SIC	296	RC	1	1	23MO	1	0	0.938246011734	370.0	-390.0	377	-388	1
1.7	2015_Jul_29_1516	s	s	14	3	SIC	297	ABS	2	0	24VC	0	1	0.747328996658	None	None	None	None	1
1.7	2015_Jul_29_1516	s	s	14	3	SIC	298	RC	0	1	23RO	1	0	0.940992116928	-113.0	-152.0	-114	-157	1
1.7	2015_Jul_29_1516	s	s	14	3	SIC	299	RC	1	2	23MD	1	0	0.654276132584	-234.0	301.0	-235	300	1
1.7	2015_Jul_29_1516	s	s	14	3	SIC	300	ABS	1	1	24MO	0	1	2.25533604622	None	None	None	None	1
1.7	2015_Jul_29_1516	s	s	14	3	SIC	301	ABS	1	2	24MD	0	1	0.599596977234	None	None	None	None	1
1.7	2015_Jul_29_1516	s	s	14	3	SIC	302	ABS	2	1	24VO	0	1	0.623215913773	None	None	None	None	1
1.7	2015_Jul_29_1516	s	s	14	3	SIC	303	RC	2	1	23VO	1	0	0.493755102158	-372.0	-253.0	-377	-253	1
1.7	2015_Jul_29_1516	s	s	14	3	SIC	304	RC	2	2	23VD	1	0	0.535567998886	-12.0	-278.0	-16	-282	1
1.7	2015_Jul_29_1516	s	s	14	3	SIC	305	ABS	2	1	24VO	0	1	0.500504016876	None	None	None	None	1
1.7	2015_Jul_29_1516	s	s	14	3	SIC	306	RC	0	2	23RD	1	0	0.596637010574	218.0	54.0	222	59	1
1.7	2015_Jul_29_1516	s	s	14	3	SIC	307	RC	2	2	23VD	1	0	0.399528980255	-104.0	-9.0	-109	-5	1
1.7	2015_Jul_29_1516	s	s	14	3	SIC	308	ABS	1	2	24MD	0	1	0.856076955795	None	None	None	None	1
1.7	2015_Jul_29_1516	s	s	14	3	SIC	309	RC	1	1	23MO	1	0	2.78428292274	460.0	-91.0	468	-87	1
1.7	2015_Jul_29_1516	s	s	14	3	SIC	310	ABS	0	2	24RD	0	1	1.26560997963	None	None	None	None	1
1.7	2015_Jul_29_1516	s	s	14	3	SIC	311	RC	2	0	23VC	1	0	0.415045022964	-104.0	-239.0	-97	-230	1
1.7	2015_Jul_29_1516	s	s	14	3	SIC	312	RC	1	2	23MD	1	0	0.482429027557	95.0	358.0	100	359	1
1.7	2015_Jul_29_1516	s	s	14	3	SIC	313	RC	2	1	23VO	1	0	0.549889802933	-528.0	8.0	-527	11	1
1.7	2015_Jul_29_1516	s	s	14	3	SIC	314	ABS	1	1	24MO	0	1	3.27158212662	None	None	None	None	1
1.7	2015_Jul_29_1516	s	s	14	3	SIC	315	ABS	0	1	24RO	0	1	3.66003894806	None	None	None	None	1
1.7	2015_Jul_29_1516	s	s	14	3	SIC	316	RC	1	0	23MC	1	0	2.25921702385	-466.0	-149.0	-471	-151	1
1.7	2015_Jul_29_1516	s	s	14	3	SIC	317	ABS	1	0	24MC	0	1	2.58332705498	None	None	None	None	1
1.7	2015_Jul_29_1516	s	s	14	3	SIC	318	RC	0	1	23RO	1	0	1.34734392166	-256.0	-74.0	-253	-72	1
1.7	2015_Jul_29_1516	s	s	14	3	SIC	319	ABS	2	0	24VC	0	1	0.841228961945	None	None	None	None	1
1.7	2015_Jul_29_1516	s	s	14	3	SIC	320	ABS	2	2	24VD	0	1	0.666978120804	None	None	None	None	1
1.7	2015_Jul_29_1516	s	s	14	3	SIC	321	ABS	1	0	24MC	0	1	3.30691385269	None	None	None	None	1
1.7	2015_Jul_29_1516	s	s	14	3	SIC	322	ABS	0	1	24RO	0	1	3.29051709175	None	None	None	None	1
1.7	2015_Jul_29_1516	s	s	14	3	SIC	323	ABS	1	1	24MO	0	1	3.40109395981	None	None	None	None	1
1.7	2015_Jul_29_1516	s	s	14	3	SIC	324	ABS	1	2	24MD	0	1	0.682089090347	None	None	None	None	1
1.7	2015_Jul_29_1516	s	s	14	3	SIC	325	RC	1	0	23MC	1	0	2.43594288826	279.0	184.0	284	184	1
1.7	2015_Jul_29_1516	s	s	14	3	SIC	326	RC	0	2	23RD	1	0	0.4583568573	-297.0	56.0	-296	61	1
1.7	2015_Jul_29_1516	s	s	14	3	SIC	327	RC	1	2	23MD	1	0	0.511659860611	-175.0	191.0	-178	192	1
1.7	2015_Jul_29_1516	s	s	14	3	SIC	328	ABS	2	0	24VC	0	1	0.512547969818	None	None	None	None	1
1.7	2015_Jul_29_1516	s	s	14	3	SIC	329	RC	1	1	23MO	1	0	0.867686033249	338.0	-204.0	346	-204	1
1.7	2015_Jul_29_1516	s	s	14	3	SIC	330	RC	0	1	23RO	1	0	0.583960056305	-110.0	5.0	-114	8	1
1.7	2015_Jul_29_1516	s	s	14	3	SIC	331	RC	2	2	23VD	1	0	0.408533096313	147.0	-64.0	151	-76	1
1.7	2015_Jul_29_1516	s	s	14	3	SIC	332	ABS	2	2	24VD	0	1	0.556246995926	None	None	None	None	1
1.7	2015_Jul_29_1516	s	s	14	3	SIC	333	ABS	2	1	24VO	0	1	0.58239197731	None	None	None	None	1
1.7	2015_Jul_29_1516	s	s	14	3	SIC	334	RC	2	1	23VO	1	0	0.481975078583	-300.0	363.0	-295	368	1
1.7	2015_Jul_29_1516	s	s	14	3	SIC	335	RC	2	0	23VC	1	0	0.49357509613	169.0	-54.0	169	-48	1
1.7	2015_Jul_29_1516	s	s	14	3	SIC	336	ABS	0	2	24RD	0	1	0.65441608429	None	None	None	None	1
1.7	2015_Jul_29_1516	s	s	14	3	SIC	337	ABS	2	0	24VC	0	1	0.729202032089	None	None	None	None	1
1.7	2015_Jul_29_1516	s	s	14	3	SIC	338	ABS	1	2	24MD	0	1	1.41185593605	None	None	None	None	1
1.7	2015_Jul_29_1516	s	s	14	3	SIC	339	ABS	1	0	24MC	0	1	3.65732693672	None	None	None	None	1
1.7	2015_Jul_29_1516	s	s	14	3	SIC	340	RC	1	1	23MO	1	0	1.96503210068	-176.0	341.0	-175	330	1
1.7	2015_Jul_29_1516	s	s	14	3	SIC	341	RC	1	2	23MD	1	0	0.585086107254	-436.0	54.0	-444	49	1
1.7	2015_Jul_29_1516	s	s	14	3	SIC	342	RC	1	0	23MC	1	0	0.607077121735	-338.0	-10.0	-342	-23	1
1.7	2015_Jul_29_1516	s	s	14	3	SIC	343	ABS	2	2	24VD	0	1	0.564925193787	None	None	None	None	1
1.7	2015_Jul_29_1516	s	s	14	3	SIC	344	ABS	2	1	24VO	0	1	0.470119953156	None	None	None	None	1
1.7	2015_Jul_29_1516	s	s	14	3	SIC	345	RC	0	2	23RD	1	0	0.735269069672	325.0	-359.0	321	-368	1
1.7	2015_Jul_29_1516	s	s	14	3	SIC	346	RC	0	1	23RO	1	0	3.97474980354	254.0	297.0	254	297	1
1.7	2015_Jul_29_1516	s	s	14	3	SIC	347	RC	2	1	23VO	1	0	0.517282962799	-493.0	-330.0	-503	-330	1
1.7	2015_Jul_29_1516	s	s	14	3	SIC	348	RC	2	2	23VD	1	0	0.434864997864	-22.0	203.0	-20	202	1
1.7	2015_Jul_29_1516	s	s	14	3	SIC	349	ABS	0	2	24RD	0	1	0.799701929092	None	None	None	None	1
1.7	2015_Jul_29_1516	s	s	14	3	SIC	350	ABS	1	1	24MO	0	1	2.78889298439	None	None	None	None	1
1.7	2015_Jul_29_1516	s	s	14	3	SIC	351	ABS	0	1	24RO	0	1	3.73068499565	None	None	None	None	1
1.7	2015_Jul_29_1516	s	s	14	3	SIC	352	RC	2	0	23VC	1	0	0.499439001083	-476.0	188.0	-468	191	1
1.7	2015_Jul_29_1516	s	s	14	3	SIC	353	RC	1	1	23MO	1	0	1.04698705673	-525.0	-102.0	-522	-101	1
1.7	2015_Jul_29_1516	s	s	14	3	SIC	354	RC	0	1	23RO	0	1	4.05659413338	59.0	110.0	None	None	0
1.7	2015_Jul_29_1516	s	s	14	3	SIC	355	ABS	2	1	24VO	1	0	0.538387060165	None	None	91	16	0
1.7	2015_Jul_29_1516	s	s	14	3	SIC	356	RC	2	2	23VD	1	0	0.458380937576	161.0	-225.0	172	-222	1
1.7	2015_Jul_29_1516	s	s	14	3	SIC	357	RC	1	0	23MC	1	0	0.82021689415	-61.0	-284.0	-67	-292	1
1.7	2015_Jul_29_1516	s	s	14	3	SIC	358	ABS	1	0	24MC	0	1	3.507117033	None	None	None	None	1
1.7	2015_Jul_29_1516	s	s	14	3	SIC	359	ABS	1	1	24MO	0	1	1.44715619087	None	None	None	None	1
1.7	2015_Jul_29_1516	s	s	14	3	SIC	360	RC	1	2	23MD	1	0	0.549781084061	-378.0	141.0	-385	141	1
1.7	2015_Jul_29_1516	s	s	14	3	SIC	361	ABS	0	1	24RO	0	1	4.11495614052	None	None	None	None	1
1.7	2015_Jul_29_1516	s	s	14	3	SIC	362	RC	0	2	23RD	1	0	0.674001932144	-245.0	335.0	-237	342	1
1.7	2015_Jul_29_1516	s	s	14	3	SIC	363	ABS	1	2	24MD	0	1	0.784669160843	None	None	None	None	1
1.7	2015_Jul_29_1516	s	s	14	3	SIC	364	ABS	0	2	24RD	0	1	0.631748914719	None	None	None	None	1
1.7	2015_Jul_29_1516	s	s	14	3	SIC	365	RC	2	0	23VC	1	0	0.491370916367	311.0	27.0	313	35	1
1.7	2015_Jul_29_1516	s	s	14	3	SIC	366	RC	2	1	23VO	1	0	0.587861061096	354.0	386.0	366	387	1
1.7	2015_Jul_29_1516	s	s	14	3	SIC	367	ABS	2	2	24VD	0	1	0.440932035446	None	None	None	None	1
1.7	2015_Jul_29_1516	s	s	14	3	SIC	368	ABS	2	0	24VC	0	1	0.587933063507	None	None	None	None	1
1.7	2015_Jul_29_1516	s	s	14	3	SIC	369	RC	1	2	23MD	1	0	0.429154157639	-56.0	79.0	-56	88	1
1.7	2015_Jul_29_1516	s	s	14	3	SIC	370	ABS	2	0	24VC	0	1	0.481792926788	None	None	None	None	1
1.7	2015_Jul_29_1516	s	s	14	3	SIC	371	RC	1	0	23MC	1	0	0.73866891861	282.0	-15.0	288	-16	1
1.7	2015_Jul_29_1516	s	s	14	3	SIC	372	RC	0	1	23RO	1	0	1.20956277847	-338.0	-88.0	-339	-91	1
1.7	2015_Jul_29_1516	s	s	14	3	SIC	373	ABS	1	1	24MO	0	1	2.91581702232	None	None	None	None	1
1.7	2015_Jul_29_1516	s	s	14	3	SIC	374	RC	1	1	23MO	1	0	0.841526031494	-168.0	207.0	-172	202	1
1.7	2015_Jul_29_1516	s	s	14	3	SIC	375	RC	2	1	23VO	1	0	0.417495012283	-220.0	-337.0	-222	-342	1
1.7	2015_Jul_29_1516	s	s	14	3	SIC	376	RC	2	2	23VD	1	0	0.382872104645	-156.0	51.0	-158	57	1
1.7	2015_Jul_29_1516	s	s	14	3	SIC	377	ABS	1	2	24MD	0	1	0.606514930725	None	None	None	None	1
1.7	2015_Jul_29_1516	s	s	14	3	SIC	378	RC	0	2	23RD	1	0	0.43546795845	111.0	-46.0	111	-43	1
1.7	2015_Jul_29_1516	s	s	14	3	SIC	379	ABS	2	1	24VO	0	1	0.764461994171	None	None	None	None	1
1.7	2015_Jul_29_1516	s	s	14	3	SIC	380	ABS	0	2	24RD	0	1	1.08211898804	None	None	None	None	1
1.7	2015_Jul_29_1516	s	s	14	3	SIC	381	ABS	2	2	24VD	0	1	0.635184049606	None	None	None	None	1
1.7	2015_Jul_29_1516	s	s	14	3	SIC	382	RC	2	0	23VC	1	0	0.51730298996	537.0	-103.0	536	-106	1
1.7	2015_Jul_29_1516	s	s	14	3	SIC	383	ABS	1	0	24MC	0	1	2.82431507111	None	None	None	None	1
1.7	2015_Jul_29_1516	s	s	14	3	SIC	384	ABS	0	1	24RO	0	1	2.53006482124	None	None	None	None	1
1.7	2015_Jul_29_1516	s	s	14	3	SIC	385	RC	1	1	23MO	1	0	0.941085100174	423.0	199.0	428	201	1
1.7	2015_Jul_29_1516	s	s	14	3	SIC	386	ABS	1	1	24MO	0	1	2.52555203438	None	None	None	None	1
1.7	2015_Jul_29_1516	s	s	14	3	SIC	387	ABS	2	0	24VC	0	1	0.705585002899	None	None	None	None	1
1.7	2015_Jul_29_1516	s	s	14	3	SIC	388	ABS	2	1	24VO	0	1	0.538047075272	None	None	None	None	1
1.7	2015_Jul_29_1516	s	s	14	3	SIC	389	RC	2	1	23VO	1	0	0.404894828796	-216.0	-21.0	-212	-20	1
1.7	2015_Jul_29_1516	s	s	14	3	SIC	390	RC	0	2	23RD	1	0	0.544449806213	-480.0	336.0	-480	338	1
1.7	2015_Jul_29_1516	s	s	14	3	SIC	391	RC	2	2	23VD	1	0	0.490974903107	-367.0	-377.0	-374	-379	1
1.7	2015_Jul_29_1516	s	s	14	3	SIC	392	ABS	1	0	24MC	0	1	2.06560897827	None	None	None	None	1
1.7	2015_Jul_29_1516	s	s	14	3	SIC	393	RC	1	0	23MC	1	0	1.65411615372	429.0	-61.0	434	-64	1
1.7	2015_Jul_29_1516	s	s	14	3	SIC	394	ABS	0	2	24RD	0	1	1.60607409477	None	None	None	None	1
1.7	2015_Jul_29_1516	s	s	14	3	SIC	395	ABS	0	1	24RO	0	1	3.63372397423	None	None	None	None	1
1.7	2015_Jul_29_1516	s	s	14	3	SIC	396	RC	2	0	23VC	1	0	0.476315975189	-268.0	346.0	-264	349	1
1.7	2015_Jul_29_1516	s	s	14	3	SIC	397	ABS	2	2	24VD	0	1	0.51729798317	None	None	None	None	1
1.7	2015_Jul_29_1516	s	s	14	3	SIC	398	RC	0	1	23RO	0	1	3.27523612976	230.0	-195.0	None	None	0
1.7	2015_Jul_29_1516	s	s	14	3	SIC	399	ABS	1	2	24MD	0	1	0.452334165573	None	None	None	None	1
1.7	2015_Jul_29_1516	s	s	14	3	SIC	400	RC	1	2	23MD	1	0	0.486983060837	8.0	248.0	11	254	1
1.7	2015_Jul_29_1516	s	s	14	3	SIC	401	ABS	2	2	24VD	0	1	0.454800128937	None	None	None	None	1
1.7	2015_Jul_29_1516	s	s	14	3	SIC	402	ABS	2	0	24VC	0	1	0.552644014359	None	None	None	None	1
1.7	2015_Jul_29_1516	s	s	14	3	SIC	403	ABS	1	0	24MC	0	1	2.2068669796	None	None	None	None	1
1.7	2015_Jul_29_1516	s	s	14	3	SIC	404	ABS	2	1	24VO	0	1	0.481807947159	None	None	None	None	1
1.7	2015_Jul_29_1516	s	s	14	3	SIC	405	ABS	1	2	24MD	0	1	0.552593946457	None	None	None	None	1
1.7	2015_Jul_29_1516	s	s	14	3	SIC	406	RC	2	2	23VD	1	0	0.568101882935	250.0	326.0	254	328	1
1.7	2015_Jul_29_1516	s	s	14	3	SIC	407	ABS	0	2	24RD	0	1	0.61696100235	None	None	None	None	1
1.7	2015_Jul_29_1516	s	s	14	3	SIC	408	RC	1	1	23MO	0	1	2.28711295128	-448.0	-409.0	None	None	0
1.7	2015_Jul_29_1516	s	s	14	3	SIC	409	RC	0	2	23RD	1	0	0.517271995544	-290.0	-401.0	-282	-404	1
1.7	2015_Jul_29_1516	s	s	14	3	SIC	410	RC	1	0	23MC	0	1	3.18421912193	-369.0	-89.0	None	None	0
1.7	2015_Jul_29_1516	s	s	14	3	SIC	411	RC	2	0	23VC	1	0	0.467767000198	295.0	341.0	294	347	1
1.7	2015_Jul_29_1516	s	s	14	3	SIC	412	RC	0	1	23RO	1	0	1.4420440197	99.0	207.0	95	210	1
1.7	2015_Jul_29_1516	s	s	14	3	SIC	413	RC	2	1	23VO	1	0	0.494216918945	-231.0	285.0	-230	282	1
1.7	2015_Jul_29_1516	s	s	14	3	SIC	414	RC	1	2	23MD	1	0	0.48192191124	211.0	-182.0	208	-183	1
1.7	2015_Jul_29_1516	s	s	14	3	SIC	415	ABS	1	1	24MO	0	1	2.60063099861	None	None	None	None	1
1.7	2015_Jul_29_1516	s	s	14	3	SIC	416	ABS	0	1	24RO	0	1	3.70470285416	None	None	None	None	1
1.7	2015_Jul_29_1516	s	s	14	3	SIC	417	RC	1	1	23MO	1	0	0.749481916428	246.0	211.0	244	215	1
1.7	2015_Jul_29_1516	s	s	14	3	SIC	418	ABS	2	0	24VC	0	1	0.592105865479	None	None	None	None	1
1.7	2015_Jul_29_1516	s	s	14	3	SIC	419	RC	2	1	23VO	1	0	0.796917200089	6.0	385.0	7	388	1
1.7	2015_Jul_29_1516	s	s	14	3	SIC	420	RC	0	1	23RO	1	0	1.50214791298	246.0	271.0	252	275	1
1.7	2015_Jul_29_1516	s	s	14	3	SIC	421	RC	1	0	23MC	1	0	1.66585707664	154.0	-183.0	150	-189	1
1.7	2015_Jul_29_1516	s	s	14	3	SIC	422	RC	2	0	23VC	1	0	1.03161501884	-454.0	-17.0	-461	-23	1
1.7	2015_Jul_29_1516	s	s	14	3	SIC	423	ABS	1	2	24MD	0	1	0.846893072128	None	None	None	None	1
1.7	2015_Jul_29_1516	s	s	14	3	SIC	424	RC	0	2	23RD	1	0	0.41127204895	-262.0	73.0	-264	70	1
1.7	2015_Jul_29_1516	s	s	14	3	SIC	425	RC	2	2	23VD	1	0	0.476227045059	-404.0	-122.0	-406	-133	1
1.7	2015_Jul_29_1516	s	s	14	3	SIC	426	ABS	1	0	24MC	0	1	2.6007399559	None	None	None	None	1
1.7	2015_Jul_29_1516	s	s	14	3	SIC	427	ABS	2	1	24VO	0	1	0.446650981903	None	None	None	None	1
1.7	2015_Jul_29_1516	s	s	14	3	SIC	428	ABS	0	1	24RO	0	1	3.06660509109	None	None	None	None	1
1.7	2015_Jul_29_1516	s	s	14	3	SIC	429	ABS	2	2	24VD	0	1	0.493712186813	None	None	None	None	1
1.7	2015_Jul_29_1516	s	s	14	3	SIC	430	RC	1	2	23MD	1	0	0.458457946777	-375.0	-130.0	-369	-126	1
1.7	2015_Jul_29_1516	s	s	14	3	SIC	431	ABS	0	2	24RD	0	1	0.630161046982	None	None	None	None	1
1.7	2015_Jul_29_1516	s	s	14	3	SIC	432	ABS	1	1	24MO	0	1	1.47074794769	None	None	None	None	1
1.7	2015_Jul_29_1516	s	s	14	3	SIC	433	ABS	1	1	24MO	0	1	1.22113800049	None	None	None	None	1
1.7	2015_Jul_29_1516	s	s	14	3	SIC	434	ABS	0	1	24RO	0	1	4.04550099373	None	None	None	None	1
1.7	2015_Jul_29_1516	s	s	14	3	SIC	435	RC	2	2	23VD	1	0	0.535135984421	-80.0	-96.0	-78	-92	1
1.7	2015_Jul_29_1516	s	s	14	3	SIC	436	ABS	1	0	24MC	0	1	1.91801691055	None	None	None	None	1
1.7	2015_Jul_29_1516	s	s	14	3	SIC	437	RC	1	1	23MO	1	0	1.63909602165	437.0	-331.0	443	-329	1
1.7	2015_Jul_29_1516	s	s	14	3	SIC	438	RC	1	2	23MD	1	0	0.493729114532	-184.0	386.0	-174	388	1
1.7	2015_Jul_29_1516	s	s	14	3	SIC	439	ABS	2	1	24VO	0	1	0.576058864594	None	None	None	None	1
1.7	2015_Jul_29_1516	s	s	14	3	SIC	440	ABS	1	2	24MD	0	1	1.23043394089	None	None	None	None	1
1.7	2015_Jul_29_1516	s	s	14	3	SIC	441	RC	2	0	23VC	1	0	0.435298204422	-352.0	254.0	-346	258	1
1.7	2015_Jul_29_1516	s	s	14	3	SIC	442	ABS	0	2	24RD	0	1	0.611475944519	None	None	None	None	1
1.7	2015_Jul_29_1516	s	s	14	3	SIC	443	RC	0	1	23RO	0	1	3.83068704605	347.0	-225.0	None	None	0
1.7	2015_Jul_29_1516	s	s	14	3	SIC	444	RC	1	0	23MC	1	0	0.806823015213	-440.0	397.0	-436	391	1
1.7	2015_Jul_29_1516	s	s	14	3	SIC	445	ABS	2	2	24VD	0	1	0.502395868301	None	None	None	None	1
1.7	2015_Jul_29_1516	s	s	14	3	SIC	446	ABS	2	0	24VC	0	1	0.596875905991	None	None	None	None	1
1.7	2015_Jul_29_1516	s	s	14	3	SIC	447	RC	0	2	23RD	1	0	0.467436075211	-453.0	48.0	-453	46	1
1.7	2015_Jul_29_1516	s	s	14	3	SIC	448	RC	2	1	23VO	1	0	0.502062082291	-464.0	-350.0	-472	-356	1
1.7	2015_Jul_29_1516	s	s	14	3	SIC	449	RC	0	1	23RO	0	1	2.03262090683	-186.0	-289.0	None	None	0
1.7	2015_Jul_29_1516	s	s	14	3	SIC	450	ABS	0	1	24RO	0	1	3.51885294914	None	None	None	None	1
1.7	2015_Jul_29_1516	s	s	14	3	SIC	451	ABS	1	1	24MO	0	1	1.6683678627	None	None	None	None	1
1.7	2015_Jul_29_1516	s	s	14	3	SIC	452	RC	2	1	23VO	1	0	0.493755817413	-299.0	388.0	-302	394	1
1.7	2015_Jul_29_1516	s	s	14	3	SIC	453	RC	1	0	23MC	1	0	0.925905942917	-457.0	-91.0	-454	-83	1
1.7	2015_Jul_29_1516	s	s	14	3	SIC	454	ABS	2	0	24VC	0	1	0.431666135788	None	None	None	None	1
1.7	2015_Jul_29_1516	s	s	14	3	SIC	455	RC	1	1	23MO	1	0	0.688822031021	-453.0	-195.0	-442	-194	1
1.7	2015_Jul_29_1516	s	s	14	3	SIC	456	RC	2	0	23VC	1	0	0.455316066742	-216.0	332.0	-215	333	1
1.7	2015_Jul_29_1516	s	s	14	3	SIC	457	ABS	2	2	24VD	0	1	0.517280817032	None	None	None	None	1
1.7	2015_Jul_29_1516	s	s	14	3	SIC	458	ABS	1	0	24MC	0	1	2.57454586029	None	None	None	None	1
1.7	2015_Jul_29_1516	s	s	14	3	SIC	459	ABS	1	2	24MD	0	1	0.807789087296	None	None	None	None	1
1.7	2015_Jul_29_1516	s	s	14	3	SIC	460	ABS	2	1	24VO	0	1	0.48782491684	None	None	None	None	1
1.7	2015_Jul_29_1516	s	s	14	3	SIC	461	RC	2	2	23VD	1	0	0.464189052582	449.0	-145.0	451	-147	1
1.7	2015_Jul_29_1516	s	s	14	3	SIC	462	RC	1	2	23MD	1	0	0.525340080261	277.0	-231.0	281	-231	1
1.7	2015_Jul_29_1516	s	s	14	3	SIC	463	RC	0	2	23RD	1	0	0.455878973007	-264.0	125.0	-268	123	1
1.7	2015_Jul_29_1516	s	s	14	3	SIC	464	ABS	0	2	24RD	0	1	0.552638053894	None	None	None	None	1
1.7	2015_Jul_29_1516	s	s	14	3	SIC	465	RC	1	2	23MD	1	0	0.408560991287	-135.0	177.0	-135	175	1
1.7	2015_Jul_29_1516	s	s	14	3	SIC	466	ABS	2	2	24VD	0	1	0.411060094833	None	None	None	None	1
1.7	2015_Jul_29_1516	s	s	14	3	SIC	467	ABS	0	2	24RD	0	1	0.641246080399	None	None	None	None	1
1.7	2015_Jul_29_1516	s	s	14	3	SIC	468	ABS	1	0	24MC	0	1	3.38936495781	None	None	None	None	1
1.7	2015_Jul_29_1516	s	s	14	3	SIC	469	RC	2	2	23VD	1	0	0.450340986252	233.0	231.0	236	232	1
1.7	2015_Jul_29_1516	s	s	14	3	SIC	470	ABS	1	2	24MD	0	1	0.564376831055	None	None	None	None	1
1.7	2015_Jul_29_1516	s	s	14	3	SIC	471	RC	2	0	23VC	1	0	0.558332920074	-446.0	328.0	-445	331	1
1.7	2015_Jul_29_1516	s	s	14	3	SIC	472	ABS	0	1	24RO	0	1	2.71025586128	None	None	None	None	1
1.7	2015_Jul_29_1516	s	s	14	3	SIC	473	RC	0	1	23RO	1	0	1.01162099838	-144.0	-120.0	-133	-117	1
1.7	2015_Jul_29_1516	s	s	14	3	SIC	474	ABS	2	0	24VC	0	1	0.470288991928	None	None	None	None	1
1.7	2015_Jul_29_1516	s	s	14	3	SIC	475	ABS	1	1	24MO	0	1	1.97684407234	None	None	None	None	1
1.7	2015_Jul_29_1516	s	s	14	3	SIC	476	RC	0	2	23RD	1	0	0.458292961121	-391.0	-76.0	-397	-77	1
1.7	2015_Jul_29_1516	s	s	14	3	SIC	477	RC	1	1	23MO	1	0	1.15042304993	172.0	276.0	172	270	1
1.7	2015_Jul_29_1516	s	s	14	3	SIC	478	RC	2	1	23VO	1	0	0.482024908066	-300.0	313.0	-302	314	1
1.7	2015_Jul_29_1516	s	s	14	3	SIC	479	ABS	2	1	24VO	0	1	0.470266819	None	None	None	None	1
1.7	2015_Jul_29_1516	s	s	14	3	SIC	480	RC	1	0	23MC	0	1	2.20958900452	-339.0	161.0	None	None	0
1.7	2015_Jul_29_1516	s	s	14	3	SIC	481	RC	0	1	23RO	0	1	3.03623080254	377.0	63.0	None	None	0
1.7	2015_Jul_29_1516	s	s	14	3	SIC	482	RC	1	1	23MO	1	0	0.879106998444	-83.0	-288.0	-81	-287	1
1.7	2015_Jul_29_1516	s	s	14	3	SIC	483	RC	2	0	23VC	1	0	0.481988191605	-99.0	66.0	-96	76	1
1.7	2015_Jul_29_1516	s	s	14	3	SIC	484	RC	2	2	23VD	1	0	0.399685144424	-210.0	-149.0	-208	-143	1
1.7	2015_Jul_29_1516	s	s	14	3	SIC	485	ABS	2	0	24VC	0	1	0.489301204681	None	None	None	None	1
1.7	2015_Jul_29_1516	s	s	14	3	SIC	486	ABS	1	2	24MD	0	1	0.505537986755	None	None	None	None	1
1.7	2015_Jul_29_1516	s	s	14	3	SIC	487	ABS	2	1	24VO	0	1	0.56422495842	None	None	None	None	1
1.7	2015_Jul_29_1516	s	s	14	3	SIC	488	ABS	1	0	24MC	0	1	2.42406797409	None	None	None	None	1
1.7	2015_Jul_29_1516	s	s	14	3	SIC	489	ABS	0	1	24RO	0	1	3.77500081062	None	None	None	None	1
1.7	2015_Jul_29_1516	s	s	14	3	SIC	490	RC	1	0	23MC	1	0	0.658573865891	-18.0	235.0	-26	241	1
1.7	2015_Jul_29_1516	s	s	14	3	SIC	491	RC	2	1	23VO	1	0	0.617988824844	-289.0	374.0	-283	379	1
1.7	2015_Jul_29_1516	s	s	14	3	SIC	492	ABS	0	2	24RD	0	1	1.22355699539	None	None	None	None	1
1.7	2015_Jul_29_1516	s	s	14	3	SIC	493	RC	0	2	23RD	1	0	0.523811817169	-197.0	-294.0	-198	-302	1
1.7	2015_Jul_29_1516	s	s	14	3	SIC	494	ABS	1	1	24MO	0	1	2.07790517807	None	None	None	None	1
1.7	2015_Jul_29_1516	s	s	14	3	SIC	495	ABS	2	2	24VD	0	1	0.487941026688	None	None	None	None	1
1.7	2015_Jul_29_1516	s	s	14	3	SIC	496	RC	1	2	23MD	1	0	0.588021039963	445.0	148.0	458	154	1
1.7	2015_Jul_29_1516	s	s	14	3	SIC	497	RC	0	1	23RO	0	1	2.63040995598	-300.0	-78.0	None	None	0
1.7	2015_Jul_29_1516	s	s	14	3	SIC	498	ABS	0	2	24RD	0	1	0.52911901474	None	None	None	None	1
1.7	2015_Jul_29_1516	s	s	14	3	SIC	499	RC	0	2	23RD	1	0	0.729156017303	405.0	-33.0	407	-32	1
1.7	2015_Jul_29_1516	s	s	14	3	SIC	500	RC	1	1	23MO	1	0	0.940878868103	-50.0	-150.0	-48	-147	1
1.7	2015_Jul_29_1516	s	s	14	3	SIC	501	ABS	0	1	24RO	0	1	2.56049895287	None	None	None	None	1
1.7	2015_Jul_29_1516	s	s	14	3	SIC	502	ABS	1	2	24MD	0	1	0.632542848587	None	None	None	None	1
1.7	2015_Jul_29_1516	s	s	14	3	SIC	503	ABS	2	1	24VO	0	1	0.481971025467	None	None	None	None	1
1.7	2015_Jul_29_1516	s	s	14	3	SIC	504	RC	1	2	23MD	1	0	0.726263999939	-212.0	399.0	-211	405	1
1.7	2015_Jul_29_1516	s	s	14	3	SIC	505	ABS	1	0	24MC	0	1	2.03342700005	None	None	None	None	1
1.7	2015_Jul_29_1516	s	s	14	3	SIC	506	ABS	2	0	24VC	0	1	0.481960058212	None	None	None	None	1
1.7	2015_Jul_29_1516	s	s	14	3	SIC	507	ABS	1	1	24MO	0	1	2.55359888077	None	None	None	None	1
1.7	2015_Jul_29_1516	s	s	14	3	SIC	508	ABS	2	2	24VD	0	1	0.455900907516	None	None	None	None	1
1.7	2015_Jul_29_1516	s	s	14	3	SIC	509	RC	2	0	23VC	1	0	0.597472906113	476.0	400.0	483	403	1
1.7	2015_Jul_29_1516	s	s	14	3	SIC	510	RC	2	2	23VD	1	0	0.482032060623	242.0	287.0	248	285	1
1.7	2015_Jul_29_1516	s	s	14	3	SIC	511	RC	2	1	23VO	1	0	0.441739082336	397.0	-52.0	386	-52	1
1.7	2015_Jul_29_1516	s	s	14	3	SIC	512	RC	1	0	23MC	1	0	1.78313112259	-65.0	213.0	-67	218	1
1.7	2015_Jul_29_1516	s	s	14	3	SIC	513	ABS	2	1	24VO	0	1	0.419411182404	None	None	None	None	1
1.7	2015_Jul_29_1516	s	s	14	3	SIC	514	ABS	1	0	24MC	0	1	2.64770698547	None	None	None	None	1
1.7	2015_Jul_29_1516	s	s	14	3	SIC	515	ABS	0	1	24RO	0	1	2.73899793625	None	None	None	None	1
1.7	2015_Jul_29_1516	s	s	14	3	SIC	516	ABS	0	2	24RD	0	1	0.628951072693	None	None	None	None	1
1.7	2015_Jul_29_1516	s	s	14	3	SIC	517	RC	0	2	23RD	1	0	0.528896093369	-90.0	-197.0	-96	-206	1
1.7	2015_Jul_29_1516	s	s	14	3	SIC	518	RC	2	2	23VD	1	0	0.752717971802	-389.0	100.0	-396	105	1
1.7	2015_Jul_29_1516	s	s	14	3	SIC	519	ABS	2	0	24VC	0	1	0.488063097	None	None	None	None	1
1.7	2015_Jul_29_1516	s	s	14	3	SIC	520	ABS	2	2	24VD	1	0	0.517219781876	None	None	6	-94	0
1.7	2015_Jul_29_1516	s	s	14	3	SIC	521	RC	1	1	23MO	1	0	0.914935112	-189.0	-372.0	-194	-364	1
1.7	2015_Jul_29_1516	s	s	14	3	SIC	522	RC	1	2	23MD	1	0	0.441873073578	21.0	-74.0	22	-70	1
1.7	2015_Jul_29_1516	s	s	14	3	SIC	523	ABS	1	1	24MO	0	1	2.56540393829	None	None	None	None	1
1.7	2015_Jul_29_1516	s	s	14	3	SIC	524	RC	2	0	23VC	1	0	0.429733991623	-374.0	193.0	-374	197	1
1.7	2015_Jul_29_1516	s	s	14	3	SIC	525	ABS	1	2	24MD	0	1	0.629213809967	None	None	None	None	1
1.7	2015_Jul_29_1516	s	s	14	3	SIC	526	RC	0	1	23RO	1	0	0.924741983414	-297.0	-264.0	-291	-262	1
1.7	2015_Jul_29_1516	s	s	14	3	SIC	527	RC	2	1	23VO	1	0	0.48185300827	-88.0	-286.0	-80	-286	1
1.7	2015_Jul_29_1516	s	s	14	3	SIC	528	RC	1	0	23MC	1	0	1.96504497528	365.0	-148.0	362	-157	1
1.7	2015_Jul_29_1516	s	s	14	3	SIC	529	RC	2	1	23VO	1	0	0.399593114853	-58.0	-367.0	-64	-372	1
1.7	2015_Jul_29_1516	s	s	14	3	SIC	530	ABS	0	1	24RO	0	1	3.53058099747	None	None	None	None	1
1.7	2015_Jul_29_1516	s	s	14	3	SIC	531	RC	1	2	23MD	1	0	0.654489994049	440.0	137.0	433	143	1
1.7	2015_Jul_29_1516	s	s	14	3	SIC	532	RC	0	2	23RD	1	0	0.452872991562	-508.0	264.0	-516	266	1
1.7	2015_Jul_29_1516	s	s	14	3	SIC	533	RC	1	0	23MC	1	0	0.705507993698	-23.0	-180.0	-28	-179	1
1.7	2015_Jul_29_1516	s	s	14	3	SIC	534	ABS	1	2	24MD	1	0	1.31406283379	None	None	73	10	0
1.7	2015_Jul_29_1516	s	s	14	3	SIC	535	ABS	0	2	24RD	0	1	0.595767021179	None	None	None	None	1
1.7	2015_Jul_29_1516	s	s	14	3	SIC	536	RC	2	2	23VD	1	0	0.420135974884	-294.0	155.0	-297	157	1
1.7	2015_Jul_29_1516	s	s	14	3	SIC	537	ABS	2	2	24VD	0	1	0.464030981064	None	None	None	None	1
1.7	2015_Jul_29_1516	s	s	14	3	SIC	538	RC	1	1	23MO	1	0	0.976288080215	-284.0	-256.0	-280	-257	1
1.7	2015_Jul_29_1516	s	s	14	3	SIC	539	RC	2	0	23VC	1	0	0.408951997757	337.0	-52.0	330	-54	1
1.7	2015_Jul_29_1516	s	s	14	3	SIC	540	ABS	2	1	24VO	0	1	0.458895921707	None	None	None	None	1
1.7	2015_Jul_29_1516	s	s	14	3	SIC	541	ABS	1	0	24MC	0	1	3.06901097298	None	None	None	None	1
1.7	2015_Jul_29_1516	s	s	14	3	SIC	542	ABS	1	1	24MO	0	1	1.71546292305	None	None	None	None	1
1.7	2015_Jul_29_1516	s	s	14	3	SIC	543	ABS	2	0	24VC	0	1	0.481932878494	None	None	None	None	1
1.7	2015_Jul_29_1516	s	s	14	3	SIC	544	RC	0	1	23RO	1	0	2.50655698776	-341.0	396.0	-343	396	1
1.7	2015_Jul_29_1516	s	s	14	3	SIC	545	ABS	1	2	24MD	0	1	1.41179704666	None	None	None	None	1
1.7	2015_Jul_29_1516	s	s	14	3	SIC	546	ABS	1	1	24MO	0	1	3.24833297729	None	None	None	None	1
1.7	2015_Jul_29_1516	s	s	14	3	SIC	547	ABS	2	1	24VO	0	1	0.446689128876	None	None	None	None	1
1.7	2015_Jul_29_1516	s	s	14	3	SIC	548	ABS	2	2	24VD	0	1	0.679341077805	None	None	None	None	1
1.7	2015_Jul_29_1516	s	s	14	3	SIC	549	ABS	2	0	24VC	0	1	0.547710180283	None	None	None	None	1
1.7	2015_Jul_29_1516	s	s	14	3	SIC	550	ABS	1	0	24MC	0	1	2.6659719944	None	None	None	None	1
1.7	2015_Jul_29_1516	s	s	14	3	SIC	551	ABS	0	2	24RD	0	1	0.582974910736	None	None	None	None	1
1.7	2015_Jul_29_1516	s	s	14	3	SIC	552	RC	2	0	23VC	1	0	0.453252077103	-309.0	125.0	-299	124	1
1.7	2015_Jul_29_1516	s	s	14	3	SIC	553	RC	1	2	23MD	1	0	0.479207038879	-39.0	187.0	-37	192	1
1.7	2015_Jul_29_1516	s	s	14	3	SIC	554	RC	1	1	23MO	1	0	2.63601303101	481.0	-158.0	483	-159	1
1.7	2015_Jul_29_1516	s	s	14	3	SIC	555	RC	2	2	23VD	1	0	0.417669057846	-180.0	-103.0	-174	-107	1
1.7	2015_Jul_29_1516	s	s	14	3	SIC	556	RC	0	2	23RD	1	0	0.517440080643	454.0	-303.0	458	-298	1
1.7	2015_Jul_29_1516	s	s	14	3	SIC	557	ABS	0	1	24RO	0	1	4.26083397865	None	None	None	None	1
1.7	2015_Jul_29_1516	s	s	14	3	SIC	558	RC	2	1	23VO	1	0	0.630610942841	-448.0	174.0	-440	173	1
1.7	2015_Jul_29_1516	s	s	14	3	SIC	559	RC	1	0	23MC	1	0	2.82166004181	372.0	217.0	372	219	1
1.7	2015_Jul_29_1516	s	s	14	3	SIC	560	RC	0	1	23RO	0	1	3.18909215927	-312.0	-304.0	None	None	0
1.7	2015_Jul_29_1516	s	s	14	3	SIC	561	ABS	1	2	24MD	0	1	1.68243598938	None	None	None	None	1
1.7	2015_Jul_29_1516	s	s	14	3	SIC	562	RC	2	2	23VD	1	0	0.52912402153	47.0	-321.0	47	-320	1
1.7	2015_Jul_29_1516	s	s	14	3	SIC	563	RC	2	1	23VO	1	0	0.454469919205	-146.0	-299.0	-141	-306	1
1.7	2015_Jul_29_1516	s	s	14	3	SIC	564	RC	2	0	23VC	1	0	0.411246061325	342.0	-238.0	337	-243	1
1.7	2015_Jul_29_1516	s	s	14	3	SIC	565	ABS	0	2	24RD	0	1	0.926657915115	None	None	None	None	1
1.7	2015_Jul_29_1516	s	s	14	3	SIC	566	ABS	0	1	24RO	0	1	2.49469780922	None	None	None	None	1
1.7	2015_Jul_29_1516	s	s	14	3	SIC	567	ABS	1	0	24MC	0	1	3.77288103104	None	None	None	None	1
1.7	2015_Jul_29_1516	s	s	14	3	SIC	568	RC	0	2	23RD	1	0	0.91743516922	274.0	-208.0	275	-215	1
1.7	2015_Jul_29_1516	s	s	14	3	SIC	569	ABS	2	1	24VO	0	1	1.64728999138	None	None	None	None	1
1.7	2015_Jul_29_1516	s	s	14	3	SIC	570	RC	1	1	23MO	1	0	0.900014877319	539.0	-346.0	534	-349	1
1.7	2015_Jul_29_1516	s	s	14	3	SIC	571	ABS	2	2	24VD	0	1	0.470103979111	None	None	None	None	1
1.7	2015_Jul_29_1516	s	s	14	3	SIC	572	ABS	1	1	24MO	0	1	2.12559199333	None	None	None	None	1
1.7	2015_Jul_29_1516	s	s	14	3	SIC	573	RC	0	1	23RO	1	0	2.88347601891	242.0	36.0	234	34	1
1.7	2015_Jul_29_1516	s	s	14	3	SIC	574	RC	1	2	23MD	1	0	0.470227003098	455.0	242.0	451	250	1
1.7	2015_Jul_29_1516	s	s	14	3	SIC	575	ABS	2	0	24VC	0	1	0.538414001465	None	None	None	None	1
1.7	2015_Jul_29_1516	s	s	14	3	SIC	576	RC	1	0	23MC	1	0	0.952800035477	-164.0	410.0	-171	412	1
1.7	2015_Jul_29_1516	s	s	14	3	SIC	577	ABS	0	2	24RD	0	1	1.64713096619	None	None	None	None	1
1.7	2015_Jul_29_1516	s	s	14	3	SIC	578	ABS	0	1	24RO	0	1	3.3302731514	None	None	None	None	1
1.7	2015_Jul_29_1516	s	s	14	3	SIC	579	ABS	1	1	24MO	0	1	1.54996109009	None	None	None	None	1
1.7	2015_Jul_29_1516	s	s	14	3	SIC	580	RC	1	1	23MO	1	0	1.04115700722	58.0	-137.0	62	-132	1
1.7	2015_Jul_29_1516	s	s	14	3	SIC	581	RC	0	2	23RD	1	0	0.594045877457	-535.0	121.0	-523	125	1
1.7	2015_Jul_29_1516	s	s	14	3	SIC	582	ABS	1	0	24MC	0	1	1.98533987999	None	None	None	None	1
1.7	2015_Jul_29_1516	s	s	14	3	SIC	583	ABS	2	1	24VO	0	1	0.514603853226	None	None	None	None	1
1.7	2015_Jul_29_1516	s	s	14	3	SIC	584	ABS	2	2	24VD	0	1	0.487783908844	None	None	None	None	1
1.7	2015_Jul_29_1516	s	s	14	3	SIC	585	RC	1	2	23MD	1	0	0.641060829163	231.0	47.0	228	43	1
1.7	2015_Jul_29_1516	s	s	14	3	SIC	586	ABS	2	0	24VC	0	1	0.741015911102	None	None	None	None	1
1.7	2015_Jul_29_1516	s	s	14	3	SIC	587	RC	1	0	23MC	1	0	2.65719294548	-502.0	-114.0	-496	-122	1
1.7	2015_Jul_29_1516	s	s	14	3	SIC	588	RC	0	1	23RO	0	1	3.95097184181	246.0	5.0	None	None	0
1.7	2015_Jul_29_1516	s	s	14	3	SIC	589	RC	2	0	23VC	1	0	0.481839179993	-171.0	-171.0	-166	-172	1
1.7	2015_Jul_29_1516	s	s	14	3	SIC	590	ABS	1	2	24MD	0	1	0.550107955933	None	None	None	None	1
1.7	2015_Jul_29_1516	s	s	14	3	SIC	591	RC	2	2	23VD	1	0	0.572252035141	406.0	290.0	403	291	1
1.7	2015_Jul_29_1516	s	s	14	3	SIC	592	RC	2	1	23VO	1	0	0.512154102325	-290.0	204.0	-294	196	1
