Version	Date	Stimuli	Method	Subject	Session	Condition	Trial	Target	Channel1	Channel2	Distractors	LMouseButton	RMouseButton	RT	TargetX	TargetY	ResponseX	ResponseY	Correct
1.7	2015_Jul_30_0912	s	s	14	4	Capacity	1	RC	1	0	23MC	0	1	3.45670413971	55.0	-337.0	None	None	0
1.7	2015_Jul_30_0912	s	s	14	4	Capacity	2	ABS	1	0	24MC	0	1	1.62378621101	None	None	None	None	1
1.7	2015_Jul_30_0912	s	s	14	4	Capacity	3	ABS	2	0	24VC	0	1	0.552703142166	None	None	None	None	1
1.7	2015_Jul_30_0912	s	s	14	4	Capacity	4	RC	2	0	23VC	1	0	0.475397825241	80.0	-321.0	80	-321	1
1.7	2015_Jul_30_0912	s	s	14	4	Capacity	5	RC	2	0	23VC	1	0	0.711834907532	-440.0	359.0	-436	355	1
1.7	2015_Jul_30_0912	s	s	14	4	Capacity	6	ABS	1	0	24MC	0	1	2.47481107712	None	None	None	None	1
1.7	2015_Jul_30_0912	s	s	14	4	Capacity	7	RC	1	0	23MC	0	1	4.2786898613	177.0	323.0	None	None	0
1.7	2015_Jul_30_0912	s	s	14	4	Capacity	8	ABS	2	0	24VC	0	1	1.21857690811	None	None	None	None	1
1.7	2015_Jul_30_0912	s	s	14	4	Capacity	9	RC	1	0	23MC	0	1	2.46616292	332.0	58.0	None	None	0
1.7	2015_Jul_30_0912	s	s	14	4	Capacity	10	RC	2	0	23VC	1	0	0.559845924377	-35.0	216.0	-29	215	1
1.7	2015_Jul_30_0912	s	s	14	4	Capacity	11	ABS	1	0	24MC	0	1	2.95054721832	None	None	None	None	1
1.7	2015_Jul_30_0912	s	s	14	4	Capacity	12	ABS	2	0	24VC	0	1	0.576089143753	None	None	None	None	1
1.7	2015_Jul_30_0912	s	s	14	4	Capacity	13	ABS	2	0	24VC	0	1	0.529037952423	None	None	None	None	1
1.7	2015_Jul_30_0912	s	s	14	4	Capacity	14	ABS	1	0	24MC	0	1	2.31817507744	None	None	None	None	1
1.7	2015_Jul_30_0912	s	s	14	4	Capacity	15	RC	1	0	23MC	0	1	2.70662307739	-55.0	-387.0	None	None	0
1.7	2015_Jul_30_0912	s	s	14	4	Capacity	16	RC	2	0	23VC	1	0	0.552923202515	422.0	37.0	415	38	1
1.7	2015_Jul_30_0912	s	s	14	4	Capacity	17	RC	2	0	23VC	1	0	0.674000024796	64.0	-195.0	65	-188	1
1.7	2015_Jul_30_0912	s	s	14	4	Capacity	18	RC	1	0	23MC	1	0	2.37702798843	264.0	-181.0	259	-182	1
1.7	2015_Jul_30_0912	s	s	14	4	Capacity	19	ABS	2	0	24VC	0	1	0.806496143341	None	None	None	None	1
1.7	2015_Jul_30_0912	s	s	14	4	Capacity	20	ABS	1	0	24MC	0	1	2.64776015282	None	None	None	None	1
1.7	2015_Jul_30_0912	s	s	14	4	Capacity	21	RC	1	0	23MC	1	0	1.83093810081	131.0	404.0	131	404	1
1.7	2015_Jul_30_0912	s	s	14	4	Capacity	22	RC	2	0	23VC	1	0	0.517246007919	-172.0	-108.0	-162	-108	1
1.7	2015_Jul_30_0912	s	s	14	4	Capacity	23	ABS	2	0	24VC	0	1	0.51223897934	None	None	None	None	1
1.7	2015_Jul_30_0912	s	s	14	4	Capacity	24	ABS	1	0	24MC	0	1	3.07836294174	None	None	None	None	1
1.7	2015_Jul_30_0912	s	s	14	4	Capacity	25	ABS	2	0	24VC	0	1	0.764535903931	None	None	None	None	1
1.7	2015_Jul_30_0912	s	s	14	4	Capacity	26	RC	1	0	23MC	1	0	1.07771611214	-307.0	72.0	-298	68	1
1.7	2015_Jul_30_0912	s	s	14	4	Capacity	27	ABS	1	0	24MC	0	1	4.20841789246	None	None	None	None	1
1.7	2015_Jul_30_0912	s	s	14	4	Capacity	28	RC	2	0	23VC	1	0	0.749514818192	-92.0	401.0	-95	392	1
1.7	2015_Jul_30_0912	s	s	14	4	Capacity	29	RC	1	0	23MC	1	0	2.07694101334	537.0	28.0	533	23	1
1.7	2015_Jul_30_0912	s	s	14	4	Capacity	30	RC	2	0	23VC	1	0	0.500250101089	-56.0	282.0	-52	284	1
1.7	2015_Jul_30_0912	s	s	14	4	Capacity	31	ABS	2	0	24VC	0	1	1.50599193573	None	None	None	None	1
1.7	2015_Jul_30_0912	s	s	14	4	Capacity	32	ABS	1	0	24MC	0	1	3.65481305122	None	None	None	None	1
1.7	2015_Jul_30_0912	s	s	14	4	Capacity	33	ABS	1	0	24MC	0	1	1.70626401901	None	None	None	None	1
1.7	2015_Jul_30_0912	s	s	14	4	Capacity	34	RC	1	0	23MC	1	0	0.961833000183	398.0	-303.0	403	-309	1
1.7	2015_Jul_30_0912	s	s	14	4	Capacity	35	RC	2	0	23VC	1	0	0.717440128326	-482.0	73.0	-488	72	1
1.7	2015_Jul_30_0912	s	s	14	4	Capacity	36	ABS	2	0	24VC	0	1	1.17644715309	None	None	None	None	1
1.7	2015_Jul_30_0912	s	s	14	4	Capacity	37	RC	2	0	23VC	1	0	0.782332181931	491.0	300.0	491	290	1
1.7	2015_Jul_30_0912	s	s	14	4	Capacity	38	RC	1	0	23MC	0	1	3.04291200638	155.0	304.0	None	None	0
1.7	2015_Jul_30_0912	s	s	14	4	Capacity	39	ABS	1	0	24MC	0	1	3.84550094604	None	None	None	None	1
1.7	2015_Jul_30_0912	s	s	14	4	Capacity	40	ABS	2	0	24VC	0	1	3.01933217049	None	None	None	None	1
1.7	2015_Jul_30_0912	s	s	14	4	Capacity	41	RC	2	0	23VC	1	0	0.502863883972	66.0	-407.0	64	-405	1
1.7	2015_Jul_30_0912	s	s	14	4	Capacity	42	RC	1	0	23MC	1	0	1.08248496056	183.0	-186.0	191	-178	1
1.7	2015_Jul_30_0912	s	s	14	4	Capacity	43	ABS	2	0	24VC	0	1	0.788037061691	None	None	None	None	1
1.7	2015_Jul_30_0912	s	s	14	4	Capacity	44	ABS	1	0	24MC	0	1	2.69026303291	None	None	None	None	1
1.7	2015_Jul_30_0912	s	s	14	4	Capacity	45	RC	2	0	23VC	1	0	0.46522808075	130.0	170.0	122	171	1
1.7	2015_Jul_30_0912	s	s	14	4	Capacity	46	ABS	1	0	24MC	0	1	2.64780211449	None	None	None	None	1
1.7	2015_Jul_30_0912	s	s	14	4	Capacity	47	RC	1	0	23MC	1	0	0.893899917603	539.0	368.0	537	358	1
1.7	2015_Jul_30_0912	s	s	14	4	Capacity	48	ABS	2	0	24VC	0	1	0.576112985611	None	None	None	None	1
1.7	2015_Jul_30_0912	s	s	14	4	Capacity	49	ABS	2	0	24VC	0	1	0.787981033325	None	None	None	None	1
1.7	2015_Jul_30_0912	s	s	14	4	Capacity	50	RC	2	0	23VC	1	0	0.432613134384	204.0	-13.0	202	-11	1
1.7	2015_Jul_30_0912	s	s	14	4	Capacity	51	ABS	1	0	24MC	0	1	2.2593228817	None	None	None	None	1
1.7	2015_Jul_30_0912	s	s	14	4	Capacity	52	RC	1	0	23MC	1	0	2.46706700325	-436.0	-110.0	-438	-114	1
1.7	2015_Jul_30_0912	s	s	14	4	Capacity	53	RC	1	0	23MC	1	0	2.66827583313	-25.0	-136.0	-24	-130	1
1.7	2015_Jul_30_0912	s	s	14	4	Capacity	54	ABS	2	0	24VC	0	1	0.503015041351	None	None	None	None	1
1.7	2015_Jul_30_0912	s	s	14	4	Capacity	55	ABS	1	0	24MC	0	1	3.57805490494	None	None	None	None	1
1.7	2015_Jul_30_0912	s	s	14	4	Capacity	56	RC	2	0	23VC	1	0	0.441861867905	-351.0	-397.0	-356	-392	1
1.7	2015_Jul_30_0912	s	s	14	4	Capacity	57	RC	1	0	23MC	1	0	2.65938997269	-387.0	-16.0	-384	-17	1
1.7	2015_Jul_30_0912	s	s	14	4	Capacity	58	ABS	1	0	24MC	0	1	2.77248096466	None	None	None	None	1
1.7	2015_Jul_30_0912	s	s	14	4	Capacity	59	RC	2	0	23VC	1	0	0.435089111328	-253.0	-191.0	-246	-184	1
1.7	2015_Jul_30_0912	s	s	14	4	Capacity	60	ABS	2	0	24VC	0	1	0.744630098343	None	None	None	None	1
1.7	2015_Jul_30_0912	s	s	14	4	Capacity	61	RC	2	0	23VC	1	0	0.470153808594	-506.0	60.0	-507	57	1
1.7	2015_Jul_30_0912	s	s	14	4	Capacity	62	RC	1	0	23MC	1	0	0.63001203537	220.0	-156.0	222	-151	1
1.7	2015_Jul_30_0912	s	s	14	4	Capacity	63	ABS	1	0	24MC	0	1	2.84423995018	None	None	None	None	1
1.7	2015_Jul_30_0912	s	s	14	4	Capacity	64	ABS	2	0	24VC	0	1	1.02027082443	None	None	None	None	1
1.7	2015_Jul_30_0912	s	s	14	4	Capacity	65	ABS	2	0	24VC	0	1	0.805335044861	None	None	None	None	1
1.7	2015_Jul_30_0912	s	s	14	4	Capacity	66	RC	1	0	23MC	1	0	2.98390483856	-97.0	340.0	-99	339	1
1.7	2015_Jul_30_0912	s	s	14	4	Capacity	67	ABS	1	0	24MC	0	1	3.04829692841	None	None	None	None	1
1.7	2015_Jul_30_0912	s	s	14	4	Capacity	68	RC	2	0	23VC	1	0	0.529323101044	-463.0	261.0	-458	263	1
1.7	2015_Jul_30_0912	s	s	14	4	Capacity	69	RC	1	0	23MC	1	0	0.835036039352	-40.0	-55.0	-39	-58	1
1.7	2015_Jul_30_0912	s	s	14	4	Capacity	70	ABS	2	0	24VC	0	1	0.794788837433	None	None	None	None	1
1.7	2015_Jul_30_0912	s	s	14	4	Capacity	71	RC	2	0	23VC	1	0	0.382443904877	-114.0	-390.0	-108	-393	1
1.7	2015_Jul_30_0912	s	s	14	4	Capacity	72	ABS	1	0	24MC	0	1	2.00949883461	None	None	None	None	1
1.7	2015_Jul_30_0912	s	s	14	4	Capacity	73	ABS	1	0	24MC	0	1	2.938393116	None	None	None	None	1
1.7	2015_Jul_30_0912	s	s	14	4	Capacity	74	RC	1	0	23MC	1	0	0.839010953903	129.0	-324.0	130	-321	1
1.7	2015_Jul_30_0912	s	s	14	4	Capacity	75	RC	2	0	23VC	1	0	0.444396018982	-367.0	81.0	-373	77	1
1.7	2015_Jul_30_0912	s	s	14	4	Capacity	76	ABS	2	0	24VC	0	1	0.712913036346	None	None	None	None	1
1.7	2015_Jul_30_0912	s	s	14	4	Capacity	77	RC	2	0	23VC	1	0	0.45839381218	113.0	141.0	116	137	1
1.7	2015_Jul_30_0912	s	s	14	4	Capacity	78	ABS	1	0	24MC	0	1	1.93653392792	None	None	None	None	1
1.7	2015_Jul_30_0912	s	s	14	4	Capacity	79	RC	1	0	23MC	0	1	2.34788203239	-133.0	-297.0	None	None	0
1.7	2015_Jul_30_0912	s	s	14	4	Capacity	80	ABS	2	0	24VC	0	1	0.702051877975	None	None	None	None	1
1.7	2015_Jul_30_0912	s	s	14	4	Capacity	81	RC	1	0	23MC	1	0	0.831388235092	-412.0	204.0	-415	210	1
1.7	2015_Jul_30_0912	s	s	14	4	Capacity	82	ABS	1	0	24MC	0	1	3.44810509682	None	None	None	None	1
1.7	2015_Jul_30_0912	s	s	14	4	Capacity	83	RC	2	0	23VC	1	0	0.470579147339	-53.0	-342.0	-59	-347	1
1.7	2015_Jul_30_0912	s	s	14	4	Capacity	84	ABS	2	0	24VC	0	1	0.481925964355	None	None	None	None	1
1.7	2015_Jul_30_0912	s	s	14	4	Capacity	85	ABS	2	0	24VC	0	1	0.50226521492	None	None	None	None	1
1.7	2015_Jul_30_0912	s	s	14	4	Capacity	86	RC	2	0	23VC	1	0	0.441368103027	264.0	-162.0	253	-161	1
1.7	2015_Jul_30_0912	s	s	14	4	Capacity	87	RC	1	0	23MC	1	0	0.811365842819	-240.0	281.0	-230	279	1
1.7	2015_Jul_30_0912	s	s	14	4	Capacity	88	ABS	1	0	24MC	0	1	2.29515814781	None	None	None	None	1
1.7	2015_Jul_30_0912	s	s	14	4	Capacity	89	RC	1	0	23MC	1	0	0.917463064194	-536.0	-380.0	-539	-385	1
1.7	2015_Jul_30_0912	s	s	14	4	Capacity	90	ABS	2	0	24VC	0	1	0.493787050247	None	None	None	None	1
1.7	2015_Jul_30_0912	s	s	14	4	Capacity	91	ABS	1	0	24MC	0	1	2.06580901146	None	None	None	None	1
1.7	2015_Jul_30_0912	s	s	14	4	Capacity	92	RC	2	0	23VC	1	0	0.596430063248	194.0	405.0	195	401	1
1.7	2015_Jul_30_0912	s	s	14	4	Capacity	1	ABS	0	2	24RD	0	1	1.14104008675	None	None	None	None	1
1.7	2015_Jul_30_0912	s	s	14	4	Capacity	2	RC	0	1	23RO	1	0	2.74852609634	447.0	-297.0	452	-298	1
1.7	2015_Jul_30_0912	s	s	14	4	Capacity	3	RC	0	2	23RD	1	0	0.552601099014	100.0	276.0	105	274	1
1.7	2015_Jul_30_0912	s	s	14	4	Capacity	4	ABS	0	1	24RO	0	1	5.05828690529	None	None	None	None	1
1.7	2015_Jul_30_0912	s	s	14	4	Capacity	5	RC	0	1	23RO	0	1	5.01408600807	-327.0	-230.0	None	None	0
1.7	2015_Jul_30_0912	s	s	14	4	Capacity	6	ABS	0	1	24RO	0	1	4.62070298195	None	None	None	None	1
1.7	2015_Jul_30_0912	s	s	14	4	Capacity	7	RC	0	2	23RD	1	0	0.608100891113	-226.0	208.0	-222	206	1
1.7	2015_Jul_30_0912	s	s	14	4	Capacity	8	ABS	0	2	24RD	0	1	1.66721391678	None	None	None	None	1
1.7	2015_Jul_30_0912	s	s	14	4	Capacity	9	ABS	0	1	24RO	0	1	3.99649190903	None	None	None	None	1
1.7	2015_Jul_30_0912	s	s	14	4	Capacity	10	ABS	0	2	24RD	0	1	0.702003955841	None	None	None	None	1
1.7	2015_Jul_30_0912	s	s	14	4	Capacity	11	RC	0	2	23RD	1	0	0.493780136108	-399.0	-314.0	-404	-316	1
1.7	2015_Jul_30_0912	s	s	14	4	Capacity	12	RC	0	1	23RO	1	0	1.09431099892	-197.0	-89.0	-194	-81	1
1.7	2015_Jul_30_0912	s	s	14	4	Capacity	13	ABS	0	1	24RO	0	1	4.71379709244	None	None	None	None	1
1.7	2015_Jul_30_0912	s	s	14	4	Capacity	14	RC	0	1	23RO	1	0	1.3968038559	-40.0	-341.0	-45	-340	1
1.7	2015_Jul_30_0912	s	s	14	4	Capacity	15	ABS	0	2	24RD	0	1	1.04702806473	None	None	None	None	1
1.7	2015_Jul_30_0912	s	s	14	4	Capacity	16	RC	0	2	23RD	1	0	0.787988901138	169.0	-65.0	170	-70	1
1.7	2015_Jul_30_0912	s	s	14	4	Capacity	17	ABS	0	2	24RD	0	1	1.55297994614	None	None	None	None	1
1.7	2015_Jul_30_0912	s	s	14	4	Capacity	18	RC	0	1	23RO	1	0	1.2301659584	-424.0	285.0	-428	286	1
1.7	2015_Jul_30_0912	s	s	14	4	Capacity	19	ABS	0	1	24RO	0	1	5.09615802765	None	None	None	None	1
1.7	2015_Jul_30_0912	s	s	14	4	Capacity	20	RC	0	2	23RD	1	0	0.55882191658	-370.0	256.0	-369	250	1
1.7	2015_Jul_30_0912	s	s	14	4	Capacity	21	RC	0	2	23RD	1	0	0.795871019363	366.0	290.0	370	297	1
1.7	2015_Jul_30_0912	s	s	14	4	Capacity	22	ABS	0	1	24RO	0	1	4.33100700378	None	None	None	None	1
1.7	2015_Jul_30_0912	s	s	14	4	Capacity	23	RC	0	1	23RO	1	0	0.846836090088	102.0	78.0	107	78	1
1.7	2015_Jul_30_0912	s	s	14	4	Capacity	24	ABS	0	2	24RD	0	1	1.71804499626	None	None	None	None	1
1.7	2015_Jul_30_0912	s	s	14	4	Capacity	25	RC	0	2	23RD	1	0	0.458371162415	43.0	-103.0	41	-113	1
1.7	2015_Jul_30_0912	s	s	14	4	Capacity	26	RC	0	1	23RO	1	0	1.37654304504	194.0	-300.0	189	-299	1
1.7	2015_Jul_30_0912	s	s	14	4	Capacity	27	ABS	0	2	24RD	0	1	0.952814817429	None	None	None	None	1
1.7	2015_Jul_30_0912	s	s	14	4	Capacity	28	ABS	0	1	24RO	0	1	3.98657512665	None	None	None	None	1
1.7	2015_Jul_30_0912	s	s	14	4	Capacity	29	RC	0	1	23RO	1	0	3.21758198738	314.0	-164.0	305	-157	1
1.7	2015_Jul_30_0912	s	s	14	4	Capacity	30	ABS	0	1	24RO	0	1	4.30213904381	None	None	None	None	1
1.7	2015_Jul_30_0912	s	s	14	4	Capacity	31	RC	0	2	23RD	1	0	0.429491043091	-309.0	118.0	-301	112	1
1.7	2015_Jul_30_0912	s	s	14	4	Capacity	32	ABS	0	2	24RD	0	1	0.615008115768	None	None	None	None	1
1.7	2015_Jul_30_0912	s	s	14	4	Capacity	33	RC	0	2	23RD	1	0	0.453942060471	-458.0	-270.0	-453	-268	1
1.7	2015_Jul_30_0912	s	s	14	4	Capacity	34	ABS	0	2	24RD	0	1	0.701357126236	None	None	None	None	1
1.7	2015_Jul_30_0912	s	s	14	4	Capacity	35	ABS	0	1	24RO	0	1	4.96083712578	None	None	None	None	1
1.7	2015_Jul_30_0912	s	s	14	4	Capacity	36	RC	0	1	23RO	0	1	3.61288499832	487.0	367.0	None	None	0
1.7	2015_Jul_30_0912	s	s	14	4	Capacity	37	ABS	0	2	24RD	0	1	0.656008005142	None	None	None	None	1
1.7	2015_Jul_30_0912	s	s	14	4	Capacity	38	RC	0	2	23RD	1	0	0.500508069992	236.0	91.0	242	98	1
1.7	2015_Jul_30_0912	s	s	14	4	Capacity	39	ABS	0	1	24RO	0	1	4.84900403023	None	None	None	None	1
1.7	2015_Jul_30_0912	s	s	14	4	Capacity	40	RC	0	1	23RO	1	0	0.909373044968	-13.0	-98.0	-21	-89	1
1.7	2015_Jul_30_0912	s	s	14	4	Capacity	41	RC	0	2	23RD	1	0	0.493766069412	281.0	-398.0	283	-397	1
1.7	2015_Jul_30_0912	s	s	14	4	Capacity	42	RC	0	1	23RO	1	0	1.34122085571	-224.0	-411.0	-220	-405	1
1.7	2015_Jul_30_0912	s	s	14	4	Capacity	43	ABS	0	1	24RO	0	1	3.42458510399	None	None	None	None	1
1.7	2015_Jul_30_0912	s	s	14	4	Capacity	44	ABS	0	2	24RD	0	1	0.702325820923	None	None	None	None	1
1.7	2015_Jul_30_0912	s	s	14	4	Capacity	45	ABS	0	2	24RD	0	1	0.858428001404	None	None	None	None	1
1.7	2015_Jul_30_0912	s	s	14	4	Capacity	46	RC	0	1	23RO	1	0	2.01732611656	-532.0	55.0	-528	53	1
1.7	2015_Jul_30_0912	s	s	14	4	Capacity	47	RC	0	2	23RD	1	0	0.536347150803	-472.0	172.0	-480	171	1
1.7	2015_Jul_30_0912	s	s	14	4	Capacity	48	ABS	0	1	24RO	0	1	5.02538084984	None	None	None	None	1
1.7	2015_Jul_30_0912	s	s	14	4	Capacity	49	RC	0	1	23RO	0	1	3.22193694115	369.0	112.0	None	None	0
1.7	2015_Jul_30_0912	s	s	14	4	Capacity	50	RC	0	2	23RD	1	0	0.611457824707	148.0	-284.0	148	-286	1
1.7	2015_Jul_30_0912	s	s	14	4	Capacity	51	ABS	0	1	24RO	0	1	4.27206897736	None	None	None	None	1
1.7	2015_Jul_30_0912	s	s	14	4	Capacity	52	ABS	0	2	24RD	0	1	0.968222856522	None	None	None	None	1
1.7	2015_Jul_30_0912	s	s	14	4	Capacity	53	ABS	0	2	24RD	0	1	0.705548048019	None	None	None	None	1
1.7	2015_Jul_30_0912	s	s	14	4	Capacity	54	ABS	0	1	24RO	0	1	3.37792801857	None	None	None	None	1
1.7	2015_Jul_30_0912	s	s	14	4	Capacity	55	RC	0	1	23RO	0	1	4.21083498001	-32.0	147.0	None	None	0
1.7	2015_Jul_30_0912	s	s	14	4	Capacity	56	RC	0	2	23RD	1	0	0.494136095047	127.0	-105.0	123	-101	1
1.7	2015_Jul_30_0912	s	s	14	4	Capacity	57	ABS	0	1	24RO	0	1	4.68403601646	None	None	None	None	1
1.7	2015_Jul_30_0912	s	s	14	4	Capacity	58	RC	0	1	23RO	1	0	3.56257796288	209.0	54.0	206	51	1
1.7	2015_Jul_30_0912	s	s	14	4	Capacity	59	ABS	0	2	24RD	0	1	1.56491684914	None	None	None	None	1
1.7	2015_Jul_30_0912	s	s	14	4	Capacity	60	RC	0	2	23RD	1	0	0.564351081848	440.0	-185.0	445	-187	1
1.7	2015_Jul_30_0912	s	s	14	4	Capacity	61	RC	0	1	23RO	1	0	4.85539388657	-162.0	109.0	-158	113	1
1.7	2015_Jul_30_0912	s	s	14	4	Capacity	62	ABS	0	1	24RO	0	1	4.24425387383	None	None	None	None	1
1.7	2015_Jul_30_0912	s	s	14	4	Capacity	63	RC	0	2	23RD	1	0	0.481950998306	-215.0	-278.0	-221	-280	1
1.7	2015_Jul_30_0912	s	s	14	4	Capacity	64	ABS	0	2	24RD	0	1	0.665810823441	None	None	None	None	1
1.7	2015_Jul_30_0912	s	s	14	4	Capacity	65	RC	0	1	23RO	0	1	3.90367889404	218.0	48.0	None	None	0
1.7	2015_Jul_30_0912	s	s	14	4	Capacity	66	ABS	0	2	24RD	0	1	0.764523983002	None	None	None	None	1
1.7	2015_Jul_30_0912	s	s	14	4	Capacity	67	ABS	0	1	24RO	0	1	4.49011898041	None	None	None	None	1
1.7	2015_Jul_30_0912	s	s	14	4	Capacity	68	RC	0	2	23RD	1	0	0.74766087532	-209.0	355.0	-217	349	1
1.7	2015_Jul_30_0912	s	s	14	4	Capacity	69	ABS	0	1	24RO	0	1	4.58981800079	None	None	None	None	1
1.7	2015_Jul_30_0912	s	s	14	4	Capacity	70	RC	0	2	23RD	1	0	0.477347135544	-344.0	-376.0	-341	-376	1
1.7	2015_Jul_30_0912	s	s	14	4	Capacity	71	ABS	0	2	24RD	0	1	1.51415014267	None	None	None	None	1
1.7	2015_Jul_30_0912	s	s	14	4	Capacity	72	RC	0	1	23RO	1	0	0.823394775391	223.0	-93.0	217	-98	1
1.7	2015_Jul_30_0912	s	s	14	4	Capacity	73	ABS	0	2	24RD	0	1	1.08236408234	None	None	None	None	1
1.7	2015_Jul_30_0912	s	s	14	4	Capacity	74	ABS	0	1	24RO	0	1	3.42170500755	None	None	None	None	1
1.7	2015_Jul_30_0912	s	s	14	4	Capacity	75	RC	0	1	23RO	1	0	3.20092105865	483.0	4.0	481	7	1
1.7	2015_Jul_30_0912	s	s	14	4	Capacity	76	RC	0	2	23RD	1	0	0.458468914032	-382.0	-213.0	-375	-214	1
1.7	2015_Jul_30_0912	s	s	14	4	Capacity	77	ABS	0	1	24RO	0	1	3.53059411049	None	None	None	None	1
1.7	2015_Jul_30_0912	s	s	14	4	Capacity	78	ABS	0	2	24RD	0	1	0.858574867249	None	None	None	None	1
1.7	2015_Jul_30_0912	s	s	14	4	Capacity	79	RC	0	2	23RD	1	0	0.429521083832	-245.0	-64.0	-250	-59	1
1.7	2015_Jul_30_0912	s	s	14	4	Capacity	80	RC	0	1	23RO	1	0	3.83167791367	527.0	-78.0	531	-80	1
1.7	2015_Jul_30_0912	s	s	14	4	Capacity	81	ABS	0	2	24RD	0	1	0.971782922745	None	None	None	None	1
1.7	2015_Jul_30_0912	s	s	14	4	Capacity	82	RC	0	1	23RO	0	1	4.7751019001	-135.0	112.0	None	None	0
1.7	2015_Jul_30_0912	s	s	14	4	Capacity	83	RC	0	2	23RD	1	0	0.570615053177	-272.0	251.0	-276	256	1
1.7	2015_Jul_30_0912	s	s	14	4	Capacity	84	ABS	0	1	24RO	0	1	4.85715794563	None	None	None	None	1
1.7	2015_Jul_30_0912	s	s	14	4	Capacity	85	ABS	0	1	24RO	0	1	7.43464994431	None	None	None	None	1
1.7	2015_Jul_30_0912	s	s	14	4	Capacity	86	RC	0	2	23RD	1	0	0.529030799866	467.0	-120.0	471	-125	1
1.7	2015_Jul_30_0912	s	s	14	4	Capacity	87	ABS	0	2	24RD	0	1	0.846788883209	None	None	None	None	1
1.7	2015_Jul_30_0912	s	s	14	4	Capacity	88	RC	0	1	23RO	1	0	0.912328958511	-185.0	-271.0	-181	-283	1
1.7	2015_Jul_30_0912	s	s	14	4	Capacity	89	RC	0	1	23RO	1	0	3.54229903221	-53.0	361.0	-54	362	1
1.7	2015_Jul_30_0912	s	s	14	4	Capacity	90	RC	0	2	23RD	1	0	0.533946037292	-8.0	-384.0	0	-382	1
1.7	2015_Jul_30_0912	s	s	14	4	Capacity	91	ABS	0	1	24RO	0	1	4.49322414398	None	None	None	None	1
1.7	2015_Jul_30_0912	s	s	14	4	Capacity	92	ABS	0	2	24RD	0	1	1.07718396187	None	None	None	None	1
1.7	2015_Jul_30_0912	s	s	14	4	SIC	1	ABS	1	2	24MD	0	1	1.33877182007	None	None	None	None	1
1.7	2015_Jul_30_0912	s	s	14	4	SIC	2	RC	1	0	23MC	1	0	0.735952854156	19.0	-99.0	22	-107	1
1.7	2015_Jul_30_0912	s	s	14	4	SIC	3	ABS	0	1	24RO	0	1	3.63342618942	None	None	None	None	1
1.7	2015_Jul_30_0912	s	s	14	4	SIC	4	RC	1	1	23MO	1	0	0.617563009262	-156.0	-295.0	-158	-310	1
1.7	2015_Jul_30_0912	s	s	14	4	SIC	5	ABS	2	1	24VO	0	1	0.526498794556	None	None	None	None	1
1.7	2015_Jul_30_0912	s	s	14	4	SIC	6	ABS	2	2	24VD	0	1	0.476711988449	None	None	None	None	1
1.7	2015_Jul_30_0912	s	s	14	4	SIC	7	ABS	1	1	24MO	0	1	2.01911592484	None	None	None	None	1
1.7	2015_Jul_30_0912	s	s	14	4	SIC	8	RC	0	2	23RD	1	0	0.489735841751	-150.0	214.0	-147	202	1
1.7	2015_Jul_30_0912	s	s	14	4	SIC	9	ABS	1	0	24MC	0	1	1.05404996872	None	None	None	None	1
1.7	2015_Jul_30_0912	s	s	14	4	SIC	10	ABS	2	0	24VC	0	1	0.538301944733	None	None	None	None	1
1.7	2015_Jul_30_0912	s	s	14	4	SIC	11	RC	0	1	23RO	0	1	3.3593480587	-210.0	130.0	None	None	0
1.7	2015_Jul_30_0912	s	s	14	4	SIC	12	RC	1	2	23MD	1	0	0.620495080948	10.0	117.0	15	116	1
1.7	2015_Jul_30_0912	s	s	14	4	SIC	13	RC	2	2	23VD	1	0	0.453634977341	209.0	47.0	214	47	1
1.7	2015_Jul_30_0912	s	s	14	4	SIC	14	ABS	0	2	24RD	0	1	1.49402999878	None	None	None	None	1
1.7	2015_Jul_30_0912	s	s	14	4	SIC	15	RC	2	0	23VC	1	0	0.491363048553	152.0	312.0	150	308	1
1.7	2015_Jul_30_0912	s	s	14	4	SIC	16	RC	2	1	23VO	1	0	0.4311439991	290.0	411.0	284	414	1
1.7	2015_Jul_30_0912	s	s	14	4	SIC	17	RC	0	2	23RD	1	0	1.21176505089	-454.0	69.0	-454	70	1
1.7	2015_Jul_30_0912	s	s	14	4	SIC	18	ABS	0	1	24RO	0	1	3.40110707283	None	None	None	None	1
1.7	2015_Jul_30_0912	s	s	14	4	SIC	19	ABS	1	2	24MD	1	0	1.77103614807	None	None	186	91	0
1.7	2015_Jul_30_0912	s	s	14	4	SIC	20	RC	1	1	23MO	1	0	0.585363149643	-387.0	-189.0	-387	-191	1
1.7	2015_Jul_30_0912	s	s	14	4	SIC	21	RC	0	1	23RO	1	0	4.88055491447	191.0	5.0	198	0	1
1.7	2015_Jul_30_0912	s	s	14	4	SIC	22	RC	1	2	23MD	1	0	0.587955951691	17.0	-263.0	20	-275	1
1.7	2015_Jul_30_0912	s	s	14	4	SIC	23	RC	2	1	23VO	1	0	0.599516868591	-138.0	330.0	-134	328	1
1.7	2015_Jul_30_0912	s	s	14	4	SIC	24	ABS	2	0	24VC	0	1	0.72438287735	None	None	None	None	1
1.7	2015_Jul_30_0912	s	s	14	4	SIC	25	RC	1	0	23MC	1	0	0.772613048553	-264.0	-222.0	-267	-225	1
1.7	2015_Jul_30_0912	s	s	14	4	SIC	26	RC	2	2	23VD	1	0	0.411281824112	143.0	150.0	151	144	1
1.7	2015_Jul_30_0912	s	s	14	4	SIC	27	RC	2	0	23VC	1	0	0.47717499733	-279.0	374.0	-278	375	1
1.7	2015_Jul_30_0912	s	s	14	4	SIC	28	ABS	1	0	24MC	0	1	3.1156411171	None	None	None	None	1
1.7	2015_Jul_30_0912	s	s	14	4	SIC	29	ABS	2	2	24VD	0	1	0.83531999588	None	None	None	None	1
1.7	2015_Jul_30_0912	s	s	14	4	SIC	30	ABS	0	2	24RD	0	1	1.15293693542	None	None	None	None	1
1.7	2015_Jul_30_0912	s	s	14	4	SIC	31	ABS	1	1	24MO	0	1	2.95125007629	None	None	None	None	1
1.7	2015_Jul_30_0912	s	s	14	4	SIC	32	ABS	2	1	24VO	0	1	0.576187849045	None	None	None	None	1
1.7	2015_Jul_30_0912	s	s	14	4	SIC	33	RC	0	2	23RD	1	0	0.879712104797	-324.0	386.0	-320	381	1
1.7	2015_Jul_30_0912	s	s	14	4	SIC	34	RC	1	1	23MO	1	0	1.00640797615	390.0	-208.0	393	-212	1
1.7	2015_Jul_30_0912	s	s	14	4	SIC	35	ABS	0	1	24RO	0	1	4.09548807144	None	None	None	None	1
1.7	2015_Jul_30_0912	s	s	14	4	SIC	36	RC	0	1	23RO	1	0	1.92980599403	287.0	-180.0	296	-171	1
1.7	2015_Jul_30_0912	s	s	14	4	SIC	37	RC	2	0	23VC	1	0	0.512155056	533.0	-269.0	540	-268	1
1.7	2015_Jul_30_0912	s	s	14	4	SIC	38	RC	1	2	23MD	1	0	0.446632862091	-310.0	278.0	-309	272	1
1.7	2015_Jul_30_0912	s	s	14	4	SIC	39	ABS	1	2	24MD	0	1	0.608131885529	None	None	None	None	1
1.7	2015_Jul_30_0912	s	s	14	4	SIC	40	RC	2	1	23VO	1	0	0.411302804947	179.0	169.0	178	175	1
1.7	2015_Jul_30_0912	s	s	14	4	SIC	41	ABS	2	1	24VO	0	1	0.629766941071	None	None	None	None	1
1.7	2015_Jul_30_0912	s	s	14	4	SIC	42	RC	2	2	23VD	1	0	0.500053167343	-519.0	374.0	-519	369	1
1.7	2015_Jul_30_0912	s	s	14	4	SIC	43	ABS	1	0	24MC	0	1	3.37295913696	None	None	None	None	1
1.7	2015_Jul_30_0912	s	s	14	4	SIC	44	ABS	2	2	24VD	0	1	0.502196073532	None	None	None	None	1
1.7	2015_Jul_30_0912	s	s	14	4	SIC	45	ABS	1	1	24MO	0	1	2.18059420586	None	None	None	None	1
1.7	2015_Jul_30_0912	s	s	14	4	SIC	46	ABS	2	0	24VC	0	1	0.606641054153	None	None	None	None	1
1.7	2015_Jul_30_0912	s	s	14	4	SIC	47	ABS	0	2	24RD	0	1	1.75031018257	None	None	None	None	1
1.7	2015_Jul_30_0912	s	s	14	4	SIC	48	RC	1	0	23MC	1	0	0.882174015045	-190.0	392.0	-191	395	1
1.7	2015_Jul_30_0912	s	s	14	4	SIC	49	RC	2	1	23VO	0	1	0.593169927597	484.0	336.0	None	None	0
1.7	2015_Jul_30_0912	s	s	14	4	SIC	50	RC	2	0	23VC	1	0	0.405114173889	49.0	-97.0	48	-101	1
1.7	2015_Jul_30_0912	s	s	14	4	SIC	51	ABS	1	1	24MO	0	1	2.72750592232	None	None	None	None	1
1.7	2015_Jul_30_0912	s	s	14	4	SIC	52	ABS	0	1	24RO	0	1	3.04372310638	None	None	None	None	1
1.7	2015_Jul_30_0912	s	s	14	4	SIC	53	RC	0	2	23RD	1	0	0.749922990799	233.0	-373.0	233	-371	1
1.7	2015_Jul_30_0912	s	s	14	4	SIC	54	RC	1	2	23MD	1	0	0.529052019119	511.0	337.0	512	333	1
1.7	2015_Jul_30_0912	s	s	14	4	SIC	55	ABS	1	0	24MC	0	1	2.36530995369	None	None	None	None	1
1.7	2015_Jul_30_0912	s	s	14	4	SIC	56	RC	0	1	23RO	0	1	2.69475007057	-418.0	-160.0	None	None	0
1.7	2015_Jul_30_0912	s	s	14	4	SIC	57	ABS	1	2	24MD	0	1	0.666961193085	None	None	None	None	1
1.7	2015_Jul_30_0912	s	s	14	4	SIC	58	RC	2	2	23VD	1	0	0.48198890686	-533.0	-244.0	-530	-241	1
1.7	2015_Jul_30_0912	s	s	14	4	SIC	59	ABS	2	0	24VC	0	1	0.91503405571	None	None	None	None	1
1.7	2015_Jul_30_0912	s	s	14	4	SIC	60	ABS	2	2	24VD	0	1	0.489744901657	None	None	None	None	1
1.7	2015_Jul_30_0912	s	s	14	4	SIC	61	RC	1	0	23MC	1	0	2.20713090897	85.0	-363.0	87	-360	1
1.7	2015_Jul_30_0912	s	s	14	4	SIC	62	ABS	2	1	24VO	0	1	0.783349990845	None	None	None	None	1
1.7	2015_Jul_30_0912	s	s	14	4	SIC	63	RC	1	1	23MO	1	0	0.782423019409	-406.0	37.0	-397	36	1
1.7	2015_Jul_30_0912	s	s	14	4	SIC	64	ABS	0	2	24RD	0	1	1.61898708344	None	None	None	None	1
1.7	2015_Jul_30_0912	s	s	14	4	SIC	65	ABS	2	1	24VO	0	1	0.596125125885	None	None	None	None	1
1.7	2015_Jul_30_0912	s	s	14	4	SIC	66	ABS	1	2	24MD	0	1	1.46561002731	None	None	None	None	1
1.7	2015_Jul_30_0912	s	s	14	4	SIC	67	RC	1	2	23MD	1	0	0.458322048187	155.0	304.0	149	304	1
1.7	2015_Jul_30_0912	s	s	14	4	SIC	68	ABS	1	0	24MC	0	1	2.67127895355	None	None	None	None	1
1.7	2015_Jul_30_0912	s	s	14	4	SIC	69	ABS	2	0	24VC	0	1	0.588311195374	None	None	None	None	1
1.7	2015_Jul_30_0912	s	s	14	4	SIC	70	ABS	1	1	24MO	0	1	2.02760004997	None	None	None	None	1
1.7	2015_Jul_30_0912	s	s	14	4	SIC	71	RC	2	1	23VO	1	0	0.458503961563	-16.0	216.0	-25	218	1
1.7	2015_Jul_30_0912	s	s	14	4	SIC	72	ABS	2	2	24VD	0	1	0.434905052185	None	None	None	None	1
1.7	2015_Jul_30_0912	s	s	14	4	SIC	73	ABS	0	2	24RD	0	1	1.12349915504	None	None	None	None	1
1.7	2015_Jul_30_0912	s	s	14	4	SIC	74	RC	1	1	23MO	1	0	0.947059869766	100.0	-246.0	97	-243	1
1.7	2015_Jul_30_0912	s	s	14	4	SIC	75	RC	1	0	23MC	1	0	0.835089921951	-53.0	-340.0	-46	-339	1
1.7	2015_Jul_30_0912	s	s	14	4	SIC	76	RC	0	2	23RD	1	0	0.434872865677	248.0	82.0	239	81	1
1.7	2015_Jul_30_0912	s	s	14	4	SIC	77	RC	0	1	23RO	1	0	4.83171606064	-516.0	343.0	-516	339	1
1.7	2015_Jul_30_0912	s	s	14	4	SIC	78	ABS	0	1	24RO	0	1	4.28387498856	None	None	None	None	1
1.7	2015_Jul_30_0912	s	s	14	4	SIC	79	RC	2	2	23VD	1	0	0.482038974762	-514.0	-69.0	-510	-73	1
1.7	2015_Jul_30_0912	s	s	14	4	SIC	80	RC	2	0	23VC	1	0	0.432385921478	-197.0	-373.0	-198	-382	1
1.7	2015_Jul_30_0912	s	s	14	4	SIC	81	RC	2	0	23VC	1	0	0.406655073166	308.0	48.0	298	47	1
1.7	2015_Jul_30_0912	s	s	14	4	SIC	82	ABS	2	0	24VC	0	1	0.631958007812	None	None	None	None	1
1.7	2015_Jul_30_0912	s	s	14	4	SIC	83	ABS	2	1	24VO	0	1	0.538329124451	None	None	None	None	1
1.7	2015_Jul_30_0912	s	s	14	4	SIC	84	ABS	0	1	24RO	0	1	3.57122015953	None	None	None	None	1
1.7	2015_Jul_30_0912	s	s	14	4	SIC	85	RC	2	1	23VO	1	0	0.453456878662	149.0	-222.0	152	-222	1
1.7	2015_Jul_30_0912	s	s	14	4	SIC	86	ABS	1	2	24MD	0	1	0.823263883591	None	None	None	None	1
1.7	2015_Jul_30_0912	s	s	14	4	SIC	87	RC	0	2	23RD	1	0	0.446614027023	167.0	136.0	169	133	1
1.7	2015_Jul_30_0912	s	s	14	4	SIC	88	RC	1	2	23MD	1	0	0.419580936432	-179.0	-393.0	-181	-398	1
1.7	2015_Jul_30_0912	s	s	14	4	SIC	89	RC	1	1	23MO	1	0	0.729006052017	-521.0	-108.0	-520	-110	1
1.7	2015_Jul_30_0912	s	s	14	4	SIC	90	ABS	2	2	24VD	0	1	0.982985019684	None	None	None	None	1
1.7	2015_Jul_30_0912	s	s	14	4	SIC	91	ABS	1	0	24MC	0	1	3.58125400543	None	None	None	None	1
1.7	2015_Jul_30_0912	s	s	14	4	SIC	92	RC	2	2	23VD	1	0	0.418861150742	389.0	45.0	390	44	1
1.7	2015_Jul_30_0912	s	s	14	4	SIC	93	ABS	1	1	24MO	0	1	2.57714390755	None	None	None	None	1
1.7	2015_Jul_30_0912	s	s	14	4	SIC	94	RC	0	1	23RO	1	0	0.794363021851	-244.0	22.0	-233	22	1
1.7	2015_Jul_30_0912	s	s	14	4	SIC	95	ABS	0	2	24RD	0	1	0.787868976593	None	None	None	None	1
1.7	2015_Jul_30_0912	s	s	14	4	SIC	96	RC	1	0	23MC	1	0	1.29180502892	349.0	-189.0	346	-186	1
1.7	2015_Jul_30_0912	s	s	14	4	SIC	97	ABS	2	0	24VC	0	1	0.729179143906	None	None	None	None	1
1.7	2015_Jul_30_0912	s	s	14	4	SIC	98	RC	1	0	23MC	1	0	0.487847089767	-310.0	-249.0	-304	-253	1
1.7	2015_Jul_30_0912	s	s	14	4	SIC	99	ABS	0	2	24RD	0	1	1.06742310524	None	None	None	None	1
1.7	2015_Jul_30_0912	s	s	14	4	SIC	100	ABS	2	1	24VO	0	1	0.68198299408	None	None	None	None	1
1.7	2015_Jul_30_0912	s	s	14	4	SIC	101	RC	0	2	23RD	1	0	0.523240089417	442.0	-264.0	439	-272	1
1.7	2015_Jul_30_0912	s	s	14	4	SIC	102	RC	2	0	23VC	1	0	0.44659614563	-376.0	65.0	-374	61	1
1.7	2015_Jul_30_0912	s	s	14	4	SIC	103	RC	1	2	23MD	1	0	0.511986970901	268.0	11.0	273	12	1
1.7	2015_Jul_30_0912	s	s	14	4	SIC	104	RC	0	1	23RO	1	0	1.87870597839	-160.0	84.0	-164	83	1
1.7	2015_Jul_30_0912	s	s	14	4	SIC	105	ABS	1	0	24MC	0	1	2.430382967	None	None	None	None	1
1.7	2015_Jul_30_0912	s	s	14	4	SIC	106	RC	2	1	23VO	1	0	0.493978977203	515.0	92.0	514	96	1
1.7	2015_Jul_30_0912	s	s	14	4	SIC	107	RC	2	2	23VD	1	0	0.43482708931	-470.0	300.0	-468	293	1
1.7	2015_Jul_30_0912	s	s	14	4	SIC	108	ABS	0	1	24RO	0	1	4.51933908463	None	None	None	None	1
1.7	2015_Jul_30_0912	s	s	14	4	SIC	109	ABS	1	2	24MD	0	1	0.854120016098	None	None	None	None	1
1.7	2015_Jul_30_0912	s	s	14	4	SIC	110	RC	1	1	23MO	1	0	0.843866109848	-364.0	-402.0	-360	-408	1
1.7	2015_Jul_30_0912	s	s	14	4	SIC	111	ABS	2	2	24VD	0	1	0.576151132584	None	None	None	None	1
1.7	2015_Jul_30_0912	s	s	14	4	SIC	112	ABS	1	1	24MO	0	1	3.90149903297	None	None	None	None	1
1.7	2015_Jul_30_0912	s	s	14	4	SIC	113	ABS	0	2	24RD	0	1	0.66529583931	None	None	None	None	1
1.7	2015_Jul_30_0912	s	s	14	4	SIC	114	ABS	1	1	24MO	0	1	3.2366130352	None	None	None	None	1
1.7	2015_Jul_30_0912	s	s	14	4	SIC	115	ABS	1	0	24MC	0	1	2.51827096939	None	None	None	None	1
1.7	2015_Jul_30_0912	s	s	14	4	SIC	116	RC	1	0	23MC	1	0	0.946948766708	301.0	-286.0	305	-295	1
1.7	2015_Jul_30_0912	s	s	14	4	SIC	117	RC	2	2	23VD	1	0	0.611423015594	-342.0	243.0	-337	242	1
1.7	2015_Jul_30_0912	s	s	14	4	SIC	118	RC	1	1	23MO	1	0	1.0679500103	73.0	-385.0	81	-389	1
1.7	2015_Jul_30_0912	s	s	14	4	SIC	119	ABS	0	1	24RO	0	1	4.34269404411	None	None	None	None	1
1.7	2015_Jul_30_0912	s	s	14	4	SIC	120	RC	0	2	23RD	1	0	0.434849977493	-303.0	26.0	-308	18	1
1.7	2015_Jul_30_0912	s	s	14	4	SIC	121	ABS	2	2	24VD	0	1	0.494038105011	None	None	None	None	1
1.7	2015_Jul_30_0912	s	s	14	4	SIC	122	ABS	1	2	24MD	0	1	0.899296998978	None	None	None	None	1
1.7	2015_Jul_30_0912	s	s	14	4	SIC	123	RC	2	1	23VO	1	0	0.470200061798	-527.0	344.0	-527	346	1
1.7	2015_Jul_30_0912	s	s	14	4	SIC	124	RC	0	1	23RO	1	0	2.39546704292	-216.0	354.0	-223	355	1
1.7	2015_Jul_30_0912	s	s	14	4	SIC	125	RC	2	0	23VC	1	0	0.464951038361	368.0	-252.0	367	-251	1
1.7	2015_Jul_30_0912	s	s	14	4	SIC	126	ABS	2	1	24VO	0	1	0.976314783096	None	None	None	None	1
1.7	2015_Jul_30_0912	s	s	14	4	SIC	127	RC	1	2	23MD	1	0	0.584567785263	74.0	371.0	71	373	1
1.7	2015_Jul_30_0912	s	s	14	4	SIC	128	ABS	2	0	24VC	0	1	0.656352996826	None	None	None	None	1
1.7	2015_Jul_30_0912	s	s	14	4	SIC	129	RC	1	0	23MC	1	0	0.635388851166	361.0	-110.0	373	-106	1
1.7	2015_Jul_30_0912	s	s	14	4	SIC	130	RC	1	1	23MO	1	0	1.86548686028	-99.0	189.0	-101	185	1
1.7	2015_Jul_30_0912	s	s	14	4	SIC	131	RC	2	2	23VD	1	0	0.435064077377	-167.0	158.0	-163	157	1
1.7	2015_Jul_30_0912	s	s	14	4	SIC	132	ABS	2	1	24VO	0	1	0.876580953598	None	None	None	None	1
1.7	2015_Jul_30_0912	s	s	14	4	SIC	133	RC	1	2	23MD	1	0	0.517313957214	215.0	344.0	221	345	1
1.7	2015_Jul_30_0912	s	s	14	4	SIC	134	ABS	0	1	24RO	0	1	4.44863891602	None	None	None	None	1
1.7	2015_Jul_30_0912	s	s	14	4	SIC	135	RC	2	0	23VC	1	0	0.478096961975	-253.0	-348.0	-255	-347	1
1.7	2015_Jul_30_0912	s	s	14	4	SIC	136	RC	2	1	23VO	1	0	0.417919874191	-113.0	-139.0	-111	-133	1
1.7	2015_Jul_30_0912	s	s	14	4	SIC	137	ABS	1	1	24MO	0	1	4.307502985	None	None	None	None	1
1.7	2015_Jul_30_0912	s	s	14	4	SIC	138	RC	0	1	23RO	1	0	1.72959089279	-512.0	-402.0	-509	-398	1
1.7	2015_Jul_30_0912	s	s	14	4	SIC	139	RC	0	2	23RD	1	0	0.608085155487	278.0	284.0	285	287	1
1.7	2015_Jul_30_0912	s	s	14	4	SIC	140	ABS	2	2	24VD	0	1	0.502439975739	None	None	None	None	1
1.7	2015_Jul_30_0912	s	s	14	4	SIC	141	ABS	1	2	24MD	0	1	0.858484983444	None	None	None	None	1
1.7	2015_Jul_30_0912	s	s	14	4	SIC	142	ABS	1	0	24MC	0	1	3.1607530117	None	None	None	None	1
1.7	2015_Jul_30_0912	s	s	14	4	SIC	143	ABS	0	2	24RD	0	1	0.911774158478	None	None	None	None	1
1.7	2015_Jul_30_0912	s	s	14	4	SIC	144	ABS	2	0	24VC	0	1	0.594887018204	None	None	None	None	1
1.7	2015_Jul_30_0912	s	s	14	4	SIC	145	ABS	1	0	24MC	0	1	2.13661289215	None	None	None	None	1
1.7	2015_Jul_30_0912	s	s	14	4	SIC	146	ABS	0	1	24RO	0	1	4.2603559494	None	None	None	None	1
1.7	2015_Jul_30_0912	s	s	14	4	SIC	147	RC	1	1	23MO	1	0	0.811477184296	40.0	36.0	35	26	1
1.7	2015_Jul_30_0912	s	s	14	4	SIC	148	RC	2	1	23VO	1	0	0.607164859772	379.0	-6.0	380	-5	1
1.7	2015_Jul_30_0912	s	s	14	4	SIC	149	RC	0	2	23RD	1	0	0.879193067551	-286.0	99.0	-289	97	1
1.7	2015_Jul_30_0912	s	s	14	4	SIC	150	RC	1	0	23MC	1	0	0.85352396965	-300.0	134.0	-306	140	1
1.7	2015_Jul_30_0912	s	s	14	4	SIC	151	RC	2	2	23VD	1	0	0.477573156357	-532.0	-185.0	-525	-180	1
1.7	2015_Jul_30_0912	s	s	14	4	SIC	152	RC	2	0	23VC	1	0	0.446508169174	-105.0	118.0	-103	121	1
1.7	2015_Jul_30_0912	s	s	14	4	SIC	153	ABS	1	2	24MD	0	1	1.33808493614	None	None	None	None	1
1.7	2015_Jul_30_0912	s	s	14	4	SIC	154	ABS	2	0	24VC	0	1	0.599725008011	None	None	None	None	1
1.7	2015_Jul_30_0912	s	s	14	4	SIC	155	ABS	2	2	24VD	0	1	0.61147403717	None	None	None	None	1
1.7	2015_Jul_30_0912	s	s	14	4	SIC	156	ABS	2	1	24VO	0	1	1.02956986427	None	None	None	None	1
1.7	2015_Jul_30_0912	s	s	14	4	SIC	157	RC	0	1	23RO	1	0	3.86017489433	370.0	196.0	369	199	1
1.7	2015_Jul_30_0912	s	s	14	4	SIC	158	ABS	0	2	24RD	0	1	0.84229183197	None	None	None	None	1
1.7	2015_Jul_30_0912	s	s	14	4	SIC	159	RC	1	2	23MD	1	0	0.481973171234	-50.0	330.0	-48	319	1
1.7	2015_Jul_30_0912	s	s	14	4	SIC	160	ABS	1	1	24MO	0	1	3.03623199463	None	None	None	None	1
1.7	2015_Jul_30_0912	s	s	14	4	SIC	161	RC	1	0	23MC	1	0	0.844527006149	-481.0	-192.0	-486	-193	1
1.7	2015_Jul_30_0912	s	s	14	4	SIC	162	RC	1	2	23MD	1	0	0.655800104141	-153.0	323.0	-157	321	1
1.7	2015_Jul_30_0912	s	s	14	4	SIC	163	ABS	0	2	24RD	0	1	0.77360200882	None	None	None	None	1
1.7	2015_Jul_30_0912	s	s	14	4	SIC	164	ABS	2	2	24VD	0	1	0.535735845566	None	None	None	None	1
1.7	2015_Jul_30_0912	s	s	14	4	SIC	165	ABS	1	2	24MD	0	1	0.876399040222	None	None	None	None	1
1.7	2015_Jul_30_0912	s	s	14	4	SIC	166	ABS	2	0	24VC	0	1	0.482342004776	None	None	None	None	1
1.7	2015_Jul_30_0912	s	s	14	4	SIC	167	ABS	0	1	24RO	0	1	4.12558603287	None	None	None	None	1
1.7	2015_Jul_30_0912	s	s	14	4	SIC	168	RC	0	1	23RO	0	1	3.50194692612	-316.0	44.0	None	None	0
1.7	2015_Jul_30_0912	s	s	14	4	SIC	169	RC	1	1	23MO	1	0	1.16538619995	-297.0	-229.0	-299	-235	1
1.7	2015_Jul_30_0912	s	s	14	4	SIC	170	ABS	1	0	24MC	0	1	3.92592978477	None	None	None	None	1
1.7	2015_Jul_30_0912	s	s	14	4	SIC	171	RC	2	2	23VD	1	0	0.887953996658	7.0	258.0	4	254	1
1.7	2015_Jul_30_0912	s	s	14	4	SIC	172	RC	0	2	23RD	1	0	0.62308382988	-382.0	290.0	-369	298	1
1.7	2015_Jul_30_0912	s	s	14	4	SIC	173	RC	2	0	23VC	1	0	0.618062973022	-452.0	-238.0	-454	-238	1
1.7	2015_Jul_30_0912	s	s	14	4	SIC	174	ABS	1	1	24MO	0	1	3.18382406235	None	None	None	None	1
1.7	2015_Jul_30_0912	s	s	14	4	SIC	175	RC	2	1	23VO	1	0	0.467559099197	-57.0	125.0	-57	125	1
1.7	2015_Jul_30_0912	s	s	14	4	SIC	176	ABS	2	1	24VO	0	1	0.877884149551	None	None	None	None	1
1.7	2015_Jul_30_0912	s	s	14	4	SIC	177	RC	2	1	23VO	1	0	0.74458193779	475.0	-232.0	482	-233	1
1.7	2015_Jul_30_0912	s	s	14	4	SIC	178	ABS	2	1	24VO	0	1	0.670366048813	None	None	None	None	1
1.7	2015_Jul_30_0912	s	s	14	4	SIC	179	RC	1	1	23MO	1	0	0.852949857712	-376.0	-42.0	-369	-41	1
1.7	2015_Jul_30_0912	s	s	14	4	SIC	180	ABS	1	1	24MO	0	1	3.55119991302	None	None	None	None	1
1.7	2015_Jul_30_0912	s	s	14	4	SIC	181	RC	0	1	23RO	1	0	0.968681097031	-209.0	-40.0	-202	-46	1
1.7	2015_Jul_30_0912	s	s	14	4	SIC	182	ABS	1	2	24MD	0	1	3.10685896873	None	None	None	None	1
1.7	2015_Jul_30_0912	s	s	14	4	SIC	183	RC	2	0	23VC	1	0	0.658524990082	-348.0	-161.0	-347	-159	1
1.7	2015_Jul_30_0912	s	s	14	4	SIC	184	ABS	0	1	24RO	0	1	1.83908390999	None	None	None	None	1
1.7	2015_Jul_30_0912	s	s	14	4	SIC	185	ABS	1	0	24MC	0	1	2.53889703751	None	None	None	None	1
1.7	2015_Jul_30_0912	s	s	14	4	SIC	186	RC	0	2	23RD	1	0	0.502087831497	-288.0	191.0	-288	193	1
1.7	2015_Jul_30_0912	s	s	14	4	SIC	187	RC	1	2	23MD	1	0	0.552585124969	189.0	-77.0	185	-73	1
1.7	2015_Jul_30_0912	s	s	14	4	SIC	188	RC	2	2	23VD	1	0	0.465005874634	-110.0	-354.0	-110	-354	1
1.7	2015_Jul_30_0912	s	s	14	4	SIC	189	ABS	2	0	24VC	0	1	0.608330011368	None	None	None	None	1
1.7	2015_Jul_30_0912	s	s	14	4	SIC	190	RC	1	0	23MC	1	0	1.99549412727	28.0	402.0	26	402	1
1.7	2015_Jul_30_0912	s	s	14	4	SIC	191	ABS	2	2	24VD	0	1	0.523337125778	None	None	None	None	1
1.7	2015_Jul_30_0912	s	s	14	4	SIC	192	ABS	0	2	24RD	0	1	0.776135921478	None	None	None	None	1
1.7	2015_Jul_30_0912	s	s	14	4	SIC	193	ABS	0	2	24RD	0	1	1.5149679184	None	None	None	None	1
1.7	2015_Jul_30_0912	s	s	14	4	SIC	194	RC	1	1	23MO	1	0	1.21535301208	-433.0	139.0	-436	141	1
1.7	2015_Jul_30_0912	s	s	14	4	SIC	195	ABS	1	2	24MD	0	1	0.723872900009	None	None	None	None	1
1.7	2015_Jul_30_0912	s	s	14	4	SIC	196	ABS	2	0	24VC	0	1	0.52916097641	None	None	None	None	1
1.7	2015_Jul_30_0912	s	s	14	4	SIC	197	RC	0	2	23RD	1	0	0.658385038376	-296.0	162.0	-288	164	1
1.7	2015_Jul_30_0912	s	s	14	4	SIC	198	ABS	2	1	24VO	0	1	0.599901914597	None	None	None	None	1
1.7	2015_Jul_30_0912	s	s	14	4	SIC	199	RC	2	2	23VD	1	0	0.477092981339	514.0	-398.0	518	-398	1
1.7	2015_Jul_30_0912	s	s	14	4	SIC	200	ABS	2	2	24VD	0	1	0.453659057617	None	None	None	None	1
1.7	2015_Jul_30_0912	s	s	14	4	SIC	201	RC	2	0	23VC	1	0	0.393871068954	-130.0	34.0	-138	34	1
1.7	2015_Jul_30_0912	s	s	14	4	SIC	202	RC	1	2	23MD	1	0	0.829732894897	-212.0	-366.0	-212	-363	1
1.7	2015_Jul_30_0912	s	s	14	4	SIC	203	RC	0	1	23RO	1	0	4.82895112038	504.0	-230.0	497	-234	1
1.7	2015_Jul_30_0912	s	s	14	4	SIC	204	ABS	0	1	24RO	0	1	3.67763590813	None	None	None	None	1
1.7	2015_Jul_30_0912	s	s	14	4	SIC	205	ABS	1	0	24MC	0	1	3.00784516335	None	None	None	None	1
1.7	2015_Jul_30_0912	s	s	14	4	SIC	206	RC	2	1	23VO	1	0	0.452092170715	174.0	156.0	170	161	1
1.7	2015_Jul_30_0912	s	s	14	4	SIC	207	RC	1	0	23MC	1	0	1.88025999069	-229.0	386.0	-227	384	1
1.7	2015_Jul_30_0912	s	s	14	4	SIC	208	ABS	1	1	24MO	0	1	1.82925581932	None	None	None	None	1
1.7	2015_Jul_30_0912	s	s	14	4	SIC	209	ABS	2	0	24VC	0	1	0.596898078918	None	None	None	None	1
1.7	2015_Jul_30_0912	s	s	14	4	SIC	210	ABS	0	1	24RO	0	1	3.59866976738	None	None	None	None	1
1.7	2015_Jul_30_0912	s	s	14	4	SIC	211	RC	2	2	23VD	1	0	0.499877929688	-225.0	305.0	-219	302	1
1.7	2015_Jul_30_0912	s	s	14	4	SIC	212	ABS	2	1	24VO	0	1	0.550099849701	None	None	None	None	1
1.7	2015_Jul_30_0912	s	s	14	4	SIC	213	ABS	1	1	24MO	0	1	4.63128781319	None	None	None	None	1
1.7	2015_Jul_30_0912	s	s	14	4	SIC	214	RC	1	0	23MC	1	0	1.13872790337	-474.0	357.0	-467	359	1
1.7	2015_Jul_30_0912	s	s	14	4	SIC	215	RC	1	1	23MO	1	0	0.959681987762	-365.0	-253.0	-360	-252	1
1.7	2015_Jul_30_0912	s	s	14	4	SIC	216	RC	0	1	23RO	1	0	0.799818992615	-8.0	71.0	-5	75	1
1.7	2015_Jul_30_0912	s	s	14	4	SIC	217	RC	0	2	23RD	1	0	0.434787988663	-37.0	115.0	-35	99	1
1.7	2015_Jul_30_0912	s	s	14	4	SIC	218	RC	1	2	23MD	1	0	0.646775960922	112.0	33.0	108	28	1
1.7	2015_Jul_30_0912	s	s	14	4	SIC	219	ABS	2	2	24VD	0	1	0.623086929321	None	None	None	None	1
1.7	2015_Jul_30_0912	s	s	14	4	SIC	220	ABS	1	0	24MC	0	1	3.12815189362	None	None	None	None	1
1.7	2015_Jul_30_0912	s	s	14	4	SIC	221	ABS	1	2	24MD	0	1	0.858560800552	None	None	None	None	1
1.7	2015_Jul_30_0912	s	s	14	4	SIC	222	RC	2	0	23VC	1	0	0.850435018539	-403.0	-293.0	-395	-290	1
1.7	2015_Jul_30_0912	s	s	14	4	SIC	223	RC	2	1	23VO	1	0	0.572889089584	-330.0	-48.0	-328	-49	1
1.7	2015_Jul_30_0912	s	s	14	4	SIC	224	ABS	0	2	24RD	0	1	0.832664966583	None	None	None	None	1
1.7	2015_Jul_30_0912	s	s	14	4	SIC	225	RC	0	1	23RO	1	0	3.51882886887	124.0	-312.0	125	-320	1
1.7	2015_Jul_30_0912	s	s	14	4	SIC	226	RC	1	1	23MO	1	0	1.08230996132	-534.0	-74.0	-533	-84	1
1.7	2015_Jul_30_0912	s	s	14	4	SIC	227	RC	2	0	23VC	1	0	0.44664478302	353.0	349.0	350	343	1
1.7	2015_Jul_30_0912	s	s	14	4	SIC	228	ABS	2	1	24VO	0	1	0.629348993301	None	None	None	None	1
1.7	2015_Jul_30_0912	s	s	14	4	SIC	229	RC	0	2	23RD	1	0	0.552592992783	-466.0	-303.0	-466	-303	1
1.7	2015_Jul_30_0912	s	s	14	4	SIC	230	RC	1	0	23MC	1	0	0.620809793472	122.0	231.0	122	240	1
1.7	2015_Jul_30_0912	s	s	14	4	SIC	231	ABS	0	2	24RD	0	1	0.575966835022	None	None	None	None	1
1.7	2015_Jul_30_0912	s	s	14	4	SIC	232	ABS	2	0	24VC	0	1	0.611478090286	None	None	None	None	1
1.7	2015_Jul_30_0912	s	s	14	4	SIC	233	RC	2	2	23VD	1	0	0.499529123306	-470.0	234.0	-464	230	1
1.7	2015_Jul_30_0912	s	s	14	4	SIC	234	ABS	0	1	24RO	0	1	3.82480502129	None	None	None	None	1
1.7	2015_Jul_30_0912	s	s	14	4	SIC	235	ABS	2	2	24VD	0	1	0.540844202042	None	None	None	None	1
1.7	2015_Jul_30_0912	s	s	14	4	SIC	236	RC	1	2	23MD	1	0	0.514569044113	500.0	-20.0	506	-22	1
1.7	2015_Jul_30_0912	s	s	14	4	SIC	237	ABS	1	1	24MO	0	1	3.3255469799	None	None	None	None	1
1.7	2015_Jul_30_0912	s	s	14	4	SIC	238	ABS	1	0	24MC	0	1	4.25541806221	None	None	None	None	1
1.7	2015_Jul_30_0912	s	s	14	4	SIC	239	RC	2	1	23VO	1	0	0.458378791809	-379.0	59.0	-376	59	1
1.7	2015_Jul_30_0912	s	s	14	4	SIC	240	ABS	1	2	24MD	0	1	1.19174098969	None	None	None	None	1
1.7	2015_Jul_30_0912	s	s	14	4	SIC	241	RC	2	0	23VC	1	0	0.411311149597	-170.0	-147.0	-179	-145	1
1.7	2015_Jul_30_0912	s	s	14	4	SIC	242	ABS	0	2	24RD	0	1	0.995328903198	None	None	None	None	1
1.7	2015_Jul_30_0912	s	s	14	4	SIC	243	ABS	1	0	24MC	0	1	4.09558486938	None	None	None	None	1
1.7	2015_Jul_30_0912	s	s	14	4	SIC	244	RC	2	1	23VO	1	0	0.729163885117	-490.0	-316.0	-499	-310	1
1.7	2015_Jul_30_0912	s	s	14	4	SIC	245	ABS	1	2	24MD	0	1	1.91815400124	None	None	None	None	1
1.7	2015_Jul_30_0912	s	s	14	4	SIC	246	RC	0	2	23RD	1	0	0.597026109695	316.0	-103.0	307	-102	1
1.7	2015_Jul_30_0912	s	s	14	4	SIC	247	RC	1	2	23MD	1	0	0.535804033279	132.0	-64.0	131	-68	1
1.7	2015_Jul_30_0912	s	s	14	4	SIC	248	ABS	2	0	24VC	0	1	0.911951065063	None	None	None	None	1
1.7	2015_Jul_30_0912	s	s	14	4	SIC	249	ABS	2	2	24VD	0	1	0.512943029404	None	None	None	None	1
1.7	2015_Jul_30_0912	s	s	14	4	SIC	250	RC	1	0	23MC	1	0	1.87095308304	298.0	293.0	300	298	1
1.7	2015_Jul_30_0912	s	s	14	4	SIC	251	RC	2	2	23VD	1	0	0.537000894547	510.0	-245.0	515	-245	1
1.7	2015_Jul_30_0912	s	s	14	4	SIC	252	ABS	1	1	24MO	0	1	3.10289120674	None	None	None	None	1
1.7	2015_Jul_30_0912	s	s	14	4	SIC	253	RC	1	1	23MO	1	0	0.585203170776	-291.0	-58.0	-296	-63	1
1.7	2015_Jul_30_0912	s	s	14	4	SIC	254	ABS	0	1	24RO	0	1	3.33814907074	None	None	None	None	1
1.7	2015_Jul_30_0912	s	s	14	4	SIC	255	ABS	2	1	24VO	0	1	1.19987201691	None	None	None	None	1
1.7	2015_Jul_30_0912	s	s	14	4	SIC	256	RC	0	1	23RO	1	0	3.51485395432	159.0	92.0	118	-16	0
1.7	2015_Jul_30_0912	s	s	14	4	SIC	257	RC	2	2	23VD	1	0	0.470067977905	244.0	93.0	240	86	1
1.7	2015_Jul_30_0912	s	s	14	4	SIC	258	ABS	2	2	24VD	0	1	0.499409914017	None	None	None	None	1
1.7	2015_Jul_30_0912	s	s	14	4	SIC	259	RC	1	1	23MO	1	0	1.60601520538	-98.0	-164.0	-104	-164	1
1.7	2015_Jul_30_0912	s	s	14	4	SIC	260	RC	2	1	23VO	1	0	0.477323055267	220.0	-237.0	215	-231	1
1.7	2015_Jul_30_0912	s	s	14	4	SIC	261	RC	2	0	23VC	1	0	0.441557168961	11.0	-355.0	1	-351	1
1.7	2015_Jul_30_0912	s	s	14	4	SIC	262	ABS	1	0	24MC	0	1	2.24247407913	None	None	None	None	1
1.7	2015_Jul_30_0912	s	s	14	4	SIC	263	RC	1	0	23MC	1	0	0.538280010223	15.0	11.0	25	21	1
1.7	2015_Jul_30_0912	s	s	14	4	SIC	264	ABS	1	1	24MO	0	1	2.03332805634	None	None	None	None	1
1.7	2015_Jul_30_0912	s	s	14	4	SIC	265	ABS	0	2	24RD	0	1	0.858667135239	None	None	None	None	1
1.7	2015_Jul_30_0912	s	s	14	4	SIC	266	RC	0	1	23RO	0	1	3.32507801056	-141.0	77.0	None	None	0
1.7	2015_Jul_30_0912	s	s	14	4	SIC	267	RC	0	2	23RD	1	0	0.488503932953	-522.0	-156.0	-524	-159	1
1.7	2015_Jul_30_0912	s	s	14	4	SIC	268	ABS	0	1	24RO	0	1	4.49239802361	None	None	None	None	1
1.7	2015_Jul_30_0912	s	s	14	4	SIC	269	ABS	2	0	24VC	0	1	0.776217937469	None	None	None	None	1
1.7	2015_Jul_30_0912	s	s	14	4	SIC	270	RC	1	2	23MD	1	0	0.514939069748	-188.0	102.0	-173	111	1
1.7	2015_Jul_30_0912	s	s	14	4	SIC	271	ABS	1	2	24MD	0	1	1.45893597603	None	None	None	None	1
1.7	2015_Jul_30_0912	s	s	14	4	SIC	272	ABS	2	1	24VO	0	1	0.564324140549	None	None	None	None	1
1.7	2015_Jul_30_0912	s	s	14	4	SIC	273	RC	0	2	23RD	1	0	0.497291088104	310.0	-397.0	313	-393	1
1.7	2015_Jul_30_0912	s	s	14	4	SIC	274	ABS	2	1	24VO	0	1	0.583307027817	None	None	None	None	1
1.7	2015_Jul_30_0912	s	s	14	4	SIC	275	RC	2	1	23VO	1	0	0.559339046478	458.0	-82.0	466	-80	1
1.7	2015_Jul_30_0912	s	s	14	4	SIC	276	RC	1	2	23MD	1	0	0.446428775787	-456.0	-3.0	-459	-5	1
1.7	2015_Jul_30_0912	s	s	14	4	SIC	277	RC	0	1	23RO	1	0	1.09766888618	503.0	207.0	509	212	1
1.7	2015_Jul_30_0912	s	s	14	4	SIC	278	ABS	1	0	24MC	0	1	3.23303484917	None	None	None	None	1
1.7	2015_Jul_30_0912	s	s	14	4	SIC	279	RC	1	0	23MC	1	0	0.882040977478	-361.0	54.0	-359	60	1
1.7	2015_Jul_30_0912	s	s	14	4	SIC	280	ABS	2	2	24VD	0	1	0.546127080917	None	None	None	None	1
1.7	2015_Jul_30_0912	s	s	14	4	SIC	281	ABS	0	1	24RO	0	1	2.91828012466	None	None	None	None	1
1.7	2015_Jul_30_0912	s	s	14	4	SIC	282	ABS	1	1	24MO	0	1	1.70213389397	None	None	None	None	1
1.7	2015_Jul_30_0912	s	s	14	4	SIC	283	ABS	0	2	24RD	0	1	0.66724896431	None	None	None	None	1
1.7	2015_Jul_30_0912	s	s	14	4	SIC	284	ABS	2	0	24VC	0	1	0.893857955933	None	None	None	None	1
1.7	2015_Jul_30_0912	s	s	14	4	SIC	285	ABS	1	2	24MD	0	1	0.985273122787	None	None	None	None	1
1.7	2015_Jul_30_0912	s	s	14	4	SIC	286	RC	1	1	23MO	1	0	0.976359128952	-125.0	359.0	-124	357	1
1.7	2015_Jul_30_0912	s	s	14	4	SIC	287	RC	2	0	23VC	1	0	0.458559989929	289.0	131.0	285	134	1
1.7	2015_Jul_30_0912	s	s	14	4	SIC	288	RC	2	2	23VD	1	0	0.435184955597	1.0	-269.0	2	-269	1
1.7	2015_Jul_30_0912	s	s	14	4	SIC	289	RC	2	1	23VO	1	0	0.418054819107	-154.0	-130.0	-150	-132	1
1.7	2015_Jul_30_0912	s	s	14	4	SIC	290	ABS	2	0	24VC	0	1	0.597086191177	None	None	None	None	1
1.7	2015_Jul_30_0912	s	s	14	4	SIC	291	RC	1	1	23MO	1	0	1.49177503586	533.0	171.0	518	178	1
1.7	2015_Jul_30_0912	s	s	14	4	SIC	292	RC	0	2	23RD	1	0	0.440962076187	327.0	-269.0	320	-268	1
1.7	2015_Jul_30_0912	s	s	14	4	SIC	293	ABS	2	1	24VO	0	1	0.535452127457	None	None	None	None	1
1.7	2015_Jul_30_0912	s	s	14	4	SIC	294	ABS	0	1	24RO	0	1	3.78464913368	None	None	None	None	1
1.7	2015_Jul_30_0912	s	s	14	4	SIC	295	RC	0	1	23RO	1	0	1.12673783302	-111.0	-87.0	-114	-100	1
1.7	2015_Jul_30_0912	s	s	14	4	SIC	296	ABS	0	2	24RD	0	1	0.572535991669	None	None	None	None	1
1.7	2015_Jul_30_0912	s	s	14	4	SIC	297	ABS	1	0	24MC	0	1	5.62574315071	None	None	None	None	1
1.7	2015_Jul_30_0912	s	s	14	4	SIC	298	RC	2	2	23VD	1	0	0.66565489769	-481.0	97.0	-481	96	1
1.7	2015_Jul_30_0912	s	s	14	4	SIC	299	RC	2	0	23VC	1	0	1.15289402008	338.0	207.0	342	206	1
1.7	2015_Jul_30_0912	s	s	14	4	SIC	300	ABS	2	2	24VD	0	1	0.820168018341	None	None	None	None	1
1.7	2015_Jul_30_0912	s	s	14	4	SIC	301	RC	1	2	23MD	1	0	0.4440741539	-488.0	243.0	-487	240	1
1.7	2015_Jul_30_0912	s	s	14	4	SIC	302	ABS	1	1	24MO	0	1	3.26676487923	None	None	None	None	1
1.7	2015_Jul_30_0912	s	s	14	4	SIC	303	RC	1	0	23MC	1	0	0.917582988739	67.0	122.0	57	121	1
1.7	2015_Jul_30_0912	s	s	14	4	SIC	304	ABS	1	2	24MD	0	1	2.13702487946	None	None	None	None	1
1.7	2015_Jul_30_0912	s	s	14	4	SIC	305	RC	2	1	23VO	1	0	0.4556620121	-130.0	194.0	-129	189	1
1.7	2015_Jul_30_0912	s	s	14	4	SIC	306	ABS	2	0	24VC	0	1	1.51777696609	None	None	None	None	1
1.7	2015_Jul_30_0912	s	s	14	4	SIC	307	RC	0	2	23RD	1	0	0.643626928329	-72.0	-285.0	-74	-296	1
1.7	2015_Jul_30_0912	s	s	14	4	SIC	308	ABS	1	2	24MD	0	1	0.643758773804	None	None	None	None	1
1.7	2015_Jul_30_0912	s	s	14	4	SIC	309	RC	0	1	23RO	1	0	3.57337808609	-432.0	371.0	-439	366	1
1.7	2015_Jul_30_0912	s	s	14	4	SIC	310	RC	1	2	23MD	1	0	0.399863958359	-102.0	56.0	-99	61	1
1.7	2015_Jul_30_0912	s	s	14	4	SIC	311	RC	2	0	23VC	1	0	0.396193027496	-54.0	-46.0	-41	-39	1
1.7	2015_Jul_30_0912	s	s	14	4	SIC	312	ABS	1	1	24MO	0	1	4.37808799744	None	None	None	None	1
1.7	2015_Jul_30_0912	s	s	14	4	SIC	313	RC	1	1	23MO	1	0	1.30594015121	98.0	-277.0	95	-281	1
1.7	2015_Jul_30_0912	s	s	14	4	SIC	314	ABS	0	2	24RD	0	1	0.584901094437	None	None	None	None	1
1.7	2015_Jul_30_0912	s	s	14	4	SIC	315	ABS	0	1	24RO	0	1	4.37514781952	None	None	None	None	1
1.7	2015_Jul_30_0912	s	s	14	4	SIC	316	RC	2	2	23VD	1	0	0.500832080841	-40.0	-35.0	-46	-36	1
1.7	2015_Jul_30_0912	s	s	14	4	SIC	317	RC	1	0	23MC	1	0	1.230230093	-93.0	-335.0	-86	-332	1
1.7	2015_Jul_30_0912	s	s	14	4	SIC	318	ABS	2	1	24VO	0	1	0.863432168961	None	None	None	None	1
1.7	2015_Jul_30_0912	s	s	14	4	SIC	319	ABS	1	0	24MC	0	1	2.94189620018	None	None	None	None	1
1.7	2015_Jul_30_0912	s	s	14	4	SIC	320	ABS	2	2	24VD	0	1	0.57341504097	None	None	None	None	1
1.7	2015_Jul_30_0912	s	s	14	4	SIC	321	RC	1	0	23MC	1	0	2.67975997925	494.0	-110.0	503	-106	1
1.7	2015_Jul_30_0912	s	s	14	4	SIC	322	ABS	2	1	24VO	0	1	0.97132897377	None	None	None	None	1
1.7	2015_Jul_30_0912	s	s	14	4	SIC	323	ABS	2	0	24VC	0	1	0.844626188278	None	None	None	None	1
1.7	2015_Jul_30_0912	s	s	14	4	SIC	324	ABS	1	0	24MC	0	1	3.08936691284	None	None	None	None	1
1.7	2015_Jul_30_0912	s	s	14	4	SIC	325	ABS	1	1	24MO	0	1	1.61866903305	None	None	None	None	1
1.7	2015_Jul_30_0912	s	s	14	4	SIC	326	RC	2	1	23VO	1	0	0.52906703949	-59.0	-309.0	-50	-305	1
1.7	2015_Jul_30_0912	s	s	14	4	SIC	327	RC	2	2	23VD	1	0	0.475658893585	263.0	-258.0	259	-256	1
1.7	2015_Jul_30_0912	s	s	14	4	SIC	328	ABS	0	2	24RD	0	1	1.52202606201	None	None	None	None	1
1.7	2015_Jul_30_0912	s	s	14	4	SIC	329	RC	2	0	23VC	1	0	1.08220720291	93.0	-211.0	104	-206	1
1.7	2015_Jul_30_0912	s	s	14	4	SIC	330	ABS	2	2	24VD	0	1	1.5882730484	None	None	None	None	1
1.7	2015_Jul_30_0912	s	s	14	4	SIC	331	RC	0	1	23RO	1	0	2.98542189598	-249.0	396.0	-248	393	1
1.7	2015_Jul_30_0912	s	s	14	4	SIC	332	ABS	1	2	24MD	0	1	3.53063702583	None	None	None	None	1
1.7	2015_Jul_30_0912	s	s	14	4	SIC	333	ABS	0	1	24RO	0	1	5.12526202202	None	None	None	None	1
1.7	2015_Jul_30_0912	s	s	14	4	SIC	334	RC	1	2	23MD	1	0	0.679440021515	467.0	-11.0	463	-3	1
1.7	2015_Jul_30_0912	s	s	14	4	SIC	335	RC	1	1	23MO	1	0	0.968189954758	-84.0	223.0	-78	223	1
1.7	2015_Jul_30_0912	s	s	14	4	SIC	336	RC	0	2	23RD	1	0	0.488649129868	-218.0	-186.0	-228	-186	1
1.7	2015_Jul_30_0912	s	s	14	4	SIC	337	ABS	0	2	24RD	0	1	0.51368689537	None	None	None	None	1
1.7	2015_Jul_30_0912	s	s	14	4	SIC	338	RC	1	1	23MO	1	0	0.665775775909	-202.0	247.0	-195	243	1
1.7	2015_Jul_30_0912	s	s	14	4	SIC	339	ABS	1	0	24MC	0	1	3.03136205673	None	None	None	None	1
1.7	2015_Jul_30_0912	s	s	14	4	SIC	340	RC	2	1	23VO	1	0	0.512124061584	377.0	8.0	378	2	1
1.7	2015_Jul_30_0912	s	s	14	4	SIC	341	ABS	2	2	24VD	0	1	0.528980016708	None	None	None	None	1
1.7	2015_Jul_30_0912	s	s	14	4	SIC	342	RC	1	0	23MC	1	0	1.3372759819	-538.0	367.0	-540	364	1
1.7	2015_Jul_30_0912	s	s	14	4	SIC	343	RC	1	2	23MD	1	0	0.505472898483	305.0	260.0	304	254	1
1.7	2015_Jul_30_0912	s	s	14	4	SIC	344	ABS	2	0	24VC	0	1	0.582950115204	None	None	None	None	1
1.7	2015_Jul_30_0912	s	s	14	4	SIC	345	RC	0	2	23RD	1	0	0.491054058075	-294.0	-296.0	-291	-299	1
1.7	2015_Jul_30_0912	s	s	14	4	SIC	346	RC	2	2	23VD	1	0	0.3764128685	-107.0	38.0	-102	36	1
1.7	2015_Jul_30_0912	s	s	14	4	SIC	347	ABS	1	2	24MD	0	1	1.12931990623	None	None	None	None	1
1.7	2015_Jul_30_0912	s	s	14	4	SIC	348	RC	0	1	23RO	1	0	1.3295571804	52.0	225.0	59	227	1
1.7	2015_Jul_30_0912	s	s	14	4	SIC	349	RC	2	0	23VC	1	0	0.423585176468	-56.0	-397.0	-59	-402	1
1.7	2015_Jul_30_0912	s	s	14	4	SIC	350	ABS	0	1	24RO	0	1	3.58450317383	None	None	None	None	1
1.7	2015_Jul_30_0912	s	s	14	4	SIC	351	ABS	2	1	24VO	0	1	0.549140930176	None	None	None	None	1
1.7	2015_Jul_30_0912	s	s	14	4	SIC	352	ABS	1	1	24MO	0	1	3.10685396194	None	None	None	None	1
1.7	2015_Jul_30_0912	s	s	14	4	SIC	353	ABS	1	1	24MO	0	1	3.36577796936	None	None	None	None	1
1.7	2015_Jul_30_0912	s	s	14	4	SIC	354	ABS	0	1	24RO	0	1	4.26034498215	None	None	None	None	1
1.7	2015_Jul_30_0912	s	s	14	4	SIC	355	ABS	2	2	24VD	0	1	0.529100179672	None	None	None	None	1
1.7	2015_Jul_30_0912	s	s	14	4	SIC	356	ABS	2	0	24VC	0	1	0.608219861984	None	None	None	None	1
1.7	2015_Jul_30_0912	s	s	14	4	SIC	357	ABS	0	2	24RD	0	1	0.764344930649	None	None	None	None	1
1.7	2015_Jul_30_0912	s	s	14	4	SIC	358	RC	1	2	23MD	1	0	0.546694040298	328.0	101.0	332	101	1
1.7	2015_Jul_30_0912	s	s	14	4	SIC	359	RC	2	1	23VO	1	0	0.397222995758	-75.0	-232.0	-78	-225	1
1.7	2015_Jul_30_0912	s	s	14	4	SIC	360	RC	2	0	23VC	1	0	0.599627971649	519.0	-36.0	519	-34	1
1.7	2015_Jul_30_0912	s	s	14	4	SIC	361	RC	0	1	23RO	1	0	1.84737610817	-363.0	159.0	-355	157	1
1.7	2015_Jul_30_0912	s	s	14	4	SIC	362	RC	1	0	23MC	1	0	0.665061950684	340.0	-351.0	342	-346	1
1.7	2015_Jul_30_0912	s	s	14	4	SIC	363	RC	2	2	23VD	1	0	0.39950799942	-318.0	-267.0	-325	-268	1
1.7	2015_Jul_30_0912	s	s	14	4	SIC	364	RC	1	1	23MO	1	0	0.831529140472	-118.0	-275.0	-117	-270	1
1.7	2015_Jul_30_0912	s	s	14	4	SIC	365	ABS	1	2	24MD	0	1	0.68794298172	None	None	None	None	1
1.7	2015_Jul_30_0912	s	s	14	4	SIC	366	ABS	2	1	24VO	0	1	1.17645311356	None	None	None	None	1
1.7	2015_Jul_30_0912	s	s	14	4	SIC	367	RC	0	2	23RD	1	0	0.646805047989	-54.0	-299.0	-51	-298	1
1.7	2015_Jul_30_0912	s	s	14	4	SIC	368	ABS	1	0	24MC	0	1	3.04460597038	None	None	None	None	1
1.7	2015_Jul_30_0912	s	s	14	4	SIC	369	ABS	0	1	24RO	0	1	4.53110599518	None	None	None	None	1
1.7	2015_Jul_30_0912	s	s	14	4	SIC	370	ABS	2	0	24VC	0	1	0.552995920181	None	None	None	None	1
1.7	2015_Jul_30_0912	s	s	14	4	SIC	371	ABS	2	1	24VO	0	1	0.51735496521	None	None	None	None	1
1.7	2015_Jul_30_0912	s	s	14	4	SIC	372	ABS	2	2	24VD	0	1	0.411334991455	None	None	None	None	1
1.7	2015_Jul_30_0912	s	s	14	4	SIC	373	ABS	1	1	24MO	0	1	2.0685300827	None	None	None	None	1
1.7	2015_Jul_30_0912	s	s	14	4	SIC	374	RC	0	1	23RO	1	0	2.97481703758	473.0	107.0	482	103	1
1.7	2015_Jul_30_0912	s	s	14	4	SIC	375	RC	1	0	23MC	0	1	2.12972092628	370.0	360.0	None	None	0
1.7	2015_Jul_30_0912	s	s	14	4	SIC	376	RC	1	1	23MO	1	0	0.740888118744	166.0	138.0	168	139	1
1.7	2015_Jul_30_0912	s	s	14	4	SIC	377	ABS	1	0	24MC	0	1	3.0948870182	None	None	None	None	1
1.7	2015_Jul_30_0912	s	s	14	4	SIC	378	RC	2	2	23VD	1	0	0.435159921646	155.0	-327.0	151	-330	1
1.7	2015_Jul_30_0912	s	s	14	4	SIC	379	ABS	0	2	24RD	0	1	1.15272593498	None	None	None	None	1
1.7	2015_Jul_30_0912	s	s	14	4	SIC	380	RC	2	0	23VC	1	0	0.458882808685	241.0	367.0	245	364	1
1.7	2015_Jul_30_0912	s	s	14	4	SIC	381	RC	2	1	23VO	1	0	0.453161001205	480.0	292.0	474	301	1
1.7	2015_Jul_30_0912	s	s	14	4	SIC	382	RC	0	2	23RD	1	0	0.458433866501	-481.0	-94.0	-483	-90	1
1.7	2015_Jul_30_0912	s	s	14	4	SIC	383	RC	1	2	23MD	1	0	0.549390077591	459.0	93.0	455	89	1
1.7	2015_Jul_30_0912	s	s	14	4	SIC	384	ABS	1	2	24MD	0	1	1.22889089584	None	None	None	None	1
1.7	2015_Jul_30_0912	s	s	14	4	SIC	385	RC	0	2	23RD	1	0	0.528954029083	-524.0	-362.0	-522	-356	1
1.7	2015_Jul_30_0912	s	s	14	4	SIC	386	ABS	0	1	24RO	0	1	4.31921195984	None	None	None	None	1
1.7	2015_Jul_30_0912	s	s	14	4	SIC	387	ABS	2	1	24VO	0	1	0.935460090637	None	None	None	None	1
1.7	2015_Jul_30_0912	s	s	14	4	SIC	388	RC	1	2	23MD	1	0	0.446659088135	526.0	95.0	536	97	1
1.7	2015_Jul_30_0912	s	s	14	4	SIC	389	RC	1	1	23MO	1	0	1.19669008255	-320.0	-384.0	-312	-379	1
1.7	2015_Jul_30_0912	s	s	14	4	SIC	390	ABS	0	2	24RD	0	1	1.69426417351	None	None	None	None	1
1.7	2015_Jul_30_0912	s	s	14	4	SIC	391	ABS	2	0	24VC	0	1	0.59966301918	None	None	None	None	1
1.7	2015_Jul_30_0912	s	s	14	4	SIC	392	RC	0	1	23RO	0	1	3.11876296997	182.0	-81.0	None	None	0
1.7	2015_Jul_30_0912	s	s	14	4	SIC	393	RC	2	0	23VC	1	0	0.737818956375	417.0	384.0	416	383	1
1.7	2015_Jul_30_0912	s	s	14	4	SIC	394	ABS	2	2	24VD	0	1	3.24464011192	None	None	None	None	1
1.7	2015_Jul_30_0912	s	s	14	4	SIC	395	ABS	1	0	24MC	0	1	1.57338190079	None	None	None	None	1
1.7	2015_Jul_30_0912	s	s	14	4	SIC	396	ABS	1	1	24MO	0	1	1.77228188515	None	None	None	None	1
1.7	2015_Jul_30_0912	s	s	14	4	SIC	397	RC	2	1	23VO	1	0	0.481986999512	-124.0	-70.0	-134	-71	1
1.7	2015_Jul_30_0912	s	s	14	4	SIC	398	ABS	1	2	24MD	0	1	0.611690998077	None	None	None	None	1
1.7	2015_Jul_30_0912	s	s	14	4	SIC	399	RC	2	2	23VD	1	0	0.458415985107	509.0	327.0	512	326	1
1.7	2015_Jul_30_0912	s	s	14	4	SIC	400	RC	1	0	23MC	1	0	2.02396297455	-462.0	143.0	-459	143	1
1.7	2015_Jul_30_0912	s	s	14	4	SIC	401	ABS	2	2	24VD	0	1	0.420293092728	None	None	None	None	1
1.7	2015_Jul_30_0912	s	s	14	4	SIC	402	RC	2	0	23VC	1	0	0.571052789688	-396.0	-392.0	-390	-397	1
1.7	2015_Jul_30_0912	s	s	14	4	SIC	403	RC	1	1	23MO	1	0	1.26505899429	157.0	273.0	159	276	1
1.7	2015_Jul_30_0912	s	s	14	4	SIC	404	ABS	2	1	24VO	0	1	0.547096014023	None	None	None	None	1
1.7	2015_Jul_30_0912	s	s	14	4	SIC	405	RC	2	1	23VO	1	0	0.388022184372	156.0	-102.0	157	-114	1
1.7	2015_Jul_30_0912	s	s	14	4	SIC	406	RC	0	1	23RO	0	1	2.92731285095	478.0	322.0	None	None	0
1.7	2015_Jul_30_0912	s	s	14	4	SIC	407	RC	0	2	23RD	1	0	0.561915159225	289.0	-258.0	290	-260	1
1.7	2015_Jul_30_0912	s	s	14	4	SIC	408	ABS	1	1	24MO	0	1	2.34787797928	None	None	None	None	1
1.7	2015_Jul_30_0912	s	s	14	4	SIC	409	ABS	1	2	24MD	0	1	1.18515205383	None	None	None	None	1
1.7	2015_Jul_30_0912	s	s	14	4	SIC	410	RC	2	2	23VD	1	0	0.420454025269	-178.0	359.0	-179	360	1
1.7	2015_Jul_30_0912	s	s	14	4	SIC	411	ABS	1	0	24MC	0	1	2.81252598763	None	None	None	None	1
1.7	2015_Jul_30_0912	s	s	14	4	SIC	412	ABS	0	2	24RD	0	1	0.688564062119	None	None	None	None	1
1.7	2015_Jul_30_0912	s	s	14	4	SIC	413	ABS	0	1	24RO	1	0	2.75369000435	None	None	-10	-16	0
1.7	2015_Jul_30_0912	s	s	14	4	SIC	414	RC	1	0	23MC	1	0	1.1529109478	-312.0	380.0	-309	382	1
1.7	2015_Jul_30_0912	s	s	14	4	SIC	415	RC	1	2	23MD	1	0	0.488519906998	91.0	-156.0	84	-157	1
1.7	2015_Jul_30_0912	s	s	14	4	SIC	416	ABS	2	0	24VC	0	1	1.0557050705	None	None	None	None	1
1.7	2015_Jul_30_0912	s	s	14	4	SIC	417	ABS	1	0	24MC	0	1	3.00091600418	None	None	None	None	1
1.7	2015_Jul_30_0912	s	s	14	4	SIC	418	ABS	2	0	24VC	0	1	0.595160961151	None	None	None	None	1
1.7	2015_Jul_30_0912	s	s	14	4	SIC	419	ABS	1	2	24MD	0	1	0.644240856171	None	None	None	None	1
1.7	2015_Jul_30_0912	s	s	14	4	SIC	420	ABS	0	1	24RO	0	1	2.54868507385	None	None	None	None	1
1.7	2015_Jul_30_0912	s	s	14	4	SIC	421	RC	0	2	23RD	1	0	0.49791097641	93.0	-142.0	97	-139	1
1.7	2015_Jul_30_0912	s	s	14	4	SIC	422	RC	2	1	23VO	1	0	0.441465139389	-460.0	195.0	-467	196	1
1.7	2015_Jul_30_0912	s	s	14	4	SIC	423	RC	1	1	23MO	1	0	0.971076011658	-380.0	-357.0	-386	-353	1
1.7	2015_Jul_30_0912	s	s	14	4	SIC	424	RC	1	0	23MC	1	0	1.56041383743	-445.0	-277.0	-455	-272	1
1.7	2015_Jul_30_0912	s	s	14	4	SIC	425	RC	2	0	23VC	1	0	0.407191991806	-466.0	-361.0	-469	-365	1
1.7	2015_Jul_30_0912	s	s	14	4	SIC	426	RC	1	2	23MD	1	0	0.441034078598	296.0	-294.0	293	-299	1
1.7	2015_Jul_30_0912	s	s	14	4	SIC	427	ABS	2	2	24VD	0	1	0.699712991714	None	None	None	None	1
1.7	2015_Jul_30_0912	s	s	14	4	SIC	428	ABS	1	1	24MO	0	1	2.34165000916	None	None	None	None	1
1.7	2015_Jul_30_0912	s	s	14	4	SIC	429	RC	2	2	23VD	1	0	0.423099040985	-495.0	-183.0	-493	-185	1
1.7	2015_Jul_30_0912	s	s	14	4	SIC	430	ABS	0	2	24RD	0	1	0.902508020401	None	None	None	None	1
1.7	2015_Jul_30_0912	s	s	14	4	SIC	431	RC	0	1	23RO	1	0	3.35380601883	-477.0	237.0	-481	239	1
1.7	2015_Jul_30_0912	s	s	14	4	SIC	432	ABS	2	1	24VO	0	1	0.493664979935	None	None	None	None	1
1.7	2015_Jul_30_0912	s	s	14	4	SIC	433	RC	1	2	23MD	1	0	0.611429929733	459.0	352.0	466	355	1
1.7	2015_Jul_30_0912	s	s	14	4	SIC	434	ABS	2	0	24VC	0	1	1.10314893723	None	None	None	None	1
1.7	2015_Jul_30_0912	s	s	14	4	SIC	435	ABS	1	2	24MD	0	1	0.724946975708	None	None	None	None	1
1.7	2015_Jul_30_0912	s	s	14	4	SIC	436	RC	0	2	23RD	1	0	0.500545024872	-395.0	263.0	-394	252	1
1.7	2015_Jul_30_0912	s	s	14	4	SIC	437	RC	1	1	23MO	1	0	1.03191494942	-383.0	389.0	-378	388	1
1.7	2015_Jul_30_0912	s	s	14	4	SIC	438	ABS	0	1	24RO	0	1	2.94865512848	None	None	None	None	1
1.7	2015_Jul_30_0912	s	s	14	4	SIC	439	ABS	2	1	24VO	0	1	0.544366121292	None	None	None	None	1
1.7	2015_Jul_30_0912	s	s	14	4	SIC	440	RC	2	2	23VD	1	0	0.408097982407	-69.0	-97.0	-74	-100	1
1.7	2015_Jul_30_0912	s	s	14	4	SIC	441	RC	1	0	23MC	1	0	0.701691150665	-234.0	-32.0	-231	-31	1
1.7	2015_Jul_30_0912	s	s	14	4	SIC	442	ABS	1	1	24MO	0	1	1.61565089226	None	None	None	None	1
1.7	2015_Jul_30_0912	s	s	14	4	SIC	443	ABS	2	2	24VD	0	1	0.462310791016	None	None	None	None	1
1.7	2015_Jul_30_0912	s	s	14	4	SIC	444	RC	0	1	23RO	1	0	4.41051316261	139.0	74.0	137	77	1
1.7	2015_Jul_30_0912	s	s	14	4	SIC	445	RC	2	0	23VC	1	0	0.583271980286	-291.0	-266.0	-300	-270	1
1.7	2015_Jul_30_0912	s	s	14	4	SIC	446	ABS	0	2	24RD	0	1	0.879698991776	None	None	None	None	1
1.7	2015_Jul_30_0912	s	s	14	4	SIC	447	ABS	1	0	24MC	0	1	2.96072387695	None	None	None	None	1
1.7	2015_Jul_30_0912	s	s	14	4	SIC	448	RC	2	1	23VO	1	0	0.467776060104	-341.0	276.0	-341	269	1
1.7	2015_Jul_30_0912	s	s	14	4	SIC	449	RC	0	2	23RD	1	0	0.620484828949	225.0	-4.0	232	-4	1
1.7	2015_Jul_30_0912	s	s	14	4	SIC	450	ABS	1	2	24MD	0	1	0.991772174835	None	None	None	None	1
1.7	2015_Jul_30_0912	s	s	14	4	SIC	451	RC	2	2	23VD	1	0	0.454750061035	84.0	-402.0	85	-412	1
1.7	2015_Jul_30_0912	s	s	14	4	SIC	452	RC	1	1	23MO	1	0	0.882078886032	-142.0	123.0	-147	120	1
1.7	2015_Jul_30_0912	s	s	14	4	SIC	453	RC	0	1	23RO	1	0	1.11752319336	64.0	248.0	59	245	1
1.7	2015_Jul_30_0912	s	s	14	4	SIC	454	RC	1	0	23MC	1	0	1.08896780014	-497.0	293.0	-501	294	1
1.7	2015_Jul_30_0912	s	s	14	4	SIC	455	ABS	1	0	24MC	0	1	1.99669098854	None	None	None	None	1
1.7	2015_Jul_30_0912	s	s	14	4	SIC	456	RC	1	2	23MD	1	0	0.481819152832	216.0	359.0	210	361	1
1.7	2015_Jul_30_0912	s	s	14	4	SIC	457	RC	2	0	23VC	1	0	0.438509941101	370.0	2.0	375	4	1
1.7	2015_Jul_30_0912	s	s	14	4	SIC	458	RC	2	1	23VO	1	0	0.419564962387	182.0	-30.0	185	-32	1
1.7	2015_Jul_30_0912	s	s	14	4	SIC	459	ABS	2	0	24VC	0	1	0.535322904587	None	None	None	None	1
1.7	2015_Jul_30_0912	s	s	14	4	SIC	460	ABS	2	1	24VO	0	1	0.481923103333	None	None	None	None	1
1.7	2015_Jul_30_0912	s	s	14	4	SIC	461	ABS	0	1	24RO	0	1	4.14758086205	None	None	None	None	1
1.7	2015_Jul_30_0912	s	s	14	4	SIC	462	ABS	2	2	24VD	0	1	0.49370098114	None	None	None	None	1
1.7	2015_Jul_30_0912	s	s	14	4	SIC	463	ABS	0	2	24RD	0	1	1.3530189991	None	None	None	None	1
1.7	2015_Jul_30_0912	s	s	14	4	SIC	464	ABS	1	1	24MO	0	1	2.79487991333	None	None	None	None	1
1.7	2015_Jul_30_0912	s	s	14	4	SIC	465	ABS	2	0	24VC	0	1	0.458327054977	None	None	None	None	1
1.7	2015_Jul_30_0912	s	s	14	4	SIC	466	RC	0	2	23RD	1	0	0.729084014893	413.0	380.0	416	385	1
1.7	2015_Jul_30_0912	s	s	14	4	SIC	467	ABS	1	2	24MD	0	1	0.794018030167	None	None	None	None	1
1.7	2015_Jul_30_0912	s	s	14	4	SIC	468	ABS	2	2	24VD	0	1	0.453701019287	None	None	None	None	1
1.7	2015_Jul_30_0912	s	s	14	4	SIC	469	RC	2	2	23VD	1	0	0.44163107872	125.0	-210.0	131	-217	1
1.7	2015_Jul_30_0912	s	s	14	4	SIC	470	ABS	0	2	24RD	0	1	1.61195111275	None	None	None	None	1
1.7	2015_Jul_30_0912	s	s	14	4	SIC	471	RC	1	0	23MC	1	0	1.34124493599	28.0	-37.0	37	-35	1
1.7	2015_Jul_30_0912	s	s	14	4	SIC	472	RC	1	1	23MO	1	0	0.665396928787	-304.0	-338.0	-303	-336	1
1.7	2015_Jul_30_0912	s	s	14	4	SIC	473	RC	1	2	23MD	1	0	0.715124845505	393.0	348.0	401	355	1
1.7	2015_Jul_30_0912	s	s	14	4	SIC	474	RC	2	1	23VO	1	0	0.441745996475	-255.0	322.0	-260	331	1
1.7	2015_Jul_30_0912	s	s	14	4	SIC	475	ABS	2	1	24VO	0	1	0.455931901932	None	None	None	None	1
1.7	2015_Jul_30_0912	s	s	14	4	SIC	476	RC	0	1	23RO	1	0	2.70663905144	396.0	-9.0	397	-8	1
1.7	2015_Jul_30_0912	s	s	14	4	SIC	477	ABS	1	0	24MC	0	1	2.1335310936	None	None	None	None	1
1.7	2015_Jul_30_0912	s	s	14	4	SIC	478	ABS	1	1	24MO	0	1	2.45408415794	None	None	None	None	1
1.7	2015_Jul_30_0912	s	s	14	4	SIC	479	ABS	0	1	24RO	0	1	3.15143299103	None	None	None	None	1
1.7	2015_Jul_30_0912	s	s	14	4	SIC	480	RC	2	0	23VC	1	0	0.561329841614	-267.0	-261.0	-261	-270	1
1.7	2015_Jul_30_0912	s	s	14	4	SIC	481	ABS	2	0	24VC	0	1	0.513671875	None	None	None	None	1
1.7	2015_Jul_30_0912	s	s	14	4	SIC	482	ABS	1	2	24MD	0	1	0.740879058838	None	None	None	None	1
1.7	2015_Jul_30_0912	s	s	14	4	SIC	483	ABS	1	1	24MO	0	1	1.70266199112	None	None	None	None	1
1.7	2015_Jul_30_0912	s	s	14	4	SIC	484	ABS	0	1	24RO	0	1	1.78269290924	None	None	None	None	1
1.7	2015_Jul_30_0912	s	s	14	4	SIC	485	RC	2	1	23VO	1	0	0.528989076614	455.0	-127.0	459	-136	1
1.7	2015_Jul_30_0912	s	s	14	4	SIC	486	RC	2	0	23VC	1	0	0.399607896805	94.0	-78.0	93	-71	1
1.7	2015_Jul_30_0912	s	s	14	4	SIC	487	RC	0	1	23RO	0	1	3.61914205551	-2.0	-297.0	None	None	0
1.7	2015_Jul_30_0912	s	s	14	4	SIC	488	RC	1	1	23MO	1	0	2.3866288662	-220.0	211.0	-222	208	1
1.7	2015_Jul_30_0912	s	s	14	4	SIC	489	RC	0	2	23RD	1	0	0.50223493576	375.0	-164.0	384	-160	1
1.7	2015_Jul_30_0912	s	s	14	4	SIC	490	RC	1	2	23MD	1	0	0.442893981934	-343.0	228.0	-344	224	1
1.7	2015_Jul_30_0912	s	s	14	4	SIC	491	ABS	2	2	24VD	0	1	0.823192834854	None	None	None	None	1
1.7	2015_Jul_30_0912	s	s	14	4	SIC	492	RC	1	0	23MC	1	0	0.691644191742	27.0	-79.0	25	-75	1
1.7	2015_Jul_30_0912	s	s	14	4	SIC	493	ABS	0	2	24RD	0	1	1.02985095978	None	None	None	None	1
1.7	2015_Jul_30_0912	s	s	14	4	SIC	494	ABS	2	1	24VO	0	1	0.605643033981	None	None	None	None	1
1.7	2015_Jul_30_0912	s	s	14	4	SIC	495	RC	2	2	23VD	1	0	0.481941223145	-409.0	-265.0	-411	-270	1
1.7	2015_Jul_30_0912	s	s	14	4	SIC	496	ABS	1	0	24MC	0	1	3.71888804436	None	None	None	None	1
1.7	2015_Jul_30_0912	s	s	14	4	SIC	497	RC	1	1	23MO	1	0	2.88051915169	289.0	321.0	291	323	1
1.7	2015_Jul_30_0912	s	s	14	4	SIC	498	ABS	1	1	24MO	0	1	1.67662405968	None	None	None	None	1
1.7	2015_Jul_30_0912	s	s	14	4	SIC	499	RC	1	2	23MD	1	0	0.538146972656	222.0	287.0	217	282	1
1.7	2015_Jul_30_0912	s	s	14	4	SIC	500	ABS	1	0	24MC	0	1	3.13979101181	None	None	None	None	1
1.7	2015_Jul_30_0912	s	s	14	4	SIC	501	RC	0	1	23RO	0	1	3.02437019348	-455.0	189.0	None	None	0
1.7	2015_Jul_30_0912	s	s	14	4	SIC	502	RC	2	0	23VC	1	0	0.441396951675	174.0	-4.0	169	-3	1
1.7	2015_Jul_30_0912	s	s	14	4	SIC	503	ABS	0	2	24RD	0	1	0.593914985657	None	None	None	None	1
1.7	2015_Jul_30_0912	s	s	14	4	SIC	504	ABS	1	2	24MD	0	1	0.634897947311	None	None	None	None	1
1.7	2015_Jul_30_0912	s	s	14	4	SIC	505	RC	1	0	23MC	1	0	4.83375191689	45.0	-225.0	53	-223	1
1.7	2015_Jul_30_0912	s	s	14	4	SIC	506	RC	0	2	23RD	1	0	0.535749197006	496.0	46.0	501	42	1
1.7	2015_Jul_30_0912	s	s	14	4	SIC	507	ABS	2	1	24VO	0	1	0.479228019714	None	None	None	None	1
1.7	2015_Jul_30_0912	s	s	14	4	SIC	508	RC	2	1	23VO	1	0	0.479556083679	493.0	56.0	485	61	1
1.7	2015_Jul_30_0912	s	s	14	4	SIC	509	RC	2	2	23VD	1	0	0.446674108505	278.0	-219.0	270	-218	1
1.7	2015_Jul_30_0912	s	s	14	4	SIC	510	ABS	2	2	24VD	0	1	0.497281074524	None	None	None	None	1
1.7	2015_Jul_30_0912	s	s	14	4	SIC	511	ABS	2	0	24VC	0	1	0.481955051422	None	None	None	None	1
1.7	2015_Jul_30_0912	s	s	14	4	SIC	512	ABS	0	1	24RO	0	1	3.93085002899	None	None	None	None	1
1.7	2015_Jul_30_0912	s	s	14	4	SIC	513	ABS	1	1	24MO	0	1	3.04797196388	None	None	None	None	1
1.7	2015_Jul_30_0912	s	s	14	4	SIC	514	RC	2	1	23VO	1	0	0.470596075058	21.0	-86.0	31	-87	1
1.7	2015_Jul_30_0912	s	s	14	4	SIC	515	ABS	2	0	24VC	0	1	0.548212051392	None	None	None	None	1
1.7	2015_Jul_30_0912	s	s	14	4	SIC	516	ABS	1	2	24MD	0	1	0.611445903778	None	None	None	None	1
1.7	2015_Jul_30_0912	s	s	14	4	SIC	517	RC	2	2	23VD	1	0	0.420521020889	274.0	119.0	272	118	1
1.7	2015_Jul_30_0912	s	s	14	4	SIC	518	RC	1	1	23MO	1	0	0.947725772858	537.0	171.0	542	172	1
1.7	2015_Jul_30_0912	s	s	14	4	SIC	519	ABS	2	2	24VD	1	0	0.513601064682	None	None	16	44	0
1.7	2015_Jul_30_0912	s	s	14	4	SIC	520	ABS	1	0	24MC	0	1	3.28335690498	None	None	None	None	1
1.7	2015_Jul_30_0912	s	s	14	4	SIC	521	RC	0	2	23RD	1	0	0.819906949997	379.0	-293.0	384	-297	1
1.7	2015_Jul_30_0912	s	s	14	4	SIC	522	RC	0	1	23RO	0	1	3.52777504921	-9.0	-142.0	None	None	0
1.7	2015_Jul_30_0912	s	s	14	4	SIC	523	ABS	0	2	24RD	0	1	0.653916120529	None	None	None	None	1
1.7	2015_Jul_30_0912	s	s	14	4	SIC	524	ABS	2	1	24VO	0	1	0.434845924377	None	None	None	None	1
1.7	2015_Jul_30_0912	s	s	14	4	SIC	525	RC	1	0	23MC	1	0	1.1025788784	-49.0	228.0	-47	237	1
1.7	2015_Jul_30_0912	s	s	14	4	SIC	526	RC	2	0	23VC	0	1	0.569725036621	472.0	213.0	None	None	0
1.7	2015_Jul_30_0912	s	s	14	4	SIC	527	ABS	0	1	24RO	0	1	3.59662294388	None	None	None	None	1
1.7	2015_Jul_30_0912	s	s	14	4	SIC	528	RC	1	2	23MD	1	0	0.548593997955	211.0	-412.0	199	-411	1
1.7	2015_Jul_30_0912	s	s	14	4	SIC	529	ABS	0	1	24RO	0	1	2.77301001549	None	None	None	None	1
1.7	2015_Jul_30_0912	s	s	14	4	SIC	530	ABS	1	1	24MO	0	1	2.32999491692	None	None	None	None	1
1.7	2015_Jul_30_0912	s	s	14	4	SIC	531	RC	0	2	23RD	1	0	0.41987991333	-130.0	12.0	-121	12	1
1.7	2015_Jul_30_0912	s	s	14	4	SIC	532	RC	2	0	23VC	1	0	0.938749790192	-481.0	-247.0	-480	-255	1
1.7	2015_Jul_30_0912	s	s	14	4	SIC	533	ABS	1	0	24MC	0	1	2.34173893929	None	None	None	None	1
1.7	2015_Jul_30_0912	s	s	14	4	SIC	534	ABS	0	2	24RD	0	1	0.702918052673	None	None	None	None	1
1.7	2015_Jul_30_0912	s	s	14	4	SIC	535	ABS	2	2	24VD	0	1	0.597007036209	None	None	None	None	1
1.7	2015_Jul_30_0912	s	s	14	4	SIC	536	ABS	2	1	24VO	0	1	0.44171500206	None	None	None	None	1
1.7	2015_Jul_30_0912	s	s	14	4	SIC	537	RC	1	0	23MC	1	0	0.466611862183	-164.0	40.0	-159	30	1
1.7	2015_Jul_30_0912	s	s	14	4	SIC	538	RC	2	2	23VD	1	0	0.54803109169	504.0	209.0	514	207	1
1.7	2015_Jul_30_0912	s	s	14	4	SIC	539	ABS	2	0	24VC	0	1	0.470087051392	None	None	None	None	1
1.7	2015_Jul_30_0912	s	s	14	4	SIC	540	RC	2	1	23VO	1	0	0.429646015167	171.0	320.0	173	307	1
1.7	2015_Jul_30_0912	s	s	14	4	SIC	541	ABS	1	2	24MD	0	1	0.752734184265	None	None	None	None	1
1.7	2015_Jul_30_0912	s	s	14	4	SIC	542	RC	1	1	23MO	0	1	1.042304039	301.0	-379.0	None	None	0
1.7	2015_Jul_30_0912	s	s	14	4	SIC	543	RC	0	1	23RO	1	0	0.736506938934	244.0	24.0	244	22	1
1.7	2015_Jul_30_0912	s	s	14	4	SIC	544	RC	1	2	23MD	1	0	0.455472946167	-137.0	276.0	-131	282	1
1.7	2015_Jul_30_0912	s	s	14	4	SIC	545	ABS	0	1	24RO	0	1	2.89489388466	None	None	None	None	1
1.7	2015_Jul_30_0912	s	s	14	4	SIC	546	RC	2	1	23VO	1	0	0.550259113312	494.0	-348.0	503	-352	1
1.7	2015_Jul_30_0912	s	s	14	4	SIC	547	ABS	2	0	24VC	0	1	0.638674020767	None	None	None	None	1
1.7	2015_Jul_30_0912	s	s	14	4	SIC	548	RC	1	1	23MO	1	0	0.78810095787	105.0	-49.0	96	-51	1
1.7	2015_Jul_30_0912	s	s	14	4	SIC	549	ABS	1	2	24MD	0	1	0.534945011139	None	None	None	None	1
1.7	2015_Jul_30_0912	s	s	14	4	SIC	550	RC	0	1	23RO	1	0	0.538009166718	-210.0	83.0	-212	78	1
1.7	2015_Jul_30_0912	s	s	14	4	SIC	551	RC	1	0	23MC	0	1	3.66836094856	38.0	-233.0	None	None	0
1.7	2015_Jul_30_0912	s	s	14	4	SIC	552	ABS	2	1	24VO	0	1	1.56853318214	None	None	None	None	1
1.7	2015_Jul_30_0912	s	s	14	4	SIC	553	RC	1	2	23MD	0	1	0.411305904388	-51.0	62.0	None	None	0
1.7	2015_Jul_30_0912	s	s	14	4	SIC	554	RC	2	0	23VC	1	0	0.39522600174	-93.0	-78.0	-85	-72	1
1.7	2015_Jul_30_0912	s	s	14	4	SIC	555	RC	0	2	23RD	1	0	0.547766923904	427.0	-208.0	432	-210	1
1.7	2015_Jul_30_0912	s	s	14	4	SIC	556	RC	2	2	23VD	1	0	0.481912136078	-326.0	-268.0	-323	-272	1
1.7	2015_Jul_30_0912	s	s	14	4	SIC	557	ABS	1	1	24MO	0	1	2.48289203644	None	None	None	None	1
1.7	2015_Jul_30_0912	s	s	14	4	SIC	558	ABS	0	2	24RD	1	0	0.705504894257	None	None	6	125	0
1.7	2015_Jul_30_0912	s	s	14	4	SIC	559	ABS	1	0	24MC	0	1	3.7611310482	None	None	None	None	1
1.7	2015_Jul_30_0912	s	s	14	4	SIC	560	ABS	2	2	24VD	0	1	0.61149096489	None	None	None	None	1
1.7	2015_Jul_30_0912	s	s	14	4	SIC	561	RC	0	1	23RO	1	0	2.25484204292	159.0	-129.0	159	-129	1
1.7	2015_Jul_30_0912	s	s	14	4	SIC	562	RC	1	2	23MD	1	0	0.455441951752	-203.0	-72.0	-202	-62	1
1.7	2015_Jul_30_0912	s	s	14	4	SIC	563	ABS	2	1	24VO	0	1	1.05882406235	None	None	None	None	1
1.7	2015_Jul_30_0912	s	s	14	4	SIC	564	ABS	1	2	24MD	0	1	0.656136989594	None	None	None	None	1
1.7	2015_Jul_30_0912	s	s	14	4	SIC	565	RC	2	1	23VO	0	1	0.466699838638	495.0	-321.0	None	None	0
1.7	2015_Jul_30_0912	s	s	14	4	SIC	566	ABS	0	1	24RO	0	1	3.78966093063	None	None	None	None	1
1.7	2015_Jul_30_0912	s	s	14	4	SIC	567	ABS	1	0	24MC	0	1	3.40142917633	None	None	None	None	1
1.7	2015_Jul_30_0912	s	s	14	4	SIC	568	RC	0	2	23RD	1	0	0.564447879791	-322.0	51.0	-334	55	1
1.7	2015_Jul_30_0912	s	s	14	4	SIC	569	RC	1	0	23MC	1	0	1.15288805962	-71.0	-74.0	-59	-72	1
1.7	2015_Jul_30_0912	s	s	14	4	SIC	570	RC	2	2	23VD	1	0	0.59698009491	-287.0	-243.0	-294	-244	1
1.7	2015_Jul_30_0912	s	s	14	4	SIC	571	ABS	2	0	24VC	0	1	0.548753976822	None	None	None	None	1
1.7	2015_Jul_30_0912	s	s	14	4	SIC	572	RC	1	1	23MO	1	0	5.93178296089	277.0	131.0	287	133	1
1.7	2015_Jul_30_0912	s	s	14	4	SIC	573	ABS	1	1	24MO	0	1	5.64915299416	None	None	None	None	1
1.7	2015_Jul_30_0912	s	s	14	4	SIC	574	RC	2	0	23VC	1	0	0.713800907135	-36.0	-223.0	-32	-222	1
1.7	2015_Jul_30_0912	s	s	14	4	SIC	575	ABS	0	2	24RD	0	1	0.670234203339	None	None	None	None	1
1.7	2015_Jul_30_0912	s	s	14	4	SIC	576	ABS	2	2	24VD	0	1	0.49934887886	None	None	None	None	1
1.7	2015_Jul_30_0912	s	s	14	4	SIC	577	ABS	2	1	24VO	0	1	0.53829407692	None	None	None	None	1
1.7	2015_Jul_30_0912	s	s	14	4	SIC	578	ABS	1	2	24MD	0	1	0.635010004044	None	None	None	None	1
1.7	2015_Jul_30_0912	s	s	14	4	SIC	579	RC	0	2	23RD	1	0	0.552576065063	-204.0	191.0	-205	193	1
1.7	2015_Jul_30_0912	s	s	14	4	SIC	580	ABS	2	0	24VC	0	1	0.454643964767	None	None	None	None	1
1.7	2015_Jul_30_0912	s	s	14	4	SIC	581	RC	2	2	23VD	1	0	0.666676044464	-465.0	-154.0	-471	-152	1
1.7	2015_Jul_30_0912	s	s	14	4	SIC	582	ABS	1	0	24MC	0	1	4.02011489868	None	None	None	None	1
1.7	2015_Jul_30_0912	s	s	14	4	SIC	583	RC	2	1	23VO	1	0	0.464928865433	-12.0	-93.0	-12	-102	1
1.7	2015_Jul_30_0912	s	s	14	4	SIC	584	ABS	0	2	24RD	0	1	0.584253072739	None	None	None	None	1
1.7	2015_Jul_30_0912	s	s	14	4	SIC	585	ABS	2	2	24VD	0	1	0.514630079269	None	None	None	None	1
1.7	2015_Jul_30_0912	s	s	14	4	SIC	586	ABS	1	1	24MO	0	1	2.95384812355	None	None	None	None	1
1.7	2015_Jul_30_0912	s	s	14	4	SIC	587	ABS	0	1	24RO	0	1	4.18728303909	None	None	None	None	1
1.7	2015_Jul_30_0912	s	s	14	4	SIC	588	RC	2	0	23VC	1	0	0.465111017227	-536.0	411.0	-526	411	1
1.7	2015_Jul_30_0912	s	s	14	4	SIC	589	RC	1	1	23MO	1	0	1.90117406845	-519.0	-248.0	-511	-254	1
1.7	2015_Jul_30_0912	s	s	14	4	SIC	590	RC	1	0	23MC	1	0	1.08212614059	-498.0	-331.0	-498	-336	1
1.7	2015_Jul_30_0912	s	s	14	4	SIC	591	RC	1	2	23MD	1	0	0.691174030304	129.0	360.0	136	363	1
1.7	2015_Jul_30_0912	s	s	14	4	SIC	592	RC	0	1	23RO	1	0	3.89547204971	-7.0	-42.0	-6	-50	1
