Version	Date	Stimuli	Method	Subject	Session	Condition	Trial	Target	Channel1	Channel2	Distractors	LMouseButton	RMouseButton	RT	TargetX	TargetY	ResponseX	ResponseY	Correct
1.7	2015_Jul_30_1414	s	s	15	4	Capacity	1	RC	2	0	23VC	0	1	0.253523111343	-87.0	186.0	None	None	0
1.7	2015_Jul_30_1414	s	s	15	4	Capacity	2	ABS	2	0	24VC	0	1	0.787981033325	None	None	None	None	1
1.7	2015_Jul_30_1414	s	s	15	4	Capacity	3	RC	1	0	23MC	1	0	1.54981207848	455.0	164.0	464	162	1
1.7	2015_Jul_30_1414	s	s	15	4	Capacity	4	ABS	1	0	24MC	0	1	1.45892691612	None	None	None	None	1
1.7	2015_Jul_30_1414	s	s	15	4	Capacity	5	ABS	2	0	24VC	0	1	0.701329946518	None	None	None	None	1
1.7	2015_Jul_30_1414	s	s	15	4	Capacity	6	ABS	1	0	24MC	0	1	2.02763295174	None	None	None	None	1
1.7	2015_Jul_30_1414	s	s	15	4	Capacity	7	RC	2	0	23VC	1	0	0.717377901077	-137.0	-186.0	-132	-188	1
1.7	2015_Jul_30_1414	s	s	15	4	Capacity	8	RC	1	0	23MC	0	1	3.23625206947	-81.0	-130.0	None	None	0
1.7	2015_Jul_30_1414	s	s	15	4	Capacity	9	ABS	1	0	24MC	0	1	0.841339111328	None	None	None	None	1
1.7	2015_Jul_30_1414	s	s	15	4	Capacity	10	RC	2	0	23VC	1	0	0.55001783371	-472.0	384.0	-471	376	1
1.7	2015_Jul_30_1414	s	s	15	4	Capacity	11	ABS	2	0	24VC	0	1	3.14880490303	None	None	None	None	1
1.7	2015_Jul_30_1414	s	s	15	4	Capacity	12	RC	1	0	23MC	0	1	0.726558923721	-198.0	331.0	None	None	0
1.7	2015_Jul_30_1414	s	s	15	4	Capacity	13	RC	2	0	23VC	1	0	0.547525882721	352.0	-41.0	342	-42	1
1.7	2015_Jul_30_1414	s	s	15	4	Capacity	14	ABS	2	0	24VC	0	1	0.796231031418	None	None	None	None	1
1.7	2015_Jul_30_1414	s	s	15	4	Capacity	15	ABS	1	0	24MC	0	1	1.64230203629	None	None	None	None	1
1.7	2015_Jul_30_1414	s	s	15	4	Capacity	16	RC	1	0	23MC	0	1	1.34785485268	-324.0	-213.0	None	None	0
1.7	2015_Jul_30_1414	s	s	15	4	Capacity	17	ABS	1	0	24MC	0	1	1.34126615524	None	None	None	None	1
1.7	2015_Jul_30_1414	s	s	15	4	Capacity	18	RC	2	0	23VC	1	0	0.523936033249	-48.0	409.0	-44	410	1
1.7	2015_Jul_30_1414	s	s	15	4	Capacity	19	ABS	2	0	24VC	0	1	1.15976905823	None	None	None	None	1
1.7	2015_Jul_30_1414	s	s	15	4	Capacity	20	RC	1	0	23MC	1	0	1.48913598061	532.0	397.0	535	399	1
1.7	2015_Jul_30_1414	s	s	15	4	Capacity	21	RC	1	0	23MC	1	0	0.917476177216	-403.0	126.0	-396	120	1
1.7	2015_Jul_30_1414	s	s	15	4	Capacity	22	RC	2	0	23VC	1	0	0.42304110527	25.0	-94.0	36	-88	1
1.7	2015_Jul_30_1414	s	s	15	4	Capacity	23	ABS	2	0	24VC	0	1	0.679752111435	None	None	None	None	1
1.7	2015_Jul_30_1414	s	s	15	4	Capacity	24	ABS	1	0	24MC	0	1	2.94874501228	None	None	None	None	1
1.7	2015_Jul_30_1414	s	s	15	4	Capacity	25	RC	2	0	23VC	1	0	0.453356027603	360.0	-8.0	358	-5	1
1.7	2015_Jul_30_1414	s	s	15	4	Capacity	26	ABS	2	0	24VC	0	1	0.617089986801	None	None	None	None	1
1.7	2015_Jul_30_1414	s	s	15	4	Capacity	27	RC	1	0	23MC	1	0	1.69431805611	-364.0	-299.0	-362	-302	1
1.7	2015_Jul_30_1414	s	s	15	4	Capacity	28	ABS	1	0	24MC	0	1	5.40906095505	None	None	None	None	1
1.7	2015_Jul_30_1414	s	s	15	4	Capacity	29	RC	2	0	23VC	1	0	0.502586841583	-533.0	155.0	-529	157	1
1.7	2015_Jul_30_1414	s	s	15	4	Capacity	30	ABS	2	0	24VC	0	1	0.874083042145	None	None	None	None	1
1.7	2015_Jul_30_1414	s	s	15	4	Capacity	31	RC	1	0	23MC	1	0	1.12932300568	375.0	-266.0	377	-263	1
1.7	2015_Jul_30_1414	s	s	15	4	Capacity	32	ABS	1	0	24MC	0	1	1.28915691376	None	None	None	None	1
1.7	2015_Jul_30_1414	s	s	15	4	Capacity	33	ABS	2	0	24VC	0	1	0.658459186554	None	None	None	None	1
1.7	2015_Jul_30_1414	s	s	15	4	Capacity	34	ABS	1	0	24MC	0	1	2.57714390755	None	None	None	None	1
1.7	2015_Jul_30_1414	s	s	15	4	Capacity	35	RC	1	0	23MC	1	0	4.03175997734	-261.0	202.0	-252	199	1
1.7	2015_Jul_30_1414	s	s	15	4	Capacity	36	RC	2	0	23VC	1	0	0.594299077988	-445.0	-318.0	-438	-323	1
1.7	2015_Jul_30_1414	s	s	15	4	Capacity	37	ABS	2	0	24VC	0	1	0.607609987259	None	None	None	None	1
1.7	2015_Jul_30_1414	s	s	15	4	Capacity	38	RC	2	0	23VC	1	0	0.505463838577	366.0	161.0	361	154	1
1.7	2015_Jul_30_1414	s	s	15	4	Capacity	39	ABS	1	0	24MC	0	1	2.22393512726	None	None	None	None	1
1.7	2015_Jul_30_1414	s	s	15	4	Capacity	40	RC	1	0	23MC	0	1	0.877161026001	-420.0	-359.0	None	None	0
1.7	2015_Jul_30_1414	s	s	15	4	Capacity	41	ABS	1	0	24MC	0	1	0.771218061447	None	None	None	None	1
1.7	2015_Jul_30_1414	s	s	15	4	Capacity	42	RC	2	0	23VC	1	0	0.458359956741	-5.0	290.0	-7	281	1
1.7	2015_Jul_30_1414	s	s	15	4	Capacity	43	ABS	2	0	24VC	0	1	0.823325872421	None	None	None	None	1
1.7	2015_Jul_30_1414	s	s	15	4	Capacity	44	RC	1	0	23MC	1	0	0.984853029251	-457.0	390.0	-451	394	1
1.7	2015_Jul_30_1414	s	s	15	4	Capacity	45	ABS	2	0	24VC	0	1	2.84519410133	None	None	None	None	1
1.7	2015_Jul_30_1414	s	s	15	4	Capacity	46	RC	1	0	23MC	1	0	2.07879281044	-485.0	-365.0	-492	-365	1
1.7	2015_Jul_30_1414	s	s	15	4	Capacity	47	ABS	1	0	24MC	0	1	0.750075817108	None	None	None	None	1
1.7	2015_Jul_30_1414	s	s	15	4	Capacity	48	RC	2	0	23VC	1	0	0.446650981903	84.0	396.0	93	394	1
1.7	2015_Jul_30_1414	s	s	15	4	Capacity	49	RC	2	0	23VC	1	0	0.434961080551	-203.0	37.0	-195	31	1
1.7	2015_Jul_30_1414	s	s	15	4	Capacity	50	ABS	1	0	24MC	0	1	1.31760001183	None	None	None	None	1
1.7	2015_Jul_30_1414	s	s	15	4	Capacity	51	ABS	2	0	24VC	0	1	0.547514915466	None	None	None	None	1
1.7	2015_Jul_30_1414	s	s	15	4	Capacity	52	RC	1	0	23MC	1	0	1.20001411438	-497.0	410.0	-490	413	1
1.7	2015_Jul_30_1414	s	s	15	4	Capacity	53	ABS	2	0	24VC	0	1	0.615513086319	None	None	None	None	1
1.7	2015_Jul_30_1414	s	s	15	4	Capacity	54	ABS	1	0	24MC	0	1	2.14160490036	None	None	None	None	1
1.7	2015_Jul_30_1414	s	s	15	4	Capacity	55	RC	1	0	23MC	1	0	0.582448959351	-507.0	398.0	-509	401	1
1.7	2015_Jul_30_1414	s	s	15	4	Capacity	56	RC	2	0	23VC	1	0	0.418129920959	73.0	-98.0	80	-100	1
1.7	2015_Jul_30_1414	s	s	15	4	Capacity	57	RC	1	0	23MC	1	0	0.725206136703	248.0	-10.0	256	-9	1
1.7	2015_Jul_30_1414	s	s	15	4	Capacity	58	RC	2	0	23VC	1	0	0.434924840927	-226.0	-138.0	-226	-133	1
1.7	2015_Jul_30_1414	s	s	15	4	Capacity	59	ABS	2	0	24VC	0	1	1.82375192642	None	None	None	None	1
1.7	2015_Jul_30_1414	s	s	15	4	Capacity	60	ABS	1	0	24MC	0	1	1.46588110924	None	None	None	None	1
1.7	2015_Jul_30_1414	s	s	15	4	Capacity	61	RC	1	0	23MC	1	0	0.841871023178	-529.0	-109.0	-523	-112	1
1.7	2015_Jul_30_1414	s	s	15	4	Capacity	62	ABS	1	0	24MC	0	1	1.77203798294	None	None	None	None	1
1.7	2015_Jul_30_1414	s	s	15	4	Capacity	63	RC	2	0	23VC	1	0	0.418018817902	103.0	-12.0	97	-10	1
1.7	2015_Jul_30_1414	s	s	15	4	Capacity	64	ABS	2	0	24VC	0	1	0.570920944214	None	None	None	None	1
1.7	2015_Jul_30_1414	s	s	15	4	Capacity	65	ABS	1	0	24MC	0	1	2.17365407944	None	None	None	None	1
1.7	2015_Jul_30_1414	s	s	15	4	Capacity	66	ABS	2	0	24VC	0	1	0.900646924973	None	None	None	None	1
1.7	2015_Jul_30_1414	s	s	15	4	Capacity	67	RC	2	0	23VC	1	0	0.429780006409	227.0	28.0	226	33	1
1.7	2015_Jul_30_1414	s	s	15	4	Capacity	68	RC	1	0	23MC	1	0	0.713848114014	-297.0	-106.0	-297	-101	1
1.7	2015_Jul_30_1414	s	s	15	4	Capacity	69	RC	1	0	23MC	1	0	0.665292024612	139.0	-124.0	132	-126	1
1.7	2015_Jul_30_1414	s	s	15	4	Capacity	70	RC	2	0	23VC	1	0	0.419686079025	521.0	-10.0	519	-14	1
1.7	2015_Jul_30_1414	s	s	15	4	Capacity	71	ABS	2	0	24VC	0	1	0.493623018265	None	None	None	None	1
1.7	2015_Jul_30_1414	s	s	15	4	Capacity	72	ABS	1	0	24MC	0	1	1.05874800682	None	None	None	None	1
1.7	2015_Jul_30_1414	s	s	15	4	Capacity	73	ABS	1	0	24MC	1	0	0.964534044266	None	None	17	-45	0
1.7	2015_Jul_30_1414	s	s	15	4	Capacity	74	RC	1	0	23MC	1	0	0.999797105789	193.0	-398.0	196	-401	1
1.7	2015_Jul_30_1414	s	s	15	4	Capacity	75	ABS	2	0	24VC	0	1	0.655936002731	None	None	None	None	1
1.7	2015_Jul_30_1414	s	s	15	4	Capacity	76	RC	2	0	23VC	1	0	0.481967926025	75.0	-274.0	77	-271	1
1.7	2015_Jul_30_1414	s	s	15	4	Capacity	77	RC	1	0	23MC	1	0	0.876622200012	-400.0	-100.0	-400	-101	1
1.7	2015_Jul_30_1414	s	s	15	4	Capacity	78	ABS	1	0	24MC	0	1	0.79422712326	None	None	None	None	1
1.7	2015_Jul_30_1414	s	s	15	4	Capacity	79	RC	2	0	23VC	1	0	0.387630939484	-418.0	-58.0	-422	-65	1
1.7	2015_Jul_30_1414	s	s	15	4	Capacity	80	ABS	2	0	24VC	0	1	0.632436990738	None	None	None	None	1
1.7	2015_Jul_30_1414	s	s	15	4	Capacity	81	RC	2	0	23VC	1	0	0.420505046844	496.0	-15.0	491	-19	1
1.7	2015_Jul_30_1414	s	s	15	4	Capacity	82	ABS	2	0	24VC	0	1	0.830075979233	None	None	None	None	1
1.7	2015_Jul_30_1414	s	s	15	4	Capacity	83	ABS	1	0	24MC	0	1	0.961758852005	None	None	None	None	1
1.7	2015_Jul_30_1414	s	s	15	4	Capacity	84	RC	1	0	23MC	1	0	0.67696595192	384.0	-299.0	381	-302	1
1.7	2015_Jul_30_1414	s	s	15	4	Capacity	85	ABS	2	0	24VC	0	1	0.61140203476	None	None	None	None	1
1.7	2015_Jul_30_1414	s	s	15	4	Capacity	86	ABS	1	0	24MC	0	1	1.03512406349	None	None	None	None	1
1.7	2015_Jul_30_1414	s	s	15	4	Capacity	87	RC	2	0	23VC	1	0	0.396301031113	-522.0	-62.0	-521	-58	1
1.7	2015_Jul_30_1414	s	s	15	4	Capacity	88	RC	1	0	23MC	1	0	0.592566013336	280.0	-139.0	284	-136	1
1.7	2015_Jul_30_1414	s	s	15	4	Capacity	89	RC	1	0	23MC	1	0	0.941029071808	101.0	396.0	107	391	1
1.7	2015_Jul_30_1414	s	s	15	4	Capacity	90	ABS	1	0	24MC	0	1	2.18865799904	None	None	None	None	1
1.7	2015_Jul_30_1414	s	s	15	4	Capacity	91	RC	2	0	23VC	1	0	0.406378030777	-242.0	154.0	-242	153	1
1.7	2015_Jul_30_1414	s	s	15	4	Capacity	92	ABS	2	0	24VC	0	1	0.853743076324	None	None	None	None	1
1.7	2015_Jul_30_1414	s	s	15	4	Capacity	1	ABS	0	1	24RO	0	1	4.58987283707	None	None	None	None	1
1.7	2015_Jul_30_1414	s	s	15	4	Capacity	2	RC	0	2	23RD	1	0	0.995933055878	27.0	333.0	37	337	1
1.7	2015_Jul_30_1414	s	s	15	4	Capacity	3	RC	0	1	23RO	0	1	2.23036289215	315.0	-165.0	None	None	0
1.7	2015_Jul_30_1414	s	s	15	4	Capacity	4	ABS	0	2	24RD	0	1	1.17645192146	None	None	None	None	1
1.7	2015_Jul_30_1414	s	s	15	4	Capacity	5	RC	0	2	23RD	1	0	1.15986990929	503.0	-270.0	512	-270	1
1.7	2015_Jul_30_1414	s	s	15	4	Capacity	6	ABS	0	2	24RD	0	1	0.832343101501	None	None	None	None	1
1.7	2015_Jul_30_1414	s	s	15	4	Capacity	7	ABS	0	1	24RO	0	1	3.02446293831	None	None	None	None	1
1.7	2015_Jul_30_1414	s	s	15	4	Capacity	8	RC	0	1	23RO	0	1	1.60023808479	17.0	374.0	None	None	0
1.7	2015_Jul_30_1414	s	s	15	4	Capacity	9	RC	0	2	23RD	1	0	0.470102071762	19.0	-107.0	17	-111	1
1.7	2015_Jul_30_1414	s	s	15	4	Capacity	10	ABS	0	1	24RO	0	1	2.5726621151	None	None	None	None	1
1.7	2015_Jul_30_1414	s	s	15	4	Capacity	11	RC	0	1	23RO	0	1	1.96193194389	388.0	38.0	None	None	0
1.7	2015_Jul_30_1414	s	s	15	4	Capacity	12	ABS	0	2	24RD	0	1	0.741189956665	None	None	None	None	1
1.7	2015_Jul_30_1414	s	s	15	4	Capacity	13	RC	0	2	23RD	1	0	0.481971025467	-231.0	-220.0	-222	-214	1
1.7	2015_Jul_30_1414	s	s	15	4	Capacity	14	ABS	0	2	24RD	0	1	0.94087100029	None	None	None	None	1
1.7	2015_Jul_30_1414	s	s	15	4	Capacity	15	RC	0	1	23RO	1	0	1.42355298996	288.0	-210.0	294	-209	1
1.7	2015_Jul_30_1414	s	s	15	4	Capacity	16	ABS	0	1	24RO	0	1	2.55728387833	None	None	None	None	1
1.7	2015_Jul_30_1414	s	s	15	4	Capacity	17	ABS	0	1	24RO	0	1	2.52419805527	None	None	None	None	1
1.7	2015_Jul_30_1414	s	s	15	4	Capacity	18	RC	0	1	23RO	0	1	2.11311507225	537.0	-221.0	None	None	0
1.7	2015_Jul_30_1414	s	s	15	4	Capacity	19	RC	0	2	23RD	1	0	0.47918510437	116.0	-255.0	121	-256	1
1.7	2015_Jul_30_1414	s	s	15	4	Capacity	20	ABS	0	2	24RD	0	1	0.841989994049	None	None	None	None	1
1.7	2015_Jul_30_1414	s	s	15	4	Capacity	21	RC	0	2	23RD	1	0	0.411361932755	-225.0	-53.0	-227	-56	1
1.7	2015_Jul_30_1414	s	s	15	4	Capacity	22	RC	0	1	23RO	0	1	1.85398387909	297.0	-120.0	None	None	0
1.7	2015_Jul_30_1414	s	s	15	4	Capacity	23	ABS	0	2	24RD	0	1	0.693758010864	None	None	None	None	1
1.7	2015_Jul_30_1414	s	s	15	4	Capacity	24	ABS	0	1	24RO	0	1	2.46614789963	None	None	None	None	1
1.7	2015_Jul_30_1414	s	s	15	4	Capacity	25	ABS	0	1	24RO	0	1	1.09406113625	None	None	None	None	1
1.7	2015_Jul_30_1414	s	s	15	4	Capacity	26	RC	0	2	23RD	1	0	0.740910053253	-154.0	228.0	-152	226	1
1.7	2015_Jul_30_1414	s	s	15	4	Capacity	27	ABS	0	2	24RD	0	1	0.58788895607	None	None	None	None	1
1.7	2015_Jul_30_1414	s	s	15	4	Capacity	28	RC	0	1	23RO	1	0	0.552589893341	131.0	-20.0	138	-18	1
1.7	2015_Jul_30_1414	s	s	15	4	Capacity	29	RC	0	2	23RD	0	1	0.382864952087	110.0	-291.0	None	None	0
1.7	2015_Jul_30_1414	s	s	15	4	Capacity	30	ABS	0	1	24RO	0	1	2.93023514748	None	None	None	None	1
1.7	2015_Jul_30_1414	s	s	15	4	Capacity	31	ABS	0	2	24RD	0	1	0.799773931503	None	None	None	None	1
1.7	2015_Jul_30_1414	s	s	15	4	Capacity	32	RC	0	1	23RO	0	1	2.32996511459	-464.0	-100.0	None	None	0
1.7	2015_Jul_30_1414	s	s	15	4	Capacity	33	ABS	0	2	24RD	0	1	0.703126192093	None	None	None	None	1
1.7	2015_Jul_30_1414	s	s	15	4	Capacity	34	RC	0	1	23RO	1	0	4.33094882965	95.0	174.0	95	169	1
1.7	2015_Jul_30_1414	s	s	15	4	Capacity	35	RC	0	2	23RD	1	0	0.540733098984	-93.0	179.0	-94	173	1
1.7	2015_Jul_30_1414	s	s	15	4	Capacity	36	ABS	0	1	24RO	0	1	7.50434184074	None	None	None	None	1
1.7	2015_Jul_30_1414	s	s	15	4	Capacity	37	RC	0	2	23RD	1	0	0.717393159866	283.0	282.0	286	282	1
1.7	2015_Jul_30_1414	s	s	15	4	Capacity	38	ABS	0	1	24RO	0	1	2.17421317101	None	None	None	None	1
1.7	2015_Jul_30_1414	s	s	15	4	Capacity	39	ABS	0	2	24RD	0	1	0.717370986938	None	None	None	None	1
1.7	2015_Jul_30_1414	s	s	15	4	Capacity	40	RC	0	1	23RO	0	1	1.05869603157	-274.0	341.0	None	None	0
1.7	2015_Jul_30_1414	s	s	15	4	Capacity	41	ABS	0	2	24RD	0	1	0.62321305275	None	None	None	None	1
1.7	2015_Jul_30_1414	s	s	15	4	Capacity	42	RC	0	1	23RO	1	0	0.558787822723	175.0	-107.0	171	-100	1
1.7	2015_Jul_30_1414	s	s	15	4	Capacity	43	ABS	0	1	24RO	0	1	2.12428808212	None	None	None	None	1
1.7	2015_Jul_30_1414	s	s	15	4	Capacity	44	RC	0	2	23RD	1	0	0.458357095718	94.0	-117.0	94	-119	1
1.7	2015_Jul_30_1414	s	s	15	4	Capacity	45	ABS	0	1	24RO	0	1	2.94199705124	None	None	None	None	1
1.7	2015_Jul_30_1414	s	s	15	4	Capacity	46	RC	0	2	23RD	1	0	0.455760002136	424.0	-191.0	437	-186	1
1.7	2015_Jul_30_1414	s	s	15	4	Capacity	47	ABS	0	2	24RD	0	1	0.744598865509	None	None	None	None	1
1.7	2015_Jul_30_1414	s	s	15	4	Capacity	48	RC	0	1	23RO	1	0	0.74757194519	470.0	-50.0	472	-45	1
1.7	2015_Jul_30_1414	s	s	15	4	Capacity	49	ABS	0	1	24RO	0	1	3.28015112877	None	None	None	None	1
1.7	2015_Jul_30_1414	s	s	15	4	Capacity	50	ABS	0	2	24RD	0	1	1.18276190758	None	None	None	None	1
1.7	2015_Jul_30_1414	s	s	15	4	Capacity	51	RC	0	2	23RD	1	0	0.42981505394	79.0	-244.0	77	-243	1
1.7	2015_Jul_30_1414	s	s	15	4	Capacity	52	RC	0	1	23RO	1	0	1.36477804184	45.0	111.0	46	98	1
1.7	2015_Jul_30_1414	s	s	15	4	Capacity	53	RC	0	2	23RD	1	0	0.446630001068	187.0	-358.0	194	-349	1
1.7	2015_Jul_30_1414	s	s	15	4	Capacity	54	ABS	0	1	24RO	0	1	3.2665708065	None	None	None	None	1
1.7	2015_Jul_30_1414	s	s	15	4	Capacity	55	RC	0	1	23RO	1	0	1.22351193428	474.0	-204.0	473	-198	1
1.7	2015_Jul_30_1414	s	s	15	4	Capacity	56	ABS	0	2	24RD	0	1	0.782953023911	None	None	None	None	1
1.7	2015_Jul_30_1414	s	s	15	4	Capacity	57	RC	0	2	23RD	1	0	0.509150981903	214.0	204.0	217	194	1
1.7	2015_Jul_30_1414	s	s	15	4	Capacity	58	ABS	0	1	24RO	0	1	2.98909687996	None	None	None	None	1
1.7	2015_Jul_30_1414	s	s	15	4	Capacity	59	RC	0	1	23RO	1	0	0.500387907028	-30.0	-91.0	-29	-91	1
1.7	2015_Jul_30_1414	s	s	15	4	Capacity	60	ABS	0	2	24RD	0	1	0.729073047638	None	None	None	None	1
1.7	2015_Jul_30_1414	s	s	15	4	Capacity	61	ABS	0	1	24RO	0	1	2.5182390213	None	None	None	None	1
1.7	2015_Jul_30_1414	s	s	15	4	Capacity	62	ABS	0	2	24RD	0	1	0.536273956299	None	None	None	None	1
1.7	2015_Jul_30_1414	s	s	15	4	Capacity	63	RC	0	2	23RD	1	0	0.446664094925	299.0	142.0	302	136	1
1.7	2015_Jul_30_1414	s	s	15	4	Capacity	64	RC	0	1	23RO	1	0	2.28285908699	-263.0	-208.0	-256	-208	1
1.7	2015_Jul_30_1414	s	s	15	4	Capacity	65	RC	0	1	23RO	1	0	1.39631891251	314.0	290.0	320	286	1
1.7	2015_Jul_30_1414	s	s	15	4	Capacity	66	ABS	0	1	24RO	0	1	2.01903009415	None	None	None	None	1
1.7	2015_Jul_30_1414	s	s	15	4	Capacity	67	ABS	0	2	24RD	0	1	0.623178005219	None	None	None	None	1
1.7	2015_Jul_30_1414	s	s	15	4	Capacity	68	RC	0	2	23RD	1	0	0.478289842606	-15.0	119.0	-24	115	1
1.7	2015_Jul_30_1414	s	s	15	4	Capacity	69	ABS	0	2	24RD	0	1	0.58790397644	None	None	None	None	1
1.7	2015_Jul_30_1414	s	s	15	4	Capacity	70	ABS	0	1	24RO	0	1	1.30589103699	None	None	None	None	1
1.7	2015_Jul_30_1414	s	s	15	4	Capacity	71	RC	0	2	23RD	1	0	0.429965019226	249.0	-293.0	251	-289	1
1.7	2015_Jul_30_1414	s	s	15	4	Capacity	72	RC	0	1	23RO	1	0	1.03022885323	119.0	-367.0	129	-369	1
1.7	2015_Jul_30_1414	s	s	15	4	Capacity	73	RC	0	2	23RD	1	0	0.826967954636	-449.0	82.0	-450	75	1
1.7	2015_Jul_30_1414	s	s	15	4	Capacity	74	RC	0	1	23RO	1	0	1.85911989212	479.0	-344.0	481	-351	1
1.7	2015_Jul_30_1414	s	s	15	4	Capacity	75	ABS	0	1	24RO	0	1	2.31493806839	None	None	None	None	1
1.7	2015_Jul_30_1414	s	s	15	4	Capacity	76	ABS	0	2	24RD	0	1	0.618676900864	None	None	None	None	1
1.7	2015_Jul_30_1414	s	s	15	4	Capacity	77	RC	0	2	23RD	1	0	0.538172006607	457.0	157.0	457	150	1
1.7	2015_Jul_30_1414	s	s	15	4	Capacity	78	RC	0	1	23RO	1	0	0.905659914017	265.0	-376.0	265	-385	1
1.7	2015_Jul_30_1414	s	s	15	4	Capacity	79	ABS	0	2	24RD	0	1	0.535141944885	None	None	None	None	1
1.7	2015_Jul_30_1414	s	s	15	4	Capacity	80	ABS	0	1	24RO	0	1	1.40043902397	None	None	None	None	1
1.7	2015_Jul_30_1414	s	s	15	4	Capacity	81	ABS	0	1	24RO	0	1	2.77243494987	None	None	None	None	1
1.7	2015_Jul_30_1414	s	s	15	4	Capacity	82	RC	0	2	23RD	1	0	0.705987930298	-288.0	-396.0	-288	-395	1
1.7	2015_Jul_30_1414	s	s	15	4	Capacity	83	RC	0	1	23RO	0	1	2.57179093361	-529.0	-349.0	None	None	0
1.7	2015_Jul_30_1414	s	s	15	4	Capacity	84	ABS	0	2	24RD	0	1	0.62323307991	None	None	None	None	1
1.7	2015_Jul_30_1414	s	s	15	4	Capacity	85	RC	0	1	23RO	1	0	2.18866586685	-247.0	291.0	-241	287	1
1.7	2015_Jul_30_1414	s	s	15	4	Capacity	86	ABS	0	1	24RO	0	1	0.97148680687	None	None	None	None	1
1.7	2015_Jul_30_1414	s	s	15	4	Capacity	87	RC	0	2	23RD	1	0	0.423099040985	29.0	-88.0	21	-88	1
1.7	2015_Jul_30_1414	s	s	15	4	Capacity	88	ABS	0	2	24RD	0	1	0.529012918472	None	None	None	None	1
1.7	2015_Jul_30_1414	s	s	15	4	Capacity	89	ABS	0	1	24RO	0	1	2.24247503281	None	None	None	None	1
1.7	2015_Jul_30_1414	s	s	15	4	Capacity	90	ABS	0	2	24RD	0	1	0.713162899017	None	None	None	None	1
1.7	2015_Jul_30_1414	s	s	15	4	Capacity	91	RC	0	1	23RO	1	0	0.913141012192	-258.0	24.0	-255	12	1
1.7	2015_Jul_30_1414	s	s	15	4	Capacity	92	RC	0	2	23RD	1	0	0.434872865677	-295.0	32.0	-296	25	1
1.7	2015_Jul_30_1414	s	s	15	4	SIC	1	ABS	0	1	24RO	0	0	-1	None	None	None	None	-1
1.7	2015_Jul_30_1414	s	s	15	4	SIC	2	RC	2	0	23VC	1	0	1.11250185966	-487.0	-253.0	-482	-256	1
1.7	2015_Jul_30_1414	s	s	15	4	SIC	3	ABS	2	1	24VO	0	1	0.752658128738	None	None	None	None	1
1.7	2015_Jul_30_1414	s	s	15	4	SIC	4	ABS	2	0	24VC	0	1	0.705576181412	None	None	None	None	1
1.7	2015_Jul_30_1414	s	s	15	4	SIC	5	RC	0	2	23RD	1	0	0.465363025665	437.0	-269.0	444	-265	1
1.7	2015_Jul_30_1414	s	s	15	4	SIC	6	RC	0	1	23RO	1	0	1.63554215431	467.0	-108.0	467	-112	1
1.7	2015_Jul_30_1414	s	s	15	4	SIC	7	RC	2	2	23VD	1	0	0.900592088699	-321.0	176.0	-325	176	1
1.7	2015_Jul_30_1414	s	s	15	4	SIC	8	RC	1	1	23MO	1	0	0.994812965393	530.0	4.0	540	2	1
1.7	2015_Jul_30_1414	s	s	15	4	SIC	9	ABS	1	0	24MC	0	1	1.60694289207	None	None	None	None	1
1.7	2015_Jul_30_1414	s	s	15	4	SIC	10	ABS	1	1	24MO	0	1	1.66581201553	None	None	None	None	1
1.7	2015_Jul_30_1414	s	s	15	4	SIC	11	ABS	0	2	24RD	0	1	1.11746311188	None	None	None	None	1
1.7	2015_Jul_30_1414	s	s	15	4	SIC	12	RC	1	2	23MD	1	0	0.509140014648	528.0	107.0	526	105	1
1.7	2015_Jul_30_1414	s	s	15	4	SIC	13	ABS	1	2	24MD	0	1	0.632249116898	None	None	None	None	1
1.7	2015_Jul_30_1414	s	s	15	4	SIC	14	ABS	2	2	24VD	0	1	0.540853023529	None	None	None	None	1
1.7	2015_Jul_30_1414	s	s	15	4	SIC	15	RC	1	0	23MC	1	0	2.20583415031	131.0	250.0	129	250	1
1.7	2015_Jul_30_1414	s	s	15	4	SIC	16	RC	2	1	23VO	1	0	0.57612490654	424.0	278.0	424	272	1
1.7	2015_Jul_30_1414	s	s	15	4	SIC	17	ABS	2	2	24VD	0	1	0.571036100388	None	None	None	None	1
1.7	2015_Jul_30_1414	s	s	15	4	SIC	18	RC	2	1	23VO	1	0	0.376034975052	-74.0	7.0	-70	11	1
1.7	2015_Jul_30_1414	s	s	15	4	SIC	19	ABS	1	2	24MD	0	1	0.926596164703	None	None	None	None	1
1.7	2015_Jul_30_1414	s	s	15	4	SIC	20	RC	1	1	23MO	1	0	1.58333587646	83.0	-393.0	80	-394	1
1.7	2015_Jul_30_1414	s	s	15	4	SIC	21	RC	1	0	23MC	1	0	1.07651805878	227.0	359.0	218	358	1
1.7	2015_Jul_30_1414	s	s	15	4	SIC	22	RC	1	2	23MD	1	0	0.547811985016	-41.0	102.0	-30	111	1
1.7	2015_Jul_30_1414	s	s	15	4	SIC	23	ABS	0	1	24RO	0	1	3.48880410194	None	None	None	None	1
1.7	2015_Jul_30_1414	s	s	15	4	SIC	24	ABS	2	0	24VC	0	1	0.573493003845	None	None	None	None	1
1.7	2015_Jul_30_1414	s	s	15	4	SIC	25	ABS	1	0	24MC	0	1	3.51871800423	None	None	None	None	1
1.7	2015_Jul_30_1414	s	s	15	4	SIC	26	RC	2	0	23VC	1	0	0.45338511467	394.0	-60.0	388	-66	1
1.7	2015_Jul_30_1414	s	s	15	4	SIC	27	ABS	1	1	24MO	0	1	3.52547693253	None	None	None	None	1
1.7	2015_Jul_30_1414	s	s	15	4	SIC	28	RC	0	2	23RD	1	0	0.493736982346	-416.0	-117.0	-414	-121	1
1.7	2015_Jul_30_1414	s	s	15	4	SIC	29	RC	2	2	23VD	1	0	0.4113240242	308.0	-123.0	319	-117	1
1.7	2015_Jul_30_1414	s	s	15	4	SIC	30	ABS	0	2	24RD	0	1	1.07040405273	None	None	None	None	1
1.7	2015_Jul_30_1414	s	s	15	4	SIC	31	RC	0	1	23RO	1	0	1.43538784981	-141.0	-346.0	-139	-337	1
1.7	2015_Jul_30_1414	s	s	15	4	SIC	32	ABS	2	1	24VO	0	1	0.617623090744	None	None	None	None	1
1.7	2015_Jul_30_1414	s	s	15	4	SIC	33	ABS	2	2	24VD	0	1	0.477041959763	None	None	None	None	1
1.7	2015_Jul_30_1414	s	s	15	4	SIC	34	ABS	1	2	24MD	0	1	0.723438024521	None	None	None	None	1
1.7	2015_Jul_30_1414	s	s	15	4	SIC	35	RC	1	2	23MD	1	0	0.453553915024	502.0	-230.0	499	-229	1
1.7	2015_Jul_30_1414	s	s	15	4	SIC	36	ABS	0	2	24RD	0	1	0.87819814682	None	None	None	None	1
1.7	2015_Jul_30_1414	s	s	15	4	SIC	37	ABS	1	0	24MC	0	1	1.64727187157	None	None	None	None	1
1.7	2015_Jul_30_1414	s	s	15	4	SIC	38	ABS	2	1	24VO	0	1	0.526385784149	None	None	None	None	1
1.7	2015_Jul_30_1414	s	s	15	4	SIC	39	ABS	0	1	24RO	0	1	5.77446007729	None	None	None	None	1
1.7	2015_Jul_30_1414	s	s	15	4	SIC	40	ABS	2	0	24VC	0	1	0.576138973236	None	None	None	None	1
1.7	2015_Jul_30_1414	s	s	15	4	SIC	41	RC	0	1	23RO	1	0	2.51477909088	515.0	224.0	519	214	1
1.7	2015_Jul_30_1414	s	s	15	4	SIC	42	ABS	1	1	24MO	0	1	2.07086396217	None	None	None	None	1
1.7	2015_Jul_30_1414	s	s	15	4	SIC	43	RC	2	2	23VD	1	0	0.434834003448	249.0	-365.0	257	-364	1
1.7	2015_Jul_30_1414	s	s	15	4	SIC	44	RC	1	1	23MO	1	0	1.30957603455	-509.0	-240.0	-503	-240	1
1.7	2015_Jul_30_1414	s	s	15	4	SIC	45	RC	1	0	23MC	1	0	0.997482061386	319.0	-235.0	330	-233	1
1.7	2015_Jul_30_1414	s	s	15	4	SIC	46	RC	0	2	23RD	1	0	1.37094497681	349.0	348.0	352	347	1
1.7	2015_Jul_30_1414	s	s	15	4	SIC	47	RC	2	1	23VO	1	0	0.42977809906	-385.0	187.0	-380	180	1
1.7	2015_Jul_30_1414	s	s	15	4	SIC	48	RC	2	0	23VC	1	0	0.399533033371	-266.0	389.0	-274	387	1
1.7	2015_Jul_30_1414	s	s	15	4	SIC	49	RC	2	2	23VD	1	0	0.396872997284	256.0	-267.0	252	-264	1
1.7	2015_Jul_30_1414	s	s	15	4	SIC	50	RC	1	1	23MO	1	0	0.772260904312	21.0	242.0	30	245	1
1.7	2015_Jul_30_1414	s	s	15	4	SIC	51	ABS	1	1	24MO	0	1	1.70055890083	None	None	None	None	1
1.7	2015_Jul_30_1414	s	s	15	4	SIC	52	RC	1	2	23MD	1	0	0.40715098381	404.0	-35.0	403	-33	1
1.7	2015_Jul_30_1414	s	s	15	4	SIC	53	ABS	1	0	24MC	0	1	1.08897805214	None	None	None	None	1
1.7	2015_Jul_30_1414	s	s	15	4	SIC	54	ABS	0	1	24RO	0	1	2.71832203865	None	None	None	None	1
1.7	2015_Jul_30_1414	s	s	15	4	SIC	55	ABS	1	2	24MD	0	1	0.611404895782	None	None	None	None	1
1.7	2015_Jul_30_1414	s	s	15	4	SIC	56	RC	2	1	23VO	1	0	0.626892089844	535.0	265.0	539	256	1
1.7	2015_Jul_30_1414	s	s	15	4	SIC	57	RC	2	0	23VC	1	0	0.423110961914	48.0	-107.0	58	-101	1
1.7	2015_Jul_30_1414	s	s	15	4	SIC	58	RC	0	1	23RO	1	0	1.33596086502	-127.0	-50.0	-119	-44	1
1.7	2015_Jul_30_1414	s	s	15	4	SIC	59	ABS	2	0	24VC	0	1	0.952819824219	None	None	None	None	1
1.7	2015_Jul_30_1414	s	s	15	4	SIC	60	ABS	2	2	24VD	0	1	0.514671087265	None	None	None	None	1
1.7	2015_Jul_30_1414	s	s	15	4	SIC	61	ABS	0	2	24RD	0	1	0.752696037292	None	None	None	None	1
1.7	2015_Jul_30_1414	s	s	15	4	SIC	62	RC	1	0	23MC	1	0	0.982638835907	-326.0	-231.0	-326	-234	1
1.7	2015_Jul_30_1414	s	s	15	4	SIC	63	RC	0	2	23RD	1	0	1.02379012108	-408.0	408.0	-414	413	1
1.7	2015_Jul_30_1414	s	s	15	4	SIC	64	ABS	2	1	24VO	0	1	0.607779026031	None	None	None	None	1
1.7	2015_Jul_30_1414	s	s	15	4	SIC	65	RC	0	1	23RO	1	0	0.665874004364	-251.0	-110.0	-256	-117	1
1.7	2015_Jul_30_1414	s	s	15	4	SIC	66	ABS	1	1	24MO	0	1	1.70245814323	None	None	None	None	1
1.7	2015_Jul_30_1414	s	s	15	4	SIC	67	RC	1	1	23MO	1	0	0.607043027878	16.0	-320.0	22	-311	1
1.7	2015_Jul_30_1414	s	s	15	4	SIC	68	ABS	0	1	24RO	0	1	2.88975214958	None	None	None	None	1
1.7	2015_Jul_30_1414	s	s	15	4	SIC	69	RC	2	2	23VD	1	0	0.423084020615	31.0	66.0	38	67	1
1.7	2015_Jul_30_1414	s	s	15	4	SIC	70	RC	0	2	23RD	1	0	0.411247968674	161.0	-376.0	164	-377	1
1.7	2015_Jul_30_1414	s	s	15	4	SIC	71	RC	2	0	23VC	1	0	0.441735029221	-287.0	377.0	-279	376	1
1.7	2015_Jul_30_1414	s	s	15	4	SIC	72	ABS	1	2	24MD	0	1	0.653642177582	None	None	None	None	1
1.7	2015_Jul_30_1414	s	s	15	4	SIC	73	RC	1	0	23MC	1	0	0.641723871231	-270.0	-186.0	-276	-185	1
1.7	2015_Jul_30_1414	s	s	15	4	SIC	74	ABS	2	2	24VD	0	1	0.488909959793	None	None	None	None	1
1.7	2015_Jul_30_1414	s	s	15	4	SIC	75	RC	2	1	23VO	1	0	0.446869850159	505.0	-161.0	515	-153	1
1.7	2015_Jul_30_1414	s	s	15	4	SIC	76	ABS	1	0	24MC	1	0	1.06473493576	None	None	-349	130	0
1.7	2015_Jul_30_1414	s	s	15	4	SIC	77	ABS	0	2	24RD	0	1	0.618319988251	None	None	None	None	1
1.7	2015_Jul_30_1414	s	s	15	4	SIC	78	ABS	2	1	24VO	0	1	0.509149074554	None	None	None	None	1
1.7	2015_Jul_30_1414	s	s	15	4	SIC	79	RC	1	2	23MD	1	0	0.658537864685	410.0	398.0	414	395	1
1.7	2015_Jul_30_1414	s	s	15	4	SIC	80	ABS	2	0	24VC	0	1	0.619947910309	None	None	None	None	1
1.7	2015_Jul_30_1414	s	s	15	4	SIC	81	RC	2	2	23VD	1	0	0.383068084717	-409.0	55.0	-408	51	1
1.7	2015_Jul_30_1414	s	s	15	4	SIC	82	ABS	2	2	24VD	0	1	2.00818395615	None	None	None	None	1
1.7	2015_Jul_30_1414	s	s	15	4	SIC	83	RC	0	1	23RO	1	0	2.66314411163	-74.0	362.0	-62	363	1
1.7	2015_Jul_30_1414	s	s	15	4	SIC	84	ABS	0	1	24RO	0	1	3.7257578373	None	None	None	None	1
1.7	2015_Jul_30_1414	s	s	15	4	SIC	85	RC	2	0	23VC	1	0	0.476970911026	191.0	-38.0	197	-40	1
1.7	2015_Jul_30_1414	s	s	15	4	SIC	86	ABS	0	2	24RD	0	1	1.03013706207	None	None	None	None	1
1.7	2015_Jul_30_1414	s	s	15	4	SIC	87	ABS	1	1	24MO	0	1	1.47066783905	None	None	None	None	1
1.7	2015_Jul_30_1414	s	s	15	4	SIC	88	ABS	2	1	24VO	0	1	0.63166809082	None	None	None	None	1
1.7	2015_Jul_30_1414	s	s	15	4	SIC	89	RC	2	1	23VO	1	0	0.709259986877	246.0	33.0	241	22	1
1.7	2015_Jul_30_1414	s	s	15	4	SIC	90	RC	1	1	23MO	1	0	0.682093858719	412.0	-168.0	411	-171	1
1.7	2015_Jul_30_1414	s	s	15	4	SIC	91	ABS	1	0	24MC	0	1	1.57123494148	None	None	None	None	1
1.7	2015_Jul_30_1414	s	s	15	4	SIC	92	ABS	2	0	24VC	0	1	0.79976606369	None	None	None	None	1
1.7	2015_Jul_30_1414	s	s	15	4	SIC	93	RC	0	2	23RD	1	0	0.406143188477	58.0	-94.0	68	-92	1
1.7	2015_Jul_30_1414	s	s	15	4	SIC	94	RC	1	2	23MD	1	0	0.479249954224	-333.0	295.0	-343	293	1
1.7	2015_Jul_30_1414	s	s	15	4	SIC	95	RC	1	0	23MC	1	0	0.434803009033	-107.0	40.0	-107	32	1
1.7	2015_Jul_30_1414	s	s	15	4	SIC	96	ABS	1	2	24MD	0	1	0.60807299614	None	None	None	None	1
1.7	2015_Jul_30_1414	s	s	15	4	SIC	97	RC	2	1	23VO	1	0	0.396229028702	239.0	-321.0	240	-319	1
1.7	2015_Jul_30_1414	s	s	15	4	SIC	98	RC	0	2	23RD	1	0	0.431010007858	391.0	29.0	400	36	1
1.7	2015_Jul_30_1414	s	s	15	4	SIC	99	ABS	1	2	24MD	0	1	0.538110017776	None	None	None	None	1
1.7	2015_Jul_30_1414	s	s	15	4	SIC	100	RC	0	1	23RO	1	0	2.44188904762	202.0	394.0	199	397	1
1.7	2015_Jul_30_1414	s	s	15	4	SIC	101	RC	2	2	23VD	1	0	0.394588947296	-441.0	334.0	-445	333	1
1.7	2015_Jul_30_1414	s	s	15	4	SIC	102	RC	1	1	23MO	1	0	0.988083839417	-40.0	308.0	-36	310	1
1.7	2015_Jul_30_1414	s	s	15	4	SIC	103	ABS	1	1	24MO	0	1	2.47793602943	None	None	None	None	1
1.7	2015_Jul_30_1414	s	s	15	4	SIC	104	RC	2	0	23VC	1	0	0.45835185051	-10.0	348.0	2	349	1
1.7	2015_Jul_30_1414	s	s	15	4	SIC	105	ABS	2	1	24VO	0	1	0.552468061447	None	None	None	None	1
1.7	2015_Jul_30_1414	s	s	15	4	SIC	106	RC	1	0	23MC	1	0	0.536067008972	40.0	262.0	46	260	1
1.7	2015_Jul_30_1414	s	s	15	4	SIC	107	ABS	0	2	24RD	0	1	0.714890003204	None	None	None	None	1
1.7	2015_Jul_30_1414	s	s	15	4	SIC	108	ABS	2	2	24VD	0	1	0.517267942429	None	None	None	None	1
1.7	2015_Jul_30_1414	s	s	15	4	SIC	109	ABS	0	1	24RO	0	1	4.52837300301	None	None	None	None	1
1.7	2015_Jul_30_1414	s	s	15	4	SIC	110	RC	1	2	23MD	1	0	0.493757009506	509.0	-233.0	507	-245	1
1.7	2015_Jul_30_1414	s	s	15	4	SIC	111	ABS	2	0	24VC	0	1	0.522712945938	None	None	None	None	1
1.7	2015_Jul_30_1414	s	s	15	4	SIC	112	ABS	1	0	24MC	0	1	2.40738606453	None	None	None	None	1
1.7	2015_Jul_30_1414	s	s	15	4	SIC	113	RC	1	2	23MD	1	0	0.418451070786	164.0	126.0	158	125	1
1.7	2015_Jul_30_1414	s	s	15	4	SIC	114	ABS	2	2	24VD	0	1	0.646784067154	None	None	None	None	1
1.7	2015_Jul_30_1414	s	s	15	4	SIC	115	RC	1	0	23MC	1	0	0.619962930679	-320.0	-29.0	-326	-32	1
1.7	2015_Jul_30_1414	s	s	15	4	SIC	116	ABS	1	2	24MD	0	1	0.552546977997	None	None	None	None	1
1.7	2015_Jul_30_1414	s	s	15	4	SIC	117	ABS	1	1	24MO	0	1	2.05925512314	None	None	None	None	1
1.7	2015_Jul_30_1414	s	s	15	4	SIC	118	ABS	1	0	24MC	0	1	3.45987510681	None	None	None	None	1
1.7	2015_Jul_30_1414	s	s	15	4	SIC	119	RC	0	1	23RO	1	0	2.22401499748	166.0	-347.0	169	-344	1
1.7	2015_Jul_30_1414	s	s	15	4	SIC	120	ABS	2	0	24VC	1	0	0.465408086777	None	None	0	-85	0
1.7	2015_Jul_30_1414	s	s	15	4	SIC	121	ABS	2	1	24VO	0	1	0.643812179565	None	None	None	None	1
1.7	2015_Jul_30_1414	s	s	15	4	SIC	122	RC	2	1	23VO	1	0	0.770918130875	525.0	358.0	521	363	1
1.7	2015_Jul_30_1414	s	s	15	4	SIC	123	RC	0	2	23RD	1	0	0.500315904617	-340.0	-176.0	-341	-181	1
1.7	2015_Jul_30_1414	s	s	15	4	SIC	124	ABS	0	2	24RD	0	1	1.12455010414	None	None	None	None	1
1.7	2015_Jul_30_1414	s	s	15	4	SIC	125	RC	2	0	23VC	1	0	0.376469135284	-316.0	68.0	-315	65	1
1.7	2015_Jul_30_1414	s	s	15	4	SIC	126	RC	2	2	23VD	1	0	0.394541025162	-91.0	309.0	-88	306	1
1.7	2015_Jul_30_1414	s	s	15	4	SIC	127	ABS	0	1	24RO	0	1	2.89516091347	None	None	None	None	1
1.7	2015_Jul_30_1414	s	s	15	4	SIC	128	RC	1	1	23MO	1	0	0.870395183563	-364.0	381.0	-357	380	1
1.7	2015_Jul_30_1414	s	s	15	4	SIC	129	ABS	1	0	24MC	0	1	2.73703598976	None	None	None	None	1
1.7	2015_Jul_30_1414	s	s	15	4	SIC	130	RC	1	0	23MC	1	0	1.30225801468	-515.0	-391.0	-518	-399	1
1.7	2015_Jul_30_1414	s	s	15	4	SIC	131	RC	0	1	23RO	1	0	2.18525314331	299.0	305.0	301	300	1
1.7	2015_Jul_30_1414	s	s	15	4	SIC	132	ABS	2	1	24VO	0	1	0.544647932053	None	None	None	None	1
1.7	2015_Jul_30_1414	s	s	15	4	SIC	133	ABS	1	2	24MD	0	1	0.865176916122	None	None	None	None	1
1.7	2015_Jul_30_1414	s	s	15	4	SIC	134	RC	0	2	23RD	1	0	0.549199819565	505.0	403.0	497	400	1
1.7	2015_Jul_30_1414	s	s	15	4	SIC	135	ABS	2	2	24VD	0	1	0.576093196869	None	None	None	None	1
1.7	2015_Jul_30_1414	s	s	15	4	SIC	136	ABS	2	0	24VC	0	1	0.564384937286	None	None	None	None	1
1.7	2015_Jul_30_1414	s	s	15	4	SIC	137	RC	1	2	23MD	1	0	0.431616067886	28.0	-136.0	26	-131	1
1.7	2015_Jul_30_1414	s	s	15	4	SIC	138	ABS	0	2	24RD	0	1	0.552555084229	None	None	None	None	1
1.7	2015_Jul_30_1414	s	s	15	4	SIC	139	RC	2	0	23VC	1	0	0.435291051865	-185.0	-330.0	-198	-324	1
1.7	2015_Jul_30_1414	s	s	15	4	SIC	140	RC	2	1	23VO	1	0	0.434799194336	-221.0	266.0	-217	272	1
1.7	2015_Jul_30_1414	s	s	15	4	SIC	141	RC	1	1	23MO	1	0	0.45358300209	-382.0	46.0	-375	48	1
1.7	2015_Jul_30_1414	s	s	15	4	SIC	142	ABS	0	1	24RO	0	1	1.62374901772	None	None	None	None	1
1.7	2015_Jul_30_1414	s	s	15	4	SIC	143	RC	2	2	23VD	1	0	0.588255167007	48.0	-118.0	48	-122	1
1.7	2015_Jul_30_1414	s	s	15	4	SIC	144	ABS	1	1	24MO	0	1	7.15103793144	None	None	None	None	1
1.7	2015_Jul_30_1414	s	s	15	4	SIC	145	RC	0	1	23RO	1	0	0.794764995575	244.0	-66.0	237	-63	1
1.7	2015_Jul_30_1414	s	s	15	4	SIC	146	ABS	0	2	24RD	0	1	0.552649974823	None	None	None	None	1
1.7	2015_Jul_30_1414	s	s	15	4	SIC	147	ABS	1	2	24MD	0	1	0.823385000229	None	None	None	None	1
1.7	2015_Jul_30_1414	s	s	15	4	SIC	148	RC	1	1	23MO	1	0	1.04696893692	319.0	-385.0	328	-384	1
1.7	2015_Jul_30_1414	s	s	15	4	SIC	149	RC	1	2	23MD	1	0	0.430469989777	409.0	-360.0	406	-360	1
1.7	2015_Jul_30_1414	s	s	15	4	SIC	150	RC	2	2	23VD	1	0	0.406298875809	366.0	294.0	363	287	1
1.7	2015_Jul_30_1414	s	s	15	4	SIC	151	ABS	1	1	24MO	0	1	2.41905999184	None	None	None	None	1
1.7	2015_Jul_30_1414	s	s	15	4	SIC	152	RC	1	0	23MC	1	0	1.36479997635	141.0	326.0	140	325	1
1.7	2015_Jul_30_1414	s	s	15	4	SIC	153	RC	2	0	23VC	1	0	0.426872014999	321.0	226.0	326	227	1
1.7	2015_Jul_30_1414	s	s	15	4	SIC	154	ABS	1	0	24MC	0	1	2.03565502167	None	None	None	None	1
1.7	2015_Jul_30_1414	s	s	15	4	SIC	155	ABS	2	2	24VD	0	1	0.57127904892	None	None	None	None	1
1.7	2015_Jul_30_1414	s	s	15	4	SIC	156	RC	2	1	23VO	1	0	0.44668507576	-501.0	246.0	-507	242	1
1.7	2015_Jul_30_1414	s	s	15	4	SIC	157	RC	0	2	23RD	1	0	0.458359003067	426.0	-174.0	428	-175	1
1.7	2015_Jul_30_1414	s	s	15	4	SIC	158	ABS	2	1	24VO	0	1	0.505475997925	None	None	None	None	1
1.7	2015_Jul_30_1414	s	s	15	4	SIC	159	ABS	0	1	24RO	0	1	2.04338097572	None	None	None	None	1
1.7	2015_Jul_30_1414	s	s	15	4	SIC	160	ABS	2	0	24VC	0	1	0.571316957474	None	None	None	None	1
1.7	2015_Jul_30_1414	s	s	15	4	SIC	161	ABS	2	1	24VO	0	1	0.499841213226	None	None	None	None	1
1.7	2015_Jul_30_1414	s	s	15	4	SIC	162	RC	1	0	23MC	1	0	0.799767017365	-106.0	286.0	-110	281	1
1.7	2015_Jul_30_1414	s	s	15	4	SIC	163	RC	2	2	23VD	1	0	0.490247011185	-288.0	381.0	-291	371	1
1.7	2015_Jul_30_1414	s	s	15	4	SIC	164	ABS	2	2	24VD	0	1	0.488677024841	None	None	None	None	1
1.7	2015_Jul_30_1414	s	s	15	4	SIC	165	RC	1	1	23MO	1	0	0.682066917419	-491.0	25.0	-492	25	1
1.7	2015_Jul_30_1414	s	s	15	4	SIC	166	ABS	2	0	24VC	0	1	0.535538911819	None	None	None	None	1
1.7	2015_Jul_30_1414	s	s	15	4	SIC	167	RC	0	1	23RO	1	0	1.00577902794	-303.0	331.0	-302	328	1
1.7	2015_Jul_30_1414	s	s	15	4	SIC	168	RC	2	1	23VO	1	0	0.559357881546	236.0	402.0	238	401	1
1.7	2015_Jul_30_1414	s	s	15	4	SIC	169	RC	1	2	23MD	1	0	0.387786149979	-115.0	-86.0	-116	-89	1
1.7	2015_Jul_30_1414	s	s	15	4	SIC	170	ABS	1	0	24MC	0	1	1.53609895706	None	None	None	None	1
1.7	2015_Jul_30_1414	s	s	15	4	SIC	171	ABS	0	1	24RO	0	1	2.30638003349	None	None	None	None	1
1.7	2015_Jul_30_1414	s	s	15	4	SIC	172	RC	2	0	23VC	1	0	0.406388044357	131.0	243.0	130	251	1
1.7	2015_Jul_30_1414	s	s	15	4	SIC	173	ABS	1	1	24MO	0	1	1.15297007561	None	None	None	None	1
1.7	2015_Jul_30_1414	s	s	15	4	SIC	174	ABS	0	2	24RD	0	1	0.693958997726	None	None	None	None	1
1.7	2015_Jul_30_1414	s	s	15	4	SIC	175	ABS	1	2	24MD	0	1	0.517314910889	None	None	None	None	1
1.7	2015_Jul_30_1414	s	s	15	4	SIC	176	RC	0	2	23RD	1	0	0.517258882523	-502.0	-313.0	-497	-318	1
1.7	2015_Jul_30_1414	s	s	15	4	SIC	177	RC	1	0	23MC	0	1	1.68259906769	-412.0	-400.0	None	None	0
1.7	2015_Jul_30_1414	s	s	15	4	SIC	178	RC	2	0	23VC	1	0	0.446603059769	458.0	17.0	462	8	1
1.7	2015_Jul_30_1414	s	s	15	4	SIC	179	ABS	2	0	24VC	0	1	0.540606021881	None	None	None	None	1
1.7	2015_Jul_30_1414	s	s	15	4	SIC	180	ABS	0	1	24RO	0	1	1.03224611282	None	None	None	None	1
1.7	2015_Jul_30_1414	s	s	15	4	SIC	181	RC	0	2	23RD	1	0	0.514489173889	-516.0	246.0	-517	247	1
1.7	2015_Jul_30_1414	s	s	15	4	SIC	182	RC	2	2	23VD	1	0	0.406687021255	-309.0	-52.0	-313	-64	1
1.7	2015_Jul_30_1414	s	s	15	4	SIC	183	ABS	1	0	24MC	0	1	2.04237508774	None	None	None	None	1
1.7	2015_Jul_30_1414	s	s	15	4	SIC	184	RC	1	2	23MD	1	0	0.423161029816	-442.0	137.0	-443	134	1
1.7	2015_Jul_30_1414	s	s	15	4	SIC	185	ABS	0	2	24RD	0	1	0.619749069214	None	None	None	None	1
1.7	2015_Jul_30_1414	s	s	15	4	SIC	186	ABS	2	2	24VD	0	1	0.564350128174	None	None	None	None	1
1.7	2015_Jul_30_1414	s	s	15	4	SIC	187	RC	0	1	23RO	1	0	0.971241950989	-513.0	51.0	-514	50	1
1.7	2015_Jul_30_1414	s	s	15	4	SIC	188	ABS	1	1	24MO	0	1	1.22349596024	None	None	None	None	1
1.7	2015_Jul_30_1414	s	s	15	4	SIC	189	ABS	2	1	24VO	0	1	0.467588186264	None	None	None	None	1
1.7	2015_Jul_30_1414	s	s	15	4	SIC	190	RC	1	1	23MO	0	1	1.29100394249	494.0	256.0	None	None	0
1.7	2015_Jul_30_1414	s	s	15	4	SIC	191	ABS	1	2	24MD	0	1	0.535807847977	None	None	None	None	1
1.7	2015_Jul_30_1414	s	s	15	4	SIC	192	RC	2	1	23VO	1	0	0.399533987045	317.0	-264.0	314	-272	1
1.7	2015_Jul_30_1414	s	s	15	4	SIC	193	ABS	0	2	24RD	0	1	0.611450910568	None	None	None	None	1
1.7	2015_Jul_30_1414	s	s	15	4	SIC	194	RC	0	2	23RD	1	0	0.45343208313	-161.0	-222.0	-162	-213	1
1.7	2015_Jul_30_1414	s	s	15	4	SIC	195	ABS	2	0	24VC	0	1	0.47709608078	None	None	None	None	1
1.7	2015_Jul_30_1414	s	s	15	4	SIC	196	ABS	0	1	24RO	0	1	2.21879887581	None	None	None	None	1
1.7	2015_Jul_30_1414	s	s	15	4	SIC	197	ABS	1	0	24MC	0	1	4.43679904938	None	None	None	None	1
1.7	2015_Jul_30_1414	s	s	15	4	SIC	198	ABS	2	2	24VD	0	1	0.446666955948	None	None	None	None	1
1.7	2015_Jul_30_1414	s	s	15	4	SIC	199	RC	1	2	23MD	1	0	0.599962949753	-302.0	113.0	-301	106	1
1.7	2015_Jul_30_1414	s	s	15	4	SIC	200	RC	2	1	23VO	1	0	0.4701359272	212.0	-376.0	210	-377	1
1.7	2015_Jul_30_1414	s	s	15	4	SIC	201	RC	0	1	23RO	1	0	0.838736057281	-11.0	-93.0	-14	-87	1
1.7	2015_Jul_30_1414	s	s	15	4	SIC	202	RC	2	0	23VC	1	0	0.45284986496	289.0	-354.0	290	-347	1
1.7	2015_Jul_30_1414	s	s	15	4	SIC	203	ABS	1	1	24MO	0	1	1.85271501541	None	None	None	None	1
1.7	2015_Jul_30_1414	s	s	15	4	SIC	204	ABS	1	2	24MD	0	1	0.529485940933	None	None	None	None	1
1.7	2015_Jul_30_1414	s	s	15	4	SIC	205	RC	1	1	23MO	1	0	0.525832176208	-403.0	27.0	-408	25	1
1.7	2015_Jul_30_1414	s	s	15	4	SIC	206	RC	1	0	23MC	1	0	0.646863937378	415.0	-89.0	417	-88	1
1.7	2015_Jul_30_1414	s	s	15	4	SIC	207	RC	2	2	23VD	1	0	0.39958691597	28.0	-298.0	33	-302	1
1.7	2015_Jul_30_1414	s	s	15	4	SIC	208	ABS	2	1	24VO	0	1	0.464493989944	None	None	None	None	1
1.7	2015_Jul_30_1414	s	s	15	4	SIC	209	ABS	2	2	24VD	0	1	0.52902507782	None	None	None	None	1
1.7	2015_Jul_30_1414	s	s	15	4	SIC	210	ABS	2	1	24VO	0	1	0.929265975952	None	None	None	None	1
1.7	2015_Jul_30_1414	s	s	15	4	SIC	211	ABS	1	2	24MD	0	1	1.0116019249	None	None	None	None	1
1.7	2015_Jul_30_1414	s	s	15	4	SIC	212	RC	0	1	23RO	1	0	2.5250389576	234.0	251.0	231	249	1
1.7	2015_Jul_30_1414	s	s	15	4	SIC	213	RC	2	0	23VC	1	0	0.396976232529	93.0	-14.0	91	-15	1
1.7	2015_Jul_30_1414	s	s	15	4	SIC	214	ABS	1	1	24MO	0	1	1.89114308357	None	None	None	None	1
1.7	2015_Jul_30_1414	s	s	15	4	SIC	215	RC	1	0	23MC	1	0	0.4768679142	-155.0	100.0	-52	-12	0
1.7	2015_Jul_30_1414	s	s	15	4	SIC	216	ABS	0	1	24RO	0	1	3.57762598991	None	None	None	None	1
1.7	2015_Jul_30_1414	s	s	15	4	SIC	217	ABS	1	0	24MC	0	1	1.84472894669	None	None	None	None	1
1.7	2015_Jul_30_1414	s	s	15	4	SIC	218	RC	2	2	23VD	1	0	0.540925979614	341.0	-375.0	346	-381	1
1.7	2015_Jul_30_1414	s	s	15	4	SIC	219	ABS	2	0	24VC	0	1	1.10064411163	None	None	None	None	1
1.7	2015_Jul_30_1414	s	s	15	4	SIC	220	RC	1	2	23MD	1	0	0.608743190765	32.0	390.0	29	385	1
1.7	2015_Jul_30_1414	s	s	15	4	SIC	221	RC	2	1	23VO	1	0	0.48185300827	-428.0	-371.0	-428	-373	1
1.7	2015_Jul_30_1414	s	s	15	4	SIC	222	RC	0	2	23RD	1	0	0.477470874786	-248.0	257.0	-249	253	1
1.7	2015_Jul_30_1414	s	s	15	4	SIC	223	RC	1	1	23MO	1	0	1.00693798065	340.0	-182.0	337	-179	1
1.7	2015_Jul_30_1414	s	s	15	4	SIC	224	ABS	0	2	24RD	0	1	0.634887933731	None	None	None	None	1
1.7	2015_Jul_30_1414	s	s	15	4	SIC	225	RC	1	2	23MD	1	0	0.505512952805	-410.0	118.0	-417	117	1
1.7	2015_Jul_30_1414	s	s	15	4	SIC	226	ABS	2	2	24VD	0	1	0.517222166061	None	None	None	None	1
1.7	2015_Jul_30_1414	s	s	15	4	SIC	227	ABS	1	1	24MO	0	1	0.863237857819	None	None	None	None	1
1.7	2015_Jul_30_1414	s	s	15	4	SIC	228	ABS	1	0	24MC	0	1	1.27580118179	None	None	None	None	1
1.7	2015_Jul_30_1414	s	s	15	4	SIC	229	ABS	0	1	24RO	0	1	2.41911220551	None	None	None	None	1
1.7	2015_Jul_30_1414	s	s	15	4	SIC	230	RC	2	2	23VD	1	0	0.453328132629	-343.0	396.0	-338	399	1
1.7	2015_Jul_30_1414	s	s	15	4	SIC	231	RC	2	1	23VO	1	0	0.43473815918	216.0	-200.0	209	-203	1
1.7	2015_Jul_30_1414	s	s	15	4	SIC	232	RC	0	2	23RD	1	0	0.394614219666	-394.0	210.0	-389	211	1
1.7	2015_Jul_30_1414	s	s	15	4	SIC	233	ABS	2	1	24VO	0	1	0.564682006836	None	None	None	None	1
1.7	2015_Jul_30_1414	s	s	15	4	SIC	234	RC	1	0	23MC	1	0	0.935393810272	-69.0	-244.0	-67	-244	1
1.7	2015_Jul_30_1414	s	s	15	4	SIC	235	ABS	1	2	24MD	0	1	1.15283989906	None	None	None	None	1
1.7	2015_Jul_30_1414	s	s	15	4	SIC	236	ABS	0	2	24RD	0	1	0.611443042755	None	None	None	None	1
1.7	2015_Jul_30_1414	s	s	15	4	SIC	237	RC	1	1	23MO	1	0	0.882202863693	197.0	153.0	197	156	1
1.7	2015_Jul_30_1414	s	s	15	4	SIC	238	RC	2	0	23VC	1	0	0.455168008804	413.0	242.0	410	237	1
1.7	2015_Jul_30_1414	s	s	15	4	SIC	239	RC	0	1	23RO	1	0	0.936578989029	379.0	-70.0	384	-68	1
1.7	2015_Jul_30_1414	s	s	15	4	SIC	240	ABS	2	0	24VC	0	1	0.529033899307	None	None	None	None	1
1.7	2015_Jul_30_1414	s	s	15	4	SIC	241	RC	1	2	23MD	1	0	0.470574855804	-474.0	-49.0	-469	-46	1
1.7	2015_Jul_30_1414	s	s	15	4	SIC	242	ABS	1	1	24MO	0	1	1.35298514366	None	None	None	None	1
1.7	2015_Jul_30_1414	s	s	15	4	SIC	243	RC	2	1	23VO	1	0	0.375873088837	-67.0	-220.0	-71	-217	1
1.7	2015_Jul_30_1414	s	s	15	4	SIC	244	ABS	1	2	24MD	0	1	0.505840063095	None	None	None	None	1
1.7	2015_Jul_30_1414	s	s	15	4	SIC	245	RC	0	1	23RO	1	0	0.917490959167	-253.0	-22.0	-257	-29	1
1.7	2015_Jul_30_1414	s	s	15	4	SIC	246	ABS	2	2	24VD	0	1	0.599648952484	None	None	None	None	1
1.7	2015_Jul_30_1414	s	s	15	4	SIC	247	RC	1	1	23MO	1	0	0.724527835846	-83.0	-291.0	-68	-283	1
1.7	2015_Jul_30_1414	s	s	15	4	SIC	248	ABS	2	1	24VO	0	1	0.65854716301	None	None	None	None	1
1.7	2015_Jul_30_1414	s	s	15	4	SIC	249	ABS	1	0	24MC	0	1	3.71399497986	None	None	None	None	1
1.7	2015_Jul_30_1414	s	s	15	4	SIC	250	RC	2	2	23VD	1	0	0.417867898941	-87.0	308.0	-77	309	1
1.7	2015_Jul_30_1414	s	s	15	4	SIC	251	RC	2	0	23VC	1	0	0.677220106125	425.0	343.0	428	337	1
1.7	2015_Jul_30_1414	s	s	15	4	SIC	252	RC	1	0	23MC	1	0	1.99467182159	196.0	-359.0	204	-353	1
1.7	2015_Jul_30_1414	s	s	15	4	SIC	253	ABS	0	2	24RD	0	1	0.711467981339	None	None	None	None	1
1.7	2015_Jul_30_1414	s	s	15	4	SIC	254	RC	0	2	23RD	1	0	0.476866006851	248.0	-363.0	247	-363	1
1.7	2015_Jul_30_1414	s	s	15	4	SIC	255	ABS	2	0	24VC	0	1	0.49987912178	None	None	None	None	1
1.7	2015_Jul_30_1414	s	s	15	4	SIC	256	ABS	0	1	24RO	0	1	1.77666902542	None	None	None	None	1
1.7	2015_Jul_30_1414	s	s	15	4	SIC	257	ABS	1	2	24MD	0	1	0.641314029694	None	None	None	None	1
1.7	2015_Jul_30_1414	s	s	15	4	SIC	258	RC	1	0	23MC	1	0	1.3262181282	512.0	141.0	508	140	1
1.7	2015_Jul_30_1414	s	s	15	4	SIC	259	ABS	2	0	24VC	0	1	0.493654966354	None	None	None	None	1
1.7	2015_Jul_30_1414	s	s	15	4	SIC	260	RC	1	2	23MD	1	0	0.540800094604	-151.0	-410.0	-150	-403	1
1.7	2015_Jul_30_1414	s	s	15	4	SIC	261	RC	0	2	23RD	1	0	0.399551868439	386.0	-222.0	386	-221	1
1.7	2015_Jul_30_1414	s	s	15	4	SIC	262	ABS	0	1	24RO	0	1	1.64728021622	None	None	None	None	1
1.7	2015_Jul_30_1414	s	s	15	4	SIC	263	ABS	1	0	24MC	0	1	2.05920290947	None	None	None	None	1
1.7	2015_Jul_30_1414	s	s	15	4	SIC	264	ABS	2	2	24VD	1	0	0.476623058319	None	None	139	12	0
1.7	2015_Jul_30_1414	s	s	15	4	SIC	265	ABS	0	2	24RD	0	1	0.606443881989	None	None	None	None	1
1.7	2015_Jul_30_1414	s	s	15	4	SIC	266	ABS	2	1	24VO	0	1	0.489189147949	None	None	None	None	1
1.7	2015_Jul_30_1414	s	s	15	4	SIC	267	RC	2	1	23VO	1	0	0.56424498558	-247.0	61.0	-248	45	1
1.7	2015_Jul_30_1414	s	s	15	4	SIC	268	RC	2	2	23VD	1	0	0.429765939713	-110.0	185.0	-113	185	1
1.7	2015_Jul_30_1414	s	s	15	4	SIC	269	RC	0	1	23RO	1	0	2.28290200233	-350.0	-365.0	-338	-363	1
1.7	2015_Jul_30_1414	s	s	15	4	SIC	270	RC	1	1	23MO	1	0	1.80639481544	-540.0	-55.0	-544	-50	1
1.7	2015_Jul_30_1414	s	s	15	4	SIC	271	ABS	1	1	24MO	0	1	1.10581207275	None	None	None	None	1
1.7	2015_Jul_30_1414	s	s	15	4	SIC	272	RC	2	0	23VC	1	0	0.488645076752	-457.0	44.0	-453	45	1
1.7	2015_Jul_30_1414	s	s	15	4	SIC	273	RC	2	2	23VD	1	0	0.441336870193	-66.0	55.0	-73	60	1
1.7	2015_Jul_30_1414	s	s	15	4	SIC	274	ABS	2	0	24VC	0	1	0.630055904388	None	None	None	None	1
1.7	2015_Jul_30_1414	s	s	15	4	SIC	275	RC	1	1	23MO	1	0	1.21174192429	-308.0	286.0	-309	288	1
1.7	2015_Jul_30_1414	s	s	15	4	SIC	276	ABS	1	1	24MO	0	1	2.80076599121	None	None	None	None	1
1.7	2015_Jul_30_1414	s	s	15	4	SIC	277	RC	2	0	23VC	1	0	0.441768169403	-397.0	389.0	-393	389	1
1.7	2015_Jul_30_1414	s	s	15	4	SIC	278	RC	0	1	23RO	1	0	1.41883397102	531.0	-102.0	538	-109	1
1.7	2015_Jul_30_1414	s	s	15	4	SIC	279	ABS	1	0	24MC	0	1	3.13039088249	None	None	None	None	1
1.7	2015_Jul_30_1414	s	s	15	4	SIC	280	RC	0	2	23RD	1	0	0.501600027084	-222.0	287.0	-231	284	1
1.7	2015_Jul_30_1414	s	s	15	4	SIC	281	RC	1	0	23MC	1	0	1.41183686256	-467.0	0.0	-471	3	1
1.7	2015_Jul_30_1414	s	s	15	4	SIC	282	RC	2	1	23VO	1	0	0.394129991531	142.0	-86.0	145	-86	1
1.7	2015_Jul_30_1414	s	s	15	4	SIC	283	ABS	0	1	24RO	0	1	2.44275093079	None	None	None	None	1
1.7	2015_Jul_30_1414	s	s	15	4	SIC	284	ABS	2	2	24VD	0	1	0.465305089951	None	None	None	None	1
1.7	2015_Jul_30_1414	s	s	15	4	SIC	285	RC	1	2	23MD	1	0	0.48863196373	-109.0	-350.0	-113	-351	1
1.7	2015_Jul_30_1414	s	s	15	4	SIC	286	ABS	0	2	24RD	0	1	0.606559038162	None	None	None	None	1
1.7	2015_Jul_30_1414	s	s	15	4	SIC	287	ABS	1	2	24MD	0	1	0.535493135452	None	None	None	None	1
1.7	2015_Jul_30_1414	s	s	15	4	SIC	288	ABS	2	1	24VO	0	1	0.525428056717	None	None	None	None	1
1.7	2015_Jul_30_1414	s	s	15	4	SIC	289	RC	1	2	23MD	1	0	0.571000099182	-349.0	150.0	-344	148	1
1.7	2015_Jul_30_1414	s	s	15	4	SIC	290	RC	1	0	23MC	0	1	0.712555885315	-540.0	-29.0	None	None	0
1.7	2015_Jul_30_1414	s	s	15	4	SIC	291	ABS	2	2	24VD	0	1	0.418212890625	None	None	None	None	1
1.7	2015_Jul_30_1414	s	s	15	4	SIC	292	ABS	1	1	24MO	0	1	1.06534481049	None	None	None	None	1
1.7	2015_Jul_30_1414	s	s	15	4	SIC	293	ABS	1	0	24MC	0	1	0.462150096893	None	None	None	None	1
1.7	2015_Jul_30_1414	s	s	15	4	SIC	294	RC	2	1	23VO	0	1	0.446633815765	272.0	297.0	None	None	0
1.7	2015_Jul_30_1414	s	s	15	4	SIC	295	ABS	2	0	24VC	0	1	0.481969118118	None	None	None	None	1
1.7	2015_Jul_30_1414	s	s	15	4	SIC	296	RC	2	0	23VC	1	0	0.475614070892	309.0	-233.0	317	-237	1
1.7	2015_Jul_30_1414	s	s	15	4	SIC	297	RC	2	2	23VD	1	0	0.956309080124	-31.0	337.0	-26	327	1
1.7	2015_Jul_30_1414	s	s	15	4	SIC	298	ABS	0	1	24RO	0	1	2.55034804344	None	None	None	None	1
1.7	2015_Jul_30_1414	s	s	15	4	SIC	299	ABS	0	2	24RD	0	1	0.559154987335	None	None	None	None	1
1.7	2015_Jul_30_1414	s	s	15	4	SIC	300	RC	1	1	23MO	1	0	1.46255517006	-293.0	339.0	-297	332	1
1.7	2015_Jul_30_1414	s	s	15	4	SIC	301	ABS	2	1	24VO	0	1	0.547401189804	None	None	None	None	1
1.7	2015_Jul_30_1414	s	s	15	4	SIC	302	RC	0	1	23RO	1	0	2.23062300682	361.0	146.0	360	145	1
1.7	2015_Jul_30_1414	s	s	15	4	SIC	303	RC	0	2	23RD	1	0	0.418628931046	-121.0	-8.0	-130	-10	1
1.7	2015_Jul_30_1414	s	s	15	4	SIC	304	ABS	1	2	24MD	0	1	0.493783950806	None	None	None	None	1
1.7	2015_Jul_30_1414	s	s	15	4	SIC	305	ABS	1	1	24MO	0	1	1.53318405151	None	None	None	None	1
1.7	2015_Jul_30_1414	s	s	15	4	SIC	306	RC	2	2	23VD	1	0	0.787952899933	172.0	224.0	175	226	1
1.7	2015_Jul_30_1414	s	s	15	4	SIC	307	ABS	0	2	24RD	0	1	0.540694952011	None	None	None	None	1
1.7	2015_Jul_30_1414	s	s	15	4	SIC	308	RC	1	0	23MC	1	0	0.770622968674	-215.0	90.0	-213	84	1
1.7	2015_Jul_30_1414	s	s	15	4	SIC	309	ABS	2	2	24VD	0	1	0.646696090698	None	None	None	None	1
1.7	2015_Jul_30_1414	s	s	15	4	SIC	310	ABS	1	2	24MD	0	1	0.619608879089	None	None	None	None	1
1.7	2015_Jul_30_1414	s	s	15	4	SIC	311	ABS	1	0	24MC	0	1	3.09498095512	None	None	None	None	1
1.7	2015_Jul_30_1414	s	s	15	4	SIC	312	ABS	2	0	24VC	0	1	0.587904930115	None	None	None	None	1
1.7	2015_Jul_30_1414	s	s	15	4	SIC	313	RC	1	1	23MO	1	0	0.458467960358	-198.0	-4.0	-192	-12	1
1.7	2015_Jul_30_1414	s	s	15	4	SIC	314	ABS	0	1	24RO	0	1	2.53002095222	None	None	None	None	1
1.7	2015_Jul_30_1414	s	s	15	4	SIC	315	RC	2	0	23VC	1	0	0.88892698288	196.0	-382.0	195	-386	1
1.7	2015_Jul_30_1414	s	s	15	4	SIC	316	ABS	2	1	24VO	0	1	0.571249961853	None	None	None	None	1
1.7	2015_Jul_30_1414	s	s	15	4	SIC	317	RC	2	1	23VO	1	0	0.41722202301	-321.0	-168.0	-328	-166	1
1.7	2015_Jul_30_1414	s	s	15	4	SIC	318	RC	0	2	23RD	1	0	0.58789396286	-289.0	-268.0	-293	-272	1
1.7	2015_Jul_30_1414	s	s	15	4	SIC	319	RC	0	1	23RO	1	0	1.6472260952	360.0	117.0	352	111	1
1.7	2015_Jul_30_1414	s	s	15	4	SIC	320	RC	1	2	23MD	1	0	0.423128843307	31.0	-348.0	31	-351	1
1.7	2015_Jul_30_1414	s	s	15	4	SIC	321	ABS	1	2	24MD	0	1	0.667531967163	None	None	None	None	1
1.7	2015_Jul_30_1414	s	s	15	4	SIC	322	ABS	2	1	24VO	0	1	0.606422901154	None	None	None	None	1
1.7	2015_Jul_30_1414	s	s	15	4	SIC	323	ABS	1	1	24MO	0	1	0.634932041168	None	None	None	None	1
1.7	2015_Jul_30_1414	s	s	15	4	SIC	324	RC	2	1	23VO	1	0	0.646770000458	-241.0	187.0	-248	189	1
1.7	2015_Jul_30_1414	s	s	15	4	SIC	325	ABS	2	2	24VD	0	1	1.05447888374	None	None	None	None	1
1.7	2015_Jul_30_1414	s	s	15	4	SIC	326	RC	0	1	23RO	1	0	1.33854198456	328.0	-248.0	339	-248	1
1.7	2015_Jul_30_1414	s	s	15	4	SIC	327	RC	0	2	23RD	1	0	0.52904510498	14.0	-223.0	15	-220	1
1.7	2015_Jul_30_1414	s	s	15	4	SIC	328	RC	1	0	23MC	0	1	2.20037794113	-451.0	-389.0	None	None	0
1.7	2015_Jul_30_1414	s	s	15	4	SIC	329	RC	1	2	23MD	1	0	0.481924057007	-521.0	-161.0	-523	-165	1
1.7	2015_Jul_30_1414	s	s	15	4	SIC	330	RC	2	2	23VD	1	0	0.419854164124	-415.0	-120.0	-406	-124	1
1.7	2015_Jul_30_1414	s	s	15	4	SIC	331	ABS	2	0	24VC	0	1	0.517272949219	None	None	None	None	1
1.7	2015_Jul_30_1414	s	s	15	4	SIC	332	ABS	0	2	24RD	0	1	0.658567905426	None	None	None	None	1
1.7	2015_Jul_30_1414	s	s	15	4	SIC	333	ABS	1	0	24MC	0	1	1.06537103653	None	None	None	None	1
1.7	2015_Jul_30_1414	s	s	15	4	SIC	334	RC	2	0	23VC	1	0	0.399568080902	-289.0	-117.0	-284	-111	1
1.7	2015_Jul_30_1414	s	s	15	4	SIC	335	ABS	0	1	24RO	0	1	2.50654006004	None	None	None	None	1
1.7	2015_Jul_30_1414	s	s	15	4	SIC	336	RC	1	1	23MO	1	0	0.615043878555	-115.0	-96.0	-118	-89	1
1.7	2015_Jul_30_1414	s	s	15	4	SIC	337	RC	2	1	23VO	1	0	0.441668987274	228.0	182.0	234	177	1
1.7	2015_Jul_30_1414	s	s	15	4	SIC	338	RC	2	0	23VC	1	0	0.478682994843	-528.0	-4.0	-524	-10	1
1.7	2015_Jul_30_1414	s	s	15	4	SIC	339	ABS	2	0	24VC	0	1	0.576112031937	None	None	None	None	1
1.7	2015_Jul_30_1414	s	s	15	4	SIC	340	ABS	2	1	24VO	0	1	0.463771104813	None	None	None	None	1
1.7	2015_Jul_30_1414	s	s	15	4	SIC	341	ABS	1	2	24MD	0	1	0.547552108765	None	None	None	None	1
1.7	2015_Jul_30_1414	s	s	15	4	SIC	342	RC	0	2	23RD	1	0	0.434843063354	58.0	-24.0	59	-35	1
1.7	2015_Jul_30_1414	s	s	15	4	SIC	343	ABS	0	2	24RD	0	1	0.517338991165	None	None	None	None	1
1.7	2015_Jul_30_1414	s	s	15	4	SIC	344	ABS	2	2	24VD	0	1	0.420204162598	None	None	None	None	1
1.7	2015_Jul_30_1414	s	s	15	4	SIC	345	ABS	1	0	24MC	1	0	2.1034450531	None	None	401	-406	0
1.7	2015_Jul_30_1414	s	s	15	4	SIC	346	RC	0	1	23RO	1	0	1.18177700043	-44.0	-276.0	-41	-277	1
1.7	2015_Jul_30_1414	s	s	15	4	SIC	347	RC	2	2	23VD	1	0	0.537184000015	-72.0	166.0	-81	170	1
1.7	2015_Jul_30_1414	s	s	15	4	SIC	348	ABS	0	1	24RO	0	1	2.18412303925	None	None	None	None	1
1.7	2015_Jul_30_1414	s	s	15	4	SIC	349	RC	1	2	23MD	0	1	0.72648191452	-511.0	-219.0	None	None	0
1.7	2015_Jul_30_1414	s	s	15	4	SIC	350	ABS	1	1	24MO	0	1	2.57709097862	None	None	None	None	1
1.7	2015_Jul_30_1414	s	s	15	4	SIC	351	RC	1	1	23MO	1	0	0.917536973953	-420.0	232.0	-425	236	1
1.7	2015_Jul_30_1414	s	s	15	4	SIC	352	RC	1	0	23MC	1	0	0.876930952072	536.0	-59.0	539	-58	1
1.7	2015_Jul_30_1414	s	s	15	4	SIC	353	ABS	2	0	24VC	0	1	0.47848200798	None	None	None	None	1
1.7	2015_Jul_30_1414	s	s	15	4	SIC	354	ABS	1	0	24MC	0	1	0.858681917191	None	None	None	None	1
1.7	2015_Jul_30_1414	s	s	15	4	SIC	355	RC	1	0	23MC	1	0	1.3010699749	-502.0	-101.0	-499	-103	1
1.7	2015_Jul_30_1414	s	s	15	4	SIC	356	ABS	1	2	24MD	0	1	0.529085159302	None	None	None	None	1
1.7	2015_Jul_30_1414	s	s	15	4	SIC	357	RC	1	1	23MO	1	0	0.679332971573	-275.0	-300.0	-279	-301	1
1.7	2015_Jul_30_1414	s	s	15	4	SIC	358	ABS	0	2	24RD	0	1	0.776226997375	None	None	None	None	1
1.7	2015_Jul_30_1414	s	s	15	4	SIC	359	ABS	2	2	24VD	0	1	0.458320140839	None	None	None	None	1
1.7	2015_Jul_30_1414	s	s	15	4	SIC	360	RC	2	1	23VO	1	0	0.450334072113	-27.0	-290.0	-34	-290	1
1.7	2015_Jul_30_1414	s	s	15	4	SIC	361	ABS	1	1	24MO	0	1	1.47722101212	None	None	None	None	1
1.7	2015_Jul_30_1414	s	s	15	4	SIC	362	RC	0	1	23RO	0	1	2.10096287727	127.0	33.0	None	None	0
1.7	2015_Jul_30_1414	s	s	15	4	SIC	363	RC	2	0	23VC	1	0	0.526533126831	-141.0	344.0	-136	350	1
1.7	2015_Jul_30_1414	s	s	15	4	SIC	364	ABS	2	1	24VO	0	1	0.59491610527	None	None	None	None	1
1.7	2015_Jul_30_1414	s	s	15	4	SIC	365	ABS	0	1	24RO	0	1	1.28930401802	None	None	None	None	1
1.7	2015_Jul_30_1414	s	s	15	4	SIC	366	RC	2	2	23VD	1	0	0.426815032959	38.0	334.0	39	332	1
1.7	2015_Jul_30_1414	s	s	15	4	SIC	367	RC	1	2	23MD	1	0	0.42044711113	-361.0	240.0	-359	238	1
1.7	2015_Jul_30_1414	s	s	15	4	SIC	368	RC	0	2	23RD	1	0	0.441566944122	421.0	-398.0	422	-398	1
1.7	2015_Jul_30_1414	s	s	15	4	SIC	369	ABS	1	0	24MC	0	1	1.45566511154	None	None	None	None	1
1.7	2015_Jul_30_1414	s	s	15	4	SIC	370	ABS	0	1	24RO	0	1	2.23247218132	None	None	None	None	1
1.7	2015_Jul_30_1414	s	s	15	4	SIC	371	ABS	2	0	24VC	0	1	0.717381954193	None	None	None	None	1
1.7	2015_Jul_30_1414	s	s	15	4	SIC	372	RC	2	2	23VD	1	0	0.500456094742	-523.0	-293.0	-520	-291	1
1.7	2015_Jul_30_1414	s	s	15	4	SIC	373	RC	2	0	23VC	1	0	0.399521112442	-254.0	-110.0	-252	-105	1
1.7	2015_Jul_30_1414	s	s	15	4	SIC	374	RC	1	1	23MO	0	1	1.30113005638	-477.0	-403.0	None	None	0
1.7	2015_Jul_30_1414	s	s	15	4	SIC	375	ABS	2	2	24VD	0	1	0.434885025024	None	None	None	None	1
1.7	2015_Jul_30_1414	s	s	15	4	SIC	376	ABS	0	2	24RD	0	1	0.611373901367	None	None	None	None	1
1.7	2015_Jul_30_1414	s	s	15	4	SIC	377	RC	1	2	23MD	1	0	0.658465147018	356.0	-193.0	357	-193	1
1.7	2015_Jul_30_1414	s	s	15	4	SIC	378	ABS	2	1	24VO	0	1	0.535790920258	None	None	None	None	1
1.7	2015_Jul_30_1414	s	s	15	4	SIC	379	ABS	1	1	24MO	0	1	0.666863203049	None	None	None	None	1
1.7	2015_Jul_30_1414	s	s	15	4	SIC	380	RC	2	1	23VO	1	0	0.464739084244	-479.0	-371.0	-484	-381	1
1.7	2015_Jul_30_1414	s	s	15	4	SIC	381	RC	0	2	23RD	1	0	0.488897800446	518.0	150.0	520	147	1
1.7	2015_Jul_30_1414	s	s	15	4	SIC	382	ABS	1	2	24MD	0	1	0.540811061859	None	None	None	None	1
1.7	2015_Jul_30_1414	s	s	15	4	SIC	383	RC	0	1	23RO	0	1	2.25438594818	104.0	43.0	None	None	0
1.7	2015_Jul_30_1414	s	s	15	4	SIC	384	RC	1	0	23MC	1	0	0.764405012131	-404.0	-271.0	60	-41	0
1.7	2015_Jul_30_1414	s	s	15	4	SIC	385	RC	0	2	23RD	1	0	0.446636199951	78.0	357.0	70	361	1
1.7	2015_Jul_30_1414	s	s	15	4	SIC	386	ABS	1	1	24MO	0	1	1.85401582718	None	None	None	None	1
1.7	2015_Jul_30_1414	s	s	15	4	SIC	387	RC	2	0	23VC	1	0	0.42312002182	-356.0	-305.0	-344	-301	1
1.7	2015_Jul_30_1414	s	s	15	4	SIC	388	ABS	0	1	24RO	0	1	4.24430799484	None	None	None	None	1
1.7	2015_Jul_30_1414	s	s	15	4	SIC	389	ABS	1	2	24MD	0	1	0.501247882843	None	None	None	None	1
1.7	2015_Jul_30_1414	s	s	15	4	SIC	390	ABS	2	2	24VD	0	1	0.458191871643	None	None	None	None	1
1.7	2015_Jul_30_1414	s	s	15	4	SIC	391	RC	1	2	23MD	1	0	0.561566829681	327.0	128.0	318	124	1
1.7	2015_Jul_30_1414	s	s	15	4	SIC	392	RC	1	1	23MO	1	0	0.823275089264	436.0	67.0	437	65	1
1.7	2015_Jul_30_1414	s	s	15	4	SIC	393	RC	1	0	23MC	1	0	0.830190896988	80.0	109.0	88	106	1
1.7	2015_Jul_30_1414	s	s	15	4	SIC	394	ABS	2	1	24VO	0	1	0.50030708313	None	None	None	None	1
1.7	2015_Jul_30_1414	s	s	15	4	SIC	395	RC	2	2	23VD	1	0	0.465837001801	155.0	-281.0	153	-280	1
1.7	2015_Jul_30_1414	s	s	15	4	SIC	396	RC	0	1	23RO	0	1	2.75354504585	-398.0	10.0	None	None	0
1.7	2015_Jul_30_1414	s	s	15	4	SIC	397	RC	2	1	23VO	1	0	0.465371847153	366.0	257.0	360	254	1
1.7	2015_Jul_30_1414	s	s	15	4	SIC	398	ABS	2	0	24VC	0	1	0.618519067764	None	None	None	None	1
1.7	2015_Jul_30_1414	s	s	15	4	SIC	399	ABS	1	0	24MC	0	1	2.11582612991	None	None	None	None	1
1.7	2015_Jul_30_1414	s	s	15	4	SIC	400	ABS	0	2	24RD	0	1	0.559433937073	None	None	None	None	1
1.7	2015_Jul_30_1414	s	s	15	4	SIC	401	ABS	1	2	24MD	0	1	0.635313987732	None	None	None	None	1
1.7	2015_Jul_30_1414	s	s	15	4	SIC	402	RC	2	0	23VC	1	0	0.500477790833	-435.0	260.0	-435	258	1
1.7	2015_Jul_30_1414	s	s	15	4	SIC	403	RC	0	1	23RO	1	0	1.36479115486	247.0	156.0	249	161	1
1.7	2015_Jul_30_1414	s	s	15	4	SIC	404	ABS	1	0	24MC	1	0	4.57807707787	None	None	397	7	0
1.7	2015_Jul_30_1414	s	s	15	4	SIC	405	RC	1	1	23MO	1	0	0.84681391716	-356.0	259.0	-353	255	1
1.7	2015_Jul_30_1414	s	s	15	4	SIC	406	ABS	0	2	24RD	0	1	0.552605867386	None	None	None	None	1
1.7	2015_Jul_30_1414	s	s	15	4	SIC	407	ABS	2	0	24VC	0	1	0.587872982025	None	None	None	None	1
1.7	2015_Jul_30_1414	s	s	15	4	SIC	408	RC	2	2	23VD	1	0	0.443299055099	-63.0	396.0	-62	393	1
1.7	2015_Jul_30_1414	s	s	15	4	SIC	409	RC	2	1	23VO	1	0	1.9457359314	496.0	57.0	498	57	1
1.7	2015_Jul_30_1414	s	s	15	4	SIC	410	RC	1	2	23MD	1	0	0.39960193634	-292.0	-163.0	-290	-167	1
1.7	2015_Jul_30_1414	s	s	15	4	SIC	411	ABS	0	1	24RO	0	1	3.00083804131	None	None	None	None	1
1.7	2015_Jul_30_1414	s	s	15	4	SIC	412	ABS	1	1	24MO	0	1	1.2538318634	None	None	None	None	1
1.7	2015_Jul_30_1414	s	s	15	4	SIC	413	ABS	2	1	24VO	0	1	0.458415985107	None	None	None	None	1
1.7	2015_Jul_30_1414	s	s	15	4	SIC	414	ABS	2	2	24VD	0	1	0.42678809166	None	None	None	None	1
1.7	2015_Jul_30_1414	s	s	15	4	SIC	415	RC	0	2	23RD	1	0	0.493687868118	-150.0	131.0	-145	121	1
1.7	2015_Jul_30_1414	s	s	15	4	SIC	416	RC	1	0	23MC	1	0	1.14104104042	-424.0	54.0	-420	46	1
1.7	2015_Jul_30_1414	s	s	15	4	SIC	417	RC	2	2	23VD	1	0	0.411750078201	-53.0	58.0	-51	57	1
1.7	2015_Jul_30_1414	s	s	15	4	SIC	418	ABS	0	2	24RD	0	1	0.524588108063	None	None	None	None	1
1.7	2015_Jul_30_1414	s	s	15	4	SIC	419	RC	1	0	23MC	1	0	0.652818918228	-134.0	-147.0	-131	-149	1
1.7	2015_Jul_30_1414	s	s	15	4	SIC	420	RC	0	1	23RO	0	1	0.88220500946	452.0	5.0	None	None	0
1.7	2015_Jul_30_1414	s	s	15	4	SIC	421	ABS	2	2	24VD	0	1	0.470155000687	None	None	None	None	1
1.7	2015_Jul_30_1414	s	s	15	4	SIC	422	ABS	1	2	24MD	0	1	0.571218013763	None	None	None	None	1
1.7	2015_Jul_30_1414	s	s	15	4	SIC	423	RC	1	1	23MO	1	0	0.51722407341	223.0	-170.0	216	-166	1
1.7	2015_Jul_30_1414	s	s	15	4	SIC	424	ABS	1	0	24MC	0	1	0.705587863922	None	None	None	None	1
1.7	2015_Jul_30_1414	s	s	15	4	SIC	425	RC	1	2	23MD	1	0	0.426770925522	16.0	4.0	27	12	1
1.7	2015_Jul_30_1414	s	s	15	4	SIC	426	ABS	1	1	24MO	0	1	1.32139205933	None	None	None	None	1
1.7	2015_Jul_30_1414	s	s	15	4	SIC	427	RC	2	0	23VC	1	0	0.411103010178	-393.0	-20.0	-393	-28	1
1.7	2015_Jul_30_1414	s	s	15	4	SIC	428	ABS	0	1	24RO	0	1	1.59631705284	None	None	None	None	1
1.7	2015_Jul_30_1414	s	s	15	4	SIC	429	ABS	2	1	24VO	0	1	0.561487197876	None	None	None	None	1
1.7	2015_Jul_30_1414	s	s	15	4	SIC	430	ABS	2	0	24VC	0	1	0.617592811584	None	None	None	None	1
1.7	2015_Jul_30_1414	s	s	15	4	SIC	431	RC	2	1	23VO	1	0	0.470156908035	376.0	157.0	382	149	1
1.7	2015_Jul_30_1414	s	s	15	4	SIC	432	RC	0	2	23RD	1	0	0.799797058105	532.0	396.0	537	401	1
1.7	2015_Jul_30_1414	s	s	15	4	SIC	433	ABS	2	1	24VO	0	1	0.470238924026	None	None	None	None	1
1.7	2015_Jul_30_1414	s	s	15	4	SIC	434	RC	2	0	23VC	1	0	0.4299659729	362.0	80.0	361	86	1
1.7	2015_Jul_30_1414	s	s	15	4	SIC	435	RC	2	2	23VD	1	0	0.406125068665	-228.0	-138.0	-229	-131	1
1.7	2015_Jul_30_1414	s	s	15	4	SIC	436	RC	0	1	23RO	1	0	1.18325901031	-459.0	-118.0	-467	-124	1
1.7	2015_Jul_30_1414	s	s	15	4	SIC	437	ABS	1	0	24MC	1	0	0.481950998306	None	None	-98	-30	0
1.7	2015_Jul_30_1414	s	s	15	4	SIC	438	RC	1	0	23MC	1	0	0.947888851166	176.0	21.0	173	19	1
1.7	2015_Jul_30_1414	s	s	15	4	SIC	439	ABS	1	2	24MD	0	1	0.505486965179	None	None	None	None	1
1.7	2015_Jul_30_1414	s	s	15	4	SIC	440	ABS	2	2	24VD	0	1	0.51730298996	None	None	None	None	1
1.7	2015_Jul_30_1414	s	s	15	4	SIC	441	RC	0	2	23RD	1	0	0.535640954971	371.0	-134.0	377	-129	1
1.7	2015_Jul_30_1414	s	s	15	4	SIC	442	RC	1	2	23MD	1	0	0.458427906036	-539.0	-340.0	-546	-336	1
1.7	2015_Jul_30_1414	s	s	15	4	SIC	443	ABS	2	0	24VC	0	1	0.559396028519	None	None	None	None	1
1.7	2015_Jul_30_1414	s	s	15	4	SIC	444	ABS	0	1	24RO	0	1	2.58479690552	None	None	None	None	1
1.7	2015_Jul_30_1414	s	s	15	4	SIC	445	ABS	0	2	24RD	0	1	0.67627286911	None	None	None	None	1
1.7	2015_Jul_30_1414	s	s	15	4	SIC	446	RC	1	1	23MO	1	0	0.670077085495	328.0	-38.0	322	-35	1
1.7	2015_Jul_30_1414	s	s	15	4	SIC	447	RC	2	1	23VO	1	0	0.446671962738	178.0	-199.0	186	-202	1
1.7	2015_Jul_30_1414	s	s	15	4	SIC	448	ABS	1	1	24MO	0	1	1.50597000122	None	None	None	None	1
1.7	2015_Jul_30_1414	s	s	15	4	SIC	449	ABS	0	2	24RD	0	1	0.505517959595	None	None	None	None	1
1.7	2015_Jul_30_1414	s	s	15	4	SIC	450	ABS	0	1	24RO	0	1	0.882069826126	None	None	None	None	1
1.7	2015_Jul_30_1414	s	s	15	4	SIC	451	RC	0	1	23RO	1	0	1.53904294968	419.0	11.0	421	12	1
1.7	2015_Jul_30_1414	s	s	15	4	SIC	452	RC	1	1	23MO	1	0	0.446521043777	-80.0	13.0	-74	6	1
1.7	2015_Jul_30_1414	s	s	15	4	SIC	453	ABS	1	1	24MO	0	1	0.705590009689	None	None	None	None	1
1.7	2015_Jul_30_1414	s	s	15	4	SIC	454	RC	0	2	23RD	1	0	0.550099849701	75.0	357.0	78	359	1
1.7	2015_Jul_30_1414	s	s	15	4	SIC	455	RC	1	2	23MD	1	0	0.394684076309	-141.0	-141.0	-145	-142	1
1.7	2015_Jul_30_1414	s	s	15	4	SIC	456	RC	2	2	23VD	1	0	0.434891223907	200.0	365.0	209	367	1
1.7	2015_Jul_30_1414	s	s	15	4	SIC	457	RC	2	0	23VC	1	0	0.443217039108	101.0	-218.0	102	-219	1
1.7	2015_Jul_30_1414	s	s	15	4	SIC	458	ABS	2	2	24VD	0	1	0.517230033875	None	None	None	None	1
1.7	2015_Jul_30_1414	s	s	15	4	SIC	459	RC	2	1	23VO	1	0	0.521270990372	-507.0	-374.0	-503	-368	1
1.7	2015_Jul_30_1414	s	s	15	4	SIC	460	ABS	2	0	24VC	0	1	0.458477020264	None	None	None	None	1
1.7	2015_Jul_30_1414	s	s	15	4	SIC	461	ABS	1	2	24MD	0	1	0.517303943634	None	None	None	None	1
1.7	2015_Jul_30_1414	s	s	15	4	SIC	462	RC	1	0	23MC	1	0	1.70356702805	267.0	-234.0	265	-226	1
1.7	2015_Jul_30_1414	s	s	15	4	SIC	463	ABS	2	1	24VO	0	1	0.57359790802	None	None	None	None	1
1.7	2015_Jul_30_1414	s	s	15	4	SIC	464	ABS	1	0	24MC	0	1	0.865123987198	None	None	None	None	1
1.7	2015_Jul_30_1414	s	s	15	4	SIC	465	RC	2	1	23VO	1	0	0.455053806305	266.0	-54.0	269	-57	1
1.7	2015_Jul_30_1414	s	s	15	4	SIC	466	RC	0	2	23RD	1	0	0.446676969528	-121.0	231.0	-117	226	1
1.7	2015_Jul_30_1414	s	s	15	4	SIC	467	ABS	2	0	24VC	0	1	0.606663942337	None	None	None	None	1
1.7	2015_Jul_30_1414	s	s	15	4	SIC	468	RC	0	1	23RO	0	1	2.5300359726	-458.0	402.0	None	None	0
1.7	2015_Jul_30_1414	s	s	15	4	SIC	469	ABS	1	2	24MD	0	1	0.529039859772	None	None	None	None	1
1.7	2015_Jul_30_1414	s	s	15	4	SIC	470	RC	2	2	23VD	1	0	0.397077083588	513.0	109.0	510	107	1
1.7	2015_Jul_30_1414	s	s	15	4	SIC	471	ABS	1	0	24MC	1	0	1.36476588249	None	None	20	33	0
1.7	2015_Jul_30_1414	s	s	15	4	SIC	472	ABS	2	1	24VO	0	1	0.552643060684	None	None	None	None	1
1.7	2015_Jul_30_1414	s	s	15	4	SIC	473	ABS	0	1	24RO	0	1	2.00713014603	None	None	None	None	1
1.7	2015_Jul_30_1414	s	s	15	4	SIC	474	ABS	0	2	24RD	0	1	0.570008993149	None	None	None	None	1
1.7	2015_Jul_30_1414	s	s	15	4	SIC	475	RC	1	1	23MO	1	0	1.24708914757	-180.0	358.0	-170	361	1
1.7	2015_Jul_30_1414	s	s	15	4	SIC	476	RC	2	0	23VC	1	0	0.417958021164	274.0	-253.0	281	-255	1
1.7	2015_Jul_30_1414	s	s	15	4	SIC	477	RC	1	0	23MC	1	0	1.03131914139	329.0	385.0	-453	393	0
1.7	2015_Jul_30_1414	s	s	15	4	SIC	478	RC	1	2	23MD	1	0	0.394376039505	43.0	-80.0	41	-79	1
1.7	2015_Jul_30_1414	s	s	15	4	SIC	479	ABS	1	1	24MO	0	1	1.11143994331	None	None	None	None	1
1.7	2015_Jul_30_1414	s	s	15	4	SIC	480	ABS	2	2	24VD	0	1	0.446588993073	None	None	None	None	1
1.7	2015_Jul_30_1414	s	s	15	4	SIC	481	ABS	1	0	24MC	0	1	1.85652899742	None	None	None	None	1
1.7	2015_Jul_30_1414	s	s	15	4	SIC	482	RC	0	2	23RD	1	0	0.505468845367	115.0	-155.0	115	-146	1
1.7	2015_Jul_30_1414	s	s	15	4	SIC	483	RC	1	2	23MD	1	0	0.634989023209	514.0	271.0	505	271	1
1.7	2015_Jul_30_1414	s	s	15	4	SIC	484	ABS	1	2	24MD	1	0	0.714735031128	None	None	43	80	0
1.7	2015_Jul_30_1414	s	s	15	4	SIC	485	RC	2	0	23VC	1	0	0.406409025192	45.0	188.0	50	186	1
1.7	2015_Jul_30_1414	s	s	15	4	SIC	486	ABS	2	1	24VO	1	0	0.499907016754	None	None	13	78	0
1.7	2015_Jul_30_1414	s	s	15	4	SIC	487	RC	1	0	23MC	1	0	0.599637031555	257.0	-158.0	255	-158	1
1.7	2015_Jul_30_1414	s	s	15	4	SIC	488	RC	2	2	23VD	1	0	0.394550085068	-196.0	252.0	-194	252	1
1.7	2015_Jul_30_1414	s	s	15	4	SIC	489	ABS	2	0	24VC	0	1	0.670577049255	None	None	None	None	1
1.7	2015_Jul_30_1414	s	s	15	4	SIC	490	RC	1	1	23MO	1	0	0.70068192482	454.0	109.0	460	104	1
1.7	2015_Jul_30_1414	s	s	15	4	SIC	491	ABS	0	2	24RD	0	1	0.576231002808	None	None	None	None	1
1.7	2015_Jul_30_1414	s	s	15	4	SIC	492	RC	0	1	23RO	1	0	2.36174798012	-232.0	-55.0	-231	-60	1
1.7	2015_Jul_30_1414	s	s	15	4	SIC	493	ABS	1	1	24MO	0	1	2.06620192528	None	None	None	None	1
1.7	2015_Jul_30_1414	s	s	15	4	SIC	494	ABS	0	1	24RO	0	1	2.27112913132	None	None	None	None	1
1.7	2015_Jul_30_1414	s	s	15	4	SIC	495	RC	2	1	23VO	1	0	0.407197952271	54.0	104.0	52	101	1
1.7	2015_Jul_30_1414	s	s	15	4	SIC	496	ABS	2	2	24VD	0	1	0.466912031174	None	None	None	None	1
1.7	2015_Jul_30_1414	s	s	15	4	SIC	497	ABS	0	2	24RD	0	1	0.517119169235	None	None	None	None	1
1.7	2015_Jul_30_1414	s	s	15	4	SIC	498	RC	1	2	23MD	0	1	0.399496078491	345.0	-295.0	None	None	0
1.7	2015_Jul_30_1414	s	s	15	4	SIC	499	ABS	0	1	24RO	0	1	2.91853404045	None	None	None	None	1
1.7	2015_Jul_30_1414	s	s	15	4	SIC	500	RC	1	0	23MC	0	1	2.58412408829	132.0	359.0	None	None	0
1.7	2015_Jul_30_1414	s	s	15	4	SIC	501	ABS	2	1	24VO	0	1	0.552541017532	None	None	None	None	1
1.7	2015_Jul_30_1414	s	s	15	4	SIC	502	ABS	2	2	24VD	0	1	0.441684961319	None	None	None	None	1
1.7	2015_Jul_30_1414	s	s	15	4	SIC	503	ABS	2	0	24VC	0	1	0.670468091965	None	None	None	None	1
1.7	2015_Jul_30_1414	s	s	15	4	SIC	504	RC	2	1	23VO	1	0	0.467752933502	-461.0	-248.0	-468	-248	1
1.7	2015_Jul_30_1414	s	s	15	4	SIC	505	RC	2	2	23VD	1	0	0.470197916031	273.0	-396.0	283	-396	1
1.7	2015_Jul_30_1414	s	s	15	4	SIC	506	ABS	1	2	24MD	0	1	0.546136856079	None	None	None	None	1
1.7	2015_Jul_30_1414	s	s	15	4	SIC	507	ABS	1	1	24MO	0	1	1.37278413773	None	None	None	None	1
1.7	2015_Jul_30_1414	s	s	15	4	SIC	508	ABS	1	0	24MC	0	1	1.15976715088	None	None	None	None	1
1.7	2015_Jul_30_1414	s	s	15	4	SIC	509	RC	0	1	23RO	0	1	4.6138150692	-535.0	-61.0	None	None	0
1.7	2015_Jul_30_1414	s	s	15	4	SIC	510	RC	2	0	23VC	1	0	0.738317966461	22.0	8.0	19	4	1
1.7	2015_Jul_30_1414	s	s	15	4	SIC	511	RC	0	2	23RD	1	0	0.582898855209	430.0	311.0	438	310	1
1.7	2015_Jul_30_1414	s	s	15	4	SIC	512	RC	1	1	23MO	1	0	1.57661604881	397.0	-57.0	397	-51	1
1.7	2015_Jul_30_1414	s	s	15	4	SIC	513	RC	2	1	23VO	1	0	0.423089981079	85.0	279.0	84	280	1
1.7	2015_Jul_30_1414	s	s	15	4	SIC	514	RC	0	2	23RD	1	0	0.423017978668	357.0	124.0	356	120	1
1.7	2015_Jul_30_1414	s	s	15	4	SIC	515	ABS	1	0	24MC	0	1	1.85395097733	None	None	None	None	1
1.7	2015_Jul_30_1414	s	s	15	4	SIC	516	RC	0	1	23RO	0	1	3.08326888084	331.0	-200.0	None	None	0
1.7	2015_Jul_30_1414	s	s	15	4	SIC	517	ABS	2	1	24VO	0	1	0.458353996277	None	None	None	None	1
1.7	2015_Jul_30_1414	s	s	15	4	SIC	518	RC	2	0	23VC	1	0	0.453322887421	338.0	-22.0	331	-20	1
1.7	2015_Jul_30_1414	s	s	15	4	SIC	519	RC	2	2	23VD	1	0	0.434845924377	513.0	-38.0	504	-41	1
1.7	2015_Jul_30_1414	s	s	15	4	SIC	520	ABS	2	2	24VD	0	1	0.493752002716	None	None	None	None	1
1.7	2015_Jul_30_1414	s	s	15	4	SIC	521	RC	1	2	23MD	1	0	0.43199300766	-342.0	277.0	-348	271	1
1.7	2015_Jul_30_1414	s	s	15	4	SIC	522	ABS	2	0	24VC	0	1	0.458423137665	None	None	None	None	1
1.7	2015_Jul_30_1414	s	s	15	4	SIC	523	RC	1	0	23MC	1	0	1.14780902863	382.0	-229.0	375	-232	1
1.7	2015_Jul_30_1414	s	s	15	4	SIC	524	ABS	0	1	24RO	0	1	2.61846709251	None	None	None	None	1
1.7	2015_Jul_30_1414	s	s	15	4	SIC	525	RC	1	1	23MO	1	0	0.805984020233	226.0	-364.0	233	-362	1
1.7	2015_Jul_30_1414	s	s	15	4	SIC	526	ABS	1	2	24MD	0	1	0.634968042374	None	None	None	None	1
1.7	2015_Jul_30_1414	s	s	15	4	SIC	527	ABS	1	1	24MO	0	1	1.35975909233	None	None	None	None	1
1.7	2015_Jul_30_1414	s	s	15	4	SIC	528	ABS	0	2	24RD	0	1	0.505514144897	None	None	None	None	1
1.7	2015_Jul_30_1414	s	s	15	4	SIC	529	RC	1	2	23MD	0	1	0.547173976898	351.0	404.0	None	None	0
1.7	2015_Jul_30_1414	s	s	15	4	SIC	530	RC	1	0	23MC	1	0	0.576155900955	-159.0	88.0	-163	78	1
1.7	2015_Jul_30_1414	s	s	15	4	SIC	531	ABS	0	2	24RD	0	1	0.572751045227	None	None	None	None	1
1.7	2015_Jul_30_1414	s	s	15	4	SIC	532	ABS	2	1	24VO	0	1	0.478796958923	None	None	None	None	1
1.7	2015_Jul_30_1414	s	s	15	4	SIC	533	RC	0	2	23RD	1	0	0.441540002823	-177.0	15.0	-172	5	1
1.7	2015_Jul_30_1414	s	s	15	4	SIC	534	ABS	2	2	24VD	0	1	0.465606927872	None	None	None	None	1
1.7	2015_Jul_30_1414	s	s	15	4	SIC	535	ABS	2	0	24VC	0	1	0.517285823822	None	None	None	None	1
1.7	2015_Jul_30_1414	s	s	15	4	SIC	536	ABS	1	0	24MC	0	1	1.15288186073	None	None	None	None	1
1.7	2015_Jul_30_1414	s	s	15	4	SIC	537	ABS	1	1	24MO	0	1	1.45340204239	None	None	None	None	1
1.7	2015_Jul_30_1414	s	s	15	4	SIC	538	RC	2	0	23VC	1	0	0.411406993866	-204.0	-173.0	-196	-173	1
1.7	2015_Jul_30_1414	s	s	15	4	SIC	539	ABS	0	1	24RO	0	1	2.58391904831	None	None	None	None	1
1.7	2015_Jul_30_1414	s	s	15	4	SIC	540	RC	2	1	23VO	1	0	0.458436012268	-97.0	-233.0	-90	-224	1
1.7	2015_Jul_30_1414	s	s	15	4	SIC	541	RC	1	1	23MO	1	0	0.735854148865	127.0	-225.0	128	-216	1
1.7	2015_Jul_30_1414	s	s	15	4	SIC	542	RC	0	1	23RO	1	0	1.08879494667	365.0	257.0	363	253	1
1.7	2015_Jul_30_1414	s	s	15	4	SIC	543	RC	2	2	23VD	1	0	0.540726184845	-166.0	-130.0	-164	-126	1
1.7	2015_Jul_30_1414	s	s	15	4	SIC	544	ABS	1	2	24MD	0	1	0.587799072266	None	None	None	None	1
1.7	2015_Jul_30_1414	s	s	15	4	SIC	545	ABS	1	0	24MC	0	1	1.99697184563	None	None	None	None	1
1.7	2015_Jul_30_1414	s	s	15	4	SIC	546	ABS	1	1	24MO	0	1	2.07097411156	None	None	None	None	1
1.7	2015_Jul_30_1414	s	s	15	4	SIC	547	RC	0	2	23RD	1	0	0.606116056442	178.0	34.0	177	29	1
1.7	2015_Jul_30_1414	s	s	15	4	SIC	548	RC	1	0	23MC	1	0	1.89444422722	-246.0	271.0	351	48	0
1.7	2015_Jul_30_1414	s	s	15	4	SIC	549	ABS	2	1	24VO	0	1	0.505360841751	None	None	None	None	1
1.7	2015_Jul_30_1414	s	s	15	4	SIC	550	ABS	0	1	24RO	0	1	3.55416798592	None	None	None	None	1
1.7	2015_Jul_30_1414	s	s	15	4	SIC	551	RC	1	2	23MD	1	0	0.478623151779	534.0	-2.0	539	-3	1
1.7	2015_Jul_30_1414	s	s	15	4	SIC	552	RC	2	0	23VC	1	0	0.407747983932	281.0	-153.0	278	-147	1
1.7	2015_Jul_30_1414	s	s	15	4	SIC	553	RC	2	2	23VD	1	0	0.376028060913	425.0	252.0	420	257	1
1.7	2015_Jul_30_1414	s	s	15	4	SIC	554	ABS	2	0	24VC	0	1	0.458429098129	None	None	None	None	1
1.7	2015_Jul_30_1414	s	s	15	4	SIC	555	ABS	0	2	24RD	0	1	0.599637985229	None	None	None	None	1
1.7	2015_Jul_30_1414	s	s	15	4	SIC	556	RC	0	1	23RO	0	1	1.67944908142	-292.0	-129.0	None	None	0
1.7	2015_Jul_30_1414	s	s	15	4	SIC	557	RC	2	1	23VO	1	0	0.429121017456	-352.0	-62.0	-350	-65	1
1.7	2015_Jul_30_1414	s	s	15	4	SIC	558	ABS	2	2	24VD	0	1	0.458369970322	None	None	None	None	1
1.7	2015_Jul_30_1414	s	s	15	4	SIC	559	RC	1	1	23MO	1	0	0.559642076492	-412.0	41.0	-402	48	1
1.7	2015_Jul_30_1414	s	s	15	4	SIC	560	ABS	1	2	24MD	0	1	0.529058933258	None	None	None	None	1
1.7	2015_Jul_30_1414	s	s	15	4	SIC	561	ABS	1	0	24MC	0	1	2.21932196617	None	None	None	None	1
1.7	2015_Jul_30_1414	s	s	15	4	SIC	562	RC	0	1	23RO	1	0	3.68715000153	161.0	-56.0	169	-55	1
1.7	2015_Jul_30_1414	s	s	15	4	SIC	563	ABS	0	1	24RO	0	1	1.99394202232	None	None	None	None	1
1.7	2015_Jul_30_1414	s	s	15	4	SIC	564	ABS	2	1	24VO	0	1	0.476814985275	None	None	None	None	1
1.7	2015_Jul_30_1414	s	s	15	4	SIC	565	ABS	2	2	24VD	0	1	0.418043851852	None	None	None	None	1
1.7	2015_Jul_30_1414	s	s	15	4	SIC	566	RC	2	0	23VC	1	0	0.44173002243	-77.0	-379.0	-79	-382	1
1.7	2015_Jul_30_1414	s	s	15	4	SIC	567	RC	1	2	23MD	1	0	0.500236988068	-403.0	321.0	-408	314	1
1.7	2015_Jul_30_1414	s	s	15	4	SIC	568	ABS	2	0	24VC	0	1	0.528963088989	None	None	None	None	1
1.7	2015_Jul_30_1414	s	s	15	4	SIC	569	RC	0	2	23RD	1	0	0.394706010818	137.0	104.0	136	100	1
1.7	2015_Jul_30_1414	s	s	15	4	SIC	570	RC	2	2	23VD	1	0	0.423061847687	-73.0	161.0	-75	162	1
1.7	2015_Jul_30_1414	s	s	15	4	SIC	571	ABS	1	2	24MD	0	1	0.48189496994	None	None	None	None	1
1.7	2015_Jul_30_1414	s	s	15	4	SIC	572	RC	2	1	23VO	1	0	0.367967128754	-240.0	72.0	-246	69	1
1.7	2015_Jul_30_1414	s	s	15	4	SIC	573	RC	1	1	23MO	1	0	0.829370975494	-523.0	180.0	-517	185	1
1.7	2015_Jul_30_1414	s	s	15	4	SIC	574	RC	1	0	23MC	1	0	0.740953922272	-301.0	83.0	-300	74	1
1.7	2015_Jul_30_1414	s	s	15	4	SIC	575	ABS	0	2	24RD	0	1	0.670297861099	None	None	None	None	1
1.7	2015_Jul_30_1414	s	s	15	4	SIC	576	ABS	1	1	24MO	0	1	2.72482013702	None	None	None	None	1
1.7	2015_Jul_30_1414	s	s	15	4	SIC	577	ABS	2	0	24VC	1	0	0.465061903	None	None	-85	-46	0
1.7	2015_Jul_30_1414	s	s	15	4	SIC	578	RC	1	0	23MC	1	0	1.19496202469	335.0	239.0	331	234	1
1.7	2015_Jul_30_1414	s	s	15	4	SIC	579	RC	0	1	23RO	0	1	2.09447598457	-520.0	313.0	None	None	0
1.7	2015_Jul_30_1414	s	s	15	4	SIC	580	ABS	0	2	24RD	0	1	0.564806938171	None	None	None	None	1
1.7	2015_Jul_30_1414	s	s	15	4	SIC	581	RC	1	1	23MO	1	0	0.570197820663	-135.0	-67.0	-139	-71	1
1.7	2015_Jul_30_1414	s	s	15	4	SIC	582	ABS	1	0	24MC	0	1	1.09398794174	None	None	None	None	1
1.7	2015_Jul_30_1414	s	s	15	4	SIC	583	ABS	1	2	24MD	0	1	0.631656885147	None	None	None	None	1
1.7	2015_Jul_30_1414	s	s	15	4	SIC	584	RC	2	1	23VO	1	0	0.430027008057	384.0	-47.0	393	-46	1
1.7	2015_Jul_30_1414	s	s	15	4	SIC	585	ABS	2	2	24VD	0	1	0.493798971176	None	None	None	None	1
1.7	2015_Jul_30_1414	s	s	15	4	SIC	586	RC	2	0	23VC	1	0	0.418275117874	-315.0	-124.0	-315	-123	1
1.7	2015_Jul_30_1414	s	s	15	4	SIC	587	RC	2	2	23VD	1	0	0.399489879608	487.0	-137.0	487	-144	1
1.7	2015_Jul_30_1414	s	s	15	4	SIC	588	ABS	1	1	24MO	0	1	1.84233617783	None	None	None	None	1
1.7	2015_Jul_30_1414	s	s	15	4	SIC	589	RC	0	2	23RD	1	0	0.513545036316	164.0	-404.0	167	-404	1
1.7	2015_Jul_30_1414	s	s	15	4	SIC	590	ABS	0	1	24RO	0	1	2.33705592155	None	None	None	None	1
1.7	2015_Jul_30_1414	s	s	15	4	SIC	591	RC	1	2	23MD	1	0	0.453547954559	-412.0	176.0	-409	177	1
1.7	2015_Jul_30_1414	s	s	15	4	SIC	592	ABS	2	1	24VO	0	1	0.594491958618	None	None	None	None	1
