Version	Date	Stimuli	Method	Subject	Session	Condition	Trial	Target	Channel1	Channel2	Distractors	LMouseButton	RMouseButton	RT	TargetX	TargetY	ResponseX	ResponseY	Correct
1.7	2015_Jul_29_1403	s	s	15	3	Capacity	1	ABS	1	0	24MC	0	1	1.77163600922	None	None	None	None	1
1.7	2015_Jul_29_1403	s	s	15	3	Capacity	2	RC	1	0	23MC	0	1	5.23717188835	-516.0	-341.0	None	None	0
1.7	2015_Jul_29_1403	s	s	15	3	Capacity	3	ABS	2	0	24VC	0	1	0.700670957565	None	None	None	None	1
1.7	2015_Jul_29_1403	s	s	15	3	Capacity	4	RC	2	0	23VC	1	0	0.517222166061	-340.0	155.0	-335	151	1
1.7	2015_Jul_29_1403	s	s	15	3	Capacity	5	RC	1	0	23MC	1	0	1.25380802155	-111.0	-127.0	-111	-132	1
1.7	2015_Jul_29_1403	s	s	15	3	Capacity	6	RC	2	0	23VC	1	0	0.549921989441	454.0	-45.0	461	-45	1
1.7	2015_Jul_29_1403	s	s	15	3	Capacity	7	ABS	1	0	24MC	0	1	2.17198204994	None	None	None	None	1
1.7	2015_Jul_29_1403	s	s	15	3	Capacity	8	ABS	2	0	24VC	0	1	0.594704151154	None	None	None	None	1
1.7	2015_Jul_29_1403	s	s	15	3	Capacity	9	ABS	1	0	24MC	0	1	2.78898906708	None	None	None	None	1
1.7	2015_Jul_29_1403	s	s	15	3	Capacity	10	RC	1	0	23MC	1	0	0.959609985352	-199.0	-236.0	-199	-232	1
1.7	2015_Jul_29_1403	s	s	15	3	Capacity	11	RC	2	0	23VC	1	0	0.84676194191	-351.0	352.0	-352	349	1
1.7	2015_Jul_29_1403	s	s	15	3	Capacity	12	ABS	2	0	24VC	0	1	0.64413022995	None	None	None	None	1
1.7	2015_Jul_29_1403	s	s	15	3	Capacity	13	RC	2	0	23VC	1	0	0.64195394516	324.0	-314.0	324	-323	1
1.7	2015_Jul_29_1403	s	s	15	3	Capacity	14	ABS	2	0	24VC	0	1	0.870237827301	None	None	None	None	1
1.7	2015_Jul_29_1403	s	s	15	3	Capacity	15	RC	1	0	23MC	1	0	0.941033840179	469.0	-36.0	485	-309	0
1.7	2015_Jul_29_1403	s	s	15	3	Capacity	16	ABS	1	0	24MC	0	1	2.70647096634	None	None	None	None	1
1.7	2015_Jul_29_1403	s	s	15	3	Capacity	17	ABS	1	0	24MC	0	1	6.51664185524	None	None	None	None	1
1.7	2015_Jul_29_1403	s	s	15	3	Capacity	18	RC	1	0	23MC	1	0	2.53617191315	-415.0	-310.0	-404	-304	1
1.7	2015_Jul_29_1403	s	s	15	3	Capacity	19	RC	2	0	23VC	1	0	0.48965716362	118.0	124.0	124	118	1
1.7	2015_Jul_29_1403	s	s	15	3	Capacity	20	ABS	2	0	24VC	0	1	0.961917877197	None	None	None	None	1
1.7	2015_Jul_29_1403	s	s	15	3	Capacity	21	ABS	1	0	24MC	0	1	1.77676391602	None	None	None	None	1
1.7	2015_Jul_29_1403	s	s	15	3	Capacity	22	RC	2	0	23VC	1	0	0.517249107361	-257.0	365.0	-250	361	1
1.7	2015_Jul_29_1403	s	s	15	3	Capacity	23	RC	1	0	23MC	1	0	1.62369799614	440.0	-298.0	440	-299	1
1.7	2015_Jul_29_1403	s	s	15	3	Capacity	24	ABS	2	0	24VC	0	1	0.747335195541	None	None	None	None	1
1.7	2015_Jul_29_1403	s	s	15	3	Capacity	25	RC	1	0	23MC	1	0	0.714723110199	183.0	-5.0	185	-7	1
1.7	2015_Jul_29_1403	s	s	15	3	Capacity	26	RC	2	0	23VC	1	0	0.523876905441	148.0	-307.0	143	-310	1
1.7	2015_Jul_29_1403	s	s	15	3	Capacity	27	ABS	1	0	24MC	0	1	2.01212787628	None	None	None	None	1
1.7	2015_Jul_29_1403	s	s	15	3	Capacity	28	ABS	2	0	24VC	0	1	0.764464139938	None	None	None	None	1
1.7	2015_Jul_29_1403	s	s	15	3	Capacity	29	ABS	2	0	24VC	0	1	2.49470210075	None	None	None	None	1
1.7	2015_Jul_29_1403	s	s	15	3	Capacity	30	ABS	1	0	24MC	0	1	3.35479092598	None	None	None	None	1
1.7	2015_Jul_29_1403	s	s	15	3	Capacity	31	RC	1	0	23MC	0	1	1.27057313919	335.0	40.0	None	None	0
1.7	2015_Jul_29_1403	s	s	15	3	Capacity	32	RC	2	0	23VC	1	0	0.606593847275	254.0	-6.0	261	-12	1
1.7	2015_Jul_29_1403	s	s	15	3	Capacity	33	ABS	1	0	24MC	0	1	1.44224619865	None	None	None	None	1
1.7	2015_Jul_29_1403	s	s	15	3	Capacity	34	RC	1	0	23MC	1	0	1.22824907303	-80.0	-286.0	-75	-287	1
1.7	2015_Jul_29_1403	s	s	15	3	Capacity	35	ABS	2	0	24VC	0	1	0.752753019333	None	None	None	None	1
1.7	2015_Jul_29_1403	s	s	15	3	Capacity	36	RC	2	0	23VC	1	0	0.623257875443	202.0	-203.0	204	-210	1
1.7	2015_Jul_29_1403	s	s	15	3	Capacity	37	RC	2	0	23VC	1	0	0.446652173996	340.0	-243.0	335	-245	1
1.7	2015_Jul_29_1403	s	s	15	3	Capacity	38	RC	1	0	23MC	1	0	4.70495510101	135.0	224.0	134	223	1
1.7	2015_Jul_29_1403	s	s	15	3	Capacity	39	ABS	1	0	24MC	0	1	1.61871004105	None	None	None	None	1
1.7	2015_Jul_29_1403	s	s	15	3	Capacity	40	ABS	2	0	24VC	0	1	0.560841083527	None	None	None	None	1
1.7	2015_Jul_29_1403	s	s	15	3	Capacity	41	RC	1	0	23MC	1	0	1.57667207718	338.0	-176.0	343	-178	1
1.7	2015_Jul_29_1403	s	s	15	3	Capacity	42	ABS	2	0	24VC	0	1	0.608839988708	None	None	None	None	1
1.7	2015_Jul_29_1403	s	s	15	3	Capacity	43	RC	2	0	23VC	1	0	0.481946229935	147.0	-387.0	149	-387	1
1.7	2015_Jul_29_1403	s	s	15	3	Capacity	44	ABS	1	0	24MC	0	1	1.45900082588	None	None	None	None	1
1.7	2015_Jul_29_1403	s	s	15	3	Capacity	45	RC	2	0	23VC	1	0	0.667412996292	39.0	-54.0	28	-52	1
1.7	2015_Jul_29_1403	s	s	15	3	Capacity	46	RC	1	0	23MC	1	0	2.31808805466	-106.0	40.0	-102	37	1
1.7	2015_Jul_29_1403	s	s	15	3	Capacity	47	ABS	2	0	24VC	0	1	0.512048006058	None	None	None	None	1
1.7	2015_Jul_29_1403	s	s	15	3	Capacity	48	ABS	1	0	24MC	0	1	2.04745292664	None	None	None	None	1
1.7	2015_Jul_29_1403	s	s	15	3	Capacity	49	ABS	2	0	24VC	0	1	0.952846765518	None	None	None	None	1
1.7	2015_Jul_29_1403	s	s	15	3	Capacity	50	ABS	1	0	24MC	0	1	2.60729289055	None	None	None	None	1
1.7	2015_Jul_29_1403	s	s	15	3	Capacity	51	RC	1	0	23MC	1	0	1.41928792	-361.0	-60.0	-361	-65	1
1.7	2015_Jul_29_1403	s	s	15	3	Capacity	52	RC	2	0	23VC	1	0	0.482216119766	-412.0	-25.0	-397	-17	1
1.7	2015_Jul_29_1403	s	s	15	3	Capacity	53	RC	2	0	23VC	1	0	0.488639116287	390.0	131.0	381	129	1
1.7	2015_Jul_29_1403	s	s	15	3	Capacity	54	RC	1	0	23MC	1	0	2.30078196526	-291.0	47.0	-291	41	1
1.7	2015_Jul_29_1403	s	s	15	3	Capacity	55	ABS	1	0	24MC	0	1	1.12682104111	None	None	None	None	1
1.7	2015_Jul_29_1403	s	s	15	3	Capacity	56	ABS	2	0	24VC	0	1	0.571263074875	None	None	None	None	1
1.7	2015_Jul_29_1403	s	s	15	3	Capacity	57	ABS	2	0	24VC	0	1	1.18314504623	None	None	None	None	1
1.7	2015_Jul_29_1403	s	s	15	3	Capacity	58	RC	1	0	23MC	0	1	1.11429286003	360.0	-204.0	None	None	0
1.7	2015_Jul_29_1403	s	s	15	3	Capacity	59	RC	2	0	23VC	1	0	0.608768939972	348.0	106.0	360	111	1
1.7	2015_Jul_29_1403	s	s	15	3	Capacity	60	ABS	1	0	24MC	0	1	2.48955202103	None	None	None	None	1
1.7	2015_Jul_29_1403	s	s	15	3	Capacity	61	ABS	1	0	24MC	0	1	1.39504003525	None	None	None	None	1
1.7	2015_Jul_29_1403	s	s	15	3	Capacity	62	ABS	2	0	24VC	0	1	1.17300796509	None	None	None	None	1
1.7	2015_Jul_29_1403	s	s	15	3	Capacity	63	RC	2	0	23VC	1	0	0.712236881256	228.0	-192.0	228	-196	1
1.7	2015_Jul_29_1403	s	s	15	3	Capacity	64	RC	1	0	23MC	0	1	0.855432033539	-167.0	165.0	None	None	0
1.7	2015_Jul_29_1403	s	s	15	3	Capacity	65	ABS	2	0	24VC	0	1	2.7066488266	None	None	None	None	1
1.7	2015_Jul_29_1403	s	s	15	3	Capacity	66	RC	2	0	23VC	1	0	0.512480974197	-352.0	-345.0	-350	-352	1
1.7	2015_Jul_29_1403	s	s	15	3	Capacity	67	ABS	1	0	24MC	0	1	3.94249200821	None	None	None	None	1
1.7	2015_Jul_29_1403	s	s	15	3	Capacity	68	RC	1	0	23MC	0	1	2.81247496605	-163.0	-370.0	None	None	0
1.7	2015_Jul_29_1403	s	s	15	3	Capacity	69	ABS	1	0	24MC	0	1	1.98858118057	None	None	None	None	1
1.7	2015_Jul_29_1403	s	s	15	3	Capacity	70	ABS	2	0	24VC	0	1	0.62310218811	None	None	None	None	1
1.7	2015_Jul_29_1403	s	s	15	3	Capacity	71	RC	2	0	23VC	1	0	0.537536144257	74.0	362.0	78	357	1
1.7	2015_Jul_29_1403	s	s	15	3	Capacity	72	RC	1	0	23MC	1	0	0.667670965195	-378.0	18.0	-377	11	1
1.7	2015_Jul_29_1403	s	s	15	3	Capacity	73	ABS	2	0	24VC	0	1	0.617805957794	None	None	None	None	1
1.7	2015_Jul_29_1403	s	s	15	3	Capacity	74	ABS	1	0	24MC	0	1	1.94140982628	None	None	None	None	1
1.7	2015_Jul_29_1403	s	s	15	3	Capacity	75	RC	1	0	23MC	1	0	1.04354500771	-446.0	-252.0	-443	-251	1
1.7	2015_Jul_29_1403	s	s	15	3	Capacity	76	RC	2	0	23VC	1	0	0.599727153778	483.0	290.0	491	285	1
1.7	2015_Jul_29_1403	s	s	15	3	Capacity	77	RC	2	0	23VC	1	0	0.434915065765	185.0	-240.0	178	-240	1
1.7	2015_Jul_29_1403	s	s	15	3	Capacity	78	ABS	2	0	24VC	0	1	0.643606185913	None	None	None	None	1
1.7	2015_Jul_29_1403	s	s	15	3	Capacity	79	RC	1	0	23MC	1	0	4.68062901497	-233.0	401.0	-230	396	1
1.7	2015_Jul_29_1403	s	s	15	3	Capacity	80	ABS	1	0	24MC	0	1	3.51610803604	None	None	None	None	1
1.7	2015_Jul_29_1403	s	s	15	3	Capacity	81	ABS	1	0	24MC	0	1	3.07149982452	None	None	None	None	1
1.7	2015_Jul_29_1403	s	s	15	3	Capacity	82	RC	1	0	23MC	1	0	1.55305600166	-134.0	9.0	-138	12	1
1.7	2015_Jul_29_1403	s	s	15	3	Capacity	83	ABS	2	0	24VC	0	1	0.690225124359	None	None	None	None	1
1.7	2015_Jul_29_1403	s	s	15	3	Capacity	84	RC	2	0	23VC	1	0	0.51223897934	-537.0	199.0	-527	200	1
1.7	2015_Jul_29_1403	s	s	15	3	Capacity	85	RC	1	0	23MC	1	0	1.68952584267	433.0	254.0	442	255	1
1.7	2015_Jul_29_1403	s	s	15	3	Capacity	86	ABS	1	0	24MC	0	1	3.09504008293	None	None	None	None	1
1.7	2015_Jul_29_1403	s	s	15	3	Capacity	87	RC	2	0	23VC	1	0	0.523988962173	-516.0	-132.0	-510	-129	1
1.7	2015_Jul_29_1403	s	s	15	3	Capacity	88	ABS	2	0	24VC	0	1	0.666543960571	None	None	None	None	1
1.7	2015_Jul_29_1403	s	s	15	3	Capacity	89	RC	1	0	23MC	0	1	0.724048852921	-462.0	357.0	None	None	0
1.7	2015_Jul_29_1403	s	s	15	3	Capacity	90	ABS	2	0	24VC	0	1	0.611397981644	None	None	None	None	1
1.7	2015_Jul_29_1403	s	s	15	3	Capacity	91	RC	2	0	23VC	1	0	0.537567138672	-437.0	-142.0	-435	-150	1
1.7	2015_Jul_29_1403	s	s	15	3	Capacity	92	ABS	1	0	24MC	0	1	5.57885599136	None	None	None	None	1
1.7	2015_Jul_29_1403	s	s	15	3	Capacity	1	RC	0	2	23RD	1	0	2.00650310516	-369.0	-144.0	-367	-146	1
1.7	2015_Jul_29_1403	s	s	15	3	Capacity	2	RC	0	1	23RO	1	0	3.48342895508	277.0	-267.0	271	-264	1
1.7	2015_Jul_29_1403	s	s	15	3	Capacity	3	ABS	0	1	24RO	0	1	4.9900457859	None	None	None	None	1
1.7	2015_Jul_29_1403	s	s	15	3	Capacity	4	ABS	0	2	24RD	0	1	0.83488702774	None	None	None	None	1
1.7	2015_Jul_29_1403	s	s	15	3	Capacity	5	ABS	0	1	24RO	0	1	2.12486481667	None	None	None	None	1
1.7	2015_Jul_29_1403	s	s	15	3	Capacity	6	RC	0	1	23RO	1	0	2.22403407097	458.0	372.0	458	359	1
1.7	2015_Jul_29_1403	s	s	15	3	Capacity	7	RC	0	2	23RD	1	0	0.823318958282	530.0	44.0	529	47	1
1.7	2015_Jul_29_1403	s	s	15	3	Capacity	8	ABS	0	2	24RD	0	1	1.45894598961	None	None	None	None	1
1.7	2015_Jul_29_1403	s	s	15	3	Capacity	9	RC	0	1	23RO	1	0	0.760105848312	-288.0	-226.0	-282	-218	1
1.7	2015_Jul_29_1403	s	s	15	3	Capacity	10	ABS	0	1	24RO	0	1	4.91474199295	None	None	None	None	1
1.7	2015_Jul_29_1403	s	s	15	3	Capacity	11	RC	0	2	23RD	1	0	0.594992876053	-369.0	-205.0	-358	-197	1
1.7	2015_Jul_29_1403	s	s	15	3	Capacity	12	ABS	0	2	24RD	0	1	0.759599924088	None	None	None	None	1
1.7	2015_Jul_29_1403	s	s	15	3	Capacity	13	RC	0	1	23RO	1	0	1.73847198486	-437.0	395.0	-433	399	1
1.7	2015_Jul_29_1403	s	s	15	3	Capacity	14	ABS	0	1	24RO	0	1	3.99616599083	None	None	None	None	1
1.7	2015_Jul_29_1403	s	s	15	3	Capacity	15	RC	0	2	23RD	1	0	0.477093935013	-97.0	58.0	-95	53	1
1.7	2015_Jul_29_1403	s	s	15	3	Capacity	16	ABS	0	2	24RD	0	1	0.635005235672	None	None	None	None	1
1.7	2015_Jul_29_1403	s	s	15	3	Capacity	17	ABS	0	1	24RO	0	1	4.30254292488	None	None	None	None	1
1.7	2015_Jul_29_1403	s	s	15	3	Capacity	18	RC	0	1	23RO	1	0	1.98894095421	263.0	367.0	264	359	1
1.7	2015_Jul_29_1403	s	s	15	3	Capacity	19	RC	0	2	23RD	1	0	0.771306991577	391.0	-161.0	382	-163	1
1.7	2015_Jul_29_1403	s	s	15	3	Capacity	20	ABS	0	2	24RD	0	1	2.65609002113	None	None	None	None	1
1.7	2015_Jul_29_1403	s	s	15	3	Capacity	21	RC	0	1	23RO	1	0	2.68971586227	370.0	-212.0	364	-209	1
1.7	2015_Jul_29_1403	s	s	15	3	Capacity	22	ABS	0	1	24RO	0	1	6.76767301559	None	None	None	None	1
1.7	2015_Jul_29_1403	s	s	15	3	Capacity	23	ABS	0	2	24RD	0	1	0.606141805649	None	None	None	None	1
1.7	2015_Jul_29_1403	s	s	15	3	Capacity	24	RC	0	2	23RD	0	1	0.595026016235	162.0	30.0	None	None	0
1.7	2015_Jul_29_1403	s	s	15	3	Capacity	25	ABS	0	1	24RO	0	1	2.94833397865	None	None	None	None	1
1.7	2015_Jul_29_1403	s	s	15	3	Capacity	26	ABS	0	2	24RD	0	1	0.606599092484	None	None	None	None	1
1.7	2015_Jul_29_1403	s	s	15	3	Capacity	27	RC	0	1	23RO	1	0	1.86682605743	-215.0	287.0	-214	284	1
1.7	2015_Jul_29_1403	s	s	15	3	Capacity	28	RC	0	2	23RD	1	0	0.811572790146	-199.0	399.0	-199	405	1
1.7	2015_Jul_29_1403	s	s	15	3	Capacity	29	RC	0	2	23RD	1	0	0.544432878494	518.0	92.0	527	92	1
1.7	2015_Jul_29_1403	s	s	15	3	Capacity	30	ABS	0	1	24RO	0	1	2.44761514664	None	None	None	None	1
1.7	2015_Jul_29_1403	s	s	15	3	Capacity	31	RC	0	1	23RO	1	0	2.16049289703	-523.0	205.0	-520	205	1
1.7	2015_Jul_29_1403	s	s	15	3	Capacity	32	ABS	0	2	24RD	0	1	0.593533992767	None	None	None	None	1
1.7	2015_Jul_29_1403	s	s	15	3	Capacity	33	RC	0	1	23RO	1	0	0.950141906738	-16.0	-279.0	-21	-281	1
1.7	2015_Jul_29_1403	s	s	15	3	Capacity	34	ABS	0	2	24RD	0	1	0.693815946579	None	None	None	None	1
1.7	2015_Jul_29_1403	s	s	15	3	Capacity	35	RC	0	2	23RD	1	0	0.517304182053	400.0	-39.0	400	-35	1
1.7	2015_Jul_29_1403	s	s	15	3	Capacity	36	ABS	0	1	24RO	0	1	3.69573521614	None	None	None	None	1
1.7	2015_Jul_29_1403	s	s	15	3	Capacity	37	ABS	0	1	24RO	0	1	2.98400998116	None	None	None	None	1
1.7	2015_Jul_29_1403	s	s	15	3	Capacity	38	RC	0	2	23RD	1	0	0.537010908127	431.0	166.0	433	164	1
1.7	2015_Jul_29_1403	s	s	15	3	Capacity	39	ABS	0	2	24RD	0	1	0.85866189003	None	None	None	None	1
1.7	2015_Jul_29_1403	s	s	15	3	Capacity	40	RC	0	1	23RO	1	0	2.54180908203	490.0	155.0	495	157	1
1.7	2015_Jul_29_1403	s	s	15	3	Capacity	41	ABS	0	2	24RD	0	1	0.607990026474	None	None	None	None	1
1.7	2015_Jul_29_1403	s	s	15	3	Capacity	42	RC	0	2	23RD	1	0	0.761058807373	152.0	370.0	154	366	1
1.7	2015_Jul_29_1403	s	s	15	3	Capacity	43	RC	0	1	23RO	0	1	3.14822506905	448.0	290.0	None	None	0
1.7	2015_Jul_29_1403	s	s	15	3	Capacity	44	ABS	0	1	24RO	0	1	4.23679184914	None	None	None	None	1
1.7	2015_Jul_29_1403	s	s	15	3	Capacity	45	ABS	0	1	24RO	0	1	3.72813606262	None	None	None	None	1
1.7	2015_Jul_29_1403	s	s	15	3	Capacity	46	ABS	0	2	24RD	0	1	0.724662780762	None	None	None	None	1
1.7	2015_Jul_29_1403	s	s	15	3	Capacity	47	RC	0	2	23RD	1	0	1.19696712494	66.0	408.0	68	406	1
1.7	2015_Jul_29_1403	s	s	15	3	Capacity	48	RC	0	1	23RO	0	1	5.63745307922	-34.0	-237.0	None	None	0
1.7	2015_Jul_29_1403	s	s	15	3	Capacity	49	ABS	0	1	24RO	0	1	3.97283887863	None	None	None	None	1
1.7	2015_Jul_29_1403	s	s	15	3	Capacity	50	RC	0	1	23RO	1	0	1.11120605469	-320.0	-375.0	-317	-384	1
1.7	2015_Jul_29_1403	s	s	15	3	Capacity	51	ABS	0	2	24RD	0	1	1.64720511436	None	None	None	None	1
1.7	2015_Jul_29_1403	s	s	15	3	Capacity	52	RC	0	2	23RD	1	0	0.811438083649	-16.0	-36.0	-20	-39	1
1.7	2015_Jul_29_1403	s	s	15	3	Capacity	53	RC	0	1	23RO	1	0	1.0436091423	-274.0	-285.0	-269	-288	1
1.7	2015_Jul_29_1403	s	s	15	3	Capacity	54	RC	0	2	23RD	1	0	0.606219053268	434.0	-289.0	439	-287	1
1.7	2015_Jul_29_1403	s	s	15	3	Capacity	55	ABS	0	2	24RD	0	1	0.847234964371	None	None	None	None	1
1.7	2015_Jul_29_1403	s	s	15	3	Capacity	56	ABS	0	1	24RO	0	1	5.60898900032	None	None	None	None	1
1.7	2015_Jul_29_1403	s	s	15	3	Capacity	57	ABS	0	2	24RD	0	1	0.560437917709	None	None	None	None	1
1.7	2015_Jul_29_1403	s	s	15	3	Capacity	58	RC	0	1	23RO	1	0	1.15287899971	-340.0	-42.0	-337	-40	1
1.7	2015_Jul_29_1403	s	s	15	3	Capacity	59	RC	0	2	23RD	1	0	0.561890125275	-227.0	212.0	-222	215	1
1.7	2015_Jul_29_1403	s	s	15	3	Capacity	60	ABS	0	1	24RO	0	1	4.64532804489	None	None	None	None	1
1.7	2015_Jul_29_1403	s	s	15	3	Capacity	61	RC	0	2	23RD	1	0	0.596957921982	394.0	-217.0	396	-224	1
1.7	2015_Jul_29_1403	s	s	15	3	Capacity	62	ABS	0	2	24RD	0	1	0.724400997162	None	None	None	None	1
1.7	2015_Jul_29_1403	s	s	15	3	Capacity	63	RC	0	1	23RO	1	0	1.03024792671	-50.0	228.0	-47	231	1
1.7	2015_Jul_29_1403	s	s	15	3	Capacity	64	ABS	0	1	24RO	0	1	5.42040777206	None	None	None	None	1
1.7	2015_Jul_29_1403	s	s	15	3	Capacity	65	ABS	0	2	24RD	0	1	0.67677283287	None	None	None	None	1
1.7	2015_Jul_29_1403	s	s	15	3	Capacity	66	RC	0	1	23RO	0	1	3.8080060482	-453.0	-408.0	None	None	0
1.7	2015_Jul_29_1403	s	s	15	3	Capacity	67	RC	0	2	23RD	1	0	0.535805940628	295.0	-76.0	297	-72	1
1.7	2015_Jul_29_1403	s	s	15	3	Capacity	68	ABS	0	1	24RO	0	1	7.18618297577	None	None	None	None	1
1.7	2015_Jul_29_1403	s	s	15	3	Capacity	69	ABS	0	1	24RO	0	1	6.9792368412	None	None	None	None	1
1.7	2015_Jul_29_1403	s	s	15	3	Capacity	70	ABS	0	2	24RD	0	1	1.38322806358	None	None	None	None	1
1.7	2015_Jul_29_1403	s	s	15	3	Capacity	71	RC	0	2	23RD	1	0	0.941051006317	108.0	220.0	109	225	1
1.7	2015_Jul_29_1403	s	s	15	3	Capacity	72	RC	0	1	23RO	1	0	4.38401603699	488.0	149.0	486	142	1
1.7	2015_Jul_29_1403	s	s	15	3	Capacity	73	ABS	0	2	24RD	0	1	0.665415048599	None	None	None	None	1
1.7	2015_Jul_29_1403	s	s	15	3	Capacity	74	RC	0	2	23RD	1	0	0.653797864914	-284.0	-397.0	-280	-403	1
1.7	2015_Jul_29_1403	s	s	15	3	Capacity	75	ABS	0	1	24RO	0	1	8.9400370121	None	None	None	None	1
1.7	2015_Jul_29_1403	s	s	15	3	Capacity	76	RC	0	1	23RO	1	0	2.58508610725	-5.0	323.0	-7	308	1
1.7	2015_Jul_29_1403	s	s	15	3	Capacity	77	ABS	0	1	24RO	0	1	3.69529390335	None	None	None	None	1
1.7	2015_Jul_29_1403	s	s	15	3	Capacity	78	RC	0	1	23RO	1	0	2.23076295853	411.0	344.0	417	341	1
1.7	2015_Jul_29_1403	s	s	15	3	Capacity	79	ABS	0	2	24RD	1	0	1.24371600151	None	None	-161	-103	0
1.7	2015_Jul_29_1403	s	s	15	3	Capacity	80	RC	0	2	23RD	1	0	0.611387014389	-156.0	-72.0	-146	-69	1
1.7	2015_Jul_29_1403	s	s	15	3	Capacity	81	ABS	0	2	24RD	0	1	1.01168894768	None	None	None	None	1
1.7	2015_Jul_29_1403	s	s	15	3	Capacity	82	RC	0	1	23RO	1	0	4.35173797607	213.0	294.0	217	281	1
1.7	2015_Jul_29_1403	s	s	15	3	Capacity	83	ABS	0	1	24RO	0	1	4.28119587898	None	None	None	None	1
1.7	2015_Jul_29_1403	s	s	15	3	Capacity	84	RC	0	2	23RD	1	0	0.465214967728	-80.0	141.0	-78	126	1
1.7	2015_Jul_29_1403	s	s	15	3	Capacity	85	RC	0	2	23RD	1	0	0.455679178238	-245.0	-89.0	-236	-92	1
1.7	2015_Jul_29_1403	s	s	15	3	Capacity	86	RC	0	1	23RO	1	0	2.34172296524	114.0	408.0	114	391	1
1.7	2015_Jul_29_1403	s	s	15	3	Capacity	87	ABS	0	1	24RO	0	1	4.83197402954	None	None	None	None	1
1.7	2015_Jul_29_1403	s	s	15	3	Capacity	88	ABS	0	2	24RD	0	1	0.748319149017	None	None	None	None	1
1.7	2015_Jul_29_1403	s	s	15	3	Capacity	89	RC	0	2	23RD	1	0	0.535925865173	-388.0	248.0	-379	248	1
1.7	2015_Jul_29_1403	s	s	15	3	Capacity	90	ABS	0	2	24RD	0	1	0.917442083359	None	None	None	None	1
1.7	2015_Jul_29_1403	s	s	15	3	Capacity	91	ABS	0	1	24RO	0	1	4.27207183838	None	None	None	None	1
1.7	2015_Jul_29_1403	s	s	15	3	Capacity	92	RC	0	1	23RO	1	0	0.976197004318	-344.0	160.0	-347	156	1
1.7	2015_Jul_29_1403	s	s	15	3	SIC	1	ABS	0	1	24RO	0	1	14.0416769981	None	None	None	None	1
1.7	2015_Jul_29_1403	s	s	15	3	SIC	2	ABS	1	2	24MD	1	0	1.78542017937	None	None	-55	-7	0
1.7	2015_Jul_29_1403	s	s	15	3	SIC	3	ABS	1	1	24MO	0	1	6.27871704102	None	None	None	None	1
1.7	2015_Jul_29_1403	s	s	15	3	SIC	4	RC	0	2	23RD	1	0	1.265365839	496.0	219.0	503	216	1
1.7	2015_Jul_29_1403	s	s	15	3	SIC	5	RC	2	2	23VD	1	0	0.494024991989	-38.0	-59.0	-37	-64	1
1.7	2015_Jul_29_1403	s	s	15	3	SIC	6	ABS	0	2	24RD	0	1	0.723445892334	None	None	None	None	1
1.7	2015_Jul_29_1403	s	s	15	3	SIC	7	RC	1	0	23MC	1	0	0.811476945877	82.0	-154.0	82	-149	1
1.7	2015_Jul_29_1403	s	s	15	3	SIC	8	RC	2	1	23VO	1	0	0.411351919174	80.0	-236.0	81	-243	1
1.7	2015_Jul_29_1403	s	s	15	3	SIC	9	ABS	1	0	24MC	0	1	2.58326888084	None	None	None	None	1
1.7	2015_Jul_29_1403	s	s	15	3	SIC	10	RC	0	1	23RO	1	0	1.55031204224	534.0	226.0	535	218	1
1.7	2015_Jul_29_1403	s	s	15	3	SIC	11	RC	1	1	23MO	1	0	0.729214906693	-174.0	-4.0	-166	-6	1
1.7	2015_Jul_29_1403	s	s	15	3	SIC	12	ABS	2	0	24VC	0	1	0.705687046051	None	None	None	None	1
1.7	2015_Jul_29_1403	s	s	15	3	SIC	13	ABS	2	1	24VO	0	1	1.45079803467	None	None	None	None	1
1.7	2015_Jul_29_1403	s	s	15	3	SIC	14	ABS	2	2	24VD	0	1	0.547477006912	None	None	None	None	1
1.7	2015_Jul_29_1403	s	s	15	3	SIC	15	RC	2	0	23VC	1	0	0.76047706604	-470.0	283.0	-479	280	1
1.7	2015_Jul_29_1403	s	s	15	3	SIC	16	RC	1	2	23MD	1	0	1.07760715485	293.0	340.0	295	342	1
1.7	2015_Jul_29_1403	s	s	15	3	SIC	17	RC	0	1	23RO	1	0	1.24170398712	149.0	-367.0	146	-373	1
1.7	2015_Jul_29_1403	s	s	15	3	SIC	18	ABS	2	1	24VO	0	1	0.56440114975	None	None	None	None	1
1.7	2015_Jul_29_1403	s	s	15	3	SIC	19	RC	2	0	23VC	1	0	0.611498832703	527.0	-347.0	533	-346	1
1.7	2015_Jul_29_1403	s	s	15	3	SIC	20	RC	1	1	23MO	1	0	1.25327301025	266.0	185.0	263	187	1
1.7	2015_Jul_29_1403	s	s	15	3	SIC	21	RC	1	2	23MD	1	0	0.5054500103	149.0	-408.0	142	-413	1
1.7	2015_Jul_29_1403	s	s	15	3	SIC	22	ABS	0	1	24RO	0	1	4.37291502953	None	None	None	None	1
1.7	2015_Jul_29_1403	s	s	15	3	SIC	23	ABS	1	1	24MO	0	1	8.02202391624	None	None	None	None	1
1.7	2015_Jul_29_1403	s	s	15	3	SIC	24	ABS	1	0	24MC	0	1	1.14774513245	None	None	None	None	1
1.7	2015_Jul_29_1403	s	s	15	3	SIC	25	RC	2	1	23VO	1	0	0.454887151718	-403.0	25.0	-399	21	1
1.7	2015_Jul_29_1403	s	s	15	3	SIC	26	RC	1	0	23MC	1	0	3.11268091202	404.0	-360.0	398	-367	1
1.7	2015_Jul_29_1403	s	s	15	3	SIC	27	ABS	1	2	24MD	0	1	1.10089898109	None	None	None	None	1
1.7	2015_Jul_29_1403	s	s	15	3	SIC	28	ABS	2	0	24VC	0	1	1.02343010902	None	None	None	None	1
1.7	2015_Jul_29_1403	s	s	15	3	SIC	29	ABS	2	2	24VD	0	1	0.47021818161	None	None	None	None	1
1.7	2015_Jul_29_1403	s	s	15	3	SIC	30	RC	2	2	23VD	1	0	0.443125963211	218.0	206.0	218	207	1
1.7	2015_Jul_29_1403	s	s	15	3	SIC	31	ABS	0	2	24RD	0	1	0.697488069534	None	None	None	None	1
1.7	2015_Jul_29_1403	s	s	15	3	SIC	32	RC	0	2	23RD	0	1	0.564373970032	162.0	327.0	None	None	0
1.7	2015_Jul_29_1403	s	s	15	3	SIC	33	RC	1	1	23MO	0	1	1.23019814491	522.0	-143.0	None	None	0
1.7	2015_Jul_29_1403	s	s	15	3	SIC	34	ABS	0	1	24RO	0	1	6.26129102707	None	None	None	None	1
1.7	2015_Jul_29_1403	s	s	15	3	SIC	35	ABS	1	0	24MC	0	1	1.64376282692	None	None	None	None	1
1.7	2015_Jul_29_1403	s	s	15	3	SIC	36	ABS	0	2	24RD	0	1	0.724184036255	None	None	None	None	1
1.7	2015_Jul_29_1403	s	s	15	3	SIC	37	RC	2	1	23VO	1	0	0.517292022705	-270.0	-22.0	-269	-21	1
1.7	2015_Jul_29_1403	s	s	15	3	SIC	38	RC	2	0	23VC	1	0	0.517293930054	-536.0	-40.0	-544	-46	1
1.7	2015_Jul_29_1403	s	s	15	3	SIC	39	RC	2	2	23VD	1	0	0.431253194809	80.0	-179.0	82	-183	1
1.7	2015_Jul_29_1403	s	s	15	3	SIC	40	ABS	1	2	24MD	0	1	0.571141004562	None	None	None	None	1
1.7	2015_Jul_29_1403	s	s	15	3	SIC	41	RC	0	1	23RO	1	0	2.54853010178	87.0	222.0	83	214	1
1.7	2015_Jul_29_1403	s	s	15	3	SIC	42	ABS	2	1	24VO	0	1	0.564383029938	None	None	None	None	1
1.7	2015_Jul_29_1403	s	s	15	3	SIC	43	ABS	2	0	24VC	0	1	1.24692606926	None	None	None	None	1
1.7	2015_Jul_29_1403	s	s	15	3	SIC	44	ABS	2	2	24VD	0	1	0.693721055984	None	None	None	None	1
1.7	2015_Jul_29_1403	s	s	15	3	SIC	45	ABS	1	1	24MO	0	1	2.39247393608	None	None	None	None	1
1.7	2015_Jul_29_1403	s	s	15	3	SIC	46	RC	1	0	23MC	1	0	1.65399503708	416.0	394.0	422	394	1
1.7	2015_Jul_29_1403	s	s	15	3	SIC	47	RC	1	2	23MD	1	0	0.529048919678	-474.0	-105.0	-477	-95	1
1.7	2015_Jul_29_1403	s	s	15	3	SIC	48	RC	0	2	23RD	1	0	0.429852962494	282.0	-18.0	281	-14	1
1.7	2015_Jul_29_1403	s	s	15	3	SIC	49	RC	1	1	23MO	1	0	1.21159386635	-247.0	350.0	-242	355	1
1.7	2015_Jul_29_1403	s	s	15	3	SIC	50	ABS	0	1	24RO	0	1	4.49003100395	None	None	None	None	1
1.7	2015_Jul_29_1403	s	s	15	3	SIC	51	ABS	1	2	24MD	0	1	0.811438798904	None	None	None	None	1
1.7	2015_Jul_29_1403	s	s	15	3	SIC	52	ABS	1	0	24MC	0	1	4.06029105186	None	None	None	None	1
1.7	2015_Jul_29_1403	s	s	15	3	SIC	53	RC	2	0	23VC	1	0	0.441629886627	-176.0	282.0	-178	270	1
1.7	2015_Jul_29_1403	s	s	15	3	SIC	54	RC	0	2	23RD	1	0	0.535951852798	356.0	239.0	358	237	1
1.7	2015_Jul_29_1403	s	s	15	3	SIC	55	RC	2	1	23VO	1	0	0.405642032623	340.0	264.0	335	259	1
1.7	2015_Jul_29_1403	s	s	15	3	SIC	56	ABS	1	1	24MO	0	1	2.235861063	None	None	None	None	1
1.7	2015_Jul_29_1403	s	s	15	3	SIC	57	ABS	2	0	24VC	0	1	0.595082998276	None	None	None	None	1
1.7	2015_Jul_29_1403	s	s	15	3	SIC	58	RC	1	2	23MD	1	0	0.452620029449	31.0	-122.0	32	-130	1
1.7	2015_Jul_29_1403	s	s	15	3	SIC	59	RC	0	1	23RO	1	0	2.58387613297	-310.0	-95.0	-310	-99	1
1.7	2015_Jul_29_1403	s	s	15	3	SIC	60	ABS	0	2	24RD	0	1	1.45238399506	None	None	None	None	1
1.7	2015_Jul_29_1403	s	s	15	3	SIC	61	ABS	2	1	24VO	0	1	0.576097011566	None	None	None	None	1
1.7	2015_Jul_29_1403	s	s	15	3	SIC	62	RC	2	2	23VD	1	0	0.434882879257	329.0	-10.0	332	-15	1
1.7	2015_Jul_29_1403	s	s	15	3	SIC	63	ABS	2	2	24VD	0	1	0.582747936249	None	None	None	None	1
1.7	2015_Jul_29_1403	s	s	15	3	SIC	64	RC	1	0	23MC	1	0	1.84737896919	152.0	116.0	154	117	1
1.7	2015_Jul_29_1403	s	s	15	3	SIC	65	ABS	1	1	24MO	0	1	1.35980606079	None	None	None	None	1
1.7	2015_Jul_29_1403	s	s	15	3	SIC	66	ABS	1	0	24MC	0	1	7.1625161171	None	None	None	None	1
1.7	2015_Jul_29_1403	s	s	15	3	SIC	67	ABS	0	2	24RD	0	1	0.689315080643	None	None	None	None	1
1.7	2015_Jul_29_1403	s	s	15	3	SIC	68	RC	2	2	23VD	1	0	0.611394882202	490.0	233.0	487	228	1
1.7	2015_Jul_29_1403	s	s	15	3	SIC	69	ABS	1	2	24MD	0	1	1.19995999336	None	None	None	None	1
1.7	2015_Jul_29_1403	s	s	15	3	SIC	70	RC	1	1	23MO	1	0	1.34800720215	505.0	258.0	511	264	1
1.7	2015_Jul_29_1403	s	s	15	3	SIC	71	ABS	2	0	24VC	0	1	0.646750926971	None	None	None	None	1
1.7	2015_Jul_29_1403	s	s	15	3	SIC	72	ABS	2	1	24VO	0	1	0.988149881363	None	None	None	None	1
1.7	2015_Jul_29_1403	s	s	15	3	SIC	73	RC	2	0	23VC	1	0	0.594375133514	359.0	-325.0	357	-326	1
1.7	2015_Jul_29_1403	s	s	15	3	SIC	74	RC	0	1	23RO	1	0	1.74830698967	423.0	-275.0	425	-277	1
1.7	2015_Jul_29_1403	s	s	15	3	SIC	75	RC	2	1	23VO	1	0	0.420548200607	-207.0	87.0	-209	78	1
1.7	2015_Jul_29_1403	s	s	15	3	SIC	76	RC	1	0	23MC	1	0	1.40730690956	-186.0	-318.0	-172	-313	1
1.7	2015_Jul_29_1403	s	s	15	3	SIC	77	RC	1	2	23MD	1	0	0.429725885391	-201.0	-81.0	-204	-88	1
1.7	2015_Jul_29_1403	s	s	15	3	SIC	78	RC	0	2	23RD	1	0	0.453936100006	302.0	70.0	307	64	1
1.7	2015_Jul_29_1403	s	s	15	3	SIC	79	ABS	2	2	24VD	0	1	0.576105833054	None	None	None	None	1
1.7	2015_Jul_29_1403	s	s	15	3	SIC	80	ABS	0	1	24RO	0	1	7.68070197105	None	None	None	None	1
1.7	2015_Jul_29_1403	s	s	15	3	SIC	81	ABS	1	2	24MD	0	1	0.571219921112	None	None	None	None	1
1.7	2015_Jul_29_1403	s	s	15	3	SIC	82	ABS	2	1	24VO	0	1	0.540839910507	None	None	None	None	1
1.7	2015_Jul_29_1403	s	s	15	3	SIC	83	RC	2	2	23VD	1	0	0.584476947784	78.0	266.0	74	270	1
1.7	2015_Jul_29_1403	s	s	15	3	SIC	84	ABS	0	2	24RD	0	1	0.655725002289	None	None	None	None	1
1.7	2015_Jul_29_1403	s	s	15	3	SIC	85	RC	1	1	23MO	1	0	1.37132000923	469.0	-40.0	478	-37	1
1.7	2015_Jul_29_1403	s	s	15	3	SIC	86	ABS	1	1	24MO	0	1	2.26298999786	None	None	None	None	1
1.7	2015_Jul_29_1403	s	s	15	3	SIC	87	RC	2	0	23VC	1	0	0.488466978073	417.0	315.0	413	308	1
1.7	2015_Jul_29_1403	s	s	15	3	SIC	88	RC	1	2	23MD	1	0	0.517271995544	424.0	-334.0	424	-335	1
1.7	2015_Jul_29_1403	s	s	15	3	SIC	89	RC	0	1	23RO	1	0	0.929220914841	62.0	-201.0	65	-200	1
1.7	2015_Jul_29_1403	s	s	15	3	SIC	90	ABS	2	0	24VC	0	1	0.761327028275	None	None	None	None	1
1.7	2015_Jul_29_1403	s	s	15	3	SIC	91	ABS	1	0	24MC	0	1	2.02992677689	None	None	None	None	1
1.7	2015_Jul_29_1403	s	s	15	3	SIC	92	ABS	0	1	24RO	0	1	4.36135315895	None	None	None	None	1
1.7	2015_Jul_29_1403	s	s	15	3	SIC	93	ABS	2	2	24VD	0	1	0.59961104393	None	None	None	None	1
1.7	2015_Jul_29_1403	s	s	15	3	SIC	94	RC	0	2	23RD	1	0	0.458870887756	6.0	210.0	9	203	1
1.7	2015_Jul_29_1403	s	s	15	3	SIC	95	RC	2	1	23VO	1	0	0.417418003082	-330.0	-158.0	-320	-151	1
1.7	2015_Jul_29_1403	s	s	15	3	SIC	96	RC	1	0	23MC	1	0	0.788011074066	-162.0	-123.0	-150	-122	1
1.7	2015_Jul_29_1403	s	s	15	3	SIC	97	RC	0	2	23RD	1	0	0.429758071899	192.0	-196.0	205	-191	1
1.7	2015_Jul_29_1403	s	s	15	3	SIC	98	RC	2	0	23VC	1	0	0.441611051559	124.0	-395.0	129	-398	1
1.7	2015_Jul_29_1403	s	s	15	3	SIC	99	ABS	2	2	24VD	0	1	0.564364910126	None	None	None	None	1
1.7	2015_Jul_29_1403	s	s	15	3	SIC	100	ABS	2	0	24VC	0	1	0.594688892365	None	None	None	None	1
1.7	2015_Jul_29_1403	s	s	15	3	SIC	101	RC	2	1	23VO	1	0	0.44656920433	-188.0	-258.0	-186	-265	1
1.7	2015_Jul_29_1403	s	s	15	3	SIC	102	ABS	1	0	24MC	0	1	5.08428287506	None	None	None	None	1
1.7	2015_Jul_29_1403	s	s	15	3	SIC	103	RC	1	2	23MD	1	0	0.441694021225	53.0	-256.0	59	-254	1
1.7	2015_Jul_29_1403	s	s	15	3	SIC	104	RC	2	2	23VD	1	0	0.383480072021	138.0	-3.0	139	-16	1
1.7	2015_Jul_29_1403	s	s	15	3	SIC	105	RC	1	1	23MO	1	0	1.38340210915	454.0	200.0	454	205	1
1.7	2015_Jul_29_1403	s	s	15	3	SIC	106	RC	1	0	23MC	1	0	1.27058696747	-383.0	94.0	-383	97	1
1.7	2015_Jul_29_1403	s	s	15	3	SIC	107	ABS	0	2	24RD	0	1	1.10620188713	None	None	None	None	1
1.7	2015_Jul_29_1403	s	s	15	3	SIC	108	ABS	1	1	24MO	0	1	2.89526391029	None	None	None	None	1
1.7	2015_Jul_29_1403	s	s	15	3	SIC	109	ABS	2	1	24VO	0	1	0.552513122559	None	None	None	None	1
1.7	2015_Jul_29_1403	s	s	15	3	SIC	110	ABS	0	1	24RO	0	1	4.34954380989	None	None	None	None	1
1.7	2015_Jul_29_1403	s	s	15	3	SIC	111	ABS	1	2	24MD	0	1	0.670330047607	None	None	None	None	1
1.7	2015_Jul_29_1403	s	s	15	3	SIC	112	RC	0	1	23RO	1	0	3.17810082436	434.0	-340.0	440	-344	1
1.7	2015_Jul_29_1403	s	s	15	3	SIC	113	ABS	0	2	24RD	0	1	0.582762002945	None	None	None	None	1
1.7	2015_Jul_29_1403	s	s	15	3	SIC	114	RC	0	2	23RD	1	0	0.705546140671	-490.0	-357.0	-491	-359	1
1.7	2015_Jul_29_1403	s	s	15	3	SIC	115	ABS	2	1	24VO	0	1	2.5628080368	None	None	None	None	1
1.7	2015_Jul_29_1403	s	s	15	3	SIC	116	RC	1	0	23MC	1	0	3.36579084396	-247.0	374.0	-237	376	1
1.7	2015_Jul_29_1403	s	s	15	3	SIC	117	RC	2	1	23VO	1	0	0.517240047455	406.0	111.0	407	101	1
1.7	2015_Jul_29_1403	s	s	15	3	SIC	118	RC	1	1	23MO	1	0	0.81517791748	-174.0	-14.0	-171	-22	1
1.7	2015_Jul_29_1403	s	s	15	3	SIC	119	RC	2	0	23VC	1	0	0.549332857132	265.0	315.0	265	316	1
1.7	2015_Jul_29_1403	s	s	15	3	SIC	120	ABS	1	1	24MO	0	1	10.7528297901	None	None	None	None	1
1.7	2015_Jul_29_1403	s	s	15	3	SIC	121	ABS	2	2	24VD	0	1	0.629760980606	None	None	None	None	1
1.7	2015_Jul_29_1403	s	s	15	3	SIC	122	ABS	1	2	24MD	0	1	0.823335170746	None	None	None	None	1
1.7	2015_Jul_29_1403	s	s	15	3	SIC	123	RC	2	2	23VD	1	0	0.497409105301	320.0	-364.0	312	-369	1
1.7	2015_Jul_29_1403	s	s	15	3	SIC	124	ABS	2	0	24VC	0	1	1.40680980682	None	None	None	None	1
1.7	2015_Jul_29_1403	s	s	15	3	SIC	125	RC	1	2	23MD	0	1	0.523227930069	38.0	-332.0	None	None	0
1.7	2015_Jul_29_1403	s	s	15	3	SIC	126	ABS	1	0	24MC	1	0	0.888929843903	None	None	-87	-228	0
1.7	2015_Jul_29_1403	s	s	15	3	SIC	127	ABS	0	1	24RO	0	1	4.7073969841	None	None	None	None	1
1.7	2015_Jul_29_1403	s	s	15	3	SIC	128	RC	0	1	23RO	1	0	0.899968862534	283.0	-15.0	287	-5	1
1.7	2015_Jul_29_1403	s	s	15	3	SIC	129	ABS	1	1	24MO	0	1	2.48969697952	None	None	None	None	1
1.7	2015_Jul_29_1403	s	s	15	3	SIC	130	ABS	2	2	24VD	0	1	1.61862397194	None	None	None	None	1
1.7	2015_Jul_29_1403	s	s	15	3	SIC	131	RC	2	0	23VC	1	0	0.479377031326	390.0	198.0	392	204	1
1.7	2015_Jul_29_1403	s	s	15	3	SIC	132	ABS	2	0	24VC	0	1	0.549696922302	None	None	None	None	1
1.7	2015_Jul_29_1403	s	s	15	3	SIC	133	ABS	2	1	24VO	0	1	0.852802991867	None	None	None	None	1
1.7	2015_Jul_29_1403	s	s	15	3	SIC	134	RC	1	0	23MC	1	0	2.04746198654	495.0	23.0	490	27	1
1.7	2015_Jul_29_1403	s	s	15	3	SIC	135	RC	0	2	23RD	1	0	0.572453975677	429.0	-352.0	422	-353	1
1.7	2015_Jul_29_1403	s	s	15	3	SIC	136	RC	1	2	23MD	1	0	0.646688938141	-54.0	10.0	-51	7	1
1.7	2015_Jul_29_1403	s	s	15	3	SIC	137	ABS	1	0	24MC	0	1	2.4883878231	None	None	None	None	1
1.7	2015_Jul_29_1403	s	s	15	3	SIC	138	ABS	1	2	24MD	0	1	0.629972934723	None	None	None	None	1
1.7	2015_Jul_29_1403	s	s	15	3	SIC	139	RC	2	1	23VO	1	0	0.466162204742	-179.0	-11.0	-175	-12	1
1.7	2015_Jul_29_1403	s	s	15	3	SIC	140	RC	1	1	23MO	1	0	0.603325128555	-76.0	77.0	-65	77	1
1.7	2015_Jul_29_1403	s	s	15	3	SIC	141	RC	0	1	23RO	1	0	1.24244904518	410.0	-94.0	408	-91	1
1.7	2015_Jul_29_1403	s	s	15	3	SIC	142	ABS	0	1	24RO	0	1	5.39028286934	None	None	None	None	1
1.7	2015_Jul_29_1403	s	s	15	3	SIC	143	ABS	0	2	24RD	0	1	0.78800702095	None	None	None	None	1
1.7	2015_Jul_29_1403	s	s	15	3	SIC	144	RC	2	2	23VD	1	0	0.573361873627	-480.0	87.0	-470	85	1
1.7	2015_Jul_29_1403	s	s	15	3	SIC	145	ABS	2	2	24VD	0	1	0.560328960419	None	None	None	None	1
1.7	2015_Jul_29_1403	s	s	15	3	SIC	146	RC	1	1	23MO	1	0	1.69082212448	506.0	188.0	509	188	1
1.7	2015_Jul_29_1403	s	s	15	3	SIC	147	ABS	1	0	24MC	0	1	2.57709693909	None	None	None	None	1
1.7	2015_Jul_29_1403	s	s	15	3	SIC	148	RC	0	2	23RD	1	0	0.564331054688	-18.0	-197.0	-14	-193	1
1.7	2015_Jul_29_1403	s	s	15	3	SIC	149	ABS	1	1	24MO	0	1	3.27832078934	None	None	None	None	1
1.7	2015_Jul_29_1403	s	s	15	3	SIC	150	RC	2	1	23VO	1	0	0.49375295639	-33.0	-121.0	-33	-121	1
1.7	2015_Jul_29_1403	s	s	15	3	SIC	151	RC	2	2	23VD	1	0	0.446661949158	386.0	-77.0	386	-92	1
1.7	2015_Jul_29_1403	s	s	15	3	SIC	152	ABS	1	2	24MD	0	1	1.635835886	None	None	None	None	1
1.7	2015_Jul_29_1403	s	s	15	3	SIC	153	RC	0	1	23RO	1	0	1.07738995552	336.0	-117.0	332	-121	1
1.7	2015_Jul_29_1403	s	s	15	3	SIC	154	RC	1	2	23MD	1	0	0.502764940262	220.0	-302.0	221	-308	1
1.7	2015_Jul_29_1403	s	s	15	3	SIC	155	ABS	2	1	24VO	0	1	0.623135089874	None	None	None	None	1
1.7	2015_Jul_29_1403	s	s	15	3	SIC	156	RC	2	0	23VC	1	0	0.453961849213	-360.0	-370.0	-362	-365	1
1.7	2015_Jul_29_1403	s	s	15	3	SIC	157	ABS	0	2	24RD	0	1	0.983699083328	None	None	None	None	1
1.7	2015_Jul_29_1403	s	s	15	3	SIC	158	ABS	0	1	24RO	0	1	3.7836420536	None	None	None	None	1
1.7	2015_Jul_29_1403	s	s	15	3	SIC	159	RC	1	0	23MC	1	0	7.1272008419	339.0	-74.0	336	-72	1
1.7	2015_Jul_29_1403	s	s	15	3	SIC	160	ABS	2	0	24VC	0	1	0.583618879318	None	None	None	None	1
1.7	2015_Jul_29_1403	s	s	15	3	SIC	161	ABS	1	0	24MC	0	1	6.9389538765	None	None	None	None	1
1.7	2015_Jul_29_1403	s	s	15	3	SIC	162	RC	1	0	23MC	1	0	1.80033397675	-502.0	-178.0	-501	-189	1
1.7	2015_Jul_29_1403	s	s	15	3	SIC	163	ABS	0	2	24RD	0	1	1.00711798668	None	None	None	None	1
1.7	2015_Jul_29_1403	s	s	15	3	SIC	164	ABS	2	2	24VD	0	1	0.635411977768	None	None	None	None	1
1.7	2015_Jul_29_1403	s	s	15	3	SIC	165	ABS	2	0	24VC	0	1	0.534852981567	None	None	None	None	1
1.7	2015_Jul_29_1403	s	s	15	3	SIC	166	RC	1	2	23MD	1	0	0.705545902252	78.0	-181.0	83	-175	1
1.7	2015_Jul_29_1403	s	s	15	3	SIC	167	ABS	1	1	24MO	0	1	10.6820819378	None	None	None	None	1
1.7	2015_Jul_29_1403	s	s	15	3	SIC	168	ABS	2	1	24VO	0	1	0.548897027969	None	None	None	None	1
1.7	2015_Jul_29_1403	s	s	15	3	SIC	169	RC	0	2	23RD	1	0	0.540820121765	-221.0	113.0	-210	116	1
1.7	2015_Jul_29_1403	s	s	15	3	SIC	170	RC	2	1	23VO	1	0	0.423095941544	-17.0	21.0	-14	19	1
1.7	2015_Jul_29_1403	s	s	15	3	SIC	171	RC	2	2	23VD	1	0	0.423121929169	-369.0	225.0	-365	216	1
1.7	2015_Jul_29_1403	s	s	15	3	SIC	172	ABS	1	2	24MD	0	1	0.455648183823	None	None	None	None	1
1.7	2015_Jul_29_1403	s	s	15	3	SIC	173	RC	2	0	23VC	1	0	0.418301105499	236.0	81.0	239	78	1
1.7	2015_Jul_29_1403	s	s	15	3	SIC	174	RC	1	1	23MO	1	0	0.476890087128	78.0	-38.0	86	-42	1
1.7	2015_Jul_29_1403	s	s	15	3	SIC	175	ABS	0	1	24RO	0	1	4.20143413544	None	None	None	None	1
1.7	2015_Jul_29_1403	s	s	15	3	SIC	176	RC	0	1	23RO	1	0	1.05531692505	-215.0	3.0	-213	6	1
1.7	2015_Jul_29_1403	s	s	15	3	SIC	177	RC	1	0	23MC	1	0	0.985467195511	-412.0	-176.0	-414	-176	1
1.7	2015_Jul_29_1403	s	s	15	3	SIC	178	RC	1	1	23MO	1	0	1.60679602623	535.0	-73.0	541	-81	1
1.7	2015_Jul_29_1403	s	s	15	3	SIC	179	ABS	0	1	24RO	0	1	6.51767897606	None	None	None	None	1
1.7	2015_Jul_29_1403	s	s	15	3	SIC	180	ABS	2	2	24VD	0	1	0.620553016663	None	None	None	None	1
1.7	2015_Jul_29_1403	s	s	15	3	SIC	181	RC	1	2	23MD	1	0	0.74748301506	300.0	-58.0	293	-56	1
1.7	2015_Jul_29_1403	s	s	15	3	SIC	182	ABS	2	0	24VC	0	1	0.643872976303	None	None	None	None	1
1.7	2015_Jul_29_1403	s	s	15	3	SIC	183	RC	0	2	23RD	1	0	0.606546163559	153.0	213.0	149	209	1
1.7	2015_Jul_29_1403	s	s	15	3	SIC	184	ABS	0	2	24RD	0	1	1.26654601097	None	None	None	None	1
1.7	2015_Jul_29_1403	s	s	15	3	SIC	185	ABS	1	0	24MC	0	1	1.7011680603	None	None	None	None	1
1.7	2015_Jul_29_1403	s	s	15	3	SIC	186	RC	0	1	23RO	1	0	3.27886605263	365.0	-94.0	361	-98	1
1.7	2015_Jul_29_1403	s	s	15	3	SIC	187	ABS	2	1	24VO	0	1	0.677031993866	None	None	None	None	1
1.7	2015_Jul_29_1403	s	s	15	3	SIC	188	RC	2	2	23VD	1	0	0.493699073792	231.0	351.0	229	351	1
1.7	2015_Jul_29_1403	s	s	15	3	SIC	189	RC	2	0	23VC	1	0	0.467892885208	403.0	211.0	400	208	1
1.7	2015_Jul_29_1403	s	s	15	3	SIC	190	ABS	1	2	24MD	0	1	0.666846990585	None	None	None	None	1
1.7	2015_Jul_29_1403	s	s	15	3	SIC	191	ABS	1	1	24MO	0	1	2.70129299164	None	None	None	None	1
1.7	2015_Jul_29_1403	s	s	15	3	SIC	192	RC	2	1	23VO	1	0	0.564558982849	-476.0	-163.0	-470	-167	1
1.7	2015_Jul_29_1403	s	s	15	3	SIC	193	RC	2	2	23VD	1	0	0.458423137665	-30.0	85.0	-20	87	1
1.7	2015_Jul_29_1403	s	s	15	3	SIC	194	ABS	0	2	24RD	0	1	0.599737882614	None	None	None	None	1
1.7	2015_Jul_29_1403	s	s	15	3	SIC	195	ABS	2	0	24VC	0	1	0.674582004547	None	None	None	None	1
1.7	2015_Jul_29_1403	s	s	15	3	SIC	196	ABS	1	2	24MD	0	1	0.5996530056	None	None	None	None	1
1.7	2015_Jul_29_1403	s	s	15	3	SIC	197	ABS	2	1	24VO	0	1	0.599658966064	None	None	None	None	1
1.7	2015_Jul_29_1403	s	s	15	3	SIC	198	ABS	1	0	24MC	0	1	9.74070310593	None	None	None	None	1
1.7	2015_Jul_29_1403	s	s	15	3	SIC	199	RC	1	1	23MO	1	0	1.24204921722	288.0	-325.0	283	-318	1
1.7	2015_Jul_29_1403	s	s	15	3	SIC	200	ABS	1	1	24MO	0	1	2.51443195343	None	None	None	None	1
1.7	2015_Jul_29_1403	s	s	15	3	SIC	201	ABS	2	2	24VD	0	1	5.06073498726	None	None	None	None	1
1.7	2015_Jul_29_1403	s	s	15	3	SIC	202	RC	1	0	23MC	1	0	1.21174788475	490.0	-260.0	-17	40	0
1.7	2015_Jul_29_1403	s	s	15	3	SIC	203	RC	0	2	23RD	1	0	0.664752006531	-443.0	372.0	-440	373	1
1.7	2015_Jul_29_1403	s	s	15	3	SIC	204	RC	0	1	23RO	1	0	2.43589997292	35.0	221.0	27	220	1
1.7	2015_Jul_29_1403	s	s	15	3	SIC	205	RC	2	1	23VO	1	0	0.411463022232	-279.0	-67.0	-267	-66	1
1.7	2015_Jul_29_1403	s	s	15	3	SIC	206	RC	1	2	23MD	1	0	0.384319067001	-127.0	104.0	-123	99	1
1.7	2015_Jul_29_1403	s	s	15	3	SIC	207	ABS	0	1	24RO	0	1	3.63049602509	None	None	None	None	1
1.7	2015_Jul_29_1403	s	s	15	3	SIC	208	RC	2	0	23VC	1	0	0.512282133102	-150.0	-48.0	-141	-46	1
1.7	2015_Jul_29_1403	s	s	15	3	SIC	209	ABS	2	2	24VD	0	1	0.556337833405	None	None	None	None	1
1.7	2015_Jul_29_1403	s	s	15	3	SIC	210	ABS	0	1	24RO	0	1	4.14866805077	None	None	None	None	1
1.7	2015_Jul_29_1403	s	s	15	3	SIC	211	RC	2	1	23VO	1	0	0.446604967117	-103.0	228.0	-104	227	1
1.7	2015_Jul_29_1403	s	s	15	3	SIC	212	RC	1	0	23MC	1	0	2.28286886215	371.0	-113.0	377	-112	1
1.7	2015_Jul_29_1403	s	s	15	3	SIC	213	RC	2	2	23VD	1	0	0.6063580513	149.0	-411.0	155	-410	1
1.7	2015_Jul_29_1403	s	s	15	3	SIC	214	ABS	1	0	24MC	0	1	5.21969914436	None	None	None	None	1
1.7	2015_Jul_29_1403	s	s	15	3	SIC	215	ABS	1	1	24MO	0	1	1.87128710747	None	None	None	None	1
1.7	2015_Jul_29_1403	s	s	15	3	SIC	216	ABS	0	2	24RD	0	1	0.835521936417	None	None	None	None	1
1.7	2015_Jul_29_1403	s	s	15	3	SIC	217	ABS	2	0	24VC	0	1	0.559211969376	None	None	None	None	1
1.7	2015_Jul_29_1403	s	s	15	3	SIC	218	ABS	2	1	24VO	0	1	0.617993116379	None	None	None	None	1
1.7	2015_Jul_29_1403	s	s	15	3	SIC	219	RC	0	1	23RO	1	0	1.05541300774	-55.0	91.0	-60	87	1
1.7	2015_Jul_29_1403	s	s	15	3	SIC	220	RC	0	2	23RD	1	0	0.440373897552	237.0	68.0	234	60	1
1.7	2015_Jul_29_1403	s	s	15	3	SIC	221	RC	1	1	23MO	1	0	0.429944992065	67.0	-182.0	63	-175	1
1.7	2015_Jul_29_1403	s	s	15	3	SIC	222	RC	2	0	23VC	1	0	0.41770195961	283.0	228.0	284	223	1
1.7	2015_Jul_29_1403	s	s	15	3	SIC	223	ABS	1	2	24MD	0	1	0.599624156952	None	None	None	None	1
1.7	2015_Jul_29_1403	s	s	15	3	SIC	224	RC	1	2	23MD	1	0	0.441514015198	75.0	-371.0	64	-371	1
1.7	2015_Jul_29_1403	s	s	15	3	SIC	225	RC	2	0	23VC	1	0	0.434828042984	-377.0	56.0	-386	55	1
1.7	2015_Jul_29_1403	s	s	15	3	SIC	226	RC	2	1	23VO	1	0	0.387841939926	-30.0	-322.0	-26	-315	1
1.7	2015_Jul_29_1403	s	s	15	3	SIC	227	ABS	0	1	24RO	0	1	4.38459897041	None	None	None	None	1
1.7	2015_Jul_29_1403	s	s	15	3	SIC	228	ABS	2	2	24VD	0	1	0.529051065445	None	None	None	None	1
1.7	2015_Jul_29_1403	s	s	15	3	SIC	229	RC	0	2	23RD	1	0	0.477377891541	-114.0	-186.0	-119	-190	1
1.7	2015_Jul_29_1403	s	s	15	3	SIC	230	ABS	2	0	24VC	0	1	0.547642946243	None	None	None	None	1
1.7	2015_Jul_29_1403	s	s	15	3	SIC	231	RC	1	0	23MC	1	0	1.03018808365	-97.0	-296.0	-89	-301	1
1.7	2015_Jul_29_1403	s	s	15	3	SIC	232	ABS	1	0	24MC	0	1	2.06843400002	None	None	None	None	1
1.7	2015_Jul_29_1403	s	s	15	3	SIC	233	RC	1	1	23MO	1	0	0.994051933289	-414.0	-277.0	-406	-268	1
1.7	2015_Jul_29_1403	s	s	15	3	SIC	234	RC	1	2	23MD	1	0	0.446558952332	219.0	7.0	228	7	1
1.7	2015_Jul_29_1403	s	s	15	3	SIC	235	RC	2	2	23VD	1	0	0.422833919525	306.0	127.0	306	118	1
1.7	2015_Jul_29_1403	s	s	15	3	SIC	236	ABS	2	1	24VO	0	1	0.646770954132	None	None	None	None	1
1.7	2015_Jul_29_1403	s	s	15	3	SIC	237	RC	0	1	23RO	1	0	1.67442703247	-130.0	355.0	-123	355	1
1.7	2015_Jul_29_1403	s	s	15	3	SIC	238	ABS	1	2	24MD	0	1	0.540816783905	None	None	None	None	1
1.7	2015_Jul_29_1403	s	s	15	3	SIC	239	ABS	1	1	24MO	0	1	3.36105799675	None	None	None	None	1
1.7	2015_Jul_29_1403	s	s	15	3	SIC	240	ABS	0	2	24RD	0	1	1.2353451252	None	None	None	None	1
1.7	2015_Jul_29_1403	s	s	15	3	SIC	241	ABS	1	2	24MD	0	1	0.783028125763	None	None	None	None	1
1.7	2015_Jul_29_1403	s	s	15	3	SIC	242	RC	2	1	23VO	1	0	0.677060842514	-423.0	381.0	-414	384	1
1.7	2015_Jul_29_1403	s	s	15	3	SIC	243	ABS	0	2	24RD	0	1	0.617867946625	None	None	None	None	1
1.7	2015_Jul_29_1403	s	s	15	3	SIC	244	ABS	1	1	24MO	0	1	3.05977797508	None	None	None	None	1
1.7	2015_Jul_29_1403	s	s	15	3	SIC	245	RC	1	0	23MC	1	0	1.2662460804	365.0	-325.0	358	-321	1
1.7	2015_Jul_29_1403	s	s	15	3	SIC	246	ABS	0	1	24RO	0	1	3.40758895874	None	None	None	None	1
1.7	2015_Jul_29_1403	s	s	15	3	SIC	247	ABS	1	0	24MC	0	1	2.3490819931	None	None	None	None	1
1.7	2015_Jul_29_1403	s	s	15	3	SIC	248	RC	1	1	23MO	1	0	0.68896317482	-278.0	46.0	-282	39	1
1.7	2015_Jul_29_1403	s	s	15	3	SIC	249	RC	2	2	23VD	1	0	0.423048973083	204.0	95.0	198	91	1
1.7	2015_Jul_29_1403	s	s	15	3	SIC	250	RC	1	2	23MD	1	0	0.52371096611	338.0	377.0	346	384	1
1.7	2015_Jul_29_1403	s	s	15	3	SIC	251	ABS	2	1	24VO	0	1	0.481951951981	None	None	None	None	1
1.7	2015_Jul_29_1403	s	s	15	3	SIC	252	RC	0	2	23RD	1	0	0.795247793198	372.0	304.0	365	300	1
1.7	2015_Jul_29_1403	s	s	15	3	SIC	253	ABS	2	0	24VC	0	1	0.517284870148	None	None	None	None	1
1.7	2015_Jul_29_1403	s	s	15	3	SIC	254	RC	0	1	23RO	1	0	1.82954692841	407.0	84.0	407	75	1
1.7	2015_Jul_29_1403	s	s	15	3	SIC	255	RC	2	0	23VC	1	0	0.50053191185	172.0	327.0	174	327	1
1.7	2015_Jul_29_1403	s	s	15	3	SIC	256	ABS	2	2	24VD	0	1	0.512126207352	None	None	None	None	1
1.7	2015_Jul_29_1403	s	s	15	3	SIC	257	ABS	0	2	24RD	0	1	0.938359022141	None	None	None	None	1
1.7	2015_Jul_29_1403	s	s	15	3	SIC	258	RC	0	1	23RO	1	0	1.27043104172	-32.0	-370.0	-32	-370	1
1.7	2015_Jul_29_1403	s	s	15	3	SIC	259	ABS	2	2	24VD	0	1	0.605699062347	None	None	None	None	1
1.7	2015_Jul_29_1403	s	s	15	3	SIC	260	ABS	1	1	24MO	0	1	2.50694584846	None	None	None	None	1
1.7	2015_Jul_29_1403	s	s	15	3	SIC	261	ABS	0	1	24RO	0	1	3.37248587608	None	None	None	None	1
1.7	2015_Jul_29_1403	s	s	15	3	SIC	262	ABS	2	1	24VO	0	1	0.505547046661	None	None	None	None	1
1.7	2015_Jul_29_1403	s	s	15	3	SIC	263	RC	2	1	23VO	1	0	0.533059120178	232.0	15.0	235	12	1
1.7	2015_Jul_29_1403	s	s	15	3	SIC	264	ABS	1	0	24MC	0	1	2.64270401001	None	None	None	None	1
1.7	2015_Jul_29_1403	s	s	15	3	SIC	265	ABS	2	0	24VC	0	1	0.572022199631	None	None	None	None	1
1.7	2015_Jul_29_1403	s	s	15	3	SIC	266	RC	2	0	23VC	1	0	0.481956958771	387.0	-187.0	396	-189	1
1.7	2015_Jul_29_1403	s	s	15	3	SIC	267	ABS	1	2	24MD	0	1	0.587932109833	None	None	None	None	1
1.7	2015_Jul_29_1403	s	s	15	3	SIC	268	RC	1	2	23MD	1	0	0.62988781929	518.0	-97.0	532	-92	1
1.7	2015_Jul_29_1403	s	s	15	3	SIC	269	RC	1	0	23MC	1	0	1.67825388908	312.0	123.0	308	123	1
1.7	2015_Jul_29_1403	s	s	15	3	SIC	270	RC	1	1	23MO	1	0	1.1242120266	380.0	158.0	379	161	1
1.7	2015_Jul_29_1403	s	s	15	3	SIC	271	RC	2	2	23VD	1	0	0.431113004684	-462.0	9.0	-462	5	1
1.7	2015_Jul_29_1403	s	s	15	3	SIC	272	RC	0	2	23RD	1	0	0.415001869202	-64.0	77.0	-62	74	1
1.7	2015_Jul_29_1403	s	s	15	3	SIC	273	RC	2	2	23VD	1	0	0.458287000656	-46.0	30.0	-34	34	1
1.7	2015_Jul_29_1403	s	s	15	3	SIC	274	ABS	1	1	24MO	0	1	2.36051011086	None	None	None	None	1
1.7	2015_Jul_29_1403	s	s	15	3	SIC	275	RC	1	2	23MD	1	0	0.399566173553	79.0	1.0	87	4	1
1.7	2015_Jul_29_1403	s	s	15	3	SIC	276	ABS	0	1	24RO	0	1	7.69422388077	None	None	None	None	1
1.7	2015_Jul_29_1403	s	s	15	3	SIC	277	ABS	2	0	24VC	0	1	0.830987930298	None	None	None	None	1
1.7	2015_Jul_29_1403	s	s	15	3	SIC	278	RC	0	1	23RO	1	0	4.40157985687	-441.0	-63.0	-444	-61	1
1.7	2015_Jul_29_1403	s	s	15	3	SIC	279	ABS	0	2	24RD	0	1	0.805641889572	None	None	None	None	1
1.7	2015_Jul_29_1403	s	s	15	3	SIC	280	RC	1	0	23MC	1	0	1.27046585083	-33.0	253.0	-31	247	1
1.7	2015_Jul_29_1403	s	s	15	3	SIC	281	ABS	2	1	24VO	0	1	0.561018943787	None	None	None	None	1
1.7	2015_Jul_29_1403	s	s	15	3	SIC	282	RC	2	0	23VC	1	0	0.72410607338	341.0	272.0	346	270	1
1.7	2015_Jul_29_1403	s	s	15	3	SIC	283	RC	0	2	23RD	1	0	0.536174058914	171.0	51.0	174	50	1
1.7	2015_Jul_29_1403	s	s	15	3	SIC	284	ABS	2	2	24VD	0	1	0.764476060867	None	None	None	None	1
1.7	2015_Jul_29_1403	s	s	15	3	SIC	285	RC	2	1	23VO	1	0	0.45592713356	-278.0	36.0	-276	24	1
1.7	2015_Jul_29_1403	s	s	15	3	SIC	286	ABS	1	0	24MC	0	1	3.37414193153	None	None	None	None	1
1.7	2015_Jul_29_1403	s	s	15	3	SIC	287	RC	1	1	23MO	1	0	1.13571500778	58.0	208.0	55	213	1
1.7	2015_Jul_29_1403	s	s	15	3	SIC	288	ABS	1	2	24MD	0	1	1.22077393532	None	None	None	None	1
1.7	2015_Jul_29_1403	s	s	15	3	SIC	289	ABS	0	2	24RD	0	1	0.618223905563	None	None	None	None	1
1.7	2015_Jul_29_1403	s	s	15	3	SIC	290	RC	2	1	23VO	1	0	0.418256998062	-235.0	-225.0	-238	-233	1
1.7	2015_Jul_29_1403	s	s	15	3	SIC	291	ABS	2	0	24VC	0	1	0.608746051788	None	None	None	None	1
1.7	2015_Jul_29_1403	s	s	15	3	SIC	292	ABS	0	1	24RO	0	1	4.72877597809	None	None	None	None	1
1.7	2015_Jul_29_1403	s	s	15	3	SIC	293	RC	2	0	23VC	1	0	0.599413156509	420.0	-385.0	422	-386	1
1.7	2015_Jul_29_1403	s	s	15	3	SIC	294	RC	2	2	23VD	1	0	0.454883813858	368.0	-268.0	371	-260	1
1.7	2015_Jul_29_1403	s	s	15	3	SIC	295	RC	0	1	23RO	1	0	1.11247301102	177.0	-158.0	189	-157	1
1.7	2015_Jul_29_1403	s	s	15	3	SIC	296	ABS	1	1	24MO	0	1	3.8564620018	None	None	None	None	1
1.7	2015_Jul_29_1403	s	s	15	3	SIC	297	RC	1	2	23MD	1	0	0.117055177689	-274.0	-123.0	-262	-116	1
1.7	2015_Jul_29_1403	s	s	15	3	SIC	298	ABS	1	0	24MC	0	1	2.16512513161	None	None	None	None	1
1.7	2015_Jul_29_1403	s	s	15	3	SIC	299	RC	0	2	23RD	1	0	0.51727104187	250.0	247.0	252	250	1
1.7	2015_Jul_29_1403	s	s	15	3	SIC	300	ABS	2	2	24VD	0	1	0.477076053619	None	None	None	None	1
1.7	2015_Jul_29_1403	s	s	15	3	SIC	301	RC	1	0	23MC	1	0	3.14255714417	191.0	397.0	195	401	1
1.7	2015_Jul_29_1403	s	s	15	3	SIC	302	RC	1	1	23MO	1	0	0.517626047134	16.0	-71.0	17	-67	1
1.7	2015_Jul_29_1403	s	s	15	3	SIC	303	ABS	2	1	24VO	0	1	0.500046014786	None	None	None	None	1
1.7	2015_Jul_29_1403	s	s	15	3	SIC	304	ABS	1	2	24MD	0	1	0.78511095047	None	None	None	None	1
1.7	2015_Jul_29_1403	s	s	15	3	SIC	305	RC	2	2	23VD	1	0	0.488708019257	-125.0	363.0	-123	353	1
1.7	2015_Jul_29_1403	s	s	15	3	SIC	306	RC	0	2	23RD	1	0	0.58783197403	-231.0	-127.0	-228	-132	1
1.7	2015_Jul_29_1403	s	s	15	3	SIC	307	ABS	0	1	24RO	0	1	3.18437099457	None	None	None	None	1
1.7	2015_Jul_29_1403	s	s	15	3	SIC	308	RC	1	0	23MC	1	0	1.6237719059	-404.0	-243.0	-418	-234	1
1.7	2015_Jul_29_1403	s	s	15	3	SIC	309	RC	2	1	23VO	1	0	0.431449174881	356.0	-8.0	352	-4	1
1.7	2015_Jul_29_1403	s	s	15	3	SIC	310	ABS	1	1	24MO	0	1	2.09486889839	None	None	None	None	1
1.7	2015_Jul_29_1403	s	s	15	3	SIC	311	ABS	2	1	24VO	0	1	0.629915952682	None	None	None	None	1
1.7	2015_Jul_29_1403	s	s	15	3	SIC	312	RC	1	2	23MD	1	0	0.477021932602	71.0	-322.0	68	-322	1
1.7	2015_Jul_29_1403	s	s	15	3	SIC	313	RC	0	1	23RO	1	0	2.10040283203	455.0	-171.0	455	-177	1
1.7	2015_Jul_29_1403	s	s	15	3	SIC	314	ABS	2	0	24VC	0	1	1.13830900192	None	None	None	None	1
1.7	2015_Jul_29_1403	s	s	15	3	SIC	315	RC	1	1	23MO	1	0	2.3888130188	277.0	-247.0	276	-248	1
1.7	2015_Jul_29_1403	s	s	15	3	SIC	316	ABS	0	2	24RD	0	1	5.65590691566	None	None	None	None	1
1.7	2015_Jul_29_1403	s	s	15	3	SIC	317	ABS	2	2	24VD	0	1	1.57385015488	None	None	None	None	1
1.7	2015_Jul_29_1403	s	s	15	3	SIC	318	ABS	1	2	24MD	0	1	0.552618980408	None	None	None	None	1
1.7	2015_Jul_29_1403	s	s	15	3	SIC	319	ABS	1	0	24MC	0	1	8.08298420906	None	None	None	None	1
1.7	2015_Jul_29_1403	s	s	15	3	SIC	320	RC	2	0	23VC	1	0	0.453429937363	-68.0	-172.0	-75	-175	1
1.7	2015_Jul_29_1403	s	s	15	3	SIC	321	ABS	2	2	24VD	0	1	0.52947807312	None	None	None	None	1
1.7	2015_Jul_29_1403	s	s	15	3	SIC	322	ABS	1	0	24MC	0	1	1.66609787941	None	None	None	None	1
1.7	2015_Jul_29_1403	s	s	15	3	SIC	323	ABS	0	1	24RO	0	1	3.04434895515	None	None	None	None	1
1.7	2015_Jul_29_1403	s	s	15	3	SIC	324	RC	0	1	23RO	1	0	3.07811594009	60.0	407.0	70	408	1
1.7	2015_Jul_29_1403	s	s	15	3	SIC	325	ABS	2	0	24VC	0	1	0.572633981705	None	None	None	None	1
1.7	2015_Jul_29_1403	s	s	15	3	SIC	326	ABS	1	2	24MD	0	1	0.799885034561	None	None	None	None	1
1.7	2015_Jul_29_1403	s	s	15	3	SIC	327	RC	1	2	23MD	1	0	1.0649740696	77.0	-42.0	85	-46	1
1.7	2015_Jul_29_1403	s	s	15	3	SIC	328	RC	0	2	23RD	1	0	0.570948123932	-476.0	308.0	-474	300	1
1.7	2015_Jul_29_1403	s	s	15	3	SIC	329	ABS	0	2	24RD	0	1	0.547724962234	None	None	None	None	1
1.7	2015_Jul_29_1403	s	s	15	3	SIC	330	RC	1	1	23MO	1	0	0.700520992279	64.0	258.0	64	248	1
1.7	2015_Jul_29_1403	s	s	15	3	SIC	331	RC	2	0	23VC	1	0	0.470188856125	-174.0	332.0	-181	335	1
1.7	2015_Jul_29_1403	s	s	15	3	SIC	332	ABS	1	1	24MO	0	1	2.61915278435	None	None	None	None	1
1.7	2015_Jul_29_1403	s	s	15	3	SIC	333	RC	2	1	23VO	1	0	0.411335945129	-215.0	69.0	-218	57	1
1.7	2015_Jul_29_1403	s	s	15	3	SIC	334	RC	1	0	23MC	1	0	1.37649798393	-286.0	-405.0	-283	-409	1
1.7	2015_Jul_29_1403	s	s	15	3	SIC	335	ABS	2	1	24VO	0	1	0.502537965775	None	None	None	None	1
1.7	2015_Jul_29_1403	s	s	15	3	SIC	336	RC	2	2	23VD	1	0	0.464692115784	-316.0	182.0	-313	181	1
1.7	2015_Jul_29_1403	s	s	15	3	SIC	337	ABS	0	1	24RO	0	1	1.09094905853	None	None	None	None	1
1.7	2015_Jul_29_1403	s	s	15	3	SIC	338	ABS	2	1	24VO	0	1	0.690129995346	None	None	None	None	1
1.7	2015_Jul_29_1403	s	s	15	3	SIC	339	RC	1	1	23MO	1	0	1.56483006477	265.0	-234.0	267	-230	1
1.7	2015_Jul_29_1403	s	s	15	3	SIC	340	RC	1	0	23MC	1	0	1.15971493721	-336.0	-260.0	-325	-255	1
1.7	2015_Jul_29_1403	s	s	15	3	SIC	341	ABS	1	1	24MO	0	1	2.77717804909	None	None	None	None	1
1.7	2015_Jul_29_1403	s	s	15	3	SIC	342	ABS	2	0	24VC	0	1	0.547770023346	None	None	None	None	1
1.7	2015_Jul_29_1403	s	s	15	3	SIC	343	RC	0	2	23RD	1	0	0.432334899902	59.0	-141.0	67	-133	1
1.7	2015_Jul_29_1403	s	s	15	3	SIC	344	ABS	0	2	24RD	0	1	1.04358196259	None	None	None	None	1
1.7	2015_Jul_29_1403	s	s	15	3	SIC	345	RC	2	2	23VD	1	0	0.45355796814	80.0	-149.0	74	-146	1
1.7	2015_Jul_29_1403	s	s	15	3	SIC	346	RC	0	1	23RO	0	1	2.66853904724	129.0	160.0	None	None	0
1.7	2015_Jul_29_1403	s	s	15	3	SIC	347	ABS	2	2	24VD	0	1	0.582813024521	None	None	None	None	1
1.7	2015_Jul_29_1403	s	s	15	3	SIC	348	RC	1	2	23MD	1	0	0.682184934616	139.0	-285.0	140	-286	1
1.7	2015_Jul_29_1403	s	s	15	3	SIC	349	RC	2	0	23VC	1	0	0.505430936813	-487.0	-305.0	-484	-305	1
1.7	2015_Jul_29_1403	s	s	15	3	SIC	350	ABS	1	2	24MD	0	1	0.858590126038	None	None	None	None	1
1.7	2015_Jul_29_1403	s	s	15	3	SIC	351	RC	2	1	23VO	1	0	0.564334869385	-461.0	-46.0	-462	-40	1
1.7	2015_Jul_29_1403	s	s	15	3	SIC	352	ABS	1	0	24MC	0	1	2.45440006256	None	None	None	None	1
1.7	2015_Jul_29_1403	s	s	15	3	SIC	353	RC	2	0	23VC	0	1	0.571151018143	396.0	-260.0	None	None	0
1.7	2015_Jul_29_1403	s	s	15	3	SIC	354	RC	1	2	23MD	1	0	0.44655919075	9.0	-195.0	15	-192	1
1.7	2015_Jul_29_1403	s	s	15	3	SIC	355	ABS	2	1	24VO	0	1	1.02984285355	None	None	None	None	1
1.7	2015_Jul_29_1403	s	s	15	3	SIC	356	ABS	1	2	24MD	0	1	0.618161916733	None	None	None	None	1
1.7	2015_Jul_29_1403	s	s	15	3	SIC	357	ABS	1	0	24MC	0	1	2.17247009277	None	None	None	None	1
1.7	2015_Jul_29_1403	s	s	15	3	SIC	358	ABS	2	2	24VD	0	1	0.535385131836	None	None	None	None	1
1.7	2015_Jul_29_1403	s	s	15	3	SIC	359	RC	0	1	23RO	1	0	3.42128896713	-383.0	-165.0	-374	-159	1
1.7	2015_Jul_29_1403	s	s	15	3	SIC	360	RC	2	1	23VO	1	0	0.511652946472	130.0	304.0	128	302	1
1.7	2015_Jul_29_1403	s	s	15	3	SIC	361	ABS	2	0	24VC	0	1	0.517117977142	None	None	None	None	1
1.7	2015_Jul_29_1403	s	s	15	3	SIC	362	ABS	0	1	24RO	0	1	4.58462500572	None	None	None	None	1
1.7	2015_Jul_29_1403	s	s	15	3	SIC	363	RC	0	2	23RD	1	0	0.517690896988	-117.0	-159.0	-119	-159	1
1.7	2015_Jul_29_1403	s	s	15	3	SIC	364	ABS	0	2	24RD	0	1	1.11310505867	None	None	None	None	1
1.7	2015_Jul_29_1403	s	s	15	3	SIC	365	RC	1	0	23MC	0	1	2.71832585335	500.0	271.0	None	None	0
1.7	2015_Jul_29_1403	s	s	15	3	SIC	366	ABS	1	1	24MO	0	1	4.97376799583	None	None	None	None	1
1.7	2015_Jul_29_1403	s	s	15	3	SIC	367	RC	2	2	23VD	1	0	0.599721908569	-265.0	-381.0	-257	-387	1
1.7	2015_Jul_29_1403	s	s	15	3	SIC	368	RC	1	1	23MO	1	0	0.787982225418	-77.0	-143.0	-81	-154	1
1.7	2015_Jul_29_1403	s	s	15	3	SIC	369	ABS	0	1	24RO	0	1	2.34542798996	None	None	None	None	1
1.7	2015_Jul_29_1403	s	s	15	3	SIC	370	RC	2	1	23VO	0	1	0.267405986786	1.0	237.0	None	None	0
1.7	2015_Jul_29_1403	s	s	15	3	SIC	371	ABS	1	0	24MC	1	0	1.96175909042	None	None	-382	229	0
1.7	2015_Jul_29_1403	s	s	15	3	SIC	372	ABS	2	1	24VO	0	1	0.634980916977	None	None	None	None	1
1.7	2015_Jul_29_1403	s	s	15	3	SIC	373	RC	1	2	23MD	1	0	0.811465978622	7.0	105.0	-1	107	1
1.7	2015_Jul_29_1403	s	s	15	3	SIC	374	ABS	1	2	24MD	0	1	1.0468609333	None	None	None	None	1
1.7	2015_Jul_29_1403	s	s	15	3	SIC	375	RC	0	1	23RO	1	0	1.50602698326	-267.0	-298.0	-266	-292	1
1.7	2015_Jul_29_1403	s	s	15	3	SIC	376	ABS	1	1	24MO	0	1	2.71826696396	None	None	None	None	1
1.7	2015_Jul_29_1403	s	s	15	3	SIC	377	ABS	0	2	24RD	0	1	2.63066601753	None	None	None	None	1
1.7	2015_Jul_29_1403	s	s	15	3	SIC	378	RC	2	0	23VC	1	0	0.559181928635	-302.0	-303.0	-308	-302	1
1.7	2015_Jul_29_1403	s	s	15	3	SIC	379	ABS	2	0	24VC	0	1	0.611718177795	None	None	None	None	1
1.7	2015_Jul_29_1403	s	s	15	3	SIC	380	ABS	2	2	24VD	0	1	0.517235040665	None	None	None	None	1
1.7	2015_Jul_29_1403	s	s	15	3	SIC	381	RC	1	1	23MO	1	0	0.905786991119	379.0	21.0	386	28	1
1.7	2015_Jul_29_1403	s	s	15	3	SIC	382	RC	1	0	23MC	1	0	1.37647104263	432.0	192.0	439	189	1
1.7	2015_Jul_29_1403	s	s	15	3	SIC	383	RC	0	2	23RD	1	0	0.572046041489	-38.0	373.0	-44	372	1
1.7	2015_Jul_29_1403	s	s	15	3	SIC	384	RC	2	2	23VD	1	0	0.422964096069	-484.0	244.0	-480	235	1
1.7	2015_Jul_29_1403	s	s	15	3	SIC	385	RC	2	2	23VD	1	0	0.382947921753	-16.0	270.0	-17	262	1
1.7	2015_Jul_29_1403	s	s	15	3	SIC	386	RC	0	2	23RD	1	0	0.464956045151	221.0	-253.0	216	-252	1
1.7	2015_Jul_29_1403	s	s	15	3	SIC	387	RC	1	1	23MO	1	0	0.482017040253	-81.0	241.0	-81	239	1
1.7	2015_Jul_29_1403	s	s	15	3	SIC	388	ABS	2	2	24VD	0	1	0.646694898605	None	None	None	None	1
1.7	2015_Jul_29_1403	s	s	15	3	SIC	389	RC	2	1	23VO	1	0	1.90618991852	-371.0	-112.0	-381	-112	1
1.7	2015_Jul_29_1403	s	s	15	3	SIC	390	ABS	0	1	24RO	0	1	2.34168386459	None	None	None	None	1
1.7	2015_Jul_29_1403	s	s	15	3	SIC	391	ABS	2	1	24VO	0	1	0.761697053909	None	None	None	None	1
1.7	2015_Jul_29_1403	s	s	15	3	SIC	392	ABS	2	0	24VC	0	1	0.517317056656	None	None	None	None	1
1.7	2015_Jul_29_1403	s	s	15	3	SIC	393	RC	1	0	23MC	1	0	1.32950997353	-445.0	-262.0	-440	-260	1
1.7	2015_Jul_29_1403	s	s	15	3	SIC	394	RC	1	2	23MD	1	0	0.796412944794	-180.0	347.0	-182	345	1
1.7	2015_Jul_29_1403	s	s	15	3	SIC	395	RC	2	0	23VC	1	0	0.411333084106	110.0	-218.0	118	-211	1
1.7	2015_Jul_29_1403	s	s	15	3	SIC	396	ABS	1	2	24MD	0	1	0.717557907104	None	None	None	None	1
1.7	2015_Jul_29_1403	s	s	15	3	SIC	397	ABS	1	0	24MC	0	1	2.85974216461	None	None	None	None	1
1.7	2015_Jul_29_1403	s	s	15	3	SIC	398	ABS	0	2	24RD	0	1	0.752713918686	None	None	None	None	1
1.7	2015_Jul_29_1403	s	s	15	3	SIC	399	RC	0	1	23RO	0	1	3.07902097702	215.0	239.0	None	None	0
1.7	2015_Jul_29_1403	s	s	15	3	SIC	400	ABS	1	1	24MO	0	1	2.31816983223	None	None	None	None	1
1.7	2015_Jul_29_1403	s	s	15	3	SIC	401	ABS	2	0	24VC	0	1	2.36533594131	None	None	None	None	1
1.7	2015_Jul_29_1403	s	s	15	3	SIC	402	ABS	2	1	24VO	0	1	0.547667980194	None	None	None	None	1
1.7	2015_Jul_29_1403	s	s	15	3	SIC	403	RC	2	2	23VD	1	0	0.595906972885	18.0	-149.0	23	-144	1
1.7	2015_Jul_29_1403	s	s	15	3	SIC	404	ABS	1	2	24MD	0	1	1.60693693161	None	None	None	None	1
1.7	2015_Jul_29_1403	s	s	15	3	SIC	405	RC	0	1	23RO	1	0	0.0547199249268	129.0	213.0	-34	-126	0
1.7	2015_Jul_29_1403	s	s	15	3	SIC	406	RC	2	0	23VC	1	0	0.538390874863	438.0	107.0	444	109	1
1.7	2015_Jul_29_1403	s	s	15	3	SIC	407	ABS	1	1	24MO	0	1	2.75373196602	None	None	None	None	1
1.7	2015_Jul_29_1403	s	s	15	3	SIC	408	ABS	0	2	24RD	0	1	0.559368848801	None	None	None	None	1
1.7	2015_Jul_29_1403	s	s	15	3	SIC	409	ABS	0	1	24RO	0	1	3.18915700912	None	None	None	None	1
1.7	2015_Jul_29_1403	s	s	15	3	SIC	410	ABS	1	0	24MC	0	1	2.50650215149	None	None	None	None	1
1.7	2015_Jul_29_1403	s	s	15	3	SIC	411	RC	1	2	23MD	1	0	0.477037906647	31.0	-272.0	32	-271	1
1.7	2015_Jul_29_1403	s	s	15	3	SIC	412	ABS	2	2	24VD	0	1	0.512083053589	None	None	None	None	1
1.7	2015_Jul_29_1403	s	s	15	3	SIC	413	RC	2	1	23VO	1	0	0.382951974869	-8.0	-310.0	-4	-305	1
1.7	2015_Jul_29_1403	s	s	15	3	SIC	414	RC	0	2	23RD	1	0	0.505528926849	215.0	197.0	214	194	1
1.7	2015_Jul_29_1403	s	s	15	3	SIC	415	RC	1	0	23MC	1	0	1.36477398872	397.0	-53.0	406	-51	1
1.7	2015_Jul_29_1403	s	s	15	3	SIC	416	RC	1	1	23MO	1	0	0.747668981552	23.0	-202.0	19	-199	1
1.7	2015_Jul_29_1403	s	s	15	3	SIC	417	ABS	2	0	24VC	0	1	0.529093027115	None	None	None	None	1
1.7	2015_Jul_29_1403	s	s	15	3	SIC	418	ABS	2	1	24VO	0	1	1.08219790459	None	None	None	None	1
1.7	2015_Jul_29_1403	s	s	15	3	SIC	419	RC	2	0	23VC	1	0	0.782972812653	-490.0	63.0	-488	60	1
1.7	2015_Jul_29_1403	s	s	15	3	SIC	420	RC	0	2	23RD	1	0	0.513564109802	-395.0	-149.0	-401	-148	1
1.7	2015_Jul_29_1403	s	s	15	3	SIC	421	ABS	0	1	24RO	0	1	4.80177807808	None	None	None	None	1
1.7	2015_Jul_29_1403	s	s	15	3	SIC	422	RC	2	2	23VD	1	0	0.441179037094	1.0	-35.0	4	-31	1
1.7	2015_Jul_29_1403	s	s	15	3	SIC	423	RC	2	1	23VO	1	0	0.667554140091	-298.0	-64.0	-296	-76	1
1.7	2015_Jul_29_1403	s	s	15	3	SIC	424	ABS	2	2	24VD	0	1	0.658529996872	None	None	None	None	1
1.7	2015_Jul_29_1403	s	s	15	3	SIC	425	ABS	1	1	24MO	0	1	2.96075105667	None	None	None	None	1
1.7	2015_Jul_29_1403	s	s	15	3	SIC	426	RC	1	1	23MO	1	0	0.830811023712	72.0	-26.0	78	-24	1
1.7	2015_Jul_29_1403	s	s	15	3	SIC	427	ABS	1	0	24MC	0	1	3.9722430706	None	None	None	None	1
1.7	2015_Jul_29_1403	s	s	15	3	SIC	428	RC	0	1	23RO	1	0	2.30115795135	498.0	384.0	494	385	1
1.7	2015_Jul_29_1403	s	s	15	3	SIC	429	RC	1	0	23MC	1	0	1.29414105415	-467.0	-282.0	-461	-283	1
1.7	2015_Jul_29_1403	s	s	15	3	SIC	430	ABS	0	2	24RD	0	1	3.21882796288	None	None	None	None	1
1.7	2015_Jul_29_1403	s	s	15	3	SIC	431	ABS	1	2	24MD	0	1	0.547742128372	None	None	None	None	1
1.7	2015_Jul_29_1403	s	s	15	3	SIC	432	RC	1	2	23MD	1	0	0.73811006546	399.0	-273.0	408	-273	1
1.7	2015_Jul_29_1403	s	s	15	3	SIC	433	RC	0	1	23RO	1	0	1.91804003716	-262.0	-290.0	-262	-298	1
1.7	2015_Jul_29_1403	s	s	15	3	SIC	434	RC	1	2	23MD	1	0	0.699303865433	-90.0	403.0	-86	404	1
1.7	2015_Jul_29_1403	s	s	15	3	SIC	435	RC	2	0	23VC	1	0	0.500961065292	-506.0	258.0	-501	254	1
1.7	2015_Jul_29_1403	s	s	15	3	SIC	436	RC	0	2	23RD	1	0	0.47674202919	-122.0	199.0	-118	201	1
1.7	2015_Jul_29_1403	s	s	15	3	SIC	437	RC	1	1	23MO	1	0	0.540781021118	-158.0	104.0	-161	103	1
1.7	2015_Jul_29_1403	s	s	15	3	SIC	438	ABS	1	1	24MO	0	1	2.53385090828	None	None	None	None	1
1.7	2015_Jul_29_1403	s	s	15	3	SIC	439	RC	2	2	23VD	1	0	0.599614858627	490.0	-339.0	487	-347	1
1.7	2015_Jul_29_1403	s	s	15	3	SIC	440	ABS	2	0	24VC	0	1	0.656136989594	None	None	None	None	1
1.7	2015_Jul_29_1403	s	s	15	3	SIC	441	ABS	1	2	24MD	0	1	0.726035118103	None	None	None	None	1
1.7	2015_Jul_29_1403	s	s	15	3	SIC	442	RC	1	0	23MC	1	0	0.914813041687	-289.0	-146.0	-288	-148	1
1.7	2015_Jul_29_1403	s	s	15	3	SIC	443	RC	2	1	23VO	1	0	0.517312049866	12.0	326.0	7	327	1
1.7	2015_Jul_29_1403	s	s	15	3	SIC	444	ABS	0	1	24RO	0	1	2.58340716362	None	None	None	None	1
1.7	2015_Jul_29_1403	s	s	15	3	SIC	445	ABS	2	1	24VO	0	1	0.889472961426	None	None	None	None	1
1.7	2015_Jul_29_1403	s	s	15	3	SIC	446	ABS	2	2	24VD	0	1	1.71484303474	None	None	None	None	1
1.7	2015_Jul_29_1403	s	s	15	3	SIC	447	ABS	1	0	24MC	0	1	4.9077000618	None	None	None	None	1
1.7	2015_Jul_29_1403	s	s	15	3	SIC	448	ABS	0	2	24RD	0	1	2.77229094505	None	None	None	None	1
1.7	2015_Jul_29_1403	s	s	15	3	SIC	449	ABS	2	0	24VC	0	1	0.596435785294	None	None	None	None	1
1.7	2015_Jul_29_1403	s	s	15	3	SIC	450	RC	0	2	23RD	1	0	0.670234918594	-506.0	-65.0	-510	-65	1
1.7	2015_Jul_29_1403	s	s	15	3	SIC	451	RC	2	0	23VC	1	0	0.491050958633	-491.0	24.0	-494	20	1
1.7	2015_Jul_29_1403	s	s	15	3	SIC	452	ABS	2	2	24VD	0	1	0.523118019104	None	None	None	None	1
1.7	2015_Jul_29_1403	s	s	15	3	SIC	453	ABS	1	1	24MO	0	1	1.84737896919	None	None	None	None	1
1.7	2015_Jul_29_1403	s	s	15	3	SIC	454	RC	2	2	23VD	1	0	0.500641107559	-319.0	-192.0	-312	-189	1
1.7	2015_Jul_29_1403	s	s	15	3	SIC	455	ABS	0	2	24RD	0	1	18.6759138107	None	None	None	None	1
1.7	2015_Jul_29_1403	s	s	15	3	SIC	456	ABS	0	1	24RO	0	1	4.02046704292	None	None	None	None	1
1.7	2015_Jul_29_1403	s	s	15	3	SIC	457	ABS	1	0	24MC	0	1	3.00995802879	None	None	None	None	1
1.7	2015_Jul_29_1403	s	s	15	3	SIC	458	RC	1	2	23MD	1	0	0.740942955017	275.0	-396.0	283	-397	1
1.7	2015_Jul_29_1403	s	s	15	3	SIC	459	RC	0	1	23RO	1	0	3.57272696495	-49.0	406.0	-52	399	1
1.7	2015_Jul_29_1403	s	s	15	3	SIC	460	RC	2	1	23VO	1	0	0.642971992493	-529.0	181.0	-526	185	1
1.7	2015_Jul_29_1403	s	s	15	3	SIC	461	ABS	2	1	24VO	0	1	0.629944086075	None	None	None	None	1
1.7	2015_Jul_29_1403	s	s	15	3	SIC	462	RC	1	1	23MO	1	0	1.80708003044	295.0	-145.0	296	-142	1
1.7	2015_Jul_29_1403	s	s	15	3	SIC	463	ABS	1	2	24MD	0	1	0.529039859772	None	None	None	None	1
1.7	2015_Jul_29_1403	s	s	15	3	SIC	464	RC	1	0	23MC	1	0	0.746858119965	1.0	-51.0	3	-45	1
1.7	2015_Jul_29_1403	s	s	15	3	SIC	465	RC	1	1	23MO	1	0	1.5702149868	-278.0	-309.0	-272	-309	1
1.7	2015_Jul_29_1403	s	s	15	3	SIC	466	ABS	2	2	24VD	0	1	0.623264074326	None	None	None	None	1
1.7	2015_Jul_29_1403	s	s	15	3	SIC	467	ABS	1	1	24MO	0	1	3.28863787651	None	None	None	None	1
1.7	2015_Jul_29_1403	s	s	15	3	SIC	468	RC	2	2	23VD	1	0	0.500349998474	-357.0	390.0	-355	388	1
1.7	2015_Jul_29_1403	s	s	15	3	SIC	469	RC	0	1	23RO	1	0	0.693876981735	48.0	91.0	40	96	1
1.7	2015_Jul_29_1403	s	s	15	3	SIC	470	ABS	2	0	24VC	0	1	0.729038000107	None	None	None	None	1
1.7	2015_Jul_29_1403	s	s	15	3	SIC	471	RC	1	2	23MD	1	0	0.682012081146	369.0	298.0	368	299	1
1.7	2015_Jul_29_1403	s	s	15	3	SIC	472	ABS	0	2	24RD	0	1	1.08910012245	None	None	None	None	1
1.7	2015_Jul_29_1403	s	s	15	3	SIC	473	RC	2	1	23VO	1	0	0.464485883713	-486.0	-143.0	-478	-141	1
1.7	2015_Jul_29_1403	s	s	15	3	SIC	474	RC	1	0	23MC	1	0	1.55352711678	317.0	62.0	322	68	1
1.7	2015_Jul_29_1403	s	s	15	3	SIC	475	ABS	1	0	24MC	0	1	2.58415293694	None	None	None	None	1
1.7	2015_Jul_29_1403	s	s	15	3	SIC	476	ABS	2	1	24VO	0	1	0.641700029373	None	None	None	None	1
1.7	2015_Jul_29_1403	s	s	15	3	SIC	477	RC	2	0	23VC	1	0	0.470197200775	-296.0	-381.0	-291	-378	1
1.7	2015_Jul_29_1403	s	s	15	3	SIC	478	ABS	1	2	24MD	0	1	0.611428976059	None	None	None	None	1
1.7	2015_Jul_29_1403	s	s	15	3	SIC	479	RC	0	2	23RD	1	0	0.787988901138	-4.0	-60.0	6	-57	1
1.7	2015_Jul_29_1403	s	s	15	3	SIC	480	ABS	0	1	24RO	0	1	5.25281310081	None	None	None	None	1
1.7	2015_Jul_29_1403	s	s	15	3	SIC	481	RC	0	2	23RD	1	0	0.655420064926	27.0	279.0	20	283	1
1.7	2015_Jul_29_1403	s	s	15	3	SIC	482	RC	0	1	23RO	0	1	3.04796218872	-447.0	-34.0	None	None	0
1.7	2015_Jul_29_1403	s	s	15	3	SIC	483	ABS	0	2	24RD	0	1	1.29415297508	None	None	None	None	1
1.7	2015_Jul_29_1403	s	s	15	3	SIC	484	RC	2	0	23VC	1	0	0.688360214233	135.0	-276.0	130	-272	1
1.7	2015_Jul_29_1403	s	s	15	3	SIC	485	ABS	1	2	24MD	0	1	0.500335931778	None	None	None	None	1
1.7	2015_Jul_29_1403	s	s	15	3	SIC	486	ABS	2	2	24VD	0	1	0.481997013092	None	None	None	None	1
1.7	2015_Jul_29_1403	s	s	15	3	SIC	487	ABS	1	0	24MC	0	1	2.43587398529	None	None	None	None	1
1.7	2015_Jul_29_1403	s	s	15	3	SIC	488	RC	1	2	23MD	1	0	0.956468105316	453.0	-229.0	456	-229	1
1.7	2015_Jul_29_1403	s	s	15	3	SIC	489	ABS	2	0	24VC	0	1	0.514309883118	None	None	None	None	1
1.7	2015_Jul_29_1403	s	s	15	3	SIC	490	ABS	0	1	24RO	0	1	7.03811883926	None	None	None	None	1
1.7	2015_Jul_29_1403	s	s	15	3	SIC	491	ABS	1	1	24MO	0	1	1.93643498421	None	None	None	None	1
1.7	2015_Jul_29_1403	s	s	15	3	SIC	492	RC	2	1	23VO	1	0	0.89918589592	-1.0	-345.0	2	-350	1
1.7	2015_Jul_29_1403	s	s	15	3	SIC	493	RC	1	0	23MC	1	0	0.658492803574	-19.0	-240.0	-27	-238	1
1.7	2015_Jul_29_1403	s	s	15	3	SIC	494	RC	1	1	23MO	0	1	1.43543481827	-275.0	398.0	None	None	0
1.7	2015_Jul_29_1403	s	s	15	3	SIC	495	RC	2	2	23VD	1	0	0.746868133545	-388.0	-53.0	-392	-49	1
1.7	2015_Jul_29_1403	s	s	15	3	SIC	496	ABS	2	1	24VO	0	1	0.618608951569	None	None	None	None	1
1.7	2015_Jul_29_1403	s	s	15	3	SIC	497	RC	2	0	23VC	1	0	0.596271038055	-166.0	-292.0	-160	-295	1
1.7	2015_Jul_29_1403	s	s	15	3	SIC	498	ABS	2	2	24VD	0	1	0.6426820755	None	None	None	None	1
1.7	2015_Jul_29_1403	s	s	15	3	SIC	499	ABS	1	0	24MC	0	1	2.21225881577	None	None	None	None	1
1.7	2015_Jul_29_1403	s	s	15	3	SIC	500	ABS	2	1	24VO	0	1	0.58283495903	None	None	None	None	1
1.7	2015_Jul_29_1403	s	s	15	3	SIC	501	ABS	1	2	24MD	0	1	3.50249290466	None	None	None	None	1
1.7	2015_Jul_29_1403	s	s	15	3	SIC	502	ABS	0	1	24RO	0	1	1.90612101555	None	None	None	None	1
1.7	2015_Jul_29_1403	s	s	15	3	SIC	503	RC	0	1	23RO	0	1	2.30643701553	-453.0	377.0	None	None	0
1.7	2015_Jul_29_1403	s	s	15	3	SIC	504	RC	0	2	23RD	1	0	0.558743953705	-166.0	-286.0	-168	-289	1
1.7	2015_Jul_29_1403	s	s	15	3	SIC	505	ABS	1	1	24MO	0	1	1.55917811394	None	None	None	None	1
1.7	2015_Jul_29_1403	s	s	15	3	SIC	506	ABS	2	0	24VC	0	1	0.57609295845	None	None	None	None	1
1.7	2015_Jul_29_1403	s	s	15	3	SIC	507	RC	1	0	23MC	1	0	2.00944209099	470.0	-391.0	467	-403	1
1.7	2015_Jul_29_1403	s	s	15	3	SIC	508	RC	2	1	23VO	1	0	0.505433082581	-192.0	92.0	-194	94	1
1.7	2015_Jul_29_1403	s	s	15	3	SIC	509	ABS	0	2	24RD	0	1	5.05563592911	None	None	None	None	1
1.7	2015_Jul_29_1403	s	s	15	3	SIC	510	RC	1	2	23MD	1	0	0.78420996666	303.0	-198.0	297	-200	1
1.7	2015_Jul_29_1403	s	s	15	3	SIC	511	RC	1	1	23MO	1	0	1.47746491432	236.0	324.0	245	325	1
1.7	2015_Jul_29_1403	s	s	15	3	SIC	512	RC	2	2	23VD	1	0	0.764487028122	-524.0	409.0	-529	413	1
1.7	2015_Jul_29_1403	s	s	15	3	SIC	513	RC	1	1	23MO	1	0	1.52437210083	-8.0	105.0	-4	101	1
1.7	2015_Jul_29_1403	s	s	15	3	SIC	514	ABS	0	2	24RD	0	1	4.86743187904	None	None	None	None	1
1.7	2015_Jul_29_1403	s	s	15	3	SIC	515	RC	0	2	23RD	1	0	0.691077947617	387.0	-203.0	387	-206	1
1.7	2015_Jul_29_1403	s	s	15	3	SIC	516	ABS	1	1	24MO	0	1	3.29877996445	None	None	None	None	1
1.7	2015_Jul_29_1403	s	s	15	3	SIC	517	RC	2	2	23VD	1	0	0.976267814636	363.0	-348.0	366	-340	1
1.7	2015_Jul_29_1403	s	s	15	3	SIC	518	RC	0	1	23RO	1	0	2.15963292122	-57.0	181.0	-48	188	1
1.7	2015_Jul_29_1403	s	s	15	3	SIC	519	RC	1	0	23MC	1	0	19.8913428783	390.0	405.0	72	23	0
1.7	2015_Jul_29_1403	s	s	15	3	SIC	520	ABS	2	2	24VD	0	1	0.61146402359	None	None	None	None	1
1.7	2015_Jul_29_1403	s	s	15	3	SIC	521	ABS	0	1	24RO	0	1	3.92590498924	None	None	None	None	1
1.7	2015_Jul_29_1403	s	s	15	3	SIC	522	ABS	2	0	24VC	0	1	0.491179943085	None	None	None	None	1
1.7	2015_Jul_29_1403	s	s	15	3	SIC	523	ABS	1	0	24MC	0	1	1.80041480064	None	None	None	None	1
1.7	2015_Jul_29_1403	s	s	15	3	SIC	524	RC	2	0	23VC	1	0	0.493716955185	-45.0	-342.0	-43	-344	1
1.7	2015_Jul_29_1403	s	s	15	3	SIC	525	RC	1	2	23MD	1	0	0.464880943298	44.0	138.0	40	137	1
1.7	2015_Jul_29_1403	s	s	15	3	SIC	526	ABS	1	2	24MD	0	1	0.547660827637	None	None	None	None	1
1.7	2015_Jul_29_1403	s	s	15	3	SIC	527	RC	2	1	23VO	1	0	0.493729114532	10.0	-241.0	15	-238	1
1.7	2015_Jul_29_1403	s	s	15	3	SIC	528	ABS	2	1	24VO	0	1	0.547407150269	None	None	None	None	1
1.7	2015_Jul_29_1403	s	s	15	3	SIC	529	ABS	2	0	24VC	0	1	0.514246940613	None	None	None	None	1
1.7	2015_Jul_29_1403	s	s	15	3	SIC	530	RC	0	1	23RO	0	1	3.69028902054	464.0	313.0	None	None	0
1.7	2015_Jul_29_1403	s	s	15	3	SIC	531	RC	1	0	23MC	0	1	1.0705139637	494.0	-130.0	None	None	0
1.7	2015_Jul_29_1403	s	s	15	3	SIC	532	ABS	0	1	24RO	0	1	6.02099680901	None	None	None	None	1
1.7	2015_Jul_29_1403	s	s	15	3	SIC	533	RC	2	2	23VD	1	0	0.500411987305	-138.0	83.0	-141	74	1
1.7	2015_Jul_29_1403	s	s	15	3	SIC	534	ABS	1	1	24MO	0	1	3.82206296921	None	None	None	None	1
1.7	2015_Jul_29_1403	s	s	15	3	SIC	535	RC	2	1	23VO	1	0	0.452945947647	-307.0	-153.0	-306	-149	1
1.7	2015_Jul_29_1403	s	s	15	3	SIC	536	RC	1	2	23MD	1	0	0.634907007217	211.0	263.0	208	255	1
1.7	2015_Jul_29_1403	s	s	15	3	SIC	537	RC	2	0	23VC	1	0	0.481947183609	-538.0	297.0	-542	302	1
1.7	2015_Jul_29_1403	s	s	15	3	SIC	538	ABS	0	2	24RD	0	1	1.11756587029	None	None	None	None	1
1.7	2015_Jul_29_1403	s	s	15	3	SIC	539	RC	1	1	23MO	1	0	0.829199075699	-381.0	-8.0	-378	-12	1
1.7	2015_Jul_29_1403	s	s	15	3	SIC	540	ABS	1	0	24MC	0	1	2.76556301117	None	None	None	None	1
1.7	2015_Jul_29_1403	s	s	15	3	SIC	541	ABS	1	2	24MD	0	1	0.823328018188	None	None	None	None	1
1.7	2015_Jul_29_1403	s	s	15	3	SIC	542	ABS	2	1	24VO	0	1	0.535893917084	None	None	None	None	1
1.7	2015_Jul_29_1403	s	s	15	3	SIC	543	ABS	2	2	24VD	0	1	0.620059013367	None	None	None	None	1
1.7	2015_Jul_29_1403	s	s	15	3	SIC	544	RC	0	2	23RD	1	0	0.552597045898	-49.0	269.0	-49	271	1
1.7	2015_Jul_29_1403	s	s	15	3	SIC	545	ABS	2	2	24VD	0	1	0.458431005478	None	None	None	None	1
1.7	2015_Jul_29_1403	s	s	15	3	SIC	546	ABS	0	1	24RO	0	1	2.85961508751	None	None	None	None	1
1.7	2015_Jul_29_1403	s	s	15	3	SIC	547	RC	0	1	23RO	1	0	2.61910700798	126.0	360.0	136	360	1
1.7	2015_Jul_29_1403	s	s	15	3	SIC	548	ABS	1	2	24MD	0	1	1.17639994621	None	None	None	None	1
1.7	2015_Jul_29_1403	s	s	15	3	SIC	549	RC	2	2	23VD	1	0	0.453819036484	429.0	37.0	437	38	1
1.7	2015_Jul_29_1403	s	s	15	3	SIC	550	ABS	1	0	24MC	0	1	1.73646712303	None	None	None	None	1
1.7	2015_Jul_29_1403	s	s	15	3	SIC	551	ABS	1	1	24MO	0	1	1.94156908989	None	None	None	None	1
1.7	2015_Jul_29_1403	s	s	15	3	SIC	552	ABS	2	1	24VO	0	1	0.658588886261	None	None	None	None	1
1.7	2015_Jul_29_1403	s	s	15	3	SIC	553	RC	1	1	23MO	1	0	0.905788898468	-39.0	-243.0	-42	-244	1
1.7	2015_Jul_29_1403	s	s	15	3	SIC	554	RC	0	2	23RD	1	0	0.547681808472	-116.0	-295.0	-111	-293	1
1.7	2015_Jul_29_1403	s	s	15	3	SIC	555	RC	2	1	23VO	1	0	0.670397996902	75.0	-112.0	72	-106	1
1.7	2015_Jul_29_1403	s	s	15	3	SIC	556	RC	1	2	23MD	1	0	0.493718862534	257.0	-380.0	264	-378	1
1.7	2015_Jul_29_1403	s	s	15	3	SIC	557	ABS	0	2	24RD	0	1	0.970432043076	None	None	None	None	1
1.7	2015_Jul_29_1403	s	s	15	3	SIC	558	RC	1	0	23MC	1	0	1.25384092331	-357.0	-256.0	-367	-256	1
1.7	2015_Jul_29_1403	s	s	15	3	SIC	559	RC	2	0	23VC	1	0	0.470102071762	42.0	-214.0	47	-215	1
1.7	2015_Jul_29_1403	s	s	15	3	SIC	560	ABS	2	0	24VC	0	1	0.52488899231	None	None	None	None	1
1.7	2015_Jul_29_1403	s	s	15	3	SIC	561	RC	2	0	23VC	1	0	0.500527858734	172.0	291.0	167	287	1
1.7	2015_Jul_29_1403	s	s	15	3	SIC	562	RC	1	2	23MD	1	0	0.466604948044	391.0	-47.0	387	-41	1
1.7	2015_Jul_29_1403	s	s	15	3	SIC	563	RC	1	1	23MO	1	0	0.700567960739	-236.0	278.0	-234	280	1
1.7	2015_Jul_29_1403	s	s	15	3	SIC	564	ABS	1	0	24MC	0	1	2.17209100723	None	None	None	None	1
1.7	2015_Jul_29_1403	s	s	15	3	SIC	565	RC	1	0	23MC	1	0	1.1999540329	-287.0	181.0	501	-373	0
1.7	2015_Jul_29_1403	s	s	15	3	SIC	566	RC	0	1	23RO	1	0	1.33618593216	269.0	-226.0	268	-231	1
1.7	2015_Jul_29_1403	s	s	15	3	SIC	567	ABS	0	1	24RO	0	1	2.51871800423	None	None	None	None	1
1.7	2015_Jul_29_1403	s	s	15	3	SIC	568	ABS	1	1	24MO	0	1	2.53673696518	None	None	None	None	1
1.7	2015_Jul_29_1403	s	s	15	3	SIC	569	ABS	0	2	24RD	0	1	1.10069394112	None	None	None	None	1
1.7	2015_Jul_29_1403	s	s	15	3	SIC	570	ABS	2	1	24VO	0	1	0.959553003311	None	None	None	None	1
1.7	2015_Jul_29_1403	s	s	15	3	SIC	571	RC	0	2	23RD	1	0	0.634994029999	-465.0	-141.0	-453	-138	1
1.7	2015_Jul_29_1403	s	s	15	3	SIC	572	ABS	1	2	24MD	0	1	0.529007911682	None	None	None	None	1
1.7	2015_Jul_29_1403	s	s	15	3	SIC	573	RC	2	1	23VO	0	1	0.576141834259	450.0	-166.0	None	None	0
1.7	2015_Jul_29_1403	s	s	15	3	SIC	574	RC	2	2	23VD	1	0	0.599596977234	136.0	25.0	126	26	1
1.7	2015_Jul_29_1403	s	s	15	3	SIC	575	ABS	2	2	24VD	0	1	0.623252868652	None	None	None	None	1
1.7	2015_Jul_29_1403	s	s	15	3	SIC	576	ABS	2	0	24VC	0	1	0.753166913986	None	None	None	None	1
1.7	2015_Jul_29_1403	s	s	15	3	SIC	577	ABS	0	1	24RO	1	0	2.40421581268	None	None	58	-23	0
1.7	2015_Jul_29_1403	s	s	15	3	SIC	578	RC	1	1	23MO	0	1	3.05975699425	295.0	238.0	None	None	0
1.7	2015_Jul_29_1403	s	s	15	3	SIC	579	ABS	2	1	24VO	0	1	0.679383039474	None	None	None	None	1
1.7	2015_Jul_29_1403	s	s	15	3	SIC	580	ABS	1	2	24MD	0	1	0.681801080704	None	None	None	None	1
1.7	2015_Jul_29_1403	s	s	15	3	SIC	581	ABS	0	2	24RD	0	1	1.21174502373	None	None	None	None	1
1.7	2015_Jul_29_1403	s	s	15	3	SIC	582	ABS	2	2	24VD	0	1	0.862793207169	None	None	None	None	1
1.7	2015_Jul_29_1403	s	s	15	3	SIC	583	RC	2	1	23VO	1	0	0.541229963303	-427.0	-363.0	-419	-361	1
1.7	2015_Jul_29_1403	s	s	15	3	SIC	584	RC	2	0	23VC	1	0	0.478652954102	-535.0	86.0	-534	86	1
1.7	2015_Jul_29_1403	s	s	15	3	SIC	585	ABS	2	0	24VC	0	1	1.03019189835	None	None	None	None	1
1.7	2015_Jul_29_1403	s	s	15	3	SIC	586	RC	1	0	23MC	1	0	1.30085992813	-279.0	86.0	-268	86	1
1.7	2015_Jul_29_1403	s	s	15	3	SIC	587	ABS	1	1	24MO	0	1	3.2807700634	None	None	None	None	1
1.7	2015_Jul_29_1403	s	s	15	3	SIC	588	RC	1	2	23MD	1	0	0.523988008499	197.0	-266.0	208	-258	1
1.7	2015_Jul_29_1403	s	s	15	3	SIC	589	ABS	1	0	24MC	0	1	2.84517502785	None	None	None	None	1
1.7	2015_Jul_29_1403	s	s	15	3	SIC	590	RC	0	2	23RD	1	0	0.664695978165	-148.0	-400.0	-153	-396	1
1.7	2015_Jul_29_1403	s	s	15	3	SIC	591	RC	2	2	23VD	1	0	0.382741928101	208.0	-8.0	202	-10	1
1.7	2015_Jul_29_1403	s	s	15	3	SIC	592	RC	0	1	23RO	1	0	0.811446905136	222.0	-53.0	219	-55	1
