Version	Date	Stimuli	Method	Subject	Session	Condition	Trial	Target	Channel1	Channel2	Distractors	LMouseButton	RMouseButton	RT	TargetX	TargetY	ResponseX	ResponseY	Correct
1.7	2015_Jul_27_1421	s	s	15	1	Capacity	1	ABS	1	0	24MC	1	0	8.29763007164	None	None	145	-5	0
1.7	2015_Jul_27_1421	s	s	15	1	Capacity	2	RC	1	0	23MC	1	0	4.47224187851	-439.0	-256.0	-70	-42	0
1.7	2015_Jul_27_1421	s	s	15	1	Capacity	3	ABS	2	0	24VC	0	1	7.79820799828	None	None	None	None	1
1.7	2015_Jul_27_1421	s	s	15	1	Capacity	4	RC	2	0	23VC	1	0	4.1747469902	-507.0	54.0	-501	57	1
1.7	2015_Jul_27_1421	s	s	15	1	Capacity	5	ABS	1	0	24MC	1	0	9.07438898087	None	None	-36	13	0
1.7	2015_Jul_27_1421	s	s	15	1	Capacity	6	RC	2	0	23VC	1	0	3.62469410896	-392.0	200.0	-391	200	1
1.7	2015_Jul_27_1421	s	s	15	1	Capacity	7	ABS	2	0	24VC	0	1	1.48909807205	None	None	None	None	1
1.7	2015_Jul_27_1421	s	s	15	1	Capacity	8	RC	1	0	23MC	1	0	4.01312589645	-237.0	-386.0	-68	-268	0
1.7	2015_Jul_27_1421	s	s	15	1	Capacity	9	RC	1	0	23MC	1	0	2.92785000801	236.0	397.0	-411	381	0
1.7	2015_Jul_27_1421	s	s	15	1	Capacity	10	ABS	1	0	24MC	1	0	4.87236189842	None	None	-293	128	0
1.7	2015_Jul_27_1421	s	s	15	1	Capacity	11	ABS	2	0	24VC	0	1	1.74140691757	None	None	None	None	1
1.7	2015_Jul_27_1421	s	s	15	1	Capacity	12	RC	2	0	23VC	1	0	4.03113698959	145.0	-62.0	140	-57	1
1.7	2015_Jul_27_1421	s	s	15	1	Capacity	13	RC	1	0	23MC	1	0	5.938808918	197.0	64.0	192	66	1
1.7	2015_Jul_27_1421	s	s	15	1	Capacity	14	ABS	2	0	24VC	0	1	1.1596019268	None	None	None	None	1
1.7	2015_Jul_27_1421	s	s	15	1	Capacity	15	ABS	1	0	24MC	1	0	7.73264503479	None	None	295	123	0
1.7	2015_Jul_27_1421	s	s	15	1	Capacity	16	RC	2	0	23VC	1	0	1.93666410446	22.0	-84.0	20	-83	1
1.7	2015_Jul_27_1421	s	s	15	1	Capacity	17	RC	1	0	23MC	1	0	4.85533094406	61.0	-69.0	64	-67	1
1.7	2015_Jul_27_1421	s	s	15	1	Capacity	18	ABS	2	0	24VC	0	1	1.07049489021	None	None	None	None	1
1.7	2015_Jul_27_1421	s	s	15	1	Capacity	19	ABS	1	0	24MC	1	0	3.34992599487	None	None	-55	47	0
1.7	2015_Jul_27_1421	s	s	15	1	Capacity	20	RC	2	0	23VC	1	0	1.63554096222	269.0	-349.0	272	-351	1
1.7	2015_Jul_27_1421	s	s	15	1	Capacity	21	RC	1	0	23MC	1	0	4.30404376984	275.0	-239.0	275	-235	1
1.7	2015_Jul_27_1421	s	s	15	1	Capacity	22	ABS	1	0	24MC	1	0	9.89875411987	None	None	-446	-204	0
1.7	2015_Jul_27_1421	s	s	15	1	Capacity	23	ABS	2	0	24VC	0	1	2.50172805786	None	None	None	None	1
1.7	2015_Jul_27_1421	s	s	15	1	Capacity	24	RC	2	0	23VC	1	0	1.3723089695	-457.0	-100.0	-465	-98	1
1.7	2015_Jul_27_1421	s	s	15	1	Capacity	25	ABS	1	0	24MC	1	0	12.5063028336	None	None	91	-143	0
1.7	2015_Jul_27_1421	s	s	15	1	Capacity	26	RC	1	0	23MC	1	0	8.12108707428	-166.0	-380.0	-176	-380	1
1.7	2015_Jul_27_1421	s	s	15	1	Capacity	27	ABS	2	0	24VC	0	1	1.31276106834	None	None	None	None	1
1.7	2015_Jul_27_1421	s	s	15	1	Capacity	28	RC	2	0	23VC	1	0	4.23215603828	-101.0	176.0	-102	176	1
1.7	2015_Jul_27_1421	s	s	15	1	Capacity	29	ABS	1	0	24MC	0	0	-1	None	None	None	None	-1
1.7	2015_Jul_27_1421	s	s	15	1	Capacity	30	RC	2	0	23VC	1	0	2.7032058239	-340.0	404.0	-345	397	1
1.7	2015_Jul_27_1421	s	s	15	1	Capacity	31	ABS	2	0	24VC	0	1	2.83120799065	None	None	None	None	1
1.7	2015_Jul_27_1421	s	s	15	1	Capacity	32	RC	1	0	23MC	1	0	7.38827085495	267.0	-99.0	270	-98	1
1.7	2015_Jul_27_1421	s	s	15	1	Capacity	33	RC	2	0	23VC	1	0	1.97690987587	222.0	-23.0	226	-22	1
1.7	2015_Jul_27_1421	s	s	15	1	Capacity	34	ABS	1	0	24MC	0	1	16.2026350498	None	None	None	None	1
1.7	2015_Jul_27_1421	s	s	15	1	Capacity	35	RC	1	0	23MC	1	0	6.0964410305	-113.0	1.0	-104	-1	1
1.7	2015_Jul_27_1421	s	s	15	1	Capacity	36	ABS	2	0	24VC	0	1	1.042096138	None	None	None	None	1
1.7	2015_Jul_27_1421	s	s	15	1	Capacity	37	ABS	1	0	24MC	1	0	17.4551770687	None	None	524	232	0
1.7	2015_Jul_27_1421	s	s	15	1	Capacity	38	RC	1	0	23MC	1	0	6.63796782494	416.0	-298.0	419	-309	1
1.7	2015_Jul_27_1421	s	s	15	1	Capacity	39	RC	2	0	23VC	1	0	1.58481407166	-467.0	274.0	-464	274	1
1.7	2015_Jul_27_1421	s	s	15	1	Capacity	40	ABS	2	0	24VC	0	1	2.21222782135	None	None	None	None	1
1.7	2015_Jul_27_1421	s	s	15	1	Capacity	41	ABS	1	0	24MC	1	0	11.5650529861	None	None	-537	288	0
1.7	2015_Jul_27_1421	s	s	15	1	Capacity	42	ABS	2	0	24VC	0	1	0.811547040939	None	None	None	None	1
1.7	2015_Jul_27_1421	s	s	15	1	Capacity	43	RC	2	0	23VC	1	0	1.30597400665	-108.0	-178.0	-102	-179	1
1.7	2015_Jul_27_1421	s	s	15	1	Capacity	44	RC	1	0	23MC	1	0	2.12981700897	-335.0	-58.0	-330	-59	1
1.7	2015_Jul_27_1421	s	s	15	1	Capacity	45	RC	2	0	23VC	1	0	0.900891065598	257.0	301.0	255	306	1
1.7	2015_Jul_27_1421	s	s	15	1	Capacity	46	ABS	1	0	24MC	0	1	8.04640316963	None	None	None	None	1
1.7	2015_Jul_27_1421	s	s	15	1	Capacity	47	RC	1	0	23MC	0	1	6.40637302399	-105.0	-271.0	None	None	0
1.7	2015_Jul_27_1421	s	s	15	1	Capacity	48	ABS	2	0	24VC	0	1	1.05403494835	None	None	None	None	1
1.7	2015_Jul_27_1421	s	s	15	1	Capacity	49	RC	2	0	23VC	1	0	1.28905200958	-333.0	84.0	-337	84	1
1.7	2015_Jul_27_1421	s	s	15	1	Capacity	50	ABS	1	0	24MC	1	0	12.2995381355	None	None	-190	-7	0
1.7	2015_Jul_27_1421	s	s	15	1	Capacity	51	RC	1	0	23MC	1	0	2.24749898911	282.0	20.0	288	15	1
1.7	2015_Jul_27_1421	s	s	15	1	Capacity	52	ABS	2	0	24VC	0	1	0.956477880478	None	None	None	None	1
1.7	2015_Jul_27_1421	s	s	15	1	Capacity	53	RC	2	0	23VC	1	0	0.917507886887	-206.0	-348.0	-203	-347	1
1.7	2015_Jul_27_1421	s	s	15	1	Capacity	54	RC	1	0	23MC	1	0	4.30741381645	-499.0	235.0	-502	238	1
1.7	2015_Jul_27_1421	s	s	15	1	Capacity	55	ABS	2	0	24VC	0	1	1.96507406235	None	None	None	None	1
1.7	2015_Jul_27_1421	s	s	15	1	Capacity	56	ABS	1	0	24MC	0	1	10.4938158989	None	None	None	None	1
1.7	2015_Jul_27_1421	s	s	15	1	Capacity	57	ABS	1	0	24MC	0	1	10.8047988415	None	None	None	None	1
1.7	2015_Jul_27_1421	s	s	15	1	Capacity	58	RC	2	0	23VC	1	0	1.08226299286	-68.0	345.0	-71	349	1
1.7	2015_Jul_27_1421	s	s	15	1	Capacity	59	ABS	2	0	24VC	0	1	1.35994887352	None	None	None	None	1
1.7	2015_Jul_27_1421	s	s	15	1	Capacity	60	RC	1	0	23MC	1	0	3.67185306549	201.0	377.0	200	382	1
1.7	2015_Jul_27_1421	s	s	15	1	Capacity	61	RC	2	0	23VC	1	0	1.02325582504	97.0	-78.0	86	-76	1
1.7	2015_Jul_27_1421	s	s	15	1	Capacity	62	RC	1	0	23MC	1	0	6.91590809822	-97.0	-118.0	-102	-115	1
1.7	2015_Jul_27_1421	s	s	15	1	Capacity	63	ABS	1	0	24MC	0	1	3.23115587234	None	None	None	None	1
1.7	2015_Jul_27_1421	s	s	15	1	Capacity	64	ABS	2	0	24VC	0	1	1.19522500038	None	None	None	None	1
1.7	2015_Jul_27_1421	s	s	15	1	Capacity	65	ABS	1	0	24MC	0	1	11.4286351204	None	None	None	None	1
1.7	2015_Jul_27_1421	s	s	15	1	Capacity	66	ABS	2	0	24VC	0	1	0.929261922836	None	None	None	None	1
1.7	2015_Jul_27_1421	s	s	15	1	Capacity	67	RC	2	0	23VC	1	0	0.829587936401	-517.0	256.0	-523	253	1
1.7	2015_Jul_27_1421	s	s	15	1	Capacity	68	RC	1	0	23MC	1	0	3.02437996864	-443.0	93.0	-443	92	1
1.7	2015_Jul_27_1421	s	s	15	1	Capacity	69	RC	2	0	23VC	1	0	0.690555810928	-3.0	-301.0	-4	-299	1
1.7	2015_Jul_27_1421	s	s	15	1	Capacity	70	RC	1	0	23MC	1	0	3.25503706932	-477.0	373.0	-478	375	1
1.7	2015_Jul_27_1421	s	s	15	1	Capacity	71	ABS	1	0	24MC	0	1	8.53304696083	None	None	None	None	1
1.7	2015_Jul_27_1421	s	s	15	1	Capacity	72	ABS	2	0	24VC	0	1	0.997256040573	None	None	None	None	1
1.7	2015_Jul_27_1421	s	s	15	1	Capacity	73	ABS	1	0	24MC	0	1	14.9779698849	None	None	None	None	1
1.7	2015_Jul_27_1421	s	s	15	1	Capacity	74	RC	2	0	23VC	1	0	0.952764987946	530.0	224.0	528	227	1
1.7	2015_Jul_27_1421	s	s	15	1	Capacity	75	ABS	2	0	24VC	0	1	1.15663099289	None	None	None	None	1
1.7	2015_Jul_27_1421	s	s	15	1	Capacity	76	RC	1	0	23MC	1	0	1.08225393295	55.0	-314.0	55	-316	1
1.7	2015_Jul_27_1421	s	s	15	1	Capacity	77	ABS	1	0	24MC	0	1	1.72961783409	None	None	None	None	1
1.7	2015_Jul_27_1421	s	s	15	1	Capacity	78	RC	1	0	23MC	1	0	1.28273892403	-405.0	72.0	-400	72	1
1.7	2015_Jul_27_1421	s	s	15	1	Capacity	79	RC	2	0	23VC	1	0	0.929286003113	-132.0	328.0	-137	324	1
1.7	2015_Jul_27_1421	s	s	15	1	Capacity	80	ABS	2	0	24VC	0	1	0.924200057983	None	None	None	None	1
1.7	2015_Jul_27_1421	s	s	15	1	Capacity	81	RC	2	0	23VC	1	0	1.03267216682	-250.0	183.0	-255	176	1
1.7	2015_Jul_27_1421	s	s	15	1	Capacity	82	ABS	2	0	24VC	0	1	0.806721925735	None	None	None	None	1
1.7	2015_Jul_27_1421	s	s	15	1	Capacity	83	ABS	1	0	24MC	0	1	4.96659207344	None	None	None	None	1
1.7	2015_Jul_27_1421	s	s	15	1	Capacity	84	RC	1	0	23MC	1	0	2.41871619225	-147.0	-237.0	-145	-237	1
1.7	2015_Jul_27_1421	s	s	15	1	Capacity	85	ABS	2	0	24VC	0	1	1.08225798607	None	None	None	None	1
1.7	2015_Jul_27_1421	s	s	15	1	Capacity	86	ABS	1	0	24MC	0	1	5.97877502441	None	None	None	None	1
1.7	2015_Jul_27_1421	s	s	15	1	Capacity	87	RC	2	0	23VC	1	0	1.79756093025	265.0	266.0	268	264	1
1.7	2015_Jul_27_1421	s	s	15	1	Capacity	88	RC	1	0	23MC	1	0	3.4716989994	-279.0	-174.0	-268	-173	1
1.7	2015_Jul_27_1421	s	s	15	1	Capacity	89	ABS	1	0	24MC	0	1	2.31845092773	None	None	None	None	1
1.7	2015_Jul_27_1421	s	s	15	1	Capacity	90	RC	1	0	23MC	1	0	1.09400892258	248.0	105.0	243	99	1
1.7	2015_Jul_27_1421	s	s	15	1	Capacity	91	ABS	2	0	24VC	0	1	0.835072994232	None	None	None	None	1
1.7	2015_Jul_27_1421	s	s	15	1	Capacity	92	RC	2	0	23VC	1	0	2.39696598053	315.0	-226.0	315	-227	1
1.7	2015_Jul_27_1421	s	s	15	1	Capacity	1	RC	0	1	23RO	1	0	4.02012419701	340.0	351.0	336	347	1
1.7	2015_Jul_27_1421	s	s	15	1	Capacity	2	ABS	0	2	24RD	0	1	2.63598394394	None	None	None	None	1
1.7	2015_Jul_27_1421	s	s	15	1	Capacity	3	ABS	0	1	24RO	0	1	3.51877498627	None	None	None	None	1
1.7	2015_Jul_27_1421	s	s	15	1	Capacity	4	RC	0	2	23RD	1	0	0.806414842606	251.0	-169.0	264	-166	1
1.7	2015_Jul_27_1421	s	s	15	1	Capacity	5	RC	0	2	23RD	1	0	1.28916501999	12.0	406.0	15	411	1
1.7	2015_Jul_27_1421	s	s	15	1	Capacity	6	RC	0	1	23RO	0	1	2.84263801575	-22.0	-162.0	None	None	0
1.7	2015_Jul_27_1421	s	s	15	1	Capacity	7	ABS	0	1	24RO	0	1	3.62023115158	None	None	None	None	1
1.7	2015_Jul_27_1421	s	s	15	1	Capacity	8	ABS	0	2	24RD	0	1	2.70665502548	None	None	None	None	1
1.7	2015_Jul_27_1421	s	s	15	1	Capacity	9	RC	0	2	23RD	1	0	0.93418598175	428.0	365.0	433	358	1
1.7	2015_Jul_27_1421	s	s	15	1	Capacity	10	ABS	0	2	24RD	0	1	2.18329000473	None	None	None	None	1
1.7	2015_Jul_27_1421	s	s	15	1	Capacity	11	RC	0	1	23RO	1	0	1.02343392372	-67.0	-63.0	-62	-59	1
1.7	2015_Jul_27_1421	s	s	15	1	Capacity	12	ABS	0	1	24RO	0	1	4.10226988792	None	None	None	None	1
1.7	2015_Jul_27_1421	s	s	15	1	Capacity	13	ABS	0	1	24RO	0	1	5.99842000008	None	None	None	None	1
1.7	2015_Jul_27_1421	s	s	15	1	Capacity	14	RC	0	2	23RD	1	0	0.911664962769	-96.0	108.0	-100	101	1
1.7	2015_Jul_27_1421	s	s	15	1	Capacity	15	ABS	0	2	24RD	0	1	1.35917806625	None	None	None	None	1
1.7	2015_Jul_27_1421	s	s	15	1	Capacity	16	RC	0	1	23RO	1	0	1.40008878708	325.0	104.0	319	99	1
1.7	2015_Jul_27_1421	s	s	15	1	Capacity	17	RC	0	2	23RD	1	0	2.64771986008	382.0	-365.0	381	-364	1
1.7	2015_Jul_27_1421	s	s	15	1	Capacity	18	RC	0	1	23RO	1	0	3.19592118263	-137.0	-352.0	-132	-354	1
1.7	2015_Jul_27_1421	s	s	15	1	Capacity	19	ABS	0	1	24RO	0	1	4.51928591728	None	None	None	None	1
1.7	2015_Jul_27_1421	s	s	15	1	Capacity	20	ABS	0	2	24RD	0	1	0.941040039062	None	None	None	None	1
1.7	2015_Jul_27_1421	s	s	15	1	Capacity	21	ABS	0	2	24RD	0	1	2.08638596535	None	None	None	None	1
1.7	2015_Jul_27_1421	s	s	15	1	Capacity	22	RC	0	2	23RD	1	0	0.940989971161	77.0	-115.0	82	-110	1
1.7	2015_Jul_27_1421	s	s	15	1	Capacity	23	ABS	0	1	24RO	0	1	3.76601600647	None	None	None	None	1
1.7	2015_Jul_27_1421	s	s	15	1	Capacity	24	RC	0	1	23RO	1	0	1.54814291	-486.0	30.0	-481	28	1
1.7	2015_Jul_27_1421	s	s	15	1	Capacity	25	RC	0	1	23RO	1	0	1.21179103851	86.0	93.0	80	93	1
1.7	2015_Jul_27_1421	s	s	15	1	Capacity	26	RC	0	2	23RD	1	0	0.693825006485	313.0	179.0	314	183	1
1.7	2015_Jul_27_1421	s	s	15	1	Capacity	27	ABS	0	1	24RO	0	1	3.26598501205	None	None	None	None	1
1.7	2015_Jul_27_1421	s	s	15	1	Capacity	28	ABS	0	2	24RD	0	1	1.99507379532	None	None	None	None	1
1.7	2015_Jul_27_1421	s	s	15	1	Capacity	29	RC	0	1	23RO	0	1	5.70329189301	268.0	80.0	None	None	0
1.7	2015_Jul_27_1421	s	s	15	1	Capacity	30	RC	0	2	23RD	1	0	0.929263830185	147.0	118.0	148	113	1
1.7	2015_Jul_27_1421	s	s	15	1	Capacity	31	ABS	0	1	24RO	0	1	3.39853787422	None	None	None	None	1
1.7	2015_Jul_27_1421	s	s	15	1	Capacity	32	ABS	0	2	24RD	0	1	1.65635514259	None	None	None	None	1
1.7	2015_Jul_27_1421	s	s	15	1	Capacity	33	ABS	0	1	24RO	0	1	3.31869077682	None	None	None	None	1
1.7	2015_Jul_27_1421	s	s	15	1	Capacity	34	ABS	0	2	24RD	0	1	0.670358896255	None	None	None	None	1
1.7	2015_Jul_27_1421	s	s	15	1	Capacity	35	RC	0	2	23RD	1	0	1.44226098061	19.0	329.0	21	331	1
1.7	2015_Jul_27_1421	s	s	15	1	Capacity	36	RC	0	1	23RO	1	0	1.23529291153	76.0	-54.0	77	-56	1
1.7	2015_Jul_27_1421	s	s	15	1	Capacity	37	ABS	0	1	24RO	0	1	2.04247689247	None	None	None	None	1
1.7	2015_Jul_27_1421	s	s	15	1	Capacity	38	RC	0	1	23RO	0	1	3.29045701027	323.0	241.0	None	None	0
1.7	2015_Jul_27_1421	s	s	15	1	Capacity	39	ABS	0	2	24RD	0	1	2.25936198235	None	None	None	None	1
1.7	2015_Jul_27_1421	s	s	15	1	Capacity	40	RC	0	2	23RD	1	0	0.764461040497	-199.0	-331.0	-200	-335	1
1.7	2015_Jul_27_1421	s	s	15	1	Capacity	41	ABS	0	2	24RD	0	1	0.776435852051	None	None	None	None	1
1.7	2015_Jul_27_1421	s	s	15	1	Capacity	42	RC	0	1	23RO	1	0	0.605311870575	-47.0	-100.0	-45	-99	1
1.7	2015_Jul_27_1421	s	s	15	1	Capacity	43	ABS	0	1	24RO	0	1	2.40743207932	None	None	None	None	1
1.7	2015_Jul_27_1421	s	s	15	1	Capacity	44	RC	0	2	23RD	1	0	0.700672864914	-257.0	154.0	-265	149	1
1.7	2015_Jul_27_1421	s	s	15	1	Capacity	45	RC	0	2	23RD	1	0	0.705615997314	-65.0	-132.0	-57	-129	1
1.7	2015_Jul_27_1421	s	s	15	1	Capacity	46	RC	0	1	23RO	0	1	1.74810218811	466.0	320.0	None	None	0
1.7	2015_Jul_27_1421	s	s	15	1	Capacity	47	ABS	0	2	24RD	0	1	1.06563901901	None	None	None	None	1
1.7	2015_Jul_27_1421	s	s	15	1	Capacity	48	ABS	0	1	24RO	0	1	2.98332214355	None	None	None	None	1
1.7	2015_Jul_27_1421	s	s	15	1	Capacity	49	ABS	0	2	24RD	0	1	1.65466499329	None	None	None	None	1
1.7	2015_Jul_27_1421	s	s	15	1	Capacity	50	ABS	0	1	24RO	0	1	5.67281198502	None	None	None	None	1
1.7	2015_Jul_27_1421	s	s	15	1	Capacity	51	RC	0	1	23RO	1	0	1.12454104424	147.0	213.0	148	216	1
1.7	2015_Jul_27_1421	s	s	15	1	Capacity	52	RC	0	2	23RD	1	0	0.705650091171	-439.0	-32.0	-437	-35	1
1.7	2015_Jul_27_1421	s	s	15	1	Capacity	53	RC	0	1	23RO	1	0	5.27941298485	-299.0	338.0	-295	328	1
1.7	2015_Jul_27_1421	s	s	15	1	Capacity	54	RC	0	2	23RD	1	0	0.770823001862	-136.0	79.0	-132	77	1
1.7	2015_Jul_27_1421	s	s	15	1	Capacity	55	ABS	0	1	24RO	0	1	7.83859395981	None	None	None	None	1
1.7	2015_Jul_27_1421	s	s	15	1	Capacity	56	ABS	0	2	24RD	0	1	3.34898400307	None	None	None	None	1
1.7	2015_Jul_27_1421	s	s	15	1	Capacity	57	RC	0	1	23RO	1	0	1.40676593781	24.0	338.0	22	339	1
1.7	2015_Jul_27_1421	s	s	15	1	Capacity	58	ABS	0	2	24RD	0	1	1.79625296593	None	None	None	None	1
1.7	2015_Jul_27_1421	s	s	15	1	Capacity	59	ABS	0	1	24RO	0	1	9.38053393364	None	None	None	None	1
1.7	2015_Jul_27_1421	s	s	15	1	Capacity	60	RC	0	2	23RD	1	0	0.740910053253	23.0	142.0	21	131	1
1.7	2015_Jul_27_1421	s	s	15	1	Capacity	61	ABS	0	1	24RO	0	1	3.19602298737	None	None	None	None	1
1.7	2015_Jul_27_1421	s	s	15	1	Capacity	62	RC	0	1	23RO	1	0	1.2420361042	299.0	82.0	301	78	1
1.7	2015_Jul_27_1421	s	s	15	1	Capacity	63	RC	0	2	23RD	1	0	0.735759019852	-347.0	72.0	-342	63	1
1.7	2015_Jul_27_1421	s	s	15	1	Capacity	64	ABS	0	2	24RD	0	1	1.38030815125	None	None	None	None	1
1.7	2015_Jul_27_1421	s	s	15	1	Capacity	65	ABS	0	2	24RD	0	1	1.92974710464	None	None	None	None	1
1.7	2015_Jul_27_1421	s	s	15	1	Capacity	66	RC	0	1	23RO	1	0	3.11858892441	-464.0	-406.0	-468	-410	1
1.7	2015_Jul_27_1421	s	s	15	1	Capacity	67	RC	0	2	23RD	1	0	0.64209318161	-206.0	-407.0	-212	-415	1
1.7	2015_Jul_27_1421	s	s	15	1	Capacity	68	ABS	0	1	24RO	0	1	6.34373903275	None	None	None	None	1
1.7	2015_Jul_27_1421	s	s	15	1	Capacity	69	RC	0	1	23RO	1	0	5.46788096428	268.0	216.0	270	208	1
1.7	2015_Jul_27_1421	s	s	15	1	Capacity	70	ABS	0	2	24RD	0	1	2.63598394394	None	None	None	None	1
1.7	2015_Jul_27_1421	s	s	15	1	Capacity	71	RC	0	2	23RD	1	0	0.858636856079	-14.0	-412.0	-12	-422	1
1.7	2015_Jul_27_1421	s	s	15	1	Capacity	72	ABS	0	1	24RO	0	1	6.82631397247	None	None	None	None	1
1.7	2015_Jul_27_1421	s	s	15	1	Capacity	73	ABS	0	1	24RO	0	1	9.1072769165	None	None	None	None	1
1.7	2015_Jul_27_1421	s	s	15	1	Capacity	74	RC	0	2	23RD	1	0	1.00886511803	317.0	52.0	323	51	1
1.7	2015_Jul_27_1421	s	s	15	1	Capacity	75	RC	0	1	23RO	1	0	1.34811687469	-427.0	-91.0	-425	-89	1
1.7	2015_Jul_27_1421	s	s	15	1	Capacity	76	ABS	0	2	24RD	0	1	2.60656714439	None	None	None	None	1
1.7	2015_Jul_27_1421	s	s	15	1	Capacity	77	RC	0	2	23RD	1	0	0.807615995407	-175.0	328.0	-169	334	1
1.7	2015_Jul_27_1421	s	s	15	1	Capacity	78	RC	0	1	23RO	1	0	1.66590094566	-203.0	-189.0	-204	-190	1
1.7	2015_Jul_27_1421	s	s	15	1	Capacity	79	ABS	0	2	24RD	0	1	0.835101127625	None	None	None	None	1
1.7	2015_Jul_27_1421	s	s	15	1	Capacity	80	ABS	0	1	24RO	0	1	6.52030396461	None	None	None	None	1
1.7	2015_Jul_27_1421	s	s	15	1	Capacity	81	ABS	0	1	24RO	0	1	8.48251795769	None	None	None	None	1
1.7	2015_Jul_27_1421	s	s	15	1	Capacity	82	ABS	0	2	24RD	0	1	2.97254920006	None	None	None	None	1
1.7	2015_Jul_27_1421	s	s	15	1	Capacity	83	RC	0	2	23RD	1	0	1.09421300888	446.0	-277.0	454	-276	1
1.7	2015_Jul_27_1421	s	s	15	1	Capacity	84	RC	0	1	23RO	1	0	0.960165977478	-159.0	-19.0	-167	-17	1
1.7	2015_Jul_27_1421	s	s	15	1	Capacity	85	ABS	0	1	24RO	0	1	8.62413311005	None	None	None	None	1
1.7	2015_Jul_27_1421	s	s	15	1	Capacity	86	RC	0	1	23RO	1	0	3.56091809273	470.0	29.0	479	30	1
1.7	2015_Jul_27_1421	s	s	15	1	Capacity	87	ABS	0	2	24RD	0	1	2.04239201546	None	None	None	None	1
1.7	2015_Jul_27_1421	s	s	15	1	Capacity	88	RC	0	2	23RD	1	0	0.999920129776	280.0	-336.0	280	-330	1
1.7	2015_Jul_27_1421	s	s	15	1	Capacity	89	ABS	0	1	24RO	0	1	5.90819501877	None	None	None	None	1
1.7	2015_Jul_27_1421	s	s	15	1	Capacity	90	RC	0	2	23RD	1	0	0.740968942642	-325.0	92.0	-326	88	1
1.7	2015_Jul_27_1421	s	s	15	1	Capacity	91	RC	0	1	23RO	1	0	4.2602751255	353.0	376.0	355	375	1
1.7	2015_Jul_27_1421	s	s	15	1	Capacity	92	ABS	0	2	24RD	0	1	1.63547301292	None	None	None	None	1
1.7	2015_Jul_27_1421	s	s	15	1	SIC	1	ABS	2	0	24VC	0	1	1.03520822525	None	None	None	None	1
1.7	2015_Jul_27_1421	s	s	15	1	SIC	2	RC	1	1	23MO	1	0	1.2049369812	-250.0	-97.0	-247	-97	1
1.7	2015_Jul_27_1421	s	s	15	1	SIC	3	RC	1	0	23MC	0	1	3.0479259491	443.0	-267.0	None	None	0
1.7	2015_Jul_27_1421	s	s	15	1	SIC	4	RC	2	1	23VO	1	0	0.72913980484	-195.0	165.0	-197	166	1
1.7	2015_Jul_27_1421	s	s	15	1	SIC	5	ABS	1	1	24MO	0	1	3.53708720207	None	None	None	None	1
1.7	2015_Jul_27_1421	s	s	15	1	SIC	6	RC	1	2	23MD	1	0	1.04701900482	457.0	348.0	455	342	1
1.7	2015_Jul_27_1421	s	s	15	1	SIC	7	RC	2	2	23VD	1	0	0.61735701561	-202.0	-397.0	-207	-406	1
1.7	2015_Jul_27_1421	s	s	15	1	SIC	8	ABS	2	1	24VO	0	1	0.988102912903	None	None	None	None	1
1.7	2015_Jul_27_1421	s	s	15	1	SIC	9	ABS	2	2	24VD	0	1	0.773108005524	None	None	None	None	1
1.7	2015_Jul_27_1421	s	s	15	1	SIC	10	ABS	1	2	24MD	0	1	1.37321209908	None	None	None	None	1
1.7	2015_Jul_27_1421	s	s	15	1	SIC	11	RC	0	1	23RO	1	0	3.28332090378	339.0	-317.0	334	-318	1
1.7	2015_Jul_27_1421	s	s	15	1	SIC	12	ABS	0	1	24RO	0	1	7.42656803131	None	None	None	None	1
1.7	2015_Jul_27_1421	s	s	15	1	SIC	13	RC	0	2	23RD	1	0	0.682092905045	23.0	24.0	26	23	1
1.7	2015_Jul_27_1421	s	s	15	1	SIC	14	ABS	1	0	24MC	0	1	9.21573615074	None	None	None	None	1
1.7	2015_Jul_27_1421	s	s	15	1	SIC	15	RC	2	0	23VC	1	0	1.02717208862	-465.0	245.0	-453	248	1
1.7	2015_Jul_27_1421	s	s	15	1	SIC	16	ABS	0	2	24RD	0	1	1.06514000893	None	None	None	None	1
1.7	2015_Jul_27_1421	s	s	15	1	SIC	17	ABS	2	2	24VD	0	1	0.853402853012	None	None	None	None	1
1.7	2015_Jul_27_1421	s	s	15	1	SIC	18	ABS	2	1	24VO	0	1	1.8355410099	None	None	None	None	1
1.7	2015_Jul_27_1421	s	s	15	1	SIC	19	RC	1	2	23MD	1	0	1.0551609993	438.0	84.0	440	83	1
1.7	2015_Jul_27_1421	s	s	15	1	SIC	20	RC	1	0	23MC	0	1	3.33044195175	-340.0	393.0	None	None	0
1.7	2015_Jul_27_1421	s	s	15	1	SIC	21	RC	0	1	23RO	1	0	2.49513602257	-115.0	306.0	-110	313	1
1.7	2015_Jul_27_1421	s	s	15	1	SIC	22	ABS	0	2	24RD	0	1	1.68917393684	None	None	None	None	1
1.7	2015_Jul_27_1421	s	s	15	1	SIC	23	RC	2	2	23VD	1	0	0.877774000168	277.0	-239.0	277	-237	1
1.7	2015_Jul_27_1421	s	s	15	1	SIC	24	RC	2	1	23VO	1	0	0.82848405838	226.0	277.0	232	277	1
1.7	2015_Jul_27_1421	s	s	15	1	SIC	25	RC	0	2	23RD	1	0	0.806146860123	-93.0	-138.0	-84	-139	1
1.7	2015_Jul_27_1421	s	s	15	1	SIC	26	ABS	1	1	24MO	0	1	6.43793702126	None	None	None	None	1
1.7	2015_Jul_27_1421	s	s	15	1	SIC	27	ABS	1	0	24MC	0	1	7.46862196922	None	None	None	None	1
1.7	2015_Jul_27_1421	s	s	15	1	SIC	28	RC	2	0	23VC	1	0	0.653475046158	31.0	19.0	38	26	1
1.7	2015_Jul_27_1421	s	s	15	1	SIC	29	RC	1	1	23MO	1	0	1.38476896286	-78.0	46.0	-76	41	1
1.7	2015_Jul_27_1421	s	s	15	1	SIC	30	ABS	2	0	24VC	0	1	0.75274014473	None	None	None	None	1
1.7	2015_Jul_27_1421	s	s	15	1	SIC	31	ABS	1	2	24MD	0	1	1.61874008179	None	None	None	None	1
1.7	2015_Jul_27_1421	s	s	15	1	SIC	32	ABS	0	1	24RO	0	1	7.49726295471	None	None	None	None	1
1.7	2015_Jul_27_1421	s	s	15	1	SIC	33	RC	2	2	23VD	1	0	1.04718708992	-158.0	-358.0	-151	-352	1
1.7	2015_Jul_27_1421	s	s	15	1	SIC	34	RC	2	1	23VO	1	0	0.5970890522	96.0	-168.0	96	-170	1
1.7	2015_Jul_27_1421	s	s	15	1	SIC	35	ABS	0	2	24RD	0	1	1.45393896103	None	None	None	None	1
1.7	2015_Jul_27_1421	s	s	15	1	SIC	36	RC	0	1	23RO	1	0	2.66619706154	329.0	-127.0	334	-128	1
1.7	2015_Jul_27_1421	s	s	15	1	SIC	37	ABS	1	0	24MC	0	1	6.44625711441	None	None	None	None	1
1.7	2015_Jul_27_1421	s	s	15	1	SIC	38	ABS	2	2	24VD	0	1	0.740906000137	None	None	None	None	1
1.7	2015_Jul_27_1421	s	s	15	1	SIC	39	RC	1	0	23MC	1	0	1.72482299805	-215.0	199.0	-218	200	1
1.7	2015_Jul_27_1421	s	s	15	1	SIC	40	ABS	1	2	24MD	0	1	0.760110139847	None	None	None	None	1
1.7	2015_Jul_27_1421	s	s	15	1	SIC	41	RC	0	2	23RD	1	0	0.630346059799	-169.0	-27.0	-173	-29	1
1.7	2015_Jul_27_1421	s	s	15	1	SIC	42	ABS	1	1	24MO	0	1	5.53887701035	None	None	None	None	1
1.7	2015_Jul_27_1421	s	s	15	1	SIC	43	ABS	0	1	24RO	0	1	5.0253059864	None	None	None	None	1
1.7	2015_Jul_27_1421	s	s	15	1	SIC	44	ABS	2	1	24VO	0	1	1.65104079247	None	None	None	None	1
1.7	2015_Jul_27_1421	s	s	15	1	SIC	45	RC	2	0	23VC	1	0	0.783118963242	112.0	42.0	125	46	1
1.7	2015_Jul_27_1421	s	s	15	1	SIC	46	ABS	2	0	24VC	0	1	1.52443599701	None	None	None	None	1
1.7	2015_Jul_27_1421	s	s	15	1	SIC	47	RC	1	2	23MD	1	0	1.04300308228	-386.0	87.0	-392	90	1
1.7	2015_Jul_27_1421	s	s	15	1	SIC	48	RC	1	1	23MO	1	0	0.948074817657	-237.0	-9.0	-236	-10	1
1.7	2015_Jul_27_1421	s	s	15	1	SIC	49	RC	2	2	23VD	1	0	0.591585874557	492.0	38.0	488	42	1
1.7	2015_Jul_27_1421	s	s	15	1	SIC	50	ABS	1	0	24MC	0	1	2.91365385056	None	None	None	None	1
1.7	2015_Jul_27_1421	s	s	15	1	SIC	51	RC	2	1	23VO	1	0	0.658541202545	162.0	233.0	161	231	1
1.7	2015_Jul_27_1421	s	s	15	1	SIC	52	ABS	2	1	24VO	0	1	1.96506381035	None	None	None	None	1
1.7	2015_Jul_27_1421	s	s	15	1	SIC	53	ABS	0	2	24RD	0	1	1.75963020325	None	None	None	None	1
1.7	2015_Jul_27_1421	s	s	15	1	SIC	54	ABS	0	1	24RO	0	1	6.60264110565	None	None	None	None	1
1.7	2015_Jul_27_1421	s	s	15	1	SIC	55	RC	0	2	23RD	1	0	0.764502048492	263.0	138.0	268	130	1
1.7	2015_Jul_27_1421	s	s	15	1	SIC	56	ABS	1	1	24MO	0	1	5.97890305519	None	None	None	None	1
1.7	2015_Jul_27_1421	s	s	15	1	SIC	57	ABS	2	2	24VD	0	1	0.724394083023	None	None	None	None	1
1.7	2015_Jul_27_1421	s	s	15	1	SIC	58	RC	2	0	23VC	1	0	0.629770994186	-158.0	-193.0	-161	-197	1
1.7	2015_Jul_27_1421	s	s	15	1	SIC	59	RC	0	1	23RO	1	0	2.55359506607	-432.0	323.0	-423	327	1
1.7	2015_Jul_27_1421	s	s	15	1	SIC	60	RC	1	0	23MC	1	0	2.33657407761	485.0	301.0	490	296	1
1.7	2015_Jul_27_1421	s	s	15	1	SIC	61	ABS	2	0	24VC	0	1	0.729190826416	None	None	None	None	1
1.7	2015_Jul_27_1421	s	s	15	1	SIC	62	RC	1	2	23MD	1	0	0.582463026047	-432.0	-18.0	-436	-12	1
1.7	2015_Jul_27_1421	s	s	15	1	SIC	63	RC	1	1	23MO	1	0	1.84737706184	239.0	-390.0	238	-393	1
1.7	2015_Jul_27_1421	s	s	15	1	SIC	64	ABS	1	2	24MD	0	1	3.4716989994	None	None	None	None	1
1.7	2015_Jul_27_1421	s	s	15	1	SIC	65	ABS	2	0	24VC	0	1	1.38035798073	None	None	None	None	1
1.7	2015_Jul_27_1421	s	s	15	1	SIC	66	RC	1	1	23MO	1	0	1.01164507866	-2.0	168.0	6	173	1
1.7	2015_Jul_27_1421	s	s	15	1	SIC	67	ABS	0	1	24RO	0	1	5.03219485283	None	None	None	None	1
1.7	2015_Jul_27_1421	s	s	15	1	SIC	68	ABS	2	2	24VD	0	1	0.678719043732	None	None	None	None	1
1.7	2015_Jul_27_1421	s	s	15	1	SIC	69	RC	1	0	23MC	1	0	6.09180903435	-258.0	-146.0	-259	-149	1
1.7	2015_Jul_27_1421	s	s	15	1	SIC	70	ABS	1	1	24MO	0	1	6.37373685837	None	None	None	None	1
1.7	2015_Jul_27_1421	s	s	15	1	SIC	71	ABS	1	0	24MC	0	1	4.84314894676	None	None	None	None	1
1.7	2015_Jul_27_1421	s	s	15	1	SIC	72	RC	0	2	23RD	1	0	0.99652504921	-397.0	-195.0	-392	-195	1
1.7	2015_Jul_27_1421	s	s	15	1	SIC	73	ABS	0	2	24RD	0	1	1.09403395653	None	None	None	None	1
1.7	2015_Jul_27_1421	s	s	15	1	SIC	74	RC	0	1	23RO	1	0	1.3245382309	-199.0	180.0	-202	173	1
1.7	2015_Jul_27_1421	s	s	15	1	SIC	75	ABS	1	2	24MD	0	1	1.93779015541	None	None	None	None	1
1.7	2015_Jul_27_1421	s	s	15	1	SIC	76	RC	2	2	23VD	1	0	1.3883190155	-61.0	410.0	-56	410	1
1.7	2015_Jul_27_1421	s	s	15	1	SIC	77	ABS	2	1	24VO	0	1	0.736317873001	None	None	None	None	1
1.7	2015_Jul_27_1421	s	s	15	1	SIC	78	RC	2	1	23VO	1	0	0.6585521698	492.0	-139.0	499	-136	1
1.7	2015_Jul_27_1421	s	s	15	1	SIC	79	RC	1	2	23MD	1	0	0.936030864716	-339.0	313.0	-340	304	1
1.7	2015_Jul_27_1421	s	s	15	1	SIC	80	RC	2	0	23VC	1	0	1.15287208557	254.0	-237.0	256	-240	1
1.7	2015_Jul_27_1421	s	s	15	1	SIC	81	RC	1	2	23MD	1	0	0.735789060593	-104.0	-353.0	-100	-355	1
1.7	2015_Jul_27_1421	s	s	15	1	SIC	82	ABS	1	0	24MC	0	1	7.30884790421	None	None	None	None	1
1.7	2015_Jul_27_1421	s	s	15	1	SIC	83	ABS	1	1	24MO	0	1	4.43234205246	None	None	None	None	1
1.7	2015_Jul_27_1421	s	s	15	1	SIC	84	RC	1	0	23MC	1	0	10.4703891277	524.0	-379.0	525	-378	1
1.7	2015_Jul_27_1421	s	s	15	1	SIC	85	RC	0	1	23RO	1	0	3.7515668869	-540.0	361.0	-542	370	1
1.7	2015_Jul_27_1421	s	s	15	1	SIC	86	ABS	2	0	24VC	0	1	0.882147073746	None	None	None	None	1
1.7	2015_Jul_27_1421	s	s	15	1	SIC	87	RC	2	2	23VD	1	0	0.634989023209	-348.0	186.0	-350	186	1
1.7	2015_Jul_27_1421	s	s	15	1	SIC	88	RC	2	0	23VC	1	0	0.635082006454	69.0	-98.0	74	-96	1
1.7	2015_Jul_27_1421	s	s	15	1	SIC	89	ABS	0	2	24RD	0	1	1.46587586403	None	None	None	None	1
1.7	2015_Jul_27_1421	s	s	15	1	SIC	90	RC	0	2	23RD	1	0	0.799815177917	-527.0	151.0	-529	148	1
1.7	2015_Jul_27_1421	s	s	15	1	SIC	91	ABS	0	1	24RO	0	1	7.63847303391	None	None	None	None	1
1.7	2015_Jul_27_1421	s	s	15	1	SIC	92	ABS	2	2	24VD	0	1	0.677239179611	None	None	None	None	1
1.7	2015_Jul_27_1421	s	s	15	1	SIC	93	ABS	1	2	24MD	0	1	1.40009999275	None	None	None	None	1
1.7	2015_Jul_27_1421	s	s	15	1	SIC	94	ABS	2	1	24VO	0	1	0.729153871536	None	None	None	None	1
1.7	2015_Jul_27_1421	s	s	15	1	SIC	95	RC	2	1	23VO	1	0	0.736113071442	402.0	-294.0	407	-292	1
1.7	2015_Jul_27_1421	s	s	15	1	SIC	96	RC	1	1	23MO	1	0	0.818828105927	-316.0	219.0	-322	216	1
1.7	2015_Jul_27_1421	s	s	15	1	SIC	97	ABS	2	0	24VC	0	1	0.592674970627	None	None	None	None	1
1.7	2015_Jul_27_1421	s	s	15	1	SIC	98	RC	2	2	23VD	1	0	0.52405500412	60.0	-308.0	67	-308	1
1.7	2015_Jul_27_1421	s	s	15	1	SIC	99	ABS	0	1	24RO	0	1	5.51981282234	None	None	None	None	1
1.7	2015_Jul_27_1421	s	s	15	1	SIC	100	RC	1	0	23MC	1	0	3.31309485435	6.0	201.0	8	208	1
1.7	2015_Jul_27_1421	s	s	15	1	SIC	101	RC	0	1	23RO	1	0	1.65425300598	-463.0	-220.0	-459	-222	1
1.7	2015_Jul_27_1421	s	s	15	1	SIC	102	RC	1	2	23MD	1	0	0.576138019562	132.0	65.0	123	68	1
1.7	2015_Jul_27_1421	s	s	15	1	SIC	103	ABS	0	2	24RD	0	1	1.45559501648	None	None	None	None	1
1.7	2015_Jul_27_1421	s	s	15	1	SIC	104	RC	2	1	23VO	1	0	0.634980916977	-536.0	172.0	-530	163	1
1.7	2015_Jul_27_1421	s	s	15	1	SIC	105	RC	1	1	23MO	1	0	0.894366979599	-410.0	315.0	-412	315	1
1.7	2015_Jul_27_1421	s	s	15	1	SIC	106	ABS	2	1	24VO	0	1	0.75940990448	None	None	None	None	1
1.7	2015_Jul_27_1421	s	s	15	1	SIC	107	ABS	1	0	24MC	0	1	4.60170316696	None	None	None	None	1
1.7	2015_Jul_27_1421	s	s	15	1	SIC	108	RC	2	0	23VC	1	0	1.38830208778	474.0	68.0	480	63	1
1.7	2015_Jul_27_1421	s	s	15	1	SIC	109	ABS	1	1	24MO	0	1	5.36699795723	None	None	None	None	1
1.7	2015_Jul_27_1421	s	s	15	1	SIC	110	ABS	1	2	24MD	0	1	0.846879959106	None	None	None	None	1
1.7	2015_Jul_27_1421	s	s	15	1	SIC	111	ABS	2	2	24VD	0	1	0.6114320755	None	None	None	None	1
1.7	2015_Jul_27_1421	s	s	15	1	SIC	112	RC	0	2	23RD	1	0	0.788047075272	-355.0	324.0	-350	325	1
1.7	2015_Jul_27_1421	s	s	15	1	SIC	113	RC	1	1	23MO	1	0	4.17298603058	-156.0	-310.0	-156	-319	1
1.7	2015_Jul_27_1421	s	s	15	1	SIC	114	ABS	1	1	24MO	0	1	4.35063886642	None	None	None	None	1
1.7	2015_Jul_27_1421	s	s	15	1	SIC	115	ABS	2	0	24VC	0	1	0.808346033096	None	None	None	None	1
1.7	2015_Jul_27_1421	s	s	15	1	SIC	116	ABS	0	1	24RO	0	1	5.44916987419	None	None	None	None	1
1.7	2015_Jul_27_1421	s	s	15	1	SIC	117	RC	0	2	23RD	1	0	0.77032494545	-468.0	397.0	-471	400	1
1.7	2015_Jul_27_1421	s	s	15	1	SIC	118	RC	0	1	23RO	1	0	2.17695116997	339.0	-211.0	331	-216	1
1.7	2015_Jul_27_1421	s	s	15	1	SIC	119	RC	1	2	23MD	1	0	0.559518814087	-331.0	-75.0	-322	-75	1
1.7	2015_Jul_27_1421	s	s	15	1	SIC	120	ABS	0	2	24RD	0	1	1.63177108765	None	None	None	None	1
1.7	2015_Jul_27_1421	s	s	15	1	SIC	121	RC	2	0	23VC	1	0	0.620146036148	-140.0	-393.0	-133	-394	1
1.7	2015_Jul_27_1421	s	s	15	1	SIC	122	RC	2	1	23VO	1	0	0.771697998047	296.0	-353.0	298	-349	1
1.7	2015_Jul_27_1421	s	s	15	1	SIC	123	ABS	2	1	24VO	0	1	0.794664144516	None	None	None	None	1
1.7	2015_Jul_27_1421	s	s	15	1	SIC	124	ABS	1	0	24MC	0	1	6.62623906136	None	None	None	None	1
1.7	2015_Jul_27_1421	s	s	15	1	SIC	125	ABS	1	2	24MD	0	1	0.688548088074	None	None	None	None	1
1.7	2015_Jul_27_1421	s	s	15	1	SIC	126	RC	1	0	23MC	1	0	3.18924403191	419.0	-264.0	416	-255	1
1.7	2015_Jul_27_1421	s	s	15	1	SIC	127	RC	2	2	23VD	1	0	0.690382957458	423.0	43.0	423	42	1
1.7	2015_Jul_27_1421	s	s	15	1	SIC	128	ABS	2	2	24VD	0	1	0.677130222321	None	None	None	None	1
1.7	2015_Jul_27_1421	s	s	15	1	SIC	129	RC	1	0	23MC	1	0	1.81206297874	-523.0	-331.0	-530	-325	1
1.7	2015_Jul_27_1421	s	s	15	1	SIC	130	RC	1	1	23MO	1	0	1.58827900887	431.0	-280.0	435	-282	1
1.7	2015_Jul_27_1421	s	s	15	1	SIC	131	RC	0	2	23RD	1	0	0.842075109482	-4.0	382.0	-8	386	1
1.7	2015_Jul_27_1421	s	s	15	1	SIC	132	RC	1	2	23MD	1	0	0.770668029785	487.0	-271.0	482	-269	1
1.7	2015_Jul_27_1421	s	s	15	1	SIC	133	ABS	1	0	24MC	0	1	5.87055110931	None	None	None	None	1
1.7	2015_Jul_27_1421	s	s	15	1	SIC	134	RC	0	1	23RO	1	0	2.92514395714	-244.0	-360.0	-236	-363	1
1.7	2015_Jul_27_1421	s	s	15	1	SIC	135	ABS	1	1	24MO	0	1	6.96765804291	None	None	None	None	1
1.7	2015_Jul_27_1421	s	s	15	1	SIC	136	ABS	1	2	24MD	0	1	1.58324694633	None	None	None	None	1
1.7	2015_Jul_27_1421	s	s	15	1	SIC	137	RC	2	0	23VC	1	0	0.717390060425	-508.0	273.0	-500	273	1
1.7	2015_Jul_27_1421	s	s	15	1	SIC	138	RC	2	2	23VD	1	0	0.529058933258	-325.0	-11.0	-319	-17	1
1.7	2015_Jul_27_1421	s	s	15	1	SIC	139	RC	2	1	23VO	1	0	0.535864830017	297.0	-135.0	300	-129	1
1.7	2015_Jul_27_1421	s	s	15	1	SIC	140	ABS	2	1	24VO	0	1	0.799777030945	None	None	None	None	1
1.7	2015_Jul_27_1421	s	s	15	1	SIC	141	ABS	2	0	24VC	0	1	1.26588201523	None	None	None	None	1
1.7	2015_Jul_27_1421	s	s	15	1	SIC	142	ABS	0	1	24RO	0	1	6.50851893425	None	None	None	None	1
1.7	2015_Jul_27_1421	s	s	15	1	SIC	143	ABS	0	2	24RD	0	1	2.77720189095	None	None	None	None	1
1.7	2015_Jul_27_1421	s	s	15	1	SIC	144	ABS	2	2	24VD	0	1	0.724436998367	None	None	None	None	1
1.7	2015_Jul_27_1421	s	s	15	1	SIC	145	ABS	1	1	24MO	0	1	6.0208439827	None	None	None	None	1
1.7	2015_Jul_27_1421	s	s	15	1	SIC	146	ABS	2	0	24VC	0	1	2.53853082657	None	None	None	None	1
1.7	2015_Jul_27_1421	s	s	15	1	SIC	147	RC	1	2	23MD	1	0	1.56047320366	389.0	-29.0	392	-32	1
1.7	2015_Jul_27_1421	s	s	15	1	SIC	148	ABS	1	0	24MC	1	0	7.11423397064	None	None	-7	-51	0
1.7	2015_Jul_27_1421	s	s	15	1	SIC	149	RC	2	1	23VO	1	0	0.691184997559	111.0	290.0	104	293	1
1.7	2015_Jul_27_1421	s	s	15	1	SIC	150	RC	2	0	23VC	1	0	0.576125144958	102.0	395.0	96	396	1
1.7	2015_Jul_27_1421	s	s	15	1	SIC	151	RC	0	2	23RD	1	0	0.665293931961	-191.0	7.0	-191	6	1
1.7	2015_Jul_27_1421	s	s	15	1	SIC	152	ABS	2	1	24VO	0	1	1.09090590477	None	None	None	None	1
1.7	2015_Jul_27_1421	s	s	15	1	SIC	153	RC	2	2	23VD	1	0	0.552591085434	326.0	-101.0	332	-100	1
1.7	2015_Jul_27_1421	s	s	15	1	SIC	154	RC	1	0	23MC	1	0	6.57905220985	227.0	371.0	229	373	1
1.7	2015_Jul_27_1421	s	s	15	1	SIC	155	ABS	0	1	24RO	0	1	5.09020400047	None	None	None	None	1
1.7	2015_Jul_27_1421	s	s	15	1	SIC	156	ABS	2	2	24VD	0	1	0.611478090286	None	None	None	None	1
1.7	2015_Jul_27_1421	s	s	15	1	SIC	157	RC	1	1	23MO	1	0	2.81256890297	113.0	215.0	117	208	1
1.7	2015_Jul_27_1421	s	s	15	1	SIC	158	ABS	0	2	24RD	0	1	2.51344108582	None	None	None	None	1
1.7	2015_Jul_27_1421	s	s	15	1	SIC	159	ABS	1	2	24MD	0	1	1.14916300774	None	None	None	None	1
1.7	2015_Jul_27_1421	s	s	15	1	SIC	160	RC	0	1	23RO	1	0	1.80030584335	446.0	141.0	446	140	1
1.7	2015_Jul_27_1421	s	s	15	1	SIC	161	RC	1	1	23MO	1	0	0.858645915985	-195.0	-233.0	-195	-227	1
1.7	2015_Jul_27_1421	s	s	15	1	SIC	162	RC	2	2	23VD	1	0	0.665452003479	-258.0	303.0	-253	300	1
1.7	2015_Jul_27_1421	s	s	15	1	SIC	163	ABS	0	1	24RO	0	1	6.03462696075	None	None	None	None	1
1.7	2015_Jul_27_1421	s	s	15	1	SIC	164	ABS	1	0	24MC	0	1	4.64233398438	None	None	None	None	1
1.7	2015_Jul_27_1421	s	s	15	1	SIC	165	ABS	2	0	24VC	0	1	0.67705988884	None	None	None	None	1
1.7	2015_Jul_27_1421	s	s	15	1	SIC	166	RC	1	2	23MD	1	0	0.970564126968	-532.0	-364.0	-529	-364	1
1.7	2015_Jul_27_1421	s	s	15	1	SIC	167	ABS	2	1	24VO	0	1	0.729192972183	None	None	None	None	1
1.7	2015_Jul_27_1421	s	s	15	1	SIC	168	RC	2	0	23VC	1	0	0.658515930176	-285.0	-377.0	-284	-383	1
1.7	2015_Jul_27_1421	s	s	15	1	SIC	169	RC	0	1	23RO	1	0	1.37651610374	31.0	242.0	31	244	1
1.7	2015_Jul_27_1421	s	s	15	1	SIC	170	RC	1	0	23MC	1	0	2.6901140213	481.0	191.0	480	185	1
1.7	2015_Jul_27_1421	s	s	15	1	SIC	171	ABS	2	2	24VD	0	1	0.693842887878	None	None	None	None	1
1.7	2015_Jul_27_1421	s	s	15	1	SIC	172	ABS	1	2	24MD	0	1	4.60729312897	None	None	None	None	1
1.7	2015_Jul_27_1421	s	s	15	1	SIC	173	RC	0	2	23RD	1	0	0.699198961258	-43.0	-229.0	-40	-224	1
1.7	2015_Jul_27_1421	s	s	15	1	SIC	174	ABS	0	2	24RD	0	1	0.961091995239	None	None	None	None	1
1.7	2015_Jul_27_1421	s	s	15	1	SIC	175	ABS	1	1	24MO	0	1	1.86447286606	None	None	None	None	1
1.7	2015_Jul_27_1421	s	s	15	1	SIC	176	RC	2	1	23VO	1	0	0.646769046783	210.0	-35.0	211	-29	1
1.7	2015_Jul_27_1421	s	s	15	1	SIC	177	RC	0	2	23RD	1	0	1.50086903572	171.0	7.0	166	10	1
1.7	2015_Jul_27_1421	s	s	15	1	SIC	178	ABS	1	2	24MD	0	1	1.43539905548	None	None	None	None	1
1.7	2015_Jul_27_1421	s	s	15	1	SIC	179	RC	1	2	23MD	1	0	0.540745973587	-41.0	150.0	-46	148	1
1.7	2015_Jul_27_1421	s	s	15	1	SIC	180	ABS	2	0	24VC	0	1	0.700531005859	None	None	None	None	1
1.7	2015_Jul_27_1421	s	s	15	1	SIC	181	ABS	2	1	24VO	0	1	0.944704055786	None	None	None	None	1
1.7	2015_Jul_27_1421	s	s	15	1	SIC	182	RC	1	1	23MO	1	0	1.01162600517	11.0	274.0	21	281	1
1.7	2015_Jul_27_1421	s	s	15	1	SIC	183	RC	2	2	23VD	0	1	0.476324796677	-197.0	171.0	None	None	0
1.7	2015_Jul_27_1421	s	s	15	1	SIC	184	RC	2	1	23VO	1	0	0.785191059113	-139.0	-32.0	-142	-23	1
1.7	2015_Jul_27_1421	s	s	15	1	SIC	185	ABS	1	1	24MO	0	1	3.48348808289	None	None	None	None	1
1.7	2015_Jul_27_1421	s	s	15	1	SIC	186	ABS	2	2	24VD	0	1	0.675995826721	None	None	None	None	1
1.7	2015_Jul_27_1421	s	s	15	1	SIC	187	RC	2	0	23VC	1	0	0.540877103806	-47.0	61.0	-47	46	1
1.7	2015_Jul_27_1421	s	s	15	1	SIC	188	RC	1	0	23MC	1	0	1.13487410545	-336.0	182.0	-334	190	1
1.7	2015_Jul_27_1421	s	s	15	1	SIC	189	RC	0	1	23RO	1	0	2.96558713913	50.0	-262.0	58	-260	1
1.7	2015_Jul_27_1421	s	s	15	1	SIC	190	ABS	1	0	24MC	0	1	7.8974480629	None	None	None	None	1
1.7	2015_Jul_27_1421	s	s	15	1	SIC	191	ABS	0	1	24RO	0	1	4.25654506683	None	None	None	None	1
1.7	2015_Jul_27_1421	s	s	15	1	SIC	192	ABS	0	2	24RD	0	1	1.3886950016	None	None	None	None	1
1.7	2015_Jul_27_1421	s	s	15	1	SIC	193	ABS	2	0	24VC	0	1	0.688715934753	None	None	None	None	1
1.7	2015_Jul_27_1421	s	s	15	1	SIC	194	RC	1	2	23MD	1	0	0.941483974457	-421.0	-381.0	-419	-384	1
1.7	2015_Jul_27_1421	s	s	15	1	SIC	195	ABS	2	2	24VD	0	1	1.96154808998	None	None	None	None	1
1.7	2015_Jul_27_1421	s	s	15	1	SIC	196	RC	1	0	23MC	1	0	3.9270670414	64.0	300.0	64	304	1
1.7	2015_Jul_27_1421	s	s	15	1	SIC	197	ABS	0	1	24RO	0	1	3.77778100967	None	None	None	None	1
1.7	2015_Jul_27_1421	s	s	15	1	SIC	198	ABS	2	1	24VO	0	1	0.788426160812	None	None	None	None	1
1.7	2015_Jul_27_1421	s	s	15	1	SIC	199	ABS	1	1	24MO	0	1	2.47818517685	None	None	None	None	1
1.7	2015_Jul_27_1421	s	s	15	1	SIC	200	RC	2	1	23VO	1	0	1.05237483978	-391.0	190.0	-386	180	1
1.7	2015_Jul_27_1421	s	s	15	1	SIC	201	ABS	1	2	24MD	0	1	0.846828937531	None	None	None	None	1
1.7	2015_Jul_27_1421	s	s	15	1	SIC	202	RC	0	2	23RD	1	0	0.607297897339	-256.0	-92.0	-258	-91	1
1.7	2015_Jul_27_1421	s	s	15	1	SIC	203	RC	2	2	23VD	1	0	0.547564983368	365.0	389.0	360	384	1
1.7	2015_Jul_27_1421	s	s	15	1	SIC	204	ABS	0	2	24RD	0	1	0.8938601017	None	None	None	None	1
1.7	2015_Jul_27_1421	s	s	15	1	SIC	205	RC	1	1	23MO	1	0	1.27085900307	339.0	-160.0	339	-170	1
1.7	2015_Jul_27_1421	s	s	15	1	SIC	206	RC	2	0	23VC	1	0	0.759746074677	-528.0	-144.0	-530	-151	1
1.7	2015_Jul_27_1421	s	s	15	1	SIC	207	ABS	1	0	24MC	0	1	9.9808280468	None	None	None	None	1
1.7	2015_Jul_27_1421	s	s	15	1	SIC	208	RC	0	1	23RO	1	0	1.40704298019	377.0	398.0	382	389	1
1.7	2015_Jul_27_1421	s	s	15	1	SIC	209	ABS	1	0	24MC	0	1	2.89522004128	None	None	None	None	1
1.7	2015_Jul_27_1421	s	s	15	1	SIC	210	RC	2	1	23VO	1	0	0.536278009415	-90.0	-88.0	-84	-91	1
1.7	2015_Jul_27_1421	s	s	15	1	SIC	211	RC	0	2	23RD	1	0	0.712671041489	408.0	65.0	404	72	1
1.7	2015_Jul_27_1421	s	s	15	1	SIC	212	ABS	2	2	24VD	0	1	0.735882043839	None	None	None	None	1
1.7	2015_Jul_27_1421	s	s	15	1	SIC	213	RC	2	2	23VD	1	0	0.594845056534	-423.0	406.0	-421	402	1
1.7	2015_Jul_27_1421	s	s	15	1	SIC	214	RC	1	1	23MO	1	0	0.917322158813	-308.0	355.0	-307	351	1
1.7	2015_Jul_27_1421	s	s	15	1	SIC	215	RC	2	0	23VC	1	0	0.547872066498	234.0	310.0	230	307	1
1.7	2015_Jul_27_1421	s	s	15	1	SIC	216	ABS	0	1	24RO	0	1	3.97836399078	None	None	None	None	1
1.7	2015_Jul_27_1421	s	s	15	1	SIC	217	ABS	1	2	24MD	0	1	0.688694953918	None	None	None	None	1
1.7	2015_Jul_27_1421	s	s	15	1	SIC	218	ABS	2	0	24VC	0	1	0.740971088409	None	None	None	None	1
1.7	2015_Jul_27_1421	s	s	15	1	SIC	219	RC	1	2	23MD	1	0	0.658463954926	268.0	390.0	273	384	1
1.7	2015_Jul_27_1421	s	s	15	1	SIC	220	ABS	1	1	24MO	0	1	3.20794796944	None	None	None	None	1
1.7	2015_Jul_27_1421	s	s	15	1	SIC	221	ABS	0	2	24RD	0	1	0.623113870621	None	None	None	None	1
1.7	2015_Jul_27_1421	s	s	15	1	SIC	222	ABS	2	1	24VO	0	1	0.724196910858	None	None	None	None	1
1.7	2015_Jul_27_1421	s	s	15	1	SIC	223	RC	0	1	23RO	0	1	4.70749306679	479.0	-139.0	None	None	0
1.7	2015_Jul_27_1421	s	s	15	1	SIC	224	RC	1	0	23MC	0	1	4.29222893715	478.0	254.0	None	None	0
1.7	2015_Jul_27_1421	s	s	15	1	SIC	225	ABS	2	0	24VC	0	1	0.972776889801	None	None	None	None	1
1.7	2015_Jul_27_1421	s	s	15	1	SIC	226	ABS	0	2	24RD	0	1	1.04372596741	None	None	None	None	1
1.7	2015_Jul_27_1421	s	s	15	1	SIC	227	RC	0	1	23RO	1	0	1.22114396095	-333.0	86.0	-325	83	1
1.7	2015_Jul_27_1421	s	s	15	1	SIC	228	RC	1	2	23MD	1	0	0.529055118561	-223.0	-257.0	-219	-262	1
1.7	2015_Jul_27_1421	s	s	15	1	SIC	229	ABS	2	2	24VD	0	1	0.641273975372	None	None	None	None	1
1.7	2015_Jul_27_1421	s	s	15	1	SIC	230	ABS	1	2	24MD	0	1	1.22354912758	None	None	None	None	1
1.7	2015_Jul_27_1421	s	s	15	1	SIC	231	ABS	2	1	24VO	0	1	0.618502140045	None	None	None	None	1
1.7	2015_Jul_27_1421	s	s	15	1	SIC	232	ABS	1	1	24MO	0	1	4.39662194252	None	None	None	None	1
1.7	2015_Jul_27_1421	s	s	15	1	SIC	233	ABS	0	1	24RO	0	1	5.29613304138	None	None	None	None	1
1.7	2015_Jul_27_1421	s	s	15	1	SIC	234	RC	1	0	23MC	1	0	5.40204405785	-55.0	218.0	-48	222	1
1.7	2015_Jul_27_1421	s	s	15	1	SIC	235	ABS	1	0	24MC	0	1	5.26747202873	None	None	None	None	1
1.7	2015_Jul_27_1421	s	s	15	1	SIC	236	RC	2	2	23VD	1	0	0.76144194603	-154.0	206.0	-153	212	1
1.7	2015_Jul_27_1421	s	s	15	1	SIC	237	RC	2	1	23VO	1	0	0.583009004593	-42.0	-294.0	-36	-296	1
1.7	2015_Jul_27_1421	s	s	15	1	SIC	238	RC	1	1	23MO	1	0	1.72962594032	362.0	-127.0	374	-125	1
1.7	2015_Jul_27_1421	s	s	15	1	SIC	239	RC	0	2	23RD	1	0	0.729170084	-466.0	-146.0	-463	-145	1
1.7	2015_Jul_27_1421	s	s	15	1	SIC	240	RC	2	0	23VC	1	0	0.799746990204	-99.0	347.0	-94	347	1
1.7	2015_Jul_27_1421	s	s	15	1	SIC	241	RC	2	1	23VO	1	0	1.47443199158	-3.0	-62.0	-6	-64	1
1.7	2015_Jul_27_1421	s	s	15	1	SIC	242	ABS	2	0	24VC	0	1	0.905603170395	None	None	None	None	1
1.7	2015_Jul_27_1421	s	s	15	1	SIC	243	ABS	1	0	24MC	0	1	5.37383198738	None	None	None	None	1
1.7	2015_Jul_27_1421	s	s	15	1	SIC	244	ABS	1	2	24MD	0	1	0.611891031265	None	None	None	None	1
1.7	2015_Jul_27_1421	s	s	15	1	SIC	245	RC	0	2	23RD	1	0	0.670289039612	-539.0	-396.0	-541	-401	1
1.7	2015_Jul_27_1421	s	s	15	1	SIC	246	RC	1	2	23MD	1	0	0.693781852722	-155.0	-213.0	-161	-215	1
1.7	2015_Jul_27_1421	s	s	15	1	SIC	247	ABS	0	1	24RO	0	1	2.97767114639	None	None	None	None	1
1.7	2015_Jul_27_1421	s	s	15	1	SIC	248	RC	1	0	23MC	1	0	2.15336894989	313.0	-372.0	317	-375	1
1.7	2015_Jul_27_1421	s	s	15	1	SIC	249	RC	2	0	23VC	1	0	0.764441013336	274.0	84.0	271	78	1
1.7	2015_Jul_27_1421	s	s	15	1	SIC	250	ABS	2	1	24VO	0	1	0.729156970978	None	None	None	None	1
1.7	2015_Jul_27_1421	s	s	15	1	SIC	251	RC	0	1	23RO	0	1	4.13766884804	-156.0	-271.0	None	None	0
1.7	2015_Jul_27_1421	s	s	15	1	SIC	252	RC	2	2	23VD	1	0	0.559165000916	-465.0	-332.0	-466	-329	1
1.7	2015_Jul_27_1421	s	s	15	1	SIC	253	RC	1	1	23MO	1	0	1.18818497658	-191.0	-289.0	-192	-291	1
1.7	2015_Jul_27_1421	s	s	15	1	SIC	254	ABS	1	1	24MO	0	1	3.34887695312	None	None	None	None	1
1.7	2015_Jul_27_1421	s	s	15	1	SIC	255	ABS	0	2	24RD	0	1	1.01166415215	None	None	None	None	1
1.7	2015_Jul_27_1421	s	s	15	1	SIC	256	ABS	2	2	24VD	0	1	0.606464862823	None	None	None	None	1
1.7	2015_Jul_27_1421	s	s	15	1	SIC	257	ABS	1	0	24MC	0	1	5.08429002762	None	None	None	None	1
1.7	2015_Jul_27_1421	s	s	15	1	SIC	258	RC	1	0	23MC	1	0	5.55510592461	524.0	303.0	520	290	1
1.7	2015_Jul_27_1421	s	s	15	1	SIC	259	ABS	2	1	24VO	0	1	0.634973049164	None	None	None	None	1
1.7	2015_Jul_27_1421	s	s	15	1	SIC	260	RC	1	2	23MD	1	0	0.870274066925	133.0	285.0	137	278	1
1.7	2015_Jul_27_1421	s	s	15	1	SIC	261	ABS	2	0	24VC	0	1	0.776214838028	None	None	None	None	1
1.7	2015_Jul_27_1421	s	s	15	1	SIC	262	ABS	0	1	24RO	0	1	6.56228089333	None	None	None	None	1
1.7	2015_Jul_27_1421	s	s	15	1	SIC	263	ABS	1	1	24MO	0	1	5.2137169838	None	None	None	None	1
1.7	2015_Jul_27_1421	s	s	15	1	SIC	264	ABS	1	2	24MD	0	1	0.835157871246	None	None	None	None	1
1.7	2015_Jul_27_1421	s	s	15	1	SIC	265	ABS	2	2	24VD	0	1	0.783059835434	None	None	None	None	1
1.7	2015_Jul_27_1421	s	s	15	1	SIC	266	ABS	0	2	24RD	0	1	3.15433907509	None	None	None	None	1
1.7	2015_Jul_27_1421	s	s	15	1	SIC	267	RC	2	1	23VO	1	0	1.05871009827	392.0	-129.0	402	-129	1
1.7	2015_Jul_27_1421	s	s	15	1	SIC	268	RC	2	2	23VD	1	0	0.623239994049	-156.0	167.0	-162	162	1
1.7	2015_Jul_27_1421	s	s	15	1	SIC	269	RC	0	1	23RO	1	0	1.06799006462	-259.0	251.0	-254	260	1
1.7	2015_Jul_27_1421	s	s	15	1	SIC	270	RC	1	1	23MO	1	0	1.63083600998	455.0	-367.0	454	-367	1
1.7	2015_Jul_27_1421	s	s	15	1	SIC	271	RC	2	0	23VC	1	0	1.78361916542	-32.0	378.0	-32	377	1
1.7	2015_Jul_27_1421	s	s	15	1	SIC	272	RC	0	2	23RD	1	0	0.901045084	-171.0	84.0	-170	91	1
1.7	2015_Jul_27_1421	s	s	15	1	SIC	273	RC	2	1	23VO	1	0	0.490287065506	163.0	-234.0	164	-234	1
1.7	2015_Jul_27_1421	s	s	15	1	SIC	274	RC	0	1	23RO	1	0	1.69429802895	-338.0	245.0	-331	242	1
1.7	2015_Jul_27_1421	s	s	15	1	SIC	275	ABS	2	1	24VO	0	1	0.712353944778	None	None	None	None	1
1.7	2015_Jul_27_1421	s	s	15	1	SIC	276	RC	1	2	23MD	1	0	0.559236049652	-247.0	117.0	-243	119	1
1.7	2015_Jul_27_1421	s	s	15	1	SIC	277	RC	2	2	23VD	1	0	0.493762016296	-9.0	178.0	-7	176	1
1.7	2015_Jul_27_1421	s	s	15	1	SIC	278	ABS	2	2	24VD	0	1	0.665493011475	None	None	None	None	1
1.7	2015_Jul_27_1421	s	s	15	1	SIC	279	ABS	0	1	24RO	0	1	5.03729009628	None	None	None	None	1
1.7	2015_Jul_27_1421	s	s	15	1	SIC	280	ABS	1	0	24MC	0	1	9.86032605171	None	None	None	None	1
1.7	2015_Jul_27_1421	s	s	15	1	SIC	281	RC	1	1	23MO	1	0	1.39665603638	-322.0	269.0	-311	271	1
1.7	2015_Jul_27_1421	s	s	15	1	SIC	282	ABS	0	2	24RD	0	1	0.79986000061	None	None	None	None	1
1.7	2015_Jul_27_1421	s	s	15	1	SIC	283	RC	1	0	23MC	1	0	1.01887702942	-168.0	63.0	-172	57	1
1.7	2015_Jul_27_1421	s	s	15	1	SIC	284	RC	0	2	23RD	0	1	0.587936162949	120.0	-348.0	None	None	0
1.7	2015_Jul_27_1421	s	s	15	1	SIC	285	ABS	2	0	24VC	0	1	0.900626182556	None	None	None	None	1
1.7	2015_Jul_27_1421	s	s	15	1	SIC	286	ABS	1	1	24MO	0	1	4.14941596985	None	None	None	None	1
1.7	2015_Jul_27_1421	s	s	15	1	SIC	287	RC	2	0	23VC	1	0	0.79980301857	287.0	-158.0	288	-161	1
1.7	2015_Jul_27_1421	s	s	15	1	SIC	288	ABS	1	2	24MD	0	1	1.37303495407	None	None	None	None	1
1.7	2015_Jul_27_1421	s	s	15	1	SIC	289	ABS	2	1	24VO	0	1	0.784729957581	None	None	None	None	1
1.7	2015_Jul_27_1421	s	s	15	1	SIC	290	ABS	1	0	24MC	0	1	7.98863101006	None	None	None	None	1
1.7	2015_Jul_27_1421	s	s	15	1	SIC	291	RC	2	2	23VD	1	0	0.634866952896	254.0	78.0	258	69	1
1.7	2015_Jul_27_1421	s	s	15	1	SIC	292	ABS	2	2	24VD	0	1	0.712537050247	None	None	None	None	1
1.7	2015_Jul_27_1421	s	s	15	1	SIC	293	ABS	1	2	24MD	0	1	1.26574802399	None	None	None	None	1
1.7	2015_Jul_27_1421	s	s	15	1	SIC	294	RC	2	0	23VC	1	0	0.785604000092	-496.0	357.0	-496	356	1
1.7	2015_Jul_27_1421	s	s	15	1	SIC	295	RC	1	1	23MO	1	0	1.0078830719	245.0	-353.0	255	-350	1
1.7	2015_Jul_27_1421	s	s	15	1	SIC	296	ABS	0	2	24RD	0	1	0.811784982681	None	None	None	None	1
1.7	2015_Jul_27_1421	s	s	15	1	SIC	297	RC	0	2	23RD	1	0	0.135661840439	244.0	273.0	529	-203	0
1.7	2015_Jul_27_1421	s	s	15	1	SIC	298	RC	2	1	23VO	1	0	0.846839904785	-112.0	281.0	-114	284	1
1.7	2015_Jul_27_1421	s	s	15	1	SIC	299	RC	1	0	23MC	1	0	1.41191506386	-266.0	345.0	-270	343	1
1.7	2015_Jul_27_1421	s	s	15	1	SIC	300	ABS	1	1	24MO	0	1	3.31353998184	None	None	None	None	1
1.7	2015_Jul_27_1421	s	s	15	1	SIC	301	RC	1	2	23MD	1	0	0.611420869827	86.0	92.0	84	85	1
1.7	2015_Jul_27_1421	s	s	15	1	SIC	302	ABS	2	0	24VC	0	1	0.865373849869	None	None	None	None	1
1.7	2015_Jul_27_1421	s	s	15	1	SIC	303	ABS	0	1	24RO	0	1	5.08427500725	None	None	None	None	1
1.7	2015_Jul_27_1421	s	s	15	1	SIC	304	RC	0	1	23RO	1	0	1.72969889641	317.0	287.0	318	279	1
1.7	2015_Jul_27_1421	s	s	15	1	SIC	305	RC	1	2	23MD	1	0	0.582946062088	-1.0	-209.0	3	-212	1
1.7	2015_Jul_27_1421	s	s	15	1	SIC	306	ABS	0	1	24RO	0	1	7.9210460186	None	None	None	None	1
1.7	2015_Jul_27_1421	s	s	15	1	SIC	307	RC	2	1	23VO	1	0	0.634850978851	28.0	-313.0	22	-318	1
1.7	2015_Jul_27_1421	s	s	15	1	SIC	308	RC	2	2	23VD	1	0	0.682179927826	56.0	-178.0	53	-183	1
1.7	2015_Jul_27_1421	s	s	15	1	SIC	309	ABS	2	1	24VO	0	1	0.70562505722	None	None	None	None	1
1.7	2015_Jul_27_1421	s	s	15	1	SIC	310	ABS	2	0	24VC	0	1	0.764384031296	None	None	None	None	1
1.7	2015_Jul_27_1421	s	s	15	1	SIC	311	ABS	0	2	24RD	0	1	0.75932598114	None	None	None	None	1
1.7	2015_Jul_27_1421	s	s	15	1	SIC	312	ABS	1	1	24MO	0	1	1.30599093437	None	None	None	None	1
1.7	2015_Jul_27_1421	s	s	15	1	SIC	313	RC	1	1	23MO	1	0	2.18873095512	28.0	-409.0	29	-413	1
1.7	2015_Jul_27_1421	s	s	15	1	SIC	314	RC	0	1	23RO	1	0	1.04700016975	-328.0	-143.0	-334	-150	1
1.7	2015_Jul_27_1421	s	s	15	1	SIC	315	RC	0	2	23RD	1	0	0.524002075195	-171.0	-94.0	-173	-106	1
1.7	2015_Jul_27_1421	s	s	15	1	SIC	316	RC	2	0	23VC	1	0	1.31270194054	271.0	346.0	276	344	1
1.7	2015_Jul_27_1421	s	s	15	1	SIC	317	ABS	2	2	24VD	0	1	0.724112033844	None	None	None	None	1
1.7	2015_Jul_27_1421	s	s	15	1	SIC	318	ABS	1	0	24MC	0	1	5.95024108887	None	None	None	None	1
1.7	2015_Jul_27_1421	s	s	15	1	SIC	319	ABS	1	2	24MD	0	1	0.905704975128	None	None	None	None	1
1.7	2015_Jul_27_1421	s	s	15	1	SIC	320	RC	1	0	23MC	1	0	2.14807605743	-397.0	158.0	-390	152	1
1.7	2015_Jul_27_1421	s	s	15	1	SIC	321	RC	2	0	23VC	1	0	0.670549154282	127.0	-394.0	137	-395	1
1.7	2015_Jul_27_1421	s	s	15	1	SIC	322	RC	2	1	23VO	1	0	0.552606105804	-206.0	43.0	-208	39	1
1.7	2015_Jul_27_1421	s	s	15	1	SIC	323	ABS	1	1	24MO	0	1	4.20145201683	None	None	None	None	1
1.7	2015_Jul_27_1421	s	s	15	1	SIC	324	ABS	1	0	24MC	0	1	11.2704050541	None	None	None	None	1
1.7	2015_Jul_27_1421	s	s	15	1	SIC	325	ABS	0	1	24RO	0	1	3.62514019012	None	None	None	None	1
1.7	2015_Jul_27_1421	s	s	15	1	SIC	326	RC	1	2	23MD	1	0	0.740994930267	320.0	-368.0	315	-372	1
1.7	2015_Jul_27_1421	s	s	15	1	SIC	327	ABS	2	0	24VC	0	1	0.665229082108	None	None	None	None	1
1.7	2015_Jul_27_1421	s	s	15	1	SIC	328	RC	2	2	23VD	1	0	0.599685907364	56.0	-392.0	52	-398	1
1.7	2015_Jul_27_1421	s	s	15	1	SIC	329	ABS	1	2	24MD	0	1	0.729520797729	None	None	None	None	1
1.7	2015_Jul_27_1421	s	s	15	1	SIC	330	RC	1	1	23MO	1	0	1.04692602158	-129.0	-329.0	-130	-332	1
1.7	2015_Jul_27_1421	s	s	15	1	SIC	331	ABS	2	1	24VO	0	1	0.712570905685	None	None	None	None	1
1.7	2015_Jul_27_1421	s	s	15	1	SIC	332	RC	1	0	23MC	1	0	1.26553297043	34.0	-335.0	39	-343	1
1.7	2015_Jul_27_1421	s	s	15	1	SIC	333	ABS	0	2	24RD	0	1	0.758313894272	None	None	None	None	1
1.7	2015_Jul_27_1421	s	s	15	1	SIC	334	ABS	2	2	24VD	0	1	0.877367973328	None	None	None	None	1
1.7	2015_Jul_27_1421	s	s	15	1	SIC	335	RC	0	1	23RO	0	1	2.16025400162	364.0	45.0	None	None	0
1.7	2015_Jul_27_1421	s	s	15	1	SIC	336	RC	0	2	23RD	1	0	1.12939810753	190.0	-373.0	195	-372	1
1.7	2015_Jul_27_1421	s	s	15	1	SIC	337	RC	1	2	23MD	1	0	0.576095104218	43.0	264.0	41	269	1
1.7	2015_Jul_27_1421	s	s	15	1	SIC	338	ABS	1	2	24MD	0	1	1.24259901047	None	None	None	None	1
1.7	2015_Jul_27_1421	s	s	15	1	SIC	339	ABS	2	0	24VC	0	1	0.741007089615	None	None	None	None	1
1.7	2015_Jul_27_1421	s	s	15	1	SIC	340	RC	2	1	23VO	1	0	0.59477686882	318.0	291.0	316	284	1
1.7	2015_Jul_27_1421	s	s	15	1	SIC	341	ABS	1	1	24MO	0	1	2.16509795189	None	None	None	None	1
1.7	2015_Jul_27_1421	s	s	15	1	SIC	342	ABS	0	2	24RD	0	1	0.729090213776	None	None	None	None	1
1.7	2015_Jul_27_1421	s	s	15	1	SIC	343	RC	1	0	23MC	1	0	1.14116406441	495.0	303.0	36	-26	0
1.7	2015_Jul_27_1421	s	s	15	1	SIC	344	ABS	1	0	24MC	0	1	1.82380604744	None	None	None	None	1
1.7	2015_Jul_27_1421	s	s	15	1	SIC	345	RC	0	1	23RO	1	0	1.72467207909	361.0	-53.0	361	-49	1
1.7	2015_Jul_27_1421	s	s	15	1	SIC	346	RC	1	1	23MO	1	0	1.91795897484	-5.0	391.0	0	395	1
1.7	2015_Jul_27_1421	s	s	15	1	SIC	347	RC	0	2	23RD	1	0	1.22352695465	-54.0	-360.0	-54	-359	1
1.7	2015_Jul_27_1421	s	s	15	1	SIC	348	ABS	0	1	24RO	0	1	5.32646107674	None	None	None	None	1
1.7	2015_Jul_27_1421	s	s	15	1	SIC	349	ABS	2	2	24VD	0	1	0.905842065811	None	None	None	None	1
1.7	2015_Jul_27_1421	s	s	15	1	SIC	350	RC	2	2	23VD	1	0	0.924299001694	380.0	117.0	388	122	1
1.7	2015_Jul_27_1421	s	s	15	1	SIC	351	RC	2	0	23VC	1	0	0.78800201416	516.0	158.0	518	158	1
1.7	2015_Jul_27_1421	s	s	15	1	SIC	352	ABS	2	1	24VO	0	1	0.816912174225	None	None	None	None	1
1.7	2015_Jul_27_1421	s	s	15	1	SIC	353	RC	2	1	23VO	1	0	0.564376831055	-107.0	41.0	-102	37	1
1.7	2015_Jul_27_1421	s	s	15	1	SIC	354	ABS	2	2	24VD	0	1	0.678152084351	None	None	None	None	1
1.7	2015_Jul_27_1421	s	s	15	1	SIC	355	ABS	1	2	24MD	0	1	1.20006489754	None	None	None	None	1
1.7	2015_Jul_27_1421	s	s	15	1	SIC	356	RC	1	1	23MO	1	0	1.87776207924	-472.0	-359.0	-470	-361	1
1.7	2015_Jul_27_1421	s	s	15	1	SIC	357	RC	2	0	23VC	1	0	0.905690908432	387.0	-352.0	388	-364	1
1.7	2015_Jul_27_1421	s	s	15	1	SIC	358	RC	2	2	23VD	1	0	0.735724925995	-475.0	229.0	-474	229	1
1.7	2015_Jul_27_1421	s	s	15	1	SIC	359	RC	1	0	23MC	1	0	3.68361496925	473.0	-347.0	478	-344	1
1.7	2015_Jul_27_1421	s	s	15	1	SIC	360	ABS	1	1	24MO	0	1	5.72827100754	None	None	None	None	1
1.7	2015_Jul_27_1421	s	s	15	1	SIC	361	ABS	2	1	24VO	0	1	1.61198806763	None	None	None	None	1
1.7	2015_Jul_27_1421	s	s	15	1	SIC	362	ABS	1	0	24MC	0	1	3.55410313606	None	None	None	None	1
1.7	2015_Jul_27_1421	s	s	15	1	SIC	363	ABS	0	1	24RO	0	1	5.95527219772	None	None	None	None	1
1.7	2015_Jul_27_1421	s	s	15	1	SIC	364	ABS	2	0	24VC	0	1	0.682156801224	None	None	None	None	1
1.7	2015_Jul_27_1421	s	s	15	1	SIC	365	RC	1	2	23MD	1	0	1.01166796684	481.0	-334.0	482	-332	1
1.7	2015_Jul_27_1421	s	s	15	1	SIC	366	ABS	0	2	24RD	0	1	0.874079942703	None	None	None	None	1
1.7	2015_Jul_27_1421	s	s	15	1	SIC	367	RC	0	1	23RO	1	0	1.85398697853	117.0	41.0	116	43	1
1.7	2015_Jul_27_1421	s	s	15	1	SIC	368	RC	0	2	23RD	1	0	0.712376117706	468.0	286.0	476	290	1
1.7	2015_Jul_27_1421	s	s	15	1	SIC	369	RC	1	2	23MD	1	0	0.646723031998	-101.0	38.0	-93	39	1
1.7	2015_Jul_27_1421	s	s	15	1	SIC	370	RC	2	0	23VC	1	0	0.587822914124	-467.0	362.0	-462	356	1
1.7	2015_Jul_27_1421	s	s	15	1	SIC	371	ABS	0	1	24RO	0	1	5.1901679039	None	None	None	None	1
1.7	2015_Jul_27_1421	s	s	15	1	SIC	372	RC	0	2	23RD	1	0	0.81826210022	54.0	21.0	54	23	1
1.7	2015_Jul_27_1421	s	s	15	1	SIC	373	ABS	2	2	24VD	0	1	0.697582960129	None	None	None	None	1
1.7	2015_Jul_27_1421	s	s	15	1	SIC	374	RC	0	1	23RO	1	0	2.17688298225	219.0	-369.0	226	-371	1
1.7	2015_Jul_27_1421	s	s	15	1	SIC	375	RC	1	0	23MC	1	0	2.09437608719	494.0	-171.0	500	-167	1
1.7	2015_Jul_27_1421	s	s	15	1	SIC	376	ABS	2	1	24VO	0	1	0.729249000549	None	None	None	None	1
1.7	2015_Jul_27_1421	s	s	15	1	SIC	377	RC	2	1	23VO	1	0	0.630481004715	416.0	-122.0	419	-121	1
1.7	2015_Jul_27_1421	s	s	15	1	SIC	378	ABS	1	1	24MO	0	1	5.13749313354	None	None	None	None	1
1.7	2015_Jul_27_1421	s	s	15	1	SIC	379	ABS	0	2	24RD	0	1	0.870356082916	None	None	None	None	1
1.7	2015_Jul_27_1421	s	s	15	1	SIC	380	ABS	1	2	24MD	0	1	1.27825093269	None	None	None	None	1
1.7	2015_Jul_27_1421	s	s	15	1	SIC	381	ABS	1	0	24MC	0	1	4.69123005867	None	None	None	None	1
1.7	2015_Jul_27_1421	s	s	15	1	SIC	382	RC	1	1	23MO	1	0	1.98858094215	465.0	-122.0	470	-120	1
1.7	2015_Jul_27_1421	s	s	15	1	SIC	383	RC	2	2	23VD	1	0	0.690080165863	527.0	-273.0	533	-277	1
1.7	2015_Jul_27_1421	s	s	15	1	SIC	384	ABS	2	0	24VC	0	1	0.764451980591	None	None	None	None	1
1.7	2015_Jul_27_1421	s	s	15	1	SIC	385	RC	2	1	23VO	1	0	0.691207170486	341.0	315.0	334	317	1
1.7	2015_Jul_27_1421	s	s	15	1	SIC	386	RC	2	2	23VD	1	0	0.505545139313	177.0	-326.0	171	-330	1
1.7	2015_Jul_27_1421	s	s	15	1	SIC	387	ABS	0	1	24RO	0	1	3.79646396637	None	None	None	None	1
1.7	2015_Jul_27_1421	s	s	15	1	SIC	388	ABS	2	2	24VD	0	1	0.646743059158	None	None	None	None	1
1.7	2015_Jul_27_1421	s	s	15	1	SIC	389	RC	1	0	23MC	1	0	1.84170889854	335.0	235.0	336	240	1
1.7	2015_Jul_27_1421	s	s	15	1	SIC	390	ABS	0	2	24RD	0	1	0.776211977005	None	None	None	None	1
1.7	2015_Jul_27_1421	s	s	15	1	SIC	391	RC	0	1	23RO	1	0	2.90451407433	-447.0	-364.0	-451	-370	1
1.7	2015_Jul_27_1421	s	s	15	1	SIC	392	ABS	1	2	24MD	0	1	0.827016115189	None	None	None	None	1
1.7	2015_Jul_27_1421	s	s	15	1	SIC	393	RC	0	2	23RD	1	0	0.65888094902	-70.0	-396.0	-65	-396	1
1.7	2015_Jul_27_1421	s	s	15	1	SIC	394	RC	1	1	23MO	1	0	1.25635004044	-442.0	-5.0	-448	-6	1
1.7	2015_Jul_27_1421	s	s	15	1	SIC	395	ABS	1	0	24MC	0	1	12.1583919525	None	None	None	None	1
1.7	2015_Jul_27_1421	s	s	15	1	SIC	396	ABS	2	1	24VO	0	1	0.611372947693	None	None	None	None	1
1.7	2015_Jul_27_1421	s	s	15	1	SIC	397	ABS	2	0	24VC	0	1	0.634968042374	None	None	None	None	1
1.7	2015_Jul_27_1421	s	s	15	1	SIC	398	ABS	1	1	24MO	0	1	5.71651387215	None	None	None	None	1
1.7	2015_Jul_27_1421	s	s	15	1	SIC	399	RC	1	2	23MD	1	0	1.17628717422	-335.0	221.0	-334	222	1
1.7	2015_Jul_27_1421	s	s	15	1	SIC	400	RC	2	0	23VC	1	0	0.606276988983	-180.0	-336.0	-182	-335	1
1.7	2015_Jul_27_1421	s	s	15	1	SIC	401	ABS	2	0	24VC	0	1	0.700091123581	None	None	None	None	1
1.7	2015_Jul_27_1421	s	s	15	1	SIC	402	ABS	0	2	24RD	0	1	1.07745099068	None	None	None	None	1
1.7	2015_Jul_27_1421	s	s	15	1	SIC	403	RC	1	2	23MD	1	0	0.717372894287	-499.0	262.0	-490	258	1
1.7	2015_Jul_27_1421	s	s	15	1	SIC	404	ABS	2	1	24VO	0	1	0.658590078354	None	None	None	None	1
1.7	2015_Jul_27_1421	s	s	15	1	SIC	405	RC	2	2	23VD	1	0	0.526468038559	-86.0	290.0	-88	275	1
1.7	2015_Jul_27_1421	s	s	15	1	SIC	406	ABS	0	1	24RO	0	1	4.50752496719	None	None	None	None	1
1.7	2015_Jul_27_1421	s	s	15	1	SIC	407	ABS	1	1	24MO	0	1	4.28428697586	None	None	None	None	1
1.7	2015_Jul_27_1421	s	s	15	1	SIC	408	RC	1	1	23MO	1	0	1.17641496658	-391.0	271.0	-395	271	1
1.7	2015_Jul_27_1421	s	s	15	1	SIC	409	ABS	2	2	24VD	0	1	0.690207004547	None	None	None	None	1
1.7	2015_Jul_27_1421	s	s	15	1	SIC	410	ABS	1	2	24MD	0	1	1.3853468895	None	None	None	None	1
1.7	2015_Jul_27_1421	s	s	15	1	SIC	411	RC	1	0	23MC	1	0	1.58130097389	203.0	86.0	214	93	1
1.7	2015_Jul_27_1421	s	s	15	1	SIC	412	RC	0	1	23RO	1	0	1.35298299789	75.0	133.0	64	133	1
1.7	2015_Jul_27_1421	s	s	15	1	SIC	413	RC	2	0	23VC	1	0	0.64278793335	-468.0	-394.0	-468	-401	1
1.7	2015_Jul_27_1421	s	s	15	1	SIC	414	ABS	1	0	24MC	0	1	4.134775877	None	None	None	None	1
1.7	2015_Jul_27_1421	s	s	15	1	SIC	415	RC	0	2	23RD	1	0	0.676012992859	268.0	-175.0	268	-178	1
1.7	2015_Jul_27_1421	s	s	15	1	SIC	416	RC	2	1	23VO	1	0	0.559467077255	-102.0	314.0	-98	319	1
1.7	2015_Jul_27_1421	s	s	15	1	SIC	417	ABS	1	2	24MD	0	1	0.835098981857	None	None	None	None	1
1.7	2015_Jul_27_1421	s	s	15	1	SIC	418	ABS	1	1	24MO	0	1	2.86589384079	None	None	None	None	1
1.7	2015_Jul_27_1421	s	s	15	1	SIC	419	ABS	0	1	24RO	0	1	3.96115493774	None	None	None	None	1
1.7	2015_Jul_27_1421	s	s	15	1	SIC	420	ABS	2	2	24VD	0	1	0.641517162323	None	None	None	None	1
1.7	2015_Jul_27_1421	s	s	15	1	SIC	421	ABS	2	1	24VO	0	1	1.20000386238	None	None	None	None	1
1.7	2015_Jul_27_1421	s	s	15	1	SIC	422	RC	2	1	23VO	1	0	0.529053211212	-192.0	-292.0	-185	-292	1
1.7	2015_Jul_27_1421	s	s	15	1	SIC	423	RC	2	2	23VD	1	0	0.523756027222	-6.0	-33.0	-12	-36	1
1.7	2015_Jul_27_1421	s	s	15	1	SIC	424	RC	1	2	23MD	1	0	0.654080867767	52.0	-346.0	58	-344	1
1.7	2015_Jul_27_1421	s	s	15	1	SIC	425	RC	2	0	23VC	1	0	0.579880952835	26.0	372.0	21	371	1
1.7	2015_Jul_27_1421	s	s	15	1	SIC	426	RC	1	1	23MO	1	0	0.958131790161	321.0	-101.0	322	-104	1
1.7	2015_Jul_27_1421	s	s	15	1	SIC	427	ABS	2	0	24VC	0	1	0.670284986496	None	None	None	None	1
1.7	2015_Jul_27_1421	s	s	15	1	SIC	428	RC	1	0	23MC	1	0	4.67238497734	-185.0	408.0	-183	409	1
1.7	2015_Jul_27_1421	s	s	15	1	SIC	429	ABS	1	0	24MC	0	1	2.27961492538	None	None	None	None	1
1.7	2015_Jul_27_1421	s	s	15	1	SIC	430	RC	0	2	23RD	1	0	0.960758924484	-246.0	403.0	-246	406	1
1.7	2015_Jul_27_1421	s	s	15	1	SIC	431	ABS	0	2	24RD	0	1	1.74159002304	None	None	None	None	1
1.7	2015_Jul_27_1421	s	s	15	1	SIC	432	RC	0	1	23RO	1	0	3.20775699615	46.0	-205.0	55	-207	1
1.7	2015_Jul_27_1421	s	s	15	1	SIC	433	ABS	1	2	24MD	0	1	2.2945959568	None	None	None	None	1
1.7	2015_Jul_27_1421	s	s	15	1	SIC	434	ABS	0	2	24RD	0	1	2.07946395874	None	None	None	None	1
1.7	2015_Jul_27_1421	s	s	15	1	SIC	435	ABS	2	2	24VD	0	1	0.82330083847	None	None	None	None	1
1.7	2015_Jul_27_1421	s	s	15	1	SIC	436	RC	2	2	23VD	1	0	0.840687990189	-364.0	-273.0	-363	-274	1
1.7	2015_Jul_27_1421	s	s	15	1	SIC	437	ABS	0	1	24RO	0	1	4.93899416924	None	None	None	None	1
1.7	2015_Jul_27_1421	s	s	15	1	SIC	438	RC	0	2	23RD	1	0	0.759309053421	-60.0	-293.0	-56	-294	1
1.7	2015_Jul_27_1421	s	s	15	1	SIC	439	RC	2	0	23VC	1	0	0.623221874237	-539.0	266.0	-536	259	1
1.7	2015_Jul_27_1421	s	s	15	1	SIC	440	ABS	2	0	24VC	0	1	0.79697394371	None	None	None	None	1
1.7	2015_Jul_27_1421	s	s	15	1	SIC	441	RC	1	2	23MD	1	0	0.646727085114	-86.0	289.0	-96	287	1
1.7	2015_Jul_27_1421	s	s	15	1	SIC	442	ABS	2	1	24VO	0	1	1.15292000771	None	None	None	None	1
1.7	2015_Jul_27_1421	s	s	15	1	SIC	443	RC	1	0	23MC	1	0	1.18822479248	-360.0	54.0	-360	57	1
1.7	2015_Jul_27_1421	s	s	15	1	SIC	444	RC	2	1	23VO	1	0	0.536010980606	89.0	-95.0	89	-97	1
1.7	2015_Jul_27_1421	s	s	15	1	SIC	445	RC	0	1	23RO	1	0	2.0003259182	-17.0	-388.0	-12	-398	1
1.7	2015_Jul_27_1421	s	s	15	1	SIC	446	RC	1	1	23MO	1	0	1.74153208733	430.0	232.0	432	226	1
1.7	2015_Jul_27_1421	s	s	15	1	SIC	447	ABS	1	1	24MO	0	1	2.22406697273	None	None	None	None	1
1.7	2015_Jul_27_1421	s	s	15	1	SIC	448	ABS	1	0	24MC	0	1	3.50703597069	None	None	None	None	1
1.7	2015_Jul_27_1421	s	s	15	1	SIC	449	ABS	0	1	24RO	0	1	3.44861793518	None	None	None	None	1
1.7	2015_Jul_27_1421	s	s	15	1	SIC	450	RC	2	2	23VD	1	0	0.611810922623	7.0	140.0	5	135	1
1.7	2015_Jul_27_1421	s	s	15	1	SIC	451	ABS	2	1	24VO	0	1	0.688882827759	None	None	None	None	1
1.7	2015_Jul_27_1421	s	s	15	1	SIC	452	ABS	1	0	24MC	0	1	3.76340198517	None	None	None	None	1
1.7	2015_Jul_27_1421	s	s	15	1	SIC	453	ABS	2	0	24VC	0	1	0.811545133591	None	None	None	None	1
1.7	2015_Jul_27_1421	s	s	15	1	SIC	454	ABS	2	2	24VD	0	1	0.676046133041	None	None	None	None	1
1.7	2015_Jul_27_1421	s	s	15	1	SIC	455	RC	1	2	23MD	1	0	0.606208086014	137.0	240.0	133	238	1
1.7	2015_Jul_27_1421	s	s	15	1	SIC	456	RC	1	1	23MO	1	0	2.00041007996	209.0	348.0	216	349	1
1.7	2015_Jul_27_1421	s	s	15	1	SIC	457	RC	0	1	23RO	1	0	0.948472976685	-148.0	198.0	-143	206	1
1.7	2015_Jul_27_1421	s	s	15	1	SIC	458	RC	0	2	23RD	1	0	0.584136009216	399.0	157.0	400	157	1
1.7	2015_Jul_27_1421	s	s	15	1	SIC	459	ABS	1	1	24MO	0	1	1.28932714462	None	None	None	None	1
1.7	2015_Jul_27_1421	s	s	15	1	SIC	460	ABS	1	2	24MD	0	1	0.736574888229	None	None	None	None	1
1.7	2015_Jul_27_1421	s	s	15	1	SIC	461	ABS	0	2	24RD	0	1	0.72420501709	None	None	None	None	1
1.7	2015_Jul_27_1421	s	s	15	1	SIC	462	RC	2	1	23VO	1	0	0.53641295433	72.0	96.0	78	101	1
1.7	2015_Jul_27_1421	s	s	15	1	SIC	463	RC	1	0	23MC	1	0	3.11863589287	-349.0	311.0	-340	315	1
1.7	2015_Jul_27_1421	s	s	15	1	SIC	464	RC	2	0	23VC	1	0	0.799996137619	526.0	-235.0	521	-232	1
1.7	2015_Jul_27_1421	s	s	15	1	SIC	465	RC	0	2	23RD	1	0	0.513998031616	5.0	-80.0	8	-84	1
1.7	2015_Jul_27_1421	s	s	15	1	SIC	466	ABS	1	2	24MD	0	1	0.717417001724	None	None	None	None	1
1.7	2015_Jul_27_1421	s	s	15	1	SIC	467	ABS	1	0	24MC	0	1	1.13754177094	None	None	None	None	1
1.7	2015_Jul_27_1421	s	s	15	1	SIC	468	RC	2	0	23VC	1	0	0.576143026352	-148.0	-332.0	-150	-334	1
1.7	2015_Jul_27_1421	s	s	15	1	SIC	469	RC	1	1	23MO	1	0	1.0705010891	122.0	-387.0	129	-384	1
1.7	2015_Jul_27_1421	s	s	15	1	SIC	470	ABS	0	2	24RD	0	1	0.70564198494	None	None	None	None	1
1.7	2015_Jul_27_1421	s	s	15	1	SIC	471	RC	2	2	23VD	1	0	0.490216970444	-163.0	-95.0	-161	-99	1
1.7	2015_Jul_27_1421	s	s	15	1	SIC	472	RC	1	2	23MD	1	0	0.559310913086	240.0	-381.0	240	-378	1
1.7	2015_Jul_27_1421	s	s	15	1	SIC	473	RC	2	1	23VO	1	0	0.712286949158	-293.0	261.0	-306	265	1
1.7	2015_Jul_27_1421	s	s	15	1	SIC	474	ABS	2	1	24VO	0	1	0.673984050751	None	None	None	None	1
1.7	2015_Jul_27_1421	s	s	15	1	SIC	475	RC	0	1	23RO	1	0	1.14113020897	-307.0	231.0	-310	232	1
1.7	2015_Jul_27_1421	s	s	15	1	SIC	476	ABS	1	1	24MO	0	1	2.14860296249	None	None	None	None	1
1.7	2015_Jul_27_1421	s	s	15	1	SIC	477	ABS	2	2	24VD	0	1	0.611456871033	None	None	None	None	1
1.7	2015_Jul_27_1421	s	s	15	1	SIC	478	RC	1	0	23MC	1	0	1.49425888062	-306.0	-80.0	-295	-78	1
1.7	2015_Jul_27_1421	s	s	15	1	SIC	479	ABS	0	1	24RO	0	1	2.92668008804	None	None	None	None	1
1.7	2015_Jul_27_1421	s	s	15	1	SIC	480	ABS	2	0	24VC	0	1	0.634943962097	None	None	None	None	1
1.7	2015_Jul_27_1421	s	s	15	1	SIC	481	ABS	0	1	24RO	0	1	5.01402401924	None	None	None	None	1
1.7	2015_Jul_27_1421	s	s	15	1	SIC	482	ABS	2	2	24VD	0	1	0.717352867126	None	None	None	None	1
1.7	2015_Jul_27_1421	s	s	15	1	SIC	483	ABS	1	2	24MD	0	1	0.594698905945	None	None	None	None	1
1.7	2015_Jul_27_1421	s	s	15	1	SIC	484	RC	1	2	23MD	1	0	0.823263883591	262.0	-231.0	266	-229	1
1.7	2015_Jul_27_1421	s	s	15	1	SIC	485	ABS	2	0	24VC	0	1	0.682025909424	None	None	None	None	1
1.7	2015_Jul_27_1421	s	s	15	1	SIC	486	RC	0	2	23RD	1	0	0.618365049362	-304.0	335.0	-304	332	1
1.7	2015_Jul_27_1421	s	s	15	1	SIC	487	RC	0	1	23RO	1	0	1.2470459938	326.0	-28.0	331	-31	1
1.7	2015_Jul_27_1421	s	s	15	1	SIC	488	ABS	2	1	24VO	0	1	0.556297063828	None	None	None	None	1
1.7	2015_Jul_27_1421	s	s	15	1	SIC	489	RC	2	2	23VD	1	0	0.535326957703	-17.0	-39.0	-22	-36	1
1.7	2015_Jul_27_1421	s	s	15	1	SIC	490	RC	1	0	23MC	0	1	2.10381197929	480.0	-151.0	None	None	0
1.7	2015_Jul_27_1421	s	s	15	1	SIC	491	ABS	0	2	24RD	0	1	0.653398036957	None	None	None	None	1
1.7	2015_Jul_27_1421	s	s	15	1	SIC	492	RC	2	0	23VC	1	0	0.552638053894	-12.0	4.0	-4	4	1
1.7	2015_Jul_27_1421	s	s	15	1	SIC	493	ABS	1	0	24MC	0	1	1.05878806114	None	None	None	None	1
1.7	2015_Jul_27_1421	s	s	15	1	SIC	494	RC	1	1	23MO	1	0	0.700889825821	62.0	-150.0	69	-151	1
1.7	2015_Jul_27_1421	s	s	15	1	SIC	495	RC	2	1	23VO	1	0	0.582606077194	-169.0	327.0	-173	333	1
1.7	2015_Jul_27_1421	s	s	15	1	SIC	496	ABS	1	1	24MO	0	1	2.63596487045	None	None	None	None	1
1.7	2015_Jul_27_1421	s	s	15	1	SIC	497	RC	2	2	23VD	1	0	0.499325990677	521.0	-182.0	521	-180	1
1.7	2015_Jul_27_1421	s	s	15	1	SIC	498	ABS	1	1	24MO	0	1	1.66274118423	None	None	None	None	1
1.7	2015_Jul_27_1421	s	s	15	1	SIC	499	RC	0	1	23RO	1	0	0.988078117371	-41.0	222.0	-45	226	1
1.7	2015_Jul_27_1421	s	s	15	1	SIC	500	RC	2	1	23VO	1	0	0.544485092163	-395.0	357.0	-395	360	1
1.7	2015_Jul_27_1421	s	s	15	1	SIC	501	ABS	2	2	24VD	0	1	1.09404301643	None	None	None	None	1
1.7	2015_Jul_27_1421	s	s	15	1	SIC	502	RC	1	0	23MC	1	0	0.682108879089	-66.0	81.0	-68	78	1
1.7	2015_Jul_27_1421	s	s	15	1	SIC	503	RC	0	2	23RD	1	0	0.540844202042	-490.0	362.0	-487	367	1
1.7	2015_Jul_27_1421	s	s	15	1	SIC	504	ABS	0	1	24RO	0	1	2.32982611656	None	None	None	None	1
1.7	2015_Jul_27_1421	s	s	15	1	SIC	505	ABS	1	0	24MC	0	1	2.03568387032	None	None	None	None	1
1.7	2015_Jul_27_1421	s	s	15	1	SIC	506	ABS	1	2	24MD	0	1	0.73814201355	None	None	None	None	1
1.7	2015_Jul_27_1421	s	s	15	1	SIC	507	ABS	0	2	24RD	0	1	0.693817138672	None	None	None	None	1
1.7	2015_Jul_27_1421	s	s	15	1	SIC	508	RC	1	1	23MO	1	0	1.36014604568	512.0	271.0	508	264	1
1.7	2015_Jul_27_1421	s	s	15	1	SIC	509	ABS	2	1	24VO	0	1	0.635043859482	None	None	None	None	1
1.7	2015_Jul_27_1421	s	s	15	1	SIC	510	ABS	2	0	24VC	0	1	0.866964817047	None	None	None	None	1
1.7	2015_Jul_27_1421	s	s	15	1	SIC	511	RC	2	0	23VC	1	0	0.529049158096	-535.0	-138.0	-535	-135	1
1.7	2015_Jul_27_1421	s	s	15	1	SIC	512	RC	1	2	23MD	1	0	0.617763996124	410.0	-110.0	404	-111	1
1.7	2015_Jul_27_1421	s	s	15	1	SIC	513	RC	1	0	23MC	1	0	2.89143395424	131.0	292.0	121	298	1
1.7	2015_Jul_27_1421	s	s	15	1	SIC	514	RC	1	1	23MO	1	0	1.31762099266	530.0	-258.0	528	-253	1
1.7	2015_Jul_27_1421	s	s	15	1	SIC	515	ABS	1	1	24MO	0	1	2.03112983704	None	None	None	None	1
1.7	2015_Jul_27_1421	s	s	15	1	SIC	516	RC	2	1	23VO	1	0	0.653407812119	233.0	58.0	240	57	1
1.7	2015_Jul_27_1421	s	s	15	1	SIC	517	RC	2	2	23VD	1	0	0.505532026291	463.0	155.0	460	148	1
1.7	2015_Jul_27_1421	s	s	15	1	SIC	518	ABS	0	2	24RD	0	1	0.785140037537	None	None	None	None	1
1.7	2015_Jul_27_1421	s	s	15	1	SIC	519	ABS	2	0	24VC	0	1	0.665353059769	None	None	None	None	1
1.7	2015_Jul_27_1421	s	s	15	1	SIC	520	ABS	0	1	24RO	0	1	4.50748896599	None	None	None	None	1
1.7	2015_Jul_27_1421	s	s	15	1	SIC	521	RC	1	2	23MD	1	0	0.546269178391	12.0	277.0	8	279	1
1.7	2015_Jul_27_1421	s	s	15	1	SIC	522	ABS	1	2	24MD	0	1	0.677150964737	None	None	None	None	1
1.7	2015_Jul_27_1421	s	s	15	1	SIC	523	ABS	2	2	24VD	0	1	0.552623987198	None	None	None	None	1
1.7	2015_Jul_27_1421	s	s	15	1	SIC	524	ABS	1	0	24MC	0	1	2.12489295006	None	None	None	None	1
1.7	2015_Jul_27_1421	s	s	15	1	SIC	525	RC	0	1	23RO	1	0	1.07091283798	290.0	73.0	284	77	1
1.7	2015_Jul_27_1421	s	s	15	1	SIC	526	ABS	2	1	24VO	0	1	0.653496980667	None	None	None	None	1
1.7	2015_Jul_27_1421	s	s	15	1	SIC	527	RC	2	0	23VC	1	0	0.537503004074	-274.0	303.0	-270	300	1
1.7	2015_Jul_27_1421	s	s	15	1	SIC	528	RC	0	2	23RD	1	0	0.524093866348	53.0	-301.0	61	-305	1
1.7	2015_Jul_27_1421	s	s	15	1	SIC	529	ABS	1	2	24MD	0	1	0.794104099274	None	None	None	None	1
1.7	2015_Jul_27_1421	s	s	15	1	SIC	530	ABS	1	0	24MC	0	1	2.07768392563	None	None	None	None	1
1.7	2015_Jul_27_1421	s	s	15	1	SIC	531	RC	2	1	23VO	1	0	0.682059049606	-311.0	-272.0	-310	-274	1
1.7	2015_Jul_27_1421	s	s	15	1	SIC	532	RC	1	1	23MO	1	0	2.28275084496	200.0	373.0	200	368	1
1.7	2015_Jul_27_1421	s	s	15	1	SIC	533	ABS	2	0	24VC	0	1	0.670260906219	None	None	None	None	1
1.7	2015_Jul_27_1421	s	s	15	1	SIC	534	RC	2	2	23VD	1	0	1.13846802711	-515.0	109.0	-515	100	1
1.7	2015_Jul_27_1421	s	s	15	1	SIC	535	RC	0	1	23RO	1	0	2.58891296387	376.0	336.0	374	336	1
1.7	2015_Jul_27_1421	s	s	15	1	SIC	536	RC	1	0	23MC	1	0	5.38695812225	485.0	-180.0	487	-172	1
1.7	2015_Jul_27_1421	s	s	15	1	SIC	537	RC	0	2	23RD	1	0	0.893935918808	-219.0	-346.0	-225	-349	1
1.7	2015_Jul_27_1421	s	s	15	1	SIC	538	RC	2	0	23VC	1	0	0.787944078445	-195.0	133.0	-187	133	1
1.7	2015_Jul_27_1421	s	s	15	1	SIC	539	ABS	0	1	24RO	0	1	4.24514198303	None	None	None	None	1
1.7	2015_Jul_27_1421	s	s	15	1	SIC	540	ABS	2	1	24VO	0	1	0.693856954575	None	None	None	None	1
1.7	2015_Jul_27_1421	s	s	15	1	SIC	541	ABS	2	2	24VD	0	1	0.505477905273	None	None	None	None	1
1.7	2015_Jul_27_1421	s	s	15	1	SIC	542	RC	1	2	23MD	1	0	0.677496910095	151.0	-410.0	159	-406	1
1.7	2015_Jul_27_1421	s	s	15	1	SIC	543	ABS	0	2	24RD	0	1	0.764533996582	None	None	None	None	1
1.7	2015_Jul_27_1421	s	s	15	1	SIC	544	ABS	1	1	24MO	0	1	3.93622303009	None	None	None	None	1
1.7	2015_Jul_27_1421	s	s	15	1	SIC	545	ABS	2	0	24VC	0	1	0.66512298584	None	None	None	None	1
1.7	2015_Jul_27_1421	s	s	15	1	SIC	546	RC	0	1	23RO	1	0	0.771274089813	108.0	-39.0	108	-43	1
1.7	2015_Jul_27_1421	s	s	15	1	SIC	547	RC	2	0	23VC	1	0	0.558749914169	-387.0	-226.0	-390	-235	1
1.7	2015_Jul_27_1421	s	s	15	1	SIC	548	RC	2	1	23VO	1	0	0.529016017914	9.0	265.0	9	270	1
1.7	2015_Jul_27_1421	s	s	15	1	SIC	549	RC	0	2	23RD	1	0	0.59469294548	-489.0	390.0	-485	386	1
1.7	2015_Jul_27_1421	s	s	15	1	SIC	550	ABS	1	2	24MD	0	1	1.37397098541	None	None	None	None	1
1.7	2015_Jul_27_1421	s	s	15	1	SIC	551	RC	2	2	23VD	1	0	0.538158893585	-426.0	246.0	-426	245	1
1.7	2015_Jul_27_1421	s	s	15	1	SIC	552	RC	1	0	23MC	1	0	1.32946801186	255.0	23.0	256	20	1
1.7	2015_Jul_27_1421	s	s	15	1	SIC	553	ABS	0	2	24RD	0	1	0.646725177765	None	None	None	None	1
1.7	2015_Jul_27_1421	s	s	15	1	SIC	554	RC	1	1	23MO	1	0	0.517296075821	-201.0	36.0	-202	31	1
1.7	2015_Jul_27_1421	s	s	15	1	SIC	555	ABS	2	2	24VD	0	1	0.677119016647	None	None	None	None	1
1.7	2015_Jul_27_1421	s	s	15	1	SIC	556	ABS	1	0	24MC	0	1	1.48936605453	None	None	None	None	1
1.7	2015_Jul_27_1421	s	s	15	1	SIC	557	RC	1	2	23MD	1	0	0.641407966614	-351.0	-236.0	-342	-238	1
1.7	2015_Jul_27_1421	s	s	15	1	SIC	558	ABS	1	1	24MO	0	1	2.01811599731	None	None	None	None	1
1.7	2015_Jul_27_1421	s	s	15	1	SIC	559	ABS	0	1	24RO	0	1	2.32500290871	None	None	None	None	1
1.7	2015_Jul_27_1421	s	s	15	1	SIC	560	ABS	2	1	24VO	0	1	0.583122014999	None	None	None	None	1
1.7	2015_Jul_27_1421	s	s	15	1	SIC	561	ABS	1	1	24MO	0	1	2.3364470005	None	None	None	None	1
1.7	2015_Jul_27_1421	s	s	15	1	SIC	562	RC	0	1	23RO	1	0	4.19649004936	219.0	166.0	227	169	1
1.7	2015_Jul_27_1421	s	s	15	1	SIC	563	ABS	0	2	24RD	0	1	1.69429993629	None	None	None	None	1
1.7	2015_Jul_27_1421	s	s	15	1	SIC	564	ABS	2	1	24VO	0	1	0.690968990326	None	None	None	None	1
1.7	2015_Jul_27_1421	s	s	15	1	SIC	565	ABS	2	2	24VD	0	1	0.573425769806	None	None	None	None	1
1.7	2015_Jul_27_1421	s	s	15	1	SIC	566	RC	1	2	23MD	1	0	0.540798902512	441.0	259.0	437	253	1
1.7	2015_Jul_27_1421	s	s	15	1	SIC	567	RC	1	0	23MC	1	0	0.599678039551	73.0	-7.0	76	-9	1
1.7	2015_Jul_27_1421	s	s	15	1	SIC	568	ABS	2	0	24VC	0	1	0.559287071228	None	None	None	None	1
1.7	2015_Jul_27_1421	s	s	15	1	SIC	569	ABS	1	2	24MD	0	1	0.900738954544	None	None	None	None	1
1.7	2015_Jul_27_1421	s	s	15	1	SIC	570	RC	2	2	23VD	1	0	0.71267914772	347.0	-202.0	345	-199	1
1.7	2015_Jul_27_1421	s	s	15	1	SIC	571	RC	2	1	23VO	1	0	0.606501102448	258.0	20.0	257	18	1
1.7	2015_Jul_27_1421	s	s	15	1	SIC	572	ABS	1	0	24MC	0	1	1.30103993416	None	None	None	None	1
1.7	2015_Jul_27_1421	s	s	15	1	SIC	573	RC	0	2	23RD	1	0	0.626893043518	289.0	-170.0	292	-167	1
1.7	2015_Jul_27_1421	s	s	15	1	SIC	574	RC	2	0	23VC	1	0	0.611489057541	27.0	-220.0	25	-217	1
1.7	2015_Jul_27_1421	s	s	15	1	SIC	575	ABS	0	1	24RO	0	1	4.43193721771	None	None	None	None	1
1.7	2015_Jul_27_1421	s	s	15	1	SIC	576	RC	1	1	23MO	1	0	1.93618798256	-165.0	-138.0	-163	-134	1
1.7	2015_Jul_27_1421	s	s	15	1	SIC	577	ABS	0	1	24RO	0	1	2.93023514748	None	None	None	None	1
1.7	2015_Jul_27_1421	s	s	15	1	SIC	578	RC	1	0	23MC	1	0	1.04192519188	-233.0	-50.0	-241	-53	1
1.7	2015_Jul_27_1421	s	s	15	1	SIC	579	ABS	1	0	24MC	0	1	1.48250603676	None	None	None	None	1
1.7	2015_Jul_27_1421	s	s	15	1	SIC	580	ABS	1	1	24MO	0	1	1.66277503967	None	None	None	None	1
1.7	2015_Jul_27_1421	s	s	15	1	SIC	581	RC	2	2	23VD	1	0	0.493739843369	241.0	-12.0	249	-11	1
1.7	2015_Jul_27_1421	s	s	15	1	SIC	582	ABS	2	1	24VO	0	1	0.618260145187	None	None	None	None	1
1.7	2015_Jul_27_1421	s	s	15	1	SIC	583	ABS	0	2	24RD	0	1	0.611441135406	None	None	None	None	1
1.7	2015_Jul_27_1421	s	s	15	1	SIC	584	RC	0	1	23RO	1	0	1.55995297432	348.0	-148.0	342	-153	1
1.7	2015_Jul_27_1421	s	s	15	1	SIC	585	ABS	1	2	24MD	0	1	0.641879796982	None	None	None	None	1
1.7	2015_Jul_27_1421	s	s	15	1	SIC	586	ABS	2	0	24VC	0	1	0.693865060806	None	None	None	None	1
1.7	2015_Jul_27_1421	s	s	15	1	SIC	587	ABS	2	2	24VD	0	1	0.499123096466	None	None	None	None	1
1.7	2015_Jul_27_1421	s	s	15	1	SIC	588	RC	2	1	23VO	1	0	0.728990793228	-462.0	179.0	-465	179	1
1.7	2015_Jul_27_1421	s	s	15	1	SIC	589	RC	2	0	23VC	1	0	0.540852069855	-276.0	-281.0	-275	-282	1
1.7	2015_Jul_27_1421	s	s	15	1	SIC	590	RC	1	1	23MO	1	0	1.08912205696	482.0	-20.0	486	-22	1
1.7	2015_Jul_27_1421	s	s	15	1	SIC	591	RC	1	2	23MD	1	0	0.509204864502	-183.0	335.0	-178	340	1
1.7	2015_Jul_27_1421	s	s	15	1	SIC	592	RC	0	2	23RD	1	0	0.723917961121	-187.0	-290.0	-194	-293	1
