Version	Date	Stimuli	Method	Subject	Session	Condition	Trial	Target	Channel1	Channel2	Distractors	LMouseButton	RMouseButton	RT	TargetX	TargetY	ResponseX	ResponseY	Correct
1.7	2015_Jul_28_1402	s	s	15	2	Capacity	1	ABS	0	2	24RD	0	1	3.01261091232	None	None	None	None	1
1.7	2015_Jul_28_1402	s	s	15	2	Capacity	2	RC	0	2	23RD	1	0	0.714408874512	219.0	-6.0	220	-7	1
1.7	2015_Jul_28_1402	s	s	15	2	Capacity	3	ABS	0	1	24RO	0	1	4.49576187134	None	None	None	None	1
1.7	2015_Jul_28_1402	s	s	15	2	Capacity	4	RC	0	1	23RO	1	0	3.3017551899	432.0	381.0	439	380	1
1.7	2015_Jul_28_1402	s	s	15	2	Capacity	5	RC	0	1	23RO	1	0	1.83552289009	-339.0	-334.0	-332	-332	1
1.7	2015_Jul_28_1402	s	s	15	2	Capacity	6	ABS	0	2	24RD	0	1	3.18407201767	None	None	None	None	1
1.7	2015_Jul_28_1402	s	s	15	2	Capacity	7	RC	0	2	23RD	1	0	0.752567052841	-76.0	-70.0	-64	-60	1
1.7	2015_Jul_28_1402	s	s	15	2	Capacity	8	ABS	0	1	24RO	0	1	6.13892102242	None	None	None	None	1
1.7	2015_Jul_28_1402	s	s	15	2	Capacity	9	ABS	0	1	24RO	0	1	4.43687820435	None	None	None	None	1
1.7	2015_Jul_28_1402	s	s	15	2	Capacity	10	RC	0	1	23RO	1	0	6.84984898567	207.0	-412.0	211	-415	1
1.7	2015_Jul_28_1402	s	s	15	2	Capacity	11	RC	0	2	23RD	1	0	1.57663202286	170.0	-359.0	173	-363	1
1.7	2015_Jul_28_1402	s	s	15	2	Capacity	12	ABS	0	2	24RD	0	1	3.30210089684	None	None	None	None	1
1.7	2015_Jul_28_1402	s	s	15	2	Capacity	13	ABS	0	1	24RO	0	1	9.62293887138	None	None	None	None	1
1.7	2015_Jul_28_1402	s	s	15	2	Capacity	14	ABS	0	2	24RD	0	1	0.937344074249	None	None	None	None	1
1.7	2015_Jul_28_1402	s	s	15	2	Capacity	15	RC	0	2	23RD	1	0	3.18428492546	524.0	-326.0	528	-326	1
1.7	2015_Jul_28_1402	s	s	15	2	Capacity	16	RC	0	1	23RO	1	0	3.14207220078	-404.0	-219.0	-403	-214	1
1.7	2015_Jul_28_1402	s	s	15	2	Capacity	17	RC	0	2	23RD	1	0	1.19984483719	391.0	88.0	396	86	1
1.7	2015_Jul_28_1402	s	s	15	2	Capacity	18	ABS	0	2	24RD	0	1	1.97681593895	None	None	None	None	1
1.7	2015_Jul_28_1402	s	s	15	2	Capacity	19	RC	0	1	23RO	1	0	1.54135799408	248.0	-222.0	250	-219	1
1.7	2015_Jul_28_1402	s	s	15	2	Capacity	20	ABS	0	1	24RO	0	1	6.41429591179	None	None	None	None	1
1.7	2015_Jul_28_1402	s	s	15	2	Capacity	21	ABS	0	2	24RD	0	1	4.49078702927	None	None	None	None	1
1.7	2015_Jul_28_1402	s	s	15	2	Capacity	22	RC	0	2	23RD	1	0	0.747623920441	470.0	90.0	471	94	1
1.7	2015_Jul_28_1402	s	s	15	2	Capacity	23	RC	0	1	23RO	1	0	3.21272802353	172.0	-344.0	168	-338	1
1.7	2015_Jul_28_1402	s	s	15	2	Capacity	24	ABS	0	1	24RO	0	1	6.86150217056	None	None	None	None	1
1.7	2015_Jul_28_1402	s	s	15	2	Capacity	25	RC	0	1	23RO	1	0	2.60720205307	420.0	93.0	422	87	1
1.7	2015_Jul_28_1402	s	s	15	2	Capacity	26	ABS	0	2	24RD	0	1	0.923578023911	None	None	None	None	1
1.7	2015_Jul_28_1402	s	s	15	2	Capacity	27	ABS	0	1	24RO	0	1	7.38597893715	None	None	None	None	1
1.7	2015_Jul_28_1402	s	s	15	2	Capacity	28	RC	0	2	23RD	1	0	0.853554010391	-88.0	-77.0	-84	-71	1
1.7	2015_Jul_28_1402	s	s	15	2	Capacity	29	RC	0	1	23RO	1	0	1.94830799103	177.0	263.0	180	257	1
1.7	2015_Jul_28_1402	s	s	15	2	Capacity	30	ABS	0	2	24RD	0	1	4.04847502708	None	None	None	None	1
1.7	2015_Jul_28_1402	s	s	15	2	Capacity	31	ABS	0	1	24RO	0	1	6.22112083435	None	None	None	None	1
1.7	2015_Jul_28_1402	s	s	15	2	Capacity	32	RC	0	2	23RD	1	0	1.05870604515	-65.0	-350.0	-66	-346	1
1.7	2015_Jul_28_1402	s	s	15	2	Capacity	33	ABS	0	1	24RO	0	1	7.61488103867	None	None	None	None	1
1.7	2015_Jul_28_1402	s	s	15	2	Capacity	34	RC	0	1	23RO	1	0	1.06567692757	-322.0	-8.0	-320	-10	1
1.7	2015_Jul_28_1402	s	s	15	2	Capacity	35	ABS	0	2	24RD	0	1	2.60058808327	None	None	None	None	1
1.7	2015_Jul_28_1402	s	s	15	2	Capacity	36	RC	0	2	23RD	1	0	0.752691984177	-231.0	283.0	-233	283	1
1.7	2015_Jul_28_1402	s	s	15	2	Capacity	37	ABS	0	1	24RO	0	1	5.23728108406	None	None	None	None	1
1.7	2015_Jul_28_1402	s	s	15	2	Capacity	38	RC	0	1	23RO	1	0	1.30090618134	21.0	-46.0	30	-41	1
1.7	2015_Jul_28_1402	s	s	15	2	Capacity	39	ABS	0	2	24RD	0	1	1.02709507942	None	None	None	None	1
1.7	2015_Jul_28_1402	s	s	15	2	Capacity	40	RC	0	2	23RD	1	0	0.773493051529	280.0	275.0	284	266	1
1.7	2015_Jul_28_1402	s	s	15	2	Capacity	41	RC	0	1	23RO	1	0	1.27695608139	-430.0	126.0	-426	119	1
1.7	2015_Jul_28_1402	s	s	15	2	Capacity	42	ABS	0	1	24RO	0	1	7.18613600731	None	None	None	None	1
1.7	2015_Jul_28_1402	s	s	15	2	Capacity	43	ABS	0	2	24RD	0	1	0.838757991791	None	None	None	None	1
1.7	2015_Jul_28_1402	s	s	15	2	Capacity	44	RC	0	2	23RD	1	0	1.2538599968	-457.0	-339.0	-448	-343	1
1.7	2015_Jul_28_1402	s	s	15	2	Capacity	45	ABS	0	2	24RD	0	1	0.961952924728	None	None	None	None	1
1.7	2015_Jul_28_1402	s	s	15	2	Capacity	46	RC	0	1	23RO	1	0	0.84685587883	49.0	-52.0	55	-54	1
1.7	2015_Jul_28_1402	s	s	15	2	Capacity	47	ABS	0	1	24RO	0	1	5.9439599514	None	None	None	None	1
1.7	2015_Jul_28_1402	s	s	15	2	Capacity	48	RC	0	2	23RD	1	0	0.732853889465	-19.0	-146.0	-12	-144	1
1.7	2015_Jul_28_1402	s	s	15	2	Capacity	49	RC	0	1	23RO	1	0	1.41171693802	-415.0	372.0	-427	375	1
1.7	2015_Jul_28_1402	s	s	15	2	Capacity	50	ABS	0	1	24RO	0	1	5.94341301918	None	None	None	None	1
1.7	2015_Jul_28_1402	s	s	15	2	Capacity	51	ABS	0	2	24RD	0	1	2.00738596916	None	None	None	None	1
1.7	2015_Jul_28_1402	s	s	15	2	Capacity	52	RC	0	2	23RD	1	0	0.540749073029	-282.0	-212.0	-276	-217	1
1.7	2015_Jul_28_1402	s	s	15	2	Capacity	53	ABS	0	2	24RD	0	1	1.08996295929	None	None	None	None	1
1.7	2015_Jul_28_1402	s	s	15	2	Capacity	54	RC	0	2	23RD	1	0	1.16205692291	-241.0	148.0	-246	144	1
1.7	2015_Jul_28_1402	s	s	15	2	Capacity	55	RC	0	1	23RO	1	0	2.67127585411	364.0	258.0	367	266	1
1.7	2015_Jul_28_1402	s	s	15	2	Capacity	56	ABS	0	1	24RO	0	1	5.31464910507	None	None	None	None	1
1.7	2015_Jul_28_1402	s	s	15	2	Capacity	57	RC	0	1	23RO	1	0	3.1185669899	-138.0	317.0	-142	306	1
1.7	2015_Jul_28_1402	s	s	15	2	Capacity	58	RC	0	2	23RD	1	0	1.01163697243	-394.0	290.0	-385	288	1
1.7	2015_Jul_28_1402	s	s	15	2	Capacity	59	ABS	0	2	24RD	0	1	1.01852202415	None	None	None	None	1
1.7	2015_Jul_28_1402	s	s	15	2	Capacity	60	ABS	0	1	24RO	0	1	4.96653199196	None	None	None	None	1
1.7	2015_Jul_28_1402	s	s	15	2	Capacity	61	RC	0	1	23RO	1	0	2.42407298088	314.0	-12.0	314	-8	1
1.7	2015_Jul_28_1402	s	s	15	2	Capacity	62	ABS	0	1	24RO	0	1	5.33180809021	None	None	None	None	1
1.7	2015_Jul_28_1402	s	s	15	2	Capacity	63	RC	0	2	23RD	1	0	0.717367172241	54.0	-370.0	55	-372	1
1.7	2015_Jul_28_1402	s	s	15	2	Capacity	64	ABS	0	2	24RD	0	1	0.618288040161	None	None	None	None	1
1.7	2015_Jul_28_1402	s	s	15	2	Capacity	65	RC	0	1	23RO	1	0	1.99531507492	202.0	-356.0	211	-356	1
1.7	2015_Jul_28_1402	s	s	15	2	Capacity	66	ABS	0	2	24RD	0	1	2.82424807549	None	None	None	None	1
1.7	2015_Jul_28_1402	s	s	15	2	Capacity	67	RC	0	2	23RD	1	0	0.670254945755	-509.0	-304.0	-519	-299	1
1.7	2015_Jul_28_1402	s	s	15	2	Capacity	68	ABS	0	1	24RO	0	1	5.01359415054	None	None	None	None	1
1.7	2015_Jul_28_1402	s	s	15	2	Capacity	69	ABS	0	2	24RD	0	1	1.96173000336	None	None	None	None	1
1.7	2015_Jul_28_1402	s	s	15	2	Capacity	70	RC	0	1	23RO	1	0	3.1723690033	529.0	-43.0	528	-43	1
1.7	2015_Jul_28_1402	s	s	15	2	Capacity	71	RC	0	2	23RD	1	0	0.79638004303	-210.0	-382.0	-211	-374	1
1.7	2015_Jul_28_1402	s	s	15	2	Capacity	72	ABS	0	1	24RO	0	1	7.2568731308	None	None	None	None	1
1.7	2015_Jul_28_1402	s	s	15	2	Capacity	73	ABS	0	2	24RD	0	1	1.96143293381	None	None	None	None	1
1.7	2015_Jul_28_1402	s	s	15	2	Capacity	74	ABS	0	1	24RO	0	1	7.79993104935	None	None	None	None	1
1.7	2015_Jul_28_1402	s	s	15	2	Capacity	75	RC	0	1	23RO	1	0	6.9674949646	-321.0	328.0	-317	326	1
1.7	2015_Jul_28_1402	s	s	15	2	Capacity	76	RC	0	2	23RD	1	0	0.764375925064	-315.0	406.0	-314	400	1
1.7	2015_Jul_28_1402	s	s	15	2	Capacity	77	RC	0	2	23RD	1	0	0.854354858398	-316.0	185.0	-306	186	1
1.7	2015_Jul_28_1402	s	s	15	2	Capacity	78	RC	0	1	23RO	1	0	1.13651585579	-61.0	348.0	-62	357	1
1.7	2015_Jul_28_1402	s	s	15	2	Capacity	79	ABS	0	2	24RD	0	1	2.04243302345	None	None	None	None	1
1.7	2015_Jul_28_1402	s	s	15	2	Capacity	80	ABS	0	1	24RO	0	1	8.65763092041	None	None	None	None	1
1.7	2015_Jul_28_1402	s	s	15	2	Capacity	81	RC	0	2	23RD	1	0	0.638651847839	-513.0	-335.0	-513	-339	1
1.7	2015_Jul_28_1402	s	s	15	2	Capacity	82	ABS	0	2	24RD	0	1	1.26549196243	None	None	None	None	1
1.7	2015_Jul_28_1402	s	s	15	2	Capacity	83	RC	0	1	23RO	1	0	3.61291003227	210.0	-59.0	216	-57	1
1.7	2015_Jul_28_1402	s	s	15	2	Capacity	84	ABS	0	1	24RO	0	1	5.14311599731	None	None	None	None	1
1.7	2015_Jul_28_1402	s	s	15	2	Capacity	85	RC	0	2	23RD	1	0	0.740921974182	14.0	257.0	11	257	1
1.7	2015_Jul_28_1402	s	s	15	2	Capacity	86	RC	0	1	23RO	1	0	1.56475400925	-482.0	-35.0	-482	-39	1
1.7	2015_Jul_28_1402	s	s	15	2	Capacity	87	ABS	0	2	24RD	0	1	1.0064060688	None	None	None	None	1
1.7	2015_Jul_28_1402	s	s	15	2	Capacity	88	ABS	0	1	24RO	0	1	10.3398239613	None	None	None	None	1
1.7	2015_Jul_28_1402	s	s	15	2	Capacity	89	ABS	0	2	24RD	0	1	0.830176115036	None	None	None	None	1
1.7	2015_Jul_28_1402	s	s	15	2	Capacity	90	RC	0	2	23RD	1	0	0.799725055695	267.0	-23.0	271	-29	1
1.7	2015_Jul_28_1402	s	s	15	2	Capacity	91	RC	0	1	23RO	1	0	1.47718906403	154.0	391.0	156	380	1
1.7	2015_Jul_28_1402	s	s	15	2	Capacity	92	ABS	0	1	24RO	0	1	10.2347171307	None	None	None	None	1
1.7	2015_Jul_28_1402	s	s	15	2	Capacity	1	RC	1	0	23MC	1	0	8.98742794991	-24.0	253.0	-23	253	1
1.7	2015_Jul_28_1402	s	s	15	2	Capacity	2	ABS	1	0	24MC	0	1	4.91420006752	None	None	None	None	1
1.7	2015_Jul_28_1402	s	s	15	2	Capacity	3	ABS	2	0	24VC	0	1	1.97682905197	None	None	None	None	1
1.7	2015_Jul_28_1402	s	s	15	2	Capacity	4	RC	2	0	23VC	1	0	1.23535513878	196.0	-122.0	193	-131	1
1.7	2015_Jul_28_1402	s	s	15	2	Capacity	5	RC	2	0	23VC	1	0	0.6622569561	456.0	-52.0	454	-51	1
1.7	2015_Jul_28_1402	s	s	15	2	Capacity	6	RC	1	0	23MC	1	0	2.09082889557	-262.0	-55.0	-255	-54	1
1.7	2015_Jul_28_1402	s	s	15	2	Capacity	7	ABS	2	0	24VC	0	1	1.75951099396	None	None	None	None	1
1.7	2015_Jul_28_1402	s	s	15	2	Capacity	8	ABS	1	0	24MC	0	1	5.49621796608	None	None	None	None	1
1.7	2015_Jul_28_1402	s	s	15	2	Capacity	9	RC	1	0	23MC	1	0	10.1926732063	210.0	377.0	204	380	1
1.7	2015_Jul_28_1402	s	s	15	2	Capacity	10	RC	2	0	23VC	1	0	0.635011196136	463.0	122.0	459	110	1
1.7	2015_Jul_28_1402	s	s	15	2	Capacity	11	ABS	1	0	24MC	0	1	5.93859910965	None	None	None	None	1
1.7	2015_Jul_28_1402	s	s	15	2	Capacity	12	ABS	2	0	24VC	0	1	0.677202939987	None	None	None	None	1
1.7	2015_Jul_28_1402	s	s	15	2	Capacity	13	ABS	1	0	24MC	0	1	5.51648688316	None	None	None	None	1
1.7	2015_Jul_28_1402	s	s	15	2	Capacity	14	ABS	2	0	24VC	0	1	1.80052518845	None	None	None	None	1
1.7	2015_Jul_28_1402	s	s	15	2	Capacity	15	RC	2	0	23VC	1	0	1.07053112984	-393.0	228.0	-395	228	1
1.7	2015_Jul_28_1402	s	s	15	2	Capacity	16	RC	1	0	23MC	1	0	1.09400415421	-241.0	-196.0	-240	-193	1
1.7	2015_Jul_28_1402	s	s	15	2	Capacity	17	ABS	1	0	24MC	0	1	13.0529091358	None	None	None	None	1
1.7	2015_Jul_28_1402	s	s	15	2	Capacity	18	ABS	2	0	24VC	0	1	1.67758703232	None	None	None	None	1
1.7	2015_Jul_28_1402	s	s	15	2	Capacity	19	RC	2	0	23VC	1	0	0.811573982239	456.0	-392.0	455	-386	1
1.7	2015_Jul_28_1402	s	s	15	2	Capacity	20	RC	1	0	23MC	1	0	1.68250799179	372.0	110.0	373	107	1
1.7	2015_Jul_28_1402	s	s	15	2	Capacity	21	RC	2	0	23VC	1	0	0.882118940353	-284.0	179.0	-283	175	1
1.7	2015_Jul_28_1402	s	s	15	2	Capacity	22	ABS	1	0	24MC	0	1	5.26077508926	None	None	None	None	1
1.7	2015_Jul_28_1402	s	s	15	2	Capacity	23	ABS	2	0	24VC	1	0	1.07716989517	None	None	475	-391	0
1.7	2015_Jul_28_1402	s	s	15	2	Capacity	24	RC	1	0	23MC	1	0	2.27849984169	-477.0	-26.0	-473	-26	1
1.7	2015_Jul_28_1402	s	s	15	2	Capacity	25	ABS	2	0	24VC	0	1	1.64727187157	None	None	None	None	1
1.7	2015_Jul_28_1402	s	s	15	2	Capacity	26	RC	1	0	23MC	1	0	2.55085706711	-498.0	26.0	-495	14	1
1.7	2015_Jul_28_1402	s	s	15	2	Capacity	27	ABS	1	0	24MC	0	1	4.74935698509	None	None	None	None	1
1.7	2015_Jul_28_1402	s	s	15	2	Capacity	28	RC	2	0	23VC	1	0	0.752731800079	275.0	-169.0	276	-171	1
1.7	2015_Jul_28_1402	s	s	15	2	Capacity	29	ABS	2	0	24VC	0	1	5.07881903648	None	None	None	None	1
1.7	2015_Jul_28_1402	s	s	15	2	Capacity	30	RC	2	0	23VC	1	0	1.10667395592	-150.0	-33.0	-155	-30	1
1.7	2015_Jul_28_1402	s	s	15	2	Capacity	31	ABS	1	0	24MC	0	1	3.64336800575	None	None	None	None	1
1.7	2015_Jul_28_1402	s	s	15	2	Capacity	32	RC	1	0	23MC	1	0	4.70258712769	222.0	305.0	229	299	1
1.7	2015_Jul_28_1402	s	s	15	2	Capacity	33	RC	1	0	23MC	1	0	1.11753296852	254.0	-86.0	254	-92	1
1.7	2015_Jul_28_1402	s	s	15	2	Capacity	34	RC	2	0	23VC	1	0	0.552555084229	101.0	164.0	109	168	1
1.7	2015_Jul_28_1402	s	s	15	2	Capacity	35	ABS	1	0	24MC	0	1	7.12065696716	None	None	None	None	1
1.7	2015_Jul_28_1402	s	s	15	2	Capacity	36	ABS	2	0	24VC	0	1	0.747529029846	None	None	None	None	1
1.7	2015_Jul_28_1402	s	s	15	2	Capacity	37	ABS	1	0	24MC	0	1	14.3894231319	None	None	None	None	1
1.7	2015_Jul_28_1402	s	s	15	2	Capacity	38	RC	2	0	23VC	1	0	0.882120847702	479.0	-407.0	488	-408	1
1.7	2015_Jul_28_1402	s	s	15	2	Capacity	39	ABS	2	0	24VC	0	1	0.949210166931	None	None	None	None	1
1.7	2015_Jul_28_1402	s	s	15	2	Capacity	40	RC	1	0	23MC	0	1	2.40723991394	-286.0	-410.0	None	None	0
1.7	2015_Jul_28_1402	s	s	15	2	Capacity	41	RC	1	0	23MC	1	0	3.08325695992	-286.0	323.0	-292	322	1
1.7	2015_Jul_28_1402	s	s	15	2	Capacity	42	ABS	1	0	24MC	0	1	7.07350897789	None	None	None	None	1
1.7	2015_Jul_28_1402	s	s	15	2	Capacity	43	ABS	2	0	24VC	0	1	0.729147911072	None	None	None	None	1
1.7	2015_Jul_28_1402	s	s	15	2	Capacity	44	RC	2	0	23VC	1	0	0.540805101395	-150.0	-148.0	-140	-144	1
1.7	2015_Jul_28_1402	s	s	15	2	Capacity	45	ABS	2	0	24VC	0	1	2.6550359726	None	None	None	None	1
1.7	2015_Jul_28_1402	s	s	15	2	Capacity	46	RC	1	0	23MC	0	1	15.2775259018	506.0	-25.0	None	None	0
1.7	2015_Jul_28_1402	s	s	15	2	Capacity	47	ABS	1	0	24MC	0	1	5.09068107605	None	None	None	None	1
1.7	2015_Jul_28_1402	s	s	15	2	Capacity	48	RC	2	0	23VC	1	0	0.607812166214	-397.0	-10.0	-396	-7	1
1.7	2015_Jul_28_1402	s	s	15	2	Capacity	49	RC	2	0	23VC	1	0	0.654299974442	230.0	-11.0	235	-18	1
1.7	2015_Jul_28_1402	s	s	15	2	Capacity	50	RC	1	0	23MC	1	0	1.54954004288	-440.0	-296.0	-436	-301	1
1.7	2015_Jul_28_1402	s	s	15	2	Capacity	51	ABS	1	0	24MC	0	1	6.68505620956	None	None	None	None	1
1.7	2015_Jul_28_1402	s	s	15	2	Capacity	52	ABS	2	0	24VC	0	1	0.759596824646	None	None	None	None	1
1.7	2015_Jul_28_1402	s	s	15	2	Capacity	53	RC	1	0	23MC	1	0	1.43531894684	-179.0	-158.0	-187	-154	1
1.7	2015_Jul_28_1402	s	s	15	2	Capacity	54	ABS	2	0	24VC	0	1	0.700375080109	None	None	None	None	1
1.7	2015_Jul_28_1402	s	s	15	2	Capacity	55	RC	2	0	23VC	1	0	0.950245857239	517.0	82.0	516	74	1
1.7	2015_Jul_28_1402	s	s	15	2	Capacity	56	ABS	1	0	24MC	0	1	3.52793908119	None	None	None	None	1
1.7	2015_Jul_28_1402	s	s	15	2	Capacity	57	ABS	1	0	24MC	0	1	9.46975803375	None	None	None	None	1
1.7	2015_Jul_28_1402	s	s	15	2	Capacity	58	ABS	2	0	24VC	0	1	0.623151063919	None	None	None	None	1
1.7	2015_Jul_28_1402	s	s	15	2	Capacity	59	RC	2	0	23VC	1	0	1.40749597549	434.0	392.0	435	386	1
1.7	2015_Jul_28_1402	s	s	15	2	Capacity	60	RC	1	0	23MC	1	0	13.3092908859	263.0	-290.0	273	-289	1
1.7	2015_Jul_28_1402	s	s	15	2	Capacity	61	RC	1	0	23MC	1	0	3.62472009659	501.0	-279.0	506	-283	1
1.7	2015_Jul_28_1402	s	s	15	2	Capacity	62	ABS	2	0	24VC	0	1	0.865313053131	None	None	None	None	1
1.7	2015_Jul_28_1402	s	s	15	2	Capacity	63	RC	2	0	23VC	1	0	0.902419090271	130.0	306.0	135	309	1
1.7	2015_Jul_28_1402	s	s	15	2	Capacity	64	ABS	1	0	24MC	0	1	2.55360388756	None	None	None	None	1
1.7	2015_Jul_28_1402	s	s	15	2	Capacity	65	RC	2	0	23VC	1	0	0.630999088287	-347.0	45.0	-348	46	1
1.7	2015_Jul_28_1402	s	s	15	2	Capacity	66	ABS	2	0	24VC	0	1	0.738475799561	None	None	None	None	1
1.7	2015_Jul_28_1402	s	s	15	2	Capacity	67	RC	1	0	23MC	1	0	1.06575798988	-148.0	-363.0	-238	145	0
1.7	2015_Jul_28_1402	s	s	15	2	Capacity	68	ABS	1	0	24MC	0	1	2.73007202148	None	None	None	None	1
1.7	2015_Jul_28_1402	s	s	15	2	Capacity	69	RC	1	0	23MC	1	0	1.24256396294	-426.0	-129.0	-418	-127	1
1.7	2015_Jul_28_1402	s	s	15	2	Capacity	70	ABS	2	0	24VC	0	1	0.638721942902	None	None	None	None	1
1.7	2015_Jul_28_1402	s	s	15	2	Capacity	71	RC	2	0	23VC	1	0	0.608873128891	420.0	-271.0	415	-274	1
1.7	2015_Jul_28_1402	s	s	15	2	Capacity	72	ABS	1	0	24MC	0	1	4.3966460228	None	None	None	None	1
1.7	2015_Jul_28_1402	s	s	15	2	Capacity	73	ABS	1	0	24MC	0	1	11.9792189598	None	None	None	None	1
1.7	2015_Jul_28_1402	s	s	15	2	Capacity	74	ABS	2	0	24VC	0	1	0.77258515358	None	None	None	None	1
1.7	2015_Jul_28_1402	s	s	15	2	Capacity	75	RC	2	0	23VC	1	0	0.749716997147	189.0	-73.0	197	-71	1
1.7	2015_Jul_28_1402	s	s	15	2	Capacity	76	RC	1	0	23MC	1	0	3.07151603699	519.0	-147.0	526	-142	1
1.7	2015_Jul_28_1402	s	s	15	2	Capacity	77	RC	1	0	23MC	1	0	2.17697882652	264.0	-384.0	269	-384	1
1.7	2015_Jul_28_1402	s	s	15	2	Capacity	78	RC	2	0	23VC	1	0	0.818421125412	-34.0	339.0	-40	336	1
1.7	2015_Jul_28_1402	s	s	15	2	Capacity	79	ABS	2	0	24VC	0	1	1.1527121067	None	None	None	None	1
1.7	2015_Jul_28_1402	s	s	15	2	Capacity	80	ABS	1	0	24MC	0	1	7.23335599899	None	None	None	None	1
1.7	2015_Jul_28_1402	s	s	15	2	Capacity	81	RC	2	0	23VC	1	0	1.0823071003	-332.0	-73.0	-330	-70	1
1.7	2015_Jul_28_1402	s	s	15	2	Capacity	82	ABS	1	0	24MC	0	1	5.80869913101	None	None	None	None	1
1.7	2015_Jul_28_1402	s	s	15	2	Capacity	83	ABS	2	0	24VC	0	1	0.843227863312	None	None	None	None	1
1.7	2015_Jul_28_1402	s	s	15	2	Capacity	84	RC	1	0	23MC	1	0	10.7407228947	-269.0	-379.0	-276	-385	1
1.7	2015_Jul_28_1402	s	s	15	2	Capacity	85	RC	2	0	23VC	1	0	0.536244153976	331.0	-226.0	341	-227	1
1.7	2015_Jul_28_1402	s	s	15	2	Capacity	86	ABS	1	0	24MC	0	1	3.9964401722	None	None	None	None	1
1.7	2015_Jul_28_1402	s	s	15	2	Capacity	87	ABS	2	0	24VC	0	1	0.756371974945	None	None	None	None	1
1.7	2015_Jul_28_1402	s	s	15	2	Capacity	88	RC	1	0	23MC	1	0	9.22257018089	295.0	396.0	293	389	1
1.7	2015_Jul_28_1402	s	s	15	2	Capacity	89	ABS	2	0	24VC	0	1	0.72616481781	None	None	None	None	1
1.7	2015_Jul_28_1402	s	s	15	2	Capacity	90	RC	2	0	23VC	1	0	0.947859048843	488.0	-33.0	487	-31	1
1.7	2015_Jul_28_1402	s	s	15	2	Capacity	91	ABS	1	0	24MC	0	1	9.37579393387	None	None	None	None	1
1.7	2015_Jul_28_1402	s	s	15	2	Capacity	92	RC	1	0	23MC	1	0	0.843963861465	-5.0	-273.0	-8	-279	1
1.7	2015_Jul_28_1402	s	s	15	2	SIC	1	RC	0	2	23RD	1	0	0.626950025558	-268.0	-47.0	-266	-55	1
1.7	2015_Jul_28_1402	s	s	15	2	SIC	2	ABS	0	1	24RO	0	1	3.83666300774	None	None	None	None	1
1.7	2015_Jul_28_1402	s	s	15	2	SIC	3	ABS	2	0	24VC	0	1	0.80349612236	None	None	None	None	1
1.7	2015_Jul_28_1402	s	s	15	2	SIC	4	RC	2	2	23VD	1	0	0.658819913864	377.0	-76.0	376	-69	1
1.7	2015_Jul_28_1402	s	s	15	2	SIC	5	ABS	2	1	24VO	0	1	1.28235411644	None	None	None	None	1
1.7	2015_Jul_28_1402	s	s	15	2	SIC	6	RC	1	1	23MO	1	0	0.985508918762	-358.0	-200.0	-348	-201	1
1.7	2015_Jul_28_1402	s	s	15	2	SIC	7	ABS	1	2	24MD	0	1	1.21851015091	None	None	None	None	1
1.7	2015_Jul_28_1402	s	s	15	2	SIC	8	RC	1	0	23MC	1	0	1.67081212997	-298.0	301.0	-299	307	1
1.7	2015_Jul_28_1402	s	s	15	2	SIC	9	RC	2	0	23VC	1	0	0.541246891022	327.0	153.0	335	155	1
1.7	2015_Jul_28_1402	s	s	15	2	SIC	10	RC	1	2	23MD	1	0	0.528980970383	-381.0	-361.0	-372	-356	1
1.7	2015_Jul_28_1402	s	s	15	2	SIC	11	RC	2	1	23VO	1	0	0.45298910141	174.0	-383.0	175	-389	1
1.7	2015_Jul_28_1402	s	s	15	2	SIC	12	ABS	2	2	24VD	0	1	0.629966020584	None	None	None	None	1
1.7	2015_Jul_28_1402	s	s	15	2	SIC	13	RC	0	1	23RO	1	0	2.12630701065	-441.0	-69.0	-441	-70	1
1.7	2015_Jul_28_1402	s	s	15	2	SIC	14	ABS	1	0	24MC	0	1	3.80118083954	None	None	None	None	1
1.7	2015_Jul_28_1402	s	s	15	2	SIC	15	ABS	1	1	24MO	0	1	3.95428013802	None	None	None	None	1
1.7	2015_Jul_28_1402	s	s	15	2	SIC	16	ABS	0	2	24RD	0	1	1.08230185509	None	None	None	None	1
1.7	2015_Jul_28_1402	s	s	15	2	SIC	17	RC	0	2	23RD	1	0	0.587941884995	155.0	-170.0	143	-167	1
1.7	2015_Jul_28_1402	s	s	15	2	SIC	18	RC	2	0	23VC	1	0	0.587913036346	-279.0	114.0	-287	113	1
1.7	2015_Jul_28_1402	s	s	15	2	SIC	19	ABS	2	0	24VC	0	1	0.653772115707	None	None	None	None	1
1.7	2015_Jul_28_1402	s	s	15	2	SIC	20	ABS	1	2	24MD	0	1	0.867653846741	None	None	None	None	1
1.7	2015_Jul_28_1402	s	s	15	2	SIC	21	RC	1	0	23MC	1	0	1.05361604691	-217.0	-197.0	-213	-203	1
1.7	2015_Jul_28_1402	s	s	15	2	SIC	22	RC	1	1	23MO	1	0	0.677626848221	130.0	-186.0	129	-192	1
1.7	2015_Jul_28_1402	s	s	15	2	SIC	23	RC	2	1	23VO	1	0	1.19509983063	477.0	-156.0	485	-147	1
1.7	2015_Jul_28_1402	s	s	15	2	SIC	24	ABS	0	2	24RD	0	1	0.823319196701	None	None	None	None	1
1.7	2015_Jul_28_1402	s	s	15	2	SIC	25	ABS	1	1	24MO	0	1	5.0526471138	None	None	None	None	1
1.7	2015_Jul_28_1402	s	s	15	2	SIC	26	ABS	2	1	24VO	0	1	0.947798967361	None	None	None	None	1
1.7	2015_Jul_28_1402	s	s	15	2	SIC	27	RC	0	1	23RO	1	0	4.23676395416	-146.0	324.0	-150	318	1
1.7	2015_Jul_28_1402	s	s	15	2	SIC	28	ABS	2	2	24VD	0	1	1.28914809227	None	None	None	None	1
1.7	2015_Jul_28_1402	s	s	15	2	SIC	29	ABS	0	1	24RO	0	1	5.98734092712	None	None	None	None	1
1.7	2015_Jul_28_1402	s	s	15	2	SIC	30	ABS	1	0	24MC	0	1	8.70955610275	None	None	None	None	1
1.7	2015_Jul_28_1402	s	s	15	2	SIC	31	RC	2	2	23VD	1	0	0.964549064636	-315.0	384.0	-310	380	1
1.7	2015_Jul_28_1402	s	s	15	2	SIC	32	RC	1	2	23MD	1	0	0.502160072327	-112.0	-95.0	-120	-90	1
1.7	2015_Jul_28_1402	s	s	15	2	SIC	33	ABS	0	2	24RD	0	1	2.395788908	None	None	None	None	1
1.7	2015_Jul_28_1402	s	s	15	2	SIC	34	ABS	1	1	24MO	0	1	1.97144389153	None	None	None	None	1
1.7	2015_Jul_28_1402	s	s	15	2	SIC	35	RC	2	1	23VO	1	0	0.811728954315	-437.0	-64.0	-432	-67	1
1.7	2015_Jul_28_1402	s	s	15	2	SIC	36	RC	1	1	23MO	1	0	1.02998805046	-362.0	229.0	-361	227	1
1.7	2015_Jul_28_1402	s	s	15	2	SIC	37	RC	1	0	23MC	0	1	2.0653989315	-376.0	-395.0	None	None	0
1.7	2015_Jul_28_1402	s	s	15	2	SIC	38	ABS	2	2	24VD	0	1	0.70037484169	None	None	None	None	1
1.7	2015_Jul_28_1402	s	s	15	2	SIC	39	RC	1	2	23MD	1	0	1.00726699829	139.0	-343.0	135	-339	1
1.7	2015_Jul_28_1402	s	s	15	2	SIC	40	ABS	2	1	24VO	0	1	1.97421908379	None	None	None	None	1
1.7	2015_Jul_28_1402	s	s	15	2	SIC	41	RC	2	2	23VD	1	0	0.564345121384	-53.0	-354.0	-55	-358	1
1.7	2015_Jul_28_1402	s	s	15	2	SIC	42	RC	2	0	23VC	1	0	0.846898078918	-297.0	84.0	-293	87	1
1.7	2015_Jul_28_1402	s	s	15	2	SIC	43	RC	0	2	23RD	1	0	0.752648115158	376.0	-185.0	386	-180	1
1.7	2015_Jul_28_1402	s	s	15	2	SIC	44	ABS	2	0	24VC	0	1	0.646683931351	None	None	None	None	1
1.7	2015_Jul_28_1402	s	s	15	2	SIC	45	ABS	0	1	24RO	0	1	9.0630209446	None	None	None	None	1
1.7	2015_Jul_28_1402	s	s	15	2	SIC	46	RC	0	1	23RO	0	1	4.80836892128	-108.0	-262.0	None	None	0
1.7	2015_Jul_28_1402	s	s	15	2	SIC	47	ABS	1	2	24MD	0	1	0.72908115387	None	None	None	None	1
1.7	2015_Jul_28_1402	s	s	15	2	SIC	48	ABS	1	0	24MC	0	1	3.60973000526	None	None	None	None	1
1.7	2015_Jul_28_1402	s	s	15	2	SIC	49	ABS	2	0	24VC	0	1	1.34796595573	None	None	None	None	1
1.7	2015_Jul_28_1402	s	s	15	2	SIC	50	ABS	2	2	24VD	0	1	0.6584649086	None	None	None	None	1
1.7	2015_Jul_28_1402	s	s	15	2	SIC	51	ABS	2	1	24VO	0	1	1.78347206116	None	None	None	None	1
1.7	2015_Jul_28_1402	s	s	15	2	SIC	52	RC	0	1	23RO	1	0	2.51342391968	212.0	38.0	216	32	1
1.7	2015_Jul_28_1402	s	s	15	2	SIC	53	RC	1	0	23MC	1	0	8.90647411346	379.0	106.0	377	96	1
1.7	2015_Jul_28_1402	s	s	15	2	SIC	54	ABS	1	2	24MD	0	1	0.740919828415	None	None	None	None	1
1.7	2015_Jul_28_1402	s	s	15	2	SIC	55	RC	0	2	23RD	1	0	0.749405145645	-420.0	-11.0	-423	-11	1
1.7	2015_Jul_28_1402	s	s	15	2	SIC	56	RC	1	1	23MO	0	1	1.47068405151	285.0	379.0	None	None	0
1.7	2015_Jul_28_1402	s	s	15	2	SIC	57	RC	2	2	23VD	1	0	0.535619974136	45.0	14.0	47	9	1
1.7	2015_Jul_28_1402	s	s	15	2	SIC	58	ABS	0	2	24RD	0	1	0.818221092224	None	None	None	None	1
1.7	2015_Jul_28_1402	s	s	15	2	SIC	59	RC	1	2	23MD	1	0	0.646758794785	246.0	-387.0	248	-398	1
1.7	2015_Jul_28_1402	s	s	15	2	SIC	60	RC	2	1	23VO	1	0	0.929264068604	-421.0	311.0	-427	303	1
1.7	2015_Jul_28_1402	s	s	15	2	SIC	61	ABS	0	1	24RO	0	1	8.53981995583	None	None	None	None	1
1.7	2015_Jul_28_1402	s	s	15	2	SIC	62	RC	2	0	23VC	1	0	0.552752017975	-91.0	-402.0	-91	-405	1
1.7	2015_Jul_28_1402	s	s	15	2	SIC	63	ABS	1	0	24MC	0	1	2.7301659584	None	None	None	None	1
1.7	2015_Jul_28_1402	s	s	15	2	SIC	64	ABS	1	1	24MO	0	1	1.42355394363	None	None	None	None	1
1.7	2015_Jul_28_1402	s	s	15	2	SIC	65	RC	0	2	23RD	1	0	1.14109897614	527.0	381.0	531	370	1
1.7	2015_Jul_28_1402	s	s	15	2	SIC	66	RC	1	2	23MD	1	0	0.999917984009	512.0	158.0	506	149	1
1.7	2015_Jul_28_1402	s	s	15	2	SIC	67	ABS	2	1	24VO	0	1	0.902260065079	None	None	None	None	1
1.7	2015_Jul_28_1402	s	s	15	2	SIC	68	RC	2	0	23VC	1	0	0.597301006317	-249.0	-217.0	-257	-218	1
1.7	2015_Jul_28_1402	s	s	15	2	SIC	69	RC	2	1	23VO	1	0	0.552690029144	153.0	-305.0	153	-299	1
1.7	2015_Jul_28_1402	s	s	15	2	SIC	70	RC	2	2	23VD	1	0	0.446430921555	-113.0	-188.0	-107	-195	1
1.7	2015_Jul_28_1402	s	s	15	2	SIC	71	ABS	1	1	24MO	0	1	9.42231297493	None	None	None	None	1
1.7	2015_Jul_28_1402	s	s	15	2	SIC	72	ABS	1	0	24MC	0	1	1.95700907707	None	None	None	None	1
1.7	2015_Jul_28_1402	s	s	15	2	SIC	73	RC	1	0	23MC	1	0	0.658524990082	-59.0	-77.0	-48	-77	1
1.7	2015_Jul_28_1402	s	s	15	2	SIC	74	RC	1	1	23MO	1	0	1.19994592667	-488.0	170.0	-481	168	1
1.7	2015_Jul_28_1402	s	s	15	2	SIC	75	ABS	2	2	24VD	0	1	0.522659063339	None	None	None	None	1
1.7	2015_Jul_28_1402	s	s	15	2	SIC	76	ABS	0	1	24RO	0	1	6.71547484398	None	None	None	None	1
1.7	2015_Jul_28_1402	s	s	15	2	SIC	77	ABS	1	2	24MD	0	1	1.21882987022	None	None	None	None	1
1.7	2015_Jul_28_1402	s	s	15	2	SIC	78	ABS	0	2	24RD	0	1	0.623188972473	None	None	None	None	1
1.7	2015_Jul_28_1402	s	s	15	2	SIC	79	RC	0	1	23RO	1	0	1.14112591743	83.0	-59.0	92	-54	1
1.7	2015_Jul_28_1402	s	s	15	2	SIC	80	ABS	2	0	24VC	0	1	4.40151500702	None	None	None	None	1
1.7	2015_Jul_28_1402	s	s	15	2	SIC	81	RC	0	2	23RD	1	0	0.691169023514	327.0	-137.0	326	-139	1
1.7	2015_Jul_28_1402	s	s	15	2	SIC	82	ABS	0	1	24RO	0	1	6.24429106712	None	None	None	None	1
1.7	2015_Jul_28_1402	s	s	15	2	SIC	83	ABS	1	0	24MC	0	1	4.00987005234	None	None	None	None	1
1.7	2015_Jul_28_1402	s	s	15	2	SIC	84	ABS	1	1	24MO	0	1	2.86779284477	None	None	None	None	1
1.7	2015_Jul_28_1402	s	s	15	2	SIC	85	ABS	1	2	24MD	0	1	1.23226308823	None	None	None	None	1
1.7	2015_Jul_28_1402	s	s	15	2	SIC	86	ABS	2	0	24VC	0	1	1.15278911591	None	None	None	None	1
1.7	2015_Jul_28_1402	s	s	15	2	SIC	87	RC	0	1	23RO	1	0	1.11264514923	-178.0	-69.0	-183	-73	1
1.7	2015_Jul_28_1402	s	s	15	2	SIC	88	RC	1	0	23MC	1	0	1.87776899338	-223.0	320.0	-221	316	1
1.7	2015_Jul_28_1402	s	s	15	2	SIC	89	RC	1	1	23MO	1	0	1.99542808533	-401.0	357.0	-398	355	1
1.7	2015_Jul_28_1402	s	s	15	2	SIC	90	RC	2	1	23VO	1	0	1.04012084007	-37.0	177.0	-37	174	1
1.7	2015_Jul_28_1402	s	s	15	2	SIC	91	ABS	0	2	24RD	0	1	6.15545392036	None	None	None	None	1
1.7	2015_Jul_28_1402	s	s	15	2	SIC	92	RC	2	2	23VD	1	0	0.682041883469	398.0	110.0	400	104	1
1.7	2015_Jul_28_1402	s	s	15	2	SIC	93	ABS	2	1	24VO	0	1	0.876302957535	None	None	None	None	1
1.7	2015_Jul_28_1402	s	s	15	2	SIC	94	RC	2	0	23VC	1	0	2.71522784233	42.0	93.0	42	80	1
1.7	2015_Jul_28_1402	s	s	15	2	SIC	95	RC	1	2	23MD	1	0	0.55912399292	28.0	-300.0	31	-295	1
1.7	2015_Jul_28_1402	s	s	15	2	SIC	96	ABS	2	2	24VD	0	1	0.690942049026	None	None	None	None	1
1.7	2015_Jul_28_1402	s	s	15	2	SIC	97	RC	2	2	23VD	1	0	0.517724990845	-110.0	-344.0	-120	-337	1
1.7	2015_Jul_28_1402	s	s	15	2	SIC	98	RC	2	0	23VC	1	0	0.534968137741	-453.0	112.0	-459	108	1
1.7	2015_Jul_28_1402	s	s	15	2	SIC	99	ABS	0	1	24RO	0	1	5.29052877426	None	None	None	None	1
1.7	2015_Jul_28_1402	s	s	15	2	SIC	100	RC	0	2	23RD	1	0	0.582381010056	4.0	-250.0	2	-252	1
1.7	2015_Jul_28_1402	s	s	15	2	SIC	101	RC	1	0	23MC	1	0	4.43359303474	246.0	336.0	252	345	1
1.7	2015_Jul_28_1402	s	s	15	2	SIC	102	ABS	2	0	24VC	0	1	0.717269182205	None	None	None	None	1
1.7	2015_Jul_28_1402	s	s	15	2	SIC	103	ABS	1	1	24MO	0	1	2.78091311455	None	None	None	None	1
1.7	2015_Jul_28_1402	s	s	15	2	SIC	104	ABS	2	2	24VD	0	1	0.606649875641	None	None	None	None	1
1.7	2015_Jul_28_1402	s	s	15	2	SIC	105	ABS	1	0	24MC	0	1	10.9785909653	None	None	None	None	1
1.7	2015_Jul_28_1402	s	s	15	2	SIC	106	RC	1	1	23MO	1	0	1.03013300896	-191.0	295.0	-200	292	1
1.7	2015_Jul_28_1402	s	s	15	2	SIC	107	ABS	0	2	24RD	0	1	3.89163398743	None	None	None	None	1
1.7	2015_Jul_28_1402	s	s	15	2	SIC	108	RC	0	1	23RO	1	0	1.25384521484	-333.0	-11.0	-336	-17	1
1.7	2015_Jul_28_1402	s	s	15	2	SIC	109	RC	2	1	23VO	0	1	0.694029092789	-220.0	9.0	None	None	0
1.7	2015_Jul_28_1402	s	s	15	2	SIC	110	RC	1	2	23MD	1	0	0.91176199913	312.0	-294.0	319	-299	1
1.7	2015_Jul_28_1402	s	s	15	2	SIC	111	ABS	1	2	24MD	0	1	1.95987510681	None	None	None	None	1
1.7	2015_Jul_28_1402	s	s	15	2	SIC	112	ABS	2	1	24VO	0	1	0.846830129623	None	None	None	None	1
1.7	2015_Jul_28_1402	s	s	15	2	SIC	113	RC	1	2	23MD	1	0	0.905704975128	71.0	347.0	74	339	1
1.7	2015_Jul_28_1402	s	s	15	2	SIC	114	ABS	2	0	24VC	0	1	0.67728805542	None	None	None	None	1
1.7	2015_Jul_28_1402	s	s	15	2	SIC	115	ABS	1	0	24MC	0	1	4.0663330555	None	None	None	None	1
1.7	2015_Jul_28_1402	s	s	15	2	SIC	116	RC	0	1	23RO	0	1	2.91411089897	-390.0	-147.0	None	None	0
1.7	2015_Jul_28_1402	s	s	15	2	SIC	117	ABS	1	2	24MD	0	1	0.870497941971	None	None	None	None	1
1.7	2015_Jul_28_1402	s	s	15	2	SIC	118	ABS	0	2	24RD	0	1	0.677040100098	None	None	None	None	1
1.7	2015_Jul_28_1402	s	s	15	2	SIC	119	RC	1	0	23MC	1	0	1.73694396019	-22.0	258.0	-16	267	1
1.7	2015_Jul_28_1402	s	s	15	2	SIC	120	ABS	2	2	24VD	0	1	0.559139966965	None	None	None	None	1
1.7	2015_Jul_28_1402	s	s	15	2	SIC	121	RC	1	1	23MO	1	0	1.24702620506	107.0	262.0	110	258	1
1.7	2015_Jul_28_1402	s	s	15	2	SIC	122	ABS	2	1	24VO	0	1	1.20920205116	None	None	None	None	1
1.7	2015_Jul_28_1402	s	s	15	2	SIC	123	RC	0	2	23RD	1	0	0.599714994431	-28.0	-115.0	-32	-119	1
1.7	2015_Jul_28_1402	s	s	15	2	SIC	124	RC	2	1	23VO	1	0	0.50248003006	-256.0	-410.0	-255	-406	1
1.7	2015_Jul_28_1402	s	s	15	2	SIC	125	ABS	0	1	24RO	0	1	6.66835188866	None	None	None	None	1
1.7	2015_Jul_28_1402	s	s	15	2	SIC	126	RC	2	0	23VC	1	0	0.587847948074	230.0	-354.0	232	-351	1
1.7	2015_Jul_28_1402	s	s	15	2	SIC	127	RC	2	2	23VD	1	0	0.481987953186	-132.0	-408.0	-122	-409	1
1.7	2015_Jul_28_1402	s	s	15	2	SIC	128	ABS	1	1	24MO	0	1	2.54181408882	None	None	None	None	1
1.7	2015_Jul_28_1402	s	s	15	2	SIC	129	ABS	2	1	24VO	0	1	1.23033809662	None	None	None	None	1
1.7	2015_Jul_28_1402	s	s	15	2	SIC	130	RC	1	2	23MD	1	0	0.950105905533	-209.0	79.0	-208	80	1
1.7	2015_Jul_28_1402	s	s	15	2	SIC	131	ABS	1	1	24MO	0	1	2.46476101875	None	None	None	None	1
1.7	2015_Jul_28_1402	s	s	15	2	SIC	132	ABS	2	0	24VC	0	1	0.936041116714	None	None	None	None	1
1.7	2015_Jul_28_1402	s	s	15	2	SIC	133	ABS	0	1	24RO	0	1	11.9464840889	None	None	None	None	1
1.7	2015_Jul_28_1402	s	s	15	2	SIC	134	RC	2	0	23VC	1	0	0.654616832733	-244.0	-379.0	-238	-383	1
1.7	2015_Jul_28_1402	s	s	15	2	SIC	135	ABS	1	0	24MC	0	1	2.14885807037	None	None	None	None	1
1.7	2015_Jul_28_1402	s	s	15	2	SIC	136	RC	1	0	23MC	1	0	0.846834897995	-417.0	-84.0	-410	-85	1
1.7	2015_Jul_28_1402	s	s	15	2	SIC	137	RC	0	1	23RO	1	0	1.66782188416	-190.0	-79.0	-184	-74	1
1.7	2015_Jul_28_1402	s	s	15	2	SIC	138	RC	0	2	23RD	1	0	1.1360771656	482.0	-61.0	482	-62	1
1.7	2015_Jul_28_1402	s	s	15	2	SIC	139	ABS	0	2	24RD	0	1	0.732815980911	None	None	None	None	1
1.7	2015_Jul_28_1402	s	s	15	2	SIC	140	RC	2	2	23VD	1	0	0.850485801697	170.0	82.0	168	78	1
1.7	2015_Jul_28_1402	s	s	15	2	SIC	141	RC	2	1	23VO	1	0	0.552606105804	240.0	177.0	243	179	1
1.7	2015_Jul_28_1402	s	s	15	2	SIC	142	ABS	2	2	24VD	0	1	0.583431005478	None	None	None	None	1
1.7	2015_Jul_28_1402	s	s	15	2	SIC	143	ABS	1	2	24MD	0	1	0.594395875931	None	None	None	None	1
1.7	2015_Jul_28_1402	s	s	15	2	SIC	144	RC	1	1	23MO	1	0	2.07096815109	156.0	-214.0	160	-215	1
1.7	2015_Jul_28_1402	s	s	15	2	SIC	145	ABS	0	2	24RD	0	1	0.582636833191	None	None	None	None	1
1.7	2015_Jul_28_1402	s	s	15	2	SIC	146	RC	2	2	23VD	1	0	0.917515993118	-185.0	-101.0	-185	-103	1
1.7	2015_Jul_28_1402	s	s	15	2	SIC	147	RC	1	2	23MD	1	0	0.505517959595	220.0	-216.0	229	-216	1
1.7	2015_Jul_28_1402	s	s	15	2	SIC	148	RC	2	1	23VO	1	0	0.682065963745	-117.0	-308.0	-119	-311	1
1.7	2015_Jul_28_1402	s	s	15	2	SIC	149	RC	1	1	23MO	1	0	1.70294094086	-521.0	279.0	-515	278	1
1.7	2015_Jul_28_1402	s	s	15	2	SIC	150	ABS	1	1	24MO	0	1	3.64819812775	None	None	None	None	1
1.7	2015_Jul_28_1402	s	s	15	2	SIC	151	ABS	1	2	24MD	0	1	0.646679162979	None	None	None	None	1
1.7	2015_Jul_28_1402	s	s	15	2	SIC	152	ABS	0	1	24RO	0	1	7.04502081871	None	None	None	None	1
1.7	2015_Jul_28_1402	s	s	15	2	SIC	153	RC	0	2	23RD	1	0	0.870317935944	374.0	85.0	373	82	1
1.7	2015_Jul_28_1402	s	s	15	2	SIC	154	ABS	2	1	24VO	0	1	0.552940130234	None	None	None	None	1
1.7	2015_Jul_28_1402	s	s	15	2	SIC	155	RC	0	1	23RO	1	0	0.92410993576	-36.0	4.0	-34	-2	1
1.7	2015_Jul_28_1402	s	s	15	2	SIC	156	ABS	1	0	24MC	0	1	4.70269393921	None	None	None	None	1
1.7	2015_Jul_28_1402	s	s	15	2	SIC	157	ABS	2	0	24VC	0	1	0.740935087204	None	None	None	None	1
1.7	2015_Jul_28_1402	s	s	15	2	SIC	158	RC	1	0	23MC	1	0	4.73107385635	257.0	-176.0	258	-180	1
1.7	2015_Jul_28_1402	s	s	15	2	SIC	159	ABS	2	2	24VD	0	1	0.794646978378	None	None	None	None	1
1.7	2015_Jul_28_1402	s	s	15	2	SIC	160	RC	2	0	23VC	1	0	2.34168410301	-154.0	364.0	-148	366	1
1.7	2015_Jul_28_1402	s	s	15	2	SIC	161	RC	1	1	23MO	0	1	0.843234062195	416.0	-205.0	None	None	0
1.7	2015_Jul_28_1402	s	s	15	2	SIC	162	ABS	2	0	24VC	0	1	0.971329927444	None	None	None	None	1
1.7	2015_Jul_28_1402	s	s	15	2	SIC	163	ABS	0	2	24RD	0	1	0.5736348629	None	None	None	None	1
1.7	2015_Jul_28_1402	s	s	15	2	SIC	164	ABS	2	1	24VO	0	1	0.700210094452	None	None	None	None	1
1.7	2015_Jul_28_1402	s	s	15	2	SIC	165	ABS	1	0	24MC	0	1	3.47789502144	None	None	None	None	1
1.7	2015_Jul_28_1402	s	s	15	2	SIC	166	ABS	2	2	24VD	0	1	0.617765903473	None	None	None	None	1
1.7	2015_Jul_28_1402	s	s	15	2	SIC	167	ABS	0	1	24RO	0	1	6.82011413574	None	None	None	None	1
1.7	2015_Jul_28_1402	s	s	15	2	SIC	168	ABS	1	1	24MO	0	1	10.6820590496	None	None	None	None	1
1.7	2015_Jul_28_1402	s	s	15	2	SIC	169	ABS	1	2	24MD	0	1	0.811573982239	None	None	None	None	1
1.7	2015_Jul_28_1402	s	s	15	2	SIC	170	RC	2	0	23VC	1	0	0.712166070938	279.0	58.0	276	52	1
1.7	2015_Jul_28_1402	s	s	15	2	SIC	171	RC	1	0	23MC	1	0	0.794187068939	-353.0	-94.0	-356	-97	1
1.7	2015_Jul_28_1402	s	s	15	2	SIC	172	RC	1	2	23MD	1	0	0.564376115799	328.0	-61.0	317	-57	1
1.7	2015_Jul_28_1402	s	s	15	2	SIC	173	RC	2	1	23VO	1	0	0.500339984894	537.0	212.0	546	215	1
1.7	2015_Jul_28_1402	s	s	15	2	SIC	174	RC	0	1	23RO	1	0	2.0674829483	488.0	-181.0	496	-179	1
1.7	2015_Jul_28_1402	s	s	15	2	SIC	175	RC	2	2	23VD	1	0	0.458386898041	23.0	276.0	13	275	1
1.7	2015_Jul_28_1402	s	s	15	2	SIC	176	RC	0	2	23RD	1	0	0.682109117508	-195.0	159.0	-193	153	1
1.7	2015_Jul_28_1402	s	s	15	2	SIC	177	ABS	1	2	24MD	0	1	0.805673837662	None	None	None	None	1
1.7	2015_Jul_28_1402	s	s	15	2	SIC	178	RC	0	2	23RD	1	0	0.58787894249	362.0	-30.0	357	-30	1
1.7	2015_Jul_28_1402	s	s	15	2	SIC	179	RC	0	1	23RO	1	0	3.21266198158	-111.0	390.0	-106	387	1
1.7	2015_Jul_28_1402	s	s	15	2	SIC	180	RC	1	0	23MC	1	0	1.25901198387	-87.0	-215.0	-84	-215	1
1.7	2015_Jul_28_1402	s	s	15	2	SIC	181	RC	2	1	23VO	1	0	0.514352798462	393.0	-235.0	391	-240	1
1.7	2015_Jul_28_1402	s	s	15	2	SIC	182	RC	2	0	23VC	1	0	0.514714956284	528.0	-394.0	528	-389	1
1.7	2015_Jul_28_1402	s	s	15	2	SIC	183	ABS	2	1	24VO	0	1	0.6740899086	None	None	None	None	1
1.7	2015_Jul_28_1402	s	s	15	2	SIC	184	ABS	2	0	24VC	0	1	0.654692173004	None	None	None	None	1
1.7	2015_Jul_28_1402	s	s	15	2	SIC	185	RC	1	1	23MO	0	1	1.91230988503	519.0	-407.0	None	None	0
1.7	2015_Jul_28_1402	s	s	15	2	SIC	186	RC	1	2	23MD	1	0	0.759631156921	243.0	-193.0	248	-192	1
1.7	2015_Jul_28_1402	s	s	15	2	SIC	187	RC	2	2	23VD	1	0	0.576092004776	131.0	-231.0	135	-227	1
1.7	2015_Jul_28_1402	s	s	15	2	SIC	188	ABS	1	1	24MO	0	1	2.9860599041	None	None	None	None	1
1.7	2015_Jul_28_1402	s	s	15	2	SIC	189	ABS	0	1	24RO	0	1	15.5011739731	None	None	None	None	1
1.7	2015_Jul_28_1402	s	s	15	2	SIC	190	ABS	1	0	24MC	0	1	2.16517686844	None	None	None	None	1
1.7	2015_Jul_28_1402	s	s	15	2	SIC	191	ABS	0	2	24RD	0	1	0.724138021469	None	None	None	None	1
1.7	2015_Jul_28_1402	s	s	15	2	SIC	192	ABS	2	2	24VD	0	1	0.752635002136	None	None	None	None	1
1.7	2015_Jul_28_1402	s	s	15	2	SIC	193	RC	0	2	23RD	1	0	0.922523975372	271.0	-351.0	267	-351	1
1.7	2015_Jul_28_1402	s	s	15	2	SIC	194	RC	1	0	23MC	1	0	1.86727595329	221.0	-197.0	228	-188	1
1.7	2015_Jul_28_1402	s	s	15	2	SIC	195	ABS	0	2	24RD	0	1	0.787857055664	None	None	None	None	1
1.7	2015_Jul_28_1402	s	s	15	2	SIC	196	ABS	1	0	24MC	0	1	3.28317809105	None	None	None	None	1
1.7	2015_Jul_28_1402	s	s	15	2	SIC	197	RC	2	1	23VO	1	0	0.670298099518	258.0	-235.0	261	-238	1
1.7	2015_Jul_28_1402	s	s	15	2	SIC	198	RC	2	0	23VC	1	0	0.56179189682	-429.0	-388.0	-429	-389	1
1.7	2015_Jul_28_1402	s	s	15	2	SIC	199	RC	2	2	23VD	1	0	0.559323072433	69.0	400.0	69	395	1
1.7	2015_Jul_28_1402	s	s	15	2	SIC	200	ABS	2	2	24VD	0	1	0.634812116623	None	None	None	None	1
1.7	2015_Jul_28_1402	s	s	15	2	SIC	201	ABS	0	1	24RO	0	1	7.68071889877	None	None	None	None	1
1.7	2015_Jul_28_1402	s	s	15	2	SIC	202	RC	0	1	23RO	0	1	7.17946100235	421.0	152.0	None	None	0
1.7	2015_Jul_28_1402	s	s	15	2	SIC	203	RC	1	1	23MO	1	0	1.5009059906	-148.0	-348.0	-142	-351	1
1.7	2015_Jul_28_1402	s	s	15	2	SIC	204	ABS	2	1	24VO	0	1	0.729155063629	None	None	None	None	1
1.7	2015_Jul_28_1402	s	s	15	2	SIC	205	ABS	1	2	24MD	0	1	0.797078132629	None	None	None	None	1
1.7	2015_Jul_28_1402	s	s	15	2	SIC	206	ABS	1	1	24MO	0	1	5.06440782547	None	None	None	None	1
1.7	2015_Jul_28_1402	s	s	15	2	SIC	207	RC	1	2	23MD	1	0	0.874072790146	-151.0	343.0	-147	340	1
1.7	2015_Jul_28_1402	s	s	15	2	SIC	208	ABS	2	0	24VC	0	1	0.631298065186	None	None	None	None	1
1.7	2015_Jul_28_1402	s	s	15	2	SIC	209	ABS	1	2	24MD	0	1	1.27740001678	None	None	None	None	1
1.7	2015_Jul_28_1402	s	s	15	2	SIC	210	RC	1	1	23MO	1	0	1.17137694359	-495.0	261.0	-495	259	1
1.7	2015_Jul_28_1402	s	s	15	2	SIC	211	ABS	2	2	24VD	0	1	0.670281887054	None	None	None	None	1
1.7	2015_Jul_28_1402	s	s	15	2	SIC	212	RC	1	2	23MD	1	0	0.623264074326	-414.0	82.0	-414	74	1
1.7	2015_Jul_28_1402	s	s	15	2	SIC	213	RC	2	0	23VC	1	0	0.572234869003	-214.0	-180.0	-206	-179	1
1.7	2015_Jul_28_1402	s	s	15	2	SIC	214	ABS	2	0	24VC	0	1	0.656076908112	None	None	None	None	1
1.7	2015_Jul_28_1402	s	s	15	2	SIC	215	RC	0	2	23RD	1	0	0.529012203217	186.0	-58.0	195	-52	1
1.7	2015_Jul_28_1402	s	s	15	2	SIC	216	RC	1	0	23MC	0	1	0.98295211792	107.0	89.0	None	None	0
1.7	2015_Jul_28_1402	s	s	15	2	SIC	217	ABS	0	2	24RD	0	1	1.26564908028	None	None	None	None	1
1.7	2015_Jul_28_1402	s	s	15	2	SIC	218	RC	0	1	23RO	1	0	1.94152498245	-27.0	-260.0	-22	-258	1
1.7	2015_Jul_28_1402	s	s	15	2	SIC	219	ABS	0	1	24RO	0	1	3.52564001083	None	None	None	None	1
1.7	2015_Jul_28_1402	s	s	15	2	SIC	220	RC	2	1	23VO	1	0	0.670309066772	178.0	402.0	174	402	1
1.7	2015_Jul_28_1402	s	s	15	2	SIC	221	ABS	1	0	24MC	1	0	1.37016415596	None	None	-10	8	0
1.7	2015_Jul_28_1402	s	s	15	2	SIC	222	ABS	1	1	24MO	0	1	2.83048892021	None	None	None	None	1
1.7	2015_Jul_28_1402	s	s	15	2	SIC	223	RC	2	2	23VD	1	0	0.776252031326	-144.0	-107.0	-148	-103	1
1.7	2015_Jul_28_1402	s	s	15	2	SIC	224	ABS	2	1	24VO	0	1	1.14795422554	None	None	None	None	1
1.7	2015_Jul_28_1402	s	s	15	2	SIC	225	RC	2	0	23VC	1	0	0.623227119446	10.0	-75.0	19	-76	1
1.7	2015_Jul_28_1402	s	s	15	2	SIC	226	RC	0	2	23RD	1	0	1.16510605812	396.0	95.0	404	94	1
1.7	2015_Jul_28_1402	s	s	15	2	SIC	227	ABS	1	1	24MO	0	1	5.37285280228	None	None	None	None	1
1.7	2015_Jul_28_1402	s	s	15	2	SIC	228	ABS	2	0	24VC	0	1	1.08890604973	None	None	None	None	1
1.7	2015_Jul_28_1402	s	s	15	2	SIC	229	RC	1	2	23MD	1	0	0.726300954819	-121.0	40.0	-116	30	1
1.7	2015_Jul_28_1402	s	s	15	2	SIC	230	ABS	0	2	24RD	0	1	2.52734208107	None	None	None	None	1
1.7	2015_Jul_28_1402	s	s	15	2	SIC	231	ABS	1	0	24MC	0	1	3.11854195595	None	None	None	None	1
1.7	2015_Jul_28_1402	s	s	15	2	SIC	232	RC	2	1	23VO	1	0	0.599635124207	-363.0	-280.0	-355	-275	1
1.7	2015_Jul_28_1402	s	s	15	2	SIC	233	RC	0	1	23RO	1	0	2.23569893837	305.0	-95.0	308	-92	1
1.7	2015_Jul_28_1402	s	s	15	2	SIC	234	RC	2	2	23VD	1	0	0.517245054245	-419.0	-267.0	-421	-271	1
1.7	2015_Jul_28_1402	s	s	15	2	SIC	235	ABS	2	2	24VD	0	1	0.605654001236	None	None	None	None	1
1.7	2015_Jul_28_1402	s	s	15	2	SIC	236	RC	1	0	23MC	1	0	1.32945585251	37.0	65.0	52	71	1
1.7	2015_Jul_28_1402	s	s	15	2	SIC	237	ABS	1	2	24MD	0	1	0.540848016739	None	None	None	None	1
1.7	2015_Jul_28_1402	s	s	15	2	SIC	238	ABS	2	1	24VO	0	1	1.82381606102	None	None	None	None	1
1.7	2015_Jul_28_1402	s	s	15	2	SIC	239	ABS	0	1	24RO	0	1	4.85797691345	None	None	None	None	1
1.7	2015_Jul_28_1402	s	s	15	2	SIC	240	RC	1	1	23MO	1	0	0.830209970474	162.0	-90.0	161	-85	1
1.7	2015_Jul_28_1402	s	s	15	2	SIC	241	ABS	0	1	24RO	0	1	2.96549987793	None	None	None	None	1
1.7	2015_Jul_28_1402	s	s	15	2	SIC	242	RC	1	0	23MC	1	0	4.41337609291	208.0	294.0	214	298	1
1.7	2015_Jul_28_1402	s	s	15	2	SIC	243	ABS	2	1	24VO	0	1	1.0302438736	None	None	None	None	1
1.7	2015_Jul_28_1402	s	s	15	2	SIC	244	ABS	1	1	24MO	0	1	3.243486166	None	None	None	None	1
1.7	2015_Jul_28_1402	s	s	15	2	SIC	245	ABS	2	0	24VC	0	1	1.06722903252	None	None	None	None	1
1.7	2015_Jul_28_1402	s	s	15	2	SIC	246	RC	0	2	23RD	1	0	0.81787610054	-421.0	313.0	-422	305	1
1.7	2015_Jul_28_1402	s	s	15	2	SIC	247	ABS	2	2	24VD	0	1	0.59709405899	None	None	None	None	1
1.7	2015_Jul_28_1402	s	s	15	2	SIC	248	ABS	1	0	24MC	0	1	2.28294086456	None	None	None	None	1
1.7	2015_Jul_28_1402	s	s	15	2	SIC	249	RC	2	2	23VD	1	0	0.693862199783	-344.0	128.0	-345	124	1
1.7	2015_Jul_28_1402	s	s	15	2	SIC	250	ABS	0	2	24RD	0	1	0.678364992142	None	None	None	None	1
1.7	2015_Jul_28_1402	s	s	15	2	SIC	251	RC	0	1	23RO	0	1	3.25981092453	407.0	-75.0	None	None	0
1.7	2015_Jul_28_1402	s	s	15	2	SIC	252	ABS	1	2	24MD	0	1	0.717387914658	None	None	None	None	1
1.7	2015_Jul_28_1402	s	s	15	2	SIC	253	RC	2	1	23VO	1	0	0.705624818802	377.0	-288.0	380	-293	1
1.7	2015_Jul_28_1402	s	s	15	2	SIC	254	RC	1	2	23MD	1	0	0.587933778763	-416.0	-11.0	-411	-9	1
1.7	2015_Jul_28_1402	s	s	15	2	SIC	255	RC	1	1	23MO	1	0	0.632291078568	157.0	74.0	158	72	1
1.7	2015_Jul_28_1402	s	s	15	2	SIC	256	RC	2	0	23VC	1	0	0.465193986893	-312.0	19.0	-313	13	1
1.7	2015_Jul_28_1402	s	s	15	2	SIC	257	ABS	1	2	24MD	0	1	1.25378799438	None	None	None	None	1
1.7	2015_Jul_28_1402	s	s	15	2	SIC	258	RC	0	1	23RO	1	0	2.32491803169	431.0	-179.0	435	-175	1
1.7	2015_Jul_28_1402	s	s	15	2	SIC	259	RC	2	2	23VD	1	0	0.512321949005	404.0	-188.0	412	-187	1
1.7	2015_Jul_28_1402	s	s	15	2	SIC	260	ABS	1	0	24MC	0	1	3.80788302422	None	None	None	None	1
1.7	2015_Jul_28_1402	s	s	15	2	SIC	261	ABS	0	2	24RD	0	1	2.19236588478	None	None	None	None	1
1.7	2015_Jul_28_1402	s	s	15	2	SIC	262	RC	0	2	23RD	1	0	0.665259122849	-141.0	100.0	-143	104	1
1.7	2015_Jul_28_1402	s	s	15	2	SIC	263	RC	2	0	23VC	1	0	0.588256835938	-80.0	344.0	-76	344	1
1.7	2015_Jul_28_1402	s	s	15	2	SIC	264	ABS	0	1	24RO	0	1	2.84464097023	None	None	None	None	1
1.7	2015_Jul_28_1402	s	s	15	2	SIC	265	ABS	2	2	24VD	0	1	0.653140068054	None	None	None	None	1
1.7	2015_Jul_28_1402	s	s	15	2	SIC	266	RC	1	0	23MC	0	1	1.36477804184	472.0	-196.0	None	None	0
1.7	2015_Jul_28_1402	s	s	15	2	SIC	267	ABS	2	1	24VO	0	1	0.584020137787	None	None	None	None	1
1.7	2015_Jul_28_1402	s	s	15	2	SIC	268	RC	1	1	23MO	1	0	2.56534099579	388.0	376.0	393	374	1
1.7	2015_Jul_28_1402	s	s	15	2	SIC	269	ABS	1	1	24MO	0	1	1.17640399933	None	None	None	None	1
1.7	2015_Jul_28_1402	s	s	15	2	SIC	270	RC	1	2	23MD	1	0	0.988143920898	110.0	310.0	117	310	1
1.7	2015_Jul_28_1402	s	s	15	2	SIC	271	RC	2	1	23VO	1	0	0.723364114761	-176.0	307.0	-166	305	1
1.7	2015_Jul_28_1402	s	s	15	2	SIC	272	ABS	2	0	24VC	0	1	0.724031209946	None	None	None	None	1
1.7	2015_Jul_28_1402	s	s	15	2	SIC	273	RC	2	0	23VC	1	0	0.618268966675	-276.0	312.0	-277	307	1
1.7	2015_Jul_28_1402	s	s	15	2	SIC	274	ABS	1	2	24MD	0	1	0.69747710228	None	None	None	None	1
1.7	2015_Jul_28_1402	s	s	15	2	SIC	275	ABS	2	0	24VC	0	1	2.8125770092	None	None	None	None	1
1.7	2015_Jul_28_1402	s	s	15	2	SIC	276	RC	1	0	23MC	0	1	5.80845880508	413.0	43.0	None	None	0
1.7	2015_Jul_28_1402	s	s	15	2	SIC	277	ABS	0	1	24RO	0	1	3.90758514404	None	None	None	None	1
1.7	2015_Jul_28_1402	s	s	15	2	SIC	278	ABS	0	2	24RD	0	1	0.658489942551	None	None	None	None	1
1.7	2015_Jul_28_1402	s	s	15	2	SIC	279	ABS	1	0	24MC	0	1	1.57155895233	None	None	None	None	1
1.7	2015_Jul_28_1402	s	s	15	2	SIC	280	RC	2	1	23VO	1	0	0.693731069565	-74.0	-405.0	-66	-404	1
1.7	2015_Jul_28_1402	s	s	15	2	SIC	281	RC	1	2	23MD	1	0	0.658559083939	473.0	126.0	463	125	1
1.7	2015_Jul_28_1402	s	s	15	2	SIC	282	ABS	2	2	24VD	0	1	0.556260108948	None	None	None	None	1
1.7	2015_Jul_28_1402	s	s	15	2	SIC	283	ABS	1	1	24MO	0	1	4.91981387138	None	None	None	None	1
1.7	2015_Jul_28_1402	s	s	15	2	SIC	284	RC	0	1	23RO	0	1	3.10675311089	-307.0	365.0	None	None	0
1.7	2015_Jul_28_1402	s	s	15	2	SIC	285	RC	2	2	23VD	1	0	0.606401205063	97.0	-85.0	105	-79	1
1.7	2015_Jul_28_1402	s	s	15	2	SIC	286	RC	1	1	23MO	1	0	0.740910053253	59.0	-44.0	50	-35	1
1.7	2015_Jul_28_1402	s	s	15	2	SIC	287	ABS	2	1	24VO	0	1	0.611457824707	None	None	None	None	1
1.7	2015_Jul_28_1402	s	s	15	2	SIC	288	RC	0	2	23RD	1	0	0.611883878708	96.0	-37.0	86	-38	1
1.7	2015_Jul_28_1402	s	s	15	2	SIC	289	RC	1	1	23MO	1	0	1.01822781563	183.0	-18.0	182	-13	1
1.7	2015_Jul_28_1402	s	s	15	2	SIC	290	RC	0	1	23RO	1	0	1.87859797478	294.0	82.0	295	79	1
1.7	2015_Jul_28_1402	s	s	15	2	SIC	291	ABS	2	0	24VC	0	1	1.26239609718	None	None	None	None	1
1.7	2015_Jul_28_1402	s	s	15	2	SIC	292	ABS	1	1	24MO	0	1	4.82035398483	None	None	None	None	1
1.7	2015_Jul_28_1402	s	s	15	2	SIC	293	ABS	2	1	24VO	0	1	0.665297031403	None	None	None	None	1
1.7	2015_Jul_28_1402	s	s	15	2	SIC	294	RC	1	0	23MC	0	1	1.901460886	389.0	174.0	None	None	0
1.7	2015_Jul_28_1402	s	s	15	2	SIC	295	ABS	2	2	24VD	0	1	0.608232975006	None	None	None	None	1
1.7	2015_Jul_28_1402	s	s	15	2	SIC	296	ABS	0	1	24RO	0	1	3.59604096413	None	None	None	None	1
1.7	2015_Jul_28_1402	s	s	15	2	SIC	297	RC	2	0	23VC	1	0	2.01912403107	-65.0	-371.0	-57	-369	1
1.7	2015_Jul_28_1402	s	s	15	2	SIC	298	ABS	0	2	24RD	0	1	1.05374312401	None	None	None	None	1
1.7	2015_Jul_28_1402	s	s	15	2	SIC	299	RC	1	2	23MD	1	0	0.795517921448	-296.0	-268.0	-288	-270	1
1.7	2015_Jul_28_1402	s	s	15	2	SIC	300	ABS	1	2	24MD	0	1	0.582330942154	None	None	None	None	1
1.7	2015_Jul_28_1402	s	s	15	2	SIC	301	RC	0	2	23RD	1	0	0.772022008896	521.0	-222.0	522	-220	1
1.7	2015_Jul_28_1402	s	s	15	2	SIC	302	RC	2	2	23VD	1	0	0.540775060654	23.0	281.0	25	281	1
1.7	2015_Jul_28_1402	s	s	15	2	SIC	303	ABS	1	0	24MC	0	1	2.77222704887	None	None	None	None	1
1.7	2015_Jul_28_1402	s	s	15	2	SIC	304	RC	2	1	23VO	1	0	0.497442007065	377.0	114.0	376	108	1
1.7	2015_Jul_28_1402	s	s	15	2	SIC	305	ABS	2	2	24VD	0	1	0.631649017334	None	None	None	None	1
1.7	2015_Jul_28_1402	s	s	15	2	SIC	306	RC	1	1	23MO	1	0	0.865536928177	61.0	-292.0	71	-294	1
1.7	2015_Jul_28_1402	s	s	15	2	SIC	307	RC	1	0	23MC	1	0	4.40863704681	422.0	-346.0	424	-355	1
1.7	2015_Jul_28_1402	s	s	15	2	SIC	308	ABS	0	1	24RO	0	1	4.79391098022	None	None	None	None	1
1.7	2015_Jul_28_1402	s	s	15	2	SIC	309	RC	2	2	23VD	1	0	0.517269849777	-415.0	-160.0	-412	-159	1
1.7	2015_Jul_28_1402	s	s	15	2	SIC	310	ABS	1	1	24MO	0	1	2.51349401474	None	None	None	None	1
1.7	2015_Jul_28_1402	s	s	15	2	SIC	311	RC	0	1	23RO	1	0	1.18012309074	313.0	-134.0	307	-141	1
1.7	2015_Jul_28_1402	s	s	15	2	SIC	312	RC	0	2	23RD	1	0	0.748259067535	400.0	-326.0	410	-326	1
1.7	2015_Jul_28_1402	s	s	15	2	SIC	313	ABS	0	2	24RD	0	1	0.818691968918	None	None	None	None	1
1.7	2015_Jul_28_1402	s	s	15	2	SIC	314	RC	2	1	23VO	1	0	0.714755058289	-373.0	189.0	-377	192	1
1.7	2015_Jul_28_1402	s	s	15	2	SIC	315	ABS	2	1	24VO	0	1	0.606554031372	None	None	None	None	1
1.7	2015_Jul_28_1402	s	s	15	2	SIC	316	ABS	2	0	24VC	0	1	0.667729139328	None	None	None	None	1
1.7	2015_Jul_28_1402	s	s	15	2	SIC	317	RC	1	2	23MD	1	0	0.831345081329	-518.0	-293.0	-517	-293	1
1.7	2015_Jul_28_1402	s	s	15	2	SIC	318	ABS	1	0	24MC	0	1	1.54764008522	None	None	None	None	1
1.7	2015_Jul_28_1402	s	s	15	2	SIC	319	RC	2	0	23VC	1	0	0.535704851151	190.0	-367.0	194	-361	1
1.7	2015_Jul_28_1402	s	s	15	2	SIC	320	ABS	1	2	24MD	0	1	0.641736984253	None	None	None	None	1
1.7	2015_Jul_28_1402	s	s	15	2	SIC	321	ABS	1	1	24MO	0	1	2.1945848465	None	None	None	None	1
1.7	2015_Jul_28_1402	s	s	15	2	SIC	322	RC	1	1	23MO	1	0	0.94099187851	-128.0	-269.0	-131	-269	1
1.7	2015_Jul_28_1402	s	s	15	2	SIC	323	RC	0	2	23RD	1	0	0.540768861771	-462.0	-45.0	-460	-47	1
1.7	2015_Jul_28_1402	s	s	15	2	SIC	324	RC	1	2	23MD	1	0	0.512248039246	462.0	166.0	459	167	1
1.7	2015_Jul_28_1402	s	s	15	2	SIC	325	ABS	2	2	24VD	0	1	0.619809150696	None	None	None	None	1
1.7	2015_Jul_28_1402	s	s	15	2	SIC	326	ABS	0	2	24RD	0	1	0.740980148315	None	None	None	None	1
1.7	2015_Jul_28_1402	s	s	15	2	SIC	327	ABS	0	1	24RO	0	1	3.47168898582	None	None	None	None	1
1.7	2015_Jul_28_1402	s	s	15	2	SIC	328	RC	0	1	23RO	0	1	3.7136387825	-419.0	364.0	None	None	0
1.7	2015_Jul_28_1402	s	s	15	2	SIC	329	ABS	2	1	24VO	0	1	0.571542978287	None	None	None	None	1
1.7	2015_Jul_28_1402	s	s	15	2	SIC	330	RC	2	0	23VC	1	0	0.686820030212	155.0	379.0	154	380	1
1.7	2015_Jul_28_1402	s	s	15	2	SIC	331	ABS	2	0	24VC	0	1	0.571031093597	None	None	None	None	1
1.7	2015_Jul_28_1402	s	s	15	2	SIC	332	RC	2	1	23VO	1	0	0.490322113037	-190.0	-363.0	-186	-365	1
1.7	2015_Jul_28_1402	s	s	15	2	SIC	333	RC	2	2	23VD	1	0	0.505473136902	1.0	4.0	12	6	1
1.7	2015_Jul_28_1402	s	s	15	2	SIC	334	RC	1	0	23MC	1	0	3.47168493271	64.0	-276.0	60	-276	1
1.7	2015_Jul_28_1402	s	s	15	2	SIC	335	ABS	1	0	24MC	0	1	2.81242895126	None	None	None	None	1
1.7	2015_Jul_28_1402	s	s	15	2	SIC	336	ABS	1	2	24MD	0	1	0.734970092773	None	None	None	None	1
1.7	2015_Jul_28_1402	s	s	15	2	SIC	337	ABS	2	2	24VD	0	1	0.629665136337	None	None	None	None	1
1.7	2015_Jul_28_1402	s	s	15	2	SIC	338	RC	0	2	23RD	1	0	0.635030031204	451.0	-82.0	450	-82	1
1.7	2015_Jul_28_1402	s	s	15	2	SIC	339	ABS	1	1	24MO	0	1	2.20038414001	None	None	None	None	1
1.7	2015_Jul_28_1402	s	s	15	2	SIC	340	RC	0	1	23RO	1	0	2.9654917717	-13.0	244.0	-13	241	1
1.7	2015_Jul_28_1402	s	s	15	2	SIC	341	RC	1	0	23MC	1	0	1.31479120255	100.0	160.0	97	153	1
1.7	2015_Jul_28_1402	s	s	15	2	SIC	342	ABS	1	2	24MD	0	1	0.773529052734	None	None	None	None	1
1.7	2015_Jul_28_1402	s	s	15	2	SIC	343	ABS	0	1	24RO	0	1	3.47875809669	None	None	None	None	1
1.7	2015_Jul_28_1402	s	s	15	2	SIC	344	RC	2	0	23VC	1	0	0.564392089844	-347.0	4.0	-354	-3	1
1.7	2015_Jul_28_1402	s	s	15	2	SIC	345	RC	1	1	23MO	1	0	2.98910307884	461.0	401.0	462	395	1
1.7	2015_Jul_28_1402	s	s	15	2	SIC	346	ABS	2	0	24VC	0	1	0.549350976944	None	None	None	None	1
1.7	2015_Jul_28_1402	s	s	15	2	SIC	347	ABS	0	2	24RD	0	1	0.700659036636	None	None	None	None	1
1.7	2015_Jul_28_1402	s	s	15	2	SIC	348	RC	2	2	23VD	1	0	0.934823989868	192.0	411.0	203	412	1
1.7	2015_Jul_28_1402	s	s	15	2	SIC	349	RC	2	1	23VO	1	0	0.547483921051	522.0	-361.0	508	-355	1
1.7	2015_Jul_28_1402	s	s	15	2	SIC	350	ABS	1	0	24MC	0	1	1.87775087357	None	None	None	None	1
1.7	2015_Jul_28_1402	s	s	15	2	SIC	351	RC	1	2	23MD	1	0	0.493772029877	228.0	-293.0	235	-287	1
1.7	2015_Jul_28_1402	s	s	15	2	SIC	352	ABS	2	1	24VO	0	1	0.623234033585	None	None	None	None	1
1.7	2015_Jul_28_1402	s	s	15	2	SIC	353	RC	2	1	23VO	1	0	0.944744825363	-313.0	-32.0	-309	-36	1
1.7	2015_Jul_28_1402	s	s	15	2	SIC	354	ABS	2	2	24VD	0	1	0.606584072113	None	None	None	None	1
1.7	2015_Jul_28_1402	s	s	15	2	SIC	355	ABS	2	1	24VO	0	1	0.599700927734	None	None	None	None	1
1.7	2015_Jul_28_1402	s	s	15	2	SIC	356	ABS	0	1	24RO	0	1	5.42063212395	None	None	None	None	1
1.7	2015_Jul_28_1402	s	s	15	2	SIC	357	ABS	2	0	24VC	0	1	0.673985004425	None	None	None	None	1
1.7	2015_Jul_28_1402	s	s	15	2	SIC	358	ABS	1	2	24MD	0	1	1.27060294151	None	None	None	None	1
1.7	2015_Jul_28_1402	s	s	15	2	SIC	359	RC	1	1	23MO	1	0	0.829205989838	129.0	-385.0	123	-384	1
1.7	2015_Jul_28_1402	s	s	15	2	SIC	360	RC	2	2	23VD	1	0	0.535807132721	104.0	-369.0	109	-376	1
1.7	2015_Jul_28_1402	s	s	15	2	SIC	361	ABS	0	2	24RD	0	1	0.59962105751	None	None	None	None	1
1.7	2015_Jul_28_1402	s	s	15	2	SIC	362	RC	0	2	23RD	1	0	0.62687587738	387.0	256.0	389	248	1
1.7	2015_Jul_28_1402	s	s	15	2	SIC	363	ABS	1	1	24MO	0	1	1.54672813416	None	None	None	None	1
1.7	2015_Jul_28_1402	s	s	15	2	SIC	364	RC	2	0	23VC	1	0	0.547734975815	-436.0	368.0	-434	360	1
1.7	2015_Jul_28_1402	s	s	15	2	SIC	365	RC	0	1	23RO	1	0	1.83596491814	-526.0	102.0	-523	98	1
1.7	2015_Jul_28_1402	s	s	15	2	SIC	366	ABS	1	0	24MC	0	1	2.01214599609	None	None	None	None	1
1.7	2015_Jul_28_1402	s	s	15	2	SIC	367	RC	1	2	23MD	1	0	0.540837049484	-422.0	-172.0	-425	-179	1
1.7	2015_Jul_28_1402	s	s	15	2	SIC	368	RC	1	0	23MC	1	0	0.879394054413	-220.0	-275.0	-220	-282	1
1.7	2015_Jul_28_1402	s	s	15	2	SIC	369	ABS	1	0	24MC	0	1	3.24813294411	None	None	None	None	1
1.7	2015_Jul_28_1402	s	s	15	2	SIC	370	ABS	0	1	24RO	0	1	3.81302714348	None	None	None	None	1
1.7	2015_Jul_28_1402	s	s	15	2	SIC	371	ABS	2	1	24VO	0	1	0.582942962646	None	None	None	None	1
1.7	2015_Jul_28_1402	s	s	15	2	SIC	372	ABS	1	2	24MD	0	1	0.56437087059	None	None	None	None	1
1.7	2015_Jul_28_1402	s	s	15	2	SIC	373	RC	1	1	23MO	0	1	1.64151906967	274.0	322.0	None	None	0
1.7	2015_Jul_28_1402	s	s	15	2	SIC	374	RC	2	1	23VO	1	0	0.647180080414	122.0	-95.0	121	-99	1
1.7	2015_Jul_28_1402	s	s	15	2	SIC	375	RC	2	0	23VC	1	0	0.488246917725	237.0	-291.0	230	-291	1
1.7	2015_Jul_28_1402	s	s	15	2	SIC	376	ABS	0	2	24RD	0	1	1.50335502625	None	None	None	None	1
1.7	2015_Jul_28_1402	s	s	15	2	SIC	377	ABS	2	2	24VD	0	1	0.540822982788	None	None	None	None	1
1.7	2015_Jul_28_1402	s	s	15	2	SIC	378	RC	0	2	23RD	1	0	0.576112031937	-153.0	45.0	-156	38	1
1.7	2015_Jul_28_1402	s	s	15	2	SIC	379	RC	2	2	23VD	1	0	0.487658023834	-525.0	-223.0	-515	-222	1
1.7	2015_Jul_28_1402	s	s	15	2	SIC	380	RC	0	1	23RO	1	0	0.95286989212	179.0	-42.0	185	-35	1
1.7	2015_Jul_28_1402	s	s	15	2	SIC	381	ABS	2	0	24VC	0	1	0.571039199829	None	None	None	None	1
1.7	2015_Jul_28_1402	s	s	15	2	SIC	382	RC	1	2	23MD	1	0	1.08227086067	-391.0	392.0	-390	390	1
1.7	2015_Jul_28_1402	s	s	15	2	SIC	383	ABS	1	1	24MO	0	1	1.2587480545	None	None	None	None	1
1.7	2015_Jul_28_1402	s	s	15	2	SIC	384	RC	1	0	23MC	1	0	1.04687595367	-363.0	133.0	-350	139	1
1.7	2015_Jul_28_1402	s	s	15	2	SIC	385	ABS	1	1	24MO	0	1	1.97666120529	None	None	None	None	1
1.7	2015_Jul_28_1402	s	s	15	2	SIC	386	RC	2	2	23VD	1	0	0.670300006866	253.0	111.0	254	105	1
1.7	2015_Jul_28_1402	s	s	15	2	SIC	387	RC	1	2	23MD	1	0	0.476692199707	362.0	-337.0	373	-335	1
1.7	2015_Jul_28_1402	s	s	15	2	SIC	388	RC	2	0	23VC	1	0	0.423378944397	-346.0	-80.0	-354	-81	1
1.7	2015_Jul_28_1402	s	s	15	2	SIC	389	RC	0	1	23RO	1	0	2.91844797134	530.0	167.0	537	175	1
1.7	2015_Jul_28_1402	s	s	15	2	SIC	390	ABS	2	0	24VC	0	1	0.594829082489	None	None	None	None	1
1.7	2015_Jul_28_1402	s	s	15	2	SIC	391	RC	1	0	23MC	1	0	0.917479991913	-386.0	152.0	-383	154	1
1.7	2015_Jul_28_1402	s	s	15	2	SIC	392	RC	2	1	23VO	1	0	0.465814113617	-40.0	-274.0	-51	-274	1
1.7	2015_Jul_28_1402	s	s	15	2	SIC	393	ABS	2	2	24VD	0	1	1.08225798607	None	None	None	None	1
1.7	2015_Jul_28_1402	s	s	15	2	SIC	394	ABS	1	0	24MC	0	1	6.49037384987	None	None	None	None	1
1.7	2015_Jul_28_1402	s	s	15	2	SIC	395	ABS	0	2	24RD	0	1	0.594675064087	None	None	None	None	1
1.7	2015_Jul_28_1402	s	s	15	2	SIC	396	RC	0	2	23RD	1	0	0.667434930801	-388.0	361.0	-383	363	1
1.7	2015_Jul_28_1402	s	s	15	2	SIC	397	ABS	0	1	24RO	0	1	3.74244093895	None	None	None	None	1
1.7	2015_Jul_28_1402	s	s	15	2	SIC	398	ABS	1	2	24MD	0	1	0.811571121216	None	None	None	None	1
1.7	2015_Jul_28_1402	s	s	15	2	SIC	399	ABS	2	1	24VO	0	1	0.608095169067	None	None	None	None	1
1.7	2015_Jul_28_1402	s	s	15	2	SIC	400	RC	1	1	23MO	1	0	0.747682094574	-269.0	-115.0	-258	-112	1
1.7	2015_Jul_28_1402	s	s	15	2	SIC	401	ABS	1	1	24MO	0	1	1.8472969532	None	None	None	None	1
1.7	2015_Jul_28_1402	s	s	15	2	SIC	402	RC	2	2	23VD	1	0	0.540822982788	195.0	153.0	195	153	1
1.7	2015_Jul_28_1402	s	s	15	2	SIC	403	RC	1	0	23MC	0	1	1.50596284866	272.0	149.0	None	None	0
1.7	2015_Jul_28_1402	s	s	15	2	SIC	404	RC	0	2	23RD	1	0	0.571615219116	-291.0	-372.0	-289	-368	1
1.7	2015_Jul_28_1402	s	s	15	2	SIC	405	RC	1	2	23MD	1	0	0.538336992264	-496.0	289.0	-485	290	1
1.7	2015_Jul_28_1402	s	s	15	2	SIC	406	RC	2	0	23VC	1	0	0.430176973343	-283.0	-258.0	-285	-257	1
1.7	2015_Jul_28_1402	s	s	15	2	SIC	407	ABS	0	2	24RD	0	1	0.959496974945	None	None	None	None	1
1.7	2015_Jul_28_1402	s	s	15	2	SIC	408	ABS	0	1	24RO	0	1	4.7025821209	None	None	None	None	1
1.7	2015_Jul_28_1402	s	s	15	2	SIC	409	ABS	2	2	24VD	0	1	0.558658123016	None	None	None	None	1
1.7	2015_Jul_28_1402	s	s	15	2	SIC	410	RC	2	1	23VO	1	0	0.537596940994	-185.0	-1.0	-182	-1	1
1.7	2015_Jul_28_1402	s	s	15	2	SIC	411	ABS	1	2	24MD	0	1	0.905644178391	None	None	None	None	1
1.7	2015_Jul_28_1402	s	s	15	2	SIC	412	RC	1	1	23MO	1	0	2.10131216049	362.0	-361.0	363	-360	1
1.7	2015_Jul_28_1402	s	s	15	2	SIC	413	ABS	2	1	24VO	0	1	0.76446390152	None	None	None	None	1
1.7	2015_Jul_28_1402	s	s	15	2	SIC	414	RC	0	1	23RO	1	0	0.940989017487	59.0	-244.0	59	-251	1
1.7	2015_Jul_28_1402	s	s	15	2	SIC	415	ABS	1	0	24MC	0	1	1.80640816689	None	None	None	None	1
1.7	2015_Jul_28_1402	s	s	15	2	SIC	416	ABS	2	0	24VC	0	1	0.587914943695	None	None	None	None	1
1.7	2015_Jul_28_1402	s	s	15	2	SIC	417	RC	2	0	23VC	1	0	0.646764039993	-485.0	-152.0	-488	-154	1
1.7	2015_Jul_28_1402	s	s	15	2	SIC	418	ABS	0	2	24RD	0	1	3.83656001091	None	None	None	None	1
1.7	2015_Jul_28_1402	s	s	15	2	SIC	419	ABS	0	1	24RO	0	1	2.65394306183	None	None	None	None	1
1.7	2015_Jul_28_1402	s	s	15	2	SIC	420	RC	1	2	23MD	1	0	0.646704912186	-180.0	123.0	-175	124	1
1.7	2015_Jul_28_1402	s	s	15	2	SIC	421	RC	2	2	23VD	1	0	0.446618080139	-384.0	-90.0	-381	-87	1
1.7	2015_Jul_28_1402	s	s	15	2	SIC	422	ABS	2	0	24VC	0	1	0.587766885757	None	None	None	None	1
1.7	2015_Jul_28_1402	s	s	15	2	SIC	423	RC	2	1	23VO	1	0	0.629282951355	477.0	-172.0	482	-167	1
1.7	2015_Jul_28_1402	s	s	15	2	SIC	424	ABS	1	1	24MO	0	1	2.61906003952	None	None	None	None	1
1.7	2015_Jul_28_1402	s	s	15	2	SIC	425	ABS	2	1	24VO	0	1	0.738476991653	None	None	None	None	1
1.7	2015_Jul_28_1402	s	s	15	2	SIC	426	ABS	2	2	24VD	0	1	0.481955051422	None	None	None	None	1
1.7	2015_Jul_28_1402	s	s	15	2	SIC	427	ABS	1	0	24MC	0	1	2.27151298523	None	None	None	None	1
1.7	2015_Jul_28_1402	s	s	15	2	SIC	428	ABS	1	2	24MD	0	1	0.521327018738	None	None	None	None	1
1.7	2015_Jul_28_1402	s	s	15	2	SIC	429	RC	0	1	23RO	0	1	0.90568113327	339.0	-367.0	None	None	0
1.7	2015_Jul_28_1402	s	s	15	2	SIC	430	RC	0	2	23RD	1	0	0.748632907867	-121.0	198.0	-124	195	1
1.7	2015_Jul_28_1402	s	s	15	2	SIC	431	RC	1	1	23MO	1	0	0.799700021744	-28.0	96.0	-25	84	1
1.7	2015_Jul_28_1402	s	s	15	2	SIC	432	RC	1	0	23MC	0	1	0.865514993668	65.0	332.0	None	None	0
1.7	2015_Jul_28_1402	s	s	15	2	SIC	433	ABS	0	1	24RO	0	1	2.98091316223	None	None	None	None	1
1.7	2015_Jul_28_1402	s	s	15	2	SIC	434	ABS	2	2	24VD	0	1	0.529228210449	None	None	None	None	1
1.7	2015_Jul_28_1402	s	s	15	2	SIC	435	RC	1	1	23MO	0	1	0.700786113739	520.0	23.0	None	None	0
1.7	2015_Jul_28_1402	s	s	15	2	SIC	436	RC	0	2	23RD	1	0	0.785317897797	409.0	-294.0	409	-294	1
1.7	2015_Jul_28_1402	s	s	15	2	SIC	437	ABS	1	2	24MD	0	1	0.717419147491	None	None	None	None	1
1.7	2015_Jul_28_1402	s	s	15	2	SIC	438	ABS	1	1	24MO	0	1	0.646810054779	None	None	None	None	1
1.7	2015_Jul_28_1402	s	s	15	2	SIC	439	RC	0	1	23RO	0	1	1.17171597481	-485.0	-336.0	None	None	0
1.7	2015_Jul_28_1402	s	s	15	2	SIC	440	ABS	2	1	24VO	0	1	0.79977107048	None	None	None	None	1
1.7	2015_Jul_28_1402	s	s	15	2	SIC	441	RC	2	0	23VC	1	0	0.537553071976	480.0	-318.0	472	-316	1
1.7	2015_Jul_28_1402	s	s	15	2	SIC	442	ABS	1	0	24MC	0	1	1.91306900978	None	None	None	None	1
1.7	2015_Jul_28_1402	s	s	15	2	SIC	443	RC	1	2	23MD	1	0	0.500675201416	93.0	-23.0	89	-26	1
1.7	2015_Jul_28_1402	s	s	15	2	SIC	444	RC	1	0	23MC	1	0	1.59523081779	-203.0	154.0	-203	153	1
1.7	2015_Jul_28_1402	s	s	15	2	SIC	445	RC	2	1	23VO	1	0	0.477222919464	203.0	190.0	199	182	1
1.7	2015_Jul_28_1402	s	s	15	2	SIC	446	ABS	2	0	24VC	0	1	0.587856054306	None	None	None	None	1
1.7	2015_Jul_28_1402	s	s	15	2	SIC	447	ABS	0	2	24RD	0	1	0.634957075119	None	None	None	None	1
1.7	2015_Jul_28_1402	s	s	15	2	SIC	448	RC	2	2	23VD	1	0	0.47682595253	-85.0	-18.0	-80	-20	1
1.7	2015_Jul_28_1402	s	s	15	2	SIC	449	RC	0	1	23RO	1	0	3.73068499565	-111.0	298.0	-103	297	1
1.7	2015_Jul_28_1402	s	s	15	2	SIC	450	RC	2	0	23VC	1	0	0.564357042313	282.0	361.0	278	359	1
1.7	2015_Jul_28_1402	s	s	15	2	SIC	451	ABS	2	0	24VC	0	1	0.776217937469	None	None	None	None	1
1.7	2015_Jul_28_1402	s	s	15	2	SIC	452	RC	1	2	23MD	1	0	0.553014039993	318.0	114.0	321	108	1
1.7	2015_Jul_28_1402	s	s	15	2	SIC	453	RC	0	2	23RD	1	0	0.653346061707	-240.0	-289.0	-236	-288	1
1.7	2015_Jul_28_1402	s	s	15	2	SIC	454	ABS	2	1	24VO	0	1	0.552575826645	None	None	None	None	1
1.7	2015_Jul_28_1402	s	s	15	2	SIC	455	RC	2	2	23VD	1	0	0.748235940933	-380.0	-135.0	-378	-132	1
1.7	2015_Jul_28_1402	s	s	15	2	SIC	456	RC	2	1	23VO	1	0	0.489620923996	-467.0	226.0	-458	223	1
1.7	2015_Jul_28_1402	s	s	15	2	SIC	457	ABS	0	1	24RO	0	1	4.10731697083	None	None	None	None	1
1.7	2015_Jul_28_1402	s	s	15	2	SIC	458	ABS	0	2	24RD	0	1	0.771214962006	None	None	None	None	1
1.7	2015_Jul_28_1402	s	s	15	2	SIC	459	RC	1	1	23MO	1	0	1.24709200859	-207.0	-314.0	-198	-315	1
1.7	2015_Jul_28_1402	s	s	15	2	SIC	460	ABS	2	2	24VD	0	1	0.524084091187	None	None	None	None	1
1.7	2015_Jul_28_1402	s	s	15	2	SIC	461	ABS	1	2	24MD	0	1	0.582931041718	None	None	None	None	1
1.7	2015_Jul_28_1402	s	s	15	2	SIC	462	ABS	1	0	24MC	0	1	1.42363905907	None	None	None	None	1
1.7	2015_Jul_28_1402	s	s	15	2	SIC	463	ABS	1	1	24MO	0	1	2.3887732029	None	None	None	None	1
1.7	2015_Jul_28_1402	s	s	15	2	SIC	464	RC	1	0	23MC	1	0	2.14863801003	-241.0	302.0	-236	304	1
1.7	2015_Jul_28_1402	s	s	15	2	SIC	465	ABS	2	0	24VC	0	1	0.653580904007	None	None	None	None	1
1.7	2015_Jul_28_1402	s	s	15	2	SIC	466	ABS	1	0	24MC	0	1	1.46777892113	None	None	None	None	1
1.7	2015_Jul_28_1402	s	s	15	2	SIC	467	RC	2	0	23VC	1	0	0.665370941162	394.0	330.0	397	324	1
1.7	2015_Jul_28_1402	s	s	15	2	SIC	468	ABS	2	2	24VD	0	1	0.623234987259	None	None	None	None	1
1.7	2015_Jul_28_1402	s	s	15	2	SIC	469	RC	1	0	23MC	1	0	0.994174957275	136.0	-390.0	137	-390	1
1.7	2015_Jul_28_1402	s	s	15	2	SIC	470	ABS	2	1	24VO	0	1	0.632447004318	None	None	None	None	1
1.7	2015_Jul_28_1402	s	s	15	2	SIC	471	RC	1	2	23MD	1	0	0.835076093674	-519.0	382.0	-515	386	1
1.7	2015_Jul_28_1402	s	s	15	2	SIC	472	RC	2	2	23VD	1	0	0.6057741642	-427.0	360.0	-430	365	1
1.7	2015_Jul_28_1402	s	s	15	2	SIC	473	ABS	0	2	24RD	0	1	0.952872037888	None	None	None	None	1
1.7	2015_Jul_28_1402	s	s	15	2	SIC	474	RC	0	2	23RD	1	0	0.807543992996	314.0	276.0	318	274	1
1.7	2015_Jul_28_1402	s	s	15	2	SIC	475	ABS	1	2	24MD	0	1	0.646708965302	None	None	None	None	1
1.7	2015_Jul_28_1402	s	s	15	2	SIC	476	ABS	0	1	24RO	0	1	3.04222607613	None	None	None	None	1
1.7	2015_Jul_28_1402	s	s	15	2	SIC	477	ABS	1	1	24MO	0	1	1.88247895241	None	None	None	None	1
1.7	2015_Jul_28_1402	s	s	15	2	SIC	478	RC	0	1	23RO	1	0	1.82079291344	361.0	-332.0	357	-334	1
1.7	2015_Jul_28_1402	s	s	15	2	SIC	479	RC	1	1	23MO	1	0	1.21788597107	-335.0	-372.0	-335	-373	1
1.7	2015_Jul_28_1402	s	s	15	2	SIC	480	RC	2	1	23VO	1	0	0.638672828674	-281.0	-66.0	-283	-67	1
1.7	2015_Jul_28_1402	s	s	15	2	SIC	481	RC	0	1	23RO	1	0	1.22346496582	234.0	-357.0	240	-353	1
1.7	2015_Jul_28_1402	s	s	15	2	SIC	482	ABS	2	1	24VO	0	1	0.709316968918	None	None	None	None	1
1.7	2015_Jul_28_1402	s	s	15	2	SIC	483	RC	2	1	23VO	1	0	0.552563905716	-427.0	-45.0	-416	-45	1
1.7	2015_Jul_28_1402	s	s	15	2	SIC	484	RC	1	2	23MD	1	0	0.552636146545	-484.0	141.0	-487	143	1
1.7	2015_Jul_28_1402	s	s	15	2	SIC	485	RC	2	2	23VD	1	0	0.453202009201	201.0	140.0	197	134	1
1.7	2015_Jul_28_1402	s	s	15	2	SIC	486	RC	1	1	23MO	1	0	0.564329147339	374.0	126.0	376	114	1
1.7	2015_Jul_28_1402	s	s	15	2	SIC	487	RC	0	2	23RD	1	0	0.571118831635	-404.0	354.0	-397	357	1
1.7	2015_Jul_28_1402	s	s	15	2	SIC	488	ABS	2	0	24VC	0	1	0.630207061768	None	None	None	None	1
1.7	2015_Jul_28_1402	s	s	15	2	SIC	489	RC	2	0	23VC	1	0	1.84732794762	17.0	289.0	22	289	1
1.7	2015_Jul_28_1402	s	s	15	2	SIC	490	ABS	1	1	24MO	0	1	2.05106091499	None	None	None	None	1
1.7	2015_Jul_28_1402	s	s	15	2	SIC	491	ABS	0	1	24RO	0	1	4.45773601532	None	None	None	None	1
1.7	2015_Jul_28_1402	s	s	15	2	SIC	492	ABS	1	2	24MD	0	1	1.26542901993	None	None	None	None	1
1.7	2015_Jul_28_1402	s	s	15	2	SIC	493	ABS	2	2	24VD	0	1	0.512830018997	None	None	None	None	1
1.7	2015_Jul_28_1402	s	s	15	2	SIC	494	ABS	0	2	24RD	0	1	2.96551704407	None	None	None	None	1
1.7	2015_Jul_28_1402	s	s	15	2	SIC	495	RC	1	0	23MC	1	0	1.31522989273	-513.0	-131.0	-516	-133	1
1.7	2015_Jul_28_1402	s	s	15	2	SIC	496	ABS	1	0	24MC	0	1	3.43314909935	None	None	None	None	1
1.7	2015_Jul_28_1402	s	s	15	2	SIC	497	RC	2	2	23VD	1	0	0.658519983292	484.0	-363.0	491	-363	1
1.7	2015_Jul_28_1402	s	s	15	2	SIC	498	ABS	0	2	24RD	0	1	0.617983102798	None	None	None	None	1
1.7	2015_Jul_28_1402	s	s	15	2	SIC	499	RC	1	2	23MD	1	0	0.999908924103	278.0	193.0	275	188	1
1.7	2015_Jul_28_1402	s	s	15	2	SIC	500	ABS	2	1	24VO	0	1	0.682048082352	None	None	None	None	1
1.7	2015_Jul_28_1402	s	s	15	2	SIC	501	ABS	1	0	24MC	0	1	1.40920305252	None	None	None	None	1
1.7	2015_Jul_28_1402	s	s	15	2	SIC	502	ABS	0	1	24RO	0	1	2.60058403015	None	None	None	None	1
1.7	2015_Jul_28_1402	s	s	15	2	SIC	503	RC	0	1	23RO	0	1	3.50232291222	-294.0	-249.0	None	None	0
1.7	2015_Jul_28_1402	s	s	15	2	SIC	504	ABS	2	0	24VC	0	1	0.594530820847	None	None	None	None	1
1.7	2015_Jul_28_1402	s	s	15	2	SIC	505	ABS	1	2	24MD	0	1	0.665380954742	None	None	None	None	1
1.7	2015_Jul_28_1402	s	s	15	2	SIC	506	ABS	2	2	24VD	0	1	0.470194816589	None	None	None	None	1
1.7	2015_Jul_28_1402	s	s	15	2	SIC	507	RC	2	1	23VO	1	0	0.520931959152	-277.0	307.0	-281	309	1
1.7	2015_Jul_28_1402	s	s	15	2	SIC	508	RC	2	0	23VC	1	0	0.479135990143	-281.0	351.0	-286	348	1
1.7	2015_Jul_28_1402	s	s	15	2	SIC	509	RC	0	2	23RD	1	0	0.576002836227	-44.0	-361.0	-41	-362	1
1.7	2015_Jul_28_1402	s	s	15	2	SIC	510	RC	1	1	23MO	1	0	1.58866691589	74.0	381.0	70	383	1
1.7	2015_Jul_28_1402	s	s	15	2	SIC	511	ABS	1	1	24MO	0	1	1.45894980431	None	None	None	None	1
1.7	2015_Jul_28_1402	s	s	15	2	SIC	512	RC	1	0	23MC	1	0	1.05385303497	-526.0	-152.0	-527	-160	1
1.7	2015_Jul_28_1402	s	s	15	2	SIC	513	RC	2	0	23VC	1	0	0.470609903336	352.0	178.0	363	183	1
1.7	2015_Jul_28_1402	s	s	15	2	SIC	514	RC	0	1	23RO	0	1	3.32530403137	-398.0	236.0	None	None	0
1.7	2015_Jul_28_1402	s	s	15	2	SIC	515	ABS	0	2	24RD	0	1	0.646732091904	None	None	None	None	1
1.7	2015_Jul_28_1402	s	s	15	2	SIC	516	ABS	0	1	24RO	0	1	4.64872193336	None	None	None	None	1
1.7	2015_Jul_28_1402	s	s	15	2	SIC	517	ABS	2	0	24VC	0	1	0.547363996506	None	None	None	None	1
1.7	2015_Jul_28_1402	s	s	15	2	SIC	518	RC	1	1	23MO	1	0	1.11516094208	408.0	160.0	407	151	1
1.7	2015_Jul_28_1402	s	s	15	2	SIC	519	RC	2	2	23VD	1	0	0.455994844437	-392.0	78.0	-395	71	1
1.7	2015_Jul_28_1402	s	s	15	2	SIC	520	RC	0	2	23RD	1	0	0.481976985931	275.0	41.0	280	38	1
1.7	2015_Jul_28_1402	s	s	15	2	SIC	521	RC	2	1	23VO	1	0	0.42972111702	-128.0	-270.0	-124	-270	1
1.7	2015_Jul_28_1402	s	s	15	2	SIC	522	ABS	1	2	24MD	0	1	0.658588886261	None	None	None	None	1
1.7	2015_Jul_28_1402	s	s	15	2	SIC	523	RC	1	2	23MD	1	0	0.524224996567	-514.0	286.0	-508	288	1
1.7	2015_Jul_28_1402	s	s	15	2	SIC	524	ABS	1	1	24MO	0	1	2.08912205696	None	None	None	None	1
1.7	2015_Jul_28_1402	s	s	15	2	SIC	525	ABS	2	2	24VD	0	1	0.513517141342	None	None	None	None	1
1.7	2015_Jul_28_1402	s	s	15	2	SIC	526	RC	1	0	23MC	1	0	3.56327795982	516.0	-38.0	515	-43	1
1.7	2015_Jul_28_1402	s	s	15	2	SIC	527	ABS	2	1	24VO	0	1	1.08228397369	None	None	None	None	1
1.7	2015_Jul_28_1402	s	s	15	2	SIC	528	ABS	1	0	24MC	0	1	1.12933802605	None	None	None	None	1
1.7	2015_Jul_28_1402	s	s	15	2	SIC	529	RC	2	0	23VC	1	0	0.488623857498	-356.0	-60.0	-356	-59	1
1.7	2015_Jul_28_1402	s	s	15	2	SIC	530	ABS	2	1	24VO	0	1	0.8468542099	None	None	None	None	1
1.7	2015_Jul_28_1402	s	s	15	2	SIC	531	ABS	1	2	24MD	0	1	0.594219923019	None	None	None	None	1
1.7	2015_Jul_28_1402	s	s	15	2	SIC	532	ABS	2	2	24VD	0	1	0.500941038132	None	None	None	None	1
1.7	2015_Jul_28_1402	s	s	15	2	SIC	533	ABS	1	1	24MO	0	1	2.44275403023	None	None	None	None	1
1.7	2015_Jul_28_1402	s	s	15	2	SIC	534	ABS	2	0	24VC	0	1	0.559253931046	None	None	None	None	1
1.7	2015_Jul_28_1402	s	s	15	2	SIC	535	RC	1	2	23MD	1	0	0.603353977203	528.0	-202.0	531	-200	1
1.7	2015_Jul_28_1402	s	s	15	2	SIC	536	ABS	0	1	24RO	0	1	2.13584399223	None	None	None	None	1
1.7	2015_Jul_28_1402	s	s	15	2	SIC	537	RC	2	2	23VD	1	0	0.540739059448	345.0	-204.0	339	-197	1
1.7	2015_Jul_28_1402	s	s	15	2	SIC	538	RC	0	1	23RO	1	0	2.99760699272	-450.0	-96.0	-448	-86	1
1.7	2015_Jul_28_1402	s	s	15	2	SIC	539	RC	2	1	23VO	1	0	0.467557907104	251.0	-121.0	241	-121	1
1.7	2015_Jul_28_1402	s	s	15	2	SIC	540	RC	1	0	23MC	1	0	0.929219007492	-241.0	-5.0	-234	0	1
1.7	2015_Jul_28_1402	s	s	15	2	SIC	541	RC	0	2	23RD	1	0	0.42310500145	-155.0	95.0	-155	97	1
1.7	2015_Jul_28_1402	s	s	15	2	SIC	542	ABS	1	0	24MC	0	1	2.82110309601	None	None	None	None	1
1.7	2015_Jul_28_1402	s	s	15	2	SIC	543	RC	1	1	23MO	1	0	1.2419219017	362.0	-360.0	358	-356	1
1.7	2015_Jul_28_1402	s	s	15	2	SIC	544	ABS	0	2	24RD	0	1	0.581499099731	None	None	None	None	1
1.7	2015_Jul_28_1402	s	s	15	2	SIC	545	RC	2	1	23VO	1	0	0.485657930374	-66.0	315.0	-66	323	1
1.7	2015_Jul_28_1402	s	s	15	2	SIC	546	RC	1	1	23MO	1	0	0.950119972229	375.0	314.0	367	313	1
1.7	2015_Jul_28_1402	s	s	15	2	SIC	547	ABS	2	1	24VO	0	1	0.594689846039	None	None	None	None	1
1.7	2015_Jul_28_1402	s	s	15	2	SIC	548	ABS	1	0	24MC	0	1	1.57701301575	None	None	None	None	1
1.7	2015_Jul_28_1402	s	s	15	2	SIC	549	RC	1	0	23MC	1	0	0.947622060776	214.0	-152.0	208	-156	1
1.7	2015_Jul_28_1402	s	s	15	2	SIC	550	ABS	1	2	24MD	0	1	0.760952949524	None	None	None	None	1
1.7	2015_Jul_28_1402	s	s	15	2	SIC	551	ABS	2	0	24VC	0	1	0.491162061691	None	None	None	None	1
1.7	2015_Jul_28_1402	s	s	15	2	SIC	552	RC	2	2	23VD	1	0	0.535662889481	-484.0	78.0	-476	80	1
1.7	2015_Jul_28_1402	s	s	15	2	SIC	553	RC	1	2	23MD	1	0	0.988481044769	27.0	401.0	37	401	1
1.7	2015_Jul_28_1402	s	s	15	2	SIC	554	RC	2	0	23VC	1	0	0.712493896484	509.0	153.0	506	151	1
1.7	2015_Jul_28_1402	s	s	15	2	SIC	555	ABS	0	2	24RD	0	1	0.870306015015	None	None	None	None	1
1.7	2015_Jul_28_1402	s	s	15	2	SIC	556	ABS	0	1	24RO	0	1	2.88324284554	None	None	None	None	1
1.7	2015_Jul_28_1402	s	s	15	2	SIC	557	ABS	2	2	24VD	0	1	0.470620155334	None	None	None	None	1
1.7	2015_Jul_28_1402	s	s	15	2	SIC	558	ABS	1	1	24MO	0	1	0.587921142578	None	None	None	None	1
1.7	2015_Jul_28_1402	s	s	15	2	SIC	559	RC	0	1	23RO	1	0	1.96498417854	508.0	-262.0	507	-261	1
1.7	2015_Jul_28_1402	s	s	15	2	SIC	560	RC	0	2	23RD	1	0	0.532706022263	-482.0	86.0	-481	93	1
1.7	2015_Jul_28_1402	s	s	15	2	SIC	561	ABS	2	2	24VD	0	1	1.64449095726	None	None	None	None	1
1.7	2015_Jul_28_1402	s	s	15	2	SIC	562	ABS	0	2	24RD	0	1	0.705582857132	None	None	None	None	1
1.7	2015_Jul_28_1402	s	s	15	2	SIC	563	RC	0	1	23RO	1	0	2.16277384758	249.0	-276.0	254	-275	1
1.7	2015_Jul_28_1402	s	s	15	2	SIC	564	RC	2	0	23VC	1	0	0.434854030609	-127.0	34.0	-130	28	1
1.7	2015_Jul_28_1402	s	s	15	2	SIC	565	ABS	1	0	24MC	1	0	0.470199108124	None	None	33	11	0
1.7	2015_Jul_28_1402	s	s	15	2	SIC	566	RC	1	2	23MD	1	0	0.465326786041	285.0	-175.0	286	-173	1
1.7	2015_Jul_28_1402	s	s	15	2	SIC	567	ABS	1	1	24MO	0	1	2.88311886787	None	None	None	None	1
1.7	2015_Jul_28_1402	s	s	15	2	SIC	568	RC	2	1	23VO	1	0	0.517251968384	-462.0	41.0	-460	43	1
1.7	2015_Jul_28_1402	s	s	15	2	SIC	569	RC	2	2	23VD	1	0	0.488738059998	383.0	283.0	383	285	1
1.7	2015_Jul_28_1402	s	s	15	2	SIC	570	RC	1	1	23MO	1	0	0.677175045013	149.0	186.0	157	195	1
1.7	2015_Jul_28_1402	s	s	15	2	SIC	571	ABS	2	1	24VO	0	1	0.961735010147	None	None	None	None	1
1.7	2015_Jul_28_1402	s	s	15	2	SIC	572	ABS	0	1	24RO	0	1	5.60209298134	None	None	None	None	1
1.7	2015_Jul_28_1402	s	s	15	2	SIC	573	RC	0	2	23RD	1	0	0.540847063065	422.0	296.0	423	287	1
1.7	2015_Jul_28_1402	s	s	15	2	SIC	574	ABS	2	0	24VC	0	1	0.587944030762	None	None	None	None	1
1.7	2015_Jul_28_1402	s	s	15	2	SIC	575	ABS	1	2	24MD	0	1	0.559513092041	None	None	None	None	1
1.7	2015_Jul_28_1402	s	s	15	2	SIC	576	RC	1	0	23MC	0	1	2.70149302483	514.0	364.0	None	None	0
1.7	2015_Jul_28_1402	s	s	15	2	SIC	577	RC	2	0	23VC	1	0	1.16466116905	223.0	256.0	223	257	1
1.7	2015_Jul_28_1402	s	s	15	2	SIC	578	RC	2	2	23VD	1	0	0.465254068375	14.0	-32.0	12	-28	1
1.7	2015_Jul_28_1402	s	s	15	2	SIC	579	ABS	2	0	24VC	0	1	1.10582304001	None	None	None	None	1
1.7	2015_Jul_28_1402	s	s	15	2	SIC	580	RC	0	1	23RO	0	1	3.96596908569	-403.0	327.0	None	None	0
1.7	2015_Jul_28_1402	s	s	15	2	SIC	581	ABS	1	0	24MC	0	1	1.7480840683	None	None	None	None	1
1.7	2015_Jul_28_1402	s	s	15	2	SIC	582	ABS	2	1	24VO	0	1	0.53516793251	None	None	None	None	1
1.7	2015_Jul_28_1402	s	s	15	2	SIC	583	RC	2	1	23VO	1	0	0.772916078568	273.0	-53.0	281	-52	1
1.7	2015_Jul_28_1402	s	s	15	2	SIC	584	RC	1	1	23MO	1	0	0.823310852051	355.0	88.0	352	94	1
1.7	2015_Jul_28_1402	s	s	15	2	SIC	585	ABS	0	1	24RO	0	1	3.43152880669	None	None	None	None	1
1.7	2015_Jul_28_1402	s	s	15	2	SIC	586	ABS	1	2	24MD	0	1	0.623195171356	None	None	None	None	1
1.7	2015_Jul_28_1402	s	s	15	2	SIC	587	ABS	0	2	24RD	0	1	0.599649906158	None	None	None	None	1
1.7	2015_Jul_28_1402	s	s	15	2	SIC	588	RC	1	0	23MC	1	0	1.29069399834	316.0	11.0	321	8	1
1.7	2015_Jul_28_1402	s	s	15	2	SIC	589	RC	1	2	23MD	1	0	0.564352989197	-270.0	204.0	-277	199	1
1.7	2015_Jul_28_1402	s	s	15	2	SIC	590	ABS	2	2	24VD	0	1	0.571463108063	None	None	None	None	1
1.7	2015_Jul_28_1402	s	s	15	2	SIC	591	RC	0	2	23RD	1	0	0.941053152084	-122.0	291.0	-118	300	1
1.7	2015_Jul_28_1402	s	s	15	2	SIC	592	ABS	1	1	24MO	0	1	1.44212698936	None	None	None	None	1
