Version	Date	Stimuli	Method	Subject	Session	Condition	Trial	Target	Channel1	Channel2	Distractors	LMouseButton	RMouseButton	RT	TargetX	TargetY	ResponseX	ResponseY	Correct
1.7	2015_Aug_05_1445	s	s	17	2	Capacity	1	RC	1	0	23MC	1	0	1.26544213295	361.0	50.0	366	54	1
1.7	2015_Aug_05_1445	s	s	17	2	Capacity	2	ABS	2	0	24VC	0	1	0.89447593689	None	None	None	None	1
1.7	2015_Aug_05_1445	s	s	17	2	Capacity	3	ABS	1	0	24MC	0	1	4.23670911789	None	None	None	None	1
1.7	2015_Aug_05_1445	s	s	17	2	Capacity	4	RC	2	0	23VC	1	0	0.764491796494	495.0	-49.0	497	-49	1
1.7	2015_Aug_05_1445	s	s	17	2	Capacity	5	ABS	1	0	24MC	0	1	3.00086712837	None	None	None	None	1
1.7	2015_Aug_05_1445	s	s	17	2	Capacity	6	ABS	2	0	24VC	0	1	7.95111083984	None	None	None	None	1
1.7	2015_Aug_05_1445	s	s	17	2	Capacity	7	RC	2	0	23VC	1	0	2.63600182533	290.0	-93.0	288	-92	1
1.7	2015_Aug_05_1445	s	s	17	2	Capacity	8	RC	1	0	23MC	1	0	6.54382896423	-183.0	296.0	-176	290	1
1.7	2015_Aug_05_1445	s	s	17	2	Capacity	9	RC	1	0	23MC	0	1	4.68399906158	-91.0	-405.0	None	None	0
1.7	2015_Aug_05_1445	s	s	17	2	Capacity	10	RC	2	0	23VC	1	0	16.4406449795	307.0	-232.0	308	-237	1
1.7	2015_Aug_05_1445	s	s	17	2	Capacity	11	ABS	2	0	24VC	0	1	1.38862705231	None	None	None	None	1
1.7	2015_Aug_05_1445	s	s	17	2	Capacity	12	ABS	1	0	24MC	0	1	1.44215512276	None	None	None	None	1
1.7	2015_Aug_05_1445	s	s	17	2	Capacity	13	ABS	1	0	24MC	0	1	2.45935702324	None	None	None	None	1
1.7	2015_Aug_05_1445	s	s	17	2	Capacity	14	ABS	2	0	24VC	0	1	0.582823038101	None	None	None	None	1
1.7	2015_Aug_05_1445	s	s	17	2	Capacity	15	RC	2	0	23VC	1	0	0.564347982407	469.0	208.0	476	206	1
1.7	2015_Aug_05_1445	s	s	17	2	Capacity	16	RC	1	0	23MC	0	1	2.87129592896	-256.0	-374.0	None	None	0
1.7	2015_Aug_05_1445	s	s	17	2	Capacity	17	ABS	1	0	24MC	0	1	1.50176906586	None	None	None	None	1
1.7	2015_Aug_05_1445	s	s	17	2	Capacity	18	RC	2	0	23VC	1	0	0.486746072769	441.0	257.0	443	261	1
1.7	2015_Aug_05_1445	s	s	17	2	Capacity	19	RC	1	0	23MC	1	0	1.11201190948	-68.0	225.0	-69	231	1
1.7	2015_Aug_05_1445	s	s	17	2	Capacity	20	ABS	2	0	24VC	0	1	0.573003053665	None	None	None	None	1
1.7	2015_Aug_05_1445	s	s	17	2	Capacity	21	ABS	1	0	24MC	0	1	1.56082105637	None	None	None	None	1
1.7	2015_Aug_05_1445	s	s	17	2	Capacity	22	RC	1	0	23MC	1	0	1.05384206772	162.0	284.0	167	274	1
1.7	2015_Aug_05_1445	s	s	17	2	Capacity	23	ABS	2	0	24VC	0	1	0.594880819321	None	None	None	None	1
1.7	2015_Aug_05_1445	s	s	17	2	Capacity	24	RC	2	0	23VC	1	0	1.40678310394	78.0	-253.0	79	-256	1
1.7	2015_Aug_05_1445	s	s	17	2	Capacity	25	RC	2	0	23VC	1	0	0.618393182755	517.0	-205.0	523	-209	1
1.7	2015_Aug_05_1445	s	s	17	2	Capacity	26	ABS	1	0	24MC	0	1	3.26470708847	None	None	None	None	1
1.7	2015_Aug_05_1445	s	s	17	2	Capacity	27	ABS	2	0	24VC	0	1	0.535841941833	None	None	None	None	1
1.7	2015_Aug_05_1445	s	s	17	2	Capacity	28	RC	1	0	23MC	1	0	1.20008397102	528.0	201.0	525	189	1
1.7	2015_Aug_05_1445	s	s	17	2	Capacity	29	ABS	1	0	24MC	0	1	3.17739415169	None	None	None	None	1
1.7	2015_Aug_05_1445	s	s	17	2	Capacity	30	RC	1	0	23MC	1	0	0.853852987289	-291.0	-131.0	-292	-130	1
1.7	2015_Aug_05_1445	s	s	17	2	Capacity	31	ABS	2	0	24VC	0	1	0.564315080643	None	None	None	None	1
1.7	2015_Aug_05_1445	s	s	17	2	Capacity	32	RC	2	0	23VC	1	0	0.488642930984	-265.0	-22.0	-267	-21	1
1.7	2015_Aug_05_1445	s	s	17	2	Capacity	33	RC	2	0	23VC	1	0	0.524024009705	271.0	-35.0	274	-27	1
1.7	2015_Aug_05_1445	s	s	17	2	Capacity	34	RC	1	0	23MC	1	0	1.90628695488	423.0	-234.0	417	-226	1
1.7	2015_Aug_05_1445	s	s	17	2	Capacity	35	ABS	1	0	24MC	0	1	2.16045284271	None	None	None	None	1
1.7	2015_Aug_05_1445	s	s	17	2	Capacity	36	ABS	2	0	24VC	0	1	0.5357670784	None	None	None	None	1
1.7	2015_Aug_05_1445	s	s	17	2	Capacity	37	ABS	1	0	24MC	0	1	2.78899502754	None	None	None	None	1
1.7	2015_Aug_05_1445	s	s	17	2	Capacity	38	RC	2	0	23VC	1	0	0.724260091782	-280.0	338.0	-279	335	1
1.7	2015_Aug_05_1445	s	s	17	2	Capacity	39	RC	1	0	23MC	1	0	1.41970586777	342.0	55.0	343	48	1
1.7	2015_Aug_05_1445	s	s	17	2	Capacity	40	ABS	2	0	24VC	0	1	2.67134714127	None	None	None	None	1
1.7	2015_Aug_05_1445	s	s	17	2	Capacity	41	RC	2	0	23VC	1	0	0.783164978027	125.0	25.0	129	22	1
1.7	2015_Aug_05_1445	s	s	17	2	Capacity	42	ABS	1	0	24MC	0	1	2.40066003799	None	None	None	None	1
1.7	2015_Aug_05_1445	s	s	17	2	Capacity	43	ABS	2	0	24VC	0	1	0.544523000717	None	None	None	None	1
1.7	2015_Aug_05_1445	s	s	17	2	Capacity	44	RC	1	0	23MC	1	0	0.747382879257	353.0	168.0	362	172	1
1.7	2015_Aug_05_1445	s	s	17	2	Capacity	45	RC	1	0	23MC	1	0	2.43596196175	-317.0	303.0	-318	304	1
1.7	2015_Aug_05_1445	s	s	17	2	Capacity	46	ABS	2	0	24VC	0	1	0.9468729496	None	None	None	None	1
1.7	2015_Aug_05_1445	s	s	17	2	Capacity	47	ABS	1	0	24MC	0	1	5.21415495872	None	None	None	None	1
1.7	2015_Aug_05_1445	s	s	17	2	Capacity	48	RC	2	0	23VC	1	0	0.57108092308	354.0	-135.0	359	-129	1
1.7	2015_Aug_05_1445	s	s	17	2	Capacity	49	RC	2	0	23VC	1	0	0.470190048218	164.0	135.0	166	137	1
1.7	2015_Aug_05_1445	s	s	17	2	Capacity	50	ABS	1	0	24MC	0	1	2.32991194725	None	None	None	None	1
1.7	2015_Aug_05_1445	s	s	17	2	Capacity	51	RC	1	0	23MC	1	0	0.823276042938	349.0	117.0	351	114	1
1.7	2015_Aug_05_1445	s	s	17	2	Capacity	52	ABS	2	0	24VC	0	1	0.618277072906	None	None	None	None	1
1.7	2015_Aug_05_1445	s	s	17	2	Capacity	53	ABS	1	0	24MC	0	1	3.17737293243	None	None	None	None	1
1.7	2015_Aug_05_1445	s	s	17	2	Capacity	54	RC	1	0	23MC	1	0	1.02719402313	185.0	280.0	182	280	1
1.7	2015_Aug_05_1445	s	s	17	2	Capacity	55	RC	2	0	23VC	1	0	0.691256046295	-354.0	-309.0	-366	-307	1
1.7	2015_Aug_05_1445	s	s	17	2	Capacity	56	ABS	2	0	24VC	0	1	0.500545978546	None	None	None	None	1
1.7	2015_Aug_05_1445	s	s	17	2	Capacity	57	ABS	1	0	24MC	1	0	2.03565692902	None	None	-47	-104	0
1.7	2015_Aug_05_1445	s	s	17	2	Capacity	58	RC	2	0	23VC	0	1	0.717458963394	-193.0	-81.0	None	None	0
1.7	2015_Aug_05_1445	s	s	17	2	Capacity	59	RC	1	0	23MC	1	0	1.03008008003	121.0	86.0	115	79	1
1.7	2015_Aug_05_1445	s	s	17	2	Capacity	60	ABS	2	0	24VC	0	1	0.559386968613	None	None	None	None	1
1.7	2015_Aug_05_1445	s	s	17	2	Capacity	61	RC	1	0	23MC	1	0	1.28781414032	495.0	312.0	493	314	1
1.7	2015_Aug_05_1445	s	s	17	2	Capacity	62	ABS	2	0	24VC	0	1	0.587909936905	None	None	None	None	1
1.7	2015_Aug_05_1445	s	s	17	2	Capacity	63	ABS	1	0	24MC	0	1	3.82480192184	None	None	None	None	1
1.7	2015_Aug_05_1445	s	s	17	2	Capacity	64	RC	2	0	23VC	1	0	0.738260984421	197.0	290.0	197	282	1
1.7	2015_Aug_05_1445	s	s	17	2	Capacity	65	RC	2	0	23VC	1	0	0.515013933182	-7.0	-38.0	-12	-49	1
1.7	2015_Aug_05_1445	s	s	17	2	Capacity	66	RC	1	0	23MC	1	0	0.956525087357	101.0	85.0	99	81	1
1.7	2015_Aug_05_1445	s	s	17	2	Capacity	67	ABS	2	0	24VC	0	1	1.14812397957	None	None	None	None	1
1.7	2015_Aug_05_1445	s	s	17	2	Capacity	68	ABS	1	0	24MC	0	1	3.41908097267	None	None	None	None	1
1.7	2015_Aug_05_1445	s	s	17	2	Capacity	69	RC	1	0	23MC	1	0	2.27777695656	98.0	-151.0	95	-155	1
1.7	2015_Aug_05_1445	s	s	17	2	Capacity	70	RC	2	0	23VC	1	0	0.665252923965	212.0	-398.0	215	-402	1
1.7	2015_Aug_05_1445	s	s	17	2	Capacity	71	ABS	1	0	24MC	0	1	3.82477402687	None	None	None	None	1
1.7	2015_Aug_05_1445	s	s	17	2	Capacity	72	ABS	2	0	24VC	0	1	0.717319011688	None	None	None	None	1
1.7	2015_Aug_05_1445	s	s	17	2	Capacity	73	ABS	2	0	24VC	0	1	0.576076030731	None	None	None	None	1
1.7	2015_Aug_05_1445	s	s	17	2	Capacity	74	ABS	1	0	24MC	0	1	3.05494403839	None	None	None	None	1
1.7	2015_Aug_05_1445	s	s	17	2	Capacity	75	RC	2	0	23VC	1	0	0.737444877625	211.0	-143.0	208	-136	1
1.7	2015_Aug_05_1445	s	s	17	2	Capacity	76	RC	1	0	23MC	1	0	1.01851892471	-224.0	-387.0	-217	-387	1
1.7	2015_Aug_05_1445	s	s	17	2	Capacity	77	ABS	2	0	24VC	0	1	2.3181848526	None	None	None	None	1
1.7	2015_Aug_05_1445	s	s	17	2	Capacity	78	RC	2	0	23VC	1	0	0.53303694725	153.0	376.0	158	374	1
1.7	2015_Aug_05_1445	s	s	17	2	Capacity	79	RC	1	0	23MC	1	0	1.67107081413	365.0	323.0	366	321	1
1.7	2015_Aug_05_1445	s	s	17	2	Capacity	80	ABS	1	0	24MC	0	1	2.05923318863	None	None	None	None	1
1.7	2015_Aug_05_1445	s	s	17	2	Capacity	81	RC	1	0	23MC	1	0	0.900594949722	277.0	168.0	288	169	1
1.7	2015_Aug_05_1445	s	s	17	2	Capacity	82	ABS	2	0	24VC	0	1	1.27053594589	None	None	None	None	1
1.7	2015_Aug_05_1445	s	s	17	2	Capacity	83	ABS	1	0	24MC	0	1	2.81015396118	None	None	None	None	1
1.7	2015_Aug_05_1445	s	s	17	2	Capacity	84	RC	2	0	23VC	1	0	0.712280035019	-295.0	-66.0	-303	-68	1
1.7	2015_Aug_05_1445	s	s	17	2	Capacity	85	ABS	1	0	24MC	0	1	3.64496898651	None	None	None	None	1
1.7	2015_Aug_05_1445	s	s	17	2	Capacity	86	RC	1	0	23MC	1	0	1.41181111336	379.0	63.0	384	62	1
1.7	2015_Aug_05_1445	s	s	17	2	Capacity	87	RC	2	0	23VC	1	0	0.682060956955	-136.0	51.0	-137	39	1
1.7	2015_Aug_05_1445	s	s	17	2	Capacity	88	ABS	2	0	24VC	0	1	0.559769868851	None	None	None	None	1
1.7	2015_Aug_05_1445	s	s	17	2	Capacity	89	ABS	1	0	24MC	0	1	3.72416400909	None	None	None	None	1
1.7	2015_Aug_05_1445	s	s	17	2	Capacity	90	RC	2	0	23VC	1	0	0.893927097321	215.0	239.0	211	231	1
1.7	2015_Aug_05_1445	s	s	17	2	Capacity	91	RC	1	0	23MC	1	0	1.6643140316	471.0	-194.0	475	-195	1
1.7	2015_Aug_05_1445	s	s	17	2	Capacity	92	ABS	2	0	24VC	0	1	0.641736030579	None	None	None	None	1
1.7	2015_Aug_05_1445	s	s	17	2	Capacity	1	ABS	0	2	24RD	0	1	2.0183942318	None	None	None	None	1
1.7	2015_Aug_05_1445	s	s	17	2	Capacity	2	ABS	0	1	24RO	0	1	4.7075779438	None	None	None	None	1
1.7	2015_Aug_05_1445	s	s	17	2	Capacity	3	RC	0	1	23RO	1	0	1.92969989777	492.0	-2.0	484	1	1
1.7	2015_Aug_05_1445	s	s	17	2	Capacity	4	RC	0	2	23RD	1	0	0.794620037079	-506.0	22.0	-512	19	1
1.7	2015_Aug_05_1445	s	s	17	2	Capacity	5	ABS	0	1	24RO	0	1	4.37839508057	None	None	None	None	1
1.7	2015_Aug_05_1445	s	s	17	2	Capacity	6	RC	0	2	23RD	1	0	0.735889911652	152.0	345.0	154	354	1
1.7	2015_Aug_05_1445	s	s	17	2	Capacity	7	RC	0	1	23RO	1	0	3.07855010033	-220.0	88.0	-213	91	1
1.7	2015_Aug_05_1445	s	s	17	2	Capacity	8	ABS	0	2	24RD	0	1	1.25882697105	None	None	None	None	1
1.7	2015_Aug_05_1445	s	s	17	2	Capacity	9	RC	0	2	23RD	1	0	0.764464855194	380.0	-331.0	387	-334	1
1.7	2015_Aug_05_1445	s	s	17	2	Capacity	10	ABS	0	2	24RD	0	1	0.905855178833	None	None	None	None	1
1.7	2015_Aug_05_1445	s	s	17	2	Capacity	11	RC	0	1	23RO	0	1	4.28382396698	271.0	151.0	None	None	0
1.7	2015_Aug_05_1445	s	s	17	2	Capacity	12	ABS	0	1	24RO	0	1	3.8316988945	None	None	None	None	1
1.7	2015_Aug_05_1445	s	s	17	2	Capacity	13	ABS	0	1	24RO	0	1	2.1266181469	None	None	None	None	1
1.7	2015_Aug_05_1445	s	s	17	2	Capacity	14	ABS	0	2	24RD	0	1	1.34117889404	None	None	None	None	1
1.7	2015_Aug_05_1445	s	s	17	2	Capacity	15	RC	0	2	23RD	1	0	0.771233081818	-89.0	350.0	-87	348	1
1.7	2015_Aug_05_1445	s	s	17	2	Capacity	16	RC	0	1	23RO	1	0	10.9528040886	431.0	78.0	429	65	1
1.7	2015_Aug_05_1445	s	s	17	2	Capacity	17	ABS	0	1	24RO	0	1	2.74233794212	None	None	None	None	1
1.7	2015_Aug_05_1445	s	s	17	2	Capacity	18	ABS	0	2	24RD	0	1	1.76489019394	None	None	None	None	1
1.7	2015_Aug_05_1445	s	s	17	2	Capacity	19	RC	0	1	23RO	1	0	1.59510779381	-370.0	-18.0	-369	-21	1
1.7	2015_Aug_05_1445	s	s	17	2	Capacity	20	RC	0	2	23RD	1	0	0.618079900742	-534.0	398.0	-532	388	1
1.7	2015_Aug_05_1445	s	s	17	2	Capacity	21	ABS	0	2	24RD	0	1	0.970818996429	None	None	None	None	1
1.7	2015_Aug_05_1445	s	s	17	2	Capacity	22	RC	0	1	23RO	1	0	0.783416032791	-62.0	336.0	-57	331	1
1.7	2015_Aug_05_1445	s	s	17	2	Capacity	23	RC	0	2	23RD	1	0	0.611516952515	470.0	98.0	478	93	1
1.7	2015_Aug_05_1445	s	s	17	2	Capacity	24	ABS	0	1	24RO	0	1	3.11843895912	None	None	None	None	1
1.7	2015_Aug_05_1445	s	s	17	2	Capacity	25	ABS	0	1	24RO	0	1	7.473706007	None	None	None	None	1
1.7	2015_Aug_05_1445	s	s	17	2	Capacity	26	RC	0	1	23RO	1	0	6.30338287354	486.0	264.0	490	263	1
1.7	2015_Aug_05_1445	s	s	17	2	Capacity	27	RC	0	2	23RD	1	0	0.623617172241	392.0	222.0	392	213	1
1.7	2015_Aug_05_1445	s	s	17	2	Capacity	28	ABS	0	2	24RD	0	1	0.924257993698	None	None	None	None	1
1.7	2015_Aug_05_1445	s	s	17	2	Capacity	29	RC	0	2	23RD	1	0	0.830322027206	515.0	95.0	510	86	1
1.7	2015_Aug_05_1445	s	s	17	2	Capacity	30	ABS	0	1	24RO	0	1	4.87237119675	None	None	None	None	1
1.7	2015_Aug_05_1445	s	s	17	2	Capacity	31	ABS	0	2	24RD	0	1	1.01967191696	None	None	None	None	1
1.7	2015_Aug_05_1445	s	s	17	2	Capacity	32	RC	0	1	23RO	1	0	4.52300906181	-195.0	73.0	-198	63	1
1.7	2015_Aug_05_1445	s	s	17	2	Capacity	33	RC	0	1	23RO	1	0	1.18330788612	514.0	-33.0	511	-33	1
1.7	2015_Aug_05_1445	s	s	17	2	Capacity	34	ABS	0	1	24RO	0	1	3.05974602699	None	None	None	None	1
1.7	2015_Aug_05_1445	s	s	17	2	Capacity	35	RC	0	2	23RD	1	0	0.529078006744	-107.0	360.0	-104	354	1
1.7	2015_Aug_05_1445	s	s	17	2	Capacity	36	ABS	0	2	24RD	0	1	0.670292854309	None	None	None	None	1
1.7	2015_Aug_05_1445	s	s	17	2	Capacity	37	RC	0	1	23RO	0	1	3.48340201378	-222.0	-393.0	None	None	0
1.7	2015_Aug_05_1445	s	s	17	2	Capacity	38	ABS	0	2	24RD	0	1	0.794792175293	None	None	None	None	1
1.7	2015_Aug_05_1445	s	s	17	2	Capacity	39	RC	0	2	23RD	1	0	0.728991031647	38.0	-151.0	43	-144	1
1.7	2015_Aug_05_1445	s	s	17	2	Capacity	40	ABS	0	1	24RO	0	1	3.62221217155	None	None	None	None	1
1.7	2015_Aug_05_1445	s	s	17	2	Capacity	41	RC	0	2	23RD	1	0	0.618240118027	-247.0	324.0	-249	321	1
1.7	2015_Aug_05_1445	s	s	17	2	Capacity	42	ABS	0	1	24RO	0	1	2.44266200066	None	None	None	None	1
1.7	2015_Aug_05_1445	s	s	17	2	Capacity	43	RC	0	1	23RO	1	0	0.599525928497	-155.0	140.0	-149	132	1
1.7	2015_Aug_05_1445	s	s	17	2	Capacity	44	ABS	0	2	24RD	0	1	1.58360004425	None	None	None	None	1
1.7	2015_Aug_05_1445	s	s	17	2	Capacity	45	RC	0	2	23RD	1	0	0.889008998871	431.0	-361.0	439	-353	1
1.7	2015_Aug_05_1445	s	s	17	2	Capacity	46	RC	0	1	23RO	0	1	2.93657398224	534.0	110.0	None	None	0
1.7	2015_Aug_05_1445	s	s	17	2	Capacity	47	ABS	0	2	24RD	0	1	0.723521947861	None	None	None	None	1
1.7	2015_Aug_05_1445	s	s	17	2	Capacity	48	ABS	0	1	24RO	0	1	3.13979411125	None	None	None	None	1
1.7	2015_Aug_05_1445	s	s	17	2	Capacity	49	RC	0	2	23RD	1	0	0.678927898407	307.0	13.0	306	9	1
1.7	2015_Aug_05_1445	s	s	17	2	Capacity	50	RC	0	1	23RO	1	0	3.87871098518	-497.0	241.0	-501	242	1
1.7	2015_Aug_05_1445	s	s	17	2	Capacity	51	ABS	0	1	24RO	0	1	3.95425200462	None	None	None	None	1
1.7	2015_Aug_05_1445	s	s	17	2	Capacity	52	ABS	0	2	24RD	0	1	0.941004037857	None	None	None	None	1
1.7	2015_Aug_05_1445	s	s	17	2	Capacity	53	RC	0	1	23RO	0	1	5.24903202057	100.0	65.0	None	None	0
1.7	2015_Aug_05_1445	s	s	17	2	Capacity	54	ABS	0	2	24RD	0	1	1.45318984985	None	None	None	None	1
1.7	2015_Aug_05_1445	s	s	17	2	Capacity	55	RC	0	2	23RD	1	0	0.540817975998	-110.0	263.0	-104	259	1
1.7	2015_Aug_05_1445	s	s	17	2	Capacity	56	ABS	0	1	24RO	0	1	2.76037192345	None	None	None	None	1
1.7	2015_Aug_05_1445	s	s	17	2	Capacity	57	RC	0	1	23RO	1	0	2.02895092964	107.0	358.0	107	357	1
1.7	2015_Aug_05_1445	s	s	17	2	Capacity	58	ABS	0	2	24RD	0	1	1.07646512985	None	None	None	None	1
1.7	2015_Aug_05_1445	s	s	17	2	Capacity	59	RC	0	2	23RD	1	0	0.676993131638	-538.0	-350.0	-535	-350	1
1.7	2015_Aug_05_1445	s	s	17	2	Capacity	60	ABS	0	1	24RO	0	1	4.93127512932	None	None	None	None	1
1.7	2015_Aug_05_1445	s	s	17	2	Capacity	61	ABS	0	1	24RO	0	1	8.98823714256	None	None	None	None	1
1.7	2015_Aug_05_1445	s	s	17	2	Capacity	62	RC	0	1	23RO	1	0	2.23217988014	-371.0	-16.0	-373	-21	1
1.7	2015_Aug_05_1445	s	s	17	2	Capacity	63	RC	0	2	23RD	1	0	0.568070888519	164.0	2.0	162	2	1
1.7	2015_Aug_05_1445	s	s	17	2	Capacity	64	ABS	0	2	24RD	0	1	0.882184028625	None	None	None	None	1
1.7	2015_Aug_05_1445	s	s	17	2	Capacity	65	RC	0	1	23RO	1	0	1.5648188591	256.0	-26.0	263	-33	1
1.7	2015_Aug_05_1445	s	s	17	2	Capacity	66	ABS	0	2	24RD	0	1	0.700489044189	None	None	None	None	1
1.7	2015_Aug_05_1445	s	s	17	2	Capacity	67	RC	0	2	23RD	1	0	0.679453134537	-165.0	135.0	-164	127	1
1.7	2015_Aug_05_1445	s	s	17	2	Capacity	68	ABS	0	1	24RO	0	1	3.43638491631	None	None	None	None	1
1.7	2015_Aug_05_1445	s	s	17	2	Capacity	69	ABS	0	1	24RO	0	1	3.25499796867	None	None	None	None	1
1.7	2015_Aug_05_1445	s	s	17	2	Capacity	70	RC	0	1	23RO	0	1	3.38930010796	-529.0	-213.0	None	None	0
1.7	2015_Aug_05_1445	s	s	17	2	Capacity	71	ABS	0	2	24RD	0	1	1.43543601036	None	None	None	None	1
1.7	2015_Aug_05_1445	s	s	17	2	Capacity	72	RC	0	2	23RD	1	0	0.971484899521	377.0	-396.0	383	-401	1
1.7	2015_Aug_05_1445	s	s	17	2	Capacity	73	ABS	0	2	24RD	0	1	1.26676607132	None	None	None	None	1
1.7	2015_Aug_05_1445	s	s	17	2	Capacity	74	ABS	0	1	24RO	0	1	3.83122897148	None	None	None	None	1
1.7	2015_Aug_05_1445	s	s	17	2	Capacity	75	RC	0	2	23RD	1	0	0.76444196701	539.0	370.0	534	362	1
1.7	2015_Aug_05_1445	s	s	17	2	Capacity	76	RC	0	1	23RO	1	0	0.877951860428	-274.0	180.0	-273	183	1
1.7	2015_Aug_05_1445	s	s	17	2	Capacity	77	RC	0	1	23RO	0	1	2.50292515755	-49.0	-137.0	None	None	0
1.7	2015_Aug_05_1445	s	s	17	2	Capacity	78	ABS	0	1	24RO	0	1	3.70257115364	None	None	None	None	1
1.7	2015_Aug_05_1445	s	s	17	2	Capacity	79	RC	0	2	23RD	1	0	0.643606901169	-377.0	70.0	-372	67	1
1.7	2015_Aug_05_1445	s	s	17	2	Capacity	80	ABS	0	2	24RD	0	1	1.85401701927	None	None	None	None	1
1.7	2015_Aug_05_1445	s	s	17	2	Capacity	81	ABS	0	2	24RD	0	1	1.59651279449	None	None	None	None	1
1.7	2015_Aug_05_1445	s	s	17	2	Capacity	82	RC	0	2	23RD	1	0	0.700110912323	-540.0	378.0	-528	384	1
1.7	2015_Aug_05_1445	s	s	17	2	Capacity	83	RC	0	1	23RO	1	0	1.9010579586	181.0	16.0	180	5	1
1.7	2015_Aug_05_1445	s	s	17	2	Capacity	84	ABS	0	1	24RO	0	1	2.82433485985	None	None	None	None	1
1.7	2015_Aug_05_1445	s	s	17	2	Capacity	85	ABS	0	1	24RO	0	1	4.28367185593	None	None	None	None	1
1.7	2015_Aug_05_1445	s	s	17	2	Capacity	86	RC	0	2	23RD	1	0	0.773629903793	154.0	5.0	158	9	1
1.7	2015_Aug_05_1445	s	s	17	2	Capacity	87	ABS	0	2	24RD	0	1	11.3461790085	None	None	None	None	1
1.7	2015_Aug_05_1445	s	s	17	2	Capacity	88	RC	0	1	23RO	0	1	3.67851805687	-350.0	113.0	None	None	0
1.7	2015_Aug_05_1445	s	s	17	2	Capacity	89	ABS	0	2	24RD	0	0	-1	None	None	None	None	-1
1.7	2015_Aug_05_1445	s	s	17	2	Capacity	90	RC	0	2	23RD	1	0	6.92908000946	-174.0	-50.0	-179	-56	1
1.7	2015_Aug_05_1445	s	s	17	2	Capacity	91	ABS	0	1	24RO	0	1	2.27105998993	None	None	None	None	1
1.7	2015_Aug_05_1445	s	s	17	2	Capacity	92	RC	0	1	23RO	1	0	1.5060210228	-97.0	341.0	-98	346	1
1.7	2015_Aug_05_1445	s	s	17	2	SIC	1	RC	1	1	23MO	1	0	2.13669705391	-154.0	302.0	-149	300	1
1.7	2015_Aug_05_1445	s	s	17	2	SIC	2	RC	1	2	23MD	1	0	0.599685192108	435.0	334.0	423	336	1
1.7	2015_Aug_05_1445	s	s	17	2	SIC	3	ABS	1	2	24MD	0	1	1.09400606155	None	None	None	None	1
1.7	2015_Aug_05_1445	s	s	17	2	SIC	4	RC	1	0	23MC	1	0	1.41186118126	-403.0	-31.0	-393	-29	1
1.7	2015_Aug_05_1445	s	s	17	2	SIC	5	RC	0	2	23RD	1	0	0.505475997925	365.0	224.0	362	222	1
1.7	2015_Aug_05_1445	s	s	17	2	SIC	6	RC	2	0	23VC	1	0	0.42314696312	-47.0	-106.0	-53	-108	1
1.7	2015_Aug_05_1445	s	s	17	2	SIC	7	RC	2	1	23VO	1	0	0.453262805939	134.0	-40.0	134	-41	1
1.7	2015_Aug_05_1445	s	s	17	2	SIC	8	ABS	1	1	24MO	0	1	3.24809193611	None	None	None	None	1
1.7	2015_Aug_05_1445	s	s	17	2	SIC	9	RC	0	1	23RO	1	0	2.7262840271	-169.0	-43.0	-158	-43	1
1.7	2015_Aug_05_1445	s	s	17	2	SIC	10	ABS	2	2	24VD	1	0	0.599880933762	None	None	-93	-19	0
1.7	2015_Aug_05_1445	s	s	17	2	SIC	11	ABS	1	0	24MC	0	1	3.25545191765	None	None	None	None	1
1.7	2015_Aug_05_1445	s	s	17	2	SIC	12	ABS	2	1	24VO	0	1	0.823220014572	None	None	None	None	1
1.7	2015_Aug_05_1445	s	s	17	2	SIC	13	ABS	0	2	24RD	0	1	1.57169699669	None	None	None	None	1
1.7	2015_Aug_05_1445	s	s	17	2	SIC	14	ABS	2	0	24VC	0	1	0.737601041794	None	None	None	None	1
1.7	2015_Aug_05_1445	s	s	17	2	SIC	15	RC	2	2	23VD	1	0	0.623197078705	-482.0	-190.0	-478	-182	1
1.7	2015_Aug_05_1445	s	s	17	2	SIC	16	ABS	0	1	24RO	0	1	4.61339402199	None	None	None	None	1
1.7	2015_Aug_05_1445	s	s	17	2	SIC	17	ABS	2	0	24VC	0	1	0.561782121658	None	None	None	None	1
1.7	2015_Aug_05_1445	s	s	17	2	SIC	18	RC	1	0	23MC	1	0	4.91465592384	123.0	269.0	122	273	1
1.7	2015_Aug_05_1445	s	s	17	2	SIC	19	RC	2	1	23VO	1	0	0.643219947815	122.0	10.0	118	9	1
1.7	2015_Aug_05_1445	s	s	17	2	SIC	20	RC	1	1	23MO	1	0	2.18640398979	35.0	-274.0	36	-280	1
1.7	2015_Aug_05_1445	s	s	17	2	SIC	21	RC	0	2	23RD	1	0	0.806555986404	-371.0	358.0	-380	356	1
1.7	2015_Aug_05_1445	s	s	17	2	SIC	22	ABS	2	2	24VD	0	1	0.540777921677	None	None	None	None	1
1.7	2015_Aug_05_1445	s	s	17	2	SIC	23	RC	2	2	23VD	1	0	0.665264844894	-375.0	-309.0	-374	-311	1
1.7	2015_Aug_05_1445	s	s	17	2	SIC	24	RC	0	1	23RO	1	0	0.983595848083	54.0	404.0	48	408	1
1.7	2015_Aug_05_1445	s	s	17	2	SIC	25	RC	2	0	23VC	1	0	0.505500078201	-146.0	341.0	-145	346	1
1.7	2015_Aug_05_1445	s	s	17	2	SIC	26	ABS	1	2	24MD	0	1	1.11757278442	None	None	None	None	1
1.7	2015_Aug_05_1445	s	s	17	2	SIC	27	ABS	2	1	24VO	0	1	0.529010057449	None	None	None	None	1
1.7	2015_Aug_05_1445	s	s	17	2	SIC	28	ABS	0	1	24RO	0	1	4.25545883179	None	None	None	None	1
1.7	2015_Aug_05_1445	s	s	17	2	SIC	29	ABS	0	2	24RD	0	1	1.1001868248	None	None	None	None	1
1.7	2015_Aug_05_1445	s	s	17	2	SIC	30	RC	1	2	23MD	1	0	0.573202848434	-185.0	-144.0	-174	-141	1
1.7	2015_Aug_05_1445	s	s	17	2	SIC	31	ABS	1	0	24MC	0	1	3.62098503113	None	None	None	None	1
1.7	2015_Aug_05_1445	s	s	17	2	SIC	32	ABS	1	1	24MO	0	1	3.42028307915	None	None	None	None	1
1.7	2015_Aug_05_1445	s	s	17	2	SIC	33	RC	0	1	23RO	1	0	0.811589002609	44.0	131.0	47	139	1
1.7	2015_Aug_05_1445	s	s	17	2	SIC	34	ABS	1	2	24MD	0	1	1.17662000656	None	None	None	None	1
1.7	2015_Aug_05_1445	s	s	17	2	SIC	35	RC	2	1	23VO	1	0	0.552556991577	211.0	101.0	214	101	1
1.7	2015_Aug_05_1445	s	s	17	2	SIC	36	ABS	1	1	24MO	0	1	3.31863307953	None	None	None	None	1
1.7	2015_Aug_05_1445	s	s	17	2	SIC	37	ABS	2	1	24VO	0	1	0.634989023209	None	None	None	None	1
1.7	2015_Aug_05_1445	s	s	17	2	SIC	38	ABS	2	2	24VD	0	1	0.564371824265	None	None	None	None	1
1.7	2015_Aug_05_1445	s	s	17	2	SIC	39	RC	0	2	23RD	1	0	0.571103096008	-424.0	-112.0	-426	-105	1
1.7	2015_Aug_05_1445	s	s	17	2	SIC	40	RC	2	0	23VC	1	0	0.512134790421	103.0	347.0	113	347	1
1.7	2015_Aug_05_1445	s	s	17	2	SIC	41	ABS	1	0	24MC	1	0	2.84785699844	None	None	170	-69	0
1.7	2015_Aug_05_1445	s	s	17	2	SIC	42	ABS	0	1	24RO	0	1	4.02483510971	None	None	None	None	1
1.7	2015_Aug_05_1445	s	s	17	2	SIC	43	RC	2	2	23VD	1	0	0.714093923569	46.0	407.0	48	397	1
1.7	2015_Aug_05_1445	s	s	17	2	SIC	44	ABS	0	2	24RD	0	1	1.6594350338	None	None	None	None	1
1.7	2015_Aug_05_1445	s	s	17	2	SIC	45	RC	1	1	23MO	1	0	0.66769695282	378.0	328.0	386	322	1
1.7	2015_Aug_05_1445	s	s	17	2	SIC	46	RC	1	2	23MD	1	0	0.677182912827	-270.0	373.0	-265	375	1
1.7	2015_Aug_05_1445	s	s	17	2	SIC	47	ABS	2	0	24VC	0	1	0.705579996109	None	None	None	None	1
1.7	2015_Aug_05_1445	s	s	17	2	SIC	48	RC	1	0	23MC	1	0	1.37650203705	-221.0	-277.0	232	297	0
1.7	2015_Aug_05_1445	s	s	17	2	SIC	49	ABS	0	1	24RO	0	1	3.76600193977	None	None	None	None	1
1.7	2015_Aug_05_1445	s	s	17	2	SIC	50	ABS	2	0	24VC	0	1	0.682122945786	None	None	None	None	1
1.7	2015_Aug_05_1445	s	s	17	2	SIC	51	ABS	1	1	24MO	0	1	3.19581985474	None	None	None	None	1
1.7	2015_Aug_05_1445	s	s	17	2	SIC	52	RC	2	0	23VC	1	0	0.599694013596	-423.0	-371.0	-419	-370	1
1.7	2015_Aug_05_1445	s	s	17	2	SIC	53	ABS	1	0	24MC	0	1	3.60113501549	None	None	None	None	1
1.7	2015_Aug_05_1445	s	s	17	2	SIC	54	RC	2	2	23VD	1	0	0.540761947632	-207.0	-68.0	-197	-68	1
1.7	2015_Aug_05_1445	s	s	17	2	SIC	55	RC	1	2	23MD	1	0	0.587952136993	-214.0	-322.0	-220	-325	1
1.7	2015_Aug_05_1445	s	s	17	2	SIC	56	ABS	0	2	24RD	0	1	1.6091439724	None	None	None	None	1
1.7	2015_Aug_05_1445	s	s	17	2	SIC	57	RC	1	1	23MO	1	0	1.16216802597	370.0	390.0	379	393	1
1.7	2015_Aug_05_1445	s	s	17	2	SIC	58	ABS	2	1	24VO	0	1	1.10069394112	None	None	None	None	1
1.7	2015_Aug_05_1445	s	s	17	2	SIC	59	ABS	2	2	24VD	0	1	0.564284086227	None	None	None	None	1
1.7	2015_Aug_05_1445	s	s	17	2	SIC	60	RC	0	2	23RD	1	0	1.07729291916	116.0	-174.0	120	-178	1
1.7	2015_Aug_05_1445	s	s	17	2	SIC	61	RC	1	0	23MC	1	0	1.50210905075	227.0	183.0	222	184	1
1.7	2015_Aug_05_1445	s	s	17	2	SIC	62	ABS	1	2	24MD	0	1	0.823107004166	None	None	None	None	1
1.7	2015_Aug_05_1445	s	s	17	2	SIC	63	RC	2	1	23VO	1	0	0.865257024765	470.0	13.0	476	10	1
1.7	2015_Aug_05_1445	s	s	17	2	SIC	64	RC	0	1	23RO	0	1	3.29512786865	-376.0	-105.0	None	None	0
1.7	2015_Aug_05_1445	s	s	17	2	SIC	65	RC	1	0	23MC	1	0	2.03567194939	91.0	-309.0	98	-316	1
1.7	2015_Aug_05_1445	s	s	17	2	SIC	66	ABS	1	0	24MC	0	1	2.76003789902	None	None	None	None	1
1.7	2015_Aug_05_1445	s	s	17	2	SIC	67	RC	0	2	23RD	1	0	0.693800926208	-222.0	-113.0	-224	-115	1
1.7	2015_Aug_05_1445	s	s	17	2	SIC	68	ABS	1	2	24MD	0	1	0.784125089645	None	None	None	None	1
1.7	2015_Aug_05_1445	s	s	17	2	SIC	69	RC	2	1	23VO	1	0	0.489871025085	-137.0	109.0	-131	100	1
1.7	2015_Aug_05_1445	s	s	17	2	SIC	70	ABS	2	2	24VD	0	1	0.524154186249	None	None	None	None	1
1.7	2015_Aug_05_1445	s	s	17	2	SIC	71	ABS	0	2	24RD	0	1	1.67080378532	None	None	None	None	1
1.7	2015_Aug_05_1445	s	s	17	2	SIC	72	ABS	1	1	24MO	0	1	3.20134091377	None	None	None	None	1
1.7	2015_Aug_05_1445	s	s	17	2	SIC	73	RC	2	0	23VC	1	0	0.666635990143	297.0	-303.0	297	-301	1
1.7	2015_Aug_05_1445	s	s	17	2	SIC	74	ABS	2	1	24VO	0	1	0.529255867004	None	None	None	None	1
1.7	2015_Aug_05_1445	s	s	17	2	SIC	75	RC	0	1	23RO	1	0	3.53894019127	-227.0	-317.0	-229	-324	1
1.7	2015_Aug_05_1445	s	s	17	2	SIC	76	ABS	2	0	24VC	0	1	0.646806001663	None	None	None	None	1
1.7	2015_Aug_05_1445	s	s	17	2	SIC	77	RC	1	2	23MD	1	0	0.584423065186	178.0	-233.0	178	-237	1
1.7	2015_Aug_05_1445	s	s	17	2	SIC	78	RC	1	1	23MO	1	0	0.865338802338	262.0	206.0	269	200	1
1.7	2015_Aug_05_1445	s	s	17	2	SIC	79	RC	2	2	23VD	1	0	0.493698835373	-492.0	-179.0	-489	-173	1
1.7	2015_Aug_05_1445	s	s	17	2	SIC	80	ABS	0	1	24RO	0	1	3.19598793983	None	None	None	None	1
1.7	2015_Aug_05_1445	s	s	17	2	SIC	81	ABS	0	2	24RD	0	1	1.22396183014	None	None	None	None	1
1.7	2015_Aug_05_1445	s	s	17	2	SIC	82	RC	1	2	23MD	1	0	0.734423875809	-19.0	67.0	-21	76	1
1.7	2015_Aug_05_1445	s	s	17	2	SIC	83	RC	1	0	23MC	1	0	1.45418000221	28.0	230.0	28	236	1
1.7	2015_Aug_05_1445	s	s	17	2	SIC	84	ABS	1	1	24MO	0	1	2.76120615005	None	None	None	None	1
1.7	2015_Aug_05_1445	s	s	17	2	SIC	85	ABS	2	2	24VD	0	1	0.524108886719	None	None	None	None	1
1.7	2015_Aug_05_1445	s	s	17	2	SIC	86	RC	0	1	23RO	1	0	2.07096290588	506.0	11.0	512	6	1
1.7	2015_Aug_05_1445	s	s	17	2	SIC	87	RC	2	2	23VD	1	0	0.56436419487	290.0	-142.0	291	-151	1
1.7	2015_Aug_05_1445	s	s	17	2	SIC	88	ABS	1	2	24MD	0	1	1.2657661438	None	None	None	None	1
1.7	2015_Aug_05_1445	s	s	17	2	SIC	89	RC	1	1	23MO	1	0	3.34962105751	33.0	-173.0	24	-176	1
1.7	2015_Aug_05_1445	s	s	17	2	SIC	90	ABS	2	1	24VO	0	1	0.488107919693	None	None	None	None	1
1.7	2015_Aug_05_1445	s	s	17	2	SIC	91	RC	0	2	23RD	1	0	0.73595905304	-328.0	-395.0	-330	-403	1
1.7	2015_Aug_05_1445	s	s	17	2	SIC	92	ABS	2	0	24VC	0	1	0.501914024353	None	None	None	None	1
1.7	2015_Aug_05_1445	s	s	17	2	SIC	93	ABS	0	1	24RO	0	1	4.62525296211	None	None	None	None	1
1.7	2015_Aug_05_1445	s	s	17	2	SIC	94	ABS	1	0	24MC	1	0	3.07149791718	None	None	-166	-398	0
1.7	2015_Aug_05_1445	s	s	17	2	SIC	95	RC	2	0	23VC	1	0	0.564603090286	-68.0	-86.0	-77	-76	1
1.7	2015_Aug_05_1445	s	s	17	2	SIC	96	RC	2	1	23VO	1	0	0.935940980911	116.0	-196.0	119	-206	1
1.7	2015_Aug_05_1445	s	s	17	2	SIC	97	ABS	1	1	24MO	0	1	4.76143884659	None	None	None	None	1
1.7	2015_Aug_05_1445	s	s	17	2	SIC	98	ABS	0	2	24RD	0	1	1.05351686478	None	None	None	None	1
1.7	2015_Aug_05_1445	s	s	17	2	SIC	99	RC	2	1	23VO	1	0	0.500032186508	-535.0	-93.0	-538	-98	1
1.7	2015_Aug_05_1445	s	s	17	2	SIC	100	ABS	2	1	24VO	0	1	0.529127120972	None	None	None	None	1
1.7	2015_Aug_05_1445	s	s	17	2	SIC	101	ABS	0	1	24RO	0	1	6.07300305367	None	None	None	None	1
1.7	2015_Aug_05_1445	s	s	17	2	SIC	102	RC	0	2	23RD	1	0	0.61142706871	-34.0	-265.0	-34	-267	1
1.7	2015_Aug_05_1445	s	s	17	2	SIC	103	RC	2	2	23VD	1	0	0.505424976349	390.0	131.0	393	139	1
1.7	2015_Aug_05_1445	s	s	17	2	SIC	104	RC	1	1	23MO	1	0	2.0946521759	44.0	-342.0	48	-342	1
1.7	2015_Aug_05_1445	s	s	17	2	SIC	105	ABS	2	2	24VD	0	1	0.523915052414	None	None	None	None	1
1.7	2015_Aug_05_1445	s	s	17	2	SIC	106	ABS	2	0	24VC	0	1	0.947926044464	None	None	None	None	1
1.7	2015_Aug_05_1445	s	s	17	2	SIC	107	ABS	1	0	24MC	1	0	3.38980484009	None	None	-498	363	0
1.7	2015_Aug_05_1445	s	s	17	2	SIC	108	RC	1	2	23MD	1	0	0.72322678566	-87.0	-329.0	-77	-331	1
1.7	2015_Aug_05_1445	s	s	17	2	SIC	109	RC	0	1	23RO	1	0	2.55358600616	266.0	378.0	272	377	1
1.7	2015_Aug_05_1445	s	s	17	2	SIC	110	RC	1	0	23MC	1	0	1.28930783272	-521.0	333.0	-513	327	1
1.7	2015_Aug_05_1445	s	s	17	2	SIC	111	ABS	1	2	24MD	0	1	1.17141413689	None	None	None	None	1
1.7	2015_Aug_05_1445	s	s	17	2	SIC	112	RC	2	0	23VC	1	0	0.547734022141	147.0	-354.0	146	-355	1
1.7	2015_Aug_05_1445	s	s	17	2	SIC	113	ABS	1	1	24MO	0	1	3.59620213509	None	None	None	None	1
1.7	2015_Aug_05_1445	s	s	17	2	SIC	114	RC	1	2	23MD	1	0	0.870786190033	41.0	169.0	38	167	1
1.7	2015_Aug_05_1445	s	s	17	2	SIC	115	RC	2	2	23VD	1	0	0.83885717392	-200.0	313.0	-198	312	1
1.7	2015_Aug_05_1445	s	s	17	2	SIC	116	RC	1	1	23MO	1	0	2.37211108208	339.0	149.0	344	151	1
1.7	2015_Aug_05_1445	s	s	17	2	SIC	117	RC	0	1	23RO	1	0	2.60745501518	-169.0	301.0	-165	298	1
1.7	2015_Aug_05_1445	s	s	17	2	SIC	118	RC	1	0	23MC	1	0	1.03516817093	120.0	206.0	124	202	1
1.7	2015_Aug_05_1445	s	s	17	2	SIC	119	RC	0	2	23RD	1	0	0.552531003952	380.0	-85.0	375	-90	1
1.7	2015_Aug_05_1445	s	s	17	2	SIC	120	ABS	0	1	24RO	0	1	3.25465703011	None	None	None	None	1
1.7	2015_Aug_05_1445	s	s	17	2	SIC	121	ABS	2	1	24VO	0	1	0.858591079712	None	None	None	None	1
1.7	2015_Aug_05_1445	s	s	17	2	SIC	122	ABS	1	2	24MD	0	1	0.971106052399	None	None	None	None	1
1.7	2015_Aug_05_1445	s	s	17	2	SIC	123	RC	2	1	23VO	1	0	0.517266988754	-171.0	339.0	-165	331	1
1.7	2015_Aug_05_1445	s	s	17	2	SIC	124	RC	2	0	23VC	1	0	0.423129081726	-401.0	250.0	-399	244	1
1.7	2015_Aug_05_1445	s	s	17	2	SIC	125	ABS	2	0	24VC	0	1	0.599682807922	None	None	None	None	1
1.7	2015_Aug_05_1445	s	s	17	2	SIC	126	ABS	2	2	24VD	0	1	0.568018913269	None	None	None	None	1
1.7	2015_Aug_05_1445	s	s	17	2	SIC	127	ABS	0	2	24RD	0	1	0.74092912674	None	None	None	None	1
1.7	2015_Aug_05_1445	s	s	17	2	SIC	128	ABS	1	0	24MC	0	1	3.58939981461	None	None	None	None	1
1.7	2015_Aug_05_1445	s	s	17	2	SIC	129	RC	0	2	23RD	1	0	0.488774061203	-116.0	-3.0	-107	-5	1
1.7	2015_Aug_05_1445	s	s	17	2	SIC	130	ABS	1	2	24MD	0	1	0.693789958954	None	None	None	None	1
1.7	2015_Aug_05_1445	s	s	17	2	SIC	131	ABS	2	2	24VD	0	1	0.521445035934	None	None	None	None	1
1.7	2015_Aug_05_1445	s	s	17	2	SIC	132	ABS	0	2	24RD	0	1	1.11756706238	None	None	None	None	1
1.7	2015_Aug_05_1445	s	s	17	2	SIC	133	RC	0	1	23RO	1	0	2.24257707596	-2.0	-280.0	-4	-283	1
1.7	2015_Aug_05_1445	s	s	17	2	SIC	134	ABS	2	0	24VC	0	1	0.529083013535	None	None	None	None	1
1.7	2015_Aug_05_1445	s	s	17	2	SIC	135	RC	2	2	23VD	1	0	0.53616809845	71.0	-180.0	85	-171	1
1.7	2015_Aug_05_1445	s	s	17	2	SIC	136	ABS	1	1	24MO	0	1	3.58340406418	None	None	None	None	1
1.7	2015_Aug_05_1445	s	s	17	2	SIC	137	ABS	1	0	24MC	0	1	4.3779630661	None	None	None	None	1
1.7	2015_Aug_05_1445	s	s	17	2	SIC	138	RC	1	2	23MD	1	0	0.641821861267	-295.0	362.0	-291	365	1
1.7	2015_Aug_05_1445	s	s	17	2	SIC	139	RC	1	0	23MC	1	0	2.15342187881	58.0	-285.0	60	-294	1
1.7	2015_Aug_05_1445	s	s	17	2	SIC	140	ABS	2	1	24VO	0	1	0.470185041428	None	None	None	None	1
1.7	2015_Aug_05_1445	s	s	17	2	SIC	141	RC	1	1	23MO	1	0	1.81802988052	-154.0	-356.0	-146	-348	1
1.7	2015_Aug_05_1445	s	s	17	2	SIC	142	RC	2	0	23VC	1	0	0.47838306427	-364.0	-281.0	-363	-285	1
1.7	2015_Aug_05_1445	s	s	17	2	SIC	143	ABS	0	1	24RO	0	1	4.09539818764	None	None	None	None	1
1.7	2015_Aug_05_1445	s	s	17	2	SIC	144	RC	2	1	23VO	1	0	0.659358024597	-319.0	-127.0	-314	-129	1
1.7	2015_Aug_05_1445	s	s	17	2	SIC	145	RC	2	1	23VO	1	0	0.535711050034	112.0	-275.0	107	-279	1
1.7	2015_Aug_05_1445	s	s	17	2	SIC	146	ABS	0	2	24RD	0	1	1.30589485168	None	None	None	None	1
1.7	2015_Aug_05_1445	s	s	17	2	SIC	147	RC	2	2	23VD	1	0	0.63500213623	-256.0	18.0	-243	24	1
1.7	2015_Aug_05_1445	s	s	17	2	SIC	148	ABS	2	1	24VO	0	1	1.07745790482	None	None	None	None	1
1.7	2015_Aug_05_1445	s	s	17	2	SIC	149	RC	1	0	23MC	1	0	1.23042201996	396.0	55.0	400	51	1
1.7	2015_Aug_05_1445	s	s	17	2	SIC	150	ABS	2	0	24VC	0	1	0.611531972885	None	None	None	None	1
1.7	2015_Aug_05_1445	s	s	17	2	SIC	151	RC	1	2	23MD	1	0	0.587843894958	369.0	-60.0	369	-59	1
1.7	2015_Aug_05_1445	s	s	17	2	SIC	152	ABS	1	0	24MC	0	1	4.73829317093	None	None	None	None	1
1.7	2015_Aug_05_1445	s	s	17	2	SIC	153	ABS	1	2	24MD	0	1	0.894263029099	None	None	None	None	1
1.7	2015_Aug_05_1445	s	s	17	2	SIC	154	ABS	2	2	24VD	0	1	0.470221996307	None	None	None	None	1
1.7	2015_Aug_05_1445	s	s	17	2	SIC	155	RC	0	2	23RD	1	0	0.500650882721	-310.0	242.0	-303	236	1
1.7	2015_Aug_05_1445	s	s	17	2	SIC	156	RC	1	1	23MO	1	0	1.15287780762	22.0	-46.0	18	-50	1
1.7	2015_Aug_05_1445	s	s	17	2	SIC	157	RC	2	0	23VC	1	0	0.44694685936	455.0	-196.0	448	-200	1
1.7	2015_Aug_05_1445	s	s	17	2	SIC	158	ABS	0	1	24RO	0	1	3.13026595116	None	None	None	None	1
1.7	2015_Aug_05_1445	s	s	17	2	SIC	159	RC	0	1	23RO	0	1	3.70211386681	98.0	-56.0	None	None	0
1.7	2015_Aug_05_1445	s	s	17	2	SIC	160	ABS	1	1	24MO	0	1	3.40093207359	None	None	None	None	1
1.7	2015_Aug_05_1445	s	s	17	2	SIC	161	ABS	0	1	24RO	0	1	4.34267091751	None	None	None	None	1
1.7	2015_Aug_05_1445	s	s	17	2	SIC	162	ABS	0	2	24RD	0	1	1.58837795258	None	None	None	None	1
1.7	2015_Aug_05_1445	s	s	17	2	SIC	163	ABS	2	1	24VO	0	1	0.811546087265	None	None	None	None	1
1.7	2015_Aug_05_1445	s	s	17	2	SIC	164	RC	2	0	23VC	1	0	0.529081106186	184.0	83.0	184	84	1
1.7	2015_Aug_05_1445	s	s	17	2	SIC	165	RC	0	2	23RD	1	0	0.537922143936	458.0	207.0	459	204	1
1.7	2015_Aug_05_1445	s	s	17	2	SIC	166	RC	2	2	23VD	1	0	0.452039957047	21.0	401.0	10	401	1
1.7	2015_Aug_05_1445	s	s	17	2	SIC	167	ABS	2	2	24VD	0	1	0.525015115738	None	None	None	None	1
1.7	2015_Aug_05_1445	s	s	17	2	SIC	168	RC	1	2	23MD	1	0	0.794671058655	-240.0	-375.0	-236	-370	1
1.7	2015_Aug_05_1445	s	s	17	2	SIC	169	ABS	1	2	24MD	0	1	0.850433111191	None	None	None	None	1
1.7	2015_Aug_05_1445	s	s	17	2	SIC	170	RC	2	1	23VO	1	0	0.658468008041	457.0	230.0	452	224	1
1.7	2015_Aug_05_1445	s	s	17	2	SIC	171	ABS	2	0	24VC	0	1	0.756586074829	None	None	None	None	1
1.7	2015_Aug_05_1445	s	s	17	2	SIC	172	ABS	1	0	24MC	1	0	4.96650600433	None	None	-300	144	0
1.7	2015_Aug_05_1445	s	s	17	2	SIC	173	ABS	1	1	24MO	0	1	3.67177915573	None	None	None	None	1
1.7	2015_Aug_05_1445	s	s	17	2	SIC	174	RC	1	0	23MC	1	0	0.988127946854	-279.0	158.0	-284	155	1
1.7	2015_Aug_05_1445	s	s	17	2	SIC	175	RC	0	1	23RO	1	0	1.07047796249	-186.0	178.0	-196	183	1
1.7	2015_Aug_05_1445	s	s	17	2	SIC	176	RC	1	1	23MO	1	0	1.35035395622	-83.0	220.0	-82	218	1
1.7	2015_Aug_05_1445	s	s	17	2	SIC	177	RC	1	0	23MC	1	0	0.594429969788	-454.0	206.0	-448	203	1
1.7	2015_Aug_05_1445	s	s	17	2	SIC	178	RC	2	0	23VC	1	0	0.582938909531	32.0	186.0	24	189	1
1.7	2015_Aug_05_1445	s	s	17	2	SIC	179	RC	1	2	23MD	1	0	0.996551036835	-115.0	-364.0	-121	-369	1
1.7	2015_Aug_05_1445	s	s	17	2	SIC	180	ABS	1	1	24MO	0	1	2.36031603813	None	None	None	None	1
1.7	2015_Aug_05_1445	s	s	17	2	SIC	181	RC	0	2	23RD	1	0	0.652920007706	99.0	-352.0	97	-353	1
1.7	2015_Aug_05_1445	s	s	17	2	SIC	182	RC	1	1	23MO	1	0	1.81206297874	-172.0	347.0	-164	352	1
1.7	2015_Aug_05_1445	s	s	17	2	SIC	183	ABS	1	0	24MC	0	1	2.41906499863	None	None	None	None	1
1.7	2015_Aug_05_1445	s	s	17	2	SIC	184	RC	0	1	23RO	1	0	1.63057208061	35.0	-179.0	35	-179	1
1.7	2015_Aug_05_1445	s	s	17	2	SIC	185	ABS	2	2	24VD	0	1	0.655100107193	None	None	None	None	1
1.7	2015_Aug_05_1445	s	s	17	2	SIC	186	ABS	2	1	24VO	0	1	0.608771085739	None	None	None	None	1
1.7	2015_Aug_05_1445	s	s	17	2	SIC	187	RC	2	2	23VD	1	0	2.34176111221	394.0	-19.0	401	-22	1
1.7	2015_Aug_05_1445	s	s	17	2	SIC	188	ABS	0	1	24RO	0	1	3.92830395699	None	None	None	None	1
1.7	2015_Aug_05_1445	s	s	17	2	SIC	189	ABS	2	0	24VC	0	1	0.611444950104	None	None	None	None	1
1.7	2015_Aug_05_1445	s	s	17	2	SIC	190	ABS	0	2	24RD	0	1	7.0735180378	None	None	None	None	1
1.7	2015_Aug_05_1445	s	s	17	2	SIC	191	ABS	1	2	24MD	0	1	2.51827716827	None	None	None	None	1
1.7	2015_Aug_05_1445	s	s	17	2	SIC	192	RC	2	1	23VO	1	0	1.40008378029	-295.0	390.0	-287	395	1
1.7	2015_Aug_05_1445	s	s	17	2	SIC	193	ABS	1	2	24MD	0	1	1.39497613907	None	None	None	None	1
1.7	2015_Aug_05_1445	s	s	17	2	SIC	194	ABS	1	1	24MO	0	1	2.8832628727	None	None	None	None	1
1.7	2015_Aug_05_1445	s	s	17	2	SIC	195	ABS	2	0	24VC	0	1	0.587882041931	None	None	None	None	1
1.7	2015_Aug_05_1445	s	s	17	2	SIC	196	RC	2	1	23VO	1	0	0.476826190948	46.0	148.0	46	151	1
1.7	2015_Aug_05_1445	s	s	17	2	SIC	197	RC	1	1	23MO	1	0	0.747740983963	-137.0	248.0	-141	242	1
1.7	2015_Aug_05_1445	s	s	17	2	SIC	198	ABS	1	0	24MC	0	1	4.07183909416	None	None	None	None	1
1.7	2015_Aug_05_1445	s	s	17	2	SIC	199	RC	2	2	23VD	1	0	0.700357198715	-91.0	387.0	-105	393	1
1.7	2015_Aug_05_1445	s	s	17	2	SIC	200	ABS	0	2	24RD	0	1	1.689245224	None	None	None	None	1
1.7	2015_Aug_05_1445	s	s	17	2	SIC	201	ABS	2	1	24VO	0	1	0.77624297142	None	None	None	None	1
1.7	2015_Aug_05_1445	s	s	17	2	SIC	202	RC	1	0	23MC	1	0	4.64409399033	448.0	291.0	-195	-24	0
1.7	2015_Aug_05_1445	s	s	17	2	SIC	203	RC	1	2	23MD	1	0	0.688790082932	175.0	-135.0	176	-129	1
1.7	2015_Aug_05_1445	s	s	17	2	SIC	204	RC	0	2	23RD	1	0	2.37161493301	495.0	-274.0	503	-273	1
1.7	2015_Aug_05_1445	s	s	17	2	SIC	205	RC	0	1	23RO	0	1	3.648250103	-327.0	-230.0	None	None	0
1.7	2015_Aug_05_1445	s	s	17	2	SIC	206	ABS	0	1	24RO	0	1	3.26525902748	None	None	None	None	1
1.7	2015_Aug_05_1445	s	s	17	2	SIC	207	ABS	2	2	24VD	0	1	1.14133310318	None	None	None	None	1
1.7	2015_Aug_05_1445	s	s	17	2	SIC	208	RC	2	0	23VC	1	0	0.512729167938	-432.0	-301.0	-423	-297	1
1.7	2015_Aug_05_1445	s	s	17	2	SIC	209	ABS	0	1	24RO	0	1	2.73662614822	None	None	None	None	1
1.7	2015_Aug_05_1445	s	s	17	2	SIC	210	RC	0	2	23RD	1	0	0.740926027298	139.0	-286.0	145	-279	1
1.7	2015_Aug_05_1445	s	s	17	2	SIC	211	ABS	1	0	24MC	0	1	3.92797899246	None	None	None	None	1
1.7	2015_Aug_05_1445	s	s	17	2	SIC	212	ABS	1	2	24MD	0	1	2.06610107422	None	None	None	None	1
1.7	2015_Aug_05_1445	s	s	17	2	SIC	213	RC	1	0	23MC	1	0	0.999850034714	318.0	167.0	324	159	1
1.7	2015_Aug_05_1445	s	s	17	2	SIC	214	ABS	2	2	24VD	0	1	0.653131008148	None	None	None	None	1
1.7	2015_Aug_05_1445	s	s	17	2	SIC	215	RC	0	1	23RO	1	0	1.26541590691	-226.0	91.0	-216	97	1
1.7	2015_Aug_05_1445	s	s	17	2	SIC	216	ABS	1	1	24MO	0	1	2.98422503471	None	None	None	None	1
1.7	2015_Aug_05_1445	s	s	17	2	SIC	217	ABS	2	0	24VC	0	1	0.629026889801	None	None	None	None	1
1.7	2015_Aug_05_1445	s	s	17	2	SIC	218	RC	2	2	23VD	1	0	0.465162038803	305.0	148.0	303	142	1
1.7	2015_Aug_05_1445	s	s	17	2	SIC	219	RC	1	1	23MO	1	0	0.988066911697	-321.0	-76.0	-331	-77	1
1.7	2015_Aug_05_1445	s	s	17	2	SIC	220	ABS	0	2	24RD	0	1	3.01256895065	None	None	None	None	1
1.7	2015_Aug_05_1445	s	s	17	2	SIC	221	RC	1	2	23MD	1	0	0.536967992783	-80.0	320.0	-74	317	1
1.7	2015_Aug_05_1445	s	s	17	2	SIC	222	ABS	2	1	24VO	0	1	0.429988145828	None	None	None	None	1
1.7	2015_Aug_05_1445	s	s	17	2	SIC	223	RC	2	1	23VO	1	0	0.499650001526	-213.0	-185.0	-221	-186	1
1.7	2015_Aug_05_1445	s	s	17	2	SIC	224	RC	2	0	23VC	1	0	0.481965065002	-283.0	-138.0	-278	-143	1
1.7	2015_Aug_05_1445	s	s	17	2	SIC	225	ABS	0	1	24RO	0	1	2.98406600952	None	None	None	None	1
1.7	2015_Aug_05_1445	s	s	17	2	SIC	226	RC	1	2	23MD	1	0	0.85560798645	-88.0	-133.0	-87	-124	1
1.7	2015_Aug_05_1445	s	s	17	2	SIC	227	RC	0	1	23RO	1	0	2.95066404343	278.0	-65.0	287	-60	1
1.7	2015_Aug_05_1445	s	s	17	2	SIC	228	ABS	2	2	24VD	0	1	0.453347921371	None	None	None	None	1
1.7	2015_Aug_05_1445	s	s	17	2	SIC	229	RC	2	0	23VC	1	0	0.517279863358	-68.0	-393.0	-67	-396	1
1.7	2015_Aug_05_1445	s	s	17	2	SIC	230	ABS	1	2	24MD	0	1	0.893835067749	None	None	None	None	1
1.7	2015_Aug_05_1445	s	s	17	2	SIC	231	ABS	2	0	24VC	0	1	0.502233028412	None	None	None	None	1
1.7	2015_Aug_05_1445	s	s	17	2	SIC	232	RC	0	2	23RD	1	0	0.617558956146	-523.0	-53.0	-523	-56	1
1.7	2015_Aug_05_1445	s	s	17	2	SIC	233	ABS	1	1	24MO	0	1	2.88310408592	None	None	None	None	1
1.7	2015_Aug_05_1445	s	s	17	2	SIC	234	ABS	2	1	24VO	0	1	1.35021114349	None	None	None	None	1
1.7	2015_Aug_05_1445	s	s	17	2	SIC	235	RC	2	2	23VD	1	0	0.513829946518	-59.0	-233.0	-57	-236	1
1.7	2015_Aug_05_1445	s	s	17	2	SIC	236	ABS	0	2	24RD	0	1	1.29413700104	None	None	None	None	1
1.7	2015_Aug_05_1445	s	s	17	2	SIC	237	RC	1	1	23MO	1	0	1.27739286423	-355.0	70.0	-355	61	1
1.7	2015_Aug_05_1445	s	s	17	2	SIC	238	RC	1	0	23MC	1	0	1.13532590866	466.0	-107.0	466	-123	1
1.7	2015_Aug_05_1445	s	s	17	2	SIC	239	ABS	1	0	24MC	0	1	2.72997713089	None	None	None	None	1
1.7	2015_Aug_05_1445	s	s	17	2	SIC	240	RC	2	1	23VO	1	0	0.477421045303	18.0	-374.0	18	-368	1
1.7	2015_Aug_05_1445	s	s	17	2	SIC	241	ABS	2	2	24VD	0	1	0.526638031006	None	None	None	None	1
1.7	2015_Aug_05_1445	s	s	17	2	SIC	242	RC	2	1	23VO	1	0	0.58293390274	473.0	67.0	481	63	1
1.7	2015_Aug_05_1445	s	s	17	2	SIC	243	ABS	2	0	24VC	0	1	0.619931936264	None	None	None	None	1
1.7	2015_Aug_05_1445	s	s	17	2	SIC	244	ABS	0	1	24RO	0	1	5.22067284584	None	None	None	None	1
1.7	2015_Aug_05_1445	s	s	17	2	SIC	245	ABS	1	1	24MO	0	0	-1	None	None	None	None	-1
1.7	2015_Aug_05_1445	s	s	17	2	SIC	246	ABS	1	0	24MC	0	0	-1	None	None	None	None	-1
1.7	2015_Aug_05_1445	s	s	17	2	SIC	247	ABS	0	2	24RD	0	1	5.01360106468	None	None	None	None	1
1.7	2015_Aug_05_1445	s	s	17	2	SIC	248	ABS	1	2	24MD	0	1	0.559190988541	None	None	None	None	1
1.7	2015_Aug_05_1445	s	s	17	2	SIC	249	RC	0	2	23RD	1	0	0.635395050049	-455.0	-112.0	-455	-111	1
1.7	2015_Aug_05_1445	s	s	17	2	SIC	250	RC	0	1	23RO	1	0	2.9653968811	-392.0	401.0	-384	405	1
1.7	2015_Aug_05_1445	s	s	17	2	SIC	251	RC	2	0	23VC	1	0	0.681761980057	538.0	-49.0	540	-54	1
1.7	2015_Aug_05_1445	s	s	17	2	SIC	252	RC	1	2	23MD	1	0	0.642282009125	85.0	148.0	85	147	1
1.7	2015_Aug_05_1445	s	s	17	2	SIC	253	RC	1	1	23MO	1	0	1.09032607079	-219.0	61.0	-216	68	1
1.7	2015_Aug_05_1445	s	s	17	2	SIC	254	ABS	2	1	24VO	0	1	0.646709918976	None	None	None	None	1
1.7	2015_Aug_05_1445	s	s	17	2	SIC	255	RC	1	0	23MC	1	0	1.01532387733	-302.0	218.0	-299	216	1
1.7	2015_Aug_05_1445	s	s	17	2	SIC	256	RC	2	2	23VD	1	0	0.458359956741	-179.0	58.0	-188	55	1
1.7	2015_Aug_05_1445	s	s	17	2	SIC	257	ABS	2	2	24VD	0	1	0.653500080109	None	None	None	None	1
1.7	2015_Aug_05_1445	s	s	17	2	SIC	258	RC	2	1	23VO	1	0	0.512537002563	103.0	-305.0	111	-300	1
1.7	2015_Aug_05_1445	s	s	17	2	SIC	259	RC	0	1	23RO	0	1	4.58991003036	-53.0	291.0	None	None	0
1.7	2015_Aug_05_1445	s	s	17	2	SIC	260	ABS	2	0	24VC	0	1	0.676446914673	None	None	None	None	1
1.7	2015_Aug_05_1445	s	s	17	2	SIC	261	RC	1	2	23MD	1	0	0.664492845535	83.0	-36.0	86	-42	1
1.7	2015_Aug_05_1445	s	s	17	2	SIC	262	ABS	1	1	24MO	0	1	1.92414283752	None	None	None	None	1
1.7	2015_Aug_05_1445	s	s	17	2	SIC	263	RC	2	0	23VC	1	0	0.488800048828	-178.0	92.0	-175	101	1
1.7	2015_Aug_05_1445	s	s	17	2	SIC	264	RC	1	1	23MO	1	0	1.13781380653	10.0	5.0	12	2	1
1.7	2015_Aug_05_1445	s	s	17	2	SIC	265	ABS	0	2	24RD	0	1	1.1008079052	None	None	None	None	1
1.7	2015_Aug_05_1445	s	s	17	2	SIC	266	ABS	1	0	24MC	0	1	2.51829695702	None	None	None	None	1
1.7	2015_Aug_05_1445	s	s	17	2	SIC	267	ABS	1	2	24MD	0	1	0.947937965393	None	None	None	None	1
1.7	2015_Aug_05_1445	s	s	17	2	SIC	268	RC	2	2	23VD	1	0	0.429759979248	-384.0	301.0	-394	303	1
1.7	2015_Aug_05_1445	s	s	17	2	SIC	269	RC	1	0	23MC	1	0	0.897640943527	-152.0	206.0	-148	210	1
1.7	2015_Aug_05_1445	s	s	17	2	SIC	270	RC	0	2	23RD	1	0	0.51727104187	447.0	138.0	453	135	1
1.7	2015_Aug_05_1445	s	s	17	2	SIC	271	ABS	2	1	24VO	0	1	0.587875843048	None	None	None	None	1
1.7	2015_Aug_05_1445	s	s	17	2	SIC	272	ABS	0	1	24RO	0	1	3.78949213028	None	None	None	None	1
1.7	2015_Aug_05_1445	s	s	17	2	SIC	273	ABS	1	1	24MO	0	1	3.27818512917	None	None	None	None	1
1.7	2015_Aug_05_1445	s	s	17	2	SIC	274	RC	1	0	23MC	1	0	1.27903699875	-181.0	116.0	-181	111	1
1.7	2015_Aug_05_1445	s	s	17	2	SIC	275	ABS	1	2	24MD	0	1	1.31313896179	None	None	None	None	1
1.7	2015_Aug_05_1445	s	s	17	2	SIC	276	RC	2	0	23VC	1	0	0.552648067474	104.0	63.0	108	66	1
1.7	2015_Aug_05_1445	s	s	17	2	SIC	277	RC	2	1	23VO	1	0	0.505440950394	-284.0	289.0	-286	286	1
1.7	2015_Aug_05_1445	s	s	17	2	SIC	278	ABS	1	0	24MC	1	0	1.61840009689	None	None	-42	-251	0
1.7	2015_Aug_05_1445	s	s	17	2	SIC	279	ABS	0	1	24RO	0	1	5.9849448204	None	None	None	None	1
1.7	2015_Aug_05_1445	s	s	17	2	SIC	280	RC	2	2	23VD	1	0	0.517235040665	-420.0	-386.0	-415	-387	1
1.7	2015_Aug_05_1445	s	s	17	2	SIC	281	RC	0	1	23RO	0	1	3.74236893654	491.0	238.0	None	None	0
1.7	2015_Aug_05_1445	s	s	17	2	SIC	282	RC	1	2	23MD	1	0	0.964595079422	350.0	194.0	353	203	1
1.7	2015_Aug_05_1445	s	s	17	2	SIC	283	RC	0	2	23RD	1	0	0.505525112152	-436.0	-50.0	-436	-52	1
1.7	2015_Aug_05_1445	s	s	17	2	SIC	284	ABS	2	0	24VC	0	1	0.655482053757	None	None	None	None	1
1.7	2015_Aug_05_1445	s	s	17	2	SIC	285	ABS	2	1	24VO	0	1	0.911405086517	None	None	None	None	1
1.7	2015_Aug_05_1445	s	s	17	2	SIC	286	ABS	2	2	24VD	0	1	0.936416149139	None	None	None	None	1
1.7	2015_Aug_05_1445	s	s	17	2	SIC	287	RC	1	1	23MO	1	0	3.58432507515	390.0	132.0	400	131	1
1.7	2015_Aug_05_1445	s	s	17	2	SIC	288	ABS	0	2	24RD	0	1	1.2327299118	None	None	None	None	1
1.7	2015_Aug_05_1445	s	s	17	2	SIC	289	RC	1	1	23MO	1	0	1.36089992523	-434.0	324.0	-420	331	1
1.7	2015_Aug_05_1445	s	s	17	2	SIC	290	RC	2	1	23VO	1	0	0.540824890137	-521.0	-318.0	-522	-321	1
1.7	2015_Aug_05_1445	s	s	17	2	SIC	291	ABS	1	1	24MO	0	1	3.4716899395	None	None	None	None	1
1.7	2015_Aug_05_1445	s	s	17	2	SIC	292	RC	0	2	23RD	1	0	0.623157978058	219.0	-191.0	226	-191	1
1.7	2015_Aug_05_1445	s	s	17	2	SIC	293	RC	1	2	23MD	1	0	0.70562505722	-474.0	107.0	-468	102	1
1.7	2015_Aug_05_1445	s	s	17	2	SIC	294	ABS	1	0	24MC	1	0	0.841411113739	None	None	-180	268	0
1.7	2015_Aug_05_1445	s	s	17	2	SIC	295	ABS	2	0	24VC	0	1	0.599640846252	None	None	None	None	1
1.7	2015_Aug_05_1445	s	s	17	2	SIC	296	ABS	1	2	24MD	0	1	1.21172404289	None	None	None	None	1
1.7	2015_Aug_05_1445	s	s	17	2	SIC	297	RC	2	0	23VC	1	0	5.36414909363	-337.0	-390.0	-338	-399	1
1.7	2015_Aug_05_1445	s	s	17	2	SIC	298	RC	0	1	23RO	1	0	5.63743281364	-533.0	-369.0	-540	-368	1
1.7	2015_Aug_05_1445	s	s	17	2	SIC	299	ABS	2	2	24VD	0	1	11.6486079693	None	None	None	None	1
1.7	2015_Aug_05_1445	s	s	17	2	SIC	300	RC	1	0	23MC	1	0	2.85713505745	339.0	264.0	341	257	1
1.7	2015_Aug_05_1445	s	s	17	2	SIC	301	RC	2	2	23VD	1	0	5.55507421494	20.0	-372.0	17	-374	1
1.7	2015_Aug_05_1445	s	s	17	2	SIC	302	ABS	0	2	24RD	0	1	2.28893613815	None	None	None	None	1
1.7	2015_Aug_05_1445	s	s	17	2	SIC	303	ABS	0	1	24RO	0	1	4.5754981041	None	None	None	None	1
1.7	2015_Aug_05_1445	s	s	17	2	SIC	304	ABS	2	1	24VO	0	1	0.583113193512	None	None	None	None	1
1.7	2015_Aug_05_1445	s	s	17	2	SIC	305	RC	0	1	23RO	0	1	4.10726594925	55.0	-342.0	None	None	0
1.7	2015_Aug_05_1445	s	s	17	2	SIC	306	RC	2	0	23VC	1	0	0.882385015488	401.0	339.0	407	334	1
1.7	2015_Aug_05_1445	s	s	17	2	SIC	307	ABS	2	1	24VO	0	1	1.14114403725	None	None	None	None	1
1.7	2015_Aug_05_1445	s	s	17	2	SIC	308	RC	1	2	23MD	1	0	4.09044504166	-8.0	-373.0	-14	-377	1
1.7	2015_Aug_05_1445	s	s	17	2	SIC	309	ABS	1	1	24MO	0	1	3.54224205017	None	None	None	None	1
1.7	2015_Aug_05_1445	s	s	17	2	SIC	310	ABS	1	2	24MD	0	1	5.15532016754	None	None	None	None	1
1.7	2015_Aug_05_1445	s	s	17	2	SIC	311	ABS	2	2	24VD	0	1	7.430134058	None	None	None	None	1
1.7	2015_Aug_05_1445	s	s	17	2	SIC	312	ABS	0	2	24RD	0	1	1.52965402603	None	None	None	None	1
1.7	2015_Aug_05_1445	s	s	17	2	SIC	313	RC	1	0	23MC	1	0	2.14158010483	-24.0	-372.0	-30	-369	1
1.7	2015_Aug_05_1445	s	s	17	2	SIC	314	RC	2	1	23VO	1	0	0.500504016876	359.0	242.0	364	245	1
1.7	2015_Aug_05_1445	s	s	17	2	SIC	315	RC	0	2	23RD	1	0	0.500818014145	-277.0	-148.0	-267	-149	1
1.7	2015_Aug_05_1445	s	s	17	2	SIC	316	ABS	2	0	24VC	0	1	0.549968957901	None	None	None	None	1
1.7	2015_Aug_05_1445	s	s	17	2	SIC	317	ABS	1	0	24MC	0	1	2.71837902069	None	None	None	None	1
1.7	2015_Aug_05_1445	s	s	17	2	SIC	318	RC	2	2	23VD	1	0	0.45604300499	-499.0	-83.0	-493	-86	1
1.7	2015_Aug_05_1445	s	s	17	2	SIC	319	RC	1	1	23MO	1	0	1.54841995239	439.0	-152.0	429	-154	1
1.7	2015_Aug_05_1445	s	s	17	2	SIC	320	ABS	0	1	24RO	0	1	3.58564400673	None	None	None	None	1
1.7	2015_Aug_05_1445	s	s	17	2	SIC	321	ABS	2	1	24VO	0	1	0.564280033112	None	None	None	None	1
1.7	2015_Aug_05_1445	s	s	17	2	SIC	322	RC	1	0	23MC	1	0	2.53031897545	-56.0	-72.0	-56	-70	1
1.7	2015_Aug_05_1445	s	s	17	2	SIC	323	ABS	0	2	24RD	0	1	0.94096493721	None	None	None	None	1
1.7	2015_Aug_05_1445	s	s	17	2	SIC	324	RC	2	1	23VO	1	0	0.607445001602	462.0	-258.0	461	-254	1
1.7	2015_Aug_05_1445	s	s	17	2	SIC	325	RC	2	0	23VC	1	0	0.853539943695	490.0	378.0	486	366	1
1.7	2015_Aug_05_1445	s	s	17	2	SIC	326	ABS	1	1	24MO	0	1	5.90818691254	None	None	None	None	1
1.7	2015_Aug_05_1445	s	s	17	2	SIC	327	ABS	0	1	24RO	0	1	4.52820706367	None	None	None	None	1
1.7	2015_Aug_05_1445	s	s	17	2	SIC	328	ABS	1	2	24MD	0	1	0.620634078979	None	None	None	None	1
1.7	2015_Aug_05_1445	s	s	17	2	SIC	329	RC	1	1	23MO	1	0	0.882175922394	167.0	-39.0	162	-40	1
1.7	2015_Aug_05_1445	s	s	17	2	SIC	330	ABS	1	0	24MC	1	0	5.45291805267	None	None	53	-310	0
1.7	2015_Aug_05_1445	s	s	17	2	SIC	331	RC	2	2	23VD	1	0	0.510343074799	68.0	309.0	67	304	1
1.7	2015_Aug_05_1445	s	s	17	2	SIC	332	RC	0	2	23RD	1	0	0.54451417923	-378.0	-245.0	-372	-247	1
1.7	2015_Aug_05_1445	s	s	17	2	SIC	333	RC	1	2	23MD	1	0	0.429816007614	-51.0	41.0	-57	41	1
1.7	2015_Aug_05_1445	s	s	17	2	SIC	334	RC	0	1	23RO	1	0	0.796170949936	423.0	215.0	415	210	1
1.7	2015_Aug_05_1445	s	s	17	2	SIC	335	ABS	2	2	24VD	0	1	0.646991014481	None	None	None	None	1
1.7	2015_Aug_05_1445	s	s	17	2	SIC	336	ABS	2	0	24VC	0	1	0.724210977554	None	None	None	None	1
1.7	2015_Aug_05_1445	s	s	17	2	SIC	337	RC	0	2	23RD	1	0	0.529017925262	-81.0	127.0	-89	126	1
1.7	2015_Aug_05_1445	s	s	17	2	SIC	338	ABS	2	0	24VC	0	1	1.87700915337	None	None	None	None	1
1.7	2015_Aug_05_1445	s	s	17	2	SIC	339	ABS	1	2	24MD	0	1	0.611526966095	None	None	None	None	1
1.7	2015_Aug_05_1445	s	s	17	2	SIC	340	ABS	2	2	24VD	0	1	0.453460931778	None	None	None	None	1
1.7	2015_Aug_05_1445	s	s	17	2	SIC	341	ABS	1	1	24MO	0	1	1.87089014053	None	None	None	None	1
1.7	2015_Aug_05_1445	s	s	17	2	SIC	342	RC	0	1	23RO	1	0	1.95924901962	-247.0	-136.0	-236	-135	1
1.7	2015_Aug_05_1445	s	s	17	2	SIC	343	ABS	1	0	24MC	0	1	3.65625905991	None	None	None	None	1
1.7	2015_Aug_05_1445	s	s	17	2	SIC	344	ABS	0	1	24RO	0	1	3.5894100666	None	None	None	None	1
1.7	2015_Aug_05_1445	s	s	17	2	SIC	345	ABS	0	2	24RD	0	1	0.599686861038	None	None	None	None	1
1.7	2015_Aug_05_1445	s	s	17	2	SIC	346	RC	1	0	23MC	1	0	2.40737509727	-119.0	-392.0	-108	-391	1
1.7	2015_Aug_05_1445	s	s	17	2	SIC	347	RC	2	1	23VO	1	0	0.517170190811	398.0	40.0	392	39	1
1.7	2015_Aug_05_1445	s	s	17	2	SIC	348	RC	1	1	23MO	1	0	0.80662894249	-273.0	219.0	-280	219	1
1.7	2015_Aug_05_1445	s	s	17	2	SIC	349	RC	2	2	23VD	1	0	0.470124006271	-130.0	-220.0	-129	-219	1
1.7	2015_Aug_05_1445	s	s	17	2	SIC	350	RC	1	2	23MD	1	0	0.729103088379	189.0	-375.0	184	-376	1
1.7	2015_Aug_05_1445	s	s	17	2	SIC	351	ABS	2	1	24VO	0	1	0.453465938568	None	None	None	None	1
1.7	2015_Aug_05_1445	s	s	17	2	SIC	352	RC	2	0	23VC	1	0	0.729573965073	-345.0	-411.0	-346	-406	1
1.7	2015_Aug_05_1445	s	s	17	2	SIC	353	ABS	2	1	24VO	0	1	0.51243185997	None	None	None	None	1
1.7	2015_Aug_05_1445	s	s	17	2	SIC	354	RC	0	1	23RO	1	0	0.823364973068	-34.0	313.0	-27	313	1
1.7	2015_Aug_05_1445	s	s	17	2	SIC	355	ABS	0	1	24RO	0	1	4.22500801086	None	None	None	None	1
1.7	2015_Aug_05_1445	s	s	17	2	SIC	356	ABS	1	0	24MC	0	1	2.77715706825	None	None	None	None	1
1.7	2015_Aug_05_1445	s	s	17	2	SIC	357	ABS	2	0	24VC	0	1	0.535869121552	None	None	None	None	1
1.7	2015_Aug_05_1445	s	s	17	2	SIC	358	RC	2	2	23VD	1	0	0.61855506897	493.0	-60.0	497	-54	1
1.7	2015_Aug_05_1445	s	s	17	2	SIC	359	ABS	1	1	24MO	0	1	4.27212715149	None	None	None	None	1
1.7	2015_Aug_05_1445	s	s	17	2	SIC	360	RC	0	2	23RD	1	0	0.606307029724	463.0	-13.0	475	-3	1
1.7	2015_Aug_05_1445	s	s	17	2	SIC	361	RC	1	1	23MO	1	0	0.617712974548	-172.0	-7.0	-164	-6	1
1.7	2015_Aug_05_1445	s	s	17	2	SIC	362	RC	1	0	23MC	1	0	2.77398896217	45.0	-189.0	32	-185	1
1.7	2015_Aug_05_1445	s	s	17	2	SIC	363	RC	2	0	23VC	1	0	0.646682024002	-67.0	195.0	-69	190	1
1.7	2015_Aug_05_1445	s	s	17	2	SIC	364	ABS	0	2	24RD	0	1	0.71467089653	None	None	None	None	1
1.7	2015_Aug_05_1445	s	s	17	2	SIC	365	ABS	2	2	24VD	0	1	0.57613492012	None	None	None	None	1
1.7	2015_Aug_05_1445	s	s	17	2	SIC	366	ABS	1	2	24MD	0	1	1.324395895	None	None	None	None	1
1.7	2015_Aug_05_1445	s	s	17	2	SIC	367	RC	1	2	23MD	1	0	0.561862945557	-168.0	-286.0	-177	-285	1
1.7	2015_Aug_05_1445	s	s	17	2	SIC	368	RC	2	1	23VO	1	0	0.441510915756	-480.0	197.0	-475	200	1
1.7	2015_Aug_05_1445	s	s	17	2	SIC	369	ABS	0	2	24RD	0	1	0.87869977951	None	None	None	None	1
1.7	2015_Aug_05_1445	s	s	17	2	SIC	370	RC	2	2	23VD	1	0	0.481992006302	304.0	-353.0	310	-357	1
1.7	2015_Aug_05_1445	s	s	17	2	SIC	371	ABS	1	1	24MO	0	1	2.71337199211	None	None	None	None	1
1.7	2015_Aug_05_1445	s	s	17	2	SIC	372	ABS	0	1	24RO	0	1	2.56516981125	None	None	None	None	1
1.7	2015_Aug_05_1445	s	s	17	2	SIC	373	ABS	1	2	24MD	0	1	0.890797138214	None	None	None	None	1
1.7	2015_Aug_05_1445	s	s	17	2	SIC	374	RC	0	2	23RD	1	0	0.458467960358	-481.0	232.0	-474	238	1
1.7	2015_Aug_05_1445	s	s	17	2	SIC	375	RC	1	2	23MD	1	0	0.482084035873	-6.0	280.0	-4	285	1
1.7	2015_Aug_05_1445	s	s	17	2	SIC	376	ABS	2	0	24VC	0	1	0.520913124084	None	None	None	None	1
1.7	2015_Aug_05_1445	s	s	17	2	SIC	377	RC	1	1	23MO	1	0	1.30071282387	385.0	-5.0	395	-5	1
1.7	2015_Aug_05_1445	s	s	17	2	SIC	378	RC	0	1	23RO	1	0	3.78986287117	-533.0	64.0	-531	63	1
1.7	2015_Aug_05_1445	s	s	17	2	SIC	379	ABS	2	2	24VD	0	1	0.442626953125	None	None	None	None	1
1.7	2015_Aug_05_1445	s	s	17	2	SIC	380	ABS	2	1	24VO	0	1	0.488888978958	None	None	None	None	1
1.7	2015_Aug_05_1445	s	s	17	2	SIC	381	RC	1	0	23MC	1	0	2.45405483246	522.0	-352.0	532	-353	1
1.7	2015_Aug_05_1445	s	s	17	2	SIC	382	RC	2	1	23VO	1	0	0.535575151443	87.0	393.0	92	392	1
1.7	2015_Aug_05_1445	s	s	17	2	SIC	383	ABS	1	0	24MC	0	1	2.4630010128	None	None	None	None	1
1.7	2015_Aug_05_1445	s	s	17	2	SIC	384	RC	2	0	23VC	1	0	0.515050888062	-155.0	319.0	-150	311	1
1.7	2015_Aug_05_1445	s	s	17	2	SIC	385	RC	2	1	23VO	1	0	0.545063972473	-164.0	358.0	-167	364	1
1.7	2015_Aug_05_1445	s	s	17	2	SIC	386	ABS	2	2	24VD	0	1	0.564349889755	None	None	None	None	1
1.7	2015_Aug_05_1445	s	s	17	2	SIC	387	ABS	1	1	24MO	0	1	4.37001085281	None	None	None	None	1
1.7	2015_Aug_05_1445	s	s	17	2	SIC	388	RC	2	2	23VD	1	0	0.564317941666	96.0	196.0	95	196	1
1.7	2015_Aug_05_1445	s	s	17	2	SIC	389	RC	0	2	23RD	1	0	0.558921813965	-267.0	-367.0	-260	-363	1
1.7	2015_Aug_05_1445	s	s	17	2	SIC	390	ABS	1	2	24MD	0	1	2.12980008125	None	None	None	None	1
1.7	2015_Aug_05_1445	s	s	17	2	SIC	391	RC	1	1	23MO	1	0	1.35283493996	-252.0	-128.0	-255	-124	1
1.7	2015_Aug_05_1445	s	s	17	2	SIC	392	ABS	1	0	24MC	0	0	-1	None	None	None	None	-1
1.7	2015_Aug_05_1445	s	s	17	2	SIC	393	RC	1	0	23MC	1	0	1.51787090302	-158.0	6.0	-165	6	1
1.7	2015_Aug_05_1445	s	s	17	2	SIC	394	ABS	0	1	24RO	0	1	4.7667620182	None	None	None	None	1
1.7	2015_Aug_05_1445	s	s	17	2	SIC	395	RC	2	0	23VC	1	0	0.654311180115	-161.0	322.0	-156	320	1
1.7	2015_Aug_05_1445	s	s	17	2	SIC	396	RC	0	1	23RO	1	0	2.34869503975	-377.0	162.0	-371	155	1
1.7	2015_Aug_05_1445	s	s	17	2	SIC	397	RC	1	2	23MD	1	0	0.482026100159	-169.0	73.0	-167	64	1
1.7	2015_Aug_05_1445	s	s	17	2	SIC	398	ABS	0	2	24RD	0	1	1.08902692795	None	None	None	None	1
1.7	2015_Aug_05_1445	s	s	17	2	SIC	399	ABS	2	0	24VC	0	1	0.572281837463	None	None	None	None	1
1.7	2015_Aug_05_1445	s	s	17	2	SIC	400	ABS	2	1	24VO	0	1	0.467442989349	None	None	None	None	1
1.7	2015_Aug_05_1445	s	s	17	2	SIC	401	RC	0	1	23RO	1	0	1.62084698677	496.0	333.0	502	332	1
1.7	2015_Aug_05_1445	s	s	17	2	SIC	402	RC	2	0	23VC	1	0	0.477586984634	386.0	221.0	389	215	1
1.7	2015_Aug_05_1445	s	s	17	2	SIC	403	ABS	1	0	24MC	0	1	2.98904800415	None	None	None	None	1
1.7	2015_Aug_05_1445	s	s	17	2	SIC	404	RC	2	1	23VO	1	0	0.699991941452	458.0	290.0	463	287	1
1.7	2015_Aug_05_1445	s	s	17	2	SIC	405	RC	1	2	23MD	1	0	0.829487800598	-223.0	-357.0	-220	-352	1
1.7	2015_Aug_05_1445	s	s	17	2	SIC	406	RC	1	0	23MC	1	0	0.752734184265	-473.0	211.0	-467	209	1
1.7	2015_Aug_05_1445	s	s	17	2	SIC	407	RC	1	1	23MO	1	0	1.17167496681	350.0	378.0	345	375	1
1.7	2015_Aug_05_1445	s	s	17	2	SIC	408	ABS	2	2	24VD	0	1	0.623217821121	None	None	None	None	1
1.7	2015_Aug_05_1445	s	s	17	2	SIC	409	RC	0	2	23RD	1	0	0.488684892654	406.0	-1.0	406	-4	1
1.7	2015_Aug_05_1445	s	s	17	2	SIC	410	ABS	1	2	24MD	0	1	0.970044136047	None	None	None	None	1
1.7	2015_Aug_05_1445	s	s	17	2	SIC	411	ABS	1	1	24MO	0	1	4.33086109161	None	None	None	None	1
1.7	2015_Aug_05_1445	s	s	17	2	SIC	412	RC	2	2	23VD	1	0	0.40648317337	429.0	-84.0	421	-77	1
1.7	2015_Aug_05_1445	s	s	17	2	SIC	413	ABS	0	1	24RO	0	1	3.93755912781	None	None	None	None	1
1.7	2015_Aug_05_1445	s	s	17	2	SIC	414	ABS	0	2	24RD	0	1	1.02349686623	None	None	None	None	1
1.7	2015_Aug_05_1445	s	s	17	2	SIC	415	ABS	2	1	24VO	0	1	0.92453789711	None	None	None	None	1
1.7	2015_Aug_05_1445	s	s	17	2	SIC	416	ABS	2	0	24VC	0	1	0.540859937668	None	None	None	None	1
1.7	2015_Aug_05_1445	s	s	17	2	SIC	417	RC	1	0	23MC	1	0	1.55308294296	391.0	376.0	404	379	1
1.7	2015_Aug_05_1445	s	s	17	2	SIC	418	RC	2	1	23VO	1	0	0.823268890381	506.0	-292.0	512	-290	1
1.7	2015_Aug_05_1445	s	s	17	2	SIC	419	RC	2	0	23VC	1	0	0.444293022156	-89.0	108.0	-86	103	1
1.7	2015_Aug_05_1445	s	s	17	2	SIC	420	RC	0	2	23RD	1	0	0.688621997833	-260.0	-290.0	-264	-292	1
1.7	2015_Aug_05_1445	s	s	17	2	SIC	421	ABS	0	1	24RO	0	1	3.35398292542	None	None	None	None	1
1.7	2015_Aug_05_1445	s	s	17	2	SIC	422	ABS	0	2	24RD	0	1	0.791668891907	None	None	None	None	1
1.7	2015_Aug_05_1445	s	s	17	2	SIC	423	ABS	1	0	24MC	0	1	3.71390485764	None	None	None	None	1
1.7	2015_Aug_05_1445	s	s	17	2	SIC	424	RC	1	2	23MD	1	0	0.618312120438	-244.0	-114.0	-250	-113	1
1.7	2015_Aug_05_1445	s	s	17	2	SIC	425	ABS	1	2	24MD	0	1	0.972550868988	None	None	None	None	1
1.7	2015_Aug_05_1445	s	s	17	2	SIC	426	ABS	1	1	24MO	0	1	3.10183405876	None	None	None	None	1
1.7	2015_Aug_05_1445	s	s	17	2	SIC	427	RC	1	1	23MO	1	0	1.40832805634	-85.0	132.0	-90	130	1
1.7	2015_Aug_05_1445	s	s	17	2	SIC	428	ABS	2	1	24VO	0	1	0.465390205383	None	None	None	None	1
1.7	2015_Aug_05_1445	s	s	17	2	SIC	429	ABS	2	0	24VC	0	1	0.623221158981	None	None	None	None	1
1.7	2015_Aug_05_1445	s	s	17	2	SIC	430	RC	2	2	23VD	1	0	0.552582979202	-168.0	-369.0	-160	-371	1
1.7	2015_Aug_05_1445	s	s	17	2	SIC	431	ABS	2	2	24VD	0	1	0.505568981171	None	None	None	None	1
1.7	2015_Aug_05_1445	s	s	17	2	SIC	432	RC	0	1	23RO	0	1	3.30685520172	-1.0	339.0	None	None	0
1.7	2015_Aug_05_1445	s	s	17	2	SIC	433	ABS	0	2	24RD	0	1	0.858564853668	None	None	None	None	1
1.7	2015_Aug_05_1445	s	s	17	2	SIC	434	ABS	1	2	24MD	0	1	0.688519001007	None	None	None	None	1
1.7	2015_Aug_05_1445	s	s	17	2	SIC	435	RC	1	2	23MD	1	0	0.795997142792	260.0	280.0	265	278	1
1.7	2015_Aug_05_1445	s	s	17	2	SIC	436	ABS	0	1	24RO	0	1	4.58513712883	None	None	None	None	1
1.7	2015_Aug_05_1445	s	s	17	2	SIC	437	ABS	1	1	24MO	0	1	3.34214711189	None	None	None	None	1
1.7	2015_Aug_05_1445	s	s	17	2	SIC	438	ABS	1	0	24MC	0	1	3.88361001015	None	None	None	None	1
1.7	2015_Aug_05_1445	s	s	17	2	SIC	439	RC	0	2	23RD	1	0	0.646795988083	228.0	-299.0	222	-302	1
1.7	2015_Aug_05_1445	s	s	17	2	SIC	440	RC	0	1	23RO	1	0	1.5362071991	-488.0	247.0	-482	247	1
1.7	2015_Aug_05_1445	s	s	17	2	SIC	441	RC	2	1	23VO	1	0	0.465185880661	-241.0	-1.0	-236	-2	1
1.7	2015_Aug_05_1445	s	s	17	2	SIC	442	ABS	2	0	24VC	0	1	0.841964006424	None	None	None	None	1
1.7	2015_Aug_05_1445	s	s	17	2	SIC	443	ABS	2	1	24VO	0	1	0.587993860245	None	None	None	None	1
1.7	2015_Aug_05_1445	s	s	17	2	SIC	444	RC	1	1	23MO	1	0	1.58330917358	429.0	363.0	429	362	1
1.7	2015_Aug_05_1445	s	s	17	2	SIC	445	RC	1	0	23MC	1	0	1.00662899017	-260.0	4.0	-257	7	1
1.7	2015_Aug_05_1445	s	s	17	2	SIC	446	RC	2	0	23VC	1	0	0.536023855209	-11.0	-225.0	1	-217	1
1.7	2015_Aug_05_1445	s	s	17	2	SIC	447	RC	2	2	23VD	1	0	0.396257162094	-236.0	-184.0	-231	-182	1
1.7	2015_Aug_05_1445	s	s	17	2	SIC	448	ABS	2	2	24VD	0	1	0.514629840851	None	None	None	None	1
1.7	2015_Aug_05_1445	s	s	17	2	SIC	449	RC	0	1	23RO	1	0	2.63094997406	44.0	271.0	42	269	1
1.7	2015_Aug_05_1445	s	s	17	2	SIC	450	RC	2	1	23VO	1	0	0.915065050125	502.0	-33.0	498	-36	1
1.7	2015_Aug_05_1445	s	s	17	2	SIC	451	ABS	1	1	24MO	0	1	2.35720705986	None	None	None	None	1
1.7	2015_Aug_05_1445	s	s	17	2	SIC	452	ABS	1	0	24MC	1	0	2.51360011101	None	None	-93	197	0
1.7	2015_Aug_05_1445	s	s	17	2	SIC	453	ABS	2	1	24VO	0	1	0.431617021561	None	None	None	None	1
1.7	2015_Aug_05_1445	s	s	17	2	SIC	454	RC	1	1	23MO	1	0	0.929085016251	165.0	-232.0	157	-236	1
1.7	2015_Aug_05_1445	s	s	17	2	SIC	455	ABS	2	2	24VD	0	1	0.490429878235	None	None	None	None	1
1.7	2015_Aug_05_1445	s	s	17	2	SIC	456	ABS	2	0	24VC	0	1	0.571197986603	None	None	None	None	1
1.7	2015_Aug_05_1445	s	s	17	2	SIC	457	RC	0	2	23RD	1	0	0.559250116348	-135.0	378.0	-131	381	1
1.7	2015_Aug_05_1445	s	s	17	2	SIC	458	RC	1	2	23MD	1	0	0.524019956589	423.0	12.0	418	11	1
1.7	2015_Aug_05_1445	s	s	17	2	SIC	459	RC	2	0	23VC	1	0	0.524052858353	271.0	-330.0	273	-332	1
1.7	2015_Aug_05_1445	s	s	17	2	SIC	460	RC	2	2	23VD	1	0	0.481904983521	441.0	125.0	444	127	1
1.7	2015_Aug_05_1445	s	s	17	2	SIC	461	ABS	1	2	24MD	0	1	1.25870394707	None	None	None	None	1
1.7	2015_Aug_05_1445	s	s	17	2	SIC	462	ABS	0	1	24RO	0	1	2.50190615654	None	None	None	None	1
1.7	2015_Aug_05_1445	s	s	17	2	SIC	463	RC	1	0	23MC	1	0	1.41852593422	496.0	365.0	496	361	1
1.7	2015_Aug_05_1445	s	s	17	2	SIC	464	ABS	0	2	24RD	0	1	0.658460855484	None	None	None	None	1
1.7	2015_Aug_05_1445	s	s	17	2	SIC	465	RC	2	1	23VO	1	0	0.631232023239	-294.0	339.0	-288	334	1
1.7	2015_Aug_05_1445	s	s	17	2	SIC	466	RC	0	2	23RD	1	0	0.794412136078	414.0	-31.0	422	-29	1
1.7	2015_Aug_05_1445	s	s	17	2	SIC	467	RC	1	2	23MD	1	0	0.446580886841	-415.0	104.0	-418	101	1
1.7	2015_Aug_05_1445	s	s	17	2	SIC	468	ABS	2	1	24VO	0	1	0.693817138672	None	None	None	None	1
1.7	2015_Aug_05_1445	s	s	17	2	SIC	469	RC	0	1	23RO	1	0	1.91523003578	510.0	148.0	508	153	1
1.7	2015_Aug_05_1445	s	s	17	2	SIC	470	ABS	1	2	24MD	0	1	0.584314823151	None	None	None	None	1
1.7	2015_Aug_05_1445	s	s	17	2	SIC	471	ABS	2	0	24VC	0	1	0.717350006104	None	None	None	None	1
1.7	2015_Aug_05_1445	s	s	17	2	SIC	472	ABS	1	1	24MO	0	1	2.9537229538	None	None	None	None	1
1.7	2015_Aug_05_1445	s	s	17	2	SIC	473	ABS	1	0	24MC	0	1	4.46038293839	None	None	None	None	1
1.7	2015_Aug_05_1445	s	s	17	2	SIC	474	RC	1	0	23MC	1	0	1.5177500248	467.0	-177.0	465	-181	1
1.7	2015_Aug_05_1445	s	s	17	2	SIC	475	RC	2	0	23VC	1	0	0.488734006882	-437.0	37.0	-434	40	1
1.7	2015_Aug_05_1445	s	s	17	2	SIC	476	RC	2	2	23VD	1	0	0.782281160355	-36.0	-170.0	-35	-180	1
1.7	2015_Aug_05_1445	s	s	17	2	SIC	477	ABS	0	1	24RO	0	1	3.7965657711	None	None	None	None	1
1.7	2015_Aug_05_1445	s	s	17	2	SIC	478	RC	1	1	23MO	1	0	1.12926506996	120.0	-40.0	124	-40	1
1.7	2015_Aug_05_1445	s	s	17	2	SIC	479	ABS	2	2	24VD	0	1	0.458422899246	None	None	None	None	1
1.7	2015_Aug_05_1445	s	s	17	2	SIC	480	ABS	0	2	24RD	0	1	1.18814897537	None	None	None	None	1
1.7	2015_Aug_05_1445	s	s	17	2	SIC	481	ABS	1	1	24MO	0	1	3.8562669754	None	None	None	None	1
1.7	2015_Aug_05_1445	s	s	17	2	SIC	482	ABS	1	2	24MD	0	1	0.470216035843	None	None	None	None	1
1.7	2015_Aug_05_1445	s	s	17	2	SIC	483	RC	0	1	23RO	1	0	0.947342157364	48.0	249.0	49	250	1
1.7	2015_Aug_05_1445	s	s	17	2	SIC	484	ABS	0	1	24RO	0	1	4.11899995804	None	None	None	None	1
1.7	2015_Aug_05_1445	s	s	17	2	SIC	485	RC	2	0	23VC	1	0	17.8744308949	328.0	25.0	331	20	1
1.7	2015_Aug_05_1445	s	s	17	2	SIC	486	RC	2	2	23VD	1	0	2.66318798065	-16.0	0.0	-10	-1	1
1.7	2015_Aug_05_1445	s	s	17	2	SIC	487	ABS	1	0	24MC	0	1	2.90673112869	None	None	None	None	1
1.7	2015_Aug_05_1445	s	s	17	2	SIC	488	RC	1	2	23MD	1	0	0.587806940079	211.0	2.0	199	7	1
1.7	2015_Aug_05_1445	s	s	17	2	SIC	489	RC	2	1	23VO	1	0	0.606435060501	-338.0	169.0	-332	168	1
1.7	2015_Aug_05_1445	s	s	17	2	SIC	490	ABS	2	2	24VD	0	1	1.17142891884	None	None	None	None	1
1.7	2015_Aug_05_1445	s	s	17	2	SIC	491	ABS	2	1	24VO	0	1	0.71737909317	None	None	None	None	1
1.7	2015_Aug_05_1445	s	s	17	2	SIC	492	RC	1	0	23MC	1	0	1.60847592354	-270.0	-368.0	-266	-365	1
1.7	2015_Aug_05_1445	s	s	17	2	SIC	493	RC	1	1	23MO	1	0	2.22400808334	273.0	141.0	269	135	1
1.7	2015_Aug_05_1445	s	s	17	2	SIC	494	ABS	0	2	24RD	0	1	1.56084990501	None	None	None	None	1
1.7	2015_Aug_05_1445	s	s	17	2	SIC	495	ABS	2	0	24VC	0	1	0.611472129822	None	None	None	None	1
1.7	2015_Aug_05_1445	s	s	17	2	SIC	496	RC	0	2	23RD	1	0	0.501932144165	-268.0	146.0	-261	147	1
1.7	2015_Aug_05_1445	s	s	17	2	SIC	497	ABS	2	2	24VD	0	1	0.735937833786	None	None	None	None	1
1.7	2015_Aug_05_1445	s	s	17	2	SIC	498	RC	0	2	23RD	1	0	3.23628592491	-443.0	-162.0	-450	-169	1
1.7	2015_Aug_05_1445	s	s	17	2	SIC	499	ABS	1	2	24MD	0	1	0.654008150101	None	None	None	None	1
1.7	2015_Aug_05_1445	s	s	17	2	SIC	500	ABS	2	1	24VO	0	1	0.667741060257	None	None	None	None	1
1.7	2015_Aug_05_1445	s	s	17	2	SIC	501	ABS	0	1	24RO	0	1	5.2137670517	None	None	None	None	1
1.7	2015_Aug_05_1445	s	s	17	2	SIC	502	ABS	1	0	24MC	0	1	2.70179605484	None	None	None	None	1
1.7	2015_Aug_05_1445	s	s	17	2	SIC	503	RC	1	0	23MC	0	1	3.03277087212	204.0	-381.0	None	None	0
1.7	2015_Aug_05_1445	s	s	17	2	SIC	504	RC	1	2	23MD	1	0	0.582876205444	176.0	324.0	175	317	1
1.7	2015_Aug_05_1445	s	s	17	2	SIC	505	RC	1	1	23MO	1	0	0.799786090851	-225.0	106.0	-232	101	1
1.7	2015_Aug_05_1445	s	s	17	2	SIC	506	ABS	0	2	24RD	0	1	0.846837997437	None	None	None	None	1
1.7	2015_Aug_05_1445	s	s	17	2	SIC	507	ABS	2	0	24VC	0	1	0.564377069473	None	None	None	None	1
1.7	2015_Aug_05_1445	s	s	17	2	SIC	508	RC	0	1	23RO	1	0	1.67703795433	-393.0	243.0	-392	236	1
1.7	2015_Aug_05_1445	s	s	17	2	SIC	509	RC	2	0	23VC	1	0	0.499574899673	-15.0	274.0	-20	274	1
1.7	2015_Aug_05_1445	s	s	17	2	SIC	510	ABS	1	1	24MO	0	1	2.90663099289	None	None	None	None	1
1.7	2015_Aug_05_1445	s	s	17	2	SIC	511	RC	2	1	23VO	1	0	0.819806814194	56.0	-337.0	61	-341	1
1.7	2015_Aug_05_1445	s	s	17	2	SIC	512	RC	2	2	23VD	1	0	0.547218084335	487.0	191.0	487	182	1
1.7	2015_Aug_05_1445	s	s	17	2	SIC	513	RC	0	2	23RD	1	0	0.540748119354	-415.0	362.0	-411	364	1
1.7	2015_Aug_05_1445	s	s	17	2	SIC	514	ABS	1	1	24MO	0	1	3.97796106339	None	None	None	None	1
1.7	2015_Aug_05_1445	s	s	17	2	SIC	515	RC	1	0	23MC	1	0	1.95347189903	120.0	-212.0	128	-206	1
1.7	2015_Aug_05_1445	s	s	17	2	SIC	516	ABS	0	2	24RD	0	1	1.09140396118	None	None	None	None	1
1.7	2015_Aug_05_1445	s	s	17	2	SIC	517	ABS	1	0	24MC	0	1	3.22446894646	None	None	None	None	1
1.7	2015_Aug_05_1445	s	s	17	2	SIC	518	ABS	1	2	24MD	0	1	0.689496040344	None	None	None	None	1
1.7	2015_Aug_05_1445	s	s	17	2	SIC	519	ABS	2	2	24VD	0	1	0.482064008713	None	None	None	None	1
1.7	2015_Aug_05_1445	s	s	17	2	SIC	520	RC	1	1	23MO	1	0	0.899851083755	-414.0	309.0	-410	306	1
1.7	2015_Aug_05_1445	s	s	17	2	SIC	521	RC	2	1	23VO	1	0	0.467333078384	-260.0	193.0	-260	189	1
1.7	2015_Aug_05_1445	s	s	17	2	SIC	522	ABS	2	1	24VO	0	1	0.897907972336	None	None	None	None	1
1.7	2015_Aug_05_1445	s	s	17	2	SIC	523	ABS	2	0	24VC	0	1	0.524031162262	None	None	None	None	1
1.7	2015_Aug_05_1445	s	s	17	2	SIC	524	ABS	0	1	24RO	0	1	4.61339902878	None	None	None	None	1
1.7	2015_Aug_05_1445	s	s	17	2	SIC	525	RC	0	1	23RO	1	0	3.18918204308	-270.0	-297.0	-267	-298	1
1.7	2015_Aug_05_1445	s	s	17	2	SIC	526	RC	2	2	23VD	1	0	0.458567142487	148.0	-147.0	147	-149	1
1.7	2015_Aug_05_1445	s	s	17	2	SIC	527	RC	2	0	23VC	1	0	0.423157930374	178.0	58.0	182	52	1
1.7	2015_Aug_05_1445	s	s	17	2	SIC	528	RC	1	2	23MD	1	0	0.524057865143	-540.0	-64.0	-539	-63	1
1.7	2015_Aug_05_1445	s	s	17	2	SIC	529	ABS	2	0	24VC	0	1	2.86591005325	None	None	None	None	1
1.7	2015_Aug_05_1445	s	s	17	2	SIC	530	ABS	1	1	24MO	0	1	6.56194210052	None	None	None	None	1
1.7	2015_Aug_05_1445	s	s	17	2	SIC	531	ABS	1	2	24MD	0	1	0.600116968155	None	None	None	None	1
1.7	2015_Aug_05_1445	s	s	17	2	SIC	532	ABS	2	1	24VO	0	1	3.6319770813	None	None	None	None	1
1.7	2015_Aug_05_1445	s	s	17	2	SIC	533	ABS	1	0	24MC	0	1	3.53054499626	None	None	None	None	1
1.7	2015_Aug_05_1445	s	s	17	2	SIC	534	RC	2	1	23VO	1	0	0.714533090591	-260.0	-273.0	-269	-272	1
1.7	2015_Aug_05_1445	s	s	17	2	SIC	535	RC	0	1	23RO	1	0	0.971529960632	86.0	346.0	94	348	1
1.7	2015_Aug_05_1445	s	s	17	2	SIC	536	RC	0	2	23RD	1	0	0.749701976776	-90.0	360.0	-91	353	1
1.7	2015_Aug_05_1445	s	s	17	2	SIC	537	RC	2	2	23VD	1	0	0.447051048279	90.0	19.0	99	17	1
1.7	2015_Aug_05_1445	s	s	17	2	SIC	538	ABS	2	2	24VD	0	1	0.505553007126	None	None	None	None	1
1.7	2015_Aug_05_1445	s	s	17	2	SIC	539	ABS	0	2	24RD	0	1	1.58844208717	None	None	None	None	1
1.7	2015_Aug_05_1445	s	s	17	2	SIC	540	RC	1	2	23MD	1	0	0.65279507637	306.0	-321.0	309	-323	1
1.7	2015_Aug_05_1445	s	s	17	2	SIC	541	RC	1	1	23MO	1	0	0.599669933319	-486.0	-153.0	-478	-151	1
1.7	2015_Aug_05_1445	s	s	17	2	SIC	542	RC	1	0	23MC	1	0	1.30085492134	252.0	17.0	254	11	1
1.7	2015_Aug_05_1445	s	s	17	2	SIC	543	RC	2	0	23VC	1	0	0.501986980438	503.0	-52.0	500	-52	1
1.7	2015_Aug_05_1445	s	s	17	2	SIC	544	ABS	0	1	24RO	0	1	2.67789816856	None	None	None	None	1
1.7	2015_Aug_05_1445	s	s	17	2	SIC	545	ABS	2	1	24VO	0	1	0.670325994492	None	None	None	None	1
1.7	2015_Aug_05_1445	s	s	17	2	SIC	546	RC	0	2	23RD	1	0	0.529022932053	-362.0	18.0	-360	14	1
1.7	2015_Aug_05_1445	s	s	17	2	SIC	547	ABS	2	0	24VC	0	1	0.693761110306	None	None	None	None	1
1.7	2015_Aug_05_1445	s	s	17	2	SIC	548	ABS	2	2	24VD	0	1	0.900885105133	None	None	None	None	1
1.7	2015_Aug_05_1445	s	s	17	2	SIC	549	RC	1	2	23MD	1	0	0.646715164185	408.0	76.0	408	69	1
1.7	2015_Aug_05_1445	s	s	17	2	SIC	550	RC	2	1	23VO	1	0	0.570904970169	-120.0	353.0	-114	348	1
1.7	2015_Aug_05_1445	s	s	17	2	SIC	551	ABS	0	1	24RO	0	1	6.69180488586	None	None	None	None	1
1.7	2015_Aug_05_1445	s	s	17	2	SIC	552	ABS	0	2	24RD	0	1	1.42083096504	None	None	None	None	1
1.7	2015_Aug_05_1445	s	s	17	2	SIC	553	RC	1	0	23MC	1	0	6.28979110718	398.0	221.0	394	212	1
1.7	2015_Aug_05_1445	s	s	17	2	SIC	554	RC	2	2	23VD	1	0	0.76072716713	-136.0	92.0	-136	95	1
1.7	2015_Aug_05_1445	s	s	17	2	SIC	555	RC	0	1	23RO	1	0	1.65631604195	-334.0	274.0	-331	275	1
1.7	2015_Aug_05_1445	s	s	17	2	SIC	556	ABS	1	0	24MC	0	1	3.00716304779	None	None	None	None	1
1.7	2015_Aug_05_1445	s	s	17	2	SIC	557	ABS	1	1	24MO	0	1	3.58942914009	None	None	None	None	1
1.7	2015_Aug_05_1445	s	s	17	2	SIC	558	RC	2	0	23VC	1	0	0.618068933487	-370.0	-258.0	-369	-264	1
1.7	2015_Aug_05_1445	s	s	17	2	SIC	559	ABS	1	2	24MD	0	1	0.71230006218	None	None	None	None	1
1.7	2015_Aug_05_1445	s	s	17	2	SIC	560	RC	1	1	23MO	1	0	2.03048014641	104.0	-361.0	93	-359	1
1.7	2015_Aug_05_1445	s	s	17	2	SIC	561	RC	0	2	23RD	1	0	0.500503063202	142.0	126.0	138	114	1
1.7	2015_Aug_05_1445	s	s	17	2	SIC	562	ABS	1	1	24MO	0	1	2.34841990471	None	None	None	None	1
1.7	2015_Aug_05_1445	s	s	17	2	SIC	563	RC	1	0	23MC	1	0	0.670309066772	-58.0	34.0	-56	28	1
1.7	2015_Aug_05_1445	s	s	17	2	SIC	564	RC	2	0	23VC	1	0	0.4417989254	93.0	208.0	87	211	1
1.7	2015_Aug_05_1445	s	s	17	2	SIC	565	ABS	2	2	24VD	0	1	0.493783950806	None	None	None	None	1
1.7	2015_Aug_05_1445	s	s	17	2	SIC	566	RC	1	1	23MO	1	0	1.20687890053	266.0	339.0	269	332	1
1.7	2015_Aug_05_1445	s	s	17	2	SIC	567	ABS	2	0	24VC	0	1	0.535860061646	None	None	None	None	1
1.7	2015_Aug_05_1445	s	s	17	2	SIC	568	RC	1	2	23MD	1	0	0.61509013176	-203.0	319.0	-194	318	1
1.7	2015_Aug_05_1445	s	s	17	2	SIC	569	ABS	1	0	24MC	0	1	2.518419981	None	None	None	None	1
1.7	2015_Aug_05_1445	s	s	17	2	SIC	570	RC	0	1	23RO	0	1	10.9578001499	431.0	-103.0	None	None	0
1.7	2015_Aug_05_1445	s	s	17	2	SIC	571	RC	2	1	23VO	1	0	4.37789106369	0.0	-126.0	1	-125	1
1.7	2015_Aug_05_1445	s	s	17	2	SIC	572	ABS	0	2	24RD	0	1	9.55708694458	None	None	None	None	1
1.7	2015_Aug_05_1445	s	s	17	2	SIC	573	RC	2	2	23VD	1	0	7.30920314789	223.0	55.0	218	55	1
1.7	2015_Aug_05_1445	s	s	17	2	SIC	574	ABS	1	2	24MD	0	1	4.91424703598	None	None	None	None	1
1.7	2015_Aug_05_1445	s	s	17	2	SIC	575	ABS	2	1	24VO	0	1	3.50673699379	None	None	None	None	1
1.7	2015_Aug_05_1445	s	s	17	2	SIC	576	ABS	0	1	24RO	0	1	7.95621609688	None	None	None	None	1
1.7	2015_Aug_05_1445	s	s	17	2	SIC	577	RC	0	2	23RD	1	0	0.862296104431	307.0	-339.0	308	-345	1
1.7	2015_Aug_05_1445	s	s	17	2	SIC	578	ABS	0	2	24RD	0	1	0.794701814651	None	None	None	None	1
1.7	2015_Aug_05_1445	s	s	17	2	SIC	579	ABS	2	0	24VC	0	1	6.2108361721	None	None	None	None	1
1.7	2015_Aug_05_1445	s	s	17	2	SIC	580	RC	2	1	23VO	1	0	0.79981303215	272.0	-25.0	272	-31	1
1.7	2015_Aug_05_1445	s	s	17	2	SIC	581	ABS	1	1	24MO	0	1	2.62096595764	None	None	None	None	1
1.7	2015_Aug_05_1445	s	s	17	2	SIC	582	ABS	1	2	24MD	0	1	0.619686841965	None	None	None	None	1
1.7	2015_Aug_05_1445	s	s	17	2	SIC	583	RC	0	1	23RO	0	1	2.05482792854	241.0	101.0	None	None	0
1.7	2015_Aug_05_1445	s	s	17	2	SIC	584	RC	1	0	23MC	1	0	3.84835910797	322.0	-163.0	330	-168	1
1.7	2015_Aug_05_1445	s	s	17	2	SIC	585	ABS	2	2	24VD	0	1	0.587973117828	None	None	None	None	1
1.7	2015_Aug_05_1445	s	s	17	2	SIC	586	ABS	2	1	24VO	0	1	0.481806993484	None	None	None	None	1
1.7	2015_Aug_05_1445	s	s	17	2	SIC	587	RC	1	1	23MO	0	1	1.48291802406	-233.0	-237.0	None	None	0
1.7	2015_Aug_05_1445	s	s	17	2	SIC	588	RC	2	0	23VC	1	0	0.45615696907	-75.0	112.0	-76	115	1
1.7	2015_Aug_05_1445	s	s	17	2	SIC	589	ABS	1	0	24MC	0	1	2.38879203796	None	None	None	None	1
1.7	2015_Aug_05_1445	s	s	17	2	SIC	590	RC	1	2	23MD	1	0	0.65388584137	245.0	93.0	240	90	1
1.7	2015_Aug_05_1445	s	s	17	2	SIC	591	RC	2	2	23VD	1	0	0.493602991104	-239.0	-293.0	-246	-297	1
1.7	2015_Aug_05_1445	s	s	17	2	SIC	592	ABS	0	1	24RO	0	1	3.7776799202	None	None	None	None	1
