Version	Date	Stimuli	Method	Subject	Session	Condition	Trial	Target	Channel1	Channel2	Distractors	LMouseButton	RMouseButton	RT	TargetX	TargetY	ResponseX	ResponseY	Correct
1.7	2015_Aug_07_1514	s	s	17	4	Capacity	1	RC	1	0	23MC	1	0	0.999850034714	-494.0	-255.0	-502	-254	1
1.7	2015_Aug_07_1514	s	s	17	4	Capacity	2	ABS	1	0	24MC	0	1	3.05961084366	None	None	None	None	1
1.7	2015_Aug_07_1514	s	s	17	4	Capacity	3	ABS	2	0	24VC	0	1	0.512283086777	None	None	None	None	1
1.7	2015_Aug_07_1514	s	s	17	4	Capacity	4	RC	2	0	23VC	1	0	0.464624881744	182.0	-278.0	176	-272	1
1.7	2015_Aug_07_1514	s	s	17	4	Capacity	5	RC	1	0	23MC	1	0	0.65852189064	13.0	-119.0	13	-120	1
1.7	2015_Aug_07_1514	s	s	17	4	Capacity	6	RC	2	0	23VC	1	0	0.423104047775	-62.0	-128.0	-70	-126	1
1.7	2015_Aug_07_1514	s	s	17	4	Capacity	7	ABS	1	0	24MC	0	1	2.2946228981	None	None	None	None	1
1.7	2015_Aug_07_1514	s	s	17	4	Capacity	8	ABS	2	0	24VC	0	1	0.470202922821	None	None	None	None	1
1.7	2015_Aug_07_1514	s	s	17	4	Capacity	9	ABS	2	0	24VC	0	1	0.446527957916	None	None	None	None	1
1.7	2015_Aug_07_1514	s	s	17	4	Capacity	10	RC	2	0	23VC	1	0	0.42310500145	335.0	-108.0	335	-106	1
1.7	2015_Aug_07_1514	s	s	17	4	Capacity	11	RC	1	0	23MC	1	0	0.630384922028	-55.0	129.0	-54	123	1
1.7	2015_Aug_07_1514	s	s	17	4	Capacity	12	ABS	1	0	24MC	0	1	2.01214981079	None	None	None	None	1
1.7	2015_Aug_07_1514	s	s	17	4	Capacity	13	ABS	1	0	24MC	0	1	1.73689603806	None	None	None	None	1
1.7	2015_Aug_07_1514	s	s	17	4	Capacity	14	RC	2	0	23VC	1	0	0.407055854797	-539.0	174.0	-528	174	1
1.7	2015_Aug_07_1514	s	s	17	4	Capacity	15	RC	1	0	23MC	1	0	0.579748868942	439.0	103.0	435	95	1
1.7	2015_Aug_07_1514	s	s	17	4	Capacity	16	ABS	2	0	24VC	0	1	0.747905015945	None	None	None	None	1
1.7	2015_Aug_07_1514	s	s	17	4	Capacity	17	ABS	1	0	24MC	0	1	1.89158987999	None	None	None	None	1
1.7	2015_Aug_07_1514	s	s	17	4	Capacity	18	ABS	2	0	24VC	0	1	0.444098949432	None	None	None	None	1
1.7	2015_Aug_07_1514	s	s	17	4	Capacity	19	RC	1	0	23MC	1	0	0.67733001709	202.0	116.0	204	110	1
1.7	2015_Aug_07_1514	s	s	17	4	Capacity	20	RC	2	0	23VC	1	0	0.387652873993	-279.0	-47.0	-284	-53	1
1.7	2015_Aug_07_1514	s	s	17	4	Capacity	21	ABS	2	0	24VC	0	1	0.444065093994	None	None	None	None	1
1.7	2015_Aug_07_1514	s	s	17	4	Capacity	22	RC	2	0	23VC	1	0	0.406450033188	-287.0	247.0	-277	245	1
1.7	2015_Aug_07_1514	s	s	17	4	Capacity	23	ABS	1	0	24MC	0	1	2.06589317322	None	None	None	None	1
1.7	2015_Aug_07_1514	s	s	17	4	Capacity	24	RC	1	0	23MC	1	0	0.725260972977	-445.0	90.0	-444	83	1
1.7	2015_Aug_07_1514	s	s	17	4	Capacity	25	ABS	2	0	24VC	0	1	0.411348104477	None	None	None	None	1
1.7	2015_Aug_07_1514	s	s	17	4	Capacity	26	RC	1	0	23MC	1	0	2.01896595955	519.0	-131.0	511	-134	1
1.7	2015_Aug_07_1514	s	s	17	4	Capacity	27	ABS	1	0	24MC	0	1	3.12787413597	None	None	None	None	1
1.7	2015_Aug_07_1514	s	s	17	4	Capacity	28	RC	2	0	23VC	1	0	0.473945140839	198.0	-197.0	214	-188	1
1.7	2015_Aug_07_1514	s	s	17	4	Capacity	29	ABS	2	0	24VC	0	1	0.559262037277	None	None	None	None	1
1.7	2015_Aug_07_1514	s	s	17	4	Capacity	30	ABS	1	0	24MC	0	1	2.75781702995	None	None	None	None	1
1.7	2015_Aug_07_1514	s	s	17	4	Capacity	31	RC	1	0	23MC	1	0	0.999833106995	470.0	113.0	478	109	1
1.7	2015_Aug_07_1514	s	s	17	4	Capacity	32	RC	2	0	23VC	1	0	0.394073009491	458.0	351.0	469	352	1
1.7	2015_Aug_07_1514	s	s	17	4	Capacity	33	ABS	2	0	24VC	0	1	0.630018949509	None	None	None	None	1
1.7	2015_Aug_07_1514	s	s	17	4	Capacity	34	RC	2	0	23VC	0	1	0.37601184845	336.0	-138.0	None	None	0
1.7	2015_Aug_07_1514	s	s	17	4	Capacity	35	RC	1	0	23MC	1	0	1.00664401054	299.0	-281.0	295	-293	1
1.7	2015_Aug_07_1514	s	s	17	4	Capacity	36	ABS	1	0	24MC	0	1	2.61243009567	None	None	None	None	1
1.7	2015_Aug_07_1514	s	s	17	4	Capacity	37	RC	2	0	23VC	1	0	0.441876888275	340.0	5.0	344	6	1
1.7	2015_Aug_07_1514	s	s	17	4	Capacity	38	ABS	1	0	24MC	0	1	1.66635203362	None	None	None	None	1
1.7	2015_Aug_07_1514	s	s	17	4	Capacity	39	ABS	2	0	24VC	0	1	0.49366402626	None	None	None	None	1
1.7	2015_Aug_07_1514	s	s	17	4	Capacity	40	RC	1	0	23MC	1	0	0.729101896286	-441.0	176.0	-446	183	1
1.7	2015_Aug_07_1514	s	s	17	4	Capacity	41	RC	1	0	23MC	1	0	0.820677995682	534.0	-290.0	525	-292	1
1.7	2015_Aug_07_1514	s	s	17	4	Capacity	42	RC	2	0	23VC	1	0	0.383024930954	461.0	-247.0	467	-247	1
1.7	2015_Aug_07_1514	s	s	17	4	Capacity	43	ABS	1	0	24MC	0	1	2.34837293625	None	None	None	None	1
1.7	2015_Aug_07_1514	s	s	17	4	Capacity	44	ABS	2	0	24VC	0	1	0.52426981926	None	None	None	None	1
1.7	2015_Aug_07_1514	s	s	17	4	Capacity	45	RC	2	0	23VC	1	0	0.474639177322	-511.0	402.0	-505	401	1
1.7	2015_Aug_07_1514	s	s	17	4	Capacity	46	ABS	1	0	24MC	0	1	3.2079398632	None	None	None	None	1
1.7	2015_Aug_07_1514	s	s	17	4	Capacity	47	ABS	2	0	24VC	0	1	0.419111013412	None	None	None	None	1
1.7	2015_Aug_07_1514	s	s	17	4	Capacity	48	RC	1	0	23MC	1	0	0.729083061218	481.0	242.0	474	240	1
1.7	2015_Aug_07_1514	s	s	17	4	Capacity	49	RC	1	0	23MC	1	0	0.932924032211	524.0	-289.0	532	-281	1
1.7	2015_Aug_07_1514	s	s	17	4	Capacity	50	ABS	2	0	24VC	0	1	0.441282987595	None	None	None	None	1
1.7	2015_Aug_07_1514	s	s	17	4	Capacity	51	RC	2	0	23VC	1	0	0.430190086365	-301.0	-134.0	-312	-130	1
1.7	2015_Aug_07_1514	s	s	17	4	Capacity	52	ABS	1	0	24MC	0	1	1.99230098724	None	None	None	None	1
1.7	2015_Aug_07_1514	s	s	17	4	Capacity	53	RC	1	0	23MC	1	0	2.82795596123	467.0	-321.0	467	-318	1
1.7	2015_Aug_07_1514	s	s	17	4	Capacity	54	RC	2	0	23VC	1	0	0.511796951294	-351.0	8.0	-342	6	1
1.7	2015_Aug_07_1514	s	s	17	4	Capacity	55	ABS	1	0	24MC	0	1	2.31527805328	None	None	None	None	1
1.7	2015_Aug_07_1514	s	s	17	4	Capacity	56	ABS	2	0	24VC	0	1	0.476488113403	None	None	None	None	1
1.7	2015_Aug_07_1514	s	s	17	4	Capacity	57	ABS	1	0	24MC	0	1	2.43581604958	None	None	None	None	1
1.7	2015_Aug_07_1514	s	s	17	4	Capacity	58	RC	2	0	23VC	1	0	0.465414047241	482.0	-231.0	487	-233	1
1.7	2015_Aug_07_1514	s	s	17	4	Capacity	59	RC	1	0	23MC	1	0	0.665033102036	94.0	337.0	91	340	1
1.7	2015_Aug_07_1514	s	s	17	4	Capacity	60	ABS	2	0	24VC	0	1	0.534550189972	None	None	None	None	1
1.7	2015_Aug_07_1514	s	s	17	4	Capacity	61	ABS	2	0	24VC	0	1	0.529041051865	None	None	None	None	1
1.7	2015_Aug_07_1514	s	s	17	4	Capacity	62	ABS	1	0	24MC	0	1	2.31330919266	None	None	None	None	1
1.7	2015_Aug_07_1514	s	s	17	4	Capacity	63	RC	2	0	23VC	1	0	0.512711048126	-229.0	-345.0	-230	-340	1
1.7	2015_Aug_07_1514	s	s	17	4	Capacity	64	RC	1	0	23MC	1	0	0.682009935379	-112.0	31.0	-120	33	1
1.7	2015_Aug_07_1514	s	s	17	4	Capacity	65	ABS	1	0	24MC	0	1	3.28006911278	None	None	None	None	1
1.7	2015_Aug_07_1514	s	s	17	4	Capacity	66	RC	2	0	23VC	1	0	0.423071146011	-120.0	131.0	-114	131	1
1.7	2015_Aug_07_1514	s	s	17	4	Capacity	67	ABS	2	0	24VC	0	1	0.470144033432	None	None	None	None	1
1.7	2015_Aug_07_1514	s	s	17	4	Capacity	68	RC	1	0	23MC	1	0	2.76541209221	180.0	-337.0	181	-343	1
1.7	2015_Aug_07_1514	s	s	17	4	Capacity	69	RC	2	0	23VC	1	0	0.451867103577	-434.0	-74.0	-433	-77	1
1.7	2015_Aug_07_1514	s	s	17	4	Capacity	70	RC	1	0	23MC	1	0	2.34151411057	212.0	-278.0	211	-279	1
1.7	2015_Aug_07_1514	s	s	17	4	Capacity	71	ABS	2	0	24VC	0	1	0.434893131256	None	None	None	None	1
1.7	2015_Aug_07_1514	s	s	17	4	Capacity	72	ABS	1	0	24MC	0	1	3.24433088303	None	None	None	None	1
1.7	2015_Aug_07_1514	s	s	17	4	Capacity	73	ABS	1	0	24MC	0	1	2.11801505089	None	None	None	None	1
1.7	2015_Aug_07_1514	s	s	17	4	Capacity	74	RC	2	0	23VC	1	0	0.453408002853	15.0	251.0	8	251	1
1.7	2015_Aug_07_1514	s	s	17	4	Capacity	75	ABS	2	0	24VC	0	1	0.655240058899	None	None	None	None	1
1.7	2015_Aug_07_1514	s	s	17	4	Capacity	76	RC	1	0	23MC	1	0	1.08230185509	-400.0	241.0	-393	250	1
1.7	2015_Aug_07_1514	s	s	17	4	Capacity	77	ABS	2	0	24VC	0	1	0.514887809753	None	None	None	None	1
1.7	2015_Aug_07_1514	s	s	17	4	Capacity	78	ABS	1	0	24MC	0	1	3.55383300781	None	None	None	None	1
1.7	2015_Aug_07_1514	s	s	17	4	Capacity	79	RC	2	0	23VC	1	0	0.486605882645	-70.0	-147.0	-64	-151	1
1.7	2015_Aug_07_1514	s	s	17	4	Capacity	80	RC	1	0	23MC	1	0	0.962038993835	-358.0	-154.0	-366	-159	1
1.7	2015_Aug_07_1514	s	s	17	4	Capacity	81	RC	2	0	23VC	1	0	0.607172966003	-76.0	-121.0	-83	-122	1
1.7	2015_Aug_07_1514	s	s	17	4	Capacity	82	RC	1	0	23MC	1	0	1.23045110703	121.0	-293.0	113	-290	1
1.7	2015_Aug_07_1514	s	s	17	4	Capacity	83	ABS	2	0	24VC	0	1	0.48193192482	None	None	None	None	1
1.7	2015_Aug_07_1514	s	s	17	4	Capacity	84	ABS	1	0	24MC	0	1	4.73106217384	None	None	None	None	1
1.7	2015_Aug_07_1514	s	s	17	4	Capacity	85	ABS	2	0	24VC	0	1	0.441548109055	None	None	None	None	1
1.7	2015_Aug_07_1514	s	s	17	4	Capacity	86	ABS	1	0	24MC	0	1	3.02434587479	None	None	None	None	1
1.7	2015_Aug_07_1514	s	s	17	4	Capacity	87	RC	2	0	23VC	1	0	0.418789863586	-398.0	-301.0	-402	-294	1
1.7	2015_Aug_07_1514	s	s	17	4	Capacity	88	RC	1	0	23MC	1	0	0.678495168686	-475.0	15.0	-482	14	1
1.7	2015_Aug_07_1514	s	s	17	4	Capacity	89	ABS	1	0	24MC	0	1	1.78338098526	None	None	None	None	1
1.7	2015_Aug_07_1514	s	s	17	4	Capacity	90	ABS	2	0	24VC	0	1	0.493699073792	None	None	None	None	1
1.7	2015_Aug_07_1514	s	s	17	4	Capacity	91	RC	1	0	23MC	1	0	0.959562063217	516.0	-123.0	521	-127	1
1.7	2015_Aug_07_1514	s	s	17	4	Capacity	92	RC	2	0	23VC	1	0	0.406346082687	167.0	9.0	174	3	1
1.7	2015_Aug_07_1514	s	s	17	4	Capacity	1	RC	0	1	23RO	1	0	0.6420981884	-527.0	23.0	-529	22	1
1.7	2015_Aug_07_1514	s	s	17	4	Capacity	2	ABS	0	2	24RD	0	1	1.00694179535	None	None	None	None	1
1.7	2015_Aug_07_1514	s	s	17	4	Capacity	3	ABS	0	1	24RO	0	1	3.10675382614	None	None	None	None	1
1.7	2015_Aug_07_1514	s	s	17	4	Capacity	4	RC	0	2	23RD	1	0	0.642066955566	-14.0	-371.0	-19	-366	1
1.7	2015_Aug_07_1514	s	s	17	4	Capacity	5	ABS	0	1	24RO	0	1	3.2362780571	None	None	None	None	1
1.7	2015_Aug_07_1514	s	s	17	4	Capacity	6	ABS	0	2	24RD	0	1	2.0479118824	None	None	None	None	1
1.7	2015_Aug_07_1514	s	s	17	4	Capacity	7	RC	0	2	23RD	1	0	1.22341299057	-199.0	194.0	-207	191	1
1.7	2015_Aug_07_1514	s	s	17	4	Capacity	8	RC	0	1	23RO	0	1	3.20788002014	62.0	252.0	None	None	0
1.7	2015_Aug_07_1514	s	s	17	4	Capacity	9	ABS	0	2	24RD	0	1	1.11731791496	None	None	None	None	1
1.7	2015_Aug_07_1514	s	s	17	4	Capacity	10	RC	0	2	23RD	1	0	2.98337483406	-450.0	410.0	-444	408	1
1.7	2015_Aug_07_1514	s	s	17	4	Capacity	11	RC	0	1	23RO	0	1	2.38387489319	-298.0	-293.0	None	None	0
1.7	2015_Aug_07_1514	s	s	17	4	Capacity	12	ABS	0	1	24RO	0	1	2.07096505165	None	None	None	None	1
1.7	2015_Aug_07_1514	s	s	17	4	Capacity	13	ABS	0	1	24RO	0	1	4.04347109795	None	None	None	None	1
1.7	2015_Aug_07_1514	s	s	17	4	Capacity	14	RC	0	2	23RD	1	0	1.57144904137	-83.0	406.0	-80	414	1
1.7	2015_Aug_07_1514	s	s	17	4	Capacity	15	ABS	0	2	24RD	0	1	4.36105108261	None	None	None	None	1
1.7	2015_Aug_07_1514	s	s	17	4	Capacity	16	RC	0	1	23RO	1	0	2.30000495911	45.0	-199.0	58	-191	1
1.7	2015_Aug_07_1514	s	s	17	4	Capacity	17	ABS	0	1	24RO	0	1	4.53109002113	None	None	None	None	1
1.7	2015_Aug_07_1514	s	s	17	4	Capacity	18	RC	0	2	23RD	1	0	0.523911952972	-181.0	-369.0	-181	-372	1
1.7	2015_Aug_07_1514	s	s	17	4	Capacity	19	RC	0	1	23RO	1	0	3.98450493813	-197.0	214.0	-200	217	1
1.7	2015_Aug_07_1514	s	s	17	4	Capacity	20	ABS	0	2	24RD	0	1	0.947852134705	None	None	None	None	1
1.7	2015_Aug_07_1514	s	s	17	4	Capacity	21	RC	0	2	23RD	1	0	0.467575073242	102.0	327.0	91	328	1
1.7	2015_Aug_07_1514	s	s	17	4	Capacity	22	ABS	0	2	24RD	0	1	1.0656580925	None	None	None	None	1
1.7	2015_Aug_07_1514	s	s	17	4	Capacity	23	ABS	0	1	24RO	0	1	3.97775006294	None	None	None	None	1
1.7	2015_Aug_07_1514	s	s	17	4	Capacity	24	RC	0	1	23RO	1	0	4.36344504356	-217.0	-57.0	-208	-60	1
1.7	2015_Aug_07_1514	s	s	17	4	Capacity	25	ABS	0	2	24RD	0	1	0.623121023178	None	None	None	None	1
1.7	2015_Aug_07_1514	s	s	17	4	Capacity	26	RC	0	1	23RO	1	0	1.41180300713	256.0	411.0	253	408	1
1.7	2015_Aug_07_1514	s	s	17	4	Capacity	27	ABS	0	1	24RO	0	1	3.6872689724	None	None	None	None	1
1.7	2015_Aug_07_1514	s	s	17	4	Capacity	28	RC	0	2	23RD	0	1	0.8467669487	407.0	-380.0	None	None	0
1.7	2015_Aug_07_1514	s	s	17	4	Capacity	29	RC	0	2	23RD	1	0	0.47576713562	-249.0	4.0	-241	0	1
1.7	2015_Aug_07_1514	s	s	17	4	Capacity	30	ABS	0	1	24RO	0	1	3.8953871727	None	None	None	None	1
1.7	2015_Aug_07_1514	s	s	17	4	Capacity	31	RC	0	1	23RO	1	0	1.65369701385	-253.0	-364.0	-248	-360	1
1.7	2015_Aug_07_1514	s	s	17	4	Capacity	32	ABS	0	2	24RD	0	1	0.619024991989	None	None	None	None	1
1.7	2015_Aug_07_1514	s	s	17	4	Capacity	33	RC	0	1	23RO	0	1	4.29567503929	422.0	-175.0	None	None	0
1.7	2015_Aug_07_1514	s	s	17	4	Capacity	34	ABS	0	2	24RD	0	1	3.60795879364	None	None	None	None	1
1.7	2015_Aug_07_1514	s	s	17	4	Capacity	35	ABS	0	1	24RO	0	1	3.13073396683	None	None	None	None	1
1.7	2015_Aug_07_1514	s	s	17	4	Capacity	36	RC	0	2	23RD	1	0	0.488699913025	122.0	-388.0	136	-380	1
1.7	2015_Aug_07_1514	s	s	17	4	Capacity	37	ABS	0	1	24RO	0	1	3.08990693092	None	None	None	None	1
1.7	2015_Aug_07_1514	s	s	17	4	Capacity	38	ABS	0	2	24RD	0	1	0.830258846283	None	None	None	None	1
1.7	2015_Aug_07_1514	s	s	17	4	Capacity	39	RC	0	1	23RO	1	0	3.14211297035	-527.0	-394.0	-513	-389	1
1.7	2015_Aug_07_1514	s	s	17	4	Capacity	40	RC	0	2	23RD	1	0	0.465061187744	-25.0	-321.0	-15	-318	1
1.7	2015_Aug_07_1514	s	s	17	4	Capacity	41	RC	0	1	23RO	0	1	3.83407902718	512.0	-42.0	None	None	0
1.7	2015_Aug_07_1514	s	s	17	4	Capacity	42	ABS	0	1	24RO	0	1	3.34590911865	None	None	None	None	1
1.7	2015_Aug_07_1514	s	s	17	4	Capacity	43	RC	0	2	23RD	1	0	0.49369096756	132.0	32.0	137	36	1
1.7	2015_Aug_07_1514	s	s	17	4	Capacity	44	ABS	0	2	24RD	0	1	2.40052700043	None	None	None	None	1
1.7	2015_Aug_07_1514	s	s	17	4	Capacity	45	ABS	0	2	24RD	0	1	0.70059800148	None	None	None	None	1
1.7	2015_Aug_07_1514	s	s	17	4	Capacity	46	RC	0	1	23RO	0	1	4.50164008141	-102.0	32.0	None	None	0
1.7	2015_Aug_07_1514	s	s	17	4	Capacity	47	RC	0	2	23RD	1	0	0.524194002151	261.0	44.0	267	44	1
1.7	2015_Aug_07_1514	s	s	17	4	Capacity	48	ABS	0	1	24RO	0	1	2.94892001152	None	None	None	None	1
1.7	2015_Aug_07_1514	s	s	17	4	Capacity	49	ABS	0	2	24RD	0	1	1.13590407372	None	None	None	None	1
1.7	2015_Aug_07_1514	s	s	17	4	Capacity	50	RC	0	1	23RO	1	0	0.905961990356	329.0	152.0	325	156	1
1.7	2015_Aug_07_1514	s	s	17	4	Capacity	51	ABS	0	1	24RO	0	1	4.10728216171	None	None	None	None	1
1.7	2015_Aug_07_1514	s	s	17	4	Capacity	52	RC	0	2	23RD	1	0	0.49090385437	-407.0	344.0	-410	339	1
1.7	2015_Aug_07_1514	s	s	17	4	Capacity	53	RC	0	2	23RD	1	0	1.40006303787	-278.0	125.0	-278	119	1
1.7	2015_Aug_07_1514	s	s	17	4	Capacity	54	ABS	0	1	24RO	0	1	3.94962787628	None	None	None	None	1
1.7	2015_Aug_07_1514	s	s	17	4	Capacity	55	RC	0	1	23RO	0	1	2.385242939	-148.0	201.0	None	None	0
1.7	2015_Aug_07_1514	s	s	17	4	Capacity	56	ABS	0	2	24RD	0	1	0.764466047287	None	None	None	None	1
1.7	2015_Aug_07_1514	s	s	17	4	Capacity	57	RC	0	1	23RO	1	0	1.61842393875	-13.0	291.0	-11	294	1
1.7	2015_Aug_07_1514	s	s	17	4	Capacity	58	RC	0	2	23RD	1	0	0.497405052185	213.0	-82.0	208	-91	1
1.7	2015_Aug_07_1514	s	s	17	4	Capacity	59	ABS	0	2	24RD	0	1	1.47066688538	None	None	None	None	1
1.7	2015_Aug_07_1514	s	s	17	4	Capacity	60	ABS	0	1	24RO	0	1	1.44709706306	None	None	None	None	1
1.7	2015_Aug_07_1514	s	s	17	4	Capacity	61	ABS	0	2	24RD	0	1	0.688853025436	None	None	None	None	1
1.7	2015_Aug_07_1514	s	s	17	4	Capacity	62	RC	0	2	23RD	1	0	0.651450872421	241.0	-281.0	246	-274	1
1.7	2015_Aug_07_1514	s	s	17	4	Capacity	63	ABS	0	1	24RO	0	1	6.26731300354	None	None	None	None	1
1.7	2015_Aug_07_1514	s	s	17	4	Capacity	64	RC	0	1	23RO	1	0	4.86865901947	201.0	317.0	200	309	1
1.7	2015_Aug_07_1514	s	s	17	4	Capacity	65	ABS	0	2	24RD	0	1	0.846819877625	None	None	None	None	1
1.7	2015_Aug_07_1514	s	s	17	4	Capacity	66	ABS	0	1	24RO	0	1	3.09497714043	None	None	None	None	1
1.7	2015_Aug_07_1514	s	s	17	4	Capacity	67	RC	0	1	23RO	1	0	3.5503680706	474.0	18.0	474	13	1
1.7	2015_Aug_07_1514	s	s	17	4	Capacity	68	RC	0	2	23RD	1	0	6.9594399929	-188.0	126.0	-186	124	1
1.7	2015_Aug_07_1514	s	s	17	4	Capacity	69	ABS	0	2	24RD	0	1	9.67107105255	None	None	None	None	1
1.7	2015_Aug_07_1514	s	s	17	4	Capacity	70	RC	0	2	23RD	1	0	0.658488035202	-479.0	152.0	-469	150	1
1.7	2015_Aug_07_1514	s	s	17	4	Capacity	71	ABS	0	1	24RO	0	1	2.25393414497	None	None	None	None	1
1.7	2015_Aug_07_1514	s	s	17	4	Capacity	72	RC	0	1	23RO	1	0	1.70337104797	-132.0	239.0	-137	228	1
1.7	2015_Aug_07_1514	s	s	17	4	Capacity	73	RC	0	1	23RO	1	0	1.64369893074	486.0	332.0	493	341	1
1.7	2015_Aug_07_1514	s	s	17	4	Capacity	74	ABS	0	1	24RO	0	1	3.77767109871	None	None	None	None	1
1.7	2015_Aug_07_1514	s	s	17	4	Capacity	75	RC	0	2	23RD	1	0	1.02334785461	66.0	162.0	70	151	1
1.7	2015_Aug_07_1514	s	s	17	4	Capacity	76	ABS	0	2	24RD	0	1	0.806551933289	None	None	None	None	1
1.7	2015_Aug_07_1514	s	s	17	4	Capacity	77	RC	0	1	23RO	1	0	1.16464805603	506.0	277.0	513	284	1
1.7	2015_Aug_07_1514	s	s	17	4	Capacity	78	ABS	0	1	24RO	0	1	2.40700292587	None	None	None	None	1
1.7	2015_Aug_07_1514	s	s	17	4	Capacity	79	RC	0	2	23RD	1	0	0.464419126511	-223.0	-365.0	-218	-357	1
1.7	2015_Aug_07_1514	s	s	17	4	Capacity	80	ABS	0	2	24RD	0	1	0.787992954254	None	None	None	None	1
1.7	2015_Aug_07_1514	s	s	17	4	Capacity	81	RC	0	1	23RO	1	0	2.86628913879	339.0	-215.0	349	-215	1
1.7	2015_Aug_07_1514	s	s	17	4	Capacity	82	ABS	0	2	24RD	0	1	0.879250049591	None	None	None	None	1
1.7	2015_Aug_07_1514	s	s	17	4	Capacity	83	RC	0	2	23RD	1	0	0.634969949722	233.0	320.0	235	323	1
1.7	2015_Aug_07_1514	s	s	17	4	Capacity	84	ABS	0	1	24RO	0	1	3.24327802658	None	None	None	None	1
1.7	2015_Aug_07_1514	s	s	17	4	Capacity	85	ABS	0	1	24RO	0	1	4.42013192177	None	None	None	None	1
1.7	2015_Aug_07_1514	s	s	17	4	Capacity	86	ABS	0	2	24RD	0	1	0.611398935318	None	None	None	None	1
1.7	2015_Aug_07_1514	s	s	17	4	Capacity	87	RC	0	2	23RD	1	0	0.376003026962	12.0	124.0	17	121	1
1.7	2015_Aug_07_1514	s	s	17	4	Capacity	88	RC	0	1	23RO	1	0	0.552554130554	-48.0	80.0	-41	78	1
1.7	2015_Aug_07_1514	s	s	17	4	Capacity	89	RC	0	2	23RD	1	0	0.430093050003	-340.0	295.0	-330	299	1
1.7	2015_Aug_07_1514	s	s	17	4	Capacity	90	RC	0	1	23RO	1	0	1.34803509712	304.0	131.0	296	131	1
1.7	2015_Aug_07_1514	s	s	17	4	Capacity	91	ABS	0	2	24RD	0	1	0.840934991837	None	None	None	None	1
1.7	2015_Aug_07_1514	s	s	17	4	Capacity	92	ABS	0	1	24RO	0	1	2.72506690025	None	None	None	None	1
1.7	2015_Aug_07_1514	s	s	17	4	SIC	1	ABS	0	2	24RD	0	1	1.06550502777	None	None	None	None	1
1.7	2015_Aug_07_1514	s	s	17	4	SIC	2	ABS	2	2	24VD	0	1	0.429719924927	None	None	None	None	1
1.7	2015_Aug_07_1514	s	s	17	4	SIC	3	ABS	2	1	24VO	0	1	0.783086061478	None	None	None	None	1
1.7	2015_Aug_07_1514	s	s	17	4	SIC	4	RC	2	1	23VO	1	0	0.458564996719	-212.0	217.0	-211	218	1
1.7	2015_Aug_07_1514	s	s	17	4	SIC	5	RC	0	2	23RD	1	0	0.523993968964	-100.0	-197.0	-85	-190	1
1.7	2015_Aug_07_1514	s	s	17	4	SIC	6	RC	2	2	23VD	1	0	0.458482027054	-526.0	-299.0	-523	-293	1
1.7	2015_Aug_07_1514	s	s	17	4	SIC	7	ABS	1	2	24MD	0	1	0.771106004715	None	None	None	None	1
1.7	2015_Aug_07_1514	s	s	17	4	SIC	8	RC	1	2	23MD	1	0	0.429929971695	-207.0	275.0	-203	269	1
1.7	2015_Aug_07_1514	s	s	17	4	SIC	9	ABS	2	0	24VC	0	1	0.572664022446	None	None	None	None	1
1.7	2015_Aug_07_1514	s	s	17	4	SIC	10	RC	2	0	23VC	1	0	0.38476395607	-165.0	269.0	-168	278	1
1.7	2015_Aug_07_1514	s	s	17	4	SIC	11	RC	1	1	23MO	1	0	0.547116041183	72.0	362.0	78	363	1
1.7	2015_Aug_07_1514	s	s	17	4	SIC	12	ABS	0	1	24RO	0	1	3.47189116478	None	None	None	None	1
1.7	2015_Aug_07_1514	s	s	17	4	SIC	13	ABS	1	1	24MO	0	1	2.44770598412	None	None	None	None	1
1.7	2015_Aug_07_1514	s	s	17	4	SIC	14	RC	1	0	23MC	1	0	0.705587863922	-40.0	240.0	-31	237	1
1.7	2015_Aug_07_1514	s	s	17	4	SIC	15	ABS	1	0	24MC	0	1	2.23071694374	None	None	None	None	1
1.7	2015_Aug_07_1514	s	s	17	4	SIC	16	RC	0	1	23RO	1	0	7.26180386543	-349.0	392.0	-343	388	1
1.7	2015_Aug_07_1514	s	s	17	4	SIC	17	ABS	1	1	24MO	0	1	10.1456108093	None	None	None	None	1
1.7	2015_Aug_07_1514	s	s	17	4	SIC	18	RC	1	1	23MO	1	0	2.20049381256	-535.0	214.0	-531	207	1
1.7	2015_Aug_07_1514	s	s	17	4	SIC	19	ABS	2	2	24VD	0	1	0.470191955566	None	None	None	None	1
1.7	2015_Aug_07_1514	s	s	17	4	SIC	20	RC	1	2	23MD	1	0	0.458427906036	261.0	56.0	259	57	1
1.7	2015_Aug_07_1514	s	s	17	4	SIC	21	RC	2	1	23VO	1	0	0.434808015823	421.0	-197.0	415	-189	1
1.7	2015_Aug_07_1514	s	s	17	4	SIC	22	RC	0	2	23RD	1	0	0.632319927216	3.0	-310.0	-10	-304	1
1.7	2015_Aug_07_1514	s	s	17	4	SIC	23	ABS	1	0	24MC	0	1	2.16529893875	None	None	None	None	1
1.7	2015_Aug_07_1514	s	s	17	4	SIC	24	ABS	1	2	24MD	0	1	0.493741035461	None	None	None	None	1
1.7	2015_Aug_07_1514	s	s	17	4	SIC	25	RC	0	1	23RO	1	0	2.43096494675	-267.0	-46.0	-266	-49	1
1.7	2015_Aug_07_1514	s	s	17	4	SIC	26	ABS	0	2	24RD	0	1	1.09388899803	None	None	None	None	1
1.7	2015_Aug_07_1514	s	s	17	4	SIC	27	ABS	2	1	24VO	0	1	0.564365148544	None	None	None	None	1
1.7	2015_Aug_07_1514	s	s	17	4	SIC	28	RC	2	2	23VD	1	0	0.490808963776	-302.0	39.0	-308	45	1
1.7	2015_Aug_07_1514	s	s	17	4	SIC	29	RC	1	0	23MC	1	0	0.879411935806	512.0	296.0	505	301	1
1.7	2015_Aug_07_1514	s	s	17	4	SIC	30	ABS	0	1	24RO	0	1	4.89586305618	None	None	None	None	1
1.7	2015_Aug_07_1514	s	s	17	4	SIC	31	ABS	2	0	24VC	0	1	0.540745973587	None	None	None	None	1
1.7	2015_Aug_07_1514	s	s	17	4	SIC	32	RC	2	0	23VC	1	0	0.458399057388	66.0	-323.0	68	-332	1
1.7	2015_Aug_07_1514	s	s	17	4	SIC	33	ABS	0	1	24RO	0	1	4.70399284363	None	None	None	None	1
1.7	2015_Aug_07_1514	s	s	17	4	SIC	34	RC	1	2	23MD	1	0	0.391452074051	-301.0	239.0	-305	238	1
1.7	2015_Aug_07_1514	s	s	17	4	SIC	35	ABS	0	2	24RD	0	1	0.493716001511	None	None	None	None	1
1.7	2015_Aug_07_1514	s	s	17	4	SIC	36	RC	2	2	23VD	1	0	0.441650152206	-119.0	167.0	-118	162	1
1.7	2015_Aug_07_1514	s	s	17	4	SIC	37	ABS	2	2	24VD	0	1	0.740992069244	None	None	None	None	1
1.7	2015_Aug_07_1514	s	s	17	4	SIC	38	RC	2	1	23VO	1	0	0.587956190109	284.0	-397.0	287	-398	1
1.7	2015_Aug_07_1514	s	s	17	4	SIC	39	ABS	2	1	24VO	0	1	0.453739881516	None	None	None	None	1
1.7	2015_Aug_07_1514	s	s	17	4	SIC	40	ABS	1	0	24MC	0	1	2.11806797981	None	None	None	None	1
1.7	2015_Aug_07_1514	s	s	17	4	SIC	41	RC	1	1	23MO	1	0	0.665372133255	354.0	-144.0	359	-136	1
1.7	2015_Aug_07_1514	s	s	17	4	SIC	42	RC	2	0	23VC	1	0	0.399555206299	348.0	307.0	344	306	1
1.7	2015_Aug_07_1514	s	s	17	4	SIC	43	ABS	1	1	24MO	0	1	2.30642700195	None	None	None	None	1
1.7	2015_Aug_07_1514	s	s	17	4	SIC	44	ABS	1	2	24MD	0	1	0.564367055893	None	None	None	None	1
1.7	2015_Aug_07_1514	s	s	17	4	SIC	45	RC	0	1	23RO	0	1	3.70713210106	220.0	124.0	None	None	0
1.7	2015_Aug_07_1514	s	s	17	4	SIC	46	RC	0	2	23RD	1	0	0.505499124527	-136.0	-346.0	-134	-348	1
1.7	2015_Aug_07_1514	s	s	17	4	SIC	47	ABS	2	0	24VC	0	1	0.517288923264	None	None	None	None	1
1.7	2015_Aug_07_1514	s	s	17	4	SIC	48	RC	1	0	23MC	1	0	0.700544834137	-448.0	-48.0	-448	-45	1
1.7	2015_Aug_07_1514	s	s	17	4	SIC	49	RC	0	2	23RD	1	0	0.62323307991	-531.0	393.0	-525	384	1
1.7	2015_Aug_07_1514	s	s	17	4	SIC	50	RC	1	2	23MD	1	0	0.422945976257	-389.0	360.0	-380	361	1
1.7	2015_Aug_07_1514	s	s	17	4	SIC	51	ABS	1	2	24MD	0	1	0.811517000198	None	None	None	None	1
1.7	2015_Aug_07_1514	s	s	17	4	SIC	52	RC	1	1	23MO	1	0	1.48247218132	512.0	-201.0	518	-204	1
1.7	2015_Aug_07_1514	s	s	17	4	SIC	53	ABS	1	0	24MC	1	0	4.51445198059	None	None	64	34	0
1.7	2015_Aug_07_1514	s	s	17	4	SIC	54	RC	0	1	23RO	0	1	3.42458295822	310.0	-52.0	None	None	0
1.7	2015_Aug_07_1514	s	s	17	4	SIC	55	ABS	2	0	24VC	0	1	0.523149013519	None	None	None	None	1
1.7	2015_Aug_07_1514	s	s	17	4	SIC	56	ABS	0	2	24RD	0	1	0.68199300766	None	None	None	None	1
1.7	2015_Aug_07_1514	s	s	17	4	SIC	57	RC	1	0	23MC	1	0	0.996042966843	-296.0	-307.0	-295	-310	1
1.7	2015_Aug_07_1514	s	s	17	4	SIC	58	RC	2	1	23VO	1	0	0.587703943253	-152.0	-203.0	-149	-198	1
1.7	2015_Aug_07_1514	s	s	17	4	SIC	59	ABS	1	1	24MO	0	1	1.58280706406	None	None	None	None	1
1.7	2015_Aug_07_1514	s	s	17	4	SIC	60	RC	2	2	23VD	1	0	0.523917913437	304.0	-307.0	300	-305	1
1.7	2015_Aug_07_1514	s	s	17	4	SIC	61	ABS	2	2	24VD	0	1	0.49044418335	None	None	None	None	1
1.7	2015_Aug_07_1514	s	s	17	4	SIC	62	ABS	2	1	24VO	0	1	0.482213020325	None	None	None	None	1
1.7	2015_Aug_07_1514	s	s	17	4	SIC	63	RC	2	0	23VC	1	0	0.371448040009	117.0	305.0	114	306	1
1.7	2015_Aug_07_1514	s	s	17	4	SIC	64	ABS	0	1	24RO	0	1	4.14254689217	None	None	None	None	1
1.7	2015_Aug_07_1514	s	s	17	4	SIC	65	ABS	1	2	24MD	0	1	0.787938833237	None	None	None	None	1
1.7	2015_Aug_07_1514	s	s	17	4	SIC	66	ABS	0	1	24RO	0	1	3.75452804565	None	None	None	None	1
1.7	2015_Aug_07_1514	s	s	17	4	SIC	67	RC	2	1	23VO	1	0	0.67031788826	341.0	-364.0	349	-365	1
1.7	2015_Aug_07_1514	s	s	17	4	SIC	68	ABS	2	1	24VO	0	1	0.42294716835	None	None	None	None	1
1.7	2015_Aug_07_1514	s	s	17	4	SIC	69	RC	0	2	23RD	1	0	0.538136959076	63.0	-371.0	70	-366	1
1.7	2015_Aug_07_1514	s	s	17	4	SIC	70	RC	0	1	23RO	1	0	1.64710903168	55.0	-85.0	53	-88	1
1.7	2015_Aug_07_1514	s	s	17	4	SIC	71	ABS	0	2	24RD	0	1	0.858576059341	None	None	None	None	1
1.7	2015_Aug_07_1514	s	s	17	4	SIC	72	ABS	2	2	24VD	0	1	0.45839715004	None	None	None	None	1
1.7	2015_Aug_07_1514	s	s	17	4	SIC	73	ABS	1	1	24MO	0	1	2.25595498085	None	None	None	None	1
1.7	2015_Aug_07_1514	s	s	17	4	SIC	74	RC	1	2	23MD	1	0	0.458382844925	-469.0	310.0	-466	319	1
1.7	2015_Aug_07_1514	s	s	17	4	SIC	75	ABS	1	0	24MC	0	1	3.20141410828	None	None	None	None	1
1.7	2015_Aug_07_1514	s	s	17	4	SIC	76	RC	2	0	23VC	1	0	0.411204099655	-141.0	-167.0	-138	-168	1
1.7	2015_Aug_07_1514	s	s	17	4	SIC	77	RC	1	1	23MO	1	0	0.700503826141	-201.0	293.0	-206	293	1
1.7	2015_Aug_07_1514	s	s	17	4	SIC	78	RC	1	0	23MC	1	0	0.652927875519	108.0	157.0	110	149	1
1.7	2015_Aug_07_1514	s	s	17	4	SIC	79	ABS	2	0	24VC	0	1	0.615139007568	None	None	None	None	1
1.7	2015_Aug_07_1514	s	s	17	4	SIC	80	RC	2	2	23VD	1	0	0.372731924057	-515.0	330.0	-507	325	1
1.7	2015_Aug_07_1514	s	s	17	4	SIC	81	ABS	1	2	24MD	0	1	0.882178068161	None	None	None	None	1
1.7	2015_Aug_07_1514	s	s	17	4	SIC	82	RC	1	0	23MC	1	0	3.12483310699	-83.0	-368.0	-85	-374	1
1.7	2015_Aug_07_1514	s	s	17	4	SIC	83	ABS	1	1	24MO	0	1	2.2072031498	None	None	None	None	1
1.7	2015_Aug_07_1514	s	s	17	4	SIC	84	RC	1	2	23MD	1	0	0.52904009819	449.0	310.0	447	300	1
1.7	2015_Aug_07_1514	s	s	17	4	SIC	85	RC	0	2	23RD	1	0	0.547343015671	195.0	-201.0	191	-205	1
1.7	2015_Aug_07_1514	s	s	17	4	SIC	86	ABS	0	1	24RO	0	1	2.57247400284	None	None	None	None	1
1.7	2015_Aug_07_1514	s	s	17	4	SIC	87	RC	2	2	23VD	1	0	0.47016620636	365.0	12.0	372	10	1
1.7	2015_Aug_07_1514	s	s	17	4	SIC	88	RC	2	1	23VO	1	0	0.375967979431	-73.0	275.0	-73	266	1
1.7	2015_Aug_07_1514	s	s	17	4	SIC	89	RC	0	1	23RO	1	0	2.51445102692	-275.0	-380.0	-269	-383	1
1.7	2015_Aug_07_1514	s	s	17	4	SIC	90	ABS	2	0	24VC	0	1	0.394687891006	None	None	None	None	1
1.7	2015_Aug_07_1514	s	s	17	4	SIC	91	RC	1	1	23MO	1	0	1.0116751194	-253.0	-87.0	-250	-81	1
1.7	2015_Aug_07_1514	s	s	17	4	SIC	92	ABS	2	1	24VO	0	1	8.52122592926	None	None	None	None	1
1.7	2015_Aug_07_1514	s	s	17	4	SIC	93	ABS	1	0	24MC	0	1	9.05094504356	None	None	None	None	1
1.7	2015_Aug_07_1514	s	s	17	4	SIC	94	ABS	2	2	24VD	0	1	0.899674892426	None	None	None	None	1
1.7	2015_Aug_07_1514	s	s	17	4	SIC	95	ABS	0	2	24RD	0	1	1.06538486481	None	None	None	None	1
1.7	2015_Aug_07_1514	s	s	17	4	SIC	96	RC	2	0	23VC	1	0	0.458441972733	-436.0	-53.0	-438	-57	1
1.7	2015_Aug_07_1514	s	s	17	4	SIC	97	ABS	0	2	24RD	0	1	0.634918928146	None	None	None	None	1
1.7	2015_Aug_07_1514	s	s	17	4	SIC	98	RC	2	0	23VC	1	0	0.515388965607	442.0	-147.0	440	-146	1
1.7	2015_Aug_07_1514	s	s	17	4	SIC	99	ABS	2	2	24VD	0	1	0.458380937576	None	None	None	None	1
1.7	2015_Aug_07_1514	s	s	17	4	SIC	100	RC	2	2	23VD	1	0	0.477127075195	280.0	-379.0	289	-382	1
1.7	2015_Aug_07_1514	s	s	17	4	SIC	101	RC	0	2	23RD	1	0	0.441640138626	-74.0	238.0	-70	231	1
1.7	2015_Aug_07_1514	s	s	17	4	SIC	102	ABS	1	1	24MO	0	1	2.80072903633	None	None	None	None	1
1.7	2015_Aug_07_1514	s	s	17	4	SIC	103	RC	2	1	23VO	1	0	0.418380975723	99.0	160.0	100	156	1
1.7	2015_Aug_07_1514	s	s	17	4	SIC	104	RC	1	1	23MO	1	0	0.517199039459	235.0	120.0	247	123	1
1.7	2015_Aug_07_1514	s	s	17	4	SIC	105	RC	1	2	23MD	1	0	0.394684791565	164.0	-32.0	166	-37	1
1.7	2015_Aug_07_1514	s	s	17	4	SIC	106	ABS	1	2	24MD	0	1	0.988165855408	None	None	None	None	1
1.7	2015_Aug_07_1514	s	s	17	4	SIC	107	ABS	2	1	24VO	0	1	0.538619995117	None	None	None	None	1
1.7	2015_Aug_07_1514	s	s	17	4	SIC	108	ABS	0	1	24RO	0	1	4.37786483765	None	None	None	None	1
1.7	2015_Aug_07_1514	s	s	17	4	SIC	109	ABS	2	0	24VC	0	1	0.406440019608	None	None	None	None	1
1.7	2015_Aug_07_1514	s	s	17	4	SIC	110	ABS	1	0	24MC	0	1	2.12233304977	None	None	None	None	1
1.7	2015_Aug_07_1514	s	s	17	4	SIC	111	RC	1	0	23MC	1	0	1.89117693901	-75.0	404.0	219	-133	0
1.7	2015_Aug_07_1514	s	s	17	4	SIC	112	RC	0	1	23RO	1	0	2.18604183197	-178.0	-157.0	-187	-159	1
1.7	2015_Aug_07_1514	s	s	17	4	SIC	113	ABS	1	0	24MC	0	1	3.648250103	None	None	None	None	1
1.7	2015_Aug_07_1514	s	s	17	4	SIC	114	ABS	2	0	24VC	0	1	0.494100093842	None	None	None	None	1
1.7	2015_Aug_07_1514	s	s	17	4	SIC	115	ABS	2	2	24VD	0	1	0.430426836014	None	None	None	None	1
1.7	2015_Aug_07_1514	s	s	17	4	SIC	116	RC	2	1	23VO	0	1	0.418307065964	10.0	25.0	None	None	0
1.7	2015_Aug_07_1514	s	s	17	4	SIC	117	ABS	1	2	24MD	0	1	0.98845911026	None	None	None	None	1
1.7	2015_Aug_07_1514	s	s	17	4	SIC	118	ABS	0	2	24RD	0	1	0.747676849365	None	None	None	None	1
1.7	2015_Aug_07_1514	s	s	17	4	SIC	119	ABS	0	1	24RO	0	1	2.22393608093	None	None	None	None	1
1.7	2015_Aug_07_1514	s	s	17	4	SIC	120	RC	1	0	23MC	0	1	1.40013790131	261.0	-18.0	None	None	0
1.7	2015_Aug_07_1514	s	s	17	4	SIC	121	RC	1	1	23MO	1	0	1.03040409088	479.0	403.0	480	395	1
1.7	2015_Aug_07_1514	s	s	17	4	SIC	122	RC	2	2	23VD	1	0	0.399990797043	75.0	58.0	92	68	1
1.7	2015_Aug_07_1514	s	s	17	4	SIC	123	RC	0	1	23RO	1	0	1.70981001854	-99.0	-219.0	-100	-230	1
1.7	2015_Aug_07_1514	s	s	17	4	SIC	124	ABS	2	1	24VO	0	1	0.470232009888	None	None	None	None	1
1.7	2015_Aug_07_1514	s	s	17	4	SIC	125	RC	2	0	23VC	1	0	0.434898853302	-218.0	381.0	-221	389	1
1.7	2015_Aug_07_1514	s	s	17	4	SIC	126	ABS	1	1	24MO	0	1	2.65469408035	None	None	None	None	1
1.7	2015_Aug_07_1514	s	s	17	4	SIC	127	RC	1	2	23MD	1	0	0.446630954742	-487.0	97.0	-490	98	1
1.7	2015_Aug_07_1514	s	s	17	4	SIC	128	RC	0	2	23RD	1	0	0.787987947464	125.0	-309.0	125	-308	1
1.7	2015_Aug_07_1514	s	s	17	4	SIC	129	RC	1	0	23MC	1	0	0.999891042709	-204.0	84.0	-217	92	1
1.7	2015_Aug_07_1514	s	s	17	4	SIC	130	RC	2	1	23VO	1	0	0.571231126785	208.0	-128.0	204	-120	1
1.7	2015_Aug_07_1514	s	s	17	4	SIC	131	RC	0	2	23RD	1	0	0.458217859268	-368.0	-97.0	-374	-92	1
1.7	2015_Aug_07_1514	s	s	17	4	SIC	132	RC	2	2	23VD	1	0	0.376040935516	83.0	247.0	90	241	1
1.7	2015_Aug_07_1514	s	s	17	4	SIC	133	ABS	2	0	24VC	0	1	0.466797113419	None	None	None	None	1
1.7	2015_Aug_07_1514	s	s	17	4	SIC	134	RC	2	0	23VC	1	0	0.477046966553	419.0	86.0	420	87	1
1.7	2015_Aug_07_1514	s	s	17	4	SIC	135	ABS	1	1	24MO	0	1	2.62421298027	None	None	None	None	1
1.7	2015_Aug_07_1514	s	s	17	4	SIC	136	RC	1	1	23MO	1	0	0.785726070404	302.0	-6.0	312	-8	1
1.7	2015_Aug_07_1514	s	s	17	4	SIC	137	RC	0	1	23RO	0	1	3.14195895195	289.0	-27.0	None	None	0
1.7	2015_Aug_07_1514	s	s	17	4	SIC	138	ABS	1	0	24MC	1	0	2.76002788544	None	None	83	405	0
1.7	2015_Aug_07_1514	s	s	17	4	SIC	139	RC	1	2	23MD	1	0	0.441148042679	-163.0	18.0	-163	9	1
1.7	2015_Aug_07_1514	s	s	17	4	SIC	140	ABS	1	2	24MD	0	1	0.535833120346	None	None	None	None	1
1.7	2015_Aug_07_1514	s	s	17	4	SIC	141	ABS	2	2	24VD	0	1	0.476260185242	None	None	None	None	1
1.7	2015_Aug_07_1514	s	s	17	4	SIC	142	ABS	2	1	24VO	0	1	0.470201015472	None	None	None	None	1
1.7	2015_Aug_07_1514	s	s	17	4	SIC	143	ABS	0	2	24RD	0	1	0.787971973419	None	None	None	None	1
1.7	2015_Aug_07_1514	s	s	17	4	SIC	144	ABS	0	1	24RO	0	1	3.24332809448	None	None	None	None	1
1.7	2015_Aug_07_1514	s	s	17	4	SIC	145	RC	2	2	23VD	1	0	0.423536062241	-362.0	-305.0	-366	-312	1
1.7	2015_Aug_07_1514	s	s	17	4	SIC	146	RC	1	1	23MO	1	0	0.882207870483	487.0	253.0	488	246	1
1.7	2015_Aug_07_1514	s	s	17	4	SIC	147	ABS	2	1	24VO	0	1	0.477041959763	None	None	None	None	1
1.7	2015_Aug_07_1514	s	s	17	4	SIC	148	ABS	1	2	24MD	0	1	0.505433082581	None	None	None	None	1
1.7	2015_Aug_07_1514	s	s	17	4	SIC	149	RC	0	1	23RO	1	0	1.9954199791	476.0	-327.0	472	-330	1
1.7	2015_Aug_07_1514	s	s	17	4	SIC	150	ABS	2	2	24VD	0	1	0.456089019775	None	None	None	None	1
1.7	2015_Aug_07_1514	s	s	17	4	SIC	151	ABS	1	1	24MO	0	1	2.75371599197	None	None	None	None	1
1.7	2015_Aug_07_1514	s	s	17	4	SIC	152	RC	2	1	23VO	1	0	0.501543998718	-42.0	181.0	-35	176	1
1.7	2015_Aug_07_1514	s	s	17	4	SIC	153	ABS	2	0	24VC	0	1	0.453423976898	None	None	None	None	1
1.7	2015_Aug_07_1514	s	s	17	4	SIC	154	ABS	1	0	24MC	0	1	4.52322220802	None	None	None	None	1
1.7	2015_Aug_07_1514	s	s	17	4	SIC	155	RC	2	0	23VC	1	0	0.403301954269	-186.0	-270.0	-182	-278	1
1.7	2015_Aug_07_1514	s	s	17	4	SIC	156	ABS	0	1	24RO	0	1	3.29513502121	None	None	None	None	1
1.7	2015_Aug_07_1514	s	s	17	4	SIC	157	RC	1	0	23MC	1	0	2.6663749218	534.0	50.0	530	46	1
1.7	2015_Aug_07_1514	s	s	17	4	SIC	158	RC	1	2	23MD	1	0	0.446623086929	-457.0	-281.0	-442	-275	1
1.7	2015_Aug_07_1514	s	s	17	4	SIC	159	RC	0	2	23RD	1	0	0.470066070557	-404.0	-9.0	-404	-4	1
1.7	2015_Aug_07_1514	s	s	17	4	SIC	160	ABS	0	2	24RD	0	1	0.85857796669	None	None	None	None	1
1.7	2015_Aug_07_1514	s	s	17	4	SIC	161	ABS	2	2	24VD	0	1	0.44665813446	None	None	None	None	1
1.7	2015_Aug_07_1514	s	s	17	4	SIC	162	RC	2	2	23VD	1	0	0.608147859573	386.0	145.0	390	142	1
1.7	2015_Aug_07_1514	s	s	17	4	SIC	163	RC	0	1	23RO	1	0	2.02385997772	-215.0	-403.0	-213	-407	1
1.7	2015_Aug_07_1514	s	s	17	4	SIC	164	ABS	0	1	24RO	0	1	4.43088102341	None	None	None	None	1
1.7	2015_Aug_07_1514	s	s	17	4	SIC	165	ABS	1	2	24MD	0	1	0.811356067657	None	None	None	None	1
1.7	2015_Aug_07_1514	s	s	17	4	SIC	166	RC	1	0	23MC	1	0	0.818234920502	384.0	-59.0	385	-49	1
1.7	2015_Aug_07_1514	s	s	17	4	SIC	167	RC	1	2	23MD	1	0	0.56431388855	337.0	267.0	341	260	1
1.7	2015_Aug_07_1514	s	s	17	4	SIC	168	RC	2	0	23VC	1	0	0.399613857269	122.0	-325.0	119	-337	1
1.7	2015_Aug_07_1514	s	s	17	4	SIC	169	RC	1	1	23MO	1	0	1.6590192318	-105.0	-376.0	-110	-373	1
1.7	2015_Aug_07_1514	s	s	17	4	SIC	170	ABS	1	0	24MC	0	1	3.24424409866	None	None	None	None	1
1.7	2015_Aug_07_1514	s	s	17	4	SIC	171	RC	0	2	23RD	1	0	0.502821922302	301.0	-1.0	302	5	1
1.7	2015_Aug_07_1514	s	s	17	4	SIC	172	ABS	2	0	24VC	0	1	0.418531894684	None	None	None	None	1
1.7	2015_Aug_07_1514	s	s	17	4	SIC	173	RC	2	1	23VO	1	0	0.458513975143	148.0	28.0	152	20	1
1.7	2015_Aug_07_1514	s	s	17	4	SIC	174	ABS	1	1	24MO	0	1	1.78841900826	None	None	None	None	1
1.7	2015_Aug_07_1514	s	s	17	4	SIC	175	ABS	0	2	24RD	0	1	0.878462076187	None	None	None	None	1
1.7	2015_Aug_07_1514	s	s	17	4	SIC	176	ABS	2	1	24VO	0	1	0.559605121613	None	None	None	None	1
1.7	2015_Aug_07_1514	s	s	17	4	SIC	177	RC	2	2	23VD	1	0	0.529027938843	-33.0	330.0	-24	328	1
1.7	2015_Aug_07_1514	s	s	17	4	SIC	178	RC	1	1	23MO	1	0	11.0141718388	-337.0	410.0	-341	405	1
1.7	2015_Aug_07_1514	s	s	17	4	SIC	179	RC	1	2	23MD	1	0	0.841789960861	73.0	-61.0	61	-58	1
1.7	2015_Aug_07_1514	s	s	17	4	SIC	180	ABS	1	1	24MO	0	1	2.04260587692	None	None	None	None	1
1.7	2015_Aug_07_1514	s	s	17	4	SIC	181	ABS	1	2	24MD	0	1	3.9868979454	None	None	None	None	1
1.7	2015_Aug_07_1514	s	s	17	4	SIC	182	RC	2	1	23VO	1	0	2.03569698334	-450.0	-37.0	-444	-31	1
1.7	2015_Aug_07_1514	s	s	17	4	SIC	183	RC	1	0	23MC	1	0	0.794751882553	-524.0	302.0	-515	306	1
1.7	2015_Aug_07_1514	s	s	17	4	SIC	184	ABS	0	2	24RD	0	1	0.717318058014	None	None	None	None	1
1.7	2015_Aug_07_1514	s	s	17	4	SIC	185	RC	0	2	23RD	1	0	0.55925989151	-20.0	-62.0	-24	-69	1
1.7	2015_Aug_07_1514	s	s	17	4	SIC	186	RC	2	0	23VC	1	0	0.441567182541	59.0	-386.0	62	-379	1
1.7	2015_Aug_07_1514	s	s	17	4	SIC	187	RC	0	1	23RO	1	0	2.05913114548	-409.0	362.0	-412	364	1
1.7	2015_Aug_07_1514	s	s	17	4	SIC	188	ABS	0	1	24RO	0	1	3.36569094658	None	None	None	None	1
1.7	2015_Aug_07_1514	s	s	17	4	SIC	189	ABS	2	1	24VO	0	1	0.552585840225	None	None	None	None	1
1.7	2015_Aug_07_1514	s	s	17	4	SIC	190	ABS	2	2	24VD	0	1	0.411376953125	None	None	None	None	1
1.7	2015_Aug_07_1514	s	s	17	4	SIC	191	ABS	1	0	24MC	0	1	1.97138309479	None	None	None	None	1
1.7	2015_Aug_07_1514	s	s	17	4	SIC	192	ABS	2	0	24VC	0	1	0.611939191818	None	None	None	None	1
1.7	2015_Aug_07_1514	s	s	17	4	SIC	193	RC	1	1	23MO	1	0	0.644709825516	172.0	263.0	168	264	1
1.7	2015_Aug_07_1514	s	s	17	4	SIC	194	RC	0	1	23RO	1	0	1.55307602882	-538.0	365.0	-542	369	1
1.7	2015_Aug_07_1514	s	s	17	4	SIC	195	ABS	1	2	24MD	0	1	0.829385042191	None	None	None	None	1
1.7	2015_Aug_07_1514	s	s	17	4	SIC	196	RC	2	0	23VC	1	0	0.415045022964	-424.0	308.0	-415	305	1
1.7	2015_Aug_07_1514	s	s	17	4	SIC	197	RC	1	2	23MD	1	0	0.405540943146	257.0	174.0	260	173	1
1.7	2015_Aug_07_1514	s	s	17	4	SIC	198	RC	0	2	23RD	1	0	0.523040056229	-527.0	141.0	-520	138	1
1.7	2015_Aug_07_1514	s	s	17	4	SIC	199	ABS	0	1	24RO	0	1	4.89583206177	None	None	None	None	1
1.7	2015_Aug_07_1514	s	s	17	4	SIC	200	ABS	2	0	24VC	0	1	0.523916959763	None	None	None	None	1
1.7	2015_Aug_07_1514	s	s	17	4	SIC	201	ABS	1	1	24MO	0	1	3.25983214378	None	None	None	None	1
1.7	2015_Aug_07_1514	s	s	17	4	SIC	202	RC	2	1	23VO	1	0	0.423081159592	-131.0	321.0	-124	314	1
1.7	2015_Aug_07_1514	s	s	17	4	SIC	203	RC	2	2	23VD	1	0	0.497794866562	356.0	-345.0	352	-340	1
1.7	2015_Aug_07_1514	s	s	17	4	SIC	204	ABS	0	2	24RD	0	1	0.952747106552	None	None	None	None	1
1.7	2015_Aug_07_1514	s	s	17	4	SIC	205	RC	1	0	23MC	1	0	1.97683405876	155.0	-284.0	162	-289	1
1.7	2015_Aug_07_1514	s	s	17	4	SIC	206	ABS	2	1	24VO	0	1	0.47025680542	None	None	None	None	1
1.7	2015_Aug_07_1514	s	s	17	4	SIC	207	ABS	2	2	24VD	0	1	0.462084054947	None	None	None	None	1
1.7	2015_Aug_07_1514	s	s	17	4	SIC	208	ABS	1	0	24MC	0	1	3.27849006653	None	None	None	None	1
1.7	2015_Aug_07_1514	s	s	17	4	SIC	209	RC	2	1	23VO	1	0	0.4113240242	509.0	-209.0	518	-207	1
1.7	2015_Aug_07_1514	s	s	17	4	SIC	210	RC	2	0	23VC	1	0	0.370963096619	-457.0	309.0	-466	312	1
1.7	2015_Aug_07_1514	s	s	17	4	SIC	211	ABS	0	1	24RO	0	1	2.9846599102	None	None	None	None	1
1.7	2015_Aug_07_1514	s	s	17	4	SIC	212	RC	1	1	23MO	1	0	0.611454963684	502.0	-270.0	499	-273	1
1.7	2015_Aug_07_1514	s	s	17	4	SIC	213	RC	0	2	23RD	1	0	0.529021024704	-517.0	313.0	-513	316	1
1.7	2015_Aug_07_1514	s	s	17	4	SIC	214	ABS	0	2	24RD	0	1	0.787996053696	None	None	None	None	1
1.7	2015_Aug_07_1514	s	s	17	4	SIC	215	RC	2	2	23VD	1	0	0.757996082306	443.0	355.0	441	350	1
1.7	2015_Aug_07_1514	s	s	17	4	SIC	216	ABS	1	2	24MD	0	1	0.712521076202	None	None	None	None	1
1.7	2015_Aug_07_1514	s	s	17	4	SIC	217	RC	1	2	23MD	0	1	0.835082054138	430.0	-401.0	None	None	0
1.7	2015_Aug_07_1514	s	s	17	4	SIC	218	ABS	1	0	24MC	0	1	2.47112298012	None	None	None	None	1
1.7	2015_Aug_07_1514	s	s	17	4	SIC	219	ABS	2	1	24VO	0	1	0.764437913895	None	None	None	None	1
1.7	2015_Aug_07_1514	s	s	17	4	SIC	220	RC	0	1	23RO	1	0	3.70694088936	-261.0	-248.0	-267	-254	1
1.7	2015_Aug_07_1514	s	s	17	4	SIC	221	ABS	2	2	24VD	0	1	0.44168806076	None	None	None	None	1
1.7	2015_Aug_07_1514	s	s	17	4	SIC	222	ABS	2	0	24VC	0	1	0.620215177536	None	None	None	None	1
1.7	2015_Aug_07_1514	s	s	17	4	SIC	223	ABS	1	1	24MO	0	1	2.37702894211	None	None	None	None	1
1.7	2015_Aug_07_1514	s	s	17	4	SIC	224	RC	1	0	23MC	1	0	0.735826015472	414.0	384.0	417	390	1
1.7	2015_Aug_07_1514	s	s	17	4	SIC	225	RC	0	2	23RD	1	0	0.458343029022	145.0	-49.0	144	-63	1
1.7	2015_Aug_07_1514	s	s	17	4	SIC	226	ABS	1	1	24MO	0	1	2.37221002579	None	None	None	None	1
1.7	2015_Aug_07_1514	s	s	17	4	SIC	227	RC	2	2	23VD	1	0	0.477175951004	-83.0	303.0	-80	296	1
1.7	2015_Aug_07_1514	s	s	17	4	SIC	228	ABS	0	1	24RO	0	1	3.4124250412	None	None	None	None	1
1.7	2015_Aug_07_1514	s	s	17	4	SIC	229	ABS	1	0	24MC	0	1	3.57805109024	None	None	None	None	1
1.7	2015_Aug_07_1514	s	s	17	4	SIC	230	ABS	2	1	24VO	0	1	0.688217163086	None	None	None	None	1
1.7	2015_Aug_07_1514	s	s	17	4	SIC	231	ABS	1	2	24MD	0	1	0.729552030563	None	None	None	None	1
1.7	2015_Aug_07_1514	s	s	17	4	SIC	232	RC	1	1	23MO	1	0	0.890547037125	41.0	371.0	45	364	1
1.7	2015_Aug_07_1514	s	s	17	4	SIC	233	RC	0	1	23RO	0	1	2.58079409599	497.0	-46.0	None	None	0
1.7	2015_Aug_07_1514	s	s	17	4	SIC	234	RC	2	0	23VC	1	0	0.429898023605	-477.0	310.0	-469	304	1
1.7	2015_Aug_07_1514	s	s	17	4	SIC	235	RC	1	2	23MD	1	0	0.465291976929	-148.0	-345.0	-148	-344	1
1.7	2015_Aug_07_1514	s	s	17	4	SIC	236	RC	2	1	23VO	1	0	0.423122167587	161.0	350.0	164	352	1
1.7	2015_Aug_07_1514	s	s	17	4	SIC	237	RC	1	0	23MC	1	0	2.15333890915	164.0	-271.0	166	-275	1
1.7	2015_Aug_07_1514	s	s	17	4	SIC	238	ABS	2	2	24VD	0	1	1.06556200981	None	None	None	None	1
1.7	2015_Aug_07_1514	s	s	17	4	SIC	239	ABS	2	0	24VC	0	1	0.434860944748	None	None	None	None	1
1.7	2015_Aug_07_1514	s	s	17	4	SIC	240	ABS	0	2	24RD	0	1	0.693737030029	None	None	None	None	1
1.7	2015_Aug_07_1514	s	s	17	4	SIC	241	RC	1	0	23MC	1	0	2.42012906075	-245.0	-383.0	-241	-383	1
1.7	2015_Aug_07_1514	s	s	17	4	SIC	242	RC	0	2	23RD	1	0	0.552577018738	-388.0	112.0	-389	114	1
1.7	2015_Aug_07_1514	s	s	17	4	SIC	243	RC	1	1	23MO	1	0	1.47065186501	427.0	358.0	430	353	1
1.7	2015_Aug_07_1514	s	s	17	4	SIC	244	ABS	1	2	24MD	0	1	0.84273481369	None	None	None	None	1
1.7	2015_Aug_07_1514	s	s	17	4	SIC	245	ABS	2	2	24VD	0	1	0.464491128922	None	None	None	None	1
1.7	2015_Aug_07_1514	s	s	17	4	SIC	246	RC	2	0	23VC	1	0	0.453397989273	-313.0	99.0	-311	93	1
1.7	2015_Aug_07_1514	s	s	17	4	SIC	247	ABS	1	0	24MC	0	1	3.45988297462	None	None	None	None	1
1.7	2015_Aug_07_1514	s	s	17	4	SIC	248	ABS	2	1	24VO	0	1	0.429780006409	None	None	None	None	1
1.7	2015_Aug_07_1514	s	s	17	4	SIC	249	RC	2	2	23VD	1	0	0.446657896042	164.0	342.0	169	341	1
1.7	2015_Aug_07_1514	s	s	17	4	SIC	250	ABS	2	0	24VC	0	1	0.725672006607	None	None	None	None	1
1.7	2015_Aug_07_1514	s	s	17	4	SIC	251	RC	1	2	23MD	1	0	0.538286924362	-123.0	95.0	-124	103	1
1.7	2015_Aug_07_1514	s	s	17	4	SIC	252	RC	2	1	23VO	1	0	0.634851932526	-209.0	100.0	-202	93	1
1.7	2015_Aug_07_1514	s	s	17	4	SIC	253	ABS	1	1	24MO	0	1	7.34420895576	None	None	None	None	1
1.7	2015_Aug_07_1514	s	s	17	4	SIC	254	ABS	0	1	24RO	0	1	4.14948105812	None	None	None	None	1
1.7	2015_Aug_07_1514	s	s	17	4	SIC	255	RC	0	1	23RO	1	0	8.78023481369	-439.0	-308.0	-439	-308	1
1.7	2015_Aug_07_1514	s	s	17	4	SIC	256	ABS	0	2	24RD	0	1	0.999944925308	None	None	None	None	1
1.7	2015_Aug_07_1514	s	s	17	4	SIC	257	ABS	1	0	24MC	0	1	3.02437114716	None	None	None	None	1
1.7	2015_Aug_07_1514	s	s	17	4	SIC	258	RC	0	1	23RO	1	0	1.59195899963	-131.0	-235.0	-123	-240	1
1.7	2015_Aug_07_1514	s	s	17	4	SIC	259	RC	2	1	23VO	1	0	0.387708187103	44.0	74.0	42	84	1
1.7	2015_Aug_07_1514	s	s	17	4	SIC	260	ABS	0	2	24RD	0	1	1.64710283279	None	None	None	None	1
1.7	2015_Aug_07_1514	s	s	17	4	SIC	261	RC	2	0	23VC	1	0	0.556264162064	1.0	39.0	-5	36	1
1.7	2015_Aug_07_1514	s	s	17	4	SIC	262	ABS	1	1	24MO	0	1	2.17691397667	None	None	None	None	1
1.7	2015_Aug_07_1514	s	s	17	4	SIC	263	RC	2	2	23VD	1	0	0.364277839661	-283.0	321.0	-285	321	1
1.7	2015_Aug_07_1514	s	s	17	4	SIC	264	RC	1	1	23MO	1	0	3.4250087738	-334.0	-144.0	-324	-143	1
1.7	2015_Aug_07_1514	s	s	17	4	SIC	265	ABS	1	2	24MD	0	1	13.4011621475	None	None	None	None	1
1.7	2015_Aug_07_1514	s	s	17	4	SIC	266	ABS	2	1	24VO	0	1	0.423067092896	None	None	None	None	1
1.7	2015_Aug_07_1514	s	s	17	4	SIC	267	ABS	2	2	24VD	0	1	0.371002912521	None	None	None	None	1
1.7	2015_Aug_07_1514	s	s	17	4	SIC	268	RC	1	0	23MC	1	0	2.57709980011	478.0	-77.0	474	-80	1
1.7	2015_Aug_07_1514	s	s	17	4	SIC	269	ABS	2	0	24VC	0	1	0.455076932907	None	None	None	None	1
1.7	2015_Aug_07_1514	s	s	17	4	SIC	270	RC	1	2	23MD	1	0	0.440929889679	-488.0	202.0	-496	196	1
1.7	2015_Aug_07_1514	s	s	17	4	SIC	271	RC	0	2	23RD	1	0	0.552590847015	126.0	336.0	121	335	1
1.7	2015_Aug_07_1514	s	s	17	4	SIC	272	ABS	0	1	24RO	0	1	3.71876692772	None	None	None	None	1
1.7	2015_Aug_07_1514	s	s	17	4	SIC	273	ABS	0	2	24RD	0	1	0.525331020355	None	None	None	None	1
1.7	2015_Aug_07_1514	s	s	17	4	SIC	274	RC	2	2	23VD	1	0	0.61136507988	-486.0	-112.0	-481	-114	1
1.7	2015_Aug_07_1514	s	s	17	4	SIC	275	RC	0	2	23RD	1	0	0.434790849686	-283.0	76.0	-288	70	1
1.7	2015_Aug_07_1514	s	s	17	4	SIC	276	RC	1	2	23MD	1	0	0.387732982635	-314.0	126.0	-311	125	1
1.7	2015_Aug_07_1514	s	s	17	4	SIC	277	ABS	2	2	24VD	0	1	0.481884002686	None	None	None	None	1
1.7	2015_Aug_07_1514	s	s	17	4	SIC	278	ABS	2	1	24VO	0	1	0.499849081039	None	None	None	None	1
1.7	2015_Aug_07_1514	s	s	17	4	SIC	279	ABS	1	1	24MO	0	1	2.11326003075	None	None	None	None	1
1.7	2015_Aug_07_1514	s	s	17	4	SIC	280	ABS	1	0	24MC	1	0	4.17789506912	None	None	329	-100	0
1.7	2015_Aug_07_1514	s	s	17	4	SIC	281	RC	2	0	23VC	1	0	0.517153978348	-205.0	-222.0	-202	-221	1
1.7	2015_Aug_07_1514	s	s	17	4	SIC	282	ABS	0	1	24RO	0	1	3.89538598061	None	None	None	None	1
1.7	2015_Aug_07_1514	s	s	17	4	SIC	283	ABS	2	0	24VC	0	1	0.441637992859	None	None	None	None	1
1.7	2015_Aug_07_1514	s	s	17	4	SIC	284	RC	0	1	23RO	0	1	4.51371598244	-344.0	378.0	None	None	0
1.7	2015_Aug_07_1514	s	s	17	4	SIC	285	RC	2	1	23VO	1	0	0.394727945328	-223.0	-330.0	-223	-337	1
1.7	2015_Aug_07_1514	s	s	17	4	SIC	286	RC	1	0	23MC	1	0	0.599523067474	-8.0	260.0	-15	263	1
1.7	2015_Aug_07_1514	s	s	17	4	SIC	287	RC	1	1	23MO	1	0	2.12990498543	-441.0	369.0	-440	362	1
1.7	2015_Aug_07_1514	s	s	17	4	SIC	288	ABS	1	2	24MD	0	1	0.526048183441	None	None	None	None	1
1.7	2015_Aug_07_1514	s	s	17	4	SIC	289	ABS	2	2	24VD	0	1	0.394361019135	None	None	None	None	1
1.7	2015_Aug_07_1514	s	s	17	4	SIC	290	RC	1	2	23MD	1	0	0.42307305336	-380.0	-47.0	-387	-44	1
1.7	2015_Aug_07_1514	s	s	17	4	SIC	291	RC	1	1	23MO	1	0	0.517251968384	442.0	244.0	434	239	1
1.7	2015_Aug_07_1514	s	s	17	4	SIC	292	RC	0	2	23RD	1	0	0.430044174194	518.0	-202.0	509	-197	1
1.7	2015_Aug_07_1514	s	s	17	4	SIC	293	ABS	1	0	24MC	0	1	4.0483379364	None	None	None	None	1
1.7	2015_Aug_07_1514	s	s	17	4	SIC	294	RC	1	0	23MC	1	0	0.988091945648	-234.0	45.0	-236	43	1
1.7	2015_Aug_07_1514	s	s	17	4	SIC	295	ABS	2	1	24VO	0	1	0.375994920731	None	None	None	None	1
1.7	2015_Aug_07_1514	s	s	17	4	SIC	296	RC	0	1	23RO	1	0	0.497414112091	-117.0	-10.0	-104	-4	1
1.7	2015_Aug_07_1514	s	s	17	4	SIC	297	ABS	1	1	24MO	0	1	13.6362409592	None	None	None	None	1
1.7	2015_Aug_07_1514	s	s	17	4	SIC	298	RC	2	1	23VO	0	1	3.45494198799	174.0	318.0	None	None	0
1.7	2015_Aug_07_1514	s	s	17	4	SIC	299	ABS	2	0	24VC	0	1	1.14793896675	None	None	None	None	1
1.7	2015_Aug_07_1514	s	s	17	4	SIC	300	ABS	0	2	24RD	0	1	0.783384084702	None	None	None	None	1
1.7	2015_Aug_07_1514	s	s	17	4	SIC	301	RC	2	2	23VD	1	0	3.88355898857	-77.0	-411.0	-75	-416	1
1.7	2015_Aug_07_1514	s	s	17	4	SIC	302	RC	2	0	23VC	1	0	3.62216114998	-108.0	-155.0	-110	-158	1
1.7	2015_Aug_07_1514	s	s	17	4	SIC	303	ABS	1	2	24MD	0	1	0.552546024323	None	None	None	None	1
1.7	2015_Aug_07_1514	s	s	17	4	SIC	304	ABS	0	1	24RO	0	1	5.10784482956	None	None	None	None	1
1.7	2015_Aug_07_1514	s	s	17	4	SIC	305	RC	2	1	23VO	1	0	0.406257152557	99.0	286.0	97	288	1
1.7	2015_Aug_07_1514	s	s	17	4	SIC	306	ABS	0	1	24RO	0	1	3.99652004242	None	None	None	None	1
1.7	2015_Aug_07_1514	s	s	17	4	SIC	307	RC	1	1	23MO	1	0	0.599613904953	-441.0	-31.0	-440	-28	1
1.7	2015_Aug_07_1514	s	s	17	4	SIC	308	ABS	2	1	24VO	0	1	0.750318050385	None	None	None	None	1
1.7	2015_Aug_07_1514	s	s	17	4	SIC	309	RC	0	1	23RO	1	0	3.40106797218	497.0	-396.0	502	-398	1
1.7	2015_Aug_07_1514	s	s	17	4	SIC	310	ABS	1	2	24MD	0	1	0.559507846832	None	None	None	None	1
1.7	2015_Aug_07_1514	s	s	17	4	SIC	311	ABS	0	2	24RD	0	1	1.19998884201	None	None	None	None	1
1.7	2015_Aug_07_1514	s	s	17	4	SIC	312	RC	2	0	23VC	1	0	0.477118968964	58.0	-382.0	70	-380	1
1.7	2015_Aug_07_1514	s	s	17	4	SIC	313	ABS	1	1	24MO	0	1	3.70366692543	None	None	None	None	1
1.7	2015_Aug_07_1514	s	s	17	4	SIC	314	ABS	2	0	24VC	0	1	0.500553846359	None	None	None	None	1
1.7	2015_Aug_07_1514	s	s	17	4	SIC	315	ABS	1	0	24MC	0	1	2.81945610046	None	None	None	None	1
1.7	2015_Aug_07_1514	s	s	17	4	SIC	316	RC	1	0	23MC	1	0	1.24464607239	50.0	-226.0	44	-227	1
1.7	2015_Aug_07_1514	s	s	17	4	SIC	317	ABS	2	2	24VD	0	1	0.438508033752	None	None	None	None	1
1.7	2015_Aug_07_1514	s	s	17	4	SIC	318	RC	1	2	23MD	1	0	3.47539496422	393.0	32.0	390	21	1
1.7	2015_Aug_07_1514	s	s	17	4	SIC	319	RC	0	2	23RD	1	0	0.723495006561	-227.0	207.0	-236	208	1
1.7	2015_Aug_07_1514	s	s	17	4	SIC	320	RC	2	2	23VD	1	0	2.69464111328	-221.0	-66.0	-212	-64	1
1.7	2015_Aug_07_1514	s	s	17	4	SIC	321	ABS	0	2	24RD	0	1	2.713326931	None	None	None	None	1
1.7	2015_Aug_07_1514	s	s	17	4	SIC	322	RC	2	0	23VC	1	0	0.446694135666	232.0	-323.0	248	-315	1
1.7	2015_Aug_07_1514	s	s	17	4	SIC	323	ABS	2	0	24VC	0	1	0.54052400589	None	None	None	None	1
1.7	2015_Aug_07_1514	s	s	17	4	SIC	324	ABS	2	2	24VD	0	1	0.429855823517	None	None	None	None	1
1.7	2015_Aug_07_1514	s	s	17	4	SIC	325	ABS	1	0	24MC	0	1	2.68293094635	None	None	None	None	1
1.7	2015_Aug_07_1514	s	s	17	4	SIC	326	ABS	1	1	24MO	0	1	2.76052904129	None	None	None	None	1
1.7	2015_Aug_07_1514	s	s	17	4	SIC	327	ABS	0	1	24RO	0	1	5.28434801102	None	None	None	None	1
1.7	2015_Aug_07_1514	s	s	17	4	SIC	328	RC	0	2	23RD	1	0	0.458431959152	173.0	301.0	172	296	1
1.7	2015_Aug_07_1514	s	s	17	4	SIC	329	RC	2	2	23VD	1	0	0.382849931717	154.0	260.0	159	257	1
1.7	2015_Aug_07_1514	s	s	17	4	SIC	330	RC	1	2	23MD	1	0	0.394731998444	225.0	411.0	225	412	1
1.7	2015_Aug_07_1514	s	s	17	4	SIC	331	RC	2	1	23VO	1	0	0.677750825882	464.0	-271.0	470	-273	1
1.7	2015_Aug_07_1514	s	s	17	4	SIC	332	ABS	2	1	24VO	0	1	0.399578094482	None	None	None	None	1
1.7	2015_Aug_07_1514	s	s	17	4	SIC	333	RC	1	0	23MC	1	0	0.740891933441	198.0	403.0	204	402	1
1.7	2015_Aug_07_1514	s	s	17	4	SIC	334	RC	0	1	23RO	1	0	1.99528002739	-313.0	-185.0	-304	-184	1
1.7	2015_Aug_07_1514	s	s	17	4	SIC	335	RC	1	1	23MO	1	0	1.44214916229	-64.0	-192.0	-69	-191	1
1.7	2015_Aug_07_1514	s	s	17	4	SIC	336	ABS	1	2	24MD	0	1	0.885801076889	None	None	None	None	1
1.7	2015_Aug_07_1514	s	s	17	4	SIC	337	ABS	1	2	24MD	0	1	0.571076154709	None	None	None	None	1
1.7	2015_Aug_07_1514	s	s	17	4	SIC	338	ABS	2	2	24VD	0	1	0.451987028122	None	None	None	None	1
1.7	2015_Aug_07_1514	s	s	17	4	SIC	339	ABS	0	1	24RO	0	1	5.04891204834	None	None	None	None	1
1.7	2015_Aug_07_1514	s	s	17	4	SIC	340	RC	2	0	23VC	1	0	0.618144035339	-488.0	-317.0	-484	-318	1
1.7	2015_Aug_07_1514	s	s	17	4	SIC	341	ABS	0	2	24RD	0	1	1.06795406342	None	None	None	None	1
1.7	2015_Aug_07_1514	s	s	17	4	SIC	342	ABS	2	1	24VO	0	1	0.665138959885	None	None	None	None	1
1.7	2015_Aug_07_1514	s	s	17	4	SIC	343	RC	1	1	23MO	1	0	0.818979024887	-411.0	-188.0	-420	-185	1
1.7	2015_Aug_07_1514	s	s	17	4	SIC	344	RC	1	0	23MC	1	0	1.48911809921	-157.0	-260.0	-162	-258	1
1.7	2015_Aug_07_1514	s	s	17	4	SIC	345	RC	1	2	23MD	1	0	0.670295000076	187.0	-405.0	192	-399	1
1.7	2015_Aug_07_1514	s	s	17	4	SIC	346	ABS	1	1	24MO	0	1	2.13627409935	None	None	None	None	1
1.7	2015_Aug_07_1514	s	s	17	4	SIC	347	ABS	2	0	24VC	0	1	0.525953054428	None	None	None	None	1
1.7	2015_Aug_07_1514	s	s	17	4	SIC	348	RC	2	2	23VD	1	0	0.430100917816	-63.0	178.0	-63	167	1
1.7	2015_Aug_07_1514	s	s	17	4	SIC	349	ABS	1	0	24MC	0	1	4.77820587158	None	None	None	None	1
1.7	2015_Aug_07_1514	s	s	17	4	SIC	350	RC	0	1	23RO	1	0	3.13751101494	49.0	-305.0	51	-313	1
1.7	2015_Aug_07_1514	s	s	17	4	SIC	351	RC	0	2	23RD	1	0	0.772740840912	-406.0	399.0	-400	400	1
1.7	2015_Aug_07_1514	s	s	17	4	SIC	352	RC	2	1	23VO	1	0	0.411319971085	-252.0	-323.0	-255	-331	1
1.7	2015_Aug_07_1514	s	s	17	4	SIC	353	ABS	0	1	24RO	0	1	4.08377194405	None	None	None	None	1
1.7	2015_Aug_07_1514	s	s	17	4	SIC	354	ABS	0	2	24RD	0	1	0.713604927063	None	None	None	None	1
1.7	2015_Aug_07_1514	s	s	17	4	SIC	355	ABS	2	1	24VO	0	1	0.442463159561	None	None	None	None	1
1.7	2015_Aug_07_1514	s	s	17	4	SIC	356	RC	2	0	23VC	0	1	0.395351886749	33.0	110.0	None	None	0
1.7	2015_Aug_07_1514	s	s	17	4	SIC	357	RC	1	1	23MO	1	0	0.935886144638	519.0	332.0	518	328	1
1.7	2015_Aug_07_1514	s	s	17	4	SIC	358	RC	1	0	23MC	1	0	2.17687392235	252.0	-313.0	238	-304	1
1.7	2015_Aug_07_1514	s	s	17	4	SIC	359	ABS	2	2	24VD	0	1	0.493684053421	None	None	None	None	1
1.7	2015_Aug_07_1514	s	s	17	4	SIC	360	RC	1	2	23MD	1	0	0.467602014542	-400.0	43.0	-400	53	1
1.7	2015_Aug_07_1514	s	s	17	4	SIC	361	RC	0	1	23RO	1	0	3.67860507965	440.0	-401.0	440	-398	1
1.7	2015_Aug_07_1514	s	s	17	4	SIC	362	RC	2	2	23VD	1	0	0.477066040039	501.0	268.0	510	267	1
1.7	2015_Aug_07_1514	s	s	17	4	SIC	363	ABS	2	0	24VC	0	1	0.893915176392	None	None	None	None	1
1.7	2015_Aug_07_1514	s	s	17	4	SIC	364	ABS	1	0	24MC	0	1	4.50768303871	None	None	None	None	1
1.7	2015_Aug_07_1514	s	s	17	4	SIC	365	RC	0	2	23RD	1	0	0.512539148331	481.0	-367.0	486	-362	1
1.7	2015_Aug_07_1514	s	s	17	4	SIC	366	RC	2	1	23VO	1	0	0.417878866196	346.0	11.0	346	3	1
1.7	2015_Aug_07_1514	s	s	17	4	SIC	367	ABS	1	2	24MD	0	1	0.991787910461	None	None	None	None	1
1.7	2015_Aug_07_1514	s	s	17	4	SIC	368	ABS	1	1	24MO	0	1	1.85447406769	None	None	None	None	1
1.7	2015_Aug_07_1514	s	s	17	4	SIC	369	RC	2	0	23VC	1	0	0.51220202446	395.0	-264.0	398	-257	1
1.7	2015_Aug_07_1514	s	s	17	4	SIC	370	RC	2	2	23VD	1	0	0.501857995987	-334.0	-336.0	-325	-331	1
1.7	2015_Aug_07_1514	s	s	17	4	SIC	371	RC	0	2	23RD	1	0	0.434932947159	266.0	-356.0	275	-348	1
1.7	2015_Aug_07_1514	s	s	17	4	SIC	372	RC	1	0	23MC	1	0	1.12929797173	-417.0	-18.0	-418	-29	1
1.7	2015_Aug_07_1514	s	s	17	4	SIC	373	RC	1	2	23MD	1	0	0.479720115662	387.0	46.0	386	46	1
1.7	2015_Aug_07_1514	s	s	17	4	SIC	374	ABS	0	1	24RO	0	1	3.54838609695	None	None	None	None	1
1.7	2015_Aug_07_1514	s	s	17	4	SIC	375	RC	0	1	23RO	1	0	2.26540589333	466.0	-47.0	474	-47	1
1.7	2015_Aug_07_1514	s	s	17	4	SIC	376	ABS	2	1	24VO	0	1	0.512389183044	None	None	None	None	1
1.7	2015_Aug_07_1514	s	s	17	4	SIC	377	ABS	2	2	24VD	0	1	1.01898980141	None	None	None	None	1
1.7	2015_Aug_07_1514	s	s	17	4	SIC	378	ABS	1	1	24MO	0	1	2.36525201797	None	None	None	None	1
1.7	2015_Aug_07_1514	s	s	17	4	SIC	379	ABS	2	0	24VC	0	1	0.711592912674	None	None	None	None	1
1.7	2015_Aug_07_1514	s	s	17	4	SIC	380	ABS	1	2	24MD	0	1	0.724360942841	None	None	None	None	1
1.7	2015_Aug_07_1514	s	s	17	4	SIC	381	RC	1	1	23MO	1	0	1.11757206917	3.0	318.0	5	319	1
1.7	2015_Aug_07_1514	s	s	17	4	SIC	382	ABS	0	2	24RD	0	1	0.605679035187	None	None	None	None	1
1.7	2015_Aug_07_1514	s	s	17	4	SIC	383	RC	2	1	23VO	1	0	0.434921979904	-321.0	-261.0	-315	-264	1
1.7	2015_Aug_07_1514	s	s	17	4	SIC	384	ABS	1	0	24MC	0	1	3.93620800972	None	None	None	None	1
1.7	2015_Aug_07_1514	s	s	17	4	SIC	385	ABS	0	1	24RO	0	1	5.09599590302	None	None	None	None	1
1.7	2015_Aug_07_1514	s	s	17	4	SIC	386	RC	2	1	23VO	1	0	0.43043088913	336.0	66.0	345	66	1
1.7	2015_Aug_07_1514	s	s	17	4	SIC	387	ABS	1	1	24MO	0	1	3.54972505569	None	None	None	None	1
1.7	2015_Aug_07_1514	s	s	17	4	SIC	388	ABS	0	2	24RD	0	1	0.59966301918	None	None	None	None	1
1.7	2015_Aug_07_1514	s	s	17	4	SIC	389	RC	2	2	23VD	1	0	0.411354064941	371.0	317.0	383	321	1
1.7	2015_Aug_07_1514	s	s	17	4	SIC	390	RC	1	2	23MD	1	0	0.39955496788	336.0	-199.0	345	-196	1
1.7	2015_Aug_07_1514	s	s	17	4	SIC	391	ABS	1	0	24MC	0	1	6.69725298882	None	None	None	None	1
1.7	2015_Aug_07_1514	s	s	17	4	SIC	392	ABS	2	0	24VC	0	1	0.576116085052	None	None	None	None	1
1.7	2015_Aug_07_1514	s	s	17	4	SIC	393	ABS	1	2	24MD	0	1	0.776257991791	None	None	None	None	1
1.7	2015_Aug_07_1514	s	s	17	4	SIC	394	RC	2	0	23VC	1	0	0.470144987106	274.0	235.0	281	230	1
1.7	2015_Aug_07_1514	s	s	17	4	SIC	395	ABS	2	1	24VO	0	1	0.547055959702	None	None	None	None	1
1.7	2015_Aug_07_1514	s	s	17	4	SIC	396	RC	0	1	23RO	1	0	1.92464804649	-20.0	-306.0	-11	-305	1
1.7	2015_Aug_07_1514	s	s	17	4	SIC	397	RC	1	0	23MC	1	0	1.43536806107	471.0	307.0	476	309	1
1.7	2015_Aug_07_1514	s	s	17	4	SIC	398	RC	0	2	23RD	1	0	0.446610927582	-443.0	50.0	-436	55	1
1.7	2015_Aug_07_1514	s	s	17	4	SIC	399	ABS	2	2	24VD	0	1	0.477127075195	None	None	None	None	1
1.7	2015_Aug_07_1514	s	s	17	4	SIC	400	RC	1	1	23MO	1	0	2.1721739769	335.0	-245.0	340	-247	1
1.7	2015_Aug_07_1514	s	s	17	4	SIC	401	ABS	0	1	24RO	0	1	6.167137146	None	None	None	None	1
1.7	2015_Aug_07_1514	s	s	17	4	SIC	402	RC	1	0	23MC	1	0	0.482456922531	466.0	244.0	471	246	1
1.7	2015_Aug_07_1514	s	s	17	4	SIC	403	ABS	1	2	24MD	0	1	1.18804597855	None	None	None	None	1
1.7	2015_Aug_07_1514	s	s	17	4	SIC	404	RC	1	2	23MD	0	0	-1	461.0	-177.0	None	None	-1
1.7	2015_Aug_07_1514	s	s	17	4	SIC	405	ABS	2	1	24VO	0	1	4.37512302399	None	None	None	None	1
1.7	2015_Aug_07_1514	s	s	17	4	SIC	406	RC	0	1	23RO	1	0	2.58084702492	457.0	7.0	454	3	1
1.7	2015_Aug_07_1514	s	s	17	4	SIC	407	RC	2	1	23VO	1	0	1.40627813339	-506.0	-401.0	-512	-410	1
1.7	2015_Aug_07_1514	s	s	17	4	SIC	408	ABS	2	2	24VD	0	1	13.365680933	None	None	None	None	1
1.7	2015_Aug_07_1514	s	s	17	4	SIC	409	ABS	1	0	24MC	0	1	3.18920493126	None	None	None	None	1
1.7	2015_Aug_07_1514	s	s	17	4	SIC	410	RC	2	2	23VD	1	0	0.466743946075	-163.0	87.0	-155	83	1
1.7	2015_Aug_07_1514	s	s	17	4	SIC	411	RC	0	2	23RD	1	0	0.705596923828	67.0	-19.0	75	-16	1
1.7	2015_Aug_07_1514	s	s	17	4	SIC	412	ABS	1	1	24MO	0	1	2.40056610107	None	None	None	None	1
1.7	2015_Aug_07_1514	s	s	17	4	SIC	413	ABS	2	0	24VC	0	1	0.512140989304	None	None	None	None	1
1.7	2015_Aug_07_1514	s	s	17	4	SIC	414	RC	2	0	23VC	1	0	0.523858070374	479.0	-225.0	474	-231	1
1.7	2015_Aug_07_1514	s	s	17	4	SIC	415	ABS	0	2	24RD	0	1	1.06471085548	None	None	None	None	1
1.7	2015_Aug_07_1514	s	s	17	4	SIC	416	RC	1	1	23MO	1	0	0.971003055573	533.0	218.0	543	219	1
1.7	2015_Aug_07_1514	s	s	17	4	SIC	417	ABS	2	0	24VC	0	1	4.45535206795	None	None	None	None	1
1.7	2015_Aug_07_1514	s	s	17	4	SIC	418	ABS	1	1	24MO	0	1	3.34218621254	None	None	None	None	1
1.7	2015_Aug_07_1514	s	s	17	4	SIC	419	ABS	1	2	24MD	0	1	3.73059105873	None	None	None	None	1
1.7	2015_Aug_07_1514	s	s	17	4	SIC	420	RC	2	2	23VD	1	0	1.51774692535	-474.0	-306.0	-476	-315	1
1.7	2015_Aug_07_1514	s	s	17	4	SIC	421	ABS	1	0	24MC	0	1	3.69041800499	None	None	None	None	1
1.7	2015_Aug_07_1514	s	s	17	4	SIC	422	RC	1	0	23MC	1	0	1.82013201714	-411.0	-207.0	-407	-203	1
1.7	2015_Aug_07_1514	s	s	17	4	SIC	423	ABS	2	2	24VD	0	1	0.423032999039	None	None	None	None	1
1.7	2015_Aug_07_1514	s	s	17	4	SIC	424	RC	2	0	23VC	1	0	0.41176199913	31.0	239.0	29	239	1
1.7	2015_Aug_07_1514	s	s	17	4	SIC	425	ABS	0	2	24RD	0	1	0.646839141846	None	None	None	None	1
1.7	2015_Aug_07_1514	s	s	17	4	SIC	426	RC	0	1	23RO	0	1	4.12571001053	-234.0	1.0	None	None	0
1.7	2015_Aug_07_1514	s	s	17	4	SIC	427	ABS	2	1	24VO	0	1	3.03621602058	None	None	None	None	1
1.7	2015_Aug_07_1514	s	s	17	4	SIC	428	RC	1	2	23MD	1	0	0.917324066162	461.0	31.0	458	29	1
1.7	2015_Aug_07_1514	s	s	17	4	SIC	429	RC	0	2	23RD	1	0	0.599498987198	-436.0	-223.0	-440	-228	1
1.7	2015_Aug_07_1514	s	s	17	4	SIC	430	ABS	0	1	24RO	0	1	5.75516700745	None	None	None	None	1
1.7	2015_Aug_07_1514	s	s	17	4	SIC	431	RC	1	1	23MO	1	0	0.867182016373	78.0	-377.0	90	-376	1
1.7	2015_Aug_07_1514	s	s	17	4	SIC	432	RC	2	1	23VO	1	0	0.441508054733	-192.0	354.0	-187	352	1
1.7	2015_Aug_07_1514	s	s	17	4	SIC	433	ABS	2	0	24VC	0	1	3.62485218048	None	None	None	None	1
1.7	2015_Aug_07_1514	s	s	17	4	SIC	434	ABS	1	2	24MD	0	1	1.16465902328	None	None	None	None	1
1.7	2015_Aug_07_1514	s	s	17	4	SIC	435	ABS	2	1	24VO	0	1	0.714890003204	None	None	None	None	1
1.7	2015_Aug_07_1514	s	s	17	4	SIC	436	RC	1	0	23MC	1	0	0.811569213867	-17.0	71.0	-19	64	1
1.7	2015_Aug_07_1514	s	s	17	4	SIC	437	ABS	0	1	24RO	0	1	4.43205094337	None	None	None	None	1
1.7	2015_Aug_07_1514	s	s	17	4	SIC	438	RC	0	1	23RO	1	0	2.24740290642	-97.0	395.0	-99	394	1
1.7	2015_Aug_07_1514	s	s	17	4	SIC	439	RC	2	0	23VC	1	0	0.717356920242	-314.0	37.0	-313	34	1
1.7	2015_Aug_07_1514	s	s	17	4	SIC	440	RC	2	2	23VD	1	0	1.31324195862	99.0	255.0	102	257	1
1.7	2015_Aug_07_1514	s	s	17	4	SIC	441	ABS	1	0	24MC	0	1	1.83271789551	None	None	None	None	1
1.7	2015_Aug_07_1514	s	s	17	4	SIC	442	RC	0	2	23RD	1	0	0.665787935257	-59.0	-165.0	-71	-159	1
1.7	2015_Aug_07_1514	s	s	17	4	SIC	443	RC	1	2	23MD	1	0	0.446667909622	260.0	284.0	255	280	1
1.7	2015_Aug_07_1514	s	s	17	4	SIC	444	ABS	2	2	24VD	0	1	0.576153039932	None	None	None	None	1
1.7	2015_Aug_07_1514	s	s	17	4	SIC	445	RC	1	1	23MO	1	0	1.52509999275	528.0	-208.0	518	-207	1
1.7	2015_Aug_07_1514	s	s	17	4	SIC	446	ABS	1	1	24MO	0	1	2.78898310661	None	None	None	None	1
1.7	2015_Aug_07_1514	s	s	17	4	SIC	447	ABS	0	2	24RD	0	1	2.17687892914	None	None	None	None	1
1.7	2015_Aug_07_1514	s	s	17	4	SIC	448	RC	2	1	23VO	1	0	0.46538901329	-273.0	-378.0	-277	-380	1
1.7	2015_Aug_07_1514	s	s	17	4	SIC	449	RC	1	1	23MO	1	0	0.87544798851	132.0	139.0	144	140	1
1.7	2015_Aug_07_1514	s	s	17	4	SIC	450	RC	2	1	23VO	1	0	0.441676855087	-379.0	-292.0	-381	-294	1
1.7	2015_Aug_07_1514	s	s	17	4	SIC	451	ABS	0	2	24RD	0	1	1.86839699745	None	None	None	None	1
1.7	2015_Aug_07_1514	s	s	17	4	SIC	452	RC	2	2	23VD	1	0	0.488073825836	510.0	194.0	511	182	1
1.7	2015_Aug_07_1514	s	s	17	4	SIC	453	RC	2	0	23VC	1	0	0.395982027054	265.0	207.0	260	210	1
1.7	2015_Aug_07_1514	s	s	17	4	SIC	454	ABS	0	1	24RO	0	1	4.4199719429	None	None	None	None	1
1.7	2015_Aug_07_1514	s	s	17	4	SIC	455	ABS	1	2	24MD	0	1	0.525918960571	None	None	None	None	1
1.7	2015_Aug_07_1514	s	s	17	4	SIC	456	RC	0	1	23RO	1	0	2.20046591759	-379.0	-282.0	-372	-288	1
1.7	2015_Aug_07_1514	s	s	17	4	SIC	457	RC	0	2	23RD	1	0	0.500660896301	-491.0	356.0	-496	355	1
1.7	2015_Aug_07_1514	s	s	17	4	SIC	458	ABS	2	0	24VC	1	0	0.458361148834	None	None	-133	8	0
1.7	2015_Aug_07_1514	s	s	17	4	SIC	459	ABS	1	0	24MC	1	0	2.18896102905	None	None	-3	-6	0
1.7	2015_Aug_07_1514	s	s	17	4	SIC	460	RC	1	2	23MD	1	0	0.776139974594	525.0	-211.0	531	-207	1
1.7	2015_Aug_07_1514	s	s	17	4	SIC	461	ABS	1	1	24MO	0	1	4.10729217529	None	None	None	None	1
1.7	2015_Aug_07_1514	s	s	17	4	SIC	462	ABS	2	1	24VO	0	1	0.893904924393	None	None	None	None	1
1.7	2015_Aug_07_1514	s	s	17	4	SIC	463	ABS	2	2	24VD	0	1	2.19560599327	None	None	None	None	1
1.7	2015_Aug_07_1514	s	s	17	4	SIC	464	RC	1	0	23MC	1	0	0.988086938858	251.0	-28.0	247	-24	1
1.7	2015_Aug_07_1514	s	s	17	4	SIC	465	RC	2	0	23VC	1	0	0.505481958389	230.0	51.0	236	48	1
1.7	2015_Aug_07_1514	s	s	17	4	SIC	466	RC	0	2	23RD	1	0	0.635110139847	-186.0	185.0	-188	189	1
1.7	2015_Aug_07_1514	s	s	17	4	SIC	467	ABS	2	2	24VD	0	1	0.58454990387	None	None	None	None	1
1.7	2015_Aug_07_1514	s	s	17	4	SIC	468	RC	2	1	23VO	1	0	0.434863090515	-263.0	80.0	-255	83	1
1.7	2015_Aug_07_1514	s	s	17	4	SIC	469	ABS	1	1	24MO	0	1	4.6084651947	None	None	None	None	1
1.7	2015_Aug_07_1514	s	s	17	4	SIC	470	ABS	1	0	24MC	0	1	7.66797399521	None	None	None	None	1
1.7	2015_Aug_07_1514	s	s	17	4	SIC	471	RC	1	0	23MC	1	0	0.576138973236	355.0	-180.0	349	-178	1
1.7	2015_Aug_07_1514	s	s	17	4	SIC	472	ABS	2	1	24VO	0	1	0.470242023468	None	None	None	None	1
1.7	2015_Aug_07_1514	s	s	17	4	SIC	473	RC	2	2	23VD	1	0	0.432339906693	-465.0	222.0	-478	226	1
1.7	2015_Aug_07_1514	s	s	17	4	SIC	474	ABS	1	2	24MD	0	1	0.634969949722	None	None	None	None	1
1.7	2015_Aug_07_1514	s	s	17	4	SIC	475	RC	1	2	23MD	1	0	0.646764993668	515.0	160.0	501	165	1
1.7	2015_Aug_07_1514	s	s	17	4	SIC	476	ABS	0	1	24RO	0	1	3.70228791237	None	None	None	None	1
1.7	2015_Aug_07_1514	s	s	17	4	SIC	477	ABS	2	0	24VC	0	1	4.42510104179	None	None	None	None	1
1.7	2015_Aug_07_1514	s	s	17	4	SIC	478	ABS	0	2	24RD	0	1	1.07028198242	None	None	None	None	1
1.7	2015_Aug_07_1514	s	s	17	4	SIC	479	RC	1	1	23MO	1	0	1.83079695702	205.0	-393.0	202	-390	1
1.7	2015_Aug_07_1514	s	s	17	4	SIC	480	RC	0	1	23RO	1	0	1.51776504517	486.0	391.0	494	386	1
1.7	2015_Aug_07_1514	s	s	17	4	SIC	481	RC	0	1	23RO	0	1	3.83145093918	-403.0	108.0	None	None	0
1.7	2015_Aug_07_1514	s	s	17	4	SIC	482	ABS	2	1	24VO	0	1	0.552602052689	None	None	None	None	1
1.7	2015_Aug_07_1514	s	s	17	4	SIC	483	ABS	2	0	24VC	0	1	0.417858123779	None	None	None	None	1
1.7	2015_Aug_07_1514	s	s	17	4	SIC	484	ABS	0	2	24RD	0	1	1.6305129528	None	None	None	None	1
1.7	2015_Aug_07_1514	s	s	17	4	SIC	485	ABS	0	1	24RO	0	1	4.77366900444	None	None	None	None	1
1.7	2015_Aug_07_1514	s	s	17	4	SIC	486	RC	1	0	23MC	1	0	1.25912094116	-237.0	-246.0	-235	-244	1
1.7	2015_Aug_07_1514	s	s	17	4	SIC	487	ABS	2	2	24VD	0	1	0.458389043808	None	None	None	None	1
1.7	2015_Aug_07_1514	s	s	17	4	SIC	488	ABS	1	1	24MO	0	1	2.54857420921	None	None	None	None	1
1.7	2015_Aug_07_1514	s	s	17	4	SIC	489	RC	1	1	23MO	1	0	0.571285009384	-360.0	-71.0	-362	-71	1
1.7	2015_Aug_07_1514	s	s	17	4	SIC	490	RC	2	1	23VO	1	0	0.465219020844	-480.0	-341.0	-482	-350	1
1.7	2015_Aug_07_1514	s	s	17	4	SIC	491	RC	2	2	23VD	1	0	0.404824018478	-74.0	158.0	-71	150	1
1.7	2015_Aug_07_1514	s	s	17	4	SIC	492	RC	1	2	23MD	1	0	0.394434213638	-81.0	285.0	-81	294	1
1.7	2015_Aug_07_1514	s	s	17	4	SIC	493	ABS	1	2	24MD	0	1	0.863329172134	None	None	None	None	1
1.7	2015_Aug_07_1514	s	s	17	4	SIC	494	RC	0	2	23RD	1	0	0.606462955475	-533.0	-192.0	-533	-193	1
1.7	2015_Aug_07_1514	s	s	17	4	SIC	495	ABS	1	0	24MC	0	1	2.48970389366	None	None	None	None	1
1.7	2015_Aug_07_1514	s	s	17	4	SIC	496	RC	2	0	23VC	1	0	0.68915104866	238.0	-109.0	241	-111	1
1.7	2015_Aug_07_1514	s	s	17	4	SIC	497	ABS	2	2	24VD	0	1	0.47019982338	None	None	None	None	1
1.7	2015_Aug_07_1514	s	s	17	4	SIC	498	ABS	0	2	24RD	0	1	0.842032909393	None	None	None	None	1
1.7	2015_Aug_07_1514	s	s	17	4	SIC	499	RC	2	0	23VC	1	0	0.493577003479	423.0	-185.0	422	-176	1
1.7	2015_Aug_07_1514	s	s	17	4	SIC	500	RC	1	0	23MC	1	0	0.493709087372	-368.0	-367.0	-365	-359	1
1.7	2015_Aug_07_1514	s	s	17	4	SIC	501	RC	2	2	23VD	1	0	0.434855937958	345.0	-245.0	344	-244	1
1.7	2015_Aug_07_1514	s	s	17	4	SIC	502	RC	1	1	23MO	1	0	0.453675985336	-127.0	-9.0	-132	-7	1
1.7	2015_Aug_07_1514	s	s	17	4	SIC	503	ABS	2	0	24VC	0	1	0.488293886185	None	None	None	None	1
1.7	2015_Aug_07_1514	s	s	17	4	SIC	504	RC	0	2	23RD	1	0	0.500308036804	-498.0	-275.0	-496	-277	1
1.7	2015_Aug_07_1514	s	s	17	4	SIC	505	ABS	1	0	24MC	0	1	1.54129290581	None	None	None	None	1
1.7	2015_Aug_07_1514	s	s	17	4	SIC	506	ABS	2	1	24VO	0	1	0.406354904175	None	None	None	None	1
1.7	2015_Aug_07_1514	s	s	17	4	SIC	507	ABS	0	1	24RO	0	1	3.36171793938	None	None	None	None	1
1.7	2015_Aug_07_1514	s	s	17	4	SIC	508	ABS	1	1	24MO	0	1	1.55305099487	None	None	None	None	1
1.7	2015_Aug_07_1514	s	s	17	4	SIC	509	RC	1	2	23MD	1	0	0.423127174377	-269.0	302.0	-270	307	1
1.7	2015_Aug_07_1514	s	s	17	4	SIC	510	ABS	1	2	24MD	0	1	0.823235988617	None	None	None	None	1
1.7	2015_Aug_07_1514	s	s	17	4	SIC	511	RC	2	1	23VO	1	0	0.477777957916	246.0	183.0	254	186	1
1.7	2015_Aug_07_1514	s	s	17	4	SIC	512	RC	0	1	23RO	1	0	1.2116830349	-487.0	292.0	-490	286	1
1.7	2015_Aug_07_1514	s	s	17	4	SIC	513	ABS	1	1	24MO	0	1	3.19601416588	None	None	None	None	1
1.7	2015_Aug_07_1514	s	s	17	4	SIC	514	RC	2	0	23VC	1	0	0.500108957291	-324.0	-186.0	-324	-182	1
1.7	2015_Aug_07_1514	s	s	17	4	SIC	515	ABS	1	2	24MD	0	1	11.6562871933	None	None	None	None	1
1.7	2015_Aug_07_1514	s	s	17	4	SIC	516	RC	1	0	23MC	0	1	2.44255018234	-100.0	-100.0	None	None	0
1.7	2015_Aug_07_1514	s	s	17	4	SIC	517	RC	2	2	23VD	1	0	0.547395944595	23.0	272.0	17	267	1
1.7	2015_Aug_07_1514	s	s	17	4	SIC	518	ABS	2	1	24VO	0	1	0.670284986496	None	None	None	None	1
1.7	2015_Aug_07_1514	s	s	17	4	SIC	519	RC	1	1	23MO	1	0	3.32539796829	89.0	-407.0	89	-409	1
1.7	2015_Aug_07_1514	s	s	17	4	SIC	520	ABS	1	0	24MC	0	1	2.80660390854	None	None	None	None	1
1.7	2015_Aug_07_1514	s	s	17	4	SIC	521	RC	2	1	23VO	1	0	0.597098112106	276.0	57.0	276	63	1
1.7	2015_Aug_07_1514	s	s	17	4	SIC	522	RC	0	1	23RO	0	1	3.14908313751	-96.0	347.0	None	None	0
1.7	2015_Aug_07_1514	s	s	17	4	SIC	523	ABS	2	2	24VD	0	1	0.417963981628	None	None	None	None	1
1.7	2015_Aug_07_1514	s	s	17	4	SIC	524	ABS	2	0	24VC	0	1	0.429888963699	None	None	None	None	1
1.7	2015_Aug_07_1514	s	s	17	4	SIC	525	ABS	0	1	24RO	0	1	3.57121300697	None	None	None	None	1
1.7	2015_Aug_07_1514	s	s	17	4	SIC	526	RC	1	2	23MD	1	0	0.45365691185	-300.0	137.0	-298	135	1
1.7	2015_Aug_07_1514	s	s	17	4	SIC	527	ABS	0	2	24RD	0	1	0.714740991592	None	None	None	None	1
1.7	2015_Aug_07_1514	s	s	17	4	SIC	528	RC	0	2	23RD	1	0	1.19489789009	-39.0	-214.0	-36	-216	1
1.7	2015_Aug_07_1514	s	s	17	4	SIC	529	ABS	2	1	24VO	0	1	0.47850394249	None	None	None	None	1
1.7	2015_Aug_07_1514	s	s	17	4	SIC	530	RC	2	1	23VO	1	0	0.682384967804	-440.0	-325.0	-442	-326	1
1.7	2015_Aug_07_1514	s	s	17	4	SIC	531	ABS	0	1	24RO	0	1	2.97221398354	None	None	None	None	1
1.7	2015_Aug_07_1514	s	s	17	4	SIC	532	RC	2	0	23VC	1	0	0.493766069412	498.0	244.0	506	240	1
1.7	2015_Aug_07_1514	s	s	17	4	SIC	533	RC	0	1	23RO	0	1	2.74189996719	456.0	-99.0	None	None	0
1.7	2015_Aug_07_1514	s	s	17	4	SIC	534	ABS	2	2	24VD	0	1	0.467581033707	None	None	None	None	1
1.7	2015_Aug_07_1514	s	s	17	4	SIC	535	ABS	0	2	24RD	0	1	0.465142965317	None	None	None	None	1
1.7	2015_Aug_07_1514	s	s	17	4	SIC	536	ABS	1	2	24MD	0	1	0.770612955093	None	None	None	None	1
1.7	2015_Aug_07_1514	s	s	17	4	SIC	537	RC	1	1	23MO	1	0	0.693896055222	-292.0	70.0	-286	63	1
1.7	2015_Aug_07_1514	s	s	17	4	SIC	538	RC	1	0	23MC	1	0	3.31862688065	320.0	-248.0	329	-251	1
1.7	2015_Aug_07_1514	s	s	17	4	SIC	539	ABS	1	0	24MC	0	1	1.20666503906	None	None	None	None	1
1.7	2015_Aug_07_1514	s	s	17	4	SIC	540	RC	0	2	23RD	1	0	0.432137012482	269.0	172.0	267	171	1
1.7	2015_Aug_07_1514	s	s	17	4	SIC	541	ABS	1	1	24MO	0	1	2.0307431221	None	None	None	None	1
1.7	2015_Aug_07_1514	s	s	17	4	SIC	542	RC	2	2	23VD	1	0	0.446651935577	436.0	326.0	441	323	1
1.7	2015_Aug_07_1514	s	s	17	4	SIC	543	RC	1	2	23MD	1	0	0.485310077667	14.0	-294.0	9	-294	1
1.7	2015_Aug_07_1514	s	s	17	4	SIC	544	ABS	2	0	24VC	0	1	0.481823921204	None	None	None	None	1
1.7	2015_Aug_07_1514	s	s	17	4	SIC	545	RC	1	0	23MC	0	1	1.69433283806	-455.0	-72.0	None	None	0
1.7	2015_Aug_07_1514	s	s	17	4	SIC	546	RC	2	2	23VD	1	0	0.41809296608	-296.0	-320.0	-301	-329	1
1.7	2015_Aug_07_1514	s	s	17	4	SIC	547	RC	2	1	23VO	1	0	0.394450902939	284.0	-144.0	283	-150	1
1.7	2015_Aug_07_1514	s	s	17	4	SIC	548	ABS	0	2	24RD	0	1	0.752718925476	None	None	None	None	1
1.7	2015_Aug_07_1514	s	s	17	4	SIC	549	RC	2	0	23VC	1	0	0.418231010437	-522.0	-238.0	-523	-236	1
1.7	2015_Aug_07_1514	s	s	17	4	SIC	550	ABS	1	0	24MC	1	0	2.06477308273	None	None	-530	362	0
1.7	2015_Aug_07_1514	s	s	17	4	SIC	551	ABS	2	2	24VD	0	1	2.43075108528	None	None	None	None	1
1.7	2015_Aug_07_1514	s	s	17	4	SIC	552	ABS	2	1	24VO	0	1	0.470175027847	None	None	None	None	1
1.7	2015_Aug_07_1514	s	s	17	4	SIC	553	ABS	1	1	24MO	0	1	3.87728595734	None	None	None	None	1
1.7	2015_Aug_07_1514	s	s	17	4	SIC	554	ABS	2	0	24VC	0	1	0.42057299614	None	None	None	None	1
1.7	2015_Aug_07_1514	s	s	17	4	SIC	555	RC	0	1	23RO	0	1	2.02390909195	-216.0	235.0	None	None	0
1.7	2015_Aug_07_1514	s	s	17	4	SIC	556	RC	0	2	23RD	1	0	0.512336015701	255.0	406.0	243	407	1
1.7	2015_Aug_07_1514	s	s	17	4	SIC	557	ABS	1	2	24MD	0	1	0.666764974594	None	None	None	None	1
1.7	2015_Aug_07_1514	s	s	17	4	SIC	558	ABS	0	1	24RO	0	1	3.64559793472	None	None	None	None	1
1.7	2015_Aug_07_1514	s	s	17	4	SIC	559	RC	1	2	23MD	1	0	0.477463006973	427.0	-132.0	420	-131	1
1.7	2015_Aug_07_1514	s	s	17	4	SIC	560	RC	1	1	23MO	1	0	1.08768010139	511.0	-264.0	516	-269	1
1.7	2015_Aug_07_1514	s	s	17	4	SIC	561	ABS	0	1	24RO	0	1	5.76694202423	None	None	None	None	1
1.7	2015_Aug_07_1514	s	s	17	4	SIC	562	ABS	2	2	24VD	0	1	0.500537872314	None	None	None	None	1
1.7	2015_Aug_07_1514	s	s	17	4	SIC	563	RC	2	2	23VD	1	0	2.49464201927	-225.0	-94.0	-224	-101	1
1.7	2015_Aug_07_1514	s	s	17	4	SIC	564	ABS	1	0	24MC	0	1	4.03667521477	None	None	None	None	1
1.7	2015_Aug_07_1514	s	s	17	4	SIC	565	ABS	2	0	24VC	0	1	0.841779947281	None	None	None	None	1
1.7	2015_Aug_07_1514	s	s	17	4	SIC	566	RC	1	2	23MD	1	0	0.582532167435	-180.0	170.0	-178	156	1
1.7	2015_Aug_07_1514	s	s	17	4	SIC	567	RC	1	1	23MO	1	0	1.5608549118	157.0	-284.0	151	-283	1
1.7	2015_Aug_07_1514	s	s	17	4	SIC	568	ABS	2	1	24VO	0	1	0.415103912354	None	None	None	None	1
1.7	2015_Aug_07_1514	s	s	17	4	SIC	569	RC	2	0	23VC	1	0	0.641741991043	135.0	-281.0	143	-273	1
1.7	2015_Aug_07_1514	s	s	17	4	SIC	570	RC	2	1	23VO	1	0	0.43479180336	-208.0	14.0	-204	17	1
1.7	2015_Aug_07_1514	s	s	17	4	SIC	571	ABS	1	2	24MD	0	1	0.572877168655	None	None	None	None	1
1.7	2015_Aug_07_1514	s	s	17	4	SIC	572	RC	1	0	23MC	1	0	0.817625045776	-168.0	-65.0	-164	-60	1
1.7	2015_Aug_07_1514	s	s	17	4	SIC	573	ABS	0	2	24RD	0	1	0.620619058609	None	None	None	None	1
1.7	2015_Aug_07_1514	s	s	17	4	SIC	574	ABS	1	1	24MO	0	1	2.7275800705	None	None	None	None	1
1.7	2015_Aug_07_1514	s	s	17	4	SIC	575	RC	0	1	23RO	1	0	1.25318217278	-202.0	345.0	-201	342	1
1.7	2015_Aug_07_1514	s	s	17	4	SIC	576	RC	0	2	23RD	1	0	4.05681705475	-239.0	381.0	-238	375	1
1.7	2015_Aug_07_1514	s	s	17	4	SIC	577	RC	1	1	23MO	1	0	8.9644639492	225.0	-171.0	225	-169	1
1.7	2015_Aug_07_1514	s	s	17	4	SIC	578	ABS	1	0	24MC	0	1	2.91345500946	None	None	None	None	1
1.7	2015_Aug_07_1514	s	s	17	4	SIC	579	RC	1	0	23MC	1	0	0.917438983917	39.0	329.0	41	333	1
1.7	2015_Aug_07_1514	s	s	17	4	SIC	580	ABS	0	2	24RD	0	1	0.841767072678	None	None	None	None	1
1.7	2015_Aug_07_1514	s	s	17	4	SIC	581	ABS	2	0	24VC	0	1	0.558969974518	None	None	None	None	1
1.7	2015_Aug_07_1514	s	s	17	4	SIC	582	RC	2	1	23VO	1	0	0.39400100708	410.0	360.0	401	358	1
1.7	2015_Aug_07_1514	s	s	17	4	SIC	583	RC	0	2	23RD	1	0	0.458415031433	-174.0	-21.0	-186	-19	1
1.7	2015_Aug_07_1514	s	s	17	4	SIC	584	RC	2	0	23VC	1	0	0.382318973541	-129.0	76.0	-130	86	1
1.7	2015_Aug_07_1514	s	s	17	4	SIC	585	ABS	0	1	24RO	0	1	2.28285312653	None	None	None	None	1
1.7	2015_Aug_07_1514	s	s	17	4	SIC	586	ABS	1	1	24MO	0	1	1.59516000748	None	None	None	None	1
1.7	2015_Aug_07_1514	s	s	17	4	SIC	587	ABS	2	1	24VO	0	1	0.643593072891	None	None	None	None	1
1.7	2015_Aug_07_1514	s	s	17	4	SIC	588	ABS	1	2	24MD	0	1	5.05496311188	None	None	None	None	1
1.7	2015_Aug_07_1514	s	s	17	4	SIC	589	RC	1	2	23MD	1	0	3.67184615135	-378.0	83.0	-373	93	1
1.7	2015_Aug_07_1514	s	s	17	4	SIC	590	ABS	2	2	24VD	0	1	0.399550914764	None	None	None	None	1
1.7	2015_Aug_07_1514	s	s	17	4	SIC	591	RC	0	1	23RO	1	0	1.68247818947	-6.0	23.0	-15	19	1
1.7	2015_Aug_07_1514	s	s	17	4	SIC	592	RC	2	2	23VD	1	0	0.444154977798	453.0	-190.0	453	-196	1
