Version	Date	Stimuli	Method	Subject	Session	Condition	Trial	Target	Channel1	Channel2	Distractors	LMouseButton	RMouseButton	RT	TargetX	TargetY	ResponseX	ResponseY	Correct
1.7	2015_Aug_04_1502	s	s	17	1	Capacity	1	RC	1	0	23MC	0	1	1.61194610596	-235.0	385.0	None	None	0
1.7	2015_Aug_04_1502	s	s	17	1	Capacity	2	ABS	2	0	24VC	1	0	0.123482942581	None	None	-88	1	0
1.7	2015_Aug_04_1502	s	s	17	1	Capacity	3	ABS	1	0	24MC	0	1	2.96542215347	None	None	None	None	1
1.7	2015_Aug_04_1502	s	s	17	1	Capacity	4	RC	2	0	23VC	1	0	1.29793596268	-15.0	304.0	-16	309	1
1.7	2015_Aug_04_1502	s	s	17	1	Capacity	5	ABS	1	0	24MC	0	1	0.941033840179	None	None	None	None	1
1.7	2015_Aug_04_1502	s	s	17	1	Capacity	6	RC	1	0	23MC	1	0	3.2753469944	-364.0	28.0	-364	25	1
1.7	2015_Aug_04_1502	s	s	17	1	Capacity	7	ABS	2	0	24VC	0	1	1.07914209366	None	None	None	None	1
1.7	2015_Aug_04_1502	s	s	17	1	Capacity	8	RC	2	0	23VC	1	0	1.22882199287	16.0	-245.0	19	-243	1
1.7	2015_Aug_04_1502	s	s	17	1	Capacity	9	ABS	1	0	24MC	0	1	6.94384694099	None	None	None	None	1
1.7	2015_Aug_04_1502	s	s	17	1	Capacity	10	RC	1	0	23MC	0	1	4.60536909103	417.0	127.0	None	None	0
1.7	2015_Aug_04_1502	s	s	17	1	Capacity	11	ABS	2	0	24VC	0	1	1.63540506363	None	None	None	None	1
1.7	2015_Aug_04_1502	s	s	17	1	Capacity	12	RC	2	0	23VC	1	0	0.841905117035	126.0	-65.0	117	-58	1
1.7	2015_Aug_04_1502	s	s	17	1	Capacity	13	RC	2	0	23VC	1	0	1.08221578598	453.0	215.0	462	218	1
1.7	2015_Aug_04_1502	s	s	17	1	Capacity	14	RC	1	0	23MC	1	0	0.926934957504	-141.0	162.0	-139	162	1
1.7	2015_Aug_04_1502	s	s	17	1	Capacity	15	ABS	1	0	24MC	0	1	4.25562405586	None	None	None	None	1
1.7	2015_Aug_04_1502	s	s	17	1	Capacity	16	ABS	2	0	24VC	0	1	2.22399902344	None	None	None	None	1
1.7	2015_Aug_04_1502	s	s	17	1	Capacity	17	RC	1	0	23MC	0	1	2.36529588699	238.0	-118.0	None	None	0
1.7	2015_Aug_04_1502	s	s	17	1	Capacity	18	RC	2	0	23VC	1	0	0.924239873886	270.0	-119.0	274	-117	1
1.7	2015_Aug_04_1502	s	s	17	1	Capacity	19	ABS	1	0	24MC	0	1	2.61610913277	None	None	None	None	1
1.7	2015_Aug_04_1502	s	s	17	1	Capacity	20	ABS	2	0	24VC	0	1	1.0705499649	None	None	None	None	1
1.7	2015_Aug_04_1502	s	s	17	1	Capacity	21	RC	2	0	23VC	1	0	0.841997146606	228.0	-219.0	226	-213	1
1.7	2015_Aug_04_1502	s	s	17	1	Capacity	22	ABS	1	0	24MC	0	1	3.62458014488	None	None	None	None	1
1.7	2015_Aug_04_1502	s	s	17	1	Capacity	23	RC	1	0	23MC	1	0	4.4334230423	122.0	-88.0	122	-90	1
1.7	2015_Aug_04_1502	s	s	17	1	Capacity	24	ABS	2	0	24VC	0	1	1.98391795158	None	None	None	None	1
1.7	2015_Aug_04_1502	s	s	17	1	Capacity	25	ABS	1	0	24MC	0	1	8.83241415024	None	None	None	None	1
1.7	2015_Aug_04_1502	s	s	17	1	Capacity	26	RC	2	0	23VC	1	0	0.811524868011	320.0	290.0	326	292	1
1.7	2015_Aug_04_1502	s	s	17	1	Capacity	27	RC	1	0	23MC	1	0	5.45626091957	253.0	345.0	254	343	1
1.7	2015_Aug_04_1502	s	s	17	1	Capacity	28	ABS	2	0	24VC	0	1	1.24705910683	None	None	None	None	1
1.7	2015_Aug_04_1502	s	s	17	1	Capacity	29	ABS	2	0	24VC	0	1	1.71466898918	None	None	None	None	1
1.7	2015_Aug_04_1502	s	s	17	1	Capacity	30	RC	2	0	23VC	1	0	0.700524806976	-436.0	202.0	-430	197	1
1.7	2015_Aug_04_1502	s	s	17	1	Capacity	31	ABS	1	0	24MC	0	1	10.1342611313	None	None	None	None	1
1.7	2015_Aug_04_1502	s	s	17	1	Capacity	32	RC	1	0	23MC	1	0	1.31251001358	-484.0	113.0	-484	103	1
1.7	2015_Aug_04_1502	s	s	17	1	Capacity	33	RC	1	0	23MC	1	0	1.82380008698	-168.0	155.0	-176	150	1
1.7	2015_Aug_04_1502	s	s	17	1	Capacity	34	ABS	1	0	24MC	0	1	4.02484893799	None	None	None	None	1
1.7	2015_Aug_04_1502	s	s	17	1	Capacity	35	RC	2	0	23VC	1	0	0.74699306488	25.0	57.0	28	50	1
1.7	2015_Aug_04_1502	s	s	17	1	Capacity	36	ABS	2	0	24VC	0	1	1.2823638916	None	None	None	None	1
1.7	2015_Aug_04_1502	s	s	17	1	Capacity	37	RC	1	0	23MC	1	0	2.83600401878	468.0	-283.0	472	-280	1
1.7	2015_Aug_04_1502	s	s	17	1	Capacity	38	ABS	1	0	24MC	0	1	4.42508101463	None	None	None	None	1
1.7	2015_Aug_04_1502	s	s	17	1	Capacity	39	RC	2	0	23VC	1	0	0.764461994171	126.0	-154.0	131	-165	1
1.7	2015_Aug_04_1502	s	s	17	1	Capacity	40	ABS	2	0	24VC	0	1	1.05873394012	None	None	None	None	1
1.7	2015_Aug_04_1502	s	s	17	1	Capacity	41	RC	1	0	23MC	1	0	4.02491211891	-429.0	285.0	-434	282	1
1.7	2015_Aug_04_1502	s	s	17	1	Capacity	42	ABS	1	0	24MC	0	1	3.00073814392	None	None	None	None	1
1.7	2015_Aug_04_1502	s	s	17	1	Capacity	43	ABS	2	0	24VC	0	1	0.658492803574	None	None	None	None	1
1.7	2015_Aug_04_1502	s	s	17	1	Capacity	44	RC	2	0	23VC	1	0	1.33662796021	-16.0	193.0	-13	201	1
1.7	2015_Aug_04_1502	s	s	17	1	Capacity	45	RC	1	0	23MC	1	0	1.19499802589	-139.0	121.0	-132	126	1
1.7	2015_Aug_04_1502	s	s	17	1	Capacity	46	RC	2	0	23VC	1	0	0.650454998016	-328.0	-176.0	-338	-176	1
1.7	2015_Aug_04_1502	s	s	17	1	Capacity	47	ABS	1	0	24MC	0	1	3.40105509758	None	None	None	None	1
1.7	2015_Aug_04_1502	s	s	17	1	Capacity	48	ABS	2	0	24VC	0	1	1.24186706543	None	None	None	None	1
1.7	2015_Aug_04_1502	s	s	17	1	Capacity	49	RC	2	0	23VC	1	0	1.01161599159	-408.0	176.0	-403	181	1
1.7	2015_Aug_04_1502	s	s	17	1	Capacity	50	ABS	1	0	24MC	0	1	3.43164587021	None	None	None	None	1
1.7	2015_Aug_04_1502	s	s	17	1	Capacity	51	ABS	2	0	24VC	0	1	1.14820718765	None	None	None	None	1
1.7	2015_Aug_04_1502	s	s	17	1	Capacity	52	RC	1	0	23MC	1	0	2.12983608246	435.0	240.0	440	237	1
1.7	2015_Aug_04_1502	s	s	17	1	Capacity	53	ABS	2	0	24VC	0	1	1.01162099838	None	None	None	None	1
1.7	2015_Aug_04_1502	s	s	17	1	Capacity	54	ABS	1	0	24MC	0	1	6.80932283401	None	None	None	None	1
1.7	2015_Aug_04_1502	s	s	17	1	Capacity	55	RC	1	0	23MC	1	0	1.53569507599	348.0	-222.0	340	-221	1
1.7	2015_Aug_04_1502	s	s	17	1	Capacity	56	RC	2	0	23VC	1	0	1.17404794693	-353.0	-96.0	-355	-92	1
1.7	2015_Aug_04_1502	s	s	17	1	Capacity	57	ABS	1	0	24MC	0	1	5.02020406723	None	None	None	None	1
1.7	2015_Aug_04_1502	s	s	17	1	Capacity	58	RC	1	0	23MC	1	0	1.17641115189	167.0	-96.0	166	-99	1
1.7	2015_Aug_04_1502	s	s	17	1	Capacity	59	RC	2	0	23VC	1	0	1.24302411079	-402.0	219.0	-405	225	1
1.7	2015_Aug_04_1502	s	s	17	1	Capacity	60	ABS	2	0	24VC	0	1	0.796416044235	None	None	None	None	1
1.7	2015_Aug_04_1502	s	s	17	1	Capacity	61	RC	1	0	23MC	1	0	1.10582113266	93.0	-61.0	89	-62	1
1.7	2015_Aug_04_1502	s	s	17	1	Capacity	62	ABS	2	0	24VC	0	1	2.07101106644	None	None	None	None	1
1.7	2015_Aug_04_1502	s	s	17	1	Capacity	63	ABS	1	0	24MC	0	1	7.26552915573	None	None	None	None	1
1.7	2015_Aug_04_1502	s	s	17	1	Capacity	64	RC	2	0	23VC	1	0	0.735863924026	-506.0	121.0	-506	121	1
1.7	2015_Aug_04_1502	s	s	17	1	Capacity	65	ABS	2	0	24VC	0	1	1.11757493019	None	None	None	None	1
1.7	2015_Aug_04_1502	s	s	17	1	Capacity	66	RC	2	0	23VC	1	0	0.901479959488	-502.0	82.0	-494	78	1
1.7	2015_Aug_04_1502	s	s	17	1	Capacity	67	RC	1	0	23MC	1	0	2.28974604607	159.0	-390.0	151	-391	1
1.7	2015_Aug_04_1502	s	s	17	1	Capacity	68	ABS	1	0	24MC	0	1	3.57228207588	None	None	None	None	1
1.7	2015_Aug_04_1502	s	s	17	1	Capacity	69	RC	2	0	23VC	1	0	0.846888065338	110.0	-98.0	105	-96	1
1.7	2015_Aug_04_1502	s	s	17	1	Capacity	70	ABS	2	0	24VC	0	1	0.86563205719	None	None	None	None	1
1.7	2015_Aug_04_1502	s	s	17	1	Capacity	71	ABS	1	0	24MC	1	0	4.32615208626	None	None	-325	212	0
1.7	2015_Aug_04_1502	s	s	17	1	Capacity	72	RC	1	0	23MC	1	0	1.93673205376	-342.0	-355.0	-346	-367	1
1.7	2015_Aug_04_1502	s	s	17	1	Capacity	73	ABS	1	0	24MC	0	1	4.15437507629	None	None	None	None	1
1.7	2015_Aug_04_1502	s	s	17	1	Capacity	74	RC	1	0	23MC	1	0	1.10567307472	97.0	-168.0	102	-172	1
1.7	2015_Aug_04_1502	s	s	17	1	Capacity	75	ABS	2	0	24VC	0	1	1.22340798378	None	None	None	None	1
1.7	2015_Aug_04_1502	s	s	17	1	Capacity	76	RC	2	0	23VC	1	0	0.667886018753	298.0	285.0	298	294	1
1.7	2015_Aug_04_1502	s	s	17	1	Capacity	77	ABS	2	0	24VC	0	1	0.57376909256	None	None	None	None	1
1.7	2015_Aug_04_1502	s	s	17	1	Capacity	78	RC	1	0	23MC	1	0	1.72963190079	-372.0	-400.0	-366	-396	1
1.7	2015_Aug_04_1502	s	s	17	1	Capacity	79	ABS	1	0	24MC	0	1	3.2193479538	None	None	None	None	1
1.7	2015_Aug_04_1502	s	s	17	1	Capacity	80	RC	2	0	23VC	1	0	0.740855932236	76.0	110.0	80	99	1
1.7	2015_Aug_04_1502	s	s	17	1	Capacity	81	RC	1	0	23MC	1	0	1.58326101303	331.0	368.0	335	357	1
1.7	2015_Aug_04_1502	s	s	17	1	Capacity	82	ABS	1	0	24MC	0	1	3.98954296112	None	None	None	None	1
1.7	2015_Aug_04_1502	s	s	17	1	Capacity	83	ABS	2	0	24VC	0	1	0.971926927567	None	None	None	None	1
1.7	2015_Aug_04_1502	s	s	17	1	Capacity	84	RC	2	0	23VC	1	0	0.670356988907	-536.0	224.0	-531	218	1
1.7	2015_Aug_04_1502	s	s	17	1	Capacity	85	RC	1	0	23MC	1	0	2.14833402634	129.0	114.0	124	105	1
1.7	2015_Aug_04_1502	s	s	17	1	Capacity	86	ABS	2	0	24VC	0	1	0.917505979538	None	None	None	None	1
1.7	2015_Aug_04_1502	s	s	17	1	Capacity	87	ABS	1	0	24MC	0	1	3.29032492638	None	None	None	None	1
1.7	2015_Aug_04_1502	s	s	17	1	Capacity	88	RC	2	0	23VC	1	0	0.736172199249	-219.0	179.0	-226	172	1
1.7	2015_Aug_04_1502	s	s	17	1	Capacity	89	RC	1	0	23MC	1	0	4.71387696266	-294.0	40.0	-302	34	1
1.7	2015_Aug_04_1502	s	s	17	1	Capacity	90	ABS	2	0	24VC	0	1	0.723122119904	None	None	None	None	1
1.7	2015_Aug_04_1502	s	s	17	1	Capacity	91	ABS	1	0	24MC	0	1	6.62617492676	None	None	None	None	1
1.7	2015_Aug_04_1502	s	s	17	1	Capacity	92	RC	2	0	23VC	1	0	1.36244797707	-222.0	281.0	-222	276	1
1.7	2015_Aug_04_1502	s	s	17	1	Capacity	1	RC	0	1	23RO	1	0	1.77349901199	-132.0	-38.0	-135	-36	1
1.7	2015_Aug_04_1502	s	s	17	1	Capacity	2	RC	0	2	23RD	1	0	1.52956700325	423.0	-190.0	426	-188	1
1.7	2015_Aug_04_1502	s	s	17	1	Capacity	3	ABS	0	1	24RO	0	1	6.64451408386	None	None	None	None	1
1.7	2015_Aug_04_1502	s	s	17	1	Capacity	4	ABS	0	2	24RD	0	1	3.85549807549	None	None	None	None	1
1.7	2015_Aug_04_1502	s	s	17	1	Capacity	5	ABS	0	2	24RD	0	1	4.04631710052	None	None	None	None	1
1.7	2015_Aug_04_1502	s	s	17	1	Capacity	6	RC	0	1	23RO	1	0	4.21103096008	-95.0	-156.0	-97	-163	1
1.7	2015_Aug_04_1502	s	s	17	1	Capacity	7	ABS	0	1	24RO	0	1	9.65796685219	None	None	None	None	1
1.7	2015_Aug_04_1502	s	s	17	1	Capacity	8	RC	0	2	23RD	1	0	0.917525053024	81.0	-80.0	69	-79	1
1.7	2015_Aug_04_1502	s	s	17	1	Capacity	9	RC	0	1	23RO	1	0	4.23675584793	274.0	380.0	275	382	1
1.7	2015_Aug_04_1502	s	s	17	1	Capacity	10	ABS	0	2	24RD	0	1	1.87728095055	None	None	None	None	1
1.7	2015_Aug_04_1502	s	s	17	1	Capacity	11	ABS	0	1	24RO	0	1	9.06269884109	None	None	None	None	1
1.7	2015_Aug_04_1502	s	s	17	1	Capacity	12	RC	0	2	23RD	1	0	0.725893974304	-176.0	339.0	-173	348	1
1.7	2015_Aug_04_1502	s	s	17	1	Capacity	13	ABS	0	2	24RD	0	1	1.94155311584	None	None	None	None	1
1.7	2015_Aug_04_1502	s	s	17	1	Capacity	14	RC	0	2	23RD	1	0	0.818417072296	362.0	44.0	360	39	1
1.7	2015_Aug_04_1502	s	s	17	1	Capacity	15	ABS	0	1	24RO	0	1	9.7335870266	None	None	None	None	1
1.7	2015_Aug_04_1502	s	s	17	1	Capacity	16	RC	0	1	23RO	0	1	9.80178809166	-182.0	156.0	None	None	0
1.7	2015_Aug_04_1502	s	s	17	1	Capacity	17	RC	0	2	23RD	1	0	0.988060951233	500.0	-19.0	502	-25	1
1.7	2015_Aug_04_1502	s	s	17	1	Capacity	18	RC	0	1	23RO	1	0	1.23046898842	35.0	-50.0	41	-53	1
1.7	2015_Aug_04_1502	s	s	17	1	Capacity	19	ABS	0	2	24RD	0	1	2.46629977226	None	None	None	None	1
1.7	2015_Aug_04_1502	s	s	17	1	Capacity	20	ABS	0	1	24RO	0	1	11.1201169491	None	None	None	None	1
1.7	2015_Aug_04_1502	s	s	17	1	Capacity	21	ABS	0	2	24RD	0	1	2.13541078568	None	None	None	None	1
1.7	2015_Aug_04_1502	s	s	17	1	Capacity	22	ABS	0	1	24RO	0	1	9.95261883736	None	None	None	None	1
1.7	2015_Aug_04_1502	s	s	17	1	Capacity	23	RC	0	2	23RD	1	0	0.983081102371	174.0	-220.0	173	-233	1
1.7	2015_Aug_04_1502	s	s	17	1	Capacity	24	RC	0	1	23RO	1	0	4.0196659565	-22.0	-300.0	-18	-299	1
1.7	2015_Aug_04_1502	s	s	17	1	Capacity	25	RC	0	1	23RO	1	0	4.40151500702	-57.0	-175.0	-60	-185	1
1.7	2015_Aug_04_1502	s	s	17	1	Capacity	26	ABS	0	2	24RD	0	1	3.38376092911	None	None	None	None	1
1.7	2015_Aug_04_1502	s	s	17	1	Capacity	27	ABS	0	1	24RO	0	1	8.61231184006	None	None	None	None	1
1.7	2015_Aug_04_1502	s	s	17	1	Capacity	28	RC	0	2	23RD	1	0	0.670282840729	-2.0	83.0	-2	79	1
1.7	2015_Aug_04_1502	s	s	17	1	Capacity	29	RC	0	2	23RD	0	1	0.587910890579	381.0	-224.0	None	None	0
1.7	2015_Aug_04_1502	s	s	17	1	Capacity	30	ABS	0	1	24RO	0	1	8.24548888206	None	None	None	None	1
1.7	2015_Aug_04_1502	s	s	17	1	Capacity	31	ABS	0	2	24RD	0	1	1.45674085617	None	None	None	None	1
1.7	2015_Aug_04_1502	s	s	17	1	Capacity	32	RC	0	1	23RO	1	0	3.56585097313	-462.0	69.0	-471	66	1
1.7	2015_Aug_04_1502	s	s	17	1	Capacity	33	ABS	0	1	24RO	0	1	8.01161193848	None	None	None	None	1
1.7	2015_Aug_04_1502	s	s	17	1	Capacity	34	RC	0	1	23RO	1	0	2.6124458313	437.0	-32.0	434	-39	1
1.7	2015_Aug_04_1502	s	s	17	1	Capacity	35	ABS	0	2	24RD	0	1	1.80699682236	None	None	None	None	1
1.7	2015_Aug_04_1502	s	s	17	1	Capacity	36	RC	0	2	23RD	1	0	0.948114871979	171.0	-126.0	177	-131	1
1.7	2015_Aug_04_1502	s	s	17	1	Capacity	37	RC	0	2	23RD	1	0	0.850461006165	130.0	164.0	131	155	1
1.7	2015_Aug_04_1502	s	s	17	1	Capacity	38	RC	0	1	23RO	1	0	5.57275891304	-363.0	-286.0	-360	-290	1
1.7	2015_Aug_04_1502	s	s	17	1	Capacity	39	ABS	0	1	24RO	0	1	5.86123681068	None	None	None	None	1
1.7	2015_Aug_04_1502	s	s	17	1	Capacity	40	ABS	0	2	24RD	0	1	1.22724986076	None	None	None	None	1
1.7	2015_Aug_04_1502	s	s	17	1	Capacity	41	RC	0	1	23RO	1	0	3.14888691902	473.0	-187.0	479	-179	1
1.7	2015_Aug_04_1502	s	s	17	1	Capacity	42	ABS	0	1	24RO	0	1	7.97987985611	None	None	None	None	1
1.7	2015_Aug_04_1502	s	s	17	1	Capacity	43	RC	0	2	23RD	1	0	0.623119115829	-149.0	227.0	-140	226	1
1.7	2015_Aug_04_1502	s	s	17	1	Capacity	44	ABS	0	2	24RD	0	1	1.05382013321	None	None	None	None	1
1.7	2015_Aug_04_1502	s	s	17	1	Capacity	45	RC	0	1	23RO	1	0	2.19548082352	329.0	-2.0	333	-1	1
1.7	2015_Aug_04_1502	s	s	17	1	Capacity	46	RC	0	2	23RD	1	0	0.646761894226	220.0	-338.0	222	-347	1
1.7	2015_Aug_04_1502	s	s	17	1	Capacity	47	ABS	0	1	24RO	0	1	7.10327386856	None	None	None	None	1
1.7	2015_Aug_04_1502	s	s	17	1	Capacity	48	ABS	0	2	24RD	0	1	1.11754703522	None	None	None	None	1
1.7	2015_Aug_04_1502	s	s	17	1	Capacity	49	ABS	0	1	24RO	0	1	9.8513739109	None	None	None	None	1
1.7	2015_Aug_04_1502	s	s	17	1	Capacity	50	RC	0	1	23RO	1	0	4.58664512634	-72.0	-358.0	-71	-356	1
1.7	2015_Aug_04_1502	s	s	17	1	Capacity	51	RC	0	2	23RD	1	0	0.752684116364	134.0	140.0	135	143	1
1.7	2015_Aug_04_1502	s	s	17	1	Capacity	52	ABS	0	2	24RD	0	1	1.40630817413	None	None	None	None	1
1.7	2015_Aug_04_1502	s	s	17	1	Capacity	53	ABS	0	2	24RD	0	1	1.04695820808	None	None	None	None	1
1.7	2015_Aug_04_1502	s	s	17	1	Capacity	54	RC	0	2	23RD	1	0	1.21170592308	-485.0	381.0	-492	381	1
1.7	2015_Aug_04_1502	s	s	17	1	Capacity	55	ABS	0	1	24RO	0	1	8.3861849308	None	None	None	None	1
1.7	2015_Aug_04_1502	s	s	17	1	Capacity	56	RC	0	1	23RO	1	0	5.41055417061	228.0	-258.0	234	-261	1
1.7	2015_Aug_04_1502	s	s	17	1	Capacity	57	ABS	0	2	24RD	0	1	1.34789514542	None	None	None	None	1
1.7	2015_Aug_04_1502	s	s	17	1	Capacity	58	RC	0	2	23RD	1	0	0.63499879837	107.0	129.0	113	123	1
1.7	2015_Aug_04_1502	s	s	17	1	Capacity	59	RC	0	1	23RO	1	0	2.14867901802	-334.0	32.0	-336	18	1
1.7	2015_Aug_04_1502	s	s	17	1	Capacity	60	ABS	0	1	24RO	0	1	4.96676301956	None	None	None	None	1
1.7	2015_Aug_04_1502	s	s	17	1	Capacity	61	RC	0	2	23RD	1	0	0.587895870209	-82.0	315.0	-75	314	1
1.7	2015_Aug_04_1502	s	s	17	1	Capacity	62	ABS	0	1	24RO	0	1	4.71337199211	None	None	None	None	1
1.7	2015_Aug_04_1502	s	s	17	1	Capacity	63	ABS	0	2	24RD	0	1	1.45353102684	None	None	None	None	1
1.7	2015_Aug_04_1502	s	s	17	1	Capacity	64	RC	0	1	23RO	1	0	4.58501195908	-391.0	-27.0	-390	-35	1
1.7	2015_Aug_04_1502	s	s	17	1	Capacity	65	RC	0	1	23RO	1	0	3.9364221096	157.0	-199.0	160	-196	1
1.7	2015_Aug_04_1502	s	s	17	1	Capacity	66	RC	0	2	23RD	1	0	1.07776618004	-176.0	409.0	-179	415	1
1.7	2015_Aug_04_1502	s	s	17	1	Capacity	67	ABS	0	1	24RO	0	1	5.10500907898	None	None	None	None	1
1.7	2015_Aug_04_1502	s	s	17	1	Capacity	68	ABS	0	2	24RD	0	1	1.71283578873	None	None	None	None	1
1.7	2015_Aug_04_1502	s	s	17	1	Capacity	69	ABS	0	2	24RD	0	1	2.87828493118	None	None	None	None	1
1.7	2015_Aug_04_1502	s	s	17	1	Capacity	70	RC	0	1	23RO	1	0	1.77182483673	313.0	250.0	304	246	1
1.7	2015_Aug_04_1502	s	s	17	1	Capacity	71	ABS	0	1	24RO	0	1	4.98528790474	None	None	None	None	1
1.7	2015_Aug_04_1502	s	s	17	1	Capacity	72	RC	0	2	23RD	1	0	0.794553041458	-175.0	223.0	-172	221	1
1.7	2015_Aug_04_1502	s	s	17	1	Capacity	73	ABS	0	1	24RO	0	1	4.11908006668	None	None	None	None	1
1.7	2015_Aug_04_1502	s	s	17	1	Capacity	74	RC	0	2	23RD	1	0	0.670294046402	-208.0	-176.0	-215	-178	1
1.7	2015_Aug_04_1502	s	s	17	1	Capacity	75	RC	0	1	23RO	1	0	1.04179096222	-429.0	-127.0	-432	-133	1
1.7	2015_Aug_04_1502	s	s	17	1	Capacity	76	ABS	0	2	24RD	0	1	4.63272809982	None	None	None	None	1
1.7	2015_Aug_04_1502	s	s	17	1	Capacity	77	RC	0	1	23RO	1	0	1.88273215294	-503.0	-34.0	-496	-37	1
1.7	2015_Aug_04_1502	s	s	17	1	Capacity	78	ABS	0	1	24RO	0	1	5.01115512848	None	None	None	None	1
1.7	2015_Aug_04_1502	s	s	17	1	Capacity	79	RC	0	2	23RD	1	0	0.870697021484	10.0	-384.0	10	-390	1
1.7	2015_Aug_04_1502	s	s	17	1	Capacity	80	ABS	0	2	24RD	0	1	1.43559885025	None	None	None	None	1
1.7	2015_Aug_04_1502	s	s	17	1	Capacity	81	RC	0	1	23RO	0	1	5.13145208359	-190.0	-39.0	None	None	0
1.7	2015_Aug_04_1502	s	s	17	1	Capacity	82	RC	0	2	23RD	1	0	0.570703029633	-252.0	199.0	-254	193	1
1.7	2015_Aug_04_1502	s	s	17	1	Capacity	83	ABS	0	2	24RD	0	1	1.74153614044	None	None	None	None	1
1.7	2015_Aug_04_1502	s	s	17	1	Capacity	84	ABS	0	1	24RO	0	1	4.12772083282	None	None	None	None	1
1.7	2015_Aug_04_1502	s	s	17	1	Capacity	85	ABS	0	2	24RD	0	1	1.74136781693	None	None	None	None	1
1.7	2015_Aug_04_1502	s	s	17	1	Capacity	86	RC	0	2	23RD	1	0	0.914265155792	-496.0	-274.0	-496	-273	1
1.7	2015_Aug_04_1502	s	s	17	1	Capacity	87	ABS	0	1	24RO	0	1	4.51707100868	None	None	None	None	1
1.7	2015_Aug_04_1502	s	s	17	1	Capacity	88	RC	0	1	23RO	0	1	4.3498249054	478.0	-141.0	None	None	0
1.7	2015_Aug_04_1502	s	s	17	1	Capacity	89	RC	0	2	23RD	1	0	0.865714073181	-453.0	44.0	-459	40	1
1.7	2015_Aug_04_1502	s	s	17	1	Capacity	90	RC	0	1	23RO	0	1	4.60841393471	-445.0	170.0	None	None	0
1.7	2015_Aug_04_1502	s	s	17	1	Capacity	91	ABS	0	1	24RO	0	1	4.41040086746	None	None	None	None	1
1.7	2015_Aug_04_1502	s	s	17	1	Capacity	92	ABS	0	2	24RD	0	1	1.55304813385	None	None	None	None	1
1.7	2015_Aug_04_1502	s	s	17	1	SIC	1	RC	0	1	23RO	1	0	7.66872191429	-493.0	303.0	-494	297	1
1.7	2015_Aug_04_1502	s	s	17	1	SIC	2	ABS	2	0	24VC	0	1	0.799710988998	None	None	None	None	1
1.7	2015_Aug_04_1502	s	s	17	1	SIC	3	RC	1	1	23MO	1	0	1.16464877129	-141.0	57.0	-143	46	1
1.7	2015_Aug_04_1502	s	s	17	1	SIC	4	ABS	0	1	24RO	0	1	5.47958493233	None	None	None	None	1
1.7	2015_Aug_04_1502	s	s	17	1	SIC	5	RC	0	2	23RD	1	0	0.865520000458	263.0	-205.0	275	-200	1
1.7	2015_Aug_04_1502	s	s	17	1	SIC	6	ABS	1	0	24MC	1	0	0.89101099968	None	None	-32	4	0
1.7	2015_Aug_04_1502	s	s	17	1	SIC	7	ABS	2	2	24VD	0	1	0.905831098557	None	None	None	None	1
1.7	2015_Aug_04_1502	s	s	17	1	SIC	8	RC	2	2	23VD	1	0	0.634984970093	452.0	50.0	446	46	1
1.7	2015_Aug_04_1502	s	s	17	1	SIC	9	ABS	1	1	24MO	0	1	5.15482211113	None	None	None	None	1
1.7	2015_Aug_04_1502	s	s	17	1	SIC	10	ABS	1	2	24MD	0	1	0.864942073822	None	None	None	None	1
1.7	2015_Aug_04_1502	s	s	17	1	SIC	11	ABS	2	1	24VO	0	1	0.568151950836	None	None	None	None	1
1.7	2015_Aug_04_1502	s	s	17	1	SIC	12	RC	1	0	23MC	1	0	4.10745406151	-230.0	151.0	-229	145	1
1.7	2015_Aug_04_1502	s	s	17	1	SIC	13	RC	1	2	23MD	1	0	0.783468008041	-457.0	-92.0	-450	-95	1
1.7	2015_Aug_04_1502	s	s	17	1	SIC	14	ABS	0	2	24RD	0	1	1.83036494255	None	None	None	None	1
1.7	2015_Aug_04_1502	s	s	17	1	SIC	15	RC	2	1	23VO	1	0	0.641653060913	375.0	-155.0	388	-152	1
1.7	2015_Aug_04_1502	s	s	17	1	SIC	16	RC	2	0	23VC	1	0	0.48882317543	-441.0	124.0	-442	111	1
1.7	2015_Aug_04_1502	s	s	17	1	SIC	17	RC	1	2	23MD	1	0	0.51726102829	67.0	209.0	63	203	1
1.7	2015_Aug_04_1502	s	s	17	1	SIC	18	ABS	2	0	24VC	0	1	0.773595094681	None	None	None	None	1
1.7	2015_Aug_04_1502	s	s	17	1	SIC	19	ABS	0	2	24RD	0	1	1.51296305656	None	None	None	None	1
1.7	2015_Aug_04_1502	s	s	17	1	SIC	20	ABS	1	2	24MD	0	1	0.759415149689	None	None	None	None	1
1.7	2015_Aug_04_1502	s	s	17	1	SIC	21	RC	1	1	23MO	1	0	2.00041794777	387.0	166.0	382	163	1
1.7	2015_Aug_04_1502	s	s	17	1	SIC	22	RC	0	2	23RD	1	0	0.724223852158	-258.0	-404.0	-253	-405	1
1.7	2015_Aug_04_1502	s	s	17	1	SIC	23	ABS	2	1	24VO	0	1	0.79974603653	None	None	None	None	1
1.7	2015_Aug_04_1502	s	s	17	1	SIC	24	RC	2	1	23VO	1	0	0.529468774796	-192.0	9.0	-181	12	1
1.7	2015_Aug_04_1502	s	s	17	1	SIC	25	ABS	0	1	24RO	0	1	6.68505597115	None	None	None	None	1
1.7	2015_Aug_04_1502	s	s	17	1	SIC	26	RC	2	0	23VC	1	0	0.594521999359	407.0	128.0	405	130	1
1.7	2015_Aug_04_1502	s	s	17	1	SIC	27	RC	2	2	23VD	1	0	0.488482952118	173.0	-375.0	171	-384	1
1.7	2015_Aug_04_1502	s	s	17	1	SIC	28	ABS	2	2	24VD	0	1	0.611464977264	None	None	None	None	1
1.7	2015_Aug_04_1502	s	s	17	1	SIC	29	RC	0	1	23RO	1	0	2.17723798752	-410.0	-372.0	-408	-381	1
1.7	2015_Aug_04_1502	s	s	17	1	SIC	30	ABS	1	0	24MC	1	0	1.08920693398	None	None	64	174	0
1.7	2015_Aug_04_1502	s	s	17	1	SIC	31	ABS	1	1	24MO	0	1	5.0842089653	None	None	None	None	1
1.7	2015_Aug_04_1502	s	s	17	1	SIC	32	RC	1	0	23MC	1	0	3.66661691666	-66.0	-97.0	-65	-88	1
1.7	2015_Aug_04_1502	s	s	17	1	SIC	33	ABS	1	0	24MC	0	1	5.74015402794	None	None	None	None	1
1.7	2015_Aug_04_1502	s	s	17	1	SIC	34	ABS	2	0	24VC	0	1	0.996253013611	None	None	None	None	1
1.7	2015_Aug_04_1502	s	s	17	1	SIC	35	ABS	2	2	24VD	0	1	1.09410095215	None	None	None	None	1
1.7	2015_Aug_04_1502	s	s	17	1	SIC	36	RC	1	2	23MD	1	0	0.644268035889	1.0	38.0	-2	29	1
1.7	2015_Aug_04_1502	s	s	17	1	SIC	37	ABS	1	1	24MO	0	1	4.41331195831	None	None	None	None	1
1.7	2015_Aug_04_1502	s	s	17	1	SIC	38	RC	2	0	23VC	1	0	0.688154935837	448.0	-64.0	443	-57	1
1.7	2015_Aug_04_1502	s	s	17	1	SIC	39	RC	2	2	23VD	1	0	0.747878789902	177.0	-2.0	186	-5	1
1.7	2015_Aug_04_1502	s	s	17	1	SIC	40	ABS	0	1	24RO	0	1	4.4321949482	None	None	None	None	1
1.7	2015_Aug_04_1502	s	s	17	1	SIC	41	RC	2	1	23VO	1	0	0.605811834335	299.0	-30.0	311	-28	1
1.7	2015_Aug_04_1502	s	s	17	1	SIC	42	RC	0	2	23RD	1	0	0.724476099014	-508.0	165.0	-508	150	1
1.7	2015_Aug_04_1502	s	s	17	1	SIC	43	RC	0	1	23RO	0	1	5.00181317329	-524.0	-12.0	None	None	0
1.7	2015_Aug_04_1502	s	s	17	1	SIC	44	RC	1	0	23MC	1	0	4.77864813805	216.0	285.0	218	287	1
1.7	2015_Aug_04_1502	s	s	17	1	SIC	45	ABS	1	2	24MD	0	1	1.60024595261	None	None	None	None	1
1.7	2015_Aug_04_1502	s	s	17	1	SIC	46	ABS	0	2	24RD	0	1	1.54820013046	None	None	None	None	1
1.7	2015_Aug_04_1502	s	s	17	1	SIC	47	RC	1	1	23MO	1	0	1.9768280983	-378.0	-337.0	-378	-351	1
1.7	2015_Aug_04_1502	s	s	17	1	SIC	48	ABS	2	1	24VO	0	1	0.794863939285	None	None	None	None	1
1.7	2015_Aug_04_1502	s	s	17	1	SIC	49	ABS	1	0	24MC	0	1	9.63948917389	None	None	None	None	1
1.7	2015_Aug_04_1502	s	s	17	1	SIC	50	RC	1	1	23MO	1	0	1.26576089859	95.0	149.0	99	145	1
1.7	2015_Aug_04_1502	s	s	17	1	SIC	51	RC	0	2	23RD	1	0	0.771169900894	-526.0	-280.0	-529	-294	1
1.7	2015_Aug_04_1502	s	s	17	1	SIC	52	ABS	2	1	24VO	0	1	0.850574970245	None	None	None	None	1
1.7	2015_Aug_04_1502	s	s	17	1	SIC	53	RC	1	0	23MC	1	0	2.05921792984	505.0	-189.0	499	-190	1
1.7	2015_Aug_04_1502	s	s	17	1	SIC	54	ABS	2	2	24VD	0	1	0.635068893433	None	None	None	None	1
1.7	2015_Aug_04_1502	s	s	17	1	SIC	55	RC	1	2	23MD	1	0	0.607078075409	-317.0	-86.0	-313	-85	1
1.7	2015_Aug_04_1502	s	s	17	1	SIC	56	ABS	2	0	24VC	0	1	1.74129414558	None	None	None	None	1
1.7	2015_Aug_04_1502	s	s	17	1	SIC	57	ABS	1	2	24MD	0	1	0.819235086441	None	None	None	None	1
1.7	2015_Aug_04_1502	s	s	17	1	SIC	58	ABS	0	2	24RD	0	1	1.58501315117	None	None	None	None	1
1.7	2015_Aug_04_1502	s	s	17	1	SIC	59	RC	2	0	23VC	1	0	0.571214914322	-482.0	-213.0	-472	-211	1
1.7	2015_Aug_04_1502	s	s	17	1	SIC	60	RC	2	2	23VD	1	0	0.470102071762	-287.0	-207.0	-293	-216	1
1.7	2015_Aug_04_1502	s	s	17	1	SIC	61	RC	0	1	23RO	1	0	4.39687514305	-62.0	-378.0	-56	-369	1
1.7	2015_Aug_04_1502	s	s	17	1	SIC	62	ABS	1	1	24MO	0	1	3.94910287857	None	None	None	None	1
1.7	2015_Aug_04_1502	s	s	17	1	SIC	63	RC	2	1	23VO	1	0	0.705581903458	280.0	256.0	282	254	1
1.7	2015_Aug_04_1502	s	s	17	1	SIC	64	ABS	0	1	24RO	0	1	4.78998303413	None	None	None	None	1
1.7	2015_Aug_04_1502	s	s	17	1	SIC	65	RC	1	0	23MC	1	0	3.42457699776	207.0	250.0	204	244	1
1.7	2015_Aug_04_1502	s	s	17	1	SIC	66	ABS	2	1	24VO	0	1	0.740956068039	None	None	None	None	1
1.7	2015_Aug_04_1502	s	s	17	1	SIC	67	RC	2	1	23VO	1	0	0.952842950821	517.0	-393.0	513	-400	1
1.7	2015_Aug_04_1502	s	s	17	1	SIC	68	ABS	1	2	24MD	0	1	0.905706882477	None	None	None	None	1
1.7	2015_Aug_04_1502	s	s	17	1	SIC	69	ABS	1	0	24MC	0	1	3.23629593849	None	None	None	None	1
1.7	2015_Aug_04_1502	s	s	17	1	SIC	70	RC	1	2	23MD	1	0	0.787939071655	-115.0	309.0	-111	311	1
1.7	2015_Aug_04_1502	s	s	17	1	SIC	71	RC	0	2	23RD	1	0	0.623215913773	219.0	-173.0	222	-174	1
1.7	2015_Aug_04_1502	s	s	17	1	SIC	72	ABS	2	0	24VC	0	1	0.599636793137	None	None	None	None	1
1.7	2015_Aug_04_1502	s	s	17	1	SIC	73	RC	1	1	23MO	1	0	1.40003299713	250.0	-8.0	252	-17	1
1.7	2015_Aug_04_1502	s	s	17	1	SIC	74	RC	2	0	23VC	1	0	0.517238140106	-447.0	29.0	-447	29	1
1.7	2015_Aug_04_1502	s	s	17	1	SIC	75	ABS	2	2	24VD	0	1	0.658529043198	None	None	None	None	1
1.7	2015_Aug_04_1502	s	s	17	1	SIC	76	ABS	0	2	24RD	0	1	1.58456587791	None	None	None	None	1
1.7	2015_Aug_04_1502	s	s	17	1	SIC	77	ABS	1	1	24MO	0	1	4.57308101654	None	None	None	None	1
1.7	2015_Aug_04_1502	s	s	17	1	SIC	78	RC	0	1	23RO	0	1	5.63744282722	274.0	362.0	None	None	0
1.7	2015_Aug_04_1502	s	s	17	1	SIC	79	RC	2	2	23VD	1	0	0.646719932556	-243.0	-173.0	-232	-170	1
1.7	2015_Aug_04_1502	s	s	17	1	SIC	80	ABS	0	1	24RO	0	1	4.73790001869	None	None	None	None	1
1.7	2015_Aug_04_1502	s	s	17	1	SIC	81	RC	2	2	23VD	1	0	1.12933087349	-330.0	79.0	-325	77	1
1.7	2015_Aug_04_1502	s	s	17	1	SIC	82	RC	1	0	23MC	1	0	3.76582503319	-367.0	-39.0	-378	-39	1
1.7	2015_Aug_04_1502	s	s	17	1	SIC	83	ABS	0	2	24RD	0	1	1.60812902451	None	None	None	None	1
1.7	2015_Aug_04_1502	s	s	17	1	SIC	84	ABS	2	0	24VC	0	1	0.724273920059	None	None	None	None	1
1.7	2015_Aug_04_1502	s	s	17	1	SIC	85	ABS	2	1	24VO	0	1	0.97630405426	None	None	None	None	1
1.7	2015_Aug_04_1502	s	s	17	1	SIC	86	ABS	1	0	24MC	0	1	3.98612999916	None	None	None	None	1
1.7	2015_Aug_04_1502	s	s	17	1	SIC	87	RC	2	1	23VO	1	0	0.658536911011	-114.0	-74.0	-115	-87	1
1.7	2015_Aug_04_1502	s	s	17	1	SIC	88	RC	0	2	23RD	1	0	2.30641317368	-285.0	257.0	-292	252	1
1.7	2015_Aug_04_1502	s	s	17	1	SIC	89	RC	2	0	23VC	1	0	0.548366069794	-137.0	218.0	-143	219	1
1.7	2015_Aug_04_1502	s	s	17	1	SIC	90	ABS	1	1	24MO	0	1	4.00825095177	None	None	None	None	1
1.7	2015_Aug_04_1502	s	s	17	1	SIC	91	RC	1	1	23MO	1	0	3.16072201729	-172.0	-379.0	-172	-393	1
1.7	2015_Aug_04_1502	s	s	17	1	SIC	92	ABS	2	2	24VD	0	1	0.66540813446	None	None	None	None	1
1.7	2015_Aug_04_1502	s	s	17	1	SIC	93	RC	0	1	23RO	1	0	2.09454894066	-520.0	331.0	-523	323	1
1.7	2015_Aug_04_1502	s	s	17	1	SIC	94	ABS	1	2	24MD	0	1	0.938482999802	None	None	None	None	1
1.7	2015_Aug_04_1502	s	s	17	1	SIC	95	RC	1	2	23MD	1	0	0.587918996811	-417.0	-92.0	-417	-99	1
1.7	2015_Aug_04_1502	s	s	17	1	SIC	96	ABS	0	1	24RO	0	1	0.529083013535	None	None	None	None	1
1.7	2015_Aug_04_1502	s	s	17	1	SIC	97	RC	1	2	23MD	1	0	1.17156910896	-11.0	196.0	-8	196	1
1.7	2015_Aug_04_1502	s	s	17	1	SIC	98	RC	2	2	23VD	1	0	0.658529996872	-267.0	-356.0	-262	-357	1
1.7	2015_Aug_04_1502	s	s	17	1	SIC	99	ABS	0	1	24RO	0	1	4.91394591331	None	None	None	None	1
1.7	2015_Aug_04_1502	s	s	17	1	SIC	100	ABS	1	0	24MC	0	1	3.78949594498	None	None	None	None	1
1.7	2015_Aug_04_1502	s	s	17	1	SIC	101	ABS	1	1	24MO	0	1	3.97780799866	None	None	None	None	1
1.7	2015_Aug_04_1502	s	s	17	1	SIC	102	ABS	2	2	24VD	0	1	0.984705209732	None	None	None	None	1
1.7	2015_Aug_04_1502	s	s	17	1	SIC	103	ABS	1	2	24MD	0	1	1.05867695808	None	None	None	None	1
1.7	2015_Aug_04_1502	s	s	17	1	SIC	104	RC	1	0	23MC	0	1	4.66059994698	221.0	36.0	None	None	0
1.7	2015_Aug_04_1502	s	s	17	1	SIC	105	RC	1	1	23MO	1	0	3.08329606056	133.0	-228.0	136	-219	1
1.7	2015_Aug_04_1502	s	s	17	1	SIC	106	ABS	2	0	24VC	0	1	0.711798906326	None	None	None	None	1
1.7	2015_Aug_04_1502	s	s	17	1	SIC	107	RC	2	1	23VO	1	0	0.646697998047	-397.0	-347.0	-396	-341	1
1.7	2015_Aug_04_1502	s	s	17	1	SIC	108	RC	0	2	23RD	1	0	0.74093079567	83.0	-258.0	90	-257	1
1.7	2015_Aug_04_1502	s	s	17	1	SIC	109	RC	2	0	23VC	1	0	0.712073087692	-481.0	232.0	-491	239	1
1.7	2015_Aug_04_1502	s	s	17	1	SIC	110	ABS	0	2	24RD	0	1	1.64244389534	None	None	None	None	1
1.7	2015_Aug_04_1502	s	s	17	1	SIC	111	RC	0	1	23RO	1	0	4.86773610115	159.0	225.0	152	228	1
1.7	2015_Aug_04_1502	s	s	17	1	SIC	112	ABS	2	1	24VO	0	1	0.760953903198	None	None	None	None	1
1.7	2015_Aug_04_1502	s	s	17	1	SIC	113	RC	2	2	23VD	1	0	0.58788895607	-331.0	202.0	-333	196	1
1.7	2015_Aug_04_1502	s	s	17	1	SIC	114	RC	1	1	23MO	1	0	1.1378929615	-238.0	172.0	-235	171	1
1.7	2015_Aug_04_1502	s	s	17	1	SIC	115	ABS	2	0	24VC	0	1	0.912904977798	None	None	None	None	1
1.7	2015_Aug_04_1502	s	s	17	1	SIC	116	ABS	2	2	24VD	0	1	0.583182096481	None	None	None	None	1
1.7	2015_Aug_04_1502	s	s	17	1	SIC	117	ABS	2	1	24VO	0	1	0.912497997284	None	None	None	None	1
1.7	2015_Aug_04_1502	s	s	17	1	SIC	118	RC	2	0	23VC	1	0	1.0893740654	14.0	-219.0	5	-223	1
1.7	2015_Aug_04_1502	s	s	17	1	SIC	119	RC	1	0	23MC	1	0	6.1788392067	134.0	-388.0	140	-389	1
1.7	2015_Aug_04_1502	s	s	17	1	SIC	120	ABS	1	1	24MO	0	1	8.43926811218	None	None	None	None	1
1.7	2015_Aug_04_1502	s	s	17	1	SIC	121	ABS	1	2	24MD	0	1	1.14794206619	None	None	None	None	1
1.7	2015_Aug_04_1502	s	s	17	1	SIC	122	ABS	1	0	24MC	0	1	8.52127122879	None	None	None	None	1
1.7	2015_Aug_04_1502	s	s	17	1	SIC	123	RC	1	2	23MD	1	0	0.740849018097	424.0	-297.0	424	-310	1
1.7	2015_Aug_04_1502	s	s	17	1	SIC	124	RC	0	1	23RO	1	0	6.75137782097	-91.0	194.0	-90	198	1
1.7	2015_Aug_04_1502	s	s	17	1	SIC	125	ABS	0	2	24RD	0	1	1.41820192337	None	None	None	None	1
1.7	2015_Aug_04_1502	s	s	17	1	SIC	126	ABS	0	1	24RO	0	1	8.63407111168	None	None	None	None	1
1.7	2015_Aug_04_1502	s	s	17	1	SIC	127	RC	0	2	23RD	1	0	0.773848056793	430.0	-17.0	434	-22	1
1.7	2015_Aug_04_1502	s	s	17	1	SIC	128	RC	2	1	23VO	1	0	0.611430883408	-218.0	252.0	-217	249	1
1.7	2015_Aug_04_1502	s	s	17	1	SIC	129	RC	0	2	23RD	1	0	0.57605099678	-346.0	308.0	-347	302	1
1.7	2015_Aug_04_1502	s	s	17	1	SIC	130	ABS	0	2	24RD	0	1	1.4307820797	None	None	None	None	1
1.7	2015_Aug_04_1502	s	s	17	1	SIC	131	ABS	2	1	24VO	0	1	0.717420101166	None	None	None	None	1
1.7	2015_Aug_04_1502	s	s	17	1	SIC	132	ABS	1	2	24MD	0	1	0.86515879631	None	None	None	None	1
1.7	2015_Aug_04_1502	s	s	17	1	SIC	133	RC	1	2	23MD	1	0	0.641525030136	233.0	-7.0	237	-10	1
1.7	2015_Aug_04_1502	s	s	17	1	SIC	134	ABS	0	1	24RO	0	1	4.57584905624	None	None	None	None	1
1.7	2015_Aug_04_1502	s	s	17	1	SIC	135	RC	0	1	23RO	1	0	4.64393186569	-349.0	-378.0	-356	-385	1
1.7	2015_Aug_04_1502	s	s	17	1	SIC	136	ABS	2	0	24VC	0	1	0.646738052368	None	None	None	None	1
1.7	2015_Aug_04_1502	s	s	17	1	SIC	137	RC	2	0	23VC	1	0	0.634983062744	72.0	-304.0	82	-297	1
1.7	2015_Aug_04_1502	s	s	17	1	SIC	138	ABS	2	2	24VD	0	1	0.670323133469	None	None	None	None	1
1.7	2015_Aug_04_1502	s	s	17	1	SIC	139	RC	2	1	23VO	0	1	0.48197889328	-360.0	-341.0	None	None	0
1.7	2015_Aug_04_1502	s	s	17	1	SIC	140	RC	2	2	23VD	0	1	0.512428045273	165.0	408.0	None	None	0
1.7	2015_Aug_04_1502	s	s	17	1	SIC	141	RC	1	0	23MC	0	1	0.921259880066	60.0	209.0	None	None	0
1.7	2015_Aug_04_1502	s	s	17	1	SIC	142	ABS	1	0	24MC	0	1	1.42394900322	None	None	None	None	1
1.7	2015_Aug_04_1502	s	s	17	1	SIC	143	ABS	1	1	24MO	0	1	4.51925897598	None	None	None	None	1
1.7	2015_Aug_04_1502	s	s	17	1	SIC	144	RC	1	1	23MO	1	0	2.50648283958	79.0	-282.0	82	-296	1
1.7	2015_Aug_04_1502	s	s	17	1	SIC	145	ABS	2	0	24VC	0	1	0.952790975571	None	None	None	None	1
1.7	2015_Aug_04_1502	s	s	17	1	SIC	146	ABS	2	1	24VO	0	1	0.740925788879	None	None	None	None	1
1.7	2015_Aug_04_1502	s	s	17	1	SIC	147	RC	1	2	23MD	1	0	0.877368927002	-413.0	-306.0	-402	-306	1
1.7	2015_Aug_04_1502	s	s	17	1	SIC	148	RC	0	2	23RD	1	0	0.653583049774	264.0	-24.0	255	-20	1
1.7	2015_Aug_04_1502	s	s	17	1	SIC	149	ABS	2	2	24VD	0	1	0.771154165268	None	None	None	None	1
1.7	2015_Aug_04_1502	s	s	17	1	SIC	150	ABS	1	1	24MO	0	1	4.8487739563	None	None	None	None	1
1.7	2015_Aug_04_1502	s	s	17	1	SIC	151	RC	1	0	23MC	1	0	5.40210008621	94.0	-241.0	92	-242	1
1.7	2015_Aug_04_1502	s	s	17	1	SIC	152	ABS	0	1	24RO	0	1	5.29092001915	None	None	None	None	1
1.7	2015_Aug_04_1502	s	s	17	1	SIC	153	ABS	1	0	24MC	0	1	5.50367593765	None	None	None	None	1
1.7	2015_Aug_04_1502	s	s	17	1	SIC	154	ABS	0	2	24RD	0	1	1.69435882568	None	None	None	None	1
1.7	2015_Aug_04_1502	s	s	17	1	SIC	155	RC	1	1	23MO	1	0	1.81949305534	-268.0	205.0	-266	204	1
1.7	2015_Aug_04_1502	s	s	17	1	SIC	156	RC	2	0	23VC	1	0	0.794853925705	-518.0	-211.0	-526	-217	1
1.7	2015_Aug_04_1502	s	s	17	1	SIC	157	RC	0	1	23RO	1	0	2.30183887482	129.0	-210.0	124	-213	1
1.7	2015_Aug_04_1502	s	s	17	1	SIC	158	RC	2	2	23VD	1	0	0.700541973114	32.0	118.0	25	117	1
1.7	2015_Aug_04_1502	s	s	17	1	SIC	159	ABS	1	2	24MD	0	1	0.973215818405	None	None	None	None	1
1.7	2015_Aug_04_1502	s	s	17	1	SIC	160	RC	2	1	23VO	1	0	1.00665402412	-412.0	407.0	-405	400	1
1.7	2015_Aug_04_1502	s	s	17	1	SIC	161	RC	0	1	23RO	1	0	2.71840500832	11.0	-250.0	20	-254	1
1.7	2015_Aug_04_1502	s	s	17	1	SIC	162	ABS	2	0	24VC	0	1	0.882148981094	None	None	None	None	1
1.7	2015_Aug_04_1502	s	s	17	1	SIC	163	RC	2	1	23VO	1	0	0.582827091217	180.0	-287.0	177	-279	1
1.7	2015_Aug_04_1502	s	s	17	1	SIC	164	ABS	1	2	24MD	0	1	1.3412630558	None	None	None	None	1
1.7	2015_Aug_04_1502	s	s	17	1	SIC	165	ABS	0	1	24RO	0	1	6.66820597649	None	None	None	None	1
1.7	2015_Aug_04_1502	s	s	17	1	SIC	166	RC	0	2	23RD	1	0	0.714169979095	345.0	-352.0	349	-349	1
1.7	2015_Aug_04_1502	s	s	17	1	SIC	167	RC	1	1	23MO	1	0	1.20372986794	-239.0	-66.0	-239	-62	1
1.7	2015_Aug_04_1502	s	s	17	1	SIC	168	RC	1	0	23MC	1	0	1.01164102554	521.0	161.0	-105	-6	0
1.7	2015_Aug_04_1502	s	s	17	1	SIC	169	RC	1	2	23MD	1	0	0.682075977325	-508.0	349.0	-509	347	1
1.7	2015_Aug_04_1502	s	s	17	1	SIC	170	ABS	1	0	24MC	1	0	1.02349209785	None	None	-60	-20	0
1.7	2015_Aug_04_1502	s	s	17	1	SIC	171	ABS	2	1	24VO	0	1	0.771134853363	None	None	None	None	1
1.7	2015_Aug_04_1502	s	s	17	1	SIC	172	RC	2	2	23VD	1	0	0.532800912857	199.0	-7.0	201	-11	1
1.7	2015_Aug_04_1502	s	s	17	1	SIC	173	RC	2	0	23VC	1	0	0.564237117767	341.0	-294.0	340	-287	1
1.7	2015_Aug_04_1502	s	s	17	1	SIC	174	ABS	1	1	24MO	0	1	5.72780609131	None	None	None	None	1
1.7	2015_Aug_04_1502	s	s	17	1	SIC	175	ABS	0	2	24RD	0	1	1.07075881958	None	None	None	None	1
1.7	2015_Aug_04_1502	s	s	17	1	SIC	176	ABS	2	2	24VD	0	1	0.608664989471	None	None	None	None	1
1.7	2015_Aug_04_1502	s	s	17	1	SIC	177	ABS	2	2	24VD	0	1	0.558795928955	None	None	None	None	1
1.7	2015_Aug_04_1502	s	s	17	1	SIC	178	ABS	2	1	24VO	0	1	0.799663066864	None	None	None	None	1
1.7	2015_Aug_04_1502	s	s	17	1	SIC	179	ABS	2	0	24VC	0	1	1.15287804604	None	None	None	None	1
1.7	2015_Aug_04_1502	s	s	17	1	SIC	180	RC	0	2	23RD	1	0	0.771137952805	-33.0	-399.0	-33	-408	1
1.7	2015_Aug_04_1502	s	s	17	1	SIC	181	RC	0	1	23RO	1	0	1.77182197571	-14.0	356.0	-14	350	1
1.7	2015_Aug_04_1502	s	s	17	1	SIC	182	ABS	1	0	24MC	0	1	11.7581338882	None	None	None	None	1
1.7	2015_Aug_04_1502	s	s	17	1	SIC	183	ABS	1	1	24MO	0	1	6.4095261097	None	None	None	None	1
1.7	2015_Aug_04_1502	s	s	17	1	SIC	184	RC	1	0	23MC	1	0	3.79751086235	360.0	-225.0	362	-225	1
1.7	2015_Aug_04_1502	s	s	17	1	SIC	185	RC	2	2	23VD	1	0	0.540946960449	215.0	-72.0	215	-63	1
1.7	2015_Aug_04_1502	s	s	17	1	SIC	186	RC	2	1	23VO	1	0	0.477654933929	-248.0	-172.0	-255	-179	1
1.7	2015_Aug_04_1502	s	s	17	1	SIC	187	ABS	0	2	24RD	0	1	1.36474204063	None	None	None	None	1
1.7	2015_Aug_04_1502	s	s	17	1	SIC	188	ABS	0	1	24RO	0	1	6.11531400681	None	None	None	None	1
1.7	2015_Aug_04_1502	s	s	17	1	SIC	189	ABS	1	2	24MD	0	1	1.01187896729	None	None	None	None	1
1.7	2015_Aug_04_1502	s	s	17	1	SIC	190	RC	2	0	23VC	1	0	0.917387962341	-419.0	274.0	-417	275	1
1.7	2015_Aug_04_1502	s	s	17	1	SIC	191	RC	1	1	23MO	1	0	2.68031382561	395.0	-218.0	402	-215	1
1.7	2015_Aug_04_1502	s	s	17	1	SIC	192	RC	1	2	23MD	1	0	0.654011011124	-534.0	-293.0	-530	-298	1
1.7	2015_Aug_04_1502	s	s	17	1	SIC	193	ABS	1	2	24MD	0	1	1.33307600021	None	None	None	None	1
1.7	2015_Aug_04_1502	s	s	17	1	SIC	194	RC	2	2	23VD	1	0	1.47752404213	516.0	-298.0	516	-302	1
1.7	2015_Aug_04_1502	s	s	17	1	SIC	195	ABS	2	0	24VC	0	1	0.835036993027	None	None	None	None	1
1.7	2015_Aug_04_1502	s	s	17	1	SIC	196	ABS	2	1	24VO	0	1	0.61871099472	None	None	None	None	1
1.7	2015_Aug_04_1502	s	s	17	1	SIC	197	RC	0	2	23RD	1	0	0.865653991699	-314.0	-139.0	-310	-152	1
1.7	2015_Aug_04_1502	s	s	17	1	SIC	198	RC	1	2	23MD	1	0	0.799739122391	-213.0	-16.0	-209	-16	1
1.7	2015_Aug_04_1502	s	s	17	1	SIC	199	RC	1	0	23MC	1	0	4.06715297699	166.0	-18.0	165	-30	1
1.7	2015_Aug_04_1502	s	s	17	1	SIC	200	RC	1	1	23MO	1	0	2.62086510658	-442.0	5.0	-440	14	1
1.7	2015_Aug_04_1502	s	s	17	1	SIC	201	ABS	1	1	24MO	0	1	4.91932106018	None	None	None	None	1
1.7	2015_Aug_04_1502	s	s	17	1	SIC	202	ABS	1	0	24MC	0	1	7.73921394348	None	None	None	None	1
1.7	2015_Aug_04_1502	s	s	17	1	SIC	203	RC	0	1	23RO	1	0	4.63697099686	269.0	-218.0	274	-219	1
1.7	2015_Aug_04_1502	s	s	17	1	SIC	204	RC	2	1	23VO	1	0	0.582383871078	-272.0	210.0	-268	200	1
1.7	2015_Aug_04_1502	s	s	17	1	SIC	205	ABS	2	2	24VD	0	1	1.35301995277	None	None	None	None	1
1.7	2015_Aug_04_1502	s	s	17	1	SIC	206	ABS	0	1	24RO	0	1	6.21420288086	None	None	None	None	1
1.7	2015_Aug_04_1502	s	s	17	1	SIC	207	RC	2	0	23VC	1	0	0.679764986038	-37.0	20.0	-37	29	1
1.7	2015_Aug_04_1502	s	s	17	1	SIC	208	ABS	0	2	24RD	0	1	1.3647351265	None	None	None	None	1
1.7	2015_Aug_04_1502	s	s	17	1	SIC	209	RC	2	1	23VO	1	0	0.562180995941	426.0	279.0	425	283	1
1.7	2015_Aug_04_1502	s	s	17	1	SIC	210	ABS	1	2	24MD	0	1	0.9713139534	None	None	None	None	1
1.7	2015_Aug_04_1502	s	s	17	1	SIC	211	RC	1	2	23MD	1	0	0.646794080734	-41.0	280.0	-38	279	1
1.7	2015_Aug_04_1502	s	s	17	1	SIC	212	RC	1	0	23MC	1	0	3.27899098396	407.0	379.0	412	373	1
1.7	2015_Aug_04_1502	s	s	17	1	SIC	213	RC	2	0	23VC	1	0	0.499809026718	245.0	185.0	246	176	1
1.7	2015_Aug_04_1502	s	s	17	1	SIC	214	RC	0	1	23RO	1	0	2.72519803047	467.0	-383.0	471	-387	1
1.7	2015_Aug_04_1502	s	s	17	1	SIC	215	ABS	1	0	24MC	0	1	4.27213716507	None	None	None	None	1
1.7	2015_Aug_04_1502	s	s	17	1	SIC	216	RC	0	2	23RD	1	0	0.964564085007	419.0	-117.0	414	-116	1
1.7	2015_Aug_04_1502	s	s	17	1	SIC	217	RC	1	1	23MO	1	0	1.56053805351	126.0	174.0	136	175	1
1.7	2015_Aug_04_1502	s	s	17	1	SIC	218	ABS	0	1	24RO	0	1	5.11511087418	None	None	None	None	1
1.7	2015_Aug_04_1502	s	s	17	1	SIC	219	RC	2	2	23VD	1	0	0.564414978027	-60.0	-47.0	-54	-46	1
1.7	2015_Aug_04_1502	s	s	17	1	SIC	220	ABS	0	2	24RD	0	1	1.47743391991	None	None	None	None	1
1.7	2015_Aug_04_1502	s	s	17	1	SIC	221	ABS	1	1	24MO	0	1	4.2485229969	None	None	None	None	1
1.7	2015_Aug_04_1502	s	s	17	1	SIC	222	ABS	2	2	24VD	0	1	0.587906122208	None	None	None	None	1
1.7	2015_Aug_04_1502	s	s	17	1	SIC	223	ABS	2	0	24VC	0	1	0.652803897858	None	None	None	None	1
1.7	2015_Aug_04_1502	s	s	17	1	SIC	224	ABS	2	1	24VO	0	1	0.540879964828	None	None	None	None	1
1.7	2015_Aug_04_1502	s	s	17	1	SIC	225	RC	0	2	23RD	1	0	0.677626132965	213.0	-292.0	219	-288	1
1.7	2015_Aug_04_1502	s	s	17	1	SIC	226	ABS	1	1	24MO	0	1	2.53683710098	None	None	None	None	1
1.7	2015_Aug_04_1502	s	s	17	1	SIC	227	ABS	1	0	24MC	1	0	3.26675200462	None	None	-116	404	0
1.7	2015_Aug_04_1502	s	s	17	1	SIC	228	RC	0	1	23RO	1	0	1.81897616386	-55.0	361.0	-52	360	1
1.7	2015_Aug_04_1502	s	s	17	1	SIC	229	RC	1	2	23MD	1	0	0.56432390213	307.0	60.0	311	59	1
1.7	2015_Aug_04_1502	s	s	17	1	SIC	230	RC	2	1	23VO	1	0	0.723537921906	-521.0	331.0	-515	336	1
1.7	2015_Aug_04_1502	s	s	17	1	SIC	231	ABS	2	0	24VC	0	1	0.632541894913	None	None	None	None	1
1.7	2015_Aug_04_1502	s	s	17	1	SIC	232	ABS	2	1	24VO	0	1	0.603324174881	None	None	None	None	1
1.7	2015_Aug_04_1502	s	s	17	1	SIC	233	ABS	1	2	24MD	0	1	0.823337078094	None	None	None	None	1
1.7	2015_Aug_04_1502	s	s	17	1	SIC	234	ABS	2	2	24VD	0	1	0.488746881485	None	None	None	None	1
1.7	2015_Aug_04_1502	s	s	17	1	SIC	235	RC	2	2	23VD	1	0	0.670701980591	-18.0	-70.0	-2	-60	1
1.7	2015_Aug_04_1502	s	s	17	1	SIC	236	ABS	0	1	24RO	0	1	9.69580888748	None	None	None	None	1
1.7	2015_Aug_04_1502	s	s	17	1	SIC	237	RC	1	1	23MO	1	0	8.70351219177	-58.0	343.0	-52	334	1
1.7	2015_Aug_04_1502	s	s	17	1	SIC	238	RC	2	0	23VC	1	0	0.5643658638	-262.0	154.0	-260	154	1
1.7	2015_Aug_04_1502	s	s	17	1	SIC	239	ABS	0	2	24RD	0	1	1.28909802437	None	None	None	None	1
1.7	2015_Aug_04_1502	s	s	17	1	SIC	240	RC	1	0	23MC	1	0	3.34222006798	-500.0	71.0	-509	67	1
1.7	2015_Aug_04_1502	s	s	17	1	SIC	241	ABS	2	1	24VO	0	1	0.999845981598	None	None	None	None	1
1.7	2015_Aug_04_1502	s	s	17	1	SIC	242	RC	1	2	23MD	1	0	0.571061134338	434.0	117.0	430	122	1
1.7	2015_Aug_04_1502	s	s	17	1	SIC	243	ABS	0	1	24RO	0	1	4.36293005943	None	None	None	None	1
1.7	2015_Aug_04_1502	s	s	17	1	SIC	244	RC	0	1	23RO	1	0	1.2116420269	518.0	23.0	517	13	1
1.7	2015_Aug_04_1502	s	s	17	1	SIC	245	RC	1	0	23MC	1	0	1.0519080162	360.0	15.0	363	16	1
1.7	2015_Aug_04_1502	s	s	17	1	SIC	246	ABS	1	1	24MO	0	1	3.96122503281	None	None	None	None	1
1.7	2015_Aug_04_1502	s	s	17	1	SIC	247	ABS	2	0	24VC	0	1	0.594663858414	None	None	None	None	1
1.7	2015_Aug_04_1502	s	s	17	1	SIC	248	ABS	1	0	24MC	0	1	6.37908291817	None	None	None	None	1
1.7	2015_Aug_04_1502	s	s	17	1	SIC	249	RC	2	0	23VC	1	0	0.547600030899	-493.0	330.0	-486	338	1
1.7	2015_Aug_04_1502	s	s	17	1	SIC	250	RC	1	1	23MO	1	0	1.12938380241	-430.0	-29.0	-435	-38	1
1.7	2015_Aug_04_1502	s	s	17	1	SIC	251	RC	0	2	23RD	1	0	0.700498104095	-91.0	311.0	-91	308	1
1.7	2015_Aug_04_1502	s	s	17	1	SIC	252	RC	2	1	23VO	1	0	0.611418962479	64.0	-130.0	71	-137	1
1.7	2015_Aug_04_1502	s	s	17	1	SIC	253	ABS	2	2	24VD	0	1	0.799723863602	None	None	None	None	1
1.7	2015_Aug_04_1502	s	s	17	1	SIC	254	RC	2	2	23VD	1	0	0.572680950165	-74.0	-224.0	-84	-217	1
1.7	2015_Aug_04_1502	s	s	17	1	SIC	255	ABS	1	2	24MD	0	1	0.665109157562	None	None	None	None	1
1.7	2015_Aug_04_1502	s	s	17	1	SIC	256	ABS	0	2	24RD	0	1	1.05348587036	None	None	None	None	1
1.7	2015_Aug_04_1502	s	s	17	1	SIC	257	RC	1	0	23MC	1	0	4.00755691528	-372.0	30.0	-375	31	1
1.7	2015_Aug_04_1502	s	s	17	1	SIC	258	RC	1	2	23MD	1	0	0.976402997971	-66.0	373.0	-57	373	1
1.7	2015_Aug_04_1502	s	s	17	1	SIC	259	ABS	1	2	24MD	0	1	1.47741103172	None	None	None	None	1
1.7	2015_Aug_04_1502	s	s	17	1	SIC	260	RC	0	1	23RO	1	0	4.1024210453	-415.0	-405.0	-420	-412	1
1.7	2015_Aug_04_1502	s	s	17	1	SIC	261	ABS	1	0	24MC	0	1	10.9310269356	None	None	None	None	1
1.7	2015_Aug_04_1502	s	s	17	1	SIC	262	ABS	0	1	24RO	0	1	8.38380789757	None	None	None	None	1
1.7	2015_Aug_04_1502	s	s	17	1	SIC	263	RC	0	2	23RD	1	0	0.952646970749	-217.0	205.0	-211	203	1
1.7	2015_Aug_04_1502	s	s	17	1	SIC	264	ABS	0	2	24RD	0	1	1.57655096054	None	None	None	None	1
1.7	2015_Aug_04_1502	s	s	17	1	SIC	265	ABS	1	1	24MO	0	1	5.50799202919	None	None	None	None	1
1.7	2015_Aug_04_1502	s	s	17	1	SIC	266	ABS	2	1	24VO	0	1	0.856145858765	None	None	None	None	1
1.7	2015_Aug_04_1502	s	s	17	1	SIC	267	ABS	2	0	24VC	0	1	0.587881088257	None	None	None	None	1
1.7	2015_Aug_04_1502	s	s	17	1	SIC	268	RC	2	0	23VC	1	0	0.900599956512	286.0	64.0	293	64	1
1.7	2015_Aug_04_1502	s	s	17	1	SIC	269	RC	2	2	23VD	1	0	1.835542202	335.0	395.0	335	399	1
1.7	2015_Aug_04_1502	s	s	17	1	SIC	270	RC	2	1	23VO	1	0	1.90622806549	-34.0	-54.0	-34	-54	1
1.7	2015_Aug_04_1502	s	s	17	1	SIC	271	ABS	2	2	24VD	0	1	0.797494888306	None	None	None	None	1
1.7	2015_Aug_04_1502	s	s	17	1	SIC	272	RC	1	1	23MO	1	0	2.05125689507	-201.0	-389.0	-198	-391	1
1.7	2015_Aug_04_1502	s	s	17	1	SIC	273	ABS	1	0	24MC	0	1	1.72965216637	None	None	None	None	1
1.7	2015_Aug_04_1502	s	s	17	1	SIC	274	RC	1	1	23MO	1	0	1.01163506508	247.0	-47.0	249	-50	1
1.7	2015_Aug_04_1502	s	s	17	1	SIC	275	ABS	2	1	24VO	0	1	0.84184885025	None	None	None	None	1
1.7	2015_Aug_04_1502	s	s	17	1	SIC	276	ABS	2	2	24VD	0	1	0.770853996277	None	None	None	None	1
1.7	2015_Aug_04_1502	s	s	17	1	SIC	277	RC	2	1	23VO	1	0	0.52908205986	-112.0	158.0	-118	158	1
1.7	2015_Aug_04_1502	s	s	17	1	SIC	278	ABS	1	1	24MO	0	1	4.60165119171	None	None	None	None	1
1.7	2015_Aug_04_1502	s	s	17	1	SIC	279	RC	2	0	23VC	1	0	0.912664890289	-43.0	292.0	-43	290	1
1.7	2015_Aug_04_1502	s	s	17	1	SIC	280	ABS	2	0	24VC	0	1	0.724943161011	None	None	None	None	1
1.7	2015_Aug_04_1502	s	s	17	1	SIC	281	RC	2	2	23VD	1	0	0.544691085815	186.0	237.0	185	225	1
1.7	2015_Aug_04_1502	s	s	17	1	SIC	282	RC	1	2	23MD	1	0	1.12932395935	-486.0	-16.0	-475	-10	1
1.7	2015_Aug_04_1502	s	s	17	1	SIC	283	ABS	0	2	24RD	0	1	1.43579697609	None	None	None	None	1
1.7	2015_Aug_04_1502	s	s	17	1	SIC	284	RC	0	2	23RD	1	0	0.71743106842	54.0	302.0	50	297	1
1.7	2015_Aug_04_1502	s	s	17	1	SIC	285	RC	0	1	23RO	1	0	3.03095197678	193.0	-202.0	195	-198	1
1.7	2015_Aug_04_1502	s	s	17	1	SIC	286	ABS	1	2	24MD	0	1	1.39999985695	None	None	None	None	1
1.7	2015_Aug_04_1502	s	s	17	1	SIC	287	RC	1	0	23MC	1	0	3.33052301407	-366.0	350.0	-362	349	1
1.7	2015_Aug_04_1502	s	s	17	1	SIC	288	ABS	0	1	24RO	0	1	13.3792200089	None	None	None	None	1
1.7	2015_Aug_04_1502	s	s	17	1	SIC	289	RC	2	1	23VO	1	0	0.61144900322	55.0	172.0	60	169	1
1.7	2015_Aug_04_1502	s	s	17	1	SIC	290	ABS	0	2	24RD	0	1	1.23253202438	None	None	None	None	1
1.7	2015_Aug_04_1502	s	s	17	1	SIC	291	RC	1	2	23MD	1	0	0.594789028168	230.0	196.0	222	202	1
1.7	2015_Aug_04_1502	s	s	17	1	SIC	292	ABS	0	1	24RO	0	1	4.99005293846	None	None	None	None	1
1.7	2015_Aug_04_1502	s	s	17	1	SIC	293	RC	2	2	23VD	1	0	0.535763978958	-263.0	107.0	-265	103	1
1.7	2015_Aug_04_1502	s	s	17	1	SIC	294	ABS	1	2	24MD	0	1	0.828591108322	None	None	None	None	1
1.7	2015_Aug_04_1502	s	s	17	1	SIC	295	RC	1	1	23MO	1	0	1.20614409447	-198.0	-42.0	-198	-46	1
1.7	2015_Aug_04_1502	s	s	17	1	SIC	296	ABS	1	1	24MO	0	1	3.5254919529	None	None	None	None	1
1.7	2015_Aug_04_1502	s	s	17	1	SIC	297	RC	0	2	23RD	1	0	0.972754001617	475.0	-224.0	479	-224	1
1.7	2015_Aug_04_1502	s	s	17	1	SIC	298	ABS	2	0	24VC	0	1	0.690411090851	None	None	None	None	1
1.7	2015_Aug_04_1502	s	s	17	1	SIC	299	ABS	1	0	24MC	0	1	3.51370096207	None	None	None	None	1
1.7	2015_Aug_04_1502	s	s	17	1	SIC	300	ABS	2	1	24VO	0	1	0.806819915771	None	None	None	None	1
1.7	2015_Aug_04_1502	s	s	17	1	SIC	301	RC	2	0	23VC	1	0	0.583370923996	158.0	368.0	159	371	1
1.7	2015_Aug_04_1502	s	s	17	1	SIC	302	ABS	2	2	24VD	0	1	0.559962034225	None	None	None	None	1
1.7	2015_Aug_04_1502	s	s	17	1	SIC	303	RC	0	1	23RO	1	0	4.57812595367	-317.0	139.0	-315	148	1
1.7	2015_Aug_04_1502	s	s	17	1	SIC	304	RC	1	0	23MC	0	1	1.99696397781	407.0	-285.0	None	None	0
1.7	2015_Aug_04_1502	s	s	17	1	SIC	305	ABS	2	1	24VO	0	1	0.6539478302	None	None	None	None	1
1.7	2015_Aug_04_1502	s	s	17	1	SIC	306	ABS	1	2	24MD	0	1	1.41187787056	None	None	None	None	1
1.7	2015_Aug_04_1502	s	s	17	1	SIC	307	RC	1	1	23MO	1	0	1.30115103722	64.0	335.0	70	327	1
1.7	2015_Aug_04_1502	s	s	17	1	SIC	308	RC	1	2	23MD	1	0	0.609174013138	-423.0	-103.0	-426	-111	1
1.7	2015_Aug_04_1502	s	s	17	1	SIC	309	ABS	0	1	24RO	0	1	4.07818889618	None	None	None	None	1
1.7	2015_Aug_04_1502	s	s	17	1	SIC	310	ABS	1	0	24MC	1	0	3.74240684509	None	None	-241	-236	0
1.7	2015_Aug_04_1502	s	s	17	1	SIC	311	RC	1	0	23MC	1	0	1.50606608391	-373.0	48.0	-370	52	1
1.7	2015_Aug_04_1502	s	s	17	1	SIC	312	ABS	2	2	24VD	0	1	0.599657058716	None	None	None	None	1
1.7	2015_Aug_04_1502	s	s	17	1	SIC	313	RC	2	0	23VC	1	0	0.606099843979	394.0	337.0	391	329	1
1.7	2015_Aug_04_1502	s	s	17	1	SIC	314	RC	2	2	23VD	1	0	0.552582979202	-109.0	285.0	-107	284	1
1.7	2015_Aug_04_1502	s	s	17	1	SIC	315	RC	0	1	23RO	0	1	6.04952597618	12.0	118.0	None	None	0
1.7	2015_Aug_04_1502	s	s	17	1	SIC	316	RC	0	2	23RD	1	0	0.564357995987	59.0	138.0	63	130	1
1.7	2015_Aug_04_1502	s	s	17	1	SIC	317	RC	2	1	23VO	1	0	0.453361034393	41.0	230.0	44	229	1
1.7	2015_Aug_04_1502	s	s	17	1	SIC	318	ABS	2	0	24VC	0	1	0.733179092407	None	None	None	None	1
1.7	2015_Aug_04_1502	s	s	17	1	SIC	319	ABS	0	2	24RD	0	1	0.853590965271	None	None	None	None	1
1.7	2015_Aug_04_1502	s	s	17	1	SIC	320	ABS	1	1	24MO	0	1	3.5657749176	None	None	None	None	1
1.7	2015_Aug_04_1502	s	s	17	1	SIC	321	ABS	0	2	24RD	0	1	0.900789022446	None	None	None	None	1
1.7	2015_Aug_04_1502	s	s	17	1	SIC	322	ABS	2	2	24VD	0	1	0.535722017288	None	None	None	None	1
1.7	2015_Aug_04_1502	s	s	17	1	SIC	323	ABS	2	0	24VC	0	1	0.724241018295	None	None	None	None	1
1.7	2015_Aug_04_1502	s	s	17	1	SIC	324	RC	2	1	23VO	1	0	0.493603944778	490.0	-206.0	489	-213	1
1.7	2015_Aug_04_1502	s	s	17	1	SIC	325	RC	0	1	23RO	0	1	5.63507199287	-328.0	41.0	None	None	0
1.7	2015_Aug_04_1502	s	s	17	1	SIC	326	RC	2	2	23VD	1	0	0.500987052917	25.0	69.0	24	66	1
1.7	2015_Aug_04_1502	s	s	17	1	SIC	327	RC	1	2	23MD	1	0	0.611428976059	-15.0	318.0	-20	322	1
1.7	2015_Aug_04_1502	s	s	17	1	SIC	328	ABS	1	2	24MD	0	1	1.070510149	None	None	None	None	1
1.7	2015_Aug_04_1502	s	s	17	1	SIC	329	ABS	0	1	24RO	0	1	6.79688000679	None	None	None	None	1
1.7	2015_Aug_04_1502	s	s	17	1	SIC	330	RC	1	0	23MC	0	1	4.30741405487	262.0	-210.0	None	None	0
1.7	2015_Aug_04_1502	s	s	17	1	SIC	331	RC	2	0	23VC	1	0	0.597086906433	497.0	-368.0	487	-368	1
1.7	2015_Aug_04_1502	s	s	17	1	SIC	332	ABS	2	1	24VO	0	1	1.03507614136	None	None	None	None	1
1.7	2015_Aug_04_1502	s	s	17	1	SIC	333	ABS	1	1	24MO	0	1	6.15537810326	None	None	None	None	1
1.7	2015_Aug_04_1502	s	s	17	1	SIC	334	ABS	1	0	24MC	1	0	4.32607388496	None	None	-487	-255	0
1.7	2015_Aug_04_1502	s	s	17	1	SIC	335	RC	1	1	23MO	1	0	1.60016608238	357.0	239.0	359	237	1
1.7	2015_Aug_04_1502	s	s	17	1	SIC	336	RC	0	2	23RD	1	0	0.749718904495	264.0	-392.0	269	-390	1
1.7	2015_Aug_04_1502	s	s	17	1	SIC	337	RC	0	1	23RO	0	1	4.83687710762	220.0	-238.0	None	None	0
1.7	2015_Aug_04_1502	s	s	17	1	SIC	338	RC	0	2	23RD	1	0	0.646725177765	-189.0	-334.0	-184	-330	1
1.7	2015_Aug_04_1502	s	s	17	1	SIC	339	RC	1	1	23MO	1	0	1.16467380524	-418.0	161.0	-413	154	1
1.7	2015_Aug_04_1502	s	s	17	1	SIC	340	RC	2	0	23VC	1	0	0.438700914383	17.0	-38.0	27	-32	1
1.7	2015_Aug_04_1502	s	s	17	1	SIC	341	RC	1	2	23MD	1	0	0.526540994644	196.0	-378.0	196	-384	1
1.7	2015_Aug_04_1502	s	s	17	1	SIC	342	RC	2	2	23VD	1	0	0.453366994858	-230.0	177.0	-219	177	1
1.7	2015_Aug_04_1502	s	s	17	1	SIC	343	ABS	2	0	24VC	0	1	0.50549697876	None	None	None	None	1
1.7	2015_Aug_04_1502	s	s	17	1	SIC	344	RC	2	1	23VO	1	0	0.5855281353	-17.0	361.0	-18	358	1
1.7	2015_Aug_04_1502	s	s	17	1	SIC	345	ABS	0	2	24RD	0	1	0.834992170334	None	None	None	None	1
1.7	2015_Aug_04_1502	s	s	17	1	SIC	346	ABS	1	2	24MD	0	1	0.877279043198	None	None	None	None	1
1.7	2015_Aug_04_1502	s	s	17	1	SIC	347	ABS	1	0	24MC	0	1	2.61849689484	None	None	None	None	1
1.7	2015_Aug_04_1502	s	s	17	1	SIC	348	ABS	2	2	24VD	0	1	0.606352806091	None	None	None	None	1
1.7	2015_Aug_04_1502	s	s	17	1	SIC	349	ABS	2	1	24VO	0	1	0.517692089081	None	None	None	None	1
1.7	2015_Aug_04_1502	s	s	17	1	SIC	350	RC	1	0	23MC	0	1	2.41235494614	452.0	-263.0	None	None	0
1.7	2015_Aug_04_1502	s	s	17	1	SIC	351	ABS	1	1	24MO	0	1	4.28383016586	None	None	None	None	1
1.7	2015_Aug_04_1502	s	s	17	1	SIC	352	ABS	0	1	24RO	0	1	4.33097910881	None	None	None	None	1
1.7	2015_Aug_04_1502	s	s	17	1	SIC	353	ABS	1	1	24MO	0	1	4.21319508553	None	None	None	None	1
1.7	2015_Aug_04_1502	s	s	17	1	SIC	354	ABS	1	2	24MD	0	1	1.03520298004	None	None	None	None	1
1.7	2015_Aug_04_1502	s	s	17	1	SIC	355	RC	1	2	23MD	1	0	0.81157207489	267.0	27.0	257	25	1
1.7	2015_Aug_04_1502	s	s	17	1	SIC	356	ABS	2	1	24VO	0	1	0.677087068558	None	None	None	None	1
1.7	2015_Aug_04_1502	s	s	17	1	SIC	357	RC	0	1	23RO	0	1	4.37261295319	537.0	23.0	None	None	0
1.7	2015_Aug_04_1502	s	s	17	1	SIC	358	RC	1	1	23MO	1	0	1.50026607513	-266.0	227.0	-267	226	1
1.7	2015_Aug_04_1502	s	s	17	1	SIC	359	ABS	1	0	24MC	1	0	2.07777118683	None	None	-59	44	0
1.7	2015_Aug_04_1502	s	s	17	1	SIC	360	ABS	0	1	24RO	0	1	4.76650500298	None	None	None	None	1
1.7	2015_Aug_04_1502	s	s	17	1	SIC	361	RC	1	0	23MC	1	0	1.00370001793	-392.0	196.0	-400	198	1
1.7	2015_Aug_04_1502	s	s	17	1	SIC	362	RC	2	2	23VD	1	0	0.65847992897	-269.0	196.0	-261	194	1
1.7	2015_Aug_04_1502	s	s	17	1	SIC	363	ABS	2	0	24VC	0	1	0.752621889114	None	None	None	None	1
1.7	2015_Aug_04_1502	s	s	17	1	SIC	364	ABS	0	2	24RD	0	1	1.07615303993	None	None	None	None	1
1.7	2015_Aug_04_1502	s	s	17	1	SIC	365	RC	2	1	23VO	1	0	0.505419969559	73.0	20.0	70	18	1
1.7	2015_Aug_04_1502	s	s	17	1	SIC	366	RC	0	2	23RD	1	0	0.481963157654	69.0	-16.0	63	-19	1
1.7	2015_Aug_04_1502	s	s	17	1	SIC	367	RC	2	0	23VC	1	0	0.453705072403	477.0	161.0	480	161	1
1.7	2015_Aug_04_1502	s	s	17	1	SIC	368	ABS	2	2	24VD	0	1	0.631510019302	None	None	None	None	1
1.7	2015_Aug_04_1502	s	s	17	1	SIC	369	ABS	1	2	24MD	0	1	0.653547048569	None	None	None	None	1
1.7	2015_Aug_04_1502	s	s	17	1	SIC	370	ABS	0	1	24RO	0	1	4.50796890259	None	None	None	None	1
1.7	2015_Aug_04_1502	s	s	17	1	SIC	371	RC	1	1	23MO	1	0	1.83065891266	-43.0	-22.0	-37	-17	1
1.7	2015_Aug_04_1502	s	s	17	1	SIC	372	RC	2	1	23VO	1	0	0.481966018677	-64.0	93.0	-60	82	1
1.7	2015_Aug_04_1502	s	s	17	1	SIC	373	ABS	2	1	24VO	0	1	0.611521959305	None	None	None	None	1
1.7	2015_Aug_04_1502	s	s	17	1	SIC	374	ABS	2	2	24VD	0	1	2.12977600098	None	None	None	None	1
1.7	2015_Aug_04_1502	s	s	17	1	SIC	375	RC	1	2	23MD	1	0	0.705678939819	56.0	391.0	60	385	1
1.7	2015_Aug_04_1502	s	s	17	1	SIC	376	ABS	0	2	24RD	0	1	1.49423098564	None	None	None	None	1
1.7	2015_Aug_04_1502	s	s	17	1	SIC	377	RC	0	1	23RO	1	0	2.12980723381	90.0	-15.0	90	-23	1
1.7	2015_Aug_04_1502	s	s	17	1	SIC	378	ABS	1	0	24MC	0	1	1.88926506042	None	None	None	None	1
1.7	2015_Aug_04_1502	s	s	17	1	SIC	379	RC	1	0	23MC	0	1	2.21924996376	-24.0	204.0	None	None	0
1.7	2015_Aug_04_1502	s	s	17	1	SIC	380	ABS	1	1	24MO	0	1	3.64348602295	None	None	None	None	1
1.7	2015_Aug_04_1502	s	s	17	1	SIC	381	ABS	2	0	24VC	0	1	0.66791009903	None	None	None	None	1
1.7	2015_Aug_04_1502	s	s	17	1	SIC	382	RC	2	0	23VC	1	0	0.59968996048	259.0	-208.0	259	-204	1
1.7	2015_Aug_04_1502	s	s	17	1	SIC	383	RC	2	2	23VD	1	0	0.488651037216	378.0	5.0	387	4	1
1.7	2015_Aug_04_1502	s	s	17	1	SIC	384	RC	0	2	23RD	1	0	0.724398136139	522.0	273.0	529	267	1
1.7	2015_Aug_04_1502	s	s	17	1	SIC	385	RC	1	0	23MC	1	0	3.809445858	264.0	-175.0	270	-179	1
1.7	2015_Aug_04_1502	s	s	17	1	SIC	386	ABS	0	1	24RO	0	1	4.50249791145	None	None	None	None	1
1.7	2015_Aug_04_1502	s	s	17	1	SIC	387	ABS	1	1	24MO	0	1	4.26927399635	None	None	None	None	1
1.7	2015_Aug_04_1502	s	s	17	1	SIC	388	RC	2	1	23VO	1	0	0.623169898987	-209.0	392.0	-203	392	1
1.7	2015_Aug_04_1502	s	s	17	1	SIC	389	RC	1	2	23MD	1	0	0.799767971039	110.0	-186.0	122	-185	1
1.7	2015_Aug_04_1502	s	s	17	1	SIC	390	ABS	0	2	24RD	0	1	1.50096297264	None	None	None	None	1
1.7	2015_Aug_04_1502	s	s	17	1	SIC	391	RC	0	2	23RD	1	0	0.666311979294	476.0	76.0	476	73	1
1.7	2015_Aug_04_1502	s	s	17	1	SIC	392	ABS	1	2	24MD	0	1	1.14114689827	None	None	None	None	1
1.7	2015_Aug_04_1502	s	s	17	1	SIC	393	ABS	2	2	24VD	0	1	0.540827989578	None	None	None	None	1
1.7	2015_Aug_04_1502	s	s	17	1	SIC	394	RC	0	1	23RO	1	0	3.94298696518	239.0	337.0	238	319	1
1.7	2015_Aug_04_1502	s	s	17	1	SIC	395	RC	2	2	23VD	1	0	0.583699941635	210.0	-52.0	203	-51	1
1.7	2015_Aug_04_1502	s	s	17	1	SIC	396	ABS	2	0	24VC	0	1	0.587882995605	None	None	None	None	1
1.7	2015_Aug_04_1502	s	s	17	1	SIC	397	ABS	1	0	24MC	0	1	1.21171498299	None	None	None	None	1
1.7	2015_Aug_04_1502	s	s	17	1	SIC	398	ABS	2	1	24VO	0	1	0.505935907364	None	None	None	None	1
1.7	2015_Aug_04_1502	s	s	17	1	SIC	399	RC	1	1	23MO	1	0	2.24271297455	111.0	-319.0	112	-330	1
1.7	2015_Aug_04_1502	s	s	17	1	SIC	400	RC	2	0	23VC	1	0	0.52898311615	134.0	-227.0	130	-239	1
1.7	2015_Aug_04_1502	s	s	17	1	SIC	401	ABS	2	1	24VO	0	1	0.540741920471	None	None	None	None	1
1.7	2015_Aug_04_1502	s	s	17	1	SIC	402	RC	1	1	23MO	1	0	1.48230004311	-462.0	-340.0	-464	-341	1
1.7	2015_Aug_04_1502	s	s	17	1	SIC	403	RC	2	1	23VO	1	0	0.538594007492	-192.0	148.0	-182	152	1
1.7	2015_Aug_04_1502	s	s	17	1	SIC	404	RC	0	1	23RO	1	0	2.50171709061	356.0	-302.0	362	-303	1
1.7	2015_Aug_04_1502	s	s	17	1	SIC	405	RC	0	2	23RD	1	0	0.529049873352	-230.0	91.0	-230	78	1
1.7	2015_Aug_04_1502	s	s	17	1	SIC	406	RC	2	0	23VC	1	0	0.561716079712	433.0	-384.0	430	-382	1
1.7	2015_Aug_04_1502	s	s	17	1	SIC	407	RC	2	2	23VD	1	0	0.42965388298	-185.0	50.0	-186	58	1
1.7	2015_Aug_04_1502	s	s	17	1	SIC	408	ABS	0	1	24RO	0	1	4.76124501228	None	None	None	None	1
1.7	2015_Aug_04_1502	s	s	17	1	SIC	409	ABS	1	0	24MC	0	1	1.3951830864	None	None	None	None	1
1.7	2015_Aug_04_1502	s	s	17	1	SIC	410	RC	1	2	23MD	1	0	0.618189811707	410.0	-89.0	408	-104	1
1.7	2015_Aug_04_1502	s	s	17	1	SIC	411	ABS	2	0	24VC	0	1	0.688902854919	None	None	None	None	1
1.7	2015_Aug_04_1502	s	s	17	1	SIC	412	RC	1	0	23MC	1	0	2.05923199654	-78.0	79.0	-74	76	1
1.7	2015_Aug_04_1502	s	s	17	1	SIC	413	ABS	2	2	24VD	0	1	0.481937885284	None	None	None	None	1
1.7	2015_Aug_04_1502	s	s	17	1	SIC	414	ABS	0	2	24RD	0	1	1.36014914513	None	None	None	None	1
1.7	2015_Aug_04_1502	s	s	17	1	SIC	415	ABS	1	1	24MO	0	1	3.70196795464	None	None	None	None	1
1.7	2015_Aug_04_1502	s	s	17	1	SIC	416	ABS	1	2	24MD	0	1	0.656253099442	None	None	None	None	1
1.7	2015_Aug_04_1502	s	s	17	1	SIC	417	RC	2	2	23VD	1	0	0.559362888336	-469.0	302.0	-476	295	1
1.7	2015_Aug_04_1502	s	s	17	1	SIC	418	ABS	1	2	24MD	0	1	0.940978050232	None	None	None	None	1
1.7	2015_Aug_04_1502	s	s	17	1	SIC	419	ABS	2	0	24VC	0	1	0.560128211975	None	None	None	None	1
1.7	2015_Aug_04_1502	s	s	17	1	SIC	420	RC	0	2	23RD	1	0	0.618265867233	378.0	-306.0	370	-311	1
1.7	2015_Aug_04_1502	s	s	17	1	SIC	421	RC	1	1	23MO	1	0	1.03021788597	2.0	209.0	-13	215	1
1.7	2015_Aug_04_1502	s	s	17	1	SIC	422	RC	1	2	23MD	1	0	0.658460140228	-531.0	-304.0	-534	-300	1
1.7	2015_Aug_04_1502	s	s	17	1	SIC	423	RC	0	1	23RO	0	1	4.49575018883	-170.0	331.0	None	None	0
1.7	2015_Aug_04_1502	s	s	17	1	SIC	424	RC	1	0	23MC	1	0	1.8944580555	92.0	392.0	85	395	1
1.7	2015_Aug_04_1502	s	s	17	1	SIC	425	RC	2	1	23VO	1	0	0.564660072327	-100.0	-390.0	-100	-395	1
1.7	2015_Aug_04_1502	s	s	17	1	SIC	426	ABS	1	1	24MO	0	1	4.29554915428	None	None	None	None	1
1.7	2015_Aug_04_1502	s	s	17	1	SIC	427	ABS	0	2	24RD	0	1	1.32944989204	None	None	None	None	1
1.7	2015_Aug_04_1502	s	s	17	1	SIC	428	ABS	2	2	24VD	0	1	0.523308038712	None	None	None	None	1
1.7	2015_Aug_04_1502	s	s	17	1	SIC	429	RC	2	0	23VC	1	0	0.571265935898	336.0	-92.0	326	-94	1
1.7	2015_Aug_04_1502	s	s	17	1	SIC	430	ABS	1	0	24MC	0	1	3.36571788788	None	None	None	None	1
1.7	2015_Aug_04_1502	s	s	17	1	SIC	431	ABS	0	1	24RO	0	1	4.45529198647	None	None	None	None	1
1.7	2015_Aug_04_1502	s	s	17	1	SIC	432	ABS	2	1	24VO	0	1	0.529039144516	None	None	None	None	1
1.7	2015_Aug_04_1502	s	s	17	1	SIC	433	ABS	2	1	24VO	0	1	0.417670965195	None	None	None	None	1
1.7	2015_Aug_04_1502	s	s	17	1	SIC	434	RC	0	2	23RD	1	0	0.749382019043	-150.0	377.0	-150	377	1
1.7	2015_Aug_04_1502	s	s	17	1	SIC	435	ABS	1	0	24MC	0	1	3.76634287834	None	None	None	None	1
1.7	2015_Aug_04_1502	s	s	17	1	SIC	436	ABS	1	1	24MO	0	1	5.34317016602	None	None	None	None	1
1.7	2015_Aug_04_1502	s	s	17	1	SIC	437	ABS	1	2	24MD	0	1	1.13626909256	None	None	None	None	1
1.7	2015_Aug_04_1502	s	s	17	1	SIC	438	RC	0	1	23RO	0	1	7.18613696098	441.0	-141.0	None	None	0
1.7	2015_Aug_04_1502	s	s	17	1	SIC	439	ABS	2	0	24VC	0	1	0.511349916458	None	None	None	None	1
1.7	2015_Aug_04_1502	s	s	17	1	SIC	440	ABS	2	2	24VD	0	1	0.505515813828	None	None	None	None	1
1.7	2015_Aug_04_1502	s	s	17	1	SIC	441	RC	1	1	23MO	1	0	2.55027604103	325.0	7.0	316	6	1
1.7	2015_Aug_04_1502	s	s	17	1	SIC	442	RC	1	2	23MD	1	0	0.729120016098	208.0	-209.0	211	-207	1
1.7	2015_Aug_04_1502	s	s	17	1	SIC	443	ABS	0	2	24RD	0	1	0.658564090729	None	None	None	None	1
1.7	2015_Aug_04_1502	s	s	17	1	SIC	444	RC	2	0	23VC	1	0	0.523689985275	-412.0	-10.0	-418	-16	1
1.7	2015_Aug_04_1502	s	s	17	1	SIC	445	RC	1	0	23MC	1	0	1.74636983871	-301.0	-105.0	390	21	0
1.7	2015_Aug_04_1502	s	s	17	1	SIC	446	ABS	0	1	24RO	0	1	2.57757091522	None	None	None	None	1
1.7	2015_Aug_04_1502	s	s	17	1	SIC	447	RC	2	1	23VO	0	1	0.540811061859	168.0	-251.0	None	None	0
1.7	2015_Aug_04_1502	s	s	17	1	SIC	448	RC	2	2	23VD	1	0	0.700731992722	-528.0	-39.0	-521	-45	1
1.7	2015_Aug_04_1502	s	s	17	1	SIC	449	RC	0	1	23RO	0	1	3.87186598778	281.0	-339.0	None	None	0
1.7	2015_Aug_04_1502	s	s	17	1	SIC	450	ABS	0	2	24RD	0	1	1.03043317795	None	None	None	None	1
1.7	2015_Aug_04_1502	s	s	17	1	SIC	451	ABS	1	2	24MD	0	1	0.58790397644	None	None	None	None	1
1.7	2015_Aug_04_1502	s	s	17	1	SIC	452	RC	2	0	23VC	1	0	0.50549697876	-312.0	277.0	-308	278	1
1.7	2015_Aug_04_1502	s	s	17	1	SIC	453	RC	2	1	23VO	1	0	1.03512001038	473.0	330.0	476	334	1
1.7	2015_Aug_04_1502	s	s	17	1	SIC	454	ABS	1	1	24MO	0	1	3.1608440876	None	None	None	None	1
1.7	2015_Aug_04_1502	s	s	17	1	SIC	455	ABS	2	0	24VC	0	1	0.973716020584	None	None	None	None	1
1.7	2015_Aug_04_1502	s	s	17	1	SIC	456	ABS	2	1	24VO	0	1	0.858646869659	None	None	None	None	1
1.7	2015_Aug_04_1502	s	s	17	1	SIC	457	RC	1	1	23MO	1	0	1.07983088493	519.0	313.0	519	308	1
1.7	2015_Aug_04_1502	s	s	17	1	SIC	458	RC	1	2	23MD	1	0	0.923905134201	338.0	-318.0	338	-321	1
1.7	2015_Aug_04_1502	s	s	17	1	SIC	459	ABS	1	0	24MC	0	1	3.43157911301	None	None	None	None	1
1.7	2015_Aug_04_1502	s	s	17	1	SIC	460	ABS	2	2	24VD	0	1	0.68199300766	None	None	None	None	1
1.7	2015_Aug_04_1502	s	s	17	1	SIC	461	RC	1	0	23MC	1	0	1.64257693291	8.0	51.0	13	51	1
1.7	2015_Aug_04_1502	s	s	17	1	SIC	462	RC	0	2	23RD	1	0	0.540778875351	184.0	-19.0	183	-20	1
1.7	2015_Aug_04_1502	s	s	17	1	SIC	463	ABS	0	1	24RO	0	1	5.82074308395	None	None	None	None	1
1.7	2015_Aug_04_1502	s	s	17	1	SIC	464	RC	2	2	23VD	1	0	0.606557846069	-403.0	407.0	-405	404	1
1.7	2015_Aug_04_1502	s	s	17	1	SIC	465	RC	2	1	23VO	1	0	0.470242977142	-60.0	-80.0	-61	-82	1
1.7	2015_Aug_04_1502	s	s	17	1	SIC	466	RC	2	0	23VC	1	0	0.446542024612	126.0	53.0	119	56	1
1.7	2015_Aug_04_1502	s	s	17	1	SIC	467	RC	2	2	23VD	1	0	0.432369947433	-299.0	-104.0	-300	-112	1
1.7	2015_Aug_04_1502	s	s	17	1	SIC	468	ABS	0	1	24RO	0	1	5.46709084511	None	None	None	None	1
1.7	2015_Aug_04_1502	s	s	17	1	SIC	469	RC	1	0	23MC	1	0	1.314909935	-436.0	260.0	-438	260	1
1.7	2015_Aug_04_1502	s	s	17	1	SIC	470	ABS	1	1	24MO	0	1	5.29244589806	None	None	None	None	1
1.7	2015_Aug_04_1502	s	s	17	1	SIC	471	ABS	2	1	24VO	0	1	1.3831820488	None	None	None	None	1
1.7	2015_Aug_04_1502	s	s	17	1	SIC	472	ABS	2	2	24VD	0	1	0.905875921249	None	None	None	None	1
1.7	2015_Aug_04_1502	s	s	17	1	SIC	473	ABS	2	0	24VC	0	1	1.31754517555	None	None	None	None	1
1.7	2015_Aug_04_1502	s	s	17	1	SIC	474	ABS	0	2	24RD	0	1	1.30585598946	None	None	None	None	1
1.7	2015_Aug_04_1502	s	s	17	1	SIC	475	ABS	1	2	24MD	0	1	2.91845607758	None	None	None	None	1
1.7	2015_Aug_04_1502	s	s	17	1	SIC	476	RC	0	2	23RD	1	0	0.705594062805	-486.0	247.0	-480	244	1
1.7	2015_Aug_04_1502	s	s	17	1	SIC	477	RC	1	1	23MO	0	1	4.96315002441	73.0	-141.0	None	None	0
1.7	2015_Aug_04_1502	s	s	17	1	SIC	478	RC	1	2	23MD	1	0	0.609350919724	-57.0	-64.0	-53	-60	1
1.7	2015_Aug_04_1502	s	s	17	1	SIC	479	ABS	1	0	24MC	0	1	2.41936683655	None	None	None	None	1
1.7	2015_Aug_04_1502	s	s	17	1	SIC	480	RC	0	1	23RO	1	0	4.02240490913	387.0	-240.0	385	-240	1
1.7	2015_Aug_04_1502	s	s	17	1	SIC	481	RC	1	1	23MO	1	0	1.00675702095	341.0	80.0	341	78	1
1.7	2015_Aug_04_1502	s	s	17	1	SIC	482	RC	0	1	23RO	1	0	5.44918990135	299.0	286.0	298	277	1
1.7	2015_Aug_04_1502	s	s	17	1	SIC	483	ABS	1	1	24MO	0	1	4.35457205772	None	None	None	None	1
1.7	2015_Aug_04_1502	s	s	17	1	SIC	484	ABS	0	2	24RD	0	1	0.764423131943	None	None	None	None	1
1.7	2015_Aug_04_1502	s	s	17	1	SIC	485	RC	2	0	23VC	1	0	0.596426010132	-274.0	399.0	-268	408	1
1.7	2015_Aug_04_1502	s	s	17	1	SIC	486	ABS	1	0	24MC	0	1	1.50106501579	None	None	None	None	1
1.7	2015_Aug_04_1502	s	s	17	1	SIC	487	RC	1	0	23MC	1	0	1.36070513725	-131.0	-71.0	-396	375	0
1.7	2015_Aug_04_1502	s	s	17	1	SIC	488	RC	0	2	23RD	1	0	0.900679111481	355.0	-362.0	362	-361	1
1.7	2015_Aug_04_1502	s	s	17	1	SIC	489	RC	2	1	23VO	1	0	0.454669952393	434.0	76.0	440	74	1
1.7	2015_Aug_04_1502	s	s	17	1	SIC	490	ABS	2	0	24VC	0	1	0.632230997086	None	None	None	None	1
1.7	2015_Aug_04_1502	s	s	17	1	SIC	491	RC	1	2	23MD	1	0	0.6442258358	-108.0	-198.0	-111	-206	1
1.7	2015_Aug_04_1502	s	s	17	1	SIC	492	ABS	0	1	24RO	0	1	4.09550094604	None	None	None	None	1
1.7	2015_Aug_04_1502	s	s	17	1	SIC	493	ABS	2	2	24VD	0	1	0.552634954453	None	None	None	None	1
1.7	2015_Aug_04_1502	s	s	17	1	SIC	494	RC	2	2	23VD	1	0	1.13648605347	36.0	-224.0	46	-225	1
1.7	2015_Aug_04_1502	s	s	17	1	SIC	495	ABS	2	1	24VO	0	1	0.611371040344	None	None	None	None	1
1.7	2015_Aug_04_1502	s	s	17	1	SIC	496	ABS	1	2	24MD	0	1	1.22342610359	None	None	None	None	1
1.7	2015_Aug_04_1502	s	s	17	1	SIC	497	RC	0	1	23RO	1	0	1.25867891312	33.0	98.0	36	87	1
1.7	2015_Aug_04_1502	s	s	17	1	SIC	498	ABS	1	0	24MC	0	1	2.7419090271	None	None	None	None	1
1.7	2015_Aug_04_1502	s	s	17	1	SIC	499	ABS	1	1	24MO	0	1	4.6369240284	None	None	None	None	1
1.7	2015_Aug_04_1502	s	s	17	1	SIC	500	RC	2	2	23VD	1	0	1.45387792587	139.0	-305.0	140	-311	1
1.7	2015_Aug_04_1502	s	s	17	1	SIC	501	ABS	0	1	24RO	0	1	5.37358403206	None	None	None	None	1
1.7	2015_Aug_04_1502	s	s	17	1	SIC	502	ABS	0	2	24RD	0	1	1.43533396721	None	None	None	None	1
1.7	2015_Aug_04_1502	s	s	17	1	SIC	503	RC	2	1	23VO	1	0	0.544610023499	-108.0	-376.0	-105	-376	1
1.7	2015_Aug_04_1502	s	s	17	1	SIC	504	RC	0	2	23RD	1	0	0.658511161804	-492.0	-206.0	-496	-205	1
1.7	2015_Aug_04_1502	s	s	17	1	SIC	505	ABS	2	0	24VC	0	1	0.632514953613	None	None	None	None	1
1.7	2015_Aug_04_1502	s	s	17	1	SIC	506	ABS	1	2	24MD	0	1	0.7645008564	None	None	None	None	1
1.7	2015_Aug_04_1502	s	s	17	1	SIC	507	ABS	2	1	24VO	0	1	1.45660114288	None	None	None	None	1
1.7	2015_Aug_04_1502	s	s	17	1	SIC	508	RC	1	2	23MD	1	0	0.806612968445	-391.0	294.0	-382	292	1
1.7	2015_Aug_04_1502	s	s	17	1	SIC	509	RC	2	0	23VC	1	0	0.714957952499	-26.0	-332.0	-31	-326	1
1.7	2015_Aug_04_1502	s	s	17	1	SIC	510	RC	1	0	23MC	1	0	1.71228718758	-173.0	104.0	-169	103	1
1.7	2015_Aug_04_1502	s	s	17	1	SIC	511	ABS	2	2	24VD	0	1	0.517210006714	None	None	None	None	1
1.7	2015_Aug_04_1502	s	s	17	1	SIC	512	RC	1	1	23MO	1	0	2.51372599602	-220.0	-291.0	-207	-284	1
1.7	2015_Aug_04_1502	s	s	17	1	SIC	513	RC	2	2	23VD	1	0	0.617820978165	-521.0	-158.0	-517	-158	1
1.7	2015_Aug_04_1502	s	s	17	1	SIC	514	ABS	2	1	24VO	0	1	0.670335054398	None	None	None	None	1
1.7	2015_Aug_04_1502	s	s	17	1	SIC	515	ABS	2	0	24VC	0	1	1.17428088188	None	None	None	None	1
1.7	2015_Aug_04_1502	s	s	17	1	SIC	516	RC	0	2	23RD	1	0	0.799720048904	233.0	67.0	236	67	1
1.7	2015_Aug_04_1502	s	s	17	1	SIC	517	RC	0	1	23RO	0	1	4.96154618263	-482.0	-386.0	None	None	0
1.7	2015_Aug_04_1502	s	s	17	1	SIC	518	ABS	0	2	24RD	0	1	0.985614061356	None	None	None	None	1
1.7	2015_Aug_04_1502	s	s	17	1	SIC	519	RC	1	0	23MC	1	0	1.69434905052	-86.0	-39.0	-77	-41	1
1.7	2015_Aug_04_1502	s	s	17	1	SIC	520	ABS	1	1	24MO	0	1	4.79696297646	None	None	None	None	1
1.7	2015_Aug_04_1502	s	s	17	1	SIC	521	ABS	0	1	24RO	0	1	2.74841094017	None	None	None	None	1
1.7	2015_Aug_04_1502	s	s	17	1	SIC	522	RC	1	2	23MD	1	0	0.646768093109	-221.0	-98.0	-216	-89	1
1.7	2015_Aug_04_1502	s	s	17	1	SIC	523	ABS	1	0	24MC	0	1	1.83232212067	None	None	None	None	1
1.7	2015_Aug_04_1502	s	s	17	1	SIC	524	ABS	1	2	24MD	0	1	1.04098892212	None	None	None	None	1
1.7	2015_Aug_04_1502	s	s	17	1	SIC	525	RC	2	1	23VO	1	0	0.564424037933	-46.0	-287.0	-48	-292	1
1.7	2015_Aug_04_1502	s	s	17	1	SIC	526	ABS	2	2	24VD	0	1	0.558613061905	None	None	None	None	1
1.7	2015_Aug_04_1502	s	s	17	1	SIC	527	RC	2	0	23VC	1	0	0.912602901459	124.0	300.0	132	295	1
1.7	2015_Aug_04_1502	s	s	17	1	SIC	528	RC	1	1	23MO	1	0	1.50596904755	42.0	74.0	39	70	1
1.7	2015_Aug_04_1502	s	s	17	1	SIC	529	RC	1	2	23MD	1	0	1.24224209785	328.0	295.0	322	286	1
1.7	2015_Aug_04_1502	s	s	17	1	SIC	530	ABS	1	0	24MC	0	1	1.35303783417	None	None	None	None	1
1.7	2015_Aug_04_1502	s	s	17	1	SIC	531	RC	2	1	23VO	1	0	0.788027048111	275.0	9.0	275	-7	1
1.7	2015_Aug_04_1502	s	s	17	1	SIC	532	ABS	1	1	24MO	0	1	4.21360015869	None	None	None	None	1
1.7	2015_Aug_04_1502	s	s	17	1	SIC	533	ABS	0	1	24RO	0	1	7.32749915123	None	None	None	None	1
1.7	2015_Aug_04_1502	s	s	17	1	SIC	534	ABS	2	2	24VD	0	1	0.587893009186	None	None	None	None	1
1.7	2015_Aug_04_1502	s	s	17	1	SIC	535	ABS	2	1	24VO	0	1	0.490076065063	None	None	None	None	1
1.7	2015_Aug_04_1502	s	s	17	1	SIC	536	RC	1	1	23MO	1	0	1.39501619339	386.0	327.0	387	318	1
1.7	2015_Aug_04_1502	s	s	17	1	SIC	537	RC	0	2	23RD	1	0	1.12931585312	291.0	-97.0	295	-99	1
1.7	2015_Aug_04_1502	s	s	17	1	SIC	538	RC	1	0	23MC	1	0	1.32424902916	29.0	70.0	29	60	1
1.7	2015_Aug_04_1502	s	s	17	1	SIC	539	ABS	1	2	24MD	0	1	0.799791097641	None	None	None	None	1
1.7	2015_Aug_04_1502	s	s	17	1	SIC	540	RC	2	0	23VC	1	0	0.587798118591	123.0	-175.0	120	-175	1
1.7	2015_Aug_04_1502	s	s	17	1	SIC	541	RC	0	1	23RO	1	0	3.37750601768	443.0	-128.0	446	-129	1
1.7	2015_Aug_04_1502	s	s	17	1	SIC	542	ABS	0	2	24RD	0	1	0.876999855042	None	None	None	None	1
1.7	2015_Aug_04_1502	s	s	17	1	SIC	543	RC	2	2	23VD	1	0	0.481913089752	334.0	-52.0	328	-42	1
1.7	2015_Aug_04_1502	s	s	17	1	SIC	544	ABS	2	0	24VC	0	1	1.16460800171	None	None	None	None	1
1.7	2015_Aug_04_1502	s	s	17	1	SIC	545	ABS	1	2	24MD	0	1	0.724097013474	None	None	None	None	1
1.7	2015_Aug_04_1502	s	s	17	1	SIC	546	ABS	1	1	24MO	0	1	3.071434021	None	None	None	None	1
1.7	2015_Aug_04_1502	s	s	17	1	SIC	547	ABS	0	2	24RD	0	1	0.858630895615	None	None	None	None	1
1.7	2015_Aug_04_1502	s	s	17	1	SIC	548	RC	2	1	23VO	1	0	0.599673986435	-280.0	-74.0	-278	-75	1
1.7	2015_Aug_04_1502	s	s	17	1	SIC	549	RC	0	2	23RD	1	0	1.85912108421	23.0	-127.0	29	-132	1
1.7	2015_Aug_04_1502	s	s	17	1	SIC	550	ABS	2	0	24VC	0	1	1.08226013184	None	None	None	None	1
1.7	2015_Aug_04_1502	s	s	17	1	SIC	551	RC	2	2	23VD	1	0	1.38824915886	415.0	183.0	410	182	1
1.7	2015_Aug_04_1502	s	s	17	1	SIC	552	ABS	2	1	24VO	0	1	0.559346914291	None	None	None	None	1
1.7	2015_Aug_04_1502	s	s	17	1	SIC	553	RC	1	2	23MD	1	0	1.26572108269	-203.0	238.0	-195	236	1
1.7	2015_Aug_04_1502	s	s	17	1	SIC	554	RC	1	0	23MC	1	0	2.35726499557	95.0	409.0	92	412	1
1.7	2015_Aug_04_1502	s	s	17	1	SIC	555	ABS	0	1	24RO	0	1	5.03710198402	None	None	None	None	1
1.7	2015_Aug_04_1502	s	s	17	1	SIC	556	RC	2	0	23VC	1	0	0.658864974976	483.0	38.0	491	37	1
1.7	2015_Aug_04_1502	s	s	17	1	SIC	557	RC	1	1	23MO	1	0	1.35279583931	-355.0	-328.0	-347	-332	1
1.7	2015_Aug_04_1502	s	s	17	1	SIC	558	RC	0	1	23RO	1	0	3.90225100517	195.0	-359.0	186	-363	1
1.7	2015_Aug_04_1502	s	s	17	1	SIC	559	ABS	2	2	24VD	0	1	0.634952068329	None	None	None	None	1
1.7	2015_Aug_04_1502	s	s	17	1	SIC	560	ABS	1	0	24MC	0	1	7.60915184021	None	None	None	None	1
1.7	2015_Aug_04_1502	s	s	17	1	SIC	561	RC	1	1	23MO	1	0	2.62159585953	-432.0	362.0	-433	364	1
1.7	2015_Aug_04_1502	s	s	17	1	SIC	562	RC	2	2	23VD	1	0	0.787846803665	-519.0	-270.0	-521	-281	1
1.7	2015_Aug_04_1502	s	s	17	1	SIC	563	ABS	0	1	24RO	0	1	5.43248605728	None	None	None	None	1
1.7	2015_Aug_04_1502	s	s	17	1	SIC	564	RC	1	2	23MD	1	0	0.734516143799	-382.0	-359.0	-378	-356	1
1.7	2015_Aug_04_1502	s	s	17	1	SIC	565	RC	2	1	23VO	1	0	0.606055021286	325.0	-163.0	334	-162	1
1.7	2015_Aug_04_1502	s	s	17	1	SIC	566	RC	0	1	23RO	0	1	4.42515921593	114.0	24.0	None	None	0
1.7	2015_Aug_04_1502	s	s	17	1	SIC	567	ABS	1	1	24MO	0	1	3.40852999687	None	None	None	None	1
1.7	2015_Aug_04_1502	s	s	17	1	SIC	568	ABS	2	1	24VO	0	1	0.611459970474	None	None	None	None	1
1.7	2015_Aug_04_1502	s	s	17	1	SIC	569	ABS	2	2	24VD	0	1	0.493728160858	None	None	None	None	1
1.7	2015_Aug_04_1502	s	s	17	1	SIC	570	RC	2	0	23VC	1	0	1.05402088165	379.0	274.0	366	277	1
1.7	2015_Aug_04_1502	s	s	17	1	SIC	571	ABS	0	2	24RD	0	1	1.17638802528	None	None	None	None	1
1.7	2015_Aug_04_1502	s	s	17	1	SIC	572	ABS	1	2	24MD	0	1	0.736198186874	None	None	None	None	1
1.7	2015_Aug_04_1502	s	s	17	1	SIC	573	ABS	1	0	24MC	0	1	2.81256484985	None	None	None	None	1
1.7	2015_Aug_04_1502	s	s	17	1	SIC	574	RC	1	0	23MC	1	0	1.57160687447	-340.0	-303.0	-343	-308	1
1.7	2015_Aug_04_1502	s	s	17	1	SIC	575	RC	0	2	23RD	1	0	0.700531959534	-520.0	19.0	-519	12	1
1.7	2015_Aug_04_1502	s	s	17	1	SIC	576	ABS	2	0	24VC	0	1	0.618069887161	None	None	None	None	1
1.7	2015_Aug_04_1502	s	s	17	1	SIC	577	ABS	1	0	24MC	0	1	1.04215407372	None	None	None	None	1
1.7	2015_Aug_04_1502	s	s	17	1	SIC	578	RC	2	1	23VO	1	0	0.678287029266	104.0	59.0	110	58	1
1.7	2015_Aug_04_1502	s	s	17	1	SIC	579	RC	0	2	23RD	1	0	0.576085090637	-326.0	-54.0	-322	-67	1
1.7	2015_Aug_04_1502	s	s	17	1	SIC	580	ABS	0	2	24RD	0	1	2.11004519463	None	None	None	None	1
1.7	2015_Aug_04_1502	s	s	17	1	SIC	581	ABS	2	1	24VO	0	1	0.700648069382	None	None	None	None	1
1.7	2015_Aug_04_1502	s	s	17	1	SIC	582	ABS	0	1	24RO	0	1	2.8426220417	None	None	None	None	1
1.7	2015_Aug_04_1502	s	s	17	1	SIC	583	RC	1	0	23MC	0	1	1.38276600838	-266.0	-379.0	None	None	0
1.7	2015_Aug_04_1502	s	s	17	1	SIC	584	ABS	2	2	24VD	0	1	0.517289876938	None	None	None	None	1
1.7	2015_Aug_04_1502	s	s	17	1	SIC	585	RC	1	1	23MO	1	0	1.0316619873	-224.0	365.0	-231	366	1
1.7	2015_Aug_04_1502	s	s	17	1	SIC	586	RC	1	2	23MD	1	0	1.11744308472	-151.0	121.0	-138	124	1
1.7	2015_Aug_04_1502	s	s	17	1	SIC	587	RC	0	1	23RO	1	0	2.22399091721	467.0	397.0	462	390	1
1.7	2015_Aug_04_1502	s	s	17	1	SIC	588	ABS	1	2	24MD	0	1	0.808438777924	None	None	None	None	1
1.7	2015_Aug_04_1502	s	s	17	1	SIC	589	ABS	1	1	24MO	0	1	6.62622594833	None	None	None	None	1
1.7	2015_Aug_04_1502	s	s	17	1	SIC	590	RC	2	2	23VD	1	0	0.634933948517	-140.0	-242.0	-137	-249	1
1.7	2015_Aug_04_1502	s	s	17	1	SIC	591	RC	2	0	23VC	1	0	2.71357584	176.0	-332.0	180	-330	1
1.7	2015_Aug_04_1502	s	s	17	1	SIC	592	ABS	2	0	24VC	0	1	0.98811006546	None	None	None	None	1
