Version	Date	Stimuli	Method	Subject	Session	Condition	Trial	Target	Channel1	Channel2	Distractors	LMouseButton	RMouseButton	RT	TargetX	TargetY	ResponseX	ResponseY	Correct
1.7	2015_Aug_06_1353	s	s	17	3	Capacity	1	RC	0	1	23RO	0	1	5.34326291084	358.0	-63.0	None	None	0
1.7	2015_Aug_06_1353	s	s	17	3	Capacity	2	RC	0	2	23RD	1	0	3.71330213547	-6.0	371.0	2	376	1
1.7	2015_Aug_06_1353	s	s	17	3	Capacity	3	ABS	0	2	24RD	0	1	2.38343906403	None	None	None	None	1
1.7	2015_Aug_06_1353	s	s	17	3	Capacity	4	ABS	0	1	24RO	0	1	5.59084010124	None	None	None	None	1
1.7	2015_Aug_06_1353	s	s	17	3	Capacity	5	RC	0	1	23RO	0	1	15.6188988686	-134.0	-379.0	None	None	0
1.7	2015_Aug_06_1353	s	s	17	3	Capacity	6	ABS	0	1	24RO	0	1	3.6599419117	None	None	None	None	1
1.7	2015_Aug_06_1353	s	s	17	3	Capacity	7	RC	0	2	23RD	1	0	0.841181993484	143.0	200.0	138	189	1
1.7	2015_Aug_06_1353	s	s	17	3	Capacity	8	ABS	0	2	24RD	0	1	4.62535095215	None	None	None	None	1
1.7	2015_Aug_06_1353	s	s	17	3	Capacity	9	ABS	0	2	24RD	0	1	2.032984972	None	None	None	None	1
1.7	2015_Aug_06_1353	s	s	17	3	Capacity	10	ABS	0	1	24RO	0	1	3.21276783943	None	None	None	None	1
1.7	2015_Aug_06_1353	s	s	17	3	Capacity	11	RC	0	1	23RO	0	1	4.22001791	-507.0	382.0	None	None	0
1.7	2015_Aug_06_1353	s	s	17	3	Capacity	12	RC	0	2	23RD	1	0	0.658529996872	372.0	183.0	370	167	1
1.7	2015_Aug_06_1353	s	s	17	3	Capacity	13	ABS	0	1	24RO	0	1	4.23167395592	None	None	None	None	1
1.7	2015_Aug_06_1353	s	s	17	3	Capacity	14	RC	0	2	23RD	1	0	0.592500925064	62.0	-152.0	62	-148	1
1.7	2015_Aug_06_1353	s	s	17	3	Capacity	15	ABS	0	2	24RD	0	1	0.658463001251	None	None	None	None	1
1.7	2015_Aug_06_1353	s	s	17	3	Capacity	16	RC	0	1	23RO	1	0	2.1769618988	-451.0	-178.0	-456	-175	1
1.7	2015_Aug_06_1353	s	s	17	3	Capacity	17	RC	0	2	23RD	1	0	0.641933917999	-398.0	-4.0	-410	2	1
1.7	2015_Aug_06_1353	s	s	17	3	Capacity	18	ABS	0	2	24RD	0	1	3.03621602058	None	None	None	None	1
1.7	2015_Aug_06_1353	s	s	17	3	Capacity	19	ABS	0	1	24RO	0	1	6.76256895065	None	None	None	None	1
1.7	2015_Aug_06_1353	s	s	17	3	Capacity	20	RC	0	1	23RO	0	1	5.71993708611	-265.0	170.0	None	None	0
1.7	2015_Aug_06_1353	s	s	17	3	Capacity	21	ABS	0	1	24RO	0	1	3.0894908905	None	None	None	None	1
1.7	2015_Aug_06_1353	s	s	17	3	Capacity	22	ABS	0	2	24RD	0	1	0.834990978241	None	None	None	None	1
1.7	2015_Aug_06_1353	s	s	17	3	Capacity	23	RC	0	1	23RO	0	1	5.03710007668	-60.0	-201.0	None	None	0
1.7	2015_Aug_06_1353	s	s	17	3	Capacity	24	RC	0	2	23RD	1	0	1.11754703522	289.0	303.0	295	297	1
1.7	2015_Aug_06_1353	s	s	17	3	Capacity	25	ABS	0	2	24RD	0	1	0.693806886673	None	None	None	None	1
1.7	2015_Aug_06_1353	s	s	17	3	Capacity	26	RC	0	2	23RD	1	0	0.796926021576	163.0	334.0	165	323	1
1.7	2015_Aug_06_1353	s	s	17	3	Capacity	27	ABS	0	1	24RO	0	1	3.29149603844	None	None	None	None	1
1.7	2015_Aug_06_1353	s	s	17	3	Capacity	28	RC	0	1	23RO	0	1	4.03670501709	393.0	-364.0	None	None	0
1.7	2015_Aug_06_1353	s	s	17	3	Capacity	29	ABS	0	1	24RO	0	1	3.01992702484	None	None	None	None	1
1.7	2015_Aug_06_1353	s	s	17	3	Capacity	30	ABS	0	2	24RD	0	1	2.42409801483	None	None	None	None	1
1.7	2015_Aug_06_1353	s	s	17	3	Capacity	31	RC	0	2	23RD	1	0	0.576194047928	429.0	-12.0	441	-10	1
1.7	2015_Aug_06_1353	s	s	17	3	Capacity	32	RC	0	1	23RO	1	0	3.61051607132	20.0	-98.0	35	-88	1
1.7	2015_Aug_06_1353	s	s	17	3	Capacity	33	ABS	0	1	24RO	0	1	5.25814318657	None	None	None	None	1
1.7	2015_Aug_06_1353	s	s	17	3	Capacity	34	RC	0	1	23RO	1	0	3.63165521622	487.0	-360.0	481	-359	1
1.7	2015_Aug_06_1353	s	s	17	3	Capacity	35	ABS	0	2	24RD	0	1	1.24703907967	None	None	None	None	1
1.7	2015_Aug_06_1353	s	s	17	3	Capacity	36	RC	0	2	23RD	1	0	0.594821214676	199.0	-87.0	193	-85	1
1.7	2015_Aug_06_1353	s	s	17	3	Capacity	37	RC	0	2	23RD	1	0	0.983362913132	102.0	367.0	105	366	1
1.7	2015_Aug_06_1353	s	s	17	3	Capacity	38	ABS	0	2	24RD	0	1	2.87796497345	None	None	None	None	1
1.7	2015_Aug_06_1353	s	s	17	3	Capacity	39	ABS	0	1	24RO	0	1	6.67997193336	None	None	None	None	1
1.7	2015_Aug_06_1353	s	s	17	3	Capacity	40	RC	0	1	23RO	0	1	3.18918609619	-172.0	-198.0	None	None	0
1.7	2015_Aug_06_1353	s	s	17	3	Capacity	41	ABS	0	1	24RO	0	1	4.45548295975	None	None	None	None	1
1.7	2015_Aug_06_1353	s	s	17	3	Capacity	42	ABS	0	2	24RD	0	1	1.17123103142	None	None	None	None	1
1.7	2015_Aug_06_1353	s	s	17	3	Capacity	43	RC	0	1	23RO	1	0	0.835041999817	32.0	125.0	33	120	1
1.7	2015_Aug_06_1353	s	s	17	3	Capacity	44	RC	0	2	23RD	1	0	0.721734046936	22.0	-220.0	28	-223	1
1.7	2015_Aug_06_1353	s	s	17	3	Capacity	45	ABS	0	2	24RD	0	1	0.787953853607	None	None	None	None	1
1.7	2015_Aug_06_1353	s	s	17	3	Capacity	46	RC	0	2	23RD	1	0	0.729238986969	278.0	-245.0	283	-255	1
1.7	2015_Aug_06_1353	s	s	17	3	Capacity	47	ABS	0	1	24RO	0	1	4.07881879807	None	None	None	None	1
1.7	2015_Aug_06_1353	s	s	17	3	Capacity	48	RC	0	1	23RO	1	0	2.23064899445	-453.0	-370.0	-451	-374	1
1.7	2015_Aug_06_1353	s	s	17	3	Capacity	49	RC	0	1	23RO	1	0	1.10256409645	381.0	41.0	376	50	1
1.7	2015_Aug_06_1353	s	s	17	3	Capacity	50	ABS	0	1	24RO	0	1	4.86783409119	None	None	None	None	1
1.7	2015_Aug_06_1353	s	s	17	3	Capacity	51	RC	0	2	23RD	1	0	0.830060958862	-389.0	-240.0	-383	-237	1
1.7	2015_Aug_06_1353	s	s	17	3	Capacity	52	ABS	0	2	24RD	0	1	2.254322052	None	None	None	None	1
1.7	2015_Aug_06_1353	s	s	17	3	Capacity	53	RC	0	2	23RD	1	0	0.641150951385	-195.0	-28.0	-191	-29	1
1.7	2015_Aug_06_1353	s	s	17	3	Capacity	54	ABS	0	1	24RO	0	1	4.42506599426	None	None	None	None	1
1.7	2015_Aug_06_1353	s	s	17	3	Capacity	55	ABS	0	2	24RD	0	1	1.58566689491	None	None	None	None	1
1.7	2015_Aug_06_1353	s	s	17	3	Capacity	56	RC	0	1	23RO	1	0	2.01214885712	-479.0	257.0	-484	246	1
1.7	2015_Aug_06_1353	s	s	17	3	Capacity	57	ABS	0	2	24RD	0	1	0.658371925354	None	None	None	None	1
1.7	2015_Aug_06_1353	s	s	17	3	Capacity	58	RC	0	1	23RO	1	0	1.64723587036	-36.0	-29.0	-39	-34	1
1.7	2015_Aug_06_1353	s	s	17	3	Capacity	59	RC	0	2	23RD	1	0	3.76596713066	-469.0	-112.0	-472	-109	1
1.7	2015_Aug_06_1353	s	s	17	3	Capacity	60	ABS	0	1	24RO	0	1	11.7581560612	None	None	None	None	1
1.7	2015_Aug_06_1353	s	s	17	3	Capacity	61	RC	0	2	23RD	1	0	5.26521801949	-241.0	298.0	-252	300	1
1.7	2015_Aug_06_1353	s	s	17	3	Capacity	62	ABS	0	1	24RO	0	1	8.85751485825	None	None	None	None	1
1.7	2015_Aug_06_1353	s	s	17	3	Capacity	63	RC	0	1	23RO	1	0	1.07050514221	-237.0	390.0	-233	386	1
1.7	2015_Aug_06_1353	s	s	17	3	Capacity	64	ABS	0	2	24RD	0	1	7.59779810905	None	None	None	None	1
1.7	2015_Aug_06_1353	s	s	17	3	Capacity	65	ABS	0	2	24RD	0	1	3.50225281715	None	None	None	None	1
1.7	2015_Aug_06_1353	s	s	17	3	Capacity	66	ABS	0	1	24RO	0	1	5.73836016655	None	None	None	None	1
1.7	2015_Aug_06_1353	s	s	17	3	Capacity	67	RC	0	2	23RD	1	0	5.03136897087	303.0	145.0	301	142	1
1.7	2015_Aug_06_1353	s	s	17	3	Capacity	68	RC	0	1	23RO	0	1	16.8735229969	232.0	-227.0	None	None	0
1.7	2015_Aug_06_1353	s	s	17	3	Capacity	69	RC	0	1	23RO	1	0	6.79668903351	465.0	235.0	466	221	1
1.7	2015_Aug_06_1353	s	s	17	3	Capacity	70	ABS	0	1	24RO	0	1	10.5290789604	None	None	None	None	1
1.7	2015_Aug_06_1353	s	s	17	3	Capacity	71	ABS	0	2	24RD	0	1	9.13983201981	None	None	None	None	1
1.7	2015_Aug_06_1353	s	s	17	3	Capacity	72	RC	0	2	23RD	1	0	2.81957101822	-8.0	231.0	-4	228	1
1.7	2015_Aug_06_1353	s	s	17	3	Capacity	73	RC	0	1	23RO	1	0	13.6482930183	348.0	350.0	353	357	1
1.7	2015_Aug_06_1353	s	s	17	3	Capacity	74	RC	0	2	23RD	1	0	9.39921617508	188.0	33.0	185	35	1
1.7	2015_Aug_06_1353	s	s	17	3	Capacity	75	ABS	0	2	24RD	0	1	0.846828937531	None	None	None	None	1
1.7	2015_Aug_06_1353	s	s	17	3	Capacity	76	ABS	0	1	24RO	0	1	2.600730896	None	None	None	None	1
1.7	2015_Aug_06_1353	s	s	17	3	Capacity	77	ABS	0	2	24RD	0	1	1.76496505737	None	None	None	None	1
1.7	2015_Aug_06_1353	s	s	17	3	Capacity	78	RC	0	2	23RD	1	0	0.505509853363	107.0	-130.0	98	-129	1
1.7	2015_Aug_06_1353	s	s	17	3	Capacity	79	RC	0	1	23RO	0	1	0.964471101761	-144.0	382.0	None	None	0
1.7	2015_Aug_06_1353	s	s	17	3	Capacity	80	ABS	0	1	24RO	0	1	1.81208491325	None	None	None	None	1
1.7	2015_Aug_06_1353	s	s	17	3	Capacity	81	RC	0	2	23RD	1	0	0.6938829422	301.0	-372.0	313	-369	1
1.7	2015_Aug_06_1353	s	s	17	3	Capacity	82	ABS	0	1	24RO	0	1	3.0126991272	None	None	None	None	1
1.7	2015_Aug_06_1353	s	s	17	3	Capacity	83	ABS	0	2	24RD	0	1	1.36474108696	None	None	None	None	1
1.7	2015_Aug_06_1353	s	s	17	3	Capacity	84	RC	0	1	23RO	0	1	4.00834107399	502.0	96.0	None	None	0
1.7	2015_Aug_06_1353	s	s	17	3	Capacity	85	RC	0	1	23RO	0	1	1.77662611008	-421.0	220.0	None	None	0
1.7	2015_Aug_06_1353	s	s	17	3	Capacity	86	RC	0	2	23RD	1	0	0.734471082687	-511.0	-197.0	-506	-200	1
1.7	2015_Aug_06_1353	s	s	17	3	Capacity	87	ABS	0	2	24RD	0	1	1.01970791817	None	None	None	None	1
1.7	2015_Aug_06_1353	s	s	17	3	Capacity	88	ABS	0	1	24RO	0	1	4.33098483086	None	None	None	None	1
1.7	2015_Aug_06_1353	s	s	17	3	Capacity	89	RC	0	1	23RO	1	0	0.846701860428	-27.0	255.0	-39	256	1
1.7	2015_Aug_06_1353	s	s	17	3	Capacity	90	RC	0	2	23RD	1	0	0.500626087189	14.0	46.0	6	44	1
1.7	2015_Aug_06_1353	s	s	17	3	Capacity	91	ABS	0	1	24RO	0	1	2.10060095787	None	None	None	None	1
1.7	2015_Aug_06_1353	s	s	17	3	Capacity	92	ABS	0	2	24RD	0	1	0.658536911011	None	None	None	None	1
1.7	2015_Aug_06_1353	s	s	17	3	Capacity	1	ABS	1	0	24MC	0	1	3.02487897873	None	None	None	None	1
1.7	2015_Aug_06_1353	s	s	17	3	Capacity	2	RC	1	0	23MC	1	0	0.831861972809	446.0	64.0	454	59	1
1.7	2015_Aug_06_1353	s	s	17	3	Capacity	3	RC	2	0	23VC	1	0	0.481971979141	-33.0	-22.0	-21	-21	1
1.7	2015_Aug_06_1353	s	s	17	3	Capacity	4	ABS	2	0	24VC	0	1	0.64156293869	None	None	None	None	1
1.7	2015_Aug_06_1353	s	s	17	3	Capacity	5	ABS	1	0	24MC	0	1	3.70711398125	None	None	None	None	1
1.7	2015_Aug_06_1353	s	s	17	3	Capacity	6	RC	2	0	23VC	1	0	0.503267049789	353.0	345.0	359	347	1
1.7	2015_Aug_06_1353	s	s	17	3	Capacity	7	RC	1	0	23MC	1	0	1.45395708084	-167.0	143.0	-165	140	1
1.7	2015_Aug_06_1353	s	s	17	3	Capacity	8	ABS	2	0	24VC	0	1	0.500498056412	None	None	None	None	1
1.7	2015_Aug_06_1353	s	s	17	3	Capacity	9	ABS	1	0	24MC	0	1	2.53933095932	None	None	None	None	1
1.7	2015_Aug_06_1353	s	s	17	3	Capacity	10	RC	2	0	23VC	1	0	0.418040990829	-119.0	-131.0	-119	-122	1
1.7	2015_Aug_06_1353	s	s	17	3	Capacity	11	RC	1	0	23MC	1	0	2.10132694244	-302.0	-69.0	165	232	0
1.7	2015_Aug_06_1353	s	s	17	3	Capacity	12	ABS	2	0	24VC	0	1	0.511569023132	None	None	None	None	1
1.7	2015_Aug_06_1353	s	s	17	3	Capacity	13	RC	2	0	23VC	1	0	0.594889879227	-134.0	-350.0	-144	-349	1
1.7	2015_Aug_06_1353	s	s	17	3	Capacity	14	ABS	1	0	24MC	1	0	3.35399389267	None	None	-67	-293	0
1.7	2015_Aug_06_1353	s	s	17	3	Capacity	15	RC	1	0	23MC	1	0	1.02341103554	-442.0	123.0	-445	113	1
1.7	2015_Aug_06_1353	s	s	17	3	Capacity	16	ABS	2	0	24VC	0	1	0.678431987762	None	None	None	None	1
1.7	2015_Aug_06_1353	s	s	17	3	Capacity	17	RC	2	0	23VC	1	0	0.524145841599	501.0	249.0	507	252	1
1.7	2015_Aug_06_1353	s	s	17	3	Capacity	18	ABS	1	0	24MC	0	1	2.12974715233	None	None	None	None	1
1.7	2015_Aug_06_1353	s	s	17	3	Capacity	19	ABS	2	0	24VC	0	1	0.505947113037	None	None	None	None	1
1.7	2015_Aug_06_1353	s	s	17	3	Capacity	20	RC	1	0	23MC	1	0	0.964615106583	499.0	366.0	496	361	1
1.7	2015_Aug_06_1353	s	s	17	3	Capacity	21	RC	2	0	23VC	1	0	16.4042291641	-434.0	-321.0	-436	-316	1
1.7	2015_Aug_06_1353	s	s	17	3	Capacity	22	ABS	2	0	24VC	0	1	2.21770691872	None	None	None	None	1
1.7	2015_Aug_06_1353	s	s	17	3	Capacity	23	ABS	1	0	24MC	0	1	2.17188620567	None	None	None	None	1
1.7	2015_Aug_06_1353	s	s	17	3	Capacity	24	RC	1	0	23MC	1	0	1.5951499939	121.0	-308.0	124	-313	1
1.7	2015_Aug_06_1353	s	s	17	3	Capacity	25	ABS	1	0	24MC	0	1	1.51285815239	None	None	None	None	1
1.7	2015_Aug_06_1353	s	s	17	3	Capacity	26	ABS	2	0	24VC	0	1	6.79466700554	None	None	None	None	1
1.7	2015_Aug_06_1353	s	s	17	3	Capacity	27	RC	2	0	23VC	1	0	0.835088014603	-2.0	-98.0	-2	-103	1
1.7	2015_Aug_06_1353	s	s	17	3	Capacity	28	RC	1	0	23MC	1	0	5.09266495705	168.0	90.0	159	96	1
1.7	2015_Aug_06_1353	s	s	17	3	Capacity	29	RC	2	0	23VC	1	0	1.8800239563	-353.0	-313.0	-354	-322	1
1.7	2015_Aug_06_1353	s	s	17	3	Capacity	30	RC	1	0	23MC	1	0	8.38701105118	-334.0	213.0	-341	206	1
1.7	2015_Aug_06_1353	s	s	17	3	Capacity	31	ABS	1	0	24MC	0	1	3.45987391472	None	None	None	None	1
1.7	2015_Aug_06_1353	s	s	17	3	Capacity	32	ABS	2	0	24VC	0	1	3.50703287125	None	None	None	None	1
1.7	2015_Aug_06_1353	s	s	17	3	Capacity	33	ABS	2	0	24VC	0	1	4.3780298233	None	None	None	None	1
1.7	2015_Aug_06_1353	s	s	17	3	Capacity	34	RC	2	0	23VC	1	0	3.05973482132	-178.0	-1.0	-179	-12	1
1.7	2015_Aug_06_1353	s	s	17	3	Capacity	35	RC	1	0	23MC	1	0	2.17700886726	204.0	-166.0	211	-165	1
1.7	2015_Aug_06_1353	s	s	17	3	Capacity	36	ABS	1	0	24MC	0	1	1.94203901291	None	None	None	None	1
1.7	2015_Aug_06_1353	s	s	17	3	Capacity	37	RC	2	0	23VC	1	0	1.47759103775	204.0	-316.0	210	-307	1
1.7	2015_Aug_06_1353	s	s	17	3	Capacity	38	ABS	2	0	24VC	0	1	0.564374923706	None	None	None	None	1
1.7	2015_Aug_06_1353	s	s	17	3	Capacity	39	RC	1	0	23MC	1	0	0.952619075775	102.0	-127.0	101	-120	1
1.7	2015_Aug_06_1353	s	s	17	3	Capacity	40	ABS	1	0	24MC	0	1	2.90173006058	None	None	None	None	1
1.7	2015_Aug_06_1353	s	s	17	3	Capacity	41	RC	2	0	23VC	1	0	0.455868959427	503.0	86.0	508	81	1
1.7	2015_Aug_06_1353	s	s	17	3	Capacity	42	ABS	1	0	24MC	1	0	1.21173810959	None	None	-55	21	0
1.7	2015_Aug_06_1353	s	s	17	3	Capacity	43	RC	1	0	23MC	1	0	0.735589981079	-169.0	-11.0	-160	-14	1
1.7	2015_Aug_06_1353	s	s	17	3	Capacity	44	ABS	2	0	24VC	0	1	0.784860134125	None	None	None	None	1
1.7	2015_Aug_06_1353	s	s	17	3	Capacity	45	ABS	1	0	24MC	0	1	3.8012650013	None	None	None	None	1
1.7	2015_Aug_06_1353	s	s	17	3	Capacity	46	ABS	2	0	24VC	0	1	0.482016086578	None	None	None	None	1
1.7	2015_Aug_06_1353	s	s	17	3	Capacity	47	RC	2	0	23VC	1	0	0.493731021881	-335.0	-391.0	-329	-394	1
1.7	2015_Aug_06_1353	s	s	17	3	Capacity	48	RC	1	0	23MC	1	0	0.547762155533	-305.0	158.0	-297	158	1
1.7	2015_Aug_06_1353	s	s	17	3	Capacity	49	ABS	2	0	24VC	0	1	0.514745950699	None	None	None	None	1
1.7	2015_Aug_06_1353	s	s	17	3	Capacity	50	RC	1	0	23MC	1	0	0.776244163513	-420.0	344.0	-422	350	1
1.7	2015_Aug_06_1353	s	s	17	3	Capacity	51	ABS	1	0	24MC	1	0	3.91902685165	None	None	134	-10	0
1.7	2015_Aug_06_1353	s	s	17	3	Capacity	52	RC	2	0	23VC	1	0	1.86800003052	352.0	-401.0	354	-404	1
1.7	2015_Aug_06_1353	s	s	17	3	Capacity	53	ABS	2	0	24VC	0	1	0.478578090668	None	None	None	None	1
1.7	2015_Aug_06_1353	s	s	17	3	Capacity	54	RC	1	0	23MC	1	0	1.95324897766	-54.0	-115.0	-48	-111	1
1.7	2015_Aug_06_1353	s	s	17	3	Capacity	55	RC	2	0	23VC	1	0	0.432176113129	-117.0	133.0	-110	139	1
1.7	2015_Aug_06_1353	s	s	17	3	Capacity	56	ABS	1	0	24MC	0	1	3.4193789959	None	None	None	None	1
1.7	2015_Aug_06_1353	s	s	17	3	Capacity	57	RC	2	0	23VC	1	0	0.453282833099	-415.0	369.0	-416	366	1
1.7	2015_Aug_06_1353	s	s	17	3	Capacity	58	ABS	2	0	24VC	0	1	3.45406699181	None	None	None	None	1
1.7	2015_Aug_06_1353	s	s	17	3	Capacity	59	RC	1	0	23MC	1	0	2.60082197189	154.0	163.0	157	153	1
1.7	2015_Aug_06_1353	s	s	17	3	Capacity	60	ABS	1	0	24MC	0	1	3.09048986435	None	None	None	None	1
1.7	2015_Aug_06_1353	s	s	17	3	Capacity	61	RC	2	0	23VC	1	0	1.09408807755	-237.0	-10.0	-239	-15	1
1.7	2015_Aug_06_1353	s	s	17	3	Capacity	62	RC	1	0	23MC	1	0	0.88587808609	-340.0	326.0	-343	318	1
1.7	2015_Aug_06_1353	s	s	17	3	Capacity	63	ABS	1	0	24MC	1	0	2.27118206024	None	None	-77	9	0
1.7	2015_Aug_06_1353	s	s	17	3	Capacity	64	ABS	2	0	24VC	0	1	0.65850687027	None	None	None	None	1
1.7	2015_Aug_06_1353	s	s	17	3	Capacity	65	RC	1	0	23MC	1	0	1.02082395554	180.0	355.0	190	360	1
1.7	2015_Aug_06_1353	s	s	17	3	Capacity	66	ABS	1	0	24MC	1	0	0.594845056534	None	None	-111	229	0
1.7	2015_Aug_06_1353	s	s	17	3	Capacity	67	ABS	2	0	24VC	0	1	0.49373292923	None	None	None	None	1
1.7	2015_Aug_06_1353	s	s	17	3	Capacity	68	RC	2	0	23VC	1	0	0.488615989685	92.0	-356.0	99	-348	1
1.7	2015_Aug_06_1353	s	s	17	3	Capacity	69	RC	1	0	23MC	1	0	1.48939013481	-2.0	-200.0	1	-203	1
1.7	2015_Aug_06_1353	s	s	17	3	Capacity	70	ABS	2	0	24VC	0	1	0.465253829956	None	None	None	None	1
1.7	2015_Aug_06_1353	s	s	17	3	Capacity	71	RC	2	0	23VC	1	0	0.418107032776	-111.0	107.0	-106	97	1
1.7	2015_Aug_06_1353	s	s	17	3	Capacity	72	ABS	1	0	24MC	0	1	4.19819903374	None	None	None	None	1
1.7	2015_Aug_06_1353	s	s	17	3	Capacity	73	ABS	2	0	24VC	0	1	0.403293848038	None	None	None	None	1
1.7	2015_Aug_06_1353	s	s	17	3	Capacity	74	ABS	1	0	24MC	0	1	3.54841113091	None	None	None	None	1
1.7	2015_Aug_06_1353	s	s	17	3	Capacity	75	RC	2	0	23VC	1	0	0.735727071762	-426.0	392.0	-435	390	1
1.7	2015_Aug_06_1353	s	s	17	3	Capacity	76	RC	1	0	23MC	1	0	0.823585033417	-520.0	226.0	-509	234	1
1.7	2015_Aug_06_1353	s	s	17	3	Capacity	77	ABS	1	0	24MC	0	1	2.51828098297	None	None	None	None	1
1.7	2015_Aug_06_1353	s	s	17	3	Capacity	78	RC	1	0	23MC	1	0	0.61138510704	-276.0	211.0	-274	210	1
1.7	2015_Aug_06_1353	s	s	17	3	Capacity	79	ABS	2	0	24VC	0	1	0.49387717247	None	None	None	None	1
1.7	2015_Aug_06_1353	s	s	17	3	Capacity	80	RC	2	0	23VC	1	0	0.458386898041	247.0	296.0	250	289	1
1.7	2015_Aug_06_1353	s	s	17	3	Capacity	81	ABS	2	0	24VC	0	1	0.60634303093	None	None	None	None	1
1.7	2015_Aug_06_1353	s	s	17	3	Capacity	82	ABS	1	0	24MC	0	1	3.86011695862	None	None	None	None	1
1.7	2015_Aug_06_1353	s	s	17	3	Capacity	83	RC	2	0	23VC	1	0	0.467067956924	93.0	75.0	101	73	1
1.7	2015_Aug_06_1353	s	s	17	3	Capacity	84	RC	1	0	23MC	1	0	2.16518902779	-387.0	-177.0	-382	-178	1
1.7	2015_Aug_06_1353	s	s	17	3	Capacity	85	RC	2	0	23VC	1	0	0.44672703743	199.0	343.0	201	331	1
1.7	2015_Aug_06_1353	s	s	17	3	Capacity	86	ABS	1	0	24MC	0	1	1.97160291672	None	None	None	None	1
1.7	2015_Aug_06_1353	s	s	17	3	Capacity	87	ABS	2	0	24VC	0	1	0.594421863556	None	None	None	None	1
1.7	2015_Aug_06_1353	s	s	17	3	Capacity	88	RC	1	0	23MC	1	0	1.88636803627	465.0	-145.0	466	-143	1
1.7	2015_Aug_06_1353	s	s	17	3	Capacity	89	ABS	2	0	24VC	0	1	2.74178695679	None	None	None	None	1
1.7	2015_Aug_06_1353	s	s	17	3	Capacity	90	RC	1	0	23MC	1	0	0.888437986374	176.0	98.0	166	98	1
1.7	2015_Aug_06_1353	s	s	17	3	Capacity	91	ABS	1	0	24MC	0	1	2.17697191238	None	None	None	None	1
1.7	2015_Aug_06_1353	s	s	17	3	Capacity	92	RC	2	0	23VC	1	0	2.16517710686	-62.0	-128.0	-67	-134	1
1.7	2015_Aug_06_1353	s	s	17	3	SIC	1	ABS	2	1	24VO	0	1	0.481871128082	None	None	None	None	1
1.7	2015_Aug_06_1353	s	s	17	3	SIC	2	RC	0	2	23RD	1	0	0.98807477951	372.0	-400.0	379	-404	1
1.7	2015_Aug_06_1353	s	s	17	3	SIC	3	ABS	0	1	24RO	0	1	3.18116283417	None	None	None	None	1
1.7	2015_Aug_06_1353	s	s	17	3	SIC	4	ABS	0	2	24RD	0	1	2.44227981567	None	None	None	None	1
1.7	2015_Aug_06_1353	s	s	17	3	SIC	5	RC	1	2	23MD	1	0	0.576210975647	308.0	254.0	310	260	1
1.7	2015_Aug_06_1353	s	s	17	3	SIC	6	ABS	1	2	24MD	0	1	2.02431416512	None	None	None	None	1
1.7	2015_Aug_06_1353	s	s	17	3	SIC	7	ABS	2	2	24VD	0	1	0.517315864563	None	None	None	None	1
1.7	2015_Aug_06_1353	s	s	17	3	SIC	8	ABS	2	0	24VC	0	1	0.458405971527	None	None	None	None	1
1.7	2015_Aug_06_1353	s	s	17	3	SIC	9	RC	2	0	23VC	1	0	0.453668117523	272.0	386.0	269	387	1
1.7	2015_Aug_06_1353	s	s	17	3	SIC	10	ABS	1	0	24MC	0	1	3.07128596306	None	None	None	None	1
1.7	2015_Aug_06_1353	s	s	17	3	SIC	11	RC	2	1	23VO	1	0	0.607963085175	305.0	135.0	302	137	1
1.7	2015_Aug_06_1353	s	s	17	3	SIC	12	ABS	1	1	24MO	0	1	2.83608603477	None	None	None	None	1
1.7	2015_Aug_06_1353	s	s	17	3	SIC	13	RC	2	2	23VD	1	0	1.6189160347	-519.0	229.0	-527	224	1
1.7	2015_Aug_06_1353	s	s	17	3	SIC	14	RC	0	1	23RO	0	0	-1	176.0	-391.0	None	None	-1
1.7	2015_Aug_06_1353	s	s	17	3	SIC	15	RC	1	0	23MC	1	0	1.34115695953	-494.0	-72.0	-490	-74	1
1.7	2015_Aug_06_1353	s	s	17	3	SIC	16	RC	1	1	23MO	1	0	1.37648892403	-534.0	340.0	-531	340	1
1.7	2015_Aug_06_1353	s	s	17	3	SIC	17	RC	0	1	23RO	1	0	3.30689001083	-222.0	210.0	-230	219	1
1.7	2015_Aug_06_1353	s	s	17	3	SIC	18	RC	2	0	23VC	1	0	0.618339061737	-105.0	142.0	-108	130	1
1.7	2015_Aug_06_1353	s	s	17	3	SIC	19	RC	1	1	23MO	1	0	0.854411840439	-371.0	-124.0	-372	-129	1
1.7	2015_Aug_06_1353	s	s	17	3	SIC	20	ABS	0	1	24RO	0	1	2.31335401535	None	None	None	None	1
1.7	2015_Aug_06_1353	s	s	17	3	SIC	21	RC	0	2	23RD	1	0	0.747513055801	480.0	334.0	484	334	1
1.7	2015_Aug_06_1353	s	s	17	3	SIC	22	ABS	0	2	24RD	0	1	0.570444822311	None	None	None	None	1
1.7	2015_Aug_06_1353	s	s	17	3	SIC	23	RC	1	2	23MD	1	0	0.451772928238	-146.0	49.0	-143	45	1
1.7	2015_Aug_06_1353	s	s	17	3	SIC	24	ABS	1	1	24MO	0	1	2.53673219681	None	None	None	None	1
1.7	2015_Aug_06_1353	s	s	17	3	SIC	25	ABS	1	0	24MC	0	1	5.2567820549	None	None	None	None	1
1.7	2015_Aug_06_1353	s	s	17	3	SIC	26	RC	2	2	23VD	1	0	0.481985092163	-114.0	-104.0	-111	-110	1
1.7	2015_Aug_06_1353	s	s	17	3	SIC	27	RC	1	0	23MC	1	0	0.646744012833	-266.0	275.0	-258	273	1
1.7	2015_Aug_06_1353	s	s	17	3	SIC	28	ABS	2	1	24VO	0	1	0.442046165466	None	None	None	None	1
1.7	2015_Aug_06_1353	s	s	17	3	SIC	29	ABS	1	2	24MD	0	1	0.83024096489	None	None	None	None	1
1.7	2015_Aug_06_1353	s	s	17	3	SIC	30	RC	2	1	23VO	1	0	0.588067054749	350.0	-271.0	355	-267	1
1.7	2015_Aug_06_1353	s	s	17	3	SIC	31	ABS	2	0	24VC	0	1	0.59961104393	None	None	None	None	1
1.7	2015_Aug_06_1353	s	s	17	3	SIC	32	ABS	2	2	24VD	0	1	0.455736875534	None	None	None	None	1
1.7	2015_Aug_06_1353	s	s	17	3	SIC	33	ABS	0	1	24RO	0	1	3.29512190819	None	None	None	None	1
1.7	2015_Aug_06_1353	s	s	17	3	SIC	34	ABS	0	2	24RD	0	1	0.74791097641	None	None	None	None	1
1.7	2015_Aug_06_1353	s	s	17	3	SIC	35	RC	0	2	23RD	1	0	0.753081083298	55.0	15.0	59	17	1
1.7	2015_Aug_06_1353	s	s	17	3	SIC	36	RC	2	1	23VO	1	0	0.773030042648	-84.0	191.0	-75	193	1
1.7	2015_Aug_06_1353	s	s	17	3	SIC	37	ABS	1	0	24MC	0	1	2.87157297134	None	None	None	None	1
1.7	2015_Aug_06_1353	s	s	17	3	SIC	38	ABS	2	1	24VO	0	1	0.524194002151	None	None	None	None	1
1.7	2015_Aug_06_1353	s	s	17	3	SIC	39	ABS	1	2	24MD	0	1	0.665416955948	None	None	None	None	1
1.7	2015_Aug_06_1353	s	s	17	3	SIC	40	RC	2	2	23VD	1	0	0.435261964798	-502.0	67.0	-504	60	1
1.7	2015_Aug_06_1353	s	s	17	3	SIC	41	ABS	1	1	24MO	0	1	3.31368517876	None	None	None	None	1
1.7	2015_Aug_06_1353	s	s	17	3	SIC	42	ABS	2	2	24VD	0	1	0.423136949539	None	None	None	None	1
1.7	2015_Aug_06_1353	s	s	17	3	SIC	43	RC	1	1	23MO	1	0	0.620614051819	71.0	21.0	77	15	1
1.7	2015_Aug_06_1353	s	s	17	3	SIC	44	RC	1	0	23MC	1	0	1.04192900658	373.0	-142.0	376	-137	1
1.7	2015_Aug_06_1353	s	s	17	3	SIC	45	RC	1	2	23MD	1	0	0.477689981461	-227.0	347.0	-228	338	1
1.7	2015_Aug_06_1353	s	s	17	3	SIC	46	ABS	2	0	24VC	0	1	0.477542877197	None	None	None	None	1
1.7	2015_Aug_06_1353	s	s	17	3	SIC	47	RC	0	1	23RO	1	0	2.71343803406	182.0	-239.0	181	-236	1
1.7	2015_Aug_06_1353	s	s	17	3	SIC	48	RC	2	0	23VC	1	0	0.406997919083	-108.0	97.0	-115	90	1
1.7	2015_Aug_06_1353	s	s	17	3	SIC	49	ABS	0	1	24RO	0	1	4.02168798447	None	None	None	None	1
1.7	2015_Aug_06_1353	s	s	17	3	SIC	50	RC	0	2	23RD	1	0	0.630393981934	413.0	185.0	414	179	1
1.7	2015_Aug_06_1353	s	s	17	3	SIC	51	RC	1	2	23MD	1	0	2.42407488823	288.0	257.0	300	259	1
1.7	2015_Aug_06_1353	s	s	17	3	SIC	52	ABS	2	1	24VO	1	0	0.481985092163	None	None	61	-44	0
1.7	2015_Aug_06_1353	s	s	17	3	SIC	53	ABS	2	0	24VC	0	1	0.379661083221	None	None	None	None	1
1.7	2015_Aug_06_1353	s	s	17	3	SIC	54	RC	2	2	23VD	1	0	0.51366686821	-250.0	-309.0	-257	-312	1
1.7	2015_Aug_06_1353	s	s	17	3	SIC	55	ABS	0	2	24RD	0	1	1.2587659359	None	None	None	None	1
1.7	2015_Aug_06_1353	s	s	17	3	SIC	56	RC	2	0	23VC	1	0	0.453195095062	416.0	188.0	422	183	1
1.7	2015_Aug_06_1353	s	s	17	3	SIC	57	ABS	2	2	24VD	0	1	0.488559961319	None	None	None	None	1
1.7	2015_Aug_06_1353	s	s	17	3	SIC	58	RC	2	1	23VO	1	0	0.493690013885	391.0	-139.0	401	-134	1
1.7	2015_Aug_06_1353	s	s	17	3	SIC	59	ABS	1	2	24MD	0	1	1.34117412567	None	None	None	None	1
1.7	2015_Aug_06_1353	s	s	17	3	SIC	60	ABS	1	0	24MC	0	1	4.1308350563	None	None	None	None	1
1.7	2015_Aug_06_1353	s	s	17	3	SIC	61	RC	0	1	23RO	1	0	2.49475288391	105.0	-74.0	109	-73	1
1.7	2015_Aug_06_1353	s	s	17	3	SIC	62	RC	1	1	23MO	1	0	0.770370006561	8.0	89.0	13	78	1
1.7	2015_Aug_06_1353	s	s	17	3	SIC	63	RC	1	0	23MC	1	0	1.34502696991	-260.0	-145.0	-260	-136	1
1.7	2015_Aug_06_1353	s	s	17	3	SIC	64	ABS	1	1	24MO	0	1	2.94204688072	None	None	None	None	1
1.7	2015_Aug_06_1353	s	s	17	3	SIC	65	RC	2	0	23VC	1	0	0.465095996857	-5.0	-119.0	-2	-125	1
1.7	2015_Aug_06_1353	s	s	17	3	SIC	66	ABS	2	2	24VD	0	1	0.988116025925	None	None	None	None	1
1.7	2015_Aug_06_1353	s	s	17	3	SIC	67	ABS	0	1	24RO	0	1	3.64466285706	None	None	None	None	1
1.7	2015_Aug_06_1353	s	s	17	3	SIC	68	RC	1	0	23MC	1	0	2.14161801338	250.0	-287.0	255	-290	1
1.7	2015_Aug_06_1353	s	s	17	3	SIC	69	ABS	0	2	24RD	0	1	1.2117600441	None	None	None	None	1
1.7	2015_Aug_06_1353	s	s	17	3	SIC	70	RC	0	1	23RO	1	0	3.71257019043	32.0	373.0	28	375	1
1.7	2015_Aug_06_1353	s	s	17	3	SIC	71	RC	0	2	23RD	1	0	3.93119502068	-360.0	-165.0	-362	-165	1
1.7	2015_Aug_06_1353	s	s	17	3	SIC	72	RC	1	2	23MD	1	0	0.523615837097	-103.0	-317.0	-104	-313	1
1.7	2015_Aug_06_1353	s	s	17	3	SIC	73	RC	2	2	23VD	1	0	0.466592073441	447.0	141.0	452	142	1
1.7	2015_Aug_06_1353	s	s	17	3	SIC	74	ABS	1	2	24MD	0	1	1.6410779953	None	None	None	None	1
1.7	2015_Aug_06_1353	s	s	17	3	SIC	75	RC	2	1	23VO	1	0	0.547741889954	-486.0	-333.0	-490	-338	1
1.7	2015_Aug_06_1353	s	s	17	3	SIC	76	ABS	1	0	24MC	0	1	4.24247288704	None	None	None	None	1
1.7	2015_Aug_06_1353	s	s	17	3	SIC	77	RC	1	1	23MO	1	0	1.76500487328	356.0	360.0	361	362	1
1.7	2015_Aug_06_1353	s	s	17	3	SIC	78	ABS	1	1	24MO	0	1	3.73759794235	None	None	None	None	1
1.7	2015_Aug_06_1353	s	s	17	3	SIC	79	ABS	2	0	24VC	0	1	0.48198390007	None	None	None	None	1
1.7	2015_Aug_06_1353	s	s	17	3	SIC	80	ABS	2	1	24VO	0	1	0.500510931015	None	None	None	None	1
1.7	2015_Aug_06_1353	s	s	17	3	SIC	81	RC	1	2	23MD	1	0	0.747500896454	383.0	-104.0	384	-108	1
1.7	2015_Aug_06_1353	s	s	17	3	SIC	82	RC	2	2	23VD	1	0	0.77620100975	-79.0	263.0	-77	256	1
1.7	2015_Aug_06_1353	s	s	17	3	SIC	83	ABS	2	0	24VC	0	1	1.11759495735	None	None	None	None	1
1.7	2015_Aug_06_1353	s	s	17	3	SIC	84	ABS	0	1	24RO	0	1	3.09493112564	None	None	None	None	1
1.7	2015_Aug_06_1353	s	s	17	3	SIC	85	ABS	1	0	24MC	0	1	6.82632803917	None	None	None	None	1
1.7	2015_Aug_06_1353	s	s	17	3	SIC	86	ABS	2	1	24VO	0	1	0.465396881104	None	None	None	None	1
1.7	2015_Aug_06_1353	s	s	17	3	SIC	87	ABS	2	2	24VD	0	1	0.438752889633	None	None	None	None	1
1.7	2015_Aug_06_1353	s	s	17	3	SIC	88	RC	0	2	23RD	1	0	1.27667093277	-228.0	-238.0	-227	-235	1
1.7	2015_Aug_06_1353	s	s	17	3	SIC	89	RC	2	1	23VO	1	0	0.846956968307	-277.0	45.0	-270	38	1
1.7	2015_Aug_06_1353	s	s	17	3	SIC	90	RC	0	1	23RO	1	0	2.53012013435	-304.0	-299.0	-306	-307	1
1.7	2015_Aug_06_1353	s	s	17	3	SIC	91	ABS	1	2	24MD	0	1	0.561846017838	None	None	None	None	1
1.7	2015_Aug_06_1353	s	s	17	3	SIC	92	RC	1	1	23MO	1	0	1.72957181931	19.0	-356.0	21	-361	1
1.7	2015_Aug_06_1353	s	s	17	3	SIC	93	ABS	0	2	24RD	0	1	0.941052913666	None	None	None	None	1
1.7	2015_Aug_06_1353	s	s	17	3	SIC	94	ABS	1	1	24MO	0	1	3.25485110283	None	None	None	None	1
1.7	2015_Aug_06_1353	s	s	17	3	SIC	95	RC	2	0	23VC	1	0	0.499843120575	313.0	-55.0	320	-49	1
1.7	2015_Aug_06_1353	s	s	17	3	SIC	96	RC	1	0	23MC	1	0	2.03079891205	-385.0	-237.0	-374	-236	1
1.7	2015_Aug_06_1353	s	s	17	3	SIC	97	RC	1	0	23MC	1	0	1.10583090782	-411.0	231.0	-410	236	1
1.7	2015_Aug_06_1353	s	s	17	3	SIC	98	RC	0	2	23RD	1	0	0.723953962326	466.0	-270.0	470	-275	1
1.7	2015_Aug_06_1353	s	s	17	3	SIC	99	ABS	2	1	24VO	0	1	1.40694308281	None	None	None	None	1
1.7	2015_Aug_06_1353	s	s	17	3	SIC	100	RC	2	2	23VD	1	0	11.2402048111	-233.0	-343.0	-234	-334	1
1.7	2015_Aug_06_1353	s	s	17	3	SIC	101	ABS	2	0	24VC	0	1	6.8799829483	None	None	None	None	1
1.7	2015_Aug_06_1353	s	s	17	3	SIC	102	RC	0	1	23RO	1	0	7.82316708565	-171.0	330.0	-167	336	1
1.7	2015_Aug_06_1353	s	s	17	3	SIC	103	RC	2	0	23VC	1	0	16.8278560638	228.0	-399.0	225	-409	1
1.7	2015_Aug_06_1353	s	s	17	3	SIC	104	RC	1	1	23MO	1	0	2.85710501671	-368.0	-201.0	-368	-205	1
1.7	2015_Aug_06_1353	s	s	17	3	SIC	105	RC	1	2	23MD	1	0	0.564432144165	404.0	53.0	403	41	1
1.7	2015_Aug_06_1353	s	s	17	3	SIC	106	RC	2	1	23VO	1	0	0.500121116638	150.0	-267.0	149	-272	1
1.7	2015_Aug_06_1353	s	s	17	3	SIC	107	ABS	1	1	24MO	0	1	4.11425185204	None	None	None	None	1
1.7	2015_Aug_06_1353	s	s	17	3	SIC	108	ABS	2	2	24VD	0	1	0.39422917366	None	None	None	None	1
1.7	2015_Aug_06_1353	s	s	17	3	SIC	109	ABS	0	2	24RD	0	1	0.876409053802	None	None	None	None	1
1.7	2015_Aug_06_1353	s	s	17	3	SIC	110	ABS	1	2	24MD	0	1	0.611804008484	None	None	None	None	1
1.7	2015_Aug_06_1353	s	s	17	3	SIC	111	ABS	1	0	24MC	0	1	2.9808781147	None	None	None	None	1
1.7	2015_Aug_06_1353	s	s	17	3	SIC	112	ABS	0	1	24RO	0	1	2.30638217926	None	None	None	None	1
1.7	2015_Aug_06_1353	s	s	17	3	SIC	113	RC	1	2	23MD	1	0	0.599987983704	196.0	313.0	203	315	1
1.7	2015_Aug_06_1353	s	s	17	3	SIC	114	ABS	1	0	24MC	0	1	2.25931406021	None	None	None	None	1
1.7	2015_Aug_06_1353	s	s	17	3	SIC	115	RC	1	1	23MO	1	0	1.05875015259	161.0	-74.0	173	-69	1
1.7	2015_Aug_06_1353	s	s	17	3	SIC	116	ABS	2	2	24VD	0	1	0.465208053589	None	None	None	None	1
1.7	2015_Aug_06_1353	s	s	17	3	SIC	117	RC	2	1	23VO	1	0	0.452211141586	84.0	-179.0	80	-175	1
1.7	2015_Aug_06_1353	s	s	17	3	SIC	118	RC	1	0	23MC	1	0	0.651529073715	-6.0	-151.0	-13	-155	1
1.7	2015_Aug_06_1353	s	s	17	3	SIC	119	RC	0	1	23RO	1	0	3.83386206627	-112.0	371.0	-113	374	1
1.7	2015_Aug_06_1353	s	s	17	3	SIC	120	ABS	2	0	24VC	0	1	0.771686077118	None	None	None	None	1
1.7	2015_Aug_06_1353	s	s	17	3	SIC	121	ABS	0	1	24RO	0	1	3.05476212502	None	None	None	None	1
1.7	2015_Aug_06_1353	s	s	17	3	SIC	122	ABS	1	1	24MO	0	1	2.41235184669	None	None	None	None	1
1.7	2015_Aug_06_1353	s	s	17	3	SIC	123	RC	2	2	23VD	1	0	0.453236818314	95.0	-125.0	102	-129	1
1.7	2015_Aug_06_1353	s	s	17	3	SIC	124	RC	2	0	23VC	1	0	0.441876888275	252.0	-190.0	248	-189	1
1.7	2015_Aug_06_1353	s	s	17	3	SIC	125	ABS	1	2	24MD	0	1	0.818441867828	None	None	None	None	1
1.7	2015_Aug_06_1353	s	s	17	3	SIC	126	RC	0	2	23RD	1	0	0.48198890686	-393.0	365.0	-390	359	1
1.7	2015_Aug_06_1353	s	s	17	3	SIC	127	ABS	0	2	24RD	0	1	0.815150022507	None	None	None	None	1
1.7	2015_Aug_06_1353	s	s	17	3	SIC	128	ABS	2	1	24VO	0	1	0.724250078201	None	None	None	None	1
1.7	2015_Aug_06_1353	s	s	17	3	SIC	129	RC	1	1	23MO	1	0	1.6799120903	-504.0	-303.0	-503	-301	1
1.7	2015_Aug_06_1353	s	s	17	3	SIC	130	RC	2	1	23VO	1	0	0.446752071381	-262.0	353.0	-254	354	1
1.7	2015_Aug_06_1353	s	s	17	3	SIC	131	ABS	0	2	24RD	0	1	1.0004658699	None	None	None	None	1
1.7	2015_Aug_06_1353	s	s	17	3	SIC	132	ABS	2	1	24VO	0	1	0.467504024506	None	None	None	None	1
1.7	2015_Aug_06_1353	s	s	17	3	SIC	133	RC	0	2	23RD	1	0	0.450328111649	-74.0	382.0	-73	376	1
1.7	2015_Aug_06_1353	s	s	17	3	SIC	134	ABS	2	0	24VC	0	1	0.458441972733	None	None	None	None	1
1.7	2015_Aug_06_1353	s	s	17	3	SIC	135	ABS	2	2	24VD	0	1	0.606567144394	None	None	None	None	1
1.7	2015_Aug_06_1353	s	s	17	3	SIC	136	ABS	1	0	24MC	1	0	6.50856304169	None	None	-357	8	0
1.7	2015_Aug_06_1353	s	s	17	3	SIC	137	RC	2	2	23VD	1	0	0.785023927689	502.0	-123.0	495	-117	1
1.7	2015_Aug_06_1353	s	s	17	3	SIC	138	ABS	1	1	24MO	0	1	2.7950360775	None	None	None	None	1
1.7	2015_Aug_06_1353	s	s	17	3	SIC	139	RC	1	0	23MC	1	0	2.12474298477	66.0	-349.0	57	-350	1
1.7	2015_Aug_06_1353	s	s	17	3	SIC	140	ABS	0	1	24RO	0	1	3.79630303383	None	None	None	None	1
1.7	2015_Aug_06_1353	s	s	17	3	SIC	141	RC	0	1	23RO	1	0	3.32577013969	375.0	377.0	381	378	1
1.7	2015_Aug_06_1353	s	s	17	3	SIC	142	RC	1	2	23MD	1	0	0.59476518631	366.0	-329.0	360	-338	1
1.7	2015_Aug_06_1353	s	s	17	3	SIC	143	ABS	1	2	24MD	0	1	0.584718942642	None	None	None	None	1
1.7	2015_Aug_06_1353	s	s	17	3	SIC	144	RC	2	0	23VC	1	0	0.453794002533	381.0	-69.0	379	-75	1
1.7	2015_Aug_06_1353	s	s	17	3	SIC	145	ABS	0	1	24RO	0	1	3.43639993668	None	None	None	None	1
1.7	2015_Aug_06_1353	s	s	17	3	SIC	146	RC	2	1	23VO	1	0	9.03554916382	8.0	223.0	9	220	1
1.7	2015_Aug_06_1353	s	s	17	3	SIC	147	ABS	1	1	24MO	0	1	15.0834720135	None	None	None	None	1
1.7	2015_Aug_06_1353	s	s	17	3	SIC	148	ABS	1	2	24MD	0	1	0.653514862061	None	None	None	None	1
1.7	2015_Aug_06_1353	s	s	17	3	SIC	149	ABS	2	0	24VC	0	1	0.458577871323	None	None	None	None	1
1.7	2015_Aug_06_1353	s	s	17	3	SIC	150	RC	2	0	23VC	1	0	0.42987704277	-431.0	-45.0	-420	-41	1
1.7	2015_Aug_06_1353	s	s	17	3	SIC	151	RC	2	2	23VD	1	0	0.423127174377	328.0	-260.0	323	-262	1
1.7	2015_Aug_06_1353	s	s	17	3	SIC	152	RC	1	0	23MC	1	0	1.57662391663	-108.0	13.0	-104	8	1
1.7	2015_Aug_06_1353	s	s	17	3	SIC	153	ABS	1	0	24MC	0	1	4.1896739006	None	None	None	None	1
1.7	2015_Aug_06_1353	s	s	17	3	SIC	154	ABS	2	1	24VO	0	1	0.535943984985	None	None	None	None	1
1.7	2015_Aug_06_1353	s	s	17	3	SIC	155	RC	0	2	23RD	1	0	0.968086004257	236.0	299.0	238	291	1
1.7	2015_Aug_06_1353	s	s	17	3	SIC	156	ABS	0	2	24RD	0	1	0.889121055603	None	None	None	None	1
1.7	2015_Aug_06_1353	s	s	17	3	SIC	157	RC	0	1	23RO	1	0	1.09074902534	-396.0	331.0	-403	327	1
1.7	2015_Aug_06_1353	s	s	17	3	SIC	158	RC	1	1	23MO	1	0	0.835082769394	347.0	215.0	357	218	1
1.7	2015_Aug_06_1353	s	s	17	3	SIC	159	ABS	2	2	24VD	0	1	0.453320026398	None	None	None	None	1
1.7	2015_Aug_06_1353	s	s	17	3	SIC	160	RC	1	2	23MD	1	0	0.481994152069	-484.0	296.0	-475	296	1
1.7	2015_Aug_06_1353	s	s	17	3	SIC	161	RC	2	0	23VC	1	0	0.512859106064	530.0	411.0	536	407	1
1.7	2015_Aug_06_1353	s	s	17	3	SIC	162	RC	2	2	23VD	1	0	0.394361972809	-346.0	25.0	-337	21	1
1.7	2015_Aug_06_1353	s	s	17	3	SIC	163	ABS	0	2	24RD	0	1	0.996293067932	None	None	None	None	1
1.7	2015_Aug_06_1353	s	s	17	3	SIC	164	ABS	1	1	24MO	0	1	3.436398983	None	None	None	None	1
1.7	2015_Aug_06_1353	s	s	17	3	SIC	165	ABS	0	1	24RO	0	1	4.72611403465	None	None	None	None	1
1.7	2015_Aug_06_1353	s	s	17	3	SIC	166	RC	1	2	23MD	1	0	0.517330884933	102.0	188.0	104	183	1
1.7	2015_Aug_06_1353	s	s	17	3	SIC	167	ABS	1	0	24MC	0	1	3.76580286026	None	None	None	None	1
1.7	2015_Aug_06_1353	s	s	17	3	SIC	168	RC	1	1	23MO	1	0	1.49790692329	459.0	-130.0	453	-127	1
1.7	2015_Aug_06_1353	s	s	17	3	SIC	169	RC	2	1	23VO	1	0	0.434792995453	-121.0	-5.0	-118	-6	1
1.7	2015_Aug_06_1353	s	s	17	3	SIC	170	RC	0	1	23RO	1	0	1.01167392731	105.0	164.0	109	162	1
1.7	2015_Aug_06_1353	s	s	17	3	SIC	171	RC	1	0	23MC	1	0	3.11356687546	119.0	-400.0	115	-404	1
1.7	2015_Aug_06_1353	s	s	17	3	SIC	172	ABS	1	2	24MD	0	1	0.587882995605	None	None	None	None	1
1.7	2015_Aug_06_1353	s	s	17	3	SIC	173	ABS	2	2	24VD	0	1	0.399610042572	None	None	None	None	1
1.7	2015_Aug_06_1353	s	s	17	3	SIC	174	ABS	2	1	24VO	0	1	0.525091171265	None	None	None	None	1
1.7	2015_Aug_06_1353	s	s	17	3	SIC	175	ABS	2	0	24VC	0	1	1.00667381287	None	None	None	None	1
1.7	2015_Aug_06_1353	s	s	17	3	SIC	176	RC	0	2	23RD	1	0	0.470168113708	-141.0	179.0	-126	185	1
1.7	2015_Aug_06_1353	s	s	17	3	SIC	177	RC	0	1	23RO	1	0	1.07047986984	-1.0	239.0	-6	245	1
1.7	2015_Aug_06_1353	s	s	17	3	SIC	178	RC	2	2	23VD	1	0	0.408604860306	28.0	114.0	31	109	1
1.7	2015_Aug_06_1353	s	s	17	3	SIC	179	ABS	0	1	24RO	0	1	3.35431289673	None	None	None	None	1
1.7	2015_Aug_06_1353	s	s	17	3	SIC	180	RC	0	2	23RD	1	0	0.500496864319	289.0	215.0	294	209	1
1.7	2015_Aug_06_1353	s	s	17	3	SIC	181	ABS	2	2	24VD	0	1	0.43119597435	None	None	None	None	1
1.7	2015_Aug_06_1353	s	s	17	3	SIC	182	RC	1	2	23MD	1	0	0.431549072266	75.0	-168.0	71	-169	1
1.7	2015_Aug_06_1353	s	s	17	3	SIC	183	ABS	1	1	24MO	0	1	2.82432103157	None	None	None	None	1
1.7	2015_Aug_06_1353	s	s	17	3	SIC	184	RC	1	0	23MC	1	0	1.94144487381	23.0	-172.0	25	-183	1
1.7	2015_Aug_06_1353	s	s	17	3	SIC	185	ABS	1	0	24MC	1	0	2.58405303955	None	None	250	-249	0
1.7	2015_Aug_06_1353	s	s	17	3	SIC	186	RC	1	1	23MO	1	0	2.28293204308	-243.0	-330.0	-242	-322	1
1.7	2015_Aug_06_1353	s	s	17	3	SIC	187	ABS	2	0	24VC	0	1	0.535659074783	None	None	None	None	1
1.7	2015_Aug_06_1353	s	s	17	3	SIC	188	ABS	1	2	24MD	0	1	3.1303498745	None	None	None	None	1
1.7	2015_Aug_06_1353	s	s	17	3	SIC	189	RC	2	0	23VC	1	0	1.3937330246	401.0	-392.0	403	-399	1
1.7	2015_Aug_06_1353	s	s	17	3	SIC	190	ABS	2	1	24VO	0	1	1.1999771595	None	None	None	None	1
1.7	2015_Aug_06_1353	s	s	17	3	SIC	191	RC	2	1	23VO	1	0	0.559330940247	-464.0	-55.0	-463	-57	1
1.7	2015_Aug_06_1353	s	s	17	3	SIC	192	ABS	0	2	24RD	0	1	1.08785820007	None	None	None	None	1
1.7	2015_Aug_06_1353	s	s	17	3	SIC	193	ABS	0	1	24RO	0	1	5.07934403419	None	None	None	None	1
1.7	2015_Aug_06_1353	s	s	17	3	SIC	194	RC	2	2	23VD	1	0	0.453636884689	362.0	-401.0	362	-394	1
1.7	2015_Aug_06_1353	s	s	17	3	SIC	195	ABS	2	2	24VD	0	1	0.434871912003	None	None	None	None	1
1.7	2015_Aug_06_1353	s	s	17	3	SIC	196	RC	2	1	23VO	1	0	0.493730068207	-61.0	214.0	-69	209	1
1.7	2015_Aug_06_1353	s	s	17	3	SIC	197	RC	1	2	23MD	1	0	0.45200586319	-91.0	177.0	-98	175	1
1.7	2015_Aug_06_1353	s	s	17	3	SIC	198	RC	0	2	23RD	1	0	0.540989875793	313.0	-231.0	314	-228	1
1.7	2015_Aug_06_1353	s	s	17	3	SIC	199	ABS	0	2	24RD	0	1	0.606528043747	None	None	None	None	1
1.7	2015_Aug_06_1353	s	s	17	3	SIC	200	ABS	2	1	24VO	0	1	0.682070970535	None	None	None	None	1
1.7	2015_Aug_06_1353	s	s	17	3	SIC	201	ABS	1	2	24MD	0	1	0.678765773773	None	None	None	None	1
1.7	2015_Aug_06_1353	s	s	17	3	SIC	202	ABS	1	0	24MC	0	1	4.87916302681	None	None	None	None	1
1.7	2015_Aug_06_1353	s	s	17	3	SIC	203	ABS	1	1	24MO	0	1	3.41283798218	None	None	None	None	1
1.7	2015_Aug_06_1353	s	s	17	3	SIC	204	RC	0	1	23RO	0	1	4.73109793663	302.0	200.0	None	None	0
1.7	2015_Aug_06_1353	s	s	17	3	SIC	205	RC	1	0	23MC	1	0	0.84330701828	-497.0	-331.0	-493	-333	1
1.7	2015_Aug_06_1353	s	s	17	3	SIC	206	ABS	2	0	24VC	0	1	0.618280172348	None	None	None	None	1
1.7	2015_Aug_06_1353	s	s	17	3	SIC	207	RC	2	0	23VC	1	0	0.524087905884	-488.0	-100.0	-490	-100	1
1.7	2015_Aug_06_1353	s	s	17	3	SIC	208	RC	1	1	23MO	1	0	1.00791287422	48.0	137.0	55	134	1
1.7	2015_Aug_06_1353	s	s	17	3	SIC	209	ABS	0	2	24RD	0	1	0.914672851562	None	None	None	None	1
1.7	2015_Aug_06_1353	s	s	17	3	SIC	210	ABS	1	2	24MD	0	1	1.07032203674	None	None	None	None	1
1.7	2015_Aug_06_1353	s	s	17	3	SIC	211	RC	1	0	23MC	1	0	1.64228200912	-276.0	-43.0	-273	-40	1
1.7	2015_Aug_06_1353	s	s	17	3	SIC	212	RC	1	2	23MD	1	0	0.576071023941	-362.0	-377.0	-353	-381	1
1.7	2015_Aug_06_1353	s	s	17	3	SIC	213	ABS	1	0	24MC	1	0	2.5926361084	None	None	281	96	0
1.7	2015_Aug_06_1353	s	s	17	3	SIC	214	ABS	0	1	24RO	0	1	3.77774214745	None	None	None	None	1
1.7	2015_Aug_06_1353	s	s	17	3	SIC	215	ABS	1	1	24MO	0	1	2.54892396927	None	None	None	None	1
1.7	2015_Aug_06_1353	s	s	17	3	SIC	216	RC	1	1	23MO	1	0	1.07416296005	210.0	146.0	210	146	1
1.7	2015_Aug_06_1353	s	s	17	3	SIC	217	RC	2	0	23VC	1	0	0.418168067932	-468.0	198.0	-463	205	1
1.7	2015_Aug_06_1353	s	s	17	3	SIC	218	ABS	2	0	24VC	0	1	0.529054880142	None	None	None	None	1
1.7	2015_Aug_06_1353	s	s	17	3	SIC	219	ABS	2	1	24VO	0	1	0.653722047806	None	None	None	None	1
1.7	2015_Aug_06_1353	s	s	17	3	SIC	220	RC	2	1	23VO	1	0	0.434872150421	-32.0	292.0	-29	288	1
1.7	2015_Aug_06_1353	s	s	17	3	SIC	221	RC	0	1	23RO	1	0	2.75369715691	-346.0	-157.0	-345	-161	1
1.7	2015_Aug_06_1353	s	s	17	3	SIC	222	RC	2	2	23VD	1	0	0.434876918793	-229.0	286.0	-223	278	1
1.7	2015_Aug_06_1353	s	s	17	3	SIC	223	RC	0	2	23RD	1	0	0.423119068146	-13.0	154.0	-11	159	1
1.7	2015_Aug_06_1353	s	s	17	3	SIC	224	ABS	2	2	24VD	0	1	0.429965019226	None	None	None	None	1
1.7	2015_Aug_06_1353	s	s	17	3	SIC	225	RC	0	2	23RD	1	0	0.678725004196	393.0	64.0	392	55	1
1.7	2015_Aug_06_1353	s	s	17	3	SIC	226	ABS	1	1	24MO	0	1	2.58417916298	None	None	None	None	1
1.7	2015_Aug_06_1353	s	s	17	3	SIC	227	ABS	2	2	24VD	0	1	0.387787103653	None	None	None	None	1
1.7	2015_Aug_06_1353	s	s	17	3	SIC	228	RC	2	1	23VO	1	0	0.409096002579	271.0	43.0	277	43	1
1.7	2015_Aug_06_1353	s	s	17	3	SIC	229	ABS	1	0	24MC	0	1	5.23228788376	None	None	None	None	1
1.7	2015_Aug_06_1353	s	s	17	3	SIC	230	RC	1	2	23MD	1	0	0.465342998505	85.0	87.0	81	79	1
1.7	2015_Aug_06_1353	s	s	17	3	SIC	231	ABS	2	1	24VO	0	1	0.564351081848	None	None	None	None	1
1.7	2015_Aug_06_1353	s	s	17	3	SIC	232	RC	1	1	23MO	1	0	0.761794090271	23.0	199.0	24	195	1
1.7	2015_Aug_06_1353	s	s	17	3	SIC	233	RC	2	2	23VD	1	0	0.465579986572	-62.0	211.0	-58	203	1
1.7	2015_Aug_06_1353	s	s	17	3	SIC	234	RC	0	1	23RO	1	0	1.45475006104	-87.0	108.0	-86	111	1
1.7	2015_Aug_06_1353	s	s	17	3	SIC	235	ABS	1	2	24MD	0	1	1.14649295807	None	None	None	None	1
1.7	2015_Aug_06_1353	s	s	17	3	SIC	236	ABS	0	2	24RD	0	1	1.17136096954	None	None	None	None	1
1.7	2015_Aug_06_1353	s	s	17	3	SIC	237	RC	2	0	23VC	1	0	0.446667194366	-315.0	264.0	-316	266	1
1.7	2015_Aug_06_1353	s	s	17	3	SIC	238	ABS	0	1	24RO	0	1	6.00914120674	None	None	None	None	1
1.7	2015_Aug_06_1353	s	s	17	3	SIC	239	ABS	2	0	24VC	0	1	0.635012865067	None	None	None	None	1
1.7	2015_Aug_06_1353	s	s	17	3	SIC	240	RC	1	0	23MC	1	0	1.76551985741	117.0	-406.0	119	-405	1
1.7	2015_Aug_06_1353	s	s	17	3	SIC	241	RC	2	0	23VC	1	0	0.505487918854	336.0	-276.0	339	-282	1
1.7	2015_Aug_06_1353	s	s	17	3	SIC	242	RC	1	0	23MC	1	0	0.936161994934	244.0	30.0	235	26	1
1.7	2015_Aug_06_1353	s	s	17	3	SIC	243	RC	2	1	23VO	1	0	0.441498994827	-295.0	-210.0	-298	-220	1
1.7	2015_Aug_06_1353	s	s	17	3	SIC	244	RC	1	1	23MO	1	0	0.905746936798	266.0	-8.0	264	-11	1
1.7	2015_Aug_06_1353	s	s	17	3	SIC	245	ABS	2	0	24VC	0	1	0.429928064346	None	None	None	None	1
1.7	2015_Aug_06_1353	s	s	17	3	SIC	246	RC	0	2	23RD	1	0	0.60778594017	132.0	-21.0	139	-26	1
1.7	2015_Aug_06_1353	s	s	17	3	SIC	247	ABS	2	2	24VD	0	1	0.423117876053	None	None	None	None	1
1.7	2015_Aug_06_1353	s	s	17	3	SIC	248	ABS	0	1	24RO	0	1	4.62569785118	None	None	None	None	1
1.7	2015_Aug_06_1353	s	s	17	3	SIC	249	RC	2	2	23VD	1	0	0.429880857468	27.0	24.0	18	25	1
1.7	2015_Aug_06_1353	s	s	17	3	SIC	250	RC	1	2	23MD	1	0	0.552659988403	-470.0	312.0	-471	309	1
1.7	2015_Aug_06_1353	s	s	17	3	SIC	251	ABS	1	1	24MO	0	1	3.15386605263	None	None	None	None	1
1.7	2015_Aug_06_1353	s	s	17	3	SIC	252	ABS	0	2	24RD	0	1	1.92631411552	None	None	None	None	1
1.7	2015_Aug_06_1353	s	s	17	3	SIC	253	RC	0	1	23RO	0	1	4.53789496422	13.0	-112.0	None	None	0
1.7	2015_Aug_06_1353	s	s	17	3	SIC	254	ABS	2	1	24VO	0	1	0.446583032608	None	None	None	None	1
1.7	2015_Aug_06_1353	s	s	17	3	SIC	255	ABS	1	2	24MD	0	1	1.2590508461	None	None	None	None	1
1.7	2015_Aug_06_1353	s	s	17	3	SIC	256	ABS	1	0	24MC	0	1	6.02078485489	None	None	None	None	1
1.7	2015_Aug_06_1353	s	s	17	3	SIC	257	ABS	1	0	24MC	0	1	4.11685204506	None	None	None	None	1
1.7	2015_Aug_06_1353	s	s	17	3	SIC	258	ABS	1	2	24MD	0	1	0.611416816711	None	None	None	None	1
1.7	2015_Aug_06_1353	s	s	17	3	SIC	259	RC	2	1	23VO	1	0	0.441769123077	-266.0	259.0	-258	253	1
1.7	2015_Aug_06_1353	s	s	17	3	SIC	260	RC	0	1	23RO	1	0	5.00800681114	-175.0	177.0	-180	167	1
1.7	2015_Aug_06_1353	s	s	17	3	SIC	261	ABS	2	2	24VD	0	1	0.418087005615	None	None	None	None	1
1.7	2015_Aug_06_1353	s	s	17	3	SIC	262	RC	0	2	23RD	1	0	0.688305139542	112.0	96.0	106	89	1
1.7	2015_Aug_06_1353	s	s	17	3	SIC	263	RC	1	0	23MC	1	0	1.19439983368	-239.0	132.0	-244	125	1
1.7	2015_Aug_06_1353	s	s	17	3	SIC	264	RC	1	1	23MO	1	0	1.01172590256	126.0	372.0	127	368	1
1.7	2015_Aug_06_1353	s	s	17	3	SIC	265	ABS	2	1	24VO	0	1	0.512089014053	None	None	None	None	1
1.7	2015_Aug_06_1353	s	s	17	3	SIC	266	ABS	0	1	24RO	0	1	5.0724799633	None	None	None	None	1
1.7	2015_Aug_06_1353	s	s	17	3	SIC	267	RC	2	2	23VD	1	0	0.55256986618	-182.0	-357.0	-181	-348	1
1.7	2015_Aug_06_1353	s	s	17	3	SIC	268	RC	2	0	23VC	1	0	0.47709608078	203.0	-194.0	211	-185	1
1.7	2015_Aug_06_1353	s	s	17	3	SIC	269	RC	1	2	23MD	1	0	0.382565975189	84.0	20.0	85	16	1
1.7	2015_Aug_06_1353	s	s	17	3	SIC	270	ABS	0	2	24RD	0	1	1.35960888863	None	None	None	None	1
1.7	2015_Aug_06_1353	s	s	17	3	SIC	271	ABS	2	0	24VC	0	1	0.488044977188	None	None	None	None	1
1.7	2015_Aug_06_1353	s	s	17	3	SIC	272	ABS	1	1	24MO	0	1	2.96047401428	None	None	None	None	1
1.7	2015_Aug_06_1353	s	s	17	3	SIC	273	ABS	2	0	24VC	0	1	0.502253055573	None	None	None	None	1
1.7	2015_Aug_06_1353	s	s	17	3	SIC	274	RC	2	0	23VC	1	0	16.0847370625	-319.0	-380.0	-314	-381	1
1.7	2015_Aug_06_1353	s	s	17	3	SIC	275	RC	0	1	23RO	1	0	8.66933298111	-447.0	-346.0	-454	-353	1
1.7	2015_Aug_06_1353	s	s	17	3	SIC	276	RC	1	1	23MO	1	0	1.18582105637	-482.0	-104.0	-490	-104	1
1.7	2015_Aug_06_1353	s	s	17	3	SIC	277	ABS	2	1	24VO	0	1	1.43047714233	None	None	None	None	1
1.7	2015_Aug_06_1353	s	s	17	3	SIC	278	RC	0	2	23RD	1	0	0.505518913269	206.0	15.0	206	19	1
1.7	2015_Aug_06_1353	s	s	17	3	SIC	279	ABS	1	1	24MO	0	1	2.31014490128	None	None	None	None	1
1.7	2015_Aug_06_1353	s	s	17	3	SIC	280	RC	1	2	23MD	1	0	0.466982841492	217.0	73.0	211	67	1
1.7	2015_Aug_06_1353	s	s	17	3	SIC	281	ABS	0	1	24RO	0	1	3.99618315697	None	None	None	None	1
1.7	2015_Aug_06_1353	s	s	17	3	SIC	282	RC	1	0	23MC	1	0	1.48838114738	-119.0	-307.0	-123	-313	1
1.7	2015_Aug_06_1353	s	s	17	3	SIC	283	ABS	1	2	24MD	0	1	0.717376947403	None	None	None	None	1
1.7	2015_Aug_06_1353	s	s	17	3	SIC	284	RC	2	1	23VO	1	0	0.517322778702	87.0	384.0	88	387	1
1.7	2015_Aug_06_1353	s	s	17	3	SIC	285	RC	2	2	23VD	1	0	0.458556175232	-57.0	-11.0	-41	-1	1
1.7	2015_Aug_06_1353	s	s	17	3	SIC	286	ABS	0	2	24RD	0	1	0.899855852127	None	None	None	None	1
1.7	2015_Aug_06_1353	s	s	17	3	SIC	287	ABS	1	0	24MC	0	1	2.797508955	None	None	None	None	1
1.7	2015_Aug_06_1353	s	s	17	3	SIC	288	ABS	2	2	24VD	0	1	0.387805938721	None	None	None	None	1
1.7	2015_Aug_06_1353	s	s	17	3	SIC	289	RC	1	1	23MO	1	0	0.524119853973	23.0	194.0	24	186	1
1.7	2015_Aug_06_1353	s	s	17	3	SIC	290	RC	0	2	23RD	1	0	2.91563200951	-412.0	131.0	-411	139	1
1.7	2015_Aug_06_1353	s	s	17	3	SIC	291	ABS	2	1	24VO	0	1	0.702353000641	None	None	None	None	1
1.7	2015_Aug_06_1353	s	s	17	3	SIC	292	ABS	0	1	24RO	0	1	4.29561710358	None	None	None	None	1
1.7	2015_Aug_06_1353	s	s	17	3	SIC	293	RC	2	1	23VO	1	0	0.411324977875	23.0	229.0	31	223	1
1.7	2015_Aug_06_1353	s	s	17	3	SIC	294	ABS	2	2	24VD	0	1	0.446609020233	None	None	None	None	1
1.7	2015_Aug_06_1353	s	s	17	3	SIC	295	ABS	2	0	24VC	0	1	0.387800931931	None	None	None	None	1
1.7	2015_Aug_06_1353	s	s	17	3	SIC	296	ABS	1	2	24MD	0	1	0.830226898193	None	None	None	None	1
1.7	2015_Aug_06_1353	s	s	17	3	SIC	297	RC	2	0	23VC	1	0	2.67504191399	-314.0	-57.0	-310	-57	1
1.7	2015_Aug_06_1353	s	s	17	3	SIC	298	RC	2	2	23VD	1	0	2.08280301094	174.0	177.0	178	179	1
1.7	2015_Aug_06_1353	s	s	17	3	SIC	299	RC	1	0	23MC	1	0	2.74837398529	-453.0	72.0	-458	70	1
1.7	2015_Aug_06_1353	s	s	17	3	SIC	300	ABS	0	2	24RD	0	1	1.14665198326	None	None	None	None	1
1.7	2015_Aug_06_1353	s	s	17	3	SIC	301	RC	1	2	23MD	1	0	0.733294963837	-349.0	380.0	-349	372	1
1.7	2015_Aug_06_1353	s	s	17	3	SIC	302	ABS	1	1	24MO	0	1	1.31222605705	None	None	None	None	1
1.7	2015_Aug_06_1353	s	s	17	3	SIC	303	ABS	1	0	24MC	0	1	4.04547095299	None	None	None	None	1
1.7	2015_Aug_06_1353	s	s	17	3	SIC	304	RC	0	1	23RO	1	0	10.2749900818	202.0	400.0	205	402	1
1.7	2015_Aug_06_1353	s	s	17	3	SIC	305	RC	2	1	23VO	1	0	3.44824290276	-213.0	8.0	-215	6	1
1.7	2015_Aug_06_1353	s	s	17	3	SIC	306	ABS	1	0	24MC	0	1	6.44965291023	None	None	None	None	1
1.7	2015_Aug_06_1353	s	s	17	3	SIC	307	ABS	2	0	24VC	0	1	1.50603985786	None	None	None	None	1
1.7	2015_Aug_06_1353	s	s	17	3	SIC	308	ABS	1	1	24MO	0	1	4.00135803223	None	None	None	None	1
1.7	2015_Aug_06_1353	s	s	17	3	SIC	309	ABS	2	2	24VD	0	1	0.429875850677	None	None	None	None	1
1.7	2015_Aug_06_1353	s	s	17	3	SIC	310	RC	1	0	23MC	1	0	0.818809986115	-206.0	-380.0	-196	-378	1
1.7	2015_Aug_06_1353	s	s	17	3	SIC	311	ABS	1	2	24MD	0	1	0.618067979813	None	None	None	None	1
1.7	2015_Aug_06_1353	s	s	17	3	SIC	312	ABS	0	1	24RO	0	1	3.64829707146	None	None	None	None	1
1.7	2015_Aug_06_1353	s	s	17	3	SIC	313	RC	1	1	23MO	1	0	1.08904290199	-234.0	-88.0	-229	-81	1
1.7	2015_Aug_06_1353	s	s	17	3	SIC	314	RC	2	2	23VD	1	0	0.420161962509	178.0	-215.0	184	-221	1
1.7	2015_Aug_06_1353	s	s	17	3	SIC	315	RC	0	2	23RD	1	0	0.599671840668	-132.0	-131.0	-139	-136	1
1.7	2015_Aug_06_1353	s	s	17	3	SIC	316	ABS	0	2	24RD	0	1	0.599687814713	None	None	None	None	1
1.7	2015_Aug_06_1353	s	s	17	3	SIC	317	RC	0	1	23RO	1	0	3.89022707939	150.0	-278.0	158	-282	1
1.7	2015_Aug_06_1353	s	s	17	3	SIC	318	RC	2	0	23VC	1	0	10.5054271221	-334.0	-21.0	-338	-24	1
1.7	2015_Aug_06_1353	s	s	17	3	SIC	319	ABS	2	1	24VO	0	1	2.63060808182	None	None	None	None	1
1.7	2015_Aug_06_1353	s	s	17	3	SIC	320	RC	1	2	23MD	1	0	6.69676685333	48.0	68.0	56	70	1
1.7	2015_Aug_06_1353	s	s	17	3	SIC	321	RC	1	0	23MC	1	0	3.11350798607	400.0	-391.0	399	-395	1
1.7	2015_Aug_06_1353	s	s	17	3	SIC	322	ABS	1	2	24MD	0	1	0.517246961594	None	None	None	None	1
1.7	2015_Aug_06_1353	s	s	17	3	SIC	323	ABS	2	0	24VC	0	1	0.411379098892	None	None	None	None	1
1.7	2015_Aug_06_1353	s	s	17	3	SIC	324	ABS	0	2	24RD	0	1	1.12939596176	None	None	None	None	1
1.7	2015_Aug_06_1353	s	s	17	3	SIC	325	RC	2	1	23VO	1	0	0.470227956772	257.0	224.0	261	228	1
1.7	2015_Aug_06_1353	s	s	17	3	SIC	326	ABS	2	1	24VO	0	1	0.423377037048	None	None	None	None	1
1.7	2015_Aug_06_1353	s	s	17	3	SIC	327	RC	0	2	23RD	1	0	0.451746940613	-378.0	14.0	-369	19	1
1.7	2015_Aug_06_1353	s	s	17	3	SIC	328	ABS	0	1	24RO	0	1	4.27203798294	None	None	None	None	1
1.7	2015_Aug_06_1353	s	s	17	3	SIC	329	ABS	1	1	24MO	0	1	2.8301820755	None	None	None	None	1
1.7	2015_Aug_06_1353	s	s	17	3	SIC	330	RC	1	2	23MD	1	0	0.635042905807	502.0	-8.0	500	-1	1
1.7	2015_Aug_06_1353	s	s	17	3	SIC	331	RC	2	0	23VC	1	0	0.564349889755	-528.0	167.0	-522	169	1
1.7	2015_Aug_06_1353	s	s	17	3	SIC	332	ABS	1	0	24MC	0	1	4.38975596428	None	None	None	None	1
1.7	2015_Aug_06_1353	s	s	17	3	SIC	333	RC	2	2	23VD	1	0	0.481968164444	431.0	-233.0	426	-242	1
1.7	2015_Aug_06_1353	s	s	17	3	SIC	334	RC	1	1	23MO	1	0	1.05875897408	-418.0	-246.0	-418	-257	1
1.7	2015_Aug_06_1353	s	s	17	3	SIC	335	RC	0	1	23RO	1	0	2.34173488617	229.0	-273.0	225	-276	1
1.7	2015_Aug_06_1353	s	s	17	3	SIC	336	ABS	2	2	24VD	0	1	0.513591051102	None	None	None	None	1
1.7	2015_Aug_06_1353	s	s	17	3	SIC	337	RC	1	0	23MC	1	0	0.87685418129	-138.0	-198.0	-125	-192	1
1.7	2015_Aug_06_1353	s	s	17	3	SIC	338	RC	2	2	23VD	1	0	0.493711948395	-502.0	-390.0	-504	-397	1
1.7	2015_Aug_06_1353	s	s	17	3	SIC	339	RC	1	1	23MO	0	1	2.24793815613	507.0	-273.0	None	None	0
1.7	2015_Aug_06_1353	s	s	17	3	SIC	340	ABS	2	1	24VO	0	1	0.725346088409	None	None	None	None	1
1.7	2015_Aug_06_1353	s	s	17	3	SIC	341	ABS	1	2	24MD	0	1	0.70565199852	None	None	None	None	1
1.7	2015_Aug_06_1353	s	s	17	3	SIC	342	ABS	2	0	24VC	0	1	0.852653980255	None	None	None	None	1
1.7	2015_Aug_06_1353	s	s	17	3	SIC	343	ABS	0	2	24RD	0	1	0.740948915482	None	None	None	None	1
1.7	2015_Aug_06_1353	s	s	17	3	SIC	344	ABS	1	1	24MO	0	1	3.05970096588	None	None	None	None	1
1.7	2015_Aug_06_1353	s	s	17	3	SIC	345	RC	2	0	23VC	1	0	0.512459039688	-180.0	115.0	-180	124	1
1.7	2015_Aug_06_1353	s	s	17	3	SIC	346	ABS	2	2	24VD	0	1	0.576170921326	None	None	None	None	1
1.7	2015_Aug_06_1353	s	s	17	3	SIC	347	RC	2	1	23VO	1	0	0.658607006073	443.0	266.0	434	264	1
1.7	2015_Aug_06_1353	s	s	17	3	SIC	348	RC	0	2	23RD	1	0	0.700719118118	-6.0	20.0	3	19	1
1.7	2015_Aug_06_1353	s	s	17	3	SIC	349	RC	0	1	23RO	0	1	2.95328903198	353.0	239.0	None	None	0
1.7	2015_Aug_06_1353	s	s	17	3	SIC	350	RC	1	2	23MD	1	0	0.830180883408	407.0	-232.0	404	-240	1
1.7	2015_Aug_06_1353	s	s	17	3	SIC	351	ABS	1	0	24MC	0	1	3.06701493263	None	None	None	None	1
1.7	2015_Aug_06_1353	s	s	17	3	SIC	352	ABS	0	1	24RO	0	1	3.01798200607	None	None	None	None	1
1.7	2015_Aug_06_1353	s	s	17	3	SIC	353	ABS	2	2	24VD	0	1	14.7778761387	None	None	None	None	1
1.7	2015_Aug_06_1353	s	s	17	3	SIC	354	RC	1	0	23MC	1	0	9.78904390335	-54.0	356.0	-47	358	1
1.7	2015_Aug_06_1353	s	s	17	3	SIC	355	RC	1	2	23MD	1	0	1.57659387589	517.0	-340.0	523	-344	1
1.7	2015_Aug_06_1353	s	s	17	3	SIC	356	RC	2	0	23VC	1	0	0.406347990036	236.0	140.0	242	137	1
1.7	2015_Aug_06_1353	s	s	17	3	SIC	357	RC	2	1	23VO	1	0	0.418285131454	11.0	177.0	18	175	1
1.7	2015_Aug_06_1353	s	s	17	3	SIC	358	RC	1	1	23MO	1	0	0.846800088882	-42.0	-54.0	-42	-44	1
1.7	2015_Aug_06_1353	s	s	17	3	SIC	359	ABS	2	1	24VO	0	1	0.547469139099	None	None	None	None	1
1.7	2015_Aug_06_1353	s	s	17	3	SIC	360	ABS	1	1	24MO	0	1	3.26656198502	None	None	None	None	1
1.7	2015_Aug_06_1353	s	s	17	3	SIC	361	RC	0	1	23RO	1	0	0.940998077393	-297.0	84.0	-294	77	1
1.7	2015_Aug_06_1353	s	s	17	3	SIC	362	RC	2	2	23VD	1	0	0.441585063934	-508.0	-112.0	-510	-106	1
1.7	2015_Aug_06_1353	s	s	17	3	SIC	363	RC	0	2	23RD	1	0	0.500646114349	439.0	25.0	445	26	1
1.7	2015_Aug_06_1353	s	s	17	3	SIC	364	ABS	0	2	24RD	0	1	0.608865022659	None	None	None	None	1
1.7	2015_Aug_06_1353	s	s	17	3	SIC	365	ABS	0	1	24RO	0	1	3.42467093468	None	None	None	None	1
1.7	2015_Aug_06_1353	s	s	17	3	SIC	366	ABS	1	0	24MC	1	0	0.58319401741	None	None	-29	-30	0
1.7	2015_Aug_06_1353	s	s	17	3	SIC	367	ABS	2	0	24VC	0	1	0.514834165573	None	None	None	None	1
1.7	2015_Aug_06_1353	s	s	17	3	SIC	368	ABS	1	2	24MD	0	1	1.50608515739	None	None	None	None	1
1.7	2015_Aug_06_1353	s	s	17	3	SIC	369	RC	0	1	23RO	1	0	1.55335998535	-418.0	-128.0	-414	-137	1
1.7	2015_Aug_06_1353	s	s	17	3	SIC	370	ABS	1	0	24MC	0	1	7.43835520744	None	None	None	None	1
1.7	2015_Aug_06_1353	s	s	17	3	SIC	371	ABS	0	1	24RO	0	1	2.54183483124	None	None	None	None	1
1.7	2015_Aug_06_1353	s	s	17	3	SIC	372	RC	2	2	23VD	0	1	2.97731590271	-510.0	-121.0	None	None	0
1.7	2015_Aug_06_1353	s	s	17	3	SIC	373	ABS	1	2	24MD	0	1	0.653064966202	None	None	None	None	1
1.7	2015_Aug_06_1353	s	s	17	3	SIC	374	ABS	2	0	24VC	0	1	1.18342804909	None	None	None	None	1
1.7	2015_Aug_06_1353	s	s	17	3	SIC	375	RC	2	1	23VO	1	0	0.465070009232	-74.0	-28.0	-69	-25	1
1.7	2015_Aug_06_1353	s	s	17	3	SIC	376	RC	1	0	23MC	0	1	2.51587605476	535.0	235.0	None	None	0
1.7	2015_Aug_06_1353	s	s	17	3	SIC	377	ABS	1	1	24MO	0	1	2.07685303688	None	None	None	None	1
1.7	2015_Aug_06_1353	s	s	17	3	SIC	378	RC	1	2	23MD	1	0	0.441591978073	-421.0	205.0	-413	210	1
1.7	2015_Aug_06_1353	s	s	17	3	SIC	379	ABS	2	1	24VO	0	1	0.494256019592	None	None	None	None	1
1.7	2015_Aug_06_1353	s	s	17	3	SIC	380	ABS	2	2	24VD	0	1	0.464551925659	None	None	None	None	1
1.7	2015_Aug_06_1353	s	s	17	3	SIC	381	RC	1	1	23MO	1	0	0.608699083328	2.0	-2.0	10	-5	1
1.7	2015_Aug_06_1353	s	s	17	3	SIC	382	RC	2	0	23VC	1	0	0.723184108734	380.0	-154.0	373	-145	1
1.7	2015_Aug_06_1353	s	s	17	3	SIC	383	ABS	0	2	24RD	0	1	1.19998407364	None	None	None	None	1
1.7	2015_Aug_06_1353	s	s	17	3	SIC	384	RC	0	2	23RD	1	0	0.572499990463	301.0	340.0	310	342	1
1.7	2015_Aug_06_1353	s	s	17	3	SIC	385	ABS	1	0	24MC	0	1	3.7509469986	None	None	None	None	1
1.7	2015_Aug_06_1353	s	s	17	3	SIC	386	ABS	2	0	24VC	0	1	0.50549197197	None	None	None	None	1
1.7	2015_Aug_06_1353	s	s	17	3	SIC	387	ABS	0	1	24RO	0	1	3.73104906082	None	None	None	None	1
1.7	2015_Aug_06_1353	s	s	17	3	SIC	388	RC	0	2	23RD	1	0	0.582860946655	514.0	-273.0	522	-274	1
1.7	2015_Aug_06_1353	s	s	17	3	SIC	389	RC	2	2	23VD	1	0	0.429864883423	-535.0	-195.0	-535	-189	1
1.7	2015_Aug_06_1353	s	s	17	3	SIC	390	ABS	2	2	24VD	0	1	0.458842992783	None	None	None	None	1
1.7	2015_Aug_06_1353	s	s	17	3	SIC	391	ABS	1	1	24MO	0	1	2.48290109634	None	None	None	None	1
1.7	2015_Aug_06_1353	s	s	17	3	SIC	392	RC	2	1	23VO	1	0	0.494189977646	-268.0	-134.0	-267	-131	1
1.7	2015_Aug_06_1353	s	s	17	3	SIC	393	RC	1	2	23MD	1	0	0.488468885422	-91.0	-131.0	-80	-129	1
1.7	2015_Aug_06_1353	s	s	17	3	SIC	394	RC	1	1	23MO	1	0	1.4706029892	282.0	203.0	279	211	1
1.7	2015_Aug_06_1353	s	s	17	3	SIC	395	RC	0	1	23RO	0	1	3.61288881302	520.0	92.0	None	None	0
1.7	2015_Aug_06_1353	s	s	17	3	SIC	396	ABS	0	2	24RD	0	1	0.805905818939	None	None	None	None	1
1.7	2015_Aug_06_1353	s	s	17	3	SIC	397	ABS	1	2	24MD	0	1	0.702262878418	None	None	None	None	1
1.7	2015_Aug_06_1353	s	s	17	3	SIC	398	RC	1	0	23MC	1	0	1.53551197052	-6.0	304.0	-17	311	1
1.7	2015_Aug_06_1353	s	s	17	3	SIC	399	ABS	2	1	24VO	0	1	11.7531650066	None	None	None	None	1
1.7	2015_Aug_06_1353	s	s	17	3	SIC	400	RC	2	0	23VC	1	0	0.458815813065	-440.0	329.0	-437	320	1
1.7	2015_Aug_06_1353	s	s	17	3	SIC	401	RC	0	2	23RD	1	0	1.3883061409	380.0	221.0	384	217	1
1.7	2015_Aug_06_1353	s	s	17	3	SIC	402	ABS	1	0	24MC	0	1	2.95377397537	None	None	None	None	1
1.7	2015_Aug_06_1353	s	s	17	3	SIC	403	ABS	1	2	24MD	0	1	0.641841888428	None	None	None	None	1
1.7	2015_Aug_06_1353	s	s	17	3	SIC	404	RC	0	1	23RO	1	0	3.46627616882	-119.0	-247.0	-115	-248	1
1.7	2015_Aug_06_1353	s	s	17	3	SIC	405	ABS	0	2	24RD	0	1	1.85907292366	None	None	None	None	1
1.7	2015_Aug_06_1353	s	s	17	3	SIC	406	RC	1	2	23MD	1	0	0.453511953354	39.0	204.0	35	204	1
1.7	2015_Aug_06_1353	s	s	17	3	SIC	407	ABS	2	2	24VD	0	1	0.399548053741	None	None	None	None	1
1.7	2015_Aug_06_1353	s	s	17	3	SIC	408	RC	1	1	23MO	1	0	0.912461996078	-212.0	376.0	-209	377	1
1.7	2015_Aug_06_1353	s	s	17	3	SIC	409	ABS	2	0	24VC	0	1	0.479072093964	None	None	None	None	1
1.7	2015_Aug_06_1353	s	s	17	3	SIC	410	ABS	2	1	24VO	0	1	0.564327955246	None	None	None	None	1
1.7	2015_Aug_06_1353	s	s	17	3	SIC	411	ABS	0	1	24RO	0	1	4.26704001427	None	None	None	None	1
1.7	2015_Aug_06_1353	s	s	17	3	SIC	412	RC	2	1	23VO	1	0	0.505526065826	-90.0	-339.0	-87	-338	1
1.7	2015_Aug_06_1353	s	s	17	3	SIC	413	ABS	1	1	24MO	0	1	1.55307602882	None	None	None	None	1
1.7	2015_Aug_06_1353	s	s	17	3	SIC	414	RC	1	0	23MC	1	0	0.823596000671	-74.0	-327.0	-73	-330	1
1.7	2015_Aug_06_1353	s	s	17	3	SIC	415	RC	2	2	23VD	1	0	0.489343166351	24.0	8.0	19	16	1
1.7	2015_Aug_06_1353	s	s	17	3	SIC	416	RC	2	0	23VC	1	0	0.493871927261	33.0	352.0	43	354	1
1.7	2015_Aug_06_1353	s	s	17	3	SIC	417	RC	0	2	23RD	1	0	0.599745035172	-100.0	-142.0	-100	-148	1
1.7	2015_Aug_06_1353	s	s	17	3	SIC	418	ABS	1	2	24MD	0	1	1.40679001808	None	None	None	None	1
1.7	2015_Aug_06_1353	s	s	17	3	SIC	419	RC	1	2	23MD	1	0	0.608117818832	376.0	-190.0	374	-189	1
1.7	2015_Aug_06_1353	s	s	17	3	SIC	420	ABS	2	1	24VO	0	1	0.382938146591	None	None	None	None	1
1.7	2015_Aug_06_1353	s	s	17	3	SIC	421	RC	2	1	23VO	1	0	0.458373069763	302.0	-153.0	295	-153	1
1.7	2015_Aug_06_1353	s	s	17	3	SIC	422	ABS	2	0	24VC	0	1	0.458782911301	None	None	None	None	1
1.7	2015_Aug_06_1353	s	s	17	3	SIC	423	ABS	2	2	24VD	0	1	0.51219701767	None	None	None	None	1
1.7	2015_Aug_06_1353	s	s	17	3	SIC	424	RC	0	1	23RO	1	0	2.32191109657	-256.0	-29.0	-263	-34	1
1.7	2015_Aug_06_1353	s	s	17	3	SIC	425	ABS	0	1	24RO	0	1	3.93722105026	None	None	None	None	1
1.7	2015_Aug_06_1353	s	s	17	3	SIC	426	ABS	1	1	24MO	0	1	3.8519217968	None	None	None	None	1
1.7	2015_Aug_06_1353	s	s	17	3	SIC	427	RC	1	1	23MO	1	0	1.38826918602	-164.0	-102.0	-167	-106	1
1.7	2015_Aug_06_1353	s	s	17	3	SIC	428	RC	2	0	23VC	1	0	0.453164100647	-425.0	-352.0	-432	-354	1
1.7	2015_Aug_06_1353	s	s	17	3	SIC	429	ABS	0	2	24RD	0	1	1.24226808548	None	None	None	None	1
1.7	2015_Aug_06_1353	s	s	17	3	SIC	430	RC	1	0	23MC	1	0	2.10634303093	-173.0	-240.0	-168	-240	1
1.7	2015_Aug_06_1353	s	s	17	3	SIC	431	ABS	1	0	24MC	0	1	2.38618898392	None	None	None	None	1
1.7	2015_Aug_06_1353	s	s	17	3	SIC	432	RC	2	2	23VD	1	0	0.458352804184	-19.0	85.0	-21	88	1
1.7	2015_Aug_06_1353	s	s	17	3	SIC	433	ABS	1	0	24MC	0	1	3.69061589241	None	None	None	None	1
1.7	2015_Aug_06_1353	s	s	17	3	SIC	434	RC	1	2	23MD	1	0	0.540796995163	-231.0	-163.0	-236	-165	1
1.7	2015_Aug_06_1353	s	s	17	3	SIC	435	ABS	0	2	24RD	0	1	0.84050989151	None	None	None	None	1
1.7	2015_Aug_06_1353	s	s	17	3	SIC	436	ABS	2	0	24VC	0	1	0.493716955185	None	None	None	None	1
1.7	2015_Aug_06_1353	s	s	17	3	SIC	437	RC	2	2	23VD	1	0	0.465011119843	-239.0	250.0	-234	258	1
1.7	2015_Aug_06_1353	s	s	17	3	SIC	438	RC	2	0	23VC	1	0	0.394744873047	-251.0	274.0	-244	283	1
1.7	2015_Aug_06_1353	s	s	17	3	SIC	439	RC	0	2	23RD	1	0	0.512419939041	386.0	328.0	385	337	1
1.7	2015_Aug_06_1353	s	s	17	3	SIC	440	ABS	0	1	24RO	0	1	3.80806016922	None	None	None	None	1
1.7	2015_Aug_06_1353	s	s	17	3	SIC	441	RC	2	1	23VO	1	0	0.406331062317	-465.0	-347.0	-463	-353	1
1.7	2015_Aug_06_1353	s	s	17	3	SIC	442	ABS	1	2	24MD	0	1	0.559201002121	None	None	None	None	1
1.7	2015_Aug_06_1353	s	s	17	3	SIC	443	RC	1	0	23MC	1	0	2.61242604256	-13.0	-49.0	-15	-48	1
1.7	2015_Aug_06_1353	s	s	17	3	SIC	444	RC	0	1	23RO	0	1	3.02442193031	-418.0	-298.0	None	None	0
1.7	2015_Aug_06_1353	s	s	17	3	SIC	445	ABS	2	2	24VD	0	1	0.419803142548	None	None	None	None	1
1.7	2015_Aug_06_1353	s	s	17	3	SIC	446	ABS	1	1	24MO	0	1	3.95961213112	None	None	None	None	1
1.7	2015_Aug_06_1353	s	s	17	3	SIC	447	ABS	2	1	24VO	0	1	0.399523973465	None	None	None	None	1
1.7	2015_Aug_06_1353	s	s	17	3	SIC	448	RC	1	1	23MO	1	0	0.961902856827	451.0	91.0	451	91	1
1.7	2015_Aug_06_1353	s	s	17	3	SIC	449	RC	1	0	23MC	1	0	1.77676820755	-464.0	-335.0	-469	-342	1
1.7	2015_Aug_06_1353	s	s	17	3	SIC	450	RC	2	0	23VC	1	0	0.432720899582	289.0	7.0	292	-6	1
1.7	2015_Aug_06_1353	s	s	17	3	SIC	451	RC	2	1	23VO	1	0	0.394721031189	-92.0	87.0	-82	88	1
1.7	2015_Aug_06_1353	s	s	17	3	SIC	452	ABS	0	1	24RO	0	1	3.96047997475	None	None	None	None	1
1.7	2015_Aug_06_1353	s	s	17	3	SIC	453	ABS	0	2	24RD	0	1	0.835072994232	None	None	None	None	1
1.7	2015_Aug_06_1353	s	s	17	3	SIC	454	ABS	1	1	24MO	0	1	3.16154694557	None	None	None	None	1
1.7	2015_Aug_06_1353	s	s	17	3	SIC	455	ABS	1	0	24MC	0	1	3.28105211258	None	None	None	None	1
1.7	2015_Aug_06_1353	s	s	17	3	SIC	456	ABS	2	2	24VD	0	1	0.947880983353	None	None	None	None	1
1.7	2015_Aug_06_1353	s	s	17	3	SIC	457	RC	2	2	23VD	1	0	0.587876796722	-30.0	384.0	-21	381	1
1.7	2015_Aug_06_1353	s	s	17	3	SIC	458	RC	0	1	23RO	1	0	3.91893482208	-377.0	315.0	-377	309	1
1.7	2015_Aug_06_1353	s	s	17	3	SIC	459	RC	1	2	23MD	1	0	0.858769893646	473.0	-213.0	479	-217	1
1.7	2015_Aug_06_1353	s	s	17	3	SIC	460	RC	1	1	23MO	1	0	0.745073080063	-365.0	-81.0	-366	-81	1
1.7	2015_Aug_06_1353	s	s	17	3	SIC	461	ABS	1	2	24MD	0	1	1.55315613747	None	None	None	None	1
1.7	2015_Aug_06_1353	s	s	17	3	SIC	462	ABS	2	0	24VC	0	1	1.40381193161	None	None	None	None	1
1.7	2015_Aug_06_1353	s	s	17	3	SIC	463	RC	0	2	23RD	1	0	0.434864044189	-169.0	238.0	-170	237	1
1.7	2015_Aug_06_1353	s	s	17	3	SIC	464	ABS	2	1	24VO	0	1	0.544718027115	None	None	None	None	1
1.7	2015_Aug_06_1353	s	s	17	3	SIC	465	RC	0	2	23RD	1	0	9.69836902618	-105.0	231.0	-109	235	1
1.7	2015_Aug_06_1353	s	s	17	3	SIC	466	RC	2	1	23VO	0	1	7.7443959713	498.0	290.0	None	None	0
1.7	2015_Aug_06_1353	s	s	17	3	SIC	467	ABS	2	2	24VD	0	1	0.587843894958	None	None	None	None	1
1.7	2015_Aug_06_1353	s	s	17	3	SIC	468	RC	2	0	23VC	1	0	0.517712831497	-170.0	-394.0	-178	-397	1
1.7	2015_Aug_06_1353	s	s	17	3	SIC	469	RC	1	0	23MC	1	0	1.67757987976	419.0	-195.0	417	-195	1
1.7	2015_Aug_06_1353	s	s	17	3	SIC	470	ABS	2	1	24VO	0	1	0.500901937485	None	None	None	None	1
1.7	2015_Aug_06_1353	s	s	17	3	SIC	471	RC	1	1	23MO	1	0	0.77115893364	-510.0	-85.0	-509	-89	1
1.7	2015_Aug_06_1353	s	s	17	3	SIC	472	ABS	0	2	24RD	0	1	0.999888896942	None	None	None	None	1
1.7	2015_Aug_06_1353	s	s	17	3	SIC	473	RC	1	2	23MD	1	0	0.505436897278	37.0	-78.0	45	-79	1
1.7	2015_Aug_06_1353	s	s	17	3	SIC	474	ABS	1	1	24MO	0	1	3.10675692558	None	None	None	None	1
1.7	2015_Aug_06_1353	s	s	17	3	SIC	475	ABS	2	0	24VC	0	1	0.406565904617	None	None	None	None	1
1.7	2015_Aug_06_1353	s	s	17	3	SIC	476	RC	0	1	23RO	0	1	5.09112501144	350.0	103.0	None	None	0
1.7	2015_Aug_06_1353	s	s	17	3	SIC	477	RC	2	2	23VD	1	0	0.929282903671	352.0	-351.0	349	-354	1
1.7	2015_Aug_06_1353	s	s	17	3	SIC	478	ABS	0	1	24RO	0	1	3.28002381325	None	None	None	None	1
1.7	2015_Aug_06_1353	s	s	17	3	SIC	479	ABS	1	0	24MC	0	1	3.28096294403	None	None	None	None	1
1.7	2015_Aug_06_1353	s	s	17	3	SIC	480	ABS	1	2	24MD	0	1	1.18819093704	None	None	None	None	1
1.7	2015_Aug_06_1353	s	s	17	3	SIC	481	ABS	2	1	24VO	0	1	0.587926149368	None	None	None	None	1
1.7	2015_Aug_06_1353	s	s	17	3	SIC	482	ABS	1	0	24MC	0	1	4.64868283272	None	None	None	None	1
1.7	2015_Aug_06_1353	s	s	17	3	SIC	483	ABS	1	1	24MO	0	1	3.93067216873	None	None	None	None	1
1.7	2015_Aug_06_1353	s	s	17	3	SIC	484	RC	2	1	23VO	1	0	0.65894818306	269.0	27.0	275	24	1
1.7	2015_Aug_06_1353	s	s	17	3	SIC	485	RC	2	0	23VC	1	0	3.26718902588	282.0	-384.0	282	-381	1
1.7	2015_Aug_06_1353	s	s	17	3	SIC	486	RC	2	2	23VD	1	0	2.20052790642	359.0	276.0	366	269	1
1.7	2015_Aug_06_1353	s	s	17	3	SIC	487	ABS	0	2	24RD	0	1	2.27113604546	None	None	None	None	1
1.7	2015_Aug_06_1353	s	s	17	3	SIC	488	ABS	0	1	24RO	0	1	5.70813989639	None	None	None	None	1
1.7	2015_Aug_06_1353	s	s	17	3	SIC	489	RC	1	1	23MO	1	0	1.8591709137	-123.0	-77.0	-118	-81	1
1.7	2015_Aug_06_1353	s	s	17	3	SIC	490	ABS	2	0	24VC	0	1	0.529031991959	None	None	None	None	1
1.7	2015_Aug_06_1353	s	s	17	3	SIC	491	RC	1	2	23MD	1	0	0.547217130661	129.0	-105.0	126	-105	1
1.7	2015_Aug_06_1353	s	s	17	3	SIC	492	RC	0	1	23RO	1	0	1.42360806465	-451.0	190.0	-461	192	1
1.7	2015_Aug_06_1353	s	s	17	3	SIC	493	RC	1	0	23MC	1	0	1.85907292366	265.0	-378.0	276	-374	1
1.7	2015_Aug_06_1353	s	s	17	3	SIC	494	ABS	1	2	24MD	0	1	0.846852064133	None	None	None	None	1
1.7	2015_Aug_06_1353	s	s	17	3	SIC	495	RC	0	2	23RD	1	0	1.50098490715	196.0	-37.0	191	-31	1
1.7	2015_Aug_06_1353	s	s	17	3	SIC	496	ABS	2	2	24VD	0	1	0.477037191391	None	None	None	None	1
1.7	2015_Aug_06_1353	s	s	17	3	SIC	497	ABS	2	0	24VC	0	1	0.533162117004	None	None	None	None	1
1.7	2015_Aug_06_1353	s	s	17	3	SIC	498	ABS	2	2	24VD	0	1	0.500281095505	None	None	None	None	1
1.7	2015_Aug_06_1353	s	s	17	3	SIC	499	RC	0	2	23RD	1	0	0.535007953644	-513.0	-297.0	-510	-290	1
1.7	2015_Aug_06_1353	s	s	17	3	SIC	500	RC	1	1	23MO	1	0	0.882093906403	115.0	21.0	112	19	1
1.7	2015_Aug_06_1353	s	s	17	3	SIC	501	ABS	0	1	24RO	0	1	4.2603468895	None	None	None	None	1
1.7	2015_Aug_06_1353	s	s	17	3	SIC	502	ABS	2	1	24VO	0	1	0.505542993546	None	None	None	None	1
1.7	2015_Aug_06_1353	s	s	17	3	SIC	503	ABS	1	0	24MC	0	1	4.30756878853	None	None	None	None	1
1.7	2015_Aug_06_1353	s	s	17	3	SIC	504	RC	1	0	23MC	1	0	1.96500706673	-475.0	-234.0	-467	-239	1
1.7	2015_Aug_06_1353	s	s	17	3	SIC	505	RC	0	1	23RO	0	1	3.78943800926	400.0	167.0	None	None	0
1.7	2015_Aug_06_1353	s	s	17	3	SIC	506	RC	2	2	23VD	1	0	0.705780982971	519.0	273.0	522	272	1
1.7	2015_Aug_06_1353	s	s	17	3	SIC	507	ABS	1	1	24MO	0	1	3.03138995171	None	None	None	None	1
1.7	2015_Aug_06_1353	s	s	17	3	SIC	508	ABS	0	2	24RD	0	1	0.670310020447	None	None	None	None	1
1.7	2015_Aug_06_1353	s	s	17	3	SIC	509	ABS	1	2	24MD	0	1	0.658540964127	None	None	None	None	1
1.7	2015_Aug_06_1353	s	s	17	3	SIC	510	RC	2	0	23VC	1	0	0.446556091309	-18.0	212.0	-17	212	1
1.7	2015_Aug_06_1353	s	s	17	3	SIC	511	RC	2	1	23VO	1	0	0.43523478508	-414.0	57.0	-409	56	1
1.7	2015_Aug_06_1353	s	s	17	3	SIC	512	RC	1	2	23MD	1	0	0.49371099472	185.0	-240.0	178	-237	1
1.7	2015_Aug_06_1353	s	s	17	3	SIC	513	ABS	0	2	24RD	0	1	0.811539173126	None	None	None	None	1
1.7	2015_Aug_06_1353	s	s	17	3	SIC	514	ABS	2	2	24VD	0	1	0.535781145096	None	None	None	None	1
1.7	2015_Aug_06_1353	s	s	17	3	SIC	515	RC	0	1	23RO	0	1	5.59040307999	245.0	-75.0	None	None	0
1.7	2015_Aug_06_1353	s	s	17	3	SIC	516	ABS	1	0	24MC	0	1	1.92513203621	None	None	None	None	1
1.7	2015_Aug_06_1353	s	s	17	3	SIC	517	RC	1	2	23MD	1	0	0.423134803772	156.0	-37.0	154	-27	1
1.7	2015_Aug_06_1353	s	s	17	3	SIC	518	ABS	0	1	24RO	0	1	3.36094093323	None	None	None	None	1
1.7	2015_Aug_06_1353	s	s	17	3	SIC	519	ABS	1	2	24MD	0	1	1.25879096985	None	None	None	None	1
1.7	2015_Aug_06_1353	s	s	17	3	SIC	520	RC	0	2	23RD	1	0	0.653788805008	69.0	51.0	61	54	1
1.7	2015_Aug_06_1353	s	s	17	3	SIC	521	RC	1	0	23MC	1	0	1.2311091423	26.0	-100.0	19	-99	1
1.7	2015_Aug_06_1353	s	s	17	3	SIC	522	ABS	2	1	24VO	0	1	0.488820075989	None	None	None	None	1
1.7	2015_Aug_06_1353	s	s	17	3	SIC	523	RC	2	1	23VO	1	0	0.42986702919	334.0	116.0	332	103	1
1.7	2015_Aug_06_1353	s	s	17	3	SIC	524	RC	1	1	23MO	1	0	0.846744060516	92.0	336.0	95	329	1
1.7	2015_Aug_06_1353	s	s	17	3	SIC	525	ABS	1	1	24MO	0	1	4.6957950592	None	None	None	None	1
1.7	2015_Aug_06_1353	s	s	17	3	SIC	526	RC	2	0	23VC	1	0	0.564387083054	362.0	22.0	368	14	1
1.7	2015_Aug_06_1353	s	s	17	3	SIC	527	ABS	2	0	24VC	0	1	0.583611965179	None	None	None	None	1
1.7	2015_Aug_06_1353	s	s	17	3	SIC	528	RC	2	2	23VD	1	0	0.431199073792	-451.0	236.0	-448	234	1
1.7	2015_Aug_06_1353	s	s	17	3	SIC	529	RC	2	0	23VC	1	0	0.599714994431	-50.0	407.0	-56	399	1
1.7	2015_Aug_06_1353	s	s	17	3	SIC	530	ABS	0	1	24RO	0	1	10.3877720833	None	None	None	None	1
1.7	2015_Aug_06_1353	s	s	17	3	SIC	531	RC	1	1	23MO	1	0	8.42204213142	-231.0	72.0	-229	68	1
1.7	2015_Aug_06_1353	s	s	17	3	SIC	532	RC	1	0	23MC	1	0	10.2199931145	289.0	274.0	294	268	1
1.7	2015_Aug_06_1353	s	s	17	3	SIC	533	RC	0	1	23RO	1	0	4.77827000618	61.0	108.0	61	107	1
1.7	2015_Aug_06_1353	s	s	17	3	SIC	534	RC	1	2	23MD	1	0	0.477564096451	423.0	201.0	425	203	1
1.7	2015_Aug_06_1353	s	s	17	3	SIC	535	ABS	2	2	24VD	1	0	0.493720054626	None	None	-107	-16	0
1.7	2015_Aug_06_1353	s	s	17	3	SIC	536	ABS	0	2	24RD	0	1	1.1175699234	None	None	None	None	1
1.7	2015_Aug_06_1353	s	s	17	3	SIC	537	ABS	2	0	24VC	0	1	0.446666955948	None	None	None	None	1
1.7	2015_Aug_06_1353	s	s	17	3	SIC	538	RC	0	2	23RD	1	0	0.559228897095	284.0	369.0	281	368	1
1.7	2015_Aug_06_1353	s	s	17	3	SIC	539	RC	2	2	23VD	1	0	0.470150947571	-487.0	249.0	-486	244	1
1.7	2015_Aug_06_1353	s	s	17	3	SIC	540	ABS	1	2	24MD	0	1	0.858483076096	None	None	None	None	1
1.7	2015_Aug_06_1353	s	s	17	3	SIC	541	RC	2	1	23VO	1	0	0.512302875519	-107.0	-405.0	-102	-410	1
1.7	2015_Aug_06_1353	s	s	17	3	SIC	542	ABS	2	1	24VO	0	1	0.415076971054	None	None	None	None	1
1.7	2015_Aug_06_1353	s	s	17	3	SIC	543	ABS	1	0	24MC	0	1	3.32533597946	None	None	None	None	1
1.7	2015_Aug_06_1353	s	s	17	3	SIC	544	ABS	1	1	24MO	0	1	3.98562717438	None	None	None	None	1
1.7	2015_Aug_06_1353	s	s	17	3	SIC	545	RC	1	2	23MD	1	0	0.517252922058	374.0	137.0	380	133	1
1.7	2015_Aug_06_1353	s	s	17	3	SIC	546	RC	0	1	23RO	1	0	1.3883690834	140.0	-82.0	137	-92	1
1.7	2015_Aug_06_1353	s	s	17	3	SIC	547	ABS	1	0	24MC	0	1	3.5187060833	None	None	None	None	1
1.7	2015_Aug_06_1353	s	s	17	3	SIC	548	RC	2	2	23VD	1	0	0.450335979462	-140.0	-275.0	-128	-270	1
1.7	2015_Aug_06_1353	s	s	17	3	SIC	549	ABS	1	2	24MD	0	1	0.700672864914	None	None	None	None	1
1.7	2015_Aug_06_1353	s	s	17	3	SIC	550	RC	0	2	23RD	1	0	0.442904949188	394.0	310.0	390	307	1
1.7	2015_Aug_06_1353	s	s	17	3	SIC	551	ABS	2	1	24VO	0	1	0.64181303978	None	None	None	None	1
1.7	2015_Aug_06_1353	s	s	17	3	SIC	552	RC	1	1	23MO	1	0	0.988510131836	-352.0	29.0	-353	32	1
1.7	2015_Aug_06_1353	s	s	17	3	SIC	553	ABS	2	2	24VD	0	1	0.576401948929	None	None	None	None	1
1.7	2015_Aug_06_1353	s	s	17	3	SIC	554	RC	1	0	23MC	1	0	0.737514019012	-515.0	218.0	-515	222	1
1.7	2015_Aug_06_1353	s	s	17	3	SIC	555	RC	2	0	23VC	1	0	0.430845022202	356.0	-108.0	350	-104	1
1.7	2015_Aug_06_1353	s	s	17	3	SIC	556	RC	2	1	23VO	1	0	0.470226049423	-171.0	-257.0	-163	-254	1
1.7	2015_Aug_06_1353	s	s	17	3	SIC	557	ABS	0	1	24RO	0	1	4.78536176682	None	None	None	None	1
1.7	2015_Aug_06_1353	s	s	17	3	SIC	558	ABS	2	0	24VC	0	1	0.894187927246	None	None	None	None	1
1.7	2015_Aug_06_1353	s	s	17	3	SIC	559	ABS	1	1	24MO	0	1	3.84852600098	None	None	None	None	1
1.7	2015_Aug_06_1353	s	s	17	3	SIC	560	ABS	0	2	24RD	0	1	0.867306947708	None	None	None	None	1
1.7	2015_Aug_06_1353	s	s	17	3	SIC	561	ABS	2	1	24VO	0	1	0.394551038742	None	None	None	None	1
1.7	2015_Aug_06_1353	s	s	17	3	SIC	562	RC	1	0	23MC	1	0	0.988060951233	-323.0	-299.0	-320	-302	1
1.7	2015_Aug_06_1353	s	s	17	3	SIC	563	ABS	1	2	24MD	0	1	0.670258045197	None	None	None	None	1
1.7	2015_Aug_06_1353	s	s	17	3	SIC	564	RC	1	2	23MD	1	0	0.488821983337	-479.0	59.0	-480	50	1
1.7	2015_Aug_06_1353	s	s	17	3	SIC	565	RC	2	1	23VO	1	0	0.465245008469	198.0	-54.0	208	-56	1
1.7	2015_Aug_06_1353	s	s	17	3	SIC	566	RC	2	2	23VD	1	0	0.423170089722	521.0	132.0	517	127	1
1.7	2015_Aug_06_1353	s	s	17	3	SIC	567	RC	2	0	23VC	1	0	0.74082493782	-132.0	-289.0	-124	-294	1
1.7	2015_Aug_06_1353	s	s	17	3	SIC	568	ABS	0	1	24RO	0	1	3.26835012436	None	None	None	None	1
1.7	2015_Aug_06_1353	s	s	17	3	SIC	569	ABS	2	0	24VC	0	1	0.835102081299	None	None	None	None	1
1.7	2015_Aug_06_1353	s	s	17	3	SIC	570	ABS	1	1	24MO	0	0	-1	None	None	None	None	-1
1.7	2015_Aug_06_1353	s	s	17	3	SIC	571	RC	0	1	23RO	0	1	3.11346411705	91.0	143.0	None	None	0
1.7	2015_Aug_06_1353	s	s	17	3	SIC	572	ABS	1	0	24MC	0	1	4.54279184341	None	None	None	None	1
1.7	2015_Aug_06_1353	s	s	17	3	SIC	573	RC	1	1	23MO	1	0	1.27791500092	-180.0	-296.0	-169	-288	1
1.7	2015_Aug_06_1353	s	s	17	3	SIC	574	RC	0	2	23RD	1	0	0.547857999802	90.0	-218.0	84	-227	1
1.7	2015_Aug_06_1353	s	s	17	3	SIC	575	ABS	2	2	24VD	0	1	0.618368864059	None	None	None	None	1
1.7	2015_Aug_06_1353	s	s	17	3	SIC	576	ABS	0	2	24RD	0	1	1.84737300873	None	None	None	None	1
1.7	2015_Aug_06_1353	s	s	17	3	SIC	577	ABS	2	2	24VD	0	1	0.564398050308	None	None	None	None	1
1.7	2015_Aug_06_1353	s	s	17	3	SIC	578	ABS	2	1	24VO	0	1	0.641049146652	None	None	None	None	1
1.7	2015_Aug_06_1353	s	s	17	3	SIC	579	ABS	0	2	24RD	0	1	0.629410982132	None	None	None	None	1
1.7	2015_Aug_06_1353	s	s	17	3	SIC	580	ABS	1	0	24MC	1	0	1.74148201942	None	None	-323	-132	0
1.7	2015_Aug_06_1353	s	s	17	3	SIC	581	RC	2	1	23VO	1	0	0.5851790905	524.0	183.0	523	172	1
1.7	2015_Aug_06_1353	s	s	17	3	SIC	582	RC	2	0	23VC	1	0	0.623234033585	-377.0	-255.0	-375	-262	1
1.7	2015_Aug_06_1353	s	s	17	3	SIC	583	RC	1	0	23MC	1	0	0.882195949554	-492.0	354.0	-492	361	1
1.7	2015_Aug_06_1353	s	s	17	3	SIC	584	RC	1	1	23MO	1	0	1.58836102486	-13.0	-332.0	-13	-326	1
1.7	2015_Aug_06_1353	s	s	17	3	SIC	585	RC	2	2	23VD	1	0	0.394685029984	-356.0	-230.0	-351	-238	1
1.7	2015_Aug_06_1353	s	s	17	3	SIC	586	RC	0	1	23RO	0	1	2.39564800262	-130.0	-126.0	None	None	0
1.7	2015_Aug_06_1353	s	s	17	3	SIC	587	ABS	2	0	24VC	0	1	0.561063051224	None	None	None	None	1
1.7	2015_Aug_06_1353	s	s	17	3	SIC	588	RC	1	2	23MD	0	1	0.517359972	483.0	-394.0	None	None	0
1.7	2015_Aug_06_1353	s	s	17	3	SIC	589	ABS	1	1	24MO	0	1	2.58366012573	None	None	None	None	1
1.7	2015_Aug_06_1353	s	s	17	3	SIC	590	RC	0	2	23RD	1	0	0.599665880203	-388.0	-351.0	-385	-351	1
1.7	2015_Aug_06_1353	s	s	17	3	SIC	591	ABS	1	2	24MD	0	1	0.935745954514	None	None	None	None	1
1.7	2015_Aug_06_1353	s	s	17	3	SIC	592	ABS	0	1	24RO	0	1	5.42103886604	None	None	None	None	1
