Version	Date	Stimuli	Method	Subject	Session	Condition	Trial	Target	Channel1	Channel2	Distractors	LMouseButton	RMouseButton	RT	TargetX	TargetY	ResponseX	ResponseY	Correct
1.7	2015_Aug_06_1600	s	s	19	3	Capacity	1	RC	1	0	23MC	1	0	2.82178997993	244.0	-82.0	252	-82	1
1.7	2015_Aug_06_1600	s	s	19	3	Capacity	2	ABS	1	0	24MC	0	1	2.96231794357	None	None	None	None	1
1.7	2015_Aug_06_1600	s	s	19	3	Capacity	3	RC	2	0	23VC	1	0	0.597119092941	-27.0	26.0	-28	29	1
1.7	2015_Aug_06_1600	s	s	19	3	Capacity	4	ABS	2	0	24VC	0	1	0.747597932816	None	None	None	None	1
1.7	2015_Aug_06_1600	s	s	19	3	Capacity	5	ABS	1	0	24MC	0	1	2.13665509224	None	None	None	None	1
1.7	2015_Aug_06_1600	s	s	19	3	Capacity	6	RC	2	0	23VC	1	0	0.576138973236	-337.0	-312.0	-344	-319	1
1.7	2015_Aug_06_1600	s	s	19	3	Capacity	7	ABS	2	0	24VC	0	1	0.653532981873	None	None	None	None	1
1.7	2015_Aug_06_1600	s	s	19	3	Capacity	8	RC	1	0	23MC	1	0	0.886139154434	189.0	-259.0	197	-260	1
1.7	2015_Aug_06_1600	s	s	19	3	Capacity	9	ABS	2	0	24VC	0	1	0.547674179077	None	None	None	None	1
1.7	2015_Aug_06_1600	s	s	19	3	Capacity	10	ABS	1	0	24MC	0	1	1.39370799065	None	None	None	None	1
1.7	2015_Aug_06_1600	s	s	19	3	Capacity	11	RC	2	0	23VC	1	0	0.617969989777	136.0	50.0	132	46	1
1.7	2015_Aug_06_1600	s	s	19	3	Capacity	12	RC	1	0	23MC	1	0	2.11793208122	-425.0	286.0	-424	291	1
1.7	2015_Aug_06_1600	s	s	19	3	Capacity	13	ABS	2	0	24VC	0	1	0.729172945023	None	None	None	None	1
1.7	2015_Aug_06_1600	s	s	19	3	Capacity	14	ABS	1	0	24MC	0	1	2.14157891273	None	None	None	None	1
1.7	2015_Aug_06_1600	s	s	19	3	Capacity	15	RC	2	0	23VC	1	0	0.571208953857	257.0	401.0	251	410	1
1.7	2015_Aug_06_1600	s	s	19	3	Capacity	16	RC	1	0	23MC	1	0	0.771045923233	-104.0	285.0	-99	283	1
1.7	2015_Aug_06_1600	s	s	19	3	Capacity	17	ABS	1	0	24MC	0	1	1.83558797836	None	None	None	None	1
1.7	2015_Aug_06_1600	s	s	19	3	Capacity	18	ABS	2	0	24VC	0	1	0.573567867279	None	None	None	None	1
1.7	2015_Aug_06_1600	s	s	19	3	Capacity	19	RC	2	0	23VC	1	0	0.523581027985	425.0	-277.0	430	-284	1
1.7	2015_Aug_06_1600	s	s	19	3	Capacity	20	RC	1	0	23MC	1	0	0.760006904602	255.0	139.0	250	132	1
1.7	2015_Aug_06_1600	s	s	19	3	Capacity	21	ABS	2	0	24VC	0	1	0.559355974197	None	None	None	None	1
1.7	2015_Aug_06_1600	s	s	19	3	Capacity	22	RC	1	0	23MC	1	0	0.874110937119	-296.0	104.0	-306	108	1
1.7	2015_Aug_06_1600	s	s	19	3	Capacity	23	RC	2	0	23VC	1	0	0.477432012558	-105.0	-44.0	-104	-49	1
1.7	2015_Aug_06_1600	s	s	19	3	Capacity	24	ABS	1	0	24MC	0	1	1.83298015594	None	None	None	None	1
1.7	2015_Aug_06_1600	s	s	19	3	Capacity	25	RC	1	0	23MC	1	0	1.08228302002	-102.0	154.0	-100	159	1
1.7	2015_Aug_06_1600	s	s	19	3	Capacity	26	ABS	1	0	24MC	0	1	1.65901589394	None	None	None	None	1
1.7	2015_Aug_06_1600	s	s	19	3	Capacity	27	ABS	2	0	24VC	0	1	0.788428068161	None	None	None	None	1
1.7	2015_Aug_06_1600	s	s	19	3	Capacity	28	RC	2	0	23VC	1	0	0.529032945633	-521.0	-30.0	-513	-36	1
1.7	2015_Aug_06_1600	s	s	19	3	Capacity	29	RC	2	0	23VC	1	0	0.488648176193	-27.0	-182.0	-21	-180	1
1.7	2015_Aug_06_1600	s	s	19	3	Capacity	30	ABS	2	0	24VC	0	1	0.89989900589	None	None	None	None	1
1.7	2015_Aug_06_1600	s	s	19	3	Capacity	31	RC	1	0	23MC	1	0	0.729166984558	-67.0	19.0	-65	15	1
1.7	2015_Aug_06_1600	s	s	19	3	Capacity	32	ABS	1	0	24MC	0	1	1.80021905899	None	None	None	None	1
1.7	2015_Aug_06_1600	s	s	19	3	Capacity	33	ABS	1	0	24MC	0	1	1.90149188042	None	None	None	None	1
1.7	2015_Aug_06_1600	s	s	19	3	Capacity	34	RC	1	0	23MC	1	0	2.35370612144	-30.0	-225.0	-28	-231	1
1.7	2015_Aug_06_1600	s	s	19	3	Capacity	35	RC	2	0	23VC	1	0	0.446589946747	-175.0	-164.0	-181	-162	1
1.7	2015_Aug_06_1600	s	s	19	3	Capacity	36	ABS	2	0	24VC	0	1	0.607442855835	None	None	None	None	1
1.7	2015_Aug_06_1600	s	s	19	3	Capacity	37	RC	2	0	23VC	1	0	0.536106824875	-42.0	282.0	-35	279	1
1.7	2015_Aug_06_1600	s	s	19	3	Capacity	38	ABS	2	0	24VC	0	1	0.521867990494	None	None	None	None	1
1.7	2015_Aug_06_1600	s	s	19	3	Capacity	39	ABS	1	0	24MC	0	1	2.27930498123	None	None	None	None	1
1.7	2015_Aug_06_1600	s	s	19	3	Capacity	40	RC	1	0	23MC	1	0	2.12401413918	169.0	-372.0	173	-368	1
1.7	2015_Aug_06_1600	s	s	19	3	Capacity	41	ABS	1	0	24MC	0	1	2.12981796265	None	None	None	None	1
1.7	2015_Aug_06_1600	s	s	19	3	Capacity	42	RC	2	0	23VC	1	0	0.491014003754	300.0	-1.0	298	-6	1
1.7	2015_Aug_06_1600	s	s	19	3	Capacity	43	ABS	2	0	24VC	0	1	0.902528047562	None	None	None	None	1
1.7	2015_Aug_06_1600	s	s	19	3	Capacity	44	RC	1	0	23MC	1	0	0.641455888748	191.0	214.0	186	221	1
1.7	2015_Aug_06_1600	s	s	19	3	Capacity	45	ABS	1	0	24MC	0	1	1.98860001564	None	None	None	None	1
1.7	2015_Aug_06_1600	s	s	19	3	Capacity	46	RC	2	0	23VC	1	0	0.482043981552	-90.0	-383.0	-90	-380	1
1.7	2015_Aug_06_1600	s	s	19	3	Capacity	47	ABS	2	0	24VC	0	1	0.617113113403	None	None	None	None	1
1.7	2015_Aug_06_1600	s	s	19	3	Capacity	48	RC	1	0	23MC	1	0	0.993776798248	-417.0	328.0	-419	333	1
1.7	2015_Aug_06_1600	s	s	19	3	Capacity	49	RC	1	0	23MC	1	0	1.35300993919	26.0	352.0	21	349	1
1.7	2015_Aug_06_1600	s	s	19	3	Capacity	50	RC	2	0	23VC	1	0	0.431316137314	-334.0	347.0	-326	349	1
1.7	2015_Aug_06_1600	s	s	19	3	Capacity	51	ABS	2	0	24VC	0	1	0.642248153687	None	None	None	None	1
1.7	2015_Aug_06_1600	s	s	19	3	Capacity	52	ABS	1	0	24MC	0	1	1.477009058	None	None	None	None	1
1.7	2015_Aug_06_1600	s	s	19	3	Capacity	53	RC	2	0	23VC	1	0	0.476934909821	148.0	-294.0	140	-294	1
1.7	2015_Aug_06_1600	s	s	19	3	Capacity	54	ABS	2	0	24VC	0	1	0.523655176163	None	None	None	None	1
1.7	2015_Aug_06_1600	s	s	19	3	Capacity	55	RC	1	0	23MC	1	0	0.858628988266	-196.0	-316.0	-191	-318	1
1.7	2015_Aug_06_1600	s	s	19	3	Capacity	56	ABS	1	0	24MC	0	1	1.76169800758	None	None	None	None	1
1.7	2015_Aug_06_1600	s	s	19	3	Capacity	57	RC	2	0	23VC	1	0	0.665344953537	220.0	-159.0	216	-158	1
1.7	2015_Aug_06_1600	s	s	19	3	Capacity	58	RC	1	0	23MC	1	0	0.729241132736	454.0	99.0	461	93	1
1.7	2015_Aug_06_1600	s	s	19	3	Capacity	59	ABS	1	0	24MC	0	1	2.1487839222	None	None	None	None	1
1.7	2015_Aug_06_1600	s	s	19	3	Capacity	60	ABS	2	0	24VC	0	1	1.06564092636	None	None	None	None	1
1.7	2015_Aug_06_1600	s	s	19	3	Capacity	61	RC	1	0	23MC	1	0	1.35300517082	-60.0	179.0	-54	174	1
1.7	2015_Aug_06_1600	s	s	19	3	Capacity	62	ABS	2	0	24VC	0	1	0.60606098175	None	None	None	None	1
1.7	2015_Aug_06_1600	s	s	19	3	Capacity	63	ABS	1	0	24MC	0	1	2.2776799202	None	None	None	None	1
1.7	2015_Aug_06_1600	s	s	19	3	Capacity	64	RC	2	0	23VC	1	0	0.4181599617	242.0	336.0	236	332	1
1.7	2015_Aug_06_1600	s	s	19	3	Capacity	65	RC	1	0	23MC	1	0	1.31263804436	-133.0	232.0	-129	227	1
1.7	2015_Aug_06_1600	s	s	19	3	Capacity	66	ABS	2	0	24VC	0	1	0.552596092224	None	None	None	None	1
1.7	2015_Aug_06_1600	s	s	19	3	Capacity	67	RC	2	0	23VC	1	0	0.729092121124	-488.0	-67.0	-490	-61	1
1.7	2015_Aug_06_1600	s	s	19	3	Capacity	68	ABS	1	0	24MC	0	1	2.28934288025	None	None	None	None	1
1.7	2015_Aug_06_1600	s	s	19	3	Capacity	69	RC	2	0	23VC	1	0	0.465090036392	-466.0	370.0	-460	364	1
1.7	2015_Aug_06_1600	s	s	19	3	Capacity	70	ABS	1	0	24MC	0	1	2.05661201477	None	None	None	None	1
1.7	2015_Aug_06_1600	s	s	19	3	Capacity	71	ABS	2	0	24VC	0	1	0.505491018295	None	None	None	None	1
1.7	2015_Aug_06_1600	s	s	19	3	Capacity	72	RC	1	0	23MC	1	0	1.25885987282	322.0	348.0	326	345	1
1.7	2015_Aug_06_1600	s	s	19	3	Capacity	73	ABS	1	0	24MC	0	1	2.31817698479	None	None	None	None	1
1.7	2015_Aug_06_1600	s	s	19	3	Capacity	74	RC	1	0	23MC	1	0	0.474366903305	-191.0	281.0	-190	277	1
1.7	2015_Aug_06_1600	s	s	19	3	Capacity	75	ABS	2	0	24VC	0	1	0.523418188095	None	None	None	None	1
1.7	2015_Aug_06_1600	s	s	19	3	Capacity	76	RC	2	0	23VC	1	0	0.434850931168	-201.0	-69.0	-203	-68	1
1.7	2015_Aug_06_1600	s	s	19	3	Capacity	77	ABS	1	0	24MC	0	1	1.94835305214	None	None	None	None	1
1.7	2015_Aug_06_1600	s	s	19	3	Capacity	78	ABS	2	0	24VC	0	1	0.452043056488	None	None	None	None	1
1.7	2015_Aug_06_1600	s	s	19	3	Capacity	79	RC	2	0	23VC	1	0	0.453736782074	-376.0	-382.0	-375	-391	1
1.7	2015_Aug_06_1600	s	s	19	3	Capacity	80	RC	1	0	23MC	0	1	1.90332007408	355.0	-379.0	None	None	0
1.7	2015_Aug_06_1600	s	s	19	3	Capacity	81	RC	2	0	23VC	1	0	0.512213945389	-39.0	277.0	-37	278	1
1.7	2015_Aug_06_1600	s	s	19	3	Capacity	82	RC	1	0	23MC	1	0	0.723973035812	30.0	11.0	29	4	1
1.7	2015_Aug_06_1600	s	s	19	3	Capacity	83	ABS	1	0	24MC	0	1	1.52953290939	None	None	None	None	1
1.7	2015_Aug_06_1600	s	s	19	3	Capacity	84	ABS	2	0	24VC	0	1	0.817489862442	None	None	None	None	1
1.7	2015_Aug_06_1600	s	s	19	3	Capacity	85	ABS	1	0	24MC	0	1	1.78849411011	None	None	None	None	1
1.7	2015_Aug_06_1600	s	s	19	3	Capacity	86	ABS	2	0	24VC	0	1	0.499876976013	None	None	None	None	1
1.7	2015_Aug_06_1600	s	s	19	3	Capacity	87	RC	1	0	23MC	1	0	0.776252031326	-322.0	-47.0	-320	-53	1
1.7	2015_Aug_06_1600	s	s	19	3	Capacity	88	RC	2	0	23VC	1	0	0.470132112503	71.0	-253.0	66	-256	1
1.7	2015_Aug_06_1600	s	s	19	3	Capacity	89	RC	2	0	23VC	1	0	0.55945110321	485.0	-357.0	483	-349	1
1.7	2015_Aug_06_1600	s	s	19	3	Capacity	90	ABS	2	0	24VC	0	1	0.476422071457	None	None	None	None	1
1.7	2015_Aug_06_1600	s	s	19	3	Capacity	91	ABS	1	0	24MC	0	1	1.43031907082	None	None	None	None	1
1.7	2015_Aug_06_1600	s	s	19	3	Capacity	92	RC	1	0	23MC	1	0	0.854766130447	380.0	-128.0	384	-134	1
1.7	2015_Aug_06_1600	s	s	19	3	Capacity	1	RC	0	1	23RO	1	0	2.918446064	-386.0	13.0	-392	11	1
1.7	2015_Aug_06_1600	s	s	19	3	Capacity	2	ABS	0	1	24RO	0	1	3.57764792442	None	None	None	None	1
1.7	2015_Aug_06_1600	s	s	19	3	Capacity	3	RC	0	2	23RD	1	0	0.529389858246	-10.0	309.0	-2	310	1
1.7	2015_Aug_06_1600	s	s	19	3	Capacity	4	ABS	0	2	24RD	0	1	1.00353813171	None	None	None	None	1
1.7	2015_Aug_06_1600	s	s	19	3	Capacity	5	ABS	0	2	24RD	0	1	0.853361845016	None	None	None	None	1
1.7	2015_Aug_06_1600	s	s	19	3	Capacity	6	RC	0	1	23RO	1	0	4.16097593307	-345.0	-309.0	-341	-302	1
1.7	2015_Aug_06_1600	s	s	19	3	Capacity	7	RC	0	2	23RD	1	0	0.512346029282	423.0	99.0	427	91	1
1.7	2015_Aug_06_1600	s	s	19	3	Capacity	8	ABS	0	1	24RO	0	1	4.90764522552	None	None	None	None	1
1.7	2015_Aug_06_1600	s	s	19	3	Capacity	9	ABS	0	2	24RD	0	1	0.764452934265	None	None	None	None	1
1.7	2015_Aug_06_1600	s	s	19	3	Capacity	10	RC	0	1	23RO	1	0	0.952707052231	124.0	314.0	110	323	1
1.7	2015_Aug_06_1600	s	s	19	3	Capacity	11	RC	0	2	23RD	1	0	0.56801199913	478.0	21.0	481	26	1
1.7	2015_Aug_06_1600	s	s	19	3	Capacity	12	ABS	0	1	24RO	0	1	5.37854599953	None	None	None	None	1
1.7	2015_Aug_06_1600	s	s	19	3	Capacity	13	ABS	0	1	24RO	0	1	4.40919113159	None	None	None	None	1
1.7	2015_Aug_06_1600	s	s	19	3	Capacity	14	ABS	0	2	24RD	0	1	0.66216802597	None	None	None	None	1
1.7	2015_Aug_06_1600	s	s	19	3	Capacity	15	RC	0	2	23RD	1	0	0.5562748909	505.0	351.0	507	350	1
1.7	2015_Aug_06_1600	s	s	19	3	Capacity	16	RC	0	1	23RO	1	0	2.99708795547	423.0	-181.0	428	-187	1
1.7	2015_Aug_06_1600	s	s	19	3	Capacity	17	RC	0	1	23RO	0	1	4.52545118332	503.0	386.0	None	None	0
1.7	2015_Aug_06_1600	s	s	19	3	Capacity	18	ABS	0	2	24RD	0	1	0.764802217484	None	None	None	None	1
1.7	2015_Aug_06_1600	s	s	19	3	Capacity	19	RC	0	2	23RD	1	0	0.572325944901	213.0	343.0	217	340	1
1.7	2015_Aug_06_1600	s	s	19	3	Capacity	20	ABS	0	1	24RO	0	1	4.04842495918	None	None	None	None	1
1.7	2015_Aug_06_1600	s	s	19	3	Capacity	21	ABS	0	1	24RO	0	1	4.35443615913	None	None	None	None	1
1.7	2015_Aug_06_1600	s	s	19	3	Capacity	22	RC	0	2	23RD	1	0	0.540895223618	-376.0	127.0	-370	130	1
1.7	2015_Aug_06_1600	s	s	19	3	Capacity	23	RC	0	1	23RO	1	0	2.6359539032	-488.0	-85.0	-485	-93	1
1.7	2015_Aug_06_1600	s	s	19	3	Capacity	24	ABS	0	2	24RD	0	1	0.81825709343	None	None	None	None	1
1.7	2015_Aug_06_1600	s	s	19	3	Capacity	25	ABS	0	2	24RD	0	1	0.949268817902	None	None	None	None	1
1.7	2015_Aug_06_1600	s	s	19	3	Capacity	26	ABS	0	1	24RO	0	1	4.26030492783	None	None	None	None	1
1.7	2015_Aug_06_1600	s	s	19	3	Capacity	27	RC	0	2	23RD	1	0	0.717370986938	-245.0	-411.0	-244	-415	1
1.7	2015_Aug_06_1600	s	s	19	3	Capacity	28	RC	0	1	23RO	0	1	4.37798905373	536.0	221.0	None	None	0
1.7	2015_Aug_06_1600	s	s	19	3	Capacity	29	RC	0	1	23RO	1	0	3.24811887741	-25.0	-375.0	-29	-373	1
1.7	2015_Aug_06_1600	s	s	19	3	Capacity	30	RC	0	2	23RD	1	0	0.641747951508	442.0	244.0	442	238	1
1.7	2015_Aug_06_1600	s	s	19	3	Capacity	31	ABS	0	1	24RO	0	1	4.80993008614	None	None	None	None	1
1.7	2015_Aug_06_1600	s	s	19	3	Capacity	32	ABS	0	2	24RD	0	1	1.24213790894	None	None	None	None	1
1.7	2015_Aug_06_1600	s	s	19	3	Capacity	33	ABS	0	1	24RO	0	1	5.32873606682	None	None	None	None	1
1.7	2015_Aug_06_1600	s	s	19	3	Capacity	34	ABS	0	2	24RD	0	1	0.69376707077	None	None	None	None	1
1.7	2015_Aug_06_1600	s	s	19	3	Capacity	35	RC	0	2	23RD	1	0	0.560441970825	423.0	141.0	416	143	1
1.7	2015_Aug_06_1600	s	s	19	3	Capacity	36	RC	0	1	23RO	1	0	1.03520393372	200.0	407.0	203	413	1
1.7	2015_Aug_06_1600	s	s	19	3	Capacity	37	ABS	0	1	24RO	0	1	3.98580789566	None	None	None	None	1
1.7	2015_Aug_06_1600	s	s	19	3	Capacity	38	RC	0	1	23RO	1	0	1.41857004166	278.0	111.0	280	113	1
1.7	2015_Aug_06_1600	s	s	19	3	Capacity	39	ABS	0	2	24RD	0	1	0.729084968567	None	None	None	None	1
1.7	2015_Aug_06_1600	s	s	19	3	Capacity	40	RC	0	2	23RD	1	0	0.493771076202	162.0	400.0	166	397	1
1.7	2015_Aug_06_1600	s	s	19	3	Capacity	41	RC	0	1	23RO	1	0	2.04760909081	-161.0	37.0	-168	36	1
1.7	2015_Aug_06_1600	s	s	19	3	Capacity	42	ABS	0	1	24RO	0	1	5.3260409832	None	None	None	None	1
1.7	2015_Aug_06_1600	s	s	19	3	Capacity	43	RC	0	2	23RD	1	0	0.458446025848	-269.0	91.0	-264	81	1
1.7	2015_Aug_06_1600	s	s	19	3	Capacity	44	ABS	0	2	24RD	0	1	0.758502006531	None	None	None	None	1
1.7	2015_Aug_06_1600	s	s	19	3	Capacity	45	ABS	0	2	24RD	0	1	0.688822031021	None	None	None	None	1
1.7	2015_Aug_06_1600	s	s	19	3	Capacity	46	RC	0	1	23RO	0	1	4.11906599998	469.0	298.0	None	None	0
1.7	2015_Aug_06_1600	s	s	19	3	Capacity	47	ABS	0	1	24RO	0	1	4.37336015701	None	None	None	None	1
1.7	2015_Aug_06_1600	s	s	19	3	Capacity	48	RC	0	2	23RD	1	0	0.512181043625	485.0	241.0	482	235	1
1.7	2015_Aug_06_1600	s	s	19	3	Capacity	49	ABS	0	2	24RD	0	1	0.623627901077	None	None	None	None	1
1.7	2015_Aug_06_1600	s	s	19	3	Capacity	50	RC	0	2	23RD	1	0	0.587857961655	-23.0	-394.0	-26	-389	1
1.7	2015_Aug_06_1600	s	s	19	3	Capacity	51	ABS	0	1	24RO	0	1	4.91950201988	None	None	None	None	1
1.7	2015_Aug_06_1600	s	s	19	3	Capacity	52	RC	0	1	23RO	1	0	4.71676301956	-512.0	109.0	-518	107	1
1.7	2015_Aug_06_1600	s	s	19	3	Capacity	53	ABS	0	1	24RO	0	1	4.63180303574	None	None	None	None	1
1.7	2015_Aug_06_1600	s	s	19	3	Capacity	54	RC	0	1	23RO	1	0	0.988111019135	155.0	342.0	168	345	1
1.7	2015_Aug_06_1600	s	s	19	3	Capacity	55	ABS	0	2	24RD	0	1	0.665791034698	None	None	None	None	1
1.7	2015_Aug_06_1600	s	s	19	3	Capacity	56	RC	0	2	23RD	1	0	0.454885005951	-195.0	291.0	-206	295	1
1.7	2015_Aug_06_1600	s	s	19	3	Capacity	57	RC	0	2	23RD	1	0	0.416558027267	258.0	291.0	262	284	1
1.7	2015_Aug_06_1600	s	s	19	3	Capacity	58	RC	0	1	23RO	1	0	1.08211517334	182.0	335.0	183	329	1
1.7	2015_Aug_06_1600	s	s	19	3	Capacity	59	ABS	0	1	24RO	0	1	5.79973292351	None	None	None	None	1
1.7	2015_Aug_06_1600	s	s	19	3	Capacity	60	ABS	0	2	24RD	0	1	0.653625965118	None	None	None	None	1
1.7	2015_Aug_06_1600	s	s	19	3	Capacity	61	RC	0	1	23RO	1	0	3.032943964	317.0	-267.0	316	-268	1
1.7	2015_Aug_06_1600	s	s	19	3	Capacity	62	ABS	0	2	24RD	0	1	0.606882095337	None	None	None	None	1
1.7	2015_Aug_06_1600	s	s	19	3	Capacity	63	RC	0	2	23RD	1	0	0.867611885071	-503.0	-411.0	-500	-410	1
1.7	2015_Aug_06_1600	s	s	19	3	Capacity	64	ABS	0	1	24RO	0	1	5.4998960495	None	None	None	None	1
1.7	2015_Aug_06_1600	s	s	19	3	Capacity	65	ABS	0	2	24RD	0	1	0.540869951248	None	None	None	None	1
1.7	2015_Aug_06_1600	s	s	19	3	Capacity	66	RC	0	2	23RD	1	0	0.670303821564	-478.0	-239.0	-481	-236	1
1.7	2015_Aug_06_1600	s	s	19	3	Capacity	67	ABS	0	1	24RO	0	1	5.40901613235	None	None	None	None	1
1.7	2015_Aug_06_1600	s	s	19	3	Capacity	68	RC	0	1	23RO	1	0	3.65522789955	273.0	-205.0	279	-207	1
1.7	2015_Aug_06_1600	s	s	19	3	Capacity	69	ABS	0	1	24RO	0	1	4.89593291283	None	None	None	None	1
1.7	2015_Aug_06_1600	s	s	19	3	Capacity	70	ABS	0	2	24RD	0	1	0.665421009064	None	None	None	None	1
1.7	2015_Aug_06_1600	s	s	19	3	Capacity	71	RC	0	2	23RD	1	0	0.658560991287	-508.0	-281.0	-503	-272	1
1.7	2015_Aug_06_1600	s	s	19	3	Capacity	72	RC	0	1	23RO	1	0	3.52783823013	-469.0	-246.0	-466	-255	1
1.7	2015_Aug_06_1600	s	s	19	3	Capacity	73	ABS	0	1	24RO	0	1	4.64874792099	None	None	None	None	1
1.7	2015_Aug_06_1600	s	s	19	3	Capacity	74	RC	0	1	23RO	1	0	3.66668486595	-444.0	-379.0	-441	-378	1
1.7	2015_Aug_06_1600	s	s	19	3	Capacity	75	RC	0	2	23RD	1	0	0.538120031357	149.0	123.0	161	126	1
1.7	2015_Aug_06_1600	s	s	19	3	Capacity	76	ABS	0	2	24RD	0	1	0.835092067719	None	None	None	None	1
1.7	2015_Aug_06_1600	s	s	19	3	Capacity	77	ABS	0	2	24RD	0	1	0.78524017334	None	None	None	None	1
1.7	2015_Aug_06_1600	s	s	19	3	Capacity	78	RC	0	2	23RD	1	0	0.652827978134	-454.0	-347.0	-449	-347	1
1.7	2015_Aug_06_1600	s	s	19	3	Capacity	79	ABS	0	1	24RO	0	1	4.41705393791	None	None	None	None	1
1.7	2015_Aug_06_1600	s	s	19	3	Capacity	80	RC	0	1	23RO	1	0	0.924268007278	-272.0	86.0	-274	85	1
1.7	2015_Aug_06_1600	s	s	19	3	Capacity	81	RC	0	2	23RD	1	0	0.465137958527	527.0	157.0	533	159	1
1.7	2015_Aug_06_1600	s	s	19	3	Capacity	82	ABS	0	1	24RO	0	1	4.44857001305	None	None	None	None	1
1.7	2015_Aug_06_1600	s	s	19	3	Capacity	83	ABS	0	2	24RD	0	1	0.641782045364	None	None	None	None	1
1.7	2015_Aug_06_1600	s	s	19	3	Capacity	84	RC	0	1	23RO	1	0	1.05386900902	475.0	164.0	485	166	1
1.7	2015_Aug_06_1600	s	s	19	3	Capacity	85	RC	0	2	23RD	1	0	0.595653057098	-121.0	388.0	-120	385	1
1.7	2015_Aug_06_1600	s	s	19	3	Capacity	86	ABS	0	2	24RD	0	1	0.634968996048	None	None	None	None	1
1.7	2015_Aug_06_1600	s	s	19	3	Capacity	87	ABS	0	1	24RO	0	1	5.44926691055	None	None	None	None	1
1.7	2015_Aug_06_1600	s	s	19	3	Capacity	88	RC	0	1	23RO	1	0	3.59599494934	68.0	-224.0	70	-220	1
1.7	2015_Aug_06_1600	s	s	19	3	Capacity	89	RC	0	1	23RO	1	0	0.541076898575	-78.0	110.0	-82	117	1
1.7	2015_Aug_06_1600	s	s	19	3	Capacity	90	ABS	0	2	24RD	0	1	0.571043968201	None	None	None	None	1
1.7	2015_Aug_06_1600	s	s	19	3	Capacity	91	ABS	0	1	24RO	0	1	3.94256305695	None	None	None	None	1
1.7	2015_Aug_06_1600	s	s	19	3	Capacity	92	RC	0	2	23RD	1	0	0.587971925735	-204.0	-268.0	-206	-269	1
1.7	2015_Aug_06_1600	s	s	19	3	SIC	1	RC	0	2	23RD	1	0	1.01875805855	470.0	-409.0	472	-409	1
1.7	2015_Aug_06_1600	s	s	19	3	SIC	2	ABS	1	2	24MD	0	1	0.842592000961	None	None	None	None	1
1.7	2015_Aug_06_1600	s	s	19	3	SIC	3	RC	2	0	23VC	1	0	0.540891170502	336.0	-128.0	342	-133	1
1.7	2015_Aug_06_1600	s	s	19	3	SIC	4	RC	2	2	23VD	1	0	0.465381860733	-366.0	185.0	-365	179	1
1.7	2015_Aug_06_1600	s	s	19	3	SIC	5	ABS	1	0	24MC	0	1	2.55347204208	None	None	None	None	1
1.7	2015_Aug_06_1600	s	s	19	3	SIC	6	ABS	2	1	24VO	0	1	1.01164221764	None	None	None	None	1
1.7	2015_Aug_06_1600	s	s	19	3	SIC	7	RC	2	1	23VO	1	0	0.500621080399	-326.0	381.0	-328	379	1
1.7	2015_Aug_06_1600	s	s	19	3	SIC	8	ABS	0	1	24RO	0	1	4.18473005295	None	None	None	None	1
1.7	2015_Aug_06_1600	s	s	19	3	SIC	9	ABS	2	2	24VD	0	1	0.653414011002	None	None	None	None	1
1.7	2015_Aug_06_1600	s	s	19	3	SIC	10	RC	1	1	23MO	1	0	2.0239648819	357.0	361.0	356	361	1
1.7	2015_Aug_06_1600	s	s	19	3	SIC	11	ABS	0	2	24RD	0	1	0.552479028702	None	None	None	None	1
1.7	2015_Aug_06_1600	s	s	19	3	SIC	12	RC	1	2	23MD	1	0	0.500436067581	13.0	-209.0	9	-216	1
1.7	2015_Aug_06_1600	s	s	19	3	SIC	13	RC	1	0	23MC	1	0	1.4541258812	-243.0	-323.0	-234	-322	1
1.7	2015_Aug_06_1600	s	s	19	3	SIC	14	ABS	2	0	24VC	0	1	0.583145856857	None	None	None	None	1
1.7	2015_Aug_06_1600	s	s	19	3	SIC	15	ABS	1	1	24MO	0	1	1.90279889107	None	None	None	None	1
1.7	2015_Aug_06_1600	s	s	19	3	SIC	16	RC	0	1	23RO	1	0	1.5959789753	-51.0	218.0	-49	222	1
1.7	2015_Aug_06_1600	s	s	19	3	SIC	17	RC	2	0	23VC	1	0	0.481950998306	-538.0	74.0	-536	76	1
1.7	2015_Aug_06_1600	s	s	19	3	SIC	18	ABS	2	1	24VO	0	1	0.583646059036	None	None	None	None	1
1.7	2015_Aug_06_1600	s	s	19	3	SIC	19	RC	1	0	23MC	1	0	2.76043486595	-435.0	-252.0	-428	-255	1
1.7	2015_Aug_06_1600	s	s	19	3	SIC	20	RC	0	2	23RD	1	0	0.540827989578	56.0	380.0	48	378	1
1.7	2015_Aug_06_1600	s	s	19	3	SIC	21	ABS	2	0	24VC	0	1	0.476985931396	None	None	None	None	1
1.7	2015_Aug_06_1600	s	s	19	3	SIC	22	RC	1	1	23MO	1	0	0.858597993851	-463.0	-349.0	-464	-352	1
1.7	2015_Aug_06_1600	s	s	19	3	SIC	23	RC	2	2	23VD	1	0	0.446604967117	160.0	-179.0	154	-183	1
1.7	2015_Aug_06_1600	s	s	19	3	SIC	24	ABS	0	1	24RO	0	1	4.33454084396	None	None	None	None	1
1.7	2015_Aug_06_1600	s	s	19	3	SIC	25	ABS	1	0	24MC	0	1	3.50303196907	None	None	None	None	1
1.7	2015_Aug_06_1600	s	s	19	3	SIC	26	ABS	0	2	24RD	0	1	0.550149917603	None	None	None	None	1
1.7	2015_Aug_06_1600	s	s	19	3	SIC	27	RC	1	2	23MD	1	0	0.454060077667	-339.0	-140.0	-329	-134	1
1.7	2015_Aug_06_1600	s	s	19	3	SIC	28	ABS	1	1	24MO	0	1	1.78375005722	None	None	None	None	1
1.7	2015_Aug_06_1600	s	s	19	3	SIC	29	ABS	2	2	24VD	0	1	0.44130897522	None	None	None	None	1
1.7	2015_Aug_06_1600	s	s	19	3	SIC	30	RC	0	1	23RO	1	0	4.30786705017	-72.0	-212.0	-68	-212	1
1.7	2015_Aug_06_1600	s	s	19	3	SIC	31	ABS	1	2	24MD	0	1	0.517279863358	None	None	None	None	1
1.7	2015_Aug_06_1600	s	s	19	3	SIC	32	RC	2	1	23VO	1	0	0.454605102539	36.0	197.0	38	199	1
1.7	2015_Aug_06_1600	s	s	19	3	SIC	33	RC	0	1	23RO	0	1	5.48442292213	72.0	-119.0	None	None	0
1.7	2015_Aug_06_1600	s	s	19	3	SIC	34	ABS	0	1	24RO	0	1	3.76633000374	None	None	None	None	1
1.7	2015_Aug_06_1600	s	s	19	3	SIC	35	ABS	2	1	24VO	0	1	0.764450073242	None	None	None	None	1
1.7	2015_Aug_06_1600	s	s	19	3	SIC	36	ABS	1	1	24MO	0	1	2.11403608322	None	None	None	None	1
1.7	2015_Aug_06_1600	s	s	19	3	SIC	37	ABS	1	2	24MD	0	1	0.717346191406	None	None	None	None	1
1.7	2015_Aug_06_1600	s	s	19	3	SIC	38	ABS	2	0	24VC	0	1	0.446624994278	None	None	None	None	1
1.7	2015_Aug_06_1600	s	s	19	3	SIC	39	RC	1	1	23MO	1	0	0.756393909454	-164.0	25.0	-167	24	1
1.7	2015_Aug_06_1600	s	s	19	3	SIC	40	ABS	2	2	24VD	0	1	0.576143026352	None	None	None	None	1
1.7	2015_Aug_06_1600	s	s	19	3	SIC	41	ABS	1	0	24MC	0	1	1.86577892303	None	None	None	None	1
1.7	2015_Aug_06_1600	s	s	19	3	SIC	42	RC	2	1	23VO	1	0	0.446672916412	-90.0	-39.0	-84	-40	1
1.7	2015_Aug_06_1600	s	s	19	3	SIC	43	RC	2	2	23VD	1	0	0.499665975571	99.0	-388.0	94	-388	1
1.7	2015_Aug_06_1600	s	s	19	3	SIC	44	RC	1	2	23MD	1	0	0.500513076782	-482.0	-178.0	-480	-175	1
1.7	2015_Aug_06_1600	s	s	19	3	SIC	45	ABS	0	2	24RD	0	1	0.832204818726	None	None	None	None	1
1.7	2015_Aug_06_1600	s	s	19	3	SIC	46	RC	1	0	23MC	1	0	0.960967063904	250.0	-9.0	251	-7	1
1.7	2015_Aug_06_1600	s	s	19	3	SIC	47	RC	0	2	23RD	1	0	0.536063909531	-492.0	382.0	-493	380	1
1.7	2015_Aug_06_1600	s	s	19	3	SIC	48	RC	2	0	23VC	1	0	0.831315040588	450.0	-407.0	446	-401	1
1.7	2015_Aug_06_1600	s	s	19	3	SIC	49	RC	1	0	23MC	1	0	0.747251033783	-462.0	-31.0	-459	-27	1
1.7	2015_Aug_06_1600	s	s	19	3	SIC	50	RC	2	1	23VO	1	0	0.44705414772	-430.0	-349.0	-433	-355	1
1.7	2015_Aug_06_1600	s	s	19	3	SIC	51	ABS	0	1	24RO	0	1	5.34953594208	None	None	None	None	1
1.7	2015_Aug_06_1600	s	s	19	3	SIC	52	RC	2	2	23VD	1	0	0.470206975937	-21.0	-211.0	-20	-217	1
1.7	2015_Aug_06_1600	s	s	19	3	SIC	53	ABS	1	0	24MC	0	1	2.80081391335	None	None	None	None	1
1.7	2015_Aug_06_1600	s	s	19	3	SIC	54	ABS	0	2	24RD	0	1	0.823323011398	None	None	None	None	1
1.7	2015_Aug_06_1600	s	s	19	3	SIC	55	RC	1	1	23MO	1	0	1.30102396011	-220.0	-378.0	-213	-369	1
1.7	2015_Aug_06_1600	s	s	19	3	SIC	56	ABS	2	2	24VD	0	1	0.560624837875	None	None	None	None	1
1.7	2015_Aug_06_1600	s	s	19	3	SIC	57	ABS	2	1	24VO	0	1	0.490210056305	None	None	None	None	1
1.7	2015_Aug_06_1600	s	s	19	3	SIC	58	RC	0	1	23RO	1	0	0.709262132645	204.0	103.0	212	108	1
1.7	2015_Aug_06_1600	s	s	19	3	SIC	59	RC	1	2	23MD	1	0	0.47785782814	-90.0	183.0	-88	182	1
1.7	2015_Aug_06_1600	s	s	19	3	SIC	60	RC	0	2	23RD	1	0	0.470056056976	-499.0	98.0	-501	92	1
1.7	2015_Aug_06_1600	s	s	19	3	SIC	61	RC	2	0	23VC	1	0	0.481971025467	-81.0	-296.0	-77	-300	1
1.7	2015_Aug_06_1600	s	s	19	3	SIC	62	ABS	2	0	24VC	0	1	0.571888923645	None	None	None	None	1
1.7	2015_Aug_06_1600	s	s	19	3	SIC	63	ABS	1	1	24MO	0	1	3.00883102417	None	None	None	None	1
1.7	2015_Aug_06_1600	s	s	19	3	SIC	64	ABS	1	2	24MD	0	1	0.549083948135	None	None	None	None	1
1.7	2015_Aug_06_1600	s	s	19	3	SIC	65	RC	2	0	23VC	1	0	0.470218896866	258.0	-145.0	256	-151	1
1.7	2015_Aug_06_1600	s	s	19	3	SIC	66	RC	0	2	23RD	1	0	0.512232065201	453.0	-125.0	450	-120	1
1.7	2015_Aug_06_1600	s	s	19	3	SIC	67	RC	0	1	23RO	0	1	4.39651584625	290.0	-172.0	None	None	0
1.7	2015_Aug_06_1600	s	s	19	3	SIC	68	RC	1	2	23MD	1	0	0.446666002274	268.0	-213.0	271	-209	1
1.7	2015_Aug_06_1600	s	s	19	3	SIC	69	RC	1	1	23MO	1	0	2.22400403023	-100.0	-354.0	-98	-354	1
1.7	2015_Aug_06_1600	s	s	19	3	SIC	70	RC	2	1	23VO	1	0	0.417994022369	-151.0	153.0	-146	159	1
1.7	2015_Aug_06_1600	s	s	19	3	SIC	71	ABS	1	1	24MO	0	1	2.34771680832	None	None	None	None	1
1.7	2015_Aug_06_1600	s	s	19	3	SIC	72	ABS	2	2	24VD	0	1	0.561942100525	None	None	None	None	1
1.7	2015_Aug_06_1600	s	s	19	3	SIC	73	ABS	1	0	24MC	0	1	1.80047488213	None	None	None	None	1
1.7	2015_Aug_06_1600	s	s	19	3	SIC	74	RC	1	0	23MC	1	0	1.77661299706	-113.0	-213.0	-108	-216	1
1.7	2015_Aug_06_1600	s	s	19	3	SIC	75	ABS	0	1	24RO	0	1	4.49996685982	None	None	None	None	1
1.7	2015_Aug_06_1600	s	s	19	3	SIC	76	ABS	0	2	24RD	0	1	0.540807008743	None	None	None	None	1
1.7	2015_Aug_06_1600	s	s	19	3	SIC	77	RC	2	2	23VD	1	0	0.491153001785	-487.0	-201.0	-485	-196	1
1.7	2015_Aug_06_1600	s	s	19	3	SIC	78	ABS	1	2	24MD	0	1	0.634989023209	None	None	None	None	1
1.7	2015_Aug_06_1600	s	s	19	3	SIC	79	ABS	2	1	24VO	0	1	0.524147033691	None	None	None	None	1
1.7	2015_Aug_06_1600	s	s	19	3	SIC	80	ABS	2	0	24VC	0	1	0.556293010712	None	None	None	None	1
1.7	2015_Aug_06_1600	s	s	19	3	SIC	81	ABS	1	1	24MO	0	1	1.37152695656	None	None	None	None	1
1.7	2015_Aug_06_1600	s	s	19	3	SIC	82	RC	0	2	23RD	1	0	0.500523805618	-25.0	-125.0	-12	-116	1
1.7	2015_Aug_06_1600	s	s	19	3	SIC	83	ABS	0	1	24RO	0	1	5.35158896446	None	None	None	None	1
1.7	2015_Aug_06_1600	s	s	19	3	SIC	84	ABS	2	0	24VC	0	1	0.552587032318	None	None	None	None	1
1.7	2015_Aug_06_1600	s	s	19	3	SIC	85	RC	1	1	23MO	1	0	1.45525717735	-33.0	-391.0	-35	-386	1
1.7	2015_Aug_06_1600	s	s	19	3	SIC	86	ABS	2	1	24VO	0	1	0.481939077377	None	None	None	None	1
1.7	2015_Aug_06_1600	s	s	19	3	SIC	87	RC	1	0	23MC	1	0	2.27105212212	-482.0	370.0	-478	362	1
1.7	2015_Aug_06_1600	s	s	19	3	SIC	88	ABS	1	2	24MD	0	1	0.488525867462	None	None	None	None	1
1.7	2015_Aug_06_1600	s	s	19	3	SIC	89	ABS	0	2	24RD	0	1	0.85365486145	None	None	None	None	1
1.7	2015_Aug_06_1600	s	s	19	3	SIC	90	RC	1	2	23MD	1	0	0.893882036209	-350.0	-345.0	-343	-340	1
1.7	2015_Aug_06_1600	s	s	19	3	SIC	91	RC	0	1	23RO	0	1	3.94246387482	101.0	129.0	None	None	0
1.7	2015_Aug_06_1600	s	s	19	3	SIC	92	RC	2	2	23VD	1	0	0.441534996033	-303.0	-242.0	-311	-239	1
1.7	2015_Aug_06_1600	s	s	19	3	SIC	93	ABS	1	0	24MC	0	1	2.16521906853	None	None	None	None	1
1.7	2015_Aug_06_1600	s	s	19	3	SIC	94	RC	2	0	23VC	1	0	0.431519031525	-242.0	-146.0	-244	-150	1
1.7	2015_Aug_06_1600	s	s	19	3	SIC	95	RC	2	1	23VO	1	0	0.45419883728	402.0	-247.0	408	-250	1
1.7	2015_Aug_06_1600	s	s	19	3	SIC	96	ABS	2	2	24VD	0	1	0.524063825607	None	None	None	None	1
1.7	2015_Aug_06_1600	s	s	19	3	SIC	97	ABS	2	1	24VO	1	0	0.417887926102	None	None	-284	-30	0
1.7	2015_Aug_06_1600	s	s	19	3	SIC	98	RC	1	0	23MC	1	0	0.846850156784	81.0	114.0	76	116	1
1.7	2015_Aug_06_1600	s	s	19	3	SIC	99	ABS	0	1	24RO	0	1	3.63319206238	None	None	None	None	1
1.7	2015_Aug_06_1600	s	s	19	3	SIC	100	ABS	0	2	24RD	0	1	0.630534887314	None	None	None	None	1
1.7	2015_Aug_06_1600	s	s	19	3	SIC	101	ABS	1	2	24MD	0	1	0.629182815552	None	None	None	None	1
1.7	2015_Aug_06_1600	s	s	19	3	SIC	102	ABS	2	2	24VD	0	1	0.470118045807	None	None	None	None	1
1.7	2015_Aug_06_1600	s	s	19	3	SIC	103	ABS	2	0	24VC	0	1	0.481920003891	None	None	None	None	1
1.7	2015_Aug_06_1600	s	s	19	3	SIC	104	ABS	1	1	24MO	0	1	1.65471816063	None	None	None	None	1
1.7	2015_Aug_06_1600	s	s	19	3	SIC	105	RC	2	0	23VC	1	0	0.517285108566	498.0	-70.0	499	-69	1
1.7	2015_Aug_06_1600	s	s	19	3	SIC	106	RC	0	1	23RO	1	0	3.14193296432	118.0	-280.0	119	-277	1
1.7	2015_Aug_06_1600	s	s	19	3	SIC	107	RC	1	2	23MD	1	0	0.4659948349	-178.0	-128.0	-179	-132	1
1.7	2015_Aug_06_1600	s	s	19	3	SIC	108	ABS	1	0	24MC	0	1	2.55366706848	None	None	None	None	1
1.7	2015_Aug_06_1600	s	s	19	3	SIC	109	RC	2	2	23VD	1	0	0.451687097549	285.0	-63.0	290	-62	1
1.7	2015_Aug_06_1600	s	s	19	3	SIC	110	RC	2	1	23VO	1	0	0.44170498848	-63.0	139.0	-57	132	1
1.7	2015_Aug_06_1600	s	s	19	3	SIC	111	RC	1	1	23MO	1	0	1.19493603706	528.0	-279.0	531	-282	1
1.7	2015_Aug_06_1600	s	s	19	3	SIC	112	RC	0	2	23RD	1	0	0.44672203064	-219.0	84.0	-219	85	1
1.7	2015_Aug_06_1600	s	s	19	3	SIC	113	RC	2	0	23VC	1	0	0.406533002853	386.0	-64.0	389	-69	1
1.7	2015_Aug_06_1600	s	s	19	3	SIC	114	RC	2	2	23VD	1	0	0.394738912582	276.0	-311.0	284	-307	1
1.7	2015_Aug_06_1600	s	s	19	3	SIC	115	ABS	1	2	24MD	0	1	0.983035087585	None	None	None	None	1
1.7	2015_Aug_06_1600	s	s	19	3	SIC	116	RC	0	1	23RO	1	0	0.952787876129	380.0	13.0	379	7	1
1.7	2015_Aug_06_1600	s	s	19	3	SIC	117	RC	2	1	23VO	1	0	0.406585931778	-207.0	250.0	-206	256	1
1.7	2015_Aug_06_1600	s	s	19	3	SIC	118	RC	1	2	23MD	1	0	0.376013040543	-71.0	-7.0	-72	-7	1
1.7	2015_Aug_06_1600	s	s	19	3	SIC	119	RC	1	1	23MO	1	0	0.770786046982	-319.0	332.0	-315	327	1
1.7	2015_Aug_06_1600	s	s	19	3	SIC	120	ABS	1	1	24MO	0	1	2.27794194221	None	None	None	None	1
1.7	2015_Aug_06_1600	s	s	19	3	SIC	121	ABS	0	2	24RD	0	1	0.634895086288	None	None	None	None	1
1.7	2015_Aug_06_1600	s	s	19	3	SIC	122	ABS	1	0	24MC	0	1	2.23572492599	None	None	None	None	1
1.7	2015_Aug_06_1600	s	s	19	3	SIC	123	RC	1	0	23MC	1	0	0.806540966034	-194.0	156.0	-192	153	1
1.7	2015_Aug_06_1600	s	s	19	3	SIC	124	ABS	2	1	24VO	0	1	0.524038076401	None	None	None	None	1
1.7	2015_Aug_06_1600	s	s	19	3	SIC	125	RC	0	2	23RD	1	0	0.540840864182	246.0	-159.0	241	-159	1
1.7	2015_Aug_06_1600	s	s	19	3	SIC	126	ABS	2	2	24VD	0	1	0.462121963501	None	None	None	None	1
1.7	2015_Aug_06_1600	s	s	19	3	SIC	127	ABS	0	1	24RO	0	1	3.63646101952	None	None	None	None	1
1.7	2015_Aug_06_1600	s	s	19	3	SIC	128	ABS	2	0	24VC	0	1	0.658535003662	None	None	None	None	1
1.7	2015_Aug_06_1600	s	s	19	3	SIC	129	ABS	1	2	24MD	0	1	0.546949148178	None	None	None	None	1
1.7	2015_Aug_06_1600	s	s	19	3	SIC	130	ABS	2	2	24VD	0	1	0.466483831406	None	None	None	None	1
1.7	2015_Aug_06_1600	s	s	19	3	SIC	131	ABS	0	2	24RD	0	1	0.870321989059	None	None	None	None	1
1.7	2015_Aug_06_1600	s	s	19	3	SIC	132	ABS	0	1	24RO	0	1	4.44374513626	None	None	None	None	1
1.7	2015_Aug_06_1600	s	s	19	3	SIC	133	RC	0	1	23RO	1	0	3.63099694252	-272.0	-392.0	-284	-391	1
1.7	2015_Aug_06_1600	s	s	19	3	SIC	134	RC	1	0	23MC	1	0	1.10110616684	-7.0	61.0	1	59	1
1.7	2015_Aug_06_1600	s	s	19	3	SIC	135	RC	2	2	23VD	1	0	0.434796094894	359.0	218.0	361	225	1
1.7	2015_Aug_06_1600	s	s	19	3	SIC	136	ABS	2	1	24VO	0	1	0.536768913269	None	None	None	None	1
1.7	2015_Aug_06_1600	s	s	19	3	SIC	137	RC	2	1	23VO	1	0	0.423078775406	-125.0	108.0	-120	109	1
1.7	2015_Aug_06_1600	s	s	19	3	SIC	138	ABS	2	0	24VC	0	1	0.564385890961	None	None	None	None	1
1.7	2015_Aug_06_1600	s	s	19	3	SIC	139	ABS	1	1	24MO	0	1	2.68976783752	None	None	None	None	1
1.7	2015_Aug_06_1600	s	s	19	3	SIC	140	RC	0	2	23RD	1	0	0.823239803314	444.0	-300.0	441	-292	1
1.7	2015_Aug_06_1600	s	s	19	3	SIC	141	ABS	1	0	24MC	0	1	2.99521803856	None	None	None	None	1
1.7	2015_Aug_06_1600	s	s	19	3	SIC	142	RC	2	0	23VC	1	0	0.441948890686	415.0	-175.0	417	-176	1
1.7	2015_Aug_06_1600	s	s	19	3	SIC	143	RC	1	2	23MD	1	0	0.465377092361	-206.0	250.0	-200	241	1
1.7	2015_Aug_06_1600	s	s	19	3	SIC	144	RC	1	1	23MO	1	0	1.10239005089	44.0	-209.0	48	-200	1
1.7	2015_Aug_06_1600	s	s	19	3	SIC	145	ABS	2	1	24VO	0	1	0.616603851318	None	None	None	None	1
1.7	2015_Aug_06_1600	s	s	19	3	SIC	146	ABS	0	2	24RD	0	1	0.685731172562	None	None	None	None	1
1.7	2015_Aug_06_1600	s	s	19	3	SIC	147	RC	0	2	23RD	1	0	0.497437953949	31.0	98.0	27	92	1
1.7	2015_Aug_06_1600	s	s	19	3	SIC	148	RC	2	1	23VO	1	0	0.423123121262	324.0	-195.0	319	-190	1
1.7	2015_Aug_06_1600	s	s	19	3	SIC	149	RC	0	1	23RO	1	0	2.03565597534	-373.0	-137.0	-375	-138	1
1.7	2015_Aug_06_1600	s	s	19	3	SIC	150	ABS	1	0	24MC	0	1	2.80695509911	None	None	None	None	1
1.7	2015_Aug_06_1600	s	s	19	3	SIC	151	RC	2	0	23VC	1	0	0.603417873383	387.0	-343.0	389	-337	1
1.7	2015_Aug_06_1600	s	s	19	3	SIC	152	RC	2	2	23VD	1	0	0.434829950333	189.0	-132.0	189	-133	1
1.7	2015_Aug_06_1600	s	s	19	3	SIC	153	ABS	2	2	24VD	0	1	0.611484050751	None	None	None	None	1
1.7	2015_Aug_06_1600	s	s	19	3	SIC	154	ABS	2	0	24VC	0	1	0.576329946518	None	None	None	None	1
1.7	2015_Aug_06_1600	s	s	19	3	SIC	155	ABS	1	1	24MO	0	1	2.07085990906	None	None	None	None	1
1.7	2015_Aug_06_1600	s	s	19	3	SIC	156	ABS	1	2	24MD	0	1	1.01204895973	None	None	None	None	1
1.7	2015_Aug_06_1600	s	s	19	3	SIC	157	RC	1	2	23MD	1	0	0.682140827179	-520.0	411.0	-523	413	1
1.7	2015_Aug_06_1600	s	s	19	3	SIC	158	RC	1	0	23MC	1	0	2.23573994637	-356.0	387.0	-353	385	1
1.7	2015_Aug_06_1600	s	s	19	3	SIC	159	ABS	0	1	24RO	0	1	4.87811613083	None	None	None	None	1
1.7	2015_Aug_06_1600	s	s	19	3	SIC	160	RC	1	1	23MO	1	0	0.759495973587	-468.0	26.0	-467	21	1
1.7	2015_Aug_06_1600	s	s	19	3	SIC	161	ABS	2	2	24VD	0	1	0.64180803299	None	None	None	None	1
1.7	2015_Aug_06_1600	s	s	19	3	SIC	162	ABS	0	2	24RD	0	1	0.717266082764	None	None	None	None	1
1.7	2015_Aug_06_1600	s	s	19	3	SIC	163	ABS	1	0	24MC	0	1	2.56535601616	None	None	None	None	1
1.7	2015_Aug_06_1600	s	s	19	3	SIC	164	RC	2	2	23VD	1	0	0.452554941177	-157.0	359.0	-154	352	1
1.7	2015_Aug_06_1600	s	s	19	3	SIC	165	ABS	2	1	24VO	0	1	0.552574872971	None	None	None	None	1
1.7	2015_Aug_06_1600	s	s	19	3	SIC	166	RC	0	2	23RD	1	0	0.540874004364	-83.0	-265.0	-75	-270	1
1.7	2015_Aug_06_1600	s	s	19	3	SIC	167	RC	2	0	23VC	1	0	0.41786980629	9.0	203.0	12	194	1
1.7	2015_Aug_06_1600	s	s	19	3	SIC	168	RC	0	1	23RO	0	1	3.70068907738	227.0	46.0	None	None	0
1.7	2015_Aug_06_1600	s	s	19	3	SIC	169	RC	1	0	23MC	1	0	3.07519102097	249.0	-270.0	253	-268	1
1.7	2015_Aug_06_1600	s	s	19	3	SIC	170	RC	1	2	23MD	1	0	0.477300882339	26.0	-115.0	26	-112	1
1.7	2015_Aug_06_1600	s	s	19	3	SIC	171	ABS	0	1	24RO	0	1	4.3780632019	None	None	None	None	1
1.7	2015_Aug_06_1600	s	s	19	3	SIC	172	RC	1	1	23MO	1	0	0.764492988586	-108.0	395.0	-103	392	1
1.7	2015_Aug_06_1600	s	s	19	3	SIC	173	ABS	2	0	24VC	0	1	1.10581302643	None	None	None	None	1
1.7	2015_Aug_06_1600	s	s	19	3	SIC	174	RC	2	1	23VO	1	0	0.41139292717	-162.0	-64.0	-158	-71	1
1.7	2015_Aug_06_1600	s	s	19	3	SIC	175	ABS	1	2	24MD	0	1	1.06694197655	None	None	None	None	1
1.7	2015_Aug_06_1600	s	s	19	3	SIC	176	ABS	1	1	24MO	0	1	2.00043702126	None	None	None	None	1
1.7	2015_Aug_06_1600	s	s	19	3	SIC	177	ABS	2	1	24VO	0	1	1.27842783928	None	None	None	None	1
1.7	2015_Aug_06_1600	s	s	19	3	SIC	178	ABS	2	0	24VC	0	1	0.529065847397	None	None	None	None	1
1.7	2015_Aug_06_1600	s	s	19	3	SIC	179	ABS	1	0	24MC	0	1	3.38923406601	None	None	None	None	1
1.7	2015_Aug_06_1600	s	s	19	3	SIC	180	RC	2	2	23VD	1	0	0.476879119873	326.0	241.0	330	239	1
1.7	2015_Aug_06_1600	s	s	19	3	SIC	181	RC	2	1	23VO	1	0	0.454530000687	27.0	53.0	33	55	1
1.7	2015_Aug_06_1600	s	s	19	3	SIC	182	RC	2	0	23VC	1	0	0.489023923874	-334.0	267.0	-326	265	1
1.7	2015_Aug_06_1600	s	s	19	3	SIC	183	RC	0	2	23RD	1	0	0.470108032227	129.0	102.0	122	103	1
1.7	2015_Aug_06_1600	s	s	19	3	SIC	184	RC	1	2	23MD	1	0	0.489004850388	318.0	-294.0	326	-299	1
1.7	2015_Aug_06_1600	s	s	19	3	SIC	185	ABS	1	1	24MO	0	1	2.34853601456	None	None	None	None	1
1.7	2015_Aug_06_1600	s	s	19	3	SIC	186	RC	0	1	23RO	1	0	2.73009991646	-206.0	-303.0	-203	-307	1
1.7	2015_Aug_06_1600	s	s	19	3	SIC	187	ABS	2	2	24VD	0	1	0.524307966232	None	None	None	None	1
1.7	2015_Aug_06_1600	s	s	19	3	SIC	188	RC	1	1	23MO	1	0	0.784528017044	353.0	37.0	354	37	1
1.7	2015_Aug_06_1600	s	s	19	3	SIC	189	ABS	0	1	24RO	0	1	3.50212192535	None	None	None	None	1
1.7	2015_Aug_06_1600	s	s	19	3	SIC	190	RC	1	0	23MC	1	0	1.04696393013	-150.0	-317.0	-146	-309	1
1.7	2015_Aug_06_1600	s	s	19	3	SIC	191	ABS	1	2	24MD	0	1	0.576143026352	None	None	None	None	1
1.7	2015_Aug_06_1600	s	s	19	3	SIC	192	ABS	0	2	24RD	0	1	0.912097930908	None	None	None	None	1
1.7	2015_Aug_06_1600	s	s	19	3	SIC	193	RC	0	2	23RD	1	0	0.529021024704	-524.0	16.0	-528	13	1
1.7	2015_Aug_06_1600	s	s	19	3	SIC	194	RC	1	1	23MO	1	0	1.63531804085	442.0	-324.0	448	-321	1
1.7	2015_Aug_06_1600	s	s	19	3	SIC	195	ABS	2	2	24VD	0	1	0.564304113388	None	None	None	None	1
1.7	2015_Aug_06_1600	s	s	19	3	SIC	196	ABS	1	2	24MD	0	1	0.9711830616	None	None	None	None	1
1.7	2015_Aug_06_1600	s	s	19	3	SIC	197	ABS	1	1	24MO	0	1	2.37724804878	None	None	None	None	1
1.7	2015_Aug_06_1600	s	s	19	3	SIC	198	RC	2	0	23VC	1	0	0.540798902512	-399.0	144.0	-398	142	1
1.7	2015_Aug_06_1600	s	s	19	3	SIC	199	ABS	0	2	24RD	0	1	0.623150110245	None	None	None	None	1
1.7	2015_Aug_06_1600	s	s	19	3	SIC	200	RC	2	1	23VO	1	0	0.670342922211	94.0	-165.0	86	-168	1
1.7	2015_Aug_06_1600	s	s	19	3	SIC	201	ABS	0	1	24RO	0	1	3.82482409477	None	None	None	None	1
1.7	2015_Aug_06_1600	s	s	19	3	SIC	202	ABS	2	1	24VO	0	1	0.491230964661	None	None	None	None	1
1.7	2015_Aug_06_1600	s	s	19	3	SIC	203	RC	2	2	23VD	1	0	0.452994823456	-10.0	223.0	-17	228	1
1.7	2015_Aug_06_1600	s	s	19	3	SIC	204	RC	1	0	23MC	1	0	0.523949146271	-67.0	202.0	-64	197	1
1.7	2015_Aug_06_1600	s	s	19	3	SIC	205	ABS	2	0	24VC	0	1	0.517340898514	None	None	None	None	1
1.7	2015_Aug_06_1600	s	s	19	3	SIC	206	RC	1	2	23MD	1	0	0.419774055481	45.0	166.0	41	169	1
1.7	2015_Aug_06_1600	s	s	19	3	SIC	207	RC	0	1	23RO	0	1	4.1897289753	-146.0	299.0	None	None	0
1.7	2015_Aug_06_1600	s	s	19	3	SIC	208	ABS	1	0	24MC	0	1	2.85966777802	None	None	None	None	1
1.7	2015_Aug_06_1600	s	s	19	3	SIC	209	RC	0	2	23RD	1	0	0.470191001892	221.0	-18.0	209	-17	1
1.7	2015_Aug_06_1600	s	s	19	3	SIC	210	ABS	1	1	24MO	0	1	1.68261599541	None	None	None	None	1
1.7	2015_Aug_06_1600	s	s	19	3	SIC	211	ABS	2	1	24VO	0	1	0.463800907135	None	None	None	None	1
1.7	2015_Aug_06_1600	s	s	19	3	SIC	212	RC	1	0	23MC	1	0	0.811499118805	116.0	-5.0	118	-11	1
1.7	2015_Aug_06_1600	s	s	19	3	SIC	213	ABS	0	1	24RO	0	1	4.13075590134	None	None	None	None	1
1.7	2015_Aug_06_1600	s	s	19	3	SIC	214	ABS	1	2	24MD	0	1	0.512279987335	None	None	None	None	1
1.7	2015_Aug_06_1600	s	s	19	3	SIC	215	ABS	2	2	24VD	0	1	0.482008934021	None	None	None	None	1
1.7	2015_Aug_06_1600	s	s	19	3	SIC	216	RC	2	0	23VC	1	0	0.63010597229	21.0	-24.0	28	-19	1
1.7	2015_Aug_06_1600	s	s	19	3	SIC	217	RC	2	2	23VD	1	0	0.481979131699	93.0	356.0	91	355	1
1.7	2015_Aug_06_1600	s	s	19	3	SIC	218	RC	1	1	23MO	1	0	0.862335920334	335.0	339.0	339	340	1
1.7	2015_Aug_06_1600	s	s	19	3	SIC	219	RC	0	1	23RO	1	0	1.93673014641	-492.0	-35.0	-492	-40	1
1.7	2015_Aug_06_1600	s	s	19	3	SIC	220	RC	1	2	23MD	1	0	0.470092058182	325.0	-205.0	324	-201	1
1.7	2015_Aug_06_1600	s	s	19	3	SIC	221	ABS	0	2	24RD	0	1	0.611423015594	None	None	None	None	1
1.7	2015_Aug_06_1600	s	s	19	3	SIC	222	ABS	2	0	24VC	0	1	0.617835998535	None	None	None	None	1
1.7	2015_Aug_06_1600	s	s	19	3	SIC	223	RC	2	1	23VO	1	0	0.406857013702	-116.0	-46.0	-113	-37	1
1.7	2015_Aug_06_1600	s	s	19	3	SIC	224	ABS	1	0	24MC	0	1	2.5838701725	None	None	None	None	1
1.7	2015_Aug_06_1600	s	s	19	3	SIC	225	RC	1	1	23MO	1	0	0.665518045425	304.0	-64.0	311	-59	1
1.7	2015_Aug_06_1600	s	s	19	3	SIC	226	RC	2	1	23VO	1	0	0.454892873764	19.0	289.0	19	293	1
1.7	2015_Aug_06_1600	s	s	19	3	SIC	227	RC	2	0	23VC	1	0	0.418255805969	116.0	138.0	124	143	1
1.7	2015_Aug_06_1600	s	s	19	3	SIC	228	ABS	1	2	24MD	0	1	1.45883703232	None	None	None	None	1
1.7	2015_Aug_06_1600	s	s	19	3	SIC	229	RC	2	2	23VD	1	0	0.423094987869	12.0	138.0	20	142	1
1.7	2015_Aug_06_1600	s	s	19	3	SIC	230	ABS	2	2	24VD	0	1	0.441727161407	None	None	None	None	1
1.7	2015_Aug_06_1600	s	s	19	3	SIC	231	RC	1	2	23MD	1	0	0.768136978149	448.0	231.0	445	231	1
1.7	2015_Aug_06_1600	s	s	19	3	SIC	232	ABS	0	2	24RD	0	1	0.618405103683	None	None	None	None	1
1.7	2015_Aug_06_1600	s	s	19	3	SIC	233	ABS	2	0	24VC	0	1	0.536157131195	None	None	None	None	1
1.7	2015_Aug_06_1600	s	s	19	3	SIC	234	ABS	1	1	24MO	0	1	2.1725230217	None	None	None	None	1
1.7	2015_Aug_06_1600	s	s	19	3	SIC	235	RC	1	0	23MC	1	0	3.26717805862	-84.0	-404.0	-80	-408	1
1.7	2015_Aug_06_1600	s	s	19	3	SIC	236	ABS	2	1	24VO	0	1	0.50165104866	None	None	None	None	1
1.7	2015_Aug_06_1600	s	s	19	3	SIC	237	ABS	0	1	24RO	0	1	3.40105199814	None	None	None	None	1
1.7	2015_Aug_06_1600	s	s	19	3	SIC	238	RC	0	2	23RD	1	0	0.470540046692	243.0	9.0	250	12	1
1.7	2015_Aug_06_1600	s	s	19	3	SIC	239	ABS	1	0	24MC	0	1	2.27109098434	None	None	None	None	1
1.7	2015_Aug_06_1600	s	s	19	3	SIC	240	RC	0	1	23RO	1	0	2.79585289955	-351.0	-373.0	-349	-372	1
1.7	2015_Aug_06_1600	s	s	19	3	SIC	241	RC	1	0	23MC	1	0	1.45367598534	484.0	-96.0	479	-91	1
1.7	2015_Aug_06_1600	s	s	19	3	SIC	242	ABS	1	0	24MC	0	1	1.90610790253	None	None	None	None	1
1.7	2015_Aug_06_1600	s	s	19	3	SIC	243	RC	2	2	23VD	1	0	0.512367010117	513.0	-117.0	520	-119	1
1.7	2015_Aug_06_1600	s	s	19	3	SIC	244	RC	2	1	23VO	1	0	0.470166921616	198.0	-373.0	202	-373	1
1.7	2015_Aug_06_1600	s	s	19	3	SIC	245	ABS	0	1	24RO	0	1	3.4071559906	None	None	None	None	1
1.7	2015_Aug_06_1600	s	s	19	3	SIC	246	RC	2	0	23VC	1	0	0.458426952362	263.0	132.0	271	126	1
1.7	2015_Aug_06_1600	s	s	19	3	SIC	247	ABS	2	2	24VD	0	1	0.973649978638	None	None	None	None	1
1.7	2015_Aug_06_1600	s	s	19	3	SIC	248	RC	1	2	23MD	1	0	0.547475814819	402.0	134.0	400	131	1
1.7	2015_Aug_06_1600	s	s	19	3	SIC	249	ABS	1	2	24MD	0	1	0.570602893829	None	None	None	None	1
1.7	2015_Aug_06_1600	s	s	19	3	SIC	250	ABS	2	1	24VO	0	1	0.582926988602	None	None	None	None	1
1.7	2015_Aug_06_1600	s	s	19	3	SIC	251	ABS	0	2	24RD	0	1	0.512476921082	None	None	None	None	1
1.7	2015_Aug_06_1600	s	s	19	3	SIC	252	ABS	1	1	24MO	0	1	1.97208690643	None	None	None	None	1
1.7	2015_Aug_06_1600	s	s	19	3	SIC	253	ABS	2	0	24VC	0	1	0.512423992157	None	None	None	None	1
1.7	2015_Aug_06_1600	s	s	19	3	SIC	254	RC	0	1	23RO	1	0	1.67723989487	-432.0	221.0	-434	221	1
1.7	2015_Aug_06_1600	s	s	19	3	SIC	255	RC	1	1	23MO	1	0	1.05606889725	270.0	91.0	262	96	1
1.7	2015_Aug_06_1600	s	s	19	3	SIC	256	RC	0	2	23RD	1	0	0.47912979126	-283.0	1.0	-270	6	1
1.7	2015_Aug_06_1600	s	s	19	3	SIC	257	ABS	1	1	24MO	0	1	2.03247308731	None	None	None	None	1
1.7	2015_Aug_06_1600	s	s	19	3	SIC	258	ABS	2	1	24VO	0	1	0.512435913086	None	None	None	None	1
1.7	2015_Aug_06_1600	s	s	19	3	SIC	259	RC	2	2	23VD	1	0	0.446677923203	-76.0	135.0	-72	134	1
1.7	2015_Aug_06_1600	s	s	19	3	SIC	260	ABS	0	1	24RO	0	1	3.45482897758	None	None	None	None	1
1.7	2015_Aug_06_1600	s	s	19	3	SIC	261	ABS	1	0	24MC	0	1	2.40054488182	None	None	None	None	1
1.7	2015_Aug_06_1600	s	s	19	3	SIC	262	ABS	2	0	24VC	0	1	0.434888124466	None	None	None	None	1
1.7	2015_Aug_06_1600	s	s	19	3	SIC	263	ABS	0	2	24RD	0	1	0.540803909302	None	None	None	None	1
1.7	2015_Aug_06_1600	s	s	19	3	SIC	264	RC	2	0	23VC	1	0	0.418282985687	-214.0	154.0	-211	148	1
1.7	2015_Aug_06_1600	s	s	19	3	SIC	265	RC	0	2	23RD	1	0	0.476176023483	420.0	-99.0	419	-98	1
1.7	2015_Aug_06_1600	s	s	19	3	SIC	266	ABS	2	2	24VD	0	1	0.829545021057	None	None	None	None	1
1.7	2015_Aug_06_1600	s	s	19	3	SIC	267	RC	2	1	23VO	1	0	0.488926887512	-211.0	-61.0	-200	-61	1
1.7	2015_Aug_06_1600	s	s	19	3	SIC	268	ABS	1	2	24MD	0	1	0.835119962692	None	None	None	None	1
1.7	2015_Aug_06_1600	s	s	19	3	SIC	269	RC	1	1	23MO	1	0	0.88828086853	492.0	263.0	496	267	1
1.7	2015_Aug_06_1600	s	s	19	3	SIC	270	RC	1	2	23MD	1	0	0.481971025467	285.0	123.0	288	122	1
1.7	2015_Aug_06_1600	s	s	19	3	SIC	271	RC	1	0	23MC	0	1	2.91851401329	351.0	-308.0	None	None	0
1.7	2015_Aug_06_1600	s	s	19	3	SIC	272	RC	0	1	23RO	1	0	2.58381485939	135.0	183.0	133	188	1
1.7	2015_Aug_06_1600	s	s	19	3	SIC	273	RC	1	1	23MO	1	0	1.06526303291	-245.0	-122.0	-237	-122	1
1.7	2015_Aug_06_1600	s	s	19	3	SIC	274	ABS	0	1	24RO	0	1	4.11097502708	None	None	None	None	1
1.7	2015_Aug_06_1600	s	s	19	3	SIC	275	RC	2	1	23VO	1	0	0.41158914566	39.0	280.0	43	279	1
1.7	2015_Aug_06_1600	s	s	19	3	SIC	276	RC	2	0	23VC	1	0	0.470106124878	-220.0	-200.0	-214	-199	1
1.7	2015_Aug_06_1600	s	s	19	3	SIC	277	RC	1	2	23MD	1	0	0.558655023575	389.0	-353.0	396	-355	1
1.7	2015_Aug_06_1600	s	s	19	3	SIC	278	RC	0	2	23RD	1	0	0.50034403801	149.0	-311.0	155	-303	1
1.7	2015_Aug_06_1600	s	s	19	3	SIC	279	ABS	2	1	24VO	0	1	0.570285081863	None	None	None	None	1
1.7	2015_Aug_06_1600	s	s	19	3	SIC	280	ABS	2	2	24VD	0	1	0.505494832993	None	None	None	None	1
1.7	2015_Aug_06_1600	s	s	19	3	SIC	281	ABS	0	2	24RD	0	1	1.3002281189	None	None	None	None	1
1.7	2015_Aug_06_1600	s	s	19	3	SIC	282	RC	2	2	23VD	1	0	0.597097158432	-5.0	-195.0	-3	-189	1
1.7	2015_Aug_06_1600	s	s	19	3	SIC	283	ABS	1	1	24MO	0	1	2.0896730423	None	None	None	None	1
1.7	2015_Aug_06_1600	s	s	19	3	SIC	284	ABS	1	0	24MC	0	1	3.03643298149	None	None	None	None	1
1.7	2015_Aug_06_1600	s	s	19	3	SIC	285	RC	0	1	23RO	1	0	2.36525201797	503.0	127.0	502	127	1
1.7	2015_Aug_06_1600	s	s	19	3	SIC	286	ABS	1	2	24MD	0	1	0.559958934784	None	None	None	None	1
1.7	2015_Aug_06_1600	s	s	19	3	SIC	287	ABS	2	0	24VC	1	0	0.423114061356	None	None	-112	118	0
1.7	2015_Aug_06_1600	s	s	19	3	SIC	288	RC	1	0	23MC	1	0	0.806758165359	225.0	-29.0	219	-37	1
1.7	2015_Aug_06_1600	s	s	19	3	SIC	289	ABS	2	0	24VC	0	1	0.446730136871	None	None	None	None	1
1.7	2015_Aug_06_1600	s	s	19	3	SIC	290	RC	2	1	23VO	1	0	0.611418962479	-520.0	-100.0	-522	-98	1
1.7	2015_Aug_06_1600	s	s	19	3	SIC	291	RC	0	1	23RO	1	0	1.71295714378	122.0	-337.0	117	-331	1
1.7	2015_Aug_06_1600	s	s	19	3	SIC	292	ABS	0	2	24RD	0	1	0.559330940247	None	None	None	None	1
1.7	2015_Aug_06_1600	s	s	19	3	SIC	293	RC	1	2	23MD	1	0	0.552618980408	-18.0	-42.0	-19	-50	1
1.7	2015_Aug_06_1600	s	s	19	3	SIC	294	RC	0	2	23RD	1	0	0.524091959	-46.0	-259.0	-42	-262	1
1.7	2015_Aug_06_1600	s	s	19	3	SIC	295	ABS	2	2	24VD	0	1	0.53559589386	None	None	None	None	1
1.7	2015_Aug_06_1600	s	s	19	3	SIC	296	ABS	0	1	24RO	0	1	4.54960083961	None	None	None	None	1
1.7	2015_Aug_06_1600	s	s	19	3	SIC	297	ABS	1	0	24MC	0	1	2.2475130558	None	None	None	None	1
1.7	2015_Aug_06_1600	s	s	19	3	SIC	298	RC	2	0	23VC	1	0	0.623155117035	-455.0	-148.0	-455	-151	1
1.7	2015_Aug_06_1600	s	s	19	3	SIC	299	ABS	1	2	24MD	0	1	0.889084100723	None	None	None	None	1
1.7	2015_Aug_06_1600	s	s	19	3	SIC	300	RC	2	2	23VD	1	0	0.442843914032	-116.0	15.0	-109	20	1
1.7	2015_Aug_06_1600	s	s	19	3	SIC	301	ABS	1	1	24MO	0	1	1.60382699966	None	None	None	None	1
1.7	2015_Aug_06_1600	s	s	19	3	SIC	302	RC	1	1	23MO	1	0	1.6544148922	-272.0	-338.0	-270	-345	1
1.7	2015_Aug_06_1600	s	s	19	3	SIC	303	ABS	2	1	24VO	0	1	0.47484588623	None	None	None	None	1
1.7	2015_Aug_06_1600	s	s	19	3	SIC	304	RC	1	0	23MC	1	0	1.21176791191	41.0	-264.0	48	-261	1
1.7	2015_Aug_06_1600	s	s	19	3	SIC	305	RC	0	2	23RD	1	0	0.784337043762	198.0	219.0	192	224	1
1.7	2015_Aug_06_1600	s	s	19	3	SIC	306	RC	2	2	23VD	1	0	0.540843009949	-77.0	-165.0	-78	-161	1
1.7	2015_Aug_06_1600	s	s	19	3	SIC	307	RC	1	0	23MC	1	0	2.60739898682	39.0	-377.0	35	-378	1
1.7	2015_Aug_06_1600	s	s	19	3	SIC	308	ABS	1	1	24MO	0	1	2.76548194885	None	None	None	None	1
1.7	2015_Aug_06_1600	s	s	19	3	SIC	309	ABS	1	2	24MD	0	1	0.905658006668	None	None	None	None	1
1.7	2015_Aug_06_1600	s	s	19	3	SIC	310	ABS	0	1	24RO	0	1	4.26027297974	None	None	None	None	1
1.7	2015_Aug_06_1600	s	s	19	3	SIC	311	RC	1	1	23MO	1	0	0.803454875946	376.0	65.0	381	64	1
1.7	2015_Aug_06_1600	s	s	19	3	SIC	312	RC	0	1	23RO	1	0	3.35152506828	-495.0	-177.0	-490	-179	1
1.7	2015_Aug_06_1600	s	s	19	3	SIC	313	RC	1	2	23MD	1	0	0.585468053818	266.0	365.0	270	362	1
1.7	2015_Aug_06_1600	s	s	19	3	SIC	314	ABS	2	1	24VO	0	1	0.53754901886	None	None	None	None	1
1.7	2015_Aug_06_1600	s	s	19	3	SIC	315	ABS	2	0	24VC	1	0	0.665210962296	None	None	-59	-62	0
1.7	2015_Aug_06_1600	s	s	19	3	SIC	316	ABS	0	2	24RD	0	1	0.615077972412	None	None	None	None	1
1.7	2015_Aug_06_1600	s	s	19	3	SIC	317	ABS	2	2	24VD	0	1	0.547091007233	None	None	None	None	1
1.7	2015_Aug_06_1600	s	s	19	3	SIC	318	RC	2	1	23VO	1	0	0.677228927612	-68.0	-399.0	-71	-402	1
1.7	2015_Aug_06_1600	s	s	19	3	SIC	319	ABS	1	0	24MC	0	1	1.59439301491	None	None	None	None	1
1.7	2015_Aug_06_1600	s	s	19	3	SIC	320	RC	2	0	23VC	1	0	0.470193862915	436.0	251.0	435	251	1
1.7	2015_Aug_06_1600	s	s	19	3	SIC	321	RC	2	0	23VC	1	0	0.477243900299	31.0	392.0	40	394	1
1.7	2015_Aug_06_1600	s	s	19	3	SIC	322	ABS	2	0	24VC	0	1	0.517304897308	None	None	None	None	1
1.7	2015_Aug_06_1600	s	s	19	3	SIC	323	ABS	1	1	24MO	0	1	1.3058719635	None	None	None	None	1
1.7	2015_Aug_06_1600	s	s	19	3	SIC	324	ABS	1	0	24MC	0	1	2.72522091866	None	None	None	None	1
1.7	2015_Aug_06_1600	s	s	19	3	SIC	325	RC	1	2	23MD	1	0	0.441525936127	153.0	126.0	143	125	1
1.7	2015_Aug_06_1600	s	s	19	3	SIC	326	RC	2	2	23VD	1	0	0.482014894485	-88.0	-391.0	-87	-389	1
1.7	2015_Aug_06_1600	s	s	19	3	SIC	327	RC	2	1	23VO	1	0	0.488749027252	-276.0	256.0	-269	251	1
1.7	2015_Aug_06_1600	s	s	19	3	SIC	328	RC	0	2	23RD	1	0	0.458535909653	-10.0	-118.0	-16	-116	1
1.7	2015_Aug_06_1600	s	s	19	3	SIC	329	ABS	0	2	24RD	0	1	0.587946176529	None	None	None	None	1
1.7	2015_Aug_06_1600	s	s	19	3	SIC	330	RC	0	1	23RO	1	0	1.06565499306	338.0	166.0	354	174	1
1.7	2015_Aug_06_1600	s	s	19	3	SIC	331	ABS	2	2	24VD	0	1	0.493725061417	None	None	None	None	1
1.7	2015_Aug_06_1600	s	s	19	3	SIC	332	ABS	0	1	24RO	0	1	4.0955350399	None	None	None	None	1
1.7	2015_Aug_06_1600	s	s	19	3	SIC	333	ABS	2	1	24VO	0	1	0.434906959534	None	None	None	None	1
1.7	2015_Aug_06_1600	s	s	19	3	SIC	334	RC	1	1	23MO	1	0	0.597487926483	124.0	-59.0	113	-56	1
1.7	2015_Aug_06_1600	s	s	19	3	SIC	335	RC	1	0	23MC	1	0	0.517204999924	-141.0	168.0	-134	169	1
1.7	2015_Aug_06_1600	s	s	19	3	SIC	336	ABS	1	2	24MD	0	1	0.51086306572	None	None	None	None	1
1.7	2015_Aug_06_1600	s	s	19	3	SIC	337	RC	2	0	23VC	1	0	0.411329030991	-235.0	225.0	-229	220	1
1.7	2015_Aug_06_1600	s	s	19	3	SIC	338	RC	2	1	23VO	1	0	0.465348958969	497.0	255.0	499	254	1
1.7	2015_Aug_06_1600	s	s	19	3	SIC	339	ABS	2	2	24VD	0	1	0.423223018646	None	None	None	None	1
1.7	2015_Aug_06_1600	s	s	19	3	SIC	340	ABS	1	2	24MD	0	1	0.458758115768	None	None	None	None	1
1.7	2015_Aug_06_1600	s	s	19	3	SIC	341	RC	2	2	23VD	1	0	0.429912090302	359.0	-12.0	353	-6	1
1.7	2015_Aug_06_1600	s	s	19	3	SIC	342	ABS	2	0	24VC	0	1	0.493803977966	None	None	None	None	1
1.7	2015_Aug_06_1600	s	s	19	3	SIC	343	RC	0	2	23RD	1	0	0.434868812561	-96.0	-60.0	-92	-54	1
1.7	2015_Aug_06_1600	s	s	19	3	SIC	344	RC	0	1	23RO	1	0	1.10948085785	528.0	112.0	526	110	1
1.7	2015_Aug_06_1600	s	s	19	3	SIC	345	RC	1	0	23MC	1	0	0.811495065689	39.0	87.0	41	85	1
1.7	2015_Aug_06_1600	s	s	19	3	SIC	346	ABS	0	2	24RD	0	1	0.523979902267	None	None	None	None	1
1.7	2015_Aug_06_1600	s	s	19	3	SIC	347	RC	1	2	23MD	1	0	0.394816160202	-16.0	37.0	-12	36	1
1.7	2015_Aug_06_1600	s	s	19	3	SIC	348	ABS	0	1	24RO	0	1	3.61955404282	None	None	None	None	1
1.7	2015_Aug_06_1600	s	s	19	3	SIC	349	ABS	1	1	24MO	0	1	2.23095798492	None	None	None	None	1
1.7	2015_Aug_06_1600	s	s	19	3	SIC	350	ABS	2	1	24VO	0	1	0.478315830231	None	None	None	None	1
1.7	2015_Aug_06_1600	s	s	19	3	SIC	351	ABS	1	0	24MC	0	1	2.68309593201	None	None	None	None	1
1.7	2015_Aug_06_1600	s	s	19	3	SIC	352	RC	1	1	23MO	1	0	0.914493083954	20.0	147.0	25	144	1
1.7	2015_Aug_06_1600	s	s	19	3	SIC	353	ABS	1	2	24MD	0	1	0.493709802628	None	None	None	None	1
1.7	2015_Aug_06_1600	s	s	19	3	SIC	354	ABS	1	0	24MC	0	1	3.01269316673	None	None	None	None	1
1.7	2015_Aug_06_1600	s	s	19	3	SIC	355	RC	1	2	23MD	1	0	0.529525995255	-251.0	379.0	-253	377	1
1.7	2015_Aug_06_1600	s	s	19	3	SIC	356	RC	2	2	23VD	1	0	0.429714202881	-310.0	224.0	-314	223	1
1.7	2015_Aug_06_1600	s	s	19	3	SIC	357	RC	2	0	23VC	1	0	0.429765939713	-42.0	198.0	-35	194	1
1.7	2015_Aug_06_1600	s	s	19	3	SIC	358	RC	1	0	23MC	1	0	1.92471003532	-414.0	336.0	-412	336	1
1.7	2015_Aug_06_1600	s	s	19	3	SIC	359	RC	0	2	23RD	1	0	0.453056097031	234.0	408.0	232	409	1
1.7	2015_Aug_06_1600	s	s	19	3	SIC	360	RC	2	1	23VO	1	0	0.429978847504	284.0	30.0	287	26	1
1.7	2015_Aug_06_1600	s	s	19	3	SIC	361	RC	1	1	23MO	0	1	2.04248785973	-436.0	-354.0	None	None	0
1.7	2015_Aug_06_1600	s	s	19	3	SIC	362	ABS	2	1	24VO	0	1	0.55967092514	None	None	None	None	1
1.7	2015_Aug_06_1600	s	s	19	3	SIC	363	ABS	0	2	24RD	0	1	0.587948083878	None	None	None	None	1
1.7	2015_Aug_06_1600	s	s	19	3	SIC	364	ABS	1	1	24MO	0	1	1.69803404808	None	None	None	None	1
1.7	2015_Aug_06_1600	s	s	19	3	SIC	365	ABS	0	1	24RO	0	1	3.24314498901	None	None	None	None	1
1.7	2015_Aug_06_1600	s	s	19	3	SIC	366	ABS	2	0	24VC	0	1	0.434849023819	None	None	None	None	1
1.7	2015_Aug_06_1600	s	s	19	3	SIC	367	ABS	2	2	24VD	0	1	0.772723913193	None	None	None	None	1
1.7	2015_Aug_06_1600	s	s	19	3	SIC	368	RC	0	1	23RO	1	0	0.8350481987	7.0	223.0	11	217	1
1.7	2015_Aug_06_1600	s	s	19	3	SIC	369	RC	1	0	23MC	1	0	1.9768447876	316.0	-206.0	314	-205	1
1.7	2015_Aug_06_1600	s	s	19	3	SIC	370	ABS	2	1	24VO	0	1	0.466866016388	None	None	None	None	1
1.7	2015_Aug_06_1600	s	s	19	3	SIC	371	RC	0	1	23RO	0	1	3.91903591156	2.0	359.0	None	None	0
1.7	2015_Aug_06_1600	s	s	19	3	SIC	372	RC	2	2	23VD	1	0	0.608289003372	516.0	13.0	526	13	1
1.7	2015_Aug_06_1600	s	s	19	3	SIC	373	ABS	1	0	24MC	0	1	2.77715706825	None	None	None	None	1
1.7	2015_Aug_06_1600	s	s	19	3	SIC	374	ABS	0	1	24RO	0	1	4.49026489258	None	None	None	None	1
1.7	2015_Aug_06_1600	s	s	19	3	SIC	375	RC	1	2	23MD	1	0	0.465553045273	235.0	-101.0	235	-99	1
1.7	2015_Aug_06_1600	s	s	19	3	SIC	376	RC	1	1	23MO	1	0	0.752691030502	285.0	201.0	289	204	1
1.7	2015_Aug_06_1600	s	s	19	3	SIC	377	ABS	2	2	24VD	0	1	0.470099925995	None	None	None	None	1
1.7	2015_Aug_06_1600	s	s	19	3	SIC	378	RC	0	2	23RD	1	0	0.529098987579	-475.0	-282.0	-466	-281	1
1.7	2015_Aug_06_1600	s	s	19	3	SIC	379	ABS	1	2	24MD	0	1	0.517287969589	None	None	None	None	1
1.7	2015_Aug_06_1600	s	s	19	3	SIC	380	RC	2	0	23VC	1	0	0.465673923492	-82.0	-275.0	-84	-271	1
1.7	2015_Aug_06_1600	s	s	19	3	SIC	381	ABS	1	1	24MO	0	1	1.99662709236	None	None	None	None	1
1.7	2015_Aug_06_1600	s	s	19	3	SIC	382	RC	2	1	23VO	1	0	0.462122917175	-12.0	-327.0	-20	-333	1
1.7	2015_Aug_06_1600	s	s	19	3	SIC	383	ABS	0	2	24RD	0	1	0.949463844299	None	None	None	None	1
1.7	2015_Aug_06_1600	s	s	19	3	SIC	384	ABS	2	0	24VC	0	1	0.559381961823	None	None	None	None	1
1.7	2015_Aug_06_1600	s	s	19	3	SIC	385	RC	0	2	23RD	1	0	0.453150033951	269.0	168.0	274	172	1
1.7	2015_Aug_06_1600	s	s	19	3	SIC	386	RC	1	1	23MO	1	0	0.853510141373	197.0	145.0	193	144	1
1.7	2015_Aug_06_1600	s	s	19	3	SIC	387	ABS	0	2	24RD	0	1	0.587887048721	None	None	None	None	1
1.7	2015_Aug_06_1600	s	s	19	3	SIC	388	ABS	0	1	24RO	0	1	3.7492210865	None	None	None	None	1
1.7	2015_Aug_06_1600	s	s	19	3	SIC	389	RC	1	2	23MD	1	0	0.405594110489	232.0	105.0	239	98	1
1.7	2015_Aug_06_1600	s	s	19	3	SIC	390	RC	2	0	23VC	1	0	0.646804094315	-162.0	-160.0	-163	-153	1
1.7	2015_Aug_06_1600	s	s	19	3	SIC	391	RC	1	0	23MC	1	0	1.4787709713	387.0	216.0	390	215	1
1.7	2015_Aug_06_1600	s	s	19	3	SIC	392	RC	2	1	23VO	1	0	0.479327917099	-486.0	389.0	-494	398	1
1.7	2015_Aug_06_1600	s	s	19	3	SIC	393	ABS	1	2	24MD	0	1	0.517216920853	None	None	None	None	1
1.7	2015_Aug_06_1600	s	s	19	3	SIC	394	ABS	1	1	24MO	0	1	1.86870002747	None	None	None	None	1
1.7	2015_Aug_06_1600	s	s	19	3	SIC	395	ABS	2	2	24VD	0	1	0.540755987167	None	None	None	None	1
1.7	2015_Aug_06_1600	s	s	19	3	SIC	396	ABS	2	0	24VC	0	1	0.606605052948	None	None	None	None	1
1.7	2015_Aug_06_1600	s	s	19	3	SIC	397	RC	2	2	23VD	1	0	0.453342914581	-410.0	226.0	-415	222	1
1.7	2015_Aug_06_1600	s	s	19	3	SIC	398	ABS	1	0	24MC	1	0	1.38323688507	None	None	213	0	0
1.7	2015_Aug_06_1600	s	s	19	3	SIC	399	RC	0	1	23RO	1	0	1.20646309853	-319.0	242.0	-318	240	1
1.7	2015_Aug_06_1600	s	s	19	3	SIC	400	ABS	2	1	24VO	0	1	0.594585895538	None	None	None	None	1
1.7	2015_Aug_06_1600	s	s	19	3	SIC	401	ABS	1	1	24MO	0	1	1.68629312515	None	None	None	None	1
1.7	2015_Aug_06_1600	s	s	19	3	SIC	402	ABS	2	2	24VD	0	1	0.420005083084	None	None	None	None	1
1.7	2015_Aug_06_1600	s	s	19	3	SIC	403	RC	0	1	23RO	0	1	3.26659989357	-106.0	47.0	None	None	0
1.7	2015_Aug_06_1600	s	s	19	3	SIC	404	RC	1	0	23MC	1	0	4.76646614075	-393.0	13.0	-387	9	1
1.7	2015_Aug_06_1600	s	s	19	3	SIC	405	RC	2	2	23VD	1	0	0.446590900421	418.0	126.0	409	124	1
1.7	2015_Aug_06_1600	s	s	19	3	SIC	406	ABS	0	2	24RD	0	1	0.611409902573	None	None	None	None	1
1.7	2015_Aug_06_1600	s	s	19	3	SIC	407	RC	1	1	23MO	1	0	0.764442920685	410.0	77.0	406	81	1
1.7	2015_Aug_06_1600	s	s	19	3	SIC	408	ABS	2	1	24VO	0	1	1.04207110405	None	None	None	None	1
1.7	2015_Aug_06_1600	s	s	19	3	SIC	409	RC	0	2	23RD	1	0	0.587842226028	510.0	-107.0	516	-107	1
1.7	2015_Aug_06_1600	s	s	19	3	SIC	410	RC	1	2	23MD	1	0	0.535768032074	-141.0	-144.0	-140	-148	1
1.7	2015_Aug_06_1600	s	s	19	3	SIC	411	RC	2	0	23VC	1	0	0.411335945129	-141.0	292.0	-147	289	1
1.7	2015_Aug_06_1600	s	s	19	3	SIC	412	ABS	1	0	24MC	0	1	2.97243595123	None	None	None	None	1
1.7	2015_Aug_06_1600	s	s	19	3	SIC	413	ABS	2	0	24VC	0	1	0.481996059418	None	None	None	None	1
1.7	2015_Aug_06_1600	s	s	19	3	SIC	414	RC	2	1	23VO	0	1	0.470128059387	498.0	44.0	None	None	0
1.7	2015_Aug_06_1600	s	s	19	3	SIC	415	ABS	0	1	24RO	0	1	4.00821614265	None	None	None	None	1
1.7	2015_Aug_06_1600	s	s	19	3	SIC	416	ABS	1	2	24MD	0	1	0.976238965988	None	None	None	None	1
1.7	2015_Aug_06_1600	s	s	19	3	SIC	417	RC	1	1	23MO	1	0	2.10623407364	-206.0	-365.0	-203	-361	1
1.7	2015_Aug_06_1600	s	s	19	3	SIC	418	RC	2	0	23VC	1	0	0.512054920197	-237.0	-280.0	-236	-280	1
1.7	2015_Aug_06_1600	s	s	19	3	SIC	419	RC	0	2	23RD	1	0	0.522799015045	-333.0	-96.0	-331	-100	1
1.7	2015_Aug_06_1600	s	s	19	3	SIC	420	ABS	0	2	24RD	0	1	0.858633041382	None	None	None	None	1
1.7	2015_Aug_06_1600	s	s	19	3	SIC	421	ABS	0	1	24RO	0	1	2.95364403725	None	None	None	None	1
1.7	2015_Aug_06_1600	s	s	19	3	SIC	422	ABS	1	0	24MC	0	1	3.42446804047	None	None	None	None	1
1.7	2015_Aug_06_1600	s	s	19	3	SIC	423	ABS	2	2	24VD	0	1	0.587797164917	None	None	None	None	1
1.7	2015_Aug_06_1600	s	s	19	3	SIC	424	RC	2	2	23VD	1	0	0.442355155945	-6.0	-218.0	-9	-217	1
1.7	2015_Aug_06_1600	s	s	19	3	SIC	425	ABS	2	1	24VO	0	1	0.748315095901	None	None	None	None	1
1.7	2015_Aug_06_1600	s	s	19	3	SIC	426	RC	1	0	23MC	1	0	0.815279006958	294.0	228.0	291	223	1
1.7	2015_Aug_06_1600	s	s	19	3	SIC	427	ABS	1	2	24MD	0	1	0.458403110504	None	None	None	None	1
1.7	2015_Aug_06_1600	s	s	19	3	SIC	428	RC	1	2	23MD	1	0	0.423075914383	307.0	5.0	318	8	1
1.7	2015_Aug_06_1600	s	s	19	3	SIC	429	ABS	1	1	24MO	0	1	2.47111606598	None	None	None	None	1
1.7	2015_Aug_06_1600	s	s	19	3	SIC	430	RC	2	1	23VO	1	0	0.524117946625	246.0	333.0	248	333	1
1.7	2015_Aug_06_1600	s	s	19	3	SIC	431	RC	0	1	23RO	0	1	2.85959410667	119.0	265.0	None	None	0
1.7	2015_Aug_06_1600	s	s	19	3	SIC	432	ABS	2	0	24VC	0	1	0.571841001511	None	None	None	None	1
1.7	2015_Aug_06_1600	s	s	19	3	SIC	433	RC	1	1	23MO	1	0	2.38419413567	412.0	121.0	413	126	1
1.7	2015_Aug_06_1600	s	s	19	3	SIC	434	ABS	2	2	24VD	0	1	0.618376970291	None	None	None	None	1
1.7	2015_Aug_06_1600	s	s	19	3	SIC	435	RC	1	2	23MD	1	0	0.60657787323	-265.0	280.0	-265	275	1
1.7	2015_Aug_06_1600	s	s	19	3	SIC	436	ABS	0	1	24RO	0	1	3.41283297539	None	None	None	None	1
1.7	2015_Aug_06_1600	s	s	19	3	SIC	437	ABS	2	1	24VO	0	1	0.552623033524	None	None	None	None	1
1.7	2015_Aug_06_1600	s	s	19	3	SIC	438	RC	0	1	23RO	1	0	1.7021651268	-344.0	-20.0	-333	-14	1
1.7	2015_Aug_06_1600	s	s	19	3	SIC	439	ABS	1	1	24MO	0	1	1.78043198586	None	None	None	None	1
1.7	2015_Aug_06_1600	s	s	19	3	SIC	440	ABS	1	0	24MC	1	0	1.13301992416	None	None	-27	-39	0
1.7	2015_Aug_06_1600	s	s	19	3	SIC	441	RC	2	1	23VO	1	0	0.434900045395	59.0	102.0	48	102	1
1.7	2015_Aug_06_1600	s	s	19	3	SIC	442	ABS	0	2	24RD	0	1	0.594619989395	None	None	None	None	1
1.7	2015_Aug_06_1600	s	s	19	3	SIC	443	RC	0	2	23RD	1	0	0.477124214172	-353.0	200.0	-350	202	1
1.7	2015_Aug_06_1600	s	s	19	3	SIC	444	RC	2	2	23VD	1	0	0.420531988144	-24.0	-63.0	-17	-70	1
1.7	2015_Aug_06_1600	s	s	19	3	SIC	445	ABS	2	0	24VC	0	1	0.811583995819	None	None	None	None	1
1.7	2015_Aug_06_1600	s	s	19	3	SIC	446	ABS	1	2	24MD	0	1	0.499851942062	None	None	None	None	1
1.7	2015_Aug_06_1600	s	s	19	3	SIC	447	RC	2	0	23VC	1	0	0.447060108185	288.0	82.0	282	85	1
1.7	2015_Aug_06_1600	s	s	19	3	SIC	448	RC	1	0	23MC	1	0	0.806411981583	306.0	221.0	313	227	1
1.7	2015_Aug_06_1600	s	s	19	3	SIC	449	RC	2	1	23VO	1	0	0.446632862091	-234.0	-103.0	-234	-102	1
1.7	2015_Aug_06_1600	s	s	19	3	SIC	450	ABS	1	2	24MD	0	1	0.681946992874	None	None	None	None	1
1.7	2015_Aug_06_1600	s	s	19	3	SIC	451	ABS	0	2	24RD	0	1	0.740951061249	None	None	None	None	1
1.7	2015_Aug_06_1600	s	s	19	3	SIC	452	ABS	2	1	24VO	0	1	0.505443811417	None	None	None	None	1
1.7	2015_Aug_06_1600	s	s	19	3	SIC	453	ABS	0	1	24RO	0	1	3.34223389626	None	None	None	None	1
1.7	2015_Aug_06_1600	s	s	19	3	SIC	454	RC	1	0	23MC	1	0	2.01213693619	-112.0	-405.0	-110	-411	1
1.7	2015_Aug_06_1600	s	s	19	3	SIC	455	RC	0	1	23RO	1	0	1.48928308487	41.0	267.0	41	271	1
1.7	2015_Aug_06_1600	s	s	19	3	SIC	456	RC	2	0	23VC	1	0	0.599694013596	106.0	-339.0	113	-330	1
1.7	2015_Aug_06_1600	s	s	19	3	SIC	457	ABS	2	2	24VD	0	1	0.594534873962	None	None	None	None	1
1.7	2015_Aug_06_1600	s	s	19	3	SIC	458	RC	1	2	23MD	1	0	0.430021047592	484.0	153.0	493	160	1
1.7	2015_Aug_06_1600	s	s	19	3	SIC	459	RC	0	2	23RD	1	0	0.776265859604	-387.0	-404.0	-389	-405	1
1.7	2015_Aug_06_1600	s	s	19	3	SIC	460	ABS	1	0	24MC	0	1	2.36520385742	None	None	None	None	1
1.7	2015_Aug_06_1600	s	s	19	3	SIC	461	ABS	1	1	24MO	0	1	1.91796112061	None	None	None	None	1
1.7	2015_Aug_06_1600	s	s	19	3	SIC	462	ABS	2	0	24VC	0	1	0.493762969971	None	None	None	None	1
1.7	2015_Aug_06_1600	s	s	19	3	SIC	463	RC	1	1	23MO	1	0	1.7484331131	-447.0	-270.0	-447	-265	1
1.7	2015_Aug_06_1600	s	s	19	3	SIC	464	RC	2	2	23VD	1	0	0.399600028992	284.0	-72.0	288	-76	1
1.7	2015_Aug_06_1600	s	s	19	3	SIC	465	ABS	1	0	24MC	0	1	4.06640911102	None	None	None	None	1
1.7	2015_Aug_06_1600	s	s	19	3	SIC	466	ABS	1	1	24MO	0	1	2.02388691902	None	None	None	None	1
1.7	2015_Aug_06_1600	s	s	19	3	SIC	467	RC	0	2	23RD	1	0	0.599615097046	-112.0	106.0	-105	114	1
1.7	2015_Aug_06_1600	s	s	19	3	SIC	468	ABS	2	1	24VO	0	1	0.541016101837	None	None	None	None	1
1.7	2015_Aug_06_1600	s	s	19	3	SIC	469	ABS	0	1	24RO	0	1	3.14877200127	None	None	None	None	1
1.7	2015_Aug_06_1600	s	s	19	3	SIC	470	RC	1	2	23MD	1	0	0.665220975876	288.0	331.0	278	338	1
1.7	2015_Aug_06_1600	s	s	19	3	SIC	471	ABS	0	2	24RD	0	1	0.726580142975	None	None	None	None	1
1.7	2015_Aug_06_1600	s	s	19	3	SIC	472	RC	1	0	23MC	1	0	0.855114936829	397.0	34.0	400	38	1
1.7	2015_Aug_06_1600	s	s	19	3	SIC	473	ABS	2	2	24VD	0	1	0.770318984985	None	None	None	None	1
1.7	2015_Aug_06_1600	s	s	19	3	SIC	474	ABS	2	0	24VC	0	1	0.717422008514	None	None	None	None	1
1.7	2015_Aug_06_1600	s	s	19	3	SIC	475	RC	2	0	23VC	1	0	0.465690135956	-421.0	150.0	-420	153	1
1.7	2015_Aug_06_1600	s	s	19	3	SIC	476	RC	0	1	23RO	0	1	4.40155076981	434.0	157.0	None	None	0
1.7	2015_Aug_06_1600	s	s	19	3	SIC	477	RC	2	2	23VD	1	0	0.525152921677	-332.0	-365.0	-337	-367	1
1.7	2015_Aug_06_1600	s	s	19	3	SIC	478	RC	1	1	23MO	1	0	0.682048082352	343.0	138.0	345	135	1
1.7	2015_Aug_06_1600	s	s	19	3	SIC	479	RC	2	1	23VO	1	0	0.618102073669	-124.0	-204.0	-124	-205	1
1.7	2015_Aug_06_1600	s	s	19	3	SIC	480	ABS	1	2	24MD	0	1	0.646714925766	None	None	None	None	1
1.7	2015_Aug_06_1600	s	s	19	3	SIC	481	ABS	1	1	24MO	0	1	2.19574594498	None	None	None	None	1
1.7	2015_Aug_06_1600	s	s	19	3	SIC	482	ABS	2	0	24VC	0	1	0.552582025528	None	None	None	None	1
1.7	2015_Aug_06_1600	s	s	19	3	SIC	483	RC	2	2	23VD	1	0	0.482274055481	-373.0	230.0	-364	229	1
1.7	2015_Aug_06_1600	s	s	19	3	SIC	484	RC	2	1	23VO	1	0	0.710397005081	403.0	391.0	401	386	1
1.7	2015_Aug_06_1600	s	s	19	3	SIC	485	RC	1	0	23MC	1	0	1.41181302071	394.0	405.0	395	398	1
1.7	2015_Aug_06_1600	s	s	19	3	SIC	486	ABS	0	1	24RO	0	1	3.80798006058	None	None	None	None	1
1.7	2015_Aug_06_1600	s	s	19	3	SIC	487	ABS	2	1	24VO	0	1	0.705611944199	None	None	None	None	1
1.7	2015_Aug_06_1600	s	s	19	3	SIC	488	RC	2	0	23VC	1	0	0.52423119545	-503.0	-220.0	-500	-217	1
1.7	2015_Aug_06_1600	s	s	19	3	SIC	489	RC	1	1	23MO	1	0	0.999768972397	262.0	-356.0	262	-359	1
1.7	2015_Aug_06_1600	s	s	19	3	SIC	490	RC	0	2	23RD	1	0	0.540817975998	-190.0	340.0	-191	334	1
1.7	2015_Aug_06_1600	s	s	19	3	SIC	491	RC	1	2	23MD	1	0	0.458468914032	-206.0	-56.0	-208	-47	1
1.7	2015_Aug_06_1600	s	s	19	3	SIC	492	RC	0	1	23RO	1	0	2.60752010345	-278.0	-298.0	-265	-292	1
1.7	2015_Aug_06_1600	s	s	19	3	SIC	493	ABS	2	2	24VD	0	1	0.726499080658	None	None	None	None	1
1.7	2015_Aug_06_1600	s	s	19	3	SIC	494	ABS	1	2	24MD	0	1	0.561507940292	None	None	None	None	1
1.7	2015_Aug_06_1600	s	s	19	3	SIC	495	ABS	1	0	24MC	0	1	3.12612080574	None	None	None	None	1
1.7	2015_Aug_06_1600	s	s	19	3	SIC	496	ABS	0	2	24RD	0	1	0.608745098114	None	None	None	None	1
1.7	2015_Aug_06_1600	s	s	19	3	SIC	497	RC	2	0	23VC	1	0	0.446665048599	-166.0	279.0	-163	275	1
1.7	2015_Aug_06_1600	s	s	19	3	SIC	498	ABS	0	1	24RO	0	1	3.5486240387	None	None	None	None	1
1.7	2015_Aug_06_1600	s	s	19	3	SIC	499	RC	0	2	23RD	1	0	0.859078168869	406.0	-362.0	410	-357	1
1.7	2015_Aug_06_1600	s	s	19	3	SIC	500	ABS	1	2	24MD	0	1	0.552613973618	None	None	None	None	1
1.7	2015_Aug_06_1600	s	s	19	3	SIC	501	RC	1	1	23MO	1	0	0.88220500946	41.0	286.0	46	279	1
1.7	2015_Aug_06_1600	s	s	19	3	SIC	502	ABS	1	1	24MO	0	1	1.91475296021	None	None	None	None	1
1.7	2015_Aug_06_1600	s	s	19	3	SIC	503	RC	1	2	23MD	1	0	0.477061986923	-445.0	204.0	-446	199	1
1.7	2015_Aug_06_1600	s	s	19	3	SIC	504	ABS	0	2	24RD	0	1	0.693818807602	None	None	None	None	1
1.7	2015_Aug_06_1600	s	s	19	3	SIC	505	RC	1	0	23MC	1	0	1.01782679558	250.0	164.0	250	161	1
1.7	2015_Aug_06_1600	s	s	19	3	SIC	506	ABS	2	2	24VD	0	1	0.512334108353	None	None	None	None	1
1.7	2015_Aug_06_1600	s	s	19	3	SIC	507	ABS	1	0	24MC	0	1	2.79758405685	None	None	None	None	1
1.7	2015_Aug_06_1600	s	s	19	3	SIC	508	ABS	2	0	24VC	0	1	0.505485057831	None	None	None	None	1
1.7	2015_Aug_06_1600	s	s	19	3	SIC	509	RC	2	1	23VO	1	0	0.446689844131	-390.0	-198.0	-385	-200	1
1.7	2015_Aug_06_1600	s	s	19	3	SIC	510	RC	2	2	23VD	1	0	0.418198823929	-92.0	-219.0	-84	-219	1
1.7	2015_Aug_06_1600	s	s	19	3	SIC	511	RC	0	1	23RO	0	1	3.93924593925	506.0	-336.0	None	None	0
1.7	2015_Aug_06_1600	s	s	19	3	SIC	512	ABS	2	1	24VO	0	1	0.564231872559	None	None	None	None	1
1.7	2015_Aug_06_1600	s	s	19	3	SIC	513	ABS	0	2	24RD	0	1	0.740926027298	None	None	None	None	1
1.7	2015_Aug_06_1600	s	s	19	3	SIC	514	RC	2	0	23VC	1	0	0.454205989838	523.0	-133.0	529	-132	1
1.7	2015_Aug_06_1600	s	s	19	3	SIC	515	RC	1	0	23MC	1	0	2.03051495552	360.0	47.0	363	54	1
1.7	2015_Aug_06_1600	s	s	19	3	SIC	516	ABS	1	1	24MO	0	1	3.03392291069	None	None	None	None	1
1.7	2015_Aug_06_1600	s	s	19	3	SIC	517	RC	0	2	23RD	1	0	0.487864017487	-217.0	95.0	-221	92	1
1.7	2015_Aug_06_1600	s	s	19	3	SIC	518	RC	2	2	23VD	1	0	0.446618795395	-8.0	-28.0	-13	-36	1
1.7	2015_Aug_06_1600	s	s	19	3	SIC	519	ABS	1	0	24MC	0	1	3.60790586472	None	None	None	None	1
1.7	2015_Aug_06_1600	s	s	19	3	SIC	520	RC	1	1	23MO	1	0	0.940988063812	-382.0	375.0	-382	374	1
1.7	2015_Aug_06_1600	s	s	19	3	SIC	521	ABS	1	2	24MD	0	1	0.529169082642	None	None	None	None	1
1.7	2015_Aug_06_1600	s	s	19	3	SIC	522	ABS	2	0	24VC	0	1	0.547427892685	None	None	None	None	1
1.7	2015_Aug_06_1600	s	s	19	3	SIC	523	RC	0	1	23RO	1	0	1.3834798336	109.0	-282.0	112	-273	1
1.7	2015_Aug_06_1600	s	s	19	3	SIC	524	RC	1	2	23MD	1	0	0.481987953186	474.0	93.0	467	92	1
1.7	2015_Aug_06_1600	s	s	19	3	SIC	525	ABS	0	1	24RO	0	1	3.34657406807	None	None	None	None	1
1.7	2015_Aug_06_1600	s	s	19	3	SIC	526	ABS	2	2	24VD	0	1	0.517315149307	None	None	None	None	1
1.7	2015_Aug_06_1600	s	s	19	3	SIC	527	ABS	2	1	24VO	0	1	0.488737821579	None	None	None	None	1
1.7	2015_Aug_06_1600	s	s	19	3	SIC	528	RC	2	1	23VO	0	1	0.594556093216	196.0	-402.0	None	None	0
1.7	2015_Aug_06_1600	s	s	19	3	SIC	529	ABS	1	1	24MO	0	1	2.38881206512	None	None	None	None	1
1.7	2015_Aug_06_1600	s	s	19	3	SIC	530	RC	2	0	23VC	1	0	0.994248151779	-15.0	-188.0	-11	-187	1
1.7	2015_Aug_06_1600	s	s	19	3	SIC	531	RC	1	2	23MD	1	0	0.55945110321	378.0	323.0	385	318	1
1.7	2015_Aug_06_1600	s	s	19	3	SIC	532	RC	0	2	23RD	1	0	0.44665312767	348.0	-46.0	354	-43	1
1.7	2015_Aug_06_1600	s	s	19	3	SIC	533	ABS	0	1	24RO	0	1	3.42067289352	None	None	None	None	1
1.7	2015_Aug_06_1600	s	s	19	3	SIC	534	RC	1	1	23MO	1	0	0.771354913712	484.0	-102.0	488	-98	1
1.7	2015_Aug_06_1600	s	s	19	3	SIC	535	ABS	2	1	24VO	0	1	0.876506090164	None	None	None	None	1
1.7	2015_Aug_06_1600	s	s	19	3	SIC	536	ABS	2	2	24VD	0	1	0.544869184494	None	None	None	None	1
1.7	2015_Aug_06_1600	s	s	19	3	SIC	537	ABS	0	2	24RD	0	1	1.43255209923	None	None	None	None	1
1.7	2015_Aug_06_1600	s	s	19	3	SIC	538	RC	1	0	23MC	1	0	1.01804804802	251.0	181.0	243	189	1
1.7	2015_Aug_06_1600	s	s	19	3	SIC	539	RC	2	2	23VD	1	0	0.407528877258	13.0	-217.0	13	-221	1
1.7	2015_Aug_06_1600	s	s	19	3	SIC	540	ABS	1	0	24MC	0	1	3.35390686989	None	None	None	None	1
1.7	2015_Aug_06_1600	s	s	19	3	SIC	541	RC	0	1	23RO	1	0	1.03528308868	-88.0	-337.0	-97	-330	1
1.7	2015_Aug_06_1600	s	s	19	3	SIC	542	ABS	2	0	24VC	0	1	0.481940031052	None	None	None	None	1
1.7	2015_Aug_06_1600	s	s	19	3	SIC	543	RC	2	1	23VO	1	0	0.517232179642	-498.0	-220.0	-490	-217	1
1.7	2015_Aug_06_1600	s	s	19	3	SIC	544	ABS	1	2	24MD	0	1	0.631243944168	None	None	None	None	1
1.7	2015_Aug_06_1600	s	s	19	3	SIC	545	RC	0	2	23RD	1	0	0.481866121292	243.0	-240.0	246	-238	1
1.7	2015_Aug_06_1600	s	s	19	3	SIC	546	RC	1	0	23MC	1	0	0.893843889236	-105.0	-264.0	-105	-261	1
1.7	2015_Aug_06_1600	s	s	19	3	SIC	547	ABS	1	0	24MC	0	1	2.93395709991	None	None	None	None	1
1.7	2015_Aug_06_1600	s	s	19	3	SIC	548	ABS	1	1	24MO	0	1	4.04852604866	None	None	None	None	1
1.7	2015_Aug_06_1600	s	s	19	3	SIC	549	ABS	2	1	24VO	1	0	0.481958150864	None	None	-87	-23	0
1.7	2015_Aug_06_1600	s	s	19	3	SIC	550	RC	2	1	23VO	1	0	0.582926034927	45.0	-322.0	51	-316	1
1.7	2015_Aug_06_1600	s	s	19	3	SIC	551	ABS	2	2	24VD	0	1	0.441714048386	None	None	None	None	1
1.7	2015_Aug_06_1600	s	s	19	3	SIC	552	ABS	1	2	24MD	0	1	0.634917974472	None	None	None	None	1
1.7	2015_Aug_06_1600	s	s	19	3	SIC	553	RC	0	1	23RO	1	0	1.31138396263	-176.0	-118.0	-180	-125	1
1.7	2015_Aug_06_1600	s	s	19	3	SIC	554	ABS	2	0	24VC	0	1	0.737715959549	None	None	None	None	1
1.7	2015_Aug_06_1600	s	s	19	3	SIC	555	RC	2	2	23VD	1	0	0.78314781189	-43.0	380.0	-40	377	1
1.7	2015_Aug_06_1600	s	s	19	3	SIC	556	ABS	0	1	24RO	0	1	3.32508802414	None	None	None	None	1
1.7	2015_Aug_06_1600	s	s	19	3	SIC	557	RC	1	2	23MD	1	0	0.820295810699	267.0	-369.0	269	-361	1
1.7	2015_Aug_06_1600	s	s	19	3	SIC	558	RC	2	0	23VC	1	0	0.458418130875	-46.0	-374.0	-41	-377	1
1.7	2015_Aug_06_1600	s	s	19	3	SIC	559	RC	1	1	23MO	1	0	0.658497810364	270.0	-128.0	267	-131	1
1.7	2015_Aug_06_1600	s	s	19	3	SIC	560	ABS	0	2	24RD	0	1	0.628525018692	None	None	None	None	1
1.7	2015_Aug_06_1600	s	s	19	3	SIC	561	ABS	1	1	24MO	0	1	2.34859013557	None	None	None	None	1
1.7	2015_Aug_06_1600	s	s	19	3	SIC	562	ABS	0	1	24RO	0	1	4.64874887466	None	None	None	None	1
1.7	2015_Aug_06_1600	s	s	19	3	SIC	563	ABS	0	2	24RD	0	1	0.611443996429	None	None	None	None	1
1.7	2015_Aug_06_1600	s	s	19	3	SIC	564	RC	0	2	23RD	1	0	0.544525146484	-288.0	-90.0	-295	-92	1
1.7	2015_Aug_06_1600	s	s	19	3	SIC	565	RC	0	1	23RO	0	1	3.8314781189	-431.0	-93.0	None	None	0
1.7	2015_Aug_06_1600	s	s	19	3	SIC	566	RC	1	1	23MO	1	0	1.50598287582	-51.0	346.0	-53	341	1
1.7	2015_Aug_06_1600	s	s	19	3	SIC	567	ABS	2	1	24VO	0	1	0.559466123581	None	None	None	None	1
1.7	2015_Aug_06_1600	s	s	19	3	SIC	568	RC	2	1	23VO	1	0	0.500393867493	159.0	313.0	163	310	1
1.7	2015_Aug_06_1600	s	s	19	3	SIC	569	ABS	2	0	24VC	0	1	0.517245054245	None	None	None	None	1
1.7	2015_Aug_06_1600	s	s	19	3	SIC	570	RC	1	2	23MD	1	0	0.546686172485	35.0	329.0	36	324	1
1.7	2015_Aug_06_1600	s	s	19	3	SIC	571	RC	2	2	23VD	1	0	0.48193192482	-435.0	166.0	-430	166	1
1.7	2015_Aug_06_1600	s	s	19	3	SIC	572	ABS	1	0	24MC	0	1	1.99477887154	None	None	None	None	1
1.7	2015_Aug_06_1600	s	s	19	3	SIC	573	ABS	1	2	24MD	0	1	0.626883983612	None	None	None	None	1
1.7	2015_Aug_06_1600	s	s	19	3	SIC	574	RC	1	0	23MC	1	0	2.9538230896	-363.0	-322.0	-359	-321	1
1.7	2015_Aug_06_1600	s	s	19	3	SIC	575	ABS	2	2	24VD	0	1	0.53669500351	None	None	None	None	1
1.7	2015_Aug_06_1600	s	s	19	3	SIC	576	RC	2	0	23VC	1	0	0.665466070175	283.0	15.0	282	9	1
1.7	2015_Aug_06_1600	s	s	19	3	SIC	577	ABS	1	1	24MO	0	1	2.30631685257	None	None	None	None	1
1.7	2015_Aug_06_1600	s	s	19	3	SIC	578	ABS	2	2	24VD	0	1	0.583654165268	None	None	None	None	1
1.7	2015_Aug_06_1600	s	s	19	3	SIC	579	RC	1	2	23MD	1	0	0.611326932907	-273.0	-163.0	-268	-158	1
1.7	2015_Aug_06_1600	s	s	19	3	SIC	580	RC	2	0	23VC	1	0	0.523702144623	73.0	210.0	80	207	1
1.7	2015_Aug_06_1600	s	s	19	3	SIC	581	RC	2	2	23VD	1	0	0.441794872284	90.0	-2.0	92	-4	1
1.7	2015_Aug_06_1600	s	s	19	3	SIC	582	ABS	1	2	24MD	0	1	0.547626018524	None	None	None	None	1
1.7	2015_Aug_06_1600	s	s	19	3	SIC	583	RC	0	2	23RD	1	0	0.608093976974	438.0	362.0	437	354	1
1.7	2015_Aug_06_1600	s	s	19	3	SIC	584	RC	2	1	23VO	1	0	0.44153213501	125.0	-8.0	128	1	1
1.7	2015_Aug_06_1600	s	s	19	3	SIC	585	ABS	0	1	24RO	0	1	4.00799703598	None	None	None	None	1
1.7	2015_Aug_06_1600	s	s	19	3	SIC	586	ABS	0	2	24RD	0	1	0.564270973206	None	None	None	None	1
1.7	2015_Aug_06_1600	s	s	19	3	SIC	587	ABS	1	0	24MC	0	1	3.38122105598	None	None	None	None	1
1.7	2015_Aug_06_1600	s	s	19	3	SIC	588	ABS	2	1	24VO	0	1	0.6819460392	None	None	None	None	1
1.7	2015_Aug_06_1600	s	s	19	3	SIC	589	RC	1	1	23MO	1	0	2.14163589478	-470.0	378.0	-464	370	1
1.7	2015_Aug_06_1600	s	s	19	3	SIC	590	RC	0	1	23RO	1	0	3.9146630764	269.0	-292.0	278	-291	1
1.7	2015_Aug_06_1600	s	s	19	3	SIC	591	ABS	2	0	24VC	0	1	0.549615859985	None	None	None	None	1
1.7	2015_Aug_06_1600	s	s	19	3	SIC	592	RC	1	0	23MC	0	1	3.83073401451	139.0	43.0	None	None	0
