Version	Date	Stimuli	Method	Subject	Session	Condition	Trial	Target	Channel1	Channel2	Distractors	LMouseButton	RMouseButton	RT	TargetX	TargetY	ResponseX	ResponseY	Correct
1.7	2015_Aug_05_1557	s	s	19	2	Capacity	1	RC	1	0	23MC	1	0	1.59536600113	283.0	120.0	282	120	1
1.7	2015_Aug_05_1557	s	s	19	2	Capacity	2	RC	2	0	23VC	1	0	0.583786010742	342.0	232.0	340	231	1
1.7	2015_Aug_05_1557	s	s	19	2	Capacity	3	ABS	1	0	24MC	0	1	2.51820397377	None	None	None	None	1
1.7	2015_Aug_05_1557	s	s	19	2	Capacity	4	ABS	2	0	24VC	0	1	1.12943100929	None	None	None	None	1
1.7	2015_Aug_05_1557	s	s	19	2	Capacity	5	ABS	1	0	24MC	0	1	3.21279501915	None	None	None	None	1
1.7	2015_Aug_05_1557	s	s	19	2	Capacity	6	RC	1	0	23MC	1	0	1.97125387192	523.0	363.0	529	364	1
1.7	2015_Aug_05_1557	s	s	19	2	Capacity	7	ABS	2	0	24VC	0	1	0.726788043976	None	None	None	None	1
1.7	2015_Aug_05_1557	s	s	19	2	Capacity	8	RC	2	0	23VC	1	0	0.858569145203	278.0	395.0	281	390	1
1.7	2015_Aug_05_1557	s	s	19	2	Capacity	9	RC	1	0	23MC	1	0	4.1425588131	-202.0	390.0	-206	391	1
1.7	2015_Aug_05_1557	s	s	19	2	Capacity	10	RC	2	0	23VC	1	0	1.41187787056	-505.0	-356.0	-502	-363	1
1.7	2015_Aug_05_1557	s	s	19	2	Capacity	11	ABS	2	0	24VC	0	1	0.726760864258	None	None	None	None	1
1.7	2015_Aug_05_1557	s	s	19	2	Capacity	12	ABS	1	0	24MC	0	1	3.71105003357	None	None	None	None	1
1.7	2015_Aug_05_1557	s	s	19	2	Capacity	13	ABS	2	0	24VC	0	1	0.597292900085	None	None	None	None	1
1.7	2015_Aug_05_1557	s	s	19	2	Capacity	14	RC	1	0	23MC	0	1	3.07770299911	62.0	-65.0	None	None	0
1.7	2015_Aug_05_1557	s	s	19	2	Capacity	15	RC	2	0	23VC	1	0	0.712558031082	-63.0	403.0	-61	402	1
1.7	2015_Aug_05_1557	s	s	19	2	Capacity	16	ABS	1	0	24MC	0	1	2.94198513031	None	None	None	None	1
1.7	2015_Aug_05_1557	s	s	19	2	Capacity	17	ABS	2	0	24VC	0	1	0.700538158417	None	None	None	None	1
1.7	2015_Aug_05_1557	s	s	19	2	Capacity	18	RC	1	0	23MC	1	0	3.54231119156	-248.0	-392.0	-243	-400	1
1.7	2015_Aug_05_1557	s	s	19	2	Capacity	19	ABS	1	0	24MC	0	1	3.66661906242	None	None	None	None	1
1.7	2015_Aug_05_1557	s	s	19	2	Capacity	20	RC	2	0	23VC	1	0	0.713103055954	-35.0	-206.0	-37	-205	1
1.7	2015_Aug_05_1557	s	s	19	2	Capacity	21	RC	2	0	23VC	1	0	0.729014873505	466.0	94.0	473	95	1
1.7	2015_Aug_05_1557	s	s	19	2	Capacity	22	ABS	2	0	24VC	0	1	0.999825000763	None	None	None	None	1
1.7	2015_Aug_05_1557	s	s	19	2	Capacity	23	ABS	1	0	24MC	0	1	3.61283397675	None	None	None	None	1
1.7	2015_Aug_05_1557	s	s	19	2	Capacity	24	RC	1	0	23MC	1	0	2.24267506599	287.0	-20.0	296	-15	1
1.7	2015_Aug_05_1557	s	s	19	2	Capacity	25	ABS	2	0	24VC	0	1	0.677183151245	None	None	None	None	1
1.7	2015_Aug_05_1557	s	s	19	2	Capacity	26	RC	1	0	23MC	1	0	1.59521603584	-119.0	-195.0	-127	-200	1
1.7	2015_Aug_05_1557	s	s	19	2	Capacity	27	ABS	1	0	24MC	0	1	3.71915698051	None	None	None	None	1
1.7	2015_Aug_05_1557	s	s	19	2	Capacity	28	RC	2	0	23VC	1	0	0.535987138748	457.0	355.0	450	355	1
1.7	2015_Aug_05_1557	s	s	19	2	Capacity	29	RC	1	0	23MC	1	0	6.2681479454	-113.0	-333.0	-106	-340	1
1.7	2015_Aug_05_1557	s	s	19	2	Capacity	30	ABS	1	0	24MC	0	1	3.59636282921	None	None	None	None	1
1.7	2015_Aug_05_1557	s	s	19	2	Capacity	31	ABS	2	0	24VC	0	1	0.6532330513	None	None	None	None	1
1.7	2015_Aug_05_1557	s	s	19	2	Capacity	32	RC	2	0	23VC	1	0	0.823278903961	256.0	231.0	258	227	1
1.7	2015_Aug_05_1557	s	s	19	2	Capacity	33	RC	1	0	23MC	1	0	1.4866130352	-276.0	-368.0	-270	-367	1
1.7	2015_Aug_05_1557	s	s	19	2	Capacity	34	ABS	2	0	24VC	0	1	1.0471098423	None	None	None	None	1
1.7	2015_Aug_05_1557	s	s	19	2	Capacity	35	RC	2	0	23VC	1	0	0.559374094009	154.0	381.0	163	377	1
1.7	2015_Aug_05_1557	s	s	19	2	Capacity	36	ABS	1	0	24MC	0	1	4.45550107956	None	None	None	None	1
1.7	2015_Aug_05_1557	s	s	19	2	Capacity	37	RC	1	0	23MC	1	0	1.60715293884	-215.0	184.0	-210	180	1
1.7	2015_Aug_05_1557	s	s	19	2	Capacity	38	RC	2	0	23VC	1	0	0.599632978439	154.0	229.0	155	223	1
1.7	2015_Aug_05_1557	s	s	19	2	Capacity	39	ABS	2	0	24VC	0	1	0.635014772415	None	None	None	None	1
1.7	2015_Aug_05_1557	s	s	19	2	Capacity	40	ABS	1	0	24MC	0	1	3.0952000618	None	None	None	None	1
1.7	2015_Aug_05_1557	s	s	19	2	Capacity	41	ABS	2	0	24VC	0	1	0.611315011978	None	None	None	None	1
1.7	2015_Aug_05_1557	s	s	19	2	Capacity	42	RC	2	0	23VC	1	0	0.623204946518	402.0	196.0	403	204	1
1.7	2015_Aug_05_1557	s	s	19	2	Capacity	43	RC	1	0	23MC	1	0	1.52956700325	8.0	-343.0	8	-350	1
1.7	2015_Aug_05_1557	s	s	19	2	Capacity	44	ABS	1	0	24MC	0	1	3.32490897179	None	None	None	None	1
1.7	2015_Aug_05_1557	s	s	19	2	Capacity	45	RC	1	0	23MC	0	1	3.10673904419	-234.0	288.0	None	None	0
1.7	2015_Aug_05_1557	s	s	19	2	Capacity	46	ABS	2	0	24VC	0	1	2.32534408569	None	None	None	None	1
1.7	2015_Aug_05_1557	s	s	19	2	Capacity	47	ABS	1	0	24MC	0	1	3.90721607208	None	None	None	None	1
1.7	2015_Aug_05_1557	s	s	19	2	Capacity	48	RC	2	0	23VC	1	0	0.717349052429	247.0	-342.0	249	-336	1
1.7	2015_Aug_05_1557	s	s	19	2	Capacity	49	ABS	2	0	24VC	0	1	0.63499212265	None	None	None	None	1
1.7	2015_Aug_05_1557	s	s	19	2	Capacity	50	RC	1	0	23MC	1	0	0.728976964951	-115.0	161.0	-112	158	1
1.7	2015_Aug_05_1557	s	s	19	2	Capacity	51	RC	2	0	23VC	1	0	0.552613973618	-212.0	313.0	-216	317	1
1.7	2015_Aug_05_1557	s	s	19	2	Capacity	52	ABS	1	0	24MC	0	1	3.00085115433	None	None	None	None	1
1.7	2015_Aug_05_1557	s	s	19	2	Capacity	53	RC	1	0	23MC	1	0	3.53733110428	299.0	-377.0	299	-375	1
1.7	2015_Aug_05_1557	s	s	19	2	Capacity	54	RC	2	0	23VC	1	0	0.547595024109	-85.0	354.0	-93	348	1
1.7	2015_Aug_05_1557	s	s	19	2	Capacity	55	ABS	2	0	24VC	0	1	0.63000702858	None	None	None	None	1
1.7	2015_Aug_05_1557	s	s	19	2	Capacity	56	ABS	1	0	24MC	0	1	3.84835314751	None	None	None	None	1
1.7	2015_Aug_05_1557	s	s	19	2	Capacity	57	RC	2	0	23VC	1	0	0.583023071289	71.0	251.0	68	251	1
1.7	2015_Aug_05_1557	s	s	19	2	Capacity	58	RC	1	0	23MC	1	0	1.77667498589	520.0	100.0	522	107	1
1.7	2015_Aug_05_1557	s	s	19	2	Capacity	59	ABS	1	0	24MC	0	1	2.36520695686	None	None	None	None	1
1.7	2015_Aug_05_1557	s	s	19	2	Capacity	60	ABS	2	0	24VC	0	1	0.596493005753	None	None	None	None	1
1.7	2015_Aug_05_1557	s	s	19	2	Capacity	61	RC	1	0	23MC	1	0	2.50169610977	238.0	308.0	235	304	1
1.7	2015_Aug_05_1557	s	s	19	2	Capacity	62	RC	2	0	23VC	1	0	1.10593700409	-31.0	118.0	-28	116	1
1.7	2015_Aug_05_1557	s	s	19	2	Capacity	63	ABS	2	0	24VC	0	1	0.63493514061	None	None	None	None	1
1.7	2015_Aug_05_1557	s	s	19	2	Capacity	64	ABS	1	0	24MC	0	1	2.45939993858	None	None	None	None	1
1.7	2015_Aug_05_1557	s	s	19	2	Capacity	65	RC	1	0	23MC	1	0	0.8388671875	-317.0	131.0	-313	131	1
1.7	2015_Aug_05_1557	s	s	19	2	Capacity	66	RC	2	0	23VC	1	0	0.629961967468	-387.0	308.0	-380	307	1
1.7	2015_Aug_05_1557	s	s	19	2	Capacity	67	ABS	2	0	24VC	0	1	0.599636077881	None	None	None	None	1
1.7	2015_Aug_05_1557	s	s	19	2	Capacity	68	ABS	1	0	24MC	0	1	3.1609480381	None	None	None	None	1
1.7	2015_Aug_05_1557	s	s	19	2	Capacity	69	RC	2	0	23VC	1	0	0.491604804993	516.0	98.0	518	95	1
1.7	2015_Aug_05_1557	s	s	19	2	Capacity	70	ABS	2	0	24VC	0	1	0.559370994568	None	None	None	None	1
1.7	2015_Aug_05_1557	s	s	19	2	Capacity	71	ABS	1	0	24MC	0	1	3.65984916687	None	None	None	None	1
1.7	2015_Aug_05_1557	s	s	19	2	Capacity	72	RC	1	0	23MC	1	0	1.02715396881	-206.0	-118.0	-211	-117	1
1.7	2015_Aug_05_1557	s	s	19	2	Capacity	73	ABS	1	0	24MC	0	1	2.28282594681	None	None	None	None	1
1.7	2015_Aug_05_1557	s	s	19	2	Capacity	74	RC	2	0	23VC	1	0	0.517247915268	-195.0	223.0	-198	222	1
1.7	2015_Aug_05_1557	s	s	19	2	Capacity	75	ABS	2	0	24VC	0	1	0.59959602356	None	None	None	None	1
1.7	2015_Aug_05_1557	s	s	19	2	Capacity	76	RC	1	0	23MC	1	0	1.38103413582	226.0	384.0	221	382	1
1.7	2015_Aug_05_1557	s	s	19	2	Capacity	77	RC	1	0	23MC	1	0	1.04459404945	-539.0	378.0	-533	380	1
1.7	2015_Aug_05_1557	s	s	19	2	Capacity	78	ABS	2	0	24VC	0	1	0.806575059891	None	None	None	None	1
1.7	2015_Aug_05_1557	s	s	19	2	Capacity	79	ABS	1	0	24MC	0	1	2.63632202148	None	None	None	None	1
1.7	2015_Aug_05_1557	s	s	19	2	Capacity	80	RC	2	0	23VC	1	0	0.902420043945	347.0	-324.0	357	-325	1
1.7	2015_Aug_05_1557	s	s	19	2	Capacity	81	RC	1	0	23MC	1	0	0.75941491127	206.0	141.0	206	146	1
1.7	2015_Aug_05_1557	s	s	19	2	Capacity	82	RC	2	0	23VC	1	0	0.500996828079	-67.0	395.0	-68	396	1
1.7	2015_Aug_05_1557	s	s	19	2	Capacity	83	ABS	2	0	24VC	0	1	0.756489992142	None	None	None	None	1
1.7	2015_Aug_05_1557	s	s	19	2	Capacity	84	ABS	1	0	24MC	0	1	2.58401799202	None	None	None	None	1
1.7	2015_Aug_05_1557	s	s	19	2	Capacity	85	RC	2	0	23VC	1	0	0.587898015976	-479.0	-29.0	-468	-26	1
1.7	2015_Aug_05_1557	s	s	19	2	Capacity	86	ABS	2	0	24VC	0	1	0.581984996796	None	None	None	None	1
1.7	2015_Aug_05_1557	s	s	19	2	Capacity	87	ABS	1	0	24MC	0	1	2.51349592209	None	None	None	None	1
1.7	2015_Aug_05_1557	s	s	19	2	Capacity	88	RC	1	0	23MC	1	0	2.88312602043	-159.0	-41.0	-161	-42	1
1.7	2015_Aug_05_1557	s	s	19	2	Capacity	89	ABS	2	0	24VC	0	1	0.587855100632	None	None	None	None	1
1.7	2015_Aug_05_1557	s	s	19	2	Capacity	90	RC	1	0	23MC	1	0	5.06055808067	135.0	-348.0	146	-347	1
1.7	2015_Aug_05_1557	s	s	19	2	Capacity	91	RC	2	0	23VC	1	0	0.587790966034	-420.0	242.0	-411	239	1
1.7	2015_Aug_05_1557	s	s	19	2	Capacity	92	ABS	1	0	24MC	0	1	2.41223406792	None	None	None	None	1
1.7	2015_Aug_05_1557	s	s	19	2	Capacity	1	RC	0	2	23RD	1	0	1.09405493736	18.0	-306.0	25	-308	1
1.7	2015_Aug_05_1557	s	s	19	2	Capacity	2	RC	0	1	23RO	1	0	2.32750988007	364.0	-283.0	363	-284	1
1.7	2015_Aug_05_1557	s	s	19	2	Capacity	3	ABS	0	2	24RD	0	1	1.19541192055	None	None	None	None	1
1.7	2015_Aug_05_1557	s	s	19	2	Capacity	4	ABS	0	1	24RO	0	1	4.56146407127	None	None	None	None	1
1.7	2015_Aug_05_1557	s	s	19	2	Capacity	5	ABS	0	1	24RO	0	1	4.9430270195	None	None	None	None	1
1.7	2015_Aug_05_1557	s	s	19	2	Capacity	6	ABS	0	2	24RD	0	1	1.04193115234	None	None	None	None	1
1.7	2015_Aug_05_1557	s	s	19	2	Capacity	7	RC	0	1	23RO	1	0	1.44207000732	485.0	252.0	485	253	1
1.7	2015_Aug_05_1557	s	s	19	2	Capacity	8	RC	0	2	23RD	1	0	0.571212053299	228.0	229.0	228	227	1
1.7	2015_Aug_05_1557	s	s	19	2	Capacity	9	RC	0	1	23RO	1	0	2.14156889915	-109.0	-321.0	-112	-322	1
1.7	2015_Aug_05_1557	s	s	19	2	Capacity	10	RC	0	2	23RD	1	0	0.773771047592	-486.0	-247.0	-483	-245	1
1.7	2015_Aug_05_1557	s	s	19	2	Capacity	11	ABS	0	2	24RD	0	1	1.1882019043	None	None	None	None	1
1.7	2015_Aug_05_1557	s	s	19	2	Capacity	12	ABS	0	1	24RO	0	1	3.53050613403	None	None	None	None	1
1.7	2015_Aug_05_1557	s	s	19	2	Capacity	13	ABS	0	2	24RD	0	1	0.938533067703	None	None	None	None	1
1.7	2015_Aug_05_1557	s	s	19	2	Capacity	14	ABS	0	1	24RO	0	1	4.66751408577	None	None	None	None	1
1.7	2015_Aug_05_1557	s	s	19	2	Capacity	15	RC	0	2	23RD	1	0	0.664774894714	-344.0	192.0	-337	197	1
1.7	2015_Aug_05_1557	s	s	19	2	Capacity	16	RC	0	1	23RO	1	0	2.18864202499	283.0	-363.0	293	-364	1
1.7	2015_Aug_05_1557	s	s	19	2	Capacity	17	RC	0	2	23RD	1	0	0.717347860336	423.0	-24.0	423	-26	1
1.7	2015_Aug_05_1557	s	s	19	2	Capacity	18	RC	0	1	23RO	1	0	0.611382007599	-40.0	85.0	-38	86	1
1.7	2015_Aug_05_1557	s	s	19	2	Capacity	19	ABS	0	2	24RD	0	1	1.09398698807	None	None	None	None	1
1.7	2015_Aug_05_1557	s	s	19	2	Capacity	20	ABS	0	1	24RO	0	1	5.13968801498	None	None	None	None	1
1.7	2015_Aug_05_1557	s	s	19	2	Capacity	21	RC	0	2	23RD	1	0	0.571231126785	-429.0	-177.0	-431	-176	1
1.7	2015_Aug_05_1557	s	s	19	2	Capacity	22	RC	0	1	23RO	1	0	4.7130010128	226.0	-338.0	239	-333	1
1.7	2015_Aug_05_1557	s	s	19	2	Capacity	23	ABS	0	1	24RO	0	1	4.33089995384	None	None	None	None	1
1.7	2015_Aug_05_1557	s	s	19	2	Capacity	24	ABS	0	2	24RD	0	1	0.705559968948	None	None	None	None	1
1.7	2015_Aug_05_1557	s	s	19	2	Capacity	25	ABS	0	1	24RO	0	1	4.14969015121	None	None	None	None	1
1.7	2015_Aug_05_1557	s	s	19	2	Capacity	26	RC	0	1	23RO	1	0	0.670325994492	2.0	12.0	6	10	1
1.7	2015_Aug_05_1557	s	s	19	2	Capacity	27	ABS	0	2	24RD	0	1	1.24711608887	None	None	None	None	1
1.7	2015_Aug_05_1557	s	s	19	2	Capacity	28	RC	0	2	23RD	1	0	0.964488983154	-409.0	-94.0	-399	-90	1
1.7	2015_Aug_05_1557	s	s	19	2	Capacity	29	ABS	0	2	24RD	0	1	1.03300905228	None	None	None	None	1
1.7	2015_Aug_05_1557	s	s	19	2	Capacity	30	RC	0	1	23RO	1	0	1.75987100601	-172.0	-225.0	-170	-226	1
1.7	2015_Aug_05_1557	s	s	19	2	Capacity	31	RC	0	2	23RD	1	0	0.552666187286	-3.0	-388.0	2	-385	1
1.7	2015_Aug_05_1557	s	s	19	2	Capacity	32	ABS	0	1	24RO	0	1	5.51473999023	None	None	None	None	1
1.7	2015_Aug_05_1557	s	s	19	2	Capacity	33	RC	0	1	23RO	1	0	4.27904510498	387.0	120.0	386	123	1
1.7	2015_Aug_05_1557	s	s	19	2	Capacity	34	ABS	0	1	24RO	0	1	4.26036405563	None	None	None	None	1
1.7	2015_Aug_05_1557	s	s	19	2	Capacity	35	ABS	0	2	24RD	0	1	1.25884795189	None	None	None	None	1
1.7	2015_Aug_05_1557	s	s	19	2	Capacity	36	RC	0	2	23RD	1	0	0.5474588871	-157.0	288.0	-159	286	1
1.7	2015_Aug_05_1557	s	s	19	2	Capacity	37	ABS	0	1	24RO	0	1	3.80813789368	None	None	None	None	1
1.7	2015_Aug_05_1557	s	s	19	2	Capacity	38	RC	0	2	23RD	1	0	0.705584049225	-262.0	-261.0	-272	-260	1
1.7	2015_Aug_05_1557	s	s	19	2	Capacity	39	ABS	0	2	24RD	0	1	0.889172077179	None	None	None	None	1
1.7	2015_Aug_05_1557	s	s	19	2	Capacity	40	RC	0	1	23RO	1	0	3.99656105042	-305.0	-354.0	-296	-346	1
1.7	2015_Aug_05_1557	s	s	19	2	Capacity	41	ABS	0	1	24RO	0	1	3.94930505753	None	None	None	None	1
1.7	2015_Aug_05_1557	s	s	19	2	Capacity	42	ABS	0	2	24RD	0	1	0.797395944595	None	None	None	None	1
1.7	2015_Aug_05_1557	s	s	19	2	Capacity	43	RC	0	1	23RO	1	0	3.21942901611	-348.0	79.0	-356	78	1
1.7	2015_Aug_05_1557	s	s	19	2	Capacity	44	RC	0	2	23RD	1	0	0.6975440979	509.0	-276.0	500	-277	1
1.7	2015_Aug_05_1557	s	s	19	2	Capacity	45	RC	0	2	23RD	1	0	0.500445842743	-370.0	-252.0	-372	-248	1
1.7	2015_Aug_05_1557	s	s	19	2	Capacity	46	ABS	0	2	24RD	0	1	1.10582995415	None	None	None	None	1
1.7	2015_Aug_05_1557	s	s	19	2	Capacity	47	ABS	0	1	24RO	0	1	4.74286699295	None	None	None	None	1
1.7	2015_Aug_05_1557	s	s	19	2	Capacity	48	RC	0	1	23RO	1	0	4.47218680382	-25.0	-340.0	-18	-343	1
1.7	2015_Aug_05_1557	s	s	19	2	Capacity	49	ABS	0	1	24RO	0	1	4.31374001503	None	None	None	None	1
1.7	2015_Aug_05_1557	s	s	19	2	Capacity	50	RC	0	2	23RD	1	0	0.607016086578	287.0	284.0	283	284	1
1.7	2015_Aug_05_1557	s	s	19	2	Capacity	51	ABS	0	2	24RD	0	1	0.776226997375	None	None	None	None	1
1.7	2015_Aug_05_1557	s	s	19	2	Capacity	52	RC	0	1	23RO	1	0	4.40846300125	-538.0	276.0	-531	279	1
1.7	2015_Aug_05_1557	s	s	19	2	Capacity	53	ABS	0	2	24RD	0	1	1.10045814514	None	None	None	None	1
1.7	2015_Aug_05_1557	s	s	19	2	Capacity	54	RC	0	1	23RO	0	1	4.49560308456	270.0	-189.0	None	None	0
1.7	2015_Aug_05_1557	s	s	19	2	Capacity	55	RC	0	2	23RD	1	0	0.618166923523	325.0	400.0	331	394	1
1.7	2015_Aug_05_1557	s	s	19	2	Capacity	56	ABS	0	1	24RO	0	1	5.38551878929	None	None	None	None	1
1.7	2015_Aug_05_1557	s	s	19	2	Capacity	57	ABS	0	1	24RO	0	1	5.42212700844	None	None	None	None	1
1.7	2015_Aug_05_1557	s	s	19	2	Capacity	58	ABS	0	2	24RD	0	1	0.89390707016	None	None	None	None	1
1.7	2015_Aug_05_1557	s	s	19	2	Capacity	59	RC	0	2	23RD	1	0	0.642109870911	-243.0	-29.0	-239	-29	1
1.7	2015_Aug_05_1557	s	s	19	2	Capacity	60	RC	0	1	23RO	1	0	0.838791131973	360.0	176.0	356	172	1
1.7	2015_Aug_05_1557	s	s	19	2	Capacity	61	ABS	0	2	24RD	0	1	0.853832006454	None	None	None	None	1
1.7	2015_Aug_05_1557	s	s	19	2	Capacity	62	RC	0	2	23RD	1	0	0.470211982727	-198.0	50.0	-195	51	1
1.7	2015_Aug_05_1557	s	s	19	2	Capacity	63	RC	0	1	23RO	1	0	3.2366130352	-8.0	259.0	-6	253	1
1.7	2015_Aug_05_1557	s	s	19	2	Capacity	64	ABS	0	1	24RO	0	1	5.56680393219	None	None	None	None	1
1.7	2015_Aug_05_1557	s	s	19	2	Capacity	65	ABS	0	1	24RO	0	1	5.20234012604	None	None	None	None	1
1.7	2015_Aug_05_1557	s	s	19	2	Capacity	66	RC	0	1	23RO	1	0	4.22028493881	-496.0	270.0	-500	273	1
1.7	2015_Aug_05_1557	s	s	19	2	Capacity	67	ABS	0	2	24RD	0	1	1.4565320015	None	None	None	None	1
1.7	2015_Aug_05_1557	s	s	19	2	Capacity	68	RC	0	2	23RD	1	0	0.571287870407	-365.0	323.0	-359	324	1
1.7	2015_Aug_05_1557	s	s	19	2	Capacity	69	ABS	0	1	24RO	0	1	5.24948406219	None	None	None	None	1
1.7	2015_Aug_05_1557	s	s	19	2	Capacity	70	ABS	0	2	24RD	0	1	1.25880384445	None	None	None	None	1
1.7	2015_Aug_05_1557	s	s	19	2	Capacity	71	RC	0	2	23RD	1	0	0.561461210251	-507.0	143.0	-511	134	1
1.7	2015_Aug_05_1557	s	s	19	2	Capacity	72	RC	0	1	23RO	1	0	1.27051997185	93.0	184.0	89	189	1
1.7	2015_Aug_05_1557	s	s	19	2	Capacity	73	RC	0	2	23RD	1	0	0.607300043106	384.0	-223.0	386	-221	1
1.7	2015_Aug_05_1557	s	s	19	2	Capacity	74	RC	0	1	23RO	1	0	1.06568789482	288.0	26.0	290	22	1
1.7	2015_Aug_05_1557	s	s	19	2	Capacity	75	ABS	0	2	24RD	0	1	0.764760971069	None	None	None	None	1
1.7	2015_Aug_05_1557	s	s	19	2	Capacity	76	ABS	0	1	24RO	0	1	4.74286079407	None	None	None	None	1
1.7	2015_Aug_05_1557	s	s	19	2	Capacity	77	ABS	0	2	24RD	0	1	1.05366301537	None	None	None	None	1
1.7	2015_Aug_05_1557	s	s	19	2	Capacity	78	ABS	0	1	24RO	0	1	4.82520103455	None	None	None	None	1
1.7	2015_Aug_05_1557	s	s	19	2	Capacity	79	RC	0	2	23RD	1	0	0.571166038513	99.0	-317.0	99	-319	1
1.7	2015_Aug_05_1557	s	s	19	2	Capacity	80	RC	0	1	23RO	1	0	3.94938397408	-245.0	-372.0	-254	-374	1
1.7	2015_Aug_05_1557	s	s	19	2	Capacity	81	ABS	0	2	24RD	0	1	1.06628799438	None	None	None	None	1
1.7	2015_Aug_05_1557	s	s	19	2	Capacity	82	RC	0	2	23RD	1	0	0.582296133041	294.0	-409.0	293	-405	1
1.7	2015_Aug_05_1557	s	s	19	2	Capacity	83	RC	0	1	23RO	0	1	4.07860398293	-219.0	-335.0	None	None	0
1.7	2015_Aug_05_1557	s	s	19	2	Capacity	84	ABS	0	1	24RO	0	1	5.54707312584	None	None	None	None	1
1.7	2015_Aug_05_1557	s	s	19	2	Capacity	85	RC	0	1	23RO	0	1	4.78746604919	527.0	-338.0	None	None	0
1.7	2015_Aug_05_1557	s	s	19	2	Capacity	86	RC	0	2	23RD	1	0	0.585115194321	516.0	367.0	512	374	1
1.7	2015_Aug_05_1557	s	s	19	2	Capacity	87	ABS	0	1	24RO	0	1	5.17495203018	None	None	None	None	1
1.7	2015_Aug_05_1557	s	s	19	2	Capacity	88	ABS	0	2	24RD	0	1	1.03512001038	None	None	None	None	1
1.7	2015_Aug_05_1557	s	s	19	2	Capacity	89	ABS	0	2	24RD	0	1	1.26515412331	None	None	None	None	1
1.7	2015_Aug_05_1557	s	s	19	2	Capacity	90	ABS	0	1	24RO	0	1	5.28424191475	None	None	None	None	1
1.7	2015_Aug_05_1557	s	s	19	2	Capacity	91	RC	0	1	23RO	1	0	3.6836180687	61.0	-342.0	63	-345	1
1.7	2015_Aug_05_1557	s	s	19	2	Capacity	92	RC	0	2	23RD	1	0	0.512192964554	202.0	-204.0	210	-197	1
1.7	2015_Aug_05_1557	s	s	19	2	SIC	1	RC	2	0	23VC	1	0	0.61829996109	-419.0	266.0	-416	268	1
1.7	2015_Aug_05_1557	s	s	19	2	SIC	2	RC	1	1	23MO	1	0	1.55302476883	-267.0	380.0	-263	374	1
1.7	2015_Aug_05_1557	s	s	19	2	SIC	3	ABS	1	2	24MD	0	1	0.759426116943	None	None	None	None	1
1.7	2015_Aug_05_1557	s	s	19	2	SIC	4	RC	0	2	23RD	1	0	0.540959835052	-214.0	354.0	-212	354	1
1.7	2015_Aug_05_1557	s	s	19	2	SIC	5	ABS	0	1	24RO	0	1	4.60161805153	None	None	None	None	1
1.7	2015_Aug_05_1557	s	s	19	2	SIC	6	ABS	2	0	24VC	0	1	0.764433860779	None	None	None	None	1
1.7	2015_Aug_05_1557	s	s	19	2	SIC	7	RC	1	2	23MD	1	0	0.658519029617	531.0	-249.0	536	-253	1
1.7	2015_Aug_05_1557	s	s	19	2	SIC	8	ABS	1	0	24MC	0	1	3.6247549057	None	None	None	None	1
1.7	2015_Aug_05_1557	s	s	19	2	SIC	9	RC	2	1	23VO	1	0	0.505791902542	342.0	401.0	347	401	1
1.7	2015_Aug_05_1557	s	s	19	2	SIC	10	RC	2	2	23VD	1	0	0.423069953918	-109.0	54.0	-114	52	1
1.7	2015_Aug_05_1557	s	s	19	2	SIC	11	ABS	1	1	24MO	0	1	3.78598499298	None	None	None	None	1
1.7	2015_Aug_05_1557	s	s	19	2	SIC	12	RC	0	1	23RO	0	1	4.7429330349	-446.0	78.0	None	None	0
1.7	2015_Aug_05_1557	s	s	19	2	SIC	13	RC	1	0	23MC	1	0	6.60269188881	-498.0	-223.0	-484	-218	1
1.7	2015_Aug_05_1557	s	s	19	2	SIC	14	ABS	2	1	24VO	0	1	0.670614957809	None	None	None	None	1
1.7	2015_Aug_05_1557	s	s	19	2	SIC	15	ABS	2	2	24VD	0	1	0.853559970856	None	None	None	None	1
1.7	2015_Aug_05_1557	s	s	19	2	SIC	16	ABS	0	2	24RD	0	1	0.811496973038	None	None	None	None	1
1.7	2015_Aug_05_1557	s	s	19	2	SIC	17	ABS	2	1	24VO	0	1	0.900542020798	None	None	None	None	1
1.7	2015_Aug_05_1557	s	s	19	2	SIC	18	ABS	0	1	24RO	0	1	5.51969099045	None	None	None	None	1
1.7	2015_Aug_05_1557	s	s	19	2	SIC	19	RC	2	0	23VC	1	0	0.667603969574	327.0	-390.0	334	-393	1
1.7	2015_Aug_05_1557	s	s	19	2	SIC	20	ABS	1	0	24MC	0	1	3.41984415054	None	None	None	None	1
1.7	2015_Aug_05_1557	s	s	19	2	SIC	21	RC	2	1	23VO	1	0	0.458447933197	463.0	269.0	471	273	1
1.7	2015_Aug_05_1557	s	s	19	2	SIC	22	RC	1	2	23MD	1	0	0.512658119202	-162.0	-101.0	-159	-99	1
1.7	2015_Aug_05_1557	s	s	19	2	SIC	23	RC	1	1	23MO	1	0	0.923549890518	-460.0	-4.0	-454	-5	1
1.7	2015_Aug_05_1557	s	s	19	2	SIC	24	ABS	1	2	24MD	0	1	0.846779823303	None	None	None	None	1
1.7	2015_Aug_05_1557	s	s	19	2	SIC	25	ABS	0	2	24RD	0	1	0.676151990891	None	None	None	None	1
1.7	2015_Aug_05_1557	s	s	19	2	SIC	26	ABS	2	2	24VD	0	1	0.517285108566	None	None	None	None	1
1.7	2015_Aug_05_1557	s	s	19	2	SIC	27	RC	2	2	23VD	1	0	0.670272111893	-86.0	-408.0	-89	-400	1
1.7	2015_Aug_05_1557	s	s	19	2	SIC	28	ABS	2	0	24VC	0	1	0.564319849014	None	None	None	None	1
1.7	2015_Aug_05_1557	s	s	19	2	SIC	29	RC	1	0	23MC	0	1	5.03223490715	351.0	-404.0	None	None	0
1.7	2015_Aug_05_1557	s	s	19	2	SIC	30	ABS	1	1	24MO	0	1	4.22492814064	None	None	None	None	1
1.7	2015_Aug_05_1557	s	s	19	2	SIC	31	RC	0	1	23RO	1	0	2.63603687286	37.0	-113.0	28	-110	1
1.7	2015_Aug_05_1557	s	s	19	2	SIC	32	RC	0	2	23RD	1	0	0.611454963684	53.0	-216.0	54	-209	1
1.7	2015_Aug_05_1557	s	s	19	2	SIC	33	RC	2	0	23VC	1	0	0.465186834335	290.0	-2.0	284	-3	1
1.7	2015_Aug_05_1557	s	s	19	2	SIC	34	RC	0	1	23RO	1	0	4.99637889862	-130.0	-383.0	-122	-382	1
1.7	2015_Aug_05_1557	s	s	19	2	SIC	35	ABS	1	0	24MC	0	1	4.54281592369	None	None	None	None	1
1.7	2015_Aug_05_1557	s	s	19	2	SIC	36	ABS	0	1	24RO	0	1	5.60883402824	None	None	None	None	1
1.7	2015_Aug_05_1557	s	s	19	2	SIC	37	RC	2	2	23VD	1	0	0.549968957901	217.0	137.0	208	136	1
1.7	2015_Aug_05_1557	s	s	19	2	SIC	38	RC	2	1	23VO	1	0	0.493741989136	-217.0	362.0	-207	364	1
1.7	2015_Aug_05_1557	s	s	19	2	SIC	39	ABS	0	2	24RD	0	1	0.888530015945	None	None	None	None	1
1.7	2015_Aug_05_1557	s	s	19	2	SIC	40	RC	1	0	23MC	1	0	7.16271805763	-510.0	337.0	-506	342	1
1.7	2015_Aug_05_1557	s	s	19	2	SIC	41	ABS	1	2	24MD	0	1	0.865576028824	None	None	None	None	1
1.7	2015_Aug_05_1557	s	s	19	2	SIC	42	RC	1	1	23MO	1	0	0.752553939819	240.0	-304.0	241	-306	1
1.7	2015_Aug_05_1557	s	s	19	2	SIC	43	ABS	2	0	24VC	0	1	0.658449172974	None	None	None	None	1
1.7	2015_Aug_05_1557	s	s	19	2	SIC	44	RC	0	2	23RD	1	0	0.465441942215	203.0	-25.0	198	-28	1
1.7	2015_Aug_05_1557	s	s	19	2	SIC	45	ABS	2	1	24VO	0	1	0.540807008743	None	None	None	None	1
1.7	2015_Aug_05_1557	s	s	19	2	SIC	46	ABS	2	2	24VD	0	1	0.50544500351	None	None	None	None	1
1.7	2015_Aug_05_1557	s	s	19	2	SIC	47	RC	1	2	23MD	1	0	0.547706842422	-2.0	-363.0	-1	-356	1
1.7	2015_Aug_05_1557	s	s	19	2	SIC	48	ABS	1	1	24MO	0	1	4.33088898659	None	None	None	None	1
1.7	2015_Aug_05_1557	s	s	19	2	SIC	49	RC	2	0	23VC	1	0	0.505556821823	-378.0	408.0	-380	406	1
1.7	2015_Aug_05_1557	s	s	19	2	SIC	50	RC	1	2	23MD	1	0	0.623198986053	-495.0	-224.0	-487	-223	1
1.7	2015_Aug_05_1557	s	s	19	2	SIC	51	RC	0	2	23RD	1	0	0.446704864502	-505.0	30.0	-499	27	1
1.7	2015_Aug_05_1557	s	s	19	2	SIC	52	RC	0	1	23RO	1	0	3.67178297043	58.0	-136.0	54	-134	1
1.7	2015_Aug_05_1557	s	s	19	2	SIC	53	RC	2	2	23VD	1	0	0.505517959595	-322.0	72.0	-333	76	1
1.7	2015_Aug_05_1557	s	s	19	2	SIC	54	RC	1	1	23MO	1	0	1.91543698311	191.0	356.0	197	353	1
1.7	2015_Aug_05_1557	s	s	19	2	SIC	55	ABS	2	2	24VD	0	1	0.585412025452	None	None	None	None	1
1.7	2015_Aug_05_1557	s	s	19	2	SIC	56	RC	1	0	23MC	1	0	8.08082389832	-105.0	285.0	-100	288	1
1.7	2015_Aug_05_1557	s	s	19	2	SIC	57	ABS	1	0	24MC	0	1	4.90274810791	None	None	None	None	1
1.7	2015_Aug_05_1557	s	s	19	2	SIC	58	RC	2	1	23VO	1	0	0.50053191185	237.0	288.0	237	288	1
1.7	2015_Aug_05_1557	s	s	19	2	SIC	59	ABS	1	2	24MD	0	1	1.16051602364	None	None	None	None	1
1.7	2015_Aug_05_1557	s	s	19	2	SIC	60	ABS	0	1	24RO	0	1	6.1083111763	None	None	None	None	1
1.7	2015_Aug_05_1557	s	s	19	2	SIC	61	ABS	2	0	24VC	0	1	0.635118961334	None	None	None	None	1
1.7	2015_Aug_05_1557	s	s	19	2	SIC	62	ABS	1	1	24MO	0	1	3.57283711433	None	None	None	None	1
1.7	2015_Aug_05_1557	s	s	19	2	SIC	63	ABS	2	1	24VO	0	1	0.843818902969	None	None	None	None	1
1.7	2015_Aug_05_1557	s	s	19	2	SIC	64	ABS	0	2	24RD	0	1	0.988064050674	None	None	None	None	1
1.7	2015_Aug_05_1557	s	s	19	2	SIC	65	RC	2	2	23VD	1	0	0.517296075821	-75.0	-170.0	-73	-163	1
1.7	2015_Aug_05_1557	s	s	19	2	SIC	66	RC	2	0	23VC	1	0	0.882087945938	-504.0	-318.0	-507	-319	1
1.7	2015_Aug_05_1557	s	s	19	2	SIC	67	ABS	2	2	24VD	0	1	0.552531003952	None	None	None	None	1
1.7	2015_Aug_05_1557	s	s	19	2	SIC	68	ABS	1	0	24MC	0	1	5.81811785698	None	None	None	None	1
1.7	2015_Aug_05_1557	s	s	19	2	SIC	69	RC	1	1	23MO	1	0	0.736081123352	284.0	-37.0	282	-39	1
1.7	2015_Aug_05_1557	s	s	19	2	SIC	70	RC	1	2	23MD	1	0	0.493664979935	95.0	-341.0	87	-343	1
1.7	2015_Aug_05_1557	s	s	19	2	SIC	71	RC	0	2	23RD	1	0	0.488829851151	384.0	-207.0	381	-212	1
1.7	2015_Aug_05_1557	s	s	19	2	SIC	72	RC	1	0	23MC	1	0	1.24217009544	375.0	34.0	380	44	1
1.7	2015_Aug_05_1557	s	s	19	2	SIC	73	ABS	2	1	24VO	0	1	1.03022909164	None	None	None	None	1
1.7	2015_Aug_05_1557	s	s	19	2	SIC	74	ABS	0	1	24RO	0	1	6.76730084419	None	None	None	None	1
1.7	2015_Aug_05_1557	s	s	19	2	SIC	75	ABS	1	1	24MO	0	1	3.76590800285	None	None	None	None	1
1.7	2015_Aug_05_1557	s	s	19	2	SIC	76	RC	0	1	23RO	1	0	1.1244020462	395.0	-289.0	400	-294	1
1.7	2015_Aug_05_1557	s	s	19	2	SIC	77	RC	2	1	23VO	1	0	0.529278039932	429.0	347.0	419	347	1
1.7	2015_Aug_05_1557	s	s	19	2	SIC	78	ABS	2	0	24VC	0	1	0.5996530056	None	None	None	None	1
1.7	2015_Aug_05_1557	s	s	19	2	SIC	79	ABS	1	2	24MD	0	1	0.61837220192	None	None	None	None	1
1.7	2015_Aug_05_1557	s	s	19	2	SIC	80	ABS	0	2	24RD	0	1	1.27717494965	None	None	None	None	1
1.7	2015_Aug_05_1557	s	s	19	2	SIC	81	RC	1	2	23MD	1	0	0.528878927231	459.0	-314.0	461	-316	1
1.7	2015_Aug_05_1557	s	s	19	2	SIC	82	RC	2	1	23VO	1	0	0.470165967941	538.0	142.0	527	143	1
1.7	2015_Aug_05_1557	s	s	19	2	SIC	83	ABS	2	1	24VO	0	1	1.11305999756	None	None	None	None	1
1.7	2015_Aug_05_1557	s	s	19	2	SIC	84	ABS	1	2	24MD	0	1	1.20664906502	None	None	None	None	1
1.7	2015_Aug_05_1557	s	s	19	2	SIC	85	RC	0	2	23RD	1	0	0.500761985779	248.0	-288.0	255	-291	1
1.7	2015_Aug_05_1557	s	s	19	2	SIC	86	ABS	0	2	24RD	0	1	1.21548008919	None	None	None	None	1
1.7	2015_Aug_05_1557	s	s	19	2	SIC	87	RC	2	2	23VD	1	0	1.12611103058	513.0	4.0	512	10	1
1.7	2015_Aug_05_1557	s	s	19	2	SIC	88	ABS	2	0	24VC	0	1	1.39738512039	None	None	None	None	1
1.7	2015_Aug_05_1557	s	s	19	2	SIC	89	ABS	1	1	24MO	0	1	3.71376919746	None	None	None	None	1
1.7	2015_Aug_05_1557	s	s	19	2	SIC	90	RC	2	0	23VC	1	0	0.44665312767	-148.0	-22.0	-148	-19	1
1.7	2015_Aug_05_1557	s	s	19	2	SIC	91	RC	1	1	23MO	1	0	1.00822901726	-341.0	24.0	-347	23	1
1.7	2015_Aug_05_1557	s	s	19	2	SIC	92	ABS	1	0	24MC	0	1	3.94253706932	None	None	None	None	1
1.7	2015_Aug_05_1557	s	s	19	2	SIC	93	RC	0	1	23RO	1	0	2.18861293793	165.0	177.0	162	172	1
1.7	2015_Aug_05_1557	s	s	19	2	SIC	94	ABS	0	1	24RO	0	1	4.86685585976	None	None	None	None	1
1.7	2015_Aug_05_1557	s	s	19	2	SIC	95	ABS	2	2	24VD	0	1	0.54097700119	None	None	None	None	1
1.7	2015_Aug_05_1557	s	s	19	2	SIC	96	RC	1	0	23MC	1	0	5.33901286125	-533.0	-375.0	-527	-382	1
1.7	2015_Aug_05_1557	s	s	19	2	SIC	97	RC	1	0	23MC	1	0	6.06920909882	-505.0	230.0	-501	232	1
1.7	2015_Aug_05_1557	s	s	19	2	SIC	98	ABS	2	2	24VD	0	1	0.611485004425	None	None	None	None	1
1.7	2015_Aug_05_1557	s	s	19	2	SIC	99	ABS	1	2	24MD	0	1	0.512243032455	None	None	None	None	1
1.7	2015_Aug_05_1557	s	s	19	2	SIC	100	RC	1	2	23MD	1	0	0.618353128433	506.0	278.0	514	279	1
1.7	2015_Aug_05_1557	s	s	19	2	SIC	101	ABS	1	0	24MC	0	1	4.96648812294	None	None	None	None	1
1.7	2015_Aug_05_1557	s	s	19	2	SIC	102	ABS	2	0	24VC	0	1	0.630409955978	None	None	None	None	1
1.7	2015_Aug_05_1557	s	s	19	2	SIC	103	ABS	1	1	24MO	0	1	4.58675885201	None	None	None	None	1
1.7	2015_Aug_05_1557	s	s	19	2	SIC	104	RC	1	1	23MO	1	0	1.91789603233	167.0	-343.0	171	-349	1
1.7	2015_Aug_05_1557	s	s	19	2	SIC	105	RC	2	0	23VC	1	0	0.46514582634	268.0	189.0	262	187	1
1.7	2015_Aug_05_1557	s	s	19	2	SIC	106	ABS	0	2	24RD	0	1	0.747678995132	None	None	None	None	1
1.7	2015_Aug_05_1557	s	s	19	2	SIC	107	ABS	0	1	24RO	0	1	4.00134801865	None	None	None	None	1
1.7	2015_Aug_05_1557	s	s	19	2	SIC	108	ABS	2	1	24VO	0	1	0.618538856506	None	None	None	None	1
1.7	2015_Aug_05_1557	s	s	19	2	SIC	109	RC	2	2	23VD	1	0	0.540943861008	-519.0	-232.0	-515	-227	1
1.7	2015_Aug_05_1557	s	s	19	2	SIC	110	RC	2	1	23VO	1	0	0.512097120285	-390.0	-232.0	-386	-227	1
1.7	2015_Aug_05_1557	s	s	19	2	SIC	111	RC	0	1	23RO	1	0	0.605921030045	-71.0	13.0	-72	18	1
1.7	2015_Aug_05_1557	s	s	19	2	SIC	112	RC	0	2	23RD	1	0	0.540652990341	-37.0	-220.0	-31	-221	1
1.7	2015_Aug_05_1557	s	s	19	2	SIC	113	ABS	1	1	24MO	0	1	4.53111100197	None	None	None	None	1
1.7	2015_Aug_05_1557	s	s	19	2	SIC	114	RC	2	0	23VC	1	0	0.453444957733	-382.0	-276.0	-375	-272	1
1.7	2015_Aug_05_1557	s	s	19	2	SIC	115	ABS	2	2	24VD	0	1	0.571070194244	None	None	None	None	1
1.7	2015_Aug_05_1557	s	s	19	2	SIC	116	RC	1	2	23MD	1	0	0.441446065903	251.0	-327.0	249	-321	1
1.7	2015_Aug_05_1557	s	s	19	2	SIC	117	RC	1	1	23MO	1	0	0.853670835495	8.0	-402.0	9	-403	1
1.7	2015_Aug_05_1557	s	s	19	2	SIC	118	RC	1	0	23MC	1	0	1.15669608116	239.0	180.0	233	185	1
1.7	2015_Aug_05_1557	s	s	19	2	SIC	119	ABS	2	1	24VO	0	1	0.665227174759	None	None	None	None	1
1.7	2015_Aug_05_1557	s	s	19	2	SIC	120	ABS	1	2	24MD	0	1	0.643501996994	None	None	None	None	1
1.7	2015_Aug_05_1557	s	s	19	2	SIC	121	ABS	0	1	24RO	0	1	4.67271089554	None	None	None	None	1
1.7	2015_Aug_05_1557	s	s	19	2	SIC	122	ABS	2	0	24VC	0	1	0.523369073868	None	None	None	None	1
1.7	2015_Aug_05_1557	s	s	19	2	SIC	123	RC	2	2	23VD	1	0	0.467898130417	-90.0	52.0	-82	53	1
1.7	2015_Aug_05_1557	s	s	19	2	SIC	124	ABS	0	2	24RD	0	1	0.79975104332	None	None	None	None	1
1.7	2015_Aug_05_1557	s	s	19	2	SIC	125	RC	0	2	23RD	1	0	0.512271881104	533.0	-81.0	540	-82	1
1.7	2015_Aug_05_1557	s	s	19	2	SIC	126	RC	2	1	23VO	1	0	0.712574005127	424.0	26.0	421	28	1
1.7	2015_Aug_05_1557	s	s	19	2	SIC	127	ABS	1	0	24MC	0	1	3.11412477493	None	None	None	None	1
1.7	2015_Aug_05_1557	s	s	19	2	SIC	128	RC	0	1	23RO	1	0	0.912003993988	268.0	51.0	263	49	1
1.7	2015_Aug_05_1557	s	s	19	2	SIC	129	RC	2	1	23VO	1	0	0.794810056686	449.0	209.0	454	206	1
1.7	2015_Aug_05_1557	s	s	19	2	SIC	130	RC	0	1	23RO	0	1	3.86013913155	-112.0	-394.0	None	None	0
1.7	2015_Aug_05_1557	s	s	19	2	SIC	131	RC	2	2	23VD	1	0	0.985878944397	461.0	404.0	458	403	1
1.7	2015_Aug_05_1557	s	s	19	2	SIC	132	ABS	2	1	24VO	0	1	0.902194023132	None	None	None	None	1
1.7	2015_Aug_05_1557	s	s	19	2	SIC	133	ABS	0	2	24RD	0	1	0.576180934906	None	None	None	None	1
1.7	2015_Aug_05_1557	s	s	19	2	SIC	134	ABS	1	0	24MC	0	1	3.80119609833	None	None	None	None	1
1.7	2015_Aug_05_1557	s	s	19	2	SIC	135	RC	1	2	23MD	1	0	0.646703004837	-54.0	191.0	-49	191	1
1.7	2015_Aug_05_1557	s	s	19	2	SIC	136	ABS	0	1	24RO	0	1	4.50742411613	None	None	None	None	1
1.7	2015_Aug_05_1557	s	s	19	2	SIC	137	RC	1	1	23MO	1	0	2.22398900986	-177.0	198.0	-187	200	1
1.7	2015_Aug_05_1557	s	s	19	2	SIC	138	ABS	2	0	24VC	0	1	0.587846040726	None	None	None	None	1
1.7	2015_Aug_05_1557	s	s	19	2	SIC	139	RC	0	2	23RD	1	0	0.61136507988	-206.0	-224.0	-200	-221	1
1.7	2015_Aug_05_1557	s	s	19	2	SIC	140	ABS	1	1	24MO	0	1	2.3652369976	None	None	None	None	1
1.7	2015_Aug_05_1557	s	s	19	2	SIC	141	RC	1	0	23MC	1	0	1.1359372139	-53.0	-133.0	-59	-142	1
1.7	2015_Aug_05_1557	s	s	19	2	SIC	142	ABS	1	2	24MD	0	1	0.623250961304	None	None	None	None	1
1.7	2015_Aug_05_1557	s	s	19	2	SIC	143	RC	2	0	23VC	1	0	0.501451015472	-456.0	281.0	-452	276	1
1.7	2015_Aug_05_1557	s	s	19	2	SIC	144	ABS	2	2	24VD	0	1	0.481958150864	None	None	None	None	1
1.7	2015_Aug_05_1557	s	s	19	2	SIC	145	ABS	0	2	24RD	0	1	1.03508400917	None	None	None	None	1
1.7	2015_Aug_05_1557	s	s	19	2	SIC	146	ABS	2	1	24VO	0	1	0.599646091461	None	None	None	None	1
1.7	2015_Aug_05_1557	s	s	19	2	SIC	147	ABS	1	1	24MO	0	1	3.59870004654	None	None	None	None	1
1.7	2015_Aug_05_1557	s	s	19	2	SIC	148	ABS	2	2	24VD	0	1	0.634958028793	None	None	None	None	1
1.7	2015_Aug_05_1557	s	s	19	2	SIC	149	RC	2	1	23VO	1	0	0.493740081787	119.0	368.0	119	362	1
1.7	2015_Aug_05_1557	s	s	19	2	SIC	150	RC	1	0	23MC	1	0	2.2829310894	-233.0	-5.0	-223	-7	1
1.7	2015_Aug_05_1557	s	s	19	2	SIC	151	ABS	1	2	24MD	0	1	0.682054042816	None	None	None	None	1
1.7	2015_Aug_05_1557	s	s	19	2	SIC	152	RC	1	1	23MO	1	0	0.891783952713	-365.0	-18.0	-358	-18	1
1.7	2015_Aug_05_1557	s	s	19	2	SIC	153	ABS	2	0	24VC	0	1	0.623132944107	None	None	None	None	1
1.7	2015_Aug_05_1557	s	s	19	2	SIC	154	RC	0	1	23RO	1	0	2.25590491295	299.0	249.0	301	256	1
1.7	2015_Aug_05_1557	s	s	19	2	SIC	155	RC	2	0	23VC	1	0	0.488769054413	-507.0	-243.0	-498	-246	1
1.7	2015_Aug_05_1557	s	s	19	2	SIC	156	RC	0	2	23RD	1	0	0.441452980042	-229.0	-118.0	-238	-116	1
1.7	2015_Aug_05_1557	s	s	19	2	SIC	157	RC	2	2	23VD	1	0	0.45338511467	-473.0	103.0	-478	107	1
1.7	2015_Aug_05_1557	s	s	19	2	SIC	158	ABS	0	1	24RO	0	1	5.34315299988	None	None	None	None	1
1.7	2015_Aug_05_1557	s	s	19	2	SIC	159	RC	1	2	23MD	1	0	0.500777959824	394.0	-53.0	395	-56	1
1.7	2015_Aug_05_1557	s	s	19	2	SIC	160	ABS	1	0	24MC	0	1	3.45993900299	None	None	None	None	1
1.7	2015_Aug_05_1557	s	s	19	2	SIC	161	ABS	1	0	24MC	0	1	4.55465698242	None	None	None	None	1
1.7	2015_Aug_05_1557	s	s	19	2	SIC	162	RC	0	2	23RD	1	0	1.2448618412	443.0	291.0	442	288	1
1.7	2015_Aug_05_1557	s	s	19	2	SIC	163	RC	1	0	23MC	1	0	2.32494616508	197.0	249.0	210	254	1
1.7	2015_Aug_05_1557	s	s	19	2	SIC	164	ABS	0	1	24RO	0	1	4.18467497826	None	None	None	None	1
1.7	2015_Aug_05_1557	s	s	19	2	SIC	165	ABS	2	0	24VC	0	1	0.62317609787	None	None	None	None	1
1.7	2015_Aug_05_1557	s	s	19	2	SIC	166	RC	1	2	23MD	1	0	0.458384037018	357.0	52.0	363	52	1
1.7	2015_Aug_05_1557	s	s	19	2	SIC	167	RC	2	0	23VC	1	0	0.440915822983	-85.0	-247.0	-89	-253	1
1.7	2015_Aug_05_1557	s	s	19	2	SIC	168	ABS	0	2	24RD	0	1	1.2299990654	None	None	None	None	1
1.7	2015_Aug_05_1557	s	s	19	2	SIC	169	RC	0	1	23RO	1	0	1.03009700775	324.0	42.0	329	37	1
1.7	2015_Aug_05_1557	s	s	19	2	SIC	170	ABS	1	2	24MD	0	1	0.752698898315	None	None	None	None	1
1.7	2015_Aug_05_1557	s	s	19	2	SIC	171	ABS	1	1	24MO	0	1	3.52595186234	None	None	None	None	1
1.7	2015_Aug_05_1557	s	s	19	2	SIC	172	RC	2	1	23VO	1	0	0.571022033691	173.0	381.0	182	381	1
1.7	2015_Aug_05_1557	s	s	19	2	SIC	173	ABS	2	1	24VO	0	1	1.02345085144	None	None	None	None	1
1.7	2015_Aug_05_1557	s	s	19	2	SIC	174	RC	2	2	23VD	1	0	0.493721008301	-199.0	380.0	-199	382	1
1.7	2015_Aug_05_1557	s	s	19	2	SIC	175	RC	1	1	23MO	1	0	0.747796058655	-364.0	31.0	-361	38	1
1.7	2015_Aug_05_1557	s	s	19	2	SIC	176	ABS	2	2	24VD	0	1	0.581604957581	None	None	None	None	1
1.7	2015_Aug_05_1557	s	s	19	2	SIC	177	ABS	1	2	24MD	0	1	0.677568912506	None	None	None	None	1
1.7	2015_Aug_05_1557	s	s	19	2	SIC	178	RC	2	1	23VO	1	0	0.691347837448	-460.0	-321.0	-462	-322	1
1.7	2015_Aug_05_1557	s	s	19	2	SIC	179	ABS	0	2	24RD	0	1	1.09149289131	None	None	None	None	1
1.7	2015_Aug_05_1557	s	s	19	2	SIC	180	ABS	2	2	24VD	0	1	0.512337207794	None	None	None	None	1
1.7	2015_Aug_05_1557	s	s	19	2	SIC	181	ABS	1	0	24MC	0	1	4.04890203476	None	None	None	None	1
1.7	2015_Aug_05_1557	s	s	19	2	SIC	182	RC	1	2	23MD	1	0	0.453380823135	305.0	-73.0	298	-66	1
1.7	2015_Aug_05_1557	s	s	19	2	SIC	183	RC	1	1	23MO	1	0	1.33668208122	-363.0	-408.0	-372	-409	1
1.7	2015_Aug_05_1557	s	s	19	2	SIC	184	RC	0	2	23RD	1	0	0.517360925674	429.0	-148.0	431	-141	1
1.7	2015_Aug_05_1557	s	s	19	2	SIC	185	RC	2	0	23VC	1	0	0.501032114029	176.0	-104.0	174	-103	1
1.7	2015_Aug_05_1557	s	s	19	2	SIC	186	RC	0	1	23RO	1	0	1.31111907959	494.0	-179.0	489	-178	1
1.7	2015_Aug_05_1557	s	s	19	2	SIC	187	ABS	1	1	24MO	0	1	3.17251706123	None	None	None	None	1
1.7	2015_Aug_05_1557	s	s	19	2	SIC	188	RC	2	2	23VD	1	0	0.441756010056	400.0	218.0	398	222	1
1.7	2015_Aug_05_1557	s	s	19	2	SIC	189	RC	1	0	23MC	0	1	3.2480340004	-267.0	284.0	None	None	0
1.7	2015_Aug_05_1557	s	s	19	2	SIC	190	ABS	2	0	24VC	0	1	0.976727962494	None	None	None	None	1
1.7	2015_Aug_05_1557	s	s	19	2	SIC	191	ABS	2	1	24VO	0	1	0.830579042435	None	None	None	None	1
1.7	2015_Aug_05_1557	s	s	19	2	SIC	192	ABS	0	1	24RO	0	1	4.10473680496	None	None	None	None	1
1.7	2015_Aug_05_1557	s	s	19	2	SIC	193	RC	1	0	23MC	1	0	2.56081604958	-96.0	152.0	-91	149	1
1.7	2015_Aug_05_1557	s	s	19	2	SIC	194	RC	2	1	23VO	1	0	0.512475013733	-528.0	123.0	-527	127	1
1.7	2015_Aug_05_1557	s	s	19	2	SIC	195	ABS	2	1	24VO	0	1	0.818264961243	None	None	None	None	1
1.7	2015_Aug_05_1557	s	s	19	2	SIC	196	ABS	0	2	24RD	0	1	0.561160087585	None	None	None	None	1
1.7	2015_Aug_05_1557	s	s	19	2	SIC	197	RC	1	1	23MO	1	0	1.13611197472	-239.0	302.0	-230	301	1
1.7	2015_Aug_05_1557	s	s	19	2	SIC	198	ABS	2	0	24VC	0	1	0.737407922745	None	None	None	None	1
1.7	2015_Aug_05_1557	s	s	19	2	SIC	199	ABS	1	0	24MC	0	1	4.18411111832	None	None	None	None	1
1.7	2015_Aug_05_1557	s	s	19	2	SIC	200	RC	2	2	23VD	1	0	0.865408182144	-144.0	322.0	-140	330	1
1.7	2015_Aug_05_1557	s	s	19	2	SIC	201	ABS	1	1	24MO	0	1	3.22443890572	None	None	None	None	1
1.7	2015_Aug_05_1557	s	s	19	2	SIC	202	RC	1	2	23MD	1	0	0.582844018936	90.0	304.0	81	303	1
1.7	2015_Aug_05_1557	s	s	19	2	SIC	203	ABS	1	2	24MD	0	1	1.38024497032	None	None	None	None	1
1.7	2015_Aug_05_1557	s	s	19	2	SIC	204	RC	2	0	23VC	1	0	0.477700948715	396.0	-114.0	391	-120	1
1.7	2015_Aug_05_1557	s	s	19	2	SIC	205	RC	0	2	23RD	1	0	0.599700927734	165.0	-354.0	165	-352	1
1.7	2015_Aug_05_1557	s	s	19	2	SIC	206	ABS	2	2	24VD	0	1	0.635004043579	None	None	None	None	1
1.7	2015_Aug_05_1557	s	s	19	2	SIC	207	RC	0	1	23RO	1	0	1.50602602959	430.0	-89.0	433	-88	1
1.7	2015_Aug_05_1557	s	s	19	2	SIC	208	ABS	0	1	24RO	0	1	4.24337005615	None	None	None	None	1
1.7	2015_Aug_05_1557	s	s	19	2	SIC	209	RC	2	1	23VO	1	0	0.5092689991	-334.0	-303.0	-337	-300	1
1.7	2015_Aug_05_1557	s	s	19	2	SIC	210	RC	1	0	23MC	0	1	2.85468888283	498.0	-347.0	None	None	0
1.7	2015_Aug_05_1557	s	s	19	2	SIC	211	RC	0	2	23RD	1	0	0.453541040421	-126.0	169.0	-123	170	1
1.7	2015_Aug_05_1557	s	s	19	2	SIC	212	ABS	2	1	24VO	0	1	0.587855100632	None	None	None	None	1
1.7	2015_Aug_05_1557	s	s	19	2	SIC	213	ABS	1	1	24MO	0	1	2.86634111404	None	None	None	None	1
1.7	2015_Aug_05_1557	s	s	19	2	SIC	214	RC	2	2	23VD	1	0	0.481955051422	-195.0	-133.0	-200	-141	1
1.7	2015_Aug_05_1557	s	s	19	2	SIC	215	RC	0	1	23RO	1	0	4.12479496002	231.0	218.0	228	221	1
1.7	2015_Aug_05_1557	s	s	19	2	SIC	216	RC	1	1	23MO	1	0	1.27681517601	129.0	-162.0	123	-163	1
1.7	2015_Aug_05_1557	s	s	19	2	SIC	217	ABS	0	2	24RD	0	1	0.634959936142	None	None	None	None	1
1.7	2015_Aug_05_1557	s	s	19	2	SIC	218	ABS	2	2	24VD	0	1	0.465214014053	None	None	None	None	1
1.7	2015_Aug_05_1557	s	s	19	2	SIC	219	ABS	1	0	24MC	0	1	2.70166611671	None	None	None	None	1
1.7	2015_Aug_05_1557	s	s	19	2	SIC	220	ABS	0	1	24RO	0	1	4.58743810654	None	None	None	None	1
1.7	2015_Aug_05_1557	s	s	19	2	SIC	221	ABS	2	0	24VC	0	1	0.670114040375	None	None	None	None	1
1.7	2015_Aug_05_1557	s	s	19	2	SIC	222	ABS	1	2	24MD	0	1	0.465183973312	None	None	None	None	1
1.7	2015_Aug_05_1557	s	s	19	2	SIC	223	RC	1	2	23MD	1	0	0.536087036133	-505.0	-44.0	-503	-46	1
1.7	2015_Aug_05_1557	s	s	19	2	SIC	224	RC	2	0	23VC	1	0	0.42312002182	-34.0	148.0	-38	149	1
1.7	2015_Aug_05_1557	s	s	19	2	SIC	225	ABS	0	1	24RO	0	1	4.2198009491	None	None	None	None	1
1.7	2015_Aug_05_1557	s	s	19	2	SIC	226	ABS	2	2	24VD	0	1	0.584480047226	None	None	None	None	1
1.7	2015_Aug_05_1557	s	s	19	2	SIC	227	ABS	2	0	24VC	0	1	0.51229596138	None	None	None	None	1
1.7	2015_Aug_05_1557	s	s	19	2	SIC	228	RC	2	0	23VC	1	0	0.514800071716	403.0	-238.0	409	-232	1
1.7	2015_Aug_05_1557	s	s	19	2	SIC	229	RC	2	2	23VD	1	0	0.411308050156	206.0	117.0	209	113	1
1.7	2015_Aug_05_1557	s	s	19	2	SIC	230	ABS	1	0	24MC	0	1	3.47168898582	None	None	None	None	1
1.7	2015_Aug_05_1557	s	s	19	2	SIC	231	RC	1	0	23MC	1	0	1.81215810776	-189.0	-60.0	-187	-60	1
1.7	2015_Aug_05_1557	s	s	19	2	SIC	232	RC	1	2	23MD	1	0	1.74815106392	114.0	-316.0	124	-310	1
1.7	2015_Aug_05_1557	s	s	19	2	SIC	233	RC	1	1	23MO	1	0	1.83162689209	-63.0	313.0	-66	314	1
1.7	2015_Aug_05_1557	s	s	19	2	SIC	234	ABS	0	2	24RD	0	1	0.761986017227	None	None	None	None	1
1.7	2015_Aug_05_1557	s	s	19	2	SIC	235	ABS	1	2	24MD	0	1	0.864597082138	None	None	None	None	1
1.7	2015_Aug_05_1557	s	s	19	2	SIC	236	RC	0	2	23RD	1	0	0.773081064224	-451.0	379.0	-450	384	1
1.7	2015_Aug_05_1557	s	s	19	2	SIC	237	RC	0	1	23RO	1	0	2.19809603691	-497.0	-184.0	-496	-191	1
1.7	2015_Aug_05_1557	s	s	19	2	SIC	238	RC	2	1	23VO	1	0	0.446635961533	-484.0	-57.0	-489	-54	1
1.7	2015_Aug_05_1557	s	s	19	2	SIC	239	ABS	1	1	24MO	0	1	3.04831504822	None	None	None	None	1
1.7	2015_Aug_05_1557	s	s	19	2	SIC	240	ABS	2	1	24VO	0	1	0.611840963364	None	None	None	None	1
1.7	2015_Aug_05_1557	s	s	19	2	SIC	241	ABS	1	2	24MD	0	1	0.582864046097	None	None	None	None	1
1.7	2015_Aug_05_1557	s	s	19	2	SIC	242	ABS	1	1	24MO	0	1	2.68346905708	None	None	None	None	1
1.7	2015_Aug_05_1557	s	s	19	2	SIC	243	ABS	0	1	24RO	0	1	4.00828480721	None	None	None	None	1
1.7	2015_Aug_05_1557	s	s	19	2	SIC	244	ABS	2	1	24VO	0	1	1.16471099854	None	None	None	None	1
1.7	2015_Aug_05_1557	s	s	19	2	SIC	245	ABS	2	2	24VD	0	1	0.690618038177	None	None	None	None	1
1.7	2015_Aug_05_1557	s	s	19	2	SIC	246	ABS	2	0	24VC	0	1	0.48192691803	None	None	None	None	1
1.7	2015_Aug_05_1557	s	s	19	2	SIC	247	RC	1	0	23MC	0	1	3.60120010376	494.0	-230.0	None	None	0
1.7	2015_Aug_05_1557	s	s	19	2	SIC	248	RC	0	2	23RD	1	0	0.87704706192	-166.0	219.0	-161	216	1
1.7	2015_Aug_05_1557	s	s	19	2	SIC	249	RC	0	1	23RO	1	0	1.48861980438	-141.0	-334.0	-142	-332	1
1.7	2015_Aug_05_1557	s	s	19	2	SIC	250	RC	2	2	23VD	1	0	0.453541994095	328.0	200.0	328	199	1
1.7	2015_Aug_05_1557	s	s	19	2	SIC	251	RC	2	0	23VC	1	0	0.426903009415	-309.0	256.0	-300	256	1
1.7	2015_Aug_05_1557	s	s	19	2	SIC	252	RC	2	1	23VO	1	0	0.465047121048	251.0	-100.0	248	-103	1
1.7	2015_Aug_05_1557	s	s	19	2	SIC	253	ABS	0	2	24RD	0	1	0.79971408844	None	None	None	None	1
1.7	2015_Aug_05_1557	s	s	19	2	SIC	254	RC	1	2	23MD	1	0	0.641960859299	-511.0	152.0	-518	154	1
1.7	2015_Aug_05_1557	s	s	19	2	SIC	255	ABS	1	0	24MC	0	1	2.96547079086	None	None	None	None	1
1.7	2015_Aug_05_1557	s	s	19	2	SIC	256	RC	1	1	23MO	1	0	0.634997844696	-119.0	23.0	-114	30	1
1.7	2015_Aug_05_1557	s	s	19	2	SIC	257	RC	2	2	23VD	1	0	0.505496025085	-522.0	-129.0	-520	-124	1
1.7	2015_Aug_05_1557	s	s	19	2	SIC	258	ABS	0	2	24RD	0	1	0.75955414772	None	None	None	None	1
1.7	2015_Aug_05_1557	s	s	19	2	SIC	259	ABS	1	0	24MC	0	1	2.44268298149	None	None	None	None	1
1.7	2015_Aug_05_1557	s	s	19	2	SIC	260	RC	2	0	23VC	1	0	0.446605205536	-300.0	14.0	-298	18	1
1.7	2015_Aug_05_1557	s	s	19	2	SIC	261	RC	1	0	23MC	1	0	4.78499388695	-214.0	-89.0	-215	-92	1
1.7	2015_Aug_05_1557	s	s	19	2	SIC	262	ABS	0	1	24RO	0	1	3.94959497452	None	None	None	None	1
1.7	2015_Aug_05_1557	s	s	19	2	SIC	263	RC	0	2	23RD	1	0	0.478510856628	366.0	-31.0	368	-31	1
1.7	2015_Aug_05_1557	s	s	19	2	SIC	264	ABS	2	0	24VC	0	1	0.912668943405	None	None	None	None	1
1.7	2015_Aug_05_1557	s	s	19	2	SIC	265	RC	0	1	23RO	1	0	0.964804887772	376.0	-52.0	372	-55	1
1.7	2015_Aug_05_1557	s	s	19	2	SIC	266	ABS	2	1	24VO	0	1	0.618441104889	None	None	None	None	1
1.7	2015_Aug_05_1557	s	s	19	2	SIC	267	ABS	1	1	24MO	0	1	2.87140202522	None	None	None	None	1
1.7	2015_Aug_05_1557	s	s	19	2	SIC	268	RC	1	2	23MD	1	0	0.547320127487	-313.0	-40.0	-313	-45	1
1.7	2015_Aug_05_1557	s	s	19	2	SIC	269	ABS	1	2	24MD	0	1	0.935847043991	None	None	None	None	1
1.7	2015_Aug_05_1557	s	s	19	2	SIC	270	RC	2	1	23VO	1	0	0.493664979935	226.0	369.0	235	374	1
1.7	2015_Aug_05_1557	s	s	19	2	SIC	271	RC	1	1	23MO	1	0	1.23527908325	538.0	-146.0	536	-141	1
1.7	2015_Aug_05_1557	s	s	19	2	SIC	272	ABS	2	2	24VD	0	1	0.512064933777	None	None	None	None	1
1.7	2015_Aug_05_1557	s	s	19	2	SIC	273	RC	0	1	23RO	1	0	1.46589493752	-265.0	-180.0	-263	-180	1
1.7	2015_Aug_05_1557	s	s	19	2	SIC	274	ABS	1	0	24MC	0	1	5.23449397087	None	None	None	None	1
1.7	2015_Aug_05_1557	s	s	19	2	SIC	275	ABS	2	1	24VO	0	1	0.573123931885	None	None	None	None	1
1.7	2015_Aug_05_1557	s	s	19	2	SIC	276	RC	1	1	23MO	1	0	1.34947013855	-500.0	104.0	-488	107	1
1.7	2015_Aug_05_1557	s	s	19	2	SIC	277	RC	2	2	23VD	0	1	0.50049495697	299.0	-278.0	None	None	0
1.7	2015_Aug_05_1557	s	s	19	2	SIC	278	ABS	0	2	24RD	0	1	0.740880012512	None	None	None	None	1
1.7	2015_Aug_05_1557	s	s	19	2	SIC	279	RC	0	2	23RD	1	0	0.500293016434	61.0	323.0	63	324	1
1.7	2015_Aug_05_1557	s	s	19	2	SIC	280	RC	1	2	23MD	1	0	0.491238832474	517.0	-257.0	521	-248	1
1.7	2015_Aug_05_1557	s	s	19	2	SIC	281	RC	2	0	23VC	1	0	0.429593086243	-82.0	181.0	-85	181	1
1.7	2015_Aug_05_1557	s	s	19	2	SIC	282	ABS	0	1	24RO	0	1	4.73787307739	None	None	None	None	1
1.7	2015_Aug_05_1557	s	s	19	2	SIC	283	ABS	1	1	24MO	0	1	3.68037199974	None	None	None	None	1
1.7	2015_Aug_05_1557	s	s	19	2	SIC	284	RC	1	0	23MC	1	0	4.29564499855	427.0	386.0	424	388	1
1.7	2015_Aug_05_1557	s	s	19	2	SIC	285	ABS	2	0	24VC	0	1	0.547235965729	None	None	None	None	1
1.7	2015_Aug_05_1557	s	s	19	2	SIC	286	RC	2	1	23VO	1	0	0.634968996048	-81.0	-133.0	-82	-133	1
1.7	2015_Aug_05_1557	s	s	19	2	SIC	287	ABS	1	2	24MD	0	1	0.925018787384	None	None	None	None	1
1.7	2015_Aug_05_1557	s	s	19	2	SIC	288	ABS	2	2	24VD	0	1	0.68887591362	None	None	None	None	1
1.7	2015_Aug_05_1557	s	s	19	2	SIC	289	RC	2	1	23VO	1	0	0.470192909241	174.0	102.0	176	106	1
1.7	2015_Aug_05_1557	s	s	19	2	SIC	290	ABS	2	2	24VD	0	1	0.623214960098	None	None	None	None	1
1.7	2015_Aug_05_1557	s	s	19	2	SIC	291	ABS	1	1	24MO	0	1	3.65520596504	None	None	None	None	1
1.7	2015_Aug_05_1557	s	s	19	2	SIC	292	ABS	0	1	24RO	0	1	4.18480014801	None	None	None	None	1
1.7	2015_Aug_05_1557	s	s	19	2	SIC	293	ABS	2	0	24VC	0	1	0.682061910629	None	None	None	None	1
1.7	2015_Aug_05_1557	s	s	19	2	SIC	294	ABS	0	2	24RD	0	1	0.593988895416	None	None	None	None	1
1.7	2015_Aug_05_1557	s	s	19	2	SIC	295	ABS	1	2	24MD	0	1	0.740911006927	None	None	None	None	1
1.7	2015_Aug_05_1557	s	s	19	2	SIC	296	RC	0	2	23RD	1	0	0.576112985611	-416.0	-161.0	-407	-157	1
1.7	2015_Aug_05_1557	s	s	19	2	SIC	297	RC	1	0	23MC	0	1	8.48074889183	28.0	390.0	None	None	0
1.7	2015_Aug_05_1557	s	s	19	2	SIC	298	RC	1	1	23MO	1	0	2.38377404213	-19.0	-258.0	-18	-260	1
1.7	2015_Aug_05_1557	s	s	19	2	SIC	299	RC	2	0	23VC	1	0	0.517318964005	530.0	323.0	534	330	1
1.7	2015_Aug_05_1557	s	s	19	2	SIC	300	ABS	1	0	24MC	0	1	7.55607318878	None	None	None	None	1
1.7	2015_Aug_05_1557	s	s	19	2	SIC	301	RC	0	1	23RO	1	0	1.08903598785	-136.0	-4.0	-137	1	1
1.7	2015_Aug_05_1557	s	s	19	2	SIC	302	RC	1	2	23MD	1	0	0.693739891052	-162.0	110.0	-159	116	1
1.7	2015_Aug_05_1557	s	s	19	2	SIC	303	RC	2	2	23VD	1	0	0.476839065552	200.0	90.0	199	96	1
1.7	2015_Aug_05_1557	s	s	19	2	SIC	304	ABS	2	1	24VO	0	1	0.538515090942	None	None	None	None	1
1.7	2015_Aug_05_1557	s	s	19	2	SIC	305	RC	1	0	23MC	1	0	1.72451996803	-93.0	100.0	-94	106	1
1.7	2015_Aug_05_1557	s	s	19	2	SIC	306	ABS	0	1	24RO	0	1	4.27009701729	None	None	None	None	1
1.7	2015_Aug_05_1557	s	s	19	2	SIC	307	ABS	1	2	24MD	0	1	0.629479169846	None	None	None	None	1
1.7	2015_Aug_05_1557	s	s	19	2	SIC	308	RC	1	1	23MO	1	0	1.19991898537	-271.0	-128.0	-266	-127	1
1.7	2015_Aug_05_1557	s	s	19	2	SIC	309	ABS	0	2	24RD	0	1	1.03314089775	None	None	None	None	1
1.7	2015_Aug_05_1557	s	s	19	2	SIC	310	RC	0	1	23RO	0	1	4.58494400978	-65.0	-128.0	None	None	0
1.7	2015_Aug_05_1557	s	s	19	2	SIC	311	ABS	1	1	24MO	0	1	3.47846102715	None	None	None	None	1
1.7	2015_Aug_05_1557	s	s	19	2	SIC	312	RC	0	2	23RD	1	0	0.458404779434	-164.0	8.0	-172	2	1
1.7	2015_Aug_05_1557	s	s	19	2	SIC	313	RC	2	2	23VD	1	0	0.405647993088	-3.0	82.0	-6	79	1
1.7	2015_Aug_05_1557	s	s	19	2	SIC	314	RC	2	0	23VC	1	0	0.406509876251	17.0	18.0	22	27	1
1.7	2015_Aug_05_1557	s	s	19	2	SIC	315	ABS	2	1	24VO	0	1	0.517244815826	None	None	None	None	1
1.7	2015_Aug_05_1557	s	s	19	2	SIC	316	ABS	1	0	24MC	0	1	3.0361828804	None	None	None	None	1
1.7	2015_Aug_05_1557	s	s	19	2	SIC	317	RC	1	2	23MD	1	0	0.458409070969	354.0	-50.0	357	-54	1
1.7	2015_Aug_05_1557	s	s	19	2	SIC	318	ABS	2	2	24VD	0	1	0.488882064819	None	None	None	None	1
1.7	2015_Aug_05_1557	s	s	19	2	SIC	319	ABS	2	0	24VC	0	1	0.603447914124	None	None	None	None	1
1.7	2015_Aug_05_1557	s	s	19	2	SIC	320	RC	2	1	23VO	1	0	0.693803071976	224.0	-385.0	224	-388	1
1.7	2015_Aug_05_1557	s	s	19	2	SIC	321	RC	2	0	23VC	1	0	0.446689128876	13.0	137.0	6	137	1
1.7	2015_Aug_05_1557	s	s	19	2	SIC	322	RC	1	2	23MD	1	0	0.540765047073	-464.0	307.0	-461	302	1
1.7	2015_Aug_05_1557	s	s	19	2	SIC	323	RC	1	1	23MO	1	0	2.5841190815	-393.0	331.0	-404	332	1
1.7	2015_Aug_05_1557	s	s	19	2	SIC	324	RC	0	1	23RO	1	0	3.32758688927	-509.0	-211.0	-505	-213	1
1.7	2015_Aug_05_1557	s	s	19	2	SIC	325	RC	2	1	23VO	1	0	0.500492811203	398.0	340.0	403	342	1
1.7	2015_Aug_05_1557	s	s	19	2	SIC	326	ABS	2	2	24VD	0	1	0.493727207184	None	None	None	None	1
1.7	2015_Aug_05_1557	s	s	19	2	SIC	327	ABS	2	1	24VO	0	1	0.887846946716	None	None	None	None	1
1.7	2015_Aug_05_1557	s	s	19	2	SIC	328	RC	0	2	23RD	1	0	0.570914030075	57.0	-347.0	54	-344	1
1.7	2015_Aug_05_1557	s	s	19	2	SIC	329	ABS	1	0	24MC	0	1	2.70159506798	None	None	None	None	1
1.7	2015_Aug_05_1557	s	s	19	2	SIC	330	ABS	2	0	24VC	0	1	0.587904930115	None	None	None	None	1
1.7	2015_Aug_05_1557	s	s	19	2	SIC	331	ABS	0	1	24RO	0	1	4.36118984222	None	None	None	None	1
1.7	2015_Aug_05_1557	s	s	19	2	SIC	332	ABS	1	2	24MD	0	1	0.923424005508	None	None	None	None	1
1.7	2015_Aug_05_1557	s	s	19	2	SIC	333	RC	2	2	23VD	1	0	0.43491601944	-284.0	-106.0	-287	-105	1
1.7	2015_Aug_05_1557	s	s	19	2	SIC	334	ABS	0	2	24RD	0	1	1.33631110191	None	None	None	None	1
1.7	2015_Aug_05_1557	s	s	19	2	SIC	335	RC	1	0	23MC	1	0	4.86058402061	-30.0	63.0	-29	55	1
1.7	2015_Aug_05_1557	s	s	19	2	SIC	336	ABS	1	1	24MO	0	1	3.1188158989	None	None	None	None	1
1.7	2015_Aug_05_1557	s	s	19	2	SIC	337	ABS	2	1	24VO	0	1	0.960880041122	None	None	None	None	1
1.7	2015_Aug_05_1557	s	s	19	2	SIC	338	ABS	0	2	24RD	0	1	0.866870880127	None	None	None	None	1
1.7	2015_Aug_05_1557	s	s	19	2	SIC	339	RC	0	2	23RD	1	0	0.465309143066	81.0	-122.0	75	-120	1
1.7	2015_Aug_05_1557	s	s	19	2	SIC	340	RC	0	1	23RO	1	0	3.20097517967	-418.0	94.0	-416	86	1
1.7	2015_Aug_05_1557	s	s	19	2	SIC	341	RC	1	0	23MC	1	0	3.13963794708	-466.0	-108.0	-473	-108	1
1.7	2015_Aug_05_1557	s	s	19	2	SIC	342	RC	2	2	23VD	1	0	0.446584939957	311.0	-270.0	319	-266	1
1.7	2015_Aug_05_1557	s	s	19	2	SIC	343	RC	1	1	23MO	1	0	1.49201107025	77.0	-311.0	81	-306	1
1.7	2015_Aug_05_1557	s	s	19	2	SIC	344	ABS	1	0	24MC	0	1	5.84938788414	None	None	None	None	1
1.7	2015_Aug_05_1557	s	s	19	2	SIC	345	ABS	1	1	24MO	0	1	3.76632499695	None	None	None	None	1
1.7	2015_Aug_05_1557	s	s	19	2	SIC	346	RC	2	0	23VC	1	0	0.493696928024	95.0	-151.0	91	-147	1
1.7	2015_Aug_05_1557	s	s	19	2	SIC	347	RC	2	1	23VO	1	0	0.476922035217	291.0	317.0	291	316	1
1.7	2015_Aug_05_1557	s	s	19	2	SIC	348	ABS	0	1	24RO	0	1	4.19890904427	None	None	None	None	1
1.7	2015_Aug_05_1557	s	s	19	2	SIC	349	ABS	2	0	24VC	0	1	0.974346876144	None	None	None	None	1
1.7	2015_Aug_05_1557	s	s	19	2	SIC	350	RC	1	2	23MD	1	0	0.47708106041	283.0	215.0	289	214	1
1.7	2015_Aug_05_1557	s	s	19	2	SIC	351	ABS	1	2	24MD	0	1	0.776148796082	None	None	None	None	1
1.7	2015_Aug_05_1557	s	s	19	2	SIC	352	ABS	2	2	24VD	0	1	0.509176969528	None	None	None	None	1
1.7	2015_Aug_05_1557	s	s	19	2	SIC	353	ABS	2	0	24VC	0	1	0.658465147018	None	None	None	None	1
1.7	2015_Aug_05_1557	s	s	19	2	SIC	354	ABS	2	1	24VO	0	1	0.505509853363	None	None	None	None	1
1.7	2015_Aug_05_1557	s	s	19	2	SIC	355	RC	0	2	23RD	1	0	0.603439092636	-327.0	5.0	-329	2	1
1.7	2015_Aug_05_1557	s	s	19	2	SIC	356	ABS	0	2	24RD	0	1	0.768275022507	None	None	None	None	1
1.7	2015_Aug_05_1557	s	s	19	2	SIC	357	RC	1	1	23MO	1	0	0.889596939087	-197.0	321.0	-196	316	1
1.7	2015_Aug_05_1557	s	s	19	2	SIC	358	ABS	1	1	24MO	0	1	3.52641510963	None	None	None	None	1
1.7	2015_Aug_05_1557	s	s	19	2	SIC	359	RC	1	0	23MC	1	0	5.34289693832	5.0	344.0	7	342	1
1.7	2015_Aug_05_1557	s	s	19	2	SIC	360	RC	2	1	23VO	1	0	0.502882003784	66.0	322.0	66	325	1
1.7	2015_Aug_05_1557	s	s	19	2	SIC	361	RC	0	1	23RO	1	0	3.93069195747	-430.0	-192.0	-430	-189	1
1.7	2015_Aug_05_1557	s	s	19	2	SIC	362	RC	2	2	23VD	1	0	0.465371847153	-216.0	-350.0	-218	-353	1
1.7	2015_Aug_05_1557	s	s	19	2	SIC	363	RC	2	0	23VC	1	0	0.465274095535	43.0	-108.0	46	-122	1
1.7	2015_Aug_05_1557	s	s	19	2	SIC	364	ABS	1	2	24MD	0	1	0.914311885834	None	None	None	None	1
1.7	2015_Aug_05_1557	s	s	19	2	SIC	365	ABS	1	0	24MC	0	1	3.38914608955	None	None	None	None	1
1.7	2015_Aug_05_1557	s	s	19	2	SIC	366	ABS	2	2	24VD	0	1	0.51219201088	None	None	None	None	1
1.7	2015_Aug_05_1557	s	s	19	2	SIC	367	RC	1	2	23MD	1	0	0.634837150574	246.0	-192.0	244	-188	1
1.7	2015_Aug_05_1557	s	s	19	2	SIC	368	ABS	0	1	24RO	0	1	4.74950313568	None	None	None	None	1
1.7	2015_Aug_05_1557	s	s	19	2	SIC	369	RC	1	0	23MC	1	0	4.00828194618	-415.0	-362.0	-419	-360	1
1.7	2015_Aug_05_1557	s	s	19	2	SIC	370	RC	2	2	23VD	1	0	0.493725061417	14.0	397.0	15	396	1
1.7	2015_Aug_05_1557	s	s	19	2	SIC	371	RC	2	0	23VC	1	0	0.465226888657	-8.0	-122.0	-10	-118	1
1.7	2015_Aug_05_1557	s	s	19	2	SIC	372	ABS	1	0	24MC	0	1	3.56585288048	None	None	None	None	1
1.7	2015_Aug_05_1557	s	s	19	2	SIC	373	ABS	2	2	24VD	0	1	0.552424907684	None	None	None	None	1
1.7	2015_Aug_05_1557	s	s	19	2	SIC	374	ABS	2	0	24VC	0	1	0.512450218201	None	None	None	None	1
1.7	2015_Aug_05_1557	s	s	19	2	SIC	375	ABS	1	2	24MD	0	1	0.831156015396	None	None	None	None	1
1.7	2015_Aug_05_1557	s	s	19	2	SIC	376	RC	1	1	23MO	1	0	1.20679998398	13.0	37.0	7	35	1
1.7	2015_Aug_05_1557	s	s	19	2	SIC	377	ABS	2	1	24VO	0	1	0.564645051956	None	None	None	None	1
1.7	2015_Aug_05_1557	s	s	19	2	SIC	378	RC	0	2	23RD	1	0	0.842885017395	37.0	255.0	38	253	1
1.7	2015_Aug_05_1557	s	s	19	2	SIC	379	RC	0	1	23RO	1	0	1.31770706177	-519.0	375.0	-515	382	1
1.7	2015_Aug_05_1557	s	s	19	2	SIC	380	RC	2	1	23VO	1	0	0.693829059601	351.0	374.0	352	370	1
1.7	2015_Aug_05_1557	s	s	19	2	SIC	381	ABS	1	1	24MO	0	1	3.91641187668	None	None	None	None	1
1.7	2015_Aug_05_1557	s	s	19	2	SIC	382	ABS	0	2	24RD	0	1	0.964543104172	None	None	None	None	1
1.7	2015_Aug_05_1557	s	s	19	2	SIC	383	RC	1	2	23MD	1	0	0.552623987198	273.0	261.0	272	259	1
1.7	2015_Aug_05_1557	s	s	19	2	SIC	384	ABS	0	1	24RO	0	1	4.24458813667	None	None	None	None	1
1.7	2015_Aug_05_1557	s	s	19	2	SIC	385	ABS	1	1	24MO	0	1	3.19573807716	None	None	None	None	1
1.7	2015_Aug_05_1557	s	s	19	2	SIC	386	RC	0	2	23RD	1	0	0.446660995483	-124.0	-29.0	-120	-33	1
1.7	2015_Aug_05_1557	s	s	19	2	SIC	387	RC	2	0	23VC	1	0	0.418209791183	-10.0	87.0	-9	92	1
1.7	2015_Aug_05_1557	s	s	19	2	SIC	388	ABS	1	0	24MC	0	1	3.30364608765	None	None	None	None	1
1.7	2015_Aug_05_1557	s	s	19	2	SIC	389	ABS	1	2	24MD	0	1	0.617439985275	None	None	None	None	1
1.7	2015_Aug_05_1557	s	s	19	2	SIC	390	RC	2	2	23VD	1	0	0.458257913589	406.0	79.0	403	83	1
1.7	2015_Aug_05_1557	s	s	19	2	SIC	391	ABS	0	2	24RD	0	1	0.811541080475	None	None	None	None	1
1.7	2015_Aug_05_1557	s	s	19	2	SIC	392	ABS	2	2	24VD	0	1	0.467809915543	None	None	None	None	1
1.7	2015_Aug_05_1557	s	s	19	2	SIC	393	ABS	2	0	24VC	0	1	0.524010181427	None	None	None	None	1
1.7	2015_Aug_05_1557	s	s	19	2	SIC	394	RC	1	0	23MC	1	0	2.76547384262	375.0	-66.0	383	-64	1
1.7	2015_Aug_05_1557	s	s	19	2	SIC	395	RC	0	1	23RO	1	0	2.84789085388	-54.0	-346.0	-55	-344	1
1.7	2015_Aug_05_1557	s	s	19	2	SIC	396	ABS	2	1	24VO	0	1	0.605857133865	None	None	None	None	1
1.7	2015_Aug_05_1557	s	s	19	2	SIC	397	RC	2	1	23VO	1	0	0.458348989487	70.0	-226.0	61	-220	1
1.7	2015_Aug_05_1557	s	s	19	2	SIC	398	RC	1	1	23MO	1	0	1.33612298965	301.0	-277.0	296	-271	1
1.7	2015_Aug_05_1557	s	s	19	2	SIC	399	RC	1	2	23MD	1	0	0.536333084106	-276.0	-293.0	-282	-289	1
1.7	2015_Aug_05_1557	s	s	19	2	SIC	400	ABS	0	1	24RO	0	1	4.21033406258	None	None	None	None	1
1.7	2015_Aug_05_1557	s	s	19	2	SIC	401	RC	1	0	23MC	1	0	2.20075297356	531.0	292.0	530	288	1
1.7	2015_Aug_05_1557	s	s	19	2	SIC	402	ABS	1	1	24MO	0	1	3.40779590607	None	None	None	None	1
1.7	2015_Aug_05_1557	s	s	19	2	SIC	403	RC	2	2	23VD	1	0	0.418016195297	335.0	-43.0	337	-51	1
1.7	2015_Aug_05_1557	s	s	19	2	SIC	404	ABS	1	0	24MC	0	1	5.29611992836	None	None	None	None	1
1.7	2015_Aug_05_1557	s	s	19	2	SIC	405	RC	1	1	23MO	1	0	0.811491012573	-351.0	27.0	-356	26	1
1.7	2015_Aug_05_1557	s	s	19	2	SIC	406	RC	0	2	23RD	1	0	0.446731090546	228.0	-119.0	231	-129	1
1.7	2015_Aug_05_1557	s	s	19	2	SIC	407	RC	2	1	23VO	1	0	0.458346843719	-319.0	204.0	-328	201	1
1.7	2015_Aug_05_1557	s	s	19	2	SIC	408	ABS	0	2	24RD	0	1	0.794983148575	None	None	None	None	1
1.7	2015_Aug_05_1557	s	s	19	2	SIC	409	ABS	2	1	24VO	0	1	0.5738530159	None	None	None	None	1
1.7	2015_Aug_05_1557	s	s	19	2	SIC	410	ABS	2	0	24VC	0	1	0.595070838928	None	None	None	None	1
1.7	2015_Aug_05_1557	s	s	19	2	SIC	411	ABS	1	2	24MD	0	1	0.72367811203	None	None	None	None	1
1.7	2015_Aug_05_1557	s	s	19	2	SIC	412	RC	1	2	23MD	1	0	0.576107025146	509.0	368.0	504	368	1
1.7	2015_Aug_05_1557	s	s	19	2	SIC	413	RC	0	1	23RO	0	1	4.03450584412	125.0	-101.0	None	None	0
1.7	2015_Aug_05_1557	s	s	19	2	SIC	414	ABS	2	2	24VD	0	1	0.559491872787	None	None	None	None	1
1.7	2015_Aug_05_1557	s	s	19	2	SIC	415	ABS	0	1	24RO	0	1	4.54284191132	None	None	None	None	1
1.7	2015_Aug_05_1557	s	s	19	2	SIC	416	RC	2	0	23VC	1	0	0.535710096359	47.0	-271.0	38	-265	1
1.7	2015_Aug_05_1557	s	s	19	2	SIC	417	ABS	0	1	24RO	0	1	5.09604597092	None	None	None	None	1
1.7	2015_Aug_05_1557	s	s	19	2	SIC	418	ABS	0	2	24RD	0	1	0.658510923386	None	None	None	None	1
1.7	2015_Aug_05_1557	s	s	19	2	SIC	419	ABS	1	0	24MC	0	1	3.40809488297	None	None	None	None	1
1.7	2015_Aug_05_1557	s	s	19	2	SIC	420	RC	2	1	23VO	1	0	0.644337892532	-26.0	15.0	-18	11	1
1.7	2015_Aug_05_1557	s	s	19	2	SIC	421	RC	1	1	23MO	1	0	1.6212451458	133.0	311.0	141	306	1
1.7	2015_Aug_05_1557	s	s	19	2	SIC	422	RC	1	2	23MD	1	0	0.458423852921	-54.0	168.0	-52	172	1
1.7	2015_Aug_05_1557	s	s	19	2	SIC	423	RC	2	0	23VC	1	0	0.595113039017	-316.0	-374.0	-314	-384	1
1.7	2015_Aug_05_1557	s	s	19	2	SIC	424	RC	1	0	23MC	1	0	1.94155287743	502.0	274.0	504	267	1
1.7	2015_Aug_05_1557	s	s	19	2	SIC	425	ABS	1	1	24MO	0	1	3.54231405258	None	None	None	None	1
1.7	2015_Aug_05_1557	s	s	19	2	SIC	426	RC	0	2	23RD	1	0	0.747720956802	46.0	356.0	47	360	1
1.7	2015_Aug_05_1557	s	s	19	2	SIC	427	RC	2	2	23VD	1	0	0.453472137451	-135.0	-98.0	-136	-94	1
1.7	2015_Aug_05_1557	s	s	19	2	SIC	428	RC	0	1	23RO	1	0	1.96230792999	-9.0	270.0	-4	270	1
1.7	2015_Aug_05_1557	s	s	19	2	SIC	429	ABS	2	2	24VD	0	1	0.571803092957	None	None	None	None	1
1.7	2015_Aug_05_1557	s	s	19	2	SIC	430	ABS	2	1	24VO	0	1	0.925758838654	None	None	None	None	1
1.7	2015_Aug_05_1557	s	s	19	2	SIC	431	ABS	2	0	24VC	0	1	0.576079130173	None	None	None	None	1
1.7	2015_Aug_05_1557	s	s	19	2	SIC	432	ABS	1	2	24MD	0	1	0.634985923767	None	None	None	None	1
1.7	2015_Aug_05_1557	s	s	19	2	SIC	433	RC	2	0	23VC	1	0	0.576182842255	-478.0	378.0	-473	378	1
1.7	2015_Aug_05_1557	s	s	19	2	SIC	434	ABS	1	0	24MC	0	1	3.92498397827	None	None	None	None	1
1.7	2015_Aug_05_1557	s	s	19	2	SIC	435	ABS	2	2	24VD	0	1	0.587879180908	None	None	None	None	1
1.7	2015_Aug_05_1557	s	s	19	2	SIC	436	ABS	0	1	24RO	0	1	4.48392486572	None	None	None	None	1
1.7	2015_Aug_05_1557	s	s	19	2	SIC	437	RC	0	2	23RD	1	0	0.535808086395	-408.0	235.0	-404	234	1
1.7	2015_Aug_05_1557	s	s	19	2	SIC	438	RC	0	1	23RO	1	0	2.14905691147	276.0	154.0	273	156	1
1.7	2015_Aug_05_1557	s	s	19	2	SIC	439	ABS	2	0	24VC	0	1	0.823248147964	None	None	None	None	1
1.7	2015_Aug_05_1557	s	s	19	2	SIC	440	RC	1	2	23MD	1	0	0.573650836945	228.0	-371.0	230	-371	1
1.7	2015_Aug_05_1557	s	s	19	2	SIC	441	ABS	1	1	24MO	0	1	3.18972682953	None	None	None	None	1
1.7	2015_Aug_05_1557	s	s	19	2	SIC	442	ABS	1	2	24MD	0	1	0.776206970215	None	None	None	None	1
1.7	2015_Aug_05_1557	s	s	19	2	SIC	443	ABS	2	1	24VO	0	1	0.576091051102	None	None	None	None	1
1.7	2015_Aug_05_1557	s	s	19	2	SIC	444	RC	2	2	23VD	1	0	0.394551992416	33.0	108.0	37	105	1
1.7	2015_Aug_05_1557	s	s	19	2	SIC	445	RC	1	1	23MO	1	0	0.944784164429	-523.0	-131.0	-529	-123	1
1.7	2015_Aug_05_1557	s	s	19	2	SIC	446	ABS	0	2	24RD	0	1	1.03293585777	None	None	None	None	1
1.7	2015_Aug_05_1557	s	s	19	2	SIC	447	RC	2	1	23VO	1	0	0.419467926025	245.0	119.0	248	124	1
1.7	2015_Aug_05_1557	s	s	19	2	SIC	448	RC	1	0	23MC	1	0	0.759464025497	144.0	242.0	139	241	1
1.7	2015_Aug_05_1557	s	s	19	2	SIC	449	RC	1	1	23MO	1	0	0.811501979828	163.0	279.0	159	278	1
1.7	2015_Aug_05_1557	s	s	19	2	SIC	450	ABS	2	1	24VO	0	1	0.547672986984	None	None	None	None	1
1.7	2015_Aug_05_1557	s	s	19	2	SIC	451	ABS	2	0	24VC	0	1	0.611436128616	None	None	None	None	1
1.7	2015_Aug_05_1557	s	s	19	2	SIC	452	RC	0	1	23RO	1	0	2.05447697639	521.0	112.0	523	112	1
1.7	2015_Aug_05_1557	s	s	19	2	SIC	453	ABS	0	1	24RO	0	1	3.47166991234	None	None	None	None	1
1.7	2015_Aug_05_1557	s	s	19	2	SIC	454	RC	2	2	23VD	1	0	0.429779052734	430.0	-203.0	437	-202	1
1.7	2015_Aug_05_1557	s	s	19	2	SIC	455	ABS	2	2	24VD	0	1	0.479691028595	None	None	None	None	1
1.7	2015_Aug_05_1557	s	s	19	2	SIC	456	ABS	1	1	24MO	0	1	3.1705520153	None	None	None	None	1
1.7	2015_Aug_05_1557	s	s	19	2	SIC	457	RC	1	0	23MC	1	0	2.38883900642	89.0	-260.0	90	-260	1
1.7	2015_Aug_05_1557	s	s	19	2	SIC	458	RC	1	2	23MD	1	0	0.465374946594	0.0	157.0	-6	162	1
1.7	2015_Aug_05_1557	s	s	19	2	SIC	459	ABS	1	0	24MC	0	1	2.84308505058	None	None	None	None	1
1.7	2015_Aug_05_1557	s	s	19	2	SIC	460	ABS	0	2	24RD	0	1	1.01870107651	None	None	None	None	1
1.7	2015_Aug_05_1557	s	s	19	2	SIC	461	RC	0	2	23RD	1	0	0.500473976135	-351.0	224.0	-350	227	1
1.7	2015_Aug_05_1557	s	s	19	2	SIC	462	ABS	1	2	24MD	0	1	0.599596977234	None	None	None	None	1
1.7	2015_Aug_05_1557	s	s	19	2	SIC	463	RC	2	0	23VC	1	0	0.470121860504	386.0	-281.0	373	-278	1
1.7	2015_Aug_05_1557	s	s	19	2	SIC	464	RC	2	1	23VO	1	0	0.488851070404	-250.0	384.0	-247	377	1
1.7	2015_Aug_05_1557	s	s	19	2	SIC	465	ABS	0	1	24RO	0	1	4.13083100319	None	None	None	None	1
1.7	2015_Aug_05_1557	s	s	19	2	SIC	466	RC	1	1	23MO	1	0	0.994077920914	-506.0	41.0	-503	38	1
1.7	2015_Aug_05_1557	s	s	19	2	SIC	467	RC	2	2	23VD	1	0	0.430019140244	117.0	245.0	102	254	1
1.7	2015_Aug_05_1557	s	s	19	2	SIC	468	ABS	0	2	24RD	0	1	0.924288988113	None	None	None	None	1
1.7	2015_Aug_05_1557	s	s	19	2	SIC	469	RC	2	1	23VO	1	0	0.453806877136	-464.0	337.0	-455	333	1
1.7	2015_Aug_05_1557	s	s	19	2	SIC	470	ABS	1	0	24MC	0	1	2.77210879326	None	None	None	None	1
1.7	2015_Aug_05_1557	s	s	19	2	SIC	471	ABS	2	0	24VC	0	1	0.611397027969	None	None	None	None	1
1.7	2015_Aug_05_1557	s	s	19	2	SIC	472	ABS	1	1	24MO	0	1	2.9956600666	None	None	None	None	1
1.7	2015_Aug_05_1557	s	s	19	2	SIC	473	ABS	1	2	24MD	0	1	0.665700912476	None	None	None	None	1
1.7	2015_Aug_05_1557	s	s	19	2	SIC	474	RC	1	2	23MD	1	0	0.458456039429	-172.0	174.0	-164	168	1
1.7	2015_Aug_05_1557	s	s	19	2	SIC	475	RC	2	0	23VC	1	0	0.415014028549	-223.0	67.0	-223	67	1
1.7	2015_Aug_05_1557	s	s	19	2	SIC	476	RC	0	1	23RO	1	0	0.882212877274	145.0	-47.0	149	-44	1
1.7	2015_Aug_05_1557	s	s	19	2	SIC	477	RC	1	0	23MC	0	1	7.93970394135	434.0	-170.0	None	None	0
1.7	2015_Aug_05_1557	s	s	19	2	SIC	478	ABS	2	1	24VO	0	1	0.717326879501	None	None	None	None	1
1.7	2015_Aug_05_1557	s	s	19	2	SIC	479	ABS	2	2	24VD	0	1	0.729152917862	None	None	None	None	1
1.7	2015_Aug_05_1557	s	s	19	2	SIC	480	RC	0	2	23RD	1	0	0.556291103363	12.0	-261.0	11	-262	1
1.7	2015_Aug_05_1557	s	s	19	2	SIC	481	RC	1	2	23MD	1	0	0.729107141495	155.0	-371.0	152	-368	1
1.7	2015_Aug_05_1557	s	s	19	2	SIC	482	ABS	2	0	24VC	0	1	0.536301136017	None	None	None	None	1
1.7	2015_Aug_05_1557	s	s	19	2	SIC	483	ABS	2	1	24VO	0	1	0.517279148102	None	None	None	None	1
1.7	2015_Aug_05_1557	s	s	19	2	SIC	484	RC	0	1	23RO	1	0	3.33930015564	-146.0	-72.0	-146	-77	1
1.7	2015_Aug_05_1557	s	s	19	2	SIC	485	RC	2	2	23VD	1	0	0.430351018906	410.0	167.0	403	175	1
1.7	2015_Aug_05_1557	s	s	19	2	SIC	486	RC	1	0	23MC	0	1	3.97329902649	-430.0	-129.0	None	None	0
1.7	2015_Aug_05_1557	s	s	19	2	SIC	487	ABS	0	2	24RD	0	1	0.576056003571	None	None	None	None	1
1.7	2015_Aug_05_1557	s	s	19	2	SIC	488	RC	2	1	23VO	1	0	0.458530187607	252.0	-257.0	258	-259	1
1.7	2015_Aug_05_1557	s	s	19	2	SIC	489	ABS	1	1	24MO	0	1	3.20101094246	None	None	None	None	1
1.7	2015_Aug_05_1557	s	s	19	2	SIC	490	ABS	1	2	24MD	0	1	0.855317831039	None	None	None	None	1
1.7	2015_Aug_05_1557	s	s	19	2	SIC	491	ABS	2	2	24VD	0	1	0.611352920532	None	None	None	None	1
1.7	2015_Aug_05_1557	s	s	19	2	SIC	492	RC	2	0	23VC	1	0	1.23524093628	-493.0	193.0	-492	191	1
1.7	2015_Aug_05_1557	s	s	19	2	SIC	493	ABS	0	1	24RO	0	1	4.69277191162	None	None	None	None	1
1.7	2015_Aug_05_1557	s	s	19	2	SIC	494	RC	0	2	23RD	1	0	0.481920003891	358.0	45.0	360	38	1
1.7	2015_Aug_05_1557	s	s	19	2	SIC	495	RC	1	1	23MO	1	0	3.47158193588	54.0	260.0	53	266	1
1.7	2015_Aug_05_1557	s	s	19	2	SIC	496	ABS	1	0	24MC	0	1	4.30241394043	None	None	None	None	1
1.7	2015_Aug_05_1557	s	s	19	2	SIC	497	RC	1	2	23MD	1	0	0.465551137924	460.0	42.0	465	31	1
1.7	2015_Aug_05_1557	s	s	19	2	SIC	498	RC	2	0	23VC	1	0	0.42991900444	415.0	74.0	418	73	1
1.7	2015_Aug_05_1557	s	s	19	2	SIC	499	ABS	0	1	24RO	0	1	3.96613192558	None	None	None	None	1
1.7	2015_Aug_05_1557	s	s	19	2	SIC	500	ABS	1	2	24MD	0	1	0.564289093018	None	None	None	None	1
1.7	2015_Aug_05_1557	s	s	19	2	SIC	501	RC	2	1	23VO	1	0	0.423346996307	-41.0	-315.0	-36	-314	1
1.7	2015_Aug_05_1557	s	s	19	2	SIC	502	ABS	2	1	24VO	0	1	0.693732976913	None	None	None	None	1
1.7	2015_Aug_05_1557	s	s	19	2	SIC	503	RC	1	1	23MO	1	0	1.28912401199	-278.0	-343.0	-281	-349	1
1.7	2015_Aug_05_1557	s	s	19	2	SIC	504	ABS	1	1	24MO	0	1	3.30145406723	None	None	None	None	1
1.7	2015_Aug_05_1557	s	s	19	2	SIC	505	RC	0	2	23RD	1	0	0.606501817703	-109.0	390.0	-110	397	1
1.7	2015_Aug_05_1557	s	s	19	2	SIC	506	RC	0	1	23RO	1	0	1.12932682037	235.0	-107.0	229	-106	1
1.7	2015_Aug_05_1557	s	s	19	2	SIC	507	ABS	1	0	24MC	0	1	3.62460708618	None	None	None	None	1
1.7	2015_Aug_05_1557	s	s	19	2	SIC	508	RC	2	2	23VD	1	0	0.429621934891	-102.0	181.0	-110	177	1
1.7	2015_Aug_05_1557	s	s	19	2	SIC	509	ABS	0	2	24RD	0	1	0.611450910568	None	None	None	None	1
1.7	2015_Aug_05_1557	s	s	19	2	SIC	510	ABS	2	0	24VC	0	1	0.735837936401	None	None	None	None	1
1.7	2015_Aug_05_1557	s	s	19	2	SIC	511	RC	1	0	23MC	0	1	2.56036090851	92.0	350.0	None	None	0
1.7	2015_Aug_05_1557	s	s	19	2	SIC	512	ABS	2	2	24VD	0	1	0.576122999191	None	None	None	None	1
1.7	2015_Aug_05_1557	s	s	19	2	SIC	513	RC	1	0	23MC	0	1	4.00125288963	-188.0	279.0	None	None	0
1.7	2015_Aug_05_1557	s	s	19	2	SIC	514	ABS	1	2	24MD	0	1	0.559312105179	None	None	None	None	1
1.7	2015_Aug_05_1557	s	s	19	2	SIC	515	ABS	1	1	24MO	0	1	3.36088991165	None	None	None	None	1
1.7	2015_Aug_05_1557	s	s	19	2	SIC	516	ABS	1	0	24MC	0	1	3.80137419701	None	None	None	None	1
1.7	2015_Aug_05_1557	s	s	19	2	SIC	517	RC	0	2	23RD	1	0	1.34125614166	-117.0	382.0	-122	388	1
1.7	2015_Aug_05_1557	s	s	19	2	SIC	518	RC	2	0	23VC	1	0	0.434890985489	-124.0	-322.0	-124	-319	1
1.7	2015_Aug_05_1557	s	s	19	2	SIC	519	RC	2	2	23VD	1	0	0.395704030991	321.0	-52.0	327	-60	1
1.7	2015_Aug_05_1557	s	s	19	2	SIC	520	ABS	0	2	24RD	0	1	0.840487957001	None	None	None	None	1
1.7	2015_Aug_05_1557	s	s	19	2	SIC	521	RC	1	2	23MD	1	0	0.500595092773	-63.0	-126.0	-74	-124	1
1.7	2015_Aug_05_1557	s	s	19	2	SIC	522	RC	0	1	23RO	1	0	1.61595702171	-528.0	374.0	-530	377	1
1.7	2015_Aug_05_1557	s	s	19	2	SIC	523	ABS	0	1	24RO	0	1	3.76112008095	None	None	None	None	1
1.7	2015_Aug_05_1557	s	s	19	2	SIC	524	ABS	2	1	24VO	0	1	0.535748958588	None	None	None	None	1
1.7	2015_Aug_05_1557	s	s	19	2	SIC	525	RC	2	1	23VO	1	0	0.470192193985	328.0	397.0	324	395	1
1.7	2015_Aug_05_1557	s	s	19	2	SIC	526	ABS	2	0	24VC	0	1	0.564349889755	None	None	None	None	1
1.7	2015_Aug_05_1557	s	s	19	2	SIC	527	RC	1	1	23MO	1	0	2.43268704414	-401.0	-346.0	-396	-340	1
1.7	2015_Aug_05_1557	s	s	19	2	SIC	528	ABS	2	2	24VD	0	1	0.45358300209	None	None	None	None	1
1.7	2015_Aug_05_1557	s	s	19	2	SIC	529	RC	1	1	23MO	1	0	0.723391771317	-67.0	127.0	-75	131	1
1.7	2015_Aug_05_1557	s	s	19	2	SIC	530	ABS	2	0	24VC	0	1	0.477082014084	None	None	None	None	1
1.7	2015_Aug_05_1557	s	s	19	2	SIC	531	ABS	1	1	24MO	0	1	2.9010591507	None	None	None	None	1
1.7	2015_Aug_05_1557	s	s	19	2	SIC	532	ABS	1	2	24MD	0	1	0.477231025696	None	None	None	None	1
1.7	2015_Aug_05_1557	s	s	19	2	SIC	533	RC	2	0	23VC	1	0	0.443300962448	92.0	8.0	92	9	1
1.7	2015_Aug_05_1557	s	s	19	2	SIC	534	ABS	2	2	24VD	0	1	0.423047780991	None	None	None	None	1
1.7	2015_Aug_05_1557	s	s	19	2	SIC	535	ABS	1	0	24MC	0	1	3.57758593559	None	None	None	None	1
1.7	2015_Aug_05_1557	s	s	19	2	SIC	536	ABS	0	2	24RD	0	1	0.502672195435	None	None	None	None	1
1.7	2015_Aug_05_1557	s	s	19	2	SIC	537	RC	1	2	23MD	1	0	0.50250005722	-71.0	-380.0	-69	-378	1
1.7	2015_Aug_05_1557	s	s	19	2	SIC	538	RC	0	1	23RO	1	0	1.0233399868	191.0	-137.0	185	-140	1
1.7	2015_Aug_05_1557	s	s	19	2	SIC	539	RC	2	2	23VD	1	0	0.423132896423	347.0	-13.0	341	-4	1
1.7	2015_Aug_05_1557	s	s	19	2	SIC	540	RC	2	1	23VO	1	0	0.552516937256	-498.0	-253.0	-504	-248	1
1.7	2015_Aug_05_1557	s	s	19	2	SIC	541	ABS	2	1	24VO	0	1	0.517144918442	None	None	None	None	1
1.7	2015_Aug_05_1557	s	s	19	2	SIC	542	RC	1	0	23MC	1	0	1.51548695564	418.0	-270.0	420	-273	1
1.7	2015_Aug_05_1557	s	s	19	2	SIC	543	RC	0	2	23RD	1	0	0.42316198349	-218.0	-128.0	-224	-130	1
1.7	2015_Aug_05_1557	s	s	19	2	SIC	544	ABS	0	1	24RO	0	1	3.93752813339	None	None	None	None	1
1.7	2015_Aug_05_1557	s	s	19	2	SIC	545	ABS	1	0	24MC	0	1	3.70191907883	None	None	None	None	1
1.7	2015_Aug_05_1557	s	s	19	2	SIC	546	RC	0	2	23RD	1	0	0.46658205986	-179.0	-292.0	-181	-287	1
1.7	2015_Aug_05_1557	s	s	19	2	SIC	547	RC	1	0	23MC	1	0	5.4373588562	-315.0	-197.0	-316	-200	1
1.7	2015_Aug_05_1557	s	s	19	2	SIC	548	RC	0	1	23RO	1	0	1.62406396866	-61.0	328.0	-60	326	1
1.7	2015_Aug_05_1557	s	s	19	2	SIC	549	RC	1	2	23MD	1	0	0.418322086334	-208.0	-88.0	-214	-83	1
1.7	2015_Aug_05_1557	s	s	19	2	SIC	550	ABS	2	1	24VO	0	1	0.585119009018	None	None	None	None	1
1.7	2015_Aug_05_1557	s	s	19	2	SIC	551	RC	2	2	23VD	1	0	0.488811016083	-264.0	385.0	-263	388	1
1.7	2015_Aug_05_1557	s	s	19	2	SIC	552	ABS	2	0	24VC	0	1	0.466063976288	None	None	None	None	1
1.7	2015_Aug_05_1557	s	s	19	2	SIC	553	RC	1	1	23MO	1	0	1.3058681488	520.0	64.0	529	62	1
1.7	2015_Aug_05_1557	s	s	19	2	SIC	554	ABS	0	2	24RD	0	1	0.585494041443	None	None	None	None	1
1.7	2015_Aug_05_1557	s	s	19	2	SIC	555	RC	2	1	23VO	1	0	0.417861938477	-254.0	-271.0	-251	-271	1
1.7	2015_Aug_05_1557	s	s	19	2	SIC	556	RC	2	0	23VC	1	0	0.441781997681	59.0	5.0	51	1	1
1.7	2015_Aug_05_1557	s	s	19	2	SIC	557	ABS	1	1	24MO	0	1	3.51877307892	None	None	None	None	1
1.7	2015_Aug_05_1557	s	s	19	2	SIC	558	ABS	1	2	24MD	0	1	0.579873085022	None	None	None	None	1
1.7	2015_Aug_05_1557	s	s	19	2	SIC	559	ABS	0	1	24RO	0	1	4.18471479416	None	None	None	None	1
1.7	2015_Aug_05_1557	s	s	19	2	SIC	560	ABS	2	2	24VD	0	1	0.71219420433	None	None	None	None	1
1.7	2015_Aug_05_1557	s	s	19	2	SIC	561	RC	1	0	23MC	1	0	2.11807894707	159.0	-236.0	156	-236	1
1.7	2015_Aug_05_1557	s	s	19	2	SIC	562	RC	0	1	23RO	0	1	3.41950201988	524.0	198.0	None	None	0
1.7	2015_Aug_05_1557	s	s	19	2	SIC	563	ABS	0	1	24RO	0	1	4.0367231369	None	None	None	None	1
1.7	2015_Aug_05_1557	s	s	19	2	SIC	564	RC	2	1	23VO	1	0	0.517227888107	327.0	-49.0	331	-51	1
1.7	2015_Aug_05_1557	s	s	19	2	SIC	565	RC	2	2	23VD	0	1	0.370671033859	511.0	137.0	None	None	0
1.7	2015_Aug_05_1557	s	s	19	2	SIC	566	RC	1	1	23MO	1	0	0.571185112	370.0	63.0	374	62	1
1.7	2015_Aug_05_1557	s	s	19	2	SIC	567	ABS	1	1	24MO	0	1	3.15386199951	None	None	None	None	1
1.7	2015_Aug_05_1557	s	s	19	2	SIC	568	ABS	1	0	24MC	0	1	3.81300497055	None	None	None	None	1
1.7	2015_Aug_05_1557	s	s	19	2	SIC	569	RC	2	0	23VC	1	0	0.46674990654	396.0	62.0	392	62	1
1.7	2015_Aug_05_1557	s	s	19	2	SIC	570	ABS	2	0	24VC	0	1	0.70076417923	None	None	None	None	1
1.7	2015_Aug_05_1557	s	s	19	2	SIC	571	ABS	0	2	24RD	0	1	0.57039809227	None	None	None	None	1
1.7	2015_Aug_05_1557	s	s	19	2	SIC	572	ABS	1	2	24MD	0	1	0.540980100632	None	None	None	None	1
1.7	2015_Aug_05_1557	s	s	19	2	SIC	573	RC	0	2	23RD	1	0	0.646742105484	126.0	383.0	125	386	1
1.7	2015_Aug_05_1557	s	s	19	2	SIC	574	ABS	2	2	24VD	0	1	0.429909229279	None	None	None	None	1
1.7	2015_Aug_05_1557	s	s	19	2	SIC	575	RC	1	2	23MD	1	0	0.576100826263	-220.0	231.0	-218	227	1
1.7	2015_Aug_05_1557	s	s	19	2	SIC	576	ABS	2	1	24VO	0	1	0.454983949661	None	None	None	None	1
1.7	2015_Aug_05_1557	s	s	19	2	SIC	577	RC	1	2	23MD	1	0	0.481976032257	122.0	-159.0	128	-160	1
1.7	2015_Aug_05_1557	s	s	19	2	SIC	578	RC	2	1	23VO	0	1	0.470124959946	-146.0	-306.0	None	None	0
1.7	2015_Aug_05_1557	s	s	19	2	SIC	579	RC	2	2	23VD	1	0	0.499994039536	-372.0	138.0	-372	148	1
1.7	2015_Aug_05_1557	s	s	19	2	SIC	580	ABS	2	0	24VC	0	1	0.594788074493	None	None	None	None	1
1.7	2015_Aug_05_1557	s	s	19	2	SIC	581	RC	0	2	23RD	1	0	0.430557012558	-304.0	-168.0	-310	-173	1
1.7	2015_Aug_05_1557	s	s	19	2	SIC	582	ABS	1	1	24MO	0	1	3.40796589851	None	None	None	None	1
1.7	2015_Aug_05_1557	s	s	19	2	SIC	583	ABS	2	1	24VO	0	1	0.77623295784	None	None	None	None	1
1.7	2015_Aug_05_1557	s	s	19	2	SIC	584	ABS	1	2	24MD	0	1	0.841986894608	None	None	None	None	1
1.7	2015_Aug_05_1557	s	s	19	2	SIC	585	ABS	0	1	24RO	0	1	4.99045681953	None	None	None	None	1
1.7	2015_Aug_05_1557	s	s	19	2	SIC	586	ABS	0	2	24RD	0	1	0.700538158417	None	None	None	None	1
1.7	2015_Aug_05_1557	s	s	19	2	SIC	587	RC	1	1	23MO	1	0	1.35297584534	85.0	175.0	81	179	1
1.7	2015_Aug_05_1557	s	s	19	2	SIC	588	ABS	1	0	24MC	0	1	3.64823698997	None	None	None	None	1
1.7	2015_Aug_05_1557	s	s	19	2	SIC	589	RC	1	0	23MC	0	1	5.62032389641	-400.0	-336.0	None	None	0
1.7	2015_Aug_05_1557	s	s	19	2	SIC	590	ABS	2	2	24VD	0	1	0.8410820961	None	None	None	None	1
1.7	2015_Aug_05_1557	s	s	19	2	SIC	591	RC	2	0	23VC	1	0	0.73860001564	-508.0	-174.0	-503	-170	1
1.7	2015_Aug_05_1557	s	s	19	2	SIC	592	RC	0	1	23RO	1	0	2.67799496651	87.0	-169.0	79	-166	1
