Version	Date	Stimuli	Method	Subject	Session	Condition	Trial	Target	Channel1	Channel2	Distractors	LMouseButton	RMouseButton	RT	TargetX	TargetY	ResponseX	ResponseY	Correct
1.7	2015_Aug_07_1607	s	s	19	4	Capacity	1	RC	0	1	23RO	1	0	3.35999703407	338.0	-50.0	338	-46	1
1.7	2015_Aug_07_1607	s	s	19	4	Capacity	2	ABS	0	2	24RD	0	1	1.6001470089	None	None	None	None	1
1.7	2015_Aug_07_1607	s	s	19	4	Capacity	3	RC	0	2	23RD	1	0	0.576565980911	-401.0	-118.0	-409	-115	1
1.7	2015_Aug_07_1607	s	s	19	4	Capacity	4	ABS	0	1	24RO	0	1	4.56102395058	None	None	None	None	1
1.7	2015_Aug_07_1607	s	s	19	4	Capacity	5	RC	0	1	23RO	1	0	1.27055883408	76.0	275.0	68	272	1
1.7	2015_Aug_07_1607	s	s	19	4	Capacity	6	RC	0	2	23RD	1	0	0.641462087631	488.0	193.0	484	198	1
1.7	2015_Aug_07_1607	s	s	19	4	Capacity	7	ABS	0	1	24RO	0	1	4.93119692802	None	None	None	None	1
1.7	2015_Aug_07_1607	s	s	19	4	Capacity	8	ABS	0	2	24RD	0	1	1.28238105774	None	None	None	None	1
1.7	2015_Aug_07_1607	s	s	19	4	Capacity	9	RC	0	2	23RD	1	0	0.535958051682	341.0	160.0	346	162	1
1.7	2015_Aug_07_1607	s	s	19	4	Capacity	10	ABS	0	1	24RO	0	1	4.78550505638	None	None	None	None	1
1.7	2015_Aug_07_1607	s	s	19	4	Capacity	11	ABS	0	2	24RD	0	1	0.658065080643	None	None	None	None	1
1.7	2015_Aug_07_1607	s	s	19	4	Capacity	12	RC	0	1	23RO	1	0	1.02339601517	-50.0	69.0	-45	63	1
1.7	2015_Aug_07_1607	s	s	19	4	Capacity	13	RC	0	1	23RO	0	1	4.97411513329	-476.0	110.0	None	None	0
1.7	2015_Aug_07_1607	s	s	19	4	Capacity	14	RC	0	2	23RD	1	0	0.513245105743	-61.0	11.0	-49	14	1
1.7	2015_Aug_07_1607	s	s	19	4	Capacity	15	ABS	0	1	24RO	0	1	5.22546386719	None	None	None	None	1
1.7	2015_Aug_07_1607	s	s	19	4	Capacity	16	ABS	0	2	24RD	0	1	0.740955114365	None	None	None	None	1
1.7	2015_Aug_07_1607	s	s	19	4	Capacity	17	ABS	0	2	24RD	0	1	1.3330950737	None	None	None	None	1
1.7	2015_Aug_07_1607	s	s	19	4	Capacity	18	ABS	0	1	24RO	0	1	5.4608168602	None	None	None	None	1
1.7	2015_Aug_07_1607	s	s	19	4	Capacity	19	RC	0	1	23RO	1	0	3.73072981834	137.0	-361.0	135	-364	1
1.7	2015_Aug_07_1607	s	s	19	4	Capacity	20	RC	0	2	23RD	1	0	0.626869916916	-16.0	-221.0	-10	-225	1
1.7	2015_Aug_07_1607	s	s	19	4	Capacity	21	ABS	0	1	24RO	0	1	5.2206568718	None	None	None	None	1
1.7	2015_Aug_07_1607	s	s	19	4	Capacity	22	RC	0	1	23RO	1	0	3.248057127	27.0	167.0	30	163	1
1.7	2015_Aug_07_1607	s	s	19	4	Capacity	23	RC	0	2	23RD	1	0	0.804354906082	208.0	263.0	203	266	1
1.7	2015_Aug_07_1607	s	s	19	4	Capacity	24	ABS	0	2	24RD	0	1	1.33783578873	None	None	None	None	1
1.7	2015_Aug_07_1607	s	s	19	4	Capacity	25	RC	0	1	23RO	1	0	4.38502788544	161.0	71.0	155	64	1
1.7	2015_Aug_07_1607	s	s	19	4	Capacity	26	ABS	0	1	24RO	0	1	4.57305788994	None	None	None	None	1
1.7	2015_Aug_07_1607	s	s	19	4	Capacity	27	RC	0	2	23RD	1	0	0.576076984406	64.0	201.0	68	209	1
1.7	2015_Aug_07_1607	s	s	19	4	Capacity	28	ABS	0	2	24RD	0	1	1.25885081291	None	None	None	None	1
1.7	2015_Aug_07_1607	s	s	19	4	Capacity	29	RC	0	2	23RD	1	0	0.500707149506	142.0	5.0	147	0	1
1.7	2015_Aug_07_1607	s	s	19	4	Capacity	30	ABS	0	2	24RD	0	1	1.05589604378	None	None	None	None	1
1.7	2015_Aug_07_1607	s	s	19	4	Capacity	31	ABS	0	1	24RO	0	1	5.40245199203	None	None	None	None	1
1.7	2015_Aug_07_1607	s	s	19	4	Capacity	32	RC	0	1	23RO	1	0	1.60715293884	-433.0	352.0	-432	355	1
1.7	2015_Aug_07_1607	s	s	19	4	Capacity	33	ABS	0	1	24RO	0	1	4.62528705597	None	None	None	None	1
1.7	2015_Aug_07_1607	s	s	19	4	Capacity	34	RC	0	1	23RO	1	0	4.95488882065	386.0	322.0	385	323	1
1.7	2015_Aug_07_1607	s	s	19	4	Capacity	35	ABS	0	2	24RD	0	1	1.14095902443	None	None	None	None	1
1.7	2015_Aug_07_1607	s	s	19	4	Capacity	36	RC	0	2	23RD	1	0	0.535607099533	-43.0	-159.0	-37	-163	1
1.7	2015_Aug_07_1607	s	s	19	4	Capacity	37	ABS	0	2	24RD	0	1	0.740851163864	None	None	None	None	1
1.7	2015_Aug_07_1607	s	s	19	4	Capacity	38	RC	0	2	23RD	1	0	0.653671979904	534.0	-103.0	540	-103	1
1.7	2015_Aug_07_1607	s	s	19	4	Capacity	39	RC	0	1	23RO	1	0	0.752696037292	-23.0	-40.0	-18	-37	1
1.7	2015_Aug_07_1607	s	s	19	4	Capacity	40	ABS	0	1	24RO	0	1	5.6797349453	None	None	None	None	1
1.7	2015_Aug_07_1607	s	s	19	4	Capacity	41	RC	0	1	23RO	1	0	2.8310918808	-80.0	218.0	-78	216	1
1.7	2015_Aug_07_1607	s	s	19	4	Capacity	42	RC	0	2	23RD	1	0	0.500683069229	-134.0	-202.0	-132	-202	1
1.7	2015_Aug_07_1607	s	s	19	4	Capacity	43	ABS	0	1	24RO	0	1	4.48394012451	None	None	None	None	1
1.7	2015_Aug_07_1607	s	s	19	4	Capacity	44	ABS	0	2	24RD	0	1	0.829908847809	None	None	None	None	1
1.7	2015_Aug_07_1607	s	s	19	4	Capacity	45	RC	0	1	23RO	1	0	4.14256000519	185.0	205.0	187	203	1
1.7	2015_Aug_07_1607	s	s	19	4	Capacity	46	RC	0	2	23RD	1	0	0.615051984787	3.0	-386.0	10	-391	1
1.7	2015_Aug_07_1607	s	s	19	4	Capacity	47	ABS	0	1	24RO	0	1	5.56675004959	None	None	None	None	1
1.7	2015_Aug_07_1607	s	s	19	4	Capacity	48	ABS	0	2	24RD	0	1	0.701819896698	None	None	None	None	1
1.7	2015_Aug_07_1607	s	s	19	4	Capacity	49	ABS	0	2	24RD	0	1	0.617494106293	None	None	None	None	1
1.7	2015_Aug_07_1607	s	s	19	4	Capacity	50	RC	0	1	23RO	0	1	4.57809495926	-393.0	-340.0	None	None	0
1.7	2015_Aug_07_1607	s	s	19	4	Capacity	51	ABS	0	1	24RO	0	1	5.06665897369	None	None	None	None	1
1.7	2015_Aug_07_1607	s	s	19	4	Capacity	52	RC	0	2	23RD	1	0	0.738386869431	367.0	-97.0	376	-100	1
1.7	2015_Aug_07_1607	s	s	19	4	Capacity	53	ABS	0	2	24RD	0	1	0.823297977448	None	None	None	None	1
1.7	2015_Aug_07_1607	s	s	19	4	Capacity	54	RC	0	1	23RO	1	0	1.72955298424	-289.0	-105.0	-290	-102	1
1.7	2015_Aug_07_1607	s	s	19	4	Capacity	55	RC	0	2	23RD	1	0	0.48909497261	86.0	307.0	88	305	1
1.7	2015_Aug_07_1607	s	s	19	4	Capacity	56	ABS	0	1	24RO	0	1	3.94253492355	None	None	None	None	1
1.7	2015_Aug_07_1607	s	s	19	4	Capacity	57	RC	0	2	23RD	1	0	0.529067993164	-31.0	-246.0	-28	-238	1
1.7	2015_Aug_07_1607	s	s	19	4	Capacity	58	ABS	0	1	24RO	0	1	4.44860506058	None	None	None	None	1
1.7	2015_Aug_07_1607	s	s	19	4	Capacity	59	RC	0	1	23RO	0	1	5.06485700607	411.0	360.0	None	None	0
1.7	2015_Aug_07_1607	s	s	19	4	Capacity	60	ABS	0	2	24RD	0	1	0.67741894722	None	None	None	None	1
1.7	2015_Aug_07_1607	s	s	19	4	Capacity	61	ABS	0	1	24RO	0	1	5.62941193581	None	None	None	None	1
1.7	2015_Aug_07_1607	s	s	19	4	Capacity	62	ABS	0	2	24RD	0	1	0.570906877518	None	None	None	None	1
1.7	2015_Aug_07_1607	s	s	19	4	Capacity	63	RC	0	2	23RD	1	0	0.535372972488	-272.0	287.0	-274	294	1
1.7	2015_Aug_07_1607	s	s	19	4	Capacity	64	RC	0	1	23RO	1	0	3.78348684311	152.0	46.0	141	47	1
1.7	2015_Aug_07_1607	s	s	19	4	Capacity	65	ABS	0	1	24RO	0	1	5.49139213562	None	None	None	None	1
1.7	2015_Aug_07_1607	s	s	19	4	Capacity	66	RC	0	1	23RO	1	0	5.63238382339	-525.0	401.0	-526	402	1
1.7	2015_Aug_07_1607	s	s	19	4	Capacity	67	ABS	0	2	24RD	0	1	0.576133966446	None	None	None	None	1
1.7	2015_Aug_07_1607	s	s	19	4	Capacity	68	RC	0	2	23RD	1	0	0.606021881104	-137.0	-378.0	-128	-379	1
1.7	2015_Aug_07_1607	s	s	19	4	Capacity	69	RC	0	1	23RO	1	0	4.56087899208	264.0	-287.0	274	-278	1
1.7	2015_Aug_07_1607	s	s	19	4	Capacity	70	RC	0	2	23RD	1	0	0.430979967117	-163.0	132.0	-166	135	1
1.7	2015_Aug_07_1607	s	s	19	4	Capacity	71	ABS	0	1	24RO	0	1	5.2672958374	None	None	None	None	1
1.7	2015_Aug_07_1607	s	s	19	4	Capacity	72	ABS	0	2	24RD	0	1	0.611512899399	None	None	None	None	1
1.7	2015_Aug_07_1607	s	s	19	4	Capacity	73	RC	0	2	23RD	1	0	0.608936071396	495.0	-354.0	499	-353	1
1.7	2015_Aug_07_1607	s	s	19	4	Capacity	74	ABS	0	2	24RD	0	1	0.752905845642	None	None	None	None	1
1.7	2015_Aug_07_1607	s	s	19	4	Capacity	75	ABS	0	1	24RO	0	1	4.50793600082	None	None	None	None	1
1.7	2015_Aug_07_1607	s	s	19	4	Capacity	76	RC	0	1	23RO	1	0	3.55408501625	-215.0	217.0	-214	211	1
1.7	2015_Aug_07_1607	s	s	19	4	Capacity	77	RC	0	1	23RO	1	0	1.72968316078	-394.0	159.0	-405	163	1
1.7	2015_Aug_07_1607	s	s	19	4	Capacity	78	RC	0	2	23RD	1	0	0.513969898224	100.0	54.0	106	49	1
1.7	2015_Aug_07_1607	s	s	19	4	Capacity	79	ABS	0	2	24RD	0	1	0.658626079559	None	None	None	None	1
1.7	2015_Aug_07_1607	s	s	19	4	Capacity	80	ABS	0	1	24RO	0	1	3.98148393631	None	None	None	None	1
1.7	2015_Aug_07_1607	s	s	19	4	Capacity	81	ABS	0	1	24RO	0	1	4.0430419445	None	None	None	None	1
1.7	2015_Aug_07_1607	s	s	19	4	Capacity	82	ABS	0	2	24RD	0	1	0.712224006653	None	None	None	None	1
1.7	2015_Aug_07_1607	s	s	19	4	Capacity	83	RC	0	1	23RO	1	0	2.27769589424	-82.0	-274.0	-69	-269	1
1.7	2015_Aug_07_1607	s	s	19	4	Capacity	84	RC	0	2	23RD	1	0	0.478528022766	-375.0	-370.0	-368	-377	1
1.7	2015_Aug_07_1607	s	s	19	4	Capacity	85	ABS	0	2	24RD	0	1	0.629997014999	None	None	None	None	1
1.7	2015_Aug_07_1607	s	s	19	4	Capacity	86	ABS	0	1	24RO	0	1	4.61337804794	None	None	None	None	1
1.7	2015_Aug_07_1607	s	s	19	4	Capacity	87	RC	0	1	23RO	1	0	3.34911298752	227.0	-141.0	226	-140	1
1.7	2015_Aug_07_1607	s	s	19	4	Capacity	88	RC	0	2	23RD	1	0	0.505484104156	-69.0	-244.0	-66	-236	1
1.7	2015_Aug_07_1607	s	s	19	4	Capacity	89	RC	0	1	23RO	1	0	4.4016251564	-525.0	48.0	-529	46	1
1.7	2015_Aug_07_1607	s	s	19	4	Capacity	90	RC	0	2	23RD	1	0	0.481962919235	-27.0	256.0	-32	257	1
1.7	2015_Aug_07_1607	s	s	19	4	Capacity	91	ABS	0	2	24RD	0	1	0.634985923767	None	None	None	None	1
1.7	2015_Aug_07_1607	s	s	19	4	Capacity	92	ABS	0	1	24RO	0	1	4.55459094048	None	None	None	None	1
1.7	2015_Aug_07_1607	s	s	19	4	Capacity	1	RC	1	0	23MC	1	0	1.74146795273	-517.0	-75.0	-513	-76	1
1.7	2015_Aug_07_1607	s	s	19	4	Capacity	2	ABS	1	0	24MC	0	1	2.11336803436	None	None	None	None	1
1.7	2015_Aug_07_1607	s	s	19	4	Capacity	3	ABS	2	0	24VC	0	1	0.547686100006	None	None	None	None	1
1.7	2015_Aug_07_1607	s	s	19	4	Capacity	4	RC	2	0	23VC	1	0	0.446666002274	-6.0	-2.0	2	5	1
1.7	2015_Aug_07_1607	s	s	19	4	Capacity	5	RC	1	0	23MC	1	0	1.09388899803	-317.0	-36.0	-316	-37	1
1.7	2015_Aug_07_1607	s	s	19	4	Capacity	6	RC	2	0	23VC	1	0	0.406202077866	-232.0	-114.0	-236	-120	1
1.7	2015_Aug_07_1607	s	s	19	4	Capacity	7	ABS	2	0	24VC	0	1	0.512310028076	None	None	None	None	1
1.7	2015_Aug_07_1607	s	s	19	4	Capacity	8	ABS	1	0	24MC	0	1	2.43110799789	None	None	None	None	1
1.7	2015_Aug_07_1607	s	s	19	4	Capacity	9	ABS	2	0	24VC	0	1	0.552618026733	None	None	None	None	1
1.7	2015_Aug_07_1607	s	s	19	4	Capacity	10	RC	2	0	23VC	1	0	0.441596984863	-295.0	310.0	-300	309	1
1.7	2015_Aug_07_1607	s	s	19	4	Capacity	11	RC	1	0	23MC	0	1	2.84196901321	268.0	-305.0	None	None	0
1.7	2015_Aug_07_1607	s	s	19	4	Capacity	12	ABS	1	0	24MC	0	1	1.97726798058	None	None	None	None	1
1.7	2015_Aug_07_1607	s	s	19	4	Capacity	13	ABS	1	0	24MC	0	1	3.09051609039	None	None	None	None	1
1.7	2015_Aug_07_1607	s	s	19	4	Capacity	14	ABS	2	0	24VC	0	1	0.512778043747	None	None	None	None	1
1.7	2015_Aug_07_1607	s	s	19	4	Capacity	15	RC	2	0	23VC	1	0	0.45392203331	-223.0	250.0	-221	252	1
1.7	2015_Aug_07_1607	s	s	19	4	Capacity	16	RC	1	0	23MC	1	0	1.03067493439	131.0	-263.0	127	-264	1
1.7	2015_Aug_07_1607	s	s	19	4	Capacity	17	ABS	2	0	24VC	0	1	0.423110961914	None	None	None	None	1
1.7	2015_Aug_07_1607	s	s	19	4	Capacity	18	RC	1	0	23MC	1	0	0.818302154541	-200.0	-36.0	-195	-29	1
1.7	2015_Aug_07_1607	s	s	19	4	Capacity	19	ABS	1	0	24MC	0	1	1.95327806473	None	None	None	None	1
1.7	2015_Aug_07_1607	s	s	19	4	Capacity	20	RC	2	0	23VC	1	0	0.476470947266	-312.0	-152.0	-305	-153	1
1.7	2015_Aug_07_1607	s	s	19	4	Capacity	21	ABS	2	0	24VC	0	1	0.500701904297	None	None	None	None	1
1.7	2015_Aug_07_1607	s	s	19	4	Capacity	22	RC	1	0	23MC	0	1	4.54935908318	-309.0	341.0	None	None	0
1.7	2015_Aug_07_1607	s	s	19	4	Capacity	23	ABS	1	0	24MC	0	1	3.33048605919	None	None	None	None	1
1.7	2015_Aug_07_1607	s	s	19	4	Capacity	24	RC	2	0	23VC	1	0	0.564366817474	83.0	43.0	78	41	1
1.7	2015_Aug_07_1607	s	s	19	4	Capacity	25	RC	1	0	23MC	0	1	3.66001009941	476.0	-104.0	None	None	0
1.7	2015_Aug_07_1607	s	s	19	4	Capacity	26	RC	2	0	23VC	1	0	0.434934139252	-396.0	-80.0	-389	-73	1
1.7	2015_Aug_07_1607	s	s	19	4	Capacity	27	ABS	2	0	24VC	0	1	0.603302001953	None	None	None	None	1
1.7	2015_Aug_07_1607	s	s	19	4	Capacity	28	ABS	1	0	24MC	0	1	3.58942508698	None	None	None	None	1
1.7	2015_Aug_07_1607	s	s	19	4	Capacity	29	ABS	2	0	24VC	0	1	0.470084905624	None	None	None	None	1
1.7	2015_Aug_07_1607	s	s	19	4	Capacity	30	ABS	1	0	24MC	0	1	3.66684389114	None	None	None	None	1
1.7	2015_Aug_07_1607	s	s	19	4	Capacity	31	RC	2	0	23VC	1	0	0.536668777466	85.0	-241.0	90	-235	1
1.7	2015_Aug_07_1607	s	s	19	4	Capacity	32	RC	1	0	23MC	1	0	1.08227610588	-96.0	109.0	-90	112	1
1.7	2015_Aug_07_1607	s	s	19	4	Capacity	33	RC	2	0	23VC	1	0	0.446635961533	-136.0	260.0	-131	255	1
1.7	2015_Aug_07_1607	s	s	19	4	Capacity	34	ABS	1	0	24MC	0	1	4.03187608719	None	None	None	None	1
1.7	2015_Aug_07_1607	s	s	19	4	Capacity	35	RC	1	0	23MC	0	1	2.92583203316	404.0	67.0	None	None	0
1.7	2015_Aug_07_1607	s	s	19	4	Capacity	36	ABS	2	0	24VC	0	1	0.540920972824	None	None	None	None	1
1.7	2015_Aug_07_1607	s	s	19	4	Capacity	37	RC	2	0	23VC	1	0	0.747581005096	367.0	-346.0	372	-343	1
1.7	2015_Aug_07_1607	s	s	19	4	Capacity	38	ABS	2	0	24VC	0	1	0.583685159683	None	None	None	None	1
1.7	2015_Aug_07_1607	s	s	19	4	Capacity	39	ABS	1	0	24MC	0	1	3.61962103844	None	None	None	None	1
1.7	2015_Aug_07_1607	s	s	19	4	Capacity	40	RC	1	0	23MC	1	0	1.37172007561	-318.0	-296.0	-317	-293	1
1.7	2015_Aug_07_1607	s	s	19	4	Capacity	41	RC	1	0	23MC	0	1	3.29891490936	534.0	68.0	None	None	0
1.7	2015_Aug_07_1607	s	s	19	4	Capacity	42	ABS	2	0	24VC	0	1	0.465189218521	None	None	None	None	1
1.7	2015_Aug_07_1607	s	s	19	4	Capacity	43	ABS	1	0	24MC	0	1	3.66644692421	None	None	None	None	1
1.7	2015_Aug_07_1607	s	s	19	4	Capacity	44	RC	2	0	23VC	1	0	0.458831071854	-120.0	110.0	-113	113	1
1.7	2015_Aug_07_1607	s	s	19	4	Capacity	45	ABS	1	0	24MC	0	1	3.43145799637	None	None	None	None	1
1.7	2015_Aug_07_1607	s	s	19	4	Capacity	46	ABS	2	0	24VC	0	1	0.465110063553	None	None	None	None	1
1.7	2015_Aug_07_1607	s	s	19	4	Capacity	47	RC	2	0	23VC	1	0	0.536547899246	531.0	330.0	530	334	1
1.7	2015_Aug_07_1607	s	s	19	4	Capacity	48	RC	1	0	23MC	0	1	3.95921278	426.0	-338.0	None	None	0
1.7	2015_Aug_07_1607	s	s	19	4	Capacity	49	RC	2	0	23VC	1	0	0.429805994034	-87.0	312.0	-88	312	1
1.7	2015_Aug_07_1607	s	s	19	4	Capacity	50	RC	1	0	23MC	1	0	1.32946014404	270.0	339.0	280	343	1
1.7	2015_Aug_07_1607	s	s	19	4	Capacity	51	ABS	1	0	24MC	0	1	2.3248591423	None	None	None	None	1
1.7	2015_Aug_07_1607	s	s	19	4	Capacity	52	ABS	2	0	24VC	0	1	0.488940954208	None	None	None	None	1
1.7	2015_Aug_07_1607	s	s	19	4	Capacity	53	RC	1	0	23MC	1	0	4.13082408905	406.0	-158.0	416	-160	1
1.7	2015_Aug_07_1607	s	s	19	4	Capacity	54	ABS	1	0	24MC	0	1	2.84491801262	None	None	None	None	1
1.7	2015_Aug_07_1607	s	s	19	4	Capacity	55	ABS	2	0	24VC	0	1	0.488394975662	None	None	None	None	1
1.7	2015_Aug_07_1607	s	s	19	4	Capacity	56	RC	2	0	23VC	1	0	0.458477973938	205.0	15.0	198	15	1
1.7	2015_Aug_07_1607	s	s	19	4	Capacity	57	RC	2	0	23VC	1	0	0.481969833374	156.0	400.0	153	407	1
1.7	2015_Aug_07_1607	s	s	19	4	Capacity	58	ABS	2	0	24VC	0	1	0.52407002449	None	None	None	None	1
1.7	2015_Aug_07_1607	s	s	19	4	Capacity	59	RC	1	0	23MC	1	0	3.77260994911	1.0	-363.0	-2	-360	1
1.7	2015_Aug_07_1607	s	s	19	4	Capacity	60	ABS	1	0	24MC	0	1	4.37286710739	None	None	None	None	1
1.7	2015_Aug_07_1607	s	s	19	4	Capacity	61	RC	1	0	23MC	1	0	3.3657310009	78.0	-173.0	70	-170	1
1.7	2015_Aug_07_1607	s	s	19	4	Capacity	62	ABS	1	0	24MC	0	1	5.01356697083	None	None	None	None	1
1.7	2015_Aug_07_1607	s	s	19	4	Capacity	63	RC	2	0	23VC	1	0	0.44668507576	157.0	221.0	149	220	1
1.7	2015_Aug_07_1607	s	s	19	4	Capacity	64	ABS	2	0	24VC	0	1	0.536294937134	None	None	None	None	1
1.7	2015_Aug_07_1607	s	s	19	4	Capacity	65	ABS	1	0	24MC	0	1	3.06910204887	None	None	None	None	1
1.7	2015_Aug_07_1607	s	s	19	4	Capacity	66	RC	1	0	23MC	1	0	1.93676590919	-11.0	256.0	-8	254	1
1.7	2015_Aug_07_1607	s	s	19	4	Capacity	67	RC	2	0	23VC	1	0	0.488704204559	33.0	359.0	36	358	1
1.7	2015_Aug_07_1607	s	s	19	4	Capacity	68	ABS	2	0	24VC	0	1	0.488686084747	None	None	None	None	1
1.7	2015_Aug_07_1607	s	s	19	4	Capacity	69	RC	1	0	23MC	1	0	4.77531790733	117.0	284.0	118	289	1
1.7	2015_Aug_07_1607	s	s	19	4	Capacity	70	ABS	1	0	24MC	0	1	2.59634900093	None	None	None	None	1
1.7	2015_Aug_07_1607	s	s	19	4	Capacity	71	ABS	2	0	24VC	0	1	0.500492095947	None	None	None	None	1
1.7	2015_Aug_07_1607	s	s	19	4	Capacity	72	RC	2	0	23VC	1	0	0.500846862793	264.0	385.0	270	386	1
1.7	2015_Aug_07_1607	s	s	19	4	Capacity	73	ABS	2	0	24VC	0	1	0.4703810215	None	None	None	None	1
1.7	2015_Aug_07_1607	s	s	19	4	Capacity	74	RC	1	0	23MC	0	1	4.70244908333	437.0	-243.0	None	None	0
1.7	2015_Aug_07_1607	s	s	19	4	Capacity	75	RC	2	0	23VC	1	0	0.564296007156	286.0	84.0	290	86	1
1.7	2015_Aug_07_1607	s	s	19	4	Capacity	76	ABS	1	0	24MC	0	1	2.97391891479	None	None	None	None	1
1.7	2015_Aug_07_1607	s	s	19	4	Capacity	77	RC	2	0	23VC	1	0	0.446550130844	380.0	343.0	385	351	1
1.7	2015_Aug_07_1607	s	s	19	4	Capacity	78	ABS	1	0	24MC	0	1	3.4128909111	None	None	None	None	1
1.7	2015_Aug_07_1607	s	s	19	4	Capacity	79	ABS	2	0	24VC	0	1	0.529013872147	None	None	None	None	1
1.7	2015_Aug_07_1607	s	s	19	4	Capacity	80	RC	1	0	23MC	0	1	5.16666007042	-386.0	410.0	None	None	0
1.7	2015_Aug_07_1607	s	s	19	4	Capacity	81	ABS	2	0	24VC	0	1	0.476890087128	None	None	None	None	1
1.7	2015_Aug_07_1607	s	s	19	4	Capacity	82	RC	2	0	23VC	1	0	0.441659927368	121.0	81.0	109	86	1
1.7	2015_Aug_07_1607	s	s	19	4	Capacity	83	ABS	1	0	24MC	0	1	4.17300605774	None	None	None	None	1
1.7	2015_Aug_07_1607	s	s	19	4	Capacity	84	RC	1	0	23MC	1	0	0.893882036209	445.0	163.0	451	170	1
1.7	2015_Aug_07_1607	s	s	19	4	Capacity	85	RC	2	0	23VC	1	0	0.434814929962	-158.0	276.0	-156	280	1
1.7	2015_Aug_07_1607	s	s	19	4	Capacity	86	RC	1	0	23MC	1	0	2.12981700897	-115.0	-222.0	-107	-223	1
1.7	2015_Aug_07_1607	s	s	19	4	Capacity	87	ABS	1	0	24MC	0	1	3.37264895439	None	None	None	None	1
1.7	2015_Aug_07_1607	s	s	19	4	Capacity	88	ABS	2	0	24VC	0	1	0.446977138519	None	None	None	None	1
1.7	2015_Aug_07_1607	s	s	19	4	Capacity	89	RC	2	0	23VC	1	0	0.423115968704	-461.0	-107.0	-455	-100	1
1.7	2015_Aug_07_1607	s	s	19	4	Capacity	90	RC	1	0	23MC	1	0	2.28022789955	300.0	38.0	301	41	1
1.7	2015_Aug_07_1607	s	s	19	4	Capacity	91	ABS	2	0	24VC	0	1	0.558604001999	None	None	None	None	1
1.7	2015_Aug_07_1607	s	s	19	4	Capacity	92	ABS	1	0	24MC	0	1	3.56046319008	None	None	None	None	1
1.7	2015_Aug_07_1607	s	s	19	4	SIC	1	RC	1	2	23MD	1	0	0.893973827362	-372.0	-63.0	-369	-73	1
1.7	2015_Aug_07_1607	s	s	19	4	SIC	2	ABS	1	0	24MC	0	1	2.31452322006	None	None	None	None	1
1.7	2015_Aug_07_1607	s	s	19	4	SIC	3	ABS	1	2	24MD	0	1	0.811376810074	None	None	None	None	1
1.7	2015_Aug_07_1607	s	s	19	4	SIC	4	ABS	1	1	24MO	0	1	3.8130209446	None	None	None	None	1
1.7	2015_Aug_07_1607	s	s	19	4	SIC	5	ABS	0	2	24RD	0	1	0.564403057098	None	None	None	None	1
1.7	2015_Aug_07_1607	s	s	19	4	SIC	6	RC	2	0	23VC	1	0	0.571182012558	343.0	-398.0	358	-389	1
1.7	2015_Aug_07_1607	s	s	19	4	SIC	7	RC	1	0	23MC	1	0	3.11353492737	122.0	-409.0	121	-414	1
1.7	2015_Aug_07_1607	s	s	19	4	SIC	8	RC	2	2	23VD	1	0	0.453785896301	293.0	-155.0	298	-162	1
1.7	2015_Aug_07_1607	s	s	19	4	SIC	9	ABS	2	2	24VD	0	1	0.587921142578	None	None	None	None	1
1.7	2015_Aug_07_1607	s	s	19	4	SIC	10	ABS	0	1	24RO	0	1	3.79315495491	None	None	None	None	1
1.7	2015_Aug_07_1607	s	s	19	4	SIC	11	RC	1	1	23MO	1	0	0.776209115982	404.0	311.0	400	310	1
1.7	2015_Aug_07_1607	s	s	19	4	SIC	12	RC	2	1	23VO	1	0	0.523741006851	-160.0	-383.0	-175	-377	1
1.7	2015_Aug_07_1607	s	s	19	4	SIC	13	ABS	2	0	24VC	0	1	0.477210044861	None	None	None	None	1
1.7	2015_Aug_07_1607	s	s	19	4	SIC	14	RC	0	1	23RO	0	1	5.51454091072	-111.0	204.0	None	None	0
1.7	2015_Aug_07_1607	s	s	19	4	SIC	15	ABS	2	1	24VO	1	0	0.493736982346	None	None	132	-7	0
1.7	2015_Aug_07_1607	s	s	19	4	SIC	16	RC	0	2	23RD	1	0	0.512324094772	-153.0	54.0	-158	54	1
1.7	2015_Aug_07_1607	s	s	19	4	SIC	17	RC	1	1	23MO	1	0	1.23531508446	318.0	-188.0	317	-185	1
1.7	2015_Aug_07_1607	s	s	19	4	SIC	18	RC	2	2	23VD	1	0	0.569625139236	-482.0	321.0	-484	320	1
1.7	2015_Aug_07_1607	s	s	19	4	SIC	19	ABS	1	2	24MD	0	1	0.799748897552	None	None	None	None	1
1.7	2015_Aug_07_1607	s	s	19	4	SIC	20	RC	0	1	23RO	1	0	1.51431798935	-518.0	147.0	-519	145	1
1.7	2015_Aug_07_1607	s	s	19	4	SIC	21	ABS	2	2	24VD	0	1	0.630070924759	None	None	None	None	1
1.7	2015_Aug_07_1607	s	s	19	4	SIC	22	ABS	2	1	24VO	0	1	0.599553823471	None	None	None	None	1
1.7	2015_Aug_07_1607	s	s	19	4	SIC	23	ABS	0	2	24RD	0	1	0.73800110817	None	None	None	None	1
1.7	2015_Aug_07_1607	s	s	19	4	SIC	24	RC	0	2	23RD	1	0	0.526597976685	-339.0	202.0	-342	194	1
1.7	2015_Aug_07_1607	s	s	19	4	SIC	25	RC	1	2	23MD	1	0	0.473841905594	339.0	-133.0	335	-131	1
1.7	2015_Aug_07_1607	s	s	19	4	SIC	26	RC	1	0	23MC	1	0	0.771186113358	486.0	113.0	481	114	1
1.7	2015_Aug_07_1607	s	s	19	4	SIC	27	ABS	1	0	24MC	0	1	4.03089213371	None	None	None	None	1
1.7	2015_Aug_07_1607	s	s	19	4	SIC	28	RC	2	0	23VC	1	0	0.441325187683	-330.0	-130.0	-330	-129	1
1.7	2015_Aug_07_1607	s	s	19	4	SIC	29	ABS	0	1	24RO	0	1	4.06844091415	None	None	None	None	1
1.7	2015_Aug_07_1607	s	s	19	4	SIC	30	ABS	2	0	24VC	0	1	0.466155052185	None	None	None	None	1
1.7	2015_Aug_07_1607	s	s	19	4	SIC	31	RC	2	1	23VO	1	0	0.453507900238	-263.0	-139.0	-263	-135	1
1.7	2015_Aug_07_1607	s	s	19	4	SIC	32	ABS	1	1	24MO	0	1	1.99740099907	None	None	None	None	1
1.7	2015_Aug_07_1607	s	s	19	4	SIC	33	RC	0	1	23RO	1	0	0.852690219879	-227.0	77.0	-215	84	1
1.7	2015_Aug_07_1607	s	s	19	4	SIC	34	RC	1	0	23MC	1	0	0.617225885391	117.0	16.0	117	19	1
1.7	2015_Aug_07_1607	s	s	19	4	SIC	35	RC	0	2	23RD	1	0	0.540834903717	-208.0	-353.0	-197	-346	1
1.7	2015_Aug_07_1607	s	s	19	4	SIC	36	ABS	1	0	24MC	0	1	1.67080593109	None	None	None	None	1
1.7	2015_Aug_07_1607	s	s	19	4	SIC	37	ABS	2	0	24VC	0	1	0.559385061264	None	None	None	None	1
1.7	2015_Aug_07_1607	s	s	19	4	SIC	38	ABS	0	1	24RO	0	1	4.21321392059	None	None	None	None	1
1.7	2015_Aug_07_1607	s	s	19	4	SIC	39	RC	1	2	23MD	1	0	0.584794044495	487.0	67.0	489	66	1
1.7	2015_Aug_07_1607	s	s	19	4	SIC	40	ABS	0	2	24RD	0	1	0.86580491066	None	None	None	None	1
1.7	2015_Aug_07_1607	s	s	19	4	SIC	41	ABS	2	1	24VO	0	1	0.52404999733	None	None	None	None	1
1.7	2015_Aug_07_1607	s	s	19	4	SIC	42	RC	2	0	23VC	1	0	0.464746952057	-270.0	60.0	-266	65	1
1.7	2015_Aug_07_1607	s	s	19	4	SIC	43	ABS	1	1	24MO	0	1	2.60063695908	None	None	None	None	1
1.7	2015_Aug_07_1607	s	s	19	4	SIC	44	RC	2	2	23VD	1	0	0.434904098511	47.0	158.0	48	156	1
1.7	2015_Aug_07_1607	s	s	19	4	SIC	45	ABS	1	2	24MD	0	1	0.643989086151	None	None	None	None	1
1.7	2015_Aug_07_1607	s	s	19	4	SIC	46	RC	2	1	23VO	1	0	0.537889003754	233.0	342.0	235	337	1
1.7	2015_Aug_07_1607	s	s	19	4	SIC	47	ABS	2	2	24VD	0	1	1.22354316711	None	None	None	None	1
1.7	2015_Aug_07_1607	s	s	19	4	SIC	48	RC	1	1	23MO	1	0	1.49093699455	483.0	405.0	483	399	1
1.7	2015_Aug_07_1607	s	s	19	4	SIC	49	ABS	2	1	24VO	0	1	0.491145133972	None	None	None	None	1
1.7	2015_Aug_07_1607	s	s	19	4	SIC	50	RC	2	1	23VO	1	0	0.465205192566	450.0	-267.0	449	-264	1
1.7	2015_Aug_07_1607	s	s	19	4	SIC	51	ABS	2	0	24VC	0	1	0.446658849716	None	None	None	None	1
1.7	2015_Aug_07_1607	s	s	19	4	SIC	52	ABS	1	2	24MD	0	1	0.5996530056	None	None	None	None	1
1.7	2015_Aug_07_1607	s	s	19	4	SIC	53	RC	0	1	23RO	1	0	2.05923199654	371.0	265.0	371	260	1
1.7	2015_Aug_07_1607	s	s	19	4	SIC	54	ABS	2	2	24VD	0	1	0.470223903656	None	None	None	None	1
1.7	2015_Aug_07_1607	s	s	19	4	SIC	55	RC	2	0	23VC	1	0	0.446603059769	162.0	262.0	163	258	1
1.7	2015_Aug_07_1607	s	s	19	4	SIC	56	RC	1	1	23MO	1	0	1.37665605545	-17.0	-335.0	-17	-337	1
1.7	2015_Aug_07_1607	s	s	19	4	SIC	57	RC	2	2	23VD	1	0	0.441833972931	-367.0	277.0	-358	280	1
1.7	2015_Aug_07_1607	s	s	19	4	SIC	58	ABS	1	0	24MC	0	1	2.12983107567	None	None	None	None	1
1.7	2015_Aug_07_1607	s	s	19	4	SIC	59	ABS	0	1	24RO	0	1	4.79611897469	None	None	None	None	1
1.7	2015_Aug_07_1607	s	s	19	4	SIC	60	RC	1	2	23MD	1	0	0.529088973999	-10.0	-386.0	-4	-390	1
1.7	2015_Aug_07_1607	s	s	19	4	SIC	61	RC	1	0	23MC	1	0	1.1236140728	113.0	61.0	109	61	1
1.7	2015_Aug_07_1607	s	s	19	4	SIC	62	ABS	1	1	24MO	0	1	1.87089920044	None	None	None	None	1
1.7	2015_Aug_07_1607	s	s	19	4	SIC	63	ABS	0	2	24RD	0	1	0.799764156342	None	None	None	None	1
1.7	2015_Aug_07_1607	s	s	19	4	SIC	64	RC	0	2	23RD	1	0	0.52910399437	95.0	-273.0	94	-273	1
1.7	2015_Aug_07_1607	s	s	19	4	SIC	65	RC	2	1	23VO	1	0	0.453686952591	-348.0	162.0	-339	169	1
1.7	2015_Aug_07_1607	s	s	19	4	SIC	66	ABS	1	1	24MO	0	1	2.4190299511	None	None	None	None	1
1.7	2015_Aug_07_1607	s	s	19	4	SIC	67	ABS	0	1	24RO	0	1	4.90264606476	None	None	None	None	1
1.7	2015_Aug_07_1607	s	s	19	4	SIC	68	RC	2	2	23VD	1	0	0.466835021973	7.0	60.0	12	52	1
1.7	2015_Aug_07_1607	s	s	19	4	SIC	69	ABS	0	2	24RD	0	1	0.646790981293	None	None	None	None	1
1.7	2015_Aug_07_1607	s	s	19	4	SIC	70	RC	0	2	23RD	1	0	0.466908931732	324.0	123.0	334	126	1
1.7	2015_Aug_07_1607	s	s	19	4	SIC	71	RC	1	0	23MC	1	0	0.761099100113	-414.0	150.0	-412	147	1
1.7	2015_Aug_07_1607	s	s	19	4	SIC	72	RC	1	1	23MO	1	0	0.879189014435	-287.0	189.0	-288	177	1
1.7	2015_Aug_07_1607	s	s	19	4	SIC	73	ABS	2	0	24VC	0	1	0.57226896286	None	None	None	None	1
1.7	2015_Aug_07_1607	s	s	19	4	SIC	74	ABS	1	2	24MD	0	1	0.599659919739	None	None	None	None	1
1.7	2015_Aug_07_1607	s	s	19	4	SIC	75	RC	1	2	23MD	1	0	0.411362886429	-334.0	118.0	-340	119	1
1.7	2015_Aug_07_1607	s	s	19	4	SIC	76	ABS	1	0	24MC	0	1	2.43045496941	None	None	None	None	1
1.7	2015_Aug_07_1607	s	s	19	4	SIC	77	ABS	2	1	24VO	0	1	0.547623872757	None	None	None	None	1
1.7	2015_Aug_07_1607	s	s	19	4	SIC	78	RC	2	0	23VC	1	0	0.635461091995	-207.0	213.0	-217	219	1
1.7	2015_Aug_07_1607	s	s	19	4	SIC	79	RC	0	1	23RO	0	1	3.8836607933	-73.0	180.0	None	None	0
1.7	2015_Aug_07_1607	s	s	19	4	SIC	80	ABS	2	2	24VD	0	1	0.693776845932	None	None	None	None	1
1.7	2015_Aug_07_1607	s	s	19	4	SIC	81	RC	2	1	23VO	1	0	0.51234292984	414.0	44.0	422	52	1
1.7	2015_Aug_07_1607	s	s	19	4	SIC	82	RC	1	1	23MO	1	0	0.712377071381	-394.0	157.0	-396	156	1
1.7	2015_Aug_07_1607	s	s	19	4	SIC	83	ABS	0	1	24RO	0	1	3.70693683624	None	None	None	None	1
1.7	2015_Aug_07_1607	s	s	19	4	SIC	84	ABS	2	1	24VO	0	1	0.547538042068	None	None	None	None	1
1.7	2015_Aug_07_1607	s	s	19	4	SIC	85	RC	1	0	23MC	0	1	2.76186490059	453.0	11.0	None	None	0
1.7	2015_Aug_07_1607	s	s	19	4	SIC	86	ABS	2	0	24VC	0	1	0.505478143692	None	None	None	None	1
1.7	2015_Aug_07_1607	s	s	19	4	SIC	87	RC	1	2	23MD	1	0	0.470159053802	-96.0	-80.0	-101	-77	1
1.7	2015_Aug_07_1607	s	s	19	4	SIC	88	ABS	0	2	24RD	0	1	0.581972837448	None	None	None	None	1
1.7	2015_Aug_07_1607	s	s	19	4	SIC	89	RC	0	2	23RD	1	0	0.470186948776	127.0	98.0	123	92	1
1.7	2015_Aug_07_1607	s	s	19	4	SIC	90	RC	2	0	23VC	1	0	0.479342937469	-437.0	31.0	-430	31	1
1.7	2015_Aug_07_1607	s	s	19	4	SIC	91	RC	0	1	23RO	1	0	1.07046484947	-123.0	26.0	-126	31	1
1.7	2015_Aug_07_1607	s	s	19	4	SIC	92	RC	2	2	23VD	1	0	0.446619033813	232.0	-45.0	231	-36	1
1.7	2015_Aug_07_1607	s	s	19	4	SIC	93	ABS	2	2	24VD	0	1	1.06539607048	None	None	None	None	1
1.7	2015_Aug_07_1607	s	s	19	4	SIC	94	ABS	1	2	24MD	0	1	0.603342056274	None	None	None	None	1
1.7	2015_Aug_07_1607	s	s	19	4	SIC	95	ABS	1	0	24MC	0	1	2.57444787025	None	None	None	None	1
1.7	2015_Aug_07_1607	s	s	19	4	SIC	96	ABS	1	1	24MO	0	1	1.78881907463	None	None	None	None	1
1.7	2015_Aug_07_1607	s	s	19	4	SIC	97	RC	0	2	23RD	1	0	0.606989145279	338.0	166.0	343	169	1
1.7	2015_Aug_07_1607	s	s	19	4	SIC	98	ABS	1	0	24MC	0	1	1.52944993973	None	None	None	None	1
1.7	2015_Aug_07_1607	s	s	19	4	SIC	99	RC	1	0	23MC	1	0	1.06736397743	-399.0	-161.0	-399	-158	1
1.7	2015_Aug_07_1607	s	s	19	4	SIC	100	ABS	0	2	24RD	0	1	0.599524021149	None	None	None	None	1
1.7	2015_Aug_07_1607	s	s	19	4	SIC	101	ABS	2	0	24VC	0	1	0.552983999252	None	None	None	None	1
1.7	2015_Aug_07_1607	s	s	19	4	SIC	102	ABS	2	2	24VD	0	1	0.476265192032	None	None	None	None	1
1.7	2015_Aug_07_1607	s	s	19	4	SIC	103	ABS	1	2	24MD	0	1	0.467196941376	None	None	None	None	1
1.7	2015_Aug_07_1607	s	s	19	4	SIC	104	ABS	1	1	24MO	0	1	1.58840894699	None	None	None	None	1
1.7	2015_Aug_07_1607	s	s	19	4	SIC	105	RC	1	1	23MO	1	0	0.820431947708	455.0	86.0	460	82	1
1.7	2015_Aug_07_1607	s	s	19	4	SIC	106	RC	0	1	23RO	1	0	1.98584198952	461.0	-25.0	469	-22	1
1.7	2015_Aug_07_1607	s	s	19	4	SIC	107	RC	1	2	23MD	1	0	0.512072086334	36.0	-324.0	44	-321	1
1.7	2015_Aug_07_1607	s	s	19	4	SIC	108	RC	2	2	23VD	1	0	0.411359071732	-287.0	-74.0	-289	-71	1
1.7	2015_Aug_07_1607	s	s	19	4	SIC	109	ABS	0	1	24RO	0	1	4.37297606468	None	None	None	None	1
1.7	2015_Aug_07_1607	s	s	19	4	SIC	110	RC	2	1	23VO	1	0	0.505528926849	-170.0	-185.0	-168	-182	1
1.7	2015_Aug_07_1607	s	s	19	4	SIC	111	RC	2	0	23VC	1	0	0.470191001892	298.0	-224.0	299	-220	1
1.7	2015_Aug_07_1607	s	s	19	4	SIC	112	ABS	2	1	24VO	0	1	0.512101888657	None	None	None	None	1
1.7	2015_Aug_07_1607	s	s	19	4	SIC	113	RC	0	2	23RD	1	0	0.611768007278	-57.0	203.0	-63	201	1
1.7	2015_Aug_07_1607	s	s	19	4	SIC	114	ABS	2	0	24VC	0	1	0.505516052246	None	None	None	None	1
1.7	2015_Aug_07_1607	s	s	19	4	SIC	115	ABS	1	0	24MC	0	1	1.45926403999	None	None	None	None	1
1.7	2015_Aug_07_1607	s	s	19	4	SIC	116	ABS	2	2	24VD	0	1	0.476499795914	None	None	None	None	1
1.7	2015_Aug_07_1607	s	s	19	4	SIC	117	ABS	0	2	24RD	0	1	0.593996047974	None	None	None	None	1
1.7	2015_Aug_07_1607	s	s	19	4	SIC	118	ABS	0	1	24RO	0	1	2.93031597137	None	None	None	None	1
1.7	2015_Aug_07_1607	s	s	19	4	SIC	119	RC	1	2	23MD	1	0	0.446627140045	157.0	309.0	155	304	1
1.7	2015_Aug_07_1607	s	s	19	4	SIC	120	RC	2	1	23VO	1	0	0.46449804306	379.0	68.0	372	69	1
1.7	2015_Aug_07_1607	s	s	19	4	SIC	121	ABS	1	1	24MO	0	1	1.78486084938	None	None	None	None	1
1.7	2015_Aug_07_1607	s	s	19	4	SIC	122	RC	2	2	23VD	1	0	0.44368314743	-72.0	311.0	-76	309	1
1.7	2015_Aug_07_1607	s	s	19	4	SIC	123	ABS	2	1	24VO	0	1	0.500295877457	None	None	None	None	1
1.7	2015_Aug_07_1607	s	s	19	4	SIC	124	RC	0	1	23RO	1	0	0.673968076706	-54.0	68.0	-54	67	1
1.7	2015_Aug_07_1607	s	s	19	4	SIC	125	ABS	1	2	24MD	0	1	0.52912402153	None	None	None	None	1
1.7	2015_Aug_07_1607	s	s	19	4	SIC	126	RC	1	0	23MC	1	0	0.7644739151	194.0	134.0	187	135	1
1.7	2015_Aug_07_1607	s	s	19	4	SIC	127	RC	2	0	23VC	1	0	0.52906703949	133.0	-289.0	125	-287	1
1.7	2015_Aug_07_1607	s	s	19	4	SIC	128	RC	1	1	23MO	1	0	0.771335124969	458.0	-44.0	453	-43	1
1.7	2015_Aug_07_1607	s	s	19	4	SIC	129	RC	0	2	23RD	1	0	0.701601028442	276.0	-232.0	279	-230	1
1.7	2015_Aug_07_1607	s	s	19	4	SIC	130	ABS	1	2	24MD	0	1	0.571878194809	None	None	None	None	1
1.7	2015_Aug_07_1607	s	s	19	4	SIC	131	RC	0	1	23RO	1	0	1.82066297531	434.0	282.0	434	281	1
1.7	2015_Aug_07_1607	s	s	19	4	SIC	132	RC	2	2	23VD	1	0	0.446614027023	66.0	-146.0	61	-144	1
1.7	2015_Aug_07_1607	s	s	19	4	SIC	133	ABS	1	1	24MO	0	1	2.40064907074	None	None	None	None	1
1.7	2015_Aug_07_1607	s	s	19	4	SIC	134	RC	1	1	23MO	1	0	0.782950162888	193.0	179.0	188	172	1
1.7	2015_Aug_07_1607	s	s	19	4	SIC	135	ABS	2	1	24VO	0	1	0.599744796753	None	None	None	None	1
1.7	2015_Aug_07_1607	s	s	19	4	SIC	136	ABS	1	0	24MC	0	1	5.92663788795	None	None	None	None	1
1.7	2015_Aug_07_1607	s	s	19	4	SIC	137	RC	2	1	23VO	1	0	0.4299929142	-326.0	-149.0	-329	-144	1
1.7	2015_Aug_07_1607	s	s	19	4	SIC	138	ABS	2	0	24VC	0	1	0.576062917709	None	None	None	None	1
1.7	2015_Aug_07_1607	s	s	19	4	SIC	139	RC	2	0	23VC	1	0	0.46214389801	-7.0	145.0	3	147	1
1.7	2015_Aug_07_1607	s	s	19	4	SIC	140	ABS	0	2	24RD	0	1	0.546411991119	None	None	None	None	1
1.7	2015_Aug_07_1607	s	s	19	4	SIC	141	ABS	2	2	24VD	0	1	0.689316987991	None	None	None	None	1
1.7	2015_Aug_07_1607	s	s	19	4	SIC	142	ABS	0	1	24RO	0	1	3.47161006927	None	None	None	None	1
1.7	2015_Aug_07_1607	s	s	19	4	SIC	143	RC	1	2	23MD	1	0	0.587936878204	-535.0	-137.0	-529	-136	1
1.7	2015_Aug_07_1607	s	s	19	4	SIC	144	RC	1	0	23MC	1	0	0.893759965897	-387.0	-173.0	-387	-172	1
1.7	2015_Aug_07_1607	s	s	19	4	SIC	145	RC	2	1	23VO	1	0	0.458473920822	-167.0	401.0	-171	396	1
1.7	2015_Aug_07_1607	s	s	19	4	SIC	146	RC	1	0	23MC	1	0	1.01838302612	62.0	231.0	62	216	1
1.7	2015_Aug_07_1607	s	s	19	4	SIC	147	RC	1	1	23MO	1	0	1.43536710739	517.0	179.0	519	182	1
1.7	2015_Aug_07_1607	s	s	19	4	SIC	148	ABS	2	2	24VD	0	1	0.49370098114	None	None	None	None	1
1.7	2015_Aug_07_1607	s	s	19	4	SIC	149	ABS	2	1	24VO	0	1	0.5764939785	None	None	None	None	1
1.7	2015_Aug_07_1607	s	s	19	4	SIC	150	ABS	0	1	24RO	0	1	3.14209103584	None	None	None	None	1
1.7	2015_Aug_07_1607	s	s	19	4	SIC	151	RC	2	0	23VC	1	0	0.548736095428	-467.0	-340.0	-460	-338	1
1.7	2015_Aug_07_1607	s	s	19	4	SIC	152	ABS	2	0	24VC	0	1	0.494071006775	None	None	None	None	1
1.7	2015_Aug_07_1607	s	s	19	4	SIC	153	ABS	0	2	24RD	0	1	1.15287899971	None	None	None	None	1
1.7	2015_Aug_07_1607	s	s	19	4	SIC	154	ABS	1	1	24MO	0	1	1.83568096161	None	None	None	None	1
1.7	2015_Aug_07_1607	s	s	19	4	SIC	155	RC	1	2	23MD	1	0	0.44423699379	310.0	201.0	305	199	1
1.7	2015_Aug_07_1607	s	s	19	4	SIC	156	RC	2	2	23VD	1	0	0.441575050354	-186.0	28.0	-178	30	1
1.7	2015_Aug_07_1607	s	s	19	4	SIC	157	RC	0	1	23RO	1	0	1.7003068924	288.0	327.0	282	327	1
1.7	2015_Aug_07_1607	s	s	19	4	SIC	158	ABS	1	0	24MC	0	1	3.11369085312	None	None	None	None	1
1.7	2015_Aug_07_1607	s	s	19	4	SIC	159	ABS	1	2	24MD	0	1	0.512107849121	None	None	None	None	1
1.7	2015_Aug_07_1607	s	s	19	4	SIC	160	RC	0	2	23RD	1	0	0.806492090225	420.0	323.0	418	332	1
1.7	2015_Aug_07_1607	s	s	19	4	SIC	161	ABS	2	1	24VO	0	1	0.473917007446	None	None	None	None	1
1.7	2015_Aug_07_1607	s	s	19	4	SIC	162	ABS	0	1	24RO	0	1	3.37241816521	None	None	None	None	1
1.7	2015_Aug_07_1607	s	s	19	4	SIC	163	RC	2	0	23VC	1	0	0.446681022644	-218.0	381.0	-222	375	1
1.7	2015_Aug_07_1607	s	s	19	4	SIC	164	RC	0	1	23RO	1	0	2.45424795151	-105.0	-304.0	-100	-302	1
1.7	2015_Aug_07_1607	s	s	19	4	SIC	165	ABS	1	2	24MD	0	1	0.606540203094	None	None	None	None	1
1.7	2015_Aug_07_1607	s	s	19	4	SIC	166	ABS	1	0	24MC	0	1	2.95372700691	None	None	None	None	1
1.7	2015_Aug_07_1607	s	s	19	4	SIC	167	RC	1	0	23MC	1	0	0.658565998077	-207.0	115.0	-209	110	1
1.7	2015_Aug_07_1607	s	s	19	4	SIC	168	RC	2	2	23VD	1	0	0.512115955353	-244.0	-397.0	-237	-390	1
1.7	2015_Aug_07_1607	s	s	19	4	SIC	169	RC	1	2	23MD	1	0	0.406672000885	124.0	-87.0	123	-93	1
1.7	2015_Aug_07_1607	s	s	19	4	SIC	170	ABS	0	2	24RD	0	1	0.811518192291	None	None	None	None	1
1.7	2015_Aug_07_1607	s	s	19	4	SIC	171	RC	2	1	23VO	1	0	0.470176935196	-41.0	301.0	-36	302	1
1.7	2015_Aug_07_1607	s	s	19	4	SIC	172	ABS	2	2	24VD	0	1	0.561055183411	None	None	None	None	1
1.7	2015_Aug_07_1607	s	s	19	4	SIC	173	ABS	2	0	24VC	0	1	0.559376001358	None	None	None	None	1
1.7	2015_Aug_07_1607	s	s	19	4	SIC	174	ABS	1	1	24MO	0	1	1.91842103004	None	None	None	None	1
1.7	2015_Aug_07_1607	s	s	19	4	SIC	175	RC	0	2	23RD	1	0	0.458382844925	22.0	182.0	22	170	1
1.7	2015_Aug_07_1607	s	s	19	4	SIC	176	RC	1	1	23MO	1	0	1.43256783485	-230.0	-244.0	-233	-250	1
1.7	2015_Aug_07_1607	s	s	19	4	SIC	177	RC	1	1	23MO	1	0	0.724539995193	64.0	271.0	60	265	1
1.7	2015_Aug_07_1607	s	s	19	4	SIC	178	RC	1	2	23MD	1	0	0.43488407135	124.0	209.0	128	215	1
1.7	2015_Aug_07_1607	s	s	19	4	SIC	179	RC	0	1	23RO	1	0	1.45900797844	461.0	321.0	464	323	1
1.7	2015_Aug_07_1607	s	s	19	4	SIC	180	ABS	2	2	24VD	0	1	0.572105884552	None	None	None	None	1
1.7	2015_Aug_07_1607	s	s	19	4	SIC	181	RC	2	0	23VC	1	0	0.388169050217	191.0	-49.0	192	-50	1
1.7	2015_Aug_07_1607	s	s	19	4	SIC	182	ABS	2	0	24VC	0	1	0.540725946426	None	None	None	None	1
1.7	2015_Aug_07_1607	s	s	19	4	SIC	183	RC	1	0	23MC	0	1	1.7060880661	424.0	-346.0	None	None	0
1.7	2015_Aug_07_1607	s	s	19	4	SIC	184	ABS	1	2	24MD	0	1	0.547515869141	None	None	None	None	1
1.7	2015_Aug_07_1607	s	s	19	4	SIC	185	RC	2	2	23VD	1	0	0.418291091919	-61.0	404.0	-57	413	1
1.7	2015_Aug_07_1607	s	s	19	4	SIC	186	ABS	1	1	24MO	0	1	1.91806793213	None	None	None	None	1
1.7	2015_Aug_07_1607	s	s	19	4	SIC	187	RC	0	2	23RD	1	0	0.535798788071	-314.0	357.0	-326	358	1
1.7	2015_Aug_07_1607	s	s	19	4	SIC	188	ABS	0	2	24RD	0	1	0.606523036957	None	None	None	None	1
1.7	2015_Aug_07_1607	s	s	19	4	SIC	189	ABS	1	0	24MC	0	1	2.0556101799	None	None	None	None	1
1.7	2015_Aug_07_1607	s	s	19	4	SIC	190	ABS	2	1	24VO	0	1	0.505504131317	None	None	None	None	1
1.7	2015_Aug_07_1607	s	s	19	4	SIC	191	RC	2	1	23VO	1	0	0.500499010086	-36.0	277.0	-25	278	1
1.7	2015_Aug_07_1607	s	s	19	4	SIC	192	ABS	0	1	24RO	0	1	4.33459210396	None	None	None	None	1
1.7	2015_Aug_07_1607	s	s	19	4	SIC	193	RC	1	1	23MO	1	0	2.01890301704	-297.0	395.0	-296	395	1
1.7	2015_Aug_07_1607	s	s	19	4	SIC	194	ABS	1	0	24MC	0	1	2.93070888519	None	None	None	None	1
1.7	2015_Aug_07_1607	s	s	19	4	SIC	195	RC	0	2	23RD	1	0	0.54079413414	105.0	-313.0	110	-310	1
1.7	2015_Aug_07_1607	s	s	19	4	SIC	196	RC	1	2	23MD	1	0	0.481986045837	273.0	97.0	271	100	1
1.7	2015_Aug_07_1607	s	s	19	4	SIC	197	RC	2	2	23VD	1	0	0.493694067001	-473.0	251.0	-482	254	1
1.7	2015_Aug_07_1607	s	s	19	4	SIC	198	ABS	2	0	24VC	0	1	0.529100179672	None	None	None	None	1
1.7	2015_Aug_07_1607	s	s	19	4	SIC	199	RC	2	1	23VO	1	0	0.482184886932	-49.0	-326.0	-54	-334	1
1.7	2015_Aug_07_1607	s	s	19	4	SIC	200	ABS	1	1	24MO	0	1	3.24802207947	None	None	None	None	1
1.7	2015_Aug_07_1607	s	s	19	4	SIC	201	ABS	1	2	24MD	0	1	0.847223997116	None	None	None	None	1
1.7	2015_Aug_07_1607	s	s	19	4	SIC	202	ABS	2	1	24VO	0	1	0.521351099014	None	None	None	None	1
1.7	2015_Aug_07_1607	s	s	19	4	SIC	203	RC	1	0	23MC	1	0	2.93017101288	15.0	71.0	14	79	1
1.7	2015_Aug_07_1607	s	s	19	4	SIC	204	RC	0	1	23RO	1	0	2.16518187523	-426.0	-183.0	-430	-185	1
1.7	2015_Aug_07_1607	s	s	19	4	SIC	205	ABS	0	1	24RO	0	1	3.88915705681	None	None	None	None	1
1.7	2015_Aug_07_1607	s	s	19	4	SIC	206	ABS	0	2	24RD	0	1	0.858632802963	None	None	None	None	1
1.7	2015_Aug_07_1607	s	s	19	4	SIC	207	RC	2	0	23VC	1	0	0.453314065933	447.0	1.0	446	-2	1
1.7	2015_Aug_07_1607	s	s	19	4	SIC	208	ABS	2	2	24VD	0	1	0.500420093536	None	None	None	None	1
1.7	2015_Aug_07_1607	s	s	19	4	SIC	209	ABS	1	0	24MC	0	1	2.18869495392	None	None	None	None	1
1.7	2015_Aug_07_1607	s	s	19	4	SIC	210	ABS	2	2	24VD	0	1	0.370962142944	None	None	None	None	1
1.7	2015_Aug_07_1607	s	s	19	4	SIC	211	ABS	1	2	24MD	0	1	0.470241069794	None	None	None	None	1
1.7	2015_Aug_07_1607	s	s	19	4	SIC	212	RC	0	1	23RO	1	0	1.7530040741	233.0	-139.0	230	-134	1
1.7	2015_Aug_07_1607	s	s	19	4	SIC	213	ABS	1	1	24MO	0	1	1.93807315826	None	None	None	None	1
1.7	2015_Aug_07_1607	s	s	19	4	SIC	214	RC	2	2	23VD	1	0	0.396093845367	-258.0	27.0	-253	20	1
1.7	2015_Aug_07_1607	s	s	19	4	SIC	215	RC	1	2	23MD	1	0	0.482022047043	-215.0	-241.0	-209	-232	1
1.7	2015_Aug_07_1607	s	s	19	4	SIC	216	RC	0	2	23RD	1	0	0.422975063324	-335.0	224.0	-341	221	1
1.7	2015_Aug_07_1607	s	s	19	4	SIC	217	ABS	2	0	24VC	0	1	0.481985807419	None	None	None	None	1
1.7	2015_Aug_07_1607	s	s	19	4	SIC	218	ABS	0	2	24RD	0	1	0.552493095398	None	None	None	None	1
1.7	2015_Aug_07_1607	s	s	19	4	SIC	219	ABS	0	1	24RO	0	1	4.34272909164	None	None	None	None	1
1.7	2015_Aug_07_1607	s	s	19	4	SIC	220	ABS	2	1	24VO	0	1	0.479552984238	None	None	None	None	1
1.7	2015_Aug_07_1607	s	s	19	4	SIC	221	RC	2	0	23VC	1	0	0.418437004089	-241.0	-47.0	-231	-45	1
1.7	2015_Aug_07_1607	s	s	19	4	SIC	222	RC	2	1	23VO	1	0	0.446628093719	90.0	201.0	87	207	1
1.7	2015_Aug_07_1607	s	s	19	4	SIC	223	RC	1	1	23MO	1	0	0.831754922867	-108.0	-7.0	-104	-4	1
1.7	2015_Aug_07_1607	s	s	19	4	SIC	224	RC	1	0	23MC	1	0	0.900558948517	-361.0	25.0	-363	21	1
1.7	2015_Aug_07_1607	s	s	19	4	SIC	225	RC	2	1	23VO	1	0	0.391366958618	16.0	137.0	19	133	1
1.7	2015_Aug_07_1607	s	s	19	4	SIC	226	ABS	1	0	24MC	0	1	2.91359496117	None	None	None	None	1
1.7	2015_Aug_07_1607	s	s	19	4	SIC	227	ABS	0	2	24RD	0	1	0.585247039795	None	None	None	None	1
1.7	2015_Aug_07_1607	s	s	19	4	SIC	228	ABS	2	2	24VD	0	1	0.481777906418	None	None	None	None	1
1.7	2015_Aug_07_1607	s	s	19	4	SIC	229	RC	0	1	23RO	0	1	3.35388112068	-157.0	-355.0	None	None	0
1.7	2015_Aug_07_1607	s	s	19	4	SIC	230	RC	0	2	23RD	1	0	0.453191041946	-283.0	-183.0	-276	-181	1
1.7	2015_Aug_07_1607	s	s	19	4	SIC	231	ABS	2	0	24VC	0	1	0.556304931641	None	None	None	None	1
1.7	2015_Aug_07_1607	s	s	19	4	SIC	232	RC	1	1	23MO	1	0	1.1940009594	435.0	-198.0	434	-199	1
1.7	2015_Aug_07_1607	s	s	19	4	SIC	233	RC	2	2	23VD	1	0	0.396795034409	-207.0	-13.0	-205	-22	1
1.7	2015_Aug_07_1607	s	s	19	4	SIC	234	RC	2	0	23VC	1	0	0.418157815933	286.0	131.0	291	134	1
1.7	2015_Aug_07_1607	s	s	19	4	SIC	235	ABS	0	1	24RO	0	1	4.09918904305	None	None	None	None	1
1.7	2015_Aug_07_1607	s	s	19	4	SIC	236	ABS	1	2	24MD	0	1	0.517273187637	None	None	None	None	1
1.7	2015_Aug_07_1607	s	s	19	4	SIC	237	RC	1	0	23MC	0	1	3.03621482849	501.0	29.0	None	None	0
1.7	2015_Aug_07_1607	s	s	19	4	SIC	238	ABS	2	1	24VO	0	1	0.418219804764	None	None	None	None	1
1.7	2015_Aug_07_1607	s	s	19	4	SIC	239	ABS	1	1	24MO	0	1	2.07094883919	None	None	None	None	1
1.7	2015_Aug_07_1607	s	s	19	4	SIC	240	RC	1	2	23MD	1	0	0.446662187576	305.0	49.0	304	53	1
1.7	2015_Aug_07_1607	s	s	19	4	SIC	241	ABS	0	2	24RD	0	1	0.569570064545	None	None	None	None	1
1.7	2015_Aug_07_1607	s	s	19	4	SIC	242	RC	1	0	23MC	1	0	0.835155963898	97.0	217.0	99	214	1
1.7	2015_Aug_07_1607	s	s	19	4	SIC	243	RC	2	2	23VD	1	0	0.45353102684	-532.0	-67.0	-535	-64	1
1.7	2015_Aug_07_1607	s	s	19	4	SIC	244	RC	0	1	23RO	1	0	1.38380289078	358.0	-278.0	366	-277	1
1.7	2015_Aug_07_1607	s	s	19	4	SIC	245	ABS	1	2	24MD	0	1	0.564364910126	None	None	None	None	1
1.7	2015_Aug_07_1607	s	s	19	4	SIC	246	RC	2	0	23VC	1	0	0.418161869049	197.0	-242.0	194	-236	1
1.7	2015_Aug_07_1607	s	s	19	4	SIC	247	RC	2	1	23VO	1	0	0.458444833755	333.0	347.0	342	349	1
1.7	2015_Aug_07_1607	s	s	19	4	SIC	248	RC	0	2	23RD	1	0	0.429083824158	194.0	68.0	192	69	1
1.7	2015_Aug_07_1607	s	s	19	4	SIC	249	ABS	1	1	24MO	0	1	2.40641903877	None	None	None	None	1
1.7	2015_Aug_07_1607	s	s	19	4	SIC	250	ABS	0	1	24RO	0	1	4.70314788818	None	None	None	None	1
1.7	2015_Aug_07_1607	s	s	19	4	SIC	251	RC	1	1	23MO	1	0	1.35297298431	-110.0	-240.0	-113	-232	1
1.7	2015_Aug_07_1607	s	s	19	4	SIC	252	ABS	2	1	24VO	0	1	0.470166921616	None	None	None	None	1
1.7	2015_Aug_07_1607	s	s	19	4	SIC	253	ABS	2	0	24VC	0	1	0.517292976379	None	None	None	None	1
1.7	2015_Aug_07_1607	s	s	19	4	SIC	254	RC	1	2	23MD	1	0	0.520962953568	-529.0	-59.0	-519	-59	1
1.7	2015_Aug_07_1607	s	s	19	4	SIC	255	ABS	1	0	24MC	0	1	2.10616111755	None	None	None	None	1
1.7	2015_Aug_07_1607	s	s	19	4	SIC	256	ABS	2	2	24VD	0	1	0.431296825409	None	None	None	None	1
1.7	2015_Aug_07_1607	s	s	19	4	SIC	257	RC	1	1	23MO	1	0	0.830296993256	-316.0	-9.0	-318	-14	1
1.7	2015_Aug_07_1607	s	s	19	4	SIC	258	RC	2	1	23VO	1	0	0.434957027435	127.0	184.0	128	192	1
1.7	2015_Aug_07_1607	s	s	19	4	SIC	259	ABS	1	0	24MC	0	1	2.11812210083	None	None	None	None	1
1.7	2015_Aug_07_1607	s	s	19	4	SIC	260	ABS	2	2	24VD	0	1	0.434935092926	None	None	None	None	1
1.7	2015_Aug_07_1607	s	s	19	4	SIC	261	RC	2	2	23VD	1	0	0.422921180725	197.0	97.0	198	101	1
1.7	2015_Aug_07_1607	s	s	19	4	SIC	262	RC	1	0	23MC	0	1	2.23583102226	-386.0	345.0	None	None	0
1.7	2015_Aug_07_1607	s	s	19	4	SIC	263	ABS	1	2	24MD	0	1	0.564247131348	None	None	None	None	1
1.7	2015_Aug_07_1607	s	s	19	4	SIC	264	ABS	2	0	24VC	0	1	0.476470947266	None	None	None	None	1
1.7	2015_Aug_07_1607	s	s	19	4	SIC	265	RC	0	2	23RD	1	0	0.458327054977	-12.0	-138.0	-14	-145	1
1.7	2015_Aug_07_1607	s	s	19	4	SIC	266	RC	1	2	23MD	1	0	0.458403110504	231.0	293.0	232	302	1
1.7	2015_Aug_07_1607	s	s	19	4	SIC	267	ABS	0	2	24RD	0	1	0.870346069336	None	None	None	None	1
1.7	2015_Aug_07_1607	s	s	19	4	SIC	268	ABS	0	1	24RO	0	1	3.2834341526	None	None	None	None	1
1.7	2015_Aug_07_1607	s	s	19	4	SIC	269	ABS	2	1	24VO	0	1	0.465219974518	None	None	None	None	1
1.7	2015_Aug_07_1607	s	s	19	4	SIC	270	RC	0	1	23RO	1	0	3.08683681488	-227.0	-50.0	-224	-46	1
1.7	2015_Aug_07_1607	s	s	19	4	SIC	271	RC	2	0	23VC	1	0	0.452902078629	-465.0	-212.0	-460	-211	1
1.7	2015_Aug_07_1607	s	s	19	4	SIC	272	ABS	1	1	24MO	0	1	2.40060997009	None	None	None	None	1
1.7	2015_Aug_07_1607	s	s	19	4	SIC	273	RC	1	0	23MC	1	0	1.02342200279	139.0	37.0	142	43	1
1.7	2015_Aug_07_1607	s	s	19	4	SIC	274	ABS	0	2	24RD	0	1	0.640315055847	None	None	None	None	1
1.7	2015_Aug_07_1607	s	s	19	4	SIC	275	ABS	1	0	24MC	0	1	2.19552516937	None	None	None	None	1
1.7	2015_Aug_07_1607	s	s	19	4	SIC	276	ABS	1	1	24MO	0	1	1.37652301788	None	None	None	None	1
1.7	2015_Aug_07_1607	s	s	19	4	SIC	277	RC	0	1	23RO	1	0	1.93009901047	386.0	-32.0	384	-31	1
1.7	2015_Aug_07_1607	s	s	19	4	SIC	278	ABS	2	1	24VO	0	1	0.576146841049	None	None	None	None	1
1.7	2015_Aug_07_1607	s	s	19	4	SIC	279	RC	2	0	23VC	1	0	0.434839010239	239.0	-195.0	233	-194	1
1.7	2015_Aug_07_1607	s	s	19	4	SIC	280	ABS	2	0	24VC	0	1	0.434912919998	None	None	None	None	1
1.7	2015_Aug_07_1607	s	s	19	4	SIC	281	RC	1	2	23MD	1	0	0.526350975037	386.0	-397.0	395	-392	1
1.7	2015_Aug_07_1607	s	s	19	4	SIC	282	RC	0	2	23RD	1	0	0.418666124344	-129.0	-112.0	-136	-107	1
1.7	2015_Aug_07_1607	s	s	19	4	SIC	283	RC	1	1	23MO	1	0	0.865974903107	-467.0	123.0	-472	126	1
1.7	2015_Aug_07_1607	s	s	19	4	SIC	284	RC	2	1	23VO	1	0	0.411315202713	-148.0	-45.0	-148	-45	1
1.7	2015_Aug_07_1607	s	s	19	4	SIC	285	ABS	0	1	24RO	0	1	4.53797197342	None	None	None	None	1
1.7	2015_Aug_07_1607	s	s	19	4	SIC	286	RC	2	2	23VD	1	0	0.481827974319	280.0	45.0	279	47	1
1.7	2015_Aug_07_1607	s	s	19	4	SIC	287	ABS	2	2	24VD	0	1	0.517243146896	None	None	None	None	1
1.7	2015_Aug_07_1607	s	s	19	4	SIC	288	ABS	1	2	24MD	0	1	0.529058933258	None	None	None	None	1
1.7	2015_Aug_07_1607	s	s	19	4	SIC	289	ABS	2	0	24VC	0	1	0.570918083191	None	None	None	None	1
1.7	2015_Aug_07_1607	s	s	19	4	SIC	290	RC	2	0	23VC	1	0	0.430145025253	-168.0	-136.0	-162	-127	1
1.7	2015_Aug_07_1607	s	s	19	4	SIC	291	ABS	1	2	24MD	0	1	0.618391990662	None	None	None	None	1
1.7	2015_Aug_07_1607	s	s	19	4	SIC	292	RC	1	0	23MC	1	0	0.877895832062	-109.0	200.0	-103	191	1
1.7	2015_Aug_07_1607	s	s	19	4	SIC	293	RC	0	2	23RD	1	0	0.441612958908	-95.0	135.0	-83	138	1
1.7	2015_Aug_07_1607	s	s	19	4	SIC	294	ABS	0	1	24RO	0	1	3.46661496162	None	None	None	None	1
1.7	2015_Aug_07_1607	s	s	19	4	SIC	295	ABS	0	2	24RD	0	1	0.536147117615	None	None	None	None	1
1.7	2015_Aug_07_1607	s	s	19	4	SIC	296	RC	1	2	23MD	1	0	0.540862083435	-75.0	272.0	-76	270	1
1.7	2015_Aug_07_1607	s	s	19	4	SIC	297	RC	1	1	23MO	1	0	1.77156996727	-107.0	-6.0	-101	-9	1
1.7	2015_Aug_07_1607	s	s	19	4	SIC	298	RC	0	1	23RO	1	0	1.31757616997	293.0	-166.0	296	-170	1
1.7	2015_Aug_07_1607	s	s	19	4	SIC	299	ABS	1	0	24MC	0	1	3.2951259613	None	None	None	None	1
1.7	2015_Aug_07_1607	s	s	19	4	SIC	300	ABS	2	1	24VO	0	1	0.594640016556	None	None	None	None	1
1.7	2015_Aug_07_1607	s	s	19	4	SIC	301	RC	2	2	23VD	1	0	0.488514900208	-449.0	-164.0	-446	-172	1
1.7	2015_Aug_07_1607	s	s	19	4	SIC	302	ABS	2	2	24VD	0	1	0.423127889633	None	None	None	None	1
1.7	2015_Aug_07_1607	s	s	19	4	SIC	303	ABS	1	1	24MO	0	1	2.14821815491	None	None	None	None	1
1.7	2015_Aug_07_1607	s	s	19	4	SIC	304	RC	2	1	23VO	1	0	0.693835020065	-208.0	-191.0	-215	-187	1
1.7	2015_Aug_07_1607	s	s	19	4	SIC	305	ABS	2	0	24VC	0	1	0.406372070312	None	None	None	None	1
1.7	2015_Aug_07_1607	s	s	19	4	SIC	306	ABS	2	1	24VO	0	1	0.505576133728	None	None	None	None	1
1.7	2015_Aug_07_1607	s	s	19	4	SIC	307	RC	2	2	23VD	1	0	0.418491125107	-378.0	-92.0	-383	-93	1
1.7	2015_Aug_07_1607	s	s	19	4	SIC	308	ABS	0	2	24RD	0	1	0.705615997314	None	None	None	None	1
1.7	2015_Aug_07_1607	s	s	19	4	SIC	309	RC	1	2	23MD	1	0	0.465361118317	432.0	-203.0	430	-196	1
1.7	2015_Aug_07_1607	s	s	19	4	SIC	310	ABS	1	2	24MD	0	1	0.465118169785	None	None	None	None	1
1.7	2015_Aug_07_1607	s	s	19	4	SIC	311	ABS	1	0	24MC	0	1	1.77663302422	None	None	None	None	1
1.7	2015_Aug_07_1607	s	s	19	4	SIC	312	RC	2	1	23VO	1	0	0.470198869705	-463.0	-351.0	-473	-345	1
1.7	2015_Aug_07_1607	s	s	19	4	SIC	313	ABS	0	1	24RO	0	1	3.2832877636	None	None	None	None	1
1.7	2015_Aug_07_1607	s	s	19	4	SIC	314	ABS	1	1	24MO	0	1	1.61845612526	None	None	None	None	1
1.7	2015_Aug_07_1607	s	s	19	4	SIC	315	RC	0	2	23RD	1	0	0.477493047714	-53.0	-142.0	-66	-135	1
1.7	2015_Aug_07_1607	s	s	19	4	SIC	316	RC	0	1	23RO	1	0	3.43638801575	-366.0	385.0	-376	388	1
1.7	2015_Aug_07_1607	s	s	19	4	SIC	317	RC	2	0	23VC	1	0	0.540796995163	-56.0	-396.0	-50	-398	1
1.7	2015_Aug_07_1607	s	s	19	4	SIC	318	RC	1	0	23MC	0	1	2.77199792862	145.0	-344.0	None	None	0
1.7	2015_Aug_07_1607	s	s	19	4	SIC	319	ABS	2	2	24VD	0	1	0.443741083145	None	None	None	None	1
1.7	2015_Aug_07_1607	s	s	19	4	SIC	320	RC	1	1	23MO	1	0	0.547465085983	251.0	-8.0	254	-3	1
1.7	2015_Aug_07_1607	s	s	19	4	SIC	321	ABS	2	2	24VD	0	1	0.599615097046	None	None	None	None	1
1.7	2015_Aug_07_1607	s	s	19	4	SIC	322	ABS	0	2	24RD	0	1	0.744611024857	None	None	None	None	1
1.7	2015_Aug_07_1607	s	s	19	4	SIC	323	RC	1	0	23MC	0	1	2.50410914421	-438.0	341.0	None	None	0
1.7	2015_Aug_07_1607	s	s	19	4	SIC	324	ABS	1	2	24MD	0	1	0.383128881454	None	None	None	None	1
1.7	2015_Aug_07_1607	s	s	19	4	SIC	325	ABS	0	1	24RO	0	1	3.79750084877	None	None	None	None	1
1.7	2015_Aug_07_1607	s	s	19	4	SIC	326	RC	2	2	23VD	1	0	0.458441019058	526.0	196.0	522	192	1
1.7	2015_Aug_07_1607	s	s	19	4	SIC	327	RC	2	0	23VC	1	0	0.641685009003	472.0	-406.0	468	-398	1
1.7	2015_Aug_07_1607	s	s	19	4	SIC	328	RC	0	2	23RD	1	0	0.853586196899	-357.0	-282.0	-357	-278	1
1.7	2015_Aug_07_1607	s	s	19	4	SIC	329	RC	1	2	23MD	1	0	0.465065956116	94.0	-354.0	94	-349	1
1.7	2015_Aug_07_1607	s	s	19	4	SIC	330	ABS	2	1	24VO	0	1	0.682190179825	None	None	None	None	1
1.7	2015_Aug_07_1607	s	s	19	4	SIC	331	ABS	1	1	24MO	0	1	1.80959701538	None	None	None	None	1
1.7	2015_Aug_07_1607	s	s	19	4	SIC	332	ABS	1	0	24MC	0	1	1.47436308861	None	None	None	None	1
1.7	2015_Aug_07_1607	s	s	19	4	SIC	333	RC	1	1	23MO	1	0	1.31764817238	-417.0	333.0	-411	336	1
1.7	2015_Aug_07_1607	s	s	19	4	SIC	334	RC	0	1	23RO	1	0	1.04309606552	92.0	147.0	94	150	1
1.7	2015_Aug_07_1607	s	s	19	4	SIC	335	ABS	2	0	24VC	0	1	0.552575111389	None	None	None	None	1
1.7	2015_Aug_07_1607	s	s	19	4	SIC	336	RC	2	1	23VO	1	0	0.376009941101	238.0	-38.0	248	-32	1
1.7	2015_Aug_07_1607	s	s	19	4	SIC	337	ABS	1	0	24MC	0	1	2.23609113693	None	None	None	None	1
1.7	2015_Aug_07_1607	s	s	19	4	SIC	338	ABS	2	2	24VD	0	1	0.552505016327	None	None	None	None	1
1.7	2015_Aug_07_1607	s	s	19	4	SIC	339	RC	1	0	23MC	0	1	3.66000199318	396.0	1.0	None	None	0
1.7	2015_Aug_07_1607	s	s	19	4	SIC	340	ABS	1	1	24MO	0	1	1.17151689529	None	None	None	None	1
1.7	2015_Aug_07_1607	s	s	19	4	SIC	341	ABS	0	2	24RD	0	1	0.623234987259	None	None	None	None	1
1.7	2015_Aug_07_1607	s	s	19	4	SIC	342	RC	2	1	23VO	1	0	0.517646074295	294.0	-386.0	302	-386	1
1.7	2015_Aug_07_1607	s	s	19	4	SIC	343	RC	1	1	23MO	1	0	0.771183013916	-414.0	-281.0	-415	-283	1
1.7	2015_Aug_07_1607	s	s	19	4	SIC	344	ABS	2	1	24VO	0	1	0.493744134903	None	None	None	None	1
1.7	2015_Aug_07_1607	s	s	19	4	SIC	345	RC	1	2	23MD	1	0	0.747686862946	-417.0	402.0	-410	406	1
1.7	2015_Aug_07_1607	s	s	19	4	SIC	346	ABS	1	2	24MD	0	1	0.513983011246	None	None	None	None	1
1.7	2015_Aug_07_1607	s	s	19	4	SIC	347	RC	0	1	23RO	1	0	1.66480088234	-187.0	228.0	-189	236	1
1.7	2015_Aug_07_1607	s	s	19	4	SIC	348	RC	2	0	23VC	1	0	0.59955906868	-235.0	212.0	-236	213	1
1.7	2015_Aug_07_1607	s	s	19	4	SIC	349	RC	0	2	23RD	1	0	0.70285487175	-490.0	-403.0	-480	-402	1
1.7	2015_Aug_07_1607	s	s	19	4	SIC	350	ABS	0	1	24RO	0	1	3.65593600273	None	None	None	None	1
1.7	2015_Aug_07_1607	s	s	19	4	SIC	351	RC	2	2	23VD	1	0	0.399538040161	-99.0	15.0	-88	19	1
1.7	2015_Aug_07_1607	s	s	19	4	SIC	352	ABS	2	0	24VC	0	1	0.540818929672	None	None	None	None	1
1.7	2015_Aug_07_1607	s	s	19	4	SIC	353	ABS	2	2	24VD	0	1	0.749394893646	None	None	None	None	1
1.7	2015_Aug_07_1607	s	s	19	4	SIC	354	ABS	2	1	24VO	0	1	0.573392152786	None	None	None	None	1
1.7	2015_Aug_07_1607	s	s	19	4	SIC	355	RC	1	2	23MD	1	0	0.440278053284	6.0	331.0	10	333	1
1.7	2015_Aug_07_1607	s	s	19	4	SIC	356	ABS	1	1	24MO	0	1	1.42360210419	None	None	None	None	1
1.7	2015_Aug_07_1607	s	s	19	4	SIC	357	ABS	0	2	24RD	0	1	0.611447811127	None	None	None	None	1
1.7	2015_Aug_07_1607	s	s	19	4	SIC	358	RC	2	2	23VD	1	0	0.387809991837	-59.0	97.0	-56	98	1
1.7	2015_Aug_07_1607	s	s	19	4	SIC	359	RC	2	0	23VC	1	0	0.470189094543	37.0	260.0	29	258	1
1.7	2015_Aug_07_1607	s	s	19	4	SIC	360	RC	1	1	23MO	1	0	0.535752058029	-133.0	51.0	-133	53	1
1.7	2015_Aug_07_1607	s	s	19	4	SIC	361	ABS	1	0	24MC	0	1	1.50248289108	None	None	None	None	1
1.7	2015_Aug_07_1607	s	s	19	4	SIC	362	ABS	0	1	24RO	0	1	2.64210510254	None	None	None	None	1
1.7	2015_Aug_07_1607	s	s	19	4	SIC	363	RC	1	0	23MC	1	0	0.982913970947	333.0	-290.0	332	-288	1
1.7	2015_Aug_07_1607	s	s	19	4	SIC	364	ABS	1	2	24MD	0	1	0.585154056549	None	None	None	None	1
1.7	2015_Aug_07_1607	s	s	19	4	SIC	365	RC	0	2	23RD	1	0	0.394545078278	425.0	-70.0	434	-74	1
1.7	2015_Aug_07_1607	s	s	19	4	SIC	366	RC	2	1	23VO	1	0	0.434953927994	-272.0	97.0	-269	97	1
1.7	2015_Aug_07_1607	s	s	19	4	SIC	367	ABS	2	0	24VC	0	1	0.559988021851	None	None	None	None	1
1.7	2015_Aug_07_1607	s	s	19	4	SIC	368	RC	0	1	23RO	1	0	2.23581910133	463.0	167.0	464	171	1
1.7	2015_Aug_07_1607	s	s	19	4	SIC	369	ABS	1	2	24MD	0	1	0.512026071548	None	None	None	None	1
1.7	2015_Aug_07_1607	s	s	19	4	SIC	370	RC	2	2	23VD	1	0	1.14111709595	-126.0	369.0	-131	369	1
1.7	2015_Aug_07_1607	s	s	19	4	SIC	371	RC	1	2	23MD	0	1	0.470081090927	270.0	-245.0	None	None	0
1.7	2015_Aug_07_1607	s	s	19	4	SIC	372	ABS	1	1	24MO	0	1	1.72607707977	None	None	None	None	1
1.7	2015_Aug_07_1607	s	s	19	4	SIC	373	RC	0	2	23RD	1	0	0.407699108124	325.0	96.0	330	94	1
1.7	2015_Aug_07_1607	s	s	19	4	SIC	374	RC	0	1	23RO	1	0	2.10631012917	-197.0	-353.0	-201	-350	1
1.7	2015_Aug_07_1607	s	s	19	4	SIC	375	ABS	2	2	24VD	0	1	0.630084991455	None	None	None	None	1
1.7	2015_Aug_07_1607	s	s	19	4	SIC	376	RC	1	0	23MC	1	0	2.19605493546	190.0	-134.0	193	-130	1
1.7	2015_Aug_07_1607	s	s	19	4	SIC	377	RC	2	1	23VO	1	0	0.473878145218	-417.0	-144.0	-416	-146	1
1.7	2015_Aug_07_1607	s	s	19	4	SIC	378	ABS	0	2	24RD	0	1	0.646723985672	None	None	None	None	1
1.7	2015_Aug_07_1607	s	s	19	4	SIC	379	RC	1	1	23MO	1	0	1.41182398796	-95.0	308.0	-91	313	1
1.7	2015_Aug_07_1607	s	s	19	4	SIC	380	ABS	1	0	24MC	0	1	1.78372383118	None	None	None	None	1
1.7	2015_Aug_07_1607	s	s	19	4	SIC	381	ABS	2	0	24VC	0	1	0.717399120331	None	None	None	None	1
1.7	2015_Aug_07_1607	s	s	19	4	SIC	382	ABS	2	1	24VO	0	1	0.52401804924	None	None	None	None	1
1.7	2015_Aug_07_1607	s	s	19	4	SIC	383	RC	2	0	23VC	1	0	0.451431035995	452.0	112.0	452	113	1
1.7	2015_Aug_07_1607	s	s	19	4	SIC	384	ABS	0	1	24RO	0	1	3.40780997276	None	None	None	None	1
1.7	2015_Aug_07_1607	s	s	19	4	SIC	385	ABS	1	1	24MO	0	1	1.96897792816	None	None	None	None	1
1.7	2015_Aug_07_1607	s	s	19	4	SIC	386	RC	0	2	23RD	1	0	0.505397081375	-11.0	-172.0	-9	-169	1
1.7	2015_Aug_07_1607	s	s	19	4	SIC	387	RC	2	2	23VD	1	0	0.399587154388	282.0	179.0	289	178	1
1.7	2015_Aug_07_1607	s	s	19	4	SIC	388	RC	2	0	23VC	1	0	0.418043136597	-364.0	2.0	-355	3	1
1.7	2015_Aug_07_1607	s	s	19	4	SIC	389	ABS	2	2	24VD	0	1	0.47677397728	None	None	None	None	1
1.7	2015_Aug_07_1607	s	s	19	4	SIC	390	RC	2	1	23VO	1	0	0.442181110382	-364.0	-267.0	-370	-271	1
1.7	2015_Aug_07_1607	s	s	19	4	SIC	391	RC	0	1	23RO	1	0	2.43583011627	-295.0	63.0	-298	59	1
1.7	2015_Aug_07_1607	s	s	19	4	SIC	392	ABS	0	2	24RD	0	1	0.534904003143	None	None	None	None	1
1.7	2015_Aug_07_1607	s	s	19	4	SIC	393	RC	1	1	23MO	1	0	0.988122940063	234.0	267.0	232	262	1
1.7	2015_Aug_07_1607	s	s	19	4	SIC	394	RC	1	0	23MC	0	1	2.31816697121	320.0	-237.0	None	None	0
1.7	2015_Aug_07_1607	s	s	19	4	SIC	395	ABS	1	2	24MD	0	1	0.647137880325	None	None	None	None	1
1.7	2015_Aug_07_1607	s	s	19	4	SIC	396	ABS	2	0	24VC	0	1	0.712145805359	None	None	None	None	1
1.7	2015_Aug_07_1607	s	s	19	4	SIC	397	RC	1	2	23MD	1	0	0.502109050751	-364.0	-369.0	-365	-368	1
1.7	2015_Aug_07_1607	s	s	19	4	SIC	398	ABS	2	1	24VO	0	1	0.541216135025	None	None	None	None	1
1.7	2015_Aug_07_1607	s	s	19	4	SIC	399	ABS	1	0	24MC	0	1	1.70081686974	None	None	None	None	1
1.7	2015_Aug_07_1607	s	s	19	4	SIC	400	ABS	0	1	24RO	0	1	3.40541791916	None	None	None	None	1
1.7	2015_Aug_07_1607	s	s	19	4	SIC	401	ABS	2	0	24VC	0	1	0.535812139511	None	None	None	None	1
1.7	2015_Aug_07_1607	s	s	19	4	SIC	402	RC	1	2	23MD	1	0	0.47931098938	10.0	-372.0	18	-372	1
1.7	2015_Aug_07_1607	s	s	19	4	SIC	403	RC	2	1	23VO	1	0	0.467581033707	268.0	-315.0	261	-312	1
1.7	2015_Aug_07_1607	s	s	19	4	SIC	404	RC	2	2	23VD	1	0	0.431885004044	-113.0	242.0	-111	246	1
1.7	2015_Aug_07_1607	s	s	19	4	SIC	405	RC	1	1	23MO	1	0	1.37678003311	193.0	-210.0	192	-210	1
1.7	2015_Aug_07_1607	s	s	19	4	SIC	406	ABS	1	0	24MC	0	1	1.90122008324	None	None	None	None	1
1.7	2015_Aug_07_1607	s	s	19	4	SIC	407	RC	0	1	23RO	1	0	2.10302400589	-83.0	195.0	-80	200	1
1.7	2015_Aug_07_1607	s	s	19	4	SIC	408	ABS	1	2	24MD	0	1	0.752688169479	None	None	None	None	1
1.7	2015_Aug_07_1607	s	s	19	4	SIC	409	ABS	2	1	24VO	0	1	0.546644926071	None	None	None	None	1
1.7	2015_Aug_07_1607	s	s	19	4	SIC	410	RC	2	0	23VC	1	0	0.517319917679	-426.0	374.0	-418	382	1
1.7	2015_Aug_07_1607	s	s	19	4	SIC	411	ABS	0	2	24RD	0	1	0.57106089592	None	None	None	None	1
1.7	2015_Aug_07_1607	s	s	19	4	SIC	412	RC	0	2	23RD	1	0	0.481938123703	528.0	-181.0	536	-183	1
1.7	2015_Aug_07_1607	s	s	19	4	SIC	413	ABS	2	2	24VD	0	1	0.547007083893	None	None	None	None	1
1.7	2015_Aug_07_1607	s	s	19	4	SIC	414	RC	1	0	23MC	1	0	0.841758966446	-124.0	315.0	-128	309	1
1.7	2015_Aug_07_1607	s	s	19	4	SIC	415	ABS	1	1	24MO	0	1	1.40682792664	None	None	None	None	1
1.7	2015_Aug_07_1607	s	s	19	4	SIC	416	ABS	0	1	24RO	0	1	3.98438501358	None	None	None	None	1
1.7	2015_Aug_07_1607	s	s	19	4	SIC	417	ABS	0	1	24RO	0	1	3.56583309174	None	None	None	None	1
1.7	2015_Aug_07_1607	s	s	19	4	SIC	418	RC	1	1	23MO	1	0	0.500679016113	26.0	55.0	23	58	1
1.7	2015_Aug_07_1607	s	s	19	4	SIC	419	ABS	2	0	24VC	0	1	0.418239116669	None	None	None	None	1
1.7	2015_Aug_07_1607	s	s	19	4	SIC	420	ABS	2	2	24VD	0	1	0.40630197525	None	None	None	None	1
1.7	2015_Aug_07_1607	s	s	19	4	SIC	421	RC	2	0	23VC	1	0	0.394484043121	-66.0	31.0	-58	33	1
1.7	2015_Aug_07_1607	s	s	19	4	SIC	422	RC	2	2	23VD	1	0	0.42063999176	-465.0	-8.0	-471	-3	1
1.7	2015_Aug_07_1607	s	s	19	4	SIC	423	RC	0	1	23RO	1	0	1.45357394218	452.0	-158.0	450	-154	1
1.7	2015_Aug_07_1607	s	s	19	4	SIC	424	ABS	2	1	24VO	0	1	0.623216152191	None	None	None	None	1
1.7	2015_Aug_07_1607	s	s	19	4	SIC	425	RC	2	1	23VO	1	0	1.45893311501	415.0	-159.0	408	-154	1
1.7	2015_Aug_07_1607	s	s	19	4	SIC	426	ABS	1	1	24MO	0	1	1.94832181931	None	None	None	None	1
1.7	2015_Aug_07_1607	s	s	19	4	SIC	427	ABS	0	2	24RD	0	1	0.797236919403	None	None	None	None	1
1.7	2015_Aug_07_1607	s	s	19	4	SIC	428	RC	1	0	23MC	1	0	5.15487003326	512.0	131.0	514	135	1
1.7	2015_Aug_07_1607	s	s	19	4	SIC	429	ABS	1	2	24MD	0	1	0.500686883926	None	None	None	None	1
1.7	2015_Aug_07_1607	s	s	19	4	SIC	430	RC	1	2	23MD	1	0	0.464954853058	379.0	-225.0	387	-221	1
1.7	2015_Aug_07_1607	s	s	19	4	SIC	431	RC	0	2	23RD	1	0	0.482037067413	-537.0	-32.0	-536	-29	1
1.7	2015_Aug_07_1607	s	s	19	4	SIC	432	ABS	1	0	24MC	0	1	2.63058996201	None	None	None	None	1
1.7	2015_Aug_07_1607	s	s	19	4	SIC	433	ABS	2	0	24VC	0	1	0.493718147278	None	None	None	None	1
1.7	2015_Aug_07_1607	s	s	19	4	SIC	434	ABS	1	2	24MD	0	1	0.529033899307	None	None	None	None	1
1.7	2015_Aug_07_1607	s	s	19	4	SIC	435	RC	1	2	23MD	1	0	0.441802024841	-352.0	218.0	-343	216	1
1.7	2015_Aug_07_1607	s	s	19	4	SIC	436	RC	1	0	23MC	1	0	1.61868000031	259.0	-44.0	251	-48	1
1.7	2015_Aug_07_1607	s	s	19	4	SIC	437	ABS	0	2	24RD	0	1	0.55925989151	None	None	None	None	1
1.7	2015_Aug_07_1607	s	s	19	4	SIC	438	RC	1	1	23MO	0	1	2.17178606987	-537.0	31.0	None	None	0
1.7	2015_Aug_07_1607	s	s	19	4	SIC	439	ABS	2	2	24VD	0	1	0.552661895752	None	None	None	None	1
1.7	2015_Aug_07_1607	s	s	19	4	SIC	440	ABS	2	1	24VO	0	1	0.552587032318	None	None	None	None	1
1.7	2015_Aug_07_1607	s	s	19	4	SIC	441	RC	2	0	23VC	1	0	0.587918996811	260.0	-388.0	257	-391	1
1.7	2015_Aug_07_1607	s	s	19	4	SIC	442	ABS	0	1	24RO	0	1	4.60956406593	None	None	None	None	1
1.7	2015_Aug_07_1607	s	s	19	4	SIC	443	RC	2	2	23VD	1	0	0.458470106125	-350.0	-256.0	-342	-259	1
1.7	2015_Aug_07_1607	s	s	19	4	SIC	444	RC	2	1	23VO	1	0	0.46520781517	-88.0	-248.0	-87	-244	1
1.7	2015_Aug_07_1607	s	s	19	4	SIC	445	RC	0	2	23RD	1	0	0.488523960114	-487.0	70.0	-487	70	1
1.7	2015_Aug_07_1607	s	s	19	4	SIC	446	ABS	1	0	24MC	0	1	2.44759607315	None	None	None	None	1
1.7	2015_Aug_07_1607	s	s	19	4	SIC	447	ABS	1	1	24MO	0	1	1.61607003212	None	None	None	None	1
1.7	2015_Aug_07_1607	s	s	19	4	SIC	448	RC	0	1	23RO	1	0	2.63594913483	530.0	197.0	522	194	1
1.7	2015_Aug_07_1607	s	s	19	4	SIC	449	ABS	2	2	24VD	0	1	0.450345993042	None	None	None	None	1
1.7	2015_Aug_07_1607	s	s	19	4	SIC	450	ABS	2	0	24VC	0	1	0.514466047287	None	None	None	None	1
1.7	2015_Aug_07_1607	s	s	19	4	SIC	451	RC	1	0	23MC	1	0	0.835122108459	62.0	171.0	61	176	1
1.7	2015_Aug_07_1607	s	s	19	4	SIC	452	RC	0	2	23RD	1	0	0.479145050049	55.0	-224.0	63	-226	1
1.7	2015_Aug_07_1607	s	s	19	4	SIC	453	ABS	1	1	24MO	0	1	2.7301530838	None	None	None	None	1
1.7	2015_Aug_07_1607	s	s	19	4	SIC	454	ABS	1	0	24MC	0	1	2.40729403496	None	None	None	None	1
1.7	2015_Aug_07_1607	s	s	19	4	SIC	455	RC	1	2	23MD	1	0	0.540820837021	61.0	28.0	66	29	1
1.7	2015_Aug_07_1607	s	s	19	4	SIC	456	RC	1	1	23MO	1	0	1.0035469532	99.0	-6.0	100	-8	1
1.7	2015_Aug_07_1607	s	s	19	4	SIC	457	RC	2	1	23VO	1	0	0.59522485733	409.0	366.0	402	361	1
1.7	2015_Aug_07_1607	s	s	19	4	SIC	458	ABS	0	2	24RD	0	1	0.823184967041	None	None	None	None	1
1.7	2015_Aug_07_1607	s	s	19	4	SIC	459	RC	2	2	23VD	1	0	0.493652820587	-349.0	144.0	-350	139	1
1.7	2015_Aug_07_1607	s	s	19	4	SIC	460	RC	0	1	23RO	1	0	1.19994211197	87.0	-263.0	89	-262	1
1.7	2015_Aug_07_1607	s	s	19	4	SIC	461	ABS	0	1	24RO	0	1	3.64823818207	None	None	None	None	1
1.7	2015_Aug_07_1607	s	s	19	4	SIC	462	ABS	2	1	24VO	0	1	0.540799856186	None	None	None	None	1
1.7	2015_Aug_07_1607	s	s	19	4	SIC	463	ABS	1	2	24MD	0	1	0.641834974289	None	None	None	None	1
1.7	2015_Aug_07_1607	s	s	19	4	SIC	464	RC	2	0	23VC	1	0	0.540845155716	131.0	346.0	127	344	1
1.7	2015_Aug_07_1607	s	s	19	4	SIC	465	RC	0	1	23RO	1	0	2.65966010094	167.0	398.0	161	405	1
1.7	2015_Aug_07_1607	s	s	19	4	SIC	466	RC	2	1	23VO	1	0	0.446487903595	288.0	-103.0	276	-97	1
1.7	2015_Aug_07_1607	s	s	19	4	SIC	467	ABS	2	0	24VC	0	1	0.535216808319	None	None	None	None	1
1.7	2015_Aug_07_1607	s	s	19	4	SIC	468	ABS	2	2	24VD	0	1	0.458395004272	None	None	None	None	1
1.7	2015_Aug_07_1607	s	s	19	4	SIC	469	RC	2	0	23VC	1	0	0.434901952744	373.0	-70.0	382	-74	1
1.7	2015_Aug_07_1607	s	s	19	4	SIC	470	RC	2	2	23VD	1	0	0.470154047012	-501.0	-146.0	-497	-150	1
1.7	2015_Aug_07_1607	s	s	19	4	SIC	471	ABS	1	1	24MO	0	1	2.51813697815	None	None	None	None	1
1.7	2015_Aug_07_1607	s	s	19	4	SIC	472	ABS	0	1	24RO	0	1	3.72762298584	None	None	None	None	1
1.7	2015_Aug_07_1607	s	s	19	4	SIC	473	RC	1	2	23MD	1	0	2.25926804543	-516.0	176.0	-518	175	1
1.7	2015_Aug_07_1607	s	s	19	4	SIC	474	RC	1	1	23MO	1	0	0.682104825974	-307.0	-37.0	-301	-33	1
1.7	2015_Aug_07_1607	s	s	19	4	SIC	475	ABS	1	2	24MD	0	1	0.540947914124	None	None	None	None	1
1.7	2015_Aug_07_1607	s	s	19	4	SIC	476	ABS	1	0	24MC	0	1	2.54184103012	None	None	None	None	1
1.7	2015_Aug_07_1607	s	s	19	4	SIC	477	RC	0	2	23RD	1	0	0.481823921204	-442.0	-239.0	-435	-241	1
1.7	2015_Aug_07_1607	s	s	19	4	SIC	478	ABS	2	1	24VO	0	1	0.535151004791	None	None	None	None	1
1.7	2015_Aug_07_1607	s	s	19	4	SIC	479	RC	1	0	23MC	1	0	1.89443087578	243.0	-359.0	247	-357	1
1.7	2015_Aug_07_1607	s	s	19	4	SIC	480	ABS	0	2	24RD	0	1	0.611470937729	None	None	None	None	1
1.7	2015_Aug_07_1607	s	s	19	4	SIC	481	RC	2	0	23VC	1	0	0.441706895828	248.0	-92.0	251	-83	1
1.7	2015_Aug_07_1607	s	s	19	4	SIC	482	RC	1	1	23MO	1	0	0.576464891434	11.0	-123.0	13	-119	1
1.7	2015_Aug_07_1607	s	s	19	4	SIC	483	ABS	0	2	24RD	0	1	0.505503892899	None	None	None	None	1
1.7	2015_Aug_07_1607	s	s	19	4	SIC	484	ABS	1	2	24MD	0	1	0.524025917053	None	None	None	None	1
1.7	2015_Aug_07_1607	s	s	19	4	SIC	485	RC	1	2	23MD	1	0	0.493679046631	-205.0	38.0	-204	35	1
1.7	2015_Aug_07_1607	s	s	19	4	SIC	486	ABS	1	1	24MO	0	1	2.3013279438	None	None	None	None	1
1.7	2015_Aug_07_1607	s	s	19	4	SIC	487	ABS	0	1	24RO	0	1	4.00930190086	None	None	None	None	1
1.7	2015_Aug_07_1607	s	s	19	4	SIC	488	RC	0	2	23RD	1	0	0.476888895035	-114.0	-46.0	-109	-45	1
1.7	2015_Aug_07_1607	s	s	19	4	SIC	489	ABS	2	1	24VO	0	1	0.547341823578	None	None	None	None	1
1.7	2015_Aug_07_1607	s	s	19	4	SIC	490	ABS	1	0	24MC	0	1	2.90661716461	None	None	None	None	1
1.7	2015_Aug_07_1607	s	s	19	4	SIC	491	RC	2	2	23VD	1	0	0.435211181641	265.0	102.0	259	104	1
1.7	2015_Aug_07_1607	s	s	19	4	SIC	492	RC	1	0	23MC	1	0	3.12545204163	1.0	252.0	10	255	1
1.7	2015_Aug_07_1607	s	s	19	4	SIC	493	RC	0	1	23RO	1	0	3.30685710907	257.0	-255.0	258	-256	1
1.7	2015_Aug_07_1607	s	s	19	4	SIC	494	RC	2	1	23VO	1	0	0.458838939667	379.0	13.0	390	16	1
1.7	2015_Aug_07_1607	s	s	19	4	SIC	495	ABS	2	0	24VC	0	1	0.470287084579	None	None	None	None	1
1.7	2015_Aug_07_1607	s	s	19	4	SIC	496	ABS	2	2	24VD	0	1	0.517372131348	None	None	None	None	1
1.7	2015_Aug_07_1607	s	s	19	4	SIC	497	RC	2	0	23VC	1	0	0.500616073608	-285.0	-262.0	-281	-265	1
1.7	2015_Aug_07_1607	s	s	19	4	SIC	498	RC	1	1	23MO	1	0	0.911643981934	448.0	189.0	449	184	1
1.7	2015_Aug_07_1607	s	s	19	4	SIC	499	ABS	2	1	24VO	0	1	0.517303943634	None	None	None	None	1
1.7	2015_Aug_07_1607	s	s	19	4	SIC	500	ABS	2	2	24VD	0	1	0.505400896072	None	None	None	None	1
1.7	2015_Aug_07_1607	s	s	19	4	SIC	501	ABS	1	2	24MD	0	1	0.540827035904	None	None	None	None	1
1.7	2015_Aug_07_1607	s	s	19	4	SIC	502	RC	1	2	23MD	1	0	0.458348035812	-162.0	216.0	-156	210	1
1.7	2015_Aug_07_1607	s	s	19	4	SIC	503	RC	0	2	23RD	1	0	0.463453054428	176.0	306.0	171	296	1
1.7	2015_Aug_07_1607	s	s	19	4	SIC	504	ABS	0	1	24RO	0	1	4.23175907135	None	None	None	None	1
1.7	2015_Aug_07_1607	s	s	19	4	SIC	505	RC	2	2	23VD	1	0	0.396718025208	-37.0	74.0	-26	76	1
1.7	2015_Aug_07_1607	s	s	19	4	SIC	506	RC	1	0	23MC	0	1	2.09078192711	-40.0	-271.0	None	None	0
1.7	2015_Aug_07_1607	s	s	19	4	SIC	507	ABS	1	1	24MO	0	1	2.15335512161	None	None	None	None	1
1.7	2015_Aug_07_1607	s	s	19	4	SIC	508	ABS	2	0	24VC	0	1	0.585724830627	None	None	None	None	1
1.7	2015_Aug_07_1607	s	s	19	4	SIC	509	ABS	0	2	24RD	0	1	0.698350906372	None	None	None	None	1
1.7	2015_Aug_07_1607	s	s	19	4	SIC	510	RC	2	1	23VO	1	0	0.623270988464	320.0	108.0	322	115	1
1.7	2015_Aug_07_1607	s	s	19	4	SIC	511	RC	0	1	23RO	1	0	0.983144044876	-302.0	318.0	-294	325	1
1.7	2015_Aug_07_1607	s	s	19	4	SIC	512	ABS	1	0	24MC	0	1	2.47121405602	None	None	None	None	1
1.7	2015_Aug_07_1607	s	s	19	4	SIC	513	ABS	1	2	24MD	0	1	0.623189926147	None	None	None	None	1
1.7	2015_Aug_07_1607	s	s	19	4	SIC	514	RC	1	2	23MD	1	0	0.423104047775	-112.0	297.0	-107	296	1
1.7	2015_Aug_07_1607	s	s	19	4	SIC	515	RC	1	1	23MO	1	0	0.976361989975	-3.0	57.0	-1	45	1
1.7	2015_Aug_07_1607	s	s	19	4	SIC	516	RC	2	2	23VD	1	0	0.419761180878	329.0	293.0	335	293	1
1.7	2015_Aug_07_1607	s	s	19	4	SIC	517	ABS	0	2	24RD	0	1	0.670228004456	None	None	None	None	1
1.7	2015_Aug_07_1607	s	s	19	4	SIC	518	ABS	2	1	24VO	0	1	0.511929988861	None	None	None	None	1
1.7	2015_Aug_07_1607	s	s	19	4	SIC	519	ABS	2	0	24VC	0	1	0.688858985901	None	None	None	None	1
1.7	2015_Aug_07_1607	s	s	19	4	SIC	520	RC	0	2	23RD	1	0	0.429999113083	273.0	-24.0	279	-18	1
1.7	2015_Aug_07_1607	s	s	19	4	SIC	521	RC	0	1	23RO	1	0	3.53730201721	-64.0	-225.0	-58	-219	1
1.7	2015_Aug_07_1607	s	s	19	4	SIC	522	RC	2	1	23VO	1	0	0.407401800156	29.0	-103.0	28	-115	1
1.7	2015_Aug_07_1607	s	s	19	4	SIC	523	ABS	1	0	24MC	1	0	0.830149888992	None	None	59	41	0
1.7	2015_Aug_07_1607	s	s	19	4	SIC	524	ABS	1	1	24MO	0	1	2.09451985359	None	None	None	None	1
1.7	2015_Aug_07_1607	s	s	19	4	SIC	525	ABS	0	1	24RO	0	1	3.83121705055	None	None	None	None	1
1.7	2015_Aug_07_1607	s	s	19	4	SIC	526	RC	2	0	23VC	1	0	0.538343906403	460.0	-26.0	464	-26	1
1.7	2015_Aug_07_1607	s	s	19	4	SIC	527	ABS	2	2	24VD	0	1	0.454233169556	None	None	None	None	1
1.7	2015_Aug_07_1607	s	s	19	4	SIC	528	RC	1	0	23MC	1	0	2.08813309669	-475.0	-62.0	-469	-58	1
1.7	2015_Aug_07_1607	s	s	19	4	SIC	529	RC	1	2	23MD	1	0	0.473837852478	-263.0	-287.0	-268	-297	1
1.7	2015_Aug_07_1607	s	s	19	4	SIC	530	ABS	0	2	24RD	0	1	0.547477960587	None	None	None	None	1
1.7	2015_Aug_07_1607	s	s	19	4	SIC	531	ABS	1	0	24MC	0	1	1.47066903114	None	None	None	None	1
1.7	2015_Aug_07_1607	s	s	19	4	SIC	532	ABS	1	2	24MD	0	1	0.482398986816	None	None	None	None	1
1.7	2015_Aug_07_1607	s	s	19	4	SIC	533	RC	1	1	23MO	1	0	1.74138998985	-222.0	-89.0	-220	-95	1
1.7	2015_Aug_07_1607	s	s	19	4	SIC	534	RC	2	2	23VD	1	0	0.408314943314	-32.0	-21.0	-33	-20	1
1.7	2015_Aug_07_1607	s	s	19	4	SIC	535	RC	1	0	23MC	1	0	0.940994977951	250.0	114.0	245	110	1
1.7	2015_Aug_07_1607	s	s	19	4	SIC	536	ABS	1	1	24MO	0	1	1.27751207352	None	None	None	None	1
1.7	2015_Aug_07_1607	s	s	19	4	SIC	537	RC	2	0	23VC	1	0	0.441135883331	-176.0	333.0	-177	329	1
1.7	2015_Aug_07_1607	s	s	19	4	SIC	538	RC	0	1	23RO	1	0	2.70127511024	330.0	-325.0	329	-327	1
1.7	2015_Aug_07_1607	s	s	19	4	SIC	539	RC	0	2	23RD	1	0	0.952772140503	454.0	274.0	448	274	1
1.7	2015_Aug_07_1607	s	s	19	4	SIC	540	ABS	0	1	24RO	0	1	3.48352384567	None	None	None	None	1
1.7	2015_Aug_07_1607	s	s	19	4	SIC	541	RC	2	1	23VO	1	0	0.455950975418	537.0	-121.0	538	-122	1
1.7	2015_Aug_07_1607	s	s	19	4	SIC	542	ABS	2	1	24VO	0	1	0.524075031281	None	None	None	None	1
1.7	2015_Aug_07_1607	s	s	19	4	SIC	543	ABS	2	2	24VD	0	1	0.505414962769	None	None	None	None	1
1.7	2015_Aug_07_1607	s	s	19	4	SIC	544	ABS	2	0	24VC	0	1	0.632021188736	None	None	None	None	1
1.7	2015_Aug_07_1607	s	s	19	4	SIC	545	RC	0	2	23RD	1	0	0.548140048981	256.0	-373.0	261	-372	1
1.7	2015_Aug_07_1607	s	s	19	4	SIC	546	ABS	2	0	24VC	0	1	0.529014110565	None	None	None	None	1
1.7	2015_Aug_07_1607	s	s	19	4	SIC	547	RC	1	1	23MO	1	0	0.952807188034	201.0	-164.0	202	-157	1
1.7	2015_Aug_07_1607	s	s	19	4	SIC	548	ABS	1	0	24MC	0	1	2.45434403419	None	None	None	None	1
1.7	2015_Aug_07_1607	s	s	19	4	SIC	549	RC	2	0	23VC	1	0	0.423152923584	57.0	-36.0	63	-33	1
1.7	2015_Aug_07_1607	s	s	19	4	SIC	550	RC	2	1	23VO	1	0	1.01735591888	11.0	247.0	13	242	1
1.7	2015_Aug_07_1607	s	s	19	4	SIC	551	ABS	0	1	24RO	0	1	3.89552497864	None	None	None	None	1
1.7	2015_Aug_07_1607	s	s	19	4	SIC	552	ABS	1	2	24MD	0	1	0.535498857498	None	None	None	None	1
1.7	2015_Aug_07_1607	s	s	19	4	SIC	553	ABS	1	1	24MO	0	1	2.13715791702	None	None	None	None	1
1.7	2015_Aug_07_1607	s	s	19	4	SIC	554	RC	2	2	23VD	1	0	0.458451032639	-477.0	146.0	-480	155	1
1.7	2015_Aug_07_1607	s	s	19	4	SIC	555	RC	1	2	23MD	1	0	0.475765943527	489.0	285.0	489	282	1
1.7	2015_Aug_07_1607	s	s	19	4	SIC	556	RC	1	0	23MC	1	0	2.24740195274	58.0	-368.0	60	-368	1
1.7	2015_Aug_07_1607	s	s	19	4	SIC	557	ABS	2	1	24VO	0	1	0.453398942947	None	None	None	None	1
1.7	2015_Aug_07_1607	s	s	19	4	SIC	558	ABS	2	2	24VD	0	1	0.524156808853	None	None	None	None	1
1.7	2015_Aug_07_1607	s	s	19	4	SIC	559	ABS	0	2	24RD	0	1	0.528975009918	None	None	None	None	1
1.7	2015_Aug_07_1607	s	s	19	4	SIC	560	RC	0	1	23RO	1	0	1.71790504456	-452.0	-30.0	-460	-25	1
1.7	2015_Aug_07_1607	s	s	19	4	SIC	561	RC	2	1	23VO	1	0	2.33682513237	492.0	251.0	499	253	1
1.7	2015_Aug_07_1607	s	s	19	4	SIC	562	RC	1	0	23MC	1	0	1.43046498299	511.0	195.0	512	198	1
1.7	2015_Aug_07_1607	s	s	19	4	SIC	563	ABS	2	1	24VO	0	1	0.529031991959	None	None	None	None	1
1.7	2015_Aug_07_1607	s	s	19	4	SIC	564	RC	2	2	23VD	1	0	0.434834003448	-490.0	-339.0	-493	-340	1
1.7	2015_Aug_07_1607	s	s	19	4	SIC	565	RC	1	2	23MD	1	0	0.462081193924	52.0	-223.0	62	-216	1
1.7	2015_Aug_07_1607	s	s	19	4	SIC	566	ABS	2	0	24VC	0	1	0.705612182617	None	None	None	None	1
1.7	2015_Aug_07_1607	s	s	19	4	SIC	567	ABS	1	1	24MO	0	1	2.15333914757	None	None	None	None	1
1.7	2015_Aug_07_1607	s	s	19	4	SIC	568	ABS	1	2	24MD	0	1	0.564364910126	None	None	None	None	1
1.7	2015_Aug_07_1607	s	s	19	4	SIC	569	RC	1	1	23MO	1	0	1.17051506042	511.0	-85.0	513	-80	1
1.7	2015_Aug_07_1607	s	s	19	4	SIC	570	ABS	0	2	24RD	0	1	0.552629947662	None	None	None	None	1
1.7	2015_Aug_07_1607	s	s	19	4	SIC	571	RC	2	0	23VC	1	0	0.500569105148	90.0	-323.0	98	-315	1
1.7	2015_Aug_07_1607	s	s	19	4	SIC	572	RC	0	2	23RD	1	0	0.505419969559	-155.0	-267.0	-154	-267	1
1.7	2015_Aug_07_1607	s	s	19	4	SIC	573	RC	0	1	23RO	1	0	1.88919210434	-145.0	341.0	-143	340	1
1.7	2015_Aug_07_1607	s	s	19	4	SIC	574	ABS	2	2	24VD	0	1	0.629703044891	None	None	None	None	1
1.7	2015_Aug_07_1607	s	s	19	4	SIC	575	ABS	0	1	24RO	0	1	3.37487912178	None	None	None	None	1
1.7	2015_Aug_07_1607	s	s	19	4	SIC	576	ABS	1	0	24MC	0	1	4.27900195122	None	None	None	None	1
1.7	2015_Aug_07_1607	s	s	19	4	SIC	577	RC	2	1	23VO	1	0	0.611320018768	-357.0	300.0	-359	287	1
1.7	2015_Aug_07_1607	s	s	19	4	SIC	578	ABS	1	2	24MD	0	1	1.07695198059	None	None	None	None	1
1.7	2015_Aug_07_1607	s	s	19	4	SIC	579	RC	0	1	23RO	1	0	2.86635494232	-156.0	113.0	-145	113	1
1.7	2015_Aug_07_1607	s	s	19	4	SIC	580	ABS	2	1	24VO	0	1	0.795063972473	None	None	None	None	1
1.7	2015_Aug_07_1607	s	s	19	4	SIC	581	RC	0	2	23RD	1	0	0.432110071182	0.0	-61.0	7	-64	1
1.7	2015_Aug_07_1607	s	s	19	4	SIC	582	ABS	2	0	24VC	0	1	0.552565097809	None	None	None	None	1
1.7	2015_Aug_07_1607	s	s	19	4	SIC	583	RC	1	1	23MO	1	0	0.964567899704	249.0	230.0	247	228	1
1.7	2015_Aug_07_1607	s	s	19	4	SIC	584	ABS	0	2	24RD	0	1	0.620661973953	None	None	None	None	1
1.7	2015_Aug_07_1607	s	s	19	4	SIC	585	RC	2	0	23VC	1	0	0.453311920166	100.0	217.0	102	210	1
1.7	2015_Aug_07_1607	s	s	19	4	SIC	586	RC	2	2	23VD	1	0	0.458556175232	-435.0	-313.0	-437	-312	1
1.7	2015_Aug_07_1607	s	s	19	4	SIC	587	ABS	1	1	24MO	0	1	2.07099509239	None	None	None	None	1
1.7	2015_Aug_07_1607	s	s	19	4	SIC	588	ABS	2	2	24VD	0	1	0.476945877075	None	None	None	None	1
1.7	2015_Aug_07_1607	s	s	19	4	SIC	589	ABS	0	1	24RO	0	1	2.88315391541	None	None	None	None	1
1.7	2015_Aug_07_1607	s	s	19	4	SIC	590	ABS	1	0	24MC	0	1	3.37239813805	None	None	None	None	1
1.7	2015_Aug_07_1607	s	s	19	4	SIC	591	RC	1	2	23MD	1	0	0.514729976654	-154.0	203.0	-154	197	1
1.7	2015_Aug_07_1607	s	s	19	4	SIC	592	RC	1	0	23MC	0	1	2.31843209267	530.0	356.0	None	None	0
