Version	Date	Stimuli	Method	Subject	Session	Condition	Trial	Target	Channel1	Channel2	Distractors	LMouseButton	RMouseButton	RT	TargetX	TargetY	ResponseX	ResponseY	Correct
1.7	2015_Aug_04_1611	s	s	19	1	Capacity	1	RC	2	0	23VC	1	0	5.15020895004	75.0	254.0	82	254	1
1.7	2015_Aug_04_1611	s	s	19	1	Capacity	2	RC	1	0	23MC	0	1	13.5773019791	499.0	-348.0	None	None	0
1.7	2015_Aug_04_1611	s	s	19	1	Capacity	3	ABS	2	0	24VC	0	1	3.85484695435	None	None	None	None	1
1.7	2015_Aug_04_1611	s	s	19	1	Capacity	4	ABS	1	0	24MC	0	0	-1	None	None	None	None	-1
1.7	2015_Aug_04_1611	s	s	19	1	Capacity	5	RC	1	0	23MC	0	1	2.50644803047	-525.0	-73.0	None	None	0
1.7	2015_Aug_04_1611	s	s	19	1	Capacity	6	RC	2	0	23VC	1	0	2.66612505913	84.0	40.0	75	41	1
1.7	2015_Aug_04_1611	s	s	19	1	Capacity	7	ABS	1	0	24MC	0	1	6.76226019859	None	None	None	None	1
1.7	2015_Aug_04_1611	s	s	19	1	Capacity	8	ABS	2	0	24VC	0	1	2.58886599541	None	None	None	None	1
1.7	2015_Aug_04_1611	s	s	19	1	Capacity	9	RC	1	0	23MC	0	1	6.56733512878	-362.0	262.0	None	None	0
1.7	2015_Aug_04_1611	s	s	19	1	Capacity	10	ABS	2	0	24VC	0	1	2.08648300171	None	None	None	None	1
1.7	2015_Aug_04_1611	s	s	19	1	Capacity	11	RC	2	0	23VC	1	0	1.5177359581	441.0	-343.0	448	-350	1
1.7	2015_Aug_04_1611	s	s	19	1	Capacity	12	ABS	1	0	24MC	0	1	11.4375960827	None	None	None	None	1
1.7	2015_Aug_04_1611	s	s	19	1	Capacity	13	ABS	1	0	24MC	0	1	11.7698829174	None	None	None	None	1
1.7	2015_Aug_04_1611	s	s	19	1	Capacity	14	RC	2	0	23VC	1	0	1.68251204491	189.0	237.0	181	235	1
1.7	2015_Aug_04_1611	s	s	19	1	Capacity	15	RC	1	0	23MC	1	0	4.5612142086	507.0	-95.0	498	-95	1
1.7	2015_Aug_04_1611	s	s	19	1	Capacity	16	ABS	2	0	24VC	0	1	2.82423186302	None	None	None	None	1
1.7	2015_Aug_04_1611	s	s	19	1	Capacity	17	RC	2	0	23VC	1	0	3.13036894798	521.0	-199.0	516	-192	1
1.7	2015_Aug_04_1611	s	s	19	1	Capacity	18	ABS	1	0	24MC	0	1	13.2412600517	None	None	None	None	1
1.7	2015_Aug_04_1611	s	s	19	1	Capacity	19	RC	1	0	23MC	1	0	5.73166799545	-521.0	-367.0	-522	-366	1
1.7	2015_Aug_04_1611	s	s	19	1	Capacity	20	ABS	2	0	24VC	0	1	2.37706398964	None	None	None	None	1
1.7	2015_Aug_04_1611	s	s	19	1	Capacity	21	ABS	1	0	24MC	0	1	15.230517149	None	None	None	None	1
1.7	2015_Aug_04_1611	s	s	19	1	Capacity	22	RC	1	0	23MC	1	0	2.76022481918	68.0	-72.0	68	-77	1
1.7	2015_Aug_04_1611	s	s	19	1	Capacity	23	RC	2	0	23VC	1	0	1.53613996506	16.0	-2.0	18	-5	1
1.7	2015_Aug_04_1611	s	s	19	1	Capacity	24	ABS	2	0	24VC	0	1	1.68252420425	None	None	None	None	1
1.7	2015_Aug_04_1611	s	s	19	1	Capacity	25	ABS	2	0	24VC	0	1	1.62357115746	None	None	None	None	1
1.7	2015_Aug_04_1611	s	s	19	1	Capacity	26	RC	2	0	23VC	1	0	0.88213300705	-22.0	120.0	-31	126	1
1.7	2015_Aug_04_1611	s	s	19	1	Capacity	27	ABS	1	0	24MC	0	1	10.8700368404	None	None	None	None	1
1.7	2015_Aug_04_1611	s	s	19	1	Capacity	28	RC	1	0	23MC	1	0	8.02432107925	155.0	-23.0	153	-21	1
1.7	2015_Aug_04_1611	s	s	19	1	Capacity	29	RC	2	0	23VC	1	0	1.24696493149	420.0	370.0	421	369	1
1.7	2015_Aug_04_1611	s	s	19	1	Capacity	30	RC	1	0	23MC	1	0	1.4183921814	-129.0	241.0	-121	239	1
1.7	2015_Aug_04_1611	s	s	19	1	Capacity	31	ABS	1	0	24MC	0	1	9.48189806938	None	None	None	None	1
1.7	2015_Aug_04_1611	s	s	19	1	Capacity	32	ABS	2	0	24VC	0	1	2.5300090313	None	None	None	None	1
1.7	2015_Aug_04_1611	s	s	19	1	Capacity	33	RC	1	0	23MC	1	0	4.62260699272	-238.0	126.0	-242	128	1
1.7	2015_Aug_04_1611	s	s	19	1	Capacity	34	ABS	1	0	24MC	0	1	16.6900830269	None	None	None	None	1
1.7	2015_Aug_04_1611	s	s	19	1	Capacity	35	ABS	2	0	24VC	0	1	2.32998013496	None	None	None	None	1
1.7	2015_Aug_04_1611	s	s	19	1	Capacity	36	RC	2	0	23VC	1	0	1.41185307503	-332.0	-204.0	-335	-207	1
1.7	2015_Aug_04_1611	s	s	19	1	Capacity	37	RC	2	0	23VC	1	0	1.37654304504	-345.0	23.0	-349	16	1
1.7	2015_Aug_04_1611	s	s	19	1	Capacity	38	RC	1	0	23MC	1	0	1.60696578026	74.0	203.0	86	207	1
1.7	2015_Aug_04_1611	s	s	19	1	Capacity	39	ABS	2	0	24VC	0	1	1.67079305649	None	None	None	None	1
1.7	2015_Aug_04_1611	s	s	19	1	Capacity	40	ABS	1	0	24MC	0	1	13.3302769661	None	None	None	None	1
1.7	2015_Aug_04_1611	s	s	19	1	Capacity	41	RC	2	0	23VC	1	0	0.917423963547	354.0	346.0	344	354	1
1.7	2015_Aug_04_1611	s	s	19	1	Capacity	42	ABS	1	0	24MC	0	1	8.19783210754	None	None	None	None	1
1.7	2015_Aug_04_1611	s	s	19	1	Capacity	43	ABS	2	0	24VC	0	1	1.90312409401	None	None	None	None	1
1.7	2015_Aug_04_1611	s	s	19	1	Capacity	44	RC	1	0	23MC	1	0	3.31062293053	-104.0	406.0	-107	414	1
1.7	2015_Aug_04_1611	s	s	19	1	Capacity	45	ABS	1	0	24MC	0	1	10.9996140003	None	None	None	None	1
1.7	2015_Aug_04_1611	s	s	19	1	Capacity	46	RC	2	0	23VC	1	0	1.22348999977	137.0	269.0	138	270	1
1.7	2015_Aug_04_1611	s	s	19	1	Capacity	47	ABS	2	0	24VC	0	1	1.42358899117	None	None	None	None	1
1.7	2015_Aug_04_1611	s	s	19	1	Capacity	48	RC	1	0	23MC	1	0	7.41135287285	371.0	307.0	381	312	1
1.7	2015_Aug_04_1611	s	s	19	1	Capacity	49	ABS	2	0	24VC	0	1	0.891352891922	None	None	None	None	1
1.7	2015_Aug_04_1611	s	s	19	1	Capacity	50	RC	1	0	23MC	1	0	12.1583120823	-402.0	-187.0	-393	-183	1
1.7	2015_Aug_04_1611	s	s	19	1	Capacity	51	RC	2	0	23VC	1	0	1.442237854	-96.0	398.0	-101	399	1
1.7	2015_Aug_04_1611	s	s	19	1	Capacity	52	ABS	1	0	24MC	0	1	10.3454799652	None	None	None	None	1
1.7	2015_Aug_04_1611	s	s	19	1	Capacity	53	RC	1	0	23MC	1	0	18.0435900688	361.0	-412.0	358	-416	1
1.7	2015_Aug_04_1611	s	s	19	1	Capacity	54	ABS	1	0	24MC	0	1	17.2734370232	None	None	None	None	1
1.7	2015_Aug_04_1611	s	s	19	1	Capacity	55	RC	2	0	23VC	1	0	1.01164197922	518.0	-230.0	526	-230	1
1.7	2015_Aug_04_1611	s	s	19	1	Capacity	56	ABS	2	0	24VC	0	1	0.924264907837	None	None	None	None	1
1.7	2015_Aug_04_1611	s	s	19	1	Capacity	57	RC	2	0	23VC	1	0	1.03074002266	216.0	-332.0	214	-330	1
1.7	2015_Aug_04_1611	s	s	19	1	Capacity	58	ABS	1	0	24MC	0	0	-1	None	None	None	None	-1
1.7	2015_Aug_04_1611	s	s	19	1	Capacity	59	ABS	2	0	24VC	0	1	1.60743522644	None	None	None	None	1
1.7	2015_Aug_04_1611	s	s	19	1	Capacity	60	RC	1	0	23MC	1	0	2.44766998291	331.0	-142.0	330	-145	1
1.7	2015_Aug_04_1611	s	s	19	1	Capacity	61	RC	2	0	23VC	1	0	0.846832036972	263.0	215.0	258	216	1
1.7	2015_Aug_04_1611	s	s	19	1	Capacity	62	ABS	2	0	24VC	0	1	0.782029151917	None	None	None	None	1
1.7	2015_Aug_04_1611	s	s	19	1	Capacity	63	RC	1	0	23MC	1	0	2.6543738842	-134.0	-20.0	-133	-25	1
1.7	2015_Aug_04_1611	s	s	19	1	Capacity	64	ABS	1	0	24MC	0	1	6.25641393661	None	None	None	None	1
1.7	2015_Aug_04_1611	s	s	19	1	Capacity	65	RC	1	0	23MC	1	0	17.0271680355	-67.0	-389.0	-59	-385	1
1.7	2015_Aug_04_1611	s	s	19	1	Capacity	66	RC	2	0	23VC	1	0	0.912975072861	156.0	115.0	156	118	1
1.7	2015_Aug_04_1611	s	s	19	1	Capacity	67	ABS	2	0	24VC	0	1	0.893977880478	None	None	None	None	1
1.7	2015_Aug_04_1611	s	s	19	1	Capacity	68	ABS	1	0	24MC	0	1	9.1190431118	None	None	None	None	1
1.7	2015_Aug_04_1611	s	s	19	1	Capacity	69	ABS	2	0	24VC	0	1	0.962044000626	None	None	None	None	1
1.7	2015_Aug_04_1611	s	s	19	1	Capacity	70	RC	2	0	23VC	1	0	1.86613416672	509.0	340.0	512	342	1
1.7	2015_Aug_04_1611	s	s	19	1	Capacity	71	ABS	1	0	24MC	0	1	10.6584939957	None	None	None	None	1
1.7	2015_Aug_04_1611	s	s	19	1	Capacity	72	RC	1	0	23MC	1	0	11.3299098015	-415.0	-217.0	-413	-221	1
1.7	2015_Aug_04_1611	s	s	19	1	Capacity	73	ABS	2	0	24VC	0	1	0.994880914688	None	None	None	None	1
1.7	2015_Aug_04_1611	s	s	19	1	Capacity	74	ABS	1	0	24MC	0	1	8.527810812	None	None	None	None	1
1.7	2015_Aug_04_1611	s	s	19	1	Capacity	75	RC	2	0	23VC	1	0	0.783045053482	138.0	10.0	144	7	1
1.7	2015_Aug_04_1611	s	s	19	1	Capacity	76	RC	1	0	23MC	1	0	1.65583395958	255.0	-80.0	265	-77	1
1.7	2015_Aug_04_1611	s	s	19	1	Capacity	77	RC	2	0	23VC	1	0	1.19463205338	-437.0	152.0	-441	146	1
1.7	2015_Aug_04_1611	s	s	19	1	Capacity	78	ABS	1	0	24MC	0	1	6.24443984032	None	None	None	None	1
1.7	2015_Aug_04_1611	s	s	19	1	Capacity	79	RC	1	0	23MC	1	0	1.60709500313	-226.0	-252.0	-219	-248	1
1.7	2015_Aug_04_1611	s	s	19	1	Capacity	80	ABS	2	0	24VC	0	1	0.799637079239	None	None	None	None	1
1.7	2015_Aug_04_1611	s	s	19	1	Capacity	81	ABS	2	0	24VC	0	1	1.03014683723	None	None	None	None	1
1.7	2015_Aug_04_1611	s	s	19	1	Capacity	82	RC	2	0	23VC	1	0	0.81201004982	-10.0	-259.0	-8	-263	1
1.7	2015_Aug_04_1611	s	s	19	1	Capacity	83	RC	1	0	23MC	1	0	15.5544538498	236.0	-348.0	230	-342	1
1.7	2015_Aug_04_1611	s	s	19	1	Capacity	84	ABS	1	0	24MC	0	1	9.06009101868	None	None	None	None	1
1.7	2015_Aug_04_1611	s	s	19	1	Capacity	85	ABS	2	0	24VC	0	1	0.808213949203	None	None	None	None	1
1.7	2015_Aug_04_1611	s	s	19	1	Capacity	86	ABS	1	0	24MC	0	1	14.719312191	None	None	None	None	1
1.7	2015_Aug_04_1611	s	s	19	1	Capacity	87	RC	1	0	23MC	1	0	14.5007059574	-266.0	-399.0	-263	-403	1
1.7	2015_Aug_04_1611	s	s	19	1	Capacity	88	RC	2	0	23VC	1	0	1.32436680794	-194.0	273.0	-205	274	1
1.7	2015_Aug_04_1611	s	s	19	1	Capacity	89	RC	1	0	23MC	1	0	9.59244894981	-452.0	-180.0	-445	-183	1
1.7	2015_Aug_04_1611	s	s	19	1	Capacity	90	ABS	1	0	24MC	0	1	7.2735350132	None	None	None	None	1
1.7	2015_Aug_04_1611	s	s	19	1	Capacity	91	RC	2	0	23VC	1	0	0.877554893494	265.0	-137.0	271	-138	1
1.7	2015_Aug_04_1611	s	s	19	1	Capacity	92	ABS	2	0	24VC	0	1	1.11761212349	None	None	None	None	1
1.7	2015_Aug_04_1611	s	s	19	1	Capacity	1	ABS	0	2	24RD	0	1	2.6867480278	None	None	None	None	1
1.7	2015_Aug_04_1611	s	s	19	1	Capacity	2	ABS	0	1	24RO	0	1	6.62290096283	None	None	None	None	1
1.7	2015_Aug_04_1611	s	s	19	1	Capacity	3	RC	0	1	23RO	1	0	1.57655882835	-88.0	300.0	-83	301	1
1.7	2015_Aug_04_1611	s	s	19	1	Capacity	4	RC	0	2	23RD	1	0	0.747811079025	-54.0	163.0	-51	169	1
1.7	2015_Aug_04_1611	s	s	19	1	Capacity	5	ABS	0	2	24RD	0	1	2.65468192101	None	None	None	None	1
1.7	2015_Aug_04_1611	s	s	19	1	Capacity	6	ABS	0	1	24RO	0	1	6.90871810913	None	None	None	None	1
1.7	2015_Aug_04_1611	s	s	19	1	Capacity	7	RC	0	1	23RO	1	0	4.7076280117	485.0	-395.0	489	-391	1
1.7	2015_Aug_04_1611	s	s	19	1	Capacity	8	RC	0	2	23RD	1	0	4.43340301514	-435.0	287.0	-433	284	1
1.7	2015_Aug_04_1611	s	s	19	1	Capacity	9	ABS	0	1	24RO	0	1	9.78066396713	None	None	None	None	1
1.7	2015_Aug_04_1611	s	s	19	1	Capacity	10	RC	0	1	23RO	1	0	4.9401640892	-83.0	-267.0	-84	-278	1
1.7	2015_Aug_04_1611	s	s	19	1	Capacity	11	RC	0	2	23RD	1	0	0.867127180099	-384.0	-31.0	-381	-32	1
1.7	2015_Aug_04_1611	s	s	19	1	Capacity	12	ABS	0	2	24RD	0	1	1.86279392242	None	None	None	None	1
1.7	2015_Aug_04_1611	s	s	19	1	Capacity	13	RC	0	1	23RO	1	0	3.41282391548	-447.0	258.0	-449	264	1
1.7	2015_Aug_04_1611	s	s	19	1	Capacity	14	RC	0	2	23RD	1	0	1.41186690331	-171.0	-335.0	-169	-337	1
1.7	2015_Aug_04_1611	s	s	19	1	Capacity	15	ABS	0	1	24RO	0	1	6.67357707024	None	None	None	None	1
1.7	2015_Aug_04_1611	s	s	19	1	Capacity	16	ABS	0	2	24RD	1	0	1.85602998734	None	None	25	-92	0
1.7	2015_Aug_04_1611	s	s	19	1	Capacity	17	RC	0	2	23RD	1	0	1.82382392883	-405.0	-325.0	-399	-327	1
1.7	2015_Aug_04_1611	s	s	19	1	Capacity	18	RC	0	1	23RO	1	0	1.09410905838	-89.0	41.0	-87	42	1
1.7	2015_Aug_04_1611	s	s	19	1	Capacity	19	ABS	0	1	24RO	0	1	10.9614591599	None	None	None	None	1
1.7	2015_Aug_04_1611	s	s	19	1	Capacity	20	ABS	0	2	24RD	0	1	2.99809408188	None	None	None	None	1
1.7	2015_Aug_04_1611	s	s	19	1	Capacity	21	ABS	0	1	24RO	0	1	7.13227915764	None	None	None	None	1
1.7	2015_Aug_04_1611	s	s	19	1	Capacity	22	ABS	0	2	24RD	0	1	2.0473959446	None	None	None	None	1
1.7	2015_Aug_04_1611	s	s	19	1	Capacity	23	RC	0	1	23RO	1	0	2.27107787132	180.0	211.0	171	209	1
1.7	2015_Aug_04_1611	s	s	19	1	Capacity	24	RC	0	2	23RD	1	0	1.06560897827	249.0	240.0	253	241	1
1.7	2015_Aug_04_1611	s	s	19	1	Capacity	25	RC	0	2	23RD	1	0	1.40005993843	-329.0	-396.0	-327	-395	1
1.7	2015_Aug_04_1611	s	s	19	1	Capacity	26	RC	0	1	23RO	1	0	5.7165081501	355.0	-188.0	362	-189	1
1.7	2015_Aug_04_1611	s	s	19	1	Capacity	27	ABS	0	2	24RD	0	1	1.8472700119	None	None	None	None	1
1.7	2015_Aug_04_1611	s	s	19	1	Capacity	28	ABS	0	1	24RO	0	1	6.86775279045	None	None	None	None	1
1.7	2015_Aug_04_1611	s	s	19	1	Capacity	29	RC	0	1	23RO	1	0	1.02343392372	-64.0	171.0	-59	173	1
1.7	2015_Aug_04_1611	s	s	19	1	Capacity	30	RC	0	2	23RD	1	0	0.75285410881	127.0	13.0	132	5	1
1.7	2015_Aug_04_1611	s	s	19	1	Capacity	31	ABS	0	2	24RD	0	1	1.24186491966	None	None	None	None	1
1.7	2015_Aug_04_1611	s	s	19	1	Capacity	32	ABS	0	1	24RO	0	1	5.9619781971	None	None	None	None	1
1.7	2015_Aug_04_1611	s	s	19	1	Capacity	33	ABS	0	2	24RD	0	1	1.60685515404	None	None	None	None	1
1.7	2015_Aug_04_1611	s	s	19	1	Capacity	34	RC	0	2	23RD	1	0	1.06562018394	486.0	-123.0	489	-119	1
1.7	2015_Aug_04_1611	s	s	19	1	Capacity	35	ABS	0	1	24RO	0	1	5.47014212608	None	None	None	None	1
1.7	2015_Aug_04_1611	s	s	19	1	Capacity	36	RC	0	1	23RO	1	0	2.24513602257	405.0	1.0	404	4	1
1.7	2015_Aug_04_1611	s	s	19	1	Capacity	37	RC	0	1	23RO	1	0	1.44715499878	-264.0	256.0	-266	262	1
1.7	2015_Aug_04_1611	s	s	19	1	Capacity	38	ABS	0	2	24RD	0	1	1.44712615013	None	None	None	None	1
1.7	2015_Aug_04_1611	s	s	19	1	Capacity	39	RC	0	2	23RD	1	0	0.764472007751	422.0	163.0	420	158	1
1.7	2015_Aug_04_1611	s	s	19	1	Capacity	40	ABS	0	1	24RO	0	1	6.05556988716	None	None	None	None	1
1.7	2015_Aug_04_1611	s	s	19	1	Capacity	41	RC	0	2	23RD	1	0	1.23189377785	-171.0	-401.0	-169	-404	1
1.7	2015_Aug_04_1611	s	s	19	1	Capacity	42	ABS	0	2	24RD	0	1	3.55411481857	None	None	None	None	1
1.7	2015_Aug_04_1611	s	s	19	1	Capacity	43	ABS	0	1	24RO	0	1	4.34900593758	None	None	None	None	1
1.7	2015_Aug_04_1611	s	s	19	1	Capacity	44	RC	0	1	23RO	1	0	2.70090794563	166.0	298.0	166	302	1
1.7	2015_Aug_04_1611	s	s	19	1	Capacity	45	ABS	0	2	24RD	0	1	2.12661600113	None	None	None	None	1
1.7	2015_Aug_04_1611	s	s	19	1	Capacity	46	RC	0	2	23RD	1	0	0.881932020187	-226.0	-57.0	-222	-50	1
1.7	2015_Aug_04_1611	s	s	19	1	Capacity	47	RC	0	1	23RO	1	0	3.89912509918	295.0	206.0	290	214	1
1.7	2015_Aug_04_1611	s	s	19	1	Capacity	48	ABS	0	1	24RO	0	1	5.34325098991	None	None	None	None	1
1.7	2015_Aug_04_1611	s	s	19	1	Capacity	49	ABS	0	2	24RD	0	1	1.0470199585	None	None	None	None	1
1.7	2015_Aug_04_1611	s	s	19	1	Capacity	50	ABS	0	1	24RO	0	1	6.11482405663	None	None	None	None	1
1.7	2015_Aug_04_1611	s	s	19	1	Capacity	51	RC	0	1	23RO	1	0	3.45507407188	94.0	-289.0	102	-294	1
1.7	2015_Aug_04_1611	s	s	19	1	Capacity	52	RC	0	2	23RD	1	0	0.711689949036	29.0	-8.0	35	-11	1
1.7	2015_Aug_04_1611	s	s	19	1	Capacity	53	ABS	0	1	24RO	0	1	5.11947989464	None	None	None	None	1
1.7	2015_Aug_04_1611	s	s	19	1	Capacity	54	RC	0	1	23RO	1	0	2.8892428875	-332.0	-55.0	-324	-54	1
1.7	2015_Aug_04_1611	s	s	19	1	Capacity	55	ABS	0	2	24RD	0	1	2.85410690308	None	None	None	None	1
1.7	2015_Aug_04_1611	s	s	19	1	Capacity	56	RC	0	2	23RD	1	0	0.773498058319	538.0	-86.0	546	-85	1
1.7	2015_Aug_04_1611	s	s	19	1	Capacity	57	RC	0	2	23RD	1	0	1.01833510399	105.0	350.0	104	353	1
1.7	2015_Aug_04_1611	s	s	19	1	Capacity	58	ABS	0	1	24RO	0	1	5.17363286018	None	None	None	None	1
1.7	2015_Aug_04_1611	s	s	19	1	Capacity	59	ABS	0	2	24RD	0	1	1.39705514908	None	None	None	None	1
1.7	2015_Aug_04_1611	s	s	19	1	Capacity	60	RC	0	1	23RO	1	0	0.984829902649	137.0	367.0	131	370	1
1.7	2015_Aug_04_1611	s	s	19	1	Capacity	61	RC	0	1	23RO	1	0	4.52580904961	-512.0	331.0	-514	328	1
1.7	2015_Aug_04_1611	s	s	19	1	Capacity	62	ABS	0	2	24RD	0	1	1.05059981346	None	None	None	None	1
1.7	2015_Aug_04_1611	s	s	19	1	Capacity	63	ABS	0	1	24RO	0	1	6.53207397461	None	None	None	None	1
1.7	2015_Aug_04_1611	s	s	19	1	Capacity	64	RC	0	2	23RD	1	0	0.770605802536	-77.0	319.0	-77	314	1
1.7	2015_Aug_04_1611	s	s	19	1	Capacity	65	ABS	0	1	24RO	0	1	5.41390919685	None	None	None	None	1
1.7	2015_Aug_04_1611	s	s	19	1	Capacity	66	RC	0	1	23RO	1	0	1.03523087502	322.0	316.0	325	316	1
1.7	2015_Aug_04_1611	s	s	19	1	Capacity	67	ABS	0	2	24RD	0	1	1.2660779953	None	None	None	None	1
1.7	2015_Aug_04_1611	s	s	19	1	Capacity	68	RC	0	2	23RD	1	0	0.799759149551	161.0	-286.0	154	-277	1
1.7	2015_Aug_04_1611	s	s	19	1	Capacity	69	RC	0	1	23RO	1	0	4.51427912712	90.0	-327.0	86	-327	1
1.7	2015_Aug_04_1611	s	s	19	1	Capacity	70	RC	0	2	23RD	1	0	1.01839399338	-471.0	-372.0	-466	-376	1
1.7	2015_Aug_04_1611	s	s	19	1	Capacity	71	ABS	0	1	24RO	0	1	5.04888796806	None	None	None	None	1
1.7	2015_Aug_04_1611	s	s	19	1	Capacity	72	ABS	0	2	24RD	0	1	1.6355099678	None	None	None	None	1
1.7	2015_Aug_04_1611	s	s	19	1	Capacity	73	RC	0	1	23RO	1	0	2.81254601479	99.0	-158.0	101	-158	1
1.7	2015_Aug_04_1611	s	s	19	1	Capacity	74	ABS	0	2	24RD	0	1	1.58271694183	None	None	None	None	1
1.7	2015_Aug_04_1611	s	s	19	1	Capacity	75	ABS	0	1	24RO	0	1	4.94956588745	None	None	None	None	1
1.7	2015_Aug_04_1611	s	s	19	1	Capacity	76	RC	0	2	23RD	1	0	1.05368685722	-11.0	-195.0	-20	-192	1
1.7	2015_Aug_04_1611	s	s	19	1	Capacity	77	ABS	0	2	24RD	0	1	1.25878500938	None	None	None	None	1
1.7	2015_Aug_04_1611	s	s	19	1	Capacity	78	RC	0	2	23RD	1	0	0.888272047043	-500.0	170.0	-496	173	1
1.7	2015_Aug_04_1611	s	s	19	1	Capacity	79	ABS	0	1	24RO	0	1	5.73754787445	None	None	None	None	1
1.7	2015_Aug_04_1611	s	s	19	1	Capacity	80	RC	0	1	23RO	1	0	4.0837469101	60.0	-303.0	62	-294	1
1.7	2015_Aug_04_1611	s	s	19	1	Capacity	81	RC	0	2	23RD	1	0	0.688139915466	-30.0	240.0	-28	239	1
1.7	2015_Aug_04_1611	s	s	19	1	Capacity	82	RC	0	1	23RO	1	0	5.14978504181	-520.0	-247.0	-526	-255	1
1.7	2015_Aug_04_1611	s	s	19	1	Capacity	83	ABS	0	2	24RD	0	1	1.44686889648	None	None	None	None	1
1.7	2015_Aug_04_1611	s	s	19	1	Capacity	84	ABS	0	1	24RO	0	1	6.96753501892	None	None	None	None	1
1.7	2015_Aug_04_1611	s	s	19	1	Capacity	85	RC	0	1	23RO	1	0	5.83263015747	-423.0	-211.0	-424	-213	1
1.7	2015_Aug_04_1611	s	s	19	1	Capacity	86	RC	0	2	23RD	1	0	0.799707889557	285.0	-292.0	280	-291	1
1.7	2015_Aug_04_1611	s	s	19	1	Capacity	87	ABS	0	1	24RO	0	1	7.51345396042	None	None	None	None	1
1.7	2015_Aug_04_1611	s	s	19	1	Capacity	88	ABS	0	2	24RD	0	1	1.45893788338	None	None	None	None	1
1.7	2015_Aug_04_1611	s	s	19	1	Capacity	89	ABS	0	2	24RD	0	1	0.858636140823	None	None	None	None	1
1.7	2015_Aug_04_1611	s	s	19	1	Capacity	90	RC	0	1	23RO	1	0	5.59711194038	24.0	-390.0	16	-395	1
1.7	2015_Aug_04_1611	s	s	19	1	Capacity	91	RC	0	2	23RD	1	0	0.623123168945	174.0	-105.0	179	-105	1
1.7	2015_Aug_04_1611	s	s	19	1	Capacity	92	ABS	0	1	24RO	0	1	5.93164896965	None	None	None	None	1
1.7	2015_Aug_04_1611	s	s	19	1	SIC	1	RC	0	1	23RO	1	0	4.54952502251	-346.0	226.0	-340	228	1
1.7	2015_Aug_04_1611	s	s	19	1	SIC	2	ABS	2	2	24VD	0	1	0.682017803192	None	None	None	None	1
1.7	2015_Aug_04_1611	s	s	19	1	SIC	3	RC	2	0	23VC	1	0	0.579887866974	-180.0	150.0	-178	143	1
1.7	2015_Aug_04_1611	s	s	19	1	SIC	4	RC	1	1	23MO	1	0	1.41836881638	-382.0	136.0	-380	133	1
1.7	2015_Aug_04_1611	s	s	19	1	SIC	5	RC	0	2	23RD	1	0	1.00814986229	-242.0	-372.0	-234	-368	1
1.7	2015_Aug_04_1611	s	s	19	1	SIC	6	RC	2	1	23VO	1	0	0.593558073044	433.0	17.0	448	25	1
1.7	2015_Aug_04_1611	s	s	19	1	SIC	7	RC	1	2	23MD	1	0	0.752651929855	261.0	269.0	268	274	1
1.7	2015_Aug_04_1611	s	s	19	1	SIC	8	ABS	1	0	24MC	0	1	9.96420502663	None	None	None	None	1
1.7	2015_Aug_04_1611	s	s	19	1	SIC	9	ABS	1	2	24MD	0	1	1.35977482796	None	None	None	None	1
1.7	2015_Aug_04_1611	s	s	19	1	SIC	10	ABS	2	0	24VC	0	1	1.23043012619	None	None	None	None	1
1.7	2015_Aug_04_1611	s	s	19	1	SIC	11	ABS	1	1	24MO	0	1	6.0610730648	None	None	None	None	1
1.7	2015_Aug_04_1611	s	s	19	1	SIC	12	RC	2	2	23VD	1	0	0.618263959885	177.0	143.0	182	139	1
1.7	2015_Aug_04_1611	s	s	19	1	SIC	13	RC	1	0	23MC	1	0	2.96551895142	419.0	357.0	416	358	1
1.7	2015_Aug_04_1611	s	s	19	1	SIC	14	ABS	0	1	24RO	0	1	5.11710977554	None	None	None	None	1
1.7	2015_Aug_04_1611	s	s	19	1	SIC	15	ABS	0	2	24RD	0	1	1.10224699974	None	None	None	None	1
1.7	2015_Aug_04_1611	s	s	19	1	SIC	16	ABS	2	1	24VO	0	1	1.03027296066	None	None	None	None	1
1.7	2015_Aug_04_1611	s	s	19	1	SIC	17	RC	2	1	23VO	1	0	0.630203008652	317.0	212.0	316	216	1
1.7	2015_Aug_04_1611	s	s	19	1	SIC	18	RC	1	2	23MD	1	0	0.952709913254	81.0	-243.0	76	-246	1
1.7	2015_Aug_04_1611	s	s	19	1	SIC	19	ABS	0	2	24RD	0	1	1.06484794617	None	None	None	None	1
1.7	2015_Aug_04_1611	s	s	19	1	SIC	20	ABS	1	0	24MC	0	1	9.34895014763	None	None	None	None	1
1.7	2015_Aug_04_1611	s	s	19	1	SIC	21	ABS	1	2	24MD	0	1	1.10582089424	None	None	None	None	1
1.7	2015_Aug_04_1611	s	s	19	1	SIC	22	ABS	2	1	24VO	0	1	0.874045133591	None	None	None	None	1
1.7	2015_Aug_04_1611	s	s	19	1	SIC	23	RC	1	1	23MO	1	0	3.11261701584	-528.0	103.0	-533	101	1
1.7	2015_Aug_04_1611	s	s	19	1	SIC	24	RC	0	2	23RD	1	0	0.803479909897	518.0	197.0	519	192	1
1.7	2015_Aug_04_1611	s	s	19	1	SIC	25	RC	0	1	23RO	1	0	1.38829898834	536.0	369.0	543	370	1
1.7	2015_Aug_04_1611	s	s	19	1	SIC	26	ABS	0	1	24RO	0	1	5.78558206558	None	None	None	None	1
1.7	2015_Aug_04_1611	s	s	19	1	SIC	27	ABS	2	0	24VC	0	1	0.879563093185	None	None	None	None	1
1.7	2015_Aug_04_1611	s	s	19	1	SIC	28	RC	1	0	23MC	1	0	1.59222102165	48.0	81.0	42	83	1
1.7	2015_Aug_04_1611	s	s	19	1	SIC	29	RC	2	0	23VC	1	0	0.865568161011	-112.0	-242.0	-113	-246	1
1.7	2015_Aug_04_1611	s	s	19	1	SIC	30	ABS	1	1	24MO	0	1	3.97775292397	None	None	None	None	1
1.7	2015_Aug_04_1611	s	s	19	1	SIC	31	ABS	2	2	24VD	0	1	0.629314899445	None	None	None	None	1
1.7	2015_Aug_04_1611	s	s	19	1	SIC	32	RC	2	2	23VD	1	0	0.864513158798	-287.0	-393.0	-287	-406	1
1.7	2015_Aug_04_1611	s	s	19	1	SIC	33	RC	2	1	23VO	1	0	2.47120189667	339.0	-342.0	334	-340	1
1.7	2015_Aug_04_1611	s	s	19	1	SIC	34	ABS	1	0	24MC	0	1	12.6799750328	None	None	None	None	1
1.7	2015_Aug_04_1611	s	s	19	1	SIC	35	ABS	2	2	24VD	0	1	0.773473024368	None	None	None	None	1
1.7	2015_Aug_04_1611	s	s	19	1	SIC	36	RC	0	1	23RO	1	0	5.40892100334	-386.0	-46.0	-381	-46	1
1.7	2015_Aug_04_1611	s	s	19	1	SIC	37	ABS	2	0	24VC	0	1	1.41877985001	None	None	None	None	1
1.7	2015_Aug_04_1611	s	s	19	1	SIC	38	RC	0	2	23RD	1	0	0.658443212509	31.0	-13.0	37	-22	1
1.7	2015_Aug_04_1611	s	s	19	1	SIC	39	RC	2	0	23VC	1	0	3.06578803062	-482.0	-39.0	-478	-49	1
1.7	2015_Aug_04_1611	s	s	19	1	SIC	40	ABS	0	2	24RD	0	1	1.38351798058	None	None	None	None	1
1.7	2015_Aug_04_1611	s	s	19	1	SIC	41	RC	2	2	23VD	1	0	0.735388994217	283.0	383.0	290	381	1
1.7	2015_Aug_04_1611	s	s	19	1	SIC	42	ABS	1	1	24MO	0	1	4.43723201752	None	None	None	None	1
1.7	2015_Aug_04_1611	s	s	19	1	SIC	43	ABS	2	1	24VO	0	1	1.11758184433	None	None	None	None	1
1.7	2015_Aug_04_1611	s	s	19	1	SIC	44	ABS	0	1	24RO	0	1	6.10343408585	None	None	None	None	1
1.7	2015_Aug_04_1611	s	s	19	1	SIC	45	RC	1	0	23MC	1	0	3.61294698715	-108.0	305.0	-109	302	1
1.7	2015_Aug_04_1611	s	s	19	1	SIC	46	ABS	1	2	24MD	0	1	1.17638611794	None	None	None	None	1
1.7	2015_Aug_04_1611	s	s	19	1	SIC	47	RC	1	1	23MO	1	0	1.49421000481	322.0	302.0	318	300	1
1.7	2015_Aug_04_1611	s	s	19	1	SIC	48	RC	1	2	23MD	1	0	0.682069778442	-19.0	316.0	-26	320	1
1.7	2015_Aug_04_1611	s	s	19	1	SIC	49	RC	0	2	23RD	1	0	0.752687215805	-299.0	283.0	-292	284	1
1.7	2015_Aug_04_1611	s	s	19	1	SIC	50	ABS	0	1	24RO	0	1	5.28441405296	None	None	None	None	1
1.7	2015_Aug_04_1611	s	s	19	1	SIC	51	ABS	2	1	24VO	0	1	0.840888977051	None	None	None	None	1
1.7	2015_Aug_04_1611	s	s	19	1	SIC	52	RC	1	0	23MC	1	0	5.85604310036	-214.0	368.0	-220	365	1
1.7	2015_Aug_04_1611	s	s	19	1	SIC	53	ABS	0	2	24RD	0	1	0.808832883835	None	None	None	None	1
1.7	2015_Aug_04_1611	s	s	19	1	SIC	54	ABS	2	0	24VC	0	1	0.653455972672	None	None	None	None	1
1.7	2015_Aug_04_1611	s	s	19	1	SIC	55	ABS	1	1	24MO	0	1	5.04897212982	None	None	None	None	1
1.7	2015_Aug_04_1611	s	s	19	1	SIC	56	ABS	1	2	24MD	0	1	0.665055036545	None	None	None	None	1
1.7	2015_Aug_04_1611	s	s	19	1	SIC	57	RC	1	2	23MD	1	0	0.929660081863	71.0	-291.0	72	-292	1
1.7	2015_Aug_04_1611	s	s	19	1	SIC	58	RC	0	1	23RO	1	0	4.03229999542	375.0	-173.0	374	-172	1
1.7	2015_Aug_04_1611	s	s	19	1	SIC	59	RC	2	0	23VC	1	0	0.606217861176	-14.0	63.0	-15	72	1
1.7	2015_Aug_04_1611	s	s	19	1	SIC	60	RC	1	1	23MO	1	0	2.07100296021	312.0	19.0	309	19	1
1.7	2015_Aug_04_1611	s	s	19	1	SIC	61	RC	2	1	23VO	1	0	0.768234968185	409.0	-170.0	411	-172	1
1.7	2015_Aug_04_1611	s	s	19	1	SIC	62	ABS	2	2	24VD	0	1	0.666309833527	None	None	None	None	1
1.7	2015_Aug_04_1611	s	s	19	1	SIC	63	RC	2	2	23VD	1	0	0.714064836502	454.0	390.0	451	394	1
1.7	2015_Aug_04_1611	s	s	19	1	SIC	64	ABS	1	0	24MC	0	1	10.4045431614	None	None	None	None	1
1.7	2015_Aug_04_1611	s	s	19	1	SIC	65	RC	2	1	23VO	1	0	0.599617004395	-109.0	3.0	-121	6	1
1.7	2015_Aug_04_1611	s	s	19	1	SIC	66	ABS	1	1	24MO	0	1	4.94989299774	None	None	None	None	1
1.7	2015_Aug_04_1611	s	s	19	1	SIC	67	ABS	2	2	24VD	0	1	0.576148033142	None	None	None	None	1
1.7	2015_Aug_04_1611	s	s	19	1	SIC	68	ABS	1	2	24MD	0	1	1.06402993202	None	None	None	None	1
1.7	2015_Aug_04_1611	s	s	19	1	SIC	69	RC	1	2	23MD	1	0	0.740936040878	-19.0	404.0	-17	404	1
1.7	2015_Aug_04_1611	s	s	19	1	SIC	70	RC	1	1	23MO	1	0	1.62076282501	-185.0	297.0	-180	298	1
1.7	2015_Aug_04_1611	s	s	19	1	SIC	71	ABS	2	0	24VC	0	1	0.799659967422	None	None	None	None	1
1.7	2015_Aug_04_1611	s	s	19	1	SIC	72	RC	2	0	23VC	1	0	0.717330217361	-435.0	4.0	-429	4	1
1.7	2015_Aug_04_1611	s	s	19	1	SIC	73	RC	0	1	23RO	1	0	1.80502915382	-453.0	-76.0	-460	-70	1
1.7	2015_Aug_04_1611	s	s	19	1	SIC	74	ABS	1	0	24MC	0	1	8.38686203957	None	None	None	None	1
1.7	2015_Aug_04_1611	s	s	19	1	SIC	75	RC	0	2	23RD	1	0	0.682173967361	10.0	-130.0	3	-136	1
1.7	2015_Aug_04_1611	s	s	19	1	SIC	76	ABS	0	1	24RO	0	1	5.84668111801	None	None	None	None	1
1.7	2015_Aug_04_1611	s	s	19	1	SIC	77	ABS	0	2	24RD	0	1	1.12936592102	None	None	None	None	1
1.7	2015_Aug_04_1611	s	s	19	1	SIC	78	ABS	2	1	24VO	0	1	0.735363006592	None	None	None	None	1
1.7	2015_Aug_04_1611	s	s	19	1	SIC	79	RC	1	0	23MC	1	0	8.89473199844	-137.0	-79.0	-138	-81	1
1.7	2015_Aug_04_1611	s	s	19	1	SIC	80	RC	2	2	23VD	1	0	0.905637025833	484.0	226.0	488	229	1
1.7	2015_Aug_04_1611	s	s	19	1	SIC	81	RC	1	2	23MD	1	0	1.06613302231	-20.0	117.0	-16	117	1
1.7	2015_Aug_04_1611	s	s	19	1	SIC	82	ABS	2	2	24VD	0	1	0.646744012833	None	None	None	None	1
1.7	2015_Aug_04_1611	s	s	19	1	SIC	83	ABS	2	1	24VO	0	1	1.32433104515	None	None	None	None	1
1.7	2015_Aug_04_1611	s	s	19	1	SIC	84	RC	2	1	23VO	1	0	0.83526802063	523.0	-35.0	523	-29	1
1.7	2015_Aug_04_1611	s	s	19	1	SIC	85	RC	2	0	23VC	1	0	0.842129945755	-286.0	-362.0	-279	-357	1
1.7	2015_Aug_04_1611	s	s	19	1	SIC	86	RC	1	1	23MO	1	0	3.46648597717	-9.0	-395.0	-5	-391	1
1.7	2015_Aug_04_1611	s	s	19	1	SIC	87	RC	0	2	23RD	1	0	1.10076999664	496.0	-320.0	506	-314	1
1.7	2015_Aug_04_1611	s	s	19	1	SIC	88	ABS	1	0	24MC	0	1	7.7996070385	None	None	None	None	1
1.7	2015_Aug_04_1611	s	s	19	1	SIC	89	ABS	0	1	24RO	0	1	5.82611203194	None	None	None	None	1
1.7	2015_Aug_04_1611	s	s	19	1	SIC	90	RC	0	1	23RO	1	0	2.79568600655	-421.0	-165.0	-415	-158	1
1.7	2015_Aug_04_1611	s	s	19	1	SIC	91	ABS	2	0	24VC	0	1	1.27993512154	None	None	None	None	1
1.7	2015_Aug_04_1611	s	s	19	1	SIC	92	ABS	0	2	24RD	0	1	1.03282880783	None	None	None	None	1
1.7	2015_Aug_04_1611	s	s	19	1	SIC	93	RC	1	0	23MC	1	0	11.722921133	-212.0	-234.0	-207	-236	1
1.7	2015_Aug_04_1611	s	s	19	1	SIC	94	RC	2	2	23VD	1	0	0.735731124878	-214.0	-208.0	-223	-212	1
1.7	2015_Aug_04_1611	s	s	19	1	SIC	95	ABS	1	2	24MD	0	1	1.62367582321	None	None	None	None	1
1.7	2015_Aug_04_1611	s	s	19	1	SIC	96	ABS	1	1	24MO	0	1	5.62025785446	None	None	None	None	1
1.7	2015_Aug_04_1611	s	s	19	1	SIC	97	RC	1	2	23MD	1	0	0.688702106476	-361.0	-173.0	-360	-173	1
1.7	2015_Aug_04_1611	s	s	19	1	SIC	98	RC	1	0	23MC	1	0	8.3632171154	502.0	-226.0	510	-223	1
1.7	2015_Aug_04_1611	s	s	19	1	SIC	99	RC	0	2	23RD	1	0	0.905703783035	-194.0	206.0	-194	204	1
1.7	2015_Aug_04_1611	s	s	19	1	SIC	100	RC	1	1	23MO	1	0	2.73700499535	-370.0	246.0	-371	248	1
1.7	2015_Aug_04_1611	s	s	19	1	SIC	101	ABS	1	0	24MC	0	1	9.81138491631	None	None	None	None	1
1.7	2015_Aug_04_1611	s	s	19	1	SIC	102	ABS	2	2	24VD	0	1	1.40805411339	None	None	None	None	1
1.7	2015_Aug_04_1611	s	s	19	1	SIC	103	RC	2	2	23VD	1	0	0.712388038635	-60.0	-375.0	-58	-373	1
1.7	2015_Aug_04_1611	s	s	19	1	SIC	104	ABS	1	2	24MD	0	1	4.61707997322	None	None	None	None	1
1.7	2015_Aug_04_1611	s	s	19	1	SIC	105	RC	2	0	23VC	1	0	0.868067026138	-420.0	322.0	-417	321	1
1.7	2015_Aug_04_1611	s	s	19	1	SIC	106	ABS	2	0	24VC	0	1	0.693812847137	None	None	None	None	1
1.7	2015_Aug_04_1611	s	s	19	1	SIC	107	RC	2	1	23VO	1	0	0.759296894073	75.0	-370.0	70	-368	1
1.7	2015_Aug_04_1611	s	s	19	1	SIC	108	ABS	0	2	24RD	0	1	0.983023166656	None	None	None	None	1
1.7	2015_Aug_04_1611	s	s	19	1	SIC	109	RC	0	1	23RO	0	1	5.05666899681	-91.0	-264.0	None	None	0
1.7	2015_Aug_04_1611	s	s	19	1	SIC	110	ABS	0	1	24RO	0	1	5.43218708038	None	None	None	None	1
1.7	2015_Aug_04_1611	s	s	19	1	SIC	111	ABS	2	1	24VO	0	1	0.752554178238	None	None	None	None	1
1.7	2015_Aug_04_1611	s	s	19	1	SIC	112	ABS	1	1	24MO	0	1	7.43839716911	None	None	None	None	1
1.7	2015_Aug_04_1611	s	s	19	1	SIC	113	RC	1	2	23MD	1	0	0.634935855865	6.0	102.0	17	103	1
1.7	2015_Aug_04_1611	s	s	19	1	SIC	114	ABS	0	1	24RO	0	1	7.97974705696	None	None	None	None	1
1.7	2015_Aug_04_1611	s	s	19	1	SIC	115	RC	2	0	23VC	1	0	1.09765601158	391.0	337.0	394	340	1
1.7	2015_Aug_04_1611	s	s	19	1	SIC	116	ABS	0	2	24RD	0	1	1.16009283066	None	None	None	None	1
1.7	2015_Aug_04_1611	s	s	19	1	SIC	117	RC	1	1	23MO	1	0	1.13662695885	513.0	224.0	518	225	1
1.7	2015_Aug_04_1611	s	s	19	1	SIC	118	RC	0	1	23RO	1	0	4.76134610176	-274.0	-270.0	-266	-272	1
1.7	2015_Aug_04_1611	s	s	19	1	SIC	119	ABS	2	0	24VC	0	1	0.829442024231	None	None	None	None	1
1.7	2015_Aug_04_1611	s	s	19	1	SIC	120	RC	2	2	23VD	1	0	0.568016052246	-124.0	209.0	-123	213	1
1.7	2015_Aug_04_1611	s	s	19	1	SIC	121	RC	2	1	23VO	1	0	0.914973020554	453.0	70.0	452	70	1
1.7	2015_Aug_04_1611	s	s	19	1	SIC	122	ABS	2	2	24VD	0	1	0.688832044601	None	None	None	None	1
1.7	2015_Aug_04_1611	s	s	19	1	SIC	123	ABS	1	1	24MO	0	1	6.80783891678	None	None	None	None	1
1.7	2015_Aug_04_1611	s	s	19	1	SIC	124	ABS	2	1	24VO	0	1	0.594067811966	None	None	None	None	1
1.7	2015_Aug_04_1611	s	s	19	1	SIC	125	RC	0	2	23RD	1	0	0.929152011871	158.0	-336.0	151	-330	1
1.7	2015_Aug_04_1611	s	s	19	1	SIC	126	ABS	1	0	24MC	0	1	10.5070910454	None	None	None	None	1
1.7	2015_Aug_04_1611	s	s	19	1	SIC	127	ABS	1	2	24MD	0	1	0.937147140503	None	None	None	None	1
1.7	2015_Aug_04_1611	s	s	19	1	SIC	128	RC	1	0	23MC	1	0	8.59817910194	-39.0	37.0	-39	35	1
1.7	2015_Aug_04_1611	s	s	19	1	SIC	129	RC	2	2	23VD	1	0	0.682078838348	4.0	-272.0	-1	-280	1
1.7	2015_Aug_04_1611	s	s	19	1	SIC	130	ABS	2	0	24VC	0	1	0.725476980209	None	None	None	None	1
1.7	2015_Aug_04_1611	s	s	19	1	SIC	131	ABS	0	2	24RD	0	1	1.30584716797	None	None	None	None	1
1.7	2015_Aug_04_1611	s	s	19	1	SIC	132	RC	2	1	23VO	1	0	0.85315990448	523.0	-268.0	526	-264	1
1.7	2015_Aug_04_1611	s	s	19	1	SIC	133	ABS	0	1	24RO	0	1	6.06793117523	None	None	None	None	1
1.7	2015_Aug_04_1611	s	s	19	1	SIC	134	RC	1	0	23MC	1	0	6.29028010368	457.0	151.0	457	152	1
1.7	2015_Aug_04_1611	s	s	19	1	SIC	135	ABS	1	1	24MO	0	1	4.76647615433	None	None	None	None	1
1.7	2015_Aug_04_1611	s	s	19	1	SIC	136	ABS	2	2	24VD	0	1	1.01165699959	None	None	None	None	1
1.7	2015_Aug_04_1611	s	s	19	1	SIC	137	RC	0	2	23RD	1	0	0.688621997833	-216.0	-164.0	-214	-169	1
1.7	2015_Aug_04_1611	s	s	19	1	SIC	138	ABS	2	1	24VO	0	1	1.28920197487	None	None	None	None	1
1.7	2015_Aug_04_1611	s	s	19	1	SIC	139	ABS	1	0	24MC	0	1	9.17523813248	None	None	None	None	1
1.7	2015_Aug_04_1611	s	s	19	1	SIC	140	RC	1	2	23MD	1	0	0.853320837021	456.0	-31.0	466	-26	1
1.7	2015_Aug_04_1611	s	s	19	1	SIC	141	RC	2	0	23VC	1	0	0.558881044388	33.0	84.0	26	83	1
1.7	2015_Aug_04_1611	s	s	19	1	SIC	142	ABS	1	2	24MD	0	1	3.21271896362	None	None	None	None	1
1.7	2015_Aug_04_1611	s	s	19	1	SIC	143	RC	0	1	23RO	1	0	4.4907579422	147.0	-377.0	152	-375	1
1.7	2015_Aug_04_1611	s	s	19	1	SIC	144	RC	1	1	23MO	1	0	0.911634922028	-174.0	164.0	-182	158	1
1.7	2015_Aug_04_1611	s	s	19	1	SIC	145	ABS	2	0	24VC	0	1	0.629812002182	None	None	None	None	1
1.7	2015_Aug_04_1611	s	s	19	1	SIC	146	ABS	0	2	24RD	0	1	0.805802822113	None	None	None	None	1
1.7	2015_Aug_04_1611	s	s	19	1	SIC	147	ABS	2	2	24VD	0	1	0.689144134521	None	None	None	None	1
1.7	2015_Aug_04_1611	s	s	19	1	SIC	148	RC	0	2	23RD	1	0	0.783061981201	82.0	-181.0	80	-187	1
1.7	2015_Aug_04_1611	s	s	19	1	SIC	149	ABS	2	1	24VO	0	1	0.750291824341	None	None	None	None	1
1.7	2015_Aug_04_1611	s	s	19	1	SIC	150	RC	2	0	23VC	1	0	0.912235021591	101.0	378.0	108	384	1
1.7	2015_Aug_04_1611	s	s	19	1	SIC	151	ABS	1	0	24MC	0	1	9.23921203613	None	None	None	None	1
1.7	2015_Aug_04_1611	s	s	19	1	SIC	152	RC	1	1	23MO	1	0	4.10727214813	-279.0	-257.0	-292	-254	1
1.7	2015_Aug_04_1611	s	s	19	1	SIC	153	RC	2	1	23VO	1	0	0.576120138168	-295.0	177.0	-290	177	1
1.7	2015_Aug_04_1611	s	s	19	1	SIC	154	RC	1	2	23MD	1	0	0.576205015182	-181.0	-172.0	-184	-175	1
1.7	2015_Aug_04_1611	s	s	19	1	SIC	155	RC	2	2	23VD	1	0	0.470257043839	-26.0	197.0	-24	193	1
1.7	2015_Aug_04_1611	s	s	19	1	SIC	156	ABS	1	2	24MD	0	1	0.877169132233	None	None	None	None	1
1.7	2015_Aug_04_1611	s	s	19	1	SIC	157	RC	0	1	23RO	0	1	3.92634797096	-278.0	219.0	None	None	0
1.7	2015_Aug_04_1611	s	s	19	1	SIC	158	ABS	1	1	24MO	0	1	5.61126899719	None	None	None	None	1
1.7	2015_Aug_04_1611	s	s	19	1	SIC	159	RC	1	0	23MC	1	0	2.01599502563	-169.0	-52.0	-177	-56	1
1.7	2015_Aug_04_1611	s	s	19	1	SIC	160	ABS	0	1	24RO	0	1	4.77328395844	None	None	None	None	1
1.7	2015_Aug_04_1611	s	s	19	1	SIC	161	ABS	2	2	24VD	0	1	0.594436168671	None	None	None	None	1
1.7	2015_Aug_04_1611	s	s	19	1	SIC	162	ABS	0	1	24RO	0	1	3.95429301262	None	None	None	None	1
1.7	2015_Aug_04_1611	s	s	19	1	SIC	163	RC	2	1	23VO	1	0	0.591575860977	140.0	163.0	149	165	1
1.7	2015_Aug_04_1611	s	s	19	1	SIC	164	ABS	1	0	24MC	0	1	7.59131789207	None	None	None	None	1
1.7	2015_Aug_04_1611	s	s	19	1	SIC	165	ABS	1	1	24MO	0	1	5.4348461628	None	None	None	None	1
1.7	2015_Aug_04_1611	s	s	19	1	SIC	166	ABS	2	0	24VC	0	1	1.08230113983	None	None	None	None	1
1.7	2015_Aug_04_1611	s	s	19	1	SIC	167	ABS	1	2	24MD	0	1	1.03089380264	None	None	None	None	1
1.7	2015_Aug_04_1611	s	s	19	1	SIC	168	ABS	2	1	24VO	0	1	0.811554908752	None	None	None	None	1
1.7	2015_Aug_04_1611	s	s	19	1	SIC	169	ABS	0	2	24RD	0	1	0.831820011139	None	None	None	None	1
1.7	2015_Aug_04_1611	s	s	19	1	SIC	170	RC	0	2	23RD	1	0	1.25878596306	-533.0	110.0	-537	110	1
1.7	2015_Aug_04_1611	s	s	19	1	SIC	171	RC	1	1	23MO	1	0	1.15290904045	-350.0	-254.0	-351	-255	1
1.7	2015_Aug_04_1611	s	s	19	1	SIC	172	RC	2	0	23VC	1	0	0.831387996674	53.0	-264.0	55	-264	1
1.7	2015_Aug_04_1611	s	s	19	1	SIC	173	RC	1	0	23MC	1	0	5.55876302719	-20.0	283.0	-22	289	1
1.7	2015_Aug_04_1611	s	s	19	1	SIC	174	RC	0	1	23RO	1	0	2.51397895813	427.0	333.0	431	336	1
1.7	2015_Aug_04_1611	s	s	19	1	SIC	175	RC	1	2	23MD	1	0	0.752696037292	469.0	328.0	462	329	1
1.7	2015_Aug_04_1611	s	s	19	1	SIC	176	RC	2	2	23VD	1	0	0.517198085785	-130.0	342.0	-134	348	1
1.7	2015_Aug_04_1611	s	s	19	1	SIC	177	RC	2	1	23VO	1	0	0.556241035461	185.0	356.0	190	360	1
1.7	2015_Aug_04_1611	s	s	19	1	SIC	178	ABS	1	0	24MC	0	1	5.79417109489	None	None	None	None	1
1.7	2015_Aug_04_1611	s	s	19	1	SIC	179	RC	0	2	23RD	1	0	0.653499126434	-23.0	-294.0	-18	-298	1
1.7	2015_Aug_04_1611	s	s	19	1	SIC	180	ABS	2	0	24VC	0	1	0.935367107391	None	None	None	None	1
1.7	2015_Aug_04_1611	s	s	19	1	SIC	181	RC	1	1	23MO	1	0	3.59598612785	-371.0	-120.0	-363	-119	1
1.7	2015_Aug_04_1611	s	s	19	1	SIC	182	ABS	2	2	24VD	0	1	0.646652936935	None	None	None	None	1
1.7	2015_Aug_04_1611	s	s	19	1	SIC	183	RC	0	1	23RO	1	0	1.40019106865	-201.0	186.0	-200	186	1
1.7	2015_Aug_04_1611	s	s	19	1	SIC	184	RC	2	2	23VD	1	0	0.512238025665	-284.0	-36.0	-284	-31	1
1.7	2015_Aug_04_1611	s	s	19	1	SIC	185	RC	1	2	23MD	1	0	0.559480905533	0.0	-179.0	-9	-177	1
1.7	2015_Aug_04_1611	s	s	19	1	SIC	186	ABS	0	1	24RO	0	1	5.43741106987	None	None	None	None	1
1.7	2015_Aug_04_1611	s	s	19	1	SIC	187	RC	1	0	23MC	1	0	10.1454908848	353.0	241.0	360	249	1
1.7	2015_Aug_04_1611	s	s	19	1	SIC	188	RC	2	0	23VC	1	0	0.682069063187	45.0	-160.0	45	-160	1
1.7	2015_Aug_04_1611	s	s	19	1	SIC	189	ABS	2	1	24VO	0	1	0.891568183899	None	None	None	None	1
1.7	2015_Aug_04_1611	s	s	19	1	SIC	190	ABS	0	2	24RD	0	1	0.735906124115	None	None	None	None	1
1.7	2015_Aug_04_1611	s	s	19	1	SIC	191	ABS	1	1	24MO	0	1	4.94038081169	None	None	None	None	1
1.7	2015_Aug_04_1611	s	s	19	1	SIC	192	ABS	1	2	24MD	0	1	0.646762132645	None	None	None	None	1
1.7	2015_Aug_04_1611	s	s	19	1	SIC	193	RC	1	1	23MO	1	0	1.21177887917	252.0	399.0	255	397	1
1.7	2015_Aug_04_1611	s	s	19	1	SIC	194	RC	0	1	23RO	1	0	3.48351693153	132.0	-332.0	134	-334	1
1.7	2015_Aug_04_1611	s	s	19	1	SIC	195	RC	0	2	23RD	1	0	0.582053899765	-512.0	48.0	-509	48	1
1.7	2015_Aug_04_1611	s	s	19	1	SIC	196	RC	2	1	23VO	1	0	0.785218000412	-491.0	405.0	-496	402	1
1.7	2015_Aug_04_1611	s	s	19	1	SIC	197	ABS	2	2	24VD	0	1	0.964556932449	None	None	None	None	1
1.7	2015_Aug_04_1611	s	s	19	1	SIC	198	RC	2	0	23VC	1	0	0.55263710022	-472.0	109.0	-484	114	1
1.7	2015_Aug_04_1611	s	s	19	1	SIC	199	ABS	2	0	24VC	0	1	0.646790981293	None	None	None	None	1
1.7	2015_Aug_04_1611	s	s	19	1	SIC	200	ABS	1	2	24MD	0	1	0.999883174896	None	None	None	None	1
1.7	2015_Aug_04_1611	s	s	19	1	SIC	201	ABS	1	0	24MC	0	1	8.10116100311	None	None	None	None	1
1.7	2015_Aug_04_1611	s	s	19	1	SIC	202	ABS	0	2	24RD	0	1	0.560764074326	None	None	None	None	1
1.7	2015_Aug_04_1611	s	s	19	1	SIC	203	RC	2	2	23VD	1	0	1.71250700951	-519.0	150.0	-516	151	1
1.7	2015_Aug_04_1611	s	s	19	1	SIC	204	RC	1	0	23MC	1	0	1.80779910088	208.0	61.0	214	61	1
1.7	2015_Aug_04_1611	s	s	19	1	SIC	205	RC	1	2	23MD	1	0	0.588012933731	-327.0	49.0	-331	49	1
1.7	2015_Aug_04_1611	s	s	19	1	SIC	206	ABS	2	1	24VO	0	1	0.677713871002	None	None	None	None	1
1.7	2015_Aug_04_1611	s	s	19	1	SIC	207	ABS	0	1	24RO	0	1	5.57419395447	None	None	None	None	1
1.7	2015_Aug_04_1611	s	s	19	1	SIC	208	ABS	1	1	24MO	0	1	5.01368117332	None	None	None	None	1
1.7	2015_Aug_04_1611	s	s	19	1	SIC	209	RC	1	0	23MC	1	0	3.64834022522	83.0	-132.0	88	-127	1
1.7	2015_Aug_04_1611	s	s	19	1	SIC	210	ABS	0	2	24RD	0	1	0.705607891083	None	None	None	None	1
1.7	2015_Aug_04_1611	s	s	19	1	SIC	211	ABS	2	0	24VC	0	1	0.747395038605	None	None	None	None	1
1.7	2015_Aug_04_1611	s	s	19	1	SIC	212	RC	2	1	23VO	1	0	0.783171892166	-156.0	-304.0	-141	-296	1
1.7	2015_Aug_04_1611	s	s	19	1	SIC	213	ABS	1	2	24MD	0	1	1.1242351532	None	None	None	None	1
1.7	2015_Aug_04_1611	s	s	19	1	SIC	214	ABS	1	1	24MO	0	1	5.94350409508	None	None	None	None	1
1.7	2015_Aug_04_1611	s	s	19	1	SIC	215	ABS	2	1	24VO	0	1	0.713340997696	None	None	None	None	1
1.7	2015_Aug_04_1611	s	s	19	1	SIC	216	ABS	0	1	24RO	0	1	5.50270986557	None	None	None	None	1
1.7	2015_Aug_04_1611	s	s	19	1	SIC	217	RC	0	1	23RO	1	0	1.51051306725	-6.0	391.0	-5	394	1
1.7	2015_Aug_04_1611	s	s	19	1	SIC	218	RC	1	2	23MD	1	0	0.717398166656	479.0	217.0	475	215	1
1.7	2015_Aug_04_1611	s	s	19	1	SIC	219	ABS	2	2	24VD	0	1	0.623205900192	None	None	None	None	1
1.7	2015_Aug_04_1611	s	s	19	1	SIC	220	RC	1	1	23MO	1	0	1.05877685547	-440.0	334.0	-435	338	1
1.7	2015_Aug_04_1611	s	s	19	1	SIC	221	RC	0	2	23RD	1	0	0.544496059418	-375.0	30.0	-366	34	1
1.7	2015_Aug_04_1611	s	s	19	1	SIC	222	RC	2	0	23VC	1	0	0.482036113739	-38.0	147.0	-42	145	1
1.7	2015_Aug_04_1611	s	s	19	1	SIC	223	ABS	1	0	24MC	0	1	8.10941815376	None	None	None	None	1
1.7	2015_Aug_04_1611	s	s	19	1	SIC	224	RC	2	2	23VD	1	0	0.606604814529	-195.0	-169.0	-197	-176	1
1.7	2015_Aug_04_1611	s	s	19	1	SIC	225	ABS	2	2	24VD	0	1	0.569808006287	None	None	None	None	1
1.7	2015_Aug_04_1611	s	s	19	1	SIC	226	ABS	0	2	24RD	0	1	0.752489089966	None	None	None	None	1
1.7	2015_Aug_04_1611	s	s	19	1	SIC	227	RC	2	1	23VO	1	0	0.535619020462	-316.0	50.0	-316	46	1
1.7	2015_Aug_04_1611	s	s	19	1	SIC	228	ABS	1	0	24MC	0	1	9.94250488281	None	None	None	None	1
1.7	2015_Aug_04_1611	s	s	19	1	SIC	229	RC	1	2	23MD	1	0	0.682153940201	327.0	104.0	327	103	1
1.7	2015_Aug_04_1611	s	s	19	1	SIC	230	ABS	1	2	24MD	0	1	0.717247962952	None	None	None	None	1
1.7	2015_Aug_04_1611	s	s	19	1	SIC	231	RC	0	1	23RO	1	0	3.03386712074	28.0	157.0	26	154	1
1.7	2015_Aug_04_1611	s	s	19	1	SIC	232	RC	2	2	23VD	1	0	0.605647802353	264.0	300.0	273	299	1
1.7	2015_Aug_04_1611	s	s	19	1	SIC	233	RC	0	2	23RD	1	0	0.540853977203	60.0	171.0	58	173	1
1.7	2015_Aug_04_1611	s	s	19	1	SIC	234	RC	2	0	23VC	1	0	0.5172290802	-25.0	-50.0	-26	-49	1
1.7	2015_Aug_04_1611	s	s	19	1	SIC	235	RC	1	0	23MC	1	0	8.02712106705	207.0	374.0	216	377	1
1.7	2015_Aug_04_1611	s	s	19	1	SIC	236	ABS	0	1	24RO	0	1	5.39681696892	None	None	None	None	1
1.7	2015_Aug_04_1611	s	s	19	1	SIC	237	ABS	1	1	24MO	0	1	5.02026295662	None	None	None	None	1
1.7	2015_Aug_04_1611	s	s	19	1	SIC	238	RC	1	1	23MO	1	0	2.63583993912	295.0	-65.0	294	-61	1
1.7	2015_Aug_04_1611	s	s	19	1	SIC	239	ABS	2	1	24VO	0	1	0.665477991104	None	None	None	None	1
1.7	2015_Aug_04_1611	s	s	19	1	SIC	240	ABS	2	0	24VC	0	1	0.670169830322	None	None	None	None	1
1.7	2015_Aug_04_1611	s	s	19	1	SIC	241	ABS	1	1	24MO	0	1	4.08381199837	None	None	None	None	1
1.7	2015_Aug_04_1611	s	s	19	1	SIC	242	ABS	2	0	24VC	0	1	0.608841896057	None	None	None	None	1
1.7	2015_Aug_04_1611	s	s	19	1	SIC	243	RC	2	1	23VO	1	0	0.584062814713	230.0	-42.0	226	-39	1
1.7	2015_Aug_04_1611	s	s	19	1	SIC	244	RC	1	1	23MO	1	0	1.07059717178	-40.0	10.0	-29	15	1
1.7	2015_Aug_04_1611	s	s	19	1	SIC	245	ABS	1	2	24MD	0	1	0.717371940613	None	None	None	None	1
1.7	2015_Aug_04_1611	s	s	19	1	SIC	246	RC	1	2	23MD	1	0	0.51230597496	-110.0	55.0	-103	55	1
1.7	2015_Aug_04_1611	s	s	19	1	SIC	247	RC	0	2	23RD	1	0	0.511581897736	-276.0	-78.0	-273	-74	1
1.7	2015_Aug_04_1611	s	s	19	1	SIC	248	ABS	2	2	24VD	0	1	0.629898071289	None	None	None	None	1
1.7	2015_Aug_04_1611	s	s	19	1	SIC	249	ABS	0	1	24RO	0	1	5.76108288765	None	None	None	None	1
1.7	2015_Aug_04_1611	s	s	19	1	SIC	250	ABS	0	2	24RD	0	1	0.725859880447	None	None	None	None	1
1.7	2015_Aug_04_1611	s	s	19	1	SIC	251	RC	2	2	23VD	1	0	0.646703958511	-216.0	270.0	-213	267	1
1.7	2015_Aug_04_1611	s	s	19	1	SIC	252	RC	0	1	23RO	1	0	2.91463899612	189.0	-409.0	179	-408	1
1.7	2015_Aug_04_1611	s	s	19	1	SIC	253	ABS	2	1	24VO	0	1	0.591514110565	None	None	None	None	1
1.7	2015_Aug_04_1611	s	s	19	1	SIC	254	RC	2	0	23VC	1	0	0.540823936462	-439.0	-81.0	-439	-83	1
1.7	2015_Aug_04_1611	s	s	19	1	SIC	255	ABS	1	0	24MC	0	1	6.33894181252	None	None	None	None	1
1.7	2015_Aug_04_1611	s	s	19	1	SIC	256	RC	1	0	23MC	1	0	4.33088207245	224.0	141.0	230	144	1
1.7	2015_Aug_04_1611	s	s	19	1	SIC	257	RC	1	1	23MO	1	0	1.48246097565	-50.0	-94.0	-40	-89	1
1.7	2015_Aug_04_1611	s	s	19	1	SIC	258	ABS	2	2	24VD	0	1	0.594582080841	None	None	None	None	1
1.7	2015_Aug_04_1611	s	s	19	1	SIC	259	ABS	2	0	24VC	0	1	0.717401027679	None	None	None	None	1
1.7	2015_Aug_04_1611	s	s	19	1	SIC	260	RC	2	1	23VO	1	0	0.514466047287	-101.0	246.0	-93	249	1
1.7	2015_Aug_04_1611	s	s	19	1	SIC	261	RC	2	2	23VD	1	0	0.559376001358	322.0	90.0	314	95	1
1.7	2015_Aug_04_1611	s	s	19	1	SIC	262	ABS	1	2	24MD	0	1	0.711704969406	None	None	None	None	1
1.7	2015_Aug_04_1611	s	s	19	1	SIC	263	ABS	1	1	24MO	0	1	5.23222517967	None	None	None	None	1
1.7	2015_Aug_04_1611	s	s	19	1	SIC	264	RC	1	0	23MC	1	0	2.74563503265	-512.0	142.0	-512	144	1
1.7	2015_Aug_04_1611	s	s	19	1	SIC	265	ABS	2	1	24VO	0	1	0.808892011642	None	None	None	None	1
1.7	2015_Aug_04_1611	s	s	19	1	SIC	266	ABS	1	0	24MC	0	1	11.3876008987	None	None	None	None	1
1.7	2015_Aug_04_1611	s	s	19	1	SIC	267	ABS	0	2	24RD	0	1	0.764470100403	None	None	None	None	1
1.7	2015_Aug_04_1611	s	s	19	1	SIC	268	RC	1	2	23MD	1	0	0.658462047577	-511.0	73.0	-503	70	1
1.7	2015_Aug_04_1611	s	s	19	1	SIC	269	RC	0	1	23RO	1	0	1.74127101898	-487.0	325.0	-488	330	1
1.7	2015_Aug_04_1611	s	s	19	1	SIC	270	RC	0	2	23RD	1	0	0.776261091232	271.0	-234.0	272	-237	1
1.7	2015_Aug_04_1611	s	s	19	1	SIC	271	ABS	0	1	24RO	0	1	3.98584103584	None	None	None	None	1
1.7	2015_Aug_04_1611	s	s	19	1	SIC	272	RC	2	0	23VC	1	0	0.5092420578	-199.0	144.0	-190	142	1
1.7	2015_Aug_04_1611	s	s	19	1	SIC	273	RC	2	1	23VO	1	0	0.717324972153	-259.0	-362.0	-245	-355	1
1.7	2015_Aug_04_1611	s	s	19	1	SIC	274	ABS	1	1	24MO	0	1	3.97785806656	None	None	None	None	1
1.7	2015_Aug_04_1611	s	s	19	1	SIC	275	ABS	2	2	24VD	0	1	0.64325094223	None	None	None	None	1
1.7	2015_Aug_04_1611	s	s	19	1	SIC	276	RC	1	1	23MO	1	0	3.22450208664	-311.0	-275.0	-310	-280	1
1.7	2015_Aug_04_1611	s	s	19	1	SIC	277	ABS	2	1	24VO	0	1	0.764446973801	None	None	None	None	1
1.7	2015_Aug_04_1611	s	s	19	1	SIC	278	RC	1	0	23MC	1	0	6.64497613907	-68.0	-348.0	-71	-360	1
1.7	2015_Aug_04_1611	s	s	19	1	SIC	279	RC	0	2	23RD	1	0	0.682504892349	-50.0	110.0	-42	111	1
1.7	2015_Aug_04_1611	s	s	19	1	SIC	280	ABS	0	2	24RD	0	1	1.24216794968	None	None	None	None	1
1.7	2015_Aug_04_1611	s	s	19	1	SIC	281	ABS	0	1	24RO	0	1	4.09059000015	None	None	None	None	1
1.7	2015_Aug_04_1611	s	s	19	1	SIC	282	RC	0	1	23RO	1	0	3.04787898064	312.0	-411.0	306	-410	1
1.7	2015_Aug_04_1611	s	s	19	1	SIC	283	RC	2	0	23VC	1	0	1.85914802551	508.0	-318.0	503	-312	1
1.7	2015_Aug_04_1611	s	s	19	1	SIC	284	RC	1	2	23MD	1	0	0.723611831665	-483.0	18.0	-488	18	1
1.7	2015_Aug_04_1611	s	s	19	1	SIC	285	RC	2	2	23VD	1	0	0.434912919998	-98.0	-27.0	-112	-22	1
1.7	2015_Aug_04_1611	s	s	19	1	SIC	286	ABS	1	2	24MD	0	1	0.855026006699	None	None	None	None	1
1.7	2015_Aug_04_1611	s	s	19	1	SIC	287	ABS	1	0	24MC	0	1	5.83265185356	None	None	None	None	1
1.7	2015_Aug_04_1611	s	s	19	1	SIC	288	ABS	2	0	24VC	0	1	0.823235034943	None	None	None	None	1
1.7	2015_Aug_04_1611	s	s	19	1	SIC	289	ABS	2	1	24VO	0	1	0.618300199509	None	None	None	None	1
1.7	2015_Aug_04_1611	s	s	19	1	SIC	290	RC	1	0	23MC	1	0	13.2712860107	505.0	-139.0	506	-138	1
1.7	2015_Aug_04_1611	s	s	19	1	SIC	291	RC	2	1	23VO	1	0	0.988237857819	-413.0	-290.0	-412	-284	1
1.7	2015_Aug_04_1611	s	s	19	1	SIC	292	RC	2	0	23VC	1	0	0.564340114594	428.0	342.0	432	346	1
1.7	2015_Aug_04_1611	s	s	19	1	SIC	293	ABS	0	2	24RD	0	1	1.04686689377	None	None	None	None	1
1.7	2015_Aug_04_1611	s	s	19	1	SIC	294	ABS	1	2	24MD	0	1	0.635356903076	None	None	None	None	1
1.7	2015_Aug_04_1611	s	s	19	1	SIC	295	RC	1	2	23MD	1	0	0.729084968567	159.0	408.0	157	409	1
1.7	2015_Aug_04_1611	s	s	19	1	SIC	296	ABS	2	0	24VC	0	1	0.737513065338	None	None	None	None	1
1.7	2015_Aug_04_1611	s	s	19	1	SIC	297	RC	2	2	23VD	1	0	1.66836094856	-397.0	132.0	-397	132	1
1.7	2015_Aug_04_1611	s	s	19	1	SIC	298	RC	0	2	23RD	1	0	0.890583992004	114.0	-294.0	123	-289	1
1.7	2015_Aug_04_1611	s	s	19	1	SIC	299	RC	1	1	23MO	1	0	2.65685009956	-516.0	-301.0	-511	-300	1
1.7	2015_Aug_04_1611	s	s	19	1	SIC	300	RC	0	1	23RO	1	0	1.52952098846	-360.0	358.0	-360	359	1
1.7	2015_Aug_04_1611	s	s	19	1	SIC	301	ABS	2	2	24VD	0	1	0.670346975327	None	None	None	None	1
1.7	2015_Aug_04_1611	s	s	19	1	SIC	302	ABS	1	1	24MO	0	1	4.16651391983	None	None	None	None	1
1.7	2015_Aug_04_1611	s	s	19	1	SIC	303	ABS	1	0	24MC	0	1	5.29292201996	None	None	None	None	1
1.7	2015_Aug_04_1611	s	s	19	1	SIC	304	ABS	0	1	24RO	0	1	7.19901204109	None	None	None	None	1
1.7	2015_Aug_04_1611	s	s	19	1	SIC	305	ABS	0	2	24RD	0	1	0.788367033005	None	None	None	None	1
1.7	2015_Aug_04_1611	s	s	19	1	SIC	306	RC	0	1	23RO	1	0	4.00990915298	-311.0	-402.0	-303	-397	1
1.7	2015_Aug_04_1611	s	s	19	1	SIC	307	RC	2	1	23VO	1	0	0.500437021255	63.0	-66.0	61	-62	1
1.7	2015_Aug_04_1611	s	s	19	1	SIC	308	RC	2	2	23VD	1	0	0.535925865173	327.0	-274.0	328	-284	1
1.7	2015_Aug_04_1611	s	s	19	1	SIC	309	RC	0	2	23RD	1	0	0.803375959396	463.0	-227.0	463	-224	1
1.7	2015_Aug_04_1611	s	s	19	1	SIC	310	ABS	1	1	24MO	0	1	3.93065690994	None	None	None	None	1
1.7	2015_Aug_04_1611	s	s	19	1	SIC	311	RC	1	0	23MC	1	0	5.69134902954	362.0	261.0	373	261	1
1.7	2015_Aug_04_1611	s	s	19	1	SIC	312	ABS	1	2	24MD	0	1	0.77618598938	None	None	None	None	1
1.7	2015_Aug_04_1611	s	s	19	1	SIC	313	ABS	2	2	24VD	0	1	0.558655023575	None	None	None	None	1
1.7	2015_Aug_04_1611	s	s	19	1	SIC	314	ABS	0	1	24RO	0	1	5.35249090195	None	None	None	None	1
1.7	2015_Aug_04_1611	s	s	19	1	SIC	315	RC	1	1	23MO	1	0	1.32946014404	278.0	401.0	282	396	1
1.7	2015_Aug_04_1611	s	s	19	1	SIC	316	RC	2	0	23VC	1	0	0.55929684639	226.0	-388.0	217	-385	1
1.7	2015_Aug_04_1611	s	s	19	1	SIC	317	ABS	2	1	24VO	0	1	0.870381832123	None	None	None	None	1
1.7	2015_Aug_04_1611	s	s	19	1	SIC	318	ABS	1	0	24MC	0	1	6.03809595108	None	None	None	None	1
1.7	2015_Aug_04_1611	s	s	19	1	SIC	319	RC	1	2	23MD	1	0	1.25887012482	-179.0	-126.0	-174	-125	1
1.7	2015_Aug_04_1611	s	s	19	1	SIC	320	ABS	2	0	24VC	0	1	1.16471004486	None	None	None	None	1
1.7	2015_Aug_04_1611	s	s	19	1	SIC	321	ABS	1	1	24MO	0	1	6.20234894753	None	None	None	None	1
1.7	2015_Aug_04_1611	s	s	19	1	SIC	322	RC	0	2	23RD	1	0	0.653578042984	-180.0	-310.0	-189	-312	1
1.7	2015_Aug_04_1611	s	s	19	1	SIC	323	ABS	0	2	24RD	0	1	1.45643115044	None	None	None	None	1
1.7	2015_Aug_04_1611	s	s	19	1	SIC	324	RC	2	1	23VO	1	0	0.49373793602	-358.0	126.0	-359	130	1
1.7	2015_Aug_04_1611	s	s	19	1	SIC	325	ABS	2	2	24VD	0	1	0.57107591629	None	None	None	None	1
1.7	2015_Aug_04_1611	s	s	19	1	SIC	326	RC	1	2	23MD	1	0	0.535871982574	-271.0	-242.0	-270	-241	1
1.7	2015_Aug_04_1611	s	s	19	1	SIC	327	ABS	1	2	24MD	0	1	0.653069972992	None	None	None	None	1
1.7	2015_Aug_04_1611	s	s	19	1	SIC	328	RC	0	1	23RO	1	0	2.24755907059	76.0	-164.0	76	-171	1
1.7	2015_Aug_04_1611	s	s	19	1	SIC	329	RC	2	2	23VD	1	0	1.48243403435	243.0	-160.0	233	-160	1
1.7	2015_Aug_04_1611	s	s	19	1	SIC	330	ABS	2	0	24VC	0	1	0.635026931763	None	None	None	None	1
1.7	2015_Aug_04_1611	s	s	19	1	SIC	331	RC	2	0	23VC	1	0	1.67767000198	-106.0	120.0	-114	121	1
1.7	2015_Aug_04_1611	s	s	19	1	SIC	332	ABS	1	0	24MC	0	1	4.3494720459	None	None	None	None	1
1.7	2015_Aug_04_1611	s	s	19	1	SIC	333	RC	1	0	23MC	1	0	2.12740302086	338.0	183.0	342	184	1
1.7	2015_Aug_04_1611	s	s	19	1	SIC	334	RC	1	1	23MO	1	0	1.3247218132	-49.0	237.0	-61	240	1
1.7	2015_Aug_04_1611	s	s	19	1	SIC	335	ABS	0	1	24RO	0	1	4.84879016876	None	None	None	None	1
1.7	2015_Aug_04_1611	s	s	19	1	SIC	336	ABS	2	1	24VO	0	1	0.756767988205	None	None	None	None	1
1.7	2015_Aug_04_1611	s	s	19	1	SIC	337	RC	1	1	23MO	1	0	1.10604000092	-61.0	34.0	-60	30	1
1.7	2015_Aug_04_1611	s	s	19	1	SIC	338	ABS	2	1	24VO	0	1	0.752729892731	None	None	None	None	1
1.7	2015_Aug_04_1611	s	s	19	1	SIC	339	RC	0	2	23RD	1	0	0.917463779449	-244.0	376.0	-251	375	1
1.7	2015_Aug_04_1611	s	s	19	1	SIC	340	ABS	1	1	24MO	0	1	4.76210904121	None	None	None	None	1
1.7	2015_Aug_04_1611	s	s	19	1	SIC	341	ABS	2	0	24VC	0	1	0.582956790924	None	None	None	None	1
1.7	2015_Aug_04_1611	s	s	19	1	SIC	342	ABS	1	2	24MD	0	1	0.729043960571	None	None	None	None	1
1.7	2015_Aug_04_1611	s	s	19	1	SIC	343	RC	1	0	23MC	1	0	1.19713687897	241.0	-14.0	227	-8	1
1.7	2015_Aug_04_1611	s	s	19	1	SIC	344	RC	2	2	23VD	1	0	0.512747049332	-294.0	168.0	-303	167	1
1.7	2015_Aug_04_1611	s	s	19	1	SIC	345	ABS	2	2	24VD	0	1	0.500882148743	None	None	None	None	1
1.7	2015_Aug_04_1611	s	s	19	1	SIC	346	RC	1	2	23MD	1	0	0.564359903336	344.0	408.0	354	410	1
1.7	2015_Aug_04_1611	s	s	19	1	SIC	347	RC	0	1	23RO	1	0	2.41275310516	339.0	-277.0	341	-272	1
1.7	2015_Aug_04_1611	s	s	19	1	SIC	348	ABS	0	1	24RO	0	1	4.12705302238	None	None	None	None	1
1.7	2015_Aug_04_1611	s	s	19	1	SIC	349	RC	2	0	23VC	1	0	0.470654964447	26.0	-22.0	15	-22	1
1.7	2015_Aug_04_1611	s	s	19	1	SIC	350	RC	2	1	23VO	1	0	0.752711057663	376.0	-406.0	386	-405	1
1.7	2015_Aug_04_1611	s	s	19	1	SIC	351	ABS	1	0	24MC	0	1	6.32894301414	None	None	None	None	1
1.7	2015_Aug_04_1611	s	s	19	1	SIC	352	ABS	0	2	24RD	0	1	0.854104042053	None	None	None	None	1
1.7	2015_Aug_04_1611	s	s	19	1	SIC	353	RC	0	1	23RO	1	0	1.21178889275	283.0	140.0	274	136	1
1.7	2015_Aug_04_1611	s	s	19	1	SIC	354	RC	2	0	23VC	1	0	0.493775129318	14.0	290.0	11	286	1
1.7	2015_Aug_04_1611	s	s	19	1	SIC	355	RC	1	1	23MO	1	0	1.19745898247	230.0	185.0	230	190	1
1.7	2015_Aug_04_1611	s	s	19	1	SIC	356	ABS	1	2	24MD	0	1	0.905668973923	None	None	None	None	1
1.7	2015_Aug_04_1611	s	s	19	1	SIC	357	RC	2	2	23VD	1	0	0.512853145599	-142.0	203.0	-139	204	1
1.7	2015_Aug_04_1611	s	s	19	1	SIC	358	ABS	1	1	24MO	0	1	4.66421699524	None	None	None	None	1
1.7	2015_Aug_04_1611	s	s	19	1	SIC	359	ABS	1	0	24MC	0	1	5.96703505516	None	None	None	None	1
1.7	2015_Aug_04_1611	s	s	19	1	SIC	360	RC	2	1	23VO	1	0	0.493768215179	-61.0	-230.0	-64	-233	1
1.7	2015_Aug_04_1611	s	s	19	1	SIC	361	ABS	2	2	24VD	0	1	0.535865068436	None	None	None	None	1
1.7	2015_Aug_04_1611	s	s	19	1	SIC	362	ABS	0	1	24RO	0	1	4.56366491318	None	None	None	None	1
1.7	2015_Aug_04_1611	s	s	19	1	SIC	363	ABS	0	2	24RD	0	1	0.529345989227	None	None	None	None	1
1.7	2015_Aug_04_1611	s	s	19	1	SIC	364	RC	0	2	23RD	1	0	0.491277933121	-43.0	143.0	-38	142	1
1.7	2015_Aug_04_1611	s	s	19	1	SIC	365	RC	1	0	23MC	1	0	3.78423690796	438.0	84.0	437	90	1
1.7	2015_Aug_04_1611	s	s	19	1	SIC	366	RC	1	2	23MD	1	0	0.559252977371	365.0	136.0	367	135	1
1.7	2015_Aug_04_1611	s	s	19	1	SIC	367	ABS	2	1	24VO	0	1	0.681946992874	None	None	None	None	1
1.7	2015_Aug_04_1611	s	s	19	1	SIC	368	ABS	2	0	24VC	0	1	0.478253126144	None	None	None	None	1
1.7	2015_Aug_04_1611	s	s	19	1	SIC	369	ABS	1	1	24MO	0	1	4.48397994041	None	None	None	None	1
1.7	2015_Aug_04_1611	s	s	19	1	SIC	370	RC	1	1	23MO	1	0	1.3948571682	-172.0	147.0	-170	154	1
1.7	2015_Aug_04_1611	s	s	19	1	SIC	371	RC	2	2	23VD	1	0	0.465137958527	-135.0	-79.0	-136	-83	1
1.7	2015_Aug_04_1611	s	s	19	1	SIC	372	ABS	1	0	24MC	0	1	6.23262381554	None	None	None	None	1
1.7	2015_Aug_04_1611	s	s	19	1	SIC	373	RC	2	0	23VC	1	0	1.02343416214	510.0	-386.0	510	-389	1
1.7	2015_Aug_04_1611	s	s	19	1	SIC	374	ABS	2	0	24VC	0	1	0.693755865097	None	None	None	None	1
1.7	2015_Aug_04_1611	s	s	19	1	SIC	375	ABS	2	1	24VO	0	1	0.611768007278	None	None	None	None	1
1.7	2015_Aug_04_1611	s	s	19	1	SIC	376	RC	0	1	23RO	1	0	2.2829990387	-86.0	-77.0	-90	-74	1
1.7	2015_Aug_04_1611	s	s	19	1	SIC	377	RC	0	2	23RD	1	0	0.971273183823	-256.0	-381.0	-249	-378	1
1.7	2015_Aug_04_1611	s	s	19	1	SIC	378	RC	2	1	23VO	1	0	0.540769100189	124.0	-361.0	137	-356	1
1.7	2015_Aug_04_1611	s	s	19	1	SIC	379	ABS	1	2	24MD	0	1	1.14147400856	None	None	None	None	1
1.7	2015_Aug_04_1611	s	s	19	1	SIC	380	RC	1	2	23MD	1	0	0.785243988037	327.0	-363.0	324	-365	1
1.7	2015_Aug_04_1611	s	s	19	1	SIC	381	ABS	0	2	24RD	0	1	0.999887943268	None	None	None	None	1
1.7	2015_Aug_04_1611	s	s	19	1	SIC	382	ABS	2	2	24VD	1	0	0.466357946396	None	None	179	-53	0
1.7	2015_Aug_04_1611	s	s	19	1	SIC	383	RC	1	0	23MC	1	0	7.93913316727	-467.0	-408.0	-460	-409	1
1.7	2015_Aug_04_1611	s	s	19	1	SIC	384	ABS	0	1	24RO	0	1	4.3139359951	None	None	None	None	1
1.7	2015_Aug_04_1611	s	s	19	1	SIC	385	ABS	1	1	24MO	0	1	2.81258201599	None	None	None	None	1
1.7	2015_Aug_04_1611	s	s	19	1	SIC	386	RC	0	1	23RO	1	0	2.27107810974	170.0	-104.0	163	-109	1
1.7	2015_Aug_04_1611	s	s	19	1	SIC	387	ABS	1	2	24MD	0	1	0.665182113647	None	None	None	None	1
1.7	2015_Aug_04_1611	s	s	19	1	SIC	388	RC	1	1	23MO	1	0	2.16144418716	-307.0	310.0	-301	303	1
1.7	2015_Aug_04_1611	s	s	19	1	SIC	389	ABS	1	0	24MC	0	1	5.42044401169	None	None	None	None	1
1.7	2015_Aug_04_1611	s	s	19	1	SIC	390	RC	1	0	23MC	1	0	8.96563696861	108.0	-380.0	111	-382	1
1.7	2015_Aug_04_1611	s	s	19	1	SIC	391	RC	2	2	23VD	1	0	0.599654912949	223.0	131.0	227	139	1
1.7	2015_Aug_04_1611	s	s	19	1	SIC	392	ABS	2	0	24VC	0	1	0.793413162231	None	None	None	None	1
1.7	2015_Aug_04_1611	s	s	19	1	SIC	393	ABS	2	2	24VD	0	1	0.500556945801	None	None	None	None	1
1.7	2015_Aug_04_1611	s	s	19	1	SIC	394	ABS	2	1	24VO	0	1	0.383297920227	None	None	None	None	1
1.7	2015_Aug_04_1611	s	s	19	1	SIC	395	RC	1	2	23MD	1	0	0.630601882935	57.0	328.0	58	329	1
1.7	2015_Aug_04_1611	s	s	19	1	SIC	396	RC	2	1	23VO	1	0	1.26583194733	481.0	61.0	486	65	1
1.7	2015_Aug_04_1611	s	s	19	1	SIC	397	ABS	0	1	24RO	0	1	4.43203401566	None	None	None	None	1
1.7	2015_Aug_04_1611	s	s	19	1	SIC	398	RC	2	0	23VC	1	0	0.497463941574	339.0	35.0	338	31	1
1.7	2015_Aug_04_1611	s	s	19	1	SIC	399	ABS	0	2	24RD	0	1	0.652854204178	None	None	None	None	1
1.7	2015_Aug_04_1611	s	s	19	1	SIC	400	RC	0	2	23RD	1	0	1.77709698677	36.0	-149.0	43	-148	1
1.7	2015_Aug_04_1611	s	s	19	1	SIC	401	RC	1	2	23MD	1	0	0.513868093491	168.0	-320.0	181	-317	1
1.7	2015_Aug_04_1611	s	s	19	1	SIC	402	RC	2	1	23VO	1	0	0.682505130768	230.0	93.0	237	96	1
1.7	2015_Aug_04_1611	s	s	19	1	SIC	403	ABS	0	1	24RO	0	1	4.38972306252	None	None	None	None	1
1.7	2015_Aug_04_1611	s	s	19	1	SIC	404	RC	0	1	23RO	1	0	3.61297297478	142.0	-360.0	145	-361	1
1.7	2015_Aug_04_1611	s	s	19	1	SIC	405	ABS	0	2	24RD	0	1	0.714724063873	None	None	None	None	1
1.7	2015_Aug_04_1611	s	s	19	1	SIC	406	RC	1	1	23MO	1	0	1.24711108208	-515.0	-66.0	-518	-75	1
1.7	2015_Aug_04_1611	s	s	19	1	SIC	407	ABS	2	0	24VC	0	1	0.576133012772	None	None	None	None	1
1.7	2015_Aug_04_1611	s	s	19	1	SIC	408	RC	1	0	23MC	1	0	1.258852005	-283.0	208.0	-288	199	1
1.7	2015_Aug_04_1611	s	s	19	1	SIC	409	ABS	1	2	24MD	0	1	0.512500047684	None	None	None	None	1
1.7	2015_Aug_04_1611	s	s	19	1	SIC	410	RC	0	2	23RD	1	0	0.799744844437	-310.0	-332.0	-307	-335	1
1.7	2015_Aug_04_1611	s	s	19	1	SIC	411	RC	2	2	23VD	1	0	0.517251968384	146.0	-390.0	145	-387	1
1.7	2015_Aug_04_1611	s	s	19	1	SIC	412	RC	2	0	23VC	1	0	0.611420154572	-425.0	-306.0	-413	-297	1
1.7	2015_Aug_04_1611	s	s	19	1	SIC	413	ABS	1	1	24MO	0	1	3.53052091599	None	None	None	None	1
1.7	2015_Aug_04_1611	s	s	19	1	SIC	414	ABS	2	2	24VD	0	1	0.529084920883	None	None	None	None	1
1.7	2015_Aug_04_1611	s	s	19	1	SIC	415	ABS	2	1	24VO	0	1	0.752616167068	None	None	None	None	1
1.7	2015_Aug_04_1611	s	s	19	1	SIC	416	ABS	1	0	24MC	0	1	5.43736290932	None	None	None	None	1
1.7	2015_Aug_04_1611	s	s	19	1	SIC	417	ABS	1	1	24MO	0	1	3.66002106667	None	None	None	None	1
1.7	2015_Aug_04_1611	s	s	19	1	SIC	418	ABS	0	2	24RD	0	1	0.779908895493	None	None	None	None	1
1.7	2015_Aug_04_1611	s	s	19	1	SIC	419	RC	2	1	23VO	1	0	0.497279167175	-3.0	245.0	-10	242	1
1.7	2015_Aug_04_1611	s	s	19	1	SIC	420	RC	2	0	23VC	1	0	0.576136112213	38.0	338.0	46	339	1
1.7	2015_Aug_04_1611	s	s	19	1	SIC	421	ABS	1	2	24MD	0	1	0.639646053314	None	None	None	None	1
1.7	2015_Aug_04_1611	s	s	19	1	SIC	422	RC	0	2	23RD	1	0	0.587769031525	374.0	250.0	379	250	1
1.7	2015_Aug_04_1611	s	s	19	1	SIC	423	RC	0	1	23RO	1	0	4.01931715012	-288.0	323.0	-284	319	1
1.7	2015_Aug_04_1611	s	s	19	1	SIC	424	RC	1	0	23MC	1	0	1.32947802544	192.0	121.0	197	126	1
1.7	2015_Aug_04_1611	s	s	19	1	SIC	425	ABS	2	1	24VO	0	1	0.811589002609	None	None	None	None	1
1.7	2015_Aug_04_1611	s	s	19	1	SIC	426	ABS	1	0	24MC	0	1	6.42616295815	None	None	None	None	1
1.7	2015_Aug_04_1611	s	s	19	1	SIC	427	RC	1	1	23MO	1	0	1.60706996918	259.0	-211.0	253	-218	1
1.7	2015_Aug_04_1611	s	s	19	1	SIC	428	ABS	2	0	24VC	0	1	0.805616855621	None	None	None	None	1
1.7	2015_Aug_04_1611	s	s	19	1	SIC	429	RC	1	2	23MD	1	0	0.493702173233	-149.0	15.0	-144	24	1
1.7	2015_Aug_04_1611	s	s	19	1	SIC	430	ABS	0	1	24RO	0	1	4.46726202965	None	None	None	None	1
1.7	2015_Aug_04_1611	s	s	19	1	SIC	431	ABS	2	2	24VD	0	1	0.552623033524	None	None	None	None	1
1.7	2015_Aug_04_1611	s	s	19	1	SIC	432	RC	2	2	23VD	1	0	0.535840034485	-269.0	-293.0	-268	-288	1
1.7	2015_Aug_04_1611	s	s	19	1	SIC	433	RC	1	2	23MD	1	0	0.571058988571	354.0	-258.0	351	-261	1
1.7	2015_Aug_04_1611	s	s	19	1	SIC	434	RC	2	1	23VO	1	0	0.470170974731	-160.0	7.0	-162	1	1
1.7	2015_Aug_04_1611	s	s	19	1	SIC	435	ABS	0	1	24RO	0	1	4.57792711258	None	None	None	None	1
1.7	2015_Aug_04_1611	s	s	19	1	SIC	436	ABS	2	2	24VD	0	1	0.772720813751	None	None	None	None	1
1.7	2015_Aug_04_1611	s	s	19	1	SIC	437	RC	2	0	23VC	1	0	0.481950998306	-224.0	5.0	-218	2	1
1.7	2015_Aug_04_1611	s	s	19	1	SIC	438	ABS	2	1	24VO	0	1	0.655842065811	None	None	None	None	1
1.7	2015_Aug_04_1611	s	s	19	1	SIC	439	ABS	1	0	24MC	0	1	5.13779902458	None	None	None	None	1
1.7	2015_Aug_04_1611	s	s	19	1	SIC	440	RC	2	2	23VD	1	0	0.524262905121	-38.0	82.0	-35	80	1
1.7	2015_Aug_04_1611	s	s	19	1	SIC	441	ABS	2	0	24VC	0	1	0.717129945755	None	None	None	None	1
1.7	2015_Aug_04_1611	s	s	19	1	SIC	442	ABS	1	1	24MO	0	1	3.64827680588	None	None	None	None	1
1.7	2015_Aug_04_1611	s	s	19	1	SIC	443	RC	0	1	23RO	1	0	1.62006998062	-483.0	389.0	-484	386	1
1.7	2015_Aug_04_1611	s	s	19	1	SIC	444	RC	1	1	23MO	1	0	0.846837997437	-336.0	218.0	-337	224	1
1.7	2015_Aug_04_1611	s	s	19	1	SIC	445	ABS	0	2	24RD	0	1	0.587788820267	None	None	None	None	1
1.7	2015_Aug_04_1611	s	s	19	1	SIC	446	RC	1	0	23MC	1	0	4.8789999485	-346.0	396.0	-345	391	1
1.7	2015_Aug_04_1611	s	s	19	1	SIC	447	ABS	1	2	24MD	0	1	0.693815946579	None	None	None	None	1
1.7	2015_Aug_04_1611	s	s	19	1	SIC	448	RC	0	2	23RD	1	0	0.653218984604	337.0	-69.0	338	-65	1
1.7	2015_Aug_04_1611	s	s	19	1	SIC	449	RC	0	2	23RD	1	0	0.594818115234	526.0	35.0	522	30	1
1.7	2015_Aug_04_1611	s	s	19	1	SIC	450	ABS	2	2	24VD	0	1	0.576112985611	None	None	None	None	1
1.7	2015_Aug_04_1611	s	s	19	1	SIC	451	RC	2	0	23VC	1	0	0.477067947388	-266.0	-112.0	-265	-113	1
1.7	2015_Aug_04_1611	s	s	19	1	SIC	452	ABS	0	1	24RO	0	1	3.64825892448	None	None	None	None	1
1.7	2015_Aug_04_1611	s	s	19	1	SIC	453	RC	2	1	23VO	1	0	0.641824007034	118.0	-305.0	115	-308	1
1.7	2015_Aug_04_1611	s	s	19	1	SIC	454	RC	1	2	23MD	1	0	0.7997610569	-507.0	302.0	-516	298	1
1.7	2015_Aug_04_1611	s	s	19	1	SIC	455	ABS	2	0	24VC	0	1	0.594462871552	None	None	None	None	1
1.7	2015_Aug_04_1611	s	s	19	1	SIC	456	ABS	1	2	24MD	0	1	1.09780693054	None	None	None	None	1
1.7	2015_Aug_04_1611	s	s	19	1	SIC	457	ABS	2	1	24VO	0	1	0.735857009888	None	None	None	None	1
1.7	2015_Aug_04_1611	s	s	19	1	SIC	458	RC	1	0	23MC	1	0	5.62563109398	-195.0	-71.0	-191	-76	1
1.7	2015_Aug_04_1611	s	s	19	1	SIC	459	RC	1	1	23MO	1	0	1.28953790665	-204.0	19.0	-207	29	1
1.7	2015_Aug_04_1611	s	s	19	1	SIC	460	RC	0	1	23RO	1	0	1.09990811348	-431.0	292.0	-427	291	1
1.7	2015_Aug_04_1611	s	s	19	1	SIC	461	ABS	1	1	24MO	0	1	4.18444800377	None	None	None	None	1
1.7	2015_Aug_04_1611	s	s	19	1	SIC	462	ABS	0	2	24RD	0	1	0.653486967087	None	None	None	None	1
1.7	2015_Aug_04_1611	s	s	19	1	SIC	463	RC	2	2	23VD	1	0	0.540855169296	-165.0	212.0	-160	209	1
1.7	2015_Aug_04_1611	s	s	19	1	SIC	464	ABS	1	0	24MC	0	1	4.75466609001	None	None	None	None	1
1.7	2015_Aug_04_1611	s	s	19	1	SIC	465	RC	2	0	23VC	1	0	0.514728069305	-146.0	5.0	-139	-2	1
1.7	2015_Aug_04_1611	s	s	19	1	SIC	466	ABS	2	0	24VC	0	1	0.776237010956	None	None	None	None	1
1.7	2015_Aug_04_1611	s	s	19	1	SIC	467	RC	0	2	23RD	1	0	0.723510026932	249.0	-396.0	258	-396	1
1.7	2015_Aug_04_1611	s	s	19	1	SIC	468	RC	1	1	23MO	1	0	1.12440395355	217.0	-405.0	209	-404	1
1.7	2015_Aug_04_1611	s	s	19	1	SIC	469	RC	2	1	23VO	1	0	0.526411771774	478.0	-170.0	481	-170	1
1.7	2015_Aug_04_1611	s	s	19	1	SIC	470	ABS	1	1	24MO	0	1	2.9740319252	None	None	None	None	1
1.7	2015_Aug_04_1611	s	s	19	1	SIC	471	ABS	2	2	24VD	0	1	0.500370979309	None	None	None	None	1
1.7	2015_Aug_04_1611	s	s	19	1	SIC	472	ABS	2	1	24VO	0	1	0.537464141846	None	None	None	None	1
1.7	2015_Aug_04_1611	s	s	19	1	SIC	473	RC	0	1	23RO	0	1	5.19020390511	103.0	148.0	None	None	0
1.7	2015_Aug_04_1611	s	s	19	1	SIC	474	ABS	0	2	24RD	0	1	1.07092905045	None	None	None	None	1
1.7	2015_Aug_04_1611	s	s	19	1	SIC	475	ABS	1	0	24MC	0	1	8.33946895599	None	None	None	None	1
1.7	2015_Aug_04_1611	s	s	19	1	SIC	476	RC	1	0	23MC	1	0	8.23875904083	440.0	354.0	437	348	1
1.7	2015_Aug_04_1611	s	s	19	1	SIC	477	RC	1	2	23MD	1	0	1.68867707253	378.0	-93.0	377	-91	1
1.7	2015_Aug_04_1611	s	s	19	1	SIC	478	RC	2	2	23VD	1	0	0.477169036865	-322.0	29.0	-332	32	1
1.7	2015_Aug_04_1611	s	s	19	1	SIC	479	ABS	1	2	24MD	0	1	1.28230404854	None	None	None	None	1
1.7	2015_Aug_04_1611	s	s	19	1	SIC	480	ABS	0	1	24RO	0	1	4.67241215706	None	None	None	None	1
1.7	2015_Aug_04_1611	s	s	19	1	SIC	481	ABS	2	2	24VD	0	1	0.500319957733	None	None	None	None	1
1.7	2015_Aug_04_1611	s	s	19	1	SIC	482	RC	0	2	23RD	1	0	0.717287063599	-173.0	104.0	-166	103	1
1.7	2015_Aug_04_1611	s	s	19	1	SIC	483	ABS	1	1	24MO	0	1	4.20845198631	None	None	None	None	1
1.7	2015_Aug_04_1611	s	s	19	1	SIC	484	RC	0	1	23RO	1	0	1.16506099701	-255.0	245.0	-249	241	1
1.7	2015_Aug_04_1611	s	s	19	1	SIC	485	ABS	0	1	24RO	0	1	3.86624693871	None	None	None	None	1
1.7	2015_Aug_04_1611	s	s	19	1	SIC	486	RC	2	1	23VO	1	0	0.572838068008	218.0	369.0	220	370	1
1.7	2015_Aug_04_1611	s	s	19	1	SIC	487	ABS	2	1	24VO	0	1	0.629847049713	None	None	None	None	1
1.7	2015_Aug_04_1611	s	s	19	1	SIC	488	ABS	0	2	24RD	0	1	0.644003868103	None	None	None	None	1
1.7	2015_Aug_04_1611	s	s	19	1	SIC	489	ABS	2	0	24VC	0	1	0.652899980545	None	None	None	None	1
1.7	2015_Aug_04_1611	s	s	19	1	SIC	490	ABS	1	0	24MC	0	1	4.95479178429	None	None	None	None	1
1.7	2015_Aug_04_1611	s	s	19	1	SIC	491	RC	1	0	23MC	1	0	3.6436560154	130.0	-61.0	127	-64	1
1.7	2015_Aug_04_1611	s	s	19	1	SIC	492	RC	1	2	23MD	1	0	0.693800926208	-483.0	-157.0	-486	-158	1
1.7	2015_Aug_04_1611	s	s	19	1	SIC	493	ABS	1	2	24MD	0	1	0.628479003906	None	None	None	None	1
1.7	2015_Aug_04_1611	s	s	19	1	SIC	494	RC	2	2	23VD	1	0	0.529058933258	-429.0	213.0	-429	209	1
1.7	2015_Aug_04_1611	s	s	19	1	SIC	495	RC	1	1	23MO	1	0	1.27460312843	55.0	-38.0	66	-33	1
1.7	2015_Aug_04_1611	s	s	19	1	SIC	496	RC	2	0	23VC	1	0	0.535914897919	-35.0	-329.0	-29	-331	1
1.7	2015_Aug_04_1611	s	s	19	1	SIC	497	ABS	1	1	24MO	0	1	2.81952595711	None	None	None	None	1
1.7	2015_Aug_04_1611	s	s	19	1	SIC	498	ABS	1	2	24MD	0	1	0.667792081833	None	None	None	None	1
1.7	2015_Aug_04_1611	s	s	19	1	SIC	499	RC	2	1	23VO	1	0	0.478226900101	5.0	9.0	8	-4	1
1.7	2015_Aug_04_1611	s	s	19	1	SIC	500	ABS	2	1	24VO	0	1	0.623083114624	None	None	None	None	1
1.7	2015_Aug_04_1611	s	s	19	1	SIC	501	RC	1	2	23MD	1	0	0.582924127579	419.0	-197.0	415	-205	1
1.7	2015_Aug_04_1611	s	s	19	1	SIC	502	ABS	2	0	24VC	0	1	0.561029911041	None	None	None	None	1
1.7	2015_Aug_04_1611	s	s	19	1	SIC	503	RC	2	2	23VD	1	0	0.458386182785	-48.0	189.0	-51	189	1
1.7	2015_Aug_04_1611	s	s	19	1	SIC	504	RC	2	0	23VC	1	0	0.458441019058	392.0	-63.0	386	-64	1
1.7	2015_Aug_04_1611	s	s	19	1	SIC	505	ABS	0	1	24RO	0	1	4.29035997391	None	None	None	None	1
1.7	2015_Aug_04_1611	s	s	19	1	SIC	506	RC	1	1	23MO	1	0	0.917448043823	29.0	311.0	26	312	1
1.7	2015_Aug_04_1611	s	s	19	1	SIC	507	RC	0	2	23RD	1	0	0.476958990097	38.0	-78.0	37	-79	1
1.7	2015_Aug_04_1611	s	s	19	1	SIC	508	RC	1	0	23MC	1	0	2.04104495049	-242.0	163.0	-231	164	1
1.7	2015_Aug_04_1611	s	s	19	1	SIC	509	ABS	1	0	24MC	0	1	4.81357312202	None	None	None	None	1
1.7	2015_Aug_04_1611	s	s	19	1	SIC	510	RC	0	1	23RO	1	0	0.988173007965	-144.0	259.0	-146	255	1
1.7	2015_Aug_04_1611	s	s	19	1	SIC	511	ABS	0	2	24RD	0	1	1.3246691227	None	None	None	None	1
1.7	2015_Aug_04_1611	s	s	19	1	SIC	512	ABS	2	2	24VD	0	1	0.694041013718	None	None	None	None	1
1.7	2015_Aug_04_1611	s	s	19	1	SIC	513	ABS	2	1	24VO	0	1	0.485652923584	None	None	None	None	1
1.7	2015_Aug_04_1611	s	s	19	1	SIC	514	ABS	2	2	24VD	0	1	0.488641023636	None	None	None	None	1
1.7	2015_Aug_04_1611	s	s	19	1	SIC	515	ABS	0	1	24RO	0	1	4.44300603867	None	None	None	None	1
1.7	2015_Aug_04_1611	s	s	19	1	SIC	516	ABS	2	0	24VC	0	1	0.505454063416	None	None	None	None	1
1.7	2015_Aug_04_1611	s	s	19	1	SIC	517	RC	2	0	23VC	1	0	0.585368156433	-372.0	-53.0	-381	-56	1
1.7	2015_Aug_04_1611	s	s	19	1	SIC	518	ABS	0	2	24RD	0	1	0.66729092598	None	None	None	None	1
1.7	2015_Aug_04_1611	s	s	19	1	SIC	519	RC	1	0	23MC	1	0	1.31758594513	36.0	369.0	37	367	1
1.7	2015_Aug_04_1611	s	s	19	1	SIC	520	ABS	1	0	24MC	0	1	3.18347811699	None	None	None	None	1
1.7	2015_Aug_04_1611	s	s	19	1	SIC	521	RC	0	2	23RD	1	0	0.952762842178	390.0	238.0	391	236	1
1.7	2015_Aug_04_1611	s	s	19	1	SIC	522	RC	1	1	23MO	1	0	1.38327503204	160.0	-293.0	156	-298	1
1.7	2015_Aug_04_1611	s	s	19	1	SIC	523	RC	2	1	23VO	1	0	0.489568948746	-180.0	69.0	-180	64	1
1.7	2015_Aug_04_1611	s	s	19	1	SIC	524	RC	0	1	23RO	1	0	3.16564702988	-180.0	-288.0	-183	-292	1
1.7	2015_Aug_04_1611	s	s	19	1	SIC	525	RC	1	2	23MD	1	0	0.503139019012	239.0	111.0	235	115	1
1.7	2015_Aug_04_1611	s	s	19	1	SIC	526	ABS	1	1	24MO	0	1	2.99274611473	None	None	None	None	1
1.7	2015_Aug_04_1611	s	s	19	1	SIC	527	RC	2	2	23VD	1	0	0.523911952972	-3.0	-240.0	0	-245	1
1.7	2015_Aug_04_1611	s	s	19	1	SIC	528	ABS	1	2	24MD	0	1	0.959657907486	None	None	None	None	1
1.7	2015_Aug_04_1611	s	s	19	1	SIC	529	ABS	1	1	24MO	0	1	3.09142899513	None	None	None	None	1
1.7	2015_Aug_04_1611	s	s	19	1	SIC	530	RC	1	0	23MC	1	0	3.97786712646	413.0	-247.0	413	-249	1
1.7	2015_Aug_04_1611	s	s	19	1	SIC	531	ABS	1	2	24MD	0	1	1.1410279274	None	None	None	None	1
1.7	2015_Aug_04_1611	s	s	19	1	SIC	532	RC	2	0	23VC	1	0	0.511893987656	2.0	268.0	4	268	1
1.7	2015_Aug_04_1611	s	s	19	1	SIC	533	RC	1	1	23MO	1	0	1.04197597504	286.0	-226.0	284	-225	1
1.7	2015_Aug_04_1611	s	s	19	1	SIC	534	RC	0	2	23RD	1	0	0.477077960968	160.0	35.0	151	40	1
1.7	2015_Aug_04_1611	s	s	19	1	SIC	535	ABS	2	0	24VC	0	1	0.62969994545	None	None	None	None	1
1.7	2015_Aug_04_1611	s	s	19	1	SIC	536	RC	1	2	23MD	1	0	0.500424861908	422.0	-135.0	424	-132	1
1.7	2015_Aug_04_1611	s	s	19	1	SIC	537	RC	0	1	23RO	1	0	2.62414193153	5.0	245.0	6	253	1
1.7	2015_Aug_04_1611	s	s	19	1	SIC	538	ABS	2	2	24VD	0	1	0.582697868347	None	None	None	None	1
1.7	2015_Aug_04_1611	s	s	19	1	SIC	539	ABS	0	2	24RD	0	1	0.665332794189	None	None	None	None	1
1.7	2015_Aug_04_1611	s	s	19	1	SIC	540	ABS	1	0	24MC	0	1	4.35430598259	None	None	None	None	1
1.7	2015_Aug_04_1611	s	s	19	1	SIC	541	ABS	2	1	24VO	1	0	0.465166807175	None	None	127	-89	0
1.7	2015_Aug_04_1611	s	s	19	1	SIC	542	ABS	0	1	24RO	0	1	4.53109288216	None	None	None	None	1
1.7	2015_Aug_04_1611	s	s	19	1	SIC	543	RC	2	2	23VD	1	0	0.571233987808	-137.0	399.0	-132	403	1
1.7	2015_Aug_04_1611	s	s	19	1	SIC	544	RC	2	1	23VO	1	0	1.05378699303	430.0	-109.0	427	-111	1
1.7	2015_Aug_04_1611	s	s	19	1	SIC	545	ABS	0	1	24RO	0	1	4.14629411697	None	None	None	None	1
1.7	2015_Aug_04_1611	s	s	19	1	SIC	546	RC	1	1	23MO	1	0	1.42729997635	-366.0	180.0	-352	187	1
1.7	2015_Aug_04_1611	s	s	19	1	SIC	547	ABS	1	0	24MC	0	1	4.82538700104	None	None	None	None	1
1.7	2015_Aug_04_1611	s	s	19	1	SIC	548	ABS	1	2	24MD	0	1	0.658524036407	None	None	None	None	1
1.7	2015_Aug_04_1611	s	s	19	1	SIC	549	RC	1	0	23MC	1	0	3.16562891006	-341.0	-136.0	-345	-138	1
1.7	2015_Aug_04_1611	s	s	19	1	SIC	550	RC	0	2	23RD	1	0	0.547508955002	-182.0	138.0	-178	139	1
1.7	2015_Aug_04_1611	s	s	19	1	SIC	551	ABS	0	2	24RD	0	1	0.641702890396	None	None	None	None	1
1.7	2015_Aug_04_1611	s	s	19	1	SIC	552	ABS	1	1	24MO	0	1	3.35425615311	None	None	None	None	1
1.7	2015_Aug_04_1611	s	s	19	1	SIC	553	ABS	2	1	24VO	0	1	0.549030780792	None	None	None	None	1
1.7	2015_Aug_04_1611	s	s	19	1	SIC	554	RC	0	1	23RO	1	0	3.21954989433	-321.0	220.0	-316	228	1
1.7	2015_Aug_04_1611	s	s	19	1	SIC	555	RC	2	0	23VC	1	0	0.476155042648	289.0	-7.0	289	0	1
1.7	2015_Aug_04_1611	s	s	19	1	SIC	556	RC	2	2	23VD	1	0	0.556235074997	428.0	-386.0	425	-385	1
1.7	2015_Aug_04_1611	s	s	19	1	SIC	557	RC	2	1	23VO	1	0	0.493751049042	-227.0	-363.0	-224	-364	1
1.7	2015_Aug_04_1611	s	s	19	1	SIC	558	ABS	2	0	24VC	0	1	0.594539880753	None	None	None	None	1
1.7	2015_Aug_04_1611	s	s	19	1	SIC	559	ABS	2	2	24VD	0	1	0.688868999481	None	None	None	None	1
1.7	2015_Aug_04_1611	s	s	19	1	SIC	560	RC	1	2	23MD	1	0	0.481971979141	310.0	-39.0	305	-38	1
1.7	2015_Aug_04_1611	s	s	19	1	SIC	561	ABS	2	1	24VO	0	1	0.512001037598	None	None	None	None	1
1.7	2015_Aug_04_1611	s	s	19	1	SIC	562	RC	1	1	23MO	1	0	1.0420999527	399.0	-205.0	403	-206	1
1.7	2015_Aug_04_1611	s	s	19	1	SIC	563	RC	0	1	23RO	1	0	2.78315997124	434.0	295.0	435	285	1
1.7	2015_Aug_04_1611	s	s	19	1	SIC	564	ABS	1	2	24MD	0	1	0.623354911804	None	None	None	None	1
1.7	2015_Aug_04_1611	s	s	19	1	SIC	565	RC	1	2	23MD	1	0	0.561055898666	-408.0	-412.0	-405	-417	1
1.7	2015_Aug_04_1611	s	s	19	1	SIC	566	ABS	1	0	24MC	0	1	5.06073784828	None	None	None	None	1
1.7	2015_Aug_04_1611	s	s	19	1	SIC	567	ABS	0	1	24RO	0	1	4.30240392685	None	None	None	None	1
1.7	2015_Aug_04_1611	s	s	19	1	SIC	568	ABS	2	2	24VD	0	1	0.382723808289	None	None	None	None	1
1.7	2015_Aug_04_1611	s	s	19	1	SIC	569	RC	1	0	23MC	1	0	2.28286886215	131.0	-288.0	129	-290	1
1.7	2015_Aug_04_1611	s	s	19	1	SIC	570	RC	2	1	23VO	1	0	0.481979131699	-78.0	91.0	-79	91	1
1.7	2015_Aug_04_1611	s	s	19	1	SIC	571	ABS	0	2	24RD	0	1	0.59951710701	None	None	None	None	1
1.7	2015_Aug_04_1611	s	s	19	1	SIC	572	ABS	1	1	24MO	0	1	4.30771398544	None	None	None	None	1
1.7	2015_Aug_04_1611	s	s	19	1	SIC	573	RC	2	0	23VC	1	0	0.548895120621	-289.0	-242.0	-284	-240	1
1.7	2015_Aug_04_1611	s	s	19	1	SIC	574	ABS	2	0	24VC	0	1	0.905740022659	None	None	None	None	1
1.7	2015_Aug_04_1611	s	s	19	1	SIC	575	RC	2	2	23VD	1	0	0.571225881577	98.0	-196.0	103	-205	1
1.7	2015_Aug_04_1611	s	s	19	1	SIC	576	RC	0	2	23RD	1	0	0.724089860916	-490.0	-181.0	-483	-179	1
1.7	2015_Aug_04_1611	s	s	19	1	SIC	577	RC	1	0	23MC	1	0	2.81938791275	22.0	398.0	20	395	1
1.7	2015_Aug_04_1611	s	s	19	1	SIC	578	ABS	1	2	24MD	0	1	0.623152017593	None	None	None	None	1
1.7	2015_Aug_04_1611	s	s	19	1	SIC	579	RC	0	2	23RD	1	0	0.547492027283	-345.0	136.0	-339	131	1
1.7	2015_Aug_04_1611	s	s	19	1	SIC	580	ABS	1	1	24MO	0	1	3.64826393127	None	None	None	None	1
1.7	2015_Aug_04_1611	s	s	19	1	SIC	581	RC	2	1	23VO	1	0	0.488766908646	-185.0	227.0	-192	226	1
1.7	2015_Aug_04_1611	s	s	19	1	SIC	582	RC	0	1	23RO	1	0	2.50647211075	508.0	-208.0	519	-208	1
1.7	2015_Aug_04_1611	s	s	19	1	SIC	583	ABS	2	1	24VO	0	1	0.571221828461	None	None	None	None	1
1.7	2015_Aug_04_1611	s	s	19	1	SIC	584	RC	2	2	23VD	1	0	0.51171708107	-461.0	264.0	-456	265	1
1.7	2015_Aug_04_1611	s	s	19	1	SIC	585	RC	1	1	23MO	1	0	1.18576693535	444.0	129.0	456	137	1
1.7	2015_Aug_04_1611	s	s	19	1	SIC	586	RC	1	2	23MD	1	0	1.02903318405	40.0	123.0	37	123	1
1.7	2015_Aug_04_1611	s	s	19	1	SIC	587	ABS	0	1	24RO	0	1	4.34272217751	None	None	None	None	1
1.7	2015_Aug_04_1611	s	s	19	1	SIC	588	ABS	0	2	24RD	0	1	0.729644060135	None	None	None	None	1
1.7	2015_Aug_04_1611	s	s	19	1	SIC	589	ABS	2	2	24VD	0	1	0.571475982666	None	None	None	None	1
1.7	2015_Aug_04_1611	s	s	19	1	SIC	590	ABS	1	0	24MC	0	1	3.73768210411	None	None	None	None	1
1.7	2015_Aug_04_1611	s	s	19	1	SIC	591	RC	2	0	23VC	1	0	0.493698835373	194.0	99.0	198	102	1
1.7	2015_Aug_04_1611	s	s	19	1	SIC	592	ABS	2	0	24VC	0	1	0.682029008865	None	None	None	None	1
