Version	Date	Stimuli	Method	Subject	Session	Condition	Trial	Target	Channel1	Channel2	Distractors	LMouseButton	RMouseButton	RT	TargetX	TargetY	ResponseX	ResponseY	Correct
1.7	2015_Aug_13_1509	s	s	20	3	Capacity	1	ABS	0	1	24RO	0	1	5.9856569767	None	None	None	None	1
1.7	2015_Aug_13_1509	s	s	20	3	Capacity	2	ABS	0	2	24RD	0	1	1.24723887444	None	None	None	None	1
1.7	2015_Aug_13_1509	s	s	20	3	Capacity	3	RC	0	2	23RD	1	0	0.564321994781	373.0	-397.0	368	-396	1
1.7	2015_Aug_13_1509	s	s	20	3	Capacity	4	RC	0	1	23RO	1	0	3.65569400787	-505.0	62.0	-507	63	1
1.7	2015_Aug_13_1509	s	s	20	3	Capacity	5	RC	0	2	23RD	1	0	0.617990970612	-202.0	157.0	-204	164	1
1.7	2015_Aug_13_1509	s	s	20	3	Capacity	6	RC	0	1	23RO	1	0	4.86964201927	-188.0	386.0	-188	384	1
1.7	2015_Aug_13_1509	s	s	20	3	Capacity	7	ABS	0	1	24RO	0	1	7.76260614395	None	None	None	None	1
1.7	2015_Aug_13_1509	s	s	20	3	Capacity	8	ABS	0	2	24RD	0	1	2.64249110222	None	None	None	None	1
1.7	2015_Aug_13_1509	s	s	20	3	Capacity	9	ABS	0	2	24RD	0	1	1.98468708992	None	None	None	None	1
1.7	2015_Aug_13_1509	s	s	20	3	Capacity	10	RC	0	1	23RO	1	0	4.62516999245	490.0	-361.0	492	-364	1
1.7	2015_Aug_13_1509	s	s	20	3	Capacity	11	RC	0	2	23RD	1	0	0.537079811096	-297.0	-375.0	-294	-371	1
1.7	2015_Aug_13_1509	s	s	20	3	Capacity	12	ABS	0	1	24RO	0	1	8.26951313019	None	None	None	None	1
1.7	2015_Aug_13_1509	s	s	20	3	Capacity	13	ABS	0	2	24RD	0	1	1.31235194206	None	None	None	None	1
1.7	2015_Aug_13_1509	s	s	20	3	Capacity	14	RC	0	1	23RO	1	0	2.17691802979	278.0	338.0	277	344	1
1.7	2015_Aug_13_1509	s	s	20	3	Capacity	15	RC	0	2	23RD	1	0	1.09399008751	521.0	-126.0	526	-133	1
1.7	2015_Aug_13_1509	s	s	20	3	Capacity	16	ABS	0	1	24RO	0	1	6.5033531189	None	None	None	None	1
1.7	2015_Aug_13_1509	s	s	20	3	Capacity	17	ABS	0	1	24RO	1	0	0.999835014343	None	None	37	-45	0
1.7	2015_Aug_13_1509	s	s	20	3	Capacity	18	ABS	0	2	24RD	0	1	1.0703690052	None	None	None	None	1
1.7	2015_Aug_13_1509	s	s	20	3	Capacity	19	RC	0	2	23RD	1	0	0.630439043045	-504.0	31.0	-502	30	1
1.7	2015_Aug_13_1509	s	s	20	3	Capacity	20	RC	0	1	23RO	1	0	2.08959794044	388.0	-382.0	386	-381	1
1.7	2015_Aug_13_1509	s	s	20	3	Capacity	21	ABS	0	2	24RD	0	1	1.32453298569	None	None	None	None	1
1.7	2015_Aug_13_1509	s	s	20	3	Capacity	22	RC	0	1	23RO	1	0	1.56151008606	294.0	-120.0	290	-115	1
1.7	2015_Aug_13_1509	s	s	20	3	Capacity	23	RC	0	2	23RD	1	0	0.535350084305	115.0	158.0	114	160	1
1.7	2015_Aug_13_1509	s	s	20	3	Capacity	24	ABS	0	1	24RO	0	1	6.59065794945	None	None	None	None	1
1.7	2015_Aug_13_1509	s	s	20	3	Capacity	25	RC	0	2	23RD	1	0	0.564248085022	-406.0	-126.0	-406	-123	1
1.7	2015_Aug_13_1509	s	s	20	3	Capacity	26	ABS	0	1	24RO	0	1	6.57422399521	None	None	None	None	1
1.7	2015_Aug_13_1509	s	s	20	3	Capacity	27	ABS	0	2	24RD	0	1	1.01839709282	None	None	None	None	1
1.7	2015_Aug_13_1509	s	s	20	3	Capacity	28	RC	0	1	23RO	1	0	3.89015007019	-331.0	81.0	-328	84	1
1.7	2015_Aug_13_1509	s	s	20	3	Capacity	29	ABS	0	2	24RD	0	1	1.12929701805	None	None	None	None	1
1.7	2015_Aug_13_1509	s	s	20	3	Capacity	30	RC	0	2	23RD	1	0	0.475949048996	-209.0	-136.0	-206	-132	1
1.7	2015_Aug_13_1509	s	s	20	3	Capacity	31	RC	0	1	23RO	1	0	1.12598490715	329.0	-92.0	332	-96	1
1.7	2015_Aug_13_1509	s	s	20	3	Capacity	32	ABS	0	1	24RO	0	1	4.98624897003	None	None	None	None	1
1.7	2015_Aug_13_1509	s	s	20	3	Capacity	33	RC	0	2	23RD	1	0	0.517266988754	-40.0	245.0	-40	245	1
1.7	2015_Aug_13_1509	s	s	20	3	Capacity	34	ABS	0	2	24RD	0	1	2.29457998276	None	None	None	None	1
1.7	2015_Aug_13_1509	s	s	20	3	Capacity	35	ABS	0	1	24RO	1	0	6.57887601852	None	None	28	-100	0
1.7	2015_Aug_13_1509	s	s	20	3	Capacity	36	RC	0	1	23RO	1	0	2.24752998352	451.0	-18.0	454	-14	1
1.7	2015_Aug_13_1509	s	s	20	3	Capacity	37	RC	0	2	23RD	1	0	0.799733877182	398.0	-1.0	399	-2	1
1.7	2015_Aug_13_1509	s	s	20	3	Capacity	38	ABS	0	1	24RO	0	1	5.25564002991	None	None	None	None	1
1.7	2015_Aug_13_1509	s	s	20	3	Capacity	39	RC	0	1	23RO	1	0	4.50747704506	-314.0	56.0	-305	62	1
1.7	2015_Aug_13_1509	s	s	20	3	Capacity	40	ABS	0	2	24RD	0	1	1.55312013626	None	None	None	None	1
1.7	2015_Aug_13_1509	s	s	20	3	Capacity	41	ABS	0	2	24RD	0	1	1.47061419487	None	None	None	None	1
1.7	2015_Aug_13_1509	s	s	20	3	Capacity	42	ABS	0	1	24RO	0	1	6.66148686409	None	None	None	None	1
1.7	2015_Aug_13_1509	s	s	20	3	Capacity	43	RC	0	2	23RD	1	0	0.632043123245	491.0	165.0	498	166	1
1.7	2015_Aug_13_1509	s	s	20	3	Capacity	44	RC	0	1	23RO	1	0	3.20093107224	-505.0	-18.0	-508	-14	1
1.7	2015_Aug_13_1509	s	s	20	3	Capacity	45	ABS	0	1	24RO	0	1	6.55091381073	None	None	None	None	1
1.7	2015_Aug_13_1509	s	s	20	3	Capacity	46	RC	0	2	23RD	1	0	0.677102088928	-428.0	-80.0	-428	-80	1
1.7	2015_Aug_13_1509	s	s	20	3	Capacity	47	ABS	0	2	24RD	0	1	1.11273503304	None	None	None	None	1
1.7	2015_Aug_13_1509	s	s	20	3	Capacity	48	RC	0	1	23RO	1	0	0.858338117599	-162.0	42.0	-164	46	1
1.7	2015_Aug_13_1509	s	s	20	3	Capacity	49	ABS	0	1	24RO	0	1	5.41044712067	None	None	None	None	1
1.7	2015_Aug_13_1509	s	s	20	3	Capacity	50	RC	0	2	23RD	1	0	0.776307106018	-137.0	259.0	-144	254	1
1.7	2015_Aug_13_1509	s	s	20	3	Capacity	51	ABS	0	2	24RD	0	1	1.45889377594	None	None	None	None	1
1.7	2015_Aug_13_1509	s	s	20	3	Capacity	52	RC	0	1	23RO	1	0	1.46555304527	388.0	319.0	390	325	1
1.7	2015_Aug_13_1509	s	s	20	3	Capacity	53	RC	0	2	23RD	1	0	0.712283849716	11.0	-267.0	7	-263	1
1.7	2015_Aug_13_1509	s	s	20	3	Capacity	54	ABS	0	2	24RD	0	1	0.841781139374	None	None	None	None	1
1.7	2015_Aug_13_1509	s	s	20	3	Capacity	55	RC	0	1	23RO	1	0	3.94880890846	-487.0	42.0	-479	43	1
1.7	2015_Aug_13_1509	s	s	20	3	Capacity	56	ABS	0	1	24RO	0	1	6.5153670311	None	None	None	None	1
1.7	2015_Aug_13_1509	s	s	20	3	Capacity	57	RC	0	1	23RO	1	0	1.19994306564	-288.0	306.0	-282	311	1
1.7	2015_Aug_13_1509	s	s	20	3	Capacity	58	ABS	0	1	24RO	0	1	3.00749516487	None	None	None	None	1
1.7	2015_Aug_13_1509	s	s	20	3	Capacity	59	ABS	0	2	24RD	0	1	2.16021299362	None	None	None	None	1
1.7	2015_Aug_13_1509	s	s	20	3	Capacity	60	RC	0	2	23RD	1	0	0.493728876114	505.0	9.0	503	9	1
1.7	2015_Aug_13_1509	s	s	20	3	Capacity	61	RC	0	1	23RO	1	0	1.86525797844	-340.0	-180.0	-331	-175	1
1.7	2015_Aug_13_1509	s	s	20	3	Capacity	62	ABS	0	2	24RD	0	1	1.33625197411	None	None	None	None	1
1.7	2015_Aug_13_1509	s	s	20	3	Capacity	63	ABS	0	1	24RO	0	1	7.29709100723	None	None	None	None	1
1.7	2015_Aug_13_1509	s	s	20	3	Capacity	64	RC	0	2	23RD	1	0	0.524094104767	-470.0	359.0	-468	361	1
1.7	2015_Aug_13_1509	s	s	20	3	Capacity	65	ABS	0	1	24RO	0	1	6.1384999752	None	None	None	None	1
1.7	2015_Aug_13_1509	s	s	20	3	Capacity	66	RC	0	2	23RD	1	0	0.458516120911	278.0	375.0	276	379	1
1.7	2015_Aug_13_1509	s	s	20	3	Capacity	67	RC	0	1	23RO	1	0	2.60749387741	523.0	-8.0	516	-6	1
1.7	2015_Aug_13_1509	s	s	20	3	Capacity	68	ABS	0	2	24RD	0	1	0.913805007935	None	None	None	None	1
1.7	2015_Aug_13_1509	s	s	20	3	Capacity	69	RC	0	1	23RO	1	0	3.62101197243	-310.0	204.0	-311	207	1
1.7	2015_Aug_13_1509	s	s	20	3	Capacity	70	RC	0	2	23RD	1	0	0.587823867798	-538.0	138.0	-538	144	1
1.7	2015_Aug_13_1509	s	s	20	3	Capacity	71	ABS	0	1	24RO	0	1	3.94903492928	None	None	None	None	1
1.7	2015_Aug_13_1509	s	s	20	3	Capacity	72	ABS	0	2	24RD	0	1	1.34132599831	None	None	None	None	1
1.7	2015_Aug_13_1509	s	s	20	3	Capacity	73	ABS	0	2	24RD	0	1	0.924073934555	None	None	None	None	1
1.7	2015_Aug_13_1509	s	s	20	3	Capacity	74	RC	0	1	23RO	1	0	0.96451997757	301.0	137.0	298	138	1
1.7	2015_Aug_13_1509	s	s	20	3	Capacity	75	RC	0	2	23RD	1	0	0.540823936462	-453.0	342.0	-458	341	1
1.7	2015_Aug_13_1509	s	s	20	3	Capacity	76	ABS	0	1	24RO	0	1	4.97019600868	None	None	None	None	1
1.7	2015_Aug_13_1509	s	s	20	3	Capacity	77	RC	0	2	23RD	1	0	0.481871843338	-455.0	172.0	-454	171	1
1.7	2015_Aug_13_1509	s	s	20	3	Capacity	78	RC	0	1	23RO	1	0	4.42510604858	259.0	-397.0	248	-390	1
1.7	2015_Aug_13_1509	s	s	20	3	Capacity	79	ABS	0	2	24RD	0	1	1.70077490807	None	None	None	None	1
1.7	2015_Aug_13_1509	s	s	20	3	Capacity	80	ABS	0	1	24RO	0	1	8.76845407486	None	None	None	None	1
1.7	2015_Aug_13_1509	s	s	20	3	Capacity	81	ABS	0	2	24RD	0	1	1.02378606796	None	None	None	None	1
1.7	2015_Aug_13_1509	s	s	20	3	Capacity	82	RC	0	2	23RD	1	0	0.688534021378	-325.0	352.0	-323	355	1
1.7	2015_Aug_13_1509	s	s	20	3	Capacity	83	ABS	0	1	24RO	0	1	3.8800470829	None	None	None	None	1
1.7	2015_Aug_13_1509	s	s	20	3	Capacity	84	RC	0	1	23RO	1	0	2.68994212151	488.0	-330.0	494	-328	1
1.7	2015_Aug_13_1509	s	s	20	3	Capacity	85	RC	0	1	23RO	1	0	0.611336946487	-87.0	3.0	-85	1	1
1.7	2015_Aug_13_1509	s	s	20	3	Capacity	86	ABS	0	2	24RD	0	1	1.05375814438	None	None	None	None	1
1.7	2015_Aug_13_1509	s	s	20	3	Capacity	87	RC	0	2	23RD	1	0	0.441717147827	51.0	5.0	41	12	1
1.7	2015_Aug_13_1509	s	s	20	3	Capacity	88	ABS	0	1	24RO	0	1	4.53770017624	None	None	None	None	1
1.7	2015_Aug_13_1509	s	s	20	3	Capacity	89	RC	0	1	23RO	1	0	2.26608109474	-214.0	-346.0	-208	-341	1
1.7	2015_Aug_13_1509	s	s	20	3	Capacity	90	ABS	0	1	24RO	0	1	4.83701491356	None	None	None	None	1
1.7	2015_Aug_13_1509	s	s	20	3	Capacity	91	RC	0	2	23RD	1	0	0.782743930817	326.0	-223.0	330	-222	1
1.7	2015_Aug_13_1509	s	s	20	3	Capacity	92	ABS	0	2	24RD	0	1	1.11240196228	None	None	None	None	1
1.7	2015_Aug_13_1509	s	s	20	3	Capacity	1	ABS	1	0	24MC	0	1	0.811405897141	None	None	None	None	1
1.7	2015_Aug_13_1509	s	s	20	3	Capacity	2	RC	1	0	23MC	1	0	1.81877112389	-536.0	-31.0	-538	-28	1
1.7	2015_Aug_13_1509	s	s	20	3	Capacity	3	RC	2	0	23VC	1	0	0.559310913086	-195.0	-33.0	-198	-36	1
1.7	2015_Aug_13_1509	s	s	20	3	Capacity	4	ABS	2	0	24VC	0	1	0.607864141464	None	None	None	None	1
1.7	2015_Aug_13_1509	s	s	20	3	Capacity	5	ABS	1	0	24MC	0	1	2.14877510071	None	None	None	None	1
1.7	2015_Aug_13_1509	s	s	20	3	Capacity	6	RC	2	0	23VC	1	0	0.493659973145	246.0	199.0	245	199	1
1.7	2015_Aug_13_1509	s	s	20	3	Capacity	7	ABS	2	0	24VC	0	1	0.576102018356	None	None	None	None	1
1.7	2015_Aug_13_1509	s	s	20	3	Capacity	8	RC	1	0	23MC	1	0	1.01890707016	468.0	273.0	470	273	1
1.7	2015_Aug_13_1509	s	s	20	3	Capacity	9	ABS	2	0	24VC	0	1	0.608027935028	None	None	None	None	1
1.7	2015_Aug_13_1509	s	s	20	3	Capacity	10	RC	1	0	23MC	1	0	0.570906877518	375.0	-152.0	366	-147	1
1.7	2015_Aug_13_1509	s	s	20	3	Capacity	11	RC	2	0	23VC	1	0	0.470156908035	-535.0	157.0	-534	158	1
1.7	2015_Aug_13_1509	s	s	20	3	Capacity	12	ABS	1	0	24MC	1	0	0.599651098251	None	None	-516	250	0
1.7	2015_Aug_13_1509	s	s	20	3	Capacity	13	ABS	2	0	24VC	0	1	0.576004981995	None	None	None	None	1
1.7	2015_Aug_13_1509	s	s	20	3	Capacity	14	ABS	1	0	24MC	0	1	1.35662508011	None	None	None	None	1
1.7	2015_Aug_13_1509	s	s	20	3	Capacity	15	RC	1	0	23MC	1	0	0.642176151276	177.0	-257.0	189	-256	1
1.7	2015_Aug_13_1509	s	s	20	3	Capacity	16	RC	2	0	23VC	1	0	0.453325033188	387.0	34.0	379	41	1
1.7	2015_Aug_13_1509	s	s	20	3	Capacity	17	ABS	2	0	24VC	0	1	0.55944609642	None	None	None	None	1
1.7	2015_Aug_13_1509	s	s	20	3	Capacity	18	ABS	1	0	24MC	0	1	1.40686011314	None	None	None	None	1
1.7	2015_Aug_13_1509	s	s	20	3	Capacity	19	RC	2	0	23VC	1	0	0.481997966766	534.0	398.0	531	400	1
1.7	2015_Aug_13_1509	s	s	20	3	Capacity	20	RC	1	0	23MC	1	0	0.434895038605	286.0	6.0	281	6	1
1.7	2015_Aug_13_1509	s	s	20	3	Capacity	21	RC	2	0	23VC	1	0	0.481908082962	-486.0	-357.0	-483	-355	1
1.7	2015_Aug_13_1509	s	s	20	3	Capacity	22	ABS	1	0	24MC	0	1	1.65904307365	None	None	None	None	1
1.7	2015_Aug_13_1509	s	s	20	3	Capacity	23	ABS	2	0	24VC	0	1	0.564236879349	None	None	None	None	1
1.7	2015_Aug_13_1509	s	s	20	3	Capacity	24	RC	1	0	23MC	1	0	0.458431005478	161.0	250.0	156	249	1
1.7	2015_Aug_13_1509	s	s	20	3	Capacity	25	ABS	2	0	24VC	0	1	0.547112941742	None	None	None	None	1
1.7	2015_Aug_13_1509	s	s	20	3	Capacity	26	RC	2	0	23VC	1	0	0.465528011322	94.0	-386.0	95	-387	1
1.7	2015_Aug_13_1509	s	s	20	3	Capacity	27	ABS	1	0	24MC	0	1	1.34796190262	None	None	None	None	1
1.7	2015_Aug_13_1509	s	s	20	3	Capacity	28	RC	1	0	23MC	1	0	0.794764041901	463.0	133.0	464	131	1
1.7	2015_Aug_13_1509	s	s	20	3	Capacity	29	ABS	1	0	24MC	0	1	0.735676050186	None	None	None	None	1
1.7	2015_Aug_13_1509	s	s	20	3	Capacity	30	RC	2	0	23VC	1	0	0.429944038391	234.0	-33.0	242	-32	1
1.7	2015_Aug_13_1509	s	s	20	3	Capacity	31	RC	1	0	23MC	1	0	1.33633899689	-183.0	-335.0	-173	-333	1
1.7	2015_Aug_13_1509	s	s	20	3	Capacity	32	ABS	2	0	24VC	0	1	0.870338916779	None	None	None	None	1
1.7	2015_Aug_13_1509	s	s	20	3	Capacity	33	RC	2	0	23VC	1	0	0.517264127731	71.0	278.0	62	279	1
1.7	2015_Aug_13_1509	s	s	20	3	Capacity	34	RC	1	0	23MC	1	0	1.1021668911	18.0	-406.0	15	-408	1
1.7	2015_Aug_13_1509	s	s	20	3	Capacity	35	ABS	1	0	24MC	0	1	1.20103788376	None	None	None	None	1
1.7	2015_Aug_13_1509	s	s	20	3	Capacity	36	ABS	2	0	24VC	0	1	0.552445888519	None	None	None	None	1
1.7	2015_Aug_13_1509	s	s	20	3	Capacity	37	RC	2	0	23VC	1	0	0.500392913818	51.0	328.0	57	328	1
1.7	2015_Aug_13_1509	s	s	20	3	Capacity	38	RC	1	0	23MC	1	0	0.736677885056	424.0	132.0	428	138	1
1.7	2015_Aug_13_1509	s	s	20	3	Capacity	39	ABS	2	0	24VC	0	1	0.517246007919	None	None	None	None	1
1.7	2015_Aug_13_1509	s	s	20	3	Capacity	40	ABS	1	0	24MC	0	1	2.02380299568	None	None	None	None	1
1.7	2015_Aug_13_1509	s	s	20	3	Capacity	41	ABS	1	0	24MC	0	1	1.89434409142	None	None	None	None	1
1.7	2015_Aug_13_1509	s	s	20	3	Capacity	42	RC	2	0	23VC	1	0	0.453477144241	-346.0	143.0	-341	145	1
1.7	2015_Aug_13_1509	s	s	20	3	Capacity	43	ABS	2	0	24VC	0	1	0.552525043488	None	None	None	None	1
1.7	2015_Aug_13_1509	s	s	20	3	Capacity	44	RC	1	0	23MC	1	0	1.45954990387	-304.0	-331.0	-310	-325	1
1.7	2015_Aug_13_1509	s	s	20	3	Capacity	45	RC	1	0	23MC	1	0	0.846803188324	-382.0	129.0	-386	128	1
1.7	2015_Aug_13_1509	s	s	20	3	Capacity	46	RC	2	0	23VC	1	0	0.411298036575	61.0	313.0	65	318	1
1.7	2015_Aug_13_1509	s	s	20	3	Capacity	47	ABS	1	0	24MC	0	1	1.06686592102	None	None	None	None	1
1.7	2015_Aug_13_1509	s	s	20	3	Capacity	48	ABS	2	0	24VC	0	1	0.540847063065	None	None	None	None	1
1.7	2015_Aug_13_1509	s	s	20	3	Capacity	49	ABS	1	0	24MC	0	1	1.31248092651	None	None	None	None	1
1.7	2015_Aug_13_1509	s	s	20	3	Capacity	50	RC	2	0	23VC	1	0	0.41734290123	-406.0	-56.0	-404	-54	1
1.7	2015_Aug_13_1509	s	s	20	3	Capacity	51	ABS	2	0	24VC	0	1	0.658450126648	None	None	None	None	1
1.7	2015_Aug_13_1509	s	s	20	3	Capacity	52	RC	1	0	23MC	1	0	1.69424200058	-295.0	172.0	-292	179	1
1.7	2015_Aug_13_1509	s	s	20	3	Capacity	53	RC	1	0	23MC	1	0	1.23061990738	-199.0	-365.0	-209	-363	1
1.7	2015_Aug_13_1509	s	s	20	3	Capacity	54	ABS	2	0	24VC	0	1	0.470158100128	None	None	None	None	1
1.7	2015_Aug_13_1509	s	s	20	3	Capacity	55	ABS	1	0	24MC	0	1	2.23575305939	None	None	None	None	1
1.7	2015_Aug_13_1509	s	s	20	3	Capacity	56	RC	2	0	23VC	1	0	0.470142126083	-24.0	109.0	-19	113	1
1.7	2015_Aug_13_1509	s	s	20	3	Capacity	57	ABS	2	0	24VC	0	1	0.529031038284	None	None	None	None	1
1.7	2015_Aug_13_1509	s	s	20	3	Capacity	58	ABS	1	0	24MC	0	1	2.88958621025	None	None	None	None	1
1.7	2015_Aug_13_1509	s	s	20	3	Capacity	59	RC	2	0	23VC	1	0	0.423101902008	176.0	12.0	171	10	1
1.7	2015_Aug_13_1509	s	s	20	3	Capacity	60	RC	1	0	23MC	1	0	0.443924188614	397.0	-15.0	400	-5	1
1.7	2015_Aug_13_1509	s	s	20	3	Capacity	61	RC	1	0	23MC	0	1	1.2706079483	-365.0	-286.0	None	None	0
1.7	2015_Aug_13_1509	s	s	20	3	Capacity	62	ABS	2	0	24VC	0	1	0.564334869385	None	None	None	None	1
1.7	2015_Aug_13_1509	s	s	20	3	Capacity	63	RC	2	0	23VC	1	0	0.418542861938	-115.0	104.0	-124	107	1
1.7	2015_Aug_13_1509	s	s	20	3	Capacity	64	ABS	1	0	24MC	0	1	1.65404295921	None	None	None	None	1
1.7	2015_Aug_13_1509	s	s	20	3	Capacity	65	RC	1	0	23MC	1	0	0.634984016418	168.0	263.0	170	264	1
1.7	2015_Aug_13_1509	s	s	20	3	Capacity	66	ABS	1	0	24MC	0	1	1.42951416969	None	None	None	None	1
1.7	2015_Aug_13_1509	s	s	20	3	Capacity	67	ABS	2	0	24VC	0	1	0.626723051071	None	None	None	None	1
1.7	2015_Aug_13_1509	s	s	20	3	Capacity	68	RC	2	0	23VC	1	0	0.453290939331	-118.0	68.0	-117	67	1
1.7	2015_Aug_13_1509	s	s	20	3	Capacity	69	ABS	1	0	24MC	0	1	1.96494293213	None	None	None	None	1
1.7	2015_Aug_13_1509	s	s	20	3	Capacity	70	ABS	2	0	24VC	0	1	0.629922866821	None	None	None	None	1
1.7	2015_Aug_13_1509	s	s	20	3	Capacity	71	RC	2	0	23VC	1	0	0.488724946976	-375.0	327.0	-374	328	1
1.7	2015_Aug_13_1509	s	s	20	3	Capacity	72	RC	1	0	23MC	1	0	0.771309137344	152.0	74.0	155	77	1
1.7	2015_Aug_13_1509	s	s	20	3	Capacity	73	ABS	1	0	24MC	0	1	1.08227205276	None	None	None	None	1
1.7	2015_Aug_13_1509	s	s	20	3	Capacity	74	ABS	2	0	24VC	0	1	0.724212884903	None	None	None	None	1
1.7	2015_Aug_13_1509	s	s	20	3	Capacity	75	RC	1	0	23MC	1	0	0.77352809906	-134.0	-122.0	-135	-123	1
1.7	2015_Aug_13_1509	s	s	20	3	Capacity	76	RC	2	0	23VC	1	0	0.564576148987	316.0	274.0	318	268	1
1.7	2015_Aug_13_1509	s	s	20	3	Capacity	77	RC	1	0	23MC	1	0	1.15285515785	227.0	-265.0	225	-260	1
1.7	2015_Aug_13_1509	s	s	20	3	Capacity	78	ABS	2	0	24VC	0	1	0.571340084076	None	None	None	None	1
1.7	2015_Aug_13_1509	s	s	20	3	Capacity	79	RC	2	0	23VC	1	0	0.453461885452	-490.0	400.0	-494	403	1
1.7	2015_Aug_13_1509	s	s	20	3	Capacity	80	ABS	1	0	24MC	0	1	1.12387299538	None	None	None	None	1
1.7	2015_Aug_13_1509	s	s	20	3	Capacity	81	ABS	2	0	24VC	0	1	0.570957899094	None	None	None	None	1
1.7	2015_Aug_13_1509	s	s	20	3	Capacity	82	RC	2	0	23VC	1	0	0.470159053802	-94.0	-292.0	-96	-289	1
1.7	2015_Aug_13_1509	s	s	20	3	Capacity	83	ABS	1	0	24MC	0	1	1.71271705627	None	None	None	None	1
1.7	2015_Aug_13_1509	s	s	20	3	Capacity	84	RC	1	0	23MC	1	0	0.769978046417	311.0	-121.0	316	-115	1
1.7	2015_Aug_13_1509	s	s	20	3	Capacity	85	ABS	2	0	24VC	0	1	0.481998920441	None	None	None	None	1
1.7	2015_Aug_13_1509	s	s	20	3	Capacity	86	RC	1	0	23MC	1	0	0.674257040024	27.0	297.0	25	299	1
1.7	2015_Aug_13_1509	s	s	20	3	Capacity	87	ABS	1	0	24MC	0	1	2.56196904182	None	None	None	None	1
1.7	2015_Aug_13_1509	s	s	20	3	Capacity	88	RC	2	0	23VC	1	0	0.452879905701	-322.0	143.0	-317	147	1
1.7	2015_Aug_13_1509	s	s	20	3	Capacity	89	ABS	2	0	24VC	0	1	0.547413110733	None	None	None	None	1
1.7	2015_Aug_13_1509	s	s	20	3	Capacity	90	ABS	1	0	24MC	0	1	1.59503984451	None	None	None	None	1
1.7	2015_Aug_13_1509	s	s	20	3	Capacity	91	RC	2	0	23VC	1	0	0.454221010208	-500.0	-371.0	-490	-365	1
1.7	2015_Aug_13_1509	s	s	20	3	Capacity	92	RC	1	0	23MC	0	1	1.39511585236	-283.0	330.0	None	None	0
1.7	2015_Aug_13_1509	s	s	20	3	SIC	1	RC	2	2	23VD	1	0	0.488595962524	-533.0	51.0	-529	55	1
1.7	2015_Aug_13_1509	s	s	20	3	SIC	2	RC	0	1	23RO	1	0	3.37751913071	-540.0	-249.0	-538	-245	1
1.7	2015_Aug_13_1509	s	s	20	3	SIC	3	ABS	0	1	24RO	0	1	2.52493906021	None	None	None	None	1
1.7	2015_Aug_13_1509	s	s	20	3	SIC	4	ABS	1	1	24MO	0	1	1.16447496414	None	None	None	None	1
1.7	2015_Aug_13_1509	s	s	20	3	SIC	5	ABS	0	2	24RD	0	1	1.00360798836	None	None	None	None	1
1.7	2015_Aug_13_1509	s	s	20	3	SIC	6	ABS	1	2	24MD	0	1	0.740899085999	None	None	None	None	1
1.7	2015_Aug_13_1509	s	s	20	3	SIC	7	ABS	2	1	24VO	0	1	0.63495182991	None	None	None	None	1
1.7	2015_Aug_13_1509	s	s	20	3	SIC	8	RC	1	0	23MC	1	0	0.582994937897	-336.0	87.0	-334	91	1
1.7	2015_Aug_13_1509	s	s	20	3	SIC	9	ABS	2	2	24VD	0	1	0.564112901688	None	None	None	None	1
1.7	2015_Aug_13_1509	s	s	20	3	SIC	10	ABS	2	0	24VC	0	1	0.634807109833	None	None	None	None	1
1.7	2015_Aug_13_1509	s	s	20	3	SIC	11	RC	1	2	23MD	1	0	0.453174829483	-10.0	233.0	-13	235	1
1.7	2015_Aug_13_1509	s	s	20	3	SIC	12	ABS	1	0	24MC	0	1	1.31274199486	None	None	None	None	1
1.7	2015_Aug_13_1509	s	s	20	3	SIC	13	RC	2	0	23VC	1	0	0.406790018082	-263.0	245.0	-264	244	1
1.7	2015_Aug_13_1509	s	s	20	3	SIC	14	RC	2	1	23VO	1	0	0.4271671772	500.0	-332.0	503	-339	1
1.7	2015_Aug_13_1509	s	s	20	3	SIC	15	RC	1	1	23MO	1	0	0.658565998077	-142.0	161.0	-147	156	1
1.7	2015_Aug_13_1509	s	s	20	3	SIC	16	RC	0	2	23RD	1	0	0.501932144165	324.0	-214.0	334	-208	1
1.7	2015_Aug_13_1509	s	s	20	3	SIC	17	RC	2	0	23VC	1	0	0.57609295845	-123.0	378.0	-122	375	1
1.7	2015_Aug_13_1509	s	s	20	3	SIC	18	ABS	1	0	24MC	0	1	0.982903957367	None	None	None	None	1
1.7	2015_Aug_13_1509	s	s	20	3	SIC	19	ABS	1	1	24MO	0	1	1.43049788475	None	None	None	None	1
1.7	2015_Aug_13_1509	s	s	20	3	SIC	20	RC	2	1	23VO	1	0	0.394675970078	473.0	-85.0	467	-85	1
1.7	2015_Aug_13_1509	s	s	20	3	SIC	21	RC	1	1	23MO	1	0	0.70049405098	24.0	203.0	19	205	1
1.7	2015_Aug_13_1509	s	s	20	3	SIC	22	ABS	0	1	24RO	0	1	3.81951594353	None	None	None	None	1
1.7	2015_Aug_13_1509	s	s	20	3	SIC	23	RC	2	2	23VD	1	0	0.559640884399	192.0	376.0	190	377	1
1.7	2015_Aug_13_1509	s	s	20	3	SIC	24	RC	0	1	23RO	1	0	2.78401494026	287.0	-150.0	284	-152	1
1.7	2015_Aug_13_1509	s	s	20	3	SIC	25	ABS	2	0	24VC	0	1	0.559182167053	None	None	None	None	1
1.7	2015_Aug_13_1509	s	s	20	3	SIC	26	RC	1	0	23MC	1	0	0.74656701088	523.0	-73.0	523	-71	1
1.7	2015_Aug_13_1509	s	s	20	3	SIC	27	ABS	2	1	24VO	0	1	0.571218013763	None	None	None	None	1
1.7	2015_Aug_13_1509	s	s	20	3	SIC	28	RC	0	2	23RD	1	0	0.564336061478	479.0	251.0	485	257	1
1.7	2015_Aug_13_1509	s	s	20	3	SIC	29	ABS	2	2	24VD	0	1	0.575980901718	None	None	None	None	1
1.7	2015_Aug_13_1509	s	s	20	3	SIC	30	ABS	0	2	24RD	0	1	1.74668812752	None	None	None	None	1
1.7	2015_Aug_13_1509	s	s	20	3	SIC	31	RC	1	2	23MD	1	0	0.446590185165	-459.0	-277.0	-456	-270	1
1.7	2015_Aug_13_1509	s	s	20	3	SIC	32	ABS	1	2	24MD	0	1	0.599623918533	None	None	None	None	1
1.7	2015_Aug_13_1509	s	s	20	3	SIC	33	ABS	1	1	24MO	0	1	1.60693383217	None	None	None	None	1
1.7	2015_Aug_13_1509	s	s	20	3	SIC	34	RC	1	2	23MD	1	0	0.634936094284	535.0	321.0	536	317	1
1.7	2015_Aug_13_1509	s	s	20	3	SIC	35	ABS	1	0	24MC	0	1	1.91795802116	None	None	None	None	1
1.7	2015_Aug_13_1509	s	s	20	3	SIC	36	ABS	2	1	24VO	0	1	0.493673086166	None	None	None	None	1
1.7	2015_Aug_13_1509	s	s	20	3	SIC	37	ABS	0	2	24RD	0	1	0.940914869308	None	None	None	None	1
1.7	2015_Aug_13_1509	s	s	20	3	SIC	38	ABS	0	1	24RO	0	1	3.50699090958	None	None	None	None	1
1.7	2015_Aug_13_1509	s	s	20	3	SIC	39	RC	0	1	23RO	1	0	1.53637385368	344.0	-190.0	349	-191	1
1.7	2015_Aug_13_1509	s	s	20	3	SIC	40	RC	2	1	23VO	1	0	0.423140048981	-92.0	-112.0	-87	-110	1
1.7	2015_Aug_13_1509	s	s	20	3	SIC	41	ABS	2	2	24VD	0	1	0.476728916168	None	None	None	None	1
1.7	2015_Aug_13_1509	s	s	20	3	SIC	42	RC	2	2	23VD	1	0	0.432191133499	501.0	-286.0	503	-284	1
1.7	2015_Aug_13_1509	s	s	20	3	SIC	43	RC	2	0	23VC	1	0	0.453499794006	-141.0	-175.0	-139	-170	1
1.7	2015_Aug_13_1509	s	s	20	3	SIC	44	RC	1	1	23MO	1	0	0.971096038818	-340.0	38.0	-341	42	1
1.7	2015_Aug_13_1509	s	s	20	3	SIC	45	ABS	1	2	24MD	0	1	0.629940032959	None	None	None	None	1
1.7	2015_Aug_13_1509	s	s	20	3	SIC	46	RC	0	2	23RD	1	0	0.512335062027	511.0	-278.0	516	-274	1
1.7	2015_Aug_13_1509	s	s	20	3	SIC	47	ABS	2	0	24VC	0	1	0.470428943634	None	None	None	None	1
1.7	2015_Aug_13_1509	s	s	20	3	SIC	48	RC	1	0	23MC	1	0	0.646755933762	-175.0	-305.0	-174	-310	1
1.7	2015_Aug_13_1509	s	s	20	3	SIC	49	RC	0	2	23RD	1	0	0.387606143951	96.0	-70.0	96	-60	1
1.7	2015_Aug_13_1509	s	s	20	3	SIC	50	RC	1	0	23MC	1	0	0.571123123169	25.0	135.0	32	135	1
1.7	2015_Aug_13_1509	s	s	20	3	SIC	51	RC	0	1	23RO	1	0	1.10172700882	-227.0	144.0	-233	140	1
1.7	2015_Aug_13_1509	s	s	20	3	SIC	52	ABS	0	2	24RD	0	1	0.811490774155	None	None	None	None	1
1.7	2015_Aug_13_1509	s	s	20	3	SIC	53	RC	1	2	23MD	1	0	0.43475484848	447.0	-165.0	442	-161	1
1.7	2015_Aug_13_1509	s	s	20	3	SIC	54	RC	2	2	23VD	1	0	0.423139095306	395.0	294.0	392	295	1
1.7	2015_Aug_13_1509	s	s	20	3	SIC	55	ABS	0	1	24RO	0	1	4.62031888962	None	None	None	None	1
1.7	2015_Aug_13_1509	s	s	20	3	SIC	56	ABS	1	0	24MC	0	1	1.97682905197	None	None	None	None	1
1.7	2015_Aug_13_1509	s	s	20	3	SIC	57	ABS	1	2	24MD	0	1	0.697575092316	None	None	None	None	1
1.7	2015_Aug_13_1509	s	s	20	3	SIC	58	RC	1	1	23MO	1	0	0.86515879631	-244.0	198.0	-243	202	1
1.7	2015_Aug_13_1509	s	s	20	3	SIC	59	RC	2	1	23VO	1	0	0.387713909149	430.0	-176.0	440	-176	1
1.7	2015_Aug_13_1509	s	s	20	3	SIC	60	ABS	1	1	24MO	0	1	2.06599807739	None	None	None	None	1
1.7	2015_Aug_13_1509	s	s	20	3	SIC	61	RC	2	0	23VC	1	0	0.418092012405	349.0	-282.0	342	-281	1
1.7	2015_Aug_13_1509	s	s	20	3	SIC	62	ABS	2	0	24VC	0	1	0.68203496933	None	None	None	None	1
1.7	2015_Aug_13_1509	s	s	20	3	SIC	63	ABS	2	2	24VD	0	1	0.493672132492	None	None	None	None	1
1.7	2015_Aug_13_1509	s	s	20	3	SIC	64	ABS	2	1	24VO	0	1	0.829872131348	None	None	None	None	1
1.7	2015_Aug_13_1509	s	s	20	3	SIC	65	ABS	1	0	24MC	0	1	1.56544804573	None	None	None	None	1
1.7	2015_Aug_13_1509	s	s	20	3	SIC	66	RC	2	0	23VC	1	0	0.411311149597	243.0	-88.0	248	-88	1
1.7	2015_Aug_13_1509	s	s	20	3	SIC	67	RC	2	1	23VO	1	0	0.446691036224	364.0	236.0	364	231	1
1.7	2015_Aug_13_1509	s	s	20	3	SIC	68	ABS	2	1	24VO	0	1	0.473788976669	None	None	None	None	1
1.7	2015_Aug_13_1509	s	s	20	3	SIC	69	ABS	1	1	24MO	0	1	2.11285996437	None	None	None	None	1
1.7	2015_Aug_13_1509	s	s	20	3	SIC	70	RC	1	1	23MO	1	0	0.481953144073	170.0	-118.0	174	-123	1
1.7	2015_Aug_13_1509	s	s	20	3	SIC	71	RC	0	1	23RO	1	0	2.91365504265	-314.0	-247.0	-315	-246	1
1.7	2015_Aug_13_1509	s	s	20	3	SIC	72	RC	2	2	23VD	1	0	0.406302928925	-100.0	305.0	-106	310	1
1.7	2015_Aug_13_1509	s	s	20	3	SIC	73	ABS	0	2	24RD	0	1	0.701508045197	None	None	None	None	1
1.7	2015_Aug_13_1509	s	s	20	3	SIC	74	RC	1	2	23MD	1	0	0.434850931168	179.0	321.0	191	322	1
1.7	2015_Aug_13_1509	s	s	20	3	SIC	75	RC	0	2	23RD	1	0	0.481981039047	93.0	237.0	91	234	1
1.7	2015_Aug_13_1509	s	s	20	3	SIC	76	ABS	1	2	24MD	0	1	0.95946097374	None	None	None	None	1
1.7	2015_Aug_13_1509	s	s	20	3	SIC	77	ABS	2	2	24VD	0	1	0.488549947739	None	None	None	None	1
1.7	2015_Aug_13_1509	s	s	20	3	SIC	78	ABS	0	1	24RO	0	1	4.01990389824	None	None	None	None	1
1.7	2015_Aug_13_1509	s	s	20	3	SIC	79	ABS	2	0	24VC	0	1	0.595911979675	None	None	None	None	1
1.7	2015_Aug_13_1509	s	s	20	3	SIC	80	RC	1	0	23MC	1	0	1.18823099136	-316.0	-375.0	-320	-377	1
1.7	2015_Aug_13_1509	s	s	20	3	SIC	81	ABS	0	2	24RD	0	1	0.787928104401	None	None	None	None	1
1.7	2015_Aug_13_1509	s	s	20	3	SIC	82	RC	1	1	23MO	1	0	0.946990013123	167.0	8.0	163	11	1
1.7	2015_Aug_13_1509	s	s	20	3	SIC	83	ABS	1	2	24MD	0	1	0.528975963593	None	None	None	None	1
1.7	2015_Aug_13_1509	s	s	20	3	SIC	84	RC	2	0	23VC	1	0	0.411323070526	16.0	15.0	21	17	1
1.7	2015_Aug_13_1509	s	s	20	3	SIC	85	ABS	2	0	24VC	0	1	0.481853961945	None	None	None	None	1
1.7	2015_Aug_13_1509	s	s	20	3	SIC	86	ABS	1	1	24MO	0	1	1.44210505486	None	None	None	None	1
1.7	2015_Aug_13_1509	s	s	20	3	SIC	87	RC	1	2	23MD	1	0	0.446588993073	211.0	253.0	211	257	1
1.7	2015_Aug_13_1509	s	s	20	3	SIC	88	ABS	0	1	24RO	0	1	3.58437585831	None	None	None	None	1
1.7	2015_Aug_13_1509	s	s	20	3	SIC	89	RC	2	1	23VO	1	0	0.446593046188	-9.0	-329.0	-10	-335	1
1.7	2015_Aug_13_1509	s	s	20	3	SIC	90	ABS	1	0	24MC	0	1	1.05058097839	None	None	None	None	1
1.7	2015_Aug_13_1509	s	s	20	3	SIC	91	RC	1	0	23MC	1	0	2.06602215767	313.0	-56.0	317	-59	1
1.7	2015_Aug_13_1509	s	s	20	3	SIC	92	RC	0	1	23RO	0	1	3.76171994209	-354.0	-106.0	None	None	0
1.7	2015_Aug_13_1509	s	s	20	3	SIC	93	RC	0	2	23RD	1	0	0.500452041626	455.0	-99.0	455	-93	1
1.7	2015_Aug_13_1509	s	s	20	3	SIC	94	ABS	2	2	24VD	0	1	0.493648052216	None	None	None	None	1
1.7	2015_Aug_13_1509	s	s	20	3	SIC	95	ABS	2	1	24VO	0	1	0.523951053619	None	None	None	None	1
1.7	2015_Aug_13_1509	s	s	20	3	SIC	96	RC	2	2	23VD	1	0	0.399497032166	401.0	-105.0	396	-110	1
1.7	2015_Aug_13_1509	s	s	20	3	SIC	97	RC	0	2	23RD	1	0	0.40583896637	429.0	0.0	431	4	1
1.7	2015_Aug_13_1509	s	s	20	3	SIC	98	ABS	1	1	24MO	0	1	1.60001897812	None	None	None	None	1
1.7	2015_Aug_13_1509	s	s	20	3	SIC	99	ABS	0	1	24RO	0	1	3.52551412582	None	None	None	None	1
1.7	2015_Aug_13_1509	s	s	20	3	SIC	100	ABS	2	2	24VD	0	1	0.493725061417	None	None	None	None	1
1.7	2015_Aug_13_1509	s	s	20	3	SIC	101	RC	1	0	23MC	1	0	0.564300060272	-160.0	-10.0	-159	-6	1
1.7	2015_Aug_13_1509	s	s	20	3	SIC	102	ABS	0	2	24RD	0	1	0.546601057053	None	None	None	None	1
1.7	2015_Aug_13_1509	s	s	20	3	SIC	103	RC	1	2	23MD	1	0	0.481907129288	-414.0	-347.0	-413	-343	1
1.7	2015_Aug_13_1509	s	s	20	3	SIC	104	RC	2	2	23VD	1	0	0.423050880432	-404.0	89.0	-403	89	1
1.7	2015_Aug_13_1509	s	s	20	3	SIC	105	RC	1	1	23MO	1	0	0.865426778793	-460.0	-406.0	-452	-406	1
1.7	2015_Aug_13_1509	s	s	20	3	SIC	106	RC	0	1	23RO	1	0	1.04148983955	-291.0	-273.0	-291	-273	1
1.7	2015_Aug_13_1509	s	s	20	3	SIC	107	ABS	2	1	24VO	0	1	0.653515100479	None	None	None	None	1
1.7	2015_Aug_13_1509	s	s	20	3	SIC	108	RC	2	0	23VC	1	0	0.42293214798	413.0	37.0	411	42	1
1.7	2015_Aug_13_1509	s	s	20	3	SIC	109	ABS	1	0	24MC	0	1	1.55038404465	None	None	None	None	1
1.7	2015_Aug_13_1509	s	s	20	3	SIC	110	ABS	1	2	24MD	0	1	0.606355905533	None	None	None	None	1
1.7	2015_Aug_13_1509	s	s	20	3	SIC	111	RC	2	1	23VO	1	0	0.399357795715	128.0	46.0	124	50	1
1.7	2015_Aug_13_1509	s	s	20	3	SIC	112	ABS	2	0	24VC	0	1	0.477122068405	None	None	None	None	1
1.7	2015_Aug_13_1509	s	s	20	3	SIC	113	RC	1	2	23MD	1	0	0.458368062973	237.0	-146.0	238	-142	1
1.7	2015_Aug_13_1509	s	s	20	3	SIC	114	ABS	2	2	24VD	0	1	0.450096845627	None	None	None	None	1
1.7	2015_Aug_13_1509	s	s	20	3	SIC	115	RC	0	2	23RD	1	0	0.423095941544	-143.0	21.0	-141	27	1
1.7	2015_Aug_13_1509	s	s	20	3	SIC	116	ABS	1	2	24MD	0	1	0.529041051865	None	None	None	None	1
1.7	2015_Aug_13_1509	s	s	20	3	SIC	117	RC	2	2	23VD	1	0	0.429769039154	204.0	-98.0	200	-93	1
1.7	2015_Aug_13_1509	s	s	20	3	SIC	118	ABS	1	1	24MO	0	1	1.27958202362	None	None	None	None	1
1.7	2015_Aug_13_1509	s	s	20	3	SIC	119	ABS	1	0	24MC	1	0	0.540750980377	None	None	467	-234	0
1.7	2015_Aug_13_1509	s	s	20	3	SIC	120	ABS	2	0	24VC	0	1	0.561043024063	None	None	None	None	1
1.7	2015_Aug_13_1509	s	s	20	3	SIC	121	RC	1	0	23MC	1	0	1.1528429985	301.0	-266.0	299	-265	1
1.7	2015_Aug_13_1509	s	s	20	3	SIC	122	RC	0	1	23RO	1	0	0.752383947372	330.0	281.0	336	280	1
1.7	2015_Aug_13_1509	s	s	20	3	SIC	123	RC	1	1	23MO	1	0	0.835052967072	-443.0	-290.0	-435	-294	1
1.7	2015_Aug_13_1509	s	s	20	3	SIC	124	RC	2	1	23VO	1	0	0.399621009827	297.0	218.0	296	217	1
1.7	2015_Aug_13_1509	s	s	20	3	SIC	125	ABS	2	1	24VO	0	1	0.559103965759	None	None	None	None	1
1.7	2015_Aug_13_1509	s	s	20	3	SIC	126	ABS	0	2	24RD	0	1	0.858458995819	None	None	None	None	1
1.7	2015_Aug_13_1509	s	s	20	3	SIC	127	ABS	0	1	24RO	0	1	3.5893881321	None	None	None	None	1
1.7	2015_Aug_13_1509	s	s	20	3	SIC	128	RC	2	0	23VC	1	0	0.411190986633	-179.0	-383.0	-182	-377	1
1.7	2015_Aug_13_1509	s	s	20	3	SIC	129	RC	2	1	23VO	1	0	0.594851016998	-14.0	209.0	-18	212	1
1.7	2015_Aug_13_1509	s	s	20	3	SIC	130	RC	0	2	23RD	1	0	0.394253015518	-77.0	216.0	-77	219	1
1.7	2015_Aug_13_1509	s	s	20	3	SIC	131	RC	1	1	23MO	1	0	0.752637147903	129.0	-182.0	131	-176	1
1.7	2015_Aug_13_1509	s	s	20	3	SIC	132	ABS	1	1	24MO	0	1	1.64722394943	None	None	None	None	1
1.7	2015_Aug_13_1509	s	s	20	3	SIC	133	RC	1	0	23MC	1	0	0.641942024231	447.0	-106.0	457	-102	1
1.7	2015_Aug_13_1509	s	s	20	3	SIC	134	RC	0	1	23RO	0	1	2.85409092903	-297.0	-183.0	None	None	0
1.7	2015_Aug_13_1509	s	s	20	3	SIC	135	RC	2	0	23VC	1	0	0.423081874847	225.0	180.0	221	169	1
1.7	2015_Aug_13_1509	s	s	20	3	SIC	136	ABS	1	0	24MC	0	1	1.79531311989	None	None	None	None	1
1.7	2015_Aug_13_1509	s	s	20	3	SIC	137	ABS	2	1	24VO	0	1	0.488955020905	None	None	None	None	1
1.7	2015_Aug_13_1509	s	s	20	3	SIC	138	RC	1	2	23MD	1	0	0.482445001602	103.0	-250.0	103	-251	1
1.7	2015_Aug_13_1509	s	s	20	3	SIC	139	ABS	0	1	24RO	0	1	2.21221709251	None	None	None	None	1
1.7	2015_Aug_13_1509	s	s	20	3	SIC	140	RC	2	2	23VD	1	0	0.422967195511	105.0	-125.0	106	-128	1
1.7	2015_Aug_13_1509	s	s	20	3	SIC	141	ABS	2	0	24VC	0	1	0.488088846207	None	None	None	None	1
1.7	2015_Aug_13_1509	s	s	20	3	SIC	142	ABS	0	2	24RD	0	1	0.646718978882	None	None	None	None	1
1.7	2015_Aug_13_1509	s	s	20	3	SIC	143	ABS	2	2	24VD	0	1	0.453237056732	None	None	None	None	1
1.7	2015_Aug_13_1509	s	s	20	3	SIC	144	ABS	1	2	24MD	0	1	0.594656944275	None	None	None	None	1
1.7	2015_Aug_13_1509	s	s	20	3	SIC	145	RC	0	2	23RD	1	0	0.623096227646	334.0	308.0	342	304	1
1.7	2015_Aug_13_1509	s	s	20	3	SIC	146	RC	1	0	23MC	0	1	0.594514131546	-493.0	339.0	None	None	0
1.7	2015_Aug_13_1509	s	s	20	3	SIC	147	ABS	1	1	24MO	0	1	1.40003991127	None	None	None	None	1
1.7	2015_Aug_13_1509	s	s	20	3	SIC	148	ABS	2	0	24VC	0	1	0.505717992783	None	None	None	None	1
1.7	2015_Aug_13_1509	s	s	20	3	SIC	149	RC	2	0	23VC	1	0	0.452787160873	-36.0	410.0	-29	404	1
1.7	2015_Aug_13_1509	s	s	20	3	SIC	150	ABS	1	2	24MD	0	1	0.658434152603	None	None	None	None	1
1.7	2015_Aug_13_1509	s	s	20	3	SIC	151	RC	2	2	23VD	1	0	0.406491041183	-412.0	-241.0	-409	-240	1
1.7	2015_Aug_13_1509	s	s	20	3	SIC	152	ABS	1	0	24MC	1	0	0.594708919525	None	None	-369	-414	0
1.7	2015_Aug_13_1509	s	s	20	3	SIC	153	RC	1	2	23MD	1	0	0.438480138779	231.0	-146.0	235	-153	1
1.7	2015_Aug_13_1509	s	s	20	3	SIC	154	ABS	2	1	24VO	0	1	0.524214982986	None	None	None	None	1
1.7	2015_Aug_13_1509	s	s	20	3	SIC	155	ABS	0	1	24RO	0	1	3.34213209152	None	None	None	None	1
1.7	2015_Aug_13_1509	s	s	20	3	SIC	156	ABS	2	2	24VD	0	1	0.446410894394	None	None	None	None	1
1.7	2015_Aug_13_1509	s	s	20	3	SIC	157	RC	1	1	23MO	1	0	0.526329040527	222.0	-124.0	217	-127	1
1.7	2015_Aug_13_1509	s	s	20	3	SIC	158	RC	2	1	23VO	1	0	0.375888109207	125.0	61.0	136	65	1
1.7	2015_Aug_13_1509	s	s	20	3	SIC	159	ABS	0	2	24RD	0	1	0.744584083557	None	None	None	None	1
1.7	2015_Aug_13_1509	s	s	20	3	SIC	160	RC	0	1	23RO	0	1	2.85144805908	-320.0	269.0	None	None	0
1.7	2015_Aug_13_1509	s	s	20	3	SIC	161	ABS	1	0	24MC	0	1	2.49467897415	None	None	None	None	1
1.7	2015_Aug_13_1509	s	s	20	3	SIC	162	ABS	0	1	24RO	0	1	2.67916202545	None	None	None	None	1
1.7	2015_Aug_13_1509	s	s	20	3	SIC	163	ABS	1	1	24MO	0	1	2.17337989807	None	None	None	None	1
1.7	2015_Aug_13_1509	s	s	20	3	SIC	164	RC	2	2	23VD	1	0	0.477775812149	-297.0	201.0	-300	205	1
1.7	2015_Aug_13_1509	s	s	20	3	SIC	165	ABS	2	1	24VO	0	1	0.658617973328	None	None	None	None	1
1.7	2015_Aug_13_1509	s	s	20	3	SIC	166	ABS	1	2	24MD	0	1	0.517277002335	None	None	None	None	1
1.7	2015_Aug_13_1509	s	s	20	3	SIC	167	RC	0	1	23RO	1	0	3.67865395546	15.0	-292.0	4	-289	1
1.7	2015_Aug_13_1509	s	s	20	3	SIC	168	ABS	2	2	24VD	0	1	0.552567958832	None	None	None	None	1
1.7	2015_Aug_13_1509	s	s	20	3	SIC	169	ABS	2	0	24VC	0	1	0.540825843811	None	None	None	None	1
1.7	2015_Aug_13_1509	s	s	20	3	SIC	170	RC	2	1	23VO	1	0	0.411314964294	-285.0	56.0	-284	55	1
1.7	2015_Aug_13_1509	s	s	20	3	SIC	171	RC	1	1	23MO	1	0	0.594627857208	-328.0	-269.0	-324	-272	1
1.7	2015_Aug_13_1509	s	s	20	3	SIC	172	RC	1	0	23MC	1	0	0.553457975388	26.0	158.0	29	155	1
1.7	2015_Aug_13_1509	s	s	20	3	SIC	173	RC	2	0	23VC	1	0	0.423064947128	368.0	-259.0	367	-259	1
1.7	2015_Aug_13_1509	s	s	20	3	SIC	174	RC	0	2	23RD	1	0	0.405121803284	-100.0	43.0	-99	44	1
1.7	2015_Aug_13_1509	s	s	20	3	SIC	175	RC	1	2	23MD	1	0	0.382107973099	187.0	278.0	186	282	1
1.7	2015_Aug_13_1509	s	s	20	3	SIC	176	ABS	0	2	24RD	0	1	0.741008996964	None	None	None	None	1
1.7	2015_Aug_13_1509	s	s	20	3	SIC	177	ABS	1	2	24MD	0	1	0.535931825638	None	None	None	None	1
1.7	2015_Aug_13_1509	s	s	20	3	SIC	178	RC	1	2	23MD	1	0	0.453537940979	-378.0	-35.0	-379	-36	1
1.7	2015_Aug_13_1509	s	s	20	3	SIC	179	ABS	1	0	24MC	0	1	1.40006995201	None	None	None	None	1
1.7	2015_Aug_13_1509	s	s	20	3	SIC	180	RC	1	0	23MC	1	0	0.746719837189	175.0	367.0	174	376	1
1.7	2015_Aug_13_1509	s	s	20	3	SIC	181	RC	0	2	23RD	1	0	0.411231994629	-30.0	150.0	-22	150	1
1.7	2015_Aug_13_1509	s	s	20	3	SIC	182	RC	0	1	23RO	1	0	1.9953289032	139.0	70.0	134	75	1
1.7	2015_Aug_13_1509	s	s	20	3	SIC	183	ABS	2	2	24VD	0	1	0.517280101776	None	None	None	None	1
1.7	2015_Aug_13_1509	s	s	20	3	SIC	184	RC	2	2	23VD	1	0	0.418033123016	265.0	-226.0	261	-227	1
1.7	2015_Aug_13_1509	s	s	20	3	SIC	185	RC	1	1	23MO	1	0	0.623110055923	225.0	-82.0	227	-82	1
1.7	2015_Aug_13_1509	s	s	20	3	SIC	186	ABS	0	2	24RD	0	1	0.68217086792	None	None	None	None	1
1.7	2015_Aug_13_1509	s	s	20	3	SIC	187	ABS	1	1	24MO	0	1	1.00643706322	None	None	None	None	1
1.7	2015_Aug_13_1509	s	s	20	3	SIC	188	RC	2	0	23VC	1	0	0.418195009232	104.0	-141.0	113	-144	1
1.7	2015_Aug_13_1509	s	s	20	3	SIC	189	ABS	2	1	24VO	0	1	0.498641014099	None	None	None	None	1
1.7	2015_Aug_13_1509	s	s	20	3	SIC	190	RC	2	1	23VO	1	0	0.446584939957	-158.0	-352.0	-156	-349	1
1.7	2015_Aug_13_1509	s	s	20	3	SIC	191	ABS	2	0	24VC	0	1	0.52894616127	None	None	None	None	1
1.7	2015_Aug_13_1509	s	s	20	3	SIC	192	ABS	0	1	24RO	0	1	5.37845611572	None	None	None	None	1
1.7	2015_Aug_13_1509	s	s	20	3	SIC	193	RC	2	0	23VC	1	0	0.658468008041	59.0	-372.0	60	-363	1
1.7	2015_Aug_13_1509	s	s	20	3	SIC	194	ABS	2	1	24VO	0	1	0.54056096077	None	None	None	None	1
1.7	2015_Aug_13_1509	s	s	20	3	SIC	195	RC	1	0	23MC	1	0	1.03107404709	-259.0	133.0	-266	135	1
1.7	2015_Aug_13_1509	s	s	20	3	SIC	196	RC	0	1	23RO	0	1	2.25929808617	-158.0	-195.0	None	None	0
1.7	2015_Aug_13_1509	s	s	20	3	SIC	197	ABS	2	0	24VC	0	1	0.500716924667	None	None	None	None	1
1.7	2015_Aug_13_1509	s	s	20	3	SIC	198	RC	1	2	23MD	1	0	0.441586017609	-323.0	216.0	-328	216	1
1.7	2015_Aug_13_1509	s	s	20	3	SIC	199	RC	2	1	23VO	1	0	0.383919000626	-121.0	49.0	-127	50	1
1.7	2015_Aug_13_1509	s	s	20	3	SIC	200	ABS	1	1	24MO	0	1	2.14151000977	None	None	None	None	1
1.7	2015_Aug_13_1509	s	s	20	3	SIC	201	RC	1	1	23MO	1	0	0.64151597023	-194.0	98.0	-194	93	1
1.7	2015_Aug_13_1509	s	s	20	3	SIC	202	RC	2	2	23VD	1	0	0.418104171753	-279.0	-279.0	-282	-281	1
1.7	2015_Aug_13_1509	s	s	20	3	SIC	203	ABS	0	2	24RD	0	1	0.688992977142	None	None	None	None	1
1.7	2015_Aug_13_1509	s	s	20	3	SIC	204	ABS	1	0	24MC	0	1	1.52518701553	None	None	None	None	1
1.7	2015_Aug_13_1509	s	s	20	3	SIC	205	ABS	1	2	24MD	0	1	0.470132112503	None	None	None	None	1
1.7	2015_Aug_13_1509	s	s	20	3	SIC	206	ABS	0	1	24RO	0	1	3.74926996231	None	None	None	None	1
1.7	2015_Aug_13_1509	s	s	20	3	SIC	207	RC	0	2	23RD	1	0	0.446646928787	165.0	-186.0	163	-177	1
1.7	2015_Aug_13_1509	s	s	20	3	SIC	208	ABS	2	2	24VD	0	1	0.476915836334	None	None	None	None	1
1.7	2015_Aug_13_1509	s	s	20	3	SIC	209	RC	2	1	23VO	1	0	0.394572973251	109.0	-57.0	99	-59	1
1.7	2015_Aug_13_1509	s	s	20	3	SIC	210	RC	1	0	23MC	1	0	0.807371854782	512.0	66.0	508	65	1
1.7	2015_Aug_13_1509	s	s	20	3	SIC	211	ABS	2	1	24VO	0	1	0.48855805397	None	None	None	None	1
1.7	2015_Aug_13_1509	s	s	20	3	SIC	212	ABS	2	0	24VC	0	1	0.771032094955	None	None	None	None	1
1.7	2015_Aug_13_1509	s	s	20	3	SIC	213	ABS	0	2	24RD	0	1	0.564373970032	None	None	None	None	1
1.7	2015_Aug_13_1509	s	s	20	3	SIC	214	ABS	1	0	24MC	0	1	1.27742886543	None	None	None	None	1
1.7	2015_Aug_13_1509	s	s	20	3	SIC	215	ABS	1	2	24MD	0	1	0.571103096008	None	None	None	None	1
1.7	2015_Aug_13_1509	s	s	20	3	SIC	216	ABS	0	1	24RO	0	1	3.40813183784	None	None	None	None	1
1.7	2015_Aug_13_1509	s	s	20	3	SIC	217	RC	1	1	23MO	1	0	0.779844045639	469.0	-111.0	471	-111	1
1.7	2015_Aug_13_1509	s	s	20	3	SIC	218	ABS	1	1	24MO	0	1	0.560333013535	None	None	None	None	1
1.7	2015_Aug_13_1509	s	s	20	3	SIC	219	RC	2	0	23VC	1	0	0.44165802002	388.0	-190.0	390	-187	1
1.7	2015_Aug_13_1509	s	s	20	3	SIC	220	RC	0	1	23RO	0	1	2.68293213844	352.0	5.0	None	None	0
1.7	2015_Aug_13_1509	s	s	20	3	SIC	221	RC	1	2	23MD	1	0	0.470195055008	-426.0	376.0	-421	373	1
1.7	2015_Aug_13_1509	s	s	20	3	SIC	222	RC	2	2	23VD	1	0	0.405564069748	357.0	77.0	356	74	1
1.7	2015_Aug_13_1509	s	s	20	3	SIC	223	RC	0	2	23RD	1	0	0.387873888016	361.0	-102.0	355	-100	1
1.7	2015_Aug_13_1509	s	s	20	3	SIC	224	ABS	2	2	24VD	0	1	0.453370094299	None	None	None	None	1
1.7	2015_Aug_13_1509	s	s	20	3	SIC	225	RC	1	0	23MC	0	1	1.28236413002	163.0	335.0	None	None	0
1.7	2015_Aug_13_1509	s	s	20	3	SIC	226	RC	0	2	23RD	1	0	0.41819691658	36.0	28.0	36	20	1
1.7	2015_Aug_13_1509	s	s	20	3	SIC	227	RC	0	1	23RO	1	0	1.19996213913	-48.0	-127.0	-51	-122	1
1.7	2015_Aug_13_1509	s	s	20	3	SIC	228	ABS	1	1	24MO	0	1	2.03559112549	None	None	None	None	1
1.7	2015_Aug_13_1509	s	s	20	3	SIC	229	RC	2	2	23VD	1	0	0.482203006744	155.0	-387.0	164	-380	1
1.7	2015_Aug_13_1509	s	s	20	3	SIC	230	RC	2	0	23VC	1	0	0.561055183411	-336.0	115.0	-338	115	1
1.7	2015_Aug_13_1509	s	s	20	3	SIC	231	ABS	0	1	24RO	0	1	2.93011212349	None	None	None	None	1
1.7	2015_Aug_13_1509	s	s	20	3	SIC	232	ABS	2	2	24VD	0	1	0.552644968033	None	None	None	None	1
1.7	2015_Aug_13_1509	s	s	20	3	SIC	233	ABS	1	2	24MD	0	1	0.611478090286	None	None	None	None	1
1.7	2015_Aug_13_1509	s	s	20	3	SIC	234	ABS	2	0	24VC	0	1	0.552561998367	None	None	None	None	1
1.7	2015_Aug_13_1509	s	s	20	3	SIC	235	ABS	0	2	24RD	0	1	0.89413690567	None	None	None	None	1
1.7	2015_Aug_13_1509	s	s	20	3	SIC	236	RC	2	1	23VO	1	0	0.441483020782	-390.0	-274.0	-393	-279	1
1.7	2015_Aug_13_1509	s	s	20	3	SIC	237	ABS	2	1	24VO	0	1	0.477584838867	None	None	None	None	1
1.7	2015_Aug_13_1509	s	s	20	3	SIC	238	RC	1	2	23MD	1	0	0.477140188217	-60.0	-411.0	-59	-408	1
1.7	2015_Aug_13_1509	s	s	20	3	SIC	239	ABS	1	0	24MC	0	1	1.63033604622	None	None	None	None	1
1.7	2015_Aug_13_1509	s	s	20	3	SIC	240	RC	1	1	23MO	1	0	0.606267213821	-56.0	218.0	-54	216	1
1.7	2015_Aug_13_1509	s	s	20	3	SIC	241	RC	1	1	23MO	1	0	0.670224905014	-486.0	90.0	-486	88	1
1.7	2015_Aug_13_1509	s	s	20	3	SIC	242	RC	1	0	23MC	1	0	0.752671003342	156.0	-348.0	155	-347	1
1.7	2015_Aug_13_1509	s	s	20	3	SIC	243	ABS	1	0	24MC	0	1	1.46422314644	None	None	None	None	1
1.7	2015_Aug_13_1509	s	s	20	3	SIC	244	ABS	1	1	24MO	0	1	1.00890517235	None	None	None	None	1
1.7	2015_Aug_13_1509	s	s	20	3	SIC	245	ABS	2	0	24VC	0	1	0.523983955383	None	None	None	None	1
1.7	2015_Aug_13_1509	s	s	20	3	SIC	246	RC	2	2	23VD	1	0	0.446677923203	513.0	204.0	512	207	1
1.7	2015_Aug_13_1509	s	s	20	3	SIC	247	RC	2	0	23VC	1	0	0.394622087479	32.0	-193.0	37	-190	1
1.7	2015_Aug_13_1509	s	s	20	3	SIC	248	RC	0	2	23RD	1	0	0.446641921997	196.0	-196.0	195	-194	1
1.7	2015_Aug_13_1509	s	s	20	3	SIC	249	ABS	2	1	24VO	0	1	0.517211914062	None	None	None	None	1
1.7	2015_Aug_13_1509	s	s	20	3	SIC	250	RC	1	2	23MD	1	0	0.446628093719	52.0	368.0	51	376	1
1.7	2015_Aug_13_1509	s	s	20	3	SIC	251	ABS	0	1	24RO	0	1	4.82014513016	None	None	None	None	1
1.7	2015_Aug_13_1509	s	s	20	3	SIC	252	RC	0	1	23RO	1	0	3.31868910789	391.0	397.0	396	397	1
1.7	2015_Aug_13_1509	s	s	20	3	SIC	253	RC	2	1	23VO	1	0	0.411296129227	-121.0	306.0	-126	310	1
1.7	2015_Aug_13_1509	s	s	20	3	SIC	254	ABS	2	2	24VD	0	1	0.481612920761	None	None	None	None	1
1.7	2015_Aug_13_1509	s	s	20	3	SIC	255	ABS	0	2	24RD	0	1	0.700770139694	None	None	None	None	1
1.7	2015_Aug_13_1509	s	s	20	3	SIC	256	ABS	1	2	24MD	0	1	0.524317979813	None	None	None	None	1
1.7	2015_Aug_13_1509	s	s	20	3	SIC	257	RC	1	1	23MO	1	0	0.623195171356	-508.0	44.0	-509	43	1
1.7	2015_Aug_13_1509	s	s	20	3	SIC	258	RC	1	2	23MD	1	0	0.426829099655	370.0	-272.0	380	-272	1
1.7	2015_Aug_13_1509	s	s	20	3	SIC	259	ABS	1	1	24MO	0	1	0.865386962891	None	None	None	None	1
1.7	2015_Aug_13_1509	s	s	20	3	SIC	260	RC	1	0	23MC	1	0	0.549100875854	-140.0	-386.0	-137	-385	1
1.7	2015_Aug_13_1509	s	s	20	3	SIC	261	RC	2	2	23VD	1	0	0.394839048386	-368.0	63.0	-360	60	1
1.7	2015_Aug_13_1509	s	s	20	3	SIC	262	ABS	2	1	24VO	0	1	0.453162193298	None	None	None	None	1
1.7	2015_Aug_13_1509	s	s	20	3	SIC	263	RC	2	0	23VC	1	0	0.429766893387	421.0	-406.0	419	-406	1
1.7	2015_Aug_13_1509	s	s	20	3	SIC	264	RC	0	2	23RD	1	0	0.488663911819	-39.0	-185.0	-40	-184	1
1.7	2015_Aug_13_1509	s	s	20	3	SIC	265	ABS	1	0	24MC	0	1	1.45930504799	None	None	None	None	1
1.7	2015_Aug_13_1509	s	s	20	3	SIC	266	ABS	2	0	24VC	0	1	0.53596496582	None	None	None	None	1
1.7	2015_Aug_13_1509	s	s	20	3	SIC	267	RC	0	1	23RO	1	0	0.87039399147	10.0	214.0	12	219	1
1.7	2015_Aug_13_1509	s	s	20	3	SIC	268	ABS	2	2	24VD	0	1	0.434796094894	None	None	None	None	1
1.7	2015_Aug_13_1509	s	s	20	3	SIC	269	ABS	0	2	24RD	0	1	1.01157402992	None	None	None	None	1
1.7	2015_Aug_13_1509	s	s	20	3	SIC	270	ABS	1	2	24MD	0	1	0.611469984055	None	None	None	None	1
1.7	2015_Aug_13_1509	s	s	20	3	SIC	271	ABS	0	1	24RO	0	1	3.40093493462	None	None	None	None	1
1.7	2015_Aug_13_1509	s	s	20	3	SIC	272	RC	2	1	23VO	1	0	0.414953947067	-403.0	-297.0	-404	-289	1
1.7	2015_Aug_13_1509	s	s	20	3	SIC	273	RC	1	1	23MO	1	0	0.606344938278	-139.0	-255.0	-146	-255	1
1.7	2015_Aug_13_1509	s	s	20	3	SIC	274	ABS	2	0	24VC	0	1	0.547652959824	None	None	None	None	1
1.7	2015_Aug_13_1509	s	s	20	3	SIC	275	ABS	1	1	24MO	0	1	2.04462814331	None	None	None	None	1
1.7	2015_Aug_13_1509	s	s	20	3	SIC	276	RC	2	0	23VC	1	0	0.442598104477	508.0	-15.0	509	-14	1
1.7	2015_Aug_13_1509	s	s	20	3	SIC	277	RC	0	1	23RO	1	0	1.45881295204	167.0	-82.0	177	-83	1
1.7	2015_Aug_13_1509	s	s	20	3	SIC	278	ABS	2	1	24VO	0	1	0.536296129227	None	None	None	None	1
1.7	2015_Aug_13_1509	s	s	20	3	SIC	279	ABS	0	1	24RO	0	1	4.03663706779	None	None	None	None	1
1.7	2015_Aug_13_1509	s	s	20	3	SIC	280	ABS	2	2	24VD	0	1	0.442651033401	None	None	None	None	1
1.7	2015_Aug_13_1509	s	s	20	3	SIC	281	RC	1	2	23MD	1	0	0.984086990356	-524.0	409.0	-528	417	1
1.7	2015_Aug_13_1509	s	s	20	3	SIC	282	ABS	1	0	24MC	0	1	0.929153203964	None	None	None	None	1
1.7	2015_Aug_13_1509	s	s	20	3	SIC	283	RC	2	2	23VD	1	0	0.411417961121	364.0	-53.0	370	-51	1
1.7	2015_Aug_13_1509	s	s	20	3	SIC	284	RC	0	2	23RD	1	0	0.417940855026	-264.0	32.0	-264	28	1
1.7	2015_Aug_13_1509	s	s	20	3	SIC	285	RC	1	0	23MC	0	1	1.10069298744	106.0	70.0	None	None	0
1.7	2015_Aug_13_1509	s	s	20	3	SIC	286	ABS	1	2	24MD	0	1	0.479287147522	None	None	None	None	1
1.7	2015_Aug_13_1509	s	s	20	3	SIC	287	RC	2	1	23VO	1	0	0.442540884018	157.0	-94.0	157	-90	1
1.7	2015_Aug_13_1509	s	s	20	3	SIC	288	ABS	0	2	24RD	0	1	1.03555393219	None	None	None	None	1
1.7	2015_Aug_13_1509	s	s	20	3	SIC	289	ABS	1	2	24MD	0	1	0.511542081833	None	None	None	None	1
1.7	2015_Aug_13_1509	s	s	20	3	SIC	290	ABS	0	1	24RO	0	1	4.91427493095	None	None	None	None	1
1.7	2015_Aug_13_1509	s	s	20	3	SIC	291	ABS	2	0	24VC	0	1	0.498988866806	None	None	None	None	1
1.7	2015_Aug_13_1509	s	s	20	3	SIC	292	ABS	1	1	24MO	0	1	0.959529876709	None	None	None	None	1
1.7	2015_Aug_13_1509	s	s	20	3	SIC	293	RC	1	0	23MC	0	1	1.37172698975	83.0	370.0	None	None	0
1.7	2015_Aug_13_1509	s	s	20	3	SIC	294	ABS	2	2	24VD	0	1	0.502261161804	None	None	None	None	1
1.7	2015_Aug_13_1509	s	s	20	3	SIC	295	RC	1	2	23MD	1	0	0.517215013504	-242.0	-148.0	-237	-144	1
1.7	2015_Aug_13_1509	s	s	20	3	SIC	296	ABS	2	1	24VO	0	1	0.406473875046	None	None	None	None	1
1.7	2015_Aug_13_1509	s	s	20	3	SIC	297	ABS	0	2	24RD	0	1	0.700505018234	None	None	None	None	1
1.7	2015_Aug_13_1509	s	s	20	3	SIC	298	RC	1	1	23MO	1	0	0.529088020325	360.0	-92.0	357	-92	1
1.7	2015_Aug_13_1509	s	s	20	3	SIC	299	RC	2	0	23VC	1	0	0.458432197571	-345.0	-329.0	-346	-322	1
1.7	2015_Aug_13_1509	s	s	20	3	SIC	300	RC	2	2	23VD	1	0	0.394801855087	210.0	-349.0	210	-359	1
1.7	2015_Aug_13_1509	s	s	20	3	SIC	301	ABS	1	0	24MC	0	1	1.01741099358	None	None	None	None	1
1.7	2015_Aug_13_1509	s	s	20	3	SIC	302	RC	0	2	23RD	1	0	0.470174074173	-3.0	281.0	-1	287	1
1.7	2015_Aug_13_1509	s	s	20	3	SIC	303	RC	2	1	23VO	1	0	0.40626502037	-46.0	-205.0	-39	-202	1
1.7	2015_Aug_13_1509	s	s	20	3	SIC	304	RC	0	1	23RO	1	0	1.4000108242	60.0	-20.0	74	-14	1
1.7	2015_Aug_13_1509	s	s	20	3	SIC	305	RC	2	1	23VO	1	0	0.441336870193	-267.0	-205.0	-263	-205	1
1.7	2015_Aug_13_1509	s	s	20	3	SIC	306	RC	1	2	23MD	1	0	0.423127174377	-358.0	8.0	-363	9	1
1.7	2015_Aug_13_1509	s	s	20	3	SIC	307	ABS	0	2	24RD	0	1	0.787993907928	None	None	None	None	1
1.7	2015_Aug_13_1509	s	s	20	3	SIC	308	ABS	1	1	24MO	0	1	1.90617609024	None	None	None	None	1
1.7	2015_Aug_13_1509	s	s	20	3	SIC	309	RC	1	0	23MC	1	0	0.900506019592	-47.0	-402.0	-48	-405	1
1.7	2015_Aug_13_1509	s	s	20	3	SIC	310	RC	0	1	23RO	0	1	2.85476016998	173.0	-411.0	None	None	0
1.7	2015_Aug_13_1509	s	s	20	3	SIC	311	ABS	1	2	24MD	0	1	0.536463975906	None	None	None	None	1
1.7	2015_Aug_13_1509	s	s	20	3	SIC	312	ABS	0	1	24RO	0	1	3.46361088753	None	None	None	None	1
1.7	2015_Aug_13_1509	s	s	20	3	SIC	313	ABS	2	0	24VC	0	1	0.500683069229	None	None	None	None	1
1.7	2015_Aug_13_1509	s	s	20	3	SIC	314	RC	2	2	23VD	1	0	0.787967920303	-125.0	-222.0	-119	-228	1
1.7	2015_Aug_13_1509	s	s	20	3	SIC	315	ABS	2	1	24VO	0	1	0.446552991867	None	None	None	None	1
1.7	2015_Aug_13_1509	s	s	20	3	SIC	316	ABS	1	0	24MC	0	1	2.07788300514	None	None	None	None	1
1.7	2015_Aug_13_1509	s	s	20	3	SIC	317	ABS	2	2	24VD	0	1	0.623052120209	None	None	None	None	1
1.7	2015_Aug_13_1509	s	s	20	3	SIC	318	RC	1	1	23MO	1	0	0.853691101074	-106.0	-17.0	-101	-20	1
1.7	2015_Aug_13_1509	s	s	20	3	SIC	319	RC	0	2	23RD	1	0	0.529590129852	-33.0	-299.0	-28	-293	1
1.7	2015_Aug_13_1509	s	s	20	3	SIC	320	RC	2	0	23VC	1	0	0.42311501503	178.0	-169.0	178	-167	1
1.7	2015_Aug_13_1509	s	s	20	3	SIC	321	ABS	1	1	24MO	0	1	3.01257491112	None	None	None	None	1
1.7	2015_Aug_13_1509	s	s	20	3	SIC	322	ABS	2	0	24VC	0	1	0.623224973679	None	None	None	None	1
1.7	2015_Aug_13_1509	s	s	20	3	SIC	323	RC	2	1	23VO	1	0	0.482592821121	-340.0	-133.0	-334	-135	1
1.7	2015_Aug_13_1509	s	s	20	3	SIC	324	ABS	0	2	24RD	0	1	0.964509963989	None	None	None	None	1
1.7	2015_Aug_13_1509	s	s	20	3	SIC	325	RC	0	1	23RO	1	0	2.3744559288	-205.0	129.0	-209	132	1
1.7	2015_Aug_13_1509	s	s	20	3	SIC	326	RC	0	2	23RD	1	0	0.905619859695	297.0	-292.0	299	-290	1
1.7	2015_Aug_13_1509	s	s	20	3	SIC	327	ABS	2	1	24VO	0	1	0.512451171875	None	None	None	None	1
1.7	2015_Aug_13_1509	s	s	20	3	SIC	328	RC	2	0	23VC	1	0	0.39946103096	-29.0	-48.0	-26	-43	1
1.7	2015_Aug_13_1509	s	s	20	3	SIC	329	ABS	1	2	24MD	0	1	0.717539072037	None	None	None	None	1
1.7	2015_Aug_13_1509	s	s	20	3	SIC	330	RC	1	2	23MD	1	0	0.411762952805	-283.0	-241.0	-286	-235	1
1.7	2015_Aug_13_1509	s	s	20	3	SIC	331	ABS	2	2	24VD	0	1	0.629848003387	None	None	None	None	1
1.7	2015_Aug_13_1509	s	s	20	3	SIC	332	RC	1	0	23MC	1	0	1.51767492294	-27.0	141.0	-24	146	1
1.7	2015_Aug_13_1509	s	s	20	3	SIC	333	RC	2	2	23VD	1	0	0.528856992722	-139.0	397.0	-134	397	1
1.7	2015_Aug_13_1509	s	s	20	3	SIC	334	ABS	1	0	24MC	0	1	1.38510107994	None	None	None	None	1
1.7	2015_Aug_13_1509	s	s	20	3	SIC	335	ABS	0	1	24RO	0	1	3.07148313522	None	None	None	None	1
1.7	2015_Aug_13_1509	s	s	20	3	SIC	336	RC	1	1	23MO	0	1	1.80696296692	-471.0	-114.0	None	None	0
1.7	2015_Aug_13_1509	s	s	20	3	SIC	337	ABS	1	1	24MO	0	1	2.01893591881	None	None	None	None	1
1.7	2015_Aug_13_1509	s	s	20	3	SIC	338	RC	0	2	23RD	1	0	0.540667057037	262.0	-50.0	269	-49	1
1.7	2015_Aug_13_1509	s	s	20	3	SIC	339	RC	1	0	23MC	1	0	0.6534948349	-429.0	-160.0	-434	-162	1
1.7	2015_Aug_13_1509	s	s	20	3	SIC	340	RC	2	1	23VO	1	0	0.411263942719	-65.0	192.0	-66	195	1
1.7	2015_Aug_13_1509	s	s	20	3	SIC	341	RC	2	0	23VC	1	0	0.387750864029	-192.0	156.0	-193	155	1
1.7	2015_Aug_13_1509	s	s	20	3	SIC	342	ABS	1	2	24MD	0	1	0.540734052658	None	None	None	None	1
1.7	2015_Aug_13_1509	s	s	20	3	SIC	343	ABS	2	2	24VD	0	1	0.581427097321	None	None	None	None	1
1.7	2015_Aug_13_1509	s	s	20	3	SIC	344	RC	1	1	23MO	1	0	0.705512046814	270.0	35.0	265	33	1
1.7	2015_Aug_13_1509	s	s	20	3	SIC	345	RC	0	1	23RO	1	0	1.10073590279	-381.0	-60.0	-376	-57	1
1.7	2015_Aug_13_1509	s	s	20	3	SIC	346	RC	1	2	23MD	1	0	0.441620111465	-119.0	317.0	-117	318	1
1.7	2015_Aug_13_1509	s	s	20	3	SIC	347	ABS	1	0	24MC	0	1	1.34108114243	None	None	None	None	1
1.7	2015_Aug_13_1509	s	s	20	3	SIC	348	ABS	2	1	24VO	0	1	0.559144973755	None	None	None	None	1
1.7	2015_Aug_13_1509	s	s	20	3	SIC	349	RC	2	2	23VD	1	0	0.453305959702	161.0	354.0	165	357	1
1.7	2015_Aug_13_1509	s	s	20	3	SIC	350	ABS	0	1	24RO	0	1	2.75964689255	None	None	None	None	1
1.7	2015_Aug_13_1509	s	s	20	3	SIC	351	ABS	0	2	24RD	0	1	0.846780061722	None	None	None	None	1
1.7	2015_Aug_13_1509	s	s	20	3	SIC	352	ABS	2	0	24VC	0	1	0.509152889252	None	None	None	None	1
1.7	2015_Aug_13_1509	s	s	20	3	SIC	353	RC	1	2	23MD	1	0	0.411338806152	-180.0	96.0	-176	98	1
1.7	2015_Aug_13_1509	s	s	20	3	SIC	354	RC	1	0	23MC	1	0	0.61131310463	155.0	238.0	149	235	1
1.7	2015_Aug_13_1509	s	s	20	3	SIC	355	ABS	1	1	24MO	0	1	1.41768813133	None	None	None	None	1
1.7	2015_Aug_13_1509	s	s	20	3	SIC	356	RC	0	2	23RD	1	0	0.646687030792	21.0	-139.0	21	-134	1
1.7	2015_Aug_13_1509	s	s	20	3	SIC	357	ABS	1	2	24MD	0	1	0.559499025345	None	None	None	None	1
1.7	2015_Aug_13_1509	s	s	20	3	SIC	358	ABS	2	1	24VO	1	0	0.458411931992	None	None	-75	41	0
1.7	2015_Aug_13_1509	s	s	20	3	SIC	359	ABS	0	2	24RD	0	1	0.729083776474	None	None	None	None	1
1.7	2015_Aug_13_1509	s	s	20	3	SIC	360	RC	2	2	23VD	1	0	0.411374092102	-447.0	59.0	-450	55	1
1.7	2015_Aug_13_1509	s	s	20	3	SIC	361	RC	1	1	23MO	1	0	0.752621889114	484.0	182.0	482	191	1
1.7	2015_Aug_13_1509	s	s	20	3	SIC	362	RC	0	1	23RO	1	0	2.51818704605	-362.0	185.0	-361	186	1
1.7	2015_Aug_13_1509	s	s	20	3	SIC	363	RC	2	0	23VC	1	0	0.476835012436	463.0	20.0	464	18	1
1.7	2015_Aug_13_1509	s	s	20	3	SIC	364	ABS	1	0	24MC	0	1	1.17639803886	None	None	None	None	1
1.7	2015_Aug_13_1509	s	s	20	3	SIC	365	RC	2	1	23VO	1	0	0.434635877609	18.0	315.0	24	315	1
1.7	2015_Aug_13_1509	s	s	20	3	SIC	366	ABS	0	1	24RO	0	1	1.85905504227	None	None	None	None	1
1.7	2015_Aug_13_1509	s	s	20	3	SIC	367	ABS	2	2	24VD	0	1	0.434905052185	None	None	None	None	1
1.7	2015_Aug_13_1509	s	s	20	3	SIC	368	ABS	2	0	24VC	0	1	0.724258184433	None	None	None	None	1
1.7	2015_Aug_13_1509	s	s	20	3	SIC	369	RC	1	0	23MC	1	0	1.05869197845	-514.0	-85.0	-516	-80	1
1.7	2015_Aug_13_1509	s	s	20	3	SIC	370	ABS	1	0	24MC	0	1	2.57700991631	None	None	None	None	1
1.7	2015_Aug_13_1509	s	s	20	3	SIC	371	ABS	0	2	24RD	0	1	0.818077802658	None	None	None	None	1
1.7	2015_Aug_13_1509	s	s	20	3	SIC	372	ABS	2	1	24VO	0	1	0.646691083908	None	None	None	None	1
1.7	2015_Aug_13_1509	s	s	20	3	SIC	373	ABS	2	0	24VC	0	1	0.528918027878	None	None	None	None	1
1.7	2015_Aug_13_1509	s	s	20	3	SIC	374	RC	0	2	23RD	1	0	0.43479681015	-209.0	-355.0	-201	-353	1
1.7	2015_Aug_13_1509	s	s	20	3	SIC	375	ABS	2	2	24VD	0	1	0.469940185547	None	None	None	None	1
1.7	2015_Aug_13_1509	s	s	20	3	SIC	376	RC	0	1	23RO	1	0	0.713959932327	429.0	220.0	442	223	1
1.7	2015_Aug_13_1509	s	s	20	3	SIC	377	RC	1	2	23MD	1	0	0.53374004364	-288.0	-347.0	-296	-349	1
1.7	2015_Aug_13_1509	s	s	20	3	SIC	378	ABS	1	2	24MD	0	1	0.535736083984	None	None	None	None	1
1.7	2015_Aug_13_1509	s	s	20	3	SIC	379	ABS	1	1	24MO	0	1	1.69429802895	None	None	None	None	1
1.7	2015_Aug_13_1509	s	s	20	3	SIC	380	RC	2	0	23VC	1	0	0.584642887115	151.0	163.0	150	161	1
1.7	2015_Aug_13_1509	s	s	20	3	SIC	381	ABS	0	1	24RO	0	1	3.93920898438	None	None	None	None	1
1.7	2015_Aug_13_1509	s	s	20	3	SIC	382	RC	2	2	23VD	1	0	0.43491101265	-520.0	-208.0	-527	-203	1
1.7	2015_Aug_13_1509	s	s	20	3	SIC	383	RC	2	1	23VO	1	0	0.39440703392	-8.0	126.0	-4	123	1
1.7	2015_Aug_13_1509	s	s	20	3	SIC	384	RC	1	1	23MO	1	0	1.1834321022	-458.0	-257.0	-461	-259	1
1.7	2015_Aug_13_1509	s	s	20	3	SIC	385	ABS	1	2	24MD	0	1	0.599668979645	None	None	None	None	1
1.7	2015_Aug_13_1509	s	s	20	3	SIC	386	ABS	2	0	24VC	0	1	0.552662849426	None	None	None	None	1
1.7	2015_Aug_13_1509	s	s	20	3	SIC	387	RC	1	0	23MC	1	0	0.470190048218	-420.0	-142.0	-424	-136	1
1.7	2015_Aug_13_1509	s	s	20	3	SIC	388	RC	0	2	23RD	1	0	0.440937042236	-174.0	-353.0	-177	-362	1
1.7	2015_Aug_13_1509	s	s	20	3	SIC	389	ABS	0	1	24RO	0	1	3.72563695908	None	None	None	None	1
1.7	2015_Aug_13_1509	s	s	20	3	SIC	390	ABS	0	2	24RD	0	1	1.07046103477	None	None	None	None	1
1.7	2015_Aug_13_1509	s	s	20	3	SIC	391	ABS	1	0	24MC	0	1	1.97235393524	None	None	None	None	1
1.7	2015_Aug_13_1509	s	s	20	3	SIC	392	ABS	2	2	24VD	0	1	0.581436872482	None	None	None	None	1
1.7	2015_Aug_13_1509	s	s	20	3	SIC	393	RC	1	1	23MO	1	0	0.912480831146	-397.0	342.0	-393	340	1
1.7	2015_Aug_13_1509	s	s	20	3	SIC	394	ABS	2	1	24VO	0	1	0.465302944183	None	None	None	None	1
1.7	2015_Aug_13_1509	s	s	20	3	SIC	395	RC	1	2	23MD	1	0	0.434821844101	-386.0	-372.0	-378	-368	1
1.7	2015_Aug_13_1509	s	s	20	3	SIC	396	RC	2	1	23VO	1	0	0.505467176437	-155.0	-341.0	-162	-342	1
1.7	2015_Aug_13_1509	s	s	20	3	SIC	397	ABS	1	1	24MO	0	1	1.80746197701	None	None	None	None	1
1.7	2015_Aug_13_1509	s	s	20	3	SIC	398	RC	0	1	23RO	0	1	4.74965381622	416.0	-240.0	None	None	0
1.7	2015_Aug_13_1509	s	s	20	3	SIC	399	RC	2	0	23VC	1	0	0.618264198303	-532.0	196.0	-540	199	1
1.7	2015_Aug_13_1509	s	s	20	3	SIC	400	RC	2	2	23VD	1	0	0.4533598423	215.0	-227.0	210	-225	1
1.7	2015_Aug_13_1509	s	s	20	3	SIC	401	RC	2	2	23VD	1	0	0.423065185547	468.0	-349.0	474	-351	1
1.7	2015_Aug_13_1509	s	s	20	3	SIC	402	ABS	1	0	24MC	0	1	1.94147515297	None	None	None	None	1
1.7	2015_Aug_13_1509	s	s	20	3	SIC	403	ABS	2	1	24VO	0	1	0.493724107742	None	None	None	None	1
1.7	2015_Aug_13_1509	s	s	20	3	SIC	404	RC	1	0	23MC	1	0	0.505432844162	259.0	-299.0	267	-297	1
1.7	2015_Aug_13_1509	s	s	20	3	SIC	405	ABS	1	2	24MD	0	1	0.564316034317	None	None	None	None	1
1.7	2015_Aug_13_1509	s	s	20	3	SIC	406	RC	0	1	23RO	0	1	3.79612803459	412.0	-324.0	None	None	0
1.7	2015_Aug_13_1509	s	s	20	3	SIC	407	ABS	0	2	24RD	0	1	0.758795022964	None	None	None	None	1
1.7	2015_Aug_13_1509	s	s	20	3	SIC	408	ABS	0	1	24RO	0	1	5.11440181732	None	None	None	None	1
1.7	2015_Aug_13_1509	s	s	20	3	SIC	409	ABS	2	2	24VD	0	1	0.599630117416	None	None	None	None	1
1.7	2015_Aug_13_1509	s	s	20	3	SIC	410	ABS	1	1	24MO	0	1	1.18549203873	None	None	None	None	1
1.7	2015_Aug_13_1509	s	s	20	3	SIC	411	RC	1	2	23MD	1	0	0.442077159882	184.0	-188.0	183	-189	1
1.7	2015_Aug_13_1509	s	s	20	3	SIC	412	RC	2	1	23VO	1	0	0.434862136841	180.0	-342.0	185	-339	1
1.7	2015_Aug_13_1509	s	s	20	3	SIC	413	RC	1	1	23MO	1	0	0.559381008148	-400.0	-126.0	-390	-126	1
1.7	2015_Aug_13_1509	s	s	20	3	SIC	414	ABS	2	0	24VC	0	1	0.512307882309	None	None	None	None	1
1.7	2015_Aug_13_1509	s	s	20	3	SIC	415	RC	2	0	23VC	1	0	0.394624948502	-85.0	-372.0	-78	-370	1
1.7	2015_Aug_13_1509	s	s	20	3	SIC	416	RC	0	2	23RD	1	0	0.403248786926	229.0	-313.0	227	-316	1
1.7	2015_Aug_13_1509	s	s	20	3	SIC	417	RC	2	0	23VC	1	0	0.382663011551	136.0	121.0	141	117	1
1.7	2015_Aug_13_1509	s	s	20	3	SIC	418	ABS	1	0	24MC	0	1	2.37215304375	None	None	None	None	1
1.7	2015_Aug_13_1509	s	s	20	3	SIC	419	ABS	1	1	24MO	0	1	1.76489090919	None	None	None	None	1
1.7	2015_Aug_13_1509	s	s	20	3	SIC	420	ABS	2	0	24VC	0	1	0.470210075378	None	None	None	None	1
1.7	2015_Aug_13_1509	s	s	20	3	SIC	421	RC	0	2	23RD	1	0	0.594546079636	131.0	-304.0	131	-307	1
1.7	2015_Aug_13_1509	s	s	20	3	SIC	422	RC	1	1	23MO	1	0	0.670261859894	-215.0	212.0	-211	214	1
1.7	2015_Aug_13_1509	s	s	20	3	SIC	423	RC	2	1	23VO	1	0	0.411344051361	170.0	220.0	176	222	1
1.7	2015_Aug_13_1509	s	s	20	3	SIC	424	RC	0	1	23RO	1	0	1.64216685295	-481.0	-301.0	-480	-305	1
1.7	2015_Aug_13_1509	s	s	20	3	SIC	425	RC	1	2	23MD	1	0	0.441579818726	-117.0	302.0	-116	304	1
1.7	2015_Aug_13_1509	s	s	20	3	SIC	426	ABS	0	1	24RO	0	1	3.40751719475	None	None	None	None	1
1.7	2015_Aug_13_1509	s	s	20	3	SIC	427	RC	1	0	23MC	1	0	1.03008508682	-336.0	354.0	-331	355	1
1.7	2015_Aug_13_1509	s	s	20	3	SIC	428	ABS	2	1	24VO	0	1	0.523972034454	None	None	None	None	1
1.7	2015_Aug_13_1509	s	s	20	3	SIC	429	RC	2	2	23VD	1	0	0.35928606987	53.0	-122.0	50	-124	1
1.7	2015_Aug_13_1509	s	s	20	3	SIC	430	ABS	0	2	24RD	0	1	0.604892015457	None	None	None	None	1
1.7	2015_Aug_13_1509	s	s	20	3	SIC	431	ABS	2	2	24VD	0	1	0.422992944717	None	None	None	None	1
1.7	2015_Aug_13_1509	s	s	20	3	SIC	432	ABS	1	2	24MD	0	1	0.512217998505	None	None	None	None	1
1.7	2015_Aug_13_1509	s	s	20	3	SIC	433	ABS	2	1	24VO	0	1	0.463207960129	None	None	None	None	1
1.7	2015_Aug_13_1509	s	s	20	3	SIC	434	RC	1	1	23MO	1	0	1.82048892975	47.0	379.0	47	383	1
1.7	2015_Aug_13_1509	s	s	20	3	SIC	435	RC	0	2	23RD	1	0	0.547524929047	-486.0	-282.0	-490	-284	1
1.7	2015_Aug_13_1509	s	s	20	3	SIC	436	RC	2	1	23VO	1	0	0.393843889236	101.0	-62.0	93	-67	1
1.7	2015_Aug_13_1509	s	s	20	3	SIC	437	ABS	1	1	24MO	0	1	1.08285498619	None	None	None	None	1
1.7	2015_Aug_13_1509	s	s	20	3	SIC	438	RC	0	1	23RO	1	0	1.87085604668	-206.0	-233.0	-201	-226	1
1.7	2015_Aug_13_1509	s	s	20	3	SIC	439	ABS	2	0	24VC	0	1	0.736248970032	None	None	None	None	1
1.7	2015_Aug_13_1509	s	s	20	3	SIC	440	ABS	2	2	24VD	0	1	0.478506088257	None	None	None	None	1
1.7	2015_Aug_13_1509	s	s	20	3	SIC	441	ABS	1	0	24MC	0	1	1.83210706711	None	None	None	None	1
1.7	2015_Aug_13_1509	s	s	20	3	SIC	442	ABS	0	2	24RD	0	1	0.841516971588	None	None	None	None	1
1.7	2015_Aug_13_1509	s	s	20	3	SIC	443	RC	2	2	23VD	1	0	0.443300962448	271.0	-88.0	270	-86	1
1.7	2015_Aug_13_1509	s	s	20	3	SIC	444	ABS	0	1	24RO	0	1	3.84828615189	None	None	None	None	1
1.7	2015_Aug_13_1509	s	s	20	3	SIC	445	ABS	1	2	24MD	0	1	0.787909984589	None	None	None	None	1
1.7	2015_Aug_13_1509	s	s	20	3	SIC	446	RC	1	0	23MC	1	0	0.478713989258	-304.0	-5.0	-295	-7	1
1.7	2015_Aug_13_1509	s	s	20	3	SIC	447	RC	1	2	23MD	1	0	0.418355941772	222.0	-57.0	218	-63	1
1.7	2015_Aug_13_1509	s	s	20	3	SIC	448	RC	2	0	23VC	1	0	0.387762784958	-96.0	-82.0	-95	-79	1
1.7	2015_Aug_13_1509	s	s	20	3	SIC	449	RC	2	2	23VD	1	0	0.434885025024	-345.0	-312.0	-341	-319	1
1.7	2015_Aug_13_1509	s	s	20	3	SIC	450	RC	2	1	23VO	1	0	0.419794082642	-274.0	301.0	-275	307	1
1.7	2015_Aug_13_1509	s	s	20	3	SIC	451	ABS	2	1	24VO	0	1	0.406079053879	None	None	None	None	1
1.7	2015_Aug_13_1509	s	s	20	3	SIC	452	RC	1	2	23MD	1	0	0.458371162415	-4.0	-192.0	-10	-190	1
1.7	2015_Aug_13_1509	s	s	20	3	SIC	453	ABS	1	2	24MD	0	1	0.564401865005	None	None	None	None	1
1.7	2015_Aug_13_1509	s	s	20	3	SIC	454	ABS	2	0	24VC	0	1	0.434895038605	None	None	None	None	1
1.7	2015_Aug_13_1509	s	s	20	3	SIC	455	ABS	2	2	24VD	0	1	0.44161605835	None	None	None	None	1
1.7	2015_Aug_13_1509	s	s	20	3	SIC	456	RC	0	1	23RO	1	0	1.48776221275	465.0	166.0	460	163	1
1.7	2015_Aug_13_1509	s	s	20	3	SIC	457	RC	1	1	23MO	1	0	2.07783699036	-19.0	-383.0	-18	-388	1
1.7	2015_Aug_13_1509	s	s	20	3	SIC	458	ABS	0	2	24RD	0	1	0.618063926697	None	None	None	None	1
1.7	2015_Aug_13_1509	s	s	20	3	SIC	459	RC	2	0	23VC	1	0	0.811559200287	-188.0	410.0	-180	408	1
1.7	2015_Aug_13_1509	s	s	20	3	SIC	460	RC	0	2	23RD	1	0	0.552474975586	-327.0	-227.0	-317	-224	1
1.7	2015_Aug_13_1509	s	s	20	3	SIC	461	ABS	0	1	24RO	0	1	3.41955399513	None	None	None	None	1
1.7	2015_Aug_13_1509	s	s	20	3	SIC	462	RC	1	0	23MC	1	0	1.27060413361	146.0	-48.0	150	-45	1
1.7	2015_Aug_13_1509	s	s	20	3	SIC	463	ABS	1	1	24MO	0	1	0.641748189926	None	None	None	None	1
1.7	2015_Aug_13_1509	s	s	20	3	SIC	464	ABS	1	0	24MC	0	1	1.01164698601	None	None	None	None	1
1.7	2015_Aug_13_1509	s	s	20	3	SIC	465	ABS	2	1	24VO	0	1	0.500478029251	None	None	None	None	1
1.7	2015_Aug_13_1509	s	s	20	3	SIC	466	RC	1	2	23MD	1	0	0.481968164444	448.0	405.0	452	414	1
1.7	2015_Aug_13_1509	s	s	20	3	SIC	467	ABS	0	1	24RO	0	1	5.47940611839	None	None	None	None	1
1.7	2015_Aug_13_1509	s	s	20	3	SIC	468	ABS	1	1	24MO	0	1	1.15285086632	None	None	None	None	1
1.7	2015_Aug_13_1509	s	s	20	3	SIC	469	RC	2	0	23VC	1	0	0.442162036896	337.0	185.0	334	189	1
1.7	2015_Aug_13_1509	s	s	20	3	SIC	470	ABS	2	2	24VD	0	1	0.434880018234	None	None	None	None	1
1.7	2015_Aug_13_1509	s	s	20	3	SIC	471	ABS	1	0	24MC	0	1	2.77716994286	None	None	None	None	1
1.7	2015_Aug_13_1509	s	s	20	3	SIC	472	RC	2	2	23VD	1	0	0.434816122055	-333.0	73.0	-334	71	1
1.7	2015_Aug_13_1509	s	s	20	3	SIC	473	RC	0	2	23RD	1	0	0.42866897583	-253.0	-226.0	-252	-224	1
1.7	2015_Aug_13_1509	s	s	20	3	SIC	474	ABS	1	2	24MD	0	1	0.749347925186	None	None	None	None	1
1.7	2015_Aug_13_1509	s	s	20	3	SIC	475	RC	0	1	23RO	1	0	2.92503404617	-356.0	-351.0	-355	-358	1
1.7	2015_Aug_13_1509	s	s	20	3	SIC	476	RC	1	1	23MO	1	0	0.51256108284	-409.0	160.0	-416	159	1
1.7	2015_Aug_13_1509	s	s	20	3	SIC	477	ABS	0	2	24RD	0	1	1.07743692398	None	None	None	None	1
1.7	2015_Aug_13_1509	s	s	20	3	SIC	478	RC	1	0	23MC	1	0	0.500530004501	-325.0	295.0	-318	300	1
1.7	2015_Aug_13_1509	s	s	20	3	SIC	479	ABS	2	0	24VC	0	1	0.48238992691	None	None	None	None	1
1.7	2015_Aug_13_1509	s	s	20	3	SIC	480	RC	2	1	23VO	1	0	0.423090934753	-256.0	-112.0	-255	-111	1
1.7	2015_Aug_13_1509	s	s	20	3	SIC	481	RC	0	1	23RO	1	0	2.85959219933	-200.0	-347.0	-197	-347	1
1.7	2015_Aug_13_1509	s	s	20	3	SIC	482	RC	2	2	23VD	1	0	0.423085927963	-339.0	46.0	-337	45	1
1.7	2015_Aug_13_1509	s	s	20	3	SIC	483	ABS	2	2	24VD	0	1	0.723674058914	None	None	None	None	1
1.7	2015_Aug_13_1509	s	s	20	3	SIC	484	ABS	2	1	24VO	0	1	0.823340177536	None	None	None	None	1
1.7	2015_Aug_13_1509	s	s	20	3	SIC	485	ABS	0	1	24RO	0	1	4.02510499954	None	None	None	None	1
1.7	2015_Aug_13_1509	s	s	20	3	SIC	486	RC	1	0	23MC	1	0	0.999853849411	12.0	-403.0	15	-398	1
1.7	2015_Aug_13_1509	s	s	20	3	SIC	487	ABS	2	0	24VC	0	1	0.465080022812	None	None	None	None	1
1.7	2015_Aug_13_1509	s	s	20	3	SIC	488	RC	1	1	23MO	1	0	0.984409093857	371.0	-398.0	363	-393	1
1.7	2015_Aug_13_1509	s	s	20	3	SIC	489	RC	2	0	23VC	1	0	0.544437885284	-263.0	51.0	-262	50	1
1.7	2015_Aug_13_1509	s	s	20	3	SIC	490	ABS	1	0	24MC	0	1	1.74832510948	None	None	None	None	1
1.7	2015_Aug_13_1509	s	s	20	3	SIC	491	RC	1	2	23MD	1	0	0.430392980576	-308.0	86.0	-310	84	1
1.7	2015_Aug_13_1509	s	s	20	3	SIC	492	ABS	1	1	24MO	0	1	1.38300013542	None	None	None	None	1
1.7	2015_Aug_13_1509	s	s	20	3	SIC	493	RC	2	1	23VO	1	0	0.44655585289	341.0	306.0	345	307	1
1.7	2015_Aug_13_1509	s	s	20	3	SIC	494	RC	0	2	23RD	1	0	0.406683921814	360.0	285.0	360	287	1
1.7	2015_Aug_13_1509	s	s	20	3	SIC	495	ABS	1	2	24MD	0	1	0.505471944809	None	None	None	None	1
1.7	2015_Aug_13_1509	s	s	20	3	SIC	496	ABS	0	2	24RD	0	1	0.771249055862	None	None	None	None	1
1.7	2015_Aug_13_1509	s	s	20	3	SIC	497	ABS	1	1	24MO	0	1	1.78361701965	None	None	None	None	1
1.7	2015_Aug_13_1509	s	s	20	3	SIC	498	RC	1	2	23MD	1	0	0.411327123642	-185.0	53.0	-187	56	1
1.7	2015_Aug_13_1509	s	s	20	3	SIC	499	ABS	0	1	24RO	0	1	3.1272790432	None	None	None	None	1
1.7	2015_Aug_13_1509	s	s	20	3	SIC	500	RC	1	0	23MC	1	0	1.88978791237	104.0	390.0	108	390	1
1.7	2015_Aug_13_1509	s	s	20	3	SIC	501	ABS	2	1	24VO	0	1	0.446630001068	None	None	None	None	1
1.7	2015_Aug_13_1509	s	s	20	3	SIC	502	ABS	0	2	24RD	0	1	0.547224998474	None	None	None	None	1
1.7	2015_Aug_13_1509	s	s	20	3	SIC	503	RC	0	1	23RO	1	0	2.22394609451	255.0	-62.0	255	-61	1
1.7	2015_Aug_13_1509	s	s	20	3	SIC	504	RC	2	2	23VD	1	0	0.418194055557	-376.0	115.0	-374	114	1
1.7	2015_Aug_13_1509	s	s	20	3	SIC	505	RC	2	0	23VC	1	0	0.423362016678	539.0	127.0	547	129	1
1.7	2015_Aug_13_1509	s	s	20	3	SIC	506	RC	1	1	23MO	1	0	1.35959601402	-160.0	-390.0	-157	-394	1
1.7	2015_Aug_13_1509	s	s	20	3	SIC	507	ABS	1	2	24MD	0	1	0.735810995102	None	None	None	None	1
1.7	2015_Aug_13_1509	s	s	20	3	SIC	508	ABS	2	0	24VC	0	1	0.820647001266	None	None	None	None	1
1.7	2015_Aug_13_1509	s	s	20	3	SIC	509	ABS	2	2	24VD	0	1	0.434864997864	None	None	None	None	1
1.7	2015_Aug_13_1509	s	s	20	3	SIC	510	RC	2	1	23VO	1	0	0.418296098709	-42.0	198.0	-39	198	1
1.7	2015_Aug_13_1509	s	s	20	3	SIC	511	ABS	1	0	24MC	0	1	2.15329003334	None	None	None	None	1
1.7	2015_Aug_13_1509	s	s	20	3	SIC	512	RC	0	2	23RD	1	0	0.587835073471	169.0	123.0	184	130	1
1.7	2015_Aug_13_1509	s	s	20	3	SIC	513	ABS	1	2	24MD	0	1	0.835138082504	None	None	None	None	1
1.7	2015_Aug_13_1509	s	s	20	3	SIC	514	ABS	2	1	24VO	0	1	0.467470884323	None	None	None	None	1
1.7	2015_Aug_13_1509	s	s	20	3	SIC	515	RC	1	2	23MD	1	0	0.523957014084	-44.0	-344.0	-40	-342	1
1.7	2015_Aug_13_1509	s	s	20	3	SIC	516	ABS	1	0	24MC	0	1	1.4893989563	None	None	None	None	1
1.7	2015_Aug_13_1509	s	s	20	3	SIC	517	RC	2	2	23VD	1	0	0.387763977051	-307.0	-327.0	-301	-325	1
1.7	2015_Aug_13_1509	s	s	20	3	SIC	518	RC	0	2	23RD	1	0	0.544456005096	28.0	-302.0	31	-308	1
1.7	2015_Aug_13_1509	s	s	20	3	SIC	519	ABS	0	2	24RD	0	1	0.776748895645	None	None	None	None	1
1.7	2015_Aug_13_1509	s	s	20	3	SIC	520	RC	1	0	23MC	0	1	0.924319028854	-260.0	298.0	None	None	0
1.7	2015_Aug_13_1509	s	s	20	3	SIC	521	RC	1	1	23MO	1	0	0.658847808838	416.0	-93.0	416	-93	1
1.7	2015_Aug_13_1509	s	s	20	3	SIC	522	ABS	2	2	24VD	0	1	0.552365064621	None	None	None	None	1
1.7	2015_Aug_13_1509	s	s	20	3	SIC	523	ABS	2	0	24VC	0	1	0.477055072784	None	None	None	None	1
1.7	2015_Aug_13_1509	s	s	20	3	SIC	524	ABS	1	1	24MO	0	1	1.65880298615	None	None	None	None	1
1.7	2015_Aug_13_1509	s	s	20	3	SIC	525	RC	0	1	23RO	1	0	3.00746393204	65.0	147.0	65	143	1
1.7	2015_Aug_13_1509	s	s	20	3	SIC	526	ABS	0	1	24RO	0	1	4.27874994278	None	None	None	None	1
1.7	2015_Aug_13_1509	s	s	20	3	SIC	527	RC	2	0	23VC	1	0	0.453331947327	-458.0	195.0	-462	195	1
1.7	2015_Aug_13_1509	s	s	20	3	SIC	528	RC	2	1	23VO	1	0	0.482173919678	199.0	209.0	198	213	1
1.7	2015_Aug_13_1509	s	s	20	3	SIC	529	RC	2	0	23VC	1	0	0.382437944412	63.0	137.0	59	139	1
1.7	2015_Aug_13_1509	s	s	20	3	SIC	530	RC	1	2	23MD	1	0	0.387702941895	-29.0	7.0	-29	10	1
1.7	2015_Aug_13_1509	s	s	20	3	SIC	531	ABS	0	2	24RD	0	1	0.811753988266	None	None	None	None	1
1.7	2015_Aug_13_1509	s	s	20	3	SIC	532	ABS	0	1	24RO	0	1	4.60885596275	None	None	None	None	1
1.7	2015_Aug_13_1509	s	s	20	3	SIC	533	ABS	1	2	24MD	0	1	0.811544895172	None	None	None	None	1
1.7	2015_Aug_13_1509	s	s	20	3	SIC	534	RC	1	1	23MO	1	0	0.729656934738	-318.0	-240.0	-318	-242	1
1.7	2015_Aug_13_1509	s	s	20	3	SIC	535	RC	2	1	23VO	1	0	0.399545907974	-210.0	238.0	-210	242	1
1.7	2015_Aug_13_1509	s	s	20	3	SIC	536	ABS	1	0	24MC	0	1	1.50149106979	None	None	None	None	1
1.7	2015_Aug_13_1509	s	s	20	3	SIC	537	RC	0	1	23RO	1	0	1.01808810234	62.0	-170.0	64	-166	1
1.7	2015_Aug_13_1509	s	s	20	3	SIC	538	RC	2	2	23VD	1	0	0.394586801529	-79.0	149.0	-82	146	1
1.7	2015_Aug_13_1509	s	s	20	3	SIC	539	ABS	2	0	24VC	0	1	0.465351104736	None	None	None	None	1
1.7	2015_Aug_13_1509	s	s	20	3	SIC	540	ABS	1	1	24MO	0	1	1.37217211723	None	None	None	None	1
1.7	2015_Aug_13_1509	s	s	20	3	SIC	541	ABS	2	2	24VD	0	1	0.631443023682	None	None	None	None	1
1.7	2015_Aug_13_1509	s	s	20	3	SIC	542	RC	0	2	23RD	1	0	0.517269849777	-417.0	4.0	-419	7	1
1.7	2015_Aug_13_1509	s	s	20	3	SIC	543	ABS	2	1	24VO	0	1	0.441665887833	None	None	None	None	1
1.7	2015_Aug_13_1509	s	s	20	3	SIC	544	RC	1	0	23MC	1	0	0.811537027359	138.0	-18.0	127	-16	1
1.7	2015_Aug_13_1509	s	s	20	3	SIC	545	ABS	2	1	24VO	0	1	0.488821983337	None	None	None	None	1
1.7	2015_Aug_13_1509	s	s	20	3	SIC	546	ABS	1	2	24MD	0	1	0.606235980988	None	None	None	None	1
1.7	2015_Aug_13_1509	s	s	20	3	SIC	547	ABS	2	2	24VD	0	1	0.634927034378	None	None	None	None	1
1.7	2015_Aug_13_1509	s	s	20	3	SIC	548	ABS	2	0	24VC	0	1	0.458339929581	None	None	None	None	1
1.7	2015_Aug_13_1509	s	s	20	3	SIC	549	ABS	1	1	24MO	0	1	2.65940690041	None	None	None	None	1
1.7	2015_Aug_13_1509	s	s	20	3	SIC	550	RC	1	0	23MC	0	1	1.34783196449	-103.0	-388.0	None	None	0
1.7	2015_Aug_13_1509	s	s	20	3	SIC	551	ABS	1	0	24MC	0	1	1.27056097984	None	None	None	None	1
1.7	2015_Aug_13_1509	s	s	20	3	SIC	552	RC	0	2	23RD	1	0	0.523730039597	241.0	-375.0	243	-381	1
1.7	2015_Aug_13_1509	s	s	20	3	SIC	553	RC	0	1	23RO	0	1	2.21877098083	-333.0	-257.0	None	None	0
1.7	2015_Aug_13_1509	s	s	20	3	SIC	554	ABS	0	2	24RD	0	1	0.547689914703	None	None	None	None	1
1.7	2015_Aug_13_1509	s	s	20	3	SIC	555	RC	1	1	23MO	1	0	0.57612490654	-45.0	216.0	-44	209	1
1.7	2015_Aug_13_1509	s	s	20	3	SIC	556	RC	2	0	23VC	1	0	0.488169908524	-504.0	261.0	-509	260	1
1.7	2015_Aug_13_1509	s	s	20	3	SIC	557	ABS	0	1	24RO	0	1	4.33464503288	None	None	None	None	1
1.7	2015_Aug_13_1509	s	s	20	3	SIC	558	RC	2	2	23VD	1	0	0.387784004211	390.0	106.0	383	106	1
1.7	2015_Aug_13_1509	s	s	20	3	SIC	559	RC	2	1	23VO	1	0	0.41806602478	-35.0	370.0	-28	375	1
1.7	2015_Aug_13_1509	s	s	20	3	SIC	560	RC	1	2	23MD	1	0	0.394958019257	-179.0	63.0	-175	63	1
1.7	2015_Aug_13_1509	s	s	20	3	SIC	561	RC	1	2	23MD	1	0	0.488785028458	-170.0	-285.0	-165	-281	1
1.7	2015_Aug_13_1509	s	s	20	3	SIC	562	ABS	2	1	24VO	0	1	0.465137004852	None	None	None	None	1
1.7	2015_Aug_13_1509	s	s	20	3	SIC	563	ABS	2	0	24VC	0	1	0.470053911209	None	None	None	None	1
1.7	2015_Aug_13_1509	s	s	20	3	SIC	564	RC	1	0	23MC	1	0	1.17635893822	256.0	314.0	269	317	1
1.7	2015_Aug_13_1509	s	s	20	3	SIC	565	ABS	1	1	24MO	0	1	0.791629076004	None	None	None	None	1
1.7	2015_Aug_13_1509	s	s	20	3	SIC	566	ABS	0	1	24RO	0	1	3.16561794281	None	None	None	None	1
1.7	2015_Aug_13_1509	s	s	20	3	SIC	567	ABS	0	2	24RD	0	1	0.582680940628	None	None	None	None	1
1.7	2015_Aug_13_1509	s	s	20	3	SIC	568	ABS	1	2	24MD	0	1	0.481988191605	None	None	None	None	1
1.7	2015_Aug_13_1509	s	s	20	3	SIC	569	ABS	1	0	24MC	0	1	1.30154585838	None	None	None	None	1
1.7	2015_Aug_13_1509	s	s	20	3	SIC	570	RC	1	1	23MO	1	0	0.535950899124	283.0	172.0	281	174	1
1.7	2015_Aug_13_1509	s	s	20	3	SIC	571	RC	2	0	23VC	1	0	0.406347036362	-273.0	189.0	-268	186	1
1.7	2015_Aug_13_1509	s	s	20	3	SIC	572	RC	2	2	23VD	1	0	0.387885093689	85.0	-145.0	85	-152	1
1.7	2015_Aug_13_1509	s	s	20	3	SIC	573	RC	0	2	23RD	1	0	0.490041971207	410.0	-188.0	406	-186	1
1.7	2015_Aug_13_1509	s	s	20	3	SIC	574	ABS	2	2	24VD	0	1	0.462641000748	None	None	None	None	1
1.7	2015_Aug_13_1509	s	s	20	3	SIC	575	RC	0	1	23RO	0	1	3.74922609329	39.0	289.0	None	None	0
1.7	2015_Aug_13_1509	s	s	20	3	SIC	576	RC	2	1	23VO	1	0	0.41813492775	-515.0	-23.0	-511	-19	1
1.7	2015_Aug_13_1509	s	s	20	3	SIC	577	RC	0	1	23RO	0	1	3.36091709137	67.0	219.0	None	None	0
1.7	2015_Aug_13_1509	s	s	20	3	SIC	578	ABS	2	0	24VC	0	1	0.477072954178	None	None	None	None	1
1.7	2015_Aug_13_1509	s	s	20	3	SIC	579	RC	0	2	23RD	1	0	0.623183965683	212.0	286.0	215	287	1
1.7	2015_Aug_13_1509	s	s	20	3	SIC	580	RC	1	2	23MD	1	0	0.441386938095	-218.0	382.0	-210	386	1
1.7	2015_Aug_13_1509	s	s	20	3	SIC	581	ABS	1	0	24MC	0	1	1.01859712601	None	None	None	None	1
1.7	2015_Aug_13_1509	s	s	20	3	SIC	582	RC	1	1	23MO	1	0	0.477158069611	149.0	159.0	151	165	1
1.7	2015_Aug_13_1509	s	s	20	3	SIC	583	ABS	1	1	24MO	0	1	1.49419379234	None	None	None	None	1
1.7	2015_Aug_13_1509	s	s	20	3	SIC	584	ABS	0	1	24RO	0	1	3.57255887985	None	None	None	None	1
1.7	2015_Aug_13_1509	s	s	20	3	SIC	585	ABS	1	2	24MD	0	1	0.999768972397	None	None	None	None	1
1.7	2015_Aug_13_1509	s	s	20	3	SIC	586	RC	2	2	23VD	1	0	0.411346912384	-455.0	59.0	-453	63	1
1.7	2015_Aug_13_1509	s	s	20	3	SIC	587	RC	1	0	23MC	1	0	0.58304810524	-83.0	153.0	-80	157	1
1.7	2015_Aug_13_1509	s	s	20	3	SIC	588	RC	2	0	23VC	1	0	0.382748126984	-56.0	54.0	-53	60	1
1.7	2015_Aug_13_1509	s	s	20	3	SIC	589	ABS	2	2	24VD	0	1	0.500555992126	None	None	None	None	1
1.7	2015_Aug_13_1509	s	s	20	3	SIC	590	ABS	0	2	24RD	0	1	0.641057014465	None	None	None	None	1
1.7	2015_Aug_13_1509	s	s	20	3	SIC	591	ABS	2	1	24VO	0	1	0.411600828171	None	None	None	None	1
1.7	2015_Aug_13_1509	s	s	20	3	SIC	592	RC	2	1	23VO	1	0	0.441457986832	398.0	297.0	402	297	1
