Version	Date	Stimuli	Method	Subject	Session	Condition	Trial	Target	Channel1	Channel2	Distractors	LMouseButton	RMouseButton	RT	TargetX	TargetY	ResponseX	ResponseY	Correct
1.7	2015_Aug_11_1556	s	s	20	1	Capacity	1	RC	0	1	23RO	1	0	1.5598590374	-280.0	66.0	-275	63	1
1.7	2015_Aug_11_1556	s	s	20	1	Capacity	2	ABS	0	2	24RD	0	1	5.28430700302	None	None	None	None	1
1.7	2015_Aug_11_1556	s	s	20	1	Capacity	3	ABS	0	1	24RO	0	1	8.51345896721	None	None	None	None	1
1.7	2015_Aug_11_1556	s	s	20	1	Capacity	4	RC	0	2	23RD	1	0	1.60746502876	130.0	-142.0	137	-148	1
1.7	2015_Aug_11_1556	s	s	20	1	Capacity	5	ABS	0	2	24RD	0	1	5.63260602951	None	None	None	None	1
1.7	2015_Aug_11_1556	s	s	20	1	Capacity	6	ABS	0	1	24RO	0	1	13.0594208241	None	None	None	None	1
1.7	2015_Aug_11_1556	s	s	20	1	Capacity	7	RC	0	2	23RD	1	0	0.964462041855	179.0	-189.0	188	-191	1
1.7	2015_Aug_11_1556	s	s	20	1	Capacity	8	RC	0	1	23RO	1	0	3.03164100647	425.0	175.0	426	169	1
1.7	2015_Aug_11_1556	s	s	20	1	Capacity	9	RC	0	1	23RO	1	0	1.58364701271	425.0	-219.0	424	-219	1
1.7	2015_Aug_11_1556	s	s	20	1	Capacity	10	RC	0	2	23RD	1	0	0.988030195236	-378.0	-197.0	-371	-198	1
1.7	2015_Aug_11_1556	s	s	20	1	Capacity	11	ABS	0	1	24RO	0	1	10.9930260181	None	None	None	None	1
1.7	2015_Aug_11_1556	s	s	20	1	Capacity	12	ABS	0	2	24RD	0	1	6.03277897835	None	None	None	None	1
1.7	2015_Aug_11_1556	s	s	20	1	Capacity	13	ABS	0	2	24RD	0	1	5.60219597816	None	None	None	None	1
1.7	2015_Aug_11_1556	s	s	20	1	Capacity	14	RC	0	1	23RO	1	0	3.46684479713	-174.0	267.0	-173	267	1
1.7	2015_Aug_11_1556	s	s	20	1	Capacity	15	RC	0	2	23RD	1	0	0.94104886055	-336.0	-116.0	-333	-113	1
1.7	2015_Aug_11_1556	s	s	20	1	Capacity	16	ABS	0	1	24RO	0	1	8.64608693123	None	None	None	None	1
1.7	2015_Aug_11_1556	s	s	20	1	Capacity	17	RC	0	2	23RD	1	0	0.677536010742	5.0	103.0	5	103	1
1.7	2015_Aug_11_1556	s	s	20	1	Capacity	18	ABS	0	1	24RO	0	1	6.80275511742	None	None	None	None	1
1.7	2015_Aug_11_1556	s	s	20	1	Capacity	19	ABS	0	2	24RD	0	1	4.83219099045	None	None	None	None	1
1.7	2015_Aug_11_1556	s	s	20	1	Capacity	20	RC	0	1	23RO	1	0	1.00664186478	-227.0	-11.0	-233	-9	1
1.7	2015_Aug_11_1556	s	s	20	1	Capacity	21	RC	0	1	23RO	1	0	1.33627605438	64.0	-141.0	61	-141	1
1.7	2015_Aug_11_1556	s	s	20	1	Capacity	22	RC	0	2	23RD	1	0	1.05865502357	-291.0	-378.0	-296	-370	1
1.7	2015_Aug_11_1556	s	s	20	1	Capacity	23	ABS	0	1	24RO	0	1	8.02182984352	None	None	None	None	1
1.7	2015_Aug_11_1556	s	s	20	1	Capacity	24	ABS	0	2	24RD	0	1	4.06022000313	None	None	None	None	1
1.7	2015_Aug_11_1556	s	s	20	1	Capacity	25	ABS	0	2	24RD	0	1	3.80792188644	None	None	None	None	1
1.7	2015_Aug_11_1556	s	s	20	1	Capacity	26	RC	0	2	23RD	1	0	0.658533096313	-512.0	189.0	-512	193	1
1.7	2015_Aug_11_1556	s	s	20	1	Capacity	27	ABS	0	1	24RO	0	1	9.48641586304	None	None	None	None	1
1.7	2015_Aug_11_1556	s	s	20	1	Capacity	28	RC	0	1	23RO	1	0	1.64723300934	406.0	-9.0	405	-7	1
1.7	2015_Aug_11_1556	s	s	20	1	Capacity	29	RC	0	2	23RD	1	0	0.976359844208	-55.0	53.0	-54	49	1
1.7	2015_Aug_11_1556	s	s	20	1	Capacity	30	RC	0	1	23RO	1	0	1.01163601875	-236.0	126.0	-237	122	1
1.7	2015_Aug_11_1556	s	s	20	1	Capacity	31	ABS	0	2	24RD	0	1	3.36573386192	None	None	None	None	1
1.7	2015_Aug_11_1556	s	s	20	1	Capacity	32	ABS	0	1	24RO	0	1	5.76202988625	None	None	None	None	1
1.7	2015_Aug_11_1556	s	s	20	1	Capacity	33	RC	0	2	23RD	1	0	1.11253404617	-537.0	-307.0	-531	-310	1
1.7	2015_Aug_11_1556	s	s	20	1	Capacity	34	ABS	0	2	24RD	0	1	3.88365387917	None	None	None	None	1
1.7	2015_Aug_11_1556	s	s	20	1	Capacity	35	ABS	0	1	24RO	0	1	7.37399601936	None	None	None	None	1
1.7	2015_Aug_11_1556	s	s	20	1	Capacity	36	RC	0	1	23RO	1	0	4.53765416145	99.0	-208.0	98	-209	1
1.7	2015_Aug_11_1556	s	s	20	1	Capacity	37	RC	0	2	23RD	1	0	1.26640605927	513.0	-375.0	515	-377	1
1.7	2015_Aug_11_1556	s	s	20	1	Capacity	38	RC	0	1	23RO	1	0	1.43539190292	263.0	343.0	262	342	1
1.7	2015_Aug_11_1556	s	s	20	1	Capacity	39	ABS	0	1	24RO	0	1	8.64589095116	None	None	None	None	1
1.7	2015_Aug_11_1556	s	s	20	1	Capacity	40	ABS	0	2	24RD	0	1	4.30741214752	None	None	None	None	1
1.7	2015_Aug_11_1556	s	s	20	1	Capacity	41	RC	0	1	23RO	1	0	1.04209899902	-327.0	1.0	-331	1	1
1.7	2015_Aug_11_1556	s	s	20	1	Capacity	42	ABS	0	2	24RD	0	1	4.45537400246	None	None	None	None	1
1.7	2015_Aug_11_1556	s	s	20	1	Capacity	43	RC	0	2	23RD	1	0	0.736036062241	-458.0	-227.0	-455	-225	1
1.7	2015_Aug_11_1556	s	s	20	1	Capacity	44	ABS	0	1	24RO	0	1	6.84979104996	None	None	None	None	1
1.7	2015_Aug_11_1556	s	s	20	1	Capacity	45	RC	0	1	23RO	1	0	1.87944102287	96.0	-379.0	92	-375	1
1.7	2015_Aug_11_1556	s	s	20	1	Capacity	46	ABS	0	2	24RD	0	1	2.88964295387	None	None	None	None	1
1.7	2015_Aug_11_1556	s	s	20	1	Capacity	47	RC	0	2	23RD	1	0	0.79487991333	-57.0	-101.0	-56	-95	1
1.7	2015_Aug_11_1556	s	s	20	1	Capacity	48	ABS	0	1	24RO	0	1	4.09548807144	None	None	None	None	1
1.7	2015_Aug_11_1556	s	s	20	1	Capacity	49	RC	0	2	23RD	1	0	0.818002939224	226.0	-267.0	223	-269	1
1.7	2015_Aug_11_1556	s	s	20	1	Capacity	50	ABS	0	2	24RD	0	1	2.50141000748	None	None	None	None	1
1.7	2015_Aug_11_1556	s	s	20	1	Capacity	51	RC	0	1	23RO	1	0	4.11908507347	145.0	163.0	152	161	1
1.7	2015_Aug_11_1556	s	s	20	1	Capacity	52	ABS	0	1	24RO	0	1	6.86530900002	None	None	None	None	1
1.7	2015_Aug_11_1556	s	s	20	1	Capacity	53	ABS	0	2	24RD	0	1	2.85144996643	None	None	None	None	1
1.7	2015_Aug_11_1556	s	s	20	1	Capacity	54	RC	0	2	23RD	1	0	1.14105796814	-116.0	361.0	-107	368	1
1.7	2015_Aug_11_1556	s	s	20	1	Capacity	55	RC	0	1	23RO	1	0	2.28974294662	-508.0	-159.0	-513	-158	1
1.7	2015_Aug_11_1556	s	s	20	1	Capacity	56	ABS	0	1	24RO	0	1	6.92723107338	None	None	None	None	1
1.7	2015_Aug_11_1556	s	s	20	1	Capacity	57	RC	0	2	23RD	1	0	0.999873876572	-216.0	-177.0	-220	-171	1
1.7	2015_Aug_11_1556	s	s	20	1	Capacity	58	ABS	0	1	24RO	0	1	9.74530792236	None	None	None	None	1
1.7	2015_Aug_11_1556	s	s	20	1	Capacity	59	RC	0	1	23RO	1	0	3.93078899384	-74.0	289.0	-77	282	1
1.7	2015_Aug_11_1556	s	s	20	1	Capacity	60	ABS	0	2	24RD	0	1	3.16059207916	None	None	None	None	1
1.7	2015_Aug_11_1556	s	s	20	1	Capacity	61	RC	0	2	23RD	1	0	0.677014827728	-40.0	-83.0	-36	-80	1
1.7	2015_Aug_11_1556	s	s	20	1	Capacity	62	ABS	0	1	24RO	0	1	5.20222902298	None	None	None	None	1
1.7	2015_Aug_11_1556	s	s	20	1	Capacity	63	RC	0	1	23RO	1	0	3.43293094635	-222.0	342.0	-222	347	1
1.7	2015_Aug_11_1556	s	s	20	1	Capacity	64	ABS	0	2	24RD	0	1	2.00036001205	None	None	None	None	1
1.7	2015_Aug_11_1556	s	s	20	1	Capacity	65	RC	0	2	23RD	1	0	0.831403970718	326.0	-405.0	327	-411	1
1.7	2015_Aug_11_1556	s	s	20	1	Capacity	66	ABS	0	2	24RD	0	1	3.92259693146	None	None	None	None	1
1.7	2015_Aug_11_1556	s	s	20	1	Capacity	67	RC	0	1	23RO	1	0	4.49570798874	119.0	380.0	126	380	1
1.7	2015_Aug_11_1556	s	s	20	1	Capacity	68	ABS	0	1	24RO	0	1	5.53152298927	None	None	None	None	1
1.7	2015_Aug_11_1556	s	s	20	1	Capacity	69	ABS	0	1	24RO	0	1	5.8770980835	None	None	None	None	1
1.7	2015_Aug_11_1556	s	s	20	1	Capacity	70	RC	0	1	23RO	1	0	3.86704206467	195.0	-174.0	203	-176	1
1.7	2015_Aug_11_1556	s	s	20	1	Capacity	71	RC	0	2	23RD	1	0	1.23024296761	511.0	-184.0	511	-182	1
1.7	2015_Aug_11_1556	s	s	20	1	Capacity	72	ABS	0	2	24RD	0	1	3.36067414284	None	None	None	None	1
1.7	2015_Aug_11_1556	s	s	20	1	Capacity	73	ABS	0	1	24RO	0	1	6.41437482834	None	None	None	None	1
1.7	2015_Aug_11_1556	s	s	20	1	Capacity	74	RC	0	1	23RO	1	0	3.4834959507	-520.0	27.0	-526	31	1
1.7	2015_Aug_11_1556	s	s	20	1	Capacity	75	ABS	0	2	24RD	0	1	4.11903595924	None	None	None	None	1
1.7	2015_Aug_11_1556	s	s	20	1	Capacity	76	RC	0	2	23RD	1	0	1.04710817337	-373.0	115.0	-366	111	1
1.7	2015_Aug_11_1556	s	s	20	1	Capacity	77	ABS	0	1	24RO	0	1	5.59727311134	None	None	None	None	1
1.7	2015_Aug_11_1556	s	s	20	1	Capacity	78	RC	0	2	23RD	1	0	0.830062866211	438.0	45.0	443	46	1
1.7	2015_Aug_11_1556	s	s	20	1	Capacity	79	ABS	0	2	24RD	0	1	2.04494309425	None	None	None	None	1
1.7	2015_Aug_11_1556	s	s	20	1	Capacity	80	RC	0	1	23RO	1	0	3.3105738163	109.0	361.0	107	363	1
1.7	2015_Aug_11_1556	s	s	20	1	Capacity	81	RC	0	2	23RD	1	0	1.01163196564	9.0	-350.0	16	-351	1
1.7	2015_Aug_11_1556	s	s	20	1	Capacity	82	RC	0	1	23RO	1	0	1.20700097084	440.0	127.0	443	136	1
1.7	2015_Aug_11_1556	s	s	20	1	Capacity	83	ABS	0	2	24RD	0	1	2.90306997299	None	None	None	None	1
1.7	2015_Aug_11_1556	s	s	20	1	Capacity	84	ABS	0	1	24RO	0	1	6.62135910988	None	None	None	None	1
1.7	2015_Aug_11_1556	s	s	20	1	Capacity	85	RC	0	1	23RO	1	0	3.56591391563	-101.0	194.0	-102	189	1
1.7	2015_Aug_11_1556	s	s	20	1	Capacity	86	ABS	0	2	24RD	0	1	2.5300090313	None	None	None	None	1
1.7	2015_Aug_11_1556	s	s	20	1	Capacity	87	ABS	0	1	24RO	0	1	8.05765390396	None	None	None	None	1
1.7	2015_Aug_11_1556	s	s	20	1	Capacity	88	RC	0	2	23RD	1	0	0.835409879684	317.0	238.0	319	232	1
1.7	2015_Aug_11_1556	s	s	20	1	Capacity	89	ABS	0	2	24RD	0	1	4.00121808052	None	None	None	None	1
1.7	2015_Aug_11_1556	s	s	20	1	Capacity	90	ABS	0	1	24RO	0	1	5.14986395836	None	None	None	None	1
1.7	2015_Aug_11_1556	s	s	20	1	Capacity	91	RC	0	1	23RO	1	0	1.52449297905	349.0	-51.0	346	-48	1
1.7	2015_Aug_11_1556	s	s	20	1	Capacity	92	RC	0	2	23RD	1	0	0.870316982269	105.0	-203.0	105	-208	1
1.7	2015_Aug_11_1556	s	s	20	1	Capacity	1	RC	1	0	23MC	1	0	2.44261908531	-243.0	-191.0	-255	-190	1
1.7	2015_Aug_11_1556	s	s	20	1	Capacity	2	RC	2	0	23VC	1	0	0.912277936935	-473.0	-157.0	-480	-156	1
1.7	2015_Aug_11_1556	s	s	20	1	Capacity	3	ABS	1	0	24MC	0	1	3.23079204559	None	None	None	None	1
1.7	2015_Aug_11_1556	s	s	20	1	Capacity	4	ABS	2	0	24VC	0	1	1.77179002762	None	None	None	None	1
1.7	2015_Aug_11_1556	s	s	20	1	Capacity	5	ABS	1	0	24MC	0	1	6.46817994118	None	None	None	None	1
1.7	2015_Aug_11_1556	s	s	20	1	Capacity	6	ABS	2	0	24VC	0	1	2.77078795433	None	None	None	None	1
1.7	2015_Aug_11_1556	s	s	20	1	Capacity	7	RC	2	0	23VC	1	0	0.831462860107	-60.0	327.0	-60	327	1
1.7	2015_Aug_11_1556	s	s	20	1	Capacity	8	RC	1	0	23MC	1	0	3.17255711555	-455.0	309.0	-447	304	1
1.7	2015_Aug_11_1556	s	s	20	1	Capacity	9	ABS	2	0	24VC	0	1	2.64767313004	None	None	None	None	1
1.7	2015_Aug_11_1556	s	s	20	1	Capacity	10	ABS	1	0	24MC	0	1	9.31649899483	None	None	None	None	1
1.7	2015_Aug_11_1556	s	s	20	1	Capacity	11	RC	2	0	23VC	1	0	1.36470103264	62.0	-398.0	54	-400	1
1.7	2015_Aug_11_1556	s	s	20	1	Capacity	12	RC	1	0	23MC	1	0	3.54230308533	274.0	16.0	280	16	1
1.7	2015_Aug_11_1556	s	s	20	1	Capacity	13	RC	1	0	23MC	1	0	2.04391598701	-235.0	-221.0	-239	-229	1
1.7	2015_Aug_11_1556	s	s	20	1	Capacity	14	ABS	2	0	24VC	0	1	2.05424213409	None	None	None	None	1
1.7	2015_Aug_11_1556	s	s	20	1	Capacity	15	ABS	1	0	24MC	0	1	8.30442595482	None	None	None	None	1
1.7	2015_Aug_11_1556	s	s	20	1	Capacity	16	RC	2	0	23VC	1	0	0.858500003815	-275.0	309.0	-271	311	1
1.7	2015_Aug_11_1556	s	s	20	1	Capacity	17	RC	2	0	23VC	1	0	0.618278026581	-314.0	338.0	-309	345	1
1.7	2015_Aug_11_1556	s	s	20	1	Capacity	18	ABS	1	0	24MC	0	1	7.77960705757	None	None	None	None	1
1.7	2015_Aug_11_1556	s	s	20	1	Capacity	19	RC	1	0	23MC	1	0	0.787959098816	146.0	4.0	150	3	1
1.7	2015_Aug_11_1556	s	s	20	1	Capacity	20	ABS	2	0	24VC	0	1	3.03131389618	None	None	None	None	1
1.7	2015_Aug_11_1556	s	s	20	1	Capacity	21	ABS	1	0	24MC	0	1	10.3510358334	None	None	None	None	1
1.7	2015_Aug_11_1556	s	s	20	1	Capacity	22	ABS	2	0	24VC	0	1	2.71837210655	None	None	None	None	1
1.7	2015_Aug_11_1556	s	s	20	1	Capacity	23	RC	1	0	23MC	1	0	1.6537270546	311.0	-66.0	314	-67	1
1.7	2015_Aug_11_1556	s	s	20	1	Capacity	24	RC	2	0	23VC	1	0	0.806780099869	54.0	362.0	55	368	1
1.7	2015_Aug_11_1556	s	s	20	1	Capacity	25	RC	1	0	23MC	1	0	1.06575512886	187.0	395.0	192	403	1
1.7	2015_Aug_11_1556	s	s	20	1	Capacity	26	RC	2	0	23VC	1	0	0.594965934753	94.0	306.0	95	308	1
1.7	2015_Aug_11_1556	s	s	20	1	Capacity	27	ABS	1	0	24MC	0	1	1.98379206657	None	None	None	None	1
1.7	2015_Aug_11_1556	s	s	20	1	Capacity	28	ABS	2	0	24VC	0	1	1.4774620533	None	None	None	None	1
1.7	2015_Aug_11_1556	s	s	20	1	Capacity	29	RC	1	0	23MC	1	0	3.45994710922	-296.0	181.0	-302	186	1
1.7	2015_Aug_11_1556	s	s	20	1	Capacity	30	RC	2	0	23VC	1	0	0.547662973404	232.0	-203.0	240	-197	1
1.7	2015_Aug_11_1556	s	s	20	1	Capacity	31	ABS	1	0	24MC	0	1	2.77207994461	None	None	None	None	1
1.7	2015_Aug_11_1556	s	s	20	1	Capacity	32	ABS	2	0	24VC	0	1	1.8120880127	None	None	None	None	1
1.7	2015_Aug_11_1556	s	s	20	1	Capacity	33	RC	1	0	23MC	1	0	2.08943986893	38.0	382.0	38	380	1
1.7	2015_Aug_11_1556	s	s	20	1	Capacity	34	ABS	1	0	24MC	0	1	3.97806191444	None	None	None	None	1
1.7	2015_Aug_11_1556	s	s	20	1	Capacity	35	RC	2	0	23VC	1	0	0.540807008743	-67.0	115.0	-72	111	1
1.7	2015_Aug_11_1556	s	s	20	1	Capacity	36	ABS	2	0	24VC	0	1	2.0189511776	None	None	None	None	1
1.7	2015_Aug_11_1556	s	s	20	1	Capacity	37	RC	1	0	23MC	1	0	1.14776706696	346.0	153.0	346	150	1
1.7	2015_Aug_11_1556	s	s	20	1	Capacity	38	RC	2	0	23VC	1	0	1.37152814865	-204.0	-345.0	-205	-347	1
1.7	2015_Aug_11_1556	s	s	20	1	Capacity	39	ABS	1	0	24MC	0	1	1.3058488369	None	None	None	None	1
1.7	2015_Aug_11_1556	s	s	20	1	Capacity	40	ABS	2	0	24VC	0	1	1.25883197784	None	None	None	None	1
1.7	2015_Aug_11_1556	s	s	20	1	Capacity	41	RC	1	0	23MC	1	0	1.2774682045	498.0	179.0	499	178	1
1.7	2015_Aug_11_1556	s	s	20	1	Capacity	42	ABS	2	0	24VC	0	1	2.97252702713	None	None	None	None	1
1.7	2015_Aug_11_1556	s	s	20	1	Capacity	43	ABS	1	0	24MC	0	1	7.89194893837	None	None	None	None	1
1.7	2015_Aug_11_1556	s	s	20	1	Capacity	44	RC	2	0	23VC	1	0	0.976300954819	-538.0	88.0	-540	88	1
1.7	2015_Aug_11_1556	s	s	20	1	Capacity	45	ABS	1	0	24MC	0	1	3.79609894753	None	None	None	None	1
1.7	2015_Aug_11_1556	s	s	20	1	Capacity	46	ABS	2	0	24VC	0	1	1.85911607742	None	None	None	None	1
1.7	2015_Aug_11_1556	s	s	20	1	Capacity	47	RC	2	0	23VC	1	0	0.75926399231	351.0	-147.0	354	-143	1
1.7	2015_Aug_11_1556	s	s	20	1	Capacity	48	RC	1	0	23MC	1	0	2.10625314713	-278.0	397.0	-281	394	1
1.7	2015_Aug_11_1556	s	s	20	1	Capacity	49	RC	2	0	23VC	1	0	0.877048969269	71.0	32.0	73	34	1
1.7	2015_Aug_11_1556	s	s	20	1	Capacity	50	ABS	2	0	24VC	0	1	0.634907960892	None	None	None	None	1
1.7	2015_Aug_11_1556	s	s	20	1	Capacity	51	RC	1	0	23MC	1	0	1.24352288246	130.0	-93.0	122	-96	1
1.7	2015_Aug_11_1556	s	s	20	1	Capacity	52	ABS	1	0	24MC	0	1	4.18607401848	None	None	None	None	1
1.7	2015_Aug_11_1556	s	s	20	1	Capacity	53	RC	1	0	23MC	1	0	1.64719700813	462.0	-230.0	467	-235	1
1.7	2015_Aug_11_1556	s	s	20	1	Capacity	54	RC	2	0	23VC	1	0	1.19532895088	259.0	317.0	255	320	1
1.7	2015_Aug_11_1556	s	s	20	1	Capacity	55	ABS	1	0	24MC	0	1	2.90156817436	None	None	None	None	1
1.7	2015_Aug_11_1556	s	s	20	1	Capacity	56	ABS	2	0	24VC	0	1	1.01197910309	None	None	None	None	1
1.7	2015_Aug_11_1556	s	s	20	1	Capacity	57	RC	2	0	23VC	1	0	0.759400844574	-500.0	-281.0	-506	-280	1
1.7	2015_Aug_11_1556	s	s	20	1	Capacity	58	ABS	1	0	24MC	0	1	2.06604099274	None	None	None	None	1
1.7	2015_Aug_11_1556	s	s	20	1	Capacity	59	RC	1	0	23MC	1	0	0.902029037476	377.0	95.0	375	97	1
1.7	2015_Aug_11_1556	s	s	20	1	Capacity	60	ABS	2	0	24VC	0	1	0.771239995956	None	None	None	None	1
1.7	2015_Aug_11_1556	s	s	20	1	Capacity	61	ABS	2	0	24VC	0	1	0.794971942902	None	None	None	None	1
1.7	2015_Aug_11_1556	s	s	20	1	Capacity	62	ABS	1	0	24MC	0	1	3.27847886086	None	None	None	None	1
1.7	2015_Aug_11_1556	s	s	20	1	Capacity	63	RC	2	0	23VC	1	0	0.853526115417	-534.0	-220.0	-533	-213	1
1.7	2015_Aug_11_1556	s	s	20	1	Capacity	64	RC	1	0	23MC	0	1	0.893857955933	-196.0	285.0	None	None	0
1.7	2015_Aug_11_1556	s	s	20	1	Capacity	65	ABS	1	0	24MC	0	1	6.62655591965	None	None	None	None	1
1.7	2015_Aug_11_1556	s	s	20	1	Capacity	66	ABS	2	0	24VC	0	1	1.22353601456	None	None	None	None	1
1.7	2015_Aug_11_1556	s	s	20	1	Capacity	67	RC	1	0	23MC	1	0	0.682107925415	244.0	71.0	245	72	1
1.7	2015_Aug_11_1556	s	s	20	1	Capacity	68	RC	2	0	23VC	1	0	0.705584049225	47.0	-303.0	39	-305	1
1.7	2015_Aug_11_1556	s	s	20	1	Capacity	69	ABS	2	0	24VC	0	1	1.77154517174	None	None	None	None	1
1.7	2015_Aug_11_1556	s	s	20	1	Capacity	70	ABS	1	0	24MC	0	1	4.04882478714	None	None	None	None	1
1.7	2015_Aug_11_1556	s	s	20	1	Capacity	71	RC	1	0	23MC	1	0	0.735836982727	54.0	59.0	56	49	1
1.7	2015_Aug_11_1556	s	s	20	1	Capacity	72	RC	2	0	23VC	1	0	0.724105119705	416.0	-2.0	424	0	1
1.7	2015_Aug_11_1556	s	s	20	1	Capacity	73	RC	1	0	23MC	1	0	1.38334417343	520.0	208.0	522	207	1
1.7	2015_Aug_11_1556	s	s	20	1	Capacity	74	ABS	1	0	24MC	0	1	1.30078482628	None	None	None	None	1
1.7	2015_Aug_11_1556	s	s	20	1	Capacity	75	ABS	2	0	24VC	0	1	1.10580396652	None	None	None	None	1
1.7	2015_Aug_11_1556	s	s	20	1	Capacity	76	RC	2	0	23VC	1	0	0.796278953552	397.0	340.0	393	336	1
1.7	2015_Aug_11_1556	s	s	20	1	Capacity	77	ABS	1	0	24MC	0	1	1.20804810524	None	None	None	None	1
1.7	2015_Aug_11_1556	s	s	20	1	Capacity	78	RC	1	0	23MC	1	0	0.82994222641	101.0	105.0	100	103	1
1.7	2015_Aug_11_1556	s	s	20	1	Capacity	79	ABS	2	0	24VC	0	1	0.819858074188	None	None	None	None	1
1.7	2015_Aug_11_1556	s	s	20	1	Capacity	80	RC	2	0	23VC	1	0	0.611453056335	-301.0	37.0	-296	34	1
1.7	2015_Aug_11_1556	s	s	20	1	Capacity	81	RC	2	0	23VC	1	0	0.576093912125	-40.0	91.0	-41	95	1
1.7	2015_Aug_11_1556	s	s	20	1	Capacity	82	ABS	2	0	24VC	0	1	0.748107194901	None	None	None	None	1
1.7	2015_Aug_11_1556	s	s	20	1	Capacity	83	ABS	1	0	24MC	0	1	1.67750382423	None	None	None	None	1
1.7	2015_Aug_11_1556	s	s	20	1	Capacity	84	RC	1	0	23MC	1	0	0.788247108459	-214.0	-45.0	-218	-43	1
1.7	2015_Aug_11_1556	s	s	20	1	Capacity	85	RC	1	0	23MC	1	0	1.22352695465	-269.0	313.0	-268	319	1
1.7	2015_Aug_11_1556	s	s	20	1	Capacity	86	ABS	1	0	24MC	0	1	0.991796016693	None	None	None	None	1
1.7	2015_Aug_11_1556	s	s	20	1	Capacity	87	RC	2	0	23VC	1	0	0.571131944656	126.0	-174.0	124	-175	1
1.7	2015_Aug_11_1556	s	s	20	1	Capacity	88	ABS	2	0	24VC	0	1	0.729108095169	None	None	None	None	1
1.7	2015_Aug_11_1556	s	s	20	1	Capacity	89	RC	1	0	23MC	1	0	0.877207040787	309.0	-269.0	305	-272	1
1.7	2015_Aug_11_1556	s	s	20	1	Capacity	90	ABS	2	0	24VC	0	1	1.77669000626	None	None	None	None	1
1.7	2015_Aug_11_1556	s	s	20	1	Capacity	91	ABS	1	0	24MC	0	1	3.60799002647	None	None	None	None	1
1.7	2015_Aug_11_1556	s	s	20	1	Capacity	92	RC	2	0	23VC	1	0	0.702257871628	-336.0	161.0	-335	158	1
1.7	2015_Aug_11_1556	s	s	20	1	SIC	1	RC	2	0	23VC	1	0	0.912555932999	-477.0	-256.0	-484	-259	1
1.7	2015_Aug_11_1556	s	s	20	1	SIC	2	RC	1	1	23MO	1	0	1.2066988945	-202.0	235.0	-199	241	1
1.7	2015_Aug_11_1556	s	s	20	1	SIC	3	ABS	1	0	24MC	0	1	3.84829616547	None	None	None	None	1
1.7	2015_Aug_11_1556	s	s	20	1	SIC	4	ABS	0	1	24RO	0	1	6.25535988808	None	None	None	None	1
1.7	2015_Aug_11_1556	s	s	20	1	SIC	5	ABS	1	1	24MO	0	1	2.98423600197	None	None	None	None	1
1.7	2015_Aug_11_1556	s	s	20	1	SIC	6	ABS	0	2	24RD	0	1	2.6901550293	None	None	None	None	1
1.7	2015_Aug_11_1556	s	s	20	1	SIC	7	ABS	2	2	24VD	0	1	1.16464304924	None	None	None	None	1
1.7	2015_Aug_11_1556	s	s	20	1	SIC	8	ABS	1	2	24MD	0	1	1.64725399017	None	None	None	None	1
1.7	2015_Aug_11_1556	s	s	20	1	SIC	9	ABS	2	1	24VO	0	1	1.65397500992	None	None	None	None	1
1.7	2015_Aug_11_1556	s	s	20	1	SIC	10	RC	0	1	23RO	1	0	3.90751600266	-506.0	250.0	-510	251	1
1.7	2015_Aug_11_1556	s	s	20	1	SIC	11	RC	0	2	23RD	1	0	0.941237211227	-122.0	-254.0	-125	-250	1
1.7	2015_Aug_11_1556	s	s	20	1	SIC	12	ABS	2	0	24VC	0	1	1.641685009	None	None	None	None	1
1.7	2015_Aug_11_1556	s	s	20	1	SIC	13	RC	2	2	23VD	1	0	0.67685008049	-335.0	293.0	-331	294	1
1.7	2015_Aug_11_1556	s	s	20	1	SIC	14	RC	2	1	23VO	1	0	0.658517837524	-328.0	229.0	-324	230	1
1.7	2015_Aug_11_1556	s	s	20	1	SIC	15	RC	1	0	23MC	1	0	1.40660595894	75.0	-100.0	77	-96	1
1.7	2015_Aug_11_1556	s	s	20	1	SIC	16	RC	1	2	23MD	1	0	0.552574157715	458.0	-257.0	459	-256	1
1.7	2015_Aug_11_1556	s	s	20	1	SIC	17	RC	2	0	23VC	1	0	0.599588871002	239.0	-100.0	247	-99	1
1.7	2015_Aug_11_1556	s	s	20	1	SIC	18	RC	1	1	23MO	1	0	0.651082992554	-208.0	80.0	-206	83	1
1.7	2015_Aug_11_1556	s	s	20	1	SIC	19	ABS	1	0	24MC	0	1	2.56039595604	None	None	None	None	1
1.7	2015_Aug_11_1556	s	s	20	1	SIC	20	ABS	0	1	24RO	0	1	4.08379411697	None	None	None	None	1
1.7	2015_Aug_11_1556	s	s	20	1	SIC	21	ABS	0	2	24RD	0	1	2.20720505714	None	None	None	None	1
1.7	2015_Aug_11_1556	s	s	20	1	SIC	22	RC	0	2	23RD	1	0	0.806334972382	-463.0	295.0	-465	291	1
1.7	2015_Aug_11_1556	s	s	20	1	SIC	23	ABS	2	1	24VO	0	1	1.29413199425	None	None	None	None	1
1.7	2015_Aug_11_1556	s	s	20	1	SIC	24	RC	2	2	23VD	1	0	0.618316888809	261.0	43.0	261	41	1
1.7	2015_Aug_11_1556	s	s	20	1	SIC	25	RC	2	1	23VO	1	0	0.572476148605	-404.0	314.0	-401	314	1
1.7	2015_Aug_11_1556	s	s	20	1	SIC	26	RC	1	0	23MC	1	0	1.57663917542	185.0	136.0	192	141	1
1.7	2015_Aug_11_1556	s	s	20	1	SIC	27	ABS	2	0	24VC	0	1	0.929170846939	None	None	None	None	1
1.7	2015_Aug_11_1556	s	s	20	1	SIC	28	ABS	2	2	24VD	0	1	1.04189705849	None	None	None	None	1
1.7	2015_Aug_11_1556	s	s	20	1	SIC	29	RC	0	1	23RO	1	0	1.98362398148	-236.0	-250.0	-241	-248	1
1.7	2015_Aug_11_1556	s	s	20	1	SIC	30	RC	1	2	23MD	1	0	1.03515195847	485.0	287.0	492	292	1
1.7	2015_Aug_11_1556	s	s	20	1	SIC	31	ABS	1	1	24MO	0	1	2.97733616829	None	None	None	None	1
1.7	2015_Aug_11_1556	s	s	20	1	SIC	32	ABS	1	2	24MD	0	1	1.9717130661	None	None	None	None	1
1.7	2015_Aug_11_1556	s	s	20	1	SIC	33	RC	2	0	23VC	1	0	0.736036777496	312.0	-392.0	310	-397	1
1.7	2015_Aug_11_1556	s	s	20	1	SIC	34	RC	0	2	23RD	1	0	0.823235988617	-214.0	360.0	-212	359	1
1.7	2015_Aug_11_1556	s	s	20	1	SIC	35	ABS	1	2	24MD	0	1	1.35975408554	None	None	None	None	1
1.7	2015_Aug_11_1556	s	s	20	1	SIC	36	ABS	0	1	24RO	0	1	3.61715388298	None	None	None	None	1
1.7	2015_Aug_11_1556	s	s	20	1	SIC	37	RC	1	1	23MO	1	0	1.21167492867	473.0	-181.0	480	-184	1
1.7	2015_Aug_11_1556	s	s	20	1	SIC	38	ABS	2	2	24VD	0	1	0.959384918213	None	None	None	None	1
1.7	2015_Aug_11_1556	s	s	20	1	SIC	39	ABS	1	1	24MO	0	1	2.8076300621	None	None	None	None	1
1.7	2015_Aug_11_1556	s	s	20	1	SIC	40	ABS	1	0	24MC	0	1	2.45462799072	None	None	None	None	1
1.7	2015_Aug_11_1556	s	s	20	1	SIC	41	RC	2	1	23VO	1	0	1.14935708046	459.0	199.0	464	198	1
1.7	2015_Aug_11_1556	s	s	20	1	SIC	42	ABS	2	0	24VC	0	1	1.07047104836	None	None	None	None	1
1.7	2015_Aug_11_1556	s	s	20	1	SIC	43	RC	1	2	23MD	1	0	0.865483045578	-296.0	-403.0	-300	-410	1
1.7	2015_Aug_11_1556	s	s	20	1	SIC	44	ABS	0	2	24RD	0	1	2.93704915047	None	None	None	None	1
1.7	2015_Aug_11_1556	s	s	20	1	SIC	45	RC	1	0	23MC	1	0	0.913903951645	273.0	-291.0	271	-292	1
1.7	2015_Aug_11_1556	s	s	20	1	SIC	46	RC	0	1	23RO	1	0	3.05468988419	-35.0	345.0	-38	345	1
1.7	2015_Aug_11_1556	s	s	20	1	SIC	47	ABS	2	1	24VO	0	1	1.05359792709	None	None	None	None	1
1.7	2015_Aug_11_1556	s	s	20	1	SIC	48	RC	2	2	23VD	1	0	0.658529996872	-98.0	155.0	-98	156	1
1.7	2015_Aug_11_1556	s	s	20	1	SIC	49	RC	1	2	23MD	1	0	0.505461931229	-276.0	-212.0	-274	-218	1
1.7	2015_Aug_11_1556	s	s	20	1	SIC	50	RC	2	1	23VO	1	0	0.500472068787	431.0	-360.0	431	-363	1
1.7	2015_Aug_11_1556	s	s	20	1	SIC	51	RC	1	1	23MO	1	0	1.10590100288	-405.0	205.0	-415	203	1
1.7	2015_Aug_11_1556	s	s	20	1	SIC	52	RC	0	1	23RO	1	0	1.03220105171	215.0	94.0	220	98	1
1.7	2015_Aug_11_1556	s	s	20	1	SIC	53	ABS	0	1	24RO	0	1	3.22170805931	None	None	None	None	1
1.7	2015_Aug_11_1556	s	s	20	1	SIC	54	ABS	2	2	24VD	0	1	0.924243927002	None	None	None	None	1
1.7	2015_Aug_11_1556	s	s	20	1	SIC	55	ABS	2	1	24VO	0	1	1.17165184021	None	None	None	None	1
1.7	2015_Aug_11_1556	s	s	20	1	SIC	56	RC	2	0	23VC	1	0	0.582942008972	174.0	66.0	173	66	1
1.7	2015_Aug_11_1556	s	s	20	1	SIC	57	RC	1	0	23MC	1	0	1.64226484299	-460.0	193.0	-461	195	1
1.7	2015_Aug_11_1556	s	s	20	1	SIC	58	ABS	1	0	24MC	0	1	1.89440798759	None	None	None	None	1
1.7	2015_Aug_11_1556	s	s	20	1	SIC	59	ABS	1	1	24MO	0	1	2.770829916	None	None	None	None	1
1.7	2015_Aug_11_1556	s	s	20	1	SIC	60	RC	0	2	23RD	1	0	0.912332057953	-7.0	-353.0	-8	-351	1
1.7	2015_Aug_11_1556	s	s	20	1	SIC	61	ABS	2	0	24VC	0	1	1.03053188324	None	None	None	None	1
1.7	2015_Aug_11_1556	s	s	20	1	SIC	62	ABS	0	2	24RD	0	1	4.32582902908	None	None	None	None	1
1.7	2015_Aug_11_1556	s	s	20	1	SIC	63	RC	2	2	23VD	1	0	0.7243039608	151.0	274.0	142	277	1
1.7	2015_Aug_11_1556	s	s	20	1	SIC	64	ABS	1	2	24MD	0	1	1.1763689518	None	None	None	None	1
1.7	2015_Aug_11_1556	s	s	20	1	SIC	65	ABS	0	2	24RD	0	1	2.20735216141	None	None	None	None	1
1.7	2015_Aug_11_1556	s	s	20	1	SIC	66	RC	2	2	23VD	1	0	0.759340047836	-113.0	-193.0	-112	-189	1
1.7	2015_Aug_11_1556	s	s	20	1	SIC	67	RC	0	1	23RO	1	0	1.34811592102	105.0	105.0	98	103	1
1.7	2015_Aug_11_1556	s	s	20	1	SIC	68	ABS	1	1	24MO	0	1	2.22402191162	None	None	None	None	1
1.7	2015_Aug_11_1556	s	s	20	1	SIC	69	ABS	2	2	24VD	0	1	1.3007748127	None	None	None	None	1
1.7	2015_Aug_11_1556	s	s	20	1	SIC	70	ABS	1	2	24MD	0	1	1.70606517792	None	None	None	None	1
1.7	2015_Aug_11_1556	s	s	20	1	SIC	71	ABS	0	1	24RO	0	1	3.9845161438	None	None	None	None	1
1.7	2015_Aug_11_1556	s	s	20	1	SIC	72	ABS	2	1	24VO	0	1	0.912526845932	None	None	None	None	1
1.7	2015_Aug_11_1556	s	s	20	1	SIC	73	RC	1	1	23MO	1	0	1.31291913986	331.0	203.0	334	204	1
1.7	2015_Aug_11_1556	s	s	20	1	SIC	74	RC	1	2	23MD	1	0	0.665224075317	90.0	117.0	93	113	1
1.7	2015_Aug_11_1556	s	s	20	1	SIC	75	RC	0	2	23RD	1	0	0.658509969711	-272.0	202.0	-268	197	1
1.7	2015_Aug_11_1556	s	s	20	1	SIC	76	ABS	2	0	24VC	0	1	1.08847308159	None	None	None	None	1
1.7	2015_Aug_11_1556	s	s	20	1	SIC	77	ABS	1	0	24MC	0	1	7.6269068718	None	None	None	None	1
1.7	2015_Aug_11_1556	s	s	20	1	SIC	78	RC	1	0	23MC	1	0	1.03030800819	374.0	234.0	374	237	1
1.7	2015_Aug_11_1556	s	s	20	1	SIC	79	RC	2	1	23VO	1	0	0.57609796524	-143.0	-67.0	-144	-72	1
1.7	2015_Aug_11_1556	s	s	20	1	SIC	80	RC	2	0	23VC	1	0	0.652088880539	-482.0	-81.0	-481	-82	1
1.7	2015_Aug_11_1556	s	s	20	1	SIC	81	ABS	1	0	24MC	0	1	1.81206297874	None	None	None	None	1
1.7	2015_Aug_11_1556	s	s	20	1	SIC	82	RC	2	0	23VC	1	0	0.630167007446	-292.0	280.0	-298	275	1
1.7	2015_Aug_11_1556	s	s	20	1	SIC	83	ABS	0	1	24RO	0	1	4.72738003731	None	None	None	None	1
1.7	2015_Aug_11_1556	s	s	20	1	SIC	84	ABS	2	0	24VC	0	1	0.947824001312	None	None	None	None	1
1.7	2015_Aug_11_1556	s	s	20	1	SIC	85	ABS	2	1	24VO	0	1	0.776165962219	None	None	None	None	1
1.7	2015_Aug_11_1556	s	s	20	1	SIC	86	ABS	1	1	24MO	0	1	6.75565195084	None	None	None	None	1
1.7	2015_Aug_11_1556	s	s	20	1	SIC	87	ABS	0	2	24RD	0	1	2.15007209778	None	None	None	None	1
1.7	2015_Aug_11_1556	s	s	20	1	SIC	88	RC	0	2	23RD	1	0	0.729105949402	-170.0	152.0	-166	154	1
1.7	2015_Aug_11_1556	s	s	20	1	SIC	89	ABS	2	2	24VD	0	1	1.56485104561	None	None	None	None	1
1.7	2015_Aug_11_1556	s	s	20	1	SIC	90	RC	2	2	23VD	1	0	0.677001953125	-269.0	-197.0	-265	-189	1
1.7	2015_Aug_11_1556	s	s	20	1	SIC	91	RC	2	1	23VO	1	0	1.00021600723	448.0	-36.0	447	-39	1
1.7	2015_Aug_11_1556	s	s	20	1	SIC	92	RC	0	1	23RO	1	0	1.21174693108	370.0	-76.0	379	-76	1
1.7	2015_Aug_11_1556	s	s	20	1	SIC	93	RC	1	0	23MC	1	0	0.619626045227	451.0	-327.0	451	-331	1
1.7	2015_Aug_11_1556	s	s	20	1	SIC	94	RC	1	1	23MO	1	0	0.700569868088	423.0	30.0	420	31	1
1.7	2015_Aug_11_1556	s	s	20	1	SIC	95	ABS	1	2	24MD	0	1	1.18211221695	None	None	None	None	1
1.7	2015_Aug_11_1556	s	s	20	1	SIC	96	RC	1	2	23MD	1	0	0.59969997406	393.0	155.0	388	156	1
1.7	2015_Aug_11_1556	s	s	20	1	SIC	97	RC	2	2	23VD	1	0	0.458367824554	-423.0	71.0	-427	70	1
1.7	2015_Aug_11_1556	s	s	20	1	SIC	98	RC	1	0	23MC	1	0	1.03508210182	498.0	164.0	498	167	1
1.7	2015_Aug_11_1556	s	s	20	1	SIC	99	ABS	2	1	24VO	0	1	1.50599193573	None	None	None	None	1
1.7	2015_Aug_11_1556	s	s	20	1	SIC	100	RC	0	1	23RO	1	0	1.09406781197	-421.0	312.0	-415	316	1
1.7	2015_Aug_11_1556	s	s	20	1	SIC	101	RC	0	2	23RD	1	0	0.641654014587	458.0	-88.0	460	-89	1
1.7	2015_Aug_11_1556	s	s	20	1	SIC	102	ABS	1	0	24MC	0	1	2.99583697319	None	None	None	None	1
1.7	2015_Aug_11_1556	s	s	20	1	SIC	103	ABS	1	1	24MO	0	1	2.45466589928	None	None	None	None	1
1.7	2015_Aug_11_1556	s	s	20	1	SIC	104	ABS	2	2	24VD	0	1	0.929211139679	None	None	None	None	1
1.7	2015_Aug_11_1556	s	s	20	1	SIC	105	ABS	0	1	24RO	0	1	5.09598898888	None	None	None	None	1
1.7	2015_Aug_11_1556	s	s	20	1	SIC	106	RC	1	2	23MD	1	0	0.75269317627	-315.0	-196.0	-315	-192	1
1.7	2015_Aug_11_1556	s	s	20	1	SIC	107	ABS	0	2	24RD	0	1	2.22398710251	None	None	None	None	1
1.7	2015_Aug_11_1556	s	s	20	1	SIC	108	ABS	1	2	24MD	0	1	1.37144994736	None	None	None	None	1
1.7	2015_Aug_11_1556	s	s	20	1	SIC	109	RC	1	1	23MO	1	0	0.677135944366	284.0	-126.0	288	-123	1
1.7	2015_Aug_11_1556	s	s	20	1	SIC	110	RC	2	1	23VO	1	0	0.936127901077	-157.0	-358.0	-159	-358	1
1.7	2015_Aug_11_1556	s	s	20	1	SIC	111	RC	2	0	23VC	1	0	0.524076938629	-363.0	-94.0	-361	-87	1
1.7	2015_Aug_11_1556	s	s	20	1	SIC	112	ABS	2	0	24VC	0	1	0.95276594162	None	None	None	None	1
1.7	2015_Aug_11_1556	s	s	20	1	SIC	113	RC	2	0	23VC	1	0	0.594810962677	-196.0	-319.0	-193	-322	1
1.7	2015_Aug_11_1556	s	s	20	1	SIC	114	ABS	1	2	24MD	0	1	0.900923013687	None	None	None	None	1
1.7	2015_Aug_11_1556	s	s	20	1	SIC	115	RC	2	1	23VO	1	0	0.747483968735	311.0	208.0	312	212	1
1.7	2015_Aug_11_1556	s	s	20	1	SIC	116	RC	1	1	23MO	1	0	1.5177628994	-131.0	-228.0	-134	-232	1
1.7	2015_Aug_11_1556	s	s	20	1	SIC	117	RC	0	2	23RD	1	0	0.682074069977	53.0	233.0	48	224	1
1.7	2015_Aug_11_1556	s	s	20	1	SIC	118	ABS	2	2	24VD	0	1	0.617240905762	None	None	None	None	1
1.7	2015_Aug_11_1556	s	s	20	1	SIC	119	ABS	1	0	24MC	0	1	3.90713000298	None	None	None	None	1
1.7	2015_Aug_11_1556	s	s	20	1	SIC	120	RC	1	0	23MC	1	0	0.676879882812	292.0	-89.0	291	-86	1
1.7	2015_Aug_11_1556	s	s	20	1	SIC	121	ABS	1	1	24MO	0	1	1.51778006554	None	None	None	None	1
1.7	2015_Aug_11_1556	s	s	20	1	SIC	122	RC	0	1	23RO	0	1	2.44271492958	-507.0	-283.0	None	None	0
1.7	2015_Aug_11_1556	s	s	20	1	SIC	123	ABS	0	2	24RD	0	1	2.18416714668	None	None	None	None	1
1.7	2015_Aug_11_1556	s	s	20	1	SIC	124	ABS	0	1	24RO	0	1	2.87828993797	None	None	None	None	1
1.7	2015_Aug_11_1556	s	s	20	1	SIC	125	RC	2	2	23VD	1	0	1.13868498802	-432.0	-249.0	-431	-252	1
1.7	2015_Aug_11_1556	s	s	20	1	SIC	126	ABS	2	1	24VO	0	1	0.912390947342	None	None	None	None	1
1.7	2015_Aug_11_1556	s	s	20	1	SIC	127	ABS	2	0	24VC	0	1	1.11291694641	None	None	None	None	1
1.7	2015_Aug_11_1556	s	s	20	1	SIC	128	RC	1	2	23MD	1	0	0.61807513237	143.0	230.0	148	224	1
1.7	2015_Aug_11_1556	s	s	20	1	SIC	129	ABS	1	0	24MC	0	1	2.3723077774	None	None	None	None	1
1.7	2015_Aug_11_1556	s	s	20	1	SIC	130	ABS	2	1	24VO	0	1	0.853562116623	None	None	None	None	1
1.7	2015_Aug_11_1556	s	s	20	1	SIC	131	RC	0	2	23RD	1	0	0.634932041168	256.0	153.0	256	153	1
1.7	2015_Aug_11_1556	s	s	20	1	SIC	132	RC	1	0	23MC	1	0	1.61191797256	-16.0	-160.0	-20	-151	1
1.7	2015_Aug_11_1556	s	s	20	1	SIC	133	ABS	2	0	24VC	0	1	0.717179059982	None	None	None	None	1
1.7	2015_Aug_11_1556	s	s	20	1	SIC	134	ABS	0	2	24RD	0	1	2.18872117996	None	None	None	None	1
1.7	2015_Aug_11_1556	s	s	20	1	SIC	135	ABS	2	2	24VD	0	1	1.09405994415	None	None	None	None	1
1.7	2015_Aug_11_1556	s	s	20	1	SIC	136	RC	2	2	23VD	1	0	0.771162986755	-107.0	270.0	-109	273	1
1.7	2015_Aug_11_1556	s	s	20	1	SIC	137	RC	2	0	23VC	1	0	0.564404010773	338.0	-325.0	336	-328	1
1.7	2015_Aug_11_1556	s	s	20	1	SIC	138	ABS	0	1	24RO	0	1	3.76593899727	None	None	None	None	1
1.7	2015_Aug_11_1556	s	s	20	1	SIC	139	RC	0	1	23RO	1	0	1.41180920601	-112.0	397.0	-109	400	1
1.7	2015_Aug_11_1556	s	s	20	1	SIC	140	RC	1	2	23MD	1	0	0.587894916534	-196.0	-210.0	-200	-213	1
1.7	2015_Aug_11_1556	s	s	20	1	SIC	141	ABS	1	2	24MD	0	1	1.08227705956	None	None	None	None	1
1.7	2015_Aug_11_1556	s	s	20	1	SIC	142	RC	2	1	23VO	1	0	0.807588100433	-354.0	126.0	-348	124	1
1.7	2015_Aug_11_1556	s	s	20	1	SIC	143	RC	1	1	23MO	1	0	0.646708965302	-27.0	-79.0	-23	-76	1
1.7	2015_Aug_11_1556	s	s	20	1	SIC	144	ABS	1	1	24MO	0	1	2.08999896049	None	None	None	None	1
1.7	2015_Aug_11_1556	s	s	20	1	SIC	145	ABS	1	0	24MC	0	1	4.08379912376	None	None	None	None	1
1.7	2015_Aug_11_1556	s	s	20	1	SIC	146	RC	2	1	23VO	1	0	0.653371095657	-79.0	-164.0	-74	-158	1
1.7	2015_Aug_11_1556	s	s	20	1	SIC	147	ABS	2	1	24VO	0	1	0.799548864365	None	None	None	None	1
1.7	2015_Aug_11_1556	s	s	20	1	SIC	148	RC	0	1	23RO	0	1	1.44716596603	-487.0	335.0	None	None	0
1.7	2015_Aug_11_1556	s	s	20	1	SIC	149	RC	2	2	23VD	1	0	0.771085977554	-394.0	-17.0	-391	-18	1
1.7	2015_Aug_11_1556	s	s	20	1	SIC	150	ABS	2	0	24VC	0	1	0.682074069977	None	None	None	None	1
1.7	2015_Aug_11_1556	s	s	20	1	SIC	151	ABS	2	2	24VD	0	1	0.635030031204	None	None	None	None	1
1.7	2015_Aug_11_1556	s	s	20	1	SIC	152	RC	2	0	23VC	1	0	0.547501087189	-30.0	391.0	-32	389	1
1.7	2015_Aug_11_1556	s	s	20	1	SIC	153	ABS	1	2	24MD	0	1	1.14112901688	None	None	None	None	1
1.7	2015_Aug_11_1556	s	s	20	1	SIC	154	RC	0	2	23RD	1	0	0.599652051926	-143.0	192.0	-140	195	1
1.7	2015_Aug_11_1556	s	s	20	1	SIC	155	ABS	0	2	24RD	0	1	1.08207201958	None	None	None	None	1
1.7	2015_Aug_11_1556	s	s	20	1	SIC	156	ABS	1	1	24MO	0	1	3.08998990059	None	None	None	None	1
1.7	2015_Aug_11_1556	s	s	20	1	SIC	157	ABS	0	1	24RO	0	1	2.6360001564	None	None	None	None	1
1.7	2015_Aug_11_1556	s	s	20	1	SIC	158	RC	1	0	23MC	0	1	1.93856501579	94.0	-336.0	None	None	0
1.7	2015_Aug_11_1556	s	s	20	1	SIC	159	RC	1	2	23MD	1	0	0.594594955444	-103.0	-124.0	-98	-124	1
1.7	2015_Aug_11_1556	s	s	20	1	SIC	160	RC	1	1	23MO	1	0	1.44715285301	-540.0	-215.0	-549	-213	1
1.7	2015_Aug_11_1556	s	s	20	1	SIC	161	ABS	1	2	24MD	0	1	0.924124002457	None	None	None	None	1
1.7	2015_Aug_11_1556	s	s	20	1	SIC	162	RC	2	2	23VD	1	0	0.665241003036	316.0	-406.0	323	-405	1
1.7	2015_Aug_11_1556	s	s	20	1	SIC	163	ABS	2	2	24VD	0	1	0.736424922943	None	None	None	None	1
1.7	2015_Aug_11_1556	s	s	20	1	SIC	164	ABS	0	2	24RD	0	1	2.197742939	None	None	None	None	1
1.7	2015_Aug_11_1556	s	s	20	1	SIC	165	ABS	2	0	24VC	0	1	0.764387130737	None	None	None	None	1
1.7	2015_Aug_11_1556	s	s	20	1	SIC	166	RC	1	0	23MC	1	0	0.94096493721	64.0	-112.0	69	-116	1
1.7	2015_Aug_11_1556	s	s	20	1	SIC	167	RC	2	1	23VO	1	0	0.594472169876	-415.0	-224.0	-420	-223	1
1.7	2015_Aug_11_1556	s	s	20	1	SIC	168	RC	1	1	23MO	1	0	0.552576065063	398.0	31.0	389	28	1
1.7	2015_Aug_11_1556	s	s	20	1	SIC	169	ABS	1	1	24MO	0	1	1.57663393021	None	None	None	None	1
1.7	2015_Aug_11_1556	s	s	20	1	SIC	170	ABS	2	1	24VO	0	1	0.653506994247	None	None	None	None	1
1.7	2015_Aug_11_1556	s	s	20	1	SIC	171	RC	0	1	23RO	0	1	1.7649409771	434.0	362.0	None	None	0
1.7	2015_Aug_11_1556	s	s	20	1	SIC	172	RC	0	2	23RD	1	0	0.618273973465	379.0	-258.0	386	-257	1
1.7	2015_Aug_11_1556	s	s	20	1	SIC	173	ABS	1	0	24MC	1	0	1.31304502487	None	None	271	229	0
1.7	2015_Aug_11_1556	s	s	20	1	SIC	174	RC	1	2	23MD	1	0	0.936052083969	222.0	-393.0	217	-384	1
1.7	2015_Aug_11_1556	s	s	20	1	SIC	175	RC	2	0	23VC	1	0	0.641683101654	-368.0	333.0	-368	333	1
1.7	2015_Aug_11_1556	s	s	20	1	SIC	176	ABS	0	1	24RO	0	1	5.12640810013	None	None	None	None	1
1.7	2015_Aug_11_1556	s	s	20	1	SIC	177	ABS	0	2	24RD	0	1	2.3015499115	None	None	None	None	1
1.7	2015_Aug_11_1556	s	s	20	1	SIC	178	RC	2	2	23VD	1	0	0.830036878586	343.0	-223.0	348	-223	1
1.7	2015_Aug_11_1556	s	s	20	1	SIC	179	RC	2	1	23VO	1	0	0.617936134338	-67.0	-183.0	-66	-183	1
1.7	2015_Aug_11_1556	s	s	20	1	SIC	180	RC	0	2	23RD	1	0	0.888146877289	-447.0	-407.0	-449	-412	1
1.7	2015_Aug_11_1556	s	s	20	1	SIC	181	RC	1	0	23MC	1	0	0.806332826614	-455.0	-137.0	-458	-132	1
1.7	2015_Aug_11_1556	s	s	20	1	SIC	182	RC	0	1	23RO	0	1	1.87107682228	-366.0	203.0	None	None	0
1.7	2015_Aug_11_1556	s	s	20	1	SIC	183	ABS	0	1	24RO	0	1	4.50784516335	None	None	None	None	1
1.7	2015_Aug_11_1556	s	s	20	1	SIC	184	RC	1	1	23MO	1	0	2.0647251606	115.0	346.0	122	346	1
1.7	2015_Aug_11_1556	s	s	20	1	SIC	185	RC	2	0	23VC	1	0	0.524079084396	-295.0	-193.0	-293	-188	1
1.7	2015_Aug_11_1556	s	s	20	1	SIC	186	ABS	1	1	24MO	0	1	2.84783887863	None	None	None	None	1
1.7	2015_Aug_11_1556	s	s	20	1	SIC	187	RC	1	2	23MD	1	0	0.735424041748	236.0	33.0	239	35	1
1.7	2015_Aug_11_1556	s	s	20	1	SIC	188	ABS	1	0	24MC	0	1	1.87814378738	None	None	None	None	1
1.7	2015_Aug_11_1556	s	s	20	1	SIC	189	ABS	2	1	24VO	0	1	0.747804164886	None	None	None	None	1
1.7	2015_Aug_11_1556	s	s	20	1	SIC	190	ABS	2	0	24VC	0	1	1.02334094048	None	None	None	None	1
1.7	2015_Aug_11_1556	s	s	20	1	SIC	191	ABS	2	2	24VD	0	1	1.24375319481	None	None	None	None	1
1.7	2015_Aug_11_1556	s	s	20	1	SIC	192	ABS	1	2	24MD	0	1	1.67080593109	None	None	None	None	1
1.7	2015_Aug_11_1556	s	s	20	1	SIC	193	RC	2	0	23VC	1	0	0.788045883179	-376.0	41.0	-369	41	1
1.7	2015_Aug_11_1556	s	s	20	1	SIC	194	ABS	0	1	24RO	0	1	2.7889919281	None	None	None	None	1
1.7	2015_Aug_11_1556	s	s	20	1	SIC	195	RC	0	1	23RO	1	0	1.14771795273	434.0	16.0	434	12	1
1.7	2015_Aug_11_1556	s	s	20	1	SIC	196	RC	2	2	23VD	1	0	0.61830997467	356.0	245.0	358	249	1
1.7	2015_Aug_11_1556	s	s	20	1	SIC	197	ABS	1	0	24MC	0	1	2.83116817474	None	None	None	None	1
1.7	2015_Aug_11_1556	s	s	20	1	SIC	198	RC	1	1	23MO	1	0	1.57688307762	-305.0	-209.0	-310	-207	1
1.7	2015_Aug_11_1556	s	s	20	1	SIC	199	ABS	2	0	24VC	0	1	1.21179699898	None	None	None	None	1
1.7	2015_Aug_11_1556	s	s	20	1	SIC	200	ABS	0	2	24RD	0	1	2.05930614471	None	None	None	None	1
1.7	2015_Aug_11_1556	s	s	20	1	SIC	201	ABS	1	2	24MD	0	1	1.21841812134	None	None	None	None	1
1.7	2015_Aug_11_1556	s	s	20	1	SIC	202	ABS	2	2	24VD	0	1	1.35027813911	None	None	None	None	1
1.7	2015_Aug_11_1556	s	s	20	1	SIC	203	ABS	2	1	24VO	0	1	1.27055501938	None	None	None	None	1
1.7	2015_Aug_11_1556	s	s	20	1	SIC	204	RC	2	1	23VO	1	0	0.646687030792	370.0	-389.0	383	-380	1
1.7	2015_Aug_11_1556	s	s	20	1	SIC	205	ABS	1	1	24MO	0	1	3.47846293449	None	None	None	None	1
1.7	2015_Aug_11_1556	s	s	20	1	SIC	206	RC	0	2	23RD	1	0	1.21158385277	329.0	369.0	326	372	1
1.7	2015_Aug_11_1556	s	s	20	1	SIC	207	RC	1	2	23MD	1	0	0.829924106598	-134.0	278.0	-133	274	1
1.7	2015_Aug_11_1556	s	s	20	1	SIC	208	RC	1	0	23MC	1	0	2.24756097794	129.0	-338.0	119	-333	1
1.7	2015_Aug_11_1556	s	s	20	1	SIC	209	RC	0	2	23RD	1	0	0.678863048553	351.0	93.0	354	95	1
1.7	2015_Aug_11_1556	s	s	20	1	SIC	210	ABS	2	2	24VD	0	1	0.599663972855	None	None	None	None	1
1.7	2015_Aug_11_1556	s	s	20	1	SIC	211	ABS	1	1	24MO	0	1	4.13086509705	None	None	None	None	1
1.7	2015_Aug_11_1556	s	s	20	1	SIC	212	RC	0	1	23RO	1	0	1.47444987297	200.0	124.0	205	124	1
1.7	2015_Aug_11_1556	s	s	20	1	SIC	213	RC	2	2	23VD	1	0	0.57970905304	30.0	-369.0	33	-368	1
1.7	2015_Aug_11_1556	s	s	20	1	SIC	214	RC	1	2	23MD	1	0	0.618271827698	170.0	-177.0	177	-179	1
1.7	2015_Aug_11_1556	s	s	20	1	SIC	215	ABS	0	1	24RO	0	1	6.39925408363	None	None	None	None	1
1.7	2015_Aug_11_1556	s	s	20	1	SIC	216	ABS	0	2	24RD	0	1	3.11403393745	None	None	None	None	1
1.7	2015_Aug_11_1556	s	s	20	1	SIC	217	RC	2	0	23VC	1	0	0.717380046844	-126.0	-254.0	-130	-250	1
1.7	2015_Aug_11_1556	s	s	20	1	SIC	218	ABS	1	2	24MD	0	1	1.07755303383	None	None	None	None	1
1.7	2015_Aug_11_1556	s	s	20	1	SIC	219	RC	1	0	23MC	1	0	2.68991112709	-389.0	-69.0	-384	-67	1
1.7	2015_Aug_11_1556	s	s	20	1	SIC	220	RC	1	1	23MO	1	0	0.75931096077	-509.0	-204.0	-510	-203	1
1.7	2015_Aug_11_1556	s	s	20	1	SIC	221	ABS	2	1	24VO	0	1	0.737480163574	None	None	None	None	1
1.7	2015_Aug_11_1556	s	s	20	1	SIC	222	ABS	1	0	24MC	0	1	2.6546061039	None	None	None	None	1
1.7	2015_Aug_11_1556	s	s	20	1	SIC	223	RC	2	1	23VO	1	0	0.665449142456	-518.0	191.0	-526	195	1
1.7	2015_Aug_11_1556	s	s	20	1	SIC	224	ABS	2	0	24VC	0	1	0.917405843735	None	None	None	None	1
1.7	2015_Aug_11_1556	s	s	20	1	SIC	225	RC	0	2	23RD	1	0	0.830112934113	352.0	-58.0	358	-59	1
1.7	2015_Aug_11_1556	s	s	20	1	SIC	226	RC	2	2	23VD	1	0	0.517236948013	448.0	-66.0	451	-71	1
1.7	2015_Aug_11_1556	s	s	20	1	SIC	227	ABS	2	1	24VO	0	1	0.888878107071	None	None	None	None	1
1.7	2015_Aug_11_1556	s	s	20	1	SIC	228	RC	2	1	23VO	1	0	0.626795053482	143.0	218.0	142	222	1
1.7	2015_Aug_11_1556	s	s	20	1	SIC	229	ABS	0	2	24RD	0	1	1.95986318588	None	None	None	None	1
1.7	2015_Aug_11_1556	s	s	20	1	SIC	230	RC	1	1	23MO	1	0	0.964569807053	273.0	172.0	276	176	1
1.7	2015_Aug_11_1556	s	s	20	1	SIC	231	ABS	1	1	24MO	0	1	4.96164512634	None	None	None	None	1
1.7	2015_Aug_11_1556	s	s	20	1	SIC	232	ABS	2	2	24VD	0	1	0.665277004242	None	None	None	None	1
1.7	2015_Aug_11_1556	s	s	20	1	SIC	233	ABS	1	0	24MC	0	1	4.03165388107	None	None	None	None	1
1.7	2015_Aug_11_1556	s	s	20	1	SIC	234	ABS	2	0	24VC	0	1	0.677001953125	None	None	None	None	1
1.7	2015_Aug_11_1556	s	s	20	1	SIC	235	ABS	1	2	24MD	0	1	2.05297017097	None	None	None	None	1
1.7	2015_Aug_11_1556	s	s	20	1	SIC	236	RC	1	2	23MD	1	0	0.717390060425	526.0	151.0	527	149	1
1.7	2015_Aug_11_1556	s	s	20	1	SIC	237	ABS	0	1	24RO	0	1	4.26031398773	None	None	None	None	1
1.7	2015_Aug_11_1556	s	s	20	1	SIC	238	RC	2	0	23VC	1	0	0.764456987381	-94.0	188.0	-88	191	1
1.7	2015_Aug_11_1556	s	s	20	1	SIC	239	RC	1	0	23MC	1	0	2.73696208	-407.0	-281.0	-415	-281	1
1.7	2015_Aug_11_1556	s	s	20	1	SIC	240	RC	0	1	23RO	1	0	3.96136498451	98.0	-275.0	99	-273	1
1.7	2015_Aug_11_1556	s	s	20	1	SIC	241	ABS	1	1	24MO	0	1	3.96121311188	None	None	None	None	1
1.7	2015_Aug_11_1556	s	s	20	1	SIC	242	ABS	0	2	24RD	0	1	1.75960206985	None	None	None	None	1
1.7	2015_Aug_11_1556	s	s	20	1	SIC	243	RC	2	2	23VD	1	0	1.058562994	171.0	-187.0	167	-189	1
1.7	2015_Aug_11_1556	s	s	20	1	SIC	244	ABS	2	0	24VC	0	1	1.01532387733	None	None	None	None	1
1.7	2015_Aug_11_1556	s	s	20	1	SIC	245	RC	1	2	23MD	1	0	0.853526830673	176.0	295.0	178	296	1
1.7	2015_Aug_11_1556	s	s	20	1	SIC	246	RC	2	0	23VC	1	0	0.831123828888	-453.0	409.0	-456	409	1
1.7	2015_Aug_11_1556	s	s	20	1	SIC	247	RC	1	1	23MO	1	0	1.08225607872	451.0	373.0	455	378	1
1.7	2015_Aug_11_1556	s	s	20	1	SIC	248	RC	1	0	23MC	1	0	1.27751207352	379.0	383.0	381	389	1
1.7	2015_Aug_11_1556	s	s	20	1	SIC	249	ABS	1	0	24MC	1	0	1.05565309525	None	None	437	272	0
1.7	2015_Aug_11_1556	s	s	20	1	SIC	250	ABS	0	1	24RO	0	1	2.91512680054	None	None	None	None	1
1.7	2015_Aug_11_1556	s	s	20	1	SIC	251	ABS	2	1	24VO	0	1	1.01161503792	None	None	None	None	1
1.7	2015_Aug_11_1556	s	s	20	1	SIC	252	ABS	1	2	24MD	0	1	1.1645989418	None	None	None	None	1
1.7	2015_Aug_11_1556	s	s	20	1	SIC	253	RC	2	1	23VO	1	0	0.95285820961	230.0	306.0	237	302	1
1.7	2015_Aug_11_1556	s	s	20	1	SIC	254	RC	0	1	23RO	0	1	3.07139396667	-134.0	-23.0	None	None	0
1.7	2015_Aug_11_1556	s	s	20	1	SIC	255	RC	0	2	23RD	1	0	0.658556938171	-457.0	249.0	-451	252	1
1.7	2015_Aug_11_1556	s	s	20	1	SIC	256	ABS	2	2	24VD	0	1	0.858529806137	None	None	None	None	1
1.7	2015_Aug_11_1556	s	s	20	1	SIC	257	ABS	2	2	24VD	0	1	1.15313601494	None	None	None	None	1
1.7	2015_Aug_11_1556	s	s	20	1	SIC	258	RC	1	0	23MC	1	0	1.43046998978	-416.0	272.0	-421	278	1
1.7	2015_Aug_11_1556	s	s	20	1	SIC	259	ABS	1	1	24MO	0	1	1.736328125	None	None	None	None	1
1.7	2015_Aug_11_1556	s	s	20	1	SIC	260	RC	1	2	23MD	1	0	0.735814094543	82.0	-350.0	88	-348	1
1.7	2015_Aug_11_1556	s	s	20	1	SIC	261	RC	2	1	23VO	1	0	0.505446910858	-254.0	175.0	-252	174	1
1.7	2015_Aug_11_1556	s	s	20	1	SIC	262	ABS	0	2	24RD	0	1	1.95321702957	None	None	None	None	1
1.7	2015_Aug_11_1556	s	s	20	1	SIC	263	RC	0	1	23RO	1	0	2.03329014778	384.0	-381.0	387	-382	1
1.7	2015_Aug_11_1556	s	s	20	1	SIC	264	ABS	1	2	24MD	0	1	1.80698513985	None	None	None	None	1
1.7	2015_Aug_11_1556	s	s	20	1	SIC	265	RC	0	2	23RD	1	0	0.576148033142	464.0	74.0	470	75	1
1.7	2015_Aug_11_1556	s	s	20	1	SIC	266	ABS	1	0	24MC	0	1	1.71306300163	None	None	None	None	1
1.7	2015_Aug_11_1556	s	s	20	1	SIC	267	ABS	2	0	24VC	0	1	1.19480800629	None	None	None	None	1
1.7	2015_Aug_11_1556	s	s	20	1	SIC	268	ABS	0	1	24RO	0	1	2.56090807915	None	None	None	None	1
1.7	2015_Aug_11_1556	s	s	20	1	SIC	269	RC	2	2	23VD	1	0	0.693833827972	-359.0	-301.0	-359	-305	1
1.7	2015_Aug_11_1556	s	s	20	1	SIC	270	RC	1	1	23MO	1	0	2.52456998825	-5.0	-184.0	-7	-182	1
1.7	2015_Aug_11_1556	s	s	20	1	SIC	271	RC	2	0	23VC	1	0	0.658529996872	-203.0	-58.0	-196	-63	1
1.7	2015_Aug_11_1556	s	s	20	1	SIC	272	ABS	2	1	24VO	0	1	0.799740076065	None	None	None	None	1
1.7	2015_Aug_11_1556	s	s	20	1	SIC	273	ABS	0	1	24RO	0	1	2.95381402969	None	None	None	None	1
1.7	2015_Aug_11_1556	s	s	20	1	SIC	274	RC	0	2	23RD	1	0	0.761992931366	-137.0	-44.0	-138	-44	1
1.7	2015_Aug_11_1556	s	s	20	1	SIC	275	ABS	2	1	24VO	0	1	0.72639298439	None	None	None	None	1
1.7	2015_Aug_11_1556	s	s	20	1	SIC	276	ABS	2	0	24VC	0	1	0.68909406662	None	None	None	None	1
1.7	2015_Aug_11_1556	s	s	20	1	SIC	277	RC	2	0	23VC	1	0	0.594550132751	132.0	320.0	129	322	1
1.7	2015_Aug_11_1556	s	s	20	1	SIC	278	RC	2	1	23VO	1	0	0.540778875351	-51.0	218.0	-48	221	1
1.7	2015_Aug_11_1556	s	s	20	1	SIC	279	ABS	0	2	24RD	0	1	1.39354610443	None	None	None	None	1
1.7	2015_Aug_11_1556	s	s	20	1	SIC	280	ABS	1	1	24MO	0	1	1.61204195023	None	None	None	None	1
1.7	2015_Aug_11_1556	s	s	20	1	SIC	281	ABS	1	0	24MC	0	1	2.26464819908	None	None	None	None	1
1.7	2015_Aug_11_1556	s	s	20	1	SIC	282	RC	2	2	23VD	1	0	0.700680017471	394.0	-46.0	387	-43	1
1.7	2015_Aug_11_1556	s	s	20	1	SIC	283	RC	0	1	23RO	1	0	1.46473693848	-75.0	-76.0	-70	-75	1
1.7	2015_Aug_11_1556	s	s	20	1	SIC	284	RC	1	1	23MO	1	0	1.47067213058	-368.0	50.0	-373	50	1
1.7	2015_Aug_11_1556	s	s	20	1	SIC	285	ABS	2	2	24VD	0	1	0.752686023712	None	None	None	None	1
1.7	2015_Aug_11_1556	s	s	20	1	SIC	286	RC	1	2	23MD	1	0	0.642237901688	66.0	280.0	69	285	1
1.7	2015_Aug_11_1556	s	s	20	1	SIC	287	RC	1	0	23MC	1	0	0.876931190491	539.0	-212.0	540	-214	1
1.7	2015_Aug_11_1556	s	s	20	1	SIC	288	ABS	1	2	24MD	0	1	1.14793896675	None	None	None	None	1
1.7	2015_Aug_11_1556	s	s	20	1	SIC	289	RC	2	1	23VO	1	0	0.587848901749	-522.0	79.0	-527	81	1
1.7	2015_Aug_11_1556	s	s	20	1	SIC	290	ABS	2	0	24VC	0	1	1.15294003487	None	None	None	None	1
1.7	2015_Aug_11_1556	s	s	20	1	SIC	291	ABS	0	2	24RD	0	1	1.764991045	None	None	None	None	1
1.7	2015_Aug_11_1556	s	s	20	1	SIC	292	ABS	1	2	24MD	0	1	1.21166801453	None	None	None	None	1
1.7	2015_Aug_11_1556	s	s	20	1	SIC	293	ABS	1	1	24MO	0	1	3.2076420784	None	None	None	None	1
1.7	2015_Aug_11_1556	s	s	20	1	SIC	294	RC	1	0	23MC	1	0	2.82432103157	423.0	-288.0	430	-283	1
1.7	2015_Aug_11_1556	s	s	20	1	SIC	295	RC	1	1	23MO	1	0	1.26563501358	65.0	-383.0	65	-383	1
1.7	2015_Aug_11_1556	s	s	20	1	SIC	296	ABS	0	1	24RO	0	1	4.21323609352	None	None	None	None	1
1.7	2015_Aug_11_1556	s	s	20	1	SIC	297	ABS	2	1	24VO	0	1	1.74831104279	None	None	None	None	1
1.7	2015_Aug_11_1556	s	s	20	1	SIC	298	RC	1	2	23MD	1	0	0.86671090126	375.0	-344.0	381	-344	1
1.7	2015_Aug_11_1556	s	s	20	1	SIC	299	RC	0	1	23RO	1	0	2.22392106056	324.0	15.0	313	18	1
1.7	2015_Aug_11_1556	s	s	20	1	SIC	300	RC	2	2	23VD	1	0	0.587871074677	259.0	-249.0	266	-248	1
1.7	2015_Aug_11_1556	s	s	20	1	SIC	301	ABS	2	2	24VD	0	1	0.646754026413	None	None	None	None	1
1.7	2015_Aug_11_1556	s	s	20	1	SIC	302	RC	0	2	23RD	1	0	0.623126983643	374.0	-76.0	378	-76	1
1.7	2015_Aug_11_1556	s	s	20	1	SIC	303	ABS	1	0	24MC	0	1	2.98540711403	None	None	None	None	1
1.7	2015_Aug_11_1556	s	s	20	1	SIC	304	RC	2	0	23VC	1	0	0.642086982727	99.0	-113.0	106	-115	1
1.7	2015_Aug_11_1556	s	s	20	1	SIC	305	ABS	2	1	24VO	0	1	0.670320987701	None	None	None	None	1
1.7	2015_Aug_11_1556	s	s	20	1	SIC	306	RC	2	2	23VD	1	0	0.465310096741	-29.0	-20.0	-27	-24	1
1.7	2015_Aug_11_1556	s	s	20	1	SIC	307	RC	1	1	23MO	1	0	1.65899610519	528.0	-141.0	533	-139	1
1.7	2015_Aug_11_1556	s	s	20	1	SIC	308	RC	2	0	23VC	1	0	0.646716833115	-196.0	-163.0	-197	-162	1
1.7	2015_Aug_11_1556	s	s	20	1	SIC	309	ABS	1	2	24MD	0	1	0.929086923599	None	None	None	None	1
1.7	2015_Aug_11_1556	s	s	20	1	SIC	310	ABS	1	1	24MO	0	1	1.64360189438	None	None	None	None	1
1.7	2015_Aug_11_1556	s	s	20	1	SIC	311	ABS	0	1	24RO	0	1	2.25348210335	None	None	None	None	1
1.7	2015_Aug_11_1556	s	s	20	1	SIC	312	ABS	0	2	24RD	0	1	1.0940580368	None	None	None	None	1
1.7	2015_Aug_11_1556	s	s	20	1	SIC	313	ABS	2	2	24VD	0	1	0.676779985428	None	None	None	None	1
1.7	2015_Aug_11_1556	s	s	20	1	SIC	314	ABS	2	0	24VC	0	1	0.604657888412	None	None	None	None	1
1.7	2015_Aug_11_1556	s	s	20	1	SIC	315	RC	2	1	23VO	1	0	0.559301137924	-519.0	32.0	-517	29	1
1.7	2015_Aug_11_1556	s	s	20	1	SIC	316	RC	0	2	23RD	1	0	0.606324911118	327.0	188.0	323	189	1
1.7	2015_Aug_11_1556	s	s	20	1	SIC	317	RC	1	2	23MD	1	0	0.641723871231	208.0	-404.0	210	-404	1
1.7	2015_Aug_11_1556	s	s	20	1	SIC	318	RC	0	1	23RO	1	0	3.10186719894	-221.0	280.0	-221	279	1
1.7	2015_Aug_11_1556	s	s	20	1	SIC	319	RC	1	0	23MC	1	0	1.24696993828	325.0	-371.0	328	-368	1
1.7	2015_Aug_11_1556	s	s	20	1	SIC	320	ABS	1	0	24MC	0	1	2.98342299461	None	None	None	None	1
1.7	2015_Aug_11_1556	s	s	20	1	SIC	321	ABS	2	1	24VO	0	1	0.693854093552	None	None	None	None	1
1.7	2015_Aug_11_1556	s	s	20	1	SIC	322	ABS	1	0	24MC	0	1	3.21276712418	None	None	None	None	1
1.7	2015_Aug_11_1556	s	s	20	1	SIC	323	RC	0	1	23RO	1	0	2.05926203728	407.0	-88.0	408	-88	1
1.7	2015_Aug_11_1556	s	s	20	1	SIC	324	ABS	0	2	24RD	0	1	2.03569507599	None	None	None	None	1
1.7	2015_Aug_11_1556	s	s	20	1	SIC	325	RC	1	2	23MD	1	0	0.587817907333	390.0	309.0	394	309	1
1.7	2015_Aug_11_1556	s	s	20	1	SIC	326	RC	0	2	23RD	1	0	0.820428848267	256.0	-76.0	251	-73	1
1.7	2015_Aug_11_1556	s	s	20	1	SIC	327	RC	2	0	23VC	1	0	0.700613975525	-428.0	-314.0	-434	-314	1
1.7	2015_Aug_11_1556	s	s	20	1	SIC	328	ABS	1	1	24MO	0	1	3.98615717888	None	None	None	None	1
1.7	2015_Aug_11_1556	s	s	20	1	SIC	329	ABS	2	0	24VC	0	1	1.2587890625	None	None	None	None	1
1.7	2015_Aug_11_1556	s	s	20	1	SIC	330	ABS	1	2	24MD	0	1	1.67078399658	None	None	None	None	1
1.7	2015_Aug_11_1556	s	s	20	1	SIC	331	RC	2	2	23VD	1	0	0.529100179672	178.0	-334.0	176	-334	1
1.7	2015_Aug_11_1556	s	s	20	1	SIC	332	ABS	2	2	24VD	0	1	0.729079008102	None	None	None	None	1
1.7	2015_Aug_11_1556	s	s	20	1	SIC	333	RC	1	1	23MO	1	0	0.811481952667	138.0	-346.0	143	-349	1
1.7	2015_Aug_11_1556	s	s	20	1	SIC	334	ABS	0	1	24RO	0	1	4.00123381615	None	None	None	None	1
1.7	2015_Aug_11_1556	s	s	20	1	SIC	335	RC	1	0	23MC	1	0	0.54853105545	-6.0	87.0	-6	82	1
1.7	2015_Aug_11_1556	s	s	20	1	SIC	336	RC	2	1	23VO	1	0	0.494068861008	15.0	-409.0	19	-409	1
1.7	2015_Aug_11_1556	s	s	20	1	SIC	337	ABS	0	2	24RD	0	1	1.45883488655	None	None	None	None	1
1.7	2015_Aug_11_1556	s	s	20	1	SIC	338	ABS	2	2	24VD	0	1	0.634994029999	None	None	None	None	1
1.7	2015_Aug_11_1556	s	s	20	1	SIC	339	ABS	2	0	24VC	0	1	0.959586143494	None	None	None	None	1
1.7	2015_Aug_11_1556	s	s	20	1	SIC	340	RC	2	2	23VD	1	0	0.670400857925	523.0	-117.0	525	-121	1
1.7	2015_Aug_11_1556	s	s	20	1	SIC	341	ABS	2	1	24VO	0	1	0.608876943588	None	None	None	None	1
1.7	2015_Aug_11_1556	s	s	20	1	SIC	342	ABS	1	1	24MO	0	1	3.53783202171	None	None	None	None	1
1.7	2015_Aug_11_1556	s	s	20	1	SIC	343	RC	2	1	23VO	1	0	0.559498071671	-262.0	-81.0	-261	-78	1
1.7	2015_Aug_11_1556	s	s	20	1	SIC	344	RC	1	2	23MD	1	0	0.535758018494	-3.0	-133.0	-14	-128	1
1.7	2015_Aug_11_1556	s	s	20	1	SIC	345	RC	0	1	23RO	1	0	3.71403002739	-499.0	-90.0	-504	-84	1
1.7	2015_Aug_11_1556	s	s	20	1	SIC	346	RC	2	0	23VC	1	0	0.830507993698	-530.0	-196.0	-533	-197	1
1.7	2015_Aug_11_1556	s	s	20	1	SIC	347	RC	0	2	23RD	1	0	0.949103832245	-95.0	402.0	-93	404	1
1.7	2015_Aug_11_1556	s	s	20	1	SIC	348	ABS	0	1	24RO	0	1	4.12820792198	None	None	None	None	1
1.7	2015_Aug_11_1556	s	s	20	1	SIC	349	ABS	1	2	24MD	0	1	2.24474000931	None	None	None	None	1
1.7	2015_Aug_11_1556	s	s	20	1	SIC	350	ABS	1	0	24MC	0	1	3.96583795547	None	None	None	None	1
1.7	2015_Aug_11_1556	s	s	20	1	SIC	351	RC	1	1	23MO	1	0	1.12429499626	-333.0	-228.0	-333	-227	1
1.7	2015_Aug_11_1556	s	s	20	1	SIC	352	RC	1	0	23MC	1	0	1.44706702232	-391.0	-197.0	-393	-193	1
1.7	2015_Aug_11_1556	s	s	20	1	SIC	353	RC	0	1	23RO	1	0	1.52945518494	101.0	-28.0	107	-30	1
1.7	2015_Aug_11_1556	s	s	20	1	SIC	354	ABS	0	2	24RD	0	1	2.41898989677	None	None	None	None	1
1.7	2015_Aug_11_1556	s	s	20	1	SIC	355	ABS	2	0	24VC	0	1	0.752627134323	None	None	None	None	1
1.7	2015_Aug_11_1556	s	s	20	1	SIC	356	RC	1	1	23MO	1	0	2.34855985641	-185.0	-127.0	-188	-123	1
1.7	2015_Aug_11_1556	s	s	20	1	SIC	357	ABS	0	1	24RO	0	1	4.05645394325	None	None	None	None	1
1.7	2015_Aug_11_1556	s	s	20	1	SIC	358	RC	2	0	23VC	1	0	0.528954029083	-236.0	-19.0	-238	-20	1
1.7	2015_Aug_11_1556	s	s	20	1	SIC	359	RC	2	2	23VD	1	0	0.524091959	539.0	87.0	537	85	1
1.7	2015_Aug_11_1556	s	s	20	1	SIC	360	RC	1	2	23MD	1	0	0.55254817009	-445.0	-224.0	-440	-225	1
1.7	2015_Aug_11_1556	s	s	20	1	SIC	361	RC	1	0	23MC	1	0	0.91245007515	-484.0	66.0	-493	69	1
1.7	2015_Aug_11_1556	s	s	20	1	SIC	362	ABS	2	1	24VO	0	1	0.866879940033	None	None	None	None	1
1.7	2015_Aug_11_1556	s	s	20	1	SIC	363	ABS	2	2	24VD	0	1	0.740737915039	None	None	None	None	1
1.7	2015_Aug_11_1556	s	s	20	1	SIC	364	ABS	1	2	24MD	0	1	1.77160000801	None	None	None	None	1
1.7	2015_Aug_11_1556	s	s	20	1	SIC	365	ABS	1	0	24MC	0	1	9.34024500847	None	None	None	None	1
1.7	2015_Aug_11_1556	s	s	20	1	SIC	366	ABS	1	1	24MO	0	1	3.74931883812	None	None	None	None	1
1.7	2015_Aug_11_1556	s	s	20	1	SIC	367	RC	2	1	23VO	1	0	0.607953071594	9.0	189.0	10	188	1
1.7	2015_Aug_11_1556	s	s	20	1	SIC	368	RC	0	2	23RD	1	0	1.24740600586	275.0	-274.0	274	-273	1
1.7	2015_Aug_11_1556	s	s	20	1	SIC	369	ABS	1	2	24MD	0	1	1.31279015541	None	None	None	None	1
1.7	2015_Aug_11_1556	s	s	20	1	SIC	370	ABS	0	1	24RO	0	1	4.56634712219	None	None	None	None	1
1.7	2015_Aug_11_1556	s	s	20	1	SIC	371	RC	1	2	23MD	1	0	0.523985147476	488.0	-403.0	495	-400	1
1.7	2015_Aug_11_1556	s	s	20	1	SIC	372	ABS	1	1	24MO	0	1	3.42464184761	None	None	None	None	1
1.7	2015_Aug_11_1556	s	s	20	1	SIC	373	ABS	0	2	24RD	0	1	2.00722789764	None	None	None	None	1
1.7	2015_Aug_11_1556	s	s	20	1	SIC	374	ABS	2	0	24VC	0	1	0.806395053864	None	None	None	None	1
1.7	2015_Aug_11_1556	s	s	20	1	SIC	375	ABS	2	1	24VO	0	1	0.887418985367	None	None	None	None	1
1.7	2015_Aug_11_1556	s	s	20	1	SIC	376	RC	2	0	23VC	1	0	0.611469984055	-201.0	264.0	-197	265	1
1.7	2015_Aug_11_1556	s	s	20	1	SIC	377	RC	1	1	23MO	1	0	1.5295779705	-239.0	-197.0	-235	-195	1
1.7	2015_Aug_11_1556	s	s	20	1	SIC	378	RC	1	0	23MC	1	0	1.18464303017	90.0	281.0	95	286	1
1.7	2015_Aug_11_1556	s	s	20	1	SIC	379	ABS	2	2	24VD	0	1	0.693818092346	None	None	None	None	1
1.7	2015_Aug_11_1556	s	s	20	1	SIC	380	RC	2	1	23VO	1	0	0.623201847076	-343.0	42.0	-340	40	1
1.7	2015_Aug_11_1556	s	s	20	1	SIC	381	ABS	1	0	24MC	0	1	2.29462885857	None	None	None	None	1
1.7	2015_Aug_11_1556	s	s	20	1	SIC	382	RC	0	1	23RO	1	0	2.05922317505	367.0	16.0	367	17	1
1.7	2015_Aug_11_1556	s	s	20	1	SIC	383	RC	2	2	23VD	1	0	0.547586917877	-389.0	-56.0	-397	-55	1
1.7	2015_Aug_11_1556	s	s	20	1	SIC	384	RC	0	2	23RD	1	0	0.688956022263	-505.0	169.0	-507	168	1
1.7	2015_Aug_11_1556	s	s	20	1	SIC	385	ABS	0	1	24RO	0	1	3.76094293594	None	None	None	None	1
1.7	2015_Aug_11_1556	s	s	20	1	SIC	386	RC	0	1	23RO	1	0	1.61213612556	-121.0	350.0	-118	355	1
1.7	2015_Aug_11_1556	s	s	20	1	SIC	387	RC	1	1	23MO	1	0	0.97147321701	399.0	368.0	405	369	1
1.7	2015_Aug_11_1556	s	s	20	1	SIC	388	ABS	1	0	24MC	0	1	2.17428088188	None	None	None	None	1
1.7	2015_Aug_11_1556	s	s	20	1	SIC	389	ABS	2	0	24VC	0	1	0.682020187378	None	None	None	None	1
1.7	2015_Aug_11_1556	s	s	20	1	SIC	390	ABS	0	2	24RD	0	1	1.41876482964	None	None	None	None	1
1.7	2015_Aug_11_1556	s	s	20	1	SIC	391	ABS	1	1	24MO	0	1	1.74837899208	None	None	None	None	1
1.7	2015_Aug_11_1556	s	s	20	1	SIC	392	ABS	2	2	24VD	0	1	0.723960876465	None	None	None	None	1
1.7	2015_Aug_11_1556	s	s	20	1	SIC	393	ABS	1	2	24MD	0	1	1.87090587616	None	None	None	None	1
1.7	2015_Aug_11_1556	s	s	20	1	SIC	394	RC	1	2	23MD	1	0	0.547379970551	450.0	82.0	454	90	1
1.7	2015_Aug_11_1556	s	s	20	1	SIC	395	RC	2	2	23VD	1	0	0.594769001007	431.0	-410.0	430	-415	1
1.7	2015_Aug_11_1556	s	s	20	1	SIC	396	RC	0	2	23RD	1	0	0.658517122269	446.0	362.0	449	364	1
1.7	2015_Aug_11_1556	s	s	20	1	SIC	397	RC	2	1	23VO	1	0	0.488753080368	-118.0	10.0	-121	8	1
1.7	2015_Aug_11_1556	s	s	20	1	SIC	398	ABS	2	1	24VO	0	1	0.634925842285	None	None	None	None	1
1.7	2015_Aug_11_1556	s	s	20	1	SIC	399	RC	2	0	23VC	1	0	0.693854093552	-317.0	-363.0	-326	-367	1
1.7	2015_Aug_11_1556	s	s	20	1	SIC	400	RC	1	0	23MC	1	0	2.43095993996	232.0	-136.0	234	-128	1
1.7	2015_Aug_11_1556	s	s	20	1	SIC	401	RC	0	1	23RO	1	0	2.75035095215	-416.0	344.0	-416	347	1
1.7	2015_Aug_11_1556	s	s	20	1	SIC	402	ABS	1	0	24MC	0	1	4.44869804382	None	None	None	None	1
1.7	2015_Aug_11_1556	s	s	20	1	SIC	403	ABS	1	2	24MD	0	1	1.20655608177	None	None	None	None	1
1.7	2015_Aug_11_1556	s	s	20	1	SIC	404	RC	0	2	23RD	1	0	0.653082132339	126.0	-366.0	134	-363	1
1.7	2015_Aug_11_1556	s	s	20	1	SIC	405	ABS	2	0	24VC	0	1	0.658462047577	None	None	None	None	1
1.7	2015_Aug_11_1556	s	s	20	1	SIC	406	ABS	2	1	24VO	0	1	0.670313835144	None	None	None	None	1
1.7	2015_Aug_11_1556	s	s	20	1	SIC	407	ABS	0	1	24RO	0	1	2.32492899895	None	None	None	None	1
1.7	2015_Aug_11_1556	s	s	20	1	SIC	408	ABS	0	2	24RD	0	1	2.18871498108	None	None	None	None	1
1.7	2015_Aug_11_1556	s	s	20	1	SIC	409	RC	2	2	23VD	1	0	0.818202972412	364.0	-248.0	362	-248	1
1.7	2015_Aug_11_1556	s	s	20	1	SIC	410	ABS	2	2	24VD	0	1	0.582442998886	None	None	None	None	1
1.7	2015_Aug_11_1556	s	s	20	1	SIC	411	ABS	1	1	24MO	0	1	2.548568964	None	None	None	None	1
1.7	2015_Aug_11_1556	s	s	20	1	SIC	412	RC	1	2	23MD	1	0	0.594413995743	443.0	179.0	446	183	1
1.7	2015_Aug_11_1556	s	s	20	1	SIC	413	RC	1	1	23MO	1	0	0.729299783707	-359.0	-178.0	-355	-175	1
1.7	2015_Aug_11_1556	s	s	20	1	SIC	414	RC	2	0	23VC	1	0	0.481938838959	-358.0	190.0	-359	196	1
1.7	2015_Aug_11_1556	s	s	20	1	SIC	415	RC	1	0	23MC	1	0	3.44299602509	482.0	358.0	489	364	1
1.7	2015_Aug_11_1556	s	s	20	1	SIC	416	RC	2	1	23VO	1	0	0.587821960449	39.0	-96.0	34	-97	1
1.7	2015_Aug_11_1556	s	s	20	1	SIC	417	ABS	0	1	24RO	0	1	4.6672680378	None	None	None	None	1
1.7	2015_Aug_11_1556	s	s	20	1	SIC	418	ABS	2	2	24VD	0	1	1.00663495064	None	None	None	None	1
1.7	2015_Aug_11_1556	s	s	20	1	SIC	419	ABS	2	1	24VO	0	1	0.700690984726	None	None	None	None	1
1.7	2015_Aug_11_1556	s	s	20	1	SIC	420	ABS	1	2	24MD	0	1	1.15952992439	None	None	None	None	1
1.7	2015_Aug_11_1556	s	s	20	1	SIC	421	RC	2	1	23VO	1	0	0.959193944931	400.0	354.0	400	357	1
1.7	2015_Aug_11_1556	s	s	20	1	SIC	422	ABS	1	0	24MC	0	1	3.24308896065	None	None	None	None	1
1.7	2015_Aug_11_1556	s	s	20	1	SIC	423	ABS	0	2	24RD	0	1	1.18817710876	None	None	None	None	1
1.7	2015_Aug_11_1556	s	s	20	1	SIC	424	RC	0	1	23RO	1	0	2.7840731144	-540.0	36.0	-537	39	1
1.7	2015_Aug_11_1556	s	s	20	1	SIC	425	RC	1	1	23MO	1	0	1.12451195717	-155.0	-99.0	-152	-98	1
1.7	2015_Aug_11_1556	s	s	20	1	SIC	426	RC	2	0	23VC	1	0	0.57622718811	-531.0	-83.0	-532	-77	1
1.7	2015_Aug_11_1556	s	s	20	1	SIC	427	ABS	1	1	24MO	0	1	2.1838080883	None	None	None	None	1
1.7	2015_Aug_11_1556	s	s	20	1	SIC	428	RC	0	2	23RD	1	0	0.606381893158	13.0	328.0	16	335	1
1.7	2015_Aug_11_1556	s	s	20	1	SIC	429	RC	2	2	23VD	1	0	0.406457901001	-52.0	-38.0	-54	-42	1
1.7	2015_Aug_11_1556	s	s	20	1	SIC	430	RC	1	0	23MC	1	0	1.25875210762	-269.0	-33.0	-277	-24	1
1.7	2015_Aug_11_1556	s	s	20	1	SIC	431	RC	1	2	23MD	1	0	0.458460092545	-244.0	-23.0	-244	-21	1
1.7	2015_Aug_11_1556	s	s	20	1	SIC	432	ABS	2	0	24VC	0	1	0.55938911438	None	None	None	None	1
1.7	2015_Aug_11_1556	s	s	20	1	SIC	433	RC	2	2	23VD	1	0	0.576116085052	394.0	287.0	393	292	1
1.7	2015_Aug_11_1556	s	s	20	1	SIC	434	RC	1	0	23MC	0	1	2.87810397148	367.0	-121.0	None	None	0
1.7	2015_Aug_11_1556	s	s	20	1	SIC	435	ABS	1	2	24MD	0	1	0.735764026642	None	None	None	None	1
1.7	2015_Aug_11_1556	s	s	20	1	SIC	436	ABS	0	2	24RD	0	1	1.46619319916	None	None	None	None	1
1.7	2015_Aug_11_1556	s	s	20	1	SIC	437	RC	1	2	23MD	1	0	0.611462116241	489.0	-4.0	490	-6	1
1.7	2015_Aug_11_1556	s	s	20	1	SIC	438	ABS	2	1	24VO	0	1	0.653531074524	None	None	None	None	1
1.7	2015_Aug_11_1556	s	s	20	1	SIC	439	RC	2	1	23VO	1	0	0.470163106918	-32.0	70.0	-42	69	1
1.7	2015_Aug_11_1556	s	s	20	1	SIC	440	ABS	2	2	24VD	0	1	0.693761825562	None	None	None	None	1
1.7	2015_Aug_11_1556	s	s	20	1	SIC	441	ABS	2	0	24VC	0	1	0.806500911713	None	None	None	None	1
1.7	2015_Aug_11_1556	s	s	20	1	SIC	442	RC	1	1	23MO	1	0	0.81157708168	45.0	-41.0	49	-42	1
1.7	2015_Aug_11_1556	s	s	20	1	SIC	443	ABS	0	1	24RO	0	1	3.70712995529	None	None	None	None	1
1.7	2015_Aug_11_1556	s	s	20	1	SIC	444	ABS	1	0	24MC	0	1	5.21742081642	None	None	None	None	1
1.7	2015_Aug_11_1556	s	s	20	1	SIC	445	RC	2	0	23VC	1	0	0.606552124023	-201.0	59.0	-198	67	1
1.7	2015_Aug_11_1556	s	s	20	1	SIC	446	RC	0	1	23RO	1	0	1.35968589783	295.0	-32.0	293	-29	1
1.7	2015_Aug_11_1556	s	s	20	1	SIC	447	ABS	1	1	24MO	0	1	1.45890212059	None	None	None	None	1
1.7	2015_Aug_11_1556	s	s	20	1	SIC	448	RC	0	2	23RD	1	0	0.670057058334	-508.0	-275.0	-510	-267	1
1.7	2015_Aug_11_1556	s	s	20	1	SIC	449	RC	1	1	23MO	1	0	2.3534591198	-269.0	211.0	-265	213	1
1.7	2015_Aug_11_1556	s	s	20	1	SIC	450	ABS	0	2	24RD	0	1	1.16017007828	None	None	None	None	1
1.7	2015_Aug_11_1556	s	s	20	1	SIC	451	RC	1	0	23MC	1	0	1.56482601166	511.0	-37.0	508	-40	1
1.7	2015_Aug_11_1556	s	s	20	1	SIC	452	RC	0	1	23RO	0	1	1.95330619812	285.0	307.0	None	None	0
1.7	2015_Aug_11_1556	s	s	20	1	SIC	453	ABS	2	2	24VD	0	1	0.500599861145	None	None	None	None	1
1.7	2015_Aug_11_1556	s	s	20	1	SIC	454	ABS	0	1	24RO	0	1	4.36617398262	None	None	None	None	1
1.7	2015_Aug_11_1556	s	s	20	1	SIC	455	ABS	2	1	24VO	0	1	0.935789108276	None	None	None	None	1
1.7	2015_Aug_11_1556	s	s	20	1	SIC	456	ABS	1	1	24MO	0	1	1.5294470787	None	None	None	None	1
1.7	2015_Aug_11_1556	s	s	20	1	SIC	457	RC	1	2	23MD	1	0	0.712378025055	140.0	300.0	143	296	1
1.7	2015_Aug_11_1556	s	s	20	1	SIC	458	RC	2	2	23VD	1	0	0.528982162476	-414.0	15.0	-419	19	1
1.7	2015_Aug_11_1556	s	s	20	1	SIC	459	ABS	1	2	24MD	0	1	1.04188990593	None	None	None	None	1
1.7	2015_Aug_11_1556	s	s	20	1	SIC	460	RC	2	0	23VC	1	0	0.512058019638	382.0	-213.0	391	-208	1
1.7	2015_Aug_11_1556	s	s	20	1	SIC	461	RC	2	1	23VO	1	0	0.594812870026	-524.0	-45.0	-529	-45	1
1.7	2015_Aug_11_1556	s	s	20	1	SIC	462	RC	0	2	23RD	1	0	0.806684017181	471.0	404.0	473	405	1
1.7	2015_Aug_11_1556	s	s	20	1	SIC	463	ABS	2	0	24VC	0	1	0.481945991516	None	None	None	None	1
1.7	2015_Aug_11_1556	s	s	20	1	SIC	464	ABS	1	0	24MC	0	1	1.87084794044	None	None	None	None	1
1.7	2015_Aug_11_1556	s	s	20	1	SIC	465	RC	2	1	23VO	1	0	0.529070138931	65.0	160.0	67	161	1
1.7	2015_Aug_11_1556	s	s	20	1	SIC	466	RC	2	0	23VC	1	0	0.458323001862	-394.0	73.0	-392	73	1
1.7	2015_Aug_11_1556	s	s	20	1	SIC	467	ABS	1	0	24MC	0	1	1.57658910751	None	None	None	None	1
1.7	2015_Aug_11_1556	s	s	20	1	SIC	468	ABS	2	1	24VO	0	1	0.823340892792	None	None	None	None	1
1.7	2015_Aug_11_1556	s	s	20	1	SIC	469	ABS	0	1	24RO	0	1	4.74962997437	None	None	None	None	1
1.7	2015_Aug_11_1556	s	s	20	1	SIC	470	ABS	1	2	24MD	0	1	1.3008480072	None	None	None	None	1
1.7	2015_Aug_11_1556	s	s	20	1	SIC	471	RC	2	2	23VD	1	0	0.541170120239	-8.0	358.0	-5	355	1
1.7	2015_Aug_11_1556	s	s	20	1	SIC	472	ABS	2	0	24VC	0	1	0.67031788826	None	None	None	None	1
1.7	2015_Aug_11_1556	s	s	20	1	SIC	473	RC	1	0	23MC	1	0	2.17718696594	152.0	-199.0	155	-195	1
1.7	2015_Aug_11_1556	s	s	20	1	SIC	474	ABS	2	2	24VD	0	1	0.670156955719	None	None	None	None	1
1.7	2015_Aug_11_1556	s	s	20	1	SIC	475	RC	0	1	23RO	0	1	4.48398423195	-126.0	-140.0	None	None	0
1.7	2015_Aug_11_1556	s	s	20	1	SIC	476	RC	1	1	23MO	1	0	0.853543043137	-377.0	219.0	-376	225	1
1.7	2015_Aug_11_1556	s	s	20	1	SIC	477	RC	1	2	23MD	1	0	0.666594028473	1.0	-64.0	-6	-62	1
1.7	2015_Aug_11_1556	s	s	20	1	SIC	478	RC	0	2	23RD	1	0	0.481976985931	-298.0	-115.0	-302	-107	1
1.7	2015_Aug_11_1556	s	s	20	1	SIC	479	ABS	0	2	24RD	0	1	1.24703001976	None	None	None	None	1
1.7	2015_Aug_11_1556	s	s	20	1	SIC	480	ABS	1	1	24MO	1	0	0.69383597374	None	None	62	-127	0
1.7	2015_Aug_11_1556	s	s	20	1	SIC	481	ABS	2	1	24VO	0	1	0.811946868896	None	None	None	None	1
1.7	2015_Aug_11_1556	s	s	20	1	SIC	482	ABS	2	0	24VC	0	1	1.29410099983	None	None	None	None	1
1.7	2015_Aug_11_1556	s	s	20	1	SIC	483	RC	1	0	23MC	1	0	0.941052913666	311.0	109.0	310	107	1
1.7	2015_Aug_11_1556	s	s	20	1	SIC	484	ABS	0	1	24RO	0	1	1.9139418602	None	None	None	None	1
1.7	2015_Aug_11_1556	s	s	20	1	SIC	485	RC	2	1	23VO	1	0	0.634977817535	75.0	-124.0	84	-128	1
1.7	2015_Aug_11_1556	s	s	20	1	SIC	486	ABS	1	1	24MO	0	1	2.95008707047	None	None	None	None	1
1.7	2015_Aug_11_1556	s	s	20	1	SIC	487	RC	1	2	23MD	1	0	0.559497117996	281.0	-8.0	281	-9	1
1.7	2015_Aug_11_1556	s	s	20	1	SIC	488	ABS	1	2	24MD	0	1	0.905678033829	None	None	None	None	1
1.7	2015_Aug_11_1556	s	s	20	1	SIC	489	RC	1	1	23MO	1	0	0.72399020195	-123.0	-145.0	-117	-143	1
1.7	2015_Aug_11_1556	s	s	20	1	SIC	490	RC	0	2	23RD	1	0	0.535979032516	-179.0	-179.0	-177	-177	1
1.7	2015_Aug_11_1556	s	s	20	1	SIC	491	RC	2	2	23VD	1	0	0.535650968552	-309.0	58.0	-314	59	1
1.7	2015_Aug_11_1556	s	s	20	1	SIC	492	RC	2	0	23VC	1	0	0.632359027863	-501.0	139.0	-500	145	1
1.7	2015_Aug_11_1556	s	s	20	1	SIC	493	ABS	2	2	24VD	0	1	0.564348936081	None	None	None	None	1
1.7	2015_Aug_11_1556	s	s	20	1	SIC	494	RC	0	1	23RO	1	0	2.34839296341	322.0	-231.0	320	-222	1
1.7	2015_Aug_11_1556	s	s	20	1	SIC	495	ABS	1	0	24MC	0	1	1.83090400696	None	None	None	None	1
1.7	2015_Aug_11_1556	s	s	20	1	SIC	496	ABS	0	2	24RD	0	1	1.28836107254	None	None	None	None	1
1.7	2015_Aug_11_1556	s	s	20	1	SIC	497	ABS	1	2	24MD	0	1	1.27053999901	None	None	None	None	1
1.7	2015_Aug_11_1556	s	s	20	1	SIC	498	RC	0	2	23RD	1	0	0.552631139755	-78.0	-64.0	-81	-63	1
1.7	2015_Aug_11_1556	s	s	20	1	SIC	499	ABS	2	1	24VO	0	1	0.912375926971	None	None	None	None	1
1.7	2015_Aug_11_1556	s	s	20	1	SIC	500	ABS	1	0	24MC	0	1	1.72470998764	None	None	None	None	1
1.7	2015_Aug_11_1556	s	s	20	1	SIC	501	RC	2	0	23VC	1	0	0.488867998123	341.0	-15.0	352	-10	1
1.7	2015_Aug_11_1556	s	s	20	1	SIC	502	ABS	0	2	24RD	0	1	0.665439128876	None	None	None	None	1
1.7	2015_Aug_11_1556	s	s	20	1	SIC	503	RC	2	1	23VO	1	0	0.526365041733	-143.0	-231.0	-144	-230	1
1.7	2015_Aug_11_1556	s	s	20	1	SIC	504	RC	1	1	23MO	0	1	0.952805995941	-480.0	-162.0	None	None	0
1.7	2015_Aug_11_1556	s	s	20	1	SIC	505	ABS	2	0	24VC	0	1	0.677078008652	None	None	None	None	1
1.7	2015_Aug_11_1556	s	s	20	1	SIC	506	RC	1	2	23MD	1	0	0.571161031723	71.0	259.0	80	262	1
1.7	2015_Aug_11_1556	s	s	20	1	SIC	507	RC	0	1	23RO	0	1	2.54175496101	-490.0	-245.0	None	None	0
1.7	2015_Aug_11_1556	s	s	20	1	SIC	508	RC	1	0	23MC	0	1	1.47759103775	-518.0	-75.0	None	None	0
1.7	2015_Aug_11_1556	s	s	20	1	SIC	509	ABS	1	1	24MO	0	1	3.00762581825	None	None	None	None	1
1.7	2015_Aug_11_1556	s	s	20	1	SIC	510	ABS	0	1	24RO	0	1	4.11419296265	None	None	None	None	1
1.7	2015_Aug_11_1556	s	s	20	1	SIC	511	RC	2	2	23VD	1	0	0.560997962952	106.0	293.0	101	297	1
1.7	2015_Aug_11_1556	s	s	20	1	SIC	512	ABS	2	2	24VD	0	1	0.811487913132	None	None	None	None	1
1.7	2015_Aug_11_1556	s	s	20	1	SIC	513	RC	1	0	23MC	0	1	1.25881695747	404.0	-235.0	None	None	0
1.7	2015_Aug_11_1556	s	s	20	1	SIC	514	RC	2	2	23VD	1	0	0.608165979385	-11.0	-319.0	-8	-325	1
1.7	2015_Aug_11_1556	s	s	20	1	SIC	515	ABS	2	0	24VC	0	1	0.564365148544	None	None	None	None	1
1.7	2015_Aug_11_1556	s	s	20	1	SIC	516	RC	2	0	23VC	1	0	0.724199056625	139.0	345.0	133	347	1
1.7	2015_Aug_11_1556	s	s	20	1	SIC	517	ABS	0	2	24RD	0	1	0.846924066544	None	None	None	None	1
1.7	2015_Aug_11_1556	s	s	20	1	SIC	518	RC	0	2	23RD	1	0	0.723993062973	316.0	260.0	317	265	1
1.7	2015_Aug_11_1556	s	s	20	1	SIC	519	ABS	1	0	24MC	0	1	2.04722595215	None	None	None	None	1
1.7	2015_Aug_11_1556	s	s	20	1	SIC	520	RC	0	1	23RO	0	1	1.90135598183	-479.0	5.0	None	None	0
1.7	2015_Aug_11_1556	s	s	20	1	SIC	521	RC	1	2	23MD	1	0	0.818101882935	-286.0	40.0	-290	39	1
1.7	2015_Aug_11_1556	s	s	20	1	SIC	522	ABS	2	1	24VO	0	1	0.618087053299	None	None	None	None	1
1.7	2015_Aug_11_1556	s	s	20	1	SIC	523	ABS	1	1	24MO	0	1	0.912440061569	None	None	None	None	1
1.7	2015_Aug_11_1556	s	s	20	1	SIC	524	ABS	0	1	24RO	0	1	1.94147586823	None	None	None	None	1
1.7	2015_Aug_11_1556	s	s	20	1	SIC	525	RC	1	1	23MO	1	0	0.559910058975	-7.0	15.0	-11	16	1
1.7	2015_Aug_11_1556	s	s	20	1	SIC	526	ABS	2	2	24VD	0	1	0.599681854248	None	None	None	None	1
1.7	2015_Aug_11_1556	s	s	20	1	SIC	527	ABS	1	2	24MD	0	1	1.08212804794	None	None	None	None	1
1.7	2015_Aug_11_1556	s	s	20	1	SIC	528	RC	2	1	23VO	1	0	0.559496879578	120.0	403.0	122	410	1
1.7	2015_Aug_11_1556	s	s	20	1	SIC	529	ABS	2	2	24VD	0	1	0.559325933456	None	None	None	None	1
1.7	2015_Aug_11_1556	s	s	20	1	SIC	530	RC	1	1	23MO	0	1	1.63046002388	-310.0	-316.0	None	None	0
1.7	2015_Aug_11_1556	s	s	20	1	SIC	531	RC	0	2	23RD	1	0	0.540801048279	-319.0	-305.0	-329	-303	1
1.7	2015_Aug_11_1556	s	s	20	1	SIC	532	RC	2	2	23VD	1	0	0.583096027374	-145.0	-28.0	-149	-28	1
1.7	2015_Aug_11_1556	s	s	20	1	SIC	533	ABS	0	1	24RO	0	1	2.57342886925	None	None	None	None	1
1.7	2015_Aug_11_1556	s	s	20	1	SIC	534	ABS	1	0	24MC	0	1	3.33704209328	None	None	None	None	1
1.7	2015_Aug_11_1556	s	s	20	1	SIC	535	ABS	2	0	24VC	0	1	0.724212884903	None	None	None	None	1
1.7	2015_Aug_11_1556	s	s	20	1	SIC	536	ABS	1	1	24MO	0	1	2.12532615662	None	None	None	None	1
1.7	2015_Aug_11_1556	s	s	20	1	SIC	537	ABS	0	2	24RD	0	1	1.57706999779	None	None	None	None	1
1.7	2015_Aug_11_1556	s	s	20	1	SIC	538	ABS	2	1	24VO	0	1	0.643213033676	None	None	None	None	1
1.7	2015_Aug_11_1556	s	s	20	1	SIC	539	ABS	1	2	24MD	0	1	0.964643955231	None	None	None	None	1
1.7	2015_Aug_11_1556	s	s	20	1	SIC	540	RC	1	2	23MD	1	0	0.66542506218	184.0	338.0	182	338	1
1.7	2015_Aug_11_1556	s	s	20	1	SIC	541	RC	2	1	23VO	1	0	0.58785700798	86.0	-165.0	88	-162	1
1.7	2015_Aug_11_1556	s	s	20	1	SIC	542	RC	1	0	23MC	1	0	0.781649112701	428.0	395.0	428	396	1
1.7	2015_Aug_11_1556	s	s	20	1	SIC	543	RC	2	0	23VC	1	0	0.514549016953	96.0	-49.0	99	-49	1
1.7	2015_Aug_11_1556	s	s	20	1	SIC	544	RC	0	1	23RO	1	0	2.47803592682	-417.0	-84.0	-410	-82	1
1.7	2015_Aug_11_1556	s	s	20	1	SIC	545	ABS	0	2	24RD	0	1	1.17637896538	None	None	None	None	1
1.7	2015_Aug_11_1556	s	s	20	1	SIC	546	RC	1	2	23MD	1	0	0.547482967377	25.0	201.0	28	196	1
1.7	2015_Aug_11_1556	s	s	20	1	SIC	547	RC	2	1	23VO	1	0	0.629991054535	440.0	25.0	438	26	1
1.7	2015_Aug_11_1556	s	s	20	1	SIC	548	RC	1	1	23MO	1	0	2.0238969326	-107.0	257.0	-106	260	1
1.7	2015_Aug_11_1556	s	s	20	1	SIC	549	RC	2	0	23VC	1	0	0.559316158295	-510.0	-59.0	-520	-59	1
1.7	2015_Aug_11_1556	s	s	20	1	SIC	550	RC	1	0	23MC	0	1	2.27924799919	-448.0	45.0	None	None	0
1.7	2015_Aug_11_1556	s	s	20	1	SIC	551	ABS	2	0	24VC	0	1	0.997281074524	None	None	None	None	1
1.7	2015_Aug_11_1556	s	s	20	1	SIC	552	RC	0	1	23RO	1	0	3.35397410393	1.0	226.0	-5	230	1
1.7	2015_Aug_11_1556	s	s	20	1	SIC	553	ABS	1	2	24MD	0	1	1.24213790894	None	None	None	None	1
1.7	2015_Aug_11_1556	s	s	20	1	SIC	554	ABS	2	2	24VD	0	1	0.594852924347	None	None	None	None	1
1.7	2015_Aug_11_1556	s	s	20	1	SIC	555	ABS	1	1	24MO	0	1	2.04166984558	None	None	None	None	1
1.7	2015_Aug_11_1556	s	s	20	1	SIC	556	RC	0	2	23RD	1	0	0.760976076126	-426.0	-309.0	-434	-308	1
1.7	2015_Aug_11_1556	s	s	20	1	SIC	557	RC	2	2	23VD	1	0	0.783087015152	458.0	211.0	458	208	1
1.7	2015_Aug_11_1556	s	s	20	1	SIC	558	ABS	2	1	24VO	0	1	0.611477851868	None	None	None	None	1
1.7	2015_Aug_11_1556	s	s	20	1	SIC	559	ABS	0	1	24RO	0	1	3.08329796791	None	None	None	None	1
1.7	2015_Aug_11_1556	s	s	20	1	SIC	560	ABS	1	0	24MC	0	1	2.68308901787	None	None	None	None	1
1.7	2015_Aug_11_1556	s	s	20	1	SIC	561	RC	2	1	23VO	1	0	0.60636305809	-200.0	59.0	-205	56	1
1.7	2015_Aug_11_1556	s	s	20	1	SIC	562	RC	1	0	23MC	1	0	1.58344316483	-146.0	369.0	-150	373	1
1.7	2015_Aug_11_1556	s	s	20	1	SIC	563	RC	1	1	23MO	1	0	1.38307213783	448.0	-347.0	452	-352	1
1.7	2015_Aug_11_1556	s	s	20	1	SIC	564	ABS	1	1	24MO	0	1	1.21528410912	None	None	None	None	1
1.7	2015_Aug_11_1556	s	s	20	1	SIC	565	RC	2	2	23VD	1	0	0.571043014526	-259.0	-191.0	-261	-187	1
1.7	2015_Aug_11_1556	s	s	20	1	SIC	566	RC	2	0	23VC	1	0	0.500560045242	250.0	-252.0	248	-246	1
1.7	2015_Aug_11_1556	s	s	20	1	SIC	567	RC	1	2	23MD	1	0	0.502115011215	216.0	370.0	210	375	1
1.7	2015_Aug_11_1556	s	s	20	1	SIC	568	ABS	2	0	24VC	0	1	0.641746997833	None	None	None	None	1
1.7	2015_Aug_11_1556	s	s	20	1	SIC	569	ABS	1	2	24MD	0	1	0.905719995499	None	None	None	None	1
1.7	2015_Aug_11_1556	s	s	20	1	SIC	570	RC	0	1	23RO	0	1	2.5653898716	-429.0	369.0	None	None	0
1.7	2015_Aug_11_1556	s	s	20	1	SIC	571	ABS	0	2	24RD	0	1	1.20029902458	None	None	None	None	1
1.7	2015_Aug_11_1556	s	s	20	1	SIC	572	ABS	0	1	24RO	0	1	3.77273702621	None	None	None	None	1
1.7	2015_Aug_11_1556	s	s	20	1	SIC	573	ABS	1	0	24MC	0	1	3.00787687302	None	None	None	None	1
1.7	2015_Aug_11_1556	s	s	20	1	SIC	574	ABS	2	2	24VD	0	1	0.61828994751	None	None	None	None	1
1.7	2015_Aug_11_1556	s	s	20	1	SIC	575	ABS	2	1	24VO	0	1	0.641685962677	None	None	None	None	1
1.7	2015_Aug_11_1556	s	s	20	1	SIC	576	RC	0	2	23RD	1	0	0.752707004547	106.0	-340.0	105	-343	1
1.7	2015_Aug_11_1556	s	s	20	1	SIC	577	RC	1	0	23MC	1	0	0.973778009415	514.0	-234.0	512	-233	1
1.7	2015_Aug_11_1556	s	s	20	1	SIC	578	ABS	1	0	24MC	0	1	2.1248459816	None	None	None	None	1
1.7	2015_Aug_11_1556	s	s	20	1	SIC	579	RC	2	2	23VD	1	0	0.493702888489	-157.0	-398.0	-161	-399	1
1.7	2015_Aug_11_1556	s	s	20	1	SIC	580	RC	0	1	23RO	1	0	2.83606815338	327.0	-25.0	325	-25	1
1.7	2015_Aug_11_1556	s	s	20	1	SIC	581	RC	1	1	23MO	1	0	0.646739959717	38.0	184.0	37	192	1
1.7	2015_Aug_11_1556	s	s	20	1	SIC	582	ABS	0	1	24RO	0	1	3.31368207932	None	None	None	None	1
1.7	2015_Aug_11_1556	s	s	20	1	SIC	583	ABS	2	2	24VD	0	1	0.599578857422	None	None	None	None	1
1.7	2015_Aug_11_1556	s	s	20	1	SIC	584	ABS	0	2	24RD	0	1	1.0351228714	None	None	None	None	1
1.7	2015_Aug_11_1556	s	s	20	1	SIC	585	RC	1	2	23MD	1	0	0.547488212585	186.0	-321.0	189	-319	1
1.7	2015_Aug_11_1556	s	s	20	1	SIC	586	ABS	2	0	24VC	0	1	0.608007907867	None	None	None	None	1
1.7	2015_Aug_11_1556	s	s	20	1	SIC	587	RC	2	0	23VC	1	0	0.488672971725	-14.0	-299.0	-11	-308	1
1.7	2015_Aug_11_1556	s	s	20	1	SIC	588	ABS	2	1	24VO	0	1	0.646675109863	None	None	None	None	1
1.7	2015_Aug_11_1556	s	s	20	1	SIC	589	RC	0	2	23RD	1	0	0.587809085846	357.0	-334.0	359	-329	1
1.7	2015_Aug_11_1556	s	s	20	1	SIC	590	ABS	1	1	24MO	0	1	1.40696597099	None	None	None	None	1
1.7	2015_Aug_11_1556	s	s	20	1	SIC	591	ABS	1	2	24MD	0	1	1.53629302979	None	None	None	None	1
1.7	2015_Aug_11_1556	s	s	20	1	SIC	592	RC	2	1	23VO	1	0	0.571021080017	-447.0	257.0	-450	258	1
