Version	Date	Stimuli	Method	Subject	Session	Condition	Trial	Target	Channel1	Channel2	Distractors	LMouseButton	RMouseButton	RT	TargetX	TargetY	ResponseX	ResponseY	Correct
1.7	2015_Aug_12_1459	s	s	20	2	Capacity	1	RC	0	2	23RD	1	0	0.693774938583	-473.0	199.0	-474	194	1
1.7	2015_Aug_12_1459	s	s	20	2	Capacity	2	ABS	0	2	24RD	0	1	2.04248595238	None	None	None	None	1
1.7	2015_Aug_12_1459	s	s	20	2	Capacity	3	ABS	0	1	24RO	0	1	7.45010900497	None	None	None	None	1
1.7	2015_Aug_12_1459	s	s	20	2	Capacity	4	RC	0	1	23RO	1	0	3.18425989151	427.0	-81.0	431	-77	1
1.7	2015_Aug_12_1459	s	s	20	2	Capacity	5	RC	0	1	23RO	1	0	0.961214065552	-153.0	114.0	-152	119	1
1.7	2015_Aug_12_1459	s	s	20	2	Capacity	6	ABS	0	2	24RD	0	1	2.70214390755	None	None	None	None	1
1.7	2015_Aug_12_1459	s	s	20	2	Capacity	7	RC	0	2	23RD	1	0	0.594669103622	57.0	-142.0	64	-142	1
1.7	2015_Aug_12_1459	s	s	20	2	Capacity	8	ABS	0	1	24RO	0	1	4.67897891998	None	None	None	None	1
1.7	2015_Aug_12_1459	s	s	20	2	Capacity	9	RC	0	2	23RD	1	0	0.611426830292	-500.0	196.0	-506	198	1
1.7	2015_Aug_12_1459	s	s	20	2	Capacity	10	ABS	0	1	24RO	0	1	6.35226988792	None	None	None	None	1
1.7	2015_Aug_12_1459	s	s	20	2	Capacity	11	RC	0	1	23RO	1	0	2.85634589195	320.0	-202.0	321	-200	1
1.7	2015_Aug_12_1459	s	s	20	2	Capacity	12	ABS	0	2	24RD	0	1	2.01876521111	None	None	None	None	1
1.7	2015_Aug_12_1459	s	s	20	2	Capacity	13	RC	0	2	23RD	1	0	0.799728870392	477.0	169.0	477	169	1
1.7	2015_Aug_12_1459	s	s	20	2	Capacity	14	ABS	0	2	24RD	0	1	2.45933580399	None	None	None	None	1
1.7	2015_Aug_12_1459	s	s	20	2	Capacity	15	ABS	0	1	24RO	0	1	6.24465703964	None	None	None	None	1
1.7	2015_Aug_12_1459	s	s	20	2	Capacity	16	RC	0	1	23RO	1	0	1.34826207161	140.0	78.0	140	76	1
1.7	2015_Aug_12_1459	s	s	20	2	Capacity	17	ABS	0	1	24RO	0	1	4.1375451088	None	None	None	None	1
1.7	2015_Aug_12_1459	s	s	20	2	Capacity	18	ABS	0	2	24RD	0	1	2.65995597839	None	None	None	None	1
1.7	2015_Aug_12_1459	s	s	20	2	Capacity	19	RC	0	1	23RO	1	0	4.06024909019	373.0	-271.0	374	-268	1
1.7	2015_Aug_12_1459	s	s	20	2	Capacity	20	RC	0	2	23RD	1	0	1.07045102119	-248.0	282.0	-256	283	1
1.7	2015_Aug_12_1459	s	s	20	2	Capacity	21	RC	0	2	23RD	1	0	0.505436897278	41.0	-171.0	40	-174	1
1.7	2015_Aug_12_1459	s	s	20	2	Capacity	22	ABS	0	1	24RO	0	1	4.61342120171	None	None	None	None	1
1.7	2015_Aug_12_1459	s	s	20	2	Capacity	23	RC	0	1	23RO	1	0	1.24264192581	330.0	-300.0	332	-303	1
1.7	2015_Aug_12_1459	s	s	20	2	Capacity	24	ABS	0	2	24RD	0	1	2.36009693146	None	None	None	None	1
1.7	2015_Aug_12_1459	s	s	20	2	Capacity	25	RC	0	2	23RD	1	0	0.500143051147	63.0	112.0	56	116	1
1.7	2015_Aug_12_1459	s	s	20	2	Capacity	26	ABS	0	1	24RO	0	1	3.04408311844	None	None	None	None	1
1.7	2015_Aug_12_1459	s	s	20	2	Capacity	27	ABS	0	2	24RD	0	1	2.23572897911	None	None	None	None	1
1.7	2015_Aug_12_1459	s	s	20	2	Capacity	28	RC	0	1	23RO	1	0	1.99540805817	243.0	318.0	249	319	1
1.7	2015_Aug_12_1459	s	s	20	2	Capacity	29	ABS	0	2	24RD	0	1	1.89434194565	None	None	None	None	1
1.7	2015_Aug_12_1459	s	s	20	2	Capacity	30	RC	0	1	23RO	1	0	1.43031215668	-272.0	130.0	-273	127	1
1.7	2015_Aug_12_1459	s	s	20	2	Capacity	31	ABS	0	1	24RO	0	1	4.92642307281	None	None	None	None	1
1.7	2015_Aug_12_1459	s	s	20	2	Capacity	32	RC	0	2	23RD	1	0	1.68934392929	441.0	273.0	439	276	1
1.7	2015_Aug_12_1459	s	s	20	2	Capacity	33	ABS	0	1	24RO	0	1	4.8134469986	None	None	None	None	1
1.7	2015_Aug_12_1459	s	s	20	2	Capacity	34	ABS	0	2	24RD	0	1	1.55316400528	None	None	None	None	1
1.7	2015_Aug_12_1459	s	s	20	2	Capacity	35	RC	0	2	23RD	1	0	0.59489607811	165.0	232.0	166	234	1
1.7	2015_Aug_12_1459	s	s	20	2	Capacity	36	RC	0	1	23RO	1	0	4.69580602646	19.0	-192.0	16	-185	1
1.7	2015_Aug_12_1459	s	s	20	2	Capacity	37	RC	0	2	23RD	1	0	0.783097982407	-264.0	350.0	-264	348	1
1.7	2015_Aug_12_1459	s	s	20	2	Capacity	38	ABS	0	2	24RD	0	1	1.59517598152	None	None	None	None	1
1.7	2015_Aug_12_1459	s	s	20	2	Capacity	39	RC	0	1	23RO	1	0	4.06732702255	421.0	248.0	423	257	1
1.7	2015_Aug_12_1459	s	s	20	2	Capacity	40	ABS	0	1	24RO	0	1	6.10454511642	None	None	None	None	1
1.7	2015_Aug_12_1459	s	s	20	2	Capacity	41	RC	0	1	23RO	1	0	1.9485411644	295.0	396.0	297	395	1
1.7	2015_Aug_12_1459	s	s	20	2	Capacity	42	RC	0	2	23RD	1	0	0.865252971649	321.0	249.0	319	250	1
1.7	2015_Aug_12_1459	s	s	20	2	Capacity	43	ABS	0	2	24RD	0	1	1.19514298439	None	None	None	None	1
1.7	2015_Aug_12_1459	s	s	20	2	Capacity	44	ABS	0	1	24RO	0	1	5.4608809948	None	None	None	None	1
1.7	2015_Aug_12_1459	s	s	20	2	Capacity	45	ABS	0	2	24RD	0	1	1.41859197617	None	None	None	None	1
1.7	2015_Aug_12_1459	s	s	20	2	Capacity	46	ABS	0	1	24RO	0	1	6.39712905884	None	None	None	None	1
1.7	2015_Aug_12_1459	s	s	20	2	Capacity	47	RC	0	1	23RO	1	0	4.20147109032	386.0	-86.0	389	-85	1
1.7	2015_Aug_12_1459	s	s	20	2	Capacity	48	RC	0	2	23RD	1	0	0.641680002213	-528.0	-103.0	-527	-103	1
1.7	2015_Aug_12_1459	s	s	20	2	Capacity	49	ABS	0	1	24RO	0	1	5.67270803452	None	None	None	None	1
1.7	2015_Aug_12_1459	s	s	20	2	Capacity	50	ABS	0	2	24RD	0	1	1.94827604294	None	None	None	None	1
1.7	2015_Aug_12_1459	s	s	20	2	Capacity	51	RC	0	1	23RO	1	0	5.22543811798	176.0	28.0	180	24	1
1.7	2015_Aug_12_1459	s	s	20	2	Capacity	52	RC	0	2	23RD	1	0	0.576158046722	276.0	-156.0	275	-155	1
1.7	2015_Aug_12_1459	s	s	20	2	Capacity	53	RC	0	2	23RD	1	0	0.512397766113	161.0	-205.0	166	-205	1
1.7	2015_Aug_12_1459	s	s	20	2	Capacity	54	ABS	0	1	24RO	0	1	5.56193089485	None	None	None	None	1
1.7	2015_Aug_12_1459	s	s	20	2	Capacity	55	ABS	0	2	24RD	0	1	1.36477708817	None	None	None	None	1
1.7	2015_Aug_12_1459	s	s	20	2	Capacity	56	RC	0	1	23RO	1	0	4.77308893204	-394.0	-124.0	-398	-126	1
1.7	2015_Aug_12_1459	s	s	20	2	Capacity	57	RC	0	2	23RD	1	0	0.607759952545	-258.0	-383.0	-261	-385	1
1.7	2015_Aug_12_1459	s	s	20	2	Capacity	58	RC	0	1	23RO	1	0	1.26705098152	-12.0	229.0	-18	229	1
1.7	2015_Aug_12_1459	s	s	20	2	Capacity	59	ABS	0	1	24RO	0	1	5.47933912277	None	None	None	None	1
1.7	2015_Aug_12_1459	s	s	20	2	Capacity	60	ABS	0	2	24RD	0	1	1.49795603752	None	None	None	None	1
1.7	2015_Aug_12_1459	s	s	20	2	Capacity	61	RC	0	2	23RD	1	0	0.587890863419	-227.0	-227.0	-233	-225	1
1.7	2015_Aug_12_1459	s	s	20	2	Capacity	62	ABS	0	1	24RO	0	1	7.14080715179	None	None	None	None	1
1.7	2015_Aug_12_1459	s	s	20	2	Capacity	63	ABS	0	2	24RD	0	1	2.20046496391	None	None	None	None	1
1.7	2015_Aug_12_1459	s	s	20	2	Capacity	64	RC	0	1	23RO	1	0	1.44211697578	145.0	-62.0	151	-60	1
1.7	2015_Aug_12_1459	s	s	20	2	Capacity	65	ABS	0	2	24RD	0	1	3.61971497536	None	None	None	None	1
1.7	2015_Aug_12_1459	s	s	20	2	Capacity	66	RC	0	2	23RD	1	0	0.500587940216	-288.0	-183.0	-286	-181	1
1.7	2015_Aug_12_1459	s	s	20	2	Capacity	67	ABS	0	1	24RO	0	1	7.3510529995	None	None	None	None	1
1.7	2015_Aug_12_1459	s	s	20	2	Capacity	68	RC	0	1	23RO	1	0	1.30096101761	-353.0	296.0	-363	298	1
1.7	2015_Aug_12_1459	s	s	20	2	Capacity	69	RC	0	1	23RO	1	0	4.93780088425	225.0	-394.0	224	-390	1
1.7	2015_Aug_12_1459	s	s	20	2	Capacity	70	ABS	0	2	24RD	0	1	2.24750113487	None	None	None	None	1
1.7	2015_Aug_12_1459	s	s	20	2	Capacity	71	ABS	0	1	24RO	0	1	5.76213097572	None	None	None	None	1
1.7	2015_Aug_12_1459	s	s	20	2	Capacity	72	RC	0	2	23RD	1	0	0.606477022171	194.0	361.0	187	360	1
1.7	2015_Aug_12_1459	s	s	20	2	Capacity	73	ABS	0	2	24RD	0	1	1.72604203224	None	None	None	None	1
1.7	2015_Aug_12_1459	s	s	20	2	Capacity	74	RC	0	2	23RD	1	0	0.564322948456	315.0	-302.0	311	-304	1
1.7	2015_Aug_12_1459	s	s	20	2	Capacity	75	ABS	0	1	24RO	0	1	4.89583492279	None	None	None	None	1
1.7	2015_Aug_12_1459	s	s	20	2	Capacity	76	RC	0	1	23RO	1	0	3.94985508919	341.0	-342.0	349	-342	1
1.7	2015_Aug_12_1459	s	s	20	2	Capacity	77	ABS	0	1	24RO	0	1	5.7549238205	None	None	None	None	1
1.7	2015_Aug_12_1459	s	s	20	2	Capacity	78	ABS	0	2	24RD	0	1	2.65951299667	None	None	None	None	1
1.7	2015_Aug_12_1459	s	s	20	2	Capacity	79	RC	0	1	23RO	1	0	0.940995931625	241.0	52.0	246	50	1
1.7	2015_Aug_12_1459	s	s	20	2	Capacity	80	RC	0	2	23RD	1	0	0.568066120148	-165.0	124.0	-164	120	1
1.7	2015_Aug_12_1459	s	s	20	2	Capacity	81	RC	0	2	23RD	1	0	0.870668888092	372.0	-357.0	369	-365	1
1.7	2015_Aug_12_1459	s	s	20	2	Capacity	82	RC	0	1	23RO	1	0	1.66270494461	211.0	-399.0	208	-396	1
1.7	2015_Aug_12_1459	s	s	20	2	Capacity	83	ABS	0	1	24RO	0	1	5.52694296837	None	None	None	None	1
1.7	2015_Aug_12_1459	s	s	20	2	Capacity	84	ABS	0	2	24RD	0	1	1.39504218102	None	None	None	None	1
1.7	2015_Aug_12_1459	s	s	20	2	Capacity	85	RC	0	2	23RD	1	0	0.4937479496	152.0	202.0	148	204	1
1.7	2015_Aug_12_1459	s	s	20	2	Capacity	86	ABS	0	2	24RD	0	1	1.36010694504	None	None	None	None	1
1.7	2015_Aug_12_1459	s	s	20	2	Capacity	87	RC	0	1	23RO	1	0	0.940981149673	351.0	-76.0	360	-74	1
1.7	2015_Aug_12_1459	s	s	20	2	Capacity	88	ABS	0	1	24RO	0	1	6.26821303368	None	None	None	None	1
1.7	2015_Aug_12_1459	s	s	20	2	Capacity	89	RC	0	1	23RO	1	0	0.793751955032	156.0	217.0	156	222	1
1.7	2015_Aug_12_1459	s	s	20	2	Capacity	90	ABS	0	1	24RO	0	1	5.85602498055	None	None	None	None	1
1.7	2015_Aug_12_1459	s	s	20	2	Capacity	91	RC	0	2	23RD	1	0	0.512148857117	-172.0	174.0	-170	180	1
1.7	2015_Aug_12_1459	s	s	20	2	Capacity	92	ABS	0	2	24RD	0	1	1.17155194283	None	None	None	None	1
1.7	2015_Aug_12_1459	s	s	20	2	Capacity	1	RC	1	0	23MC	0	1	0.811498880386	535.0	85.0	None	None	0
1.7	2015_Aug_12_1459	s	s	20	2	Capacity	2	RC	2	0	23VC	1	0	0.559504985809	-346.0	332.0	-346	334	1
1.7	2015_Aug_12_1459	s	s	20	2	Capacity	3	ABS	2	0	24VC	0	1	1.04686307907	None	None	None	None	1
1.7	2015_Aug_12_1459	s	s	20	2	Capacity	4	ABS	1	0	24MC	0	1	1.4118180275	None	None	None	None	1
1.7	2015_Aug_12_1459	s	s	20	2	Capacity	5	RC	1	0	23MC	1	0	1.03016996384	-270.0	-87.0	-273	-90	1
1.7	2015_Aug_12_1459	s	s	20	2	Capacity	6	ABS	2	0	24VC	0	1	1.64718604088	None	None	None	None	1
1.7	2015_Aug_12_1459	s	s	20	2	Capacity	7	ABS	1	0	24MC	0	1	1.93829107285	None	None	None	None	1
1.7	2015_Aug_12_1459	s	s	20	2	Capacity	8	RC	2	0	23VC	1	0	0.552544116974	4.0	-204.0	-2	-206	1
1.7	2015_Aug_12_1459	s	s	20	2	Capacity	9	ABS	2	0	24VC	0	1	0.964471101761	None	None	None	None	1
1.7	2015_Aug_12_1459	s	s	20	2	Capacity	10	RC	2	0	23VC	1	0	0.532793998718	31.0	-245.0	39	-247	1
1.7	2015_Aug_12_1459	s	s	20	2	Capacity	11	ABS	1	0	24MC	0	1	1.60019898415	None	None	None	None	1
1.7	2015_Aug_12_1459	s	s	20	2	Capacity	12	RC	1	0	23MC	1	0	1.48943686485	96.0	-387.0	107	-384	1
1.7	2015_Aug_12_1459	s	s	20	2	Capacity	13	ABS	1	0	24MC	0	1	6.07993793488	None	None	None	None	1
1.7	2015_Aug_12_1459	s	s	20	2	Capacity	14	RC	1	0	23MC	1	0	0.608190059662	-43.0	159.0	-38	155	1
1.7	2015_Aug_12_1459	s	s	20	2	Capacity	15	RC	2	0	23VC	1	0	0.479772090912	355.0	140.0	350	140	1
1.7	2015_Aug_12_1459	s	s	20	2	Capacity	16	ABS	2	0	24VC	0	1	0.759483098984	None	None	None	None	1
1.7	2015_Aug_12_1459	s	s	20	2	Capacity	17	RC	2	0	23VC	1	0	0.458408117294	63.0	353.0	58	360	1
1.7	2015_Aug_12_1459	s	s	20	2	Capacity	18	ABS	1	0	24MC	0	1	1.10035800934	None	None	None	None	1
1.7	2015_Aug_12_1459	s	s	20	2	Capacity	19	RC	1	0	23MC	1	0	0.912645101547	-128.0	-58.0	-136	-61	1
1.7	2015_Aug_12_1459	s	s	20	2	Capacity	20	ABS	2	0	24VC	0	1	0.658506155014	None	None	None	None	1
1.7	2015_Aug_12_1459	s	s	20	2	Capacity	21	ABS	1	0	24MC	0	1	1.98850798607	None	None	None	None	1
1.7	2015_Aug_12_1459	s	s	20	2	Capacity	22	RC	2	0	23VC	1	0	0.458431005478	117.0	-79.0	125	-74	1
1.7	2015_Aug_12_1459	s	s	20	2	Capacity	23	ABS	2	0	24VC	0	1	0.618266820908	None	None	None	None	1
1.7	2015_Aug_12_1459	s	s	20	2	Capacity	24	RC	1	0	23MC	1	0	1.4305961132	532.0	388.0	524	388	1
1.7	2015_Aug_12_1459	s	s	20	2	Capacity	25	RC	1	0	23MC	1	0	1.08233904839	463.0	-296.0	471	-298	1
1.7	2015_Aug_12_1459	s	s	20	2	Capacity	26	ABS	1	0	24MC	0	1	2.28987598419	None	None	None	None	1
1.7	2015_Aug_12_1459	s	s	20	2	Capacity	27	ABS	2	0	24VC	0	1	0.88214802742	None	None	None	None	1
1.7	2015_Aug_12_1459	s	s	20	2	Capacity	28	RC	2	0	23VC	1	0	0.807293176651	-53.0	-367.0	-55	-371	1
1.7	2015_Aug_12_1459	s	s	20	2	Capacity	29	ABS	2	0	24VC	0	1	1.04111790657	None	None	None	None	1
1.7	2015_Aug_12_1459	s	s	20	2	Capacity	30	RC	2	0	23VC	1	0	0.547436952591	-504.0	-90.0	-508	-93	1
1.7	2015_Aug_12_1459	s	s	20	2	Capacity	31	ABS	1	0	24MC	0	1	1.82375597954	None	None	None	None	1
1.7	2015_Aug_12_1459	s	s	20	2	Capacity	32	RC	1	0	23MC	1	0	0.535962820053	315.0	-55.0	312	-51	1
1.7	2015_Aug_12_1459	s	s	20	2	Capacity	33	RC	2	0	23VC	1	0	0.646743059158	227.0	-265.0	221	-264	1
1.7	2015_Aug_12_1459	s	s	20	2	Capacity	34	RC	1	0	23MC	1	0	0.74777007103	104.0	399.0	104	403	1
1.7	2015_Aug_12_1459	s	s	20	2	Capacity	35	ABS	1	0	24MC	0	1	0.952732801437	None	None	None	None	1
1.7	2015_Aug_12_1459	s	s	20	2	Capacity	36	ABS	2	0	24VC	0	1	0.641014099121	None	None	None	None	1
1.7	2015_Aug_12_1459	s	s	20	2	Capacity	37	ABS	1	0	24MC	0	1	2.35347795486	None	None	None	None	1
1.7	2015_Aug_12_1459	s	s	20	2	Capacity	38	RC	1	0	23MC	1	0	0.905764102936	-443.0	353.0	-445	353	1
1.7	2015_Aug_12_1459	s	s	20	2	Capacity	39	ABS	2	0	24VC	0	1	1.07946586609	None	None	None	None	1
1.7	2015_Aug_12_1459	s	s	20	2	Capacity	40	RC	2	0	23VC	1	0	0.493838071823	-462.0	203.0	-467	203	1
1.7	2015_Aug_12_1459	s	s	20	2	Capacity	41	RC	1	0	23MC	1	0	1.02341485023	524.0	-46.0	522	-40	1
1.7	2015_Aug_12_1459	s	s	20	2	Capacity	42	ABS	2	0	24VC	0	1	0.582714080811	None	None	None	None	1
1.7	2015_Aug_12_1459	s	s	20	2	Capacity	43	ABS	1	0	24MC	0	1	1.83017992973	None	None	None	None	1
1.7	2015_Aug_12_1459	s	s	20	2	Capacity	44	RC	2	0	23VC	1	0	0.476923942566	-50.0	237.0	-51	237	1
1.7	2015_Aug_12_1459	s	s	20	2	Capacity	45	ABS	2	0	24VC	0	1	0.665285825729	None	None	None	None	1
1.7	2015_Aug_12_1459	s	s	20	2	Capacity	46	ABS	1	0	24MC	0	1	2.09447598457	None	None	None	None	1
1.7	2015_Aug_12_1459	s	s	20	2	Capacity	47	RC	2	0	23VC	1	0	0.423089027405	115.0	129.0	111	126	1
1.7	2015_Aug_12_1459	s	s	20	2	Capacity	48	RC	1	0	23MC	1	0	1.03034877777	-165.0	-373.0	-158	-372	1
1.7	2015_Aug_12_1459	s	s	20	2	Capacity	49	ABS	2	0	24VC	0	1	0.952793121338	None	None	None	None	1
1.7	2015_Aug_12_1459	s	s	20	2	Capacity	50	ABS	1	0	24MC	0	1	2.41994595528	None	None	None	None	1
1.7	2015_Aug_12_1459	s	s	20	2	Capacity	51	RC	1	0	23MC	1	0	0.6771671772	169.0	215.0	172	219	1
1.7	2015_Aug_12_1459	s	s	20	2	Capacity	52	RC	2	0	23VC	1	0	0.658490180969	-361.0	-409.0	-364	-414	1
1.7	2015_Aug_12_1459	s	s	20	2	Capacity	53	ABS	1	0	24MC	0	1	2.35345101357	None	None	None	None	1
1.7	2015_Aug_12_1459	s	s	20	2	Capacity	54	ABS	2	0	24VC	0	1	0.693828105927	None	None	None	None	1
1.7	2015_Aug_12_1459	s	s	20	2	Capacity	55	RC	1	0	23MC	1	0	0.890727043152	409.0	-19.0	409	-14	1
1.7	2015_Aug_12_1459	s	s	20	2	Capacity	56	RC	2	0	23VC	1	0	0.476961135864	-142.0	113.0	-144	111	1
1.7	2015_Aug_12_1459	s	s	20	2	Capacity	57	ABS	2	0	24VC	0	1	0.717326164246	None	None	None	None	1
1.7	2015_Aug_12_1459	s	s	20	2	Capacity	58	RC	2	0	23VC	1	0	0.959894895554	225.0	186.0	227	178	1
1.7	2015_Aug_12_1459	s	s	20	2	Capacity	59	ABS	1	0	24MC	0	1	2.44258999825	None	None	None	None	1
1.7	2015_Aug_12_1459	s	s	20	2	Capacity	60	RC	1	0	23MC	1	0	0.623227119446	170.0	72.0	170	68	1
1.7	2015_Aug_12_1459	s	s	20	2	Capacity	61	ABS	1	0	24MC	0	1	1.70607590675	None	None	None	None	1
1.7	2015_Aug_12_1459	s	s	20	2	Capacity	62	ABS	2	0	24VC	0	1	0.875845909119	None	None	None	None	1
1.7	2015_Aug_12_1459	s	s	20	2	Capacity	63	RC	1	0	23MC	1	0	0.964518785477	207.0	-125.0	202	-121	1
1.7	2015_Aug_12_1459	s	s	20	2	Capacity	64	RC	2	0	23VC	1	0	0.594824075699	169.0	361.0	171	361	1
1.7	2015_Aug_12_1459	s	s	20	2	Capacity	65	RC	2	0	23VC	1	0	0.599632978439	99.0	339.0	97	341	1
1.7	2015_Aug_12_1459	s	s	20	2	Capacity	66	ABS	2	0	24VC	0	1	1.30161190033	None	None	None	None	1
1.7	2015_Aug_12_1459	s	s	20	2	Capacity	67	ABS	1	0	24MC	0	1	2.25912594795	None	None	None	None	1
1.7	2015_Aug_12_1459	s	s	20	2	Capacity	68	RC	1	0	23MC	1	0	1.47695302963	230.0	-210.0	225	-211	1
1.7	2015_Aug_12_1459	s	s	20	2	Capacity	69	RC	1	0	23MC	1	0	1.2470459938	244.0	-209.0	252	-210	1
1.7	2015_Aug_12_1459	s	s	20	2	Capacity	70	RC	2	0	23VC	1	0	0.465784788132	-25.0	30.0	-20	27	1
1.7	2015_Aug_12_1459	s	s	20	2	Capacity	71	ABS	2	0	24VC	0	1	0.736521959305	None	None	None	None	1
1.7	2015_Aug_12_1459	s	s	20	2	Capacity	72	ABS	1	0	24MC	0	1	2.56525301933	None	None	None	None	1
1.7	2015_Aug_12_1459	s	s	20	2	Capacity	73	RC	1	0	23MC	1	0	0.794740915298	391.0	-315.0	392	-326	1
1.7	2015_Aug_12_1459	s	s	20	2	Capacity	74	RC	2	0	23VC	1	0	0.570982217789	151.0	145.0	144	148	1
1.7	2015_Aug_12_1459	s	s	20	2	Capacity	75	ABS	2	0	24VC	0	1	0.91742682457	None	None	None	None	1
1.7	2015_Aug_12_1459	s	s	20	2	Capacity	76	ABS	1	0	24MC	0	1	1.83555984497	None	None	None	None	1
1.7	2015_Aug_12_1459	s	s	20	2	Capacity	77	RC	1	0	23MC	1	0	1.29408097267	-173.0	279.0	-181	278	1
1.7	2015_Aug_12_1459	s	s	20	2	Capacity	78	RC	2	0	23VC	1	0	0.55952501297	-404.0	-66.0	-408	-67	1
1.7	2015_Aug_12_1459	s	s	20	2	Capacity	79	ABS	1	0	24MC	0	1	1.89119982719	None	None	None	None	1
1.7	2015_Aug_12_1459	s	s	20	2	Capacity	80	ABS	2	0	24VC	0	1	0.654175043106	None	None	None	None	1
1.7	2015_Aug_12_1459	s	s	20	2	Capacity	81	ABS	1	0	24MC	0	1	1.74138092995	None	None	None	None	1
1.7	2015_Aug_12_1459	s	s	20	2	Capacity	82	RC	1	0	23MC	1	0	0.735924959183	400.0	29.0	402	29	1
1.7	2015_Aug_12_1459	s	s	20	2	Capacity	83	RC	2	0	23VC	1	0	0.594646930695	-120.0	204.0	-122	206	1
1.7	2015_Aug_12_1459	s	s	20	2	Capacity	84	ABS	2	0	24VC	0	1	0.564419031143	None	None	None	None	1
1.7	2015_Aug_12_1459	s	s	20	2	Capacity	85	RC	2	0	23VC	1	0	0.476909160614	-8.0	-41.0	-7	-42	1
1.7	2015_Aug_12_1459	s	s	20	2	Capacity	86	ABS	2	0	24VC	0	1	0.811537981033	None	None	None	None	1
1.7	2015_Aug_12_1459	s	s	20	2	Capacity	87	RC	1	0	23MC	1	0	0.893904924393	375.0	-30.0	369	-32	1
1.7	2015_Aug_12_1459	s	s	20	2	Capacity	88	ABS	1	0	24MC	0	1	0.936069011688	None	None	None	None	1
1.7	2015_Aug_12_1459	s	s	20	2	Capacity	89	RC	1	0	23MC	1	0	0.509132862091	415.0	278.0	425	282	1
1.7	2015_Aug_12_1459	s	s	20	2	Capacity	90	ABS	2	0	24VC	0	1	0.75941491127	None	None	None	None	1
1.7	2015_Aug_12_1459	s	s	20	2	Capacity	91	ABS	1	0	24MC	0	1	2.14163804054	None	None	None	None	1
1.7	2015_Aug_12_1459	s	s	20	2	Capacity	92	RC	2	0	23VC	1	0	0.535747051239	-472.0	-343.0	-468	-340	1
1.7	2015_Aug_12_1459	s	s	20	2	SIC	1	ABS	1	2	24MD	0	1	1.18335294724	None	None	None	None	1
1.7	2015_Aug_12_1459	s	s	20	2	SIC	2	RC	1	1	23MO	1	0	1.72962284088	-328.0	-148.0	-320	-145	1
1.7	2015_Aug_12_1459	s	s	20	2	SIC	3	RC	1	2	23MD	1	0	0.63499712944	354.0	187.0	357	184	1
1.7	2015_Aug_12_1459	s	s	20	2	SIC	4	RC	1	0	23MC	0	1	1.23528194427	-83.0	-248.0	None	None	0
1.7	2015_Aug_12_1459	s	s	20	2	SIC	5	RC	0	1	23RO	0	1	4.08378601074	9.0	369.0	None	None	0
1.7	2015_Aug_12_1459	s	s	20	2	SIC	6	ABS	2	1	24VO	0	1	0.905682086945	None	None	None	None	1
1.7	2015_Aug_12_1459	s	s	20	2	SIC	7	ABS	0	2	24RD	0	1	1.67745494843	None	None	None	None	1
1.7	2015_Aug_12_1459	s	s	20	2	SIC	8	ABS	1	1	24MO	0	1	1.55975604057	None	None	None	None	1
1.7	2015_Aug_12_1459	s	s	20	2	SIC	9	ABS	2	0	24VC	0	1	0.948046922684	None	None	None	None	1
1.7	2015_Aug_12_1459	s	s	20	2	SIC	10	RC	0	2	23RD	1	0	0.571130990982	-256.0	-225.0	-250	-230	1
1.7	2015_Aug_12_1459	s	s	20	2	SIC	11	RC	2	1	23VO	1	0	0.505459070206	115.0	116.0	109	120	1
1.7	2015_Aug_12_1459	s	s	20	2	SIC	12	RC	2	0	23VC	1	0	0.61832690239	-444.0	184.0	-445	184	1
1.7	2015_Aug_12_1459	s	s	20	2	SIC	13	ABS	2	2	24VD	0	1	0.776213169098	None	None	None	None	1
1.7	2015_Aug_12_1459	s	s	20	2	SIC	14	RC	2	2	23VD	1	0	0.48886013031	384.0	-122.0	376	-120	1
1.7	2015_Aug_12_1459	s	s	20	2	SIC	15	ABS	0	1	24RO	0	1	3.98479914665	None	None	None	None	1
1.7	2015_Aug_12_1459	s	s	20	2	SIC	16	ABS	1	0	24MC	0	1	1.83549118042	None	None	None	None	1
1.7	2015_Aug_12_1459	s	s	20	2	SIC	17	RC	2	1	23VO	1	0	0.53590297699	-487.0	16.0	-477	19	1
1.7	2015_Aug_12_1459	s	s	20	2	SIC	18	ABS	1	0	24MC	0	1	1.22354912758	None	None	None	None	1
1.7	2015_Aug_12_1459	s	s	20	2	SIC	19	RC	1	1	23MO	1	0	1.11755299568	-284.0	-2.0	-289	0	1
1.7	2015_Aug_12_1459	s	s	20	2	SIC	20	ABS	2	1	24VO	0	1	0.629957199097	None	None	None	None	1
1.7	2015_Aug_12_1459	s	s	20	2	SIC	21	ABS	1	2	24MD	0	1	1.2680118084	None	None	None	None	1
1.7	2015_Aug_12_1459	s	s	20	2	SIC	22	ABS	1	1	24MO	0	1	1.4508600235	None	None	None	None	1
1.7	2015_Aug_12_1459	s	s	20	2	SIC	23	RC	1	2	23MD	1	0	0.512343883514	-157.0	-280.0	-152	-280	1
1.7	2015_Aug_12_1459	s	s	20	2	SIC	24	ABS	2	0	24VC	0	1	0.665402889252	None	None	None	None	1
1.7	2015_Aug_12_1459	s	s	20	2	SIC	25	RC	0	1	23RO	1	0	6.16232395172	400.0	164.0	401	167	1
1.7	2015_Aug_12_1459	s	s	20	2	SIC	26	RC	2	2	23VD	1	0	0.559356927872	278.0	297.0	283	290	1
1.7	2015_Aug_12_1459	s	s	20	2	SIC	27	RC	1	0	23MC	1	0	1.5765850544	-352.0	-359.0	-355	-365	1
1.7	2015_Aug_12_1459	s	s	20	2	SIC	28	ABS	2	2	24VD	0	1	0.643470048904	None	None	None	None	1
1.7	2015_Aug_12_1459	s	s	20	2	SIC	29	ABS	0	2	24RD	0	1	1.63213610649	None	None	None	None	1
1.7	2015_Aug_12_1459	s	s	20	2	SIC	30	RC	0	2	23RD	1	0	0.535840034485	-332.0	82.0	-322	86	1
1.7	2015_Aug_12_1459	s	s	20	2	SIC	31	RC	2	0	23VC	1	0	0.529027938843	426.0	11.0	424	10	1
1.7	2015_Aug_12_1459	s	s	20	2	SIC	32	ABS	0	1	24RO	0	1	6.1145401001	None	None	None	None	1
1.7	2015_Aug_12_1459	s	s	20	2	SIC	33	ABS	0	1	24RO	0	1	5.30286693573	None	None	None	None	1
1.7	2015_Aug_12_1459	s	s	20	2	SIC	34	ABS	2	0	24VC	0	1	0.959733009338	None	None	None	None	1
1.7	2015_Aug_12_1459	s	s	20	2	SIC	35	ABS	1	0	24MC	0	1	2.30637001991	None	None	None	None	1
1.7	2015_Aug_12_1459	s	s	20	2	SIC	36	ABS	1	2	24MD	0	1	1.03510093689	None	None	None	None	1
1.7	2015_Aug_12_1459	s	s	20	2	SIC	37	ABS	1	1	24MO	0	1	1.91283583641	None	None	None	None	1
1.7	2015_Aug_12_1459	s	s	20	2	SIC	38	RC	1	2	23MD	1	0	0.512722015381	4.0	112.0	6	109	1
1.7	2015_Aug_12_1459	s	s	20	2	SIC	39	ABS	2	1	24VO	0	1	0.599617004395	None	None	None	None	1
1.7	2015_Aug_12_1459	s	s	20	2	SIC	40	ABS	0	2	24RD	0	1	1.72500896454	None	None	None	None	1
1.7	2015_Aug_12_1459	s	s	20	2	SIC	41	RC	0	1	23RO	1	0	1.11758899689	-254.0	-318.0	-248	-315	1
1.7	2015_Aug_12_1459	s	s	20	2	SIC	42	RC	1	1	23MO	1	0	0.874104976654	404.0	203.0	400	203	1
1.7	2015_Aug_12_1459	s	s	20	2	SIC	43	ABS	2	2	24VD	0	1	0.858590126038	None	None	None	None	1
1.7	2015_Aug_12_1459	s	s	20	2	SIC	44	RC	0	2	23RD	1	0	0.552628993988	150.0	376.0	161	376	1
1.7	2015_Aug_12_1459	s	s	20	2	SIC	45	RC	2	2	23VD	1	0	0.858764886856	-489.0	-378.0	-481	-382	1
1.7	2015_Aug_12_1459	s	s	20	2	SIC	46	RC	2	1	23VO	1	0	0.646648168564	283.0	183.0	276	182	1
1.7	2015_Aug_12_1459	s	s	20	2	SIC	47	RC	2	0	23VC	1	0	0.584526062012	109.0	404.0	112	406	1
1.7	2015_Aug_12_1459	s	s	20	2	SIC	48	RC	1	0	23MC	1	0	2.11836194992	-345.0	-383.0	-348	-386	1
1.7	2015_Aug_12_1459	s	s	20	2	SIC	49	ABS	0	2	24RD	0	1	1.45889616013	None	None	None	None	1
1.7	2015_Aug_12_1459	s	s	20	2	SIC	50	ABS	1	1	24MO	0	1	1.55993485451	None	None	None	None	1
1.7	2015_Aug_12_1459	s	s	20	2	SIC	51	ABS	2	0	24VC	0	1	0.681955814362	None	None	None	None	1
1.7	2015_Aug_12_1459	s	s	20	2	SIC	52	ABS	1	2	24MD	0	1	0.818474054337	None	None	None	None	1
1.7	2015_Aug_12_1459	s	s	20	2	SIC	53	RC	1	1	23MO	1	0	0.611424922943	312.0	-322.0	309	-325	1
1.7	2015_Aug_12_1459	s	s	20	2	SIC	54	RC	0	1	23RO	1	0	2.79588913918	-48.0	283.0	-42	286	1
1.7	2015_Aug_12_1459	s	s	20	2	SIC	55	RC	2	0	23VC	1	0	0.488882064819	-204.0	-193.0	-204	-194	1
1.7	2015_Aug_12_1459	s	s	20	2	SIC	56	ABS	0	1	24RO	0	1	4.78507304192	None	None	None	None	1
1.7	2015_Aug_12_1459	s	s	20	2	SIC	57	RC	0	2	23RD	1	0	0.547868013382	-110.0	-110.0	-104	-106	1
1.7	2015_Aug_12_1459	s	s	20	2	SIC	58	ABS	1	0	24MC	0	1	1.31224298477	None	None	None	None	1
1.7	2015_Aug_12_1459	s	s	20	2	SIC	59	RC	1	2	23MD	1	0	0.53827214241	-38.0	29.0	-33	30	1
1.7	2015_Aug_12_1459	s	s	20	2	SIC	60	RC	2	2	23VD	1	0	0.493697881699	-313.0	-150.0	-311	-151	1
1.7	2015_Aug_12_1459	s	s	20	2	SIC	61	RC	1	0	23MC	1	0	1.32458400726	154.0	106.0	79	-179	0
1.7	2015_Aug_12_1459	s	s	20	2	SIC	62	RC	2	1	23VO	1	0	0.540766954422	-439.0	11.0	-437	10	1
1.7	2015_Aug_12_1459	s	s	20	2	SIC	63	ABS	2	1	24VO	0	1	0.705578804016	None	None	None	None	1
1.7	2015_Aug_12_1459	s	s	20	2	SIC	64	ABS	2	2	24VD	0	1	0.806807041168	None	None	None	None	1
1.7	2015_Aug_12_1459	s	s	20	2	SIC	65	ABS	2	1	24VO	0	1	0.752762079239	None	None	None	None	1
1.7	2015_Aug_12_1459	s	s	20	2	SIC	66	RC	0	1	23RO	1	0	4.11906790733	-385.0	-281.0	-376	-280	1
1.7	2015_Aug_12_1459	s	s	20	2	SIC	67	ABS	2	0	24VC	0	1	0.594714164734	None	None	None	None	1
1.7	2015_Aug_12_1459	s	s	20	2	SIC	68	ABS	2	2	24VD	0	1	0.623194932938	None	None	None	None	1
1.7	2015_Aug_12_1459	s	s	20	2	SIC	69	RC	2	0	23VC	1	0	0.564382076263	-440.0	78.0	-450	79	1
1.7	2015_Aug_12_1459	s	s	20	2	SIC	70	RC	2	2	23VD	1	0	0.435077905655	139.0	184.0	141	183	1
1.7	2015_Aug_12_1459	s	s	20	2	SIC	71	ABS	0	1	24RO	0	1	9.05793881416	None	None	None	None	1
1.7	2015_Aug_12_1459	s	s	20	2	SIC	72	RC	1	0	23MC	1	0	0.858606100082	315.0	-195.0	321	-198	1
1.7	2015_Aug_12_1459	s	s	20	2	SIC	73	RC	2	1	23VO	1	0	0.481915950775	56.0	-57.0	50	-59	1
1.7	2015_Aug_12_1459	s	s	20	2	SIC	74	RC	0	2	23RD	1	0	0.454591035843	25.0	-99.0	24	-108	1
1.7	2015_Aug_12_1459	s	s	20	2	SIC	75	RC	1	1	23MO	1	0	0.481989145279	128.0	54.0	124	54	1
1.7	2015_Aug_12_1459	s	s	20	2	SIC	76	RC	1	2	23MD	1	0	0.4652531147	36.0	204.0	41	209	1
1.7	2015_Aug_12_1459	s	s	20	2	SIC	77	ABS	0	2	24RD	0	1	0.858610153198	None	None	None	None	1
1.7	2015_Aug_12_1459	s	s	20	2	SIC	78	ABS	1	0	24MC	0	1	1.6355240345	None	None	None	None	1
1.7	2015_Aug_12_1459	s	s	20	2	SIC	79	ABS	1	1	24MO	0	1	2.01215100288	None	None	None	None	1
1.7	2015_Aug_12_1459	s	s	20	2	SIC	80	ABS	1	2	24MD	0	1	0.776491880417	None	None	None	None	1
1.7	2015_Aug_12_1459	s	s	20	2	SIC	81	ABS	1	1	24MO	0	1	0.988101005554	None	None	None	None	1
1.7	2015_Aug_12_1459	s	s	20	2	SIC	82	ABS	2	1	24VO	0	1	0.900871992111	None	None	None	None	1
1.7	2015_Aug_12_1459	s	s	20	2	SIC	83	ABS	1	0	24MC	0	1	1.33629512787	None	None	None	None	1
1.7	2015_Aug_12_1459	s	s	20	2	SIC	84	RC	1	2	23MD	1	0	0.67689204216	493.0	162.0	496	162	1
1.7	2015_Aug_12_1459	s	s	20	2	SIC	85	ABS	2	2	24VD	0	1	0.523738861084	None	None	None	None	1
1.7	2015_Aug_12_1459	s	s	20	2	SIC	86	ABS	0	2	24RD	0	1	1.71775698662	None	None	None	None	1
1.7	2015_Aug_12_1459	s	s	20	2	SIC	87	RC	2	2	23VD	1	0	0.63502907753	68.0	193.0	64	200	1
1.7	2015_Aug_12_1459	s	s	20	2	SIC	88	RC	2	1	23VO	1	0	0.552474021912	-114.0	-307.0	-117	-309	1
1.7	2015_Aug_12_1459	s	s	20	2	SIC	89	ABS	2	0	24VC	0	1	1.05494403839	None	None	None	None	1
1.7	2015_Aug_12_1459	s	s	20	2	SIC	90	RC	0	1	23RO	1	0	2.93715500832	151.0	336.0	152	333	1
1.7	2015_Aug_12_1459	s	s	20	2	SIC	91	ABS	1	2	24MD	0	1	0.75935292244	None	None	None	None	1
1.7	2015_Aug_12_1459	s	s	20	2	SIC	92	ABS	0	1	24RO	0	1	5.12632918358	None	None	None	None	1
1.7	2015_Aug_12_1459	s	s	20	2	SIC	93	RC	2	0	23VC	1	0	0.529034137726	-228.0	305.0	-223	307	1
1.7	2015_Aug_12_1459	s	s	20	2	SIC	94	RC	1	1	23MO	1	0	0.725915908813	451.0	-85.0	452	-82	1
1.7	2015_Aug_12_1459	s	s	20	2	SIC	95	RC	1	0	23MC	1	0	0.924148082733	427.0	30.0	427	32	1
1.7	2015_Aug_12_1459	s	s	20	2	SIC	96	RC	0	2	23RD	1	0	0.500549077988	-414.0	-30.0	-415	-33	1
1.7	2015_Aug_12_1459	s	s	20	2	SIC	97	ABS	2	0	24VC	0	1	0.606634140015	None	None	None	None	1
1.7	2015_Aug_12_1459	s	s	20	2	SIC	98	ABS	2	2	24VD	0	1	0.524287939072	None	None	None	None	1
1.7	2015_Aug_12_1459	s	s	20	2	SIC	99	RC	2	2	23VD	1	0	0.481981992722	-246.0	59.0	-244	64	1
1.7	2015_Aug_12_1459	s	s	20	2	SIC	100	RC	0	2	23RD	1	0	0.776147127151	-230.0	352.0	-230	354	1
1.7	2015_Aug_12_1459	s	s	20	2	SIC	101	ABS	0	2	24RD	0	1	0.776207208633	None	None	None	None	1
1.7	2015_Aug_12_1459	s	s	20	2	SIC	102	ABS	1	2	24MD	0	1	0.59460401535	None	None	None	None	1
1.7	2015_Aug_12_1459	s	s	20	2	SIC	103	RC	1	0	23MC	1	0	1.46593904495	495.0	-367.0	501	-363	1
1.7	2015_Aug_12_1459	s	s	20	2	SIC	104	ABS	2	1	24VO	0	1	0.576142072678	None	None	None	None	1
1.7	2015_Aug_12_1459	s	s	20	2	SIC	105	RC	2	1	23VO	1	0	0.517284870148	-188.0	247.0	-183	247	1
1.7	2015_Aug_12_1459	s	s	20	2	SIC	106	RC	2	0	23VC	1	0	0.493758201599	435.0	-36.0	430	-40	1
1.7	2015_Aug_12_1459	s	s	20	2	SIC	107	ABS	1	1	24MO	0	1	1.32937812805	None	None	None	None	1
1.7	2015_Aug_12_1459	s	s	20	2	SIC	108	ABS	0	1	24RO	0	1	4.6251809597	None	None	None	None	1
1.7	2015_Aug_12_1459	s	s	20	2	SIC	109	RC	1	1	23MO	1	0	0.571316957474	189.0	143.0	195	139	1
1.7	2015_Aug_12_1459	s	s	20	2	SIC	110	RC	1	2	23MD	1	0	0.493759870529	-387.0	-309.0	-399	-301	1
1.7	2015_Aug_12_1459	s	s	20	2	SIC	111	ABS	1	0	24MC	0	1	2.41943383217	None	None	None	None	1
1.7	2015_Aug_12_1459	s	s	20	2	SIC	112	RC	0	1	23RO	1	0	2.41243696213	71.0	174.0	62	176	1
1.7	2015_Aug_12_1459	s	s	20	2	SIC	113	RC	1	2	23MD	1	0	0.547610998154	114.0	51.0	112	50	1
1.7	2015_Aug_12_1459	s	s	20	2	SIC	114	ABS	1	2	24MD	0	1	1.49427103996	None	None	None	None	1
1.7	2015_Aug_12_1459	s	s	20	2	SIC	115	ABS	2	0	24VC	0	1	0.744710206985	None	None	None	None	1
1.7	2015_Aug_12_1459	s	s	20	2	SIC	116	RC	2	1	23VO	1	0	0.500607967377	-380.0	-216.0	-384	-211	1
1.7	2015_Aug_12_1459	s	s	20	2	SIC	117	ABS	1	1	24MO	0	1	2.15341591835	None	None	None	None	1
1.7	2015_Aug_12_1459	s	s	20	2	SIC	118	RC	0	2	23RD	1	0	1.06585478783	-511.0	283.0	-509	281	1
1.7	2015_Aug_12_1459	s	s	20	2	SIC	119	ABS	0	1	24RO	0	1	4.42500495911	None	None	None	None	1
1.7	2015_Aug_12_1459	s	s	20	2	SIC	120	RC	0	1	23RO	1	0	1.07740592957	300.0	-140.0	300	-147	1
1.7	2015_Aug_12_1459	s	s	20	2	SIC	121	ABS	2	2	24VD	0	1	0.65526008606	None	None	None	None	1
1.7	2015_Aug_12_1459	s	s	20	2	SIC	122	RC	2	0	23VC	1	0	0.623130083084	-138.0	-69.0	-139	-66	1
1.7	2015_Aug_12_1459	s	s	20	2	SIC	123	ABS	1	0	24MC	0	1	1.78360795975	None	None	None	None	1
1.7	2015_Aug_12_1459	s	s	20	2	SIC	124	RC	1	1	23MO	1	0	0.9174721241	-321.0	-120.0	-323	-117	1
1.7	2015_Aug_12_1459	s	s	20	2	SIC	125	ABS	2	1	24VO	0	1	0.632483005524	None	None	None	None	1
1.7	2015_Aug_12_1459	s	s	20	2	SIC	126	RC	1	0	23MC	1	0	0.799870967865	-85.0	-364.0	-88	-366	1
1.7	2015_Aug_12_1459	s	s	20	2	SIC	127	ABS	0	2	24RD	0	1	2.36011910439	None	None	None	None	1
1.7	2015_Aug_12_1459	s	s	20	2	SIC	128	RC	2	2	23VD	1	0	0.552547931671	-263.0	-127.0	-269	-130	1
1.7	2015_Aug_12_1459	s	s	20	2	SIC	129	ABS	2	0	24VC	0	1	0.658663034439	None	None	None	None	1
1.7	2015_Aug_12_1459	s	s	20	2	SIC	130	ABS	0	2	24RD	0	1	1.33614397049	None	None	None	None	1
1.7	2015_Aug_12_1459	s	s	20	2	SIC	131	ABS	2	2	24VD	0	1	0.500658035278	None	None	None	None	1
1.7	2015_Aug_12_1459	s	s	20	2	SIC	132	ABS	1	0	24MC	0	1	1.16460609436	None	None	None	None	1
1.7	2015_Aug_12_1459	s	s	20	2	SIC	133	ABS	1	1	24MO	0	1	0.87037396431	None	None	None	None	1
1.7	2015_Aug_12_1459	s	s	20	2	SIC	134	RC	0	1	23RO	1	0	2.21223711967	-508.0	258.0	-508	258	1
1.7	2015_Aug_12_1459	s	s	20	2	SIC	135	RC	1	1	23MO	0	1	0.787867069244	524.0	294.0	None	None	0
1.7	2015_Aug_12_1459	s	s	20	2	SIC	136	RC	1	2	23MD	1	0	0.782318115234	349.0	-236.0	359	-237	1
1.7	2015_Aug_12_1459	s	s	20	2	SIC	137	RC	2	0	23VC	1	0	0.494089841843	452.0	203.0	460	200	1
1.7	2015_Aug_12_1459	s	s	20	2	SIC	138	RC	1	0	23MC	1	0	1.0940489769	-135.0	-205.0	-129	-206	1
1.7	2015_Aug_12_1459	s	s	20	2	SIC	139	RC	2	1	23VO	1	0	0.505580186844	55.0	-311.0	56	-304	1
1.7	2015_Aug_12_1459	s	s	20	2	SIC	140	RC	0	2	23RD	1	0	0.529053211212	-113.0	-158.0	-112	-164	1
1.7	2015_Aug_12_1459	s	s	20	2	SIC	141	ABS	2	1	24VO	0	1	0.571074008942	None	None	None	None	1
1.7	2015_Aug_12_1459	s	s	20	2	SIC	142	ABS	0	1	24RO	0	1	4.47892808914	None	None	None	None	1
1.7	2015_Aug_12_1459	s	s	20	2	SIC	143	RC	2	2	23VD	1	0	0.49369597435	-507.0	222.0	-502	227	1
1.7	2015_Aug_12_1459	s	s	20	2	SIC	144	ABS	1	2	24MD	0	1	0.740875005722	None	None	None	None	1
1.7	2015_Aug_12_1459	s	s	20	2	SIC	145	ABS	1	2	24MD	0	1	0.583375930786	None	None	None	None	1
1.7	2015_Aug_12_1459	s	s	20	2	SIC	146	ABS	1	0	24MC	0	1	1.50611996651	None	None	None	None	1
1.7	2015_Aug_12_1459	s	s	20	2	SIC	147	RC	0	2	23RD	1	0	0.536288022995	307.0	-228.0	318	-226	1
1.7	2015_Aug_12_1459	s	s	20	2	SIC	148	RC	1	2	23MD	1	0	0.465517044067	-361.0	129.0	-368	126	1
1.7	2015_Aug_12_1459	s	s	20	2	SIC	149	RC	0	1	23RO	1	0	1.48916697502	244.0	-40.0	244	-38	1
1.7	2015_Aug_12_1459	s	s	20	2	SIC	150	RC	2	2	23VD	1	0	0.524127960205	-272.0	-331.0	-269	-328	1
1.7	2015_Aug_12_1459	s	s	20	2	SIC	151	ABS	0	1	24RO	0	1	4.96149396896	None	None	None	None	1
1.7	2015_Aug_12_1459	s	s	20	2	SIC	152	RC	1	0	23MC	1	0	0.90317606926	-431.0	161.0	-439	166	1
1.7	2015_Aug_12_1459	s	s	20	2	SIC	153	ABS	2	2	24VD	0	1	0.747515916824	None	None	None	None	1
1.7	2015_Aug_12_1459	s	s	20	2	SIC	154	RC	2	1	23VO	1	0	0.43482208252	438.0	-272.0	437	-276	1
1.7	2015_Aug_12_1459	s	s	20	2	SIC	155	RC	1	1	23MO	1	0	1.06471800804	-111.0	364.0	-109	365	1
1.7	2015_Aug_12_1459	s	s	20	2	SIC	156	RC	2	0	23VC	1	0	0.700645923615	524.0	391.0	526	391	1
1.7	2015_Aug_12_1459	s	s	20	2	SIC	157	ABS	0	2	24RD	0	1	1.4799220562	None	None	None	None	1
1.7	2015_Aug_12_1459	s	s	20	2	SIC	158	ABS	2	0	24VC	0	1	0.705606937408	None	None	None	None	1
1.7	2015_Aug_12_1459	s	s	20	2	SIC	159	ABS	1	1	24MO	0	1	2.07771801949	None	None	None	None	1
1.7	2015_Aug_12_1459	s	s	20	2	SIC	160	ABS	2	1	24VO	0	1	0.642246961594	None	None	None	None	1
1.7	2015_Aug_12_1459	s	s	20	2	SIC	161	RC	2	0	23VC	1	0	0.466716051102	-517.0	6.0	-520	-3	1
1.7	2015_Aug_12_1459	s	s	20	2	SIC	162	ABS	2	2	24VD	1	0	0.535705089569	None	None	77	-46	0
1.7	2015_Aug_12_1459	s	s	20	2	SIC	163	RC	0	2	23RD	1	0	0.512346982956	-18.0	51.0	-20	45	1
1.7	2015_Aug_12_1459	s	s	20	2	SIC	164	ABS	1	0	24MC	0	1	1.57164502144	None	None	None	None	1
1.7	2015_Aug_12_1459	s	s	20	2	SIC	165	RC	0	1	23RO	1	0	4.46048092842	412.0	399.0	409	401	1
1.7	2015_Aug_12_1459	s	s	20	2	SIC	166	RC	2	1	23VO	1	0	0.599503993988	-108.0	361.0	-112	362	1
1.7	2015_Aug_12_1459	s	s	20	2	SIC	167	RC	1	0	23MC	1	0	1.34100103378	81.0	-61.0	89	-56	1
1.7	2015_Aug_12_1459	s	s	20	2	SIC	168	RC	2	2	23VD	1	0	0.477385044098	-166.0	411.0	-164	415	1
1.7	2015_Aug_12_1459	s	s	20	2	SIC	169	RC	1	2	23MD	1	0	0.50049495697	168.0	173.0	168	174	1
1.7	2015_Aug_12_1459	s	s	20	2	SIC	170	ABS	0	2	24RD	0	1	0.776210069656	None	None	None	None	1
1.7	2015_Aug_12_1459	s	s	20	2	SIC	171	RC	1	1	23MO	1	0	0.482006072998	41.0	196.0	43	199	1
1.7	2015_Aug_12_1459	s	s	20	2	SIC	172	ABS	2	1	24VO	0	1	0.585572957993	None	None	None	None	1
1.7	2015_Aug_12_1459	s	s	20	2	SIC	173	ABS	0	1	24RO	0	1	4.43686699867	None	None	None	None	1
1.7	2015_Aug_12_1459	s	s	20	2	SIC	174	ABS	1	2	24MD	0	1	1.30591011047	None	None	None	None	1
1.7	2015_Aug_12_1459	s	s	20	2	SIC	175	ABS	1	1	24MO	0	1	1.7601480484	None	None	None	None	1
1.7	2015_Aug_12_1459	s	s	20	2	SIC	176	ABS	2	0	24VC	0	1	0.606467008591	None	None	None	None	1
1.7	2015_Aug_12_1459	s	s	20	2	SIC	177	RC	0	2	23RD	1	0	0.528900146484	11.0	364.0	14	362	1
1.7	2015_Aug_12_1459	s	s	20	2	SIC	178	RC	1	0	23MC	1	0	1.26573705673	167.0	249.0	160	251	1
1.7	2015_Aug_12_1459	s	s	20	2	SIC	179	ABS	1	2	24MD	0	1	0.665376186371	None	None	None	None	1
1.7	2015_Aug_12_1459	s	s	20	2	SIC	180	RC	2	1	23VO	1	0	0.705548048019	400.0	-387.0	404	-387	1
1.7	2015_Aug_12_1459	s	s	20	2	SIC	181	ABS	2	0	24VC	0	1	0.559406995773	None	None	None	None	1
1.7	2015_Aug_12_1459	s	s	20	2	SIC	182	RC	2	2	23VD	1	0	0.693843841553	395.0	-50.0	393	-46	1
1.7	2015_Aug_12_1459	s	s	20	2	SIC	183	ABS	2	1	24VO	0	1	1.07036018372	None	None	None	None	1
1.7	2015_Aug_12_1459	s	s	20	2	SIC	184	ABS	1	0	24MC	0	1	2.26631212234	None	None	None	None	1
1.7	2015_Aug_12_1459	s	s	20	2	SIC	185	ABS	2	2	24VD	0	1	1.08221888542	None	None	None	None	1
1.7	2015_Aug_12_1459	s	s	20	2	SIC	186	ABS	1	1	24MO	0	1	1.37655997276	None	None	None	None	1
1.7	2015_Aug_12_1459	s	s	20	2	SIC	187	RC	1	2	23MD	1	0	0.526338100433	143.0	128.0	138	135	1
1.7	2015_Aug_12_1459	s	s	20	2	SIC	188	RC	1	1	23MO	1	0	0.864922046661	194.0	-321.0	189	-315	1
1.7	2015_Aug_12_1459	s	s	20	2	SIC	189	ABS	0	2	24RD	0	1	1.2775080204	None	None	None	None	1
1.7	2015_Aug_12_1459	s	s	20	2	SIC	190	RC	0	1	23RO	1	0	2.56544709206	-118.0	46.0	-121	50	1
1.7	2015_Aug_12_1459	s	s	20	2	SIC	191	RC	2	0	23VC	1	0	0.552580118179	-384.0	253.0	-392	254	1
1.7	2015_Aug_12_1459	s	s	20	2	SIC	192	ABS	0	1	24RO	0	1	6.01397776604	None	None	None	None	1
1.7	2015_Aug_12_1459	s	s	20	2	SIC	193	RC	1	1	23MO	1	0	0.688733816147	287.0	-192.0	282	-191	1
1.7	2015_Aug_12_1459	s	s	20	2	SIC	194	RC	2	2	23VD	1	0	0.823287010193	-212.0	140.0	-205	136	1
1.7	2015_Aug_12_1459	s	s	20	2	SIC	195	RC	1	2	23MD	1	0	0.547858953476	154.0	20.0	163	16	1
1.7	2015_Aug_12_1459	s	s	20	2	SIC	196	RC	0	2	23RD	1	0	0.688891887665	-413.0	-241.0	-423	-237	1
1.7	2015_Aug_12_1459	s	s	20	2	SIC	197	ABS	1	0	24MC	0	1	3.45484995842	None	None	None	None	1
1.7	2015_Aug_12_1459	s	s	20	2	SIC	198	ABS	0	1	24RO	0	1	3.54223203659	None	None	None	None	1
1.7	2015_Aug_12_1459	s	s	20	2	SIC	199	ABS	0	2	24RD	0	1	1.75322008133	None	None	None	None	1
1.7	2015_Aug_12_1459	s	s	20	2	SIC	200	ABS	2	0	24VC	0	1	0.665957927704	None	None	None	None	1
1.7	2015_Aug_12_1459	s	s	20	2	SIC	201	ABS	2	2	24VD	0	1	0.45358300209	None	None	None	None	1
1.7	2015_Aug_12_1459	s	s	20	2	SIC	202	ABS	1	2	24MD	0	1	0.748758792877	None	None	None	None	1
1.7	2015_Aug_12_1459	s	s	20	2	SIC	203	ABS	1	1	24MO	0	1	1.41872692108	None	None	None	None	1
1.7	2015_Aug_12_1459	s	s	20	2	SIC	204	RC	1	0	23MC	1	0	0.806228876114	483.0	-407.0	478	-407	1
1.7	2015_Aug_12_1459	s	s	20	2	SIC	205	RC	2	1	23VO	1	0	0.583039999008	46.0	367.0	43	372	1
1.7	2015_Aug_12_1459	s	s	20	2	SIC	206	RC	0	1	23RO	1	0	2.83980607986	-269.0	-73.0	-274	-64	1
1.7	2015_Aug_12_1459	s	s	20	2	SIC	207	RC	2	0	23VC	1	0	0.564348936081	167.0	-88.0	165	-86	1
1.7	2015_Aug_12_1459	s	s	20	2	SIC	208	ABS	2	1	24VO	0	1	0.617835998535	None	None	None	None	1
1.7	2015_Aug_12_1459	s	s	20	2	SIC	209	RC	0	2	23RD	1	0	0.564357042313	-114.0	-371.0	-118	-368	1
1.7	2015_Aug_12_1459	s	s	20	2	SIC	210	ABS	0	2	24RD	0	1	0.893886089325	None	None	None	None	1
1.7	2015_Aug_12_1459	s	s	20	2	SIC	211	RC	2	2	23VD	1	0	0.446609973907	-87.0	203.0	-94	206	1
1.7	2015_Aug_12_1459	s	s	20	2	SIC	212	RC	1	1	23MO	1	0	0.712453126907	141.0	284.0	147	278	1
1.7	2015_Aug_12_1459	s	s	20	2	SIC	213	RC	1	2	23MD	1	0	0.634911060333	115.0	-312.0	115	-308	1
1.7	2015_Aug_12_1459	s	s	20	2	SIC	214	RC	2	1	23VO	1	0	0.517289876938	288.0	-246.0	280	-247	1
1.7	2015_Aug_12_1459	s	s	20	2	SIC	215	ABS	1	2	24MD	0	1	0.947708845139	None	None	None	None	1
1.7	2015_Aug_12_1459	s	s	20	2	SIC	216	RC	0	1	23RO	1	0	2.90665602684	-212.0	56.0	-214	59	1
1.7	2015_Aug_12_1459	s	s	20	2	SIC	217	RC	1	0	23MC	1	0	0.948014974594	383.0	-367.0	388	-377	1
1.7	2015_Aug_12_1459	s	s	20	2	SIC	218	ABS	0	1	24RO	0	1	3.43160295486	None	None	None	None	1
1.7	2015_Aug_12_1459	s	s	20	2	SIC	219	ABS	2	2	24VD	0	1	0.844397068024	None	None	None	None	1
1.7	2015_Aug_12_1459	s	s	20	2	SIC	220	ABS	1	1	24MO	0	1	0.952767133713	None	None	None	None	1
1.7	2015_Aug_12_1459	s	s	20	2	SIC	221	ABS	2	0	24VC	0	1	0.878807067871	None	None	None	None	1
1.7	2015_Aug_12_1459	s	s	20	2	SIC	222	RC	2	0	23VC	1	0	0.493731021881	149.0	-88.0	152	-84	1
1.7	2015_Aug_12_1459	s	s	20	2	SIC	223	ABS	2	1	24VO	1	0	0.595098972321	None	None	75	-71	0
1.7	2015_Aug_12_1459	s	s	20	2	SIC	224	ABS	1	0	24MC	0	1	1.72519207001	None	None	None	None	1
1.7	2015_Aug_12_1459	s	s	20	2	SIC	225	ABS	2	2	24VD	0	1	0.493740081787	None	None	None	None	1
1.7	2015_Aug_12_1459	s	s	20	2	SIC	226	ABS	1	1	24MO	0	1	2.14835119247	None	None	None	None	1
1.7	2015_Aug_12_1459	s	s	20	2	SIC	227	ABS	1	2	24MD	0	1	0.599649190903	None	None	None	None	1
1.7	2015_Aug_12_1459	s	s	20	2	SIC	228	ABS	0	1	24RO	0	1	3.2870631218	None	None	None	None	1
1.7	2015_Aug_12_1459	s	s	20	2	SIC	229	RC	0	2	23RD	1	0	0.670289039612	-6.0	-99.0	-3	-106	1
1.7	2015_Aug_12_1459	s	s	20	2	SIC	230	RC	2	0	23VC	1	0	0.476366996765	480.0	-265.0	481	-265	1
1.7	2015_Aug_12_1459	s	s	20	2	SIC	231	RC	1	0	23MC	1	0	1.73904204369	256.0	70.0	261	70	1
1.7	2015_Aug_12_1459	s	s	20	2	SIC	232	ABS	1	0	24MC	0	1	1.30587816238	None	None	None	None	1
1.7	2015_Aug_12_1459	s	s	20	2	SIC	233	RC	0	1	23RO	1	0	1.83063697815	-127.0	291.0	-133	290	1
1.7	2015_Aug_12_1459	s	s	20	2	SIC	234	ABS	2	1	24VO	0	1	0.623147010803	None	None	None	None	1
1.7	2015_Aug_12_1459	s	s	20	2	SIC	235	RC	1	1	23MO	1	0	0.693743944168	334.0	-34.0	337	-30	1
1.7	2015_Aug_12_1459	s	s	20	2	SIC	236	RC	2	2	23VD	1	0	0.858537197113	28.0	-367.0	30	-362	1
1.7	2015_Aug_12_1459	s	s	20	2	SIC	237	ABS	0	2	24RD	0	1	1.08223009109	None	None	None	None	1
1.7	2015_Aug_12_1459	s	s	20	2	SIC	238	ABS	2	0	24VC	0	1	0.677294015884	None	None	None	None	1
1.7	2015_Aug_12_1459	s	s	20	2	SIC	239	RC	2	1	23VO	1	0	0.489093065262	137.0	-16.0	135	-14	1
1.7	2015_Aug_12_1459	s	s	20	2	SIC	240	RC	1	2	23MD	1	0	0.552445173264	495.0	-299.0	495	-299	1
1.7	2015_Aug_12_1459	s	s	20	2	SIC	241	RC	2	1	23VO	1	0	0.466953992844	-308.0	44.0	-310	42	1
1.7	2015_Aug_12_1459	s	s	20	2	SIC	242	RC	2	2	23VD	1	0	0.441921949387	-451.0	138.0	-448	144	1
1.7	2015_Aug_12_1459	s	s	20	2	SIC	243	ABS	1	2	24MD	0	1	0.736158132553	None	None	None	None	1
1.7	2015_Aug_12_1459	s	s	20	2	SIC	244	ABS	1	1	24MO	0	1	2.16038513184	None	None	None	None	1
1.7	2015_Aug_12_1459	s	s	20	2	SIC	245	ABS	0	1	24RO	0	1	2.83131504059	None	None	None	None	1
1.7	2015_Aug_12_1459	s	s	20	2	SIC	246	RC	0	2	23RD	1	0	0.782584905624	133.0	-403.0	138	-410	1
1.7	2015_Aug_12_1459	s	s	20	2	SIC	247	ABS	0	2	24RD	0	1	1.03518104553	None	None	None	None	1
1.7	2015_Aug_12_1459	s	s	20	2	SIC	248	RC	1	1	23MO	1	0	0.646713018417	-245.0	80.0	-248	83	1
1.7	2015_Aug_12_1459	s	s	20	2	SIC	249	RC	0	1	23RO	1	0	1.33782911301	153.0	48.0	148	52	1
1.7	2015_Aug_12_1459	s	s	20	2	SIC	250	ABS	2	2	24VD	0	1	0.618305206299	None	None	None	None	1
1.7	2015_Aug_12_1459	s	s	20	2	SIC	251	ABS	2	0	24VC	0	1	0.540822029114	None	None	None	None	1
1.7	2015_Aug_12_1459	s	s	20	2	SIC	252	RC	1	2	23MD	1	0	0.552400112152	-354.0	0.0	-352	1	1
1.7	2015_Aug_12_1459	s	s	20	2	SIC	253	ABS	1	0	24MC	0	1	2.04745101929	None	None	None	None	1
1.7	2015_Aug_12_1459	s	s	20	2	SIC	254	RC	1	0	23MC	1	0	0.630147218704	-15.0	-123.0	-12	-125	1
1.7	2015_Aug_12_1459	s	s	20	2	SIC	255	RC	2	0	23VC	1	0	1.18174910545	539.0	361.0	542	364	1
1.7	2015_Aug_12_1459	s	s	20	2	SIC	256	ABS	2	1	24VO	0	1	0.618267059326	None	None	None	None	1
1.7	2015_Aug_12_1459	s	s	20	2	SIC	257	ABS	1	2	24MD	0	1	0.759757995605	None	None	None	None	1
1.7	2015_Aug_12_1459	s	s	20	2	SIC	258	ABS	1	1	24MO	0	1	1.44241499901	None	None	None	None	1
1.7	2015_Aug_12_1459	s	s	20	2	SIC	259	RC	1	0	23MC	1	0	0.937862873077	-227.0	-272.0	-230	-271	1
1.7	2015_Aug_12_1459	s	s	20	2	SIC	260	RC	2	0	23VC	1	0	0.630038022995	-335.0	407.0	-340	412	1
1.7	2015_Aug_12_1459	s	s	20	2	SIC	261	ABS	2	1	24VO	0	1	0.641702890396	None	None	None	None	1
1.7	2015_Aug_12_1459	s	s	20	2	SIC	262	RC	1	2	23MD	1	0	0.670295953751	16.0	-306.0	14	-306	1
1.7	2015_Aug_12_1459	s	s	20	2	SIC	263	RC	1	1	23MO	1	0	0.976536035538	120.0	-208.0	122	-208	1
1.7	2015_Aug_12_1459	s	s	20	2	SIC	264	RC	0	2	23RD	1	0	0.677154064178	123.0	323.0	126	324	1
1.7	2015_Aug_12_1459	s	s	20	2	SIC	265	RC	0	1	23RO	1	0	1.64221286774	54.0	313.0	52	319	1
1.7	2015_Aug_12_1459	s	s	20	2	SIC	266	ABS	2	0	24VC	0	1	0.615213871002	None	None	None	None	1
1.7	2015_Aug_12_1459	s	s	20	2	SIC	267	ABS	0	1	24RO	0	1	4.99690413475	None	None	None	None	1
1.7	2015_Aug_12_1459	s	s	20	2	SIC	268	ABS	1	0	24MC	0	1	2.32516217232	None	None	None	None	1
1.7	2015_Aug_12_1459	s	s	20	2	SIC	269	ABS	2	2	24VD	0	1	0.646986961365	None	None	None	None	1
1.7	2015_Aug_12_1459	s	s	20	2	SIC	270	RC	2	1	23VO	1	0	0.60780787468	439.0	-409.0	445	-410	1
1.7	2015_Aug_12_1459	s	s	20	2	SIC	271	ABS	0	2	24RD	0	1	1.19997096062	None	None	None	None	1
1.7	2015_Aug_12_1459	s	s	20	2	SIC	272	RC	2	2	23VD	1	0	0.634986877441	454.0	-320.0	456	-318	1
1.7	2015_Aug_12_1459	s	s	20	2	SIC	273	ABS	1	0	24MC	0	1	0.952723026276	None	None	None	None	1
1.7	2015_Aug_12_1459	s	s	20	2	SIC	274	ABS	2	1	24VO	0	1	0.630131959915	None	None	None	None	1
1.7	2015_Aug_12_1459	s	s	20	2	SIC	275	RC	0	2	23RD	1	0	0.618060112	-358.0	-113.0	-355	-112	1
1.7	2015_Aug_12_1459	s	s	20	2	SIC	276	ABS	1	1	24MO	0	1	1.04683899879	None	None	None	None	1
1.7	2015_Aug_12_1459	s	s	20	2	SIC	277	ABS	0	2	24RD	0	1	1.56107902527	None	None	None	None	1
1.7	2015_Aug_12_1459	s	s	20	2	SIC	278	RC	1	2	23MD	1	0	0.535756111145	-28.0	191.0	-33	196	1
1.7	2015_Aug_12_1459	s	s	20	2	SIC	279	RC	1	0	23MC	1	0	1.7364718914	-72.0	-334.0	-73	-331	1
1.7	2015_Aug_12_1459	s	s	20	2	SIC	280	RC	2	0	23VC	1	0	0.55255317688	-10.0	218.0	-5	224	1
1.7	2015_Aug_12_1459	s	s	20	2	SIC	281	ABS	0	1	24RO	0	1	2.28995800018	None	None	None	None	1
1.7	2015_Aug_12_1459	s	s	20	2	SIC	282	RC	0	1	23RO	1	0	0.893872976303	85.0	-4.0	86	-8	1
1.7	2015_Aug_12_1459	s	s	20	2	SIC	283	ABS	2	0	24VC	0	1	0.629958152771	None	None	None	None	1
1.7	2015_Aug_12_1459	s	s	20	2	SIC	284	RC	1	1	23MO	1	0	0.582952022552	112.0	359.0	110	361	1
1.7	2015_Aug_12_1459	s	s	20	2	SIC	285	ABS	1	2	24MD	0	1	0.806817054749	None	None	None	None	1
1.7	2015_Aug_12_1459	s	s	20	2	SIC	286	RC	2	1	23VO	1	0	0.517244100571	-462.0	243.0	-465	243	1
1.7	2015_Aug_12_1459	s	s	20	2	SIC	287	RC	2	2	23VD	1	0	0.465226173401	-333.0	-141.0	-339	-140	1
1.7	2015_Aug_12_1459	s	s	20	2	SIC	288	ABS	2	2	24VD	0	1	0.477620124817	None	None	None	None	1
1.7	2015_Aug_12_1459	s	s	20	2	SIC	289	ABS	2	2	24VD	0	1	0.429883003235	None	None	None	None	1
1.7	2015_Aug_12_1459	s	s	20	2	SIC	290	RC	2	1	23VO	1	0	0.441842079163	244.0	33.0	254	34	1
1.7	2015_Aug_12_1459	s	s	20	2	SIC	291	RC	1	2	23MD	1	0	0.512761116028	-201.0	15.0	-196	22	1
1.7	2015_Aug_12_1459	s	s	20	2	SIC	292	RC	1	1	23MO	1	0	1.54129099846	-390.0	-162.0	-382	-158	1
1.7	2015_Aug_12_1459	s	s	20	2	SIC	293	RC	2	0	23VC	1	0	0.552542209625	120.0	370.0	118	370	1
1.7	2015_Aug_12_1459	s	s	20	2	SIC	294	ABS	0	1	24RO	0	1	4.09070014954	None	None	None	None	1
1.7	2015_Aug_12_1459	s	s	20	2	SIC	295	ABS	1	2	24MD	0	1	0.797086000443	None	None	None	None	1
1.7	2015_Aug_12_1459	s	s	20	2	SIC	296	ABS	1	1	24MO	0	1	1.61874079704	None	None	None	None	1
1.7	2015_Aug_12_1459	s	s	20	2	SIC	297	ABS	2	0	24VC	1	0	0.0463750362396	None	None	-88	84	0
1.7	2015_Aug_12_1459	s	s	20	2	SIC	298	RC	1	0	23MC	1	0	1.55998086929	422.0	337.0	422	334	1
1.7	2015_Aug_12_1459	s	s	20	2	SIC	299	ABS	2	1	24VO	0	1	1.07651686668	None	None	None	None	1
1.7	2015_Aug_12_1459	s	s	20	2	SIC	300	ABS	1	0	24MC	0	1	1.20689320564	None	None	None	None	1
1.7	2015_Aug_12_1459	s	s	20	2	SIC	301	RC	0	2	23RD	1	0	0.611405849457	-292.0	321.0	-289	320	1
1.7	2015_Aug_12_1459	s	s	20	2	SIC	302	RC	0	1	23RO	1	0	1.71276307106	494.0	137.0	494	142	1
1.7	2015_Aug_12_1459	s	s	20	2	SIC	303	RC	2	2	23VD	1	0	0.51727604866	-283.0	197.0	-286	195	1
1.7	2015_Aug_12_1459	s	s	20	2	SIC	304	ABS	0	2	24RD	0	1	0.670289993286	None	None	None	None	1
1.7	2015_Aug_12_1459	s	s	20	2	SIC	305	RC	2	0	23VC	1	0	0.497412919998	35.0	-218.0	42	-215	1
1.7	2015_Aug_12_1459	s	s	20	2	SIC	306	ABS	1	1	24MO	0	1	1.04445886612	None	None	None	None	1
1.7	2015_Aug_12_1459	s	s	20	2	SIC	307	ABS	2	1	24VO	0	1	0.729139089584	None	None	None	None	1
1.7	2015_Aug_12_1459	s	s	20	2	SIC	308	RC	1	2	23MD	1	0	0.670251846313	-533.0	-409.0	-541	-413	1
1.7	2015_Aug_12_1459	s	s	20	2	SIC	309	ABS	2	2	24VD	0	1	0.58785700798	None	None	None	None	1
1.7	2015_Aug_12_1459	s	s	20	2	SIC	310	RC	0	2	23RD	1	0	0.517275094986	116.0	-270.0	119	-264	1
1.7	2015_Aug_12_1459	s	s	20	2	SIC	311	RC	1	0	23MC	1	0	2.09448218346	-293.0	-108.0	-296	-108	1
1.7	2015_Aug_12_1459	s	s	20	2	SIC	312	ABS	2	0	24VC	0	1	0.493675947189	None	None	None	None	1
1.7	2015_Aug_12_1459	s	s	20	2	SIC	313	ABS	1	2	24MD	0	1	1.63040781021	None	None	None	None	1
1.7	2015_Aug_12_1459	s	s	20	2	SIC	314	ABS	1	0	24MC	0	1	1.0585091114	None	None	None	None	1
1.7	2015_Aug_12_1459	s	s	20	2	SIC	315	ABS	0	1	24RO	0	1	5.16666316986	None	None	None	None	1
1.7	2015_Aug_12_1459	s	s	20	2	SIC	316	RC	2	1	23VO	1	0	0.488822937012	-241.0	285.0	-232	281	1
1.7	2015_Aug_12_1459	s	s	20	2	SIC	317	RC	2	2	23VD	1	0	0.517220020294	457.0	268.0	464	266	1
1.7	2015_Aug_12_1459	s	s	20	2	SIC	318	RC	0	1	23RO	1	0	1.6070830822	-455.0	191.0	-456	195	1
1.7	2015_Aug_12_1459	s	s	20	2	SIC	319	RC	1	1	23MO	1	0	0.517761945724	201.0	304.0	206	311	1
1.7	2015_Aug_12_1459	s	s	20	2	SIC	320	ABS	0	2	24RD	0	1	0.917534828186	None	None	None	None	1
1.7	2015_Aug_12_1459	s	s	20	2	SIC	321	ABS	1	0	24MC	0	1	2.16020202637	None	None	None	None	1
1.7	2015_Aug_12_1459	s	s	20	2	SIC	322	RC	0	1	23RO	0	1	4.20144104958	-201.0	161.0	None	None	0
1.7	2015_Aug_12_1459	s	s	20	2	SIC	323	ABS	2	0	24VC	0	1	0.547835826874	None	None	None	None	1
1.7	2015_Aug_12_1459	s	s	20	2	SIC	324	ABS	1	1	24MO	0	1	1.61240506172	None	None	None	None	1
1.7	2015_Aug_12_1459	s	s	20	2	SIC	325	ABS	2	1	24VO	0	1	0.917330026627	None	None	None	None	1
1.7	2015_Aug_12_1459	s	s	20	2	SIC	326	RC	2	1	23VO	1	0	0.476884841919	-298.0	342.0	-294	337	1
1.7	2015_Aug_12_1459	s	s	20	2	SIC	327	RC	1	0	23MC	1	0	1.04692983627	364.0	-338.0	362	-341	1
1.7	2015_Aug_12_1459	s	s	20	2	SIC	328	RC	2	0	23VC	1	0	0.470127820969	-485.0	-11.0	-492	-8	1
1.7	2015_Aug_12_1459	s	s	20	2	SIC	329	RC	0	2	23RD	1	0	0.594618797302	-32.0	-225.0	-38	-225	1
1.7	2015_Aug_12_1459	s	s	20	2	SIC	330	ABS	2	2	24VD	0	1	0.558006048203	None	None	None	None	1
1.7	2015_Aug_12_1459	s	s	20	2	SIC	331	RC	2	2	23VD	1	0	0.417663097382	-321.0	-371.0	-330	-368	1
1.7	2015_Aug_12_1459	s	s	20	2	SIC	332	ABS	0	1	24RO	0	1	3.70707893372	None	None	None	None	1
1.7	2015_Aug_12_1459	s	s	20	2	SIC	333	RC	1	1	23MO	1	0	0.924384117126	-20.0	-115.0	-27	-116	1
1.7	2015_Aug_12_1459	s	s	20	2	SIC	334	ABS	0	2	24RD	0	1	1.20700597763	None	None	None	None	1
1.7	2015_Aug_12_1459	s	s	20	2	SIC	335	ABS	1	2	24MD	0	1	0.752694129944	None	None	None	None	1
1.7	2015_Aug_12_1459	s	s	20	2	SIC	336	RC	1	2	23MD	1	0	0.855221986771	235.0	-381.0	233	-379	1
1.7	2015_Aug_12_1459	s	s	20	2	SIC	337	ABS	1	2	24MD	0	1	0.630113124847	None	None	None	None	1
1.7	2015_Aug_12_1459	s	s	20	2	SIC	338	ABS	0	2	24RD	0	1	0.932861089706	None	None	None	None	1
1.7	2015_Aug_12_1459	s	s	20	2	SIC	339	ABS	0	1	24RO	0	1	4.50749611855	None	None	None	None	1
1.7	2015_Aug_12_1459	s	s	20	2	SIC	340	RC	2	0	23VC	1	0	0.465188026428	-227.0	19.0	-231	22	1
1.7	2015_Aug_12_1459	s	s	20	2	SIC	341	RC	1	2	23MD	1	0	0.481964111328	535.0	188.0	540	191	1
1.7	2015_Aug_12_1459	s	s	20	2	SIC	342	RC	0	1	23RO	1	0	3.10669493675	-484.0	158.0	-487	161	1
1.7	2015_Aug_12_1459	s	s	20	2	SIC	343	ABS	1	0	24MC	0	1	0.976314067841	None	None	None	None	1
1.7	2015_Aug_12_1459	s	s	20	2	SIC	344	ABS	2	1	24VO	0	1	0.594794034958	None	None	None	None	1
1.7	2015_Aug_12_1459	s	s	20	2	SIC	345	RC	1	1	23MO	1	0	2.0765209198	459.0	-270.0	465	-269	1
1.7	2015_Aug_12_1459	s	s	20	2	SIC	346	ABS	1	1	24MO	0	1	2.0864238739	None	None	None	None	1
1.7	2015_Aug_12_1459	s	s	20	2	SIC	347	RC	2	2	23VD	1	0	0.653486967087	-456.0	-240.0	-460	-234	1
1.7	2015_Aug_12_1459	s	s	20	2	SIC	348	RC	0	2	23RD	1	0	0.582936048508	-219.0	-313.0	-216	-315	1
1.7	2015_Aug_12_1459	s	s	20	2	SIC	349	ABS	2	2	24VD	0	1	0.623082876205	None	None	None	None	1
1.7	2015_Aug_12_1459	s	s	20	2	SIC	350	RC	1	0	23MC	1	0	1.18251299858	-476.0	-79.0	-488	-76	1
1.7	2015_Aug_12_1459	s	s	20	2	SIC	351	ABS	2	0	24VC	0	1	0.528973817825	None	None	None	None	1
1.7	2015_Aug_12_1459	s	s	20	2	SIC	352	RC	2	1	23VO	1	0	0.493669033051	85.0	-303.0	83	-302	1
1.7	2015_Aug_12_1459	s	s	20	2	SIC	353	RC	1	0	23MC	1	0	1.26561999321	175.0	-142.0	181	-142	1
1.7	2015_Aug_12_1459	s	s	20	2	SIC	354	RC	2	0	23VC	1	0	0.4649310112	456.0	81.0	462	82	1
1.7	2015_Aug_12_1459	s	s	20	2	SIC	355	RC	2	1	23VO	1	0	0.46515917778	394.0	-366.0	401	-362	1
1.7	2015_Aug_12_1459	s	s	20	2	SIC	356	RC	0	2	23RD	1	0	0.441756010056	-359.0	12.0	-357	16	1
1.7	2015_Aug_12_1459	s	s	20	2	SIC	357	ABS	2	0	24VC	0	1	0.529251098633	None	None	None	None	1
1.7	2015_Aug_12_1459	s	s	20	2	SIC	358	RC	2	2	23VD	1	0	0.411473035812	447.0	-206.0	447	-209	1
1.7	2015_Aug_12_1459	s	s	20	2	SIC	359	RC	1	2	23MD	1	0	0.372890949249	-12.0	174.0	-10	164	1
1.7	2015_Aug_12_1459	s	s	20	2	SIC	360	ABS	1	1	24MO	0	1	1.5059800148	None	None	None	None	1
1.7	2015_Aug_12_1459	s	s	20	2	SIC	361	RC	1	1	23MO	1	0	0.524096012115	-479.0	8.0	-481	12	1
1.7	2015_Aug_12_1459	s	s	20	2	SIC	362	ABS	2	1	24VO	0	1	0.547794103622	None	None	None	None	1
1.7	2015_Aug_12_1459	s	s	20	2	SIC	363	ABS	0	1	24RO	0	1	3.20097517967	None	None	None	None	1
1.7	2015_Aug_12_1459	s	s	20	2	SIC	364	ABS	2	2	24VD	0	1	0.564331054688	None	None	None	None	1
1.7	2015_Aug_12_1459	s	s	20	2	SIC	365	ABS	1	0	24MC	0	1	2.15089893341	None	None	None	None	1
1.7	2015_Aug_12_1459	s	s	20	2	SIC	366	ABS	0	2	24RD	0	1	1.54129195213	None	None	None	None	1
1.7	2015_Aug_12_1459	s	s	20	2	SIC	367	ABS	1	2	24MD	0	1	0.858566999435	None	None	None	None	1
1.7	2015_Aug_12_1459	s	s	20	2	SIC	368	RC	0	1	23RO	1	0	3.74877905846	449.0	140.0	450	136	1
1.7	2015_Aug_12_1459	s	s	20	2	SIC	369	RC	2	2	23VD	1	0	0.558907032013	-21.0	348.0	-17	353	1
1.7	2015_Aug_12_1459	s	s	20	2	SIC	370	ABS	1	0	24MC	0	1	2.21217393875	None	None	None	None	1
1.7	2015_Aug_12_1459	s	s	20	2	SIC	371	ABS	2	2	24VD	0	1	0.549127101898	None	None	None	None	1
1.7	2015_Aug_12_1459	s	s	20	2	SIC	372	ABS	1	2	24MD	0	1	0.747767925262	None	None	None	None	1
1.7	2015_Aug_12_1459	s	s	20	2	SIC	373	ABS	0	2	24RD	0	1	0.759232997894	None	None	None	None	1
1.7	2015_Aug_12_1459	s	s	20	2	SIC	374	ABS	1	1	24MO	0	1	1.08252096176	None	None	None	None	1
1.7	2015_Aug_12_1459	s	s	20	2	SIC	375	RC	1	1	23MO	1	0	1.19992494583	-280.0	-42.0	-276	-42	1
1.7	2015_Aug_12_1459	s	s	20	2	SIC	376	ABS	0	1	24RO	0	1	3.23620891571	None	None	None	None	1
1.7	2015_Aug_12_1459	s	s	20	2	SIC	377	RC	1	0	23MC	1	0	0.90114402771	43.0	-357.0	49	-355	1
1.7	2015_Aug_12_1459	s	s	20	2	SIC	378	ABS	2	0	24VC	0	1	0.481903076172	None	None	None	None	1
1.7	2015_Aug_12_1459	s	s	20	2	SIC	379	RC	0	2	23RD	1	0	0.512853145599	445.0	-29.0	445	-29	1
1.7	2015_Aug_12_1459	s	s	20	2	SIC	380	RC	2	1	23VO	1	0	0.458399057388	15.0	153.0	16	158	1
1.7	2015_Aug_12_1459	s	s	20	2	SIC	381	RC	1	2	23MD	1	0	1.22348499298	254.0	-403.0	253	-403	1
1.7	2015_Aug_12_1459	s	s	20	2	SIC	382	RC	2	0	23VC	1	0	0.430047988892	-330.0	-36.0	-325	-37	1
1.7	2015_Aug_12_1459	s	s	20	2	SIC	383	RC	0	1	23RO	1	0	5.64922785759	-309.0	191.0	-307	192	1
1.7	2015_Aug_12_1459	s	s	20	2	SIC	384	ABS	2	1	24VO	0	1	0.701070070267	None	None	None	None	1
1.7	2015_Aug_12_1459	s	s	20	2	SIC	385	RC	0	1	23RO	0	1	7.40313196182	282.0	94.0	None	None	0
1.7	2015_Aug_12_1459	s	s	20	2	SIC	386	ABS	1	1	24MO	0	1	2.41918778419	None	None	None	None	1
1.7	2015_Aug_12_1459	s	s	20	2	SIC	387	ABS	1	2	24MD	0	1	0.643582105637	None	None	None	None	1
1.7	2015_Aug_12_1459	s	s	20	2	SIC	388	ABS	2	1	24VO	0	1	0.51221203804	None	None	None	None	1
1.7	2015_Aug_12_1459	s	s	20	2	SIC	389	ABS	2	0	24VC	0	1	0.571193933487	None	None	None	None	1
1.7	2015_Aug_12_1459	s	s	20	2	SIC	390	ABS	1	0	24MC	0	1	2.0945379734	None	None	None	None	1
1.7	2015_Aug_12_1459	s	s	20	2	SIC	391	RC	2	1	23VO	1	0	0.499752998352	-206.0	310.0	-204	307	1
1.7	2015_Aug_12_1459	s	s	20	2	SIC	392	RC	1	0	23MC	1	0	1.61889195442	-285.0	-267.0	-289	-270	1
1.7	2015_Aug_12_1459	s	s	20	2	SIC	393	ABS	0	2	24RD	0	1	0.717648029327	None	None	None	None	1
1.7	2015_Aug_12_1459	s	s	20	2	SIC	394	RC	1	1	23MO	1	0	0.771264076233	279.0	-294.0	283	-290	1
1.7	2015_Aug_12_1459	s	s	20	2	SIC	395	RC	0	2	23RD	1	0	0.517265081406	161.0	296.0	162	298	1
1.7	2015_Aug_12_1459	s	s	20	2	SIC	396	RC	2	0	23VC	1	0	0.446628093719	-305.0	-273.0	-304	-271	1
1.7	2015_Aug_12_1459	s	s	20	2	SIC	397	ABS	2	2	24VD	0	1	0.46496796608	None	None	None	None	1
1.7	2015_Aug_12_1459	s	s	20	2	SIC	398	ABS	0	1	24RO	0	1	5.59724998474	None	None	None	None	1
1.7	2015_Aug_12_1459	s	s	20	2	SIC	399	RC	2	2	23VD	1	0	0.399600982666	28.0	-155.0	24	-161	1
1.7	2015_Aug_12_1459	s	s	20	2	SIC	400	RC	1	2	23MD	1	0	0.4886469841	130.0	46.0	133	52	1
1.7	2015_Aug_12_1459	s	s	20	2	SIC	401	ABS	2	0	24VC	0	1	0.623486995697	None	None	None	None	1
1.7	2015_Aug_12_1459	s	s	20	2	SIC	402	RC	2	0	23VC	1	0	0.441596984863	-58.0	-399.0	-62	-398	1
1.7	2015_Aug_12_1459	s	s	20	2	SIC	403	RC	1	2	23MD	1	0	0.470542907715	52.0	-119.0	55	-117	1
1.7	2015_Aug_12_1459	s	s	20	2	SIC	404	RC	1	1	23MO	1	0	0.552546024323	211.0	313.0	210	315	1
1.7	2015_Aug_12_1459	s	s	20	2	SIC	405	RC	1	0	23MC	1	0	0.548834085464	1.0	-251.0	-8	-251	1
1.7	2015_Aug_12_1459	s	s	20	2	SIC	406	ABS	0	1	24RO	0	1	5.71497702599	None	None	None	None	1
1.7	2015_Aug_12_1459	s	s	20	2	SIC	407	ABS	1	1	24MO	0	1	1.5261759758	None	None	None	None	1
1.7	2015_Aug_12_1459	s	s	20	2	SIC	408	RC	2	2	23VD	1	0	0.481959104538	24.0	-76.0	13	-72	1
1.7	2015_Aug_12_1459	s	s	20	2	SIC	409	ABS	1	0	24MC	0	1	1.68258285522	None	None	None	None	1
1.7	2015_Aug_12_1459	s	s	20	2	SIC	410	RC	0	1	23RO	1	0	1.43537521362	-540.0	24.0	-538	21	1
1.7	2015_Aug_12_1459	s	s	20	2	SIC	411	RC	2	1	23VO	1	0	0.473931074142	518.0	41.0	520	45	1
1.7	2015_Aug_12_1459	s	s	20	2	SIC	412	ABS	0	2	24RD	0	1	1.16461801529	None	None	None	None	1
1.7	2015_Aug_12_1459	s	s	20	2	SIC	413	ABS	1	2	24MD	0	1	0.888790130615	None	None	None	None	1
1.7	2015_Aug_12_1459	s	s	20	2	SIC	414	ABS	2	1	24VO	0	1	1.18315315247	None	None	None	None	1
1.7	2015_Aug_12_1459	s	s	20	2	SIC	415	ABS	2	2	24VD	0	1	0.524256944656	None	None	None	None	1
1.7	2015_Aug_12_1459	s	s	20	2	SIC	416	RC	0	2	23RD	1	0	0.481927156448	-116.0	26.0	-119	25	1
1.7	2015_Aug_12_1459	s	s	20	2	SIC	417	ABS	0	2	24RD	0	1	0.877225875854	None	None	None	None	1
1.7	2015_Aug_12_1459	s	s	20	2	SIC	418	RC	1	2	23MD	1	0	0.465358018875	-372.0	119.0	-372	112	1
1.7	2015_Aug_12_1459	s	s	20	2	SIC	419	ABS	2	2	24VD	0	1	0.517385959625	None	None	None	None	1
1.7	2015_Aug_12_1459	s	s	20	2	SIC	420	ABS	1	2	24MD	0	1	0.634984016418	None	None	None	None	1
1.7	2015_Aug_12_1459	s	s	20	2	SIC	421	ABS	1	1	24MO	0	1	3.52581596375	None	None	None	None	1
1.7	2015_Aug_12_1459	s	s	20	2	SIC	422	RC	2	2	23VD	1	0	0.466940164566	-224.0	134.0	-221	131	1
1.7	2015_Aug_12_1459	s	s	20	2	SIC	423	ABS	1	0	24MC	0	1	3.19675207138	None	None	None	None	1
1.7	2015_Aug_12_1459	s	s	20	2	SIC	424	RC	0	2	23RD	1	0	0.512134075165	238.0	-166.0	243	-170	1
1.7	2015_Aug_12_1459	s	s	20	2	SIC	425	RC	1	0	23MC	1	0	1.12453913689	-30.0	-366.0	-32	-366	1
1.7	2015_Aug_12_1459	s	s	20	2	SIC	426	RC	1	1	23MO	1	0	1.14108490944	520.0	247.0	522	251	1
1.7	2015_Aug_12_1459	s	s	20	2	SIC	427	RC	2	0	23VC	1	0	0.441816091537	458.0	-27.0	456	-28	1
1.7	2015_Aug_12_1459	s	s	20	2	SIC	428	ABS	0	1	24RO	0	1	3.94914412498	None	None	None	None	1
1.7	2015_Aug_12_1459	s	s	20	2	SIC	429	ABS	2	0	24VC	0	1	0.705585956573	None	None	None	None	1
1.7	2015_Aug_12_1459	s	s	20	2	SIC	430	ABS	2	1	24VO	0	1	0.5726749897	None	None	None	None	1
1.7	2015_Aug_12_1459	s	s	20	2	SIC	431	RC	2	1	23VO	1	0	0.670240163803	-166.0	405.0	-172	408	1
1.7	2015_Aug_12_1459	s	s	20	2	SIC	432	RC	0	1	23RO	1	0	4.06016802788	310.0	-318.0	308	-313	1
1.7	2015_Aug_12_1459	s	s	20	2	SIC	433	RC	2	1	23VO	1	0	0.418030977249	-52.0	147.0	-54	156	1
1.7	2015_Aug_12_1459	s	s	20	2	SIC	434	RC	1	1	23MO	1	0	0.81138420105	-280.0	375.0	-281	374	1
1.7	2015_Aug_12_1459	s	s	20	2	SIC	435	ABS	0	2	24RD	0	1	1.10572195053	None	None	None	None	1
1.7	2015_Aug_12_1459	s	s	20	2	SIC	436	RC	0	1	23RO	1	0	1.10106682777	-378.0	98.0	-388	98	1
1.7	2015_Aug_12_1459	s	s	20	2	SIC	437	ABS	1	2	24MD	0	1	0.819988012314	None	None	None	None	1
1.7	2015_Aug_12_1459	s	s	20	2	SIC	438	ABS	1	0	24MC	0	1	1.18819189072	None	None	None	None	1
1.7	2015_Aug_12_1459	s	s	20	2	SIC	439	ABS	0	1	24RO	0	1	5.10786604881	None	None	None	None	1
1.7	2015_Aug_12_1459	s	s	20	2	SIC	440	RC	2	0	23VC	1	0	2.43590188026	-139.0	-210.0	-139	-208	1
1.7	2015_Aug_12_1459	s	s	20	2	SIC	441	RC	1	2	23MD	1	0	0.959649085999	52.0	-208.0	51	-210	1
1.7	2015_Aug_12_1459	s	s	20	2	SIC	442	ABS	1	1	24MO	0	1	0.787944078445	None	None	None	None	1
1.7	2015_Aug_12_1459	s	s	20	2	SIC	443	ABS	2	2	24VD	0	1	0.493772029877	None	None	None	None	1
1.7	2015_Aug_12_1459	s	s	20	2	SIC	444	RC	2	2	23VD	1	0	0.717144012451	28.0	-382.0	26	-389	1
1.7	2015_Aug_12_1459	s	s	20	2	SIC	445	RC	0	2	23RD	1	0	0.529085874557	-175.0	-387.0	-176	-386	1
1.7	2015_Aug_12_1459	s	s	20	2	SIC	446	RC	1	0	23MC	1	0	0.558933973312	-277.0	248.0	-276	256	1
1.7	2015_Aug_12_1459	s	s	20	2	SIC	447	ABS	2	1	24VO	0	1	0.535837888718	None	None	None	None	1
1.7	2015_Aug_12_1459	s	s	20	2	SIC	448	ABS	2	0	24VC	0	1	0.596455097198	None	None	None	None	1
1.7	2015_Aug_12_1459	s	s	20	2	SIC	449	ABS	2	0	24VC	0	1	0.493744134903	None	None	None	None	1
1.7	2015_Aug_12_1459	s	s	20	2	SIC	450	RC	2	1	23VO	1	0	0.430130004883	-417.0	-96.0	-418	-96	1
1.7	2015_Aug_12_1459	s	s	20	2	SIC	451	RC	1	2	23MD	1	0	0.466127872467	-8.0	-241.0	-6	-237	1
1.7	2015_Aug_12_1459	s	s	20	2	SIC	452	RC	0	2	23RD	1	0	0.505320072174	-266.0	279.0	-266	282	1
1.7	2015_Aug_12_1459	s	s	20	2	SIC	453	ABS	1	0	24MC	0	1	2.03564715385	None	None	None	None	1
1.7	2015_Aug_12_1459	s	s	20	2	SIC	454	RC	1	1	23MO	1	0	0.477156877518	98.0	29.0	105	32	1
1.7	2015_Aug_12_1459	s	s	20	2	SIC	455	ABS	2	2	24VD	0	1	0.529022216797	None	None	None	None	1
1.7	2015_Aug_12_1459	s	s	20	2	SIC	456	ABS	0	1	24RO	0	1	4.15442204475	None	None	None	None	1
1.7	2015_Aug_12_1459	s	s	20	2	SIC	457	RC	0	1	23RO	1	0	3.61957812309	65.0	-338.0	67	-338	1
1.7	2015_Aug_12_1459	s	s	20	2	SIC	458	RC	2	2	23VD	1	0	0.434900045395	118.0	85.0	123	88	1
1.7	2015_Aug_12_1459	s	s	20	2	SIC	459	RC	2	0	23VC	1	0	0.467735052109	55.0	-119.0	53	-122	1
1.7	2015_Aug_12_1459	s	s	20	2	SIC	460	ABS	1	2	24MD	0	1	0.646772146225	None	None	None	None	1
1.7	2015_Aug_12_1459	s	s	20	2	SIC	461	RC	1	0	23MC	1	0	1.72968697548	66.0	-402.0	71	-405	1
1.7	2015_Aug_12_1459	s	s	20	2	SIC	462	ABS	0	2	24RD	0	1	1.47761487961	None	None	None	None	1
1.7	2015_Aug_12_1459	s	s	20	2	SIC	463	ABS	2	1	24VO	0	1	0.741005897522	None	None	None	None	1
1.7	2015_Aug_12_1459	s	s	20	2	SIC	464	ABS	1	1	24MO	0	1	2.65449905396	None	None	None	None	1
1.7	2015_Aug_12_1459	s	s	20	2	SIC	465	RC	2	1	23VO	1	0	0.470148086548	-296.0	197.0	-300	190	1
1.7	2015_Aug_12_1459	s	s	20	2	SIC	466	RC	2	2	23VD	1	0	0.417964935303	-224.0	-305.0	-225	-303	1
1.7	2015_Aug_12_1459	s	s	20	2	SIC	467	ABS	0	2	24RD	0	1	1.01171994209	None	None	None	None	1
1.7	2015_Aug_12_1459	s	s	20	2	SIC	468	RC	1	2	23MD	1	0	0.665482997894	-468.0	399.0	-458	404	1
1.7	2015_Aug_12_1459	s	s	20	2	SIC	469	RC	1	1	23MO	1	0	1.01164221764	285.0	-134.0	286	-130	1
1.7	2015_Aug_12_1459	s	s	20	2	SIC	470	RC	1	0	23MC	1	0	1.71351194382	470.0	-106.0	459	-99	1
1.7	2015_Aug_12_1459	s	s	20	2	SIC	471	ABS	2	1	24VO	0	1	0.653527021408	None	None	None	None	1
1.7	2015_Aug_12_1459	s	s	20	2	SIC	472	ABS	1	0	24MC	0	1	1.5007121563	None	None	None	None	1
1.7	2015_Aug_12_1459	s	s	20	2	SIC	473	ABS	2	0	24VC	0	1	0.752644062042	None	None	None	None	1
1.7	2015_Aug_12_1459	s	s	20	2	SIC	474	ABS	1	2	24MD	0	1	0.936125040054	None	None	None	None	1
1.7	2015_Aug_12_1459	s	s	20	2	SIC	475	RC	0	1	23RO	1	0	1.27062797546	30.0	-256.0	33	-254	1
1.7	2015_Aug_12_1459	s	s	20	2	SIC	476	ABS	1	1	24MO	1	0	0.552593946457	None	None	-75	-107	0
1.7	2015_Aug_12_1459	s	s	20	2	SIC	477	RC	2	0	23VC	1	0	0.431651830673	391.0	-146.0	389	-146	1
1.7	2015_Aug_12_1459	s	s	20	2	SIC	478	RC	0	2	23RD	1	0	0.493731975555	503.0	39.0	500	32	1
1.7	2015_Aug_12_1459	s	s	20	2	SIC	479	ABS	2	2	24VD	0	1	0.606677055359	None	None	None	None	1
1.7	2015_Aug_12_1459	s	s	20	2	SIC	480	ABS	0	1	24RO	0	1	3.63323807716	None	None	None	None	1
1.7	2015_Aug_12_1459	s	s	20	2	SIC	481	ABS	0	1	24RO	0	1	4.13859200478	None	None	None	None	1
1.7	2015_Aug_12_1459	s	s	20	2	SIC	482	ABS	2	2	24VD	0	1	0.517817974091	None	None	None	None	1
1.7	2015_Aug_12_1459	s	s	20	2	SIC	483	ABS	0	2	24RD	0	1	1.11216688156	None	None	None	None	1
1.7	2015_Aug_12_1459	s	s	20	2	SIC	484	ABS	2	1	24VO	0	1	0.524168014526	None	None	None	None	1
1.7	2015_Aug_12_1459	s	s	20	2	SIC	485	RC	2	1	23VO	1	0	0.470229148865	63.0	-281.0	59	-283	1
1.7	2015_Aug_12_1459	s	s	20	2	SIC	486	RC	0	2	23RD	1	0	0.49405002594	-217.0	272.0	-221	276	1
1.7	2015_Aug_12_1459	s	s	20	2	SIC	487	RC	0	1	23RO	0	1	2.68317294121	240.0	109.0	None	None	0
1.7	2015_Aug_12_1459	s	s	20	2	SIC	488	RC	1	1	23MO	1	0	1.28806495667	430.0	-311.0	432	-308	1
1.7	2015_Aug_12_1459	s	s	20	2	SIC	489	ABS	1	0	24MC	0	1	1.46562409401	None	None	None	None	1
1.7	2015_Aug_12_1459	s	s	20	2	SIC	490	RC	2	2	23VD	1	0	0.500631809235	-93.0	265.0	-90	271	1
1.7	2015_Aug_12_1459	s	s	20	2	SIC	491	RC	2	0	23VC	1	0	0.464828014374	74.0	2.0	77	-4	1
1.7	2015_Aug_12_1459	s	s	20	2	SIC	492	RC	1	2	23MD	1	0	0.44337105751	441.0	67.0	440	73	1
1.7	2015_Aug_12_1459	s	s	20	2	SIC	493	ABS	1	1	24MO	0	1	0.929243087769	None	None	None	None	1
1.7	2015_Aug_12_1459	s	s	20	2	SIC	494	RC	1	0	23MC	1	0	0.865345001221	-40.0	-147.0	-39	-143	1
1.7	2015_Aug_12_1459	s	s	20	2	SIC	495	ABS	2	0	24VC	0	1	0.552597045898	None	None	None	None	1
1.7	2015_Aug_12_1459	s	s	20	2	SIC	496	ABS	1	2	24MD	0	1	0.658340215683	None	None	None	None	1
1.7	2015_Aug_12_1459	s	s	20	2	SIC	497	ABS	1	0	24MC	0	1	0.964547872543	None	None	None	None	1
1.7	2015_Aug_12_1459	s	s	20	2	SIC	498	RC	2	2	23VD	1	0	0.491451978683	354.0	-164.0	346	-161	1
1.7	2015_Aug_12_1459	s	s	20	2	SIC	499	RC	2	0	23VC	1	0	0.464930057526	524.0	-121.0	526	-120	1
1.7	2015_Aug_12_1459	s	s	20	2	SIC	500	RC	1	0	23MC	1	0	0.476999998093	280.0	264.0	284	267	1
1.7	2015_Aug_12_1459	s	s	20	2	SIC	501	ABS	1	1	24MO	0	1	0.62322306633	None	None	None	None	1
1.7	2015_Aug_12_1459	s	s	20	2	SIC	502	ABS	2	1	24VO	0	1	0.529016971588	None	None	None	None	1
1.7	2015_Aug_12_1459	s	s	20	2	SIC	503	ABS	2	0	24VC	0	1	0.693802118301	None	None	None	None	1
1.7	2015_Aug_12_1459	s	s	20	2	SIC	504	ABS	2	2	24VD	0	1	0.465828180313	None	None	None	None	1
1.7	2015_Aug_12_1459	s	s	20	2	SIC	505	RC	2	1	23VO	1	0	0.423108816147	-115.0	-94.0	-124	-94	1
1.7	2015_Aug_12_1459	s	s	20	2	SIC	506	RC	0	1	23RO	1	0	1.312541008	-529.0	383.0	-529	384	1
1.7	2015_Aug_12_1459	s	s	20	2	SIC	507	ABS	0	2	24RD	0	1	1.2186460495	None	None	None	None	1
1.7	2015_Aug_12_1459	s	s	20	2	SIC	508	ABS	1	2	24MD	0	1	0.493680000305	None	None	None	None	1
1.7	2015_Aug_12_1459	s	s	20	2	SIC	509	RC	0	2	23RD	1	0	0.512422084808	-528.0	-186.0	-534	-191	1
1.7	2015_Aug_12_1459	s	s	20	2	SIC	510	ABS	0	1	24RO	0	1	3.06680679321	None	None	None	None	1
1.7	2015_Aug_12_1459	s	s	20	2	SIC	511	RC	1	1	23MO	1	0	0.752628087997	-123.0	-86.0	-121	-84	1
1.7	2015_Aug_12_1459	s	s	20	2	SIC	512	RC	1	2	23MD	1	0	0.535841941833	404.0	197.0	405	203	1
1.7	2015_Aug_12_1459	s	s	20	2	SIC	513	RC	2	0	23VC	1	0	0.49372792244	-236.0	-218.0	-244	-213	1
1.7	2015_Aug_12_1459	s	s	20	2	SIC	514	ABS	2	0	24VC	0	1	0.62322306633	None	None	None	None	1
1.7	2015_Aug_12_1459	s	s	20	2	SIC	515	ABS	1	2	24MD	0	1	0.241444826126	None	None	None	None	1
1.7	2015_Aug_12_1459	s	s	20	2	SIC	516	RC	1	0	23MC	1	0	0.752701997757	-61.0	-254.0	-57	-252	1
1.7	2015_Aug_12_1459	s	s	20	2	SIC	517	ABS	2	1	24VO	0	1	0.540788888931	None	None	None	None	1
1.7	2015_Aug_12_1459	s	s	20	2	SIC	518	RC	2	2	23VD	1	0	0.489067077637	-226.0	-7.0	-236	-9	1
1.7	2015_Aug_12_1459	s	s	20	2	SIC	519	RC	0	2	23RD	1	0	0.576079130173	224.0	-357.0	230	-350	1
1.7	2015_Aug_12_1459	s	s	20	2	SIC	520	ABS	0	2	24RD	0	1	1.09385418892	None	None	None	None	1
1.7	2015_Aug_12_1459	s	s	20	2	SIC	521	RC	1	2	23MD	1	0	0.418396949768	-126.0	-196.0	-129	-189	1
1.7	2015_Aug_12_1459	s	s	20	2	SIC	522	ABS	2	2	24VD	0	1	0.536151885986	None	None	None	None	1
1.7	2015_Aug_12_1459	s	s	20	2	SIC	523	ABS	1	1	24MO	0	1	3.40646910667	None	None	None	None	1
1.7	2015_Aug_12_1459	s	s	20	2	SIC	524	RC	0	1	23RO	1	0	2.27103209496	-298.0	-225.0	-297	-219	1
1.7	2015_Aug_12_1459	s	s	20	2	SIC	525	ABS	1	0	24MC	0	1	1.22008705139	None	None	None	None	1
1.7	2015_Aug_12_1459	s	s	20	2	SIC	526	RC	2	1	23VO	1	0	0.823266029358	251.0	208.0	252	214	1
1.7	2015_Aug_12_1459	s	s	20	2	SIC	527	ABS	0	1	24RO	0	1	4.71458911896	None	None	None	None	1
1.7	2015_Aug_12_1459	s	s	20	2	SIC	528	RC	1	1	23MO	1	0	1.59514307976	-141.0	402.0	-136	400	1
1.7	2015_Aug_12_1459	s	s	20	2	SIC	529	ABS	1	0	24MC	0	1	3.09485292435	None	None	None	None	1
1.7	2015_Aug_12_1459	s	s	20	2	SIC	530	RC	0	1	23RO	1	0	2.81922101974	528.0	336.0	528	329	1
1.7	2015_Aug_12_1459	s	s	20	2	SIC	531	RC	2	2	23VD	1	0	0.490441083908	-240.0	18.0	-235	20	1
1.7	2015_Aug_12_1459	s	s	20	2	SIC	532	ABS	1	2	24MD	0	1	0.69377207756	None	None	None	None	1
1.7	2015_Aug_12_1459	s	s	20	2	SIC	533	ABS	2	0	24VC	0	1	0.641947031021	None	None	None	None	1
1.7	2015_Aug_12_1459	s	s	20	2	SIC	534	RC	1	0	23MC	1	0	0.623081922531	175.0	234.0	174	237	1
1.7	2015_Aug_12_1459	s	s	20	2	SIC	535	ABS	2	1	24VO	0	1	0.576140880585	None	None	None	None	1
1.7	2015_Aug_12_1459	s	s	20	2	SIC	536	ABS	0	1	24RO	0	1	3.33048200607	None	None	None	None	1
1.7	2015_Aug_12_1459	s	s	20	2	SIC	537	RC	1	1	23MO	1	0	0.717299938202	85.0	240.0	92	240	1
1.7	2015_Aug_12_1459	s	s	20	2	SIC	538	RC	2	1	23VO	1	0	0.47700881958	-253.0	-130.0	-250	-132	1
1.7	2015_Aug_12_1459	s	s	20	2	SIC	539	ABS	2	2	24VD	0	1	0.500542163849	None	None	None	None	1
1.7	2015_Aug_12_1459	s	s	20	2	SIC	540	RC	2	0	23VC	1	0	0.441625833511	198.0	-50.0	205	-40	1
1.7	2015_Aug_12_1459	s	s	20	2	SIC	541	RC	0	2	23RD	1	0	0.52418088913	-404.0	163.0	-396	165	1
1.7	2015_Aug_12_1459	s	s	20	2	SIC	542	ABS	1	1	24MO	0	1	2.23083305359	None	None	None	None	1
1.7	2015_Aug_12_1459	s	s	20	2	SIC	543	ABS	0	2	24RD	0	1	0.882133960724	None	None	None	None	1
1.7	2015_Aug_12_1459	s	s	20	2	SIC	544	RC	1	2	23MD	1	0	0.747591018677	273.0	-93.0	268	-93	1
1.7	2015_Aug_12_1459	s	s	20	2	SIC	545	ABS	1	2	24MD	0	1	0.783001184464	None	None	None	None	1
1.7	2015_Aug_12_1459	s	s	20	2	SIC	546	ABS	1	1	24MO	1	0	2.75372600555	None	None	-39	-133	0
1.7	2015_Aug_12_1459	s	s	20	2	SIC	547	RC	2	2	23VD	1	0	0.862297058105	504.0	-30.0	503	-27	1
1.7	2015_Aug_12_1459	s	s	20	2	SIC	548	ABS	2	0	24VC	0	1	0.540747880936	None	None	None	None	1
1.7	2015_Aug_12_1459	s	s	20	2	SIC	549	RC	1	2	23MD	1	0	0.473844051361	-3.0	73.0	-3	70	1
1.7	2015_Aug_12_1459	s	s	20	2	SIC	550	ABS	0	2	24RD	0	1	0.665503978729	None	None	None	None	1
1.7	2015_Aug_12_1459	s	s	20	2	SIC	551	RC	0	2	23RD	1	0	0.688941001892	-532.0	363.0	-537	363	1
1.7	2015_Aug_12_1459	s	s	20	2	SIC	552	ABS	0	1	24RO	0	1	3.44348692894	None	None	None	None	1
1.7	2015_Aug_12_1459	s	s	20	2	SIC	553	ABS	1	0	24MC	0	1	2.52357316017	None	None	None	None	1
1.7	2015_Aug_12_1459	s	s	20	2	SIC	554	ABS	2	1	24VO	0	1	0.582849979401	None	None	None	None	1
1.7	2015_Aug_12_1459	s	s	20	2	SIC	555	RC	1	0	23MC	1	0	0.712215900421	66.0	-23.0	61	-20	1
1.7	2015_Aug_12_1459	s	s	20	2	SIC	556	ABS	2	2	24VD	0	1	0.576046943665	None	None	None	None	1
1.7	2015_Aug_12_1459	s	s	20	2	SIC	557	RC	1	1	23MO	1	0	0.583158016205	-26.0	372.0	-21	376	1
1.7	2015_Aug_12_1459	s	s	20	2	SIC	558	RC	2	0	23VC	1	0	0.441435813904	516.0	122.0	517	121	1
1.7	2015_Aug_12_1459	s	s	20	2	SIC	559	RC	2	1	23VO	1	0	0.429983854294	468.0	360.0	465	362	1
1.7	2015_Aug_12_1459	s	s	20	2	SIC	560	RC	0	1	23RO	1	0	1.58836388588	-22.0	-86.0	-19	-79	1
1.7	2015_Aug_12_1459	s	s	20	2	SIC	561	RC	1	0	23MC	1	0	1.67098903656	127.0	-315.0	129	-307	1
1.7	2015_Aug_12_1459	s	s	20	2	SIC	562	RC	2	1	23VO	1	0	0.453347921371	-445.0	-310.0	-449	-308	1
1.7	2015_Aug_12_1459	s	s	20	2	SIC	563	RC	0	1	23RO	1	0	2.94203996658	-477.0	112.0	-483	114	1
1.7	2015_Aug_12_1459	s	s	20	2	SIC	564	ABS	2	0	24VC	0	1	0.611397027969	None	None	None	None	1
1.7	2015_Aug_12_1459	s	s	20	2	SIC	565	ABS	0	1	24RO	0	1	4.76144504547	None	None	None	None	1
1.7	2015_Aug_12_1459	s	s	20	2	SIC	566	ABS	1	2	24MD	0	1	1.04215884209	None	None	None	None	1
1.7	2015_Aug_12_1459	s	s	20	2	SIC	567	RC	0	2	23RD	1	0	0.618282079697	-173.0	-390.0	-164	-393	1
1.7	2015_Aug_12_1459	s	s	20	2	SIC	568	ABS	1	0	24MC	0	1	2.71835017204	None	None	None	None	1
1.7	2015_Aug_12_1459	s	s	20	2	SIC	569	ABS	2	1	24VO	0	1	0.576074838638	None	None	None	None	1
1.7	2015_Aug_12_1459	s	s	20	2	SIC	570	ABS	0	2	24RD	0	1	0.724239110947	None	None	None	None	1
1.7	2015_Aug_12_1459	s	s	20	2	SIC	571	ABS	1	1	24MO	0	1	2.11806988716	None	None	None	None	1
1.7	2015_Aug_12_1459	s	s	20	2	SIC	572	RC	2	0	23VC	1	0	0.48193192482	-370.0	-208.0	-370	-205	1
1.7	2015_Aug_12_1459	s	s	20	2	SIC	573	RC	2	2	23VD	1	0	0.45348906517	-222.0	128.0	-216	124	1
1.7	2015_Aug_12_1459	s	s	20	2	SIC	574	RC	1	1	23MO	1	0	0.606302022934	71.0	241.0	66	241	1
1.7	2015_Aug_12_1459	s	s	20	2	SIC	575	ABS	2	2	24VD	0	1	0.576035022736	None	None	None	None	1
1.7	2015_Aug_12_1459	s	s	20	2	SIC	576	RC	1	2	23MD	1	0	0.42307305336	155.0	-153.0	154	-151	1
1.7	2015_Aug_12_1459	s	s	20	2	SIC	577	RC	1	1	23MO	1	0	1.57153511047	128.0	-306.0	126	-303	1
1.7	2015_Aug_12_1459	s	s	20	2	SIC	578	RC	0	2	23RD	1	0	0.488657951355	444.0	-309.0	447	-314	1
1.7	2015_Aug_12_1459	s	s	20	2	SIC	579	ABS	1	1	24MO	0	1	1.47049689293	None	None	None	None	1
1.7	2015_Aug_12_1459	s	s	20	2	SIC	580	ABS	2	1	24VO	0	1	0.535876989365	None	None	None	None	1
1.7	2015_Aug_12_1459	s	s	20	2	SIC	581	ABS	1	2	24MD	0	1	1.07756280899	None	None	None	None	1
1.7	2015_Aug_12_1459	s	s	20	2	SIC	582	RC	2	1	23VO	1	0	0.453610181808	-146.0	-10.0	-146	-9	1
1.7	2015_Aug_12_1459	s	s	20	2	SIC	583	ABS	0	2	24RD	0	1	0.787935018539	None	None	None	None	1
1.7	2015_Aug_12_1459	s	s	20	2	SIC	584	ABS	1	0	24MC	1	0	1.89196610451	None	None	-238	190	0
1.7	2015_Aug_12_1459	s	s	20	2	SIC	585	RC	2	2	23VD	1	0	0.446670055389	-440.0	-38.0	-438	-37	1
1.7	2015_Aug_12_1459	s	s	20	2	SIC	586	RC	1	2	23MD	1	0	0.478595972061	152.0	-152.0	148	-148	1
1.7	2015_Aug_12_1459	s	s	20	2	SIC	587	ABS	2	0	24VC	0	1	0.470160961151	None	None	None	None	1
1.7	2015_Aug_12_1459	s	s	20	2	SIC	588	RC	0	1	23RO	1	0	0.700695037842	-224.0	180.0	-233	182	1
1.7	2015_Aug_12_1459	s	s	20	2	SIC	589	ABS	2	2	24VD	0	1	0.493726015091	None	None	None	None	1
1.7	2015_Aug_12_1459	s	s	20	2	SIC	590	RC	1	0	23MC	1	0	1.42364478111	17.0	163.0	15	166	1
1.7	2015_Aug_12_1459	s	s	20	2	SIC	591	ABS	0	1	24RO	0	1	3.61280584335	None	None	None	None	1
1.7	2015_Aug_12_1459	s	s	20	2	SIC	592	RC	2	0	23VC	1	0	0.599641084671	-269.0	-232.0	-270	-232	1
