Version	Date	Stimuli	Method	Subject	Session	Condition	Trial	Target	Channel1	Channel2	Distractors	LMouseButton	RMouseButton	RT	TargetX	TargetY	ResponseX	ResponseY	Correct
1.7	2015_Aug_14_1513	s	s	20	4	Capacity	1	RC	2	0	23VC	1	0	0.747865915298	-271.0	-183.0	-264	-177	1
1.7	2015_Aug_14_1513	s	s	20	4	Capacity	2	ABS	1	0	24MC	0	1	0.740823030472	None	None	None	None	1
1.7	2015_Aug_14_1513	s	s	20	4	Capacity	3	RC	1	0	23MC	1	0	1.51272106171	76.0	49.0	76	50	1
1.7	2015_Aug_14_1513	s	s	20	4	Capacity	4	ABS	2	0	24VC	0	1	0.528975009918	None	None	None	None	1
1.7	2015_Aug_14_1513	s	s	20	4	Capacity	5	ABS	2	0	24VC	0	1	1.07706904411	None	None	None	None	1
1.7	2015_Aug_14_1513	s	s	20	4	Capacity	6	RC	2	0	23VC	1	0	0.524087905884	160.0	-203.0	155	-211	1
1.7	2015_Aug_14_1513	s	s	20	4	Capacity	7	ABS	1	0	24MC	0	1	1.57656812668	None	None	None	None	1
1.7	2015_Aug_14_1513	s	s	20	4	Capacity	8	RC	1	0	23MC	1	0	1.3378238678	-349.0	128.0	-345	126	1
1.7	2015_Aug_14_1513	s	s	20	4	Capacity	9	RC	1	0	23MC	1	0	0.893707036972	-187.0	-144.0	-200	-140	1
1.7	2015_Aug_14_1513	s	s	20	4	Capacity	10	ABS	1	0	24MC	0	1	1.47064781189	None	None	None	None	1
1.7	2015_Aug_14_1513	s	s	20	4	Capacity	11	RC	2	0	23VC	1	0	0.411237955093	180.0	-143.0	176	-138	1
1.7	2015_Aug_14_1513	s	s	20	4	Capacity	12	ABS	2	0	24VC	0	1	0.57626914978	None	None	None	None	1
1.7	2015_Aug_14_1513	s	s	20	4	Capacity	13	RC	1	0	23MC	1	0	0.599705934525	-489.0	-269.0	-483	-265	1
1.7	2015_Aug_14_1513	s	s	20	4	Capacity	14	RC	2	0	23VC	1	0	0.564274072647	-479.0	142.0	-472	145	1
1.7	2015_Aug_14_1513	s	s	20	4	Capacity	15	ABS	1	0	24MC	0	1	1.63541197777	None	None	None	None	1
1.7	2015_Aug_14_1513	s	s	20	4	Capacity	16	ABS	2	0	24VC	0	1	1.29067492485	None	None	None	None	1
1.7	2015_Aug_14_1513	s	s	20	4	Capacity	17	ABS	1	0	24MC	0	1	1.15278506279	None	None	None	None	1
1.7	2015_Aug_14_1513	s	s	20	4	Capacity	18	RC	2	0	23VC	1	0	0.505439043045	137.0	-137.0	133	-139	1
1.7	2015_Aug_14_1513	s	s	20	4	Capacity	19	RC	1	0	23MC	1	0	1.29379081726	83.0	203.0	87	207	1
1.7	2015_Aug_14_1513	s	s	20	4	Capacity	20	ABS	2	0	24VC	0	1	0.760867118835	None	None	None	None	1
1.7	2015_Aug_14_1513	s	s	20	4	Capacity	21	RC	2	0	23VC	1	0	0.36425113678	-469.0	51.0	-466	50	1
1.7	2015_Aug_14_1513	s	s	20	4	Capacity	22	ABS	2	0	24VC	0	1	0.924588918686	None	None	None	None	1
1.7	2015_Aug_14_1513	s	s	20	4	Capacity	23	ABS	1	0	24MC	0	1	1.7178580761	None	None	None	None	1
1.7	2015_Aug_14_1513	s	s	20	4	Capacity	24	RC	1	0	23MC	1	0	0.787894964218	287.0	210.0	292	216	1
1.7	2015_Aug_14_1513	s	s	20	4	Capacity	25	RC	2	0	23VC	1	0	0.434799909592	-491.0	-45.0	-489	-37	1
1.7	2015_Aug_14_1513	s	s	20	4	Capacity	26	ABS	2	0	24VC	0	1	1.04298090935	None	None	None	None	1
1.7	2015_Aug_14_1513	s	s	20	4	Capacity	27	RC	1	0	23MC	1	0	0.776239871979	249.0	52.0	248	46	1
1.7	2015_Aug_14_1513	s	s	20	4	Capacity	28	ABS	1	0	24MC	0	1	1.41182613373	None	None	None	None	1
1.7	2015_Aug_14_1513	s	s	20	4	Capacity	29	ABS	2	0	24VC	0	1	0.564284086227	None	None	None	None	1
1.7	2015_Aug_14_1513	s	s	20	4	Capacity	30	RC	2	0	23VC	1	0	0.547749996185	-332.0	59.0	-326	62	1
1.7	2015_Aug_14_1513	s	s	20	4	Capacity	31	RC	1	0	23MC	1	0	1.09400486946	494.0	-323.0	503	-327	1
1.7	2015_Aug_14_1513	s	s	20	4	Capacity	32	ABS	1	0	24MC	0	1	1.80021190643	None	None	None	None	1
1.7	2015_Aug_14_1513	s	s	20	4	Capacity	33	ABS	1	0	24MC	0	1	1.47773194313	None	None	None	None	1
1.7	2015_Aug_14_1513	s	s	20	4	Capacity	34	RC	1	0	23MC	1	0	0.431402921677	-400.0	-61.0	-403	-60	1
1.7	2015_Aug_14_1513	s	s	20	4	Capacity	35	ABS	2	0	24VC	0	1	0.587825059891	None	None	None	None	1
1.7	2015_Aug_14_1513	s	s	20	4	Capacity	36	RC	2	0	23VC	1	0	0.418226003647	-432.0	-135.0	-427	-138	1
1.7	2015_Aug_14_1513	s	s	20	4	Capacity	37	RC	1	0	23MC	1	0	0.693784952164	294.0	48.0	289	58	1
1.7	2015_Aug_14_1513	s	s	20	4	Capacity	38	ABS	2	0	24VC	0	1	0.597005844116	None	None	None	None	1
1.7	2015_Aug_14_1513	s	s	20	4	Capacity	39	ABS	1	0	24MC	0	1	1.16462087631	None	None	None	None	1
1.7	2015_Aug_14_1513	s	s	20	4	Capacity	40	RC	2	0	23VC	1	0	0.418312072754	-217.0	-236.0	-213	-235	1
1.7	2015_Aug_14_1513	s	s	20	4	Capacity	41	RC	1	0	23MC	1	0	0.399543046951	-248.0	-21.0	-249	-28	1
1.7	2015_Aug_14_1513	s	s	20	4	Capacity	42	RC	2	0	23VC	1	0	0.387772083282	-262.0	-264.0	-263	-265	1
1.7	2015_Aug_14_1513	s	s	20	4	Capacity	43	ABS	1	0	24MC	0	1	1.55307292938	None	None	None	None	1
1.7	2015_Aug_14_1513	s	s	20	4	Capacity	44	ABS	2	0	24VC	0	1	0.69379901886	None	None	None	None	1
1.7	2015_Aug_14_1513	s	s	20	4	Capacity	45	ABS	2	0	24VC	0	1	0.4556889534	None	None	None	None	1
1.7	2015_Aug_14_1513	s	s	20	4	Capacity	46	RC	2	0	23VC	1	0	0.387668848038	-494.0	-170.0	-491	-170	1
1.7	2015_Aug_14_1513	s	s	20	4	Capacity	47	ABS	1	0	24MC	0	1	1.17069506645	None	None	None	None	1
1.7	2015_Aug_14_1513	s	s	20	4	Capacity	48	RC	1	0	23MC	1	0	1.37647104263	511.0	278.0	515	277	1
1.7	2015_Aug_14_1513	s	s	20	4	Capacity	49	ABS	2	0	24VC	0	1	0.57607793808	None	None	None	None	1
1.7	2015_Aug_14_1513	s	s	20	4	Capacity	50	RC	1	0	23MC	1	0	0.596376180649	-25.0	328.0	-23	329	1
1.7	2015_Aug_14_1513	s	s	20	4	Capacity	51	ABS	1	0	24MC	0	1	0.971321105957	None	None	None	None	1
1.7	2015_Aug_14_1513	s	s	20	4	Capacity	52	RC	2	0	23VC	1	0	0.370960950851	343.0	196.0	357	205	1
1.7	2015_Aug_14_1513	s	s	20	4	Capacity	53	ABS	1	0	24MC	0	1	1.54123711586	None	None	None	None	1
1.7	2015_Aug_14_1513	s	s	20	4	Capacity	54	RC	1	0	23MC	1	0	0.560939073563	-177.0	-57.0	-181	-62	1
1.7	2015_Aug_14_1513	s	s	20	4	Capacity	55	RC	2	0	23VC	1	0	0.406972885132	9.0	-313.0	13	-314	1
1.7	2015_Aug_14_1513	s	s	20	4	Capacity	56	ABS	2	0	24VC	0	1	0.479527950287	None	None	None	None	1
1.7	2015_Aug_14_1513	s	s	20	4	Capacity	57	RC	2	0	23VC	1	0	0.364250183105	280.0	38.0	273	36	1
1.7	2015_Aug_14_1513	s	s	20	4	Capacity	58	RC	1	0	23MC	1	0	0.858526945114	-206.0	101.0	-205	100	1
1.7	2015_Aug_14_1513	s	s	20	4	Capacity	59	ABS	2	0	24VC	0	1	0.670175075531	None	None	None	None	1
1.7	2015_Aug_14_1513	s	s	20	4	Capacity	60	ABS	1	0	24MC	0	1	2.04735898972	None	None	None	None	1
1.7	2015_Aug_14_1513	s	s	20	4	Capacity	61	ABS	1	0	24MC	1	0	0.91229891777	None	None	396	127	0
1.7	2015_Aug_14_1513	s	s	20	4	Capacity	62	RC	1	0	23MC	1	0	0.870307922363	47.0	-186.0	55	-191	1
1.7	2015_Aug_14_1513	s	s	20	4	Capacity	63	RC	2	0	23VC	1	0	0.375986099243	283.0	-83.0	276	-83	1
1.7	2015_Aug_14_1513	s	s	20	4	Capacity	64	ABS	2	0	24VC	0	1	0.517065048218	None	None	None	None	1
1.7	2015_Aug_14_1513	s	s	20	4	Capacity	65	RC	2	0	23VC	1	0	0.453931093216	158.0	-375.0	156	-378	1
1.7	2015_Aug_14_1513	s	s	20	4	Capacity	66	RC	1	0	23MC	1	0	0.618136882782	-20.0	100.0	-14	93	1
1.7	2015_Aug_14_1513	s	s	20	4	Capacity	67	ABS	1	0	24MC	0	1	1.04197096825	None	None	None	None	1
1.7	2015_Aug_14_1513	s	s	20	4	Capacity	68	ABS	2	0	24VC	0	1	0.58784198761	None	None	None	None	1
1.7	2015_Aug_14_1513	s	s	20	4	Capacity	69	ABS	2	0	24VC	0	1	0.818304777145	None	None	None	None	1
1.7	2015_Aug_14_1513	s	s	20	4	Capacity	70	RC	1	0	23MC	1	0	0.559750080109	-495.0	215.0	-497	222	1
1.7	2015_Aug_14_1513	s	s	20	4	Capacity	71	ABS	1	0	24MC	0	1	1.54805779457	None	None	None	None	1
1.7	2015_Aug_14_1513	s	s	20	4	Capacity	72	RC	2	0	23VC	1	0	0.443894863129	245.0	-210.0	249	-208	1
1.7	2015_Aug_14_1513	s	s	20	4	Capacity	73	ABS	2	0	24VC	0	1	0.491005182266	None	None	None	None	1
1.7	2015_Aug_14_1513	s	s	20	4	Capacity	74	RC	2	0	23VC	1	0	0.396879911423	456.0	-104.0	458	-106	1
1.7	2015_Aug_14_1513	s	s	20	4	Capacity	75	ABS	1	0	24MC	0	1	1.38351798058	None	None	None	None	1
1.7	2015_Aug_14_1513	s	s	20	4	Capacity	76	RC	1	0	23MC	1	0	0.971926927567	26.0	313.0	30	312	1
1.7	2015_Aug_14_1513	s	s	20	4	Capacity	77	RC	2	0	23VC	1	0	0.411257982254	-242.0	-330.0	-243	-326	1
1.7	2015_Aug_14_1513	s	s	20	4	Capacity	78	ABS	2	0	24VC	0	1	0.634922981262	None	None	None	None	1
1.7	2015_Aug_14_1513	s	s	20	4	Capacity	79	ABS	1	0	24MC	0	1	1.33635807037	None	None	None	None	1
1.7	2015_Aug_14_1513	s	s	20	4	Capacity	80	RC	1	0	23MC	1	0	0.8348300457	-50.0	305.0	-52	314	1
1.7	2015_Aug_14_1513	s	s	20	4	Capacity	81	RC	2	0	23VC	1	0	0.429939031601	6.0	-85.0	2	-95	1
1.7	2015_Aug_14_1513	s	s	20	4	Capacity	82	ABS	2	0	24VC	0	1	0.481961965561	None	None	None	None	1
1.7	2015_Aug_14_1513	s	s	20	4	Capacity	83	ABS	1	0	24MC	0	1	0.830064058304	None	None	None	None	1
1.7	2015_Aug_14_1513	s	s	20	4	Capacity	84	RC	1	0	23MC	1	0	0.78314781189	485.0	-321.0	486	-320	1
1.7	2015_Aug_14_1513	s	s	20	4	Capacity	85	ABS	2	0	24VC	0	1	0.547390222549	None	None	None	None	1
1.7	2015_Aug_14_1513	s	s	20	4	Capacity	86	RC	2	0	23VC	1	0	0.375811100006	-14.0	296.0	-14	293	1
1.7	2015_Aug_14_1513	s	s	20	4	Capacity	87	RC	1	0	23MC	1	0	0.59966301918	-298.0	322.0	-293	314	1
1.7	2015_Aug_14_1513	s	s	20	4	Capacity	88	ABS	1	0	24MC	0	1	1.8708729744	None	None	None	None	1
1.7	2015_Aug_14_1513	s	s	20	4	Capacity	89	ABS	1	0	24MC	1	0	0.571454048157	None	None	206	201	0
1.7	2015_Aug_14_1513	s	s	20	4	Capacity	90	RC	1	0	23MC	1	0	0.806347131729	-255.0	-71.0	-254	-70	1
1.7	2015_Aug_14_1513	s	s	20	4	Capacity	91	RC	2	0	23VC	1	0	0.399545907974	-11.0	-334.0	-9	-327	1
1.7	2015_Aug_14_1513	s	s	20	4	Capacity	92	ABS	2	0	24VC	0	1	0.50049996376	None	None	None	None	1
1.7	2015_Aug_14_1513	s	s	20	4	Capacity	1	ABS	0	2	24RD	0	1	1.75290107727	None	None	None	None	1
1.7	2015_Aug_14_1513	s	s	20	4	Capacity	2	RC	0	1	23RO	1	0	0.936603069305	117.0	67.0	111	65	1
1.7	2015_Aug_14_1513	s	s	20	4	Capacity	3	ABS	0	1	24RO	0	1	4.44352912903	None	None	None	None	1
1.7	2015_Aug_14_1513	s	s	20	4	Capacity	4	RC	0	2	23RD	1	0	0.434841156006	182.0	-124.0	181	-120	1
1.7	2015_Aug_14_1513	s	s	20	4	Capacity	5	RC	0	1	23RO	1	0	2.67793703079	287.0	-41.0	284	-38	1
1.7	2015_Aug_14_1513	s	s	20	4	Capacity	6	RC	0	2	23RD	1	0	0.677049875259	-145.0	-253.0	-145	-251	1
1.7	2015_Aug_14_1513	s	s	20	4	Capacity	7	ABS	0	1	24RO	0	1	8.09717297554	None	None	None	None	1
1.7	2015_Aug_14_1513	s	s	20	4	Capacity	8	ABS	0	2	24RD	0	1	1.52366399765	None	None	None	None	1
1.7	2015_Aug_14_1513	s	s	20	4	Capacity	9	ABS	0	2	24RD	0	1	0.88215303421	None	None	None	None	1
1.7	2015_Aug_14_1513	s	s	20	4	Capacity	10	ABS	0	1	24RO	0	1	3.95432591438	None	None	None	None	1
1.7	2015_Aug_14_1513	s	s	20	4	Capacity	11	RC	0	2	23RD	1	0	0.712424039841	467.0	-332.0	473	-333	1
1.7	2015_Aug_14_1513	s	s	20	4	Capacity	12	RC	0	1	23RO	1	0	3.06780695915	539.0	289.0	545	286	1
1.7	2015_Aug_14_1513	s	s	20	4	Capacity	13	ABS	0	1	24RO	0	1	6.19062709808	None	None	None	None	1
1.7	2015_Aug_14_1513	s	s	20	4	Capacity	14	ABS	0	2	24RD	0	1	0.900964975357	None	None	None	None	1
1.7	2015_Aug_14_1513	s	s	20	4	Capacity	15	RC	0	2	23RD	1	0	0.570899009705	-499.0	-83.0	-494	-84	1
1.7	2015_Aug_14_1513	s	s	20	4	Capacity	16	RC	0	1	23RO	1	0	2.9972820282	44.0	394.0	43	394	1
1.7	2015_Aug_14_1513	s	s	20	4	Capacity	17	ABS	0	1	24RO	0	1	5.47261691093	None	None	None	None	1
1.7	2015_Aug_14_1513	s	s	20	4	Capacity	18	ABS	0	2	24RD	0	1	1.30591082573	None	None	None	None	1
1.7	2015_Aug_14_1513	s	s	20	4	Capacity	19	RC	0	1	23RO	1	0	0.867084980011	30.0	-40.0	25	-39	1
1.7	2015_Aug_14_1513	s	s	20	4	Capacity	20	RC	0	2	23RD	1	0	0.464990139008	349.0	308.0	348	306	1
1.7	2015_Aug_14_1513	s	s	20	4	Capacity	21	RC	0	2	23RD	1	0	0.51208615303	236.0	-274.0	235	-273	1
1.7	2015_Aug_14_1513	s	s	20	4	Capacity	22	ABS	0	1	24RO	0	1	4.30780410767	None	None	None	None	1
1.7	2015_Aug_14_1513	s	s	20	4	Capacity	23	ABS	0	2	24RD	0	1	0.676861047745	None	None	None	None	1
1.7	2015_Aug_14_1513	s	s	20	4	Capacity	24	RC	0	1	23RO	1	0	1.07042312622	-120.0	87.0	-128	86	1
1.7	2015_Aug_14_1513	s	s	20	4	Capacity	25	RC	0	1	23RO	1	0	3.56622982025	497.0	-339.0	499	-337	1
1.7	2015_Aug_14_1513	s	s	20	4	Capacity	26	RC	0	2	23RD	1	0	1.33847999573	316.0	-200.0	328	-192	1
1.7	2015_Aug_14_1513	s	s	20	4	Capacity	27	ABS	0	2	24RD	0	1	0.717314004898	None	None	None	None	1
1.7	2015_Aug_14_1513	s	s	20	4	Capacity	28	ABS	0	1	24RO	0	1	6.93838000298	None	None	None	None	1
1.7	2015_Aug_14_1513	s	s	20	4	Capacity	29	ABS	0	2	24RD	0	1	11.4014589787	None	None	None	None	1
1.7	2015_Aug_14_1513	s	s	20	4	Capacity	30	RC	0	2	23RD	1	0	0.547487020493	5.0	-36.0	9	-32	1
1.7	2015_Aug_14_1513	s	s	20	4	Capacity	31	ABS	0	1	24RO	0	1	5.99065995216	None	None	None	None	1
1.7	2015_Aug_14_1513	s	s	20	4	Capacity	32	RC	0	1	23RO	1	0	0.799899101257	44.0	-288.0	45	-289	1
1.7	2015_Aug_14_1513	s	s	20	4	Capacity	33	ABS	0	2	24RD	0	1	0.823334932327	None	None	None	None	1
1.7	2015_Aug_14_1513	s	s	20	4	Capacity	34	RC	0	1	23RO	1	0	2.93690085411	484.0	338.0	480	340	1
1.7	2015_Aug_14_1513	s	s	20	4	Capacity	35	RC	0	2	23RD	1	0	0.776089906693	332.0	-370.0	333	-370	1
1.7	2015_Aug_14_1513	s	s	20	4	Capacity	36	ABS	0	1	24RO	0	1	3.29504489899	None	None	None	None	1
1.7	2015_Aug_14_1513	s	s	20	4	Capacity	37	ABS	0	1	24RO	0	1	5.54318404198	None	None	None	None	1
1.7	2015_Aug_14_1513	s	s	20	4	Capacity	38	RC	0	2	23RD	1	0	0.453310012817	175.0	-193.0	169	-193	1
1.7	2015_Aug_14_1513	s	s	20	4	Capacity	39	ABS	0	2	24RD	0	1	0.665324211121	None	None	None	None	1
1.7	2015_Aug_14_1513	s	s	20	4	Capacity	40	RC	0	1	23RO	1	0	3.949187994	91.0	-205.0	96	-203	1
1.7	2015_Aug_14_1513	s	s	20	4	Capacity	41	ABS	0	1	24RO	0	1	4.81916499138	None	None	None	None	1
1.7	2015_Aug_14_1513	s	s	20	4	Capacity	42	RC	0	1	23RO	1	0	2.76528811455	-341.0	233.0	-348	235	1
1.7	2015_Aug_14_1513	s	s	20	4	Capacity	43	RC	0	2	23RD	1	0	0.450939893723	-339.0	279.0	-333	283	1
1.7	2015_Aug_14_1513	s	s	20	4	Capacity	44	ABS	0	2	24RD	0	1	0.705747842789	None	None	None	None	1
1.7	2015_Aug_14_1513	s	s	20	4	Capacity	45	ABS	0	2	24RD	0	1	1.13560199738	None	None	None	None	1
1.7	2015_Aug_14_1513	s	s	20	4	Capacity	46	ABS	0	1	24RO	0	1	3.40936303139	None	None	None	None	1
1.7	2015_Aug_14_1513	s	s	20	4	Capacity	47	RC	0	1	23RO	0	1	5.02271795273	35.0	-384.0	None	None	0
1.7	2015_Aug_14_1513	s	s	20	4	Capacity	48	RC	0	2	23RD	1	0	0.458694934845	-352.0	63.0	-349	60	1
1.7	2015_Aug_14_1513	s	s	20	4	Capacity	49	RC	0	2	23RD	1	0	0.793893098831	397.0	-22.0	404	-24	1
1.7	2015_Aug_14_1513	s	s	20	4	Capacity	50	RC	0	1	23RO	1	0	1.15956401825	446.0	35.0	451	36	1
1.7	2015_Aug_14_1513	s	s	20	4	Capacity	51	ABS	0	1	24RO	0	1	2.56530189514	None	None	None	None	1
1.7	2015_Aug_14_1513	s	s	20	4	Capacity	52	ABS	0	2	24RD	0	1	0.594678163528	None	None	None	None	1
1.7	2015_Aug_14_1513	s	s	20	4	Capacity	53	RC	0	2	23RD	1	0	0.446502923965	341.0	-42.0	342	-47	1
1.7	2015_Aug_14_1513	s	s	20	4	Capacity	54	ABS	0	2	24RD	0	1	0.54780292511	None	None	None	None	1
1.7	2015_Aug_14_1513	s	s	20	4	Capacity	55	RC	0	1	23RO	1	0	5.28434801102	-276.0	-51.0	-270	-50	1
1.7	2015_Aug_14_1513	s	s	20	4	Capacity	56	ABS	0	1	24RO	0	1	3.97747802734	None	None	None	None	1
1.7	2015_Aug_14_1513	s	s	20	4	Capacity	57	ABS	0	1	24RO	0	1	7.10243201256	None	None	None	None	1
1.7	2015_Aug_14_1513	s	s	20	4	Capacity	58	RC	0	2	23RD	1	0	0.465283870697	-14.0	368.0	-22	375	1
1.7	2015_Aug_14_1513	s	s	20	4	Capacity	59	ABS	0	2	24RD	0	1	0.968008041382	None	None	None	None	1
1.7	2015_Aug_14_1513	s	s	20	4	Capacity	60	RC	0	1	23RO	1	0	2.43648791313	203.0	-229.0	202	-228	1
1.7	2015_Aug_14_1513	s	s	20	4	Capacity	61	RC	0	2	23RD	1	0	0.595362901688	-189.0	-275.0	-190	-271	1
1.7	2015_Aug_14_1513	s	s	20	4	Capacity	62	ABS	0	1	24RO	0	1	3.5397439003	None	None	None	None	1
1.7	2015_Aug_14_1513	s	s	20	4	Capacity	63	ABS	0	2	24RD	0	1	0.96507191658	None	None	None	None	1
1.7	2015_Aug_14_1513	s	s	20	4	Capacity	64	RC	0	1	23RO	1	0	2.13665413857	-274.0	179.0	-277	179	1
1.7	2015_Aug_14_1513	s	s	20	4	Capacity	65	ABS	0	2	24RD	0	1	0.829372882843	None	None	None	None	1
1.7	2015_Aug_14_1513	s	s	20	4	Capacity	66	RC	0	2	23RD	1	0	1.31267094612	-189.0	332.0	-184	334	1
1.7	2015_Aug_14_1513	s	s	20	4	Capacity	67	ABS	0	1	24RO	0	1	6.71519708633	None	None	None	None	1
1.7	2015_Aug_14_1513	s	s	20	4	Capacity	68	RC	0	1	23RO	1	0	1.94142508507	-408.0	407.0	-405	404	1
1.7	2015_Aug_14_1513	s	s	20	4	Capacity	69	ABS	0	2	24RD	0	1	1.45355892181	None	None	None	None	1
1.7	2015_Aug_14_1513	s	s	20	4	Capacity	70	ABS	0	1	24RO	0	1	5.32648706436	None	None	None	None	1
1.7	2015_Aug_14_1513	s	s	20	4	Capacity	71	RC	0	1	23RO	1	0	3.45490694046	468.0	-258.0	459	-257	1
1.7	2015_Aug_14_1513	s	s	20	4	Capacity	72	RC	0	2	23RD	1	0	0.453315973282	-208.0	-342.0	-205	-353	1
1.7	2015_Aug_14_1513	s	s	20	4	Capacity	73	ABS	0	1	24RO	0	1	5.10197496414	None	None	None	None	1
1.7	2015_Aug_14_1513	s	s	20	4	Capacity	74	ABS	0	2	24RD	0	1	0.676306009293	None	None	None	None	1
1.7	2015_Aug_14_1513	s	s	20	4	Capacity	75	RC	0	1	23RO	1	0	1.90116095543	40.0	-263.0	41	-273	1
1.7	2015_Aug_14_1513	s	s	20	4	Capacity	76	RC	0	2	23RD	1	0	0.42285323143	345.0	-192.0	351	-199	1
1.7	2015_Aug_14_1513	s	s	20	4	Capacity	77	RC	0	1	23RO	1	0	2.32613801956	536.0	311.0	541	312	1
1.7	2015_Aug_14_1513	s	s	20	4	Capacity	78	ABS	0	1	24RO	0	1	4.94302511215	None	None	None	None	1
1.7	2015_Aug_14_1513	s	s	20	4	Capacity	79	RC	0	2	23RD	1	0	0.517201185226	488.0	302.0	483	301	1
1.7	2015_Aug_14_1513	s	s	20	4	Capacity	80	ABS	0	2	24RD	0	1	0.583087921143	None	None	None	None	1
1.7	2015_Aug_14_1513	s	s	20	4	Capacity	81	RC	0	1	23RO	1	0	2.67127180099	352.0	248.0	352	253	1
1.7	2015_Aug_14_1513	s	s	20	4	Capacity	82	ABS	0	1	24RO	1	0	0.735895872116	None	None	-395	304	0
1.7	2015_Aug_14_1513	s	s	20	4	Capacity	83	RC	0	2	23RD	1	0	0.44703412056	-347.0	355.0	-343	351	1
1.7	2015_Aug_14_1513	s	s	20	4	Capacity	84	ABS	0	2	24RD	0	1	0.576154947281	None	None	None	None	1
1.7	2015_Aug_14_1513	s	s	20	4	Capacity	85	RC	0	2	23RD	1	0	0.434849023819	423.0	-33.0	423	-30	1
1.7	2015_Aug_14_1513	s	s	20	4	Capacity	86	RC	0	1	23RO	1	0	1.62372207642	344.0	358.0	346	366	1
1.7	2015_Aug_14_1513	s	s	20	4	Capacity	87	ABS	0	1	24RO	0	1	3.08979916573	None	None	None	None	1
1.7	2015_Aug_14_1513	s	s	20	4	Capacity	88	ABS	0	2	24RD	0	1	0.858610153198	None	None	None	None	1
1.7	2015_Aug_14_1513	s	s	20	4	Capacity	89	ABS	0	1	24RO	0	1	3.90717697144	None	None	None	None	1
1.7	2015_Aug_14_1513	s	s	20	4	Capacity	90	ABS	0	2	24RD	0	1	0.634927988052	None	None	None	None	1
1.7	2015_Aug_14_1513	s	s	20	4	Capacity	91	RC	0	2	23RD	1	0	0.764320850372	510.0	-393.0	500	-392	1
1.7	2015_Aug_14_1513	s	s	20	4	Capacity	92	RC	0	1	23RO	0	1	4.14868497849	521.0	11.0	None	None	0
1.7	2015_Aug_14_1513	s	s	20	4	SIC	1	ABS	2	0	24VC	0	1	0.535671949387	None	None	None	None	1
1.7	2015_Aug_14_1513	s	s	20	4	SIC	2	RC	2	1	23VO	1	0	0.418207883835	-38.0	227.0	-40	224	1
1.7	2015_Aug_14_1513	s	s	20	4	SIC	3	ABS	1	0	24MC	0	1	1.11789512634	None	None	None	None	1
1.7	2015_Aug_14_1513	s	s	20	4	SIC	4	ABS	1	1	24MO	0	1	0.865436792374	None	None	None	None	1
1.7	2015_Aug_14_1513	s	s	20	4	SIC	5	RC	1	0	23MC	1	0	0.705555915833	-268.0	-68.0	-259	-66	1
1.7	2015_Aug_14_1513	s	s	20	4	SIC	6	ABS	2	1	24VO	0	1	0.470177173615	None	None	None	None	1
1.7	2015_Aug_14_1513	s	s	20	4	SIC	7	ABS	2	2	24VD	0	1	0.394446134567	None	None	None	None	1
1.7	2015_Aug_14_1513	s	s	20	4	SIC	8	ABS	0	1	24RO	0	1	2.67808103561	None	None	None	None	1
1.7	2015_Aug_14_1513	s	s	20	4	SIC	9	RC	0	2	23RD	1	0	0.446597099304	-205.0	224.0	-198	227	1
1.7	2015_Aug_14_1513	s	s	20	4	SIC	10	ABS	0	2	24RD	0	1	0.82075214386	None	None	None	None	1
1.7	2015_Aug_14_1513	s	s	20	4	SIC	11	RC	1	1	23MO	1	0	0.729480981827	-412.0	-102.0	-405	-101	1
1.7	2015_Aug_14_1513	s	s	20	4	SIC	12	RC	2	2	23VD	1	0	0.45331788063	-524.0	162.0	-521	158	1
1.7	2015_Aug_14_1513	s	s	20	4	SIC	13	RC	2	0	23VC	1	0	0.357784032822	143.0	-103.0	140	-104	1
1.7	2015_Aug_14_1513	s	s	20	4	SIC	14	ABS	1	2	24MD	0	1	0.478397130966	None	None	None	None	1
1.7	2015_Aug_14_1513	s	s	20	4	SIC	15	RC	1	2	23MD	1	0	0.379634141922	-311.0	189.0	-317	194	1
1.7	2015_Aug_14_1513	s	s	20	4	SIC	16	RC	0	1	23RO	1	0	0.935982942581	-387.0	79.0	-384	79	1
1.7	2015_Aug_14_1513	s	s	20	4	SIC	17	ABS	1	0	24MC	0	1	1.75298810005	None	None	None	None	1
1.7	2015_Aug_14_1513	s	s	20	4	SIC	18	ABS	0	2	24RD	0	1	0.865339040756	None	None	None	None	1
1.7	2015_Aug_14_1513	s	s	20	4	SIC	19	ABS	2	0	24VC	0	1	0.488853931427	None	None	None	None	1
1.7	2015_Aug_14_1513	s	s	20	4	SIC	20	RC	0	1	23RO	1	0	0.58767580986	-191.0	79.0	-61	-102	0
1.7	2015_Aug_14_1513	s	s	20	4	SIC	21	RC	0	2	23RD	1	0	0.619471073151	-422.0	399.0	-419	393	1
1.7	2015_Aug_14_1513	s	s	20	4	SIC	22	RC	1	1	23MO	1	0	0.524013996124	-59.0	180.0	-66	186	1
1.7	2015_Aug_14_1513	s	s	20	4	SIC	23	ABS	2	2	24VD	0	1	0.500210046768	None	None	None	None	1
1.7	2015_Aug_14_1513	s	s	20	4	SIC	24	ABS	1	2	24MD	0	1	0.512647867203	None	None	None	None	1
1.7	2015_Aug_14_1513	s	s	20	4	SIC	25	RC	2	0	23VC	1	0	1.04683804512	528.0	20.0	530	23	1
1.7	2015_Aug_14_1513	s	s	20	4	SIC	26	RC	2	1	23VO	1	0	0.39949297905	-476.0	269.0	-473	272	1
1.7	2015_Aug_14_1513	s	s	20	4	SIC	27	ABS	1	1	24MO	0	1	1.99217414856	None	None	None	None	1
1.7	2015_Aug_14_1513	s	s	20	4	SIC	28	ABS	2	1	24VO	0	1	0.493698120117	None	None	None	None	1
1.7	2015_Aug_14_1513	s	s	20	4	SIC	29	ABS	0	1	24RO	0	1	3.93764805794	None	None	None	None	1
1.7	2015_Aug_14_1513	s	s	20	4	SIC	30	RC	1	2	23MD	1	0	0.45836186409	368.0	-47.0	357	-47	1
1.7	2015_Aug_14_1513	s	s	20	4	SIC	31	RC	1	0	23MC	1	0	0.481585979462	218.0	86.0	229	93	1
1.7	2015_Aug_14_1513	s	s	20	4	SIC	32	RC	2	2	23VD	1	0	0.382781982422	70.0	85.0	78	85	1
1.7	2015_Aug_14_1513	s	s	20	4	SIC	33	ABS	2	2	24VD	0	1	0.417858123779	None	None	None	None	1
1.7	2015_Aug_14_1513	s	s	20	4	SIC	34	RC	1	2	23MD	1	0	0.406728982925	-462.0	-182.0	-464	-175	1
1.7	2015_Aug_14_1513	s	s	20	4	SIC	35	RC	0	2	23RD	1	0	0.787935972214	-240.0	-362.0	-238	-362	1
1.7	2015_Aug_14_1513	s	s	20	4	SIC	36	ABS	0	1	24RO	0	1	3.39601802826	None	None	None	None	1
1.7	2015_Aug_14_1513	s	s	20	4	SIC	37	ABS	1	2	24MD	0	1	0.66535282135	None	None	None	None	1
1.7	2015_Aug_14_1513	s	s	20	4	SIC	38	ABS	1	0	24MC	0	1	0.947736024857	None	None	None	None	1
1.7	2015_Aug_14_1513	s	s	20	4	SIC	39	RC	2	2	23VD	1	0	0.417428970337	-66.0	343.0	-74	341	1
1.7	2015_Aug_14_1513	s	s	20	4	SIC	40	RC	0	1	23RO	1	0	2.64264798164	377.0	-327.0	369	-325	1
1.7	2015_Aug_14_1513	s	s	20	4	SIC	41	RC	1	0	23MC	1	0	1.41179418564	-300.0	-291.0	-294	-287	1
1.7	2015_Aug_14_1513	s	s	20	4	SIC	42	RC	2	0	23VC	1	0	0.441453933716	-76.0	314.0	-79	313	1
1.7	2015_Aug_14_1513	s	s	20	4	SIC	43	ABS	2	0	24VC	0	1	0.465178012848	None	None	None	None	1
1.7	2015_Aug_14_1513	s	s	20	4	SIC	44	ABS	1	1	24MO	0	1	1.05301499367	None	None	None	None	1
1.7	2015_Aug_14_1513	s	s	20	4	SIC	45	RC	1	1	23MO	1	0	0.952767133713	148.0	235.0	144	244	1
1.7	2015_Aug_14_1513	s	s	20	4	SIC	46	RC	2	1	23VO	1	0	0.404541969299	-241.0	-334.0	-243	-328	1
1.7	2015_Aug_14_1513	s	s	20	4	SIC	47	ABS	2	1	24VO	0	1	0.411320209503	None	None	None	None	1
1.7	2015_Aug_14_1513	s	s	20	4	SIC	48	ABS	0	2	24RD	0	1	0.920928955078	None	None	None	None	1
1.7	2015_Aug_14_1513	s	s	20	4	SIC	49	RC	1	1	23MO	1	0	1.74889707565	-407.0	76.0	-415	72	1
1.7	2015_Aug_14_1513	s	s	20	4	SIC	50	RC	2	0	23VC	1	0	0.406257152557	-523.0	176.0	-519	179	1
1.7	2015_Aug_14_1513	s	s	20	4	SIC	51	RC	0	2	23RD	1	0	0.525408983231	-141.0	-199.0	-145	-200	1
1.7	2015_Aug_14_1513	s	s	20	4	SIC	52	ABS	1	0	24MC	0	1	1.19992494583	None	None	None	None	1
1.7	2015_Aug_14_1513	s	s	20	4	SIC	53	RC	1	2	23MD	1	0	0.383322000504	-246.0	74.0	-250	75	1
1.7	2015_Aug_14_1513	s	s	20	4	SIC	54	ABS	2	0	24VC	0	1	0.476982116699	None	None	None	None	1
1.7	2015_Aug_14_1513	s	s	20	4	SIC	55	ABS	2	2	24VD	0	1	0.59942483902	None	None	None	None	1
1.7	2015_Aug_14_1513	s	s	20	4	SIC	56	RC	0	1	23RO	1	0	1.81249499321	-119.0	277.0	-123	281	1
1.7	2015_Aug_14_1513	s	s	20	4	SIC	57	ABS	2	1	24VO	0	1	0.466552019119	None	None	None	None	1
1.7	2015_Aug_14_1513	s	s	20	4	SIC	58	RC	1	0	23MC	1	0	1.09398603439	-397.0	-81.0	-389	-80	1
1.7	2015_Aug_14_1513	s	s	20	4	SIC	59	ABS	1	2	24MD	0	1	0.571171045303	None	None	None	None	1
1.7	2015_Aug_14_1513	s	s	20	4	SIC	60	ABS	0	2	24RD	0	1	1.03518009186	None	None	None	None	1
1.7	2015_Aug_14_1513	s	s	20	4	SIC	61	ABS	1	1	24MO	0	1	1.59521007538	None	None	None	None	1
1.7	2015_Aug_14_1513	s	s	20	4	SIC	62	ABS	0	1	24RO	0	1	2.29146409035	None	None	None	None	1
1.7	2015_Aug_14_1513	s	s	20	4	SIC	63	RC	2	1	23VO	1	0	0.407916069031	227.0	268.0	221	268	1
1.7	2015_Aug_14_1513	s	s	20	4	SIC	64	RC	2	2	23VD	1	0	0.387742996216	-442.0	72.0	-440	71	1
1.7	2015_Aug_14_1513	s	s	20	4	SIC	65	RC	1	2	23MD	1	0	0.394527196884	-359.0	-178.0	-358	-176	1
1.7	2015_Aug_14_1513	s	s	20	4	SIC	66	RC	0	1	23RO	1	0	2.19554901123	98.0	-191.0	103	-190	1
1.7	2015_Aug_14_1513	s	s	20	4	SIC	67	RC	2	0	23VC	1	0	0.465050935745	22.0	355.0	17	353	1
1.7	2015_Aug_14_1513	s	s	20	4	SIC	68	ABS	2	1	24VO	0	1	0.411378145218	None	None	None	None	1
1.7	2015_Aug_14_1513	s	s	20	4	SIC	69	ABS	1	1	24MO	0	1	1.42356395721	None	None	None	None	1
1.7	2015_Aug_14_1513	s	s	20	4	SIC	70	ABS	2	0	24VC	0	1	0.528908967972	None	None	None	None	1
1.7	2015_Aug_14_1513	s	s	20	4	SIC	71	ABS	1	2	24MD	0	1	0.572730064392	None	None	None	None	1
1.7	2015_Aug_14_1513	s	s	20	4	SIC	72	RC	2	1	23VO	1	0	0.418107032776	300.0	-251.0	296	-248	1
1.7	2015_Aug_14_1513	s	s	20	4	SIC	73	ABS	0	2	24RD	0	1	0.540697813034	None	None	None	None	1
1.7	2015_Aug_14_1513	s	s	20	4	SIC	74	RC	0	2	23RD	1	0	0.493670940399	-407.0	359.0	-405	359	1
1.7	2015_Aug_14_1513	s	s	20	4	SIC	75	RC	2	2	23VD	1	0	0.3877389431	8.0	235.0	11	236	1
1.7	2015_Aug_14_1513	s	s	20	4	SIC	76	ABS	2	2	24VD	0	1	0.399569034576	None	None	None	None	1
1.7	2015_Aug_14_1513	s	s	20	4	SIC	77	ABS	0	1	24RO	0	1	4.54953098297	None	None	None	None	1
1.7	2015_Aug_14_1513	s	s	20	4	SIC	78	RC	1	0	23MC	1	0	0.676119089127	221.0	210.0	217	206	1
1.7	2015_Aug_14_1513	s	s	20	4	SIC	79	RC	1	1	23MO	1	0	0.782890081406	-197.0	217.0	-201	219	1
1.7	2015_Aug_14_1513	s	s	20	4	SIC	80	ABS	1	0	24MC	0	1	1.60704708099	None	None	None	None	1
1.7	2015_Aug_14_1513	s	s	20	4	SIC	81	ABS	1	0	24MC	0	1	1.23036503792	None	None	None	None	1
1.7	2015_Aug_14_1513	s	s	20	4	SIC	82	ABS	2	2	24VD	0	1	0.493708133698	None	None	None	None	1
1.7	2015_Aug_14_1513	s	s	20	4	SIC	83	ABS	2	0	24VC	0	1	0.505481958389	None	None	None	None	1
1.7	2015_Aug_14_1513	s	s	20	4	SIC	84	RC	0	1	23RO	1	0	2.11805605888	-24.0	267.0	-14	266	1
1.7	2015_Aug_14_1513	s	s	20	4	SIC	85	RC	1	0	23MC	1	0	1.10023212433	-75.0	-293.0	-76	-293	1
1.7	2015_Aug_14_1513	s	s	20	4	SIC	86	RC	0	2	23RD	1	0	0.6312520504	187.0	-249.0	192	-249	1
1.7	2015_Aug_14_1513	s	s	20	4	SIC	87	RC	1	1	23MO	1	0	0.58442401886	133.0	343.0	133	343	1
1.7	2015_Aug_14_1513	s	s	20	4	SIC	88	RC	1	2	23MD	1	0	0.406782150269	-334.0	-37.0	-325	-35	1
1.7	2015_Aug_14_1513	s	s	20	4	SIC	89	ABS	0	1	24RO	0	1	4.84884810448	None	None	None	None	1
1.7	2015_Aug_14_1513	s	s	20	4	SIC	90	ABS	2	1	24VO	1	0	0.465386152267	None	None	3	-47	0
1.7	2015_Aug_14_1513	s	s	20	4	SIC	91	RC	2	2	23VD	1	0	0.453289031982	-83.0	-236.0	-86	-236	1
1.7	2015_Aug_14_1513	s	s	20	4	SIC	92	ABS	1	2	24MD	0	1	0.552399873734	None	None	None	None	1
1.7	2015_Aug_14_1513	s	s	20	4	SIC	93	RC	2	1	23VO	1	0	0.465116024017	-24.0	128.0	-28	127	1
1.7	2015_Aug_14_1513	s	s	20	4	SIC	94	ABS	1	1	24MO	0	1	0.952766895294	None	None	None	None	1
1.7	2015_Aug_14_1513	s	s	20	4	SIC	95	RC	2	0	23VC	1	0	0.582840919495	446.0	-282.0	451	-275	1
1.7	2015_Aug_14_1513	s	s	20	4	SIC	96	ABS	0	2	24RD	0	1	0.673732995987	None	None	None	None	1
1.7	2015_Aug_14_1513	s	s	20	4	SIC	97	RC	2	2	23VD	1	0	0.368583917618	42.0	-17.0	45	-21	1
1.7	2015_Aug_14_1513	s	s	20	4	SIC	98	ABS	0	1	24RO	0	1	4.09056186676	None	None	None	None	1
1.7	2015_Aug_14_1513	s	s	20	4	SIC	99	ABS	2	0	24VC	0	1	0.493699789047	None	None	None	None	1
1.7	2015_Aug_14_1513	s	s	20	4	SIC	100	RC	1	2	23MD	1	0	0.444275140762	71.0	343.0	73	343	1
1.7	2015_Aug_14_1513	s	s	20	4	SIC	101	RC	1	1	23MO	1	0	0.458275079727	426.0	-307.0	437	-305	1
1.7	2015_Aug_14_1513	s	s	20	4	SIC	102	RC	2	0	23VC	1	0	0.453851222992	109.0	404.0	107	406	1
1.7	2015_Aug_14_1513	s	s	20	4	SIC	103	ABS	1	0	24MC	0	1	1.29404497147	None	None	None	None	1
1.7	2015_Aug_14_1513	s	s	20	4	SIC	104	RC	0	2	23RD	1	0	0.493777036667	96.0	-87.0	97	-82	1
1.7	2015_Aug_14_1513	s	s	20	4	SIC	105	ABS	2	2	24VD	0	1	0.423529148102	None	None	None	None	1
1.7	2015_Aug_14_1513	s	s	20	4	SIC	106	ABS	2	1	24VO	0	1	0.423138856888	None	None	None	None	1
1.7	2015_Aug_14_1513	s	s	20	4	SIC	107	ABS	1	1	24MO	0	1	2.32976317406	None	None	None	None	1
1.7	2015_Aug_14_1513	s	s	20	4	SIC	108	RC	1	0	23MC	1	0	1.05858302116	495.0	-86.0	497	-88	1
1.7	2015_Aug_14_1513	s	s	20	4	SIC	109	RC	2	1	23VO	1	0	0.429901123047	-55.0	-136.0	-54	-136	1
1.7	2015_Aug_14_1513	s	s	20	4	SIC	110	ABS	1	2	24MD	0	1	0.564237833023	None	None	None	None	1
1.7	2015_Aug_14_1513	s	s	20	4	SIC	111	ABS	0	2	24RD	0	1	0.482310056686	None	None	None	None	1
1.7	2015_Aug_14_1513	s	s	20	4	SIC	112	RC	0	1	23RO	1	0	2.57201004028	-429.0	347.0	-420	348	1
1.7	2015_Aug_14_1513	s	s	20	4	SIC	113	ABS	1	0	24MC	0	1	1.44683790207	None	None	None	None	1
1.7	2015_Aug_14_1513	s	s	20	4	SIC	114	ABS	2	0	24VC	0	1	0.459026813507	None	None	None	None	1
1.7	2015_Aug_14_1513	s	s	20	4	SIC	115	RC	2	0	23VC	1	0	0.403171062469	255.0	41.0	250	45	1
1.7	2015_Aug_14_1513	s	s	20	4	SIC	116	RC	0	1	23RO	1	0	1.86615204811	-166.0	232.0	-166	234	1
1.7	2015_Aug_14_1513	s	s	20	4	SIC	117	RC	1	2	23MD	1	0	0.422966957092	75.0	-26.0	81	-25	1
1.7	2015_Aug_14_1513	s	s	20	4	SIC	118	ABS	2	1	24VO	0	1	0.488421916962	None	None	None	None	1
1.7	2015_Aug_14_1513	s	s	20	4	SIC	119	ABS	0	2	24RD	0	1	0.517061948776	None	None	None	None	1
1.7	2015_Aug_14_1513	s	s	20	4	SIC	120	RC	1	0	23MC	1	0	1.78343391418	180.0	172.0	183	167	1
1.7	2015_Aug_14_1513	s	s	20	4	SIC	121	ABS	1	1	24MO	0	1	2.04509401321	None	None	None	None	1
1.7	2015_Aug_14_1513	s	s	20	4	SIC	122	RC	2	1	23VO	1	0	0.4155189991	-501.0	151.0	-508	153	1
1.7	2015_Aug_14_1513	s	s	20	4	SIC	123	ABS	2	2	24VD	0	1	0.399457931519	None	None	None	None	1
1.7	2015_Aug_14_1513	s	s	20	4	SIC	124	RC	0	2	23RD	1	0	0.57111787796	485.0	-292.0	485	-293	1
1.7	2015_Aug_14_1513	s	s	20	4	SIC	125	RC	1	1	23MO	1	0	0.434830904007	353.0	17.0	356	13	1
1.7	2015_Aug_14_1513	s	s	20	4	SIC	126	RC	2	2	23VD	1	0	0.387716054916	-57.0	139.0	-46	139	1
1.7	2015_Aug_14_1513	s	s	20	4	SIC	127	ABS	1	2	24MD	0	1	0.465082883835	None	None	None	None	1
1.7	2015_Aug_14_1513	s	s	20	4	SIC	128	ABS	0	1	24RO	0	1	2.37191104889	None	None	None	None	1
1.7	2015_Aug_14_1513	s	s	20	4	SIC	129	RC	1	0	23MC	1	0	0.846717119217	248.0	285.0	241	287	1
1.7	2015_Aug_14_1513	s	s	20	4	SIC	130	ABS	2	2	24VD	0	1	0.458342075348	None	None	None	None	1
1.7	2015_Aug_14_1513	s	s	20	4	SIC	131	RC	2	0	23VC	1	0	0.41824889183	-392.0	-22.0	-401	-17	1
1.7	2015_Aug_14_1513	s	s	20	4	SIC	132	RC	0	1	23RO	1	0	1.9482319355	115.0	154.0	116	159	1
1.7	2015_Aug_14_1513	s	s	20	4	SIC	133	RC	2	1	23VO	0	1	0.446588039398	-265.0	-314.0	None	None	0
1.7	2015_Aug_14_1513	s	s	20	4	SIC	134	ABS	0	2	24RD	0	1	0.749677181244	None	None	None	None	1
1.7	2015_Aug_14_1513	s	s	20	4	SIC	135	ABS	2	0	24VC	0	1	0.587662935257	None	None	None	None	1
1.7	2015_Aug_14_1513	s	s	20	4	SIC	136	RC	0	2	23RD	1	0	0.42306804657	126.0	143.0	134	144	1
1.7	2015_Aug_14_1513	s	s	20	4	SIC	137	ABS	1	0	24MC	0	1	1.41177797318	None	None	None	None	1
1.7	2015_Aug_14_1513	s	s	20	4	SIC	138	RC	2	2	23VD	1	0	0.453104019165	201.0	-314.0	200	-318	1
1.7	2015_Aug_14_1513	s	s	20	4	SIC	139	RC	1	1	23MO	1	0	0.799684047699	532.0	141.0	521	144	1
1.7	2015_Aug_14_1513	s	s	20	4	SIC	140	ABS	2	1	24VO	0	1	0.658475160599	None	None	None	None	1
1.7	2015_Aug_14_1513	s	s	20	4	SIC	141	RC	1	2	23MD	1	0	0.418366909027	-474.0	105.0	-473	107	1
1.7	2015_Aug_14_1513	s	s	20	4	SIC	142	ABS	1	2	24MD	0	1	0.670219898224	None	None	None	None	1
1.7	2015_Aug_14_1513	s	s	20	4	SIC	143	ABS	0	1	24RO	0	1	3.90272808075	None	None	None	None	1
1.7	2015_Aug_14_1513	s	s	20	4	SIC	144	ABS	1	1	24MO	0	1	1.9482858181	None	None	None	None	1
1.7	2015_Aug_14_1513	s	s	20	4	SIC	145	ABS	2	1	24VO	0	1	0.453382968903	None	None	None	None	1
1.7	2015_Aug_14_1513	s	s	20	4	SIC	146	ABS	0	2	24RD	0	1	0.865254163742	None	None	None	None	1
1.7	2015_Aug_14_1513	s	s	20	4	SIC	147	RC	1	1	23MO	1	0	1.58835506439	165.0	397.0	163	390	1
1.7	2015_Aug_14_1513	s	s	20	4	SIC	148	RC	2	0	23VC	0	1	0.511865139008	238.0	-259.0	None	None	0
1.7	2015_Aug_14_1513	s	s	20	4	SIC	149	RC	1	2	23MD	1	0	0.446680784225	45.0	-180.0	53	-175	1
1.7	2015_Aug_14_1513	s	s	20	4	SIC	150	ABS	0	1	24RO	0	1	3.65491914749	None	None	None	None	1
1.7	2015_Aug_14_1513	s	s	20	4	SIC	151	RC	1	0	23MC	1	0	0.712176084518	468.0	-365.0	471	-362	1
1.7	2015_Aug_14_1513	s	s	20	4	SIC	152	ABS	1	0	24MC	1	0	0.535959005356	None	None	125	20	0
1.7	2015_Aug_14_1513	s	s	20	4	SIC	153	ABS	2	2	24VD	0	1	0.470175981522	None	None	None	None	1
1.7	2015_Aug_14_1513	s	s	20	4	SIC	154	RC	2	1	23VO	1	0	0.535284042358	-374.0	-66.0	-372	-63	1
1.7	2015_Aug_14_1513	s	s	20	4	SIC	155	ABS	1	1	24MO	0	1	1.28912210464	None	None	None	None	1
1.7	2015_Aug_14_1513	s	s	20	4	SIC	156	ABS	2	0	24VC	0	1	1.47069501877	None	None	None	None	1
1.7	2015_Aug_14_1513	s	s	20	4	SIC	157	RC	2	2	23VD	1	0	0.46661400795	-501.0	179.0	-503	187	1
1.7	2015_Aug_14_1513	s	s	20	4	SIC	158	RC	0	1	23RO	1	0	1.78355002403	-266.0	-243.0	-270	-242	1
1.7	2015_Aug_14_1513	s	s	20	4	SIC	159	RC	0	2	23RD	1	0	0.454837799072	-52.0	-204.0	-43	-201	1
1.7	2015_Aug_14_1513	s	s	20	4	SIC	160	ABS	1	2	24MD	0	1	0.865395069122	None	None	None	None	1
1.7	2015_Aug_14_1513	s	s	20	4	SIC	161	RC	2	2	23VD	1	0	0.418076038361	182.0	126.0	180	131	1
1.7	2015_Aug_14_1513	s	s	20	4	SIC	162	RC	1	1	23MO	1	0	1.97204589844	-38.0	-356.0	-44	-362	1
1.7	2015_Aug_14_1513	s	s	20	4	SIC	163	ABS	0	2	24RD	0	1	0.835077047348	None	None	None	None	1
1.7	2015_Aug_14_1513	s	s	20	4	SIC	164	ABS	2	2	24VD	0	1	0.523460865021	None	None	None	None	1
1.7	2015_Aug_14_1513	s	s	20	4	SIC	165	RC	2	1	23VO	1	0	0.411254882812	273.0	83.0	270	82	1
1.7	2015_Aug_14_1513	s	s	20	4	SIC	166	ABS	2	0	24VC	0	1	0.559952974319	None	None	None	None	1
1.7	2015_Aug_14_1513	s	s	20	4	SIC	167	ABS	1	0	24MC	0	1	1.69432210922	None	None	None	None	1
1.7	2015_Aug_14_1513	s	s	20	4	SIC	168	ABS	1	1	24MO	0	1	1.79246091843	None	None	None	None	1
1.7	2015_Aug_14_1513	s	s	20	4	SIC	169	RC	1	2	23MD	1	0	0.676834106445	-352.0	-387.0	-346	-387	1
1.7	2015_Aug_14_1513	s	s	20	4	SIC	170	RC	0	2	23RD	1	0	0.481925010681	-260.0	-183.0	-258	-182	1
1.7	2015_Aug_14_1513	s	s	20	4	SIC	171	RC	0	1	23RO	1	0	3.17781805992	187.0	-65.0	188	-60	1
1.7	2015_Aug_14_1513	s	s	20	4	SIC	172	RC	2	0	23VC	1	0	0.419672966003	-529.0	-60.0	-532	-65	1
1.7	2015_Aug_14_1513	s	s	20	4	SIC	173	ABS	0	1	24RO	0	1	5.71646904945	None	None	None	None	1
1.7	2015_Aug_14_1513	s	s	20	4	SIC	174	RC	1	0	23MC	1	0	0.999801874161	376.0	92.0	373	91	1
1.7	2015_Aug_14_1513	s	s	20	4	SIC	175	ABS	2	1	24VO	0	1	0.481870174408	None	None	None	None	1
1.7	2015_Aug_14_1513	s	s	20	4	SIC	176	ABS	1	2	24MD	0	1	0.506135940552	None	None	None	None	1
1.7	2015_Aug_14_1513	s	s	20	4	SIC	177	ABS	1	0	24MC	0	1	4.04449987411	None	None	None	None	1
1.7	2015_Aug_14_1513	s	s	20	4	SIC	178	RC	0	2	23RD	1	0	0.470128059387	33.0	-263.0	32	-267	1
1.7	2015_Aug_14_1513	s	s	20	4	SIC	179	RC	1	1	23MO	1	0	0.629703044891	133.0	67.0	137	70	1
1.7	2015_Aug_14_1513	s	s	20	4	SIC	180	RC	0	1	23RO	1	0	1.8472161293	-439.0	-77.0	-438	-72	1
1.7	2015_Aug_14_1513	s	s	20	4	SIC	181	ABS	0	1	24RO	0	1	3.92665195465	None	None	None	None	1
1.7	2015_Aug_14_1513	s	s	20	4	SIC	182	ABS	1	1	24MO	0	1	1.05880904198	None	None	None	None	1
1.7	2015_Aug_14_1513	s	s	20	4	SIC	183	ABS	2	0	24VC	0	1	0.564079999924	None	None	None	None	1
1.7	2015_Aug_14_1513	s	s	20	4	SIC	184	RC	2	0	23VC	1	0	0.512822151184	-387.0	239.0	-381	242	1
1.7	2015_Aug_14_1513	s	s	20	4	SIC	185	RC	2	1	23VO	1	0	0.441561937332	-152.0	-177.0	-157	-171	1
1.7	2015_Aug_14_1513	s	s	20	4	SIC	186	ABS	2	2	24VD	0	1	0.429833173752	None	None	None	None	1
1.7	2015_Aug_14_1513	s	s	20	4	SIC	187	RC	1	0	23MC	1	0	1.1713681221	-473.0	-70.0	-475	-71	1
1.7	2015_Aug_14_1513	s	s	20	4	SIC	188	RC	1	2	23MD	1	0	0.406098842621	-65.0	368.0	-55	370	1
1.7	2015_Aug_14_1513	s	s	20	4	SIC	189	RC	2	2	23VD	1	0	0.476848125458	-227.0	-326.0	-231	-324	1
1.7	2015_Aug_14_1513	s	s	20	4	SIC	190	ABS	0	2	24RD	0	1	0.611402988434	None	None	None	None	1
1.7	2015_Aug_14_1513	s	s	20	4	SIC	191	ABS	2	1	24VO	0	1	0.434809207916	None	None	None	None	1
1.7	2015_Aug_14_1513	s	s	20	4	SIC	192	ABS	1	2	24MD	0	1	0.553120851517	None	None	None	None	1
1.7	2015_Aug_14_1513	s	s	20	4	SIC	193	ABS	1	2	24MD	0	1	0.564316987991	None	None	None	None	1
1.7	2015_Aug_14_1513	s	s	20	4	SIC	194	ABS	2	2	24VD	0	1	0.411278009415	None	None	None	None	1
1.7	2015_Aug_14_1513	s	s	20	4	SIC	195	RC	1	2	23MD	1	0	0.499586105347	-489.0	385.0	-485	379	1
1.7	2015_Aug_14_1513	s	s	20	4	SIC	196	ABS	1	0	24MC	0	1	1.61589503288	None	None	None	None	1
1.7	2015_Aug_14_1513	s	s	20	4	SIC	197	RC	2	2	23VD	1	0	0.426726818085	77.0	86.0	81	82	1
1.7	2015_Aug_14_1513	s	s	20	4	SIC	198	ABS	2	0	24VC	0	1	0.481916904449	None	None	None	None	1
1.7	2015_Aug_14_1513	s	s	20	4	SIC	199	RC	1	1	23MO	1	0	0.619611978531	102.0	-129.0	102	-129	1
1.7	2015_Aug_14_1513	s	s	20	4	SIC	200	ABS	0	1	24RO	0	1	4.46710085869	None	None	None	None	1
1.7	2015_Aug_14_1513	s	s	20	4	SIC	201	RC	2	1	23VO	1	0	0.470140218735	514.0	-393.0	521	-397	1
1.7	2015_Aug_14_1513	s	s	20	4	SIC	202	RC	2	0	23VC	1	0	0.394744873047	-262.0	386.0	-259	383	1
1.7	2015_Aug_14_1513	s	s	20	4	SIC	203	RC	0	1	23RO	1	0	2.38371491432	512.0	219.0	75	-393	0
1.7	2015_Aug_14_1513	s	s	20	4	SIC	204	ABS	1	1	24MO	0	1	1.00661802292	None	None	None	None	1
1.7	2015_Aug_14_1513	s	s	20	4	SIC	205	ABS	2	1	24VO	0	1	0.447093963623	None	None	None	None	1
1.7	2015_Aug_14_1513	s	s	20	4	SIC	206	RC	1	0	23MC	1	0	0.46520113945	-487.0	204.0	-485	209	1
1.7	2015_Aug_14_1513	s	s	20	4	SIC	207	ABS	0	2	24RD	0	1	0.689512968063	None	None	None	None	1
1.7	2015_Aug_14_1513	s	s	20	4	SIC	208	RC	0	2	23RD	1	0	0.432074069977	-339.0	339.0	-343	340	1
1.7	2015_Aug_14_1513	s	s	20	4	SIC	209	RC	1	2	23MD	1	0	0.411314964294	-249.0	-4.0	-255	3	1
1.7	2015_Aug_14_1513	s	s	20	4	SIC	210	RC	2	0	23VC	1	0	0.399549007416	470.0	160.0	474	159	1
1.7	2015_Aug_14_1513	s	s	20	4	SIC	211	ABS	0	2	24RD	0	1	0.552555799484	None	None	None	None	1
1.7	2015_Aug_14_1513	s	s	20	4	SIC	212	ABS	1	1	24MO	0	1	0.938318014145	None	None	None	None	1
1.7	2015_Aug_14_1513	s	s	20	4	SIC	213	RC	2	2	23VD	1	0	0.404764175415	50.0	198.0	49	198	1
1.7	2015_Aug_14_1513	s	s	20	4	SIC	214	RC	1	1	23MO	1	0	0.806479930878	180.0	276.0	181	279	1
1.7	2015_Aug_14_1513	s	s	20	4	SIC	215	RC	0	2	23RD	1	0	0.583520889282	475.0	284.0	474	293	1
1.7	2015_Aug_14_1513	s	s	20	4	SIC	216	ABS	1	0	24MC	0	1	1.97672486305	None	None	None	None	1
1.7	2015_Aug_14_1513	s	s	20	4	SIC	217	ABS	2	0	24VC	0	1	0.465255022049	None	None	None	None	1
1.7	2015_Aug_14_1513	s	s	20	4	SIC	218	ABS	2	1	24VO	0	1	0.540740013123	None	None	None	None	1
1.7	2015_Aug_14_1513	s	s	20	4	SIC	219	RC	1	0	23MC	1	0	2.82166409492	-477.0	410.0	-475	414	1
1.7	2015_Aug_14_1513	s	s	20	4	SIC	220	RC	2	1	23VO	1	0	0.634949207306	-171.0	-384.0	-162	-387	1
1.7	2015_Aug_14_1513	s	s	20	4	SIC	221	ABS	2	2	24VD	0	1	0.670243024826	None	None	None	None	1
1.7	2015_Aug_14_1513	s	s	20	4	SIC	222	ABS	0	1	24RO	0	1	5.23727297783	None	None	None	None	1
1.7	2015_Aug_14_1513	s	s	20	4	SIC	223	ABS	1	2	24MD	0	1	0.500382184982	None	None	None	None	1
1.7	2015_Aug_14_1513	s	s	20	4	SIC	224	RC	0	1	23RO	1	0	0.979845046997	390.0	10.0	387	9	1
1.7	2015_Aug_14_1513	s	s	20	4	SIC	225	ABS	1	1	24MO	0	1	1.85345482826	None	None	None	None	1
1.7	2015_Aug_14_1513	s	s	20	4	SIC	226	ABS	0	2	24RD	0	1	0.973793029785	None	None	None	None	1
1.7	2015_Aug_14_1513	s	s	20	4	SIC	227	RC	0	1	23RO	1	0	4.16081190109	325.0	-380.0	331	-388	1
1.7	2015_Aug_14_1513	s	s	20	4	SIC	228	RC	2	0	23VC	1	0	0.41849899292	228.0	-116.0	225	-108	1
1.7	2015_Aug_14_1513	s	s	20	4	SIC	229	RC	2	1	23VO	1	0	0.411274909973	159.0	390.0	162	399	1
1.7	2015_Aug_14_1513	s	s	20	4	SIC	230	RC	2	2	23VD	1	0	0.418595075607	191.0	-56.0	188	-62	1
1.7	2015_Aug_14_1513	s	s	20	4	SIC	231	RC	0	2	23RD	1	0	0.711876153946	-470.0	-321.0	-467	-320	1
1.7	2015_Aug_14_1513	s	s	20	4	SIC	232	ABS	2	2	24VD	0	1	0.411369085312	None	None	None	None	1
1.7	2015_Aug_14_1513	s	s	20	4	SIC	233	ABS	0	1	24RO	0	1	4.48392701149	None	None	None	None	1
1.7	2015_Aug_14_1513	s	s	20	4	SIC	234	ABS	2	0	24VC	0	1	0.511870145798	None	None	None	None	1
1.7	2015_Aug_14_1513	s	s	20	4	SIC	235	ABS	1	2	24MD	0	1	0.559051990509	None	None	None	None	1
1.7	2015_Aug_14_1513	s	s	20	4	SIC	236	RC	1	1	23MO	1	0	3.03618383408	-364.0	-164.0	-375	-164	1
1.7	2015_Aug_14_1513	s	s	20	4	SIC	237	ABS	2	1	24VO	0	1	0.71374297142	None	None	None	None	1
1.7	2015_Aug_14_1513	s	s	20	4	SIC	238	RC	1	0	23MC	1	0	1.23533892632	526.0	-216.0	522	-212	1
1.7	2015_Aug_14_1513	s	s	20	4	SIC	239	RC	1	2	23MD	1	0	0.490037918091	526.0	158.0	531	158	1
1.7	2015_Aug_14_1513	s	s	20	4	SIC	240	ABS	1	0	24MC	0	1	4.37796187401	None	None	None	None	1
1.7	2015_Aug_14_1513	s	s	20	4	SIC	241	RC	2	1	23VO	1	0	0.423067092896	200.0	332.0	204	340	1
1.7	2015_Aug_14_1513	s	s	20	4	SIC	242	ABS	2	0	24VC	0	1	0.505833148956	None	None	None	None	1
1.7	2015_Aug_14_1513	s	s	20	4	SIC	243	RC	0	2	23RD	1	0	0.489509820938	-61.0	-258.0	-67	-254	1
1.7	2015_Aug_14_1513	s	s	20	4	SIC	244	RC	1	0	23MC	1	0	2.81250810623	-239.0	236.0	-233	242	1
1.7	2015_Aug_14_1513	s	s	20	4	SIC	245	ABS	1	2	24MD	0	1	0.576117992401	None	None	None	None	1
1.7	2015_Aug_14_1513	s	s	20	4	SIC	246	RC	0	1	23RO	1	0	1.47416996956	-384.0	296.0	-388	305	1
1.7	2015_Aug_14_1513	s	s	20	4	SIC	247	ABS	1	0	24MC	0	1	2.11805319786	None	None	None	None	1
1.7	2015_Aug_14_1513	s	s	20	4	SIC	248	ABS	0	1	24RO	0	1	3.04353880882	None	None	None	None	1
1.7	2015_Aug_14_1513	s	s	20	4	SIC	249	RC	1	1	23MO	1	0	0.665069103241	-476.0	164.0	-477	165	1
1.7	2015_Aug_14_1513	s	s	20	4	SIC	250	RC	2	2	23VD	1	0	0.453376054764	-133.0	-352.0	-134	-357	1
1.7	2015_Aug_14_1513	s	s	20	4	SIC	251	ABS	2	2	24VD	0	1	0.44657087326	None	None	None	None	1
1.7	2015_Aug_14_1513	s	s	20	4	SIC	252	RC	1	2	23MD	1	0	0.570993185043	-128.0	-409.0	-133	-412	1
1.7	2015_Aug_14_1513	s	s	20	4	SIC	253	ABS	1	1	24MO	0	1	1.3801548481	None	None	None	None	1
1.7	2015_Aug_14_1513	s	s	20	4	SIC	254	ABS	2	1	24VO	0	1	0.430389881134	None	None	None	None	1
1.7	2015_Aug_14_1513	s	s	20	4	SIC	255	ABS	0	2	24RD	0	1	0.634973049164	None	None	None	None	1
1.7	2015_Aug_14_1513	s	s	20	4	SIC	256	RC	2	0	23VC	1	0	0.54079914093	25.0	-31.0	21	-34	1
1.7	2015_Aug_14_1513	s	s	20	4	SIC	257	RC	0	1	23RO	1	0	2.6241838932	-244.0	-150.0	-242	-145	1
1.7	2015_Aug_14_1513	s	s	20	4	SIC	258	ABS	1	2	24MD	0	1	0.500225067139	None	None	None	None	1
1.7	2015_Aug_14_1513	s	s	20	4	SIC	259	RC	1	0	23MC	1	0	1.65407013893	173.0	-186.0	171	-183	1
1.7	2015_Aug_14_1513	s	s	20	4	SIC	260	RC	2	2	23VD	1	0	0.500292062759	489.0	-332.0	480	-323	1
1.7	2015_Aug_14_1513	s	s	20	4	SIC	261	RC	0	2	23RD	1	0	0.535672903061	326.0	-332.0	321	-323	1
1.7	2015_Aug_14_1513	s	s	20	4	SIC	262	ABS	1	0	24MC	0	1	1.67747616768	None	None	None	None	1
1.7	2015_Aug_14_1513	s	s	20	4	SIC	263	RC	2	0	23VC	1	0	0.418101072311	-175.0	33.0	-174	31	1
1.7	2015_Aug_14_1513	s	s	20	4	SIC	264	ABS	0	1	24RO	0	1	4.16122603416	None	None	None	None	1
1.7	2015_Aug_14_1513	s	s	20	4	SIC	265	ABS	2	0	24VC	0	1	0.501188993454	None	None	None	None	1
1.7	2015_Aug_14_1513	s	s	20	4	SIC	266	RC	2	1	23VO	1	0	0.411206007004	392.0	-147.0	398	-148	1
1.7	2015_Aug_14_1513	s	s	20	4	SIC	267	RC	1	1	23MO	1	0	0.64177107811	415.0	177.0	411	183	1
1.7	2015_Aug_14_1513	s	s	20	4	SIC	268	ABS	2	1	24VO	0	1	0.476969957352	None	None	None	None	1
1.7	2015_Aug_14_1513	s	s	20	4	SIC	269	ABS	2	2	24VD	0	1	0.45837187767	None	None	None	None	1
1.7	2015_Aug_14_1513	s	s	20	4	SIC	270	ABS	0	2	24RD	0	1	0.794625043869	None	None	None	None	1
1.7	2015_Aug_14_1513	s	s	20	4	SIC	271	RC	1	2	23MD	1	0	0.470101118088	125.0	364.0	132	371	1
1.7	2015_Aug_14_1513	s	s	20	4	SIC	272	ABS	1	1	24MO	0	1	2.60059714317	None	None	None	None	1
1.7	2015_Aug_14_1513	s	s	20	4	SIC	273	RC	2	0	23VC	1	0	0.434763908386	-222.0	-404.0	-219	-404	1
1.7	2015_Aug_14_1513	s	s	20	4	SIC	274	RC	2	1	23VO	1	0	0.418118953705	460.0	230.0	461	234	1
1.7	2015_Aug_14_1513	s	s	20	4	SIC	275	RC	0	2	23RD	1	0	0.583381891251	476.0	403.0	483	405	1
1.7	2015_Aug_14_1513	s	s	20	4	SIC	276	ABS	1	1	24MO	0	1	2.29452800751	None	None	None	None	1
1.7	2015_Aug_14_1513	s	s	20	4	SIC	277	RC	1	1	23MO	1	0	0.748531103134	315.0	398.0	322	397	1
1.7	2015_Aug_14_1513	s	s	20	4	SIC	278	RC	1	2	23MD	1	0	0.364228010178	133.0	-40.0	134	-41	1
1.7	2015_Aug_14_1513	s	s	20	4	SIC	279	ABS	0	1	24RO	0	1	5.24900388718	None	None	None	None	1
1.7	2015_Aug_14_1513	s	s	20	4	SIC	280	ABS	2	1	24VO	0	1	0.453428030014	None	None	None	None	1
1.7	2015_Aug_14_1513	s	s	20	4	SIC	281	ABS	1	2	24MD	0	1	0.58788394928	None	None	None	None	1
1.7	2015_Aug_14_1513	s	s	20	4	SIC	282	ABS	2	2	24VD	0	1	0.429847002029	None	None	None	None	1
1.7	2015_Aug_14_1513	s	s	20	4	SIC	283	RC	2	2	23VD	1	0	0.429961919785	336.0	301.0	340	303	1
1.7	2015_Aug_14_1513	s	s	20	4	SIC	284	RC	1	0	23MC	1	0	1.05853104591	-346.0	248.0	-354	250	1
1.7	2015_Aug_14_1513	s	s	20	4	SIC	285	ABS	1	0	24MC	0	1	1.52950000763	None	None	None	None	1
1.7	2015_Aug_14_1513	s	s	20	4	SIC	286	ABS	2	0	24VC	0	1	0.411292076111	None	None	None	None	1
1.7	2015_Aug_14_1513	s	s	20	4	SIC	287	RC	0	1	23RO	1	0	1.05055999756	379.0	290.0	375	281	1
1.7	2015_Aug_14_1513	s	s	20	4	SIC	288	ABS	0	2	24RD	0	1	0.611526966095	None	None	None	None	1
1.7	2015_Aug_14_1513	s	s	20	4	SIC	289	RC	2	2	23VD	1	0	0.465132951736	192.0	-248.0	192	-244	1
1.7	2015_Aug_14_1513	s	s	20	4	SIC	290	RC	2	0	23VC	1	0	0.45836687088	-485.0	-71.0	-480	-69	1
1.7	2015_Aug_14_1513	s	s	20	4	SIC	291	ABS	2	0	24VC	0	1	0.664480924606	None	None	None	None	1
1.7	2015_Aug_14_1513	s	s	20	4	SIC	292	ABS	1	0	24MC	0	1	1.87765002251	None	None	None	None	1
1.7	2015_Aug_14_1513	s	s	20	4	SIC	293	ABS	1	1	24MO	0	1	2.38392782211	None	None	None	None	1
1.7	2015_Aug_14_1513	s	s	20	4	SIC	294	ABS	0	2	24RD	0	1	1.27056217194	None	None	None	None	1
1.7	2015_Aug_14_1513	s	s	20	4	SIC	295	RC	1	2	23MD	1	0	0.524061918259	-447.0	-106.0	-454	-105	1
1.7	2015_Aug_14_1513	s	s	20	4	SIC	296	RC	0	2	23RD	1	0	0.929162025452	133.0	-370.0	133	-371	1
1.7	2015_Aug_14_1513	s	s	20	4	SIC	297	ABS	2	2	24VD	0	1	0.705319166183	None	None	None	None	1
1.7	2015_Aug_14_1513	s	s	20	4	SIC	298	RC	1	1	23MO	1	0	0.882621049881	-154.0	-200.0	-147	-205	1
1.7	2015_Aug_14_1513	s	s	20	4	SIC	299	RC	0	1	23RO	1	0	1.30164599419	333.0	-151.0	339	-147	1
1.7	2015_Aug_14_1513	s	s	20	4	SIC	300	RC	1	0	23MC	1	0	0.994807004929	-88.0	5.0	-101	10	1
1.7	2015_Aug_14_1513	s	s	20	4	SIC	301	ABS	2	1	24VO	0	1	0.670799016953	None	None	None	None	1
1.7	2015_Aug_14_1513	s	s	20	4	SIC	302	ABS	1	2	24MD	0	1	0.478471040726	None	None	None	None	1
1.7	2015_Aug_14_1513	s	s	20	4	SIC	303	RC	2	1	23VO	1	0	0.629666090012	-162.0	-350.0	-158	-350	1
1.7	2015_Aug_14_1513	s	s	20	4	SIC	304	ABS	0	1	24RO	0	1	4.57332992554	None	None	None	None	1
1.7	2015_Aug_14_1513	s	s	20	4	SIC	305	RC	0	2	23RD	1	0	0.488373994827	457.0	-270.0	460	-271	1
1.7	2015_Aug_14_1513	s	s	20	4	SIC	306	ABS	0	2	24RD	0	1	1.69423794746	None	None	None	None	1
1.7	2015_Aug_14_1513	s	s	20	4	SIC	307	RC	2	2	23VD	1	0	0.705832004547	421.0	-235.0	431	-235	1
1.7	2015_Aug_14_1513	s	s	20	4	SIC	308	RC	0	1	23RO	0	1	3.51366901398	-127.0	-82.0	None	None	0
1.7	2015_Aug_14_1513	s	s	20	4	SIC	309	RC	1	1	23MO	1	0	0.611406087875	-540.0	-47.0	-544	-47	1
1.7	2015_Aug_14_1513	s	s	20	4	SIC	310	RC	2	1	23VO	1	0	0.447225093842	168.0	-39.0	164	-37	1
1.7	2015_Aug_14_1513	s	s	20	4	SIC	311	ABS	1	1	24MO	0	1	1.85882091522	None	None	None	None	1
1.7	2015_Aug_14_1513	s	s	20	4	SIC	312	ABS	2	0	24VC	0	1	0.488816976547	None	None	None	None	1
1.7	2015_Aug_14_1513	s	s	20	4	SIC	313	ABS	0	1	24RO	0	1	2.90161204338	None	None	None	None	1
1.7	2015_Aug_14_1513	s	s	20	4	SIC	314	ABS	1	0	24MC	0	1	1.28234505653	None	None	None	None	1
1.7	2015_Aug_14_1513	s	s	20	4	SIC	315	ABS	2	2	24VD	0	1	0.470153808594	None	None	None	None	1
1.7	2015_Aug_14_1513	s	s	20	4	SIC	316	RC	2	0	23VC	1	0	0.522542953491	-437.0	281.0	-440	277	1
1.7	2015_Aug_14_1513	s	s	20	4	SIC	317	ABS	2	1	24VO	1	0	0.561529159546	None	None	55	-86	0
1.7	2015_Aug_14_1513	s	s	20	4	SIC	318	RC	1	2	23MD	1	0	0.759923934937	-359.0	2.0	-357	2	1
1.7	2015_Aug_14_1513	s	s	20	4	SIC	319	RC	1	0	23MC	1	0	1.35022807121	-84.0	5.0	-81	11	1
1.7	2015_Aug_14_1513	s	s	20	4	SIC	320	ABS	1	2	24MD	0	1	0.823737859726	None	None	None	None	1
1.7	2015_Aug_14_1513	s	s	20	4	SIC	321	ABS	2	1	24VO	0	1	0.677005052567	None	None	None	None	1
1.7	2015_Aug_14_1513	s	s	20	4	SIC	322	RC	1	0	23MC	1	0	1.6540210247	421.0	-95.0	416	-90	1
1.7	2015_Aug_14_1513	s	s	20	4	SIC	323	RC	0	1	23RO	1	0	2.83601808548	257.0	-272.0	255	-267	1
1.7	2015_Aug_14_1513	s	s	20	4	SIC	324	ABS	1	2	24MD	0	1	0.62310385704	None	None	None	None	1
1.7	2015_Aug_14_1513	s	s	20	4	SIC	325	ABS	2	0	24VC	0	1	0.482431173325	None	None	None	None	1
1.7	2015_Aug_14_1513	s	s	20	4	SIC	326	RC	2	1	23VO	1	0	0.658335924149	183.0	-356.0	186	-356	1
1.7	2015_Aug_14_1513	s	s	20	4	SIC	327	ABS	1	0	24MC	0	1	2.07096195221	None	None	None	None	1
1.7	2015_Aug_14_1513	s	s	20	4	SIC	328	RC	0	2	23RD	1	0	0.488749027252	-175.0	-365.0	-170	-358	1
1.7	2015_Aug_14_1513	s	s	20	4	SIC	329	ABS	2	2	24VD	0	1	0.446677923203	None	None	None	None	1
1.7	2015_Aug_14_1513	s	s	20	4	SIC	330	RC	2	0	23VC	1	0	0.44168305397	-199.0	247.0	-201	247	1
1.7	2015_Aug_14_1513	s	s	20	4	SIC	331	ABS	1	1	24MO	0	1	1.65386486053	None	None	None	None	1
1.7	2015_Aug_14_1513	s	s	20	4	SIC	332	RC	1	1	23MO	1	0	0.570698976517	-21.0	335.0	-29	336	1
1.7	2015_Aug_14_1513	s	s	20	4	SIC	333	ABS	0	1	24RO	0	1	3.87844204903	None	None	None	None	1
1.7	2015_Aug_14_1513	s	s	20	4	SIC	334	ABS	0	2	24RD	0	1	0.549113035202	None	None	None	None	1
1.7	2015_Aug_14_1513	s	s	20	4	SIC	335	RC	1	2	23MD	1	0	0.438482999802	459.0	-13.0	463	-8	1
1.7	2015_Aug_14_1513	s	s	20	4	SIC	336	RC	2	2	23VD	1	0	0.394514083862	-375.0	87.0	-371	88	1
1.7	2015_Aug_14_1513	s	s	20	4	SIC	337	ABS	1	0	24MC	0	1	2.19777202606	None	None	None	None	1
1.7	2015_Aug_14_1513	s	s	20	4	SIC	338	ABS	2	0	24VC	0	1	0.517205953598	None	None	None	None	1
1.7	2015_Aug_14_1513	s	s	20	4	SIC	339	ABS	0	1	24RO	0	1	4.29583406448	None	None	None	None	1
1.7	2015_Aug_14_1513	s	s	20	4	SIC	340	ABS	0	2	24RD	0	1	0.481889009476	None	None	None	None	1
1.7	2015_Aug_14_1513	s	s	20	4	SIC	341	RC	1	0	23MC	1	0	2.6542031765	40.0	-113.0	39	-110	1
1.7	2015_Aug_14_1513	s	s	20	4	SIC	342	RC	2	1	23VO	1	0	0.453453063965	-151.0	-141.0	-149	-136	1
1.7	2015_Aug_14_1513	s	s	20	4	SIC	343	RC	2	2	23VD	1	0	0.430003881454	523.0	291.0	525	285	1
1.7	2015_Aug_14_1513	s	s	20	4	SIC	344	RC	0	2	23RD	1	0	0.70532989502	234.0	12.0	240	10	1
1.7	2015_Aug_14_1513	s	s	20	4	SIC	345	RC	1	2	23MD	1	0	0.535613059998	344.0	317.0	347	322	1
1.7	2015_Aug_14_1513	s	s	20	4	SIC	346	ABS	2	1	24VO	0	1	0.476968050003	None	None	None	None	1
1.7	2015_Aug_14_1513	s	s	20	4	SIC	347	RC	2	0	23VC	1	0	0.441499948502	-136.0	-337.0	-138	-340	1
1.7	2015_Aug_14_1513	s	s	20	4	SIC	348	ABS	1	2	24MD	0	1	0.528989076614	None	None	None	None	1
1.7	2015_Aug_14_1513	s	s	20	4	SIC	349	ABS	1	1	24MO	0	1	1.97331404686	None	None	None	None	1
1.7	2015_Aug_14_1513	s	s	20	4	SIC	350	RC	1	1	23MO	1	0	0.434782981873	182.0	-122.0	187	-120	1
1.7	2015_Aug_14_1513	s	s	20	4	SIC	351	RC	0	1	23RO	1	0	2.00028800964	278.0	-213.0	287	-217	1
1.7	2015_Aug_14_1513	s	s	20	4	SIC	352	ABS	2	2	24VD	0	1	0.423454046249	None	None	None	None	1
1.7	2015_Aug_14_1513	s	s	20	4	SIC	353	RC	1	1	23MO	1	0	0.469954967499	-15.0	38.0	-19	29	1
1.7	2015_Aug_14_1513	s	s	20	4	SIC	354	ABS	1	2	24MD	0	1	0.575926065445	None	None	None	None	1
1.7	2015_Aug_14_1513	s	s	20	4	SIC	355	RC	0	2	23RD	1	0	0.419761896133	232.0	-294.0	247	-285	1
1.7	2015_Aug_14_1513	s	s	20	4	SIC	356	RC	1	0	23MC	1	0	2.05911183357	-519.0	277.0	-519	279	1
1.7	2015_Aug_14_1513	s	s	20	4	SIC	357	RC	2	0	23VC	1	0	0.441823005676	-326.0	224.0	-321	225	1
1.7	2015_Aug_14_1513	s	s	20	4	SIC	358	ABS	2	2	24VD	0	1	0.413751840591	None	None	None	None	1
1.7	2015_Aug_14_1513	s	s	20	4	SIC	359	ABS	2	0	24VC	0	1	0.497434854507	None	None	None	None	1
1.7	2015_Aug_14_1513	s	s	20	4	SIC	360	ABS	0	2	24RD	0	1	0.858611822128	None	None	None	None	1
1.7	2015_Aug_14_1513	s	s	20	4	SIC	361	ABS	2	1	24VO	0	1	0.44172501564	None	None	None	None	1
1.7	2015_Aug_14_1513	s	s	20	4	SIC	362	ABS	1	0	24MC	0	1	1.75749206543	None	None	None	None	1
1.7	2015_Aug_14_1513	s	s	20	4	SIC	363	RC	1	2	23MD	1	0	0.540534973145	-333.0	217.0	-324	214	1
1.7	2015_Aug_14_1513	s	s	20	4	SIC	364	RC	2	2	23VD	1	0	0.481836080551	424.0	-252.0	424	-243	1
1.7	2015_Aug_14_1513	s	s	20	4	SIC	365	ABS	1	1	24MO	0	1	1.76486110687	None	None	None	None	1
1.7	2015_Aug_14_1513	s	s	20	4	SIC	366	RC	0	1	23RO	1	0	2.84211397171	-324.0	-146.0	-321	-146	1
1.7	2015_Aug_14_1513	s	s	20	4	SIC	367	ABS	0	1	24RO	0	1	4.37308311462	None	None	None	None	1
1.7	2015_Aug_14_1513	s	s	20	4	SIC	368	RC	2	1	23VO	1	0	0.458135843277	-95.0	-299.0	-96	-301	1
1.7	2015_Aug_14_1513	s	s	20	4	SIC	369	RC	2	1	23VO	1	0	0.429847955704	340.0	-412.0	341	-407	1
1.7	2015_Aug_14_1513	s	s	20	4	SIC	370	RC	0	2	23RD	1	0	0.912464141846	-325.0	-336.0	-328	-336	1
1.7	2015_Aug_14_1513	s	s	20	4	SIC	371	RC	1	2	23MD	1	0	0.453217983246	-252.0	333.0	-247	342	1
1.7	2015_Aug_14_1513	s	s	20	4	SIC	372	ABS	0	1	24RO	0	1	3.36060619354	None	None	None	None	1
1.7	2015_Aug_14_1513	s	s	20	4	SIC	373	ABS	0	2	24RD	0	1	0.782885074615	None	None	None	None	1
1.7	2015_Aug_14_1513	s	s	20	4	SIC	374	ABS	1	0	24MC	0	1	0.900422811508	None	None	None	None	1
1.7	2015_Aug_14_1513	s	s	20	4	SIC	375	ABS	2	2	24VD	0	1	0.434844017029	None	None	None	None	1
1.7	2015_Aug_14_1513	s	s	20	4	SIC	376	ABS	2	0	24VC	0	1	0.429934024811	None	None	None	None	1
1.7	2015_Aug_14_1513	s	s	20	4	SIC	377	RC	2	0	23VC	1	0	0.487639904022	287.0	324.0	282	321	1
1.7	2015_Aug_14_1513	s	s	20	4	SIC	378	RC	0	1	23RO	1	0	0.744397878647	356.0	-33.0	351	-27	1
1.7	2015_Aug_14_1513	s	s	20	4	SIC	379	ABS	1	2	24MD	0	1	0.536023855209	None	None	None	None	1
1.7	2015_Aug_14_1513	s	s	20	4	SIC	380	RC	1	0	23MC	1	0	0.900620937347	-427.0	-43.0	-431	-41	1
1.7	2015_Aug_14_1513	s	s	20	4	SIC	381	ABS	2	1	24VO	0	1	0.489573001862	None	None	None	None	1
1.7	2015_Aug_14_1513	s	s	20	4	SIC	382	RC	2	2	23VD	1	0	0.394665956497	-394.0	-276.0	-391	-279	1
1.7	2015_Aug_14_1513	s	s	20	4	SIC	383	ABS	1	1	24MO	0	1	2.33341312408	None	None	None	None	1
1.7	2015_Aug_14_1513	s	s	20	4	SIC	384	RC	1	1	23MO	1	0	0.741505146027	-292.0	112.0	-301	118	1
1.7	2015_Aug_14_1513	s	s	20	4	SIC	385	RC	1	0	23MC	1	0	0.92911195755	362.0	-103.0	367	-105	1
1.7	2015_Aug_14_1513	s	s	20	4	SIC	386	ABS	1	2	24MD	0	1	0.547394990921	None	None	None	None	1
1.7	2015_Aug_14_1513	s	s	20	4	SIC	387	ABS	2	1	24VO	0	1	0.446408033371	None	None	None	None	1
1.7	2015_Aug_14_1513	s	s	20	4	SIC	388	ABS	1	0	24MC	0	1	3.95153903961	None	None	None	None	1
1.7	2015_Aug_14_1513	s	s	20	4	SIC	389	RC	2	1	23VO	1	0	0.670258998871	306.0	-386.0	307	-381	1
1.7	2015_Aug_14_1513	s	s	20	4	SIC	390	RC	0	2	23RD	1	0	0.44637298584	209.0	-153.0	215	-151	1
1.7	2015_Aug_14_1513	s	s	20	4	SIC	391	RC	0	1	23RO	1	0	4.46877288818	-40.0	-29.0	-33	-23	1
1.7	2015_Aug_14_1513	s	s	20	4	SIC	392	RC	1	2	23MD	1	0	0.431218147278	18.0	-225.0	20	-219	1
1.7	2015_Aug_14_1513	s	s	20	4	SIC	393	ABS	2	2	24VD	0	1	0.465625047684	None	None	None	None	1
1.7	2015_Aug_14_1513	s	s	20	4	SIC	394	ABS	1	1	24MO	0	1	1.91202878952	None	None	None	None	1
1.7	2015_Aug_14_1513	s	s	20	4	SIC	395	RC	2	2	23VD	1	0	0.705562114716	313.0	323.0	321	325	1
1.7	2015_Aug_14_1513	s	s	20	4	SIC	396	RC	1	1	23MO	1	0	0.618195056915	160.0	-271.0	164	-268	1
1.7	2015_Aug_14_1513	s	s	20	4	SIC	397	ABS	0	2	24RD	0	1	1.25880384445	None	None	None	None	1
1.7	2015_Aug_14_1513	s	s	20	4	SIC	398	ABS	0	1	24RO	0	1	3.20087099075	None	None	None	None	1
1.7	2015_Aug_14_1513	s	s	20	4	SIC	399	RC	2	0	23VC	1	0	0.564346075058	-60.0	391.0	-53	393	1
1.7	2015_Aug_14_1513	s	s	20	4	SIC	400	ABS	2	0	24VC	0	1	0.465368032455	None	None	None	None	1
1.7	2015_Aug_14_1513	s	s	20	4	SIC	401	RC	0	2	23RD	1	0	0.606171131134	495.0	-274.0	492	-274	1
1.7	2015_Aug_14_1513	s	s	20	4	SIC	402	ABS	1	0	24MC	0	1	1.77664208412	None	None	None	None	1
1.7	2015_Aug_14_1513	s	s	20	4	SIC	403	RC	1	2	23MD	1	0	0.411707162857	-348.0	96.0	-346	90	1
1.7	2015_Aug_14_1513	s	s	20	4	SIC	404	ABS	1	1	24MO	0	1	1.35985994339	None	None	None	None	1
1.7	2015_Aug_14_1513	s	s	20	4	SIC	405	ABS	0	2	24RD	1	0	0.564298152924	None	None	-195	-137	0
1.7	2015_Aug_14_1513	s	s	20	4	SIC	406	RC	2	0	23VC	1	0	0.43457198143	-456.0	-412.0	-450	-406	1
1.7	2015_Aug_14_1513	s	s	20	4	SIC	407	RC	0	1	23RO	0	1	2.36533093452	-343.0	123.0	None	None	0
1.7	2015_Aug_14_1513	s	s	20	4	SIC	408	ABS	2	2	24VD	0	1	0.453149080276	None	None	None	None	1
1.7	2015_Aug_14_1513	s	s	20	4	SIC	409	RC	2	2	23VD	1	0	0.47012591362	-493.0	255.0	-489	255	1
1.7	2015_Aug_14_1513	s	s	20	4	SIC	410	ABS	1	2	24MD	0	1	0.564301013947	None	None	None	None	1
1.7	2015_Aug_14_1513	s	s	20	4	SIC	411	ABS	0	1	24RO	0	1	3.29163503647	None	None	None	None	1
1.7	2015_Aug_14_1513	s	s	20	4	SIC	412	RC	1	0	23MC	1	0	1.19987416267	42.0	64.0	45	65	1
1.7	2015_Aug_14_1513	s	s	20	4	SIC	413	ABS	2	0	24VC	0	1	0.482549905777	None	None	None	None	1
1.7	2015_Aug_14_1513	s	s	20	4	SIC	414	RC	2	1	23VO	1	0	0.470093011856	237.0	171.0	235	176	1
1.7	2015_Aug_14_1513	s	s	20	4	SIC	415	ABS	2	1	24VO	0	1	0.466753005981	None	None	None	None	1
1.7	2015_Aug_14_1513	s	s	20	4	SIC	416	RC	1	1	23MO	1	0	0.571083068848	-347.0	199.0	-346	195	1
1.7	2015_Aug_14_1513	s	s	20	4	SIC	417	ABS	0	2	24RD	0	1	0.681658029556	None	None	None	None	1
1.7	2015_Aug_14_1513	s	s	20	4	SIC	418	RC	2	0	23VC	1	0	0.501092910767	513.0	-401.0	518	-404	1
1.7	2015_Aug_14_1513	s	s	20	4	SIC	419	RC	2	1	23VO	1	0	0.51714015007	160.0	296.0	159	293	1
1.7	2015_Aug_14_1513	s	s	20	4	SIC	420	RC	1	2	23MD	1	0	0.440904140472	-440.0	-310.0	-429	-306	1
1.7	2015_Aug_14_1513	s	s	20	4	SIC	421	ABS	0	1	24RO	0	1	3.34258294106	None	None	None	None	1
1.7	2015_Aug_14_1513	s	s	20	4	SIC	422	ABS	2	2	24VD	0	1	0.434875965118	None	None	None	None	1
1.7	2015_Aug_14_1513	s	s	20	4	SIC	423	ABS	1	0	24MC	1	0	0.579783916473	None	None	404	-217	0
1.7	2015_Aug_14_1513	s	s	20	4	SIC	424	ABS	2	1	24VO	0	1	0.555922031403	None	None	None	None	1
1.7	2015_Aug_14_1513	s	s	20	4	SIC	425	RC	2	2	23VD	1	0	0.435477018356	300.0	260.0	309	262	1
1.7	2015_Aug_14_1513	s	s	20	4	SIC	426	RC	1	0	23MC	1	0	0.641618013382	-172.0	-21.0	-173	-23	1
1.7	2015_Aug_14_1513	s	s	20	4	SIC	427	RC	0	1	23RO	1	0	2.39789581299	116.0	-166.0	117	-164	1
1.7	2015_Aug_14_1513	s	s	20	4	SIC	428	ABS	1	1	24MO	0	1	3.00754499435	None	None	None	None	1
1.7	2015_Aug_14_1513	s	s	20	4	SIC	429	ABS	1	2	24MD	0	1	0.599672079086	None	None	None	None	1
1.7	2015_Aug_14_1513	s	s	20	4	SIC	430	RC	1	1	23MO	1	0	0.641664028168	-117.0	119.0	-120	117	1
1.7	2015_Aug_14_1513	s	s	20	4	SIC	431	RC	0	2	23RD	1	0	0.540786027908	423.0	355.0	423	347	1
1.7	2015_Aug_14_1513	s	s	20	4	SIC	432	ABS	2	0	24VC	0	1	0.477614879608	None	None	None	None	1
1.7	2015_Aug_14_1513	s	s	20	4	SIC	433	ABS	1	2	24MD	0	1	0.677175998688	None	None	None	None	1
1.7	2015_Aug_14_1513	s	s	20	4	SIC	434	ABS	0	2	24RD	0	1	0.623207092285	None	None	None	None	1
1.7	2015_Aug_14_1513	s	s	20	4	SIC	435	RC	0	2	23RD	1	0	0.387745857239	-73.0	185.0	-78	187	1
1.7	2015_Aug_14_1513	s	s	20	4	SIC	436	ABS	2	0	24VC	0	1	0.481719017029	None	None	None	None	1
1.7	2015_Aug_14_1513	s	s	20	4	SIC	437	ABS	1	0	24MC	0	1	2.0896089077	None	None	None	None	1
1.7	2015_Aug_14_1513	s	s	20	4	SIC	438	RC	1	1	23MO	1	0	1.20032596588	-432.0	342.0	-444	343	1
1.7	2015_Aug_14_1513	s	s	20	4	SIC	439	ABS	2	2	24VD	0	1	0.399504899979	None	None	None	None	1
1.7	2015_Aug_14_1513	s	s	20	4	SIC	440	RC	2	0	23VC	1	0	0.517290115356	359.0	-336.0	362	-331	1
1.7	2015_Aug_14_1513	s	s	20	4	SIC	441	ABS	0	1	24RO	0	1	3.62456893921	None	None	None	None	1
1.7	2015_Aug_14_1513	s	s	20	4	SIC	442	RC	0	1	23RO	1	0	0.629956007004	-395.0	299.0	-394	299	1
1.7	2015_Aug_14_1513	s	s	20	4	SIC	443	RC	2	2	23VD	1	0	0.422968864441	-229.0	112.0	-237	120	1
1.7	2015_Aug_14_1513	s	s	20	4	SIC	444	RC	1	2	23MD	1	0	0.387932062149	-404.0	285.0	-414	290	1
1.7	2015_Aug_14_1513	s	s	20	4	SIC	445	ABS	2	1	24VO	0	1	0.452506065369	None	None	None	None	1
1.7	2015_Aug_14_1513	s	s	20	4	SIC	446	RC	2	1	23VO	1	0	0.394608974457	68.0	269.0	68	264	1
1.7	2015_Aug_14_1513	s	s	20	4	SIC	447	RC	1	0	23MC	1	0	0.82999587059	309.0	-31.0	303	-33	1
1.7	2015_Aug_14_1513	s	s	20	4	SIC	448	ABS	1	1	24MO	0	1	2.10620093346	None	None	None	None	1
1.7	2015_Aug_14_1513	s	s	20	4	SIC	449	RC	2	2	23VD	1	0	0.418148040771	149.0	-90.0	143	-91	1
1.7	2015_Aug_14_1513	s	s	20	4	SIC	450	ABS	1	1	24MO	0	1	1.26561903954	None	None	None	None	1
1.7	2015_Aug_14_1513	s	s	20	4	SIC	451	RC	2	1	23VO	1	0	0.387715101242	84.0	-146.0	88	-143	1
1.7	2015_Aug_14_1513	s	s	20	4	SIC	452	RC	0	2	23RD	1	0	0.417777061462	322.0	191.0	315	198	1
1.7	2015_Aug_14_1513	s	s	20	4	SIC	453	ABS	0	2	24RD	0	1	0.72909283638	None	None	None	None	1
1.7	2015_Aug_14_1513	s	s	20	4	SIC	454	RC	0	1	23RO	1	0	1.65400004387	-324.0	204.0	-325	210	1
1.7	2015_Aug_14_1513	s	s	20	4	SIC	455	ABS	2	2	24VD	0	1	0.493628978729	None	None	None	None	1
1.7	2015_Aug_14_1513	s	s	20	4	SIC	456	RC	1	1	23MO	1	0	0.655342817307	-191.0	-54.0	-185	-58	1
1.7	2015_Aug_14_1513	s	s	20	4	SIC	457	RC	2	0	23VC	1	0	0.458245992661	-450.0	405.0	-459	405	1
1.7	2015_Aug_14_1513	s	s	20	4	SIC	458	RC	1	2	23MD	1	0	0.363926172256	3.0	-119.0	10	-116	1
1.7	2015_Aug_14_1513	s	s	20	4	SIC	459	ABS	1	2	24MD	0	1	0.693713903427	None	None	None	None	1
1.7	2015_Aug_14_1513	s	s	20	4	SIC	460	ABS	2	0	24VC	0	1	0.48877286911	None	None	None	None	1
1.7	2015_Aug_14_1513	s	s	20	4	SIC	461	RC	1	0	23MC	1	0	1.07018780708	385.0	375.0	393	380	1
1.7	2015_Aug_14_1513	s	s	20	4	SIC	462	ABS	0	1	24RO	0	1	2.53696799278	None	None	None	None	1
1.7	2015_Aug_14_1513	s	s	20	4	SIC	463	ABS	2	1	24VO	0	1	0.434882879257	None	None	None	None	1
1.7	2015_Aug_14_1513	s	s	20	4	SIC	464	ABS	1	0	24MC	0	1	1.60003304482	None	None	None	None	1
1.7	2015_Aug_14_1513	s	s	20	4	SIC	465	RC	1	0	23MC	1	0	0.829833030701	431.0	-246.0	430	-244	1
1.7	2015_Aug_14_1513	s	s	20	4	SIC	466	RC	1	2	23MD	1	0	0.418195009232	68.0	215.0	71	216	1
1.7	2015_Aug_14_1513	s	s	20	4	SIC	467	ABS	1	0	24MC	0	1	1.78845596313	None	None	None	None	1
1.7	2015_Aug_14_1513	s	s	20	4	SIC	468	RC	0	2	23RD	1	0	0.399485111237	105.0	295.0	106	301	1
1.7	2015_Aug_14_1513	s	s	20	4	SIC	469	ABS	1	1	24MO	0	1	2.37211108208	None	None	None	None	1
1.7	2015_Aug_14_1513	s	s	20	4	SIC	470	RC	0	1	23RO	1	0	0.505753993988	-76.0	-1.0	-70	1	1
1.7	2015_Aug_14_1513	s	s	20	4	SIC	471	ABS	0	1	24RO	0	1	3.27824497223	None	None	None	None	1
1.7	2015_Aug_14_1513	s	s	20	4	SIC	472	RC	2	0	23VC	1	0	0.406681060791	-397.0	352.0	-394	355	1
1.7	2015_Aug_14_1513	s	s	20	4	SIC	473	RC	2	1	23VO	1	0	0.553189992905	-226.0	405.0	-233	410	1
1.7	2015_Aug_14_1513	s	s	20	4	SIC	474	ABS	0	2	24RD	0	1	0.576112031937	None	None	None	None	1
1.7	2015_Aug_14_1513	s	s	20	4	SIC	475	ABS	2	0	24VC	0	1	0.882114887238	None	None	None	None	1
1.7	2015_Aug_14_1513	s	s	20	4	SIC	476	ABS	2	2	24VD	0	1	0.594895124435	None	None	None	None	1
1.7	2015_Aug_14_1513	s	s	20	4	SIC	477	RC	2	2	23VD	1	0	0.399506092072	-444.0	-60.0	-433	-60	1
1.7	2015_Aug_14_1513	s	s	20	4	SIC	478	RC	1	1	23MO	1	0	0.517591953278	310.0	148.0	304	149	1
1.7	2015_Aug_14_1513	s	s	20	4	SIC	479	ABS	1	2	24MD	0	1	0.818531036377	None	None	None	None	1
1.7	2015_Aug_14_1513	s	s	20	4	SIC	480	ABS	2	1	24VO	0	1	0.470188856125	None	None	None	None	1
1.7	2015_Aug_14_1513	s	s	20	4	SIC	481	ABS	1	0	24MC	0	1	2.12166213989	None	None	None	None	1
1.7	2015_Aug_14_1513	s	s	20	4	SIC	482	RC	1	2	23MD	1	0	0.423072099686	-290.0	-254.0	-292	-249	1
1.7	2015_Aug_14_1513	s	s	20	4	SIC	483	ABS	2	1	24VO	0	1	0.582023859024	None	None	None	None	1
1.7	2015_Aug_14_1513	s	s	20	4	SIC	484	ABS	1	2	24MD	0	1	0.917211055756	None	None	None	None	1
1.7	2015_Aug_14_1513	s	s	20	4	SIC	485	ABS	0	2	24RD	0	1	0.600203990936	None	None	None	None	1
1.7	2015_Aug_14_1513	s	s	20	4	SIC	486	RC	1	0	23MC	1	0	1.31246185303	-347.0	60.0	-344	61	1
1.7	2015_Aug_14_1513	s	s	20	4	SIC	487	ABS	2	2	24VD	0	1	0.60582613945	None	None	None	None	1
1.7	2015_Aug_14_1513	s	s	20	4	SIC	488	RC	2	1	23VO	1	0	0.429951906204	-210.0	-397.0	-214	-399	1
1.7	2015_Aug_14_1513	s	s	20	4	SIC	489	RC	1	1	23MO	1	0	0.524411201477	101.0	-297.0	94	-300	1
1.7	2015_Aug_14_1513	s	s	20	4	SIC	490	RC	2	2	23VD	1	0	0.358933925629	348.0	245.0	354	254	1
1.7	2015_Aug_14_1513	s	s	20	4	SIC	491	ABS	0	1	24RO	0	1	3.64254593849	None	None	None	None	1
1.7	2015_Aug_14_1513	s	s	20	4	SIC	492	ABS	1	1	24MO	0	1	1.10576891899	None	None	None	None	1
1.7	2015_Aug_14_1513	s	s	20	4	SIC	493	RC	2	0	23VC	1	0	0.465367078781	275.0	-333.0	272	-337	1
1.7	2015_Aug_14_1513	s	s	20	4	SIC	494	RC	0	1	23RO	1	0	2.1128590107	-275.0	-389.0	-277	-390	1
1.7	2015_Aug_14_1513	s	s	20	4	SIC	495	RC	0	2	23RD	1	0	0.458151102066	147.0	-205.0	147	-207	1
1.7	2015_Aug_14_1513	s	s	20	4	SIC	496	ABS	2	0	24VC	0	1	0.493738174438	None	None	None	None	1
1.7	2015_Aug_14_1513	s	s	20	4	SIC	497	ABS	1	0	24MC	0	1	2.25421786308	None	None	None	None	1
1.7	2015_Aug_14_1513	s	s	20	4	SIC	498	RC	0	1	23RO	1	0	0.79977107048	78.0	166.0	78	171	1
1.7	2015_Aug_14_1513	s	s	20	4	SIC	499	ABS	2	1	24VO	0	1	0.399432897568	None	None	None	None	1
1.7	2015_Aug_14_1513	s	s	20	4	SIC	500	RC	2	1	23VO	1	0	0.500586986542	-351.0	333.0	-354	335	1
1.7	2015_Aug_14_1513	s	s	20	4	SIC	501	RC	1	2	23MD	1	0	0.47019982338	-274.0	390.0	-282	394	1
1.7	2015_Aug_14_1513	s	s	20	4	SIC	502	ABS	0	2	24RD	0	1	0.576042890549	None	None	None	None	1
1.7	2015_Aug_14_1513	s	s	20	4	SIC	503	ABS	1	1	24MO	0	1	2.00709795952	None	None	None	None	1
1.7	2015_Aug_14_1513	s	s	20	4	SIC	504	RC	0	2	23RD	1	0	0.434679985046	-91.0	357.0	-93	366	1
1.7	2015_Aug_14_1513	s	s	20	4	SIC	505	RC	1	1	23MO	1	0	1.28663611412	-395.0	-335.0	-396	-333	1
1.7	2015_Aug_14_1513	s	s	20	4	SIC	506	ABS	1	2	24MD	0	1	0.419352054596	None	None	None	None	1
1.7	2015_Aug_14_1513	s	s	20	4	SIC	507	ABS	0	1	24RO	0	1	3.63147091866	None	None	None	None	1
1.7	2015_Aug_14_1513	s	s	20	4	SIC	508	RC	2	0	23VC	1	0	0.465029001236	-231.0	-372.0	-226	-369	1
1.7	2015_Aug_14_1513	s	s	20	4	SIC	509	RC	2	2	23VD	1	0	0.394587993622	490.0	326.0	483	321	1
1.7	2015_Aug_14_1513	s	s	20	4	SIC	510	ABS	2	2	24VD	0	1	0.441426038742	None	None	None	None	1
1.7	2015_Aug_14_1513	s	s	20	4	SIC	511	ABS	2	0	24VC	0	1	0.453287124634	None	None	None	None	1
1.7	2015_Aug_14_1513	s	s	20	4	SIC	512	RC	1	0	23MC	1	0	0.971298933029	-479.0	-52.0	-478	-51	1
1.7	2015_Aug_14_1513	s	s	20	4	SIC	513	ABS	1	2	24MD	0	1	0.493671894073	None	None	None	None	1
1.7	2015_Aug_14_1513	s	s	20	4	SIC	514	RC	2	2	23VD	1	0	0.387768983841	-455.0	114.0	-460	119	1
1.7	2015_Aug_14_1513	s	s	20	4	SIC	515	ABS	2	2	24VD	0	1	0.434843063354	None	None	None	None	1
1.7	2015_Aug_14_1513	s	s	20	4	SIC	516	RC	1	2	23MD	1	0	0.399436950684	401.0	2.0	394	2	1
1.7	2015_Aug_14_1513	s	s	20	4	SIC	517	ABS	2	1	24VO	0	1	0.540755987167	None	None	None	None	1
1.7	2015_Aug_14_1513	s	s	20	4	SIC	518	RC	1	1	23MO	1	0	0.49366402626	279.0	307.0	281	306	1
1.7	2015_Aug_14_1513	s	s	20	4	SIC	519	RC	0	1	23RO	0	1	2.48976516724	-33.0	-214.0	None	None	0
1.7	2015_Aug_14_1513	s	s	20	4	SIC	520	RC	1	0	23MC	1	0	0.7996301651	532.0	-29.0	534	-28	1
1.7	2015_Aug_14_1513	s	s	20	4	SIC	521	RC	2	0	23VC	1	0	0.465119838715	-444.0	-279.0	-444	-280	1
1.7	2015_Aug_14_1513	s	s	20	4	SIC	522	RC	2	1	23VO	1	0	0.465012073517	-230.0	-323.0	-231	-331	1
1.7	2015_Aug_14_1513	s	s	20	4	SIC	523	ABS	1	0	24MC	0	1	1.51247501373	None	None	None	None	1
1.7	2015_Aug_14_1513	s	s	20	4	SIC	524	ABS	2	0	24VC	0	1	0.44654917717	None	None	None	None	1
1.7	2015_Aug_14_1513	s	s	20	4	SIC	525	ABS	0	1	24RO	0	1	2.901720047	None	None	None	None	1
1.7	2015_Aug_14_1513	s	s	20	4	SIC	526	RC	0	2	23RD	1	0	0.470147132874	-84.0	-141.0	-86	-141	1
1.7	2015_Aug_14_1513	s	s	20	4	SIC	527	ABS	0	2	24RD	0	1	0.540764093399	None	None	None	None	1
1.7	2015_Aug_14_1513	s	s	20	4	SIC	528	ABS	1	1	24MO	0	1	1.90612792969	None	None	None	None	1
1.7	2015_Aug_14_1513	s	s	20	4	SIC	529	RC	1	1	23MO	1	0	1.07802510262	-415.0	286.0	-414	292	1
1.7	2015_Aug_14_1513	s	s	20	4	SIC	530	ABS	0	2	24RD	0	1	0.693721055984	None	None	None	None	1
1.7	2015_Aug_14_1513	s	s	20	4	SIC	531	ABS	2	1	24VO	0	1	0.455754995346	None	None	None	None	1
1.7	2015_Aug_14_1513	s	s	20	4	SIC	532	ABS	2	0	24VC	0	1	0.452587842941	None	None	None	None	1
1.7	2015_Aug_14_1513	s	s	20	4	SIC	533	RC	2	1	23VO	1	0	0.606289863586	326.0	-383.0	329	-387	1
1.7	2015_Aug_14_1513	s	s	20	4	SIC	534	RC	1	2	23MD	1	0	0.411232948303	-400.0	-120.0	-402	-116	1
1.7	2015_Aug_14_1513	s	s	20	4	SIC	535	ABS	1	2	24MD	0	1	0.481997013092	None	None	None	None	1
1.7	2015_Aug_14_1513	s	s	20	4	SIC	536	RC	1	0	23MC	1	0	0.658411026001	-472.0	-251.0	-480	-256	1
1.7	2015_Aug_14_1513	s	s	20	4	SIC	537	RC	0	2	23RD	1	0	0.434834003448	363.0	-43.0	357	-45	1
1.7	2015_Aug_14_1513	s	s	20	4	SIC	538	ABS	1	1	24MO	0	1	0.914742946625	None	None	None	None	1
1.7	2015_Aug_14_1513	s	s	20	4	SIC	539	ABS	1	0	24MC	0	1	1.24703502655	None	None	None	None	1
1.7	2015_Aug_14_1513	s	s	20	4	SIC	540	RC	0	1	23RO	1	0	1.46526384354	-511.0	139.0	-507	131	1
1.7	2015_Aug_14_1513	s	s	20	4	SIC	541	ABS	2	2	24VD	0	1	0.431992053986	None	None	None	None	1
1.7	2015_Aug_14_1513	s	s	20	4	SIC	542	ABS	0	1	24RO	0	1	3.06841301918	None	None	None	None	1
1.7	2015_Aug_14_1513	s	s	20	4	SIC	543	RC	2	2	23VD	1	0	0.617799043655	-418.0	252.0	-418	251	1
1.7	2015_Aug_14_1513	s	s	20	4	SIC	544	RC	2	0	23VC	1	0	0.417625904083	229.0	263.0	233	267	1
1.7	2015_Aug_14_1513	s	s	20	4	SIC	545	RC	0	2	23RD	1	0	0.441550016403	23.0	-172.0	23	-176	1
1.7	2015_Aug_14_1513	s	s	20	4	SIC	546	RC	0	1	23RO	1	0	2.07127904892	516.0	263.0	517	266	1
1.7	2015_Aug_14_1513	s	s	20	4	SIC	547	ABS	2	2	24VD	0	1	0.467720031738	None	None	None	None	1
1.7	2015_Aug_14_1513	s	s	20	4	SIC	548	ABS	0	1	24RO	0	1	3.41247797012	None	None	None	None	1
1.7	2015_Aug_14_1513	s	s	20	4	SIC	549	RC	1	1	23MO	1	0	0.795073032379	-116.0	-322.0	-106	-319	1
1.7	2015_Aug_14_1513	s	s	20	4	SIC	550	ABS	1	0	24MC	0	1	2.60756397247	None	None	None	None	1
1.7	2015_Aug_14_1513	s	s	20	4	SIC	551	RC	2	2	23VD	1	0	0.375962972641	67.0	291.0	77	294	1
1.7	2015_Aug_14_1513	s	s	20	4	SIC	552	RC	2	1	23VO	1	0	0.418029069901	496.0	380.0	497	376	1
1.7	2015_Aug_14_1513	s	s	20	4	SIC	553	ABS	1	2	24MD	0	1	0.724007129669	None	None	None	None	1
1.7	2015_Aug_14_1513	s	s	20	4	SIC	554	ABS	0	2	24RD	0	1	0.682054042816	None	None	None	None	1
1.7	2015_Aug_14_1513	s	s	20	4	SIC	555	RC	2	0	23VC	1	0	0.411275863647	-376.0	18.0	-377	23	1
1.7	2015_Aug_14_1513	s	s	20	4	SIC	556	ABS	2	0	24VC	0	1	0.476482868195	None	None	None	None	1
1.7	2015_Aug_14_1513	s	s	20	4	SIC	557	ABS	2	1	24VO	0	1	0.441781044006	None	None	None	None	1
1.7	2015_Aug_14_1513	s	s	20	4	SIC	558	ABS	1	1	24MO	0	1	1.44210410118	None	None	None	None	1
1.7	2015_Aug_14_1513	s	s	20	4	SIC	559	RC	1	2	23MD	1	0	0.446577787399	373.0	-183.0	374	-183	1
1.7	2015_Aug_14_1513	s	s	20	4	SIC	560	RC	1	0	23MC	1	0	0.81507897377	399.0	-114.0	402	-107	1
1.7	2015_Aug_14_1513	s	s	20	4	SIC	561	ABS	0	2	24RD	0	1	0.529024839401	None	None	None	None	1
1.7	2015_Aug_14_1513	s	s	20	4	SIC	562	RC	2	0	23VC	1	0	0.382688999176	-262.0	-95.0	-254	-86	1
1.7	2015_Aug_14_1513	s	s	20	4	SIC	563	RC	2	2	23VD	1	0	0.388075113297	-214.0	-201.0	-210	-203	1
1.7	2015_Aug_14_1513	s	s	20	4	SIC	564	ABS	1	2	24MD	0	1	0.500464916229	None	None	None	None	1
1.7	2015_Aug_14_1513	s	s	20	4	SIC	565	ABS	2	1	24VO	0	1	0.505672931671	None	None	None	None	1
1.7	2015_Aug_14_1513	s	s	20	4	SIC	566	RC	0	2	23RD	1	0	0.3961789608	-212.0	-265.0	-206	-266	1
1.7	2015_Aug_14_1513	s	s	20	4	SIC	567	ABS	1	0	24MC	0	1	4.18481588364	None	None	None	None	1
1.7	2015_Aug_14_1513	s	s	20	4	SIC	568	ABS	2	0	24VC	0	1	0.747689962387	None	None	None	None	1
1.7	2015_Aug_14_1513	s	s	20	4	SIC	569	RC	1	1	23MO	1	0	0.929142951965	362.0	40.0	356	41	1
1.7	2015_Aug_14_1513	s	s	20	4	SIC	570	ABS	2	2	24VD	0	1	0.458370923996	None	None	None	None	1
1.7	2015_Aug_14_1513	s	s	20	4	SIC	571	RC	0	1	23RO	1	0	0.826736927032	-117.0	-8.0	-117	-10	1
1.7	2015_Aug_14_1513	s	s	20	4	SIC	572	RC	2	1	23VO	1	0	0.441124916077	310.0	211.0	313	217	1
1.7	2015_Aug_14_1513	s	s	20	4	SIC	573	ABS	1	1	24MO	0	1	1.90586805344	None	None	None	None	1
1.7	2015_Aug_14_1513	s	s	20	4	SIC	574	ABS	0	1	24RO	0	1	2.75078415871	None	None	None	None	1
1.7	2015_Aug_14_1513	s	s	20	4	SIC	575	RC	1	0	23MC	1	0	1.1832511425	178.0	397.0	180	404	1
1.7	2015_Aug_14_1513	s	s	20	4	SIC	576	RC	1	2	23MD	1	0	0.536000013351	525.0	-277.0	526	-277	1
1.7	2015_Aug_14_1513	s	s	20	4	SIC	577	ABS	2	0	24VC	0	1	0.658491134644	None	None	None	None	1
1.7	2015_Aug_14_1513	s	s	20	4	SIC	578	ABS	1	2	24MD	0	1	0.618192195892	None	None	None	None	1
1.7	2015_Aug_14_1513	s	s	20	4	SIC	579	ABS	1	0	24MC	0	1	1.87087488174	None	None	None	None	1
1.7	2015_Aug_14_1513	s	s	20	4	SIC	580	RC	2	1	23VO	1	0	0.700656175613	-486.0	119.0	-483	118	1
1.7	2015_Aug_14_1513	s	s	20	4	SIC	581	RC	2	0	23VC	1	0	6.00953602791	392.0	287.0	388	288	1
1.7	2015_Aug_14_1513	s	s	20	4	SIC	582	RC	1	2	23MD	1	0	1.95690202713	-469.0	-332.0	-465	-336	1
1.7	2015_Aug_14_1513	s	s	20	4	SIC	583	RC	0	2	23RD	1	0	8.94484710693	278.0	-355.0	281	-356	1
1.7	2015_Aug_14_1513	s	s	20	4	SIC	584	RC	1	1	23MO	1	0	1.95315289497	-34.0	-289.0	-31	-298	1
1.7	2015_Aug_14_1513	s	s	20	4	SIC	585	RC	2	2	23VD	1	0	0.50590801239	-432.0	-67.0	-434	-67	1
1.7	2015_Aug_14_1513	s	s	20	4	SIC	586	RC	1	0	23MC	1	0	4.40753889084	309.0	-97.0	305	-91	1
1.7	2015_Aug_14_1513	s	s	20	4	SIC	587	ABS	0	1	24RO	0	1	4.69585514069	None	None	None	None	1
1.7	2015_Aug_14_1513	s	s	20	4	SIC	588	ABS	2	2	24VD	0	1	0.493724822998	None	None	None	None	1
1.7	2015_Aug_14_1513	s	s	20	4	SIC	589	ABS	0	2	24RD	0	1	0.476915836334	None	None	None	None	1
1.7	2015_Aug_14_1513	s	s	20	4	SIC	590	ABS	2	1	24VO	0	1	0.476122140884	None	None	None	None	1
1.7	2015_Aug_14_1513	s	s	20	4	SIC	591	ABS	1	1	24MO	0	1	2.29465985298	None	None	None	None	1
1.7	2015_Aug_14_1513	s	s	20	4	SIC	592	RC	0	1	23RO	0	1	3.90212988853	206.0	-271.0	None	None	0
