Version	Date	Stimuli	Method	Subject	Session	Condition	Trial	Target	Channel1	Channel2	Distractors	LMouseButton	RMouseButton	RT	TargetX	TargetY	ResponseX	ResponseY	Correct
1.7	2015_Oct_14_1556	s	s	21	3	Capacity	1	ABS	1	0	24MC	0	1	1.80697703362	None	None	None	None	1
1.7	2015_Oct_14_1556	s	s	21	3	Capacity	2	RC	1	0	23MC	1	0	0.891379117966	324.0	-63.0	321	-62	1
1.7	2015_Oct_14_1556	s	s	21	3	Capacity	3	ABS	2	0	24VC	0	1	0.529136896133	None	None	None	None	1
1.7	2015_Oct_14_1556	s	s	21	3	Capacity	4	RC	2	0	23VC	1	0	0.547683000565	533.0	-159.0	532	-161	1
1.7	2015_Oct_14_1556	s	s	21	3	Capacity	5	RC	1	0	23MC	1	0	0.600045919418	114.0	-152.0	115	-155	1
1.7	2015_Oct_14_1556	s	s	21	3	Capacity	6	RC	2	0	23VC	1	0	0.529034137726	229.0	-215.0	231	-211	1
1.7	2015_Oct_14_1556	s	s	21	3	Capacity	7	ABS	1	0	24MC	0	1	1.68929100037	None	None	None	None	1
1.7	2015_Oct_14_1556	s	s	21	3	Capacity	8	ABS	2	0	24VC	0	1	0.712478876114	None	None	None	None	1
1.7	2015_Oct_14_1556	s	s	21	3	Capacity	9	RC	2	0	23VC	1	0	0.418099164963	-138.0	-275.0	-137	-280	1
1.7	2015_Oct_14_1556	s	s	21	3	Capacity	10	RC	1	0	23MC	1	0	1.01537513733	115.0	-171.0	114	-167	1
1.7	2015_Oct_14_1556	s	s	21	3	Capacity	11	ABS	1	0	24MC	0	1	1.35042691231	None	None	None	None	1
1.7	2015_Oct_14_1556	s	s	21	3	Capacity	12	ABS	2	0	24VC	0	1	0.58304309845	None	None	None	None	1
1.7	2015_Oct_14_1556	s	s	21	3	Capacity	13	RC	1	0	23MC	1	0	0.591665029526	393.0	244.0	394	240	1
1.7	2015_Oct_14_1556	s	s	21	3	Capacity	14	ABS	2	0	24VC	0	1	0.693847179413	None	None	None	None	1
1.7	2015_Oct_14_1556	s	s	21	3	Capacity	15	ABS	1	0	24MC	0	1	1.3176548481	None	None	None	None	1
1.7	2015_Oct_14_1556	s	s	21	3	Capacity	16	RC	2	0	23VC	1	0	0.564329862595	13.0	-132.0	19	-129	1
1.7	2015_Oct_14_1556	s	s	21	3	Capacity	17	RC	2	0	23VC	1	0	0.476983785629	-240.0	-195.0	-237	-203	1
1.7	2015_Oct_14_1556	s	s	21	3	Capacity	18	RC	1	0	23MC	1	0	1.14104199409	-304.0	266.0	-297	273	1
1.7	2015_Oct_14_1556	s	s	21	3	Capacity	19	ABS	2	0	24VC	0	1	0.670193910599	None	None	None	None	1
1.7	2015_Oct_14_1556	s	s	21	3	Capacity	20	ABS	1	0	24MC	0	1	1.6237552166	None	None	None	None	1
1.7	2015_Oct_14_1556	s	s	21	3	Capacity	21	RC	2	0	23VC	1	0	0.44676399231	442.0	-352.0	451	-354	1
1.7	2015_Oct_14_1556	s	s	21	3	Capacity	22	ABS	2	0	24VC	0	1	0.713176965714	None	None	None	None	1
1.7	2015_Oct_14_1556	s	s	21	3	Capacity	23	ABS	1	0	24MC	0	1	1.6174120903	None	None	None	None	1
1.7	2015_Oct_14_1556	s	s	21	3	Capacity	24	RC	1	0	23MC	1	0	0.935740947723	-422.0	135.0	-417	134	1
1.7	2015_Oct_14_1556	s	s	21	3	Capacity	25	RC	2	0	23VC	1	0	0.434704065323	115.0	287.0	120	287	1
1.7	2015_Oct_14_1556	s	s	21	3	Capacity	26	ABS	1	0	24MC	0	1	1.2773911953	None	None	None	None	1
1.7	2015_Oct_14_1556	s	s	21	3	Capacity	27	ABS	2	0	24VC	0	1	0.752626180649	None	None	None	None	1
1.7	2015_Oct_14_1556	s	s	21	3	Capacity	28	RC	1	0	23MC	1	0	0.594629049301	40.0	-152.0	43	-153	1
1.7	2015_Oct_14_1556	s	s	21	3	Capacity	29	ABS	1	0	24MC	0	1	2.79684901237	None	None	None	None	1
1.7	2015_Oct_14_1556	s	s	21	3	Capacity	30	RC	1	0	23MC	1	0	0.841902017593	-7.0	-234.0	-9	-236	1
1.7	2015_Oct_14_1556	s	s	21	3	Capacity	31	RC	2	0	23VC	1	0	0.434920072556	276.0	293.0	275	293	1
1.7	2015_Oct_14_1556	s	s	21	3	Capacity	32	ABS	2	0	24VC	0	1	0.576444149017	None	None	None	None	1
1.7	2015_Oct_14_1556	s	s	21	3	Capacity	33	RC	1	0	23MC	1	0	0.623221158981	57.0	300.0	54	296	1
1.7	2015_Oct_14_1556	s	s	21	3	Capacity	34	ABS	2	0	24VC	0	1	0.629976034164	None	None	None	None	1
1.7	2015_Oct_14_1556	s	s	21	3	Capacity	35	ABS	1	0	24MC	0	1	1.41853904724	None	None	None	None	1
1.7	2015_Oct_14_1556	s	s	21	3	Capacity	36	RC	2	0	23VC	1	0	0.470169782639	-309.0	281.0	-310	278	1
1.7	2015_Oct_14_1556	s	s	21	3	Capacity	37	RC	2	0	23VC	1	0	0.737403154373	-129.0	116.0	-119	117	1
1.7	2015_Oct_14_1556	s	s	21	3	Capacity	38	RC	1	0	23MC	0	1	1.23528981209	449.0	-254.0	None	None	0
1.7	2015_Oct_14_1556	s	s	21	3	Capacity	39	ABS	2	0	24VC	0	1	0.830789089203	None	None	None	None	1
1.7	2015_Oct_14_1556	s	s	21	3	Capacity	40	ABS	1	0	24MC	0	1	1.46588015556	None	None	None	None	1
1.7	2015_Oct_14_1556	s	s	21	3	Capacity	41	RC	1	0	23MC	1	0	1.33579587936	475.0	78.0	474	78	1
1.7	2015_Oct_14_1556	s	s	21	3	Capacity	42	RC	2	0	23VC	1	0	0.455055952072	-76.0	-22.0	-71	-22	1
1.7	2015_Oct_14_1556	s	s	21	3	Capacity	43	ABS	1	0	24MC	0	1	1.83556103706	None	None	None	None	1
1.7	2015_Oct_14_1556	s	s	21	3	Capacity	44	ABS	2	0	24VC	0	1	0.870358943939	None	None	None	None	1
1.7	2015_Oct_14_1556	s	s	21	3	Capacity	45	ABS	1	0	24MC	0	1	1.79517102242	None	None	None	None	1
1.7	2015_Oct_14_1556	s	s	21	3	Capacity	46	ABS	2	0	24VC	0	1	0.771400928497	None	None	None	None	1
1.7	2015_Oct_14_1556	s	s	21	3	Capacity	47	RC	1	0	23MC	1	0	0.618150949478	-278.0	123.0	-280	120	1
1.7	2015_Oct_14_1556	s	s	21	3	Capacity	48	RC	2	0	23VC	1	0	0.45319890976	-242.0	5.0	-241	7	1
1.7	2015_Oct_14_1556	s	s	21	3	Capacity	49	RC	1	0	23MC	1	0	0.711594820023	-14.0	207.0	-12	212	1
1.7	2015_Oct_14_1556	s	s	21	3	Capacity	50	ABS	2	0	24VC	0	1	0.784749031067	None	None	None	None	1
1.7	2015_Oct_14_1556	s	s	21	3	Capacity	51	RC	2	0	23VC	1	0	0.39946103096	-125.0	45.0	-126	41	1
1.7	2015_Oct_14_1556	s	s	21	3	Capacity	52	ABS	1	0	24MC	0	1	1.39523291588	None	None	None	None	1
1.7	2015_Oct_14_1556	s	s	21	3	Capacity	53	RC	2	0	23VC	1	0	0.467685937881	467.0	-178.0	465	-180	1
1.7	2015_Oct_14_1556	s	s	21	3	Capacity	54	ABS	1	0	24MC	0	1	1.31768894196	None	None	None	None	1
1.7	2015_Oct_14_1556	s	s	21	3	Capacity	55	ABS	2	0	24VC	0	1	0.8115670681	None	None	None	None	1
1.7	2015_Oct_14_1556	s	s	21	3	Capacity	56	RC	1	0	23MC	1	0	1.99567198753	472.0	-162.0	468	-160	1
1.7	2015_Oct_14_1556	s	s	21	3	Capacity	57	ABS	1	0	24MC	0	1	1.80030202866	None	None	None	None	1
1.7	2015_Oct_14_1556	s	s	21	3	Capacity	58	ABS	2	0	24VC	0	1	0.859025001526	None	None	None	None	1
1.7	2015_Oct_14_1556	s	s	21	3	Capacity	59	RC	2	0	23VC	1	0	0.458411931992	84.0	265.0	92	267	1
1.7	2015_Oct_14_1556	s	s	21	3	Capacity	60	RC	1	0	23MC	1	0	0.423152208328	-52.0	-80.0	-53	-89	1
1.7	2015_Oct_14_1556	s	s	21	3	Capacity	61	RC	1	0	23MC	1	0	0.42311501503	-170.0	109.0	-178	106	1
1.7	2015_Oct_14_1556	s	s	21	3	Capacity	62	ABS	2	0	24VC	0	1	0.940993070602	None	None	None	None	1
1.7	2015_Oct_14_1556	s	s	21	3	Capacity	63	ABS	1	0	24MC	0	1	2.02000308037	None	None	None	None	1
1.7	2015_Oct_14_1556	s	s	21	3	Capacity	64	RC	2	0	23VC	1	0	0.529474020004	24.0	402.0	23	405	1
1.7	2015_Oct_14_1556	s	s	21	3	Capacity	65	ABS	1	0	24MC	0	1	1.37654399872	None	None	None	None	1
1.7	2015_Oct_14_1556	s	s	21	3	Capacity	66	ABS	2	0	24VC	0	1	0.771352052689	None	None	None	None	1
1.7	2015_Oct_14_1556	s	s	21	3	Capacity	67	RC	1	0	23MC	1	0	0.463909864426	-214.0	-159.0	-206	-163	1
1.7	2015_Oct_14_1556	s	s	21	3	Capacity	68	RC	2	0	23VC	1	0	0.462165117264	-233.0	-162.0	-230	-160	1
1.7	2015_Oct_14_1556	s	s	21	3	Capacity	69	ABS	2	0	24VC	0	1	0.832760095596	None	None	None	None	1
1.7	2015_Oct_14_1556	s	s	21	3	Capacity	70	ABS	1	0	24MC	0	1	2.56914186478	None	None	None	None	1
1.7	2015_Oct_14_1556	s	s	21	3	Capacity	71	RC	2	0	23VC	1	0	0.493690013885	226.0	-294.0	226	-297	1
1.7	2015_Oct_14_1556	s	s	21	3	Capacity	72	RC	1	0	23MC	1	0	0.535446882248	72.0	-212.0	77	-214	1
1.7	2015_Oct_14_1556	s	s	21	3	Capacity	73	ABS	1	0	24MC	0	1	1.12448501587	None	None	None	None	1
1.7	2015_Oct_14_1556	s	s	21	3	Capacity	74	ABS	2	0	24VC	0	1	0.670305967331	None	None	None	None	1
1.7	2015_Oct_14_1556	s	s	21	3	Capacity	75	RC	2	0	23VC	1	0	0.493724822998	-487.0	52.0	-488	51	1
1.7	2015_Oct_14_1556	s	s	21	3	Capacity	76	RC	1	0	23MC	1	0	1.07059812546	483.0	269.0	484	270	1
1.7	2015_Oct_14_1556	s	s	21	3	Capacity	77	ABS	1	0	24MC	0	1	1.46818089485	None	None	None	None	1
1.7	2015_Oct_14_1556	s	s	21	3	Capacity	78	RC	2	0	23VC	1	0	0.45309305191	-474.0	-126.0	-472	-132	1
1.7	2015_Oct_14_1556	s	s	21	3	Capacity	79	RC	1	0	23MC	1	0	0.434808969498	-166.0	-49.0	-164	-54	1
1.7	2015_Oct_14_1556	s	s	21	3	Capacity	80	ABS	2	0	24VC	0	1	0.68917298317	None	None	None	None	1
1.7	2015_Oct_14_1556	s	s	21	3	Capacity	81	ABS	1	0	24MC	0	1	1.45894813538	None	None	None	None	1
1.7	2015_Oct_14_1556	s	s	21	3	Capacity	82	RC	1	0	23MC	1	0	0.502737045288	164.0	286.0	170	286	1
1.7	2015_Oct_14_1556	s	s	21	3	Capacity	83	ABS	2	0	24VC	0	1	0.705701112747	None	None	None	None	1
1.7	2015_Oct_14_1556	s	s	21	3	Capacity	84	RC	2	0	23VC	1	0	0.45356798172	-338.0	-374.0	-332	-374	1
1.7	2015_Oct_14_1556	s	s	21	3	Capacity	85	RC	2	0	23VC	1	0	0.529016971588	408.0	-119.0	410	-132	1
1.7	2015_Oct_14_1556	s	s	21	3	Capacity	86	ABS	2	0	24VC	0	1	0.776256799698	None	None	None	None	1
1.7	2015_Oct_14_1556	s	s	21	3	Capacity	87	ABS	1	0	24MC	0	1	1.41859579086	None	None	None	None	1
1.7	2015_Oct_14_1556	s	s	21	3	Capacity	88	RC	1	0	23MC	1	0	0.497882843018	29.0	66.0	35	75	1
1.7	2015_Oct_14_1556	s	s	21	3	Capacity	89	RC	2	0	23VC	1	0	0.443022012711	-277.0	295.0	-278	296	1
1.7	2015_Oct_14_1556	s	s	21	3	Capacity	90	ABS	1	0	24MC	0	1	1.72968697548	None	None	None	None	1
1.7	2015_Oct_14_1556	s	s	21	3	Capacity	91	RC	1	0	23MC	1	0	0.761991977692	439.0	-98.0	437	-101	1
1.7	2015_Oct_14_1556	s	s	21	3	Capacity	92	ABS	2	0	24VC	0	1	0.677021980286	None	None	None	None	1
1.7	2015_Oct_14_1556	s	s	21	3	Capacity	1	ABS	0	1	24RO	0	1	2.80840682983	None	None	None	None	1
1.7	2015_Oct_14_1556	s	s	21	3	Capacity	2	RC	0	1	23RO	1	0	2.92620420456	-425.0	375.0	-423	371	1
1.7	2015_Oct_14_1556	s	s	21	3	Capacity	3	ABS	0	2	24RD	0	1	1.17130303383	None	None	None	None	1
1.7	2015_Oct_14_1556	s	s	21	3	Capacity	4	RC	0	2	23RD	1	0	0.514730930328	-451.0	333.0	-449	325	1
1.7	2015_Oct_14_1556	s	s	21	3	Capacity	5	RC	0	2	23RD	1	0	0.441083908081	-140.0	-69.0	-141	-65	1
1.7	2015_Oct_14_1556	s	s	21	3	Capacity	6	RC	0	1	23RO	1	0	3.52570199966	321.0	350.0	317	353	1
1.7	2015_Oct_14_1556	s	s	21	3	Capacity	7	ABS	0	2	24RD	0	1	0.818228006363	None	None	None	None	1
1.7	2015_Oct_14_1556	s	s	21	3	Capacity	8	ABS	0	1	24RO	0	1	3.34197282791	None	None	None	None	1
1.7	2015_Oct_14_1556	s	s	21	3	Capacity	9	RC	0	1	23RO	1	0	2.46808481216	-252.0	-365.0	-255	-369	1
1.7	2015_Oct_14_1556	s	s	21	3	Capacity	10	RC	0	2	23RD	1	0	0.688941955566	408.0	328.0	413	330	1
1.7	2015_Oct_14_1556	s	s	21	3	Capacity	11	ABS	0	2	24RD	0	1	1.01818013191	None	None	None	None	1
1.7	2015_Oct_14_1556	s	s	21	3	Capacity	12	ABS	0	1	24RO	0	1	3.66634106636	None	None	None	None	1
1.7	2015_Oct_14_1556	s	s	21	3	Capacity	13	ABS	0	2	24RD	0	1	0.805692911148	None	None	None	None	1
1.7	2015_Oct_14_1556	s	s	21	3	Capacity	14	RC	0	1	23RO	0	1	3.49525904655	77.0	-199.0	None	None	0
1.7	2015_Oct_14_1556	s	s	21	3	Capacity	15	RC	0	2	23RD	1	0	0.505496025085	248.0	-28.0	244	-24	1
1.7	2015_Oct_14_1556	s	s	21	3	Capacity	16	ABS	0	1	24RO	0	1	2.55375790596	None	None	None	None	1
1.7	2015_Oct_14_1556	s	s	21	3	Capacity	17	RC	0	2	23RD	1	0	0.547571897507	-25.0	358.0	-20	361	1
1.7	2015_Oct_14_1556	s	s	21	3	Capacity	18	ABS	0	2	24RD	0	1	0.984979152679	None	None	None	None	1
1.7	2015_Oct_14_1556	s	s	21	3	Capacity	19	ABS	0	1	24RO	0	1	3.73064899445	None	None	None	None	1
1.7	2015_Oct_14_1556	s	s	21	3	Capacity	20	RC	0	1	23RO	1	0	2.66640400887	-114.0	329.0	-107	338	1
1.7	2015_Oct_14_1556	s	s	21	3	Capacity	21	ABS	0	2	24RD	0	1	1.09393405914	None	None	None	None	1
1.7	2015_Oct_14_1556	s	s	21	3	Capacity	22	RC	0	1	23RO	1	0	1.17413210869	431.0	87.0	432	92	1
1.7	2015_Oct_14_1556	s	s	21	3	Capacity	23	RC	0	2	23RD	1	0	0.971425056458	-383.0	-139.0	-381	-139	1
1.7	2015_Oct_14_1556	s	s	21	3	Capacity	24	ABS	0	1	24RO	0	1	3.76342606544	None	None	None	None	1
1.7	2015_Oct_14_1556	s	s	21	3	Capacity	25	RC	0	1	23RO	1	0	1.83070397377	274.0	-63.0	282	-65	1
1.7	2015_Oct_14_1556	s	s	21	3	Capacity	26	ABS	0	1	24RO	0	1	3.04510593414	None	None	None	None	1
1.7	2015_Oct_14_1556	s	s	21	3	Capacity	27	RC	0	2	23RD	1	0	0.494211912155	-6.0	6.0	-12	3	1
1.7	2015_Oct_14_1556	s	s	21	3	Capacity	28	ABS	0	2	24RD	0	1	1.11384892464	None	None	None	None	1
1.7	2015_Oct_14_1556	s	s	21	3	Capacity	29	RC	0	2	23RD	1	0	0.405419111252	105.0	-12.0	103	-7	1
1.7	2015_Oct_14_1556	s	s	21	3	Capacity	30	ABS	0	1	24RO	0	1	3.38424301147	None	None	None	None	1
1.7	2015_Oct_14_1556	s	s	21	3	Capacity	31	RC	0	1	23RO	1	0	1.27795910835	512.0	-30.0	517	-25	1
1.7	2015_Oct_14_1556	s	s	21	3	Capacity	32	ABS	0	2	24RD	0	1	0.806478023529	None	None	None	None	1
1.7	2015_Oct_14_1556	s	s	21	3	Capacity	33	ABS	0	2	24RD	0	1	1.12974381447	None	None	None	None	1
1.7	2015_Oct_14_1556	s	s	21	3	Capacity	34	RC	0	2	23RD	1	0	0.493756055832	133.0	-14.0	129	-16	1
1.7	2015_Oct_14_1556	s	s	21	3	Capacity	35	ABS	0	1	24RO	0	1	3.43136501312	None	None	None	None	1
1.7	2015_Oct_14_1556	s	s	21	3	Capacity	36	RC	0	1	23RO	1	0	3.18919897079	336.0	342.0	343	348	1
1.7	2015_Oct_14_1556	s	s	21	3	Capacity	37	ABS	0	2	24RD	0	1	1.02348899841	None	None	None	None	1
1.7	2015_Oct_14_1556	s	s	21	3	Capacity	38	ABS	0	1	24RO	0	1	2.77244210243	None	None	None	None	1
1.7	2015_Oct_14_1556	s	s	21	3	Capacity	39	RC	0	1	23RO	1	0	3.63145804405	-404.0	-147.0	-407	-157	1
1.7	2015_Oct_14_1556	s	s	21	3	Capacity	40	RC	0	2	23RD	1	0	0.740969896317	489.0	-175.0	494	-177	1
1.7	2015_Oct_14_1556	s	s	21	3	Capacity	41	ABS	0	2	24RD	0	1	0.783715963364	None	None	None	None	1
1.7	2015_Oct_14_1556	s	s	21	3	Capacity	42	RC	0	2	23RD	1	0	0.490714073181	-424.0	27.0	-416	22	1
1.7	2015_Oct_14_1556	s	s	21	3	Capacity	43	ABS	0	1	24RO	0	1	2.95409083366	None	None	None	None	1
1.7	2015_Oct_14_1556	s	s	21	3	Capacity	44	RC	0	1	23RO	0	1	2.73623013496	377.0	130.0	None	None	0
1.7	2015_Oct_14_1556	s	s	21	3	Capacity	45	RC	0	1	23RO	1	0	1.58332109451	504.0	203.0	505	202	1
1.7	2015_Oct_14_1556	s	s	21	3	Capacity	46	ABS	0	2	24RD	0	1	0.8787150383	None	None	None	None	1
1.7	2015_Oct_14_1556	s	s	21	3	Capacity	47	ABS	0	1	24RO	0	1	4.24853682518	None	None	None	None	1
1.7	2015_Oct_14_1556	s	s	21	3	Capacity	48	RC	0	2	23RD	1	0	0.499848127365	22.0	207.0	18	212	1
1.7	2015_Oct_14_1556	s	s	21	3	Capacity	49	ABS	0	1	24RO	0	1	2.85952186584	None	None	None	None	1
1.7	2015_Oct_14_1556	s	s	21	3	Capacity	50	ABS	0	2	24RD	0	1	0.770216941833	None	None	None	None	1
1.7	2015_Oct_14_1556	s	s	21	3	Capacity	51	RC	0	2	23RD	1	0	0.700603961945	-161.0	-244.0	-158	-242	1
1.7	2015_Oct_14_1556	s	s	21	3	Capacity	52	RC	0	1	23RO	1	0	1.43060112	426.0	159.0	428	166	1
1.7	2015_Oct_14_1556	s	s	21	3	Capacity	53	ABS	0	1	24RO	0	1	2.51323199272	None	None	None	None	1
1.7	2015_Oct_14_1556	s	s	21	3	Capacity	54	RC	0	2	23RD	1	0	0.493756055832	423.0	-8.0	429	-10	1
1.7	2015_Oct_14_1556	s	s	21	3	Capacity	55	RC	0	1	23RO	1	0	3.6432518959	183.0	-257.0	177	-252	1
1.7	2015_Oct_14_1556	s	s	21	3	Capacity	56	ABS	0	2	24RD	0	1	1.12936902046	None	None	None	None	1
1.7	2015_Oct_14_1556	s	s	21	3	Capacity	57	ABS	0	2	24RD	0	1	0.776185035706	None	None	None	None	1
1.7	2015_Oct_14_1556	s	s	21	3	Capacity	58	RC	0	1	23RO	1	0	1.80718803406	391.0	-163.0	395	-157	1
1.7	2015_Oct_14_1556	s	s	21	3	Capacity	59	ABS	0	1	24RO	0	1	3.09014010429	None	None	None	None	1
1.7	2015_Oct_14_1556	s	s	21	3	Capacity	60	RC	0	2	23RD	1	0	0.441576957703	-230.0	3.0	-229	2	1
1.7	2015_Oct_14_1556	s	s	21	3	Capacity	61	ABS	0	1	24RO	0	1	3.35139799118	None	None	None	None	1
1.7	2015_Oct_14_1556	s	s	21	3	Capacity	62	RC	0	2	23RD	1	0	0.458425998688	166.0	166.0	155	173	1
1.7	2015_Oct_14_1556	s	s	21	3	Capacity	63	ABS	0	2	24RD	0	1	0.924301862717	None	None	None	None	1
1.7	2015_Oct_14_1556	s	s	21	3	Capacity	64	RC	0	1	23RO	1	0	1.18821907043	102.0	335.0	95	341	1
1.7	2015_Oct_14_1556	s	s	21	3	Capacity	65	ABS	0	2	24RD	0	1	0.726546764374	None	None	None	None	1
1.7	2015_Oct_14_1556	s	s	21	3	Capacity	66	ABS	0	1	24RO	0	1	3.19629597664	None	None	None	None	1
1.7	2015_Oct_14_1556	s	s	21	3	Capacity	67	RC	0	1	23RO	1	0	2.77259802818	-276.0	19.0	-274	16	1
1.7	2015_Oct_14_1556	s	s	21	3	Capacity	68	RC	0	2	23RD	1	0	0.819406986237	-430.0	-391.0	-427	-397	1
1.7	2015_Oct_14_1556	s	s	21	3	Capacity	69	ABS	0	1	24RO	0	1	3.50193405151	None	None	None	None	1
1.7	2015_Oct_14_1556	s	s	21	3	Capacity	70	RC	0	1	23RO	1	0	0.678817033768	-16.0	128.0	-10	126	1
1.7	2015_Oct_14_1556	s	s	21	3	Capacity	71	ABS	0	2	24RD	0	1	0.983143806458	None	None	None	None	1
1.7	2015_Oct_14_1556	s	s	21	3	Capacity	72	RC	0	2	23RD	1	0	0.470178127289	-241.0	-85.0	-234	-86	1
1.7	2015_Oct_14_1556	s	s	21	3	Capacity	73	ABS	0	1	24RO	0	1	3.20933294296	None	None	None	None	1
1.7	2015_Oct_14_1556	s	s	21	3	Capacity	74	RC	0	2	23RD	1	0	0.446640014648	-438.0	-208.0	-440	-207	1
1.7	2015_Oct_14_1556	s	s	21	3	Capacity	75	ABS	0	2	24RD	0	1	0.677140951157	None	None	None	None	1
1.7	2015_Oct_14_1556	s	s	21	3	Capacity	76	RC	0	1	23RO	1	0	0.905681848526	225.0	-47.0	228	-47	1
1.7	2015_Oct_14_1556	s	s	21	3	Capacity	77	ABS	0	1	24RO	0	1	3.46367383003	None	None	None	None	1
1.7	2015_Oct_14_1556	s	s	21	3	Capacity	78	RC	0	1	23RO	0	1	3.34221601486	209.0	307.0	None	None	0
1.7	2015_Oct_14_1556	s	s	21	3	Capacity	79	RC	0	2	23RD	1	0	0.514075994492	-500.0	-210.0	-498	-216	1
1.7	2015_Oct_14_1556	s	s	21	3	Capacity	80	ABS	0	2	24RD	0	1	1.07749700546	None	None	None	None	1
1.7	2015_Oct_14_1556	s	s	21	3	Capacity	81	RC	0	1	23RO	0	1	4.62899899483	-18.0	402.0	None	None	0
1.7	2015_Oct_14_1556	s	s	21	3	Capacity	82	RC	0	2	23RD	1	0	0.628601074219	457.0	-281.0	460	-287	1
1.7	2015_Oct_14_1556	s	s	21	3	Capacity	83	ABS	0	1	24RO	0	1	3.28341412544	None	None	None	None	1
1.7	2015_Oct_14_1556	s	s	21	3	Capacity	84	ABS	0	2	24RD	0	1	0.823239088058	None	None	None	None	1
1.7	2015_Oct_14_1556	s	s	21	3	Capacity	85	ABS	0	2	24RD	0	1	0.714764118195	None	None	None	None	1
1.7	2015_Oct_14_1556	s	s	21	3	Capacity	86	RC	0	1	23RO	1	0	0.764508962631	63.0	130.0	60	136	1
1.7	2015_Oct_14_1556	s	s	21	3	Capacity	87	RC	0	2	23RD	1	0	0.517251968384	296.0	385.0	294	381	1
1.7	2015_Oct_14_1556	s	s	21	3	Capacity	88	ABS	0	1	24RO	0	1	3.6792678833	None	None	None	None	1
1.7	2015_Oct_14_1556	s	s	21	3	Capacity	89	RC	0	1	23RO	1	0	2.20047998428	-267.0	-390.0	-271	-384	1
1.7	2015_Oct_14_1556	s	s	21	3	Capacity	90	RC	0	2	23RD	1	0	0.552443981171	317.0	-393.0	321	-397	1
1.7	2015_Oct_14_1556	s	s	21	3	Capacity	91	ABS	0	2	24RD	0	1	0.823302030563	None	None	None	None	1
1.7	2015_Oct_14_1556	s	s	21	3	Capacity	92	ABS	0	1	24RO	0	1	3.66674685478	None	None	None	None	1
1.7	2015_Oct_14_1556	s	s	21	3	SIC	1	ABS	2	0	24VC	0	1	0.576117992401	None	None	None	None	1
1.7	2015_Oct_14_1556	s	s	21	3	SIC	2	ABS	0	2	24RD	0	1	0.693878173828	None	None	None	None	1
1.7	2015_Oct_14_1556	s	s	21	3	SIC	3	RC	2	1	23VO	1	0	0.48894405365	193.0	-31.0	194	-31	1
1.7	2015_Oct_14_1556	s	s	21	3	SIC	4	RC	2	2	23VD	1	0	0.441858053207	428.0	-325.0	433	-327	1
1.7	2015_Oct_14_1556	s	s	21	3	SIC	5	ABS	2	1	24VO	0	1	0.465325832367	None	None	None	None	1
1.7	2015_Oct_14_1556	s	s	21	3	SIC	6	ABS	1	0	24MC	0	1	1.51311683655	None	None	None	None	1
1.7	2015_Oct_14_1556	s	s	21	3	SIC	7	RC	1	0	23MC	1	0	1.52469015121	483.0	-333.0	486	-325	1
1.7	2015_Oct_14_1556	s	s	21	3	SIC	8	RC	1	2	23MD	1	0	0.525851964951	521.0	-232.0	530	-229	1
1.7	2015_Oct_14_1556	s	s	21	3	SIC	9	RC	1	1	23MO	1	0	0.693861961365	29.0	-246.0	37	-245	1
1.7	2015_Oct_14_1556	s	s	21	3	SIC	10	RC	2	0	23VC	1	0	0.423101186752	48.0	-209.0	50	-208	1
1.7	2015_Oct_14_1556	s	s	21	3	SIC	11	ABS	0	1	24RO	0	1	3.35402297974	None	None	None	None	1
1.7	2015_Oct_14_1556	s	s	21	3	SIC	12	ABS	1	1	24MO	0	1	1.84470105171	None	None	None	None	1
1.7	2015_Oct_14_1556	s	s	21	3	SIC	13	RC	0	1	23RO	1	0	3.10334300995	-142.0	-104.0	-137	-112	1
1.7	2015_Oct_14_1556	s	s	21	3	SIC	14	ABS	1	2	24MD	0	1	0.771331071854	None	None	None	None	1
1.7	2015_Oct_14_1556	s	s	21	3	SIC	15	RC	0	2	23RD	1	0	0.514654874802	85.0	-67.0	88	-66	1
1.7	2015_Oct_14_1556	s	s	21	3	SIC	16	ABS	2	2	24VD	0	1	0.505560874939	None	None	None	None	1
1.7	2015_Oct_14_1556	s	s	21	3	SIC	17	RC	2	2	23VD	1	0	0.431591033936	525.0	-158.0	519	-161	1
1.7	2015_Oct_14_1556	s	s	21	3	SIC	18	RC	1	0	23MC	1	0	0.747672796249	-68.0	-212.0	-69	-213	1
1.7	2015_Oct_14_1556	s	s	21	3	SIC	19	RC	2	0	23VC	1	0	0.488676071167	-153.0	-117.0	-150	-117	1
1.7	2015_Oct_14_1556	s	s	21	3	SIC	20	RC	2	1	23VO	1	0	0.630110025406	-362.0	139.0	-364	137	1
1.7	2015_Oct_14_1556	s	s	21	3	SIC	21	RC	0	1	23RO	0	1	3.25485396385	54.0	167.0	None	None	0
1.7	2015_Oct_14_1556	s	s	21	3	SIC	22	ABS	2	0	24VC	0	1	0.753014087677	None	None	None	None	1
1.7	2015_Oct_14_1556	s	s	21	3	SIC	23	ABS	0	2	24RD	0	1	0.935241937637	None	None	None	None	1
1.7	2015_Oct_14_1556	s	s	21	3	SIC	24	ABS	0	1	24RO	0	1	3.67176699638	None	None	None	None	1
1.7	2015_Oct_14_1556	s	s	21	3	SIC	25	RC	1	2	23MD	1	0	0.476861000061	-376.0	124.0	-369	132	1
1.7	2015_Oct_14_1556	s	s	21	3	SIC	26	ABS	1	0	24MC	0	1	1.48924899101	None	None	None	None	1
1.7	2015_Oct_14_1556	s	s	21	3	SIC	27	ABS	1	2	24MD	0	1	0.693900108337	None	None	None	None	1
1.7	2015_Oct_14_1556	s	s	21	3	SIC	28	ABS	1	1	24MO	0	1	1.83557415009	None	None	None	None	1
1.7	2015_Oct_14_1556	s	s	21	3	SIC	29	RC	1	1	23MO	1	0	1.25495409966	-323.0	-225.0	-326	-222	1
1.7	2015_Oct_14_1556	s	s	21	3	SIC	30	RC	0	2	23RD	1	0	0.488989114761	-358.0	-219.0	-358	-221	1
1.7	2015_Oct_14_1556	s	s	21	3	SIC	31	ABS	2	1	24VO	0	1	0.794787883759	None	None	None	None	1
1.7	2015_Oct_14_1556	s	s	21	3	SIC	32	ABS	2	2	24VD	0	1	0.513600826263	None	None	None	None	1
1.7	2015_Oct_14_1556	s	s	21	3	SIC	33	RC	1	0	23MC	1	0	1.86581492424	-467.0	365.0	-471	369	1
1.7	2015_Oct_14_1556	s	s	21	3	SIC	34	ABS	2	2	24VD	0	1	0.477019071579	None	None	None	None	1
1.7	2015_Oct_14_1556	s	s	21	3	SIC	35	ABS	2	1	24VO	0	1	0.552559137344	None	None	None	None	1
1.7	2015_Oct_14_1556	s	s	21	3	SIC	36	ABS	0	1	24RO	0	1	4.10727000237	None	None	None	None	1
1.7	2015_Oct_14_1556	s	s	21	3	SIC	37	RC	2	0	23VC	1	0	0.493746042252	-442.0	173.0	-437	176	1
1.7	2015_Oct_14_1556	s	s	21	3	SIC	38	RC	0	1	23RO	1	0	1.83559703827	-126.0	-203.0	-118	-199	1
1.7	2015_Oct_14_1556	s	s	21	3	SIC	39	ABS	1	1	24MO	0	1	1.85437607765	None	None	None	None	1
1.7	2015_Oct_14_1556	s	s	21	3	SIC	40	ABS	2	0	24VC	0	1	0.552552938461	None	None	None	None	1
1.7	2015_Oct_14_1556	s	s	21	3	SIC	41	RC	1	2	23MD	1	0	0.446620941162	-273.0	127.0	-271	124	1
1.7	2015_Oct_14_1556	s	s	21	3	SIC	42	RC	0	2	23RD	1	0	0.623109102249	332.0	-290.0	340	-287	1
1.7	2015_Oct_14_1556	s	s	21	3	SIC	43	RC	2	2	23VD	1	0	0.475506067276	357.0	96.0	358	101	1
1.7	2015_Oct_14_1556	s	s	21	3	SIC	44	RC	1	1	23MO	1	0	0.599643945694	-506.0	6.0	-506	1	1
1.7	2015_Oct_14_1556	s	s	21	3	SIC	45	ABS	1	2	24MD	0	1	0.984809875488	None	None	None	None	1
1.7	2015_Oct_14_1556	s	s	21	3	SIC	46	ABS	0	2	24RD	0	1	0.764377832413	None	None	None	None	1
1.7	2015_Oct_14_1556	s	s	21	3	SIC	47	ABS	1	0	24MC	0	1	2.36030077934	None	None	None	None	1
1.7	2015_Oct_14_1556	s	s	21	3	SIC	48	RC	2	1	23VO	1	0	0.505352020264	-86.0	-290.0	-85	-291	1
1.7	2015_Oct_14_1556	s	s	21	3	SIC	49	ABS	0	1	24RO	0	1	2.38882303238	None	None	None	None	1
1.7	2015_Oct_14_1556	s	s	21	3	SIC	50	RC	2	1	23VO	1	0	0.39525604248	-66.0	11.0	-69	15	1
1.7	2015_Oct_14_1556	s	s	21	3	SIC	51	RC	0	2	23RD	1	0	0.438453197479	30.0	137.0	38	134	1
1.7	2015_Oct_14_1556	s	s	21	3	SIC	52	ABS	1	0	24MC	0	1	1.27053713799	None	None	None	None	1
1.7	2015_Oct_14_1556	s	s	21	3	SIC	53	ABS	0	2	24RD	0	1	0.653082847595	None	None	None	None	1
1.7	2015_Oct_14_1556	s	s	21	3	SIC	54	RC	0	1	23RO	1	0	1.53641819954	-274.0	-6.0	-278	-10	1
1.7	2015_Oct_14_1556	s	s	21	3	SIC	55	ABS	2	2	24VD	0	1	0.500506877899	None	None	None	None	1
1.7	2015_Oct_14_1556	s	s	21	3	SIC	56	ABS	1	1	24MO	0	1	1.87089896202	None	None	None	None	1
1.7	2015_Oct_14_1556	s	s	21	3	SIC	57	RC	2	2	23VD	1	0	0.44149684906	387.0	340.0	383	341	1
1.7	2015_Oct_14_1556	s	s	21	3	SIC	58	ABS	1	2	24MD	0	1	0.571322202682	None	None	None	None	1
1.7	2015_Oct_14_1556	s	s	21	3	SIC	59	ABS	2	1	24VO	0	1	0.547940015793	None	None	None	None	1
1.7	2015_Oct_14_1556	s	s	21	3	SIC	60	RC	1	1	23MO	1	0	0.585319042206	378.0	137.0	376	140	1
1.7	2015_Oct_14_1556	s	s	21	3	SIC	61	RC	1	0	23MC	1	0	0.547189950943	11.0	43.0	24	47	1
1.7	2015_Oct_14_1556	s	s	21	3	SIC	62	RC	1	2	23MD	1	0	0.641883850098	-420.0	-385.0	-422	-391	1
1.7	2015_Oct_14_1556	s	s	21	3	SIC	63	ABS	2	0	24VC	0	1	0.505450963974	None	None	None	None	1
1.7	2015_Oct_14_1556	s	s	21	3	SIC	64	RC	2	0	23VC	1	0	0.477070093155	-272.0	-366.0	-268	-370	1
1.7	2015_Oct_14_1556	s	s	21	3	SIC	65	RC	2	2	23VD	1	0	0.408097982407	-448.0	-22.0	-451	-24	1
1.7	2015_Oct_14_1556	s	s	21	3	SIC	66	RC	0	1	23RO	1	0	2.70660185814	312.0	-366.0	311	-367	1
1.7	2015_Oct_14_1556	s	s	21	3	SIC	67	RC	1	2	23MD	1	0	0.446658849716	-195.0	200.0	-201	207	1
1.7	2015_Oct_14_1556	s	s	21	3	SIC	68	ABS	1	2	24MD	0	1	0.724497079849	None	None	None	None	1
1.7	2015_Oct_14_1556	s	s	21	3	SIC	69	ABS	0	2	24RD	0	1	0.807179927826	None	None	None	None	1
1.7	2015_Oct_14_1556	s	s	21	3	SIC	70	RC	1	0	23MC	1	0	0.529093027115	-80.0	159.0	-78	167	1
1.7	2015_Oct_14_1556	s	s	21	3	SIC	71	ABS	0	1	24RO	0	1	3.27161407471	None	None	None	None	1
1.7	2015_Oct_14_1556	s	s	21	3	SIC	72	RC	2	1	23VO	1	0	0.418056964874	-23.0	313.0	-16	315	1
1.7	2015_Oct_14_1556	s	s	21	3	SIC	73	ABS	1	1	24MO	0	1	1.2587788105	None	None	None	None	1
1.7	2015_Oct_14_1556	s	s	21	3	SIC	74	RC	2	0	23VC	1	0	0.411360025406	-265.0	59.0	-270	61	1
1.7	2015_Oct_14_1556	s	s	21	3	SIC	75	ABS	2	0	24VC	0	1	0.512245178223	None	None	None	None	1
1.7	2015_Oct_14_1556	s	s	21	3	SIC	76	ABS	1	0	24MC	0	1	1.47764182091	None	None	None	None	1
1.7	2015_Oct_14_1556	s	s	21	3	SIC	77	ABS	2	1	24VO	0	1	0.658744096756	None	None	None	None	1
1.7	2015_Oct_14_1556	s	s	21	3	SIC	78	ABS	2	2	24VD	0	1	0.52898311615	None	None	None	None	1
1.7	2015_Oct_14_1556	s	s	21	3	SIC	79	RC	0	2	23RD	1	0	0.399565935135	67.0	126.0	71	125	1
1.7	2015_Oct_14_1556	s	s	21	3	SIC	80	RC	1	1	23MO	1	0	0.535758018494	130.0	85.0	129	82	1
1.7	2015_Oct_14_1556	s	s	21	3	SIC	81	ABS	0	1	24RO	0	1	3.62471699715	None	None	None	None	1
1.7	2015_Oct_14_1556	s	s	21	3	SIC	82	RC	0	1	23RO	0	1	2.85961198807	-453.0	-373.0	None	None	0
1.7	2015_Oct_14_1556	s	s	21	3	SIC	83	ABS	2	0	24VC	0	1	0.611437082291	None	None	None	None	1
1.7	2015_Oct_14_1556	s	s	21	3	SIC	84	ABS	1	0	24MC	0	1	1.43539094925	None	None	None	None	1
1.7	2015_Oct_14_1556	s	s	21	3	SIC	85	ABS	1	2	24MD	0	1	0.729078054428	None	None	None	None	1
1.7	2015_Oct_14_1556	s	s	21	3	SIC	86	RC	1	1	23MO	1	0	1.08230996132	70.0	-315.0	75	-310	1
1.7	2015_Oct_14_1556	s	s	21	3	SIC	87	RC	2	1	23VO	1	0	0.512524843216	-250.0	336.0	-250	336	1
1.7	2015_Oct_14_1556	s	s	21	3	SIC	88	RC	1	0	23MC	1	0	0.83145904541	188.0	-165.0	183	-166	1
1.7	2015_Oct_14_1556	s	s	21	3	SIC	89	ABS	0	2	24RD	0	1	0.641959190369	None	None	None	None	1
1.7	2015_Oct_14_1556	s	s	21	3	SIC	90	RC	1	2	23MD	1	0	0.394430875778	-213.0	-84.0	-217	-82	1
1.7	2015_Oct_14_1556	s	s	21	3	SIC	91	ABS	2	1	24VO	0	1	0.455261945724	None	None	None	None	1
1.7	2015_Oct_14_1556	s	s	21	3	SIC	92	ABS	2	2	24VD	0	1	0.52903008461	None	None	None	None	1
1.7	2015_Oct_14_1556	s	s	21	3	SIC	93	ABS	1	1	24MO	0	1	1.19512200356	None	None	None	None	1
1.7	2015_Oct_14_1556	s	s	21	3	SIC	94	RC	2	2	23VD	1	0	0.429992198944	-278.0	100.0	-281	104	1
1.7	2015_Oct_14_1556	s	s	21	3	SIC	95	RC	2	0	23VC	1	0	0.411409854889	-75.0	-371.0	-76	-371	1
1.7	2015_Oct_14_1556	s	s	21	3	SIC	96	RC	0	2	23RD	1	0	0.481980085373	-155.0	80.0	-157	78	1
1.7	2015_Oct_14_1556	s	s	21	3	SIC	97	RC	1	1	23MO	1	0	0.529047012329	94.0	228.0	102	227	1
1.7	2015_Oct_14_1556	s	s	21	3	SIC	98	RC	2	2	23VD	1	0	0.479319810867	-314.0	-394.0	-316	-399	1
1.7	2015_Oct_14_1556	s	s	21	3	SIC	99	ABS	2	2	24VD	0	1	0.458459854126	None	None	None	None	1
1.7	2015_Oct_14_1556	s	s	21	3	SIC	100	RC	1	0	23MC	1	0	0.488901853561	69.0	-407.0	76	-408	1
1.7	2015_Oct_14_1556	s	s	21	3	SIC	101	ABS	2	1	24VO	0	1	0.455497026443	None	None	None	None	1
1.7	2015_Oct_14_1556	s	s	21	3	SIC	102	ABS	1	0	24MC	0	1	2.00032782555	None	None	None	None	1
1.7	2015_Oct_14_1556	s	s	21	3	SIC	103	RC	1	2	23MD	1	0	0.712496995926	-473.0	-225.0	-478	-235	1
1.7	2015_Oct_14_1556	s	s	21	3	SIC	104	ABS	1	2	24MD	0	1	0.619641065598	None	None	None	None	1
1.7	2015_Oct_14_1556	s	s	21	3	SIC	105	ABS	0	1	24RO	0	1	3.73062086105	None	None	None	None	1
1.7	2015_Oct_14_1556	s	s	21	3	SIC	106	ABS	2	0	24VC	0	1	0.712975025177	None	None	None	None	1
1.7	2015_Oct_14_1556	s	s	21	3	SIC	107	RC	0	1	23RO	1	0	1.14847993851	-111.0	-162.0	-103	-158	1
1.7	2015_Oct_14_1556	s	s	21	3	SIC	108	RC	0	2	23RD	1	0	0.529002904892	487.0	-2.0	492	0	1
1.7	2015_Oct_14_1556	s	s	21	3	SIC	109	ABS	0	2	24RD	0	1	0.764526844025	None	None	None	None	1
1.7	2015_Oct_14_1556	s	s	21	3	SIC	110	RC	2	1	23VO	1	0	0.466611146927	-72.0	-234.0	-64	-233	1
1.7	2015_Oct_14_1556	s	s	21	3	SIC	111	RC	2	0	23VC	1	0	0.464818000793	288.0	183.0	295	183	1
1.7	2015_Oct_14_1556	s	s	21	3	SIC	112	ABS	1	1	24MO	0	1	1.5120909214	None	None	None	None	1
1.7	2015_Oct_14_1556	s	s	21	3	SIC	113	ABS	0	1	24RO	0	1	4.28390693665	None	None	None	None	1
1.7	2015_Oct_14_1556	s	s	21	3	SIC	114	ABS	2	1	24VO	0	1	0.560971021652	None	None	None	None	1
1.7	2015_Oct_14_1556	s	s	21	3	SIC	115	RC	2	0	23VC	1	0	0.55953001976	-447.0	-340.0	-439	-346	1
1.7	2015_Oct_14_1556	s	s	21	3	SIC	116	RC	1	1	23MO	1	0	0.458391189575	-346.0	-89.0	-342	-83	1
1.7	2015_Oct_14_1556	s	s	21	3	SIC	117	ABS	1	2	24MD	0	1	0.759465932846	None	None	None	None	1
1.7	2015_Oct_14_1556	s	s	21	3	SIC	118	ABS	1	1	24MO	0	1	0.771183013916	None	None	None	None	1
1.7	2015_Oct_14_1556	s	s	21	3	SIC	119	RC	1	0	23MC	1	0	0.488703966141	-155.0	-259.0	-150	-264	1
1.7	2015_Oct_14_1556	s	s	21	3	SIC	120	RC	1	2	23MD	1	0	0.431620121002	-137.0	-331.0	-133	-329	1
1.7	2015_Oct_14_1556	s	s	21	3	SIC	121	RC	0	1	23RO	0	1	3.23372983932	265.0	117.0	None	None	0
1.7	2015_Oct_14_1556	s	s	21	3	SIC	122	ABS	2	0	24VC	0	1	0.62319278717	None	None	None	None	1
1.7	2015_Oct_14_1556	s	s	21	3	SIC	123	ABS	2	2	24VD	0	1	0.521006822586	None	None	None	None	1
1.7	2015_Oct_14_1556	s	s	21	3	SIC	124	RC	0	2	23RD	1	0	0.501585960388	-359.0	-406.0	-358	-418	1
1.7	2015_Oct_14_1556	s	s	21	3	SIC	125	RC	2	1	23VO	1	0	0.423006057739	-205.0	-84.0	-196	-84	1
1.7	2015_Oct_14_1556	s	s	21	3	SIC	126	ABS	0	2	24RD	0	1	0.4819419384	None	None	None	None	1
1.7	2015_Oct_14_1556	s	s	21	3	SIC	127	ABS	1	0	24MC	0	1	2.67808008194	None	None	None	None	1
1.7	2015_Oct_14_1556	s	s	21	3	SIC	128	RC	2	2	23VD	1	0	0.618364095688	-430.0	-79.0	-427	-70	1
1.7	2015_Oct_14_1556	s	s	21	3	SIC	129	ABS	2	0	24VC	0	1	0.688807010651	None	None	None	None	1
1.7	2015_Oct_14_1556	s	s	21	3	SIC	130	ABS	0	1	24RO	0	1	3.37266302109	None	None	None	None	1
1.7	2015_Oct_14_1556	s	s	21	3	SIC	131	RC	0	2	23RD	1	0	0.685766935349	458.0	-137.0	457	-145	1
1.7	2015_Oct_14_1556	s	s	21	3	SIC	132	RC	1	2	23MD	1	0	0.465101957321	73.0	-248.0	75	-257	1
1.7	2015_Oct_14_1556	s	s	21	3	SIC	133	RC	2	2	23VD	1	0	0.841181993484	118.0	176.0	123	179	1
1.7	2015_Oct_14_1556	s	s	21	3	SIC	134	RC	1	1	23MO	0	1	1.32939505577	-65.0	359.0	None	None	0
1.7	2015_Oct_14_1556	s	s	21	3	SIC	135	ABS	2	2	24VD	0	1	0.559235095978	None	None	None	None	1
1.7	2015_Oct_14_1556	s	s	21	3	SIC	136	RC	0	1	23RO	0	1	3.04793715477	407.0	-18.0	None	None	0
1.7	2015_Oct_14_1556	s	s	21	3	SIC	137	RC	2	0	23VC	1	0	0.458386898041	195.0	331.0	199	330	1
1.7	2015_Oct_14_1556	s	s	21	3	SIC	138	ABS	1	2	24MD	0	1	0.631675958633	None	None	None	None	1
1.7	2015_Oct_14_1556	s	s	21	3	SIC	139	RC	1	0	23MC	1	0	1.08221101761	192.0	-372.0	193	-380	1
1.7	2015_Oct_14_1556	s	s	21	3	SIC	140	ABS	1	0	24MC	0	1	1.9297709465	None	None	None	None	1
1.7	2015_Oct_14_1556	s	s	21	3	SIC	141	RC	2	1	23VO	1	0	0.489773988724	500.0	-48.0	499	-50	1
1.7	2015_Oct_14_1556	s	s	21	3	SIC	142	ABS	2	1	24VO	0	1	0.677201032639	None	None	None	None	1
1.7	2015_Oct_14_1556	s	s	21	3	SIC	143	ABS	1	1	24MO	0	1	2.10631799698	None	None	None	None	1
1.7	2015_Oct_14_1556	s	s	21	3	SIC	144	ABS	0	2	24RD	0	1	1.36474204063	None	None	None	None	1
1.7	2015_Oct_14_1556	s	s	21	3	SIC	145	RC	0	1	23RO	0	1	3.98950409889	-154.0	-33.0	None	None	0
1.7	2015_Oct_14_1556	s	s	21	3	SIC	146	ABS	2	1	24VO	0	1	0.606384992599	None	None	None	None	1
1.7	2015_Oct_14_1556	s	s	21	3	SIC	147	RC	0	2	23RD	1	0	0.529062986374	430.0	15.0	422	18	1
1.7	2015_Oct_14_1556	s	s	21	3	SIC	148	RC	1	1	23MO	1	0	0.548649072647	179.0	273.0	178	262	1
1.7	2015_Oct_14_1556	s	s	21	3	SIC	149	RC	1	0	23MC	1	0	0.98308300972	536.0	314.0	546	322	1
1.7	2015_Oct_14_1556	s	s	21	3	SIC	150	RC	2	1	23VO	1	0	0.446612119675	498.0	407.0	501	411	1
1.7	2015_Oct_14_1556	s	s	21	3	SIC	151	ABS	1	1	24MO	0	1	1.35673117638	None	None	None	None	1
1.7	2015_Oct_14_1556	s	s	21	3	SIC	152	ABS	2	2	24VD	0	1	0.540829896927	None	None	None	None	1
1.7	2015_Oct_14_1556	s	s	21	3	SIC	153	ABS	1	2	24MD	0	1	0.806426048279	None	None	None	None	1
1.7	2015_Oct_14_1556	s	s	21	3	SIC	154	RC	2	0	23VC	1	0	0.434916973114	-505.0	228.0	-515	227	1
1.7	2015_Oct_14_1556	s	s	21	3	SIC	155	ABS	2	0	24VC	0	1	0.524334907532	None	None	None	None	1
1.7	2015_Oct_14_1556	s	s	21	3	SIC	156	ABS	0	1	24RO	0	1	2.13687992096	None	None	None	None	1
1.7	2015_Oct_14_1556	s	s	21	3	SIC	157	RC	1	2	23MD	1	0	0.488593816757	260.0	353.0	261	358	1
1.7	2015_Oct_14_1556	s	s	21	3	SIC	158	RC	2	2	23VD	1	0	0.544515132904	-52.0	-294.0	-50	-300	1
1.7	2015_Oct_14_1556	s	s	21	3	SIC	159	ABS	1	0	24MC	0	1	1.77669095993	None	None	None	None	1
1.7	2015_Oct_14_1556	s	s	21	3	SIC	160	ABS	0	2	24RD	0	1	0.667694091797	None	None	None	None	1
1.7	2015_Oct_14_1556	s	s	21	3	SIC	161	ABS	0	2	24RD	0	1	0.582757949829	None	None	None	None	1
1.7	2015_Oct_14_1556	s	s	21	3	SIC	162	RC	0	2	23RD	1	0	0.494012117386	-184.0	395.0	-182	397	1
1.7	2015_Oct_14_1556	s	s	21	3	SIC	163	ABS	2	2	24VD	0	1	0.423075914383	None	None	None	None	1
1.7	2015_Oct_14_1556	s	s	21	3	SIC	164	RC	0	1	23RO	1	0	2.28282904625	523.0	-36.0	522	-34	1
1.7	2015_Oct_14_1556	s	s	21	3	SIC	165	RC	1	1	23MO	1	0	0.959837913513	176.0	355.0	185	354	1
1.7	2015_Oct_14_1556	s	s	21	3	SIC	166	RC	2	2	23VD	1	0	0.406934022903	-289.0	335.0	-280	341	1
1.7	2015_Oct_14_1556	s	s	21	3	SIC	167	ABS	1	2	24MD	0	1	0.705574989319	None	None	None	None	1
1.7	2015_Oct_14_1556	s	s	21	3	SIC	168	RC	2	0	23VC	1	0	0.399908065796	224.0	300.0	222	295	1
1.7	2015_Oct_14_1556	s	s	21	3	SIC	169	RC	2	1	23VO	1	0	0.387956857681	278.0	276.0	274	277	1
1.7	2015_Oct_14_1556	s	s	21	3	SIC	170	RC	1	0	23MC	1	0	1.52948403358	-518.0	155.0	-522	153	1
1.7	2015_Oct_14_1556	s	s	21	3	SIC	171	ABS	1	0	24MC	0	1	1.66757392883	None	None	None	None	1
1.7	2015_Oct_14_1556	s	s	21	3	SIC	172	ABS	0	1	24RO	0	1	4.12716603279	None	None	None	None	1
1.7	2015_Oct_14_1556	s	s	21	3	SIC	173	ABS	2	0	24VC	0	1	0.559322834015	None	None	None	None	1
1.7	2015_Oct_14_1556	s	s	21	3	SIC	174	ABS	1	1	24MO	0	1	1.90139007568	None	None	None	None	1
1.7	2015_Oct_14_1556	s	s	21	3	SIC	175	ABS	2	1	24VO	0	1	0.938429832458	None	None	None	None	1
1.7	2015_Oct_14_1556	s	s	21	3	SIC	176	RC	1	2	23MD	1	0	0.488943099976	-343.0	120.0	-338	118	1
1.7	2015_Oct_14_1556	s	s	21	3	SIC	177	ABS	0	1	24RO	0	1	3.92636489868	None	None	None	None	1
1.7	2015_Oct_14_1556	s	s	21	3	SIC	178	ABS	2	0	24VC	0	1	0.547693014145	None	None	None	None	1
1.7	2015_Oct_14_1556	s	s	21	3	SIC	179	RC	1	0	23MC	1	0	1.17164301872	-104.0	-98.0	-105	-110	1
1.7	2015_Oct_14_1556	s	s	21	3	SIC	180	ABS	1	1	24MO	0	1	1.80028796196	None	None	None	None	1
1.7	2015_Oct_14_1556	s	s	21	3	SIC	181	ABS	1	2	24MD	0	1	0.646651029587	None	None	None	None	1
1.7	2015_Oct_14_1556	s	s	21	3	SIC	182	RC	2	2	23VD	1	0	0.432729005814	-244.0	-268.0	-242	-271	1
1.7	2015_Oct_14_1556	s	s	21	3	SIC	183	ABS	1	0	24MC	0	1	2.41924405098	None	None	None	None	1
1.7	2015_Oct_14_1556	s	s	21	3	SIC	184	RC	1	2	23MD	1	0	0.470165967941	-62.0	-277.0	-60	-271	1
1.7	2015_Oct_14_1556	s	s	21	3	SIC	185	ABS	2	2	24VD	0	1	0.48871088028	None	None	None	None	1
1.7	2015_Oct_14_1556	s	s	21	3	SIC	186	ABS	0	2	24RD	0	1	0.882235050201	None	None	None	None	1
1.7	2015_Oct_14_1556	s	s	21	3	SIC	187	ABS	2	1	24VO	0	1	0.465298891068	None	None	None	None	1
1.7	2015_Oct_14_1556	s	s	21	3	SIC	188	RC	0	2	23RD	1	0	0.470144033432	266.0	161.0	268	158	1
1.7	2015_Oct_14_1556	s	s	21	3	SIC	189	RC	1	1	23MO	1	0	0.52895116806	-438.0	-51.0	-430	-51	1
1.7	2015_Oct_14_1556	s	s	21	3	SIC	190	RC	0	1	23RO	1	0	1.64221692085	-493.0	95.0	-497	96	1
1.7	2015_Oct_14_1556	s	s	21	3	SIC	191	RC	2	1	23VO	1	0	0.481890916824	62.0	-205.0	71	-201	1
1.7	2015_Oct_14_1556	s	s	21	3	SIC	192	RC	2	0	23VC	1	0	0.488744020462	302.0	346.0	299	346	1
1.7	2015_Oct_14_1556	s	s	21	3	SIC	193	ABS	2	2	24VD	0	1	0.512366056442	None	None	None	None	1
1.7	2015_Oct_14_1556	s	s	21	3	SIC	194	RC	1	2	23MD	1	0	0.556298971176	287.0	-331.0	288	-334	1
1.7	2015_Oct_14_1556	s	s	21	3	SIC	195	RC	2	1	23VO	1	0	0.441648006439	-149.0	-280.0	-157	-275	1
1.7	2015_Oct_14_1556	s	s	21	3	SIC	196	ABS	1	0	24MC	1	0	0.618493080139	None	None	-399	-112	0
1.7	2015_Oct_14_1556	s	s	21	3	SIC	197	ABS	0	1	24RO	0	1	3.76087784767	None	None	None	None	1
1.7	2015_Oct_14_1556	s	s	21	3	SIC	198	ABS	2	1	24VO	0	1	0.526542186737	None	None	None	None	1
1.7	2015_Oct_14_1556	s	s	21	3	SIC	199	RC	2	0	23VC	1	0	0.399655818939	62.0	-58.0	62	-56	1
1.7	2015_Oct_14_1556	s	s	21	3	SIC	200	RC	2	2	23VD	1	0	0.406959056854	-442.0	42.0	-440	42	1
1.7	2015_Oct_14_1556	s	s	21	3	SIC	201	ABS	1	2	24MD	0	1	0.700520992279	None	None	None	None	1
1.7	2015_Oct_14_1556	s	s	21	3	SIC	202	ABS	1	1	24MO	0	1	1.80952191353	None	None	None	None	1
1.7	2015_Oct_14_1556	s	s	21	3	SIC	203	RC	1	1	23MO	1	0	0.925935029984	-450.0	-88.0	-447	-89	1
1.7	2015_Oct_14_1556	s	s	21	3	SIC	204	RC	1	0	23MC	1	0	0.493706941605	-324.0	-58.0	-326	-54	1
1.7	2015_Oct_14_1556	s	s	21	3	SIC	205	RC	0	2	23RD	1	0	0.81892490387	295.0	-138.0	292	-130	1
1.7	2015_Oct_14_1556	s	s	21	3	SIC	206	ABS	2	0	24VC	0	1	0.700822114944	None	None	None	None	1
1.7	2015_Oct_14_1556	s	s	21	3	SIC	207	RC	0	1	23RO	1	0	1.60688495636	-327.0	-372.0	-331	-372	1
1.7	2015_Oct_14_1556	s	s	21	3	SIC	208	ABS	0	2	24RD	0	1	1.13846707344	None	None	None	None	1
1.7	2015_Oct_14_1556	s	s	21	3	SIC	209	ABS	1	1	24MO	0	1	1.43275094032	None	None	None	None	1
1.7	2015_Oct_14_1556	s	s	21	3	SIC	210	ABS	0	2	24RD	0	1	0.97677397728	None	None	None	None	1
1.7	2015_Oct_14_1556	s	s	21	3	SIC	211	ABS	2	1	24VO	0	1	0.594657897949	None	None	None	None	1
1.7	2015_Oct_14_1556	s	s	21	3	SIC	212	RC	0	2	23RD	1	0	0.647112846375	-291.0	-310.0	-288	-311	1
1.7	2015_Oct_14_1556	s	s	21	3	SIC	213	RC	2	0	23VC	1	0	0.511652946472	536.0	247.0	535	240	1
1.7	2015_Oct_14_1556	s	s	21	3	SIC	214	RC	1	2	23MD	1	0	0.57612991333	-534.0	-393.0	-544	-394	1
1.7	2015_Oct_14_1556	s	s	21	3	SIC	215	ABS	1	2	24MD	0	1	0.595071077347	None	None	None	None	1
1.7	2015_Oct_14_1556	s	s	21	3	SIC	216	RC	1	1	23MO	1	0	0.606644153595	292.0	142.0	297	140	1
1.7	2015_Oct_14_1556	s	s	21	3	SIC	217	RC	1	0	23MC	1	0	0.406507015228	-274.0	-68.0	-276	-72	1
1.7	2015_Oct_14_1556	s	s	21	3	SIC	218	ABS	0	1	24RO	0	1	3.49265122414	None	None	None	None	1
1.7	2015_Oct_14_1556	s	s	21	3	SIC	219	RC	2	2	23VD	1	0	0.50054192543	-443.0	-82.0	-445	-81	1
1.7	2015_Oct_14_1556	s	s	21	3	SIC	220	RC	0	1	23RO	1	0	1.26561808586	-388.0	126.0	-386	126	1
1.7	2015_Oct_14_1556	s	s	21	3	SIC	221	ABS	1	0	24MC	0	1	2.124792099	None	None	None	None	1
1.7	2015_Oct_14_1556	s	s	21	3	SIC	222	RC	2	1	23VO	1	0	0.434881925583	-269.0	-66.0	-271	-74	1
1.7	2015_Oct_14_1556	s	s	21	3	SIC	223	ABS	2	0	24VC	0	1	0.564284086227	None	None	None	None	1
1.7	2015_Oct_14_1556	s	s	21	3	SIC	224	ABS	2	2	24VD	0	1	0.571562051773	None	None	None	None	1
1.7	2015_Oct_14_1556	s	s	21	3	SIC	225	RC	1	0	23MC	1	0	1.34771990776	408.0	-28.0	401	-34	1
1.7	2015_Oct_14_1556	s	s	21	3	SIC	226	ABS	2	2	24VD	0	1	0.441848993301	None	None	None	None	1
1.7	2015_Oct_14_1556	s	s	21	3	SIC	227	RC	2	1	23VO	1	0	0.434890985489	184.0	25.0	180	20	1
1.7	2015_Oct_14_1556	s	s	21	3	SIC	228	ABS	1	0	24MC	0	1	1.53647303581	None	None	None	None	1
1.7	2015_Oct_14_1556	s	s	21	3	SIC	229	RC	2	2	23VD	1	0	0.364170074463	139.0	71.0	134	67	1
1.7	2015_Oct_14_1556	s	s	21	3	SIC	230	RC	0	2	23RD	1	0	0.493711948395	-323.0	-76.0	-330	-81	1
1.7	2015_Oct_14_1556	s	s	21	3	SIC	231	ABS	2	0	24VC	0	1	0.547554969788	None	None	None	None	1
1.7	2015_Oct_14_1556	s	s	21	3	SIC	232	RC	1	2	23MD	1	0	0.467516899109	396.0	116.0	392	113	1
1.7	2015_Oct_14_1556	s	s	21	3	SIC	233	ABS	1	1	24MO	0	1	1.55304908752	None	None	None	None	1
1.7	2015_Oct_14_1556	s	s	21	3	SIC	234	RC	0	1	23RO	1	0	3.08963704109	-499.0	-395.0	-493	-396	1
1.7	2015_Oct_14_1556	s	s	21	3	SIC	235	ABS	2	1	24VO	0	1	0.529014110565	None	None	None	None	1
1.7	2015_Oct_14_1556	s	s	21	3	SIC	236	RC	2	0	23VC	1	0	0.734843015671	-389.0	91.0	-392	94	1
1.7	2015_Oct_14_1556	s	s	21	3	SIC	237	RC	1	1	23MO	1	0	1.17137384415	380.0	-234.0	381	-232	1
1.7	2015_Oct_14_1556	s	s	21	3	SIC	238	ABS	0	1	24RO	0	1	3.01641011238	None	None	None	None	1
1.7	2015_Oct_14_1556	s	s	21	3	SIC	239	ABS	1	2	24MD	0	1	0.655894041061	None	None	None	None	1
1.7	2015_Oct_14_1556	s	s	21	3	SIC	240	ABS	0	2	24RD	0	1	0.677011966705	None	None	None	None	1
1.7	2015_Oct_14_1556	s	s	21	3	SIC	241	RC	1	2	23MD	1	0	0.514009952545	352.0	-293.0	351	-293	1
1.7	2015_Oct_14_1556	s	s	21	3	SIC	242	ABS	0	2	24RD	0	1	0.677226066589	None	None	None	None	1
1.7	2015_Oct_14_1556	s	s	21	3	SIC	243	RC	1	0	23MC	1	0	1.195291996	-341.0	-201.0	-346	-201	1
1.7	2015_Oct_14_1556	s	s	21	3	SIC	244	ABS	2	1	24VO	0	1	0.713139057159	None	None	None	None	1
1.7	2015_Oct_14_1556	s	s	21	3	SIC	245	ABS	2	2	24VD	0	1	1.02338910103	None	None	None	None	1
1.7	2015_Oct_14_1556	s	s	21	3	SIC	246	RC	0	2	23RD	1	0	0.512326955795	389.0	-174.0	379	-175	1
1.7	2015_Oct_14_1556	s	s	21	3	SIC	247	ABS	0	1	24RO	0	1	2.99592900276	None	None	None	None	1
1.7	2015_Oct_14_1556	s	s	21	3	SIC	248	ABS	1	0	24MC	0	1	1.51778793335	None	None	None	None	1
1.7	2015_Oct_14_1556	s	s	21	3	SIC	249	RC	1	1	23MO	1	0	1.52929592133	-57.0	-384.0	-57	-385	1
1.7	2015_Oct_14_1556	s	s	21	3	SIC	250	RC	2	0	23VC	1	0	0.547680139542	512.0	-272.0	507	-279	1
1.7	2015_Oct_14_1556	s	s	21	3	SIC	251	RC	2	2	23VD	1	0	0.418101072311	-9.0	-97.0	-8	-101	1
1.7	2015_Oct_14_1556	s	s	21	3	SIC	252	ABS	1	1	24MO	0	1	1.7569258213	None	None	None	None	1
1.7	2015_Oct_14_1556	s	s	21	3	SIC	253	ABS	1	2	24MD	0	1	0.747726917267	None	None	None	None	1
1.7	2015_Oct_14_1556	s	s	21	3	SIC	254	ABS	2	0	24VC	0	1	0.529037952423	None	None	None	None	1
1.7	2015_Oct_14_1556	s	s	21	3	SIC	255	RC	2	1	23VO	1	0	0.434949874878	-187.0	385.0	-187	387	1
1.7	2015_Oct_14_1556	s	s	21	3	SIC	256	RC	0	1	23RO	1	0	2.5149731636	-532.0	-75.0	-526	-81	1
1.7	2015_Oct_14_1556	s	s	21	3	SIC	257	ABS	2	0	24VC	0	1	0.62321805954	None	None	None	None	1
1.7	2015_Oct_14_1556	s	s	21	3	SIC	258	ABS	2	1	24VO	0	1	0.54768204689	None	None	None	None	1
1.7	2015_Oct_14_1556	s	s	21	3	SIC	259	ABS	1	0	24MC	0	1	1.70645809174	None	None	None	None	1
1.7	2015_Oct_14_1556	s	s	21	3	SIC	260	ABS	0	1	24RO	0	1	3.38440108299	None	None	None	None	1
1.7	2015_Oct_14_1556	s	s	21	3	SIC	261	RC	2	1	23VO	1	0	0.434870958328	72.0	176.0	74	175	1
1.7	2015_Oct_14_1556	s	s	21	3	SIC	262	RC	1	2	23MD	1	0	0.535966157913	-125.0	284.0	-119	288	1
1.7	2015_Oct_14_1556	s	s	21	3	SIC	263	RC	0	1	23RO	0	1	3.3066649437	-240.0	186.0	None	None	0
1.7	2015_Oct_14_1556	s	s	21	3	SIC	264	RC	2	0	23VC	1	0	0.430624008179	187.0	221.0	182	221	1
1.7	2015_Oct_14_1556	s	s	21	3	SIC	265	ABS	0	2	24RD	0	1	0.799742937088	None	None	None	None	1
1.7	2015_Oct_14_1556	s	s	21	3	SIC	266	RC	1	1	23MO	1	0	0.900871038437	367.0	-104.0	371	-106	1
1.7	2015_Oct_14_1556	s	s	21	3	SIC	267	RC	2	2	23VD	1	0	0.453593015671	-475.0	-322.0	-481	-327	1
1.7	2015_Oct_14_1556	s	s	21	3	SIC	268	ABS	1	2	24MD	0	1	0.561800956726	None	None	None	None	1
1.7	2015_Oct_14_1556	s	s	21	3	SIC	269	ABS	1	1	24MO	0	1	1.86580300331	None	None	None	None	1
1.7	2015_Oct_14_1556	s	s	21	3	SIC	270	RC	1	0	23MC	1	0	1.04691791534	-513.0	-210.0	-516	-216	1
1.7	2015_Oct_14_1556	s	s	21	3	SIC	271	ABS	2	2	24VD	0	1	0.532762050629	None	None	None	None	1
1.7	2015_Oct_14_1556	s	s	21	3	SIC	272	RC	0	2	23RD	1	0	0.512401103973	-315.0	-60.0	-316	-68	1
1.7	2015_Oct_14_1556	s	s	21	3	SIC	273	ABS	0	1	24RO	0	1	3.26362299919	None	None	None	None	1
1.7	2015_Oct_14_1556	s	s	21	3	SIC	274	ABS	2	1	24VO	0	1	0.540795087814	None	None	None	None	1
1.7	2015_Oct_14_1556	s	s	21	3	SIC	275	ABS	1	0	24MC	0	1	1.83075404167	None	None	None	None	1
1.7	2015_Oct_14_1556	s	s	21	3	SIC	276	RC	2	1	23VO	1	0	0.493709802628	426.0	22.0	429	19	1
1.7	2015_Oct_14_1556	s	s	21	3	SIC	277	RC	1	2	23MD	1	0	0.476925849915	-315.0	242.0	-318	239	1
1.7	2015_Oct_14_1556	s	s	21	3	SIC	278	ABS	2	0	24VC	0	1	0.537543058395	None	None	None	None	1
1.7	2015_Oct_14_1556	s	s	21	3	SIC	279	RC	1	0	23MC	1	0	0.877456903458	493.0	-233.0	494	-232	1
1.7	2015_Oct_14_1556	s	s	21	3	SIC	280	RC	2	0	23VC	1	0	0.458359003067	126.0	316.0	130	315	1
1.7	2015_Oct_14_1556	s	s	21	3	SIC	281	ABS	1	2	24MD	0	1	0.846860170364	None	None	None	None	1
1.7	2015_Oct_14_1556	s	s	21	3	SIC	282	RC	0	2	23RD	1	0	1.05336689949	210.0	175.0	215	176	1
1.7	2015_Oct_14_1556	s	s	21	3	SIC	283	ABS	0	2	24RD	0	1	1.1031332016	None	None	None	None	1
1.7	2015_Oct_14_1556	s	s	21	3	SIC	284	RC	2	2	23VD	1	0	0.383083105087	-38.0	-110.0	-34	-118	1
1.7	2015_Oct_14_1556	s	s	21	3	SIC	285	ABS	1	1	24MO	0	1	1.42357301712	None	None	None	None	1
1.7	2015_Oct_14_1556	s	s	21	3	SIC	286	RC	0	1	23RO	0	1	3.77278995514	457.0	-235.0	None	None	0
1.7	2015_Oct_14_1556	s	s	21	3	SIC	287	RC	1	1	23MO	1	0	1.01866793633	261.0	168.0	261	168	1
1.7	2015_Oct_14_1556	s	s	21	3	SIC	288	ABS	2	2	24VD	0	1	0.470464944839	None	None	None	None	1
1.7	2015_Oct_14_1556	s	s	21	3	SIC	289	RC	0	1	23RO	0	1	3.71652793884	-137.0	-328.0	None	None	0
1.7	2015_Oct_14_1556	s	s	21	3	SIC	290	RC	1	0	23MC	1	0	1.97680091858	-388.0	382.0	-383	380	1
1.7	2015_Oct_14_1556	s	s	21	3	SIC	291	ABS	2	2	24VD	0	1	0.523895025253	None	None	None	None	1
1.7	2015_Oct_14_1556	s	s	21	3	SIC	292	ABS	0	1	24RO	0	1	3.51877117157	None	None	None	None	1
1.7	2015_Oct_14_1556	s	s	21	3	SIC	293	ABS	1	2	24MD	0	1	0.670272111893	None	None	None	None	1
1.7	2015_Oct_14_1556	s	s	21	3	SIC	294	RC	1	2	23MD	1	0	0.458383083344	80.0	267.0	85	257	1
1.7	2015_Oct_14_1556	s	s	21	3	SIC	295	ABS	1	1	24MO	0	1	2.13666200638	None	None	None	None	1
1.7	2015_Oct_14_1556	s	s	21	3	SIC	296	ABS	2	1	24VO	0	1	0.674062013626	None	None	None	None	1
1.7	2015_Oct_14_1556	s	s	21	3	SIC	297	ABS	1	0	24MC	0	1	2.48896503448	None	None	None	None	1
1.7	2015_Oct_14_1556	s	s	21	3	SIC	298	RC	2	2	23VD	1	0	0.430129051208	190.0	-130.0	190	-127	1
1.7	2015_Oct_14_1556	s	s	21	3	SIC	299	ABS	0	2	24RD	0	1	0.643075942993	None	None	None	None	1
1.7	2015_Oct_14_1556	s	s	21	3	SIC	300	ABS	2	0	24VC	0	1	0.524131059647	None	None	None	None	1
1.7	2015_Oct_14_1556	s	s	21	3	SIC	301	RC	1	1	23MO	1	0	1.11759805679	-439.0	-62.0	-441	-66	1
1.7	2015_Oct_14_1556	s	s	21	3	SIC	302	RC	0	2	23RD	0	1	0.561045885086	338.0	-142.0	None	None	0
1.7	2015_Oct_14_1556	s	s	21	3	SIC	303	RC	2	1	23VO	1	0	0.411718845367	251.0	-261.0	251	-262	1
1.7	2015_Oct_14_1556	s	s	21	3	SIC	304	RC	2	0	23VC	1	0	0.582858800888	-496.0	370.0	-504	370	1
1.7	2015_Oct_14_1556	s	s	21	3	SIC	305	ABS	2	0	24VC	0	1	0.571622133255	None	None	None	None	1
1.7	2015_Oct_14_1556	s	s	21	3	SIC	306	ABS	2	2	24VD	0	1	0.558777093887	None	None	None	None	1
1.7	2015_Oct_14_1556	s	s	21	3	SIC	307	ABS	1	1	24MO	0	1	2.0298500061	None	None	None	None	1
1.7	2015_Oct_14_1556	s	s	21	3	SIC	308	ABS	0	2	24RD	0	1	0.95943903923	None	None	None	None	1
1.7	2015_Oct_14_1556	s	s	21	3	SIC	309	ABS	1	2	24MD	0	1	0.947892189026	None	None	None	None	1
1.7	2015_Oct_14_1556	s	s	21	3	SIC	310	ABS	0	1	24RO	0	1	3.30700111389	None	None	None	None	1
1.7	2015_Oct_14_1556	s	s	21	3	SIC	311	ABS	2	1	24VO	0	1	0.502324104309	None	None	None	None	1
1.7	2015_Oct_14_1556	s	s	21	3	SIC	312	RC	0	2	23RD	1	0	0.670708179474	-314.0	226.0	-306	230	1
1.7	2015_Oct_14_1556	s	s	21	3	SIC	313	RC	2	2	23VD	0	1	0.464749097824	508.0	-133.0	None	None	0
1.7	2015_Oct_14_1556	s	s	21	3	SIC	314	RC	1	1	23MO	1	0	0.917481899261	-241.0	-409.0	-233	-404	1
1.7	2015_Oct_14_1556	s	s	21	3	SIC	315	RC	2	1	23VO	1	0	0.465393066406	398.0	-395.0	407	-396	1
1.7	2015_Oct_14_1556	s	s	21	3	SIC	316	RC	1	0	23MC	1	0	0.482004165649	139.0	-53.0	144	-52	1
1.7	2015_Oct_14_1556	s	s	21	3	SIC	317	RC	2	0	23VC	1	0	0.406678915024	-254.0	165.0	-249	165	1
1.7	2015_Oct_14_1556	s	s	21	3	SIC	318	RC	0	1	23RO	0	1	3.37248778343	-44.0	-367.0	None	None	0
1.7	2015_Oct_14_1556	s	s	21	3	SIC	319	ABS	1	0	24MC	0	1	2.11821699142	None	None	None	None	1
1.7	2015_Oct_14_1556	s	s	21	3	SIC	320	RC	1	2	23MD	1	0	0.488785982132	-467.0	202.0	-464	198	1
1.7	2015_Oct_14_1556	s	s	21	3	SIC	321	ABS	1	1	24MO	0	1	1.93595290184	None	None	None	None	1
1.7	2015_Oct_14_1556	s	s	21	3	SIC	322	RC	2	2	23VD	1	0	0.391508102417	459.0	7.0	457	5	1
1.7	2015_Oct_14_1556	s	s	21	3	SIC	323	ABS	0	1	24RO	0	1	2.12989997864	None	None	None	None	1
1.7	2015_Oct_14_1556	s	s	21	3	SIC	324	RC	1	2	23MD	1	0	0.441197156906	109.0	-215.0	115	-220	1
1.7	2015_Oct_14_1556	s	s	21	3	SIC	325	ABS	2	1	24VO	0	1	0.550164937973	None	None	None	None	1
1.7	2015_Oct_14_1556	s	s	21	3	SIC	326	ABS	1	2	24MD	0	1	0.855279922485	None	None	None	None	1
1.7	2015_Oct_14_1556	s	s	21	3	SIC	327	RC	0	2	23RD	1	0	0.570842981339	437.0	159.0	431	158	1
1.7	2015_Oct_14_1556	s	s	21	3	SIC	328	RC	1	0	23MC	1	0	1.0086081028	-91.0	-382.0	-97	-389	1
1.7	2015_Oct_14_1556	s	s	21	3	SIC	329	ABS	1	0	24MC	0	1	1.84728503227	None	None	None	None	1
1.7	2015_Oct_14_1556	s	s	21	3	SIC	330	RC	2	1	23VO	1	0	0.38778090477	180.0	10.0	178	14	1
1.7	2015_Oct_14_1556	s	s	21	3	SIC	331	ABS	0	2	24RD	0	1	0.842550992966	None	None	None	None	1
1.7	2015_Oct_14_1556	s	s	21	3	SIC	332	RC	2	0	23VC	1	0	0.476806163788	-176.0	8.0	-177	4	1
1.7	2015_Oct_14_1556	s	s	21	3	SIC	333	ABS	2	0	24VC	0	1	0.528924942017	None	None	None	None	1
1.7	2015_Oct_14_1556	s	s	21	3	SIC	334	RC	0	1	23RO	1	0	3.75425601006	87.0	321.0	92	323	1
1.7	2015_Oct_14_1556	s	s	21	3	SIC	335	RC	1	1	23MO	1	0	0.712161064148	258.0	-47.0	250	-48	1
1.7	2015_Oct_14_1556	s	s	21	3	SIC	336	ABS	2	2	24VD	0	1	0.547217130661	None	None	None	None	1
1.7	2015_Oct_14_1556	s	s	21	3	SIC	337	RC	2	2	23VD	1	0	0.434834003448	-409.0	-313.0	-410	-313	1
1.7	2015_Oct_14_1556	s	s	21	3	SIC	338	RC	1	2	23MD	1	0	0.493659973145	498.0	-239.0	504	-236	1
1.7	2015_Oct_14_1556	s	s	21	3	SIC	339	RC	1	0	23MC	1	0	0.611404180527	-173.0	87.0	-166	89	1
1.7	2015_Oct_14_1556	s	s	21	3	SIC	340	ABS	0	2	24RD	0	1	0.794144153595	None	None	None	None	1
1.7	2015_Oct_14_1556	s	s	21	3	SIC	341	RC	0	1	23RO	0	1	4.34964299202	49.0	-209.0	None	None	0
1.7	2015_Oct_14_1556	s	s	21	3	SIC	342	ABS	2	2	24VD	0	1	0.5172560215	None	None	None	None	1
1.7	2015_Oct_14_1556	s	s	21	3	SIC	343	ABS	1	0	24MC	0	1	1.72962188721	None	None	None	None	1
1.7	2015_Oct_14_1556	s	s	21	3	SIC	344	RC	2	0	23VC	1	0	0.435077905655	-287.0	-194.0	-291	-198	1
1.7	2015_Oct_14_1556	s	s	21	3	SIC	345	ABS	2	1	24VO	0	1	0.607928037643	None	None	None	None	1
1.7	2015_Oct_14_1556	s	s	21	3	SIC	346	ABS	1	2	24MD	0	1	0.6419069767	None	None	None	None	1
1.7	2015_Oct_14_1556	s	s	21	3	SIC	347	ABS	2	0	24VC	0	1	0.529089927673	None	None	None	None	1
1.7	2015_Oct_14_1556	s	s	21	3	SIC	348	RC	1	1	23MO	1	0	1.4331240654	206.0	-143.0	197	-147	1
1.7	2015_Oct_14_1556	s	s	21	3	SIC	349	ABS	0	1	24RO	0	1	4.55119895935	None	None	None	None	1
1.7	2015_Oct_14_1556	s	s	21	3	SIC	350	RC	2	1	23VO	1	0	0.581506967545	-159.0	-278.0	-155	-279	1
1.7	2015_Oct_14_1556	s	s	21	3	SIC	351	ABS	1	1	24MO	0	1	1.32937693596	None	None	None	None	1
1.7	2015_Oct_14_1556	s	s	21	3	SIC	352	RC	0	2	23RD	1	0	0.61830496788	-346.0	-77.0	-337	-76	1
1.7	2015_Oct_14_1556	s	s	21	3	SIC	353	RC	2	0	23VC	1	0	0.465162038803	-529.0	-178.0	-525	-182	1
1.7	2015_Oct_14_1556	s	s	21	3	SIC	354	ABS	2	2	24VD	0	1	0.51220202446	None	None	None	None	1
1.7	2015_Oct_14_1556	s	s	21	3	SIC	355	ABS	2	1	24VO	0	1	0.618266105652	None	None	None	None	1
1.7	2015_Oct_14_1556	s	s	21	3	SIC	356	RC	1	0	23MC	1	0	0.91748380661	-134.0	81.0	-132	85	1
1.7	2015_Oct_14_1556	s	s	21	3	SIC	357	RC	0	1	23RO	1	0	1.72962212563	396.0	166.0	388	160	1
1.7	2015_Oct_14_1556	s	s	21	3	SIC	358	ABS	2	0	24VC	0	1	0.587890148163	None	None	None	None	1
1.7	2015_Oct_14_1556	s	s	21	3	SIC	359	RC	1	1	23MO	1	0	0.811533212662	319.0	132.0	330	135	1
1.7	2015_Oct_14_1556	s	s	21	3	SIC	360	ABS	1	1	24MO	0	1	1.4000658989	None	None	None	None	1
1.7	2015_Oct_14_1556	s	s	21	3	SIC	361	RC	2	1	23VO	1	0	0.482132911682	488.0	384.0	490	385	1
1.7	2015_Oct_14_1556	s	s	21	3	SIC	362	RC	0	2	23RD	1	0	0.500638008118	369.0	183.0	371	186	1
1.7	2015_Oct_14_1556	s	s	21	3	SIC	363	ABS	0	2	24RD	0	1	0.912564992905	None	None	None	None	1
1.7	2015_Oct_14_1556	s	s	21	3	SIC	364	RC	2	2	23VD	1	0	0.540832996368	-228.0	-26.0	-232	-23	1
1.7	2015_Oct_14_1556	s	s	21	3	SIC	365	ABS	1	2	24MD	0	1	0.517178058624	None	None	None	None	1
1.7	2015_Oct_14_1556	s	s	21	3	SIC	366	ABS	0	1	24RO	0	1	3.46904993057	None	None	None	None	1
1.7	2015_Oct_14_1556	s	s	21	3	SIC	367	ABS	1	0	24MC	0	1	1.29414796829	None	None	None	None	1
1.7	2015_Oct_14_1556	s	s	21	3	SIC	368	RC	1	2	23MD	1	0	0.481780052185	-57.0	-280.0	-51	-288	1
1.7	2015_Oct_14_1556	s	s	21	3	SIC	369	RC	1	2	23MD	1	0	0.511708974838	-414.0	-312.0	-410	-310	1
1.7	2015_Oct_14_1556	s	s	21	3	SIC	370	RC	2	0	23VC	1	0	0.411376953125	-188.0	-241.0	-181	-244	1
1.7	2015_Oct_14_1556	s	s	21	3	SIC	371	ABS	2	0	24VC	0	1	0.77624797821	None	None	None	None	1
1.7	2015_Oct_14_1556	s	s	21	3	SIC	372	ABS	0	1	24RO	0	1	3.05972099304	None	None	None	None	1
1.7	2015_Oct_14_1556	s	s	21	3	SIC	373	ABS	0	2	24RD	0	1	0.717429876328	None	None	None	None	1
1.7	2015_Oct_14_1556	s	s	21	3	SIC	374	RC	2	1	23VO	0	1	0.529060125351	219.0	-339.0	None	None	0
1.7	2015_Oct_14_1556	s	s	21	3	SIC	375	RC	2	2	23VD	1	0	0.43486905098	-353.0	-248.0	-349	-253	1
1.7	2015_Oct_14_1556	s	s	21	3	SIC	376	ABS	1	1	24MO	0	1	2.0546848774	None	None	None	None	1
1.7	2015_Oct_14_1556	s	s	21	3	SIC	377	ABS	1	2	24MD	0	1	0.846737146378	None	None	None	None	1
1.7	2015_Oct_14_1556	s	s	21	3	SIC	378	RC	1	1	23MO	1	0	1.48943400383	-387.0	276.0	-385	270	1
1.7	2015_Oct_14_1556	s	s	21	3	SIC	379	RC	0	2	23RD	1	0	0.552561998367	343.0	271.0	340	267	1
1.7	2015_Oct_14_1556	s	s	21	3	SIC	380	ABS	2	2	24VD	0	1	0.587919950485	None	None	None	None	1
1.7	2015_Oct_14_1556	s	s	21	3	SIC	381	ABS	2	1	24VO	0	1	0.634953975677	None	None	None	None	1
1.7	2015_Oct_14_1556	s	s	21	3	SIC	382	RC	1	0	23MC	1	0	0.890353918076	-467.0	151.0	-468	147	1
1.7	2015_Oct_14_1556	s	s	21	3	SIC	383	ABS	1	0	24MC	0	1	1.27666306496	None	None	None	None	1
1.7	2015_Oct_14_1556	s	s	21	3	SIC	384	RC	0	1	23RO	1	0	2.78521990776	218.0	84.0	215	83	1
1.7	2015_Oct_14_1556	s	s	21	3	SIC	385	ABS	1	0	24MC	0	1	2.02073502541	None	None	None	None	1
1.7	2015_Oct_14_1556	s	s	21	3	SIC	386	RC	0	1	23RO	1	0	3.03160595894	-205.0	406.0	-204	411	1
1.7	2015_Oct_14_1556	s	s	21	3	SIC	387	RC	1	1	23MO	1	0	2.07094693184	-540.0	408.0	-540	406	1
1.7	2015_Oct_14_1556	s	s	21	3	SIC	388	RC	1	0	23MC	1	0	1.53589582443	393.0	-178.0	397	-179	1
1.7	2015_Oct_14_1556	s	s	21	3	SIC	389	ABS	2	1	24VO	0	1	0.69047498703	None	None	None	None	1
1.7	2015_Oct_14_1556	s	s	21	3	SIC	390	RC	1	2	23MD	1	0	0.806433916092	303.0	303.0	300	304	1
1.7	2015_Oct_14_1556	s	s	21	3	SIC	391	ABS	2	0	24VC	0	1	0.646764039993	None	None	None	None	1
1.7	2015_Oct_14_1556	s	s	21	3	SIC	392	ABS	0	2	24RD	0	1	0.9020819664	None	None	None	None	1
1.7	2015_Oct_14_1556	s	s	21	3	SIC	393	RC	2	1	23VO	1	0	0.571022033691	-146.0	356.0	-147	363	1
1.7	2015_Oct_14_1556	s	s	21	3	SIC	394	ABS	2	2	24VD	0	1	0.753015995026	None	None	None	None	1
1.7	2015_Oct_14_1556	s	s	21	3	SIC	395	RC	2	2	23VD	1	0	0.458359956741	294.0	370.0	295	373	1
1.7	2015_Oct_14_1556	s	s	21	3	SIC	396	RC	2	0	23VC	1	0	0.677344083786	-533.0	-8.0	-530	-9	1
1.7	2015_Oct_14_1556	s	s	21	3	SIC	397	RC	0	2	23RD	1	0	0.540808200836	514.0	-45.0	518	-42	1
1.7	2015_Oct_14_1556	s	s	21	3	SIC	398	ABS	0	1	24RO	0	1	4.10733699799	None	None	None	None	1
1.7	2015_Oct_14_1556	s	s	21	3	SIC	399	ABS	1	2	24MD	0	1	0.714151144028	None	None	None	None	1
1.7	2015_Oct_14_1556	s	s	21	3	SIC	400	ABS	1	1	24MO	0	1	2.15334010124	None	None	None	None	1
1.7	2015_Oct_14_1556	s	s	21	3	SIC	401	ABS	2	0	24VC	0	1	0.658522129059	None	None	None	None	1
1.7	2015_Oct_14_1556	s	s	21	3	SIC	402	RC	1	1	23MO	1	0	1.32553887367	-435.0	186.0	-439	184	1
1.7	2015_Oct_14_1556	s	s	21	3	SIC	403	RC	1	2	23MD	1	0	0.51472401619	534.0	137.0	532	133	1
1.7	2015_Oct_14_1556	s	s	21	3	SIC	404	ABS	0	2	24RD	0	1	0.617747068405	None	None	None	None	1
1.7	2015_Oct_14_1556	s	s	21	3	SIC	405	RC	2	2	23VD	1	0	0.559189081192	523.0	-380.0	521	-381	1
1.7	2015_Oct_14_1556	s	s	21	3	SIC	406	ABS	1	1	24MO	0	1	1.89183688164	None	None	None	None	1
1.7	2015_Oct_14_1556	s	s	21	3	SIC	407	ABS	0	1	24RO	0	1	3.63165998459	None	None	None	None	1
1.7	2015_Oct_14_1556	s	s	21	3	SIC	408	RC	0	2	23RD	1	0	0.575985193253	192.0	357.0	193	360	1
1.7	2015_Oct_14_1556	s	s	21	3	SIC	409	RC	0	1	23RO	1	0	1.55308508873	491.0	105.0	498	109	1
1.7	2015_Oct_14_1556	s	s	21	3	SIC	410	RC	1	0	23MC	1	0	0.478437185287	243.0	62.0	237	58	1
1.7	2015_Oct_14_1556	s	s	21	3	SIC	411	ABS	2	2	24VD	0	1	0.458394050598	None	None	None	None	1
1.7	2015_Oct_14_1556	s	s	21	3	SIC	412	ABS	2	1	24VO	0	1	0.693817138672	None	None	None	None	1
1.7	2015_Oct_14_1556	s	s	21	3	SIC	413	RC	2	0	23VC	1	0	0.465183973312	129.0	-250.0	132	-251	1
1.7	2015_Oct_14_1556	s	s	21	3	SIC	414	ABS	1	2	24MD	0	1	0.858636140823	None	None	None	None	1
1.7	2015_Oct_14_1556	s	s	21	3	SIC	415	ABS	1	0	24MC	0	1	1.67455005646	None	None	None	None	1
1.7	2015_Oct_14_1556	s	s	21	3	SIC	416	RC	2	1	23VO	1	0	0.42685508728	-335.0	-302.0	-333	-301	1
1.7	2015_Oct_14_1556	s	s	21	3	SIC	417	RC	2	1	23VO	1	0	0.399567842484	-203.0	299.0	-203	293	1
1.7	2015_Oct_14_1556	s	s	21	3	SIC	418	RC	2	0	23VC	1	0	0.420615911484	-358.0	-142.0	-352	-144	1
1.7	2015_Oct_14_1556	s	s	21	3	SIC	419	RC	1	0	23MC	1	0	1.1003370285	3.0	-306.0	3	-304	1
1.7	2015_Oct_14_1556	s	s	21	3	SIC	420	ABS	2	2	24VD	0	1	0.50225186348	None	None	None	None	1
1.7	2015_Oct_14_1556	s	s	21	3	SIC	421	ABS	1	2	24MD	0	1	0.81151008606	None	None	None	None	1
1.7	2015_Oct_14_1556	s	s	21	3	SIC	422	RC	0	1	23RO	1	0	1.43528199196	154.0	80.0	156	83	1
1.7	2015_Oct_14_1556	s	s	21	3	SIC	423	ABS	2	0	24VC	0	1	0.503030061722	None	None	None	None	1
1.7	2015_Oct_14_1556	s	s	21	3	SIC	424	ABS	0	2	24RD	0	1	1.10234904289	None	None	None	None	1
1.7	2015_Oct_14_1556	s	s	21	3	SIC	425	ABS	1	0	24MC	0	1	1.78841209412	None	None	None	None	1
1.7	2015_Oct_14_1556	s	s	21	3	SIC	426	RC	1	1	23MO	1	0	1.24699521065	-410.0	37.0	-406	32	1
1.7	2015_Oct_14_1556	s	s	21	3	SIC	427	RC	1	2	23MD	1	0	0.491065979004	-353.0	-229.0	-351	-231	1
1.7	2015_Oct_14_1556	s	s	21	3	SIC	428	ABS	1	1	24MO	0	1	2.57211303711	None	None	None	None	1
1.7	2015_Oct_14_1556	s	s	21	3	SIC	429	ABS	2	1	24VO	0	1	0.606324195862	None	None	None	None	1
1.7	2015_Oct_14_1556	s	s	21	3	SIC	430	RC	2	2	23VD	1	0	0.43491101265	10.0	-303.0	5	-302	1
1.7	2015_Oct_14_1556	s	s	21	3	SIC	431	ABS	0	1	24RO	0	1	2.79562091827	None	None	None	None	1
1.7	2015_Oct_14_1556	s	s	21	3	SIC	432	RC	0	2	23RD	1	0	0.524640083313	191.0	-402.0	187	-406	1
1.7	2015_Oct_14_1556	s	s	21	3	SIC	433	RC	2	2	23VD	1	0	0.418202161789	101.0	-249.0	102	-258	1
1.7	2015_Oct_14_1556	s	s	21	3	SIC	434	RC	0	2	23RD	1	0	0.505511045456	535.0	123.0	537	122	1
1.7	2015_Oct_14_1556	s	s	21	3	SIC	435	ABS	1	0	24MC	0	1	2.32991313934	None	None	None	None	1
1.7	2015_Oct_14_1556	s	s	21	3	SIC	436	RC	1	1	23MO	1	0	0.512341022491	202.0	294.0	195	302	1
1.7	2015_Oct_14_1556	s	s	21	3	SIC	437	ABS	1	1	24MO	0	1	1.44217085838	None	None	None	None	1
1.7	2015_Oct_14_1556	s	s	21	3	SIC	438	ABS	0	2	24RD	0	1	0.891319036484	None	None	None	None	1
1.7	2015_Oct_14_1556	s	s	21	3	SIC	439	RC	2	1	23VO	1	0	0.42998790741	318.0	-176.0	317	-176	1
1.7	2015_Oct_14_1556	s	s	21	3	SIC	440	ABS	2	0	24VC	0	1	0.576127052307	None	None	None	None	1
1.7	2015_Oct_14_1556	s	s	21	3	SIC	441	RC	1	2	23MD	1	0	0.58790397644	249.0	410.0	255	409	1
1.7	2015_Oct_14_1556	s	s	21	3	SIC	442	ABS	2	1	24VO	0	1	0.465748071671	None	None	None	None	1
1.7	2015_Oct_14_1556	s	s	21	3	SIC	443	ABS	2	2	24VD	0	1	0.75265789032	None	None	None	None	1
1.7	2015_Oct_14_1556	s	s	21	3	SIC	444	RC	1	0	23MC	1	0	0.800174951553	-481.0	-104.0	-484	-105	1
1.7	2015_Oct_14_1556	s	s	21	3	SIC	445	RC	0	1	23RO	0	1	3.8314769268	-469.0	209.0	None	None	0
1.7	2015_Oct_14_1556	s	s	21	3	SIC	446	ABS	1	2	24MD	0	1	0.877321004868	None	None	None	None	1
1.7	2015_Oct_14_1556	s	s	21	3	SIC	447	ABS	0	1	24RO	0	1	3.77806282043	None	None	None	None	1
1.7	2015_Oct_14_1556	s	s	21	3	SIC	448	RC	2	0	23VC	1	0	0.453624010086	-41.0	182.0	-41	181	1
1.7	2015_Oct_14_1556	s	s	21	3	SIC	449	ABS	1	1	24MO	0	1	1.7134912014	None	None	None	None	1
1.7	2015_Oct_14_1556	s	s	21	3	SIC	450	RC	1	0	23MC	1	0	0.693834066391	-436.0	264.0	-430	265	1
1.7	2015_Oct_14_1556	s	s	21	3	SIC	451	RC	2	1	23VO	1	0	0.465283155441	-12.0	-222.0	-13	-222	1
1.7	2015_Oct_14_1556	s	s	21	3	SIC	452	ABS	1	2	24MD	0	1	0.658452033997	None	None	None	None	1
1.7	2015_Oct_14_1556	s	s	21	3	SIC	453	ABS	1	0	24MC	0	1	2.05921983719	None	None	None	None	1
1.7	2015_Oct_14_1556	s	s	21	3	SIC	454	RC	0	2	23RD	1	0	0.687112092972	-289.0	-274.0	-284	-267	1
1.7	2015_Oct_14_1556	s	s	21	3	SIC	455	ABS	2	1	24VO	0	1	0.584674835205	None	None	None	None	1
1.7	2015_Oct_14_1556	s	s	21	3	SIC	456	RC	1	2	23MD	1	0	0.482012033463	-171.0	-246.0	-172	-241	1
1.7	2015_Oct_14_1556	s	s	21	3	SIC	457	ABS	0	2	24RD	0	1	1.05392003059	None	None	None	None	1
1.7	2015_Oct_14_1556	s	s	21	3	SIC	458	ABS	2	2	24VD	0	1	0.58767414093	None	None	None	None	1
1.7	2015_Oct_14_1556	s	s	21	3	SIC	459	RC	0	1	23RO	0	1	3.81948685646	-301.0	-88.0	None	None	0
1.7	2015_Oct_14_1556	s	s	21	3	SIC	460	ABS	2	0	24VC	0	1	0.811554908752	None	None	None	None	1
1.7	2015_Oct_14_1556	s	s	21	3	SIC	461	RC	2	2	23VD	1	0	0.453330039978	-470.0	-3.0	-465	-6	1
1.7	2015_Oct_14_1556	s	s	21	3	SIC	462	ABS	0	1	24RO	0	1	3.93078613281	None	None	None	None	1
1.7	2015_Oct_14_1556	s	s	21	3	SIC	463	RC	2	0	23VC	1	0	0.441762924194	334.0	195.0	332	197	1
1.7	2015_Oct_14_1556	s	s	21	3	SIC	464	RC	1	1	23MO	1	0	0.478498935699	7.0	123.0	10	123	1
1.7	2015_Oct_14_1556	s	s	21	3	SIC	465	RC	2	0	23VC	1	0	0.458426952362	-184.0	-89.0	-185	-91	1
1.7	2015_Oct_14_1556	s	s	21	3	SIC	466	RC	1	2	23MD	1	0	0.411362171173	-205.0	107.0	-197	105	1
1.7	2015_Oct_14_1556	s	s	21	3	SIC	467	ABS	0	1	24RO	0	1	3.20099496841	None	None	None	None	1
1.7	2015_Oct_14_1556	s	s	21	3	SIC	468	ABS	1	2	24MD	0	1	0.611508131027	None	None	None	None	1
1.7	2015_Oct_14_1556	s	s	21	3	SIC	469	ABS	2	1	24VO	0	1	0.971549034119	None	None	None	None	1
1.7	2015_Oct_14_1556	s	s	21	3	SIC	470	ABS	1	0	24MC	0	1	1.78596282005	None	None	None	None	1
1.7	2015_Oct_14_1556	s	s	21	3	SIC	471	ABS	2	0	24VC	0	1	0.623631954193	None	None	None	None	1
1.7	2015_Oct_14_1556	s	s	21	3	SIC	472	RC	1	0	23MC	1	0	0.823169946671	-471.0	137.0	-473	140	1
1.7	2015_Oct_14_1556	s	s	21	3	SIC	473	RC	2	1	23VO	1	0	0.411280870438	104.0	122.0	108	120	1
1.7	2015_Oct_14_1556	s	s	21	3	SIC	474	RC	0	2	23RD	1	0	0.761091947556	272.0	-336.0	277	-344	1
1.7	2015_Oct_14_1556	s	s	21	3	SIC	475	ABS	1	1	24MO	0	1	2.01809406281	None	None	None	None	1
1.7	2015_Oct_14_1556	s	s	21	3	SIC	476	RC	0	1	23RO	1	0	1.37314510345	-216.0	-111.0	-214	-117	1
1.7	2015_Oct_14_1556	s	s	21	3	SIC	477	ABS	0	2	24RD	0	1	0.735222101212	None	None	None	None	1
1.7	2015_Oct_14_1556	s	s	21	3	SIC	478	ABS	2	2	24VD	0	1	0.488745927811	None	None	None	None	1
1.7	2015_Oct_14_1556	s	s	21	3	SIC	479	RC	2	2	23VD	1	0	0.453009128571	517.0	-149.0	521	-150	1
1.7	2015_Oct_14_1556	s	s	21	3	SIC	480	RC	1	1	23MO	1	0	1.94149184227	47.0	398.0	52	393	1
1.7	2015_Oct_14_1556	s	s	21	3	SIC	481	RC	1	2	23MD	1	0	0.446590185165	-352.0	-164.0	-358	-155	1
1.7	2015_Oct_14_1556	s	s	21	3	SIC	482	ABS	1	1	24MO	0	1	1.43589806557	None	None	None	None	1
1.7	2015_Oct_14_1556	s	s	21	3	SIC	483	RC	0	2	23RD	1	0	0.535362005234	533.0	286.0	538	277	1
1.7	2015_Oct_14_1556	s	s	21	3	SIC	484	RC	2	1	23VO	1	0	0.381437063217	-32.0	211.0	-30	215	1
1.7	2015_Oct_14_1556	s	s	21	3	SIC	485	RC	2	0	23VC	1	0	0.458431005478	-513.0	-142.0	-508	-147	1
1.7	2015_Oct_14_1556	s	s	21	3	SIC	486	RC	1	0	23MC	1	0	0.879683971405	-448.0	-289.0	-444	-291	1
1.7	2015_Oct_14_1556	s	s	21	3	SIC	487	RC	1	1	23MO	1	0	0.66548705101	285.0	242.0	287	233	1
1.7	2015_Oct_14_1556	s	s	21	3	SIC	488	ABS	1	2	24MD	0	1	0.717338085175	None	None	None	None	1
1.7	2015_Oct_14_1556	s	s	21	3	SIC	489	RC	0	1	23RO	1	0	1.23273682594	175.0	335.0	177	337	1
1.7	2015_Oct_14_1556	s	s	21	3	SIC	490	ABS	1	0	24MC	0	1	1.95331192017	None	None	None	None	1
1.7	2015_Oct_14_1556	s	s	21	3	SIC	491	ABS	2	0	24VC	0	1	0.620007991791	None	None	None	None	1
1.7	2015_Oct_14_1556	s	s	21	3	SIC	492	RC	2	2	23VD	1	0	0.407934904099	-290.0	24.0	-282	20	1
1.7	2015_Oct_14_1556	s	s	21	3	SIC	493	ABS	0	2	24RD	0	1	0.959151029587	None	None	None	None	1
1.7	2015_Oct_14_1556	s	s	21	3	SIC	494	ABS	2	1	24VO	0	1	0.53599691391	None	None	None	None	1
1.7	2015_Oct_14_1556	s	s	21	3	SIC	495	ABS	0	1	24RO	0	1	2.72520899773	None	None	None	None	1
1.7	2015_Oct_14_1556	s	s	21	3	SIC	496	ABS	2	2	24VD	0	1	0.488749027252	None	None	None	None	1
1.7	2015_Oct_14_1556	s	s	21	3	SIC	497	ABS	1	1	24MO	0	1	1.32458806038	None	None	None	None	1
1.7	2015_Oct_14_1556	s	s	21	3	SIC	498	RC	1	1	23MO	1	0	0.982797145844	199.0	-183.0	198	-185	1
1.7	2015_Oct_14_1556	s	s	21	3	SIC	499	ABS	0	1	24RO	0	1	2.65952014923	None	None	None	None	1
1.7	2015_Oct_14_1556	s	s	21	3	SIC	500	RC	0	2	23RD	1	0	0.713516950607	165.0	334.0	176	338	1
1.7	2015_Oct_14_1556	s	s	21	3	SIC	501	ABS	1	2	24MD	0	1	0.682095050812	None	None	None	None	1
1.7	2015_Oct_14_1556	s	s	21	3	SIC	502	RC	2	0	23VC	1	0	0.45846414566	-446.0	147.0	-446	143	1
1.7	2015_Oct_14_1556	s	s	21	3	SIC	503	RC	0	1	23RO	1	0	2.55367994308	533.0	-388.0	535	-381	1
1.7	2015_Oct_14_1556	s	s	21	3	SIC	504	ABS	2	0	24VC	0	1	0.526474952698	None	None	None	None	1
1.7	2015_Oct_14_1556	s	s	21	3	SIC	505	RC	2	1	23VO	1	0	0.470165014267	-38.0	305.0	-44	304	1
1.7	2015_Oct_14_1556	s	s	21	3	SIC	506	ABS	0	2	24RD	0	1	0.926770210266	None	None	None	None	1
1.7	2015_Oct_14_1556	s	s	21	3	SIC	507	ABS	2	1	24VO	0	1	0.54781293869	None	None	None	None	1
1.7	2015_Oct_14_1556	s	s	21	3	SIC	508	RC	2	2	23VD	1	0	0.523270845413	395.0	-44.0	397	-45	1
1.7	2015_Oct_14_1556	s	s	21	3	SIC	509	RC	1	2	23MD	1	0	0.529052972794	-76.0	393.0	-71	393	1
1.7	2015_Oct_14_1556	s	s	21	3	SIC	510	ABS	2	2	24VD	0	1	0.512293100357	None	None	None	None	1
1.7	2015_Oct_14_1556	s	s	21	3	SIC	511	RC	1	0	23MC	1	0	0.49370098114	149.0	227.0	149	229	1
1.7	2015_Oct_14_1556	s	s	21	3	SIC	512	ABS	1	0	24MC	0	1	1.99557089806	None	None	None	None	1
1.7	2015_Oct_14_1556	s	s	21	3	SIC	513	ABS	1	1	24MO	0	1	1.6774790287	None	None	None	None	1
1.7	2015_Oct_14_1556	s	s	21	3	SIC	514	ABS	2	2	24VD	0	1	0.465875148773	None	None	None	None	1
1.7	2015_Oct_14_1556	s	s	21	3	SIC	515	ABS	1	2	24MD	0	1	0.748329877853	None	None	None	None	1
1.7	2015_Oct_14_1556	s	s	21	3	SIC	516	RC	2	1	23VO	1	0	0.470149993896	279.0	-313.0	279	-317	1
1.7	2015_Oct_14_1556	s	s	21	3	SIC	517	ABS	2	0	24VC	0	1	0.47017621994	None	None	None	None	1
1.7	2015_Oct_14_1556	s	s	21	3	SIC	518	ABS	2	1	24VO	0	1	0.481961965561	None	None	None	None	1
1.7	2015_Oct_14_1556	s	s	21	3	SIC	519	RC	2	0	23VC	1	0	0.408023118973	-330.0	-81.0	-328	-78	1
1.7	2015_Oct_14_1556	s	s	21	3	SIC	520	RC	1	2	23MD	1	0	0.591623067856	33.0	-315.0	32	-318	1
1.7	2015_Oct_14_1556	s	s	21	3	SIC	521	RC	0	1	23RO	1	0	2.87137794495	-501.0	68.0	-508	66	1
1.7	2015_Oct_14_1556	s	s	21	3	SIC	522	ABS	0	2	24RD	0	1	0.771143198013	None	None	None	None	1
1.7	2015_Oct_14_1556	s	s	21	3	SIC	523	ABS	0	1	24RO	0	1	3.80821299553	None	None	None	None	1
1.7	2015_Oct_14_1556	s	s	21	3	SIC	524	RC	1	0	23MC	1	0	0.971716880798	344.0	-251.0	349	-247	1
1.7	2015_Oct_14_1556	s	s	21	3	SIC	525	RC	0	2	23RD	1	0	0.55252790451	448.0	62.0	449	63	1
1.7	2015_Oct_14_1556	s	s	21	3	SIC	526	RC	2	2	23VD	1	0	0.39953494072	-438.0	-146.0	-444	-144	1
1.7	2015_Oct_14_1556	s	s	21	3	SIC	527	ABS	1	0	24MC	0	1	1.57177400589	None	None	None	None	1
1.7	2015_Oct_14_1556	s	s	21	3	SIC	528	RC	1	1	23MO	1	0	0.912613153458	302.0	353.0	304	353	1
1.7	2015_Oct_14_1556	s	s	21	3	SIC	529	RC	2	0	23VC	1	0	0.399741172791	-432.0	137.0	-429	136	1
1.7	2015_Oct_14_1556	s	s	21	3	SIC	530	RC	2	1	23VO	1	0	0.394526004791	-15.0	401.0	-9	393	1
1.7	2015_Oct_14_1556	s	s	21	3	SIC	531	ABS	1	0	24MC	0	1	1.79490804672	None	None	None	None	1
1.7	2015_Oct_14_1556	s	s	21	3	SIC	532	ABS	1	2	24MD	0	1	0.67725610733	None	None	None	None	1
1.7	2015_Oct_14_1556	s	s	21	3	SIC	533	RC	1	0	23MC	0	1	1.2071211338	-524.0	401.0	None	None	0
1.7	2015_Oct_14_1556	s	s	21	3	SIC	534	RC	1	2	23MD	1	0	0.441128969193	-208.0	-48.0	-205	-50	1
1.7	2015_Oct_14_1556	s	s	21	3	SIC	535	ABS	1	1	24MO	0	1	2.16004490852	None	None	None	None	1
1.7	2015_Oct_14_1556	s	s	21	3	SIC	536	ABS	0	2	24RD	0	1	0.676938056946	None	None	None	None	1
1.7	2015_Oct_14_1556	s	s	21	3	SIC	537	ABS	2	0	24VC	0	1	0.499995946884	None	None	None	None	1
1.7	2015_Oct_14_1556	s	s	21	3	SIC	538	RC	0	2	23RD	1	0	0.481961965561	-328.0	-93.0	-328	-98	1
1.7	2015_Oct_14_1556	s	s	21	3	SIC	539	ABS	2	1	24VO	0	1	0.548138141632	None	None	None	None	1
1.7	2015_Oct_14_1556	s	s	21	3	SIC	540	RC	1	1	23MO	1	0	1.40006899834	-395.0	230.0	-394	235	1
1.7	2015_Oct_14_1556	s	s	21	3	SIC	541	ABS	2	2	24VD	0	1	0.477107048035	None	None	None	None	1
1.7	2015_Oct_14_1556	s	s	21	3	SIC	542	ABS	0	1	24RO	0	1	3.57763409615	None	None	None	None	1
1.7	2015_Oct_14_1556	s	s	21	3	SIC	543	RC	0	1	23RO	0	1	2.82419300079	501.0	-2.0	None	None	0
1.7	2015_Oct_14_1556	s	s	21	3	SIC	544	RC	2	2	23VD	1	0	0.487892866135	178.0	-26.0	175	-27	1
1.7	2015_Oct_14_1556	s	s	21	3	SIC	545	RC	0	1	23RO	1	0	2.13689899445	158.0	300.0	159	306	1
1.7	2015_Oct_14_1556	s	s	21	3	SIC	546	RC	1	2	23MD	1	0	0.712432146072	168.0	168.0	166	168	1
1.7	2015_Oct_14_1556	s	s	21	3	SIC	547	ABS	0	1	24RO	0	1	3.00088310242	None	None	None	None	1
1.7	2015_Oct_14_1556	s	s	21	3	SIC	548	RC	0	2	23RD	1	0	0.717326879501	-328.0	31.0	-323	27	1
1.7	2015_Oct_14_1556	s	s	21	3	SIC	549	RC	2	0	23VC	1	0	0.489000082016	-127.0	62.0	-126	65	1
1.7	2015_Oct_14_1556	s	s	21	3	SIC	550	ABS	2	2	24VD	0	1	0.948848009109	None	None	None	None	1
1.7	2015_Oct_14_1556	s	s	21	3	SIC	551	ABS	2	0	24VC	0	1	0.77666592598	None	None	None	None	1
1.7	2015_Oct_14_1556	s	s	21	3	SIC	552	ABS	2	1	24VO	0	1	0.576132059097	None	None	None	None	1
1.7	2015_Oct_14_1556	s	s	21	3	SIC	553	ABS	1	0	24MC	0	1	1.65580201149	None	None	None	None	1
1.7	2015_Oct_14_1556	s	s	21	3	SIC	554	RC	2	1	23VO	1	0	0.488916158676	304.0	-287.0	306	-296	1
1.7	2015_Oct_14_1556	s	s	21	3	SIC	555	ABS	0	2	24RD	0	1	0.832174062729	None	None	None	None	1
1.7	2015_Oct_14_1556	s	s	21	3	SIC	556	ABS	1	2	24MD	0	1	0.629312992096	None	None	None	None	1
1.7	2015_Oct_14_1556	s	s	21	3	SIC	557	RC	2	2	23VD	1	0	0.477185964584	-535.0	83.0	-533	84	1
1.7	2015_Oct_14_1556	s	s	21	3	SIC	558	RC	1	0	23MC	1	0	0.53591799736	-25.0	220.0	-20	211	1
1.7	2015_Oct_14_1556	s	s	21	3	SIC	559	RC	1	1	23MO	1	0	0.699620008469	122.0	382.0	122	374	1
1.7	2015_Oct_14_1556	s	s	21	3	SIC	560	ABS	1	1	24MO	0	1	2.15381598473	None	None	None	None	1
1.7	2015_Oct_14_1556	s	s	21	3	SIC	561	RC	2	2	23VD	1	0	0.494122028351	216.0	-257.0	213	-254	1
1.7	2015_Oct_14_1556	s	s	21	3	SIC	562	ABS	1	1	24MO	0	1	1.57663106918	None	None	None	None	1
1.7	2015_Oct_14_1556	s	s	21	3	SIC	563	RC	1	2	23MD	1	0	0.559421062469	490.0	-84.0	496	-87	1
1.7	2015_Oct_14_1556	s	s	21	3	SIC	564	ABS	0	1	24RO	0	1	4.31658291817	None	None	None	None	1
1.7	2015_Oct_14_1556	s	s	21	3	SIC	565	ABS	1	0	24MC	0	1	2.18867301941	None	None	None	None	1
1.7	2015_Oct_14_1556	s	s	21	3	SIC	566	ABS	1	2	24MD	0	1	0.749727010727	None	None	None	None	1
1.7	2015_Oct_14_1556	s	s	21	3	SIC	567	RC	1	1	23MO	1	0	0.693834066391	-185.0	52.0	-185	48	1
1.7	2015_Oct_14_1556	s	s	21	3	SIC	568	RC	0	1	23RO	1	0	3.80126404762	250.0	-134.0	254	-136	1
1.7	2015_Oct_14_1556	s	s	21	3	SIC	569	RC	2	0	23VC	1	0	0.455140113831	-223.0	-302.0	-216	-304	1
1.7	2015_Oct_14_1556	s	s	21	3	SIC	570	ABS	2	2	24VD	0	1	0.514039039612	None	None	None	None	1
1.7	2015_Oct_14_1556	s	s	21	3	SIC	571	RC	0	2	23RD	1	0	0.465389966965	4.0	196.0	1	202	1
1.7	2015_Oct_14_1556	s	s	21	3	SIC	572	ABS	0	2	24RD	0	1	0.867724895477	None	None	None	None	1
1.7	2015_Oct_14_1556	s	s	21	3	SIC	573	RC	2	1	23VO	1	0	0.419877052307	146.0	313.0	145	307	1
1.7	2015_Oct_14_1556	s	s	21	3	SIC	574	ABS	2	0	24VC	0	1	0.830273151398	None	None	None	None	1
1.7	2015_Oct_14_1556	s	s	21	3	SIC	575	ABS	2	1	24VO	0	1	0.53515291214	None	None	None	None	1
1.7	2015_Oct_14_1556	s	s	21	3	SIC	576	RC	1	0	23MC	1	0	0.564612865448	227.0	-88.0	228	-92	1
1.7	2015_Oct_14_1556	s	s	21	3	SIC	577	RC	1	0	23MC	1	0	1.05549812317	-14.0	-320.0	-11	-331	1
1.7	2015_Oct_14_1556	s	s	21	3	SIC	578	RC	2	2	23VD	1	0	0.47704410553	359.0	-317.0	363	-325	1
1.7	2015_Oct_14_1556	s	s	21	3	SIC	579	ABS	0	2	24RD	0	1	0.88218998909	None	None	None	None	1
1.7	2015_Oct_14_1556	s	s	21	3	SIC	580	RC	2	1	23VO	1	0	0.434886932373	475.0	-17.0	466	-16	1
1.7	2015_Oct_14_1556	s	s	21	3	SIC	581	ABS	1	2	24MD	0	1	0.576133966446	None	None	None	None	1
1.7	2015_Oct_14_1556	s	s	21	3	SIC	582	ABS	1	1	24MO	0	1	1.12428593636	None	None	None	None	1
1.7	2015_Oct_14_1556	s	s	21	3	SIC	583	ABS	2	1	24VO	0	1	0.512461900711	None	None	None	None	1
1.7	2015_Oct_14_1556	s	s	21	3	SIC	584	RC	1	1	23MO	1	0	0.924314022064	-147.0	-291.0	-153	-297	1
1.7	2015_Oct_14_1556	s	s	21	3	SIC	585	RC	0	1	23RO	0	1	2.03571891785	417.0	189.0	None	None	0
1.7	2015_Oct_14_1556	s	s	21	3	SIC	586	ABS	2	2	24VD	0	1	0.517259120941	None	None	None	None	1
1.7	2015_Oct_14_1556	s	s	21	3	SIC	587	RC	1	2	23MD	1	0	0.512960910797	-9.0	-149.0	-5	-153	1
1.7	2015_Oct_14_1556	s	s	21	3	SIC	588	RC	0	2	23RD	1	0	0.491168022156	137.0	212.0	134	207	1
1.7	2015_Oct_14_1556	s	s	21	3	SIC	589	ABS	0	1	24RO	0	1	3.47833013535	None	None	None	None	1
1.7	2015_Oct_14_1556	s	s	21	3	SIC	590	RC	2	0	23VC	1	0	0.387756109238	249.0	394.0	247	396	1
1.7	2015_Oct_14_1556	s	s	21	3	SIC	591	ABS	2	0	24VC	0	1	0.524319171906	None	None	None	None	1
1.7	2015_Oct_14_1556	s	s	21	3	SIC	592	ABS	1	0	24MC	0	1	1.456346035	None	None	None	None	1
