Version	Date	Stimuli	Method	Subject	Session	Condition	Trial	Target	Channel1	Channel2	Distractors	LMouseButton	RMouseButton	RT	TargetX	TargetY	ResponseX	ResponseY	Correct
1.7	2015_Oct_12_1339	s	s	21	1	Capacity	1	ABS	1	0	24MC	1	0	1.16045117378	None	None	294	-13	0
1.7	2015_Oct_12_1339	s	s	21	1	Capacity	2	RC	1	0	23MC	0	1	2.37165403366	179.0	-278.0	None	None	0
1.7	2015_Oct_12_1339	s	s	21	1	Capacity	3	RC	2	0	23VC	1	0	0.749486923218	177.0	-96.0	173	-94	1
1.7	2015_Oct_12_1339	s	s	21	1	Capacity	4	ABS	2	0	24VC	0	1	1.41875600815	None	None	None	None	1
1.7	2015_Oct_12_1339	s	s	21	1	Capacity	5	ABS	1	0	24MC	0	1	2.61243891716	None	None	None	None	1
1.7	2015_Oct_12_1339	s	s	21	1	Capacity	6	ABS	2	0	24VC	0	1	1.88261914253	None	None	None	None	1
1.7	2015_Oct_12_1339	s	s	21	1	Capacity	7	RC	2	0	23VC	1	0	0.653517007828	90.0	-5.0	90	-2	1
1.7	2015_Oct_12_1339	s	s	21	1	Capacity	8	RC	1	0	23MC	0	1	2.26534318924	219.0	-273.0	None	None	0
1.7	2015_Oct_12_1339	s	s	21	1	Capacity	9	RC	1	0	23MC	0	1	2.56528782845	505.0	-226.0	None	None	0
1.7	2015_Oct_12_1339	s	s	21	1	Capacity	10	RC	2	0	23VC	1	0	0.734970092773	-43.0	-119.0	-39	-127	1
1.7	2015_Oct_12_1339	s	s	21	1	Capacity	11	ABS	1	0	24MC	0	1	3.67179107666	None	None	None	None	1
1.7	2015_Oct_12_1339	s	s	21	1	Capacity	12	ABS	2	0	24VC	0	1	1.74804878235	None	None	None	None	1
1.7	2015_Oct_12_1339	s	s	21	1	Capacity	13	RC	1	0	23MC	1	0	5.12640190125	55.0	305.0	60	301	1
1.7	2015_Oct_12_1339	s	s	21	1	Capacity	14	ABS	2	0	24VC	0	1	2.36509203911	None	None	None	None	1
1.7	2015_Oct_12_1339	s	s	21	1	Capacity	15	RC	2	0	23VC	1	0	1.03542113304	-74.0	-296.0	-69	-295	1
1.7	2015_Oct_12_1339	s	s	21	1	Capacity	16	ABS	1	0	24MC	1	0	5.90851998329	None	None	277	327	0
1.7	2015_Oct_12_1339	s	s	21	1	Capacity	17	ABS	2	0	24VC	0	1	1.83555793762	None	None	None	None	1
1.7	2015_Oct_12_1339	s	s	21	1	Capacity	18	RC	1	0	23MC	1	0	1.24195504189	29.0	195.0	27	189	1
1.7	2015_Oct_12_1339	s	s	21	1	Capacity	19	RC	2	0	23VC	1	0	0.952790975571	-524.0	-38.0	-521	-42	1
1.7	2015_Oct_12_1339	s	s	21	1	Capacity	20	ABS	1	0	24MC	0	1	7.11807799339	None	None	None	None	1
1.7	2015_Oct_12_1339	s	s	21	1	Capacity	21	RC	2	0	23VC	1	0	0.701076030731	-510.0	-7.0	-511	-7	1
1.7	2015_Oct_12_1339	s	s	21	1	Capacity	22	ABS	2	0	24VC	0	1	1.86599707603	None	None	None	None	1
1.7	2015_Oct_12_1339	s	s	21	1	Capacity	23	ABS	1	0	24MC	0	1	8.52869796753	None	None	None	None	1
1.7	2015_Oct_12_1339	s	s	21	1	Capacity	24	RC	1	0	23MC	0	1	7.80322909355	507.0	-297.0	None	None	0
1.7	2015_Oct_12_1339	s	s	21	1	Capacity	25	ABS	1	0	24MC	0	1	7.36266589165	None	None	None	None	1
1.7	2015_Oct_12_1339	s	s	21	1	Capacity	26	RC	2	0	23VC	1	0	0.665426969528	-76.0	95.0	-74	97	1
1.7	2015_Oct_12_1339	s	s	21	1	Capacity	27	RC	1	0	23MC	1	0	3.66678190231	-145.0	-340.0	-144	-346	1
1.7	2015_Oct_12_1339	s	s	21	1	Capacity	28	ABS	2	0	24VC	0	1	1.58836317062	None	None	None	None	1
1.7	2015_Oct_12_1339	s	s	21	1	Capacity	29	ABS	2	0	24VC	0	1	1.7600581646	None	None	None	None	1
1.7	2015_Oct_12_1339	s	s	21	1	Capacity	30	RC	1	0	23MC	1	0	3.76598191261	-508.0	312.0	-512	312	1
1.7	2015_Oct_12_1339	s	s	21	1	Capacity	31	ABS	1	0	24MC	0	1	7.27356791496	None	None	None	None	1
1.7	2015_Oct_12_1339	s	s	21	1	Capacity	32	RC	2	0	23VC	1	0	0.839878082275	-535.0	-195.0	-534	-194	1
1.7	2015_Oct_12_1339	s	s	21	1	Capacity	33	RC	2	0	23VC	1	0	0.897605895996	167.0	251.0	171	248	1
1.7	2015_Oct_12_1339	s	s	21	1	Capacity	34	RC	1	0	23MC	1	0	1.42092013359	8.0	-41.0	9	-42	1
1.7	2015_Oct_12_1339	s	s	21	1	Capacity	35	ABS	2	0	24VC	0	1	1.98417592049	None	None	None	None	1
1.7	2015_Oct_12_1339	s	s	21	1	Capacity	36	ABS	1	0	24MC	0	1	8.80374503136	None	None	None	None	1
1.7	2015_Oct_12_1339	s	s	21	1	Capacity	37	ABS	2	0	24VC	0	1	1.60011196136	None	None	None	None	1
1.7	2015_Oct_12_1339	s	s	21	1	Capacity	38	ABS	1	0	24MC	0	1	8.93323302269	None	None	None	None	1
1.7	2015_Oct_12_1339	s	s	21	1	Capacity	39	RC	2	0	23VC	1	0	1.1495218277	314.0	-391.0	312	-393	1
1.7	2015_Oct_12_1339	s	s	21	1	Capacity	40	RC	1	0	23MC	1	0	7.9209728241	-127.0	-412.0	-398	209	0
1.7	2015_Oct_12_1339	s	s	21	1	Capacity	41	ABS	1	0	24MC	1	0	3.39781403542	None	None	391	394	0
1.7	2015_Oct_12_1339	s	s	21	1	Capacity	42	RC	2	0	23VC	1	0	1.00666379929	108.0	-318.0	108	-324	1
1.7	2015_Oct_12_1339	s	s	21	1	Capacity	43	ABS	2	0	24VC	0	1	4.75206398964	None	None	None	None	1
1.7	2015_Oct_12_1339	s	s	21	1	Capacity	44	RC	1	0	23MC	1	0	2.77722716331	-474.0	313.0	-364	340	0
1.7	2015_Oct_12_1339	s	s	21	1	Capacity	45	RC	2	0	23VC	1	0	0.752635955811	-400.0	51.0	-392	46	1
1.7	2015_Oct_12_1339	s	s	21	1	Capacity	46	RC	1	0	23MC	1	0	2.47800087929	-445.0	-166.0	-446	-159	1
1.7	2015_Oct_12_1339	s	s	21	1	Capacity	47	ABS	1	0	24MC	1	0	10.2279798985	None	None	-286	376	0
1.7	2015_Oct_12_1339	s	s	21	1	Capacity	48	ABS	2	0	24VC	0	1	2.70153307915	None	None	None	None	1
1.7	2015_Oct_12_1339	s	s	21	1	Capacity	49	RC	1	0	23MC	0	1	8.37988996506	-252.0	-393.0	None	None	0
1.7	2015_Oct_12_1339	s	s	21	1	Capacity	50	ABS	2	0	24VC	0	1	1.81954598427	None	None	None	None	1
1.7	2015_Oct_12_1339	s	s	21	1	Capacity	51	RC	2	0	23VC	1	0	1.02382588387	304.0	-174.0	306	-175	1
1.7	2015_Oct_12_1339	s	s	21	1	Capacity	52	ABS	1	0	24MC	0	1	9.77587008476	None	None	None	None	1
1.7	2015_Oct_12_1339	s	s	21	1	Capacity	53	ABS	1	0	24MC	0	1	5.63417291641	None	None	None	None	1
1.7	2015_Oct_12_1339	s	s	21	1	Capacity	54	ABS	2	0	24VC	0	1	1.55975294113	None	None	None	None	1
1.7	2015_Oct_12_1339	s	s	21	1	Capacity	55	RC	2	0	23VC	1	0	0.971241950989	481.0	-226.0	489	-228	1
1.7	2015_Oct_12_1339	s	s	21	1	Capacity	56	RC	1	0	23MC	1	0	1.19998693466	512.0	323.0	516	313	1
1.7	2015_Oct_12_1339	s	s	21	1	Capacity	57	RC	2	0	23VC	1	0	0.830643892288	-400.0	-16.0	-402	-22	1
1.7	2015_Oct_12_1339	s	s	21	1	Capacity	58	ABS	2	0	24VC	0	1	1.11270499229	None	None	None	None	1
1.7	2015_Oct_12_1339	s	s	21	1	Capacity	59	RC	1	0	23MC	1	0	1.62371897697	259.0	-104.0	252	-100	1
1.7	2015_Oct_12_1339	s	s	21	1	Capacity	60	ABS	1	0	24MC	0	1	3.69529700279	None	None	None	None	1
1.7	2015_Oct_12_1339	s	s	21	1	Capacity	61	ABS	1	0	24MC	1	0	3.25984096527	None	None	456	-326	0
1.7	2015_Oct_12_1339	s	s	21	1	Capacity	62	RC	2	0	23VC	1	0	0.843539953232	-270.0	328.0	-267	329	1
1.7	2015_Oct_12_1339	s	s	21	1	Capacity	63	RC	1	0	23MC	0	1	3.53061008453	455.0	-228.0	None	None	0
1.7	2015_Oct_12_1339	s	s	21	1	Capacity	64	ABS	2	0	24VC	0	1	1.88897585869	None	None	None	None	1
1.7	2015_Oct_12_1339	s	s	21	1	Capacity	65	RC	1	0	23MC	1	0	0.829916000366	110.0	-48.0	113	-51	1
1.7	2015_Oct_12_1339	s	s	21	1	Capacity	66	RC	2	0	23VC	1	0	0.700543880463	201.0	-261.0	198	-273	1
1.7	2015_Oct_12_1339	s	s	21	1	Capacity	67	ABS	2	0	24VC	0	1	1.1832690239	None	None	None	None	1
1.7	2015_Oct_12_1339	s	s	21	1	Capacity	68	ABS	1	0	24MC	0	1	4.41999292374	None	None	None	None	1
1.7	2015_Oct_12_1339	s	s	21	1	Capacity	69	ABS	2	0	24VC	0	1	1.23268795013	None	None	None	None	1
1.7	2015_Oct_12_1339	s	s	21	1	Capacity	70	RC	1	0	23MC	0	1	4.99698710442	-29.0	286.0	None	None	0
1.7	2015_Oct_12_1339	s	s	21	1	Capacity	71	RC	2	0	23VC	1	0	0.678800821304	360.0	154.0	358	155	1
1.7	2015_Oct_12_1339	s	s	21	1	Capacity	72	ABS	1	0	24MC	0	1	7.22646808624	None	None	None	None	1
1.7	2015_Oct_12_1339	s	s	21	1	Capacity	73	RC	2	0	23VC	1	0	0.787974834442	-507.0	379.0	-504	374	1
1.7	2015_Oct_12_1339	s	s	21	1	Capacity	74	RC	1	0	23MC	1	0	2.30650186539	-476.0	-67.0	299	269	0
1.7	2015_Oct_12_1339	s	s	21	1	Capacity	75	ABS	2	0	24VC	0	1	1.91402888298	None	None	None	None	1
1.7	2015_Oct_12_1339	s	s	21	1	Capacity	76	ABS	1	0	24MC	0	1	7.03215312958	None	None	None	None	1
1.7	2015_Oct_12_1339	s	s	21	1	Capacity	77	RC	1	0	23MC	1	0	1.35044407845	429.0	-25.0	427	-27	1
1.7	2015_Oct_12_1339	s	s	21	1	Capacity	78	ABS	1	0	24MC	0	1	4.84887290001	None	None	None	None	1
1.7	2015_Oct_12_1339	s	s	21	1	Capacity	79	RC	2	0	23VC	1	0	0.568083047867	145.0	291.0	151	286	1
1.7	2015_Oct_12_1339	s	s	21	1	Capacity	80	ABS	2	0	24VC	0	1	1.19506311417	None	None	None	None	1
1.7	2015_Oct_12_1339	s	s	21	1	Capacity	81	ABS	1	0	24MC	0	1	3.71398711205	None	None	None	None	1
1.7	2015_Oct_12_1339	s	s	21	1	Capacity	82	RC	1	0	23MC	1	0	0.867727041245	214.0	123.0	211	123	1
1.7	2015_Oct_12_1339	s	s	21	1	Capacity	83	RC	2	0	23VC	1	0	0.576133012772	-486.0	-124.0	-483	-127	1
1.7	2015_Oct_12_1339	s	s	21	1	Capacity	84	ABS	2	0	24VC	0	1	1.18815207481	None	None	None	None	1
1.7	2015_Oct_12_1339	s	s	21	1	Capacity	85	ABS	2	0	24VC	0	1	1.23526287079	None	None	None	None	1
1.7	2015_Oct_12_1339	s	s	21	1	Capacity	86	ABS	1	0	24MC	0	1	3.90724992752	None	None	None	None	1
1.7	2015_Oct_12_1339	s	s	21	1	Capacity	87	RC	1	0	23MC	1	0	3.74237990379	457.0	-197.0	460	-203	1
1.7	2015_Oct_12_1339	s	s	21	1	Capacity	88	RC	2	0	23VC	1	0	0.729151964188	255.0	396.0	262	389	1
1.7	2015_Oct_12_1339	s	s	21	1	Capacity	89	ABS	1	0	24MC	0	1	3.48348593712	None	None	None	None	1
1.7	2015_Oct_12_1339	s	s	21	1	Capacity	90	ABS	2	0	24VC	0	1	1.18820619583	None	None	None	None	1
1.7	2015_Oct_12_1339	s	s	21	1	Capacity	91	RC	2	0	23VC	1	0	0.693815946579	83.0	309.0	83	307	1
1.7	2015_Oct_12_1339	s	s	21	1	Capacity	92	RC	1	0	23MC	1	0	0.758970975876	207.0	-6.0	209	-7	1
1.7	2015_Oct_12_1339	s	s	21	1	Capacity	1	RC	0	1	23RO	1	0	1.24696493149	226.0	287.0	232	281	1
1.7	2015_Oct_12_1339	s	s	21	1	Capacity	2	ABS	0	1	24RO	0	1	3.58447790146	None	None	None	None	1
1.7	2015_Oct_12_1339	s	s	21	1	Capacity	3	RC	0	2	23RD	1	0	1.95331788063	475.0	-370.0	478	-369	1
1.7	2015_Oct_12_1339	s	s	21	1	Capacity	4	ABS	0	2	24RD	0	1	1.65903902054	None	None	None	None	1
1.7	2015_Oct_12_1339	s	s	21	1	Capacity	5	ABS	0	2	24RD	0	1	1.85408306122	None	None	None	None	1
1.7	2015_Oct_12_1339	s	s	21	1	Capacity	6	ABS	0	1	24RO	0	1	4.97842288017	None	None	None	None	1
1.7	2015_Oct_12_1339	s	s	21	1	Capacity	7	RC	0	2	23RD	1	0	0.664462804794	321.0	-48.0	319	-50	1
1.7	2015_Oct_12_1339	s	s	21	1	Capacity	8	RC	0	1	23RO	1	0	1.41762804985	-112.0	219.0	-111	223	1
1.7	2015_Oct_12_1339	s	s	21	1	Capacity	9	RC	0	1	23RO	1	0	2.74843001366	475.0	-362.0	474	-366	1
1.7	2015_Oct_12_1339	s	s	21	1	Capacity	10	ABS	0	2	24RD	0	1	2.73013997078	None	None	None	None	1
1.7	2015_Oct_12_1339	s	s	21	1	Capacity	11	ABS	0	1	24RO	0	1	4.08381295204	None	None	None	None	1
1.7	2015_Oct_12_1339	s	s	21	1	Capacity	12	RC	0	2	23RD	1	0	0.691205978394	4.0	184.0	15	190	1
1.7	2015_Oct_12_1339	s	s	21	1	Capacity	13	RC	0	2	23RD	1	0	0.794893980026	228.0	375.0	223	376	1
1.7	2015_Oct_12_1339	s	s	21	1	Capacity	14	RC	0	1	23RO	0	1	3.38436198235	-41.0	341.0	None	None	0
1.7	2015_Oct_12_1339	s	s	21	1	Capacity	15	ABS	0	1	24RO	0	1	3.82479500771	None	None	None	None	1
1.7	2015_Oct_12_1339	s	s	21	1	Capacity	16	ABS	0	2	24RD	0	1	2.56534099579	None	None	None	None	1
1.7	2015_Oct_12_1339	s	s	21	1	Capacity	17	RC	0	2	23RD	1	0	0.946964025497	-517.0	-284.0	-518	-290	1
1.7	2015_Oct_12_1339	s	s	21	1	Capacity	18	RC	0	1	23RO	1	0	2.25976014137	-157.0	298.0	-165	306	1
1.7	2015_Oct_12_1339	s	s	21	1	Capacity	19	ABS	0	2	24RD	0	1	2.16513299942	None	None	None	None	1
1.7	2015_Oct_12_1339	s	s	21	1	Capacity	20	ABS	0	1	24RO	0	1	4.0837829113	None	None	None	None	1
1.7	2015_Oct_12_1339	s	s	21	1	Capacity	21	RC	0	1	23RO	1	0	1.21843695641	194.0	177.0	199	182	1
1.7	2015_Oct_12_1339	s	s	21	1	Capacity	22	ABS	0	2	24RD	0	1	1.91527104378	None	None	None	None	1
1.7	2015_Oct_12_1339	s	s	21	1	Capacity	23	RC	0	2	23RD	1	0	0.736392021179	-493.0	11.0	-489	9	1
1.7	2015_Oct_12_1339	s	s	21	1	Capacity	24	ABS	0	1	24RO	0	1	5.00183486938	None	None	None	None	1
1.7	2015_Oct_12_1339	s	s	21	1	Capacity	25	RC	0	2	23RD	1	0	0.935128927231	185.0	-353.0	183	-360	1
1.7	2015_Oct_12_1339	s	s	21	1	Capacity	26	ABS	0	2	24RD	0	1	2.71839499474	None	None	None	None	1
1.7	2015_Oct_12_1339	s	s	21	1	Capacity	27	ABS	0	1	24RO	0	1	5.72355604172	None	None	None	None	1
1.7	2015_Oct_12_1339	s	s	21	1	Capacity	28	RC	0	1	23RO	1	0	1.08225822449	-152.0	214.0	-147	218	1
1.7	2015_Oct_12_1339	s	s	21	1	Capacity	29	ABS	0	2	24RD	0	1	2.44769406319	None	None	None	None	1
1.7	2015_Oct_12_1339	s	s	21	1	Capacity	30	RC	0	1	23RO	1	0	1.26792788506	465.0	172.0	464	178	1
1.7	2015_Oct_12_1339	s	s	21	1	Capacity	31	RC	0	2	23RD	1	0	1.13665103912	-495.0	163.0	-501	162	1
1.7	2015_Oct_12_1339	s	s	21	1	Capacity	32	ABS	0	1	24RO	0	1	4.24882602692	None	None	None	None	1
1.7	2015_Oct_12_1339	s	s	21	1	Capacity	33	RC	0	2	23RD	1	0	1.80395698547	-342.0	-377.0	-340	-377	1
1.7	2015_Oct_12_1339	s	s	21	1	Capacity	34	ABS	0	1	24RO	0	1	3.5259411335	None	None	None	None	1
1.7	2015_Oct_12_1339	s	s	21	1	Capacity	35	ABS	0	2	24RD	1	0	1.74835991859	None	None	-99	-95	0
1.7	2015_Oct_12_1339	s	s	21	1	Capacity	36	RC	0	1	23RO	1	0	2.45297193527	-186.0	381.0	-185	376	1
1.7	2015_Oct_12_1339	s	s	21	1	Capacity	37	RC	0	2	23RD	1	0	0.923448801041	-25.0	-298.0	-23	-304	1
1.7	2015_Oct_12_1339	s	s	21	1	Capacity	38	RC	0	1	23RO	1	0	3.22013306618	-510.0	-292.0	-513	-294	1
1.7	2015_Oct_12_1339	s	s	21	1	Capacity	39	ABS	0	2	24RD	0	1	2.43319296837	None	None	None	None	1
1.7	2015_Oct_12_1339	s	s	21	1	Capacity	40	ABS	0	1	24RO	0	1	3.56099891663	None	None	None	None	1
1.7	2015_Oct_12_1339	s	s	21	1	Capacity	41	ABS	0	1	24RO	0	1	4.20147800446	None	None	None	None	1
1.7	2015_Oct_12_1339	s	s	21	1	Capacity	42	ABS	0	2	24RD	0	1	1.764991045	None	None	None	None	1
1.7	2015_Oct_12_1339	s	s	21	1	Capacity	43	RC	0	2	23RD	1	0	0.858559846878	-399.0	-278.0	-391	-273	1
1.7	2015_Oct_12_1339	s	s	21	1	Capacity	44	RC	0	1	23RO	1	0	1.05264997482	-523.0	-363.0	-521	-363	1
1.7	2015_Oct_12_1339	s	s	21	1	Capacity	45	RC	0	1	23RO	1	0	3.07146596909	220.0	-132.0	225	-128	1
1.7	2015_Oct_12_1339	s	s	21	1	Capacity	46	RC	0	2	23RD	1	0	0.693806171417	-104.0	-175.0	-106	-179	1
1.7	2015_Oct_12_1339	s	s	21	1	Capacity	47	ABS	0	1	24RO	0	1	3.89245605469	None	None	None	None	1
1.7	2015_Oct_12_1339	s	s	21	1	Capacity	48	ABS	0	2	24RD	0	1	2.05649709702	None	None	None	None	1
1.7	2015_Oct_12_1339	s	s	21	1	Capacity	49	ABS	0	1	24RO	0	1	3.87183499336	None	None	None	None	1
1.7	2015_Oct_12_1339	s	s	21	1	Capacity	50	RC	0	1	23RO	0	1	6.06800889969	414.0	382.0	None	None	0
1.7	2015_Oct_12_1339	s	s	21	1	Capacity	51	RC	0	2	23RD	1	0	0.86230301857	-392.0	341.0	-392	342	1
1.7	2015_Oct_12_1339	s	s	21	1	Capacity	52	ABS	0	2	24RD	0	1	2.5273411274	None	None	None	None	1
1.7	2015_Oct_12_1339	s	s	21	1	Capacity	53	RC	0	2	23RD	1	0	1.17126083374	394.0	-132.0	399	-133	1
1.7	2015_Oct_12_1339	s	s	21	1	Capacity	54	ABS	0	1	24RO	0	1	2.66635704041	None	None	None	None	1
1.7	2015_Oct_12_1339	s	s	21	1	Capacity	55	ABS	0	2	24RD	0	1	2.01629209518	None	None	None	None	1
1.7	2015_Oct_12_1339	s	s	21	1	Capacity	56	RC	0	1	23RO	1	0	6.06116604805	-519.0	338.0	-521	339	1
1.7	2015_Oct_12_1339	s	s	21	1	Capacity	57	RC	0	2	23RD	1	0	0.988109111786	272.0	247.0	269	253	1
1.7	2015_Oct_12_1339	s	s	21	1	Capacity	58	RC	0	1	23RO	1	0	2.56536698341	-342.0	-248.0	-341	-255	1
1.7	2015_Oct_12_1339	s	s	21	1	Capacity	59	ABS	0	2	24RD	0	1	2.26590704918	None	None	None	None	1
1.7	2015_Oct_12_1339	s	s	21	1	Capacity	60	ABS	0	1	24RO	0	1	4.70754599571	None	None	None	None	1
1.7	2015_Oct_12_1339	s	s	21	1	Capacity	61	ABS	0	1	24RO	0	1	4.71940207481	None	None	None	None	1
1.7	2015_Oct_12_1339	s	s	21	1	Capacity	62	RC	0	2	23RD	1	0	1.1714220047	385.0	-42.0	386	-46	1
1.7	2015_Oct_12_1339	s	s	21	1	Capacity	63	ABS	0	2	24RD	0	1	2.53011488914	None	None	None	None	1
1.7	2015_Oct_12_1339	s	s	21	1	Capacity	64	RC	0	1	23RO	0	1	4.32600808144	-95.0	248.0	None	None	0
1.7	2015_Oct_12_1339	s	s	21	1	Capacity	65	ABS	0	2	24RD	0	1	2.51823997498	None	None	None	None	1
1.7	2015_Oct_12_1339	s	s	21	1	Capacity	66	RC	0	1	23RO	1	0	4.93125486374	-335.0	-120.0	-339	-126	1
1.7	2015_Oct_12_1339	s	s	21	1	Capacity	67	RC	0	2	23RD	1	0	1.08908295631	500.0	-98.0	496	-106	1
1.7	2015_Oct_12_1339	s	s	21	1	Capacity	68	ABS	0	1	24RO	0	1	4.55458116531	None	None	None	None	1
1.7	2015_Oct_12_1339	s	s	21	1	Capacity	69	RC	0	1	23RO	0	1	5.30263710022	-289.0	143.0	None	None	0
1.7	2015_Oct_12_1339	s	s	21	1	Capacity	70	ABS	0	2	24RD	0	1	2.04392313957	None	None	None	None	1
1.7	2015_Oct_12_1339	s	s	21	1	Capacity	71	RC	0	2	23RD	1	0	0.700455904007	-5.0	68.0	-9	69	1
1.7	2015_Oct_12_1339	s	s	21	1	Capacity	72	ABS	0	1	24RO	0	1	3.78450608253	None	None	None	None	1
1.7	2015_Oct_12_1339	s	s	21	1	Capacity	73	ABS	0	1	24RO	0	1	3.99555587769	None	None	None	None	1
1.7	2015_Oct_12_1339	s	s	21	1	Capacity	74	RC	0	1	23RO	1	0	5.2490260601	-252.0	151.0	-256	155	1
1.7	2015_Oct_12_1339	s	s	21	1	Capacity	75	RC	0	2	23RD	1	0	0.923755884171	278.0	-199.0	274	-198	1
1.7	2015_Oct_12_1339	s	s	21	1	Capacity	76	ABS	0	2	24RD	0	1	1.84733295441	None	None	None	None	1
1.7	2015_Oct_12_1339	s	s	21	1	Capacity	77	RC	0	1	23RO	1	0	3.36077904701	-414.0	83.0	-409	80	1
1.7	2015_Oct_12_1339	s	s	21	1	Capacity	78	ABS	0	2	24RD	0	1	1.72962403297	None	None	None	None	1
1.7	2015_Oct_12_1339	s	s	21	1	Capacity	79	ABS	0	1	24RO	0	1	5.42064499855	None	None	None	None	1
1.7	2015_Oct_12_1339	s	s	21	1	Capacity	80	RC	0	2	23RD	1	0	0.725842952728	-63.0	213.0	-63	217	1
1.7	2015_Oct_12_1339	s	s	21	1	Capacity	81	RC	0	1	23RO	1	0	2.87134599686	-38.0	-341.0	-33	-335	1
1.7	2015_Oct_12_1339	s	s	21	1	Capacity	82	ABS	0	2	24RD	0	1	3.69535112381	None	None	None	None	1
1.7	2015_Oct_12_1339	s	s	21	1	Capacity	83	ABS	0	1	24RO	0	1	5.36217999458	None	None	None	None	1
1.7	2015_Oct_12_1339	s	s	21	1	Capacity	84	RC	0	2	23RD	1	0	0.759426116943	138.0	388.0	137	387	1
1.7	2015_Oct_12_1339	s	s	21	1	Capacity	85	ABS	0	2	24RD	0	1	1.90619301796	None	None	None	None	1
1.7	2015_Oct_12_1339	s	s	21	1	Capacity	86	ABS	0	1	24RO	0	1	3.93650007248	None	None	None	None	1
1.7	2015_Oct_12_1339	s	s	21	1	Capacity	87	RC	0	2	23RD	1	0	0.737557888031	-64.0	363.0	-68	358	1
1.7	2015_Oct_12_1339	s	s	21	1	Capacity	88	RC	0	1	23RO	1	0	3.47869491577	-442.0	-136.0	-433	-140	1
1.7	2015_Oct_12_1339	s	s	21	1	Capacity	89	RC	0	1	23RO	1	0	4.66693997383	-327.0	206.0	-323	199	1
1.7	2015_Oct_12_1339	s	s	21	1	Capacity	90	ABS	0	1	24RO	0	1	5.66103482246	None	None	None	None	1
1.7	2015_Oct_12_1339	s	s	21	1	Capacity	91	RC	0	2	23RD	1	0	0.823286056519	336.0	-232.0	334	-232	1
1.7	2015_Oct_12_1339	s	s	21	1	Capacity	92	ABS	0	2	24RD	0	1	1.52388310432	None	None	None	None	1
1.7	2015_Oct_12_1339	s	s	21	1	SIC	1	ABS	1	0	24MC	0	1	3.88730311394	None	None	None	None	1
1.7	2015_Oct_12_1339	s	s	21	1	SIC	2	ABS	2	2	24VD	0	1	1.38556885719	None	None	None	None	1
1.7	2015_Oct_12_1339	s	s	21	1	SIC	3	RC	0	1	23RO	0	1	5.80225396156	-40.0	-141.0	None	None	0
1.7	2015_Oct_12_1339	s	s	21	1	SIC	4	RC	1	2	23MD	1	0	0.905679941177	-468.0	-307.0	-463	-305	1
1.7	2015_Oct_12_1339	s	s	21	1	SIC	5	ABS	0	2	24RD	0	1	2.02386903763	None	None	None	None	1
1.7	2015_Oct_12_1339	s	s	21	1	SIC	6	ABS	2	1	24VO	0	1	1.39508414268	None	None	None	None	1
1.7	2015_Oct_12_1339	s	s	21	1	SIC	7	RC	1	0	23MC	1	0	1.01850914955	-517.0	199.0	-515	200	1
1.7	2015_Oct_12_1339	s	s	21	1	SIC	8	ABS	0	1	24RO	0	1	5.06072402	None	None	None	None	1
1.7	2015_Oct_12_1339	s	s	21	1	SIC	9	ABS	1	2	24MD	0	1	1.2539730072	None	None	None	None	1
1.7	2015_Oct_12_1339	s	s	21	1	SIC	10	RC	2	2	23VD	1	0	0.667669057846	-131.0	-410.0	-129	-413	1
1.7	2015_Oct_12_1339	s	s	21	1	SIC	11	RC	2	0	23VC	1	0	0.735822916031	412.0	210.0	409	208	1
1.7	2015_Oct_12_1339	s	s	21	1	SIC	12	ABS	2	0	24VC	0	1	1.5714199543	None	None	None	None	1
1.7	2015_Oct_12_1339	s	s	21	1	SIC	13	RC	2	1	23VO	1	0	0.681995153427	-400.0	84.0	-397	76	1
1.7	2015_Oct_12_1339	s	s	21	1	SIC	14	RC	0	2	23RD	1	0	0.698750019073	-129.0	-238.0	-132	-242	1
1.7	2015_Oct_12_1339	s	s	21	1	SIC	15	RC	1	1	23MO	1	0	2.3923728466	-199.0	316.0	-199	315	1
1.7	2015_Oct_12_1339	s	s	21	1	SIC	16	ABS	1	1	24MO	0	1	2.30142593384	None	None	None	None	1
1.7	2015_Oct_12_1339	s	s	21	1	SIC	17	RC	0	1	23RO	0	1	3.14195680618	26.0	-357.0	None	None	0
1.7	2015_Oct_12_1339	s	s	21	1	SIC	18	ABS	0	2	24RD	0	1	2.36567997932	None	None	None	None	1
1.7	2015_Oct_12_1339	s	s	21	1	SIC	19	ABS	2	1	24VO	0	1	1.2332239151	None	None	None	None	1
1.7	2015_Oct_12_1339	s	s	21	1	SIC	20	ABS	2	0	24VC	0	1	1.1882109642	None	None	None	None	1
1.7	2015_Oct_12_1339	s	s	21	1	SIC	21	RC	0	2	23RD	1	0	0.858650922775	433.0	100.0	435	99	1
1.7	2015_Oct_12_1339	s	s	21	1	SIC	22	RC	1	0	23MC	1	0	1.48246383667	-524.0	199.0	-525	198	1
1.7	2015_Oct_12_1339	s	s	21	1	SIC	23	RC	1	1	23MO	1	0	1.04230809212	60.0	-260.0	58	-260	1
1.7	2015_Oct_12_1339	s	s	21	1	SIC	24	RC	1	2	23MD	1	0	0.787947893143	414.0	-165.0	415	-160	1
1.7	2015_Oct_12_1339	s	s	21	1	SIC	25	RC	2	1	23VO	1	0	0.682073116302	-63.0	50.0	-67	46	1
1.7	2015_Oct_12_1339	s	s	21	1	SIC	26	RC	2	0	23VC	1	0	0.642062902451	451.0	-84.0	454	-81	1
1.7	2015_Oct_12_1339	s	s	21	1	SIC	27	ABS	0	1	24RO	0	1	4.24355602264	None	None	None	None	1
1.7	2015_Oct_12_1339	s	s	21	1	SIC	28	RC	2	2	23VD	1	0	0.66511297226	274.0	47.0	269	50	1
1.7	2015_Oct_12_1339	s	s	21	1	SIC	29	ABS	1	2	24MD	0	1	1.71486210823	None	None	None	None	1
1.7	2015_Oct_12_1339	s	s	21	1	SIC	30	ABS	2	2	24VD	0	1	0.893910884857	None	None	None	None	1
1.7	2015_Oct_12_1339	s	s	21	1	SIC	31	ABS	1	0	24MC	0	1	4.60994195938	None	None	None	None	1
1.7	2015_Oct_12_1339	s	s	21	1	SIC	32	ABS	1	1	24MO	0	1	2.78898191452	None	None	None	None	1
1.7	2015_Oct_12_1339	s	s	21	1	SIC	33	ABS	2	2	24VD	0	1	0.912493944168	None	None	None	None	1
1.7	2015_Oct_12_1339	s	s	21	1	SIC	34	ABS	1	2	24MD	0	1	1.49422311783	None	None	None	None	1
1.7	2015_Oct_12_1339	s	s	21	1	SIC	35	RC	2	1	23VO	1	0	0.71382689476	-383.0	229.0	-381	229	1
1.7	2015_Oct_12_1339	s	s	21	1	SIC	36	ABS	0	1	24RO	0	1	3.61992096901	None	None	None	None	1
1.7	2015_Oct_12_1339	s	s	21	1	SIC	37	ABS	2	1	24VO	0	1	1.01157808304	None	None	None	None	1
1.7	2015_Oct_12_1339	s	s	21	1	SIC	38	RC	1	0	23MC	1	0	1.94897699356	494.0	-343.0	495	-346	1
1.7	2015_Oct_12_1339	s	s	21	1	SIC	39	ABS	1	0	24MC	0	1	2.98429298401	None	None	None	None	1
1.7	2015_Oct_12_1339	s	s	21	1	SIC	40	ABS	1	1	24MO	0	1	3.10181689262	None	None	None	None	1
1.7	2015_Oct_12_1339	s	s	21	1	SIC	41	RC	2	0	23VC	1	0	0.646691083908	-427.0	-370.0	-425	-376	1
1.7	2015_Oct_12_1339	s	s	21	1	SIC	42	RC	1	1	23MO	1	0	0.764840126038	-317.0	212.0	-318	207	1
1.7	2015_Oct_12_1339	s	s	21	1	SIC	43	RC	0	2	23RD	1	0	0.862277030945	324.0	233.0	328	235	1
1.7	2015_Oct_12_1339	s	s	21	1	SIC	44	RC	1	2	23MD	1	0	0.693775892258	107.0	-342.0	115	-342	1
1.7	2015_Oct_12_1339	s	s	21	1	SIC	45	ABS	0	2	24RD	0	1	1.65627789497	None	None	None	None	1
1.7	2015_Oct_12_1339	s	s	21	1	SIC	46	RC	2	2	23VD	1	0	0.756357908249	2.0	-406.0	3	-402	1
1.7	2015_Oct_12_1339	s	s	21	1	SIC	47	ABS	2	0	24VC	0	1	1.21175694466	None	None	None	None	1
1.7	2015_Oct_12_1339	s	s	21	1	SIC	48	RC	0	1	23RO	1	0	1.16835689545	481.0	249.0	477	245	1
1.7	2015_Oct_12_1339	s	s	21	1	SIC	49	RC	2	1	23VO	1	0	0.544548034668	-122.0	-256.0	-122	-258	1
1.7	2015_Oct_12_1339	s	s	21	1	SIC	50	RC	0	2	23RD	1	0	0.693797826767	-154.0	266.0	-157	270	1
1.7	2015_Oct_12_1339	s	s	21	1	SIC	51	ABS	1	1	24MO	0	1	3.57753300667	None	None	None	None	1
1.7	2015_Oct_12_1339	s	s	21	1	SIC	52	ABS	1	0	24MC	0	1	3.99798583984	None	None	None	None	1
1.7	2015_Oct_12_1339	s	s	21	1	SIC	53	RC	2	0	23VC	1	0	0.693809986115	448.0	-261.0	448	-265	1
1.7	2015_Oct_12_1339	s	s	21	1	SIC	54	ABS	0	2	24RD	0	1	1.43537211418	None	None	None	None	1
1.7	2015_Oct_12_1339	s	s	21	1	SIC	55	ABS	1	2	24MD	0	1	1.64713406563	None	None	None	None	1
1.7	2015_Oct_12_1339	s	s	21	1	SIC	56	ABS	0	1	24RO	0	1	4.88407802582	None	None	None	None	1
1.7	2015_Oct_12_1339	s	s	21	1	SIC	57	ABS	2	1	24VO	0	1	0.988091945648	None	None	None	None	1
1.7	2015_Oct_12_1339	s	s	21	1	SIC	58	RC	1	1	23MO	1	0	3.08326196671	-103.0	206.0	-103	206	1
1.7	2015_Oct_12_1339	s	s	21	1	SIC	59	ABS	2	2	24VD	0	1	1.05333805084	None	None	None	None	1
1.7	2015_Oct_12_1339	s	s	21	1	SIC	60	RC	2	2	23VD	1	0	0.623225927353	507.0	-155.0	504	-154	1
1.7	2015_Oct_12_1339	s	s	21	1	SIC	61	RC	1	0	23MC	1	0	2.78555703163	279.0	397.0	276	393	1
1.7	2015_Oct_12_1339	s	s	21	1	SIC	62	RC	0	1	23RO	0	1	3.7342979908	-347.0	154.0	None	None	0
1.7	2015_Oct_12_1339	s	s	21	1	SIC	63	ABS	2	0	24VC	0	1	1.06654787064	None	None	None	None	1
1.7	2015_Oct_12_1339	s	s	21	1	SIC	64	RC	1	2	23MD	1	0	0.764774799347	207.0	-48.0	215	-49	1
1.7	2015_Oct_12_1339	s	s	21	1	SIC	65	RC	0	1	23RO	1	0	2.28958797455	137.0	-113.0	138	-116	1
1.7	2015_Oct_12_1339	s	s	21	1	SIC	66	RC	2	0	23VC	1	0	0.617105007172	276.0	314.0	268	318	1
1.7	2015_Oct_12_1339	s	s	21	1	SIC	67	RC	2	2	23VD	1	0	0.488559007645	252.0	110.0	252	113	1
1.7	2015_Oct_12_1339	s	s	21	1	SIC	68	RC	1	0	23MC	1	0	2.85469293594	80.0	323.0	86	326	1
1.7	2015_Oct_12_1339	s	s	21	1	SIC	69	ABS	2	2	24VD	0	1	1.09439897537	None	None	None	None	1
1.7	2015_Oct_12_1339	s	s	21	1	SIC	70	ABS	0	1	24RO	0	1	3.67874503136	None	None	None	None	1
1.7	2015_Oct_12_1339	s	s	21	1	SIC	71	ABS	2	0	24VC	0	1	1.45887303352	None	None	None	None	1
1.7	2015_Oct_12_1339	s	s	21	1	SIC	72	RC	2	1	23VO	1	0	0.787896871567	481.0	-317.0	481	-323	1
1.7	2015_Oct_12_1339	s	s	21	1	SIC	73	ABS	1	0	24MC	0	1	4.44867396355	None	None	None	None	1
1.7	2015_Oct_12_1339	s	s	21	1	SIC	74	RC	0	2	23RD	1	0	0.699533939362	436.0	-218.0	438	-218	1
1.7	2015_Oct_12_1339	s	s	21	1	SIC	75	ABS	1	1	24MO	0	1	3.47841882706	None	None	None	None	1
1.7	2015_Oct_12_1339	s	s	21	1	SIC	76	ABS	0	2	24RD	0	1	1.90622806549	None	None	None	None	1
1.7	2015_Oct_12_1339	s	s	21	1	SIC	77	ABS	2	1	24VO	0	1	1.13597393036	None	None	None	None	1
1.7	2015_Oct_12_1339	s	s	21	1	SIC	78	ABS	1	2	24MD	0	1	1.49465489388	None	None	None	None	1
1.7	2015_Oct_12_1339	s	s	21	1	SIC	79	RC	1	1	23MO	1	0	1.94829082489	47.0	-384.0	45	-389	1
1.7	2015_Oct_12_1339	s	s	21	1	SIC	80	RC	1	2	23MD	1	0	0.583233833313	-291.0	-245.0	-291	-246	1
1.7	2015_Oct_12_1339	s	s	21	1	SIC	81	RC	0	2	23RD	1	0	0.540740013123	31.0	-68.0	29	-77	1
1.7	2015_Oct_12_1339	s	s	21	1	SIC	82	ABS	1	1	24MO	0	1	3.21954202652	None	None	None	None	1
1.7	2015_Oct_12_1339	s	s	21	1	SIC	83	ABS	1	0	24MC	0	1	4.40830993652	None	None	None	None	1
1.7	2015_Oct_12_1339	s	s	21	1	SIC	84	ABS	0	2	24RD	0	1	1.55007004738	None	None	None	None	1
1.7	2015_Oct_12_1339	s	s	21	1	SIC	85	ABS	2	2	24VD	0	1	0.948405981064	None	None	None	None	1
1.7	2015_Oct_12_1339	s	s	21	1	SIC	86	RC	2	1	23VO	1	0	0.665735960007	-294.0	72.0	-291	75	1
1.7	2015_Oct_12_1339	s	s	21	1	SIC	87	ABS	0	1	24RO	0	1	4.46043109894	None	None	None	None	1
1.7	2015_Oct_12_1339	s	s	21	1	SIC	88	ABS	2	0	24VC	0	1	1.45406293869	None	None	None	None	1
1.7	2015_Oct_12_1339	s	s	21	1	SIC	89	RC	1	1	23MO	1	0	0.830161094666	-454.0	-7.0	-451	-2	1
1.7	2015_Oct_12_1339	s	s	21	1	SIC	90	RC	1	2	23MD	1	0	0.748367071152	-35.0	-195.0	-42	-196	1
1.7	2015_Oct_12_1339	s	s	21	1	SIC	91	RC	0	1	23RO	1	0	5.00190711021	-279.0	40.0	-271	45	1
1.7	2015_Oct_12_1339	s	s	21	1	SIC	92	RC	2	0	23VC	1	0	0.608844041824	349.0	249.0	360	250	1
1.7	2015_Oct_12_1339	s	s	21	1	SIC	93	ABS	1	2	24MD	0	1	1.8944170475	None	None	None	None	1
1.7	2015_Oct_12_1339	s	s	21	1	SIC	94	RC	1	0	23MC	1	0	1.11247491837	260.0	235.0	266	229	1
1.7	2015_Oct_12_1339	s	s	21	1	SIC	95	RC	2	2	23VD	1	0	0.620901823044	319.0	223.0	325	225	1
1.7	2015_Oct_12_1339	s	s	21	1	SIC	96	ABS	2	1	24VO	0	1	1.05397510529	None	None	None	None	1
1.7	2015_Oct_12_1339	s	s	21	1	SIC	97	ABS	1	1	24MO	0	1	4.9584581852	None	None	None	None	1
1.7	2015_Oct_12_1339	s	s	21	1	SIC	98	RC	2	2	23VD	1	0	0.829651117325	288.0	372.0	291	376	1
1.7	2015_Oct_12_1339	s	s	21	1	SIC	99	RC	0	1	23RO	0	1	3.94248795509	109.0	-320.0	None	None	0
1.7	2015_Oct_12_1339	s	s	21	1	SIC	100	ABS	1	0	24MC	0	1	4.35861897469	None	None	None	None	1
1.7	2015_Oct_12_1339	s	s	21	1	SIC	101	RC	1	0	23MC	1	0	0.835012197495	221.0	83.0	223	87	1
1.7	2015_Oct_12_1339	s	s	21	1	SIC	102	RC	2	0	23VC	1	0	0.700540065765	256.0	153.0	265	159	1
1.7	2015_Oct_12_1339	s	s	21	1	SIC	103	ABS	1	2	24MD	0	1	1.7885081768	None	None	None	None	1
1.7	2015_Oct_12_1339	s	s	21	1	SIC	104	ABS	2	2	24VD	0	1	0.95808506012	None	None	None	None	1
1.7	2015_Oct_12_1339	s	s	21	1	SIC	105	RC	1	2	23MD	1	0	0.771067857742	103.0	-220.0	104	-221	1
1.7	2015_Oct_12_1339	s	s	21	1	SIC	106	ABS	0	1	24RO	0	1	3.9273018837	None	None	None	None	1
1.7	2015_Oct_12_1339	s	s	21	1	SIC	107	ABS	2	1	24VO	0	1	0.959710121155	None	None	None	None	1
1.7	2015_Oct_12_1339	s	s	21	1	SIC	108	RC	0	2	23RD	1	0	1.7097671032	-444.0	-241.0	-445	-244	1
1.7	2015_Oct_12_1339	s	s	21	1	SIC	109	RC	1	1	23MO	1	0	0.917511940002	-163.0	5.0	-159	-1	1
1.7	2015_Oct_12_1339	s	s	21	1	SIC	110	RC	2	1	23VO	1	0	0.564296007156	-393.0	63.0	-387	61	1
1.7	2015_Oct_12_1339	s	s	21	1	SIC	111	ABS	2	0	24VC	0	1	0.670559883118	None	None	None	None	1
1.7	2015_Oct_12_1339	s	s	21	1	SIC	112	ABS	0	2	24RD	0	1	2.4090590477	None	None	None	None	1
1.7	2015_Oct_12_1339	s	s	21	1	SIC	113	RC	0	1	23RO	1	0	1.74974989891	-377.0	-339.0	-376	-336	1
1.7	2015_Oct_12_1339	s	s	21	1	SIC	114	RC	2	2	23VD	1	0	0.57609295845	389.0	-250.0	393	-257	1
1.7	2015_Oct_12_1339	s	s	21	1	SIC	115	RC	1	1	23MO	1	0	0.606408119202	335.0	-19.0	336	-23	1
1.7	2015_Oct_12_1339	s	s	21	1	SIC	116	ABS	2	1	24VO	0	1	0.705460071564	None	None	None	None	1
1.7	2015_Oct_12_1339	s	s	21	1	SIC	117	ABS	0	2	24RD	0	1	1.28244709969	None	None	None	None	1
1.7	2015_Oct_12_1339	s	s	21	1	SIC	118	ABS	2	0	24VC	0	1	0.941359043121	None	None	None	None	1
1.7	2015_Oct_12_1339	s	s	21	1	SIC	119	RC	1	2	23MD	1	0	0.656001806259	423.0	-258.0	431	-255	1
1.7	2015_Oct_12_1339	s	s	21	1	SIC	120	RC	1	0	23MC	1	0	0.558165073395	-327.0	56.0	-327	51	1
1.7	2015_Oct_12_1339	s	s	21	1	SIC	121	ABS	1	0	24MC	0	1	2.3887360096	None	None	None	None	1
1.7	2015_Oct_12_1339	s	s	21	1	SIC	122	RC	0	2	23RD	1	0	0.653021097183	-74.0	-16.0	-77	-18	1
1.7	2015_Oct_12_1339	s	s	21	1	SIC	123	ABS	1	2	24MD	0	1	1.18302798271	None	None	None	None	1
1.7	2015_Oct_12_1339	s	s	21	1	SIC	124	RC	2	0	23VC	1	0	0.635421037674	-465.0	-48.0	-465	-45	1
1.7	2015_Oct_12_1339	s	s	21	1	SIC	125	ABS	2	2	24VD	0	1	0.858652830124	None	None	None	None	1
1.7	2015_Oct_12_1339	s	s	21	1	SIC	126	RC	2	1	23VO	1	0	0.582962989807	-271.0	235.0	-274	236	1
1.7	2015_Oct_12_1339	s	s	21	1	SIC	127	ABS	1	1	24MO	0	1	5.30286002159	None	None	None	None	1
1.7	2015_Oct_12_1339	s	s	21	1	SIC	128	ABS	0	1	24RO	0	1	4.10732603073	None	None	None	None	1
1.7	2015_Oct_12_1339	s	s	21	1	SIC	129	ABS	0	2	24RD	0	1	1.5005531311	None	None	None	None	1
1.7	2015_Oct_12_1339	s	s	21	1	SIC	130	RC	1	0	23MC	1	0	1.38026094437	222.0	280.0	228	289	1
1.7	2015_Oct_12_1339	s	s	21	1	SIC	131	RC	0	1	23RO	1	0	3.85751104355	-302.0	37.0	-302	34	1
1.7	2015_Oct_12_1339	s	s	21	1	SIC	132	RC	2	1	23VO	1	0	0.700809955597	492.0	329.0	495	330	1
1.7	2015_Oct_12_1339	s	s	21	1	SIC	133	RC	0	2	23RD	1	0	0.890955924988	-68.0	-157.0	-65	-157	1
1.7	2015_Oct_12_1339	s	s	21	1	SIC	134	ABS	0	1	24RO	0	1	4.71965813637	None	None	None	None	1
1.7	2015_Oct_12_1339	s	s	21	1	SIC	135	RC	1	1	23MO	1	0	0.587899923325	100.0	18.0	104	19	1
1.7	2015_Oct_12_1339	s	s	21	1	SIC	136	ABS	1	0	24MC	0	1	4.14264321327	None	None	None	None	1
1.7	2015_Oct_12_1339	s	s	21	1	SIC	137	RC	2	0	23VC	1	0	0.635016918182	99.0	-335.0	99	-336	1
1.7	2015_Oct_12_1339	s	s	21	1	SIC	138	RC	1	2	23MD	1	0	0.752675056458	329.0	-390.0	333	-388	1
1.7	2015_Oct_12_1339	s	s	21	1	SIC	139	RC	2	2	23VD	1	0	0.606636047363	-31.0	306.0	-21	305	1
1.7	2015_Oct_12_1339	s	s	21	1	SIC	140	ABS	1	2	24MD	0	1	1.88268589973	None	None	None	None	1
1.7	2015_Oct_12_1339	s	s	21	1	SIC	141	ABS	2	2	24VD	0	1	0.760825157166	None	None	None	None	1
1.7	2015_Oct_12_1339	s	s	21	1	SIC	142	ABS	2	0	24VC	0	1	0.900681972504	None	None	None	None	1
1.7	2015_Oct_12_1339	s	s	21	1	SIC	143	ABS	1	1	24MO	0	1	3.56118607521	None	None	None	None	1
1.7	2015_Oct_12_1339	s	s	21	1	SIC	144	ABS	2	1	24VO	0	1	1.17670297623	None	None	None	None	1
1.7	2015_Oct_12_1339	s	s	21	1	SIC	145	RC	1	1	23MO	1	0	0.688809156418	56.0	-13.0	61	-15	1
1.7	2015_Oct_12_1339	s	s	21	1	SIC	146	ABS	2	1	24VO	0	1	1.18820095062	None	None	None	None	1
1.7	2015_Oct_12_1339	s	s	21	1	SIC	147	ABS	0	2	24RD	0	1	1.91798710823	None	None	None	None	1
1.7	2015_Oct_12_1339	s	s	21	1	SIC	148	ABS	1	0	24MC	0	1	7.17935395241	None	None	None	None	1
1.7	2015_Oct_12_1339	s	s	21	1	SIC	149	RC	2	0	23VC	1	0	0.641735076904	460.0	-25.0	461	-23	1
1.7	2015_Oct_12_1339	s	s	21	1	SIC	150	RC	0	2	23RD	1	0	0.858648777008	-286.0	-128.0	-289	-126	1
1.7	2015_Oct_12_1339	s	s	21	1	SIC	151	ABS	2	0	24VC	0	1	1.70603895187	None	None	None	None	1
1.7	2015_Oct_12_1339	s	s	21	1	SIC	152	RC	1	2	23MD	1	0	0.647121906281	86.0	-102.0	91	-104	1
1.7	2015_Oct_12_1339	s	s	21	1	SIC	153	RC	1	0	23MC	1	0	1.64395284653	286.0	360.0	290	351	1
1.7	2015_Oct_12_1339	s	s	21	1	SIC	154	ABS	0	1	24RO	0	1	4.09053397179	None	None	None	None	1
1.7	2015_Oct_12_1339	s	s	21	1	SIC	155	ABS	2	2	24VD	0	1	1.16509485245	None	None	None	None	1
1.7	2015_Oct_12_1339	s	s	21	1	SIC	156	RC	2	1	23VO	1	0	0.618119001389	-285.0	-116.0	-283	-116	1
1.7	2015_Oct_12_1339	s	s	21	1	SIC	157	ABS	1	1	24MO	0	1	3.55047512054	None	None	None	None	1
1.7	2015_Oct_12_1339	s	s	21	1	SIC	158	RC	2	2	23VD	1	0	0.655831813812	493.0	-354.0	503	-355	1
1.7	2015_Oct_12_1339	s	s	21	1	SIC	159	RC	0	1	23RO	1	0	3.38929986954	-280.0	370.0	-284	374	1
1.7	2015_Oct_12_1339	s	s	21	1	SIC	160	ABS	1	2	24MD	0	1	1.70602798462	None	None	None	None	1
1.7	2015_Oct_12_1339	s	s	21	1	SIC	161	RC	2	0	23VC	1	0	0.560693025589	-378.0	238.0	-368	245	1
1.7	2015_Oct_12_1339	s	s	21	1	SIC	162	ABS	1	0	24MC	0	1	4.21315789223	None	None	None	None	1
1.7	2015_Oct_12_1339	s	s	21	1	SIC	163	ABS	2	0	24VC	0	1	1.06328701973	None	None	None	None	1
1.7	2015_Oct_12_1339	s	s	21	1	SIC	164	ABS	0	1	24RO	0	1	5.49647212029	None	None	None	None	1
1.7	2015_Oct_12_1339	s	s	21	1	SIC	165	RC	1	1	23MO	1	0	1.56486296654	-418.0	107.0	-419	109	1
1.7	2015_Oct_12_1339	s	s	21	1	SIC	166	ABS	2	2	24VD	0	1	0.677329063416	None	None	None	None	1
1.7	2015_Oct_12_1339	s	s	21	1	SIC	167	ABS	0	2	24RD	0	1	1.9885699749	None	None	None	None	1
1.7	2015_Oct_12_1339	s	s	21	1	SIC	168	RC	1	2	23MD	1	0	0.874064922333	-329.0	330.0	-326	334	1
1.7	2015_Oct_12_1339	s	s	21	1	SIC	169	RC	0	2	23RD	1	0	0.705626010895	477.0	111.0	485	115	1
1.7	2015_Oct_12_1339	s	s	21	1	SIC	170	ABS	1	2	24MD	0	1	1.1835000515	None	None	None	None	1
1.7	2015_Oct_12_1339	s	s	21	1	SIC	171	RC	0	1	23RO	0	1	4.1611559391	-253.0	207.0	None	None	0
1.7	2015_Oct_12_1339	s	s	21	1	SIC	172	RC	1	0	23MC	1	0	2.23216104507	-528.0	-204.0	-527	-205	1
1.7	2015_Oct_12_1339	s	s	21	1	SIC	173	RC	2	2	23VD	1	0	0.559315919876	130.0	318.0	134	312	1
1.7	2015_Oct_12_1339	s	s	21	1	SIC	174	ABS	2	1	24VO	0	1	1.44199490547	None	None	None	None	1
1.7	2015_Oct_12_1339	s	s	21	1	SIC	175	ABS	1	1	24MO	0	1	4.42507791519	None	None	None	None	1
1.7	2015_Oct_12_1339	s	s	21	1	SIC	176	RC	2	1	23VO	1	0	0.594756126404	61.0	-328.0	62	-325	1
1.7	2015_Oct_12_1339	s	s	21	1	SIC	177	ABS	1	2	24MD	0	1	1.23524594307	None	None	None	None	1
1.7	2015_Oct_12_1339	s	s	21	1	SIC	178	RC	2	2	23VD	1	0	0.540807008743	180.0	-153.0	184	-155	1
1.7	2015_Oct_12_1339	s	s	21	1	SIC	179	RC	0	2	23RD	1	0	0.632302999496	415.0	84.0	417	84	1
1.7	2015_Oct_12_1339	s	s	21	1	SIC	180	ABS	1	0	24MC	0	1	5.39721417427	None	None	None	None	1
1.7	2015_Oct_12_1339	s	s	21	1	SIC	181	ABS	2	2	24VD	0	1	1.07050681114	None	None	None	None	1
1.7	2015_Oct_12_1339	s	s	21	1	SIC	182	RC	2	1	23VO	1	0	0.552520036697	-427.0	-90.0	-427	-97	1
1.7	2015_Oct_12_1339	s	s	21	1	SIC	183	RC	1	2	23MD	1	0	0.488780021667	252.0	-172.0	253	-172	1
1.7	2015_Oct_12_1339	s	s	21	1	SIC	184	RC	2	0	23VC	1	0	0.618407964706	-382.0	402.0	-384	408	1
1.7	2015_Oct_12_1339	s	s	21	1	SIC	185	RC	1	1	23MO	1	0	0.759546041489	-441.0	359.0	-438	361	1
1.7	2015_Oct_12_1339	s	s	21	1	SIC	186	RC	0	1	23RO	1	0	4.62518882751	448.0	107.0	449	108	1
1.7	2015_Oct_12_1339	s	s	21	1	SIC	187	ABS	0	1	24RO	0	1	3.69270300865	None	None	None	None	1
1.7	2015_Oct_12_1339	s	s	21	1	SIC	188	ABS	2	1	24VO	0	1	1.05374002457	None	None	None	None	1
1.7	2015_Oct_12_1339	s	s	21	1	SIC	189	ABS	0	2	24RD	0	1	1.66709589958	None	None	None	None	1
1.7	2015_Oct_12_1339	s	s	21	1	SIC	190	RC	1	0	23MC	1	0	0.914669036865	-13.0	-278.0	-18	-283	1
1.7	2015_Oct_12_1339	s	s	21	1	SIC	191	ABS	1	1	24MO	0	1	3.51534700394	None	None	None	None	1
1.7	2015_Oct_12_1339	s	s	21	1	SIC	192	ABS	2	0	24VC	0	1	0.870317220688	None	None	None	None	1
1.7	2015_Oct_12_1339	s	s	21	1	SIC	193	RC	1	2	23MD	1	0	0.750349998474	-482.0	377.0	-481	378	1
1.7	2015_Oct_12_1339	s	s	21	1	SIC	194	RC	1	0	23MC	1	0	1.22008609772	-385.0	-222.0	-379	-228	1
1.7	2015_Oct_12_1339	s	s	21	1	SIC	195	RC	2	0	23VC	1	0	0.733934879303	-386.0	-362.0	-386	-359	1
1.7	2015_Oct_12_1339	s	s	21	1	SIC	196	ABS	0	1	24RO	0	1	3.87787914276	None	None	None	None	1
1.7	2015_Oct_12_1339	s	s	21	1	SIC	197	ABS	1	0	24MC	0	1	3.39863586426	None	None	None	None	1
1.7	2015_Oct_12_1339	s	s	21	1	SIC	198	ABS	2	1	24VO	0	1	1.00021886826	None	None	None	None	1
1.7	2015_Oct_12_1339	s	s	21	1	SIC	199	ABS	0	2	24RD	0	1	1.24165296555	None	None	None	None	1
1.7	2015_Oct_12_1339	s	s	21	1	SIC	200	RC	0	2	23RD	1	0	0.691163778305	-201.0	-119.0	-203	-118	1
1.7	2015_Oct_12_1339	s	s	21	1	SIC	201	ABS	1	1	24MO	0	1	4.14269995689	None	None	None	None	1
1.7	2015_Oct_12_1339	s	s	21	1	SIC	202	RC	2	1	23VO	1	0	0.717381000519	368.0	-248.0	369	-251	1
1.7	2015_Oct_12_1339	s	s	21	1	SIC	203	ABS	2	0	24VC	0	1	1.28918600082	None	None	None	None	1
1.7	2015_Oct_12_1339	s	s	21	1	SIC	204	ABS	1	2	24MD	0	1	1.4707069397	None	None	None	None	1
1.7	2015_Oct_12_1339	s	s	21	1	SIC	205	RC	2	2	23VD	1	0	0.595079898834	-425.0	-243.0	-429	-249	1
1.7	2015_Oct_12_1339	s	s	21	1	SIC	206	ABS	2	2	24VD	0	1	0.630079030991	None	None	None	None	1
1.7	2015_Oct_12_1339	s	s	21	1	SIC	207	RC	1	1	23MO	1	0	1.0301451683	-151.0	-375.0	-153	-368	1
1.7	2015_Oct_12_1339	s	s	21	1	SIC	208	RC	0	1	23RO	1	0	3.42174601555	436.0	-152.0	445	-150	1
1.7	2015_Oct_12_1339	s	s	21	1	SIC	209	RC	2	2	23VD	1	0	1.24251294136	-316.0	393.0	-321	388	1
1.7	2015_Oct_12_1339	s	s	21	1	SIC	210	RC	2	0	23VC	1	0	0.512205839157	-204.0	-19.0	-208	-20	1
1.7	2015_Oct_12_1339	s	s	21	1	SIC	211	RC	1	0	23MC	1	0	0.564326047897	490.0	-390.0	75	-23	0
1.7	2015_Oct_12_1339	s	s	21	1	SIC	212	ABS	2	0	24VC	0	1	1.57660603523	None	None	None	None	1
1.7	2015_Oct_12_1339	s	s	21	1	SIC	213	RC	1	1	23MO	1	0	2.07837295532	-495.0	-407.0	-492	-404	1
1.7	2015_Oct_12_1339	s	s	21	1	SIC	214	RC	0	1	23RO	0	1	3.03987503052	-374.0	83.0	None	None	0
1.7	2015_Oct_12_1339	s	s	21	1	SIC	215	RC	2	1	23VO	1	0	0.605067014694	338.0	-194.0	343	-197	1
1.7	2015_Oct_12_1339	s	s	21	1	SIC	216	ABS	1	0	24MC	0	1	3.13041400909	None	None	None	None	1
1.7	2015_Oct_12_1339	s	s	21	1	SIC	217	ABS	1	2	24MD	0	1	1.25610089302	None	None	None	None	1
1.7	2015_Oct_12_1339	s	s	21	1	SIC	218	ABS	0	1	24RO	0	1	3.29554915428	None	None	None	None	1
1.7	2015_Oct_12_1339	s	s	21	1	SIC	219	ABS	2	1	24VO	0	1	0.956489086151	None	None	None	None	1
1.7	2015_Oct_12_1339	s	s	21	1	SIC	220	ABS	1	1	24MO	0	1	4.63696193695	None	None	None	None	1
1.7	2015_Oct_12_1339	s	s	21	1	SIC	221	RC	0	2	23RD	1	0	0.971137046814	-371.0	-137.0	-369	-138	1
1.7	2015_Oct_12_1339	s	s	21	1	SIC	222	ABS	2	2	24VD	0	1	0.831416845322	None	None	None	None	1
1.7	2015_Oct_12_1339	s	s	21	1	SIC	223	ABS	0	2	24RD	0	1	1.68245196342	None	None	None	None	1
1.7	2015_Oct_12_1339	s	s	21	1	SIC	224	RC	1	2	23MD	1	0	0.658506155014	-441.0	-102.0	-435	-100	1
1.7	2015_Oct_12_1339	s	s	21	1	SIC	225	ABS	1	2	24MD	0	1	1.37657403946	None	None	None	None	1
1.7	2015_Oct_12_1339	s	s	21	1	SIC	226	RC	2	0	23VC	1	0	0.752777099609	411.0	-287.0	423	-282	1
1.7	2015_Oct_12_1339	s	s	21	1	SIC	227	ABS	2	1	24VO	0	1	0.737717866898	None	None	None	None	1
1.7	2015_Oct_12_1339	s	s	21	1	SIC	228	ABS	0	2	24RD	0	1	1.60014200211	None	None	None	None	1
1.7	2015_Oct_12_1339	s	s	21	1	SIC	229	RC	2	1	23VO	1	0	0.58792090416	-88.0	-212.0	-85	-209	1
1.7	2015_Oct_12_1339	s	s	21	1	SIC	230	RC	0	2	23RD	1	0	0.552603006363	349.0	19.0	352	21	1
1.7	2015_Oct_12_1339	s	s	21	1	SIC	231	RC	1	2	23MD	1	0	0.644072055817	-177.0	366.0	-174	368	1
1.7	2015_Oct_12_1339	s	s	21	1	SIC	232	ABS	2	2	24VD	0	1	0.87816119194	None	None	None	None	1
1.7	2015_Oct_12_1339	s	s	21	1	SIC	233	ABS	1	0	24MC	0	1	4.51417517662	None	None	None	None	1
1.7	2015_Oct_12_1339	s	s	21	1	SIC	234	ABS	1	1	24MO	0	1	3.80976390839	None	None	None	None	1
1.7	2015_Oct_12_1339	s	s	21	1	SIC	235	RC	1	1	23MO	1	0	2.41235399246	371.0	227.0	367	227	1
1.7	2015_Oct_12_1339	s	s	21	1	SIC	236	RC	1	0	23MC	1	0	1.01525998116	-519.0	-341.0	-520	-348	1
1.7	2015_Oct_12_1339	s	s	21	1	SIC	237	RC	0	1	23RO	1	0	1.81888103485	-303.0	-40.0	-299	-37	1
1.7	2015_Oct_12_1339	s	s	21	1	SIC	238	RC	2	2	23VD	1	0	0.505484819412	-281.0	-148.0	-279	-153	1
1.7	2015_Oct_12_1339	s	s	21	1	SIC	239	ABS	2	0	24VC	0	1	1.11743998528	None	None	None	None	1
1.7	2015_Oct_12_1339	s	s	21	1	SIC	240	ABS	0	1	24RO	0	1	3.64332509041	None	None	None	None	1
1.7	2015_Oct_12_1339	s	s	21	1	SIC	241	ABS	2	1	24VO	0	1	0.835141897202	None	None	None	None	1
1.7	2015_Oct_12_1339	s	s	21	1	SIC	242	ABS	0	1	24RO	0	1	5.14979600906	None	None	None	None	1
1.7	2015_Oct_12_1339	s	s	21	1	SIC	243	RC	2	0	23VC	1	0	0.679018974304	290.0	116.0	291	120	1
1.7	2015_Oct_12_1339	s	s	21	1	SIC	244	RC	0	2	23RD	1	0	0.820395946503	469.0	-272.0	469	-270	1
1.7	2015_Oct_12_1339	s	s	21	1	SIC	245	ABS	2	2	24VD	0	1	0.717356920242	None	None	None	None	1
1.7	2015_Oct_12_1339	s	s	21	1	SIC	246	ABS	1	2	24MD	0	1	0.88220000267	None	None	None	None	1
1.7	2015_Oct_12_1339	s	s	21	1	SIC	247	RC	2	1	23VO	1	0	0.635007143021	-280.0	-221.0	-282	-227	1
1.7	2015_Oct_12_1339	s	s	21	1	SIC	248	RC	1	1	23MO	1	0	1.159512043	-262.0	-338.0	-262	-343	1
1.7	2015_Oct_12_1339	s	s	21	1	SIC	249	ABS	0	2	24RD	0	1	1.40023779869	None	None	None	None	1
1.7	2015_Oct_12_1339	s	s	21	1	SIC	250	RC	1	0	23MC	1	0	0.982877969742	-404.0	-210.0	-394	-208	1
1.7	2015_Oct_12_1339	s	s	21	1	SIC	251	RC	1	2	23MD	1	0	0.941036939621	412.0	-305.0	413	-315	1
1.7	2015_Oct_12_1339	s	s	21	1	SIC	252	RC	0	1	23RO	1	0	1.72974801064	197.0	-251.0	198	-245	1
1.7	2015_Oct_12_1339	s	s	21	1	SIC	253	ABS	1	1	24MO	0	1	2.82415103912	None	None	None	None	1
1.7	2015_Oct_12_1339	s	s	21	1	SIC	254	ABS	1	0	24MC	0	1	6.21425199509	None	None	None	None	1
1.7	2015_Oct_12_1339	s	s	21	1	SIC	255	RC	2	2	23VD	1	0	0.682048082352	-150.0	-302.0	-142	-299	1
1.7	2015_Oct_12_1339	s	s	21	1	SIC	256	ABS	2	0	24VC	0	1	0.788069009781	None	None	None	None	1
1.7	2015_Oct_12_1339	s	s	21	1	SIC	257	RC	1	2	23MD	1	0	0.560822963715	1.0	-201.0	6	-196	1
1.7	2015_Oct_12_1339	s	s	21	1	SIC	258	RC	2	1	23VO	1	0	0.446658849716	-309.0	26.0	-312	20	1
1.7	2015_Oct_12_1339	s	s	21	1	SIC	259	RC	1	0	23MC	1	0	1.56509900093	-502.0	145.0	-507	147	1
1.7	2015_Oct_12_1339	s	s	21	1	SIC	260	ABS	2	2	24VD	0	1	0.809085130692	None	None	None	None	1
1.7	2015_Oct_12_1339	s	s	21	1	SIC	261	RC	0	1	23RO	1	0	2.800770998	-205.0	333.0	-202	336	1
1.7	2015_Oct_12_1339	s	s	21	1	SIC	262	ABS	2	1	24VO	0	1	0.682085037231	None	None	None	None	1
1.7	2015_Oct_12_1339	s	s	21	1	SIC	263	RC	2	0	23VC	1	0	0.524291992188	-304.0	-180.0	-301	-176	1
1.7	2015_Oct_12_1339	s	s	21	1	SIC	264	ABS	2	0	24VC	0	1	1.0540099144	None	None	None	None	1
1.7	2015_Oct_12_1339	s	s	21	1	SIC	265	ABS	1	2	24MD	0	1	1.69429898262	None	None	None	None	1
1.7	2015_Oct_12_1339	s	s	21	1	SIC	266	RC	0	2	23RD	1	0	0.512262105942	247.0	-28.0	251	-20	1
1.7	2015_Oct_12_1339	s	s	21	1	SIC	267	RC	1	1	23MO	0	1	2.73004603386	510.0	-387.0	None	None	0
1.7	2015_Oct_12_1339	s	s	21	1	SIC	268	ABS	1	0	24MC	0	1	2.99578976631	None	None	None	None	1
1.7	2015_Oct_12_1339	s	s	21	1	SIC	269	ABS	0	1	24RO	0	1	4.32743215561	None	None	None	None	1
1.7	2015_Oct_12_1339	s	s	21	1	SIC	270	ABS	1	1	24MO	0	1	2.37743496895	None	None	None	None	1
1.7	2015_Oct_12_1339	s	s	21	1	SIC	271	RC	2	2	23VD	1	0	0.623569965363	383.0	-88.0	390	-92	1
1.7	2015_Oct_12_1339	s	s	21	1	SIC	272	ABS	0	2	24RD	0	1	1.37297081947	None	None	None	None	1
1.7	2015_Oct_12_1339	s	s	21	1	SIC	273	RC	0	1	23RO	1	0	4.31919312477	-325.0	-173.0	-321	-165	1
1.7	2015_Oct_12_1339	s	s	21	1	SIC	274	RC	1	0	23MC	1	0	2.74186587334	-260.0	275.0	-250	275	1
1.7	2015_Oct_12_1339	s	s	21	1	SIC	275	ABS	0	1	24RO	0	1	3.71886992455	None	None	None	None	1
1.7	2015_Oct_12_1339	s	s	21	1	SIC	276	ABS	0	2	24RD	0	1	1.3718650341	None	None	None	None	1
1.7	2015_Oct_12_1339	s	s	21	1	SIC	277	RC	1	1	23MO	1	0	1.36477899551	263.0	360.0	271	362	1
1.7	2015_Oct_12_1339	s	s	21	1	SIC	278	RC	0	2	23RD	1	0	1.23255491257	516.0	-313.0	524	-310	1
1.7	2015_Oct_12_1339	s	s	21	1	SIC	279	ABS	1	0	24MC	0	1	3.96095299721	None	None	None	None	1
1.7	2015_Oct_12_1339	s	s	21	1	SIC	280	RC	2	1	23VO	1	0	0.752659082413	49.0	191.0	55	189	1
1.7	2015_Oct_12_1339	s	s	21	1	SIC	281	ABS	1	1	24MO	0	1	3.88370800018	None	None	None	None	1
1.7	2015_Oct_12_1339	s	s	21	1	SIC	282	ABS	1	2	24MD	0	1	1.65907096863	None	None	None	None	1
1.7	2015_Oct_12_1339	s	s	21	1	SIC	283	ABS	2	2	24VD	0	1	0.937422037125	None	None	None	None	1
1.7	2015_Oct_12_1339	s	s	21	1	SIC	284	RC	2	2	23VD	1	0	0.63236117363	166.0	-81.0	171	-79	1
1.7	2015_Oct_12_1339	s	s	21	1	SIC	285	RC	2	0	23VC	1	0	0.493716955185	261.0	-112.0	256	-113	1
1.7	2015_Oct_12_1339	s	s	21	1	SIC	286	RC	1	2	23MD	1	0	0.517321109772	-533.0	145.0	-527	141	1
1.7	2015_Oct_12_1339	s	s	21	1	SIC	287	ABS	2	1	24VO	0	1	1.73632979393	None	None	None	None	1
1.7	2015_Oct_12_1339	s	s	21	1	SIC	288	ABS	2	0	24VC	0	1	1.12302708626	None	None	None	None	1
1.7	2015_Oct_12_1339	s	s	21	1	SIC	289	ABS	1	1	24MO	0	1	5.16666293144	None	None	None	None	1
1.7	2015_Oct_12_1339	s	s	21	1	SIC	290	RC	2	1	23VO	1	0	0.546158075333	164.0	45.0	162	47	1
1.7	2015_Oct_12_1339	s	s	21	1	SIC	291	RC	1	1	23MO	1	0	1.7060379982	342.0	-282.0	349	-283	1
1.7	2015_Oct_12_1339	s	s	21	1	SIC	292	ABS	0	1	24RO	0	1	3.15995597839	None	None	None	None	1
1.7	2015_Oct_12_1339	s	s	21	1	SIC	293	ABS	1	0	24MC	0	1	3.14208197594	None	None	None	None	1
1.7	2015_Oct_12_1339	s	s	21	1	SIC	294	RC	2	2	23VD	1	0	0.599706172943	231.0	-265.0	229	-263	1
1.7	2015_Oct_12_1339	s	s	21	1	SIC	295	RC	2	0	23VC	1	0	0.488379955292	27.0	-28.0	34	-30	1
1.7	2015_Oct_12_1339	s	s	21	1	SIC	296	ABS	1	2	24MD	0	1	1.16461801529	None	None	None	None	1
1.7	2015_Oct_12_1339	s	s	21	1	SIC	297	RC	1	0	23MC	1	0	1.87928891182	-227.0	-401.0	-227	-402	1
1.7	2015_Oct_12_1339	s	s	21	1	SIC	298	ABS	2	0	24VC	0	1	0.879590988159	None	None	None	None	1
1.7	2015_Oct_12_1339	s	s	21	1	SIC	299	RC	0	2	23RD	1	0	1.28236699104	486.0	256.0	486	253	1
1.7	2015_Oct_12_1339	s	s	21	1	SIC	300	RC	0	1	23RO	0	1	3.49112486839	237.0	-67.0	None	None	0
1.7	2015_Oct_12_1339	s	s	21	1	SIC	301	ABS	0	2	24RD	0	1	1.63032698631	None	None	None	None	1
1.7	2015_Oct_12_1339	s	s	21	1	SIC	302	ABS	2	2	24VD	0	1	0.687427997589	None	None	None	None	1
1.7	2015_Oct_12_1339	s	s	21	1	SIC	303	RC	1	2	23MD	1	0	0.623223781586	40.0	-319.0	33	-312	1
1.7	2015_Oct_12_1339	s	s	21	1	SIC	304	ABS	2	1	24VO	0	1	0.88213801384	None	None	None	None	1
1.7	2015_Oct_12_1339	s	s	21	1	SIC	305	RC	2	0	23VC	1	0	0.493770122528	-53.0	18.0	-56	9	1
1.7	2015_Oct_12_1339	s	s	21	1	SIC	306	RC	2	2	23VD	1	0	0.688721179962	199.0	-47.0	208	-47	1
1.7	2015_Oct_12_1339	s	s	21	1	SIC	307	RC	2	1	23VO	1	0	0.500602006912	190.0	0.0	189	-6	1
1.7	2015_Oct_12_1339	s	s	21	1	SIC	308	RC	1	2	23MD	1	0	0.864551067352	481.0	319.0	487	317	1
1.7	2015_Oct_12_1339	s	s	21	1	SIC	309	RC	0	2	23RD	1	0	0.63499212265	-70.0	239.0	-66	238	1
1.7	2015_Oct_12_1339	s	s	21	1	SIC	310	RC	0	1	23RO	0	1	4.08382296562	173.0	-258.0	None	None	0
1.7	2015_Oct_12_1339	s	s	21	1	SIC	311	RC	1	0	23MC	1	0	1.48245811462	443.0	59.0	450	53	1
1.7	2015_Oct_12_1339	s	s	21	1	SIC	312	ABS	1	2	24MD	0	1	1.37091684341	None	None	None	None	1
1.7	2015_Oct_12_1339	s	s	21	1	SIC	313	ABS	2	1	24VO	0	1	1.15268301964	None	None	None	None	1
1.7	2015_Oct_12_1339	s	s	21	1	SIC	314	ABS	2	0	24VC	0	1	0.746891975403	None	None	None	None	1
1.7	2015_Oct_12_1339	s	s	21	1	SIC	315	ABS	1	0	24MC	0	1	4.02251505852	None	None	None	None	1
1.7	2015_Oct_12_1339	s	s	21	1	SIC	316	ABS	2	2	24VD	0	1	0.670216083527	None	None	None	None	1
1.7	2015_Oct_12_1339	s	s	21	1	SIC	317	RC	1	1	23MO	1	0	2.69483804703	87.0	360.0	94	355	1
1.7	2015_Oct_12_1339	s	s	21	1	SIC	318	ABS	0	2	24RD	0	1	2.18875002861	None	None	None	None	1
1.7	2015_Oct_12_1339	s	s	21	1	SIC	319	ABS	1	1	24MO	0	1	3.64830684662	None	None	None	None	1
1.7	2015_Oct_12_1339	s	s	21	1	SIC	320	ABS	0	1	24RO	0	1	3.56256198883	None	None	None	None	1
1.7	2015_Oct_12_1339	s	s	21	1	SIC	321	RC	0	1	23RO	1	0	1.30632805824	245.0	410.0	242	408	1
1.7	2015_Oct_12_1339	s	s	21	1	SIC	322	ABS	1	2	24MD	0	1	0.846829175949	None	None	None	None	1
1.7	2015_Oct_12_1339	s	s	21	1	SIC	323	ABS	2	2	24VD	0	1	0.63486790657	None	None	None	None	1
1.7	2015_Oct_12_1339	s	s	21	1	SIC	324	RC	2	1	23VO	1	0	0.570979118347	-3.0	360.0	-9	365	1
1.7	2015_Oct_12_1339	s	s	21	1	SIC	325	RC	1	2	23MD	1	0	0.735846042633	178.0	340.0	175	337	1
1.7	2015_Oct_12_1339	s	s	21	1	SIC	326	ABS	1	0	24MC	0	1	3.34875297546	None	None	None	None	1
1.7	2015_Oct_12_1339	s	s	21	1	SIC	327	RC	2	2	23VD	1	0	0.557937145233	307.0	-296.0	310	-291	1
1.7	2015_Oct_12_1339	s	s	21	1	SIC	328	ABS	2	1	24VO	0	1	0.667644023895	None	None	None	None	1
1.7	2015_Oct_12_1339	s	s	21	1	SIC	329	RC	0	2	23RD	1	0	0.689273118973	-468.0	-88.0	-465	-93	1
1.7	2015_Oct_12_1339	s	s	21	1	SIC	330	ABS	2	0	24VC	0	1	0.717347145081	None	None	None	None	1
1.7	2015_Oct_12_1339	s	s	21	1	SIC	331	ABS	1	1	24MO	0	1	3.6693880558	None	None	None	None	1
1.7	2015_Oct_12_1339	s	s	21	1	SIC	332	ABS	0	1	24RO	0	1	4.14935493469	None	None	None	None	1
1.7	2015_Oct_12_1339	s	s	21	1	SIC	333	RC	2	0	23VC	1	0	0.505635023117	-202.0	-175.0	-197	-173	1
1.7	2015_Oct_12_1339	s	s	21	1	SIC	334	RC	1	0	23MC	1	0	1.32439398766	-329.0	343.0	-325	342	1
1.7	2015_Oct_12_1339	s	s	21	1	SIC	335	ABS	0	2	24RD	0	1	1.96234202385	None	None	None	None	1
1.7	2015_Oct_12_1339	s	s	21	1	SIC	336	RC	1	1	23MO	1	0	0.874092102051	234.0	251.0	231	256	1
1.7	2015_Oct_12_1339	s	s	21	1	SIC	337	ABS	1	2	24MD	0	1	1.4539270401	None	None	None	None	1
1.7	2015_Oct_12_1339	s	s	21	1	SIC	338	ABS	1	1	24MO	0	1	2.30638718605	None	None	None	None	1
1.7	2015_Oct_12_1339	s	s	21	1	SIC	339	RC	1	2	23MD	1	0	0.634912967682	-116.0	339.0	-114	336	1
1.7	2015_Oct_12_1339	s	s	21	1	SIC	340	ABS	2	0	24VC	0	1	0.829478025436	None	None	None	None	1
1.7	2015_Oct_12_1339	s	s	21	1	SIC	341	ABS	0	1	24RO	0	1	3.22036600113	None	None	None	None	1
1.7	2015_Oct_12_1339	s	s	21	1	SIC	342	RC	2	2	23VD	1	0	0.80052113533	-329.0	48.0	-329	49	1
1.7	2015_Oct_12_1339	s	s	21	1	SIC	343	RC	2	1	23VO	1	0	0.481981992722	-318.0	-174.0	-318	-172	1
1.7	2015_Oct_12_1339	s	s	21	1	SIC	344	ABS	2	1	24VO	0	1	0.80699801445	None	None	None	None	1
1.7	2015_Oct_12_1339	s	s	21	1	SIC	345	RC	0	1	23RO	0	1	3.80169582367	-84.0	237.0	None	None	0
1.7	2015_Oct_12_1339	s	s	21	1	SIC	346	RC	0	2	23RD	1	0	0.925947904587	-11.0	-45.0	-13	-51	1
1.7	2015_Oct_12_1339	s	s	21	1	SIC	347	RC	1	1	23MO	1	0	0.634818077087	119.0	104.0	123	107	1
1.7	2015_Oct_12_1339	s	s	21	1	SIC	348	ABS	0	2	24RD	0	1	1.49421620369	None	None	None	None	1
1.7	2015_Oct_12_1339	s	s	21	1	SIC	349	RC	1	0	23MC	1	0	1.96509790421	113.0	-161.0	114	-170	1
1.7	2015_Oct_12_1339	s	s	21	1	SIC	350	ABS	2	2	24VD	0	1	0.744965076447	None	None	None	None	1
1.7	2015_Oct_12_1339	s	s	21	1	SIC	351	ABS	1	0	24MC	0	1	3.66675496101	None	None	None	None	1
1.7	2015_Oct_12_1339	s	s	21	1	SIC	352	RC	2	0	23VC	1	0	0.799744129181	531.0	379.0	525	381	1
1.7	2015_Oct_12_1339	s	s	21	1	SIC	353	RC	1	1	23MO	1	0	1.67082905769	33.0	303.0	41	299	1
1.7	2015_Oct_12_1339	s	s	21	1	SIC	354	ABS	2	0	24VC	0	1	1.05866885185	None	None	None	None	1
1.7	2015_Oct_12_1339	s	s	21	1	SIC	355	RC	1	2	23MD	1	0	0.500566005707	-136.0	-72.0	-138	-76	1
1.7	2015_Oct_12_1339	s	s	21	1	SIC	356	ABS	0	1	24RO	0	1	3.13701319695	None	None	None	None	1
1.7	2015_Oct_12_1339	s	s	21	1	SIC	357	ABS	1	0	24MC	0	1	4.0200521946	None	None	None	None	1
1.7	2015_Oct_12_1339	s	s	21	1	SIC	358	ABS	1	2	24MD	0	1	1.80635809898	None	None	None	None	1
1.7	2015_Oct_12_1339	s	s	21	1	SIC	359	RC	0	1	23RO	1	0	1.81196284294	-525.0	-83.0	-528	-83	1
1.7	2015_Oct_12_1339	s	s	21	1	SIC	360	ABS	0	2	24RD	0	1	2.12982392311	None	None	None	None	1
1.7	2015_Oct_12_1339	s	s	21	1	SIC	361	ABS	2	2	24VD	0	1	1.28234887123	None	None	None	None	1
1.7	2015_Oct_12_1339	s	s	21	1	SIC	362	RC	2	2	23VD	1	0	0.489294052124	139.0	-410.0	144	-417	1
1.7	2015_Oct_12_1339	s	s	21	1	SIC	363	RC	2	0	23VC	1	0	0.529065132141	180.0	-229.0	177	-235	1
1.7	2015_Oct_12_1339	s	s	21	1	SIC	364	ABS	1	1	24MO	0	1	3.53714394569	None	None	None	None	1
1.7	2015_Oct_12_1339	s	s	21	1	SIC	365	RC	2	1	23VO	1	0	0.523910999298	206.0	203.0	210	206	1
1.7	2015_Oct_12_1339	s	s	21	1	SIC	366	RC	1	0	23MC	1	0	0.623140096664	-4.0	162.0	-2	162	1
1.7	2015_Oct_12_1339	s	s	21	1	SIC	367	RC	0	2	23RD	1	0	0.606383085251	529.0	77.0	539	79	1
1.7	2015_Oct_12_1339	s	s	21	1	SIC	368	ABS	2	1	24VO	0	1	0.952762126923	None	None	None	None	1
1.7	2015_Oct_12_1339	s	s	21	1	SIC	369	RC	0	1	23RO	0	1	2.9477519989	30.0	-404.0	None	None	0
1.7	2015_Oct_12_1339	s	s	21	1	SIC	370	ABS	1	1	24MO	0	1	3.09112906456	None	None	None	None	1
1.7	2015_Oct_12_1339	s	s	21	1	SIC	371	ABS	2	0	24VC	0	1	0.794900894165	None	None	None	None	1
1.7	2015_Oct_12_1339	s	s	21	1	SIC	372	RC	1	0	23MC	1	0	0.941031932831	-285.0	-191.0	-282	-183	1
1.7	2015_Oct_12_1339	s	s	21	1	SIC	373	RC	0	2	23RD	1	0	0.594691038132	-363.0	-6.0	-369	-4	1
1.7	2015_Oct_12_1339	s	s	21	1	SIC	374	RC	2	1	23VO	1	0	0.523933172226	39.0	298.0	42	295	1
1.7	2015_Oct_12_1339	s	s	21	1	SIC	375	RC	2	0	23VC	1	0	0.571371078491	-496.0	-212.0	-494	-209	1
1.7	2015_Oct_12_1339	s	s	21	1	SIC	376	RC	1	1	23MO	1	0	1.89444518089	-249.0	400.0	-249	405	1
1.7	2015_Oct_12_1339	s	s	21	1	SIC	377	ABS	0	1	24RO	0	1	3.10181093216	None	None	None	None	1
1.7	2015_Oct_12_1339	s	s	21	1	SIC	378	RC	2	2	23VD	1	0	0.764342069626	-138.0	-332.0	-136	-333	1
1.7	2015_Oct_12_1339	s	s	21	1	SIC	379	ABS	2	2	24VD	0	1	0.842740058899	None	None	None	None	1
1.7	2015_Oct_12_1339	s	s	21	1	SIC	380	ABS	2	1	24VO	0	1	1.10108613968	None	None	None	None	1
1.7	2015_Oct_12_1339	s	s	21	1	SIC	381	ABS	1	2	24MD	0	1	1.54941320419	None	None	None	None	1
1.7	2015_Oct_12_1339	s	s	21	1	SIC	382	RC	1	2	23MD	1	0	0.559397935867	-458.0	-191.0	-450	-195	1
1.7	2015_Oct_12_1339	s	s	21	1	SIC	383	ABS	0	2	24RD	0	1	1.49431109428	None	None	None	None	1
1.7	2015_Oct_12_1339	s	s	21	1	SIC	384	ABS	1	0	24MC	0	1	3.72566795349	None	None	None	None	1
1.7	2015_Oct_12_1339	s	s	21	1	SIC	385	RC	0	1	23RO	1	0	2.89496994019	334.0	344.0	328	341	1
1.7	2015_Oct_12_1339	s	s	21	1	SIC	386	ABS	0	2	24RD	0	1	1.50266098976	None	None	None	None	1
1.7	2015_Oct_12_1339	s	s	21	1	SIC	387	RC	2	2	23VD	1	0	0.712499856949	-440.0	249.0	-435	258	1
1.7	2015_Oct_12_1339	s	s	21	1	SIC	388	RC	1	0	23MC	1	0	1.35301685333	272.0	-188.0	280	-192	1
1.7	2015_Oct_12_1339	s	s	21	1	SIC	389	ABS	1	0	24MC	0	1	2.5536301136	None	None	None	None	1
1.7	2015_Oct_12_1339	s	s	21	1	SIC	390	RC	1	2	23MD	1	0	0.670691013336	-88.0	-266.0	-83	-277	1
1.7	2015_Oct_12_1339	s	s	21	1	SIC	391	RC	2	0	23VC	1	0	0.547477006912	300.0	232.0	299	232	1
1.7	2015_Oct_12_1339	s	s	21	1	SIC	392	ABS	2	1	24VO	0	1	0.988060951233	None	None	None	None	1
1.7	2015_Oct_12_1339	s	s	21	1	SIC	393	ABS	2	0	24VC	0	1	0.65873003006	None	None	None	None	1
1.7	2015_Oct_12_1339	s	s	21	1	SIC	394	RC	1	1	23MO	1	0	0.811708927155	227.0	-107.0	224	-113	1
1.7	2015_Oct_12_1339	s	s	21	1	SIC	395	ABS	1	2	24MD	0	1	1.18547487259	None	None	None	None	1
1.7	2015_Oct_12_1339	s	s	21	1	SIC	396	ABS	2	2	24VD	0	1	0.735680818558	None	None	None	None	1
1.7	2015_Oct_12_1339	s	s	21	1	SIC	397	ABS	0	1	24RO	0	1	3.81981897354	None	None	None	None	1
1.7	2015_Oct_12_1339	s	s	21	1	SIC	398	ABS	1	1	24MO	0	1	3.47167992592	None	None	None	None	1
1.7	2015_Oct_12_1339	s	s	21	1	SIC	399	RC	2	1	23VO	1	0	0.700762033463	334.0	408.0	340	406	1
1.7	2015_Oct_12_1339	s	s	21	1	SIC	400	RC	0	2	23RD	1	0	0.713024139404	-2.0	-229.0	4	-228	1
1.7	2015_Oct_12_1339	s	s	21	1	SIC	401	ABS	2	2	24VD	0	1	0.611498832703	None	None	None	None	1
1.7	2015_Oct_12_1339	s	s	21	1	SIC	402	ABS	0	2	24RD	0	1	1.54978990555	None	None	None	None	1
1.7	2015_Oct_12_1339	s	s	21	1	SIC	403	RC	1	2	23MD	1	0	0.561677932739	120.0	-178.0	121	-181	1
1.7	2015_Oct_12_1339	s	s	21	1	SIC	404	RC	2	2	23VD	1	0	0.470263957977	-160.0	144.0	-158	147	1
1.7	2015_Oct_12_1339	s	s	21	1	SIC	405	ABS	1	1	24MO	0	1	2.95373797417	None	None	None	None	1
1.7	2015_Oct_12_1339	s	s	21	1	SIC	406	ABS	1	2	24MD	0	1	1.2657289505	None	None	None	None	1
1.7	2015_Oct_12_1339	s	s	21	1	SIC	407	RC	0	1	23RO	1	0	2.47128200531	116.0	-402.0	112	-408	1
1.7	2015_Oct_12_1339	s	s	21	1	SIC	408	RC	0	2	23RD	1	0	0.529063940048	-231.0	121.0	-234	121	1
1.7	2015_Oct_12_1339	s	s	21	1	SIC	409	RC	2	1	23VO	1	0	0.517193078995	-413.0	67.0	-413	62	1
1.7	2015_Oct_12_1339	s	s	21	1	SIC	410	ABS	2	1	24VO	0	1	0.788020133972	None	None	None	None	1
1.7	2015_Oct_12_1339	s	s	21	1	SIC	411	RC	2	0	23VC	1	0	0.677344083786	76.0	333.0	74	327	1
1.7	2015_Oct_12_1339	s	s	21	1	SIC	412	RC	1	0	23MC	1	0	2.24489879608	-336.0	-358.0	-331	-359	1
1.7	2015_Oct_12_1339	s	s	21	1	SIC	413	ABS	2	0	24VC	0	1	0.865397930145	None	None	None	None	1
1.7	2015_Oct_12_1339	s	s	21	1	SIC	414	RC	1	1	23MO	1	0	0.823287963867	-435.0	-42.0	-429	-43	1
1.7	2015_Oct_12_1339	s	s	21	1	SIC	415	ABS	1	0	24MC	0	1	3.30688905716	None	None	None	None	1
1.7	2015_Oct_12_1339	s	s	21	1	SIC	416	ABS	0	1	24RO	0	1	2.9508728981	None	None	None	None	1
1.7	2015_Oct_12_1339	s	s	21	1	SIC	417	ABS	1	0	24MC	0	1	2.40648317337	None	None	None	None	1
1.7	2015_Oct_12_1339	s	s	21	1	SIC	418	ABS	2	2	24VD	0	1	0.941012859344	None	None	None	None	1
1.7	2015_Oct_12_1339	s	s	21	1	SIC	419	ABS	0	2	24RD	0	1	1.14785385132	None	None	None	None	1
1.7	2015_Oct_12_1339	s	s	21	1	SIC	420	RC	2	0	23VC	1	0	0.517293930054	-94.0	227.0	-95	231	1
1.7	2015_Oct_12_1339	s	s	21	1	SIC	421	ABS	0	1	24RO	0	1	5.37860012054	None	None	None	None	1
1.7	2015_Oct_12_1339	s	s	21	1	SIC	422	RC	2	2	23VD	1	0	0.540859937668	-60.0	-182.0	-56	-187	1
1.7	2015_Oct_12_1339	s	s	21	1	SIC	423	ABS	2	0	24VC	0	1	0.712451934814	None	None	None	None	1
1.7	2015_Oct_12_1339	s	s	21	1	SIC	424	RC	1	1	23MO	1	0	0.870489120483	-306.0	-150.0	-308	-155	1
1.7	2015_Oct_12_1339	s	s	21	1	SIC	425	RC	1	0	23MC	1	0	0.971591949463	19.0	-285.0	18	-284	1
1.7	2015_Oct_12_1339	s	s	21	1	SIC	426	ABS	2	1	24VO	0	1	1.40013408661	None	None	None	None	1
1.7	2015_Oct_12_1339	s	s	21	1	SIC	427	RC	1	2	23MD	1	0	0.587927818298	-460.0	186.0	-460	189	1
1.7	2015_Oct_12_1339	s	s	21	1	SIC	428	RC	2	1	23VO	1	0	1.08918714523	507.0	-305.0	506	-309	1
1.7	2015_Oct_12_1339	s	s	21	1	SIC	429	ABS	1	2	24MD	0	1	1.38556909561	None	None	None	None	1
1.7	2015_Oct_12_1339	s	s	21	1	SIC	430	RC	0	2	23RD	1	0	0.771344900131	-425.0	-292.0	-422	-296	1
1.7	2015_Oct_12_1339	s	s	21	1	SIC	431	ABS	1	1	24MO	0	1	3.28335905075	None	None	None	None	1
1.7	2015_Oct_12_1339	s	s	21	1	SIC	432	RC	0	1	23RO	1	0	1.81894803047	-340.0	-139.0	-336	-141	1
1.7	2015_Oct_12_1339	s	s	21	1	SIC	433	ABS	2	0	24VC	0	1	0.717354059219	None	None	None	None	1
1.7	2015_Oct_12_1339	s	s	21	1	SIC	434	RC	1	1	23MO	1	0	0.952651023865	-234.0	-209.0	-235	-214	1
1.7	2015_Oct_12_1339	s	s	21	1	SIC	435	ABS	0	1	24RO	0	1	2.87805509567	None	None	None	None	1
1.7	2015_Oct_12_1339	s	s	21	1	SIC	436	RC	2	1	23VO	1	0	0.694245100021	-21.0	-334.0	-23	-341	1
1.7	2015_Oct_12_1339	s	s	21	1	SIC	437	RC	0	1	23RO	1	0	1.67761397362	-208.0	-73.0	-202	-77	1
1.7	2015_Oct_12_1339	s	s	21	1	SIC	438	ABS	2	2	24VD	0	1	0.576168060303	None	None	None	None	1
1.7	2015_Oct_12_1339	s	s	21	1	SIC	439	RC	1	2	23MD	1	0	0.77116394043	277.0	162.0	284	162	1
1.7	2015_Oct_12_1339	s	s	21	1	SIC	440	ABS	1	1	24MO	0	1	2.33036208153	None	None	None	None	1
1.7	2015_Oct_12_1339	s	s	21	1	SIC	441	ABS	1	0	24MC	0	1	2.85705900192	None	None	None	None	1
1.7	2015_Oct_12_1339	s	s	21	1	SIC	442	RC	1	0	23MC	1	0	0.618126869202	-180.0	73.0	-174	70	1
1.7	2015_Oct_12_1339	s	s	21	1	SIC	443	ABS	0	2	24RD	0	1	1.84204387665	None	None	None	None	1
1.7	2015_Oct_12_1339	s	s	21	1	SIC	444	ABS	2	1	24VO	0	1	0.764377832413	None	None	None	None	1
1.7	2015_Oct_12_1339	s	s	21	1	SIC	445	RC	2	2	23VD	1	0	0.584432125092	-429.0	387.0	-430	383	1
1.7	2015_Oct_12_1339	s	s	21	1	SIC	446	RC	2	0	23VC	1	0	0.736310958862	-497.0	-370.0	-493	-374	1
1.7	2015_Oct_12_1339	s	s	21	1	SIC	447	ABS	1	2	24MD	0	1	1.20005989075	None	None	None	None	1
1.7	2015_Oct_12_1339	s	s	21	1	SIC	448	RC	0	2	23RD	1	0	0.535946846008	-431.0	394.0	-427	391	1
1.7	2015_Oct_12_1339	s	s	21	1	SIC	449	ABS	2	1	24VO	0	1	0.646694898605	None	None	None	None	1
1.7	2015_Oct_12_1339	s	s	21	1	SIC	450	RC	2	1	23VO	1	0	0.489770889282	232.0	284.0	231	280	1
1.7	2015_Oct_12_1339	s	s	21	1	SIC	451	RC	2	2	23VD	1	0	0.458687067032	155.0	231.0	156	225	1
1.7	2015_Oct_12_1339	s	s	21	1	SIC	452	ABS	1	2	24MD	0	1	1.08882308006	None	None	None	None	1
1.7	2015_Oct_12_1339	s	s	21	1	SIC	453	ABS	0	2	24RD	0	1	1.34114098549	None	None	None	None	1
1.7	2015_Oct_12_1339	s	s	21	1	SIC	454	RC	2	0	23VC	1	0	0.547758102417	-193.0	-393.0	-185	-393	1
1.7	2015_Oct_12_1339	s	s	21	1	SIC	455	ABS	2	2	24VD	0	1	0.618140935898	None	None	None	None	1
1.7	2015_Oct_12_1339	s	s	21	1	SIC	456	ABS	2	0	24VC	0	1	0.787964105606	None	None	None	None	1
1.7	2015_Oct_12_1339	s	s	21	1	SIC	457	ABS	0	1	24RO	0	1	2.98546409607	None	None	None	None	1
1.7	2015_Oct_12_1339	s	s	21	1	SIC	458	RC	0	1	23RO	1	0	1.15283107758	462.0	204.0	472	204	1
1.7	2015_Oct_12_1339	s	s	21	1	SIC	459	RC	1	1	23MO	1	0	1.1717851162	450.0	-104.0	455	-101	1
1.7	2015_Oct_12_1339	s	s	21	1	SIC	460	ABS	1	0	24MC	0	1	2.65984201431	None	None	None	None	1
1.7	2015_Oct_12_1339	s	s	21	1	SIC	461	RC	0	2	23RD	1	0	0.634742975235	-483.0	153.0	-474	153	1
1.7	2015_Oct_12_1339	s	s	21	1	SIC	462	ABS	1	1	24MO	0	1	2.1834769249	None	None	None	None	1
1.7	2015_Oct_12_1339	s	s	21	1	SIC	463	RC	1	0	23MC	1	0	1.00685596466	397.0	411.0	402	408	1
1.7	2015_Oct_12_1339	s	s	21	1	SIC	464	RC	1	2	23MD	1	0	0.729147911072	-337.0	-354.0	-340	-354	1
1.7	2015_Oct_12_1339	s	s	21	1	SIC	465	RC	1	1	23MO	1	0	1.11430716515	204.0	361.0	209	363	1
1.7	2015_Oct_12_1339	s	s	21	1	SIC	466	ABS	1	1	24MO	0	1	2.60056185722	None	None	None	None	1
1.7	2015_Oct_12_1339	s	s	21	1	SIC	467	RC	2	1	23VO	1	0	0.618412017822	444.0	211.0	448	208	1
1.7	2015_Oct_12_1339	s	s	21	1	SIC	468	ABS	1	0	24MC	0	1	1.98422384262	None	None	None	None	1
1.7	2015_Oct_12_1339	s	s	21	1	SIC	469	RC	1	2	23MD	1	0	0.670302867889	-356.0	324.0	-350	318	1
1.7	2015_Oct_12_1339	s	s	21	1	SIC	470	ABS	2	2	24VD	0	1	0.729145050049	None	None	None	None	1
1.7	2015_Oct_12_1339	s	s	21	1	SIC	471	RC	2	2	23VD	1	0	0.564410924911	396.0	-105.0	398	-100	1
1.7	2015_Oct_12_1339	s	s	21	1	SIC	472	ABS	2	0	24VC	0	1	0.643084049225	None	None	None	None	1
1.7	2015_Oct_12_1339	s	s	21	1	SIC	473	RC	2	0	23VC	1	0	0.488237142563	478.0	18.0	478	19	1
1.7	2015_Oct_12_1339	s	s	21	1	SIC	474	ABS	0	1	24RO	0	1	5.22033286095	None	None	None	None	1
1.7	2015_Oct_12_1339	s	s	21	1	SIC	475	ABS	1	2	24MD	0	1	0.983022928238	None	None	None	None	1
1.7	2015_Oct_12_1339	s	s	21	1	SIC	476	RC	0	2	23RD	1	0	0.653495073318	-445.0	202.0	-446	202	1
1.7	2015_Oct_12_1339	s	s	21	1	SIC	477	RC	0	1	23RO	1	0	2.97737216949	324.0	381.0	325	378	1
1.7	2015_Oct_12_1339	s	s	21	1	SIC	478	RC	1	0	23MC	1	0	2.1603410244	-230.0	-318.0	-226	-316	1
1.7	2015_Oct_12_1339	s	s	21	1	SIC	479	ABS	2	1	24VO	0	1	0.726401090622	None	None	None	None	1
1.7	2015_Oct_12_1339	s	s	21	1	SIC	480	ABS	0	2	24RD	0	1	1.32944583893	None	None	None	None	1
1.7	2015_Oct_12_1339	s	s	21	1	SIC	481	RC	1	0	23MC	1	0	0.91748714447	-300.0	71.0	-299	66	1
1.7	2015_Oct_12_1339	s	s	21	1	SIC	482	ABS	1	1	24MO	0	1	2.0239200592	None	None	None	None	1
1.7	2015_Oct_12_1339	s	s	21	1	SIC	483	RC	2	2	23VD	1	0	0.498930931091	-280.0	342.0	-277	333	1
1.7	2015_Oct_12_1339	s	s	21	1	SIC	484	RC	0	2	23RD	1	0	0.529098987579	59.0	-117.0	57	-116	1
1.7	2015_Oct_12_1339	s	s	21	1	SIC	485	ABS	2	1	24VO	0	1	1.371945858	None	None	None	None	1
1.7	2015_Oct_12_1339	s	s	21	1	SIC	486	ABS	1	0	24MC	0	1	5.62079811096	None	None	None	None	1
1.7	2015_Oct_12_1339	s	s	21	1	SIC	487	RC	1	2	23MD	1	0	0.700277090073	-440.0	317.0	-446	320	1
1.7	2015_Oct_12_1339	s	s	21	1	SIC	488	ABS	0	1	24RO	0	1	2.8800740242	None	None	None	None	1
1.7	2015_Oct_12_1339	s	s	21	1	SIC	489	ABS	0	2	24RD	0	1	1.10072898865	None	None	None	None	1
1.7	2015_Oct_12_1339	s	s	21	1	SIC	490	RC	2	0	23VC	1	0	0.611516952515	112.0	-349.0	116	-350	1
1.7	2015_Oct_12_1339	s	s	21	1	SIC	491	RC	2	1	23VO	1	0	0.576137065887	-142.0	387.0	-140	385	1
1.7	2015_Oct_12_1339	s	s	21	1	SIC	492	RC	1	1	23MO	1	0	1.6658411026	271.0	-377.0	278	-380	1
1.7	2015_Oct_12_1339	s	s	21	1	SIC	493	RC	0	1	23RO	1	0	2.88927412033	-246.0	321.0	-243	325	1
1.7	2015_Oct_12_1339	s	s	21	1	SIC	494	ABS	2	0	24VC	0	1	0.623158931732	None	None	None	None	1
1.7	2015_Oct_12_1339	s	s	21	1	SIC	495	ABS	2	2	24VD	0	1	0.642426013947	None	None	None	None	1
1.7	2015_Oct_12_1339	s	s	21	1	SIC	496	ABS	1	2	24MD	0	1	1.10578203201	None	None	None	None	1
1.7	2015_Oct_12_1339	s	s	21	1	SIC	497	ABS	1	2	24MD	0	1	1.12937307358	None	None	None	None	1
1.7	2015_Oct_12_1339	s	s	21	1	SIC	498	ABS	1	1	24MO	0	1	2.91349601746	None	None	None	None	1
1.7	2015_Oct_12_1339	s	s	21	1	SIC	499	RC	0	1	23RO	1	0	2.80986785889	-476.0	-258.0	-478	-257	1
1.7	2015_Oct_12_1339	s	s	21	1	SIC	500	ABS	0	2	24RD	0	1	1.08761310577	None	None	None	None	1
1.7	2015_Oct_12_1339	s	s	21	1	SIC	501	RC	2	2	23VD	1	0	0.724339008331	-450.0	104.0	-453	103	1
1.7	2015_Oct_12_1339	s	s	21	1	SIC	502	ABS	2	2	24VD	0	1	0.500380039215	None	None	None	None	1
1.7	2015_Oct_12_1339	s	s	21	1	SIC	503	RC	0	2	23RD	1	0	0.665099143982	-137.0	-271.0	-131	-270	1
1.7	2015_Oct_12_1339	s	s	21	1	SIC	504	RC	1	0	23MC	1	0	1.12928891182	79.0	-230.0	80	-230	1
1.7	2015_Oct_12_1339	s	s	21	1	SIC	505	RC	2	0	23VC	1	0	0.58463716507	-510.0	-179.0	-508	-182	1
1.7	2015_Oct_12_1339	s	s	21	1	SIC	506	ABS	0	1	24RO	0	1	4.29564189911	None	None	None	None	1
1.7	2015_Oct_12_1339	s	s	21	1	SIC	507	RC	1	1	23MO	1	0	2.51466703415	97.0	351.0	97	348	1
1.7	2015_Oct_12_1339	s	s	21	1	SIC	508	ABS	2	1	24VO	0	1	0.776266098022	None	None	None	None	1
1.7	2015_Oct_12_1339	s	s	21	1	SIC	509	RC	2	1	23VO	1	0	0.584439992905	526.0	22.0	524	25	1
1.7	2015_Oct_12_1339	s	s	21	1	SIC	510	RC	1	2	23MD	1	0	0.688848972321	-100.0	-375.0	-102	-372	1
1.7	2015_Oct_12_1339	s	s	21	1	SIC	511	ABS	1	0	24MC	0	1	2.86619901657	None	None	None	None	1
1.7	2015_Oct_12_1339	s	s	21	1	SIC	512	ABS	2	0	24VC	0	1	0.700508117676	None	None	None	None	1
1.7	2015_Oct_12_1339	s	s	21	1	SIC	513	ABS	0	2	24RD	0	1	0.870321989059	None	None	None	None	1
1.7	2015_Oct_12_1339	s	s	21	1	SIC	514	RC	1	2	23MD	1	0	0.547603130341	29.0	-236.0	21	-239	1
1.7	2015_Oct_12_1339	s	s	21	1	SIC	515	ABS	2	0	24VC	0	1	0.670286893845	None	None	None	None	1
1.7	2015_Oct_12_1339	s	s	21	1	SIC	516	RC	1	0	23MC	1	0	2.37204694748	342.0	-179.0	341	-170	1
1.7	2015_Oct_12_1339	s	s	21	1	SIC	517	ABS	2	1	24VO	0	1	0.787964105606	None	None	None	None	1
1.7	2015_Oct_12_1339	s	s	21	1	SIC	518	ABS	1	0	24MC	0	1	2.50651812553	None	None	None	None	1
1.7	2015_Oct_12_1339	s	s	21	1	SIC	519	ABS	1	1	24MO	0	1	3.33910799026	None	None	None	None	1
1.7	2015_Oct_12_1339	s	s	21	1	SIC	520	ABS	0	1	24RO	0	1	4.39904999733	None	None	None	None	1
1.7	2015_Oct_12_1339	s	s	21	1	SIC	521	RC	0	1	23RO	1	0	1.82374000549	-403.0	-42.0	-400	-45	1
1.7	2015_Oct_12_1339	s	s	21	1	SIC	522	RC	2	1	23VO	1	0	0.517230987549	310.0	233.0	313	225	1
1.7	2015_Oct_12_1339	s	s	21	1	SIC	523	ABS	2	2	24VD	0	1	0.7005879879	None	None	None	None	1
1.7	2015_Oct_12_1339	s	s	21	1	SIC	524	RC	2	0	23VC	1	0	0.500920057297	303.0	224.0	309	232	1
1.7	2015_Oct_12_1339	s	s	21	1	SIC	525	RC	1	1	23MO	1	0	1.33634090424	-477.0	41.0	-472	41	1
1.7	2015_Oct_12_1339	s	s	21	1	SIC	526	ABS	1	2	24MD	0	1	0.976296901703	None	None	None	None	1
1.7	2015_Oct_12_1339	s	s	21	1	SIC	527	RC	2	2	23VD	1	0	0.593883991241	-40.0	-199.0	-35	-195	1
1.7	2015_Oct_12_1339	s	s	21	1	SIC	528	RC	0	2	23RD	1	0	0.832414865494	418.0	39.0	417	41	1
1.7	2015_Oct_12_1339	s	s	21	1	SIC	529	RC	1	0	23MC	1	0	1.04735994339	435.0	-95.0	437	-94	1
1.7	2015_Oct_12_1339	s	s	21	1	SIC	530	ABS	2	0	24VC	0	1	1.06555700302	None	None	None	None	1
1.7	2015_Oct_12_1339	s	s	21	1	SIC	531	ABS	0	2	24RD	0	1	1.51274895668	None	None	None	None	1
1.7	2015_Oct_12_1339	s	s	21	1	SIC	532	ABS	1	1	24MO	0	1	2.76547980309	None	None	None	None	1
1.7	2015_Oct_12_1339	s	s	21	1	SIC	533	ABS	1	0	24MC	0	1	2.69479107857	None	None	None	None	1
1.7	2015_Oct_12_1339	s	s	21	1	SIC	534	RC	1	1	23MO	1	0	1.31274485588	329.0	147.0	320	152	1
1.7	2015_Oct_12_1339	s	s	21	1	SIC	535	RC	0	2	23RD	1	0	0.799711942673	-539.0	3.0	-535	0	1
1.7	2015_Oct_12_1339	s	s	21	1	SIC	536	RC	2	2	23VD	1	0	0.47712802887	-112.0	321.0	-109	325	1
1.7	2015_Oct_12_1339	s	s	21	1	SIC	537	ABS	1	2	24MD	0	1	1.14111304283	None	None	None	None	1
1.7	2015_Oct_12_1339	s	s	21	1	SIC	538	ABS	0	1	24RO	0	1	4.50215101242	None	None	None	None	1
1.7	2015_Oct_12_1339	s	s	21	1	SIC	539	RC	1	2	23MD	1	0	0.677942037582	480.0	410.0	483	414	1
1.7	2015_Oct_12_1339	s	s	21	1	SIC	540	ABS	2	2	24VD	0	1	0.634995937347	None	None	None	None	1
1.7	2015_Oct_12_1339	s	s	21	1	SIC	541	RC	2	0	23VC	1	0	0.529084920883	303.0	-184.0	304	-185	1
1.7	2015_Oct_12_1339	s	s	21	1	SIC	542	RC	0	1	23RO	1	0	2.90666103363	411.0	-309.0	416	-306	1
1.7	2015_Oct_12_1339	s	s	21	1	SIC	543	ABS	2	1	24VO	0	1	1.37152099609	None	None	None	None	1
1.7	2015_Oct_12_1339	s	s	21	1	SIC	544	RC	2	1	23VO	1	0	0.54083108902	51.0	-379.0	54	-377	1
1.7	2015_Oct_12_1339	s	s	21	1	SIC	545	RC	1	1	23MO	1	0	0.68878698349	-22.0	139.0	-21	140	1
1.7	2015_Oct_12_1339	s	s	21	1	SIC	546	ABS	2	1	24VO	0	1	0.580825090408	None	None	None	None	1
1.7	2015_Oct_12_1339	s	s	21	1	SIC	547	RC	2	2	23VD	1	0	0.529080152512	-533.0	11.0	-528	11	1
1.7	2015_Oct_12_1339	s	s	21	1	SIC	548	RC	0	1	23RO	1	0	1.46588778496	-246.0	84.0	-247	87	1
1.7	2015_Oct_12_1339	s	s	21	1	SIC	549	ABS	0	1	24RO	0	1	3.44559693336	None	None	None	None	1
1.7	2015_Oct_12_1339	s	s	21	1	SIC	550	ABS	2	2	24VD	0	1	0.564317941666	None	None	None	None	1
1.7	2015_Oct_12_1339	s	s	21	1	SIC	551	ABS	1	2	24MD	0	1	1.88261508942	None	None	None	None	1
1.7	2015_Oct_12_1339	s	s	21	1	SIC	552	ABS	1	1	24MO	0	1	3.15390706062	None	None	None	None	1
1.7	2015_Oct_12_1339	s	s	21	1	SIC	553	RC	1	0	23MC	1	0	0.700648784637	-388.0	-85.0	-40	20	0
1.7	2015_Oct_12_1339	s	s	21	1	SIC	554	RC	2	0	23VC	1	0	0.544542789459	291.0	-253.0	285	-258	1
1.7	2015_Oct_12_1339	s	s	21	1	SIC	555	ABS	2	0	24VC	0	1	0.571319818497	None	None	None	None	1
1.7	2015_Oct_12_1339	s	s	21	1	SIC	556	ABS	1	0	24MC	0	1	2.54879999161	None	None	None	None	1
1.7	2015_Oct_12_1339	s	s	21	1	SIC	557	ABS	0	2	24RD	0	1	1.05892086029	None	None	None	None	1
1.7	2015_Oct_12_1339	s	s	21	1	SIC	558	RC	1	2	23MD	1	0	0.547785043716	229.0	-214.0	233	-211	1
1.7	2015_Oct_12_1339	s	s	21	1	SIC	559	RC	2	1	23VO	1	0	0.52931189537	329.0	349.0	332	348	1
1.7	2015_Oct_12_1339	s	s	21	1	SIC	560	RC	0	2	23RD	1	0	0.517247200012	274.0	-325.0	276	-330	1
1.7	2015_Oct_12_1339	s	s	21	1	SIC	561	RC	0	2	23RD	1	0	0.540821075439	-409.0	301.0	-406	295	1
1.7	2015_Oct_12_1339	s	s	21	1	SIC	562	RC	0	1	23RO	1	0	1.02335596085	235.0	187.0	234	190	1
1.7	2015_Oct_12_1339	s	s	21	1	SIC	563	RC	1	1	23MO	1	0	0.71738409996	-237.0	145.0	-233	150	1
1.7	2015_Oct_12_1339	s	s	21	1	SIC	564	RC	2	0	23VC	1	0	0.514690160751	392.0	269.0	394	263	1
1.7	2015_Oct_12_1339	s	s	21	1	SIC	565	ABS	2	2	24VD	0	1	1.01160597801	None	None	None	None	1
1.7	2015_Oct_12_1339	s	s	21	1	SIC	566	RC	1	2	23MD	1	0	0.611388206482	28.0	-177.0	23	-177	1
1.7	2015_Oct_12_1339	s	s	21	1	SIC	567	ABS	0	2	24RD	0	1	1.54739785194	None	None	None	None	1
1.7	2015_Oct_12_1339	s	s	21	1	SIC	568	RC	2	1	23VO	1	0	0.559530973434	208.0	-213.0	212	-220	1
1.7	2015_Oct_12_1339	s	s	21	1	SIC	569	ABS	1	2	24MD	0	1	0.935670852661	None	None	None	None	1
1.7	2015_Oct_12_1339	s	s	21	1	SIC	570	ABS	1	1	24MO	0	1	2.59568810463	None	None	None	None	1
1.7	2015_Oct_12_1339	s	s	21	1	SIC	571	ABS	0	1	24RO	0	1	3.88002300262	None	None	None	None	1
1.7	2015_Oct_12_1339	s	s	21	1	SIC	572	ABS	2	1	24VO	0	1	0.700583934784	None	None	None	None	1
1.7	2015_Oct_12_1339	s	s	21	1	SIC	573	ABS	2	0	24VC	0	1	0.75271987915	None	None	None	None	1
1.7	2015_Oct_12_1339	s	s	21	1	SIC	574	RC	1	0	23MC	1	0	2.83265113831	-436.0	219.0	-434	213	1
1.7	2015_Oct_12_1339	s	s	21	1	SIC	575	RC	2	2	23VD	1	0	0.524149894714	-373.0	-36.0	-373	-34	1
1.7	2015_Oct_12_1339	s	s	21	1	SIC	576	ABS	1	0	24MC	0	1	2.98915696144	None	None	None	None	1
1.7	2015_Oct_12_1339	s	s	21	1	SIC	577	ABS	2	0	24VC	0	1	0.799814939499	None	None	None	None	1
1.7	2015_Oct_12_1339	s	s	21	1	SIC	578	RC	0	2	23RD	1	0	0.623185873032	109.0	221.0	112	230	1
1.7	2015_Oct_12_1339	s	s	21	1	SIC	579	RC	1	0	23MC	1	0	0.583500862122	-174.0	-126.0	-73	-4	0
1.7	2015_Oct_12_1339	s	s	21	1	SIC	580	ABS	0	1	24RO	0	1	3.95851612091	None	None	None	None	1
1.7	2015_Oct_12_1339	s	s	21	1	SIC	581	ABS	0	2	24RD	0	1	0.923530817032	None	None	None	None	1
1.7	2015_Oct_12_1339	s	s	21	1	SIC	582	RC	2	0	23VC	1	0	0.525856971741	490.0	157.0	499	156	1
1.7	2015_Oct_12_1339	s	s	21	1	SIC	583	ABS	1	0	24MC	0	1	4.38978886604	None	None	None	None	1
1.7	2015_Oct_12_1339	s	s	21	1	SIC	584	ABS	2	2	24VD	0	1	0.630097866058	None	None	None	None	1
1.7	2015_Oct_12_1339	s	s	21	1	SIC	585	ABS	1	2	24MD	0	1	0.795032978058	None	None	None	None	1
1.7	2015_Oct_12_1339	s	s	21	1	SIC	586	ABS	2	1	24VO	0	1	0.662150859833	None	None	None	None	1
1.7	2015_Oct_12_1339	s	s	21	1	SIC	587	RC	1	2	23MD	1	0	0.559587955475	161.0	-272.0	159	-270	1
1.7	2015_Oct_12_1339	s	s	21	1	SIC	588	RC	0	1	23RO	0	1	3.48376393318	-204.0	223.0	None	None	0
1.7	2015_Oct_12_1339	s	s	21	1	SIC	589	RC	2	2	23VD	1	0	0.550112962723	1.0	406.0	1	405	1
1.7	2015_Oct_12_1339	s	s	21	1	SIC	590	RC	2	1	23VO	1	0	0.453324079514	-1.0	219.0	3	218	1
1.7	2015_Oct_12_1339	s	s	21	1	SIC	591	RC	1	1	23MO	1	0	0.917473077774	417.0	258.0	420	259	1
1.7	2015_Oct_12_1339	s	s	21	1	SIC	592	ABS	1	1	24MO	0	1	2.73704385757	None	None	None	None	1
