Version	Date	Stimuli	Method	Subject	Session	Condition	Trial	Target	Channel1	Channel2	Distractors	LMouseButton	RMouseButton	RT	TargetX	TargetY	ResponseX	ResponseY	Correct
1.7	2015_Oct_13_1106	s	s	21	2	Capacity	1	RC	0	1	23RO	0	1	3.28340792656	490.0	-184.0	None	None	0
1.7	2015_Oct_13_1106	s	s	21	2	Capacity	2	RC	0	2	23RD	1	0	0.929232120514	463.0	-357.0	470	-356	1
1.7	2015_Oct_13_1106	s	s	21	2	Capacity	3	ABS	0	2	24RD	0	1	1.33554196358	None	None	None	None	1
1.7	2015_Oct_13_1106	s	s	21	2	Capacity	4	ABS	0	1	24RO	0	1	3.5776078701	None	None	None	None	1
1.7	2015_Oct_13_1106	s	s	21	2	Capacity	5	ABS	0	2	24RD	0	1	1.01203489304	None	None	None	None	1
1.7	2015_Oct_13_1106	s	s	21	2	Capacity	6	RC	0	2	23RD	1	0	0.505515098572	391.0	-20.0	390	-25	1
1.7	2015_Oct_13_1106	s	s	21	2	Capacity	7	RC	0	1	23RO	1	0	1.96194505692	-401.0	391.0	-395	393	1
1.7	2015_Oct_13_1106	s	s	21	2	Capacity	8	ABS	0	1	24RO	0	1	4.0955491066	None	None	None	None	1
1.7	2015_Oct_13_1106	s	s	21	2	Capacity	9	ABS	0	2	24RD	0	1	1.24702501297	None	None	None	None	1
1.7	2015_Oct_13_1106	s	s	21	2	Capacity	10	RC	0	2	23RD	1	0	0.500629901886	109.0	-14.0	109	-13	1
1.7	2015_Oct_13_1106	s	s	21	2	Capacity	11	ABS	0	1	24RO	0	1	3.95426487923	None	None	None	None	1
1.7	2015_Oct_13_1106	s	s	21	2	Capacity	12	RC	0	1	23RO	1	0	1.4118719101	395.0	122.0	401	118	1
1.7	2015_Oct_13_1106	s	s	21	2	Capacity	13	ABS	0	1	24RO	0	1	4.59664487839	None	None	None	None	1
1.7	2015_Oct_13_1106	s	s	21	2	Capacity	14	RC	0	2	23RD	1	0	0.607777833939	312.0	-104.0	305	-104	1
1.7	2015_Oct_13_1106	s	s	21	2	Capacity	15	ABS	0	2	24RD	0	1	1.37162899971	None	None	None	None	1
1.7	2015_Oct_13_1106	s	s	21	2	Capacity	16	RC	0	1	23RO	0	1	3.89043998718	-116.0	-110.0	None	None	0
1.7	2015_Oct_13_1106	s	s	21	2	Capacity	17	RC	0	2	23RD	1	0	0.878779888153	-501.0	409.0	-504	403	1
1.7	2015_Oct_13_1106	s	s	21	2	Capacity	18	ABS	0	2	24RD	0	1	1.12582588196	None	None	None	None	1
1.7	2015_Oct_13_1106	s	s	21	2	Capacity	19	ABS	0	1	24RO	0	1	4.33918786049	None	None	None	None	1
1.7	2015_Oct_13_1106	s	s	21	2	Capacity	20	RC	0	1	23RO	1	0	4.17836904526	-188.0	-272.0	-190	-279	1
1.7	2015_Oct_13_1106	s	s	21	2	Capacity	21	RC	0	2	23RD	1	0	0.787940979004	-462.0	83.0	-465	86	1
1.7	2015_Oct_13_1106	s	s	21	2	Capacity	22	RC	0	1	23RO	1	0	1.23208212852	-252.0	-153.0	-250	-152	1
1.7	2015_Oct_13_1106	s	s	21	2	Capacity	23	ABS	0	1	24RO	0	1	5.03200006485	None	None	None	None	1
1.7	2015_Oct_13_1106	s	s	21	2	Capacity	24	ABS	0	2	24RD	0	1	1.94831395149	None	None	None	None	1
1.7	2015_Oct_13_1106	s	s	21	2	Capacity	25	RC	0	1	23RO	1	0	5.43389582634	-426.0	343.0	-424	342	1
1.7	2015_Oct_13_1106	s	s	21	2	Capacity	26	RC	0	2	23RD	1	0	0.752676010132	-86.0	-122.0	-84	-120	1
1.7	2015_Oct_13_1106	s	s	21	2	Capacity	27	ABS	0	2	24RD	0	1	1.25612616539	None	None	None	None	1
1.7	2015_Oct_13_1106	s	s	21	2	Capacity	28	ABS	0	1	24RO	0	1	5.07243895531	None	None	None	None	1
1.7	2015_Oct_13_1106	s	s	21	2	Capacity	29	ABS	0	1	24RO	0	1	4.11951589584	None	None	None	None	1
1.7	2015_Oct_13_1106	s	s	21	2	Capacity	30	RC	0	1	23RO	0	1	4.43181395531	489.0	-31.0	None	None	0
1.7	2015_Oct_13_1106	s	s	21	2	Capacity	31	RC	0	2	23RD	1	0	0.54082608223	-324.0	15.0	-322	17	1
1.7	2015_Oct_13_1106	s	s	21	2	Capacity	32	ABS	0	2	24RD	0	1	0.994880914688	None	None	None	None	1
1.7	2015_Oct_13_1106	s	s	21	2	Capacity	33	RC	0	2	23RD	1	0	0.664623022079	-94.0	-248.0	-94	-255	1
1.7	2015_Oct_13_1106	s	s	21	2	Capacity	34	ABS	0	2	24RD	0	1	1.30594491959	None	None	None	None	1
1.7	2015_Oct_13_1106	s	s	21	2	Capacity	35	ABS	0	1	24RO	0	1	4.57328414917	None	None	None	None	1
1.7	2015_Oct_13_1106	s	s	21	2	Capacity	36	RC	0	1	23RO	1	0	1.51278400421	63.0	193.0	62	189	1
1.7	2015_Oct_13_1106	s	s	21	2	Capacity	37	RC	0	1	23RO	1	0	1.86606001854	357.0	199.0	359	199	1
1.7	2015_Oct_13_1106	s	s	21	2	Capacity	38	RC	0	2	23RD	1	0	1.37655210495	-442.0	-286.0	-448	-283	1
1.7	2015_Oct_13_1106	s	s	21	2	Capacity	39	ABS	0	1	24RO	0	1	5.34316802025	None	None	None	None	1
1.7	2015_Oct_13_1106	s	s	21	2	Capacity	40	ABS	0	2	24RD	0	1	1.07722687721	None	None	None	None	1
1.7	2015_Oct_13_1106	s	s	21	2	Capacity	41	ABS	0	1	24RO	0	1	4.14265704155	None	None	None	None	1
1.7	2015_Oct_13_1106	s	s	21	2	Capacity	42	RC	0	2	23RD	1	0	0.705569028854	379.0	-55.0	383	-63	1
1.7	2015_Oct_13_1106	s	s	21	2	Capacity	43	RC	0	1	23RO	1	0	2.18364310265	-219.0	209.0	-216	203	1
1.7	2015_Oct_13_1106	s	s	21	2	Capacity	44	ABS	0	2	24RD	0	1	0.929209947586	None	None	None	None	1
1.7	2015_Oct_13_1106	s	s	21	2	Capacity	45	ABS	0	2	24RD	0	1	0.712522983551	None	None	None	None	1
1.7	2015_Oct_13_1106	s	s	21	2	Capacity	46	RC	0	2	23RD	1	0	0.535379886627	-81.0	273.0	-75	277	1
1.7	2015_Oct_13_1106	s	s	21	2	Capacity	47	ABS	0	1	24RO	0	1	4.44859480858	None	None	None	None	1
1.7	2015_Oct_13_1106	s	s	21	2	Capacity	48	RC	0	1	23RO	1	0	3.31909298897	-297.0	130.0	-292	129	1
1.7	2015_Oct_13_1106	s	s	21	2	Capacity	49	ABS	0	1	24RO	0	1	4.74019289017	None	None	None	None	1
1.7	2015_Oct_13_1106	s	s	21	2	Capacity	50	RC	0	2	23RD	1	0	0.51217508316	-65.0	73.0	-64	68	1
1.7	2015_Oct_13_1106	s	s	21	2	Capacity	51	RC	0	1	23RO	0	1	4.26693201065	-199.0	240.0	None	None	0
1.7	2015_Oct_13_1106	s	s	21	2	Capacity	52	ABS	0	2	24RD	0	1	1.50076198578	None	None	None	None	1
1.7	2015_Oct_13_1106	s	s	21	2	Capacity	53	ABS	0	2	24RD	0	1	1.94995188713	None	None	None	None	1
1.7	2015_Oct_13_1106	s	s	21	2	Capacity	54	RC	0	1	23RO	1	0	1.37149095535	316.0	-63.0	319	-64	1
1.7	2015_Oct_13_1106	s	s	21	2	Capacity	55	ABS	0	1	24RO	0	1	5.0489218235	None	None	None	None	1
1.7	2015_Oct_13_1106	s	s	21	2	Capacity	56	RC	0	2	23RD	1	0	0.759767055511	520.0	311.0	518	308	1
1.7	2015_Oct_13_1106	s	s	21	2	Capacity	57	RC	0	1	23RO	1	0	6.1280670166	-508.0	228.0	-506	231	1
1.7	2015_Oct_13_1106	s	s	21	2	Capacity	58	RC	0	2	23RD	1	0	0.607729196548	-483.0	280.0	-483	277	1
1.7	2015_Oct_13_1106	s	s	21	2	Capacity	59	ABS	0	2	24RD	0	1	1.20897197723	None	None	None	None	1
1.7	2015_Oct_13_1106	s	s	21	2	Capacity	60	ABS	0	1	24RO	0	1	5.28438091278	None	None	None	None	1
1.7	2015_Oct_13_1106	s	s	21	2	Capacity	61	ABS	0	1	24RO	0	1	5.16319584846	None	None	None	None	1
1.7	2015_Oct_13_1106	s	s	21	2	Capacity	62	RC	0	1	23RO	0	1	4.88398718834	338.0	-356.0	None	None	0
1.7	2015_Oct_13_1106	s	s	21	2	Capacity	63	RC	0	2	23RD	1	0	0.583060979843	-304.0	294.0	-298	292	1
1.7	2015_Oct_13_1106	s	s	21	2	Capacity	64	ABS	0	2	24RD	0	1	1.34123897552	None	None	None	None	1
1.7	2015_Oct_13_1106	s	s	21	2	Capacity	65	RC	0	2	23RD	1	0	0.611444950104	-218.0	-353.0	-218	-348	1
1.7	2015_Oct_13_1106	s	s	21	2	Capacity	66	RC	0	1	23RO	0	1	4.39660906792	534.0	-55.0	None	None	0
1.7	2015_Oct_13_1106	s	s	21	2	Capacity	67	ABS	0	2	24RD	0	1	0.961719036102	None	None	None	None	1
1.7	2015_Oct_13_1106	s	s	21	2	Capacity	68	ABS	0	1	24RO	0	1	5.01367211342	None	None	None	None	1
1.7	2015_Oct_13_1106	s	s	21	2	Capacity	69	ABS	0	2	24RD	0	1	1.58837389946	None	None	None	None	1
1.7	2015_Oct_13_1106	s	s	21	2	Capacity	70	RC	0	1	23RO	1	0	1.10582089424	411.0	218.0	406	210	1
1.7	2015_Oct_13_1106	s	s	21	2	Capacity	71	ABS	0	1	24RO	0	1	5.008934021	None	None	None	None	1
1.7	2015_Oct_13_1106	s	s	21	2	Capacity	72	RC	0	2	23RD	1	0	0.643104076385	355.0	-146.0	353	-149	1
1.7	2015_Oct_13_1106	s	s	21	2	Capacity	73	RC	0	2	23RD	1	0	0.53590798378	128.0	188.0	127	182	1
1.7	2015_Oct_13_1106	s	s	21	2	Capacity	74	ABS	0	2	24RD	0	1	1.20675706863	None	None	None	None	1
1.7	2015_Oct_13_1106	s	s	21	2	Capacity	75	RC	0	1	23RO	0	1	4.00811290741	194.0	-95.0	None	None	0
1.7	2015_Oct_13_1106	s	s	21	2	Capacity	76	ABS	0	1	24RO	0	1	3.95072007179	None	None	None	None	1
1.7	2015_Oct_13_1106	s	s	21	2	Capacity	77	RC	0	2	23RD	1	0	0.488661050797	159.0	43.0	164	39	1
1.7	2015_Oct_13_1106	s	s	21	2	Capacity	78	ABS	0	1	24RO	0	1	3.70217204094	None	None	None	None	1
1.7	2015_Oct_13_1106	s	s	21	2	Capacity	79	ABS	0	2	24RD	0	1	0.917469024658	None	None	None	None	1
1.7	2015_Oct_13_1106	s	s	21	2	Capacity	80	RC	0	1	23RO	1	0	2.26797699928	358.0	-328.0	356	-330	1
1.7	2015_Oct_13_1106	s	s	21	2	Capacity	81	RC	0	2	23RD	1	0	0.652830839157	336.0	186.0	338	184	1
1.7	2015_Oct_13_1106	s	s	21	2	Capacity	82	RC	0	1	23RO	0	1	3.33713698387	-127.0	174.0	None	None	0
1.7	2015_Oct_13_1106	s	s	21	2	Capacity	83	ABS	0	1	24RO	0	1	3.99816393852	None	None	None	None	1
1.7	2015_Oct_13_1106	s	s	21	2	Capacity	84	ABS	0	2	24RD	0	1	2.01214814186	None	None	None	None	1
1.7	2015_Oct_13_1106	s	s	21	2	Capacity	85	RC	0	1	23RO	0	1	4.68411612511	-282.0	-68.0	None	None	0
1.7	2015_Oct_13_1106	s	s	21	2	Capacity	86	ABS	0	1	24RO	0	1	6.12747192383	None	None	None	None	1
1.7	2015_Oct_13_1106	s	s	21	2	Capacity	87	ABS	0	2	24RD	0	1	1.16213202477	None	None	None	None	1
1.7	2015_Oct_13_1106	s	s	21	2	Capacity	88	RC	0	2	23RD	1	0	0.588332176208	384.0	-352.0	388	-354	1
1.7	2015_Oct_13_1106	s	s	21	2	Capacity	89	ABS	0	2	24RD	0	1	1.03151297569	None	None	None	None	1
1.7	2015_Oct_13_1106	s	s	21	2	Capacity	90	ABS	0	1	24RO	0	1	5.1435649395	None	None	None	None	1
1.7	2015_Oct_13_1106	s	s	21	2	Capacity	91	RC	0	2	23RD	1	0	0.535938978195	268.0	285.0	266	284	1
1.7	2015_Oct_13_1106	s	s	21	2	Capacity	92	RC	0	1	23RO	1	0	2.4359099865	-532.0	47.0	-534	47	1
1.7	2015_Oct_13_1106	s	s	21	2	Capacity	1	RC	1	0	23MC	1	0	0.917495965958	401.0	208.0	402	197	1
1.7	2015_Oct_13_1106	s	s	21	2	Capacity	2	ABS	2	0	24VC	0	1	0.794778823853	None	None	None	None	1
1.7	2015_Oct_13_1106	s	s	21	2	Capacity	3	ABS	1	0	24MC	0	1	1.43079209328	None	None	None	None	1
1.7	2015_Oct_13_1106	s	s	21	2	Capacity	4	RC	2	0	23VC	1	0	0.478044986725	-31.0	50.0	-32	49	1
1.7	2015_Oct_13_1106	s	s	21	2	Capacity	5	RC	2	0	23VC	1	0	0.493746042252	-96.0	-87.0	-89	-89	1
1.7	2015_Oct_13_1106	s	s	21	2	Capacity	6	RC	1	0	23MC	1	0	0.505547046661	347.0	-91.0	349	-89	1
1.7	2015_Oct_13_1106	s	s	21	2	Capacity	7	ABS	1	0	24MC	0	1	1.2237200737	None	None	None	None	1
1.7	2015_Oct_13_1106	s	s	21	2	Capacity	8	ABS	2	0	24VC	0	1	0.917505025864	None	None	None	None	1
1.7	2015_Oct_13_1106	s	s	21	2	Capacity	9	ABS	1	0	24MC	0	1	3.2833609581	None	None	None	None	1
1.7	2015_Oct_13_1106	s	s	21	2	Capacity	10	RC	1	0	23MC	1	0	0.831722021103	503.0	-335.0	503	-334	1
1.7	2015_Oct_13_1106	s	s	21	2	Capacity	11	ABS	2	0	24VC	0	1	0.705515146255	None	None	None	None	1
1.7	2015_Oct_13_1106	s	s	21	2	Capacity	12	RC	2	0	23VC	1	0	0.547650098801	-28.0	307.0	-25	315	1
1.7	2015_Oct_13_1106	s	s	21	2	Capacity	13	ABS	2	0	24VC	0	1	0.587874889374	None	None	None	None	1
1.7	2015_Oct_13_1106	s	s	21	2	Capacity	14	RC	2	0	23VC	1	0	0.502243041992	-521.0	328.0	-513	327	1
1.7	2015_Oct_13_1106	s	s	21	2	Capacity	15	ABS	1	0	24MC	0	1	1.83554792404	None	None	None	None	1
1.7	2015_Oct_13_1106	s	s	21	2	Capacity	16	RC	1	0	23MC	1	0	1.67717885971	-473.0	-162.0	-472	-161	1
1.7	2015_Oct_13_1106	s	s	21	2	Capacity	17	RC	2	0	23VC	1	0	0.511749982834	-337.0	328.0	-332	326	1
1.7	2015_Oct_13_1106	s	s	21	2	Capacity	18	ABS	2	0	24VC	0	1	0.92492389679	None	None	None	None	1
1.7	2015_Oct_13_1106	s	s	21	2	Capacity	19	ABS	1	0	24MC	0	1	2.17123699188	None	None	None	None	1
1.7	2015_Oct_13_1106	s	s	21	2	Capacity	20	RC	1	0	23MC	1	0	2.44420099258	-109.0	-358.0	-109	-359	1
1.7	2015_Oct_13_1106	s	s	21	2	Capacity	21	ABS	2	0	24VC	0	1	1.04696202278	None	None	None	None	1
1.7	2015_Oct_13_1106	s	s	21	2	Capacity	22	RC	2	0	23VC	1	0	0.759832859039	-376.0	-396.0	-378	-396	1
1.7	2015_Oct_13_1106	s	s	21	2	Capacity	23	ABS	1	0	24MC	0	1	1.92615103722	None	None	None	None	1
1.7	2015_Oct_13_1106	s	s	21	2	Capacity	24	RC	1	0	23MC	1	0	0.829449176788	-54.0	172.0	-50	171	1
1.7	2015_Oct_13_1106	s	s	21	2	Capacity	25	ABS	1	0	24MC	0	1	2.47112512589	None	None	None	None	1
1.7	2015_Oct_13_1106	s	s	21	2	Capacity	26	ABS	2	0	24VC	0	1	0.715062856674	None	None	None	None	1
1.7	2015_Oct_13_1106	s	s	21	2	Capacity	27	RC	1	0	23MC	1	0	1.54870891571	-155.0	394.0	-154	394	1
1.7	2015_Oct_13_1106	s	s	21	2	Capacity	28	RC	2	0	23VC	1	0	0.512386083603	-197.0	-176.0	-189	-175	1
1.7	2015_Oct_13_1106	s	s	21	2	Capacity	29	ABS	2	0	24VC	0	1	0.606721878052	None	None	None	None	1
1.7	2015_Oct_13_1106	s	s	21	2	Capacity	30	RC	1	0	23MC	1	0	0.976283073425	-312.0	328.0	-306	329	1
1.7	2015_Oct_13_1106	s	s	21	2	Capacity	31	RC	2	0	23VC	1	0	0.689393043518	67.0	-320.0	67	-329	1
1.7	2015_Oct_13_1106	s	s	21	2	Capacity	32	ABS	1	0	24MC	0	1	1.47750592232	None	None	None	None	1
1.7	2015_Oct_13_1106	s	s	21	2	Capacity	33	ABS	1	0	24MC	0	1	1.91793298721	None	None	None	None	1
1.7	2015_Oct_13_1106	s	s	21	2	Capacity	34	RC	1	0	23MC	1	0	0.988121032715	443.0	-278.0	441	-276	1
1.7	2015_Oct_13_1106	s	s	21	2	Capacity	35	RC	2	0	23VC	1	0	0.540847063065	-266.0	408.0	-268	402	1
1.7	2015_Oct_13_1106	s	s	21	2	Capacity	36	ABS	2	0	24VC	0	1	0.795068025589	None	None	None	None	1
1.7	2015_Oct_13_1106	s	s	21	2	Capacity	37	ABS	2	0	24VC	0	1	1.60904216766	None	None	None	None	1
1.7	2015_Oct_13_1106	s	s	21	2	Capacity	38	RC	2	0	23VC	1	0	0.538215875626	-96.0	-181.0	-98	-179	1
1.7	2015_Oct_13_1106	s	s	21	2	Capacity	39	RC	1	0	23MC	1	0	0.736263990402	202.0	22.0	210	20	1
1.7	2015_Oct_13_1106	s	s	21	2	Capacity	40	ABS	1	0	24MC	0	1	2.77196192741	None	None	None	None	1
1.7	2015_Oct_13_1106	s	s	21	2	Capacity	41	ABS	1	0	24MC	0	1	2.54864382744	None	None	None	None	1
1.7	2015_Oct_13_1106	s	s	21	2	Capacity	42	RC	1	0	23MC	1	0	1.058781147	3.0	-410.0	2	-408	1
1.7	2015_Oct_13_1106	s	s	21	2	Capacity	43	RC	2	0	23VC	1	0	0.535086154938	349.0	50.0	354	51	1
1.7	2015_Oct_13_1106	s	s	21	2	Capacity	44	ABS	2	0	24VC	0	1	0.737704992294	None	None	None	None	1
1.7	2015_Oct_13_1106	s	s	21	2	Capacity	45	RC	1	0	23MC	1	0	0.646775007248	243.0	365.0	239	365	1
1.7	2015_Oct_13_1106	s	s	21	2	Capacity	46	ABS	1	0	24MC	0	1	1.94835186005	None	None	None	None	1
1.7	2015_Oct_13_1106	s	s	21	2	Capacity	47	RC	2	0	23VC	1	0	0.481959819794	84.0	-274.0	84	-272	1
1.7	2015_Oct_13_1106	s	s	21	2	Capacity	48	ABS	2	0	24VC	0	1	0.846751928329	None	None	None	None	1
1.7	2015_Oct_13_1106	s	s	21	2	Capacity	49	RC	1	0	23MC	1	0	0.500571012497	-172.0	19.0	-178	19	1
1.7	2015_Oct_13_1106	s	s	21	2	Capacity	50	RC	2	0	23VC	1	0	0.434842824936	-3.0	-109.0	-2	-104	1
1.7	2015_Oct_13_1106	s	s	21	2	Capacity	51	ABS	2	0	24VC	0	1	0.691177845001	None	None	None	None	1
1.7	2015_Oct_13_1106	s	s	21	2	Capacity	52	ABS	1	0	24MC	0	1	3.34222197533	None	None	None	None	1
1.7	2015_Oct_13_1106	s	s	21	2	Capacity	53	ABS	2	0	24VC	0	1	0.611470937729	None	None	None	None	1
1.7	2015_Oct_13_1106	s	s	21	2	Capacity	54	ABS	1	0	24MC	0	1	3.06628584862	None	None	None	None	1
1.7	2015_Oct_13_1106	s	s	21	2	Capacity	55	RC	2	0	23VC	1	0	0.517262935638	320.0	-313.0	323	-313	1
1.7	2015_Oct_13_1106	s	s	21	2	Capacity	56	RC	1	0	23MC	1	0	1.55311918259	7.0	-382.0	5	-378	1
1.7	2015_Oct_13_1106	s	s	21	2	Capacity	57	ABS	2	0	24VC	0	1	0.629956007004	None	None	None	None	1
1.7	2015_Oct_13_1106	s	s	21	2	Capacity	58	RC	2	0	23VC	1	0	0.420507907867	-270.0	108.0	-269	106	1
1.7	2015_Oct_13_1106	s	s	21	2	Capacity	59	ABS	1	0	24MC	0	1	3.60715603828	None	None	None	None	1
1.7	2015_Oct_13_1106	s	s	21	2	Capacity	60	RC	1	0	23MC	1	0	1.17644309998	-181.0	318.0	-182	315	1
1.7	2015_Oct_13_1106	s	s	21	2	Capacity	61	ABS	2	0	24VC	0	1	0.734623908997	None	None	None	None	1
1.7	2015_Oct_13_1106	s	s	21	2	Capacity	62	ABS	1	0	24MC	0	1	2.67128586769	None	None	None	None	1
1.7	2015_Oct_13_1106	s	s	21	2	Capacity	63	RC	2	0	23VC	1	0	0.434896945953	31.0	184.0	28	188	1
1.7	2015_Oct_13_1106	s	s	21	2	Capacity	64	RC	1	0	23MC	1	0	0.458568096161	189.0	175.0	192	181	1
1.7	2015_Oct_13_1106	s	s	21	2	Capacity	65	ABS	2	0	24VC	0	1	0.634901046753	None	None	None	None	1
1.7	2015_Oct_13_1106	s	s	21	2	Capacity	66	ABS	1	0	24MC	0	1	2.64263987541	None	None	None	None	1
1.7	2015_Oct_13_1106	s	s	21	2	Capacity	67	RC	2	0	23VC	1	0	0.658457040787	451.0	218.0	450	216	1
1.7	2015_Oct_13_1106	s	s	21	2	Capacity	68	RC	1	0	23MC	1	0	0.846725940704	-470.0	80.0	-471	80	1
1.7	2015_Oct_13_1106	s	s	21	2	Capacity	69	RC	1	0	23MC	1	0	0.729120969772	199.0	112.0	203	117	1
1.7	2015_Oct_13_1106	s	s	21	2	Capacity	70	ABS	2	0	24VC	0	1	0.84178185463	None	None	None	None	1
1.7	2015_Oct_13_1106	s	s	21	2	Capacity	71	ABS	1	0	24MC	0	1	2.39643907547	None	None	None	None	1
1.7	2015_Oct_13_1106	s	s	21	2	Capacity	72	RC	2	0	23VC	1	0	0.632716178894	318.0	-262.0	321	-265	1
1.7	2015_Oct_13_1106	s	s	21	2	Capacity	73	RC	2	0	23VC	1	0	0.52903008461	-73.0	93.0	-72	97	1
1.7	2015_Oct_13_1106	s	s	21	2	Capacity	74	RC	1	0	23MC	1	0	0.679415941238	-398.0	-82.0	-394	-81	1
1.7	2015_Oct_13_1106	s	s	21	2	Capacity	75	ABS	1	0	24MC	0	1	1.91230201721	None	None	None	None	1
1.7	2015_Oct_13_1106	s	s	21	2	Capacity	76	ABS	2	0	24VC	0	1	0.690631151199	None	None	None	None	1
1.7	2015_Oct_13_1106	s	s	21	2	Capacity	77	RC	1	0	23MC	1	0	0.936789035797	125.0	-309.0	125	-308	1
1.7	2015_Oct_13_1106	s	s	21	2	Capacity	78	ABS	2	0	24VC	0	1	0.642036914825	None	None	None	None	1
1.7	2015_Oct_13_1106	s	s	21	2	Capacity	79	ABS	1	0	24MC	0	1	2.19788002968	None	None	None	None	1
1.7	2015_Oct_13_1106	s	s	21	2	Capacity	80	RC	2	0	23VC	1	0	0.641741991043	77.0	-189.0	76	-193	1
1.7	2015_Oct_13_1106	s	s	21	2	Capacity	81	RC	2	0	23VC	1	0	0.470154047012	125.0	-121.0	124	-125	1
1.7	2015_Oct_13_1106	s	s	21	2	Capacity	82	ABS	2	0	24VC	0	1	0.736341953278	None	None	None	None	1
1.7	2015_Oct_13_1106	s	s	21	2	Capacity	83	ABS	1	0	24MC	0	1	2.20709705353	None	None	None	None	1
1.7	2015_Oct_13_1106	s	s	21	2	Capacity	84	RC	1	0	23MC	1	0	1.34802007675	-196.0	364.0	-194	361	1
1.7	2015_Oct_13_1106	s	s	21	2	Capacity	85	ABS	2	0	24VC	0	1	0.882127046585	None	None	None	None	1
1.7	2015_Oct_13_1106	s	s	21	2	Capacity	86	ABS	1	0	24MC	0	1	1.74174523354	None	None	None	None	1
1.7	2015_Oct_13_1106	s	s	21	2	Capacity	87	RC	2	0	23VC	1	0	0.45411491394	321.0	137.0	315	136	1
1.7	2015_Oct_13_1106	s	s	21	2	Capacity	88	RC	1	0	23MC	1	0	0.780662059784	-45.0	-129.0	-46	-133	1
1.7	2015_Oct_13_1106	s	s	21	2	Capacity	89	ABS	1	0	24MC	0	1	1.44716787338	None	None	None	None	1
1.7	2015_Oct_13_1106	s	s	21	2	Capacity	90	RC	1	0	23MC	1	0	0.756401062012	300.0	158.0	302	159	1
1.7	2015_Oct_13_1106	s	s	21	2	Capacity	91	RC	2	0	23VC	1	0	0.53578209877	429.0	-87.0	424	-88	1
1.7	2015_Oct_13_1106	s	s	21	2	Capacity	92	ABS	2	0	24VC	0	1	0.705430030823	None	None	None	None	1
1.7	2015_Oct_13_1106	s	s	21	2	SIC	1	ABS	0	1	24RO	0	1	3.59605288506	None	None	None	None	1
1.7	2015_Oct_13_1106	s	s	21	2	SIC	2	ABS	1	0	24MC	0	1	3.0093228817	None	None	None	None	1
1.7	2015_Oct_13_1106	s	s	21	2	SIC	3	RC	0	2	23RD	1	0	0.632349014282	-32.0	245.0	-30	237	1
1.7	2015_Oct_13_1106	s	s	21	2	SIC	4	RC	1	0	23MC	1	0	0.654720067978	-125.0	-88.0	-117	-88	1
1.7	2015_Oct_13_1106	s	s	21	2	SIC	5	RC	1	1	23MO	1	0	1.11254501343	-485.0	383.0	-489	383	1
1.7	2015_Oct_13_1106	s	s	21	2	SIC	6	ABS	1	2	24MD	0	1	0.973580121994	None	None	None	None	1
1.7	2015_Oct_13_1106	s	s	21	2	SIC	7	ABS	2	1	24VO	0	1	0.594727993011	None	None	None	None	1
1.7	2015_Oct_13_1106	s	s	21	2	SIC	8	ABS	1	1	24MO	0	1	3.71889591217	None	None	None	None	1
1.7	2015_Oct_13_1106	s	s	21	2	SIC	9	RC	2	1	23VO	1	0	0.477833986282	-69.0	66.0	-77	63	1
1.7	2015_Oct_13_1106	s	s	21	2	SIC	10	RC	1	2	23MD	1	0	0.623095989227	23.0	-407.0	28	-404	1
1.7	2015_Oct_13_1106	s	s	21	2	SIC	11	ABS	2	0	24VC	0	1	0.709326982498	None	None	None	None	1
1.7	2015_Oct_13_1106	s	s	21	2	SIC	12	RC	2	0	23VC	1	0	0.540796995163	-72.0	-146.0	-71	-148	1
1.7	2015_Oct_13_1106	s	s	21	2	SIC	13	ABS	2	2	24VD	0	1	0.56062078476	None	None	None	None	1
1.7	2015_Oct_13_1106	s	s	21	2	SIC	14	ABS	0	2	24RD	0	1	1.51761198044	None	None	None	None	1
1.7	2015_Oct_13_1106	s	s	21	2	SIC	15	RC	2	2	23VD	1	0	0.540796995163	510.0	225.0	518	226	1
1.7	2015_Oct_13_1106	s	s	21	2	SIC	16	RC	0	1	23RO	0	1	4.29547905922	-375.0	165.0	None	None	0
1.7	2015_Oct_13_1106	s	s	21	2	SIC	17	RC	0	1	23RO	1	0	3.09498095512	370.0	145.0	369	143	1
1.7	2015_Oct_13_1106	s	s	21	2	SIC	18	ABS	2	2	24VD	0	1	0.576109170914	None	None	None	None	1
1.7	2015_Oct_13_1106	s	s	21	2	SIC	19	RC	1	1	23MO	1	0	0.629183769226	-335.0	-172.0	-327	-173	1
1.7	2015_Oct_13_1106	s	s	21	2	SIC	20	RC	2	1	23VO	1	0	0.453550100327	336.0	-331.0	335	-340	1
1.7	2015_Oct_13_1106	s	s	21	2	SIC	21	ABS	1	0	24MC	0	1	4.40830111504	None	None	None	None	1
1.7	2015_Oct_13_1106	s	s	21	2	SIC	22	RC	2	0	23VC	1	0	0.440829992294	5.0	253.0	3	247	1
1.7	2015_Oct_13_1106	s	s	21	2	SIC	23	ABS	1	2	24MD	0	1	1.03210115433	None	None	None	None	1
1.7	2015_Oct_13_1106	s	s	21	2	SIC	24	RC	2	2	23VD	1	0	0.481984138489	303.0	400.0	299	394	1
1.7	2015_Oct_13_1106	s	s	21	2	SIC	25	RC	1	0	23MC	1	0	0.623157024384	-95.0	105.0	-86	103	1
1.7	2015_Oct_13_1106	s	s	21	2	SIC	26	ABS	0	1	24RO	0	1	6.4564139843	None	None	None	None	1
1.7	2015_Oct_13_1106	s	s	21	2	SIC	27	RC	0	2	23RD	1	0	0.535686969757	80.0	73.0	82	81	1
1.7	2015_Oct_13_1106	s	s	21	2	SIC	28	ABS	0	2	24RD	0	1	1.12435293198	None	None	None	None	1
1.7	2015_Oct_13_1106	s	s	21	2	SIC	29	ABS	1	1	24MO	0	1	3.30203604698	None	None	None	None	1
1.7	2015_Oct_13_1106	s	s	21	2	SIC	30	RC	1	2	23MD	1	0	0.608726024628	-133.0	161.0	-135	159	1
1.7	2015_Oct_13_1106	s	s	21	2	SIC	31	ABS	2	0	24VC	0	1	0.805413007736	None	None	None	None	1
1.7	2015_Oct_13_1106	s	s	21	2	SIC	32	ABS	2	1	24VO	0	1	0.923613071442	None	None	None	None	1
1.7	2015_Oct_13_1106	s	s	21	2	SIC	33	ABS	2	0	24VC	0	1	0.81173491478	None	None	None	None	1
1.7	2015_Oct_13_1106	s	s	21	2	SIC	34	RC	2	0	23VC	1	0	0.447082996368	167.0	196.0	176	200	1
1.7	2015_Oct_13_1106	s	s	21	2	SIC	35	ABS	2	1	24VO	0	1	0.611392974854	None	None	None	None	1
1.7	2015_Oct_13_1106	s	s	21	2	SIC	36	RC	1	1	23MO	1	0	1.18315410614	270.0	-253.0	277	-254	1
1.7	2015_Oct_13_1106	s	s	21	2	SIC	37	ABS	0	2	24RD	0	1	1.16466999054	None	None	None	None	1
1.7	2015_Oct_13_1106	s	s	21	2	SIC	38	ABS	2	2	24VD	0	1	0.611236095428	None	None	None	None	1
1.7	2015_Oct_13_1106	s	s	21	2	SIC	39	RC	0	1	23RO	1	0	4.14985895157	-335.0	-163.0	-342	-163	1
1.7	2015_Oct_13_1106	s	s	21	2	SIC	40	RC	0	2	23RD	1	0	0.677036046982	-470.0	391.0	-479	387	1
1.7	2015_Oct_13_1106	s	s	21	2	SIC	41	RC	1	0	23MC	1	0	0.618046045303	-506.0	28.0	-509	27	1
1.7	2015_Oct_13_1106	s	s	21	2	SIC	42	ABS	1	1	24MO	0	1	2.24752998352	None	None	None	None	1
1.7	2015_Oct_13_1106	s	s	21	2	SIC	43	RC	2	1	23VO	1	0	0.429745912552	-32.0	39.0	-32	41	1
1.7	2015_Oct_13_1106	s	s	21	2	SIC	44	ABS	1	0	24MC	0	1	2.10277104378	None	None	None	None	1
1.7	2015_Oct_13_1106	s	s	21	2	SIC	45	ABS	1	2	24MD	0	1	0.811501026154	None	None	None	None	1
1.7	2015_Oct_13_1106	s	s	21	2	SIC	46	RC	2	2	23VD	1	0	0.599596977234	-4.0	374.0	-2	376	1
1.7	2015_Oct_13_1106	s	s	21	2	SIC	47	ABS	0	1	24RO	0	1	4.3662071228	None	None	None	None	1
1.7	2015_Oct_13_1106	s	s	21	2	SIC	48	RC	1	2	23MD	1	0	0.587918043137	261.0	332.0	256	339	1
1.7	2015_Oct_13_1106	s	s	21	2	SIC	49	ABS	2	2	24VD	0	1	0.693876981735	None	None	None	None	1
1.7	2015_Oct_13_1106	s	s	21	2	SIC	50	RC	1	1	23MO	1	0	2.21899199486	455.0	352.0	461	356	1
1.7	2015_Oct_13_1106	s	s	21	2	SIC	51	RC	0	1	23RO	1	0	2.19542598724	-399.0	109.0	-401	113	1
1.7	2015_Oct_13_1106	s	s	21	2	SIC	52	RC	2	2	23VD	1	0	0.47020816803	-465.0	177.0	-464	172	1
1.7	2015_Oct_13_1106	s	s	21	2	SIC	53	RC	2	1	23VO	1	0	0.438560009003	-67.0	306.0	-60	307	1
1.7	2015_Oct_13_1106	s	s	21	2	SIC	54	ABS	0	2	24RD	0	1	1.1612970829	None	None	None	None	1
1.7	2015_Oct_13_1106	s	s	21	2	SIC	55	ABS	1	2	24MD	0	1	0.818230867386	None	None	None	None	1
1.7	2015_Oct_13_1106	s	s	21	2	SIC	56	ABS	1	1	24MO	0	1	2.19586801529	None	None	None	None	1
1.7	2015_Oct_13_1106	s	s	21	2	SIC	57	RC	1	0	23MC	1	0	1.40023899078	160.0	219.0	160	218	1
1.7	2015_Oct_13_1106	s	s	21	2	SIC	58	ABS	0	1	24RO	0	1	5.11479306221	None	None	None	None	1
1.7	2015_Oct_13_1106	s	s	21	2	SIC	59	ABS	2	0	24VC	0	1	0.807142019272	None	None	None	None	1
1.7	2015_Oct_13_1106	s	s	21	2	SIC	60	ABS	2	1	24VO	0	1	0.687392950058	None	None	None	None	1
1.7	2015_Oct_13_1106	s	s	21	2	SIC	61	RC	0	2	23RD	1	0	0.540783166885	342.0	-279.0	347	-283	1
1.7	2015_Oct_13_1106	s	s	21	2	SIC	62	RC	2	0	23VC	1	0	0.549946069717	52.0	27.0	57	21	1
1.7	2015_Oct_13_1106	s	s	21	2	SIC	63	RC	1	2	23MD	1	0	0.47021484375	-79.0	37.0	-79	32	1
1.7	2015_Oct_13_1106	s	s	21	2	SIC	64	ABS	1	0	24MC	0	1	2.63086700439	None	None	None	None	1
1.7	2015_Oct_13_1106	s	s	21	2	SIC	65	ABS	2	1	24VO	0	1	0.629565000534	None	None	None	None	1
1.7	2015_Oct_13_1106	s	s	21	2	SIC	66	ABS	0	2	24RD	0	1	1.08835983276	None	None	None	None	1
1.7	2015_Oct_13_1106	s	s	21	2	SIC	67	RC	1	1	23MO	1	0	0.509189844131	-345.0	-97.0	-338	-100	1
1.7	2015_Oct_13_1106	s	s	21	2	SIC	68	RC	0	1	23RO	0	1	3.84834885597	-248.0	-236.0	None	None	0
1.7	2015_Oct_13_1106	s	s	21	2	SIC	69	ABS	1	2	24MD	0	1	0.970551013947	None	None	None	None	1
1.7	2015_Oct_13_1106	s	s	21	2	SIC	70	RC	2	2	23VD	1	0	0.594755887985	506.0	203.0	509	212	1
1.7	2015_Oct_13_1106	s	s	21	2	SIC	71	ABS	0	1	24RO	0	1	2.92541980743	None	None	None	None	1
1.7	2015_Oct_13_1106	s	s	21	2	SIC	72	ABS	2	0	24VC	0	1	0.631606817245	None	None	None	None	1
1.7	2015_Oct_13_1106	s	s	21	2	SIC	73	RC	1	2	23MD	1	0	0.782978057861	479.0	-231.0	482	-234	1
1.7	2015_Oct_13_1106	s	s	21	2	SIC	74	RC	2	0	23VC	1	0	0.441663980484	-526.0	257.0	-526	255	1
1.7	2015_Oct_13_1106	s	s	21	2	SIC	75	RC	0	2	23RD	1	0	0.465291023254	196.0	261.0	190	264	1
1.7	2015_Oct_13_1106	s	s	21	2	SIC	76	ABS	1	0	24MC	0	1	1.88954806328	None	None	None	None	1
1.7	2015_Oct_13_1106	s	s	21	2	SIC	77	ABS	2	2	24VD	0	1	0.564391851425	None	None	None	None	1
1.7	2015_Oct_13_1106	s	s	21	2	SIC	78	RC	1	0	23MC	1	0	0.870312929153	252.0	-215.0	252	-221	1
1.7	2015_Oct_13_1106	s	s	21	2	SIC	79	ABS	1	1	24MO	0	1	1.87083292007	None	None	None	None	1
1.7	2015_Oct_13_1106	s	s	21	2	SIC	80	RC	2	1	23VO	1	0	0.453397989273	-151.0	-99.0	-151	-101	1
1.7	2015_Oct_13_1106	s	s	21	2	SIC	81	ABS	0	2	24RD	0	1	0.917472839355	None	None	None	None	1
1.7	2015_Oct_13_1106	s	s	21	2	SIC	82	RC	0	1	23RO	1	0	0.652625083923	-258.0	203.0	20	-12	0
1.7	2015_Oct_13_1106	s	s	21	2	SIC	83	RC	1	1	23MO	1	0	0.846782922745	-299.0	283.0	-305	284	1
1.7	2015_Oct_13_1106	s	s	21	2	SIC	84	RC	2	2	23VD	1	0	0.561883211136	-517.0	254.0	-511	250	1
1.7	2015_Oct_13_1106	s	s	21	2	SIC	85	ABS	1	1	24MO	0	1	3.47164487839	None	None	None	None	1
1.7	2015_Oct_13_1106	s	s	21	2	SIC	86	RC	2	1	23VO	1	0	0.474856138229	46.0	365.0	44	364	1
1.7	2015_Oct_13_1106	s	s	21	2	SIC	87	RC	2	0	23VC	1	0	0.564296007156	192.0	2.0	198	4	1
1.7	2015_Oct_13_1106	s	s	21	2	SIC	88	RC	1	0	23MC	1	0	0.858597040176	320.0	145.0	312	141	1
1.7	2015_Oct_13_1106	s	s	21	2	SIC	89	ABS	2	2	24VD	0	1	0.635025978088	None	None	None	None	1
1.7	2015_Oct_13_1106	s	s	21	2	SIC	90	ABS	2	1	24VO	0	1	1.01995301247	None	None	None	None	1
1.7	2015_Oct_13_1106	s	s	21	2	SIC	91	ABS	1	2	24MD	0	1	0.735980033875	None	None	None	None	1
1.7	2015_Oct_13_1106	s	s	21	2	SIC	92	ABS	0	1	24RO	0	1	4.76647877693	None	None	None	None	1
1.7	2015_Oct_13_1106	s	s	21	2	SIC	93	ABS	2	0	24VC	0	1	0.797171115875	None	None	None	None	1
1.7	2015_Oct_13_1106	s	s	21	2	SIC	94	ABS	1	0	24MC	0	1	3.07694292068	None	None	None	None	1
1.7	2015_Oct_13_1106	s	s	21	2	SIC	95	RC	1	2	23MD	1	0	0.53556895256	66.0	60.0	66	49	1
1.7	2015_Oct_13_1106	s	s	21	2	SIC	96	RC	0	2	23RD	1	0	0.870398044586	-209.0	193.0	-206	196	1
1.7	2015_Oct_13_1106	s	s	21	2	SIC	97	ABS	1	0	24MC	0	1	3.17252802849	None	None	None	None	1
1.7	2015_Oct_13_1106	s	s	21	2	SIC	98	ABS	0	2	24RD	0	1	0.890511035919	None	None	None	None	1
1.7	2015_Oct_13_1106	s	s	21	2	SIC	99	RC	1	1	23MO	1	0	0.697530984879	-69.0	-155.0	-65	-151	1
1.7	2015_Oct_13_1106	s	s	21	2	SIC	100	ABS	1	2	24MD	0	1	0.735947847366	None	None	None	None	1
1.7	2015_Oct_13_1106	s	s	21	2	SIC	101	RC	2	2	23VD	1	0	0.749341964722	381.0	162.0	375	162	1
1.7	2015_Oct_13_1106	s	s	21	2	SIC	102	ABS	0	1	24RO	0	1	6.08198690414	None	None	None	None	1
1.7	2015_Oct_13_1106	s	s	21	2	SIC	103	RC	1	0	23MC	1	0	0.950101852417	289.0	-397.0	283	-400	1
1.7	2015_Oct_13_1106	s	s	21	2	SIC	104	ABS	2	0	24VC	0	1	0.724056959152	None	None	None	None	1
1.7	2015_Oct_13_1106	s	s	21	2	SIC	105	RC	2	1	23VO	1	0	0.501113891602	-35.0	91.0	-35	91	1
1.7	2015_Oct_13_1106	s	s	21	2	SIC	106	ABS	1	1	24MO	0	1	3.21275091171	None	None	None	None	1
1.7	2015_Oct_13_1106	s	s	21	2	SIC	107	RC	1	2	23MD	1	0	0.493716001511	-31.0	204.0	-24	201	1
1.7	2015_Oct_13_1106	s	s	21	2	SIC	108	ABS	2	2	24VD	0	1	0.52907705307	None	None	None	None	1
1.7	2015_Oct_13_1106	s	s	21	2	SIC	109	RC	0	1	23RO	0	1	3.85737895966	535.0	-132.0	None	None	0
1.7	2015_Oct_13_1106	s	s	21	2	SIC	110	ABS	2	1	24VO	0	1	0.700448989868	None	None	None	None	1
1.7	2015_Oct_13_1106	s	s	21	2	SIC	111	RC	0	2	23RD	1	0	0.655122041702	-105.0	-97.0	-103	-97	1
1.7	2015_Oct_13_1106	s	s	21	2	SIC	112	RC	2	0	23VC	1	0	0.470194101334	407.0	-335.0	406	-335	1
1.7	2015_Oct_13_1106	s	s	21	2	SIC	113	RC	1	1	23MO	1	0	0.529036045074	292.0	69.0	299	69	1
1.7	2015_Oct_13_1106	s	s	21	2	SIC	114	ABS	0	2	24RD	0	1	0.912941932678	None	None	None	None	1
1.7	2015_Oct_13_1106	s	s	21	2	SIC	115	ABS	2	1	24VO	0	1	0.665261983871	None	None	None	None	1
1.7	2015_Oct_13_1106	s	s	21	2	SIC	116	RC	0	2	23RD	1	0	1.17111086845	-231.0	-303.0	-228	-309	1
1.7	2015_Oct_13_1106	s	s	21	2	SIC	117	RC	0	1	23RO	0	1	5.0371389389	128.0	-286.0	None	None	0
1.7	2015_Oct_13_1106	s	s	21	2	SIC	118	RC	2	2	23VD	1	0	0.511577129364	-50.0	-359.0	-46	-368	1
1.7	2015_Oct_13_1106	s	s	21	2	SIC	119	RC	2	1	23VO	1	0	0.49372792244	57.0	-297.0	67	-299	1
1.7	2015_Oct_13_1106	s	s	21	2	SIC	120	ABS	1	0	24MC	0	1	2.34177899361	None	None	None	None	1
1.7	2015_Oct_13_1106	s	s	21	2	SIC	121	RC	1	2	23MD	1	0	0.547576189041	-62.0	84.0	-61	86	1
1.7	2015_Oct_13_1106	s	s	21	2	SIC	122	ABS	1	1	24MO	0	1	1.62372112274	None	None	None	None	1
1.7	2015_Oct_13_1106	s	s	21	2	SIC	123	RC	2	0	23VC	1	0	0.512433052063	-445.0	277.0	-451	271	1
1.7	2015_Oct_13_1106	s	s	21	2	SIC	124	ABS	2	2	24VD	0	1	0.509137868881	None	None	None	None	1
1.7	2015_Oct_13_1106	s	s	21	2	SIC	125	ABS	2	0	24VC	0	1	0.611785888672	None	None	None	None	1
1.7	2015_Oct_13_1106	s	s	21	2	SIC	126	RC	1	0	23MC	1	0	0.699985980988	383.0	82.0	383	82	1
1.7	2015_Oct_13_1106	s	s	21	2	SIC	127	ABS	1	2	24MD	0	1	0.799715042114	None	None	None	None	1
1.7	2015_Oct_13_1106	s	s	21	2	SIC	128	ABS	0	1	24RO	0	1	3.67974090576	None	None	None	None	1
1.7	2015_Oct_13_1106	s	s	21	2	SIC	129	ABS	0	2	24RD	0	1	0.759228944778	None	None	None	None	1
1.7	2015_Oct_13_1106	s	s	21	2	SIC	130	ABS	1	2	24MD	0	1	0.724107980728	None	None	None	None	1
1.7	2015_Oct_13_1106	s	s	21	2	SIC	131	RC	1	2	23MD	1	0	0.490761995316	-343.0	220.0	-350	215	1
1.7	2015_Oct_13_1106	s	s	21	2	SIC	132	ABS	2	2	24VD	0	1	0.576145887375	None	None	None	None	1
1.7	2015_Oct_13_1106	s	s	21	2	SIC	133	ABS	2	0	24VC	0	1	0.740899085999	None	None	None	None	1
1.7	2015_Oct_13_1106	s	s	21	2	SIC	134	RC	2	0	23VC	1	0	0.522073984146	-348.0	22.0	-347	24	1
1.7	2015_Oct_13_1106	s	s	21	2	SIC	135	ABS	2	1	24VO	0	1	0.501083850861	None	None	None	None	1
1.7	2015_Oct_13_1106	s	s	21	2	SIC	136	RC	1	1	23MO	1	0	1.0653989315	225.0	250.0	222	246	1
1.7	2015_Oct_13_1106	s	s	21	2	SIC	137	ABS	1	1	24MO	0	1	2.1499569416	None	None	None	None	1
1.7	2015_Oct_13_1106	s	s	21	2	SIC	138	ABS	0	1	24RO	0	1	5.28429889679	None	None	None	None	1
1.7	2015_Oct_13_1106	s	s	21	2	SIC	139	RC	2	1	23VO	1	0	0.547663927078	12.0	-262.0	14	-271	1
1.7	2015_Oct_13_1106	s	s	21	2	SIC	140	ABS	1	0	24MC	0	1	2.28283905983	None	None	None	None	1
1.7	2015_Oct_13_1106	s	s	21	2	SIC	141	RC	2	2	23VD	1	0	0.465665817261	-307.0	-167.0	-305	-176	1
1.7	2015_Oct_13_1106	s	s	21	2	SIC	142	RC	1	0	23MC	1	0	1.47749495506	64.0	379.0	70	384	1
1.7	2015_Oct_13_1106	s	s	21	2	SIC	143	RC	0	1	23RO	1	0	5.18606901169	492.0	-161.0	486	-164	1
1.7	2015_Oct_13_1106	s	s	21	2	SIC	144	RC	0	2	23RD	1	0	0.528987169266	101.0	375.0	94	372	1
1.7	2015_Oct_13_1106	s	s	21	2	SIC	145	RC	1	2	23MD	1	0	0.717396020889	-84.0	5.0	-86	-2	1
1.7	2015_Oct_13_1106	s	s	21	2	SIC	146	RC	0	2	23RD	1	0	0.446666002274	191.0	273.0	196	281	1
1.7	2015_Oct_13_1106	s	s	21	2	SIC	147	RC	1	0	23MC	1	0	1.0890250206	-473.0	371.0	-469	372	1
1.7	2015_Oct_13_1106	s	s	21	2	SIC	148	ABS	2	2	24VD	0	1	1.00783705711	None	None	None	None	1
1.7	2015_Oct_13_1106	s	s	21	2	SIC	149	RC	2	0	23VC	1	0	0.47688293457	141.0	251.0	146	246	1
1.7	2015_Oct_13_1106	s	s	21	2	SIC	150	ABS	2	1	24VO	0	1	0.638684034348	None	None	None	None	1
1.7	2015_Oct_13_1106	s	s	21	2	SIC	151	RC	2	2	23VD	1	0	0.517269849777	-290.0	-104.0	-281	-96	1
1.7	2015_Oct_13_1106	s	s	21	2	SIC	152	RC	2	1	23VO	1	0	0.618048191071	-483.0	-174.0	-486	-178	1
1.7	2015_Oct_13_1106	s	s	21	2	SIC	153	ABS	1	1	24MO	0	1	2.27114105225	None	None	None	None	1
1.7	2015_Oct_13_1106	s	s	21	2	SIC	154	RC	0	1	23RO	1	0	1.3362300396	-420.0	155.0	-423	150	1
1.7	2015_Oct_13_1106	s	s	21	2	SIC	155	ABS	1	2	24MD	0	1	0.855904102325	None	None	None	None	1
1.7	2015_Oct_13_1106	s	s	21	2	SIC	156	ABS	2	0	24VC	0	1	0.740935087204	None	None	None	None	1
1.7	2015_Oct_13_1106	s	s	21	2	SIC	157	ABS	0	1	24RO	0	1	3.50695800781	None	None	None	None	1
1.7	2015_Oct_13_1106	s	s	21	2	SIC	158	ABS	1	0	24MC	0	1	2.29470014572	None	None	None	None	1
1.7	2015_Oct_13_1106	s	s	21	2	SIC	159	RC	1	1	23MO	1	0	0.594666957855	-426.0	-172.0	-421	-169	1
1.7	2015_Oct_13_1106	s	s	21	2	SIC	160	ABS	0	2	24RD	0	1	0.952721834183	None	None	None	None	1
1.7	2015_Oct_13_1106	s	s	21	2	SIC	161	RC	1	1	23MO	1	0	0.858673095703	-181.0	171.0	-178	168	1
1.7	2015_Oct_13_1106	s	s	21	2	SIC	162	ABS	2	0	24VC	0	1	0.929176807404	None	None	None	None	1
1.7	2015_Oct_13_1106	s	s	21	2	SIC	163	ABS	0	2	24RD	0	1	1.52456402779	None	None	None	None	1
1.7	2015_Oct_13_1106	s	s	21	2	SIC	164	ABS	1	0	24MC	0	1	2.27828884125	None	None	None	None	1
1.7	2015_Oct_13_1106	s	s	21	2	SIC	165	ABS	1	1	24MO	0	1	2.40730404854	None	None	None	None	1
1.7	2015_Oct_13_1106	s	s	21	2	SIC	166	ABS	2	2	24VD	0	1	0.576107978821	None	None	None	None	1
1.7	2015_Oct_13_1106	s	s	21	2	SIC	167	RC	2	1	23VO	1	0	0.611461877823	449.0	43.0	445	33	1
1.7	2015_Oct_13_1106	s	s	21	2	SIC	168	RC	1	2	23MD	1	0	0.529060125351	495.0	-82.0	493	-85	1
1.7	2015_Oct_13_1106	s	s	21	2	SIC	169	RC	2	2	23VD	1	0	0.488783121109	-345.0	-186.0	-335	-188	1
1.7	2015_Oct_13_1106	s	s	21	2	SIC	170	ABS	2	1	24VO	0	1	0.643257141113	None	None	None	None	1
1.7	2015_Oct_13_1106	s	s	21	2	SIC	171	ABS	0	1	24RO	0	1	4.81353497505	None	None	None	None	1
1.7	2015_Oct_13_1106	s	s	21	2	SIC	172	RC	0	1	23RO	0	1	4.52592015266	429.0	-397.0	None	None	0
1.7	2015_Oct_13_1106	s	s	21	2	SIC	173	RC	1	0	23MC	1	0	0.835115909576	46.0	234.0	50	241	1
1.7	2015_Oct_13_1106	s	s	21	2	SIC	174	RC	0	2	23RD	1	0	1.44228005409	340.0	-345.0	339	-350	1
1.7	2015_Oct_13_1106	s	s	21	2	SIC	175	RC	2	0	23VC	1	0	0.505561113358	-48.0	362.0	-52	360	1
1.7	2015_Oct_13_1106	s	s	21	2	SIC	176	ABS	1	2	24MD	0	1	0.717394828796	None	None	None	None	1
1.7	2015_Oct_13_1106	s	s	21	2	SIC	177	ABS	2	1	24VO	0	1	0.606450080872	None	None	None	None	1
1.7	2015_Oct_13_1106	s	s	21	2	SIC	178	ABS	0	2	24RD	0	1	0.985326051712	None	None	None	None	1
1.7	2015_Oct_13_1106	s	s	21	2	SIC	179	ABS	1	1	24MO	0	1	2.54180502892	None	None	None	None	1
1.7	2015_Oct_13_1106	s	s	21	2	SIC	180	RC	0	1	23RO	1	0	3.97779107094	-470.0	183.0	-463	189	1
1.7	2015_Oct_13_1106	s	s	21	2	SIC	181	RC	2	2	23VD	1	0	0.476906061172	345.0	90.0	345	94	1
1.7	2015_Oct_13_1106	s	s	21	2	SIC	182	RC	2	0	23VC	1	0	0.60595703125	-202.0	-265.0	-204	-258	1
1.7	2015_Oct_13_1106	s	s	21	2	SIC	183	ABS	1	2	24MD	0	1	1.08902096748	None	None	None	None	1
1.7	2015_Oct_13_1106	s	s	21	2	SIC	184	RC	1	2	23MD	1	0	0.593378782272	159.0	319.0	149	317	1
1.7	2015_Oct_13_1106	s	s	21	2	SIC	185	ABS	2	0	24VC	0	1	0.841753959656	None	None	None	None	1
1.7	2015_Oct_13_1106	s	s	21	2	SIC	186	ABS	0	1	24RO	0	1	4.01055693626	None	None	None	None	1
1.7	2015_Oct_13_1106	s	s	21	2	SIC	187	RC	1	1	23MO	1	0	1.13847112656	526.0	101.0	520	93	1
1.7	2015_Oct_13_1106	s	s	21	2	SIC	188	ABS	2	2	24VD	0	1	0.712202072144	None	None	None	None	1
1.7	2015_Oct_13_1106	s	s	21	2	SIC	189	RC	0	2	23RD	1	0	0.493699073792	404.0	55.0	412	51	1
1.7	2015_Oct_13_1106	s	s	21	2	SIC	190	ABS	1	0	24MC	0	1	2.94173192978	None	None	None	None	1
1.7	2015_Oct_13_1106	s	s	21	2	SIC	191	RC	1	0	23MC	1	0	1.01159310341	-51.0	-135.0	-53	-138	1
1.7	2015_Oct_13_1106	s	s	21	2	SIC	192	RC	2	1	23VO	1	0	0.500450849533	-242.0	-206.0	-238	-209	1
1.7	2015_Oct_13_1106	s	s	21	2	SIC	193	ABS	2	2	24VD	0	1	0.599809169769	None	None	None	None	1
1.7	2015_Oct_13_1106	s	s	21	2	SIC	194	RC	0	1	23RO	1	0	4.69108700752	-121.0	320.0	-117	316	1
1.7	2015_Oct_13_1106	s	s	21	2	SIC	195	RC	2	1	23VO	1	0	0.467725992203	-386.0	161.0	-390	151	1
1.7	2015_Oct_13_1106	s	s	21	2	SIC	196	RC	0	2	23RD	1	0	0.752682924271	-355.0	-275.0	-349	-270	1
1.7	2015_Oct_13_1106	s	s	21	2	SIC	197	ABS	2	0	24VC	0	1	0.540786981583	None	None	None	None	1
1.7	2015_Oct_13_1106	s	s	21	2	SIC	198	ABS	1	2	24MD	0	1	1.15330410004	None	None	None	None	1
1.7	2015_Oct_13_1106	s	s	21	2	SIC	199	ABS	0	2	24RD	0	1	0.890806913376	None	None	None	None	1
1.7	2015_Oct_13_1106	s	s	21	2	SIC	200	RC	2	0	23VC	1	0	0.512281894684	317.0	64.0	307	64	1
1.7	2015_Oct_13_1106	s	s	21	2	SIC	201	RC	1	0	23MC	1	0	1.06232094765	-274.0	222.0	-275	226	1
1.7	2015_Oct_13_1106	s	s	21	2	SIC	202	ABS	0	1	24RO	0	1	4.82529687881	None	None	None	None	1
1.7	2015_Oct_13_1106	s	s	21	2	SIC	203	RC	1	2	23MD	1	0	0.646762132645	-78.0	-256.0	-73	-256	1
1.7	2015_Oct_13_1106	s	s	21	2	SIC	204	RC	2	2	23VD	1	0	0.470051050186	76.0	-251.0	73	-255	1
1.7	2015_Oct_13_1106	s	s	21	2	SIC	205	RC	1	1	23MO	1	0	0.865567207336	-482.0	-353.0	-485	-352	1
1.7	2015_Oct_13_1106	s	s	21	2	SIC	206	ABS	2	1	24VO	0	1	1.12932991982	None	None	None	None	1
1.7	2015_Oct_13_1106	s	s	21	2	SIC	207	ABS	1	1	24MO	0	1	3.39712190628	None	None	None	None	1
1.7	2015_Oct_13_1106	s	s	21	2	SIC	208	ABS	1	0	24MC	0	1	2.52515697479	None	None	None	None	1
1.7	2015_Oct_13_1106	s	s	21	2	SIC	209	ABS	2	2	24VD	0	1	1.07725811005	None	None	None	None	1
1.7	2015_Oct_13_1106	s	s	21	2	SIC	210	RC	2	0	23VC	1	0	0.576073884964	494.0	-42.0	494	-46	1
1.7	2015_Oct_13_1106	s	s	21	2	SIC	211	RC	0	1	23RO	1	0	2.22396016121	228.0	399.0	225	397	1
1.7	2015_Oct_13_1106	s	s	21	2	SIC	212	ABS	2	0	24VC	0	1	0.594707965851	None	None	None	None	1
1.7	2015_Oct_13_1106	s	s	21	2	SIC	213	ABS	0	1	24RO	0	1	4.11608695984	None	None	None	None	1
1.7	2015_Oct_13_1106	s	s	21	2	SIC	214	RC	2	1	23VO	1	0	0.608073949814	340.0	109.0	341	109	1
1.7	2015_Oct_13_1106	s	s	21	2	SIC	215	RC	1	2	23MD	1	0	0.623209953308	-240.0	280.0	-233	285	1
1.7	2015_Oct_13_1106	s	s	21	2	SIC	216	RC	2	2	23VD	1	0	0.438574075699	389.0	-36.0	389	-34	1
1.7	2015_Oct_13_1106	s	s	21	2	SIC	217	ABS	2	1	24VO	0	1	0.55251288414	None	None	None	None	1
1.7	2015_Oct_13_1106	s	s	21	2	SIC	218	ABS	1	1	24MO	0	1	2.26776599884	None	None	None	None	1
1.7	2015_Oct_13_1106	s	s	21	2	SIC	219	RC	0	2	23RD	1	0	0.494072914124	182.0	269.0	177	273	1
1.7	2015_Oct_13_1106	s	s	21	2	SIC	220	ABS	0	2	24RD	0	1	0.811511993408	None	None	None	None	1
1.7	2015_Oct_13_1106	s	s	21	2	SIC	221	RC	1	1	23MO	1	0	0.705544948578	-21.0	-78.0	-26	-88	1
1.7	2015_Oct_13_1106	s	s	21	2	SIC	222	ABS	1	0	24MC	0	1	1.69104194641	None	None	None	None	1
1.7	2015_Oct_13_1106	s	s	21	2	SIC	223	ABS	1	2	24MD	0	1	0.960723876953	None	None	None	None	1
1.7	2015_Oct_13_1106	s	s	21	2	SIC	224	RC	1	0	23MC	1	0	0.587923049927	-135.0	-60.0	-139	-61	1
1.7	2015_Oct_13_1106	s	s	21	2	SIC	225	ABS	2	2	24VD	0	1	0.52360200882	None	None	None	None	1
1.7	2015_Oct_13_1106	s	s	21	2	SIC	226	ABS	2	1	24VO	0	1	1.10308909416	None	None	None	None	1
1.7	2015_Oct_13_1106	s	s	21	2	SIC	227	RC	0	2	23RD	1	0	0.878837108612	247.0	96.0	243	95	1
1.7	2015_Oct_13_1106	s	s	21	2	SIC	228	RC	2	0	23VC	1	0	0.52898812294	344.0	200.0	349	190	1
1.7	2015_Oct_13_1106	s	s	21	2	SIC	229	ABS	1	1	24MO	0	1	1.38183188438	None	None	None	None	1
1.7	2015_Oct_13_1106	s	s	21	2	SIC	230	ABS	0	1	24RO	0	1	4.90177798271	None	None	None	None	1
1.7	2015_Oct_13_1106	s	s	21	2	SIC	231	ABS	1	2	24MD	0	1	0.864888906479	None	None	None	None	1
1.7	2015_Oct_13_1106	s	s	21	2	SIC	232	RC	0	1	23RO	0	1	4.99667096138	-408.0	-271.0	None	None	0
1.7	2015_Oct_13_1106	s	s	21	2	SIC	233	ABS	2	0	24VC	0	1	0.783006906509	None	None	None	None	1
1.7	2015_Oct_13_1106	s	s	21	2	SIC	234	ABS	1	0	24MC	0	1	2.19576215744	None	None	None	None	1
1.7	2015_Oct_13_1106	s	s	21	2	SIC	235	RC	1	0	23MC	1	0	0.926669836044	373.0	408.0	382	404	1
1.7	2015_Oct_13_1106	s	s	21	2	SIC	236	RC	1	2	23MD	1	0	0.69984793663	-533.0	131.0	-531	134	1
1.7	2015_Oct_13_1106	s	s	21	2	SIC	237	RC	1	1	23MO	1	0	0.877141952515	-302.0	409.0	-304	398	1
1.7	2015_Oct_13_1106	s	s	21	2	SIC	238	RC	2	1	23VO	1	0	0.493722915649	141.0	134.0	133	141	1
1.7	2015_Oct_13_1106	s	s	21	2	SIC	239	RC	2	2	23VD	1	0	0.396233797073	48.0	223.0	46	218	1
1.7	2015_Oct_13_1106	s	s	21	2	SIC	240	ABS	0	2	24RD	0	1	0.795667886734	None	None	None	None	1
1.7	2015_Oct_13_1106	s	s	21	2	SIC	241	RC	0	1	23RO	1	0	1.3351919651	120.0	-2.0	117	0	1
1.7	2015_Oct_13_1106	s	s	21	2	SIC	242	ABS	0	2	24RD	0	1	1.17109513283	None	None	None	None	1
1.7	2015_Oct_13_1106	s	s	21	2	SIC	243	RC	2	2	23VD	1	0	0.561667919159	-148.0	-320.0	-152	-320	1
1.7	2015_Oct_13_1106	s	s	21	2	SIC	244	ABS	2	1	24VO	0	1	0.925843000412	None	None	None	None	1
1.7	2015_Oct_13_1106	s	s	21	2	SIC	245	ABS	1	2	24MD	0	1	0.653707027435	None	None	None	None	1
1.7	2015_Oct_13_1106	s	s	21	2	SIC	246	ABS	0	1	24RO	0	1	4.6796400547	None	None	None	None	1
1.7	2015_Oct_13_1106	s	s	21	2	SIC	247	RC	1	0	23MC	1	0	0.67026591301	69.0	-54.0	74	-56	1
1.7	2015_Oct_13_1106	s	s	21	2	SIC	248	RC	1	2	23MD	1	0	0.446616888046	-426.0	245.0	-426	242	1
1.7	2015_Oct_13_1106	s	s	21	2	SIC	249	ABS	2	0	24VC	0	1	0.571301937103	None	None	None	None	1
1.7	2015_Oct_13_1106	s	s	21	2	SIC	250	ABS	1	1	24MO	0	1	2.31526613235	None	None	None	None	1
1.7	2015_Oct_13_1106	s	s	21	2	SIC	251	RC	1	1	23MO	1	0	1.00831103325	-246.0	-305.0	-246	-308	1
1.7	2015_Oct_13_1106	s	s	21	2	SIC	252	ABS	1	0	24MC	0	1	2.38853693008	None	None	None	None	1
1.7	2015_Oct_13_1106	s	s	21	2	SIC	253	RC	2	0	23VC	1	0	0.462114810944	347.0	-134.0	352	-141	1
1.7	2015_Oct_13_1106	s	s	21	2	SIC	254	RC	0	2	23RD	1	0	0.771242141724	96.0	404.0	106	409	1
1.7	2015_Oct_13_1106	s	s	21	2	SIC	255	ABS	2	2	24VD	0	1	0.505537033081	None	None	None	None	1
1.7	2015_Oct_13_1106	s	s	21	2	SIC	256	RC	2	1	23VO	1	0	0.464563131332	472.0	-199.0	474	-204	1
1.7	2015_Oct_13_1106	s	s	21	2	SIC	257	RC	0	2	23RD	1	0	0.458462953568	5.0	15.0	6	15	1
1.7	2015_Oct_13_1106	s	s	21	2	SIC	258	RC	2	1	23VO	1	0	0.453448057175	57.0	-216.0	50	-216	1
1.7	2015_Oct_13_1106	s	s	21	2	SIC	259	RC	1	2	23MD	1	0	0.501060009003	-141.0	-338.0	-139	-339	1
1.7	2015_Oct_13_1106	s	s	21	2	SIC	260	ABS	0	1	24RO	0	1	4.38984799385	None	None	None	None	1
1.7	2015_Oct_13_1106	s	s	21	2	SIC	261	RC	2	0	23VC	1	0	0.764454126358	-497.0	-401.0	-496	-400	1
1.7	2015_Oct_13_1106	s	s	21	2	SIC	262	ABS	1	1	24MO	0	1	1.59511017799	None	None	None	None	1
1.7	2015_Oct_13_1106	s	s	21	2	SIC	263	RC	0	1	23RO	1	0	2.70393490791	457.0	-104.0	453	-113	1
1.7	2015_Oct_13_1106	s	s	21	2	SIC	264	ABS	2	0	24VC	0	1	0.729115009308	None	None	None	None	1
1.7	2015_Oct_13_1106	s	s	21	2	SIC	265	ABS	1	0	24MC	0	1	2.03114318848	None	None	None	None	1
1.7	2015_Oct_13_1106	s	s	21	2	SIC	266	ABS	2	2	24VD	0	1	0.61141204834	None	None	None	None	1
1.7	2015_Oct_13_1106	s	s	21	2	SIC	267	ABS	1	2	24MD	0	1	0.759374141693	None	None	None	None	1
1.7	2015_Oct_13_1106	s	s	21	2	SIC	268	ABS	0	2	24RD	0	1	0.747063875198	None	None	None	None	1
1.7	2015_Oct_13_1106	s	s	21	2	SIC	269	RC	1	0	23MC	1	0	0.619691133499	429.0	220.0	432	228	1
1.7	2015_Oct_13_1106	s	s	21	2	SIC	270	RC	1	1	23MO	1	0	0.905858039856	-180.0	-295.0	-177	-298	1
1.7	2015_Oct_13_1106	s	s	21	2	SIC	271	RC	2	2	23VD	1	0	0.48193192482	496.0	-389.0	496	-395	1
1.7	2015_Oct_13_1106	s	s	21	2	SIC	272	ABS	2	1	24VO	0	1	0.617979049683	None	None	None	None	1
1.7	2015_Oct_13_1106	s	s	21	2	SIC	273	RC	1	2	23MD	1	0	0.49374294281	-496.0	168.0	-494	169	1
1.7	2015_Oct_13_1106	s	s	21	2	SIC	274	RC	2	1	23VO	1	0	0.465268850327	-513.0	-305.0	-509	-307	1
1.7	2015_Oct_13_1106	s	s	21	2	SIC	275	RC	2	2	23VD	1	0	0.46531701088	-382.0	-412.0	-379	-418	1
1.7	2015_Oct_13_1106	s	s	21	2	SIC	276	ABS	2	1	24VO	0	1	0.90558385849	None	None	None	None	1
1.7	2015_Oct_13_1106	s	s	21	2	SIC	277	RC	2	0	23VC	1	0	0.453480958939	216.0	255.0	215	257	1
1.7	2015_Oct_13_1106	s	s	21	2	SIC	278	ABS	1	1	24MO	0	1	2.76048088074	None	None	None	None	1
1.7	2015_Oct_13_1106	s	s	21	2	SIC	279	ABS	1	2	24MD	0	1	0.758722066879	None	None	None	None	1
1.7	2015_Oct_13_1106	s	s	21	2	SIC	280	RC	0	2	23RD	1	0	0.58785700798	72.0	-386.0	68	-396	1
1.7	2015_Oct_13_1106	s	s	21	2	SIC	281	ABS	2	2	24VD	0	1	1.7356338501	None	None	None	None	1
1.7	2015_Oct_13_1106	s	s	21	2	SIC	282	ABS	0	1	24RO	0	1	3.92639493942	None	None	None	None	1
1.7	2015_Oct_13_1106	s	s	21	2	SIC	283	RC	0	1	23RO	1	0	1.6942949295	166.0	324.0	165	324	1
1.7	2015_Oct_13_1106	s	s	21	2	SIC	284	ABS	2	0	24VC	0	1	0.736055850983	None	None	None	None	1
1.7	2015_Oct_13_1106	s	s	21	2	SIC	285	ABS	0	2	24RD	0	1	0.937633991241	None	None	None	None	1
1.7	2015_Oct_13_1106	s	s	21	2	SIC	286	ABS	1	0	24MC	0	1	2.53006291389	None	None	None	None	1
1.7	2015_Oct_13_1106	s	s	21	2	SIC	287	RC	1	0	23MC	0	1	1.92629504204	-462.0	37.0	None	None	0
1.7	2015_Oct_13_1106	s	s	21	2	SIC	288	RC	1	1	23MO	1	0	1.09400820732	-2.0	-381.0	1	-392	1
1.7	2015_Oct_13_1106	s	s	21	2	SIC	289	RC	1	0	23MC	1	0	1.08596920967	305.0	257.0	305	250	1
1.7	2015_Oct_13_1106	s	s	21	2	SIC	290	RC	2	0	23VC	1	0	0.465402126312	442.0	77.0	447	80	1
1.7	2015_Oct_13_1106	s	s	21	2	SIC	291	RC	1	2	23MD	1	0	0.488852977753	322.0	273.0	324	268	1
1.7	2015_Oct_13_1106	s	s	21	2	SIC	292	ABS	0	1	24RO	0	1	4.92620897293	None	None	None	None	1
1.7	2015_Oct_13_1106	s	s	21	2	SIC	293	ABS	2	1	24VO	0	1	0.583512067795	None	None	None	None	1
1.7	2015_Oct_13_1106	s	s	21	2	SIC	294	RC	2	1	23VO	1	0	0.453343153	-77.0	290.0	-78	284	1
1.7	2015_Oct_13_1106	s	s	21	2	SIC	295	ABS	1	0	24MC	0	1	1.23029708862	None	None	None	None	1
1.7	2015_Oct_13_1106	s	s	21	2	SIC	296	RC	2	2	23VD	1	0	0.429861068726	242.0	-53.0	242	-53	1
1.7	2015_Oct_13_1106	s	s	21	2	SIC	297	RC	0	1	23RO	1	0	1.62372899055	5.0	-61.0	1	-64	1
1.7	2015_Oct_13_1106	s	s	21	2	SIC	298	ABS	1	1	24MO	0	1	1.48243403435	None	None	None	None	1
1.7	2015_Oct_13_1106	s	s	21	2	SIC	299	ABS	0	2	24RD	0	1	0.941067934036	None	None	None	None	1
1.7	2015_Oct_13_1106	s	s	21	2	SIC	300	RC	1	1	23MO	1	0	0.835176944733	-313.0	20.0	-305	19	1
1.7	2015_Oct_13_1106	s	s	21	2	SIC	301	ABS	2	2	24VD	0	1	0.47710108757	None	None	None	None	1
1.7	2015_Oct_13_1106	s	s	21	2	SIC	302	ABS	1	2	24MD	0	1	0.94101691246	None	None	None	None	1
1.7	2015_Oct_13_1106	s	s	21	2	SIC	303	ABS	2	0	24VC	0	1	0.747065782547	None	None	None	None	1
1.7	2015_Oct_13_1106	s	s	21	2	SIC	304	RC	0	2	23RD	1	0	0.540766000748	-397.0	-272.0	-396	-274	1
1.7	2015_Oct_13_1106	s	s	21	2	SIC	305	ABS	0	1	24RO	0	1	4.91407108307	None	None	None	None	1
1.7	2015_Oct_13_1106	s	s	21	2	SIC	306	ABS	2	2	24VD	0	1	0.623256921768	None	None	None	None	1
1.7	2015_Oct_13_1106	s	s	21	2	SIC	307	RC	1	0	23MC	1	0	1.23087906837	-216.0	-384.0	-213	-386	1
1.7	2015_Oct_13_1106	s	s	21	2	SIC	308	RC	0	2	23RD	1	0	0.564608097076	226.0	201.0	228	195	1
1.7	2015_Oct_13_1106	s	s	21	2	SIC	309	RC	2	1	23VO	1	0	0.481940984726	-266.0	-14.0	-265	-13	1
1.7	2015_Oct_13_1106	s	s	21	2	SIC	310	ABS	1	2	24MD	0	1	0.764750003815	None	None	None	None	1
1.7	2015_Oct_13_1106	s	s	21	2	SIC	311	ABS	1	0	24MC	0	1	2.58891201019	None	None	None	None	1
1.7	2015_Oct_13_1106	s	s	21	2	SIC	312	ABS	0	2	24RD	0	1	0.787986040115	None	None	None	None	1
1.7	2015_Oct_13_1106	s	s	21	2	SIC	313	RC	1	2	23MD	1	0	0.451987981796	-35.0	181.0	-37	187	1
1.7	2015_Oct_13_1106	s	s	21	2	SIC	314	RC	2	2	23VD	1	0	0.493712902069	-179.0	-291.0	-172	-296	1
1.7	2015_Oct_13_1106	s	s	21	2	SIC	315	RC	1	1	23MO	1	0	0.606848955154	-299.0	-175.0	-300	-180	1
1.7	2015_Oct_13_1106	s	s	21	2	SIC	316	RC	2	0	23VC	1	0	0.441738843918	-12.0	-213.0	-7	-215	1
1.7	2015_Oct_13_1106	s	s	21	2	SIC	317	RC	0	1	23RO	1	0	1.13614201546	183.0	-84.0	191	-88	1
1.7	2015_Oct_13_1106	s	s	21	2	SIC	318	ABS	2	0	24VC	0	1	0.641793012619	None	None	None	None	1
1.7	2015_Oct_13_1106	s	s	21	2	SIC	319	ABS	1	1	24MO	0	1	2.40912604332	None	None	None	None	1
1.7	2015_Oct_13_1106	s	s	21	2	SIC	320	ABS	2	1	24VO	0	1	1.25875806808	None	None	None	None	1
1.7	2015_Oct_13_1106	s	s	21	2	SIC	321	ABS	2	0	24VC	0	1	0.559377908707	None	None	None	None	1
1.7	2015_Oct_13_1106	s	s	21	2	SIC	322	ABS	1	1	24MO	0	1	2.70211315155	None	None	None	None	1
1.7	2015_Oct_13_1106	s	s	21	2	SIC	323	ABS	2	1	24VO	0	1	0.749265909195	None	None	None	None	1
1.7	2015_Oct_13_1106	s	s	21	2	SIC	324	ABS	1	2	24MD	0	1	0.79470205307	None	None	None	None	1
1.7	2015_Oct_13_1106	s	s	21	2	SIC	325	RC	2	1	23VO	1	0	0.611458778381	512.0	121.0	519	119	1
1.7	2015_Oct_13_1106	s	s	21	2	SIC	326	RC	0	2	23RD	1	0	0.59968495369	-347.0	-298.0	-337	-297	1
1.7	2015_Oct_13_1106	s	s	21	2	SIC	327	RC	1	1	23MO	1	0	0.858692884445	531.0	-156.0	535	-159	1
1.7	2015_Oct_13_1106	s	s	21	2	SIC	328	RC	1	2	23MD	1	0	0.431996107101	-39.0	55.0	-42	53	1
1.7	2015_Oct_13_1106	s	s	21	2	SIC	329	RC	2	0	23VC	1	0	0.458389997482	333.0	-356.0	331	-362	1
1.7	2015_Oct_13_1106	s	s	21	2	SIC	330	RC	0	1	23RO	1	0	2.51334691048	283.0	-166.0	288	-172	1
1.7	2015_Oct_13_1106	s	s	21	2	SIC	331	RC	2	2	23VD	1	0	0.423039913177	2.0	15.0	-2	14	1
1.7	2015_Oct_13_1106	s	s	21	2	SIC	332	ABS	0	2	24RD	0	1	1.00841903687	None	None	None	None	1
1.7	2015_Oct_13_1106	s	s	21	2	SIC	333	RC	1	0	23MC	1	0	1.19998908043	45.0	-217.0	48	-216	1
1.7	2015_Oct_13_1106	s	s	21	2	SIC	334	ABS	2	2	24VD	0	1	0.556246995926	None	None	None	None	1
1.7	2015_Oct_13_1106	s	s	21	2	SIC	335	ABS	0	1	24RO	0	1	4.81013703346	None	None	None	None	1
1.7	2015_Oct_13_1106	s	s	21	2	SIC	336	ABS	1	0	24MC	0	1	1.72976112366	None	None	None	None	1
1.7	2015_Oct_13_1106	s	s	21	2	SIC	337	ABS	1	1	24MO	0	1	2.40661406517	None	None	None	None	1
1.7	2015_Oct_13_1106	s	s	21	2	SIC	338	ABS	0	1	24RO	0	1	4.0318582058	None	None	None	None	1
1.7	2015_Oct_13_1106	s	s	21	2	SIC	339	ABS	1	0	24MC	0	1	1.77180290222	None	None	None	None	1
1.7	2015_Oct_13_1106	s	s	21	2	SIC	340	RC	1	1	23MO	1	0	0.606606960297	-224.0	-325.0	-215	-324	1
1.7	2015_Oct_13_1106	s	s	21	2	SIC	341	ABS	0	2	24RD	0	1	0.811614990234	None	None	None	None	1
1.7	2015_Oct_13_1106	s	s	21	2	SIC	342	ABS	2	1	24VO	0	1	0.547671079636	None	None	None	None	1
1.7	2015_Oct_13_1106	s	s	21	2	SIC	343	RC	2	2	23VD	1	0	0.446672916412	273.0	15.0	275	12	1
1.7	2015_Oct_13_1106	s	s	21	2	SIC	344	RC	1	0	23MC	1	0	1.47721219063	-393.0	354.0	-400	348	1
1.7	2015_Oct_13_1106	s	s	21	2	SIC	345	RC	0	1	23RO	0	1	4.6908159256	84.0	-306.0	None	None	0
1.7	2015_Oct_13_1106	s	s	21	2	SIC	346	ABS	1	2	24MD	0	1	0.78392291069	None	None	None	None	1
1.7	2015_Oct_13_1106	s	s	21	2	SIC	347	ABS	2	2	24VD	0	1	0.49035692215	None	None	None	None	1
1.7	2015_Oct_13_1106	s	s	21	2	SIC	348	RC	0	2	23RD	1	0	0.61753988266	132.0	-289.0	136	-294	1
1.7	2015_Oct_13_1106	s	s	21	2	SIC	349	RC	2	1	23VO	1	0	0.42315196991	404.0	125.0	399	126	1
1.7	2015_Oct_13_1106	s	s	21	2	SIC	350	RC	1	2	23MD	1	0	0.63499212265	-499.0	113.0	-502	109	1
1.7	2015_Oct_13_1106	s	s	21	2	SIC	351	ABS	2	0	24VC	0	1	0.634959936142	None	None	None	None	1
1.7	2015_Oct_13_1106	s	s	21	2	SIC	352	RC	2	0	23VC	1	0	0.467590093613	212.0	-375.0	213	-380	1
1.7	2015_Oct_13_1106	s	s	21	2	SIC	353	RC	0	2	23RD	1	0	0.540807008743	282.0	-369.0	286	-380	1
1.7	2015_Oct_13_1106	s	s	21	2	SIC	354	ABS	1	2	24MD	0	1	0.905724048615	None	None	None	None	1
1.7	2015_Oct_13_1106	s	s	21	2	SIC	355	RC	0	1	23RO	1	0	2.66859602928	-389.0	148.0	-386	144	1
1.7	2015_Oct_13_1106	s	s	21	2	SIC	356	RC	1	0	23MC	1	0	0.561669111252	-253.0	48.0	-255	42	1
1.7	2015_Oct_13_1106	s	s	21	2	SIC	357	RC	1	1	23MO	1	0	0.783056020737	-373.0	-161.0	-367	-170	1
1.7	2015_Oct_13_1106	s	s	21	2	SIC	358	ABS	2	2	24VD	0	1	0.505505084991	None	None	None	None	1
1.7	2015_Oct_13_1106	s	s	21	2	SIC	359	ABS	2	1	24VO	0	1	0.664672136307	None	None	None	None	1
1.7	2015_Oct_13_1106	s	s	21	2	SIC	360	ABS	0	1	24RO	0	1	4.09551095963	None	None	None	None	1
1.7	2015_Oct_13_1106	s	s	21	2	SIC	361	ABS	1	0	24MC	1	0	3.12472009659	None	None	528	201	0
1.7	2015_Oct_13_1106	s	s	21	2	SIC	362	ABS	1	1	24MO	0	1	2.02399897575	None	None	None	None	1
1.7	2015_Oct_13_1106	s	s	21	2	SIC	363	RC	1	2	23MD	1	0	0.493757009506	161.0	-172.0	172	-171	1
1.7	2015_Oct_13_1106	s	s	21	2	SIC	364	ABS	2	0	24VC	0	1	0.571326971054	None	None	None	None	1
1.7	2015_Oct_13_1106	s	s	21	2	SIC	365	RC	2	2	23VD	1	0	0.478807926178	438.0	332.0	448	331	1
1.7	2015_Oct_13_1106	s	s	21	2	SIC	366	RC	2	0	23VC	1	0	0.488816976547	191.0	235.0	187	226	1
1.7	2015_Oct_13_1106	s	s	21	2	SIC	367	RC	2	1	23VO	1	0	0.423153877258	-231.0	-314.0	-228	-319	1
1.7	2015_Oct_13_1106	s	s	21	2	SIC	368	ABS	0	2	24RD	0	1	0.958879947662	None	None	None	None	1
1.7	2015_Oct_13_1106	s	s	21	2	SIC	369	ABS	1	1	24MO	0	1	1.20684409142	None	None	None	None	1
1.7	2015_Oct_13_1106	s	s	21	2	SIC	370	RC	0	1	23RO	0	1	3.0781018734	-79.0	-97.0	None	None	0
1.7	2015_Oct_13_1106	s	s	21	2	SIC	371	RC	2	2	23VD	1	0	0.435189008713	391.0	-71.0	396	-75	1
1.7	2015_Oct_13_1106	s	s	21	2	SIC	372	RC	0	2	23RD	1	0	0.540848016739	-295.0	-146.0	-291	-142	1
1.7	2015_Oct_13_1106	s	s	21	2	SIC	373	RC	2	1	23VO	1	0	0.67028093338	-432.0	-411.0	-430	-413	1
1.7	2015_Oct_13_1106	s	s	21	2	SIC	374	ABS	2	1	24VO	0	1	0.571283102036	None	None	None	None	1
1.7	2015_Oct_13_1106	s	s	21	2	SIC	375	RC	1	0	23MC	1	0	0.914259910583	-407.0	-261.0	-410	-259	1
1.7	2015_Oct_13_1106	s	s	21	2	SIC	376	ABS	2	0	24VC	0	1	0.493776082993	None	None	None	None	1
1.7	2015_Oct_13_1106	s	s	21	2	SIC	377	RC	1	2	23MD	1	0	0.673915147781	-449.0	7.0	-452	0	1
1.7	2015_Oct_13_1106	s	s	21	2	SIC	378	ABS	2	2	24VD	0	1	0.664803981781	None	None	None	None	1
1.7	2015_Oct_13_1106	s	s	21	2	SIC	379	RC	2	0	23VC	1	0	0.494052886963	279.0	-351.0	280	-346	1
1.7	2015_Oct_13_1106	s	s	21	2	SIC	380	ABS	0	2	24RD	0	1	0.882266998291	None	None	None	None	1
1.7	2015_Oct_13_1106	s	s	21	2	SIC	381	ABS	1	2	24MD	0	1	0.611608028412	None	None	None	None	1
1.7	2015_Oct_13_1106	s	s	21	2	SIC	382	ABS	1	0	24MC	0	1	2.29196596146	None	None	None	None	1
1.7	2015_Oct_13_1106	s	s	21	2	SIC	383	ABS	0	1	24RO	0	1	3.77769899368	None	None	None	None	1
1.7	2015_Oct_13_1106	s	s	21	2	SIC	384	RC	1	1	23MO	1	0	0.629954099655	245.0	179.0	242	176	1
1.7	2015_Oct_13_1106	s	s	21	2	SIC	385	RC	2	0	23VC	1	0	0.505359888077	40.0	259.0	44	263	1
1.7	2015_Oct_13_1106	s	s	21	2	SIC	386	RC	2	1	23VO	1	0	0.501127004623	-533.0	-245.0	-528	-241	1
1.7	2015_Oct_13_1106	s	s	21	2	SIC	387	ABS	0	2	24RD	0	1	1.35981011391	None	None	None	None	1
1.7	2015_Oct_13_1106	s	s	21	2	SIC	388	ABS	1	0	24MC	0	1	1.99530291557	None	None	None	None	1
1.7	2015_Oct_13_1106	s	s	21	2	SIC	389	ABS	1	2	24MD	0	1	0.594222068787	None	None	None	None	1
1.7	2015_Oct_13_1106	s	s	21	2	SIC	390	RC	0	1	23RO	0	1	2.97233009338	216.0	118.0	None	None	0
1.7	2015_Oct_13_1106	s	s	21	2	SIC	391	RC	1	0	23MC	1	0	0.938143014908	172.0	-215.0	177	-221	1
1.7	2015_Oct_13_1106	s	s	21	2	SIC	392	RC	2	2	23VD	1	0	0.50004196167	-217.0	377.0	-212	379	1
1.7	2015_Oct_13_1106	s	s	21	2	SIC	393	ABS	2	0	24VC	0	1	0.512688875198	None	None	None	None	1
1.7	2015_Oct_13_1106	s	s	21	2	SIC	394	RC	1	2	23MD	1	0	0.444002866745	-40.0	-125.0	-39	-125	1
1.7	2015_Oct_13_1106	s	s	21	2	SIC	395	ABS	0	1	24RO	0	1	3.9374730587	None	None	None	None	1
1.7	2015_Oct_13_1106	s	s	21	2	SIC	396	ABS	2	1	24VO	0	1	0.549283981323	None	None	None	None	1
1.7	2015_Oct_13_1106	s	s	21	2	SIC	397	RC	0	2	23RD	1	0	0.45840716362	57.0	22.0	56	14	1
1.7	2015_Oct_13_1106	s	s	21	2	SIC	398	ABS	1	1	24MO	0	1	2.16029715538	None	None	None	None	1
1.7	2015_Oct_13_1106	s	s	21	2	SIC	399	RC	1	1	23MO	1	0	0.714688777924	15.0	-187.0	17	-195	1
1.7	2015_Oct_13_1106	s	s	21	2	SIC	400	ABS	2	2	24VD	0	1	0.520967960358	None	None	None	None	1
1.7	2015_Oct_13_1106	s	s	21	2	SIC	401	RC	2	0	23VC	1	0	0.740916967392	335.0	130.0	344	129	1
1.7	2015_Oct_13_1106	s	s	21	2	SIC	402	ABS	1	1	24MO	0	1	1.8001909256	None	None	None	None	1
1.7	2015_Oct_13_1106	s	s	21	2	SIC	403	RC	0	2	23RD	1	0	0.576061964035	-256.0	56.0	-256	49	1
1.7	2015_Oct_13_1106	s	s	21	2	SIC	404	ABS	0	1	24RO	0	1	5.18529200554	None	None	None	None	1
1.7	2015_Oct_13_1106	s	s	21	2	SIC	405	RC	1	2	23MD	1	0	0.582818031311	-511.0	33.0	-514	30	1
1.7	2015_Oct_13_1106	s	s	21	2	SIC	406	RC	0	1	23RO	1	0	3.15030813217	396.0	228.0	399	224	1
1.7	2015_Oct_13_1106	s	s	21	2	SIC	407	ABS	0	2	24RD	0	1	1.04173398018	None	None	None	None	1
1.7	2015_Oct_13_1106	s	s	21	2	SIC	408	RC	2	1	23VO	1	0	0.505542993546	-474.0	44.0	-469	41	1
1.7	2015_Oct_13_1106	s	s	21	2	SIC	409	ABS	2	2	24VD	0	1	0.538135051727	None	None	None	None	1
1.7	2015_Oct_13_1106	s	s	21	2	SIC	410	RC	1	1	23MO	1	0	0.523665189743	-23.0	-82.0	-22	-82	1
1.7	2015_Oct_13_1106	s	s	21	2	SIC	411	RC	1	0	23MC	1	0	0.964522123337	372.0	16.0	377	19	1
1.7	2015_Oct_13_1106	s	s	21	2	SIC	412	ABS	1	0	24MC	0	1	1.13604307175	None	None	None	None	1
1.7	2015_Oct_13_1106	s	s	21	2	SIC	413	RC	2	2	23VD	1	0	0.418165922165	500.0	70.0	502	70	1
1.7	2015_Oct_13_1106	s	s	21	2	SIC	414	ABS	2	0	24VC	0	1	0.538264989853	None	None	None	None	1
1.7	2015_Oct_13_1106	s	s	21	2	SIC	415	ABS	1	2	24MD	0	1	0.741014003754	None	None	None	None	1
1.7	2015_Oct_13_1106	s	s	21	2	SIC	416	ABS	2	1	24VO	0	1	0.488291978836	None	None	None	None	1
1.7	2015_Oct_13_1106	s	s	21	2	SIC	417	RC	2	2	23VD	1	0	0.823270082474	9.0	-392.0	9	-392	1
1.7	2015_Oct_13_1106	s	s	21	2	SIC	418	ABS	0	2	24RD	0	1	0.877301931381	None	None	None	None	1
1.7	2015_Oct_13_1106	s	s	21	2	SIC	419	RC	0	2	23RD	1	0	0.535717964172	-298.0	-163.0	-306	-159	1
1.7	2015_Oct_13_1106	s	s	21	2	SIC	420	ABS	2	0	24VC	0	1	0.540795087814	None	None	None	None	1
1.7	2015_Oct_13_1106	s	s	21	2	SIC	421	ABS	0	1	24RO	0	1	4.63698410988	None	None	None	None	1
1.7	2015_Oct_13_1106	s	s	21	2	SIC	422	ABS	1	1	24MO	0	1	3.09876489639	None	None	None	None	1
1.7	2015_Oct_13_1106	s	s	21	2	SIC	423	RC	1	1	23MO	1	0	0.606851100922	295.0	100.0	298	102	1
1.7	2015_Oct_13_1106	s	s	21	2	SIC	424	ABS	2	2	24VD	0	1	0.465765953064	None	None	None	None	1
1.7	2015_Oct_13_1106	s	s	21	2	SIC	425	ABS	1	2	24MD	0	1	0.670306921005	None	None	None	None	1
1.7	2015_Oct_13_1106	s	s	21	2	SIC	426	RC	2	1	23VO	1	0	0.653682947159	415.0	-99.0	411	-97	1
1.7	2015_Oct_13_1106	s	s	21	2	SIC	427	ABS	2	1	24VO	0	1	0.547627925873	None	None	None	None	1
1.7	2015_Oct_13_1106	s	s	21	2	SIC	428	ABS	1	0	24MC	0	1	2.57362008095	None	None	None	None	1
1.7	2015_Oct_13_1106	s	s	21	2	SIC	429	RC	1	2	23MD	1	0	0.564378976822	269.0	369.0	257	376	1
1.7	2015_Oct_13_1106	s	s	21	2	SIC	430	RC	2	0	23VC	1	0	0.500631093979	-249.0	-216.0	-247	-211	1
1.7	2015_Oct_13_1106	s	s	21	2	SIC	431	RC	1	0	23MC	1	0	0.747685909271	4.0	-260.0	6	-257	1
1.7	2015_Oct_13_1106	s	s	21	2	SIC	432	RC	0	1	23RO	1	0	2.57296681404	411.0	-140.0	415	-146	1
1.7	2015_Oct_13_1106	s	s	21	2	SIC	433	RC	1	2	23MD	1	0	0.452715158463	361.0	-172.0	364	-184	1
1.7	2015_Oct_13_1106	s	s	21	2	SIC	434	RC	2	0	23VC	1	0	0.450361013412	113.0	201.0	107	197	1
1.7	2015_Oct_13_1106	s	s	21	2	SIC	435	ABS	1	0	24MC	0	1	3.01632595062	None	None	None	None	1
1.7	2015_Oct_13_1106	s	s	21	2	SIC	436	RC	0	2	23RD	1	0	0.594909906387	132.0	-197.0	129	-204	1
1.7	2015_Oct_13_1106	s	s	21	2	SIC	437	RC	0	1	23RO	0	1	2.82432389259	425.0	-293.0	None	None	0
1.7	2015_Oct_13_1106	s	s	21	2	SIC	438	RC	2	2	23VD	1	0	0.453361034393	-427.0	-150.0	-437	-152	1
1.7	2015_Oct_13_1106	s	s	21	2	SIC	439	RC	1	1	23MO	1	0	1.01155114174	-422.0	131.0	-422	130	1
1.7	2015_Oct_13_1106	s	s	21	2	SIC	440	ABS	0	1	24RO	0	1	2.74189281464	None	None	None	None	1
1.7	2015_Oct_13_1106	s	s	21	2	SIC	441	ABS	2	1	24VO	0	1	0.540824890137	None	None	None	None	1
1.7	2015_Oct_13_1106	s	s	21	2	SIC	442	RC	1	0	23MC	1	0	1.16833686829	528.0	32.0	528	29	1
1.7	2015_Oct_13_1106	s	s	21	2	SIC	443	ABS	1	2	24MD	0	1	0.819489002228	None	None	None	None	1
1.7	2015_Oct_13_1106	s	s	21	2	SIC	444	ABS	2	2	24VD	0	1	0.540823936462	None	None	None	None	1
1.7	2015_Oct_13_1106	s	s	21	2	SIC	445	RC	2	1	23VO	1	0	0.5408411026	294.0	-212.0	300	-212	1
1.7	2015_Oct_13_1106	s	s	21	2	SIC	446	ABS	1	1	24MO	0	1	3.57267594337	None	None	None	None	1
1.7	2015_Oct_13_1106	s	s	21	2	SIC	447	ABS	2	0	24VC	0	1	0.582890033722	None	None	None	None	1
1.7	2015_Oct_13_1106	s	s	21	2	SIC	448	ABS	0	2	24RD	0	1	0.865386009216	None	None	None	None	1
1.7	2015_Oct_13_1106	s	s	21	2	SIC	449	RC	2	2	23VD	1	0	0.399598121643	212.0	-48.0	205	-46	1
1.7	2015_Oct_13_1106	s	s	21	2	SIC	450	ABS	1	2	24MD	0	1	0.654755115509	None	None	None	None	1
1.7	2015_Oct_13_1106	s	s	21	2	SIC	451	ABS	1	1	24MO	0	1	2.27116203308	None	None	None	None	1
1.7	2015_Oct_13_1106	s	s	21	2	SIC	452	RC	1	2	23MD	1	0	0.488645076752	152.0	80.0	161	89	1
1.7	2015_Oct_13_1106	s	s	21	2	SIC	453	ABS	2	1	24VO	0	1	0.705527067184	None	None	None	None	1
1.7	2015_Oct_13_1106	s	s	21	2	SIC	454	RC	2	0	23VC	1	0	0.458430051804	182.0	-376.0	177	-372	1
1.7	2015_Oct_13_1106	s	s	21	2	SIC	455	RC	1	0	23MC	1	0	1.25886392593	-261.0	357.0	-262	355	1
1.7	2015_Oct_13_1106	s	s	21	2	SIC	456	RC	2	1	23VO	1	0	0.399518013	-282.0	-131.0	-290	-124	1
1.7	2015_Oct_13_1106	s	s	21	2	SIC	457	RC	0	2	23RD	1	0	0.537163972855	239.0	369.0	241	378	1
1.7	2015_Oct_13_1106	s	s	21	2	SIC	458	ABS	0	2	24RD	0	1	0.818274021149	None	None	None	None	1
1.7	2015_Oct_13_1106	s	s	21	2	SIC	459	ABS	2	0	24VC	0	1	0.576112031937	None	None	None	None	1
1.7	2015_Oct_13_1106	s	s	21	2	SIC	460	RC	0	1	23RO	1	0	3.01926612854	-358.0	-145.0	-346	-139	1
1.7	2015_Oct_13_1106	s	s	21	2	SIC	461	ABS	2	2	24VD	0	1	0.634994983673	None	None	None	None	1
1.7	2015_Oct_13_1106	s	s	21	2	SIC	462	RC	1	1	23MO	1	0	0.941048145294	71.0	-367.0	76	-363	1
1.7	2015_Oct_13_1106	s	s	21	2	SIC	463	ABS	0	1	24RO	0	1	5.17818379402	None	None	None	None	1
1.7	2015_Oct_13_1106	s	s	21	2	SIC	464	ABS	1	0	24MC	0	1	2.42149305344	None	None	None	None	1
1.7	2015_Oct_13_1106	s	s	21	2	SIC	465	ABS	0	2	24RD	0	1	0.772532939911	None	None	None	None	1
1.7	2015_Oct_13_1106	s	s	21	2	SIC	466	ABS	0	1	24RO	0	1	3.74829506874	None	None	None	None	1
1.7	2015_Oct_13_1106	s	s	21	2	SIC	467	ABS	1	2	24MD	0	1	1.23007893562	None	None	None	None	1
1.7	2015_Oct_13_1106	s	s	21	2	SIC	468	ABS	2	0	24VC	0	1	0.540802001953	None	None	None	None	1
1.7	2015_Oct_13_1106	s	s	21	2	SIC	469	ABS	2	1	24VO	0	1	0.465887069702	None	None	None	None	1
1.7	2015_Oct_13_1106	s	s	21	2	SIC	470	RC	1	1	23MO	1	0	0.700638055801	-370.0	33.0	-374	30	1
1.7	2015_Oct_13_1106	s	s	21	2	SIC	471	ABS	1	0	24MC	0	1	2.14839887619	None	None	None	None	1
1.7	2015_Oct_13_1106	s	s	21	2	SIC	472	RC	2	0	23VC	1	0	0.517256975174	-392.0	35.0	-390	32	1
1.7	2015_Oct_13_1106	s	s	21	2	SIC	473	RC	1	2	23MD	1	0	0.470207214355	-238.0	-123.0	-229	-121	1
1.7	2015_Oct_13_1106	s	s	21	2	SIC	474	RC	0	2	23RD	1	0	0.576074838638	97.0	102.0	97	94	1
1.7	2015_Oct_13_1106	s	s	21	2	SIC	475	ABS	1	1	24MO	0	1	1.56228613853	None	None	None	None	1
1.7	2015_Oct_13_1106	s	s	21	2	SIC	476	ABS	2	2	24VD	0	1	1.20667290688	None	None	None	None	1
1.7	2015_Oct_13_1106	s	s	21	2	SIC	477	RC	0	1	23RO	1	0	2.74226307869	295.0	107.0	305	105	1
1.7	2015_Oct_13_1106	s	s	21	2	SIC	478	RC	1	0	23MC	1	0	0.654201030731	98.0	123.0	95	124	1
1.7	2015_Oct_13_1106	s	s	21	2	SIC	479	RC	2	2	23VD	1	0	0.429767131805	-257.0	-192.0	-262	-192	1
1.7	2015_Oct_13_1106	s	s	21	2	SIC	480	RC	2	1	23VO	1	0	0.478527069092	130.0	-290.0	125	-290	1
1.7	2015_Oct_13_1106	s	s	21	2	SIC	481	RC	2	1	23VO	1	0	0.434938907623	467.0	159.0	467	154	1
1.7	2015_Oct_13_1106	s	s	21	2	SIC	482	ABS	1	0	24MC	0	1	1.68248605728	None	None	None	None	1
1.7	2015_Oct_13_1106	s	s	21	2	SIC	483	RC	1	0	23MC	0	1	1.71549296379	243.0	-303.0	None	None	0
1.7	2015_Oct_13_1106	s	s	21	2	SIC	484	RC	1	2	23MD	1	0	0.477159976959	242.0	-261.0	245	-260	1
1.7	2015_Oct_13_1106	s	s	21	2	SIC	485	RC	1	1	23MO	1	0	0.594439029694	-311.0	-121.0	-311	-126	1
1.7	2015_Oct_13_1106	s	s	21	2	SIC	486	ABS	1	2	24MD	0	1	0.677043914795	None	None	None	None	1
1.7	2015_Oct_13_1106	s	s	21	2	SIC	487	ABS	0	2	24RD	0	1	1.11757397652	None	None	None	None	1
1.7	2015_Oct_13_1106	s	s	21	2	SIC	488	ABS	2	0	24VC	0	1	0.481991052628	None	None	None	None	1
1.7	2015_Oct_13_1106	s	s	21	2	SIC	489	ABS	1	1	24MO	0	1	2.57733511925	None	None	None	None	1
1.7	2015_Oct_13_1106	s	s	21	2	SIC	490	ABS	0	1	24RO	0	1	3.7156419754	None	None	None	None	1
1.7	2015_Oct_13_1106	s	s	21	2	SIC	491	RC	0	1	23RO	1	0	2.71336007118	460.0	196.0	457	199	1
1.7	2015_Oct_13_1106	s	s	21	2	SIC	492	ABS	2	2	24VD	0	1	0.517178058624	None	None	None	None	1
1.7	2015_Oct_13_1106	s	s	21	2	SIC	493	RC	2	0	23VC	1	0	0.505456924438	51.0	22.0	40	23	1
1.7	2015_Oct_13_1106	s	s	21	2	SIC	494	ABS	2	1	24VO	0	1	0.46667599678	None	None	None	None	1
1.7	2015_Oct_13_1106	s	s	21	2	SIC	495	RC	2	2	23VD	1	0	0.418076992035	-93.0	-148.0	-98	-150	1
1.7	2015_Oct_13_1106	s	s	21	2	SIC	496	RC	0	2	23RD	1	0	0.571229934692	-307.0	-59.0	-306	-65	1
1.7	2015_Oct_13_1106	s	s	21	2	SIC	497	RC	0	1	23RO	1	0	2.25415706635	-146.0	-159.0	-145	-167	1
1.7	2015_Oct_13_1106	s	s	21	2	SIC	498	ABS	2	2	24VD	0	1	0.552559137344	None	None	None	None	1
1.7	2015_Oct_13_1106	s	s	21	2	SIC	499	RC	1	1	23MO	1	0	1.12934708595	-532.0	-264.0	-534	-261	1
1.7	2015_Oct_13_1106	s	s	21	2	SIC	500	ABS	0	1	24RO	0	1	3.47844982147	None	None	None	None	1
1.7	2015_Oct_13_1106	s	s	21	2	SIC	501	ABS	1	2	24MD	0	1	0.773675918579	None	None	None	None	1
1.7	2015_Oct_13_1106	s	s	21	2	SIC	502	ABS	2	0	24VC	0	1	0.611463785172	None	None	None	None	1
1.7	2015_Oct_13_1106	s	s	21	2	SIC	503	RC	1	0	23MC	0	1	2.04184603691	37.0	200.0	None	None	0
1.7	2015_Oct_13_1106	s	s	21	2	SIC	504	ABS	1	1	24MO	0	1	1.34815406799	None	None	None	None	1
1.7	2015_Oct_13_1106	s	s	21	2	SIC	505	RC	2	0	23VC	1	0	0.489197015762	452.0	197.0	445	193	1
1.7	2015_Oct_13_1106	s	s	21	2	SIC	506	RC	2	2	23VD	1	0	0.488712072372	384.0	-13.0	383	-14	1
1.7	2015_Oct_13_1106	s	s	21	2	SIC	507	ABS	0	2	24RD	0	1	0.729199886322	None	None	None	None	1
1.7	2015_Oct_13_1106	s	s	21	2	SIC	508	RC	0	2	23RD	1	0	0.787966012955	344.0	-283.0	339	-276	1
1.7	2015_Oct_13_1106	s	s	21	2	SIC	509	ABS	2	1	24VO	0	1	0.505564928055	None	None	None	None	1
1.7	2015_Oct_13_1106	s	s	21	2	SIC	510	RC	2	1	23VO	1	0	0.38778090477	75.0	-20.0	75	-17	1
1.7	2015_Oct_13_1106	s	s	21	2	SIC	511	ABS	1	0	24MC	0	1	1.78351998329	None	None	None	None	1
1.7	2015_Oct_13_1106	s	s	21	2	SIC	512	RC	1	2	23MD	1	0	0.500519037247	-321.0	313.0	-317	316	1
1.7	2015_Oct_13_1106	s	s	21	2	SIC	513	ABS	2	0	24VC	0	1	1.31192183495	None	None	None	None	1
1.7	2015_Oct_13_1106	s	s	21	2	SIC	514	RC	2	0	23VC	1	0	0.467847108841	474.0	-54.0	466	-54	1
1.7	2015_Oct_13_1106	s	s	21	2	SIC	515	ABS	0	2	24RD	0	1	0.700591087341	None	None	None	None	1
1.7	2015_Oct_13_1106	s	s	21	2	SIC	516	RC	0	1	23RO	1	0	1.92406487465	-385.0	-275.0	-385	-275	1
1.7	2015_Oct_13_1106	s	s	21	2	SIC	517	ABS	2	2	24VD	0	1	0.452966928482	None	None	None	None	1
1.7	2015_Oct_13_1106	s	s	21	2	SIC	518	RC	1	2	23MD	1	0	0.67055106163	442.0	-257.0	440	-258	1
1.7	2015_Oct_13_1106	s	s	21	2	SIC	519	RC	2	2	23VD	1	0	0.497921943665	291.0	385.0	290	382	1
1.7	2015_Oct_13_1106	s	s	21	2	SIC	520	RC	1	0	23MC	1	0	0.611502885818	148.0	198.0	152	206	1
1.7	2015_Oct_13_1106	s	s	21	2	SIC	521	RC	0	2	23RD	1	0	0.544312000275	-56.0	2.0	-55	-5	1
1.7	2015_Oct_13_1106	s	s	21	2	SIC	522	RC	2	1	23VO	1	0	0.458425045013	219.0	352.0	221	351	1
1.7	2015_Oct_13_1106	s	s	21	2	SIC	523	RC	1	1	23MO	1	0	0.487470149994	-268.0	162.0	-272	164	1
1.7	2015_Oct_13_1106	s	s	21	2	SIC	524	ABS	2	1	24VO	0	1	0.546908140182	None	None	None	None	1
1.7	2015_Oct_13_1106	s	s	21	2	SIC	525	ABS	1	2	24MD	0	1	0.747779130936	None	None	None	None	1
1.7	2015_Oct_13_1106	s	s	21	2	SIC	526	ABS	1	1	24MO	0	1	2.02394199371	None	None	None	None	1
1.7	2015_Oct_13_1106	s	s	21	2	SIC	527	ABS	0	1	24RO	0	1	3.92810106277	None	None	None	None	1
1.7	2015_Oct_13_1106	s	s	21	2	SIC	528	ABS	1	0	24MC	0	1	1.74138998985	None	None	None	None	1
1.7	2015_Oct_13_1106	s	s	21	2	SIC	529	RC	2	0	23VC	1	0	0.520977020264	379.0	240.0	379	245	1
1.7	2015_Oct_13_1106	s	s	21	2	SIC	530	RC	2	1	23VO	1	0	0.525653123856	-336.0	-220.0	-332	-221	1
1.7	2015_Oct_13_1106	s	s	21	2	SIC	531	ABS	1	1	24MO	0	1	2.30140590668	None	None	None	None	1
1.7	2015_Oct_13_1106	s	s	21	2	SIC	532	RC	1	2	23MD	1	0	0.382931947708	-59.0	0.0	-59	-3	1
1.7	2015_Oct_13_1106	s	s	21	2	SIC	533	ABS	2	1	24VO	0	1	0.617655038834	None	None	None	None	1
1.7	2015_Oct_13_1106	s	s	21	2	SIC	534	ABS	1	2	24MD	0	1	1.31262493134	None	None	None	None	1
1.7	2015_Oct_13_1106	s	s	21	2	SIC	535	RC	0	2	23RD	1	0	0.546921014786	-358.0	196.0	-362	196	1
1.7	2015_Oct_13_1106	s	s	21	2	SIC	536	RC	2	2	23VD	1	0	0.465338945389	435.0	85.0	436	93	1
1.7	2015_Oct_13_1106	s	s	21	2	SIC	537	RC	1	0	23MC	1	0	0.705626964569	247.0	-137.0	255	-138	1
1.7	2015_Oct_13_1106	s	s	21	2	SIC	538	ABS	1	0	24MC	0	1	1.59535908699	None	None	None	None	1
1.7	2015_Oct_13_1106	s	s	21	2	SIC	539	ABS	2	0	24VC	0	1	0.525755882263	None	None	None	None	1
1.7	2015_Oct_13_1106	s	s	21	2	SIC	540	RC	1	1	23MO	1	0	0.571803092957	-120.0	71.0	-119	67	1
1.7	2015_Oct_13_1106	s	s	21	2	SIC	541	ABS	0	2	24RD	0	1	0.842286109924	None	None	None	None	1
1.7	2015_Oct_13_1106	s	s	21	2	SIC	542	ABS	0	1	24RO	0	1	3.62475085258	None	None	None	None	1
1.7	2015_Oct_13_1106	s	s	21	2	SIC	543	ABS	2	2	24VD	0	1	0.51219201088	None	None	None	None	1
1.7	2015_Oct_13_1106	s	s	21	2	SIC	544	RC	0	1	23RO	1	0	3.57524013519	417.0	-312.0	413	-311	1
1.7	2015_Oct_13_1106	s	s	21	2	SIC	545	ABS	1	0	24MC	0	1	1.43050003052	None	None	None	None	1
1.7	2015_Oct_13_1106	s	s	21	2	SIC	546	RC	2	0	23VC	1	0	0.434769868851	223.0	239.0	225	243	1
1.7	2015_Oct_13_1106	s	s	21	2	SIC	547	RC	2	1	23VO	1	0	0.575972795486	-173.0	-395.0	-179	-403	1
1.7	2015_Oct_13_1106	s	s	21	2	SIC	548	RC	2	2	23VD	1	0	0.387800931931	15.0	-150.0	13	-153	1
1.7	2015_Oct_13_1106	s	s	21	2	SIC	549	RC	0	2	23RD	1	0	0.599700927734	464.0	145.0	473	141	1
1.7	2015_Oct_13_1106	s	s	21	2	SIC	550	ABS	0	1	24RO	0	1	4.94298410416	None	None	None	None	1
1.7	2015_Oct_13_1106	s	s	21	2	SIC	551	ABS	2	0	24VC	0	1	0.559617996216	None	None	None	None	1
1.7	2015_Oct_13_1106	s	s	21	2	SIC	552	ABS	2	1	24VO	0	1	0.571748971939	None	None	None	None	1
1.7	2015_Oct_13_1106	s	s	21	2	SIC	553	RC	1	2	23MD	1	0	0.489207029343	-11.0	258.0	-7	254	1
1.7	2015_Oct_13_1106	s	s	21	2	SIC	554	ABS	0	2	24RD	0	1	0.564392089844	None	None	None	None	1
1.7	2015_Oct_13_1106	s	s	21	2	SIC	555	ABS	2	2	24VD	0	1	0.505807876587	None	None	None	None	1
1.7	2015_Oct_13_1106	s	s	21	2	SIC	556	ABS	1	2	24MD	0	1	0.60383605957	None	None	None	None	1
1.7	2015_Oct_13_1106	s	s	21	2	SIC	557	ABS	1	1	24MO	0	1	1.51299500465	None	None	None	None	1
1.7	2015_Oct_13_1106	s	s	21	2	SIC	558	RC	1	0	23MC	1	0	0.877599954605	-430.0	-82.0	-430	-85	1
1.7	2015_Oct_13_1106	s	s	21	2	SIC	559	RC	0	1	23RO	1	0	1.24176096916	-72.0	63.0	-71	61	1
1.7	2015_Oct_13_1106	s	s	21	2	SIC	560	RC	1	1	23MO	1	0	1.65896892548	-521.0	-17.0	-517	-14	1
1.7	2015_Oct_13_1106	s	s	21	2	SIC	561	ABS	0	2	24RD	0	1	0.831474065781	None	None	None	None	1
1.7	2015_Oct_13_1106	s	s	21	2	SIC	562	RC	2	2	23VD	1	0	0.396013975143	59.0	309.0	61	315	1
1.7	2015_Oct_13_1106	s	s	21	2	SIC	563	ABS	1	0	24MC	0	1	1.55302500725	None	None	None	None	1
1.7	2015_Oct_13_1106	s	s	21	2	SIC	564	ABS	1	2	24MD	0	1	0.758846998215	None	None	None	None	1
1.7	2015_Oct_13_1106	s	s	21	2	SIC	565	RC	0	2	23RD	1	0	0.470107078552	528.0	182.0	531	183	1
1.7	2015_Oct_13_1106	s	s	21	2	SIC	566	RC	0	1	23RO	0	1	3.73061800003	-177.0	385.0	None	None	0
1.7	2015_Oct_13_1106	s	s	21	2	SIC	567	RC	2	0	23VC	1	0	0.41509604454	48.0	-123.0	62	-117	1
1.7	2015_Oct_13_1106	s	s	21	2	SIC	568	ABS	2	0	24VC	0	1	0.594693183899	None	None	None	None	1
1.7	2015_Oct_13_1106	s	s	21	2	SIC	569	RC	1	1	23MO	1	0	0.782899856567	-354.0	-184.0	-359	-190	1
1.7	2015_Oct_13_1106	s	s	21	2	SIC	570	ABS	1	1	24MO	0	1	1.40921711922	None	None	None	None	1
1.7	2015_Oct_13_1106	s	s	21	2	SIC	571	RC	1	0	23MC	1	0	0.53595495224	25.0	306.0	29	296	1
1.7	2015_Oct_13_1106	s	s	21	2	SIC	572	ABS	0	1	24RO	0	1	3.52593994141	None	None	None	None	1
1.7	2015_Oct_13_1106	s	s	21	2	SIC	573	RC	2	1	23VO	1	0	0.477076053619	-125.0	20.0	-125	20	1
1.7	2015_Oct_13_1106	s	s	21	2	SIC	574	ABS	2	2	24VD	0	1	0.547646045685	None	None	None	None	1
1.7	2015_Oct_13_1106	s	s	21	2	SIC	575	ABS	2	1	24VO	0	1	0.587927103043	None	None	None	None	1
1.7	2015_Oct_13_1106	s	s	21	2	SIC	576	RC	1	2	23MD	1	0	0.995236873627	-505.0	328.0	-506	324	1
1.7	2015_Oct_13_1106	s	s	21	2	SIC	577	ABS	1	1	24MO	0	1	2.0892431736	None	None	None	None	1
1.7	2015_Oct_13_1106	s	s	21	2	SIC	578	ABS	2	1	24VO	0	1	0.465188026428	None	None	None	None	1
1.7	2015_Oct_13_1106	s	s	21	2	SIC	579	ABS	2	2	24VD	0	1	0.470117092133	None	None	None	None	1
1.7	2015_Oct_13_1106	s	s	21	2	SIC	580	RC	2	0	23VC	1	0	0.411546945572	-182.0	238.0	-185	232	1
1.7	2015_Oct_13_1106	s	s	21	2	SIC	581	RC	2	1	23VO	1	0	0.71737909317	418.0	299.0	425	301	1
1.7	2015_Oct_13_1106	s	s	21	2	SIC	582	RC	0	1	23RO	1	0	2.87935900688	-41.0	-299.0	-39	-294	1
1.7	2015_Oct_13_1106	s	s	21	2	SIC	583	RC	1	1	23MO	1	0	0.653732061386	-289.0	279.0	-290	277	1
1.7	2015_Oct_13_1106	s	s	21	2	SIC	584	ABS	2	0	24VC	0	1	0.632884979248	None	None	None	None	1
1.7	2015_Oct_13_1106	s	s	21	2	SIC	585	ABS	1	2	24MD	0	1	0.959976911545	None	None	None	None	1
1.7	2015_Oct_13_1106	s	s	21	2	SIC	586	RC	0	2	23RD	1	0	0.547806978226	496.0	-104.0	497	-106	1
1.7	2015_Oct_13_1106	s	s	21	2	SIC	587	RC	2	2	23VD	1	0	0.638632059097	-395.0	139.0	-388	140	1
1.7	2015_Oct_13_1106	s	s	21	2	SIC	588	ABS	0	2	24RD	0	1	0.635245084763	None	None	None	None	1
1.7	2015_Oct_13_1106	s	s	21	2	SIC	589	ABS	0	1	24RO	0	1	2.67717289925	None	None	None	None	1
1.7	2015_Oct_13_1106	s	s	21	2	SIC	590	RC	1	0	23MC	1	0	0.588510990143	-184.0	-8.0	-183	-7	1
1.7	2015_Oct_13_1106	s	s	21	2	SIC	591	ABS	1	0	24MC	0	1	2.47105002403	None	None	None	None	1
1.7	2015_Oct_13_1106	s	s	21	2	SIC	592	RC	1	2	23MD	1	0	0.453280925751	227.0	-88.0	234	-86	1
