Version	Date	Stimuli	Method	Subject	Session	Condition	Trial	Target	Channel1	Channel2	Distractors	LMouseButton	RMouseButton	RT	TargetX	TargetY	ResponseX	ResponseY	Correct
1.7	2015_Oct_15_1115	s	s	21	4	Capacity	1	RC	1	0	23MC	1	0	0.806478977203	-37.0	252.0	-38	248	1
1.7	2015_Oct_15_1115	s	s	21	4	Capacity	2	ABS	2	0	24VC	0	1	0.517342090607	None	None	None	None	1
1.7	2015_Oct_15_1115	s	s	21	4	Capacity	3	ABS	1	0	24MC	0	1	1.17137598991	None	None	None	None	1
1.7	2015_Oct_15_1115	s	s	21	4	Capacity	4	RC	2	0	23VC	1	0	0.430022001266	-526.0	-391.0	-523	-394	1
1.7	2015_Oct_15_1115	s	s	21	4	Capacity	5	ABS	1	0	24MC	0	1	1.218572855	None	None	None	None	1
1.7	2015_Oct_15_1115	s	s	21	4	Capacity	6	ABS	2	0	24VC	0	1	0.658477783203	None	None	None	None	1
1.7	2015_Oct_15_1115	s	s	21	4	Capacity	7	RC	2	0	23VC	1	0	0.434695005417	438.0	-172.0	437	-168	1
1.7	2015_Oct_15_1115	s	s	21	4	Capacity	8	RC	1	0	23MC	1	0	0.571110963821	216.0	35.0	214	33	1
1.7	2015_Oct_15_1115	s	s	21	4	Capacity	9	RC	2	0	23VC	1	0	0.423130989075	-295.0	124.0	-295	123	1
1.7	2015_Oct_15_1115	s	s	21	4	Capacity	10	RC	1	0	23MC	1	0	0.879909992218	-210.0	-116.0	-215	-109	1
1.7	2015_Oct_15_1115	s	s	21	4	Capacity	11	ABS	1	0	24MC	0	1	1.14135193825	None	None	None	None	1
1.7	2015_Oct_15_1115	s	s	21	4	Capacity	12	ABS	2	0	24VC	0	1	0.653878927231	None	None	None	None	1
1.7	2015_Oct_15_1115	s	s	21	4	Capacity	13	RC	2	0	23VC	1	0	0.418836832047	-279.0	173.0	-276	172	1
1.7	2015_Oct_15_1115	s	s	21	4	Capacity	14	RC	1	0	23MC	0	1	1.17639112473	-434.0	-385.0	None	None	0
1.7	2015_Oct_15_1115	s	s	21	4	Capacity	15	ABS	2	0	24VC	0	1	0.712305784225	None	None	None	None	1
1.7	2015_Oct_15_1115	s	s	21	4	Capacity	16	ABS	1	0	24MC	0	1	1.45386505127	None	None	None	None	1
1.7	2015_Oct_15_1115	s	s	21	4	Capacity	17	RC	1	0	23MC	0	1	1.48287391663	-181.0	360.0	None	None	0
1.7	2015_Oct_15_1115	s	s	21	4	Capacity	18	RC	2	0	23VC	1	0	0.571615219116	521.0	212.0	526	201	1
1.7	2015_Oct_15_1115	s	s	21	4	Capacity	19	ABS	1	0	24MC	0	1	1.32943296432	None	None	None	None	1
1.7	2015_Oct_15_1115	s	s	21	4	Capacity	20	ABS	2	0	24VC	0	1	0.611479997635	None	None	None	None	1
1.7	2015_Oct_15_1115	s	s	21	4	Capacity	21	RC	2	0	23VC	1	0	0.39460515976	151.0	-29.0	158	-31	1
1.7	2015_Oct_15_1115	s	s	21	4	Capacity	22	RC	1	0	23MC	1	0	0.700698852539	-125.0	-281.0	-117	-282	1
1.7	2015_Oct_15_1115	s	s	21	4	Capacity	23	ABS	2	0	24VC	0	1	0.788010835648	None	None	None	None	1
1.7	2015_Oct_15_1115	s	s	21	4	Capacity	24	ABS	1	0	24MC	0	1	1.62121605873	None	None	None	None	1
1.7	2015_Oct_15_1115	s	s	21	4	Capacity	25	ABS	1	0	24MC	0	1	1.41185498238	None	None	None	None	1
1.7	2015_Oct_15_1115	s	s	21	4	Capacity	26	ABS	2	0	24VC	0	1	0.759509801865	None	None	None	None	1
1.7	2015_Oct_15_1115	s	s	21	4	Capacity	27	RC	1	0	23MC	1	0	0.512194871902	220.0	225.0	220	223	1
1.7	2015_Oct_15_1115	s	s	21	4	Capacity	28	RC	2	0	23VC	1	0	0.411265134811	96.0	283.0	96	286	1
1.7	2015_Oct_15_1115	s	s	21	4	Capacity	29	RC	1	0	23MC	1	0	0.747361183167	372.0	345.0	373	343	1
1.7	2015_Oct_15_1115	s	s	21	4	Capacity	30	ABS	2	0	24VC	0	1	0.47704911232	None	None	None	None	1
1.7	2015_Oct_15_1115	s	s	21	4	Capacity	31	RC	2	0	23VC	1	0	0.430003881454	447.0	297.0	450	295	1
1.7	2015_Oct_15_1115	s	s	21	4	Capacity	32	ABS	1	0	24MC	0	1	1.11789989471	None	None	None	None	1
1.7	2015_Oct_15_1115	s	s	21	4	Capacity	33	ABS	1	0	24MC	0	1	0.971472978592	None	None	None	None	1
1.7	2015_Oct_15_1115	s	s	21	4	Capacity	34	ABS	2	0	24VC	0	1	0.688817977905	None	None	None	None	1
1.7	2015_Oct_15_1115	s	s	21	4	Capacity	35	RC	2	0	23VC	1	0	0.411375045776	-250.0	222.0	-249	218	1
1.7	2015_Oct_15_1115	s	s	21	4	Capacity	36	RC	1	0	23MC	1	0	1.15979719162	-166.0	-310.0	-162	-307	1
1.7	2015_Oct_15_1115	s	s	21	4	Capacity	37	RC	1	0	23MC	1	0	0.493643045425	-274.0	35.0	-271	30	1
1.7	2015_Oct_15_1115	s	s	21	4	Capacity	38	ABS	2	0	24VC	0	1	0.611433982849	None	None	None	None	1
1.7	2015_Oct_15_1115	s	s	21	4	Capacity	39	RC	2	0	23VC	1	0	0.562084913254	400.0	4.0	400	3	1
1.7	2015_Oct_15_1115	s	s	21	4	Capacity	40	ABS	1	0	24MC	0	1	0.985230922699	None	None	None	None	1
1.7	2015_Oct_15_1115	s	s	21	4	Capacity	41	ABS	1	0	24MC	0	1	1.04212093353	None	None	None	None	1
1.7	2015_Oct_15_1115	s	s	21	4	Capacity	42	ABS	2	0	24VC	0	1	0.54082608223	None	None	None	None	1
1.7	2015_Oct_15_1115	s	s	21	4	Capacity	43	RC	1	0	23MC	1	0	0.858592987061	371.0	344.0	366	343	1
1.7	2015_Oct_15_1115	s	s	21	4	Capacity	44	RC	2	0	23VC	1	0	0.382859945297	-116.0	-112.0	-116	-115	1
1.7	2015_Oct_15_1115	s	s	21	4	Capacity	45	RC	1	0	23MC	1	0	0.935882091522	474.0	-219.0	480	-222	1
1.7	2015_Oct_15_1115	s	s	21	4	Capacity	46	RC	2	0	23VC	1	0	0.399787187576	-406.0	-220.0	-399	-219	1
1.7	2015_Oct_15_1115	s	s	21	4	Capacity	47	ABS	2	0	24VC	0	1	0.619877099991	None	None	None	None	1
1.7	2015_Oct_15_1115	s	s	21	4	Capacity	48	ABS	1	0	24MC	0	1	1.2940788269	None	None	None	None	1
1.7	2015_Oct_15_1115	s	s	21	4	Capacity	49	RC	2	0	23VC	1	0	0.435333013535	359.0	375.0	362	381	1
1.7	2015_Oct_15_1115	s	s	21	4	Capacity	50	ABS	1	0	24MC	0	1	1.06555700302	None	None	None	None	1
1.7	2015_Oct_15_1115	s	s	21	4	Capacity	51	ABS	2	0	24VC	0	1	0.688775062561	None	None	None	None	1
1.7	2015_Oct_15_1115	s	s	21	4	Capacity	52	RC	1	0	23MC	1	0	0.858603000641	518.0	-96.0	520	-100	1
1.7	2015_Oct_15_1115	s	s	21	4	Capacity	53	RC	2	0	23VC	1	0	0.372064113617	50.0	123.0	52	115	1
1.7	2015_Oct_15_1115	s	s	21	4	Capacity	54	RC	1	0	23MC	1	0	0.670278072357	155.0	321.0	158	317	1
1.7	2015_Oct_15_1115	s	s	21	4	Capacity	55	ABS	2	0	24VC	0	1	0.538222074509	None	None	None	None	1
1.7	2015_Oct_15_1115	s	s	21	4	Capacity	56	ABS	1	0	24MC	0	1	1.44243001938	None	None	None	None	1
1.7	2015_Oct_15_1115	s	s	21	4	Capacity	57	ABS	2	0	24VC	0	1	0.561712026596	None	None	None	None	1
1.7	2015_Oct_15_1115	s	s	21	4	Capacity	58	RC	2	0	23VC	1	0	0.399544000626	249.0	-126.0	250	-130	1
1.7	2015_Oct_15_1115	s	s	21	4	Capacity	59	RC	1	0	23MC	1	0	0.623131036758	223.0	49.0	223	51	1
1.7	2015_Oct_15_1115	s	s	21	4	Capacity	60	ABS	1	0	24MC	0	1	1.1528429985	None	None	None	None	1
1.7	2015_Oct_15_1115	s	s	21	4	Capacity	61	ABS	2	0	24VC	0	1	0.576524019241	None	None	None	None	1
1.7	2015_Oct_15_1115	s	s	21	4	Capacity	62	RC	2	0	23VC	1	0	0.453662872314	-397.0	185.0	-401	190	1
1.7	2015_Oct_15_1115	s	s	21	4	Capacity	63	ABS	1	0	24MC	0	1	1.22722697258	None	None	None	None	1
1.7	2015_Oct_15_1115	s	s	21	4	Capacity	64	RC	1	0	23MC	1	0	1.03513288498	-329.0	388.0	-325	390	1
1.7	2015_Oct_15_1115	s	s	21	4	Capacity	65	ABS	2	0	24VC	0	1	0.606506109238	None	None	None	None	1
1.7	2015_Oct_15_1115	s	s	21	4	Capacity	66	ABS	1	0	24MC	0	1	1.22350978851	None	None	None	None	1
1.7	2015_Oct_15_1115	s	s	21	4	Capacity	67	RC	1	0	23MC	1	0	0.670230150223	341.0	-122.0	340	-120	1
1.7	2015_Oct_15_1115	s	s	21	4	Capacity	68	RC	2	0	23VC	1	0	0.465254068375	-216.0	-46.0	-217	-45	1
1.7	2015_Oct_15_1115	s	s	21	4	Capacity	69	RC	1	0	23MC	1	0	0.559290885925	-257.0	37.0	-255	41	1
1.7	2015_Oct_15_1115	s	s	21	4	Capacity	70	RC	2	0	23VC	1	0	0.387768030167	389.0	64.0	399	65	1
1.7	2015_Oct_15_1115	s	s	21	4	Capacity	71	ABS	1	0	24MC	0	1	1.05872702599	None	None	None	None	1
1.7	2015_Oct_15_1115	s	s	21	4	Capacity	72	ABS	2	0	24VC	0	1	0.529186010361	None	None	None	None	1
1.7	2015_Oct_15_1115	s	s	21	4	Capacity	73	RC	1	0	23MC	1	0	0.500638008118	-62.0	-209.0	-63	-201	1
1.7	2015_Oct_15_1115	s	s	21	4	Capacity	74	ABS	1	0	24MC	0	1	1.45876002312	None	None	None	None	1
1.7	2015_Oct_15_1115	s	s	21	4	Capacity	75	RC	2	0	23VC	1	0	0.434925079346	-305.0	-199.0	-303	-201	1
1.7	2015_Oct_15_1115	s	s	21	4	Capacity	76	ABS	2	0	24VC	0	1	0.594601154327	None	None	None	None	1
1.7	2015_Oct_15_1115	s	s	21	4	Capacity	77	ABS	1	0	24MC	0	1	1.37658596039	None	None	None	None	1
1.7	2015_Oct_15_1115	s	s	21	4	Capacity	78	RC	2	0	23VC	1	0	0.429803848267	-337.0	-321.0	-335	-315	1
1.7	2015_Oct_15_1115	s	s	21	4	Capacity	79	RC	1	0	23MC	1	0	0.45348906517	-90.0	-190.0	-92	-200	1
1.7	2015_Oct_15_1115	s	s	21	4	Capacity	80	ABS	2	0	24VC	0	1	0.630197048187	None	None	None	None	1
1.7	2015_Oct_15_1115	s	s	21	4	Capacity	81	ABS	1	0	24MC	0	1	1.267152071	None	None	None	None	1
1.7	2015_Oct_15_1115	s	s	21	4	Capacity	82	RC	2	0	23VC	1	0	0.383556842804	-320.0	-46.0	-309	-41	1
1.7	2015_Oct_15_1115	s	s	21	4	Capacity	83	ABS	2	0	24VC	0	1	0.576128005981	None	None	None	None	1
1.7	2015_Oct_15_1115	s	s	21	4	Capacity	84	RC	1	0	23MC	1	0	1.43046593666	-445.0	365.0	-439	368	1
1.7	2015_Oct_15_1115	s	s	21	4	Capacity	85	RC	2	0	23VC	1	0	0.376001119614	314.0	153.0	316	157	1
1.7	2015_Oct_15_1115	s	s	21	4	Capacity	86	ABS	2	0	24VC	0	1	0.582854986191	None	None	None	None	1
1.7	2015_Oct_15_1115	s	s	21	4	Capacity	87	RC	1	0	23MC	1	0	0.935976028442	364.0	-291.0	366	-284	1
1.7	2015_Oct_15_1115	s	s	21	4	Capacity	88	ABS	1	0	24MC	0	1	1.10072684288	None	None	None	None	1
1.7	2015_Oct_15_1115	s	s	21	4	Capacity	89	RC	1	0	23MC	1	0	0.430008888245	328.0	-2.0	319	4	1
1.7	2015_Oct_15_1115	s	s	21	4	Capacity	90	ABS	2	0	24VC	0	1	0.493802070618	None	None	None	None	1
1.7	2015_Oct_15_1115	s	s	21	4	Capacity	91	RC	2	0	23VC	1	0	0.406464099884	-513.0	92.0	-514	94	1
1.7	2015_Oct_15_1115	s	s	21	4	Capacity	92	ABS	1	0	24MC	0	1	1.08970808983	None	None	None	None	1
1.7	2015_Oct_15_1115	s	s	21	4	Capacity	1	RC	0	1	23RO	1	0	1.76496815681	65.0	239.0	64	228	1
1.7	2015_Oct_15_1115	s	s	21	4	Capacity	2	ABS	0	2	24RD	0	1	0.870357990265	None	None	None	None	1
1.7	2015_Oct_15_1115	s	s	21	4	Capacity	3	RC	0	2	23RD	1	0	0.509163856506	-360.0	316.0	-359	314	1
1.7	2015_Oct_15_1115	s	s	21	4	Capacity	4	ABS	0	1	24RO	0	1	3.98957490921	None	None	None	None	1
1.7	2015_Oct_15_1115	s	s	21	4	Capacity	5	ABS	0	2	24RD	0	1	0.794803142548	None	None	None	None	1
1.7	2015_Oct_15_1115	s	s	21	4	Capacity	6	ABS	0	1	24RO	0	1	3.40825915337	None	None	None	None	1
1.7	2015_Oct_15_1115	s	s	21	4	Capacity	7	RC	0	1	23RO	1	0	3.58941793442	-383.0	-371.0	-380	-373	1
1.7	2015_Oct_15_1115	s	s	21	4	Capacity	8	RC	0	2	23RD	1	0	0.540812969208	-100.0	290.0	-97	285	1
1.7	2015_Oct_15_1115	s	s	21	4	Capacity	9	ABS	0	1	24RO	0	1	3.44813585281	None	None	None	None	1
1.7	2015_Oct_15_1115	s	s	21	4	Capacity	10	RC	0	2	23RD	1	0	0.501782894135	299.0	153.0	297	148	1
1.7	2015_Oct_15_1115	s	s	21	4	Capacity	11	ABS	0	2	24RD	0	1	0.759486913681	None	None	None	None	1
1.7	2015_Oct_15_1115	s	s	21	4	Capacity	12	RC	0	1	23RO	1	0	1.01763486862	-250.0	-61.0	-244	-58	1
1.7	2015_Oct_15_1115	s	s	21	4	Capacity	13	ABS	0	2	24RD	0	1	0.682108879089	None	None	None	None	1
1.7	2015_Oct_15_1115	s	s	21	4	Capacity	14	RC	0	1	23RO	1	0	2.97729110718	409.0	-34.0	410	-33	1
1.7	2015_Oct_15_1115	s	s	21	4	Capacity	15	ABS	0	1	24RO	0	1	3.47166585922	None	None	None	None	1
1.7	2015_Oct_15_1115	s	s	21	4	Capacity	16	RC	0	2	23RD	1	0	0.52622795105	381.0	244.0	381	231	1
1.7	2015_Oct_15_1115	s	s	21	4	Capacity	17	RC	0	1	23RO	1	0	1.78337597847	-334.0	-358.0	-328	-354	1
1.7	2015_Oct_15_1115	s	s	21	4	Capacity	18	RC	0	2	23RD	1	0	0.540762901306	272.0	66.0	273	64	1
1.7	2015_Oct_15_1115	s	s	21	4	Capacity	19	ABS	0	2	24RD	0	1	0.677206993103	None	None	None	None	1
1.7	2015_Oct_15_1115	s	s	21	4	Capacity	20	ABS	0	1	24RO	0	1	3.33745098114	None	None	None	None	1
1.7	2015_Oct_15_1115	s	s	21	4	Capacity	21	ABS	0	1	24RO	0	1	3.51882004738	None	None	None	None	1
1.7	2015_Oct_15_1115	s	s	21	4	Capacity	22	RC	0	1	23RO	0	1	3.32544493675	396.0	-297.0	None	None	0
1.7	2015_Oct_15_1115	s	s	21	4	Capacity	23	RC	0	2	23RD	1	0	0.540817022324	291.0	209.0	295	218	1
1.7	2015_Oct_15_1115	s	s	21	4	Capacity	24	ABS	0	2	24RD	0	1	0.615033864975	None	None	None	None	1
1.7	2015_Oct_15_1115	s	s	21	4	Capacity	25	RC	0	1	23RO	0	1	3.66000699997	87.0	-328.0	None	None	0
1.7	2015_Oct_15_1115	s	s	21	4	Capacity	26	ABS	0	2	24RD	0	1	0.611452102661	None	None	None	None	1
1.7	2015_Oct_15_1115	s	s	21	4	Capacity	27	RC	0	2	23RD	1	0	0.434836864471	-82.0	214.0	-80	209	1
1.7	2015_Oct_15_1115	s	s	21	4	Capacity	28	ABS	0	1	24RO	0	1	3.25472187996	None	None	None	None	1
1.7	2015_Oct_15_1115	s	s	21	4	Capacity	29	RC	0	1	23RO	1	0	3.28330993652	315.0	-402.0	310	-405	1
1.7	2015_Oct_15_1115	s	s	21	4	Capacity	30	ABS	0	1	24RO	0	1	3.20795989037	None	None	None	None	1
1.7	2015_Oct_15_1115	s	s	21	4	Capacity	31	ABS	0	2	24RD	0	1	0.693807125092	None	None	None	None	1
1.7	2015_Oct_15_1115	s	s	21	4	Capacity	32	RC	0	2	23RD	1	0	0.502817869186	-378.0	150.0	-377	144	1
1.7	2015_Oct_15_1115	s	s	21	4	Capacity	33	ABS	0	1	24RO	0	1	3.64821386337	None	None	None	None	1
1.7	2015_Oct_15_1115	s	s	21	4	Capacity	34	RC	0	2	23RD	1	0	0.470201015472	379.0	-140.0	377	-144	1
1.7	2015_Oct_15_1115	s	s	21	4	Capacity	35	RC	0	1	23RO	1	0	1.3144299984	368.0	9.0	373	14	1
1.7	2015_Oct_15_1115	s	s	21	4	Capacity	36	ABS	0	2	24RD	0	1	0.670262098312	None	None	None	None	1
1.7	2015_Oct_15_1115	s	s	21	4	Capacity	37	ABS	0	2	24RD	0	1	0.723701953888	None	None	None	None	1
1.7	2015_Oct_15_1115	s	s	21	4	Capacity	38	RC	0	1	23RO	1	0	2.83226799965	424.0	16.0	434	15	1
1.7	2015_Oct_15_1115	s	s	21	4	Capacity	39	ABS	0	1	24RO	0	1	2.68922996521	None	None	None	None	1
1.7	2015_Oct_15_1115	s	s	21	4	Capacity	40	RC	0	2	23RD	1	0	0.693785905838	-397.0	-304.0	-398	-308	1
1.7	2015_Oct_15_1115	s	s	21	4	Capacity	41	RC	0	1	23RO	0	1	4.02484107018	-380.0	11.0	None	None	0
1.7	2015_Oct_15_1115	s	s	21	4	Capacity	42	ABS	0	2	24RD	0	1	0.581454992294	None	None	None	None	1
1.7	2015_Oct_15_1115	s	s	21	4	Capacity	43	RC	0	2	23RD	1	0	0.42939209938	-264.0	80.0	-269	77	1
1.7	2015_Oct_15_1115	s	s	21	4	Capacity	44	ABS	0	1	24RO	0	1	3.96605610847	None	None	None	None	1
1.7	2015_Oct_15_1115	s	s	21	4	Capacity	45	ABS	0	2	24RD	0	1	0.729053020477	None	None	None	None	1
1.7	2015_Oct_15_1115	s	s	21	4	Capacity	46	RC	0	2	23RD	1	0	0.513802051544	359.0	405.0	357	402	1
1.7	2015_Oct_15_1115	s	s	21	4	Capacity	47	RC	0	1	23RO	0	1	3.31863117218	-410.0	149.0	None	None	0
1.7	2015_Oct_15_1115	s	s	21	4	Capacity	48	ABS	0	1	24RO	0	1	4.17296814919	None	None	None	None	1
1.7	2015_Oct_15_1115	s	s	21	4	Capacity	49	RC	0	2	23RD	1	0	0.858551979065	533.0	278.0	538	278	1
1.7	2015_Oct_15_1115	s	s	21	4	Capacity	50	RC	0	1	23RO	0	1	4.23682904243	-309.0	-401.0	None	None	0
1.7	2015_Oct_15_1115	s	s	21	4	Capacity	51	ABS	0	2	24RD	0	1	0.705598115921	None	None	None	None	1
1.7	2015_Oct_15_1115	s	s	21	4	Capacity	52	ABS	0	1	24RO	0	1	5.14309287071	None	None	None	None	1
1.7	2015_Oct_15_1115	s	s	21	4	Capacity	53	ABS	0	1	24RO	0	1	3.98484706879	None	None	None	None	1
1.7	2015_Oct_15_1115	s	s	21	4	Capacity	54	RC	0	2	23RD	1	0	0.529137134552	-425.0	-112.0	-419	-105	1
1.7	2015_Oct_15_1115	s	s	21	4	Capacity	55	ABS	0	2	24RD	0	1	0.74459695816	None	None	None	None	1
1.7	2015_Oct_15_1115	s	s	21	4	Capacity	56	RC	0	1	23RO	1	0	2.57709407806	472.0	12.0	473	15	1
1.7	2015_Oct_15_1115	s	s	21	4	Capacity	57	ABS	0	2	24RD	0	1	0.879465103149	None	None	None	None	1
1.7	2015_Oct_15_1115	s	s	21	4	Capacity	58	RC	0	2	23RD	1	0	0.538421869278	108.0	-237.0	107	-236	1
1.7	2015_Oct_15_1115	s	s	21	4	Capacity	59	RC	0	1	23RO	1	0	0.759003162384	-211.0	77.0	-211	71	1
1.7	2015_Oct_15_1115	s	s	21	4	Capacity	60	ABS	0	1	24RO	0	1	3.72668218613	None	None	None	None	1
1.7	2015_Oct_15_1115	s	s	21	4	Capacity	61	RC	0	1	23RO	1	0	1.54128313065	-306.0	399.0	-299	399	1
1.7	2015_Oct_15_1115	s	s	21	4	Capacity	62	ABS	0	2	24RD	0	1	0.829414129257	None	None	None	None	1
1.7	2015_Oct_15_1115	s	s	21	4	Capacity	63	RC	0	2	23RD	1	0	0.493671894073	-207.0	-298.0	-197	-299	1
1.7	2015_Oct_15_1115	s	s	21	4	Capacity	64	ABS	0	1	24RO	0	1	3.55407595634	None	None	None	None	1
1.7	2015_Oct_15_1115	s	s	21	4	Capacity	65	ABS	0	1	24RO	0	1	3.71081995964	None	None	None	None	1
1.7	2015_Oct_15_1115	s	s	21	4	Capacity	66	RC	0	2	23RD	1	0	0.453384876251	162.0	6.0	160	12	1
1.7	2015_Oct_15_1115	s	s	21	4	Capacity	67	ABS	0	2	24RD	0	1	0.693903207779	None	None	None	None	1
1.7	2015_Oct_15_1115	s	s	21	4	Capacity	68	RC	0	1	23RO	1	0	1.74143099785	-51.0	365.0	-45	362	1
1.7	2015_Oct_15_1115	s	s	21	4	Capacity	69	ABS	0	2	24RD	0	1	0.75009894371	None	None	None	None	1
1.7	2015_Oct_15_1115	s	s	21	4	Capacity	70	RC	0	1	23RO	1	0	3.59617805481	-451.0	296.0	-447	299	1
1.7	2015_Oct_15_1115	s	s	21	4	Capacity	71	RC	0	2	23RD	1	0	0.688949108124	-406.0	-401.0	-401	-403	1
1.7	2015_Oct_15_1115	s	s	21	4	Capacity	72	ABS	0	1	24RO	0	1	3.57766485214	None	None	None	None	1
1.7	2015_Oct_15_1115	s	s	21	4	Capacity	73	RC	0	2	23RD	1	0	0.517235994339	-122.0	334.0	-124	341	1
1.7	2015_Oct_15_1115	s	s	21	4	Capacity	74	ABS	0	2	24RD	0	1	0.818251848221	None	None	None	None	1
1.7	2015_Oct_15_1115	s	s	21	4	Capacity	75	RC	0	1	23RO	0	1	3.43406391144	44.0	-232.0	None	None	0
1.7	2015_Oct_15_1115	s	s	21	4	Capacity	76	ABS	0	1	24RO	0	1	3.44842100143	None	None	None	None	1
1.7	2015_Oct_15_1115	s	s	21	4	Capacity	77	ABS	0	2	24RD	0	1	0.646682977676	None	None	None	None	1
1.7	2015_Oct_15_1115	s	s	21	4	Capacity	78	RC	0	1	23RO	1	0	3.17736291885	142.0	-317.0	141	-312	1
1.7	2015_Oct_15_1115	s	s	21	4	Capacity	79	RC	0	2	23RD	1	0	0.558928966522	359.0	-54.0	360	-54	1
1.7	2015_Oct_15_1115	s	s	21	4	Capacity	80	ABS	0	1	24RO	0	1	3.29035711288	None	None	None	None	1
1.7	2015_Oct_15_1115	s	s	21	4	Capacity	81	ABS	0	2	24RD	0	1	0.642212867737	None	None	None	None	1
1.7	2015_Oct_15_1115	s	s	21	4	Capacity	82	RC	0	1	23RO	1	0	0.819639921188	234.0	-21.0	235	-25	1
1.7	2015_Oct_15_1115	s	s	21	4	Capacity	83	ABS	0	1	24RO	0	1	3.32560300827	None	None	None	None	1
1.7	2015_Oct_15_1115	s	s	21	4	Capacity	84	RC	0	2	23RD	1	0	0.477025032043	177.0	360.0	173	357	1
1.7	2015_Oct_15_1115	s	s	21	4	Capacity	85	RC	0	1	23RO	1	0	1.83219408989	409.0	42.0	416	39	1
1.7	2015_Oct_15_1115	s	s	21	4	Capacity	86	RC	0	2	23RD	1	0	0.465188026428	-33.0	-100.0	-38	-102	1
1.7	2015_Oct_15_1115	s	s	21	4	Capacity	87	ABS	0	1	24RO	0	1	3.40771508217	None	None	None	None	1
1.7	2015_Oct_15_1115	s	s	21	4	Capacity	88	ABS	0	2	24RD	0	1	0.788271188736	None	None	None	None	1
1.7	2015_Oct_15_1115	s	s	21	4	Capacity	89	RC	0	2	23RD	1	0	0.535840034485	467.0	-275.0	473	-278	1
1.7	2015_Oct_15_1115	s	s	21	4	Capacity	90	RC	0	1	23RO	1	0	0.829959869385	72.0	-181.0	83	-178	1
1.7	2015_Oct_15_1115	s	s	21	4	Capacity	91	ABS	0	1	24RO	0	1	3.56571698189	None	None	None	None	1
1.7	2015_Oct_15_1115	s	s	21	4	Capacity	92	ABS	0	2	24RD	0	1	0.760802030563	None	None	None	None	1
1.7	2015_Oct_15_1115	s	s	21	4	SIC	1	ABS	0	2	24RD	0	1	0.705638885498	None	None	None	None	1
1.7	2015_Oct_15_1115	s	s	21	4	SIC	2	RC	2	2	23VD	1	0	0.399579048157	231.0	183.0	235	177	1
1.7	2015_Oct_15_1115	s	s	21	4	SIC	3	RC	0	1	23RO	0	1	3.97778296471	-394.0	206.0	None	None	0
1.7	2015_Oct_15_1115	s	s	21	4	SIC	4	ABS	2	1	24VO	0	1	0.517238140106	None	None	None	None	1
1.7	2015_Oct_15_1115	s	s	21	4	SIC	5	RC	1	2	23MD	1	0	0.611451148987	-149.0	-182.0	-148	-181	1
1.7	2015_Oct_15_1115	s	s	21	4	SIC	6	RC	2	0	23VC	1	0	0.512408018112	-330.0	-14.0	-328	-12	1
1.7	2015_Oct_15_1115	s	s	21	4	SIC	7	ABS	1	2	24MD	0	1	0.882183790207	None	None	None	None	1
1.7	2015_Oct_15_1115	s	s	21	4	SIC	8	ABS	2	2	24VD	0	1	0.535917043686	None	None	None	None	1
1.7	2015_Oct_15_1115	s	s	21	4	SIC	9	ABS	2	0	24VC	0	1	0.453183889389	None	None	None	None	1
1.7	2015_Oct_15_1115	s	s	21	4	SIC	10	RC	1	0	23MC	1	0	0.893846988678	157.0	393.0	163	387	1
1.7	2015_Oct_15_1115	s	s	21	4	SIC	11	ABS	1	1	24MO	0	1	2.50313687325	None	None	None	None	1
1.7	2015_Oct_15_1115	s	s	21	4	SIC	12	ABS	0	1	24RO	0	1	3.75402498245	None	None	None	None	1
1.7	2015_Oct_15_1115	s	s	21	4	SIC	13	RC	1	1	23MO	1	0	0.559229850769	-486.0	83.0	-488	82	1
1.7	2015_Oct_15_1115	s	s	21	4	SIC	14	RC	2	1	23VO	1	0	0.399538993835	-147.0	-295.0	-150	-299	1
1.7	2015_Oct_15_1115	s	s	21	4	SIC	15	RC	0	2	23RD	1	0	0.475611209869	43.0	-271.0	44	-276	1
1.7	2015_Oct_15_1115	s	s	21	4	SIC	16	ABS	1	0	24MC	0	1	1.10577106476	None	None	None	None	1
1.7	2015_Oct_15_1115	s	s	21	4	SIC	17	RC	0	1	23RO	0	1	2.84275102615	306.0	-306.0	None	None	0
1.7	2015_Oct_15_1115	s	s	21	4	SIC	18	ABS	0	2	24RD	0	1	0.670319080353	None	None	None	None	1
1.7	2015_Oct_15_1115	s	s	21	4	SIC	19	ABS	2	2	24VD	0	1	0.517204999924	None	None	None	None	1
1.7	2015_Oct_15_1115	s	s	21	4	SIC	20	RC	0	2	23RD	1	0	0.500551939011	-162.0	-128.0	-163	-130	1
1.7	2015_Oct_15_1115	s	s	21	4	SIC	21	ABS	0	1	24RO	0	1	3.3776011467	None	None	None	None	1
1.7	2015_Oct_15_1115	s	s	21	4	SIC	22	ABS	1	0	24MC	0	1	0.71346282959	None	None	None	None	1
1.7	2015_Oct_15_1115	s	s	21	4	SIC	23	ABS	2	1	24VO	0	1	0.575976848602	None	None	None	None	1
1.7	2015_Oct_15_1115	s	s	21	4	SIC	24	RC	1	2	23MD	1	0	0.54069685936	-261.0	95.0	-263	99	1
1.7	2015_Oct_15_1115	s	s	21	4	SIC	25	RC	1	1	23MO	1	0	0.523813009262	146.0	72.0	151	75	1
1.7	2015_Oct_15_1115	s	s	21	4	SIC	26	RC	2	2	23VD	1	0	0.417850017548	482.0	12.0	488	12	1
1.7	2015_Oct_15_1115	s	s	21	4	SIC	27	ABS	1	1	24MO	0	1	0.79160785675	None	None	None	None	1
1.7	2015_Oct_15_1115	s	s	21	4	SIC	28	ABS	1	2	24MD	0	1	0.623086929321	None	None	None	None	1
1.7	2015_Oct_15_1115	s	s	21	4	SIC	29	RC	1	0	23MC	1	0	0.500498056412	238.0	-125.0	237	-121	1
1.7	2015_Oct_15_1115	s	s	21	4	SIC	30	RC	2	1	23VO	1	0	0.411489009857	-419.0	200.0	-415	208	1
1.7	2015_Oct_15_1115	s	s	21	4	SIC	31	RC	2	0	23VC	1	0	0.399552106857	-32.0	347.0	-31	355	1
1.7	2015_Oct_15_1115	s	s	21	4	SIC	32	ABS	2	0	24VC	0	1	0.458359003067	None	None	None	None	1
1.7	2015_Oct_15_1115	s	s	21	4	SIC	33	RC	1	0	23MC	1	0	1.13625407219	-426.0	-98.0	-429	-102	1
1.7	2015_Oct_15_1115	s	s	21	4	SIC	34	ABS	2	2	24VD	0	1	0.467446804047	None	None	None	None	1
1.7	2015_Oct_15_1115	s	s	21	4	SIC	35	RC	0	2	23RD	1	0	0.634979963303	-497.0	-273.0	-504	-280	1
1.7	2015_Oct_15_1115	s	s	21	4	SIC	36	RC	0	1	23RO	1	0	3.35391616821	-399.0	23.0	-389	26	1
1.7	2015_Oct_15_1115	s	s	21	4	SIC	37	ABS	2	0	24VC	0	1	0.423009872437	None	None	None	None	1
1.7	2015_Oct_15_1115	s	s	21	4	SIC	38	RC	2	2	23VD	1	0	0.481956005096	272.0	-292.0	276	-298	1
1.7	2015_Oct_15_1115	s	s	21	4	SIC	39	ABS	1	0	24MC	0	1	1.31383705139	None	None	None	None	1
1.7	2015_Oct_15_1115	s	s	21	4	SIC	40	ABS	1	1	24MO	0	1	1.15306091309	None	None	None	None	1
1.7	2015_Oct_15_1115	s	s	21	4	SIC	41	ABS	0	1	24RO	0	1	4.07194900513	None	None	None	None	1
1.7	2015_Oct_15_1115	s	s	21	4	SIC	42	RC	1	2	23MD	1	0	0.454428911209	-468.0	140.0	-467	141	1
1.7	2015_Oct_15_1115	s	s	21	4	SIC	43	RC	2	1	23VO	1	0	0.444327116013	-174.0	367.0	-169	364	1
1.7	2015_Oct_15_1115	s	s	21	4	SIC	44	RC	1	1	23MO	1	0	1.03229498863	442.0	-136.0	450	-139	1
1.7	2015_Oct_15_1115	s	s	21	4	SIC	45	RC	2	0	23VC	1	0	0.394953012466	-132.0	133.0	-139	127	1
1.7	2015_Oct_15_1115	s	s	21	4	SIC	46	ABS	1	2	24MD	0	1	0.752626180649	None	None	None	None	1
1.7	2015_Oct_15_1115	s	s	21	4	SIC	47	ABS	0	2	24RD	0	1	0.794893026352	None	None	None	None	1
1.7	2015_Oct_15_1115	s	s	21	4	SIC	48	ABS	2	1	24VO	0	1	0.717298984528	None	None	None	None	1
1.7	2015_Oct_15_1115	s	s	21	4	SIC	49	RC	2	1	23VO	1	0	0.359130859375	66.0	31.0	72	30	1
1.7	2015_Oct_15_1115	s	s	21	4	SIC	50	ABS	0	1	24RO	0	1	3.85721898079	None	None	None	None	1
1.7	2015_Oct_15_1115	s	s	21	4	SIC	51	ABS	0	2	24RD	0	1	0.712215900421	None	None	None	None	1
1.7	2015_Oct_15_1115	s	s	21	4	SIC	52	RC	2	0	23VC	1	0	0.406273841858	209.0	-220.0	201	-226	1
1.7	2015_Oct_15_1115	s	s	21	4	SIC	53	RC	0	2	23RD	1	0	0.465213775635	-353.0	-152.0	-351	-153	1
1.7	2015_Oct_15_1115	s	s	21	4	SIC	54	ABS	2	1	24VO	0	1	0.458397865295	None	None	None	None	1
1.7	2015_Oct_15_1115	s	s	21	4	SIC	55	ABS	2	2	24VD	0	1	0.505434989929	None	None	None	None	1
1.7	2015_Oct_15_1115	s	s	21	4	SIC	56	ABS	1	1	24MO	0	1	1.50592708588	None	None	None	None	1
1.7	2015_Oct_15_1115	s	s	21	4	SIC	57	ABS	2	0	24VC	0	1	0.81836104393	None	None	None	None	1
1.7	2015_Oct_15_1115	s	s	21	4	SIC	58	RC	2	2	23VD	1	0	0.535995960236	-434.0	131.0	-428	125	1
1.7	2015_Oct_15_1115	s	s	21	4	SIC	59	ABS	1	0	24MC	0	1	1.47779083252	None	None	None	None	1
1.7	2015_Oct_15_1115	s	s	21	4	SIC	60	RC	1	1	23MO	1	0	0.488623857498	-494.0	158.0	-496	167	1
1.7	2015_Oct_15_1115	s	s	21	4	SIC	61	RC	0	1	23RO	1	0	2.63328003883	71.0	-343.0	68	-347	1
1.7	2015_Oct_15_1115	s	s	21	4	SIC	62	ABS	1	2	24MD	0	1	0.599936008453	None	None	None	None	1
1.7	2015_Oct_15_1115	s	s	21	4	SIC	63	RC	1	2	23MD	1	0	0.441864013672	-72.0	306.0	-67	305	1
1.7	2015_Oct_15_1115	s	s	21	4	SIC	64	RC	1	0	23MC	1	0	0.529023170471	-482.0	179.0	-474	181	1
1.7	2015_Oct_15_1115	s	s	21	4	SIC	65	RC	0	1	23RO	0	1	2.68976998329	-104.0	-207.0	None	None	0
1.7	2015_Oct_15_1115	s	s	21	4	SIC	66	ABS	1	0	24MC	0	1	1.05863308907	None	None	None	None	1
1.7	2015_Oct_15_1115	s	s	21	4	SIC	67	ABS	1	1	24MO	0	1	0.924133062363	None	None	None	None	1
1.7	2015_Oct_15_1115	s	s	21	4	SIC	68	ABS	1	2	24MD	0	1	0.676888942719	None	None	None	None	1
1.7	2015_Oct_15_1115	s	s	21	4	SIC	69	RC	1	2	23MD	1	0	0.482228040695	-237.0	-281.0	-235	-283	1
1.7	2015_Oct_15_1115	s	s	21	4	SIC	70	ABS	2	0	24VC	0	1	0.44330406189	None	None	None	None	1
1.7	2015_Oct_15_1115	s	s	21	4	SIC	71	ABS	2	1	24VO	0	1	0.481938838959	None	None	None	None	1
1.7	2015_Oct_15_1115	s	s	21	4	SIC	72	RC	2	1	23VO	1	0	0.411310911179	-26.0	53.0	-28	54	1
1.7	2015_Oct_15_1115	s	s	21	4	SIC	73	RC	1	1	23MO	1	0	0.768155813217	285.0	-92.0	286	-88	1
1.7	2015_Oct_15_1115	s	s	21	4	SIC	74	RC	1	0	23MC	1	0	0.768084049225	-237.0	118.0	-235	122	1
1.7	2015_Oct_15_1115	s	s	21	4	SIC	75	RC	2	2	23VD	1	0	0.38262295723	-353.0	-43.0	-350	-41	1
1.7	2015_Oct_15_1115	s	s	21	4	SIC	76	RC	2	0	23VC	1	0	0.37589097023	-142.0	-257.0	-139	-265	1
1.7	2015_Oct_15_1115	s	s	21	4	SIC	77	ABS	0	2	24RD	0	1	0.710950136185	None	None	None	None	1
1.7	2015_Oct_15_1115	s	s	21	4	SIC	78	ABS	2	2	24VD	0	1	0.488826990128	None	None	None	None	1
1.7	2015_Oct_15_1115	s	s	21	4	SIC	79	RC	0	2	23RD	1	0	0.58303809166	214.0	-48.0	214	-46	1
1.7	2015_Oct_15_1115	s	s	21	4	SIC	80	ABS	0	1	24RO	0	1	3.2361240387	None	None	None	None	1
1.7	2015_Oct_15_1115	s	s	21	4	SIC	81	ABS	2	2	24VD	1	0	0.454950094223	None	None	-24	34	0
1.7	2015_Oct_15_1115	s	s	21	4	SIC	82	RC	2	0	23VC	1	0	0.488872051239	-360.0	-332.0	-356	-337	1
1.7	2015_Oct_15_1115	s	s	21	4	SIC	83	ABS	2	0	24VC	0	1	0.453569173813	None	None	None	None	1
1.7	2015_Oct_15_1115	s	s	21	4	SIC	84	RC	2	1	23VO	1	0	0.599661111832	375.0	266.0	367	264	1
1.7	2015_Oct_15_1115	s	s	21	4	SIC	85	RC	2	2	23VD	1	0	0.481800079346	294.0	59.0	305	59	1
1.7	2015_Oct_15_1115	s	s	21	4	SIC	86	RC	1	1	23MO	1	0	1.5707950592	-178.0	374.0	-173	375	1
1.7	2015_Oct_15_1115	s	s	21	4	SIC	87	RC	0	2	23RD	1	0	0.682054042816	-459.0	-326.0	-450	-324	1
1.7	2015_Oct_15_1115	s	s	21	4	SIC	88	RC	1	0	23MC	1	0	0.429534912109	60.0	119.0	51	117	1
1.7	2015_Oct_15_1115	s	s	21	4	SIC	89	ABS	0	2	24RD	0	1	0.799753904343	None	None	None	None	1
1.7	2015_Oct_15_1115	s	s	21	4	SIC	90	ABS	1	2	24MD	0	1	0.561716079712	None	None	None	None	1
1.7	2015_Oct_15_1115	s	s	21	4	SIC	91	ABS	1	1	24MO	0	1	1.41183304787	None	None	None	None	1
1.7	2015_Oct_15_1115	s	s	21	4	SIC	92	RC	0	1	23RO	1	0	1.25384402275	-316.0	-159.0	-311	-159	1
1.7	2015_Oct_15_1115	s	s	21	4	SIC	93	ABS	2	1	24VO	0	1	0.512156009674	None	None	None	None	1
1.7	2015_Oct_15_1115	s	s	21	4	SIC	94	RC	1	2	23MD	1	0	0.653689861298	-486.0	143.0	-482	138	1
1.7	2015_Oct_15_1115	s	s	21	4	SIC	95	ABS	1	0	24MC	0	1	1.59558796883	None	None	None	None	1
1.7	2015_Oct_15_1115	s	s	21	4	SIC	96	ABS	0	1	24RO	0	1	3.47880005836	None	None	None	None	1
1.7	2015_Oct_15_1115	s	s	21	4	SIC	97	RC	2	2	23VD	1	0	0.434858083725	48.0	249.0	50	242	1
1.7	2015_Oct_15_1115	s	s	21	4	SIC	98	RC	1	1	23MO	1	0	0.702213048935	-440.0	-360.0	-447	-364	1
1.7	2015_Oct_15_1115	s	s	21	4	SIC	99	ABS	0	1	24RO	0	1	4.11417984962	None	None	None	None	1
1.7	2015_Oct_15_1115	s	s	21	4	SIC	100	ABS	0	2	24RD	0	1	0.653463125229	None	None	None	None	1
1.7	2015_Oct_15_1115	s	s	21	4	SIC	101	ABS	2	0	24VC	0	1	0.59406208992	None	None	None	None	1
1.7	2015_Oct_15_1115	s	s	21	4	SIC	102	ABS	1	0	24MC	0	1	1.76489782333	None	None	None	None	1
1.7	2015_Oct_15_1115	s	s	21	4	SIC	103	RC	2	0	23VC	1	0	0.658474206924	454.0	-194.0	455	-190	1
1.7	2015_Oct_15_1115	s	s	21	4	SIC	104	ABS	1	2	24MD	0	1	0.607017993927	None	None	None	None	1
1.7	2015_Oct_15_1115	s	s	21	4	SIC	105	RC	0	1	23RO	1	0	1.55346512794	-309.0	125.0	-309	129	1
1.7	2015_Oct_15_1115	s	s	21	4	SIC	106	ABS	2	1	24VO	0	1	0.564462900162	None	None	None	None	1
1.7	2015_Oct_15_1115	s	s	21	4	SIC	107	ABS	1	1	24MO	0	1	1.70607304573	None	None	None	None	1
1.7	2015_Oct_15_1115	s	s	21	4	SIC	108	RC	1	0	23MC	1	0	0.634925127029	-161.0	-20.0	-158	-21	1
1.7	2015_Oct_15_1115	s	s	21	4	SIC	109	RC	1	2	23MD	1	0	0.47539806366	35.0	-206.0	35	-210	1
1.7	2015_Oct_15_1115	s	s	21	4	SIC	110	ABS	2	2	24VD	0	1	0.467158794403	None	None	None	None	1
1.7	2015_Oct_15_1115	s	s	21	4	SIC	111	RC	2	1	23VO	1	0	0.500598907471	-429.0	-114.0	-435	-120	1
1.7	2015_Oct_15_1115	s	s	21	4	SIC	112	RC	0	2	23RD	1	0	0.529097080231	-176.0	-262.0	-185	-261	1
1.7	2015_Oct_15_1115	s	s	21	4	SIC	113	RC	2	1	23VO	1	0	0.488608121872	-22.0	314.0	-20	313	1
1.7	2015_Oct_15_1115	s	s	21	4	SIC	114	RC	1	2	23MD	1	0	0.5004529953	-320.0	366.0	-320	369	1
1.7	2015_Oct_15_1115	s	s	21	4	SIC	115	ABS	1	2	24MD	0	1	0.582856893539	None	None	None	None	1
1.7	2015_Oct_15_1115	s	s	21	4	SIC	116	ABS	2	0	24VC	0	1	0.547444105148	None	None	None	None	1
1.7	2015_Oct_15_1115	s	s	21	4	SIC	117	RC	1	1	23MO	1	0	0.976500034332	-523.0	189.0	-526	187	1
1.7	2015_Oct_15_1115	s	s	21	4	SIC	118	ABS	1	1	24MO	0	1	1.87922811508	None	None	None	None	1
1.7	2015_Oct_15_1115	s	s	21	4	SIC	119	RC	1	0	23MC	1	0	1.27679204941	371.0	393.0	376	392	1
1.7	2015_Oct_15_1115	s	s	21	4	SIC	120	RC	0	1	23RO	0	1	2.55344510078	123.0	-320.0	None	None	0
1.7	2015_Oct_15_1115	s	s	21	4	SIC	121	ABS	0	1	24RO	0	1	3.94004011154	None	None	None	None	1
1.7	2015_Oct_15_1115	s	s	21	4	SIC	122	ABS	1	0	24MC	0	1	2.39566111565	None	None	None	None	1
1.7	2015_Oct_15_1115	s	s	21	4	SIC	123	ABS	0	2	24RD	0	1	0.655048847198	None	None	None	None	1
1.7	2015_Oct_15_1115	s	s	21	4	SIC	124	RC	2	0	23VC	1	0	0.44168305397	-143.0	308.0	-143	310	1
1.7	2015_Oct_15_1115	s	s	21	4	SIC	125	ABS	2	1	24VO	0	1	0.47015619278	None	None	None	None	1
1.7	2015_Oct_15_1115	s	s	21	4	SIC	126	ABS	2	2	24VD	0	1	0.561722040176	None	None	None	None	1
1.7	2015_Oct_15_1115	s	s	21	4	SIC	127	RC	0	2	23RD	1	0	0.6232380867	431.0	326.0	428	332	1
1.7	2015_Oct_15_1115	s	s	21	4	SIC	128	RC	2	2	23VD	1	0	0.399556875229	11.0	-195.0	15	-195	1
1.7	2015_Oct_15_1115	s	s	21	4	SIC	129	RC	2	2	23VD	1	0	0.446651935577	448.0	398.0	455	399	1
1.7	2015_Oct_15_1115	s	s	21	4	SIC	130	ABS	1	0	24MC	0	1	0.971442937851	None	None	None	None	1
1.7	2015_Oct_15_1115	s	s	21	4	SIC	131	ABS	2	2	24VD	0	1	0.458421945572	None	None	None	None	1
1.7	2015_Oct_15_1115	s	s	21	4	SIC	132	RC	0	1	23RO	0	1	2.74181103706	347.0	18.0	None	None	0
1.7	2015_Oct_15_1115	s	s	21	4	SIC	133	RC	2	1	23VO	1	0	0.441672086716	-79.0	-382.0	-74	-380	1
1.7	2015_Oct_15_1115	s	s	21	4	SIC	134	ABS	0	1	24RO	0	1	2.34175300598	None	None	None	None	1
1.7	2015_Oct_15_1115	s	s	21	4	SIC	135	RC	1	0	23MC	1	0	0.818508863449	18.0	-192.0	21	-189	1
1.7	2015_Oct_15_1115	s	s	21	4	SIC	136	ABS	1	1	24MO	0	1	1.1125330925	None	None	None	None	1
1.7	2015_Oct_15_1115	s	s	21	4	SIC	137	RC	1	1	23MO	1	0	0.594944000244	-248.0	238.0	-253	238	1
1.7	2015_Oct_15_1115	s	s	21	4	SIC	138	RC	2	0	23VC	1	0	0.432498931885	118.0	-373.0	117	-370	1
1.7	2015_Oct_15_1115	s	s	21	4	SIC	139	ABS	2	0	24VC	0	1	0.517254114151	None	None	None	None	1
1.7	2015_Oct_15_1115	s	s	21	4	SIC	140	ABS	0	2	24RD	0	1	0.717429161072	None	None	None	None	1
1.7	2015_Oct_15_1115	s	s	21	4	SIC	141	RC	0	2	23RD	1	0	0.453236103058	321.0	-130.0	321	-129	1
1.7	2015_Oct_15_1115	s	s	21	4	SIC	142	RC	1	2	23MD	1	0	0.370844125748	116.0	-211.0	123	-212	1
1.7	2015_Oct_15_1115	s	s	21	4	SIC	143	ABS	2	1	24VO	0	1	0.655871152878	None	None	None	None	1
1.7	2015_Oct_15_1115	s	s	21	4	SIC	144	ABS	1	2	24MD	0	1	0.641619920731	None	None	None	None	1
1.7	2015_Oct_15_1115	s	s	21	4	SIC	145	RC	2	1	23VO	1	0	0.502288103104	304.0	374.0	307	377	1
1.7	2015_Oct_15_1115	s	s	21	4	SIC	146	ABS	1	2	24MD	0	1	0.693699121475	None	None	None	None	1
1.7	2015_Oct_15_1115	s	s	21	4	SIC	147	RC	2	2	23VD	1	0	0.559159994125	-50.0	31.0	-44	26	1
1.7	2015_Oct_15_1115	s	s	21	4	SIC	148	RC	2	0	23VC	1	0	0.441946983337	392.0	345.0	392	343	1
1.7	2015_Oct_15_1115	s	s	21	4	SIC	149	ABS	0	1	24RO	0	1	3.56074690819	None	None	None	None	1
1.7	2015_Oct_15_1115	s	s	21	4	SIC	150	ABS	1	0	24MC	0	1	1.37166595459	None	None	None	None	1
1.7	2015_Oct_15_1115	s	s	21	4	SIC	151	ABS	2	0	24VC	0	1	0.571455955505	None	None	None	None	1
1.7	2015_Oct_15_1115	s	s	21	4	SIC	152	RC	1	0	23MC	1	0	1.51288700104	523.0	266.0	514	266	1
1.7	2015_Oct_15_1115	s	s	21	4	SIC	153	ABS	1	1	24MO	0	1	0.929214000702	None	None	None	None	1
1.7	2015_Oct_15_1115	s	s	21	4	SIC	154	RC	0	2	23RD	1	0	0.488914012909	410.0	91.0	418	95	1
1.7	2015_Oct_15_1115	s	s	21	4	SIC	155	RC	1	2	23MD	1	0	0.505518198013	-284.0	-5.0	-294	-6	1
1.7	2015_Oct_15_1115	s	s	21	4	SIC	156	RC	1	1	23MO	1	0	0.490289211273	-174.0	314.0	-177	321	1
1.7	2015_Oct_15_1115	s	s	21	4	SIC	157	ABS	0	2	24RD	0	1	0.889675140381	None	None	None	None	1
1.7	2015_Oct_15_1115	s	s	21	4	SIC	158	ABS	2	2	24VD	0	1	0.512290000916	None	None	None	None	1
1.7	2015_Oct_15_1115	s	s	21	4	SIC	159	ABS	2	1	24VO	0	1	0.771479845047	None	None	None	None	1
1.7	2015_Oct_15_1115	s	s	21	4	SIC	160	RC	0	1	23RO	1	0	0.940973997116	353.0	297.0	364	306	1
1.7	2015_Oct_15_1115	s	s	21	4	SIC	161	RC	2	2	23VD	1	0	0.559818983078	-462.0	71.0	-457	79	1
1.7	2015_Oct_15_1115	s	s	21	4	SIC	162	ABS	2	0	24VC	0	1	0.538303852081	None	None	None	None	1
1.7	2015_Oct_15_1115	s	s	21	4	SIC	163	ABS	1	1	24MO	0	1	1.44385194778	None	None	None	None	1
1.7	2015_Oct_15_1115	s	s	21	4	SIC	164	RC	0	2	23RD	1	0	0.446630001068	-54.0	-277.0	-54	-283	1
1.7	2015_Oct_15_1115	s	s	21	4	SIC	165	ABS	1	2	24MD	0	1	0.56436920166	None	None	None	None	1
1.7	2015_Oct_15_1115	s	s	21	4	SIC	166	RC	1	2	23MD	1	0	0.430381059647	128.0	-72.0	119	-73	1
1.7	2015_Oct_15_1115	s	s	21	4	SIC	167	RC	0	1	23RO	1	0	1.58499789238	-44.0	63.0	-45	63	1
1.7	2015_Oct_15_1115	s	s	21	4	SIC	168	ABS	1	0	24MC	0	1	1.43530297279	None	None	None	None	1
1.7	2015_Oct_15_1115	s	s	21	4	SIC	169	RC	1	1	23MO	1	0	0.858438014984	517.0	289.0	513	298	1
1.7	2015_Oct_15_1115	s	s	21	4	SIC	170	RC	2	1	23VO	1	0	0.411275863647	534.0	31.0	533	29	1
1.7	2015_Oct_15_1115	s	s	21	4	SIC	171	ABS	0	2	24RD	0	1	0.73828792572	None	None	None	None	1
1.7	2015_Oct_15_1115	s	s	21	4	SIC	172	ABS	2	2	24VD	0	1	0.47017288208	None	None	None	None	1
1.7	2015_Oct_15_1115	s	s	21	4	SIC	173	ABS	2	1	24VO	0	1	0.523485898972	None	None	None	None	1
1.7	2015_Oct_15_1115	s	s	21	4	SIC	174	ABS	0	1	24RO	0	1	3.51866793633	None	None	None	None	1
1.7	2015_Oct_15_1115	s	s	21	4	SIC	175	RC	1	0	23MC	1	0	0.524392127991	-216.0	162.0	-223	160	1
1.7	2015_Oct_15_1115	s	s	21	4	SIC	176	RC	2	0	23VC	1	0	0.371073961258	194.0	202.0	193	201	1
1.7	2015_Oct_15_1115	s	s	21	4	SIC	177	RC	2	0	23VC	1	0	0.375941038132	-375.0	113.0	-377	107	1
1.7	2015_Oct_15_1115	s	s	21	4	SIC	178	RC	2	2	23VD	1	0	0.375971078873	508.0	192.0	511	185	1
1.7	2015_Oct_15_1115	s	s	21	4	SIC	179	RC	1	0	23MC	1	0	0.759407043457	438.0	208.0	444	207	1
1.7	2015_Oct_15_1115	s	s	21	4	SIC	180	ABS	0	1	24RO	0	1	2.88679003716	None	None	None	None	1
1.7	2015_Oct_15_1115	s	s	21	4	SIC	181	ABS	1	1	24MO	0	1	1.78842520714	None	None	None	None	1
1.7	2015_Oct_15_1115	s	s	21	4	SIC	182	ABS	2	2	24VD	0	1	0.441753864288	None	None	None	None	1
1.7	2015_Oct_15_1115	s	s	21	4	SIC	183	RC	2	1	23VO	1	0	0.419871807098	252.0	-88.0	256	-90	1
1.7	2015_Oct_15_1115	s	s	21	4	SIC	184	RC	0	2	23RD	1	0	0.607248067856	468.0	391.0	462	383	1
1.7	2015_Oct_15_1115	s	s	21	4	SIC	185	ABS	2	0	24VC	0	1	0.47690320015	None	None	None	None	1
1.7	2015_Oct_15_1115	s	s	21	4	SIC	186	ABS	2	1	24VO	0	1	0.477194786072	None	None	None	None	1
1.7	2015_Oct_15_1115	s	s	21	4	SIC	187	RC	0	1	23RO	1	0	0.818912982941	-283.0	224.0	-284	230	1
1.7	2015_Oct_15_1115	s	s	21	4	SIC	188	RC	1	2	23MD	1	0	0.688850879669	25.0	-348.0	30	-353	1
1.7	2015_Oct_15_1115	s	s	21	4	SIC	189	ABS	1	0	24MC	0	1	1.1057510376	None	None	None	None	1
1.7	2015_Oct_15_1115	s	s	21	4	SIC	190	ABS	1	2	24MD	0	1	0.729168891907	None	None	None	None	1
1.7	2015_Oct_15_1115	s	s	21	4	SIC	191	RC	1	1	23MO	1	0	0.631310939789	288.0	-27.0	290	-29	1
1.7	2015_Oct_15_1115	s	s	21	4	SIC	192	ABS	0	2	24RD	0	1	0.541079044342	None	None	None	None	1
1.7	2015_Oct_15_1115	s	s	21	4	SIC	193	ABS	0	2	24RD	0	1	0.658436059952	None	None	None	None	1
1.7	2015_Oct_15_1115	s	s	21	4	SIC	194	RC	1	2	23MD	1	0	0.380365133286	233.0	189.0	233	188	1
1.7	2015_Oct_15_1115	s	s	21	4	SIC	195	ABS	1	2	24MD	0	1	0.547781944275	None	None	None	None	1
1.7	2015_Oct_15_1115	s	s	21	4	SIC	196	RC	1	0	23MC	1	0	0.476552963257	-206.0	10.0	-208	3	1
1.7	2015_Oct_15_1115	s	s	21	4	SIC	197	RC	2	2	23VD	1	0	0.399528026581	424.0	-182.0	427	-184	1
1.7	2015_Oct_15_1115	s	s	21	4	SIC	198	ABS	2	0	24VC	0	1	0.512365818024	None	None	None	None	1
1.7	2015_Oct_15_1115	s	s	21	4	SIC	199	RC	2	1	23VO	1	0	0.415004014969	-164.0	-318.0	-161	-319	1
1.7	2015_Oct_15_1115	s	s	21	4	SIC	200	RC	0	2	23RD	1	0	0.456246137619	-237.0	-345.0	-240	-351	1
1.7	2015_Oct_15_1115	s	s	21	4	SIC	201	ABS	1	0	24MC	0	1	1.19537591934	None	None	None	None	1
1.7	2015_Oct_15_1115	s	s	21	4	SIC	202	ABS	0	1	24RO	0	1	3.13033294678	None	None	None	None	1
1.7	2015_Oct_15_1115	s	s	21	4	SIC	203	ABS	1	1	24MO	0	1	1.48931312561	None	None	None	None	1
1.7	2015_Oct_15_1115	s	s	21	4	SIC	204	RC	0	1	23RO	1	0	3.40782499313	113.0	365.0	113	369	1
1.7	2015_Oct_15_1115	s	s	21	4	SIC	205	ABS	2	1	24VO	0	1	0.596787929535	None	None	None	None	1
1.7	2015_Oct_15_1115	s	s	21	4	SIC	206	RC	2	0	23VC	1	0	0.446652889252	169.0	64.0	173	61	1
1.7	2015_Oct_15_1115	s	s	21	4	SIC	207	RC	1	1	23MO	1	0	0.611437082291	221.0	-180.0	226	-178	1
1.7	2015_Oct_15_1115	s	s	21	4	SIC	208	ABS	2	2	24VD	0	1	0.964486122131	None	None	None	None	1
1.7	2015_Oct_15_1115	s	s	21	4	SIC	209	RC	2	0	23VC	1	0	0.431338071823	-360.0	58.0	-362	57	1
1.7	2015_Oct_15_1115	s	s	21	4	SIC	210	RC	0	2	23RD	1	0	0.406231164932	-74.0	87.0	-72	93	1
1.7	2015_Oct_15_1115	s	s	21	4	SIC	211	ABS	0	2	24RD	0	1	0.776201963425	None	None	None	None	1
1.7	2015_Oct_15_1115	s	s	21	4	SIC	212	RC	0	1	23RO	1	0	3.03616905212	-527.0	396.0	-518	393	1
1.7	2015_Oct_15_1115	s	s	21	4	SIC	213	ABS	1	2	24MD	0	1	0.634925842285	None	None	None	None	1
1.7	2015_Oct_15_1115	s	s	21	4	SIC	214	ABS	2	1	24VO	0	1	0.528980016708	None	None	None	None	1
1.7	2015_Oct_15_1115	s	s	21	4	SIC	215	RC	2	2	23VD	1	0	0.500710964203	-59.0	360.0	-56	360	1
1.7	2015_Oct_15_1115	s	s	21	4	SIC	216	RC	2	1	23VO	1	0	0.420433998108	240.0	270.0	238	266	1
1.7	2015_Oct_15_1115	s	s	21	4	SIC	217	ABS	1	1	24MO	0	1	1.41794800758	None	None	None	None	1
1.7	2015_Oct_15_1115	s	s	21	4	SIC	218	ABS	2	2	24VD	0	1	0.458417892456	None	None	None	None	1
1.7	2015_Oct_15_1115	s	s	21	4	SIC	219	ABS	2	0	24VC	0	1	0.514060974121	None	None	None	None	1
1.7	2015_Oct_15_1115	s	s	21	4	SIC	220	RC	1	2	23MD	1	0	0.646722078323	-501.0	348.0	-502	352	1
1.7	2015_Oct_15_1115	s	s	21	4	SIC	221	RC	1	1	23MO	1	0	0.764290094376	71.0	-305.0	74	-310	1
1.7	2015_Oct_15_1115	s	s	21	4	SIC	222	ABS	0	1	24RO	0	1	3.1737279892	None	None	None	None	1
1.7	2015_Oct_15_1115	s	s	21	4	SIC	223	RC	1	0	23MC	1	0	0.98809504509	499.0	-152.0	503	-152	1
1.7	2015_Oct_15_1115	s	s	21	4	SIC	224	ABS	1	0	24MC	0	1	1.17640709877	None	None	None	None	1
1.7	2015_Oct_15_1115	s	s	21	4	SIC	225	RC	2	2	23VD	1	0	0.39456319809	278.0	-109.0	285	-110	1
1.7	2015_Oct_15_1115	s	s	21	4	SIC	226	RC	1	1	23MO	1	0	0.517125844955	124.0	145.0	121	143	1
1.7	2015_Oct_15_1115	s	s	21	4	SIC	227	ABS	1	2	24MD	0	1	0.670240163803	None	None	None	None	1
1.7	2015_Oct_15_1115	s	s	21	4	SIC	228	RC	0	2	23RD	1	0	0.411360025406	-209.0	18.0	-211	15	1
1.7	2015_Oct_15_1115	s	s	21	4	SIC	229	RC	0	1	23RO	1	0	1.88265299797	231.0	408.0	235	417	1
1.7	2015_Oct_15_1115	s	s	21	4	SIC	230	RC	1	2	23MD	1	0	0.382145166397	191.0	-17.0	189	-19	1
1.7	2015_Oct_15_1115	s	s	21	4	SIC	231	ABS	2	0	24VC	0	1	0.493722915649	None	None	None	None	1
1.7	2015_Oct_15_1115	s	s	21	4	SIC	232	ABS	2	2	24VD	0	1	0.59504199028	None	None	None	None	1
1.7	2015_Oct_15_1115	s	s	21	4	SIC	233	RC	2	1	23VO	1	0	0.443354129791	40.0	13.0	42	8	1
1.7	2015_Oct_15_1115	s	s	21	4	SIC	234	ABS	1	1	24MO	0	1	1.30601000786	None	None	None	None	1
1.7	2015_Oct_15_1115	s	s	21	4	SIC	235	ABS	0	2	24RD	0	1	1.15662312508	None	None	None	None	1
1.7	2015_Oct_15_1115	s	s	21	4	SIC	236	RC	2	0	23VC	1	0	0.512431144714	-394.0	-311.0	-395	-314	1
1.7	2015_Oct_15_1115	s	s	21	4	SIC	237	ABS	2	1	24VO	0	1	0.538155078888	None	None	None	None	1
1.7	2015_Oct_15_1115	s	s	21	4	SIC	238	ABS	0	1	24RO	0	1	3.23256993294	None	None	None	None	1
1.7	2015_Oct_15_1115	s	s	21	4	SIC	239	RC	1	0	23MC	1	0	0.552538871765	199.0	179.0	204	180	1
1.7	2015_Oct_15_1115	s	s	21	4	SIC	240	ABS	1	0	24MC	0	1	0.776206970215	None	None	None	None	1
1.7	2015_Oct_15_1115	s	s	21	4	SIC	241	RC	2	0	23VC	1	0	0.54080414772	457.0	379.0	459	374	1
1.7	2015_Oct_15_1115	s	s	21	4	SIC	242	RC	0	1	23RO	0	1	2.75129890442	-145.0	101.0	None	None	0
1.7	2015_Oct_15_1115	s	s	21	4	SIC	243	ABS	1	2	24MD	0	1	0.723502874374	None	None	None	None	1
1.7	2015_Oct_15_1115	s	s	21	4	SIC	244	RC	2	2	23VD	1	0	0.434858083725	11.0	92.0	10	86	1
1.7	2015_Oct_15_1115	s	s	21	4	SIC	245	ABS	1	0	24MC	0	1	1.0822429657	None	None	None	None	1
1.7	2015_Oct_15_1115	s	s	21	4	SIC	246	ABS	2	1	24VO	0	1	0.446604967117	None	None	None	None	1
1.7	2015_Oct_15_1115	s	s	21	4	SIC	247	RC	2	1	23VO	1	0	0.441300868988	491.0	104.0	493	104	1
1.7	2015_Oct_15_1115	s	s	21	4	SIC	248	ABS	0	2	24RD	0	1	0.564306974411	None	None	None	None	1
1.7	2015_Oct_15_1115	s	s	21	4	SIC	249	RC	0	2	23RD	1	0	0.493724107742	-319.0	398.0	-317	402	1
1.7	2015_Oct_15_1115	s	s	21	4	SIC	250	RC	1	1	23MO	1	0	0.759454011917	-354.0	395.0	-346	392	1
1.7	2015_Oct_15_1115	s	s	21	4	SIC	251	RC	1	2	23MD	1	0	0.488009929657	-157.0	-273.0	-169	-272	1
1.7	2015_Oct_15_1115	s	s	21	4	SIC	252	ABS	2	0	24VC	0	1	0.5326628685	None	None	None	None	1
1.7	2015_Oct_15_1115	s	s	21	4	SIC	253	RC	1	0	23MC	1	0	0.842006921768	206.0	259.0	201	249	1
1.7	2015_Oct_15_1115	s	s	21	4	SIC	254	ABS	2	2	24VD	0	1	0.787872076035	None	None	None	None	1
1.7	2015_Oct_15_1115	s	s	21	4	SIC	255	ABS	0	1	24RO	0	1	3.17748188972	None	None	None	None	1
1.7	2015_Oct_15_1115	s	s	21	4	SIC	256	ABS	1	1	24MO	0	1	1.5122461319	None	None	None	None	1
1.7	2015_Oct_15_1115	s	s	21	4	SIC	257	RC	2	1	23VO	1	0	0.453596115112	0.0	373.0	2	372	1
1.7	2015_Oct_15_1115	s	s	21	4	SIC	258	ABS	1	0	24MC	0	1	1.05873608589	None	None	None	None	1
1.7	2015_Oct_15_1115	s	s	21	4	SIC	259	ABS	1	1	24MO	0	1	1.04162502289	None	None	None	None	1
1.7	2015_Oct_15_1115	s	s	21	4	SIC	260	ABS	2	2	24VD	0	1	0.5006711483	None	None	None	None	1
1.7	2015_Oct_15_1115	s	s	21	4	SIC	261	RC	1	1	23MO	1	0	0.618101119995	-323.0	105.0	-320	103	1
1.7	2015_Oct_15_1115	s	s	21	4	SIC	262	RC	1	0	23MC	1	0	0.830101966858	256.0	-57.0	252	-60	1
1.7	2015_Oct_15_1115	s	s	21	4	SIC	263	ABS	2	1	24VO	0	1	0.646632909775	None	None	None	None	1
1.7	2015_Oct_15_1115	s	s	21	4	SIC	264	ABS	0	1	24RO	0	1	2.70166993141	None	None	None	None	1
1.7	2015_Oct_15_1115	s	s	21	4	SIC	265	RC	2	0	23VC	1	0	0.489151000977	-467.0	186.0	-465	182	1
1.7	2015_Oct_15_1115	s	s	21	4	SIC	266	RC	0	1	23RO	0	1	2.98482489586	-50.0	185.0	None	None	0
1.7	2015_Oct_15_1115	s	s	21	4	SIC	267	RC	0	2	23RD	1	0	0.512284994125	-499.0	221.0	-502	218	1
1.7	2015_Oct_15_1115	s	s	21	4	SIC	268	ABS	1	2	24MD	0	1	0.455790042877	None	None	None	None	1
1.7	2015_Oct_15_1115	s	s	21	4	SIC	269	RC	2	2	23VD	1	0	0.395212888718	85.0	230.0	92	225	1
1.7	2015_Oct_15_1115	s	s	21	4	SIC	270	ABS	2	0	24VC	0	1	0.478545188904	None	None	None	None	1
1.7	2015_Oct_15_1115	s	s	21	4	SIC	271	RC	1	2	23MD	1	0	0.458335876465	-238.0	-250.0	-236	-247	1
1.7	2015_Oct_15_1115	s	s	21	4	SIC	272	ABS	0	2	24RD	0	1	0.823348999023	None	None	None	None	1
1.7	2015_Oct_15_1115	s	s	21	4	SIC	273	ABS	2	1	24VO	0	1	0.535997152328	None	None	None	None	1
1.7	2015_Oct_15_1115	s	s	21	4	SIC	274	RC	0	2	23RD	1	0	0.512456178665	485.0	46.0	485	50	1
1.7	2015_Oct_15_1115	s	s	21	4	SIC	275	RC	1	0	23MC	1	0	0.670279026031	-329.0	369.0	-325	368	1
1.7	2015_Oct_15_1115	s	s	21	4	SIC	276	ABS	0	2	24RD	0	1	0.559371948242	None	None	None	None	1
1.7	2015_Oct_15_1115	s	s	21	4	SIC	277	ABS	0	1	24RO	0	1	2.01905703545	None	None	None	None	1
1.7	2015_Oct_15_1115	s	s	21	4	SIC	278	RC	0	1	23RO	1	0	3.09004712105	-509.0	-337.0	-512	-341	1
1.7	2015_Oct_15_1115	s	s	21	4	SIC	279	RC	1	1	23MO	1	0	0.487411975861	-439.0	-88.0	-434	-88	1
1.7	2015_Oct_15_1115	s	s	21	4	SIC	280	ABS	1	0	24MC	0	1	1.18853092194	None	None	None	None	1
1.7	2015_Oct_15_1115	s	s	21	4	SIC	281	RC	2	0	23VC	1	0	0.408769845963	-164.0	-209.0	-165	-213	1
1.7	2015_Oct_15_1115	s	s	21	4	SIC	282	ABS	1	2	24MD	0	1	0.537480115891	None	None	None	None	1
1.7	2015_Oct_15_1115	s	s	21	4	SIC	283	RC	1	2	23MD	1	0	0.408070087433	-213.0	-80.0	-210	-84	1
1.7	2015_Oct_15_1115	s	s	21	4	SIC	284	RC	2	1	23VO	1	0	0.394613027573	-186.0	-224.0	-186	-225	1
1.7	2015_Oct_15_1115	s	s	21	4	SIC	285	ABS	2	2	24VD	0	1	0.453720808029	None	None	None	None	1
1.7	2015_Oct_15_1115	s	s	21	4	SIC	286	RC	2	2	23VD	1	0	0.352512121201	90.0	193.0	92	191	1
1.7	2015_Oct_15_1115	s	s	21	4	SIC	287	ABS	1	1	24MO	0	1	1.30115890503	None	None	None	None	1
1.7	2015_Oct_15_1115	s	s	21	4	SIC	288	ABS	2	0	24VC	0	1	0.526514053345	None	None	None	None	1
1.7	2015_Oct_15_1115	s	s	21	4	SIC	289	ABS	0	1	24RO	0	1	2.90416193008	None	None	None	None	1
1.7	2015_Oct_15_1115	s	s	21	4	SIC	290	RC	0	2	23RD	1	0	0.540833950043	511.0	39.0	517	38	1
1.7	2015_Oct_15_1115	s	s	21	4	SIC	291	ABS	1	0	24MC	0	1	1.66572499275	None	None	None	None	1
1.7	2015_Oct_15_1115	s	s	21	4	SIC	292	RC	1	1	23MO	1	0	0.855839014053	-484.0	407.0	-490	416	1
1.7	2015_Oct_15_1115	s	s	21	4	SIC	293	ABS	1	2	24MD	0	1	0.629428863525	None	None	None	None	1
1.7	2015_Oct_15_1115	s	s	21	4	SIC	294	ABS	2	0	24VC	0	1	0.465374946594	None	None	None	None	1
1.7	2015_Oct_15_1115	s	s	21	4	SIC	295	ABS	2	1	24VO	0	1	0.681967973709	None	None	None	None	1
1.7	2015_Oct_15_1115	s	s	21	4	SIC	296	ABS	1	1	24MO	0	1	1.22346401215	None	None	None	None	1
1.7	2015_Oct_15_1115	s	s	21	4	SIC	297	RC	2	2	23VD	1	0	0.441646814346	-330.0	-321.0	-332	-325	1
1.7	2015_Oct_15_1115	s	s	21	4	SIC	298	RC	1	0	23MC	1	0	1.31765389442	293.0	8.0	297	9	1
1.7	2015_Oct_15_1115	s	s	21	4	SIC	299	ABS	0	2	24RD	0	1	0.705656051636	None	None	None	None	1
1.7	2015_Oct_15_1115	s	s	21	4	SIC	300	RC	0	1	23RO	1	0	2.3954398632	-528.0	-348.0	-524	-354	1
1.7	2015_Oct_15_1115	s	s	21	4	SIC	301	ABS	2	2	24VD	0	1	0.552546977997	None	None	None	None	1
1.7	2015_Oct_15_1115	s	s	21	4	SIC	302	RC	1	2	23MD	1	0	0.618211984634	-525.0	155.0	-520	158	1
1.7	2015_Oct_15_1115	s	s	21	4	SIC	303	RC	2	1	23VO	1	0	0.406621932983	95.0	-229.0	98	-239	1
1.7	2015_Oct_15_1115	s	s	21	4	SIC	304	RC	2	0	23VC	1	0	0.376024007797	-203.0	-173.0	-201	-187	1
1.7	2015_Oct_15_1115	s	s	21	4	SIC	305	RC	0	2	23RD	1	0	0.35831618309	68.0	121.0	65	116	1
1.7	2015_Oct_15_1115	s	s	21	4	SIC	306	ABS	0	2	24RD	0	1	1.22345876694	None	None	None	None	1
1.7	2015_Oct_15_1115	s	s	21	4	SIC	307	ABS	1	2	24MD	0	1	0.587795972824	None	None	None	None	1
1.7	2015_Oct_15_1115	s	s	21	4	SIC	308	ABS	1	1	24MO	0	1	1.34797000885	None	None	None	None	1
1.7	2015_Oct_15_1115	s	s	21	4	SIC	309	ABS	0	1	24RO	0	1	2.18383717537	None	None	None	None	1
1.7	2015_Oct_15_1115	s	s	21	4	SIC	310	RC	1	0	23MC	1	0	0.666255950928	58.0	96.0	62	88	1
1.7	2015_Oct_15_1115	s	s	21	4	SIC	311	ABS	1	0	24MC	1	0	0.599548101425	None	None	340	7	0
1.7	2015_Oct_15_1115	s	s	21	4	SIC	312	RC	2	2	23VD	1	0	0.44148683548	-441.0	67.0	-444	66	1
1.7	2015_Oct_15_1115	s	s	21	4	SIC	313	RC	0	1	23RO	1	0	1.29789495468	-217.0	-111.0	-217	-112	1
1.7	2015_Oct_15_1115	s	s	21	4	SIC	314	ABS	2	1	24VO	0	1	0.505421876907	None	None	None	None	1
1.7	2015_Oct_15_1115	s	s	21	4	SIC	315	RC	2	0	23VC	1	0	0.717339992523	-378.0	-278.0	-376	-276	1
1.7	2015_Oct_15_1115	s	s	21	4	SIC	316	RC	2	1	23VO	1	0	0.465137958527	412.0	222.0	413	220	1
1.7	2015_Oct_15_1115	s	s	21	4	SIC	317	ABS	2	2	24VD	0	1	0.493725061417	None	None	None	None	1
1.7	2015_Oct_15_1115	s	s	21	4	SIC	318	RC	1	2	23MD	1	0	0.465298175812	77.0	223.0	77	217	1
1.7	2015_Oct_15_1115	s	s	21	4	SIC	319	RC	1	1	23MO	1	0	0.576060056686	-392.0	251.0	-395	259	1
1.7	2015_Oct_15_1115	s	s	21	4	SIC	320	ABS	2	0	24VC	0	1	0.536366939545	None	None	None	None	1
1.7	2015_Oct_15_1115	s	s	21	4	SIC	321	RC	2	1	23VO	1	0	0.641718864441	-121.0	-298.0	-116	-300	1
1.7	2015_Oct_15_1115	s	s	21	4	SIC	322	ABS	2	0	24VC	0	1	0.524197101593	None	None	None	None	1
1.7	2015_Oct_15_1115	s	s	21	4	SIC	323	ABS	1	1	24MO	0	1	1.95324397087	None	None	None	None	1
1.7	2015_Oct_15_1115	s	s	21	4	SIC	324	RC	1	0	23MC	1	0	0.79966711998	371.0	105.0	373	106	1
1.7	2015_Oct_15_1115	s	s	21	4	SIC	325	RC	2	2	23VD	0	1	0.517202854156	343.0	-345.0	None	None	0
1.7	2015_Oct_15_1115	s	s	21	4	SIC	326	RC	1	1	23MO	1	0	1.6185939312	445.0	-360.0	448	-362	1
1.7	2015_Oct_15_1115	s	s	21	4	SIC	327	ABS	0	1	24RO	0	1	3.36180496216	None	None	None	None	1
1.7	2015_Oct_15_1115	s	s	21	4	SIC	328	ABS	0	2	24RD	0	1	0.956441164017	None	None	None	None	1
1.7	2015_Oct_15_1115	s	s	21	4	SIC	329	RC	1	2	23MD	1	0	0.493735074997	-388.0	288.0	-382	297	1
1.7	2015_Oct_15_1115	s	s	21	4	SIC	330	RC	2	0	23VC	1	0	0.429986953735	-312.0	39.0	-314	42	1
1.7	2015_Oct_15_1115	s	s	21	4	SIC	331	ABS	1	2	24MD	0	1	0.681967020035	None	None	None	None	1
1.7	2015_Oct_15_1115	s	s	21	4	SIC	332	ABS	1	0	24MC	0	1	1.418227911	None	None	None	None	1
1.7	2015_Oct_15_1115	s	s	21	4	SIC	333	RC	0	2	23RD	1	0	0.477416992188	-466.0	49.0	-468	44	1
1.7	2015_Oct_15_1115	s	s	21	4	SIC	334	ABS	2	2	24VD	0	1	0.479319095612	None	None	None	None	1
1.7	2015_Oct_15_1115	s	s	21	4	SIC	335	RC	0	1	23RO	1	0	1.69438505173	365.0	-148.0	371	-147	1
1.7	2015_Oct_15_1115	s	s	21	4	SIC	336	ABS	2	1	24VO	0	1	0.582312107086	None	None	None	None	1
1.7	2015_Oct_15_1115	s	s	21	4	SIC	337	ABS	2	0	24VC	0	1	0.712620019913	None	None	None	None	1
1.7	2015_Oct_15_1115	s	s	21	4	SIC	338	RC	2	2	23VD	1	0	0.561321020126	241.0	394.0	239	398	1
1.7	2015_Oct_15_1115	s	s	21	4	SIC	339	RC	2	1	23VO	1	0	0.440775156021	123.0	-216.0	123	-222	1
1.7	2015_Oct_15_1115	s	s	21	4	SIC	340	RC	0	2	23RD	1	0	0.536418914795	-61.0	367.0	-50	373	1
1.7	2015_Oct_15_1115	s	s	21	4	SIC	341	ABS	0	1	24RO	0	1	3.12540411949	None	None	None	None	1
1.7	2015_Oct_15_1115	s	s	21	4	SIC	342	RC	1	0	23MC	1	0	1.11267614365	-20.0	212.0	-14	221	1
1.7	2015_Oct_15_1115	s	s	21	4	SIC	343	ABS	1	2	24MD	0	1	0.575953960419	None	None	None	None	1
1.7	2015_Oct_15_1115	s	s	21	4	SIC	344	RC	2	0	23VC	1	0	0.403307914734	120.0	-180.0	116	-180	1
1.7	2015_Oct_15_1115	s	s	21	4	SIC	345	RC	1	1	23MO	1	0	0.746935844421	348.0	113.0	344	117	1
1.7	2015_Oct_15_1115	s	s	21	4	SIC	346	RC	1	2	23MD	1	0	0.477657079697	-535.0	253.0	-534	258	1
1.7	2015_Oct_15_1115	s	s	21	4	SIC	347	ABS	0	2	24RD	0	1	0.988107919693	None	None	None	None	1
1.7	2015_Oct_15_1115	s	s	21	4	SIC	348	ABS	1	0	24MC	0	1	1.35298395157	None	None	None	None	1
1.7	2015_Oct_15_1115	s	s	21	4	SIC	349	RC	0	1	23RO	1	0	2.48998594284	-471.0	-51.0	-472	-58	1
1.7	2015_Oct_15_1115	s	s	21	4	SIC	350	ABS	2	2	24VD	0	1	0.453438043594	None	None	None	None	1
1.7	2015_Oct_15_1115	s	s	21	4	SIC	351	ABS	1	1	24MO	0	1	1.33623409271	None	None	None	None	1
1.7	2015_Oct_15_1115	s	s	21	4	SIC	352	ABS	2	1	24VO	0	1	0.501857042313	None	None	None	None	1
1.7	2015_Oct_15_1115	s	s	21	4	SIC	353	ABS	1	1	24MO	0	1	0.999846935272	None	None	None	None	1
1.7	2015_Oct_15_1115	s	s	21	4	SIC	354	RC	0	2	23RD	1	0	0.500934839249	-126.0	-263.0	-125	-280	1
1.7	2015_Oct_15_1115	s	s	21	4	SIC	355	ABS	0	1	24RO	0	1	2.38383889198	None	None	None	None	1
1.7	2015_Oct_15_1115	s	s	21	4	SIC	356	RC	0	1	23RO	1	0	1.48613810539	200.0	394.0	203	397	1
1.7	2015_Oct_15_1115	s	s	21	4	SIC	357	RC	1	1	23MO	1	0	0.564262151718	-168.0	-118.0	-172	-119	1
1.7	2015_Oct_15_1115	s	s	21	4	SIC	358	ABS	2	1	24VO	0	1	0.529011964798	None	None	None	None	1
1.7	2015_Oct_15_1115	s	s	21	4	SIC	359	ABS	1	2	24MD	0	1	0.587787866592	None	None	None	None	1
1.7	2015_Oct_15_1115	s	s	21	4	SIC	360	ABS	2	0	24VC	0	1	0.493706941605	None	None	None	None	1
1.7	2015_Oct_15_1115	s	s	21	4	SIC	361	ABS	0	2	24RD	0	1	0.761783123016	None	None	None	None	1
1.7	2015_Oct_15_1115	s	s	21	4	SIC	362	ABS	2	2	24VD	0	1	0.682107210159	None	None	None	None	1
1.7	2015_Oct_15_1115	s	s	21	4	SIC	363	RC	2	1	23VO	1	0	0.418456077576	-196.0	306.0	-192	311	1
1.7	2015_Oct_15_1115	s	s	21	4	SIC	364	ABS	1	0	24MC	0	1	1.77163600922	None	None	None	None	1
1.7	2015_Oct_15_1115	s	s	21	4	SIC	365	RC	1	0	23MC	1	0	1.11740803719	-142.0	-247.0	-142	-246	1
1.7	2015_Oct_15_1115	s	s	21	4	SIC	366	RC	1	2	23MD	1	0	0.453266143799	162.0	-360.0	164	-363	1
1.7	2015_Oct_15_1115	s	s	21	4	SIC	367	RC	2	0	23VC	1	0	0.441696166992	-376.0	105.0	-369	107	1
1.7	2015_Oct_15_1115	s	s	21	4	SIC	368	RC	2	2	23VD	1	0	0.399537086487	-139.0	135.0	-143	135	1
1.7	2015_Oct_15_1115	s	s	21	4	SIC	369	RC	1	0	23MC	1	0	0.571172952652	-412.0	375.0	-416	372	1
1.7	2015_Oct_15_1115	s	s	21	4	SIC	370	ABS	2	1	24VO	0	1	0.441679954529	None	None	None	None	1
1.7	2015_Oct_15_1115	s	s	21	4	SIC	371	ABS	0	2	24RD	0	1	0.717408895493	None	None	None	None	1
1.7	2015_Oct_15_1115	s	s	21	4	SIC	372	ABS	1	1	24MO	0	1	1.70605492592	None	None	None	None	1
1.7	2015_Oct_15_1115	s	s	21	4	SIC	373	ABS	1	0	24MC	0	1	1.78586483002	None	None	None	None	1
1.7	2015_Oct_15_1115	s	s	21	4	SIC	374	RC	0	2	23RD	1	0	0.505465984344	92.0	88.0	89	85	1
1.7	2015_Oct_15_1115	s	s	21	4	SIC	375	RC	2	1	23VO	1	0	0.454571008682	-138.0	368.0	-130	368	1
1.7	2015_Oct_15_1115	s	s	21	4	SIC	376	RC	0	1	23RO	1	0	2.52997803688	-266.0	339.0	-268	342	1
1.7	2015_Oct_15_1115	s	s	21	4	SIC	377	RC	1	2	23MD	1	0	0.406424999237	-313.0	-158.0	-305	-163	1
1.7	2015_Oct_15_1115	s	s	21	4	SIC	378	ABS	2	0	24VC	0	1	0.594932079315	None	None	None	None	1
1.7	2015_Oct_15_1115	s	s	21	4	SIC	379	RC	2	0	23VC	1	0	0.466429948807	-128.0	-223.0	-132	-220	1
1.7	2015_Oct_15_1115	s	s	21	4	SIC	380	ABS	2	2	24VD	0	1	0.51721906662	None	None	None	None	1
1.7	2015_Oct_15_1115	s	s	21	4	SIC	381	ABS	0	1	24RO	0	1	3.23132205009	None	None	None	None	1
1.7	2015_Oct_15_1115	s	s	21	4	SIC	382	ABS	1	2	24MD	0	1	0.524244070053	None	None	None	None	1
1.7	2015_Oct_15_1115	s	s	21	4	SIC	383	RC	1	1	23MO	1	0	0.646741867065	427.0	150.0	425	151	1
1.7	2015_Oct_15_1115	s	s	21	4	SIC	384	RC	2	2	23VD	1	0	0.418200016022	317.0	396.0	318	398	1
1.7	2015_Oct_15_1115	s	s	21	4	SIC	385	ABS	1	2	24MD	0	1	0.64674782753	None	None	None	None	1
1.7	2015_Oct_15_1115	s	s	21	4	SIC	386	RC	1	1	23MO	1	0	0.670289993286	-173.0	3.0	-174	5	1
1.7	2015_Oct_15_1115	s	s	21	4	SIC	387	RC	2	1	23VO	1	0	0.429892063141	-235.0	345.0	-230	335	1
1.7	2015_Oct_15_1115	s	s	21	4	SIC	388	RC	0	2	23RD	1	0	0.582856893539	420.0	-286.0	418	-281	1
1.7	2015_Oct_15_1115	s	s	21	4	SIC	389	ABS	2	1	24VO	0	1	0.512569904327	None	None	None	None	1
1.7	2015_Oct_15_1115	s	s	21	4	SIC	390	RC	1	0	23MC	1	0	0.5830950737	-7.0	-35.0	-6	-40	1
1.7	2015_Oct_15_1115	s	s	21	4	SIC	391	ABS	2	0	24VC	0	1	0.529017925262	None	None	None	None	1
1.7	2015_Oct_15_1115	s	s	21	4	SIC	392	RC	2	2	23VD	1	0	0.35897397995	65.0	146.0	62	147	1
1.7	2015_Oct_15_1115	s	s	21	4	SIC	393	RC	1	2	23MD	1	0	0.540823936462	516.0	312.0	518	311	1
1.7	2015_Oct_15_1115	s	s	21	4	SIC	394	ABS	0	1	24RO	0	1	3.00085282326	None	None	None	None	1
1.7	2015_Oct_15_1115	s	s	21	4	SIC	395	RC	2	0	23VC	1	0	0.411293983459	11.0	-293.0	5	-291	1
1.7	2015_Oct_15_1115	s	s	21	4	SIC	396	RC	0	1	23RO	0	1	2.83602404594	-101.0	139.0	None	None	0
1.7	2015_Oct_15_1115	s	s	21	4	SIC	397	ABS	2	2	24VD	0	1	0.43479514122	None	None	None	None	1
1.7	2015_Oct_15_1115	s	s	21	4	SIC	398	ABS	1	1	24MO	0	1	1.43045306206	None	None	None	None	1
1.7	2015_Oct_15_1115	s	s	21	4	SIC	399	ABS	1	0	24MC	0	1	1.38028788567	None	None	None	None	1
1.7	2015_Oct_15_1115	s	s	21	4	SIC	400	ABS	0	2	24RD	0	1	0.582763910294	None	None	None	None	1
1.7	2015_Oct_15_1115	s	s	21	4	SIC	401	ABS	2	1	24VO	0	1	0.5146048069	None	None	None	None	1
1.7	2015_Oct_15_1115	s	s	21	4	SIC	402	ABS	1	0	24MC	0	1	1.13621401787	None	None	None	None	1
1.7	2015_Oct_15_1115	s	s	21	4	SIC	403	ABS	0	2	24RD	0	1	0.73633480072	None	None	None	None	1
1.7	2015_Oct_15_1115	s	s	21	4	SIC	404	ABS	1	1	24MO	0	1	0.905740022659	None	None	None	None	1
1.7	2015_Oct_15_1115	s	s	21	4	SIC	405	RC	2	2	23VD	1	0	0.411346197128	91.0	-277.0	92	-275	1
1.7	2015_Oct_15_1115	s	s	21	4	SIC	406	RC	1	1	23MO	1	0	1.2319419384	311.0	328.0	317	327	1
1.7	2015_Oct_15_1115	s	s	21	4	SIC	407	ABS	2	2	24VD	0	1	0.429878950119	None	None	None	None	1
1.7	2015_Oct_15_1115	s	s	21	4	SIC	408	RC	1	0	23MC	1	0	0.764410972595	286.0	-284.0	288	-286	1
1.7	2015_Oct_15_1115	s	s	21	4	SIC	409	ABS	2	0	24VC	0	1	0.517207860947	None	None	None	None	1
1.7	2015_Oct_15_1115	s	s	21	4	SIC	410	RC	1	2	23MD	1	0	0.494134187698	235.0	396.0	242	402	1
1.7	2015_Oct_15_1115	s	s	21	4	SIC	411	ABS	0	1	24RO	0	1	3.11858105659	None	None	None	None	1
1.7	2015_Oct_15_1115	s	s	21	4	SIC	412	ABS	1	2	24MD	0	1	0.607985973358	None	None	None	None	1
1.7	2015_Oct_15_1115	s	s	21	4	SIC	413	RC	0	1	23RO	1	0	2.3955719471	370.0	-27.0	365	-26	1
1.7	2015_Oct_15_1115	s	s	21	4	SIC	414	RC	0	2	23RD	1	0	0.462083101273	352.0	-92.0	357	-88	1
1.7	2015_Oct_15_1115	s	s	21	4	SIC	415	RC	2	1	23VO	1	0	0.382793188095	262.0	273.0	258	274	1
1.7	2015_Oct_15_1115	s	s	21	4	SIC	416	RC	2	0	23VC	1	0	0.417163133621	-272.0	285.0	-267	287	1
1.7	2015_Oct_15_1115	s	s	21	4	SIC	417	ABS	1	0	24MC	0	1	1.1948890686	None	None	None	None	1
1.7	2015_Oct_15_1115	s	s	21	4	SIC	418	ABS	0	2	24RD	0	1	0.653382062912	None	None	None	None	1
1.7	2015_Oct_15_1115	s	s	21	4	SIC	419	ABS	0	1	24RO	0	1	2.83139014244	None	None	None	None	1
1.7	2015_Oct_15_1115	s	s	21	4	SIC	420	RC	0	2	23RD	1	0	0.441610097885	341.0	-144.0	343	-146	1
1.7	2015_Oct_15_1115	s	s	21	4	SIC	421	ABS	1	2	24MD	0	1	0.53551697731	None	None	None	None	1
1.7	2015_Oct_15_1115	s	s	21	4	SIC	422	RC	2	0	23VC	1	0	0.418152093887	117.0	241.0	117	241	1
1.7	2015_Oct_15_1115	s	s	21	4	SIC	423	RC	0	1	23RO	1	0	2.23578119278	101.0	-103.0	103	-108	1
1.7	2015_Oct_15_1115	s	s	21	4	SIC	424	RC	1	0	23MC	1	0	0.512341976166	81.0	-80.0	76	-84	1
1.7	2015_Oct_15_1115	s	s	21	4	SIC	425	RC	1	1	23MO	0	1	1.08224701881	-508.0	201.0	None	None	0
1.7	2015_Oct_15_1115	s	s	21	4	SIC	426	RC	1	2	23MD	1	0	0.443264961243	-90.0	3.0	-86	2	1
1.7	2015_Oct_15_1115	s	s	21	4	SIC	427	RC	2	2	23VD	1	0	0.397058963776	-322.0	-189.0	-320	-194	1
1.7	2015_Oct_15_1115	s	s	21	4	SIC	428	RC	2	1	23VO	1	0	0.44656419754	-497.0	-377.0	-501	-377	1
1.7	2015_Oct_15_1115	s	s	21	4	SIC	429	ABS	1	1	24MO	0	1	1.41849398613	None	None	None	None	1
1.7	2015_Oct_15_1115	s	s	21	4	SIC	430	ABS	2	1	24VO	0	1	0.525047063828	None	None	None	None	1
1.7	2015_Oct_15_1115	s	s	21	4	SIC	431	ABS	2	2	24VD	0	1	0.582864046097	None	None	None	None	1
1.7	2015_Oct_15_1115	s	s	21	4	SIC	432	ABS	2	0	24VC	0	1	0.594805002213	None	None	None	None	1
1.7	2015_Oct_15_1115	s	s	21	4	SIC	433	ABS	0	2	24RD	0	1	0.818754196167	None	None	None	None	1
1.7	2015_Oct_15_1115	s	s	21	4	SIC	434	RC	2	2	23VD	1	0	0.501032114029	-61.0	281.0	-59	284	1
1.7	2015_Oct_15_1115	s	s	21	4	SIC	435	RC	1	2	23MD	1	0	0.382876873016	-63.0	-10.0	-56	-12	1
1.7	2015_Oct_15_1115	s	s	21	4	SIC	436	ABS	2	0	24VC	0	1	0.48796582222	None	None	None	None	1
1.7	2015_Oct_15_1115	s	s	21	4	SIC	437	RC	0	1	23RO	1	0	1.02336382866	193.0	-30.0	187	-25	1
1.7	2015_Oct_15_1115	s	s	21	4	SIC	438	RC	0	2	23RD	1	0	0.535566806793	-147.0	-285.0	-143	-287	1
1.7	2015_Oct_15_1115	s	s	21	4	SIC	439	ABS	1	2	24MD	0	1	0.505475997925	None	None	None	None	1
1.7	2015_Oct_15_1115	s	s	21	4	SIC	440	ABS	1	1	24MO	0	1	1.2705540657	None	None	None	None	1
1.7	2015_Oct_15_1115	s	s	21	4	SIC	441	RC	2	0	23VC	1	0	0.600089073181	421.0	-209.0	424	-208	1
1.7	2015_Oct_15_1115	s	s	21	4	SIC	442	ABS	0	1	24RO	0	1	3.06876206398	None	None	None	None	1
1.7	2015_Oct_15_1115	s	s	21	4	SIC	443	ABS	2	2	24VD	0	1	0.481997966766	None	None	None	None	1
1.7	2015_Oct_15_1115	s	s	21	4	SIC	444	RC	1	1	23MO	1	0	1.36461114883	-325.0	-211.0	-316	-208	1
1.7	2015_Oct_15_1115	s	s	21	4	SIC	445	ABS	1	0	24MC	0	1	1.64723610878	None	None	None	None	1
1.7	2015_Oct_15_1115	s	s	21	4	SIC	446	ABS	2	1	24VO	0	1	0.501127004623	None	None	None	None	1
1.7	2015_Oct_15_1115	s	s	21	4	SIC	447	RC	2	1	23VO	1	0	0.403211116791	-286.0	-317.0	-283	-326	1
1.7	2015_Oct_15_1115	s	s	21	4	SIC	448	RC	1	0	23MC	1	0	1.0538649559	334.0	262.0	333	260	1
1.7	2015_Oct_15_1115	s	s	21	4	SIC	449	ABS	2	2	24VD	0	1	0.420483827591	None	None	None	None	1
1.7	2015_Oct_15_1115	s	s	21	4	SIC	450	ABS	0	2	24RD	0	1	1.06777501106	None	None	None	None	1
1.7	2015_Oct_15_1115	s	s	21	4	SIC	451	ABS	1	2	24MD	0	1	0.630106925964	None	None	None	None	1
1.7	2015_Oct_15_1115	s	s	21	4	SIC	452	ABS	2	0	24VC	0	1	0.561523914337	None	None	None	None	1
1.7	2015_Oct_15_1115	s	s	21	4	SIC	453	ABS	1	0	24MC	0	1	1.55980181694	None	None	None	None	1
1.7	2015_Oct_15_1115	s	s	21	4	SIC	454	ABS	2	1	24VO	0	1	0.481976032257	None	None	None	None	1
1.7	2015_Oct_15_1115	s	s	21	4	SIC	455	RC	1	2	23MD	1	0	0.470201015472	-450.0	142.0	-451	145	1
1.7	2015_Oct_15_1115	s	s	21	4	SIC	456	RC	1	1	23MO	1	0	0.465122938156	-100.0	96.0	-96	100	1
1.7	2015_Oct_15_1115	s	s	21	4	SIC	457	RC	2	2	23VD	1	0	0.406677961349	-193.0	288.0	-191	285	1
1.7	2015_Oct_15_1115	s	s	21	4	SIC	458	RC	2	0	23VC	1	0	0.481974124908	532.0	-88.0	536	-82	1
1.7	2015_Oct_15_1115	s	s	21	4	SIC	459	RC	0	1	23RO	1	0	1.67088198662	2.0	60.0	-2	61	1
1.7	2015_Oct_15_1115	s	s	21	4	SIC	460	RC	2	1	23VO	1	0	0.429885864258	522.0	49.0	523	42	1
1.7	2015_Oct_15_1115	s	s	21	4	SIC	461	ABS	0	1	24RO	0	1	3.1864900589	None	None	None	None	1
1.7	2015_Oct_15_1115	s	s	21	4	SIC	462	RC	1	0	23MC	1	0	0.697652101517	-253.0	93.0	-250	92	1
1.7	2015_Oct_15_1115	s	s	21	4	SIC	463	ABS	1	1	24MO	0	1	1.71222400665	None	None	None	None	1
1.7	2015_Oct_15_1115	s	s	21	4	SIC	464	RC	0	2	23RD	1	0	0.525737047195	-499.0	37.0	-498	43	1
1.7	2015_Oct_15_1115	s	s	21	4	SIC	465	ABS	2	0	24VC	0	1	0.500731945038	None	None	None	None	1
1.7	2015_Oct_15_1115	s	s	21	4	SIC	466	ABS	0	1	24RO	0	1	3.11359214783	None	None	None	None	1
1.7	2015_Oct_15_1115	s	s	21	4	SIC	467	RC	0	2	23RD	1	0	0.488239049911	378.0	16.0	370	10	1
1.7	2015_Oct_15_1115	s	s	21	4	SIC	468	RC	1	0	23MC	1	0	0.688105106354	213.0	142.0	209	137	1
1.7	2015_Oct_15_1115	s	s	21	4	SIC	469	ABS	1	0	24MC	0	1	1.66618514061	None	None	None	None	1
1.7	2015_Oct_15_1115	s	s	21	4	SIC	470	RC	2	0	23VC	1	0	0.371778011322	183.0	260.0	181	260	1
1.7	2015_Oct_15_1115	s	s	21	4	SIC	471	RC	2	2	23VD	1	0	0.364223003387	513.0	117.0	513	120	1
1.7	2015_Oct_15_1115	s	s	21	4	SIC	472	RC	0	1	23RO	1	0	2.17694497108	318.0	-210.0	320	-210	1
1.7	2015_Oct_15_1115	s	s	21	4	SIC	473	ABS	1	1	24MO	0	1	1.34804797173	None	None	None	None	1
1.7	2015_Oct_15_1115	s	s	21	4	SIC	474	RC	1	2	23MD	1	0	0.387785196304	175.0	0.0	176	0	1
1.7	2015_Oct_15_1115	s	s	21	4	SIC	475	RC	1	1	23MO	1	0	0.500516891479	-170.0	296.0	-163	289	1
1.7	2015_Oct_15_1115	s	s	21	4	SIC	476	ABS	2	1	24VO	0	1	0.693839073181	None	None	None	None	1
1.7	2015_Oct_15_1115	s	s	21	4	SIC	477	ABS	0	2	24RD	0	1	0.932929992676	None	None	None	None	1
1.7	2015_Oct_15_1115	s	s	21	4	SIC	478	ABS	1	2	24MD	0	1	0.547574043274	None	None	None	None	1
1.7	2015_Oct_15_1115	s	s	21	4	SIC	479	ABS	2	2	24VD	1	0	0.479342937469	None	None	-132	62	0
1.7	2015_Oct_15_1115	s	s	21	4	SIC	480	RC	2	1	23VO	1	0	0.415002822876	-198.0	-214.0	-195	-208	1
1.7	2015_Oct_15_1115	s	s	21	4	SIC	481	ABS	1	0	24MC	0	1	1.85909104347	None	None	None	None	1
1.7	2015_Oct_15_1115	s	s	21	4	SIC	482	RC	2	2	23VD	1	0	0.776247024536	-494.0	-404.0	-492	-402	1
1.7	2015_Oct_15_1115	s	s	21	4	SIC	483	RC	1	2	23MD	1	0	0.470160961151	176.0	272.0	174	270	1
1.7	2015_Oct_15_1115	s	s	21	4	SIC	484	ABS	1	1	24MO	0	1	1.48936390877	None	None	None	None	1
1.7	2015_Oct_15_1115	s	s	21	4	SIC	485	RC	1	0	23MC	1	0	0.559587001801	223.0	40.0	225	41	1
1.7	2015_Oct_15_1115	s	s	21	4	SIC	486	ABS	2	0	24VC	0	1	0.505446910858	None	None	None	None	1
1.7	2015_Oct_15_1115	s	s	21	4	SIC	487	ABS	0	1	24RO	0	1	3.55148410797	None	None	None	None	1
1.7	2015_Oct_15_1115	s	s	21	4	SIC	488	RC	0	2	23RD	1	0	0.523890972137	-12.0	-212.0	-8	-215	1
1.7	2015_Oct_15_1115	s	s	21	4	SIC	489	ABS	2	1	24VO	0	1	0.540824890137	None	None	None	None	1
1.7	2015_Oct_15_1115	s	s	21	4	SIC	490	RC	2	1	23VO	1	0	0.628935098648	-462.0	292.0	-460	286	1
1.7	2015_Oct_15_1115	s	s	21	4	SIC	491	ABS	1	2	24MD	0	1	0.678352117538	None	None	None	None	1
1.7	2015_Oct_15_1115	s	s	21	4	SIC	492	ABS	0	2	24RD	0	1	0.700879096985	None	None	None	None	1
1.7	2015_Oct_15_1115	s	s	21	4	SIC	493	RC	2	0	23VC	1	0	0.57234787941	-386.0	-249.0	-390	-253	1
1.7	2015_Oct_15_1115	s	s	21	4	SIC	494	RC	1	1	23MO	1	0	0.529040813446	93.0	178.0	98	174	1
1.7	2015_Oct_15_1115	s	s	21	4	SIC	495	RC	0	1	23RO	1	0	0.66778087616	-11.0	-53.0	-14	-49	1
1.7	2015_Oct_15_1115	s	s	21	4	SIC	496	ABS	2	2	24VD	0	1	0.535096883774	None	None	None	None	1
1.7	2015_Oct_15_1115	s	s	21	4	SIC	497	RC	0	1	23RO	1	0	1.00656890869	236.0	76.0	234	73	1
1.7	2015_Oct_15_1115	s	s	21	4	SIC	498	ABS	0	1	24RO	0	1	3.61291694641	None	None	None	None	1
1.7	2015_Oct_15_1115	s	s	21	4	SIC	499	ABS	1	2	24MD	0	1	0.714670181274	None	None	None	None	1
1.7	2015_Oct_15_1115	s	s	21	4	SIC	500	ABS	2	2	24VD	0	1	0.48780298233	None	None	None	None	1
1.7	2015_Oct_15_1115	s	s	21	4	SIC	501	ABS	0	2	24RD	0	1	0.618641138077	None	None	None	None	1
1.7	2015_Oct_15_1115	s	s	21	4	SIC	502	RC	2	2	23VD	1	0	0.652704000473	-538.0	33.0	-541	31	1
1.7	2015_Oct_15_1115	s	s	21	4	SIC	503	ABS	1	1	24MO	0	1	1.5945482254	None	None	None	None	1
1.7	2015_Oct_15_1115	s	s	21	4	SIC	504	RC	1	1	23MO	1	0	0.867708921432	-303.0	345.0	-305	351	1
1.7	2015_Oct_15_1115	s	s	21	4	SIC	505	ABS	2	1	24VO	0	1	0.512382984161	None	None	None	None	1
1.7	2015_Oct_15_1115	s	s	21	4	SIC	506	ABS	1	0	24MC	0	1	1.70354509354	None	None	None	None	1
1.7	2015_Oct_15_1115	s	s	21	4	SIC	507	RC	1	0	23MC	1	0	0.71725487709	349.0	-225.0	351	-227	1
1.7	2015_Oct_15_1115	s	s	21	4	SIC	508	RC	0	2	23RD	1	0	0.446599006653	-65.0	-237.0	-62	-241	1
1.7	2015_Oct_15_1115	s	s	21	4	SIC	509	RC	1	2	23MD	1	0	0.452987194061	-210.0	-321.0	-205	-322	1
1.7	2015_Oct_15_1115	s	s	21	4	SIC	510	ABS	2	0	24VC	0	1	0.599662780762	None	None	None	None	1
1.7	2015_Oct_15_1115	s	s	21	4	SIC	511	RC	2	0	23VC	1	0	0.476397037506	-434.0	162.0	-438	166	1
1.7	2015_Oct_15_1115	s	s	21	4	SIC	512	RC	2	1	23VO	1	0	0.399605035782	185.0	-112.0	180	-123	1
1.7	2015_Oct_15_1115	s	s	21	4	SIC	513	ABS	0	2	24RD	0	1	0.740887880325	None	None	None	None	1
1.7	2015_Oct_15_1115	s	s	21	4	SIC	514	ABS	2	1	24VO	0	1	0.594783067703	None	None	None	None	1
1.7	2015_Oct_15_1115	s	s	21	4	SIC	515	RC	2	0	23VC	1	0	0.434841156006	335.0	285.0	330	291	1
1.7	2015_Oct_15_1115	s	s	21	4	SIC	516	ABS	0	1	24RO	0	1	2.34163284302	None	None	None	None	1
1.7	2015_Oct_15_1115	s	s	21	4	SIC	517	ABS	2	2	24VD	0	1	0.434789180756	None	None	None	None	1
1.7	2015_Oct_15_1115	s	s	21	4	SIC	518	RC	2	2	23VD	1	0	0.465199947357	251.0	255.0	253	255	1
1.7	2015_Oct_15_1115	s	s	21	4	SIC	519	RC	0	2	23RD	1	0	0.50545501709	-372.0	-229.0	-366	-236	1
1.7	2015_Oct_15_1115	s	s	21	4	SIC	520	ABS	1	2	24MD	0	1	0.540701150894	None	None	None	None	1
1.7	2015_Oct_15_1115	s	s	21	4	SIC	521	RC	0	1	23RO	1	0	2.50654101372	476.0	-266.0	479	-277	1
1.7	2015_Oct_15_1115	s	s	21	4	SIC	522	ABS	2	0	24VC	0	1	0.534487009048	None	None	None	None	1
1.7	2015_Oct_15_1115	s	s	21	4	SIC	523	RC	1	0	23MC	1	0	1.52447199821	-45.0	-281.0	-46	-278	1
1.7	2015_Oct_15_1115	s	s	21	4	SIC	524	ABS	1	1	24MO	0	1	1.74141311646	None	None	None	None	1
1.7	2015_Oct_15_1115	s	s	21	4	SIC	525	RC	1	2	23MD	1	0	0.51721405983	-534.0	-307.0	-535	-306	1
1.7	2015_Oct_15_1115	s	s	21	4	SIC	526	RC	1	1	23MO	1	0	0.618245124817	334.0	40.0	335	38	1
1.7	2015_Oct_15_1115	s	s	21	4	SIC	527	ABS	1	0	24MC	0	1	1.23028612137	None	None	None	None	1
1.7	2015_Oct_15_1115	s	s	21	4	SIC	528	RC	2	1	23VO	1	0	0.623193979263	467.0	369.0	473	365	1
1.7	2015_Oct_15_1115	s	s	21	4	SIC	529	RC	2	2	23VD	1	0	0.476401090622	189.0	411.0	192	420	1
1.7	2015_Oct_15_1115	s	s	21	4	SIC	530	ABS	2	2	24VD	0	1	0.505498886108	None	None	None	None	1
1.7	2015_Oct_15_1115	s	s	21	4	SIC	531	ABS	1	1	24MO	0	1	1.61186385155	None	None	None	None	1
1.7	2015_Oct_15_1115	s	s	21	4	SIC	532	ABS	1	0	24MC	0	1	1.31759119034	None	None	None	None	1
1.7	2015_Oct_15_1115	s	s	21	4	SIC	533	RC	2	1	23VO	1	0	0.423085927963	-427.0	-37.0	-431	-41	1
1.7	2015_Oct_15_1115	s	s	21	4	SIC	534	ABS	1	2	24MD	0	1	0.582723855972	None	None	None	None	1
1.7	2015_Oct_15_1115	s	s	21	4	SIC	535	RC	0	1	23RO	0	1	3.47168397903	510.0	-66.0	None	None	0
1.7	2015_Oct_15_1115	s	s	21	4	SIC	536	ABS	2	0	24VC	0	1	0.523947954178	None	None	None	None	1
1.7	2015_Oct_15_1115	s	s	21	4	SIC	537	RC	0	2	23RD	1	0	0.759391069412	-134.0	-412.0	-125	-414	1
1.7	2015_Oct_15_1115	s	s	21	4	SIC	538	ABS	2	1	24VO	0	1	0.535854816437	None	None	None	None	1
1.7	2015_Oct_15_1115	s	s	21	4	SIC	539	RC	2	0	23VC	1	0	0.42302107811	238.0	-189.0	245	-189	1
1.7	2015_Oct_15_1115	s	s	21	4	SIC	540	RC	1	0	23MC	1	0	0.71276307106	226.0	-283.0	231	-289	1
1.7	2015_Oct_15_1115	s	s	21	4	SIC	541	ABS	0	1	24RO	0	1	3.30175209045	None	None	None	None	1
1.7	2015_Oct_15_1115	s	s	21	4	SIC	542	RC	1	1	23MO	1	0	0.729125022888	-430.0	-380.0	-432	-382	1
1.7	2015_Oct_15_1115	s	s	21	4	SIC	543	RC	1	2	23MD	1	0	0.430203914642	-246.0	2.0	-243	2	1
1.7	2015_Oct_15_1115	s	s	21	4	SIC	544	ABS	0	2	24RD	0	1	0.866699934006	None	None	None	None	1
1.7	2015_Oct_15_1115	s	s	21	4	SIC	545	ABS	1	1	24MO	0	1	1.15282893181	None	None	None	None	1
1.7	2015_Oct_15_1115	s	s	21	4	SIC	546	RC	2	2	23VD	1	0	0.488685131073	-227.0	-293.0	-221	-296	1
1.7	2015_Oct_15_1115	s	s	21	4	SIC	547	RC	2	0	23VC	1	0	0.41970205307	87.0	-34.0	86	-37	1
1.7	2015_Oct_15_1115	s	s	21	4	SIC	548	ABS	0	1	24RO	0	1	3.98486399651	None	None	None	None	1
1.7	2015_Oct_15_1115	s	s	21	4	SIC	549	ABS	0	2	24RD	0	1	0.806470155716	None	None	None	None	1
1.7	2015_Oct_15_1115	s	s	21	4	SIC	550	RC	1	2	23MD	1	0	0.512503147125	375.0	-39.0	374	-45	1
1.7	2015_Oct_15_1115	s	s	21	4	SIC	551	RC	0	1	23RO	0	1	3.06511592865	373.0	-142.0	None	None	0
1.7	2015_Oct_15_1115	s	s	21	4	SIC	552	RC	1	0	23MC	1	0	0.65852189064	222.0	-12.0	225	-16	1
1.7	2015_Oct_15_1115	s	s	21	4	SIC	553	ABS	2	0	24VC	0	1	0.571063041687	None	None	None	None	1
1.7	2015_Oct_15_1115	s	s	21	4	SIC	554	RC	0	2	23RD	1	0	0.579793930054	467.0	-154.0	473	-160	1
1.7	2015_Oct_15_1115	s	s	21	4	SIC	555	RC	2	1	23VO	1	0	0.453583955765	-402.0	-282.0	-399	-288	1
1.7	2015_Oct_15_1115	s	s	21	4	SIC	556	ABS	1	2	24MD	0	1	0.655883073807	None	None	None	None	1
1.7	2015_Oct_15_1115	s	s	21	4	SIC	557	ABS	2	1	24VO	0	1	0.535714149475	None	None	None	None	1
1.7	2015_Oct_15_1115	s	s	21	4	SIC	558	ABS	2	2	24VD	0	1	0.582336902618	None	None	None	None	1
1.7	2015_Oct_15_1115	s	s	21	4	SIC	559	RC	1	1	23MO	1	0	1.58500909805	-453.0	233.0	-446	236	1
1.7	2015_Oct_15_1115	s	s	21	4	SIC	560	ABS	1	0	24MC	0	1	1.54814004898	None	None	None	None	1
1.7	2015_Oct_15_1115	s	s	21	4	SIC	561	ABS	0	2	24RD	0	1	0.877600908279	None	None	None	None	1
1.7	2015_Oct_15_1115	s	s	21	4	SIC	562	RC	0	2	23RD	1	0	0.49374294281	286.0	240.0	285	242	1
1.7	2015_Oct_15_1115	s	s	21	4	SIC	563	RC	2	0	23VC	1	0	0.458432197571	161.0	-256.0	163	-256	1
1.7	2015_Oct_15_1115	s	s	21	4	SIC	564	RC	1	1	23MO	1	0	1.27868318558	38.0	391.0	39	392	1
1.7	2015_Oct_15_1115	s	s	21	4	SIC	565	ABS	2	0	24VC	0	1	0.615077018738	None	None	None	None	1
1.7	2015_Oct_15_1115	s	s	21	4	SIC	566	RC	1	2	23MD	1	0	0.500501155853	51.0	393.0	59	393	1
1.7	2015_Oct_15_1115	s	s	21	4	SIC	567	RC	2	1	23VO	1	0	0.396903038025	167.0	152.0	176	152	1
1.7	2015_Oct_15_1115	s	s	21	4	SIC	568	ABS	1	0	24MC	0	1	1.121311903	None	None	None	None	1
1.7	2015_Oct_15_1115	s	s	21	4	SIC	569	ABS	0	1	24RO	0	1	2.70658707619	None	None	None	None	1
1.7	2015_Oct_15_1115	s	s	21	4	SIC	570	ABS	1	2	24MD	0	1	0.899096012115	None	None	None	None	1
1.7	2015_Oct_15_1115	s	s	21	4	SIC	571	ABS	1	1	24MO	0	1	1.71780800819	None	None	None	None	1
1.7	2015_Oct_15_1115	s	s	21	4	SIC	572	RC	1	0	23MC	1	0	0.493746042252	-184.0	-25.0	-185	-30	1
1.7	2015_Oct_15_1115	s	s	21	4	SIC	573	RC	2	2	23VD	1	0	0.399464130402	-26.0	324.0	-27	322	1
1.7	2015_Oct_15_1115	s	s	21	4	SIC	574	ABS	2	1	24VO	0	1	0.724110841751	None	None	None	None	1
1.7	2015_Oct_15_1115	s	s	21	4	SIC	575	RC	0	1	23RO	1	0	2.65528607368	-127.0	-256.0	-124	-260	1
1.7	2015_Oct_15_1115	s	s	21	4	SIC	576	ABS	2	2	24VD	0	1	0.446755886078	None	None	None	None	1
1.7	2015_Oct_15_1115	s	s	21	4	SIC	577	ABS	1	1	24MO	0	1	2.14828085899	None	None	None	None	1
1.7	2015_Oct_15_1115	s	s	21	4	SIC	578	ABS	0	1	24RO	0	1	2.56040692329	None	None	None	None	1
1.7	2015_Oct_15_1115	s	s	21	4	SIC	579	RC	1	1	23MO	1	0	0.819841146469	131.0	381.0	133	379	1
1.7	2015_Oct_15_1115	s	s	21	4	SIC	580	ABS	0	2	24RD	0	1	0.806738138199	None	None	None	None	1
1.7	2015_Oct_15_1115	s	s	21	4	SIC	581	RC	0	1	23RO	1	0	3.59611415863	255.0	-271.0	255	-273	1
1.7	2015_Oct_15_1115	s	s	21	4	SIC	582	ABS	1	0	24MC	0	1	1.66538691521	None	None	None	None	1
1.7	2015_Oct_15_1115	s	s	21	4	SIC	583	RC	2	0	23VC	1	0	0.418212890625	-83.0	364.0	-86	372	1
1.7	2015_Oct_15_1115	s	s	21	4	SIC	584	ABS	2	0	24VC	0	1	0.584595918655	None	None	None	None	1
1.7	2015_Oct_15_1115	s	s	21	4	SIC	585	RC	2	1	23VO	1	0	0.372762918472	86.0	93.0	92	96	1
1.7	2015_Oct_15_1115	s	s	21	4	SIC	586	ABS	2	1	24VO	0	1	0.501572132111	None	None	None	None	1
1.7	2015_Oct_15_1115	s	s	21	4	SIC	587	RC	0	2	23RD	1	0	0.481997966766	402.0	-132.0	408	-135	1
1.7	2015_Oct_15_1115	s	s	21	4	SIC	588	RC	1	2	23MD	1	0	0.465353012085	463.0	393.0	469	393	1
1.7	2015_Oct_15_1115	s	s	21	4	SIC	589	RC	1	0	23MC	1	0	0.528970003128	-262.0	383.0	-253	380	1
1.7	2015_Oct_15_1115	s	s	21	4	SIC	590	ABS	1	2	24MD	0	1	0.611306905746	None	None	None	None	1
1.7	2015_Oct_15_1115	s	s	21	4	SIC	591	RC	2	2	23VD	1	0	0.429939985275	424.0	-360.0	415	-359	1
1.7	2015_Oct_15_1115	s	s	21	4	SIC	592	ABS	2	2	24VD	0	1	0.500421047211	None	None	None	None	1
