Version	Date	Stimuli	Method	Subject	Session	Condition	Trial	Target	Channel1	Channel2	Distractors	LMouseButton	RMouseButton	RT	TargetX	TargetY	ResponseX	ResponseY	Correct
1.7	2015_Jul_23_1534	s	s	3	4	Capacity	1	ABS	2	0	24VC	0	1	1.42357301712	None	None	None	None	1
1.7	2015_Jul_23_1534	s	s	3	4	Capacity	2	RC	1	0	23MC	1	0	0.690914869308	-39.0	249.0	-40	248	1
1.7	2015_Jul_23_1534	s	s	3	4	Capacity	3	ABS	1	0	24MC	0	1	0.806329965591	None	None	None	None	1
1.7	2015_Jul_23_1534	s	s	3	4	Capacity	4	RC	2	0	23VC	1	0	0.605832099915	-193.0	-24.0	-180	-18	1
1.7	2015_Jul_23_1534	s	s	3	4	Capacity	5	RC	1	0	23MC	1	0	1.28241586685	183.0	330.0	183	324	1
1.7	2015_Jul_23_1534	s	s	3	4	Capacity	6	ABS	1	0	24MC	0	1	1.03538298607	None	None	None	None	1
1.7	2015_Jul_23_1534	s	s	3	4	Capacity	7	RC	2	0	23VC	1	0	0.585227012634	-4.0	-216.0	-12	-212	1
1.7	2015_Jul_23_1534	s	s	3	4	Capacity	8	ABS	2	0	24VC	0	1	0.571283817291	None	None	None	None	1
1.7	2015_Jul_23_1534	s	s	3	4	Capacity	9	RC	1	0	23MC	1	0	0.606541872025	-301.0	41.0	-295	46	1
1.7	2015_Jul_23_1534	s	s	3	4	Capacity	10	ABS	2	0	24VC	0	1	0.655073881149	None	None	None	None	1
1.7	2015_Jul_23_1534	s	s	3	4	Capacity	11	ABS	1	0	24MC	0	1	0.714718103409	None	None	None	None	1
1.7	2015_Jul_23_1534	s	s	3	4	Capacity	12	RC	2	0	23VC	1	0	0.620534896851	-392.0	-31.0	-388	-27	1
1.7	2015_Jul_23_1534	s	s	3	4	Capacity	13	ABS	2	0	24VC	0	1	0.595927000046	None	None	None	None	1
1.7	2015_Jul_23_1534	s	s	3	4	Capacity	14	ABS	1	0	24MC	0	1	1.15993404388	None	None	None	None	1
1.7	2015_Jul_23_1534	s	s	3	4	Capacity	15	RC	1	0	23MC	1	0	1.20410203934	452.0	-46.0	456	-41	1
1.7	2015_Jul_23_1534	s	s	3	4	Capacity	16	RC	2	0	23VC	1	0	1.76497793198	-337.0	-124.0	-342	-126	1
1.7	2015_Jul_23_1534	s	s	3	4	Capacity	17	RC	2	0	23VC	1	0	0.526025056839	-297.0	-214.0	-294	-206	1
1.7	2015_Jul_23_1534	s	s	3	4	Capacity	18	RC	1	0	23MC	1	0	0.505520105362	-11.0	-60.0	-5	-55	1
1.7	2015_Jul_23_1534	s	s	3	4	Capacity	19	ABS	2	0	24VC	0	1	0.771193027496	None	None	None	None	1
1.7	2015_Jul_23_1534	s	s	3	4	Capacity	20	ABS	1	0	24MC	0	1	0.988131046295	None	None	None	None	1
1.7	2015_Jul_23_1534	s	s	3	4	Capacity	21	RC	1	0	23MC	1	0	1.04692482948	-75.0	45.0	-80	36	1
1.7	2015_Jul_23_1534	s	s	3	4	Capacity	22	ABS	1	0	24MC	0	1	0.772195100784	None	None	None	None	1
1.7	2015_Jul_23_1534	s	s	3	4	Capacity	23	ABS	2	0	24VC	0	1	0.599727869034	None	None	None	None	1
1.7	2015_Jul_23_1534	s	s	3	4	Capacity	24	RC	2	0	23VC	1	0	0.653424978256	-184.0	-324.0	-178	-322	1
1.7	2015_Jul_23_1534	s	s	3	4	Capacity	25	RC	2	0	23VC	0	0	-1	360.0	-148.0	None	None	-1
1.7	2015_Jul_23_1534	s	s	3	4	Capacity	26	ABS	2	0	24VC	0	0	-1	None	None	None	None	-1
1.7	2015_Jul_23_1534	s	s	3	4	Capacity	27	RC	1	0	23MC	1	0	6.12010884285	-489.0	180.0	-488	176	1
1.7	2015_Jul_23_1534	s	s	3	4	Capacity	28	ABS	1	0	24MC	0	1	1.08222579956	None	None	None	None	1
1.7	2015_Jul_23_1534	s	s	3	4	Capacity	29	RC	1	0	23MC	1	0	1.06681799889	536.0	-38.0	541	-36	1
1.7	2015_Jul_23_1534	s	s	3	4	Capacity	30	RC	2	0	23VC	1	0	0.655834913254	454.0	215.0	453	214	1
1.7	2015_Jul_23_1534	s	s	3	4	Capacity	31	ABS	2	0	24VC	0	1	1.12936496735	None	None	None	None	1
1.7	2015_Jul_23_1534	s	s	3	4	Capacity	32	ABS	1	0	24MC	0	1	1.05876803398	None	None	None	None	1
1.7	2015_Jul_23_1534	s	s	3	4	Capacity	33	RC	1	0	23MC	1	0	0.973665952682	-381.0	-124.0	-384	-124	1
1.7	2015_Jul_23_1534	s	s	3	4	Capacity	34	RC	2	0	23VC	1	0	0.85857796669	516.0	-392.0	518	-385	1
1.7	2015_Jul_23_1534	s	s	3	4	Capacity	35	ABS	1	0	24MC	0	1	0.996097803116	None	None	None	None	1
1.7	2015_Jul_23_1534	s	s	3	4	Capacity	36	ABS	2	0	24VC	0	1	0.552634000778	None	None	None	None	1
1.7	2015_Jul_23_1534	s	s	3	4	Capacity	37	RC	2	0	23VC	1	0	0.964600086212	469.0	115.0	467	116	1
1.7	2015_Jul_23_1534	s	s	3	4	Capacity	38	ABS	1	0	24MC	0	1	1.94145679474	None	None	None	None	1
1.7	2015_Jul_23_1534	s	s	3	4	Capacity	39	ABS	2	0	24VC	0	1	0.67692399025	None	None	None	None	1
1.7	2015_Jul_23_1534	s	s	3	4	Capacity	40	RC	1	0	23MC	1	0	1.81206703186	-405.0	-393.0	-404	-395	1
1.7	2015_Jul_23_1534	s	s	3	4	Capacity	41	RC	2	0	23VC	1	0	0.49024105072	89.0	-237.0	93	-244	1
1.7	2015_Jul_23_1534	s	s	3	4	Capacity	42	RC	1	0	23MC	1	0	1.01800298691	358.0	-115.0	364	-114	1
1.7	2015_Jul_23_1534	s	s	3	4	Capacity	43	ABS	1	0	24MC	0	1	2.11321806908	None	None	None	None	1
1.7	2015_Jul_23_1534	s	s	3	4	Capacity	44	ABS	2	0	24VC	0	1	0.629281997681	None	None	None	None	1
1.7	2015_Jul_23_1534	s	s	3	4	Capacity	45	ABS	1	0	24MC	0	1	3.88731908798	None	None	None	None	1
1.7	2015_Jul_23_1534	s	s	3	4	Capacity	46	ABS	2	0	24VC	0	1	0.773670911789	None	None	None	None	1
1.7	2015_Jul_23_1534	s	s	3	4	Capacity	47	RC	1	0	23MC	1	0	2.1769118309	477.0	259.0	484	263	1
1.7	2015_Jul_23_1534	s	s	3	4	Capacity	48	RC	2	0	23VC	1	0	0.599599123001	-132.0	362.0	-125	363	1
1.7	2015_Jul_23_1534	s	s	3	4	Capacity	49	ABS	2	0	24VC	0	1	0.623183012009	None	None	None	None	1
1.7	2015_Jul_23_1534	s	s	3	4	Capacity	50	RC	1	0	23MC	1	0	0.532737970352	11.0	5.0	18	7	1
1.7	2015_Jul_23_1534	s	s	3	4	Capacity	51	RC	2	0	23VC	1	0	0.511766910553	112.0	233.0	117	225	1
1.7	2015_Jul_23_1534	s	s	3	4	Capacity	52	ABS	1	0	24MC	0	1	1.66578412056	None	None	None	None	1
1.7	2015_Jul_23_1534	s	s	3	4	Capacity	53	RC	2	0	23VC	1	0	0.505550146103	-327.0	-138.0	-317	-136	1
1.7	2015_Jul_23_1534	s	s	3	4	Capacity	54	RC	1	0	23MC	1	0	1.91792798042	478.0	353.0	470	357	1
1.7	2015_Jul_23_1534	s	s	3	4	Capacity	55	ABS	2	0	24VC	0	1	0.599638938904	None	None	None	None	1
1.7	2015_Jul_23_1534	s	s	3	4	Capacity	56	ABS	1	0	24MC	0	1	1.65339684486	None	None	None	None	1
1.7	2015_Jul_23_1534	s	s	3	4	Capacity	57	RC	2	0	23VC	1	0	0.587914943695	-338.0	-25.0	-332	-19	1
1.7	2015_Jul_23_1534	s	s	3	4	Capacity	58	RC	1	0	23MC	1	0	0.520963191986	82.0	129.0	76	121	1
1.7	2015_Jul_23_1534	s	s	3	4	Capacity	59	ABS	1	0	24MC	0	1	1.63253593445	None	None	None	None	1
1.7	2015_Jul_23_1534	s	s	3	4	Capacity	60	ABS	2	0	24VC	0	1	0.599662065506	None	None	None	None	1
1.7	2015_Jul_23_1534	s	s	3	4	Capacity	61	ABS	1	0	24MC	0	1	1.30586695671	None	None	None	None	1
1.7	2015_Jul_23_1534	s	s	3	4	Capacity	62	ABS	2	0	24VC	0	1	0.60543179512	None	None	None	None	1
1.7	2015_Jul_23_1534	s	s	3	4	Capacity	63	RC	2	0	23VC	1	0	0.570872783661	361.0	-148.0	357	-160	1
1.7	2015_Jul_23_1534	s	s	3	4	Capacity	64	RC	1	0	23MC	1	0	0.491377830505	288.0	-18.0	290	-14	1
1.7	2015_Jul_23_1534	s	s	3	4	Capacity	65	RC	2	0	23VC	1	0	0.45844578743	528.0	256.0	533	252	1
1.7	2015_Jul_23_1534	s	s	3	4	Capacity	66	ABS	1	0	24MC	0	1	1.55944705009	None	None	None	None	1
1.7	2015_Jul_23_1534	s	s	3	4	Capacity	67	ABS	2	0	24VC	0	1	0.724142074585	None	None	None	None	1
1.7	2015_Jul_23_1534	s	s	3	4	Capacity	68	RC	1	0	23MC	1	0	0.764493942261	51.0	311.0	48	309	1
1.7	2015_Jul_23_1534	s	s	3	4	Capacity	69	ABS	2	0	24VC	0	1	0.641136169434	None	None	None	None	1
1.7	2015_Jul_23_1534	s	s	3	4	Capacity	70	RC	1	0	23MC	1	0	0.607825994492	132.0	140.0	127	140	1
1.7	2015_Jul_23_1534	s	s	3	4	Capacity	71	RC	2	0	23VC	1	0	0.418183088303	-43.0	-204.0	-44	-214	1
1.7	2015_Jul_23_1534	s	s	3	4	Capacity	72	ABS	1	0	24MC	0	1	1.4438560009	None	None	None	None	1
1.7	2015_Jul_23_1534	s	s	3	4	Capacity	73	ABS	2	0	24VC	0	1	0.465132951736	None	None	None	None	1
1.7	2015_Jul_23_1534	s	s	3	4	Capacity	74	RC	2	0	23VC	1	0	0.77624797821	169.0	340.0	160	340	1
1.7	2015_Jul_23_1534	s	s	3	4	Capacity	75	ABS	1	0	24MC	0	1	1.7296500206	None	None	None	None	1
1.7	2015_Jul_23_1534	s	s	3	4	Capacity	76	RC	1	0	23MC	0	1	0.911427974701	25.0	-359.0	None	None	0
1.7	2015_Jul_23_1534	s	s	3	4	Capacity	77	RC	1	0	23MC	1	0	0.99738407135	192.0	-256.0	193	-262	1
1.7	2015_Jul_23_1534	s	s	3	4	Capacity	78	ABS	1	0	24MC	0	1	1.35285902023	None	None	None	None	1
1.7	2015_Jul_23_1534	s	s	3	4	Capacity	79	RC	2	0	23VC	1	0	0.658512115479	532.0	-30.0	533	-32	1
1.7	2015_Jul_23_1534	s	s	3	4	Capacity	80	ABS	2	0	24VC	0	1	0.717236042023	None	None	None	None	1
1.7	2015_Jul_23_1534	s	s	3	4	Capacity	81	RC	2	0	23VC	1	0	0.564392089844	-382.0	29.0	-380	31	1
1.7	2015_Jul_23_1534	s	s	3	4	Capacity	82	ABS	1	0	24MC	0	1	1.28904914856	None	None	None	None	1
1.7	2015_Jul_23_1534	s	s	3	4	Capacity	83	ABS	2	0	24VC	0	1	0.605863809586	None	None	None	None	1
1.7	2015_Jul_23_1534	s	s	3	4	Capacity	84	RC	1	0	23MC	1	0	0.770653009415	419.0	-275.0	425	-272	1
1.7	2015_Jul_23_1534	s	s	3	4	Capacity	85	RC	1	0	23MC	1	0	0.902980804443	-409.0	-61.0	-395	-56	1
1.7	2015_Jul_23_1534	s	s	3	4	Capacity	86	RC	2	0	23VC	1	0	0.423102855682	-142.0	-168.0	-150	-166	1
1.7	2015_Jul_23_1534	s	s	3	4	Capacity	87	ABS	1	0	24MC	0	1	0.905766010284	None	None	None	None	1
1.7	2015_Jul_23_1534	s	s	3	4	Capacity	88	ABS	2	0	24VC	0	1	0.517304897308	None	None	None	None	1
1.7	2015_Jul_23_1534	s	s	3	4	Capacity	89	ABS	1	0	24MC	0	1	0.57110786438	None	None	None	None	1
1.7	2015_Jul_23_1534	s	s	3	4	Capacity	90	RC	1	0	23MC	1	0	1.45966506004	522.0	352.0	513	359	1
1.7	2015_Jul_23_1534	s	s	3	4	Capacity	91	ABS	2	0	24VC	0	1	0.764340162277	None	None	None	None	1
1.7	2015_Jul_23_1534	s	s	3	4	Capacity	92	RC	2	0	23VC	1	0	0.593899965286	-271.0	-34.0	-265	-33	1
1.7	2015_Jul_23_1534	s	s	3	4	Capacity	1	RC	0	2	23RD	1	0	0.582864046097	-483.0	112.0	-482	107	1
1.7	2015_Jul_23_1534	s	s	3	4	Capacity	2	ABS	0	2	24RD	0	1	1.00710678101	None	None	None	None	1
1.7	2015_Jul_23_1534	s	s	3	4	Capacity	3	RC	0	1	23RO	1	0	1.67751502991	160.0	321.0	159	319	1
1.7	2015_Jul_23_1534	s	s	3	4	Capacity	4	ABS	0	1	24RO	0	1	3.89543604851	None	None	None	None	1
1.7	2015_Jul_23_1534	s	s	3	4	Capacity	5	RC	0	1	23RO	0	1	2.94202899933	114.0	-208.0	None	None	0
1.7	2015_Jul_23_1534	s	s	3	4	Capacity	6	ABS	0	1	24RO	0	1	3.44798588753	None	None	None	None	1
1.7	2015_Jul_23_1534	s	s	3	4	Capacity	7	RC	0	2	23RD	1	0	0.717399835587	-29.0	317.0	-28	320	1
1.7	2015_Jul_23_1534	s	s	3	4	Capacity	8	ABS	0	2	24RD	0	1	1.8355858326	None	None	None	None	1
1.7	2015_Jul_23_1534	s	s	3	4	Capacity	9	RC	0	1	23RO	0	1	2.09075880051	-168.0	300.0	None	None	0
1.7	2015_Jul_23_1534	s	s	3	4	Capacity	10	ABS	0	1	24RO	1	0	2.735268116	None	None	-85	-30	0
1.7	2015_Jul_23_1534	s	s	3	4	Capacity	11	RC	0	2	23RD	1	0	0.882201194763	487.0	274.0	482	273	1
1.7	2015_Jul_23_1534	s	s	3	4	Capacity	12	ABS	0	2	24RD	0	1	0.929149866104	None	None	None	None	1
1.7	2015_Jul_23_1534	s	s	3	4	Capacity	13	ABS	0	2	24RD	0	1	1.27920389175	None	None	None	None	1
1.7	2015_Jul_23_1534	s	s	3	4	Capacity	14	RC	0	2	23RD	1	0	0.700549125671	362.0	-191.0	366	-197	1
1.7	2015_Jul_23_1534	s	s	3	4	Capacity	15	ABS	0	1	24RO	0	1	2.22397494316	None	None	None	None	1
1.7	2015_Jul_23_1534	s	s	3	4	Capacity	16	RC	0	1	23RO	1	0	2.27799391747	-535.0	134.0	-529	130	1
1.7	2015_Jul_23_1534	s	s	3	4	Capacity	17	RC	0	2	23RD	1	0	0.747664928436	209.0	8.0	216	5	1
1.7	2015_Jul_23_1534	s	s	3	4	Capacity	18	RC	0	1	23RO	0	1	4.02004408836	-477.0	-115.0	None	None	0
1.7	2015_Jul_23_1534	s	s	3	4	Capacity	19	ABS	0	2	24RD	0	1	1.20678210258	None	None	None	None	1
1.7	2015_Jul_23_1534	s	s	3	4	Capacity	20	ABS	0	1	24RO	0	1	2.79491901398	None	None	None	None	1
1.7	2015_Jul_23_1534	s	s	3	4	Capacity	21	ABS	0	2	24RD	0	1	1.0539059639	None	None	None	None	1
1.7	2015_Jul_23_1534	s	s	3	4	Capacity	22	RC	0	2	23RD	1	0	0.700600862503	179.0	362.0	169	365	1
1.7	2015_Jul_23_1534	s	s	3	4	Capacity	23	ABS	0	1	24RO	0	1	4.79357790947	None	None	None	None	1
1.7	2015_Jul_23_1534	s	s	3	4	Capacity	24	RC	0	1	23RO	1	0	2.29512095451	322.0	-124.0	327	-126	1
1.7	2015_Jul_23_1534	s	s	3	4	Capacity	25	ABS	0	2	24RD	0	1	0.889129161835	None	None	None	None	1
1.7	2015_Jul_23_1534	s	s	3	4	Capacity	26	RC	0	1	23RO	0	1	2.89485502243	317.0	125.0	None	None	0
1.7	2015_Jul_23_1534	s	s	3	4	Capacity	27	ABS	0	1	24RO	0	1	1.61237502098	None	None	None	None	1
1.7	2015_Jul_23_1534	s	s	3	4	Capacity	28	RC	0	2	23RD	1	0	0.749388933182	-184.0	-134.0	-183	-130	1
1.7	2015_Jul_23_1534	s	s	3	4	Capacity	29	RC	0	1	23RO	1	0	1.67077302933	272.0	186.0	274	182	1
1.7	2015_Jul_23_1534	s	s	3	4	Capacity	30	RC	0	2	23RD	1	0	0.611439943314	-339.0	212.0	-337	211	1
1.7	2015_Jul_23_1534	s	s	3	4	Capacity	31	ABS	0	2	24RD	0	1	1.18252110481	None	None	None	None	1
1.7	2015_Jul_23_1534	s	s	3	4	Capacity	32	ABS	0	1	24RO	0	1	2.85966706276	None	None	None	None	1
1.7	2015_Jul_23_1534	s	s	3	4	Capacity	33	ABS	0	2	24RD	0	1	0.665255069733	None	None	None	None	1
1.7	2015_Jul_23_1534	s	s	3	4	Capacity	34	RC	0	1	23RO	1	0	0.712058067322	-327.0	41.0	-332	37	1
1.7	2015_Jul_23_1534	s	s	3	4	Capacity	35	ABS	0	1	24RO	0	1	2.82432699203	None	None	None	None	1
1.7	2015_Jul_23_1534	s	s	3	4	Capacity	36	RC	0	2	23RD	1	0	0.682502031326	-512.0	-185.0	-502	-183	1
1.7	2015_Jul_23_1534	s	s	3	4	Capacity	37	ABS	0	1	24RO	0	1	2.60067892075	None	None	None	None	1
1.7	2015_Jul_23_1534	s	s	3	4	Capacity	38	RC	0	1	23RO	0	1	3.25985407829	-108.0	-370.0	None	None	0
1.7	2015_Jul_23_1534	s	s	3	4	Capacity	39	RC	0	2	23RD	1	0	0.713912010193	253.0	162.0	250	164	1
1.7	2015_Jul_23_1534	s	s	3	4	Capacity	40	ABS	0	2	24RD	0	1	1.44714903831	None	None	None	None	1
1.7	2015_Jul_23_1534	s	s	3	4	Capacity	41	ABS	0	2	24RD	0	1	1.00445199013	None	None	None	None	1
1.7	2015_Jul_23_1534	s	s	3	4	Capacity	42	RC	0	2	23RD	1	0	0.658565044403	-11.0	320.0	-9	318	1
1.7	2015_Jul_23_1534	s	s	3	4	Capacity	43	ABS	0	1	24RO	0	1	2.75359201431	None	None	None	None	1
1.7	2015_Jul_23_1534	s	s	3	4	Capacity	44	RC	0	1	23RO	0	1	2.74194717407	39.0	-137.0	None	None	0
1.7	2015_Jul_23_1534	s	s	3	4	Capacity	45	RC	0	2	23RD	1	0	0.818212985992	-95.0	375.0	-85	376	1
1.7	2015_Jul_23_1534	s	s	3	4	Capacity	46	ABS	0	2	24RD	0	1	0.893914937973	None	None	None	None	1
1.7	2015_Jul_23_1534	s	s	3	4	Capacity	47	RC	0	1	23RO	0	1	2.40978288651	-500.0	-124.0	None	None	0
1.7	2015_Jul_23_1534	s	s	3	4	Capacity	48	ABS	0	1	24RO	0	1	2.98907399178	None	None	None	None	1
1.7	2015_Jul_23_1534	s	s	3	4	Capacity	49	ABS	0	1	24RO	0	1	2.45421719551	None	None	None	None	1
1.7	2015_Jul_23_1534	s	s	3	4	Capacity	50	ABS	0	2	24RD	0	1	1.24372005463	None	None	None	None	1
1.7	2015_Jul_23_1534	s	s	3	4	Capacity	51	RC	0	2	23RD	1	0	0.688623905182	-152.0	-171.0	-141	-170	1
1.7	2015_Jul_23_1534	s	s	3	4	Capacity	52	RC	0	1	23RO	1	0	1.74145007133	376.0	367.0	368	369	1
1.7	2015_Jul_23_1534	s	s	3	4	Capacity	53	ABS	0	2	24RD	0	1	0.658544063568	None	None	None	None	1
1.7	2015_Jul_23_1534	s	s	3	4	Capacity	54	RC	0	2	23RD	1	0	0.573637008667	126.0	124.0	122	118	1
1.7	2015_Jul_23_1534	s	s	3	4	Capacity	55	RC	0	1	23RO	1	0	1.47071003914	-524.0	-41.0	-527	-45	1
1.7	2015_Jul_23_1534	s	s	3	4	Capacity	56	ABS	0	1	24RO	0	1	2.85965204239	None	None	None	None	1
1.7	2015_Jul_23_1534	s	s	3	4	Capacity	57	RC	0	1	23RO	1	0	1.83547401428	-471.0	58.0	-472	62	1
1.7	2015_Jul_23_1534	s	s	3	4	Capacity	58	ABS	0	2	24RD	0	1	0.806394100189	None	None	None	None	1
1.7	2015_Jul_23_1534	s	s	3	4	Capacity	59	RC	0	2	23RD	1	0	0.729168891907	-290.0	268.0	-287	262	1
1.7	2015_Jul_23_1534	s	s	3	4	Capacity	60	ABS	0	1	24RO	0	1	2.5418908596	None	None	None	None	1
1.7	2015_Jul_23_1534	s	s	3	4	Capacity	61	ABS	0	2	24RD	0	1	1.06235980988	None	None	None	None	1
1.7	2015_Jul_23_1534	s	s	3	4	Capacity	62	RC	0	2	23RD	1	0	0.61856007576	171.0	290.0	167	296	1
1.7	2015_Jul_23_1534	s	s	3	4	Capacity	63	ABS	0	1	24RO	0	1	3.35403013229	None	None	None	None	1
1.7	2015_Jul_23_1534	s	s	3	4	Capacity	64	RC	0	1	23RO	1	0	1.24211001396	-151.0	-21.0	-156	-26	1
1.7	2015_Jul_23_1534	s	s	3	4	Capacity	65	RC	0	2	23RD	1	0	0.644122123718	265.0	-212.0	270	-207	1
1.7	2015_Jul_23_1534	s	s	3	4	Capacity	66	ABS	0	1	24RO	0	1	3.06338906288	None	None	None	None	1
1.7	2015_Jul_23_1534	s	s	3	4	Capacity	67	ABS	0	2	24RD	0	1	0.846782922745	None	None	None	None	1
1.7	2015_Jul_23_1534	s	s	3	4	Capacity	68	RC	0	1	23RO	0	1	3.13713502884	492.0	-292.0	None	None	0
1.7	2015_Jul_23_1534	s	s	3	4	Capacity	69	ABS	0	1	24RO	0	1	2.9655251503	None	None	None	None	1
1.7	2015_Jul_23_1534	s	s	3	4	Capacity	70	ABS	0	2	24RD	0	1	0.799741983414	None	None	None	None	1
1.7	2015_Jul_23_1534	s	s	3	4	Capacity	71	RC	0	1	23RO	1	0	0.941059112549	-203.0	292.0	-203	287	1
1.7	2015_Jul_23_1534	s	s	3	4	Capacity	72	RC	0	2	23RD	1	0	0.552641153336	-374.0	37.0	-367	33	1
1.7	2015_Jul_23_1534	s	s	3	4	Capacity	73	RC	0	1	23RO	1	0	2.1712179184	123.0	-405.0	123	-407	1
1.7	2015_Jul_23_1534	s	s	3	4	Capacity	74	RC	0	2	23RD	1	0	0.712060928345	-406.0	-377.0	-397	-373	1
1.7	2015_Jul_23_1534	s	s	3	4	Capacity	75	ABS	0	1	24RO	0	1	4.56153011322	None	None	None	None	1
1.7	2015_Jul_23_1534	s	s	3	4	Capacity	76	ABS	0	2	24RD	0	1	0.773545980453	None	None	None	None	1
1.7	2015_Jul_23_1534	s	s	3	4	Capacity	77	ABS	0	2	24RD	0	1	0.571791887283	None	None	None	None	1
1.7	2015_Jul_23_1534	s	s	3	4	Capacity	78	RC	0	1	23RO	0	1	3.23626613617	-470.0	-238.0	None	None	0
1.7	2015_Jul_23_1534	s	s	3	4	Capacity	79	ABS	0	1	24RO	0	1	1.95694088936	None	None	None	None	1
1.7	2015_Jul_23_1534	s	s	3	4	Capacity	80	RC	0	2	23RD	1	0	0.634997844696	166.0	189.0	173	192	1
1.7	2015_Jul_23_1534	s	s	3	4	Capacity	81	ABS	0	1	24RO	0	1	3.19607782364	None	None	None	None	1
1.7	2015_Jul_23_1534	s	s	3	4	Capacity	82	RC	0	1	23RO	0	1	3.1018409729	429.0	-287.0	None	None	0
1.7	2015_Jul_23_1534	s	s	3	4	Capacity	83	RC	0	2	23RD	1	0	0.894007921219	-313.0	344.0	-310	336	1
1.7	2015_Jul_23_1534	s	s	3	4	Capacity	84	ABS	0	2	24RD	0	1	0.760776042938	None	None	None	None	1
1.7	2015_Jul_23_1534	s	s	3	4	Capacity	85	ABS	0	1	24RO	0	1	2.73692679405	None	None	None	None	1
1.7	2015_Jul_23_1534	s	s	3	4	Capacity	86	RC	0	1	23RO	1	0	1.51776003838	-409.0	-217.0	-407	-216	1
1.7	2015_Jul_23_1534	s	s	3	4	Capacity	87	RC	0	2	23RD	1	0	0.534384012222	-61.0	32.0	-64	38	1
1.7	2015_Jul_23_1534	s	s	3	4	Capacity	88	ABS	0	2	24RD	0	1	1.11794495583	None	None	None	None	1
1.7	2015_Jul_23_1534	s	s	3	4	Capacity	89	ABS	0	1	24RO	0	1	2.8478140831	None	None	None	None	1
1.7	2015_Jul_23_1534	s	s	3	4	Capacity	90	RC	0	1	23RO	1	0	2.96161699295	148.0	352.0	151	359	1
1.7	2015_Jul_23_1534	s	s	3	4	Capacity	91	ABS	0	2	24RD	0	1	1.04183197021	None	None	None	None	1
1.7	2015_Jul_23_1534	s	s	3	4	Capacity	92	RC	0	2	23RD	1	0	0.560769081116	-5.0	124.0	-3	127	1
1.7	2015_Jul_23_1534	s	s	3	4	SIC	1	RC	1	0	23MC	1	0	1.19991493225	513.0	28.0	516	20	1
1.7	2015_Jul_23_1534	s	s	3	4	SIC	2	ABS	1	2	24MD	0	1	0.693801164627	None	None	None	None	1
1.7	2015_Jul_23_1534	s	s	3	4	SIC	3	ABS	0	1	24RO	0	1	2.41869997978	None	None	None	None	1
1.7	2015_Jul_23_1534	s	s	3	4	SIC	4	ABS	2	2	24VD	0	1	0.658520936966	None	None	None	None	1
1.7	2015_Jul_23_1534	s	s	3	4	SIC	5	RC	1	1	23MO	1	0	0.994158029556	-409.0	-318.0	-407	-322	1
1.7	2015_Jul_23_1534	s	s	3	4	SIC	6	ABS	1	0	24MC	0	1	2.01858592033	None	None	None	None	1
1.7	2015_Jul_23_1534	s	s	3	4	SIC	7	RC	2	2	23VD	1	0	1.51273608208	443.0	-383.0	454	-378	1
1.7	2015_Jul_23_1534	s	s	3	4	SIC	8	RC	0	1	23RO	1	0	1.61835694313	266.0	-242.0	266	-243	1
1.7	2015_Jul_23_1534	s	s	3	4	SIC	9	ABS	1	1	24MO	0	1	2.96056509018	None	None	None	None	1
1.7	2015_Jul_23_1534	s	s	3	4	SIC	10	RC	0	2	23RD	1	0	0.559181928635	251.0	0.0	245	7	1
1.7	2015_Jul_23_1534	s	s	3	4	SIC	11	ABS	0	2	24RD	0	1	1.30595493317	None	None	None	None	1
1.7	2015_Jul_23_1534	s	s	3	4	SIC	12	RC	1	2	23MD	1	0	0.670303106308	506.0	-228.0	510	-224	1
1.7	2015_Jul_23_1534	s	s	3	4	SIC	13	ABS	2	1	24VO	0	1	0.587907075882	None	None	None	None	1
1.7	2015_Jul_23_1534	s	s	3	4	SIC	14	RC	2	1	23VO	1	0	0.634939908981	-369.0	258.0	-374	256	1
1.7	2015_Jul_23_1534	s	s	3	4	SIC	15	RC	2	0	23VC	1	0	0.446660995483	67.0	-148.0	63	-150	1
1.7	2015_Jul_23_1534	s	s	3	4	SIC	16	ABS	2	0	24VC	0	1	0.641874074936	None	None	None	None	1
1.7	2015_Jul_23_1534	s	s	3	4	SIC	17	ABS	2	1	24VO	0	1	0.717413902283	None	None	None	None	1
1.7	2015_Jul_23_1534	s	s	3	4	SIC	18	RC	1	2	23MD	1	0	0.749876976013	452.0	392.0	450	390	1
1.7	2015_Jul_23_1534	s	s	3	4	SIC	19	ABS	0	2	24RD	0	1	0.688720941544	None	None	None	None	1
1.7	2015_Jul_23_1534	s	s	3	4	SIC	20	RC	1	1	23MO	1	0	1.2774720192	-500.0	-303.0	-509	-305	1
1.7	2015_Jul_23_1534	s	s	3	4	SIC	21	RC	2	1	23VO	1	0	0.673946857452	-237.0	-386.0	-226	-386	1
1.7	2015_Jul_23_1534	s	s	3	4	SIC	22	RC	2	0	23VC	1	0	0.51206612587	179.0	-236.0	189	-238	1
1.7	2015_Jul_23_1534	s	s	3	4	SIC	23	ABS	1	1	24MO	0	1	2.54869198799	None	None	None	None	1
1.7	2015_Jul_23_1534	s	s	3	4	SIC	24	ABS	1	0	24MC	0	1	1.80392098427	None	None	None	None	1
1.7	2015_Jul_23_1534	s	s	3	4	SIC	25	RC	0	2	23RD	1	0	0.57109618187	-497.0	106.0	-497	103	1
1.7	2015_Jul_23_1534	s	s	3	4	SIC	26	ABS	0	1	24RO	0	1	3.05982804298	None	None	None	None	1
1.7	2015_Jul_23_1534	s	s	3	4	SIC	27	ABS	2	0	24VC	0	1	0.611736059189	None	None	None	None	1
1.7	2015_Jul_23_1534	s	s	3	4	SIC	28	RC	2	2	23VD	1	0	0.679301977158	-124.0	-167.0	-123	-165	1
1.7	2015_Jul_23_1534	s	s	3	4	SIC	29	ABS	1	2	24MD	0	1	0.99983215332	None	None	None	None	1
1.7	2015_Jul_23_1534	s	s	3	4	SIC	30	RC	1	0	23MC	1	0	1.03057122231	469.0	-51.0	461	-42	1
1.7	2015_Jul_23_1534	s	s	3	4	SIC	31	RC	0	1	23RO	0	1	2.56049108505	9.0	-276.0	None	None	0
1.7	2015_Jul_23_1534	s	s	3	4	SIC	32	ABS	2	2	24VD	0	1	0.623170852661	None	None	None	None	1
1.7	2015_Jul_23_1534	s	s	3	4	SIC	33	ABS	1	1	24MO	0	1	1.85911107063	None	None	None	None	1
1.7	2015_Jul_23_1534	s	s	3	4	SIC	34	RC	1	1	23MO	1	0	1.14785003662	-196.0	247.0	-194	244	1
1.7	2015_Jul_23_1534	s	s	3	4	SIC	35	RC	0	1	23RO	0	1	1.89452409744	285.0	-75.0	None	None	0
1.7	2015_Jul_23_1534	s	s	3	4	SIC	36	RC	1	0	23MC	1	0	0.905651092529	-401.0	-299.0	-406	-302	1
1.7	2015_Jul_23_1534	s	s	3	4	SIC	37	ABS	2	1	24VO	0	1	0.599663972855	None	None	None	None	1
1.7	2015_Jul_23_1534	s	s	3	4	SIC	38	ABS	0	2	24RD	0	1	0.670272111893	None	None	None	None	1
1.7	2015_Jul_23_1534	s	s	3	4	SIC	39	RC	1	2	23MD	1	0	0.792106151581	-339.0	283.0	-336	285	1
1.7	2015_Jul_23_1534	s	s	3	4	SIC	40	RC	2	0	23VC	1	0	0.667607069016	349.0	-205.0	348	-212	1
1.7	2015_Jul_23_1534	s	s	3	4	SIC	41	RC	0	2	23RD	1	0	0.882220983505	-219.0	290.0	-218	293	1
1.7	2015_Jul_23_1534	s	s	3	4	SIC	42	RC	2	2	23VD	1	0	0.481986045837	347.0	-192.0	346	-199	1
1.7	2015_Jul_23_1534	s	s	3	4	SIC	43	ABS	2	0	24VC	0	1	0.571166038513	None	None	None	None	1
1.7	2015_Jul_23_1534	s	s	3	4	SIC	44	RC	2	1	23VO	1	0	0.658444166183	38.0	92.0	34	90	1
1.7	2015_Jul_23_1534	s	s	3	4	SIC	45	ABS	1	0	24MC	0	1	1.8446688652	None	None	None	None	1
1.7	2015_Jul_23_1534	s	s	3	4	SIC	46	ABS	1	2	24MD	0	1	0.571189880371	None	None	None	None	1
1.7	2015_Jul_23_1534	s	s	3	4	SIC	47	ABS	0	1	24RO	0	1	2.30130600929	None	None	None	None	1
1.7	2015_Jul_23_1534	s	s	3	4	SIC	48	ABS	2	2	24VD	0	1	0.50551199913	None	None	None	None	1
1.7	2015_Jul_23_1534	s	s	3	4	SIC	49	ABS	1	0	24MC	0	1	1.3714928627	None	None	None	None	1
1.7	2015_Jul_23_1534	s	s	3	4	SIC	50	ABS	2	0	24VC	0	1	0.493695020676	None	None	None	None	1
1.7	2015_Jul_23_1534	s	s	3	4	SIC	51	RC	2	1	23VO	1	0	0.678786993027	261.0	171.0	260	172	1
1.7	2015_Jul_23_1534	s	s	3	4	SIC	52	ABS	0	1	24RO	0	1	2.8007171154	None	None	None	None	1
1.7	2015_Jul_23_1534	s	s	3	4	SIC	53	RC	1	0	23MC	1	0	0.740901947021	68.0	262.0	67	258	1
1.7	2015_Jul_23_1534	s	s	3	4	SIC	54	RC	2	0	23VC	1	0	0.487324953079	-197.0	340.0	-194	326	1
1.7	2015_Jul_23_1534	s	s	3	4	SIC	55	RC	1	2	23MD	1	0	0.488642215729	376.0	-41.0	384	-44	1
1.7	2015_Jul_23_1534	s	s	3	4	SIC	56	ABS	0	2	24RD	0	1	0.90293598175	None	None	None	None	1
1.7	2015_Jul_23_1534	s	s	3	4	SIC	57	ABS	1	2	24MD	0	1	0.759980201721	None	None	None	None	1
1.7	2015_Jul_23_1534	s	s	3	4	SIC	58	ABS	2	1	24VO	0	1	0.528984069824	None	None	None	None	1
1.7	2015_Jul_23_1534	s	s	3	4	SIC	59	RC	2	2	23VD	1	0	0.540813207626	-181.0	-332.0	-181	-338	1
1.7	2015_Jul_23_1534	s	s	3	4	SIC	60	RC	1	1	23MO	1	0	0.865216016769	-180.0	-156.0	-172	-159	1
1.7	2015_Jul_23_1534	s	s	3	4	SIC	61	ABS	1	1	24MO	0	1	1.44708704948	None	None	None	None	1
1.7	2015_Jul_23_1534	s	s	3	4	SIC	62	RC	0	1	23RO	0	1	1.5647919178	-190.0	195.0	None	None	0
1.7	2015_Jul_23_1534	s	s	3	4	SIC	63	RC	0	2	23RD	1	0	0.6467628479	152.0	-312.0	155	-307	1
1.7	2015_Jul_23_1534	s	s	3	4	SIC	64	ABS	2	2	24VD	0	1	0.584160089493	None	None	None	None	1
1.7	2015_Jul_23_1534	s	s	3	4	SIC	65	ABS	2	2	24VD	0	1	0.576131105423	None	None	None	None	1
1.7	2015_Jul_23_1534	s	s	3	4	SIC	66	RC	0	2	23RD	1	0	0.735816955566	-328.0	353.0	-330	353	1
1.7	2015_Jul_23_1534	s	s	3	4	SIC	67	RC	2	0	23VC	1	0	0.537499904633	322.0	-316.0	313	-312	1
1.7	2015_Jul_23_1534	s	s	3	4	SIC	68	ABS	0	2	24RD	0	1	0.94751906395	None	None	None	None	1
1.7	2015_Jul_23_1534	s	s	3	4	SIC	69	RC	1	1	23MO	1	0	1.27427315712	-431.0	403.0	-443	404	1
1.7	2015_Jul_23_1534	s	s	3	4	SIC	70	RC	1	2	23MD	1	0	0.611390113831	-216.0	364.0	-214	361	1
1.7	2015_Jul_23_1534	s	s	3	4	SIC	71	ABS	2	1	24VO	0	1	0.587893009186	None	None	None	None	1
1.7	2015_Jul_23_1534	s	s	3	4	SIC	72	ABS	1	0	24MC	0	1	1.20866298676	None	None	None	None	1
1.7	2015_Jul_23_1534	s	s	3	4	SIC	73	ABS	1	1	24MO	0	1	1.50230789185	None	None	None	None	1
1.7	2015_Jul_23_1534	s	s	3	4	SIC	74	ABS	1	2	24MD	0	1	0.571074008942	None	None	None	None	1
1.7	2015_Jul_23_1534	s	s	3	4	SIC	75	RC	0	1	23RO	0	1	2.13667416573	-49.0	136.0	None	None	0
1.7	2015_Jul_23_1534	s	s	3	4	SIC	76	RC	1	0	23MC	1	0	1.18011283875	200.0	193.0	206	195	1
1.7	2015_Jul_23_1534	s	s	3	4	SIC	77	ABS	0	1	24RO	0	1	1.97291207314	None	None	None	None	1
1.7	2015_Jul_23_1534	s	s	3	4	SIC	78	ABS	2	0	24VC	0	1	0.493759870529	None	None	None	None	1
1.7	2015_Jul_23_1534	s	s	3	4	SIC	79	RC	2	1	23VO	1	0	0.697518110275	500.0	-31.0	507	-30	1
1.7	2015_Jul_23_1534	s	s	3	4	SIC	80	RC	2	2	23VD	1	0	0.482022047043	-270.0	129.0	-272	126	1
1.7	2015_Jul_23_1534	s	s	3	4	SIC	81	RC	2	2	23VD	1	0	0.423044919968	465.0	-144.0	474	-146	1
1.7	2015_Jul_23_1534	s	s	3	4	SIC	82	ABS	1	2	24MD	0	1	0.717288017273	None	None	None	None	1
1.7	2015_Jul_23_1534	s	s	3	4	SIC	83	ABS	2	2	24VD	0	1	0.623214006424	None	None	None	None	1
1.7	2015_Jul_23_1534	s	s	3	4	SIC	84	ABS	0	2	24RD	0	1	0.65850687027	None	None	None	None	1
1.7	2015_Jul_23_1534	s	s	3	4	SIC	85	RC	1	0	23MC	1	0	1.81206488609	386.0	67.0	383	67	1
1.7	2015_Jul_23_1534	s	s	3	4	SIC	86	RC	2	1	23VO	1	0	0.559233903885	369.0	-299.0	373	-293	1
1.7	2015_Jul_23_1534	s	s	3	4	SIC	87	RC	0	2	23RD	1	0	0.67714715004	202.0	206.0	204	203	1
1.7	2015_Jul_23_1534	s	s	3	4	SIC	88	ABS	1	1	24MO	0	1	0.98804807663	None	None	None	None	1
1.7	2015_Jul_23_1534	s	s	3	4	SIC	89	ABS	0	1	24RO	0	1	2.30644488335	None	None	None	None	1
1.7	2015_Jul_23_1534	s	s	3	4	SIC	90	ABS	1	0	24MC	0	1	2.38882112503	None	None	None	None	1
1.7	2015_Jul_23_1534	s	s	3	4	SIC	91	RC	0	1	23RO	1	0	1.57074117661	-533.0	79.0	-534	77	1
1.7	2015_Jul_23_1534	s	s	3	4	SIC	92	RC	2	0	23VC	1	0	0.517246961594	301.0	233.0	299	232	1
1.7	2015_Jul_23_1534	s	s	3	4	SIC	93	ABS	2	0	24VC	0	1	0.823240995407	None	None	None	None	1
1.7	2015_Jul_23_1534	s	s	3	4	SIC	94	RC	1	1	23MO	1	0	0.658501148224	171.0	-34.0	174	-35	1
1.7	2015_Jul_23_1534	s	s	3	4	SIC	95	ABS	2	1	24VO	0	1	0.653341054916	None	None	None	None	1
1.7	2015_Jul_23_1534	s	s	3	4	SIC	96	RC	1	2	23MD	1	0	0.561760902405	-441.0	-19.0	-443	-21	1
1.7	2015_Jul_23_1534	s	s	3	4	SIC	97	RC	1	2	23MD	1	0	0.524121999741	397.0	5.0	398	3	1
1.7	2015_Jul_23_1534	s	s	3	4	SIC	98	ABS	0	1	24RO	0	1	3.93749809265	None	None	None	None	1
1.7	2015_Jul_23_1534	s	s	3	4	SIC	99	RC	1	1	23MO	1	0	2.24241399765	340.0	326.0	329	333	1
1.7	2015_Jul_23_1534	s	s	3	4	SIC	100	RC	2	0	23VC	1	0	0.618057966232	488.0	386.0	495	385	1
1.7	2015_Jul_23_1534	s	s	3	4	SIC	101	ABS	2	2	24VD	0	1	0.799755096436	None	None	None	None	1
1.7	2015_Jul_23_1534	s	s	3	4	SIC	102	ABS	1	0	24MC	0	1	1.57663607597	None	None	None	None	1
1.7	2015_Jul_23_1534	s	s	3	4	SIC	103	ABS	2	1	24VO	0	1	0.465908050537	None	None	None	None	1
1.7	2015_Jul_23_1534	s	s	3	4	SIC	104	RC	0	2	23RD	1	0	1.24712705612	-394.0	358.0	-391	361	1
1.7	2015_Jul_23_1534	s	s	3	4	SIC	105	ABS	0	2	24RD	0	1	0.741097211838	None	None	None	None	1
1.7	2015_Jul_23_1534	s	s	3	4	SIC	106	ABS	1	1	24MO	0	1	1.21816396713	None	None	None	None	1
1.7	2015_Jul_23_1534	s	s	3	4	SIC	107	ABS	2	0	24VC	0	1	0.444017887115	None	None	None	None	1
1.7	2015_Jul_23_1534	s	s	3	4	SIC	108	RC	2	1	23VO	1	0	0.705528974533	386.0	205.0	390	210	1
1.7	2015_Jul_23_1534	s	s	3	4	SIC	109	ABS	1	2	24MD	0	1	1.22352600098	None	None	None	None	1
1.7	2015_Jul_23_1534	s	s	3	4	SIC	110	RC	2	2	23VD	1	0	0.611425876617	28.0	410.0	22	406	1
1.7	2015_Jul_23_1534	s	s	3	4	SIC	111	RC	0	1	23RO	1	0	2.2563560009	-1.0	-312.0	-8	-319	1
1.7	2015_Jul_23_1534	s	s	3	4	SIC	112	RC	1	0	23MC	1	0	1.57662415504	-488.0	206.0	-489	209	1
1.7	2015_Jul_23_1534	s	s	3	4	SIC	113	ABS	0	2	24RD	0	1	0.611382961273	None	None	None	None	1
1.7	2015_Jul_23_1534	s	s	3	4	SIC	114	RC	0	1	23RO	1	0	0.747557878494	-204.0	-41.0	-194	-43	1
1.7	2015_Jul_23_1534	s	s	3	4	SIC	115	RC	2	0	23VC	1	0	0.511505126953	-161.0	-333.0	-151	-327	1
1.7	2015_Jul_23_1534	s	s	3	4	SIC	116	ABS	1	2	24MD	0	1	0.712754011154	None	None	None	None	1
1.7	2015_Jul_23_1534	s	s	3	4	SIC	117	RC	0	2	23RD	1	0	0.670325994492	-29.0	363.0	-29	357	1
1.7	2015_Jul_23_1534	s	s	3	4	SIC	118	ABS	1	0	24MC	0	1	1.1409611702	None	None	None	None	1
1.7	2015_Jul_23_1534	s	s	3	4	SIC	119	ABS	2	1	24VO	0	1	0.83028793335	None	None	None	None	1
1.7	2015_Jul_23_1534	s	s	3	4	SIC	120	RC	1	1	23MO	0	1	0.8525390625	463.0	-221.0	None	None	0
1.7	2015_Jul_23_1534	s	s	3	4	SIC	121	ABS	2	2	24VD	0	1	0.547456026077	None	None	None	None	1
1.7	2015_Jul_23_1534	s	s	3	4	SIC	122	RC	1	0	23MC	1	0	1.17632889748	-33.0	408.0	-26	401	1
1.7	2015_Jul_23_1534	s	s	3	4	SIC	123	ABS	0	1	24RO	0	1	2.81247520447	None	None	None	None	1
1.7	2015_Jul_23_1534	s	s	3	4	SIC	124	ABS	1	1	24MO	0	1	7.32065701485	None	None	None	None	1
1.7	2015_Jul_23_1534	s	s	3	4	SIC	125	RC	1	2	23MD	1	0	0.72393488884	532.0	284.0	536	284	1
1.7	2015_Jul_23_1534	s	s	3	4	SIC	126	RC	2	1	23VO	1	0	0.517248153687	237.0	-22.0	239	-14	1
1.7	2015_Jul_23_1534	s	s	3	4	SIC	127	RC	2	2	23VD	1	0	0.493762969971	449.0	-6.0	443	0	1
1.7	2015_Jul_23_1534	s	s	3	4	SIC	128	ABS	2	0	24VC	0	1	0.841199159622	None	None	None	None	1
1.7	2015_Jul_23_1534	s	s	3	4	SIC	129	RC	2	1	23VO	1	0	0.634953975677	190.0	-83.0	189	-86	1
1.7	2015_Jul_23_1534	s	s	3	4	SIC	130	RC	2	2	23VD	1	0	0.481908082962	-460.0	172.0	-455	167	1
1.7	2015_Jul_23_1534	s	s	3	4	SIC	131	RC	0	2	23RD	1	0	0.488788843155	-529.0	60.0	-528	53	1
1.7	2015_Jul_23_1534	s	s	3	4	SIC	132	RC	1	2	23MD	1	0	0.528990983963	43.0	-345.0	58	-339	1
1.7	2015_Jul_23_1534	s	s	3	4	SIC	133	RC	1	1	23MO	1	0	0.559288024902	-44.0	-232.0	-39	-238	1
1.7	2015_Jul_23_1534	s	s	3	4	SIC	134	ABS	1	1	24MO	0	1	2.45424318314	None	None	None	None	1
1.7	2015_Jul_23_1534	s	s	3	4	SIC	135	ABS	0	1	24RO	0	1	2.16520905495	None	None	None	None	1
1.7	2015_Jul_23_1534	s	s	3	4	SIC	136	ABS	2	0	24VC	0	1	0.564217090607	None	None	None	None	1
1.7	2015_Jul_23_1534	s	s	3	4	SIC	137	ABS	1	2	24MD	0	1	0.560589075089	None	None	None	None	1
1.7	2015_Jul_23_1534	s	s	3	4	SIC	138	RC	2	0	23VC	1	0	0.752655029297	-382.0	266.0	-383	265	1
1.7	2015_Jul_23_1534	s	s	3	4	SIC	139	ABS	2	1	24VO	0	1	0.724066019058	None	None	None	None	1
1.7	2015_Jul_23_1534	s	s	3	4	SIC	140	RC	1	0	23MC	1	0	1.64238214493	524.0	392.0	523	394	1
1.7	2015_Jul_23_1534	s	s	3	4	SIC	141	ABS	0	2	24RD	0	1	0.619732141495	None	None	None	None	1
1.7	2015_Jul_23_1534	s	s	3	4	SIC	142	ABS	1	0	24MC	0	1	1.31288099289	None	None	None	None	1
1.7	2015_Jul_23_1534	s	s	3	4	SIC	143	ABS	2	2	24VD	0	1	0.488471984863	None	None	None	None	1
1.7	2015_Jul_23_1534	s	s	3	4	SIC	144	RC	0	1	23RO	1	0	2.90154409409	173.0	-36.0	165	-32	1
1.7	2015_Jul_23_1534	s	s	3	4	SIC	145	ABS	1	2	24MD	0	1	0.606892108917	None	None	None	None	1
1.7	2015_Jul_23_1534	s	s	3	4	SIC	146	RC	1	2	23MD	1	0	0.705482959747	-75.0	187.0	-75	189	1
1.7	2015_Jul_23_1534	s	s	3	4	SIC	147	ABS	0	1	24RO	0	1	3.54907822609	None	None	None	None	1
1.7	2015_Jul_23_1534	s	s	3	4	SIC	148	RC	0	2	23RD	1	0	0.782694816589	-435.0	-281.0	-435	-282	1
1.7	2015_Jul_23_1534	s	s	3	4	SIC	149	RC	0	1	23RO	0	1	2.78408098221	-487.0	-331.0	None	None	0
1.7	2015_Jul_23_1534	s	s	3	4	SIC	150	RC	2	2	23VD	1	0	0.619401931763	373.0	-341.0	376	-349	1
1.7	2015_Jul_23_1534	s	s	3	4	SIC	151	RC	1	1	23MO	1	0	1.21540999413	-427.0	225.0	-433	224	1
1.7	2015_Jul_23_1534	s	s	3	4	SIC	152	RC	1	0	23MC	1	0	0.576133012772	128.0	-79.0	132	-85	1
1.7	2015_Jul_23_1534	s	s	3	4	SIC	153	ABS	1	1	24MO	0	1	1.09987211227	None	None	None	None	1
1.7	2015_Jul_23_1534	s	s	3	4	SIC	154	ABS	1	0	24MC	0	1	2.64407300949	None	None	None	None	1
1.7	2015_Jul_23_1534	s	s	3	4	SIC	155	ABS	0	2	24RD	0	1	0.670305013657	None	None	None	None	1
1.7	2015_Jul_23_1534	s	s	3	4	SIC	156	ABS	2	2	24VD	0	1	0.629590034485	None	None	None	None	1
1.7	2015_Jul_23_1534	s	s	3	4	SIC	157	RC	2	0	23VC	1	0	0.658463954926	-195.0	57.0	-188	58	1
1.7	2015_Jul_23_1534	s	s	3	4	SIC	158	ABS	2	1	24VO	0	1	0.505542993546	None	None	None	None	1
1.7	2015_Jul_23_1534	s	s	3	4	SIC	159	ABS	2	0	24VC	0	1	0.947658061981	None	None	None	None	1
1.7	2015_Jul_23_1534	s	s	3	4	SIC	160	RC	2	1	23VO	1	0	0.582190990448	-378.0	-161.0	-379	-155	1
1.7	2015_Jul_23_1534	s	s	3	4	SIC	161	RC	2	2	23VD	1	0	0.505575895309	-467.0	-257.0	-475	-254	1
1.7	2015_Jul_23_1534	s	s	3	4	SIC	162	RC	0	1	23RO	1	0	1.30595517159	-292.0	-5.0	-285	-4	1
1.7	2015_Jul_23_1534	s	s	3	4	SIC	163	ABS	1	1	24MO	0	1	1.64224100113	None	None	None	None	1
1.7	2015_Jul_23_1534	s	s	3	4	SIC	164	ABS	2	0	24VC	0	1	0.623213768005	None	None	None	None	1
1.7	2015_Jul_23_1534	s	s	3	4	SIC	165	RC	0	2	23RD	1	0	1.04696297646	-221.0	-397.0	-230	-398	1
1.7	2015_Jul_23_1534	s	s	3	4	SIC	166	ABS	0	1	24RO	0	1	1.07043194771	None	None	None	None	1
1.7	2015_Jul_23_1534	s	s	3	4	SIC	167	RC	1	0	23MC	1	0	1.95062112808	479.0	-28.0	479	-23	1
1.7	2015_Jul_23_1534	s	s	3	4	SIC	168	ABS	0	2	24RD	0	1	0.611450910568	None	None	None	None	1
1.7	2015_Jul_23_1534	s	s	3	4	SIC	169	ABS	2	1	24VO	0	1	0.764474153519	None	None	None	None	1
1.7	2015_Jul_23_1534	s	s	3	4	SIC	170	RC	2	1	23VO	1	0	0.752669095993	364.0	312.0	371	318	1
1.7	2015_Jul_23_1534	s	s	3	4	SIC	171	ABS	2	2	24VD	0	1	0.560837030411	None	None	None	None	1
1.7	2015_Jul_23_1534	s	s	3	4	SIC	172	RC	1	1	23MO	1	0	0.960665941238	183.0	147.0	174	148	1
1.7	2015_Jul_23_1534	s	s	3	4	SIC	173	ABS	1	0	24MC	0	1	1.40910196304	None	None	None	None	1
1.7	2015_Jul_23_1534	s	s	3	4	SIC	174	ABS	1	2	24MD	0	1	0.890791893005	None	None	None	None	1
1.7	2015_Jul_23_1534	s	s	3	4	SIC	175	RC	1	2	23MD	1	0	3.49102592468	44.0	-257.0	49	-268	1
1.7	2015_Jul_23_1534	s	s	3	4	SIC	176	RC	2	0	23VC	1	0	3.34223294258	4.0	-127.0	8	-135	1
1.7	2015_Jul_23_1534	s	s	3	4	SIC	177	ABS	2	1	24VO	0	1	0.582212924957	None	None	None	None	1
1.7	2015_Jul_23_1534	s	s	3	4	SIC	178	RC	2	2	23VD	1	0	0.552571058273	-104.0	-258.0	-106	-255	1
1.7	2015_Jul_23_1534	s	s	3	4	SIC	179	ABS	1	0	24MC	0	1	1.29431796074	None	None	None	None	1
1.7	2015_Jul_23_1534	s	s	3	4	SIC	180	ABS	0	2	24RD	0	1	0.62322306633	None	None	None	None	1
1.7	2015_Jul_23_1534	s	s	3	4	SIC	181	ABS	0	1	24RO	0	1	2.58365797997	None	None	None	None	1
1.7	2015_Jul_23_1534	s	s	3	4	SIC	182	ABS	2	2	24VD	0	1	0.50555896759	None	None	None	None	1
1.7	2015_Jul_23_1534	s	s	3	4	SIC	183	RC	2	1	23VO	1	0	0.629195928574	-319.0	82.0	-315	78	1
1.7	2015_Jul_23_1534	s	s	3	4	SIC	184	RC	1	0	23MC	1	0	1.08222293854	425.0	-67.0	430	-71	1
1.7	2015_Jul_23_1534	s	s	3	4	SIC	185	ABS	1	2	24MD	0	1	0.947655916214	None	None	None	None	1
1.7	2015_Jul_23_1534	s	s	3	4	SIC	186	ABS	2	0	24VC	0	1	0.547771930695	None	None	None	None	1
1.7	2015_Jul_23_1534	s	s	3	4	SIC	187	RC	0	2	23RD	1	0	0.588142871857	463.0	-315.0	472	-317	1
1.7	2015_Jul_23_1534	s	s	3	4	SIC	188	RC	1	1	23MO	1	0	0.52907204628	-272.0	-42.0	-276	-42	1
1.7	2015_Jul_23_1534	s	s	3	4	SIC	189	ABS	1	1	24MO	0	1	1.7741818428	None	None	None	None	1
1.7	2015_Jul_23_1534	s	s	3	4	SIC	190	RC	2	0	23VC	1	0	0.482017040253	232.0	-211.0	233	-210	1
1.7	2015_Jul_23_1534	s	s	3	4	SIC	191	RC	1	2	23MD	1	0	0.446688175201	-219.0	213.0	-222	210	1
1.7	2015_Jul_23_1534	s	s	3	4	SIC	192	RC	0	1	23RO	1	0	1.90627503395	452.0	-398.0	449	-391	1
1.7	2015_Jul_23_1534	s	s	3	4	SIC	193	RC	2	0	23VC	1	0	0.453823804855	-476.0	-79.0	-473	-80	1
1.7	2015_Jul_23_1534	s	s	3	4	SIC	194	ABS	1	0	24MC	0	1	1.87696099281	None	None	None	None	1
1.7	2015_Jul_23_1534	s	s	3	4	SIC	195	ABS	1	1	24MO	0	1	2.48299503326	None	None	None	None	1
1.7	2015_Jul_23_1534	s	s	3	4	SIC	196	RC	2	1	23VO	1	0	0.7526679039	85.0	391.0	86	389	1
1.7	2015_Jul_23_1534	s	s	3	4	SIC	197	ABS	2	0	24VC	0	1	0.999886989594	None	None	None	None	1
1.7	2015_Jul_23_1534	s	s	3	4	SIC	198	ABS	1	2	24MD	0	1	0.882065057755	None	None	None	None	1
1.7	2015_Jul_23_1534	s	s	3	4	SIC	199	ABS	2	2	24VD	0	1	0.559365987778	None	None	None	None	1
1.7	2015_Jul_23_1534	s	s	3	4	SIC	200	RC	1	2	23MD	1	0	0.606821060181	101.0	-4.0	99	-9	1
1.7	2015_Jul_23_1534	s	s	3	4	SIC	201	ABS	0	2	24RD	0	1	1.57653999329	None	None	None	None	1
1.7	2015_Jul_23_1534	s	s	3	4	SIC	202	ABS	0	1	24RO	0	1	5.1782579422	None	None	None	None	1
1.7	2015_Jul_23_1534	s	s	3	4	SIC	203	ABS	2	1	24VO	0	1	0.564296007156	None	None	None	None	1
1.7	2015_Jul_23_1534	s	s	3	4	SIC	204	RC	2	2	23VD	1	0	0.724068880081	456.0	279.0	453	272	1
1.7	2015_Jul_23_1534	s	s	3	4	SIC	205	RC	1	1	23MO	1	0	1.08911800385	-386.0	-271.0	-384	-273	1
1.7	2015_Jul_23_1534	s	s	3	4	SIC	206	RC	0	2	23RD	1	0	0.529094934464	314.0	-109.0	315	-108	1
1.7	2015_Jul_23_1534	s	s	3	4	SIC	207	RC	0	1	23RO	1	0	2.49475288391	-281.0	-253.0	-276	-258	1
1.7	2015_Jul_23_1534	s	s	3	4	SIC	208	RC	1	0	23MC	1	0	1.21768808365	-99.0	-343.0	-91	-344	1
1.7	2015_Jul_23_1534	s	s	3	4	SIC	209	ABS	2	0	24VC	0	1	1.05374217033	None	None	None	None	1
1.7	2015_Jul_23_1534	s	s	3	4	SIC	210	RC	1	1	23MO	1	0	0.658713102341	-199.0	66.0	-199	59	1
1.7	2015_Jul_23_1534	s	s	3	4	SIC	211	RC	2	2	23VD	1	0	0.604946136475	167.0	-301.0	166	-303	1
1.7	2015_Jul_23_1534	s	s	3	4	SIC	212	RC	0	1	23RO	1	0	2.80757808685	-332.0	396.0	-324	391	1
1.7	2015_Jul_23_1534	s	s	3	4	SIC	213	RC	1	2	23MD	1	0	0.505362033844	-254.0	298.0	-246	299	1
1.7	2015_Jul_23_1534	s	s	3	4	SIC	214	ABS	0	1	24RO	0	1	4.07197999954	None	None	None	None	1
1.7	2015_Jul_23_1534	s	s	3	4	SIC	215	ABS	2	2	24VD	0	1	0.658501148224	None	None	None	None	1
1.7	2015_Jul_23_1534	s	s	3	4	SIC	216	ABS	1	0	24MC	0	1	2.78260684013	None	None	None	None	1
1.7	2015_Jul_23_1534	s	s	3	4	SIC	217	ABS	2	1	24VO	0	1	0.564383029938	None	None	None	None	1
1.7	2015_Jul_23_1534	s	s	3	4	SIC	218	ABS	1	1	24MO	0	1	1.75083804131	None	None	None	None	1
1.7	2015_Jul_23_1534	s	s	3	4	SIC	219	RC	1	0	23MC	1	0	0.783733844757	238.0	-229.0	239	-220	1
1.7	2015_Jul_23_1534	s	s	3	4	SIC	220	RC	2	0	23VC	1	0	0.941024065018	314.0	370.0	305	375	1
1.7	2015_Jul_23_1534	s	s	3	4	SIC	221	RC	0	2	23RD	1	0	0.634949922562	85.0	-184.0	85	-181	1
1.7	2015_Jul_23_1534	s	s	3	4	SIC	222	RC	2	1	23VO	1	0	0.512035131454	-151.0	311.0	-149	315	1
1.7	2015_Jul_23_1534	s	s	3	4	SIC	223	ABS	0	2	24RD	0	1	1.3647339344	None	None	None	None	1
1.7	2015_Jul_23_1534	s	s	3	4	SIC	224	ABS	1	2	24MD	0	1	0.761754989624	None	None	None	None	1
1.7	2015_Jul_23_1534	s	s	3	4	SIC	225	ABS	2	1	24VO	0	1	0.771619081497	None	None	None	None	1
1.7	2015_Jul_23_1534	s	s	3	4	SIC	226	RC	2	2	23VD	1	0	0.748597860336	-99.0	-387.0	-99	-398	1
1.7	2015_Jul_23_1534	s	s	3	4	SIC	227	RC	0	2	23RD	1	0	0.587716817856	469.0	385.0	470	386	1
1.7	2015_Jul_23_1534	s	s	3	4	SIC	228	RC	1	0	23MC	1	0	1.64105796814	-245.0	273.0	-251	270	1
1.7	2015_Jul_23_1534	s	s	3	4	SIC	229	RC	1	2	23MD	1	0	0.558685064316	163.0	226.0	160	225	1
1.7	2015_Jul_23_1534	s	s	3	4	SIC	230	ABS	1	1	24MO	0	1	1.8355178833	None	None	None	None	1
1.7	2015_Jul_23_1534	s	s	3	4	SIC	231	RC	0	1	23RO	1	0	2.93043017387	-499.0	-66.0	56	49	0
1.7	2015_Jul_23_1534	s	s	3	4	SIC	232	ABS	2	2	24VD	0	1	0.841140985489	None	None	None	None	1
1.7	2015_Jul_23_1534	s	s	3	4	SIC	233	ABS	2	0	24VC	0	1	0.552572965622	None	None	None	None	1
1.7	2015_Jul_23_1534	s	s	3	4	SIC	234	RC	2	1	23VO	1	0	0.712399959564	527.0	-128.0	526	-129	1
1.7	2015_Jul_23_1534	s	s	3	4	SIC	235	ABS	1	2	24MD	0	1	1.81207895279	None	None	None	None	1
1.7	2015_Jul_23_1534	s	s	3	4	SIC	236	ABS	0	1	24RO	0	1	2.96212792397	None	None	None	None	1
1.7	2015_Jul_23_1534	s	s	3	4	SIC	237	ABS	1	0	24MC	0	1	1.3529779911	None	None	None	None	1
1.7	2015_Jul_23_1534	s	s	3	4	SIC	238	RC	2	0	23VC	1	0	0.458490848541	-116.0	83.0	-118	83	1
1.7	2015_Jul_23_1534	s	s	3	4	SIC	239	ABS	0	2	24RD	0	1	0.687623977661	None	None	None	None	1
1.7	2015_Jul_23_1534	s	s	3	4	SIC	240	RC	1	1	23MO	1	0	0.596784830093	89.0	-52.0	86	-60	1
1.7	2015_Jul_23_1534	s	s	3	4	SIC	241	ABS	0	2	24RD	0	1	0.729256153107	None	None	None	None	1
1.7	2015_Jul_23_1534	s	s	3	4	SIC	242	RC	2	2	23VD	1	0	0.534358024597	-116.0	233.0	-116	225	1
1.7	2015_Jul_23_1534	s	s	3	4	SIC	243	RC	1	0	23MC	1	0	1.29448795319	2.0	-238.0	2	-234	1
1.7	2015_Jul_23_1534	s	s	3	4	SIC	244	ABS	2	0	24VC	0	1	0.594712018967	None	None	None	None	1
1.7	2015_Jul_23_1534	s	s	3	4	SIC	245	RC	2	1	23VO	1	0	0.606574058533	-306.0	330.0	-312	322	1
1.7	2015_Jul_23_1534	s	s	3	4	SIC	246	ABS	2	1	24VO	0	1	0.529095888138	None	None	None	None	1
1.7	2015_Jul_23_1534	s	s	3	4	SIC	247	ABS	0	1	24RO	0	1	1.83557605743	None	None	None	None	1
1.7	2015_Jul_23_1534	s	s	3	4	SIC	248	RC	1	1	23MO	1	0	1.30587100983	337.0	-323.0	345	-320	1
1.7	2015_Jul_23_1534	s	s	3	4	SIC	249	ABS	2	2	24VD	0	1	0.623680114746	None	None	None	None	1
1.7	2015_Jul_23_1534	s	s	3	4	SIC	250	RC	0	1	23RO	0	1	3.34223914146	528.0	-242.0	None	None	0
1.7	2015_Jul_23_1534	s	s	3	4	SIC	251	RC	2	0	23VC	1	0	0.729140043259	-293.0	-357.0	-288	-364	1
1.7	2015_Jul_23_1534	s	s	3	4	SIC	252	RC	0	2	23RD	1	0	8.94503998756	308.0	-76.0	303	-79	1
1.7	2015_Jul_23_1534	s	s	3	4	SIC	253	RC	1	2	23MD	1	0	0.529336929321	-7.0	-106.0	-2	-110	1
1.7	2015_Jul_23_1534	s	s	3	4	SIC	254	ABS	1	2	24MD	0	1	0.93794798851	None	None	None	None	1
1.7	2015_Jul_23_1534	s	s	3	4	SIC	255	ABS	1	0	24MC	0	1	2.36033511162	None	None	None	None	1
1.7	2015_Jul_23_1534	s	s	3	4	SIC	256	ABS	1	1	24MO	0	1	1.317964077	None	None	None	None	1
1.7	2015_Jul_23_1534	s	s	3	4	SIC	257	ABS	2	0	24VC	0	1	0.526394844055	None	None	None	None	1
1.7	2015_Jul_23_1534	s	s	3	4	SIC	258	RC	0	1	23RO	0	1	1.62003612518	-473.0	4.0	None	None	0
1.7	2015_Jul_23_1534	s	s	3	4	SIC	259	ABS	2	1	24VO	0	1	0.493759155273	None	None	None	None	1
1.7	2015_Jul_23_1534	s	s	3	4	SIC	260	ABS	1	0	24MC	0	1	1.84075307846	None	None	None	None	1
1.7	2015_Jul_23_1534	s	s	3	4	SIC	261	ABS	0	1	24RO	0	1	2.13350200653	None	None	None	None	1
1.7	2015_Jul_23_1534	s	s	3	4	SIC	262	ABS	0	2	24RD	0	1	1.01162791252	None	None	None	None	1
1.7	2015_Jul_23_1534	s	s	3	4	SIC	263	RC	1	2	23MD	1	0	0.63493013382	-247.0	-257.0	-241	-254	1
1.7	2015_Jul_23_1534	s	s	3	4	SIC	264	RC	2	1	23VO	1	0	7.20296192169	495.0	256.0	501	254	1
1.7	2015_Jul_23_1534	s	s	3	4	SIC	265	ABS	1	1	24MO	0	1	2.73698306084	None	None	None	None	1
1.7	2015_Jul_23_1534	s	s	3	4	SIC	266	ABS	2	2	24VD	0	1	0.606473922729	None	None	None	None	1
1.7	2015_Jul_23_1534	s	s	3	4	SIC	267	RC	2	0	23VC	1	0	0.61843419075	353.0	-29.0	355	-28	1
1.7	2015_Jul_23_1534	s	s	3	4	SIC	268	RC	2	2	23VD	1	0	0.502907991409	488.0	-201.0	489	-203	1
1.7	2015_Jul_23_1534	s	s	3	4	SIC	269	ABS	1	2	24MD	0	1	0.752717971802	None	None	None	None	1
1.7	2015_Jul_23_1534	s	s	3	4	SIC	270	RC	0	2	23RD	1	0	0.811576843262	-332.0	-247.0	-331	-239	1
1.7	2015_Jul_23_1534	s	s	3	4	SIC	271	RC	1	0	23MC	1	0	0.905720949173	114.0	-209.0	117	-208	1
1.7	2015_Jul_23_1534	s	s	3	4	SIC	272	RC	1	1	23MO	1	0	2.55081582069	-493.0	259.0	-486	256	1
1.7	2015_Jul_23_1534	s	s	3	4	SIC	273	ABS	1	0	24MC	0	1	1.91777300835	None	None	None	None	1
1.7	2015_Jul_23_1534	s	s	3	4	SIC	274	ABS	1	1	24MO	0	1	1.07786297798	None	None	None	None	1
1.7	2015_Jul_23_1534	s	s	3	4	SIC	275	RC	1	0	23MC	1	0	2.00642108917	324.0	-225.0	327	-233	1
1.7	2015_Jul_23_1534	s	s	3	4	SIC	276	ABS	1	2	24MD	0	1	0.631276845932	None	None	None	None	1
1.7	2015_Jul_23_1534	s	s	3	4	SIC	277	ABS	2	2	24VD	0	1	0.535778045654	None	None	None	None	1
1.7	2015_Jul_23_1534	s	s	3	4	SIC	278	ABS	0	2	24RD	0	1	0.58304309845	None	None	None	None	1
1.7	2015_Jul_23_1534	s	s	3	4	SIC	279	RC	0	2	23RD	1	0	0.71378493309	71.0	-181.0	72	-188	1
1.7	2015_Jul_23_1534	s	s	3	4	SIC	280	RC	0	1	23RO	1	0	2.65644311905	35.0	368.0	44	368	1
1.7	2015_Jul_23_1534	s	s	3	4	SIC	281	ABS	2	0	24VC	0	1	0.523015975952	None	None	None	None	1
1.7	2015_Jul_23_1534	s	s	3	4	SIC	282	ABS	2	1	24VO	0	1	0.470271110535	None	None	None	None	1
1.7	2015_Jul_23_1534	s	s	3	4	SIC	283	ABS	0	1	24RO	0	1	2.74786901474	None	None	None	None	1
1.7	2015_Jul_23_1534	s	s	3	4	SIC	284	RC	2	2	23VD	1	0	0.724175930023	-40.0	142.0	-35	140	1
1.7	2015_Jul_23_1534	s	s	3	4	SIC	285	RC	2	1	23VO	1	0	0.441750049591	144.0	340.0	147	331	1
1.7	2015_Jul_23_1534	s	s	3	4	SIC	286	RC	2	0	23VC	1	0	0.571078062057	-152.0	-184.0	-155	-192	1
1.7	2015_Jul_23_1534	s	s	3	4	SIC	287	RC	1	2	23MD	1	0	0.476855993271	146.0	253.0	147	251	1
1.7	2015_Jul_23_1534	s	s	3	4	SIC	288	RC	1	1	23MO	1	0	1.15282583237	300.0	-242.0	299	-248	1
1.7	2015_Jul_23_1534	s	s	3	4	SIC	289	ABS	1	0	24MC	0	1	1.85369610786	None	None	None	None	1
1.7	2015_Jul_23_1534	s	s	3	4	SIC	290	ABS	0	1	24RO	0	1	2.53015518188	None	None	None	None	1
1.7	2015_Jul_23_1534	s	s	3	4	SIC	291	RC	1	2	23MD	1	0	0.712253093719	-58.0	-86.0	-56	-85	1
1.7	2015_Jul_23_1534	s	s	3	4	SIC	292	RC	1	0	23MC	1	0	1.289041996	229.0	285.0	229	282	1
1.7	2015_Jul_23_1534	s	s	3	4	SIC	293	ABS	2	2	24VD	0	1	0.606304883957	None	None	None	None	1
1.7	2015_Jul_23_1534	s	s	3	4	SIC	294	ABS	2	0	24VC	0	1	0.434728860855	None	None	None	None	1
1.7	2015_Jul_23_1534	s	s	3	4	SIC	295	ABS	1	2	24MD	0	1	0.644043922424	None	None	None	None	1
1.7	2015_Jul_23_1534	s	s	3	4	SIC	296	RC	2	0	23VC	1	0	0.735877990723	66.0	345.0	60	341	1
1.7	2015_Jul_23_1534	s	s	3	4	SIC	297	RC	1	1	23MO	1	0	2.85966992378	463.0	58.0	455	58	1
1.7	2015_Jul_23_1534	s	s	3	4	SIC	298	RC	2	2	23VD	1	0	0.564334869385	125.0	-211.0	115	-204	1
1.7	2015_Jul_23_1534	s	s	3	4	SIC	299	RC	0	2	23RD	1	0	0.399497032166	4.0	170.0	6	161	1
1.7	2015_Jul_23_1534	s	s	3	4	SIC	300	ABS	0	2	24RD	0	1	0.97628903389	None	None	None	None	1
1.7	2015_Jul_23_1534	s	s	3	4	SIC	301	ABS	2	1	24VO	0	1	0.635035037994	None	None	None	None	1
1.7	2015_Jul_23_1534	s	s	3	4	SIC	302	RC	2	1	23VO	1	0	0.535641908646	427.0	197.0	431	194	1
1.7	2015_Jul_23_1534	s	s	3	4	SIC	303	ABS	1	1	24MO	0	1	3.10167884827	None	None	None	None	1
1.7	2015_Jul_23_1534	s	s	3	4	SIC	304	RC	0	1	23RO	0	1	1.31771492958	-122.0	-184.0	None	None	0
1.7	2015_Jul_23_1534	s	s	3	4	SIC	305	RC	2	0	23VC	1	0	0.458450078964	289.0	-226.0	289	-239	1
1.7	2015_Jul_23_1534	s	s	3	4	SIC	306	ABS	2	1	24VO	0	1	0.651053190231	None	None	None	None	1
1.7	2015_Jul_23_1534	s	s	3	4	SIC	307	RC	1	1	23MO	1	0	0.740895032883	535.0	47.0	531	44	1
1.7	2015_Jul_23_1534	s	s	3	4	SIC	308	RC	0	2	23RD	1	0	0.505531072617	347.0	-109.0	346	-111	1
1.7	2015_Jul_23_1534	s	s	3	4	SIC	309	ABS	0	2	24RD	0	1	0.736192941666	None	None	None	None	1
1.7	2015_Jul_23_1534	s	s	3	4	SIC	310	RC	2	1	23VO	1	0	0.587841033936	-233.0	317.0	-225	313	1
1.7	2015_Jul_23_1534	s	s	3	4	SIC	311	RC	2	2	23VD	1	0	0.411249876022	459.0	-221.0	458	-217	1
1.7	2015_Jul_23_1534	s	s	3	4	SIC	312	RC	1	0	23MC	1	0	3.2680850029	171.0	-377.0	170	-380	1
1.7	2015_Jul_23_1534	s	s	3	4	SIC	313	ABS	1	0	24MC	0	1	1.3530049324	None	None	None	None	1
1.7	2015_Jul_23_1534	s	s	3	4	SIC	314	ABS	1	1	24MO	0	1	1.85633301735	None	None	None	None	1
1.7	2015_Jul_23_1534	s	s	3	4	SIC	315	ABS	0	1	24RO	0	1	1.82380795479	None	None	None	None	1
1.7	2015_Jul_23_1534	s	s	3	4	SIC	316	RC	1	2	23MD	1	0	0.676932811737	-372.0	336.0	-364	336	1
1.7	2015_Jul_23_1534	s	s	3	4	SIC	317	ABS	2	2	24VD	0	1	0.529057979584	None	None	None	None	1
1.7	2015_Jul_23_1534	s	s	3	4	SIC	318	ABS	2	0	24VC	0	1	0.524166107178	None	None	None	None	1
1.7	2015_Jul_23_1534	s	s	3	4	SIC	319	ABS	1	2	24MD	0	1	0.588325977325	None	None	None	None	1
1.7	2015_Jul_23_1534	s	s	3	4	SIC	320	RC	0	1	23RO	1	0	1.3621301651	354.0	164.0	348	163	1
1.7	2015_Jul_23_1534	s	s	3	4	SIC	321	ABS	2	1	24VO	0	1	0.899870872498	None	None	None	None	1
1.7	2015_Jul_23_1534	s	s	3	4	SIC	322	RC	1	1	23MO	1	0	0.855612039566	94.0	-198.0	93	-208	1
1.7	2015_Jul_23_1534	s	s	3	4	SIC	323	RC	1	0	23MC	1	0	0.537601947784	62.0	-198.0	61	-200	1
1.7	2015_Jul_23_1534	s	s	3	4	SIC	324	ABS	1	0	24MC	0	1	2.63038086891	None	None	None	None	1
1.7	2015_Jul_23_1534	s	s	3	4	SIC	325	ABS	1	2	24MD	0	1	0.764477014542	None	None	None	None	1
1.7	2015_Jul_23_1534	s	s	3	4	SIC	326	ABS	0	1	24RO	0	1	2.01849913597	None	None	None	None	1
1.7	2015_Jul_23_1534	s	s	3	4	SIC	327	ABS	2	2	24VD	0	1	0.773360013962	None	None	None	None	1
1.7	2015_Jul_23_1534	s	s	3	4	SIC	328	RC	2	1	23VO	1	0	0.788034915924	-220.0	286.0	-215	279	1
1.7	2015_Jul_23_1534	s	s	3	4	SIC	329	RC	2	2	23VD	1	0	0.547147035599	-216.0	204.0	-213	204	1
1.7	2015_Jul_23_1534	s	s	3	4	SIC	330	ABS	1	1	24MO	0	1	2.0563750267	None	None	None	None	1
1.7	2015_Jul_23_1534	s	s	3	4	SIC	331	RC	2	0	23VC	1	0	0.477078914642	11.0	262.0	13	258	1
1.7	2015_Jul_23_1534	s	s	3	4	SIC	332	ABS	0	2	24RD	0	1	0.700482130051	None	None	None	None	1
1.7	2015_Jul_23_1534	s	s	3	4	SIC	333	ABS	2	0	24VC	0	1	0.618364095688	None	None	None	None	1
1.7	2015_Jul_23_1534	s	s	3	4	SIC	334	RC	0	2	23RD	1	0	0.608099937439	161.0	27.0	168	28	1
1.7	2015_Jul_23_1534	s	s	3	4	SIC	335	RC	0	1	23RO	1	0	1.59198522568	-367.0	315.0	-359	323	1
1.7	2015_Jul_23_1534	s	s	3	4	SIC	336	RC	1	2	23MD	1	0	0.540777921677	391.0	10.0	392	2	1
1.7	2015_Jul_23_1534	s	s	3	4	SIC	337	RC	1	2	23MD	1	0	0.42311501503	478.0	-60.0	480	-60	1
1.7	2015_Jul_23_1534	s	s	3	4	SIC	338	ABS	2	2	24VD	0	1	0.670290231705	None	None	None	None	1
1.7	2015_Jul_23_1534	s	s	3	4	SIC	339	ABS	2	0	24VC	0	1	0.764482021332	None	None	None	None	1
1.7	2015_Jul_23_1534	s	s	3	4	SIC	340	ABS	1	1	24MO	0	1	3.76599812508	None	None	None	None	1
1.7	2015_Jul_23_1534	s	s	3	4	SIC	341	ABS	2	1	24VO	0	1	0.587881088257	None	None	None	None	1
1.7	2015_Jul_23_1534	s	s	3	4	SIC	342	RC	2	0	23VC	1	0	0.58305978775	-5.0	301.0	-11	299	1
1.7	2015_Jul_23_1534	s	s	3	4	SIC	343	ABS	1	0	24MC	0	1	2.05919218063	None	None	None	None	1
1.7	2015_Jul_23_1534	s	s	3	4	SIC	344	ABS	0	2	24RD	0	1	0.690793037415	None	None	None	None	1
1.7	2015_Jul_23_1534	s	s	3	4	SIC	345	ABS	1	2	24MD	0	1	0.740794897079	None	None	None	None	1
1.7	2015_Jul_23_1534	s	s	3	4	SIC	346	RC	2	1	23VO	1	0	0.689146995544	241.0	387.0	240	380	1
1.7	2015_Jul_23_1534	s	s	3	4	SIC	347	RC	0	1	23RO	0	1	2.68308997154	72.0	34.0	None	None	0
1.7	2015_Jul_23_1534	s	s	3	4	SIC	348	RC	2	2	23VD	1	0	0.726109027863	-422.0	174.0	-421	175	1
1.7	2015_Jul_23_1534	s	s	3	4	SIC	349	RC	0	2	23RD	1	0	0.552546977997	191.0	-149.0	195	-150	1
1.7	2015_Jul_23_1534	s	s	3	4	SIC	350	RC	1	1	23MO	1	0	0.717341184616	-202.0	186.0	-200	184	1
1.7	2015_Jul_23_1534	s	s	3	4	SIC	351	ABS	0	1	24RO	0	1	2.98408293724	None	None	None	None	1
1.7	2015_Jul_23_1534	s	s	3	4	SIC	352	RC	1	0	23MC	1	0	1.19493794441	-263.0	60.0	-267	60	1
1.7	2015_Jul_23_1534	s	s	3	4	SIC	353	ABS	0	1	24RO	0	1	2.69480395317	None	None	None	None	1
1.7	2015_Jul_23_1534	s	s	3	4	SIC	354	ABS	1	2	24MD	0	1	0.604903936386	None	None	None	None	1
1.7	2015_Jul_23_1534	s	s	3	4	SIC	355	RC	2	2	23VD	1	0	0.759683132172	194.0	248.0	194	246	1
1.7	2015_Jul_23_1534	s	s	3	4	SIC	356	ABS	2	2	24VD	0	1	0.640292882919	None	None	None	None	1
1.7	2015_Jul_23_1534	s	s	3	4	SIC	357	ABS	1	0	24MC	0	1	0.988137960434	None	None	None	None	1
1.7	2015_Jul_23_1534	s	s	3	4	SIC	358	RC	0	2	23RD	1	0	1.03518891335	313.0	-197.0	308	-207	1
1.7	2015_Jul_23_1534	s	s	3	4	SIC	359	RC	0	1	23RO	1	0	2.21958804131	-440.0	186.0	-450	184	1
1.7	2015_Jul_23_1534	s	s	3	4	SIC	360	RC	2	0	23VC	1	0	0.615056037903	-472.0	404.0	-467	409	1
1.7	2015_Jul_23_1534	s	s	3	4	SIC	361	ABS	2	1	24VO	0	1	0.738397836685	None	None	None	None	1
1.7	2015_Jul_23_1534	s	s	3	4	SIC	362	RC	2	1	23VO	1	0	0.535630941391	-283.0	-266.0	-274	-265	1
1.7	2015_Jul_23_1534	s	s	3	4	SIC	363	RC	1	1	23MO	1	0	0.879398822784	479.0	-27.0	493	-22	1
1.7	2015_Jul_23_1534	s	s	3	4	SIC	364	RC	1	2	23MD	1	0	0.799806118011	538.0	109.0	537	108	1
1.7	2015_Jul_23_1534	s	s	3	4	SIC	365	RC	1	0	23MC	0	1	1.49424815178	376.0	41.0	None	None	0
1.7	2015_Jul_23_1534	s	s	3	4	SIC	366	ABS	2	0	24VC	0	1	0.51727104187	None	None	None	None	1
1.7	2015_Jul_23_1534	s	s	3	4	SIC	367	ABS	0	2	24RD	0	1	0.606302022934	None	None	None	None	1
1.7	2015_Jul_23_1534	s	s	3	4	SIC	368	ABS	1	1	24MO	0	1	1.23043513298	None	None	None	None	1
1.7	2015_Jul_23_1534	s	s	3	4	SIC	369	RC	1	1	23MO	1	0	1.17078495026	534.0	-190.0	537	-193	1
1.7	2015_Jul_23_1534	s	s	3	4	SIC	370	ABS	1	0	24MC	0	1	1.19292211533	None	None	None	None	1
1.7	2015_Jul_23_1534	s	s	3	4	SIC	371	RC	2	0	23VC	1	0	0.761528015137	428.0	301.0	426	301	1
1.7	2015_Jul_23_1534	s	s	3	4	SIC	372	ABS	2	0	24VC	0	1	0.576122999191	None	None	None	None	1
1.7	2015_Jul_23_1534	s	s	3	4	SIC	373	ABS	1	2	24MD	0	1	0.564404964447	None	None	None	None	1
1.7	2015_Jul_23_1534	s	s	3	4	SIC	374	RC	0	1	23RO	0	1	1.1371781826	-347.0	270.0	None	None	0
1.7	2015_Jul_23_1534	s	s	3	4	SIC	375	ABS	2	1	24VO	0	1	0.505527973175	None	None	None	None	1
1.7	2015_Jul_23_1534	s	s	3	4	SIC	376	ABS	0	1	24RO	0	1	1.31394195557	None	None	None	None	1
1.7	2015_Jul_23_1534	s	s	3	4	SIC	377	ABS	2	2	24VD	0	1	0.511214971542	None	None	None	None	1
1.7	2015_Jul_23_1534	s	s	3	4	SIC	378	RC	0	2	23RD	1	0	0.630065917969	276.0	-159.0	272	-163	1
1.7	2015_Jul_23_1534	s	s	3	4	SIC	379	ABS	0	2	24RD	0	1	1.35298895836	None	None	None	None	1
1.7	2015_Jul_23_1534	s	s	3	4	SIC	380	RC	2	1	23VO	1	0	0.5760409832	-367.0	-335.0	-363	-340	1
1.7	2015_Jul_23_1534	s	s	3	4	SIC	381	ABS	1	1	24MO	0	1	1.55312895775	None	None	None	None	1
1.7	2015_Jul_23_1534	s	s	3	4	SIC	382	RC	1	2	23MD	1	0	0.724079847336	-16.0	251.0	-23	254	1
1.7	2015_Jul_23_1534	s	s	3	4	SIC	383	RC	1	0	23MC	1	0	1.15289711952	-165.0	-83.0	-163	-90	1
1.7	2015_Jul_23_1534	s	s	3	4	SIC	384	RC	2	2	23VD	1	0	0.571030855179	10.0	394.0	17	398	1
1.7	2015_Jul_23_1534	s	s	3	4	SIC	385	RC	1	1	23MO	1	0	0.488356113434	-210.0	328.0	-206	337	1
1.7	2015_Jul_23_1534	s	s	3	4	SIC	386	RC	1	0	23MC	1	0	1.39646291733	-280.0	-173.0	-272	-169	1
1.7	2015_Jul_23_1534	s	s	3	4	SIC	387	ABS	0	2	24RD	0	1	0.794816017151	None	None	None	None	1
1.7	2015_Jul_23_1534	s	s	3	4	SIC	388	ABS	2	1	24VO	0	1	0.517157077789	None	None	None	None	1
1.7	2015_Jul_23_1534	s	s	3	4	SIC	389	ABS	2	0	24VC	0	1	0.477506160736	None	None	None	None	1
1.7	2015_Jul_23_1534	s	s	3	4	SIC	390	RC	0	1	23RO	1	0	1.5766479969	-362.0	23.0	-354	30	1
1.7	2015_Jul_23_1534	s	s	3	4	SIC	391	RC	1	2	23MD	1	0	0.540781021118	-294.0	-327.0	-286	-327	1
1.7	2015_Jul_23_1534	s	s	3	4	SIC	392	RC	2	2	23VD	1	0	0.467407941818	-358.0	48.0	-355	48	1
1.7	2015_Jul_23_1534	s	s	3	4	SIC	393	ABS	1	1	24MO	0	1	1.53625106812	None	None	None	None	1
1.7	2015_Jul_23_1534	s	s	3	4	SIC	394	ABS	1	0	24MC	0	1	1.71790504456	None	None	None	None	1
1.7	2015_Jul_23_1534	s	s	3	4	SIC	395	ABS	1	2	24MD	0	1	0.587909936905	None	None	None	None	1
1.7	2015_Jul_23_1534	s	s	3	4	SIC	396	RC	2	1	23VO	1	0	0.858659982681	-278.0	192.0	-277	194	1
1.7	2015_Jul_23_1534	s	s	3	4	SIC	397	ABS	2	2	24VD	0	1	0.77108001709	None	None	None	None	1
1.7	2015_Jul_23_1534	s	s	3	4	SIC	398	RC	2	0	23VC	1	0	0.717291116714	-419.0	156.0	-426	159	1
1.7	2015_Jul_23_1534	s	s	3	4	SIC	399	ABS	0	1	24RO	0	1	2.15078997612	None	None	None	None	1
1.7	2015_Jul_23_1534	s	s	3	4	SIC	400	RC	0	2	23RD	1	0	0.740913152695	-159.0	-309.0	-159	-313	1
1.7	2015_Jul_23_1534	s	s	3	4	SIC	401	ABS	2	0	24VC	0	1	0.582935094833	None	None	None	None	1
1.7	2015_Jul_23_1534	s	s	3	4	SIC	402	ABS	1	0	24MC	0	1	2.76920604706	None	None	None	None	1
1.7	2015_Jul_23_1534	s	s	3	4	SIC	403	ABS	0	2	24RD	0	1	0.579993009567	None	None	None	None	1
1.7	2015_Jul_23_1534	s	s	3	4	SIC	404	RC	2	1	23VO	1	0	0.571094989777	412.0	246.0	417	255	1
1.7	2015_Jul_23_1534	s	s	3	4	SIC	405	RC	2	2	23VD	1	0	0.482024908066	-269.0	-279.0	-271	-278	1
1.7	2015_Jul_23_1534	s	s	3	4	SIC	406	RC	1	1	23MO	1	0	1.30090999603	-260.0	197.0	-255	196	1
1.7	2015_Jul_23_1534	s	s	3	4	SIC	407	RC	0	1	23RO	0	1	2.26737594604	385.0	174.0	None	None	0
1.7	2015_Jul_23_1534	s	s	3	4	SIC	408	ABS	1	2	24MD	0	1	0.705626964569	None	None	None	None	1
1.7	2015_Jul_23_1534	s	s	3	4	SIC	409	ABS	2	1	24VO	0	1	0.458431005478	None	None	None	None	1
1.7	2015_Jul_23_1534	s	s	3	4	SIC	410	RC	0	2	23RD	1	0	0.723979949951	-532.0	334.0	-536	337	1
1.7	2015_Jul_23_1534	s	s	3	4	SIC	411	RC	1	0	23MC	0	1	1.98851704597	-448.0	-377.0	None	None	0
1.7	2015_Jul_23_1534	s	s	3	4	SIC	412	ABS	0	1	24RO	0	1	1.70104694366	None	None	None	None	1
1.7	2015_Jul_23_1534	s	s	3	4	SIC	413	ABS	1	1	24MO	0	1	1.12651705742	None	None	None	None	1
1.7	2015_Jul_23_1534	s	s	3	4	SIC	414	RC	1	2	23MD	1	0	0.688852071762	-243.0	198.0	-238	205	1
1.7	2015_Jul_23_1534	s	s	3	4	SIC	415	RC	2	0	23VC	1	0	0.540812969208	-173.0	-294.0	-170	-285	1
1.7	2015_Jul_23_1534	s	s	3	4	SIC	416	ABS	2	2	24VD	0	1	0.611382007599	None	None	None	None	1
1.7	2015_Jul_23_1534	s	s	3	4	SIC	417	RC	2	2	23VD	1	0	0.642078876495	20.0	-347.0	23	-342	1
1.7	2015_Jul_23_1534	s	s	3	4	SIC	418	RC	1	1	23MO	1	0	1.38341903687	141.0	139.0	150	137	1
1.7	2015_Jul_23_1534	s	s	3	4	SIC	419	ABS	1	1	24MO	0	1	1.26555514336	None	None	None	None	1
1.7	2015_Jul_23_1534	s	s	3	4	SIC	420	RC	0	2	23RD	1	0	0.7242000103	-152.0	239.0	-150	240	1
1.7	2015_Jul_23_1534	s	s	3	4	SIC	421	ABS	1	2	24MD	0	1	0.749932050705	None	None	None	None	1
1.7	2015_Jul_23_1534	s	s	3	4	SIC	422	ABS	2	1	24VO	0	1	0.523816108704	None	None	None	None	1
1.7	2015_Jul_23_1534	s	s	3	4	SIC	423	RC	2	0	23VC	1	0	0.552622079849	397.0	-184.0	397	-194	1
1.7	2015_Jul_23_1534	s	s	3	4	SIC	424	RC	0	1	23RO	1	0	1.30591917038	-267.0	-24.0	-271	-25	1
1.7	2015_Jul_23_1534	s	s	3	4	SIC	425	ABS	2	2	24VD	0	1	0.606415987015	None	None	None	None	1
1.7	2015_Jul_23_1534	s	s	3	4	SIC	426	ABS	1	0	24MC	0	1	1.60674595833	None	None	None	None	1
1.7	2015_Jul_23_1534	s	s	3	4	SIC	427	ABS	0	2	24RD	0	1	0.688838005066	None	None	None	None	1
1.7	2015_Jul_23_1534	s	s	3	4	SIC	428	RC	1	0	23MC	0	1	1.28966784477	-175.0	-205.0	None	None	0
1.7	2015_Jul_23_1534	s	s	3	4	SIC	429	RC	2	1	23VO	1	0	0.784665822983	529.0	80.0	535	81	1
1.7	2015_Jul_23_1534	s	s	3	4	SIC	430	ABS	2	0	24VC	0	1	0.611483097076	None	None	None	None	1
1.7	2015_Jul_23_1534	s	s	3	4	SIC	431	RC	1	2	23MD	1	0	0.712532043457	292.0	-141.0	282	-136	1
1.7	2015_Jul_23_1534	s	s	3	4	SIC	432	ABS	0	1	24RO	0	1	1.7532119751	None	None	None	None	1
1.7	2015_Jul_23_1534	s	s	3	4	SIC	433	ABS	2	0	24VC	0	1	0.500408172607	None	None	None	None	1
1.7	2015_Jul_23_1534	s	s	3	4	SIC	434	ABS	2	2	24VD	0	1	0.517280101776	None	None	None	None	1
1.7	2015_Jul_23_1534	s	s	3	4	SIC	435	RC	2	1	23VO	1	0	1.05061101913	-510.0	396.0	-516	390	1
1.7	2015_Jul_23_1534	s	s	3	4	SIC	436	ABS	1	1	24MO	0	1	1.86586403847	None	None	None	None	1
1.7	2015_Jul_23_1534	s	s	3	4	SIC	437	RC	0	2	23RD	1	0	0.552618980408	-45.0	-160.0	-41	-158	1
1.7	2015_Jul_23_1534	s	s	3	4	SIC	438	ABS	0	1	24RO	0	1	2.55365800858	None	None	None	None	1
1.7	2015_Jul_23_1534	s	s	3	4	SIC	439	RC	0	1	23RO	0	1	2.66619586945	-470.0	-387.0	None	None	0
1.7	2015_Jul_23_1534	s	s	3	4	SIC	440	RC	1	1	23MO	1	0	0.717401981354	-115.0	347.0	-117	348	1
1.7	2015_Jul_23_1534	s	s	3	4	SIC	441	RC	2	0	23VC	1	0	0.46649813652	224.0	200.0	222	197	1
1.7	2015_Jul_23_1534	s	s	3	4	SIC	442	ABS	0	2	24RD	0	1	0.724052906036	None	None	None	None	1
1.7	2015_Jul_23_1534	s	s	3	4	SIC	443	ABS	1	2	24MD	0	1	0.799695014954	None	None	None	None	1
1.7	2015_Jul_23_1534	s	s	3	4	SIC	444	ABS	1	0	24MC	0	1	1.80031108856	None	None	None	None	1
1.7	2015_Jul_23_1534	s	s	3	4	SIC	445	ABS	2	1	24VO	0	1	0.493730068207	None	None	None	None	1
1.7	2015_Jul_23_1534	s	s	3	4	SIC	446	RC	2	2	23VD	1	0	0.641647815704	-138.0	-86.0	-141	-83	1
1.7	2015_Jul_23_1534	s	s	3	4	SIC	447	RC	1	2	23MD	1	0	0.605398178101	14.0	-73.0	17	-70	1
1.7	2015_Jul_23_1534	s	s	3	4	SIC	448	RC	1	0	23MC	0	1	1.62380194664	-254.0	-89.0	None	None	0
1.7	2015_Jul_23_1534	s	s	3	4	SIC	449	RC	2	1	23VO	1	0	0.4651491642	18.0	46.0	20	40	1
1.7	2015_Jul_23_1534	s	s	3	4	SIC	450	RC	2	2	23VD	1	0	0.546853065491	113.0	6.0	116	7	1
1.7	2015_Jul_23_1534	s	s	3	4	SIC	451	ABS	2	2	24VD	0	1	0.529018163681	None	None	None	None	1
1.7	2015_Jul_23_1534	s	s	3	4	SIC	452	RC	0	2	23RD	1	0	0.788037061691	287.0	377.0	295	378	1
1.7	2015_Jul_23_1534	s	s	3	4	SIC	453	RC	1	0	23MC	1	0	1.52469301224	197.0	-176.0	200	-179	1
1.7	2015_Jul_23_1534	s	s	3	4	SIC	454	RC	1	1	23MO	1	0	0.867655038834	-205.0	-150.0	-203	-160	1
1.7	2015_Jul_23_1534	s	s	3	4	SIC	455	ABS	1	2	24MD	0	1	0.67032790184	None	None	None	None	1
1.7	2015_Jul_23_1534	s	s	3	4	SIC	456	ABS	0	1	24RO	0	1	1.96018099785	None	None	None	None	1
1.7	2015_Jul_23_1534	s	s	3	4	SIC	457	RC	2	0	23VC	1	0	0.517440080643	-243.0	-68.0	-232	-58	1
1.7	2015_Jul_23_1534	s	s	3	4	SIC	458	ABS	1	1	24MO	0	1	2.07784581184	None	None	None	None	1
1.7	2015_Jul_23_1534	s	s	3	4	SIC	459	RC	1	2	23MD	1	0	0.984305143356	-461.0	-349.0	-458	-347	1
1.7	2015_Jul_23_1534	s	s	3	4	SIC	460	RC	0	1	23RO	1	0	2.32728600502	460.0	-1.0	47	-55	0
1.7	2015_Jul_23_1534	s	s	3	4	SIC	461	ABS	2	0	24VC	0	1	0.635050058365	None	None	None	None	1
1.7	2015_Jul_23_1534	s	s	3	4	SIC	462	ABS	2	1	24VO	0	1	0.529088020325	None	None	None	None	1
1.7	2015_Jul_23_1534	s	s	3	4	SIC	463	ABS	1	0	24MC	0	1	0.712225914001	None	None	None	None	1
1.7	2015_Jul_23_1534	s	s	3	4	SIC	464	ABS	0	2	24RD	0	1	0.87037396431	None	None	None	None	1
1.7	2015_Jul_23_1534	s	s	3	4	SIC	465	RC	2	0	23VC	1	0	0.682090997696	-239.0	-144.0	-241	-135	1
1.7	2015_Jul_23_1534	s	s	3	4	SIC	466	ABS	1	0	24MC	0	1	1.72700119019	None	None	None	None	1
1.7	2015_Jul_23_1534	s	s	3	4	SIC	467	RC	0	1	23RO	1	0	1.52960085869	238.0	324.0	236	323	1
1.7	2015_Jul_23_1534	s	s	3	4	SIC	468	RC	0	2	23RD	1	0	0.747673034668	-449.0	368.0	-443	365	1
1.7	2015_Jul_23_1534	s	s	3	4	SIC	469	RC	1	2	23MD	1	0	0.643364906311	244.0	404.0	247	408	1
1.7	2015_Jul_23_1534	s	s	3	4	SIC	470	ABS	1	1	24MO	0	1	1.33615708351	None	None	None	None	1
1.7	2015_Jul_23_1534	s	s	3	4	SIC	471	ABS	2	2	24VD	0	1	0.517693042755	None	None	None	None	1
1.7	2015_Jul_23_1534	s	s	3	4	SIC	472	ABS	2	0	24VC	0	1	0.458436965942	None	None	None	None	1
1.7	2015_Jul_23_1534	s	s	3	4	SIC	473	ABS	0	1	24RO	0	1	1.97314214706	None	None	None	None	1
1.7	2015_Jul_23_1534	s	s	3	4	SIC	474	ABS	2	1	24VO	0	1	0.547680854797	None	None	None	None	1
1.7	2015_Jul_23_1534	s	s	3	4	SIC	475	RC	2	2	23VD	1	0	0.752725124359	532.0	339.0	537	332	1
1.7	2015_Jul_23_1534	s	s	3	4	SIC	476	ABS	0	2	24RD	0	1	0.912529945374	None	None	None	None	1
1.7	2015_Jul_23_1534	s	s	3	4	SIC	477	RC	1	0	23MC	0	1	1.84729290009	477.0	336.0	None	None	0
1.7	2015_Jul_23_1534	s	s	3	4	SIC	478	RC	2	1	23VO	1	0	0.912471055984	-421.0	-272.0	-418	-270	1
1.7	2015_Jul_23_1534	s	s	3	4	SIC	479	RC	1	1	23MO	1	0	1.45894002914	189.0	-245.0	192	-249	1
1.7	2015_Jul_23_1534	s	s	3	4	SIC	480	ABS	1	2	24MD	0	1	0.73539686203	None	None	None	None	1
1.7	2015_Jul_23_1534	s	s	3	4	SIC	481	RC	2	0	23VC	1	0	0.587939023972	408.0	-210.0	406	-209	1
1.7	2015_Jul_23_1534	s	s	3	4	SIC	482	RC	2	2	23VD	1	0	0.429841995239	-290.0	151.0	-290	143	1
1.7	2015_Jul_23_1534	s	s	3	4	SIC	483	ABS	0	1	24RO	0	1	3.00689387321	None	None	None	None	1
1.7	2015_Jul_23_1534	s	s	3	4	SIC	484	RC	2	1	23VO	1	0	0.493754863739	-330.0	174.0	-324	172	1
1.7	2015_Jul_23_1534	s	s	3	4	SIC	485	ABS	1	0	24MC	0	1	2.37709712982	None	None	None	None	1
1.7	2015_Jul_23_1534	s	s	3	4	SIC	486	RC	1	0	23MC	1	0	0.882097005844	-166.0	-39.0	-161	-39	1
1.7	2015_Jul_23_1534	s	s	3	4	SIC	487	ABS	0	2	24RD	0	1	0.811523914337	None	None	None	None	1
1.7	2015_Jul_23_1534	s	s	3	4	SIC	488	ABS	1	1	24MO	0	1	1.17633795738	None	None	None	None	1
1.7	2015_Jul_23_1534	s	s	3	4	SIC	489	ABS	1	2	24MD	0	1	0.524034976959	None	None	None	None	1
1.7	2015_Jul_23_1534	s	s	3	4	SIC	490	RC	0	1	23RO	1	0	1.54128193855	302.0	-137.0	305	-140	1
1.7	2015_Jul_23_1534	s	s	3	4	SIC	491	ABS	2	2	24VD	0	1	0.505410909653	None	None	None	None	1
1.7	2015_Jul_23_1534	s	s	3	4	SIC	492	RC	1	2	23MD	1	0	0.63187789917	-12.0	379.0	-5	375	1
1.7	2015_Jul_23_1534	s	s	3	4	SIC	493	RC	1	1	23MO	1	0	0.712137937546	-308.0	350.0	-307	343	1
1.7	2015_Jul_23_1534	s	s	3	4	SIC	494	ABS	2	0	24VC	0	1	0.564381122589	None	None	None	None	1
1.7	2015_Jul_23_1534	s	s	3	4	SIC	495	RC	0	2	23RD	1	0	0.678973913193	375.0	49.0	382	50	1
1.7	2015_Jul_23_1534	s	s	3	4	SIC	496	ABS	2	1	24VO	0	1	0.623206853867	None	None	None	None	1
1.7	2015_Jul_23_1534	s	s	3	4	SIC	497	RC	0	2	23RD	1	0	0.835042953491	-401.0	202.0	-401	202	1
1.7	2015_Jul_23_1534	s	s	3	4	SIC	498	RC	1	0	23MC	1	0	0.658475160599	134.0	-71.0	139	-74	1
1.7	2015_Jul_23_1534	s	s	3	4	SIC	499	RC	1	1	23MO	1	0	1.07929611206	500.0	-179.0	496	-177	1
1.7	2015_Jul_23_1534	s	s	3	4	SIC	500	ABS	1	0	24MC	0	1	2.00607299805	None	None	None	None	1
1.7	2015_Jul_23_1534	s	s	3	4	SIC	501	RC	1	2	23MD	1	0	0.517283916473	-77.0	231.0	-78	230	1
1.7	2015_Jul_23_1534	s	s	3	4	SIC	502	ABS	1	2	24MD	0	1	0.641767978668	None	None	None	None	1
1.7	2015_Jul_23_1534	s	s	3	4	SIC	503	ABS	2	1	24VO	0	1	0.549278020859	None	None	None	None	1
1.7	2015_Jul_23_1534	s	s	3	4	SIC	504	RC	2	1	23VO	1	0	0.620905160904	286.0	198.0	286	196	1
1.7	2015_Jul_23_1534	s	s	3	4	SIC	505	ABS	2	2	24VD	0	1	0.726382017136	None	None	None	None	1
1.7	2015_Jul_23_1534	s	s	3	4	SIC	506	RC	0	1	23RO	1	0	1.65902996063	139.0	-11.0	130	-11	1
1.7	2015_Jul_23_1534	s	s	3	4	SIC	507	ABS	0	2	24RD	0	1	0.599837064743	None	None	None	None	1
1.7	2015_Jul_23_1534	s	s	3	4	SIC	508	RC	2	0	23VC	1	0	0.51734995842	128.0	118.0	132	114	1
1.7	2015_Jul_23_1534	s	s	3	4	SIC	509	ABS	2	0	24VC	0	1	0.687917947769	None	None	None	None	1
1.7	2015_Jul_23_1534	s	s	3	4	SIC	510	ABS	1	1	24MO	0	1	2.66622304916	None	None	None	None	1
1.7	2015_Jul_23_1534	s	s	3	4	SIC	511	ABS	0	1	24RO	0	1	1.78578400612	None	None	None	None	1
1.7	2015_Jul_23_1534	s	s	3	4	SIC	512	RC	2	2	23VD	1	0	0.764482021332	-188.0	-102.0	-183	-102	1
1.7	2015_Jul_23_1534	s	s	3	4	SIC	513	ABS	2	2	24VD	0	1	0.753085851669	None	None	None	None	1
1.7	2015_Jul_23_1534	s	s	3	4	SIC	514	ABS	2	0	24VC	0	1	0.524991989136	None	None	None	None	1
1.7	2015_Jul_23_1534	s	s	3	4	SIC	515	RC	2	0	23VC	1	0	0.623215913773	-47.0	174.0	-51	168	1
1.7	2015_Jul_23_1534	s	s	3	4	SIC	516	RC	1	2	23MD	1	0	0.525353908539	44.0	247.0	46	237	1
1.7	2015_Jul_23_1534	s	s	3	4	SIC	517	RC	2	2	23VD	1	0	0.599824905396	245.0	38.0	236	42	1
1.7	2015_Jul_23_1534	s	s	3	4	SIC	518	RC	1	0	23MC	1	0	1.38828086853	533.0	64.0	542	65	1
1.7	2015_Jul_23_1534	s	s	3	4	SIC	519	RC	1	1	23MO	1	0	1.27893400192	16.0	150.0	10	148	1
1.7	2015_Jul_23_1534	s	s	3	4	SIC	520	RC	0	2	23RD	1	0	0.736036062241	-497.0	257.0	-499	262	1
1.7	2015_Jul_23_1534	s	s	3	4	SIC	521	ABS	1	0	24MC	0	1	1.11753106117	None	None	None	None	1
1.7	2015_Jul_23_1534	s	s	3	4	SIC	522	ABS	0	1	24RO	0	1	1.61900615692	None	None	None	None	1
1.7	2015_Jul_23_1534	s	s	3	4	SIC	523	ABS	0	2	24RD	0	1	0.611430883408	None	None	None	None	1
1.7	2015_Jul_23_1534	s	s	3	4	SIC	524	RC	2	1	23VO	1	0	0.564329147339	-71.0	264.0	-74	264	1
1.7	2015_Jul_23_1534	s	s	3	4	SIC	525	ABS	1	2	24MD	0	1	0.81919002533	None	None	None	None	1
1.7	2015_Jul_23_1534	s	s	3	4	SIC	526	ABS	1	1	24MO	0	1	1.28232002258	None	None	None	None	1
1.7	2015_Jul_23_1534	s	s	3	4	SIC	527	RC	0	1	23RO	0	1	1.64331483841	207.0	157.0	None	None	0
1.7	2015_Jul_23_1534	s	s	3	4	SIC	528	ABS	2	1	24VO	0	1	0.523779153824	None	None	None	None	1
1.7	2015_Jul_23_1534	s	s	3	4	SIC	529	RC	1	2	23MD	1	0	0.701151847839	-467.0	216.0	-470	221	1
1.7	2015_Jul_23_1534	s	s	3	4	SIC	530	ABS	2	0	24VC	0	1	0.571098804474	None	None	None	None	1
1.7	2015_Jul_23_1534	s	s	3	4	SIC	531	ABS	2	1	24VO	0	1	0.724265813828	None	None	None	None	1
1.7	2015_Jul_23_1534	s	s	3	4	SIC	532	RC	1	1	23MO	1	0	1.2234480381	64.0	17.0	68	13	1
1.7	2015_Jul_23_1534	s	s	3	4	SIC	533	ABS	1	1	24MO	0	1	2.93897986412	None	None	None	None	1
1.7	2015_Jul_23_1534	s	s	3	4	SIC	534	ABS	1	2	24MD	0	1	0.579745054245	None	None	None	None	1
1.7	2015_Jul_23_1534	s	s	3	4	SIC	535	RC	0	2	23RD	1	0	0.771530866623	3.0	-205.0	13	-201	1
1.7	2015_Jul_23_1534	s	s	3	4	SIC	536	ABS	1	0	24MC	0	1	1.30109906197	None	None	None	None	1
1.7	2015_Jul_23_1534	s	s	3	4	SIC	537	RC	0	1	23RO	0	1	1.61198401451	-25.0	-333.0	None	None	0
1.7	2015_Jul_23_1534	s	s	3	4	SIC	538	RC	2	2	23VD	1	0	0.52413392067	-402.0	204.0	-397	205	1
1.7	2015_Jul_23_1534	s	s	3	4	SIC	539	ABS	0	1	24RO	0	1	2.94807600975	None	None	None	None	1
1.7	2015_Jul_23_1534	s	s	3	4	SIC	540	RC	2	0	23VC	1	0	0.688863039017	473.0	-288.0	469	-286	1
1.7	2015_Jul_23_1534	s	s	3	4	SIC	541	RC	1	0	23MC	1	0	1.92976593971	-394.0	268.0	-388	261	1
1.7	2015_Jul_23_1534	s	s	3	4	SIC	542	RC	2	1	23VO	1	0	0.488650083542	118.0	-24.0	118	-28	1
1.7	2015_Jul_23_1534	s	s	3	4	SIC	543	ABS	2	2	24VD	0	1	0.717248916626	None	None	None	None	1
1.7	2015_Jul_23_1534	s	s	3	4	SIC	544	ABS	0	2	24RD	0	1	0.582193851471	None	None	None	None	1
1.7	2015_Jul_23_1534	s	s	3	4	SIC	545	RC	1	2	23MD	1	0	0.623200893402	178.0	174.0	175	170	1
1.7	2015_Jul_23_1534	s	s	3	4	SIC	546	RC	0	1	23RO	1	0	1.23530507088	-262.0	-102.0	-264	-98	1
1.7	2015_Jul_23_1534	s	s	3	4	SIC	547	ABS	2	2	24VD	0	1	0.546120166779	None	None	None	None	1
1.7	2015_Jul_23_1534	s	s	3	4	SIC	548	RC	2	1	23VO	1	0	0.693854808807	154.0	362.0	157	360	1
1.7	2015_Jul_23_1534	s	s	3	4	SIC	549	RC	0	2	23RD	1	0	0.488651037216	325.0	30.0	314	33	1
1.7	2015_Jul_23_1534	s	s	3	4	SIC	550	ABS	2	0	24VC	0	1	0.571119070053	None	None	None	None	1
1.7	2015_Jul_23_1534	s	s	3	4	SIC	551	ABS	0	2	24RD	0	1	0.540832996368	None	None	None	None	1
1.7	2015_Jul_23_1534	s	s	3	4	SIC	552	RC	2	2	23VD	1	0	0.623559951782	289.0	-121.0	293	-134	1
1.7	2015_Jul_23_1534	s	s	3	4	SIC	553	ABS	1	0	24MC	0	1	1.14103412628	None	None	None	None	1
1.7	2015_Jul_23_1534	s	s	3	4	SIC	554	ABS	0	1	24RO	0	1	1.45902204514	None	None	None	None	1
1.7	2015_Jul_23_1534	s	s	3	4	SIC	555	RC	2	0	23VC	1	0	0.517261981964	-173.0	228.0	-176	223	1
1.7	2015_Jul_23_1534	s	s	3	4	SIC	556	RC	1	0	23MC	0	1	1.02341413498	-424.0	315.0	None	None	0
1.7	2015_Jul_23_1534	s	s	3	4	SIC	557	ABS	1	1	24MO	0	1	1.01159715652	None	None	None	None	1
1.7	2015_Jul_23_1534	s	s	3	4	SIC	558	ABS	1	2	24MD	0	1	0.54731297493	None	None	None	None	1
1.7	2015_Jul_23_1534	s	s	3	4	SIC	559	RC	1	1	23MO	1	0	1.33649396896	-61.0	-397.0	-58	-397	1
1.7	2015_Jul_23_1534	s	s	3	4	SIC	560	ABS	2	1	24VO	0	1	0.540779829025	None	None	None	None	1
1.7	2015_Jul_23_1534	s	s	3	4	SIC	561	RC	1	1	23MO	1	0	1.32444000244	274.0	-276.0	281	-282	1
1.7	2015_Jul_23_1534	s	s	3	4	SIC	562	ABS	1	0	24MC	0	1	1.43541502953	None	None	None	None	1
1.7	2015_Jul_23_1534	s	s	3	4	SIC	563	ABS	1	2	24MD	0	1	0.60630607605	None	None	None	None	1
1.7	2015_Jul_23_1534	s	s	3	4	SIC	564	ABS	2	2	24VD	0	1	0.493663072586	None	None	None	None	1
1.7	2015_Jul_23_1534	s	s	3	4	SIC	565	RC	0	2	23RD	1	0	0.983179092407	-415.0	-412.0	-414	-404	1
1.7	2015_Jul_23_1534	s	s	3	4	SIC	566	RC	2	2	23VD	1	0	0.488626003265	247.0	230.0	250	229	1
1.7	2015_Jul_23_1534	s	s	3	4	SIC	567	ABS	2	0	24VC	0	1	0.623212099075	None	None	None	None	1
1.7	2015_Jul_23_1534	s	s	3	4	SIC	568	RC	1	0	23MC	0	1	1.85909795761	437.0	-274.0	None	None	0
1.7	2015_Jul_23_1534	s	s	3	4	SIC	569	RC	0	1	23RO	1	0	1.38834095001	187.0	179.0	182	177	1
1.7	2015_Jul_23_1534	s	s	3	4	SIC	570	ABS	2	1	24VO	0	1	0.581921100616	None	None	None	None	1
1.7	2015_Jul_23_1534	s	s	3	4	SIC	571	RC	2	1	23VO	1	0	0.641404867172	-49.0	-87.0	-56	-89	1
1.7	2015_Jul_23_1534	s	s	3	4	SIC	572	ABS	0	2	24RD	0	1	0.564368963242	None	None	None	None	1
1.7	2015_Jul_23_1534	s	s	3	4	SIC	573	ABS	1	1	24MO	0	1	1.10197997093	None	None	None	None	1
1.7	2015_Jul_23_1534	s	s	3	4	SIC	574	RC	1	2	23MD	1	0	0.78444814682	-170.0	132.0	-159	132	1
1.7	2015_Jul_23_1534	s	s	3	4	SIC	575	ABS	0	1	24RO	0	1	2.36543679237	None	None	None	None	1
1.7	2015_Jul_23_1534	s	s	3	4	SIC	576	RC	2	0	23VC	1	0	0.535726070404	-464.0	-144.0	-457	-146	1
1.7	2015_Jul_23_1534	s	s	3	4	SIC	577	ABS	0	2	24RD	0	1	0.700407028198	None	None	None	None	1
1.7	2015_Jul_23_1534	s	s	3	4	SIC	578	ABS	2	1	24VO	0	1	0.740911960602	None	None	None	None	1
1.7	2015_Jul_23_1534	s	s	3	4	SIC	579	ABS	0	1	24RO	0	1	1.86766314507	None	None	None	None	1
1.7	2015_Jul_23_1534	s	s	3	4	SIC	580	RC	2	0	23VC	1	0	0.782324075699	62.0	-395.0	57	-401	1
1.7	2015_Jul_23_1534	s	s	3	4	SIC	581	ABS	2	0	24VC	0	1	0.57089304924	None	None	None	None	1
1.7	2015_Jul_23_1534	s	s	3	4	SIC	582	ABS	1	1	24MO	0	1	1.21171307564	None	None	None	None	1
1.7	2015_Jul_23_1534	s	s	3	4	SIC	583	RC	0	1	23RO	0	1	2.39549398422	-365.0	-194.0	None	None	0
1.7	2015_Jul_23_1534	s	s	3	4	SIC	584	RC	0	2	23RD	1	0	0.929201841354	117.0	56.0	122	61	1
1.7	2015_Jul_23_1534	s	s	3	4	SIC	585	RC	2	2	23VD	1	0	0.935883998871	-318.0	373.0	-318	365	1
1.7	2015_Jul_23_1534	s	s	3	4	SIC	586	ABS	1	2	24MD	0	1	1.51264405251	None	None	None	None	1
1.7	2015_Jul_23_1534	s	s	3	4	SIC	587	RC	1	0	23MC	1	0	1.03001594543	183.0	45.0	193	45	1
1.7	2015_Jul_23_1534	s	s	3	4	SIC	588	RC	1	2	23MD	1	0	0.493744850159	31.0	-10.0	34	-20	1
1.7	2015_Jul_23_1534	s	s	3	4	SIC	589	ABS	1	0	24MC	0	1	2.58620786667	None	None	None	None	1
1.7	2015_Jul_23_1534	s	s	3	4	SIC	590	RC	1	1	23MO	1	0	0.52407002449	-209.0	-2.0	-211	-6	1
1.7	2015_Jul_23_1534	s	s	3	4	SIC	591	RC	2	1	23VO	1	0	0.587833881378	-357.0	373.0	-355	372	1
1.7	2015_Jul_23_1534	s	s	3	4	SIC	592	ABS	2	2	24VD	0	1	0.606220006943	None	None	None	None	1
