Version	Date	Stimuli	Method	Subject	Session	Condition	Trial	Target	Channel1	Channel2	Distractors	LMouseButton	RMouseButton	RT	TargetX	TargetY	ResponseX	ResponseY	Correct
1.7	2015_Jul_20_1613	s	s	3	1	Capacity	1	RC	1	0	23MC	1	0	3.36116313934	448.0	-238.0	452	-229	1
1.7	2015_Jul_20_1613	s	s	3	1	Capacity	2	ABS	2	0	24VC	0	1	1.94130015373	None	None	None	None	1
1.7	2015_Jul_20_1613	s	s	3	1	Capacity	3	RC	2	0	23VC	1	0	3.83652496338	228.0	222.0	226	215	1
1.7	2015_Jul_20_1613	s	s	3	1	Capacity	4	ABS	1	0	24MC	0	1	1.89448714256	None	None	None	None	1
1.7	2015_Jul_20_1613	s	s	3	1	Capacity	5	ABS	2	0	24VC	0	1	1.36467003822	None	None	None	None	1
1.7	2015_Jul_20_1613	s	s	3	1	Capacity	6	ABS	1	0	24MC	0	1	1.76504683495	None	None	None	None	1
1.7	2015_Jul_20_1613	s	s	3	1	Capacity	7	RC	2	0	23VC	1	0	1.4185731411	-1.0	7.0	0	0	1
1.7	2015_Jul_20_1613	s	s	3	1	Capacity	8	RC	1	0	23MC	1	0	3.13032793999	473.0	371.0	468	368	1
1.7	2015_Jul_20_1613	s	s	3	1	Capacity	9	RC	2	0	23VC	1	0	1.57164096832	483.0	-331.0	475	-329	1
1.7	2015_Jul_20_1613	s	s	3	1	Capacity	10	RC	1	0	23MC	1	0	1.41906785965	81.0	-383.0	81	-385	1
1.7	2015_Jul_20_1613	s	s	3	1	Capacity	11	ABS	1	0	24MC	0	1	1.58353209496	None	None	None	None	1
1.7	2015_Jul_20_1613	s	s	3	1	Capacity	12	ABS	2	0	24VC	0	1	1.15292692184	None	None	None	None	1
1.7	2015_Jul_20_1613	s	s	3	1	Capacity	13	ABS	1	0	24MC	0	1	1.5482070446	None	None	None	None	1
1.7	2015_Jul_20_1613	s	s	3	1	Capacity	14	RC	2	0	23VC	1	0	1.14105701447	532.0	-119.0	539	-126	1
1.7	2015_Jul_20_1613	s	s	3	1	Capacity	15	RC	1	0	23MC	1	0	2.34167790413	-75.0	135.0	-64	142	1
1.7	2015_Jul_20_1613	s	s	3	1	Capacity	16	ABS	2	0	24VC	0	1	1.23053789139	None	None	None	None	1
1.7	2015_Jul_20_1613	s	s	3	1	Capacity	17	RC	2	0	23VC	1	0	1.10587596893	-185.0	-182.0	-184	-183	1
1.7	2015_Jul_20_1613	s	s	3	1	Capacity	18	ABS	2	0	24VC	0	1	1.01165294647	None	None	None	None	1
1.7	2015_Jul_20_1613	s	s	3	1	Capacity	19	ABS	1	0	24MC	0	1	1.9649848938	None	None	None	None	1
1.7	2015_Jul_20_1613	s	s	3	1	Capacity	20	RC	1	0	23MC	1	0	1.52965688705	145.0	-1.0	140	2	1
1.7	2015_Jul_20_1613	s	s	3	1	Capacity	21	RC	1	0	23MC	1	0	1.60617303848	90.0	-153.0	93	-154	1
1.7	2015_Jul_20_1613	s	s	3	1	Capacity	22	RC	2	0	23VC	1	0	1.01153111458	208.0	43.0	212	46	1
1.7	2015_Jul_20_1613	s	s	3	1	Capacity	23	ABS	1	0	24MC	0	1	1.59510016441	None	None	None	None	1
1.7	2015_Jul_20_1613	s	s	3	1	Capacity	24	ABS	2	0	24VC	0	1	0.950278997421	None	None	None	None	1
1.7	2015_Jul_20_1613	s	s	3	1	Capacity	25	ABS	1	0	24MC	0	1	1.59460115433	None	None	None	None	1
1.7	2015_Jul_20_1613	s	s	3	1	Capacity	26	RC	1	0	23MC	1	0	1.2587928772	386.0	-168.0	379	-165	1
1.7	2015_Jul_20_1613	s	s	3	1	Capacity	27	RC	2	0	23VC	1	0	1.32943892479	144.0	-384.0	143	-389	1
1.7	2015_Jul_20_1613	s	s	3	1	Capacity	28	ABS	2	0	24VC	0	1	1.29414510727	None	None	None	None	1
1.7	2015_Jul_20_1613	s	s	3	1	Capacity	29	ABS	2	0	24VC	0	1	1.52957105637	None	None	None	None	1
1.7	2015_Jul_20_1613	s	s	3	1	Capacity	30	RC	1	0	23MC	1	0	1.44374895096	42.0	-309.0	51	-307	1
1.7	2015_Jul_20_1613	s	s	3	1	Capacity	31	RC	2	0	23VC	1	0	1.29398298264	88.0	56.0	88	55	1
1.7	2015_Jul_20_1613	s	s	3	1	Capacity	32	ABS	1	0	24MC	0	1	2.68994402885	None	None	None	None	1
1.7	2015_Jul_20_1613	s	s	3	1	Capacity	33	RC	1	0	23MC	1	0	2.11348104477	200.0	232.0	195	227	1
1.7	2015_Jul_20_1613	s	s	3	1	Capacity	34	ABS	1	0	24MC	0	1	2.20728516579	None	None	None	None	1
1.7	2015_Jul_20_1613	s	s	3	1	Capacity	35	RC	2	0	23VC	1	0	1.5530500412	-466.0	371.0	-461	369	1
1.7	2015_Jul_20_1613	s	s	3	1	Capacity	36	ABS	2	0	24VC	0	1	1.1175391674	None	None	None	None	1
1.7	2015_Jul_20_1613	s	s	3	1	Capacity	37	ABS	2	0	24VC	0	1	1.0774731636	None	None	None	None	1
1.7	2015_Jul_20_1613	s	s	3	1	Capacity	38	RC	2	0	23VC	1	0	1.02340602875	119.0	378.0	123	380	1
1.7	2015_Jul_20_1613	s	s	3	1	Capacity	39	ABS	1	0	24MC	0	1	2.6658809185	None	None	None	None	1
1.7	2015_Jul_20_1613	s	s	3	1	Capacity	40	RC	1	0	23MC	1	0	2.88315010071	443.0	-399.0	453	-396	1
1.7	2015_Jul_20_1613	s	s	3	1	Capacity	41	ABS	2	0	24VC	0	1	1.56483101845	None	None	None	None	1
1.7	2015_Jul_20_1613	s	s	3	1	Capacity	42	RC	2	0	23VC	1	0	1.47780680656	205.0	-323.0	196	-320	1
1.7	2015_Jul_20_1613	s	s	3	1	Capacity	43	ABS	1	0	24MC	0	1	3.24803304672	None	None	None	None	1
1.7	2015_Jul_20_1613	s	s	3	1	Capacity	44	RC	1	0	23MC	1	0	1.61895298958	-68.0	-65.0	-68	-70	1
1.7	2015_Jul_20_1613	s	s	3	1	Capacity	45	ABS	1	0	24MC	0	1	2.88998508453	None	None	None	None	1
1.7	2015_Jul_20_1613	s	s	3	1	Capacity	46	ABS	2	0	24VC	0	1	0.761938810349	None	None	None	None	1
1.7	2015_Jul_20_1613	s	s	3	1	Capacity	47	RC	2	0	23VC	1	0	0.994817972183	-305.0	286.0	-313	284	1
1.7	2015_Jul_20_1613	s	s	3	1	Capacity	48	RC	1	0	23MC	1	0	1.28886198997	-495.0	137.0	-487	135	1
1.7	2015_Jul_20_1613	s	s	3	1	Capacity	49	ABS	2	0	24VC	0	1	1.32715296745	None	None	None	None	1
1.7	2015_Jul_20_1613	s	s	3	1	Capacity	50	RC	2	0	23VC	1	0	1.86530089378	169.0	-266.0	177	-265	1
1.7	2015_Jul_20_1613	s	s	3	1	Capacity	51	ABS	1	0	24MC	0	1	2.76293301582	None	None	None	None	1
1.7	2015_Jul_20_1613	s	s	3	1	Capacity	52	RC	1	0	23MC	1	0	1.40815091133	206.0	-357.0	201	-365	1
1.7	2015_Jul_20_1613	s	s	3	1	Capacity	53	ABS	1	0	24MC	0	1	2.84283804893	None	None	None	None	1
1.7	2015_Jul_20_1613	s	s	3	1	Capacity	54	RC	1	0	23MC	1	0	1.1413538456	-90.0	-151.0	-88	-155	1
1.7	2015_Jul_20_1613	s	s	3	1	Capacity	55	RC	2	0	23VC	1	0	1.33616995811	-168.0	115.0	-163	119	1
1.7	2015_Jul_20_1613	s	s	3	1	Capacity	56	ABS	2	0	24VC	0	1	1.11756396294	None	None	None	None	1
1.7	2015_Jul_20_1613	s	s	3	1	Capacity	57	ABS	2	0	24VC	0	1	0.73601102829	None	None	None	None	1
1.7	2015_Jul_20_1613	s	s	3	1	Capacity	58	RC	1	0	23MC	1	0	1.93569493294	-327.0	178.0	-328	180	1
1.7	2015_Jul_20_1613	s	s	3	1	Capacity	59	RC	2	0	23VC	1	0	1.38829493523	330.0	-106.0	330	-111	1
1.7	2015_Jul_20_1613	s	s	3	1	Capacity	60	ABS	1	0	24MC	0	1	2.83600282669	None	None	None	None	1
1.7	2015_Jul_20_1613	s	s	3	1	Capacity	61	RC	2	0	23VC	1	0	2.13657188416	293.0	62.0	290	56	1
1.7	2015_Jul_20_1613	s	s	3	1	Capacity	62	ABS	1	0	24MC	0	1	2.07785201073	None	None	None	None	1
1.7	2015_Jul_20_1613	s	s	3	1	Capacity	63	ABS	2	0	24VC	0	1	1.0770111084	None	None	None	None	1
1.7	2015_Jul_20_1613	s	s	3	1	Capacity	64	RC	1	0	23MC	1	0	1.24706912041	-101.0	320.0	-105	325	1
1.7	2015_Jul_20_1613	s	s	3	1	Capacity	65	RC	2	0	23VC	1	0	1.19514703751	-61.0	-408.0	-52	-401	1
1.7	2015_Jul_20_1613	s	s	3	1	Capacity	66	ABS	1	0	24MC	0	1	2.03573608398	None	None	None	None	1
1.7	2015_Jul_20_1613	s	s	3	1	Capacity	67	ABS	2	0	24VC	0	1	0.964495897293	None	None	None	None	1
1.7	2015_Jul_20_1613	s	s	3	1	Capacity	68	RC	1	0	23MC	1	0	2.15338516235	-436.0	-97.0	-427	-99	1
1.7	2015_Jul_20_1613	s	s	3	1	Capacity	69	ABS	2	0	24VC	0	1	0.999866008759	None	None	None	None	1
1.7	2015_Jul_20_1613	s	s	3	1	Capacity	70	ABS	1	0	24MC	0	1	2.71363091469	None	None	None	None	1
1.7	2015_Jul_20_1613	s	s	3	1	Capacity	71	RC	1	0	23MC	1	0	1.04137396812	164.0	-267.0	171	-268	1
1.7	2015_Jul_20_1613	s	s	3	1	Capacity	72	RC	2	0	23VC	1	0	1.28926205635	519.0	298.0	520	301	1
1.7	2015_Jul_20_1613	s	s	3	1	Capacity	73	ABS	1	0	24MC	0	1	2.54804801941	None	None	None	None	1
1.7	2015_Jul_20_1613	s	s	3	1	Capacity	74	ABS	2	0	24VC	0	1	2.03075695038	None	None	None	None	1
1.7	2015_Jul_20_1613	s	s	3	1	Capacity	75	RC	2	0	23VC	1	0	1.38377404213	100.0	-60.0	93	-56	1
1.7	2015_Jul_20_1613	s	s	3	1	Capacity	76	RC	1	0	23MC	1	0	1.88907194138	-339.0	-189.0	-334	-187	1
1.7	2015_Jul_20_1613	s	s	3	1	Capacity	77	ABS	2	0	24VC	0	1	1.24706220627	None	None	None	None	1
1.7	2015_Jul_20_1613	s	s	3	1	Capacity	78	RC	2	0	23VC	1	0	2.15344810486	422.0	-87.0	429	-87	1
1.7	2015_Jul_20_1613	s	s	3	1	Capacity	79	ABS	1	0	24MC	0	1	3.30686998367	None	None	None	None	1
1.7	2015_Jul_20_1613	s	s	3	1	Capacity	80	RC	1	0	23MC	1	0	1.58503699303	-232.0	-280.0	-225	-283	1
1.7	2015_Jul_20_1613	s	s	3	1	Capacity	81	ABS	2	0	24VC	0	1	0.899746179581	None	None	None	None	1
1.7	2015_Jul_20_1613	s	s	3	1	Capacity	82	ABS	1	0	24MC	0	1	3.1186208725	None	None	None	None	1
1.7	2015_Jul_20_1613	s	s	3	1	Capacity	83	RC	1	0	23MC	1	0	3.67214512825	-134.0	-199.0	-131	-194	1
1.7	2015_Jul_20_1613	s	s	3	1	Capacity	84	RC	2	0	23VC	1	0	1.32949304581	-475.0	-8.0	-477	-17	1
1.7	2015_Jul_20_1613	s	s	3	1	Capacity	85	ABS	2	0	24VC	0	1	1.30102396011	None	None	None	None	1
1.7	2015_Jul_20_1613	s	s	3	1	Capacity	86	RC	2	0	23VC	0	1	0.996391773224	522.0	-137.0	None	None	0
1.7	2015_Jul_20_1613	s	s	3	1	Capacity	87	ABS	1	0	24MC	0	1	3.87795305252	None	None	None	None	1
1.7	2015_Jul_20_1613	s	s	3	1	Capacity	88	RC	1	0	23MC	1	0	1.32486104965	524.0	-96.0	531	-97	1
1.7	2015_Jul_20_1613	s	s	3	1	Capacity	89	ABS	1	0	24MC	0	1	4.8099489212	None	None	None	None	1
1.7	2015_Jul_20_1613	s	s	3	1	Capacity	90	ABS	2	0	24VC	0	1	0.87655210495	None	None	None	None	1
1.7	2015_Jul_20_1613	s	s	3	1	Capacity	91	RC	2	0	23VC	1	0	1.25358510017	253.0	1.0	264	2	1
1.7	2015_Jul_20_1613	s	s	3	1	Capacity	92	RC	1	0	23MC	1	0	1.90618515015	-452.0	-218.0	-452	-218	1
1.7	2015_Jul_20_1613	s	s	3	1	Capacity	1	RC	0	2	23RD	1	0	1.22349500656	-81.0	-223.0	-88	-227	1
1.7	2015_Jul_20_1613	s	s	3	1	Capacity	2	ABS	0	1	24RO	0	1	3.56628513336	None	None	None	None	1
1.7	2015_Jul_20_1613	s	s	3	1	Capacity	3	ABS	0	2	24RD	0	1	2.39537906647	None	None	None	None	1
1.7	2015_Jul_20_1613	s	s	3	1	Capacity	4	RC	0	1	23RO	0	1	4.48765897751	-304.0	-322.0	None	None	0
1.7	2015_Jul_20_1613	s	s	3	1	Capacity	5	RC	0	1	23RO	1	0	3.57391619682	200.0	-24.0	205	-23	1
1.7	2015_Jul_20_1613	s	s	3	1	Capacity	6	ABS	0	2	24RD	0	1	2.77201986313	None	None	None	None	1
1.7	2015_Jul_20_1613	s	s	3	1	Capacity	7	ABS	0	1	24RO	0	1	7.95315909386	None	None	None	None	1
1.7	2015_Jul_20_1613	s	s	3	1	Capacity	8	RC	0	2	23RD	1	0	1.50065588951	-473.0	-64.0	-468	-68	1
1.7	2015_Jul_20_1613	s	s	3	1	Capacity	9	RC	0	1	23RO	1	0	2.76046395302	280.0	113.0	277	111	1
1.7	2015_Jul_20_1613	s	s	3	1	Capacity	10	ABS	0	1	24RO	0	1	6.68499112129	None	None	None	None	1
1.7	2015_Jul_20_1613	s	s	3	1	Capacity	11	ABS	0	2	24RD	0	1	2.0567150116	None	None	None	None	1
1.7	2015_Jul_20_1613	s	s	3	1	Capacity	12	RC	0	2	23RD	1	0	1.659044981	34.0	94.0	33	82	1
1.7	2015_Jul_20_1613	s	s	3	1	Capacity	13	ABS	0	1	24RO	0	1	6.92052388191	None	None	None	None	1
1.7	2015_Jul_20_1613	s	s	3	1	Capacity	14	RC	0	1	23RO	1	0	6.59762001038	-279.0	-306.0	-280	-304	1
1.7	2015_Jul_20_1613	s	s	3	1	Capacity	15	ABS	0	2	24RD	0	1	2.71472907066	None	None	None	None	1
1.7	2015_Jul_20_1613	s	s	3	1	Capacity	16	RC	0	2	23RD	1	0	1.36478495598	-394.0	167.0	-382	169	1
1.7	2015_Jul_20_1613	s	s	3	1	Capacity	17	RC	0	1	23RO	0	1	8.2221429348	-432.0	-79.0	None	None	0
1.7	2015_Jul_20_1613	s	s	3	1	Capacity	18	ABS	0	2	24RD	0	1	1.69158792496	None	None	None	None	1
1.7	2015_Jul_20_1613	s	s	3	1	Capacity	19	RC	0	2	23RD	1	0	1.35992193222	-330.0	345.0	-334	337	1
1.7	2015_Jul_20_1613	s	s	3	1	Capacity	20	ABS	0	1	24RO	0	1	9.3988878727	None	None	None	None	1
1.7	2015_Jul_20_1613	s	s	3	1	Capacity	21	ABS	0	2	24RD	0	1	1.50331401825	None	None	None	None	1
1.7	2015_Jul_20_1613	s	s	3	1	Capacity	22	RC	0	1	23RO	1	0	2.57706189156	-484.0	41.0	-488	36	1
1.7	2015_Jul_20_1613	s	s	3	1	Capacity	23	ABS	0	1	24RO	0	1	7.2921769619	None	None	None	None	1
1.7	2015_Jul_20_1613	s	s	3	1	Capacity	24	RC	0	2	23RD	1	0	1.25380802155	-80.0	153.0	-76	150	1
1.7	2015_Jul_20_1613	s	s	3	1	Capacity	25	ABS	0	1	24RO	0	1	7.22152781487	None	None	None	None	1
1.7	2015_Jul_20_1613	s	s	3	1	Capacity	26	RC	0	1	23RO	1	0	5.67902493477	379.0	-232.0	384	-227	1
1.7	2015_Jul_20_1613	s	s	3	1	Capacity	27	RC	0	2	23RD	1	0	2.15335583687	-90.0	-190.0	-80	-187	1
1.7	2015_Jul_20_1613	s	s	3	1	Capacity	28	ABS	0	2	24RD	0	1	2.10632896423	None	None	None	None	1
1.7	2015_Jul_20_1613	s	s	3	1	Capacity	29	RC	0	2	23RD	1	0	1.72153806686	-290.0	-386.0	-287	-393	1
1.7	2015_Jul_20_1613	s	s	3	1	Capacity	30	RC	0	1	23RO	1	0	5.66777014732	-45.0	-60.0	-40	-57	1
1.7	2015_Jul_20_1613	s	s	3	1	Capacity	31	ABS	0	2	24RD	0	1	1.99712395668	None	None	None	None	1
1.7	2015_Jul_20_1613	s	s	3	1	Capacity	32	ABS	0	1	24RO	0	1	9.69359922409	None	None	None	None	1
1.7	2015_Jul_20_1613	s	s	3	1	Capacity	33	RC	0	1	23RO	1	0	3.02444386482	10.0	-258.0	14	-262	1
1.7	2015_Jul_20_1613	s	s	3	1	Capacity	34	RC	0	2	23RD	1	0	1.84266901016	390.0	-131.0	397	-129	1
1.7	2015_Jul_20_1613	s	s	3	1	Capacity	35	ABS	0	1	24RO	0	1	7.04628300667	None	None	None	None	1
1.7	2015_Jul_20_1613	s	s	3	1	Capacity	36	ABS	0	2	24RD	0	1	1.65900015831	None	None	None	None	1
1.7	2015_Jul_20_1613	s	s	3	1	Capacity	37	ABS	0	1	24RO	0	1	7.04429101944	None	None	None	None	1
1.7	2015_Jul_20_1613	s	s	3	1	Capacity	38	RC	0	1	23RO	0	1	5.43741798401	-420.0	-357.0	None	None	0
1.7	2015_Jul_20_1613	s	s	3	1	Capacity	39	RC	0	2	23RD	1	0	1.41186094284	90.0	355.0	92	352	1
1.7	2015_Jul_20_1613	s	s	3	1	Capacity	40	ABS	0	2	24RD	0	1	2.12991690636	None	None	None	None	1
1.7	2015_Jul_20_1613	s	s	3	1	Capacity	41	RC	0	1	23RO	1	0	3.7956199646	-19.0	372.0	-16	369	1
1.7	2015_Jul_20_1613	s	s	3	1	Capacity	42	RC	0	2	23RD	1	0	1.38338685036	471.0	146.0	474	143	1
1.7	2015_Jul_20_1613	s	s	3	1	Capacity	43	ABS	0	1	24RO	0	1	6.69682407379	None	None	None	None	1
1.7	2015_Jul_20_1613	s	s	3	1	Capacity	44	ABS	0	2	24RD	0	1	1.38313508034	None	None	None	None	1
1.7	2015_Jul_20_1613	s	s	3	1	Capacity	45	RC	0	2	23RD	1	0	1.34797811508	287.0	-156.0	289	-159	1
1.7	2015_Jul_20_1613	s	s	3	1	Capacity	46	RC	0	1	23RO	1	0	1.54722309113	-206.0	120.0	-201	118	1
1.7	2015_Jul_20_1613	s	s	3	1	Capacity	47	ABS	0	1	24RO	0	1	7.91616201401	None	None	None	None	1
1.7	2015_Jul_20_1613	s	s	3	1	Capacity	48	ABS	0	2	24RD	0	1	0.925769090652	None	None	None	None	1
1.7	2015_Jul_20_1613	s	s	3	1	Capacity	49	RC	0	1	23RO	1	0	3.61299300194	500.0	-327.0	505	-335	1
1.7	2015_Jul_20_1613	s	s	3	1	Capacity	50	ABS	0	1	24RO	0	1	7.04541802406	None	None	None	None	1
1.7	2015_Jul_20_1613	s	s	3	1	Capacity	51	ABS	0	2	24RD	0	1	1.57326102257	None	None	None	None	1
1.7	2015_Jul_20_1613	s	s	3	1	Capacity	52	RC	0	2	23RD	1	0	1.44713497162	347.0	-46.0	348	-41	1
1.7	2015_Jul_20_1613	s	s	3	1	Capacity	53	ABS	0	2	24RD	0	1	1.95333695412	None	None	None	None	1
1.7	2015_Jul_20_1613	s	s	3	1	Capacity	54	ABS	0	1	24RO	0	1	6.06773710251	None	None	None	None	1
1.7	2015_Jul_20_1613	s	s	3	1	Capacity	55	RC	0	1	23RO	1	0	1.87779688835	-366.0	279.0	-360	282	1
1.7	2015_Jul_20_1613	s	s	3	1	Capacity	56	RC	0	2	23RD	1	0	1.19648194313	-209.0	-323.0	-201	-320	1
1.7	2015_Jul_20_1613	s	s	3	1	Capacity	57	ABS	0	1	24RO	0	1	6.95084786415	None	None	None	None	1
1.7	2015_Jul_20_1613	s	s	3	1	Capacity	58	RC	0	1	23RO	1	0	1.52947092056	-476.0	-82.0	-470	-84	1
1.7	2015_Jul_20_1613	s	s	3	1	Capacity	59	RC	0	2	23RD	1	0	1.17326498032	-539.0	148.0	-536	140	1
1.7	2015_Jul_20_1613	s	s	3	1	Capacity	60	ABS	0	2	24RD	0	1	2.17183685303	None	None	None	None	1
1.7	2015_Jul_20_1613	s	s	3	1	Capacity	61	RC	0	1	23RO	1	0	5.09601998329	26.0	359.0	28	359	1
1.7	2015_Jul_20_1613	s	s	3	1	Capacity	62	RC	0	2	23RD	1	0	1.24216794968	516.0	36.0	518	43	1
1.7	2015_Jul_20_1613	s	s	3	1	Capacity	63	ABS	0	2	24RD	0	1	1.41854596138	None	None	None	None	1
1.7	2015_Jul_20_1613	s	s	3	1	Capacity	64	ABS	0	1	24RO	0	1	8.28315496445	None	None	None	None	1
1.7	2015_Jul_20_1613	s	s	3	1	Capacity	65	ABS	0	1	24RO	0	1	7.04541611671	None	None	None	None	1
1.7	2015_Jul_20_1613	s	s	3	1	Capacity	66	RC	0	2	23RD	1	0	0.847270011902	-17.0	-4.0	-14	-2	1
1.7	2015_Jul_20_1613	s	s	3	1	Capacity	67	RC	0	1	23RO	0	1	8.05875015259	67.0	238.0	None	None	0
1.7	2015_Jul_20_1613	s	s	3	1	Capacity	68	ABS	0	2	24RD	0	1	1.45886111259	None	None	None	None	1
1.7	2015_Jul_20_1613	s	s	3	1	Capacity	69	RC	0	2	23RD	1	0	1.14110803604	436.0	-150.0	439	-145	1
1.7	2015_Jul_20_1613	s	s	3	1	Capacity	70	RC	0	1	23RO	0	1	6.47982501984	169.0	130.0	None	None	0
1.7	2015_Jul_20_1613	s	s	3	1	Capacity	71	ABS	0	2	24RD	0	1	1.05853199959	None	None	None	None	1
1.7	2015_Jul_20_1613	s	s	3	1	Capacity	72	ABS	0	1	24RO	0	1	7.30880308151	None	None	None	None	1
1.7	2015_Jul_20_1613	s	s	3	1	Capacity	73	ABS	0	1	24RO	0	1	5.0606751442	None	None	None	None	1
1.7	2015_Jul_20_1613	s	s	3	1	Capacity	74	RC	0	1	23RO	0	1	4.04867005348	119.0	31.0	None	None	0
1.7	2015_Jul_20_1613	s	s	3	1	Capacity	75	RC	0	2	23RD	1	0	1.33597588539	213.0	-293.0	211	-301	1
1.7	2015_Jul_20_1613	s	s	3	1	Capacity	76	ABS	0	2	24RD	0	1	2.63600897789	None	None	None	None	1
1.7	2015_Jul_20_1613	s	s	3	1	Capacity	77	ABS	0	2	24RD	0	1	5.29027700424	None	None	None	None	1
1.7	2015_Jul_20_1613	s	s	3	1	Capacity	78	ABS	0	1	24RO	0	1	4.60833001137	None	None	None	None	1
1.7	2015_Jul_20_1613	s	s	3	1	Capacity	79	RC	0	2	23RD	1	0	3.27831912041	-7.0	241.0	-8	242	1
1.7	2015_Jul_20_1613	s	s	3	1	Capacity	80	RC	0	1	23RO	1	0	2.00068998337	157.0	-154.0	160	-164	1
1.7	2015_Jul_20_1613	s	s	3	1	Capacity	81	ABS	0	2	24RD	0	1	3.01941990852	None	None	None	None	1
1.7	2015_Jul_20_1613	s	s	3	1	Capacity	82	ABS	0	1	24RO	0	1	6.57926702499	None	None	None	None	1
1.7	2015_Jul_20_1613	s	s	3	1	Capacity	83	RC	0	1	23RO	1	0	5.65608787537	298.0	-277.0	302	-282	1
1.7	2015_Jul_20_1613	s	s	3	1	Capacity	84	RC	0	2	23RD	1	0	1.38367486	364.0	-264.0	374	-263	1
1.7	2015_Jul_20_1613	s	s	3	1	Capacity	85	RC	0	2	23RD	1	0	1.24212789536	-278.0	-323.0	-281	-327	1
1.7	2015_Jul_20_1613	s	s	3	1	Capacity	86	ABS	0	2	24RD	0	1	1.93657398224	None	None	None	None	1
1.7	2015_Jul_20_1613	s	s	3	1	Capacity	87	RC	0	1	23RO	1	0	2.96925616264	-355.0	381.0	-355	388	1
1.7	2015_Jul_20_1613	s	s	3	1	Capacity	88	ABS	0	1	24RO	0	1	6.68239402771	None	None	None	None	1
1.7	2015_Jul_20_1613	s	s	3	1	Capacity	89	ABS	0	1	24RO	0	1	5.63754105568	None	None	None	None	1
1.7	2015_Jul_20_1613	s	s	3	1	Capacity	90	ABS	0	2	24RD	0	1	3.31864595413	None	None	None	None	1
1.7	2015_Jul_20_1613	s	s	3	1	Capacity	91	RC	0	2	23RD	1	0	1.04692912102	-405.0	399.0	-411	408	1
1.7	2015_Jul_20_1613	s	s	3	1	Capacity	92	RC	0	1	23RO	1	0	3.30189180374	206.0	360.0	216	359	1
1.7	2015_Jul_20_1613	s	s	3	1	SIC	1	RC	0	1	23RO	1	0	4.29559707642	474.0	-198.0	483	-197	1
1.7	2015_Jul_20_1613	s	s	3	1	SIC	2	RC	1	2	23MD	1	0	0.999814987183	-5.0	32.0	-3	28	1
1.7	2015_Jul_20_1613	s	s	3	1	SIC	3	RC	1	1	23MO	1	0	1.50226593018	-239.0	-87.0	-233	-89	1
1.7	2015_Jul_20_1613	s	s	3	1	SIC	4	RC	2	2	23VD	1	0	0.658533811569	-26.0	4.0	-20	6	1
1.7	2015_Jul_20_1613	s	s	3	1	SIC	5	ABS	2	1	24VO	0	1	1.11778903008	None	None	None	None	1
1.7	2015_Jul_20_1613	s	s	3	1	SIC	6	RC	0	2	23RD	1	0	1.04701399803	3.0	-20.0	8	-20	1
1.7	2015_Jul_20_1613	s	s	3	1	SIC	7	ABS	2	0	24VC	0	1	0.94474196434	None	None	None	None	1
1.7	2015_Jul_20_1613	s	s	3	1	SIC	8	ABS	2	2	24VD	0	1	0.865157842636	None	None	None	None	1
1.7	2015_Jul_20_1613	s	s	3	1	SIC	9	ABS	1	2	24MD	0	1	1.48932099342	None	None	None	None	1
1.7	2015_Jul_20_1613	s	s	3	1	SIC	10	RC	1	0	23MC	1	0	1.4893078804	-449.0	86.0	-449	81	1
1.7	2015_Jul_20_1613	s	s	3	1	SIC	11	ABS	1	0	24MC	0	1	4.44322800636	None	None	None	None	1
1.7	2015_Jul_20_1613	s	s	3	1	SIC	12	RC	2	0	23VC	1	0	0.771438837051	-197.0	231.0	-203	224	1
1.7	2015_Jul_20_1613	s	s	3	1	SIC	13	RC	2	1	23VO	1	0	1.40791416168	450.0	160.0	455	149	1
1.7	2015_Jul_20_1613	s	s	3	1	SIC	14	ABS	0	2	24RD	0	1	5.97548294067	None	None	None	None	1
1.7	2015_Jul_20_1613	s	s	3	1	SIC	15	ABS	0	1	24RO	0	1	6.47687101364	None	None	None	None	1
1.7	2015_Jul_20_1613	s	s	3	1	SIC	16	ABS	1	1	24MO	0	1	3.51873493195	None	None	None	None	1
1.7	2015_Jul_20_1613	s	s	3	1	SIC	17	ABS	2	0	24VC	0	1	1.14768791199	None	None	None	None	1
1.7	2015_Jul_20_1613	s	s	3	1	SIC	18	ABS	1	2	24MD	0	1	1.29415011406	None	None	None	None	1
1.7	2015_Jul_20_1613	s	s	3	1	SIC	19	RC	0	1	23RO	1	0	2.00064206123	246.0	-5.0	252	-4	1
1.7	2015_Jul_20_1613	s	s	3	1	SIC	20	RC	2	2	23VD	1	0	0.835078001022	-94.0	117.0	-100	112	1
1.7	2015_Jul_20_1613	s	s	3	1	SIC	21	ABS	0	1	24RO	0	1	6.14355492592	None	None	None	None	1
1.7	2015_Jul_20_1613	s	s	3	1	SIC	22	ABS	1	0	24MC	0	1	4.71590781212	None	None	None	None	1
1.7	2015_Jul_20_1613	s	s	3	1	SIC	23	ABS	2	1	24VO	0	1	1.15964698792	None	None	None	None	1
1.7	2015_Jul_20_1613	s	s	3	1	SIC	24	ABS	2	2	24VD	0	1	0.73525595665	None	None	None	None	1
1.7	2015_Jul_20_1613	s	s	3	1	SIC	25	ABS	0	2	24RD	0	1	1.51521992683	None	None	None	None	1
1.7	2015_Jul_20_1613	s	s	3	1	SIC	26	RC	2	0	23VC	1	0	0.858647108078	271.0	68.0	274	68	1
1.7	2015_Jul_20_1613	s	s	3	1	SIC	27	RC	2	1	23VO	1	0	0.79976606369	-238.0	132.0	-238	128	1
1.7	2015_Jul_20_1613	s	s	3	1	SIC	28	RC	1	0	23MC	1	0	1.10588502884	-174.0	-25.0	-167	-23	1
1.7	2015_Jul_20_1613	s	s	3	1	SIC	29	RC	1	2	23MD	1	0	1.02338790894	460.0	-185.0	464	-180	1
1.7	2015_Jul_20_1613	s	s	3	1	SIC	30	ABS	1	1	24MO	0	1	5.24416089058	None	None	None	None	1
1.7	2015_Jul_20_1613	s	s	3	1	SIC	31	RC	1	1	23MO	1	0	1.01165795326	-194.0	237.0	-188	228	1
1.7	2015_Jul_20_1613	s	s	3	1	SIC	32	RC	0	2	23RD	1	0	0.729134082794	6.0	-24.0	8	-26	1
1.7	2015_Jul_20_1613	s	s	3	1	SIC	33	ABS	0	1	24RO	0	1	4.6555621624	None	None	None	None	1
1.7	2015_Jul_20_1613	s	s	3	1	SIC	34	RC	2	0	23VC	1	0	1.36473798752	-133.0	-268.0	-128	-276	1
1.7	2015_Jul_20_1613	s	s	3	1	SIC	35	ABS	2	0	24VC	0	1	4.5663330555	None	None	None	None	1
1.7	2015_Jul_20_1613	s	s	3	1	SIC	36	RC	1	2	23MD	1	0	0.823394060135	-32.0	370.0	-36	372	1
1.7	2015_Jul_20_1613	s	s	3	1	SIC	37	RC	1	0	23MC	1	0	1.63920092583	449.0	250.0	440	247	1
1.7	2015_Jul_20_1613	s	s	3	1	SIC	38	ABS	2	2	24VD	1	0	0.900541067123	None	None	194	184	0
1.7	2015_Jul_20_1613	s	s	3	1	SIC	39	RC	2	2	23VD	1	0	1.61192798615	-500.0	394.0	-500	395	1
1.7	2015_Jul_20_1613	s	s	3	1	SIC	40	ABS	1	0	24MC	0	1	6.32649207115	None	None	None	None	1
1.7	2015_Jul_20_1613	s	s	3	1	SIC	41	RC	0	1	23RO	1	0	5.02539992332	-203.0	189.0	-199	188	1
1.7	2015_Jul_20_1613	s	s	3	1	SIC	42	RC	1	1	23MO	1	0	1.37652492523	-301.0	-218.0	-301	-217	1
1.7	2015_Jul_20_1613	s	s	3	1	SIC	43	RC	0	2	23RD	1	0	1.45884799957	477.0	171.0	470	166	1
1.7	2015_Jul_20_1613	s	s	3	1	SIC	44	ABS	1	2	24MD	0	1	2.91848015785	None	None	None	None	1
1.7	2015_Jul_20_1613	s	s	3	1	SIC	45	ABS	2	1	24VO	0	1	1.01783323288	None	None	None	None	1
1.7	2015_Jul_20_1613	s	s	3	1	SIC	46	RC	2	1	23VO	1	0	0.952811956406	-370.0	-203.0	-366	-212	1
1.7	2015_Jul_20_1613	s	s	3	1	SIC	47	ABS	0	2	24RD	0	1	2.75375699997	None	None	None	None	1
1.7	2015_Jul_20_1613	s	s	3	1	SIC	48	ABS	1	1	24MO	0	1	8.43360090256	None	None	None	None	1
1.7	2015_Jul_20_1613	s	s	3	1	SIC	49	RC	2	0	23VC	1	0	0.926022052765	-333.0	107.0	-335	104	1
1.7	2015_Jul_20_1613	s	s	3	1	SIC	50	ABS	0	1	24RO	0	1	7.17316198349	None	None	None	None	1
1.7	2015_Jul_20_1613	s	s	3	1	SIC	51	RC	2	1	23VO	1	0	0.74095416069	43.0	153.0	47	149	1
1.7	2015_Jul_20_1613	s	s	3	1	SIC	52	ABS	2	0	24VC	0	1	1.25377106667	None	None	None	None	1
1.7	2015_Jul_20_1613	s	s	3	1	SIC	53	RC	1	0	23MC	1	0	1.47759604454	-203.0	154.0	-209	160	1
1.7	2015_Jul_20_1613	s	s	3	1	SIC	54	ABS	1	1	24MO	0	1	6.86895012856	None	None	None	None	1
1.7	2015_Jul_20_1613	s	s	3	1	SIC	55	RC	1	2	23MD	1	0	0.983011960983	-2.0	124.0	1	118	1
1.7	2015_Jul_20_1613	s	s	3	1	SIC	56	ABS	0	2	24RD	0	1	4.44378399849	None	None	None	None	1
1.7	2015_Jul_20_1613	s	s	3	1	SIC	57	RC	0	1	23RO	1	0	2.47120904922	-528.0	317.0	-530	322	1
1.7	2015_Jul_20_1613	s	s	3	1	SIC	58	ABS	2	2	24VD	0	1	2.93035984039	None	None	None	None	1
1.7	2015_Jul_20_1613	s	s	3	1	SIC	59	RC	0	2	23RD	1	0	2.12494087219	-238.0	-32.0	-229	-33	1
1.7	2015_Jul_20_1613	s	s	3	1	SIC	60	RC	1	1	23MO	1	0	1.28933501244	-480.0	331.0	-474	322	1
1.7	2015_Jul_20_1613	s	s	3	1	SIC	61	RC	2	2	23VD	1	0	0.917484998703	480.0	-50.0	485	-45	1
1.7	2015_Jul_20_1613	s	s	3	1	SIC	62	ABS	1	2	24MD	0	1	4.49089622498	None	None	None	None	1
1.7	2015_Jul_20_1613	s	s	3	1	SIC	63	ABS	2	1	24VO	0	1	0.947369098663	None	None	None	None	1
1.7	2015_Jul_20_1613	s	s	3	1	SIC	64	ABS	1	0	24MC	0	1	2.4453561306	None	None	None	None	1
1.7	2015_Jul_20_1613	s	s	3	1	SIC	65	RC	0	1	23RO	1	0	3.86016201973	382.0	-360.0	392	-360	1
1.7	2015_Jul_20_1613	s	s	3	1	SIC	66	RC	0	2	23RD	1	0	1.34812402725	-44.0	-222.0	-37	-216	1
1.7	2015_Jul_20_1613	s	s	3	1	SIC	67	RC	1	1	23MO	1	0	3.01898097992	378.0	381.0	374	381	1
1.7	2015_Jul_20_1613	s	s	3	1	SIC	68	RC	2	2	23VD	1	0	0.855927944183	-266.0	-319.0	-260	-320	1
1.7	2015_Jul_20_1613	s	s	3	1	SIC	69	RC	2	0	23VC	1	0	0.740813016891	-55.0	172.0	-54	180	1
1.7	2015_Jul_20_1613	s	s	3	1	SIC	70	RC	2	1	23VO	1	0	0.758694887161	-354.0	60.0	-350	56	1
1.7	2015_Jul_20_1613	s	s	3	1	SIC	71	ABS	2	2	24VD	0	1	0.969436168671	None	None	None	None	1
1.7	2015_Jul_20_1613	s	s	3	1	SIC	72	ABS	0	1	24RO	0	1	11.1225569248	None	None	None	None	1
1.7	2015_Jul_20_1613	s	s	3	1	SIC	73	ABS	2	0	24VC	0	1	1.08215713501	None	None	None	None	1
1.7	2015_Jul_20_1613	s	s	3	1	SIC	74	ABS	0	2	24RD	0	1	1.95335197449	None	None	None	None	1
1.7	2015_Jul_20_1613	s	s	3	1	SIC	75	ABS	1	2	24MD	0	1	1.97118806839	None	None	None	None	1
1.7	2015_Jul_20_1613	s	s	3	1	SIC	76	RC	1	2	23MD	1	0	1.11742806435	7.0	181.0	8	172	1
1.7	2015_Jul_20_1613	s	s	3	1	SIC	77	RC	1	0	23MC	1	0	2.34173202515	-107.0	270.0	-103	257	1
1.7	2015_Jul_20_1613	s	s	3	1	SIC	78	ABS	1	1	24MO	0	1	4.42510795593	None	None	None	None	1
1.7	2015_Jul_20_1613	s	s	3	1	SIC	79	ABS	2	1	24VO	0	1	0.740931034088	None	None	None	None	1
1.7	2015_Jul_20_1613	s	s	3	1	SIC	80	ABS	1	0	24MC	0	1	2.37006402016	None	None	None	None	1
1.7	2015_Jul_20_1613	s	s	3	1	SIC	81	RC	2	0	23VC	1	0	0.73872590065	-205.0	4.0	-202	6	1
1.7	2015_Jul_20_1613	s	s	3	1	SIC	82	ABS	0	1	24RO	0	1	6.67941594124	None	None	None	None	1
1.7	2015_Jul_20_1613	s	s	3	1	SIC	83	ABS	1	0	24MC	0	1	3.40785884857	None	None	None	None	1
1.7	2015_Jul_20_1613	s	s	3	1	SIC	84	ABS	2	2	24VD	0	1	0.764782905579	None	None	None	None	1
1.7	2015_Jul_20_1613	s	s	3	1	SIC	85	RC	2	2	23VD	1	0	0.952898025513	-14.0	278.0	-10	279	1
1.7	2015_Jul_20_1613	s	s	3	1	SIC	86	ABS	1	2	24MD	0	1	2.30133700371	None	None	None	None	1
1.7	2015_Jul_20_1613	s	s	3	1	SIC	87	RC	0	1	23RO	1	0	5.62987494469	-190.0	-106.0	-192	-103	1
1.7	2015_Jul_20_1613	s	s	3	1	SIC	88	ABS	0	2	24RD	0	1	1.7650539875	None	None	None	None	1
1.7	2015_Jul_20_1613	s	s	3	1	SIC	89	ABS	2	0	24VC	0	1	0.835129022598	None	None	None	None	1
1.7	2015_Jul_20_1613	s	s	3	1	SIC	90	RC	1	1	23MO	1	0	1.96491408348	-232.0	-293.0	-223	-297	1
1.7	2015_Jul_20_1613	s	s	3	1	SIC	91	RC	2	1	23VO	1	0	1.3858628273	509.0	92.0	518	91	1
1.7	2015_Jul_20_1613	s	s	3	1	SIC	92	RC	1	2	23MD	1	0	1.07641100883	-93.0	-314.0	-88	-318	1
1.7	2015_Jul_20_1613	s	s	3	1	SIC	93	RC	0	2	23RD	1	0	0.806600093842	226.0	117.0	223	118	1
1.7	2015_Jul_20_1613	s	s	3	1	SIC	94	ABS	2	1	24VO	0	1	3.04794406891	None	None	None	None	1
1.7	2015_Jul_20_1613	s	s	3	1	SIC	95	RC	1	0	23MC	1	0	2.50646400452	275.0	-38.0	274	-32	1
1.7	2015_Jul_20_1613	s	s	3	1	SIC	96	ABS	1	1	24MO	0	1	1.97684288025	None	None	None	None	1
1.7	2015_Jul_20_1613	s	s	3	1	SIC	97	ABS	2	0	24VC	0	1	0.844207048416	None	None	None	None	1
1.7	2015_Jul_20_1613	s	s	3	1	SIC	98	ABS	1	0	24MC	0	1	2.37330913544	None	None	None	None	1
1.7	2015_Jul_20_1613	s	s	3	1	SIC	99	ABS	1	1	24MO	0	1	5.89063501358	None	None	None	None	1
1.7	2015_Jul_20_1613	s	s	3	1	SIC	100	ABS	0	1	24RO	0	1	5.88184595108	None	None	None	None	1
1.7	2015_Jul_20_1613	s	s	3	1	SIC	101	RC	0	1	23RO	1	0	3.17227697372	233.0	372.0	232	370	1
1.7	2015_Jul_20_1613	s	s	3	1	SIC	102	RC	2	2	23VD	1	0	1.16217088699	-260.0	-298.0	-253	-295	1
1.7	2015_Jul_20_1613	s	s	3	1	SIC	103	ABS	0	2	24RD	0	1	3.90721297264	None	None	None	None	1
1.7	2015_Jul_20_1613	s	s	3	1	SIC	104	ABS	2	2	24VD	0	1	0.783070087433	None	None	None	None	1
1.7	2015_Jul_20_1613	s	s	3	1	SIC	105	RC	1	2	23MD	1	0	1.05876803398	-176.0	398.0	-168	398	1
1.7	2015_Jul_20_1613	s	s	3	1	SIC	106	ABS	1	2	24MD	0	1	2.23582911491	None	None	None	None	1
1.7	2015_Jul_20_1613	s	s	3	1	SIC	107	RC	2	0	23VC	1	0	0.935992002487	-361.0	-190.0	-355	-190	1
1.7	2015_Jul_20_1613	s	s	3	1	SIC	108	ABS	2	1	24VO	0	1	1.58835792542	None	None	None	None	1
1.7	2015_Jul_20_1613	s	s	3	1	SIC	109	RC	1	1	23MO	1	0	1.19498300552	11.0	-47.0	11	-51	1
1.7	2015_Jul_20_1613	s	s	3	1	SIC	110	RC	2	1	23VO	1	0	1.44217586517	-331.0	172.0	-328	168	1
1.7	2015_Jul_20_1613	s	s	3	1	SIC	111	RC	1	0	23MC	1	0	5.31966495514	372.0	69.0	372	72	1
1.7	2015_Jul_20_1613	s	s	3	1	SIC	112	RC	0	2	23RD	1	0	1.08913803101	265.0	41.0	266	45	1
1.7	2015_Jul_20_1613	s	s	3	1	SIC	113	ABS	0	2	24RD	0	1	2.00040507317	None	None	None	None	1
1.7	2015_Jul_20_1613	s	s	3	1	SIC	114	RC	0	1	23RO	0	1	5.844383955	-95.0	-265.0	None	None	0
1.7	2015_Jul_20_1613	s	s	3	1	SIC	115	ABS	2	0	24VC	0	1	1.11262488365	None	None	None	None	1
1.7	2015_Jul_20_1613	s	s	3	1	SIC	116	RC	1	2	23MD	1	0	0.797156095505	-191.0	63.0	-183	59	1
1.7	2015_Jul_20_1613	s	s	3	1	SIC	117	ABS	2	1	24VO	0	1	1.07966184616	None	None	None	None	1
1.7	2015_Jul_20_1613	s	s	3	1	SIC	118	ABS	1	0	24MC	0	1	4.63190889359	None	None	None	None	1
1.7	2015_Jul_20_1613	s	s	3	1	SIC	119	ABS	2	2	24VD	0	1	0.607754945755	None	None	None	None	1
1.7	2015_Jul_20_1613	s	s	3	1	SIC	120	ABS	1	1	24MO	0	1	6.25644397736	None	None	None	None	1
1.7	2015_Jul_20_1613	s	s	3	1	SIC	121	RC	1	1	23MO	1	0	1.64724993706	333.0	-311.0	329	-317	1
1.7	2015_Jul_20_1613	s	s	3	1	SIC	122	ABS	1	2	24MD	0	1	2.98645401001	None	None	None	None	1
1.7	2015_Jul_20_1613	s	s	3	1	SIC	123	RC	0	2	23RD	1	0	1.16469287872	83.0	403.0	86	402	1
1.7	2015_Jul_20_1613	s	s	3	1	SIC	124	RC	2	0	23VC	1	0	1.44240283966	-398.0	232.0	-399	231	1
1.7	2015_Jul_20_1613	s	s	3	1	SIC	125	RC	2	2	23VD	1	0	0.818447113037	535.0	-174.0	532	-170	1
1.7	2015_Jul_20_1613	s	s	3	1	SIC	126	RC	2	1	23VO	1	0	0.73508310318	-317.0	-289.0	-316	-290	1
1.7	2015_Jul_20_1613	s	s	3	1	SIC	127	ABS	0	1	24RO	0	1	10.5693328381	None	None	None	None	1
1.7	2015_Jul_20_1613	s	s	3	1	SIC	128	RC	1	0	23MC	1	0	2.11083698273	331.0	335.0	329	334	1
1.7	2015_Jul_20_1613	s	s	3	1	SIC	129	RC	0	2	23RD	1	0	1.32427287102	-256.0	-381.0	-243	-378	1
1.7	2015_Jul_20_1613	s	s	3	1	SIC	130	RC	0	1	23RO	1	0	4.1661798954	-395.0	309.0	-392	310	1
1.7	2015_Jul_20_1613	s	s	3	1	SIC	131	ABS	1	2	24MD	0	1	1.75303697586	None	None	None	None	1
1.7	2015_Jul_20_1613	s	s	3	1	SIC	132	RC	2	1	23VO	1	0	1.02006816864	-146.0	17.0	-140	21	1
1.7	2015_Jul_20_1613	s	s	3	1	SIC	133	ABS	0	1	24RO	1	0	7.06165790558	None	None	234	388	0
1.7	2015_Jul_20_1613	s	s	3	1	SIC	134	ABS	2	0	24VC	0	1	1.02982592583	None	None	None	None	1
1.7	2015_Jul_20_1613	s	s	3	1	SIC	135	RC	1	0	23MC	1	0	2.489798069	282.0	144.0	288	144	1
1.7	2015_Jul_20_1613	s	s	3	1	SIC	136	RC	1	1	23MO	1	0	1.19608712196	83.0	256.0	77	256	1
1.7	2015_Jul_20_1613	s	s	3	1	SIC	137	ABS	1	1	24MO	0	1	4.25501203537	None	None	None	None	1
1.7	2015_Jul_20_1613	s	s	3	1	SIC	138	ABS	2	2	24VD	0	1	0.665331125259	None	None	None	None	1
1.7	2015_Jul_20_1613	s	s	3	1	SIC	139	ABS	1	0	24MC	0	1	3.50215101242	None	None	None	None	1
1.7	2015_Jul_20_1613	s	s	3	1	SIC	140	ABS	0	2	24RD	0	1	1.54128718376	None	None	None	None	1
1.7	2015_Jul_20_1613	s	s	3	1	SIC	141	RC	1	2	23MD	1	0	3.2363140583	-185.0	-339.0	-192	-341	1
1.7	2015_Jul_20_1613	s	s	3	1	SIC	142	RC	2	2	23VD	1	0	0.761398077011	442.0	190.0	449	185	1
1.7	2015_Jul_20_1613	s	s	3	1	SIC	143	RC	2	0	23VC	1	0	0.858598947525	-515.0	136.0	-511	137	1
1.7	2015_Jul_20_1613	s	s	3	1	SIC	144	ABS	2	1	24VO	0	1	0.893908977509	None	None	None	None	1
1.7	2015_Jul_20_1613	s	s	3	1	SIC	145	ABS	0	1	24RO	0	1	6.5625679493	None	None	None	None	1
1.7	2015_Jul_20_1613	s	s	3	1	SIC	146	RC	2	2	23VD	1	0	0.787940979004	-74.0	-337.0	-78	-334	1
1.7	2015_Jul_20_1613	s	s	3	1	SIC	147	ABS	1	2	24MD	0	1	2.45939302444	None	None	None	None	1
1.7	2015_Jul_20_1613	s	s	3	1	SIC	148	RC	0	2	23RD	1	0	0.771244049072	-22.0	-105.0	-18	-104	1
1.7	2015_Jul_20_1613	s	s	3	1	SIC	149	RC	1	0	23MC	0	1	6.17884111404	-258.0	-241.0	None	None	0
1.7	2015_Jul_20_1613	s	s	3	1	SIC	150	ABS	2	1	24VO	0	1	0.823282957077	None	None	None	None	1
1.7	2015_Jul_20_1613	s	s	3	1	SIC	151	RC	0	1	23RO	1	0	3.62469005585	-178.0	-200.0	-180	-202	1
1.7	2015_Jul_20_1613	s	s	3	1	SIC	152	RC	2	1	23VO	1	0	0.867789030075	-364.0	-231.0	-360	-231	1
1.7	2015_Jul_20_1613	s	s	3	1	SIC	153	RC	1	1	23MO	1	0	1.78353309631	354.0	-252.0	356	-254	1
1.7	2015_Jul_20_1613	s	s	3	1	SIC	154	RC	2	0	23VC	1	0	0.794672966003	304.0	-297.0	294	-290	1
1.7	2015_Jul_20_1613	s	s	3	1	SIC	155	ABS	0	2	24RD	0	1	1.8894109726	None	None	None	None	1
1.7	2015_Jul_20_1613	s	s	3	1	SIC	156	RC	1	2	23MD	1	0	0.818307876587	-383.0	197.0	-382	196	1
1.7	2015_Jul_20_1613	s	s	3	1	SIC	157	ABS	2	0	24VC	0	1	0.865397930145	None	None	None	None	1
1.7	2015_Jul_20_1613	s	s	3	1	SIC	158	ABS	2	2	24VD	0	1	1.04194402695	None	None	None	None	1
1.7	2015_Jul_20_1613	s	s	3	1	SIC	159	ABS	1	1	24MO	0	1	5.51466989517	None	None	None	None	1
1.7	2015_Jul_20_1613	s	s	3	1	SIC	160	ABS	1	0	24MC	0	1	3.24809598923	None	None	None	None	1
1.7	2015_Jul_20_1613	s	s	3	1	SIC	161	ABS	1	1	24MO	0	1	6.11528801918	None	None	None	None	1
1.7	2015_Jul_20_1613	s	s	3	1	SIC	162	ABS	2	0	24VC	0	1	0.760061979294	None	None	None	None	1
1.7	2015_Jul_20_1613	s	s	3	1	SIC	163	RC	1	1	23MO	1	0	4.14794707298	-319.0	63.0	-315	64	1
1.7	2015_Jul_20_1613	s	s	3	1	SIC	164	ABS	0	2	24RD	0	1	4.18360304832	None	None	None	None	1
1.7	2015_Jul_20_1613	s	s	3	1	SIC	165	RC	0	2	23RD	1	0	1.11755919456	511.0	-230.0	520	-232	1
1.7	2015_Jul_20_1613	s	s	3	1	SIC	166	RC	2	0	23VC	1	0	2.23100709915	-530.0	-163.0	-521	-160	1
1.7	2015_Jul_20_1613	s	s	3	1	SIC	167	RC	0	1	23RO	1	0	4.43189692497	386.0	264.0	384	269	1
1.7	2015_Jul_20_1613	s	s	3	1	SIC	168	RC	2	1	23VO	1	0	1.11757111549	-386.0	-393.0	-382	-393	1
1.7	2015_Jul_20_1613	s	s	3	1	SIC	169	RC	1	0	23MC	1	0	3.21050691605	266.0	333.0	267	339	1
1.7	2015_Jul_20_1613	s	s	3	1	SIC	170	ABS	0	1	24RO	0	1	6.36716604233	None	None	None	None	1
1.7	2015_Jul_20_1613	s	s	3	1	SIC	171	RC	1	2	23MD	1	0	1.80712795258	374.0	-317.0	378	-322	1
1.7	2015_Jul_20_1613	s	s	3	1	SIC	172	ABS	2	2	24VD	0	1	0.972194910049	None	None	None	None	1
1.7	2015_Jul_20_1613	s	s	3	1	SIC	173	ABS	2	1	24VO	0	1	1.830919981	None	None	None	None	1
1.7	2015_Jul_20_1613	s	s	3	1	SIC	174	ABS	1	2	24MD	0	1	1.9716501236	None	None	None	None	1
1.7	2015_Jul_20_1613	s	s	3	1	SIC	175	RC	2	2	23VD	1	0	1.02347493172	322.0	-124.0	322	-129	1
1.7	2015_Jul_20_1613	s	s	3	1	SIC	176	ABS	1	0	24MC	0	1	5.33839201927	None	None	None	None	1
1.7	2015_Jul_20_1613	s	s	3	1	SIC	177	ABS	0	1	24RO	0	1	7.61009693146	None	None	None	None	1
1.7	2015_Jul_20_1613	s	s	3	1	SIC	178	RC	1	0	23MC	1	0	4.1234099865	11.0	55.0	2	51	1
1.7	2015_Jul_20_1613	s	s	3	1	SIC	179	RC	0	1	23RO	0	1	5.22055506706	107.0	240.0	None	None	0
1.7	2015_Jul_20_1613	s	s	3	1	SIC	180	RC	2	0	23VC	1	0	0.740776062012	-257.0	-191.0	-258	-189	1
1.7	2015_Jul_20_1613	s	s	3	1	SIC	181	RC	0	2	23RD	1	0	1.37655591965	-401.0	370.0	-396	367	1
1.7	2015_Jul_20_1613	s	s	3	1	SIC	182	RC	2	2	23VD	1	0	0.794781923294	339.0	-241.0	336	-245	1
1.7	2015_Jul_20_1613	s	s	3	1	SIC	183	RC	1	2	23MD	1	0	0.658571958542	173.0	-23.0	173	-23	1
1.7	2015_Jul_20_1613	s	s	3	1	SIC	184	ABS	1	2	24MD	0	1	2.2802760601	None	None	None	None	1
1.7	2015_Jul_20_1613	s	s	3	1	SIC	185	ABS	1	1	24MO	0	1	3.84336090088	None	None	None	None	1
1.7	2015_Jul_20_1613	s	s	3	1	SIC	186	RC	1	1	23MO	1	0	1.41854000092	207.0	-80.0	199	-80	1
1.7	2015_Jul_20_1613	s	s	3	1	SIC	187	ABS	1	0	24MC	0	1	3.00081300735	None	None	None	None	1
1.7	2015_Jul_20_1613	s	s	3	1	SIC	188	RC	2	1	23VO	1	0	0.806736946106	-374.0	-110.0	-368	-110	1
1.7	2015_Jul_20_1613	s	s	3	1	SIC	189	ABS	0	2	24RD	0	1	2.64291286469	None	None	None	None	1
1.7	2015_Jul_20_1613	s	s	3	1	SIC	190	ABS	2	1	24VO	0	1	1.24208593369	None	None	None	None	1
1.7	2015_Jul_20_1613	s	s	3	1	SIC	191	ABS	2	2	24VD	0	1	0.689708948135	None	None	None	None	1
1.7	2015_Jul_20_1613	s	s	3	1	SIC	192	ABS	2	0	24VC	0	1	0.865196943283	None	None	None	None	1
1.7	2015_Jul_20_1613	s	s	3	1	SIC	193	RC	1	2	23MD	1	0	0.96470284462	143.0	45.0	138	37	1
1.7	2015_Jul_20_1613	s	s	3	1	SIC	194	RC	1	1	23MO	1	0	2.4396071434	-469.0	-156.0	-462	-160	1
1.7	2015_Jul_20_1613	s	s	3	1	SIC	195	ABS	2	2	24VD	0	1	0.912515878677	None	None	None	None	1
1.7	2015_Jul_20_1613	s	s	3	1	SIC	196	ABS	2	0	24VC	0	1	1.04702496529	None	None	None	None	1
1.7	2015_Jul_20_1613	s	s	3	1	SIC	197	RC	0	2	23RD	1	0	0.99658703804	377.0	-304.0	385	-301	1
1.7	2015_Jul_20_1613	s	s	3	1	SIC	198	ABS	1	1	24MO	0	1	5.11953902245	None	None	None	None	1
1.7	2015_Jul_20_1613	s	s	3	1	SIC	199	RC	2	2	23VD	1	0	0.764454126358	457.0	-135.0	457	-131	1
1.7	2015_Jul_20_1613	s	s	3	1	SIC	200	ABS	0	2	24RD	0	1	2.76025295258	None	None	None	None	1
1.7	2015_Jul_20_1613	s	s	3	1	SIC	201	RC	2	1	23VO	1	0	0.829782962799	-337.0	-80.0	-332	-81	1
1.7	2015_Jul_20_1613	s	s	3	1	SIC	202	ABS	2	1	24VO	0	1	1.32976818085	None	None	None	None	1
1.7	2015_Jul_20_1613	s	s	3	1	SIC	203	RC	2	0	23VC	1	0	0.737699985504	-213.0	-79.0	-204	-79	1
1.7	2015_Jul_20_1613	s	s	3	1	SIC	204	ABS	1	0	24MC	0	1	5.33143305779	None	None	None	None	1
1.7	2015_Jul_20_1613	s	s	3	1	SIC	205	ABS	0	1	24RO	0	1	6.32671403885	None	None	None	None	1
1.7	2015_Jul_20_1613	s	s	3	1	SIC	206	ABS	1	2	24MD	0	1	0.90075302124	None	None	None	None	1
1.7	2015_Jul_20_1613	s	s	3	1	SIC	207	RC	0	1	23RO	1	0	1.33317089081	-36.0	402.0	-27	403	1
1.7	2015_Jul_20_1613	s	s	3	1	SIC	208	RC	1	0	23MC	1	0	4.00979304314	21.0	373.0	16	367	1
1.7	2015_Jul_20_1613	s	s	3	1	SIC	209	RC	0	1	23RO	0	1	5.64397215843	54.0	-98.0	None	None	0
1.7	2015_Jul_20_1613	s	s	3	1	SIC	210	ABS	2	1	24VO	0	1	0.805866956711	None	None	None	None	1
1.7	2015_Jul_20_1613	s	s	3	1	SIC	211	RC	0	2	23RD	1	0	0.949304819107	298.0	293.0	297	292	1
1.7	2015_Jul_20_1613	s	s	3	1	SIC	212	ABS	0	2	24RD	0	1	2.08277797699	None	None	None	None	1
1.7	2015_Jul_20_1613	s	s	3	1	SIC	213	RC	1	1	23MO	1	0	1.65900802612	-503.0	-396.0	-490	-393	1
1.7	2015_Jul_20_1613	s	s	3	1	SIC	214	ABS	1	0	24MC	0	1	4.24371790886	None	None	None	None	1
1.7	2015_Jul_20_1613	s	s	3	1	SIC	215	ABS	1	1	24MO	0	1	4.89586997032	None	None	None	None	1
1.7	2015_Jul_20_1613	s	s	3	1	SIC	216	RC	1	0	23MC	1	0	2.50109195709	-49.0	342.0	-51	335	1
1.7	2015_Jul_20_1613	s	s	3	1	SIC	217	RC	1	2	23MD	1	0	1.00824594498	-527.0	349.0	-527	340	1
1.7	2015_Jul_20_1613	s	s	3	1	SIC	218	RC	2	1	23VO	1	0	1.42375802994	374.0	260.0	375	261	1
1.7	2015_Jul_20_1613	s	s	3	1	SIC	219	RC	2	0	23VC	1	0	0.653056144714	401.0	-84.0	394	-82	1
1.7	2015_Jul_20_1613	s	s	3	1	SIC	220	ABS	0	1	24RO	0	1	6.43262004852	None	None	None	None	1
1.7	2015_Jul_20_1613	s	s	3	1	SIC	221	RC	2	2	23VD	1	0	0.764451980591	6.0	-190.0	2	-196	1
1.7	2015_Jul_20_1613	s	s	3	1	SIC	222	ABS	1	2	24MD	0	1	1.80844593048	None	None	None	None	1
1.7	2015_Jul_20_1613	s	s	3	1	SIC	223	ABS	2	0	24VC	0	1	1.04699492455	None	None	None	None	1
1.7	2015_Jul_20_1613	s	s	3	1	SIC	224	ABS	2	2	24VD	0	1	0.682018995285	None	None	None	None	1
1.7	2015_Jul_20_1613	s	s	3	1	SIC	225	ABS	0	2	24RD	0	1	2.00673294067	None	None	None	None	1
1.7	2015_Jul_20_1613	s	s	3	1	SIC	226	RC	0	2	23RD	1	0	2.20045614243	398.0	84.0	404	84	1
1.7	2015_Jul_20_1613	s	s	3	1	SIC	227	ABS	2	1	24VO	0	1	1.33777308464	None	None	None	None	1
1.7	2015_Jul_20_1613	s	s	3	1	SIC	228	ABS	2	0	24VC	0	1	0.806666135788	None	None	None	None	1
1.7	2015_Jul_20_1613	s	s	3	1	SIC	229	RC	2	2	23VD	1	0	0.820810079575	-481.0	201.0	-485	202	1
1.7	2015_Jul_20_1613	s	s	3	1	SIC	230	RC	0	1	23RO	1	0	2.38913488388	-322.0	395.0	-322	399	1
1.7	2015_Jul_20_1613	s	s	3	1	SIC	231	ABS	1	1	24MO	0	1	6.06125187874	None	None	None	None	1
1.7	2015_Jul_20_1613	s	s	3	1	SIC	232	RC	1	2	23MD	1	0	1.5413479805	223.0	59.0	226	62	1
1.7	2015_Jul_20_1613	s	s	3	1	SIC	233	RC	2	1	23VO	1	0	0.81848692894	-145.0	77.0	-137	73	1
1.7	2015_Jul_20_1613	s	s	3	1	SIC	234	ABS	0	1	24RO	0	1	5.30277514458	None	None	None	None	1
1.7	2015_Jul_20_1613	s	s	3	1	SIC	235	ABS	1	2	24MD	0	1	1.60619401932	None	None	None	None	1
1.7	2015_Jul_20_1613	s	s	3	1	SIC	236	RC	1	0	23MC	1	0	4.53738903999	56.0	209.0	61	212	1
1.7	2015_Jul_20_1613	s	s	3	1	SIC	237	ABS	2	2	24VD	0	1	1.1880710125	None	None	None	None	1
1.7	2015_Jul_20_1613	s	s	3	1	SIC	238	RC	1	1	23MO	1	0	1.91794490814	352.0	-289.0	354	-294	1
1.7	2015_Jul_20_1613	s	s	3	1	SIC	239	ABS	1	0	24MC	0	1	5.31961417198	None	None	None	None	1
1.7	2015_Jul_20_1613	s	s	3	1	SIC	240	RC	2	0	23VC	1	0	1.45394301414	-146.0	136.0	-146	141	1
1.7	2015_Jul_20_1613	s	s	3	1	SIC	241	RC	1	1	23MO	1	0	1.90006613731	-454.0	214.0	-456	213	1
1.7	2015_Jul_20_1613	s	s	3	1	SIC	242	RC	1	2	23MD	1	0	0.99494099617	-76.0	-90.0	-77	-94	1
1.7	2015_Jul_20_1613	s	s	3	1	SIC	243	RC	0	1	23RO	0	1	5.10451292992	-214.0	63.0	None	None	0
1.7	2015_Jul_20_1613	s	s	3	1	SIC	244	ABS	0	1	24RO	0	1	5.83753395081	None	None	None	None	1
1.7	2015_Jul_20_1613	s	s	3	1	SIC	245	ABS	2	0	24VC	0	1	1.47071218491	None	None	None	None	1
1.7	2015_Jul_20_1613	s	s	3	1	SIC	246	ABS	1	2	24MD	0	1	1.17637991905	None	None	None	None	1
1.7	2015_Jul_20_1613	s	s	3	1	SIC	247	RC	1	0	23MC	1	0	6.38584899902	-418.0	-73.0	-421	-70	1
1.7	2015_Jul_20_1613	s	s	3	1	SIC	248	RC	2	1	23VO	1	0	0.982990026474	-512.0	-83.0	-519	-82	1
1.7	2015_Jul_20_1613	s	s	3	1	SIC	249	RC	0	2	23RD	1	0	0.99503993988	-367.0	333.0	-369	328	1
1.7	2015_Jul_20_1613	s	s	3	1	SIC	250	RC	2	0	23VC	1	0	0.606832027435	5.0	-15.0	8	-17	1
1.7	2015_Jul_20_1613	s	s	3	1	SIC	251	ABS	2	2	24VD	0	1	0.818791151047	None	None	None	None	1
1.7	2015_Jul_20_1613	s	s	3	1	SIC	252	ABS	1	1	24MO	0	1	4.6133890152	None	None	None	None	1
1.7	2015_Jul_20_1613	s	s	3	1	SIC	253	ABS	2	1	24VO	0	1	0.995168924332	None	None	None	None	1
1.7	2015_Jul_20_1613	s	s	3	1	SIC	254	RC	2	2	23VD	1	0	1.11395812035	-226.0	17.0	-225	16	1
1.7	2015_Jul_20_1613	s	s	3	1	SIC	255	ABS	0	2	24RD	0	1	2.47725701332	None	None	None	None	1
1.7	2015_Jul_20_1613	s	s	3	1	SIC	256	ABS	1	0	24MC	0	1	6.19070792198	None	None	None	None	1
1.7	2015_Jul_20_1613	s	s	3	1	SIC	257	ABS	2	1	24VO	0	1	0.682089090347	None	None	None	None	1
1.7	2015_Jul_20_1613	s	s	3	1	SIC	258	RC	2	1	23VO	1	0	0.827491044998	524.0	-393.0	532	-387	1
1.7	2015_Jul_20_1613	s	s	3	1	SIC	259	ABS	1	2	24MD	0	1	1.26556301117	None	None	None	None	1
1.7	2015_Jul_20_1613	s	s	3	1	SIC	260	RC	0	1	23RO	1	0	1.98851513863	-101.0	93.0	-104	83	1
1.7	2015_Jul_20_1613	s	s	3	1	SIC	261	ABS	0	1	24RO	0	1	4.00138378143	None	None	None	None	1
1.7	2015_Jul_20_1613	s	s	3	1	SIC	262	RC	1	1	23MO	1	0	1.6187620163	-347.0	144.0	-344	136	1
1.7	2015_Jul_20_1613	s	s	3	1	SIC	263	ABS	1	1	24MO	0	1	5.25584411621	None	None	None	None	1
1.7	2015_Jul_20_1613	s	s	3	1	SIC	264	RC	1	2	23MD	1	0	0.830178022385	471.0	-63.0	470	-56	1
1.7	2015_Jul_20_1613	s	s	3	1	SIC	265	ABS	1	0	24MC	0	1	4.31916189194	None	None	None	None	1
1.7	2015_Jul_20_1613	s	s	3	1	SIC	266	RC	2	0	23VC	1	0	1.18321490288	-378.0	-340.0	-368	-338	1
1.7	2015_Jul_20_1613	s	s	3	1	SIC	267	RC	0	2	23RD	1	0	1.20684814453	334.0	-407.0	339	-404	1
1.7	2015_Jul_20_1613	s	s	3	1	SIC	268	ABS	0	2	24RD	0	1	1.88933992386	None	None	None	None	1
1.7	2015_Jul_20_1613	s	s	3	1	SIC	269	ABS	2	2	24VD	0	1	0.568118095398	None	None	None	None	1
1.7	2015_Jul_20_1613	s	s	3	1	SIC	270	RC	1	0	23MC	1	0	2.38878583908	-112.0	407.0	-107	403	1
1.7	2015_Jul_20_1613	s	s	3	1	SIC	271	RC	2	2	23VD	1	0	0.717308044434	320.0	88.0	315	82	1
1.7	2015_Jul_20_1613	s	s	3	1	SIC	272	ABS	2	0	24VC	0	1	0.947703123093	None	None	None	None	1
1.7	2015_Jul_20_1613	s	s	3	1	SIC	273	RC	1	2	23MD	1	0	0.94097495079	479.0	242.0	485	241	1
1.7	2015_Jul_20_1613	s	s	3	1	SIC	274	RC	0	2	23RD	1	0	1.14116287231	512.0	-182.0	511	-184	1
1.7	2015_Jul_20_1613	s	s	3	1	SIC	275	ABS	1	0	24MC	0	1	5.08790802956	None	None	None	None	1
1.7	2015_Jul_20_1613	s	s	3	1	SIC	276	RC	1	1	23MO	0	1	3.89033293724	-68.0	376.0	None	None	0
1.7	2015_Jul_20_1613	s	s	3	1	SIC	277	ABS	2	1	24VO	0	1	0.693922996521	None	None	None	None	1
1.7	2015_Jul_20_1613	s	s	3	1	SIC	278	ABS	2	2	24VD	0	1	0.630000114441	None	None	None	None	1
1.7	2015_Jul_20_1613	s	s	3	1	SIC	279	RC	2	2	23VD	1	0	0.831796884537	178.0	-25.0	171	-32	1
1.7	2015_Jul_20_1613	s	s	3	1	SIC	280	ABS	1	1	24MO	0	1	4.3189702034	None	None	None	None	1
1.7	2015_Jul_20_1613	s	s	3	1	SIC	281	RC	0	1	23RO	0	1	3.90726995468	441.0	-50.0	None	None	0
1.7	2015_Jul_20_1613	s	s	3	1	SIC	282	RC	1	0	23MC	1	0	4.0333070755	-115.0	-381.0	-118	-372	1
1.7	2015_Jul_20_1613	s	s	3	1	SIC	283	RC	2	1	23VO	1	0	0.818395853043	-328.0	-382.0	-322	-378	1
1.7	2015_Jul_20_1613	s	s	3	1	SIC	284	ABS	0	2	24RD	0	1	1.22344899178	None	None	None	None	1
1.7	2015_Jul_20_1613	s	s	3	1	SIC	285	RC	2	0	23VC	1	0	0.723769903183	-476.0	13.0	-468	10	1
1.7	2015_Jul_20_1613	s	s	3	1	SIC	286	ABS	2	0	24VC	0	1	0.776221990585	None	None	None	None	1
1.7	2015_Jul_20_1613	s	s	3	1	SIC	287	ABS	1	2	24MD	0	1	1.19672703743	None	None	None	None	1
1.7	2015_Jul_20_1613	s	s	3	1	SIC	288	ABS	0	1	24RO	0	1	3.04299807549	None	None	None	None	1
1.7	2015_Jul_20_1613	s	s	3	1	SIC	289	RC	2	1	23VO	1	0	0.858503103256	441.0	60.0	444	55	1
1.7	2015_Jul_20_1613	s	s	3	1	SIC	290	RC	2	2	23VD	1	0	0.717349052429	538.0	283.0	540	275	1
1.7	2015_Jul_20_1613	s	s	3	1	SIC	291	RC	2	0	23VC	1	0	0.705546140671	-307.0	-165.0	-304	-169	1
1.7	2015_Jul_20_1613	s	s	3	1	SIC	292	ABS	1	0	24MC	0	1	4.74995207787	None	None	None	None	1
1.7	2015_Jul_20_1613	s	s	3	1	SIC	293	RC	1	2	23MD	1	0	1.03034090996	250.0	-319.0	255	-312	1
1.7	2015_Jul_20_1613	s	s	3	1	SIC	294	ABS	0	2	24RD	0	1	1.70117092133	None	None	None	None	1
1.7	2015_Jul_20_1613	s	s	3	1	SIC	295	ABS	2	0	24VC	0	1	0.705626964569	None	None	None	None	1
1.7	2015_Jul_20_1613	s	s	3	1	SIC	296	ABS	2	1	24VO	0	1	0.587834119797	None	None	None	None	1
1.7	2015_Jul_20_1613	s	s	3	1	SIC	297	RC	0	2	23RD	1	0	1.11764097214	422.0	252.0	428	251	1
1.7	2015_Jul_20_1613	s	s	3	1	SIC	298	RC	0	1	23RO	1	0	2.69853305817	244.0	-151.0	242	-145	1
1.7	2015_Jul_20_1613	s	s	3	1	SIC	299	ABS	0	1	24RO	1	0	6.9861369133	None	None	38	-5	0
1.7	2015_Jul_20_1613	s	s	3	1	SIC	300	RC	1	1	23MO	1	0	2.06290912628	-365.0	-45.0	-358	-45	1
1.7	2015_Jul_20_1613	s	s	3	1	SIC	301	RC	1	0	23MC	1	0	5.81404995918	-212.0	410.0	-209	416	1
1.7	2015_Jul_20_1613	s	s	3	1	SIC	302	ABS	2	2	24VD	0	1	0.717214822769	None	None	None	None	1
1.7	2015_Jul_20_1613	s	s	3	1	SIC	303	ABS	1	2	24MD	0	1	1.48923492432	None	None	None	None	1
1.7	2015_Jul_20_1613	s	s	3	1	SIC	304	ABS	1	1	24MO	0	1	4.50041890144	None	None	None	None	1
1.7	2015_Jul_20_1613	s	s	3	1	SIC	305	ABS	0	2	24RD	0	1	1.17697787285	None	None	None	None	1
1.7	2015_Jul_20_1613	s	s	3	1	SIC	306	ABS	1	0	24MC	0	1	3.96273303032	None	None	None	None	1
1.7	2015_Jul_20_1613	s	s	3	1	SIC	307	RC	0	2	23RD	1	0	1.21847200394	-539.0	197.0	-542	193	1
1.7	2015_Jul_20_1613	s	s	3	1	SIC	308	RC	1	0	23MC	1	0	2.00729799271	-25.0	-105.0	-27	-115	1
1.7	2015_Jul_20_1613	s	s	3	1	SIC	309	ABS	1	1	24MO	0	1	5.39709210396	None	None	None	None	1
1.7	2015_Jul_20_1613	s	s	3	1	SIC	310	RC	1	1	23MO	1	0	0.882180929184	127.0	37.0	121	44	1
1.7	2015_Jul_20_1613	s	s	3	1	SIC	311	RC	0	1	23RO	0	1	6.12684702873	539.0	-265.0	None	None	0
1.7	2015_Jul_20_1613	s	s	3	1	SIC	312	ABS	2	2	24VD	0	1	0.747668027878	None	None	None	None	1
1.7	2015_Jul_20_1613	s	s	3	1	SIC	313	RC	2	1	23VO	1	0	0.912430047989	-431.0	179.0	-434	177	1
1.7	2015_Jul_20_1613	s	s	3	1	SIC	314	ABS	0	1	24RO	0	1	4.85560894012	None	None	None	None	1
1.7	2015_Jul_20_1613	s	s	3	1	SIC	315	ABS	1	2	24MD	0	1	1.18818497658	None	None	None	None	1
1.7	2015_Jul_20_1613	s	s	3	1	SIC	316	RC	2	0	23VC	1	0	1.31767201424	-216.0	178.0	-215	179	1
1.7	2015_Jul_20_1613	s	s	3	1	SIC	317	RC	1	2	23MD	1	0	3.78442811966	463.0	-305.0	463	-312	1
1.7	2015_Jul_20_1613	s	s	3	1	SIC	318	ABS	2	1	24VO	0	1	3.20097303391	None	None	None	None	1
1.7	2015_Jul_20_1613	s	s	3	1	SIC	319	ABS	2	0	24VC	0	1	0.819025993347	None	None	None	None	1
1.7	2015_Jul_20_1613	s	s	3	1	SIC	320	RC	2	2	23VD	1	0	0.905706882477	342.0	-402.0	345	-402	1
1.7	2015_Jul_20_1613	s	s	3	1	SIC	321	ABS	0	1	24RO	0	1	4.64377498627	None	None	None	None	1
1.7	2015_Jul_20_1613	s	s	3	1	SIC	322	ABS	1	2	24MD	0	1	1.28933000565	None	None	None	None	1
1.7	2015_Jul_20_1613	s	s	3	1	SIC	323	RC	1	0	23MC	0	1	2.08275389671	-476.0	-236.0	None	None	0
1.7	2015_Jul_20_1613	s	s	3	1	SIC	324	RC	2	1	23VO	1	0	0.941032886505	448.0	153.0	445	154	1
1.7	2015_Jul_20_1613	s	s	3	1	SIC	325	RC	0	1	23RO	0	1	4.63714694977	247.0	-286.0	None	None	0
1.7	2015_Jul_20_1613	s	s	3	1	SIC	326	RC	1	2	23MD	1	0	0.846821069717	495.0	288.0	491	290	1
1.7	2015_Jul_20_1613	s	s	3	1	SIC	327	ABS	1	0	24MC	0	1	5.19870209694	None	None	None	None	1
1.7	2015_Jul_20_1613	s	s	3	1	SIC	328	ABS	2	1	24VO	0	1	0.976406812668	None	None	None	None	1
1.7	2015_Jul_20_1613	s	s	3	1	SIC	329	RC	2	0	23VC	1	0	1.21180200577	-300.0	-371.0	-299	-376	1
1.7	2015_Jul_20_1613	s	s	3	1	SIC	330	ABS	2	0	24VC	0	1	1.13600802422	None	None	None	None	1
1.7	2015_Jul_20_1613	s	s	3	1	SIC	331	RC	0	2	23RD	1	0	0.830271959305	-92.0	-274.0	-96	-277	1
1.7	2015_Jul_20_1613	s	s	3	1	SIC	332	ABS	0	2	24RD	0	1	1.60703206062	None	None	None	None	1
1.7	2015_Jul_20_1613	s	s	3	1	SIC	333	RC	1	1	23MO	1	0	0.794654846191	-155.0	-220.0	-149	-221	1
1.7	2015_Jul_20_1613	s	s	3	1	SIC	334	RC	2	2	23VD	1	0	0.811486959457	-459.0	-214.0	-456	-213	1
1.7	2015_Jul_20_1613	s	s	3	1	SIC	335	ABS	2	2	24VD	0	1	1.00651311874	None	None	None	None	1
1.7	2015_Jul_20_1613	s	s	3	1	SIC	336	ABS	1	1	24MO	0	1	5.5023329258	None	None	None	None	1
1.7	2015_Jul_20_1613	s	s	3	1	SIC	337	RC	0	2	23RD	1	0	1.28930187225	495.0	169.0	501	165	1
1.7	2015_Jul_20_1613	s	s	3	1	SIC	338	RC	1	0	23MC	1	0	1.79518008232	359.0	144.0	357	143	1
1.7	2015_Jul_20_1613	s	s	3	1	SIC	339	ABS	2	1	24VO	0	1	1.05411815643	None	None	None	None	1
1.7	2015_Jul_20_1613	s	s	3	1	SIC	340	ABS	1	1	24MO	0	1	3.00751519203	None	None	None	None	1
1.7	2015_Jul_20_1613	s	s	3	1	SIC	341	ABS	1	2	24MD	0	1	0.925186157227	None	None	None	None	1
1.7	2015_Jul_20_1613	s	s	3	1	SIC	342	RC	2	2	23VD	1	0	0.752729892731	183.0	405.0	173	409	1
1.7	2015_Jul_20_1613	s	s	3	1	SIC	343	RC	1	1	23MO	1	0	4.31916999817	132.0	224.0	131	218	1
1.7	2015_Jul_20_1613	s	s	3	1	SIC	344	RC	0	1	23RO	1	0	1.564909935	-320.0	199.0	-328	196	1
1.7	2015_Jul_20_1613	s	s	3	1	SIC	345	ABS	0	2	24RD	0	1	1.41839313507	None	None	None	None	1
1.7	2015_Jul_20_1613	s	s	3	1	SIC	346	RC	2	0	23VC	1	0	1.23034596443	-305.0	-381.0	-296	-382	1
1.7	2015_Jul_20_1613	s	s	3	1	SIC	347	ABS	2	0	24VC	0	1	0.806507110596	None	None	None	None	1
1.7	2015_Jul_20_1613	s	s	3	1	SIC	348	ABS	1	0	24MC	0	1	2.87806391716	None	None	None	None	1
1.7	2015_Jul_20_1613	s	s	3	1	SIC	349	ABS	2	2	24VD	0	1	0.564368963242	None	None	None	None	1
1.7	2015_Jul_20_1613	s	s	3	1	SIC	350	RC	2	1	23VO	1	0	1.0116341114	-342.0	-63.0	-332	-61	1
1.7	2015_Jul_20_1613	s	s	3	1	SIC	351	RC	1	2	23MD	1	0	1.21154999733	-394.0	-310.0	-389	-310	1
1.7	2015_Jul_20_1613	s	s	3	1	SIC	352	ABS	0	1	24RO	0	1	4.62524414062	None	None	None	None	1
1.7	2015_Jul_20_1613	s	s	3	1	SIC	353	ABS	1	1	24MO	0	1	6.97923183441	None	None	None	None	1
1.7	2015_Jul_20_1613	s	s	3	1	SIC	354	ABS	1	2	24MD	0	1	1.90665411949	None	None	None	None	1
1.7	2015_Jul_20_1613	s	s	3	1	SIC	355	RC	1	0	23MC	0	1	3.73108100891	327.0	-248.0	None	None	0
1.7	2015_Jul_20_1613	s	s	3	1	SIC	356	RC	0	1	23RO	0	1	5.10323500633	-503.0	-31.0	None	None	0
1.7	2015_Jul_20_1613	s	s	3	1	SIC	357	ABS	2	2	24VD	0	1	0.611531972885	None	None	None	None	1
1.7	2015_Jul_20_1613	s	s	3	1	SIC	358	ABS	2	0	24VC	0	1	0.846915960312	None	None	None	None	1
1.7	2015_Jul_20_1613	s	s	3	1	SIC	359	RC	2	2	23VD	1	0	1.13598394394	-315.0	301.0	-309	298	1
1.7	2015_Jul_20_1613	s	s	3	1	SIC	360	RC	1	1	23MO	1	0	1.93365693092	189.0	-332.0	189	-337	1
1.7	2015_Jul_20_1613	s	s	3	1	SIC	361	RC	2	0	23VC	1	0	0.712040185928	-50.0	402.0	-53	402	1
1.7	2015_Jul_20_1613	s	s	3	1	SIC	362	ABS	2	1	24VO	0	1	0.92923116684	None	None	None	None	1
1.7	2015_Jul_20_1613	s	s	3	1	SIC	363	RC	0	2	23RD	1	0	0.856125831604	-24.0	304.0	-26	298	1
1.7	2015_Jul_20_1613	s	s	3	1	SIC	364	RC	2	1	23VO	1	0	0.587766885757	-306.0	139.0	-306	125	1
1.7	2015_Jul_20_1613	s	s	3	1	SIC	365	ABS	1	0	24MC	0	1	3.88366794586	None	None	None	None	1
1.7	2015_Jul_20_1613	s	s	3	1	SIC	366	ABS	0	2	24RD	0	1	1.14809513092	None	None	None	None	1
1.7	2015_Jul_20_1613	s	s	3	1	SIC	367	ABS	0	1	24RO	0	1	3.91898202896	None	None	None	None	1
1.7	2015_Jul_20_1613	s	s	3	1	SIC	368	RC	1	2	23MD	1	0	0.855103969574	-190.0	262.0	-190	253	1
1.7	2015_Jul_20_1613	s	s	3	1	SIC	369	ABS	1	2	24MD	0	1	1.73872113228	None	None	None	None	1
1.7	2015_Jul_20_1613	s	s	3	1	SIC	370	ABS	0	2	24RD	0	1	1.62371587753	None	None	None	None	1
1.7	2015_Jul_20_1613	s	s	3	1	SIC	371	RC	2	1	23VO	1	0	0.890027999878	494.0	-212.0	493	-205	1
1.7	2015_Jul_20_1613	s	s	3	1	SIC	372	ABS	1	0	24MC	0	1	3.99333095551	None	None	None	None	1
1.7	2015_Jul_20_1613	s	s	3	1	SIC	373	ABS	1	1	24MO	0	1	4.71556591988	None	None	None	None	1
1.7	2015_Jul_20_1613	s	s	3	1	SIC	374	RC	2	0	23VC	1	0	0.910889148712	-104.0	-366.0	-103	-361	1
1.7	2015_Jul_20_1613	s	s	3	1	SIC	375	RC	1	0	23MC	1	0	1.11198616028	-35.0	-249.0	-40	-243	1
1.7	2015_Jul_20_1613	s	s	3	1	SIC	376	ABS	0	1	24RO	0	1	4.37340211868	None	None	None	None	1
1.7	2015_Jul_20_1613	s	s	3	1	SIC	377	ABS	2	2	24VD	0	1	0.611420869827	None	None	None	None	1
1.7	2015_Jul_20_1613	s	s	3	1	SIC	378	RC	1	2	23MD	1	0	1.04691100121	-239.0	-136.0	-236	-135	1
1.7	2015_Jul_20_1613	s	s	3	1	SIC	379	ABS	2	1	24VO	0	1	2.70167088509	None	None	None	None	1
1.7	2015_Jul_20_1613	s	s	3	1	SIC	380	ABS	2	0	24VC	0	1	0.630209922791	None	None	None	None	1
1.7	2015_Jul_20_1613	s	s	3	1	SIC	381	RC	0	2	23RD	1	0	1.21855902672	246.0	-215.0	247	-210	1
1.7	2015_Jul_20_1613	s	s	3	1	SIC	382	RC	2	2	23VD	1	0	0.712410926819	-17.0	284.0	-17	280	1
1.7	2015_Jul_20_1613	s	s	3	1	SIC	383	RC	0	1	23RO	0	1	3.96637916565	-165.0	135.0	None	None	0
1.7	2015_Jul_20_1613	s	s	3	1	SIC	384	RC	1	1	23MO	1	0	1.10190200806	-129.0	280.0	-120	289	1
1.7	2015_Jul_20_1613	s	s	3	1	SIC	385	ABS	1	0	24MC	0	1	4.06061196327	None	None	None	None	1
1.7	2015_Jul_20_1613	s	s	3	1	SIC	386	RC	1	1	23MO	1	0	2.04743719101	-402.0	-210.0	-396	-209	1
1.7	2015_Jul_20_1613	s	s	3	1	SIC	387	RC	2	1	23VO	1	0	0.658503055573	4.0	78.0	9	77	1
1.7	2015_Jul_20_1613	s	s	3	1	SIC	388	ABS	2	1	24VO	0	1	0.982687950134	None	None	None	None	1
1.7	2015_Jul_20_1613	s	s	3	1	SIC	389	RC	2	0	23VC	1	0	0.909440040588	474.0	-336.0	484	-337	1
1.7	2015_Jul_20_1613	s	s	3	1	SIC	390	RC	1	2	23MD	1	0	1.20032119751	-426.0	347.0	-415	347	1
1.7	2015_Jul_20_1613	s	s	3	1	SIC	391	ABS	2	2	24VD	0	1	0.912441968918	None	None	None	None	1
1.7	2015_Jul_20_1613	s	s	3	1	SIC	392	ABS	1	2	24MD	0	1	2.1147840023	None	None	None	None	1
1.7	2015_Jul_20_1613	s	s	3	1	SIC	393	ABS	2	0	24VC	0	1	0.723965167999	None	None	None	None	1
1.7	2015_Jul_20_1613	s	s	3	1	SIC	394	ABS	1	1	24MO	0	1	5.45582103729	None	None	None	None	1
1.7	2015_Jul_20_1613	s	s	3	1	SIC	395	RC	0	2	23RD	1	0	0.926553964615	137.0	206.0	131	207	1
1.7	2015_Jul_20_1613	s	s	3	1	SIC	396	RC	2	2	23VD	1	0	0.635009050369	54.0	98.0	48	91	1
1.7	2015_Jul_20_1613	s	s	3	1	SIC	397	ABS	0	2	24RD	0	1	2.11311292648	None	None	None	None	1
1.7	2015_Jul_20_1613	s	s	3	1	SIC	398	ABS	0	1	24RO	0	1	3.98553991318	None	None	None	None	1
1.7	2015_Jul_20_1613	s	s	3	1	SIC	399	RC	1	0	23MC	1	0	2.40052580833	301.0	299.0	299	302	1
1.7	2015_Jul_20_1613	s	s	3	1	SIC	400	RC	0	1	23RO	1	0	4.70255899429	-336.0	59.0	-343	58	1
1.7	2015_Jul_20_1613	s	s	3	1	SIC	401	ABS	2	1	24VO	0	1	0.752671003342	None	None	None	None	1
1.7	2015_Jul_20_1613	s	s	3	1	SIC	402	ABS	2	0	24VC	0	1	0.571335792542	None	None	None	None	1
1.7	2015_Jul_20_1613	s	s	3	1	SIC	403	ABS	0	1	24RO	0	1	4.22502708435	None	None	None	None	1
1.7	2015_Jul_20_1613	s	s	3	1	SIC	404	RC	2	1	23VO	1	0	1.21839094162	224.0	329.0	221	334	1
1.7	2015_Jul_20_1613	s	s	3	1	SIC	405	ABS	1	1	24MO	0	1	3.66919922829	None	None	None	None	1
1.7	2015_Jul_20_1613	s	s	3	1	SIC	406	RC	0	2	23RD	1	0	1.26652193069	169.0	-370.0	168	-380	1
1.7	2015_Jul_20_1613	s	s	3	1	SIC	407	ABS	0	2	24RD	0	1	1.47059011459	None	None	None	None	1
1.7	2015_Jul_20_1613	s	s	3	1	SIC	408	RC	1	2	23MD	1	0	0.691163063049	72.0	81.0	77	82	1
1.7	2015_Jul_20_1613	s	s	3	1	SIC	409	RC	2	2	23VD	1	0	0.794600009918	-503.0	-366.0	-505	-366	1
1.7	2015_Jul_20_1613	s	s	3	1	SIC	410	ABS	1	2	24MD	0	1	1.43541717529	None	None	None	None	1
1.7	2015_Jul_20_1613	s	s	3	1	SIC	411	ABS	1	0	24MC	0	1	2.50195598602	None	None	None	None	1
1.7	2015_Jul_20_1613	s	s	3	1	SIC	412	RC	1	0	23MC	0	1	2.18871188164	163.0	-279.0	None	None	0
1.7	2015_Jul_20_1613	s	s	3	1	SIC	413	RC	2	0	23VC	1	0	0.912286043167	386.0	14.0	389	9	1
1.7	2015_Jul_20_1613	s	s	3	1	SIC	414	RC	0	1	23RO	1	0	1.63105106354	-16.0	165.0	-13	160	1
1.7	2015_Jul_20_1613	s	s	3	1	SIC	415	ABS	2	2	24VD	0	1	0.717429161072	None	None	None	None	1
1.7	2015_Jul_20_1613	s	s	3	1	SIC	416	RC	1	1	23MO	1	0	1.45896291733	111.0	314.0	110	312	1
1.7	2015_Jul_20_1613	s	s	3	1	SIC	417	RC	2	1	23VO	1	0	0.700432062149	282.0	391.0	288	392	1
1.7	2015_Jul_20_1613	s	s	3	1	SIC	418	ABS	2	1	24VO	0	1	1.02337694168	None	None	None	None	1
1.7	2015_Jul_20_1613	s	s	3	1	SIC	419	RC	1	2	23MD	1	0	0.756209850311	339.0	409.0	347	410	1
1.7	2015_Jul_20_1613	s	s	3	1	SIC	420	ABS	2	2	24VD	0	1	0.700855970383	None	None	None	None	1
1.7	2015_Jul_20_1613	s	s	3	1	SIC	421	ABS	1	0	24MC	0	1	3.31361794472	None	None	None	None	1
1.7	2015_Jul_20_1613	s	s	3	1	SIC	422	ABS	0	1	24RO	0	1	4.13119506836	None	None	None	None	1
1.7	2015_Jul_20_1613	s	s	3	1	SIC	423	ABS	0	2	24RD	0	1	1.1882109642	None	None	None	None	1
1.7	2015_Jul_20_1613	s	s	3	1	SIC	424	ABS	2	0	24VC	0	1	0.59493803978	None	None	None	None	1
1.7	2015_Jul_20_1613	s	s	3	1	SIC	425	RC	2	2	23VD	1	0	0.78258895874	-429.0	31.0	-418	31	1
1.7	2015_Jul_20_1613	s	s	3	1	SIC	426	ABS	1	2	24MD	0	1	1.22879505157	None	None	None	None	1
1.7	2015_Jul_20_1613	s	s	3	1	SIC	427	ABS	1	1	24MO	0	1	4.59027695656	None	None	None	None	1
1.7	2015_Jul_20_1613	s	s	3	1	SIC	428	RC	2	0	23VC	1	0	1.67082285881	153.0	317.0	155	317	1
1.7	2015_Jul_20_1613	s	s	3	1	SIC	429	RC	0	1	23RO	0	1	3.85533714294	402.0	-54.0	None	None	0
1.7	2015_Jul_20_1613	s	s	3	1	SIC	430	RC	1	1	23MO	0	1	3.0832631588	-496.0	-276.0	None	None	0
1.7	2015_Jul_20_1613	s	s	3	1	SIC	431	RC	1	0	23MC	1	0	4.70424985886	45.0	-114.0	48	-118	1
1.7	2015_Jul_20_1613	s	s	3	1	SIC	432	RC	0	2	23RD	1	0	0.735754966736	91.0	-25.0	84	-32	1
1.7	2015_Jul_20_1613	s	s	3	1	SIC	433	RC	1	0	23MC	0	1	5.75007104874	-198.0	215.0	None	None	0
1.7	2015_Jul_20_1613	s	s	3	1	SIC	434	ABS	2	2	24VD	0	1	0.805150032043	None	None	None	None	1
1.7	2015_Jul_20_1613	s	s	3	1	SIC	435	ABS	1	1	24MO	0	1	5.64922904968	None	None	None	None	1
1.7	2015_Jul_20_1613	s	s	3	1	SIC	436	RC	1	2	23MD	1	0	1.45924496651	256.0	125.0	264	125	1
1.7	2015_Jul_20_1613	s	s	3	1	SIC	437	ABS	2	0	24VC	0	1	0.890330076218	None	None	None	None	1
1.7	2015_Jul_20_1613	s	s	3	1	SIC	438	RC	2	1	23VO	1	0	0.74094080925	483.0	-67.0	481	-62	1
1.7	2015_Jul_20_1613	s	s	3	1	SIC	439	ABS	0	2	24RD	0	1	1.84232497215	None	None	None	None	1
1.7	2015_Jul_20_1613	s	s	3	1	SIC	440	RC	2	0	23VC	1	0	0.670170068741	-86.0	67.0	-86	59	1
1.7	2015_Jul_20_1613	s	s	3	1	SIC	441	ABS	0	1	24RO	0	1	5.49139285088	None	None	None	None	1
1.7	2015_Jul_20_1613	s	s	3	1	SIC	442	ABS	1	0	24MC	0	1	4.51441502571	None	None	None	None	1
1.7	2015_Jul_20_1613	s	s	3	1	SIC	443	RC	2	2	23VD	1	0	0.961898803711	512.0	304.0	508	305	1
1.7	2015_Jul_20_1613	s	s	3	1	SIC	444	RC	0	1	23RO	1	0	3.14243602753	2.0	-248.0	5	-256	1
1.7	2015_Jul_20_1613	s	s	3	1	SIC	445	RC	1	1	23MO	1	0	2.91362214088	277.0	-210.0	285	-203	1
1.7	2015_Jul_20_1613	s	s	3	1	SIC	446	ABS	2	1	24VO	0	1	1.07042002678	None	None	None	None	1
1.7	2015_Jul_20_1613	s	s	3	1	SIC	447	RC	0	2	23RD	1	0	1.19996500015	-318.0	360.0	-322	361	1
1.7	2015_Jul_20_1613	s	s	3	1	SIC	448	ABS	1	2	24MD	0	1	1.50604009628	None	None	None	None	1
1.7	2015_Jul_20_1613	s	s	3	1	SIC	449	RC	2	2	23VD	1	0	0.852687835693	-325.0	182.0	-323	167	1
1.7	2015_Jul_20_1613	s	s	3	1	SIC	450	RC	2	1	23VO	1	0	1.75983691216	129.0	401.0	129	400	1
1.7	2015_Jul_20_1613	s	s	3	1	SIC	451	ABS	1	1	24MO	1	0	4.88784694672	None	None	-118	-67	0
1.7	2015_Jul_20_1613	s	s	3	1	SIC	452	RC	1	1	23MO	1	0	1.47745609283	113.0	-19.0	122	-17	1
1.7	2015_Jul_20_1613	s	s	3	1	SIC	453	RC	0	2	23RD	1	0	0.958943128586	218.0	-313.0	219	-317	1
1.7	2015_Jul_20_1613	s	s	3	1	SIC	454	ABS	2	1	24VO	0	1	0.712327957153	None	None	None	None	1
1.7	2015_Jul_20_1613	s	s	3	1	SIC	455	ABS	0	1	24RO	0	1	7.3056499958	None	None	None	None	1
1.7	2015_Jul_20_1613	s	s	3	1	SIC	456	RC	1	2	23MD	1	0	2.14822602272	148.0	124.0	144	124	1
1.7	2015_Jul_20_1613	s	s	3	1	SIC	457	RC	0	1	23RO	0	1	5.2316570282	463.0	144.0	None	None	0
1.7	2015_Jul_20_1613	s	s	3	1	SIC	458	ABS	2	0	24VC	0	1	0.736475944519	None	None	None	None	1
1.7	2015_Jul_20_1613	s	s	3	1	SIC	459	ABS	1	2	24MD	0	1	0.72908616066	None	None	None	None	1
1.7	2015_Jul_20_1613	s	s	3	1	SIC	460	RC	2	0	23VC	1	0	0.68244600296	-280.0	47.0	-276	48	1
1.7	2015_Jul_20_1613	s	s	3	1	SIC	461	ABS	1	0	24MC	0	1	2.72502613068	None	None	None	None	1
1.7	2015_Jul_20_1613	s	s	3	1	SIC	462	ABS	2	2	24VD	0	1	0.606512069702	None	None	None	None	1
1.7	2015_Jul_20_1613	s	s	3	1	SIC	463	RC	1	0	23MC	0	1	2.64814901352	173.0	-391.0	None	None	0
1.7	2015_Jul_20_1613	s	s	3	1	SIC	464	ABS	0	2	24RD	0	1	0.682053089142	None	None	None	None	1
1.7	2015_Jul_20_1613	s	s	3	1	SIC	465	ABS	2	1	24VO	0	1	0.561708927155	None	None	None	None	1
1.7	2015_Jul_20_1613	s	s	3	1	SIC	466	ABS	1	2	24MD	0	1	0.736330032349	None	None	None	None	1
1.7	2015_Jul_20_1613	s	s	3	1	SIC	467	RC	0	2	23RD	1	0	0.788358926773	176.0	224.0	173	220	1
1.7	2015_Jul_20_1613	s	s	3	1	SIC	468	RC	2	2	23VD	1	0	0.782782793045	-232.0	-88.0	-236	-86	1
1.7	2015_Jul_20_1613	s	s	3	1	SIC	469	RC	0	1	23RO	0	1	4.33754491806	217.0	-270.0	None	None	0
1.7	2015_Jul_20_1613	s	s	3	1	SIC	470	ABS	1	1	24MO	0	1	5.44917488098	None	None	None	None	1
1.7	2015_Jul_20_1613	s	s	3	1	SIC	471	ABS	2	0	24VC	0	1	0.642175912857	None	None	None	None	1
1.7	2015_Jul_20_1613	s	s	3	1	SIC	472	RC	1	1	23MO	1	0	1.28917098045	-236.0	210.0	-227	207	1
1.7	2015_Jul_20_1613	s	s	3	1	SIC	473	ABS	0	2	24RD	0	1	1.07740688324	None	None	None	None	1
1.7	2015_Jul_20_1613	s	s	3	1	SIC	474	RC	2	1	23VO	1	0	1.21853804588	214.0	152.0	213	148	1
1.7	2015_Jul_20_1613	s	s	3	1	SIC	475	ABS	0	1	24RO	0	1	4.42507100105	None	None	None	None	1
1.7	2015_Jul_20_1613	s	s	3	1	SIC	476	ABS	1	0	24MC	0	1	3.05973792076	None	None	None	None	1
1.7	2015_Jul_20_1613	s	s	3	1	SIC	477	RC	1	0	23MC	1	0	2.41781187057	205.0	341.0	208	343	1
1.7	2015_Jul_20_1613	s	s	3	1	SIC	478	RC	2	0	23VC	1	0	0.665215969086	-499.0	-309.0	-493	-317	1
1.7	2015_Jul_20_1613	s	s	3	1	SIC	479	ABS	2	2	24VD	0	1	0.797060012817	None	None	None	None	1
1.7	2015_Jul_20_1613	s	s	3	1	SIC	480	RC	1	2	23MD	1	0	1.30589294434	119.0	-379.0	124	-387	1
1.7	2015_Jul_20_1613	s	s	3	1	SIC	481	ABS	2	2	24VD	0	1	0.705647945404	None	None	None	None	1
1.7	2015_Jul_20_1613	s	s	3	1	SIC	482	ABS	2	1	24VO	0	1	0.63169503212	None	None	None	None	1
1.7	2015_Jul_20_1613	s	s	3	1	SIC	483	RC	2	0	23VC	1	0	0.747788906097	-179.0	-96.0	-176	-93	1
1.7	2015_Jul_20_1613	s	s	3	1	SIC	484	RC	1	2	23MD	1	0	0.69366312027	-118.0	399.0	-118	398	1
1.7	2015_Jul_20_1613	s	s	3	1	SIC	485	RC	2	1	23VO	1	0	0.799775123596	186.0	-362.0	189	-372	1
1.7	2015_Jul_20_1613	s	s	3	1	SIC	486	ABS	1	2	24MD	0	1	2.06779813766	None	None	None	None	1
1.7	2015_Jul_20_1613	s	s	3	1	SIC	487	ABS	2	0	24VC	0	1	0.740828990936	None	None	None	None	1
1.7	2015_Jul_20_1613	s	s	3	1	SIC	488	ABS	1	0	24MC	0	1	1.20708608627	None	None	None	None	1
1.7	2015_Jul_20_1613	s	s	3	1	SIC	489	RC	1	1	23MO	1	0	1.18329906464	66.0	387.0	68	390	1
1.7	2015_Jul_20_1613	s	s	3	1	SIC	490	ABS	0	1	24RO	0	1	4.40159296989	None	None	None	None	1
1.7	2015_Jul_20_1613	s	s	3	1	SIC	491	RC	2	2	23VD	1	0	0.752679824829	333.0	-99.0	330	-111	1
1.7	2015_Jul_20_1613	s	s	3	1	SIC	492	RC	1	0	23MC	1	0	2.71837615967	-260.0	110.0	-260	109	1
1.7	2015_Jul_20_1613	s	s	3	1	SIC	493	RC	0	1	23RO	0	1	4.00804209709	377.0	-1.0	None	None	0
1.7	2015_Jul_20_1613	s	s	3	1	SIC	494	RC	0	2	23RD	1	0	0.834988117218	-367.0	134.0	-366	123	1
1.7	2015_Jul_20_1613	s	s	3	1	SIC	495	ABS	1	1	24MO	0	1	3.69086384773	None	None	None	None	1
1.7	2015_Jul_20_1613	s	s	3	1	SIC	496	ABS	0	2	24RD	0	1	0.909366846085	None	None	None	None	1
1.7	2015_Jul_20_1613	s	s	3	1	SIC	497	ABS	1	2	24MD	0	1	0.788028001785	None	None	None	None	1
1.7	2015_Jul_20_1613	s	s	3	1	SIC	498	ABS	2	2	24VD	0	1	0.61136007309	None	None	None	None	1
1.7	2015_Jul_20_1613	s	s	3	1	SIC	499	RC	2	2	23VD	1	0	0.92400598526	199.0	144.0	201	142	1
1.7	2015_Jul_20_1613	s	s	3	1	SIC	500	RC	1	1	23MO	1	0	1.21863484383	24.0	-218.0	22	-218	1
1.7	2015_Jul_20_1613	s	s	3	1	SIC	501	RC	2	0	23VC	1	0	1.10578107834	528.0	-227.0	526	-222	1
1.7	2015_Jul_20_1613	s	s	3	1	SIC	502	RC	1	0	23MC	0	1	3.98701095581	34.0	-393.0	None	None	0
1.7	2015_Jul_20_1613	s	s	3	1	SIC	503	ABS	1	1	24MO	0	1	3.18552684784	None	None	None	None	1
1.7	2015_Jul_20_1613	s	s	3	1	SIC	504	ABS	2	0	24VC	0	1	0.599730968475	None	None	None	None	1
1.7	2015_Jul_20_1613	s	s	3	1	SIC	505	RC	0	1	23RO	1	0	3.5726339817	386.0	-392.0	381	-397	1
1.7	2015_Jul_20_1613	s	s	3	1	SIC	506	RC	1	2	23MD	1	0	0.815185070038	443.0	-347.0	443	-354	1
1.7	2015_Jul_20_1613	s	s	3	1	SIC	507	RC	2	1	23VO	1	0	0.600111961365	510.0	377.0	502	373	1
1.7	2015_Jul_20_1613	s	s	3	1	SIC	508	ABS	1	0	24MC	0	1	4.60855007172	None	None	None	None	1
1.7	2015_Jul_20_1613	s	s	3	1	SIC	509	RC	0	2	23RD	1	0	1.02342700958	-489.0	125.0	-493	122	1
1.7	2015_Jul_20_1613	s	s	3	1	SIC	510	ABS	2	1	24VO	0	1	0.994898080826	None	None	None	None	1
1.7	2015_Jul_20_1613	s	s	3	1	SIC	511	ABS	0	1	24RO	0	1	4.60169100761	None	None	None	None	1
1.7	2015_Jul_20_1613	s	s	3	1	SIC	512	ABS	0	2	24RD	0	1	1.01162004471	None	None	None	None	1
1.7	2015_Jul_20_1613	s	s	3	1	SIC	513	ABS	0	2	24RD	0	1	0.788008928299	None	None	None	None	1
1.7	2015_Jul_20_1613	s	s	3	1	SIC	514	ABS	0	1	24RO	0	1	3.09498310089	None	None	None	None	1
1.7	2015_Jul_20_1613	s	s	3	1	SIC	515	RC	1	1	23MO	1	0	1.33641815186	-397.0	311.0	-390	313	1
1.7	2015_Jul_20_1613	s	s	3	1	SIC	516	RC	2	2	23VD	1	0	0.830124855042	358.0	113.0	363	105	1
1.7	2015_Jul_20_1613	s	s	3	1	SIC	517	RC	2	0	23VC	1	0	0.51220703125	-24.0	132.0	-29	124	1
1.7	2015_Jul_20_1613	s	s	3	1	SIC	518	ABS	2	2	24VD	0	1	0.846915006638	None	None	None	None	1
1.7	2015_Jul_20_1613	s	s	3	1	SIC	519	RC	0	1	23RO	1	0	2.29465508461	-519.0	-284.0	-518	-281	1
1.7	2015_Jul_20_1613	s	s	3	1	SIC	520	RC	1	2	23MD	1	0	0.752660989761	110.0	366.0	113	366	1
1.7	2015_Jul_20_1613	s	s	3	1	SIC	521	RC	1	0	23MC	1	0	5.08427405357	92.0	155.0	87	150	1
1.7	2015_Jul_20_1613	s	s	3	1	SIC	522	ABS	1	1	24MO	0	1	4.27943205833	None	None	None	None	1
1.7	2015_Jul_20_1613	s	s	3	1	SIC	523	ABS	2	0	24VC	0	1	0.606574058533	None	None	None	None	1
1.7	2015_Jul_20_1613	s	s	3	1	SIC	524	RC	0	2	23RD	1	0	1.29412007332	-520.0	373.0	-511	378	1
1.7	2015_Jul_20_1613	s	s	3	1	SIC	525	RC	2	1	23VO	1	0	0.587795972824	96.0	241.0	95	237	1
1.7	2015_Jul_20_1613	s	s	3	1	SIC	526	ABS	1	2	24MD	0	1	1.72473907471	None	None	None	None	1
1.7	2015_Jul_20_1613	s	s	3	1	SIC	527	ABS	1	0	24MC	0	1	2.73680186272	None	None	None	None	1
1.7	2015_Jul_20_1613	s	s	3	1	SIC	528	ABS	2	1	24VO	0	1	0.693856954575	None	None	None	None	1
1.7	2015_Jul_20_1613	s	s	3	1	SIC	529	ABS	1	1	24MO	0	1	3.19623208046	None	None	None	None	1
1.7	2015_Jul_20_1613	s	s	3	1	SIC	530	RC	0	2	23RD	1	0	0.712373018265	-236.0	-6.0	-232	-7	1
1.7	2015_Jul_20_1613	s	s	3	1	SIC	531	ABS	2	0	24VC	0	1	0.768224000931	None	None	None	None	1
1.7	2015_Jul_20_1613	s	s	3	1	SIC	532	RC	0	1	23RO	1	0	1.182762146	-321.0	-190.0	-319	-193	1
1.7	2015_Jul_20_1613	s	s	3	1	SIC	533	ABS	0	1	24RO	0	1	4.22016406059	None	None	None	None	1
1.7	2015_Jul_20_1613	s	s	3	1	SIC	534	RC	2	0	23VC	1	0	0.630060911179	-229.0	-138.0	-229	-138	1
1.7	2015_Jul_20_1613	s	s	3	1	SIC	535	ABS	2	1	24VO	0	1	1.09080815315	None	None	None	None	1
1.7	2015_Jul_20_1613	s	s	3	1	SIC	536	ABS	1	0	24MC	0	1	2.84106087685	None	None	None	None	1
1.7	2015_Jul_20_1613	s	s	3	1	SIC	537	ABS	1	2	24MD	0	1	0.717401027679	None	None	None	None	1
1.7	2015_Jul_20_1613	s	s	3	1	SIC	538	RC	2	2	23VD	1	0	0.925270080566	-385.0	191.0	-382	186	1
1.7	2015_Jul_20_1613	s	s	3	1	SIC	539	RC	1	0	23MC	0	1	5.9553630352	-457.0	-347.0	None	None	0
1.7	2015_Jul_20_1613	s	s	3	1	SIC	540	RC	1	1	23MO	1	0	1.65404582024	-240.0	-320.0	-231	-314	1
1.7	2015_Jul_20_1613	s	s	3	1	SIC	541	RC	1	2	23MD	1	0	1.00636291504	-28.0	363.0	-20	362	1
1.7	2015_Jul_20_1613	s	s	3	1	SIC	542	RC	2	1	23VO	1	0	0.510901927948	-501.0	102.0	-504	101	1
1.7	2015_Jul_20_1613	s	s	3	1	SIC	543	ABS	2	2	24VD	0	1	0.770667076111	None	None	None	None	1
1.7	2015_Jul_20_1613	s	s	3	1	SIC	544	ABS	0	2	24RD	0	1	1.59665703773	None	None	None	None	1
1.7	2015_Jul_20_1613	s	s	3	1	SIC	545	RC	1	0	23MC	1	0	1.98864912987	-312.0	58.0	-311	59	1
1.7	2015_Jul_20_1613	s	s	3	1	SIC	546	RC	1	2	23MD	1	0	0.882131099701	-71.0	-176.0	-68	-171	1
1.7	2015_Jul_20_1613	s	s	3	1	SIC	547	RC	2	2	23VD	1	0	0.796838998795	302.0	-70.0	305	-70	1
1.7	2015_Jul_20_1613	s	s	3	1	SIC	548	ABS	2	0	24VC	0	1	0.776192903519	None	None	None	None	1
1.7	2015_Jul_20_1613	s	s	3	1	SIC	549	ABS	0	2	24RD	0	1	0.878774881363	None	None	None	None	1
1.7	2015_Jul_20_1613	s	s	3	1	SIC	550	RC	2	1	23VO	1	0	0.705584049225	-34.0	131.0	-38	123	1
1.7	2015_Jul_20_1613	s	s	3	1	SIC	551	ABS	2	2	24VD	0	1	0.68202495575	None	None	None	None	1
1.7	2015_Jul_20_1613	s	s	3	1	SIC	552	ABS	1	1	24MO	0	1	5.97885394096	None	None	None	None	1
1.7	2015_Jul_20_1613	s	s	3	1	SIC	553	RC	0	1	23RO	0	1	4.53475999832	233.0	27.0	None	None	0
1.7	2015_Jul_20_1613	s	s	3	1	SIC	554	RC	2	0	23VC	1	0	0.658576011658	190.0	-172.0	199	-168	1
1.7	2015_Jul_20_1613	s	s	3	1	SIC	555	ABS	1	2	24MD	0	1	1.79507684708	None	None	None	None	1
1.7	2015_Jul_20_1613	s	s	3	1	SIC	556	RC	0	2	23RD	1	0	0.853635072708	-521.0	130.0	-520	125	1
1.7	2015_Jul_20_1613	s	s	3	1	SIC	557	ABS	1	0	24MC	0	1	1.79519605637	None	None	None	None	1
1.7	2015_Jul_20_1613	s	s	3	1	SIC	558	ABS	0	1	24RO	0	1	4.49573087692	None	None	None	None	1
1.7	2015_Jul_20_1613	s	s	3	1	SIC	559	RC	1	1	23MO	1	0	1.22360301018	-185.0	259.0	-179	260	1
1.7	2015_Jul_20_1613	s	s	3	1	SIC	560	ABS	2	1	24VO	0	1	0.711952924728	None	None	None	None	1
1.7	2015_Jul_20_1613	s	s	3	1	SIC	561	ABS	1	0	24MC	0	1	3.71890997887	None	None	None	None	1
1.7	2015_Jul_20_1613	s	s	3	1	SIC	562	ABS	0	1	24RO	0	1	4.12830305099	None	None	None	None	1
1.7	2015_Jul_20_1613	s	s	3	1	SIC	563	ABS	1	2	24MD	0	1	1.01162600517	None	None	None	None	1
1.7	2015_Jul_20_1613	s	s	3	1	SIC	564	ABS	2	0	24VC	0	1	0.571044921875	None	None	None	None	1
1.7	2015_Jul_20_1613	s	s	3	1	SIC	565	RC	1	1	23MO	1	0	3.11630511284	321.0	-336.0	335	-328	1
1.7	2015_Jul_20_1613	s	s	3	1	SIC	566	ABS	0	2	24RD	0	1	1.30576610565	None	None	None	None	1
1.7	2015_Jul_20_1613	s	s	3	1	SIC	567	ABS	1	1	24MO	0	1	6.51473784447	None	None	None	None	1
1.7	2015_Jul_20_1613	s	s	3	1	SIC	568	RC	1	0	23MC	1	0	11.5530180931	-123.0	195.0	-123	202	1
1.7	2015_Jul_20_1613	s	s	3	1	SIC	569	RC	2	0	23VC	1	0	0.759723186493	-393.0	-341.0	-399	-343	1
1.7	2015_Jul_20_1613	s	s	3	1	SIC	570	RC	2	2	23VD	1	0	0.693696975708	369.0	317.0	371	318	1
1.7	2015_Jul_20_1613	s	s	3	1	SIC	571	ABS	2	2	24VD	0	1	0.994794845581	None	None	None	None	1
1.7	2015_Jul_20_1613	s	s	3	1	SIC	572	RC	2	1	23VO	1	0	0.700812101364	164.0	63.0	160	67	1
1.7	2015_Jul_20_1613	s	s	3	1	SIC	573	RC	0	1	23RO	1	0	2.66820907593	172.0	-369.0	178	-361	1
1.7	2015_Jul_20_1613	s	s	3	1	SIC	574	ABS	2	1	24VO	0	1	0.658524036407	None	None	None	None	1
1.7	2015_Jul_20_1613	s	s	3	1	SIC	575	RC	0	2	23RD	1	0	0.823347806931	101.0	339.0	100	334	1
1.7	2015_Jul_20_1613	s	s	3	1	SIC	576	RC	1	2	23MD	1	0	0.737626791	28.0	-399.0	36	-398	1
1.7	2015_Jul_20_1613	s	s	3	1	SIC	577	RC	2	2	23VD	1	0	0.611408948898	-423.0	-61.0	-419	-62	1
1.7	2015_Jul_20_1613	s	s	3	1	SIC	578	RC	1	1	23MO	1	0	1.56945014	324.0	258.0	329	257	1
1.7	2015_Jul_20_1613	s	s	3	1	SIC	579	ABS	1	0	24MC	0	1	1.6943500042	None	None	None	None	1
1.7	2015_Jul_20_1613	s	s	3	1	SIC	580	ABS	0	2	24RD	0	1	1.1374900341	None	None	None	None	1
1.7	2015_Jul_20_1613	s	s	3	1	SIC	581	RC	1	0	23MC	1	0	1.43251895905	-114.0	-121.0	-110	-126	1
1.7	2015_Jul_20_1613	s	s	3	1	SIC	582	ABS	2	1	24VO	0	1	0.717302799225	None	None	None	None	1
1.7	2015_Jul_20_1613	s	s	3	1	SIC	583	RC	2	1	23VO	1	0	0.788025856018	-402.0	-273.0	-396	-277	1
1.7	2015_Jul_20_1613	s	s	3	1	SIC	584	ABS	0	1	24RO	0	1	4.46724700928	None	None	None	None	1
1.7	2015_Jul_20_1613	s	s	3	1	SIC	585	ABS	1	2	24MD	0	1	0.973588943481	None	None	None	None	1
1.7	2015_Jul_20_1613	s	s	3	1	SIC	586	RC	1	2	23MD	1	0	0.705675125122	255.0	-172.0	265	-169	1
1.7	2015_Jul_20_1613	s	s	3	1	SIC	587	RC	0	1	23RO	1	0	3.63145589828	-109.0	-215.0	-102	-218	1
1.7	2015_Jul_20_1613	s	s	3	1	SIC	588	ABS	1	1	24MO	0	1	1.83559393883	None	None	None	None	1
1.7	2015_Jul_20_1613	s	s	3	1	SIC	589	ABS	2	0	24VC	0	1	0.582655906677	None	None	None	None	1
1.7	2015_Jul_20_1613	s	s	3	1	SIC	590	RC	2	0	23VC	1	0	0.69131398201	-320.0	-220.0	-311	-218	1
1.7	2015_Jul_20_1613	s	s	3	1	SIC	591	RC	0	2	23RD	1	0	0.94775891304	434.0	-205.0	435	-206	1
1.7	2015_Jul_20_1613	s	s	3	1	SIC	592	ABS	2	2	24VD	0	1	0.726472854614	None	None	None	None	1
