Version	Date	Stimuli	Method	Subject	Session	Condition	Trial	Target	Channel1	Channel2	Distractors	LMouseButton	RMouseButton	RT	TargetX	TargetY	ResponseX	ResponseY	Correct
1.7	2015_Jul_22_1545	s	s	3	3	Capacity	1	RC	0	1	23RO	1	0	7.8694229126	490.0	-117.0	489	-110	1
1.7	2015_Jul_22_1545	s	s	3	3	Capacity	2	ABS	0	2	24RD	0	1	2.04197406769	None	None	None	None	1
1.7	2015_Jul_22_1545	s	s	3	3	Capacity	3	ABS	0	1	24RO	0	1	4.57331895828	None	None	None	None	1
1.7	2015_Jul_22_1545	s	s	3	3	Capacity	4	RC	0	2	23RD	1	0	0.90931391716	-212.0	-142.0	-214	-139	1
1.7	2015_Jul_22_1545	s	s	3	3	Capacity	5	ABS	0	1	24RO	0	1	4.58983206749	None	None	None	None	1
1.7	2015_Jul_22_1545	s	s	3	3	Capacity	6	RC	0	1	23RO	0	1	3.64830899239	374.0	408.0	None	None	0
1.7	2015_Jul_22_1545	s	s	3	3	Capacity	7	ABS	0	2	24RD	0	1	2.62409114838	None	None	None	None	1
1.7	2015_Jul_22_1545	s	s	3	3	Capacity	8	RC	0	2	23RD	1	0	0.878439188004	-61.0	-133.0	-58	-126	1
1.7	2015_Jul_22_1545	s	s	3	3	Capacity	9	ABS	0	1	24RO	0	1	5.82580709457	None	None	None	None	1
1.7	2015_Jul_22_1545	s	s	3	3	Capacity	10	ABS	0	2	24RD	0	1	1.62362408638	None	None	None	None	1
1.7	2015_Jul_22_1545	s	s	3	3	Capacity	11	RC	0	2	23RD	1	0	0.7997610569	-88.0	257.0	-90	257	1
1.7	2015_Jul_22_1545	s	s	3	3	Capacity	12	RC	0	1	23RO	0	1	3.78693389893	-461.0	216.0	None	None	0
1.7	2015_Jul_22_1545	s	s	3	3	Capacity	13	ABS	0	2	24RD	0	1	1.19980096817	None	None	None	None	1
1.7	2015_Jul_22_1545	s	s	3	3	Capacity	14	ABS	0	1	24RO	0	1	4.49052190781	None	None	None	None	1
1.7	2015_Jul_22_1545	s	s	3	3	Capacity	15	RC	0	2	23RD	1	0	0.811469078064	306.0	231.0	314	231	1
1.7	2015_Jul_22_1545	s	s	3	3	Capacity	16	RC	0	1	23RO	1	0	4.91948103905	269.0	88.0	277	88	1
1.7	2015_Jul_22_1545	s	s	3	3	Capacity	17	ABS	0	2	24RD	0	1	1.90287303925	None	None	None	None	1
1.7	2015_Jul_22_1545	s	s	3	3	Capacity	18	RC	0	1	23RO	1	0	2.60736393929	282.0	211.0	288	211	1
1.7	2015_Jul_22_1545	s	s	3	3	Capacity	19	ABS	0	1	24RO	0	1	6.19779801369	None	None	None	None	1
1.7	2015_Jul_22_1545	s	s	3	3	Capacity	20	RC	0	2	23RD	1	0	0.725688934326	138.0	41.0	132	38	1
1.7	2015_Jul_22_1545	s	s	3	3	Capacity	21	RC	0	1	23RO	0	1	3.97811317444	507.0	-111.0	None	None	0
1.7	2015_Jul_22_1545	s	s	3	3	Capacity	22	RC	0	2	23RD	1	0	1.03884887695	407.0	270.0	411	268	1
1.7	2015_Jul_22_1545	s	s	3	3	Capacity	23	ABS	0	2	24RD	0	1	2.53919100761	None	None	None	None	1
1.7	2015_Jul_22_1545	s	s	3	3	Capacity	24	ABS	0	1	24RO	0	1	4.21322607994	None	None	None	None	1
1.7	2015_Jul_22_1545	s	s	3	3	Capacity	25	ABS	0	1	24RO	0	1	4.55458688736	None	None	None	None	1
1.7	2015_Jul_22_1545	s	s	3	3	Capacity	26	RC	0	2	23RD	1	0	0.867111206055	-494.0	52.0	-497	49	1
1.7	2015_Jul_22_1545	s	s	3	3	Capacity	27	ABS	0	2	24RD	0	1	1.73894286156	None	None	None	None	1
1.7	2015_Jul_22_1545	s	s	3	3	Capacity	28	RC	0	1	23RO	0	1	3.84501004219	44.0	-386.0	None	None	0
1.7	2015_Jul_22_1545	s	s	3	3	Capacity	29	ABS	0	2	24RD	0	1	1.28941893578	None	None	None	None	1
1.7	2015_Jul_22_1545	s	s	3	3	Capacity	30	ABS	0	1	24RO	0	1	3.57286119461	None	None	None	None	1
1.7	2015_Jul_22_1545	s	s	3	3	Capacity	31	RC	0	2	23RD	1	0	0.901048898697	-136.0	128.0	-137	123	1
1.7	2015_Jul_22_1545	s	s	3	3	Capacity	32	RC	0	1	23RO	1	0	0.973903894424	-234.0	82.0	-243	79	1
1.7	2015_Jul_22_1545	s	s	3	3	Capacity	33	RC	0	2	23RD	1	0	0.818208932877	324.0	281.0	327	275	1
1.7	2015_Jul_22_1545	s	s	3	3	Capacity	34	ABS	0	2	24RD	0	1	1.72976183891	None	None	None	None	1
1.7	2015_Jul_22_1545	s	s	3	3	Capacity	35	RC	0	1	23RO	0	0	-1	-17.0	69.0	None	None	-1
1.7	2015_Jul_22_1545	s	s	3	3	Capacity	36	ABS	0	1	24RO	0	0	-1	None	None	None	None	-1
1.7	2015_Jul_22_1545	s	s	3	3	Capacity	37	RC	0	1	23RO	1	0	2.17168211937	-411.0	-70.0	-407	-67	1
1.7	2015_Jul_22_1545	s	s	3	3	Capacity	38	ABS	0	2	24RD	0	0	-1	None	None	None	None	-1
1.7	2015_Jul_22_1545	s	s	3	3	Capacity	39	RC	0	2	23RD	0	0	-1	46.0	-140.0	None	None	-1
1.7	2015_Jul_22_1545	s	s	3	3	Capacity	40	ABS	0	1	24RO	0	0	-1	None	None	None	None	-1
1.7	2015_Jul_22_1545	s	s	3	3	Capacity	41	RC	0	1	23RO	1	0	15.0725710392	-73.0	185.0	-69	189	1
1.7	2015_Jul_22_1545	s	s	3	3	Capacity	42	RC	0	2	23RD	1	0	0.759228944778	-307.0	-396.0	-303	-400	1
1.7	2015_Jul_22_1545	s	s	3	3	Capacity	43	ABS	0	1	24RO	0	1	5.54998493195	None	None	None	None	1
1.7	2015_Jul_22_1545	s	s	3	3	Capacity	44	ABS	0	2	24RD	0	1	2.6359629631	None	None	None	None	1
1.7	2015_Jul_22_1545	s	s	3	3	Capacity	45	RC	0	1	23RO	1	0	3.7305328846	327.0	-295.0	327	-309	1
1.7	2015_Jul_22_1545	s	s	3	3	Capacity	46	ABS	0	2	24RD	0	1	1.89209008217	None	None	None	None	1
1.7	2015_Jul_22_1545	s	s	3	3	Capacity	47	RC	0	2	23RD	1	0	0.691256046295	-381.0	75.0	-376	81	1
1.7	2015_Jul_22_1545	s	s	3	3	Capacity	48	ABS	0	1	24RO	0	1	10.4869179726	None	None	None	None	1
1.7	2015_Jul_22_1545	s	s	3	3	Capacity	49	ABS	0	1	24RO	0	1	3.97779107094	None	None	None	None	1
1.7	2015_Jul_22_1545	s	s	3	3	Capacity	50	RC	0	2	23RD	1	0	0.787988901138	-295.0	-143.0	-287	-134	1
1.7	2015_Jul_22_1545	s	s	3	3	Capacity	51	RC	0	1	23RO	1	0	2.90665197372	-396.0	26.0	-393	26	1
1.7	2015_Jul_22_1545	s	s	3	3	Capacity	52	ABS	0	2	24RD	0	1	3.00090503693	None	None	None	None	1
1.7	2015_Jul_22_1545	s	s	3	3	Capacity	53	ABS	0	1	24RO	0	1	3.30692195892	None	None	None	None	1
1.7	2015_Jul_22_1545	s	s	3	3	Capacity	54	RC	0	1	23RO	1	0	1.21882200241	-375.0	-240.0	-371	-239	1
1.7	2015_Jul_22_1545	s	s	3	3	Capacity	55	ABS	0	2	24RD	0	1	2.08278083801	None	None	None	None	1
1.7	2015_Jul_22_1545	s	s	3	3	Capacity	56	RC	0	2	23RD	1	0	0.764490842819	-410.0	10.0	-407	14	1
1.7	2015_Jul_22_1545	s	s	3	3	Capacity	57	RC	0	1	23RO	1	0	3.97782897949	475.0	-115.0	470	-116	1
1.7	2015_Jul_22_1545	s	s	3	3	Capacity	58	ABS	0	2	24RD	0	1	1.67075300217	None	None	None	None	1
1.7	2015_Jul_22_1545	s	s	3	3	Capacity	59	RC	0	2	23RD	1	0	1.70129299164	492.0	14.0	490	14	1
1.7	2015_Jul_22_1545	s	s	3	3	Capacity	60	ABS	0	1	24RO	0	1	5.03722405434	None	None	None	None	1
1.7	2015_Jul_22_1545	s	s	3	3	Capacity	61	RC	0	1	23RO	1	0	2.46692299843	210.0	397.0	205	399	1
1.7	2015_Jul_22_1545	s	s	3	3	Capacity	62	ABS	0	2	24RD	0	1	1.09403395653	None	None	None	None	1
1.7	2015_Jul_22_1545	s	s	3	3	Capacity	63	ABS	0	1	24RO	0	1	3.84834122658	None	None	None	None	1
1.7	2015_Jul_22_1545	s	s	3	3	Capacity	64	RC	0	2	23RD	1	0	0.703016996384	113.0	-21.0	113	-27	1
1.7	2015_Jul_22_1545	s	s	3	3	Capacity	65	RC	0	2	23RD	1	0	1.88269114494	-535.0	17.0	-529	16	1
1.7	2015_Jul_22_1545	s	s	3	3	Capacity	66	ABS	0	2	24RD	0	1	1.56489276886	None	None	None	None	1
1.7	2015_Jul_22_1545	s	s	3	3	Capacity	67	RC	0	1	23RO	1	0	2.07094097137	390.0	360.0	385	358	1
1.7	2015_Jul_22_1545	s	s	3	3	Capacity	68	ABS	0	1	24RO	0	1	4.65573501587	None	None	None	None	1
1.7	2015_Jul_22_1545	s	s	3	3	Capacity	69	RC	0	1	23RO	1	0	0.935497999191	188.0	204.0	189	196	1
1.7	2015_Jul_22_1545	s	s	3	3	Capacity	70	ABS	0	1	24RO	0	1	3.91896796227	None	None	None	None	1
1.7	2015_Jul_22_1545	s	s	3	3	Capacity	71	RC	0	2	23RD	1	0	0.595016956329	-76.0	-14.0	-77	-14	1
1.7	2015_Jul_22_1545	s	s	3	3	Capacity	72	ABS	0	2	24RD	0	1	1.8473098278	None	None	None	None	1
1.7	2015_Jul_22_1545	s	s	3	3	Capacity	73	RC	0	2	23RD	1	0	0.658560991287	321.0	170.0	316	168	1
1.7	2015_Jul_22_1545	s	s	3	3	Capacity	74	RC	0	1	23RO	1	0	3.93075203896	259.0	388.0	257	379	1
1.7	2015_Jul_22_1545	s	s	3	3	Capacity	75	ABS	0	1	24RO	0	1	5.07925105095	None	None	None	None	1
1.7	2015_Jul_22_1545	s	s	3	3	Capacity	76	ABS	0	2	24RD	0	1	1.57658886909	None	None	None	None	1
1.7	2015_Jul_22_1545	s	s	3	3	Capacity	77	ABS	0	2	24RD	0	1	1.59213805199	None	None	None	None	1
1.7	2015_Jul_22_1545	s	s	3	3	Capacity	78	RC	0	1	23RO	1	0	1.53665995598	-407.0	371.0	-398	380	1
1.7	2015_Jul_22_1545	s	s	3	3	Capacity	79	RC	0	2	23RD	1	0	0.732856035233	-516.0	329.0	-516	314	1
1.7	2015_Jul_22_1545	s	s	3	3	Capacity	80	ABS	0	1	24RO	0	1	4.40157699585	None	None	None	None	1
1.7	2015_Jul_22_1545	s	s	3	3	Capacity	81	ABS	0	2	24RD	0	1	0.936170101166	None	None	None	None	1
1.7	2015_Jul_22_1545	s	s	3	3	Capacity	82	RC	0	1	23RO	0	1	3.67179989815	46.0	326.0	None	None	0
1.7	2015_Jul_22_1545	s	s	3	3	Capacity	83	RC	0	2	23RD	1	0	0.831962823868	-379.0	-284.0	-377	-291	1
1.7	2015_Jul_22_1545	s	s	3	3	Capacity	84	ABS	0	1	24RO	0	1	4.2720580101	None	None	None	None	1
1.7	2015_Jul_22_1545	s	s	3	3	Capacity	85	ABS	0	2	24RD	0	1	1.48241400719	None	None	None	None	1
1.7	2015_Jul_22_1545	s	s	3	3	Capacity	86	RC	0	1	23RO	0	1	5.70290899277	-460.0	-217.0	None	None	0
1.7	2015_Jul_22_1545	s	s	3	3	Capacity	87	ABS	0	1	24RO	0	1	3.50183200836	None	None	None	None	1
1.7	2015_Jul_22_1545	s	s	3	3	Capacity	88	RC	0	2	23RD	1	0	1.03298783302	-485.0	-409.0	-482	-406	1
1.7	2015_Jul_22_1545	s	s	3	3	Capacity	89	RC	0	1	23RO	1	0	2.53715395927	16.0	-410.0	23	-415	1
1.7	2015_Jul_22_1545	s	s	3	3	Capacity	90	ABS	0	2	24RD	0	1	1.65901494026	None	None	None	None	1
1.7	2015_Jul_22_1545	s	s	3	3	Capacity	91	RC	0	2	23RD	1	0	1.72169685364	14.0	398.0	24	397	1
1.7	2015_Jul_22_1545	s	s	3	3	Capacity	92	ABS	0	1	24RO	0	1	4.36620903015	None	None	None	None	1
1.7	2015_Jul_22_1545	s	s	3	3	Capacity	1	ABS	1	0	24MC	1	0	0.1829829216	None	None	-81	15	0
1.7	2015_Jul_22_1545	s	s	3	3	Capacity	2	ABS	2	0	24VC	0	1	0.717386007309	None	None	None	None	1
1.7	2015_Jul_22_1545	s	s	3	3	Capacity	3	RC	2	0	23VC	1	0	0.901047945023	44.0	-148.0	50	-151	1
1.7	2015_Jul_22_1545	s	s	3	3	Capacity	4	RC	1	0	23MC	1	0	1.51781797409	16.0	-2.0	21	0	1
1.7	2015_Jul_22_1545	s	s	3	3	Capacity	5	ABS	1	0	24MC	0	1	1.39542603493	None	None	None	None	1
1.7	2015_Jul_22_1545	s	s	3	3	Capacity	6	RC	1	0	23MC	1	0	1.2420771122	374.0	224.0	365	220	1
1.7	2015_Jul_22_1545	s	s	3	3	Capacity	7	ABS	2	0	24VC	0	1	0.638763189316	None	None	None	None	1
1.7	2015_Jul_22_1545	s	s	3	3	Capacity	8	RC	2	0	23VC	1	0	0.70062994957	87.0	65.0	80	58	1
1.7	2015_Jul_22_1545	s	s	3	3	Capacity	9	RC	1	0	23MC	1	0	1.18334102631	-96.0	-351.0	-87	-344	1
1.7	2015_Jul_22_1545	s	s	3	3	Capacity	10	ABS	1	0	24MC	0	1	2.34848403931	None	None	None	None	1
1.7	2015_Jul_22_1545	s	s	3	3	Capacity	11	RC	2	0	23VC	1	0	0.947443962097	-450.0	135.0	-441	134	1
1.7	2015_Jul_22_1545	s	s	3	3	Capacity	12	ABS	2	0	24VC	0	1	0.723433971405	None	None	None	None	1
1.7	2015_Jul_22_1545	s	s	3	3	Capacity	13	RC	1	0	23MC	1	0	2.31456685066	371.0	-404.0	368	-412	1
1.7	2015_Jul_22_1545	s	s	3	3	Capacity	14	ABS	2	0	24VC	0	1	0.702465057373	None	None	None	None	1
1.7	2015_Jul_22_1545	s	s	3	3	Capacity	15	RC	2	0	23VC	1	0	0.644744157791	-146.0	209.0	-139	205	1
1.7	2015_Jul_22_1545	s	s	3	3	Capacity	16	ABS	1	0	24MC	0	1	1.98386907578	None	None	None	None	1
1.7	2015_Jul_22_1545	s	s	3	3	Capacity	17	RC	1	0	23MC	1	0	0.832833051682	-184.0	207.0	-189	205	1
1.7	2015_Jul_22_1545	s	s	3	3	Capacity	18	ABS	1	0	24MC	0	1	2.76041913033	None	None	None	None	1
1.7	2015_Jul_22_1545	s	s	3	3	Capacity	19	RC	2	0	23VC	1	0	0.564352989197	-294.0	136.0	-291	127	1
1.7	2015_Jul_22_1545	s	s	3	3	Capacity	20	ABS	2	0	24VC	0	1	0.776194095612	None	None	None	None	1
1.7	2015_Jul_22_1545	s	s	3	3	Capacity	21	ABS	1	0	24MC	0	1	2.16512608528	None	None	None	None	1
1.7	2015_Jul_22_1545	s	s	3	3	Capacity	22	RC	2	0	23VC	1	0	0.700489997864	442.0	-127.0	446	-129	1
1.7	2015_Jul_22_1545	s	s	3	3	Capacity	23	RC	1	0	23MC	1	0	2.64287900925	235.0	338.0	237	337	1
1.7	2015_Jul_22_1545	s	s	3	3	Capacity	24	ABS	2	0	24VC	0	1	0.665292024612	None	None	None	None	1
1.7	2015_Jul_22_1545	s	s	3	3	Capacity	25	ABS	2	0	24VC	0	1	0.611368894577	None	None	None	None	1
1.7	2015_Jul_22_1545	s	s	3	3	Capacity	26	RC	2	0	23VC	1	0	0.794946908951	284.0	-115.0	283	-112	1
1.7	2015_Jul_22_1545	s	s	3	3	Capacity	27	ABS	1	0	24MC	0	1	4.30369305611	None	None	None	None	1
1.7	2015_Jul_22_1545	s	s	3	3	Capacity	28	RC	1	0	23MC	1	0	1.30592298508	-413.0	397.0	-416	392	1
1.7	2015_Jul_22_1545	s	s	3	3	Capacity	29	RC	1	0	23MC	1	0	1.11758589745	-46.0	389.0	-47	383	1
1.7	2015_Jul_22_1545	s	s	3	3	Capacity	30	ABS	1	0	24MC	0	1	2.48315501213	None	None	None	None	1
1.7	2015_Jul_22_1545	s	s	3	3	Capacity	31	ABS	2	0	24VC	0	1	0.689130783081	None	None	None	None	1
1.7	2015_Jul_22_1545	s	s	3	3	Capacity	32	RC	2	0	23VC	1	0	1.64716005325	241.0	-367.0	242	-370	1
1.7	2015_Jul_22_1545	s	s	3	3	Capacity	33	ABS	2	0	24VC	0	1	0.752676010132	None	None	None	None	1
1.7	2015_Jul_22_1545	s	s	3	3	Capacity	34	RC	2	0	23VC	1	0	0.658396959305	-195.0	32.0	-193	27	1
1.7	2015_Jul_22_1545	s	s	3	3	Capacity	35	ABS	1	0	24MC	0	1	1.58325219154	None	None	None	None	1
1.7	2015_Jul_22_1545	s	s	3	3	Capacity	36	RC	1	0	23MC	1	0	1.38834381104	379.0	310.0	374	306	1
1.7	2015_Jul_22_1545	s	s	3	3	Capacity	37	RC	1	0	23MC	0	1	2.67116308212	-434.0	-224.0	None	None	0
1.7	2015_Jul_22_1545	s	s	3	3	Capacity	38	ABS	2	0	24VC	0	1	0.618403911591	None	None	None	None	1
1.7	2015_Jul_22_1545	s	s	3	3	Capacity	39	RC	2	0	23VC	1	0	0.776240110397	225.0	263.0	222	263	1
1.7	2015_Jul_22_1545	s	s	3	3	Capacity	40	ABS	1	0	24MC	0	1	3.02196598053	None	None	None	None	1
1.7	2015_Jul_22_1545	s	s	3	3	Capacity	41	ABS	2	0	24VC	0	1	0.599659919739	None	None	None	None	1
1.7	2015_Jul_22_1545	s	s	3	3	Capacity	42	RC	2	0	23VC	1	0	0.724046945572	284.0	197.0	284	203	1
1.7	2015_Jul_22_1545	s	s	3	3	Capacity	43	ABS	1	0	24MC	0	1	6.17459392548	None	None	None	None	1
1.7	2015_Jul_22_1545	s	s	3	3	Capacity	44	RC	1	0	23MC	1	0	4.08382916451	446.0	-16.0	457	-15	1
1.7	2015_Jul_22_1545	s	s	3	3	Capacity	45	RC	2	0	23VC	1	0	0.564376831055	-351.0	145.0	-344	138	1
1.7	2015_Jul_22_1545	s	s	3	3	Capacity	46	RC	1	0	23MC	1	0	1.86582398415	515.0	305.0	511	302	1
1.7	2015_Jul_22_1545	s	s	3	3	Capacity	47	ABS	2	0	24VC	0	1	0.571323871613	None	None	None	None	1
1.7	2015_Jul_22_1545	s	s	3	3	Capacity	48	ABS	1	0	24MC	0	1	4.24360489845	None	None	None	None	1
1.7	2015_Jul_22_1545	s	s	3	3	Capacity	49	ABS	2	0	24VC	0	1	0.595202207565	None	None	None	None	1
1.7	2015_Jul_22_1545	s	s	3	3	Capacity	50	RC	1	0	23MC	1	0	0.877160072327	350.0	-277.0	352	-278	1
1.7	2015_Jul_22_1545	s	s	3	3	Capacity	51	ABS	1	0	24MC	0	1	2.44748497009	None	None	None	None	1
1.7	2015_Jul_22_1545	s	s	3	3	Capacity	52	RC	2	0	23VC	1	0	1.00360012054	-118.0	-230.0	-117	-230	1
1.7	2015_Jul_22_1545	s	s	3	3	Capacity	53	ABS	1	0	24MC	0	1	2.40731191635	None	None	None	None	1
1.7	2015_Jul_22_1545	s	s	3	3	Capacity	54	ABS	2	0	24VC	0	1	0.653342008591	None	None	None	None	1
1.7	2015_Jul_22_1545	s	s	3	3	Capacity	55	RC	2	0	23VC	1	0	0.717358112335	-57.0	-150.0	-61	-162	1
1.7	2015_Jul_22_1545	s	s	3	3	Capacity	56	RC	1	0	23MC	0	1	3.49115896225	-514.0	355.0	None	None	0
1.7	2015_Jul_22_1545	s	s	3	3	Capacity	57	ABS	2	0	24VC	0	1	0.618491888046	None	None	None	None	1
1.7	2015_Jul_22_1545	s	s	3	3	Capacity	58	ABS	1	0	24MC	0	1	1.92494392395	None	None	None	None	1
1.7	2015_Jul_22_1545	s	s	3	3	Capacity	59	RC	2	0	23VC	1	0	0.870880126953	408.0	-206.0	413	-201	1
1.7	2015_Jul_22_1545	s	s	3	3	Capacity	60	RC	1	0	23MC	1	0	1.19477701187	-86.0	92.0	-93	93	1
1.7	2015_Jul_22_1545	s	s	3	3	Capacity	61	ABS	1	0	24MC	0	1	2.65273404121	None	None	None	None	1
1.7	2015_Jul_22_1545	s	s	3	3	Capacity	62	RC	2	0	23VC	1	0	0.688364982605	-448.0	118.0	-446	107	1
1.7	2015_Jul_22_1545	s	s	3	3	Capacity	63	RC	1	0	23MC	1	0	1.1527838707	-192.0	-8.0	-189	-8	1
1.7	2015_Jul_22_1545	s	s	3	3	Capacity	64	ABS	2	0	24VC	0	1	0.676441192627	None	None	None	None	1
1.7	2015_Jul_22_1545	s	s	3	3	Capacity	65	ABS	1	0	24MC	0	1	2.1768488884	None	None	None	None	1
1.7	2015_Jul_22_1545	s	s	3	3	Capacity	66	RC	2	0	23VC	1	0	0.647166013718	-411.0	54.0	-417	50	1
1.7	2015_Jul_22_1545	s	s	3	3	Capacity	67	RC	1	0	23MC	1	0	1.52481889725	-502.0	252.0	-505	251	1
1.7	2015_Jul_22_1545	s	s	3	3	Capacity	68	ABS	2	0	24VC	0	1	0.568133115768	None	None	None	None	1
1.7	2015_Jul_22_1545	s	s	3	3	Capacity	69	RC	1	0	23MC	1	0	0.835052967072	-222.0	-50.0	-220	-59	1
1.7	2015_Jul_22_1545	s	s	3	3	Capacity	70	ABS	2	0	24VC	0	1	0.582896947861	None	None	None	None	1
1.7	2015_Jul_22_1545	s	s	3	3	Capacity	71	RC	2	0	23VC	1	0	0.69016289711	317.0	3.0	320	3	1
1.7	2015_Jul_22_1545	s	s	3	3	Capacity	72	ABS	1	0	24MC	0	1	2.9372241497	None	None	None	None	1
1.7	2015_Jul_22_1545	s	s	3	3	Capacity	73	RC	2	0	23VC	1	0	0.666511774063	-504.0	78.0	-499	74	1
1.7	2015_Jul_22_1545	s	s	3	3	Capacity	74	ABS	1	0	24MC	0	1	1.94152998924	None	None	None	None	1
1.7	2015_Jul_22_1545	s	s	3	3	Capacity	75	ABS	2	0	24VC	0	1	0.583411931992	None	None	None	None	1
1.7	2015_Jul_22_1545	s	s	3	3	Capacity	76	RC	1	0	23MC	1	0	1.80982613564	-470.0	400.0	-468	397	1
1.7	2015_Jul_22_1545	s	s	3	3	Capacity	77	RC	2	0	23VC	1	0	1.52700686455	-287.0	-213.0	-285	-211	1
1.7	2015_Jul_22_1545	s	s	3	3	Capacity	78	RC	1	0	23MC	1	0	1.56166100502	-406.0	248.0	-406	242	1
1.7	2015_Jul_22_1545	s	s	3	3	Capacity	79	ABS	2	0	24VC	0	1	0.594807863235	None	None	None	None	1
1.7	2015_Jul_22_1545	s	s	3	3	Capacity	80	ABS	1	0	24MC	0	1	1.88263702393	None	None	None	None	1
1.7	2015_Jul_22_1545	s	s	3	3	Capacity	81	ABS	2	0	24VC	0	1	0.635020017624	None	None	None	None	1
1.7	2015_Jul_22_1545	s	s	3	3	Capacity	82	RC	2	0	23VC	1	0	0.714639902115	-153.0	315.0	-146	313	1
1.7	2015_Jul_22_1545	s	s	3	3	Capacity	83	RC	1	0	23MC	1	0	1.63550591469	314.0	-68.0	313	-64	1
1.7	2015_Jul_22_1545	s	s	3	3	Capacity	84	ABS	1	0	24MC	0	1	3.16554999352	None	None	None	None	1
1.7	2015_Jul_22_1545	s	s	3	3	Capacity	85	RC	1	0	23MC	0	1	2.83609294891	192.0	-407.0	None	None	0
1.7	2015_Jul_22_1545	s	s	3	3	Capacity	86	ABS	2	0	24VC	0	1	0.736061811447	None	None	None	None	1
1.7	2015_Jul_22_1545	s	s	3	3	Capacity	87	RC	2	0	23VC	1	0	0.947530031204	-61.0	-304.0	-55	-303	1
1.7	2015_Jul_22_1545	s	s	3	3	Capacity	88	ABS	1	0	24MC	0	1	2.71833896637	None	None	None	None	1
1.7	2015_Jul_22_1545	s	s	3	3	Capacity	89	ABS	1	0	24MC	0	1	2.90671801567	None	None	None	None	1
1.7	2015_Jul_22_1545	s	s	3	3	Capacity	90	ABS	2	0	24VC	0	1	0.665283918381	None	None	None	None	1
1.7	2015_Jul_22_1545	s	s	3	3	Capacity	91	RC	1	0	23MC	1	0	1.94140410423	338.0	265.0	334	257	1
1.7	2015_Jul_22_1545	s	s	3	3	Capacity	92	RC	2	0	23VC	1	0	0.858526945114	-466.0	-250.0	-465	-247	1
1.7	2015_Jul_22_1545	s	s	3	3	SIC	1	RC	2	2	23VD	1	0	0.729162931442	-52.0	327.0	-52	320	1
1.7	2015_Jul_22_1545	s	s	3	3	SIC	2	RC	1	1	23MO	1	0	1.16460204124	-87.0	-160.0	-91	-167	1
1.7	2015_Jul_22_1545	s	s	3	3	SIC	3	ABS	1	2	24MD	0	1	1.41861605644	None	None	None	None	1
1.7	2015_Jul_22_1545	s	s	3	3	SIC	4	RC	1	0	23MC	1	0	1.10076212883	-74.0	161.0	-65	170	1
1.7	2015_Jul_22_1545	s	s	3	3	SIC	5	ABS	1	1	24MO	0	1	4.99010300636	None	None	None	None	1
1.7	2015_Jul_22_1545	s	s	3	3	SIC	6	RC	2	0	23VC	1	0	0.900974988937	-104.0	187.0	-101	179	1
1.7	2015_Jul_22_1545	s	s	3	3	SIC	7	ABS	0	2	24RD	0	1	2.31304502487	None	None	None	None	1
1.7	2015_Jul_22_1545	s	s	3	3	SIC	8	RC	2	1	23VO	1	0	1.20693016052	-388.0	356.0	-384	351	1
1.7	2015_Jul_22_1545	s	s	3	3	SIC	9	ABS	2	1	24VO	0	1	0.988083839417	None	None	None	None	1
1.7	2015_Jul_22_1545	s	s	3	3	SIC	10	RC	0	2	23RD	1	0	0.891108989716	264.0	-373.0	262	-377	1
1.7	2015_Jul_22_1545	s	s	3	3	SIC	11	ABS	1	0	24MC	0	1	3.6482129097	None	None	None	None	1
1.7	2015_Jul_22_1545	s	s	3	3	SIC	12	ABS	2	2	24VD	0	1	1.18821287155	None	None	None	None	1
1.7	2015_Jul_22_1545	s	s	3	3	SIC	13	RC	1	2	23MD	1	0	0.702353000641	-486.0	-247.0	-487	-251	1
1.7	2015_Jul_22_1545	s	s	3	3	SIC	14	RC	0	1	23RO	1	0	2.24268603325	-152.0	-402.0	-151	-393	1
1.7	2015_Jul_22_1545	s	s	3	3	SIC	15	ABS	0	1	24RO	0	1	4.99679112434	None	None	None	None	1
1.7	2015_Jul_22_1545	s	s	3	3	SIC	16	ABS	2	0	24VC	0	1	0.996773004532	None	None	None	None	1
1.7	2015_Jul_22_1545	s	s	3	3	SIC	17	ABS	0	2	24RD	0	1	2.04336905479	None	None	None	None	1
1.7	2015_Jul_22_1545	s	s	3	3	SIC	18	RC	2	2	23VD	1	0	0.794373989105	192.0	-232.0	200	-234	1
1.7	2015_Jul_22_1545	s	s	3	3	SIC	19	ABS	1	1	24MO	0	1	2.75350999832	None	None	None	None	1
1.7	2015_Jul_22_1545	s	s	3	3	SIC	20	ABS	0	1	24RO	0	1	4.26026988029	None	None	None	None	1
1.7	2015_Jul_22_1545	s	s	3	3	SIC	21	RC	2	0	23VC	1	0	0.787975072861	-493.0	116.0	-486	114	1
1.7	2015_Jul_22_1545	s	s	3	3	SIC	22	ABS	1	2	24MD	0	1	1.4589381218	None	None	None	None	1
1.7	2015_Jul_22_1545	s	s	3	3	SIC	23	RC	1	1	23MO	1	0	1.01167798042	255.0	410.0	254	403	1
1.7	2015_Jul_22_1545	s	s	3	3	SIC	24	ABS	2	0	24VC	0	1	0.699789047241	None	None	None	None	1
1.7	2015_Jul_22_1545	s	s	3	3	SIC	25	ABS	2	2	24VD	0	1	0.599740028381	None	None	None	None	1
1.7	2015_Jul_22_1545	s	s	3	3	SIC	26	RC	1	0	23MC	1	0	0.84205198288	-49.0	-113.0	-51	-120	1
1.7	2015_Jul_22_1545	s	s	3	3	SIC	27	ABS	1	0	24MC	0	1	1.57663798332	None	None	None	None	1
1.7	2015_Jul_22_1545	s	s	3	3	SIC	28	RC	2	1	23VO	1	0	0.611501932144	46.0	-136.0	46	-137	1
1.7	2015_Jul_22_1545	s	s	3	3	SIC	29	ABS	2	1	24VO	0	1	0.620114088058	None	None	None	None	1
1.7	2015_Jul_22_1545	s	s	3	3	SIC	30	RC	0	2	23RD	1	0	0.71780705452	-348.0	132.0	-339	134	1
1.7	2015_Jul_22_1545	s	s	3	3	SIC	31	RC	0	1	23RO	0	1	3.71534585953	453.0	-225.0	None	None	0
1.7	2015_Jul_22_1545	s	s	3	3	SIC	32	RC	1	2	23MD	1	0	0.642210960388	-82.0	338.0	-81	334	1
1.7	2015_Jul_22_1545	s	s	3	3	SIC	33	RC	0	2	23RD	1	0	0.700824975967	-145.0	248.0	-147	237	1
1.7	2015_Jul_22_1545	s	s	3	3	SIC	34	ABS	0	1	24RO	0	1	4.92622303963	None	None	None	None	1
1.7	2015_Jul_22_1545	s	s	3	3	SIC	35	RC	1	2	23MD	1	0	0.571334838867	443.0	91.0	439	89	1
1.7	2015_Jul_22_1545	s	s	3	3	SIC	36	RC	1	1	23MO	1	0	0.726651906967	-519.0	-155.0	-515	-155	1
1.7	2015_Jul_22_1545	s	s	3	3	SIC	37	ABS	1	2	24MD	0	1	1.23179101944	None	None	None	None	1
1.7	2015_Jul_22_1545	s	s	3	3	SIC	38	ABS	1	1	24MO	0	1	2.22935581207	None	None	None	None	1
1.7	2015_Jul_22_1545	s	s	3	3	SIC	39	RC	2	1	23VO	1	0	0.650470018387	-20.0	87.0	-21	75	1
1.7	2015_Jul_22_1545	s	s	3	3	SIC	40	RC	2	2	23VD	1	0	0.548277139664	232.0	314.0	237	309	1
1.7	2015_Jul_22_1545	s	s	3	3	SIC	41	RC	0	1	23RO	0	1	3.30698299408	444.0	12.0	None	None	0
1.7	2015_Jul_22_1545	s	s	3	3	SIC	42	RC	1	0	23MC	1	0	2.47798204422	-274.0	-183.0	-278	-189	1
1.7	2015_Jul_22_1545	s	s	3	3	SIC	43	ABS	1	0	24MC	0	1	1.29793477058	None	None	None	None	1
1.7	2015_Jul_22_1545	s	s	3	3	SIC	44	ABS	2	1	24VO	0	1	0.735982894897	None	None	None	None	1
1.7	2015_Jul_22_1545	s	s	3	3	SIC	45	ABS	0	2	24RD	0	1	1.38331818581	None	None	None	None	1
1.7	2015_Jul_22_1545	s	s	3	3	SIC	46	ABS	2	2	24VD	0	1	0.587929964066	None	None	None	None	1
1.7	2015_Jul_22_1545	s	s	3	3	SIC	47	ABS	2	0	24VC	0	1	0.829817056656	None	None	None	None	1
1.7	2015_Jul_22_1545	s	s	3	3	SIC	48	RC	2	0	23VC	1	0	0.818348884583	31.0	46.0	30	41	1
1.7	2015_Jul_22_1545	s	s	3	3	SIC	49	RC	0	1	23RO	1	0	1.31227087975	-195.0	-337.0	-193	-330	1
1.7	2015_Jul_22_1545	s	s	3	3	SIC	50	RC	1	1	23MO	1	0	0.988096952438	-345.0	-196.0	-343	-207	1
1.7	2015_Jul_22_1545	s	s	3	3	SIC	51	ABS	2	2	24VD	0	1	0.608745098114	None	None	None	None	1
1.7	2015_Jul_22_1545	s	s	3	3	SIC	52	ABS	0	2	24RD	0	1	1.18324804306	None	None	None	None	1
1.7	2015_Jul_22_1545	s	s	3	3	SIC	53	RC	1	0	23MC	1	0	0.866010904312	158.0	122.0	160	122	1
1.7	2015_Jul_22_1545	s	s	3	3	SIC	54	RC	0	2	23RD	1	0	0.599568128586	-78.0	-67.0	-80	-76	1
1.7	2015_Jul_22_1545	s	s	3	3	SIC	55	RC	1	2	23MD	1	0	0.606486082077	-388.0	-291.0	-385	-297	1
1.7	2015_Jul_22_1545	s	s	3	3	SIC	56	ABS	2	1	24VO	0	1	0.631109952927	None	None	None	None	1
1.7	2015_Jul_22_1545	s	s	3	3	SIC	57	ABS	1	2	24MD	0	1	2.37210416794	None	None	None	None	1
1.7	2015_Jul_22_1545	s	s	3	3	SIC	58	ABS	0	1	24RO	0	1	3.88349413872	None	None	None	None	1
1.7	2015_Jul_22_1545	s	s	3	3	SIC	59	RC	2	1	23VO	1	0	0.66640996933	-157.0	147.0	-154	140	1
1.7	2015_Jul_22_1545	s	s	3	3	SIC	60	ABS	1	1	24MO	0	1	3.05476999283	None	None	None	None	1
1.7	2015_Jul_22_1545	s	s	3	3	SIC	61	ABS	2	0	24VC	0	1	0.623235940933	None	None	None	None	1
1.7	2015_Jul_22_1545	s	s	3	3	SIC	62	RC	2	2	23VD	1	0	0.705634117126	-387.0	219.0	-381	214	1
1.7	2015_Jul_22_1545	s	s	3	3	SIC	63	RC	2	0	23VC	1	0	0.524035930634	-54.0	-154.0	-60	-157	1
1.7	2015_Jul_22_1545	s	s	3	3	SIC	64	ABS	1	0	24MC	0	1	2.23112106323	None	None	None	None	1
1.7	2015_Jul_22_1545	s	s	3	3	SIC	65	RC	1	0	23MC	1	0	0.764486074448	-207.0	205.0	-214	202	1
1.7	2015_Jul_22_1545	s	s	3	3	SIC	66	RC	2	2	23VD	1	0	0.665060043335	150.0	53.0	148	48	1
1.7	2015_Jul_22_1545	s	s	3	3	SIC	67	ABS	2	1	24VO	0	1	0.71480512619	None	None	None	None	1
1.7	2015_Jul_22_1545	s	s	3	3	SIC	68	ABS	1	1	24MO	0	1	2.62839102745	None	None	None	None	1
1.7	2015_Jul_22_1545	s	s	3	3	SIC	69	ABS	1	0	24MC	0	1	3.1142988205	None	None	None	None	1
1.7	2015_Jul_22_1545	s	s	3	3	SIC	70	ABS	0	1	24RO	0	1	3.42463707924	None	None	None	None	1
1.7	2015_Jul_22_1545	s	s	3	3	SIC	71	ABS	2	0	24VC	0	1	0.630332946777	None	None	None	None	1
1.7	2015_Jul_22_1545	s	s	3	3	SIC	72	RC	2	1	23VO	1	0	0.700553178787	19.0	361.0	27	359	1
1.7	2015_Jul_22_1545	s	s	3	3	SIC	73	RC	1	1	23MO	1	0	1.19987821579	7.0	-335.0	7	-326	1
1.7	2015_Jul_22_1545	s	s	3	3	SIC	74	ABS	2	2	24VD	0	1	0.740925788879	None	None	None	None	1
1.7	2015_Jul_22_1545	s	s	3	3	SIC	75	RC	1	2	23MD	1	0	0.705696105957	-306.0	-139.0	-310	-139	1
1.7	2015_Jul_22_1545	s	s	3	3	SIC	76	ABS	0	2	24RD	0	1	0.971402168274	None	None	None	None	1
1.7	2015_Jul_22_1545	s	s	3	3	SIC	77	ABS	1	2	24MD	0	1	0.982257843018	None	None	None	None	1
1.7	2015_Jul_22_1545	s	s	3	3	SIC	78	RC	0	1	23RO	1	0	2.94202899933	140.0	-378.0	149	-376	1
1.7	2015_Jul_22_1545	s	s	3	3	SIC	79	RC	0	2	23RD	1	0	0.599609851837	261.0	-103.0	260	-105	1
1.7	2015_Jul_22_1545	s	s	3	3	SIC	80	RC	2	0	23VC	1	0	0.564357042313	-169.0	315.0	-167	308	1
1.7	2015_Jul_22_1545	s	s	3	3	SIC	81	RC	1	0	23MC	1	0	0.69378900528	164.0	122.0	160	122	1
1.7	2015_Jul_22_1545	s	s	3	3	SIC	82	ABS	2	1	24VO	0	1	0.653818130493	None	None	None	None	1
1.7	2015_Jul_22_1545	s	s	3	3	SIC	83	RC	0	1	23RO	1	0	3.38927102089	468.0	15.0	464	15	1
1.7	2015_Jul_22_1545	s	s	3	3	SIC	84	ABS	1	0	24MC	0	1	2.55360293388	None	None	None	None	1
1.7	2015_Jul_22_1545	s	s	3	3	SIC	85	ABS	0	2	24RD	0	1	0.776216983795	None	None	None	None	1
1.7	2015_Jul_22_1545	s	s	3	3	SIC	86	RC	2	2	23VD	1	0	0.6768450737	276.0	-70.0	280	-67	1
1.7	2015_Jul_22_1545	s	s	3	3	SIC	87	ABS	2	0	24VC	0	1	0.630765914917	None	None	None	None	1
1.7	2015_Jul_22_1545	s	s	3	3	SIC	88	RC	1	2	23MD	1	0	1.18306994438	-92.0	386.0	-86	386	1
1.7	2015_Jul_22_1545	s	s	3	3	SIC	89	RC	2	0	23VC	1	0	0.512793779373	96.0	28.0	90	23	1
1.7	2015_Jul_22_1545	s	s	3	3	SIC	90	RC	0	2	23RD	1	0	0.5055539608	277.0	214.0	271	211	1
1.7	2015_Jul_22_1545	s	s	3	3	SIC	91	RC	2	1	23VO	1	0	0.441210985184	206.0	-254.0	206	-258	1
1.7	2015_Jul_22_1545	s	s	3	3	SIC	92	ABS	1	1	24MO	0	1	3.27161598206	None	None	None	None	1
1.7	2015_Jul_22_1545	s	s	3	3	SIC	93	ABS	1	2	24MD	0	1	0.94474697113	None	None	None	None	1
1.7	2015_Jul_22_1545	s	s	3	3	SIC	94	ABS	0	1	24RO	0	1	3.10139298439	None	None	None	None	1
1.7	2015_Jul_22_1545	s	s	3	3	SIC	95	ABS	2	2	24VD	0	1	0.65261387825	None	None	None	None	1
1.7	2015_Jul_22_1545	s	s	3	3	SIC	96	RC	1	1	23MO	1	0	0.788199186325	288.0	41.0	293	42	1
1.7	2015_Jul_22_1545	s	s	3	3	SIC	97	RC	0	1	23RO	1	0	2.42405486107	-328.0	65.0	-329	69	1
1.7	2015_Jul_22_1545	s	s	3	3	SIC	98	ABS	1	0	24MC	0	1	3.54227304459	None	None	None	None	1
1.7	2015_Jul_22_1545	s	s	3	3	SIC	99	ABS	0	2	24RD	0	1	0.6995677948	None	None	None	None	1
1.7	2015_Jul_22_1545	s	s	3	3	SIC	100	ABS	0	1	24RO	0	1	3.72587490082	None	None	None	None	1
1.7	2015_Jul_22_1545	s	s	3	3	SIC	101	RC	2	1	23VO	1	0	0.667845964432	83.0	-162.0	78	-164	1
1.7	2015_Jul_22_1545	s	s	3	3	SIC	102	ABS	2	1	24VO	0	1	0.665338993073	None	None	None	None	1
1.7	2015_Jul_22_1545	s	s	3	3	SIC	103	ABS	2	2	24VD	0	1	0.653517961502	None	None	None	None	1
1.7	2015_Jul_22_1545	s	s	3	3	SIC	104	RC	1	2	23MD	1	0	0.623195886612	69.0	-114.0	73	-107	1
1.7	2015_Jul_22_1545	s	s	3	3	SIC	105	RC	1	0	23MC	1	0	1.6422150135	283.0	359.0	285	361	1
1.7	2015_Jul_22_1545	s	s	3	3	SIC	106	RC	1	1	23MO	1	0	1.07727193832	-94.0	-275.0	-94	-276	1
1.7	2015_Jul_22_1545	s	s	3	3	SIC	107	ABS	1	1	24MO	0	1	2.01209306717	None	None	None	None	1
1.7	2015_Jul_22_1545	s	s	3	3	SIC	108	RC	2	0	23VC	1	0	0.677037000656	-535.0	-177.0	-541	-174	1
1.7	2015_Jul_22_1545	s	s	3	3	SIC	109	ABS	1	2	24MD	0	1	1.37670207024	None	None	None	None	1
1.7	2015_Jul_22_1545	s	s	3	3	SIC	110	ABS	2	0	24VC	0	1	0.740924119949	None	None	None	None	1
1.7	2015_Jul_22_1545	s	s	3	3	SIC	111	RC	0	2	23RD	1	0	0.693805932999	-339.0	-374.0	-344	-372	1
1.7	2015_Jul_22_1545	s	s	3	3	SIC	112	RC	2	2	23VD	1	0	0.635045051575	534.0	17.0	537	22	1
1.7	2015_Jul_22_1545	s	s	3	3	SIC	113	RC	1	2	23MD	1	0	0.599683046341	480.0	157.0	475	157	1
1.7	2015_Jul_22_1545	s	s	3	3	SIC	114	ABS	1	1	24MO	0	1	3.24305510521	None	None	None	None	1
1.7	2015_Jul_22_1545	s	s	3	3	SIC	115	RC	0	2	23RD	1	0	0.71727514267	347.0	259.0	353	266	1
1.7	2015_Jul_22_1545	s	s	3	3	SIC	116	ABS	2	2	24VD	0	1	0.678621053696	None	None	None	None	1
1.7	2015_Jul_22_1545	s	s	3	3	SIC	117	ABS	1	0	24MC	0	1	2.58891606331	None	None	None	None	1
1.7	2015_Jul_22_1545	s	s	3	3	SIC	118	ABS	0	1	24RO	0	1	4.18971395493	None	None	None	None	1
1.7	2015_Jul_22_1545	s	s	3	3	SIC	119	RC	2	1	23VO	1	0	0.611419916153	-421.0	-412.0	-421	-423	1
1.7	2015_Jul_22_1545	s	s	3	3	SIC	120	RC	1	0	23MC	1	0	1.94145512581	241.0	-56.0	235	-57	1
1.7	2015_Jul_22_1545	s	s	3	3	SIC	121	RC	0	1	23RO	1	0	1.6472427845	309.0	-304.0	306	-305	1
1.7	2015_Jul_22_1545	s	s	3	3	SIC	122	ABS	0	2	24RD	0	1	1.38317990303	None	None	None	None	1
1.7	2015_Jul_22_1545	s	s	3	3	SIC	123	RC	1	1	23MO	1	0	0.878916978836	-72.0	-345.0	-66	-352	1
1.7	2015_Jul_22_1545	s	s	3	3	SIC	124	RC	2	0	23VC	1	0	0.900516986847	-182.0	409.0	-179	395	1
1.7	2015_Jul_22_1545	s	s	3	3	SIC	125	ABS	2	0	24VC	0	1	0.705588102341	None	None	None	None	1
1.7	2015_Jul_22_1545	s	s	3	3	SIC	126	ABS	2	1	24VO	0	1	0.736117124557	None	None	None	None	1
1.7	2015_Jul_22_1545	s	s	3	3	SIC	127	RC	2	2	23VD	1	0	0.64192700386	-364.0	271.0	-361	261	1
1.7	2015_Jul_22_1545	s	s	3	3	SIC	128	ABS	1	2	24MD	0	1	0.94771194458	None	None	None	None	1
1.7	2015_Jul_22_1545	s	s	3	3	SIC	129	RC	2	1	23VO	1	0	1.32424402237	-536.0	54.0	-537	51	1
1.7	2015_Jul_22_1545	s	s	3	3	SIC	130	RC	2	0	23VC	1	0	0.470288038254	133.0	96.0	134	95	1
1.7	2015_Jul_22_1545	s	s	3	3	SIC	131	RC	1	1	23MO	1	0	1.51278686523	-450.0	-206.0	-451	-200	1
1.7	2015_Jul_22_1545	s	s	3	3	SIC	132	ABS	2	1	24VO	0	1	0.799742937088	None	None	None	None	1
1.7	2015_Jul_22_1545	s	s	3	3	SIC	133	ABS	2	2	24VD	0	1	0.717415094376	None	None	None	None	1
1.7	2015_Jul_22_1545	s	s	3	3	SIC	134	RC	1	2	23MD	1	0	1.36482405663	418.0	303.0	417	298	1
1.7	2015_Jul_22_1545	s	s	3	3	SIC	135	ABS	0	2	24RD	0	1	1.40002393723	None	None	None	None	1
1.7	2015_Jul_22_1545	s	s	3	3	SIC	136	ABS	1	2	24MD	0	1	0.970485925674	None	None	None	None	1
1.7	2015_Jul_22_1545	s	s	3	3	SIC	137	ABS	0	1	24RO	0	1	5.14315199852	None	None	None	None	1
1.7	2015_Jul_22_1545	s	s	3	3	SIC	138	RC	1	0	23MC	1	0	2.95429992676	297.0	377.0	296	373	1
1.7	2015_Jul_22_1545	s	s	3	3	SIC	139	ABS	1	0	24MC	0	1	2.86636400223	None	None	None	None	1
1.7	2015_Jul_22_1545	s	s	3	3	SIC	140	RC	0	1	23RO	1	0	5.34324193001	487.0	157.0	484	152	1
1.7	2015_Jul_22_1545	s	s	3	3	SIC	141	RC	2	2	23VD	1	0	0.559396028519	-8.0	-40.0	-5	-42	1
1.7	2015_Jul_22_1545	s	s	3	3	SIC	142	RC	0	2	23RD	1	0	0.611453056335	304.0	378.0	307	372	1
1.7	2015_Jul_22_1545	s	s	3	3	SIC	143	ABS	2	0	24VC	0	1	0.759785890579	None	None	None	None	1
1.7	2015_Jul_22_1545	s	s	3	3	SIC	144	ABS	1	1	24MO	0	1	5.33814001083	None	None	None	None	1
1.7	2015_Jul_22_1545	s	s	3	3	SIC	145	RC	1	1	23MO	1	0	1.57662796974	-428.0	392.0	-423	393	1
1.7	2015_Jul_22_1545	s	s	3	3	SIC	146	RC	2	2	23VD	1	0	0.560926198959	277.0	354.0	282	349	1
1.7	2015_Jul_22_1545	s	s	3	3	SIC	147	RC	2	1	23VO	1	0	0.548089981079	395.0	258.0	399	264	1
1.7	2015_Jul_22_1545	s	s	3	3	SIC	148	ABS	1	2	24MD	0	1	1.37652993202	None	None	None	None	1
1.7	2015_Jul_22_1545	s	s	3	3	SIC	149	RC	0	1	23RO	1	0	3.29036688805	-363.0	123.0	-360	122	1
1.7	2015_Jul_22_1545	s	s	3	3	SIC	150	RC	1	2	23MD	1	0	0.620564937592	-300.0	-207.0	-297	-210	1
1.7	2015_Jul_22_1545	s	s	3	3	SIC	151	ABS	2	0	24VC	0	1	0.677057981491	None	None	None	None	1
1.7	2015_Jul_22_1545	s	s	3	3	SIC	152	RC	0	2	23RD	1	0	0.983118057251	92.0	-340.0	93	-345	1
1.7	2015_Jul_22_1545	s	s	3	3	SIC	153	ABS	0	1	24RO	0	1	4.86757111549	None	None	None	None	1
1.7	2015_Jul_22_1545	s	s	3	3	SIC	154	RC	2	0	23VC	1	0	0.608726024628	270.0	-2.0	269	-3	1
1.7	2015_Jul_22_1545	s	s	3	3	SIC	155	ABS	2	2	24VD	0	1	0.635010004044	None	None	None	None	1
1.7	2015_Jul_22_1545	s	s	3	3	SIC	156	RC	1	0	23MC	1	0	1.93831396103	393.0	-381.0	392	-383	1
1.7	2015_Jul_22_1545	s	s	3	3	SIC	157	ABS	2	1	24VO	0	1	0.665498018265	None	None	None	None	1
1.7	2015_Jul_22_1545	s	s	3	3	SIC	158	ABS	0	2	24RD	0	1	1.336124897	None	None	None	None	1
1.7	2015_Jul_22_1545	s	s	3	3	SIC	159	ABS	1	1	24MO	0	1	3.09002494812	None	None	None	None	1
1.7	2015_Jul_22_1545	s	s	3	3	SIC	160	ABS	1	0	24MC	0	1	2.32365584373	None	None	None	None	1
1.7	2015_Jul_22_1545	s	s	3	3	SIC	161	RC	0	2	23RD	1	0	0.92436504364	487.0	-299.0	490	-300	1
1.7	2015_Jul_22_1545	s	s	3	3	SIC	162	ABS	2	2	24VD	0	1	0.591809988022	None	None	None	None	1
1.7	2015_Jul_22_1545	s	s	3	3	SIC	163	RC	2	2	23VD	1	0	0.652719974518	48.0	31.0	50	26	1
1.7	2015_Jul_22_1545	s	s	3	3	SIC	164	ABS	1	2	24MD	0	1	0.917378902435	None	None	None	None	1
1.7	2015_Jul_22_1545	s	s	3	3	SIC	165	ABS	0	2	24RD	0	1	1.11763906479	None	None	None	None	1
1.7	2015_Jul_22_1545	s	s	3	3	SIC	166	ABS	1	1	24MO	0	1	4.14263296127	None	None	None	None	1
1.7	2015_Jul_22_1545	s	s	3	3	SIC	167	ABS	0	1	24RO	0	1	4.24335289001	None	None	None	None	1
1.7	2015_Jul_22_1545	s	s	3	3	SIC	168	RC	1	0	23MC	1	0	1.54509496689	173.0	65.0	175	64	1
1.7	2015_Jul_22_1545	s	s	3	3	SIC	169	RC	2	0	23VC	1	0	0.584985971451	-352.0	-209.0	-355	-200	1
1.7	2015_Jul_22_1545	s	s	3	3	SIC	170	ABS	2	1	24VO	0	1	1.17637610435	None	None	None	None	1
1.7	2015_Jul_22_1545	s	s	3	3	SIC	171	RC	0	1	23RO	0	1	3.73753094673	467.0	-95.0	None	None	0
1.7	2015_Jul_22_1545	s	s	3	3	SIC	172	ABS	1	0	24MC	0	1	3.76587414742	None	None	None	None	1
1.7	2015_Jul_22_1545	s	s	3	3	SIC	173	RC	2	1	23VO	1	0	0.736008882523	447.0	142.0	454	140	1
1.7	2015_Jul_22_1545	s	s	3	3	SIC	174	RC	1	1	23MO	1	0	2.54839396477	-308.0	-371.0	-306	-373	1
1.7	2015_Jul_22_1545	s	s	3	3	SIC	175	ABS	2	0	24VC	0	1	0.688779115677	None	None	None	None	1
1.7	2015_Jul_22_1545	s	s	3	3	SIC	176	RC	1	2	23MD	1	0	0.773746013641	-195.0	-371.0	-187	-366	1
1.7	2015_Jul_22_1545	s	s	3	3	SIC	177	ABS	1	0	24MC	0	1	4.25506091118	None	None	None	None	1
1.7	2015_Jul_22_1545	s	s	3	3	SIC	178	RC	0	2	23RD	1	0	0.675715923309	80.0	73.0	86	74	1
1.7	2015_Jul_22_1545	s	s	3	3	SIC	179	ABS	1	1	24MO	0	1	3.58136510849	None	None	None	None	1
1.7	2015_Jul_22_1545	s	s	3	3	SIC	180	RC	2	1	23VO	1	0	0.646724939346	-499.0	301.0	-495	296	1
1.7	2015_Jul_22_1545	s	s	3	3	SIC	181	ABS	2	0	24VC	0	1	1.42395186424	None	None	None	None	1
1.7	2015_Jul_22_1545	s	s	3	3	SIC	182	RC	1	1	23MO	1	0	1.07825112343	338.0	302.0	329	302	1
1.7	2015_Jul_22_1545	s	s	3	3	SIC	183	ABS	1	2	24MD	0	1	1.0035879612	None	None	None	None	1
1.7	2015_Jul_22_1545	s	s	3	3	SIC	184	RC	2	2	23VD	1	0	0.599633932114	-129.0	-42.0	-135	-48	1
1.7	2015_Jul_22_1545	s	s	3	3	SIC	185	ABS	0	1	24RO	0	1	4.56142401695	None	None	None	None	1
1.7	2015_Jul_22_1545	s	s	3	3	SIC	186	RC	2	0	23VC	1	0	0.642430067062	435.0	-182.0	436	-180	1
1.7	2015_Jul_22_1545	s	s	3	3	SIC	187	RC	1	2	23MD	1	0	0.623174905777	364.0	-65.0	367	-65	1
1.7	2015_Jul_22_1545	s	s	3	3	SIC	188	ABS	0	2	24RD	0	1	0.948819875717	None	None	None	None	1
1.7	2015_Jul_22_1545	s	s	3	3	SIC	189	RC	1	0	23MC	0	1	2.33018493652	-150.0	74.0	None	None	0
1.7	2015_Jul_22_1545	s	s	3	3	SIC	190	RC	0	1	23RO	0	1	2.83608078957	513.0	187.0	None	None	0
1.7	2015_Jul_22_1545	s	s	3	3	SIC	191	ABS	2	1	24VO	0	1	0.677865982056	None	None	None	None	1
1.7	2015_Jul_22_1545	s	s	3	3	SIC	192	ABS	2	2	24VD	0	1	0.540807008743	None	None	None	None	1
1.7	2015_Jul_22_1545	s	s	3	3	SIC	193	ABS	2	1	24VO	0	1	0.583518028259	None	None	None	None	1
1.7	2015_Jul_22_1545	s	s	3	3	SIC	194	ABS	1	2	24MD	0	1	0.623123884201	None	None	None	None	1
1.7	2015_Jul_22_1545	s	s	3	3	SIC	195	RC	2	0	23VC	1	0	1.04694700241	409.0	-60.0	418	-60	1
1.7	2015_Jul_22_1545	s	s	3	3	SIC	196	ABS	1	0	24MC	0	1	2.07118701935	None	None	None	None	1
1.7	2015_Jul_22_1545	s	s	3	3	SIC	197	RC	2	2	23VD	1	0	0.688744068146	314.0	226.0	307	224	1
1.7	2015_Jul_22_1545	s	s	3	3	SIC	198	RC	2	1	23VO	1	0	0.677036046982	-98.0	170.0	-103	169	1
1.7	2015_Jul_22_1545	s	s	3	3	SIC	199	RC	0	1	23RO	0	1	3.00689506531	272.0	78.0	None	None	0
1.7	2015_Jul_22_1545	s	s	3	3	SIC	200	ABS	0	1	24RO	0	1	2.92511105537	None	None	None	None	1
1.7	2015_Jul_22_1545	s	s	3	3	SIC	201	RC	1	1	23MO	1	0	1.16084289551	324.0	227.0	318	227	1
1.7	2015_Jul_22_1545	s	s	3	3	SIC	202	RC	1	2	23MD	1	0	0.712681055069	-400.0	291.0	-402	293	1
1.7	2015_Jul_22_1545	s	s	3	3	SIC	203	ABS	2	0	24VC	0	1	0.823179960251	None	None	None	None	1
1.7	2015_Jul_22_1545	s	s	3	3	SIC	204	ABS	2	2	24VD	0	1	0.606647968292	None	None	None	None	1
1.7	2015_Jul_22_1545	s	s	3	3	SIC	205	RC	0	2	23RD	1	0	0.740885972977	-9.0	286.0	-13	277	1
1.7	2015_Jul_22_1545	s	s	3	3	SIC	206	RC	1	0	23MC	1	0	1.5060210228	-262.0	-45.0	-258	-45	1
1.7	2015_Jul_22_1545	s	s	3	3	SIC	207	ABS	1	1	24MO	0	1	3.7108399868	None	None	None	None	1
1.7	2015_Jul_22_1545	s	s	3	3	SIC	208	ABS	0	2	24RD	0	1	1.0584859848	None	None	None	None	1
1.7	2015_Jul_22_1545	s	s	3	3	SIC	209	RC	0	1	23RO	1	0	3.47911500931	-82.0	-191.0	-85	-194	1
1.7	2015_Jul_22_1545	s	s	3	3	SIC	210	ABS	0	1	24RO	0	1	4.37807512283	None	None	None	None	1
1.7	2015_Jul_22_1545	s	s	3	3	SIC	211	RC	1	1	23MO	1	0	1.19509983063	42.0	-246.0	41	-241	1
1.7	2015_Jul_22_1545	s	s	3	3	SIC	212	ABS	0	2	24RD	0	1	1.27943706512	None	None	None	None	1
1.7	2015_Jul_22_1545	s	s	3	3	SIC	213	ABS	2	0	24VC	0	1	0.60640001297	None	None	None	None	1
1.7	2015_Jul_22_1545	s	s	3	3	SIC	214	RC	2	2	23VD	1	0	0.761124134064	502.0	280.0	497	275	1
1.7	2015_Jul_22_1545	s	s	3	3	SIC	215	RC	1	2	23MD	1	0	0.936290025711	46.0	-407.0	44	-414	1
1.7	2015_Jul_22_1545	s	s	3	3	SIC	216	RC	2	0	23VC	1	0	0.817978858948	-300.0	-215.0	-294	-223	1
1.7	2015_Jul_22_1545	s	s	3	3	SIC	217	RC	2	1	23VO	1	0	0.500997066498	373.0	373.0	368	378	1
1.7	2015_Jul_22_1545	s	s	3	3	SIC	218	ABS	2	2	24VD	0	1	0.693858861923	None	None	None	None	1
1.7	2015_Jul_22_1545	s	s	3	3	SIC	219	ABS	2	1	24VO	0	1	1.05871200562	None	None	None	None	1
1.7	2015_Jul_22_1545	s	s	3	3	SIC	220	ABS	1	2	24MD	0	1	1.43096184731	None	None	None	None	1
1.7	2015_Jul_22_1545	s	s	3	3	SIC	221	RC	1	0	23MC	1	0	1.56482195854	-108.0	-18.0	-105	-18	1
1.7	2015_Jul_22_1545	s	s	3	3	SIC	222	ABS	1	0	24MC	0	1	1.776679039	None	None	None	None	1
1.7	2015_Jul_22_1545	s	s	3	3	SIC	223	RC	0	2	23RD	1	0	0.752612113953	415.0	-78.0	415	-77	1
1.7	2015_Jul_22_1545	s	s	3	3	SIC	224	ABS	1	1	24MO	0	1	2.51828312874	None	None	None	None	1
1.7	2015_Jul_22_1545	s	s	3	3	SIC	225	ABS	2	1	24VO	0	1	0.682055950165	None	None	None	None	1
1.7	2015_Jul_22_1545	s	s	3	3	SIC	226	ABS	0	2	24RD	0	1	0.74086689949	None	None	None	None	1
1.7	2015_Jul_22_1545	s	s	3	3	SIC	227	RC	0	1	23RO	1	0	2.0918469429	-483.0	386.0	-477	386	1
1.7	2015_Jul_22_1545	s	s	3	3	SIC	228	RC	2	0	23VC	1	0	0.670310020447	51.0	-187.0	53	-196	1
1.7	2015_Jul_22_1545	s	s	3	3	SIC	229	ABS	2	2	24VD	0	1	0.630546092987	None	None	None	None	1
1.7	2015_Jul_22_1545	s	s	3	3	SIC	230	ABS	1	1	24MO	0	1	2.62426900864	None	None	None	None	1
1.7	2015_Jul_22_1545	s	s	3	3	SIC	231	RC	0	2	23RD	1	0	0.912715911865	-239.0	311.0	-237	311	1
1.7	2015_Jul_22_1545	s	s	3	3	SIC	232	RC	1	1	23MO	1	0	0.882122993469	-19.0	90.0	-15	89	1
1.7	2015_Jul_22_1545	s	s	3	3	SIC	233	RC	1	0	23MC	1	0	1.05536699295	216.0	-142.0	215	-145	1
1.7	2015_Jul_22_1545	s	s	3	3	SIC	234	RC	2	1	23VO	1	0	0.609205007553	293.0	169.0	297	172	1
1.7	2015_Jul_22_1545	s	s	3	3	SIC	235	ABS	0	1	24RO	0	1	3.84834504128	None	None	None	None	1
1.7	2015_Jul_22_1545	s	s	3	3	SIC	236	ABS	1	2	24MD	0	1	0.952825069427	None	None	None	None	1
1.7	2015_Jul_22_1545	s	s	3	3	SIC	237	ABS	2	0	24VC	0	1	0.552621841431	None	None	None	None	1
1.7	2015_Jul_22_1545	s	s	3	3	SIC	238	ABS	1	0	24MC	0	1	2.41871094704	None	None	None	None	1
1.7	2015_Jul_22_1545	s	s	3	3	SIC	239	RC	2	2	23VD	1	0	0.664649009705	299.0	116.0	303	118	1
1.7	2015_Jul_22_1545	s	s	3	3	SIC	240	RC	1	2	23MD	1	0	0.717452049255	175.0	395.0	183	395	1
1.7	2015_Jul_22_1545	s	s	3	3	SIC	241	RC	1	2	23MD	1	0	0.514755010605	-174.0	-7.0	-179	-13	1
1.7	2015_Jul_22_1545	s	s	3	3	SIC	242	ABS	1	2	24MD	0	1	0.79975605011	None	None	None	None	1
1.7	2015_Jul_22_1545	s	s	3	3	SIC	243	ABS	2	1	24VO	0	1	0.705658912659	None	None	None	None	1
1.7	2015_Jul_22_1545	s	s	3	3	SIC	244	ABS	1	0	24MC	0	1	2.14865398407	None	None	None	None	1
1.7	2015_Jul_22_1545	s	s	3	3	SIC	245	ABS	2	0	24VC	0	1	0.54768705368	None	None	None	None	1
1.7	2015_Jul_22_1545	s	s	3	3	SIC	246	RC	0	1	23RO	1	0	2.78892302513	466.0	-177.0	467	-179	1
1.7	2015_Jul_22_1545	s	s	3	3	SIC	247	ABS	1	1	24MO	0	1	3.11857795715	None	None	None	None	1
1.7	2015_Jul_22_1545	s	s	3	3	SIC	248	ABS	0	1	24RO	0	1	2.94871592522	None	None	None	None	1
1.7	2015_Jul_22_1545	s	s	3	3	SIC	249	RC	1	1	23MO	1	0	1.14116215706	-49.0	-355.0	-56	-354	1
1.7	2015_Jul_22_1545	s	s	3	3	SIC	250	RC	2	2	23VD	1	0	0.63501906395	-381.0	-144.0	-376	-143	1
1.7	2015_Jul_22_1545	s	s	3	3	SIC	251	ABS	0	2	24RD	0	1	1.6767680645	None	None	None	None	1
1.7	2015_Jul_22_1545	s	s	3	3	SIC	252	RC	0	2	23RD	1	0	0.623234033585	167.0	360.0	167	361	1
1.7	2015_Jul_22_1545	s	s	3	3	SIC	253	RC	2	0	23VC	1	0	0.752659082413	469.0	308.0	465	309	1
1.7	2015_Jul_22_1545	s	s	3	3	SIC	254	ABS	2	2	24VD	0	1	0.618448972702	None	None	None	None	1
1.7	2015_Jul_22_1545	s	s	3	3	SIC	255	RC	1	0	23MC	1	0	1.61194491386	-494.0	-62.0	-494	-59	1
1.7	2015_Jul_22_1545	s	s	3	3	SIC	256	RC	2	1	23VO	1	0	0.535897016525	220.0	96.0	228	94	1
1.7	2015_Jul_22_1545	s	s	3	3	SIC	257	ABS	2	2	24VD	0	1	0.623147964478	None	None	None	None	1
1.7	2015_Jul_22_1545	s	s	3	3	SIC	258	ABS	0	1	24RO	0	1	3.00762796402	None	None	None	None	1
1.7	2015_Jul_22_1545	s	s	3	3	SIC	259	ABS	2	0	24VC	0	1	0.595571994781	None	None	None	None	1
1.7	2015_Jul_22_1545	s	s	3	3	SIC	260	RC	0	2	23RD	1	0	0.782541036606	-130.0	-198.0	-136	-190	1
1.7	2015_Jul_22_1545	s	s	3	3	SIC	261	RC	2	2	23VD	1	0	0.500983953476	69.0	243.0	77	245	1
1.7	2015_Jul_22_1545	s	s	3	3	SIC	262	ABS	1	0	24MC	0	1	1.81857681274	None	None	None	None	1
1.7	2015_Jul_22_1545	s	s	3	3	SIC	263	RC	2	0	23VC	1	0	0.677255868912	363.0	-267.0	359	-269	1
1.7	2015_Jul_22_1545	s	s	3	3	SIC	264	ABS	2	1	24VO	0	1	0.882184028625	None	None	None	None	1
1.7	2015_Jul_22_1545	s	s	3	3	SIC	265	RC	1	2	23MD	1	0	0.585513114929	445.0	181.0	445	181	1
1.7	2015_Jul_22_1545	s	s	3	3	SIC	266	RC	0	1	23RO	1	0	1.88935709	457.0	-53.0	453	-53	1
1.7	2015_Jul_22_1545	s	s	3	3	SIC	267	ABS	0	2	24RD	0	1	1.5648419857	None	None	None	None	1
1.7	2015_Jul_22_1545	s	s	3	3	SIC	268	RC	1	0	23MC	0	1	2.71835708618	-295.0	336.0	None	None	0
1.7	2015_Jul_22_1545	s	s	3	3	SIC	269	RC	2	1	23VO	1	0	0.688791036606	175.0	359.0	180	351	1
1.7	2015_Jul_22_1545	s	s	3	3	SIC	270	RC	1	1	23MO	1	0	0.787935972214	-262.0	-246.0	-266	-251	1
1.7	2015_Jul_22_1545	s	s	3	3	SIC	271	ABS	1	2	24MD	0	1	1.19500303268	None	None	None	None	1
1.7	2015_Jul_22_1545	s	s	3	3	SIC	272	ABS	1	1	24MO	0	1	2.16168403625	None	None	None	None	1
1.7	2015_Jul_22_1545	s	s	3	3	SIC	273	ABS	2	2	24VD	0	1	0.587918996811	None	None	None	None	1
1.7	2015_Jul_22_1545	s	s	3	3	SIC	274	RC	1	2	23MD	1	0	0.65881896019	-98.0	-406.0	-92	-404	1
1.7	2015_Jul_22_1545	s	s	3	3	SIC	275	ABS	1	1	24MO	0	1	3.69527196884	None	None	None	None	1
1.7	2015_Jul_22_1545	s	s	3	3	SIC	276	ABS	2	1	24VO	0	1	0.573292970657	None	None	None	None	1
1.7	2015_Jul_22_1545	s	s	3	3	SIC	277	RC	2	2	23VD	1	0	0.858587026596	224.0	282.0	221	285	1
1.7	2015_Jul_22_1545	s	s	3	3	SIC	278	ABS	0	2	24RD	0	1	1.83299899101	None	None	None	None	1
1.7	2015_Jul_22_1545	s	s	3	3	SIC	279	ABS	0	1	24RO	0	1	3.2078769207	None	None	None	None	1
1.7	2015_Jul_22_1545	s	s	3	3	SIC	280	RC	0	1	23RO	1	0	2.79804611206	290.0	-180.0	294	-187	1
1.7	2015_Jul_22_1545	s	s	3	3	SIC	281	RC	1	0	23MC	1	0	1.48619890213	-93.0	275.0	-88	276	1
1.7	2015_Jul_22_1545	s	s	3	3	SIC	282	ABS	1	2	24MD	0	1	0.752606153488	None	None	None	None	1
1.7	2015_Jul_22_1545	s	s	3	3	SIC	283	ABS	1	0	24MC	0	1	2.45942997932	None	None	None	None	1
1.7	2015_Jul_22_1545	s	s	3	3	SIC	284	ABS	2	0	24VC	0	1	0.552461862564	None	None	None	None	1
1.7	2015_Jul_22_1545	s	s	3	3	SIC	285	RC	1	1	23MO	1	0	1.77667403221	249.0	-186.0	250	-183	1
1.7	2015_Jul_22_1545	s	s	3	3	SIC	286	RC	2	1	23VO	1	0	0.670306921005	-489.0	85.0	-486	74	1
1.7	2015_Jul_22_1545	s	s	3	3	SIC	287	RC	2	0	23VC	1	0	0.717342853546	-495.0	-110.0	-492	-113	1
1.7	2015_Jul_22_1545	s	s	3	3	SIC	288	RC	0	2	23RD	1	0	0.481985092163	-70.0	-102.0	-72	-109	1
1.7	2015_Jul_22_1545	s	s	3	3	SIC	289	RC	2	1	23VO	1	0	0.740944862366	533.0	-398.0	532	-398	1
1.7	2015_Jul_22_1545	s	s	3	3	SIC	290	RC	1	0	23MC	1	0	0.529049873352	-133.0	-27.0	-131	-27	1
1.7	2015_Jul_22_1545	s	s	3	3	SIC	291	ABS	0	2	24RD	0	1	0.788079977036	None	None	None	None	1
1.7	2015_Jul_22_1545	s	s	3	3	SIC	292	ABS	1	2	24MD	0	1	0.665423870087	None	None	None	None	1
1.7	2015_Jul_22_1545	s	s	3	3	SIC	293	RC	1	2	23MD	1	0	0.702373981476	10.0	-49.0	10	-59	1
1.7	2015_Jul_22_1545	s	s	3	3	SIC	294	ABS	2	1	24VO	0	1	0.611399173737	None	None	None	None	1
1.7	2015_Jul_22_1545	s	s	3	3	SIC	295	RC	1	1	23MO	1	0	1.05427479744	97.0	37.0	104	33	1
1.7	2015_Jul_22_1545	s	s	3	3	SIC	296	RC	2	0	23VC	1	0	2.48305892944	-344.0	9.0	-336	3	1
1.7	2015_Jul_22_1545	s	s	3	3	SIC	297	ABS	1	0	24MC	0	1	2.75370311737	None	None	None	None	1
1.7	2015_Jul_22_1545	s	s	3	3	SIC	298	ABS	1	1	24MO	0	1	2.93926882744	None	None	None	None	1
1.7	2015_Jul_22_1545	s	s	3	3	SIC	299	RC	2	2	23VD	1	0	0.587929964066	419.0	167.0	420	169	1
1.7	2015_Jul_22_1545	s	s	3	3	SIC	300	ABS	2	0	24VC	0	1	0.665796041489	None	None	None	None	1
1.7	2015_Jul_22_1545	s	s	3	3	SIC	301	ABS	2	2	24VD	0	1	0.512193202972	None	None	None	None	1
1.7	2015_Jul_22_1545	s	s	3	3	SIC	302	RC	0	1	23RO	1	0	1.31770205498	-273.0	137.0	-274	136	1
1.7	2015_Jul_22_1545	s	s	3	3	SIC	303	RC	0	2	23RD	1	0	1.06242799759	449.0	-365.0	451	-365	1
1.7	2015_Jul_22_1545	s	s	3	3	SIC	304	ABS	0	1	24RO	0	1	3.80809593201	None	None	None	None	1
1.7	2015_Jul_22_1545	s	s	3	3	SIC	305	RC	1	1	23MO	1	0	0.882240056992	-328.0	-235.0	-320	-236	1
1.7	2015_Jul_22_1545	s	s	3	3	SIC	306	ABS	2	2	24VD	0	1	0.935348987579	None	None	None	None	1
1.7	2015_Jul_22_1545	s	s	3	3	SIC	307	RC	1	2	23MD	1	0	0.724092006683	-358.0	-135.0	-350	-139	1
1.7	2015_Jul_22_1545	s	s	3	3	SIC	308	RC	0	1	23RO	1	0	1.5884039402	120.0	-229.0	126	-225	1
1.7	2015_Jul_22_1545	s	s	3	3	SIC	309	ABS	2	0	24VC	0	1	0.700833082199	None	None	None	None	1
1.7	2015_Jul_22_1545	s	s	3	3	SIC	310	RC	0	2	23RD	1	0	0.547618865967	112.0	282.0	118	280	1
1.7	2015_Jul_22_1545	s	s	3	3	SIC	311	ABS	1	1	24MO	0	1	3.16951990128	None	None	None	None	1
1.7	2015_Jul_22_1545	s	s	3	3	SIC	312	ABS	1	0	24MC	0	1	2.70657396317	None	None	None	None	1
1.7	2015_Jul_22_1545	s	s	3	3	SIC	313	ABS	0	2	24RD	0	1	0.829694032669	None	None	None	None	1
1.7	2015_Jul_22_1545	s	s	3	3	SIC	314	RC	2	1	23VO	1	0	0.611397027969	-375.0	-169.0	-375	-177	1
1.7	2015_Jul_22_1545	s	s	3	3	SIC	315	RC	2	0	23VC	1	0	0.488660097122	44.0	-147.0	35	-148	1
1.7	2015_Jul_22_1545	s	s	3	3	SIC	316	ABS	1	2	24MD	0	1	1.60952186584	None	None	None	None	1
1.7	2015_Jul_22_1545	s	s	3	3	SIC	317	ABS	0	1	24RO	0	1	3.97781014442	None	None	None	None	1
1.7	2015_Jul_22_1545	s	s	3	3	SIC	318	RC	1	0	23MC	1	0	6.00229501724	307.0	-257.0	309	-264	1
1.7	2015_Jul_22_1545	s	s	3	3	SIC	319	RC	2	2	23VD	1	0	0.594704866409	301.0	-398.0	297	-392	1
1.7	2015_Jul_22_1545	s	s	3	3	SIC	320	ABS	2	1	24VO	0	1	0.853896141052	None	None	None	None	1
1.7	2015_Jul_22_1545	s	s	3	3	SIC	321	ABS	1	2	24MD	0	1	0.770039796829	None	None	None	None	1
1.7	2015_Jul_22_1545	s	s	3	3	SIC	322	RC	0	2	23RD	1	0	0.629321813583	-169.0	97.0	-165	99	1
1.7	2015_Jul_22_1545	s	s	3	3	SIC	323	RC	0	1	23RO	1	0	2.3886179924	86.0	317.0	87	321	1
1.7	2015_Jul_22_1545	s	s	3	3	SIC	324	RC	1	2	23MD	1	0	0.517286062241	-133.0	-68.0	-130	-82	1
1.7	2015_Jul_22_1545	s	s	3	3	SIC	325	RC	2	2	23VD	1	0	0.511839866638	403.0	107.0	408	105	1
1.7	2015_Jul_22_1545	s	s	3	3	SIC	326	ABS	2	2	24VD	0	1	1.02344202995	None	None	None	None	1
1.7	2015_Jul_22_1545	s	s	3	3	SIC	327	ABS	1	0	24MC	0	1	3.73066782951	None	None	None	None	1
1.7	2015_Jul_22_1545	s	s	3	3	SIC	328	ABS	2	0	24VC	0	1	0.564389944077	None	None	None	None	1
1.7	2015_Jul_22_1545	s	s	3	3	SIC	329	ABS	0	2	24RD	0	1	0.655907869339	None	None	None	None	1
1.7	2015_Jul_22_1545	s	s	3	3	SIC	330	RC	2	0	23VC	1	0	0.676836013794	154.0	26.0	160	21	1
1.7	2015_Jul_22_1545	s	s	3	3	SIC	331	ABS	1	1	24MO	0	1	2.21898818016	None	None	None	None	1
1.7	2015_Jul_22_1545	s	s	3	3	SIC	332	RC	1	1	23MO	1	0	1.83553719521	327.0	96.0	327	93	1
1.7	2015_Jul_22_1545	s	s	3	3	SIC	333	ABS	2	1	24VO	0	1	0.984384059906	None	None	None	None	1
1.7	2015_Jul_22_1545	s	s	3	3	SIC	334	ABS	0	1	24RO	0	1	3.29249405861	None	None	None	None	1
1.7	2015_Jul_22_1545	s	s	3	3	SIC	335	RC	1	0	23MC	1	0	0.677083969116	-425.0	-296.0	-427	-305	1
1.7	2015_Jul_22_1545	s	s	3	3	SIC	336	RC	2	1	23VO	1	0	0.576083898544	51.0	212.0	46	212	1
1.7	2015_Jul_22_1545	s	s	3	3	SIC	337	RC	0	2	23RD	1	0	0.759040117264	-486.0	-37.0	-476	-37	1
1.7	2015_Jul_22_1545	s	s	3	3	SIC	338	ABS	1	1	24MO	0	1	3.97405791283	None	None	None	None	1
1.7	2015_Jul_22_1545	s	s	3	3	SIC	339	ABS	2	0	24VC	0	1	0.700250864029	None	None	None	None	1
1.7	2015_Jul_22_1545	s	s	3	3	SIC	340	RC	2	1	23VO	1	0	0.841717004776	251.0	-349.0	249	-350	1
1.7	2015_Jul_22_1545	s	s	3	3	SIC	341	ABS	2	1	24VO	0	1	0.818564891815	None	None	None	None	1
1.7	2015_Jul_22_1545	s	s	3	3	SIC	342	ABS	2	2	24VD	0	1	0.63514995575	None	None	None	None	1
1.7	2015_Jul_22_1545	s	s	3	3	SIC	343	RC	2	0	23VC	1	0	0.587889909744	394.0	-61.0	392	-72	1
1.7	2015_Jul_22_1545	s	s	3	3	SIC	344	RC	0	1	23RO	1	0	3.26700401306	475.0	184.0	473	175	1
1.7	2015_Jul_22_1545	s	s	3	3	SIC	345	ABS	1	0	24MC	0	1	2.72699999809	None	None	None	None	1
1.7	2015_Jul_22_1545	s	s	3	3	SIC	346	ABS	1	2	24MD	0	1	0.87730717659	None	None	None	None	1
1.7	2015_Jul_22_1545	s	s	3	3	SIC	347	RC	1	1	23MO	1	0	0.877239942551	223.0	-98.0	224	-96	1
1.7	2015_Jul_22_1545	s	s	3	3	SIC	348	RC	1	2	23MD	1	0	0.511813879013	-20.0	43.0	-22	32	1
1.7	2015_Jul_22_1545	s	s	3	3	SIC	349	RC	2	2	23VD	1	0	0.500654220581	-184.0	-84.0	-186	-85	1
1.7	2015_Jul_22_1545	s	s	3	3	SIC	350	ABS	0	1	24RO	0	1	4.96320605278	None	None	None	None	1
1.7	2015_Jul_22_1545	s	s	3	3	SIC	351	ABS	0	2	24RD	0	1	0.68873500824	None	None	None	None	1
1.7	2015_Jul_22_1545	s	s	3	3	SIC	352	RC	1	0	23MC	1	0	2.93634700775	-91.0	340.0	-97	339	1
1.7	2015_Jul_22_1545	s	s	3	3	SIC	353	ABS	2	1	24VO	0	1	0.97633099556	None	None	None	None	1
1.7	2015_Jul_22_1545	s	s	3	3	SIC	354	ABS	1	1	24MO	0	1	2.37212896347	None	None	None	None	1
1.7	2015_Jul_22_1545	s	s	3	3	SIC	355	RC	1	1	23MO	1	0	0.97637295723	191.0	202.0	185	206	1
1.7	2015_Jul_22_1545	s	s	3	3	SIC	356	ABS	1	2	24MD	0	1	0.946967840195	None	None	None	None	1
1.7	2015_Jul_22_1545	s	s	3	3	SIC	357	RC	2	0	23VC	1	0	0.573069810867	234.0	300.0	233	304	1
1.7	2015_Jul_22_1545	s	s	3	3	SIC	358	RC	0	1	23RO	1	0	1.52394318581	-432.0	367.0	-435	355	1
1.7	2015_Jul_22_1545	s	s	3	3	SIC	359	RC	1	2	23MD	1	0	0.858660936356	341.0	-386.0	344	-392	1
1.7	2015_Jul_22_1545	s	s	3	3	SIC	360	RC	2	2	23VD	1	0	0.528898954391	-373.0	357.0	-374	357	1
1.7	2015_Jul_22_1545	s	s	3	3	SIC	361	ABS	2	0	24VC	0	1	0.839560031891	None	None	None	None	1
1.7	2015_Jul_22_1545	s	s	3	3	SIC	362	RC	1	0	23MC	0	1	2.30228185654	430.0	-168.0	None	None	0
1.7	2015_Jul_22_1545	s	s	3	3	SIC	363	ABS	0	1	24RO	0	1	3.67804121971	None	None	None	None	1
1.7	2015_Jul_22_1545	s	s	3	3	SIC	364	ABS	0	2	24RD	0	1	0.912518978119	None	None	None	None	1
1.7	2015_Jul_22_1545	s	s	3	3	SIC	365	RC	0	2	23RD	1	0	0.893892049789	-205.0	410.0	-206	410	1
1.7	2015_Jul_22_1545	s	s	3	3	SIC	366	RC	2	1	23VO	1	0	0.476988077164	-441.0	142.0	-438	136	1
1.7	2015_Jul_22_1545	s	s	3	3	SIC	367	ABS	2	2	24VD	0	1	0.653138160706	None	None	None	None	1
1.7	2015_Jul_22_1545	s	s	3	3	SIC	368	ABS	1	0	24MC	0	1	1.34812688828	None	None	None	None	1
1.7	2015_Jul_22_1545	s	s	3	3	SIC	369	ABS	2	0	24VC	0	1	0.570967912674	None	None	None	None	1
1.7	2015_Jul_22_1545	s	s	3	3	SIC	370	ABS	1	2	24MD	0	1	0.737024068832	None	None	None	None	1
1.7	2015_Jul_22_1545	s	s	3	3	SIC	371	RC	1	2	23MD	1	0	0.700682878494	439.0	274.0	439	279	1
1.7	2015_Jul_22_1545	s	s	3	3	SIC	372	ABS	2	1	24VO	0	1	0.677014112473	None	None	None	None	1
1.7	2015_Jul_22_1545	s	s	3	3	SIC	373	ABS	2	2	24VD	0	1	0.490478038788	None	None	None	None	1
1.7	2015_Jul_22_1545	s	s	3	3	SIC	374	ABS	0	1	24RO	0	1	3.73066711426	None	None	None	None	1
1.7	2015_Jul_22_1545	s	s	3	3	SIC	375	RC	2	1	23VO	1	0	0.721724033356	268.0	-100.0	275	-102	1
1.7	2015_Jul_22_1545	s	s	3	3	SIC	376	ABS	0	2	24RD	0	1	1.21852517128	None	None	None	None	1
1.7	2015_Jul_22_1545	s	s	3	3	SIC	377	RC	2	0	23VC	1	0	0.51728105545	-55.0	-48.0	-54	-50	1
1.7	2015_Jul_22_1545	s	s	3	3	SIC	378	ABS	1	0	24MC	0	1	2.05557703972	None	None	None	None	1
1.7	2015_Jul_22_1545	s	s	3	3	SIC	379	RC	2	2	23VD	1	0	0.599663972855	453.0	101.0	454	99	1
1.7	2015_Jul_22_1545	s	s	3	3	SIC	380	RC	1	0	23MC	1	0	0.885931968689	51.0	139.0	47	133	1
1.7	2015_Jul_22_1545	s	s	3	3	SIC	381	RC	0	1	23RO	0	1	4.3158018589	314.0	-167.0	None	None	0
1.7	2015_Jul_22_1545	s	s	3	3	SIC	382	RC	1	1	23MO	1	0	0.746739149094	-305.0	-1.0	-301	-9	1
1.7	2015_Jul_22_1545	s	s	3	3	SIC	383	RC	0	2	23RD	1	0	0.811507940292	436.0	219.0	440	216	1
1.7	2015_Jul_22_1545	s	s	3	3	SIC	384	ABS	1	1	24MO	1	0	4.12591791153	None	None	36	-52	0
1.7	2015_Jul_22_1545	s	s	3	3	SIC	385	RC	1	2	23MD	1	0	0.64321398735	223.0	-115.0	225	-109	1
1.7	2015_Jul_22_1545	s	s	3	3	SIC	386	RC	1	0	23MC	1	0	1.78357291222	174.0	-297.0	181	-293	1
1.7	2015_Jul_22_1545	s	s	3	3	SIC	387	RC	1	1	23MO	1	0	1.25074791908	-86.0	-386.0	-80	-390	1
1.7	2015_Jul_22_1545	s	s	3	3	SIC	388	ABS	2	2	24VD	0	1	0.623205900192	None	None	None	None	1
1.7	2015_Jul_22_1545	s	s	3	3	SIC	389	RC	0	1	23RO	1	0	1.29791378975	280.0	-310.0	286	-303	1
1.7	2015_Jul_22_1545	s	s	3	3	SIC	390	ABS	0	1	24RO	0	1	4.67881584167	None	None	None	None	1
1.7	2015_Jul_22_1545	s	s	3	3	SIC	391	RC	2	1	23VO	1	0	0.547639131546	-88.0	139.0	-84	145	1
1.7	2015_Jul_22_1545	s	s	3	3	SIC	392	ABS	1	2	24MD	0	1	1.17644095421	None	None	None	None	1
1.7	2015_Jul_22_1545	s	s	3	3	SIC	393	RC	2	0	23VC	1	0	0.512220144272	54.0	119.0	50	107	1
1.7	2015_Jul_22_1545	s	s	3	3	SIC	394	ABS	1	1	24MO	0	1	2.63595509529	None	None	None	None	1
1.7	2015_Jul_22_1545	s	s	3	3	SIC	395	RC	2	2	23VD	1	0	0.481992959976	-457.0	118.0	-460	121	1
1.7	2015_Jul_22_1545	s	s	3	3	SIC	396	ABS	2	1	24VO	0	1	0.635041952133	None	None	None	None	1
1.7	2015_Jul_22_1545	s	s	3	3	SIC	397	ABS	0	2	24RD	0	1	1.67438006401	None	None	None	None	1
1.7	2015_Jul_22_1545	s	s	3	3	SIC	398	RC	0	2	23RD	1	0	0.529445171356	-157.0	287.0	-161	286	1
1.7	2015_Jul_22_1545	s	s	3	3	SIC	399	ABS	2	0	24VC	0	1	0.940979957581	None	None	None	None	1
1.7	2015_Jul_22_1545	s	s	3	3	SIC	400	ABS	1	0	24MC	0	1	2.68275403976	None	None	None	None	1
1.7	2015_Jul_22_1545	s	s	3	3	SIC	401	ABS	2	2	24VD	0	1	0.693861961365	None	None	None	None	1
1.7	2015_Jul_22_1545	s	s	3	3	SIC	402	ABS	1	2	24MD	0	1	1.20688605309	None	None	None	None	1
1.7	2015_Jul_22_1545	s	s	3	3	SIC	403	RC	2	2	23VD	1	0	0.693881034851	-135.0	324.0	-128	323	1
1.7	2015_Jul_22_1545	s	s	3	3	SIC	404	RC	1	1	23MO	1	0	1.04704284668	-122.0	-208.0	-119	-205	1
1.7	2015_Jul_22_1545	s	s	3	3	SIC	405	ABS	1	0	24MC	0	1	2.93710899353	None	None	None	None	1
1.7	2015_Jul_22_1545	s	s	3	3	SIC	406	RC	1	2	23MD	1	0	0.724693059921	237.0	236.0	242	233	1
1.7	2015_Jul_22_1545	s	s	3	3	SIC	407	ABS	1	1	24MO	0	1	3.04293298721	None	None	None	None	1
1.7	2015_Jul_22_1545	s	s	3	3	SIC	408	ABS	2	1	24VO	0	1	0.606735944748	None	None	None	None	1
1.7	2015_Jul_22_1545	s	s	3	3	SIC	409	ABS	2	0	24VC	0	1	0.88213300705	None	None	None	None	1
1.7	2015_Jul_22_1545	s	s	3	3	SIC	410	RC	0	2	23RD	1	0	1.33808803558	55.0	-406.0	50	-417	1
1.7	2015_Jul_22_1545	s	s	3	3	SIC	411	RC	2	1	23VO	1	0	0.611476898193	435.0	-355.0	432	-347	1
1.7	2015_Jul_22_1545	s	s	3	3	SIC	412	RC	1	0	23MC	1	0	1.19992494583	172.0	-106.0	171	-103	1
1.7	2015_Jul_22_1545	s	s	3	3	SIC	413	RC	2	0	23VC	1	0	0.505528211594	234.0	-147.0	234	-149	1
1.7	2015_Jul_22_1545	s	s	3	3	SIC	414	ABS	0	1	24RO	0	1	2.93714594841	None	None	None	None	1
1.7	2015_Jul_22_1545	s	s	3	3	SIC	415	RC	0	1	23RO	1	0	2.01582813263	-288.0	-324.0	-277	-315	1
1.7	2015_Jul_22_1545	s	s	3	3	SIC	416	ABS	0	2	24RD	0	1	1.85904598236	None	None	None	None	1
1.7	2015_Jul_22_1545	s	s	3	3	SIC	417	ABS	1	0	24MC	0	1	2.63277506828	None	None	None	None	1
1.7	2015_Jul_22_1545	s	s	3	3	SIC	418	RC	1	0	23MC	1	0	1.32440900803	-357.0	-388.0	-346	-384	1
1.7	2015_Jul_22_1545	s	s	3	3	SIC	419	RC	1	2	23MD	1	0	0.547482013702	-501.0	-16.0	-496	-10	1
1.7	2015_Jul_22_1545	s	s	3	3	SIC	420	RC	2	1	23VO	1	0	0.522525072098	185.0	310.0	187	308	1
1.7	2015_Jul_22_1545	s	s	3	3	SIC	421	RC	0	1	23RO	1	0	1.18339395523	-139.0	-134.0	-136	-136	1
1.7	2015_Jul_22_1545	s	s	3	3	SIC	422	RC	1	1	23MO	1	0	0.83007311821	-61.0	-336.0	-57	-332	1
1.7	2015_Jul_22_1545	s	s	3	3	SIC	423	RC	2	0	23VC	1	0	0.490535020828	356.0	343.0	361	340	1
1.7	2015_Jul_22_1545	s	s	3	3	SIC	424	ABS	1	1	24MO	0	1	2.62421798706	None	None	None	None	1
1.7	2015_Jul_22_1545	s	s	3	3	SIC	425	ABS	0	1	24RO	0	1	3.01263785362	None	None	None	None	1
1.7	2015_Jul_22_1545	s	s	3	3	SIC	426	ABS	2	1	24VO	0	1	0.641829013824	None	None	None	None	1
1.7	2015_Jul_22_1545	s	s	3	3	SIC	427	ABS	1	2	24MD	0	1	0.882112979889	None	None	None	None	1
1.7	2015_Jul_22_1545	s	s	3	3	SIC	428	ABS	2	2	24VD	0	1	0.536899089813	None	None	None	None	1
1.7	2015_Jul_22_1545	s	s	3	3	SIC	429	ABS	0	2	24RD	0	1	0.734941005707	None	None	None	None	1
1.7	2015_Jul_22_1545	s	s	3	3	SIC	430	RC	0	2	23RD	1	0	0.72655415535	-367.0	311.0	-362	309	1
1.7	2015_Jul_22_1545	s	s	3	3	SIC	431	RC	2	2	23VD	1	0	0.465361833572	499.0	-251.0	498	-259	1
1.7	2015_Jul_22_1545	s	s	3	3	SIC	432	ABS	2	0	24VC	0	1	0.740880966187	None	None	None	None	1
1.7	2015_Jul_22_1545	s	s	3	3	SIC	433	RC	1	2	23MD	1	0	0.725996017456	-222.0	-250.0	-210	-248	1
1.7	2015_Jul_22_1545	s	s	3	3	SIC	434	ABS	2	0	24VC	0	1	0.616447925568	None	None	None	None	1
1.7	2015_Jul_22_1545	s	s	3	3	SIC	435	ABS	2	1	24VO	0	1	0.547492027283	None	None	None	None	1
1.7	2015_Jul_22_1545	s	s	3	3	SIC	436	RC	2	2	23VD	1	0	0.705970048904	-487.0	21.0	-490	20	1
1.7	2015_Jul_22_1545	s	s	3	3	SIC	437	RC	2	0	23VC	1	0	0.500522851944	19.0	135.0	26	134	1
1.7	2015_Jul_22_1545	s	s	3	3	SIC	438	ABS	1	0	24MC	0	1	1.50350594521	None	None	None	None	1
1.7	2015_Jul_22_1545	s	s	3	3	SIC	439	RC	0	2	23RD	1	0	0.552635908127	224.0	43.0	223	39	1
1.7	2015_Jul_22_1545	s	s	3	3	SIC	440	RC	1	0	23MC	0	1	2.32973098755	514.0	-329.0	None	None	0
1.7	2015_Jul_22_1545	s	s	3	3	SIC	441	RC	2	1	23VO	1	0	0.503070831299	84.0	250.0	73	250	1
1.7	2015_Jul_22_1545	s	s	3	3	SIC	442	ABS	2	2	24VD	0	1	0.665930986404	None	None	None	None	1
1.7	2015_Jul_22_1545	s	s	3	3	SIC	443	ABS	0	2	24RD	0	1	1.11758899689	None	None	None	None	1
1.7	2015_Jul_22_1545	s	s	3	3	SIC	444	RC	1	1	23MO	1	0	1.66595196724	-422.0	-177.0	-415	-178	1
1.7	2015_Jul_22_1545	s	s	3	3	SIC	445	ABS	0	1	24RO	0	1	4.0366461277	None	None	None	None	1
1.7	2015_Jul_22_1545	s	s	3	3	SIC	446	RC	0	1	23RO	1	0	1.51778578758	-318.0	409.0	-309	407	1
1.7	2015_Jul_22_1545	s	s	3	3	SIC	447	ABS	1	1	24MO	0	1	2.47772097588	None	None	None	None	1
1.7	2015_Jul_22_1545	s	s	3	3	SIC	448	ABS	1	2	24MD	0	1	0.805266857147	None	None	None	None	1
1.7	2015_Jul_22_1545	s	s	3	3	SIC	449	ABS	0	1	24RO	0	1	4.23196816444	None	None	None	None	1
1.7	2015_Jul_22_1545	s	s	3	3	SIC	450	ABS	2	1	24VO	0	1	0.514769077301	None	None	None	None	1
1.7	2015_Jul_22_1545	s	s	3	3	SIC	451	RC	1	2	23MD	1	0	0.764469146729	242.0	178.0	248	170	1
1.7	2015_Jul_22_1545	s	s	3	3	SIC	452	RC	2	2	23VD	1	0	0.458528995514	-124.0	120.0	-126	121	1
1.7	2015_Jul_22_1545	s	s	3	3	SIC	453	RC	0	2	23RD	1	0	0.547744989395	121.0	-85.0	126	-92	1
1.7	2015_Jul_22_1545	s	s	3	3	SIC	454	RC	0	1	23RO	1	0	1.02095389366	-158.0	-20.0	-154	-20	1
1.7	2015_Jul_22_1545	s	s	3	3	SIC	455	ABS	0	2	24RD	0	1	1.0548119545	None	None	None	None	1
1.7	2015_Jul_22_1545	s	s	3	3	SIC	456	ABS	2	2	24VD	0	1	0.547703027725	None	None	None	None	1
1.7	2015_Jul_22_1545	s	s	3	3	SIC	457	ABS	2	0	24VC	0	1	0.611462116241	None	None	None	None	1
1.7	2015_Jul_22_1545	s	s	3	3	SIC	458	ABS	1	0	24MC	0	1	1.37166905403	None	None	None	None	1
1.7	2015_Jul_22_1545	s	s	3	3	SIC	459	RC	2	1	23VO	1	0	0.582980155945	242.0	53.0	245	50	1
1.7	2015_Jul_22_1545	s	s	3	3	SIC	460	ABS	1	1	24MO	0	1	2.13678193092	None	None	None	None	1
1.7	2015_Jul_22_1545	s	s	3	3	SIC	461	ABS	1	2	24MD	0	1	0.632481098175	None	None	None	None	1
1.7	2015_Jul_22_1545	s	s	3	3	SIC	462	RC	2	0	23VC	1	0	0.535922050476	181.0	336.0	192	338	1
1.7	2015_Jul_22_1545	s	s	3	3	SIC	463	RC	1	1	23MO	1	0	1.12937688828	-221.0	184.0	-214	184	1
1.7	2015_Jul_22_1545	s	s	3	3	SIC	464	RC	1	0	23MC	1	0	1.90050196648	-392.0	-281.0	-391	-275	1
1.7	2015_Jul_22_1545	s	s	3	3	SIC	465	RC	2	2	23VD	1	0	0.493717908859	-433.0	131.0	-425	127	1
1.7	2015_Jul_22_1545	s	s	3	3	SIC	466	ABS	0	2	24RD	0	1	2.29128503799	None	None	None	None	1
1.7	2015_Jul_22_1545	s	s	3	3	SIC	467	RC	0	1	23RO	1	0	1.19505286217	-110.0	-220.0	-103	-219	1
1.7	2015_Jul_22_1545	s	s	3	3	SIC	468	ABS	1	0	24MC	0	1	1.82381296158	None	None	None	None	1
1.7	2015_Jul_22_1545	s	s	3	3	SIC	469	ABS	0	1	24RO	0	1	3.15144491196	None	None	None	None	1
1.7	2015_Jul_22_1545	s	s	3	3	SIC	470	RC	1	2	23MD	1	0	0.809015035629	498.0	-312.0	502	-310	1
1.7	2015_Jul_22_1545	s	s	3	3	SIC	471	ABS	2	2	24VD	0	1	0.611447095871	None	None	None	None	1
1.7	2015_Jul_22_1545	s	s	3	3	SIC	472	RC	1	0	23MC	1	0	4.29118704796	430.0	219.0	427	214	1
1.7	2015_Jul_22_1545	s	s	3	3	SIC	473	RC	2	0	23VC	1	0	0.561843156815	375.0	193.0	378	197	1
1.7	2015_Jul_22_1545	s	s	3	3	SIC	474	ABS	1	2	24MD	0	1	0.670295000076	None	None	None	None	1
1.7	2015_Jul_22_1545	s	s	3	3	SIC	475	ABS	1	1	24MO	0	1	0.818614959717	None	None	None	None	1
1.7	2015_Jul_22_1545	s	s	3	3	SIC	476	RC	2	1	23VO	1	0	0.853801012039	532.0	-85.0	533	-88	1
1.7	2015_Jul_22_1545	s	s	3	3	SIC	477	ABS	2	1	24VO	0	1	0.702872991562	None	None	None	None	1
1.7	2015_Jul_22_1545	s	s	3	3	SIC	478	RC	1	1	23MO	1	0	1.37150597572	394.0	-221.0	397	-224	1
1.7	2015_Jul_22_1545	s	s	3	3	SIC	479	RC	0	2	23RD	1	0	0.712770938873	-250.0	179.0	-245	174	1
1.7	2015_Jul_22_1545	s	s	3	3	SIC	480	ABS	2	0	24VC	0	1	0.523340940475	None	None	None	None	1
1.7	2015_Jul_22_1545	s	s	3	3	SIC	481	RC	2	2	23VD	1	0	0.576527833939	-336.0	-233.0	-337	-235	1
1.7	2015_Jul_22_1545	s	s	3	3	SIC	482	ABS	0	1	24RO	0	1	1.57663607597	None	None	None	None	1
1.7	2015_Jul_22_1545	s	s	3	3	SIC	483	ABS	2	0	24VC	0	1	0.584779024124	None	None	None	None	1
1.7	2015_Jul_22_1545	s	s	3	3	SIC	484	ABS	0	2	24RD	0	1	1.3294839859	None	None	None	None	1
1.7	2015_Jul_22_1545	s	s	3	3	SIC	485	ABS	1	2	24MD	0	1	0.797186136246	None	None	None	None	1
1.7	2015_Jul_22_1545	s	s	3	3	SIC	486	RC	1	2	23MD	1	0	0.723481893539	198.0	62.0	203	62	1
1.7	2015_Jul_22_1545	s	s	3	3	SIC	487	ABS	1	1	24MO	0	1	2.43062496185	None	None	None	None	1
1.7	2015_Jul_22_1545	s	s	3	3	SIC	488	RC	2	0	23VC	1	0	0.677067995071	-89.0	-359.0	-84	-350	1
1.7	2015_Jul_22_1545	s	s	3	3	SIC	489	RC	0	2	23RD	1	0	0.764313936234	-472.0	-165.0	-462	-165	1
1.7	2015_Jul_22_1545	s	s	3	3	SIC	490	ABS	1	0	24MC	0	1	3.02079796791	None	None	None	None	1
1.7	2015_Jul_22_1545	s	s	3	3	SIC	491	RC	2	1	23VO	1	0	0.493758916855	-334.0	85.0	-332	82	1
1.7	2015_Jul_22_1545	s	s	3	3	SIC	492	RC	0	1	23RO	0	1	3.20094299316	168.0	-106.0	None	None	0
1.7	2015_Jul_22_1545	s	s	3	3	SIC	493	RC	1	1	23MO	1	0	0.535257101059	-7.0	-17.0	-8	-21	1
1.7	2015_Jul_22_1545	s	s	3	3	SIC	494	ABS	2	2	24VD	0	1	0.567986965179	None	None	None	None	1
1.7	2015_Jul_22_1545	s	s	3	3	SIC	495	RC	1	0	23MC	0	1	1.95069098473	365.0	285.0	None	None	0
1.7	2015_Jul_22_1545	s	s	3	3	SIC	496	ABS	2	1	24VO	0	1	0.517285108566	None	None	None	None	1
1.7	2015_Jul_22_1545	s	s	3	3	SIC	497	RC	1	2	23MD	1	0	0.705487012863	63.0	-405.0	76	-400	1
1.7	2015_Jul_22_1545	s	s	3	3	SIC	498	ABS	2	1	24VO	0	1	0.53585100174	None	None	None	None	1
1.7	2015_Jul_22_1545	s	s	3	3	SIC	499	ABS	2	0	24VC	0	1	0.529042005539	None	None	None	None	1
1.7	2015_Jul_22_1545	s	s	3	3	SIC	500	ABS	0	2	24RD	0	1	0.570998907089	None	None	None	None	1
1.7	2015_Jul_22_1545	s	s	3	3	SIC	501	RC	0	1	23RO	0	1	1.44715094566	296.0	-231.0	None	None	0
1.7	2015_Jul_22_1545	s	s	3	3	SIC	502	RC	0	2	23RD	1	0	0.623056173325	-462.0	-68.0	-465	-75	1
1.7	2015_Jul_22_1545	s	s	3	3	SIC	503	ABS	2	2	24VD	0	1	0.588011026382	None	None	None	None	1
1.7	2015_Jul_22_1545	s	s	3	3	SIC	504	RC	2	2	23VD	1	0	0.665249109268	-33.0	-225.0	-25	-216	1
1.7	2015_Jul_22_1545	s	s	3	3	SIC	505	RC	1	1	23MO	1	0	2.51825976372	498.0	-220.0	497	-215	1
1.7	2015_Jul_22_1545	s	s	3	3	SIC	506	RC	1	0	23MC	1	0	0.924419879913	81.0	-171.0	88	-168	1
1.7	2015_Jul_22_1545	s	s	3	3	SIC	507	ABS	0	1	24RO	0	1	3.77773594856	None	None	None	None	1
1.7	2015_Jul_22_1545	s	s	3	3	SIC	508	ABS	1	1	24MO	0	1	1.4439458847	None	None	None	None	1
1.7	2015_Jul_22_1545	s	s	3	3	SIC	509	ABS	1	2	24MD	0	1	0.646723031998	None	None	None	None	1
1.7	2015_Jul_22_1545	s	s	3	3	SIC	510	RC	2	1	23VO	1	0	0.882191181183	-486.0	-248.0	-480	-254	1
1.7	2015_Jul_22_1545	s	s	3	3	SIC	511	ABS	1	0	24MC	0	1	2.75366187096	None	None	None	None	1
1.7	2015_Jul_22_1545	s	s	3	3	SIC	512	RC	2	0	23VC	1	0	0.53582906723	-267.0	-232.0	-266	-235	1
1.7	2015_Jul_22_1545	s	s	3	3	SIC	513	RC	0	1	23RO	1	0	2.5724170208	266.0	-152.0	276	-147	1
1.7	2015_Jul_22_1545	s	s	3	3	SIC	514	RC	2	1	23VO	1	0	0.618293046951	-519.0	400.0	-514	394	1
1.7	2015_Jul_22_1545	s	s	3	3	SIC	515	ABS	1	2	24MD	0	1	1.68956899643	None	None	None	None	1
1.7	2015_Jul_22_1545	s	s	3	3	SIC	516	ABS	0	1	24RO	0	1	2.21928310394	None	None	None	None	1
1.7	2015_Jul_22_1545	s	s	3	3	SIC	517	RC	0	2	23RD	1	0	0.677424907684	-51.0	-292.0	-46	-291	1
1.7	2015_Jul_22_1545	s	s	3	3	SIC	518	RC	2	0	23VC	1	0	1.97107291222	-151.0	133.0	-152	131	1
1.7	2015_Jul_22_1545	s	s	3	3	SIC	519	ABS	1	0	24MC	0	1	1.71535301208	None	None	None	None	1
1.7	2015_Jul_22_1545	s	s	3	3	SIC	520	ABS	2	1	24VO	0	1	0.559531927109	None	None	None	None	1
1.7	2015_Jul_22_1545	s	s	3	3	SIC	521	RC	2	2	23VD	0	1	0.476851940155	-174.0	168.0	None	None	0
1.7	2015_Jul_22_1545	s	s	3	3	SIC	522	RC	1	1	23MO	1	0	1.16840100288	195.0	215.0	190	213	1
1.7	2015_Jul_22_1545	s	s	3	3	SIC	523	RC	1	2	23MD	1	0	0.599602937698	-18.0	157.0	-15	151	1
1.7	2015_Jul_22_1545	s	s	3	3	SIC	524	ABS	2	2	24VD	0	1	0.641832828522	None	None	None	None	1
1.7	2015_Jul_22_1545	s	s	3	3	SIC	525	ABS	0	2	24RD	0	1	0.867031097412	None	None	None	None	1
1.7	2015_Jul_22_1545	s	s	3	3	SIC	526	RC	1	0	23MC	0	1	0.976253986359	253.0	-210.0	None	None	0
1.7	2015_Jul_22_1545	s	s	3	3	SIC	527	ABS	2	0	24VC	0	1	0.466770172119	None	None	None	None	1
1.7	2015_Jul_22_1545	s	s	3	3	SIC	528	ABS	1	1	24MO	0	1	1.65908908844	None	None	None	None	1
1.7	2015_Jul_22_1545	s	s	3	3	SIC	529	RC	2	2	23VD	1	0	0.700495958328	-429.0	334.0	-424	328	1
1.7	2015_Jul_22_1545	s	s	3	3	SIC	530	ABS	1	1	24MO	0	1	3.05499005318	None	None	None	None	1
1.7	2015_Jul_22_1545	s	s	3	3	SIC	531	ABS	2	1	24VO	0	1	0.676899909973	None	None	None	None	1
1.7	2015_Jul_22_1545	s	s	3	3	SIC	532	RC	0	2	23RD	1	0	0.582952976227	136.0	232.0	131	234	1
1.7	2015_Jul_22_1545	s	s	3	3	SIC	533	ABS	0	1	24RO	0	1	1.88269400597	None	None	None	None	1
1.7	2015_Jul_22_1545	s	s	3	3	SIC	534	ABS	1	0	24MC	0	1	1.43539690971	None	None	None	None	1
1.7	2015_Jul_22_1545	s	s	3	3	SIC	535	RC	1	2	23MD	1	0	0.818588018417	371.0	-382.0	364	-380	1
1.7	2015_Jul_22_1545	s	s	3	3	SIC	536	ABS	2	0	24VC	0	1	0.630104064941	None	None	None	None	1
1.7	2015_Jul_22_1545	s	s	3	3	SIC	537	RC	2	1	23VO	1	0	0.71197104454	-355.0	-38.0	-355	-39	1
1.7	2015_Jul_22_1545	s	s	3	3	SIC	538	ABS	2	2	24VD	0	1	0.505567789078	None	None	None	None	1
1.7	2015_Jul_22_1545	s	s	3	3	SIC	539	ABS	1	2	24MD	0	1	0.846879005432	None	None	None	None	1
1.7	2015_Jul_22_1545	s	s	3	3	SIC	540	RC	1	0	23MC	0	1	0.841990947723	-279.0	96.0	None	None	0
1.7	2015_Jul_22_1545	s	s	3	3	SIC	541	RC	0	1	23RO	0	1	1.08233594894	346.0	-359.0	None	None	0
1.7	2015_Jul_22_1545	s	s	3	3	SIC	542	RC	2	0	23VC	1	0	0.94979596138	-501.0	333.0	-501	333	1
1.7	2015_Jul_22_1545	s	s	3	3	SIC	543	ABS	0	2	24RD	0	1	0.794558048248	None	None	None	None	1
1.7	2015_Jul_22_1545	s	s	3	3	SIC	544	RC	1	1	23MO	1	0	1.45418596268	-327.0	-56.0	-317	-52	1
1.7	2015_Jul_22_1545	s	s	3	3	SIC	545	ABS	2	2	24VD	0	1	0.540577888489	None	None	None	None	1
1.7	2015_Jul_22_1545	s	s	3	3	SIC	546	RC	2	0	23VC	1	0	0.788043022156	-513.0	404.0	-515	405	1
1.7	2015_Jul_22_1545	s	s	3	3	SIC	547	ABS	1	2	24MD	0	1	0.611360788345	None	None	None	None	1
1.7	2015_Jul_22_1545	s	s	3	3	SIC	548	RC	2	2	23VD	1	0	0.893948078156	-77.0	-289.0	-71	-280	1
1.7	2015_Jul_22_1545	s	s	3	3	SIC	549	ABS	2	0	24VC	0	1	0.594027042389	None	None	None	None	1
1.7	2015_Jul_22_1545	s	s	3	3	SIC	550	RC	0	1	23RO	0	1	0.764430046082	213.0	172.0	None	None	0
1.7	2015_Jul_22_1545	s	s	3	3	SIC	551	RC	0	2	23RD	1	0	0.711131095886	14.0	-290.0	15	-281	1
1.7	2015_Jul_22_1545	s	s	3	3	SIC	552	RC	1	1	23MO	0	1	1.14109396935	235.0	-226.0	None	None	0
1.7	2015_Jul_22_1545	s	s	3	3	SIC	553	ABS	0	2	24RD	0	1	0.901952981949	None	None	None	None	1
1.7	2015_Jul_22_1545	s	s	3	3	SIC	554	ABS	1	1	24MO	0	1	2.8714120388	None	None	None	None	1
1.7	2015_Jul_22_1545	s	s	3	3	SIC	555	ABS	1	0	24MC	0	1	2.25924897194	None	None	None	None	1
1.7	2015_Jul_22_1545	s	s	3	3	SIC	556	RC	2	1	23VO	1	0	0.571030855179	339.0	10.0	345	16	1
1.7	2015_Jul_22_1545	s	s	3	3	SIC	557	RC	1	0	23MC	1	0	2.0474960804	-93.0	-58.0	-94	-55	1
1.7	2015_Jul_22_1545	s	s	3	3	SIC	558	ABS	0	1	24RO	0	1	1.65618515015	None	None	None	None	1
1.7	2015_Jul_22_1545	s	s	3	3	SIC	559	ABS	2	1	24VO	0	1	0.65419793129	None	None	None	None	1
1.7	2015_Jul_22_1545	s	s	3	3	SIC	560	RC	1	2	23MD	1	0	0.964948892593	523.0	-93.0	525	-85	1
1.7	2015_Jul_22_1545	s	s	3	3	SIC	561	ABS	1	1	24MO	0	1	3.82481002808	None	None	None	None	1
1.7	2015_Jul_22_1545	s	s	3	3	SIC	562	RC	2	0	23VC	1	0	0.736195087433	-434.0	-220.0	-427	-222	1
1.7	2015_Jul_22_1545	s	s	3	3	SIC	563	RC	1	1	23MO	0	1	4.33752512932	414.0	-98.0	None	None	0
1.7	2015_Jul_22_1545	s	s	3	3	SIC	564	ABS	2	1	24VO	0	1	0.552617073059	None	None	None	None	1
1.7	2015_Jul_22_1545	s	s	3	3	SIC	565	ABS	0	1	24RO	0	1	4.28386211395	None	None	None	None	1
1.7	2015_Jul_22_1545	s	s	3	3	SIC	566	ABS	0	2	24RD	0	1	0.705624103546	None	None	None	None	1
1.7	2015_Jul_22_1545	s	s	3	3	SIC	567	ABS	1	2	24MD	0	1	0.63495016098	None	None	None	None	1
1.7	2015_Jul_22_1545	s	s	3	3	SIC	568	RC	1	0	23MC	1	0	1.48239994049	-493.0	108.0	-496	108	1
1.7	2015_Jul_22_1545	s	s	3	3	SIC	569	ABS	2	2	24VD	0	1	0.576128959656	None	None	None	None	1
1.7	2015_Jul_22_1545	s	s	3	3	SIC	570	RC	2	2	23VD	1	0	0.693839073181	-386.0	248.0	-387	242	1
1.7	2015_Jul_22_1545	s	s	3	3	SIC	571	ABS	1	0	24MC	0	1	0.994947195053	None	None	None	None	1
1.7	2015_Jul_22_1545	s	s	3	3	SIC	572	RC	1	2	23MD	1	0	0.723042964935	-168.0	146.0	-169	144	1
1.7	2015_Jul_22_1545	s	s	3	3	SIC	573	ABS	2	0	24VC	0	1	0.526236772537	None	None	None	None	1
1.7	2015_Jul_22_1545	s	s	3	3	SIC	574	RC	0	1	23RO	0	1	4.9017059803	526.0	39.0	None	None	0
1.7	2015_Jul_22_1545	s	s	3	3	SIC	575	RC	0	2	23RD	1	0	0.889271974564	-70.0	-39.0	-64	-46	1
1.7	2015_Jul_22_1545	s	s	3	3	SIC	576	RC	2	1	23VO	1	0	1.35943508148	-394.0	-332.0	-391	-330	1
1.7	2015_Jul_22_1545	s	s	3	3	SIC	577	RC	2	0	23VC	1	0	0.587821960449	413.0	-47.0	409	-47	1
1.7	2015_Jul_22_1545	s	s	3	3	SIC	578	ABS	2	1	24VO	0	1	0.771305799484	None	None	None	None	1
1.7	2015_Jul_22_1545	s	s	3	3	SIC	579	RC	0	1	23RO	1	0	1.14985203743	-82.0	62.0	-74	58	1
1.7	2015_Jul_22_1545	s	s	3	3	SIC	580	RC	2	2	23VD	1	0	0.693835020065	-388.0	244.0	-392	240	1
1.7	2015_Jul_22_1545	s	s	3	3	SIC	581	RC	1	0	23MC	1	0	1.08226108551	198.0	272.0	200	268	1
1.7	2015_Jul_22_1545	s	s	3	3	SIC	582	ABS	1	0	24MC	0	1	1.34797501564	None	None	None	None	1
1.7	2015_Jul_22_1545	s	s	3	3	SIC	583	RC	1	2	23MD	1	0	0.69370007515	-343.0	117.0	-346	117	1
1.7	2015_Jul_22_1545	s	s	3	3	SIC	584	ABS	2	0	24VC	0	1	0.529042959213	None	None	None	None	1
1.7	2015_Jul_22_1545	s	s	3	3	SIC	585	RC	0	2	23RD	1	0	0.700655937195	-306.0	125.0	-307	118	1
1.7	2015_Jul_22_1545	s	s	3	3	SIC	586	ABS	0	2	24RD	0	1	0.759042024612	None	None	None	None	1
1.7	2015_Jul_22_1545	s	s	3	3	SIC	587	ABS	2	2	24VD	0	1	0.524291992188	None	None	None	None	1
1.7	2015_Jul_22_1545	s	s	3	3	SIC	588	ABS	1	1	24MO	0	1	2.44758892059	None	None	None	None	1
1.7	2015_Jul_22_1545	s	s	3	3	SIC	589	RC	1	1	23MO	1	0	0.917534828186	212.0	-18.0	211	-17	1
1.7	2015_Jul_22_1545	s	s	3	3	SIC	590	ABS	1	2	24MD	0	1	0.65526008606	None	None	None	None	1
1.7	2015_Jul_22_1545	s	s	3	3	SIC	591	ABS	0	1	24RO	0	1	1.73894810677	None	None	None	None	1
1.7	2015_Jul_22_1545	s	s	3	3	SIC	592	RC	2	1	23VO	1	0	0.787977933884	-477.0	272.0	-474	274	1
