Version	Date	Stimuli	Method	Subject	Session	Condition	Trial	Target	Channel1	Channel2	Distractors	LMouseButton	RMouseButton	RT	TargetX	TargetY	ResponseX	ResponseY	Correct
1.7	2015_Jul_21_1605	s	s	3	2	Capacity	1	RC	0	1	23RO	1	0	1.80884194374	22.0	371.0	22	369	1
1.7	2015_Jul_21_1605	s	s	3	2	Capacity	2	RC	0	2	23RD	1	0	1.01811814308	-297.0	219.0	-292	216	1
1.7	2015_Jul_21_1605	s	s	3	2	Capacity	3	ABS	0	1	24RO	0	1	7.66208696365	None	None	None	None	1
1.7	2015_Jul_21_1605	s	s	3	2	Capacity	4	ABS	0	2	24RD	0	1	2.10173892975	None	None	None	None	1
1.7	2015_Jul_21_1605	s	s	3	2	Capacity	5	ABS	0	2	24RD	0	1	2.35350799561	None	None	None	None	1
1.7	2015_Jul_21_1605	s	s	3	2	Capacity	6	RC	0	1	23RO	0	1	4.81389307976	-45.0	405.0	None	None	0
1.7	2015_Jul_21_1605	s	s	3	2	Capacity	7	RC	0	2	23RD	1	0	0.90302491188	84.0	-301.0	85	-306	1
1.7	2015_Jul_21_1605	s	s	3	2	Capacity	8	ABS	0	1	24RO	0	1	5.73162698746	None	None	None	None	1
1.7	2015_Jul_21_1605	s	s	3	2	Capacity	9	RC	0	2	23RD	1	0	1.00863909721	352.0	-325.0	357	-328	1
1.7	2015_Jul_21_1605	s	s	3	2	Capacity	10	ABS	0	2	24RD	0	1	2.55736613274	None	None	None	None	1
1.7	2015_Jul_21_1605	s	s	3	2	Capacity	11	RC	0	1	23RO	1	0	2.40738201141	87.0	64.0	89	65	1
1.7	2015_Jul_21_1605	s	s	3	2	Capacity	12	ABS	0	1	24RO	0	1	8.10962915421	None	None	None	None	1
1.7	2015_Jul_21_1605	s	s	3	2	Capacity	13	ABS	0	1	24RO	0	1	5.44417405128	None	None	None	None	1
1.7	2015_Jul_21_1605	s	s	3	2	Capacity	14	RC	0	1	23RO	1	0	3.55450892448	-398.0	-374.0	-396	-373	1
1.7	2015_Jul_21_1605	s	s	3	2	Capacity	15	RC	0	2	23RD	1	0	0.976226091385	505.0	389.0	507	393	1
1.7	2015_Jul_21_1605	s	s	3	2	Capacity	16	ABS	0	2	24RD	0	1	1.92972588539	None	None	None	None	1
1.7	2015_Jul_21_1605	s	s	3	2	Capacity	17	RC	0	2	23RD	1	0	1.30094814301	263.0	-156.0	261	-155	1
1.7	2015_Jul_21_1605	s	s	3	2	Capacity	18	RC	0	1	23RO	0	1	4.76155900955	505.0	192.0	None	None	0
1.7	2015_Jul_21_1605	s	s	3	2	Capacity	19	ABS	0	1	24RO	0	1	4.28385686874	None	None	None	None	1
1.7	2015_Jul_21_1605	s	s	3	2	Capacity	20	ABS	0	2	24RD	0	1	1.91797280312	None	None	None	None	1
1.7	2015_Jul_21_1605	s	s	3	2	Capacity	21	ABS	0	1	24RO	0	1	4.95464706421	None	None	None	None	1
1.7	2015_Jul_21_1605	s	s	3	2	Capacity	22	RC	0	1	23RO	1	0	3.84822487831	-192.0	237.0	-183	244	1
1.7	2015_Jul_21_1605	s	s	3	2	Capacity	23	ABS	0	2	24RD	0	1	2.19683504105	None	None	None	None	1
1.7	2015_Jul_21_1605	s	s	3	2	Capacity	24	RC	0	2	23RD	1	0	0.782954931259	349.0	-224.0	355	-227	1
1.7	2015_Jul_21_1605	s	s	3	2	Capacity	25	RC	0	2	23RD	1	0	0.73601102829	19.0	106.0	19	101	1
1.7	2015_Jul_21_1605	s	s	3	2	Capacity	26	ABS	0	2	24RD	0	1	3.40781593323	None	None	None	None	1
1.7	2015_Jul_21_1605	s	s	3	2	Capacity	27	ABS	0	1	24RO	0	1	6.35289907455	None	None	None	None	1
1.7	2015_Jul_21_1605	s	s	3	2	Capacity	28	RC	0	1	23RO	1	0	0.987962961197	-140.0	-84.0	-142	-79	1
1.7	2015_Jul_21_1605	s	s	3	2	Capacity	29	ABS	0	2	24RD	0	1	4.30210804939	None	None	None	None	1
1.7	2015_Jul_21_1605	s	s	3	2	Capacity	30	RC	0	2	23RD	1	0	1.97343492508	239.0	-344.0	234	-345	1
1.7	2015_Jul_21_1605	s	s	3	2	Capacity	31	ABS	0	1	24RO	0	1	5.98571109772	None	None	None	None	1
1.7	2015_Jul_21_1605	s	s	3	2	Capacity	32	RC	0	1	23RO	0	1	5.24565911293	463.0	269.0	None	None	0
1.7	2015_Jul_21_1605	s	s	3	2	Capacity	33	ABS	0	1	24RO	0	1	4.87890601158	None	None	None	None	1
1.7	2015_Jul_21_1605	s	s	3	2	Capacity	34	RC	0	1	23RO	1	0	5.51471805573	372.0	-10.0	380	-16	1
1.7	2015_Jul_21_1605	s	s	3	2	Capacity	35	RC	0	2	23RD	1	0	1.05310988426	-54.0	367.0	-46	366	1
1.7	2015_Jul_21_1605	s	s	3	2	Capacity	36	ABS	0	2	24RD	0	1	3.2715690136	None	None	None	None	1
1.7	2015_Jul_21_1605	s	s	3	2	Capacity	37	RC	0	1	23RO	1	0	2.94832015038	345.0	-272.0	346	-279	1
1.7	2015_Jul_21_1605	s	s	3	2	Capacity	38	RC	0	2	23RD	1	0	0.885885953903	464.0	384.0	467	381	1
1.7	2015_Jul_21_1605	s	s	3	2	Capacity	39	ABS	0	1	24RO	0	1	6.046200037	None	None	None	None	1
1.7	2015_Jul_21_1605	s	s	3	2	Capacity	40	ABS	0	2	24RD	0	1	1.92455911636	None	None	None	None	1
1.7	2015_Jul_21_1605	s	s	3	2	Capacity	41	ABS	0	1	24RO	0	1	5.46090698242	None	None	None	None	1
1.7	2015_Jul_21_1605	s	s	3	2	Capacity	42	RC	0	2	23RD	1	0	2.22425985336	-13.0	-401.0	-16	-402	1
1.7	2015_Jul_21_1605	s	s	3	2	Capacity	43	ABS	0	2	24RD	0	1	2.44770097733	None	None	None	None	1
1.7	2015_Jul_21_1605	s	s	3	2	Capacity	44	RC	0	1	23RO	1	0	1.51246118546	-224.0	358.0	-226	359	1
1.7	2015_Jul_21_1605	s	s	3	2	Capacity	45	ABS	0	2	24RD	0	1	3.07149887085	None	None	None	None	1
1.7	2015_Jul_21_1605	s	s	3	2	Capacity	46	RC	0	1	23RO	1	0	4.71632599831	-338.0	-324.0	-335	-334	1
1.7	2015_Jul_21_1605	s	s	3	2	Capacity	47	ABS	0	1	24RO	0	1	6.64973497391	None	None	None	None	1
1.7	2015_Jul_21_1605	s	s	3	2	Capacity	48	RC	0	2	23RD	1	0	1.25883197784	407.0	147.0	408	151	1
1.7	2015_Jul_21_1605	s	s	3	2	Capacity	49	ABS	0	1	24RO	0	1	3.91405391693	None	None	None	None	1
1.7	2015_Jul_21_1605	s	s	3	2	Capacity	50	ABS	0	2	24RD	0	1	2.20719504356	None	None	None	None	1
1.7	2015_Jul_21_1605	s	s	3	2	Capacity	51	RC	0	2	23RD	1	0	0.953056812286	-119.0	-230.0	-113	-235	1
1.7	2015_Jul_21_1605	s	s	3	2	Capacity	52	RC	0	1	23RO	0	1	4.69582605362	414.0	17.0	None	None	0
1.7	2015_Jul_21_1605	s	s	3	2	Capacity	53	ABS	0	2	24RD	0	1	2.58891892433	None	None	None	None	1
1.7	2015_Jul_21_1605	s	s	3	2	Capacity	54	RC	0	1	23RO	1	0	4.40837001801	-113.0	-292.0	-109	-302	1
1.7	2015_Jul_21_1605	s	s	3	2	Capacity	55	ABS	0	1	24RO	0	1	5.04895401001	None	None	None	None	1
1.7	2015_Jul_21_1605	s	s	3	2	Capacity	56	RC	0	2	23RD	1	0	0.653691053391	-325.0	-185.0	-323	-184	1
1.7	2015_Jul_21_1605	s	s	3	2	Capacity	57	ABS	0	2	24RD	0	1	1.97180914879	None	None	None	None	1
1.7	2015_Jul_21_1605	s	s	3	2	Capacity	58	RC	0	2	23RD	1	0	0.729100942612	28.0	-350.0	34	-358	1
1.7	2015_Jul_21_1605	s	s	3	2	Capacity	59	ABS	0	1	24RO	0	1	4.64361095428	None	None	None	None	1
1.7	2015_Jul_21_1605	s	s	3	2	Capacity	60	RC	0	1	23RO	1	0	1.4186899662	-333.0	91.0	-327	91	1
1.7	2015_Jul_21_1605	s	s	3	2	Capacity	61	RC	0	2	23RD	1	0	0.799730062485	-31.0	244.0	-26	241	1
1.7	2015_Jul_21_1605	s	s	3	2	Capacity	62	ABS	0	2	24RD	0	1	2.26782608032	None	None	None	None	1
1.7	2015_Jul_21_1605	s	s	3	2	Capacity	63	ABS	0	1	24RO	0	1	5.28436088562	None	None	None	None	1
1.7	2015_Jul_21_1605	s	s	3	2	Capacity	64	RC	0	1	23RO	0	1	3.8666908741	395.0	-236.0	None	None	0
1.7	2015_Jul_21_1605	s	s	3	2	Capacity	65	ABS	0	2	24RD	0	1	1.55306005478	None	None	None	None	1
1.7	2015_Jul_21_1605	s	s	3	2	Capacity	66	RC	0	1	23RO	0	1	6.1788008213	218.0	-93.0	None	None	0
1.7	2015_Jul_21_1605	s	s	3	2	Capacity	67	ABS	0	1	24RO	0	1	4.46739816666	None	None	None	None	1
1.7	2015_Jul_21_1605	s	s	3	2	Capacity	68	RC	0	2	23RD	1	0	0.783224821091	-372.0	45.0	-369	41	1
1.7	2015_Jul_21_1605	s	s	3	2	Capacity	69	RC	0	1	23RO	1	0	1.2940530777	-395.0	357.0	-391	365	1
1.7	2015_Jul_21_1605	s	s	3	2	Capacity	70	ABS	0	2	24RD	0	1	1.85425806046	None	None	None	None	1
1.7	2015_Jul_21_1605	s	s	3	2	Capacity	71	RC	0	2	23RD	1	0	0.666309118271	458.0	-15.0	459	-21	1
1.7	2015_Jul_21_1605	s	s	3	2	Capacity	72	ABS	0	1	24RO	0	1	5.26455283165	None	None	None	None	1
1.7	2015_Jul_21_1605	s	s	3	2	Capacity	73	ABS	0	2	24RD	0	1	1.92980909348	None	None	None	None	1
1.7	2015_Jul_21_1605	s	s	3	2	Capacity	74	ABS	0	1	24RO	0	1	5.15110301971	None	None	None	None	1
1.7	2015_Jul_21_1605	s	s	3	2	Capacity	75	RC	0	1	23RO	0	1	5.57370495796	236.0	143.0	None	None	0
1.7	2015_Jul_21_1605	s	s	3	2	Capacity	76	RC	0	2	23RD	1	0	0.982779026031	-17.0	336.0	-13	337	1
1.7	2015_Jul_21_1605	s	s	3	2	Capacity	77	ABS	0	1	24RO	0	1	5.8090159893	None	None	None	None	1
1.7	2015_Jul_21_1605	s	s	3	2	Capacity	78	ABS	0	2	24RD	0	1	1.41876006126	None	None	None	None	1
1.7	2015_Jul_21_1605	s	s	3	2	Capacity	79	RC	0	2	23RD	1	0	0.947673082352	-123.0	392.0	-123	390	1
1.7	2015_Jul_21_1605	s	s	3	2	Capacity	80	RC	0	1	23RO	0	1	5.91984605789	116.0	165.0	None	None	0
1.7	2015_Jul_21_1605	s	s	3	2	Capacity	81	RC	0	2	23RD	1	0	0.783455133438	-136.0	353.0	-136	345	1
1.7	2015_Jul_21_1605	s	s	3	2	Capacity	82	ABS	0	1	24RO	0	1	6.70377898216	None	None	None	None	1
1.7	2015_Jul_21_1605	s	s	3	2	Capacity	83	ABS	0	2	24RD	0	1	2.02390980721	None	None	None	None	1
1.7	2015_Jul_21_1605	s	s	3	2	Capacity	84	RC	0	1	23RO	0	1	4.31416511536	75.0	-229.0	None	None	0
1.7	2015_Jul_21_1605	s	s	3	2	Capacity	85	RC	0	1	23RO	0	1	3.49247503281	41.0	-287.0	None	None	0
1.7	2015_Jul_21_1605	s	s	3	2	Capacity	86	ABS	0	1	24RO	0	1	5.88004112244	None	None	None	None	1
1.7	2015_Jul_21_1605	s	s	3	2	Capacity	87	ABS	0	2	24RD	0	1	2.17697000504	None	None	None	None	1
1.7	2015_Jul_21_1605	s	s	3	2	Capacity	88	RC	0	2	23RD	1	0	0.900481939316	-56.0	16.0	-61	11	1
1.7	2015_Jul_21_1605	s	s	3	2	Capacity	89	ABS	0	2	24RD	0	1	2.84218883514	None	None	None	None	1
1.7	2015_Jul_21_1605	s	s	3	2	Capacity	90	RC	0	2	23RD	1	0	1.39515089989	102.0	386.0	105	385	1
1.7	2015_Jul_21_1605	s	s	3	2	Capacity	91	RC	0	1	23RO	0	1	5.13790607452	-138.0	195.0	None	None	0
1.7	2015_Jul_21_1605	s	s	3	2	Capacity	92	ABS	0	1	24RO	0	1	4.98667907715	None	None	None	None	1
1.7	2015_Jul_21_1605	s	s	3	2	Capacity	1	RC	1	0	23MC	1	0	1.28925085068	-73.0	259.0	-76	261	1
1.7	2015_Jul_21_1605	s	s	3	2	Capacity	2	RC	2	0	23VC	1	0	0.547631978989	43.0	117.0	45	110	1
1.7	2015_Jul_21_1605	s	s	3	2	Capacity	3	ABS	1	0	24MC	0	1	3.25669789314	None	None	None	None	1
1.7	2015_Jul_21_1605	s	s	3	2	Capacity	4	ABS	2	0	24VC	0	1	0.882183074951	None	None	None	None	1
1.7	2015_Jul_21_1605	s	s	3	2	Capacity	5	ABS	2	0	24VC	0	1	1.0944108963	None	None	None	None	1
1.7	2015_Jul_21_1605	s	s	3	2	Capacity	6	ABS	1	0	24MC	0	1	4.21320986748	None	None	None	None	1
1.7	2015_Jul_21_1605	s	s	3	2	Capacity	7	RC	2	0	23VC	1	0	0.882148981094	-105.0	-247.0	-105	-247	1
1.7	2015_Jul_21_1605	s	s	3	2	Capacity	8	RC	1	0	23MC	1	0	2.44762206078	498.0	56.0	492	60	1
1.7	2015_Jul_21_1605	s	s	3	2	Capacity	9	ABS	2	0	24VC	0	1	0.877210140228	None	None	None	None	1
1.7	2015_Jul_21_1605	s	s	3	2	Capacity	10	ABS	1	0	24MC	0	1	2.67128300667	None	None	None	None	1
1.7	2015_Jul_21_1605	s	s	3	2	Capacity	11	RC	2	0	23VC	1	0	1.18818306923	-328.0	-353.0	-323	-356	1
1.7	2015_Jul_21_1605	s	s	3	2	Capacity	12	RC	1	0	23MC	1	0	2.82001495361	442.0	-93.0	449	-94	1
1.7	2015_Jul_21_1605	s	s	3	2	Capacity	13	ABS	2	0	24VC	0	1	1.35981702805	None	None	None	None	1
1.7	2015_Jul_21_1605	s	s	3	2	Capacity	14	RC	2	0	23VC	1	0	3.01252198219	69.0	-241.0	74	-241	1
1.7	2015_Jul_21_1605	s	s	3	2	Capacity	15	RC	1	0	23MC	1	0	1.64487195015	-113.0	320.0	-118	315	1
1.7	2015_Jul_21_1605	s	s	3	2	Capacity	16	ABS	1	0	24MC	0	1	3.76097393036	None	None	None	None	1
1.7	2015_Jul_21_1605	s	s	3	2	Capacity	17	RC	1	0	23MC	1	0	1.32937598228	-469.0	319.0	-474	319	1
1.7	2015_Jul_21_1605	s	s	3	2	Capacity	18	ABS	2	0	24VC	0	1	1.43543100357	None	None	None	None	1
1.7	2015_Jul_21_1605	s	s	3	2	Capacity	19	RC	2	0	23VC	1	0	0.843564987183	98.0	337.0	103	335	1
1.7	2015_Jul_21_1605	s	s	3	2	Capacity	20	ABS	1	0	24MC	0	1	3.83104300499	None	None	None	None	1
1.7	2015_Jul_21_1605	s	s	3	2	Capacity	21	RC	1	0	23MC	1	0	1.1058371067	-65.0	34.0	-71	35	1
1.7	2015_Jul_21_1605	s	s	3	2	Capacity	22	RC	2	0	23VC	1	0	0.905987024307	-137.0	211.0	-139	208	1
1.7	2015_Jul_21_1605	s	s	3	2	Capacity	23	ABS	1	0	24MC	0	1	3.98482108116	None	None	None	None	1
1.7	2015_Jul_21_1605	s	s	3	2	Capacity	24	ABS	2	0	24VC	0	1	0.846832990646	None	None	None	None	1
1.7	2015_Jul_21_1605	s	s	3	2	Capacity	25	ABS	2	0	24VC	0	1	1.45561981201	None	None	None	None	1
1.7	2015_Jul_21_1605	s	s	3	2	Capacity	26	RC	1	0	23MC	1	0	3.58450508118	40.0	-384.0	43	-389	1
1.7	2015_Jul_21_1605	s	s	3	2	Capacity	27	ABS	1	0	24MC	0	1	4.15815186501	None	None	None	None	1
1.7	2015_Jul_21_1605	s	s	3	2	Capacity	28	RC	2	0	23VC	1	0	0.829694986343	331.0	-3.0	335	1	1
1.7	2015_Jul_21_1605	s	s	3	2	Capacity	29	ABS	2	0	24VC	0	1	1.11251997948	None	None	None	None	1
1.7	2015_Jul_21_1605	s	s	3	2	Capacity	30	RC	1	0	23MC	1	0	2.36015605927	487.0	352.0	486	352	1
1.7	2015_Jul_21_1605	s	s	3	2	Capacity	31	ABS	1	0	24MC	0	1	3.86706709862	None	None	None	None	1
1.7	2015_Jul_21_1605	s	s	3	2	Capacity	32	RC	2	0	23VC	1	0	0.729099035263	193.0	206.0	202	205	1
1.7	2015_Jul_21_1605	s	s	3	2	Capacity	33	ABS	1	0	24MC	0	1	4.01006197929	None	None	None	None	1
1.7	2015_Jul_21_1605	s	s	3	2	Capacity	34	RC	2	0	23VC	1	0	0.784310817719	289.0	-30.0	289	-37	1
1.7	2015_Jul_21_1605	s	s	3	2	Capacity	35	RC	1	0	23MC	1	0	1.01172089577	507.0	13.0	505	11	1
1.7	2015_Jul_21_1605	s	s	3	2	Capacity	36	ABS	2	0	24VC	0	1	1.19993305206	None	None	None	None	1
1.7	2015_Jul_21_1605	s	s	3	2	Capacity	37	RC	2	0	23VC	1	0	0.653681993484	448.0	85.0	446	81	1
1.7	2015_Jul_21_1605	s	s	3	2	Capacity	38	ABS	2	0	24VC	0	1	1.24703097343	None	None	None	None	1
1.7	2015_Jul_21_1605	s	s	3	2	Capacity	39	RC	1	0	23MC	1	0	0.964562892914	-227.0	-80.0	-222	-78	1
1.7	2015_Jul_21_1605	s	s	3	2	Capacity	40	ABS	1	0	24MC	0	1	2.40058207512	None	None	None	None	1
1.7	2015_Jul_21_1605	s	s	3	2	Capacity	41	RC	2	0	23VC	1	0	0.744701862335	146.0	-352.0	150	-352	1
1.7	2015_Jul_21_1605	s	s	3	2	Capacity	42	ABS	1	0	24MC	0	1	4.63688516617	None	None	None	None	1
1.7	2015_Jul_21_1605	s	s	3	2	Capacity	43	RC	1	0	23MC	1	0	0.994304180145	257.0	193.0	262	194	1
1.7	2015_Jul_21_1605	s	s	3	2	Capacity	44	ABS	2	0	24VC	0	1	0.900681972504	None	None	None	None	1
1.7	2015_Jul_21_1605	s	s	3	2	Capacity	45	ABS	2	0	24VC	0	1	1.33657598495	None	None	None	None	1
1.7	2015_Jul_21_1605	s	s	3	2	Capacity	46	RC	1	0	23MC	1	0	1.29408097267	-232.0	277.0	-225	279	1
1.7	2015_Jul_21_1605	s	s	3	2	Capacity	47	ABS	1	0	24MC	0	1	2.92754197121	None	None	None	None	1
1.7	2015_Jul_21_1605	s	s	3	2	Capacity	48	RC	2	0	23VC	1	0	1.07739400864	520.0	-212.0	518	-212	1
1.7	2015_Jul_21_1605	s	s	3	2	Capacity	49	ABS	1	0	24MC	0	1	3.76106500626	None	None	None	None	1
1.7	2015_Jul_21_1605	s	s	3	2	Capacity	50	RC	1	0	23MC	1	0	1.16013789177	-439.0	279.0	-443	277	1
1.7	2015_Jul_21_1605	s	s	3	2	Capacity	51	ABS	2	0	24VC	0	1	0.936066865921	None	None	None	None	1
1.7	2015_Jul_21_1605	s	s	3	2	Capacity	52	RC	2	0	23VC	1	0	0.587892055511	-45.0	114.0	-47	109	1
1.7	2015_Jul_21_1605	s	s	3	2	Capacity	53	RC	2	0	23VC	1	0	0.564373016357	-13.0	168.0	-11	162	1
1.7	2015_Jul_21_1605	s	s	3	2	Capacity	54	RC	1	0	23MC	1	0	1.98833799362	181.0	405.0	185	410	1
1.7	2015_Jul_21_1605	s	s	3	2	Capacity	55	ABS	2	0	24VC	0	1	0.811538934708	None	None	None	None	1
1.7	2015_Jul_21_1605	s	s	3	2	Capacity	56	ABS	1	0	24MC	0	1	3.41989898682	None	None	None	None	1
1.7	2015_Jul_21_1605	s	s	3	2	Capacity	57	RC	1	0	23MC	1	0	1.57661390305	408.0	54.0	413	52	1
1.7	2015_Jul_21_1605	s	s	3	2	Capacity	58	ABS	1	0	24MC	0	1	2.25441384315	None	None	None	None	1
1.7	2015_Jul_21_1605	s	s	3	2	Capacity	59	ABS	2	0	24VC	0	1	0.772165060043	None	None	None	None	1
1.7	2015_Jul_21_1605	s	s	3	2	Capacity	60	RC	2	0	23VC	1	0	0.736632108688	287.0	184.0	289	179	1
1.7	2015_Jul_21_1605	s	s	3	2	Capacity	61	ABS	1	0	24MC	0	1	4.0670030117	None	None	None	None	1
1.7	2015_Jul_21_1605	s	s	3	2	Capacity	62	RC	2	0	23VC	1	0	0.740833997726	-239.0	-211.0	-239	-218	1
1.7	2015_Jul_21_1605	s	s	3	2	Capacity	63	ABS	2	0	24VC	0	1	0.8468708992	None	None	None	None	1
1.7	2015_Jul_21_1605	s	s	3	2	Capacity	64	RC	1	0	23MC	1	0	1.31410598755	-504.0	237.0	-497	238	1
1.7	2015_Jul_21_1605	s	s	3	2	Capacity	65	ABS	1	0	24MC	0	1	1.91561198235	None	None	None	None	1
1.7	2015_Jul_21_1605	s	s	3	2	Capacity	66	RC	2	0	23VC	1	0	0.865455150604	-154.0	-323.0	-152	-328	1
1.7	2015_Jul_21_1605	s	s	3	2	Capacity	67	ABS	2	0	24VC	0	1	0.994029998779	None	None	None	None	1
1.7	2015_Jul_21_1605	s	s	3	2	Capacity	68	RC	1	0	23MC	1	0	2.04242801666	-127.0	-136.0	-119	-131	1
1.7	2015_Jul_21_1605	s	s	3	2	Capacity	69	RC	1	0	23MC	1	0	2.80657982826	-263.0	389.0	-271	387	1
1.7	2015_Jul_21_1605	s	s	3	2	Capacity	70	ABS	2	0	24VC	0	1	0.971325874329	None	None	None	None	1
1.7	2015_Jul_21_1605	s	s	3	2	Capacity	71	ABS	1	0	24MC	0	1	3.56092596054	None	None	None	None	1
1.7	2015_Jul_21_1605	s	s	3	2	Capacity	72	RC	2	0	23VC	1	0	1.10573911667	-452.0	-368.0	-450	-374	1
1.7	2015_Jul_21_1605	s	s	3	2	Capacity	73	RC	1	0	23MC	1	0	2.02384400368	351.0	403.0	352	401	1
1.7	2015_Jul_21_1605	s	s	3	2	Capacity	74	ABS	2	0	24VC	0	1	0.88213300705	None	None	None	None	1
1.7	2015_Jul_21_1605	s	s	3	2	Capacity	75	ABS	1	0	24MC	0	1	2.99292516708	None	None	None	None	1
1.7	2015_Jul_21_1605	s	s	3	2	Capacity	76	RC	2	0	23VC	1	0	0.858679056168	384.0	-211.0	390	-209	1
1.7	2015_Jul_21_1605	s	s	3	2	Capacity	77	ABS	1	0	24MC	0	1	3.64817810059	None	None	None	None	1
1.7	2015_Jul_21_1605	s	s	3	2	Capacity	78	RC	1	0	23MC	1	0	0.929127931595	-171.0	280.0	-166	277	1
1.7	2015_Jul_21_1605	s	s	3	2	Capacity	79	RC	2	0	23VC	1	0	1.10949683189	227.0	295.0	234	297	1
1.7	2015_Jul_21_1605	s	s	3	2	Capacity	80	ABS	2	0	24VC	0	1	0.762104034424	None	None	None	None	1
1.7	2015_Jul_21_1605	s	s	3	2	Capacity	81	RC	1	0	23MC	0	1	1.60697412491	423.0	-333.0	None	None	0
1.7	2015_Jul_21_1605	s	s	3	2	Capacity	82	RC	2	0	23VC	1	0	0.729444980621	-397.0	323.0	-391	316	1
1.7	2015_Jul_21_1605	s	s	3	2	Capacity	83	ABS	2	0	24VC	0	1	1.15985107422	None	None	None	None	1
1.7	2015_Jul_21_1605	s	s	3	2	Capacity	84	ABS	1	0	24MC	0	1	5.31962704659	None	None	None	None	1
1.7	2015_Jul_21_1605	s	s	3	2	Capacity	85	ABS	2	0	24VC	0	1	0.923915147781	None	None	None	None	1
1.7	2015_Jul_21_1605	s	s	3	2	Capacity	86	RC	1	0	23MC	1	0	2.79760718346	-51.0	-359.0	-46	-362	1
1.7	2015_Jul_21_1605	s	s	3	2	Capacity	87	RC	2	0	23VC	1	0	0.641793012619	228.0	-245.0	231	-244	1
1.7	2015_Jul_21_1605	s	s	3	2	Capacity	88	ABS	1	0	24MC	0	1	2.27806401253	None	None	None	None	1
1.7	2015_Jul_21_1605	s	s	3	2	Capacity	89	ABS	1	0	24MC	0	1	3.34857583046	None	None	None	None	1
1.7	2015_Jul_21_1605	s	s	3	2	Capacity	90	RC	1	0	23MC	1	0	2.25911593437	-439.0	-397.0	-447	-397	1
1.7	2015_Jul_21_1605	s	s	3	2	Capacity	91	RC	2	0	23VC	1	0	0.744719982147	433.0	148.0	440	154	1
1.7	2015_Jul_21_1605	s	s	3	2	Capacity	92	ABS	2	0	24VC	0	1	1.23523902893	None	None	None	None	1
1.7	2015_Jul_21_1605	s	s	3	2	SIC	1	ABS	1	0	24MC	0	1	4.60533094406	None	None	None	None	1
1.7	2015_Jul_21_1605	s	s	3	2	SIC	2	ABS	2	2	24VD	0	1	0.76452088356	None	None	None	None	1
1.7	2015_Jul_21_1605	s	s	3	2	SIC	3	ABS	1	2	24MD	0	1	3.48347210884	None	None	None	None	1
1.7	2015_Jul_21_1605	s	s	3	2	SIC	4	ABS	1	1	24MO	0	1	4.88415813446	None	None	None	None	1
1.7	2015_Jul_21_1605	s	s	3	2	SIC	5	RC	1	2	23MD	1	0	0.655309200287	101.0	2.0	104	0	1
1.7	2015_Jul_21_1605	s	s	3	2	SIC	6	ABS	2	0	24VC	0	1	0.903517007828	None	None	None	None	1
1.7	2015_Jul_21_1605	s	s	3	2	SIC	7	ABS	0	2	24RD	0	1	1.18578696251	None	None	None	None	1
1.7	2015_Jul_21_1605	s	s	3	2	SIC	8	RC	0	1	23RO	0	1	4.17789983749	-98.0	319.0	None	None	0
1.7	2015_Jul_21_1605	s	s	3	2	SIC	9	RC	1	1	23MO	1	0	2.27727007866	420.0	-387.0	426	-390	1
1.7	2015_Jul_21_1605	s	s	3	2	SIC	10	ABS	2	1	24VO	0	1	2.14646697044	None	None	None	None	1
1.7	2015_Jul_21_1605	s	s	3	2	SIC	11	RC	0	2	23RD	1	0	0.988127946854	-253.0	-116.0	-248	-116	1
1.7	2015_Jul_21_1605	s	s	3	2	SIC	12	RC	2	1	23VO	1	0	0.552542924881	-115.0	108.0	-117	102	1
1.7	2015_Jul_21_1605	s	s	3	2	SIC	13	RC	2	2	23VD	1	0	0.552557945251	211.0	147.0	208	143	1
1.7	2015_Jul_21_1605	s	s	3	2	SIC	14	RC	2	0	23VC	1	0	0.548423051834	-26.0	375.0	-28	382	1
1.7	2015_Jul_21_1605	s	s	3	2	SIC	15	ABS	0	1	24RO	0	1	5.13508486748	None	None	None	None	1
1.7	2015_Jul_21_1605	s	s	3	2	SIC	16	RC	1	0	23MC	1	0	2.20082902908	309.0	-123.0	308	-125	1
1.7	2015_Jul_21_1605	s	s	3	2	SIC	17	ABS	2	0	24VC	0	1	0.924685955048	None	None	None	None	1
1.7	2015_Jul_21_1605	s	s	3	2	SIC	18	ABS	2	2	24VD	0	1	0.759562015533	None	None	None	None	1
1.7	2015_Jul_21_1605	s	s	3	2	SIC	19	RC	0	1	23RO	1	0	1.95319700241	345.0	-248.0	343	-255	1
1.7	2015_Jul_21_1605	s	s	3	2	SIC	20	ABS	0	2	24RD	0	1	1.74512004852	None	None	None	None	1
1.7	2015_Jul_21_1605	s	s	3	2	SIC	21	ABS	1	1	24MO	0	1	3.73065495491	None	None	None	None	1
1.7	2015_Jul_21_1605	s	s	3	2	SIC	22	RC	1	1	23MO	1	0	2.0422410965	-17.0	-248.0	-7	-244	1
1.7	2015_Jul_21_1605	s	s	3	2	SIC	23	RC	2	0	23VC	1	0	0.629987955093	77.0	-410.0	73	-412	1
1.7	2015_Jul_21_1605	s	s	3	2	SIC	24	ABS	2	1	24VO	0	1	1.35299611092	None	None	None	None	1
1.7	2015_Jul_21_1605	s	s	3	2	SIC	25	ABS	1	0	24MC	0	1	4.10443687439	None	None	None	None	1
1.7	2015_Jul_21_1605	s	s	3	2	SIC	26	ABS	0	1	24RO	0	1	5.06068587303	None	None	None	None	1
1.7	2015_Jul_21_1605	s	s	3	2	SIC	27	RC	2	1	23VO	1	0	0.667824029922	-307.0	-43.0	-304	-39	1
1.7	2015_Jul_21_1605	s	s	3	2	SIC	28	RC	0	2	23RD	1	0	0.882406949997	231.0	266.0	226	264	1
1.7	2015_Jul_21_1605	s	s	3	2	SIC	29	RC	2	2	23VD	1	0	0.677028179169	502.0	58.0	503	58	1
1.7	2015_Jul_21_1605	s	s	3	2	SIC	30	RC	1	0	23MC	1	0	0.665299892426	-293.0	24.0	-292	15	1
1.7	2015_Jul_21_1605	s	s	3	2	SIC	31	RC	1	2	23MD	1	0	0.611445903778	-400.0	380.0	-395	378	1
1.7	2015_Jul_21_1605	s	s	3	2	SIC	32	ABS	1	2	24MD	0	1	1.87805891037	None	None	None	None	1
1.7	2015_Jul_21_1605	s	s	3	2	SIC	33	RC	2	1	23VO	1	0	0.88888502121	-49.0	-354.0	-50	-369	1
1.7	2015_Jul_21_1605	s	s	3	2	SIC	34	ABS	1	2	24MD	0	1	2.24797391891	None	None	None	None	1
1.7	2015_Jul_21_1605	s	s	3	2	SIC	35	ABS	2	2	24VD	0	1	0.617511034012	None	None	None	None	1
1.7	2015_Jul_21_1605	s	s	3	2	SIC	36	ABS	0	2	24RD	0	1	1.71314406395	None	None	None	None	1
1.7	2015_Jul_21_1605	s	s	3	2	SIC	37	RC	1	0	23MC	1	0	1.05885791779	462.0	87.0	464	83	1
1.7	2015_Jul_21_1605	s	s	3	2	SIC	38	ABS	0	1	24RO	0	1	4.79667496681	None	None	None	None	1
1.7	2015_Jul_21_1605	s	s	3	2	SIC	39	RC	0	1	23RO	0	1	4.72623801231	134.0	-170.0	None	None	0
1.7	2015_Jul_21_1605	s	s	3	2	SIC	40	ABS	2	0	24VC	0	1	0.735939025879	None	None	None	None	1
1.7	2015_Jul_21_1605	s	s	3	2	SIC	41	ABS	2	1	24VO	0	1	1.34121108055	None	None	None	None	1
1.7	2015_Jul_21_1605	s	s	3	2	SIC	42	ABS	1	1	24MO	0	1	2.45711708069	None	None	None	None	1
1.7	2015_Jul_21_1605	s	s	3	2	SIC	43	RC	1	1	23MO	1	0	0.936075210571	349.0	155.0	355	160	1
1.7	2015_Jul_21_1605	s	s	3	2	SIC	44	RC	2	2	23VD	1	0	0.505518913269	-169.0	-165.0	-172	-166	1
1.7	2015_Jul_21_1605	s	s	3	2	SIC	45	RC	0	2	23RD	1	0	0.535186052322	-444.0	20.0	-438	22	1
1.7	2015_Jul_21_1605	s	s	3	2	SIC	46	ABS	1	0	24MC	0	1	4.24872589111	None	None	None	None	1
1.7	2015_Jul_21_1605	s	s	3	2	SIC	47	RC	1	2	23MD	1	0	0.735772132874	349.0	409.0	354	414	1
1.7	2015_Jul_21_1605	s	s	3	2	SIC	48	RC	2	0	23VC	1	0	0.524390935898	-369.0	254.0	-368	252	1
1.7	2015_Jul_21_1605	s	s	3	2	SIC	49	ABS	2	0	24VC	0	1	0.776238918304	None	None	None	None	1
1.7	2015_Jul_21_1605	s	s	3	2	SIC	50	RC	2	1	23VO	1	0	0.646735906601	-466.0	13.0	-458	8	1
1.7	2015_Jul_21_1605	s	s	3	2	SIC	51	ABS	2	1	24VO	0	1	1.1999630928	None	None	None	None	1
1.7	2015_Jul_21_1605	s	s	3	2	SIC	52	RC	1	2	23MD	1	0	0.606364011765	10.0	321.0	6	321	1
1.7	2015_Jul_21_1605	s	s	3	2	SIC	53	ABS	1	2	24MD	0	1	1.0329618454	None	None	None	None	1
1.7	2015_Jul_21_1605	s	s	3	2	SIC	54	ABS	2	2	24VD	0	1	0.667019128799	None	None	None	None	1
1.7	2015_Jul_21_1605	s	s	3	2	SIC	55	ABS	1	1	24MO	0	1	3.94249486923	None	None	None	None	1
1.7	2015_Jul_21_1605	s	s	3	2	SIC	56	RC	2	0	23VC	1	0	1.39436602592	434.0	199.0	440	200	1
1.7	2015_Jul_21_1605	s	s	3	2	SIC	57	RC	1	1	23MO	1	0	1.89441800117	255.0	-139.0	251	-134	1
1.7	2015_Jul_21_1605	s	s	3	2	SIC	58	ABS	1	0	24MC	0	1	3.76594805717	None	None	None	None	1
1.7	2015_Jul_21_1605	s	s	3	2	SIC	59	RC	1	0	23MC	1	0	1.20704603195	346.0	54.0	355	59	1
1.7	2015_Jul_21_1605	s	s	3	2	SIC	60	ABS	0	1	24RO	0	1	4.1046090126	None	None	None	None	1
1.7	2015_Jul_21_1605	s	s	3	2	SIC	61	RC	0	2	23RD	1	0	0.84673500061	-181.0	328.0	-179	325	1
1.7	2015_Jul_21_1605	s	s	3	2	SIC	62	ABS	0	2	24RD	0	1	2.10265302658	None	None	None	None	1
1.7	2015_Jul_21_1605	s	s	3	2	SIC	63	RC	0	1	23RO	1	0	2.70436692238	-99.0	-146.0	-98	-146	1
1.7	2015_Jul_21_1605	s	s	3	2	SIC	64	RC	2	2	23VD	1	0	0.717355966568	-421.0	-367.0	-419	-369	1
1.7	2015_Jul_21_1605	s	s	3	2	SIC	65	ABS	1	2	24MD	0	1	1.77166604996	None	None	None	None	1
1.7	2015_Jul_21_1605	s	s	3	2	SIC	66	ABS	2	0	24VC	0	1	0.925844907761	None	None	None	None	1
1.7	2015_Jul_21_1605	s	s	3	2	SIC	67	RC	1	1	23MO	1	0	0.87713098526	-474.0	345.0	-480	342	1
1.7	2015_Jul_21_1605	s	s	3	2	SIC	68	RC	0	2	23RD	1	0	0.736075162888	363.0	26.0	358	25	1
1.7	2015_Jul_21_1605	s	s	3	2	SIC	69	ABS	0	1	24RO	0	1	4.24885702133	None	None	None	None	1
1.7	2015_Jul_21_1605	s	s	3	2	SIC	70	RC	2	0	23VC	1	0	0.747851848602	310.0	-149.0	312	-147	1
1.7	2015_Jul_21_1605	s	s	3	2	SIC	71	ABS	1	0	24MC	0	1	3.77283096313	None	None	None	None	1
1.7	2015_Jul_21_1605	s	s	3	2	SIC	72	ABS	0	2	24RD	0	1	0.917465209961	None	None	None	None	1
1.7	2015_Jul_21_1605	s	s	3	2	SIC	73	RC	2	1	23VO	1	0	0.665756940842	-387.0	239.0	-383	239	1
1.7	2015_Jul_21_1605	s	s	3	2	SIC	74	RC	0	1	23RO	1	0	2.92507195473	-307.0	-170.0	-315	-166	1
1.7	2015_Jul_21_1605	s	s	3	2	SIC	75	ABS	2	2	24VD	0	1	0.779911994934	None	None	None	None	1
1.7	2015_Jul_21_1605	s	s	3	2	SIC	76	ABS	2	1	24VO	0	1	1.58386898041	None	None	None	None	1
1.7	2015_Jul_21_1605	s	s	3	2	SIC	77	RC	2	2	23VD	1	0	0.722851991653	361.0	-138.0	367	-132	1
1.7	2015_Jul_21_1605	s	s	3	2	SIC	78	RC	1	0	23MC	1	0	0.616591930389	224.0	-94.0	227	-101	1
1.7	2015_Jul_21_1605	s	s	3	2	SIC	79	ABS	1	1	24MO	0	1	3.57278585434	None	None	None	None	1
1.7	2015_Jul_21_1605	s	s	3	2	SIC	80	RC	1	2	23MD	1	0	0.776194095612	375.0	329.0	378	327	1
1.7	2015_Jul_21_1605	s	s	3	2	SIC	81	ABS	2	2	24VD	0	1	0.865413188934	None	None	None	None	1
1.7	2015_Jul_21_1605	s	s	3	2	SIC	82	ABS	1	0	24MC	0	1	4.90764904022	None	None	None	None	1
1.7	2015_Jul_21_1605	s	s	3	2	SIC	83	ABS	2	1	24VO	0	1	0.841943979263	None	None	None	None	1
1.7	2015_Jul_21_1605	s	s	3	2	SIC	84	ABS	0	1	24RO	0	1	5.48438310623	None	None	None	None	1
1.7	2015_Jul_21_1605	s	s	3	2	SIC	85	ABS	1	2	24MD	0	1	0.988081932068	None	None	None	None	1
1.7	2015_Jul_21_1605	s	s	3	2	SIC	86	RC	0	1	23RO	1	0	3.66032791138	488.0	24.0	493	21	1
1.7	2015_Jul_21_1605	s	s	3	2	SIC	87	RC	1	2	23MD	1	0	0.705714941025	63.0	87.0	73	87	1
1.7	2015_Jul_21_1605	s	s	3	2	SIC	88	RC	1	1	23MO	1	0	3.9658908844	-190.0	-315.0	-185	-322	1
1.7	2015_Jul_21_1605	s	s	3	2	SIC	89	RC	1	0	23MC	1	0	1.62365102768	41.0	-271.0	48	-271	1
1.7	2015_Jul_21_1605	s	s	3	2	SIC	90	ABS	2	0	24VC	0	1	0.740911960602	None	None	None	None	1
1.7	2015_Jul_21_1605	s	s	3	2	SIC	91	RC	2	0	23VC	1	0	1.88266181946	-371.0	235.0	-367	235	1
1.7	2015_Jul_21_1605	s	s	3	2	SIC	92	ABS	1	1	24MO	0	1	4.06691789627	None	None	None	None	1
1.7	2015_Jul_21_1605	s	s	3	2	SIC	93	ABS	0	2	24RD	0	1	1.04204893112	None	None	None	None	1
1.7	2015_Jul_21_1605	s	s	3	2	SIC	94	RC	2	1	23VO	1	0	0.799727201462	-82.0	-387.0	-82	-387	1
1.7	2015_Jul_21_1605	s	s	3	2	SIC	95	RC	0	2	23RD	1	0	0.641638994217	58.0	-179.0	54	-190	1
1.7	2015_Jul_21_1605	s	s	3	2	SIC	96	RC	2	2	23VD	1	0	0.512470006943	376.0	165.0	376	169	1
1.7	2015_Jul_21_1605	s	s	3	2	SIC	97	ABS	0	1	24RO	0	1	3.82233691216	None	None	None	None	1
1.7	2015_Jul_21_1605	s	s	3	2	SIC	98	ABS	0	2	24RD	0	1	1.47725105286	None	None	None	None	1
1.7	2015_Jul_21_1605	s	s	3	2	SIC	99	RC	2	2	23VD	1	0	0.747400045395	-414.0	117.0	-408	111	1
1.7	2015_Jul_21_1605	s	s	3	2	SIC	100	RC	1	2	23MD	1	0	0.983237981796	-24.0	272.0	-33	276	1
1.7	2015_Jul_21_1605	s	s	3	2	SIC	101	ABS	2	0	24VC	0	1	2.3181450367	None	None	None	None	1
1.7	2015_Jul_21_1605	s	s	3	2	SIC	102	RC	2	1	23VO	1	0	13.2584190369	482.0	48.0	485	48	1
1.7	2015_Jul_21_1605	s	s	3	2	SIC	103	RC	2	0	23VC	1	0	0.587835073471	50.0	-338.0	52	-336	1
1.7	2015_Jul_21_1605	s	s	3	2	SIC	104	ABS	1	1	24MO	0	1	4.0653450489	None	None	None	None	1
1.7	2015_Jul_21_1605	s	s	3	2	SIC	105	RC	0	2	23RD	1	0	0.933036088943	-373.0	-132.0	-366	-130	1
1.7	2015_Jul_21_1605	s	s	3	2	SIC	106	ABS	2	1	24VO	0	1	0.862330198288	None	None	None	None	1
1.7	2015_Jul_21_1605	s	s	3	2	SIC	107	ABS	1	0	24MC	0	1	3.36077713966	None	None	None	None	1
1.7	2015_Jul_21_1605	s	s	3	2	SIC	108	RC	1	0	23MC	1	0	0.823346138	-142.0	7.0	-144	10	1
1.7	2015_Jul_21_1605	s	s	3	2	SIC	109	RC	0	1	23RO	0	1	4.10729193687	270.0	-350.0	None	None	0
1.7	2015_Jul_21_1605	s	s	3	2	SIC	110	ABS	1	2	24MD	0	1	1.91480708122	None	None	None	None	1
1.7	2015_Jul_21_1605	s	s	3	2	SIC	111	RC	1	1	23MO	1	0	1.20000290871	356.0	0.0	352	-1	1
1.7	2015_Jul_21_1605	s	s	3	2	SIC	112	ABS	2	2	24VD	0	1	0.740897893906	None	None	None	None	1
1.7	2015_Jul_21_1605	s	s	3	2	SIC	113	RC	2	1	23VO	1	0	0.736382961273	-4.0	-271.0	-6	-274	1
1.7	2015_Jul_21_1605	s	s	3	2	SIC	114	ABS	2	0	24VC	0	1	0.976329088211	None	None	None	None	1
1.7	2015_Jul_21_1605	s	s	3	2	SIC	115	RC	0	2	23RD	1	0	1.04220700264	-286.0	353.0	-287	349	1
1.7	2015_Jul_21_1605	s	s	3	2	SIC	116	ABS	1	1	24MO	0	1	5.41756510735	None	None	None	None	1
1.7	2015_Jul_21_1605	s	s	3	2	SIC	117	RC	1	2	23MD	1	0	0.712347984314	-129.0	-128.0	-122	-130	1
1.7	2015_Jul_21_1605	s	s	3	2	SIC	118	ABS	1	2	24MD	0	1	2.10629701614	None	None	None	None	1
1.7	2015_Jul_21_1605	s	s	3	2	SIC	119	RC	2	2	23VD	1	0	0.584635019302	-249.0	290.0	-243	285	1
1.7	2015_Jul_21_1605	s	s	3	2	SIC	120	ABS	2	1	24VO	0	1	0.996339797974	None	None	None	None	1
1.7	2015_Jul_21_1605	s	s	3	2	SIC	121	ABS	0	1	24RO	0	1	3.22445201874	None	None	None	None	1
1.7	2015_Jul_21_1605	s	s	3	2	SIC	122	RC	2	0	23VC	1	0	0.690666913986	525.0	-244.0	526	-248	1
1.7	2015_Jul_21_1605	s	s	3	2	SIC	123	RC	1	1	23MO	1	0	1.11753702164	-48.0	-107.0	-50	-102	1
1.7	2015_Jul_21_1605	s	s	3	2	SIC	124	RC	0	1	23RO	1	0	2.74873018265	299.0	357.0	301	362	1
1.7	2015_Jul_21_1605	s	s	3	2	SIC	125	RC	1	0	23MC	1	0	0.899858951569	44.0	135.0	41	130	1
1.7	2015_Jul_21_1605	s	s	3	2	SIC	126	ABS	0	2	24RD	0	1	1.08204984665	None	None	None	None	1
1.7	2015_Jul_21_1605	s	s	3	2	SIC	127	ABS	1	0	24MC	0	1	2.63102722168	None	None	None	None	1
1.7	2015_Jul_21_1605	s	s	3	2	SIC	128	ABS	2	2	24VD	0	1	0.611456155777	None	None	None	None	1
1.7	2015_Jul_21_1605	s	s	3	2	SIC	129	RC	2	1	23VO	1	0	0.82333111763	-339.0	-173.0	-333	-170	1
1.7	2015_Jul_21_1605	s	s	3	2	SIC	130	RC	0	2	23RD	1	0	0.771999835968	100.0	161.0	107	164	1
1.7	2015_Jul_21_1605	s	s	3	2	SIC	131	RC	1	1	23MO	1	0	0.85862994194	91.0	171.0	95	168	1
1.7	2015_Jul_21_1605	s	s	3	2	SIC	132	RC	1	2	23MD	1	0	0.535470962524	149.0	271.0	153	265	1
1.7	2015_Jul_21_1605	s	s	3	2	SIC	133	ABS	1	1	24MO	0	1	2.50146198273	None	None	None	None	1
1.7	2015_Jul_21_1605	s	s	3	2	SIC	134	ABS	0	1	24RO	0	1	3.61966705322	None	None	None	None	1
1.7	2015_Jul_21_1605	s	s	3	2	SIC	135	RC	1	0	23MC	1	0	3.11338400841	243.0	-335.0	245	-336	1
1.7	2015_Jul_21_1605	s	s	3	2	SIC	136	RC	0	1	23RO	1	0	1.81910014153	379.0	233.0	377	229	1
1.7	2015_Jul_21_1605	s	s	3	2	SIC	137	ABS	1	0	24MC	0	1	2.94877195358	None	None	None	None	1
1.7	2015_Jul_21_1605	s	s	3	2	SIC	138	RC	2	2	23VD	1	0	0.564383983612	-496.0	-76.0	-497	-80	1
1.7	2015_Jul_21_1605	s	s	3	2	SIC	139	RC	2	0	23VC	1	0	0.702250957489	268.0	344.0	264	341	1
1.7	2015_Jul_21_1605	s	s	3	2	SIC	140	ABS	1	2	24MD	0	1	1.05875706673	None	None	None	None	1
1.7	2015_Jul_21_1605	s	s	3	2	SIC	141	ABS	2	0	24VC	0	1	0.688997030258	None	None	None	None	1
1.7	2015_Jul_21_1605	s	s	3	2	SIC	142	ABS	2	2	24VD	0	1	0.66517496109	None	None	None	None	1
1.7	2015_Jul_21_1605	s	s	3	2	SIC	143	ABS	2	1	24VO	0	1	0.594794988632	None	None	None	None	1
1.7	2015_Jul_21_1605	s	s	3	2	SIC	144	ABS	0	2	24RD	0	1	2.24262499809	None	None	None	None	1
1.7	2015_Jul_21_1605	s	s	3	2	SIC	145	RC	2	0	23VC	1	0	1.16022109985	-360.0	317.0	-356	315	1
1.7	2015_Jul_21_1605	s	s	3	2	SIC	146	ABS	2	1	24VO	0	1	1.41185688972	None	None	None	None	1
1.7	2015_Jul_21_1605	s	s	3	2	SIC	147	RC	0	2	23RD	1	0	0.749997854233	14.0	309.0	12	307	1
1.7	2015_Jul_21_1605	s	s	3	2	SIC	148	RC	1	0	23MC	1	0	1.32517814636	-378.0	306.0	-378	299	1
1.7	2015_Jul_21_1605	s	s	3	2	SIC	149	RC	2	1	23VO	1	0	0.571217060089	108.0	354.0	114	352	1
1.7	2015_Jul_21_1605	s	s	3	2	SIC	150	RC	1	2	23MD	1	0	0.547512054443	254.0	303.0	255	299	1
1.7	2015_Jul_21_1605	s	s	3	2	SIC	151	ABS	0	1	24RO	0	1	6.20245695114	None	None	None	None	1
1.7	2015_Jul_21_1605	s	s	3	2	SIC	152	ABS	1	2	24MD	0	1	5.4087460041	None	None	None	None	1
1.7	2015_Jul_21_1605	s	s	3	2	SIC	153	ABS	0	2	24RD	0	1	1.37204885483	None	None	None	None	1
1.7	2015_Jul_21_1605	s	s	3	2	SIC	154	ABS	1	0	24MC	0	1	2.58890295029	None	None	None	None	1
1.7	2015_Jul_21_1605	s	s	3	2	SIC	155	ABS	1	1	24MO	0	1	2.24748301506	None	None	None	None	1
1.7	2015_Jul_21_1605	s	s	3	2	SIC	156	RC	2	2	23VD	1	0	0.94770693779	14.0	172.0	21	176	1
1.7	2015_Jul_21_1605	s	s	3	2	SIC	157	ABS	2	0	24VC	0	1	0.726738929749	None	None	None	None	1
1.7	2015_Jul_21_1605	s	s	3	2	SIC	158	ABS	2	2	24VD	0	1	0.591774940491	None	None	None	None	1
1.7	2015_Jul_21_1605	s	s	3	2	SIC	159	RC	0	1	23RO	1	0	1.58828806877	-321.0	-78.0	-314	-75	1
1.7	2015_Jul_21_1605	s	s	3	2	SIC	160	RC	1	1	23MO	1	0	2.32511210442	320.0	-267.0	320	-273	1
1.7	2015_Jul_21_1605	s	s	3	2	SIC	161	ABS	2	2	24VD	0	1	0.705595016479	None	None	None	None	1
1.7	2015_Jul_21_1605	s	s	3	2	SIC	162	ABS	1	2	24MD	0	1	1.9132399559	None	None	None	None	1
1.7	2015_Jul_21_1605	s	s	3	2	SIC	163	ABS	1	0	24MC	0	1	3.9777970314	None	None	None	None	1
1.7	2015_Jul_21_1605	s	s	3	2	SIC	164	RC	2	0	23VC	1	0	0.677044153214	-306.0	19.0	-310	18	1
1.7	2015_Jul_21_1605	s	s	3	2	SIC	165	ABS	2	1	24VO	0	1	0.741121053696	None	None	None	None	1
1.7	2015_Jul_21_1605	s	s	3	2	SIC	166	RC	2	1	23VO	1	0	0.646768093109	-325.0	372.0	-321	377	1
1.7	2015_Jul_21_1605	s	s	3	2	SIC	167	RC	2	2	23VD	1	0	0.559246063232	204.0	-202.0	209	-209	1
1.7	2015_Jul_21_1605	s	s	3	2	SIC	168	ABS	0	1	24RO	0	1	5.26751184464	None	None	None	None	1
1.7	2015_Jul_21_1605	s	s	3	2	SIC	169	ABS	0	2	24RD	0	1	1.30094599724	None	None	None	None	1
1.7	2015_Jul_21_1605	s	s	3	2	SIC	170	RC	0	1	23RO	1	0	2.47112488747	427.0	197.0	428	196	1
1.7	2015_Jul_21_1605	s	s	3	2	SIC	171	RC	1	1	23MO	1	0	1.21865200996	-435.0	-185.0	-440	-188	1
1.7	2015_Jul_21_1605	s	s	3	2	SIC	172	ABS	1	1	24MO	0	1	3.14825487137	None	None	None	None	1
1.7	2015_Jul_21_1605	s	s	3	2	SIC	173	RC	1	0	23MC	1	0	1.28917789459	280.0	-41.0	280	-38	1
1.7	2015_Jul_21_1605	s	s	3	2	SIC	174	ABS	2	0	24VC	0	1	1.17640590668	None	None	None	None	1
1.7	2015_Jul_21_1605	s	s	3	2	SIC	175	RC	1	2	23MD	1	0	0.729150056839	488.0	-67.0	491	-63	1
1.7	2015_Jul_21_1605	s	s	3	2	SIC	176	RC	0	2	23RD	1	0	0.756403207779	361.0	384.0	362	385	1
1.7	2015_Jul_21_1605	s	s	3	2	SIC	177	ABS	0	2	24RD	0	1	1.78583598137	None	None	None	None	1
1.7	2015_Jul_21_1605	s	s	3	2	SIC	178	ABS	1	2	24MD	0	1	1.25880002975	None	None	None	None	1
1.7	2015_Jul_21_1605	s	s	3	2	SIC	179	RC	1	1	23MO	1	0	1.28274798393	298.0	-338.0	297	-342	1
1.7	2015_Jul_21_1605	s	s	3	2	SIC	180	ABS	2	0	24VC	0	1	0.741011142731	None	None	None	None	1
1.7	2015_Jul_21_1605	s	s	3	2	SIC	181	RC	2	1	23VO	1	0	0.712578058243	-111.0	-92.0	-107	-87	1
1.7	2015_Jul_21_1605	s	s	3	2	SIC	182	RC	2	0	23VC	1	0	0.79980802536	432.0	339.0	427	341	1
1.7	2015_Jul_21_1605	s	s	3	2	SIC	183	RC	0	2	23RD	1	0	0.717365026474	-26.0	-186.0	-33	-188	1
1.7	2015_Jul_21_1605	s	s	3	2	SIC	184	RC	0	1	23RO	1	0	3.56114792824	314.0	-130.0	320	-130	1
1.7	2015_Jul_21_1605	s	s	3	2	SIC	185	ABS	1	1	24MO	0	1	3.13393092155	None	None	None	None	1
1.7	2015_Jul_21_1605	s	s	3	2	SIC	186	ABS	2	1	24VO	0	1	0.646781921387	None	None	None	None	1
1.7	2015_Jul_21_1605	s	s	3	2	SIC	187	RC	1	0	23MC	1	0	1.27753305435	-402.0	284.0	-399	282	1
1.7	2015_Jul_21_1605	s	s	3	2	SIC	188	RC	1	2	23MD	1	0	0.794672012329	141.0	-184.0	142	-187	1
1.7	2015_Jul_21_1605	s	s	3	2	SIC	189	RC	2	2	23VD	1	0	0.505862951279	287.0	218.0	285	216	1
1.7	2015_Jul_21_1605	s	s	3	2	SIC	190	ABS	2	2	24VD	0	1	0.688872098923	None	None	None	None	1
1.7	2015_Jul_21_1605	s	s	3	2	SIC	191	ABS	1	0	24MC	0	1	2.37748193741	None	None	None	None	1
1.7	2015_Jul_21_1605	s	s	3	2	SIC	192	ABS	0	1	24RO	0	1	5.10319685936	None	None	None	None	1
1.7	2015_Jul_21_1605	s	s	3	2	SIC	193	ABS	1	1	24MO	0	1	3.48350310326	None	None	None	None	1
1.7	2015_Jul_21_1605	s	s	3	2	SIC	194	ABS	0	2	24RD	0	1	1.14782905579	None	None	None	None	1
1.7	2015_Jul_21_1605	s	s	3	2	SIC	195	ABS	1	2	24MD	0	1	1.05236411095	None	None	None	None	1
1.7	2015_Jul_21_1605	s	s	3	2	SIC	196	RC	1	1	23MO	1	0	0.787950992584	7.0	64.0	11	66	1
1.7	2015_Jul_21_1605	s	s	3	2	SIC	197	ABS	2	0	24VC	0	1	0.75266289711	None	None	None	None	1
1.7	2015_Jul_21_1605	s	s	3	2	SIC	198	ABS	2	1	24VO	0	1	0.882086992264	None	None	None	None	1
1.7	2015_Jul_21_1605	s	s	3	2	SIC	199	RC	1	2	23MD	1	0	0.653068065643	-329.0	55.0	-327	52	1
1.7	2015_Jul_21_1605	s	s	3	2	SIC	200	RC	1	0	23MC	1	0	0.806597948074	-527.0	-92.0	-526	-87	1
1.7	2015_Jul_21_1605	s	s	3	2	SIC	201	RC	2	1	23VO	1	0	0.63502407074	-478.0	-96.0	-471	-91	1
1.7	2015_Jul_21_1605	s	s	3	2	SIC	202	ABS	2	2	24VD	0	1	0.699949026108	None	None	None	None	1
1.7	2015_Jul_21_1605	s	s	3	2	SIC	203	RC	2	2	23VD	1	0	0.653534889221	-172.0	364.0	-173	363	1
1.7	2015_Jul_21_1605	s	s	3	2	SIC	204	ABS	1	0	24MC	0	1	3.53733301163	None	None	None	None	1
1.7	2015_Jul_21_1605	s	s	3	2	SIC	205	ABS	0	1	24RO	0	1	4.05584812164	None	None	None	None	1
1.7	2015_Jul_21_1605	s	s	3	2	SIC	206	RC	0	1	23RO	1	0	1.98864793777	352.0	-71.0	352	-72	1
1.7	2015_Jul_21_1605	s	s	3	2	SIC	207	RC	0	2	23RD	1	0	0.893929958344	299.0	-349.0	302	-354	1
1.7	2015_Jul_21_1605	s	s	3	2	SIC	208	RC	2	0	23VC	1	0	0.529027938843	64.0	-258.0	70	-265	1
1.7	2015_Jul_21_1605	s	s	3	2	SIC	209	ABS	2	2	24VD	0	1	0.688710927963	None	None	None	None	1
1.7	2015_Jul_21_1605	s	s	3	2	SIC	210	ABS	0	1	24RO	0	1	4.93152403831	None	None	None	None	1
1.7	2015_Jul_21_1605	s	s	3	2	SIC	211	RC	1	2	23MD	1	0	0.712768793106	224.0	-225.0	223	-223	1
1.7	2015_Jul_21_1605	s	s	3	2	SIC	212	RC	2	0	23VC	1	0	0.618325948715	400.0	-336.0	404	-338	1
1.7	2015_Jul_21_1605	s	s	3	2	SIC	213	RC	0	2	23RD	1	0	0.729104995728	390.0	349.0	382	349	1
1.7	2015_Jul_21_1605	s	s	3	2	SIC	214	RC	2	2	23VD	1	0	1.90993905067	407.0	-128.0	405	-131	1
1.7	2015_Jul_21_1605	s	s	3	2	SIC	215	ABS	2	0	24VC	0	1	1.3411359787	None	None	None	None	1
1.7	2015_Jul_21_1605	s	s	3	2	SIC	216	RC	2	1	23VO	1	0	0.653470039368	-27.0	-222.0	-21	-226	1
1.7	2015_Jul_21_1605	s	s	3	2	SIC	217	ABS	1	0	24MC	0	1	3.59628891945	None	None	None	None	1
1.7	2015_Jul_21_1605	s	s	3	2	SIC	218	ABS	0	2	24RD	0	1	1.1479370594	None	None	None	None	1
1.7	2015_Jul_21_1605	s	s	3	2	SIC	219	ABS	2	1	24VO	0	1	1.0527920723	None	None	None	None	1
1.7	2015_Jul_21_1605	s	s	3	2	SIC	220	RC	0	1	23RO	1	0	1.51272988319	131.0	16.0	135	22	1
1.7	2015_Jul_21_1605	s	s	3	2	SIC	221	ABS	1	1	24MO	0	1	3.11330986023	None	None	None	None	1
1.7	2015_Jul_21_1605	s	s	3	2	SIC	222	ABS	1	2	24MD	0	1	1.45534396172	None	None	None	None	1
1.7	2015_Jul_21_1605	s	s	3	2	SIC	223	RC	1	1	23MO	1	0	1.45930194855	142.0	-139.0	143	-140	1
1.7	2015_Jul_21_1605	s	s	3	2	SIC	224	RC	1	0	23MC	1	0	1.72477817535	-412.0	360.0	-411	360	1
1.7	2015_Jul_21_1605	s	s	3	2	SIC	225	RC	2	2	23VD	1	0	0.62988114357	-304.0	360.0	-313	367	1
1.7	2015_Jul_21_1605	s	s	3	2	SIC	226	ABS	1	2	24MD	0	1	1.61187386513	None	None	None	None	1
1.7	2015_Jul_21_1605	s	s	3	2	SIC	227	ABS	2	1	24VO	0	1	0.971028089523	None	None	None	None	1
1.7	2015_Jul_21_1605	s	s	3	2	SIC	228	RC	1	0	23MC	1	0	1.77676892281	-429.0	60.0	-422	58	1
1.7	2015_Jul_21_1605	s	s	3	2	SIC	229	RC	2	0	23VC	1	0	0.559393882751	-212.0	50.0	-200	51	1
1.7	2015_Jul_21_1605	s	s	3	2	SIC	230	RC	2	1	23VO	1	0	0.729235172272	292.0	-204.0	290	-204	1
1.7	2015_Jul_21_1605	s	s	3	2	SIC	231	ABS	0	2	24RD	0	1	1.24450492859	None	None	None	None	1
1.7	2015_Jul_21_1605	s	s	3	2	SIC	232	RC	1	2	23MD	1	0	1.07042980194	-366.0	-392.0	-376	-392	1
1.7	2015_Jul_21_1605	s	s	3	2	SIC	233	ABS	0	1	24RO	0	1	4.34263110161	None	None	None	None	1
1.7	2015_Jul_21_1605	s	s	3	2	SIC	234	RC	0	2	23RD	1	0	0.818419933319	-438.0	-352.0	-439	-353	1
1.7	2015_Jul_21_1605	s	s	3	2	SIC	235	ABS	1	0	24MC	0	1	2.9301879406	None	None	None	None	1
1.7	2015_Jul_21_1605	s	s	3	2	SIC	236	ABS	1	1	24MO	0	1	2.67879796028	None	None	None	None	1
1.7	2015_Jul_21_1605	s	s	3	2	SIC	237	ABS	2	2	24VD	0	1	0.629378080368	None	None	None	None	1
1.7	2015_Jul_21_1605	s	s	3	2	SIC	238	ABS	2	0	24VC	0	1	0.670291900635	None	None	None	None	1
1.7	2015_Jul_21_1605	s	s	3	2	SIC	239	RC	1	1	23MO	1	0	1.84389996529	313.0	-317.0	319	-323	1
1.7	2015_Jul_21_1605	s	s	3	2	SIC	240	RC	0	1	23RO	1	0	1.98357391357	-188.0	-279.0	-179	-281	1
1.7	2015_Jul_21_1605	s	s	3	2	SIC	241	RC	2	2	23VD	1	0	1.0351831913	122.0	346.0	126	346	1
1.7	2015_Jul_21_1605	s	s	3	2	SIC	242	ABS	0	1	24RO	0	1	5.99059820175	None	None	None	None	1
1.7	2015_Jul_21_1605	s	s	3	2	SIC	243	ABS	0	2	24RD	0	1	1.09942412376	None	None	None	None	1
1.7	2015_Jul_21_1605	s	s	3	2	SIC	244	RC	1	1	23MO	1	0	0.81151008606	87.0	132.0	86	128	1
1.7	2015_Jul_21_1605	s	s	3	2	SIC	245	ABS	1	1	24MO	0	1	3.3775138855	None	None	None	None	1
1.7	2015_Jul_21_1605	s	s	3	2	SIC	246	RC	0	1	23RO	1	0	4.34308791161	-377.0	-392.0	-374	-399	1
1.7	2015_Jul_21_1605	s	s	3	2	SIC	247	ABS	1	2	24MD	0	1	0.976275920868	None	None	None	None	1
1.7	2015_Jul_21_1605	s	s	3	2	SIC	248	ABS	2	1	24VO	0	1	0.752671003342	None	None	None	None	1
1.7	2015_Jul_21_1605	s	s	3	2	SIC	249	ABS	2	2	24VD	0	1	0.587838888168	None	None	None	None	1
1.7	2015_Jul_21_1605	s	s	3	2	SIC	250	RC	2	0	23VC	1	0	0.689070940018	-194.0	74.0	-189	72	1
1.7	2015_Jul_21_1605	s	s	3	2	SIC	251	ABS	1	0	24MC	0	1	2.50149011612	None	None	None	None	1
1.7	2015_Jul_21_1605	s	s	3	2	SIC	252	RC	0	2	23RD	1	0	1.28868794441	-504.0	398.0	-506	391	1
1.7	2015_Jul_21_1605	s	s	3	2	SIC	253	RC	1	0	23MC	1	0	3.60111498833	130.0	-344.0	139	-341	1
1.7	2015_Jul_21_1605	s	s	3	2	SIC	254	RC	2	1	23VO	1	0	0.558824062347	156.0	139.0	158	144	1
1.7	2015_Jul_21_1605	s	s	3	2	SIC	255	RC	1	2	23MD	1	0	0.717670202255	-320.0	226.0	-324	219	1
1.7	2015_Jul_21_1605	s	s	3	2	SIC	256	ABS	2	0	24VC	0	1	0.856410980225	None	None	None	None	1
1.7	2015_Jul_21_1605	s	s	3	2	SIC	257	ABS	1	1	24MO	0	1	2.68352198601	None	None	None	None	1
1.7	2015_Jul_21_1605	s	s	3	2	SIC	258	RC	2	1	23VO	1	0	0.964643955231	312.0	-257.0	307	-257	1
1.7	2015_Jul_21_1605	s	s	3	2	SIC	259	ABS	0	1	24RO	1	0	3.36011910439	None	None	-105	-92	0
1.7	2015_Jul_21_1605	s	s	3	2	SIC	260	RC	1	0	23MC	1	0	1.99546790123	-403.0	248.0	-399	244	1
1.7	2015_Jul_21_1605	s	s	3	2	SIC	261	ABS	2	2	24VD	0	1	0.606590986252	None	None	None	None	1
1.7	2015_Jul_21_1605	s	s	3	2	SIC	262	RC	0	2	23RD	1	0	1.04692792892	-83.0	-181.0	-88	-187	1
1.7	2015_Jul_21_1605	s	s	3	2	SIC	263	RC	0	1	23RO	1	0	5.89392495155	366.0	207.0	365	202	1
1.7	2015_Jul_21_1605	s	s	3	2	SIC	264	ABS	2	1	24VO	0	1	1.23531389236	None	None	None	None	1
1.7	2015_Jul_21_1605	s	s	3	2	SIC	265	ABS	0	2	24RD	0	1	1.35294604301	None	None	None	None	1
1.7	2015_Jul_21_1605	s	s	3	2	SIC	266	ABS	1	0	24MC	0	1	2.95389604568	None	None	None	None	1
1.7	2015_Jul_21_1605	s	s	3	2	SIC	267	ABS	2	0	24VC	0	1	0.735872983932	None	None	None	None	1
1.7	2015_Jul_21_1605	s	s	3	2	SIC	268	ABS	1	2	24MD	0	1	0.714567899704	None	None	None	None	1
1.7	2015_Jul_21_1605	s	s	3	2	SIC	269	RC	2	2	23VD	1	0	0.772855997086	-180.0	9.0	-181	-1	1
1.7	2015_Jul_21_1605	s	s	3	2	SIC	270	RC	1	2	23MD	1	0	0.747949123383	-42.0	-140.0	-31	-139	1
1.7	2015_Jul_21_1605	s	s	3	2	SIC	271	RC	2	0	23VC	1	0	0.623182058334	-409.0	40.0	-400	41	1
1.7	2015_Jul_21_1605	s	s	3	2	SIC	272	RC	1	1	23MO	1	0	1.79685783386	508.0	-210.0	508	-209	1
1.7	2015_Jul_21_1605	s	s	3	2	SIC	273	RC	2	2	23VD	1	0	0.523962020874	-495.0	85.0	-498	79	1
1.7	2015_Jul_21_1605	s	s	3	2	SIC	274	ABS	1	0	24MC	0	1	5.76164793968	None	None	None	None	1
1.7	2015_Jul_21_1605	s	s	3	2	SIC	275	RC	1	0	23MC	1	0	2.94878697395	-332.0	-115.0	-331	-127	1
1.7	2015_Jul_21_1605	s	s	3	2	SIC	276	RC	1	1	23MO	1	0	1.45870494843	455.0	-221.0	454	-229	1
1.7	2015_Jul_21_1605	s	s	3	2	SIC	277	ABS	0	2	24RD	0	1	1.68251681328	None	None	None	None	1
1.7	2015_Jul_21_1605	s	s	3	2	SIC	278	RC	2	0	23VC	1	0	0.630161046982	348.0	209.0	345	208	1
1.7	2015_Jul_21_1605	s	s	3	2	SIC	279	RC	1	2	23MD	1	0	0.57303404808	401.0	-47.0	395	-50	1
1.7	2015_Jul_21_1605	s	s	3	2	SIC	280	RC	0	1	23RO	1	0	5.02546596527	-88.0	308.0	-88	307	1
1.7	2015_Jul_21_1605	s	s	3	2	SIC	281	ABS	2	0	24VC	0	1	0.937898874283	None	None	None	None	1
1.7	2015_Jul_21_1605	s	s	3	2	SIC	282	ABS	1	2	24MD	0	1	1.27066898346	None	None	None	None	1
1.7	2015_Jul_21_1605	s	s	3	2	SIC	283	RC	0	2	23RD	1	0	0.77362704277	-120.0	209.0	-116	216	1
1.7	2015_Jul_21_1605	s	s	3	2	SIC	284	ABS	1	1	24MO	0	1	3.94924402237	None	None	None	None	1
1.7	2015_Jul_21_1605	s	s	3	2	SIC	285	ABS	2	1	24VO	0	1	0.714133024216	None	None	None	None	1
1.7	2015_Jul_21_1605	s	s	3	2	SIC	286	ABS	0	1	24RO	0	1	4.97217202187	None	None	None	None	1
1.7	2015_Jul_21_1605	s	s	3	2	SIC	287	RC	2	1	23VO	1	0	0.682070016861	50.0	-167.0	57	-166	1
1.7	2015_Jul_21_1605	s	s	3	2	SIC	288	ABS	2	2	24VD	0	1	1.02971291542	None	None	None	None	1
1.7	2015_Jul_21_1605	s	s	3	2	SIC	289	ABS	2	2	24VD	0	1	0.576137065887	None	None	None	None	1
1.7	2015_Jul_21_1605	s	s	3	2	SIC	290	ABS	1	2	24MD	0	1	0.893936872482	None	None	None	None	1
1.7	2015_Jul_21_1605	s	s	3	2	SIC	291	RC	1	0	23MC	1	0	1.83082699776	-68.0	-119.0	-69	-129	1
1.7	2015_Jul_21_1605	s	s	3	2	SIC	292	ABS	1	1	24MO	0	1	4.73112082481	None	None	None	None	1
1.7	2015_Jul_21_1605	s	s	3	2	SIC	293	ABS	2	1	24VO	0	1	0.811573028564	None	None	None	None	1
1.7	2015_Jul_21_1605	s	s	3	2	SIC	294	RC	2	2	23VD	1	0	0.634999990463	-400.0	69.0	-395	72	1
1.7	2015_Jul_21_1605	s	s	3	2	SIC	295	ABS	1	0	24MC	0	1	4.5363240242	None	None	None	None	1
1.7	2015_Jul_21_1605	s	s	3	2	SIC	296	RC	0	2	23RD	1	0	0.787929058075	-520.0	258.0	-514	257	1
1.7	2015_Jul_21_1605	s	s	3	2	SIC	297	RC	0	1	23RO	1	0	3.31856417656	215.0	374.0	223	368	1
1.7	2015_Jul_21_1605	s	s	3	2	SIC	298	ABS	0	2	24RD	0	1	2.4779279232	None	None	None	None	1
1.7	2015_Jul_21_1605	s	s	3	2	SIC	299	ABS	2	0	24VC	0	1	0.956602096558	None	None	None	None	1
1.7	2015_Jul_21_1605	s	s	3	2	SIC	300	RC	1	1	23MO	1	0	0.905611991882	-100.0	222.0	-97	215	1
1.7	2015_Jul_21_1605	s	s	3	2	SIC	301	RC	2	1	23VO	1	0	0.535691022873	223.0	81.0	222	79	1
1.7	2015_Jul_21_1605	s	s	3	2	SIC	302	ABS	0	1	24RO	0	1	4.84391307831	None	None	None	None	1
1.7	2015_Jul_21_1605	s	s	3	2	SIC	303	RC	1	2	23MD	1	0	0.924563169479	-330.0	-4.0	-332	-9	1
1.7	2015_Jul_21_1605	s	s	3	2	SIC	304	RC	2	0	23VC	1	0	0.512413024902	289.0	180.0	293	170	1
1.7	2015_Jul_21_1605	s	s	3	2	SIC	305	RC	2	2	23VD	1	0	0.517259120941	429.0	163.0	438	161	1
1.7	2015_Jul_21_1605	s	s	3	2	SIC	306	RC	0	1	23RO	1	0	5.26079010963	-494.0	-325.0	-490	-324	1
1.7	2015_Jul_21_1605	s	s	3	2	SIC	307	RC	1	0	23MC	1	0	1.30588984489	7.0	237.0	12	232	1
1.7	2015_Jul_21_1605	s	s	3	2	SIC	308	RC	0	2	23RD	1	0	0.552551031113	436.0	270.0	438	275	1
1.7	2015_Jul_21_1605	s	s	3	2	SIC	309	ABS	1	1	24MO	0	1	2.60066699982	None	None	None	None	1
1.7	2015_Jul_21_1605	s	s	3	2	SIC	310	ABS	0	2	24RD	0	1	1.10579609871	None	None	None	None	1
1.7	2015_Jul_21_1605	s	s	3	2	SIC	311	ABS	2	0	24VC	0	1	0.517181873322	None	None	None	None	1
1.7	2015_Jul_21_1605	s	s	3	2	SIC	312	RC	2	1	23VO	1	0	0.794191837311	-165.0	281.0	-155	280	1
1.7	2015_Jul_21_1605	s	s	3	2	SIC	313	ABS	1	0	24MC	0	1	4.92598319054	None	None	None	None	1
1.7	2015_Jul_21_1605	s	s	3	2	SIC	314	ABS	0	1	24RO	0	1	5.42051792145	None	None	None	None	1
1.7	2015_Jul_21_1605	s	s	3	2	SIC	315	ABS	2	1	24VO	0	1	0.700173139572	None	None	None	None	1
1.7	2015_Jul_21_1605	s	s	3	2	SIC	316	RC	1	2	23MD	1	0	0.752688884735	-496.0	112.0	-487	113	1
1.7	2015_Jul_21_1605	s	s	3	2	SIC	317	RC	2	0	23VC	1	0	0.550285100937	-316.0	310.0	-320	311	1
1.7	2015_Jul_21_1605	s	s	3	2	SIC	318	RC	1	1	23MO	1	0	1.40004086494	-422.0	-222.0	-425	-227	1
1.7	2015_Jul_21_1605	s	s	3	2	SIC	319	ABS	2	2	24VD	0	1	0.835433006287	None	None	None	None	1
1.7	2015_Jul_21_1605	s	s	3	2	SIC	320	ABS	1	2	24MD	0	1	2.04747796059	None	None	None	None	1
1.7	2015_Jul_21_1605	s	s	3	2	SIC	321	RC	0	1	23RO	1	0	2.27781510353	406.0	-40.0	408	-43	1
1.7	2015_Jul_21_1605	s	s	3	2	SIC	322	ABS	0	2	24RD	0	1	4.29564285278	None	None	None	None	1
1.7	2015_Jul_21_1605	s	s	3	2	SIC	323	RC	1	2	23MD	1	0	0.799626111984	-183.0	40.0	-187	41	1
1.7	2015_Jul_21_1605	s	s	3	2	SIC	324	ABS	1	2	24MD	0	1	1.96240091324	None	None	None	None	1
1.7	2015_Jul_21_1605	s	s	3	2	SIC	325	ABS	1	1	24MO	0	1	4.27211499214	None	None	None	None	1
1.7	2015_Jul_21_1605	s	s	3	2	SIC	326	RC	1	0	23MC	1	0	1.54127287865	-463.0	42.0	-468	44	1
1.7	2015_Jul_21_1605	s	s	3	2	SIC	327	ABS	0	1	24RO	0	1	5.31153988838	None	None	None	None	1
1.7	2015_Jul_21_1605	s	s	3	2	SIC	328	ABS	2	1	24VO	0	1	0.587874889374	None	None	None	None	1
1.7	2015_Jul_21_1605	s	s	3	2	SIC	329	ABS	2	0	24VC	0	1	0.511981964111	None	None	None	None	1
1.7	2015_Jul_21_1605	s	s	3	2	SIC	330	ABS	1	0	24MC	0	1	4.15984106064	None	None	None	None	1
1.7	2015_Jul_21_1605	s	s	3	2	SIC	331	RC	2	0	23VC	1	0	1.00733423233	-282.0	301.0	-283	304	1
1.7	2015_Jul_21_1605	s	s	3	2	SIC	332	RC	1	1	23MO	1	0	1.40841817856	-419.0	-52.0	-425	-53	1
1.7	2015_Jul_21_1605	s	s	3	2	SIC	333	RC	2	1	23VO	1	0	1.04690599442	-223.0	-371.0	-223	-371	1
1.7	2015_Jul_21_1605	s	s	3	2	SIC	334	ABS	2	2	24VD	0	1	0.870323181152	None	None	None	None	1
1.7	2015_Jul_21_1605	s	s	3	2	SIC	335	RC	0	2	23RD	1	0	1.18820714951	366.0	-339.0	366	-346	1
1.7	2015_Jul_21_1605	s	s	3	2	SIC	336	RC	2	2	23VD	1	0	1.23017811775	309.0	89.0	308	88	1
1.7	2015_Jul_21_1605	s	s	3	2	SIC	337	RC	2	1	23VO	1	0	0.535885810852	-430.0	126.0	-431	125	1
1.7	2015_Jul_21_1605	s	s	3	2	SIC	338	ABS	1	1	24MO	0	1	5.42225503922	None	None	None	None	1
1.7	2015_Jul_21_1605	s	s	3	2	SIC	339	RC	2	2	23VD	1	0	0.8765001297	350.0	-82.0	357	-78	1
1.7	2015_Jul_21_1605	s	s	3	2	SIC	340	ABS	2	2	24VD	0	1	0.701476097107	None	None	None	None	1
1.7	2015_Jul_21_1605	s	s	3	2	SIC	341	ABS	1	2	24MD	0	1	1.64721894264	None	None	None	None	1
1.7	2015_Jul_21_1605	s	s	3	2	SIC	342	ABS	2	1	24VO	0	1	1.05411887169	None	None	None	None	1
1.7	2015_Jul_21_1605	s	s	3	2	SIC	343	ABS	0	1	24RO	0	1	1.94152998924	None	None	None	None	1
1.7	2015_Jul_21_1605	s	s	3	2	SIC	344	RC	1	1	23MO	1	0	1.31273794174	262.0	84.0	269	88	1
1.7	2015_Jul_21_1605	s	s	3	2	SIC	345	ABS	1	0	24MC	0	1	1.77118897438	None	None	None	None	1
1.7	2015_Jul_21_1605	s	s	3	2	SIC	346	RC	1	2	23MD	1	0	0.870389938354	-95.0	-374.0	-95	-383	1
1.7	2015_Jul_21_1605	s	s	3	2	SIC	347	ABS	0	2	24RD	0	1	1.0116519928	None	None	None	None	1
1.7	2015_Jul_21_1605	s	s	3	2	SIC	348	RC	0	2	23RD	1	0	0.835063934326	-271.0	-343.0	-268	-342	1
1.7	2015_Jul_21_1605	s	s	3	2	SIC	349	ABS	2	0	24VC	0	1	0.784475803375	None	None	None	None	1
1.7	2015_Jul_21_1605	s	s	3	2	SIC	350	RC	0	1	23RO	1	0	2.70660805702	42.0	-139.0	45	-137	1
1.7	2015_Jul_21_1605	s	s	3	2	SIC	351	RC	2	0	23VC	1	0	0.882178068161	-111.0	-297.0	-105	-296	1
1.7	2015_Jul_21_1605	s	s	3	2	SIC	352	RC	1	0	23MC	1	0	1.11754083633	-502.0	-187.0	-508	-196	1
1.7	2015_Jul_21_1605	s	s	3	2	SIC	353	RC	1	0	23MC	1	0	3.34000897408	243.0	170.0	241	178	1
1.7	2015_Jul_21_1605	s	s	3	2	SIC	354	RC	0	2	23RD	1	0	0.529011964798	-341.0	-135.0	-342	-145	1
1.7	2015_Jul_21_1605	s	s	3	2	SIC	355	ABS	2	2	24VD	0	1	0.677469015121	None	None	None	None	1
1.7	2015_Jul_21_1605	s	s	3	2	SIC	356	RC	2	2	23VD	1	0	0.952792167664	-439.0	164.0	-433	159	1
1.7	2015_Jul_21_1605	s	s	3	2	SIC	357	RC	0	1	23RO	1	0	5.37848210335	480.0	-46.0	485	-47	1
1.7	2015_Jul_21_1605	s	s	3	2	SIC	358	ABS	0	2	24RD	0	1	1.51268982887	None	None	None	None	1
1.7	2015_Jul_21_1605	s	s	3	2	SIC	359	RC	2	0	23VC	1	0	0.740866184235	524.0	-376.0	529	-376	1
1.7	2015_Jul_21_1605	s	s	3	2	SIC	360	RC	1	1	23MO	1	0	2.8076570034	500.0	34.0	499	31	1
1.7	2015_Jul_21_1605	s	s	3	2	SIC	361	RC	2	1	23VO	1	0	0.571246147156	-127.0	244.0	-122	238	1
1.7	2015_Jul_21_1605	s	s	3	2	SIC	362	ABS	1	2	24MD	0	1	1.01877903938	None	None	None	None	1
1.7	2015_Jul_21_1605	s	s	3	2	SIC	363	ABS	1	1	24MO	0	1	4.22174310684	None	None	None	None	1
1.7	2015_Jul_21_1605	s	s	3	2	SIC	364	ABS	2	1	24VO	0	1	0.616770029068	None	None	None	None	1
1.7	2015_Jul_21_1605	s	s	3	2	SIC	365	ABS	2	0	24VC	0	1	0.652981042862	None	None	None	None	1
1.7	2015_Jul_21_1605	s	s	3	2	SIC	366	RC	1	2	23MD	1	0	0.811545848846	361.0	-369.0	358	-369	1
1.7	2015_Jul_21_1605	s	s	3	2	SIC	367	ABS	0	1	24RO	0	1	4.76648902893	None	None	None	None	1
1.7	2015_Jul_21_1605	s	s	3	2	SIC	368	ABS	1	0	24MC	0	1	3.12462902069	None	None	None	None	1
1.7	2015_Jul_21_1605	s	s	3	2	SIC	369	RC	1	0	23MC	1	0	1.26590394974	-367.0	-152.0	-364	-144	1
1.7	2015_Jul_21_1605	s	s	3	2	SIC	370	ABS	0	2	24RD	0	1	0.995518922806	None	None	None	None	1
1.7	2015_Jul_21_1605	s	s	3	2	SIC	371	ABS	2	2	24VD	0	1	0.646883964539	None	None	None	None	1
1.7	2015_Jul_21_1605	s	s	3	2	SIC	372	ABS	1	0	24MC	0	1	2.74184823036	None	None	None	None	1
1.7	2015_Jul_21_1605	s	s	3	2	SIC	373	RC	0	1	23RO	0	1	3.61823987961	-169.0	-292.0	None	None	0
1.7	2015_Jul_21_1605	s	s	3	2	SIC	374	ABS	2	0	24VC	0	1	0.524249076843	None	None	None	None	1
1.7	2015_Jul_21_1605	s	s	3	2	SIC	375	ABS	0	1	24RO	0	1	6.9204750061	None	None	None	None	1
1.7	2015_Jul_21_1605	s	s	3	2	SIC	376	RC	2	1	23VO	1	0	0.740899801254	2.0	136.0	3	140	1
1.7	2015_Jul_21_1605	s	s	3	2	SIC	377	ABS	1	2	24MD	0	1	1.19193577766	None	None	None	None	1
1.7	2015_Jul_21_1605	s	s	3	2	SIC	378	RC	2	0	23VC	1	0	0.693797826767	105.0	254.0	103	256	1
1.7	2015_Jul_21_1605	s	s	3	2	SIC	379	RC	0	2	23RD	1	0	0.662252187729	204.0	-46.0	201	-46	1
1.7	2015_Jul_21_1605	s	s	3	2	SIC	380	RC	1	2	23MD	1	0	1.08227014542	-432.0	-222.0	-425	-223	1
1.7	2015_Jul_21_1605	s	s	3	2	SIC	381	ABS	2	1	24VO	0	1	0.893914937973	None	None	None	None	1
1.7	2015_Jul_21_1605	s	s	3	2	SIC	382	RC	2	2	23VD	1	0	0.606039047241	-172.0	-387.0	-167	-390	1
1.7	2015_Jul_21_1605	s	s	3	2	SIC	383	ABS	1	1	24MO	0	1	6.35543203354	None	None	None	None	1
1.7	2015_Jul_21_1605	s	s	3	2	SIC	384	RC	1	1	23MO	1	0	1.19731807709	300.0	-379.0	307	-386	1
1.7	2015_Jul_21_1605	s	s	3	2	SIC	385	RC	0	2	23RD	1	0	0.771150827408	490.0	-293.0	490	-294	1
1.7	2015_Jul_21_1605	s	s	3	2	SIC	386	RC	2	2	23VD	1	0	0.700538873672	-456.0	401.0	-456	400	1
1.7	2015_Jul_21_1605	s	s	3	2	SIC	387	ABS	2	1	24VO	0	1	1.17154502869	None	None	None	None	1
1.7	2015_Jul_21_1605	s	s	3	2	SIC	388	ABS	1	1	24MO	0	1	4.62239599228	None	None	None	None	1
1.7	2015_Jul_21_1605	s	s	3	2	SIC	389	RC	2	1	23VO	1	0	2.03218603134	-93.0	-301.0	-82	-301	1
1.7	2015_Jul_21_1605	s	s	3	2	SIC	390	ABS	0	1	24RO	0	1	2.84288096428	None	None	None	None	1
1.7	2015_Jul_21_1605	s	s	3	2	SIC	391	RC	1	2	23MD	1	0	0.941104888916	216.0	-77.0	219	-86	1
1.7	2015_Jul_21_1605	s	s	3	2	SIC	392	ABS	2	2	24VD	0	1	1.00639200211	None	None	None	None	1
1.7	2015_Jul_21_1605	s	s	3	2	SIC	393	RC	1	1	23MO	1	0	1.27738809586	-419.0	-350.0	-422	-364	1
1.7	2015_Jul_21_1605	s	s	3	2	SIC	394	ABS	0	2	24RD	0	1	0.852292060852	None	None	None	None	1
1.7	2015_Jul_21_1605	s	s	3	2	SIC	395	ABS	1	0	24MC	0	1	2.51336312294	None	None	None	None	1
1.7	2015_Jul_21_1605	s	s	3	2	SIC	396	RC	1	0	23MC	1	0	1.72610712051	289.0	-272.0	293	-265	1
1.7	2015_Jul_21_1605	s	s	3	2	SIC	397	RC	2	0	23VC	1	0	0.677196025848	348.0	-333.0	349	-337	1
1.7	2015_Jul_21_1605	s	s	3	2	SIC	398	ABS	1	2	24MD	0	1	0.952861070633	None	None	None	None	1
1.7	2015_Jul_21_1605	s	s	3	2	SIC	399	RC	0	1	23RO	1	0	2.21914291382	-470.0	172.0	-469	174	1
1.7	2015_Jul_21_1605	s	s	3	2	SIC	400	ABS	2	0	24VC	0	1	0.748023033142	None	None	None	None	1
1.7	2015_Jul_21_1605	s	s	3	2	SIC	401	ABS	1	0	24MC	0	1	3.7870528698	None	None	None	None	1
1.7	2015_Jul_21_1605	s	s	3	2	SIC	402	ABS	0	1	24RO	0	1	4.96639680862	None	None	None	None	1
1.7	2015_Jul_21_1605	s	s	3	2	SIC	403	ABS	1	2	24MD	0	1	1.31323885918	None	None	None	None	1
1.7	2015_Jul_21_1605	s	s	3	2	SIC	404	RC	2	0	23VC	1	0	0.988131999969	-432.0	339.0	-433	340	1
1.7	2015_Jul_21_1605	s	s	3	2	SIC	405	ABS	2	2	24VD	0	1	0.69759106636	None	None	None	None	1
1.7	2015_Jul_21_1605	s	s	3	2	SIC	406	RC	2	2	23VD	1	0	0.611448049545	118.0	298.0	112	296	1
1.7	2015_Jul_21_1605	s	s	3	2	SIC	407	RC	0	1	23RO	1	0	2.8831949234	-429.0	-134.0	-419	-134	1
1.7	2015_Jul_21_1605	s	s	3	2	SIC	408	ABS	2	0	24VC	0	1	0.736024856567	None	None	None	None	1
1.7	2015_Jul_21_1605	s	s	3	2	SIC	409	RC	0	2	23RD	1	0	0.670244932175	-519.0	250.0	-512	248	1
1.7	2015_Jul_21_1605	s	s	3	2	SIC	410	RC	2	1	23VO	1	0	0.799688816071	48.0	-165.0	44	-165	1
1.7	2015_Jul_21_1605	s	s	3	2	SIC	411	RC	1	2	23MD	1	0	0.505580186844	150.0	-108.0	159	-112	1
1.7	2015_Jul_21_1605	s	s	3	2	SIC	412	ABS	2	1	24VO	0	1	1.05547809601	None	None	None	None	1
1.7	2015_Jul_21_1605	s	s	3	2	SIC	413	RC	1	1	23MO	1	0	0.905660867691	289.0	145.0	293	152	1
1.7	2015_Jul_21_1605	s	s	3	2	SIC	414	ABS	0	2	24RD	0	1	1.07039284706	None	None	None	None	1
1.7	2015_Jul_21_1605	s	s	3	2	SIC	415	RC	1	0	23MC	1	0	1.3598678112	-504.0	149.0	-504	147	1
1.7	2015_Jul_21_1605	s	s	3	2	SIC	416	ABS	1	1	24MO	0	1	2.91361308098	None	None	None	None	1
1.7	2015_Jul_21_1605	s	s	3	2	SIC	417	RC	0	1	23RO	1	0	4.12566399574	513.0	-319.0	526	-315	1
1.7	2015_Jul_21_1605	s	s	3	2	SIC	418	ABS	1	2	24MD	0	1	0.818032979965	None	None	None	None	1
1.7	2015_Jul_21_1605	s	s	3	2	SIC	419	ABS	1	0	24MC	0	1	3.3379778862	None	None	None	None	1
1.7	2015_Jul_21_1605	s	s	3	2	SIC	420	ABS	2	0	24VC	0	1	0.583112001419	None	None	None	None	1
1.7	2015_Jul_21_1605	s	s	3	2	SIC	421	RC	2	0	23VC	1	0	0.762016057968	-46.0	84.0	-50	84	1
1.7	2015_Jul_21_1605	s	s	3	2	SIC	422	RC	1	0	23MC	1	0	3.40800118446	455.0	236.0	455	231	1
1.7	2015_Jul_21_1605	s	s	3	2	SIC	423	RC	2	1	23VO	1	0	0.524364948273	123.0	169.0	124	169	1
1.7	2015_Jul_21_1605	s	s	3	2	SIC	424	RC	0	2	23RD	1	0	0.670272111893	151.0	-163.0	149	-164	1
1.7	2015_Jul_21_1605	s	s	3	2	SIC	425	ABS	2	1	24VO	0	1	1.50359201431	None	None	None	None	1
1.7	2015_Jul_21_1605	s	s	3	2	SIC	426	ABS	0	2	24RD	0	1	0.952795982361	None	None	None	None	1
1.7	2015_Jul_21_1605	s	s	3	2	SIC	427	ABS	2	2	24VD	0	1	0.547652959824	None	None	None	None	1
1.7	2015_Jul_21_1605	s	s	3	2	SIC	428	RC	2	2	23VD	1	0	0.705580949783	-496.0	241.0	-498	239	1
1.7	2015_Jul_21_1605	s	s	3	2	SIC	429	RC	1	1	23MO	1	0	0.970734119415	108.0	92.0	107	85	1
1.7	2015_Jul_21_1605	s	s	3	2	SIC	430	ABS	1	1	24MO	0	1	5.99860882759	None	None	None	None	1
1.7	2015_Jul_21_1605	s	s	3	2	SIC	431	ABS	0	1	24RO	0	1	5.0674571991	None	None	None	None	1
1.7	2015_Jul_21_1605	s	s	3	2	SIC	432	RC	1	2	23MD	1	0	0.689090013504	-83.0	-183.0	-79	-178	1
1.7	2015_Jul_21_1605	s	s	3	2	SIC	433	RC	0	2	23RD	1	0	0.517245054245	-93.0	-6.0	-83	-4	1
1.7	2015_Jul_21_1605	s	s	3	2	SIC	434	ABS	2	1	24VO	0	1	0.738357782364	None	None	None	None	1
1.7	2015_Jul_21_1605	s	s	3	2	SIC	435	ABS	1	2	24MD	0	1	0.832545042038	None	None	None	None	1
1.7	2015_Jul_21_1605	s	s	3	2	SIC	436	ABS	1	1	24MO	0	1	2.07096505165	None	None	None	None	1
1.7	2015_Jul_21_1605	s	s	3	2	SIC	437	RC	1	2	23MD	0	1	0.653862953186	-499.0	-284.0	None	None	0
1.7	2015_Jul_21_1605	s	s	3	2	SIC	438	ABS	2	2	24VD	0	1	0.717352867126	None	None	None	None	1
1.7	2015_Jul_21_1605	s	s	3	2	SIC	439	ABS	0	1	24RO	0	1	3.97778511047	None	None	None	None	1
1.7	2015_Jul_21_1605	s	s	3	2	SIC	440	RC	2	1	23VO	1	0	0.670150995255	-388.0	176.0	-390	177	1
1.7	2015_Jul_21_1605	s	s	3	2	SIC	441	ABS	1	0	24MC	0	1	1.87093687057	None	None	None	None	1
1.7	2015_Jul_21_1605	s	s	3	2	SIC	442	RC	1	0	23MC	1	0	1.65340399742	420.0	-389.0	423	-399	1
1.7	2015_Jul_21_1605	s	s	3	2	SIC	443	RC	2	2	23VD	1	0	0.595423936844	105.0	-163.0	112	-163	1
1.7	2015_Jul_21_1605	s	s	3	2	SIC	444	ABS	2	0	24VC	0	1	1.08829307556	None	None	None	None	1
1.7	2015_Jul_21_1605	s	s	3	2	SIC	445	RC	1	1	23MO	1	0	2.02390193939	486.0	-267.0	496	-267	1
1.7	2015_Jul_21_1605	s	s	3	2	SIC	446	ABS	0	2	24RD	0	1	1.34759497643	None	None	None	None	1
1.7	2015_Jul_21_1605	s	s	3	2	SIC	447	RC	0	1	23RO	1	0	2.88923096657	-446.0	-392.0	-441	-394	1
1.7	2015_Jul_21_1605	s	s	3	2	SIC	448	RC	2	0	23VC	1	0	0.55958199501	494.0	-270.0	494	-275	1
1.7	2015_Jul_21_1605	s	s	3	2	SIC	449	RC	2	2	23VD	1	0	0.523954868317	93.0	7.0	90	2	1
1.7	2015_Jul_21_1605	s	s	3	2	SIC	450	RC	1	2	23MD	1	0	0.462774991989	100.0	-37.0	95	-38	1
1.7	2015_Jul_21_1605	s	s	3	2	SIC	451	RC	0	1	23RO	1	0	3.21267604828	527.0	409.0	533	411	1
1.7	2015_Jul_21_1605	s	s	3	2	SIC	452	RC	0	2	23RD	1	0	0.67694401741	-499.0	140.0	-501	132	1
1.7	2015_Jul_21_1605	s	s	3	2	SIC	453	ABS	2	0	24VC	0	1	0.823307991028	None	None	None	None	1
1.7	2015_Jul_21_1605	s	s	3	2	SIC	454	ABS	2	1	24VO	0	1	0.693783044815	None	None	None	None	1
1.7	2015_Jul_21_1605	s	s	3	2	SIC	455	ABS	1	0	24MC	0	1	4.28386998177	None	None	None	None	1
1.7	2015_Jul_21_1605	s	s	3	2	SIC	456	ABS	1	1	24MO	0	1	1.32620406151	None	None	None	None	1
1.7	2015_Jul_21_1605	s	s	3	2	SIC	457	RC	2	0	23VC	1	0	0.700563907623	-251.0	296.0	-257	301	1
1.7	2015_Jul_21_1605	s	s	3	2	SIC	458	RC	1	0	23MC	1	0	1.45392012596	-491.0	-5.0	-486	-8	1
1.7	2015_Jul_21_1605	s	s	3	2	SIC	459	ABS	0	2	24RD	0	1	0.917508840561	None	None	None	None	1
1.7	2015_Jul_21_1605	s	s	3	2	SIC	460	ABS	2	2	24VD	0	1	0.476580858231	None	None	None	None	1
1.7	2015_Jul_21_1605	s	s	3	2	SIC	461	ABS	0	1	24RO	0	1	3.45454788208	None	None	None	None	1
1.7	2015_Jul_21_1605	s	s	3	2	SIC	462	ABS	1	2	24MD	0	1	0.77277302742	None	None	None	None	1
1.7	2015_Jul_21_1605	s	s	3	2	SIC	463	RC	2	1	23VO	1	0	0.740900039673	-160.0	341.0	-154	339	1
1.7	2015_Jul_21_1605	s	s	3	2	SIC	464	RC	1	1	23MO	1	0	2.57450604439	339.0	-235.0	335	-234	1
1.7	2015_Jul_21_1605	s	s	3	2	SIC	465	RC	0	2	23RD	1	0	0.529026985168	-218.0	89.0	-222	89	1
1.7	2015_Jul_21_1605	s	s	3	2	SIC	466	RC	2	2	23VD	1	0	0.59964299202	-375.0	-266.0	-364	-266	1
1.7	2015_Jul_21_1605	s	s	3	2	SIC	467	ABS	2	0	24VC	0	1	0.905707836151	None	None	None	None	1
1.7	2015_Jul_21_1605	s	s	3	2	SIC	468	RC	1	0	23MC	0	1	3.37742400169	382.0	86.0	None	None	0
1.7	2015_Jul_21_1605	s	s	3	2	SIC	469	RC	2	0	23VC	1	0	0.685820102692	-258.0	-138.0	-256	-137	1
1.7	2015_Jul_21_1605	s	s	3	2	SIC	470	ABS	2	2	24VD	0	1	0.66504907608	None	None	None	None	1
1.7	2015_Jul_21_1605	s	s	3	2	SIC	471	ABS	2	1	24VO	0	1	0.926988840103	None	None	None	None	1
1.7	2015_Jul_21_1605	s	s	3	2	SIC	472	RC	0	1	23RO	1	0	2.98902702332	-210.0	-373.0	-217	-374	1
1.7	2015_Jul_21_1605	s	s	3	2	SIC	473	RC	2	1	23VO	1	0	0.700651884079	296.0	-156.0	304	-151	1
1.7	2015_Jul_21_1605	s	s	3	2	SIC	474	ABS	1	0	24MC	0	1	4.67604184151	None	None	None	None	1
1.7	2015_Jul_21_1605	s	s	3	2	SIC	475	ABS	0	1	24RO	0	1	3.66536593437	None	None	None	None	1
1.7	2015_Jul_21_1605	s	s	3	2	SIC	476	ABS	1	1	24MO	0	1	2.20919084549	None	None	None	None	1
1.7	2015_Jul_21_1605	s	s	3	2	SIC	477	ABS	0	2	24RD	0	1	1.0705280304	None	None	None	None	1
1.7	2015_Jul_21_1605	s	s	3	2	SIC	478	RC	1	1	23MO	1	0	1.51290082932	-34.0	349.0	-31	351	1
1.7	2015_Jul_21_1605	s	s	3	2	SIC	479	RC	1	2	23MD	1	0	1.02362418175	451.0	-258.0	453	-261	1
1.7	2015_Jul_21_1605	s	s	3	2	SIC	480	ABS	1	2	24MD	0	1	1.11474394798	None	None	None	None	1
1.7	2015_Jul_21_1605	s	s	3	2	SIC	481	RC	0	2	23RD	1	0	0.676979064941	192.0	-327.0	195	-330	1
1.7	2015_Jul_21_1605	s	s	3	2	SIC	482	RC	1	0	23MC	1	0	1.23523497581	-444.0	-56.0	-438	-55	1
1.7	2015_Jul_21_1605	s	s	3	2	SIC	483	ABS	0	1	24RO	0	1	3.71335506439	None	None	None	None	1
1.7	2015_Jul_21_1605	s	s	3	2	SIC	484	RC	1	2	23MD	1	0	0.882160902023	178.0	-181.0	177	-187	1
1.7	2015_Jul_21_1605	s	s	3	2	SIC	485	ABS	2	0	24VC	0	1	0.773072004318	None	None	None	None	1
1.7	2015_Jul_21_1605	s	s	3	2	SIC	486	ABS	1	0	24MC	0	1	1.80028986931	None	None	None	None	1
1.7	2015_Jul_21_1605	s	s	3	2	SIC	487	RC	0	1	23RO	1	0	2.68306112289	-170.0	-96.0	-170	-94	1
1.7	2015_Jul_21_1605	s	s	3	2	SIC	488	RC	2	1	23VO	1	0	0.729141950607	-531.0	223.0	-523	223	1
1.7	2015_Jul_21_1605	s	s	3	2	SIC	489	ABS	1	2	24MD	0	1	0.905706882477	None	None	None	None	1
1.7	2015_Jul_21_1605	s	s	3	2	SIC	490	RC	1	1	23MO	1	0	1.07729101181	331.0	221.0	332	219	1
1.7	2015_Jul_21_1605	s	s	3	2	SIC	491	ABS	2	1	24VO	0	1	0.690555095673	None	None	None	None	1
1.7	2015_Jul_21_1605	s	s	3	2	SIC	492	ABS	2	2	24VD	0	1	0.58384013176	None	None	None	None	1
1.7	2015_Jul_21_1605	s	s	3	2	SIC	493	ABS	0	2	24RD	0	1	0.652899026871	None	None	None	None	1
1.7	2015_Jul_21_1605	s	s	3	2	SIC	494	ABS	1	1	24MO	0	1	2.3887860775	None	None	None	None	1
1.7	2015_Jul_21_1605	s	s	3	2	SIC	495	RC	2	2	23VD	1	0	0.747806072235	166.0	-157.0	164	-164	1
1.7	2015_Jul_21_1605	s	s	3	2	SIC	496	RC	2	0	23VC	1	0	0.630257844925	496.0	-393.0	500	-387	1
1.7	2015_Jul_21_1605	s	s	3	2	SIC	497	ABS	1	1	24MO	0	1	3.35393810272	None	None	None	None	1
1.7	2015_Jul_21_1605	s	s	3	2	SIC	498	RC	1	1	23MO	1	0	1.17163896561	-63.0	-390.0	-51	-383	1
1.7	2015_Jul_21_1605	s	s	3	2	SIC	499	ABS	2	1	24VO	0	1	1.93631601334	None	None	None	None	1
1.7	2015_Jul_21_1605	s	s	3	2	SIC	500	RC	1	2	23MD	1	0	1.06577801704	443.0	-334.0	455	-329	1
1.7	2015_Jul_21_1605	s	s	3	2	SIC	501	RC	0	1	23RO	1	0	1.35294890404	404.0	141.0	405	138	1
1.7	2015_Jul_21_1605	s	s	3	2	SIC	502	ABS	0	2	24RD	0	1	1.90619587898	None	None	None	None	1
1.7	2015_Jul_21_1605	s	s	3	2	SIC	503	ABS	1	2	24MD	0	1	1.36479592323	None	None	None	None	1
1.7	2015_Jul_21_1605	s	s	3	2	SIC	504	RC	2	0	23VC	1	0	0.665469884872	-535.0	-77.0	-536	-74	1
1.7	2015_Jul_21_1605	s	s	3	2	SIC	505	ABS	2	0	24VC	0	1	0.681981086731	None	None	None	None	1
1.7	2015_Jul_21_1605	s	s	3	2	SIC	506	ABS	1	0	24MC	0	1	1.32301688194	None	None	None	None	1
1.7	2015_Jul_21_1605	s	s	3	2	SIC	507	RC	2	2	23VD	1	0	0.90275812149	140.0	9.0	144	6	1
1.7	2015_Jul_21_1605	s	s	3	2	SIC	508	RC	2	1	23VO	1	0	0.500523090363	127.0	-237.0	132	-234	1
1.7	2015_Jul_21_1605	s	s	3	2	SIC	509	ABS	0	1	24RO	0	1	4.19667315483	None	None	None	None	1
1.7	2015_Jul_21_1605	s	s	3	2	SIC	510	ABS	2	2	24VD	0	1	0.674010038376	None	None	None	None	1
1.7	2015_Jul_21_1605	s	s	3	2	SIC	511	RC	0	2	23RD	1	0	0.623187065125	-211.0	36.0	-206	36	1
1.7	2015_Jul_21_1605	s	s	3	2	SIC	512	RC	1	0	23MC	1	0	2.30174684525	437.0	341.0	441	335	1
1.7	2015_Jul_21_1605	s	s	3	2	SIC	513	RC	2	0	23VC	1	0	0.524056911469	-174.0	-46.0	-164	-45	1
1.7	2015_Jul_21_1605	s	s	3	2	SIC	514	RC	0	2	23RD	1	0	0.470116853714	-333.0	-132.0	-337	-135	1
1.7	2015_Jul_21_1605	s	s	3	2	SIC	515	ABS	0	1	24RO	0	1	4.12591910362	None	None	None	None	1
1.7	2015_Jul_21_1605	s	s	3	2	SIC	516	RC	1	2	23MD	1	0	0.547483205795	-399.0	93.0	-397	98	1
1.7	2015_Jul_21_1605	s	s	3	2	SIC	517	ABS	1	2	24MD	0	1	1.00634002686	None	None	None	None	1
1.7	2015_Jul_21_1605	s	s	3	2	SIC	518	ABS	2	2	24VD	0	1	0.552572965622	None	None	None	None	1
1.7	2015_Jul_21_1605	s	s	3	2	SIC	519	RC	2	1	23VO	1	0	0.665228843689	144.0	182.0	147	180	1
1.7	2015_Jul_21_1605	s	s	3	2	SIC	520	ABS	1	1	24MO	0	1	3.24318599701	None	None	None	None	1
1.7	2015_Jul_21_1605	s	s	3	2	SIC	521	RC	1	0	23MC	1	0	1.19557499886	-391.0	-34.0	-389	-38	1
1.7	2015_Jul_21_1605	s	s	3	2	SIC	522	ABS	2	0	24VC	0	1	0.682121992111	None	None	None	None	1
1.7	2015_Jul_21_1605	s	s	3	2	SIC	523	RC	2	2	23VD	1	0	0.599688053131	46.0	-328.0	45	-336	1
1.7	2015_Jul_21_1605	s	s	3	2	SIC	524	ABS	1	0	24MC	0	1	2.20042395592	None	None	None	None	1
1.7	2015_Jul_21_1605	s	s	3	2	SIC	525	ABS	2	1	24VO	0	1	0.547523021698	None	None	None	None	1
1.7	2015_Jul_21_1605	s	s	3	2	SIC	526	RC	0	1	23RO	1	0	3.34222197533	-535.0	146.0	-529	144	1
1.7	2015_Jul_21_1605	s	s	3	2	SIC	527	RC	1	1	23MO	1	0	1.57660198212	-456.0	-353.0	-455	-344	1
1.7	2015_Jul_21_1605	s	s	3	2	SIC	528	ABS	0	2	24RD	0	1	0.980046987534	None	None	None	None	1
1.7	2015_Jul_21_1605	s	s	3	2	SIC	529	ABS	2	2	24VD	0	1	0.658540010452	None	None	None	None	1
1.7	2015_Jul_21_1605	s	s	3	2	SIC	530	RC	2	2	23VD	1	0	0.788414001465	218.0	315.0	219	313	1
1.7	2015_Jul_21_1605	s	s	3	2	SIC	531	ABS	1	1	24MO	0	1	4.87239313126	None	None	None	None	1
1.7	2015_Jul_21_1605	s	s	3	2	SIC	532	ABS	2	1	24VO	0	1	0.630174160004	None	None	None	None	1
1.7	2015_Jul_21_1605	s	s	3	2	SIC	533	ABS	0	1	24RO	0	1	5.66105294228	None	None	None	None	1
1.7	2015_Jul_21_1605	s	s	3	2	SIC	534	ABS	1	2	24MD	0	1	0.924103021622	None	None	None	None	1
1.7	2015_Jul_21_1605	s	s	3	2	SIC	535	RC	1	2	23MD	1	0	0.889657020569	-207.0	7.0	-206	8	1
1.7	2015_Jul_21_1605	s	s	3	2	SIC	536	RC	2	1	23VO	1	0	0.576415061951	-281.0	-25.0	-274	-27	1
1.7	2015_Jul_21_1605	s	s	3	2	SIC	537	RC	0	1	23RO	1	0	2.36190509796	329.0	360.0	325	362	1
1.7	2015_Jul_21_1605	s	s	3	2	SIC	538	ABS	0	2	24RD	0	1	1.10017108917	None	None	None	None	1
1.7	2015_Jul_21_1605	s	s	3	2	SIC	539	RC	0	2	23RD	1	0	2.1014919281	-257.0	-347.0	-266	-344	1
1.7	2015_Jul_21_1605	s	s	3	2	SIC	540	ABS	1	0	24MC	0	1	5.83757400513	None	None	None	None	1
1.7	2015_Jul_21_1605	s	s	3	2	SIC	541	RC	1	1	23MO	1	0	1.10138487816	-439.0	-372.0	-427	-368	1
1.7	2015_Jul_21_1605	s	s	3	2	SIC	542	ABS	2	0	24VC	0	1	0.630183935165	None	None	None	None	1
1.7	2015_Jul_21_1605	s	s	3	2	SIC	543	RC	1	0	23MC	1	0	2.58351683617	-299.0	-371.0	-289	-366	1
1.7	2015_Jul_21_1605	s	s	3	2	SIC	544	RC	2	0	23VC	1	0	0.762026071548	-133.0	327.0	-137	327	1
1.7	2015_Jul_21_1605	s	s	3	2	SIC	545	RC	1	0	23MC	1	0	1.92971205711	144.0	314.0	144	305	1
1.7	2015_Jul_21_1605	s	s	3	2	SIC	546	ABS	2	2	24VD	0	1	0.623192071915	None	None	None	None	1
1.7	2015_Jul_21_1605	s	s	3	2	SIC	547	RC	2	0	23VC	1	0	0.846786975861	424.0	108.0	426	104	1
1.7	2015_Jul_21_1605	s	s	3	2	SIC	548	ABS	1	2	24MD	0	1	1.42042398453	None	None	None	None	1
1.7	2015_Jul_21_1605	s	s	3	2	SIC	549	RC	1	2	23MD	1	0	0.811534881592	409.0	-23.0	417	-18	1
1.7	2015_Jul_21_1605	s	s	3	2	SIC	550	ABS	1	0	24MC	0	1	3.02440690994	None	None	None	None	1
1.7	2015_Jul_21_1605	s	s	3	2	SIC	551	ABS	1	1	24MO	0	1	4.41713190079	None	None	None	None	1
1.7	2015_Jul_21_1605	s	s	3	2	SIC	552	RC	2	1	23VO	1	0	0.827032089233	-432.0	-188.0	-421	-186	1
1.7	2015_Jul_21_1605	s	s	3	2	SIC	553	ABS	2	1	24VO	0	1	2.69483208656	None	None	None	None	1
1.7	2015_Jul_21_1605	s	s	3	2	SIC	554	ABS	2	0	24VC	0	1	0.677765130997	None	None	None	None	1
1.7	2015_Jul_21_1605	s	s	3	2	SIC	555	ABS	0	2	24RD	0	1	0.95263004303	None	None	None	None	1
1.7	2015_Jul_21_1605	s	s	3	2	SIC	556	RC	1	1	23MO	1	0	2.97725391388	276.0	-115.0	276	-110	1
1.7	2015_Jul_21_1605	s	s	3	2	SIC	557	RC	0	1	23RO	0	1	3.02434802055	-5.0	166.0	None	None	0
1.7	2015_Jul_21_1605	s	s	3	2	SIC	558	RC	2	2	23VD	1	0	1.28230881691	146.0	-230.0	142	-225	1
1.7	2015_Jul_21_1605	s	s	3	2	SIC	559	RC	0	2	23RD	1	0	0.606462001801	-403.0	47.0	-397	42	1
1.7	2015_Jul_21_1605	s	s	3	2	SIC	560	ABS	0	1	24RO	0	1	3.09139108658	None	None	None	None	1
1.7	2015_Jul_21_1605	s	s	3	2	SIC	561	ABS	1	1	24MO	0	1	3.43640995026	None	None	None	None	1
1.7	2015_Jul_21_1605	s	s	3	2	SIC	562	ABS	2	0	24VC	0	1	0.70564699173	None	None	None	None	1
1.7	2015_Jul_21_1605	s	s	3	2	SIC	563	RC	2	1	23VO	1	0	0.641721010208	-158.0	270.0	-161	261	1
1.7	2015_Jul_21_1605	s	s	3	2	SIC	564	RC	2	2	23VD	1	0	0.644474029541	-540.0	-337.0	-538	-346	1
1.7	2015_Jul_21_1605	s	s	3	2	SIC	565	ABS	1	2	24MD	0	1	1.15287399292	None	None	None	None	1
1.7	2015_Jul_21_1605	s	s	3	2	SIC	566	ABS	2	1	24VO	0	1	0.693841934204	None	None	None	None	1
1.7	2015_Jul_21_1605	s	s	3	2	SIC	567	ABS	1	0	24MC	0	1	2.41933298111	None	None	None	None	1
1.7	2015_Jul_21_1605	s	s	3	2	SIC	568	RC	1	2	23MD	1	0	0.776232004166	318.0	-231.0	323	-231	1
1.7	2015_Jul_21_1605	s	s	3	2	SIC	569	ABS	0	2	24RD	0	1	1.26569890976	None	None	None	None	1
1.7	2015_Jul_21_1605	s	s	3	2	SIC	570	RC	0	1	23RO	1	0	1.92502212524	366.0	-13.0	373	-8	1
1.7	2015_Jul_21_1605	s	s	3	2	SIC	571	ABS	2	2	24VD	0	1	0.620712995529	None	None	None	None	1
1.7	2015_Jul_21_1605	s	s	3	2	SIC	572	RC	1	1	23MO	1	0	2.27110290527	-391.0	259.0	-399	253	1
1.7	2015_Jul_21_1605	s	s	3	2	SIC	573	RC	2	0	23VC	0	1	0.56431889534	439.0	395.0	None	None	0
1.7	2015_Jul_21_1605	s	s	3	2	SIC	574	RC	0	2	23RD	1	0	1.48249602318	420.0	322.0	413	318	1
1.7	2015_Jul_21_1605	s	s	3	2	SIC	575	ABS	0	1	24RO	0	1	3.41280198097	None	None	None	None	1
1.7	2015_Jul_21_1605	s	s	3	2	SIC	576	RC	1	0	23MC	1	0	2.53700208664	-130.0	-314.0	-128	-316	1
1.7	2015_Jul_21_1605	s	s	3	2	SIC	577	ABS	1	0	24MC	0	1	2.48292708397	None	None	None	None	1
1.7	2015_Jul_21_1605	s	s	3	2	SIC	578	ABS	2	2	24VD	0	1	0.611397027969	None	None	None	None	1
1.7	2015_Jul_21_1605	s	s	3	2	SIC	579	ABS	1	1	24MO	0	1	2.91605496407	None	None	None	None	1
1.7	2015_Jul_21_1605	s	s	3	2	SIC	580	RC	1	0	23MC	1	0	3.72565484047	387.0	127.0	384	124	1
1.7	2015_Jul_21_1605	s	s	3	2	SIC	581	RC	0	1	23RO	0	1	2.61935782433	-267.0	329.0	None	None	0
1.7	2015_Jul_21_1605	s	s	3	2	SIC	582	RC	2	2	23VD	1	0	1.47063803673	348.0	259.0	342	260	1
1.7	2015_Jul_21_1605	s	s	3	2	SIC	583	ABS	0	1	24RO	0	1	3.19845199585	None	None	None	None	1
1.7	2015_Jul_21_1605	s	s	3	2	SIC	584	RC	1	2	23MD	1	0	0.764335870743	-271.0	-154.0	-262	-151	1
1.7	2015_Jul_21_1605	s	s	3	2	SIC	585	ABS	2	1	24VO	0	1	0.740911006927	None	None	None	None	1
1.7	2015_Jul_21_1605	s	s	3	2	SIC	586	RC	0	2	23RD	1	0	1.01796913147	-336.0	397.0	-336	390	1
1.7	2015_Jul_21_1605	s	s	3	2	SIC	587	RC	2	1	23VO	1	0	0.498965978622	-174.0	-22.0	-174	-30	1
1.7	2015_Jul_21_1605	s	s	3	2	SIC	588	ABS	1	2	24MD	0	1	1.0652589798	None	None	None	None	1
1.7	2015_Jul_21_1605	s	s	3	2	SIC	589	RC	1	1	23MO	1	0	1.314453125	307.0	-385.0	298	-386	1
1.7	2015_Jul_21_1605	s	s	3	2	SIC	590	ABS	2	0	24VC	0	1	0.729089975357	None	None	None	None	1
1.7	2015_Jul_21_1605	s	s	3	2	SIC	591	ABS	0	2	24RD	0	1	1.01839280128	None	None	None	None	1
1.7	2015_Jul_21_1605	s	s	3	2	SIC	592	RC	2	0	23VC	1	0	0.929254055023	-148.0	328.0	-140	330	1
