Version	Date	Stimuli	Method	Subject	Session	Condition	Trial	Target	Channel1	Channel2	Distractors	LMouseButton	RMouseButton	RT	TargetX	TargetY	ResponseX	ResponseY	Correct
1.7	2015_Jul_22_1101	s	s	4	3	Capacity	1	RC	1	0	23MC	1	0	1.44441509247	180.0	269.0	187	264	1
1.7	2015_Jul_22_1101	s	s	4	3	Capacity	2	ABS	2	0	24VC	0	1	0.818964958191	None	None	None	None	1
1.7	2015_Jul_22_1101	s	s	4	3	Capacity	3	ABS	1	0	24MC	0	1	1.33710885048	None	None	None	None	1
1.7	2015_Jul_22_1101	s	s	4	3	Capacity	4	RC	2	0	23VC	1	0	2.09841585159	-511.0	273.0	-501	274	1
1.7	2015_Jul_22_1101	s	s	4	3	Capacity	5	ABS	1	0	24MC	0	1	1.88892912865	None	None	None	None	1
1.7	2015_Jul_22_1101	s	s	4	3	Capacity	6	ABS	2	0	24VC	0	1	1.29426598549	None	None	None	None	1
1.7	2015_Jul_22_1101	s	s	4	3	Capacity	7	RC	1	0	23MC	1	0	0.77126789093	-322.0	132.0	-318	132	1
1.7	2015_Jul_22_1101	s	s	4	3	Capacity	8	RC	2	0	23VC	1	0	0.493715047836	-119.0	356.0	-110	364	1
1.7	2015_Jul_22_1101	s	s	4	3	Capacity	9	ABS	2	0	24VC	0	1	0.693841934204	None	None	None	None	1
1.7	2015_Jul_22_1101	s	s	4	3	Capacity	10	ABS	1	0	24MC	0	1	1.25871396065	None	None	None	None	1
1.7	2015_Jul_22_1101	s	s	4	3	Capacity	11	RC	2	0	23VC	1	0	0.490451812744	275.0	-224.0	271	-218	1
1.7	2015_Jul_22_1101	s	s	4	3	Capacity	12	RC	1	0	23MC	1	0	0.796586036682	249.0	344.0	238	352	1
1.7	2015_Jul_22_1101	s	s	4	3	Capacity	13	RC	2	0	23VC	1	0	0.45278096199	537.0	127.0	537	127	1
1.7	2015_Jul_22_1101	s	s	4	3	Capacity	14	ABS	2	0	24VC	0	1	0.773964166641	None	None	None	None	1
1.7	2015_Jul_22_1101	s	s	4	3	Capacity	15	ABS	1	0	24MC	0	1	1.50321602821	None	None	None	None	1
1.7	2015_Jul_22_1101	s	s	4	3	Capacity	16	RC	1	0	23MC	1	0	0.527014970779	87.0	-35.0	81	-28	1
1.7	2015_Jul_22_1101	s	s	4	3	Capacity	17	ABS	2	0	24VC	0	1	1.04489302635	None	None	None	None	1
1.7	2015_Jul_22_1101	s	s	4	3	Capacity	18	RC	1	0	23MC	1	0	0.693674087524	341.0	-67.0	350	-66	1
1.7	2015_Jul_22_1101	s	s	4	3	Capacity	19	ABS	1	0	24MC	0	1	1.52981305122	None	None	None	None	1
1.7	2015_Jul_22_1101	s	s	4	3	Capacity	20	RC	2	0	23VC	1	0	0.717344999313	24.0	267.0	15	271	1
1.7	2015_Jul_22_1101	s	s	4	3	Capacity	21	RC	2	0	23VC	0	1	1.15285086632	270.0	18.0	None	None	0
1.7	2015_Jul_22_1101	s	s	4	3	Capacity	22	ABS	2	0	24VC	0	1	0.820999145508	None	None	None	None	1
1.7	2015_Jul_22_1101	s	s	4	3	Capacity	23	ABS	1	0	24MC	0	1	1.3648250103	None	None	None	None	1
1.7	2015_Jul_22_1101	s	s	4	3	Capacity	24	RC	1	0	23MC	1	0	1.36482095718	-323.0	-207.0	-321	-207	1
1.7	2015_Jul_22_1101	s	s	4	3	Capacity	25	ABS	1	0	24MC	0	1	1.68910312653	None	None	None	None	1
1.7	2015_Jul_22_1101	s	s	4	3	Capacity	26	RC	2	0	23VC	1	0	0.536993026733	20.0	20.0	25	17	1
1.7	2015_Jul_22_1101	s	s	4	3	Capacity	27	RC	1	0	23MC	1	0	1.97307491302	-301.0	161.0	-292	159	1
1.7	2015_Jul_22_1101	s	s	4	3	Capacity	28	ABS	2	0	24VC	0	1	0.662370920181	None	None	None	None	1
1.7	2015_Jul_22_1101	s	s	4	3	Capacity	29	RC	1	0	23MC	1	0	0.734521150589	-448.0	-64.0	-455	-60	1
1.7	2015_Jul_22_1101	s	s	4	3	Capacity	30	ABS	2	0	24VC	0	1	0.561960935593	None	None	None	None	1
1.7	2015_Jul_22_1101	s	s	4	3	Capacity	31	ABS	1	0	24MC	0	1	1.53696298599	None	None	None	None	1
1.7	2015_Jul_22_1101	s	s	4	3	Capacity	32	RC	2	0	23VC	1	0	0.535429954529	133.0	-370.0	134	-367	1
1.7	2015_Jul_22_1101	s	s	4	3	Capacity	33	ABS	2	0	24VC	0	1	1.1964430809	None	None	None	None	1
1.7	2015_Jul_22_1101	s	s	4	3	Capacity	34	RC	2	0	23VC	1	0	0.564414978027	-49.0	164.0	-55	165	1
1.7	2015_Jul_22_1101	s	s	4	3	Capacity	35	ABS	1	0	24MC	0	1	1.79626703262	None	None	None	None	1
1.7	2015_Jul_22_1101	s	s	4	3	Capacity	36	RC	1	0	23MC	1	0	0.961598157883	15.0	-297.0	20	-294	1
1.7	2015_Jul_22_1101	s	s	4	3	Capacity	37	RC	1	0	23MC	1	0	0.512407064438	-436.0	-17.0	-443	-19	1
1.7	2015_Jul_22_1101	s	s	4	3	Capacity	38	ABS	1	0	24MC	0	1	3.93750095367	None	None	None	None	1
1.7	2015_Jul_22_1101	s	s	4	3	Capacity	39	RC	2	0	23VC	1	0	0.620929002762	-8.0	97.0	-11	98	1
1.7	2015_Jul_22_1101	s	s	4	3	Capacity	40	ABS	2	0	24VC	0	1	0.921937942505	None	None	None	None	1
1.7	2015_Jul_22_1101	s	s	4	3	Capacity	41	RC	2	0	23VC	1	0	0.807235002518	-178.0	-86.0	-180	-81	1
1.7	2015_Jul_22_1101	s	s	4	3	Capacity	42	RC	1	0	23MC	1	0	0.674132108688	-471.0	-50.0	-465	-55	1
1.7	2015_Jul_22_1101	s	s	4	3	Capacity	43	ABS	2	0	24VC	0	1	0.630249977112	None	None	None	None	1
1.7	2015_Jul_22_1101	s	s	4	3	Capacity	44	ABS	1	0	24MC	0	1	1.39446806908	None	None	None	None	1
1.7	2015_Jul_22_1101	s	s	4	3	Capacity	45	ABS	1	0	24MC	0	1	1.70631408691	None	None	None	None	1
1.7	2015_Jul_22_1101	s	s	4	3	Capacity	46	RC	1	0	23MC	1	0	0.560573816299	189.0	-203.0	184	-196	1
1.7	2015_Jul_22_1101	s	s	4	3	Capacity	47	ABS	2	0	24VC	0	1	0.665657043457	None	None	None	None	1
1.7	2015_Jul_22_1101	s	s	4	3	Capacity	48	RC	2	0	23VC	1	0	0.423070907593	187.0	206.0	195	210	1
1.7	2015_Jul_22_1101	s	s	4	3	Capacity	49	RC	2	0	23VC	1	0	0.48904299736	1.0	128.0	10	125	1
1.7	2015_Jul_22_1101	s	s	4	3	Capacity	50	RC	1	0	23MC	1	0	0.529071092606	-287.0	-100.0	-288	-100	1
1.7	2015_Jul_22_1101	s	s	4	3	Capacity	51	ABS	1	0	24MC	0	1	1.14112401009	None	None	None	None	1
1.7	2015_Jul_22_1101	s	s	4	3	Capacity	52	ABS	2	0	24VC	0	1	0.658576965332	None	None	None	None	1
1.7	2015_Jul_22_1101	s	s	4	3	Capacity	53	ABS	1	0	24MC	0	1	1.36097788811	None	None	None	None	1
1.7	2015_Jul_22_1101	s	s	4	3	Capacity	54	RC	2	0	23VC	1	0	0.540822982788	-144.0	-374.0	-132	-373	1
1.7	2015_Jul_22_1101	s	s	4	3	Capacity	55	RC	1	0	23MC	1	0	0.693787097931	-191.0	-147.0	-192	-146	1
1.7	2015_Jul_22_1101	s	s	4	3	Capacity	56	ABS	2	0	24VC	0	1	0.658537149429	None	None	None	None	1
1.7	2015_Jul_22_1101	s	s	4	3	Capacity	57	RC	1	0	23MC	1	0	0.594929933548	-73.0	-197.0	-76	-188	1
1.7	2015_Jul_22_1101	s	s	4	3	Capacity	58	ABS	1	0	24MC	1	0	1.08231687546	None	None	107	-45	0
1.7	2015_Jul_22_1101	s	s	4	3	Capacity	59	RC	2	0	23VC	1	0	0.453464984894	-238.0	-143.0	-230	-137	1
1.7	2015_Jul_22_1101	s	s	4	3	Capacity	60	ABS	2	0	24VC	0	1	0.697698116302	None	None	None	None	1
1.7	2015_Jul_22_1101	s	s	4	3	Capacity	61	ABS	1	0	24MC	0	1	1.78839087486	None	None	None	None	1
1.7	2015_Jul_22_1101	s	s	4	3	Capacity	62	RC	1	0	23MC	1	0	0.858741998672	-119.0	-160.0	-124	-153	1
1.7	2015_Jul_22_1101	s	s	4	3	Capacity	63	RC	2	0	23VC	1	0	0.417866945267	-417.0	-361.0	-411	-360	1
1.7	2015_Jul_22_1101	s	s	4	3	Capacity	64	ABS	2	0	24VC	0	1	0.620476007462	None	None	None	None	1
1.7	2015_Jul_22_1101	s	s	4	3	Capacity	65	RC	1	0	23MC	1	0	0.717360973358	395.0	-147.0	396	-160	1
1.7	2015_Jul_22_1101	s	s	4	3	Capacity	66	RC	2	0	23VC	1	0	0.418683052063	317.0	-54.0	325	-58	1
1.7	2015_Jul_22_1101	s	s	4	3	Capacity	67	ABS	1	0	24MC	0	1	1.5411529541	None	None	None	None	1
1.7	2015_Jul_22_1101	s	s	4	3	Capacity	68	ABS	2	0	24VC	0	1	0.806208133698	None	None	None	None	1
1.7	2015_Jul_22_1101	s	s	4	3	Capacity	69	RC	1	0	23MC	1	0	0.76190495491	-358.0	-336.0	-359	-329	1
1.7	2015_Jul_22_1101	s	s	4	3	Capacity	70	ABS	1	0	24MC	0	1	1.03052186966	None	None	None	None	1
1.7	2015_Jul_22_1101	s	s	4	3	Capacity	71	ABS	2	0	24VC	0	1	0.740828990936	None	None	None	None	1
1.7	2015_Jul_22_1101	s	s	4	3	Capacity	72	RC	2	0	23VC	1	0	0.682132005692	-171.0	182.0	-179	177	1
1.7	2015_Jul_22_1101	s	s	4	3	Capacity	73	ABS	1	0	24MC	0	1	1.92435503006	None	None	None	None	1
1.7	2015_Jul_22_1101	s	s	4	3	Capacity	74	RC	2	0	23VC	1	0	0.505526065826	-339.0	-202.0	-349	-204	1
1.7	2015_Jul_22_1101	s	s	4	3	Capacity	75	RC	1	0	23MC	1	0	0.741031885147	-504.0	342.0	-504	349	1
1.7	2015_Jul_22_1101	s	s	4	3	Capacity	76	ABS	2	0	24VC	0	1	0.658529996872	None	None	None	None	1
1.7	2015_Jul_22_1101	s	s	4	3	Capacity	77	RC	2	0	23VC	1	0	0.491517066956	-157.0	-294.0	-154	-298	1
1.7	2015_Jul_22_1101	s	s	4	3	Capacity	78	RC	1	0	23MC	1	0	0.664425134659	-431.0	157.0	-424	155	1
1.7	2015_Jul_22_1101	s	s	4	3	Capacity	79	ABS	1	0	24MC	0	1	1.6356317997	None	None	None	None	1
1.7	2015_Jul_22_1101	s	s	4	3	Capacity	80	ABS	2	0	24VC	0	1	0.927311897278	None	None	None	None	1
1.7	2015_Jul_22_1101	s	s	4	3	Capacity	81	ABS	1	0	24MC	0	1	1.6893889904	None	None	None	None	1
1.7	2015_Jul_22_1101	s	s	4	3	Capacity	82	RC	2	0	23VC	1	0	0.623162031174	-347.0	-150.0	-351	-143	1
1.7	2015_Jul_22_1101	s	s	4	3	Capacity	83	RC	1	0	23MC	1	0	0.811487913132	86.0	-395.0	86	-394	1
1.7	2015_Jul_22_1101	s	s	4	3	Capacity	84	ABS	2	0	24VC	0	1	1.10584211349	None	None	None	None	1
1.7	2015_Jul_22_1101	s	s	4	3	Capacity	85	ABS	1	0	24MC	0	1	2.1713321209	None	None	None	None	1
1.7	2015_Jul_22_1101	s	s	4	3	Capacity	86	RC	2	0	23VC	1	0	0.491709947586	-477.0	103.0	-465	105	1
1.7	2015_Jul_22_1101	s	s	4	3	Capacity	87	RC	1	0	23MC	1	0	0.835129976273	-528.0	-257.0	-518	-257	1
1.7	2015_Jul_22_1101	s	s	4	3	Capacity	88	ABS	2	0	24VC	0	1	0.482350111008	None	None	None	None	1
1.7	2015_Jul_22_1101	s	s	4	3	Capacity	89	RC	1	0	23MC	1	0	0.799671888351	-500.0	-244.0	-515	-235	1
1.7	2015_Jul_22_1101	s	s	4	3	Capacity	90	ABS	1	0	24MC	0	1	1.10344815254	None	None	None	None	1
1.7	2015_Jul_22_1101	s	s	4	3	Capacity	91	ABS	2	0	24VC	0	1	0.820828199387	None	None	None	None	1
1.7	2015_Jul_22_1101	s	s	4	3	Capacity	92	RC	2	0	23VC	1	0	0.500427007675	-311.0	-288.0	-317	-290	1
1.7	2015_Jul_22_1101	s	s	4	3	Capacity	1	ABS	0	1	24RO	0	1	3.11865401268	None	None	None	None	1
1.7	2015_Jul_22_1101	s	s	4	3	Capacity	2	ABS	0	2	24RD	0	1	0.799755096436	None	None	None	None	1
1.7	2015_Jul_22_1101	s	s	4	3	Capacity	3	RC	0	1	23RO	0	1	3.23642301559	-306.0	404.0	None	None	0
1.7	2015_Jul_22_1101	s	s	4	3	Capacity	4	RC	0	2	23RD	1	0	1.0210340023	-245.0	407.0	-253	409	1
1.7	2015_Jul_22_1101	s	s	4	3	Capacity	5	RC	0	2	23RD	1	0	0.576142072678	-17.0	-8.0	-21	-4	1
1.7	2015_Jul_22_1101	s	s	4	3	Capacity	6	ABS	0	1	24RO	0	1	4.06032919884	None	None	None	None	1
1.7	2015_Jul_22_1101	s	s	4	3	Capacity	7	ABS	0	2	24RD	0	1	0.877460956573	None	None	None	None	1
1.7	2015_Jul_22_1101	s	s	4	3	Capacity	8	RC	0	1	23RO	1	0	0.77129483223	-20.0	-63.0	-8	-56	1
1.7	2015_Jul_22_1101	s	s	4	3	Capacity	9	RC	0	1	23RO	0	1	2.84795808792	467.0	-112.0	None	None	0
1.7	2015_Jul_22_1101	s	s	4	3	Capacity	10	ABS	0	1	24RO	0	1	1.84487009048	None	None	None	None	1
1.7	2015_Jul_22_1101	s	s	4	3	Capacity	11	ABS	0	2	24RD	0	1	0.811388015747	None	None	None	None	1
1.7	2015_Jul_22_1101	s	s	4	3	Capacity	12	RC	0	2	23RD	1	0	1.13864588737	478.0	378.0	473	387	1
1.7	2015_Jul_22_1101	s	s	4	3	Capacity	13	ABS	0	2	24RD	0	1	0.976396799088	None	None	None	None	1
1.7	2015_Jul_22_1101	s	s	4	3	Capacity	14	ABS	0	1	24RO	0	1	3.61293101311	None	None	None	None	1
1.7	2015_Jul_22_1101	s	s	4	3	Capacity	15	RC	0	2	23RD	1	0	0.828903913498	331.0	249.0	329	251	1
1.7	2015_Jul_22_1101	s	s	4	3	Capacity	16	RC	0	1	23RO	0	1	3.92604088783	166.0	-37.0	None	None	0
1.7	2015_Jul_22_1101	s	s	4	3	Capacity	17	ABS	0	1	24RO	0	1	3.30735707283	None	None	None	None	1
1.7	2015_Jul_22_1101	s	s	4	3	Capacity	18	RC	0	1	23RO	1	0	2.49200105667	408.0	-122.0	402	-115	1
1.7	2015_Jul_22_1101	s	s	4	3	Capacity	19	RC	0	2	23RD	1	0	1.14955806732	342.0	-185.0	343	-176	1
1.7	2015_Jul_22_1101	s	s	4	3	Capacity	20	ABS	0	2	24RD	0	1	2.21223092079	None	None	None	None	1
1.7	2015_Jul_22_1101	s	s	4	3	Capacity	21	RC	0	2	23RD	1	0	0.561452150345	138.0	-151.0	141	-151	1
1.7	2015_Jul_22_1101	s	s	4	3	Capacity	22	ABS	0	2	24RD	0	1	0.949723958969	None	None	None	None	1
1.7	2015_Jul_22_1101	s	s	4	3	Capacity	23	RC	0	1	23RO	1	0	1.17449498177	-206.0	27.0	-208	25	1
1.7	2015_Jul_22_1101	s	s	4	3	Capacity	24	ABS	0	1	24RO	0	1	3.14210391045	None	None	None	None	1
1.7	2015_Jul_22_1101	s	s	4	3	Capacity	25	ABS	0	2	24RD	0	1	0.65297293663	None	None	None	None	1
1.7	2015_Jul_22_1101	s	s	4	3	Capacity	26	RC	0	2	23RD	1	0	0.611515045166	-156.0	-287.0	-162	-287	1
1.7	2015_Jul_22_1101	s	s	4	3	Capacity	27	RC	0	1	23RO	1	0	0.929248809814	144.0	-54.0	155	-52	1
1.7	2015_Jul_22_1101	s	s	4	3	Capacity	28	ABS	0	1	24RO	0	1	3.8080728054	None	None	None	None	1
1.7	2015_Jul_22_1101	s	s	4	3	Capacity	29	RC	0	1	23RO	1	0	3.31613397598	401.0	-223.0	398	-219	1
1.7	2015_Jul_22_1101	s	s	4	3	Capacity	30	ABS	0	2	24RD	0	1	1.1528711319	None	None	None	None	1
1.7	2015_Jul_22_1101	s	s	4	3	Capacity	31	RC	0	2	23RD	1	0	0.77626991272	273.0	1.0	280	5	1
1.7	2015_Jul_22_1101	s	s	4	3	Capacity	32	ABS	0	1	24RO	0	1	3.83655309677	None	None	None	None	1
1.7	2015_Jul_22_1101	s	s	4	3	Capacity	33	RC	0	2	23RD	1	0	0.575930833817	-126.0	-239.0	-122	-231	1
1.7	2015_Jul_22_1101	s	s	4	3	Capacity	34	ABS	0	1	24RO	0	1	3.08097100258	None	None	None	None	1
1.7	2015_Jul_22_1101	s	s	4	3	Capacity	35	ABS	0	2	24RD	0	1	0.973748922348	None	None	None	None	1
1.7	2015_Jul_22_1101	s	s	4	3	Capacity	36	RC	0	1	23RO	1	0	2.64501094818	233.0	-42.0	231	-39	1
1.7	2015_Jul_22_1101	s	s	4	3	Capacity	37	RC	0	1	23RO	1	0	1.0469520092	163.0	44.0	150	51	1
1.7	2015_Jul_22_1101	s	s	4	3	Capacity	38	ABS	0	2	24RD	0	1	0.844373941422	None	None	None	None	1
1.7	2015_Jul_22_1101	s	s	4	3	Capacity	39	RC	0	2	23RD	1	0	0.56442284584	-251.0	72.0	-248	70	1
1.7	2015_Jul_22_1101	s	s	4	3	Capacity	40	ABS	0	1	24RO	0	1	3.5046620369	None	None	None	None	1
1.7	2015_Jul_22_1101	s	s	4	3	Capacity	41	RC	0	1	23RO	1	0	2.14574885368	-91.0	182.0	-90	191	1
1.7	2015_Jul_22_1101	s	s	4	3	Capacity	42	ABS	0	2	24RD	0	1	1.00604891777	None	None	None	None	1
1.7	2015_Jul_22_1101	s	s	4	3	Capacity	43	ABS	0	1	24RO	0	1	4.06611013412	None	None	None	None	1
1.7	2015_Jul_22_1101	s	s	4	3	Capacity	44	RC	0	2	23RD	1	0	0.658525943756	471.0	19.0	463	17	1
1.7	2015_Jul_22_1101	s	s	4	3	Capacity	45	RC	0	2	23RD	1	0	0.54080414772	-7.0	310.0	-6	306	1
1.7	2015_Jul_22_1101	s	s	4	3	Capacity	46	ABS	0	2	24RD	0	1	1.24187994003	None	None	None	None	1
1.7	2015_Jul_22_1101	s	s	4	3	Capacity	47	RC	0	1	23RO	1	0	1.32567596436	-161.0	251.0	-155	259	1
1.7	2015_Jul_22_1101	s	s	4	3	Capacity	48	ABS	0	1	24RO	0	1	4.50519800186	None	None	None	None	1
1.7	2015_Jul_22_1101	s	s	4	3	Capacity	49	ABS	0	1	24RO	0	1	2.76315379143	None	None	None	None	1
1.7	2015_Jul_22_1101	s	s	4	3	Capacity	50	RC	0	1	23RO	0	1	3.05752205849	524.0	-407.0	None	None	0
1.7	2015_Jul_22_1101	s	s	4	3	Capacity	51	ABS	0	2	24RD	0	1	0.693803071976	None	None	None	None	1
1.7	2015_Jul_22_1101	s	s	4	3	Capacity	52	RC	0	2	23RD	1	0	0.623206853867	-356.0	117.0	-353	119	1
1.7	2015_Jul_22_1101	s	s	4	3	Capacity	53	RC	0	1	23RO	1	0	2.55886101723	364.0	390.0	357	384	1
1.7	2015_Jul_22_1101	s	s	4	3	Capacity	54	RC	0	2	23RD	1	0	0.653290987015	460.0	168.0	465	164	1
1.7	2015_Jul_22_1101	s	s	4	3	Capacity	55	ABS	0	1	24RO	0	1	5.22548699379	None	None	None	None	1
1.7	2015_Jul_22_1101	s	s	4	3	Capacity	56	ABS	0	2	24RD	0	1	0.681952953339	None	None	None	None	1
1.7	2015_Jul_22_1101	s	s	4	3	Capacity	57	RC	0	2	23RD	1	0	1.02329206467	370.0	-101.0	366	-100	1
1.7	2015_Jul_22_1101	s	s	4	3	Capacity	58	RC	0	1	23RO	1	0	2.00975704193	-430.0	217.0	-427	217	1
1.7	2015_Jul_22_1101	s	s	4	3	Capacity	59	ABS	0	1	24RO	0	1	3.31480693817	None	None	None	None	1
1.7	2015_Jul_22_1101	s	s	4	3	Capacity	60	ABS	0	2	24RD	0	1	0.770183086395	None	None	None	None	1
1.7	2015_Jul_22_1101	s	s	4	3	Capacity	61	ABS	0	1	24RO	0	1	3.69916892052	None	None	None	None	1
1.7	2015_Jul_22_1101	s	s	4	3	Capacity	62	ABS	0	2	24RD	0	1	0.588371992111	None	None	None	None	1
1.7	2015_Jul_22_1101	s	s	4	3	Capacity	63	RC	0	1	23RO	1	0	1.11762285233	-359.0	305.0	-364	295	1
1.7	2015_Jul_22_1101	s	s	4	3	Capacity	64	RC	0	2	23RD	1	0	0.528895139694	-472.0	-143.0	-467	-140	1
1.7	2015_Jul_22_1101	s	s	4	3	Capacity	65	ABS	0	2	24RD	0	1	1.03899478912	None	None	None	None	1
1.7	2015_Jul_22_1101	s	s	4	3	Capacity	66	RC	0	1	23RO	1	0	1.67799782753	311.0	7.0	306	16	1
1.7	2015_Jul_22_1101	s	s	4	3	Capacity	67	RC	0	2	23RD	1	0	0.608986139297	477.0	-190.0	483	-183	1
1.7	2015_Jul_22_1101	s	s	4	3	Capacity	68	ABS	0	1	24RO	0	1	4.49567198753	None	None	None	None	1
1.7	2015_Jul_22_1101	s	s	4	3	Capacity	69	ABS	0	1	24RO	0	1	3.41288018227	None	None	None	None	1
1.7	2015_Jul_22_1101	s	s	4	3	Capacity	70	RC	0	2	23RD	1	0	0.711798906326	-433.0	-273.0	-437	-285	1
1.7	2015_Jul_22_1101	s	s	4	3	Capacity	71	ABS	0	2	24RD	0	1	0.634917020798	None	None	None	None	1
1.7	2015_Jul_22_1101	s	s	4	3	Capacity	72	RC	0	1	23RO	1	0	1.05349802971	225.0	174.0	232	171	1
1.7	2015_Jul_22_1101	s	s	4	3	Capacity	73	ABS	0	1	24RO	0	1	3.01922893524	None	None	None	None	1
1.7	2015_Jul_22_1101	s	s	4	3	Capacity	74	RC	0	1	23RO	1	0	3.03604388237	-465.0	-11.0	-458	-8	1
1.7	2015_Jul_22_1101	s	s	4	3	Capacity	75	ABS	0	2	24RD	0	1	0.959657907486	None	None	None	None	1
1.7	2015_Jul_22_1101	s	s	4	3	Capacity	76	RC	0	2	23RD	1	0	0.552575111389	-527.0	313.0	-538	314	1
1.7	2015_Jul_22_1101	s	s	4	3	Capacity	77	RC	0	2	23RD	1	0	0.540786981583	-389.0	-246.0	-388	-249	1
1.7	2015_Jul_22_1101	s	s	4	3	Capacity	78	ABS	0	2	24RD	0	1	0.870427846909	None	None	None	None	1
1.7	2015_Jul_22_1101	s	s	4	3	Capacity	79	RC	0	1	23RO	1	0	1.25491094589	-201.0	-217.0	-190	-217	1
1.7	2015_Jul_22_1101	s	s	4	3	Capacity	80	ABS	0	1	24RO	0	1	3.58671307564	None	None	None	None	1
1.7	2015_Jul_22_1101	s	s	4	3	Capacity	81	RC	0	2	23RD	1	0	0.517100811005	197.0	-182.0	197	-183	1
1.7	2015_Jul_22_1101	s	s	4	3	Capacity	82	ABS	0	2	24RD	0	1	1.37651205063	None	None	None	None	1
1.7	2015_Jul_22_1101	s	s	4	3	Capacity	83	ABS	0	1	24RO	0	1	5.40212011337	None	None	None	None	1
1.7	2015_Jul_22_1101	s	s	4	3	Capacity	84	RC	0	1	23RO	1	0	1.00852584839	-88.0	181.0	-90	176	1
1.7	2015_Jul_22_1101	s	s	4	3	Capacity	85	RC	0	1	23RO	1	0	2.49009203911	226.0	370.0	230	374	1
1.7	2015_Jul_22_1101	s	s	4	3	Capacity	86	ABS	0	1	24RO	0	1	3.26824092865	None	None	None	None	1
1.7	2015_Jul_22_1101	s	s	4	3	Capacity	87	ABS	0	2	24RD	0	1	0.901591062546	None	None	None	None	1
1.7	2015_Jul_22_1101	s	s	4	3	Capacity	88	RC	0	2	23RD	1	0	0.52622294426	-379.0	330.0	-371	326	1
1.7	2015_Jul_22_1101	s	s	4	3	Capacity	89	RC	0	2	23RD	1	0	0.501157045364	218.0	-219.0	214	-221	1
1.7	2015_Jul_22_1101	s	s	4	3	Capacity	90	ABS	0	1	24RO	0	1	3.67183899879	None	None	None	None	1
1.7	2015_Jul_22_1101	s	s	4	3	Capacity	91	ABS	0	2	24RD	0	1	1.80442500114	None	None	None	None	1
1.7	2015_Jul_22_1101	s	s	4	3	Capacity	92	RC	0	1	23RO	1	0	0.865365028381	15.0	142.0	11	146	1
1.7	2015_Jul_22_1101	s	s	4	3	SIC	1	ABS	1	0	24MC	0	1	1.34170198441	None	None	None	None	1
1.7	2015_Jul_22_1101	s	s	4	3	SIC	2	ABS	0	2	24RD	0	1	0.905655145645	None	None	None	None	1
1.7	2015_Jul_22_1101	s	s	4	3	SIC	3	RC	2	1	23VO	0	1	0.0536518096924	465.0	-273.0	None	None	0
1.7	2015_Jul_22_1101	s	s	4	3	SIC	4	RC	1	0	23MC	1	0	0.629372835159	158.0	16.0	149	20	1
1.7	2015_Jul_22_1101	s	s	4	3	SIC	5	RC	2	0	23VC	1	0	0.502482891083	389.0	-246.0	387	-245	1
1.7	2015_Jul_22_1101	s	s	4	3	SIC	6	ABS	1	2	24MD	0	1	0.606210947037	None	None	None	None	1
1.7	2015_Jul_22_1101	s	s	4	3	SIC	7	RC	0	1	23RO	1	0	2.81250596046	-123.0	-296.0	-132	-299	1
1.7	2015_Jul_22_1101	s	s	4	3	SIC	8	RC	2	2	23VD	1	0	1.38619685173	371.0	13.0	372	14	1
1.7	2015_Jul_22_1101	s	s	4	3	SIC	9	ABS	2	2	24VD	0	1	0.976268053055	None	None	None	None	1
1.7	2015_Jul_22_1101	s	s	4	3	SIC	10	ABS	2	1	24VO	1	0	0.0521957874298	None	None	455	-181	0
1.7	2015_Jul_22_1101	s	s	4	3	SIC	11	RC	0	2	23RD	1	0	0.476468086243	81.0	49.0	78	54	1
1.7	2015_Jul_22_1101	s	s	4	3	SIC	12	ABS	2	0	24VC	0	1	1.85367298126	None	None	None	None	1
1.7	2015_Jul_22_1101	s	s	4	3	SIC	13	RC	1	2	23MD	1	0	0.599682092667	-510.0	194.0	-520	201	1
1.7	2015_Jul_22_1101	s	s	4	3	SIC	14	ABS	0	1	24RO	0	1	4.16138911247	None	None	None	None	1
1.7	2015_Jul_22_1101	s	s	4	3	SIC	15	RC	1	1	23MO	1	0	1.27814102173	339.0	370.0	343	379	1
1.7	2015_Jul_22_1101	s	s	4	3	SIC	16	ABS	1	1	24MO	0	1	1.76263022423	None	None	None	None	1
1.7	2015_Jul_22_1101	s	s	4	3	SIC	17	ABS	1	1	24MO	0	1	1.74819493294	None	None	None	None	1
1.7	2015_Jul_22_1101	s	s	4	3	SIC	18	ABS	1	0	24MC	0	1	1.33730602264	None	None	None	None	1
1.7	2015_Jul_22_1101	s	s	4	3	SIC	19	ABS	1	2	24MD	0	1	0.835129976273	None	None	None	None	1
1.7	2015_Jul_22_1101	s	s	4	3	SIC	20	ABS	0	1	24RO	0	1	4.63143801689	None	None	None	None	1
1.7	2015_Jul_22_1101	s	s	4	3	SIC	21	ABS	2	1	24VO	0	1	0.741014003754	None	None	None	None	1
1.7	2015_Jul_22_1101	s	s	4	3	SIC	22	RC	1	0	23MC	1	0	0.582639932632	95.0	75.0	85	78	1
1.7	2015_Jul_22_1101	s	s	4	3	SIC	23	ABS	2	0	24VC	0	1	0.92697095871	None	None	None	None	1
1.7	2015_Jul_22_1101	s	s	4	3	SIC	24	RC	0	1	23RO	1	0	2.54167699814	-411.0	-161.0	-407	-152	1
1.7	2015_Jul_22_1101	s	s	4	3	SIC	25	RC	2	2	23VD	1	0	0.490733861923	-58.0	-135.0	-61	-136	1
1.7	2015_Jul_22_1101	s	s	4	3	SIC	26	RC	0	2	23RD	1	0	1.67667293549	280.0	-228.0	282	-235	1
1.7	2015_Jul_22_1101	s	s	4	3	SIC	27	RC	2	1	23VO	1	0	1.60026311874	-94.0	407.0	-94	406	1
1.7	2015_Jul_22_1101	s	s	4	3	SIC	28	RC	2	0	23VC	1	0	0.584822893143	-437.0	89.0	-437	86	1
1.7	2015_Jul_22_1101	s	s	4	3	SIC	29	RC	1	2	23MD	1	0	2.64773488045	-426.0	-309.0	-422	-310	1
1.7	2015_Jul_22_1101	s	s	4	3	SIC	30	ABS	2	2	24VD	0	1	1.45382404327	None	None	None	None	1
1.7	2015_Jul_22_1101	s	s	4	3	SIC	31	ABS	0	2	24RD	0	1	2.01259994507	None	None	None	None	1
1.7	2015_Jul_22_1101	s	s	4	3	SIC	32	RC	1	1	23MO	1	0	1.73655200005	-162.0	212.0	-151	212	1
1.7	2015_Jul_22_1101	s	s	4	3	SIC	33	RC	0	2	23RD	1	0	2.12663507462	530.0	-281.0	539	-277	1
1.7	2015_Jul_22_1101	s	s	4	3	SIC	34	RC	1	1	23MO	1	0	0.620808839798	480.0	-237.0	476	-233	1
1.7	2015_Jul_22_1101	s	s	4	3	SIC	35	ABS	0	1	24RO	0	1	8.74233317375	None	None	None	None	1
1.7	2015_Jul_22_1101	s	s	4	3	SIC	36	ABS	2	0	24VC	0	1	0.787992954254	None	None	None	None	1
1.7	2015_Jul_22_1101	s	s	4	3	SIC	37	RC	2	1	23VO	1	0	0.572335004807	461.0	122.0	464	126	1
1.7	2015_Jul_22_1101	s	s	4	3	SIC	38	RC	1	0	23MC	1	0	0.573884963989	5.0	24.0	11	24	1
1.7	2015_Jul_22_1101	s	s	4	3	SIC	39	ABS	0	2	24RD	0	1	0.88206410408	None	None	None	None	1
1.7	2015_Jul_22_1101	s	s	4	3	SIC	40	ABS	1	1	24MO	0	1	1.46850299835	None	None	None	None	1
1.7	2015_Jul_22_1101	s	s	4	3	SIC	41	ABS	1	2	24MD	0	1	0.974325895309	None	None	None	None	1
1.7	2015_Jul_22_1101	s	s	4	3	SIC	42	RC	2	2	23VD	1	0	0.491302013397	139.0	230.0	147	236	1
1.7	2015_Jul_22_1101	s	s	4	3	SIC	43	RC	0	1	23RO	1	0	1.44275283813	203.0	-132.0	210	-129	1
1.7	2015_Jul_22_1101	s	s	4	3	SIC	44	ABS	2	2	24VD	0	1	1.0116519928	None	None	None	None	1
1.7	2015_Jul_22_1101	s	s	4	3	SIC	45	ABS	2	1	24VO	0	1	0.736932039261	None	None	None	None	1
1.7	2015_Jul_22_1101	s	s	4	3	SIC	46	RC	1	2	23MD	1	0	0.585510015488	-507.0	-367.0	-493	-362	1
1.7	2015_Jul_22_1101	s	s	4	3	SIC	47	ABS	1	0	24MC	0	1	1.64248490334	None	None	None	None	1
1.7	2015_Jul_22_1101	s	s	4	3	SIC	48	RC	2	0	23VC	1	0	0.540858983994	199.0	336.0	208	341	1
1.7	2015_Jul_22_1101	s	s	4	3	SIC	49	ABS	2	0	24VC	0	1	0.576138019562	None	None	None	None	1
1.7	2015_Jul_22_1101	s	s	4	3	SIC	50	ABS	0	2	24RD	0	1	0.882247924805	None	None	None	None	1
1.7	2015_Jul_22_1101	s	s	4	3	SIC	51	ABS	2	2	24VD	0	1	0.561403036118	None	None	None	None	1
1.7	2015_Jul_22_1101	s	s	4	3	SIC	52	RC	2	0	23VC	1	0	0.571359157562	310.0	-46.0	316	-43	1
1.7	2015_Jul_22_1101	s	s	4	3	SIC	53	RC	2	1	23VO	1	0	0.729123830795	151.0	-153.0	166	-147	1
1.7	2015_Jul_22_1101	s	s	4	3	SIC	54	RC	1	2	23MD	1	0	2.88304686546	63.0	158.0	67	159	1
1.7	2015_Jul_22_1101	s	s	4	3	SIC	55	ABS	2	1	24VO	0	1	1.31235313416	None	None	None	None	1
1.7	2015_Jul_22_1101	s	s	4	3	SIC	56	RC	1	0	23MC	1	0	0.82333779335	-397.0	-223.0	-399	-220	1
1.7	2015_Jul_22_1101	s	s	4	3	SIC	57	ABS	1	1	24MO	0	1	2.15047907829	None	None	None	None	1
1.7	2015_Jul_22_1101	s	s	4	3	SIC	58	RC	0	1	23RO	1	0	4.81991910934	309.0	140.0	304	141	1
1.7	2015_Jul_22_1101	s	s	4	3	SIC	59	ABS	1	2	24MD	0	1	2.64134216309	None	None	None	None	1
1.7	2015_Jul_22_1101	s	s	4	3	SIC	60	RC	1	1	23MO	1	0	0.770735025406	42.0	-288.0	46	-284	1
1.7	2015_Jul_22_1101	s	s	4	3	SIC	61	RC	0	2	23RD	1	0	0.493704080582	180.0	-60.0	176	-54	1
1.7	2015_Jul_22_1101	s	s	4	3	SIC	62	ABS	0	1	24RO	0	1	7.73982095718	None	None	None	None	1
1.7	2015_Jul_22_1101	s	s	4	3	SIC	63	ABS	1	0	24MC	0	1	2.52474498749	None	None	None	None	1
1.7	2015_Jul_22_1101	s	s	4	3	SIC	64	RC	2	2	23VD	1	0	0.528940200806	-491.0	193.0	-493	194	1
1.7	2015_Jul_22_1101	s	s	4	3	SIC	65	ABS	1	1	24MO	0	1	1.44257116318	None	None	None	None	1
1.7	2015_Jul_22_1101	s	s	4	3	SIC	66	RC	0	2	23RD	1	0	0.618256092072	474.0	-277.0	477	-275	1
1.7	2015_Jul_22_1101	s	s	4	3	SIC	67	RC	2	0	23VC	1	0	0.458463191986	159.0	312.0	155	317	1
1.7	2015_Jul_22_1101	s	s	4	3	SIC	68	ABS	2	2	24VD	0	1	0.71502995491	None	None	None	None	1
1.7	2015_Jul_22_1101	s	s	4	3	SIC	69	ABS	0	1	24RO	0	1	3.89548802376	None	None	None	None	1
1.7	2015_Jul_22_1101	s	s	4	3	SIC	70	RC	0	1	23RO	1	0	1.4745850563	-217.0	-351.0	-214	-356	1
1.7	2015_Jul_22_1101	s	s	4	3	SIC	71	ABS	2	0	24VC	0	1	0.8939909935	None	None	None	None	1
1.7	2015_Jul_22_1101	s	s	4	3	SIC	72	RC	2	1	23VO	1	0	0.547574043274	393.0	-90.0	385	-80	1
1.7	2015_Jul_22_1101	s	s	4	3	SIC	73	ABS	1	2	24MD	0	1	0.670266866684	None	None	None	None	1
1.7	2015_Jul_22_1101	s	s	4	3	SIC	74	ABS	0	2	24RD	0	1	0.760992050171	None	None	None	None	1
1.7	2015_Jul_22_1101	s	s	4	3	SIC	75	RC	1	1	23MO	0	1	0.00976705551147	405.0	73.0	None	None	0
1.7	2015_Jul_22_1101	s	s	4	3	SIC	76	ABS	1	0	24MC	0	1	1.80651402473	None	None	None	None	1
1.7	2015_Jul_22_1101	s	s	4	3	SIC	77	ABS	2	1	24VO	0	1	0.631868124008	None	None	None	None	1
1.7	2015_Jul_22_1101	s	s	4	3	SIC	78	RC	1	0	23MC	1	0	1.27754998207	28.0	-228.0	19	-227	1
1.7	2015_Jul_22_1101	s	s	4	3	SIC	79	RC	1	2	23MD	1	0	0.854043006897	-221.0	-377.0	-214	-379	1
1.7	2015_Jul_22_1101	s	s	4	3	SIC	80	RC	2	2	23VD	1	0	4.3158159256	410.0	181.0	421	186	1
1.7	2015_Jul_22_1101	s	s	4	3	SIC	81	ABS	1	2	24MD	0	1	2.95973110199	None	None	None	None	1
1.7	2015_Jul_22_1101	s	s	4	3	SIC	82	ABS	0	2	24RD	0	1	1.88899612427	None	None	None	None	1
1.7	2015_Jul_22_1101	s	s	4	3	SIC	83	ABS	1	1	24MO	0	1	1.55921196938	None	None	None	None	1
1.7	2015_Jul_22_1101	s	s	4	3	SIC	84	RC	0	2	23RD	1	0	0.705546855927	-484.0	-333.0	-485	-337	1
1.7	2015_Jul_22_1101	s	s	4	3	SIC	85	RC	1	0	23MC	1	0	1.77683401108	52.0	268.0	59	270	1
1.7	2015_Jul_22_1101	s	s	4	3	SIC	86	RC	2	1	23VO	1	0	0.452422857285	-344.0	132.0	-338	142	1
1.7	2015_Jul_22_1101	s	s	4	3	SIC	87	ABS	2	0	24VC	0	1	0.829875946045	None	None	None	None	1
1.7	2015_Jul_22_1101	s	s	4	3	SIC	88	ABS	2	2	24VD	0	1	0.505557060242	None	None	None	None	1
1.7	2015_Jul_22_1101	s	s	4	3	SIC	89	RC	0	1	23RO	1	0	3.18361401558	401.0	-220.0	391	-221	1
1.7	2015_Jul_22_1101	s	s	4	3	SIC	90	RC	1	1	23MO	1	0	1.24494504929	400.0	334.0	406	341	1
1.7	2015_Jul_22_1101	s	s	4	3	SIC	91	RC	2	2	23VD	1	0	0.773797988892	257.0	-383.0	255	-382	1
1.7	2015_Jul_22_1101	s	s	4	3	SIC	92	ABS	1	0	24MC	0	1	1.94974017143	None	None	None	None	1
1.7	2015_Jul_22_1101	s	s	4	3	SIC	93	RC	1	2	23MD	1	0	0.537916898727	-107.0	-340.0	-100	-342	1
1.7	2015_Jul_22_1101	s	s	4	3	SIC	94	RC	2	0	23VC	1	0	0.490352153778	178.0	-181.0	169	-176	1
1.7	2015_Jul_22_1101	s	s	4	3	SIC	95	ABS	2	1	24VO	0	1	1.1707880497	None	None	None	None	1
1.7	2015_Jul_22_1101	s	s	4	3	SIC	96	ABS	0	1	24RO	0	1	7.91676306725	None	None	None	None	1
1.7	2015_Jul_22_1101	s	s	4	3	SIC	97	ABS	0	1	24RO	0	1	5.02217388153	None	None	None	None	1
1.7	2015_Jul_22_1101	s	s	4	3	SIC	98	ABS	2	0	24VC	0	1	0.905702829361	None	None	None	None	1
1.7	2015_Jul_22_1101	s	s	4	3	SIC	99	RC	2	1	23VO	1	0	0.717447042465	-167.0	-202.0	-157	-201	1
1.7	2015_Jul_22_1101	s	s	4	3	SIC	100	RC	2	2	23VD	1	0	1.69436407089	-187.0	275.0	-186	268	1
1.7	2015_Jul_22_1101	s	s	4	3	SIC	101	RC	1	1	23MO	1	0	0.635006904602	-4.0	27.0	-7	37	1
1.7	2015_Jul_22_1101	s	s	4	3	SIC	102	RC	1	0	23MC	1	0	0.818490982056	-366.0	123.0	-356	121	1
1.7	2015_Jul_22_1101	s	s	4	3	SIC	103	ABS	2	1	24VO	0	1	0.717483043671	None	None	None	None	1
1.7	2015_Jul_22_1101	s	s	4	3	SIC	104	RC	2	0	23VC	1	0	0.488152980804	-192.0	388.0	-178	394	1
1.7	2015_Jul_22_1101	s	s	4	3	SIC	105	ABS	2	2	24VD	0	1	0.879565000534	None	None	None	None	1
1.7	2015_Jul_22_1101	s	s	4	3	SIC	106	RC	1	2	23MD	1	0	0.458483934402	-96.0	67.0	-93	66	1
1.7	2015_Jul_22_1101	s	s	4	3	SIC	107	RC	0	1	23RO	1	0	2.0004298687	-450.0	87.0	-460	85	1
1.7	2015_Jul_22_1101	s	s	4	3	SIC	108	ABS	1	2	24MD	0	1	0.713085889816	None	None	None	None	1
1.7	2015_Jul_22_1101	s	s	4	3	SIC	109	RC	0	2	23RD	1	0	0.493785858154	363.0	-23.0	363	-22	1
1.7	2015_Jul_22_1101	s	s	4	3	SIC	110	ABS	1	0	24MC	0	1	2.34939908981	None	None	None	None	1
1.7	2015_Jul_22_1101	s	s	4	3	SIC	111	ABS	1	1	24MO	0	1	2.7066450119	None	None	None	None	1
1.7	2015_Jul_22_1101	s	s	4	3	SIC	112	ABS	0	2	24RD	0	1	0.726648807526	None	None	None	None	1
1.7	2015_Jul_22_1101	s	s	4	3	SIC	113	RC	0	2	23RD	1	0	0.764418840408	340.0	-397.0	336	-394	1
1.7	2015_Jul_22_1101	s	s	4	3	SIC	114	RC	1	1	23MO	1	0	0.658490896225	-271.0	-290.0	-274	-287	1
1.7	2015_Jul_22_1101	s	s	4	3	SIC	115	ABS	2	0	24VC	0	1	0.571285963058	None	None	None	None	1
1.7	2015_Jul_22_1101	s	s	4	3	SIC	116	ABS	1	0	24MC	0	1	1.59512090683	None	None	None	None	1
1.7	2015_Jul_22_1101	s	s	4	3	SIC	117	ABS	1	1	24MO	0	1	1.20775103569	None	None	None	None	1
1.7	2015_Jul_22_1101	s	s	4	3	SIC	118	RC	2	1	23VO	1	0	0.772958040237	498.0	-107.0	499	-101	1
1.7	2015_Jul_22_1101	s	s	4	3	SIC	119	RC	2	0	23VC	1	0	0.489156007767	-105.0	-97.0	-97	-98	1
1.7	2015_Jul_22_1101	s	s	4	3	SIC	120	ABS	2	1	24VO	0	1	0.772032976151	None	None	None	None	1
1.7	2015_Jul_22_1101	s	s	4	3	SIC	121	RC	2	2	23VD	1	0	0.470098972321	59.0	-173.0	61	-179	1
1.7	2015_Jul_22_1101	s	s	4	3	SIC	122	RC	1	0	23MC	1	0	0.505500078201	-207.0	41.0	-209	42	1
1.7	2015_Jul_22_1101	s	s	4	3	SIC	123	ABS	2	2	24VD	0	1	1.02059006691	None	None	None	None	1
1.7	2015_Jul_22_1101	s	s	4	3	SIC	124	RC	1	2	23MD	1	0	0.740871906281	-105.0	103.0	-103	105	1
1.7	2015_Jul_22_1101	s	s	4	3	SIC	125	ABS	0	2	24RD	0	1	1.253895998	None	None	None	None	1
1.7	2015_Jul_22_1101	s	s	4	3	SIC	126	ABS	1	2	24MD	0	1	1.60970616341	None	None	None	None	1
1.7	2015_Jul_22_1101	s	s	4	3	SIC	127	ABS	0	1	24RO	0	1	3.95433402061	None	None	None	None	1
1.7	2015_Jul_22_1101	s	s	4	3	SIC	128	RC	0	1	23RO	1	0	2.31577992439	-183.0	-239.0	-174	-238	1
1.7	2015_Jul_22_1101	s	s	4	3	SIC	129	RC	2	0	23VC	1	0	0.558898925781	25.0	178.0	9	187	1
1.7	2015_Jul_22_1101	s	s	4	3	SIC	130	ABS	1	2	24MD	0	1	0.670187950134	None	None	None	None	1
1.7	2015_Jul_22_1101	s	s	4	3	SIC	131	ABS	1	0	24MC	0	1	2.32408809662	None	None	None	None	1
1.7	2015_Jul_22_1101	s	s	4	3	SIC	132	RC	0	1	23RO	1	0	0.774080991745	-100.0	147.0	-96	152	1
1.7	2015_Jul_22_1101	s	s	4	3	SIC	133	ABS	2	2	24VD	0	1	0.725556135178	None	None	None	None	1
1.7	2015_Jul_22_1101	s	s	4	3	SIC	134	RC	2	2	23VD	1	0	0.552582979202	342.0	-13.0	350	-8	1
1.7	2015_Jul_22_1101	s	s	4	3	SIC	135	ABS	0	1	24RO	0	1	4.9641919136	None	None	None	None	1
1.7	2015_Jul_22_1101	s	s	4	3	SIC	136	RC	1	2	23MD	1	0	0.553031921387	-124.0	-83.0	-119	-80	1
1.7	2015_Jul_22_1101	s	s	4	3	SIC	137	RC	0	2	23RD	1	0	0.634892225266	463.0	-257.0	462	-270	1
1.7	2015_Jul_22_1101	s	s	4	3	SIC	138	ABS	2	0	24VC	0	1	0.846841096878	None	None	None	None	1
1.7	2015_Jul_22_1101	s	s	4	3	SIC	139	ABS	0	2	24RD	0	1	0.823774814606	None	None	None	None	1
1.7	2015_Jul_22_1101	s	s	4	3	SIC	140	ABS	2	1	24VO	0	1	0.452766895294	None	None	None	None	1
1.7	2015_Jul_22_1101	s	s	4	3	SIC	141	ABS	1	1	24MO	1	0	1.71774697304	None	None	-192	23	0
1.7	2015_Jul_22_1101	s	s	4	3	SIC	142	RC	1	1	23MO	1	0	0.535826921463	-92.0	155.0	-93	154	1
1.7	2015_Jul_22_1101	s	s	4	3	SIC	143	RC	2	1	23VO	1	0	0.585139036179	-470.0	-65.0	-463	-69	1
1.7	2015_Jul_22_1101	s	s	4	3	SIC	144	RC	1	0	23MC	1	0	0.644116163254	447.0	-74.0	445	-64	1
1.7	2015_Jul_22_1101	s	s	4	3	SIC	145	RC	2	1	23VO	1	0	0.502246856689	-295.0	343.0	-291	345	1
1.7	2015_Jul_22_1101	s	s	4	3	SIC	146	ABS	1	2	24MD	0	1	0.924074888229	None	None	None	None	1
1.7	2015_Jul_22_1101	s	s	4	3	SIC	147	RC	0	1	23RO	1	0	1.68005895615	408.0	-167.0	410	-167	1
1.7	2015_Jul_22_1101	s	s	4	3	SIC	148	ABS	2	2	24VD	0	1	0.947092056274	None	None	None	None	1
1.7	2015_Jul_22_1101	s	s	4	3	SIC	149	ABS	2	1	24VO	0	1	0.646811008453	None	None	None	None	1
1.7	2015_Jul_22_1101	s	s	4	3	SIC	150	RC	1	1	23MO	1	0	0.585235834122	313.0	-165.0	320	-168	1
1.7	2015_Jul_22_1101	s	s	4	3	SIC	151	ABS	2	0	24VC	0	1	1.4071521759	None	None	None	None	1
1.7	2015_Jul_22_1101	s	s	4	3	SIC	152	RC	0	2	23RD	1	0	0.587741851807	-483.0	94.0	-483	88	1
1.7	2015_Jul_22_1101	s	s	4	3	SIC	153	RC	1	2	23MD	1	0	0.50303196907	-222.0	-49.0	-225	-56	1
1.7	2015_Jul_22_1101	s	s	4	3	SIC	154	RC	1	0	23MC	1	0	1.00537014008	490.0	-20.0	491	-13	1
1.7	2015_Jul_22_1101	s	s	4	3	SIC	155	RC	2	0	23VC	1	0	0.597263097763	-311.0	236.0	-299	239	1
1.7	2015_Jul_22_1101	s	s	4	3	SIC	156	RC	2	2	23VD	1	0	0.797292947769	-444.0	-27.0	-436	-28	1
1.7	2015_Jul_22_1101	s	s	4	3	SIC	157	ABS	0	2	24RD	0	1	0.948393821716	None	None	None	None	1
1.7	2015_Jul_22_1101	s	s	4	3	SIC	158	ABS	0	1	24RO	0	1	3.78659892082	None	None	None	None	1
1.7	2015_Jul_22_1101	s	s	4	3	SIC	159	ABS	1	1	24MO	0	1	3.21276903152	None	None	None	None	1
1.7	2015_Jul_22_1101	s	s	4	3	SIC	160	ABS	1	0	24MC	1	0	1.37175798416	None	None	351	-349	0
1.7	2015_Jul_22_1101	s	s	4	3	SIC	161	RC	2	2	23VD	1	0	0.463161945343	363.0	-229.0	354	-231	1
1.7	2015_Jul_22_1101	s	s	4	3	SIC	162	ABS	2	0	24VC	0	1	0.820555925369	None	None	None	None	1
1.7	2015_Jul_22_1101	s	s	4	3	SIC	163	RC	1	1	23MO	1	0	0.634954929352	154.0	224.0	148	220	1
1.7	2015_Jul_22_1101	s	s	4	3	SIC	164	ABS	0	2	24RD	0	1	1.19775795937	None	None	None	None	1
1.7	2015_Jul_22_1101	s	s	4	3	SIC	165	RC	0	1	23RO	1	0	2.14904403687	-35.0	-204.0	-25	-203	1
1.7	2015_Jul_22_1101	s	s	4	3	SIC	166	RC	1	0	23MC	1	0	1.17654109001	417.0	-383.0	421	-381	1
1.7	2015_Jul_22_1101	s	s	4	3	SIC	167	RC	0	2	23RD	1	0	0.549421072006	-535.0	-211.0	-538	-207	1
1.7	2015_Jul_22_1101	s	s	4	3	SIC	168	ABS	2	2	24VD	0	1	0.682114124298	None	None	None	None	1
1.7	2015_Jul_22_1101	s	s	4	3	SIC	169	ABS	1	2	24MD	0	1	0.609025001526	None	None	None	None	1
1.7	2015_Jul_22_1101	s	s	4	3	SIC	170	ABS	1	1	24MO	0	1	1.8524749279	None	None	None	None	1
1.7	2015_Jul_22_1101	s	s	4	3	SIC	171	ABS	0	1	24RO	0	1	3.91902804375	None	None	None	None	1
1.7	2015_Jul_22_1101	s	s	4	3	SIC	172	ABS	1	0	24MC	0	1	1.9707300663	None	None	None	None	1
1.7	2015_Jul_22_1101	s	s	4	3	SIC	173	RC	1	2	23MD	1	0	0.576458930969	241.0	142.0	239	133	1
1.7	2015_Jul_22_1101	s	s	4	3	SIC	174	RC	2	0	23VC	1	0	0.490386009216	132.0	163.0	125	160	1
1.7	2015_Jul_22_1101	s	s	4	3	SIC	175	RC	2	1	23VO	1	0	0.454172134399	-280.0	111.0	-287	116	1
1.7	2015_Jul_22_1101	s	s	4	3	SIC	176	ABS	2	1	24VO	0	1	0.940847873688	None	None	None	None	1
1.7	2015_Jul_22_1101	s	s	4	3	SIC	177	RC	1	1	23MO	1	0	1.56472420692	347.0	327.0	348	332	1
1.7	2015_Jul_22_1101	s	s	4	3	SIC	178	RC	0	1	23RO	0	1	4.24852013588	435.0	287.0	None	None	0
1.7	2015_Jul_22_1101	s	s	4	3	SIC	179	RC	2	0	23VC	1	0	0.528908967972	-174.0	102.0	-166	111	1
1.7	2015_Jul_22_1101	s	s	4	3	SIC	180	ABS	0	2	24RD	0	1	2.17701816559	None	None	None	None	1
1.7	2015_Jul_22_1101	s	s	4	3	SIC	181	ABS	1	2	24MD	0	1	0.764390945435	None	None	None	None	1
1.7	2015_Jul_22_1101	s	s	4	3	SIC	182	RC	1	0	23MC	1	0	1.0469751358	-28.0	97.0	-20	91	1
1.7	2015_Jul_22_1101	s	s	4	3	SIC	183	RC	1	2	23MD	1	0	0.491416931152	-165.0	-90.0	-180	-83	1
1.7	2015_Jul_22_1101	s	s	4	3	SIC	184	ABS	2	1	24VO	0	1	1.12501716614	None	None	None	None	1
1.7	2015_Jul_22_1101	s	s	4	3	SIC	185	ABS	1	0	24MC	0	1	1.05394005775	None	None	None	None	1
1.7	2015_Jul_22_1101	s	s	4	3	SIC	186	ABS	2	2	24VD	0	1	0.853969097137	None	None	None	None	1
1.7	2015_Jul_22_1101	s	s	4	3	SIC	187	RC	2	1	23VO	1	0	0.564363956451	-94.0	-305.0	-90	-310	1
1.7	2015_Jul_22_1101	s	s	4	3	SIC	188	RC	2	2	23VD	1	0	0.77628493309	-399.0	76.0	-403	84	1
1.7	2015_Jul_22_1101	s	s	4	3	SIC	189	RC	0	2	23RD	1	0	0.937139034271	63.0	-335.0	63	-355	1
1.7	2015_Jul_22_1101	s	s	4	3	SIC	190	ABS	2	0	24VC	0	1	0.655217885971	None	None	None	None	1
1.7	2015_Jul_22_1101	s	s	4	3	SIC	191	ABS	0	1	24RO	0	1	3.3505449295	None	None	None	None	1
1.7	2015_Jul_22_1101	s	s	4	3	SIC	192	ABS	1	1	24MO	0	1	2.25933408737	None	None	None	None	1
1.7	2015_Jul_22_1101	s	s	4	3	SIC	193	ABS	2	2	24VD	0	1	0.550189971924	None	None	None	None	1
1.7	2015_Jul_22_1101	s	s	4	3	SIC	194	RC	1	0	23MC	1	0	0.986084938049	101.0	-200.0	108	-205	1
1.7	2015_Jul_22_1101	s	s	4	3	SIC	195	ABS	2	1	24VO	0	1	0.712752819061	None	None	None	None	1
1.7	2015_Jul_22_1101	s	s	4	3	SIC	196	ABS	2	0	24VC	0	1	0.629950046539	None	None	None	None	1
1.7	2015_Jul_22_1101	s	s	4	3	SIC	197	RC	1	1	23MO	1	0	0.949402093887	448.0	-272.0	450	-272	1
1.7	2015_Jul_22_1101	s	s	4	3	SIC	198	RC	0	2	23RD	1	0	2.49480295181	-519.0	-186.0	-510	-182	1
1.7	2015_Jul_22_1101	s	s	4	3	SIC	199	RC	2	0	23VC	1	0	0.432332992554	-499.0	-12.0	-509	-6	1
1.7	2015_Jul_22_1101	s	s	4	3	SIC	200	ABS	1	2	24MD	0	1	0.584154844284	None	None	None	None	1
1.7	2015_Jul_22_1101	s	s	4	3	SIC	201	RC	2	2	23VD	1	0	0.454008102417	-365.0	5.0	-370	10	1
1.7	2015_Jul_22_1101	s	s	4	3	SIC	202	ABS	0	1	24RO	0	1	3.51096892357	None	None	None	None	1
1.7	2015_Jul_22_1101	s	s	4	3	SIC	203	ABS	1	1	24MO	0	1	2.08273911476	None	None	None	None	1
1.7	2015_Jul_22_1101	s	s	4	3	SIC	204	RC	2	1	23VO	1	0	0.44690489769	389.0	301.0	388	297	1
1.7	2015_Jul_22_1101	s	s	4	3	SIC	205	RC	0	1	23RO	1	0	1.18421292305	-9.0	-68.0	-15	-76	1
1.7	2015_Jul_22_1101	s	s	4	3	SIC	206	ABS	0	2	24RD	0	1	0.823262929916	None	None	None	None	1
1.7	2015_Jul_22_1101	s	s	4	3	SIC	207	ABS	1	0	24MC	0	1	1.5884809494	None	None	None	None	1
1.7	2015_Jul_22_1101	s	s	4	3	SIC	208	RC	1	2	23MD	1	0	0.653131961823	375.0	142.0	370	150	1
1.7	2015_Jul_22_1101	s	s	4	3	SIC	209	RC	1	1	23MO	1	0	0.482044935226	83.0	1.0	80	8	1
1.7	2015_Jul_22_1101	s	s	4	3	SIC	210	RC	1	0	23MC	1	0	0.724068164825	-13.0	10.0	-11	9	1
1.7	2015_Jul_22_1101	s	s	4	3	SIC	211	RC	0	1	23RO	0	1	3.19582891464	445.0	37.0	None	None	0
1.7	2015_Jul_22_1101	s	s	4	3	SIC	212	RC	2	2	23VD	1	0	0.477455854416	383.0	35.0	381	37	1
1.7	2015_Jul_22_1101	s	s	4	3	SIC	213	RC	1	2	23MD	1	0	0.490310907364	208.0	165.0	208	160	1
1.7	2015_Jul_22_1101	s	s	4	3	SIC	214	RC	0	2	23RD	1	0	0.488416910172	-265.0	-39.0	-259	-39	1
1.7	2015_Jul_22_1101	s	s	4	3	SIC	215	RC	2	1	23VO	1	0	0.409247875214	-158.0	-88.0	-154	-81	1
1.7	2015_Jul_22_1101	s	s	4	3	SIC	216	RC	2	0	23VC	1	0	0.399618148804	-114.0	-43.0	-99	-35	1
1.7	2015_Jul_22_1101	s	s	4	3	SIC	217	ABS	2	1	24VO	0	1	0.811559915543	None	None	None	None	1
1.7	2015_Jul_22_1101	s	s	4	3	SIC	218	ABS	2	0	24VC	0	1	0.90337896347	None	None	None	None	1
1.7	2015_Jul_22_1101	s	s	4	3	SIC	219	ABS	2	2	24VD	0	1	0.705536842346	None	None	None	None	1
1.7	2015_Jul_22_1101	s	s	4	3	SIC	220	ABS	1	2	24MD	0	1	0.688512802124	None	None	None	None	1
1.7	2015_Jul_22_1101	s	s	4	3	SIC	221	ABS	0	2	24RD	0	1	0.823287010193	None	None	None	None	1
1.7	2015_Jul_22_1101	s	s	4	3	SIC	222	ABS	1	1	24MO	0	1	1.78522396088	None	None	None	None	1
1.7	2015_Jul_22_1101	s	s	4	3	SIC	223	ABS	1	0	24MC	0	1	2.45439887047	None	None	None	None	1
1.7	2015_Jul_22_1101	s	s	4	3	SIC	224	ABS	0	1	24RO	0	1	2.49161791801	None	None	None	None	1
1.7	2015_Jul_22_1101	s	s	4	3	SIC	225	RC	1	1	23MO	1	0	1.07749009132	457.0	-305.0	450	-303	1
1.7	2015_Jul_22_1101	s	s	4	3	SIC	226	RC	2	1	23VO	0	1	2.02087306976	-381.0	351.0	None	None	0
1.7	2015_Jul_22_1101	s	s	4	3	SIC	227	ABS	0	1	24RO	0	1	3.40795707703	None	None	None	None	1
1.7	2015_Jul_22_1101	s	s	4	3	SIC	228	ABS	0	2	24RD	0	1	1.8947930336	None	None	None	None	1
1.7	2015_Jul_22_1101	s	s	4	3	SIC	229	ABS	1	1	24MO	0	1	1.51301503181	None	None	None	None	1
1.7	2015_Jul_22_1101	s	s	4	3	SIC	230	RC	2	0	23VC	1	0	0.617868900299	41.0	62.0	44	62	1
1.7	2015_Jul_22_1101	s	s	4	3	SIC	231	ABS	2	2	24VD	0	1	0.682074069977	None	None	None	None	1
1.7	2015_Jul_22_1101	s	s	4	3	SIC	232	ABS	1	2	24MD	0	1	1.8354549408	None	None	None	None	1
1.7	2015_Jul_22_1101	s	s	4	3	SIC	233	RC	1	0	23MC	1	0	0.785784006119	161.0	-139.0	151	-130	1
1.7	2015_Jul_22_1101	s	s	4	3	SIC	234	ABS	1	0	24MC	0	1	1.05869293213	None	None	None	None	1
1.7	2015_Jul_22_1101	s	s	4	3	SIC	235	ABS	2	0	24VC	0	1	0.711796998978	None	None	None	None	1
1.7	2015_Jul_22_1101	s	s	4	3	SIC	236	ABS	2	1	24VO	0	1	0.644097089767	None	None	None	None	1
1.7	2015_Jul_22_1101	s	s	4	3	SIC	237	RC	1	2	23MD	1	0	0.677219867706	479.0	385.0	479	394	1
1.7	2015_Jul_22_1101	s	s	4	3	SIC	238	RC	0	2	23RD	1	0	0.500602960587	285.0	363.0	284	362	1
1.7	2015_Jul_22_1101	s	s	4	3	SIC	239	RC	0	1	23RO	1	0	2.28049182892	-10.0	342.0	-16	345	1
1.7	2015_Jul_22_1101	s	s	4	3	SIC	240	RC	2	2	23VD	1	0	0.446969032288	-509.0	-126.0	-507	-126	1
1.7	2015_Jul_22_1101	s	s	4	3	SIC	241	ABS	0	1	24RO	0	1	3.43308591843	None	None	None	None	1
1.7	2015_Jul_22_1101	s	s	4	3	SIC	242	RC	0	1	23RO	1	0	3.23238420486	517.0	10.0	528	20	1
1.7	2015_Jul_22_1101	s	s	4	3	SIC	243	ABS	0	2	24RD	0	1	3.11853599548	None	None	None	None	1
1.7	2015_Jul_22_1101	s	s	4	3	SIC	244	ABS	2	0	24VC	0	1	0.670351028442	None	None	None	None	1
1.7	2015_Jul_22_1101	s	s	4	3	SIC	245	RC	2	0	23VC	1	0	0.609205007553	130.0	34.0	135	33	1
1.7	2015_Jul_22_1101	s	s	4	3	SIC	246	ABS	2	1	24VO	0	1	0.973320007324	None	None	None	None	1
1.7	2015_Jul_22_1101	s	s	4	3	SIC	247	RC	1	0	23MC	1	0	0.783230066299	-121.0	402.0	-122	404	1
1.7	2015_Jul_22_1101	s	s	4	3	SIC	248	RC	2	2	23VD	1	0	0.411248922348	360.0	328.0	352	330	1
1.7	2015_Jul_22_1101	s	s	4	3	SIC	249	ABS	1	1	24MO	0	1	1.093998909	None	None	None	None	1
1.7	2015_Jul_22_1101	s	s	4	3	SIC	250	ABS	1	2	24MD	0	1	0.735399961472	None	None	None	None	1
1.7	2015_Jul_22_1101	s	s	4	3	SIC	251	ABS	2	2	24VD	0	1	1.18822813034	None	None	None	None	1
1.7	2015_Jul_22_1101	s	s	4	3	SIC	252	RC	2	1	23VO	1	0	0.51228094101	-514.0	340.0	-513	337	1
1.7	2015_Jul_22_1101	s	s	4	3	SIC	253	RC	1	1	23MO	1	0	0.655564785004	-130.0	-138.0	-125	-141	1
1.7	2015_Jul_22_1101	s	s	4	3	SIC	254	RC	0	2	23RD	1	0	0.481860876083	0.0	-50.0	3	-55	1
1.7	2015_Jul_22_1101	s	s	4	3	SIC	255	ABS	1	0	24MC	0	1	1.48235988617	None	None	None	None	1
1.7	2015_Jul_22_1101	s	s	4	3	SIC	256	RC	1	2	23MD	1	0	0.529186964035	-240.0	-159.0	-232	-160	1
1.7	2015_Jul_22_1101	s	s	4	3	SIC	257	RC	1	2	23MD	1	0	0.423066854477	-196.0	122.0	-192	124	1
1.7	2015_Jul_22_1101	s	s	4	3	SIC	258	ABS	1	2	24MD	0	1	0.799785137177	None	None	None	None	1
1.7	2015_Jul_22_1101	s	s	4	3	SIC	259	RC	1	1	23MO	1	0	0.552555084229	-232.0	345.0	-240	349	1
1.7	2015_Jul_22_1101	s	s	4	3	SIC	260	ABS	2	2	24VD	0	1	0.50118303299	None	None	None	None	1
1.7	2015_Jul_22_1101	s	s	4	3	SIC	261	ABS	0	2	24RD	0	1	0.632522106171	None	None	None	None	1
1.7	2015_Jul_22_1101	s	s	4	3	SIC	262	ABS	2	1	24VO	0	1	0.623075962067	None	None	None	None	1
1.7	2015_Jul_22_1101	s	s	4	3	SIC	263	RC	1	0	23MC	1	0	0.95265007019	408.0	-154.0	418	-149	1
1.7	2015_Jul_22_1101	s	s	4	3	SIC	264	ABS	1	1	24MO	0	1	2.03578782082	None	None	None	None	1
1.7	2015_Jul_22_1101	s	s	4	3	SIC	265	RC	2	1	23VO	1	0	0.52908205986	-190.0	-48.0	-187	-40	1
1.7	2015_Jul_22_1101	s	s	4	3	SIC	266	RC	2	2	23VD	1	0	0.547485113144	491.0	-115.0	485	-122	1
1.7	2015_Jul_22_1101	s	s	4	3	SIC	267	ABS	0	1	24RO	0	1	2.93860602379	None	None	None	None	1
1.7	2015_Jul_22_1101	s	s	4	3	SIC	268	ABS	1	0	24MC	0	1	1.04701519012	None	None	None	None	1
1.7	2015_Jul_22_1101	s	s	4	3	SIC	269	RC	2	0	23VC	1	0	0.665436029434	-519.0	-27.0	-531	-26	1
1.7	2015_Jul_22_1101	s	s	4	3	SIC	270	RC	0	1	23RO	1	0	0.827162027359	-206.0	-271.0	-205	-279	1
1.7	2015_Jul_22_1101	s	s	4	3	SIC	271	RC	0	2	23RD	1	0	0.525229930878	-486.0	110.0	-495	113	1
1.7	2015_Jul_22_1101	s	s	4	3	SIC	272	ABS	2	0	24VC	0	1	0.996213912964	None	None	None	None	1
1.7	2015_Jul_22_1101	s	s	4	3	SIC	273	ABS	0	1	24RO	0	1	3.26599001884	None	None	None	None	1
1.7	2015_Jul_22_1101	s	s	4	3	SIC	274	ABS	2	2	24VD	0	1	0.688374042511	None	None	None	None	1
1.7	2015_Jul_22_1101	s	s	4	3	SIC	275	RC	2	1	23VO	1	0	0.606043100357	-203.0	57.0	-207	57	1
1.7	2015_Jul_22_1101	s	s	4	3	SIC	276	RC	2	0	23VC	1	0	0.453331947327	-326.0	-172.0	-310	-163	1
1.7	2015_Jul_22_1101	s	s	4	3	SIC	277	RC	0	1	23RO	1	0	1.26602888107	-309.0	-342.0	-312	-333	1
1.7	2015_Jul_22_1101	s	s	4	3	SIC	278	ABS	2	0	24VC	0	1	0.699861049652	None	None	None	None	1
1.7	2015_Jul_22_1101	s	s	4	3	SIC	279	ABS	1	0	24MC	0	1	1.67799282074	None	None	None	None	1
1.7	2015_Jul_22_1101	s	s	4	3	SIC	280	ABS	2	1	24VO	0	1	0.623227119446	None	None	None	None	1
1.7	2015_Jul_22_1101	s	s	4	3	SIC	281	ABS	1	2	24MD	0	1	0.587917089462	None	None	None	None	1
1.7	2015_Jul_22_1101	s	s	4	3	SIC	282	RC	1	1	23MO	1	0	0.546956062317	258.0	239.0	258	241	1
1.7	2015_Jul_22_1101	s	s	4	3	SIC	283	RC	2	2	23VD	1	0	0.455869913101	351.0	-278.0	362	-275	1
1.7	2015_Jul_22_1101	s	s	4	3	SIC	284	ABS	1	1	24MO	0	1	1.00945305824	None	None	None	None	1
1.7	2015_Jul_22_1101	s	s	4	3	SIC	285	RC	0	2	23RD	1	0	0.549138069153	-29.0	-186.0	-24	-187	1
1.7	2015_Jul_22_1101	s	s	4	3	SIC	286	ABS	0	2	24RD	0	1	0.999888896942	None	None	None	None	1
1.7	2015_Jul_22_1101	s	s	4	3	SIC	287	RC	1	2	23MD	1	0	0.583099126816	115.0	318.0	113	327	1
1.7	2015_Jul_22_1101	s	s	4	3	SIC	288	RC	1	0	23MC	1	0	1.1765460968	524.0	56.0	528	61	1
1.7	2015_Jul_22_1101	s	s	4	3	SIC	289	ABS	0	1	24RO	0	1	3.14217686653	None	None	None	None	1
1.7	2015_Jul_22_1101	s	s	4	3	SIC	290	RC	2	0	23VC	1	0	0.499837875366	265.0	-28.0	255	-18	1
1.7	2015_Jul_22_1101	s	s	4	3	SIC	291	RC	0	2	23RD	1	0	0.52904009819	-189.0	175.0	-199	173	1
1.7	2015_Jul_22_1101	s	s	4	3	SIC	292	RC	0	1	23RO	1	0	1.12476491928	201.0	-329.0	203	-330	1
1.7	2015_Jul_22_1101	s	s	4	3	SIC	293	ABS	2	2	24VD	0	1	0.900501012802	None	None	None	None	1
1.7	2015_Jul_22_1101	s	s	4	3	SIC	294	RC	1	0	23MC	0	1	2.139564991	-266.0	-382.0	None	None	0
1.7	2015_Jul_22_1101	s	s	4	3	SIC	295	ABS	1	1	24MO	0	1	1.25881791115	None	None	None	None	1
1.7	2015_Jul_22_1101	s	s	4	3	SIC	296	RC	1	1	23MO	1	0	0.784836053848	324.0	203.0	309	210	1
1.7	2015_Jul_22_1101	s	s	4	3	SIC	297	RC	2	2	23VD	1	0	0.88881111145	360.0	289.0	366	295	1
1.7	2015_Jul_22_1101	s	s	4	3	SIC	298	ABS	1	0	24MC	0	1	1.57659482956	None	None	None	None	1
1.7	2015_Jul_22_1101	s	s	4	3	SIC	299	ABS	1	2	24MD	0	1	0.995585203171	None	None	None	None	1
1.7	2015_Jul_22_1101	s	s	4	3	SIC	300	ABS	0	2	24RD	0	1	2.17689990997	None	None	None	None	1
1.7	2015_Jul_22_1101	s	s	4	3	SIC	301	RC	1	2	23MD	1	0	0.829815149307	-305.0	370.0	-299	368	1
1.7	2015_Jul_22_1101	s	s	4	3	SIC	302	RC	2	1	23VO	1	0	2.38414311409	-343.0	-267.0	-333	-269	1
1.7	2015_Jul_22_1101	s	s	4	3	SIC	303	ABS	2	0	24VC	0	1	1.17178988457	None	None	None	None	1
1.7	2015_Jul_22_1101	s	s	4	3	SIC	304	ABS	2	1	24VO	0	1	1.45411896706	None	None	None	None	1
1.7	2015_Jul_22_1101	s	s	4	3	SIC	305	RC	0	2	23RD	1	0	0.72918009758	427.0	2.0	422	-4	1
1.7	2015_Jul_22_1101	s	s	4	3	SIC	306	ABS	2	1	24VO	0	1	3.06345820427	None	None	None	None	1
1.7	2015_Jul_22_1101	s	s	4	3	SIC	307	ABS	2	0	24VC	0	1	1.97161316872	None	None	None	None	1
1.7	2015_Jul_22_1101	s	s	4	3	SIC	308	ABS	1	1	24MO	0	1	2.17176699638	None	None	None	None	1
1.7	2015_Jul_22_1101	s	s	4	3	SIC	309	RC	1	0	23MC	1	0	4.38431191444	-519.0	-192.0	-505	-185	1
1.7	2015_Jul_22_1101	s	s	4	3	SIC	310	ABS	0	2	24RD	0	1	0.576167106628	None	None	None	None	1
1.7	2015_Jul_22_1101	s	s	4	3	SIC	311	RC	1	2	23MD	1	0	0.891587972641	-411.0	192.0	-422	193	1
1.7	2015_Jul_22_1101	s	s	4	3	SIC	312	ABS	1	0	24MC	0	1	1.75955700874	None	None	None	None	1
1.7	2015_Jul_22_1101	s	s	4	3	SIC	313	RC	0	1	23RO	0	1	4.3615899086	-196.0	241.0	None	None	0
1.7	2015_Jul_22_1101	s	s	4	3	SIC	314	RC	2	2	23VD	1	0	0.717418909073	-389.0	-24.0	-378	-23	1
1.7	2015_Jul_22_1101	s	s	4	3	SIC	315	RC	1	1	23MO	1	0	2.11798191071	-113.0	-394.0	-109	-393	1
1.7	2015_Jul_22_1101	s	s	4	3	SIC	316	ABS	1	2	24MD	0	1	1.63101196289	None	None	None	None	1
1.7	2015_Jul_22_1101	s	s	4	3	SIC	317	ABS	2	2	24VD	0	1	4.40824699402	None	None	None	None	1
1.7	2015_Jul_22_1101	s	s	4	3	SIC	318	ABS	0	1	24RO	0	1	2.61003303528	None	None	None	None	1
1.7	2015_Jul_22_1101	s	s	4	3	SIC	319	RC	2	1	23VO	1	0	3.6365070343	-16.0	-298.0	-11	-298	1
1.7	2015_Jul_22_1101	s	s	4	3	SIC	320	RC	2	0	23VC	1	0	1.2304751873	52.0	-342.0	45	-340	1
1.7	2015_Jul_22_1101	s	s	4	3	SIC	321	ABS	0	2	24RD	0	1	2.73020601273	None	None	None	None	1
1.7	2015_Jul_22_1101	s	s	4	3	SIC	322	RC	0	2	23RD	1	0	0.744725942612	-482.0	40.0	-487	49	1
1.7	2015_Jul_22_1101	s	s	4	3	SIC	323	RC	2	0	23VC	1	0	0.73296713829	-400.0	-44.0	-393	-37	1
1.7	2015_Jul_22_1101	s	s	4	3	SIC	324	ABS	1	2	24MD	0	1	0.794763088226	None	None	None	None	1
1.7	2015_Jul_22_1101	s	s	4	3	SIC	325	RC	1	1	23MO	1	0	1.03277301788	75.0	-315.0	77	-319	1
1.7	2015_Jul_22_1101	s	s	4	3	SIC	326	ABS	1	1	24MO	0	1	8.75668597221	None	None	None	None	1
1.7	2015_Jul_22_1101	s	s	4	3	SIC	327	ABS	2	2	24VD	0	1	0.524517059326	None	None	None	None	1
1.7	2015_Jul_22_1101	s	s	4	3	SIC	328	RC	2	1	23VO	1	0	0.688538074493	-71.0	-361.0	-78	-367	1
1.7	2015_Jul_22_1101	s	s	4	3	SIC	329	RC	2	2	23VD	1	0	0.752644062042	340.0	-193.0	336	-188	1
1.7	2015_Jul_22_1101	s	s	4	3	SIC	330	RC	1	0	23MC	1	0	1.59512090683	-238.0	273.0	-239	272	1
1.7	2015_Jul_22_1101	s	s	4	3	SIC	331	ABS	2	0	24VC	0	1	3.78947806358	None	None	None	None	1
1.7	2015_Jul_22_1101	s	s	4	3	SIC	332	ABS	1	0	24MC	0	1	2.84840393066	None	None	None	None	1
1.7	2015_Jul_22_1101	s	s	4	3	SIC	333	ABS	2	1	24VO	0	1	1.10341095924	None	None	None	None	1
1.7	2015_Jul_22_1101	s	s	4	3	SIC	334	RC	1	2	23MD	1	0	0.835084915161	-454.0	107.0	-458	103	1
1.7	2015_Jul_22_1101	s	s	4	3	SIC	335	RC	0	1	23RO	1	0	1.01166892052	195.0	-231.0	194	-240	1
1.7	2015_Jul_22_1101	s	s	4	3	SIC	336	ABS	0	1	24RO	0	1	4.34260511398	None	None	None	None	1
1.7	2015_Jul_22_1101	s	s	4	3	SIC	337	ABS	1	0	24MC	0	1	1.85695505142	None	None	None	None	1
1.7	2015_Jul_22_1101	s	s	4	3	SIC	338	ABS	2	1	24VO	0	1	0.858570098877	None	None	None	None	1
1.7	2015_Jul_22_1101	s	s	4	3	SIC	339	ABS	0	2	24RD	0	1	2.13800191879	None	None	None	None	1
1.7	2015_Jul_22_1101	s	s	4	3	SIC	340	RC	0	2	23RD	1	0	0.632937908173	45.0	-97.0	49	-110	1
1.7	2015_Jul_22_1101	s	s	4	3	SIC	341	ABS	2	0	24VC	0	1	0.605962991714	None	None	None	None	1
1.7	2015_Jul_22_1101	s	s	4	3	SIC	342	RC	2	2	23VD	1	0	1.85416603088	340.0	-96.0	330	-90	1
1.7	2015_Jul_22_1101	s	s	4	3	SIC	343	ABS	0	1	24RO	0	1	2.56523704529	None	None	None	None	1
1.7	2015_Jul_22_1101	s	s	4	3	SIC	344	RC	2	1	23VO	1	0	0.481895208359	-39.0	156.0	-38	159	1
1.7	2015_Jul_22_1101	s	s	4	3	SIC	345	RC	0	1	23RO	1	0	0.964583158493	220.0	-221.0	211	-217	1
1.7	2015_Jul_22_1101	s	s	4	3	SIC	346	ABS	2	2	24VD	0	1	0.729341983795	None	None	None	None	1
1.7	2015_Jul_22_1101	s	s	4	3	SIC	347	RC	1	1	23MO	1	0	0.740924119949	521.0	192.0	526	187	1
1.7	2015_Jul_22_1101	s	s	4	3	SIC	348	RC	2	0	23VC	1	0	0.443203926086	272.0	-195.0	269	-193	1
1.7	2015_Jul_22_1101	s	s	4	3	SIC	349	RC	1	0	23MC	1	0	1.30591917038	-35.0	224.0	-46	232	1
1.7	2015_Jul_22_1101	s	s	4	3	SIC	350	RC	1	2	23MD	1	0	0.458307027817	108.0	314.0	109	314	1
1.7	2015_Jul_22_1101	s	s	4	3	SIC	351	ABS	1	2	24MD	0	1	0.924050092697	None	None	None	None	1
1.7	2015_Jul_22_1101	s	s	4	3	SIC	352	ABS	1	1	24MO	0	1	1.78602910042	None	None	None	None	1
1.7	2015_Jul_22_1101	s	s	4	3	SIC	353	RC	1	2	23MD	1	0	0.467092990875	-377.0	113.0	-375	110	1
1.7	2015_Jul_22_1101	s	s	4	3	SIC	354	ABS	2	2	24VD	0	1	0.646759033203	None	None	None	None	1
1.7	2015_Jul_22_1101	s	s	4	3	SIC	355	RC	0	2	23RD	1	0	0.78262591362	-389.0	-85.0	-384	-89	1
1.7	2015_Jul_22_1101	s	s	4	3	SIC	356	ABS	0	2	24RD	0	1	1.02982807159	None	None	None	None	1
1.7	2015_Jul_22_1101	s	s	4	3	SIC	357	RC	1	0	23MC	1	0	2.88069486618	-23.0	-64.0	-24	-59	1
1.7	2015_Jul_22_1101	s	s	4	3	SIC	358	ABS	0	1	24RO	0	1	2.61239814758	None	None	None	None	1
1.7	2015_Jul_22_1101	s	s	4	3	SIC	359	ABS	2	0	24VC	0	1	0.587953090668	None	None	None	None	1
1.7	2015_Jul_22_1101	s	s	4	3	SIC	360	ABS	1	2	24MD	0	1	0.667052030563	None	None	None	None	1
1.7	2015_Jul_22_1101	s	s	4	3	SIC	361	RC	0	1	23RO	1	0	1.16202616692	-210.0	-142.0	-213	-141	1
1.7	2015_Jul_22_1101	s	s	4	3	SIC	362	RC	2	0	23VC	1	0	1.61196613312	186.0	-338.0	181	-339	1
1.7	2015_Jul_22_1101	s	s	4	3	SIC	363	ABS	1	1	24MO	0	1	1.39523911476	None	None	None	None	1
1.7	2015_Jul_22_1101	s	s	4	3	SIC	364	RC	2	1	23VO	1	0	0.623219013214	-106.0	-406.0	-102	-415	1
1.7	2015_Jul_22_1101	s	s	4	3	SIC	365	ABS	1	0	24MC	0	1	1.45339107513	None	None	None	None	1
1.7	2015_Jul_22_1101	s	s	4	3	SIC	366	ABS	2	1	24VO	0	1	1.11752200127	None	None	None	None	1
1.7	2015_Jul_22_1101	s	s	4	3	SIC	367	RC	1	1	23MO	1	0	1.57106113434	-148.0	-356.0	-151	-353	1
1.7	2015_Jul_22_1101	s	s	4	3	SIC	368	RC	2	2	23VD	1	0	0.738638877869	-250.0	339.0	-261	339	1
1.7	2015_Jul_22_1101	s	s	4	3	SIC	369	RC	0	2	23RD	1	0	0.572387933731	244.0	-411.0	242	-418	1
1.7	2015_Jul_22_1101	s	s	4	3	SIC	370	ABS	1	2	24MD	0	1	0.74928188324	None	None	None	None	1
1.7	2015_Jul_22_1101	s	s	4	3	SIC	371	ABS	2	1	24VO	0	1	1.11755418777	None	None	None	None	1
1.7	2015_Jul_22_1101	s	s	4	3	SIC	372	ABS	0	1	24RO	0	1	1.83057689667	None	None	None	None	1
1.7	2015_Jul_22_1101	s	s	4	3	SIC	373	ABS	2	0	24VC	0	1	0.70597410202	None	None	None	None	1
1.7	2015_Jul_22_1101	s	s	4	3	SIC	374	RC	2	2	23VD	1	0	0.973147153854	103.0	-97.0	98	-101	1
1.7	2015_Jul_22_1101	s	s	4	3	SIC	375	RC	1	2	23MD	1	0	0.499996900558	-470.0	-346.0	-464	-347	1
1.7	2015_Jul_22_1101	s	s	4	3	SIC	376	ABS	1	0	24MC	0	1	1.8826379776	None	None	None	None	1
1.7	2015_Jul_22_1101	s	s	4	3	SIC	377	RC	2	1	23VO	1	0	0.62099814415	206.0	-403.0	196	-399	1
1.7	2015_Jul_22_1101	s	s	4	3	SIC	378	RC	1	0	23MC	1	0	0.903604030609	-481.0	199.0	-484	186	1
1.7	2015_Jul_22_1101	s	s	4	3	SIC	379	ABS	2	2	24VD	0	1	0.606168985367	None	None	None	None	1
1.7	2015_Jul_22_1101	s	s	4	3	SIC	380	RC	0	1	23RO	0	1	3.74240994453	159.0	264.0	None	None	0
1.7	2015_Jul_22_1101	s	s	4	3	SIC	381	RC	1	1	23MO	1	0	0.717406988144	-33.0	-57.0	-21	-56	1
1.7	2015_Jul_22_1101	s	s	4	3	SIC	382	RC	2	0	23VC	1	0	0.529139995575	152.0	-201.0	142	-194	1
1.7	2015_Jul_22_1101	s	s	4	3	SIC	383	ABS	1	1	24MO	0	1	2.17192816734	None	None	None	None	1
1.7	2015_Jul_22_1101	s	s	4	3	SIC	384	ABS	0	2	24RD	0	1	0.971359014511	None	None	None	None	1
1.7	2015_Jul_22_1101	s	s	4	3	SIC	385	RC	1	1	23MO	1	0	1.23059296608	410.0	323.0	424	328	1
1.7	2015_Jul_22_1101	s	s	4	3	SIC	386	ABS	0	1	24RO	0	1	2.65481901169	None	None	None	None	1
1.7	2015_Jul_22_1101	s	s	4	3	SIC	387	ABS	2	0	24VC	0	1	0.529198169708	None	None	None	None	1
1.7	2015_Jul_22_1101	s	s	4	3	SIC	388	RC	2	1	23VO	1	0	0.61155796051	312.0	192.0	320	199	1
1.7	2015_Jul_22_1101	s	s	4	3	SIC	389	ABS	2	1	24VO	0	1	0.611378908157	None	None	None	None	1
1.7	2015_Jul_22_1101	s	s	4	3	SIC	390	ABS	0	2	24RD	0	1	0.747051000595	None	None	None	None	1
1.7	2015_Jul_22_1101	s	s	4	3	SIC	391	ABS	1	1	24MO	0	1	1.10566592216	None	None	None	None	1
1.7	2015_Jul_22_1101	s	s	4	3	SIC	392	RC	0	1	23RO	1	0	2.71599197388	496.0	44.0	493	46	1
1.7	2015_Jul_22_1101	s	s	4	3	SIC	393	RC	1	0	23MC	1	0	0.929275035858	-529.0	-95.0	-522	-99	1
1.7	2015_Jul_22_1101	s	s	4	3	SIC	394	ABS	1	0	24MC	0	1	1.4707839489	None	None	None	None	1
1.7	2015_Jul_22_1101	s	s	4	3	SIC	395	RC	0	2	23RD	1	0	0.605826854706	-183.0	215.0	-190	210	1
1.7	2015_Jul_22_1101	s	s	4	3	SIC	396	RC	2	2	23VD	1	0	0.474006175995	-510.0	-235.0	-520	-237	1
1.7	2015_Jul_22_1101	s	s	4	3	SIC	397	ABS	2	2	24VD	0	1	0.646614074707	None	None	None	None	1
1.7	2015_Jul_22_1101	s	s	4	3	SIC	398	ABS	1	2	24MD	0	1	1.37298512459	None	None	None	None	1
1.7	2015_Jul_22_1101	s	s	4	3	SIC	399	RC	1	2	23MD	1	0	0.655432939529	299.0	251.0	306	245	1
1.7	2015_Jul_22_1101	s	s	4	3	SIC	400	RC	2	0	23VC	1	0	0.49375295639	487.0	65.0	477	65	1
1.7	2015_Jul_22_1101	s	s	4	3	SIC	401	ABS	1	0	24MC	0	1	1.10580396652	None	None	None	None	1
1.7	2015_Jul_22_1101	s	s	4	3	SIC	402	RC	0	2	23RD	1	0	0.723212003708	-461.0	-252.0	-470	-255	1
1.7	2015_Jul_22_1101	s	s	4	3	SIC	403	RC	2	2	23VD	1	0	0.894388914108	186.0	156.0	182	160	1
1.7	2015_Jul_22_1101	s	s	4	3	SIC	404	RC	2	0	23VC	1	0	0.505306005478	-354.0	255.0	-338	263	1
1.7	2015_Jul_22_1101	s	s	4	3	SIC	405	ABS	2	0	24VC	0	1	0.950495004654	None	None	None	None	1
1.7	2015_Jul_22_1101	s	s	4	3	SIC	406	ABS	1	2	24MD	0	1	1.02338600159	None	None	None	None	1
1.7	2015_Jul_22_1101	s	s	4	3	SIC	407	RC	0	1	23RO	0	1	3.34856319427	69.0	119.0	None	None	0
1.7	2015_Jul_22_1101	s	s	4	3	SIC	408	ABS	2	1	24VO	0	1	0.764458179474	None	None	None	None	1
1.7	2015_Jul_22_1101	s	s	4	3	SIC	409	ABS	1	1	24MO	0	1	1.40982198715	None	None	None	None	1
1.7	2015_Jul_22_1101	s	s	4	3	SIC	410	RC	1	0	23MC	0	1	2.53014397621	221.0	-67.0	None	None	0
1.7	2015_Jul_22_1101	s	s	4	3	SIC	411	RC	1	1	23MO	1	0	1.34651517868	-28.0	-343.0	-22	-345	1
1.7	2015_Jul_22_1101	s	s	4	3	SIC	412	RC	2	1	23VO	1	0	2.16518902779	512.0	-74.0	498	-64	1
1.7	2015_Jul_22_1101	s	s	4	3	SIC	413	ABS	0	2	24RD	0	1	3.78482604027	None	None	None	None	1
1.7	2015_Jul_22_1101	s	s	4	3	SIC	414	ABS	0	1	24RO	0	1	3.60652494431	None	None	None	None	1
1.7	2015_Jul_22_1101	s	s	4	3	SIC	415	ABS	2	2	24VD	0	1	0.540858030319	None	None	None	None	1
1.7	2015_Jul_22_1101	s	s	4	3	SIC	416	RC	1	2	23MD	1	0	0.635165929794	294.0	-128.0	285	-128	1
1.7	2015_Jul_22_1101	s	s	4	3	SIC	417	RC	0	1	23RO	1	0	1.14094877243	323.0	53.0	324	63	1
1.7	2015_Jul_22_1101	s	s	4	3	SIC	418	ABS	2	1	24VO	0	1	0.705635070801	None	None	None	None	1
1.7	2015_Jul_22_1101	s	s	4	3	SIC	419	ABS	1	2	24MD	0	1	1.07978010178	None	None	None	None	1
1.7	2015_Jul_22_1101	s	s	4	3	SIC	420	ABS	2	0	24VC	0	1	0.632731199265	None	None	None	None	1
1.7	2015_Jul_22_1101	s	s	4	3	SIC	421	ABS	2	2	24VD	0	1	1.48748993874	None	None	None	None	1
1.7	2015_Jul_22_1101	s	s	4	3	SIC	422	RC	1	0	23MC	1	0	1.00732207298	-373.0	-333.0	-371	-335	1
1.7	2015_Jul_22_1101	s	s	4	3	SIC	423	RC	2	2	23VD	1	0	0.878918886185	-374.0	-297.0	-377	-296	1
1.7	2015_Jul_22_1101	s	s	4	3	SIC	424	RC	1	2	23MD	1	0	0.644208908081	-376.0	143.0	-377	143	1
1.7	2015_Jul_22_1101	s	s	4	3	SIC	425	RC	2	1	23VO	1	0	0.470237016678	-396.0	149.0	-405	158	1
1.7	2015_Jul_22_1101	s	s	4	3	SIC	426	RC	1	1	23MO	1	0	0.841512918472	539.0	-213.0	539	-220	1
1.7	2015_Jul_22_1101	s	s	4	3	SIC	427	ABS	0	2	24RD	1	0	1.02345299721	None	None	238	-341	0
1.7	2015_Jul_22_1101	s	s	4	3	SIC	428	RC	0	2	23RD	1	0	0.541054010391	-336.0	299.0	-341	297	1
1.7	2015_Jul_22_1101	s	s	4	3	SIC	429	ABS	1	1	24MO	0	1	1.06668686867	None	None	None	None	1
1.7	2015_Jul_22_1101	s	s	4	3	SIC	430	ABS	0	1	24RO	0	1	1.46825003624	None	None	None	None	1
1.7	2015_Jul_22_1101	s	s	4	3	SIC	431	RC	2	0	23VC	1	0	0.643568992615	-41.0	275.0	-38	279	1
1.7	2015_Jul_22_1101	s	s	4	3	SIC	432	ABS	1	0	24MC	0	1	0.924008131027	None	None	None	None	1
1.7	2015_Jul_22_1101	s	s	4	3	SIC	433	RC	2	1	23VO	1	0	0.491669893265	36.0	278.0	40	269	1
1.7	2015_Jul_22_1101	s	s	4	3	SIC	434	RC	2	0	23VC	1	0	0.595514059067	-342.0	-367.0	-339	-367	1
1.7	2015_Jul_22_1101	s	s	4	3	SIC	435	ABS	1	1	24MO	0	1	1.01545619965	None	None	None	None	1
1.7	2015_Jul_22_1101	s	s	4	3	SIC	436	ABS	0	1	24RO	0	1	1.54975891113	None	None	None	None	1
1.7	2015_Jul_22_1101	s	s	4	3	SIC	437	RC	2	2	23VD	1	0	0.576534032822	82.0	-139.0	80	-138	1
1.7	2015_Jul_22_1101	s	s	4	3	SIC	438	RC	1	1	23MO	1	0	0.441412210464	93.0	-29.0	84	-27	1
1.7	2015_Jul_22_1101	s	s	4	3	SIC	439	ABS	1	2	24MD	0	1	0.835134983063	None	None	None	None	1
1.7	2015_Jul_22_1101	s	s	4	3	SIC	440	RC	0	1	23RO	1	0	0.865313053131	-191.0	-74.0	-183	-71	1
1.7	2015_Jul_22_1101	s	s	4	3	SIC	441	ABS	2	0	24VC	0	1	0.701220989227	None	None	None	None	1
1.7	2015_Jul_22_1101	s	s	4	3	SIC	442	RC	1	0	23MC	0	1	0.99425983429	-468.0	359.0	None	None	0
1.7	2015_Jul_22_1101	s	s	4	3	SIC	443	ABS	2	1	24VO	0	1	0.535175085068	None	None	None	None	1
1.7	2015_Jul_22_1101	s	s	4	3	SIC	444	ABS	2	2	24VD	0	1	0.7008061409	None	None	None	None	1
1.7	2015_Jul_22_1101	s	s	4	3	SIC	445	RC	0	2	23RD	1	0	0.77072095871	338.0	326.0	336	331	1
1.7	2015_Jul_22_1101	s	s	4	3	SIC	446	RC	1	2	23MD	1	0	0.540683031082	41.0	99.0	56	107	1
1.7	2015_Jul_22_1101	s	s	4	3	SIC	447	ABS	1	0	24MC	0	1	1.64009809494	None	None	None	None	1
1.7	2015_Jul_22_1101	s	s	4	3	SIC	448	ABS	0	2	24RD	0	1	0.583041906357	None	None	None	None	1
1.7	2015_Jul_22_1101	s	s	4	3	SIC	449	ABS	0	1	24RO	0	1	1.54123878479	None	None	None	None	1
1.7	2015_Jul_22_1101	s	s	4	3	SIC	450	ABS	2	1	24VO	0	1	0.653862953186	None	None	None	None	1
1.7	2015_Jul_22_1101	s	s	4	3	SIC	451	RC	2	1	23VO	1	0	0.540719032288	-364.0	-56.0	-370	-65	1
1.7	2015_Jul_22_1101	s	s	4	3	SIC	452	ABS	1	1	24MO	0	1	1.1529109478	None	None	None	None	1
1.7	2015_Jul_22_1101	s	s	4	3	SIC	453	ABS	1	0	24MC	0	1	3.00119900703	None	None	None	None	1
1.7	2015_Jul_22_1101	s	s	4	3	SIC	454	ABS	2	2	24VD	0	1	0.688740968704	None	None	None	None	1
1.7	2015_Jul_22_1101	s	s	4	3	SIC	455	ABS	2	0	24VC	0	1	0.740946054459	None	None	None	None	1
1.7	2015_Jul_22_1101	s	s	4	3	SIC	456	RC	2	0	23VC	1	0	0.924060821533	438.0	-360.0	452	-352	1
1.7	2015_Jul_22_1101	s	s	4	3	SIC	457	RC	1	1	23MO	1	0	0.841514825821	-177.0	105.0	-173	104	1
1.7	2015_Jul_22_1101	s	s	4	3	SIC	458	RC	0	2	23RD	1	0	0.628980875015	-477.0	353.0	-480	346	1
1.7	2015_Jul_22_1101	s	s	4	3	SIC	459	ABS	0	2	24RD	0	1	0.784821033478	None	None	None	None	1
1.7	2015_Jul_22_1101	s	s	4	3	SIC	460	RC	1	0	23MC	1	0	0.574043035507	-234.0	152.0	-227	149	1
1.7	2015_Jul_22_1101	s	s	4	3	SIC	461	RC	1	2	23MD	1	0	0.482043027878	191.0	43.0	183	40	1
1.7	2015_Jul_22_1101	s	s	4	3	SIC	462	RC	0	1	23RO	1	0	1.69821310043	-26.0	61.0	-33	65	1
1.7	2015_Jul_22_1101	s	s	4	3	SIC	463	ABS	1	2	24MD	0	1	0.88888001442	None	None	None	None	1
1.7	2015_Jul_22_1101	s	s	4	3	SIC	464	RC	2	2	23VD	1	0	0.736297130585	486.0	-195.0	476	-194	1
1.7	2015_Jul_22_1101	s	s	4	3	SIC	465	RC	2	2	23VD	1	0	0.490042924881	-409.0	349.0	-402	348	1
1.7	2015_Jul_22_1101	s	s	4	3	SIC	466	RC	1	1	23MO	1	0	0.725700855255	322.0	-11.0	335	-4	1
1.7	2015_Jul_22_1101	s	s	4	3	SIC	467	ABS	2	1	24VO	0	1	0.693931102753	None	None	None	None	1
1.7	2015_Jul_22_1101	s	s	4	3	SIC	468	RC	1	0	23MC	1	0	1.51778411865	-482.0	-76.0	-475	-72	1
1.7	2015_Jul_22_1101	s	s	4	3	SIC	469	RC	0	2	23RD	1	0	0.453527212143	271.0	71.0	274	70	1
1.7	2015_Jul_22_1101	s	s	4	3	SIC	470	ABS	1	1	24MO	0	1	1.12706708908	None	None	None	None	1
1.7	2015_Jul_22_1101	s	s	4	3	SIC	471	ABS	1	0	24MC	0	1	1.50618696213	None	None	None	None	1
1.7	2015_Jul_22_1101	s	s	4	3	SIC	472	ABS	2	2	24VD	0	1	0.893894195557	None	None	None	None	1
1.7	2015_Jul_22_1101	s	s	4	3	SIC	473	ABS	2	0	24VC	0	1	0.729624986649	None	None	None	None	1
1.7	2015_Jul_22_1101	s	s	4	3	SIC	474	ABS	1	2	24MD	0	1	1.04693508148	None	None	None	None	1
1.7	2015_Jul_22_1101	s	s	4	3	SIC	475	RC	2	1	23VO	1	0	0.929724931717	145.0	63.0	149	73	1
1.7	2015_Jul_22_1101	s	s	4	3	SIC	476	RC	0	1	23RO	0	1	1.79217910767	451.0	-395.0	None	None	0
1.7	2015_Jul_22_1101	s	s	4	3	SIC	477	ABS	0	1	24RO	0	1	3.03410100937	None	None	None	None	1
1.7	2015_Jul_22_1101	s	s	4	3	SIC	478	ABS	0	2	24RD	0	1	1.38258886337	None	None	None	None	1
1.7	2015_Jul_22_1101	s	s	4	3	SIC	479	RC	1	2	23MD	1	0	0.740787982941	-154.0	-336.0	-142	-332	1
1.7	2015_Jul_22_1101	s	s	4	3	SIC	480	RC	2	0	23VC	1	0	0.746845960617	233.0	-42.0	225	-44	1
1.7	2015_Jul_22_1101	s	s	4	3	SIC	481	RC	2	1	23VO	1	0	1.4471809864	83.0	-37.0	69	-31	1
1.7	2015_Jul_22_1101	s	s	4	3	SIC	482	ABS	2	1	24VO	0	1	0.870409011841	None	None	None	None	1
1.7	2015_Jul_22_1101	s	s	4	3	SIC	483	RC	2	2	23VD	1	0	0.606860876083	61.0	361.0	53	365	1
1.7	2015_Jul_22_1101	s	s	4	3	SIC	484	RC	0	1	23RO	1	0	4.09055709839	-259.0	191.0	-257	177	1
1.7	2015_Jul_22_1101	s	s	4	3	SIC	485	ABS	0	1	24RO	0	1	3.02437210083	None	None	None	None	1
1.7	2015_Jul_22_1101	s	s	4	3	SIC	486	ABS	0	2	24RD	0	1	2.96602988243	None	None	None	None	1
1.7	2015_Jul_22_1101	s	s	4	3	SIC	487	RC	1	0	23MC	1	0	0.803581953049	269.0	-175.0	279	-171	1
1.7	2015_Jul_22_1101	s	s	4	3	SIC	488	ABS	1	2	24MD	0	1	1.31216096878	None	None	None	None	1
1.7	2015_Jul_22_1101	s	s	4	3	SIC	489	RC	1	1	23MO	1	0	0.693742990494	-253.0	-373.0	-254	-376	1
1.7	2015_Jul_22_1101	s	s	4	3	SIC	490	ABS	2	0	24VC	0	1	0.921327114105	None	None	None	None	1
1.7	2015_Jul_22_1101	s	s	4	3	SIC	491	ABS	1	1	24MO	0	1	1.18283295631	None	None	None	None	1
1.7	2015_Jul_22_1101	s	s	4	3	SIC	492	RC	1	2	23MD	1	0	2.2657661438	53.0	-132.0	50	-141	1
1.7	2015_Jul_22_1101	s	s	4	3	SIC	493	RC	0	2	23RD	1	0	2.56542491913	-398.0	-327.0	-388	-329	1
1.7	2015_Jul_22_1101	s	s	4	3	SIC	494	ABS	1	0	24MC	0	1	1.60642790794	None	None	None	None	1
1.7	2015_Jul_22_1101	s	s	4	3	SIC	495	ABS	2	2	24VD	0	1	1.54134917259	None	None	None	None	1
1.7	2015_Jul_22_1101	s	s	4	3	SIC	496	RC	2	0	23VC	1	0	0.651932001114	177.0	171.0	172	176	1
1.7	2015_Jul_22_1101	s	s	4	3	SIC	497	ABS	1	1	24MO	0	1	4.90774297714	None	None	None	None	1
1.7	2015_Jul_22_1101	s	s	4	3	SIC	498	RC	1	0	23MC	1	0	0.905737876892	-115.0	111.0	-127	116	1
1.7	2015_Jul_22_1101	s	s	4	3	SIC	499	ABS	0	1	24RO	0	1	2.52500414848	None	None	None	None	1
1.7	2015_Jul_22_1101	s	s	4	3	SIC	500	ABS	2	0	24VC	0	1	1.28243303299	None	None	None	None	1
1.7	2015_Jul_22_1101	s	s	4	3	SIC	501	ABS	1	0	24MC	0	1	1.29415011406	None	None	None	None	1
1.7	2015_Jul_22_1101	s	s	4	3	SIC	502	ABS	0	2	24RD	0	1	0.949609994888	None	None	None	None	1
1.7	2015_Jul_22_1101	s	s	4	3	SIC	503	ABS	2	1	24VO	0	1	1.55299806595	None	None	None	None	1
1.7	2015_Jul_22_1101	s	s	4	3	SIC	504	RC	2	2	23VD	1	0	1.11498403549	-413.0	-58.0	-421	-59	1
1.7	2015_Jul_22_1101	s	s	4	3	SIC	505	RC	2	1	23VO	0	1	1.48240089417	400.0	159.0	None	None	0
1.7	2015_Jul_22_1101	s	s	4	3	SIC	506	RC	0	1	23RO	0	1	1.71451497078	-202.0	-362.0	None	None	0
1.7	2015_Jul_22_1101	s	s	4	3	SIC	507	RC	2	0	23VC	1	0	0.599623203278	59.0	-339.0	67	-339	1
1.7	2015_Jul_22_1101	s	s	4	3	SIC	508	RC	1	1	23MO	1	0	2.0537340641	-290.0	361.0	-286	355	1
1.7	2015_Jul_22_1101	s	s	4	3	SIC	509	ABS	2	2	24VD	0	1	2.81258201599	None	None	None	None	1
1.7	2015_Jul_22_1101	s	s	4	3	SIC	510	ABS	1	2	24MD	0	1	1.26857185364	None	None	None	None	1
1.7	2015_Jul_22_1101	s	s	4	3	SIC	511	RC	1	2	23MD	1	0	0.717283964157	144.0	-74.0	142	-68	1
1.7	2015_Jul_22_1101	s	s	4	3	SIC	512	RC	0	2	23RD	1	0	1.15294885635	-535.0	-295.0	-536	-295	1
1.7	2015_Jul_22_1101	s	s	4	3	SIC	513	ABS	1	0	24MC	0	1	1.18297696114	None	None	None	None	1
1.7	2015_Jul_22_1101	s	s	4	3	SIC	514	RC	2	1	23VO	1	0	0.529047012329	-286.0	-173.0	-293	-179	1
1.7	2015_Jul_22_1101	s	s	4	3	SIC	515	ABS	0	2	24RD	0	1	1.22351098061	None	None	None	None	1
1.7	2015_Jul_22_1101	s	s	4	3	SIC	516	RC	1	0	23MC	1	0	1.54132604599	223.0	-151.0	221	-161	1
1.7	2015_Jul_22_1101	s	s	4	3	SIC	517	RC	0	1	23RO	1	0	0.988178014755	-174.0	-58.0	-182	-64	1
1.7	2015_Jul_22_1101	s	s	4	3	SIC	518	RC	1	1	23MO	1	0	0.617820978165	249.0	217.0	240	214	1
1.7	2015_Jul_22_1101	s	s	4	3	SIC	519	ABS	1	1	24MO	0	1	1.81213092804	None	None	None	None	1
1.7	2015_Jul_22_1101	s	s	4	3	SIC	520	ABS	0	1	24RO	0	1	5.60725212097	None	None	None	None	1
1.7	2015_Jul_22_1101	s	s	4	3	SIC	521	RC	2	0	23VC	1	0	0.529034137726	344.0	-246.0	339	-252	1
1.7	2015_Jul_22_1101	s	s	4	3	SIC	522	RC	2	2	23VD	1	0	0.505549907684	423.0	253.0	417	254	1
1.7	2015_Jul_22_1101	s	s	4	3	SIC	523	ABS	2	1	24VO	0	1	0.882154941559	None	None	None	None	1
1.7	2015_Jul_22_1101	s	s	4	3	SIC	524	RC	0	2	23RD	1	0	0.858695983887	83.0	-361.0	92	-362	1
1.7	2015_Jul_22_1101	s	s	4	3	SIC	525	ABS	2	2	24VD	0	1	0.87034702301	None	None	None	None	1
1.7	2015_Jul_22_1101	s	s	4	3	SIC	526	ABS	2	0	24VC	0	1	1.76490902901	None	None	None	None	1
1.7	2015_Jul_22_1101	s	s	4	3	SIC	527	ABS	1	2	24MD	0	1	0.788027048111	None	None	None	None	1
1.7	2015_Jul_22_1101	s	s	4	3	SIC	528	RC	1	2	23MD	1	0	0.752990961075	-354.0	-173.0	-339	-167	1
1.7	2015_Jul_22_1101	s	s	4	3	SIC	529	ABS	1	2	24MD	0	1	0.924289941788	None	None	None	None	1
1.7	2015_Jul_22_1101	s	s	4	3	SIC	530	ABS	0	1	24RO	0	1	2.37205791473	None	None	None	None	1
1.7	2015_Jul_22_1101	s	s	4	3	SIC	531	RC	2	2	23VD	1	0	0.711759805679	447.0	272.0	440	278	1
1.7	2015_Jul_22_1101	s	s	4	3	SIC	532	RC	2	0	23VC	1	0	0.477349042892	99.0	157.0	88	158	1
1.7	2015_Jul_22_1101	s	s	4	3	SIC	533	ABS	2	0	24VC	0	1	1.25883603096	None	None	None	None	1
1.7	2015_Jul_22_1101	s	s	4	3	SIC	534	ABS	0	2	24RD	0	1	0.729153871536	None	None	None	None	1
1.7	2015_Jul_22_1101	s	s	4	3	SIC	535	ABS	2	1	24VO	0	1	0.75257396698	None	None	None	None	1
1.7	2015_Jul_22_1101	s	s	4	3	SIC	536	RC	0	1	23RO	1	0	1.64370203018	64.0	306.0	65	305	1
1.7	2015_Jul_22_1101	s	s	4	3	SIC	537	RC	1	2	23MD	1	0	0.526613950729	380.0	3.0	380	8	1
1.7	2015_Jul_22_1101	s	s	4	3	SIC	538	RC	0	2	23RD	1	0	0.477099180222	-338.0	164.0	-333	162	1
1.7	2015_Jul_22_1101	s	s	4	3	SIC	539	ABS	1	1	24MO	0	1	1.16467189789	None	None	None	None	1
1.7	2015_Jul_22_1101	s	s	4	3	SIC	540	RC	1	0	23MC	1	0	1.60502791405	-383.0	245.0	-382	244	1
1.7	2015_Jul_22_1101	s	s	4	3	SIC	541	ABS	1	0	24MC	0	1	2.50639915466	None	None	None	None	1
1.7	2015_Jul_22_1101	s	s	4	3	SIC	542	RC	2	1	23VO	1	0	1.12737107277	33.0	-133.0	22	-127	1
1.7	2015_Jul_22_1101	s	s	4	3	SIC	543	RC	1	1	23MO	1	0	0.823352098465	263.0	217.0	260	220	1
1.7	2015_Jul_22_1101	s	s	4	3	SIC	544	ABS	2	2	24VD	1	0	0.517228126526	None	None	177	-412	0
1.7	2015_Jul_22_1101	s	s	4	3	SIC	545	ABS	1	2	24MD	0	1	0.561800956726	None	None	None	None	1
1.7	2015_Jul_22_1101	s	s	4	3	SIC	546	RC	1	0	23MC	1	0	1.45890402794	-112.0	-316.0	-118	-318	1
1.7	2015_Jul_22_1101	s	s	4	3	SIC	547	ABS	2	2	24VD	0	1	0.573544979095	None	None	None	None	1
1.7	2015_Jul_22_1101	s	s	4	3	SIC	548	ABS	0	1	24RO	0	1	4.01316285133	None	None	None	None	1
1.7	2015_Jul_22_1101	s	s	4	3	SIC	549	RC	2	1	23VO	1	0	0.540781021118	-154.0	106.0	-142	116	1
1.7	2015_Jul_22_1101	s	s	4	3	SIC	550	ABS	1	1	24MO	0	1	2.59430408478	None	None	None	None	1
1.7	2015_Jul_22_1101	s	s	4	3	SIC	551	RC	1	2	23MD	1	0	0.502314090729	348.0	-235.0	342	-227	1
1.7	2015_Jul_22_1101	s	s	4	3	SIC	552	RC	0	2	23RD	1	0	0.596385955811	-357.0	-62.0	-363	-63	1
1.7	2015_Jul_22_1101	s	s	4	3	SIC	553	ABS	2	1	24VO	0	1	0.678549051285	None	None	None	None	1
1.7	2015_Jul_22_1101	s	s	4	3	SIC	554	RC	2	2	23VD	1	0	0.564340829849	468.0	235.0	476	238	1
1.7	2015_Jul_22_1101	s	s	4	3	SIC	555	RC	0	1	23RO	1	0	2.13821196556	335.0	178.0	350	184	1
1.7	2015_Jul_22_1101	s	s	4	3	SIC	556	ABS	2	0	24VC	0	1	0.994657039642	None	None	None	None	1
1.7	2015_Jul_22_1101	s	s	4	3	SIC	557	RC	1	1	23MO	1	0	0.679952859879	-22.0	-238.0	-9	-233	1
1.7	2015_Jul_22_1101	s	s	4	3	SIC	558	ABS	0	2	24RD	0	1	0.623272895813	None	None	None	None	1
1.7	2015_Jul_22_1101	s	s	4	3	SIC	559	ABS	1	0	24MC	0	1	1.67889714241	None	None	None	None	1
1.7	2015_Jul_22_1101	s	s	4	3	SIC	560	RC	2	0	23VC	1	0	0.61147403717	255.0	101.0	252	111	1
1.7	2015_Jul_22_1101	s	s	4	3	SIC	561	RC	1	2	23MD	1	0	0.493803977966	-371.0	2.0	-371	5	1
1.7	2015_Jul_22_1101	s	s	4	3	SIC	562	RC	2	0	23VC	1	0	0.466953039169	-539.0	-134.0	-548	-136	1
1.7	2015_Jul_22_1101	s	s	4	3	SIC	563	ABS	2	1	24VO	0	1	0.70566701889	None	None	None	None	1
1.7	2015_Jul_22_1101	s	s	4	3	SIC	564	RC	1	0	23MC	1	0	0.670387983322	-262.0	118.0	-248	128	1
1.7	2015_Jul_22_1101	s	s	4	3	SIC	565	ABS	0	1	24RO	0	1	1.98629283905	None	None	None	None	1
1.7	2015_Jul_22_1101	s	s	4	3	SIC	566	RC	2	1	23VO	1	0	0.562178134918	299.0	-203.0	300	-204	1
1.7	2015_Jul_22_1101	s	s	4	3	SIC	567	RC	0	2	23RD	1	0	0.453829050064	-477.0	-215.0	-485	-218	1
1.7	2015_Jul_22_1101	s	s	4	3	SIC	568	ABS	2	0	24VC	0	1	0.605087995529	None	None	None	None	1
1.7	2015_Jul_22_1101	s	s	4	3	SIC	569	ABS	1	0	24MC	0	1	1.74148893356	None	None	None	None	1
1.7	2015_Jul_22_1101	s	s	4	3	SIC	570	ABS	2	2	24VD	0	1	0.658384084702	None	None	None	None	1
1.7	2015_Jul_22_1101	s	s	4	3	SIC	571	RC	0	1	23RO	1	0	1.86805701256	-395.0	312.0	-383	319	1
1.7	2015_Jul_22_1101	s	s	4	3	SIC	572	RC	2	2	23VD	1	0	0.500565052032	-331.0	-276.0	-336	-275	1
1.7	2015_Jul_22_1101	s	s	4	3	SIC	573	ABS	1	2	24MD	0	1	0.92698097229	None	None	None	None	1
1.7	2015_Jul_22_1101	s	s	4	3	SIC	574	RC	1	1	23MO	0	1	1.35301804543	-140.0	396.0	None	None	0
1.7	2015_Jul_22_1101	s	s	4	3	SIC	575	ABS	1	1	24MO	0	1	1.59537506104	None	None	None	None	1
1.7	2015_Jul_22_1101	s	s	4	3	SIC	576	ABS	0	2	24RD	0	1	0.97248506546	None	None	None	None	1
1.7	2015_Jul_22_1101	s	s	4	3	SIC	577	RC	1	2	23MD	1	0	1.58505916595	127.0	244.0	132	250	1
1.7	2015_Jul_22_1101	s	s	4	3	SIC	578	RC	1	0	23MC	1	0	0.890857934952	49.0	-222.0	48	-236	1
1.7	2015_Jul_22_1101	s	s	4	3	SIC	579	ABS	1	0	24MC	0	1	1.48247790337	None	None	None	None	1
1.7	2015_Jul_22_1101	s	s	4	3	SIC	580	ABS	0	1	24RO	0	1	2.93049788475	None	None	None	None	1
1.7	2015_Jul_22_1101	s	s	4	3	SIC	581	RC	2	0	23VC	1	0	0.750763893127	-41.0	-181.0	-42	-179	1
1.7	2015_Jul_22_1101	s	s	4	3	SIC	582	ABS	0	2	24RD	0	1	0.925824165344	None	None	None	None	1
1.7	2015_Jul_22_1101	s	s	4	3	SIC	583	ABS	1	2	24MD	0	1	0.68204498291	None	None	None	None	1
1.7	2015_Jul_22_1101	s	s	4	3	SIC	584	ABS	1	1	24MO	0	1	1.34989500046	None	None	None	None	1
1.7	2015_Jul_22_1101	s	s	4	3	SIC	585	ABS	2	1	24VO	0	1	0.608985900879	None	None	None	None	1
1.7	2015_Jul_22_1101	s	s	4	3	SIC	586	RC	2	2	23VD	1	0	0.576106071472	49.0	-152.0	60	-152	1
1.7	2015_Jul_22_1101	s	s	4	3	SIC	587	RC	0	1	23RO	1	0	1.90622115135	-117.0	390.0	-112	386	1
1.7	2015_Jul_22_1101	s	s	4	3	SIC	588	ABS	2	0	24VC	0	1	0.819016933441	None	None	None	None	1
1.7	2015_Jul_22_1101	s	s	4	3	SIC	589	RC	2	1	23VO	1	0	0.58574795723	-111.0	-61.0	-106	-51	1
1.7	2015_Jul_22_1101	s	s	4	3	SIC	590	RC	0	2	23RD	1	0	0.717466115952	-334.0	170.0	-336	175	1
1.7	2015_Jul_22_1101	s	s	4	3	SIC	591	RC	1	1	23MO	1	0	0.552608966827	-387.0	-3.0	-394	-10	1
1.7	2015_Jul_22_1101	s	s	4	3	SIC	592	ABS	2	2	24VD	0	1	0.841902017593	None	None	None	None	1
