Version	Date	Stimuli	Method	Subject	Session	Condition	Trial	Target	Channel1	Channel2	Distractors	LMouseButton	RMouseButton	RT	TargetX	TargetY	ResponseX	ResponseY	Correct
1.7	2015_Jul_21_1053	s	s	4	2	Capacity	1	RC	0	1	23RO	0	1	2.65380907059	-153.0	-223.0	None	None	0
1.7	2015_Jul_21_1053	s	s	4	2	Capacity	2	ABS	0	1	24RO	0	1	3.47160196304	None	None	None	None	1
1.7	2015_Jul_21_1053	s	s	4	2	Capacity	3	RC	0	2	23RD	1	0	0.540946960449	51.0	92.0	54	83	1
1.7	2015_Jul_21_1053	s	s	4	2	Capacity	4	ABS	0	2	24RD	0	1	0.864875078201	None	None	None	None	1
1.7	2015_Jul_21_1053	s	s	4	2	Capacity	5	ABS	0	2	24RD	0	1	0.964563131332	None	None	None	None	1
1.7	2015_Jul_21_1053	s	s	4	2	Capacity	6	RC	0	1	23RO	1	0	1.40680003166	-406.0	275.0	-398	274	1
1.7	2015_Jul_21_1053	s	s	4	2	Capacity	7	ABS	0	1	24RO	0	1	2.91048693657	None	None	None	None	1
1.7	2015_Jul_21_1053	s	s	4	2	Capacity	8	RC	0	2	23RD	1	0	0.0674889087677	487.0	-337.0	60	42	0
1.7	2015_Jul_21_1053	s	s	4	2	Capacity	9	RC	0	2	23RD	1	0	1.31768608093	-265.0	-200.0	-261	-203	1
1.7	2015_Jul_21_1053	s	s	4	2	Capacity	10	ABS	0	2	24RD	0	1	0.90202498436	None	None	None	None	1
1.7	2015_Jul_21_1053	s	s	4	2	Capacity	11	RC	0	1	23RO	0	1	3.51892209053	218.0	-52.0	None	None	0
1.7	2015_Jul_21_1053	s	s	4	2	Capacity	12	ABS	0	1	24RO	0	1	5.66108798981	None	None	None	None	1
1.7	2015_Jul_21_1053	s	s	4	2	Capacity	13	RC	0	1	23RO	1	0	2.48293805122	176.0	240.0	171	235	1
1.7	2015_Jul_21_1053	s	s	4	2	Capacity	14	ABS	0	2	24RD	0	1	1.22354602814	None	None	None	None	1
1.7	2015_Jul_21_1053	s	s	4	2	Capacity	15	RC	0	2	23RD	1	0	0.744714021683	-272.0	-233.0	-265	-240	1
1.7	2015_Jul_21_1053	s	s	4	2	Capacity	16	ABS	0	1	24RO	0	1	4.89111304283	None	None	None	None	1
1.7	2015_Jul_21_1053	s	s	4	2	Capacity	17	ABS	0	2	24RD	0	1	0.917443037033	None	None	None	None	1
1.7	2015_Jul_21_1053	s	s	4	2	Capacity	18	RC	0	2	23RD	1	0	0.748064041138	266.0	-398.0	264	-399	1
1.7	2015_Jul_21_1053	s	s	4	2	Capacity	19	ABS	0	1	24RO	0	1	3.57758021355	None	None	None	None	1
1.7	2015_Jul_21_1053	s	s	4	2	Capacity	20	RC	0	1	23RO	1	0	0.757899045944	42.0	-79.0	32	-81	1
1.7	2015_Jul_21_1053	s	s	4	2	Capacity	21	ABS	0	1	24RO	0	1	4.18476700783	None	None	None	None	1
1.7	2015_Jul_21_1053	s	s	4	2	Capacity	22	ABS	0	2	24RD	0	1	0.940989971161	None	None	None	None	1
1.7	2015_Jul_21_1053	s	s	4	2	Capacity	23	RC	0	1	23RO	1	0	1.29422020912	-525.0	25.0	-523	35	1
1.7	2015_Jul_21_1053	s	s	4	2	Capacity	24	RC	0	2	23RD	1	0	0.658584117889	484.0	227.0	486	219	1
1.7	2015_Jul_21_1053	s	s	4	2	Capacity	25	RC	0	1	23RO	1	0	4.18175506592	-389.0	306.0	-392	315	1
1.7	2015_Jul_21_1053	s	s	4	2	Capacity	26	RC	0	2	23RD	1	0	0.690304994583	-322.0	69.0	-312	77	1
1.7	2015_Jul_21_1053	s	s	4	2	Capacity	27	ABS	0	2	24RD	0	1	0.973706960678	None	None	None	None	1
1.7	2015_Jul_21_1053	s	s	4	2	Capacity	28	ABS	0	1	24RO	0	1	4.28391098976	None	None	None	None	1
1.7	2015_Jul_21_1053	s	s	4	2	Capacity	29	ABS	0	2	24RD	0	1	1.15892004967	None	None	None	None	1
1.7	2015_Jul_21_1053	s	s	4	2	Capacity	30	RC	0	1	23RO	1	0	1.89144802094	-430.0	345.0	-428	336	1
1.7	2015_Jul_21_1053	s	s	4	2	Capacity	31	RC	0	2	23RD	1	0	0.595264911652	44.0	202.0	51	201	1
1.7	2015_Jul_21_1053	s	s	4	2	Capacity	32	ABS	0	1	24RO	0	1	4.10726308823	None	None	None	None	1
1.7	2015_Jul_21_1053	s	s	4	2	Capacity	33	RC	0	2	23RD	1	0	1.20921111107	-160.0	346.0	-154	346	1
1.7	2015_Jul_21_1053	s	s	4	2	Capacity	34	ABS	0	1	24RO	0	1	4.07654809952	None	None	None	None	1
1.7	2015_Jul_21_1053	s	s	4	2	Capacity	35	RC	0	1	23RO	1	0	3.2196969986	275.0	48.0	284	51	1
1.7	2015_Jul_21_1053	s	s	4	2	Capacity	36	ABS	0	2	24RD	0	1	1.01695990562	None	None	None	None	1
1.7	2015_Jul_21_1053	s	s	4	2	Capacity	37	RC	0	1	23RO	1	0	2.83330488205	360.0	23.0	357	23	1
1.7	2015_Jul_21_1053	s	s	4	2	Capacity	38	ABS	0	2	24RD	0	1	0.874069929123	None	None	None	None	1
1.7	2015_Jul_21_1053	s	s	4	2	Capacity	39	RC	0	2	23RD	1	0	0.725084066391	-286.0	88.0	-289	79	1
1.7	2015_Jul_21_1053	s	s	4	2	Capacity	40	ABS	0	1	24RO	0	1	4.51923799515	None	None	None	None	1
1.7	2015_Jul_21_1053	s	s	4	2	Capacity	41	ABS	0	2	24RD	0	1	1.09930586815	None	None	None	None	1
1.7	2015_Jul_21_1053	s	s	4	2	Capacity	42	ABS	0	1	24RO	0	1	4.83441400528	None	None	None	None	1
1.7	2015_Jul_21_1053	s	s	4	2	Capacity	43	RC	0	1	23RO	1	0	3.90719890594	8.0	308.0	4	308	1
1.7	2015_Jul_21_1053	s	s	4	2	Capacity	44	RC	0	2	23RD	1	0	0.735769987106	336.0	-176.0	340	-168	1
1.7	2015_Jul_21_1053	s	s	4	2	Capacity	45	ABS	0	2	24RD	0	1	0.98303103447	None	None	None	None	1
1.7	2015_Jul_21_1053	s	s	4	2	Capacity	46	ABS	0	1	24RO	0	1	6.2613260746	None	None	None	None	1
1.7	2015_Jul_21_1053	s	s	4	2	Capacity	47	RC	0	1	23RO	1	0	1.35014009476	209.0	-15.0	195	-8	1
1.7	2015_Jul_21_1053	s	s	4	2	Capacity	48	RC	0	2	23RD	1	0	1.01171016693	-220.0	-376.0	-224	-370	1
1.7	2015_Jul_21_1053	s	s	4	2	Capacity	49	ABS	0	1	24RO	0	1	3.73062109947	None	None	None	None	1
1.7	2015_Jul_21_1053	s	s	4	2	Capacity	50	RC	0	1	23RO	1	0	0.800252914429	-196.0	-224.0	-195	-223	1
1.7	2015_Jul_21_1053	s	s	4	2	Capacity	51	ABS	0	2	24RD	0	1	2.56302499771	None	None	None	None	1
1.7	2015_Jul_21_1053	s	s	4	2	Capacity	52	RC	0	2	23RD	1	0	0.651684045792	-289.0	-391.0	-293	-389	1
1.7	2015_Jul_21_1053	s	s	4	2	Capacity	53	ABS	0	2	24RD	0	1	0.796933889389	None	None	None	None	1
1.7	2015_Jul_21_1053	s	s	4	2	Capacity	54	RC	0	2	23RD	1	0	0.73605298996	-113.0	-373.0	-123	-374	1
1.7	2015_Jul_21_1053	s	s	4	2	Capacity	55	ABS	0	1	24RO	0	1	4.20782399178	None	None	None	None	1
1.7	2015_Jul_21_1053	s	s	4	2	Capacity	56	RC	0	1	23RO	0	1	6.26129698753	-194.0	176.0	None	None	0
1.7	2015_Jul_21_1053	s	s	4	2	Capacity	57	ABS	0	1	24RO	0	1	4.51968502998	None	None	None	None	1
1.7	2015_Jul_21_1053	s	s	4	2	Capacity	58	RC	0	1	23RO	0	1	2.730052948	-333.0	78.0	None	None	0
1.7	2015_Jul_21_1053	s	s	4	2	Capacity	59	ABS	0	2	24RD	0	1	0.852157115936	None	None	None	None	1
1.7	2015_Jul_21_1053	s	s	4	2	Capacity	60	RC	0	2	23RD	1	0	0.540788888931	-269.0	-141.0	-262	-144	1
1.7	2015_Jul_21_1053	s	s	4	2	Capacity	61	ABS	0	2	24RD	0	1	0.823384046555	None	None	None	None	1
1.7	2015_Jul_21_1053	s	s	4	2	Capacity	62	RC	0	1	23RO	1	0	1.23522210121	189.0	-305.0	187	-306	1
1.7	2015_Jul_21_1053	s	s	4	2	Capacity	63	RC	0	2	23RD	1	0	0.587824821472	-217.0	-374.0	-219	-380	1
1.7	2015_Jul_21_1053	s	s	4	2	Capacity	64	ABS	0	1	24RO	0	1	4.35451102257	None	None	None	None	1
1.7	2015_Jul_21_1053	s	s	4	2	Capacity	65	ABS	0	1	24RO	0	1	4.19814300537	None	None	None	None	1
1.7	2015_Jul_21_1053	s	s	4	2	Capacity	66	ABS	0	2	24RD	0	1	1.27744483948	None	None	None	None	1
1.7	2015_Jul_21_1053	s	s	4	2	Capacity	67	RC	0	1	23RO	1	0	2.18870401382	108.0	372.0	118	374	1
1.7	2015_Jul_21_1053	s	s	4	2	Capacity	68	RC	0	2	23RD	1	0	0.587873935699	79.0	322.0	80	316	1
1.7	2015_Jul_21_1053	s	s	4	2	Capacity	69	RC	0	2	23RD	1	0	1.02350783348	58.0	-411.0	64	-419	1
1.7	2015_Jul_21_1053	s	s	4	2	Capacity	70	RC	0	1	23RO	1	0	1.62115097046	517.0	-174.0	515	-165	1
1.7	2015_Jul_21_1053	s	s	4	2	Capacity	71	ABS	0	2	24RD	0	1	3.17009520531	None	None	None	None	1
1.7	2015_Jul_21_1053	s	s	4	2	Capacity	72	ABS	0	1	24RO	0	1	6.87343406677	None	None	None	None	1
1.7	2015_Jul_21_1053	s	s	4	2	Capacity	73	ABS	0	1	24RO	0	1	3.22435092926	None	None	None	None	1
1.7	2015_Jul_21_1053	s	s	4	2	Capacity	74	RC	0	2	23RD	1	0	0.693803071976	-520.0	164.0	-524	161	1
1.7	2015_Jul_21_1053	s	s	4	2	Capacity	75	ABS	0	2	24RD	0	1	1.18489694595	None	None	None	None	1
1.7	2015_Jul_21_1053	s	s	4	2	Capacity	76	RC	0	1	23RO	1	0	1.25877904892	438.0	-255.0	449	-255	1
1.7	2015_Jul_21_1053	s	s	4	2	Capacity	77	RC	0	1	23RO	1	0	1.34860992432	-281.0	-273.0	-271	-267	1
1.7	2015_Jul_21_1053	s	s	4	2	Capacity	78	ABS	0	1	24RO	0	1	5.01073288918	None	None	None	None	1
1.7	2015_Jul_21_1053	s	s	4	2	Capacity	79	ABS	0	2	24RD	0	1	0.682497024536	None	None	None	None	1
1.7	2015_Jul_21_1053	s	s	4	2	Capacity	80	RC	0	2	23RD	1	0	0.620000839233	336.0	-365.0	338	-381	1
1.7	2015_Jul_21_1053	s	s	4	2	Capacity	81	RC	0	1	23RO	1	0	3.60783791542	-217.0	-231.0	-212	-239	1
1.7	2015_Jul_21_1053	s	s	4	2	Capacity	82	ABS	0	1	24RO	0	1	3.04250192642	None	None	None	None	1
1.7	2015_Jul_21_1053	s	s	4	2	Capacity	83	ABS	0	2	24RD	0	1	1.27818894386	None	None	None	None	1
1.7	2015_Jul_21_1053	s	s	4	2	Capacity	84	RC	0	2	23RD	1	0	0.623200893402	-508.0	45.0	-516	49	1
1.7	2015_Jul_21_1053	s	s	4	2	Capacity	85	RC	0	2	23RD	1	0	0.583112955093	-134.0	-265.0	-127	-271	1
1.7	2015_Jul_21_1053	s	s	4	2	Capacity	86	ABS	0	2	24RD	0	1	0.882127046585	None	None	None	None	1
1.7	2015_Jul_21_1053	s	s	4	2	Capacity	87	ABS	0	1	24RO	0	1	3.68973708153	None	None	None	None	1
1.7	2015_Jul_21_1053	s	s	4	2	Capacity	88	RC	0	1	23RO	1	0	1.24690794945	-80.0	-196.0	-73	-193	1
1.7	2015_Jul_21_1053	s	s	4	2	Capacity	89	ABS	0	2	24RD	0	1	0.893914937973	None	None	None	None	1
1.7	2015_Jul_21_1053	s	s	4	2	Capacity	90	RC	0	1	23RO	1	0	1.37288498878	219.0	390.0	220	391	1
1.7	2015_Jul_21_1053	s	s	4	2	Capacity	91	ABS	0	1	24RO	0	1	4.44847917557	None	None	None	None	1
1.7	2015_Jul_21_1053	s	s	4	2	Capacity	92	RC	0	2	23RD	1	0	0.740843057632	-443.0	-390.0	-453	-390	1
1.7	2015_Jul_21_1053	s	s	4	2	Capacity	1	RC	1	0	23MC	1	0	0.925927877426	377.0	-339.0	382	-345	1
1.7	2015_Jul_21_1053	s	s	4	2	Capacity	2	ABS	1	0	24MC	0	1	1.08725404739	None	None	None	None	1
1.7	2015_Jul_21_1053	s	s	4	2	Capacity	3	ABS	2	0	24VC	0	1	0.877063035965	None	None	None	None	1
1.7	2015_Jul_21_1053	s	s	4	2	Capacity	4	RC	2	0	23VC	1	0	0.517441987991	18.0	-171.0	13	-174	1
1.7	2015_Jul_21_1053	s	s	4	2	Capacity	5	RC	2	0	23VC	1	0	0.481856822968	115.0	98.0	127	107	1
1.7	2015_Jul_21_1053	s	s	4	2	Capacity	6	ABS	1	0	24MC	0	1	0.982815027237	None	None	None	None	1
1.7	2015_Jul_21_1053	s	s	4	2	Capacity	7	RC	1	0	23MC	1	0	0.51477599144	458.0	-16.0	468	-16	1
1.7	2015_Jul_21_1053	s	s	4	2	Capacity	8	ABS	2	0	24VC	0	1	0.699934959412	None	None	None	None	1
1.7	2015_Jul_21_1053	s	s	4	2	Capacity	9	RC	1	0	23MC	1	0	1.15663909912	45.0	261.0	43	258	1
1.7	2015_Jul_21_1053	s	s	4	2	Capacity	10	RC	2	0	23VC	1	0	0.55252289772	278.0	340.0	283	349	1
1.7	2015_Jul_21_1053	s	s	4	2	Capacity	11	ABS	1	0	24MC	0	1	0.901015043259	None	None	None	None	1
1.7	2015_Jul_21_1053	s	s	4	2	Capacity	12	ABS	2	0	24VC	0	1	0.587862014771	None	None	None	None	1
1.7	2015_Jul_21_1053	s	s	4	2	Capacity	13	ABS	2	0	24VC	0	1	0.749365091324	None	None	None	None	1
1.7	2015_Jul_21_1053	s	s	4	2	Capacity	14	RC	1	0	23MC	1	0	0.876690149307	194.0	-308.0	189	-308	1
1.7	2015_Jul_21_1053	s	s	4	2	Capacity	15	RC	2	0	23VC	1	0	0.627453804016	-45.0	-18.0	-45	-24	1
1.7	2015_Jul_21_1053	s	s	4	2	Capacity	16	ABS	1	0	24MC	0	1	1.04119610786	None	None	None	None	1
1.7	2015_Jul_21_1053	s	s	4	2	Capacity	17	ABS	1	0	24MC	0	1	1.44206809998	None	None	None	None	1
1.7	2015_Jul_21_1053	s	s	4	2	Capacity	18	ABS	2	0	24VC	0	1	0.724143981934	None	None	None	None	1
1.7	2015_Jul_21_1053	s	s	4	2	Capacity	19	RC	1	0	23MC	1	0	0.941002845764	-227.0	-358.0	-227	-349	1
1.7	2015_Jul_21_1053	s	s	4	2	Capacity	20	RC	2	0	23VC	1	0	0.582891941071	216.0	140.0	212	128	1
1.7	2015_Jul_21_1053	s	s	4	2	Capacity	21	RC	1	0	23MC	1	0	1.33662390709	-258.0	-185.0	-254	-195	1
1.7	2015_Jul_21_1053	s	s	4	2	Capacity	22	ABS	1	0	24MC	0	1	0.681959867477	None	None	None	None	1
1.7	2015_Jul_21_1053	s	s	4	2	Capacity	23	RC	2	0	23VC	1	0	0.523969888687	510.0	-283.0	521	-280	1
1.7	2015_Jul_21_1053	s	s	4	2	Capacity	24	ABS	2	0	24VC	0	1	0.816956996918	None	None	None	None	1
1.7	2015_Jul_21_1053	s	s	4	2	Capacity	25	ABS	1	0	24MC	0	1	0.953001022339	None	None	None	None	1
1.7	2015_Jul_21_1053	s	s	4	2	Capacity	26	RC	2	0	23VC	1	0	1.00629997253	-494.0	-280.0	-485	-279	1
1.7	2015_Jul_21_1053	s	s	4	2	Capacity	27	RC	1	0	23MC	1	0	1.01162910461	433.0	-135.0	426	-126	1
1.7	2015_Jul_21_1053	s	s	4	2	Capacity	28	ABS	2	0	24VC	0	1	0.529026031494	None	None	None	None	1
1.7	2015_Jul_21_1053	s	s	4	2	Capacity	29	ABS	1	0	24MC	0	1	1.41186594963	None	None	None	None	1
1.7	2015_Jul_21_1053	s	s	4	2	Capacity	30	ABS	2	0	24VC	0	1	0.91502904892	None	None	None	None	1
1.7	2015_Jul_21_1053	s	s	4	2	Capacity	31	RC	1	0	23MC	1	0	0.629388093948	34.0	-352.0	36	-346	1
1.7	2015_Jul_21_1053	s	s	4	2	Capacity	32	RC	2	0	23VC	1	0	0.572598934174	-71.0	-325.0	-75	-337	1
1.7	2015_Jul_21_1053	s	s	4	2	Capacity	33	ABS	2	0	24VC	0	1	0.576173067093	None	None	None	None	1
1.7	2015_Jul_21_1053	s	s	4	2	Capacity	34	ABS	1	0	24MC	0	1	1.07055783272	None	None	None	None	1
1.7	2015_Jul_21_1053	s	s	4	2	Capacity	35	RC	1	0	23MC	1	0	1.07976293564	520.0	403.0	523	406	1
1.7	2015_Jul_21_1053	s	s	4	2	Capacity	36	RC	2	0	23VC	1	0	0.537988901138	-216.0	-55.0	-213	-57	1
1.7	2015_Jul_21_1053	s	s	4	2	Capacity	37	RC	2	0	23VC	1	0	0.749058961868	72.0	-139.0	72	-146	1
1.7	2015_Jul_21_1053	s	s	4	2	Capacity	38	RC	1	0	23MC	1	0	0.935964107513	-183.0	-211.0	-195	-207	1
1.7	2015_Jul_21_1053	s	s	4	2	Capacity	39	ABS	1	0	24MC	0	1	1.45889306068	None	None	None	None	1
1.7	2015_Jul_21_1053	s	s	4	2	Capacity	40	ABS	2	0	24VC	0	1	1.3025739193	None	None	None	None	1
1.7	2015_Jul_21_1053	s	s	4	2	Capacity	41	RC	1	0	23MC	1	0	0.635065078735	151.0	-201.0	158	-204	1
1.7	2015_Jul_21_1053	s	s	4	2	Capacity	42	RC	2	0	23VC	1	0	0.500060081482	365.0	-105.0	370	-115	1
1.7	2015_Jul_21_1053	s	s	4	2	Capacity	43	ABS	1	0	24MC	0	1	1.25868320465	None	None	None	None	1
1.7	2015_Jul_21_1053	s	s	4	2	Capacity	44	ABS	2	0	24VC	0	1	0.576107978821	None	None	None	None	1
1.7	2015_Jul_21_1053	s	s	4	2	Capacity	45	RC	1	0	23MC	1	0	0.835094928741	154.0	211.0	156	209	1
1.7	2015_Jul_21_1053	s	s	4	2	Capacity	46	ABS	1	0	24MC	0	1	0.87890291214	None	None	None	None	1
1.7	2015_Jul_21_1053	s	s	4	2	Capacity	47	ABS	2	0	24VC	0	1	0.670296907425	None	None	None	None	1
1.7	2015_Jul_21_1053	s	s	4	2	Capacity	48	RC	2	0	23VC	1	0	0.682074069977	107.0	-333.0	104	-331	1
1.7	2015_Jul_21_1053	s	s	4	2	Capacity	49	RC	2	0	23VC	1	0	0.858602046967	521.0	83.0	520	85	1
1.7	2015_Jul_21_1053	s	s	4	2	Capacity	50	ABS	2	0	24VC	0	1	0.858649015427	None	None	None	None	1
1.7	2015_Jul_21_1053	s	s	4	2	Capacity	51	ABS	1	0	24MC	0	1	1.01159310341	None	None	None	None	1
1.7	2015_Jul_21_1053	s	s	4	2	Capacity	52	RC	1	0	23MC	1	0	1.23903679848	490.0	191.0	494	191	1
1.7	2015_Jul_21_1053	s	s	4	2	Capacity	53	ABS	1	0	24MC	0	1	1.00908780098	None	None	None	None	1
1.7	2015_Jul_21_1053	s	s	4	2	Capacity	54	ABS	2	0	24VC	0	1	0.576058149338	None	None	None	None	1
1.7	2015_Jul_21_1053	s	s	4	2	Capacity	55	RC	1	0	23MC	1	0	0.668003082275	-200.0	-238.0	-203	-240	1
1.7	2015_Jul_21_1053	s	s	4	2	Capacity	56	RC	2	0	23VC	1	0	0.679663181305	-178.0	156.0	-166	157	1
1.7	2015_Jul_21_1053	s	s	4	2	Capacity	57	ABS	2	0	24VC	0	1	1.22049188614	None	None	None	None	1
1.7	2015_Jul_21_1053	s	s	4	2	Capacity	58	ABS	1	0	24MC	0	1	1.3530600071	None	None	None	None	1
1.7	2015_Jul_21_1053	s	s	4	2	Capacity	59	RC	2	0	23VC	1	0	0.535274028778	211.0	-334.0	209	-340	1
1.7	2015_Jul_21_1053	s	s	4	2	Capacity	60	RC	1	0	23MC	1	0	0.99991106987	379.0	-71.0	379	-63	1
1.7	2015_Jul_21_1053	s	s	4	2	Capacity	61	ABS	1	0	24MC	0	1	0.880101919174	None	None	None	None	1
1.7	2015_Jul_21_1053	s	s	4	2	Capacity	62	RC	2	0	23VC	1	0	0.477119922638	25.0	86.0	22	90	1
1.7	2015_Jul_21_1053	s	s	4	2	Capacity	63	ABS	2	0	24VC	1	0	0.632436037064	None	None	231	-367	0
1.7	2015_Jul_21_1053	s	s	4	2	Capacity	64	RC	1	0	23MC	1	0	0.740859985352	-443.0	-311.0	-452	-310	1
1.7	2015_Jul_21_1053	s	s	4	2	Capacity	65	RC	1	0	23MC	1	0	0.749190092087	243.0	-354.0	239	-361	1
1.7	2015_Jul_21_1053	s	s	4	2	Capacity	66	ABS	2	0	24VC	0	1	0.623120069504	None	None	None	None	1
1.7	2015_Jul_21_1053	s	s	4	2	Capacity	67	ABS	1	0	24MC	0	1	1.58402109146	None	None	None	None	1
1.7	2015_Jul_21_1053	s	s	4	2	Capacity	68	RC	2	0	23VC	1	0	0.724853038788	-90.0	-24.0	-91	-25	1
1.7	2015_Jul_21_1053	s	s	4	2	Capacity	69	ABS	2	0	24VC	0	1	0.653735876083	None	None	None	None	1
1.7	2015_Jul_21_1053	s	s	4	2	Capacity	70	ABS	1	0	24MC	0	1	1.22339487076	None	None	None	None	1
1.7	2015_Jul_21_1053	s	s	4	2	Capacity	71	RC	2	0	23VC	1	0	0.573731899261	-254.0	94.0	-265	95	1
1.7	2015_Jul_21_1053	s	s	4	2	Capacity	72	RC	1	0	23MC	1	0	0.608822107315	-97.0	143.0	-89	138	1
1.7	2015_Jul_21_1053	s	s	4	2	Capacity	73	ABS	1	0	24MC	0	1	1.07941198349	None	None	None	None	1
1.7	2015_Jul_21_1053	s	s	4	2	Capacity	74	ABS	2	0	24VC	0	1	0.764400005341	None	None	None	None	1
1.7	2015_Jul_21_1053	s	s	4	2	Capacity	75	RC	2	0	23VC	1	0	0.529094934464	-469.0	23.0	-475	15	1
1.7	2015_Jul_21_1053	s	s	4	2	Capacity	76	RC	1	0	23MC	1	0	0.894382953644	193.0	150.0	197	142	1
1.7	2015_Jul_21_1053	s	s	4	2	Capacity	77	ABS	1	0	24MC	0	1	1.66849899292	None	None	None	None	1
1.7	2015_Jul_21_1053	s	s	4	2	Capacity	78	RC	2	0	23VC	1	0	0.547473907471	131.0	22.0	129	26	1
1.7	2015_Jul_21_1053	s	s	4	2	Capacity	79	ABS	2	0	24VC	0	1	0.782644987106	None	None	None	None	1
1.7	2015_Jul_21_1053	s	s	4	2	Capacity	80	RC	1	0	23MC	1	0	1.57665205002	-21.0	-287.0	-27	-279	1
1.7	2015_Jul_21_1053	s	s	4	2	Capacity	81	ABS	2	0	24VC	0	1	0.655200004578	None	None	None	None	1
1.7	2015_Jul_21_1053	s	s	4	2	Capacity	82	ABS	1	0	24MC	0	1	1.66828012466	None	None	None	None	1
1.7	2015_Jul_21_1053	s	s	4	2	Capacity	83	RC	1	0	23MC	1	0	1.10084915161	368.0	-359.0	365	-353	1
1.7	2015_Jul_21_1053	s	s	4	2	Capacity	84	RC	2	0	23VC	1	0	0.599847078323	-356.0	-289.0	-353	-295	1
1.7	2015_Jul_21_1053	s	s	4	2	Capacity	85	ABS	1	0	24MC	0	1	2.63338804245	None	None	None	None	1
1.7	2015_Jul_21_1053	s	s	4	2	Capacity	86	ABS	2	0	24VC	0	1	0.582053899765	None	None	None	None	1
1.7	2015_Jul_21_1053	s	s	4	2	Capacity	87	RC	2	0	23VC	1	0	0.556288957596	-330.0	205.0	-320	208	1
1.7	2015_Jul_21_1053	s	s	4	2	Capacity	88	RC	1	0	23MC	1	0	0.658790111542	136.0	2.0	132	-2	1
1.7	2015_Jul_21_1053	s	s	4	2	Capacity	89	ABS	2	0	24VC	0	1	0.63502907753	None	None	None	None	1
1.7	2015_Jul_21_1053	s	s	4	2	Capacity	90	RC	2	0	23VC	1	0	0.641817092896	397.0	26.0	401	24	1
1.7	2015_Jul_21_1053	s	s	4	2	Capacity	91	ABS	1	0	24MC	0	1	0.893915176392	None	None	None	None	1
1.7	2015_Jul_21_1053	s	s	4	2	Capacity	92	RC	1	0	23MC	1	0	0.799834012985	410.0	-208.0	400	-206	1
1.7	2015_Jul_21_1053	s	s	4	2	SIC	1	ABS	0	2	24RD	0	1	1.19586706161	None	None	None	None	1
1.7	2015_Jul_21_1053	s	s	4	2	SIC	2	RC	1	0	23MC	1	0	0.717328071594	-177.0	-81.0	-179	-80	1
1.7	2015_Jul_21_1053	s	s	4	2	SIC	3	ABS	1	2	24MD	0	1	0.714759111404	None	None	None	None	1
1.7	2015_Jul_21_1053	s	s	4	2	SIC	4	ABS	2	0	24VC	0	1	0.61128616333	None	None	None	None	1
1.7	2015_Jul_21_1053	s	s	4	2	SIC	5	ABS	1	0	24MC	0	1	1.87932014465	None	None	None	None	1
1.7	2015_Jul_21_1053	s	s	4	2	SIC	6	RC	2	0	23VC	0	1	0.0581860542297	429.0	-291.0	None	None	0
1.7	2015_Jul_21_1053	s	s	4	2	SIC	7	RC	1	2	23MD	1	0	0.634886980057	-304.0	-55.0	-297	-46	1
1.7	2015_Jul_21_1053	s	s	4	2	SIC	8	ABS	2	2	24VD	0	1	0.585206031799	None	None	None	None	1
1.7	2015_Jul_21_1053	s	s	4	2	SIC	9	RC	2	2	23VD	1	0	0.606330156326	129.0	73.0	133	72	1
1.7	2015_Jul_21_1053	s	s	4	2	SIC	10	ABS	2	1	24VO	0	1	0.715003967285	None	None	None	None	1
1.7	2015_Jul_21_1053	s	s	4	2	SIC	11	ABS	1	1	24MO	0	1	1.80610489845	None	None	None	None	1
1.7	2015_Jul_21_1053	s	s	4	2	SIC	12	RC	0	1	23RO	1	0	0.924860954285	-297.0	-42.0	-294	-43	1
1.7	2015_Jul_21_1053	s	s	4	2	SIC	13	RC	2	1	23VO	1	0	1.12936496735	503.0	-92.0	497	-89	1
1.7	2015_Jul_21_1053	s	s	4	2	SIC	14	ABS	0	1	24RO	0	1	4.20140099525	None	None	None	None	1
1.7	2015_Jul_21_1053	s	s	4	2	SIC	15	RC	1	1	23MO	1	0	0.562114953995	-57.0	-28.0	-45	-21	1
1.7	2015_Jul_21_1053	s	s	4	2	SIC	16	RC	0	2	23RD	1	0	0.523761987686	-84.0	-183.0	-76	-175	1
1.7	2015_Jul_21_1053	s	s	4	2	SIC	17	RC	1	2	23MD	1	0	0.540863990784	390.0	218.0	388	210	1
1.7	2015_Jul_21_1053	s	s	4	2	SIC	18	RC	1	1	23MO	0	1	0.962117195129	-491.0	-231.0	None	None	0
1.7	2015_Jul_21_1053	s	s	4	2	SIC	19	RC	0	2	23RD	1	0	0.458349943161	-257.0	-61.0	-253	-58	1
1.7	2015_Jul_21_1053	s	s	4	2	SIC	20	RC	1	0	23MC	1	0	1.54151296616	447.0	389.0	447	389	1
1.7	2015_Jul_21_1053	s	s	4	2	SIC	21	ABS	2	0	24VC	0	1	0.885972976685	None	None	None	None	1
1.7	2015_Jul_21_1053	s	s	4	2	SIC	22	ABS	2	2	24VD	0	1	0.917412042618	None	None	None	None	1
1.7	2015_Jul_21_1053	s	s	4	2	SIC	23	ABS	1	1	24MO	0	1	2.12460398674	None	None	None	None	1
1.7	2015_Jul_21_1053	s	s	4	2	SIC	24	RC	2	0	23VC	1	0	0.631560087204	97.0	266.0	94	264	1
1.7	2015_Jul_21_1053	s	s	4	2	SIC	25	ABS	0	2	24RD	0	1	1.07040691376	None	None	None	None	1
1.7	2015_Jul_21_1053	s	s	4	2	SIC	26	ABS	0	1	24RO	0	1	3.28339505196	None	None	None	None	1
1.7	2015_Jul_21_1053	s	s	4	2	SIC	27	ABS	1	0	24MC	0	1	1.31736302376	None	None	None	None	1
1.7	2015_Jul_21_1053	s	s	4	2	SIC	28	RC	2	1	23VO	1	0	0.552394151688	-127.0	108.0	-143	117	1
1.7	2015_Jul_21_1053	s	s	4	2	SIC	29	RC	2	2	23VD	1	0	0.654925823212	525.0	250.0	528	247	1
1.7	2015_Jul_21_1053	s	s	4	2	SIC	30	ABS	2	1	24VO	0	1	1.40005779266	None	None	None	None	1
1.7	2015_Jul_21_1053	s	s	4	2	SIC	31	RC	0	1	23RO	0	1	4.1934800148	183.0	-306.0	None	None	0
1.7	2015_Jul_21_1053	s	s	4	2	SIC	32	ABS	1	2	24MD	0	1	0.819039821625	None	None	None	None	1
1.7	2015_Jul_21_1053	s	s	4	2	SIC	33	ABS	2	2	24VD	0	1	0.529018163681	None	None	None	None	1
1.7	2015_Jul_21_1053	s	s	4	2	SIC	34	RC	1	0	23MC	1	0	1.54128289223	-66.0	239.0	-68	231	1
1.7	2015_Jul_21_1053	s	s	4	2	SIC	35	RC	0	1	23RO	1	0	2.33549284935	-130.0	-102.0	-135	-113	1
1.7	2015_Jul_21_1053	s	s	4	2	SIC	36	RC	2	1	23VO	1	0	0.546918153763	118.0	-183.0	123	-179	1
1.7	2015_Jul_21_1053	s	s	4	2	SIC	37	RC	1	2	23MD	1	0	0.687746047974	535.0	138.0	533	144	1
1.7	2015_Jul_21_1053	s	s	4	2	SIC	38	ABS	2	0	24VC	0	1	0.973234891891	None	None	None	None	1
1.7	2015_Jul_21_1053	s	s	4	2	SIC	39	ABS	2	1	24VO	0	1	0.984782934189	None	None	None	None	1
1.7	2015_Jul_21_1053	s	s	4	2	SIC	40	ABS	1	0	24MC	0	1	2.28288912773	None	None	None	None	1
1.7	2015_Jul_21_1053	s	s	4	2	SIC	41	RC	0	2	23RD	1	0	0.57108092308	-294.0	-99.0	-291	-92	1
1.7	2015_Jul_21_1053	s	s	4	2	SIC	42	RC	2	2	23VD	1	0	0.529133081436	491.0	126.0	489	131	1
1.7	2015_Jul_21_1053	s	s	4	2	SIC	43	ABS	0	2	24RD	0	1	1.23313188553	None	None	None	None	1
1.7	2015_Jul_21_1053	s	s	4	2	SIC	44	ABS	1	1	24MO	0	1	1.2074007988	None	None	None	None	1
1.7	2015_Jul_21_1053	s	s	4	2	SIC	45	RC	2	0	23VC	1	0	0.81778383255	-25.0	-291.0	-27	-289	1
1.7	2015_Jul_21_1053	s	s	4	2	SIC	46	ABS	0	1	24RO	0	1	2.61233901978	None	None	None	None	1
1.7	2015_Jul_21_1053	s	s	4	2	SIC	47	RC	1	1	23MO	1	0	0.924022912979	508.0	175.0	495	180	1
1.7	2015_Jul_21_1053	s	s	4	2	SIC	48	ABS	1	2	24MD	0	1	0.701529026031	None	None	None	None	1
1.7	2015_Jul_21_1053	s	s	4	2	SIC	49	ABS	2	0	24VC	0	1	0.529068946838	None	None	None	None	1
1.7	2015_Jul_21_1053	s	s	4	2	SIC	50	RC	2	2	23VD	1	0	0.628940105438	205.0	349.0	198	347	1
1.7	2015_Jul_21_1053	s	s	4	2	SIC	51	RC	0	1	23RO	1	0	0.997422933578	191.0	-111.0	193	-126	1
1.7	2015_Jul_21_1053	s	s	4	2	SIC	52	RC	0	2	23RD	1	0	0.573577165604	-489.0	153.0	-495	155	1
1.7	2015_Jul_21_1053	s	s	4	2	SIC	53	RC	1	2	23MD	1	0	0.446593999863	213.0	59.0	210	59	1
1.7	2015_Jul_21_1053	s	s	4	2	SIC	54	ABS	1	0	24MC	0	1	1.30213594437	None	None	None	None	1
1.7	2015_Jul_21_1053	s	s	4	2	SIC	55	ABS	1	1	24MO	0	1	1.62374210358	None	None	None	None	1
1.7	2015_Jul_21_1053	s	s	4	2	SIC	56	ABS	0	1	24RO	0	1	3.37466692924	None	None	None	None	1
1.7	2015_Jul_21_1053	s	s	4	2	SIC	57	RC	1	0	23MC	1	0	0.935867071152	355.0	-252.0	363	-251	1
1.7	2015_Jul_21_1053	s	s	4	2	SIC	58	ABS	0	2	24RD	0	1	0.693779945374	None	None	None	None	1
1.7	2015_Jul_21_1053	s	s	4	2	SIC	59	ABS	2	1	24VO	0	1	0.628801107407	None	None	None	None	1
1.7	2015_Jul_21_1053	s	s	4	2	SIC	60	ABS	1	2	24MD	0	1	0.658352136612	None	None	None	None	1
1.7	2015_Jul_21_1053	s	s	4	2	SIC	61	RC	2	1	23VO	1	0	0.811689138412	394.0	-90.0	390	-89	1
1.7	2015_Jul_21_1053	s	s	4	2	SIC	62	ABS	2	2	24VD	0	1	0.882150888443	None	None	None	None	1
1.7	2015_Jul_21_1053	s	s	4	2	SIC	63	RC	2	0	23VC	1	0	0.815382003784	110.0	-124.0	110	-126	1
1.7	2015_Jul_21_1053	s	s	4	2	SIC	64	RC	1	1	23MO	0	1	2.36898207664	-137.0	410.0	None	None	0
1.7	2015_Jul_21_1053	s	s	4	2	SIC	65	ABS	0	1	24RO	0	1	3.0771548748	None	None	None	None	1
1.7	2015_Jul_21_1053	s	s	4	2	SIC	66	ABS	1	2	24MD	0	1	0.901385784149	None	None	None	None	1
1.7	2015_Jul_21_1053	s	s	4	2	SIC	67	RC	1	1	23MO	1	0	1.10293102264	505.0	-16.0	507	-16	1
1.7	2015_Jul_21_1053	s	s	4	2	SIC	68	ABS	2	0	24VC	0	1	0.794219017029	None	None	None	None	1
1.7	2015_Jul_21_1053	s	s	4	2	SIC	69	RC	2	0	23VC	1	0	0.549120187759	407.0	-283.0	412	-278	1
1.7	2015_Jul_21_1053	s	s	4	2	SIC	70	RC	1	0	23MC	1	0	0.715040206909	-243.0	-21.0	-241	-24	1
1.7	2015_Jul_21_1053	s	s	4	2	SIC	71	ABS	2	1	24VO	0	1	0.620374202728	None	None	None	None	1
1.7	2015_Jul_21_1053	s	s	4	2	SIC	72	ABS	2	2	24VD	0	1	0.608849048615	None	None	None	None	1
1.7	2015_Jul_21_1053	s	s	4	2	SIC	73	ABS	1	1	24MO	0	1	1.550604105	None	None	None	None	1
1.7	2015_Jul_21_1053	s	s	4	2	SIC	74	RC	1	2	23MD	1	0	0.617376089096	-73.0	-70.0	-72	-67	1
1.7	2015_Jul_21_1053	s	s	4	2	SIC	75	RC	0	2	23RD	1	0	2.2945420742	274.0	-70.0	263	-64	1
1.7	2015_Jul_21_1053	s	s	4	2	SIC	76	RC	2	1	23VO	1	0	0.540666818619	30.0	223.0	27	223	1
1.7	2015_Jul_21_1053	s	s	4	2	SIC	77	RC	2	2	23VD	1	0	0.458343029022	154.0	118.0	160	117	1
1.7	2015_Jul_21_1053	s	s	4	2	SIC	78	ABS	1	0	24MC	0	1	1.02325081825	None	None	None	None	1
1.7	2015_Jul_21_1053	s	s	4	2	SIC	79	ABS	0	2	24RD	0	1	0.761919021606	None	None	None	None	1
1.7	2015_Jul_21_1053	s	s	4	2	SIC	80	RC	0	1	23RO	1	0	1.32934308052	68.0	-242.0	76	-242	1
1.7	2015_Jul_21_1053	s	s	4	2	SIC	81	ABS	1	0	24MC	0	1	0.808537006378	None	None	None	None	1
1.7	2015_Jul_21_1053	s	s	4	2	SIC	82	RC	1	2	23MD	1	0	0.55958199501	-363.0	69.0	-364	59	1
1.7	2015_Jul_21_1053	s	s	4	2	SIC	83	ABS	0	2	24RD	0	1	0.96456694603	None	None	None	None	1
1.7	2015_Jul_21_1053	s	s	4	2	SIC	84	RC	0	1	23RO	1	0	0.949950933456	-345.0	-144.0	-338	-142	1
1.7	2015_Jul_21_1053	s	s	4	2	SIC	85	RC	2	1	23VO	1	0	0.732898950577	216.0	-252.0	218	-248	1
1.7	2015_Jul_21_1053	s	s	4	2	SIC	86	ABS	2	0	24VC	0	1	0.862387180328	None	None	None	None	1
1.7	2015_Jul_21_1053	s	s	4	2	SIC	87	RC	1	1	23MO	1	0	0.655018091202	-514.0	-120.0	-513	-119	1
1.7	2015_Jul_21_1053	s	s	4	2	SIC	88	RC	0	2	23RD	1	0	0.594514131546	-441.0	-384.0	-442	-383	1
1.7	2015_Jul_21_1053	s	s	4	2	SIC	89	ABS	2	2	24VD	0	1	0.651392936707	None	None	None	None	1
1.7	2015_Jul_21_1053	s	s	4	2	SIC	90	ABS	0	1	24RO	0	1	3.65995502472	None	None	None	None	1
1.7	2015_Jul_21_1053	s	s	4	2	SIC	91	ABS	2	1	24VO	0	1	0.600053071976	None	None	None	None	1
1.7	2015_Jul_21_1053	s	s	4	2	SIC	92	ABS	1	1	24MO	0	1	1.52516007423	None	None	None	None	1
1.7	2015_Jul_21_1053	s	s	4	2	SIC	93	RC	2	2	23VD	1	0	0.670248985291	-68.0	335.0	-68	329	1
1.7	2015_Jul_21_1053	s	s	4	2	SIC	94	RC	1	0	23MC	1	0	0.711747169495	-264.0	-402.0	-260	-403	1
1.7	2015_Jul_21_1053	s	s	4	2	SIC	95	ABS	1	2	24MD	0	1	0.846836090088	None	None	None	None	1
1.7	2015_Jul_21_1053	s	s	4	2	SIC	96	RC	2	0	23VC	1	0	0.499813079834	-491.0	56.0	-487	53	1
1.7	2015_Jul_21_1053	s	s	4	2	SIC	97	RC	1	1	23MO	1	0	0.741060972214	-265.0	-178.0	-254	-178	1
1.7	2015_Jul_21_1053	s	s	4	2	SIC	98	RC	1	2	23MD	1	0	0.455884933472	-525.0	30.0	-525	35	1
1.7	2015_Jul_21_1053	s	s	4	2	SIC	99	RC	1	0	23MC	1	0	0.50018787384	125.0	258.0	118	267	1
1.7	2015_Jul_21_1053	s	s	4	2	SIC	100	RC	0	2	23RD	1	0	0.512897968292	-344.0	-270.0	-341	-275	1
1.7	2015_Jul_21_1053	s	s	4	2	SIC	101	RC	2	2	23VD	1	0	0.572230100632	-171.0	-224.0	-159	-222	1
1.7	2015_Jul_21_1053	s	s	4	2	SIC	102	RC	0	1	23RO	0	1	3.02107191086	524.0	-28.0	None	None	0
1.7	2015_Jul_21_1053	s	s	4	2	SIC	103	ABS	0	1	24RO	0	1	2.48294711113	None	None	None	None	1
1.7	2015_Jul_21_1053	s	s	4	2	SIC	104	ABS	0	2	24RD	0	1	0.882159948349	None	None	None	None	1
1.7	2015_Jul_21_1053	s	s	4	2	SIC	105	ABS	1	1	24MO	0	1	1.13615298271	None	None	None	None	1
1.7	2015_Jul_21_1053	s	s	4	2	SIC	106	ABS	2	0	24VC	0	1	0.705530881882	None	None	None	None	1
1.7	2015_Jul_21_1053	s	s	4	2	SIC	107	ABS	2	2	24VD	0	1	0.490365982056	None	None	None	None	1
1.7	2015_Jul_21_1053	s	s	4	2	SIC	108	ABS	1	0	24MC	0	1	1.44264602661	None	None	None	None	1
1.7	2015_Jul_21_1053	s	s	4	2	SIC	109	RC	2	0	23VC	1	0	1.05313491821	-209.0	-106.0	-204	-96	1
1.7	2015_Jul_21_1053	s	s	4	2	SIC	110	ABS	2	1	24VO	0	1	0.78803396225	None	None	None	None	1
1.7	2015_Jul_21_1053	s	s	4	2	SIC	111	RC	2	1	23VO	1	0	0.540882110596	512.0	-239.0	514	-249	1
1.7	2015_Jul_21_1053	s	s	4	2	SIC	112	ABS	1	2	24MD	0	1	0.832292079926	None	None	None	None	1
1.7	2015_Jul_21_1053	s	s	4	2	SIC	113	ABS	0	2	24RD	0	1	1.15002584457	None	None	None	None	1
1.7	2015_Jul_21_1053	s	s	4	2	SIC	114	RC	1	1	23MO	1	0	0.902493000031	-117.0	-225.0	-123	-226	1
1.7	2015_Jul_21_1053	s	s	4	2	SIC	115	RC	1	2	23MD	1	0	0.505478858948	-408.0	156.0	-403	158	1
1.7	2015_Jul_21_1053	s	s	4	2	SIC	116	RC	0	2	23RD	1	0	0.700482130051	524.0	-389.0	524	-392	1
1.7	2015_Jul_21_1053	s	s	4	2	SIC	117	RC	2	0	23VC	1	0	0.470087051392	14.0	100.0	2	103	1
1.7	2015_Jul_21_1053	s	s	4	2	SIC	118	ABS	0	1	24RO	0	1	2.96067619324	None	None	None	None	1
1.7	2015_Jul_21_1053	s	s	4	2	SIC	119	ABS	1	0	24MC	0	1	1.30224013329	None	None	None	None	1
1.7	2015_Jul_21_1053	s	s	4	2	SIC	120	ABS	2	1	24VO	0	1	0.599307060242	None	None	None	None	1
1.7	2015_Jul_21_1053	s	s	4	2	SIC	121	RC	1	0	23MC	1	0	1.42022109032	-147.0	335.0	-153	343	1
1.7	2015_Jul_21_1053	s	s	4	2	SIC	122	RC	2	1	23VO	1	0	0.464508056641	-346.0	202.0	-337	201	1
1.7	2015_Jul_21_1053	s	s	4	2	SIC	123	ABS	1	1	24MO	0	1	1.20847892761	None	None	None	None	1
1.7	2015_Jul_21_1053	s	s	4	2	SIC	124	RC	2	2	23VD	1	0	0.608880996704	459.0	-11.0	465	-3	1
1.7	2015_Jul_21_1053	s	s	4	2	SIC	125	ABS	2	2	24VD	0	1	0.972091913223	None	None	None	None	1
1.7	2015_Jul_21_1053	s	s	4	2	SIC	126	ABS	1	2	24MD	0	1	0.702948093414	None	None	None	None	1
1.7	2015_Jul_21_1053	s	s	4	2	SIC	127	ABS	2	0	24VC	0	1	0.529042005539	None	None	None	None	1
1.7	2015_Jul_21_1053	s	s	4	2	SIC	128	RC	0	1	23RO	0	1	2.5031170845	-95.0	-41.0	None	None	0
1.7	2015_Jul_21_1053	s	s	4	2	SIC	129	RC	2	0	23VC	0	1	0.512288093567	526.0	223.0	None	None	0
1.7	2015_Jul_21_1053	s	s	4	2	SIC	130	ABS	2	2	24VD	0	1	0.764453887939	None	None	None	None	1
1.7	2015_Jul_21_1053	s	s	4	2	SIC	131	ABS	2	0	24VC	0	1	0.579830884933	None	None	None	None	1
1.7	2015_Jul_21_1053	s	s	4	2	SIC	132	RC	1	2	23MD	1	0	0.4701359272	-76.0	-115.0	-69	-112	1
1.7	2015_Jul_21_1053	s	s	4	2	SIC	133	RC	2	1	23VO	1	0	0.529065132141	350.0	337.0	347	334	1
1.7	2015_Jul_21_1053	s	s	4	2	SIC	134	RC	0	2	23RD	1	0	0.477379083633	45.0	254.0	44	261	1
1.7	2015_Jul_21_1053	s	s	4	2	SIC	135	ABS	0	1	24RO	0	1	2.82427406311	None	None	None	None	1
1.7	2015_Jul_21_1053	s	s	4	2	SIC	136	ABS	1	0	24MC	0	1	2.118060112	None	None	None	None	1
1.7	2015_Jul_21_1053	s	s	4	2	SIC	137	ABS	1	1	24MO	0	1	1.14118099213	None	None	None	None	1
1.7	2015_Jul_21_1053	s	s	4	2	SIC	138	RC	1	1	23MO	1	0	0.91202712059	-6.0	289.0	-10	285	1
1.7	2015_Jul_21_1053	s	s	4	2	SIC	139	ABS	0	2	24RD	0	1	1.05873990059	None	None	None	None	1
1.7	2015_Jul_21_1053	s	s	4	2	SIC	140	ABS	2	1	24VO	0	1	0.876923084259	None	None	None	None	1
1.7	2015_Jul_21_1053	s	s	4	2	SIC	141	ABS	1	2	24MD	0	1	0.985478878021	None	None	None	None	1
1.7	2015_Jul_21_1053	s	s	4	2	SIC	142	RC	0	1	23RO	0	1	2.50662612915	-447.0	69.0	None	None	0
1.7	2015_Jul_21_1053	s	s	4	2	SIC	143	RC	1	0	23MC	1	0	0.759593963623	110.0	195.0	107	186	1
1.7	2015_Jul_21_1053	s	s	4	2	SIC	144	RC	2	2	23VD	1	0	0.488718032837	-364.0	-270.0	-365	-261	1
1.7	2015_Jul_21_1053	s	s	4	2	SIC	145	RC	2	2	23VD	1	0	0.500834941864	489.0	-274.0	490	-265	1
1.7	2015_Jul_21_1053	s	s	4	2	SIC	146	RC	0	2	23RD	1	0	0.525218963623	384.0	-114.0	377	-111	1
1.7	2015_Jul_21_1053	s	s	4	2	SIC	147	ABS	2	2	24VD	0	1	0.713882923126	None	None	None	None	1
1.7	2015_Jul_21_1053	s	s	4	2	SIC	148	ABS	2	1	24VO	0	1	0.588015079498	None	None	None	None	1
1.7	2015_Jul_21_1053	s	s	4	2	SIC	149	RC	2	0	23VC	1	0	1.51531004906	-69.0	-182.0	-61	-175	1
1.7	2015_Jul_21_1053	s	s	4	2	SIC	150	RC	1	0	23MC	1	0	1.36509394646	-400.0	-58.0	-413	-48	1
1.7	2015_Jul_21_1053	s	s	4	2	SIC	151	RC	1	2	23MD	1	0	0.500540971756	-54.0	-71.0	-50	-68	1
1.7	2015_Jul_21_1053	s	s	4	2	SIC	152	RC	1	1	23MO	1	0	1.00689101219	-483.0	186.0	-486	187	1
1.7	2015_Jul_21_1053	s	s	4	2	SIC	153	RC	0	1	23RO	1	0	3.29011702538	154.0	304.0	151	305	1
1.7	2015_Jul_21_1053	s	s	4	2	SIC	154	ABS	1	2	24MD	0	1	0.641746997833	None	None	None	None	1
1.7	2015_Jul_21_1053	s	s	4	2	SIC	155	ABS	1	1	24MO	0	1	1.21874904633	None	None	None	None	1
1.7	2015_Jul_21_1053	s	s	4	2	SIC	156	ABS	0	2	24RD	0	1	0.959796190262	None	None	None	None	1
1.7	2015_Jul_21_1053	s	s	4	2	SIC	157	RC	2	1	23VO	1	0	0.572786092758	-182.0	-303.0	-189	-307	1
1.7	2015_Jul_21_1053	s	s	4	2	SIC	158	ABS	2	0	24VC	0	1	0.640986919403	None	None	None	None	1
1.7	2015_Jul_21_1053	s	s	4	2	SIC	159	ABS	1	0	24MC	0	1	1.48247003555	None	None	None	None	1
1.7	2015_Jul_21_1053	s	s	4	2	SIC	160	ABS	0	1	24RO	0	1	3.20768499374	None	None	None	None	1
1.7	2015_Jul_21_1053	s	s	4	2	SIC	161	ABS	2	1	24VO	0	1	0.523555040359	None	None	None	None	1
1.7	2015_Jul_21_1053	s	s	4	2	SIC	162	RC	2	0	23VC	1	0	0.667735099792	-513.0	-284.0	-510	-275	1
1.7	2015_Jul_21_1053	s	s	4	2	SIC	163	RC	1	1	23MO	1	0	0.725522994995	-420.0	314.0	-423	315	1
1.7	2015_Jul_21_1053	s	s	4	2	SIC	164	ABS	1	1	24MO	0	1	1.37147808075	None	None	None	None	1
1.7	2015_Jul_21_1053	s	s	4	2	SIC	165	ABS	2	2	24VD	0	1	0.476702928543	None	None	None	None	1
1.7	2015_Jul_21_1053	s	s	4	2	SIC	166	RC	2	2	23VD	1	0	0.66517496109	366.0	-72.0	368	-75	1
1.7	2015_Jul_21_1053	s	s	4	2	SIC	167	RC	1	2	23MD	1	0	0.576051950455	-338.0	293.0	-348	299	1
1.7	2015_Jul_21_1053	s	s	4	2	SIC	168	ABS	2	0	24VC	0	1	0.631250143051	None	None	None	None	1
1.7	2015_Jul_21_1053	s	s	4	2	SIC	169	ABS	1	2	24MD	0	1	0.552612066269	None	None	None	None	1
1.7	2015_Jul_21_1053	s	s	4	2	SIC	170	RC	2	1	23VO	1	0	0.41762304306	-195.0	263.0	-193	247	1
1.7	2015_Jul_21_1053	s	s	4	2	SIC	171	RC	0	2	23RD	1	0	0.585289001465	425.0	354.0	420	361	1
1.7	2015_Jul_21_1053	s	s	4	2	SIC	172	RC	1	0	23MC	0	1	1.10330986977	-529.0	394.0	None	None	0
1.7	2015_Jul_21_1053	s	s	4	2	SIC	173	RC	0	1	23RO	1	0	0.585391998291	166.0	-16.0	169	-18	1
1.7	2015_Jul_21_1053	s	s	4	2	SIC	174	ABS	1	0	24MC	0	1	1.11314296722	None	None	None	None	1
1.7	2015_Jul_21_1053	s	s	4	2	SIC	175	ABS	0	2	24RD	0	1	0.576130151749	None	None	None	None	1
1.7	2015_Jul_21_1053	s	s	4	2	SIC	176	ABS	0	1	24RO	0	1	3.57280492783	None	None	None	None	1
1.7	2015_Jul_21_1053	s	s	4	2	SIC	177	ABS	1	2	24MD	0	1	0.603389024734	None	None	None	None	1
1.7	2015_Jul_21_1053	s	s	4	2	SIC	178	RC	2	2	23VD	1	0	0.794674158096	239.0	-186.0	237	-193	1
1.7	2015_Jul_21_1053	s	s	4	2	SIC	179	ABS	0	1	24RO	0	1	3.3365778923	None	None	None	None	1
1.7	2015_Jul_21_1053	s	s	4	2	SIC	180	ABS	2	1	24VO	0	1	0.570852041245	None	None	None	None	1
1.7	2015_Jul_21_1053	s	s	4	2	SIC	181	ABS	2	2	24VD	0	1	0.512454032898	None	None	None	None	1
1.7	2015_Jul_21_1053	s	s	4	2	SIC	182	RC	1	0	23MC	1	0	1.62373614311	382.0	396.0	389	405	1
1.7	2015_Jul_21_1053	s	s	4	2	SIC	183	ABS	0	2	24RD	0	1	0.640959978104	None	None	None	None	1
1.7	2015_Jul_21_1053	s	s	4	2	SIC	184	ABS	2	0	24VC	0	1	0.594339132309	None	None	None	None	1
1.7	2015_Jul_21_1053	s	s	4	2	SIC	185	ABS	1	0	24MC	0	1	1.87758398056	None	None	None	None	1
1.7	2015_Jul_21_1053	s	s	4	2	SIC	186	RC	0	1	23RO	0	1	2.00955080986	-481.0	269.0	None	None	0
1.7	2015_Jul_21_1053	s	s	4	2	SIC	187	RC	0	2	23RD	1	0	0.917498111725	353.0	383.0	358	374	1
1.7	2015_Jul_21_1053	s	s	4	2	SIC	188	RC	2	1	23VO	1	0	0.58802318573	-167.0	97.0	-160	100	1
1.7	2015_Jul_21_1053	s	s	4	2	SIC	189	RC	2	0	23VC	1	0	1.26564121246	276.0	19.0	280	21	1
1.7	2015_Jul_21_1053	s	s	4	2	SIC	190	RC	1	2	23MD	1	0	0.429883956909	-19.0	112.0	-24	111	1
1.7	2015_Jul_21_1053	s	s	4	2	SIC	191	RC	1	1	23MO	1	0	1.03278589249	94.0	331.0	106	339	1
1.7	2015_Jul_21_1053	s	s	4	2	SIC	192	ABS	1	1	24MO	0	1	1.06674003601	None	None	None	None	1
1.7	2015_Jul_21_1053	s	s	4	2	SIC	193	ABS	0	1	24RO	0	1	2.94872999191	None	None	None	None	1
1.7	2015_Jul_21_1053	s	s	4	2	SIC	194	ABS	1	0	24MC	0	1	0.787842988968	None	None	None	None	1
1.7	2015_Jul_21_1053	s	s	4	2	SIC	195	RC	0	2	23RD	1	0	0.676122903824	-457.0	310.0	-448	313	1
1.7	2015_Jul_21_1053	s	s	4	2	SIC	196	RC	2	2	23VD	1	0	0.538329124451	279.0	-410.0	283	-416	1
1.7	2015_Jul_21_1053	s	s	4	2	SIC	197	ABS	1	1	24MO	0	1	1.21170306206	None	None	None	None	1
1.7	2015_Jul_21_1053	s	s	4	2	SIC	198	ABS	2	0	24VC	0	1	0.560414075851	None	None	None	None	1
1.7	2015_Jul_21_1053	s	s	4	2	SIC	199	ABS	2	1	24VO	0	1	0.491416931152	None	None	None	None	1
1.7	2015_Jul_21_1053	s	s	4	2	SIC	200	ABS	0	2	24RD	0	1	1.22347807884	None	None	None	None	1
1.7	2015_Jul_21_1053	s	s	4	2	SIC	201	RC	0	1	23RO	0	1	0.948380947113	385.0	94.0	None	None	0
1.7	2015_Jul_21_1053	s	s	4	2	SIC	202	RC	1	0	23MC	0	1	0.856106042862	-540.0	-140.0	None	None	0
1.7	2015_Jul_21_1053	s	s	4	2	SIC	203	ABS	1	2	24MD	0	1	0.60005402565	None	None	None	None	1
1.7	2015_Jul_21_1053	s	s	4	2	SIC	204	RC	2	0	23VC	1	0	0.679557085037	-297.0	-56.0	-290	-50	1
1.7	2015_Jul_21_1053	s	s	4	2	SIC	205	RC	1	1	23MO	1	0	0.811887025833	-90.0	285.0	-78	292	1
1.7	2015_Jul_21_1053	s	s	4	2	SIC	206	ABS	2	2	24VD	0	1	0.796361923218	None	None	None	None	1
1.7	2015_Jul_21_1053	s	s	4	2	SIC	207	RC	1	2	23MD	1	0	0.599636077881	-404.0	258.0	-411	258	1
1.7	2015_Jul_21_1053	s	s	4	2	SIC	208	RC	2	1	23VO	1	0	0.467612981796	-439.0	32.0	-441	33	1
1.7	2015_Jul_21_1053	s	s	4	2	SIC	209	RC	0	1	23RO	1	0	1.18320703506	151.0	-336.0	157	-336	1
1.7	2015_Jul_21_1053	s	s	4	2	SIC	210	RC	2	0	23VC	1	0	0.467195034027	207.0	350.0	211	351	1
1.7	2015_Jul_21_1053	s	s	4	2	SIC	211	ABS	1	0	24MC	0	1	1.06826710701	None	None	None	None	1
1.7	2015_Jul_21_1053	s	s	4	2	SIC	212	ABS	0	2	24RD	0	1	1.11756014824	None	None	None	None	1
1.7	2015_Jul_21_1053	s	s	4	2	SIC	213	RC	1	2	23MD	1	0	0.537993907928	-423.0	-130.0	-427	-143	1
1.7	2015_Jul_21_1053	s	s	4	2	SIC	214	ABS	1	2	24MD	0	1	0.620786905289	None	None	None	None	1
1.7	2015_Jul_21_1053	s	s	4	2	SIC	215	ABS	1	1	24MO	0	1	1.27037405968	None	None	None	None	1
1.7	2015_Jul_21_1053	s	s	4	2	SIC	216	RC	2	1	23VO	1	0	0.476907014847	-51.0	32.0	-43	39	1
1.7	2015_Jul_21_1053	s	s	4	2	SIC	217	RC	1	0	23MC	1	0	0.879691839218	181.0	409.0	186	412	1
1.7	2015_Jul_21_1053	s	s	4	2	SIC	218	ABS	2	0	24VC	0	1	0.724174022675	None	None	None	None	1
1.7	2015_Jul_21_1053	s	s	4	2	SIC	219	RC	2	2	23VD	1	0	0.481804132462	-290.0	-83.0	-296	-80	1
1.7	2015_Jul_21_1053	s	s	4	2	SIC	220	RC	0	2	23RD	1	0	0.732707977295	537.0	301.0	534	303	1
1.7	2015_Jul_21_1053	s	s	4	2	SIC	221	ABS	2	1	24VO	0	1	0.702322006226	None	None	None	None	1
1.7	2015_Jul_21_1053	s	s	4	2	SIC	222	ABS	2	2	24VD	0	1	0.909378051758	None	None	None	None	1
1.7	2015_Jul_21_1053	s	s	4	2	SIC	223	RC	1	1	23MO	1	0	0.749835014343	-33.0	-355.0	-23	-347	1
1.7	2015_Jul_21_1053	s	s	4	2	SIC	224	ABS	0	1	24RO	0	1	3.05692410469	None	None	None	None	1
1.7	2015_Jul_21_1053	s	s	4	2	SIC	225	ABS	0	1	24RO	0	1	3.18959879875	None	None	None	None	1
1.7	2015_Jul_21_1053	s	s	4	2	SIC	226	ABS	2	2	24VD	0	1	0.493765115738	None	None	None	None	1
1.7	2015_Jul_21_1053	s	s	4	2	SIC	227	ABS	1	0	24MC	0	1	1.26573610306	None	None	None	None	1
1.7	2015_Jul_21_1053	s	s	4	2	SIC	228	ABS	2	1	24VO	0	1	0.619935035706	None	None	None	None	1
1.7	2015_Jul_21_1053	s	s	4	2	SIC	229	RC	0	1	23RO	1	0	1.57670307159	250.0	88.0	252	92	1
1.7	2015_Jul_21_1053	s	s	4	2	SIC	230	RC	2	1	23VO	1	0	0.481940984726	-191.0	-100.0	-179	-98	1
1.7	2015_Jul_21_1053	s	s	4	2	SIC	231	RC	0	2	23RD	1	0	0.515023946762	-507.0	170.0	-512	172	1
1.7	2015_Jul_21_1053	s	s	4	2	SIC	232	ABS	1	1	24MO	0	1	0.973177909851	None	None	None	None	1
1.7	2015_Jul_21_1053	s	s	4	2	SIC	233	RC	2	0	23VC	1	0	0.488672971725	72.0	-275.0	75	-274	1
1.7	2015_Jul_21_1053	s	s	4	2	SIC	234	ABS	0	2	24RD	0	1	0.808724880219	None	None	None	None	1
1.7	2015_Jul_21_1053	s	s	4	2	SIC	235	ABS	1	2	24MD	0	1	0.5760409832	None	None	None	None	1
1.7	2015_Jul_21_1053	s	s	4	2	SIC	236	RC	2	2	23VD	1	0	0.647169113159	345.0	-195.0	353	-191	1
1.7	2015_Jul_21_1053	s	s	4	2	SIC	237	ABS	2	0	24VC	0	1	0.817994832993	None	None	None	None	1
1.7	2015_Jul_21_1053	s	s	4	2	SIC	238	RC	1	0	23MC	1	0	1.03271913528	168.0	-406.0	161	-408	1
1.7	2015_Jul_21_1053	s	s	4	2	SIC	239	RC	1	1	23MO	1	0	1.25882220268	-341.0	295.0	-339	302	1
1.7	2015_Jul_21_1053	s	s	4	2	SIC	240	RC	1	2	23MD	1	0	0.90571308136	386.0	-375.0	388	-374	1
1.7	2015_Jul_21_1053	s	s	4	2	SIC	241	RC	2	1	23VO	1	0	0.511812925339	-92.0	-18.0	-106	-12	1
1.7	2015_Jul_21_1053	s	s	4	2	SIC	242	ABS	1	2	24MD	0	1	0.81159901619	None	None	None	None	1
1.7	2015_Jul_21_1053	s	s	4	2	SIC	243	RC	0	1	23RO	0	1	2.51474118233	-357.0	-286.0	None	None	0
1.7	2015_Jul_21_1053	s	s	4	2	SIC	244	RC	1	2	23MD	1	0	0.548283100128	-7.0	-150.0	4	-148	1
1.7	2015_Jul_21_1053	s	s	4	2	SIC	245	RC	0	2	23RD	1	0	0.795175075531	-57.0	112.0	-65	117	1
1.7	2015_Jul_21_1053	s	s	4	2	SIC	246	ABS	2	1	24VO	0	1	0.705595016479	None	None	None	None	1
1.7	2015_Jul_21_1053	s	s	4	2	SIC	247	RC	1	1	23MO	1	0	0.481938838959	21.0	5.0	20	1	1
1.7	2015_Jul_21_1053	s	s	4	2	SIC	248	RC	2	0	23VC	1	0	0.476907014847	37.0	-200.0	38	-199	1
1.7	2015_Jul_21_1053	s	s	4	2	SIC	249	ABS	2	0	24VC	0	1	0.690690040588	None	None	None	None	1
1.7	2015_Jul_21_1053	s	s	4	2	SIC	250	RC	2	2	23VD	1	0	0.467504024506	73.0	-319.0	69	-316	1
1.7	2015_Jul_21_1053	s	s	4	2	SIC	251	ABS	0	2	24RD	0	1	1.11782693863	None	None	None	None	1
1.7	2015_Jul_21_1053	s	s	4	2	SIC	252	ABS	1	1	24MO	0	1	1.27829289436	None	None	None	None	1
1.7	2015_Jul_21_1053	s	s	4	2	SIC	253	RC	1	0	23MC	1	0	0.776254892349	116.0	-190.0	118	-205	1
1.7	2015_Jul_21_1053	s	s	4	2	SIC	254	ABS	2	2	24VD	0	1	0.75266289711	None	None	None	None	1
1.7	2015_Jul_21_1053	s	s	4	2	SIC	255	ABS	1	0	24MC	0	1	1.18816590309	None	None	None	None	1
1.7	2015_Jul_21_1053	s	s	4	2	SIC	256	ABS	0	1	24RO	0	1	1.62356877327	None	None	None	None	1
1.7	2015_Jul_21_1053	s	s	4	2	SIC	257	ABS	2	2	24VD	0	1	0.537580013275	None	None	None	None	1
1.7	2015_Jul_21_1053	s	s	4	2	SIC	258	ABS	2	0	24VC	0	1	0.738630056381	None	None	None	None	1
1.7	2015_Jul_21_1053	s	s	4	2	SIC	259	ABS	1	1	24MO	0	1	1.51779794693	None	None	None	None	1
1.7	2015_Jul_21_1053	s	s	4	2	SIC	260	ABS	0	1	24RO	0	1	2.67880702019	None	None	None	None	1
1.7	2015_Jul_21_1053	s	s	4	2	SIC	261	RC	2	2	23VD	1	0	0.57608795166	-248.0	383.0	-241	391	1
1.7	2015_Jul_21_1053	s	s	4	2	SIC	262	RC	0	1	23RO	0	1	1.52950906754	-449.0	111.0	None	None	0
1.7	2015_Jul_21_1053	s	s	4	2	SIC	263	RC	2	1	23VO	1	0	0.505545139313	-305.0	8.0	-300	2	1
1.7	2015_Jul_21_1053	s	s	4	2	SIC	264	ABS	0	2	24RD	0	1	0.858577013016	None	None	None	None	1
1.7	2015_Jul_21_1053	s	s	4	2	SIC	265	RC	1	2	23MD	1	0	0.55308508873	-516.0	-259.0	-510	-267	1
1.7	2015_Jul_21_1053	s	s	4	2	SIC	266	RC	1	0	23MC	1	0	0.594857931137	67.0	-113.0	68	-111	1
1.7	2015_Jul_21_1053	s	s	4	2	SIC	267	ABS	1	2	24MD	1	0	0.548025846481	None	None	-5	-6	0
1.7	2015_Jul_21_1053	s	s	4	2	SIC	268	RC	0	2	23RD	1	0	0.870230197906	218.0	-326.0	212	-326	1
1.7	2015_Jul_21_1053	s	s	4	2	SIC	269	RC	1	1	23MO	1	0	0.941034793854	-391.0	-65.0	-389	-59	1
1.7	2015_Jul_21_1053	s	s	4	2	SIC	270	ABS	2	1	24VO	0	1	0.58799290657	None	None	None	None	1
1.7	2015_Jul_21_1053	s	s	4	2	SIC	271	RC	2	0	23VC	1	0	0.623266220093	-475.0	-2.0	-486	2	1
1.7	2015_Jul_21_1053	s	s	4	2	SIC	272	ABS	1	0	24MC	0	1	1.31755900383	None	None	None	None	1
1.7	2015_Jul_21_1053	s	s	4	2	SIC	273	RC	1	0	23MC	1	0	1.63564682007	497.0	-320.0	505	-324	1
1.7	2015_Jul_21_1053	s	s	4	2	SIC	274	ABS	2	0	24VC	0	1	0.658582925797	None	None	None	None	1
1.7	2015_Jul_21_1053	s	s	4	2	SIC	275	ABS	2	1	24VO	0	1	0.529022932053	None	None	None	None	1
1.7	2015_Jul_21_1053	s	s	4	2	SIC	276	ABS	1	0	24MC	0	1	1.27962303162	None	None	None	None	1
1.7	2015_Jul_21_1053	s	s	4	2	SIC	277	RC	2	0	23VC	1	0	1.33598709106	54.0	-166.0	54	-161	1
1.7	2015_Jul_21_1053	s	s	4	2	SIC	278	RC	1	1	23MO	1	0	1.11529707909	355.0	-359.0	351	-357	1
1.7	2015_Jul_21_1053	s	s	4	2	SIC	279	ABS	2	2	24VD	0	1	0.729002952576	None	None	None	None	1
1.7	2015_Jul_21_1053	s	s	4	2	SIC	280	ABS	0	1	24RO	0	1	1.37656593323	None	None	None	None	1
1.7	2015_Jul_21_1053	s	s	4	2	SIC	281	RC	2	2	23VD	1	0	0.56426692009	-518.0	39.0	-518	37	1
1.7	2015_Jul_21_1053	s	s	4	2	SIC	282	ABS	1	2	24MD	0	1	0.564346075058	None	None	None	None	1
1.7	2015_Jul_21_1053	s	s	4	2	SIC	283	RC	0	2	23RD	1	0	0.511655092239	-211.0	-180.0	-207	-171	1
1.7	2015_Jul_21_1053	s	s	4	2	SIC	284	RC	0	1	23RO	0	1	3.04305911064	-435.0	277.0	None	None	0
1.7	2015_Jul_21_1053	s	s	4	2	SIC	285	ABS	0	2	24RD	0	1	1.69432282448	None	None	None	None	1
1.7	2015_Jul_21_1053	s	s	4	2	SIC	286	RC	2	1	23VO	1	0	0.646826982498	352.0	191.0	358	197	1
1.7	2015_Jul_21_1053	s	s	4	2	SIC	287	ABS	1	1	24MO	0	1	0.905736923218	None	None	None	None	1
1.7	2015_Jul_21_1053	s	s	4	2	SIC	288	RC	1	2	23MD	1	0	1.07667398453	-515.0	348.0	-512	350	1
1.7	2015_Jul_21_1053	s	s	4	2	SIC	289	ABS	1	0	24MC	0	1	1.76053190231	None	None	None	None	1
1.7	2015_Jul_21_1053	s	s	4	2	SIC	290	RC	0	2	23RD	1	0	0.736726045609	-98.0	366.0	-92	359	1
1.7	2015_Jul_21_1053	s	s	4	2	SIC	291	RC	2	2	23VD	1	0	0.46749997139	-433.0	216.0	-442	220	1
1.7	2015_Jul_21_1053	s	s	4	2	SIC	292	ABS	2	1	24VO	0	1	0.540832042694	None	None	None	None	1
1.7	2015_Jul_21_1053	s	s	4	2	SIC	293	RC	2	1	23VO	1	0	0.764390945435	-242.0	-173.0	-237	-178	1
1.7	2015_Jul_21_1053	s	s	4	2	SIC	294	RC	0	1	23RO	1	0	2.49107313156	443.0	217.0	435	211	1
1.7	2015_Jul_21_1053	s	s	4	2	SIC	295	ABS	2	0	24VC	0	1	0.905696868896	None	None	None	None	1
1.7	2015_Jul_21_1053	s	s	4	2	SIC	296	ABS	1	1	24MO	0	1	1.76264095306	None	None	None	None	1
1.7	2015_Jul_21_1053	s	s	4	2	SIC	297	ABS	0	1	24RO	0	1	1.26715493202	None	None	None	None	1
1.7	2015_Jul_21_1053	s	s	4	2	SIC	298	ABS	0	2	24RD	0	1	0.93683719635	None	None	None	None	1
1.7	2015_Jul_21_1053	s	s	4	2	SIC	299	RC	1	2	23MD	1	0	0.57093000412	24.0	274.0	29	282	1
1.7	2015_Jul_21_1053	s	s	4	2	SIC	300	RC	1	1	23MO	1	0	0.960725069046	231.0	-219.0	226	-227	1
1.7	2015_Jul_21_1053	s	s	4	2	SIC	301	RC	2	0	23VC	1	0	0.529041051865	-226.0	-262.0	-227	-256	1
1.7	2015_Jul_21_1053	s	s	4	2	SIC	302	ABS	1	2	24MD	0	1	0.717360019684	None	None	None	None	1
1.7	2015_Jul_21_1053	s	s	4	2	SIC	303	ABS	2	2	24VD	0	1	0.611428022385	None	None	None	None	1
1.7	2015_Jul_21_1053	s	s	4	2	SIC	304	RC	1	0	23MC	1	0	0.576101064682	171.0	241.0	175	242	1
1.7	2015_Jul_21_1053	s	s	4	2	SIC	305	RC	2	0	23VC	1	0	0.423089981079	-366.0	-152.0	-374	-155	1
1.7	2015_Jul_21_1053	s	s	4	2	SIC	306	RC	0	1	23RO	1	0	1.94152808189	203.0	233.0	212	238	1
1.7	2015_Jul_21_1053	s	s	4	2	SIC	307	RC	2	2	23VD	1	0	0.466326951981	198.0	-267.0	211	-260	1
1.7	2015_Jul_21_1053	s	s	4	2	SIC	308	ABS	1	2	24MD	0	1	0.693945884705	None	None	None	None	1
1.7	2015_Jul_21_1053	s	s	4	2	SIC	309	ABS	2	1	24VO	0	1	0.811673164368	None	None	None	None	1
1.7	2015_Jul_21_1053	s	s	4	2	SIC	310	RC	1	1	23MO	1	0	0.905711174011	-494.0	-227.0	-500	-236	1
1.7	2015_Jul_21_1053	s	s	4	2	SIC	311	ABS	0	1	24RO	0	1	2.6792318821	None	None	None	None	1
1.7	2015_Jul_21_1053	s	s	4	2	SIC	312	RC	0	2	23RD	1	0	0.606276035309	359.0	145.0	361	137	1
1.7	2015_Jul_21_1053	s	s	4	2	SIC	313	ABS	1	1	24MO	0	1	0.747413873672	None	None	None	None	1
1.7	2015_Jul_21_1053	s	s	4	2	SIC	314	RC	1	0	23MC	1	0	0.717451095581	29.0	395.0	33	386	1
1.7	2015_Jul_21_1053	s	s	4	2	SIC	315	ABS	1	0	24MC	0	1	0.911716938019	None	None	None	None	1
1.7	2015_Jul_21_1053	s	s	4	2	SIC	316	RC	1	2	23MD	1	0	0.584136009216	379.0	-102.0	381	-108	1
1.7	2015_Jul_21_1053	s	s	4	2	SIC	317	ABS	2	0	24VC	0	1	0.808960199356	None	None	None	None	1
1.7	2015_Jul_21_1053	s	s	4	2	SIC	318	RC	2	1	23VO	1	0	0.538411140442	-431.0	281.0	-427	278	1
1.7	2015_Jul_21_1053	s	s	4	2	SIC	319	ABS	2	2	24VD	0	1	0.850640058517	None	None	None	None	1
1.7	2015_Jul_21_1053	s	s	4	2	SIC	320	ABS	0	2	24RD	0	1	0.796381950378	None	None	None	None	1
1.7	2015_Jul_21_1053	s	s	4	2	SIC	321	RC	0	1	23RO	0	1	1.8002550602	-201.0	19.0	None	None	0
1.7	2015_Jul_21_1053	s	s	4	2	SIC	322	ABS	0	2	24RD	0	1	1.21848201752	None	None	None	None	1
1.7	2015_Jul_21_1053	s	s	4	2	SIC	323	RC	1	1	23MO	1	0	1.6423060894	244.0	315.0	247	314	1
1.7	2015_Jul_21_1053	s	s	4	2	SIC	324	ABS	2	0	24VC	0	1	0.617626905441	None	None	None	None	1
1.7	2015_Jul_21_1053	s	s	4	2	SIC	325	ABS	2	2	24VD	0	1	0.828733921051	None	None	None	None	1
1.7	2015_Jul_21_1053	s	s	4	2	SIC	326	RC	2	0	23VC	1	0	0.900480031967	-515.0	-252.0	-508	-253	1
1.7	2015_Jul_21_1053	s	s	4	2	SIC	327	ABS	1	1	24MO	0	1	1.16978883743	None	None	None	None	1
1.7	2015_Jul_21_1053	s	s	4	2	SIC	328	ABS	0	1	24RO	0	1	2.45939207077	None	None	None	None	1
1.7	2015_Jul_21_1053	s	s	4	2	SIC	329	RC	2	1	23VO	1	0	0.540803194046	-396.0	-208.0	-395	-205	1
1.7	2015_Jul_21_1053	s	s	4	2	SIC	330	ABS	1	2	24MD	0	1	0.665460109711	None	None	None	None	1
1.7	2015_Jul_21_1053	s	s	4	2	SIC	331	RC	1	2	23MD	1	0	0.564256191254	304.0	-390.0	311	-391	1
1.7	2015_Jul_21_1053	s	s	4	2	SIC	332	RC	0	2	23RD	1	0	0.546833992004	462.0	-161.0	462	-163	1
1.7	2015_Jul_21_1053	s	s	4	2	SIC	333	RC	1	0	23MC	1	0	0.788013935089	410.0	182.0	403	183	1
1.7	2015_Jul_21_1053	s	s	4	2	SIC	334	ABS	1	0	24MC	0	1	1.64712309837	None	None	None	None	1
1.7	2015_Jul_21_1053	s	s	4	2	SIC	335	ABS	2	1	24VO	0	1	0.611430883408	None	None	None	None	1
1.7	2015_Jul_21_1053	s	s	4	2	SIC	336	RC	2	2	23VD	1	0	0.690916061401	-254.0	-165.0	-239	-156	1
1.7	2015_Jul_21_1053	s	s	4	2	SIC	337	RC	0	2	23RD	1	0	0.535692930222	-11.0	-293.0	-13	-309	1
1.7	2015_Jul_21_1053	s	s	4	2	SIC	338	RC	2	0	23VC	1	0	0.406298160553	-151.0	171.0	-157	171	1
1.7	2015_Jul_21_1053	s	s	4	2	SIC	339	ABS	2	0	24VC	0	1	0.705626010895	None	None	None	None	1
1.7	2015_Jul_21_1053	s	s	4	2	SIC	340	ABS	0	2	24RD	0	1	0.902780056	None	None	None	None	1
1.7	2015_Jul_21_1053	s	s	4	2	SIC	341	RC	2	1	23VO	1	0	0.444000959396	436.0	-70.0	436	-61	1
1.7	2015_Jul_21_1053	s	s	4	2	SIC	342	ABS	1	2	24MD	0	1	0.670783042908	None	None	None	None	1
1.7	2015_Jul_21_1053	s	s	4	2	SIC	343	RC	2	2	23VD	1	0	0.537334918976	486.0	126.0	496	130	1
1.7	2015_Jul_21_1053	s	s	4	2	SIC	344	RC	1	1	23MO	1	0	0.829255104065	-496.0	70.0	-493	68	1
1.7	2015_Jul_21_1053	s	s	4	2	SIC	345	RC	0	1	23RO	1	0	2.47804093361	397.0	35.0	399	39	1
1.7	2015_Jul_21_1053	s	s	4	2	SIC	346	ABS	1	0	24MC	0	1	1.78620696068	None	None	None	None	1
1.7	2015_Jul_21_1053	s	s	4	2	SIC	347	ABS	2	1	24VO	0	1	0.611445903778	None	None	None	None	1
1.7	2015_Jul_21_1053	s	s	4	2	SIC	348	RC	1	0	23MC	1	0	2.77737188339	-225.0	-4.0	-231	-7	1
1.7	2015_Jul_21_1053	s	s	4	2	SIC	349	ABS	2	2	24VD	0	1	0.936738967896	None	None	None	None	1
1.7	2015_Jul_21_1053	s	s	4	2	SIC	350	ABS	0	1	24RO	0	1	1.79751682281	None	None	None	None	1
1.7	2015_Jul_21_1053	s	s	4	2	SIC	351	ABS	1	1	24MO	0	1	0.938356161118	None	None	None	None	1
1.7	2015_Jul_21_1053	s	s	4	2	SIC	352	RC	1	2	23MD	1	0	0.537702083588	-538.0	358.0	-539	348	1
1.7	2015_Jul_21_1053	s	s	4	2	SIC	353	ABS	1	0	24MC	0	1	1.04695510864	None	None	None	None	1
1.7	2015_Jul_21_1053	s	s	4	2	SIC	354	ABS	2	0	24VC	0	1	0.512703895569	None	None	None	None	1
1.7	2015_Jul_21_1053	s	s	4	2	SIC	355	ABS	0	1	24RO	0	1	1.4589509964	None	None	None	None	1
1.7	2015_Jul_21_1053	s	s	4	2	SIC	356	ABS	1	1	24MO	0	1	0.803422927856	None	None	None	None	1
1.7	2015_Jul_21_1053	s	s	4	2	SIC	357	ABS	0	2	24RD	0	1	0.620437860489	None	None	None	None	1
1.7	2015_Jul_21_1053	s	s	4	2	SIC	358	RC	0	1	23RO	1	0	0.997138023376	313.0	-41.0	314	-33	1
1.7	2015_Jul_21_1053	s	s	4	2	SIC	359	RC	1	1	23MO	1	0	0.717298984528	448.0	-53.0	444	-45	1
1.7	2015_Jul_21_1053	s	s	4	2	SIC	360	RC	2	2	23VD	1	0	0.458411216736	326.0	396.0	336	405	1
1.7	2015_Jul_21_1053	s	s	4	2	SIC	361	ABS	2	1	24VO	0	1	0.549871921539	None	None	None	None	1
1.7	2015_Jul_21_1053	s	s	4	2	SIC	362	ABS	2	2	24VD	0	1	0.444074869156	None	None	None	None	1
1.7	2015_Jul_21_1053	s	s	4	2	SIC	363	RC	1	2	23MD	1	0	0.505599975586	443.0	117.0	449	111	1
1.7	2015_Jul_21_1053	s	s	4	2	SIC	364	RC	2	1	23VO	1	0	0.444123029709	74.0	314.0	77	323	1
1.7	2015_Jul_21_1053	s	s	4	2	SIC	365	ABS	1	2	24MD	0	1	0.729207038879	None	None	None	None	1
1.7	2015_Jul_21_1053	s	s	4	2	SIC	366	RC	0	2	23RD	1	0	0.490216970444	-239.0	13.0	-235	12	1
1.7	2015_Jul_21_1053	s	s	4	2	SIC	367	RC	1	0	23MC	1	0	1.65905380249	-437.0	-76.0	-437	-70	1
1.7	2015_Jul_21_1053	s	s	4	2	SIC	368	RC	2	0	23VC	1	0	0.441541910172	-65.0	-280.0	-68	-288	1
1.7	2015_Jul_21_1053	s	s	4	2	SIC	369	RC	1	2	23MD	1	0	0.464988946915	414.0	-65.0	421	-67	1
1.7	2015_Jul_21_1053	s	s	4	2	SIC	370	ABS	2	1	24VO	0	1	1.22344613075	None	None	None	None	1
1.7	2015_Jul_21_1053	s	s	4	2	SIC	371	RC	0	2	23RD	1	0	0.606450080872	-162.0	-255.0	-153	-249	1
1.7	2015_Jul_21_1053	s	s	4	2	SIC	372	ABS	2	2	24VD	0	1	0.667762994766	None	None	None	None	1
1.7	2015_Jul_21_1053	s	s	4	2	SIC	373	ABS	0	2	24RD	0	1	0.664577007294	None	None	None	None	1
1.7	2015_Jul_21_1053	s	s	4	2	SIC	374	ABS	1	0	24MC	0	1	1.48248815536	None	None	None	None	1
1.7	2015_Jul_21_1053	s	s	4	2	SIC	375	RC	2	2	23VD	1	0	0.458395957947	432.0	-288.0	427	-295	1
1.7	2015_Jul_21_1053	s	s	4	2	SIC	376	RC	1	1	23MO	1	0	0.713474988937	261.0	-140.0	268	-135	1
1.7	2015_Jul_21_1053	s	s	4	2	SIC	377	ABS	2	0	24VC	0	1	1.05874085426	None	None	None	None	1
1.7	2015_Jul_21_1053	s	s	4	2	SIC	378	ABS	1	2	24MD	1	0	0.618561029434	None	None	-28	-392	0
1.7	2015_Jul_21_1053	s	s	4	2	SIC	379	ABS	1	1	24MO	0	1	2.09449601173	None	None	None	None	1
1.7	2015_Jul_21_1053	s	s	4	2	SIC	380	RC	0	1	23RO	1	0	2.88313508034	-108.0	-260.0	-101	-257	1
1.7	2015_Jul_21_1053	s	s	4	2	SIC	381	RC	1	0	23MC	1	0	1.37140417099	327.0	-256.0	328	-269	1
1.7	2015_Jul_21_1053	s	s	4	2	SIC	382	RC	2	0	23VC	1	0	0.583249092102	-400.0	195.0	-410	193	1
1.7	2015_Jul_21_1053	s	s	4	2	SIC	383	ABS	0	1	24RO	0	1	3.95218777657	None	None	None	None	1
1.7	2015_Jul_21_1053	s	s	4	2	SIC	384	RC	2	1	23VO	1	0	0.634919881821	515.0	46.0	529	51	1
1.7	2015_Jul_21_1053	s	s	4	2	SIC	385	RC	1	1	23MO	1	0	0.641662836075	539.0	196.0	551	199	1
1.7	2015_Jul_21_1053	s	s	4	2	SIC	386	RC	1	2	23MD	1	0	0.559628009796	475.0	359.0	467	354	1
1.7	2015_Jul_21_1053	s	s	4	2	SIC	387	RC	0	1	23RO	1	0	1.84402012825	-261.0	390.0	-257	387	1
1.7	2015_Jul_21_1053	s	s	4	2	SIC	388	ABS	0	1	24RO	0	1	3.77765798569	None	None	None	None	1
1.7	2015_Jul_21_1053	s	s	4	2	SIC	389	ABS	0	2	24RD	0	1	1.38348078728	None	None	None	None	1
1.7	2015_Jul_21_1053	s	s	4	2	SIC	390	ABS	2	0	24VC	0	1	0.596839189529	None	None	None	None	1
1.7	2015_Jul_21_1053	s	s	4	2	SIC	391	RC	2	2	23VD	1	0	0.475853919983	-530.0	-349.0	-525	-351	1
1.7	2015_Jul_21_1053	s	s	4	2	SIC	392	RC	1	0	23MC	1	0	1.35936903954	22.0	352.0	26	353	1
1.7	2015_Jul_21_1053	s	s	4	2	SIC	393	ABS	2	1	24VO	0	1	0.467725992203	None	None	None	None	1
1.7	2015_Jul_21_1053	s	s	4	2	SIC	394	ABS	2	2	24VD	0	1	0.617342948914	None	None	None	None	1
1.7	2015_Jul_21_1053	s	s	4	2	SIC	395	RC	2	0	23VC	1	0	1.19376301765	-211.0	-18.0	-218	-11	1
1.7	2015_Jul_21_1053	s	s	4	2	SIC	396	ABS	1	0	24MC	0	1	1.26583194733	None	None	None	None	1
1.7	2015_Jul_21_1053	s	s	4	2	SIC	397	ABS	1	1	24MO	0	1	0.95987701416	None	None	None	None	1
1.7	2015_Jul_21_1053	s	s	4	2	SIC	398	RC	2	1	23VO	1	0	0.646615028381	-229.0	-386.0	-218	-385	1
1.7	2015_Jul_21_1053	s	s	4	2	SIC	399	ABS	1	2	24MD	0	1	0.905669927597	None	None	None	None	1
1.7	2015_Jul_21_1053	s	s	4	2	SIC	400	RC	0	2	23RD	1	0	0.538487911224	52.0	-35.0	49	-42	1
1.7	2015_Jul_21_1053	s	s	4	2	SIC	401	RC	0	1	23RO	0	1	1.55300498009	150.0	311.0	None	None	0
1.7	2015_Jul_21_1053	s	s	4	2	SIC	402	RC	1	2	23MD	1	0	0.619768857956	-468.0	371.0	-460	379	1
1.7	2015_Jul_21_1053	s	s	4	2	SIC	403	RC	2	0	23VC	1	0	0.453899860382	289.0	-102.0	283	-106	1
1.7	2015_Jul_21_1053	s	s	4	2	SIC	404	RC	0	2	23RD	1	0	0.771796941757	-523.0	302.0	-522	289	1
1.7	2015_Jul_21_1053	s	s	4	2	SIC	405	RC	2	2	23VD	1	0	0.503071784973	-486.0	-298.0	-493	-305	1
1.7	2015_Jul_21_1053	s	s	4	2	SIC	406	RC	1	1	23MO	1	0	0.819004058838	39.0	-338.0	38	-343	1
1.7	2015_Jul_21_1053	s	s	4	2	SIC	407	ABS	2	0	24VC	0	1	1.00796985626	None	None	None	None	1
1.7	2015_Jul_21_1053	s	s	4	2	SIC	408	RC	2	1	23VO	1	0	0.587870121002	-13.0	404.0	-11	412	1
1.7	2015_Jul_21_1053	s	s	4	2	SIC	409	ABS	0	1	24RO	0	1	4.08373594284	None	None	None	None	1
1.7	2015_Jul_21_1053	s	s	4	2	SIC	410	RC	1	0	23MC	1	0	0.970681190491	63.0	286.0	66	286	1
1.7	2015_Jul_21_1053	s	s	4	2	SIC	411	ABS	0	2	24RD	0	1	1.50097322464	None	None	None	None	1
1.7	2015_Jul_21_1053	s	s	4	2	SIC	412	ABS	2	2	24VD	0	1	0.60432600975	None	None	None	None	1
1.7	2015_Jul_21_1053	s	s	4	2	SIC	413	ABS	1	0	24MC	0	1	2.15354585648	None	None	None	None	1
1.7	2015_Jul_21_1053	s	s	4	2	SIC	414	ABS	1	2	24MD	0	1	0.552548885345	None	None	None	None	1
1.7	2015_Jul_21_1053	s	s	4	2	SIC	415	ABS	2	1	24VO	0	1	0.538719892502	None	None	None	None	1
1.7	2015_Jul_21_1053	s	s	4	2	SIC	416	ABS	1	1	24MO	0	1	2.09825015068	None	None	None	None	1
1.7	2015_Jul_21_1053	s	s	4	2	SIC	417	RC	2	1	23VO	1	0	0.864743947983	7.0	15.0	4	1	1
1.7	2015_Jul_21_1053	s	s	4	2	SIC	418	ABS	2	0	24VC	0	1	0.667745828629	None	None	None	None	1
1.7	2015_Jul_21_1053	s	s	4	2	SIC	419	RC	2	0	23VC	1	0	0.423043966293	13.0	-3.0	15	-13	1
1.7	2015_Jul_21_1053	s	s	4	2	SIC	420	RC	0	2	23RD	1	0	0.444414138794	-289.0	258.0	-287	253	1
1.7	2015_Jul_21_1053	s	s	4	2	SIC	421	RC	1	2	23MD	1	0	0.643007993698	174.0	-151.0	177	-150	1
1.7	2015_Jul_21_1053	s	s	4	2	SIC	422	RC	2	2	23VD	1	0	0.52947807312	-286.0	-190.0	-292	-192	1
1.7	2015_Jul_21_1053	s	s	4	2	SIC	423	ABS	1	1	24MO	0	1	1.7646920681	None	None	None	None	1
1.7	2015_Jul_21_1053	s	s	4	2	SIC	424	ABS	1	2	24MD	0	1	0.703423976898	None	None	None	None	1
1.7	2015_Jul_21_1053	s	s	4	2	SIC	425	RC	1	0	23MC	1	0	0.736475944519	198.0	256.0	199	254	1
1.7	2015_Jul_21_1053	s	s	4	2	SIC	426	ABS	0	1	24RO	0	1	3.77335190773	None	None	None	None	1
1.7	2015_Jul_21_1053	s	s	4	2	SIC	427	RC	1	1	23MO	1	0	1.03520798683	454.0	244.0	456	248	1
1.7	2015_Jul_21_1053	s	s	4	2	SIC	428	ABS	1	0	24MC	0	1	0.874116897583	None	None	None	None	1
1.7	2015_Jul_21_1053	s	s	4	2	SIC	429	ABS	2	1	24VO	0	1	0.564190149307	None	None	None	None	1
1.7	2015_Jul_21_1053	s	s	4	2	SIC	430	ABS	2	2	24VD	0	1	0.500316858292	None	None	None	None	1
1.7	2015_Jul_21_1053	s	s	4	2	SIC	431	ABS	0	2	24RD	0	1	1.5060300827	None	None	None	None	1
1.7	2015_Jul_21_1053	s	s	4	2	SIC	432	RC	0	1	23RO	1	0	3.08331799507	-475.0	313.0	-478	309	1
1.7	2015_Jul_21_1053	s	s	4	2	SIC	433	ABS	2	0	24VC	0	1	0.679767131805	None	None	None	None	1
1.7	2015_Jul_21_1053	s	s	4	2	SIC	434	ABS	0	2	24RD	0	1	0.576163053513	None	None	None	None	1
1.7	2015_Jul_21_1053	s	s	4	2	SIC	435	ABS	1	0	24MC	0	1	1.00692105293	None	None	None	None	1
1.7	2015_Jul_21_1053	s	s	4	2	SIC	436	ABS	1	2	24MD	0	1	0.576524019241	None	None	None	None	1
1.7	2015_Jul_21_1053	s	s	4	2	SIC	437	RC	2	2	23VD	1	0	0.533674001694	-114.0	383.0	-112	392	1
1.7	2015_Jul_21_1053	s	s	4	2	SIC	438	ABS	2	2	24VD	0	1	0.552551984787	None	None	None	None	1
1.7	2015_Jul_21_1053	s	s	4	2	SIC	439	RC	1	2	23MD	1	0	2.35387682915	255.0	-313.0	262	-308	1
1.7	2015_Jul_21_1053	s	s	4	2	SIC	440	ABS	1	1	24MO	0	1	0.882035970688	None	None	None	None	1
1.7	2015_Jul_21_1053	s	s	4	2	SIC	441	ABS	0	1	24RO	0	1	2.40722584724	None	None	None	None	1
1.7	2015_Jul_21_1053	s	s	4	2	SIC	442	RC	2	1	23VO	1	0	0.54865694046	-173.0	-205.0	-163	-197	1
1.7	2015_Jul_21_1053	s	s	4	2	SIC	443	RC	0	1	23RO	1	0	0.852610111237	-58.0	159.0	-68	167	1
1.7	2015_Jul_21_1053	s	s	4	2	SIC	444	RC	1	1	23MO	1	0	0.517231941223	-211.0	342.0	-206	341	1
1.7	2015_Jul_21_1053	s	s	4	2	SIC	445	RC	0	2	23RD	1	0	0.474206209183	28.0	-280.0	33	-271	1
1.7	2015_Jul_21_1053	s	s	4	2	SIC	446	ABS	2	1	24VO	1	0	0.511770963669	None	None	452	-366	0
1.7	2015_Jul_21_1053	s	s	4	2	SIC	447	RC	2	0	23VC	1	0	0.59635591507	-101.0	238.0	-100	232	1
1.7	2015_Jul_21_1053	s	s	4	2	SIC	448	RC	1	0	23MC	1	0	0.865160942078	150.0	-354.0	141	-358	1
1.7	2015_Jul_21_1053	s	s	4	2	SIC	449	ABS	1	0	24MC	0	1	0.829530954361	None	None	None	None	1
1.7	2015_Jul_21_1053	s	s	4	2	SIC	450	RC	1	1	23MO	1	0	0.811590194702	-295.0	218.0	-299	226	1
1.7	2015_Jul_21_1053	s	s	4	2	SIC	451	RC	2	2	23VD	1	0	0.476775884628	-183.0	270.0	-188	267	1
1.7	2015_Jul_21_1053	s	s	4	2	SIC	452	ABS	0	2	24RD	0	1	0.70299911499	None	None	None	None	1
1.7	2015_Jul_21_1053	s	s	4	2	SIC	453	ABS	2	0	24VC	0	1	0.594674825668	None	None	None	None	1
1.7	2015_Jul_21_1053	s	s	4	2	SIC	454	ABS	1	2	24MD	0	1	0.605955123901	None	None	None	None	1
1.7	2015_Jul_21_1053	s	s	4	2	SIC	455	ABS	1	1	24MO	0	1	2.69256091118	None	None	None	None	1
1.7	2015_Jul_21_1053	s	s	4	2	SIC	456	RC	1	0	23MC	1	0	1.23531484604	50.0	-111.0	56	-103	1
1.7	2015_Jul_21_1053	s	s	4	2	SIC	457	ABS	2	1	24VO	0	1	0.679555892944	None	None	None	None	1
1.7	2015_Jul_21_1053	s	s	4	2	SIC	458	ABS	2	2	24VD	0	1	0.454221010208	None	None	None	None	1
1.7	2015_Jul_21_1053	s	s	4	2	SIC	459	RC	0	1	23RO	0	1	3.89547896385	-394.0	-185.0	None	None	0
1.7	2015_Jul_21_1053	s	s	4	2	SIC	460	ABS	0	1	24RO	0	1	2.86680698395	None	None	None	None	1
1.7	2015_Jul_21_1053	s	s	4	2	SIC	461	RC	2	0	23VC	1	0	0.634984016418	523.0	26.0	535	28	1
1.7	2015_Jul_21_1053	s	s	4	2	SIC	462	RC	0	2	23RD	1	0	0.623386859894	38.0	-238.0	34	-237	1
1.7	2015_Jul_21_1053	s	s	4	2	SIC	463	RC	2	1	23VO	1	0	0.502897977829	-439.0	45.0	-429	47	1
1.7	2015_Jul_21_1053	s	s	4	2	SIC	464	RC	1	2	23MD	1	0	0.458378076553	-226.0	-276.0	-218	-272	1
1.7	2015_Jul_21_1053	s	s	4	2	SIC	465	ABS	0	1	24RO	0	1	3.55131292343	None	None	None	None	1
1.7	2015_Jul_21_1053	s	s	4	2	SIC	466	ABS	1	1	24MO	0	1	1.22337889671	None	None	None	None	1
1.7	2015_Jul_21_1053	s	s	4	2	SIC	467	ABS	1	0	24MC	0	1	0.876768827438	None	None	None	None	1
1.7	2015_Jul_21_1053	s	s	4	2	SIC	468	RC	0	2	23RD	1	0	1.47069191933	407.0	7.0	411	0	1
1.7	2015_Jul_21_1053	s	s	4	2	SIC	469	RC	0	1	23RO	1	0	1.98856210709	-214.0	-328.0	-213	-325	1
1.7	2015_Jul_21_1053	s	s	4	2	SIC	470	RC	1	2	23MD	1	0	0.458370923996	133.0	26.0	144	28	1
1.7	2015_Jul_21_1053	s	s	4	2	SIC	471	RC	1	0	23MC	1	0	0.623219013214	397.0	-51.0	391	-47	1
1.7	2015_Jul_21_1053	s	s	4	2	SIC	472	RC	2	2	23VD	1	0	0.407645940781	-346.0	-345.0	-339	-346	1
1.7	2015_Jul_21_1053	s	s	4	2	SIC	473	RC	2	0	23VC	1	0	0.428673028946	-529.0	282.0	-542	288	1
1.7	2015_Jul_21_1053	s	s	4	2	SIC	474	ABS	2	0	24VC	0	1	0.841379165649	None	None	None	None	1
1.7	2015_Jul_21_1053	s	s	4	2	SIC	475	ABS	1	2	24MD	0	1	0.726619005203	None	None	None	None	1
1.7	2015_Jul_21_1053	s	s	4	2	SIC	476	RC	1	1	23MO	1	0	1.09088301659	20.0	-272.0	17	-276	1
1.7	2015_Jul_21_1053	s	s	4	2	SIC	477	ABS	2	1	24VO	0	1	1.18328499794	None	None	None	None	1
1.7	2015_Jul_21_1053	s	s	4	2	SIC	478	ABS	0	2	24RD	0	1	1.30587816238	None	None	None	None	1
1.7	2015_Jul_21_1053	s	s	4	2	SIC	479	ABS	2	2	24VD	0	1	0.458332061768	None	None	None	None	1
1.7	2015_Jul_21_1053	s	s	4	2	SIC	480	RC	2	1	23VO	1	0	0.593173980713	188.0	4.0	175	7	1
1.7	2015_Jul_21_1053	s	s	4	2	SIC	481	RC	1	1	23MO	1	0	0.453657150269	156.0	5.0	149	1	1
1.7	2015_Jul_21_1053	s	s	4	2	SIC	482	ABS	0	1	24RO	0	1	3.32757496834	None	None	None	None	1
1.7	2015_Jul_21_1053	s	s	4	2	SIC	483	RC	0	1	23RO	1	0	1.88355088234	9.0	-152.0	8	-144	1
1.7	2015_Jul_21_1053	s	s	4	2	SIC	484	ABS	1	2	24MD	0	1	0.665405035019	None	None	None	None	1
1.7	2015_Jul_21_1053	s	s	4	2	SIC	485	ABS	1	1	24MO	0	1	1.66276502609	None	None	None	None	1
1.7	2015_Jul_21_1053	s	s	4	2	SIC	486	RC	2	1	23VO	1	0	0.442177057266	177.0	-178.0	171	-179	1
1.7	2015_Jul_21_1053	s	s	4	2	SIC	487	ABS	0	2	24RD	0	1	0.823591947556	None	None	None	None	1
1.7	2015_Jul_21_1053	s	s	4	2	SIC	488	RC	2	0	23VC	1	0	0.540710926056	375.0	339.0	366	342	1
1.7	2015_Jul_21_1053	s	s	4	2	SIC	489	RC	2	2	23VD	1	0	0.434807777405	-481.0	181.0	-478	180	1
1.7	2015_Jul_21_1053	s	s	4	2	SIC	490	RC	1	0	23MC	1	0	0.768316984177	-450.0	156.0	-459	152	1
1.7	2015_Jul_21_1053	s	s	4	2	SIC	491	RC	1	2	23MD	1	0	0.470345973969	-538.0	19.0	-542	8	1
1.7	2015_Jul_21_1053	s	s	4	2	SIC	492	ABS	2	2	24VD	0	1	0.690539836884	None	None	None	None	1
1.7	2015_Jul_21_1053	s	s	4	2	SIC	493	ABS	2	1	24VO	0	1	0.665652990341	None	None	None	None	1
1.7	2015_Jul_21_1053	s	s	4	2	SIC	494	ABS	2	0	24VC	0	1	1.08011102676	None	None	None	None	1
1.7	2015_Jul_21_1053	s	s	4	2	SIC	495	ABS	1	0	24MC	0	1	1.19530892372	None	None	None	None	1
1.7	2015_Jul_21_1053	s	s	4	2	SIC	496	RC	0	2	23RD	1	0	0.740895986557	489.0	-284.0	504	-276	1
1.7	2015_Jul_21_1053	s	s	4	2	SIC	497	ABS	0	1	24RO	0	1	2.7745039463	None	None	None	None	1
1.7	2015_Jul_21_1053	s	s	4	2	SIC	498	RC	2	0	23VC	1	0	0.646835803986	-366.0	-16.0	-371	-7	1
1.7	2015_Jul_21_1053	s	s	4	2	SIC	499	ABS	1	1	24MO	0	1	1.36516690254	None	None	None	None	1
1.7	2015_Jul_21_1053	s	s	4	2	SIC	500	ABS	2	0	24VC	0	1	0.799752950668	None	None	None	None	1
1.7	2015_Jul_21_1053	s	s	4	2	SIC	501	ABS	0	2	24RD	0	1	0.952769041061	None	None	None	None	1
1.7	2015_Jul_21_1053	s	s	4	2	SIC	502	RC	1	2	23MD	1	0	0.694005966187	183.0	-35.0	178	-31	1
1.7	2015_Jul_21_1053	s	s	4	2	SIC	503	RC	1	1	23MO	1	0	0.703354120255	64.0	131.0	57	134	1
1.7	2015_Jul_21_1053	s	s	4	2	SIC	504	RC	0	2	23RD	1	0	0.858613967896	-92.0	-210.0	-95	-201	1
1.7	2015_Jul_21_1053	s	s	4	2	SIC	505	ABS	1	0	24MC	0	1	1.02085614204	None	None	None	None	1
1.7	2015_Jul_21_1053	s	s	4	2	SIC	506	ABS	1	2	24MD	0	1	2.65589594841	None	None	None	None	1
1.7	2015_Jul_21_1053	s	s	4	2	SIC	507	ABS	2	2	24VD	0	1	0.799674987793	None	None	None	None	1
1.7	2015_Jul_21_1053	s	s	4	2	SIC	508	RC	1	0	23MC	0	1	2.05613899231	-530.0	-370.0	None	None	0
1.7	2015_Jul_21_1053	s	s	4	2	SIC	509	RC	2	2	23VD	1	0	0.517245054245	-232.0	89.0	-228	97	1
1.7	2015_Jul_21_1053	s	s	4	2	SIC	510	ABS	2	1	24VO	0	1	0.750268936157	None	None	None	None	1
1.7	2015_Jul_21_1053	s	s	4	2	SIC	511	RC	2	1	23VO	1	0	0.853667020798	-131.0	236.0	-126	225	1
1.7	2015_Jul_21_1053	s	s	4	2	SIC	512	RC	0	1	23RO	1	0	1.84718990326	380.0	-74.0	392	-64	1
1.7	2015_Jul_21_1053	s	s	4	2	SIC	513	RC	0	2	23RD	1	0	1.92469596863	-414.0	312.0	-420	307	1
1.7	2015_Jul_21_1053	s	s	4	2	SIC	514	RC	1	2	23MD	1	0	2.03232192993	342.0	4.0	335	-3	1
1.7	2015_Jul_21_1053	s	s	4	2	SIC	515	ABS	2	1	24VO	0	1	1.58836293221	None	None	None	None	1
1.7	2015_Jul_21_1053	s	s	4	2	SIC	516	ABS	1	2	24MD	0	1	0.923298120499	None	None	None	None	1
1.7	2015_Jul_21_1053	s	s	4	2	SIC	517	ABS	0	1	24RO	0	1	1.6826479435	None	None	None	None	1
1.7	2015_Jul_21_1053	s	s	4	2	SIC	518	ABS	1	1	24MO	0	1	3.13066005707	None	None	None	None	1
1.7	2015_Jul_21_1053	s	s	4	2	SIC	519	ABS	0	2	24RD	0	1	2.74804186821	None	None	None	None	1
1.7	2015_Jul_21_1053	s	s	4	2	SIC	520	ABS	2	2	24VD	0	1	0.82332110405	None	None	None	None	1
1.7	2015_Jul_21_1053	s	s	4	2	SIC	521	ABS	2	0	24VC	0	1	0.626872062683	None	None	None	None	1
1.7	2015_Jul_21_1053	s	s	4	2	SIC	522	RC	2	1	23VO	1	0	0.703008890152	-377.0	-405.0	-368	-406	1
1.7	2015_Jul_21_1053	s	s	4	2	SIC	523	RC	1	0	23MC	1	0	0.559226036072	-131.0	359.0	-133	364	1
1.7	2015_Jul_21_1053	s	s	4	2	SIC	524	RC	2	0	23VC	1	0	0.470272064209	194.0	404.0	201	413	1
1.7	2015_Jul_21_1053	s	s	4	2	SIC	525	RC	1	1	23MO	1	0	0.865908145905	-153.0	-149.0	-140	-146	1
1.7	2015_Jul_21_1053	s	s	4	2	SIC	526	RC	2	2	23VD	1	0	0.458459854126	-475.0	-120.0	-476	-114	1
1.7	2015_Jul_21_1053	s	s	4	2	SIC	527	RC	0	1	23RO	1	0	3.88372683525	-124.0	-226.0	-125	-222	1
1.7	2015_Jul_21_1053	s	s	4	2	SIC	528	ABS	1	0	24MC	0	1	4.90379810333	None	None	None	None	1
1.7	2015_Jul_21_1053	s	s	4	2	SIC	529	RC	1	0	23MC	0	1	1.82372403145	232.0	138.0	None	None	0
1.7	2015_Jul_21_1053	s	s	4	2	SIC	530	ABS	2	0	24VC	0	1	0.635038852692	None	None	None	None	1
1.7	2015_Jul_21_1053	s	s	4	2	SIC	531	ABS	2	1	24VO	0	1	1.05634021759	None	None	None	None	1
1.7	2015_Jul_21_1053	s	s	4	2	SIC	532	RC	0	2	23RD	1	0	2.30639195442	12.0	164.0	22	162	1
1.7	2015_Jul_21_1053	s	s	4	2	SIC	533	RC	2	0	23VC	1	0	2.31813406944	-3.0	-203.0	-88	78	0
1.7	2015_Jul_21_1053	s	s	4	2	SIC	534	ABS	1	1	24MO	0	1	1.67081522942	None	None	None	None	1
1.7	2015_Jul_21_1053	s	s	4	2	SIC	535	ABS	0	2	24RD	0	1	5.99061703682	None	None	None	None	1
1.7	2015_Jul_21_1053	s	s	4	2	SIC	536	RC	0	1	23RO	1	0	0.959983825684	-433.0	-98.0	-443	-94	1
1.7	2015_Jul_21_1053	s	s	4	2	SIC	537	ABS	0	1	24RO	0	1	5.13806509972	None	None	None	None	1
1.7	2015_Jul_21_1053	s	s	4	2	SIC	538	ABS	2	2	24VD	0	1	1.00638794899	None	None	None	None	1
1.7	2015_Jul_21_1053	s	s	4	2	SIC	539	RC	2	2	23VD	1	0	2.15099287033	407.0	140.0	407	133	1
1.7	2015_Jul_21_1053	s	s	4	2	SIC	540	RC	2	1	23VO	1	0	1.56480622292	250.0	58.0	243	63	1
1.7	2015_Jul_21_1053	s	s	4	2	SIC	541	RC	1	2	23MD	1	0	0.493629932404	-187.0	194.0	-189	191	1
1.7	2015_Jul_21_1053	s	s	4	2	SIC	542	ABS	1	0	24MC	0	1	1.90609717369	None	None	None	None	1
1.7	2015_Jul_21_1053	s	s	4	2	SIC	543	RC	1	1	23MO	1	0	1.50600194931	407.0	-203.0	401	-199	1
1.7	2015_Jul_21_1053	s	s	4	2	SIC	544	ABS	1	2	24MD	0	1	1.55306196213	None	None	None	None	1
1.7	2015_Jul_21_1053	s	s	4	2	SIC	545	RC	1	1	23MO	1	0	1.45887708664	-164.0	-202.0	-160	-201	1
1.7	2015_Jul_21_1053	s	s	4	2	SIC	546	RC	0	1	23RO	0	1	4.49574398994	-439.0	402.0	None	None	0
1.7	2015_Jul_21_1053	s	s	4	2	SIC	547	ABS	2	1	24VO	0	1	0.654847145081	None	None	None	None	1
1.7	2015_Jul_21_1053	s	s	4	2	SIC	548	RC	2	1	23VO	1	0	0.776250123978	417.0	-337.0	418	-340	1
1.7	2015_Jul_21_1053	s	s	4	2	SIC	549	ABS	2	0	24VC	0	1	2.9065990448	None	None	None	None	1
1.7	2015_Jul_21_1053	s	s	4	2	SIC	550	RC	0	2	23RD	1	0	0.670735836029	-354.0	152.0	-346	157	1
1.7	2015_Jul_21_1053	s	s	4	2	SIC	551	ABS	1	0	24MC	0	1	7.06210780144	None	None	None	None	1
1.7	2015_Jul_21_1053	s	s	4	2	SIC	552	RC	1	0	23MC	1	0	1.12368083	-33.0	83.0	-30	88	1
1.7	2015_Jul_21_1053	s	s	4	2	SIC	553	ABS	2	2	24VD	0	1	8.10660386086	None	None	None	None	1
1.7	2015_Jul_21_1053	s	s	4	2	SIC	554	RC	2	2	23VD	0	1	1.56205892563	524.0	186.0	None	None	0
1.7	2015_Jul_21_1053	s	s	4	2	SIC	555	ABS	0	1	24RO	0	1	3.17521595955	None	None	None	None	1
1.7	2015_Jul_21_1053	s	s	4	2	SIC	556	ABS	1	2	24MD	0	1	2.7834880352	None	None	None	None	1
1.7	2015_Jul_21_1053	s	s	4	2	SIC	557	RC	2	0	23VC	1	0	1.44367814064	-406.0	-87.0	-418	-82	1
1.7	2015_Jul_21_1053	s	s	4	2	SIC	558	ABS	0	2	24RD	0	1	3.57773113251	None	None	None	None	1
1.7	2015_Jul_21_1053	s	s	4	2	SIC	559	ABS	1	1	24MO	0	1	1.32948303223	None	None	None	None	1
1.7	2015_Jul_21_1053	s	s	4	2	SIC	560	RC	1	2	23MD	1	0	0.747797966003	162.0	228.0	167	228	1
1.7	2015_Jul_21_1053	s	s	4	2	SIC	561	ABS	0	1	24RO	0	1	2.57194590569	None	None	None	None	1
1.7	2015_Jul_21_1053	s	s	4	2	SIC	562	ABS	1	2	24MD	0	1	2.9009270668	None	None	None	None	1
1.7	2015_Jul_21_1053	s	s	4	2	SIC	563	ABS	1	1	24MO	0	1	1.05222702026	None	None	None	None	1
1.7	2015_Jul_21_1053	s	s	4	2	SIC	564	RC	1	1	23MO	1	0	0.889147996902	374.0	-308.0	368	-305	1
1.7	2015_Jul_21_1053	s	s	4	2	SIC	565	RC	0	1	23RO	1	0	2.11791706085	-304.0	266.0	-299	257	1
1.7	2015_Jul_21_1053	s	s	4	2	SIC	566	RC	2	1	23VO	1	0	1.16466188431	230.0	-290.0	235	-292	1
1.7	2015_Jul_21_1053	s	s	4	2	SIC	567	RC	2	0	23VC	1	0	2.09459900856	378.0	-179.0	387	-179	1
1.7	2015_Jul_21_1053	s	s	4	2	SIC	568	ABS	2	1	24VO	0	1	0.679533004761	None	None	None	None	1
1.7	2015_Jul_21_1053	s	s	4	2	SIC	569	RC	2	2	23VD	1	0	0.717366933823	-504.0	340.0	-498	333	1
1.7	2015_Jul_21_1053	s	s	4	2	SIC	570	RC	1	0	23MC	1	0	1.58496499062	13.0	-118.0	21	-110	1
1.7	2015_Jul_21_1053	s	s	4	2	SIC	571	ABS	2	0	24VC	0	1	1.80628013611	None	None	None	None	1
1.7	2015_Jul_21_1053	s	s	4	2	SIC	572	RC	1	2	23MD	1	0	0.787846803665	-462.0	-253.0	-454	-256	1
1.7	2015_Jul_21_1053	s	s	4	2	SIC	573	ABS	1	0	24MC	0	1	1.25378513336	None	None	None	None	1
1.7	2015_Jul_21_1053	s	s	4	2	SIC	574	RC	0	2	23RD	1	0	0.693781852722	-307.0	-299.0	-308	-299	1
1.7	2015_Jul_21_1053	s	s	4	2	SIC	575	ABS	0	2	24RD	0	1	1.46535181999	None	None	None	None	1
1.7	2015_Jul_21_1053	s	s	4	2	SIC	576	ABS	2	2	24VD	0	1	0.717396974564	None	None	None	None	1
1.7	2015_Jul_21_1053	s	s	4	2	SIC	577	ABS	1	0	24MC	0	1	1.69475793839	None	None	None	None	1
1.7	2015_Jul_21_1053	s	s	4	2	SIC	578	ABS	2	1	24VO	0	1	0.63037610054	None	None	None	None	1
1.7	2015_Jul_21_1053	s	s	4	2	SIC	579	ABS	2	0	24VC	0	1	0.523416996002	None	None	None	None	1
1.7	2015_Jul_21_1053	s	s	4	2	SIC	580	ABS	1	1	24MO	0	1	1.44462895393	None	None	None	None	1
1.7	2015_Jul_21_1053	s	s	4	2	SIC	581	RC	2	0	23VC	1	0	0.729159116745	302.0	-224.0	311	-220	1
1.7	2015_Jul_21_1053	s	s	4	2	SIC	582	RC	1	1	23MO	1	0	0.623085021973	99.0	-268.0	97	-274	1
1.7	2015_Jul_21_1053	s	s	4	2	SIC	583	RC	2	1	23VO	1	0	0.432786941528	-325.0	-245.0	-332	-243	1
1.7	2015_Jul_21_1053	s	s	4	2	SIC	584	RC	1	0	23MC	1	0	0.587881088257	-23.0	13.0	-22	11	1
1.7	2015_Jul_21_1053	s	s	4	2	SIC	585	ABS	0	2	24RD	0	1	0.748171806335	None	None	None	None	1
1.7	2015_Jul_21_1053	s	s	4	2	SIC	586	ABS	0	1	24RO	0	1	2.52996301651	None	None	None	None	1
1.7	2015_Jul_21_1053	s	s	4	2	SIC	587	RC	1	2	23MD	1	0	1.1726629734	299.0	-276.0	295	-269	1
1.7	2015_Jul_21_1053	s	s	4	2	SIC	588	RC	0	1	23RO	1	0	1.92968702316	119.0	2.0	113	-3	1
1.7	2015_Jul_21_1053	s	s	4	2	SIC	589	RC	2	2	23VD	1	0	0.490210056305	149.0	382.0	148	390	1
1.7	2015_Jul_21_1053	s	s	4	2	SIC	590	ABS	1	2	24MD	0	1	1.30579805374	None	None	None	None	1
1.7	2015_Jul_21_1053	s	s	4	2	SIC	591	RC	0	2	23RD	1	0	2.3298869133	368.0	-290.0	361	-291	1
1.7	2015_Jul_21_1053	s	s	4	2	SIC	592	ABS	2	2	24VD	0	1	2.74949097633	None	None	None	None	1
