Version	Date	Stimuli	Method	Subject	Session	Condition	Trial	Target	Channel1	Channel2	Distractors	LMouseButton	RMouseButton	RT	TargetX	TargetY	ResponseX	ResponseY	Correct
1.7	2015_Jul_23_1041	s	s	4	4	Capacity	1	RC	0	2	23RD	1	0	1.10585594177	401.0	-399.0	402	-402	1
1.7	2015_Jul_23_1041	s	s	4	4	Capacity	2	ABS	0	1	24RO	0	1	2.94564986229	None	None	None	None	1
1.7	2015_Jul_23_1041	s	s	4	4	Capacity	3	ABS	0	2	24RD	0	1	0.879672050476	None	None	None	None	1
1.7	2015_Jul_23_1041	s	s	4	4	Capacity	4	RC	0	1	23RO	1	0	2.5491900444	473.0	-13.0	486	-3	1
1.7	2015_Jul_23_1041	s	s	4	4	Capacity	5	ABS	0	2	24RD	0	1	0.811563014984	None	None	None	None	1
1.7	2015_Jul_23_1041	s	s	4	4	Capacity	6	RC	0	1	23RO	1	0	1.07041788101	345.0	85.0	343	93	1
1.7	2015_Jul_23_1041	s	s	4	4	Capacity	7	RC	0	2	23RD	1	0	0.632658004761	281.0	132.0	293	136	1
1.7	2015_Jul_23_1041	s	s	4	4	Capacity	8	ABS	0	1	24RO	0	1	4.33100700378	None	None	None	None	1
1.7	2015_Jul_23_1041	s	s	4	4	Capacity	9	RC	0	1	23RO	1	0	1.16463708878	182.0	42.0	183	39	1
1.7	2015_Jul_23_1041	s	s	4	4	Capacity	10	ABS	0	1	24RO	0	1	4.78666114807	None	None	None	None	1
1.7	2015_Jul_23_1041	s	s	4	4	Capacity	11	RC	0	2	23RD	1	0	0.576433897018	507.0	151.0	492	158	1
1.7	2015_Jul_23_1041	s	s	4	4	Capacity	12	ABS	0	2	24RD	0	1	0.936141967773	None	None	None	None	1
1.7	2015_Jul_23_1041	s	s	4	4	Capacity	13	RC	0	2	23RD	1	0	0.570863962173	526.0	132.0	527	141	1
1.7	2015_Jul_23_1041	s	s	4	4	Capacity	14	ABS	0	1	24RO	0	1	3.8430480957	None	None	None	None	1
1.7	2015_Jul_23_1041	s	s	4	4	Capacity	15	RC	0	1	23RO	1	0	2.54557704926	343.0	242.0	337	238	1
1.7	2015_Jul_23_1041	s	s	4	4	Capacity	16	ABS	0	2	24RD	0	1	0.85604596138	None	None	None	None	1
1.7	2015_Jul_23_1041	s	s	4	4	Capacity	17	ABS	0	2	24RD	0	1	0.722993135452	None	None	None	None	1
1.7	2015_Jul_23_1041	s	s	4	4	Capacity	18	RC	0	2	23RD	1	0	0.729331016541	-446.0	142.0	-447	127	1
1.7	2015_Jul_23_1041	s	s	4	4	Capacity	19	RC	0	1	23RO	1	0	4.15146112442	-443.0	-412.0	-451	-417	1
1.7	2015_Jul_23_1041	s	s	4	4	Capacity	20	ABS	0	1	24RO	0	1	4.03161501884	None	None	None	None	1
1.7	2015_Jul_23_1041	s	s	4	4	Capacity	21	RC	0	1	23RO	1	0	1.17640185356	-436.0	-262.0	-436	-254	1
1.7	2015_Jul_23_1041	s	s	4	4	Capacity	22	ABS	0	1	24RO	0	1	3.53718185425	None	None	None	None	1
1.7	2015_Jul_23_1041	s	s	4	4	Capacity	23	RC	0	2	23RD	1	0	0.482392072678	60.0	147.0	73	151	1
1.7	2015_Jul_23_1041	s	s	4	4	Capacity	24	ABS	0	2	24RD	0	1	0.787985086441	None	None	None	None	1
1.7	2015_Jul_23_1041	s	s	4	4	Capacity	25	RC	0	1	23RO	1	0	2.56041502953	149.0	14.0	152	15	1
1.7	2015_Jul_23_1041	s	s	4	4	Capacity	26	RC	0	2	23RD	1	0	0.599718093872	408.0	76.0	411	76	1
1.7	2015_Jul_23_1041	s	s	4	4	Capacity	27	ABS	0	2	24RD	0	1	0.889330148697	None	None	None	None	1
1.7	2015_Jul_23_1041	s	s	4	4	Capacity	28	ABS	0	1	24RO	0	1	5.12632894516	None	None	None	None	1
1.7	2015_Jul_23_1041	s	s	4	4	Capacity	29	ABS	0	1	24RO	0	1	4.81345701218	None	None	None	None	1
1.7	2015_Jul_23_1041	s	s	4	4	Capacity	30	RC	0	1	23RO	1	0	0.803726911545	94.0	-139.0	98	-136	1
1.7	2015_Jul_23_1041	s	s	4	4	Capacity	31	RC	0	2	23RD	1	0	0.535661935806	-303.0	-17.0	-302	-7	1
1.7	2015_Jul_23_1041	s	s	4	4	Capacity	32	ABS	0	2	24RD	0	1	1.0232629776	None	None	None	None	1
1.7	2015_Jul_23_1041	s	s	4	4	Capacity	33	RC	0	2	23RD	1	0	0.434851884842	-126.0	7.0	-127	17	1
1.7	2015_Jul_23_1041	s	s	4	4	Capacity	34	ABS	0	1	24RO	0	1	4.83712887764	None	None	None	None	1
1.7	2015_Jul_23_1041	s	s	4	4	Capacity	35	RC	0	1	23RO	0	1	5.02287793159	-495.0	217.0	None	None	0
1.7	2015_Jul_23_1041	s	s	4	4	Capacity	36	ABS	0	2	24RD	0	1	1.06545090675	None	None	None	None	1
1.7	2015_Jul_23_1041	s	s	4	4	Capacity	37	ABS	0	2	24RD	0	1	0.748216152191	None	None	None	None	1
1.7	2015_Jul_23_1041	s	s	4	4	Capacity	38	RC	0	1	23RO	1	0	4.05555891991	-462.0	-407.0	-462	-404	1
1.7	2015_Jul_23_1041	s	s	4	4	Capacity	39	RC	0	2	23RD	1	0	0.535846948624	258.0	108.0	256	111	1
1.7	2015_Jul_23_1041	s	s	4	4	Capacity	40	ABS	0	1	24RO	0	1	4.00138092041	None	None	None	None	1
1.7	2015_Jul_23_1041	s	s	4	4	Capacity	41	RC	0	1	23RO	1	0	1.50604200363	-220.0	-329.0	-228	-330	1
1.7	2015_Jul_23_1041	s	s	4	4	Capacity	42	ABS	0	1	24RO	0	1	3.56165218353	None	None	None	None	1
1.7	2015_Jul_23_1041	s	s	4	4	Capacity	43	RC	0	2	23RD	1	0	0.717360973358	-279.0	40.0	-272	36	1
1.7	2015_Jul_23_1041	s	s	4	4	Capacity	44	ABS	0	2	24RD	0	1	1.03214788437	None	None	None	None	1
1.7	2015_Jul_23_1041	s	s	4	4	Capacity	45	ABS	0	1	24RO	0	1	5.31974101067	None	None	None	None	1
1.7	2015_Jul_23_1041	s	s	4	4	Capacity	46	RC	0	2	23RD	1	0	0.608850002289	247.0	69.0	252	65	1
1.7	2015_Jul_23_1041	s	s	4	4	Capacity	47	RC	0	1	23RO	1	0	5.22926902771	-146.0	274.0	-149	277	1
1.7	2015_Jul_23_1041	s	s	4	4	Capacity	48	ABS	0	2	24RD	0	1	0.983217954636	None	None	None	None	1
1.7	2015_Jul_23_1041	s	s	4	4	Capacity	49	RC	0	2	23RD	1	0	0.619688034058	459.0	-349.0	467	-352	1
1.7	2015_Jul_23_1041	s	s	4	4	Capacity	50	ABS	0	2	24RD	0	1	0.70131111145	None	None	None	None	1
1.7	2015_Jul_23_1041	s	s	4	4	Capacity	51	ABS	0	1	24RO	0	1	6.82640504837	None	None	None	None	1
1.7	2015_Jul_23_1041	s	s	4	4	Capacity	52	RC	0	1	23RO	1	0	3.12425804138	-259.0	43.0	-254	38	1
1.7	2015_Jul_23_1041	s	s	4	4	Capacity	53	RC	0	1	23RO	1	0	0.929173946381	-349.0	149.0	-355	145	1
1.7	2015_Jul_23_1041	s	s	4	4	Capacity	54	ABS	0	1	24RO	0	1	4.22517609596	None	None	None	None	1
1.7	2015_Jul_23_1041	s	s	4	4	Capacity	55	ABS	0	2	24RD	0	1	1.17634296417	None	None	None	None	1
1.7	2015_Jul_23_1041	s	s	4	4	Capacity	56	RC	0	2	23RD	1	0	0.617995977402	274.0	-371.0	281	-362	1
1.7	2015_Jul_23_1041	s	s	4	4	Capacity	57	ABS	0	1	24RO	0	1	7.23827195168	None	None	None	None	1
1.7	2015_Jul_23_1041	s	s	4	4	Capacity	58	RC	0	1	23RO	1	0	5.16168498993	195.0	-353.0	191	-365	1
1.7	2015_Jul_23_1041	s	s	4	4	Capacity	59	ABS	0	2	24RD	0	1	0.741011857986	None	None	None	None	1
1.7	2015_Jul_23_1041	s	s	4	4	Capacity	60	RC	0	2	23RD	1	0	0.764858007431	433.0	293.0	442	292	1
1.7	2015_Jul_23_1041	s	s	4	4	Capacity	61	ABS	0	1	24RO	0	1	5.97570705414	None	None	None	None	1
1.7	2015_Jul_23_1041	s	s	4	4	Capacity	62	RC	0	1	23RO	1	0	3.27189016342	308.0	-403.0	312	-414	1
1.7	2015_Jul_23_1041	s	s	4	4	Capacity	63	RC	0	2	23RD	1	0	0.608757019043	-344.0	-28.0	-351	-31	1
1.7	2015_Jul_23_1041	s	s	4	4	Capacity	64	ABS	0	2	24RD	0	1	0.846816062927	None	None	None	None	1
1.7	2015_Jul_23_1041	s	s	4	4	Capacity	65	ABS	0	2	24RD	0	1	0.738363027573	None	None	None	None	1
1.7	2015_Jul_23_1041	s	s	4	4	Capacity	66	RC	0	2	23RD	1	0	0.747739076614	272.0	246.0	276	239	1
1.7	2015_Jul_23_1041	s	s	4	4	Capacity	67	ABS	0	1	24RO	0	1	3.98488903046	None	None	None	None	1
1.7	2015_Jul_23_1041	s	s	4	4	Capacity	68	RC	0	1	23RO	1	0	2.35122704506	-247.0	305.0	-234	308	1
1.7	2015_Jul_23_1041	s	s	4	4	Capacity	69	RC	0	2	23RD	1	0	0.56939291954	362.0	369.0	363	366	1
1.7	2015_Jul_23_1041	s	s	4	4	Capacity	70	RC	0	1	23RO	1	0	4.58455300331	64.0	150.0	57	155	1
1.7	2015_Jul_23_1041	s	s	4	4	Capacity	71	ABS	0	1	24RO	0	1	5.63739800453	None	None	None	None	1
1.7	2015_Jul_23_1041	s	s	4	4	Capacity	72	ABS	0	2	24RD	0	1	1.38832497597	None	None	None	None	1
1.7	2015_Jul_23_1041	s	s	4	4	Capacity	73	RC	0	2	23RD	1	0	0.938468933105	34.0	255.0	30	258	1
1.7	2015_Jul_23_1041	s	s	4	4	Capacity	74	ABS	0	2	24RD	0	1	0.670355081558	None	None	None	None	1
1.7	2015_Jul_23_1041	s	s	4	4	Capacity	75	RC	0	1	23RO	1	0	1.2508430481	-235.0	-211.0	-226	-204	1
1.7	2015_Jul_23_1041	s	s	4	4	Capacity	76	ABS	0	1	24RO	0	1	4.67269897461	None	None	None	None	1
1.7	2015_Jul_23_1041	s	s	4	4	Capacity	77	ABS	0	1	24RO	0	1	4.23677682877	None	None	None	None	1
1.7	2015_Jul_23_1041	s	s	4	4	Capacity	78	ABS	0	2	24RD	0	1	0.829759836197	None	None	None	None	1
1.7	2015_Jul_23_1041	s	s	4	4	Capacity	79	RC	0	1	23RO	0	1	5.32647800446	15.0	-265.0	None	None	0
1.7	2015_Jul_23_1041	s	s	4	4	Capacity	80	RC	0	2	23RD	1	0	0.937710046768	351.0	48.0	354	42	1
1.7	2015_Jul_23_1041	s	s	4	4	Capacity	81	ABS	0	1	24RO	0	1	4.38974690437	None	None	None	None	1
1.7	2015_Jul_23_1041	s	s	4	4	Capacity	82	ABS	0	2	24RD	0	1	1.15286111832	None	None	None	None	1
1.7	2015_Jul_23_1041	s	s	4	4	Capacity	83	RC	0	1	23RO	1	0	1.42904496193	-216.0	54.0	-208	60	1
1.7	2015_Jul_23_1041	s	s	4	4	Capacity	84	RC	0	2	23RD	1	0	0.690547227859	-392.0	404.0	-393	405	1
1.7	2015_Jul_23_1041	s	s	4	4	Capacity	85	RC	0	1	23RO	1	0	1.38824105263	-362.0	-346.0	-370	-351	1
1.7	2015_Jul_23_1041	s	s	4	4	Capacity	86	RC	0	2	23RD	1	0	0.599686861038	368.0	-355.0	367	-373	1
1.7	2015_Jul_23_1041	s	s	4	4	Capacity	87	ABS	0	1	24RO	0	1	6.11995005608	None	None	None	None	1
1.7	2015_Jul_23_1041	s	s	4	4	Capacity	88	ABS	0	2	24RD	0	1	1.34123182297	None	None	None	None	1
1.7	2015_Jul_23_1041	s	s	4	4	Capacity	89	RC	0	1	23RO	1	0	3.18928289413	468.0	301.0	459	310	1
1.7	2015_Jul_23_1041	s	s	4	4	Capacity	90	ABS	0	1	24RO	0	1	9.36619496346	None	None	None	None	1
1.7	2015_Jul_23_1041	s	s	4	4	Capacity	91	ABS	0	2	24RD	0	1	2.32408905029	None	None	None	None	1
1.7	2015_Jul_23_1041	s	s	4	4	Capacity	92	RC	0	2	23RD	1	0	0.737770080566	-344.0	-379.0	-331	-375	1
1.7	2015_Jul_23_1041	s	s	4	4	Capacity	1	RC	1	0	23MC	1	0	0.670317173004	235.0	352.0	233	345	1
1.7	2015_Jul_23_1041	s	s	4	4	Capacity	2	ABS	1	0	24MC	0	1	1.35996007919	None	None	None	None	1
1.7	2015_Jul_23_1041	s	s	4	4	Capacity	3	RC	2	0	23VC	1	0	0.453858137131	109.0	4.0	108	8	1
1.7	2015_Jul_23_1041	s	s	4	4	Capacity	4	ABS	2	0	24VC	0	1	0.617522001266	None	None	None	None	1
1.7	2015_Jul_23_1041	s	s	4	4	Capacity	5	ABS	1	0	24MC	0	1	1.64481115341	None	None	None	None	1
1.7	2015_Jul_23_1041	s	s	4	4	Capacity	6	ABS	2	0	24VC	0	1	0.65839600563	None	None	None	None	1
1.7	2015_Jul_23_1041	s	s	4	4	Capacity	7	RC	1	0	23MC	1	0	0.783257007599	-106.0	-137.0	-99	-139	1
1.7	2015_Jul_23_1041	s	s	4	4	Capacity	8	RC	2	0	23VC	1	0	0.700287103653	490.0	216.0	486	217	1
1.7	2015_Jul_23_1041	s	s	4	4	Capacity	9	RC	2	0	23VC	1	0	0.493942975998	-297.0	-105.0	-309	-103	1
1.7	2015_Jul_23_1041	s	s	4	4	Capacity	10	ABS	1	0	24MC	0	1	1.6473441124	None	None	None	None	1
1.7	2015_Jul_23_1041	s	s	4	4	Capacity	11	ABS	2	0	24VC	0	1	0.505547046661	None	None	None	None	1
1.7	2015_Jul_23_1041	s	s	4	4	Capacity	12	RC	1	0	23MC	1	0	0.664878129959	214.0	345.0	222	347	1
1.7	2015_Jul_23_1041	s	s	4	4	Capacity	13	ABS	2	0	24VC	0	1	0.721174001694	None	None	None	None	1
1.7	2015_Jul_23_1041	s	s	4	4	Capacity	14	RC	2	0	23VC	1	0	0.454748868942	-23.0	151.0	-12	160	1
1.7	2015_Jul_23_1041	s	s	4	4	Capacity	15	ABS	1	0	24MC	0	1	1.97344708443	None	None	None	None	1
1.7	2015_Jul_23_1041	s	s	4	4	Capacity	16	RC	1	0	23MC	1	0	0.771250009537	255.0	-295.0	248	-286	1
1.7	2015_Jul_23_1041	s	s	4	4	Capacity	17	RC	2	0	23VC	1	0	0.499004840851	-351.0	112.0	-354	103	1
1.7	2015_Jul_23_1041	s	s	4	4	Capacity	18	ABS	2	0	24VC	0	1	0.753113031387	None	None	None	None	1
1.7	2015_Jul_23_1041	s	s	4	4	Capacity	19	RC	1	0	23MC	1	0	0.679473876953	287.0	73.0	286	72	1
1.7	2015_Jul_23_1041	s	s	4	4	Capacity	20	ABS	1	0	24MC	0	1	1.75698399544	None	None	None	None	1
1.7	2015_Jul_23_1041	s	s	4	4	Capacity	21	ABS	2	0	24VC	0	1	0.771161079407	None	None	None	None	1
1.7	2015_Jul_23_1041	s	s	4	4	Capacity	22	ABS	1	0	24MC	0	1	1.96040296555	None	None	None	None	1
1.7	2015_Jul_23_1041	s	s	4	4	Capacity	23	RC	1	0	23MC	1	0	0.77131986618	479.0	-324.0	479	-319	1
1.7	2015_Jul_23_1041	s	s	4	4	Capacity	24	RC	2	0	23VC	1	0	0.529026985168	350.0	370.0	353	363	1
1.7	2015_Jul_23_1041	s	s	4	4	Capacity	25	RC	1	0	23MC	1	0	0.646603107452	-250.0	264.0	-257	268	1
1.7	2015_Jul_23_1041	s	s	4	4	Capacity	26	RC	2	0	23VC	1	0	0.444034099579	-49.0	-226.0	-45	-221	1
1.7	2015_Jul_23_1041	s	s	4	4	Capacity	27	ABS	1	0	24MC	0	1	2.16517782211	None	None	None	None	1
1.7	2015_Jul_23_1041	s	s	4	4	Capacity	28	ABS	2	0	24VC	0	1	1.03519797325	None	None	None	None	1
1.7	2015_Jul_23_1041	s	s	4	4	Capacity	29	ABS	1	0	24MC	0	1	1.03505206108	None	None	None	None	1
1.7	2015_Jul_23_1041	s	s	4	4	Capacity	30	ABS	2	0	24VC	0	1	0.505631923676	None	None	None	None	1
1.7	2015_Jul_23_1041	s	s	4	4	Capacity	31	RC	1	0	23MC	1	0	0.853327035904	441.0	-360.0	448	-355	1
1.7	2015_Jul_23_1041	s	s	4	4	Capacity	32	RC	2	0	23VC	1	0	0.529183149338	-26.0	-217.0	-19	-212	1
1.7	2015_Jul_23_1041	s	s	4	4	Capacity	33	ABS	2	0	24VC	0	1	0.705579996109	None	None	None	None	1
1.7	2015_Jul_23_1041	s	s	4	4	Capacity	34	RC	2	0	23VC	1	0	0.490255117416	-9.0	-122.0	-5	-121	1
1.7	2015_Jul_23_1041	s	s	4	4	Capacity	35	ABS	1	0	24MC	0	1	1.87096118927	None	None	None	None	1
1.7	2015_Jul_23_1041	s	s	4	4	Capacity	36	RC	1	0	23MC	1	0	0.89991402626	-334.0	375.0	-330	376	1
1.7	2015_Jul_23_1041	s	s	4	4	Capacity	37	ABS	2	0	24VC	0	1	0.782465934753	None	None	None	None	1
1.7	2015_Jul_23_1041	s	s	4	4	Capacity	38	ABS	1	0	24MC	0	1	1.58835196495	None	None	None	None	1
1.7	2015_Jul_23_1041	s	s	4	4	Capacity	39	RC	1	0	23MC	1	0	1.00717997551	439.0	-3.0	439	2	1
1.7	2015_Jul_23_1041	s	s	4	4	Capacity	40	RC	2	0	23VC	1	0	0.476024866104	431.0	-133.0	418	-129	1
1.7	2015_Jul_23_1041	s	s	4	4	Capacity	41	RC	1	0	23MC	1	0	0.505676984787	-206.0	-293.0	-213	-298	1
1.7	2015_Jul_23_1041	s	s	4	4	Capacity	42	ABS	2	0	24VC	0	1	0.905709981918	None	None	None	None	1
1.7	2015_Jul_23_1041	s	s	4	4	Capacity	43	ABS	1	0	24MC	0	1	1.70119690895	None	None	None	None	1
1.7	2015_Jul_23_1041	s	s	4	4	Capacity	44	RC	2	0	23VC	1	0	0.500079154968	72.0	-353.0	79	-351	1
1.7	2015_Jul_23_1041	s	s	4	4	Capacity	45	ABS	1	0	24MC	0	1	2.05921220779	None	None	None	None	1
1.7	2015_Jul_23_1041	s	s	4	4	Capacity	46	RC	1	0	23MC	1	0	0.999882936478	32.0	130.0	31	133	1
1.7	2015_Jul_23_1041	s	s	4	4	Capacity	47	RC	2	0	23VC	1	0	0.847243785858	-290.0	-266.0	-301	-266	1
1.7	2015_Jul_23_1041	s	s	4	4	Capacity	48	ABS	2	0	24VC	0	1	0.59969496727	None	None	None	None	1
1.7	2015_Jul_23_1041	s	s	4	4	Capacity	49	RC	1	0	23MC	1	0	0.891849994659	-529.0	-31.0	-523	-32	1
1.7	2015_Jul_23_1041	s	s	4	4	Capacity	50	ABS	1	0	24MC	0	1	1.68259096146	None	None	None	None	1
1.7	2015_Jul_23_1041	s	s	4	4	Capacity	51	ABS	2	0	24VC	0	1	0.679561853409	None	None	None	None	1
1.7	2015_Jul_23_1041	s	s	4	4	Capacity	52	RC	2	0	23VC	1	0	0.547801971436	118.0	-34.0	112	-32	1
1.7	2015_Jul_23_1041	s	s	4	4	Capacity	53	ABS	1	0	24MC	0	1	1.85909295082	None	None	None	None	1
1.7	2015_Jul_23_1041	s	s	4	4	Capacity	54	RC	1	0	23MC	1	0	1.1944129467	342.0	99.0	342	99	1
1.7	2015_Jul_23_1041	s	s	4	4	Capacity	55	ABS	2	0	24VC	0	1	0.776246070862	None	None	None	None	1
1.7	2015_Jul_23_1041	s	s	4	4	Capacity	56	RC	2	0	23VC	1	0	0.490993976593	132.0	-3.0	143	-3	1
1.7	2015_Jul_23_1041	s	s	4	4	Capacity	57	RC	2	0	23VC	1	0	0.619574069977	507.0	-362.0	514	-369	1
1.7	2015_Jul_23_1041	s	s	4	4	Capacity	58	RC	1	0	23MC	1	0	0.464321136475	-479.0	234.0	-480	230	1
1.7	2015_Jul_23_1041	s	s	4	4	Capacity	59	ABS	2	0	24VC	0	1	0.676295042038	None	None	None	None	1
1.7	2015_Jul_23_1041	s	s	4	4	Capacity	60	ABS	1	0	24MC	0	1	1.38035798073	None	None	None	None	1
1.7	2015_Jul_23_1041	s	s	4	4	Capacity	61	RC	2	0	23VC	1	0	0.608948945999	481.0	-180.0	482	-172	1
1.7	2015_Jul_23_1041	s	s	4	4	Capacity	62	RC	1	0	23MC	1	0	0.634900808334	276.0	-172.0	276	-168	1
1.7	2015_Jul_23_1041	s	s	4	4	Capacity	63	ABS	1	0	24MC	0	1	1.6825530529	None	None	None	None	1
1.7	2015_Jul_23_1041	s	s	4	4	Capacity	64	ABS	2	0	24VC	0	1	0.540884971619	None	None	None	None	1
1.7	2015_Jul_23_1041	s	s	4	4	Capacity	65	ABS	1	0	24MC	0	1	1.36039209366	None	None	None	None	1
1.7	2015_Jul_23_1041	s	s	4	4	Capacity	66	RC	2	0	23VC	1	0	0.973779916763	484.0	137.0	492	133	1
1.7	2015_Jul_23_1041	s	s	4	4	Capacity	67	RC	1	0	23MC	1	0	0.929348945618	-52.0	346.0	-61	342	1
1.7	2015_Jul_23_1041	s	s	4	4	Capacity	68	ABS	2	0	24VC	0	1	0.623251199722	None	None	None	None	1
1.7	2015_Jul_23_1041	s	s	4	4	Capacity	69	ABS	1	0	24MC	0	1	1.61195802689	None	None	None	None	1
1.7	2015_Jul_23_1041	s	s	4	4	Capacity	70	RC	2	0	23VC	1	0	0.60333108902	-279.0	-138.0	-281	-141	1
1.7	2015_Jul_23_1041	s	s	4	4	Capacity	71	RC	1	0	23MC	1	0	0.841356039047	-460.0	-260.0	-456	-264	1
1.7	2015_Jul_23_1041	s	s	4	4	Capacity	72	ABS	2	0	24VC	0	1	0.509299039841	None	None	None	None	1
1.7	2015_Jul_23_1041	s	s	4	4	Capacity	73	ABS	2	0	24VC	0	1	0.618817806244	None	None	None	None	1
1.7	2015_Jul_23_1041	s	s	4	4	Capacity	74	RC	2	0	23VC	1	0	0.502995967865	-306.0	134.0	-299	133	1
1.7	2015_Jul_23_1041	s	s	4	4	Capacity	75	ABS	1	0	24MC	0	1	1.52729988098	None	None	None	None	1
1.7	2015_Jul_23_1041	s	s	4	4	Capacity	76	RC	1	0	23MC	1	0	1.37332296371	-66.0	103.0	-67	86	1
1.7	2015_Jul_23_1041	s	s	4	4	Capacity	77	RC	2	0	23VC	1	0	0.44181394577	-131.0	13.0	-138	13	1
1.7	2015_Jul_23_1041	s	s	4	4	Capacity	78	ABS	2	0	24VC	0	1	0.764487028122	None	None	None	None	1
1.7	2015_Jul_23_1041	s	s	4	4	Capacity	79	ABS	1	0	24MC	0	1	1.69031405449	None	None	None	None	1
1.7	2015_Jul_23_1041	s	s	4	4	Capacity	80	RC	1	0	23MC	1	0	0.701324939728	31.0	291.0	26	289	1
1.7	2015_Jul_23_1041	s	s	4	4	Capacity	81	ABS	2	0	24VC	0	1	0.806715011597	None	None	None	None	1
1.7	2015_Jul_23_1041	s	s	4	4	Capacity	82	ABS	1	0	24MC	0	1	1.88894295692	None	None	None	None	1
1.7	2015_Jul_23_1041	s	s	4	4	Capacity	83	RC	2	0	23VC	1	0	0.562506914139	-442.0	-177.0	-432	-168	1
1.7	2015_Jul_23_1041	s	s	4	4	Capacity	84	RC	1	0	23MC	1	0	0.806874036789	528.0	-221.0	524	-212	1
1.7	2015_Jul_23_1041	s	s	4	4	Capacity	85	RC	1	0	23MC	1	0	0.78006196022	-485.0	-324.0	-485	-324	1
1.7	2015_Jul_23_1041	s	s	4	4	Capacity	86	ABS	2	0	24VC	0	1	0.524685144424	None	None	None	None	1
1.7	2015_Jul_23_1041	s	s	4	4	Capacity	87	RC	2	0	23VC	1	0	0.52462887764	48.0	-302.0	53	-313	1
1.7	2015_Jul_23_1041	s	s	4	4	Capacity	88	ABS	1	0	24MC	0	1	1.58352804184	None	None	None	None	1
1.7	2015_Jul_23_1041	s	s	4	4	Capacity	89	RC	1	0	23MC	1	0	0.950369119644	426.0	406.0	430	402	1
1.7	2015_Jul_23_1041	s	s	4	4	Capacity	90	RC	2	0	23VC	1	0	0.52908205986	202.0	130.0	208	128	1
1.7	2015_Jul_23_1041	s	s	4	4	Capacity	91	ABS	1	0	24MC	0	1	1.60022997856	None	None	None	None	1
1.7	2015_Jul_23_1041	s	s	4	4	Capacity	92	ABS	2	0	24VC	0	1	0.587853908539	None	None	None	None	1
1.7	2015_Jul_23_1041	s	s	4	4	SIC	1	ABS	0	1	24RO	0	1	7.85911202431	None	None	None	None	1
1.7	2015_Jul_23_1041	s	s	4	4	SIC	2	RC	2	1	23VO	1	0	0.783962011337	-229.0	-9.0	-224	-13	1
1.7	2015_Jul_23_1041	s	s	4	4	SIC	3	RC	1	1	23MO	1	0	0.783372879028	-27.0	-273.0	-16	-272	1
1.7	2015_Jul_23_1041	s	s	4	4	SIC	4	ABS	2	2	24VD	0	1	0.595396995544	None	None	None	None	1
1.7	2015_Jul_23_1041	s	s	4	4	SIC	5	RC	0	1	23RO	0	1	4.25446391106	-536.0	371.0	None	None	0
1.7	2015_Jul_23_1041	s	s	4	4	SIC	6	ABS	0	2	24RD	0	1	0.706079006195	None	None	None	None	1
1.7	2015_Jul_23_1041	s	s	4	4	SIC	7	ABS	1	2	24MD	0	1	0.57618188858	None	None	None	None	1
1.7	2015_Jul_23_1041	s	s	4	4	SIC	8	ABS	2	1	24VO	0	1	0.548561811447	None	None	None	None	1
1.7	2015_Jul_23_1041	s	s	4	4	SIC	9	ABS	2	0	24VC	0	1	0.568907022476	None	None	None	None	1
1.7	2015_Jul_23_1041	s	s	4	4	SIC	10	RC	2	2	23VD	1	0	0.747025966644	-410.0	32.0	-398	42	1
1.7	2015_Jul_23_1041	s	s	4	4	SIC	11	RC	1	0	23MC	1	0	1.55068612099	427.0	162.0	429	152	1
1.7	2015_Jul_23_1041	s	s	4	4	SIC	12	ABS	1	1	24MO	0	1	2.25675106049	None	None	None	None	1
1.7	2015_Jul_23_1041	s	s	4	4	SIC	13	RC	1	2	23MD	1	0	0.940963983536	-451.0	17.0	-446	11	1
1.7	2015_Jul_23_1041	s	s	4	4	SIC	14	RC	0	2	23RD	1	0	0.477934837341	-13.0	17.0	-16	21	1
1.7	2015_Jul_23_1041	s	s	4	4	SIC	15	ABS	1	0	24MC	0	1	3.11630892754	None	None	None	None	1
1.7	2015_Jul_23_1041	s	s	4	4	SIC	16	RC	2	0	23VC	1	0	0.505537033081	-465.0	-139.0	-458	-135	1
1.7	2015_Jul_23_1041	s	s	4	4	SIC	17	RC	0	1	23RO	1	0	2.37704896927	391.0	141.0	392	136	1
1.7	2015_Jul_23_1041	s	s	4	4	SIC	18	ABS	2	1	24VO	0	1	1.87748718262	None	None	None	None	1
1.7	2015_Jul_23_1041	s	s	4	4	SIC	19	RC	2	2	23VD	1	0	0.47011089325	101.0	175.0	102	173	1
1.7	2015_Jul_23_1041	s	s	4	4	SIC	20	RC	1	1	23MO	1	0	0.853888034821	175.0	-158.0	181	-154	1
1.7	2015_Jul_23_1041	s	s	4	4	SIC	21	ABS	0	1	24RO	0	1	3.97268390656	None	None	None	None	1
1.7	2015_Jul_23_1041	s	s	4	4	SIC	22	RC	2	0	23VC	1	0	0.481976032257	-450.0	-38.0	-441	-29	1
1.7	2015_Jul_23_1041	s	s	4	4	SIC	23	ABS	1	0	24MC	0	1	2.70714497566	None	None	None	None	1
1.7	2015_Jul_23_1041	s	s	4	4	SIC	24	ABS	1	1	24MO	0	1	2.80919289589	None	None	None	None	1
1.7	2015_Jul_23_1041	s	s	4	4	SIC	25	RC	0	2	23RD	1	0	1.38829994202	-442.0	-45.0	-436	-43	1
1.7	2015_Jul_23_1041	s	s	4	4	SIC	26	ABS	1	2	24MD	0	1	1.13583898544	None	None	None	None	1
1.7	2015_Jul_23_1041	s	s	4	4	SIC	27	ABS	2	0	24VC	0	1	0.723577976227	None	None	None	None	1
1.7	2015_Jul_23_1041	s	s	4	4	SIC	28	ABS	2	2	24VD	0	1	0.502995014191	None	None	None	None	1
1.7	2015_Jul_23_1041	s	s	4	4	SIC	29	ABS	0	2	24RD	0	1	0.705693006516	None	None	None	None	1
1.7	2015_Jul_23_1041	s	s	4	4	SIC	30	RC	2	1	23VO	1	0	0.727061033249	-233.0	283.0	-236	280	1
1.7	2015_Jul_23_1041	s	s	4	4	SIC	31	RC	1	2	23MD	1	0	2.1417620182	-338.0	-15.0	-344	-11	1
1.7	2015_Jul_23_1041	s	s	4	4	SIC	32	RC	1	0	23MC	1	0	1.4475979805	230.0	-407.0	232	-402	1
1.7	2015_Jul_23_1041	s	s	4	4	SIC	33	ABS	1	0	24MC	0	1	1.19996905327	None	None	None	None	1
1.7	2015_Jul_23_1041	s	s	4	4	SIC	34	RC	2	1	23VO	1	0	0.470257043839	414.0	95.0	417	105	1
1.7	2015_Jul_23_1041	s	s	4	4	SIC	35	ABS	2	1	24VO	0	1	0.635065078735	None	None	None	None	1
1.7	2015_Jul_23_1041	s	s	4	4	SIC	36	ABS	1	2	24MD	0	1	0.646765947342	None	None	None	None	1
1.7	2015_Jul_23_1041	s	s	4	4	SIC	37	RC	1	2	23MD	1	0	0.864932060242	-26.0	357.0	-35	357	1
1.7	2015_Jul_23_1041	s	s	4	4	SIC	38	ABS	2	0	24VC	0	1	0.658648967743	None	None	None	None	1
1.7	2015_Jul_23_1041	s	s	4	4	SIC	39	RC	1	1	23MO	1	0	0.594588041306	30.0	-178.0	25	-176	1
1.7	2015_Jul_23_1041	s	s	4	4	SIC	40	ABS	1	1	24MO	0	1	0.891758918762	None	None	None	None	1
1.7	2015_Jul_23_1041	s	s	4	4	SIC	41	ABS	0	2	24RD	0	1	2.80991792679	None	None	None	None	1
1.7	2015_Jul_23_1041	s	s	4	4	SIC	42	RC	0	1	23RO	0	1	3.29212284088	411.0	409.0	None	None	0
1.7	2015_Jul_23_1041	s	s	4	4	SIC	43	RC	1	0	23MC	1	0	1.16158103943	166.0	389.0	170	396	1
1.7	2015_Jul_23_1041	s	s	4	4	SIC	44	RC	2	0	23VC	1	0	0.455900192261	-228.0	-36.0	-226	-37	1
1.7	2015_Jul_23_1041	s	s	4	4	SIC	45	RC	0	2	23RD	1	0	0.573579072952	406.0	266.0	407	262	1
1.7	2015_Jul_23_1041	s	s	4	4	SIC	46	ABS	0	1	24RO	0	1	4.13073611259	None	None	None	None	1
1.7	2015_Jul_23_1041	s	s	4	4	SIC	47	RC	2	2	23VD	1	0	0.493800878525	303.0	285.0	299	285	1
1.7	2015_Jul_23_1041	s	s	4	4	SIC	48	ABS	2	2	24VD	0	1	0.788003206253	None	None	None	None	1
1.7	2015_Jul_23_1041	s	s	4	4	SIC	49	ABS	2	2	24VD	0	1	0.832085847855	None	None	None	None	1
1.7	2015_Jul_23_1041	s	s	4	4	SIC	50	RC	1	1	23MO	1	0	0.795980930328	433.0	-235.0	426	-239	1
1.7	2015_Jul_23_1041	s	s	4	4	SIC	51	ABS	0	1	24RO	0	1	5.05707406998	None	None	None	None	1
1.7	2015_Jul_23_1041	s	s	4	4	SIC	52	ABS	0	2	24RD	0	1	0.799777030945	None	None	None	None	1
1.7	2015_Jul_23_1041	s	s	4	4	SIC	53	RC	0	1	23RO	1	0	1.07762098312	56.0	-304.0	56	-296	1
1.7	2015_Jul_23_1041	s	s	4	4	SIC	54	RC	2	0	23VC	1	0	1.42356085777	388.0	41.0	388	24	1
1.7	2015_Jul_23_1041	s	s	4	4	SIC	55	ABS	1	0	24MC	0	1	1.32442092896	None	None	None	None	1
1.7	2015_Jul_23_1041	s	s	4	4	SIC	56	RC	1	2	23MD	1	0	0.835448026657	349.0	117.0	355	126	1
1.7	2015_Jul_23_1041	s	s	4	4	SIC	57	RC	1	0	23MC	1	0	0.894052028656	244.0	149.0	255	152	1
1.7	2015_Jul_23_1041	s	s	4	4	SIC	58	ABS	1	1	24MO	0	1	2.28057193756	None	None	None	None	1
1.7	2015_Jul_23_1041	s	s	4	4	SIC	59	ABS	2	0	24VC	0	1	0.831315994263	None	None	None	None	1
1.7	2015_Jul_23_1041	s	s	4	4	SIC	60	RC	2	1	23VO	1	0	0.594745874405	508.0	251.0	507	242	1
1.7	2015_Jul_23_1041	s	s	4	4	SIC	61	RC	2	2	23VD	1	0	0.894004821777	-166.0	141.0	-170	137	1
1.7	2015_Jul_23_1041	s	s	4	4	SIC	62	ABS	2	1	24VO	0	1	0.797288179398	None	None	None	None	1
1.7	2015_Jul_23_1041	s	s	4	4	SIC	63	ABS	1	2	24MD	0	1	1.17642903328	None	None	None	None	1
1.7	2015_Jul_23_1041	s	s	4	4	SIC	64	RC	0	2	23RD	1	0	0.564357042313	-321.0	-341.0	-318	-336	1
1.7	2015_Jul_23_1041	s	s	4	4	SIC	65	RC	1	1	23MO	1	0	0.776266098022	-477.0	-271.0	-473	-276	1
1.7	2015_Jul_23_1041	s	s	4	4	SIC	66	ABS	2	2	24VD	0	1	0.646784067154	None	None	None	None	1
1.7	2015_Jul_23_1041	s	s	4	4	SIC	67	ABS	1	0	24MC	0	1	1.72720789909	None	None	None	None	1
1.7	2015_Jul_23_1041	s	s	4	4	SIC	68	ABS	2	0	24VC	1	0	0.606642007828	None	None	528	-362	0
1.7	2015_Jul_23_1041	s	s	4	4	SIC	69	RC	2	0	23VC	1	0	0.79723405838	479.0	-229.0	480	-235	1
1.7	2015_Jul_23_1041	s	s	4	4	SIC	70	RC	1	0	23MC	1	0	1.41202116013	-113.0	317.0	-115	313	1
1.7	2015_Jul_23_1041	s	s	4	4	SIC	71	ABS	1	2	24MD	0	1	0.853716135025	None	None	None	None	1
1.7	2015_Jul_23_1041	s	s	4	4	SIC	72	RC	2	2	23VD	1	0	0.853613138199	-323.0	-307.0	-321	-304	1
1.7	2015_Jul_23_1041	s	s	4	4	SIC	73	ABS	1	1	24MO	0	1	2.93008303642	None	None	None	None	1
1.7	2015_Jul_23_1041	s	s	4	4	SIC	74	RC	1	2	23MD	1	0	1.55991697311	157.0	-218.0	149	-224	1
1.7	2015_Jul_23_1041	s	s	4	4	SIC	75	RC	0	2	23RD	1	0	0.759449005127	332.0	-301.0	328	-307	1
1.7	2015_Jul_23_1041	s	s	4	4	SIC	76	RC	0	1	23RO	1	0	1.09446787834	141.0	360.0	147	356	1
1.7	2015_Jul_23_1041	s	s	4	4	SIC	77	ABS	2	1	24VO	0	1	1.98862218857	None	None	None	None	1
1.7	2015_Jul_23_1041	s	s	4	4	SIC	78	RC	2	1	23VO	1	0	0.487972021103	189.0	385.0	184	392	1
1.7	2015_Jul_23_1041	s	s	4	4	SIC	79	ABS	0	2	24RD	0	1	2.50360608101	None	None	None	None	1
1.7	2015_Jul_23_1041	s	s	4	4	SIC	80	ABS	0	1	24RO	0	1	6.09654808044	None	None	None	None	1
1.7	2015_Jul_23_1041	s	s	4	4	SIC	81	ABS	2	1	24VO	0	1	0.774096012115	None	None	None	None	1
1.7	2015_Jul_23_1041	s	s	4	4	SIC	82	ABS	1	0	24MC	0	1	1.89447283745	None	None	None	None	1
1.7	2015_Jul_23_1041	s	s	4	4	SIC	83	RC	0	2	23RD	1	0	0.634912014008	-434.0	-327.0	-437	-329	1
1.7	2015_Jul_23_1041	s	s	4	4	SIC	84	ABS	1	1	24MO	0	1	3.2567679882	None	None	None	None	1
1.7	2015_Jul_23_1041	s	s	4	4	SIC	85	ABS	0	2	24RD	0	1	0.853538036346	None	None	None	None	1
1.7	2015_Jul_23_1041	s	s	4	4	SIC	86	RC	2	0	23VC	1	0	0.618083953857	464.0	-262.0	476	-260	1
1.7	2015_Jul_23_1041	s	s	4	4	SIC	87	ABS	1	2	24MD	0	1	0.929316043854	None	None	None	None	1
1.7	2015_Jul_23_1041	s	s	4	4	SIC	88	RC	0	1	23RO	1	0	0.926229953766	264.0	-205.0	272	-202	1
1.7	2015_Jul_23_1041	s	s	4	4	SIC	89	ABS	2	2	24VD	0	1	0.583952903748	None	None	None	None	1
1.7	2015_Jul_23_1041	s	s	4	4	SIC	90	RC	2	1	23VO	1	0	0.595149040222	-275.0	-359.0	-270	-362	1
1.7	2015_Jul_23_1041	s	s	4	4	SIC	91	ABS	0	1	24RO	0	1	4.02500391006	None	None	None	None	1
1.7	2015_Jul_23_1041	s	s	4	4	SIC	92	RC	1	0	23MC	1	0	1.47772097588	400.0	393.0	410	401	1
1.7	2015_Jul_23_1041	s	s	4	4	SIC	93	RC	1	1	23MO	1	0	1.43524503708	287.0	-88.0	291	-85	1
1.7	2015_Jul_23_1041	s	s	4	4	SIC	94	ABS	2	0	24VC	0	1	0.797183990479	None	None	None	None	1
1.7	2015_Jul_23_1041	s	s	4	4	SIC	95	RC	2	2	23VD	1	0	0.576132059097	-240.0	-219.0	-230	-210	1
1.7	2015_Jul_23_1041	s	s	4	4	SIC	96	RC	1	2	23MD	1	0	0.505625963211	-88.0	-360.0	-84	-362	1
1.7	2015_Jul_23_1041	s	s	4	4	SIC	97	RC	2	2	23VD	1	0	0.58270406723	-321.0	138.0	-321	138	1
1.7	2015_Jul_23_1041	s	s	4	4	SIC	98	ABS	2	0	24VC	0	1	0.752695083618	None	None	None	None	1
1.7	2015_Jul_23_1041	s	s	4	4	SIC	99	ABS	2	1	24VO	0	1	0.538709163666	None	None	None	None	1
1.7	2015_Jul_23_1041	s	s	4	4	SIC	100	ABS	1	2	24MD	0	1	0.505482912064	None	None	None	None	1
1.7	2015_Jul_23_1041	s	s	4	4	SIC	101	RC	1	0	23MC	1	0	0.870441913605	-75.0	387.0	-62	393	1
1.7	2015_Jul_23_1041	s	s	4	4	SIC	102	RC	2	1	23VO	1	0	0.446748971939	185.0	-42.0	186	-39	1
1.7	2015_Jul_23_1041	s	s	4	4	SIC	103	RC	1	2	23MD	1	0	0.455070972443	-211.0	19.0	-206	21	1
1.7	2015_Jul_23_1041	s	s	4	4	SIC	104	ABS	1	0	24MC	0	1	1.40835618973	None	None	None	None	1
1.7	2015_Jul_23_1041	s	s	4	4	SIC	105	RC	0	1	23RO	1	0	1.24495387077	122.0	-24.0	107	-18	1
1.7	2015_Jul_23_1041	s	s	4	4	SIC	106	RC	1	1	23MO	1	0	1.31795787811	-495.0	182.0	-497	189	1
1.7	2015_Jul_23_1041	s	s	4	4	SIC	107	ABS	0	2	24RD	0	1	0.82337808609	None	None	None	None	1
1.7	2015_Jul_23_1041	s	s	4	4	SIC	108	ABS	2	2	24VD	0	1	0.564284801483	None	None	None	None	1
1.7	2015_Jul_23_1041	s	s	4	4	SIC	109	RC	0	2	23RD	1	0	0.762134075165	-123.0	377.0	-121	362	1
1.7	2015_Jul_23_1041	s	s	4	4	SIC	110	RC	2	0	23VC	1	0	0.914026975632	384.0	-289.0	390	-291	1
1.7	2015_Jul_23_1041	s	s	4	4	SIC	111	ABS	0	1	24RO	0	1	3.55163288116	None	None	None	None	1
1.7	2015_Jul_23_1041	s	s	4	4	SIC	112	ABS	1	1	24MO	0	1	2.63038992882	None	None	None	None	1
1.7	2015_Jul_23_1041	s	s	4	4	SIC	113	RC	2	1	23VO	1	0	0.584599971771	-242.0	-340.0	-233	-340	1
1.7	2015_Jul_23_1041	s	s	4	4	SIC	114	ABS	1	2	24MD	0	1	0.646813154221	None	None	None	None	1
1.7	2015_Jul_23_1041	s	s	4	4	SIC	115	ABS	0	1	24RO	0	1	4.28146004677	None	None	None	None	1
1.7	2015_Jul_23_1041	s	s	4	4	SIC	116	RC	1	2	23MD	1	0	0.744500875473	96.0	71.0	95	75	1
1.7	2015_Jul_23_1041	s	s	4	4	SIC	117	ABS	0	2	24RD	0	1	0.764459133148	None	None	None	None	1
1.7	2015_Jul_23_1041	s	s	4	4	SIC	118	RC	2	0	23VC	1	0	2.08947205544	462.0	38.0	470	32	1
1.7	2015_Jul_23_1041	s	s	4	4	SIC	119	ABS	2	0	24VC	0	1	2.61293196678	None	None	None	None	1
1.7	2015_Jul_23_1041	s	s	4	4	SIC	120	ABS	2	1	24VO	0	1	0.71723985672	None	None	None	None	1
1.7	2015_Jul_23_1041	s	s	4	4	SIC	121	RC	1	1	23MO	1	0	0.705995798111	502.0	-283.0	494	-287	1
1.7	2015_Jul_23_1041	s	s	4	4	SIC	122	RC	2	2	23VD	1	0	4.47917699814	452.0	-374.0	449	-377	1
1.7	2015_Jul_23_1041	s	s	4	4	SIC	123	RC	1	0	23MC	1	0	0.50542807579	191.0	-113.0	189	-105	1
1.7	2015_Jul_23_1041	s	s	4	4	SIC	124	ABS	1	0	24MC	0	1	1.75325393677	None	None	None	None	1
1.7	2015_Jul_23_1041	s	s	4	4	SIC	125	RC	0	2	23RD	1	0	0.524563074112	-83.0	-9.0	-82	-16	1
1.7	2015_Jul_23_1041	s	s	4	4	SIC	126	RC	0	1	23RO	1	0	0.97635602951	10.0	-218.0	7	-224	1
1.7	2015_Jul_23_1041	s	s	4	4	SIC	127	ABS	1	1	24MO	0	1	1.40870404243	None	None	None	None	1
1.7	2015_Jul_23_1041	s	s	4	4	SIC	128	ABS	2	2	24VD	0	1	0.595747947693	None	None	None	None	1
1.7	2015_Jul_23_1041	s	s	4	4	SIC	129	RC	2	2	23VD	1	0	0.562209129333	-449.0	385.0	-445	385	1
1.7	2015_Jul_23_1041	s	s	4	4	SIC	130	RC	1	1	23MO	1	0	0.641216039658	-310.0	41.0	-315	44	1
1.7	2015_Jul_23_1041	s	s	4	4	SIC	131	RC	2	0	23VC	1	0	0.514569044113	-277.0	205.0	-278	210	1
1.7	2015_Jul_23_1041	s	s	4	4	SIC	132	ABS	1	1	24MO	0	1	1.30216598511	None	None	None	None	1
1.7	2015_Jul_23_1041	s	s	4	4	SIC	133	ABS	2	1	24VO	0	1	0.809248924255	None	None	None	None	1
1.7	2015_Jul_23_1041	s	s	4	4	SIC	134	RC	0	1	23RO	1	0	1.10951304436	37.0	-6.0	-146	53	0
1.7	2015_Jul_23_1041	s	s	4	4	SIC	135	RC	2	1	23VO	1	0	0.490365982056	495.0	216.0	489	218	1
1.7	2015_Jul_23_1041	s	s	4	4	SIC	136	ABS	0	2	24RD	0	1	0.705910921097	None	None	None	None	1
1.7	2015_Jul_23_1041	s	s	4	4	SIC	137	ABS	1	0	24MC	0	1	1.35120296478	None	None	None	None	1
1.7	2015_Jul_23_1041	s	s	4	4	SIC	138	ABS	1	2	24MD	0	1	3.72747993469	None	None	None	None	1
1.7	2015_Jul_23_1041	s	s	4	4	SIC	139	RC	1	0	23MC	1	0	1.85695004463	499.0	-172.0	512	-169	1
1.7	2015_Jul_23_1041	s	s	4	4	SIC	140	RC	1	2	23MD	1	0	3.66005897522	-339.0	70.0	-345	69	1
1.7	2015_Jul_23_1041	s	s	4	4	SIC	141	ABS	2	2	24VD	0	1	2.29491209984	None	None	None	None	1
1.7	2015_Jul_23_1041	s	s	4	4	SIC	142	ABS	0	1	24RO	0	1	4.09559607506	None	None	None	None	1
1.7	2015_Jul_23_1041	s	s	4	4	SIC	143	ABS	2	0	24VC	0	1	1.19685482979	None	None	None	None	1
1.7	2015_Jul_23_1041	s	s	4	4	SIC	144	RC	0	2	23RD	1	0	0.750403165817	-152.0	-196.0	-139	-193	1
1.7	2015_Jul_23_1041	s	s	4	4	SIC	145	RC	2	0	23VC	1	0	1.04195594788	340.0	-159.0	326	-150	1
1.7	2015_Jul_23_1041	s	s	4	4	SIC	146	ABS	1	2	24MD	0	1	0.729161024094	None	None	None	None	1
1.7	2015_Jul_23_1041	s	s	4	4	SIC	147	RC	0	2	23RD	1	0	0.5172560215	-464.0	-368.0	-470	-370	1
1.7	2015_Jul_23_1041	s	s	4	4	SIC	148	ABS	2	2	24VD	0	1	0.500077962875	None	None	None	None	1
1.7	2015_Jul_23_1041	s	s	4	4	SIC	149	RC	0	1	23RO	1	0	1.16237092018	265.0	-263.0	272	-256	1
1.7	2015_Jul_23_1041	s	s	4	4	SIC	150	ABS	2	0	24VC	0	1	0.631567955017	None	None	None	None	1
1.7	2015_Jul_23_1041	s	s	4	4	SIC	151	RC	1	2	23MD	1	0	0.585552930832	-357.0	8.0	-358	14	1
1.7	2015_Jul_23_1041	s	s	4	4	SIC	152	ABS	0	1	24RO	0	1	7.77977013588	None	None	None	None	1
1.7	2015_Jul_23_1041	s	s	4	4	SIC	153	ABS	0	2	24RD	0	1	2.20045995712	None	None	None	None	1
1.7	2015_Jul_23_1041	s	s	4	4	SIC	154	RC	2	2	23VD	1	0	0.844590187073	-179.0	245.0	-181	254	1
1.7	2015_Jul_23_1041	s	s	4	4	SIC	155	RC	2	1	23VO	1	0	0.925610780716	-262.0	246.0	-270	255	1
1.7	2015_Jul_23_1041	s	s	4	4	SIC	156	RC	1	0	23MC	1	0	1.79674196243	63.0	-243.0	57	-248	1
1.7	2015_Jul_23_1041	s	s	4	4	SIC	157	ABS	2	1	24VO	0	1	0.870444059372	None	None	None	None	1
1.7	2015_Jul_23_1041	s	s	4	4	SIC	158	ABS	1	1	24MO	0	1	7.10927510262	None	None	None	None	1
1.7	2015_Jul_23_1041	s	s	4	4	SIC	159	ABS	1	0	24MC	0	1	4.38971304893	None	None	None	None	1
1.7	2015_Jul_23_1041	s	s	4	4	SIC	160	RC	1	1	23MO	1	0	1.05528998375	-278.0	80.0	-283	80	1
1.7	2015_Jul_23_1041	s	s	4	4	SIC	161	ABS	1	1	24MO	0	1	2.37381911278	None	None	None	None	1
1.7	2015_Jul_23_1041	s	s	4	4	SIC	162	RC	2	1	23VO	1	0	0.547904014587	164.0	-114.0	157	-112	1
1.7	2015_Jul_23_1041	s	s	4	4	SIC	163	ABS	2	0	24VC	0	1	0.910295963287	None	None	None	None	1
1.7	2015_Jul_23_1041	s	s	4	4	SIC	164	ABS	2	2	24VD	0	1	0.476323127747	None	None	None	None	1
1.7	2015_Jul_23_1041	s	s	4	4	SIC	165	ABS	1	2	24MD	0	1	0.593327999115	None	None	None	None	1
1.7	2015_Jul_23_1041	s	s	4	4	SIC	166	ABS	2	1	24VO	0	1	0.562158107758	None	None	None	None	1
1.7	2015_Jul_23_1041	s	s	4	4	SIC	167	RC	1	1	23MO	1	0	0.764477014542	-344.0	-83.0	-349	-91	1
1.7	2015_Jul_23_1041	s	s	4	4	SIC	168	RC	2	0	23VC	1	0	0.88831782341	-83.0	-45.0	-77	-50	1
1.7	2015_Jul_23_1041	s	s	4	4	SIC	169	RC	1	0	23MC	1	0	1.06538796425	473.0	352.0	468	352	1
1.7	2015_Jul_23_1041	s	s	4	4	SIC	170	ABS	0	2	24RD	0	1	2.07890200615	None	None	None	None	1
1.7	2015_Jul_23_1041	s	s	4	4	SIC	171	RC	0	1	23RO	1	0	0.623298168182	108.0	29.0	116	31	1
1.7	2015_Jul_23_1041	s	s	4	4	SIC	172	ABS	0	1	24RO	0	1	6.17880797386	None	None	None	None	1
1.7	2015_Jul_23_1041	s	s	4	4	SIC	173	ABS	1	0	24MC	0	1	3.12786793709	None	None	None	None	1
1.7	2015_Jul_23_1041	s	s	4	4	SIC	174	RC	0	2	23RD	1	0	0.92603302002	-477.0	195.0	-471	194	1
1.7	2015_Jul_23_1041	s	s	4	4	SIC	175	RC	2	2	23VD	1	0	0.79398393631	181.0	-274.0	181	-279	1
1.7	2015_Jul_23_1041	s	s	4	4	SIC	176	RC	1	2	23MD	1	0	0.552562952042	-524.0	58.0	-530	66	1
1.7	2015_Jul_23_1041	s	s	4	4	SIC	177	RC	1	0	23MC	1	0	0.534904003143	-438.0	120.0	-449	128	1
1.7	2015_Jul_23_1041	s	s	4	4	SIC	178	ABS	2	2	24VD	0	1	0.623209953308	None	None	None	None	1
1.7	2015_Jul_23_1041	s	s	4	4	SIC	179	ABS	1	0	24MC	0	1	2.21800994873	None	None	None	None	1
1.7	2015_Jul_23_1041	s	s	4	4	SIC	180	ABS	1	1	24MO	0	1	1.89453792572	None	None	None	None	1
1.7	2015_Jul_23_1041	s	s	4	4	SIC	181	ABS	2	0	24VC	0	1	0.455840110779	None	None	None	None	1
1.7	2015_Jul_23_1041	s	s	4	4	SIC	182	RC	2	0	23VC	1	0	0.571421146393	147.0	181.0	155	185	1
1.7	2015_Jul_23_1041	s	s	4	4	SIC	183	RC	1	1	23MO	1	0	0.811587810516	192.0	256.0	188	250	1
1.7	2015_Jul_23_1041	s	s	4	4	SIC	184	RC	2	2	23VD	1	0	0.512311935425	453.0	199.0	461	204	1
1.7	2015_Jul_23_1041	s	s	4	4	SIC	185	RC	0	2	23RD	1	0	0.5253469944	263.0	10.0	267	18	1
1.7	2015_Jul_23_1041	s	s	4	4	SIC	186	ABS	0	1	24RO	0	1	4.55497813225	None	None	None	None	1
1.7	2015_Jul_23_1041	s	s	4	4	SIC	187	RC	0	1	23RO	1	0	2.9502799511	371.0	-290.0	365	-281	1
1.7	2015_Jul_23_1041	s	s	4	4	SIC	188	ABS	0	2	24RD	0	1	0.811465024948	None	None	None	None	1
1.7	2015_Jul_23_1041	s	s	4	4	SIC	189	ABS	1	2	24MD	0	1	3.15398406982	None	None	None	None	1
1.7	2015_Jul_23_1041	s	s	4	4	SIC	190	ABS	2	1	24VO	0	1	0.901072025299	None	None	None	None	1
1.7	2015_Jul_23_1041	s	s	4	4	SIC	191	RC	2	1	23VO	1	0	0.693899154663	287.0	270.0	284	272	1
1.7	2015_Jul_23_1041	s	s	4	4	SIC	192	RC	1	2	23MD	1	0	0.458517074585	221.0	-148.0	216	-145	1
1.7	2015_Jul_23_1041	s	s	4	4	SIC	193	RC	1	0	23MC	1	0	0.70182800293	480.0	-107.0	473	-106	1
1.7	2015_Jul_23_1041	s	s	4	4	SIC	194	RC	2	0	23VC	1	0	0.505447149277	406.0	-17.0	404	-15	1
1.7	2015_Jul_23_1041	s	s	4	4	SIC	195	ABS	0	2	24RD	0	1	0.71231007576	None	None	None	None	1
1.7	2015_Jul_23_1041	s	s	4	4	SIC	196	ABS	1	2	24MD	0	1	0.576142787933	None	None	None	None	1
1.7	2015_Jul_23_1041	s	s	4	4	SIC	197	RC	1	2	23MD	1	0	0.670346021652	123.0	-41.0	126	-37	1
1.7	2015_Jul_23_1041	s	s	4	4	SIC	198	RC	2	1	23VO	1	0	0.470057010651	-186.0	372.0	-177	380	1
1.7	2015_Jul_23_1041	s	s	4	4	SIC	199	ABS	2	1	24VO	0	1	0.591495037079	None	None	None	None	1
1.7	2015_Jul_23_1041	s	s	4	4	SIC	200	ABS	0	1	24RO	0	1	3.84831213951	None	None	None	None	1
1.7	2015_Jul_23_1041	s	s	4	4	SIC	201	RC	0	2	23RD	1	0	0.729470968246	162.0	114.0	164	117	1
1.7	2015_Jul_23_1041	s	s	4	4	SIC	202	ABS	2	0	24VC	0	1	0.646721124649	None	None	None	None	1
1.7	2015_Jul_23_1041	s	s	4	4	SIC	203	RC	1	1	23MO	1	0	1.28871011734	457.0	-393.0	466	-388	1
1.7	2015_Jul_23_1041	s	s	4	4	SIC	204	RC	0	1	23RO	1	0	1.12666416168	-171.0	-368.0	-174	-360	1
1.7	2015_Jul_23_1041	s	s	4	4	SIC	205	ABS	1	0	24MC	0	1	2.54173398018	None	None	None	None	1
1.7	2015_Jul_23_1041	s	s	4	4	SIC	206	ABS	2	2	24VD	0	1	0.594858169556	None	None	None	None	1
1.7	2015_Jul_23_1041	s	s	4	4	SIC	207	ABS	1	1	24MO	0	1	1.5475461483	None	None	None	None	1
1.7	2015_Jul_23_1041	s	s	4	4	SIC	208	RC	2	2	23VD	1	0	0.533949136734	-125.0	333.0	-131	326	1
1.7	2015_Jul_23_1041	s	s	4	4	SIC	209	ABS	0	2	24RD	0	1	0.735934972763	None	None	None	None	1
1.7	2015_Jul_23_1041	s	s	4	4	SIC	210	ABS	1	1	24MO	0	1	1.24709796906	None	None	None	None	1
1.7	2015_Jul_23_1041	s	s	4	4	SIC	211	RC	1	0	23MC	1	0	3.09184408188	-284.0	-204.0	-276	-209	1
1.7	2015_Jul_23_1041	s	s	4	4	SIC	212	RC	2	2	23VD	1	0	1.32464313507	-537.0	20.0	-541	13	1
1.7	2015_Jul_23_1041	s	s	4	4	SIC	213	ABS	1	2	24MD	0	1	2.00053191185	None	None	None	None	1
1.7	2015_Jul_23_1041	s	s	4	4	SIC	214	RC	2	0	23VC	1	0	0.529055118561	330.0	78.0	336	84	1
1.7	2015_Jul_23_1041	s	s	4	4	SIC	215	RC	2	1	23VO	1	0	1.24222397804	404.0	9.0	406	14	1
1.7	2015_Jul_23_1041	s	s	4	4	SIC	216	ABS	1	0	24MC	0	1	1.72595310211	None	None	None	None	1
1.7	2015_Jul_23_1041	s	s	4	4	SIC	217	RC	1	1	23MO	1	0	0.811549186707	241.0	-301.0	244	-304	1
1.7	2015_Jul_23_1041	s	s	4	4	SIC	218	ABS	2	0	24VC	0	1	0.950082063675	None	None	None	None	1
1.7	2015_Jul_23_1041	s	s	4	4	SIC	219	ABS	0	1	24RO	0	1	9.99963498116	None	None	None	None	1
1.7	2015_Jul_23_1041	s	s	4	4	SIC	220	ABS	2	1	24VO	0	1	0.552600860596	None	None	None	None	1
1.7	2015_Jul_23_1041	s	s	4	4	SIC	221	RC	1	2	23MD	1	0	0.870274066925	234.0	-185.0	233	-186	1
1.7	2015_Jul_23_1041	s	s	4	4	SIC	222	ABS	2	2	24VD	0	1	0.605647087097	None	None	None	None	1
1.7	2015_Jul_23_1041	s	s	4	4	SIC	223	RC	0	2	23RD	1	0	0.561023950577	-255.0	83.0	-257	85	1
1.7	2015_Jul_23_1041	s	s	4	4	SIC	224	RC	0	1	23RO	1	0	3.24802207947	-514.0	62.0	-520	55	1
1.7	2015_Jul_23_1041	s	s	4	4	SIC	225	ABS	1	2	24MD	0	1	1.34125304222	None	None	None	None	1
1.7	2015_Jul_23_1041	s	s	4	4	SIC	226	RC	1	1	23MO	1	0	0.571758031845	-30.0	-249.0	-16	-240	1
1.7	2015_Jul_23_1041	s	s	4	4	SIC	227	RC	2	2	23VD	1	0	0.560757875443	-524.0	-192.0	-537	-183	1
1.7	2015_Jul_23_1041	s	s	4	4	SIC	228	RC	2	0	23VC	1	0	0.417618989944	283.0	-34.0	280	-36	1
1.7	2015_Jul_23_1041	s	s	4	4	SIC	229	RC	2	1	23VO	1	0	0.430006980896	-131.0	215.0	-134	213	1
1.7	2015_Jul_23_1041	s	s	4	4	SIC	230	RC	1	2	23MD	1	0	0.52644610405	353.0	384.0	343	384	1
1.7	2015_Jul_23_1041	s	s	4	4	SIC	231	ABS	2	1	24VO	0	1	0.608222961426	None	None	None	None	1
1.7	2015_Jul_23_1041	s	s	4	4	SIC	232	ABS	0	2	24RD	0	1	0.870401144028	None	None	None	None	1
1.7	2015_Jul_23_1041	s	s	4	4	SIC	233	ABS	2	0	24VC	0	1	0.644292116165	None	None	None	None	1
1.7	2015_Jul_23_1041	s	s	4	4	SIC	234	RC	0	1	23RO	1	0	4.54277086258	-525.0	229.0	-522	237	1
1.7	2015_Jul_23_1041	s	s	4	4	SIC	235	RC	1	0	23MC	1	0	0.996378183365	159.0	-348.0	164	-341	1
1.7	2015_Jul_23_1041	s	s	4	4	SIC	236	ABS	1	0	24MC	0	1	1.50588297844	None	None	None	None	1
1.7	2015_Jul_23_1041	s	s	4	4	SIC	237	RC	0	2	23RD	1	0	0.558856964111	-188.0	13.0	-190	19	1
1.7	2015_Jul_23_1041	s	s	4	4	SIC	238	ABS	1	1	24MO	0	1	1.3460381031	None	None	None	None	1
1.7	2015_Jul_23_1041	s	s	4	4	SIC	239	ABS	0	1	24RO	0	1	5.73172187805	None	None	None	None	1
1.7	2015_Jul_23_1041	s	s	4	4	SIC	240	ABS	2	2	24VD	0	1	0.488564014435	None	None	None	None	1
1.7	2015_Jul_23_1041	s	s	4	4	SIC	241	ABS	2	0	24VC	0	1	0.464969873428	None	None	None	None	1
1.7	2015_Jul_23_1041	s	s	4	4	SIC	242	RC	1	0	23MC	1	0	0.703340053558	21.0	288.0	22	281	1
1.7	2015_Jul_23_1041	s	s	4	4	SIC	243	RC	2	1	23VO	1	0	0.422964096069	365.0	-180.0	354	-180	1
1.7	2015_Jul_23_1041	s	s	4	4	SIC	244	RC	0	2	23RD	1	0	0.488775014877	265.0	137.0	270	147	1
1.7	2015_Jul_23_1041	s	s	4	4	SIC	245	RC	2	2	23VD	1	0	0.364405870438	-152.0	-106.0	-151	-114	1
1.7	2015_Jul_23_1041	s	s	4	4	SIC	246	RC	2	0	23VC	1	0	0.383904933929	-135.0	-145.0	-134	-141	1
1.7	2015_Jul_23_1041	s	s	4	4	SIC	247	ABS	2	1	24VO	0	1	0.882136106491	None	None	None	None	1
1.7	2015_Jul_23_1041	s	s	4	4	SIC	248	RC	0	1	23RO	0	1	3.64337205887	-318.0	128.0	None	None	0
1.7	2015_Jul_23_1041	s	s	4	4	SIC	249	ABS	1	1	24MO	0	1	1.76493191719	None	None	None	None	1
1.7	2015_Jul_23_1041	s	s	4	4	SIC	250	RC	1	1	23MO	1	0	0.844381093979	415.0	234.0	421	237	1
1.7	2015_Jul_23_1041	s	s	4	4	SIC	251	ABS	2	2	24VD	0	1	0.587917089462	None	None	None	None	1
1.7	2015_Jul_23_1041	s	s	4	4	SIC	252	ABS	1	0	24MC	0	1	2.84196805954	None	None	None	None	1
1.7	2015_Jul_23_1041	s	s	4	4	SIC	253	ABS	1	2	24MD	0	1	1.34109807014	None	None	None	None	1
1.7	2015_Jul_23_1041	s	s	4	4	SIC	254	RC	1	2	23MD	1	0	0.658890962601	-363.0	263.0	-350	266	1
1.7	2015_Jul_23_1041	s	s	4	4	SIC	255	ABS	0	2	24RD	0	1	0.776253938675	None	None	None	None	1
1.7	2015_Jul_23_1041	s	s	4	4	SIC	256	ABS	0	1	24RO	0	1	3.30440616608	None	None	None	None	1
1.7	2015_Jul_23_1041	s	s	4	4	SIC	257	ABS	2	1	24VO	0	1	0.523046016693	None	None	None	None	1
1.7	2015_Jul_23_1041	s	s	4	4	SIC	258	RC	1	1	23MO	1	0	0.717434167862	296.0	-156.0	291	-163	1
1.7	2015_Jul_23_1041	s	s	4	4	SIC	259	ABS	0	1	24RO	0	1	5.77543115616	None	None	None	None	1
1.7	2015_Jul_23_1041	s	s	4	4	SIC	260	ABS	2	2	24VD	0	1	0.748122930527	None	None	None	None	1
1.7	2015_Jul_23_1041	s	s	4	4	SIC	261	RC	1	0	23MC	1	0	1.48244905472	323.0	-320.0	317	-322	1
1.7	2015_Jul_23_1041	s	s	4	4	SIC	262	ABS	1	1	24MO	0	1	1.22966694832	None	None	None	None	1
1.7	2015_Jul_23_1041	s	s	4	4	SIC	263	RC	2	1	23VO	1	0	0.678488016129	126.0	-219.0	138	-216	1
1.7	2015_Jul_23_1041	s	s	4	4	SIC	264	ABS	1	0	24MC	0	1	1.289041996	None	None	None	None	1
1.7	2015_Jul_23_1041	s	s	4	4	SIC	265	ABS	2	0	24VC	0	1	0.547532081604	None	None	None	None	1
1.7	2015_Jul_23_1041	s	s	4	4	SIC	266	RC	2	2	23VD	1	0	0.582024097443	202.0	-334.0	195	-341	1
1.7	2015_Jul_23_1041	s	s	4	4	SIC	267	RC	0	1	23RO	1	0	1.19525194168	316.0	-387.0	318	-392	1
1.7	2015_Jul_23_1041	s	s	4	4	SIC	268	ABS	0	2	24RD	0	1	1.92422008514	None	None	None	None	1
1.7	2015_Jul_23_1041	s	s	4	4	SIC	269	RC	1	2	23MD	1	0	0.552626848221	-411.0	136.0	-408	126	1
1.7	2015_Jul_23_1041	s	s	4	4	SIC	270	RC	0	2	23RD	1	0	0.493858098984	-268.0	321.0	-268	318	1
1.7	2015_Jul_23_1041	s	s	4	4	SIC	271	RC	2	0	23VC	1	0	0.493604898453	530.0	67.0	537	75	1
1.7	2015_Jul_23_1041	s	s	4	4	SIC	272	ABS	1	2	24MD	0	1	0.844567060471	None	None	None	None	1
1.7	2015_Jul_23_1041	s	s	4	4	SIC	273	ABS	2	1	24VO	0	1	0.634967088699	None	None	None	None	1
1.7	2015_Jul_23_1041	s	s	4	4	SIC	274	RC	1	0	23MC	1	0	1.15704011917	501.0	370.0	499	379	1
1.7	2015_Jul_23_1041	s	s	4	4	SIC	275	RC	2	0	23VC	1	0	0.540940999985	136.0	129.0	149	135	1
1.7	2015_Jul_23_1041	s	s	4	4	SIC	276	ABS	1	0	24MC	0	1	2.05371212959	None	None	None	None	1
1.7	2015_Jul_23_1041	s	s	4	4	SIC	277	ABS	1	1	24MO	1	0	1.9297170639	None	None	158	-190	0
1.7	2015_Jul_23_1041	s	s	4	4	SIC	278	ABS	1	2	24MD	0	1	0.571151971817	None	None	None	None	1
1.7	2015_Jul_23_1041	s	s	4	4	SIC	279	RC	0	2	23RD	1	0	0.673933982849	141.0	299.0	151	302	1
1.7	2015_Jul_23_1041	s	s	4	4	SIC	280	ABS	2	0	24VC	0	1	1.17146897316	None	None	None	None	1
1.7	2015_Jul_23_1041	s	s	4	4	SIC	281	RC	2	2	23VD	1	0	2.05913496017	489.0	-25.0	485	-30	1
1.7	2015_Jul_23_1041	s	s	4	4	SIC	282	ABS	0	1	24RO	0	1	4.31924390793	None	None	None	None	1
1.7	2015_Jul_23_1041	s	s	4	4	SIC	283	RC	2	1	23VO	1	0	0.526910066605	314.0	-301.0	317	-295	1
1.7	2015_Jul_23_1041	s	s	4	4	SIC	284	RC	1	2	23MD	1	0	0.646748065948	464.0	40.0	471	45	1
1.7	2015_Jul_23_1041	s	s	4	4	SIC	285	ABS	2	2	24VD	0	1	0.705584049225	None	None	None	None	1
1.7	2015_Jul_23_1041	s	s	4	4	SIC	286	RC	0	1	23RO	1	0	1.04736495018	263.0	-34.0	263	-31	1
1.7	2015_Jul_23_1041	s	s	4	4	SIC	287	RC	1	1	23MO	1	0	0.879766941071	453.0	-277.0	459	-275	1
1.7	2015_Jul_23_1041	s	s	4	4	SIC	288	ABS	0	2	24RD	0	1	1.56490492821	None	None	None	None	1
1.7	2015_Jul_23_1041	s	s	4	4	SIC	289	RC	1	1	23MO	1	0	0.826961040497	66.0	-79.0	71	-80	1
1.7	2015_Jul_23_1041	s	s	4	4	SIC	290	RC	0	2	23RD	1	0	0.564330101013	122.0	-167.0	123	-169	1
1.7	2015_Jul_23_1041	s	s	4	4	SIC	291	ABS	1	2	24MD	0	1	1.04437398911	None	None	None	None	1
1.7	2015_Jul_23_1041	s	s	4	4	SIC	292	RC	2	0	23VC	1	0	0.500061035156	14.0	-127.0	19	-118	1
1.7	2015_Jul_23_1041	s	s	4	4	SIC	293	ABS	0	1	24RO	0	1	3.72573590279	None	None	None	None	1
1.7	2015_Jul_23_1041	s	s	4	4	SIC	294	ABS	2	0	24VC	0	1	0.512358188629	None	None	None	None	1
1.7	2015_Jul_23_1041	s	s	4	4	SIC	295	ABS	2	2	24VD	0	1	0.505602836609	None	None	None	None	1
1.7	2015_Jul_23_1041	s	s	4	4	SIC	296	RC	2	2	23VD	1	0	0.783002138138	314.0	-81.0	320	-84	1
1.7	2015_Jul_23_1041	s	s	4	4	SIC	297	ABS	1	1	24MO	0	1	1.10074090958	None	None	None	None	1
1.7	2015_Jul_23_1041	s	s	4	4	SIC	298	RC	0	1	23RO	1	0	3.80750417709	-489.0	-389.0	-489	-394	1
1.7	2015_Jul_23_1041	s	s	4	4	SIC	299	RC	1	0	23MC	1	0	1.36496591568	-173.0	-326.0	-170	-322	1
1.7	2015_Jul_23_1041	s	s	4	4	SIC	300	RC	1	2	23MD	1	0	0.952746868134	-532.0	208.0	-528	216	1
1.7	2015_Jul_23_1041	s	s	4	4	SIC	301	ABS	0	2	24RD	0	1	2.17406415939	None	None	None	None	1
1.7	2015_Jul_23_1041	s	s	4	4	SIC	302	ABS	2	1	24VO	0	1	1.60967803001	None	None	None	None	1
1.7	2015_Jul_23_1041	s	s	4	4	SIC	303	ABS	1	0	24MC	0	1	2.78390908241	None	None	None	None	1
1.7	2015_Jul_23_1041	s	s	4	4	SIC	304	RC	2	1	23VO	1	0	0.850538015366	-436.0	243.0	-429	243	1
1.7	2015_Jul_23_1041	s	s	4	4	SIC	305	RC	0	2	23RD	1	0	0.823421001434	-128.0	93.0	-122	87	1
1.7	2015_Jul_23_1041	s	s	4	4	SIC	306	RC	1	0	23MC	1	0	0.888548135757	450.0	-385.0	448	-388	1
1.7	2015_Jul_23_1041	s	s	4	4	SIC	307	ABS	2	2	24VD	0	1	0.912919044495	None	None	None	None	1
1.7	2015_Jul_23_1041	s	s	4	4	SIC	308	ABS	0	2	24RD	0	1	0.876940011978	None	None	None	None	1
1.7	2015_Jul_23_1041	s	s	4	4	SIC	309	ABS	1	1	24MO	0	1	1.57154011726	None	None	None	None	1
1.7	2015_Jul_23_1041	s	s	4	4	SIC	310	ABS	0	1	24RO	0	1	5.88018798828	None	None	None	None	1
1.7	2015_Jul_23_1041	s	s	4	4	SIC	311	RC	1	1	23MO	1	0	1.0298140049	381.0	-108.0	386	-104	1
1.7	2015_Jul_23_1041	s	s	4	4	SIC	312	ABS	2	1	24VO	0	1	2.03573989868	None	None	None	None	1
1.7	2015_Jul_23_1041	s	s	4	4	SIC	313	RC	0	1	23RO	1	0	0.635011196136	30.0	91.0	36	96	1
1.7	2015_Jul_23_1041	s	s	4	4	SIC	314	ABS	1	0	24MC	0	1	1.12126302719	None	None	None	None	1
1.7	2015_Jul_23_1041	s	s	4	4	SIC	315	ABS	2	0	24VC	0	1	0.533609867096	None	None	None	None	1
1.7	2015_Jul_23_1041	s	s	4	4	SIC	316	RC	2	1	23VO	1	0	0.570764064789	519.0	-21.0	517	-27	1
1.7	2015_Jul_23_1041	s	s	4	4	SIC	317	ABS	1	2	24MD	0	1	0.623128890991	None	None	None	None	1
1.7	2015_Jul_23_1041	s	s	4	4	SIC	318	RC	2	0	23VC	1	0	0.517164945602	28.0	282.0	27	282	1
1.7	2015_Jul_23_1041	s	s	4	4	SIC	319	RC	1	2	23MD	1	0	0.811597824097	-440.0	-324.0	-435	-315	1
1.7	2015_Jul_23_1041	s	s	4	4	SIC	320	RC	2	2	23VD	1	0	0.407734870911	389.0	-211.0	385	-221	1
1.7	2015_Jul_23_1041	s	s	4	4	SIC	321	ABS	1	2	24MD	0	1	0.81158208847	None	None	None	None	1
1.7	2015_Jul_23_1041	s	s	4	4	SIC	322	ABS	0	1	24RO	0	1	3.50704216957	None	None	None	None	1
1.7	2015_Jul_23_1041	s	s	4	4	SIC	323	RC	0	1	23RO	1	0	1.25266313553	-51.0	-224.0	-52	-218	1
1.7	2015_Jul_23_1041	s	s	4	4	SIC	324	RC	1	0	23MC	1	0	0.799739122391	-288.0	-80.0	-282	-89	1
1.7	2015_Jul_23_1041	s	s	4	4	SIC	325	ABS	1	1	24MO	0	1	1.45386695862	None	None	None	None	1
1.7	2015_Jul_23_1041	s	s	4	4	SIC	326	RC	0	2	23RD	1	0	0.505409955978	251.0	28.0	254	31	1
1.7	2015_Jul_23_1041	s	s	4	4	SIC	327	RC	2	1	23VO	1	0	0.467344999313	-230.0	-119.0	-222	-115	1
1.7	2015_Jul_23_1041	s	s	4	4	SIC	328	ABS	1	0	24MC	0	1	1.55306386948	None	None	None	None	1
1.7	2015_Jul_23_1041	s	s	4	4	SIC	329	ABS	2	2	24VD	0	1	0.559242010117	None	None	None	None	1
1.7	2015_Jul_23_1041	s	s	4	4	SIC	330	RC	2	2	23VD	1	0	0.512903928757	46.0	-16.0	57	-6	1
1.7	2015_Jul_23_1041	s	s	4	4	SIC	331	ABS	0	2	24RD	0	1	0.952749967575	None	None	None	None	1
1.7	2015_Jul_23_1041	s	s	4	4	SIC	332	RC	2	0	23VC	1	0	0.617522954941	65.0	-120.0	66	-119	1
1.7	2015_Jul_23_1041	s	s	4	4	SIC	333	ABS	2	1	24VO	0	1	3.09505796432	None	None	None	None	1
1.7	2015_Jul_23_1041	s	s	4	4	SIC	334	RC	1	2	23MD	1	0	0.900246858597	-445.0	-17.0	-449	-14	1
1.7	2015_Jul_23_1041	s	s	4	4	SIC	335	ABS	2	0	24VC	0	1	0.505397081375	None	None	None	None	1
1.7	2015_Jul_23_1041	s	s	4	4	SIC	336	RC	1	1	23MO	1	0	0.536012887955	101.0	38.0	101	42	1
1.7	2015_Jul_23_1041	s	s	4	4	SIC	337	ABS	1	0	24MC	0	1	2.30321407318	None	None	None	None	1
1.7	2015_Jul_23_1041	s	s	4	4	SIC	338	RC	0	2	23RD	1	0	0.576150894165	109.0	-358.0	108	-366	1
1.7	2015_Jul_23_1041	s	s	4	4	SIC	339	RC	1	2	23MD	1	0	0.493701934814	526.0	297.0	526	298	1
1.7	2015_Jul_23_1041	s	s	4	4	SIC	340	RC	2	0	23VC	1	0	0.517291069031	-429.0	-54.0	-428	-62	1
1.7	2015_Jul_23_1041	s	s	4	4	SIC	341	ABS	2	2	24VD	0	1	0.882114887238	None	None	None	None	1
1.7	2015_Jul_23_1041	s	s	4	4	SIC	342	RC	1	1	23MO	1	0	0.784955024719	498.0	212.0	489	214	1
1.7	2015_Jul_23_1041	s	s	4	4	SIC	343	ABS	1	1	24MO	0	1	1.6203918457	None	None	None	None	1
1.7	2015_Jul_23_1041	s	s	4	4	SIC	344	ABS	0	1	24RO	0	1	5.06062197685	None	None	None	None	1
1.7	2015_Jul_23_1041	s	s	4	4	SIC	345	ABS	1	2	24MD	0	1	0.658486127853	None	None	None	None	1
1.7	2015_Jul_23_1041	s	s	4	4	SIC	346	ABS	2	0	24VC	0	1	0.5593521595	None	None	None	None	1
1.7	2015_Jul_23_1041	s	s	4	4	SIC	347	ABS	2	1	24VO	0	1	0.57611489296	None	None	None	None	1
1.7	2015_Jul_23_1041	s	s	4	4	SIC	348	RC	1	0	23MC	0	1	1.20005607605	-38.0	341.0	None	None	0
1.7	2015_Jul_23_1041	s	s	4	4	SIC	349	RC	2	2	23VD	1	0	0.562172174454	-511.0	51.0	-515	54	1
1.7	2015_Jul_23_1041	s	s	4	4	SIC	350	RC	2	1	23VO	1	0	0.511177062988	203.0	91.0	204	88	1
1.7	2015_Jul_23_1041	s	s	4	4	SIC	351	RC	0	1	23RO	1	0	3.53742313385	145.0	-167.0	134	-165	1
1.7	2015_Jul_23_1041	s	s	4	4	SIC	352	ABS	0	2	24RD	0	1	0.705614805222	None	None	None	None	1
1.7	2015_Jul_23_1041	s	s	4	4	SIC	353	RC	2	2	23VD	1	0	0.50564789772	133.0	-190.0	124	-191	1
1.7	2015_Jul_23_1041	s	s	4	4	SIC	354	RC	1	2	23MD	1	0	0.67932510376	532.0	-164.0	539	-161	1
1.7	2015_Jul_23_1041	s	s	4	4	SIC	355	RC	1	0	23MC	1	0	1.16130805016	7.0	283.0	-3	281	1
1.7	2015_Jul_23_1041	s	s	4	4	SIC	356	ABS	2	2	24VD	0	1	0.631860017776	None	None	None	None	1
1.7	2015_Jul_23_1041	s	s	4	4	SIC	357	RC	2	0	23VC	1	0	0.571574926376	-299.0	393.0	-299	402	1
1.7	2015_Jul_23_1041	s	s	4	4	SIC	358	RC	0	1	23RO	0	1	2.52650308609	-297.0	-55.0	None	None	0
1.7	2015_Jul_23_1041	s	s	4	4	SIC	359	ABS	1	1	24MO	0	1	2.31275987625	None	None	None	None	1
1.7	2015_Jul_23_1041	s	s	4	4	SIC	360	ABS	1	2	24MD	0	1	0.906012058258	None	None	None	None	1
1.7	2015_Jul_23_1041	s	s	4	4	SIC	361	ABS	0	1	24RO	0	1	2.77727913857	None	None	None	None	1
1.7	2015_Jul_23_1041	s	s	4	4	SIC	362	ABS	0	2	24RD	0	1	2.15338802338	None	None	None	None	1
1.7	2015_Jul_23_1041	s	s	4	4	SIC	363	RC	2	1	23VO	1	0	0.573021888733	-58.0	253.0	-59	244	1
1.7	2015_Jul_23_1041	s	s	4	4	SIC	364	ABS	2	0	24VC	0	1	1.17641186714	None	None	None	None	1
1.7	2015_Jul_23_1041	s	s	4	4	SIC	365	ABS	1	0	24MC	0	1	1.22349405289	None	None	None	None	1
1.7	2015_Jul_23_1041	s	s	4	4	SIC	366	RC	1	1	23MO	1	0	1.06801700592	-1.0	-230.0	-10	-222	1
1.7	2015_Jul_23_1041	s	s	4	4	SIC	367	ABS	2	1	24VO	0	1	0.941019058228	None	None	None	None	1
1.7	2015_Jul_23_1041	s	s	4	4	SIC	368	RC	0	2	23RD	1	0	0.799870967865	194.0	97.0	188	94	1
1.7	2015_Jul_23_1041	s	s	4	4	SIC	369	RC	0	1	23RO	1	0	0.976322174072	-332.0	-125.0	-328	-126	1
1.7	2015_Jul_23_1041	s	s	4	4	SIC	370	RC	2	0	23VC	1	0	0.693827867508	-251.0	-372.0	-243	-364	1
1.7	2015_Jul_23_1041	s	s	4	4	SIC	371	ABS	2	0	24VC	0	1	0.764508008957	None	None	None	None	1
1.7	2015_Jul_23_1041	s	s	4	4	SIC	372	RC	2	2	23VD	1	0	0.493808031082	-345.0	222.0	-343	223	1
1.7	2015_Jul_23_1041	s	s	4	4	SIC	373	ABS	1	2	24MD	0	1	0.808087825775	None	None	None	None	1
1.7	2015_Jul_23_1041	s	s	4	4	SIC	374	ABS	2	1	24VO	0	1	0.642230033875	None	None	None	None	1
1.7	2015_Jul_23_1041	s	s	4	4	SIC	375	RC	0	2	23RD	1	0	0.517293214798	-72.0	-33.0	-62	-24	1
1.7	2015_Jul_23_1041	s	s	4	4	SIC	376	RC	1	2	23MD	1	0	0.491119146347	-400.0	-275.0	-388	-273	1
1.7	2015_Jul_23_1041	s	s	4	4	SIC	377	ABS	2	2	24VD	0	1	0.559216022491	None	None	None	None	1
1.7	2015_Jul_23_1041	s	s	4	4	SIC	378	RC	2	1	23VO	1	0	0.587922096252	-401.0	85.0	-403	79	1
1.7	2015_Jul_23_1041	s	s	4	4	SIC	379	RC	1	1	23MO	1	0	0.788081884384	95.0	-407.0	95	-406	1
1.7	2015_Jul_23_1041	s	s	4	4	SIC	380	ABS	1	0	24MC	0	1	2.04729986191	None	None	None	None	1
1.7	2015_Jul_23_1041	s	s	4	4	SIC	381	ABS	1	1	24MO	0	1	1.68255805969	None	None	None	None	1
1.7	2015_Jul_23_1041	s	s	4	4	SIC	382	ABS	0	2	24RD	0	1	0.634994983673	None	None	None	None	1
1.7	2015_Jul_23_1041	s	s	4	4	SIC	383	RC	1	0	23MC	1	0	2.16056489944	76.0	278.0	80	282	1
1.7	2015_Jul_23_1041	s	s	4	4	SIC	384	ABS	0	1	24RO	0	1	6.83589792252	None	None	None	None	1
1.7	2015_Jul_23_1041	s	s	4	4	SIC	385	ABS	0	2	24RD	0	1	3.13020300865	None	None	None	None	1
1.7	2015_Jul_23_1041	s	s	4	4	SIC	386	RC	0	1	23RO	0	1	3.1042881012	-74.0	40.0	None	None	0
1.7	2015_Jul_23_1041	s	s	4	4	SIC	387	RC	0	2	23RD	1	0	1.12673401833	514.0	254.0	513	263	1
1.7	2015_Jul_23_1041	s	s	4	4	SIC	388	ABS	2	1	24VO	0	1	0.552803993225	None	None	None	None	1
1.7	2015_Jul_23_1041	s	s	4	4	SIC	389	RC	2	1	23VO	1	0	0.641587018967	186.0	-154.0	176	-155	1
1.7	2015_Jul_23_1041	s	s	4	4	SIC	390	ABS	1	2	24MD	0	1	0.740952968597	None	None	None	None	1
1.7	2015_Jul_23_1041	s	s	4	4	SIC	391	ABS	1	1	24MO	0	1	0.924798965454	None	None	None	None	1
1.7	2015_Jul_23_1041	s	s	4	4	SIC	392	ABS	2	0	24VC	0	1	1.01163697243	None	None	None	None	1
1.7	2015_Jul_23_1041	s	s	4	4	SIC	393	ABS	1	0	24MC	0	1	1.14886784554	None	None	None	None	1
1.7	2015_Jul_23_1041	s	s	4	4	SIC	394	ABS	2	2	24VD	0	1	0.799744129181	None	None	None	None	1
1.7	2015_Jul_23_1041	s	s	4	4	SIC	395	RC	1	2	23MD	1	0	0.528984069824	308.0	-359.0	299	-357	1
1.7	2015_Jul_23_1041	s	s	4	4	SIC	396	RC	2	0	23VC	1	0	0.446655988693	340.0	-69.0	348	-68	1
1.7	2015_Jul_23_1041	s	s	4	4	SIC	397	RC	1	1	23MO	1	0	0.670268058777	-197.0	-153.0	-189	-151	1
1.7	2015_Jul_23_1041	s	s	4	4	SIC	398	RC	2	2	23VD	1	0	0.411484956741	-337.0	196.0	-341	205	1
1.7	2015_Jul_23_1041	s	s	4	4	SIC	399	ABS	0	1	24RO	0	1	2.55353188515	None	None	None	None	1
1.7	2015_Jul_23_1041	s	s	4	4	SIC	400	RC	1	0	23MC	1	0	0.868358135223	-184.0	305.0	-172	308	1
1.7	2015_Jul_23_1041	s	s	4	4	SIC	401	RC	1	0	23MC	1	0	0.870419025421	408.0	398.0	419	399	1
1.7	2015_Jul_23_1041	s	s	4	4	SIC	402	ABS	1	1	24MO	0	1	1.09116101265	None	None	None	None	1
1.7	2015_Jul_23_1041	s	s	4	4	SIC	403	RC	2	1	23VO	1	0	0.811536073685	224.0	-254.0	221	-261	1
1.7	2015_Jul_23_1041	s	s	4	4	SIC	404	RC	1	1	23MO	1	0	0.641652822495	198.0	-76.0	195	-81	1
1.7	2015_Jul_23_1041	s	s	4	4	SIC	405	ABS	0	2	24RD	0	1	1.17294812202	None	None	None	None	1
1.7	2015_Jul_23_1041	s	s	4	4	SIC	406	RC	2	0	23VC	1	0	0.517534017563	441.0	-79.0	434	-76	1
1.7	2015_Jul_23_1041	s	s	4	4	SIC	407	ABS	1	0	24MC	0	1	1.50261187553	None	None	None	None	1
1.7	2015_Jul_23_1041	s	s	4	4	SIC	408	ABS	2	1	24VO	0	1	0.608818054199	None	None	None	None	1
1.7	2015_Jul_23_1041	s	s	4	4	SIC	409	ABS	1	2	24MD	0	1	0.858662843704	None	None	None	None	1
1.7	2015_Jul_23_1041	s	s	4	4	SIC	410	ABS	2	0	24VC	0	1	0.740874052048	None	None	None	None	1
1.7	2015_Jul_23_1041	s	s	4	4	SIC	411	RC	1	2	23MD	1	0	0.497537851334	-254.0	-206.0	-252	-212	1
1.7	2015_Jul_23_1041	s	s	4	4	SIC	412	RC	0	1	23RO	1	0	1.07054805756	-21.0	-346.0	-7	-338	1
1.7	2015_Jul_23_1041	s	s	4	4	SIC	413	RC	2	2	23VD	1	0	0.411323785782	-145.0	-239.0	-141	-243	1
1.7	2015_Jul_23_1041	s	s	4	4	SIC	414	RC	0	2	23RD	1	0	0.717362165451	-310.0	-249.0	-305	-254	1
1.7	2015_Jul_23_1041	s	s	4	4	SIC	415	ABS	2	2	24VD	0	1	0.564384937286	None	None	None	None	1
1.7	2015_Jul_23_1041	s	s	4	4	SIC	416	ABS	0	1	24RO	0	1	5.68126702309	None	None	None	None	1
1.7	2015_Jul_23_1041	s	s	4	4	SIC	417	ABS	2	2	24VD	0	1	0.773838996887	None	None	None	None	1
1.7	2015_Jul_23_1041	s	s	4	4	SIC	418	RC	0	1	23RO	1	0	2.22411704063	-240.0	-362.0	-241	-358	1
1.7	2015_Jul_23_1041	s	s	4	4	SIC	419	RC	1	2	23MD	1	0	0.429855108261	-30.0	-15.0	-19	-6	1
1.7	2015_Jul_23_1041	s	s	4	4	SIC	420	RC	1	0	23MC	1	0	0.877536058426	73.0	-269.0	70	-273	1
1.7	2015_Jul_23_1041	s	s	4	4	SIC	421	RC	2	0	23VC	1	0	0.393844127655	-75.0	236.0	-73	237	1
1.7	2015_Jul_23_1041	s	s	4	4	SIC	422	ABS	2	0	24VC	0	1	0.811514139175	None	None	None	None	1
1.7	2015_Jul_23_1041	s	s	4	4	SIC	423	RC	2	1	23VO	1	0	0.452288150787	-72.0	398.0	-62	406	1
1.7	2015_Jul_23_1041	s	s	4	4	SIC	424	RC	1	1	23MO	1	0	0.737006187439	227.0	197.0	234	206	1
1.7	2015_Jul_23_1041	s	s	4	4	SIC	425	ABS	0	2	24RD	0	1	0.811766862869	None	None	None	None	1
1.7	2015_Jul_23_1041	s	s	4	4	SIC	426	ABS	1	2	24MD	0	1	0.723317146301	None	None	None	None	1
1.7	2015_Jul_23_1041	s	s	4	4	SIC	427	ABS	0	1	24RO	0	1	3.3502471447	None	None	None	None	1
1.7	2015_Jul_23_1041	s	s	4	4	SIC	428	ABS	2	1	24VO	0	1	0.6585688591	None	None	None	None	1
1.7	2015_Jul_23_1041	s	s	4	4	SIC	429	RC	0	2	23RD	1	0	0.540845155716	-430.0	146.0	-423	144	1
1.7	2015_Jul_23_1041	s	s	4	4	SIC	430	RC	2	2	23VD	1	0	0.411302089691	-453.0	147.0	-459	143	1
1.7	2015_Jul_23_1041	s	s	4	4	SIC	431	ABS	1	1	24MO	0	1	1.56486177444	None	None	None	None	1
1.7	2015_Jul_23_1041	s	s	4	4	SIC	432	ABS	1	0	24MC	0	1	0.903725862503	None	None	None	None	1
1.7	2015_Jul_23_1041	s	s	4	4	SIC	433	ABS	2	2	24VD	0	1	0.558846950531	None	None	None	None	1
1.7	2015_Jul_23_1041	s	s	4	4	SIC	434	ABS	2	0	24VC	0	1	1.24693989754	None	None	None	None	1
1.7	2015_Jul_23_1041	s	s	4	4	SIC	435	RC	2	0	23VC	1	0	1.0114710331	-147.0	-343.0	-143	-346	1
1.7	2015_Jul_23_1041	s	s	4	4	SIC	436	RC	1	2	23MD	1	0	0.526370048523	306.0	356.0	301	353	1
1.7	2015_Jul_23_1041	s	s	4	4	SIC	437	RC	1	1	23MO	1	0	1.79546809196	-455.0	255.0	-461	246	1
1.7	2015_Jul_23_1041	s	s	4	4	SIC	438	ABS	0	1	24RO	0	1	5.05548906326	None	None	None	None	1
1.7	2015_Jul_23_1041	s	s	4	4	SIC	439	RC	2	2	23VD	1	0	0.705498933792	30.0	-371.0	31	-376	1
1.7	2015_Jul_23_1041	s	s	4	4	SIC	440	ABS	1	0	24MC	0	1	3.36032915115	None	None	None	None	1
1.7	2015_Jul_23_1041	s	s	4	4	SIC	441	ABS	1	2	24MD	0	1	1.14811897278	None	None	None	None	1
1.7	2015_Jul_23_1041	s	s	4	4	SIC	442	ABS	0	2	24RD	0	1	0.799862861633	None	None	None	None	1
1.7	2015_Jul_23_1041	s	s	4	4	SIC	443	RC	0	2	23RD	1	0	0.701113939285	269.0	270.0	270	261	1
1.7	2015_Jul_23_1041	s	s	4	4	SIC	444	ABS	1	1	24MO	0	1	0.911913156509	None	None	None	None	1
1.7	2015_Jul_23_1041	s	s	4	4	SIC	445	RC	2	1	23VO	1	0	0.585073947906	-139.0	54.0	-147	59	1
1.7	2015_Jul_23_1041	s	s	4	4	SIC	446	RC	0	1	23RO	1	0	1.67073893547	513.0	155.0	507	158	1
1.7	2015_Jul_23_1041	s	s	4	4	SIC	447	ABS	2	1	24VO	0	1	0.503149986267	None	None	None	None	1
1.7	2015_Jul_23_1041	s	s	4	4	SIC	448	RC	1	0	23MC	1	0	1.04697823524	-184.0	-372.0	-184	-365	1
1.7	2015_Jul_23_1041	s	s	4	4	SIC	449	ABS	2	1	24VO	0	1	0.652936935425	None	None	None	None	1
1.7	2015_Jul_23_1041	s	s	4	4	SIC	450	ABS	0	2	24RD	0	1	0.541021108627	None	None	None	None	1
1.7	2015_Jul_23_1041	s	s	4	4	SIC	451	RC	1	1	23MO	1	0	0.787991046906	-187.0	26.0	-175	28	1
1.7	2015_Jul_23_1041	s	s	4	4	SIC	452	RC	2	0	23VC	1	0	0.479907989502	-470.0	162.0	-481	171	1
1.7	2015_Jul_23_1041	s	s	4	4	SIC	453	ABS	1	1	24MO	0	1	1.24689388275	None	None	None	None	1
1.7	2015_Jul_23_1041	s	s	4	4	SIC	454	RC	0	1	23RO	1	0	1.72413086891	-90.0	-134.0	-99	-136	1
1.7	2015_Jul_23_1041	s	s	4	4	SIC	455	RC	2	1	23VO	1	0	0.558795928955	81.0	408.0	77	417	1
1.7	2015_Jul_23_1041	s	s	4	4	SIC	456	RC	1	0	23MC	1	0	0.556300878525	-10.0	82.0	-14	82	1
1.7	2015_Jul_23_1041	s	s	4	4	SIC	457	RC	0	2	23RD	1	0	0.652734041214	333.0	330.0	331	338	1
1.7	2015_Jul_23_1041	s	s	4	4	SIC	458	RC	2	2	23VD	1	0	0.411256074905	-189.0	45.0	-198	42	1
1.7	2015_Jul_23_1041	s	s	4	4	SIC	459	ABS	0	1	24RO	0	1	3.15392708778	None	None	None	None	1
1.7	2015_Jul_23_1041	s	s	4	4	SIC	460	RC	1	2	23MD	1	0	0.524817943573	90.0	181.0	98	175	1
1.7	2015_Jul_23_1041	s	s	4	4	SIC	461	ABS	1	0	24MC	0	1	1.06520795822	None	None	None	None	1
1.7	2015_Jul_23_1041	s	s	4	4	SIC	462	ABS	1	2	24MD	0	1	0.564418792725	None	None	None	None	1
1.7	2015_Jul_23_1041	s	s	4	4	SIC	463	ABS	2	2	24VD	0	1	0.571064949036	None	None	None	None	1
1.7	2015_Jul_23_1041	s	s	4	4	SIC	464	ABS	2	0	24VC	0	1	0.572673082352	None	None	None	None	1
1.7	2015_Jul_23_1041	s	s	4	4	SIC	465	RC	0	2	23RD	1	0	0.665403842926	-313.0	342.0	-309	345	1
1.7	2015_Jul_23_1041	s	s	4	4	SIC	466	RC	2	0	23VC	1	0	0.529031991959	477.0	119.0	476	128	1
1.7	2015_Jul_23_1041	s	s	4	4	SIC	467	ABS	2	1	24VO	0	1	0.706073045731	None	None	None	None	1
1.7	2015_Jul_23_1041	s	s	4	4	SIC	468	RC	1	2	23MD	1	0	0.603483915329	-540.0	359.0	-538	349	1
1.7	2015_Jul_23_1041	s	s	4	4	SIC	469	ABS	1	1	24MO	0	1	2.06839179993	None	None	None	None	1
1.7	2015_Jul_23_1041	s	s	4	4	SIC	470	ABS	2	0	24VC	0	1	0.662153959274	None	None	None	None	1
1.7	2015_Jul_23_1041	s	s	4	4	SIC	471	ABS	1	0	24MC	0	1	1.98419499397	None	None	None	None	1
1.7	2015_Jul_23_1041	s	s	4	4	SIC	472	RC	1	1	23MO	1	0	0.738315820694	404.0	278.0	405	278	1
1.7	2015_Jul_23_1041	s	s	4	4	SIC	473	RC	0	1	23RO	1	0	1.55983495712	12.0	-348.0	16	-344	1
1.7	2015_Jul_23_1041	s	s	4	4	SIC	474	ABS	1	2	24MD	0	1	0.630079030991	None	None	None	None	1
1.7	2015_Jul_23_1041	s	s	4	4	SIC	475	ABS	0	1	24RO	0	1	3.15133810043	None	None	None	None	1
1.7	2015_Jul_23_1041	s	s	4	4	SIC	476	RC	2	1	23VO	1	0	0.529042005539	-288.0	-254.0	-282	-254	1
1.7	2015_Jul_23_1041	s	s	4	4	SIC	477	ABS	0	2	24RD	0	1	0.629930019379	None	None	None	None	1
1.7	2015_Jul_23_1041	s	s	4	4	SIC	478	RC	2	2	23VD	1	0	0.820930957794	332.0	-305.0	335	-306	1
1.7	2015_Jul_23_1041	s	s	4	4	SIC	479	RC	1	0	23MC	1	0	1.02352905273	-128.0	-216.0	-144	-207	1
1.7	2015_Jul_23_1041	s	s	4	4	SIC	480	ABS	2	2	24VD	0	1	0.434971809387	None	None	None	None	1
1.7	2015_Jul_23_1041	s	s	4	4	SIC	481	RC	0	2	23RD	1	0	0.514354944229	-434.0	-172.0	-436	-166	1
1.7	2015_Jul_23_1041	s	s	4	4	SIC	482	RC	2	0	23VC	1	0	0.526392936707	-15.0	367.0	-15	366	1
1.7	2015_Jul_23_1041	s	s	4	4	SIC	483	RC	1	0	23MC	1	0	0.470505952835	29.0	-25.0	35	-20	1
1.7	2015_Jul_23_1041	s	s	4	4	SIC	484	ABS	2	2	24VD	0	1	0.92285490036	None	None	None	None	1
1.7	2015_Jul_23_1041	s	s	4	4	SIC	485	ABS	1	0	24MC	0	1	1.8040060997	None	None	None	None	1
1.7	2015_Jul_23_1041	s	s	4	4	SIC	486	ABS	2	1	24VO	0	1	0.583617925644	None	None	None	None	1
1.7	2015_Jul_23_1041	s	s	4	4	SIC	487	RC	0	1	23RO	1	0	1.00977301598	-297.0	-286.0	-302	-287	1
1.7	2015_Jul_23_1041	s	s	4	4	SIC	488	RC	1	1	23MO	1	0	0.47025179863	89.0	-29.0	90	-21	1
1.7	2015_Jul_23_1041	s	s	4	4	SIC	489	RC	2	1	23VO	1	0	0.441785097122	146.0	-199.0	133	-194	1
1.7	2015_Jul_23_1041	s	s	4	4	SIC	490	ABS	0	1	24RO	0	1	2.81008601189	None	None	None	None	1
1.7	2015_Jul_23_1041	s	s	4	4	SIC	491	ABS	0	2	24RD	0	1	0.682161092758	None	None	None	None	1
1.7	2015_Jul_23_1041	s	s	4	4	SIC	492	ABS	2	0	24VC	0	1	0.63503909111	None	None	None	None	1
1.7	2015_Jul_23_1041	s	s	4	4	SIC	493	ABS	1	2	24MD	0	1	0.666337966919	None	None	None	None	1
1.7	2015_Jul_23_1041	s	s	4	4	SIC	494	ABS	1	1	24MO	0	1	1.03245687485	None	None	None	None	1
1.7	2015_Jul_23_1041	s	s	4	4	SIC	495	RC	2	2	23VD	1	0	0.576227903366	-456.0	-117.0	-444	-113	1
1.7	2015_Jul_23_1041	s	s	4	4	SIC	496	RC	1	2	23MD	1	0	0.477027893066	-522.0	-221.0	-519	-223	1
1.7	2015_Jul_23_1041	s	s	4	4	SIC	497	ABS	1	2	24MD	0	1	0.846858024597	None	None	None	None	1
1.7	2015_Jul_23_1041	s	s	4	4	SIC	498	ABS	1	0	24MC	0	1	0.63171505928	None	None	None	None	1
1.7	2015_Jul_23_1041	s	s	4	4	SIC	499	ABS	0	1	24RO	0	1	4.88414812088	None	None	None	None	1
1.7	2015_Jul_23_1041	s	s	4	4	SIC	500	RC	1	1	23MO	1	0	0.635016918182	-10.0	-6.0	-12	-10	1
1.7	2015_Jul_23_1041	s	s	4	4	SIC	501	RC	2	0	23VC	1	0	0.805620908737	480.0	-400.0	488	-403	1
1.7	2015_Jul_23_1041	s	s	4	4	SIC	502	RC	2	2	23VD	1	0	0.552585840225	39.0	-210.0	40	-212	1
1.7	2015_Jul_23_1041	s	s	4	4	SIC	503	ABS	0	2	24RD	0	1	1.7385840416	None	None	None	None	1
1.7	2015_Jul_23_1041	s	s	4	4	SIC	504	RC	2	1	23VO	1	0	0.784108161926	-90.0	121.0	-77	128	1
1.7	2015_Jul_23_1041	s	s	4	4	SIC	505	ABS	2	1	24VO	0	1	4.32603383064	None	None	None	None	1
1.7	2015_Jul_23_1041	s	s	4	4	SIC	506	ABS	2	2	24VD	0	1	0.867271900177	None	None	None	None	1
1.7	2015_Jul_23_1041	s	s	4	4	SIC	507	RC	0	1	23RO	1	0	6.50488805771	-363.0	64.0	-351	65	1
1.7	2015_Jul_23_1041	s	s	4	4	SIC	508	RC	0	2	23RD	1	0	0.594907999039	100.0	370.0	88	378	1
1.7	2015_Jul_23_1041	s	s	4	4	SIC	509	RC	1	2	23MD	1	0	0.538599014282	-504.0	206.0	-498	203	1
1.7	2015_Jul_23_1041	s	s	4	4	SIC	510	ABS	1	1	24MO	0	1	2.75984191895	None	None	None	None	1
1.7	2015_Jul_23_1041	s	s	4	4	SIC	511	ABS	2	0	24VC	0	1	0.45294713974	None	None	None	None	1
1.7	2015_Jul_23_1041	s	s	4	4	SIC	512	RC	1	0	23MC	1	0	0.717414855957	100.0	-53.0	102	-44	1
1.7	2015_Jul_23_1041	s	s	4	4	SIC	513	ABS	1	1	24MO	0	1	1.52574396133	None	None	None	None	1
1.7	2015_Jul_23_1041	s	s	4	4	SIC	514	ABS	0	1	24RO	0	1	2.35358285904	None	None	None	None	1
1.7	2015_Jul_23_1041	s	s	4	4	SIC	515	RC	1	2	23MD	1	0	1.00829005241	12.0	-323.0	17	-316	1
1.7	2015_Jul_23_1041	s	s	4	4	SIC	516	RC	1	1	23MO	1	0	0.682074069977	-62.0	-76.0	-54	-74	1
1.7	2015_Jul_23_1041	s	s	4	4	SIC	517	RC	2	2	23VD	1	0	0.529148101807	-404.0	155.0	-409	154	1
1.7	2015_Jul_23_1041	s	s	4	4	SIC	518	RC	2	0	23VC	1	0	0.524128913879	-401.0	-37.0	-395	-33	1
1.7	2015_Jul_23_1041	s	s	4	4	SIC	519	RC	1	0	23MC	1	0	0.517191886902	-119.0	197.0	-118	206	1
1.7	2015_Jul_23_1041	s	s	4	4	SIC	520	ABS	2	2	24VD	0	1	0.652615070343	None	None	None	None	1
1.7	2015_Jul_23_1041	s	s	4	4	SIC	521	ABS	1	2	24MD	0	1	0.740845918655	None	None	None	None	1
1.7	2015_Jul_23_1041	s	s	4	4	SIC	522	ABS	0	2	24RD	0	1	0.71320605278	None	None	None	None	1
1.7	2015_Jul_23_1041	s	s	4	4	SIC	523	RC	0	2	23RD	1	0	0.6181640625	272.0	-191.0	267	-182	1
1.7	2015_Jul_23_1041	s	s	4	4	SIC	524	RC	0	1	23RO	1	0	2.59749007225	374.0	165.0	372	163	1
1.7	2015_Jul_23_1041	s	s	4	4	SIC	525	ABS	1	0	24MC	0	1	1.58839893341	None	None	None	None	1
1.7	2015_Jul_23_1041	s	s	4	4	SIC	526	ABS	2	1	24VO	0	1	0.497477054596	None	None	None	None	1
1.7	2015_Jul_23_1041	s	s	4	4	SIC	527	RC	2	1	23VO	1	0	0.705698013306	158.0	-288.0	148	-284	1
1.7	2015_Jul_23_1041	s	s	4	4	SIC	528	ABS	2	0	24VC	0	1	0.552561998367	None	None	None	None	1
1.7	2015_Jul_23_1041	s	s	4	4	SIC	529	ABS	1	0	24MC	0	1	0.846881866455	None	None	None	None	1
1.7	2015_Jul_23_1041	s	s	4	4	SIC	530	RC	2	1	23VO	1	0	1.34720897675	212.0	10.0	213	15	1
1.7	2015_Jul_23_1041	s	s	4	4	SIC	531	RC	2	2	23VD	1	0	0.423142910004	326.0	175.0	331	179	1
1.7	2015_Jul_23_1041	s	s	4	4	SIC	532	ABS	2	0	24VC	0	1	0.597163915634	None	None	None	None	1
1.7	2015_Jul_23_1041	s	s	4	4	SIC	533	ABS	0	1	24RO	0	1	4.10721516609	None	None	None	None	1
1.7	2015_Jul_23_1041	s	s	4	4	SIC	534	ABS	2	1	24VO	1	0	0.5235850811	None	None	395	-389	0
1.7	2015_Jul_23_1041	s	s	4	4	SIC	535	ABS	1	2	24MD	0	1	0.523442029953	None	None	None	None	1
1.7	2015_Jul_23_1041	s	s	4	4	SIC	536	RC	1	2	23MD	1	0	0.653579950333	153.0	352.0	147	344	1
1.7	2015_Jul_23_1041	s	s	4	4	SIC	537	RC	1	1	23MO	1	0	1.03161215782	500.0	-372.0	492	-371	1
1.7	2015_Jul_23_1041	s	s	4	4	SIC	538	ABS	1	1	24MO	0	1	0.841381072998	None	None	None	None	1
1.7	2015_Jul_23_1041	s	s	4	4	SIC	539	ABS	0	2	24RD	0	1	0.642780065536	None	None	None	None	1
1.7	2015_Jul_23_1041	s	s	4	4	SIC	540	RC	1	0	23MC	1	0	0.858699083328	-398.0	21.0	-406	16	1
1.7	2015_Jul_23_1041	s	s	4	4	SIC	541	RC	0	1	23RO	0	1	2.6713540554	392.0	280.0	None	None	0
1.7	2015_Jul_23_1041	s	s	4	4	SIC	542	ABS	2	2	24VD	0	1	0.538488149643	None	None	None	None	1
1.7	2015_Jul_23_1041	s	s	4	4	SIC	543	RC	0	2	23RD	1	0	0.654356956482	16.0	164.0	17	163	1
1.7	2015_Jul_23_1041	s	s	4	4	SIC	544	RC	2	0	23VC	1	0	0.82985496521	-516.0	-210.0	-519	-210	1
1.7	2015_Jul_23_1041	s	s	4	4	SIC	545	RC	2	1	23VO	1	0	0.874240159988	526.0	247.0	517	251	1
1.7	2015_Jul_23_1041	s	s	4	4	SIC	546	RC	2	0	23VC	1	0	0.561840057373	92.0	355.0	101	362	1
1.7	2015_Jul_23_1041	s	s	4	4	SIC	547	ABS	1	2	24MD	0	1	0.688137054443	None	None	None	None	1
1.7	2015_Jul_23_1041	s	s	4	4	SIC	548	ABS	1	0	24MC	0	1	2.3456401825	None	None	None	None	1
1.7	2015_Jul_23_1041	s	s	4	4	SIC	549	RC	1	1	23MO	1	0	0.635099887848	-220.0	-212.0	-219	-218	1
1.7	2015_Jul_23_1041	s	s	4	4	SIC	550	ABS	2	1	24VO	0	1	0.73540687561	None	None	None	None	1
1.7	2015_Jul_23_1041	s	s	4	4	SIC	551	RC	2	2	23VD	1	0	0.529000997543	-347.0	-312.0	-350	-311	1
1.7	2015_Jul_23_1041	s	s	4	4	SIC	552	ABS	1	1	24MO	0	1	1.82383298874	None	None	None	None	1
1.7	2015_Jul_23_1041	s	s	4	4	SIC	553	ABS	2	0	24VC	0	1	0.52180814743	None	None	None	None	1
1.7	2015_Jul_23_1041	s	s	4	4	SIC	554	RC	1	2	23MD	1	0	0.596694946289	-359.0	-333.0	-359	-328	1
1.7	2015_Jul_23_1041	s	s	4	4	SIC	555	ABS	0	1	24RO	0	1	3.21017885208	None	None	None	None	1
1.7	2015_Jul_23_1041	s	s	4	4	SIC	556	RC	0	1	23RO	1	0	1.42000198364	-302.0	362.0	-295	355	1
1.7	2015_Jul_23_1041	s	s	4	4	SIC	557	ABS	2	2	24VD	0	1	0.70304107666	None	None	None	None	1
1.7	2015_Jul_23_1041	s	s	4	4	SIC	558	RC	1	0	23MC	1	0	0.952747821808	251.0	-227.0	248	-224	1
1.7	2015_Jul_23_1041	s	s	4	4	SIC	559	ABS	0	2	24RD	0	1	1.035187006	None	None	None	None	1
1.7	2015_Jul_23_1041	s	s	4	4	SIC	560	RC	0	2	23RD	1	0	0.611330986023	336.0	191.0	340	200	1
1.7	2015_Jul_23_1041	s	s	4	4	SIC	561	RC	1	2	23MD	1	0	0.466202020645	-323.0	-148.0	-324	-150	1
1.7	2015_Jul_23_1041	s	s	4	4	SIC	562	RC	1	1	23MO	1	0	0.547086954117	-38.0	-149.0	-29	-142	1
1.7	2015_Jul_23_1041	s	s	4	4	SIC	563	RC	0	1	23RO	1	0	1.8119931221	25.0	160.0	22	160	1
1.7	2015_Jul_23_1041	s	s	4	4	SIC	564	ABS	1	0	24MC	0	1	1.12935996056	None	None	None	None	1
1.7	2015_Jul_23_1041	s	s	4	4	SIC	565	RC	1	0	23MC	1	0	0.96451997757	78.0	141.0	71	149	1
1.7	2015_Jul_23_1041	s	s	4	4	SIC	566	RC	2	2	23VD	1	0	0.535739898682	372.0	241.0	371	242	1
1.7	2015_Jul_23_1041	s	s	4	4	SIC	567	ABS	1	2	24MD	0	1	0.959619998932	None	None	None	None	1
1.7	2015_Jul_23_1041	s	s	4	4	SIC	568	RC	2	0	23VC	1	0	0.540835142136	-503.0	-406.0	-501	-398	1
1.7	2015_Jul_23_1041	s	s	4	4	SIC	569	ABS	2	1	24VO	0	1	0.538377046585	None	None	None	None	1
1.7	2015_Jul_23_1041	s	s	4	4	SIC	570	RC	2	1	23VO	1	0	0.582767009735	-297.0	401.0	-291	406	1
1.7	2015_Jul_23_1041	s	s	4	4	SIC	571	ABS	0	2	24RD	0	1	0.713887929916	None	None	None	None	1
1.7	2015_Jul_23_1041	s	s	4	4	SIC	572	ABS	2	0	24VC	0	1	2.84770393372	None	None	None	None	1
1.7	2015_Jul_23_1041	s	s	4	4	SIC	573	RC	0	2	23RD	1	0	0.658627986908	-225.0	7.0	-219	15	1
1.7	2015_Jul_23_1041	s	s	4	4	SIC	574	ABS	2	2	24VD	0	1	0.95016002655	None	None	None	None	1
1.7	2015_Jul_23_1041	s	s	4	4	SIC	575	ABS	1	1	24MO	0	1	1.92964696884	None	None	None	None	1
1.7	2015_Jul_23_1041	s	s	4	4	SIC	576	ABS	0	1	24RO	0	1	6.35553598404	None	None	None	None	1
1.7	2015_Jul_23_1041	s	s	4	4	SIC	577	ABS	1	0	24MC	0	1	2.13861489296	None	None	None	None	1
1.7	2015_Jul_23_1041	s	s	4	4	SIC	578	ABS	0	1	24RO	0	1	6.17905211449	None	None	None	None	1
1.7	2015_Jul_23_1041	s	s	4	4	SIC	579	RC	1	0	23MC	1	0	1.34126496315	421.0	-369.0	428	-375	1
1.7	2015_Jul_23_1041	s	s	4	4	SIC	580	RC	0	1	23RO	1	0	2.49221396446	318.0	-238.0	319	-235	1
1.7	2015_Jul_23_1041	s	s	4	4	SIC	581	ABS	2	0	24VC	0	1	0.771727085114	None	None	None	None	1
1.7	2015_Jul_23_1041	s	s	4	4	SIC	582	RC	1	1	23MO	1	0	0.646746873856	31.0	-80.0	38	-80	1
1.7	2015_Jul_23_1041	s	s	4	4	SIC	583	RC	2	2	23VD	1	0	0.524931192398	446.0	-71.0	442	-61	1
1.7	2015_Jul_23_1041	s	s	4	4	SIC	584	RC	2	1	23VO	1	0	0.458400011063	-230.0	-237.0	-223	-234	1
1.7	2015_Jul_23_1041	s	s	4	4	SIC	585	ABS	1	2	24MD	0	1	0.564429044724	None	None	None	None	1
1.7	2015_Jul_23_1041	s	s	4	4	SIC	586	ABS	2	1	24VO	1	0	0.479047060013	None	None	121	-285	0
1.7	2015_Jul_23_1041	s	s	4	4	SIC	587	ABS	2	2	24VD	0	1	0.585503101349	None	None	None	None	1
1.7	2015_Jul_23_1041	s	s	4	4	SIC	588	RC	0	2	23RD	1	0	0.705633878708	363.0	-344.0	374	-341	1
1.7	2015_Jul_23_1041	s	s	4	4	SIC	589	RC	2	0	23VC	1	0	0.458488941193	-160.0	357.0	-153	351	1
1.7	2015_Jul_23_1041	s	s	4	4	SIC	590	RC	1	2	23MD	1	0	0.406760931015	59.0	54.0	69	63	1
1.7	2015_Jul_23_1041	s	s	4	4	SIC	591	ABS	0	2	24RD	0	1	0.823300123215	None	None	None	None	1
1.7	2015_Jul_23_1041	s	s	4	4	SIC	592	ABS	1	1	24MO	0	1	1.38829112053	None	None	None	None	1
