Version	Date	Stimuli	Method	Subject	Session	Condition	Trial	Target	Channel1	Channel2	Distractors	LMouseButton	RMouseButton	RT	TargetX	TargetY	ResponseX	ResponseY	Correct
1.7	2015_Jul_20_1104	s	s	4	1	Capacity	1	ABS	0	2	24RD	0	1	5.64485788345	None	None	None	None	1
1.7	2015_Jul_20_1104	s	s	4	1	Capacity	2	RC	0	1	23RO	1	0	5.32655405998	-416.0	64.0	-418	65	1
1.7	2015_Jul_20_1104	s	s	4	1	Capacity	3	ABS	0	1	24RO	0	1	11.3312199116	None	None	None	None	1
1.7	2015_Jul_20_1104	s	s	4	1	Capacity	4	RC	0	2	23RD	1	0	2.53697395325	-287.0	-230.0	-283	-226	1
1.7	2015_Jul_20_1104	s	s	4	1	Capacity	5	RC	0	2	23RD	1	0	2.09003615379	-135.0	-99.0	-139	-95	1
1.7	2015_Jul_20_1104	s	s	4	1	Capacity	6	ABS	0	1	24RO	0	1	9.75720310211	None	None	None	None	1
1.7	2015_Jul_20_1104	s	s	4	1	Capacity	7	ABS	0	2	24RD	0	1	4.80178189278	None	None	None	None	1
1.7	2015_Jul_20_1104	s	s	4	1	Capacity	8	RC	0	1	23RO	1	0	7.49718689919	374.0	-399.0	386	-396	1
1.7	2015_Jul_20_1104	s	s	4	1	Capacity	9	ABS	0	1	24RO	0	1	9.32170605659	None	None	None	None	1
1.7	2015_Jul_20_1104	s	s	4	1	Capacity	10	ABS	0	2	24RD	0	1	8.46242618561	None	None	None	None	1
1.7	2015_Jul_20_1104	s	s	4	1	Capacity	11	RC	0	1	23RO	1	0	4.47225213051	167.0	-261.0	167	-256	1
1.7	2015_Jul_20_1104	s	s	4	1	Capacity	12	RC	0	2	23RD	1	0	5.23766088486	171.0	378.0	177	379	1
1.7	2015_Jul_20_1104	s	s	4	1	Capacity	13	ABS	0	2	24RD	0	1	4.36398911476	None	None	None	None	1
1.7	2015_Jul_20_1104	s	s	4	1	Capacity	14	RC	0	1	23RO	1	0	4.83415198326	468.0	178.0	467	170	1
1.7	2015_Jul_20_1104	s	s	4	1	Capacity	15	ABS	0	1	24RO	0	1	9.26040196419	None	None	None	None	1
1.7	2015_Jul_20_1104	s	s	4	1	Capacity	16	RC	0	2	23RD	1	0	0.952840089798	-296.0	387.0	-294	380	1
1.7	2015_Jul_20_1104	s	s	4	1	Capacity	17	ABS	0	2	24RD	0	1	3.16076207161	None	None	None	None	1
1.7	2015_Jul_20_1104	s	s	4	1	Capacity	18	ABS	0	1	24RO	0	1	5.85577607155	None	None	None	None	1
1.7	2015_Jul_20_1104	s	s	4	1	Capacity	19	RC	0	1	23RO	1	0	1.40899586678	-234.0	-144.0	-241	-142	1
1.7	2015_Jul_20_1104	s	s	4	1	Capacity	20	RC	0	2	23RD	1	0	1.61877989769	-53.0	247.0	-50	236	1
1.7	2015_Jul_20_1104	s	s	4	1	Capacity	21	ABS	0	2	24RD	0	1	2.52452993393	None	None	None	None	1
1.7	2015_Jul_20_1104	s	s	4	1	Capacity	22	RC	0	1	23RO	1	0	4.49572396278	-529.0	-245.0	-526	-245	1
1.7	2015_Jul_20_1104	s	s	4	1	Capacity	23	ABS	0	1	24RO	0	1	6.02059698105	None	None	None	None	1
1.7	2015_Jul_20_1104	s	s	4	1	Capacity	24	RC	0	2	23RD	1	0	0.962141036987	375.0	0.0	367	0	1
1.7	2015_Jul_20_1104	s	s	4	1	Capacity	25	ABS	0	1	24RO	0	1	5.04543209076	None	None	None	None	1
1.7	2015_Jul_20_1104	s	s	4	1	Capacity	26	ABS	0	2	24RD	0	1	2.14883613586	None	None	None	None	1
1.7	2015_Jul_20_1104	s	s	4	1	Capacity	27	RC	0	1	23RO	1	0	2.48941993713	-462.0	-127.0	-461	-132	1
1.7	2015_Jul_20_1104	s	s	4	1	Capacity	28	RC	0	2	23RD	0	1	1.68259692192	484.0	264.0	None	None	0
1.7	2015_Jul_20_1104	s	s	4	1	Capacity	29	ABS	0	1	24RO	0	1	6.22328901291	None	None	None	None	1
1.7	2015_Jul_20_1104	s	s	4	1	Capacity	30	RC	0	1	23RO	1	0	3.51867198944	54.0	198.0	51	200	1
1.7	2015_Jul_20_1104	s	s	4	1	Capacity	31	RC	0	2	23RD	1	0	1.48628091812	-139.0	-275.0	-134	-278	1
1.7	2015_Jul_20_1104	s	s	4	1	Capacity	32	ABS	0	2	24RD	0	1	2.37194705009	None	None	None	None	1
1.7	2015_Jul_20_1104	s	s	4	1	Capacity	33	RC	0	2	23RD	1	0	0.806156158447	-276.0	203.0	-275	204	1
1.7	2015_Jul_20_1104	s	s	4	1	Capacity	34	RC	0	1	23RO	0	1	6.90553092957	394.0	34.0	None	None	0
1.7	2015_Jul_20_1104	s	s	4	1	Capacity	35	ABS	0	2	24RD	0	1	2.96556806564	None	None	None	None	1
1.7	2015_Jul_20_1104	s	s	4	1	Capacity	36	ABS	0	1	24RO	0	1	5.20206093788	None	None	None	None	1
1.7	2015_Jul_20_1104	s	s	4	1	Capacity	37	RC	0	1	23RO	1	0	2.72497010231	-416.0	-239.0	-418	-238	1
1.7	2015_Jul_20_1104	s	s	4	1	Capacity	38	RC	0	2	23RD	1	0	1.28980183601	-230.0	-244.0	-231	-253	1
1.7	2015_Jul_20_1104	s	s	4	1	Capacity	39	ABS	0	2	24RD	0	1	1.38384795189	None	None	None	None	1
1.7	2015_Jul_20_1104	s	s	4	1	Capacity	40	ABS	0	1	24RO	0	1	5.90825390816	None	None	None	None	1
1.7	2015_Jul_20_1104	s	s	4	1	Capacity	41	RC	0	1	23RO	1	0	12.4009261131	-417.0	195.0	-413	189	1
1.7	2015_Jul_20_1104	s	s	4	1	Capacity	42	ABS	0	2	24RD	0	1	4.96056699753	None	None	None	None	1
1.7	2015_Jul_20_1104	s	s	4	1	Capacity	43	RC	0	2	23RD	1	0	2.07941389084	522.0	107.0	524	117	1
1.7	2015_Jul_20_1104	s	s	4	1	Capacity	44	ABS	0	1	24RO	0	1	3.9979429245	None	None	None	None	1
1.7	2015_Jul_20_1104	s	s	4	1	Capacity	45	RC	0	1	23RO	1	0	2.10076403618	-340.0	34.0	-330	38	1
1.7	2015_Jul_20_1104	s	s	4	1	Capacity	46	RC	0	2	23RD	1	0	1.30593895912	192.0	85.0	192	80	1
1.7	2015_Jul_20_1104	s	s	4	1	Capacity	47	ABS	0	1	24RO	0	1	4.6216609478	None	None	None	None	1
1.7	2015_Jul_20_1104	s	s	4	1	Capacity	48	ABS	0	2	24RD	0	1	1.87760019302	None	None	None	None	1
1.7	2015_Jul_20_1104	s	s	4	1	Capacity	49	RC	0	1	23RO	0	1	6.69687485695	-10.0	311.0	None	None	0
1.7	2015_Jul_20_1104	s	s	4	1	Capacity	50	ABS	0	1	24RO	0	1	10.9106800556	None	None	None	None	1
1.7	2015_Jul_20_1104	s	s	4	1	Capacity	51	ABS	0	2	24RD	0	1	2.35349082947	None	None	None	None	1
1.7	2015_Jul_20_1104	s	s	4	1	Capacity	52	RC	0	2	23RD	1	0	1.36175203323	153.0	75.0	163	81	1
1.7	2015_Jul_20_1104	s	s	4	1	Capacity	53	ABS	0	1	24RO	0	1	16.2731509209	None	None	None	None	1
1.7	2015_Jul_20_1104	s	s	4	1	Capacity	54	ABS	0	2	24RD	0	1	15.2986731529	None	None	None	None	1
1.7	2015_Jul_20_1104	s	s	4	1	Capacity	55	RC	0	1	23RO	1	0	5.97883605957	106.0	-130.0	109	-131	1
1.7	2015_Jul_20_1104	s	s	4	1	Capacity	56	RC	0	2	23RD	1	0	1.737844944	-105.0	-102.0	-111	-105	1
1.7	2015_Jul_20_1104	s	s	4	1	Capacity	57	ABS	0	1	24RO	0	1	7.45938110352	None	None	None	None	1
1.7	2015_Jul_20_1104	s	s	4	1	Capacity	58	ABS	0	2	24RD	0	1	2.52190113068	None	None	None	None	1
1.7	2015_Jul_20_1104	s	s	4	1	Capacity	59	RC	0	2	23RD	1	0	0.853975057602	-270.0	-319.0	-277	-321	1
1.7	2015_Jul_20_1104	s	s	4	1	Capacity	60	RC	0	1	23RO	1	0	2.9122569561	183.0	-40.0	175	-46	1
1.7	2015_Jul_20_1104	s	s	4	1	Capacity	61	ABS	0	1	24RO	0	1	8.74201202393	None	None	None	None	1
1.7	2015_Jul_20_1104	s	s	4	1	Capacity	62	ABS	0	2	24RD	0	1	3.2010281086	None	None	None	None	1
1.7	2015_Jul_20_1104	s	s	4	1	Capacity	63	RC	0	1	23RO	1	0	3.01263713837	-52.0	-207.0	-63	-206	1
1.7	2015_Jul_20_1104	s	s	4	1	Capacity	64	RC	0	2	23RD	1	0	0.950300931931	279.0	-322.0	285	-320	1
1.7	2015_Jul_20_1104	s	s	4	1	Capacity	65	ABS	0	2	24RD	0	1	1.31769299507	None	None	None	None	1
1.7	2015_Jul_20_1104	s	s	4	1	Capacity	66	RC	0	2	23RD	1	0	0.891402006149	-282.0	-53.0	-289	-57	1
1.7	2015_Jul_20_1104	s	s	4	1	Capacity	67	ABS	0	1	24RO	0	1	12.4148390293	None	None	None	None	1
1.7	2015_Jul_20_1104	s	s	4	1	Capacity	68	RC	0	1	23RO	1	0	7.14407896996	-184.0	-354.0	-191	-358	1
1.7	2015_Jul_20_1104	s	s	4	1	Capacity	69	ABS	0	2	24RD	0	1	4.89612197876	None	None	None	None	1
1.7	2015_Jul_20_1104	s	s	4	1	Capacity	70	RC	0	2	23RD	1	0	0.929131031036	315.0	283.0	313	283	1
1.7	2015_Jul_20_1104	s	s	4	1	Capacity	71	ABS	0	1	24RO	0	0	-1	None	None	None	None	-1
1.7	2015_Jul_20_1104	s	s	4	1	Capacity	72	RC	0	1	23RO	0	1	7.51646208763	352.0	352.0	None	None	0
1.7	2015_Jul_20_1104	s	s	4	1	Capacity	73	ABS	0	1	24RO	0	1	4.52314782143	None	None	None	None	1
1.7	2015_Jul_20_1104	s	s	4	1	Capacity	74	RC	0	1	23RO	0	1	5.82018518448	-367.0	317.0	None	None	0
1.7	2015_Jul_20_1104	s	s	4	1	Capacity	75	ABS	0	2	24RD	0	1	1.25334596634	None	None	None	None	1
1.7	2015_Jul_20_1104	s	s	4	1	Capacity	76	RC	0	2	23RD	1	0	1.26498317719	445.0	347.0	444	356	1
1.7	2015_Jul_20_1104	s	s	4	1	Capacity	77	ABS	0	2	24RD	0	1	1.04697799683	None	None	None	None	1
1.7	2015_Jul_20_1104	s	s	4	1	Capacity	78	RC	0	1	23RO	1	0	2.75047302246	290.0	157.0	292	164	1
1.7	2015_Jul_20_1104	s	s	4	1	Capacity	79	RC	0	2	23RD	1	0	0.749294996262	32.0	-202.0	23	-202	1
1.7	2015_Jul_20_1104	s	s	4	1	Capacity	80	ABS	0	1	24RO	0	1	5.01376104355	None	None	None	None	1
1.7	2015_Jul_20_1104	s	s	4	1	Capacity	81	RC	0	2	23RD	1	0	0.771481990814	-120.0	-318.0	-112	-312	1
1.7	2015_Jul_20_1104	s	s	4	1	Capacity	82	ABS	0	2	24RD	0	1	1.0093228817	None	None	None	None	1
1.7	2015_Jul_20_1104	s	s	4	1	Capacity	83	ABS	0	1	24RO	0	1	3.40472984314	None	None	None	None	1
1.7	2015_Jul_20_1104	s	s	4	1	Capacity	84	RC	0	1	23RO	1	0	2.46897506714	-84.0	-107.0	-91	-104	1
1.7	2015_Jul_20_1104	s	s	4	1	Capacity	85	ABS	0	2	24RD	0	1	0.988075017929	None	None	None	None	1
1.7	2015_Jul_20_1104	s	s	4	1	Capacity	86	ABS	0	1	24RO	0	1	5.07248210907	None	None	None	None	1
1.7	2015_Jul_20_1104	s	s	4	1	Capacity	87	RC	0	1	23RO	1	0	3.36357998848	-308.0	245.0	-317	246	1
1.7	2015_Jul_20_1104	s	s	4	1	Capacity	88	RC	0	2	23RD	1	0	0.785054922104	179.0	116.0	186	117	1
1.7	2015_Jul_20_1104	s	s	4	1	Capacity	89	RC	0	2	23RD	1	0	0.666556119919	-213.0	72.0	-220	69	1
1.7	2015_Jul_20_1104	s	s	4	1	Capacity	90	RC	0	1	23RO	1	0	0.722472906113	-59.0	87.0	-60	91	1
1.7	2015_Jul_20_1104	s	s	4	1	Capacity	91	ABS	0	1	24RO	0	1	4.14262390137	None	None	None	None	1
1.7	2015_Jul_20_1104	s	s	4	1	Capacity	92	ABS	0	2	24RD	0	1	1.57663917542	None	None	None	None	1
1.7	2015_Jul_20_1104	s	s	4	1	Capacity	1	RC	2	0	23VC	1	0	0.803525924683	278.0	406.0	268	408	1
1.7	2015_Jul_20_1104	s	s	4	1	Capacity	2	RC	1	0	23MC	1	0	1.78822207451	166.0	-7.0	162	-13	1
1.7	2015_Jul_20_1104	s	s	4	1	Capacity	3	ABS	2	0	24VC	0	1	1.56487393379	None	None	None	None	1
1.7	2015_Jul_20_1104	s	s	4	1	Capacity	4	ABS	1	0	24MC	0	1	3.63407111168	None	None	None	None	1
1.7	2015_Jul_20_1104	s	s	4	1	Capacity	5	RC	2	0	23VC	1	0	0.740904092789	-371.0	-363.0	-362	-354	1
1.7	2015_Jul_20_1104	s	s	4	1	Capacity	6	RC	1	0	23MC	1	0	1.98434591293	-256.0	275.0	-256	282	1
1.7	2015_Jul_20_1104	s	s	4	1	Capacity	7	ABS	1	0	24MC	0	1	2.24754500389	None	None	None	None	1
1.7	2015_Jul_20_1104	s	s	4	1	Capacity	8	ABS	2	0	24VC	0	1	1.45912289619	None	None	None	None	1
1.7	2015_Jul_20_1104	s	s	4	1	Capacity	9	RC	2	0	23VC	1	0	0.776217937469	-449.0	-386.0	-453	-389	1
1.7	2015_Jul_20_1104	s	s	4	1	Capacity	10	ABS	2	0	24VC	0	1	1.02345299721	None	None	None	None	1
1.7	2015_Jul_20_1104	s	s	4	1	Capacity	11	RC	1	0	23MC	1	0	1.29419898987	-516.0	369.0	-506	374	1
1.7	2015_Jul_20_1104	s	s	4	1	Capacity	12	ABS	1	0	24MC	0	1	5.73753881454	None	None	None	None	1
1.7	2015_Jul_20_1104	s	s	4	1	Capacity	13	RC	2	0	23VC	1	0	0.617645025253	-266.0	-206.0	-265	-215	1
1.7	2015_Jul_20_1104	s	s	4	1	Capacity	14	ABS	2	0	24VC	0	1	2.09187889099	None	None	None	None	1
1.7	2015_Jul_20_1104	s	s	4	1	Capacity	15	RC	1	0	23MC	1	0	1.14110898972	219.0	-296.0	217	-297	1
1.7	2015_Jul_20_1104	s	s	4	1	Capacity	16	ABS	1	0	24MC	0	1	2.52483510971	None	None	None	None	1
1.7	2015_Jul_20_1104	s	s	4	1	Capacity	17	RC	1	0	23MC	1	0	0.894286155701	-45.0	-73.0	-44	-69	1
1.7	2015_Jul_20_1104	s	s	4	1	Capacity	18	RC	2	0	23VC	1	0	1.18604803085	481.0	-111.0	475	-120	1
1.7	2015_Jul_20_1104	s	s	4	1	Capacity	19	ABS	1	0	24MC	0	1	1.80031299591	None	None	None	None	1
1.7	2015_Jul_20_1104	s	s	4	1	Capacity	20	ABS	2	0	24VC	0	1	1.08261108398	None	None	None	None	1
1.7	2015_Jul_20_1104	s	s	4	1	Capacity	21	ABS	1	0	24MC	1	0	3.59646892548	None	None	150	-168	0
1.7	2015_Jul_20_1104	s	s	4	1	Capacity	22	RC	2	0	23VC	1	0	0.962594032288	145.0	-29.0	136	-28	1
1.7	2015_Jul_20_1104	s	s	4	1	Capacity	23	RC	1	0	23MC	1	0	1.35912919044	264.0	-341.0	258	-337	1
1.7	2015_Jul_20_1104	s	s	4	1	Capacity	24	ABS	2	0	24VC	0	1	0.835125923157	None	None	None	None	1
1.7	2015_Jul_20_1104	s	s	4	1	Capacity	25	ABS	2	0	24VC	0	1	1.25887989998	None	None	None	None	1
1.7	2015_Jul_20_1104	s	s	4	1	Capacity	26	ABS	1	0	24MC	0	1	0.950300931931	None	None	None	None	1
1.7	2015_Jul_20_1104	s	s	4	1	Capacity	27	RC	2	0	23VC	1	0	0.853342056274	-516.0	-27.0	-507	-26	1
1.7	2015_Jul_20_1104	s	s	4	1	Capacity	28	RC	1	0	23MC	1	0	1.11304497719	-46.0	201.0	-55	206	1
1.7	2015_Jul_20_1104	s	s	4	1	Capacity	29	ABS	1	0	24MC	0	1	2.06597018242	None	None	None	None	1
1.7	2015_Jul_20_1104	s	s	4	1	Capacity	30	RC	1	0	23MC	0	1	2.61247515678	-311.0	308.0	None	None	0
1.7	2015_Jul_20_1104	s	s	4	1	Capacity	31	ABS	2	0	24VC	0	1	1.01158809662	None	None	None	None	1
1.7	2015_Jul_20_1104	s	s	4	1	Capacity	32	RC	2	0	23VC	1	0	0.628856182098	29.0	355.0	39	355	1
1.7	2015_Jul_20_1104	s	s	4	1	Capacity	33	RC	1	0	23MC	1	0	1.80023503304	-27.0	258.0	-25	264	1
1.7	2015_Jul_20_1104	s	s	4	1	Capacity	34	ABS	1	0	24MC	0	1	1.37654900551	None	None	None	None	1
1.7	2015_Jul_20_1104	s	s	4	1	Capacity	35	ABS	2	0	24VC	0	1	0.764465808868	None	None	None	None	1
1.7	2015_Jul_20_1104	s	s	4	1	Capacity	36	RC	2	0	23VC	1	0	0.635046005249	-493.0	-392.0	-481	-389	1
1.7	2015_Jul_20_1104	s	s	4	1	Capacity	37	ABS	1	0	24MC	0	1	1.45091199875	None	None	None	None	1
1.7	2015_Jul_20_1104	s	s	4	1	Capacity	38	RC	1	0	23MC	0	1	1.11362099648	394.0	189.0	None	None	0
1.7	2015_Jul_20_1104	s	s	4	1	Capacity	39	RC	2	0	23VC	1	0	0.654019832611	-494.0	-74.0	-498	-66	1
1.7	2015_Jul_20_1104	s	s	4	1	Capacity	40	ABS	2	0	24VC	0	1	0.835033893585	None	None	None	None	1
1.7	2015_Jul_20_1104	s	s	4	1	Capacity	41	RC	2	0	23VC	1	0	0.712853908539	359.0	194.0	358	194	1
1.7	2015_Jul_20_1104	s	s	4	1	Capacity	42	ABS	1	0	24MC	0	1	1.05083608627	None	None	None	None	1
1.7	2015_Jul_20_1104	s	s	4	1	Capacity	43	ABS	2	0	24VC	0	1	0.891447067261	None	None	None	None	1
1.7	2015_Jul_20_1104	s	s	4	1	Capacity	44	RC	1	0	23MC	1	0	1.04319405556	280.0	-87.0	270	-88	1
1.7	2015_Jul_20_1104	s	s	4	1	Capacity	45	RC	2	0	23VC	1	0	1.18573880196	-310.0	99.0	-307	101	1
1.7	2015_Jul_20_1104	s	s	4	1	Capacity	46	RC	1	0	23MC	1	0	1.84378004074	346.0	-114.0	353	-112	1
1.7	2015_Jul_20_1104	s	s	4	1	Capacity	47	ABS	2	0	24VC	0	1	0.893960952759	None	None	None	None	1
1.7	2015_Jul_20_1104	s	s	4	1	Capacity	48	ABS	1	0	24MC	0	1	2.18879795074	None	None	None	None	1
1.7	2015_Jul_20_1104	s	s	4	1	Capacity	49	ABS	2	0	24VC	0	1	1.63228702545	None	None	None	None	1
1.7	2015_Jul_20_1104	s	s	4	1	Capacity	50	RC	2	0	23VC	1	0	0.60856795311	-7.0	225.0	-4	220	1
1.7	2015_Jul_20_1104	s	s	4	1	Capacity	51	ABS	1	0	24MC	0	1	1.96003293991	None	None	None	None	1
1.7	2015_Jul_20_1104	s	s	4	1	Capacity	52	RC	1	0	23MC	1	0	1.05654907227	507.0	-386.0	505	-380	1
1.7	2015_Jul_20_1104	s	s	4	1	Capacity	53	ABS	1	0	24MC	0	1	1.29412508011	None	None	None	None	1
1.7	2015_Jul_20_1104	s	s	4	1	Capacity	54	RC	2	0	23VC	1	0	0.703086137772	167.0	375.0	168	377	1
1.7	2015_Jul_20_1104	s	s	4	1	Capacity	55	RC	1	0	23MC	1	0	0.88215303421	34.0	-57.0	34	-66	1
1.7	2015_Jul_20_1104	s	s	4	1	Capacity	56	ABS	2	0	24VC	0	1	0.882202148438	None	None	None	None	1
1.7	2015_Jul_20_1104	s	s	4	1	Capacity	57	RC	2	0	23VC	1	0	0.658413171768	-290.0	-111.0	-289	-113	1
1.7	2015_Jul_20_1104	s	s	4	1	Capacity	58	RC	1	0	23MC	1	0	3.36102700233	-18.0	-401.0	-23	-402	1
1.7	2015_Jul_20_1104	s	s	4	1	Capacity	59	ABS	1	0	24MC	0	1	2.32996797562	None	None	None	None	1
1.7	2015_Jul_20_1104	s	s	4	1	Capacity	60	ABS	2	0	24VC	0	1	1.0588259697	None	None	None	None	1
1.7	2015_Jul_20_1104	s	s	4	1	Capacity	61	ABS	2	0	24VC	0	1	0.877004861832	None	None	None	None	1
1.7	2015_Jul_20_1104	s	s	4	1	Capacity	62	RC	2	0	23VC	1	0	0.925066947937	377.0	-217.0	370	-222	1
1.7	2015_Jul_20_1104	s	s	4	1	Capacity	63	RC	1	0	23MC	1	0	1.02138495445	-327.0	133.0	-341	138	1
1.7	2015_Jul_20_1104	s	s	4	1	Capacity	64	ABS	1	0	24MC	0	1	1.19502902031	None	None	None	None	1
1.7	2015_Jul_20_1104	s	s	4	1	Capacity	65	ABS	1	0	24MC	0	1	1.25887084007	None	None	None	None	1
1.7	2015_Jul_20_1104	s	s	4	1	Capacity	66	ABS	2	0	24VC	0	1	0.608936071396	None	None	None	None	1
1.7	2015_Jul_20_1104	s	s	4	1	Capacity	67	RC	1	0	23MC	1	0	0.964522123337	-235.0	-58.0	-223	-56	1
1.7	2015_Jul_20_1104	s	s	4	1	Capacity	68	RC	2	0	23VC	1	0	0.670341968536	-538.0	208.0	-537	191	1
1.7	2015_Jul_20_1104	s	s	4	1	Capacity	69	RC	1	0	23MC	1	0	0.929234027863	-81.0	-35.0	-78	-35	1
1.7	2015_Jul_20_1104	s	s	4	1	Capacity	70	ABS	2	0	24VC	0	1	0.808787822723	None	None	None	None	1
1.7	2015_Jul_20_1104	s	s	4	1	Capacity	71	RC	2	0	23VC	1	0	0.72495007515	-381.0	-389.0	-375	-388	1
1.7	2015_Jul_20_1104	s	s	4	1	Capacity	72	ABS	1	0	24MC	0	1	1.11751294136	None	None	None	None	1
1.7	2015_Jul_20_1104	s	s	4	1	Capacity	73	ABS	2	0	24VC	0	1	0.8434009552	None	None	None	None	1
1.7	2015_Jul_20_1104	s	s	4	1	Capacity	74	RC	2	0	23VC	1	0	0.595873117447	67.0	-334.0	71	-332	1
1.7	2015_Jul_20_1104	s	s	4	1	Capacity	75	ABS	1	0	24MC	0	1	1.31768798828	None	None	None	None	1
1.7	2015_Jul_20_1104	s	s	4	1	Capacity	76	RC	1	0	23MC	0	1	0.958664178848	219.0	27.0	None	None	0
1.7	2015_Jul_20_1104	s	s	4	1	Capacity	77	RC	2	0	23VC	1	0	0.619179010391	-178.0	-338.0	-184	-339	1
1.7	2015_Jul_20_1104	s	s	4	1	Capacity	78	ABS	2	0	24VC	0	1	0.92570400238	None	None	None	None	1
1.7	2015_Jul_20_1104	s	s	4	1	Capacity	79	ABS	1	0	24MC	0	1	0.809309005737	None	None	None	None	1
1.7	2015_Jul_20_1104	s	s	4	1	Capacity	80	RC	1	0	23MC	1	0	1.39521598816	-333.0	395.0	-324	395	1
1.7	2015_Jul_20_1104	s	s	4	1	Capacity	81	ABS	1	0	24MC	0	1	1.39378285408	None	None	None	None	1
1.7	2015_Jul_20_1104	s	s	4	1	Capacity	82	ABS	2	0	24VC	0	1	0.524618148804	None	None	None	None	1
1.7	2015_Jul_20_1104	s	s	4	1	Capacity	83	RC	2	0	23VC	1	0	0.552487134933	-391.0	285.0	-385	292	1
1.7	2015_Jul_20_1104	s	s	4	1	Capacity	84	RC	1	0	23MC	1	0	0.976369857788	-535.0	-11.0	-527	-2	1
1.7	2015_Jul_20_1104	s	s	4	1	Capacity	85	ABS	2	0	24VC	0	1	0.616770029068	None	None	None	None	1
1.7	2015_Jul_20_1104	s	s	4	1	Capacity	86	ABS	1	0	24MC	0	1	1.78315591812	None	None	None	None	1
1.7	2015_Jul_20_1104	s	s	4	1	Capacity	87	RC	2	0	23VC	1	0	0.724578857422	-251.0	-93.0	-252	-100	1
1.7	2015_Jul_20_1104	s	s	4	1	Capacity	88	RC	1	0	23MC	1	0	1.14115905762	-506.0	-5.0	-506	-3	1
1.7	2015_Jul_20_1104	s	s	4	1	Capacity	89	ABS	2	0	24VC	0	1	0.505374908447	None	None	None	None	1
1.7	2015_Jul_20_1104	s	s	4	1	Capacity	90	RC	1	0	23MC	1	0	0.72639799118	45.0	14.0	47	9	1
1.7	2015_Jul_20_1104	s	s	4	1	Capacity	91	ABS	1	0	24MC	0	1	1.24495100975	None	None	None	None	1
1.7	2015_Jul_20_1104	s	s	4	1	Capacity	92	RC	2	0	23VC	1	0	0.644321918488	378.0	-264.0	384	-265	1
1.7	2015_Jul_20_1104	s	s	4	1	SIC	1	RC	0	2	23RD	1	0	0.783859968185	-492.0	-320.0	-483	-311	1
1.7	2015_Jul_20_1104	s	s	4	1	SIC	2	RC	2	1	23VO	1	0	0.620777845383	312.0	210.0	318	210	1
1.7	2015_Jul_20_1104	s	s	4	1	SIC	3	ABS	0	2	24RD	0	1	1.47113704681	None	None	None	None	1
1.7	2015_Jul_20_1104	s	s	4	1	SIC	4	RC	2	0	23VC	1	0	0.735582113266	310.0	-372.0	306	-378	1
1.7	2015_Jul_20_1104	s	s	4	1	SIC	5	RC	1	0	23MC	0	1	1.19558000565	-97.0	305.0	None	None	0
1.7	2015_Jul_20_1104	s	s	4	1	SIC	6	ABS	2	2	24VD	1	0	0.655187129974	None	None	288	-161	0
1.7	2015_Jul_20_1104	s	s	4	1	SIC	7	ABS	1	2	24MD	0	1	0.81706404686	None	None	None	None	1
1.7	2015_Jul_20_1104	s	s	4	1	SIC	8	ABS	1	1	24MO	0	1	2.01215600967	None	None	None	None	1
1.7	2015_Jul_20_1104	s	s	4	1	SIC	9	ABS	0	1	24RO	0	1	1.50603914261	None	None	None	None	1
1.7	2015_Jul_20_1104	s	s	4	1	SIC	10	RC	1	2	23MD	1	0	0.634885072708	-191.0	-57.0	-188	-57	1
1.7	2015_Jul_20_1104	s	s	4	1	SIC	11	RC	1	1	23MO	1	0	2.91847395897	455.0	-213.0	450	-208	1
1.7	2015_Jul_20_1104	s	s	4	1	SIC	12	RC	2	2	23VD	1	0	1.48768806458	399.0	-64.0	404	-62	1
1.7	2015_Jul_20_1104	s	s	4	1	SIC	13	ABS	2	0	24VC	0	1	0.843209028244	None	None	None	None	1
1.7	2015_Jul_20_1104	s	s	4	1	SIC	14	ABS	1	0	24MC	0	1	1.2642788887	None	None	None	None	1
1.7	2015_Jul_20_1104	s	s	4	1	SIC	15	ABS	2	1	24VO	0	1	0.950130939484	None	None	None	None	1
1.7	2015_Jul_20_1104	s	s	4	1	SIC	16	RC	0	1	23RO	0	1	1.22352695465	452.0	-315.0	None	None	0
1.7	2015_Jul_20_1104	s	s	4	1	SIC	17	ABS	1	0	24MC	0	1	1.2789440155	None	None	None	None	1
1.7	2015_Jul_20_1104	s	s	4	1	SIC	18	ABS	0	1	24RO	0	1	2.6360039711	None	None	None	None	1
1.7	2015_Jul_20_1104	s	s	4	1	SIC	19	RC	1	0	23MC	1	0	0.740930080414	-23.0	129.0	-27	126	1
1.7	2015_Jul_20_1104	s	s	4	1	SIC	20	RC	0	2	23RD	1	0	1.16058802605	430.0	348.0	439	348	1
1.7	2015_Jul_20_1104	s	s	4	1	SIC	21	ABS	1	2	24MD	0	1	0.97132897377	None	None	None	None	1
1.7	2015_Jul_20_1104	s	s	4	1	SIC	22	RC	2	2	23VD	1	0	0.583581924438	-376.0	-208.0	-372	-208	1
1.7	2015_Jul_20_1104	s	s	4	1	SIC	23	RC	2	1	23VO	1	0	0.599727153778	-155.0	406.0	-160	407	1
1.7	2015_Jul_20_1104	s	s	4	1	SIC	24	ABS	0	2	24RD	0	1	0.72927904129	None	None	None	None	1
1.7	2015_Jul_20_1104	s	s	4	1	SIC	25	ABS	1	1	24MO	0	1	1.32940196991	None	None	None	None	1
1.7	2015_Jul_20_1104	s	s	4	1	SIC	26	ABS	2	1	24VO	0	1	0.740931034088	None	None	None	None	1
1.7	2015_Jul_20_1104	s	s	4	1	SIC	27	RC	1	2	23MD	1	0	0.573814153671	-316.0	364.0	-316	359	1
1.7	2015_Jul_20_1104	s	s	4	1	SIC	28	RC	0	1	23RO	0	1	2.41899895668	-295.0	-360.0	None	None	0
1.7	2015_Jul_20_1104	s	s	4	1	SIC	29	RC	1	1	23MO	1	0	1.22356390953	275.0	-145.0	273	-151	1
1.7	2015_Jul_20_1104	s	s	4	1	SIC	30	RC	2	0	23VC	1	0	0.689146995544	504.0	-332.0	515	-323	1
1.7	2015_Jul_20_1104	s	s	4	1	SIC	31	ABS	2	2	24VD	0	1	0.893836975098	None	None	None	None	1
1.7	2015_Jul_20_1104	s	s	4	1	SIC	32	ABS	2	0	24VC	0	1	0.0699348449707	None	None	None	None	1
1.7	2015_Jul_20_1104	s	s	4	1	SIC	33	ABS	1	0	24MC	0	1	1.25883388519	None	None	None	None	1
1.7	2015_Jul_20_1104	s	s	4	1	SIC	34	ABS	2	1	24VO	0	1	1.55302810669	None	None	None	None	1
1.7	2015_Jul_20_1104	s	s	4	1	SIC	35	ABS	1	2	24MD	0	1	1.23108911514	None	None	None	None	1
1.7	2015_Jul_20_1104	s	s	4	1	SIC	36	RC	2	2	23VD	1	0	0.564374923706	-300.0	-275.0	-295	-277	1
1.7	2015_Jul_20_1104	s	s	4	1	SIC	37	ABS	2	2	24VD	0	1	0.83247590065	None	None	None	None	1
1.7	2015_Jul_20_1104	s	s	4	1	SIC	38	ABS	2	0	24VC	0	1	0.75959610939	None	None	None	None	1
1.7	2015_Jul_20_1104	s	s	4	1	SIC	39	RC	2	1	23VO	1	0	0.557798862457	-420.0	320.0	-418	318	1
1.7	2015_Jul_20_1104	s	s	4	1	SIC	40	RC	0	1	23RO	1	0	2.19828104973	241.0	8.0	244	6	1
1.7	2015_Jul_20_1104	s	s	4	1	SIC	41	ABS	0	2	24RD	0	1	1.18278813362	None	None	None	None	1
1.7	2015_Jul_20_1104	s	s	4	1	SIC	42	RC	1	1	23MO	1	0	2.6896648407	111.0	389.0	115	387	1
1.7	2015_Jul_20_1104	s	s	4	1	SIC	43	RC	1	0	23MC	1	0	0.646660089493	-97.0	321.0	-98	322	1
1.7	2015_Jul_20_1104	s	s	4	1	SIC	44	RC	1	2	23MD	1	0	0.701011896133	388.0	59.0	387	53	1
1.7	2015_Jul_20_1104	s	s	4	1	SIC	45	RC	0	2	23RD	1	0	0.8208360672	-540.0	97.0	-545	104	1
1.7	2015_Jul_20_1104	s	s	4	1	SIC	46	ABS	1	1	24MO	0	1	2.91461110115	None	None	None	None	1
1.7	2015_Jul_20_1104	s	s	4	1	SIC	47	RC	2	0	23VC	1	0	0.512380123138	-342.0	-173.0	-331	-166	1
1.7	2015_Jul_20_1104	s	s	4	1	SIC	48	ABS	0	1	24RO	0	1	3.84833478928	None	None	None	None	1
1.7	2015_Jul_20_1104	s	s	4	1	SIC	49	ABS	1	0	24MC	0	1	2.03570199013	None	None	None	None	1
1.7	2015_Jul_20_1104	s	s	4	1	SIC	50	RC	1	1	23MO	1	0	1.30343103409	-115.0	-159.0	-119	-168	1
1.7	2015_Jul_20_1104	s	s	4	1	SIC	51	RC	2	1	23VO	1	0	1.6002471447	469.0	254.0	477	261	1
1.7	2015_Jul_20_1104	s	s	4	1	SIC	52	ABS	1	1	24MO	0	1	1.94150519371	None	None	None	None	1
1.7	2015_Jul_20_1104	s	s	4	1	SIC	53	RC	2	0	23VC	1	0	0.765034914017	-334.0	-367.0	-331	-365	1
1.7	2015_Jul_20_1104	s	s	4	1	SIC	54	RC	2	2	23VD	1	0	0.552594184875	-215.0	-269.0	-211	-276	1
1.7	2015_Jul_20_1104	s	s	4	1	SIC	55	ABS	2	0	24VC	0	1	0.7761759758	None	None	None	None	1
1.7	2015_Jul_20_1104	s	s	4	1	SIC	56	RC	0	2	23RD	1	0	0.717281103134	-68.0	-288.0	-64	-294	1
1.7	2015_Jul_20_1104	s	s	4	1	SIC	57	ABS	2	2	24VD	0	1	0.646703004837	None	None	None	None	1
1.7	2015_Jul_20_1104	s	s	4	1	SIC	58	ABS	0	2	24RD	0	1	2.80076003075	None	None	None	None	1
1.7	2015_Jul_20_1104	s	s	4	1	SIC	59	RC	0	1	23RO	1	0	2.50658607483	-197.0	45.0	-203	47	1
1.7	2015_Jul_20_1104	s	s	4	1	SIC	60	RC	1	2	23MD	1	0	1.03889799118	-310.0	220.0	-312	218	1
1.7	2015_Jul_20_1104	s	s	4	1	SIC	61	RC	1	0	23MC	1	0	1.53695201874	-124.0	-368.0	-123	-375	1
1.7	2015_Jul_20_1104	s	s	4	1	SIC	62	ABS	2	1	24VO	0	1	0.523480892181	None	None	None	None	1
1.7	2015_Jul_20_1104	s	s	4	1	SIC	63	ABS	0	1	24RO	0	1	3.17759394646	None	None	None	None	1
1.7	2015_Jul_20_1104	s	s	4	1	SIC	64	ABS	1	2	24MD	0	1	0.929152965546	None	None	None	None	1
1.7	2015_Jul_20_1104	s	s	4	1	SIC	65	RC	2	1	23VO	1	0	0.561737060547	-400.0	330.0	-393	334	1
1.7	2015_Jul_20_1104	s	s	4	1	SIC	66	ABS	1	0	24MC	0	1	1.17144393921	None	None	None	None	1
1.7	2015_Jul_20_1104	s	s	4	1	SIC	67	RC	1	1	23MO	1	0	1.00802111626	-370.0	231.0	-363	240	1
1.7	2015_Jul_20_1104	s	s	4	1	SIC	68	ABS	0	2	24RD	0	1	0.98813700676	None	None	None	None	1
1.7	2015_Jul_20_1104	s	s	4	1	SIC	69	ABS	1	2	24MD	0	1	1.55696797371	None	None	None	None	1
1.7	2015_Jul_20_1104	s	s	4	1	SIC	70	RC	2	2	23VD	1	0	0.585232973099	-123.0	-298.0	-132	-296	1
1.7	2015_Jul_20_1104	s	s	4	1	SIC	71	RC	0	1	23RO	1	0	3.73049712181	-329.0	369.0	-338	366	1
1.7	2015_Jul_20_1104	s	s	4	1	SIC	72	RC	0	2	23RD	1	0	0.964502811432	-252.0	-266.0	-261	-260	1
1.7	2015_Jul_20_1104	s	s	4	1	SIC	73	ABS	0	1	24RO	0	1	4.4571750164	None	None	None	None	1
1.7	2015_Jul_20_1104	s	s	4	1	SIC	74	ABS	2	2	24VD	0	1	0.870351076126	None	None	None	None	1
1.7	2015_Jul_20_1104	s	s	4	1	SIC	75	RC	2	0	23VC	1	0	0.656152009964	223.0	-330.0	212	-327	1
1.7	2015_Jul_20_1104	s	s	4	1	SIC	76	RC	1	0	23MC	1	0	1.79482913017	287.0	353.0	297	351	1
1.7	2015_Jul_20_1104	s	s	4	1	SIC	77	RC	1	2	23MD	1	0	0.962085008621	467.0	-201.0	481	-193	1
1.7	2015_Jul_20_1104	s	s	4	1	SIC	78	ABS	2	0	24VC	0	1	0.776226997375	None	None	None	None	1
1.7	2015_Jul_20_1104	s	s	4	1	SIC	79	ABS	2	1	24VO	0	1	0.632134914398	None	None	None	None	1
1.7	2015_Jul_20_1104	s	s	4	1	SIC	80	ABS	1	1	24MO	0	1	1.32449698448	None	None	None	None	1
1.7	2015_Jul_20_1104	s	s	4	1	SIC	81	ABS	2	1	24VO	0	1	1.45915222168	None	None	None	None	1
1.7	2015_Jul_20_1104	s	s	4	1	SIC	82	ABS	2	2	24VD	0	1	0.41135597229	None	None	None	None	1
1.7	2015_Jul_20_1104	s	s	4	1	SIC	83	RC	2	0	23VC	1	0	0.929330825806	142.0	-167.0	147	-170	1
1.7	2015_Jul_20_1104	s	s	4	1	SIC	84	RC	1	2	23MD	1	0	0.643798112869	-37.0	152.0	-29	156	1
1.7	2015_Jul_20_1104	s	s	4	1	SIC	85	ABS	0	1	24RO	0	1	2.81995010376	None	None	None	None	1
1.7	2015_Jul_20_1104	s	s	4	1	SIC	86	ABS	1	0	24MC	0	1	2.21225094795	None	None	None	None	1
1.7	2015_Jul_20_1104	s	s	4	1	SIC	87	ABS	0	2	24RD	0	1	1.48247408867	None	None	None	None	1
1.7	2015_Jul_20_1104	s	s	4	1	SIC	88	RC	2	2	23VD	1	0	0.879903078079	464.0	159.0	469	165	1
1.7	2015_Jul_20_1104	s	s	4	1	SIC	89	ABS	2	0	24VC	0	1	0.597570896149	None	None	None	None	1
1.7	2015_Jul_20_1104	s	s	4	1	SIC	90	ABS	1	1	24MO	0	1	1.2353079319	None	None	None	None	1
1.7	2015_Jul_20_1104	s	s	4	1	SIC	91	RC	1	1	23MO	1	0	1.1598238945	527.0	-370.0	533	-372	1
1.7	2015_Jul_20_1104	s	s	4	1	SIC	92	RC	2	1	23VO	1	0	0.691550016403	347.0	-236.0	345	-242	1
1.7	2015_Jul_20_1104	s	s	4	1	SIC	93	RC	1	0	23MC	1	0	1.18253087997	155.0	-209.0	160	-211	1
1.7	2015_Jul_20_1104	s	s	4	1	SIC	94	ABS	1	2	24MD	0	1	1.37661385536	None	None	None	None	1
1.7	2015_Jul_20_1104	s	s	4	1	SIC	95	RC	0	2	23RD	1	0	0.988106012344	317.0	-326.0	318	-330	1
1.7	2015_Jul_20_1104	s	s	4	1	SIC	96	RC	0	1	23RO	1	0	0.807853937149	253.0	-11.0	257	-5	1
1.7	2015_Jul_20_1104	s	s	4	1	SIC	97	RC	1	2	23MD	1	0	0.926733016968	-182.0	325.0	-182	310	1
1.7	2015_Jul_20_1104	s	s	4	1	SIC	98	RC	1	1	23MO	1	0	0.973163843155	136.0	143.0	147	152	1
1.7	2015_Jul_20_1104	s	s	4	1	SIC	99	ABS	2	2	24VD	0	1	0.782966852188	None	None	None	None	1
1.7	2015_Jul_20_1104	s	s	4	1	SIC	100	ABS	2	0	24VC	0	1	0.733856916428	None	None	None	None	1
1.7	2015_Jul_20_1104	s	s	4	1	SIC	101	ABS	0	2	24RD	0	1	1.97678303719	None	None	None	None	1
1.7	2015_Jul_20_1104	s	s	4	1	SIC	102	RC	2	0	23VC	1	0	0.678889036179	-414.0	369.0	-414	368	1
1.7	2015_Jul_20_1104	s	s	4	1	SIC	103	RC	1	0	23MC	1	0	1.86743116379	-365.0	204.0	-362	197	1
1.7	2015_Jul_20_1104	s	s	4	1	SIC	104	ABS	0	1	24RO	0	1	2.46792292595	None	None	None	None	1
1.7	2015_Jul_20_1104	s	s	4	1	SIC	105	RC	0	2	23RD	1	0	0.729202032089	-459.0	370.0	-458	372	1
1.7	2015_Jul_20_1104	s	s	4	1	SIC	106	RC	2	1	23VO	1	0	1.01852583885	-458.0	-387.0	-450	-380	1
1.7	2015_Jul_20_1104	s	s	4	1	SIC	107	ABS	1	2	24MD	0	1	1.08228611946	None	None	None	None	1
1.7	2015_Jul_20_1104	s	s	4	1	SIC	108	RC	2	2	23VD	1	0	0.512114048004	133.0	262.0	138	262	1
1.7	2015_Jul_20_1104	s	s	4	1	SIC	109	ABS	1	1	24MO	0	1	1.37660598755	None	None	None	None	1
1.7	2015_Jul_20_1104	s	s	4	1	SIC	110	ABS	2	1	24VO	0	1	0.78524017334	None	None	None	None	1
1.7	2015_Jul_20_1104	s	s	4	1	SIC	111	RC	0	1	23RO	1	0	1.27676105499	464.0	244.0	466	245	1
1.7	2015_Jul_20_1104	s	s	4	1	SIC	112	ABS	1	0	24MC	0	1	1.23535299301	None	None	None	None	1
1.7	2015_Jul_20_1104	s	s	4	1	SIC	113	RC	1	0	23MC	1	0	1.20081520081	-371.0	-273.0	-368	-270	1
1.7	2015_Jul_20_1104	s	s	4	1	SIC	114	ABS	2	0	24VC	0	1	0.917562961578	None	None	None	None	1
1.7	2015_Jul_20_1104	s	s	4	1	SIC	115	RC	0	1	23RO	0	1	5.50323104858	-273.0	-222.0	None	None	0
1.7	2015_Jul_20_1104	s	s	4	1	SIC	116	RC	1	1	23MO	1	0	1.1234099865	124.0	-186.0	127	-180	1
1.7	2015_Jul_20_1104	s	s	4	1	SIC	117	ABS	2	2	24VD	0	1	0.936244010925	None	None	None	None	1
1.7	2015_Jul_20_1104	s	s	4	1	SIC	118	ABS	0	1	24RO	0	1	5.88469004631	None	None	None	None	1
1.7	2015_Jul_20_1104	s	s	4	1	SIC	119	RC	1	2	23MD	1	0	0.73818898201	-153.0	-194.0	-148	-187	1
1.7	2015_Jul_20_1104	s	s	4	1	SIC	120	RC	0	2	23RD	1	0	1.62375593185	-47.0	-82.0	-44	-73	1
1.7	2015_Jul_20_1104	s	s	4	1	SIC	121	ABS	1	2	24MD	0	1	1.01927089691	None	None	None	None	1
1.7	2015_Jul_20_1104	s	s	4	1	SIC	122	ABS	1	0	24MC	0	1	2.21905183792	None	None	None	None	1
1.7	2015_Jul_20_1104	s	s	4	1	SIC	123	RC	2	1	23VO	1	0	0.623281955719	270.0	-178.0	262	-175	1
1.7	2015_Jul_20_1104	s	s	4	1	SIC	124	ABS	0	2	24RD	0	1	3.17746496201	None	None	None	None	1
1.7	2015_Jul_20_1104	s	s	4	1	SIC	125	RC	2	2	23VD	1	0	0.656035900116	-461.0	396.0	-461	399	1
1.7	2015_Jul_20_1104	s	s	4	1	SIC	126	ABS	1	1	24MO	0	1	2.00084900856	None	None	None	None	1
1.7	2015_Jul_20_1104	s	s	4	1	SIC	127	RC	2	0	23VC	1	0	0.675960063934	268.0	344.0	266	352	1
1.7	2015_Jul_20_1104	s	s	4	1	SIC	128	ABS	2	1	24VO	0	1	0.629871845245	None	None	None	None	1
1.7	2015_Jul_20_1104	s	s	4	1	SIC	129	RC	0	2	23RD	1	0	0.703094959259	131.0	12.0	130	6	1
1.7	2015_Jul_20_1104	s	s	4	1	SIC	130	RC	2	0	23VC	1	0	0.552670955658	-162.0	53.0	-163	49	1
1.7	2015_Jul_20_1104	s	s	4	1	SIC	131	RC	0	1	23RO	1	0	2.2065680027	282.0	-114.0	281	-120	1
1.7	2015_Jul_20_1104	s	s	4	1	SIC	132	ABS	0	1	24RO	0	1	2.41969299316	None	None	None	None	1
1.7	2015_Jul_20_1104	s	s	4	1	SIC	133	RC	2	1	23VO	1	0	0.587790966034	49.0	24.0	60	33	1
1.7	2015_Jul_20_1104	s	s	4	1	SIC	134	ABS	1	0	24MC	0	1	0.962338209152	None	None	None	None	1
1.7	2015_Jul_20_1104	s	s	4	1	SIC	135	RC	1	2	23MD	1	0	0.609136104584	-268.0	391.0	-267	392	1
1.7	2015_Jul_20_1104	s	s	4	1	SIC	136	ABS	2	1	24VO	0	1	0.823245048523	None	None	None	None	1
1.7	2015_Jul_20_1104	s	s	4	1	SIC	137	ABS	2	2	24VD	0	1	0.706060886383	None	None	None	None	1
1.7	2015_Jul_20_1104	s	s	4	1	SIC	138	ABS	0	2	24RD	0	1	0.914899110794	None	None	None	None	1
1.7	2015_Jul_20_1104	s	s	4	1	SIC	139	RC	2	2	23VD	1	0	0.552422046661	118.0	132.0	121	133	1
1.7	2015_Jul_20_1104	s	s	4	1	SIC	140	RC	1	1	23MO	1	0	1.10130310059	205.0	-286.0	214	-287	1
1.7	2015_Jul_20_1104	s	s	4	1	SIC	141	ABS	1	2	24MD	1	0	1.46594691277	None	None	0	15	0
1.7	2015_Jul_20_1104	s	s	4	1	SIC	142	ABS	2	0	24VC	0	1	0.858611106873	None	None	None	None	1
1.7	2015_Jul_20_1104	s	s	4	1	SIC	143	RC	1	0	23MC	1	0	0.827204942703	-118.0	255.0	-123	250	1
1.7	2015_Jul_20_1104	s	s	4	1	SIC	144	ABS	1	1	24MO	0	1	1.56018280983	None	None	None	None	1
1.7	2015_Jul_20_1104	s	s	4	1	SIC	145	ABS	2	2	24VD	0	1	0.618255138397	None	None	None	None	1
1.7	2015_Jul_20_1104	s	s	4	1	SIC	146	RC	2	2	23VD	1	0	1.09013795853	314.0	23.0	318	27	1
1.7	2015_Jul_20_1104	s	s	4	1	SIC	147	ABS	0	1	24RO	0	1	4.05749607086	None	None	None	None	1
1.7	2015_Jul_20_1104	s	s	4	1	SIC	148	ABS	2	1	24VO	0	1	0.7173640728	None	None	None	None	1
1.7	2015_Jul_20_1104	s	s	4	1	SIC	149	RC	2	0	23VC	1	0	0.646795034409	239.0	342.0	242	338	1
1.7	2015_Jul_20_1104	s	s	4	1	SIC	150	RC	1	1	23MO	1	0	0.867735147476	144.0	-286.0	149	-277	1
1.7	2015_Jul_20_1104	s	s	4	1	SIC	151	ABS	0	2	24RD	0	1	0.764507055283	None	None	None	None	1
1.7	2015_Jul_20_1104	s	s	4	1	SIC	152	RC	1	2	23MD	1	0	0.57613992691	-7.0	356.0	-12	354	1
1.7	2015_Jul_20_1104	s	s	4	1	SIC	153	RC	1	0	23MC	1	0	1.45890712738	276.0	-104.0	283	-107	1
1.7	2015_Jul_20_1104	s	s	4	1	SIC	154	ABS	1	1	24MO	0	1	1.29405593872	None	None	None	None	1
1.7	2015_Jul_20_1104	s	s	4	1	SIC	155	ABS	1	2	24MD	0	1	1.10194802284	None	None	None	None	1
1.7	2015_Jul_20_1104	s	s	4	1	SIC	156	ABS	1	0	24MC	0	1	1.38375592232	None	None	None	None	1
1.7	2015_Jul_20_1104	s	s	4	1	SIC	157	RC	0	1	23RO	1	0	1.08943510056	-188.0	35.0	-175	42	1
1.7	2015_Jul_20_1104	s	s	4	1	SIC	158	RC	2	1	23VO	1	0	0.62312412262	445.0	-220.0	450	-216	1
1.7	2015_Jul_20_1104	s	s	4	1	SIC	159	RC	0	2	23RD	1	0	0.607835054398	187.0	-182.0	189	-183	1
1.7	2015_Jul_20_1104	s	s	4	1	SIC	160	ABS	2	0	24VC	0	1	0.929254055023	None	None	None	None	1
1.7	2015_Jul_20_1104	s	s	4	1	SIC	161	ABS	0	2	24RD	0	1	1.18540501595	None	None	None	None	1
1.7	2015_Jul_20_1104	s	s	4	1	SIC	162	RC	1	0	23MC	1	0	1.2087430954	-400.0	-31.0	-403	-26	1
1.7	2015_Jul_20_1104	s	s	4	1	SIC	163	ABS	1	0	24MC	0	1	2.3534579277	None	None	None	None	1
1.7	2015_Jul_20_1104	s	s	4	1	SIC	164	ABS	2	1	24VO	0	1	0.665472984314	None	None	None	None	1
1.7	2015_Jul_20_1104	s	s	4	1	SIC	165	RC	2	0	23VC	1	0	0.752676963806	-322.0	32.0	-327	22	1
1.7	2015_Jul_20_1104	s	s	4	1	SIC	166	ABS	1	2	24MD	0	1	0.858604192734	None	None	None	None	1
1.7	2015_Jul_20_1104	s	s	4	1	SIC	167	RC	2	1	23VO	1	0	0.593902111053	392.0	-321.0	388	-316	1
1.7	2015_Jul_20_1104	s	s	4	1	SIC	168	ABS	2	0	24VC	0	1	0.915149927139	None	None	None	None	1
1.7	2015_Jul_20_1104	s	s	4	1	SIC	169	RC	1	2	23MD	1	0	0.559299945831	-449.0	43.0	-451	45	1
1.7	2015_Jul_20_1104	s	s	4	1	SIC	170	RC	2	2	23VD	1	0	0.533935785294	-390.0	-96.0	-396	-94	1
1.7	2015_Jul_20_1104	s	s	4	1	SIC	171	RC	0	1	23RO	0	1	1.49428391457	366.0	-196.0	None	None	0
1.7	2015_Jul_20_1104	s	s	4	1	SIC	172	ABS	0	1	24RO	0	1	2.76235699654	None	None	None	None	1
1.7	2015_Jul_20_1104	s	s	4	1	SIC	173	ABS	2	2	24VD	0	1	0.623205184937	None	None	None	None	1
1.7	2015_Jul_20_1104	s	s	4	1	SIC	174	ABS	1	1	24MO	0	1	1.05662488937	None	None	None	None	1
1.7	2015_Jul_20_1104	s	s	4	1	SIC	175	RC	1	1	23MO	0	1	1.16473579407	399.0	392.0	None	None	0
1.7	2015_Jul_20_1104	s	s	4	1	SIC	176	RC	0	2	23RD	1	0	0.773308992386	101.0	198.0	112	199	1
1.7	2015_Jul_20_1104	s	s	4	1	SIC	177	ABS	2	0	24VC	0	1	0.794190168381	None	None	None	None	1
1.7	2015_Jul_20_1104	s	s	4	1	SIC	178	RC	1	1	23MO	0	1	0.587918996811	145.0	-213.0	None	None	0
1.7	2015_Jul_20_1104	s	s	4	1	SIC	179	RC	2	0	23VC	0	1	0.691440820694	-468.0	232.0	None	None	0
1.7	2015_Jul_20_1104	s	s	4	1	SIC	180	ABS	1	1	24MO	0	1	0.634984970093	None	None	None	None	1
1.7	2015_Jul_20_1104	s	s	4	1	SIC	181	RC	0	2	23RD	1	0	0.55295085907	-91.0	190.0	-101	199	1
1.7	2015_Jul_20_1104	s	s	4	1	SIC	182	ABS	1	0	24MC	0	1	0.842180013657	None	None	None	None	1
1.7	2015_Jul_20_1104	s	s	4	1	SIC	183	RC	0	1	23RO	1	0	3.0322830677	-323.0	-243.0	-321	-242	1
1.7	2015_Jul_20_1104	s	s	4	1	SIC	184	ABS	2	2	24VD	0	1	0.679527997971	None	None	None	None	1
1.7	2015_Jul_20_1104	s	s	4	1	SIC	185	ABS	0	1	24RO	0	1	3.27535510063	None	None	None	None	1
1.7	2015_Jul_20_1104	s	s	4	1	SIC	186	RC	2	1	23VO	1	0	0.593098163605	-387.0	-294.0	-390	-295	1
1.7	2015_Jul_20_1104	s	s	4	1	SIC	187	ABS	2	1	24VO	0	1	0.834933042526	None	None	None	None	1
1.7	2015_Jul_20_1104	s	s	4	1	SIC	188	ABS	0	2	24RD	0	1	0.877081871033	None	None	None	None	1
1.7	2015_Jul_20_1104	s	s	4	1	SIC	189	ABS	1	2	24MD	0	1	0.67863702774	None	None	None	None	1
1.7	2015_Jul_20_1104	s	s	4	1	SIC	190	RC	2	2	23VD	1	0	0.788008928299	-268.0	198.0	-271	198	1
1.7	2015_Jul_20_1104	s	s	4	1	SIC	191	RC	1	0	23MC	1	0	1.97193598747	441.0	-66.0	436	-68	1
1.7	2015_Jul_20_1104	s	s	4	1	SIC	192	RC	1	2	23MD	1	0	0.535790205002	-235.0	88.0	-243	95	1
1.7	2015_Jul_20_1104	s	s	4	1	SIC	193	RC	2	2	23VD	1	0	0.552538156509	34.0	-176.0	39	-178	1
1.7	2015_Jul_20_1104	s	s	4	1	SIC	194	ABS	0	1	24RO	0	1	1.97442007065	None	None	None	None	1
1.7	2015_Jul_20_1104	s	s	4	1	SIC	195	ABS	2	0	24VC	0	1	0.875874996185	None	None	None	None	1
1.7	2015_Jul_20_1104	s	s	4	1	SIC	196	RC	2	1	23VO	1	0	0.634839057922	166.0	-404.0	168	-407	1
1.7	2015_Jul_20_1104	s	s	4	1	SIC	197	RC	0	1	23RO	0	1	2.93026995659	30.0	-364.0	None	None	0
1.7	2015_Jul_20_1104	s	s	4	1	SIC	198	ABS	0	2	24RD	0	1	1.39456510544	None	None	None	None	1
1.7	2015_Jul_20_1104	s	s	4	1	SIC	199	ABS	2	1	24VO	0	1	0.540778875351	None	None	None	None	1
1.7	2015_Jul_20_1104	s	s	4	1	SIC	200	RC	2	0	23VC	1	0	0.634855031967	-102.0	347.0	-96	348	1
1.7	2015_Jul_20_1104	s	s	4	1	SIC	201	RC	1	0	23MC	1	0	1.15293288231	503.0	-174.0	502	-170	1
1.7	2015_Jul_20_1104	s	s	4	1	SIC	202	ABS	1	1	24MO	0	1	0.976274013519	None	None	None	None	1
1.7	2015_Jul_20_1104	s	s	4	1	SIC	203	ABS	2	2	24VD	0	1	0.629576206207	None	None	None	None	1
1.7	2015_Jul_20_1104	s	s	4	1	SIC	204	RC	0	2	23RD	1	0	0.540853977203	219.0	-41.0	207	-36	1
1.7	2015_Jul_20_1104	s	s	4	1	SIC	205	RC	1	2	23MD	1	0	0.597102165222	354.0	231.0	347	233	1
1.7	2015_Jul_20_1104	s	s	4	1	SIC	206	ABS	1	2	24MD	0	1	0.935629844666	None	None	None	None	1
1.7	2015_Jul_20_1104	s	s	4	1	SIC	207	ABS	1	0	24MC	0	1	1.36233401299	None	None	None	None	1
1.7	2015_Jul_20_1104	s	s	4	1	SIC	208	RC	1	1	23MO	1	0	0.805065870285	-469.0	314.0	-461	313	1
1.7	2015_Jul_20_1104	s	s	4	1	SIC	209	ABS	1	0	24MC	0	1	1.47066307068	None	None	None	None	1
1.7	2015_Jul_20_1104	s	s	4	1	SIC	210	ABS	1	2	24MD	0	1	0.996620893478	None	None	None	None	1
1.7	2015_Jul_20_1104	s	s	4	1	SIC	211	ABS	2	1	24VO	0	1	0.841987133026	None	None	None	None	1
1.7	2015_Jul_20_1104	s	s	4	1	SIC	212	ABS	2	2	24VD	0	1	0.576184988022	None	None	None	None	1
1.7	2015_Jul_20_1104	s	s	4	1	SIC	213	ABS	2	0	24VC	0	1	0.630514144897	None	None	None	None	1
1.7	2015_Jul_20_1104	s	s	4	1	SIC	214	RC	0	2	23RD	1	0	0.717395067215	118.0	-45.0	121	-40	1
1.7	2015_Jul_20_1104	s	s	4	1	SIC	215	RC	2	0	23VC	1	0	0.752609014511	-500.0	151.0	-496	150	1
1.7	2015_Jul_20_1104	s	s	4	1	SIC	216	ABS	0	1	24RO	0	1	1.51280879974	None	None	None	None	1
1.7	2015_Jul_20_1104	s	s	4	1	SIC	217	ABS	0	2	24RD	0	1	0.950206041336	None	None	None	None	1
1.7	2015_Jul_20_1104	s	s	4	1	SIC	218	RC	1	1	23MO	0	1	1.28240394592	-507.0	-367.0	None	None	0
1.7	2015_Jul_20_1104	s	s	4	1	SIC	219	RC	2	2	23VD	1	0	0.505502939224	49.0	-113.0	55	-114	1
1.7	2015_Jul_20_1104	s	s	4	1	SIC	220	RC	1	2	23MD	1	0	0.97381401062	443.0	166.0	450	168	1
1.7	2015_Jul_20_1104	s	s	4	1	SIC	221	ABS	1	1	24MO	0	1	1.2545311451	None	None	None	None	1
1.7	2015_Jul_20_1104	s	s	4	1	SIC	222	RC	0	1	23RO	1	0	1.3125629425	-303.0	-134.0	-291	-132	1
1.7	2015_Jul_20_1104	s	s	4	1	SIC	223	RC	1	0	23MC	1	0	0.832162857056	-142.0	280.0	-152	280	1
1.7	2015_Jul_20_1104	s	s	4	1	SIC	224	RC	2	1	23VO	1	0	0.517275094986	-400.0	299.0	-410	304	1
1.7	2015_Jul_20_1104	s	s	4	1	SIC	225	ABS	1	0	24MC	0	1	1.09405589104	None	None	None	None	1
1.7	2015_Jul_20_1104	s	s	4	1	SIC	226	ABS	0	2	24RD	0	1	1.88255500793	None	None	None	None	1
1.7	2015_Jul_20_1104	s	s	4	1	SIC	227	RC	0	2	23RD	1	0	0.57365489006	-142.0	-71.0	-139	-67	1
1.7	2015_Jul_20_1104	s	s	4	1	SIC	228	ABS	1	2	24MD	0	1	1.42361617088	None	None	None	None	1
1.7	2015_Jul_20_1104	s	s	4	1	SIC	229	RC	2	2	23VD	1	0	0.583116054535	326.0	-351.0	322	-350	1
1.7	2015_Jul_20_1104	s	s	4	1	SIC	230	RC	2	1	23VO	1	0	0.596708059311	-330.0	-82.0	-329	-93	1
1.7	2015_Jul_20_1104	s	s	4	1	SIC	231	RC	1	1	23MO	1	0	7.6271572113	187.0	-411.0	193	-419	1
1.7	2015_Jul_20_1104	s	s	4	1	SIC	232	ABS	2	1	24VO	0	1	3.46923589706	None	None	None	None	1
1.7	2015_Jul_20_1104	s	s	4	1	SIC	233	RC	1	2	23MD	1	0	0.676523923874	186.0	338.0	188	337	1
1.7	2015_Jul_20_1104	s	s	4	1	SIC	234	ABS	2	0	24VC	0	1	0.972279071808	None	None	None	None	1
1.7	2015_Jul_20_1104	s	s	4	1	SIC	235	ABS	0	1	24RO	0	1	1.91809487343	None	None	None	None	1
1.7	2015_Jul_20_1104	s	s	4	1	SIC	236	RC	2	0	23VC	1	0	0.900913000107	-264.0	-382.0	-259	-377	1
1.7	2015_Jul_20_1104	s	s	4	1	SIC	237	RC	1	0	23MC	1	0	0.948283910751	-158.0	139.0	-157	136	1
1.7	2015_Jul_20_1104	s	s	4	1	SIC	238	ABS	1	1	24MO	0	1	1.90371608734	None	None	None	None	1
1.7	2015_Jul_20_1104	s	s	4	1	SIC	239	ABS	2	2	24VD	0	1	0.611439943314	None	None	None	None	1
1.7	2015_Jul_20_1104	s	s	4	1	SIC	240	RC	0	1	23RO	1	0	1.70040607452	-249.0	344.0	-237	346	1
1.7	2015_Jul_20_1104	s	s	4	1	SIC	241	ABS	2	1	24VO	0	1	1.38830590248	None	None	None	None	1
1.7	2015_Jul_20_1104	s	s	4	1	SIC	242	RC	0	1	23RO	1	0	0.952703952789	479.0	-350.0	478	-346	1
1.7	2015_Jul_20_1104	s	s	4	1	SIC	243	ABS	0	2	24RD	0	1	0.7056620121	None	None	None	None	1
1.7	2015_Jul_20_1104	s	s	4	1	SIC	244	RC	2	0	23VC	1	0	0.606548070908	-215.0	201.0	-208	199	1
1.7	2015_Jul_20_1104	s	s	4	1	SIC	245	ABS	1	0	24MC	0	1	1.1826710701	None	None	None	None	1
1.7	2015_Jul_20_1104	s	s	4	1	SIC	246	ABS	2	0	24VC	0	1	0.599640846252	None	None	None	None	1
1.7	2015_Jul_20_1104	s	s	4	1	SIC	247	RC	1	2	23MD	1	0	0.607002973557	21.0	-264.0	25	-273	1
1.7	2015_Jul_20_1104	s	s	4	1	SIC	248	RC	1	1	23MO	1	0	0.831539154053	131.0	-128.0	139	-132	1
1.7	2015_Jul_20_1104	s	s	4	1	SIC	249	ABS	0	1	24RO	0	1	1.37649893761	None	None	None	None	1
1.7	2015_Jul_20_1104	s	s	4	1	SIC	250	ABS	1	1	24MO	0	1	0.682110071182	None	None	None	None	1
1.7	2015_Jul_20_1104	s	s	4	1	SIC	251	ABS	2	2	24VD	1	0	0.582292079926	None	None	349	-393	0
1.7	2015_Jul_20_1104	s	s	4	1	SIC	252	RC	0	2	23RD	1	0	0.594037055969	220.0	140.0	224	138	1
1.7	2015_Jul_20_1104	s	s	4	1	SIC	253	RC	1	0	23MC	1	0	1.40864109993	-192.0	30.0	-197	31	1
1.7	2015_Jul_20_1104	s	s	4	1	SIC	254	RC	2	2	23VD	1	0	0.634989976883	-451.0	-64.0	-447	-67	1
1.7	2015_Jul_20_1104	s	s	4	1	SIC	255	RC	2	1	23VO	1	0	0.61857509613	477.0	300.0	481	296	1
1.7	2015_Jul_20_1104	s	s	4	1	SIC	256	ABS	1	2	24MD	0	1	1.85321497917	None	None	None	None	1
1.7	2015_Jul_20_1104	s	s	4	1	SIC	257	ABS	1	2	24MD	0	1	0.882214069366	None	None	None	None	1
1.7	2015_Jul_20_1104	s	s	4	1	SIC	258	RC	1	2	23MD	1	0	0.467451810837	207.0	30.0	204	21	1
1.7	2015_Jul_20_1104	s	s	4	1	SIC	259	ABS	0	1	24RO	0	1	2.28994607925	None	None	None	None	1
1.7	2015_Jul_20_1104	s	s	4	1	SIC	260	ABS	2	1	24VO	0	1	0.62055516243	None	None	None	None	1
1.7	2015_Jul_20_1104	s	s	4	1	SIC	261	RC	0	2	23RD	1	0	0.524786949158	-331.0	280.0	-329	280	1
1.7	2015_Jul_20_1104	s	s	4	1	SIC	262	ABS	2	0	24VC	0	1	0.738724946976	None	None	None	None	1
1.7	2015_Jul_20_1104	s	s	4	1	SIC	263	RC	0	1	23RO	0	1	4.04369306564	-285.0	389.0	None	None	0
1.7	2015_Jul_20_1104	s	s	4	1	SIC	264	ABS	2	2	24VD	0	1	0.737290859222	None	None	None	None	1
1.7	2015_Jul_20_1104	s	s	4	1	SIC	265	RC	2	0	23VC	1	0	0.782532215118	55.0	-269.0	57	-277	1
1.7	2015_Jul_20_1104	s	s	4	1	SIC	266	ABS	0	2	24RD	0	1	1.95331311226	None	None	None	None	1
1.7	2015_Jul_20_1104	s	s	4	1	SIC	267	RC	2	2	23VD	0	1	0.917500972748	328.0	-269.0	None	None	0
1.7	2015_Jul_20_1104	s	s	4	1	SIC	268	ABS	1	1	24MO	0	1	1.59520292282	None	None	None	None	1
1.7	2015_Jul_20_1104	s	s	4	1	SIC	269	RC	2	1	23VO	1	0	0.49160194397	-332.0	-128.0	-334	-122	1
1.7	2015_Jul_20_1104	s	s	4	1	SIC	270	ABS	1	0	24MC	0	1	1.66476082802	None	None	None	None	1
1.7	2015_Jul_20_1104	s	s	4	1	SIC	271	RC	1	1	23MO	0	1	0.73632311821	-501.0	159.0	None	None	0
1.7	2015_Jul_20_1104	s	s	4	1	SIC	272	RC	1	0	23MC	1	0	1.68266820908	-98.0	78.0	-91	77	1
1.7	2015_Jul_20_1104	s	s	4	1	SIC	273	ABS	2	0	24VC	0	1	2.17695999146	None	None	None	None	1
1.7	2015_Jul_20_1104	s	s	4	1	SIC	274	RC	1	2	23MD	1	0	0.58510684967	229.0	196.0	219	197	1
1.7	2015_Jul_20_1104	s	s	4	1	SIC	275	ABS	2	1	24VO	0	1	0.685852050781	None	None	None	None	1
1.7	2015_Jul_20_1104	s	s	4	1	SIC	276	ABS	0	1	24RO	0	1	2.62201690674	None	None	None	None	1
1.7	2015_Jul_20_1104	s	s	4	1	SIC	277	ABS	1	0	24MC	0	1	0.938627004623	None	None	None	None	1
1.7	2015_Jul_20_1104	s	s	4	1	SIC	278	ABS	1	2	24MD	0	1	0.87900686264	None	None	None	None	1
1.7	2015_Jul_20_1104	s	s	4	1	SIC	279	ABS	0	2	24RD	0	1	0.699939966202	None	None	None	None	1
1.7	2015_Jul_20_1104	s	s	4	1	SIC	280	RC	2	1	23VO	1	0	0.753227949142	-325.0	178.0	-338	182	1
1.7	2015_Jul_20_1104	s	s	4	1	SIC	281	RC	1	1	23MO	0	1	0.835081100464	474.0	61.0	None	None	0
1.7	2015_Jul_20_1104	s	s	4	1	SIC	282	RC	1	0	23MC	0	1	1.84179997444	172.0	-303.0	None	None	0
1.7	2015_Jul_20_1104	s	s	4	1	SIC	283	RC	0	1	23RO	1	0	1.38261508942	235.0	-155.0	233	-162	1
1.7	2015_Jul_20_1104	s	s	4	1	SIC	284	RC	2	2	23VD	1	0	0.623312950134	-378.0	-395.0	-377	-393	1
1.7	2015_Jul_20_1104	s	s	4	1	SIC	285	RC	0	2	23RD	1	0	0.682048082352	-523.0	-407.0	-528	-403	1
1.7	2015_Jul_20_1104	s	s	4	1	SIC	286	ABS	2	2	24VD	0	1	0.67647600174	None	None	None	None	1
1.7	2015_Jul_20_1104	s	s	4	1	SIC	287	RC	2	0	23VC	1	0	0.620513916016	242.0	388.0	242	387	1
1.7	2015_Jul_20_1104	s	s	4	1	SIC	288	ABS	1	1	24MO	0	1	1.40004992485	None	None	None	None	1
1.7	2015_Jul_20_1104	s	s	4	1	SIC	289	ABS	1	0	24MC	0	1	2.41863703728	None	None	None	None	1
1.7	2015_Jul_20_1104	s	s	4	1	SIC	290	ABS	2	2	24VD	0	1	0.740951061249	None	None	None	None	1
1.7	2015_Jul_20_1104	s	s	4	1	SIC	291	RC	2	1	23VO	1	0	0.538403987885	243.0	-192.0	238	-190	1
1.7	2015_Jul_20_1104	s	s	4	1	SIC	292	RC	0	2	23RD	1	0	0.667927980423	141.0	-332.0	148	-332	1
1.7	2015_Jul_20_1104	s	s	4	1	SIC	293	RC	1	0	23MC	0	1	1.07946109772	480.0	-107.0	None	None	0
1.7	2015_Jul_20_1104	s	s	4	1	SIC	294	ABS	1	2	24MD	0	1	1.25350308418	None	None	None	None	1
1.7	2015_Jul_20_1104	s	s	4	1	SIC	295	ABS	0	2	24RD	0	1	1.39716696739	None	None	None	None	1
1.7	2015_Jul_20_1104	s	s	4	1	SIC	296	ABS	2	1	24VO	0	1	0.593135118484	None	None	None	None	1
1.7	2015_Jul_20_1104	s	s	4	1	SIC	297	RC	1	2	23MD	1	0	0.926518201828	-299.0	253.0	-302	254	1
1.7	2015_Jul_20_1104	s	s	4	1	SIC	298	ABS	1	1	24MO	0	1	3.84599709511	None	None	None	None	1
1.7	2015_Jul_20_1104	s	s	4	1	SIC	299	ABS	2	0	24VC	0	1	0.835107088089	None	None	None	None	1
1.7	2015_Jul_20_1104	s	s	4	1	SIC	300	RC	0	1	23RO	1	0	1.15009498596	114.0	-19.0	113	-18	1
1.7	2015_Jul_20_1104	s	s	4	1	SIC	301	RC	2	2	23VD	1	0	1.79782891273	-61.0	-289.0	-57	-284	1
1.7	2015_Jul_20_1104	s	s	4	1	SIC	302	RC	1	1	23MO	1	0	0.964645862579	165.0	-73.0	177	-71	1
1.7	2015_Jul_20_1104	s	s	4	1	SIC	303	RC	2	0	23VC	1	0	0.611473083496	199.0	162.0	210	171	1
1.7	2015_Jul_20_1104	s	s	4	1	SIC	304	ABS	0	1	24RO	0	1	6.49428892136	None	None	None	None	1
1.7	2015_Jul_20_1104	s	s	4	1	SIC	305	RC	0	2	23RD	1	0	0.579905033112	257.0	-20.0	262	-29	1
1.7	2015_Jul_20_1104	s	s	4	1	SIC	306	ABS	2	1	24VO	0	1	0.891854047775	None	None	None	None	1
1.7	2015_Jul_20_1104	s	s	4	1	SIC	307	RC	1	1	23MO	1	0	1.11537098885	-42.0	-184.0	-47	-183	1
1.7	2015_Jul_20_1104	s	s	4	1	SIC	308	ABS	1	1	24MO	0	1	1.18300485611	None	None	None	None	1
1.7	2015_Jul_20_1104	s	s	4	1	SIC	309	RC	1	0	23MC	1	0	1.3412258625	395.0	337.0	399	342	1
1.7	2015_Jul_20_1104	s	s	4	1	SIC	310	RC	2	2	23VD	1	0	0.632760047913	20.0	-147.0	14	-152	1
1.7	2015_Jul_20_1104	s	s	4	1	SIC	311	RC	1	2	23MD	1	0	1.56488704681	288.0	-314.0	294	-309	1
1.7	2015_Jul_20_1104	s	s	4	1	SIC	312	RC	0	1	23RO	1	0	1.98072814941	97.0	361.0	98	364	1
1.7	2015_Jul_20_1104	s	s	4	1	SIC	313	ABS	1	2	24MD	0	1	0.891346931458	None	None	None	None	1
1.7	2015_Jul_20_1104	s	s	4	1	SIC	314	ABS	0	2	24RD	0	1	0.72927904129	None	None	None	None	1
1.7	2015_Jul_20_1104	s	s	4	1	SIC	315	ABS	2	2	24VD	0	1	1.02329707146	None	None	None	None	1
1.7	2015_Jul_20_1104	s	s	4	1	SIC	316	RC	2	0	23VC	1	0	0.630589962006	-358.0	12.0	-355	13	1
1.7	2015_Jul_20_1104	s	s	4	1	SIC	317	RC	2	1	23VO	1	0	2.57710790634	-326.0	408.0	-316	411	1
1.7	2015_Jul_20_1104	s	s	4	1	SIC	318	ABS	0	1	24RO	0	1	3.36112713814	None	None	None	None	1
1.7	2015_Jul_20_1104	s	s	4	1	SIC	319	ABS	1	0	24MC	0	1	1.48244810104	None	None	None	None	1
1.7	2015_Jul_20_1104	s	s	4	1	SIC	320	ABS	2	0	24VC	0	1	0.76108789444	None	None	None	None	1
1.7	2015_Jul_20_1104	s	s	4	1	SIC	321	ABS	2	1	24VO	0	1	0.470156908035	None	None	None	None	1
1.7	2015_Jul_20_1104	s	s	4	1	SIC	322	RC	1	0	23MC	1	0	0.997450828552	-89.0	78.0	-82	73	1
1.7	2015_Jul_20_1104	s	s	4	1	SIC	323	ABS	1	1	24MO	0	1	0.865437030792	None	None	None	None	1
1.7	2015_Jul_20_1104	s	s	4	1	SIC	324	RC	2	0	23VC	1	0	0.729112148285	-358.0	261.0	-359	255	1
1.7	2015_Jul_20_1104	s	s	4	1	SIC	325	RC	1	1	23MO	1	0	0.976431131363	167.0	364.0	179	365	1
1.7	2015_Jul_20_1104	s	s	4	1	SIC	326	ABS	2	0	24VC	0	1	0.682031154633	None	None	None	None	1
1.7	2015_Jul_20_1104	s	s	4	1	SIC	327	RC	1	2	23MD	1	0	0.729620933533	534.0	-354.0	532	-356	1
1.7	2015_Jul_20_1104	s	s	4	1	SIC	328	RC	0	1	23RO	1	0	2.2332971096	491.0	310.0	506	318	1
1.7	2015_Jul_20_1104	s	s	4	1	SIC	329	RC	0	2	23RD	1	0	0.846822023392	51.0	-401.0	44	-405	1
1.7	2015_Jul_20_1104	s	s	4	1	SIC	330	ABS	1	2	24MD	0	1	1.30347394943	None	None	None	None	1
1.7	2015_Jul_20_1104	s	s	4	1	SIC	331	ABS	2	2	24VD	0	1	0.782947063446	None	None	None	None	1
1.7	2015_Jul_20_1104	s	s	4	1	SIC	332	ABS	0	1	24RO	0	1	0.105324983597	None	None	None	None	1
1.7	2015_Jul_20_1104	s	s	4	1	SIC	333	ABS	0	2	24RD	0	1	0.830780029297	None	None	None	None	1
1.7	2015_Jul_20_1104	s	s	4	1	SIC	334	RC	2	1	23VO	1	0	0.525918006897	101.0	156.0	101	153	1
1.7	2015_Jul_20_1104	s	s	4	1	SIC	335	ABS	1	0	24MC	0	1	2.22401094437	None	None	None	None	1
1.7	2015_Jul_20_1104	s	s	4	1	SIC	336	RC	2	2	23VD	1	0	0.652931928635	348.0	107.0	358	105	1
1.7	2015_Jul_20_1104	s	s	4	1	SIC	337	ABS	2	2	24VD	0	1	0.787961959839	None	None	None	None	1
1.7	2015_Jul_20_1104	s	s	4	1	SIC	338	ABS	0	2	24RD	0	1	1.09136295319	None	None	None	None	1
1.7	2015_Jul_20_1104	s	s	4	1	SIC	339	ABS	1	0	24MC	0	1	0.950453042984	None	None	None	None	1
1.7	2015_Jul_20_1104	s	s	4	1	SIC	340	RC	0	1	23RO	0	1	2.2828040123	-488.0	-100.0	None	None	0
1.7	2015_Jul_20_1104	s	s	4	1	SIC	341	ABS	1	1	24MO	0	1	0.741025924683	None	None	None	None	1
1.7	2015_Jul_20_1104	s	s	4	1	SIC	342	RC	1	2	23MD	1	0	0.517255067825	5.0	132.0	12	130	1
1.7	2015_Jul_20_1104	s	s	4	1	SIC	343	RC	2	1	23VO	1	0	0.58372592926	414.0	167.0	415	169	1
1.7	2015_Jul_20_1104	s	s	4	1	SIC	344	ABS	0	1	24RO	0	1	2.05275702477	None	None	None	None	1
1.7	2015_Jul_20_1104	s	s	4	1	SIC	345	RC	2	0	23VC	1	0	0.547431945801	-478.0	21.0	-477	17	1
1.7	2015_Jul_20_1104	s	s	4	1	SIC	346	RC	1	1	23MO	1	0	1.60697484016	26.0	-190.0	20	-187	1
1.7	2015_Jul_20_1104	s	s	4	1	SIC	347	ABS	1	2	24MD	0	1	0.8893430233	None	None	None	None	1
1.7	2015_Jul_20_1104	s	s	4	1	SIC	348	RC	1	0	23MC	1	0	0.937694072723	85.0	-240.0	98	-235	1
1.7	2015_Jul_20_1104	s	s	4	1	SIC	349	ABS	2	0	24VC	0	1	0.797335147858	None	None	None	None	1
1.7	2015_Jul_20_1104	s	s	4	1	SIC	350	RC	2	2	23VD	1	0	0.705571889877	28.0	30.0	28	31	1
1.7	2015_Jul_20_1104	s	s	4	1	SIC	351	RC	0	2	23RD	1	0	0.620018005371	-445.0	-10.0	-446	-14	1
1.7	2015_Jul_20_1104	s	s	4	1	SIC	352	ABS	2	1	24VO	0	1	0.724181890488	None	None	None	None	1
1.7	2015_Jul_20_1104	s	s	4	1	SIC	353	ABS	1	2	24MD	0	1	1.05064988136	None	None	None	None	1
1.7	2015_Jul_20_1104	s	s	4	1	SIC	354	RC	1	0	23MC	1	0	0.870372056961	35.0	-211.0	41	-210	1
1.7	2015_Jul_20_1104	s	s	4	1	SIC	355	ABS	2	2	24VD	0	1	0.595132827759	None	None	None	None	1
1.7	2015_Jul_20_1104	s	s	4	1	SIC	356	RC	1	2	23MD	1	0	0.65282702446	54.0	258.0	59	248	1
1.7	2015_Jul_20_1104	s	s	4	1	SIC	357	ABS	1	1	24MO	0	1	1.05634212494	None	None	None	None	1
1.7	2015_Jul_20_1104	s	s	4	1	SIC	358	RC	0	1	23RO	0	1	2.74933099747	-473.0	308.0	None	None	0
1.7	2015_Jul_20_1104	s	s	4	1	SIC	359	RC	2	1	23VO	1	0	0.573980093002	285.0	343.0	282	349	1
1.7	2015_Jul_20_1104	s	s	4	1	SIC	360	ABS	2	0	24VC	0	1	0.782449007034	None	None	None	None	1
1.7	2015_Jul_20_1104	s	s	4	1	SIC	361	RC	2	2	23VD	1	0	0.572104930878	110.0	-280.0	102	-285	1
1.7	2015_Jul_20_1104	s	s	4	1	SIC	362	ABS	0	2	24RD	0	1	1.02707219124	None	None	None	None	1
1.7	2015_Jul_20_1104	s	s	4	1	SIC	363	RC	1	1	23MO	1	0	0.870203971863	66.0	290.0	70	291	1
1.7	2015_Jul_20_1104	s	s	4	1	SIC	364	RC	0	2	23RD	1	0	0.729136943817	179.0	-314.0	171	-315	1
1.7	2015_Jul_20_1104	s	s	4	1	SIC	365	ABS	1	0	24MC	0	1	2.08977198601	None	None	None	None	1
1.7	2015_Jul_20_1104	s	s	4	1	SIC	366	ABS	2	1	24VO	0	1	0.87039399147	None	None	None	None	1
1.7	2015_Jul_20_1104	s	s	4	1	SIC	367	RC	2	0	23VC	1	0	1.3844909668	-205.0	197.0	-201	197	1
1.7	2015_Jul_20_1104	s	s	4	1	SIC	368	ABS	0	1	24RO	0	1	1.08720803261	None	None	None	None	1
1.7	2015_Jul_20_1104	s	s	4	1	SIC	369	RC	0	1	23RO	0	1	1.89504098892	502.0	-383.0	None	None	0
1.7	2015_Jul_20_1104	s	s	4	1	SIC	370	RC	0	2	23RD	1	0	0.741379022598	-365.0	257.0	-364	252	1
1.7	2015_Jul_20_1104	s	s	4	1	SIC	371	RC	1	1	23MO	0	1	1.27803182602	-294.0	-402.0	None	None	0
1.7	2015_Jul_20_1104	s	s	4	1	SIC	372	RC	1	0	23MC	1	0	0.670521974564	-106.0	-400.0	-97	-404	1
1.7	2015_Jul_20_1104	s	s	4	1	SIC	373	ABS	1	0	24MC	0	1	1.32405209541	None	None	None	None	1
1.7	2015_Jul_20_1104	s	s	4	1	SIC	374	ABS	0	1	24RO	0	1	2.8596701622	None	None	None	None	1
1.7	2015_Jul_20_1104	s	s	4	1	SIC	375	RC	2	2	23VD	1	0	0.564358949661	-252.0	325.0	-253	328	1
1.7	2015_Jul_20_1104	s	s	4	1	SIC	376	RC	1	2	23MD	1	0	0.846742153168	-173.0	-47.0	-169	-55	1
1.7	2015_Jul_20_1104	s	s	4	1	SIC	377	ABS	1	2	24MD	0	1	0.818734169006	None	None	None	None	1
1.7	2015_Jul_20_1104	s	s	4	1	SIC	378	ABS	0	2	24RD	0	1	0.752718925476	None	None	None	None	1
1.7	2015_Jul_20_1104	s	s	4	1	SIC	379	ABS	2	0	24VC	0	1	1.04480600357	None	None	None	None	1
1.7	2015_Jul_20_1104	s	s	4	1	SIC	380	RC	2	0	23VC	1	0	2.05925703049	31.0	-402.0	27	-408	1
1.7	2015_Jul_20_1104	s	s	4	1	SIC	381	ABS	1	1	24MO	0	1	1.19189500809	None	None	None	None	1
1.7	2015_Jul_20_1104	s	s	4	1	SIC	382	ABS	2	2	24VD	0	1	0.57354593277	None	None	None	None	1
1.7	2015_Jul_20_1104	s	s	4	1	SIC	383	RC	2	1	23VO	1	0	0.999756097794	235.0	41.0	236	45	1
1.7	2015_Jul_20_1104	s	s	4	1	SIC	384	ABS	2	1	24VO	0	1	1.2471370697	None	None	None	None	1
1.7	2015_Jul_20_1104	s	s	4	1	SIC	385	RC	2	0	23VC	1	0	0.505316972733	-199.0	29.0	-194	26	1
1.7	2015_Jul_20_1104	s	s	4	1	SIC	386	RC	2	2	23VD	0	1	2.02066087723	455.0	272.0	None	None	0
1.7	2015_Jul_20_1104	s	s	4	1	SIC	387	ABS	1	1	24MO	0	1	2.5014090538	None	None	None	None	1
1.7	2015_Jul_20_1104	s	s	4	1	SIC	388	ABS	2	1	24VO	1	0	0.576467037201	None	None	56	-417	0
1.7	2015_Jul_20_1104	s	s	4	1	SIC	389	RC	1	1	23MO	1	0	0.717408895493	147.0	46.0	147	47	1
1.7	2015_Jul_20_1104	s	s	4	1	SIC	390	ABS	2	2	24VD	0	1	0.679781913757	None	None	None	None	1
1.7	2015_Jul_20_1104	s	s	4	1	SIC	391	ABS	1	0	24MC	0	1	2.61904001236	None	None	None	None	1
1.7	2015_Jul_20_1104	s	s	4	1	SIC	392	ABS	0	1	24RO	0	1	2.16025400162	None	None	None	None	1
1.7	2015_Jul_20_1104	s	s	4	1	SIC	393	RC	1	0	23MC	1	0	1.45399093628	215.0	241.0	221	238	1
1.7	2015_Jul_20_1104	s	s	4	1	SIC	394	ABS	2	0	24VC	0	1	1.36478590965	None	None	None	None	1
1.7	2015_Jul_20_1104	s	s	4	1	SIC	395	ABS	1	2	24MD	0	1	1.85916900635	None	None	None	None	1
1.7	2015_Jul_20_1104	s	s	4	1	SIC	396	ABS	0	2	24RD	0	1	1.21171808243	None	None	None	None	1
1.7	2015_Jul_20_1104	s	s	4	1	SIC	397	RC	0	2	23RD	1	0	1.04699897766	236.0	-338.0	227	-338	1
1.7	2015_Jul_20_1104	s	s	4	1	SIC	398	RC	2	1	23VO	1	0	0.525882959366	-399.0	-57.0	-386	-53	1
1.7	2015_Jul_20_1104	s	s	4	1	SIC	399	RC	1	2	23MD	1	0	0.524965047836	64.0	-365.0	65	-367	1
1.7	2015_Jul_20_1104	s	s	4	1	SIC	400	RC	0	1	23RO	0	1	3.42499303818	-489.0	74.0	None	None	0
1.7	2015_Jul_20_1104	s	s	4	1	SIC	401	ABS	1	0	24MC	0	1	0.905607938766	None	None	None	None	1
1.7	2015_Jul_20_1104	s	s	4	1	SIC	402	ABS	1	2	24MD	0	1	0.787932872772	None	None	None	None	1
1.7	2015_Jul_20_1104	s	s	4	1	SIC	403	RC	0	1	23RO	0	1	2.01923799515	427.0	-70.0	None	None	0
1.7	2015_Jul_20_1104	s	s	4	1	SIC	404	RC	2	2	23VD	1	0	0.599650859833	-393.0	-256.0	-390	-258	1
1.7	2015_Jul_20_1104	s	s	4	1	SIC	405	ABS	0	2	24RD	0	1	0.865045070648	None	None	None	None	1
1.7	2015_Jul_20_1104	s	s	4	1	SIC	406	ABS	1	1	24MO	0	1	0.876432180405	None	None	None	None	1
1.7	2015_Jul_20_1104	s	s	4	1	SIC	407	RC	1	1	23MO	1	0	0.67023396492	-33.0	36.0	-26	32	1
1.7	2015_Jul_20_1104	s	s	4	1	SIC	408	RC	1	2	23MD	1	0	0.512516975403	45.0	136.0	55	134	1
1.7	2015_Jul_20_1104	s	s	4	1	SIC	409	RC	2	1	23VO	1	0	0.599670886993	122.0	-218.0	119	-214	1
1.7	2015_Jul_20_1104	s	s	4	1	SIC	410	ABS	2	2	24VD	0	1	1.21173000336	None	None	None	None	1
1.7	2015_Jul_20_1104	s	s	4	1	SIC	411	RC	0	2	23RD	1	0	0.823202133179	422.0	71.0	427	80	1
1.7	2015_Jul_20_1104	s	s	4	1	SIC	412	RC	2	0	23VC	1	0	0.606580972672	252.0	-342.0	244	-333	1
1.7	2015_Jul_20_1104	s	s	4	1	SIC	413	RC	1	0	23MC	1	0	0.838859796524	342.0	-192.0	351	-188	1
1.7	2015_Jul_20_1104	s	s	4	1	SIC	414	ABS	2	1	24VO	0	1	0.726756811142	None	None	None	None	1
1.7	2015_Jul_20_1104	s	s	4	1	SIC	415	ABS	0	1	24RO	0	1	1.77413702011	None	None	None	None	1
1.7	2015_Jul_20_1104	s	s	4	1	SIC	416	ABS	2	0	24VC	0	1	0.634969949722	None	None	None	None	1
1.7	2015_Jul_20_1104	s	s	4	1	SIC	417	RC	2	1	23VO	1	0	0.968299865723	395.0	-228.0	407	-223	1
1.7	2015_Jul_20_1104	s	s	4	1	SIC	418	RC	2	2	23VD	1	0	0.634846925735	509.0	243.0	509	237	1
1.7	2015_Jul_20_1104	s	s	4	1	SIC	419	ABS	2	1	24VO	0	1	0.799828052521	None	None	None	None	1
1.7	2015_Jul_20_1104	s	s	4	1	SIC	420	RC	2	0	23VC	1	0	0.458941936493	-540.0	-65.0	-549	-68	1
1.7	2015_Jul_20_1104	s	s	4	1	SIC	421	ABS	1	0	24MC	0	1	1.13548398018	None	None	None	None	1
1.7	2015_Jul_20_1104	s	s	4	1	SIC	422	ABS	1	2	24MD	0	1	0.725830793381	None	None	None	None	1
1.7	2015_Jul_20_1104	s	s	4	1	SIC	423	RC	1	1	23MO	1	0	1.22971916199	-294.0	248.0	-291	234	1
1.7	2015_Jul_20_1104	s	s	4	1	SIC	424	RC	1	0	23MC	1	0	0.856207132339	-519.0	139.0	-521	148	1
1.7	2015_Jul_20_1104	s	s	4	1	SIC	425	RC	1	2	23MD	1	0	0.585374832153	-524.0	60.0	-534	59	1
1.7	2015_Jul_20_1104	s	s	4	1	SIC	426	ABS	0	1	24RO	0	1	1.73643302917	None	None	None	None	1
1.7	2015_Jul_20_1104	s	s	4	1	SIC	427	ABS	1	1	24MO	0	1	0.806233882904	None	None	None	None	1
1.7	2015_Jul_20_1104	s	s	4	1	SIC	428	ABS	2	2	24VD	0	1	0.514867782593	None	None	None	None	1
1.7	2015_Jul_20_1104	s	s	4	1	SIC	429	RC	0	1	23RO	0	1	1.46416592598	469.0	-95.0	None	None	0
1.7	2015_Jul_20_1104	s	s	4	1	SIC	430	ABS	2	0	24VC	0	1	0.493815898895	None	None	None	None	1
1.7	2015_Jul_20_1104	s	s	4	1	SIC	431	RC	0	2	23RD	1	0	0.523483991623	-346.0	405.0	-352	414	1
1.7	2015_Jul_20_1104	s	s	4	1	SIC	432	ABS	0	2	24RD	0	1	0.781994104385	None	None	None	None	1
1.7	2015_Jul_20_1104	s	s	4	1	SIC	433	RC	2	0	23VC	1	0	0.564375162125	-47.0	8.0	-50	4	1
1.7	2015_Jul_20_1104	s	s	4	1	SIC	434	ABS	0	1	24RO	0	1	0.94090294838	None	None	None	None	1
1.7	2015_Jul_20_1104	s	s	4	1	SIC	435	ABS	1	0	24MC	1	0	0.570487976074	None	None	-56	-1	0
1.7	2015_Jul_20_1104	s	s	4	1	SIC	436	ABS	2	2	24VD	0	1	0.526342153549	None	None	None	None	1
1.7	2015_Jul_20_1104	s	s	4	1	SIC	437	RC	0	1	23RO	1	0	1.11757493019	151.0	-246.0	149	-257	1
1.7	2015_Jul_20_1104	s	s	4	1	SIC	438	ABS	2	1	24VO	0	1	0.679717063904	None	None	None	None	1
1.7	2015_Jul_20_1104	s	s	4	1	SIC	439	RC	2	1	23VO	1	0	0.481897115707	-443.0	-329.0	-452	-330	1
1.7	2015_Jul_20_1104	s	s	4	1	SIC	440	RC	1	1	23MO	1	0	1.43050384521	277.0	361.0	278	352	1
1.7	2015_Jul_20_1104	s	s	4	1	SIC	441	ABS	1	2	24MD	0	1	0.583111047745	None	None	None	None	1
1.7	2015_Jul_20_1104	s	s	4	1	SIC	442	ABS	0	2	24RD	0	1	0.77335190773	None	None	None	None	1
1.7	2015_Jul_20_1104	s	s	4	1	SIC	443	RC	2	2	23VD	1	0	0.552551984787	-79.0	-5.0	-77	-11	1
1.7	2015_Jul_20_1104	s	s	4	1	SIC	444	RC	0	2	23RD	1	0	0.983097076416	365.0	156.0	354	157	1
1.7	2015_Jul_20_1104	s	s	4	1	SIC	445	RC	1	0	23MC	1	0	0.599734067917	-183.0	18.0	-174	18	1
1.7	2015_Jul_20_1104	s	s	4	1	SIC	446	ABS	1	1	24MO	0	1	2.32465910912	None	None	None	None	1
1.7	2015_Jul_20_1104	s	s	4	1	SIC	447	RC	1	2	23MD	1	0	0.646765947342	359.0	-127.0	353	-131	1
1.7	2015_Jul_20_1104	s	s	4	1	SIC	448	ABS	2	0	24VC	0	1	0.817741155624	None	None	None	None	1
1.7	2015_Jul_20_1104	s	s	4	1	SIC	449	RC	2	0	23VC	1	0	0.513160943985	-441.0	-363.0	-430	-363	1
1.7	2015_Jul_20_1104	s	s	4	1	SIC	450	ABS	2	2	24VD	0	1	1.13644695282	None	None	None	None	1
1.7	2015_Jul_20_1104	s	s	4	1	SIC	451	RC	1	1	23MO	1	0	0.705545902252	-57.0	-124.0	-48	-125	1
1.7	2015_Jul_20_1104	s	s	4	1	SIC	452	ABS	1	0	24MC	0	1	1.22982907295	None	None	None	None	1
1.7	2015_Jul_20_1104	s	s	4	1	SIC	453	ABS	1	1	24MO	0	1	1.08211898804	None	None	None	None	1
1.7	2015_Jul_20_1104	s	s	4	1	SIC	454	RC	0	1	23RO	1	0	0.97287106514	159.0	-21.0	168	-23	1
1.7	2015_Jul_20_1104	s	s	4	1	SIC	455	RC	1	2	23MD	1	0	0.87832903862	474.0	331.0	463	339	1
1.7	2015_Jul_20_1104	s	s	4	1	SIC	456	RC	2	1	23VO	1	0	0.619055986404	-172.0	-277.0	-170	-286	1
1.7	2015_Jul_20_1104	s	s	4	1	SIC	457	ABS	0	2	24RD	0	1	0.870522022247	None	None	None	None	1
1.7	2015_Jul_20_1104	s	s	4	1	SIC	458	RC	1	0	23MC	1	0	1.71788406372	-219.0	311.0	-217	308	1
1.7	2015_Jul_20_1104	s	s	4	1	SIC	459	RC	0	2	23RD	1	0	1.71258378029	492.0	-184.0	494	-192	1
1.7	2015_Jul_20_1104	s	s	4	1	SIC	460	ABS	1	2	24MD	0	1	0.952825784683	None	None	None	None	1
1.7	2015_Jul_20_1104	s	s	4	1	SIC	461	ABS	2	1	24VO	0	1	0.572149991989	None	None	None	None	1
1.7	2015_Jul_20_1104	s	s	4	1	SIC	462	ABS	2	0	24VC	0	1	0.5643658638	None	None	None	None	1
1.7	2015_Jul_20_1104	s	s	4	1	SIC	463	ABS	0	1	24RO	0	1	3.10463809967	None	None	None	None	1
1.7	2015_Jul_20_1104	s	s	4	1	SIC	464	RC	2	2	23VD	1	0	1.40645217896	475.0	73.0	482	77	1
1.7	2015_Jul_20_1104	s	s	4	1	SIC	465	RC	1	0	23MC	1	0	1.61785292625	-295.0	-17.0	-293	-11	1
1.7	2015_Jul_20_1104	s	s	4	1	SIC	466	ABS	2	0	24VC	0	1	0.682049036026	None	None	None	None	1
1.7	2015_Jul_20_1104	s	s	4	1	SIC	467	ABS	2	2	24VD	0	1	0.608036994934	None	None	None	None	1
1.7	2015_Jul_20_1104	s	s	4	1	SIC	468	RC	1	2	23MD	1	0	0.640462875366	-451.0	-296.0	-448	-305	1
1.7	2015_Jul_20_1104	s	s	4	1	SIC	469	RC	2	1	23VO	1	0	0.562191009521	-457.0	383.0	-462	380	1
1.7	2015_Jul_20_1104	s	s	4	1	SIC	470	RC	1	1	23MO	1	0	0.73881983757	-115.0	300.0	-122	301	1
1.7	2015_Jul_20_1104	s	s	4	1	SIC	471	ABS	1	1	24MO	0	1	1.8238298893	None	None	None	None	1
1.7	2015_Jul_20_1104	s	s	4	1	SIC	472	RC	2	0	23VC	1	0	0.482456922531	-124.0	159.0	-122	166	1
1.7	2015_Jul_20_1104	s	s	4	1	SIC	473	RC	2	2	23VD	1	0	0.547723054886	488.0	-103.0	491	-116	1
1.7	2015_Jul_20_1104	s	s	4	1	SIC	474	ABS	1	2	24MD	0	1	0.835100889206	None	None	None	None	1
1.7	2015_Jul_20_1104	s	s	4	1	SIC	475	ABS	0	2	24RD	0	1	0.96163892746	None	None	None	None	1
1.7	2015_Jul_20_1104	s	s	4	1	SIC	476	ABS	0	1	24RO	0	1	2.46591114998	None	None	None	None	1
1.7	2015_Jul_20_1104	s	s	4	1	SIC	477	RC	0	1	23RO	1	0	2.15343117714	156.0	407.0	155	414	1
1.7	2015_Jul_20_1104	s	s	4	1	SIC	478	RC	0	2	23RD	1	0	0.535159826279	354.0	171.0	357	170	1
1.7	2015_Jul_20_1104	s	s	4	1	SIC	479	ABS	1	0	24MC	0	1	1.59527993202	None	None	None	None	1
1.7	2015_Jul_20_1104	s	s	4	1	SIC	480	ABS	2	1	24VO	0	1	0.676841020584	None	None	None	None	1
1.7	2015_Jul_20_1104	s	s	4	1	SIC	481	RC	2	0	23VC	1	0	0.588120222092	163.0	-43.0	161	-42	1
1.7	2015_Jul_20_1104	s	s	4	1	SIC	482	RC	0	2	23RD	1	0	0.926583051682	475.0	-57.0	480	-57	1
1.7	2015_Jul_20_1104	s	s	4	1	SIC	483	ABS	0	2	24RD	0	1	1.84739112854	None	None	None	None	1
1.7	2015_Jul_20_1104	s	s	4	1	SIC	484	ABS	2	1	24VO	0	1	1.18824386597	None	None	None	None	1
1.7	2015_Jul_20_1104	s	s	4	1	SIC	485	ABS	2	0	24VC	0	1	0.713531017303	None	None	None	None	1
1.7	2015_Jul_20_1104	s	s	4	1	SIC	486	ABS	1	0	24MC	0	1	1.14808893204	None	None	None	None	1
1.7	2015_Jul_20_1104	s	s	4	1	SIC	487	ABS	0	1	24RO	0	1	2.38371992111	None	None	None	None	1
1.7	2015_Jul_20_1104	s	s	4	1	SIC	488	RC	1	2	23MD	1	0	1.08238506317	-514.0	106.0	-511	107	1
1.7	2015_Jul_20_1104	s	s	4	1	SIC	489	ABS	1	2	24MD	0	1	1.05466890335	None	None	None	None	1
1.7	2015_Jul_20_1104	s	s	4	1	SIC	490	RC	2	1	23VO	1	0	0.983242988586	-197.0	-37.0	-200	-41	1
1.7	2015_Jul_20_1104	s	s	4	1	SIC	491	RC	2	2	23VD	1	0	0.632142066956	-291.0	249.0	-296	246	1
1.7	2015_Jul_20_1104	s	s	4	1	SIC	492	RC	1	0	23MC	0	1	1.84408283234	-195.0	105.0	None	None	0
1.7	2015_Jul_20_1104	s	s	4	1	SIC	493	ABS	1	1	24MO	0	1	0.583784103394	None	None	None	None	1
1.7	2015_Jul_20_1104	s	s	4	1	SIC	494	ABS	2	2	24VD	0	1	0.762144088745	None	None	None	None	1
1.7	2015_Jul_20_1104	s	s	4	1	SIC	495	RC	1	1	23MO	1	0	0.693989992142	255.0	-65.0	253	-71	1
1.7	2015_Jul_20_1104	s	s	4	1	SIC	496	RC	0	1	23RO	0	1	1.20719790459	-463.0	40.0	None	None	0
1.7	2015_Jul_20_1104	s	s	4	1	SIC	497	ABS	1	2	24MD	0	1	0.976226806641	None	None	None	None	1
1.7	2015_Jul_20_1104	s	s	4	1	SIC	498	ABS	2	1	24VO	0	1	1.05336308479	None	None	None	None	1
1.7	2015_Jul_20_1104	s	s	4	1	SIC	499	ABS	2	0	24VC	0	1	0.51396894455	None	None	None	None	1
1.7	2015_Jul_20_1104	s	s	4	1	SIC	500	RC	2	1	23VO	1	0	0.799957036972	-529.0	18.0	-536	14	1
1.7	2015_Jul_20_1104	s	s	4	1	SIC	501	RC	2	2	23VD	1	0	2.23364210129	428.0	-80.0	434	-79	1
1.7	2015_Jul_20_1104	s	s	4	1	SIC	502	RC	1	2	23MD	1	0	0.419753074646	32.0	21.0	21	23	1
1.7	2015_Jul_20_1104	s	s	4	1	SIC	503	ABS	1	0	24MC	0	1	0.99635386467	None	None	None	None	1
1.7	2015_Jul_20_1104	s	s	4	1	SIC	504	ABS	2	2	24VD	0	1	1.0095500946	None	None	None	None	1
1.7	2015_Jul_20_1104	s	s	4	1	SIC	505	RC	1	0	23MC	1	0	1.01901817322	224.0	11.0	231	6	1
1.7	2015_Jul_20_1104	s	s	4	1	SIC	506	RC	1	1	23MO	1	0	1.40376901627	-452.0	71.0	-448	71	1
1.7	2015_Jul_20_1104	s	s	4	1	SIC	507	RC	0	2	23RD	1	0	0.665663957596	-517.0	-219.0	-511	-225	1
1.7	2015_Jul_20_1104	s	s	4	1	SIC	508	RC	2	0	23VC	1	0	0.64234995842	-517.0	316.0	-515	311	1
1.7	2015_Jul_20_1104	s	s	4	1	SIC	509	ABS	1	1	24MO	0	1	1.04059910774	None	None	None	None	1
1.7	2015_Jul_20_1104	s	s	4	1	SIC	510	ABS	0	1	24RO	0	1	2.6547999382	None	None	None	None	1
1.7	2015_Jul_20_1104	s	s	4	1	SIC	511	RC	0	1	23RO	0	1	0.858583927155	-444.0	259.0	None	None	0
1.7	2015_Jul_20_1104	s	s	4	1	SIC	512	ABS	0	2	24RD	0	1	0.594954967499	None	None	None	None	1
1.7	2015_Jul_20_1104	s	s	4	1	SIC	513	RC	1	2	23MD	1	0	0.823406934738	-233.0	-356.0	-230	-363	1
1.7	2015_Jul_20_1104	s	s	4	1	SIC	514	ABS	0	2	24RD	0	1	0.653561115265	None	None	None	None	1
1.7	2015_Jul_20_1104	s	s	4	1	SIC	515	RC	1	0	23MC	0	1	1.18500900269	506.0	-380.0	None	None	0
1.7	2015_Jul_20_1104	s	s	4	1	SIC	516	RC	2	0	23VC	1	0	0.559557199478	-95.0	-272.0	-92	-270	1
1.7	2015_Jul_20_1104	s	s	4	1	SIC	517	RC	0	2	23RD	0	1	1.62047314644	484.0	123.0	None	None	0
1.7	2015_Jul_20_1104	s	s	4	1	SIC	518	ABS	2	0	24VC	0	1	0.747101068497	None	None	None	None	1
1.7	2015_Jul_20_1104	s	s	4	1	SIC	519	ABS	1	1	24MO	0	1	1.15907597542	None	None	None	None	1
1.7	2015_Jul_20_1104	s	s	4	1	SIC	520	ABS	0	1	24RO	0	1	2.27713298798	None	None	None	None	1
1.7	2015_Jul_20_1104	s	s	4	1	SIC	521	RC	0	1	23RO	1	0	2.05715894699	150.0	-369.0	158	-375	1
1.7	2015_Jul_20_1104	s	s	4	1	SIC	522	ABS	2	1	24VO	0	1	0.956516027451	None	None	None	None	1
1.7	2015_Jul_20_1104	s	s	4	1	SIC	523	RC	2	1	23VO	1	0	0.646817922592	2.0	-216.0	6	-214	1
1.7	2015_Jul_20_1104	s	s	4	1	SIC	524	ABS	1	2	24MD	0	1	0.879684209824	None	None	None	None	1
1.7	2015_Jul_20_1104	s	s	4	1	SIC	525	ABS	1	0	24MC	0	1	1.05652117729	None	None	None	None	1
1.7	2015_Jul_20_1104	s	s	4	1	SIC	526	ABS	2	2	24VD	0	1	0.611423015594	None	None	None	None	1
1.7	2015_Jul_20_1104	s	s	4	1	SIC	527	RC	2	2	23VD	1	0	0.540666103363	171.0	-20.0	181	-16	1
1.7	2015_Jul_20_1104	s	s	4	1	SIC	528	RC	1	1	23MO	1	0	1.27044010162	-471.0	299.0	-464	302	1
1.7	2015_Jul_20_1104	s	s	4	1	SIC	529	ABS	0	1	24RO	0	1	2.79842710495	None	None	None	None	1
1.7	2015_Jul_20_1104	s	s	4	1	SIC	530	RC	1	0	23MC	1	0	0.853374958038	109.0	218.0	102	225	1
1.7	2015_Jul_20_1104	s	s	4	1	SIC	531	RC	2	1	23VO	1	0	0.529163837433	196.0	222.0	198	224	1
1.7	2015_Jul_20_1104	s	s	4	1	SIC	532	ABS	2	2	24VD	0	1	0.835108041763	None	None	None	None	1
1.7	2015_Jul_20_1104	s	s	4	1	SIC	533	RC	1	1	23MO	1	0	0.749044895172	167.0	28.0	160	25	1
1.7	2015_Jul_20_1104	s	s	4	1	SIC	534	ABS	1	0	24MC	0	1	2.31803917885	None	None	None	None	1
1.7	2015_Jul_20_1104	s	s	4	1	SIC	535	RC	0	1	23RO	0	1	1.37463212013	426.0	115.0	None	None	0
1.7	2015_Jul_20_1104	s	s	4	1	SIC	536	ABS	1	2	24MD	0	1	0.823730945587	None	None	None	None	1
1.7	2015_Jul_20_1104	s	s	4	1	SIC	537	RC	1	2	23MD	1	0	0.599795103073	-147.0	-224.0	-141	-219	1
1.7	2015_Jul_20_1104	s	s	4	1	SIC	538	ABS	0	2	24RD	0	1	0.938419818878	None	None	None	None	1
1.7	2015_Jul_20_1104	s	s	4	1	SIC	539	ABS	1	1	24MO	0	1	1.17397785187	None	None	None	None	1
1.7	2015_Jul_20_1104	s	s	4	1	SIC	540	RC	2	0	23VC	1	0	0.995432853699	160.0	354.0	132	229	0
1.7	2015_Jul_20_1104	s	s	4	1	SIC	541	RC	2	2	23VD	1	0	0.7055311203	191.0	-194.0	184	-201	1
1.7	2015_Jul_20_1104	s	s	4	1	SIC	542	RC	0	2	23RD	1	0	0.832668066025	-467.0	327.0	-472	321	1
1.7	2015_Jul_20_1104	s	s	4	1	SIC	543	ABS	2	1	24VO	0	1	0.893857955933	None	None	None	None	1
1.7	2015_Jul_20_1104	s	s	4	1	SIC	544	ABS	2	0	24VC	0	1	0.525308847427	None	None	None	None	1
1.7	2015_Jul_20_1104	s	s	4	1	SIC	545	RC	1	2	23MD	1	0	0.55966091156	385.0	-84.0	384	-84	1
1.7	2015_Jul_20_1104	s	s	4	1	SIC	546	ABS	2	0	24VC	0	1	1.02340102196	None	None	None	None	1
1.7	2015_Jul_20_1104	s	s	4	1	SIC	547	ABS	0	2	24RD	0	1	0.611342906952	None	None	None	None	1
1.7	2015_Jul_20_1104	s	s	4	1	SIC	548	RC	2	1	23VO	1	0	0.594264984131	-450.0	-151.0	-456	-148	1
1.7	2015_Jul_20_1104	s	s	4	1	SIC	549	ABS	2	2	24VD	0	1	1.16468286514	None	None	None	None	1
1.7	2015_Jul_20_1104	s	s	4	1	SIC	550	ABS	1	1	24MO	0	1	8.08305287361	None	None	None	None	1
1.7	2015_Jul_20_1104	s	s	4	1	SIC	551	ABS	1	2	24MD	1	0	1.21901798248	None	None	82	-29	0
1.7	2015_Jul_20_1104	s	s	4	1	SIC	552	RC	2	2	23VD	1	0	0.744576931	386.0	-148.0	378	-140	1
1.7	2015_Jul_20_1104	s	s	4	1	SIC	553	ABS	1	0	24MC	0	1	1.36473083496	None	None	None	None	1
1.7	2015_Jul_20_1104	s	s	4	1	SIC	554	RC	1	1	23MO	1	0	0.611533880234	-373.0	124.0	-385	129	1
1.7	2015_Jul_20_1104	s	s	4	1	SIC	555	ABS	2	1	24VO	0	1	0.587934017181	None	None	None	None	1
1.7	2015_Jul_20_1104	s	s	4	1	SIC	556	RC	0	1	23RO	0	1	1.18828105927	93.0	-360.0	None	None	0
1.7	2015_Jul_20_1104	s	s	4	1	SIC	557	RC	1	0	23MC	0	1	1.49190998077	103.0	-318.0	None	None	0
1.7	2015_Jul_20_1104	s	s	4	1	SIC	558	RC	2	0	23VC	1	0	0.618262052536	500.0	328.0	511	334	1
1.7	2015_Jul_20_1104	s	s	4	1	SIC	559	RC	0	2	23RD	1	0	1.00761699677	-271.0	-278.0	-265	-280	1
1.7	2015_Jul_20_1104	s	s	4	1	SIC	560	ABS	0	1	24RO	1	0	9.18688106537	None	None	86	-307	0
1.7	2015_Jul_20_1104	s	s	4	1	SIC	561	ABS	2	0	24VC	0	1	0.560492038727	None	None	None	None	1
1.7	2015_Jul_20_1104	s	s	4	1	SIC	562	RC	2	1	23VO	1	0	0.552636146545	-139.0	274.0	-133	280	1
1.7	2015_Jul_20_1104	s	s	4	1	SIC	563	RC	0	2	23RD	1	0	0.586026906967	-475.0	-125.0	-480	-132	1
1.7	2015_Jul_20_1104	s	s	4	1	SIC	564	RC	1	1	23MO	1	0	0.658465147018	-48.0	164.0	-56	166	1
1.7	2015_Jul_20_1104	s	s	4	1	SIC	565	ABS	1	2	24MD	0	1	0.893898010254	None	None	None	None	1
1.7	2015_Jul_20_1104	s	s	4	1	SIC	566	ABS	1	0	24MC	0	1	1.13760519028	None	None	None	None	1
1.7	2015_Jul_20_1104	s	s	4	1	SIC	567	ABS	0	1	24RO	0	1	1.30591797829	None	None	None	None	1
1.7	2015_Jul_20_1104	s	s	4	1	SIC	568	ABS	1	1	24MO	0	1	0.784420967102	None	None	None	None	1
1.7	2015_Jul_20_1104	s	s	4	1	SIC	569	RC	2	0	23VC	1	0	0.634979009628	-112.0	358.0	-116	356	1
1.7	2015_Jul_20_1104	s	s	4	1	SIC	570	RC	1	0	23MC	1	0	0.900763034821	-95.0	115.0	-91	125	1
1.7	2015_Jul_20_1104	s	s	4	1	SIC	571	ABS	0	2	24RD	0	1	0.587944984436	None	None	None	None	1
1.7	2015_Jul_20_1104	s	s	4	1	SIC	572	ABS	2	2	24VD	0	1	0.559605121613	None	None	None	None	1
1.7	2015_Jul_20_1104	s	s	4	1	SIC	573	RC	1	2	23MD	1	0	0.634814977646	535.0	-170.0	549	-165	1
1.7	2015_Jul_20_1104	s	s	4	1	SIC	574	ABS	2	1	24VO	0	1	0.623089075089	None	None	None	None	1
1.7	2015_Jul_20_1104	s	s	4	1	SIC	575	RC	0	1	23RO	0	1	1.20003008842	522.0	-394.0	None	None	0
1.7	2015_Jul_20_1104	s	s	4	1	SIC	576	RC	2	2	23VD	1	0	0.549932956696	-158.0	281.0	-151	280	1
1.7	2015_Jul_20_1104	s	s	4	1	SIC	577	RC	2	1	23VO	1	0	0.446684837341	429.0	272.0	426	273	1
1.7	2015_Jul_20_1104	s	s	4	1	SIC	578	RC	2	2	23VD	1	0	0.69394993782	-412.0	42.0	-419	36	1
1.7	2015_Jul_20_1104	s	s	4	1	SIC	579	RC	0	2	23RD	1	0	0.630001068115	5.0	-280.0	16	-271	1
1.7	2015_Jul_20_1104	s	s	4	1	SIC	580	ABS	0	2	24RD	0	1	1.10592103004	None	None	None	None	1
1.7	2015_Jul_20_1104	s	s	4	1	SIC	581	ABS	1	0	24MC	0	1	1.11453294754	None	None	None	None	1
1.7	2015_Jul_20_1104	s	s	4	1	SIC	582	ABS	1	2	24MD	0	1	0.608632802963	None	None	None	None	1
1.7	2015_Jul_20_1104	s	s	4	1	SIC	583	ABS	2	2	24VD	0	1	0.49130988121	None	None	None	None	1
1.7	2015_Jul_20_1104	s	s	4	1	SIC	584	ABS	1	1	24MO	0	1	1.63551902771	None	None	None	None	1
1.7	2015_Jul_20_1104	s	s	4	1	SIC	585	ABS	2	0	24VC	0	1	1.55309295654	None	None	None	None	1
1.7	2015_Jul_20_1104	s	s	4	1	SIC	586	ABS	2	1	24VO	0	1	0.505584001541	None	None	None	None	1
1.7	2015_Jul_20_1104	s	s	4	1	SIC	587	RC	1	2	23MD	1	0	0.735494852066	-120.0	-399.0	-129	-403	1
1.7	2015_Jul_20_1104	s	s	4	1	SIC	588	RC	0	1	23RO	1	0	1.73491311073	-532.0	-355.0	-536	-356	1
1.7	2015_Jul_20_1104	s	s	4	1	SIC	589	RC	2	0	23VC	1	0	0.656352996826	-58.0	277.0	-67	276	1
1.7	2015_Jul_20_1104	s	s	4	1	SIC	590	ABS	0	1	24RO	0	1	1.7413880825	None	None	None	None	1
1.7	2015_Jul_20_1104	s	s	4	1	SIC	591	RC	1	0	23MC	1	0	0.85630106926	-418.0	-272.0	-424	-269	1
1.7	2015_Jul_20_1104	s	s	4	1	SIC	592	RC	1	1	23MO	1	0	0.997668027878	427.0	318.0	442	324	1
