Version	Date	Stimuli	Method	Subject	Session	Condition	Trial	Target	Channel1	Channel2	Distractors	LMouseButton	RMouseButton	RT	TargetX	TargetY	ResponseX	ResponseY	Correct
1.7	2015_Jul_23_0913	s	s	5	4	Capacity	1	ABS	1	0	24MC	0	1	4.74292492867	None	None	None	None	1
1.7	2015_Jul_23_0913	s	s	5	4	Capacity	2	ABS	2	0	24VC	0	1	1.42365908623	None	None	None	None	1
1.7	2015_Jul_23_0913	s	s	5	4	Capacity	3	RC	2	0	23VC	1	0	1.04295802116	-300.0	-321.0	-290	-312	1
1.7	2015_Jul_23_0913	s	s	5	4	Capacity	4	RC	1	0	23MC	1	0	1.51303005219	403.0	-278.0	411	-279	1
1.7	2015_Jul_23_0913	s	s	5	4	Capacity	5	RC	2	0	23VC	1	0	0.646744012833	275.0	-138.0	270	-138	1
1.7	2015_Jul_23_0913	s	s	5	4	Capacity	6	RC	1	0	23MC	1	0	1.57674098015	9.0	202.0	8	206	1
1.7	2015_Jul_23_0913	s	s	5	4	Capacity	7	ABS	1	0	24MC	0	1	4.46778392792	None	None	None	None	1
1.7	2015_Jul_23_0913	s	s	5	4	Capacity	8	ABS	2	0	24VC	0	1	1.05847406387	None	None	None	None	1
1.7	2015_Jul_23_0913	s	s	5	4	Capacity	9	ABS	2	0	24VC	0	1	2.07735610008	None	None	None	None	1
1.7	2015_Jul_23_0913	s	s	5	4	Capacity	10	ABS	1	0	24MC	0	1	4.47217178345	None	None	None	None	1
1.7	2015_Jul_23_0913	s	s	5	4	Capacity	11	RC	2	0	23VC	1	0	0.682087898254	-475.0	-370.0	-471	-370	1
1.7	2015_Jul_23_0913	s	s	5	4	Capacity	12	RC	1	0	23MC	1	0	0.870315074921	-362.0	-99.0	-369	-94	1
1.7	2015_Jul_23_0913	s	s	5	4	Capacity	13	RC	1	0	23MC	1	0	0.701885938644	115.0	38.0	112	35	1
1.7	2015_Jul_23_0913	s	s	5	4	Capacity	14	RC	2	0	23VC	1	0	0.735891103745	-247.0	218.0	-243	213	1
1.7	2015_Jul_23_0913	s	s	5	4	Capacity	15	ABS	2	0	24VC	0	1	1.10234117508	None	None	None	None	1
1.7	2015_Jul_23_0913	s	s	5	4	Capacity	16	ABS	1	0	24MC	0	1	3.91578793526	None	None	None	None	1
1.7	2015_Jul_23_0913	s	s	5	4	Capacity	17	RC	1	0	23MC	1	0	1.36518096924	420.0	114.0	434	120	1
1.7	2015_Jul_23_0913	s	s	5	4	Capacity	18	ABS	1	0	24MC	0	1	2.98615503311	None	None	None	None	1
1.7	2015_Jul_23_0913	s	s	5	4	Capacity	19	ABS	2	0	24VC	0	1	1.05362486839	None	None	None	None	1
1.7	2015_Jul_23_0913	s	s	5	4	Capacity	20	RC	2	0	23VC	1	0	0.619307994843	-470.0	-49.0	-466	-47	1
1.7	2015_Jul_23_0913	s	s	5	4	Capacity	21	RC	1	0	23MC	0	1	1.30082678795	287.0	-171.0	None	None	0
1.7	2015_Jul_23_0913	s	s	5	4	Capacity	22	ABS	1	0	24MC	0	1	3.13715004921	None	None	None	None	1
1.7	2015_Jul_23_0913	s	s	5	4	Capacity	23	RC	2	0	23VC	1	0	0.694133996964	-68.0	406.0	-66	411	1
1.7	2015_Jul_23_0913	s	s	5	4	Capacity	24	ABS	2	0	24VC	0	1	1.67665219307	None	None	None	None	1
1.7	2015_Jul_23_0913	s	s	5	4	Capacity	25	ABS	2	0	24VC	0	1	0.752825021744	None	None	None	None	1
1.7	2015_Jul_23_0913	s	s	5	4	Capacity	26	RC	2	0	23VC	1	0	0.611901044846	-204.0	334.0	-197	334	1
1.7	2015_Jul_23_0913	s	s	5	4	Capacity	27	RC	1	0	23MC	1	0	0.646713972092	-177.0	154.0	-175	154	1
1.7	2015_Jul_23_0913	s	s	5	4	Capacity	28	ABS	1	0	24MC	0	1	2.88973116875	None	None	None	None	1
1.7	2015_Jul_23_0913	s	s	5	4	Capacity	29	RC	1	0	23MC	1	0	0.712551116943	284.0	27.0	287	33	1
1.7	2015_Jul_23_0913	s	s	5	4	Capacity	30	ABS	2	0	24VC	0	1	1.13650393486	None	None	None	None	1
1.7	2015_Jul_23_0913	s	s	5	4	Capacity	31	ABS	1	0	24MC	0	1	3.18922495842	None	None	None	None	1
1.7	2015_Jul_23_0913	s	s	5	4	Capacity	32	RC	2	0	23VC	1	0	0.582931995392	235.0	346.0	235	346	1
1.7	2015_Jul_23_0913	s	s	5	4	Capacity	33	RC	2	0	23VC	1	0	0.535737991333	78.0	351.0	80	350	1
1.7	2015_Jul_23_0913	s	s	5	4	Capacity	34	ABS	1	0	24MC	0	1	2.75058913231	None	None	None	None	1
1.7	2015_Jul_23_0913	s	s	5	4	Capacity	35	RC	1	0	23MC	1	0	0.988168954849	253.0	-168.0	254	-170	1
1.7	2015_Jul_23_0913	s	s	5	4	Capacity	36	ABS	2	0	24VC	0	1	1.0418279171	None	None	None	None	1
1.7	2015_Jul_23_0913	s	s	5	4	Capacity	37	RC	1	0	23MC	1	0	0.795398950577	-506.0	-207.0	-498	-200	1
1.7	2015_Jul_23_0913	s	s	5	4	Capacity	38	ABS	2	0	24VC	0	1	1.76475811005	None	None	None	None	1
1.7	2015_Jul_23_0913	s	s	5	4	Capacity	39	RC	2	0	23VC	1	0	0.67907500267	-375.0	-358.0	-370	-358	1
1.7	2015_Jul_23_0913	s	s	5	4	Capacity	40	ABS	1	0	24MC	0	1	2.65144610405	None	None	None	None	1
1.7	2015_Jul_23_0913	s	s	5	4	Capacity	41	RC	2	0	23VC	1	0	0.596916913986	112.0	81.0	111	77	1
1.7	2015_Jul_23_0913	s	s	5	4	Capacity	42	ABS	2	0	24VC	0	1	1.4894092083	None	None	None	None	1
1.7	2015_Jul_23_0913	s	s	5	4	Capacity	43	RC	1	0	23MC	1	0	1.04169797897	-334.0	223.0	-336	226	1
1.7	2015_Jul_23_0913	s	s	5	4	Capacity	44	ABS	1	0	24MC	0	1	2.00042486191	None	None	None	None	1
1.7	2015_Jul_23_0913	s	s	5	4	Capacity	45	ABS	2	0	24VC	0	1	1.2649230957	None	None	None	None	1
1.7	2015_Jul_23_0913	s	s	5	4	Capacity	46	RC	2	0	23VC	1	0	0.779924869537	-216.0	-51.0	-206	-47	1
1.7	2015_Jul_23_0913	s	s	5	4	Capacity	47	RC	1	0	23MC	1	0	0.712447166443	-506.0	-123.0	-499	-123	1
1.7	2015_Jul_23_0913	s	s	5	4	Capacity	48	ABS	1	0	24MC	0	1	2.14777994156	None	None	None	None	1
1.7	2015_Jul_23_0913	s	s	5	4	Capacity	49	ABS	1	0	24MC	0	1	2.60086202621	None	None	None	None	1
1.7	2015_Jul_23_0913	s	s	5	4	Capacity	50	RC	1	0	23MC	1	0	1.41177392006	398.0	210.0	393	202	1
1.7	2015_Jul_23_0913	s	s	5	4	Capacity	51	RC	2	0	23VC	1	0	0.629995822906	-478.0	119.0	-475	124	1
1.7	2015_Jul_23_0913	s	s	5	4	Capacity	52	ABS	2	0	24VC	0	1	1.20688509941	None	None	None	None	1
1.7	2015_Jul_23_0913	s	s	5	4	Capacity	53	ABS	1	0	24MC	0	1	1.94525694847	None	None	None	None	1
1.7	2015_Jul_23_0913	s	s	5	4	Capacity	54	RC	1	0	23MC	1	0	0.999840021133	44.0	348.0	43	352	1
1.7	2015_Jul_23_0913	s	s	5	4	Capacity	55	RC	2	0	23VC	1	0	0.705646038055	-229.0	360.0	-223	364	1
1.7	2015_Jul_23_0913	s	s	5	4	Capacity	56	ABS	2	0	24VC	0	1	0.818081140518	None	None	None	None	1
1.7	2015_Jul_23_0913	s	s	5	4	Capacity	57	ABS	2	0	24VC	0	1	0.96457695961	None	None	None	None	1
1.7	2015_Jul_23_0913	s	s	5	4	Capacity	58	RC	1	0	23MC	1	0	0.764453172684	7.0	147.0	-2	147	1
1.7	2015_Jul_23_0913	s	s	5	4	Capacity	59	ABS	1	0	24MC	0	1	1.92982006073	None	None	None	None	1
1.7	2015_Jul_23_0913	s	s	5	4	Capacity	60	RC	2	0	23VC	1	0	0.564359903336	-172.0	-7.0	-166	-10	1
1.7	2015_Jul_23_0913	s	s	5	4	Capacity	61	RC	1	0	23MC	1	0	1.22347712517	32.0	-354.0	40	-355	1
1.7	2015_Jul_23_0913	s	s	5	4	Capacity	62	ABS	1	0	24MC	0	1	2.48293709755	None	None	None	None	1
1.7	2015_Jul_23_0913	s	s	5	4	Capacity	63	RC	2	0	23VC	1	0	0.717337846756	-465.0	10.0	-468	2	1
1.7	2015_Jul_23_0913	s	s	5	4	Capacity	64	ABS	2	0	24VC	0	1	0.799560785294	None	None	None	None	1
1.7	2015_Jul_23_0913	s	s	5	4	Capacity	65	RC	1	0	23MC	1	0	1.14119887352	286.0	400.0	284	399	1
1.7	2015_Jul_23_0913	s	s	5	4	Capacity	66	ABS	2	0	24VC	0	1	0.84678196907	None	None	None	None	1
1.7	2015_Jul_23_0913	s	s	5	4	Capacity	67	ABS	1	0	24MC	0	1	1.96034693718	None	None	None	None	1
1.7	2015_Jul_23_0913	s	s	5	4	Capacity	68	RC	2	0	23VC	1	0	0.599727869034	464.0	192.0	466	195	1
1.7	2015_Jul_23_0913	s	s	5	4	Capacity	69	ABS	1	0	24MC	0	1	1.81864380836	None	None	None	None	1
1.7	2015_Jul_23_0913	s	s	5	4	Capacity	70	RC	1	0	23MC	1	0	0.905565023422	269.0	-94.0	271	-94	1
1.7	2015_Jul_23_0913	s	s	5	4	Capacity	71	ABS	2	0	24VC	0	1	1.04133200645	None	None	None	None	1
1.7	2015_Jul_23_0913	s	s	5	4	Capacity	72	RC	2	0	23VC	1	0	0.576075077057	-343.0	-123.0	-342	-122	1
1.7	2015_Jul_23_0913	s	s	5	4	Capacity	73	ABS	1	0	24MC	0	1	1.25633192062	None	None	None	None	1
1.7	2015_Jul_23_0913	s	s	5	4	Capacity	74	ABS	2	0	24VC	0	1	0.788027048111	None	None	None	None	1
1.7	2015_Jul_23_0913	s	s	5	4	Capacity	75	RC	1	0	23MC	1	0	1.14112687111	-437.0	373.0	-442	377	1
1.7	2015_Jul_23_0913	s	s	5	4	Capacity	76	RC	2	0	23VC	1	0	0.540808916092	21.0	265.0	14	262	1
1.7	2015_Jul_23_0913	s	s	5	4	Capacity	77	RC	1	0	23MC	1	0	0.735467910767	-262.0	372.0	-265	373	1
1.7	2015_Jul_23_0913	s	s	5	4	Capacity	78	RC	2	0	23VC	1	0	0.52642583847	-192.0	-38.0	-192	-37	1
1.7	2015_Jul_23_0913	s	s	5	4	Capacity	79	ABS	1	0	24MC	0	1	2.29446291924	None	None	None	None	1
1.7	2015_Jul_23_0913	s	s	5	4	Capacity	80	ABS	2	0	24VC	0	1	0.82999587059	None	None	None	None	1
1.7	2015_Jul_23_0913	s	s	5	4	Capacity	81	ABS	1	0	24MC	0	1	2.28275108337	None	None	None	None	1
1.7	2015_Jul_23_0913	s	s	5	4	Capacity	82	RC	2	0	23VC	1	0	0.867913961411	323.0	145.0	324	149	1
1.7	2015_Jul_23_0913	s	s	5	4	Capacity	83	ABS	2	0	24VC	0	1	1.1529109478	None	None	None	None	1
1.7	2015_Jul_23_0913	s	s	5	4	Capacity	84	RC	1	0	23MC	1	0	0.788069963455	91.0	53.0	104	61	1
1.7	2015_Jul_23_0913	s	s	5	4	Capacity	85	ABS	2	0	24VC	0	1	0.587867021561	None	None	None	None	1
1.7	2015_Jul_23_0913	s	s	5	4	Capacity	86	ABS	1	0	24MC	0	1	2.22071695328	None	None	None	None	1
1.7	2015_Jul_23_0913	s	s	5	4	Capacity	87	RC	2	0	23VC	1	0	0.664174795151	442.0	55.0	450	55	1
1.7	2015_Jul_23_0913	s	s	5	4	Capacity	88	RC	1	0	23MC	1	0	0.705574989319	-405.0	102.0	-411	99	1
1.7	2015_Jul_23_0913	s	s	5	4	Capacity	89	ABS	2	0	24VC	0	1	0.68575501442	None	None	None	None	1
1.7	2015_Jul_23_0913	s	s	5	4	Capacity	90	ABS	1	0	24MC	0	1	1.34800195694	None	None	None	None	1
1.7	2015_Jul_23_0913	s	s	5	4	Capacity	91	RC	1	0	23MC	1	0	1.13621091843	458.0	-70.0	460	-74	1
1.7	2015_Jul_23_0913	s	s	5	4	Capacity	92	RC	2	0	23VC	1	0	0.782455921173	-87.0	-322.0	-79	-328	1
1.7	2015_Jul_23_0913	s	s	5	4	Capacity	1	RC	0	1	23RO	1	0	2.55106711388	189.0	129.0	196	127	1
1.7	2015_Jul_23_0913	s	s	5	4	Capacity	2	RC	0	2	23RD	1	0	1.47677206993	521.0	-405.0	521	-409	1
1.7	2015_Jul_23_0913	s	s	5	4	Capacity	3	ABS	0	1	24RO	0	1	5.07248997688	None	None	None	None	1
1.7	2015_Jul_23_0913	s	s	5	4	Capacity	4	ABS	0	2	24RD	0	1	1.18512296677	None	None	None	None	1
1.7	2015_Jul_23_0913	s	s	5	4	Capacity	5	RC	0	2	23RD	1	0	0.665369033813	345.0	199.0	345	201	1
1.7	2015_Jul_23_0913	s	s	5	4	Capacity	6	ABS	0	2	24RD	0	1	1.21182608604	None	None	None	None	1
1.7	2015_Jul_23_0913	s	s	5	4	Capacity	7	RC	0	1	23RO	1	0	3.89233613014	-320.0	-386.0	-318	-385	1
1.7	2015_Jul_23_0913	s	s	5	4	Capacity	8	ABS	0	1	24RO	0	1	5.89076495171	None	None	None	None	1
1.7	2015_Jul_23_0913	s	s	5	4	Capacity	9	ABS	0	2	24RD	0	1	1.03517103195	None	None	None	None	1
1.7	2015_Jul_23_0913	s	s	5	4	Capacity	10	RC	0	1	23RO	1	0	0.87081694603	-62.0	104.0	-62	108	1
1.7	2015_Jul_23_0913	s	s	5	4	Capacity	11	RC	0	2	23RD	1	0	0.667614936829	-71.0	344.0	-68	353	1
1.7	2015_Jul_23_0913	s	s	5	4	Capacity	12	ABS	0	1	24RO	0	1	4.82035303116	None	None	None	None	1
1.7	2015_Jul_23_0913	s	s	5	4	Capacity	13	ABS	0	2	24RD	0	1	1.11758995056	None	None	None	None	1
1.7	2015_Jul_23_0913	s	s	5	4	Capacity	14	ABS	0	1	24RO	0	1	4.91424298286	None	None	None	None	1
1.7	2015_Jul_23_0913	s	s	5	4	Capacity	15	RC	0	1	23RO	1	0	0.773477077484	22.0	-139.0	26	-139	1
1.7	2015_Jul_23_0913	s	s	5	4	Capacity	16	RC	0	2	23RD	1	0	0.594771146774	333.0	158.0	340	156	1
1.7	2015_Jul_23_0913	s	s	5	4	Capacity	17	RC	0	1	23RO	1	0	2.79462814331	313.0	290.0	319	294	1
1.7	2015_Jul_23_0913	s	s	5	4	Capacity	18	ABS	0	2	24RD	0	1	1.57291102409	None	None	None	None	1
1.7	2015_Jul_23_0913	s	s	5	4	Capacity	19	ABS	0	1	24RO	0	1	4.77818202972	None	None	None	None	1
1.7	2015_Jul_23_0913	s	s	5	4	Capacity	20	RC	0	2	23RD	1	0	0.623198986053	-314.0	-121.0	-323	-115	1
1.7	2015_Jul_23_0913	s	s	5	4	Capacity	21	ABS	0	1	24RO	0	1	5.71412611008	None	None	None	None	1
1.7	2015_Jul_23_0913	s	s	5	4	Capacity	22	RC	0	2	23RD	1	0	0.618387937546	-130.0	-406.0	-135	-410	1
1.7	2015_Jul_23_0913	s	s	5	4	Capacity	23	RC	0	1	23RO	1	0	5.15487313271	79.0	379.0	77	386	1
1.7	2015_Jul_23_0913	s	s	5	4	Capacity	24	ABS	0	2	24RD	0	1	0.929100990295	None	None	None	None	1
1.7	2015_Jul_23_0913	s	s	5	4	Capacity	25	RC	0	2	23RD	1	0	0.587933063507	-404.0	-280.0	-412	-278	1
1.7	2015_Jul_23_0913	s	s	5	4	Capacity	26	ABS	0	2	24RD	0	1	0.905606031418	None	None	None	None	1
1.7	2015_Jul_23_0913	s	s	5	4	Capacity	27	ABS	0	1	24RO	0	1	6.4026081562	None	None	None	None	1
1.7	2015_Jul_23_0913	s	s	5	4	Capacity	28	RC	0	1	23RO	1	0	5.07615590096	-276.0	-116.0	-282	-112	1
1.7	2015_Jul_23_0913	s	s	5	4	Capacity	29	ABS	0	2	24RD	0	1	0.941112041473	None	None	None	None	1
1.7	2015_Jul_23_0913	s	s	5	4	Capacity	30	ABS	0	1	24RO	0	1	5.06068897247	None	None	None	None	1
1.7	2015_Jul_23_0913	s	s	5	4	Capacity	31	RC	0	2	23RD	1	0	1.21878910065	387.0	-39.0	384	-45	1
1.7	2015_Jul_23_0913	s	s	5	4	Capacity	32	RC	0	1	23RO	1	0	0.799685001373	159.0	47.0	158	54	1
1.7	2015_Jul_23_0913	s	s	5	4	Capacity	33	ABS	0	2	24RD	0	1	1.76492094994	None	None	None	None	1
1.7	2015_Jul_23_0913	s	s	5	4	Capacity	34	RC	0	2	23RD	1	0	1.32444405556	-515.0	120.0	-509	112	1
1.7	2015_Jul_23_0913	s	s	5	4	Capacity	35	RC	0	1	23RO	1	0	2.54172420502	54.0	-109.0	58	-113	1
1.7	2015_Jul_23_0913	s	s	5	4	Capacity	36	ABS	0	1	24RO	0	1	5.52841997147	None	None	None	None	1
1.7	2015_Jul_23_0913	s	s	5	4	Capacity	37	RC	0	2	23RD	1	0	0.640693902969	-161.0	361.0	-168	361	1
1.7	2015_Jul_23_0913	s	s	5	4	Capacity	38	ABS	0	1	24RO	0	1	5.66085505486	None	None	None	None	1
1.7	2015_Jul_23_0913	s	s	5	4	Capacity	39	ABS	0	2	24RD	0	1	1.04691195488	None	None	None	None	1
1.7	2015_Jul_23_0913	s	s	5	4	Capacity	40	RC	0	1	23RO	1	0	4.02488207817	325.0	-63.0	325	-63	1
1.7	2015_Jul_23_0913	s	s	5	4	Capacity	41	RC	0	1	23RO	1	0	1.96165895462	82.0	-322.0	78	-325	1
1.7	2015_Jul_23_0913	s	s	5	4	Capacity	42	ABS	0	1	24RO	0	1	7.85036897659	None	None	None	None	1
1.7	2015_Jul_23_0913	s	s	5	4	Capacity	43	ABS	0	2	24RD	0	1	1.11290216446	None	None	None	None	1
1.7	2015_Jul_23_0913	s	s	5	4	Capacity	44	RC	0	2	23RD	1	0	0.962078809738	291.0	324.0	293	330	1
1.7	2015_Jul_23_0913	s	s	5	4	Capacity	45	RC	0	2	23RD	1	0	0.54761505127	122.0	129.0	123	131	1
1.7	2015_Jul_23_0913	s	s	5	4	Capacity	46	ABS	0	2	24RD	0	1	0.995917081833	None	None	None	None	1
1.7	2015_Jul_23_0913	s	s	5	4	Capacity	47	ABS	0	1	24RO	0	1	6.90865683556	None	None	None	None	1
1.7	2015_Jul_23_0913	s	s	5	4	Capacity	48	RC	0	1	23RO	1	0	2.16513586044	-466.0	246.0	-468	249	1
1.7	2015_Jul_23_0913	s	s	5	4	Capacity	49	ABS	0	1	24RO	0	1	5.53829503059	None	None	None	None	1
1.7	2015_Jul_23_0913	s	s	5	4	Capacity	50	RC	0	2	23RD	1	0	1.10575509071	-390.0	405.0	-385	408	1
1.7	2015_Jul_23_0913	s	s	5	4	Capacity	51	RC	0	1	23RO	0	1	7.14405918121	110.0	377.0	None	None	0
1.7	2015_Jul_23_0913	s	s	5	4	Capacity	52	ABS	0	2	24RD	0	1	1.11758708954	None	None	None	None	1
1.7	2015_Jul_23_0913	s	s	5	4	Capacity	53	ABS	0	2	24RD	0	1	2.30652403831	None	None	None	None	1
1.7	2015_Jul_23_0913	s	s	5	4	Capacity	54	ABS	0	1	24RO	0	1	9.29296398163	None	None	None	None	1
1.7	2015_Jul_23_0913	s	s	5	4	Capacity	55	RC	0	1	23RO	1	0	1.42363500595	315.0	276.0	314	272	1
1.7	2015_Jul_23_0913	s	s	5	4	Capacity	56	RC	0	2	23RD	1	0	0.677039861679	524.0	-174.0	530	-170	1
1.7	2015_Jul_23_0913	s	s	5	4	Capacity	57	ABS	0	1	24RO	0	1	6.05522704124	None	None	None	None	1
1.7	2015_Jul_23_0913	s	s	5	4	Capacity	58	RC	0	1	23RO	1	0	1.0642220974	471.0	19.0	472	23	1
1.7	2015_Jul_23_0913	s	s	5	4	Capacity	59	RC	0	2	23RD	1	0	0.529056072235	-39.0	149.0	-39	158	1
1.7	2015_Jul_23_0913	s	s	5	4	Capacity	60	ABS	0	2	24RD	0	1	0.983376979828	None	None	None	None	1
1.7	2015_Jul_23_0913	s	s	5	4	Capacity	61	RC	0	2	23RD	1	0	0.653700828552	-333.0	59.0	-326	63	1
1.7	2015_Jul_23_0913	s	s	5	4	Capacity	62	ABS	0	1	24RO	0	1	6.00234603882	None	None	None	None	1
1.7	2015_Jul_23_0913	s	s	5	4	Capacity	63	ABS	0	2	24RD	0	1	0.882217168808	None	None	None	None	1
1.7	2015_Jul_23_0913	s	s	5	4	Capacity	64	RC	0	1	23RO	1	0	0.90559720993	528.0	-92.0	534	-97	1
1.7	2015_Jul_23_0913	s	s	5	4	Capacity	65	ABS	0	1	24RO	0	1	5.44915604591	None	None	None	None	1
1.7	2015_Jul_23_0913	s	s	5	4	Capacity	66	RC	0	2	23RD	1	0	0.623234033585	-519.0	41.0	-518	35	1
1.7	2015_Jul_23_0913	s	s	5	4	Capacity	67	ABS	0	2	24RD	0	1	0.976428031921	None	None	None	None	1
1.7	2015_Jul_23_0913	s	s	5	4	Capacity	68	RC	0	1	23RO	1	0	6.82108807564	-317.0	42.0	-314	41	1
1.7	2015_Jul_23_0913	s	s	5	4	Capacity	69	ABS	0	2	24RD	0	1	0.983585119247	None	None	None	None	1
1.7	2015_Jul_23_0913	s	s	5	4	Capacity	70	RC	0	1	23RO	1	0	2.01886796951	-443.0	251.0	-446	253	1
1.7	2015_Jul_23_0913	s	s	5	4	Capacity	71	RC	0	2	23RD	1	0	0.537755012512	-13.0	186.0	-12	185	1
1.7	2015_Jul_23_0913	s	s	5	4	Capacity	72	ABS	0	1	24RO	0	1	8.62769007683	None	None	None	None	1
1.7	2015_Jul_23_0913	s	s	5	4	Capacity	73	RC	0	1	23RO	1	0	5.08426094055	-444.0	364.0	-445	367	1
1.7	2015_Jul_23_0913	s	s	5	4	Capacity	74	RC	0	2	23RD	1	0	0.61181807518	-239.0	43.0	-239	43	1
1.7	2015_Jul_23_0913	s	s	5	4	Capacity	75	ABS	0	1	24RO	0	1	6.93226504326	None	None	None	None	1
1.7	2015_Jul_23_0913	s	s	5	4	Capacity	76	ABS	0	2	24RD	0	1	0.832124948502	None	None	None	None	1
1.7	2015_Jul_23_0913	s	s	5	4	Capacity	77	ABS	0	2	24RD	0	1	1.01718902588	None	None	None	None	1
1.7	2015_Jul_23_0913	s	s	5	4	Capacity	78	ABS	0	1	24RO	0	1	8.06967806816	None	None	None	None	1
1.7	2015_Jul_23_0913	s	s	5	4	Capacity	79	RC	0	2	23RD	1	0	0.559324026108	-410.0	-17.0	-412	-9	1
1.7	2015_Jul_23_0913	s	s	5	4	Capacity	80	RC	0	1	23RO	1	0	2.43079590797	183.0	-209.0	189	-212	1
1.7	2015_Jul_23_0913	s	s	5	4	Capacity	81	ABS	0	1	24RO	0	1	7.00853395462	None	None	None	None	1
1.7	2015_Jul_23_0913	s	s	5	4	Capacity	82	ABS	0	2	24RD	0	1	1.4432528019	None	None	None	None	1
1.7	2015_Jul_23_0913	s	s	5	4	Capacity	83	RC	0	2	23RD	1	0	0.623206138611	99.0	1.0	94	-1	1
1.7	2015_Jul_23_0913	s	s	5	4	Capacity	84	RC	0	1	23RO	1	0	1.48246407509	-169.0	218.0	-177	221	1
1.7	2015_Jul_23_0913	s	s	5	4	Capacity	85	RC	0	1	23RO	1	0	0.867738008499	-124.0	137.0	-128	137	1
1.7	2015_Jul_23_0913	s	s	5	4	Capacity	86	ABS	0	2	24RD	0	1	1.70107388496	None	None	None	None	1
1.7	2015_Jul_23_0913	s	s	5	4	Capacity	87	RC	0	2	23RD	1	0	0.819658041	77.0	-339.0	83	-345	1
1.7	2015_Jul_23_0913	s	s	5	4	Capacity	88	ABS	0	1	24RO	0	1	14.3899052143	None	None	None	None	1
1.7	2015_Jul_23_0913	s	s	5	4	Capacity	89	RC	0	2	23RD	1	0	0.606570959091	242.0	-220.0	241	-218	1
1.7	2015_Jul_23_0913	s	s	5	4	Capacity	90	ABS	0	2	24RD	0	1	1.60068798065	None	None	None	None	1
1.7	2015_Jul_23_0913	s	s	5	4	Capacity	91	ABS	0	1	24RO	0	1	8.23641896248	None	None	None	None	1
1.7	2015_Jul_23_0913	s	s	5	4	Capacity	92	RC	0	1	23RO	1	0	0.711918115616	-49.0	-67.0	-51	-65	1
1.7	2015_Jul_23_0913	s	s	5	4	SIC	1	RC	1	0	23MC	1	0	1.47784018517	-285.0	222.0	-288	231	1
1.7	2015_Jul_23_0913	s	s	5	4	SIC	2	RC	2	1	23VO	1	0	3.14208984375	-537.0	-159.0	-531	-152	1
1.7	2015_Jul_23_0913	s	s	5	4	SIC	3	ABS	2	1	24VO	0	1	1.94141602516	None	None	None	None	1
1.7	2015_Jul_23_0913	s	s	5	4	SIC	4	RC	2	0	23VC	1	0	0.665288925171	427.0	-157.0	432	-153	1
1.7	2015_Jul_23_0913	s	s	5	4	SIC	5	RC	1	2	23MD	1	0	0.635001897812	-269.0	14.0	-264	18	1
1.7	2015_Jul_23_0913	s	s	5	4	SIC	6	ABS	1	0	24MC	0	1	3.67181706429	None	None	None	None	1
1.7	2015_Jul_23_0913	s	s	5	4	SIC	7	RC	2	2	23VD	1	0	0.681967020035	-302.0	315.0	-306	310	1
1.7	2015_Jul_23_0913	s	s	5	4	SIC	8	ABS	2	2	24VD	0	1	0.576262950897	None	None	None	None	1
1.7	2015_Jul_23_0913	s	s	5	4	SIC	9	RC	0	1	23RO	1	0	2.11808013916	-86.0	-24.0	-79	-24	1
1.7	2015_Jul_23_0913	s	s	5	4	SIC	10	ABS	1	2	24MD	0	1	0.858505964279	None	None	None	None	1
1.7	2015_Jul_23_0913	s	s	5	4	SIC	11	RC	0	2	23RD	1	0	0.611428022385	-534.0	-286.0	-528	-289	1
1.7	2015_Jul_23_0913	s	s	5	4	SIC	12	ABS	1	1	24MO	0	1	1.39259791374	None	None	None	None	1
1.7	2015_Jul_23_0913	s	s	5	4	SIC	13	RC	1	1	23MO	1	0	0.799748897552	-283.0	270.0	-277	277	1
1.7	2015_Jul_23_0913	s	s	5	4	SIC	14	ABS	0	2	24RD	0	1	1.03180003166	None	None	None	None	1
1.7	2015_Jul_23_0913	s	s	5	4	SIC	15	ABS	2	0	24VC	0	1	0.799797058105	None	None	None	None	1
1.7	2015_Jul_23_0913	s	s	5	4	SIC	16	ABS	0	1	24RO	0	1	4.99639010429	None	None	None	None	1
1.7	2015_Jul_23_0913	s	s	5	4	SIC	17	RC	1	2	23MD	1	0	0.64674282074	91.0	-208.0	94	-209	1
1.7	2015_Jul_23_0913	s	s	5	4	SIC	18	ABS	2	0	24VC	0	1	0.700601100922	None	None	None	None	1
1.7	2015_Jul_23_0913	s	s	5	4	SIC	19	RC	2	1	23VO	1	0	0.653615951538	-388.0	-411.0	-398	-402	1
1.7	2015_Jul_23_0913	s	s	5	4	SIC	20	ABS	2	1	24VO	0	1	0.784598112106	None	None	None	None	1
1.7	2015_Jul_23_0913	s	s	5	4	SIC	21	RC	1	0	23MC	1	0	1.27064108849	191.0	225.0	192	227	1
1.7	2015_Jul_23_0913	s	s	5	4	SIC	22	RC	0	2	23RD	1	0	0.623278141022	72.0	-147.0	68	-152	1
1.7	2015_Jul_23_0913	s	s	5	4	SIC	23	ABS	1	2	24MD	0	1	0.982265949249	None	None	None	None	1
1.7	2015_Jul_23_0913	s	s	5	4	SIC	24	ABS	1	1	24MO	0	1	2.84331989288	None	None	None	None	1
1.7	2015_Jul_23_0913	s	s	5	4	SIC	25	ABS	0	2	24RD	0	1	1.63004398346	None	None	None	None	1
1.7	2015_Jul_23_0913	s	s	5	4	SIC	26	RC	0	1	23RO	1	0	3.36557006836	287.0	-267.0	286	-270	1
1.7	2015_Jul_23_0913	s	s	5	4	SIC	27	ABS	1	0	24MC	0	1	3.64825391769	None	None	None	None	1
1.7	2015_Jul_23_0913	s	s	5	4	SIC	28	RC	2	2	23VD	1	0	0.700580120087	396.0	-384.0	403	-384	1
1.7	2015_Jul_23_0913	s	s	5	4	SIC	29	ABS	0	1	24RO	0	1	5.64959096909	None	None	None	None	1
1.7	2015_Jul_23_0913	s	s	5	4	SIC	30	RC	1	1	23MO	1	0	0.900627851486	95.0	214.0	94	220	1
1.7	2015_Jul_23_0913	s	s	5	4	SIC	31	RC	2	0	23VC	1	0	0.547538042068	-240.0	242.0	-241	244	1
1.7	2015_Jul_23_0913	s	s	5	4	SIC	32	ABS	2	2	24VD	0	1	0.717334032059	None	None	None	None	1
1.7	2015_Jul_23_0913	s	s	5	4	SIC	33	ABS	2	0	24VC	0	1	0.740946054459	None	None	None	None	1
1.7	2015_Jul_23_0913	s	s	5	4	SIC	34	RC	1	0	23MC	1	0	1.65944981575	472.0	171.0	479	173	1
1.7	2015_Jul_23_0913	s	s	5	4	SIC	35	RC	2	2	23VD	1	0	0.512241840363	92.0	109.0	99	104	1
1.7	2015_Jul_23_0913	s	s	5	4	SIC	36	ABS	2	1	24VO	0	1	0.858564138412	None	None	None	None	1
1.7	2015_Jul_23_0913	s	s	5	4	SIC	37	ABS	0	1	24RO	0	1	5.34325885773	None	None	None	None	1
1.7	2015_Jul_23_0913	s	s	5	4	SIC	38	ABS	2	2	24VD	0	1	0.764467000961	None	None	None	None	1
1.7	2015_Jul_23_0913	s	s	5	4	SIC	39	RC	2	1	23VO	1	0	0.753097057343	-233.0	345.0	-237	352	1
1.7	2015_Jul_23_0913	s	s	5	4	SIC	40	ABS	1	2	24MD	0	1	0.794716119766	None	None	None	None	1
1.7	2015_Jul_23_0913	s	s	5	4	SIC	41	RC	0	2	23RD	1	0	0.698271989822	-101.0	-225.0	-101	-226	1
1.7	2015_Jul_23_0913	s	s	5	4	SIC	42	ABS	0	2	24RD	0	1	1.48916220665	None	None	None	None	1
1.7	2015_Jul_23_0913	s	s	5	4	SIC	43	RC	1	1	23MO	1	0	3.25980091095	-462.0	137.0	-462	139	1
1.7	2015_Jul_23_0913	s	s	5	4	SIC	44	RC	2	0	23VC	1	0	0.559425830841	446.0	110.0	451	112	1
1.7	2015_Jul_23_0913	s	s	5	4	SIC	45	RC	1	2	23MD	1	0	0.893898963928	265.0	-396.0	270	-390	1
1.7	2015_Jul_23_0913	s	s	5	4	SIC	46	ABS	1	0	24MC	0	1	4.40831613541	None	None	None	None	1
1.7	2015_Jul_23_0913	s	s	5	4	SIC	47	RC	0	1	23RO	1	0	2.35350799561	45.0	-84.0	44	-84	1
1.7	2015_Jul_23_0913	s	s	5	4	SIC	48	ABS	1	1	24MO	0	1	1.867623806	None	None	None	None	1
1.7	2015_Jul_23_0913	s	s	5	4	SIC	49	ABS	2	2	24VD	0	1	0.681922197342	None	None	None	None	1
1.7	2015_Jul_23_0913	s	s	5	4	SIC	50	ABS	0	2	24RD	0	1	1.00722718239	None	None	None	None	1
1.7	2015_Jul_23_0913	s	s	5	4	SIC	51	ABS	2	1	24VO	0	1	0.611397027969	None	None	None	None	1
1.7	2015_Jul_23_0913	s	s	5	4	SIC	52	RC	1	2	23MD	1	0	0.634985923767	1.0	-117.0	-4	-115	1
1.7	2015_Jul_23_0913	s	s	5	4	SIC	53	ABS	1	2	24MD	0	1	0.782951116562	None	None	None	None	1
1.7	2015_Jul_23_0913	s	s	5	4	SIC	54	RC	1	0	23MC	1	0	0.914324998856	229.0	-20.0	231	-28	1
1.7	2015_Jul_23_0913	s	s	5	4	SIC	55	ABS	1	0	24MC	0	1	2.80928897858	None	None	None	None	1
1.7	2015_Jul_23_0913	s	s	5	4	SIC	56	RC	1	1	23MO	1	0	0.608799934387	182.0	-23.0	178	-18	1
1.7	2015_Jul_23_0913	s	s	5	4	SIC	57	RC	0	1	23RO	0	1	5.83266687393	423.0	-355.0	None	None	0
1.7	2015_Jul_23_0913	s	s	5	4	SIC	58	ABS	0	1	24RO	0	1	6.01414704323	None	None	None	None	1
1.7	2015_Jul_23_0913	s	s	5	4	SIC	59	RC	2	1	23VO	1	0	0.511633872986	-337.0	235.0	-340	235	1
1.7	2015_Jul_23_0913	s	s	5	4	SIC	60	RC	2	0	23VC	1	0	0.529112100601	-216.0	-174.0	-214	-178	1
1.7	2015_Jul_23_0913	s	s	5	4	SIC	61	ABS	2	0	24VC	0	1	0.712329149246	None	None	None	None	1
1.7	2015_Jul_23_0913	s	s	5	4	SIC	62	RC	2	2	23VD	1	0	1.01770019531	-533.0	-121.0	-539	-125	1
1.7	2015_Jul_23_0913	s	s	5	4	SIC	63	ABS	1	1	24MO	0	1	2.1769900322	None	None	None	None	1
1.7	2015_Jul_23_0913	s	s	5	4	SIC	64	RC	0	2	23RD	1	0	0.587900876999	-135.0	188.0	-139	185	1
1.7	2015_Jul_23_0913	s	s	5	4	SIC	65	RC	0	1	23RO	1	0	1.44235706329	-37.0	-199.0	-36	-191	1
1.7	2015_Jul_23_0913	s	s	5	4	SIC	66	ABS	1	1	24MO	0	1	2.36029696465	None	None	None	None	1
1.7	2015_Jul_23_0913	s	s	5	4	SIC	67	ABS	0	1	24RO	0	1	6.82288384438	None	None	None	None	1
1.7	2015_Jul_23_0913	s	s	5	4	SIC	68	RC	2	0	23VC	1	0	0.782930850983	-361.0	65.0	-362	64	1
1.7	2015_Jul_23_0913	s	s	5	4	SIC	69	ABS	1	0	24MC	0	1	1.70354509354	None	None	None	None	1
1.7	2015_Jul_23_0913	s	s	5	4	SIC	70	RC	0	2	23RD	1	0	0.988184928894	-374.0	-228.0	-377	-224	1
1.7	2015_Jul_23_0913	s	s	5	4	SIC	71	ABS	2	1	24VO	0	1	0.689227104187	None	None	None	None	1
1.7	2015_Jul_23_0913	s	s	5	4	SIC	72	RC	1	2	23MD	1	0	0.658571004868	-480.0	-384.0	-486	-388	1
1.7	2015_Jul_23_0913	s	s	5	4	SIC	73	RC	1	1	23MO	1	0	0.606680870056	-394.0	178.0	-400	176	1
1.7	2015_Jul_23_0913	s	s	5	4	SIC	74	ABS	2	0	24VC	0	1	0.761325120926	None	None	None	None	1
1.7	2015_Jul_23_0913	s	s	5	4	SIC	75	ABS	1	2	24MD	0	1	1.03520584106	None	None	None	None	1
1.7	2015_Jul_23_0913	s	s	5	4	SIC	76	ABS	0	2	24RD	0	1	1.33625006676	None	None	None	None	1
1.7	2015_Jul_23_0913	s	s	5	4	SIC	77	RC	1	0	23MC	1	0	0.670300006866	-231.0	-26.0	-223	-28	1
1.7	2015_Jul_23_0913	s	s	5	4	SIC	78	RC	2	2	23VD	1	0	0.623200893402	-355.0	375.0	-357	379	1
1.7	2015_Jul_23_0913	s	s	5	4	SIC	79	ABS	2	2	24VD	0	1	0.623264074326	None	None	None	None	1
1.7	2015_Jul_23_0913	s	s	5	4	SIC	80	RC	2	1	23VO	1	0	0.51377081871	-493.0	-180.0	-492	-179	1
1.7	2015_Jul_23_0913	s	s	5	4	SIC	81	RC	1	2	23MD	1	0	0.540688991547	30.0	-71.0	29	-69	1
1.7	2015_Jul_23_0913	s	s	5	4	SIC	82	RC	2	1	23VO	1	0	0.502138853073	-449.0	-91.0	-444	-90	1
1.7	2015_Jul_23_0913	s	s	5	4	SIC	83	ABS	1	0	24MC	0	1	1.98854184151	None	None	None	None	1
1.7	2015_Jul_23_0913	s	s	5	4	SIC	84	ABS	2	0	24VC	0	1	0.702306032181	None	None	None	None	1
1.7	2015_Jul_23_0913	s	s	5	4	SIC	85	ABS	2	1	24VO	0	1	0.630123138428	None	None	None	None	1
1.7	2015_Jul_23_0913	s	s	5	4	SIC	86	ABS	2	2	24VD	0	1	0.596168994904	None	None	None	None	1
1.7	2015_Jul_23_0913	s	s	5	4	SIC	87	RC	2	2	23VD	1	0	0.811960220337	-374.0	-150.0	-372	-158	1
1.7	2015_Jul_23_0913	s	s	5	4	SIC	88	ABS	0	2	24RD	0	1	0.759168148041	None	None	None	None	1
1.7	2015_Jul_23_0913	s	s	5	4	SIC	89	RC	0	2	23RD	1	0	0.712673187256	472.0	168.0	473	164	1
1.7	2015_Jul_23_0913	s	s	5	4	SIC	90	ABS	1	1	24MO	0	1	1.63542413712	None	None	None	None	1
1.7	2015_Jul_23_0913	s	s	5	4	SIC	91	RC	0	1	23RO	1	0	0.599643945694	-104.0	86.0	-109	81	1
1.7	2015_Jul_23_0913	s	s	5	4	SIC	92	RC	1	1	23MO	1	0	0.842046022415	393.0	385.0	394	392	1
1.7	2015_Jul_23_0913	s	s	5	4	SIC	93	RC	1	0	23MC	1	0	0.912528038025	188.0	290.0	197	299	1
1.7	2015_Jul_23_0913	s	s	5	4	SIC	94	ABS	1	2	24MD	0	1	0.682090044022	None	None	None	None	1
1.7	2015_Jul_23_0913	s	s	5	4	SIC	95	RC	2	0	23VC	1	0	0.705590009689	-158.0	-349.0	-151	-353	1
1.7	2015_Jul_23_0913	s	s	5	4	SIC	96	ABS	0	1	24RO	0	1	4.86709213257	None	None	None	None	1
1.7	2015_Jul_23_0913	s	s	5	4	SIC	97	ABS	1	2	24MD	0	1	0.759960889816	None	None	None	None	1
1.7	2015_Jul_23_0913	s	s	5	4	SIC	98	RC	1	0	23MC	1	0	0.891080856323	216.0	-121.0	214	-116	1
1.7	2015_Jul_23_0913	s	s	5	4	SIC	99	ABS	0	2	24RD	0	1	1.21175193787	None	None	None	None	1
1.7	2015_Jul_23_0913	s	s	5	4	SIC	100	RC	0	1	23RO	1	0	3.10183811188	57.0	-175.0	55	-174	1
1.7	2015_Jul_23_0913	s	s	5	4	SIC	101	RC	2	1	23VO	1	0	0.582745075226	-130.0	394.0	-124	400	1
1.7	2015_Jul_23_0913	s	s	5	4	SIC	102	ABS	0	1	24RO	0	1	5.40203499794	None	None	None	None	1
1.7	2015_Jul_23_0913	s	s	5	4	SIC	103	ABS	2	0	24VC	0	1	1.04693508148	None	None	None	None	1
1.7	2015_Jul_23_0913	s	s	5	4	SIC	104	RC	1	2	23MD	1	0	0.646753072739	-284.0	-26.0	-278	-26	1
1.7	2015_Jul_23_0913	s	s	5	4	SIC	105	RC	0	2	23RD	1	0	0.564393043518	-43.0	243.0	-48	240	1
1.7	2015_Jul_23_0913	s	s	5	4	SIC	106	RC	1	1	23MO	1	0	1.29408812523	-368.0	114.0	-355	121	1
1.7	2015_Jul_23_0913	s	s	5	4	SIC	107	RC	2	2	23VD	1	0	0.646764993668	321.0	-407.0	324	-414	1
1.7	2015_Jul_23_0913	s	s	5	4	SIC	108	ABS	1	1	24MO	0	1	2.89143896103	None	None	None	None	1
1.7	2015_Jul_23_0913	s	s	5	4	SIC	109	ABS	2	2	24VD	0	1	0.630035161972	None	None	None	None	1
1.7	2015_Jul_23_0913	s	s	5	4	SIC	110	ABS	1	0	24MC	0	1	1.96003985405	None	None	None	None	1
1.7	2015_Jul_23_0913	s	s	5	4	SIC	111	RC	2	0	23VC	1	0	0.665318965912	-184.0	-183.0	-182	-181	1
1.7	2015_Jul_23_0913	s	s	5	4	SIC	112	ABS	2	1	24VO	0	1	0.688281059265	None	None	None	None	1
1.7	2015_Jul_23_0913	s	s	5	4	SIC	113	RC	0	2	23RD	1	0	0.584957122803	-154.0	356.0	-146	362	1
1.7	2015_Jul_23_0913	s	s	5	4	SIC	114	ABS	2	1	24VO	0	1	0.740935087204	None	None	None	None	1
1.7	2015_Jul_23_0913	s	s	5	4	SIC	115	ABS	0	2	24RD	0	1	1.48940896988	None	None	None	None	1
1.7	2015_Jul_23_0913	s	s	5	4	SIC	116	RC	1	0	23MC	1	0	1.36027002335	528.0	-105.0	534	-98	1
1.7	2015_Jul_23_0913	s	s	5	4	SIC	117	ABS	2	2	24VD	0	1	0.973551988602	None	None	None	None	1
1.7	2015_Jul_23_0913	s	s	5	4	SIC	118	ABS	1	1	24MO	0	1	2.11800408363	None	None	None	None	1
1.7	2015_Jul_23_0913	s	s	5	4	SIC	119	ABS	1	2	24MD	0	1	0.776229858398	None	None	None	None	1
1.7	2015_Jul_23_0913	s	s	5	4	SIC	120	RC	2	1	23VO	1	0	0.52921295166	-143.0	256.0	-143	255	1
1.7	2015_Jul_23_0913	s	s	5	4	SIC	121	RC	0	1	23RO	1	0	1.00618982315	-214.0	58.0	-219	62	1
1.7	2015_Jul_23_0913	s	s	5	4	SIC	122	ABS	2	0	24VC	0	1	0.929135799408	None	None	None	None	1
1.7	2015_Jul_23_0913	s	s	5	4	SIC	123	RC	1	2	23MD	1	0	0.679192066193	432.0	-361.0	438	-361	1
1.7	2015_Jul_23_0913	s	s	5	4	SIC	124	RC	2	0	23VC	1	0	0.831578969955	446.0	265.0	449	274	1
1.7	2015_Jul_23_0913	s	s	5	4	SIC	125	RC	2	2	23VD	1	0	0.48222899437	-4.0	127.0	-8	123	1
1.7	2015_Jul_23_0913	s	s	5	4	SIC	126	ABS	0	1	24RO	0	1	5.54334402084	None	None	None	None	1
1.7	2015_Jul_23_0913	s	s	5	4	SIC	127	ABS	1	0	24MC	0	1	2.66892313957	None	None	None	None	1
1.7	2015_Jul_23_0913	s	s	5	4	SIC	128	RC	1	1	23MO	1	0	0.665434837341	8.0	342.0	19	351	1
1.7	2015_Jul_23_0913	s	s	5	4	SIC	129	ABS	2	2	24VD	0	1	0.623113870621	None	None	None	None	1
1.7	2015_Jul_23_0913	s	s	5	4	SIC	130	RC	2	1	23VO	1	0	0.646769046783	-122.0	-372.0	-114	-370	1
1.7	2015_Jul_23_0913	s	s	5	4	SIC	131	RC	2	0	23VC	1	0	0.465287208557	56.0	-117.0	50	-114	1
1.7	2015_Jul_23_0913	s	s	5	4	SIC	132	RC	0	1	23RO	1	0	1.98865199089	368.0	-406.0	370	-407	1
1.7	2015_Jul_23_0913	s	s	5	4	SIC	133	RC	2	2	23VD	1	0	0.523215055466	368.0	78.0	359	75	1
1.7	2015_Jul_23_0913	s	s	5	4	SIC	134	RC	0	2	23RD	1	0	0.830018997192	-420.0	296.0	-424	298	1
1.7	2015_Jul_23_0913	s	s	5	4	SIC	135	ABS	2	0	24VC	0	1	1.00885987282	None	None	None	None	1
1.7	2015_Jul_23_0913	s	s	5	4	SIC	136	RC	1	1	23MO	1	0	0.999875068665	531.0	307.0	529	305	1
1.7	2015_Jul_23_0913	s	s	5	4	SIC	137	RC	1	0	23MC	1	0	0.735855102539	300.0	-55.0	304	-54	1
1.7	2015_Jul_23_0913	s	s	5	4	SIC	138	ABS	0	1	24RO	0	1	4.60165596008	None	None	None	None	1
1.7	2015_Jul_23_0913	s	s	5	4	SIC	139	ABS	1	1	24MO	0	1	2.83007192612	None	None	None	None	1
1.7	2015_Jul_23_0913	s	s	5	4	SIC	140	ABS	0	2	24RD	0	1	0.946959972382	None	None	None	None	1
1.7	2015_Jul_23_0913	s	s	5	4	SIC	141	ABS	1	0	24MC	0	1	3.13404989243	None	None	None	None	1
1.7	2015_Jul_23_0913	s	s	5	4	SIC	142	RC	1	2	23MD	1	0	0.61144900322	-421.0	-1.0	-422	1	1
1.7	2015_Jul_23_0913	s	s	5	4	SIC	143	ABS	1	2	24MD	0	1	0.882141828537	None	None	None	None	1
1.7	2015_Jul_23_0913	s	s	5	4	SIC	144	ABS	2	1	24VO	0	1	0.784421920776	None	None	None	None	1
1.7	2015_Jul_23_0913	s	s	5	4	SIC	145	RC	1	2	23MD	1	0	0.658406972885	-329.0	-219.0	-334	-217	1
1.7	2015_Jul_23_0913	s	s	5	4	SIC	146	RC	0	2	23RD	1	0	0.535646915436	521.0	111.0	522	103	1
1.7	2015_Jul_23_0913	s	s	5	4	SIC	147	RC	1	0	23MC	1	0	1.15291786194	-57.0	388.0	-52	386	1
1.7	2015_Jul_23_0913	s	s	5	4	SIC	148	RC	2	2	23VD	1	0	0.446624040604	251.0	229.0	254	238	1
1.7	2015_Jul_23_0913	s	s	5	4	SIC	149	RC	0	1	23RO	1	0	3.80798697472	-299.0	230.0	-310	230	1
1.7	2015_Jul_23_0913	s	s	5	4	SIC	150	ABS	2	0	24VC	0	1	0.794077157974	None	None	None	None	1
1.7	2015_Jul_23_0913	s	s	5	4	SIC	151	ABS	2	1	24VO	0	1	0.773780107498	None	None	None	None	1
1.7	2015_Jul_23_0913	s	s	5	4	SIC	152	ABS	0	2	24RD	0	1	1.88948297501	None	None	None	None	1
1.7	2015_Jul_23_0913	s	s	5	4	SIC	153	RC	2	1	23VO	1	0	0.564320802689	-289.0	212.0	-289	212	1
1.7	2015_Jul_23_0913	s	s	5	4	SIC	154	ABS	0	1	24RO	0	1	6.44467902184	None	None	None	None	1
1.7	2015_Jul_23_0913	s	s	5	4	SIC	155	RC	1	1	23MO	1	0	0.571400165558	34.0	21.0	32	23	1
1.7	2015_Jul_23_0913	s	s	5	4	SIC	156	ABS	2	2	24VD	0	1	0.641470909119	None	None	None	None	1
1.7	2015_Jul_23_0913	s	s	5	4	SIC	157	ABS	1	0	24MC	0	1	1.56033110619	None	None	None	None	1
1.7	2015_Jul_23_0913	s	s	5	4	SIC	158	ABS	1	2	24MD	0	1	1.3000330925	None	None	None	None	1
1.7	2015_Jul_23_0913	s	s	5	4	SIC	159	RC	2	0	23VC	1	0	0.92390203476	-62.0	-371.0	-60	-372	1
1.7	2015_Jul_23_0913	s	s	5	4	SIC	160	ABS	1	1	24MO	0	1	1.47065997124	None	None	None	None	1
1.7	2015_Jul_23_0913	s	s	5	4	SIC	161	ABS	1	1	24MO	0	1	2.05127811432	None	None	None	None	1
1.7	2015_Jul_23_0913	s	s	5	4	SIC	162	RC	1	2	23MD	1	0	0.54072022438	-109.0	99.0	-107	99	1
1.7	2015_Jul_23_0913	s	s	5	4	SIC	163	RC	0	1	23RO	1	0	1.21175312996	-387.0	4.0	-383	3	1
1.7	2015_Jul_23_0913	s	s	5	4	SIC	164	ABS	0	1	24RO	0	1	5.0018491745	None	None	None	None	1
1.7	2015_Jul_23_0913	s	s	5	4	SIC	165	RC	2	0	23VC	1	0	0.497464179993	110.0	-159.0	107	-161	1
1.7	2015_Jul_23_0913	s	s	5	4	SIC	166	ABS	2	2	24VD	0	1	0.676305055618	None	None	None	None	1
1.7	2015_Jul_23_0913	s	s	5	4	SIC	167	RC	1	0	23MC	1	0	1.2352938652	486.0	367.0	484	365	1
1.7	2015_Jul_23_0913	s	s	5	4	SIC	168	ABS	1	2	24MD	0	1	0.729322195053	None	None	None	None	1
1.7	2015_Jul_23_0913	s	s	5	4	SIC	169	RC	0	2	23RD	1	0	0.50054192543	306.0	378.0	305	383	1
1.7	2015_Jul_23_0913	s	s	5	4	SIC	170	ABS	1	0	24MC	0	1	3.02437591553	None	None	None	None	1
1.7	2015_Jul_23_0913	s	s	5	4	SIC	171	ABS	2	0	24VC	0	1	0.611384868622	None	None	None	None	1
1.7	2015_Jul_23_0913	s	s	5	4	SIC	172	RC	2	2	23VD	1	0	0.526637077332	314.0	188.0	310	190	1
1.7	2015_Jul_23_0913	s	s	5	4	SIC	173	ABS	2	1	24VO	0	1	0.635023117065	None	None	None	None	1
1.7	2015_Jul_23_0913	s	s	5	4	SIC	174	RC	1	1	23MO	1	0	1.29419183731	-339.0	195.0	-335	196	1
1.7	2015_Jul_23_0913	s	s	5	4	SIC	175	ABS	0	2	24RD	0	1	0.747620105743	None	None	None	None	1
1.7	2015_Jul_23_0913	s	s	5	4	SIC	176	RC	2	1	23VO	1	0	0.478288888931	-428.0	-38.0	-434	-44	1
1.7	2015_Jul_23_0913	s	s	5	4	SIC	177	RC	2	0	23VC	1	0	0.535835981369	520.0	-360.0	524	-367	1
1.7	2015_Jul_23_0913	s	s	5	4	SIC	178	RC	2	2	23VD	1	0	0.454566001892	282.0	-107.0	281	-102	1
1.7	2015_Jul_23_0913	s	s	5	4	SIC	179	RC	0	1	23RO	1	0	1.23528504372	430.0	-135.0	434	-138	1
1.7	2015_Jul_23_0913	s	s	5	4	SIC	180	RC	0	2	23RD	1	0	0.502064943314	-131.0	106.0	-124	101	1
1.7	2015_Jul_23_0913	s	s	5	4	SIC	181	ABS	1	1	24MO	0	1	2.09059095383	None	None	None	None	1
1.7	2015_Jul_23_0913	s	s	5	4	SIC	182	RC	1	0	23MC	1	0	0.794859886169	-152.0	294.0	-162	301	1
1.7	2015_Jul_23_0913	s	s	5	4	SIC	183	RC	2	1	23VO	1	0	0.571191072464	-388.0	363.0	-389	361	1
1.7	2015_Jul_23_0913	s	s	5	4	SIC	184	RC	1	1	23MO	1	0	1.10100007057	186.0	90.0	183	93	1
1.7	2015_Jul_23_0913	s	s	5	4	SIC	185	ABS	2	1	24VO	0	1	0.811544179916	None	None	None	None	1
1.7	2015_Jul_23_0913	s	s	5	4	SIC	186	ABS	1	2	24MD	0	1	0.867144107819	None	None	None	None	1
1.7	2015_Jul_23_0913	s	s	5	4	SIC	187	RC	1	2	23MD	1	0	0.618003129959	489.0	-91.0	490	-91	1
1.7	2015_Jul_23_0913	s	s	5	4	SIC	188	ABS	2	0	24VC	0	1	0.705626010895	None	None	None	None	1
1.7	2015_Jul_23_0913	s	s	5	4	SIC	189	ABS	0	2	24RD	0	1	0.976310014725	None	None	None	None	1
1.7	2015_Jul_23_0913	s	s	5	4	SIC	190	ABS	1	0	24MC	0	1	1.80695199966	None	None	None	None	1
1.7	2015_Jul_23_0913	s	s	5	4	SIC	191	ABS	0	1	24RO	0	1	4.86740803719	None	None	None	None	1
1.7	2015_Jul_23_0913	s	s	5	4	SIC	192	ABS	2	2	24VD	0	1	0.646613836288	None	None	None	None	1
1.7	2015_Jul_23_0913	s	s	5	4	SIC	193	ABS	1	2	24MD	0	1	0.665173768997	None	None	None	None	1
1.7	2015_Jul_23_0913	s	s	5	4	SIC	194	ABS	0	1	24RO	0	1	4.45557498932	None	None	None	None	1
1.7	2015_Jul_23_0913	s	s	5	4	SIC	195	RC	2	2	23VD	1	0	0.60614991188	284.0	235.0	288	242	1
1.7	2015_Jul_23_0913	s	s	5	4	SIC	196	ABS	2	1	24VO	0	1	0.733515977859	None	None	None	None	1
1.7	2015_Jul_23_0913	s	s	5	4	SIC	197	RC	2	0	23VC	1	0	0.535770893097	-217.0	218.0	-215	222	1
1.7	2015_Jul_23_0913	s	s	5	4	SIC	198	RC	0	1	23RO	1	0	1.41821408272	320.0	-205.0	327	-202	1
1.7	2015_Jul_23_0913	s	s	5	4	SIC	199	ABS	2	0	24VC	0	1	0.594614982605	None	None	None	None	1
1.7	2015_Jul_23_0913	s	s	5	4	SIC	200	RC	1	1	23MO	1	0	1.08227705956	-451.0	-293.0	-456	-291	1
1.7	2015_Jul_23_0913	s	s	5	4	SIC	201	RC	2	1	23VO	1	0	0.470204114914	52.0	-68.0	48	-63	1
1.7	2015_Jul_23_0913	s	s	5	4	SIC	202	ABS	1	1	24MO	0	1	1.9153149128	None	None	None	None	1
1.7	2015_Jul_23_0913	s	s	5	4	SIC	203	RC	0	2	23RD	1	0	0.56437087059	-228.0	-224.0	-225	-220	1
1.7	2015_Jul_23_0913	s	s	5	4	SIC	204	ABS	1	0	24MC	0	1	2.47813105583	None	None	None	None	1
1.7	2015_Jul_23_0913	s	s	5	4	SIC	205	RC	1	2	23MD	1	0	0.758684158325	-57.0	281.0	-46	285	1
1.7	2015_Jul_23_0913	s	s	5	4	SIC	206	ABS	0	2	24RD	0	1	1.10587596893	None	None	None	None	1
1.7	2015_Jul_23_0913	s	s	5	4	SIC	207	ABS	2	2	24VD	0	1	0.714825868607	None	None	None	None	1
1.7	2015_Jul_23_0913	s	s	5	4	SIC	208	RC	1	0	23MC	1	0	1.68938994408	423.0	33.0	423	32	1
1.7	2015_Jul_23_0913	s	s	5	4	SIC	209	RC	1	1	23MO	1	0	0.926544189453	123.0	262.0	119	257	1
1.7	2015_Jul_23_0913	s	s	5	4	SIC	210	ABS	1	1	24MO	0	1	2.50380301476	None	None	None	None	1
1.7	2015_Jul_23_0913	s	s	5	4	SIC	211	RC	1	2	23MD	1	0	0.535757064819	-73.0	-371.0	-76	-371	1
1.7	2015_Jul_23_0913	s	s	5	4	SIC	212	RC	0	1	23RO	1	0	1.01162981987	22.0	-292.0	19	-292	1
1.7	2015_Jul_23_0913	s	s	5	4	SIC	213	ABS	0	2	24RD	0	1	0.853623151779	None	None	None	None	1
1.7	2015_Jul_23_0913	s	s	5	4	SIC	214	ABS	0	1	24RO	0	1	5.20198512077	None	None	None	None	1
1.7	2015_Jul_23_0913	s	s	5	4	SIC	215	ABS	2	2	24VD	0	1	0.623243093491	None	None	None	None	1
1.7	2015_Jul_23_0913	s	s	5	4	SIC	216	ABS	1	2	24MD	0	1	0.655776023865	None	None	None	None	1
1.7	2015_Jul_23_0913	s	s	5	4	SIC	217	ABS	1	0	24MC	0	1	2.93025708199	None	None	None	None	1
1.7	2015_Jul_23_0913	s	s	5	4	SIC	218	ABS	2	1	24VO	0	1	0.634970903397	None	None	None	None	1
1.7	2015_Jul_23_0913	s	s	5	4	SIC	219	ABS	2	0	24VC	0	1	0.564336061478	None	None	None	None	1
1.7	2015_Jul_23_0913	s	s	5	4	SIC	220	RC	2	1	23VO	1	0	0.654134988785	6.0	-304.0	6	-306	1
1.7	2015_Jul_23_0913	s	s	5	4	SIC	221	RC	2	2	23VD	1	0	0.547683954239	-537.0	-43.0	-535	-36	1
1.7	2015_Jul_23_0913	s	s	5	4	SIC	222	RC	0	2	23RD	1	0	0.797358989716	371.0	-358.0	378	-363	1
1.7	2015_Jul_23_0913	s	s	5	4	SIC	223	RC	2	0	23VC	1	0	0.529053926468	311.0	208.0	314	208	1
1.7	2015_Jul_23_0913	s	s	5	4	SIC	224	RC	1	0	23MC	1	0	1.59554696083	-423.0	22.0	-423	28	1
1.7	2015_Jul_23_0913	s	s	5	4	SIC	225	RC	2	1	23VO	1	0	0.49361205101	156.0	-347.0	162	-341	1
1.7	2015_Jul_23_0913	s	s	5	4	SIC	226	RC	1	2	23MD	1	0	0.547525167465	-403.0	346.0	-406	352	1
1.7	2015_Jul_23_0913	s	s	5	4	SIC	227	ABS	1	2	24MD	0	1	1.48066687584	None	None	None	None	1
1.7	2015_Jul_23_0913	s	s	5	4	SIC	228	ABS	0	2	24RD	0	1	0.988101005554	None	None	None	None	1
1.7	2015_Jul_23_0913	s	s	5	4	SIC	229	ABS	2	1	24VO	0	1	0.858695983887	None	None	None	None	1
1.7	2015_Jul_23_0913	s	s	5	4	SIC	230	ABS	2	0	24VC	0	1	0.723767995834	None	None	None	None	1
1.7	2015_Jul_23_0913	s	s	5	4	SIC	231	RC	0	1	23RO	1	0	2.02390694618	-287.0	-282.0	-281	-285	1
1.7	2015_Jul_23_0913	s	s	5	4	SIC	232	ABS	0	1	24RO	0	1	5.88462090492	None	None	None	None	1
1.7	2015_Jul_23_0913	s	s	5	4	SIC	233	ABS	2	2	24VD	0	1	0.62073302269	None	None	None	None	1
1.7	2015_Jul_23_0913	s	s	5	4	SIC	234	ABS	1	0	24MC	0	1	2.69125103951	None	None	None	None	1
1.7	2015_Jul_23_0913	s	s	5	4	SIC	235	RC	1	0	23MC	1	0	1.37255692482	-214.0	-191.0	-217	-189	1
1.7	2015_Jul_23_0913	s	s	5	4	SIC	236	RC	0	2	23RD	1	0	0.526384115219	-385.0	67.0	-374	69	1
1.7	2015_Jul_23_0913	s	s	5	4	SIC	237	ABS	1	1	24MO	0	1	1.72707009315	None	None	None	None	1
1.7	2015_Jul_23_0913	s	s	5	4	SIC	238	RC	2	0	23VC	1	0	0.547472953796	-252.0	-299.0	-254	-295	1
1.7	2015_Jul_23_0913	s	s	5	4	SIC	239	RC	1	1	23MO	1	0	0.559197902679	-26.0	-25.0	-27	-21	1
1.7	2015_Jul_23_0913	s	s	5	4	SIC	240	RC	2	2	23VD	1	0	0.493839979172	364.0	181.0	369	175	1
1.7	2015_Jul_23_0913	s	s	5	4	SIC	241	ABS	2	1	24VO	0	1	0.717415809631	None	None	None	None	1
1.7	2015_Jul_23_0913	s	s	5	4	SIC	242	RC	1	0	23MC	1	0	0.929459095001	-94.0	-1.0	-96	0	1
1.7	2015_Jul_23_0913	s	s	5	4	SIC	243	ABS	1	0	24MC	0	1	2.4440639019	None	None	None	None	1
1.7	2015_Jul_23_0913	s	s	5	4	SIC	244	ABS	1	2	24MD	0	1	0.705575942993	None	None	None	None	1
1.7	2015_Jul_23_0913	s	s	5	4	SIC	245	RC	0	1	23RO	1	0	3.67178702354	-499.0	346.0	-492	353	1
1.7	2015_Jul_23_0913	s	s	5	4	SIC	246	RC	2	1	23VO	1	0	0.599819898605	-386.0	-308.0	-393	-313	1
1.7	2015_Jul_23_0913	s	s	5	4	SIC	247	RC	0	2	23RD	1	0	0.524391889572	471.0	-94.0	473	-93	1
1.7	2015_Jul_23_0913	s	s	5	4	SIC	248	RC	2	2	23VD	1	0	0.423129081726	-107.0	-41.0	-114	-33	1
1.7	2015_Jul_23_0913	s	s	5	4	SIC	249	ABS	2	2	24VD	0	1	0.667542934418	None	None	None	None	1
1.7	2015_Jul_23_0913	s	s	5	4	SIC	250	RC	2	0	23VC	1	0	0.477011919022	-225.0	74.0	-224	77	1
1.7	2015_Jul_23_0913	s	s	5	4	SIC	251	RC	1	2	23MD	1	0	0.478536128998	-50.0	-391.0	-53	-383	1
1.7	2015_Jul_23_0913	s	s	5	4	SIC	252	ABS	2	0	24VC	0	1	0.681946992874	None	None	None	None	1
1.7	2015_Jul_23_0913	s	s	5	4	SIC	253	RC	1	1	23MO	1	0	1.70613884926	320.0	375.0	316	374	1
1.7	2015_Jul_23_0913	s	s	5	4	SIC	254	ABS	0	2	24RD	0	1	1.38252305984	None	None	None	None	1
1.7	2015_Jul_23_0913	s	s	5	4	SIC	255	ABS	1	1	24MO	0	1	1.62365818024	None	None	None	None	1
1.7	2015_Jul_23_0913	s	s	5	4	SIC	256	ABS	0	1	24RO	0	1	6.08233904839	None	None	None	None	1
1.7	2015_Jul_23_0913	s	s	5	4	SIC	257	RC	1	1	23MO	1	0	0.599719047546	288.0	185.0	282	183	1
1.7	2015_Jul_23_0913	s	s	5	4	SIC	258	ABS	1	2	24MD	0	1	1.01170992851	None	None	None	None	1
1.7	2015_Jul_23_0913	s	s	5	4	SIC	259	ABS	1	1	24MO	0	1	2.5066421032	None	None	None	None	1
1.7	2015_Jul_23_0913	s	s	5	4	SIC	260	ABS	2	2	24VD	0	1	0.540810108185	None	None	None	None	1
1.7	2015_Jul_23_0913	s	s	5	4	SIC	261	ABS	0	2	24RD	0	1	1.57666420937	None	None	None	None	1
1.7	2015_Jul_23_0913	s	s	5	4	SIC	262	RC	1	0	23MC	1	0	1.90641283989	476.0	-165.0	475	-162	1
1.7	2015_Jul_23_0913	s	s	5	4	SIC	263	ABS	0	1	24RO	0	1	5.1733789444	None	None	None	None	1
1.7	2015_Jul_23_0913	s	s	5	4	SIC	264	ABS	2	0	24VC	0	1	0.747966051102	None	None	None	None	1
1.7	2015_Jul_23_0913	s	s	5	4	SIC	265	RC	2	2	23VD	1	0	0.529067993164	288.0	-16.0	286	-13	1
1.7	2015_Jul_23_0913	s	s	5	4	SIC	266	RC	0	2	23RD	1	0	0.634961128235	483.0	-296.0	474	-299	1
1.7	2015_Jul_23_0913	s	s	5	4	SIC	267	ABS	1	0	24MC	0	1	3.86921596527	None	None	None	None	1
1.7	2015_Jul_23_0913	s	s	5	4	SIC	268	RC	0	1	23RO	1	0	1.42405486107	-143.0	108.0	-140	113	1
1.7	2015_Jul_23_0913	s	s	5	4	SIC	269	RC	2	0	23VC	1	0	0.552664995193	122.0	151.0	119	157	1
1.7	2015_Jul_23_0913	s	s	5	4	SIC	270	RC	2	1	23VO	1	0	0.559199094772	-449.0	-221.0	-456	-216	1
1.7	2015_Jul_23_0913	s	s	5	4	SIC	271	RC	1	2	23MD	1	0	0.726459026337	145.0	-381.0	144	-384	1
1.7	2015_Jul_23_0913	s	s	5	4	SIC	272	ABS	2	1	24VO	0	1	0.759590864182	None	None	None	None	1
1.7	2015_Jul_23_0913	s	s	5	4	SIC	273	RC	1	1	23MO	1	0	1.90271687508	-415.0	300.0	-427	309	1
1.7	2015_Jul_23_0913	s	s	5	4	SIC	274	ABS	0	1	24RO	0	1	4.52626895905	None	None	None	None	1
1.7	2015_Jul_23_0913	s	s	5	4	SIC	275	ABS	2	1	24VO	0	1	0.846866130829	None	None	None	None	1
1.7	2015_Jul_23_0913	s	s	5	4	SIC	276	ABS	2	2	24VD	0	1	0.697474002838	None	None	None	None	1
1.7	2015_Jul_23_0913	s	s	5	4	SIC	277	RC	1	0	23MC	1	0	1.06798791885	-252.0	-248.0	-250	-249	1
1.7	2015_Jul_23_0913	s	s	5	4	SIC	278	ABS	2	0	24VC	0	1	0.725504875183	None	None	None	None	1
1.7	2015_Jul_23_0913	s	s	5	4	SIC	279	ABS	1	0	24MC	0	1	3.34593582153	None	None	None	None	1
1.7	2015_Jul_23_0913	s	s	5	4	SIC	280	ABS	1	1	24MO	0	1	2.1534011364	None	None	None	None	1
1.7	2015_Jul_23_0913	s	s	5	4	SIC	281	RC	1	2	23MD	1	0	0.552551031113	302.0	-204.0	301	-205	1
1.7	2015_Jul_23_0913	s	s	5	4	SIC	282	RC	2	0	23VC	1	0	0.572981119156	423.0	-410.0	433	-410	1
1.7	2015_Jul_23_0913	s	s	5	4	SIC	283	RC	0	2	23RD	1	0	0.571049928665	-359.0	109.0	-362	110	1
1.7	2015_Jul_23_0913	s	s	5	4	SIC	284	RC	2	2	23VD	1	0	0.582682132721	363.0	-157.0	365	-153	1
1.7	2015_Jul_23_0913	s	s	5	4	SIC	285	ABS	1	2	24MD	0	1	0.782331943512	None	None	None	None	1
1.7	2015_Jul_23_0913	s	s	5	4	SIC	286	ABS	0	2	24RD	0	1	0.830587148666	None	None	None	None	1
1.7	2015_Jul_23_0913	s	s	5	4	SIC	287	RC	2	1	23VO	1	0	0.676911115646	402.0	-164.0	393	-159	1
1.7	2015_Jul_23_0913	s	s	5	4	SIC	288	RC	0	1	23RO	1	0	1.43245887756	-50.0	152.0	-52	154	1
1.7	2015_Jul_23_0913	s	s	5	4	SIC	289	RC	0	1	23RO	1	0	0.417943000793	-110.0	53.0	-105	42	1
1.7	2015_Jul_23_0913	s	s	5	4	SIC	290	RC	0	2	23RD	1	0	0.642320871353	476.0	-408.0	477	-406	1
1.7	2015_Jul_23_0913	s	s	5	4	SIC	291	ABS	0	1	24RO	0	1	4.61329984665	None	None	None	None	1
1.7	2015_Jul_23_0913	s	s	5	4	SIC	292	RC	2	1	23VO	1	0	0.595145940781	144.0	375.0	134	373	1
1.7	2015_Jul_23_0913	s	s	5	4	SIC	293	ABS	2	0	24VC	0	1	0.830001115799	None	None	None	None	1
1.7	2015_Jul_23_0913	s	s	5	4	SIC	294	RC	2	0	23VC	1	0	0.547524929047	211.0	160.0	211	158	1
1.7	2015_Jul_23_0913	s	s	5	4	SIC	295	RC	1	0	23MC	1	0	1.04699897766	247.0	46.0	247	49	1
1.7	2015_Jul_23_0913	s	s	5	4	SIC	296	ABS	1	2	24MD	0	1	0.724657058716	None	None	None	None	1
1.7	2015_Jul_23_0913	s	s	5	4	SIC	297	RC	2	2	23VD	1	0	7.72680211067	-516.0	-383.0	-516	-381	1
1.7	2015_Jul_23_0913	s	s	5	4	SIC	298	ABS	2	1	24VO	0	1	0.995004892349	None	None	None	None	1
1.7	2015_Jul_23_0913	s	s	5	4	SIC	299	RC	1	2	23MD	1	0	0.905672073364	-370.0	-67.0	-368	-67	1
1.7	2015_Jul_23_0913	s	s	5	4	SIC	300	ABS	2	2	24VD	0	1	0.877151966095	None	None	None	None	1
1.7	2015_Jul_23_0913	s	s	5	4	SIC	301	ABS	1	0	24MC	0	1	1.92449188232	None	None	None	None	1
1.7	2015_Jul_23_0913	s	s	5	4	SIC	302	ABS	1	1	24MO	0	1	1.62984108925	None	None	None	None	1
1.7	2015_Jul_23_0913	s	s	5	4	SIC	303	ABS	0	2	24RD	0	1	1.52457404137	None	None	None	None	1
1.7	2015_Jul_23_0913	s	s	5	4	SIC	304	RC	1	1	23MO	1	0	0.959575891495	-422.0	95.0	-415	101	1
1.7	2015_Jul_23_0913	s	s	5	4	SIC	305	ABS	2	2	24VD	0	1	0.676599979401	None	None	None	None	1
1.7	2015_Jul_23_0913	s	s	5	4	SIC	306	ABS	1	0	24MC	0	1	2.03074193001	None	None	None	None	1
1.7	2015_Jul_23_0913	s	s	5	4	SIC	307	RC	1	0	23MC	1	0	1.20041704178	-277.0	261.0	-284	260	1
1.7	2015_Jul_23_0913	s	s	5	4	SIC	308	ABS	1	1	24MO	0	1	2.06723999977	None	None	None	None	1
1.7	2015_Jul_23_0913	s	s	5	4	SIC	309	ABS	2	1	24VO	0	1	0.735965013504	None	None	None	None	1
1.7	2015_Jul_23_0913	s	s	5	4	SIC	310	RC	2	0	23VC	1	0	0.599680900574	-156.0	168.0	-165	169	1
1.7	2015_Jul_23_0913	s	s	5	4	SIC	311	RC	1	1	23MO	1	0	1.06570792198	459.0	215.0	454	220	1
1.7	2015_Jul_23_0913	s	s	5	4	SIC	312	ABS	2	0	24VC	0	1	0.761201858521	None	None	None	None	1
1.7	2015_Jul_23_0913	s	s	5	4	SIC	313	RC	2	2	23VD	1	0	0.470154047012	-206.0	160.0	-211	162	1
1.7	2015_Jul_23_0913	s	s	5	4	SIC	314	ABS	1	2	24MD	0	1	1.58349013329	None	None	None	None	1
1.7	2015_Jul_23_0913	s	s	5	4	SIC	315	ABS	0	1	24RO	0	1	5.64558601379	None	None	None	None	1
1.7	2015_Jul_23_0913	s	s	5	4	SIC	316	ABS	0	2	24RD	0	1	1.68934893608	None	None	None	None	1
1.7	2015_Jul_23_0913	s	s	5	4	SIC	317	RC	0	2	23RD	1	0	0.787985086441	-177.0	-59.0	-175	-59	1
1.7	2015_Jul_23_0913	s	s	5	4	SIC	318	RC	1	2	23MD	1	0	0.476923942566	81.0	77.0	85	74	1
1.7	2015_Jul_23_0913	s	s	5	4	SIC	319	RC	2	1	23VO	1	0	0.469995975494	-162.0	307.0	-165	301	1
1.7	2015_Jul_23_0913	s	s	5	4	SIC	320	RC	0	1	23RO	1	0	3.13024902344	-376.0	-276.0	-380	-269	1
1.7	2015_Jul_23_0913	s	s	5	4	SIC	321	ABS	2	1	24VO	0	1	0.723733901978	None	None	None	None	1
1.7	2015_Jul_23_0913	s	s	5	4	SIC	322	ABS	1	1	24MO	0	1	3.03611516953	None	None	None	None	1
1.7	2015_Jul_23_0913	s	s	5	4	SIC	323	RC	1	0	23MC	1	0	0.653507947922	109.0	-100.0	115	-102	1
1.7	2015_Jul_23_0913	s	s	5	4	SIC	324	RC	2	2	23VD	1	0	0.537239074707	454.0	141.0	457	141	1
1.7	2015_Jul_23_0913	s	s	5	4	SIC	325	ABS	0	1	24RO	0	1	4.87233805656	None	None	None	None	1
1.7	2015_Jul_23_0913	s	s	5	4	SIC	326	RC	1	1	23MO	1	0	0.737087011337	141.0	-152.0	144	-145	1
1.7	2015_Jul_23_0913	s	s	5	4	SIC	327	RC	2	0	23VC	1	0	0.500490903854	430.0	249.0	424	248	1
1.7	2015_Jul_23_0913	s	s	5	4	SIC	328	ABS	1	0	24MC	0	1	2.47106003761	None	None	None	None	1
1.7	2015_Jul_23_0913	s	s	5	4	SIC	329	RC	0	2	23RD	1	0	0.559339046478	-325.0	-9.0	-325	-3	1
1.7	2015_Jul_23_0913	s	s	5	4	SIC	330	ABS	1	2	24MD	0	1	1.29414391518	None	None	None	None	1
1.7	2015_Jul_23_0913	s	s	5	4	SIC	331	ABS	2	0	24VC	0	1	0.844267845154	None	None	None	None	1
1.7	2015_Jul_23_0913	s	s	5	4	SIC	332	ABS	2	2	24VD	0	1	0.505565166473	None	None	None	None	1
1.7	2015_Jul_23_0913	s	s	5	4	SIC	333	ABS	0	2	24RD	0	1	2.01214504242	None	None	None	None	1
1.7	2015_Jul_23_0913	s	s	5	4	SIC	334	RC	0	1	23RO	1	0	1.45378899574	485.0	-306.0	488	-314	1
1.7	2015_Jul_23_0913	s	s	5	4	SIC	335	RC	2	1	23VO	1	0	0.541108846664	-496.0	152.0	-509	155	1
1.7	2015_Jul_23_0913	s	s	5	4	SIC	336	RC	1	2	23MD	1	0	0.540754079819	-318.0	174.0	-323	173	1
1.7	2015_Jul_23_0913	s	s	5	4	SIC	337	RC	2	1	23VO	1	0	0.529091119766	496.0	367.0	498	376	1
1.7	2015_Jul_23_0913	s	s	5	4	SIC	338	ABS	2	2	24VD	0	1	0.723742008209	None	None	None	None	1
1.7	2015_Jul_23_0913	s	s	5	4	SIC	339	RC	0	2	23RD	1	0	0.587889909744	-85.0	-214.0	-88	-216	1
1.7	2015_Jul_23_0913	s	s	5	4	SIC	340	RC	1	1	23MO	1	0	1.74615311623	376.0	-400.0	381	-393	1
1.7	2015_Jul_23_0913	s	s	5	4	SIC	341	RC	0	1	23RO	1	0	0.976322889328	454.0	35.0	446	41	1
1.7	2015_Jul_23_0913	s	s	5	4	SIC	342	ABS	2	1	24VO	0	1	0.771884202957	None	None	None	None	1
1.7	2015_Jul_23_0913	s	s	5	4	SIC	343	RC	2	2	23VD	1	0	0.630131959915	-464.0	-137.0	-460	-135	1
1.7	2015_Jul_23_0913	s	s	5	4	SIC	344	ABS	1	2	24MD	0	1	0.700749874115	None	None	None	None	1
1.7	2015_Jul_23_0913	s	s	5	4	SIC	345	RC	2	0	23VC	1	0	0.547637939453	-461.0	-215.0	-468	-208	1
1.7	2015_Jul_23_0913	s	s	5	4	SIC	346	RC	1	0	23MC	1	0	0.677061796188	-203.0	-339.0	-196	-331	1
1.7	2015_Jul_23_0913	s	s	5	4	SIC	347	ABS	1	1	24MO	0	1	1.24203014374	None	None	None	None	1
1.7	2015_Jul_23_0913	s	s	5	4	SIC	348	RC	1	2	23MD	1	0	0.540792942047	188.0	69.0	187	66	1
1.7	2015_Jul_23_0913	s	s	5	4	SIC	349	ABS	0	1	24RO	0	1	5.33828115463	None	None	None	None	1
1.7	2015_Jul_23_0913	s	s	5	4	SIC	350	ABS	0	2	24RD	0	1	0.75264787674	None	None	None	None	1
1.7	2015_Jul_23_0913	s	s	5	4	SIC	351	ABS	1	0	24MC	0	1	2.40746593475	None	None	None	None	1
1.7	2015_Jul_23_0913	s	s	5	4	SIC	352	ABS	2	0	24VC	0	1	0.771112918854	None	None	None	None	1
1.7	2015_Jul_23_0913	s	s	5	4	SIC	353	ABS	1	0	24MC	0	1	3.04267883301	None	None	None	None	1
1.7	2015_Jul_23_0913	s	s	5	4	SIC	354	RC	2	2	23VD	1	0	0.635411024094	530.0	-111.0	535	-108	1
1.7	2015_Jul_23_0913	s	s	5	4	SIC	355	ABS	1	1	24MO	0	1	2.52506518364	None	None	None	None	1
1.7	2015_Jul_23_0913	s	s	5	4	SIC	356	RC	2	0	23VC	1	0	0.611428022385	307.0	306.0	301	313	1
1.7	2015_Jul_23_0913	s	s	5	4	SIC	357	ABS	2	0	24VC	0	1	0.809195995331	None	None	None	None	1
1.7	2015_Jul_23_0913	s	s	5	4	SIC	358	ABS	0	1	24RO	0	1	6.04445099831	None	None	None	None	1
1.7	2015_Jul_23_0913	s	s	5	4	SIC	359	RC	0	2	23RD	1	0	0.552670955658	279.0	12.0	289	14	1
1.7	2015_Jul_23_0913	s	s	5	4	SIC	360	RC	1	0	23MC	1	0	1.5126709938	-293.0	-343.0	-297	-339	1
1.7	2015_Jul_23_0913	s	s	5	4	SIC	361	ABS	1	2	24MD	0	1	0.764422893524	None	None	None	None	1
1.7	2015_Jul_23_0913	s	s	5	4	SIC	362	ABS	0	2	24RD	0	1	1.30589485168	None	None	None	None	1
1.7	2015_Jul_23_0913	s	s	5	4	SIC	363	RC	1	1	23MO	1	0	0.57616186142	33.0	-32.0	26	-22	1
1.7	2015_Jul_23_0913	s	s	5	4	SIC	364	ABS	2	1	24VO	0	1	0.670217037201	None	None	None	None	1
1.7	2015_Jul_23_0913	s	s	5	4	SIC	365	RC	0	1	23RO	1	0	1.74139904976	22.0	137.0	15	137	1
1.7	2015_Jul_23_0913	s	s	5	4	SIC	366	RC	1	2	23MD	1	0	0.48880314827	54.0	156.0	51	160	1
1.7	2015_Jul_23_0913	s	s	5	4	SIC	367	ABS	2	2	24VD	0	1	0.59961605072	None	None	None	None	1
1.7	2015_Jul_23_0913	s	s	5	4	SIC	368	RC	2	1	23VO	1	0	0.524919986725	231.0	44.0	230	40	1
1.7	2015_Jul_23_0913	s	s	5	4	SIC	369	ABS	2	2	24VD	0	1	0.606290102005	None	None	None	None	1
1.7	2015_Jul_23_0913	s	s	5	4	SIC	370	ABS	1	1	24MO	0	1	1.80022883415	None	None	None	None	1
1.7	2015_Jul_23_0913	s	s	5	4	SIC	371	ABS	0	2	24RD	0	1	0.782911062241	None	None	None	None	1
1.7	2015_Jul_23_0913	s	s	5	4	SIC	372	ABS	0	1	24RO	0	1	4.84872603416	None	None	None	None	1
1.7	2015_Jul_23_0913	s	s	5	4	SIC	373	RC	1	0	23MC	1	0	0.682164907455	62.0	90.0	59	84	1
1.7	2015_Jul_23_0913	s	s	5	4	SIC	374	ABS	1	0	24MC	0	1	2.7065808773	None	None	None	None	1
1.7	2015_Jul_23_0913	s	s	5	4	SIC	375	RC	0	2	23RD	1	0	0.635070085526	290.0	-176.0	294	-173	1
1.7	2015_Jul_23_0913	s	s	5	4	SIC	376	ABS	2	1	24VO	0	1	0.865198135376	None	None	None	None	1
1.7	2015_Jul_23_0913	s	s	5	4	SIC	377	RC	2	1	23VO	1	0	0.811661958694	389.0	-347.0	382	-344	1
1.7	2015_Jul_23_0913	s	s	5	4	SIC	378	RC	2	0	23VC	1	0	0.68196606636	470.0	347.0	467	355	1
1.7	2015_Jul_23_0913	s	s	5	4	SIC	379	ABS	2	0	24VC	0	1	0.617764949799	None	None	None	None	1
1.7	2015_Jul_23_0913	s	s	5	4	SIC	380	RC	0	1	23RO	0	1	3.76083397865	-291.0	-51.0	None	None	0
1.7	2015_Jul_23_0913	s	s	5	4	SIC	381	RC	2	2	23VD	1	0	0.477090120316	134.0	-295.0	123	-286	1
1.7	2015_Jul_23_0913	s	s	5	4	SIC	382	RC	1	2	23MD	1	0	0.629770994186	-447.0	-264.0	-453	-259	1
1.7	2015_Jul_23_0913	s	s	5	4	SIC	383	ABS	1	2	24MD	0	1	0.864675998688	None	None	None	None	1
1.7	2015_Jul_23_0913	s	s	5	4	SIC	384	RC	1	1	23MO	1	0	1.90087294579	-293.0	372.0	-296	376	1
1.7	2015_Jul_23_0913	s	s	5	4	SIC	385	ABS	0	2	24RD	0	1	1.33741593361	None	None	None	None	1
1.7	2015_Jul_23_0913	s	s	5	4	SIC	386	ABS	0	1	24RO	0	1	5.01356601715	None	None	None	None	1
1.7	2015_Jul_23_0913	s	s	5	4	SIC	387	ABS	1	1	24MO	0	1	3.63140892982	None	None	None	None	1
1.7	2015_Jul_23_0913	s	s	5	4	SIC	388	RC	1	2	23MD	1	0	0.694128036499	-17.0	-401.0	-16	-403	1
1.7	2015_Jul_23_0913	s	s	5	4	SIC	389	ABS	2	1	24VO	0	1	1.30103492737	None	None	None	None	1
1.7	2015_Jul_23_0913	s	s	5	4	SIC	390	ABS	1	0	24MC	0	1	2.38884711266	None	None	None	None	1
1.7	2015_Jul_23_0913	s	s	5	4	SIC	391	RC	1	0	23MC	1	0	2.27476477623	-497.0	16.0	-496	17	1
1.7	2015_Jul_23_0913	s	s	5	4	SIC	392	RC	2	0	23VC	1	0	0.525367975235	69.0	-281.0	65	-280	1
1.7	2015_Jul_23_0913	s	s	5	4	SIC	393	ABS	1	2	24MD	0	1	0.865377902985	None	None	None	None	1
1.7	2015_Jul_23_0913	s	s	5	4	SIC	394	RC	0	1	23RO	0	1	4.57170391083	292.0	-303.0	None	None	0
1.7	2015_Jul_23_0913	s	s	5	4	SIC	395	ABS	2	2	24VD	0	1	0.60648393631	None	None	None	None	1
1.7	2015_Jul_23_0913	s	s	5	4	SIC	396	ABS	2	0	24VC	0	1	0.75264787674	None	None	None	None	1
1.7	2015_Jul_23_0913	s	s	5	4	SIC	397	RC	2	1	23VO	1	0	0.559344053268	-180.0	112.0	-185	119	1
1.7	2015_Jul_23_0913	s	s	5	4	SIC	398	RC	1	1	23MO	1	0	0.635040998459	374.0	159.0	373	151	1
1.7	2015_Jul_23_0913	s	s	5	4	SIC	399	RC	0	2	23RD	1	0	0.952697038651	-477.0	383.0	-480	389	1
1.7	2015_Jul_23_0913	s	s	5	4	SIC	400	RC	2	2	23VD	1	0	0.47020483017	214.0	59.0	214	59	1
1.7	2015_Jul_23_0913	s	s	5	4	SIC	401	RC	2	0	23VC	1	0	0.606318950653	-425.0	-342.0	-433	-344	1
1.7	2015_Jul_23_0913	s	s	5	4	SIC	402	RC	0	2	23RD	1	0	0.606522083282	445.0	51.0	454	54	1
1.7	2015_Jul_23_0913	s	s	5	4	SIC	403	RC	2	1	23VO	1	0	0.524124860764	-423.0	93.0	-414	98	1
1.7	2015_Jul_23_0913	s	s	5	4	SIC	404	RC	1	2	23MD	1	0	0.500834941864	510.0	-118.0	511	-116	1
1.7	2015_Jul_23_0913	s	s	5	4	SIC	405	RC	1	0	23MC	1	0	1.05877614021	-267.0	-268.0	-269	-273	1
1.7	2015_Jul_23_0913	s	s	5	4	SIC	406	RC	1	1	23MO	1	0	0.526440858841	-199.0	157.0	-206	156	1
1.7	2015_Jul_23_0913	s	s	5	4	SIC	407	ABS	2	0	24VC	0	1	0.700436830521	None	None	None	None	1
1.7	2015_Jul_23_0913	s	s	5	4	SIC	408	ABS	2	2	24VD	0	1	0.641688108444	None	None	None	None	1
1.7	2015_Jul_23_0913	s	s	5	4	SIC	409	RC	0	1	23RO	1	0	3.05285382271	-196.0	259.0	-201	268	1
1.7	2015_Jul_23_0913	s	s	5	4	SIC	410	ABS	1	1	24MO	0	1	3.30692791939	None	None	None	None	1
1.7	2015_Jul_23_0913	s	s	5	4	SIC	411	ABS	1	0	24MC	0	1	3.63285684586	None	None	None	None	1
1.7	2015_Jul_23_0913	s	s	5	4	SIC	412	ABS	0	2	24RD	0	1	0.999804019928	None	None	None	None	1
1.7	2015_Jul_23_0913	s	s	5	4	SIC	413	RC	2	2	23VD	1	0	0.571058034897	-133.0	364.0	-129	359	1
1.7	2015_Jul_23_0913	s	s	5	4	SIC	414	ABS	1	2	24MD	0	1	0.854759931564	None	None	None	None	1
1.7	2015_Jul_23_0913	s	s	5	4	SIC	415	ABS	0	1	24RO	0	1	4.84887599945	None	None	None	None	1
1.7	2015_Jul_23_0913	s	s	5	4	SIC	416	ABS	2	1	24VO	0	1	0.877201080322	None	None	None	None	1
1.7	2015_Jul_23_0913	s	s	5	4	SIC	417	ABS	2	1	24VO	0	1	0.559668779373	None	None	None	None	1
1.7	2015_Jul_23_0913	s	s	5	4	SIC	418	RC	0	2	23RD	1	0	0.594678878784	-23.0	33.0	-27	35	1
1.7	2015_Jul_23_0913	s	s	5	4	SIC	419	RC	1	2	23MD	1	0	0.623179912567	-232.0	-312.0	-229	-311	1
1.7	2015_Jul_23_0913	s	s	5	4	SIC	420	ABS	0	2	24RD	0	1	1.14108204842	None	None	None	None	1
1.7	2015_Jul_23_0913	s	s	5	4	SIC	421	ABS	2	0	24VC	0	1	0.735712051392	None	None	None	None	1
1.7	2015_Jul_23_0913	s	s	5	4	SIC	422	RC	2	2	23VD	1	0	0.666985034943	361.0	394.0	357	391	1
1.7	2015_Jul_23_0913	s	s	5	4	SIC	423	RC	2	0	23VC	1	0	0.454988956451	-416.0	-12.0	-422	-12	1
1.7	2015_Jul_23_0913	s	s	5	4	SIC	424	RC	1	0	23MC	1	0	0.564420938492	-229.0	168.0	-222	162	1
1.7	2015_Jul_23_0913	s	s	5	4	SIC	425	ABS	0	1	24RO	0	1	4.58441209793	None	None	None	None	1
1.7	2015_Jul_23_0913	s	s	5	4	SIC	426	RC	2	1	23VO	1	0	0.493725061417	-210.0	313.0	-210	308	1
1.7	2015_Jul_23_0913	s	s	5	4	SIC	427	RC	0	1	23RO	0	1	5.09605503082	-248.0	394.0	None	None	0
1.7	2015_Jul_23_0913	s	s	5	4	SIC	428	ABS	1	1	24MO	0	1	1.63552212715	None	None	None	None	1
1.7	2015_Jul_23_0913	s	s	5	4	SIC	429	ABS	1	0	24MC	0	1	2.37701392174	None	None	None	None	1
1.7	2015_Jul_23_0913	s	s	5	4	SIC	430	ABS	1	2	24MD	0	1	0.717362880707	None	None	None	None	1
1.7	2015_Jul_23_0913	s	s	5	4	SIC	431	ABS	2	2	24VD	0	1	0.670375108719	None	None	None	None	1
1.7	2015_Jul_23_0913	s	s	5	4	SIC	432	RC	1	1	23MO	1	0	1.83257889748	325.0	-356.0	324	-360	1
1.7	2015_Jul_23_0913	s	s	5	4	SIC	433	ABS	1	0	24MC	0	1	2.59638094902	None	None	None	None	1
1.7	2015_Jul_23_0913	s	s	5	4	SIC	434	ABS	2	2	24VD	0	1	0.630009889603	None	None	None	None	1
1.7	2015_Jul_23_0913	s	s	5	4	SIC	435	RC	0	1	23RO	1	0	3.31358003616	-99.0	390.0	-95	395	1
1.7	2015_Jul_23_0913	s	s	5	4	SIC	436	RC	1	0	23MC	1	0	0.953059911728	-386.0	220.0	-380	226	1
1.7	2015_Jul_23_0913	s	s	5	4	SIC	437	ABS	0	1	24RO	0	1	5.9905591011	None	None	None	None	1
1.7	2015_Jul_23_0913	s	s	5	4	SIC	438	ABS	1	1	24MO	0	1	2.45295906067	None	None	None	None	1
1.7	2015_Jul_23_0913	s	s	5	4	SIC	439	RC	0	2	23RD	1	0	0.626950025558	-348.0	320.0	-353	327	1
1.7	2015_Jul_23_0913	s	s	5	4	SIC	440	ABS	2	0	24VC	0	1	0.764461040497	None	None	None	None	1
1.7	2015_Jul_23_0913	s	s	5	4	SIC	441	RC	1	2	23MD	1	0	0.583402872086	-412.0	-244.0	-414	-245	1
1.7	2015_Jul_23_0913	s	s	5	4	SIC	442	RC	1	1	23MO	1	0	0.546480894089	51.0	34.0	53	28	1
1.7	2015_Jul_23_0913	s	s	5	4	SIC	443	RC	2	2	23VD	1	0	0.498945951462	93.0	294.0	90	292	1
1.7	2015_Jul_23_0913	s	s	5	4	SIC	444	ABS	0	2	24RD	0	1	1.69453191757	None	None	None	None	1
1.7	2015_Jul_23_0913	s	s	5	4	SIC	445	ABS	2	1	24VO	0	1	0.750017881393	None	None	None	None	1
1.7	2015_Jul_23_0913	s	s	5	4	SIC	446	ABS	1	2	24MD	0	1	0.838747024536	None	None	None	None	1
1.7	2015_Jul_23_0913	s	s	5	4	SIC	447	RC	2	1	23VO	1	0	0.611350059509	-526.0	-4.0	-521	4	1
1.7	2015_Jul_23_0913	s	s	5	4	SIC	448	RC	2	0	23VC	1	0	0.571444988251	-79.0	-52.0	-78	-56	1
1.7	2015_Jul_23_0913	s	s	5	4	SIC	449	RC	2	2	23VD	1	0	0.517227172852	111.0	-256.0	116	-255	1
1.7	2015_Jul_23_0913	s	s	5	4	SIC	450	ABS	0	1	24RO	0	1	4.36995697021	None	None	None	None	1
1.7	2015_Jul_23_0913	s	s	5	4	SIC	451	RC	1	0	23MC	1	0	2.68307900429	-104.0	-361.0	-100	-359	1
1.7	2015_Jul_23_0913	s	s	5	4	SIC	452	ABS	0	2	24RD	0	1	0.842340946198	None	None	None	None	1
1.7	2015_Jul_23_0913	s	s	5	4	SIC	453	ABS	2	2	24VD	0	1	0.740881919861	None	None	None	None	1
1.7	2015_Jul_23_0913	s	s	5	4	SIC	454	RC	1	1	23MO	1	0	0.65846991539	-227.0	-109.0	-218	-108	1
1.7	2015_Jul_23_0913	s	s	5	4	SIC	455	ABS	1	0	24MC	0	1	3.2362639904	None	None	None	None	1
1.7	2015_Jul_23_0913	s	s	5	4	SIC	456	RC	0	1	23RO	1	0	2.11316394806	475.0	352.0	484	360	1
1.7	2015_Jul_23_0913	s	s	5	4	SIC	457	RC	2	0	23VC	1	0	0.524052858353	-389.0	285.0	-388	294	1
1.7	2015_Jul_23_0913	s	s	5	4	SIC	458	ABS	1	1	24MO	0	1	2.37696909904	None	None	None	None	1
1.7	2015_Jul_23_0913	s	s	5	4	SIC	459	RC	1	2	23MD	1	0	0.517298936844	-124.0	105.0	-120	96	1
1.7	2015_Jul_23_0913	s	s	5	4	SIC	460	ABS	2	0	24VC	0	1	0.677144050598	None	None	None	None	1
1.7	2015_Jul_23_0913	s	s	5	4	SIC	461	ABS	2	1	24VO	0	1	0.658463001251	None	None	None	None	1
1.7	2015_Jul_23_0913	s	s	5	4	SIC	462	ABS	1	2	24MD	0	1	0.666702032089	None	None	None	None	1
1.7	2015_Jul_23_0913	s	s	5	4	SIC	463	RC	0	2	23RD	1	0	0.693895816803	104.0	386.0	104	375	1
1.7	2015_Jul_23_0913	s	s	5	4	SIC	464	RC	2	1	23VO	1	0	0.505347013474	-141.0	287.0	-139	275	1
1.7	2015_Jul_23_0913	s	s	5	4	SIC	465	RC	1	2	23MD	1	0	0.517153978348	-281.0	280.0	-277	279	1
1.7	2015_Jul_23_0913	s	s	5	4	SIC	466	ABS	2	2	24VD	0	1	0.935548067093	None	None	None	None	1
1.7	2015_Jul_23_0913	s	s	5	4	SIC	467	RC	2	2	23VD	1	0	0.689024925232	487.0	-114.0	485	-113	1
1.7	2015_Jul_23_0913	s	s	5	4	SIC	468	RC	2	0	23VC	1	0	0.517264842987	189.0	-260.0	195	-255	1
1.7	2015_Jul_23_0913	s	s	5	4	SIC	469	RC	0	2	23RD	1	0	0.446662902832	124.0	-12.0	123	-3	1
1.7	2015_Jul_23_0913	s	s	5	4	SIC	470	ABS	1	0	24MC	0	1	2.23944497108	None	None	None	None	1
1.7	2015_Jul_23_0913	s	s	5	4	SIC	471	ABS	0	1	24RO	0	1	5.29613089561	None	None	None	None	1
1.7	2015_Jul_23_0913	s	s	5	4	SIC	472	RC	2	1	23VO	1	0	0.529461860657	-380.0	-138.0	-378	-131	1
1.7	2015_Jul_23_0913	s	s	5	4	SIC	473	ABS	1	1	24MO	0	1	2.20717406273	None	None	None	None	1
1.7	2015_Jul_23_0913	s	s	5	4	SIC	474	ABS	2	1	24VO	0	1	0.69370508194	None	None	None	None	1
1.7	2015_Jul_23_0913	s	s	5	4	SIC	475	RC	1	0	23MC	1	0	4.21978783607	183.0	-326.0	186	-318	1
1.7	2015_Jul_23_0913	s	s	5	4	SIC	476	ABS	2	0	24VC	0	1	0.723808050156	None	None	None	None	1
1.7	2015_Jul_23_0913	s	s	5	4	SIC	477	ABS	1	2	24MD	0	1	1.47797298431	None	None	None	None	1
1.7	2015_Jul_23_0913	s	s	5	4	SIC	478	RC	0	1	23RO	1	0	2.83608603477	16.0	-393.0	17	-393	1
1.7	2015_Jul_23_0913	s	s	5	4	SIC	479	RC	1	1	23MO	0	1	1.70611310005	-527.0	-354.0	None	None	0
1.7	2015_Jul_23_0913	s	s	5	4	SIC	480	ABS	0	2	24RD	0	1	0.805994987488	None	None	None	None	1
1.7	2015_Jul_23_0913	s	s	5	4	SIC	481	ABS	2	1	24VO	0	1	0.493948936462	None	None	None	None	1
1.7	2015_Jul_23_0913	s	s	5	4	SIC	482	RC	2	2	23VD	1	0	0.682047843933	-421.0	57.0	-424	61	1
1.7	2015_Jul_23_0913	s	s	5	4	SIC	483	RC	0	1	23RO	1	0	2.17701101303	534.0	142.0	532	142	1
1.7	2015_Jul_23_0913	s	s	5	4	SIC	484	RC	0	2	23RD	1	0	0.560608148575	473.0	209.0	479	208	1
1.7	2015_Jul_23_0913	s	s	5	4	SIC	485	RC	1	2	23MD	1	0	0.488658905029	373.0	316.0	370	312	1
1.7	2015_Jul_23_0913	s	s	5	4	SIC	486	RC	2	0	23VC	1	0	0.540807962418	-69.0	-297.0	-69	-298	1
1.7	2015_Jul_23_0913	s	s	5	4	SIC	487	RC	2	1	23VO	1	0	0.529086112976	30.0	-294.0	39	-293	1
1.7	2015_Jul_23_0913	s	s	5	4	SIC	488	RC	1	0	23MC	1	0	2.06534981728	303.0	193.0	303	193	1
1.7	2015_Jul_23_0913	s	s	5	4	SIC	489	ABS	1	1	24MO	0	1	2.60061597824	None	None	None	None	1
1.7	2015_Jul_23_0913	s	s	5	4	SIC	490	ABS	1	2	24MD	0	1	0.818295001984	None	None	None	None	1
1.7	2015_Jul_23_0913	s	s	5	4	SIC	491	ABS	0	1	24RO	0	1	5.07250189781	None	None	None	None	1
1.7	2015_Jul_23_0913	s	s	5	4	SIC	492	ABS	0	2	24RD	0	1	0.788140058517	None	None	None	None	1
1.7	2015_Jul_23_0913	s	s	5	4	SIC	493	ABS	2	0	24VC	0	1	0.666709899902	None	None	None	None	1
1.7	2015_Jul_23_0913	s	s	5	4	SIC	494	ABS	1	0	24MC	0	1	3.80125904083	None	None	None	None	1
1.7	2015_Jul_23_0913	s	s	5	4	SIC	495	RC	1	1	23MO	1	0	2.0781750679	-493.0	-183.0	-498	-187	1
1.7	2015_Jul_23_0913	s	s	5	4	SIC	496	ABS	2	2	24VD	0	1	0.735399007797	None	None	None	None	1
1.7	2015_Jul_23_0913	s	s	5	4	SIC	497	ABS	2	2	24VD	0	1	0.641407012939	None	None	None	None	1
1.7	2015_Jul_23_0913	s	s	5	4	SIC	498	RC	2	0	23VC	1	0	0.599617004395	-519.0	75.0	-519	79	1
1.7	2015_Jul_23_0913	s	s	5	4	SIC	499	ABS	1	0	24MC	0	1	2.20963907242	None	None	None	None	1
1.7	2015_Jul_23_0913	s	s	5	4	SIC	500	ABS	0	1	24RO	0	1	4.67225694656	None	None	None	None	1
1.7	2015_Jul_23_0913	s	s	5	4	SIC	501	ABS	2	1	24VO	0	1	0.653451919556	None	None	None	None	1
1.7	2015_Jul_23_0913	s	s	5	4	SIC	502	RC	0	1	23RO	0	1	3.91474485397	-528.0	-343.0	None	None	0
1.7	2015_Jul_23_0913	s	s	5	4	SIC	503	RC	1	2	23MD	1	0	0.952796936035	-93.0	-216.0	-89	-218	1
1.7	2015_Jul_23_0913	s	s	5	4	SIC	504	RC	2	2	23VD	1	0	0.535222768784	39.0	-268.0	45	-263	1
1.7	2015_Jul_23_0913	s	s	5	4	SIC	505	RC	0	2	23RD	1	0	0.641880989075	-459.0	-166.0	-458	-166	1
1.7	2015_Jul_23_0913	s	s	5	4	SIC	506	ABS	1	1	24MO	0	1	2.08025193214	None	None	None	None	1
1.7	2015_Jul_23_0913	s	s	5	4	SIC	507	ABS	1	2	24MD	0	1	0.912646770477	None	None	None	None	1
1.7	2015_Jul_23_0913	s	s	5	4	SIC	508	RC	2	1	23VO	1	0	0.66678404808	513.0	279.0	524	284	1
1.7	2015_Jul_23_0913	s	s	5	4	SIC	509	ABS	2	0	24VC	0	1	0.689461946487	None	None	None	None	1
1.7	2015_Jul_23_0913	s	s	5	4	SIC	510	RC	1	0	23MC	1	0	1.1829969883	358.0	70.0	356	80	1
1.7	2015_Jul_23_0913	s	s	5	4	SIC	511	RC	1	1	23MO	1	0	1.48248815536	-101.0	-357.0	-97	-356	1
1.7	2015_Jul_23_0913	s	s	5	4	SIC	512	ABS	0	2	24RD	0	1	1.43546795845	None	None	None	None	1
1.7	2015_Jul_23_0913	s	s	5	4	SIC	513	ABS	0	1	24RO	0	1	4.96324300766	None	None	None	None	1
1.7	2015_Jul_23_0913	s	s	5	4	SIC	514	RC	0	2	23RD	1	0	0.717214822769	500.0	405.0	497	408	1
1.7	2015_Jul_23_0913	s	s	5	4	SIC	515	RC	2	1	23VO	1	0	0.552599191666	-124.0	-345.0	-122	-349	1
1.7	2015_Jul_23_0913	s	s	5	4	SIC	516	ABS	2	1	24VO	0	1	0.784506797791	None	None	None	None	1
1.7	2015_Jul_23_0913	s	s	5	4	SIC	517	RC	2	2	23VD	1	0	0.552687883377	92.0	-117.0	91	-113	1
1.7	2015_Jul_23_0913	s	s	5	4	SIC	518	RC	0	1	23RO	0	1	4.99010300636	-518.0	-322.0	None	None	0
1.7	2015_Jul_23_0913	s	s	5	4	SIC	519	RC	2	0	23VC	1	0	0.583492994308	83.0	310.0	78	319	1
1.7	2015_Jul_23_0913	s	s	5	4	SIC	520	ABS	0	2	24RD	0	1	0.71421289444	None	None	None	None	1
1.7	2015_Jul_23_0913	s	s	5	4	SIC	521	ABS	1	1	24MO	0	1	2.07800102234	None	None	None	None	1
1.7	2015_Jul_23_0913	s	s	5	4	SIC	522	RC	1	2	23MD	1	0	0.573399066925	478.0	118.0	479	117	1
1.7	2015_Jul_23_0913	s	s	5	4	SIC	523	ABS	1	2	24MD	0	1	0.736247062683	None	None	None	None	1
1.7	2015_Jul_23_0913	s	s	5	4	SIC	524	ABS	2	2	24VD	0	1	0.570433855057	None	None	None	None	1
1.7	2015_Jul_23_0913	s	s	5	4	SIC	525	ABS	1	0	24MC	0	1	2.7368888855	None	None	None	None	1
1.7	2015_Jul_23_0913	s	s	5	4	SIC	526	RC	1	1	23MO	1	0	1.79606509209	121.0	295.0	122	303	1
1.7	2015_Jul_23_0913	s	s	5	4	SIC	527	ABS	2	0	24VC	0	1	0.599626779556	None	None	None	None	1
1.7	2015_Jul_23_0913	s	s	5	4	SIC	528	RC	1	0	23MC	1	0	0.855470895767	476.0	156.0	476	161	1
1.7	2015_Jul_23_0913	s	s	5	4	SIC	529	ABS	0	2	24RD	0	1	0.740931034088	None	None	None	None	1
1.7	2015_Jul_23_0913	s	s	5	4	SIC	530	ABS	2	1	24VO	0	1	0.697588920593	None	None	None	None	1
1.7	2015_Jul_23_0913	s	s	5	4	SIC	531	ABS	1	1	24MO	0	1	1.83543109894	None	None	None	None	1
1.7	2015_Jul_23_0913	s	s	5	4	SIC	532	RC	2	1	23VO	1	0	0.611351966858	-282.0	-213.0	-282	-219	1
1.7	2015_Jul_23_0913	s	s	5	4	SIC	533	RC	1	2	23MD	1	0	0.524545192719	-32.0	-14.0	-28	-19	1
1.7	2015_Jul_23_0913	s	s	5	4	SIC	534	ABS	0	1	24RO	0	1	5.57866191864	None	None	None	None	1
1.7	2015_Jul_23_0913	s	s	5	4	SIC	535	RC	0	2	23RD	1	0	0.500516891479	-16.0	178.0	-25	174	1
1.7	2015_Jul_23_0913	s	s	5	4	SIC	536	ABS	2	0	24VC	0	1	0.725649833679	None	None	None	None	1
1.7	2015_Jul_23_0913	s	s	5	4	SIC	537	ABS	2	2	24VD	0	1	0.587889194489	None	None	None	None	1
1.7	2015_Jul_23_0913	s	s	5	4	SIC	538	RC	1	1	23MO	1	0	0.858651161194	135.0	-130.0	132	-136	1
1.7	2015_Jul_23_0913	s	s	5	4	SIC	539	ABS	1	2	24MD	0	1	0.769847154617	None	None	None	None	1
1.7	2015_Jul_23_0913	s	s	5	4	SIC	540	RC	1	0	23MC	1	0	2.78405284882	117.0	192.0	108	199	1
1.7	2015_Jul_23_0913	s	s	5	4	SIC	541	ABS	1	0	24MC	0	1	2.73015284538	None	None	None	None	1
1.7	2015_Jul_23_0913	s	s	5	4	SIC	542	RC	2	2	23VD	1	0	0.617869138718	-313.0	-290.0	-317	-291	1
1.7	2015_Jul_23_0913	s	s	5	4	SIC	543	RC	2	0	23VC	1	0	0.512356042862	341.0	151.0	341	160	1
1.7	2015_Jul_23_0913	s	s	5	4	SIC	544	RC	0	1	23RO	1	0	0.717646837234	-180.0	-16.0	-170	-16	1
1.7	2015_Jul_23_0913	s	s	5	4	SIC	545	RC	0	2	23RD	1	0	0.634980916977	-503.0	-92.0	-512	-95	1
1.7	2015_Jul_23_0913	s	s	5	4	SIC	546	RC	2	1	23VO	1	0	0.481953144073	455.0	317.0	462	319	1
1.7	2015_Jul_23_0913	s	s	5	4	SIC	547	ABS	1	1	24MO	0	1	1.87775588036	None	None	None	None	1
1.7	2015_Jul_23_0913	s	s	5	4	SIC	548	ABS	0	1	24RO	0	1	3.35390710831	None	None	None	None	1
1.7	2015_Jul_23_0913	s	s	5	4	SIC	549	RC	2	0	23VC	1	0	0.552583932877	-436.0	176.0	-434	173	1
1.7	2015_Jul_23_0913	s	s	5	4	SIC	550	RC	1	2	23MD	1	0	0.561652898788	489.0	174.0	495	181	1
1.7	2015_Jul_23_0913	s	s	5	4	SIC	551	ABS	1	0	24MC	0	1	1.77675294876	None	None	None	None	1
1.7	2015_Jul_23_0913	s	s	5	4	SIC	552	RC	1	0	23MC	1	0	0.882025957108	308.0	157.0	306	153	1
1.7	2015_Jul_23_0913	s	s	5	4	SIC	553	ABS	1	2	24MD	0	1	2.00038313866	None	None	None	None	1
1.7	2015_Jul_23_0913	s	s	5	4	SIC	554	ABS	2	0	24VC	0	1	0.84116101265	None	None	None	None	1
1.7	2015_Jul_23_0913	s	s	5	4	SIC	555	RC	0	1	23RO	1	0	3.20095705986	-346.0	-405.0	-345	-408	1
1.7	2015_Jul_23_0913	s	s	5	4	SIC	556	ABS	2	1	24VO	0	1	0.653512001038	None	None	None	None	1
1.7	2015_Jul_23_0913	s	s	5	4	SIC	557	RC	1	1	23MO	1	0	0.697889089584	484.0	-74.0	484	-74	1
1.7	2015_Jul_23_0913	s	s	5	4	SIC	558	ABS	0	2	24RD	0	1	0.721032142639	None	None	None	None	1
1.7	2015_Jul_23_0913	s	s	5	4	SIC	559	ABS	2	2	24VD	0	1	0.517288923264	None	None	None	None	1
1.7	2015_Jul_23_0913	s	s	5	4	SIC	560	RC	2	2	23VD	1	0	0.771003007889	-81.0	-45.0	-81	-36	1
1.7	2015_Jul_23_0913	s	s	5	4	SIC	561	ABS	1	2	24MD	0	1	0.688862085342	None	None	None	None	1
1.7	2015_Jul_23_0913	s	s	5	4	SIC	562	RC	1	1	23MO	1	0	0.593741893768	-433.0	105.0	-435	98	1
1.7	2015_Jul_23_0913	s	s	5	4	SIC	563	ABS	2	2	24VD	0	1	0.853746175766	None	None	None	None	1
1.7	2015_Jul_23_0913	s	s	5	4	SIC	564	RC	1	2	23MD	1	0	0.55940413475	306.0	-1.0	309	-4	1
1.7	2015_Jul_23_0913	s	s	5	4	SIC	565	RC	0	1	23RO	1	0	0.917510986328	102.0	10.0	101	7	1
1.7	2015_Jul_23_0913	s	s	5	4	SIC	566	RC	2	2	23VD	1	0	0.529072999954	-512.0	-337.0	-521	-339	1
1.7	2015_Jul_23_0913	s	s	5	4	SIC	567	RC	2	0	23VC	1	0	0.568099021912	-30.0	-341.0	-34	-348	1
1.7	2015_Jul_23_0913	s	s	5	4	SIC	568	RC	2	1	23VO	1	0	0.481970071793	-346.0	2.0	-346	10	1
1.7	2015_Jul_23_0913	s	s	5	4	SIC	569	RC	1	0	23MC	1	0	6.70859503746	-43.0	286.0	-42	287	1
1.7	2015_Jul_23_0913	s	s	5	4	SIC	570	ABS	0	2	24RD	0	1	1.25373697281	None	None	None	None	1
1.7	2015_Jul_23_0913	s	s	5	4	SIC	571	ABS	2	1	24VO	0	1	0.678530216217	None	None	None	None	1
1.7	2015_Jul_23_0913	s	s	5	4	SIC	572	RC	0	2	23RD	1	0	0.67707490921	16.0	-346.0	18	-349	1
1.7	2015_Jul_23_0913	s	s	5	4	SIC	573	ABS	1	1	24MO	0	1	1.80023598671	None	None	None	None	1
1.7	2015_Jul_23_0913	s	s	5	4	SIC	574	ABS	1	0	24MC	0	1	4.72618603706	None	None	None	None	1
1.7	2015_Jul_23_0913	s	s	5	4	SIC	575	ABS	2	0	24VC	0	1	0.69996380806	None	None	None	None	1
1.7	2015_Jul_23_0913	s	s	5	4	SIC	576	ABS	0	1	24RO	0	1	5.58537507057	None	None	None	None	1
1.7	2015_Jul_23_0913	s	s	5	4	SIC	577	ABS	2	0	24VC	0	1	0.646735906601	None	None	None	None	1
1.7	2015_Jul_23_0913	s	s	5	4	SIC	578	RC	1	1	23MO	1	0	1.02845311165	-392.0	11.0	-390	11	1
1.7	2015_Jul_23_0913	s	s	5	4	SIC	579	RC	1	2	23MD	1	0	0.582659959793	-174.0	-356.0	-169	-358	1
1.7	2015_Jul_23_0913	s	s	5	4	SIC	580	ABS	0	2	24RD	0	1	0.953311920166	None	None	None	None	1
1.7	2015_Jul_23_0913	s	s	5	4	SIC	581	ABS	2	2	24VD	0	1	0.606696844101	None	None	None	None	1
1.7	2015_Jul_23_0913	s	s	5	4	SIC	582	ABS	0	1	24RO	0	1	4.61338806152	None	None	None	None	1
1.7	2015_Jul_23_0913	s	s	5	4	SIC	583	RC	2	0	23VC	1	0	0.642127037048	-471.0	-96.0	-459	-95	1
1.7	2015_Jul_23_0913	s	s	5	4	SIC	584	ABS	1	2	24MD	0	1	1.16463398933	None	None	None	None	1
1.7	2015_Jul_23_0913	s	s	5	4	SIC	585	RC	2	2	23VD	1	0	0.535770893097	24.0	-246.0	22	-248	1
1.7	2015_Jul_23_0913	s	s	5	4	SIC	586	ABS	1	0	24MC	0	1	4.24848198891	None	None	None	None	1
1.7	2015_Jul_23_0913	s	s	5	4	SIC	587	RC	0	2	23RD	1	0	0.670310974121	-201.0	-394.0	-191	-393	1
1.7	2015_Jul_23_0913	s	s	5	4	SIC	588	RC	2	1	23VO	1	0	0.534528970718	327.0	-227.0	328	-234	1
1.7	2015_Jul_23_0913	s	s	5	4	SIC	589	ABS	1	1	24MO	0	1	2.34956097603	None	None	None	None	1
1.7	2015_Jul_23_0913	s	s	5	4	SIC	590	RC	1	0	23MC	1	0	0.700783967972	195.0	122.0	190	125	1
1.7	2015_Jul_23_0913	s	s	5	4	SIC	591	RC	0	1	23RO	1	0	3.70173096657	-190.0	73.0	-190	78	1
1.7	2015_Jul_23_0913	s	s	5	4	SIC	592	ABS	2	1	24VO	0	1	0.688497066498	None	None	None	None	1
