Version	Date	Stimuli	Method	Subject	Session	Condition	Trial	Target	Channel1	Channel2	Distractors	LMouseButton	RMouseButton	RT	TargetX	TargetY	ResponseX	ResponseY	Correct
1.7	2015_Jul_20_0914	s	s	5	1	Capacity	1	RC	0	2	23RD	1	0	1.41183686256	-325.0	-179.0	-314	-179	1
1.7	2015_Jul_20_0914	s	s	5	1	Capacity	2	ABS	0	2	24RD	0	1	5.15045189857	None	None	None	None	1
1.7	2015_Jul_20_0914	s	s	5	1	Capacity	3	RC	0	1	23RO	1	0	5.33827996254	477.0	-280.0	486	-278	1
1.7	2015_Jul_20_0914	s	s	5	1	Capacity	4	ABS	0	1	24RO	0	1	9.2745950222	None	None	None	None	1
1.7	2015_Jul_20_0914	s	s	5	1	Capacity	5	ABS	0	1	24RO	0	1	12.0741169453	None	None	None	None	1
1.7	2015_Jul_20_0914	s	s	5	1	Capacity	6	RC	0	2	23RD	1	0	1.22104597092	105.0	41.0	109	38	1
1.7	2015_Jul_20_0914	s	s	5	1	Capacity	7	RC	0	1	23RO	1	0	3.37317800522	415.0	84.0	417	81	1
1.7	2015_Jul_20_0914	s	s	5	1	Capacity	8	ABS	0	2	24RD	0	1	8.05687499046	None	None	None	None	1
1.7	2015_Jul_20_0914	s	s	5	1	Capacity	9	ABS	0	1	24RO	0	1	18.1441590786	None	None	None	None	1
1.7	2015_Jul_20_0914	s	s	5	1	Capacity	10	RC	0	1	23RO	1	0	19.533673048	158.0	246.0	157	241	1
1.7	2015_Jul_20_0914	s	s	5	1	Capacity	11	RC	0	2	23RD	1	0	1.67074799538	401.0	220.0	406	220	1
1.7	2015_Jul_20_0914	s	s	5	1	Capacity	12	ABS	0	2	24RD	0	1	8.69786095619	None	None	None	None	1
1.7	2015_Jul_20_0914	s	s	5	1	Capacity	13	RC	0	2	23RD	1	0	1.48248291016	-400.0	-118.0	-398	-122	1
1.7	2015_Jul_20_0914	s	s	5	1	Capacity	14	ABS	0	2	24RD	0	1	6.31213402748	None	None	None	None	1
1.7	2015_Jul_20_0914	s	s	5	1	Capacity	15	ABS	0	1	24RO	0	1	19.7592818737	None	None	None	None	1
1.7	2015_Jul_20_0914	s	s	5	1	Capacity	16	RC	0	1	23RO	1	0	2.58890199661	435.0	167.0	435	162	1
1.7	2015_Jul_20_0914	s	s	5	1	Capacity	17	RC	0	1	23RO	1	0	2.33670210838	-201.0	337.0	-201	327	1
1.7	2015_Jul_20_0914	s	s	5	1	Capacity	18	RC	0	2	23RD	1	0	1.36478686333	-49.0	-151.0	-42	-151	1
1.7	2015_Jul_20_0914	s	s	5	1	Capacity	19	ABS	0	1	24RO	0	0	-1	None	None	None	None	-1
1.7	2015_Jul_20_0914	s	s	5	1	Capacity	20	ABS	0	2	24RD	0	1	7.78636288643	None	None	None	None	1
1.7	2015_Jul_20_0914	s	s	5	1	Capacity	21	ABS	0	2	24RD	0	1	7.02639603615	None	None	None	None	1
1.7	2015_Jul_20_0914	s	s	5	1	Capacity	22	RC	0	2	23RD	1	0	1.41180610657	-89.0	278.0	-88	273	1
1.7	2015_Jul_20_0914	s	s	5	1	Capacity	23	ABS	0	1	24RO	0	1	13.0705990791	None	None	None	None	1
1.7	2015_Jul_20_0914	s	s	5	1	Capacity	24	RC	0	1	23RO	1	0	2.16013097763	419.0	144.0	421	148	1
1.7	2015_Jul_20_0914	s	s	5	1	Capacity	25	ABS	0	1	24RO	0	1	8.37994194031	None	None	None	None	1
1.7	2015_Jul_20_0914	s	s	5	1	Capacity	26	RC	0	2	23RD	1	0	1.4236779213	537.0	-188.0	537	-190	1
1.7	2015_Jul_20_0914	s	s	5	1	Capacity	27	ABS	0	2	24RD	0	1	4.74962592125	None	None	None	None	1
1.7	2015_Jul_20_0914	s	s	5	1	Capacity	28	RC	0	1	23RO	1	0	9.79235911369	-537.0	188.0	-538	186	1
1.7	2015_Jul_20_0914	s	s	5	1	Capacity	29	ABS	0	2	24RD	0	1	4.83705806732	None	None	None	None	1
1.7	2015_Jul_20_0914	s	s	5	1	Capacity	30	RC	0	2	23RD	1	0	0.938220024109	22.0	-84.0	24	-89	1
1.7	2015_Jul_20_0914	s	s	5	1	Capacity	31	ABS	0	1	24RO	0	1	14.7420339584	None	None	None	None	1
1.7	2015_Jul_20_0914	s	s	5	1	Capacity	32	RC	0	1	23RO	1	0	1.31279015541	202.0	403.0	213	408	1
1.7	2015_Jul_20_0914	s	s	5	1	Capacity	33	ABS	0	2	24RD	0	1	9.29336118698	None	None	None	None	1
1.7	2015_Jul_20_0914	s	s	5	1	Capacity	34	RC	0	1	23RO	1	0	3.28337812424	-167.0	-384.0	-167	-390	1
1.7	2015_Jul_20_0914	s	s	5	1	Capacity	35	ABS	0	1	24RO	0	1	10.7105538845	None	None	None	None	1
1.7	2015_Jul_20_0914	s	s	5	1	Capacity	36	RC	0	2	23RD	1	0	0.999827861786	425.0	-64.0	438	-59	1
1.7	2015_Jul_20_0914	s	s	5	1	Capacity	37	RC	0	2	23RD	1	0	1.04124403	-412.0	310.0	-413	301	1
1.7	2015_Jul_20_0914	s	s	5	1	Capacity	38	ABS	0	2	24RD	0	1	6.29699492455	None	None	None	None	1
1.7	2015_Jul_20_0914	s	s	5	1	Capacity	39	ABS	0	1	24RO	0	1	9.92872309685	None	None	None	None	1
1.7	2015_Jul_20_0914	s	s	5	1	Capacity	40	RC	0	1	23RO	1	0	1.63545894623	527.0	343.0	528	338	1
1.7	2015_Jul_20_0914	s	s	5	1	Capacity	41	ABS	0	1	24RO	0	1	8.8508579731	None	None	None	None	1
1.7	2015_Jul_20_0914	s	s	5	1	Capacity	42	RC	0	2	23RD	1	0	2.58873510361	-298.0	-127.0	-299	-123	1
1.7	2015_Jul_20_0914	s	s	5	1	Capacity	43	RC	0	1	23RO	0	1	11.6708390713	268.0	386.0	None	None	0
1.7	2015_Jul_20_0914	s	s	5	1	Capacity	44	ABS	0	2	24RD	0	1	7.07332921028	None	None	None	None	1
1.7	2015_Jul_20_0914	s	s	5	1	Capacity	45	RC	0	2	23RD	1	0	1.12568688393	203.0	11.0	211	15	1
1.7	2015_Jul_20_0914	s	s	5	1	Capacity	46	RC	0	1	23RO	1	0	10.0007538795	-108.0	-322.0	-108	-322	1
1.7	2015_Jul_20_0914	s	s	5	1	Capacity	47	ABS	0	1	24RO	0	1	8.82238888741	None	None	None	None	1
1.7	2015_Jul_20_0914	s	s	5	1	Capacity	48	ABS	0	2	24RD	0	1	5.24411082268	None	None	None	None	1
1.7	2015_Jul_20_0914	s	s	5	1	Capacity	49	RC	0	1	23RO	1	0	8.39881587029	-291.0	-300.0	-287	-298	1
1.7	2015_Jul_20_0914	s	s	5	1	Capacity	50	RC	0	2	23RD	1	0	1.14109706879	-54.0	230.0	-49	237	1
1.7	2015_Jul_20_0914	s	s	5	1	Capacity	51	ABS	0	1	24RO	0	1	8.36334395409	None	None	None	None	1
1.7	2015_Jul_20_0914	s	s	5	1	Capacity	52	ABS	0	2	24RD	0	1	5.76227402687	None	None	None	None	1
1.7	2015_Jul_20_0914	s	s	5	1	Capacity	53	ABS	0	2	24RD	0	1	5.32608699799	None	None	None	None	1
1.7	2015_Jul_20_0914	s	s	5	1	Capacity	54	RC	0	1	23RO	1	0	11.1144418716	-205.0	-186.0	-211	-187	1
1.7	2015_Jul_20_0914	s	s	5	1	Capacity	55	RC	0	2	23RD	1	0	1.86838078499	-334.0	-332.0	-336	-334	1
1.7	2015_Jul_20_0914	s	s	5	1	Capacity	56	ABS	0	1	24RO	0	1	9.61096310616	None	None	None	None	1
1.7	2015_Jul_20_0914	s	s	5	1	Capacity	57	ABS	0	2	24RD	0	1	6.01415896416	None	None	None	None	1
1.7	2015_Jul_20_0914	s	s	5	1	Capacity	58	RC	0	2	23RD	1	0	1.18817996979	-36.0	387.0	-30	386	1
1.7	2015_Jul_20_0914	s	s	5	1	Capacity	59	ABS	0	1	24RO	0	1	12.8478040695	None	None	None	None	1
1.7	2015_Jul_20_0914	s	s	5	1	Capacity	60	RC	0	1	23RO	1	0	4.46744608879	89.0	-83.0	96	-89	1
1.7	2015_Jul_20_0914	s	s	5	1	Capacity	61	RC	0	1	23RO	1	0	9.62798690796	-127.0	-371.0	-133	-379	1
1.7	2015_Jul_20_0914	s	s	5	1	Capacity	62	ABS	0	2	24RD	0	1	8.45062208176	None	None	None	None	1
1.7	2015_Jul_20_0914	s	s	5	1	Capacity	63	ABS	0	1	24RO	0	1	11.0353050232	None	None	None	None	1
1.7	2015_Jul_20_0914	s	s	5	1	Capacity	64	RC	0	2	23RD	1	0	1.09400892258	-514.0	37.0	-510	32	1
1.7	2015_Jul_20_0914	s	s	5	1	Capacity	65	ABS	0	1	24RO	0	1	16.2310159206	None	None	None	None	1
1.7	2015_Jul_20_0914	s	s	5	1	Capacity	66	RC	0	2	23RD	1	0	1.28220796585	260.0	-121.0	263	-121	1
1.7	2015_Jul_20_0914	s	s	5	1	Capacity	67	RC	0	1	23RO	1	0	5.67935395241	-116.0	172.0	-122	172	1
1.7	2015_Jul_20_0914	s	s	5	1	Capacity	68	ABS	0	2	24RD	0	1	6.44967412949	None	None	None	None	1
1.7	2015_Jul_20_0914	s	s	5	1	Capacity	69	RC	0	1	23RO	1	0	1.40003705025	445.0	-43.0	441	-38	1
1.7	2015_Jul_20_0914	s	s	5	1	Capacity	70	ABS	0	1	24RO	0	1	9.48096895218	None	None	None	None	1
1.7	2015_Jul_20_0914	s	s	5	1	Capacity	71	RC	0	2	23RD	1	0	0.90327501297	473.0	10.0	464	11	1
1.7	2015_Jul_20_0914	s	s	5	1	Capacity	72	ABS	0	2	24RD	0	1	8.1168050766	None	None	None	None	1
1.7	2015_Jul_20_0914	s	s	5	1	Capacity	73	RC	0	1	23RO	1	0	4.45545291901	-58.0	-124.0	-61	-125	1
1.7	2015_Jul_20_0914	s	s	5	1	Capacity	74	ABS	0	1	24RO	0	1	8.46864199638	None	None	None	None	1
1.7	2015_Jul_20_0914	s	s	5	1	Capacity	75	ABS	0	2	24RD	0	1	4.13699793816	None	None	None	None	1
1.7	2015_Jul_20_0914	s	s	5	1	Capacity	76	RC	0	2	23RD	1	0	0.893929004669	377.0	-364.0	376	-369	1
1.7	2015_Jul_20_0914	s	s	5	1	Capacity	77	ABS	0	2	24RD	0	1	4.78990221024	None	None	None	None	1
1.7	2015_Jul_20_0914	s	s	5	1	Capacity	78	RC	0	2	23RD	1	0	0.811560153961	-365.0	77.0	-368	71	1
1.7	2015_Jul_20_0914	s	s	5	1	Capacity	79	RC	0	1	23RO	1	0	10.0045859814	-489.0	-238.0	-481	-239	1
1.7	2015_Jul_20_0914	s	s	5	1	Capacity	80	ABS	0	1	24RO	0	1	13.7546169758	None	None	None	None	1
1.7	2015_Jul_20_0914	s	s	5	1	Capacity	81	ABS	0	2	24RD	0	1	5.77871584892	None	None	None	None	1
1.7	2015_Jul_20_0914	s	s	5	1	Capacity	82	ABS	0	1	24RO	0	1	10.5388431549	None	None	None	None	1
1.7	2015_Jul_20_0914	s	s	5	1	Capacity	83	RC	0	1	23RO	1	0	8.42716097832	-474.0	-291.0	-482	-296	1
1.7	2015_Jul_20_0914	s	s	5	1	Capacity	84	RC	0	2	23RD	1	0	1.01166605949	-403.0	-147.0	-413	-148	1
1.7	2015_Jul_20_0914	s	s	5	1	Capacity	85	RC	0	2	23RD	1	0	0.929215908051	7.0	182.0	13	184	1
1.7	2015_Jul_20_0914	s	s	5	1	Capacity	86	RC	0	1	23RO	1	0	1.51257681847	259.0	-246.0	260	-242	1
1.7	2015_Jul_20_0914	s	s	5	1	Capacity	87	ABS	0	2	24RD	0	1	4.7546851635	None	None	None	None	1
1.7	2015_Jul_20_0914	s	s	5	1	Capacity	88	ABS	0	1	24RO	0	1	10.3877198696	None	None	None	None	1
1.7	2015_Jul_20_0914	s	s	5	1	Capacity	89	ABS	0	2	24RD	0	1	3.1723959446	None	None	None	None	1
1.7	2015_Jul_20_0914	s	s	5	1	Capacity	90	RC	0	2	23RD	1	0	0.983057022095	328.0	75.0	336	71	1
1.7	2015_Jul_20_0914	s	s	5	1	Capacity	91	RC	0	1	23RO	1	0	2.97763299942	532.0	234.0	538	232	1
1.7	2015_Jul_20_0914	s	s	5	1	Capacity	92	ABS	0	1	24RO	0	1	7.05850100517	None	None	None	None	1
1.7	2015_Jul_20_0914	s	s	5	1	Capacity	1	RC	1	0	23MC	1	0	10.2397279739	440.0	323.0	456	331	1
1.7	2015_Jul_20_0914	s	s	5	1	Capacity	2	RC	2	0	23VC	1	0	1.65928506851	-458.0	376.0	-457	378	1
1.7	2015_Jul_20_0914	s	s	5	1	Capacity	3	ABS	1	0	24MC	0	1	14.1476008892	None	None	None	None	1
1.7	2015_Jul_20_0914	s	s	5	1	Capacity	4	ABS	2	0	24VC	0	1	1.79551792145	None	None	None	None	1
1.7	2015_Jul_20_0914	s	s	5	1	Capacity	5	ABS	2	0	24VC	0	1	1.72965598106	None	None	None	None	1
1.7	2015_Jul_20_0914	s	s	5	1	Capacity	6	ABS	1	0	24MC	0	1	11.7699558735	None	None	None	None	1
1.7	2015_Jul_20_0914	s	s	5	1	Capacity	7	RC	1	0	23MC	1	0	2.43061518669	-520.0	-253.0	-516	-257	1
1.7	2015_Jul_20_0914	s	s	5	1	Capacity	8	RC	2	0	23VC	1	0	0.905689001083	-539.0	90.0	-536	86	1
1.7	2015_Jul_20_0914	s	s	5	1	Capacity	9	ABS	2	0	24VC	0	1	1.53632616997	None	None	None	None	1
1.7	2015_Jul_20_0914	s	s	5	1	Capacity	10	RC	2	0	23VC	1	0	0.870376110077	251.0	42.0	248	37	1
1.7	2015_Jul_20_0914	s	s	5	1	Capacity	11	RC	1	0	23MC	1	0	19.809194088	-256.0	-396.0	-251	-401	1
1.7	2015_Jul_20_0914	s	s	5	1	Capacity	12	ABS	1	0	24MC	0	1	9.8109858036	None	None	None	None	1
1.7	2015_Jul_20_0914	s	s	5	1	Capacity	13	RC	1	0	23MC	1	0	11.2824339867	-7.0	-396.0	3	-396	1
1.7	2015_Jul_20_0914	s	s	5	1	Capacity	14	RC	2	0	23VC	1	0	2.10164403915	447.0	-224.0	450	-228	1
1.7	2015_Jul_20_0914	s	s	5	1	Capacity	15	ABS	2	0	24VC	0	1	1.60017108917	None	None	None	None	1
1.7	2015_Jul_20_0914	s	s	5	1	Capacity	16	ABS	1	0	24MC	0	1	7.87395906448	None	None	None	None	1
1.7	2015_Jul_20_0914	s	s	5	1	Capacity	17	ABS	2	0	24VC	0	1	1.74886798859	None	None	None	None	1
1.7	2015_Jul_20_0914	s	s	5	1	Capacity	18	ABS	1	0	24MC	0	0	-1	None	None	None	None	-1
1.7	2015_Jul_20_0914	s	s	5	1	Capacity	19	RC	2	0	23VC	1	0	2.85947394371	446.0	109.0	440	109	1
1.7	2015_Jul_20_0914	s	s	5	1	Capacity	20	RC	1	0	23MC	1	0	4.07915186882	-415.0	-25.0	-409	-19	1
1.7	2015_Jul_20_0914	s	s	5	1	Capacity	21	ABS	1	0	24MC	0	1	13.9237809181	None	None	None	None	1
1.7	2015_Jul_20_0914	s	s	5	1	Capacity	22	RC	1	0	23MC	0	1	11.5817101002	-345.0	-70.0	None	None	0
1.7	2015_Jul_20_0914	s	s	5	1	Capacity	23	RC	2	0	23VC	1	0	1.09397006035	-13.0	249.0	-15	248	1
1.7	2015_Jul_20_0914	s	s	5	1	Capacity	24	ABS	2	0	24VC	0	1	1.61998605728	None	None	None	None	1
1.7	2015_Jul_20_0914	s	s	5	1	Capacity	25	RC	1	0	23MC	0	1	12.0491020679	-236.0	346.0	None	None	0
1.7	2015_Jul_20_0914	s	s	5	1	Capacity	26	ABS	1	0	24MC	0	1	8.98034691811	None	None	None	None	1
1.7	2015_Jul_20_0914	s	s	5	1	Capacity	27	RC	2	0	23VC	1	0	0.994853019714	492.0	319.0	495	317	1
1.7	2015_Jul_20_0914	s	s	5	1	Capacity	28	ABS	2	0	24VC	0	1	0.924418926239	None	None	None	None	1
1.7	2015_Jul_20_0914	s	s	5	1	Capacity	29	RC	1	0	23MC	0	1	15.9249529839	-443.0	158.0	None	None	0
1.7	2015_Jul_20_0914	s	s	5	1	Capacity	30	ABS	2	0	24VC	0	1	1.7721760273	None	None	None	None	1
1.7	2015_Jul_20_0914	s	s	5	1	Capacity	31	ABS	1	0	24MC	0	1	12.979888916	None	None	None	None	1
1.7	2015_Jul_20_0914	s	s	5	1	Capacity	32	RC	2	0	23VC	1	0	0.971831083298	91.0	-209.0	99	-204	1
1.7	2015_Jul_20_0914	s	s	5	1	Capacity	33	RC	2	0	23VC	1	0	1.80782485008	248.0	356.0	252	354	1
1.7	2015_Jul_20_0914	s	s	5	1	Capacity	34	ABS	2	0	24VC	0	1	1.95324206352	None	None	None	None	1
1.7	2015_Jul_20_0914	s	s	5	1	Capacity	35	RC	1	0	23MC	0	0	-1	77.0	173.0	None	None	-1
1.7	2015_Jul_20_0914	s	s	5	1	Capacity	36	ABS	1	0	24MC	0	1	13.8510918617	None	None	None	None	1
1.7	2015_Jul_20_0914	s	s	5	1	Capacity	37	ABS	1	0	24MC	0	1	18.9450240135	None	None	None	None	1
1.7	2015_Jul_20_0914	s	s	5	1	Capacity	38	ABS	2	0	24VC	0	1	1.91796588898	None	None	None	None	1
1.7	2015_Jul_20_0914	s	s	5	1	Capacity	39	RC	2	0	23VC	1	0	0.988089084625	-166.0	247.0	-166	251	1
1.7	2015_Jul_20_0914	s	s	5	1	Capacity	40	RC	1	0	23MC	1	0	10.6108360291	-501.0	397.0	-502	397	1
1.7	2015_Jul_20_0914	s	s	5	1	Capacity	41	RC	1	0	23MC	1	0	7.13010287285	-430.0	150.0	-431	148	1
1.7	2015_Jul_20_0914	s	s	5	1	Capacity	42	ABS	2	0	24VC	0	1	1.42045688629	None	None	None	None	1
1.7	2015_Jul_20_0914	s	s	5	1	Capacity	43	ABS	1	0	24MC	0	1	17.0351200104	None	None	None	None	1
1.7	2015_Jul_20_0914	s	s	5	1	Capacity	44	RC	2	0	23VC	1	0	1.19753313065	481.0	-334.0	482	-339	1
1.7	2015_Jul_20_0914	s	s	5	1	Capacity	45	ABS	2	0	24VC	0	1	0.655696868896	None	None	None	None	1
1.7	2015_Jul_20_0914	s	s	5	1	Capacity	46	RC	2	0	23VC	1	0	0.936048984528	473.0	-383.0	473	-389	1
1.7	2015_Jul_20_0914	s	s	5	1	Capacity	47	RC	1	0	23MC	0	1	11.5462880135	-81.0	135.0	None	None	0
1.7	2015_Jul_20_0914	s	s	5	1	Capacity	48	ABS	1	0	24MC	0	1	16.3793039322	None	None	None	None	1
1.7	2015_Jul_20_0914	s	s	5	1	Capacity	49	RC	2	0	23VC	1	0	3.80825090408	283.0	-106.0	286	-110	1
1.7	2015_Jul_20_0914	s	s	5	1	Capacity	50	ABS	2	0	24VC	0	1	5.55047297478	None	None	None	None	1
1.7	2015_Jul_20_0914	s	s	5	1	Capacity	51	RC	1	0	23MC	1	0	5.21841001511	459.0	-217.0	458	-222	1
1.7	2015_Jul_20_0914	s	s	5	1	Capacity	52	ABS	1	0	24MC	0	1	5.89217591286	None	None	None	None	1
1.7	2015_Jul_20_0914	s	s	5	1	Capacity	53	ABS	2	0	24VC	0	1	1.08224105835	None	None	None	None	1
1.7	2015_Jul_20_0914	s	s	5	1	Capacity	54	RC	1	0	23MC	0	1	6.84985184669	429.0	-337.0	None	None	0
1.7	2015_Jul_20_0914	s	s	5	1	Capacity	55	ABS	1	0	24MC	0	1	8.753510952	None	None	None	None	1
1.7	2015_Jul_20_0914	s	s	5	1	Capacity	56	RC	2	0	23VC	1	0	1.30102276802	455.0	392.0	459	392	1
1.7	2015_Jul_20_0914	s	s	5	1	Capacity	57	ABS	1	0	24MC	0	1	9.34519815445	None	None	None	None	1
1.7	2015_Jul_20_0914	s	s	5	1	Capacity	58	ABS	2	0	24VC	0	1	1.50082778931	None	None	None	None	1
1.7	2015_Jul_20_0914	s	s	5	1	Capacity	59	RC	1	0	23MC	1	0	11.2496159077	-147.0	206.0	-150	206	1
1.7	2015_Jul_20_0914	s	s	5	1	Capacity	60	RC	2	0	23VC	1	0	1.209182024	2.0	-199.0	-1	-199	1
1.7	2015_Jul_20_0914	s	s	5	1	Capacity	61	RC	1	0	23MC	1	0	9.04742097855	70.0	90.0	69	96	1
1.7	2015_Jul_20_0914	s	s	5	1	Capacity	62	ABS	2	0	24VC	0	1	1.72453594208	None	None	None	None	1
1.7	2015_Jul_20_0914	s	s	5	1	Capacity	63	ABS	1	0	24MC	0	1	11.4822058678	None	None	None	None	1
1.7	2015_Jul_20_0914	s	s	5	1	Capacity	64	RC	2	0	23VC	1	0	0.924462080002	412.0	-276.0	410	-286	1
1.7	2015_Jul_20_0914	s	s	5	1	Capacity	65	RC	2	0	23VC	1	0	1.03019118309	163.0	-238.0	162	-235	1
1.7	2015_Jul_20_0914	s	s	5	1	Capacity	66	RC	1	0	23MC	1	0	1.07042503357	438.0	-184.0	437	-184	1
1.7	2015_Jul_20_0914	s	s	5	1	Capacity	67	ABS	1	0	24MC	0	1	5.95530200005	None	None	None	None	1
1.7	2015_Jul_20_0914	s	s	5	1	Capacity	68	ABS	2	0	24VC	0	1	0.971511125565	None	None	None	None	1
1.7	2015_Jul_20_0914	s	s	5	1	Capacity	69	RC	2	0	23VC	1	0	0.689124107361	-160.0	219.0	-155	215	1
1.7	2015_Jul_20_0914	s	s	5	1	Capacity	70	ABS	2	0	24VC	0	1	1.08226895332	None	None	None	None	1
1.7	2015_Jul_20_0914	s	s	5	1	Capacity	71	RC	1	0	23MC	1	0	8.11871695518	-500.0	-122.0	-501	-120	1
1.7	2015_Jul_20_0914	s	s	5	1	Capacity	72	ABS	1	0	24MC	0	1	14.3303198814	None	None	None	None	1
1.7	2015_Jul_20_0914	s	s	5	1	Capacity	73	RC	1	0	23MC	1	0	11.9230690002	55.0	-214.0	64	-218	1
1.7	2015_Jul_20_0914	s	s	5	1	Capacity	74	ABS	2	0	24VC	0	1	1.24746799469	None	None	None	None	1
1.7	2015_Jul_20_0914	s	s	5	1	Capacity	75	RC	2	0	23VC	1	0	1.69434690475	27.0	322.0	32	316	1
1.7	2015_Jul_20_0914	s	s	5	1	Capacity	76	ABS	1	0	24MC	0	1	14.2253119946	None	None	None	None	1
1.7	2015_Jul_20_0914	s	s	5	1	Capacity	77	ABS	1	0	24MC	0	1	8.49278092384	None	None	None	None	1
1.7	2015_Jul_20_0914	s	s	5	1	Capacity	78	ABS	2	0	24VC	0	1	1.3346529007	None	None	None	None	1
1.7	2015_Jul_20_0914	s	s	5	1	Capacity	79	RC	2	0	23VC	1	0	0.9174721241	-530.0	-399.0	-526	-401	1
1.7	2015_Jul_20_0914	s	s	5	1	Capacity	80	RC	1	0	23MC	0	0	-1	-149.0	305.0	None	None	-1
1.7	2015_Jul_20_0914	s	s	5	1	Capacity	81	RC	2	0	23VC	1	0	1.07793498039	145.0	244.0	151	242	1
1.7	2015_Jul_20_0914	s	s	5	1	Capacity	82	ABS	2	0	24VC	0	1	1.56488513947	None	None	None	None	1
1.7	2015_Jul_20_0914	s	s	5	1	Capacity	83	RC	1	0	23MC	1	0	8.99763798714	51.0	-317.0	51	-321	1
1.7	2015_Jul_20_0914	s	s	5	1	Capacity	84	ABS	1	0	24MC	0	1	10.2516410351	None	None	None	None	1
1.7	2015_Jul_20_0914	s	s	5	1	Capacity	85	ABS	1	0	24MC	0	1	11.8597919941	None	None	None	None	1
1.7	2015_Jul_20_0914	s	s	5	1	Capacity	86	ABS	2	0	24VC	0	1	1.47072911263	None	None	None	None	1
1.7	2015_Jul_20_0914	s	s	5	1	Capacity	87	RC	2	0	23VC	1	0	0.952817201614	213.0	-4.0	209	-4	1
1.7	2015_Jul_20_0914	s	s	5	1	Capacity	88	RC	1	0	23MC	1	0	10.5340321064	176.0	-392.0	180	-388	1
1.7	2015_Jul_20_0914	s	s	5	1	Capacity	89	ABS	1	0	24MC	0	1	19.8058209419	None	None	None	None	1
1.7	2015_Jul_20_0914	s	s	5	1	Capacity	90	RC	1	0	23MC	1	0	1.45418596268	269.0	-119.0	275	-118	1
1.7	2015_Jul_20_0914	s	s	5	1	Capacity	91	ABS	2	0	24VC	0	1	1.38350701332	None	None	None	None	1
1.7	2015_Jul_20_0914	s	s	5	1	Capacity	92	RC	2	0	23VC	1	0	0.921282052994	-252.0	-366.0	-255	-371	1
1.7	2015_Jul_20_0914	s	s	5	1	SIC	1	RC	0	1	23RO	1	0	3.6316947937	-441.0	393.0	-442	392	1
1.7	2015_Jul_20_0914	s	s	5	1	SIC	2	ABS	2	0	24VC	0	1	1.1110200882	None	None	None	None	1
1.7	2015_Jul_20_0914	s	s	5	1	SIC	3	RC	0	2	23RD	1	0	0.973875999451	-356.0	233.0	-360	229	1
1.7	2015_Jul_20_0914	s	s	5	1	SIC	4	RC	1	1	23MO	1	0	1.94181513786	261.0	-163.0	255	-163	1
1.7	2015_Jul_20_0914	s	s	5	1	SIC	5	ABS	1	1	24MO	0	1	6.8095729351	None	None	None	None	1
1.7	2015_Jul_20_0914	s	s	5	1	SIC	6	ABS	1	0	24MC	1	0	1.18819594383	None	None	58	3	0
1.7	2015_Jul_20_0914	s	s	5	1	SIC	7	ABS	2	2	24VD	0	1	0.924458026886	None	None	None	None	1
1.7	2015_Jul_20_0914	s	s	5	1	SIC	8	RC	2	1	23VO	1	0	1.0822558403	-466.0	-74.0	-467	-73	1
1.7	2015_Jul_20_0914	s	s	5	1	SIC	9	ABS	2	1	24VO	0	1	1.40698480606	None	None	None	None	1
1.7	2015_Jul_20_0914	s	s	5	1	SIC	10	ABS	0	2	24RD	0	1	4.66730308533	None	None	None	None	1
1.7	2015_Jul_20_0914	s	s	5	1	SIC	11	ABS	1	2	24MD	0	1	2.09455299377	None	None	None	None	1
1.7	2015_Jul_20_0914	s	s	5	1	SIC	12	RC	2	2	23VD	1	0	0.823148012161	188.0	163.0	187	162	1
1.7	2015_Jul_20_0914	s	s	5	1	SIC	13	RC	1	2	23MD	1	0	0.791754007339	-243.0	-106.0	-236	-105	1
1.7	2015_Jul_20_0914	s	s	5	1	SIC	14	RC	1	0	23MC	1	0	15.4045732021	461.0	-146.0	464	-148	1
1.7	2015_Jul_20_0914	s	s	5	1	SIC	15	RC	2	0	23VC	1	0	1.19998002052	-482.0	329.0	-487	329	1
1.7	2015_Jul_20_0914	s	s	5	1	SIC	16	ABS	0	1	24RO	0	1	8.5164899826	None	None	None	None	1
1.7	2015_Jul_20_0914	s	s	5	1	SIC	17	RC	1	0	23MC	0	1	9.39985084534	57.0	375.0	None	None	0
1.7	2015_Jul_20_0914	s	s	5	1	SIC	18	ABS	1	2	24MD	0	1	2.54876804352	None	None	None	None	1
1.7	2015_Jul_20_0914	s	s	5	1	SIC	19	RC	2	0	23VC	1	0	1.02948689461	-445.0	-52.0	-445	-54	1
1.7	2015_Jul_20_0914	s	s	5	1	SIC	20	RC	2	2	23VD	1	0	0.938499927521	-459.0	-28.0	-452	-30	1
1.7	2015_Jul_20_0914	s	s	5	1	SIC	21	ABS	2	0	24VC	0	1	0.952878952026	None	None	None	None	1
1.7	2015_Jul_20_0914	s	s	5	1	SIC	22	RC	0	1	23RO	0	1	7.18874812126	-117.0	-105.0	None	None	0
1.7	2015_Jul_20_0914	s	s	5	1	SIC	23	ABS	0	1	24RO	0	1	6.76197195053	None	None	None	None	1
1.7	2015_Jul_20_0914	s	s	5	1	SIC	24	RC	2	1	23VO	1	0	0.831610918045	-245.0	-367.0	-237	-360	1
1.7	2015_Jul_20_0914	s	s	5	1	SIC	25	ABS	2	2	24VD	0	1	0.926748037338	None	None	None	None	1
1.7	2015_Jul_20_0914	s	s	5	1	SIC	26	ABS	0	2	24RD	0	1	4.0954720974	None	None	None	None	1
1.7	2015_Jul_20_0914	s	s	5	1	SIC	27	ABS	1	0	24MC	0	1	8.8928668499	None	None	None	None	1
1.7	2015_Jul_20_0914	s	s	5	1	SIC	28	ABS	1	1	24MO	0	1	8.7044301033	None	None	None	None	1
1.7	2015_Jul_20_0914	s	s	5	1	SIC	29	ABS	2	1	24VO	0	1	1.348072052	None	None	None	None	1
1.7	2015_Jul_20_0914	s	s	5	1	SIC	30	RC	1	2	23MD	1	0	0.905636072159	138.0	333.0	133	323	1
1.7	2015_Jul_20_0914	s	s	5	1	SIC	31	RC	1	1	23MO	1	0	1.76497387886	491.0	-238.0	491	-232	1
1.7	2015_Jul_20_0914	s	s	5	1	SIC	32	RC	0	2	23RD	1	0	0.723526954651	-378.0	-24.0	-381	-29	1
1.7	2015_Jul_20_0914	s	s	5	1	SIC	33	RC	2	2	23VD	1	0	0.646709918976	0.0	303.0	-5	300	1
1.7	2015_Jul_20_0914	s	s	5	1	SIC	34	RC	1	2	23MD	1	0	0.700727939606	123.0	-23.0	124	-24	1
1.7	2015_Jul_20_0914	s	s	5	1	SIC	35	RC	2	0	23VC	1	0	0.611346006393	-27.0	334.0	-27	331	1
1.7	2015_Jul_20_0914	s	s	5	1	SIC	36	RC	1	0	23MC	1	0	12.723304987	-57.0	-412.0	-60	-417	1
1.7	2015_Jul_20_0914	s	s	5	1	SIC	37	ABS	1	0	24MC	0	1	8.47411203384	None	None	None	None	1
1.7	2015_Jul_20_0914	s	s	5	1	SIC	38	RC	1	1	23MO	1	0	3.96594715118	-198.0	55.0	-201	50	1
1.7	2015_Jul_20_0914	s	s	5	1	SIC	39	ABS	2	1	24VO	0	1	1.17642521858	None	None	None	None	1
1.7	2015_Jul_20_0914	s	s	5	1	SIC	40	ABS	1	1	24MO	0	1	5.78730392456	None	None	None	None	1
1.7	2015_Jul_20_0914	s	s	5	1	SIC	41	ABS	0	1	24RO	0	1	7.0500190258	None	None	None	None	1
1.7	2015_Jul_20_0914	s	s	5	1	SIC	42	ABS	1	2	24MD	0	1	3.03130197525	None	None	None	None	1
1.7	2015_Jul_20_0914	s	s	5	1	SIC	43	ABS	2	2	24VD	0	1	1.44714808464	None	None	None	None	1
1.7	2015_Jul_20_0914	s	s	5	1	SIC	44	ABS	2	0	24VC	0	1	1.42032599449	None	None	None	None	1
1.7	2015_Jul_20_0914	s	s	5	1	SIC	45	ABS	0	2	24RD	0	1	1.63226890564	None	None	None	None	1
1.7	2015_Jul_20_0914	s	s	5	1	SIC	46	RC	0	1	23RO	0	1	10.0983769894	-321.0	-197.0	None	None	0
1.7	2015_Jul_20_0914	s	s	5	1	SIC	47	RC	2	1	23VO	1	0	0.770815134048	-106.0	-118.0	-99	-115	1
1.7	2015_Jul_20_0914	s	s	5	1	SIC	48	RC	0	2	23RD	1	0	0.783190965652	-221.0	95.0	-227	91	1
1.7	2015_Jul_20_0914	s	s	5	1	SIC	49	ABS	1	1	24MO	0	1	5.79051589966	None	None	None	None	1
1.7	2015_Jul_20_0914	s	s	5	1	SIC	50	ABS	0	2	24RD	0	1	2.34717321396	None	None	None	None	1
1.7	2015_Jul_20_0914	s	s	5	1	SIC	51	RC	2	0	23VC	1	0	0.737056970596	-260.0	-173.0	-257	-170	1
1.7	2015_Jul_20_0914	s	s	5	1	SIC	52	ABS	2	1	24VO	0	1	1.19503903389	None	None	None	None	1
1.7	2015_Jul_20_0914	s	s	5	1	SIC	53	RC	1	0	23MC	1	0	5.16666007042	230.0	32.0	241	40	1
1.7	2015_Jul_20_0914	s	s	5	1	SIC	54	ABS	0	1	24RO	0	1	7.59875798225	None	None	None	None	1
1.7	2015_Jul_20_0914	s	s	5	1	SIC	55	RC	2	1	23VO	1	0	0.887944936752	104.0	-34.0	102	-27	1
1.7	2015_Jul_20_0914	s	s	5	1	SIC	56	RC	1	2	23MD	1	0	1.10021400452	33.0	198.0	27	191	1
1.7	2015_Jul_20_0914	s	s	5	1	SIC	57	RC	2	2	23VD	1	0	0.705610990524	-22.0	308.0	-21	313	1
1.7	2015_Jul_20_0914	s	s	5	1	SIC	58	ABS	1	2	24MD	0	1	2.81254506111	None	None	None	None	1
1.7	2015_Jul_20_0914	s	s	5	1	SIC	59	ABS	2	2	24VD	0	1	1.34793591499	None	None	None	None	1
1.7	2015_Jul_20_0914	s	s	5	1	SIC	60	RC	0	2	23RD	1	0	0.693831920624	273.0	378.0	267	378	1
1.7	2015_Jul_20_0914	s	s	5	1	SIC	61	ABS	1	0	24MC	0	1	9.50787997246	None	None	None	None	1
1.7	2015_Jul_20_0914	s	s	5	1	SIC	62	RC	1	1	23MO	1	0	3.70717191696	217.0	206.0	215	204	1
1.7	2015_Jul_20_0914	s	s	5	1	SIC	63	ABS	2	0	24VC	0	1	1.30600595474	None	None	None	None	1
1.7	2015_Jul_20_0914	s	s	5	1	SIC	64	RC	0	1	23RO	0	1	7.55057287216	72.0	-344.0	None	None	0
1.7	2015_Jul_20_0914	s	s	5	1	SIC	65	ABS	0	1	24RO	0	1	7.52087497711	None	None	None	None	1
1.7	2015_Jul_20_0914	s	s	5	1	SIC	66	ABS	2	2	24VD	0	1	0.82332110405	None	None	None	None	1
1.7	2015_Jul_20_0914	s	s	5	1	SIC	67	ABS	2	0	24VC	0	1	1.47683596611	None	None	None	None	1
1.7	2015_Jul_20_0914	s	s	5	1	SIC	68	RC	1	0	23MC	1	0	8.6696600914	206.0	-14.0	199	-10	1
1.7	2015_Jul_20_0914	s	s	5	1	SIC	69	ABS	0	2	24RD	0	1	2.3535130024	None	None	None	None	1
1.7	2015_Jul_20_0914	s	s	5	1	SIC	70	ABS	1	2	24MD	0	1	2.00580501556	None	None	None	None	1
1.7	2015_Jul_20_0914	s	s	5	1	SIC	71	RC	2	2	23VD	1	0	0.752768039703	-270.0	246.0	-275	245	1
1.7	2015_Jul_20_0914	s	s	5	1	SIC	72	RC	0	1	23RO	1	0	2.14176821709	424.0	-361.0	425	-360	1
1.7	2015_Jul_20_0914	s	s	5	1	SIC	73	RC	1	2	23MD	1	0	1.07737398148	-262.0	-323.0	-261	-327	1
1.7	2015_Jul_20_0914	s	s	5	1	SIC	74	ABS	2	1	24VO	0	1	1.18329787254	None	None	None	None	1
1.7	2015_Jul_20_0914	s	s	5	1	SIC	75	RC	2	1	23VO	1	0	0.712421178818	-349.0	120.0	-346	120	1
1.7	2015_Jul_20_0914	s	s	5	1	SIC	76	RC	2	0	23VC	1	0	1.00676393509	-45.0	-224.0	-44	-226	1
1.7	2015_Jul_20_0914	s	s	5	1	SIC	77	RC	1	1	23MO	1	0	2.81250619888	-509.0	197.0	-505	190	1
1.7	2015_Jul_20_0914	s	s	5	1	SIC	78	ABS	1	0	24MC	0	1	10.6350991726	None	None	None	None	1
1.7	2015_Jul_20_0914	s	s	5	1	SIC	79	ABS	1	1	24MO	0	1	9.33380103111	None	None	None	None	1
1.7	2015_Jul_20_0914	s	s	5	1	SIC	80	RC	0	2	23RD	1	0	0.717372894287	-12.0	110.0	-12	107	1
1.7	2015_Jul_20_0914	s	s	5	1	SIC	81	ABS	0	1	24RO	0	1	7.53249621391	None	None	None	None	1
1.7	2015_Jul_20_0914	s	s	5	1	SIC	82	RC	0	2	23RD	1	0	0.934998035431	284.0	171.0	287	176	1
1.7	2015_Jul_20_0914	s	s	5	1	SIC	83	ABS	2	2	24VD	0	1	0.843033075333	None	None	None	None	1
1.7	2015_Jul_20_0914	s	s	5	1	SIC	84	ABS	1	1	24MO	0	1	5.60897088051	None	None	None	None	1
1.7	2015_Jul_20_0914	s	s	5	1	SIC	85	RC	2	1	23VO	1	0	0.797394037247	-526.0	135.0	-525	135	1
1.7	2015_Jul_20_0914	s	s	5	1	SIC	86	RC	1	1	23MO	1	0	1.03018379211	-485.0	267.0	-493	272	1
1.7	2015_Jul_20_0914	s	s	5	1	SIC	87	RC	2	2	23VD	1	0	0.72313785553	-372.0	-295.0	-372	-287	1
1.7	2015_Jul_20_0914	s	s	5	1	SIC	88	ABS	1	2	24MD	0	1	2.25437188148	None	None	None	None	1
1.7	2015_Jul_20_0914	s	s	5	1	SIC	89	ABS	2	0	24VC	0	1	1.15320611	None	None	None	None	1
1.7	2015_Jul_20_0914	s	s	5	1	SIC	90	ABS	1	0	24MC	0	1	8.91578102112	None	None	None	None	1
1.7	2015_Jul_20_0914	s	s	5	1	SIC	91	ABS	0	2	24RD	0	1	2.40055918694	None	None	None	None	1
1.7	2015_Jul_20_0914	s	s	5	1	SIC	92	RC	2	0	23VC	1	0	1.0535941124	268.0	177.0	270	176	1
1.7	2015_Jul_20_0914	s	s	5	1	SIC	93	ABS	2	1	24VO	0	1	1.30332517624	None	None	None	None	1
1.7	2015_Jul_20_0914	s	s	5	1	SIC	94	RC	1	2	23MD	1	0	1.52502989769	519.0	242.0	514	233	1
1.7	2015_Jul_20_0914	s	s	5	1	SIC	95	RC	0	1	23RO	1	0	1.50131702423	67.0	141.0	67	139	1
1.7	2015_Jul_20_0914	s	s	5	1	SIC	96	RC	1	0	23MC	1	0	7.65706706047	329.0	269.0	322	266	1
1.7	2015_Jul_20_0914	s	s	5	1	SIC	97	RC	2	0	23VC	1	0	0.782909154892	232.0	-352.0	235	-352	1
1.7	2015_Jul_20_0914	s	s	5	1	SIC	98	ABS	0	2	24RD	0	1	1.97674798965	None	None	None	None	1
1.7	2015_Jul_20_0914	s	s	5	1	SIC	99	ABS	2	0	24VC	0	1	1.05381894112	None	None	None	None	1
1.7	2015_Jul_20_0914	s	s	5	1	SIC	100	ABS	0	1	24RO	0	1	8.20346808434	None	None	None	None	1
1.7	2015_Jul_20_0914	s	s	5	1	SIC	101	RC	1	2	23MD	1	0	0.670295953751	-431.0	187.0	-431	179	1
1.7	2015_Jul_20_0914	s	s	5	1	SIC	102	ABS	1	2	24MD	0	1	2.57224988937	None	None	None	None	1
1.7	2015_Jul_20_0914	s	s	5	1	SIC	103	RC	0	2	23RD	1	0	0.924118995667	321.0	-110.0	319	-107	1
1.7	2015_Jul_20_0914	s	s	5	1	SIC	104	RC	2	2	23VD	1	0	0.618093013763	-359.0	233.0	-366	226	1
1.7	2015_Jul_20_0914	s	s	5	1	SIC	105	RC	1	1	23MO	1	0	0.995260953903	2.0	-17.0	7	-25	1
1.7	2015_Jul_20_0914	s	s	5	1	SIC	106	RC	1	0	23MC	1	0	10.5107979774	369.0	-178.0	367	-178	1
1.7	2015_Jul_20_0914	s	s	5	1	SIC	107	RC	0	1	23RO	1	0	2.93018817902	-356.0	-2.0	-360	6	1
1.7	2015_Jul_20_0914	s	s	5	1	SIC	108	ABS	2	1	24VO	0	1	1.62402296066	None	None	None	None	1
1.7	2015_Jul_20_0914	s	s	5	1	SIC	109	ABS	1	0	24MC	0	1	9.10554599762	None	None	None	None	1
1.7	2015_Jul_20_0914	s	s	5	1	SIC	110	ABS	1	1	24MO	0	1	6.37902617455	None	None	None	None	1
1.7	2015_Jul_20_0914	s	s	5	1	SIC	111	ABS	2	2	24VD	0	1	0.867927074432	None	None	None	None	1
1.7	2015_Jul_20_0914	s	s	5	1	SIC	112	RC	2	1	23VO	1	0	0.748178958893	-190.0	-61.0	-188	-64	1
1.7	2015_Jul_20_0914	s	s	5	1	SIC	113	RC	0	2	23RD	1	0	1.11256599426	-288.0	371.0	-287	366	1
1.7	2015_Jul_20_0914	s	s	5	1	SIC	114	ABS	0	2	24RD	0	1	1.84726810455	None	None	None	None	1
1.7	2015_Jul_20_0914	s	s	5	1	SIC	115	ABS	1	1	24MO	0	1	4.59657597542	None	None	None	None	1
1.7	2015_Jul_20_0914	s	s	5	1	SIC	116	RC	1	2	23MD	1	0	0.850749969482	-351.0	-345.0	-352	-355	1
1.7	2015_Jul_20_0914	s	s	5	1	SIC	117	RC	1	0	23MC	1	0	0.817499876022	-145.0	329.0	-69	-267	0
1.7	2015_Jul_20_0914	s	s	5	1	SIC	118	RC	2	0	23VC	1	0	0.905668020248	265.0	121.0	265	116	1
1.7	2015_Jul_20_0914	s	s	5	1	SIC	119	RC	2	2	23VD	1	0	0.811549901962	490.0	336.0	496	327	1
1.7	2015_Jul_20_0914	s	s	5	1	SIC	120	RC	2	1	23VO	1	0	0.646689891815	252.0	120.0	250	114	1
1.7	2015_Jul_20_0914	s	s	5	1	SIC	121	ABS	2	2	24VD	0	1	0.782803058624	None	None	None	None	1
1.7	2015_Jul_20_0914	s	s	5	1	SIC	122	RC	1	1	23MO	1	0	5.378469944	-464.0	-219.0	-465	-221	1
1.7	2015_Jul_20_0914	s	s	5	1	SIC	123	ABS	1	2	24MD	0	1	1.51230692863	None	None	None	None	1
1.7	2015_Jul_20_0914	s	s	5	1	SIC	124	ABS	1	0	24MC	0	1	10.6936810017	None	None	None	None	1
1.7	2015_Jul_20_0914	s	s	5	1	SIC	125	ABS	2	1	24VO	0	1	1.24706792831	None	None	None	None	1
1.7	2015_Jul_20_0914	s	s	5	1	SIC	126	ABS	0	1	24RO	0	1	6.80277085304	None	None	None	None	1
1.7	2015_Jul_20_0914	s	s	5	1	SIC	127	ABS	2	0	24VC	0	1	1.52949619293	None	None	None	None	1
1.7	2015_Jul_20_0914	s	s	5	1	SIC	128	RC	0	1	23RO	1	0	6.48183512688	-498.0	-154.0	-497	-154	1
1.7	2015_Jul_20_0914	s	s	5	1	SIC	129	ABS	2	0	24VC	0	1	1.33691501617	None	None	None	None	1
1.7	2015_Jul_20_0914	s	s	5	1	SIC	130	RC	1	0	23MC	0	1	11.0166659355	-187.0	177.0	None	None	0
1.7	2015_Jul_20_0914	s	s	5	1	SIC	131	ABS	0	2	24RD	0	1	2.1651930809	None	None	None	None	1
1.7	2015_Jul_20_0914	s	s	5	1	SIC	132	RC	2	0	23VC	1	0	0.865284204483	-380.0	-300.0	-377	-305	1
1.7	2015_Jul_20_0914	s	s	5	1	SIC	133	RC	1	1	23MO	1	0	1.73697805405	416.0	-338.0	419	-336	1
1.7	2015_Jul_20_0914	s	s	5	1	SIC	134	RC	1	2	23MD	1	0	0.882127046585	275.0	195.0	276	190	1
1.7	2015_Jul_20_0914	s	s	5	1	SIC	135	ABS	1	1	24MO	0	1	8.37649703026	None	None	None	None	1
1.7	2015_Jul_20_0914	s	s	5	1	SIC	136	ABS	1	2	24MD	0	1	1.49422216415	None	None	None	None	1
1.7	2015_Jul_20_0914	s	s	5	1	SIC	137	RC	0	2	23RD	1	0	0.740838050842	-246.0	-289.0	-244	-285	1
1.7	2015_Jul_20_0914	s	s	5	1	SIC	138	RC	2	2	23VD	1	0	0.631692171097	91.0	-88.0	97	-86	1
1.7	2015_Jul_20_0914	s	s	5	1	SIC	139	RC	0	1	23RO	1	0	6.0846889019	-309.0	-386.0	-311	-397	1
1.7	2015_Jul_20_0914	s	s	5	1	SIC	140	ABS	1	0	24MC	0	1	13.0836601257	None	None	None	None	1
1.7	2015_Jul_20_0914	s	s	5	1	SIC	141	ABS	2	1	24VO	0	1	1.55684900284	None	None	None	None	1
1.7	2015_Jul_20_0914	s	s	5	1	SIC	142	ABS	0	1	24RO	0	1	8.00970888138	None	None	None	None	1
1.7	2015_Jul_20_0914	s	s	5	1	SIC	143	ABS	2	2	24VD	0	1	1.00746893883	None	None	None	None	1
1.7	2015_Jul_20_0914	s	s	5	1	SIC	144	RC	2	1	23VO	1	0	0.912447929382	-274.0	262.0	-277	254	1
1.7	2015_Jul_20_0914	s	s	5	1	SIC	145	ABS	1	2	24MD	0	1	2.30118894577	None	None	None	None	1
1.7	2015_Jul_20_0914	s	s	5	1	SIC	146	ABS	2	0	24VC	0	1	1.67773103714	None	None	None	None	1
1.7	2015_Jul_20_0914	s	s	5	1	SIC	147	RC	2	2	23VD	1	0	0.773396968842	338.0	-372.0	336	-369	1
1.7	2015_Jul_20_0914	s	s	5	1	SIC	148	RC	1	0	23MC	0	1	9.14184308052	275.0	-264.0	None	None	0
1.7	2015_Jul_20_0914	s	s	5	1	SIC	149	RC	1	2	23MD	1	0	2.91457796097	-63.0	216.0	-64	223	1
1.7	2015_Jul_20_0914	s	s	5	1	SIC	150	RC	2	1	23VO	1	0	0.980707168579	97.0	-121.0	101	-124	1
1.7	2015_Jul_20_0914	s	s	5	1	SIC	151	ABS	1	1	24MO	0	1	6.3146250248	None	None	None	None	1
1.7	2015_Jul_20_0914	s	s	5	1	SIC	152	ABS	0	2	24RD	0	1	3.17241311073	None	None	None	None	1
1.7	2015_Jul_20_0914	s	s	5	1	SIC	153	RC	0	2	23RD	1	0	1.16014194489	299.0	132.0	304	131	1
1.7	2015_Jul_20_0914	s	s	5	1	SIC	154	ABS	1	0	24MC	0	1	9.49808096886	None	None	None	None	1
1.7	2015_Jul_20_0914	s	s	5	1	SIC	155	ABS	2	1	24VO	0	1	0.980106115341	None	None	None	None	1
1.7	2015_Jul_20_0914	s	s	5	1	SIC	156	RC	1	1	23MO	1	0	1.53630685806	460.0	119.0	459	113	1
1.7	2015_Jul_20_0914	s	s	5	1	SIC	157	RC	2	0	23VC	1	0	0.752687215805	-14.0	-411.0	-12	-414	1
1.7	2015_Jul_20_0914	s	s	5	1	SIC	158	ABS	2	2	24VD	0	1	1.14557504654	None	None	None	None	1
1.7	2015_Jul_20_0914	s	s	5	1	SIC	159	RC	0	1	23RO	1	0	6.48025012016	-221.0	18.0	-212	21	1
1.7	2015_Jul_20_0914	s	s	5	1	SIC	160	ABS	0	1	24RO	0	1	6.80972313881	None	None	None	None	1
1.7	2015_Jul_20_0914	s	s	5	1	SIC	161	ABS	1	2	24MD	0	1	4.51584815979	None	None	None	None	1
1.7	2015_Jul_20_0914	s	s	5	1	SIC	162	ABS	0	2	24RD	0	1	1.75321292877	None	None	None	None	1
1.7	2015_Jul_20_0914	s	s	5	1	SIC	163	ABS	2	0	24VC	0	1	2.28282785416	None	None	None	None	1
1.7	2015_Jul_20_0914	s	s	5	1	SIC	164	RC	1	2	23MD	1	0	2.78886890411	47.0	-293.0	37	-295	1
1.7	2015_Jul_20_0914	s	s	5	1	SIC	165	RC	1	1	23MO	1	0	1.27672410011	-176.0	-69.0	-174	-68	1
1.7	2015_Jul_20_0914	s	s	5	1	SIC	166	ABS	1	1	24MO	0	1	5.27251505852	None	None	None	None	1
1.7	2015_Jul_20_0914	s	s	5	1	SIC	167	RC	0	2	23RD	1	0	1.04698395729	-516.0	-408.0	-517	-412	1
1.7	2015_Jul_20_0914	s	s	5	1	SIC	168	RC	0	1	23RO	1	0	3.313778162	311.0	-12.0	310	-10	1
1.7	2015_Jul_20_0914	s	s	5	1	SIC	169	ABS	2	1	24VO	0	1	0.923457860947	None	None	None	None	1
1.7	2015_Jul_20_0914	s	s	5	1	SIC	170	RC	2	2	23VD	1	0	0.846811056137	-425.0	137.0	-434	136	1
1.7	2015_Jul_20_0914	s	s	5	1	SIC	171	RC	1	0	23MC	1	0	10.9732718468	373.0	-36.0	372	-37	1
1.7	2015_Jul_20_0914	s	s	5	1	SIC	172	ABS	0	1	24RO	0	1	6.88030409813	None	None	None	None	1
1.7	2015_Jul_20_0914	s	s	5	1	SIC	173	ABS	1	0	24MC	0	1	9.08131098747	None	None	None	None	1
1.7	2015_Jul_20_0914	s	s	5	1	SIC	174	RC	2	0	23VC	1	0	0.78000497818	494.0	45.0	494	39	1
1.7	2015_Jul_20_0914	s	s	5	1	SIC	175	RC	2	1	23VO	1	0	0.924494028091	302.0	-52.0	300	-52	1
1.7	2015_Jul_20_0914	s	s	5	1	SIC	176	ABS	2	2	24VD	0	1	0.80717086792	None	None	None	None	1
1.7	2015_Jul_20_0914	s	s	5	1	SIC	177	ABS	0	2	24RD	0	1	1.33730792999	None	None	None	None	1
1.7	2015_Jul_20_0914	s	s	5	1	SIC	178	RC	2	2	23VD	1	0	1.65899085999	-211.0	-77.0	-217	-80	1
1.7	2015_Jul_20_0914	s	s	5	1	SIC	179	ABS	2	1	24VO	0	1	0.988091945648	None	None	None	None	1
1.7	2015_Jul_20_0914	s	s	5	1	SIC	180	ABS	1	0	24MC	0	1	14.3428719044	None	None	None	None	1
1.7	2015_Jul_20_0914	s	s	5	1	SIC	181	ABS	1	2	24MD	0	1	2.70642399788	None	None	None	None	1
1.7	2015_Jul_20_0914	s	s	5	1	SIC	182	RC	2	1	23VO	1	0	1.31768393517	356.0	-148.0	361	-144	1
1.7	2015_Jul_20_0914	s	s	5	1	SIC	183	ABS	1	1	24MO	0	1	7.45555710793	None	None	None	None	1
1.7	2015_Jul_20_0914	s	s	5	1	SIC	184	RC	1	1	23MO	1	0	1.60953807831	-236.0	62.0	-233	56	1
1.7	2015_Jul_20_0914	s	s	5	1	SIC	185	RC	1	0	23MC	0	0	-1	86.0	373.0	None	None	-1
1.7	2015_Jul_20_0914	s	s	5	1	SIC	186	ABS	2	0	24VC	0	1	1.98362112045	None	None	None	None	1
1.7	2015_Jul_20_0914	s	s	5	1	SIC	187	RC	0	1	23RO	0	1	7.67140698433	109.0	-248.0	None	None	0
1.7	2015_Jul_20_0914	s	s	5	1	SIC	188	RC	1	2	23MD	1	0	0.971688985825	371.0	148.0	364	143	1
1.7	2015_Jul_20_0914	s	s	5	1	SIC	189	ABS	2	2	24VD	0	1	0.912397146225	None	None	None	None	1
1.7	2015_Jul_20_0914	s	s	5	1	SIC	190	RC	0	2	23RD	1	0	0.944795131683	448.0	-67.0	443	-73	1
1.7	2015_Jul_20_0914	s	s	5	1	SIC	191	ABS	0	1	24RO	0	1	10.0404040813	None	None	None	None	1
1.7	2015_Jul_20_0914	s	s	5	1	SIC	192	RC	2	0	23VC	1	0	0.764798164368	7.0	314.0	5	310	1
1.7	2015_Jul_20_0914	s	s	5	1	SIC	193	RC	2	1	23VO	1	0	0.866959095001	-289.0	198.0	-298	201	1
1.7	2015_Jul_20_0914	s	s	5	1	SIC	194	RC	1	2	23MD	1	0	0.752676010132	-127.0	-309.0	-133	-318	1
1.7	2015_Jul_20_0914	s	s	5	1	SIC	195	RC	1	0	23MC	0	1	6.53202605247	-475.0	281.0	None	None	0
1.7	2015_Jul_20_0914	s	s	5	1	SIC	196	RC	1	1	23MO	1	0	1.71225404739	538.0	-379.0	538	-384	1
1.7	2015_Jul_20_0914	s	s	5	1	SIC	197	ABS	1	1	24MO	0	1	7.16761493683	None	None	None	None	1
1.7	2015_Jul_20_0914	s	s	5	1	SIC	198	ABS	2	0	24VC	0	1	1.8591799736	None	None	None	None	1
1.7	2015_Jul_20_0914	s	s	5	1	SIC	199	ABS	1	0	24MC	0	1	10.3880209923	None	None	None	None	1
1.7	2015_Jul_20_0914	s	s	5	1	SIC	200	ABS	2	1	24VO	0	1	1.41185212135	None	None	None	None	1
1.7	2015_Jul_20_0914	s	s	5	1	SIC	201	ABS	0	2	24RD	0	1	1.79777812958	None	None	None	None	1
1.7	2015_Jul_20_0914	s	s	5	1	SIC	202	ABS	2	2	24VD	0	1	0.771023988724	None	None	None	None	1
1.7	2015_Jul_20_0914	s	s	5	1	SIC	203	ABS	1	2	24MD	0	1	1.09027695656	None	None	None	None	1
1.7	2015_Jul_20_0914	s	s	5	1	SIC	204	ABS	0	1	24RO	0	1	7.13215303421	None	None	None	None	1
1.7	2015_Jul_20_0914	s	s	5	1	SIC	205	RC	0	2	23RD	1	0	1.08900117874	462.0	115.0	469	111	1
1.7	2015_Jul_20_0914	s	s	5	1	SIC	206	RC	0	1	23RO	1	0	5.69124889374	-148.0	43.0	-140	53	1
1.7	2015_Jul_20_0914	s	s	5	1	SIC	207	RC	2	0	23VC	1	0	0.729114055634	85.0	285.0	85	294	1
1.7	2015_Jul_20_0914	s	s	5	1	SIC	208	RC	2	2	23VD	1	0	0.634950876236	-312.0	382.0	-320	383	1
1.7	2015_Jul_20_0914	s	s	5	1	SIC	209	RC	1	2	23MD	1	0	0.703135967255	59.0	106.0	48	106	1
1.7	2015_Jul_20_0914	s	s	5	1	SIC	210	RC	1	1	23MO	1	0	2.97463107109	386.0	-358.0	382	-360	1
1.7	2015_Jul_20_0914	s	s	5	1	SIC	211	RC	0	1	23RO	1	0	3.14215087891	203.0	-232.0	194	-232	1
1.7	2015_Jul_20_0914	s	s	5	1	SIC	212	ABS	1	1	24MO	0	1	5.7198369503	None	None	None	None	1
1.7	2015_Jul_20_0914	s	s	5	1	SIC	213	ABS	1	0	24MC	0	1	12.2054030895	None	None	None	None	1
1.7	2015_Jul_20_0914	s	s	5	1	SIC	214	ABS	2	0	24VC	0	1	1.34502601624	None	None	None	None	1
1.7	2015_Jul_20_0914	s	s	5	1	SIC	215	ABS	0	2	24RD	0	1	0.842073917389	None	None	None	None	1
1.7	2015_Jul_20_0914	s	s	5	1	SIC	216	ABS	2	2	24VD	0	1	0.521019935608	None	None	None	None	1
1.7	2015_Jul_20_0914	s	s	5	1	SIC	217	RC	2	1	23VO	1	0	0.747776031494	-515.0	-18.0	-507	-21	1
1.7	2015_Jul_20_0914	s	s	5	1	SIC	218	RC	0	2	23RD	1	0	1.2315120697	-474.0	-39.0	-465	-38	1
1.7	2015_Jul_20_0914	s	s	5	1	SIC	219	ABS	1	2	24MD	0	1	1.67071700096	None	None	None	None	1
1.7	2015_Jul_20_0914	s	s	5	1	SIC	220	RC	1	0	23MC	1	0	11.9062201977	377.0	-121.0	380	-123	1
1.7	2015_Jul_20_0914	s	s	5	1	SIC	221	RC	2	0	23VC	1	0	0.797435998917	-478.0	-87.0	-477	-90	1
1.7	2015_Jul_20_0914	s	s	5	1	SIC	222	ABS	2	1	24VO	0	1	1.0206079483	None	None	None	None	1
1.7	2015_Jul_20_0914	s	s	5	1	SIC	223	ABS	0	1	24RO	0	1	6.44465303421	None	None	None	None	1
1.7	2015_Jul_20_0914	s	s	5	1	SIC	224	RC	2	2	23VD	1	0	0.811490774155	60.0	-344.0	55	-341	1
1.7	2015_Jul_20_0914	s	s	5	1	SIC	225	RC	1	1	23MO	1	0	4.27898001671	-340.0	314.0	-340	310	1
1.7	2015_Jul_20_0914	s	s	5	1	SIC	226	ABS	1	1	24MO	0	1	7.96800303459	None	None	None	None	1
1.7	2015_Jul_20_0914	s	s	5	1	SIC	227	ABS	0	2	24RD	0	1	2.16227316856	None	None	None	None	1
1.7	2015_Jul_20_0914	s	s	5	1	SIC	228	RC	0	2	23RD	1	0	0.905763149261	326.0	178.0	323	182	1
1.7	2015_Jul_20_0914	s	s	5	1	SIC	229	ABS	2	2	24VD	0	1	1.52613592148	None	None	None	None	1
1.7	2015_Jul_20_0914	s	s	5	1	SIC	230	ABS	0	1	24RO	0	1	10.3405919075	None	None	None	None	1
1.7	2015_Jul_20_0914	s	s	5	1	SIC	231	ABS	1	2	24MD	0	1	1.32946491241	None	None	None	None	1
1.7	2015_Jul_20_0914	s	s	5	1	SIC	232	ABS	2	1	24VO	0	1	0.900710821152	None	None	None	None	1
1.7	2015_Jul_20_0914	s	s	5	1	SIC	233	RC	2	1	23VO	1	0	0.737767934799	-245.0	40.0	-249	48	1
1.7	2015_Jul_20_0914	s	s	5	1	SIC	234	ABS	2	0	24VC	0	1	1.22340893745	None	None	None	None	1
1.7	2015_Jul_20_0914	s	s	5	1	SIC	235	RC	2	0	23VC	1	0	1.89184808731	-100.0	-339.0	-91	-338	1
1.7	2015_Jul_20_0914	s	s	5	1	SIC	236	RC	0	1	23RO	1	0	2.20708107948	-487.0	306.0	-485	296	1
1.7	2015_Jul_20_0914	s	s	5	1	SIC	237	RC	1	0	23MC	1	0	6.78581690788	382.0	323.0	382	327	1
1.7	2015_Jul_20_0914	s	s	5	1	SIC	238	RC	1	2	23MD	1	0	0.882177114487	164.0	80.0	173	78	1
1.7	2015_Jul_20_0914	s	s	5	1	SIC	239	RC	2	2	23VD	1	0	0.606735944748	119.0	-323.0	115	-322	1
1.7	2015_Jul_20_0914	s	s	5	1	SIC	240	ABS	1	0	24MC	0	1	7.52882885933	None	None	None	None	1
1.7	2015_Jul_20_0914	s	s	5	1	SIC	241	ABS	0	2	24RD	0	1	1.26820015907	None	None	None	None	1
1.7	2015_Jul_20_0914	s	s	5	1	SIC	242	RC	1	1	23MO	1	0	2.47816991806	-330.0	125.0	-333	131	1
1.7	2015_Jul_20_0914	s	s	5	1	SIC	243	RC	0	2	23RD	1	0	5.4020421505	-68.0	-408.0	-69	-408	1
1.7	2015_Jul_20_0914	s	s	5	1	SIC	244	RC	1	2	23MD	1	0	0.771202802658	60.0	-38.0	70	-36	1
1.7	2015_Jul_20_0914	s	s	5	1	SIC	245	RC	2	0	23VC	1	0	0.646773099899	450.0	199.0	461	204	1
1.7	2015_Jul_20_0914	s	s	5	1	SIC	246	ABS	1	0	24MC	0	1	8.26231908798	None	None	None	None	1
1.7	2015_Jul_20_0914	s	s	5	1	SIC	247	RC	2	2	23VD	1	0	0.587882995605	-430.0	-103.0	-432	-109	1
1.7	2015_Jul_20_0914	s	s	5	1	SIC	248	RC	0	1	23RO	1	0	3.10209298134	385.0	403.0	389	400	1
1.7	2015_Jul_20_0914	s	s	5	1	SIC	249	ABS	2	1	24VO	0	1	1.16508388519	None	None	None	None	1
1.7	2015_Jul_20_0914	s	s	5	1	SIC	250	RC	2	1	23VO	1	0	1.71444106102	-207.0	-44.0	-199	-46	1
1.7	2015_Jul_20_0914	s	s	5	1	SIC	251	ABS	1	2	24MD	0	1	2.08275699615	None	None	None	None	1
1.7	2015_Jul_20_0914	s	s	5	1	SIC	252	ABS	2	2	24VD	0	1	0.752699136734	None	None	None	None	1
1.7	2015_Jul_20_0914	s	s	5	1	SIC	253	ABS	1	1	24MO	0	1	6.31521701813	None	None	None	None	1
1.7	2015_Jul_20_0914	s	s	5	1	SIC	254	RC	1	0	23MC	1	0	9.93363404274	11.0	99.0	1	98	1
1.7	2015_Jul_20_0914	s	s	5	1	SIC	255	ABS	0	1	24RO	0	1	8.37512993813	None	None	None	None	1
1.7	2015_Jul_20_0914	s	s	5	1	SIC	256	ABS	2	0	24VC	0	1	1.59753704071	None	None	None	None	1
1.7	2015_Jul_20_0914	s	s	5	1	SIC	257	ABS	1	1	24MO	0	1	6.42609906197	None	None	None	None	1
1.7	2015_Jul_20_0914	s	s	5	1	SIC	258	RC	1	2	23MD	1	0	0.788039922714	355.0	-288.0	357	-293	1
1.7	2015_Jul_20_0914	s	s	5	1	SIC	259	RC	1	0	23MC	1	0	6.28003311157	-441.0	-55.0	-449	-45	1
1.7	2015_Jul_20_0914	s	s	5	1	SIC	260	RC	2	0	23VC	1	0	0.77138710022	486.0	230.0	495	227	1
1.7	2015_Jul_20_0914	s	s	5	1	SIC	261	ABS	0	2	24RD	0	1	1.96499896049	None	None	None	None	1
1.7	2015_Jul_20_0914	s	s	5	1	SIC	262	ABS	2	0	24VC	0	1	0.976260900497	None	None	None	None	1
1.7	2015_Jul_20_0914	s	s	5	1	SIC	263	RC	2	1	23VO	1	0	1.50602507591	-425.0	-197.0	-430	-204	1
1.7	2015_Jul_20_0914	s	s	5	1	SIC	264	RC	1	1	23MO	1	0	2.57228899002	-64.0	-22.0	-68	-24	1
1.7	2015_Jul_20_0914	s	s	5	1	SIC	265	ABS	2	1	24VO	0	1	1.39479517937	None	None	None	None	1
1.7	2015_Jul_20_0914	s	s	5	1	SIC	266	ABS	1	0	24MC	0	1	10.1574428082	None	None	None	None	1
1.7	2015_Jul_20_0914	s	s	5	1	SIC	267	ABS	1	2	24MD	0	1	1.03264307976	None	None	None	None	1
1.7	2015_Jul_20_0914	s	s	5	1	SIC	268	ABS	2	2	24VD	0	1	0.689028024673	None	None	None	None	1
1.7	2015_Jul_20_0914	s	s	5	1	SIC	269	ABS	0	1	24RO	0	1	7.72087478638	None	None	None	None	1
1.7	2015_Jul_20_0914	s	s	5	1	SIC	270	RC	0	2	23RD	1	0	1.01785087585	-306.0	276.0	-303	268	1
1.7	2015_Jul_20_0914	s	s	5	1	SIC	271	RC	2	2	23VD	1	0	0.682095050812	-221.0	-397.0	-224	-398	1
1.7	2015_Jul_20_0914	s	s	5	1	SIC	272	RC	0	1	23RO	1	0	2.18866491318	390.0	-389.0	393	-391	1
1.7	2015_Jul_20_0914	s	s	5	1	SIC	273	ABS	1	1	24MO	0	1	6.63309597969	None	None	None	None	1
1.7	2015_Jul_20_0914	s	s	5	1	SIC	274	ABS	1	2	24MD	0	1	1.27057003975	None	None	None	None	1
1.7	2015_Jul_20_0914	s	s	5	1	SIC	275	RC	1	1	23MO	1	0	5.21107602119	-252.0	137.0	-256	130	1
1.7	2015_Jul_20_0914	s	s	5	1	SIC	276	RC	2	1	23VO	1	0	0.729142904282	-444.0	-74.0	-456	-73	1
1.7	2015_Jul_20_0914	s	s	5	1	SIC	277	RC	1	0	23MC	0	1	19.2088668346	-130.0	-193.0	None	None	0
1.7	2015_Jul_20_0914	s	s	5	1	SIC	278	RC	0	2	23RD	1	0	1.01866889	219.0	390.0	213	387	1
1.7	2015_Jul_20_0914	s	s	5	1	SIC	279	RC	2	2	23VD	1	0	0.705605983734	481.0	364.0	490	367	1
1.7	2015_Jul_20_0914	s	s	5	1	SIC	280	ABS	2	0	24VC	0	1	1.5246181488	None	None	None	None	1
1.7	2015_Jul_20_0914	s	s	5	1	SIC	281	ABS	2	2	24VD	0	1	0.877612113953	None	None	None	None	1
1.7	2015_Jul_20_0914	s	s	5	1	SIC	282	ABS	0	2	24RD	0	1	1.22349500656	None	None	None	None	1
1.7	2015_Jul_20_0914	s	s	5	1	SIC	283	ABS	1	0	24MC	0	1	10.6586940289	None	None	None	None	1
1.7	2015_Jul_20_0914	s	s	5	1	SIC	284	ABS	0	1	24RO	0	1	6.50341796875	None	None	None	None	1
1.7	2015_Jul_20_0914	s	s	5	1	SIC	285	ABS	2	1	24VO	0	1	1.05341291428	None	None	None	None	1
1.7	2015_Jul_20_0914	s	s	5	1	SIC	286	RC	1	2	23MD	1	0	0.95278096199	-534.0	283.0	-537	287	1
1.7	2015_Jul_20_0914	s	s	5	1	SIC	287	RC	2	0	23VC	1	0	0.658532142639	251.0	-128.0	261	-127	1
1.7	2015_Jul_20_0914	s	s	5	1	SIC	288	RC	0	1	23RO	1	0	2.68300890923	427.0	-351.0	426	-354	1
1.7	2015_Jul_20_0914	s	s	5	1	SIC	289	ABS	0	2	24RD	0	1	2.54182291031	None	None	None	None	1
1.7	2015_Jul_20_0914	s	s	5	1	SIC	290	RC	1	0	23MC	1	0	7.83878898621	-190.0	-69.0	-191	-70	1
1.7	2015_Jul_20_0914	s	s	5	1	SIC	291	RC	0	1	23RO	1	0	3.56582093239	350.0	232.0	360	230	1
1.7	2015_Jul_20_0914	s	s	5	1	SIC	292	ABS	2	0	24VC	0	1	0.899120092392	None	None	None	None	1
1.7	2015_Jul_20_0914	s	s	5	1	SIC	293	ABS	2	1	24VO	0	1	1.25881195068	None	None	None	None	1
1.7	2015_Jul_20_0914	s	s	5	1	SIC	294	RC	0	2	23RD	1	0	0.811561107635	157.0	114.0	160	113	1
1.7	2015_Jul_20_0914	s	s	5	1	SIC	295	ABS	0	1	24RO	0	1	6.69362807274	None	None	None	None	1
1.7	2015_Jul_20_0914	s	s	5	1	SIC	296	RC	2	2	23VD	1	0	0.764488935471	216.0	-134.0	219	-134	1
1.7	2015_Jul_20_0914	s	s	5	1	SIC	297	RC	2	0	23VC	1	0	2.07090902328	-24.0	-100.0	-17	-99	1
1.7	2015_Jul_20_0914	s	s	5	1	SIC	298	RC	1	1	23MO	1	0	1.82381701469	108.0	-180.0	113	-174	1
1.7	2015_Jul_20_0914	s	s	5	1	SIC	299	RC	2	1	23VO	1	0	0.776207923889	370.0	317.0	373	313	1
1.7	2015_Jul_20_0914	s	s	5	1	SIC	300	ABS	1	2	24MD	0	1	2.66626000404	None	None	None	None	1
1.7	2015_Jul_20_0914	s	s	5	1	SIC	301	ABS	2	2	24VD	0	1	0.846845149994	None	None	None	None	1
1.7	2015_Jul_20_0914	s	s	5	1	SIC	302	RC	1	2	23MD	1	0	1.68896794319	181.0	372.0	186	369	1
1.7	2015_Jul_20_0914	s	s	5	1	SIC	303	ABS	1	0	24MC	0	1	9.98708510399	None	None	None	None	1
1.7	2015_Jul_20_0914	s	s	5	1	SIC	304	ABS	1	1	24MO	0	1	8.47413897514	None	None	None	None	1
1.7	2015_Jul_20_0914	s	s	5	1	SIC	305	ABS	1	2	24MD	0	1	1.38827514648	None	None	None	None	1
1.7	2015_Jul_20_0914	s	s	5	1	SIC	306	ABS	2	1	24VO	0	1	0.877224206924	None	None	None	None	1
1.7	2015_Jul_20_0914	s	s	5	1	SIC	307	ABS	1	0	24MC	0	1	8.79879498482	None	None	None	None	1
1.7	2015_Jul_20_0914	s	s	5	1	SIC	308	RC	0	2	23RD	1	0	0.800163984299	454.0	387.0	454	384	1
1.7	2015_Jul_20_0914	s	s	5	1	SIC	309	RC	1	2	23MD	1	0	1.43051505089	405.0	-236.0	408	-236	1
1.7	2015_Jul_20_0914	s	s	5	1	SIC	310	RC	2	2	23VD	1	0	0.749339103699	-258.0	-400.0	-260	-397	1
1.7	2015_Jul_20_0914	s	s	5	1	SIC	311	ABS	0	1	24RO	0	1	6.37556409836	None	None	None	None	1
1.7	2015_Jul_20_0914	s	s	5	1	SIC	312	ABS	2	2	24VD	0	1	0.964462041855	None	None	None	None	1
1.7	2015_Jul_20_0914	s	s	5	1	SIC	313	ABS	0	2	24RD	0	1	1.28228497505	None	None	None	None	1
1.7	2015_Jul_20_0914	s	s	5	1	SIC	314	RC	0	1	23RO	1	0	3.85668992996	-168.0	-251.0	-163	-247	1
1.7	2015_Jul_20_0914	s	s	5	1	SIC	315	ABS	2	0	24VC	0	1	0.770494937897	None	None	None	None	1
1.7	2015_Jul_20_0914	s	s	5	1	SIC	316	RC	1	0	23MC	0	1	8.80383181572	-401.0	257.0	None	None	0
1.7	2015_Jul_20_0914	s	s	5	1	SIC	317	RC	2	0	23VC	1	0	0.712212085724	113.0	-15.0	119	-11	1
1.7	2015_Jul_20_0914	s	s	5	1	SIC	318	RC	1	1	23MO	1	0	0.964489936829	529.0	-225.0	527	-222	1
1.7	2015_Jul_20_0914	s	s	5	1	SIC	319	RC	2	1	23VO	1	0	0.735429048538	0.0	33.0	4	30	1
1.7	2015_Jul_20_0914	s	s	5	1	SIC	320	ABS	1	1	24MO	0	1	5.29616212845	None	None	None	None	1
1.7	2015_Jul_20_0914	s	s	5	1	SIC	321	RC	2	1	23VO	1	0	0.811492919922	329.0	-400.0	321	-404	1
1.7	2015_Jul_20_0914	s	s	5	1	SIC	322	ABS	2	2	24VD	0	1	0.846871852875	None	None	None	None	1
1.7	2015_Jul_20_0914	s	s	5	1	SIC	323	ABS	1	1	24MO	0	1	4.51426815987	None	None	None	None	1
1.7	2015_Jul_20_0914	s	s	5	1	SIC	324	ABS	2	0	24VC	0	1	0.935619115829	None	None	None	None	1
1.7	2015_Jul_20_0914	s	s	5	1	SIC	325	RC	1	0	23MC	1	0	9.76896500587	81.0	246.0	90	246	1
1.7	2015_Jul_20_0914	s	s	5	1	SIC	326	RC	0	2	23RD	1	0	0.874142885208	531.0	-149.0	539	-149	1
1.7	2015_Jul_20_0914	s	s	5	1	SIC	327	ABS	1	2	24MD	0	1	1.04698300362	None	None	None	None	1
1.7	2015_Jul_20_0914	s	s	5	1	SIC	328	ABS	0	2	24RD	0	1	1.04356598854	None	None	None	None	1
1.7	2015_Jul_20_0914	s	s	5	1	SIC	329	RC	2	2	23VD	1	0	0.664889812469	18.0	98.0	18	98	1
1.7	2015_Jul_20_0914	s	s	5	1	SIC	330	ABS	2	1	24VO	0	1	0.806396961212	None	None	None	None	1
1.7	2015_Jul_20_0914	s	s	5	1	SIC	331	ABS	0	1	24RO	0	1	11.8259968758	None	None	None	None	1
1.7	2015_Jul_20_0914	s	s	5	1	SIC	332	RC	0	1	23RO	1	0	1.88268089294	527.0	230.0	519	227	1
1.7	2015_Jul_20_0914	s	s	5	1	SIC	333	RC	1	1	23MO	1	0	3.92560076714	-286.0	228.0	-276	227	1
1.7	2015_Jul_20_0914	s	s	5	1	SIC	334	RC	1	2	23MD	1	0	0.923095941544	491.0	-244.0	501	-244	1
1.7	2015_Jul_20_0914	s	s	5	1	SIC	335	RC	2	0	23VC	1	0	1.23049521446	-210.0	402.0	-216	404	1
1.7	2015_Jul_20_0914	s	s	5	1	SIC	336	ABS	1	0	24MC	0	1	11.3892009258	None	None	None	None	1
1.7	2015_Jul_20_0914	s	s	5	1	SIC	337	RC	0	1	23RO	1	0	2.29463005066	-473.0	339.0	-482	345	1
1.7	2015_Jul_20_0914	s	s	5	1	SIC	338	ABS	0	1	24RO	0	1	5.6728219986	None	None	None	None	1
1.7	2015_Jul_20_0914	s	s	5	1	SIC	339	RC	0	2	23RD	1	0	0.877166986465	46.0	-206.0	49	-207	1
1.7	2015_Jul_20_0914	s	s	5	1	SIC	340	ABS	0	2	24RD	0	1	2.17184185982	None	None	None	None	1
1.7	2015_Jul_20_0914	s	s	5	1	SIC	341	RC	2	2	23VD	1	0	0.641244888306	-210.0	-271.0	-206	-263	1
1.7	2015_Jul_20_0914	s	s	5	1	SIC	342	ABS	1	2	24MD	0	1	1.40675902367	None	None	None	None	1
1.7	2015_Jul_20_0914	s	s	5	1	SIC	343	RC	1	1	23MO	1	0	1.5177898407	109.0	-230.0	109	-233	1
1.7	2015_Jul_20_0914	s	s	5	1	SIC	344	RC	1	2	23MD	1	0	0.799820899963	334.0	-236.0	332	-227	1
1.7	2015_Jul_20_0914	s	s	5	1	SIC	345	ABS	2	1	24VO	0	1	1.04135298729	None	None	None	None	1
1.7	2015_Jul_20_0914	s	s	5	1	SIC	346	ABS	2	2	24VD	0	1	0.96497797966	None	None	None	None	1
1.7	2015_Jul_20_0914	s	s	5	1	SIC	347	RC	2	1	23VO	1	0	0.676609039307	-205.0	86.0	-205	78	1
1.7	2015_Jul_20_0914	s	s	5	1	SIC	348	ABS	1	0	24MC	0	1	8.75202298164	None	None	None	None	1
1.7	2015_Jul_20_0914	s	s	5	1	SIC	349	RC	1	0	23MC	1	0	9.98759794235	252.0	-128.0	248	-120	1
1.7	2015_Jul_20_0914	s	s	5	1	SIC	350	RC	2	0	23VC	1	0	0.835099935532	136.0	-45.0	135	-42	1
1.7	2015_Jul_20_0914	s	s	5	1	SIC	351	ABS	2	0	24VC	0	1	1.07709288597	None	None	None	None	1
1.7	2015_Jul_20_0914	s	s	5	1	SIC	352	ABS	1	1	24MO	0	1	2.24752283096	None	None	None	None	1
1.7	2015_Jul_20_0914	s	s	5	1	SIC	353	RC	2	2	23VD	1	0	0.670282840729	-223.0	-20.0	-220	-17	1
1.7	2015_Jul_20_0914	s	s	5	1	SIC	354	ABS	1	1	24MO	0	1	4.36381101608	None	None	None	None	1
1.7	2015_Jul_20_0914	s	s	5	1	SIC	355	RC	1	0	23MC	1	0	4.43687105179	245.0	-211.0	246	-205	1
1.7	2015_Jul_20_0914	s	s	5	1	SIC	356	ABS	2	2	24VD	0	1	0.646745204926	None	None	None	None	1
1.7	2015_Jul_20_0914	s	s	5	1	SIC	357	RC	0	2	23RD	1	0	0.994807958603	-334.0	-382.0	-330	-382	1
1.7	2015_Jul_20_0914	s	s	5	1	SIC	358	RC	1	1	23MO	1	0	3.21978998184	-55.0	116.0	-56	125	1
1.7	2015_Jul_20_0914	s	s	5	1	SIC	359	ABS	0	2	24RD	0	1	1.25383090973	None	None	None	None	1
1.7	2015_Jul_20_0914	s	s	5	1	SIC	360	ABS	1	0	24MC	1	0	13.7542831898	None	None	-137	-161	0
1.7	2015_Jul_20_0914	s	s	5	1	SIC	361	ABS	0	1	24RO	0	1	6.53240704536	None	None	None	None	1
1.7	2015_Jul_20_0914	s	s	5	1	SIC	362	RC	2	1	23VO	1	0	0.643736124039	-48.0	60.0	-49	60	1
1.7	2015_Jul_20_0914	s	s	5	1	SIC	363	RC	0	1	23RO	1	0	3.00078415871	-306.0	36.0	-304	35	1
1.7	2015_Jul_20_0914	s	s	5	1	SIC	364	ABS	2	1	24VO	0	1	1.05381703377	None	None	None	None	1
1.7	2015_Jul_20_0914	s	s	5	1	SIC	365	ABS	1	2	24MD	0	1	1.72986698151	None	None	None	None	1
1.7	2015_Jul_20_0914	s	s	5	1	SIC	366	RC	2	0	23VC	1	0	0.670253992081	250.0	-95.0	246	-88	1
1.7	2015_Jul_20_0914	s	s	5	1	SIC	367	RC	1	2	23MD	1	0	0.677192926407	273.0	274.0	280	274	1
1.7	2015_Jul_20_0914	s	s	5	1	SIC	368	ABS	2	0	24VC	0	1	0.846786975861	None	None	None	None	1
1.7	2015_Jul_20_0914	s	s	5	1	SIC	369	RC	2	0	23VC	1	0	0.724270105362	257.0	408.0	258	404	1
1.7	2015_Jul_20_0914	s	s	5	1	SIC	370	ABS	1	0	24MC	0	1	8.66241812706	None	None	None	None	1
1.7	2015_Jul_20_0914	s	s	5	1	SIC	371	ABS	0	1	24RO	1	0	5.90412902832	None	None	82	82	0
1.7	2015_Jul_20_0914	s	s	5	1	SIC	372	ABS	2	2	24VD	0	1	0.705575942993	None	None	None	None	1
1.7	2015_Jul_20_0914	s	s	5	1	SIC	373	RC	0	2	23RD	1	0	1.38831615448	357.0	287.0	359	283	1
1.7	2015_Jul_20_0914	s	s	5	1	SIC	374	RC	0	1	23RO	1	0	4.7937541008	-82.0	346.0	-78	348	1
1.7	2015_Jul_20_0914	s	s	5	1	SIC	375	ABS	0	2	24RD	0	1	1.51276683807	None	None	None	None	1
1.7	2015_Jul_20_0914	s	s	5	1	SIC	376	RC	1	0	23MC	1	0	11.0288109779	-138.0	289.0	-133	282	1
1.7	2015_Jul_20_0914	s	s	5	1	SIC	377	ABS	2	1	24VO	0	1	0.964519023895	None	None	None	None	1
1.7	2015_Jul_20_0914	s	s	5	1	SIC	378	RC	2	2	23VD	1	0	0.712243080139	-485.0	-235.0	-485	-234	1
1.7	2015_Jul_20_0914	s	s	5	1	SIC	379	ABS	2	0	24VC	0	1	1.0538380146	None	None	None	None	1
1.7	2015_Jul_20_0914	s	s	5	1	SIC	380	ABS	1	2	24MD	0	1	2.51328396797	None	None	None	None	1
1.7	2015_Jul_20_0914	s	s	5	1	SIC	381	ABS	1	1	24MO	0	1	7.59773015976	None	None	None	None	1
1.7	2015_Jul_20_0914	s	s	5	1	SIC	382	RC	1	2	23MD	1	0	0.749509096146	-169.0	-217.0	-177	-215	1
1.7	2015_Jul_20_0914	s	s	5	1	SIC	383	RC	1	1	23MO	1	0	1.90624308586	377.0	224.0	379	223	1
1.7	2015_Jul_20_0914	s	s	5	1	SIC	384	RC	2	1	23VO	1	0	0.744559049606	-179.0	-364.0	-183	-370	1
1.7	2015_Jul_20_0914	s	s	5	1	SIC	385	ABS	0	1	24RO	0	1	7.4147670269	None	None	None	None	1
1.7	2015_Jul_20_0914	s	s	5	1	SIC	386	RC	1	1	23MO	1	0	2.43590283394	84.0	131.0	74	134	1
1.7	2015_Jul_20_0914	s	s	5	1	SIC	387	RC	2	1	23VO	1	0	0.676839828491	-529.0	310.0	-529	310	1
1.7	2015_Jul_20_0914	s	s	5	1	SIC	388	RC	2	0	23VC	1	0	3.22448706627	163.0	172.0	158	173	1
1.7	2015_Jul_20_0914	s	s	5	1	SIC	389	ABS	0	2	24RD	0	1	2.19503617287	None	None	None	None	1
1.7	2015_Jul_20_0914	s	s	5	1	SIC	390	ABS	1	0	24MC	0	1	6.99111413956	None	None	None	None	1
1.7	2015_Jul_20_0914	s	s	5	1	SIC	391	RC	0	1	23RO	1	0	2.45981287956	360.0	57.0	362	57	1
1.7	2015_Jul_20_0914	s	s	5	1	SIC	392	ABS	2	0	24VC	0	1	0.853489875793	None	None	None	None	1
1.7	2015_Jul_20_0914	s	s	5	1	SIC	393	RC	2	2	23VD	1	0	0.690774202347	477.0	-53.0	485	-50	1
1.7	2015_Jul_20_0914	s	s	5	1	SIC	394	ABS	2	2	24VD	0	1	0.853587865829	None	None	None	None	1
1.7	2015_Jul_20_0914	s	s	5	1	SIC	395	RC	1	0	23MC	1	0	6.11454701424	-362.0	-371.0	-363	-384	1
1.7	2015_Jul_20_0914	s	s	5	1	SIC	396	ABS	2	1	24VO	0	1	0.752667188644	None	None	None	None	1
1.7	2015_Jul_20_0914	s	s	5	1	SIC	397	ABS	1	1	24MO	0	1	5.20199012756	None	None	None	None	1
1.7	2015_Jul_20_0914	s	s	5	1	SIC	398	RC	0	2	23RD	1	0	0.717355966568	6.0	317.0	8	310	1
1.7	2015_Jul_20_0914	s	s	5	1	SIC	399	ABS	1	2	24MD	0	1	1.49049901962	None	None	None	None	1
1.7	2015_Jul_20_0914	s	s	5	1	SIC	400	RC	1	2	23MD	1	0	0.862353086472	76.0	-160.0	73	-158	1
1.7	2015_Jul_20_0914	s	s	5	1	SIC	401	RC	0	2	23RD	1	0	0.677129030228	519.0	216.0	507	221	1
1.7	2015_Jul_20_0914	s	s	5	1	SIC	402	ABS	0	2	24RD	0	1	1.01161599159	None	None	None	None	1
1.7	2015_Jul_20_0914	s	s	5	1	SIC	403	ABS	1	0	24MC	0	1	10.601238966	None	None	None	None	1
1.7	2015_Jul_20_0914	s	s	5	1	SIC	404	ABS	0	1	24RO	0	1	6.48027992249	None	None	None	None	1
1.7	2015_Jul_20_0914	s	s	5	1	SIC	405	RC	2	1	23VO	1	0	0.687397003174	-109.0	401.0	-113	396	1
1.7	2015_Jul_20_0914	s	s	5	1	SIC	406	ABS	2	2	24VD	0	1	0.72955083847	None	None	None	None	1
1.7	2015_Jul_20_0914	s	s	5	1	SIC	407	ABS	1	1	24MO	0	1	4.56081700325	None	None	None	None	1
1.7	2015_Jul_20_0914	s	s	5	1	SIC	408	RC	2	2	23VD	1	0	0.579900026321	-285.0	-124.0	-280	-132	1
1.7	2015_Jul_20_0914	s	s	5	1	SIC	409	RC	1	1	23MO	1	0	0.913849115372	247.0	79.0	246	81	1
1.7	2015_Jul_20_0914	s	s	5	1	SIC	410	RC	0	1	23RO	1	0	6.69687795639	-394.0	-133.0	-394	-134	1
1.7	2015_Jul_20_0914	s	s	5	1	SIC	411	ABS	2	1	24VO	0	1	0.717465877533	None	None	None	None	1
1.7	2015_Jul_20_0914	s	s	5	1	SIC	412	RC	1	0	23MC	1	0	8.24516797066	64.0	-270.0	68	-271	1
1.7	2015_Jul_20_0914	s	s	5	1	SIC	413	RC	2	0	23VC	1	0	1.68266510963	108.0	326.0	110	331	1
1.7	2015_Jul_20_0914	s	s	5	1	SIC	414	RC	1	2	23MD	1	0	0.620734930038	-236.0	148.0	-238	139	1
1.7	2015_Jul_20_0914	s	s	5	1	SIC	415	ABS	1	2	24MD	0	1	1.4589600563	None	None	None	None	1
1.7	2015_Jul_20_0914	s	s	5	1	SIC	416	ABS	2	0	24VC	0	1	0.905691862106	None	None	None	None	1
1.7	2015_Jul_20_0914	s	s	5	1	SIC	417	RC	2	0	23VC	1	0	0.78550195694	270.0	-66.0	270	-73	1
1.7	2015_Jul_20_0914	s	s	5	1	SIC	418	ABS	1	0	24MC	0	1	5.98553991318	None	None	None	None	1
1.7	2015_Jul_20_0914	s	s	5	1	SIC	419	ABS	1	1	24MO	0	1	4.33093500137	None	None	None	None	1
1.7	2015_Jul_20_0914	s	s	5	1	SIC	420	RC	1	2	23MD	1	0	0.771553993225	-36.0	298.0	-36	288	1
1.7	2015_Jul_20_0914	s	s	5	1	SIC	421	ABS	0	2	24RD	0	1	3.7491209507	None	None	None	None	1
1.7	2015_Jul_20_0914	s	s	5	1	SIC	422	RC	2	1	23VO	1	0	0.693784952164	-265.0	194.0	-257	192	1
1.7	2015_Jul_20_0914	s	s	5	1	SIC	423	RC	0	2	23RD	1	0	0.776210069656	218.0	-70.0	221	-68	1
1.7	2015_Jul_20_0914	s	s	5	1	SIC	424	RC	2	2	23VD	1	0	0.587867021561	-298.0	141.0	-299	139	1
1.7	2015_Jul_20_0914	s	s	5	1	SIC	425	ABS	2	1	24VO	0	1	1.05871796608	None	None	None	None	1
1.7	2015_Jul_20_0914	s	s	5	1	SIC	426	RC	1	1	23MO	1	0	1.88282489777	87.0	-407.0	95	-410	1
1.7	2015_Jul_20_0914	s	s	5	1	SIC	427	ABS	2	2	24VD	0	1	0.811517000198	None	None	None	None	1
1.7	2015_Jul_20_0914	s	s	5	1	SIC	428	ABS	2	0	24VC	0	1	0.749417066574	None	None	None	None	1
1.7	2015_Jul_20_0914	s	s	5	1	SIC	429	ABS	0	1	24RO	0	1	5.86110210419	None	None	None	None	1
1.7	2015_Jul_20_0914	s	s	5	1	SIC	430	ABS	1	2	24MD	0	1	1.10582208633	None	None	None	None	1
1.7	2015_Jul_20_0914	s	s	5	1	SIC	431	RC	1	0	23MC	1	0	8.33292889595	258.0	-165.0	254	-157	1
1.7	2015_Jul_20_0914	s	s	5	1	SIC	432	RC	0	1	23RO	1	0	2.30629491806	534.0	143.0	533	144	1
1.7	2015_Jul_20_0914	s	s	5	1	SIC	433	ABS	1	1	24MO	0	1	5.71993684769	None	None	None	None	1
1.7	2015_Jul_20_0914	s	s	5	1	SIC	434	ABS	0	1	24RO	0	1	7.38605308533	None	None	None	None	1
1.7	2015_Jul_20_0914	s	s	5	1	SIC	435	RC	2	1	23VO	1	0	0.641767978668	-278.0	-77.0	-266	-76	1
1.7	2015_Jul_20_0914	s	s	5	1	SIC	436	RC	2	0	23VC	1	0	0.611428022385	132.0	200.0	128	205	1
1.7	2015_Jul_20_0914	s	s	5	1	SIC	437	ABS	2	1	24VO	0	1	0.788006067276	None	None	None	None	1
1.7	2015_Jul_20_0914	s	s	5	1	SIC	438	RC	1	2	23MD	1	0	0.740890979767	-266.0	243.0	-264	242	1
1.7	2015_Jul_20_0914	s	s	5	1	SIC	439	ABS	1	0	24MC	0	1	4.79682421684	None	None	None	None	1
1.7	2015_Jul_20_0914	s	s	5	1	SIC	440	ABS	0	2	24RD	0	1	1.34908604622	None	None	None	None	1
1.7	2015_Jul_20_0914	s	s	5	1	SIC	441	RC	1	1	23MO	1	0	0.964514970779	383.0	163.0	383	163	1
1.7	2015_Jul_20_0914	s	s	5	1	SIC	442	ABS	2	0	24VC	0	1	1.08597707748	None	None	None	None	1
1.7	2015_Jul_20_0914	s	s	5	1	SIC	443	RC	2	2	23VD	1	0	0.611377000809	-46.0	-111.0	-46	-116	1
1.7	2015_Jul_20_0914	s	s	5	1	SIC	444	RC	0	2	23RD	1	0	0.748445987701	-276.0	403.0	-270	406	1
1.7	2015_Jul_20_0914	s	s	5	1	SIC	445	RC	1	0	23MC	1	0	9.21567893028	487.0	168.0	490	176	1
1.7	2015_Jul_20_0914	s	s	5	1	SIC	446	RC	0	1	23RO	1	0	4.54280591011	-339.0	-329.0	-335	-323	1
1.7	2015_Jul_20_0914	s	s	5	1	SIC	447	ABS	1	2	24MD	0	1	0.988036870956	None	None	None	None	1
1.7	2015_Jul_20_0914	s	s	5	1	SIC	448	ABS	2	2	24VD	0	1	0.820190191269	None	None	None	None	1
1.7	2015_Jul_20_0914	s	s	5	1	SIC	449	RC	0	1	23RO	1	0	3.76974415779	37.0	135.0	48	135	1
1.7	2015_Jul_20_0914	s	s	5	1	SIC	450	RC	2	2	23VD	1	0	0.665421009064	324.0	-54.0	323	-50	1
1.7	2015_Jul_20_0914	s	s	5	1	SIC	451	ABS	2	1	24VO	0	1	0.806730985641	None	None	None	None	1
1.7	2015_Jul_20_0914	s	s	5	1	SIC	452	ABS	2	2	24VD	0	1	0.77623295784	None	None	None	None	1
1.7	2015_Jul_20_0914	s	s	5	1	SIC	453	ABS	0	1	24RO	0	1	7.6502430439	None	None	None	None	1
1.7	2015_Jul_20_0914	s	s	5	1	SIC	454	ABS	1	1	24MO	0	1	1.34809184074	None	None	None	None	1
1.7	2015_Jul_20_0914	s	s	5	1	SIC	455	ABS	1	0	24MC	0	1	5.18516802788	None	None	None	None	1
1.7	2015_Jul_20_0914	s	s	5	1	SIC	456	ABS	2	0	24VC	0	1	0.756422042847	None	None	None	None	1
1.7	2015_Jul_20_0914	s	s	5	1	SIC	457	RC	1	2	23MD	1	0	1.26572704315	-330.0	336.0	-336	329	1
1.7	2015_Jul_20_0914	s	s	5	1	SIC	458	ABS	1	2	24MD	0	1	1.77167916298	None	None	None	None	1
1.7	2015_Jul_20_0914	s	s	5	1	SIC	459	RC	0	2	23RD	1	0	2.01201701164	533.0	-80.0	526	-80	1
1.7	2015_Jul_20_0914	s	s	5	1	SIC	460	RC	2	0	23VC	1	0	0.634870052338	505.0	-195.0	499	-198	1
1.7	2015_Jul_20_0914	s	s	5	1	SIC	461	RC	1	1	23MO	1	0	3.43134284019	-162.0	110.0	-155	113	1
1.7	2015_Jul_20_0914	s	s	5	1	SIC	462	RC	1	0	23MC	1	0	5.7316660881	-159.0	405.0	-159	406	1
1.7	2015_Jul_20_0914	s	s	5	1	SIC	463	RC	2	1	23VO	1	0	0.664561033249	340.0	264.0	340	256	1
1.7	2015_Jul_20_0914	s	s	5	1	SIC	464	ABS	0	2	24RD	0	1	1.87084007263	None	None	None	None	1
1.7	2015_Jul_20_0914	s	s	5	1	SIC	465	ABS	0	1	24RO	0	1	7.6924161911	None	None	None	None	1
1.7	2015_Jul_20_0914	s	s	5	1	SIC	466	RC	1	2	23MD	1	0	0.764657974243	512.0	164.0	518	161	1
1.7	2015_Jul_20_0914	s	s	5	1	SIC	467	ABS	1	1	24MO	0	1	4.79905605316	None	None	None	None	1
1.7	2015_Jul_20_0914	s	s	5	1	SIC	468	ABS	0	2	24RD	0	1	1.07651591301	None	None	None	None	1
1.7	2015_Jul_20_0914	s	s	5	1	SIC	469	RC	0	1	23RO	1	0	4.83205604553	-304.0	-77.0	-312	-68	1
1.7	2015_Jul_20_0914	s	s	5	1	SIC	470	RC	1	0	23MC	1	0	7.48540282249	213.0	-75.0	201	-70	1
1.7	2015_Jul_20_0914	s	s	5	1	SIC	471	ABS	2	1	24VO	0	1	1.00669193268	None	None	None	None	1
1.7	2015_Jul_20_0914	s	s	5	1	SIC	472	RC	1	1	23MO	1	0	1.06548094749	-204.0	246.0	-209	250	1
1.7	2015_Jul_20_0914	s	s	5	1	SIC	473	ABS	2	2	24VD	0	1	0.749888181686	None	None	None	None	1
1.7	2015_Jul_20_0914	s	s	5	1	SIC	474	RC	0	2	23RD	1	0	0.641844034195	159.0	-17.0	158	-8	1
1.7	2015_Jul_20_0914	s	s	5	1	SIC	475	ABS	1	0	24MC	0	1	8.19169712067	None	None	None	None	1
1.7	2015_Jul_20_0914	s	s	5	1	SIC	476	RC	2	0	23VC	1	0	0.693784952164	333.0	-357.0	335	-358	1
1.7	2015_Jul_20_0914	s	s	5	1	SIC	477	ABS	2	0	24VC	0	1	0.823309898376	None	None	None	None	1
1.7	2015_Jul_20_0914	s	s	5	1	SIC	478	RC	2	2	23VD	1	0	0.808664798737	-256.0	285.0	-253	290	1
1.7	2015_Jul_20_0914	s	s	5	1	SIC	479	ABS	1	2	24MD	0	1	0.92510509491	None	None	None	None	1
1.7	2015_Jul_20_0914	s	s	5	1	SIC	480	RC	2	1	23VO	1	0	0.587854146957	-293.0	174.0	-304	176	1
1.7	2015_Jul_20_0914	s	s	5	1	SIC	481	ABS	0	1	24RO	0	1	8.27415680885	None	None	None	None	1
1.7	2015_Jul_20_0914	s	s	5	1	SIC	482	RC	1	1	23MO	0	1	4.52627778053	160.0	-271.0	None	None	0
1.7	2015_Jul_20_0914	s	s	5	1	SIC	483	RC	1	2	23MD	1	0	0.771460056305	510.0	212.0	513	215	1
1.7	2015_Jul_20_0914	s	s	5	1	SIC	484	ABS	2	2	24VD	0	1	0.724145889282	None	None	None	None	1
1.7	2015_Jul_20_0914	s	s	5	1	SIC	485	ABS	1	0	24MC	0	1	6.05325698853	None	None	None	None	1
1.7	2015_Jul_20_0914	s	s	5	1	SIC	486	ABS	1	2	24MD	0	1	0.670303821564	None	None	None	None	1
1.7	2015_Jul_20_0914	s	s	5	1	SIC	487	ABS	1	1	24MO	0	1	4.71436285973	None	None	None	None	1
1.7	2015_Jul_20_0914	s	s	5	1	SIC	488	RC	0	1	23RO	1	0	6.43444013596	102.0	-214.0	101	-214	1
1.7	2015_Jul_20_0914	s	s	5	1	SIC	489	RC	0	2	23RD	1	0	0.682021856308	423.0	-6.0	429	-9	1
1.7	2015_Jul_20_0914	s	s	5	1	SIC	490	ABS	2	0	24VC	0	1	0.855115175247	None	None	None	None	1
1.7	2015_Jul_20_0914	s	s	5	1	SIC	491	RC	2	1	23VO	1	0	1.01988101006	-334.0	217.0	-332	214	1
1.7	2015_Jul_20_0914	s	s	5	1	SIC	492	RC	1	0	23MC	1	0	1.03291082382	471.0	-31.0	466	-29	1
1.7	2015_Jul_20_0914	s	s	5	1	SIC	493	RC	2	2	23VD	1	0	0.535440206528	-132.0	-70.0	-136	-70	1
1.7	2015_Jul_20_0914	s	s	5	1	SIC	494	ABS	2	1	24VO	0	1	0.888606786728	None	None	None	None	1
1.7	2015_Jul_20_0914	s	s	5	1	SIC	495	ABS	0	2	24RD	0	1	5.19019985199	None	None	None	None	1
1.7	2015_Jul_20_0914	s	s	5	1	SIC	496	RC	2	0	23VC	1	0	1.08236193657	-456.0	363.0	-462	361	1
1.7	2015_Jul_20_0914	s	s	5	1	SIC	497	ABS	0	1	24RO	0	1	5.8813560009	None	None	None	None	1
1.7	2015_Jul_20_0914	s	s	5	1	SIC	498	RC	0	2	23RD	1	0	0.74781703949	-323.0	355.0	-333	353	1
1.7	2015_Jul_20_0914	s	s	5	1	SIC	499	ABS	2	1	24VO	0	1	0.820029973984	None	None	None	None	1
1.7	2015_Jul_20_0914	s	s	5	1	SIC	500	RC	2	1	23VO	1	0	0.593307971954	133.0	113.0	128	109	1
1.7	2015_Jul_20_0914	s	s	5	1	SIC	501	ABS	1	2	24MD	0	1	1.10081195831	None	None	None	None	1
1.7	2015_Jul_20_0914	s	s	5	1	SIC	502	RC	2	2	23VD	1	0	0.534509181976	-461.0	-41.0	-461	-39	1
1.7	2015_Jul_20_0914	s	s	5	1	SIC	503	ABS	2	2	24VD	0	1	0.658497095108	None	None	None	None	1
1.7	2015_Jul_20_0914	s	s	5	1	SIC	504	RC	1	1	23MO	1	0	3.10200691223	-262.0	183.0	-265	184	1
1.7	2015_Jul_20_0914	s	s	5	1	SIC	505	ABS	1	1	24MO	0	1	3.13033890724	None	None	None	None	1
1.7	2015_Jul_20_0914	s	s	5	1	SIC	506	ABS	2	0	24VC	0	1	0.877217054367	None	None	None	None	1
1.7	2015_Jul_20_0914	s	s	5	1	SIC	507	RC	2	0	23VC	1	0	0.818448066711	296.0	-225.0	302	-219	1
1.7	2015_Jul_20_0914	s	s	5	1	SIC	508	RC	1	2	23MD	1	0	0.800079107285	285.0	139.0	286	144	1
1.7	2015_Jul_20_0914	s	s	5	1	SIC	509	RC	1	0	23MC	1	0	4.86064696312	284.0	151.0	289	155	1
1.7	2015_Jul_20_0914	s	s	5	1	SIC	510	ABS	1	0	24MC	0	1	8.23914909363	None	None	None	None	1
1.7	2015_Jul_20_0914	s	s	5	1	SIC	511	RC	0	1	23RO	1	0	2.63592910767	-524.0	-193.0	-512	-190	1
1.7	2015_Jul_20_0914	s	s	5	1	SIC	512	ABS	0	2	24RD	0	1	1.39204311371	None	None	None	None	1
1.7	2015_Jul_20_0914	s	s	5	1	SIC	513	ABS	1	2	24MD	0	1	1.51284193993	None	None	None	None	1
1.7	2015_Jul_20_0914	s	s	5	1	SIC	514	ABS	2	0	24VC	0	1	0.59964799881	None	None	None	None	1
1.7	2015_Jul_20_0914	s	s	5	1	SIC	515	ABS	0	1	24RO	0	1	5.92021608353	None	None	None	None	1
1.7	2015_Jul_20_0914	s	s	5	1	SIC	516	RC	1	1	23MO	1	0	1.25392913818	273.0	143.0	270	141	1
1.7	2015_Jul_20_0914	s	s	5	1	SIC	517	ABS	2	1	24VO	0	1	0.770151853561	None	None	None	None	1
1.7	2015_Jul_20_0914	s	s	5	1	SIC	518	RC	0	1	23RO	1	0	5.53777194023	-133.0	-144.0	-126	-143	1
1.7	2015_Jul_20_0914	s	s	5	1	SIC	519	ABS	1	1	24MO	0	1	4.65551519394	None	None	None	None	1
1.7	2015_Jul_20_0914	s	s	5	1	SIC	520	RC	1	2	23MD	1	0	0.79487490654	330.0	232.0	326	231	1
1.7	2015_Jul_20_0914	s	s	5	1	SIC	521	RC	2	1	23VO	1	0	0.606491088867	-331.0	-54.0	-331	-60	1
1.7	2015_Jul_20_0914	s	s	5	1	SIC	522	ABS	0	2	24RD	0	1	1.15289211273	None	None	None	None	1
1.7	2015_Jul_20_0914	s	s	5	1	SIC	523	RC	0	2	23RD	1	0	0.58788895607	147.0	-75.0	151	-72	1
1.7	2015_Jul_20_0914	s	s	5	1	SIC	524	RC	1	0	23MC	1	0	19.9706668854	-19.0	-345.0	-19	-346	1
1.7	2015_Jul_20_0914	s	s	5	1	SIC	525	RC	2	2	23VD	1	0	0.773153066635	-512.0	-65.0	-517	-70	1
1.7	2015_Jul_20_0914	s	s	5	1	SIC	526	RC	2	0	23VC	1	0	0.658446073532	50.0	127.0	47	125	1
1.7	2015_Jul_20_0914	s	s	5	1	SIC	527	ABS	2	2	24VD	0	1	0.764424085617	None	None	None	None	1
1.7	2015_Jul_20_0914	s	s	5	1	SIC	528	ABS	1	0	24MC	0	1	9.13327717781	None	None	None	None	1
1.7	2015_Jul_20_0914	s	s	5	1	SIC	529	ABS	2	0	24VC	0	1	0.653979063034	None	None	None	None	1
1.7	2015_Jul_20_0914	s	s	5	1	SIC	530	ABS	2	2	24VD	0	1	0.517271995544	None	None	None	None	1
1.7	2015_Jul_20_0914	s	s	5	1	SIC	531	ABS	0	2	24RD	0	1	1.98860907555	None	None	None	None	1
1.7	2015_Jul_20_0914	s	s	5	1	SIC	532	ABS	1	0	24MC	0	1	1.86745095253	None	None	None	None	1
1.7	2015_Jul_20_0914	s	s	5	1	SIC	533	RC	0	2	23RD	1	0	1.8355448246	162.0	-395.0	158	-386	1
1.7	2015_Jul_20_0914	s	s	5	1	SIC	534	RC	1	1	23MO	1	0	1.64077687263	162.0	-244.0	164	-246	1
1.7	2015_Jul_20_0914	s	s	5	1	SIC	535	RC	2	0	23VC	1	0	0.690727949142	243.0	-342.0	246	-344	1
1.7	2015_Jul_20_0914	s	s	5	1	SIC	536	RC	1	2	23MD	1	0	0.835079908371	-166.0	-357.0	-167	-357	1
1.7	2015_Jul_20_0914	s	s	5	1	SIC	537	ABS	2	1	24VO	0	1	0.809380054474	None	None	None	None	1
1.7	2015_Jul_20_0914	s	s	5	1	SIC	538	RC	2	2	23VD	1	0	0.760900974274	266.0	234.0	269	243	1
1.7	2015_Jul_20_0914	s	s	5	1	SIC	539	RC	0	1	23RO	1	0	1.13589787483	-13.0	-72.0	-12	-69	1
1.7	2015_Jul_20_0914	s	s	5	1	SIC	540	RC	1	0	23MC	1	0	4.64645004272	-368.0	81.0	-369	81	1
1.7	2015_Jul_20_0914	s	s	5	1	SIC	541	ABS	1	2	24MD	0	1	4.14935493469	None	None	None	None	1
1.7	2015_Jul_20_0914	s	s	5	1	SIC	542	ABS	0	1	24RO	0	1	11.4406459332	None	None	None	None	1
1.7	2015_Jul_20_0914	s	s	5	1	SIC	543	ABS	1	1	24MO	0	1	5.86809206009	None	None	None	None	1
1.7	2015_Jul_20_0914	s	s	5	1	SIC	544	RC	2	1	23VO	1	0	0.618402957916	-211.0	37.0	-217	37	1
1.7	2015_Jul_20_0914	s	s	5	1	SIC	545	ABS	0	1	24RO	0	1	5.74343299866	None	None	None	None	1
1.7	2015_Jul_20_0914	s	s	5	1	SIC	546	RC	2	2	23VD	1	0	0.611458063126	-147.0	284.0	-146	284	1
1.7	2015_Jul_20_0914	s	s	5	1	SIC	547	RC	2	0	23VC	1	0	0.571427822113	-495.0	-63.0	-493	-67	1
1.7	2015_Jul_20_0914	s	s	5	1	SIC	548	ABS	2	2	24VD	0	1	0.846877813339	None	None	None	None	1
1.7	2015_Jul_20_0914	s	s	5	1	SIC	549	RC	0	1	23RO	1	0	2.43591690063	288.0	113.0	296	118	1
1.7	2015_Jul_20_0914	s	s	5	1	SIC	550	RC	1	0	23MC	1	0	3.93065714836	-483.0	-184.0	-489	-185	1
1.7	2015_Jul_20_0914	s	s	5	1	SIC	551	RC	1	2	23MD	1	0	0.576117038727	-123.0	408.0	-126	410	1
1.7	2015_Jul_20_0914	s	s	5	1	SIC	552	ABS	2	0	24VC	0	1	0.809007883072	None	None	None	None	1
1.7	2015_Jul_20_0914	s	s	5	1	SIC	553	ABS	1	1	24MO	0	1	2.72771191597	None	None	None	None	1
1.7	2015_Jul_20_0914	s	s	5	1	SIC	554	ABS	1	0	24MC	0	1	6.69682812691	None	None	None	None	1
1.7	2015_Jul_20_0914	s	s	5	1	SIC	555	ABS	2	1	24VO	0	1	0.688799142838	None	None	None	None	1
1.7	2015_Jul_20_0914	s	s	5	1	SIC	556	ABS	0	2	24RD	0	1	1.5686609745	None	None	None	None	1
1.7	2015_Jul_20_0914	s	s	5	1	SIC	557	ABS	1	2	24MD	0	1	0.702808141708	None	None	None	None	1
1.7	2015_Jul_20_0914	s	s	5	1	SIC	558	RC	1	1	23MO	1	0	1.23047208786	-107.0	237.0	-106	229	1
1.7	2015_Jul_20_0914	s	s	5	1	SIC	559	RC	0	2	23RD	1	0	0.882336139679	370.0	-406.0	376	-409	1
1.7	2015_Jul_20_0914	s	s	5	1	SIC	560	RC	2	1	23VO	1	0	1.14126610756	-478.0	-394.0	-476	-387	1
1.7	2015_Jul_20_0914	s	s	5	1	SIC	561	ABS	0	1	24RO	0	1	7.13237094879	None	None	None	None	1
1.7	2015_Jul_20_0914	s	s	5	1	SIC	562	RC	0	1	23RO	0	1	8.25759506226	-403.0	40.0	None	None	0
1.7	2015_Jul_20_0914	s	s	5	1	SIC	563	ABS	2	1	24VO	0	1	1.13609719276	None	None	None	None	1
1.7	2015_Jul_20_0914	s	s	5	1	SIC	564	ABS	0	2	24RD	0	1	1.03048586845	None	None	None	None	1
1.7	2015_Jul_20_0914	s	s	5	1	SIC	565	RC	1	0	23MC	1	0	3.01261210442	31.0	20.0	27	14	1
1.7	2015_Jul_20_0914	s	s	5	1	SIC	566	RC	1	1	23MO	0	1	2.13871598244	-175.0	150.0	None	None	0
1.7	2015_Jul_20_0914	s	s	5	1	SIC	567	RC	2	0	23VC	1	0	0.611451148987	64.0	-23.0	63	-25	1
1.7	2015_Jul_20_0914	s	s	5	1	SIC	568	ABS	1	2	24MD	0	1	0.776207923889	None	None	None	None	1
1.7	2015_Jul_20_0914	s	s	5	1	SIC	569	ABS	2	2	24VD	0	1	0.582966089249	None	None	None	None	1
1.7	2015_Jul_20_0914	s	s	5	1	SIC	570	RC	0	2	23RD	1	0	0.634994983673	293.0	-165.0	293	-163	1
1.7	2015_Jul_20_0914	s	s	5	1	SIC	571	ABS	2	0	24VC	0	1	1.3481760025	None	None	None	None	1
1.7	2015_Jul_20_0914	s	s	5	1	SIC	572	RC	1	2	23MD	1	0	1.18817210197	-161.0	-245.0	-162	-247	1
1.7	2015_Jul_20_0914	s	s	5	1	SIC	573	RC	2	2	23VD	1	0	0.712533950806	-473.0	376.0	-483	375	1
1.7	2015_Jul_20_0914	s	s	5	1	SIC	574	ABS	1	0	24MC	0	1	1.86853599548	None	None	None	None	1
1.7	2015_Jul_20_0914	s	s	5	1	SIC	575	RC	2	1	23VO	1	0	0.808235168457	-346.0	297.0	-346	297	1
1.7	2015_Jul_20_0914	s	s	5	1	SIC	576	ABS	1	1	24MO	0	1	1.62372088432	None	None	None	None	1
1.7	2015_Jul_20_0914	s	s	5	1	SIC	577	RC	1	0	23MC	1	0	1.34811282158	51.0	201.0	48	200	1
1.7	2015_Jul_20_0914	s	s	5	1	SIC	578	ABS	1	2	24MD	0	1	0.782380104065	None	None	None	None	1
1.7	2015_Jul_20_0914	s	s	5	1	SIC	579	RC	0	1	23RO	1	0	1.37154006958	-229.0	237.0	-235	246	1
1.7	2015_Jul_20_0914	s	s	5	1	SIC	580	ABS	1	0	24MC	0	1	2.07093715668	None	None	None	None	1
1.7	2015_Jul_20_0914	s	s	5	1	SIC	581	RC	2	2	23VD	1	0	0.582818031311	-265.0	-24.0	-259	-16	1
1.7	2015_Jul_20_0914	s	s	5	1	SIC	582	RC	0	2	23RD	1	0	0.740916013718	359.0	-218.0	352	-225	1
1.7	2015_Jul_20_0914	s	s	5	1	SIC	583	ABS	2	2	24VD	1	0	0.511676073074	None	None	7	75	0
1.7	2015_Jul_20_0914	s	s	5	1	SIC	584	ABS	0	1	24RO	0	1	5.49255299568	None	None	None	None	1
1.7	2015_Jul_20_0914	s	s	5	1	SIC	585	RC	1	1	23MO	1	0	1.67493891716	-61.0	205.0	-66	204	1
1.7	2015_Jul_20_0914	s	s	5	1	SIC	586	RC	1	2	23MD	1	0	0.870368003845	523.0	-284.0	523	-287	1
1.7	2015_Jul_20_0914	s	s	5	1	SIC	587	ABS	2	0	24VC	0	1	0.677136898041	None	None	None	None	1
1.7	2015_Jul_20_0914	s	s	5	1	SIC	588	RC	2	1	23VO	1	0	0.828826904297	-193.0	-191.0	-196	-192	1
1.7	2015_Jul_20_0914	s	s	5	1	SIC	589	ABS	2	1	24VO	0	1	1.17070794106	None	None	None	None	1
1.7	2015_Jul_20_0914	s	s	5	1	SIC	590	RC	2	0	23VC	1	0	0.832681894302	-92.0	-380.0	-94	-383	1
1.7	2015_Jul_20_0914	s	s	5	1	SIC	591	ABS	0	2	24RD	0	1	1.98290205002	None	None	None	None	1
1.7	2015_Jul_20_0914	s	s	5	1	SIC	592	ABS	1	1	24MO	0	1	1.862885952	None	None	None	None	1
