Version	Date	Stimuli	Method	Subject	Session	Condition	Trial	Target	Channel1	Channel2	Distractors	LMouseButton	RMouseButton	RT	TargetX	TargetY	ResponseX	ResponseY	Correct
1.7	2015_Jul_22_0911	s	s	5	3	Capacity	1	ABS	1	0	24MC	0	1	8.83424520493	None	None	None	None	1
1.7	2015_Jul_22_0911	s	s	5	3	Capacity	2	RC	2	0	23VC	1	0	0.856466054916	-246.0	-300.0	-232	-294	1
1.7	2015_Jul_22_0911	s	s	5	3	Capacity	3	RC	1	0	23MC	1	0	1.32612109184	207.0	-139.0	201	-140	1
1.7	2015_Jul_22_0911	s	s	5	3	Capacity	4	ABS	2	0	24VC	0	1	1.78358602524	None	None	None	None	1
1.7	2015_Jul_22_0911	s	s	5	3	Capacity	5	ABS	2	0	24VC	0	1	2.74194383621	None	None	None	None	1
1.7	2015_Jul_22_0911	s	s	5	3	Capacity	6	ABS	1	0	24MC	0	1	6.27974700928	None	None	None	None	1
1.7	2015_Jul_22_0911	s	s	5	3	Capacity	7	RC	2	0	23VC	1	0	0.846952915192	234.0	234.0	231	230	1
1.7	2015_Jul_22_0911	s	s	5	3	Capacity	8	RC	1	0	23MC	1	0	3.79656791687	107.0	-316.0	106	-318	1
1.7	2015_Jul_22_0911	s	s	5	3	Capacity	9	RC	1	0	23MC	1	0	4.59670710564	189.0	406.0	182	409	1
1.7	2015_Jul_22_0911	s	s	5	3	Capacity	10	RC	2	0	23VC	1	0	0.670309066772	-98.0	87.0	-99	88	1
1.7	2015_Jul_22_0911	s	s	5	3	Capacity	11	ABS	1	0	24MC	0	1	5.15152287483	None	None	None	None	1
1.7	2015_Jul_22_0911	s	s	5	3	Capacity	12	ABS	2	0	24VC	0	1	1.65897989273	None	None	None	None	1
1.7	2015_Jul_22_0911	s	s	5	3	Capacity	13	ABS	2	0	24VC	0	1	1.63236880302	None	None	None	None	1
1.7	2015_Jul_22_0911	s	s	5	3	Capacity	14	RC	2	0	23VC	1	0	1.10071706772	-294.0	270.0	-284	272	1
1.7	2015_Jul_22_0911	s	s	5	3	Capacity	15	ABS	1	0	24MC	0	1	4.87011885643	None	None	None	None	1
1.7	2015_Jul_22_0911	s	s	5	3	Capacity	16	RC	1	0	23MC	1	0	1.13636612892	243.0	-118.0	250	-118	1
1.7	2015_Jul_22_0911	s	s	5	3	Capacity	17	ABS	1	0	24MC	0	1	4.89584302902	None	None	None	None	1
1.7	2015_Jul_22_0911	s	s	5	3	Capacity	18	RC	2	0	23VC	1	0	0.759506940842	405.0	-324.0	401	-319	1
1.7	2015_Jul_22_0911	s	s	5	3	Capacity	19	RC	1	0	23MC	1	0	4.73778319359	-103.0	323.0	-97	325	1
1.7	2015_Jul_22_0911	s	s	5	3	Capacity	20	ABS	2	0	24VC	0	1	1.48253107071	None	None	None	None	1
1.7	2015_Jul_22_0911	s	s	5	3	Capacity	21	RC	2	0	23VC	1	0	0.832277059555	-396.0	238.0	-396	233	1
1.7	2015_Jul_22_0911	s	s	5	3	Capacity	22	ABS	1	0	24MC	0	1	4.57508420944	None	None	None	None	1
1.7	2015_Jul_22_0911	s	s	5	3	Capacity	23	ABS	2	0	24VC	0	1	1.19784808159	None	None	None	None	1
1.7	2015_Jul_22_0911	s	s	5	3	Capacity	24	RC	1	0	23MC	1	0	3.6677749157	166.0	301.0	172	302	1
1.7	2015_Jul_22_0911	s	s	5	3	Capacity	25	RC	2	0	23VC	1	0	0.64669585228	512.0	-346.0	514	-341	1
1.7	2015_Jul_22_0911	s	s	5	3	Capacity	26	ABS	2	0	24VC	0	1	1.29077720642	None	None	None	None	1
1.7	2015_Jul_22_0911	s	s	5	3	Capacity	27	ABS	1	0	24MC	0	1	4.14939403534	None	None	None	None	1
1.7	2015_Jul_22_0911	s	s	5	3	Capacity	28	RC	1	0	23MC	1	0	1.72470283508	-377.0	-88.0	-377	-90	1
1.7	2015_Jul_22_0911	s	s	5	3	Capacity	29	RC	2	0	23VC	1	0	0.653614044189	-304.0	109.0	-310	107	1
1.7	2015_Jul_22_0911	s	s	5	3	Capacity	30	ABS	1	0	24MC	0	1	3.65504789352	None	None	None	None	1
1.7	2015_Jul_22_0911	s	s	5	3	Capacity	31	ABS	2	0	24VC	0	1	1.11309885979	None	None	None	None	1
1.7	2015_Jul_22_0911	s	s	5	3	Capacity	32	RC	1	0	23MC	1	0	1.05872011185	-369.0	56.0	-368	51	1
1.7	2015_Jul_22_0911	s	s	5	3	Capacity	33	ABS	2	0	24VC	0	1	1.20845913887	None	None	None	None	1
1.7	2015_Jul_22_0911	s	s	5	3	Capacity	34	RC	1	0	23MC	1	0	1.34122300148	67.0	36.0	64	39	1
1.7	2015_Jul_22_0911	s	s	5	3	Capacity	35	ABS	1	0	24MC	0	1	4.65577602386	None	None	None	None	1
1.7	2015_Jul_22_0911	s	s	5	3	Capacity	36	RC	2	0	23VC	1	0	0.724225997925	-284.0	324.0	-284	329	1
1.7	2015_Jul_22_0911	s	s	5	3	Capacity	37	ABS	2	0	24VC	0	1	1.95334911346	None	None	None	None	1
1.7	2015_Jul_22_0911	s	s	5	3	Capacity	38	RC	2	0	23VC	1	0	0.729117870331	476.0	102.0	472	100	1
1.7	2015_Jul_22_0911	s	s	5	3	Capacity	39	ABS	1	0	24MC	0	1	5.04904294014	None	None	None	None	1
1.7	2015_Jul_22_0911	s	s	5	3	Capacity	40	RC	1	0	23MC	1	0	5.19395279884	-443.0	390.0	-443	384	1
1.7	2015_Jul_22_0911	s	s	5	3	Capacity	41	ABS	2	0	24VC	0	1	1.5884180069	None	None	None	None	1
1.7	2015_Jul_22_0911	s	s	5	3	Capacity	42	ABS	1	0	24MC	0	1	9.15691804886	None	None	None	None	1
1.7	2015_Jul_22_0911	s	s	5	3	Capacity	43	RC	1	0	23MC	1	0	1.59498715401	-328.0	-397.0	-327	-389	1
1.7	2015_Jul_22_0911	s	s	5	3	Capacity	44	RC	2	0	23VC	1	0	0.619585990906	-489.0	-16.0	-500	-13	1
1.7	2015_Jul_22_0911	s	s	5	3	Capacity	45	ABS	1	0	24MC	0	1	7.96802616119	None	None	None	None	1
1.7	2015_Jul_22_0911	s	s	5	3	Capacity	46	ABS	2	0	24VC	0	1	1.23519301414	None	None	None	None	1
1.7	2015_Jul_22_0911	s	s	5	3	Capacity	47	RC	1	0	23MC	1	0	0.811583995819	-467.0	-50.0	-467	-52	1
1.7	2015_Jul_22_0911	s	s	5	3	Capacity	48	RC	2	0	23VC	1	0	0.693807125092	516.0	-25.0	514	-22	1
1.7	2015_Jul_22_0911	s	s	5	3	Capacity	49	ABS	2	0	24VC	0	1	1.50600194931	None	None	None	None	1
1.7	2015_Jul_22_0911	s	s	5	3	Capacity	50	RC	1	0	23MC	1	0	0.794821023941	344.0	-182.0	337	-179	1
1.7	2015_Jul_22_0911	s	s	5	3	Capacity	51	ABS	1	0	24MC	0	1	3.60792708397	None	None	None	None	1
1.7	2015_Jul_22_0911	s	s	5	3	Capacity	52	RC	2	0	23VC	1	0	0.629863977432	535.0	120.0	528	122	1
1.7	2015_Jul_22_0911	s	s	5	3	Capacity	53	ABS	2	0	24VC	0	1	1.12438607216	None	None	None	None	1
1.7	2015_Jul_22_0911	s	s	5	3	Capacity	54	ABS	1	0	24MC	0	1	12.7586538792	None	None	None	None	1
1.7	2015_Jul_22_0911	s	s	5	3	Capacity	55	RC	1	0	23MC	1	0	2.93018388748	-387.0	-71.0	-381	-68	1
1.7	2015_Jul_22_0911	s	s	5	3	Capacity	56	RC	2	0	23VC	1	0	0.564800024033	-80.0	-75.0	-82	-72	1
1.7	2015_Jul_22_0911	s	s	5	3	Capacity	57	RC	2	0	23VC	1	0	0.595549821854	-488.0	-95.0	-485	-93	1
1.7	2015_Jul_22_0911	s	s	5	3	Capacity	58	ABS	1	0	24MC	0	1	3.54910087585	None	None	None	None	1
1.7	2015_Jul_22_0911	s	s	5	3	Capacity	59	ABS	2	0	24VC	0	1	1.01163697243	None	None	None	None	1
1.7	2015_Jul_22_0911	s	s	5	3	Capacity	60	RC	1	0	23MC	1	0	1.36466193199	-522.0	-27.0	-528	-25	1
1.7	2015_Jul_22_0911	s	s	5	3	Capacity	61	RC	2	0	23VC	1	0	0.658499002457	471.0	345.0	475	346	1
1.7	2015_Jul_22_0911	s	s	5	3	Capacity	62	ABS	2	0	24VC	0	1	0.924257040024	None	None	None	None	1
1.7	2015_Jul_22_0911	s	s	5	3	Capacity	63	RC	1	0	23MC	1	0	7.01126790047	-184.0	340.0	-187	338	1
1.7	2015_Jul_22_0911	s	s	5	3	Capacity	64	ABS	1	0	24MC	0	1	6.7085981369	None	None	None	None	1
1.7	2015_Jul_22_0911	s	s	5	3	Capacity	65	ABS	2	0	24VC	0	1	1.25883197784	None	None	None	None	1
1.7	2015_Jul_22_0911	s	s	5	3	Capacity	66	RC	2	0	23VC	1	0	0.677129983902	190.0	-147.0	193	-144	1
1.7	2015_Jul_22_0911	s	s	5	3	Capacity	67	RC	1	0	23MC	1	0	1.47730493546	177.0	368.0	179	367	1
1.7	2015_Jul_22_0911	s	s	5	3	Capacity	68	ABS	1	0	24MC	0	1	5.11972784996	None	None	None	None	1
1.7	2015_Jul_22_0911	s	s	5	3	Capacity	69	RC	2	0	23VC	1	0	0.693771123886	-290.0	372.0	-292	364	1
1.7	2015_Jul_22_0911	s	s	5	3	Capacity	70	ABS	1	0	24MC	0	1	8.59187102318	None	None	None	None	1
1.7	2015_Jul_22_0911	s	s	5	3	Capacity	71	RC	1	0	23MC	1	0	1.92961096764	417.0	81.0	412	80	1
1.7	2015_Jul_22_0911	s	s	5	3	Capacity	72	ABS	2	0	24VC	0	1	1.5717291832	None	None	None	None	1
1.7	2015_Jul_22_0911	s	s	5	3	Capacity	73	ABS	2	0	24VC	0	1	1.80635094643	None	None	None	None	1
1.7	2015_Jul_22_0911	s	s	5	3	Capacity	74	RC	2	0	23VC	1	0	0.71373295784	-321.0	30.0	-326	32	1
1.7	2015_Jul_22_0911	s	s	5	3	Capacity	75	RC	1	0	23MC	1	0	1.15282297134	-97.0	312.0	-95	317	1
1.7	2015_Jul_22_0911	s	s	5	3	Capacity	76	ABS	1	0	24MC	0	1	6.38580584526	None	None	None	None	1
1.7	2015_Jul_22_0911	s	s	5	3	Capacity	77	ABS	1	0	24MC	0	1	9.19205784798	None	None	None	None	1
1.7	2015_Jul_22_0911	s	s	5	3	Capacity	78	RC	1	0	23MC	1	0	2.20036196709	-539.0	-269.0	-532	-269	1
1.7	2015_Jul_22_0911	s	s	5	3	Capacity	79	RC	2	0	23VC	1	0	1.10005187988	466.0	-382.0	479	-378	1
1.7	2015_Jul_22_0911	s	s	5	3	Capacity	80	ABS	2	0	24VC	0	1	1.19500994682	None	None	None	None	1
1.7	2015_Jul_22_0911	s	s	5	3	Capacity	81	RC	2	0	23VC	1	0	1.19468784332	513.0	-156.0	509	-156	1
1.7	2015_Jul_22_0911	s	s	5	3	Capacity	82	ABS	1	0	24MC	0	1	11.2614171505	None	None	None	None	1
1.7	2015_Jul_22_0911	s	s	5	3	Capacity	83	ABS	2	0	24VC	0	1	1.19485092163	None	None	None	None	1
1.7	2015_Jul_22_0911	s	s	5	3	Capacity	84	RC	1	0	23MC	1	0	1.01158905029	538.0	-1.0	531	-1	1
1.7	2015_Jul_22_0911	s	s	5	3	Capacity	85	RC	2	0	23VC	1	0	0.73840212822	276.0	-153.0	276	-147	1
1.7	2015_Jul_22_0911	s	s	5	3	Capacity	86	RC	1	0	23MC	1	0	1.12704896927	512.0	171.0	512	171	1
1.7	2015_Jul_22_0911	s	s	5	3	Capacity	87	ABS	1	0	24MC	0	1	2.73686480522	None	None	None	None	1
1.7	2015_Jul_22_0911	s	s	5	3	Capacity	88	ABS	2	0	24VC	0	1	0.852608919144	None	None	None	None	1
1.7	2015_Jul_22_0911	s	s	5	3	Capacity	89	RC	2	0	23VC	1	0	0.705811977386	-161.0	-290.0	-164	-291	1
1.7	2015_Jul_22_0911	s	s	5	3	Capacity	90	ABS	2	0	24VC	0	1	0.770911931992	None	None	None	None	1
1.7	2015_Jul_22_0911	s	s	5	3	Capacity	91	RC	1	0	23MC	1	0	2.68985104561	483.0	282.0	486	287	1
1.7	2015_Jul_22_0911	s	s	5	3	Capacity	92	ABS	1	0	24MC	0	1	2.99296307564	None	None	None	None	1
1.7	2015_Jul_22_0911	s	s	5	3	Capacity	1	ABS	0	1	24RO	0	1	8.26222300529	None	None	None	None	1
1.7	2015_Jul_22_0911	s	s	5	3	Capacity	2	RC	0	2	23RD	1	0	0.711982011795	-71.0	-310.0	-70	-306	1
1.7	2015_Jul_22_0911	s	s	5	3	Capacity	3	ABS	0	2	24RD	0	1	1.19994497299	None	None	None	None	1
1.7	2015_Jul_22_0911	s	s	5	3	Capacity	4	RC	0	1	23RO	1	0	1.51774597168	201.0	-189.0	213	-188	1
1.7	2015_Jul_22_0911	s	s	5	3	Capacity	5	ABS	0	2	24RD	0	1	1.00834512711	None	None	None	None	1
1.7	2015_Jul_22_0911	s	s	5	3	Capacity	6	RC	0	1	23RO	1	0	2.64786887169	363.0	-26.0	367	-23	1
1.7	2015_Jul_22_0911	s	s	5	3	Capacity	7	ABS	0	1	24RO	0	1	5.75512313843	None	None	None	None	1
1.7	2015_Jul_22_0911	s	s	5	3	Capacity	8	RC	0	2	23RD	1	0	0.688628911972	-256.0	362.0	-258	363	1
1.7	2015_Jul_22_0911	s	s	5	3	Capacity	9	ABS	0	1	24RO	0	1	7.49455285072	None	None	None	None	1
1.7	2015_Jul_22_0911	s	s	5	3	Capacity	10	RC	0	2	23RD	1	0	0.564327001572	-120.0	63.0	-126	63	1
1.7	2015_Jul_22_0911	s	s	5	3	Capacity	11	RC	0	1	23RO	1	0	4.06683897972	-465.0	-400.0	-474	-397	1
1.7	2015_Jul_22_0911	s	s	5	3	Capacity	12	ABS	0	2	24RD	0	1	1.38841104507	None	None	None	None	1
1.7	2015_Jul_22_0911	s	s	5	3	Capacity	13	RC	0	1	23RO	1	0	3.907143116	511.0	-193.0	514	-190	1
1.7	2015_Jul_22_0911	s	s	5	3	Capacity	14	RC	0	2	23RD	1	0	0.558068037033	25.0	220.0	24	216	1
1.7	2015_Jul_22_0911	s	s	5	3	Capacity	15	ABS	0	2	24RD	0	1	1.27066206932	None	None	None	None	1
1.7	2015_Jul_22_0911	s	s	5	3	Capacity	16	ABS	0	1	24RO	0	1	6.3436729908	None	None	None	None	1
1.7	2015_Jul_22_0911	s	s	5	3	Capacity	17	ABS	0	2	24RD	0	1	1.15334320068	None	None	None	None	1
1.7	2015_Jul_22_0911	s	s	5	3	Capacity	18	RC	0	2	23RD	1	0	0.603426933289	-183.0	289.0	-183	282	1
1.7	2015_Jul_22_0911	s	s	5	3	Capacity	19	ABS	0	1	24RO	0	1	5.39726090431	None	None	None	None	1
1.7	2015_Jul_22_0911	s	s	5	3	Capacity	20	RC	0	1	23RO	1	0	1.51776003838	287.0	-322.0	292	-316	1
1.7	2015_Jul_22_0911	s	s	5	3	Capacity	21	ABS	0	2	24RD	0	1	1.31239199638	None	None	None	None	1
1.7	2015_Jul_22_0911	s	s	5	3	Capacity	22	ABS	0	1	24RO	0	1	4.76688408852	None	None	None	None	1
1.7	2015_Jul_22_0911	s	s	5	3	Capacity	23	RC	0	2	23RD	1	0	0.651168823242	-87.0	-154.0	-86	-145	1
1.7	2015_Jul_22_0911	s	s	5	3	Capacity	24	RC	0	1	23RO	1	0	5.36669898033	-511.0	83.0	-509	80	1
1.7	2015_Jul_22_0911	s	s	5	3	Capacity	25	RC	0	1	23RO	1	0	7.07351303101	-326.0	399.0	-332	404	1
1.7	2015_Jul_22_0911	s	s	5	3	Capacity	26	ABS	0	1	24RO	0	1	6.92044115067	None	None	None	None	1
1.7	2015_Jul_22_0911	s	s	5	3	Capacity	27	RC	0	2	23RD	1	0	0.853628873825	299.0	347.0	299	345	1
1.7	2015_Jul_22_0911	s	s	5	3	Capacity	28	ABS	0	2	24RD	0	1	2.22397994995	None	None	None	None	1
1.7	2015_Jul_22_0911	s	s	5	3	Capacity	29	ABS	0	2	24RD	0	1	1.12944793701	None	None	None	None	1
1.7	2015_Jul_22_0911	s	s	5	3	Capacity	30	ABS	0	1	24RO	0	1	8.17991709709	None	None	None	None	1
1.7	2015_Jul_22_0911	s	s	5	3	Capacity	31	RC	0	2	23RD	1	0	1.74135494232	-106.0	-266.0	-104	-269	1
1.7	2015_Jul_22_0911	s	s	5	3	Capacity	32	RC	0	1	23RO	1	0	3.65494799614	-304.0	167.0	-304	172	1
1.7	2015_Jul_22_0911	s	s	5	3	Capacity	33	RC	0	2	23RD	1	0	0.552592039108	-186.0	128.0	-175	133	1
1.7	2015_Jul_22_0911	s	s	5	3	Capacity	34	ABS	0	2	24RD	0	1	1.50121712685	None	None	None	None	1
1.7	2015_Jul_22_0911	s	s	5	3	Capacity	35	ABS	0	1	24RO	0	1	6.86148095131	None	None	None	None	1
1.7	2015_Jul_22_0911	s	s	5	3	Capacity	36	RC	0	1	23RO	1	0	3.07812809944	130.0	332.0	124	336	1
1.7	2015_Jul_22_0911	s	s	5	3	Capacity	37	RC	0	1	23RO	1	0	1.20912194252	-523.0	-119.0	-523	-119	1
1.7	2015_Jul_22_0911	s	s	5	3	Capacity	38	ABS	0	1	24RO	0	1	6.63797616959	None	None	None	None	1
1.7	2015_Jul_22_0911	s	s	5	3	Capacity	39	RC	0	2	23RD	1	0	0.627616167068	-390.0	-53.0	-394	-46	1
1.7	2015_Jul_22_0911	s	s	5	3	Capacity	40	ABS	0	2	24RD	0	1	1.32943296432	None	None	None	None	1
1.7	2015_Jul_22_0911	s	s	5	3	Capacity	41	RC	0	2	23RD	1	0	0.60645198822	522.0	-11.0	514	-12	1
1.7	2015_Jul_22_0911	s	s	5	3	Capacity	42	RC	0	1	23RO	1	0	2.17337584496	-442.0	198.0	-440	204	1
1.7	2015_Jul_22_0911	s	s	5	3	Capacity	43	ABS	0	1	24RO	0	1	5.38532114029	None	None	None	None	1
1.7	2015_Jul_22_0911	s	s	5	3	Capacity	44	ABS	0	2	24RD	0	1	1.68248796463	None	None	None	None	1
1.7	2015_Jul_22_0911	s	s	5	3	Capacity	45	RC	0	2	23RD	1	0	0.641389846802	-95.0	141.0	-97	132	1
1.7	2015_Jul_22_0911	s	s	5	3	Capacity	46	ABS	0	1	24RO	0	1	4.94293284416	None	None	None	None	1
1.7	2015_Jul_22_0911	s	s	5	3	Capacity	47	RC	0	1	23RO	1	0	2.74194312096	-108.0	-227.0	-110	-228	1
1.7	2015_Jul_22_0911	s	s	5	3	Capacity	48	ABS	0	2	24RD	0	1	0.964482069016	None	None	None	None	1
1.7	2015_Jul_22_0911	s	s	5	3	Capacity	49	ABS	0	1	24RO	0	1	6.13884902	None	None	None	None	1
1.7	2015_Jul_22_0911	s	s	5	3	Capacity	50	ABS	0	2	24RD	0	1	0.97110915184	None	None	None	None	1
1.7	2015_Jul_22_0911	s	s	5	3	Capacity	51	RC	0	2	23RD	1	0	0.878528118134	513.0	-325.0	505	-326	1
1.7	2015_Jul_22_0911	s	s	5	3	Capacity	52	RC	0	1	23RO	1	0	1.33604502678	21.0	191.0	20	197	1
1.7	2015_Jul_22_0911	s	s	5	3	Capacity	53	RC	0	2	23RD	1	0	0.689192056656	304.0	316.0	307	314	1
1.7	2015_Jul_22_0911	s	s	5	3	Capacity	54	ABS	0	2	24RD	0	1	0.959682941437	None	None	None	None	1
1.7	2015_Jul_22_0911	s	s	5	3	Capacity	55	RC	0	1	23RO	1	0	1.17157101631	-243.0	-281.0	-244	-284	1
1.7	2015_Jul_22_0911	s	s	5	3	Capacity	56	ABS	0	1	24RO	1	0	1.53632807732	None	None	421	-31	0
1.7	2015_Jul_22_0911	s	s	5	3	Capacity	57	RC	0	1	23RO	1	0	2.79260706902	-161.0	-277.0	-153	-276	1
1.7	2015_Jul_22_0911	s	s	5	3	Capacity	58	RC	0	2	23RD	1	0	1.07045698166	111.0	-373.0	109	-380	1
1.7	2015_Jul_22_0911	s	s	5	3	Capacity	59	ABS	0	2	24RD	0	1	1.48919892311	None	None	None	None	1
1.7	2015_Jul_22_0911	s	s	5	3	Capacity	60	ABS	0	1	24RO	0	1	8.04502797127	None	None	None	None	1
1.7	2015_Jul_22_0911	s	s	5	3	Capacity	61	ABS	0	2	24RD	0	1	1.2892639637	None	None	None	None	1
1.7	2015_Jul_22_0911	s	s	5	3	Capacity	62	RC	0	1	23RO	1	0	4.81354379654	404.0	270.0	407	276	1
1.7	2015_Jul_22_0911	s	s	5	3	Capacity	63	ABS	0	1	24RO	0	1	6.70357894897	None	None	None	None	1
1.7	2015_Jul_22_0911	s	s	5	3	Capacity	64	RC	0	2	23RD	1	0	0.723333120346	-107.0	-355.0	-108	-352	1
1.7	2015_Jul_22_0911	s	s	5	3	Capacity	65	ABS	0	1	24RO	0	1	5.96420884132	None	None	None	None	1
1.7	2015_Jul_22_0911	s	s	5	3	Capacity	66	ABS	0	2	24RD	0	1	1.06593298912	None	None	None	None	1
1.7	2015_Jul_22_0911	s	s	5	3	Capacity	67	RC	0	2	23RD	1	0	0.732993125916	397.0	275.0	400	277	1
1.7	2015_Jul_22_0911	s	s	5	3	Capacity	68	RC	0	1	23RO	1	0	0.841691017151	-384.0	-44.0	-381	-42	1
1.7	2015_Jul_22_0911	s	s	5	3	Capacity	69	ABS	0	1	24RO	0	1	5.27949213982	None	None	None	None	1
1.7	2015_Jul_22_0911	s	s	5	3	Capacity	70	RC	0	1	23RO	1	0	1.17648911476	-370.0	-135.0	-375	-132	1
1.7	2015_Jul_22_0911	s	s	5	3	Capacity	71	ABS	0	2	24RD	0	1	1.27754187584	None	None	None	None	1
1.7	2015_Jul_22_0911	s	s	5	3	Capacity	72	RC	0	2	23RD	1	0	0.670240163803	501.0	-223.0	503	-222	1
1.7	2015_Jul_22_0911	s	s	5	3	Capacity	73	ABS	0	2	24RD	0	1	0.903095006943	None	None	None	None	1
1.7	2015_Jul_22_0911	s	s	5	3	Capacity	74	ABS	0	1	24RO	0	1	6.02102613449	None	None	None	None	1
1.7	2015_Jul_22_0911	s	s	5	3	Capacity	75	RC	0	2	23RD	1	0	1.03016400337	-433.0	358.0	-432	348	1
1.7	2015_Jul_22_0911	s	s	5	3	Capacity	76	RC	0	1	23RO	0	1	6.23288798332	-132.0	-263.0	None	None	0
1.7	2015_Jul_22_0911	s	s	5	3	Capacity	77	RC	0	1	23RO	1	0	1.52457094193	-387.0	184.0	-378	186	1
1.7	2015_Jul_22_0911	s	s	5	3	Capacity	78	RC	0	2	23RD	1	0	0.876657009125	-531.0	-126.0	-530	-121	1
1.7	2015_Jul_22_0911	s	s	5	3	Capacity	79	ABS	0	1	24RO	0	1	5.42059707642	None	None	None	None	1
1.7	2015_Jul_22_0911	s	s	5	3	Capacity	80	ABS	0	2	24RD	0	1	2.3842420578	None	None	None	None	1
1.7	2015_Jul_22_0911	s	s	5	3	Capacity	81	ABS	0	1	24RO	0	1	6.69683003426	None	None	None	None	1
1.7	2015_Jul_22_0911	s	s	5	3	Capacity	82	RC	0	2	23RD	1	0	0.787966012955	152.0	265.0	153	264	1
1.7	2015_Jul_22_0911	s	s	5	3	Capacity	83	RC	0	1	23RO	1	0	2.98909592628	224.0	-169.0	226	-166	1
1.7	2015_Jul_22_0911	s	s	5	3	Capacity	84	ABS	0	2	24RD	0	1	2.41244006157	None	None	None	None	1
1.7	2015_Jul_22_0911	s	s	5	3	Capacity	85	ABS	0	2	24RD	0	1	0.799754858017	None	None	None	None	1
1.7	2015_Jul_22_0911	s	s	5	3	Capacity	86	RC	0	2	23RD	1	0	0.611531019211	-373.0	239.0	-375	236	1
1.7	2015_Jul_22_0911	s	s	5	3	Capacity	87	RC	0	1	23RO	1	0	1.44460010529	-173.0	-111.0	-180	-113	1
1.7	2015_Jul_22_0911	s	s	5	3	Capacity	88	ABS	0	1	24RO	0	1	8.41532611847	None	None	None	None	1
1.7	2015_Jul_22_0911	s	s	5	3	Capacity	89	RC	0	2	23RD	1	0	0.688982963562	332.0	152.0	324	147	1
1.7	2015_Jul_22_0911	s	s	5	3	Capacity	90	ABS	0	1	24RO	0	1	6.11376690865	None	None	None	None	1
1.7	2015_Jul_22_0911	s	s	5	3	Capacity	91	RC	0	1	23RO	1	0	4.99004197121	104.0	379.0	106	385	1
1.7	2015_Jul_22_0911	s	s	5	3	Capacity	92	ABS	0	2	24RD	0	1	1.07657909393	None	None	None	None	1
1.7	2015_Jul_22_0911	s	s	5	3	SIC	1	ABS	2	1	24VO	0	1	1.18375611305	None	None	None	None	1
1.7	2015_Jul_22_0911	s	s	5	3	SIC	2	RC	0	2	23RD	1	0	1.29415202141	-82.0	329.0	-81	332	1
1.7	2015_Jul_22_0911	s	s	5	3	SIC	3	ABS	2	0	24VC	0	1	0.888581991196	None	None	None	None	1
1.7	2015_Jul_22_0911	s	s	5	3	SIC	4	ABS	1	2	24MD	0	1	0.877236843109	None	None	None	None	1
1.7	2015_Jul_22_0911	s	s	5	3	SIC	5	ABS	0	2	24RD	0	1	1.54894089699	None	None	None	None	1
1.7	2015_Jul_22_0911	s	s	5	3	SIC	6	ABS	1	1	24MO	0	1	2.72549510002	None	None	None	None	1
1.7	2015_Jul_22_0911	s	s	5	3	SIC	7	RC	1	0	23MC	1	0	1.94159412384	-83.0	-17.0	-76	-17	1
1.7	2015_Jul_22_0911	s	s	5	3	SIC	8	RC	0	1	23RO	1	0	4.97366094589	-409.0	-327.0	-404	-335	1
1.7	2015_Jul_22_0911	s	s	5	3	SIC	9	RC	2	2	23VD	1	0	0.630187988281	-25.0	283.0	-22	284	1
1.7	2015_Jul_22_0911	s	s	5	3	SIC	10	RC	1	2	23MD	1	0	0.75882101059	-517.0	-322.0	-519	-320	1
1.7	2015_Jul_22_0911	s	s	5	3	SIC	11	RC	2	0	23VC	1	0	0.764465093613	-47.0	-272.0	-52	-273	1
1.7	2015_Jul_22_0911	s	s	5	3	SIC	12	ABS	2	2	24VD	0	1	0.759257078171	None	None	None	None	1
1.7	2015_Jul_22_0911	s	s	5	3	SIC	13	RC	2	1	23VO	1	0	0.690233945847	-281.0	404.0	-275	412	1
1.7	2015_Jul_22_0911	s	s	5	3	SIC	14	ABS	1	0	24MC	0	1	6.39774703979	None	None	None	None	1
1.7	2015_Jul_22_0911	s	s	5	3	SIC	15	RC	1	1	23MO	1	0	1.19528889656	-503.0	-324.0	-500	-327	1
1.7	2015_Jul_22_0911	s	s	5	3	SIC	16	ABS	0	1	24RO	0	1	7.48057103157	None	None	None	None	1
1.7	2015_Jul_22_0911	s	s	5	3	SIC	17	RC	2	0	23VC	1	0	0.752553939819	387.0	411.0	396	407	1
1.7	2015_Jul_22_0911	s	s	5	3	SIC	18	ABS	1	0	24MC	0	1	8.4506278038	None	None	None	None	1
1.7	2015_Jul_22_0911	s	s	5	3	SIC	19	RC	1	2	23MD	1	0	0.677152872086	-65.0	-251.0	-70	-252	1
1.7	2015_Jul_22_0911	s	s	5	3	SIC	20	ABS	1	2	24MD	0	1	1.26574993134	None	None	None	None	1
1.7	2015_Jul_22_0911	s	s	5	3	SIC	21	RC	2	1	23VO	1	0	0.959542036057	-520.0	410.0	-516	410	1
1.7	2015_Jul_22_0911	s	s	5	3	SIC	22	ABS	2	2	24VD	0	1	0.689125061035	None	None	None	None	1
1.7	2015_Jul_22_0911	s	s	5	3	SIC	23	RC	1	1	23MO	1	0	1.24708199501	291.0	186.0	295	182	1
1.7	2015_Jul_22_0911	s	s	5	3	SIC	24	ABS	1	1	24MO	0	1	2.72467803955	None	None	None	None	1
1.7	2015_Jul_22_0911	s	s	5	3	SIC	25	RC	0	2	23RD	1	0	0.725744009018	202.0	-245.0	206	-242	1
1.7	2015_Jul_22_0911	s	s	5	3	SIC	26	ABS	0	2	24RD	0	1	1.10322093964	None	None	None	None	1
1.7	2015_Jul_22_0911	s	s	5	3	SIC	27	ABS	2	0	24VC	0	1	1.64241909981	None	None	None	None	1
1.7	2015_Jul_22_0911	s	s	5	3	SIC	28	RC	2	2	23VD	1	0	0.740890026093	500.0	240.0	509	236	1
1.7	2015_Jul_22_0911	s	s	5	3	SIC	29	RC	0	1	23RO	1	0	2.18297576904	-318.0	138.0	-319	147	1
1.7	2015_Jul_22_0911	s	s	5	3	SIC	30	ABS	2	1	24VO	0	1	0.818261146545	None	None	None	None	1
1.7	2015_Jul_22_0911	s	s	5	3	SIC	31	ABS	0	1	24RO	0	1	6.79615879059	None	None	None	None	1
1.7	2015_Jul_22_0911	s	s	5	3	SIC	32	RC	1	0	23MC	1	0	7.12044906616	346.0	160.0	337	159	1
1.7	2015_Jul_22_0911	s	s	5	3	SIC	33	RC	1	2	23MD	1	0	0.729101896286	-394.0	395.0	-392	397	1
1.7	2015_Jul_22_0911	s	s	5	3	SIC	34	ABS	1	2	24MD	0	1	1.23261809349	None	None	None	None	1
1.7	2015_Jul_22_0911	s	s	5	3	SIC	35	RC	1	0	23MC	1	0	1.94142413139	-285.0	-280.0	-283	-291	1
1.7	2015_Jul_22_0911	s	s	5	3	SIC	36	ABS	1	0	24MC	0	1	6.30309486389	None	None	None	None	1
1.7	2015_Jul_22_0911	s	s	5	3	SIC	37	ABS	2	0	24VC	0	1	1.64730501175	None	None	None	None	1
1.7	2015_Jul_22_0911	s	s	5	3	SIC	38	ABS	2	1	24VO	0	1	0.912338018417	None	None	None	None	1
1.7	2015_Jul_22_0911	s	s	5	3	SIC	39	RC	2	0	23VC	1	0	0.71736907959	-123.0	-267.0	-118	-263	1
1.7	2015_Jul_22_0911	s	s	5	3	SIC	40	RC	1	1	23MO	1	0	2.37228083611	-501.0	304.0	-495	304	1
1.7	2015_Jul_22_0911	s	s	5	3	SIC	41	RC	0	2	23RD	1	0	0.84206700325	310.0	395.0	314	396	1
1.7	2015_Jul_22_0911	s	s	5	3	SIC	42	RC	2	1	23VO	1	0	0.764486789703	363.0	-249.0	360	-242	1
1.7	2015_Jul_22_0911	s	s	5	3	SIC	43	ABS	1	1	24MO	0	1	3.65465712547	None	None	None	None	1
1.7	2015_Jul_22_0911	s	s	5	3	SIC	44	RC	2	2	23VD	1	0	0.57605099678	65.0	164.0	66	170	1
1.7	2015_Jul_22_0911	s	s	5	3	SIC	45	ABS	0	2	24RD	0	1	2.27921700478	None	None	None	None	1
1.7	2015_Jul_22_0911	s	s	5	3	SIC	46	RC	0	1	23RO	1	0	2.7658469677	-203.0	-103.0	-201	-103	1
1.7	2015_Jul_22_0911	s	s	5	3	SIC	47	ABS	2	2	24VD	0	1	0.818336009979	None	None	None	None	1
1.7	2015_Jul_22_0911	s	s	5	3	SIC	48	ABS	0	1	24RO	0	1	6.45341706276	None	None	None	None	1
1.7	2015_Jul_22_0911	s	s	5	3	SIC	49	RC	1	1	23MO	1	0	1.38833189011	-344.0	-193.0	-344	-184	1
1.7	2015_Jul_22_0911	s	s	5	3	SIC	50	RC	2	0	23VC	1	0	0.596287965775	-471.0	-410.0	-475	-402	1
1.7	2015_Jul_22_0911	s	s	5	3	SIC	51	ABS	1	0	24MC	0	1	5.58236503601	None	None	None	None	1
1.7	2015_Jul_22_0911	s	s	5	3	SIC	52	RC	0	2	23RD	1	0	0.630393981934	58.0	-60.0	62	-63	1
1.7	2015_Jul_22_0911	s	s	5	3	SIC	53	RC	0	1	23RO	1	0	1.58346796036	-510.0	-182.0	-511	-184	1
1.7	2015_Jul_22_0911	s	s	5	3	SIC	54	ABS	0	1	24RO	0	1	5.56178689003	None	None	None	None	1
1.7	2015_Jul_22_0911	s	s	5	3	SIC	55	RC	2	2	23VD	1	0	0.606636047363	335.0	-405.0	337	-396	1
1.7	2015_Jul_22_0911	s	s	5	3	SIC	56	RC	1	0	23MC	1	0	7.34419393539	-75.0	-325.0	-69	-324	1
1.7	2015_Jul_22_0911	s	s	5	3	SIC	57	ABS	0	2	24RD	0	1	1.12929010391	None	None	None	None	1
1.7	2015_Jul_22_0911	s	s	5	3	SIC	58	ABS	1	1	24MO	0	1	3.37753200531	None	None	None	None	1
1.7	2015_Jul_22_0911	s	s	5	3	SIC	59	RC	1	2	23MD	1	0	0.747833967209	418.0	-335.0	421	-334	1
1.7	2015_Jul_22_0911	s	s	5	3	SIC	60	ABS	2	0	24VC	0	1	0.783317089081	None	None	None	None	1
1.7	2015_Jul_22_0911	s	s	5	3	SIC	61	RC	2	1	23VO	1	0	0.693976163864	178.0	-146.0	184	-142	1
1.7	2015_Jul_22_0911	s	s	5	3	SIC	62	ABS	1	2	24MD	0	1	1.62371516228	None	None	None	None	1
1.7	2015_Jul_22_0911	s	s	5	3	SIC	63	ABS	2	1	24VO	0	1	0.829252958298	None	None	None	None	1
1.7	2015_Jul_22_0911	s	s	5	3	SIC	64	ABS	2	2	24VD	0	1	0.787976980209	None	None	None	None	1
1.7	2015_Jul_22_0911	s	s	5	3	SIC	65	ABS	1	2	24MD	0	1	1.90620493889	None	None	None	None	1
1.7	2015_Jul_22_0911	s	s	5	3	SIC	66	ABS	2	2	24VD	0	1	0.788046836853	None	None	None	None	1
1.7	2015_Jul_22_0911	s	s	5	3	SIC	67	RC	0	2	23RD	1	0	0.747514009476	-288.0	74.0	-295	68	1
1.7	2015_Jul_22_0911	s	s	5	3	SIC	68	ABS	1	0	24MC	0	1	4.82532405853	None	None	None	None	1
1.7	2015_Jul_22_0911	s	s	5	3	SIC	69	ABS	1	1	24MO	0	1	2.56254386902	None	None	None	None	1
1.7	2015_Jul_22_0911	s	s	5	3	SIC	70	RC	1	0	23MC	1	0	1.30106186867	37.0	245.0	34	246	1
1.7	2015_Jul_22_0911	s	s	5	3	SIC	71	ABS	0	1	24RO	0	1	6.33829593658	None	None	None	None	1
1.7	2015_Jul_22_0911	s	s	5	3	SIC	72	RC	2	1	23VO	1	0	0.629723072052	-358.0	345.0	-359	345	1
1.7	2015_Jul_22_0911	s	s	5	3	SIC	73	RC	0	1	23RO	1	0	4.45551919937	214.0	376.0	210	378	1
1.7	2015_Jul_22_0911	s	s	5	3	SIC	74	ABS	2	0	24VC	0	1	0.783046007156	None	None	None	None	1
1.7	2015_Jul_22_0911	s	s	5	3	SIC	75	RC	2	0	23VC	1	0	0.646759033203	519.0	-42.0	520	-42	1
1.7	2015_Jul_22_0911	s	s	5	3	SIC	76	RC	1	1	23MO	1	0	0.900835990906	-333.0	-248.0	-339	-248	1
1.7	2015_Jul_22_0911	s	s	5	3	SIC	77	ABS	0	2	24RD	0	1	1.68955492973	None	None	None	None	1
1.7	2015_Jul_22_0911	s	s	5	3	SIC	78	ABS	2	1	24VO	0	1	1.71295118332	None	None	None	None	1
1.7	2015_Jul_22_0911	s	s	5	3	SIC	79	RC	1	2	23MD	1	0	0.835273981094	437.0	-330.0	432	-332	1
1.7	2015_Jul_22_0911	s	s	5	3	SIC	80	RC	2	2	23VD	1	0	0.800123929977	-337.0	-330.0	-336	-332	1
1.7	2015_Jul_22_0911	s	s	5	3	SIC	81	ABS	2	2	24VD	0	1	0.653750896454	None	None	None	None	1
1.7	2015_Jul_22_0911	s	s	5	3	SIC	82	ABS	0	2	24RD	0	1	2.63128709793	None	None	None	None	1
1.7	2015_Jul_22_0911	s	s	5	3	SIC	83	ABS	2	1	24VO	0	1	0.9682970047	None	None	None	None	1
1.7	2015_Jul_22_0911	s	s	5	3	SIC	84	ABS	0	1	24RO	0	1	5.99733519554	None	None	None	None	1
1.7	2015_Jul_22_0911	s	s	5	3	SIC	85	ABS	1	2	24MD	0	1	0.771333932877	None	None	None	None	1
1.7	2015_Jul_22_0911	s	s	5	3	SIC	86	ABS	2	0	24VC	0	1	1.20000600815	None	None	None	None	1
1.7	2015_Jul_22_0911	s	s	5	3	SIC	87	RC	1	0	23MC	1	0	5.7621409893	-104.0	-258.0	-103	-258	1
1.7	2015_Jul_22_0911	s	s	5	3	SIC	88	ABS	1	0	24MC	0	1	5.1617000103	None	None	None	None	1
1.7	2015_Jul_22_0911	s	s	5	3	SIC	89	RC	2	2	23VD	1	0	0.617660045624	87.0	-337.0	85	-333	1
1.7	2015_Jul_22_0911	s	s	5	3	SIC	90	RC	1	2	23MD	1	0	0.819319009781	-166.0	-383.0	-162	-378	1
1.7	2015_Jul_22_0911	s	s	5	3	SIC	91	RC	2	1	23VO	1	0	0.582952976227	-4.0	253.0	-9	262	1
1.7	2015_Jul_22_0911	s	s	5	3	SIC	92	RC	2	0	23VC	1	0	0.634981870651	431.0	-341.0	431	-347	1
1.7	2015_Jul_22_0911	s	s	5	3	SIC	93	RC	0	1	23RO	1	0	2.98891782761	143.0	-321.0	148	-323	1
1.7	2015_Jul_22_0911	s	s	5	3	SIC	94	ABS	1	1	24MO	0	1	2.5484919548	None	None	None	None	1
1.7	2015_Jul_22_0911	s	s	5	3	SIC	95	RC	1	1	23MO	1	0	1.10406589508	239.0	-386.0	244	-395	1
1.7	2015_Jul_22_0911	s	s	5	3	SIC	96	RC	0	2	23RD	1	0	0.748188972473	300.0	-300.0	304	-296	1
1.7	2015_Jul_22_0911	s	s	5	3	SIC	97	ABS	1	1	24MO	0	1	2.17189288139	None	None	None	None	1
1.7	2015_Jul_22_0911	s	s	5	3	SIC	98	RC	0	1	23RO	1	0	4.56122803688	-424.0	-29.0	-430	-29	1
1.7	2015_Jul_22_0911	s	s	5	3	SIC	99	ABS	0	2	24RD	0	1	1.29184293747	None	None	None	None	1
1.7	2015_Jul_22_0911	s	s	5	3	SIC	100	RC	1	1	23MO	1	0	0.721113920212	113.0	-69.0	113	-66	1
1.7	2015_Jul_22_0911	s	s	5	3	SIC	101	ABS	2	2	24VD	0	1	0.782886981964	None	None	None	None	1
1.7	2015_Jul_22_0911	s	s	5	3	SIC	102	ABS	1	0	24MC	0	1	4.77568006516	None	None	None	None	1
1.7	2015_Jul_22_0911	s	s	5	3	SIC	103	RC	2	2	23VD	1	0	0.524157047272	38.0	-254.0	45	-257	1
1.7	2015_Jul_22_0911	s	s	5	3	SIC	104	ABS	1	2	24MD	0	1	0.799798965454	None	None	None	None	1
1.7	2015_Jul_22_0911	s	s	5	3	SIC	105	RC	0	2	23RD	1	0	0.547991037369	44.0	319.0	45	313	1
1.7	2015_Jul_22_0911	s	s	5	3	SIC	106	RC	2	0	23VC	1	0	0.559235095978	-402.0	-80.0	-393	-81	1
1.7	2015_Jul_22_0911	s	s	5	3	SIC	107	RC	1	2	23MD	1	0	0.585215091705	-510.0	-80.0	-507	-79	1
1.7	2015_Jul_22_0911	s	s	5	3	SIC	108	RC	2	1	23VO	1	0	0.500552892685	-167.0	-187.0	-154	-182	1
1.7	2015_Jul_22_0911	s	s	5	3	SIC	109	ABS	2	1	24VO	0	1	0.806504011154	None	None	None	None	1
1.7	2015_Jul_22_0911	s	s	5	3	SIC	110	ABS	2	0	24VC	0	1	0.694296121597	None	None	None	None	1
1.7	2015_Jul_22_0911	s	s	5	3	SIC	111	ABS	0	1	24RO	0	1	4.78736591339	None	None	None	None	1
1.7	2015_Jul_22_0911	s	s	5	3	SIC	112	RC	1	0	23MC	1	0	5.08804988861	-376.0	48.0	-377	45	1
1.7	2015_Jul_22_0911	s	s	5	3	SIC	113	RC	2	2	23VD	1	0	0.552603960037	-209.0	-87.0	-211	-78	1
1.7	2015_Jul_22_0911	s	s	5	3	SIC	114	ABS	0	1	24RO	0	1	7.80326199532	None	None	None	None	1
1.7	2015_Jul_22_0911	s	s	5	3	SIC	115	ABS	2	0	24VC	0	1	1.05150699615	None	None	None	None	1
1.7	2015_Jul_22_0911	s	s	5	3	SIC	116	RC	0	2	23RD	1	0	0.999868869781	-178.0	63.0	-177	59	1
1.7	2015_Jul_22_0911	s	s	5	3	SIC	117	RC	1	0	23MC	1	0	2.69176387787	-111.0	207.0	-109	204	1
1.7	2015_Jul_22_0911	s	s	5	3	SIC	118	ABS	1	2	24MD	0	1	1.03035402298	None	None	None	None	1
1.7	2015_Jul_22_0911	s	s	5	3	SIC	119	ABS	2	1	24VO	0	1	1.11357307434	None	None	None	None	1
1.7	2015_Jul_22_0911	s	s	5	3	SIC	120	ABS	1	0	24MC	0	1	4.83203601837	None	None	None	None	1
1.7	2015_Jul_22_0911	s	s	5	3	SIC	121	RC	1	2	23MD	1	0	0.799782037735	117.0	264.0	111	262	1
1.7	2015_Jul_22_0911	s	s	5	3	SIC	122	RC	0	1	23RO	1	0	3.84582591057	385.0	-127.0	384	-126	1
1.7	2015_Jul_22_0911	s	s	5	3	SIC	123	ABS	1	1	24MO	0	1	3.64331698418	None	None	None	None	1
1.7	2015_Jul_22_0911	s	s	5	3	SIC	124	ABS	0	2	24RD	0	1	2.05923390388	None	None	None	None	1
1.7	2015_Jul_22_0911	s	s	5	3	SIC	125	RC	2	0	23VC	1	0	0.665560007095	-292.0	-42.0	-288	-38	1
1.7	2015_Jul_22_0911	s	s	5	3	SIC	126	ABS	2	2	24VD	0	1	0.670272827148	None	None	None	None	1
1.7	2015_Jul_22_0911	s	s	5	3	SIC	127	RC	1	1	23MO	1	0	1.09400820732	211.0	-23.0	215	-22	1
1.7	2015_Jul_22_0911	s	s	5	3	SIC	128	RC	2	1	23VO	1	0	0.912626981735	29.0	-354.0	31	-364	1
1.7	2015_Jul_22_0911	s	s	5	3	SIC	129	ABS	2	1	24VO	0	1	0.729051828384	None	None	None	None	1
1.7	2015_Jul_22_0911	s	s	5	3	SIC	130	RC	2	2	23VD	1	0	0.653248071671	372.0	358.0	361	360	1
1.7	2015_Jul_22_0911	s	s	5	3	SIC	131	RC	2	0	23VC	1	0	0.634896993637	344.0	-362.0	340	-374	1
1.7	2015_Jul_22_0911	s	s	5	3	SIC	132	ABS	2	2	24VD	0	1	0.776160001755	None	None	None	None	1
1.7	2015_Jul_22_0911	s	s	5	3	SIC	133	ABS	0	2	24RD	0	1	1.81197690964	None	None	None	None	1
1.7	2015_Jul_22_0911	s	s	5	3	SIC	134	ABS	1	0	24MC	0	1	4.47915792465	None	None	None	None	1
1.7	2015_Jul_22_0911	s	s	5	3	SIC	135	ABS	1	2	24MD	0	1	1.87739992142	None	None	None	None	1
1.7	2015_Jul_22_0911	s	s	5	3	SIC	136	ABS	0	1	24RO	0	1	7.3327729702	None	None	None	None	1
1.7	2015_Jul_22_0911	s	s	5	3	SIC	137	RC	1	0	23MC	1	0	5.03506302834	44.0	401.0	40	403	1
1.7	2015_Jul_22_0911	s	s	5	3	SIC	138	RC	1	2	23MD	1	0	0.623608112335	280.0	228.0	287	225	1
1.7	2015_Jul_22_0911	s	s	5	3	SIC	139	RC	1	1	23MO	1	0	0.865488052368	-474.0	128.0	-481	128	1
1.7	2015_Jul_22_0911	s	s	5	3	SIC	140	RC	2	1	23VO	1	0	0.576151132584	391.0	-17.0	391	-19	1
1.7	2015_Jul_22_0911	s	s	5	3	SIC	141	ABS	2	0	24VC	0	1	1.34116411209	None	None	None	None	1
1.7	2015_Jul_22_0911	s	s	5	3	SIC	142	RC	0	1	23RO	1	0	3.76365089417	-433.0	-171.0	-433	-180	1
1.7	2015_Jul_22_0911	s	s	5	3	SIC	143	RC	0	2	23RD	1	0	0.682059049606	292.0	209.0	294	206	1
1.7	2015_Jul_22_0911	s	s	5	3	SIC	144	ABS	1	1	24MO	0	1	4.7668337822	None	None	None	None	1
1.7	2015_Jul_22_0911	s	s	5	3	SIC	145	ABS	2	1	24VO	0	1	0.773772954941	None	None	None	None	1
1.7	2015_Jul_22_0911	s	s	5	3	SIC	146	RC	0	2	23RD	1	0	1.04725718498	-417.0	-281.0	-419	-279	1
1.7	2015_Jul_22_0911	s	s	5	3	SIC	147	RC	2	0	23VC	1	0	0.6349568367	-246.0	146.0	-237	150	1
1.7	2015_Jul_22_0911	s	s	5	3	SIC	148	ABS	1	1	24MO	0	1	4.30239701271	None	None	None	None	1
1.7	2015_Jul_22_0911	s	s	5	3	SIC	149	RC	1	0	23MC	1	0	2.21905088425	-534.0	372.0	-529	375	1
1.7	2015_Jul_22_0911	s	s	5	3	SIC	150	RC	0	1	23RO	1	0	3.9542798996	-288.0	-232.0	-290	-233	1
1.7	2015_Jul_22_0911	s	s	5	3	SIC	151	RC	1	1	23MO	1	0	1.15288686752	-281.0	245.0	-271	243	1
1.7	2015_Jul_22_0911	s	s	5	3	SIC	152	ABS	0	1	24RO	0	1	6.66821193695	None	None	None	None	1
1.7	2015_Jul_22_0911	s	s	5	3	SIC	153	RC	1	2	23MD	1	0	0.623279094696	228.0	-248.0	229	-251	1
1.7	2015_Jul_22_0911	s	s	5	3	SIC	154	ABS	1	0	24MC	0	1	4.73821020126	None	None	None	None	1
1.7	2015_Jul_22_0911	s	s	5	3	SIC	155	ABS	2	2	24VD	0	1	0.770962953568	None	None	None	None	1
1.7	2015_Jul_22_0911	s	s	5	3	SIC	156	ABS	2	0	24VC	0	1	0.705636024475	None	None	None	None	1
1.7	2015_Jul_22_0911	s	s	5	3	SIC	157	RC	2	2	23VD	1	0	0.80712890625	-493.0	5.0	-493	-4	1
1.7	2015_Jul_22_0911	s	s	5	3	SIC	158	ABS	1	2	24MD	0	1	1.18815803528	None	None	None	None	1
1.7	2015_Jul_22_0911	s	s	5	3	SIC	159	RC	2	1	23VO	1	0	0.674068927765	-42.0	-255.0	-42	-271	1
1.7	2015_Jul_22_0911	s	s	5	3	SIC	160	ABS	0	2	24RD	0	1	1.07730007172	None	None	None	None	1
1.7	2015_Jul_22_0911	s	s	5	3	SIC	161	RC	1	1	23MO	1	0	1.1764550209	409.0	-268.0	416	-269	1
1.7	2015_Jul_22_0911	s	s	5	3	SIC	162	ABS	1	1	24MO	0	1	3.23088788986	None	None	None	None	1
1.7	2015_Jul_22_0911	s	s	5	3	SIC	163	ABS	1	2	24MD	0	1	0.858679771423	None	None	None	None	1
1.7	2015_Jul_22_0911	s	s	5	3	SIC	164	ABS	1	0	24MC	0	1	5.9974899292	None	None	None	None	1
1.7	2015_Jul_22_0911	s	s	5	3	SIC	165	RC	0	2	23RD	1	0	0.618260145187	-360.0	-227.0	-363	-228	1
1.7	2015_Jul_22_0911	s	s	5	3	SIC	166	RC	1	0	23MC	1	0	2.894947052	-294.0	-90.0	-288	-85	1
1.7	2015_Jul_22_0911	s	s	5	3	SIC	167	RC	2	0	23VC	1	0	0.635037899017	371.0	-219.0	378	-211	1
1.7	2015_Jul_22_0911	s	s	5	3	SIC	168	ABS	0	2	24RD	0	1	1.10199809074	None	None	None	None	1
1.7	2015_Jul_22_0911	s	s	5	3	SIC	169	RC	2	2	23VD	1	0	0.606081962585	440.0	-221.0	436	-220	1
1.7	2015_Jul_22_0911	s	s	5	3	SIC	170	ABS	2	1	24VO	0	1	0.764387130737	None	None	None	None	1
1.7	2015_Jul_22_0911	s	s	5	3	SIC	171	RC	1	2	23MD	1	0	1.06543087959	-318.0	-389.0	-321	-395	1
1.7	2015_Jul_22_0911	s	s	5	3	SIC	172	ABS	0	1	24RO	0	1	7.46881604195	None	None	None	None	1
1.7	2015_Jul_22_0911	s	s	5	3	SIC	173	ABS	2	0	24VC	0	1	3.19625115395	None	None	None	None	1
1.7	2015_Jul_22_0911	s	s	5	3	SIC	174	ABS	2	2	24VD	0	1	0.61141705513	None	None	None	None	1
1.7	2015_Jul_22_0911	s	s	5	3	SIC	175	RC	2	1	23VO	1	0	0.747991085052	-94.0	-229.0	-86	-225	1
1.7	2015_Jul_22_0911	s	s	5	3	SIC	176	RC	0	1	23RO	1	0	2.21897006035	292.0	-359.0	293	-362	1
1.7	2015_Jul_22_0911	s	s	5	3	SIC	177	RC	1	2	23MD	1	0	1.11763811111	-220.0	199.0	-215	198	1
1.7	2015_Jul_22_0911	s	s	5	3	SIC	178	RC	0	1	23RO	1	0	3.64824795723	-26.0	233.0	-30	239	1
1.7	2015_Jul_22_0911	s	s	5	3	SIC	179	RC	2	1	23VO	1	0	0.734212875366	-497.0	-248.0	-502	-249	1
1.7	2015_Jul_22_0911	s	s	5	3	SIC	180	RC	1	1	23MO	1	0	1.02341079712	-174.0	-86.0	-162	-85	1
1.7	2015_Jul_22_0911	s	s	5	3	SIC	181	RC	2	0	23VC	1	0	0.632089138031	-323.0	-331.0	-330	-331	1
1.7	2015_Jul_22_0911	s	s	5	3	SIC	182	ABS	1	1	24MO	0	1	4.96655392647	None	None	None	None	1
1.7	2015_Jul_22_0911	s	s	5	3	SIC	183	RC	1	0	23MC	1	0	8.28583788872	2.0	-231.0	-7	-229	1
1.7	2015_Jul_22_0911	s	s	5	3	SIC	184	ABS	2	0	24VC	0	1	3.69049715996	None	None	None	None	1
1.7	2015_Jul_22_0911	s	s	5	3	SIC	185	ABS	2	1	24VO	0	1	0.987931013107	None	None	None	None	1
1.7	2015_Jul_22_0911	s	s	5	3	SIC	186	ABS	2	2	24VD	0	1	0.611489057541	None	None	None	None	1
1.7	2015_Jul_22_0911	s	s	5	3	SIC	187	ABS	0	1	24RO	0	1	5.23729395866	None	None	None	None	1
1.7	2015_Jul_22_0911	s	s	5	3	SIC	188	ABS	1	2	24MD	0	1	0.768214941025	None	None	None	None	1
1.7	2015_Jul_22_0911	s	s	5	3	SIC	189	RC	0	2	23RD	1	0	0.811556100845	401.0	120.0	398	119	1
1.7	2015_Jul_22_0911	s	s	5	3	SIC	190	RC	2	2	23VD	1	0	0.676927089691	467.0	143.0	466	143	1
1.7	2015_Jul_22_0911	s	s	5	3	SIC	191	ABS	0	2	24RD	0	1	0.760912895203	None	None	None	None	1
1.7	2015_Jul_22_0911	s	s	5	3	SIC	192	ABS	1	0	24MC	0	1	5.19628286362	None	None	None	None	1
1.7	2015_Jul_22_0911	s	s	5	3	SIC	193	RC	0	1	23RO	1	0	3.1137111187	173.0	404.0	169	410	1
1.7	2015_Jul_22_0911	s	s	5	3	SIC	194	ABS	1	1	24MO	0	1	2.24797296524	None	None	None	None	1
1.7	2015_Jul_22_0911	s	s	5	3	SIC	195	RC	2	0	23VC	1	0	0.799726009369	209.0	-412.0	217	-412	1
1.7	2015_Jul_22_0911	s	s	5	3	SIC	196	ABS	2	2	24VD	0	1	0.759263038635	None	None	None	None	1
1.7	2015_Jul_22_0911	s	s	5	3	SIC	197	RC	2	1	23VO	1	0	0.585422039032	57.0	-26.0	58	-23	1
1.7	2015_Jul_22_0911	s	s	5	3	SIC	198	ABS	1	2	24MD	0	1	0.914896965027	None	None	None	None	1
1.7	2015_Jul_22_0911	s	s	5	3	SIC	199	RC	1	2	23MD	1	0	0.693754196167	381.0	-250.0	379	-254	1
1.7	2015_Jul_22_0911	s	s	5	3	SIC	200	RC	1	0	23MC	1	0	6.37425398827	-254.0	-397.0	-257	-399	1
1.7	2015_Jul_22_0911	s	s	5	3	SIC	201	ABS	0	2	24RD	0	1	1.23164582253	None	None	None	None	1
1.7	2015_Jul_22_0911	s	s	5	3	SIC	202	ABS	2	1	24VO	0	1	0.835020065308	None	None	None	None	1
1.7	2015_Jul_22_0911	s	s	5	3	SIC	203	ABS	2	0	24VC	0	1	1.14119100571	None	None	None	None	1
1.7	2015_Jul_22_0911	s	s	5	3	SIC	204	RC	0	2	23RD	1	0	0.776228904724	78.0	-35.0	77	-34	1
1.7	2015_Jul_22_0911	s	s	5	3	SIC	205	ABS	1	0	24MC	0	1	3.50702381134	None	None	None	None	1
1.7	2015_Jul_22_0911	s	s	5	3	SIC	206	ABS	0	1	24RO	0	1	6.95101904869	None	None	None	None	1
1.7	2015_Jul_22_0911	s	s	5	3	SIC	207	RC	2	2	23VD	1	0	0.764452934265	379.0	-15.0	379	-5	1
1.7	2015_Jul_22_0911	s	s	5	3	SIC	208	RC	1	1	23MO	1	0	0.870390176773	-464.0	33.0	-465	35	1
1.7	2015_Jul_22_0911	s	s	5	3	SIC	209	RC	1	2	23MD	1	0	0.599681138992	-520.0	-93.0	-520	-93	1
1.7	2015_Jul_22_0911	s	s	5	3	SIC	210	ABS	1	1	24MO	0	1	2.21217083931	None	None	None	None	1
1.7	2015_Jul_22_0911	s	s	5	3	SIC	211	ABS	1	0	24MC	0	1	6.02097892761	None	None	None	None	1
1.7	2015_Jul_22_0911	s	s	5	3	SIC	212	RC	0	1	23RO	1	0	1.08226203918	-276.0	190.0	-280	192	1
1.7	2015_Jul_22_0911	s	s	5	3	SIC	213	ABS	2	1	24VO	0	1	0.893874883652	None	None	None	None	1
1.7	2015_Jul_22_0911	s	s	5	3	SIC	214	RC	1	1	23MO	1	0	3.18923807144	124.0	241.0	124	248	1
1.7	2015_Jul_22_0911	s	s	5	3	SIC	215	ABS	1	2	24MD	0	1	0.842461109161	None	None	None	None	1
1.7	2015_Jul_22_0911	s	s	5	3	SIC	216	RC	2	1	23VO	1	0	0.630132913589	121.0	-186.0	121	-182	1
1.7	2015_Jul_22_0911	s	s	5	3	SIC	217	ABS	2	0	24VC	0	1	0.820486068726	None	None	None	None	1
1.7	2015_Jul_22_0911	s	s	5	3	SIC	218	ABS	2	2	24VD	0	1	0.685782909393	None	None	None	None	1
1.7	2015_Jul_22_0911	s	s	5	3	SIC	219	RC	0	2	23RD	1	0	0.771379947662	-55.0	24.0	-43	25	1
1.7	2015_Jul_22_0911	s	s	5	3	SIC	220	RC	2	0	23VC	1	0	0.591668128967	332.0	-301.0	327	-296	1
1.7	2015_Jul_22_0911	s	s	5	3	SIC	221	RC	2	2	23VD	1	0	0.529012918472	179.0	259.0	177	257	1
1.7	2015_Jul_22_0911	s	s	5	3	SIC	222	RC	1	0	23MC	1	0	2.55358886719	-219.0	366.0	-223	367	1
1.7	2015_Jul_22_0911	s	s	5	3	SIC	223	ABS	0	2	24RD	0	1	0.991782903671	None	None	None	None	1
1.7	2015_Jul_22_0911	s	s	5	3	SIC	224	ABS	0	1	24RO	0	1	4.90525698662	None	None	None	None	1
1.7	2015_Jul_22_0911	s	s	5	3	SIC	225	ABS	0	1	24RO	0	1	5.35499310493	None	None	None	None	1
1.7	2015_Jul_22_0911	s	s	5	3	SIC	226	RC	0	2	23RD	1	0	0.79975104332	-46.0	130.0	-45	128	1
1.7	2015_Jul_22_0911	s	s	5	3	SIC	227	RC	1	1	23MO	1	0	1.47071814537	415.0	-53.0	415	-49	1
1.7	2015_Jul_22_0911	s	s	5	3	SIC	228	ABS	1	0	24MC	0	1	9.57565593719	None	None	None	None	1
1.7	2015_Jul_22_0911	s	s	5	3	SIC	229	RC	0	1	23RO	1	0	2.04234313965	89.0	-80.0	75	-75	1
1.7	2015_Jul_22_0911	s	s	5	3	SIC	230	ABS	1	1	24MO	0	1	3.05489087105	None	None	None	None	1
1.7	2015_Jul_22_0911	s	s	5	3	SIC	231	ABS	1	2	24MD	0	1	1.11764001846	None	None	None	None	1
1.7	2015_Jul_22_0911	s	s	5	3	SIC	232	ABS	2	1	24VO	0	1	0.681926965714	None	None	None	None	1
1.7	2015_Jul_22_0911	s	s	5	3	SIC	233	ABS	0	2	24RD	0	1	0.724101066589	None	None	None	None	1
1.7	2015_Jul_22_0911	s	s	5	3	SIC	234	RC	2	0	23VC	1	0	0.752656936646	465.0	-146.0	460	-141	1
1.7	2015_Jul_22_0911	s	s	5	3	SIC	235	ABS	2	0	24VC	0	1	0.711427927017	None	None	None	None	1
1.7	2015_Jul_22_0911	s	s	5	3	SIC	236	RC	1	2	23MD	1	0	0.773222923279	127.0	200.0	122	196	1
1.7	2015_Jul_22_0911	s	s	5	3	SIC	237	RC	1	0	23MC	1	0	2.1838619709	250.0	285.0	261	286	1
1.7	2015_Jul_22_0911	s	s	5	3	SIC	238	RC	2	2	23VD	1	0	0.582722902298	500.0	-312.0	506	-312	1
1.7	2015_Jul_22_0911	s	s	5	3	SIC	239	ABS	2	2	24VD	0	1	0.8062748909	None	None	None	None	1
1.7	2015_Jul_22_0911	s	s	5	3	SIC	240	RC	2	1	23VO	1	0	0.870424032211	92.0	-220.0	96	-227	1
1.7	2015_Jul_22_0911	s	s	5	3	SIC	241	RC	0	2	23RD	1	0	0.983763933182	-332.0	164.0	-329	165	1
1.7	2015_Jul_22_0911	s	s	5	3	SIC	242	ABS	1	1	24MO	0	1	2.67127895355	None	None	None	None	1
1.7	2015_Jul_22_0911	s	s	5	3	SIC	243	ABS	2	1	24VO	0	1	0.855450868607	None	None	None	None	1
1.7	2015_Jul_22_0911	s	s	5	3	SIC	244	ABS	1	0	24MC	0	1	4.70028090477	None	None	None	None	1
1.7	2015_Jul_22_0911	s	s	5	3	SIC	245	ABS	0	1	24RO	0	1	4.58972787857	None	None	None	None	1
1.7	2015_Jul_22_0911	s	s	5	3	SIC	246	ABS	1	2	24MD	0	1	0.835122823715	None	None	None	None	1
1.7	2015_Jul_22_0911	s	s	5	3	SIC	247	RC	2	2	23VD	1	0	0.721537828445	51.0	-312.0	48	-318	1
1.7	2015_Jul_22_0911	s	s	5	3	SIC	248	RC	2	1	23VO	1	0	0.881961107254	-502.0	165.0	-508	163	1
1.7	2015_Jul_22_0911	s	s	5	3	SIC	249	RC	2	0	23VC	1	0	0.523964881897	-395.0	187.0	-393	193	1
1.7	2015_Jul_22_0911	s	s	5	3	SIC	250	RC	1	0	23MC	1	0	3.45470094681	-419.0	-225.0	-419	-230	1
1.7	2015_Jul_22_0911	s	s	5	3	SIC	251	RC	0	1	23RO	1	0	3.99629187584	190.0	-115.0	189	-107	1
1.7	2015_Jul_22_0911	s	s	5	3	SIC	252	RC	1	1	23MO	1	0	0.771330118179	-217.0	-157.0	-213	-153	1
1.7	2015_Jul_22_0911	s	s	5	3	SIC	253	ABS	2	0	24VC	0	1	0.894315004349	None	None	None	None	1
1.7	2015_Jul_22_0911	s	s	5	3	SIC	254	RC	1	2	23MD	1	0	0.77277302742	-347.0	81.0	-348	83	1
1.7	2015_Jul_22_0911	s	s	5	3	SIC	255	ABS	2	2	24VD	0	1	0.846817970276	None	None	None	None	1
1.7	2015_Jul_22_0911	s	s	5	3	SIC	256	ABS	0	2	24RD	0	1	1.95332098007	None	None	None	None	1
1.7	2015_Jul_22_0911	s	s	5	3	SIC	257	ABS	1	2	24MD	0	1	1.68264007568	None	None	None	None	1
1.7	2015_Jul_22_0911	s	s	5	3	SIC	258	RC	1	0	23MC	1	0	5.10777688026	-363.0	376.0	-372	379	1
1.7	2015_Jul_22_0911	s	s	5	3	SIC	259	RC	1	1	23MO	1	0	2.17135500908	448.0	-398.0	448	-400	1
1.7	2015_Jul_22_0911	s	s	5	3	SIC	260	ABS	2	2	24VD	1	0	0.705753803253	None	None	10	-26	0
1.7	2015_Jul_22_0911	s	s	5	3	SIC	261	RC	0	2	23RD	1	0	1.55083322525	395.0	378.0	397	377	1
1.7	2015_Jul_22_0911	s	s	5	3	SIC	262	ABS	0	2	24RD	0	1	1.70611095428	None	None	None	None	1
1.7	2015_Jul_22_0911	s	s	5	3	SIC	263	RC	2	0	23VC	1	0	0.702466011047	97.0	55.0	104	60	1
1.7	2015_Jul_22_0911	s	s	5	3	SIC	264	ABS	1	1	24MO	0	1	2.70172190666	None	None	None	None	1
1.7	2015_Jul_22_0911	s	s	5	3	SIC	265	ABS	2	0	24VC	0	1	1.34814286232	None	None	None	None	1
1.7	2015_Jul_22_0911	s	s	5	3	SIC	266	ABS	2	1	24VO	0	1	1.19544696808	None	None	None	None	1
1.7	2015_Jul_22_0911	s	s	5	3	SIC	267	ABS	0	1	24RO	0	1	5.27265810966	None	None	None	None	1
1.7	2015_Jul_22_0911	s	s	5	3	SIC	268	RC	2	2	23VD	1	0	0.594569206238	-468.0	154.0	-474	152	1
1.7	2015_Jul_22_0911	s	s	5	3	SIC	269	RC	1	2	23MD	1	0	0.693909168243	-374.0	212.0	-379	217	1
1.7	2015_Jul_22_0911	s	s	5	3	SIC	270	ABS	1	0	24MC	0	1	4.86868309975	None	None	None	None	1
1.7	2015_Jul_22_0911	s	s	5	3	SIC	271	RC	0	1	23RO	1	0	2.41229915619	-476.0	335.0	-471	332	1
1.7	2015_Jul_22_0911	s	s	5	3	SIC	272	RC	2	1	23VO	1	0	0.559367895126	-143.0	389.0	-145	388	1
1.7	2015_Jul_22_0911	s	s	5	3	SIC	273	RC	1	0	23MC	1	0	6.03277397156	236.0	338.0	234	336	1
1.7	2015_Jul_22_0911	s	s	5	3	SIC	274	ABS	1	1	24MO	0	1	3.11348986626	None	None	None	None	1
1.7	2015_Jul_22_0911	s	s	5	3	SIC	275	ABS	0	1	24RO	0	1	6.08463811874	None	None	None	None	1
1.7	2015_Jul_22_0911	s	s	5	3	SIC	276	ABS	2	2	24VD	0	1	2.24763321877	None	None	None	None	1
1.7	2015_Jul_22_0911	s	s	5	3	SIC	277	ABS	1	2	24MD	0	1	1.06660890579	None	None	None	None	1
1.7	2015_Jul_22_0911	s	s	5	3	SIC	278	RC	0	2	23RD	1	0	0.773381948471	376.0	-371.0	373	-376	1
1.7	2015_Jul_22_0911	s	s	5	3	SIC	279	ABS	1	0	24MC	0	1	5.51510095596	None	None	None	None	1
1.7	2015_Jul_22_0911	s	s	5	3	SIC	280	ABS	2	0	24VC	0	1	0.953128099442	None	None	None	None	1
1.7	2015_Jul_22_0911	s	s	5	3	SIC	281	RC	2	1	23VO	1	0	0.665250062943	-439.0	324.0	-439	323	1
1.7	2015_Jul_22_0911	s	s	5	3	SIC	282	ABS	0	2	24RD	0	1	1.04196596146	None	None	None	None	1
1.7	2015_Jul_22_0911	s	s	5	3	SIC	283	RC	2	2	23VD	1	0	0.635272979736	276.0	309.0	270	314	1
1.7	2015_Jul_22_0911	s	s	5	3	SIC	284	RC	2	0	23VC	1	0	0.606317996979	323.0	-94.0	319	-95	1
1.7	2015_Jul_22_0911	s	s	5	3	SIC	285	ABS	2	1	24VO	0	1	1.14801502228	None	None	None	None	1
1.7	2015_Jul_22_0911	s	s	5	3	SIC	286	RC	0	1	23RO	1	0	2.28285694122	178.0	63.0	178	65	1
1.7	2015_Jul_22_0911	s	s	5	3	SIC	287	RC	1	2	23MD	1	0	0.699306964874	531.0	213.0	536	218	1
1.7	2015_Jul_22_0911	s	s	5	3	SIC	288	RC	1	1	23MO	1	0	0.630624055862	-56.0	-145.0	-53	-141	1
1.7	2015_Jul_22_0911	s	s	5	3	SIC	289	ABS	1	0	24MC	0	1	5.83160591125	None	None	None	None	1
1.7	2015_Jul_22_0911	s	s	5	3	SIC	290	ABS	2	2	24VD	0	1	0.693831920624	None	None	None	None	1
1.7	2015_Jul_22_0911	s	s	5	3	SIC	291	ABS	0	1	24RO	0	1	4.97369718552	None	None	None	None	1
1.7	2015_Jul_22_0911	s	s	5	3	SIC	292	RC	2	2	23VD	1	0	0.642014980316	-292.0	-257.0	-292	-264	1
1.7	2015_Jul_22_0911	s	s	5	3	SIC	293	ABS	2	0	24VC	0	1	0.988080024719	None	None	None	None	1
1.7	2015_Jul_22_0911	s	s	5	3	SIC	294	RC	2	0	23VC	1	0	0.705598115921	-276.0	-124.0	-273	-126	1
1.7	2015_Jul_22_0911	s	s	5	3	SIC	295	RC	0	2	23RD	1	0	0.670257091522	137.0	276.0	133	275	1
1.7	2015_Jul_22_0911	s	s	5	3	SIC	296	RC	2	1	23VO	1	0	0.688910961151	396.0	233.0	392	227	1
1.7	2015_Jul_22_0911	s	s	5	3	SIC	297	ABS	0	2	24RD	0	1	1.11436796188	None	None	None	None	1
1.7	2015_Jul_22_0911	s	s	5	3	SIC	298	RC	0	1	23RO	1	0	3.68105792999	313.0	-115.0	313	-116	1
1.7	2015_Jul_22_0911	s	s	5	3	SIC	299	RC	1	0	23MC	1	0	2.68304204941	-79.0	-5.0	-77	1	1
1.7	2015_Jul_22_0911	s	s	5	3	SIC	300	RC	1	2	23MD	1	0	0.630015850067	-358.0	409.0	-352	410	1
1.7	2015_Jul_22_0911	s	s	5	3	SIC	301	ABS	1	2	24MD	0	1	1.12934994698	None	None	None	None	1
1.7	2015_Jul_22_0911	s	s	5	3	SIC	302	ABS	2	1	24VO	0	1	0.853008985519	None	None	None	None	1
1.7	2015_Jul_22_0911	s	s	5	3	SIC	303	RC	1	1	23MO	1	0	1.4589240551	404.0	-103.0	405	-110	1
1.7	2015_Jul_22_0911	s	s	5	3	SIC	304	ABS	1	1	24MO	0	1	3.33726406097	None	None	None	None	1
1.7	2015_Jul_22_0911	s	s	5	3	SIC	305	ABS	1	2	24MD	0	1	1.16028189659	None	None	None	None	1
1.7	2015_Jul_22_0911	s	s	5	3	SIC	306	ABS	0	1	24RO	0	1	3.91939902306	None	None	None	None	1
1.7	2015_Jul_22_0911	s	s	5	3	SIC	307	RC	0	2	23RD	1	0	0.693827152252	-205.0	140.0	-208	145	1
1.7	2015_Jul_22_0911	s	s	5	3	SIC	308	ABS	1	1	24MO	0	1	3.72557091713	None	None	None	None	1
1.7	2015_Jul_22_0911	s	s	5	3	SIC	309	ABS	2	1	24VO	0	1	0.830173969269	None	None	None	None	1
1.7	2015_Jul_22_0911	s	s	5	3	SIC	310	ABS	2	2	24VD	0	1	0.653557062149	None	None	None	None	1
1.7	2015_Jul_22_0911	s	s	5	3	SIC	311	ABS	1	0	24MC	0	1	7.76274681091	None	None	None	None	1
1.7	2015_Jul_22_0911	s	s	5	3	SIC	312	ABS	0	2	24RD	0	1	2.63336801529	None	None	None	None	1
1.7	2015_Jul_22_0911	s	s	5	3	SIC	313	ABS	2	0	24VC	0	1	1.08226799965	None	None	None	None	1
1.7	2015_Jul_22_0911	s	s	5	3	SIC	314	RC	0	1	23RO	1	0	4.33099102974	-522.0	-352.0	-514	-347	1
1.7	2015_Jul_22_0911	s	s	5	3	SIC	315	RC	1	0	23MC	1	0	3.31861901283	-388.0	154.0	-391	157	1
1.7	2015_Jul_22_0911	s	s	5	3	SIC	316	RC	1	1	23MO	1	0	1.35938215256	-16.0	48.0	-12	42	1
1.7	2015_Jul_22_0911	s	s	5	3	SIC	317	RC	2	0	23VC	1	0	0.560777902603	101.0	-130.0	103	-135	1
1.7	2015_Jul_22_0911	s	s	5	3	SIC	318	RC	2	2	23VD	1	0	0.605852127075	76.0	-65.0	77	-61	1
1.7	2015_Jul_22_0911	s	s	5	3	SIC	319	RC	1	2	23MD	1	0	0.655137062073	-249.0	-364.0	-250	-372	1
1.7	2015_Jul_22_0911	s	s	5	3	SIC	320	RC	2	1	23VO	1	0	0.629932165146	436.0	-14.0	435	-12	1
1.7	2015_Jul_22_0911	s	s	5	3	SIC	321	RC	0	1	23RO	1	0	3.43131017685	125.0	335.0	135	341	1
1.7	2015_Jul_22_0911	s	s	5	3	SIC	322	ABS	1	1	24MO	0	1	2.85501098633	None	None	None	None	1
1.7	2015_Jul_22_0911	s	s	5	3	SIC	323	RC	2	2	23VD	1	0	0.571084022522	-436.0	250.0	-444	249	1
1.7	2015_Jul_22_0911	s	s	5	3	SIC	324	RC	1	2	23MD	1	0	0.701033115387	414.0	-221.0	414	-225	1
1.7	2015_Jul_22_0911	s	s	5	3	SIC	325	RC	1	0	23MC	1	0	3.62468791008	111.0	193.0	120	197	1
1.7	2015_Jul_22_0911	s	s	5	3	SIC	326	ABS	1	0	24MC	0	1	6.94396996498	None	None	None	None	1
1.7	2015_Jul_22_0911	s	s	5	3	SIC	327	ABS	1	2	24MD	0	1	0.800204992294	None	None	None	None	1
1.7	2015_Jul_22_0911	s	s	5	3	SIC	328	RC	1	1	23MO	1	0	1.124325037	499.0	-246.0	490	-250	1
1.7	2015_Jul_22_0911	s	s	5	3	SIC	329	ABS	2	2	24VD	0	1	1.06586718559	None	None	None	None	1
1.7	2015_Jul_22_0911	s	s	5	3	SIC	330	ABS	2	1	24VO	0	1	2.96563696861	None	None	None	None	1
1.7	2015_Jul_22_0911	s	s	5	3	SIC	331	ABS	0	1	24RO	0	1	5.50296115875	None	None	None	None	1
1.7	2015_Jul_22_0911	s	s	5	3	SIC	332	RC	2	1	23VO	1	0	0.890618801117	-141.0	-243.0	-134	-246	1
1.7	2015_Jul_22_0911	s	s	5	3	SIC	333	ABS	0	2	24RD	0	1	2.43086409569	None	None	None	None	1
1.7	2015_Jul_22_0911	s	s	5	3	SIC	334	RC	0	2	23RD	1	0	0.8061439991	-299.0	79.0	-290	76	1
1.7	2015_Jul_22_0911	s	s	5	3	SIC	335	ABS	2	0	24VC	0	1	1.17157387733	None	None	None	None	1
1.7	2015_Jul_22_0911	s	s	5	3	SIC	336	RC	2	0	23VC	1	0	0.853781938553	163.0	-274.0	169	-279	1
1.7	2015_Jul_22_0911	s	s	5	3	SIC	337	RC	2	0	23VC	1	0	0.785603046417	-305.0	-356.0	-301	-361	1
1.7	2015_Jul_22_0911	s	s	5	3	SIC	338	ABS	0	1	24RO	0	1	10.4608440399	None	None	None	None	1
1.7	2015_Jul_22_0911	s	s	5	3	SIC	339	ABS	1	0	24MC	0	1	6.03778886795	None	None	None	None	1
1.7	2015_Jul_22_0911	s	s	5	3	SIC	340	ABS	2	2	24VD	0	1	0.771781921387	None	None	None	None	1
1.7	2015_Jul_22_0911	s	s	5	3	SIC	341	ABS	1	1	24MO	0	1	2.96556615829	None	None	None	None	1
1.7	2015_Jul_22_0911	s	s	5	3	SIC	342	ABS	1	2	24MD	0	1	1.67766189575	None	None	None	None	1
1.7	2015_Jul_22_0911	s	s	5	3	SIC	343	RC	1	0	23MC	1	0	2.06603503227	490.0	303.0	493	305	1
1.7	2015_Jul_22_0911	s	s	5	3	SIC	344	ABS	0	2	24RD	0	1	0.811709165573	None	None	None	None	1
1.7	2015_Jul_22_0911	s	s	5	3	SIC	345	RC	1	2	23MD	1	0	0.644317150116	-517.0	369.0	-526	374	1
1.7	2015_Jul_22_0911	s	s	5	3	SIC	346	ABS	2	0	24VC	0	1	0.783000946045	None	None	None	None	1
1.7	2015_Jul_22_0911	s	s	5	3	SIC	347	RC	0	1	23RO	1	0	4.71434211731	-249.0	390.0	-258	389	1
1.7	2015_Jul_22_0911	s	s	5	3	SIC	348	ABS	2	1	24VO	0	1	0.782889127731	None	None	None	None	1
1.7	2015_Jul_22_0911	s	s	5	3	SIC	349	RC	1	1	23MO	0	1	1.63551402092	256.0	338.0	None	None	0
1.7	2015_Jul_22_0911	s	s	5	3	SIC	350	RC	2	2	23VD	1	0	0.835016012192	-490.0	-168.0	-490	-168	1
1.7	2015_Jul_22_0911	s	s	5	3	SIC	351	RC	2	1	23VO	1	0	0.552526950836	159.0	305.0	164	307	1
1.7	2015_Jul_22_0911	s	s	5	3	SIC	352	RC	0	2	23RD	1	0	0.564358949661	232.0	170.0	243	174	1
1.7	2015_Jul_22_0911	s	s	5	3	SIC	353	ABS	1	2	24MD	0	1	1.86596798897	None	None	None	None	1
1.7	2015_Jul_22_0911	s	s	5	3	SIC	354	RC	2	0	23VC	1	0	0.559654951096	-197.0	-139.0	-190	-140	1
1.7	2015_Jul_22_0911	s	s	5	3	SIC	355	ABS	0	1	24RO	0	1	5.31956982613	None	None	None	None	1
1.7	2015_Jul_22_0911	s	s	5	3	SIC	356	RC	1	0	23MC	1	0	1.84262609482	284.0	212.0	277	215	1
1.7	2015_Jul_22_0911	s	s	5	3	SIC	357	RC	1	2	23MD	1	0	0.571226835251	-358.0	-117.0	-361	-116	1
1.7	2015_Jul_22_0911	s	s	5	3	SIC	358	RC	0	1	23RO	1	0	2.38876795769	274.0	224.0	266	225	1
1.7	2015_Jul_22_0911	s	s	5	3	SIC	359	ABS	1	0	24MC	0	1	6.34898209572	None	None	None	None	1
1.7	2015_Jul_22_0911	s	s	5	3	SIC	360	ABS	2	1	24VO	0	1	1.11431193352	None	None	None	None	1
1.7	2015_Jul_22_0911	s	s	5	3	SIC	361	RC	2	2	23VD	1	0	0.595888853073	484.0	331.0	482	325	1
1.7	2015_Jul_22_0911	s	s	5	3	SIC	362	ABS	2	2	24VD	0	1	0.764448881149	None	None	None	None	1
1.7	2015_Jul_22_0911	s	s	5	3	SIC	363	ABS	2	0	24VC	0	1	1.13632583618	None	None	None	None	1
1.7	2015_Jul_22_0911	s	s	5	3	SIC	364	ABS	0	2	24RD	0	1	2.50642180443	None	None	None	None	1
1.7	2015_Jul_22_0911	s	s	5	3	SIC	365	ABS	1	1	24MO	0	1	3.13021612167	None	None	None	None	1
1.7	2015_Jul_22_0911	s	s	5	3	SIC	366	RC	2	1	23VO	1	0	0.78369307518	-371.0	-233.0	-375	-236	1
1.7	2015_Jul_22_0911	s	s	5	3	SIC	367	RC	0	2	23RD	1	0	0.752583026886	296.0	-209.0	295	-205	1
1.7	2015_Jul_22_0911	s	s	5	3	SIC	368	RC	1	1	23MO	1	0	2.00891900063	307.0	344.0	314	346	1
1.7	2015_Jul_22_0911	s	s	5	3	SIC	369	RC	2	1	23VO	1	0	0.77362203598	-305.0	165.0	-303	160	1
1.7	2015_Jul_22_0911	s	s	5	3	SIC	370	ABS	0	2	24RD	0	1	2.71369695663	None	None	None	None	1
1.7	2015_Jul_22_0911	s	s	5	3	SIC	371	ABS	1	1	24MO	0	1	4.04272294044	None	None	None	None	1
1.7	2015_Jul_22_0911	s	s	5	3	SIC	372	ABS	1	0	24MC	0	1	7.38682985306	None	None	None	None	1
1.7	2015_Jul_22_0911	s	s	5	3	SIC	373	ABS	2	2	24VD	0	1	0.783135890961	None	None	None	None	1
1.7	2015_Jul_22_0911	s	s	5	3	SIC	374	RC	0	2	23RD	1	0	1.14112591743	407.0	324.0	408	322	1
1.7	2015_Jul_22_0911	s	s	5	3	SIC	375	RC	2	0	23VC	1	0	0.552587032318	-480.0	262.0	-479	270	1
1.7	2015_Jul_22_0911	s	s	5	3	SIC	376	ABS	1	2	24MD	0	1	1.6236717701	None	None	None	None	1
1.7	2015_Jul_22_0911	s	s	5	3	SIC	377	RC	1	2	23MD	1	0	1.54131197929	-284.0	14.0	-282	23	1
1.7	2015_Jul_22_0911	s	s	5	3	SIC	378	ABS	2	1	24VO	0	1	0.799791097641	None	None	None	None	1
1.7	2015_Jul_22_0911	s	s	5	3	SIC	379	ABS	0	1	24RO	0	1	6.1152908802	None	None	None	None	1
1.7	2015_Jul_22_0911	s	s	5	3	SIC	380	RC	2	2	23VD	1	0	0.559376001358	50.0	36.0	53	35	1
1.7	2015_Jul_22_0911	s	s	5	3	SIC	381	RC	1	1	23MO	1	0	0.973994016647	-181.0	-270.0	-183	-269	1
1.7	2015_Jul_22_0911	s	s	5	3	SIC	382	ABS	2	0	24VC	0	1	0.976265907288	None	None	None	None	1
1.7	2015_Jul_22_0911	s	s	5	3	SIC	383	RC	1	0	23MC	1	0	2.84305906296	-60.0	191.0	-54	190	1
1.7	2015_Jul_22_0911	s	s	5	3	SIC	384	RC	0	1	23RO	1	0	2.58333587646	-353.0	208.0	-349	208	1
1.7	2015_Jul_22_0911	s	s	5	3	SIC	385	RC	0	1	23RO	1	0	4.19817090034	449.0	-137.0	441	-142	1
1.7	2015_Jul_22_0911	s	s	5	3	SIC	386	ABS	2	0	24VC	0	1	0.854809999466	None	None	None	None	1
1.7	2015_Jul_22_0911	s	s	5	3	SIC	387	ABS	1	1	24MO	0	1	2.9773440361	None	None	None	None	1
1.7	2015_Jul_22_0911	s	s	5	3	SIC	388	RC	1	0	23MC	1	0	3.93071818352	454.0	61.0	449	60	1
1.7	2015_Jul_22_0911	s	s	5	3	SIC	389	ABS	1	0	24MC	0	1	3.50205898285	None	None	None	None	1
1.7	2015_Jul_22_0911	s	s	5	3	SIC	390	RC	1	1	23MO	1	0	3.51877212524	-452.0	-299.0	-453	-294	1
1.7	2015_Jul_22_0911	s	s	5	3	SIC	391	ABS	2	2	24VD	0	1	0.705590009689	None	None	None	None	1
1.7	2015_Jul_22_0911	s	s	5	3	SIC	392	ABS	0	1	24RO	0	1	5.64459204674	None	None	None	None	1
1.7	2015_Jul_22_0911	s	s	5	3	SIC	393	RC	2	0	23VC	1	0	0.893972873688	198.0	220.0	194	219	1
1.7	2015_Jul_22_0911	s	s	5	3	SIC	394	RC	2	2	23VD	1	0	0.655781984329	-377.0	284.0	-374	293	1
1.7	2015_Jul_22_0911	s	s	5	3	SIC	395	RC	0	2	23RD	1	0	0.658499002457	323.0	272.0	327	271	1
1.7	2015_Jul_22_0911	s	s	5	3	SIC	396	ABS	2	1	24VO	0	1	0.893828868866	None	None	None	None	1
1.7	2015_Jul_22_0911	s	s	5	3	SIC	397	ABS	1	2	24MD	0	1	1.38289117813	None	None	None	None	1
1.7	2015_Jul_22_0911	s	s	5	3	SIC	398	RC	1	2	23MD	1	0	0.713735103607	-225.0	-105.0	-223	-115	1
1.7	2015_Jul_22_0911	s	s	5	3	SIC	399	RC	2	1	23VO	1	0	1.61840200424	219.0	386.0	224	395	1
1.7	2015_Jul_22_0911	s	s	5	3	SIC	400	ABS	0	2	24RD	0	1	1.60732197762	None	None	None	None	1
1.7	2015_Jul_22_0911	s	s	5	3	SIC	401	ABS	2	2	24VD	0	1	1.30585312843	None	None	None	None	1
1.7	2015_Jul_22_0911	s	s	5	3	SIC	402	ABS	1	0	24MC	0	1	10.9057791233	None	None	None	None	1
1.7	2015_Jul_22_0911	s	s	5	3	SIC	403	RC	1	2	23MD	1	0	0.98313999176	-470.0	308.0	-466	311	1
1.7	2015_Jul_22_0911	s	s	5	3	SIC	404	RC	2	0	23VC	1	0	0.665415048599	179.0	69.0	184	66	1
1.7	2015_Jul_22_0911	s	s	5	3	SIC	405	ABS	2	1	24VO	0	1	2.25430107117	None	None	None	None	1
1.7	2015_Jul_22_0911	s	s	5	3	SIC	406	ABS	0	2	24RD	0	1	0.970706939697	None	None	None	None	1
1.7	2015_Jul_22_0911	s	s	5	3	SIC	407	RC	0	2	23RD	1	0	0.941004037857	-7.0	60.0	-1	55	1
1.7	2015_Jul_22_0911	s	s	5	3	SIC	408	ABS	2	0	24VC	0	1	0.799832105637	None	None	None	None	1
1.7	2015_Jul_22_0911	s	s	5	3	SIC	409	RC	1	1	23MO	1	0	1.42903900146	431.0	-56.0	434	-54	1
1.7	2015_Jul_22_0911	s	s	5	3	SIC	410	RC	1	0	23MC	1	0	5.24903583527	243.0	-26.0	242	-25	1
1.7	2015_Jul_22_0911	s	s	5	3	SIC	411	RC	0	1	23RO	1	0	2.35347294807	277.0	297.0	274	302	1
1.7	2015_Jul_22_0911	s	s	5	3	SIC	412	ABS	1	2	24MD	0	1	0.830327987671	None	None	None	None	1
1.7	2015_Jul_22_0911	s	s	5	3	SIC	413	RC	2	1	23VO	1	0	0.629812002182	48.0	-26.0	57	-23	1
1.7	2015_Jul_22_0911	s	s	5	3	SIC	414	ABS	0	1	24RO	0	1	6.73219680786	None	None	None	None	1
1.7	2015_Jul_22_0911	s	s	5	3	SIC	415	ABS	1	1	24MO	0	1	5.37072300911	None	None	None	None	1
1.7	2015_Jul_22_0911	s	s	5	3	SIC	416	RC	2	2	23VD	1	0	0.783042907715	55.0	-35.0	62	-29	1
1.7	2015_Jul_22_0911	s	s	5	3	SIC	417	ABS	0	1	24RO	0	1	4.78691196442	None	None	None	None	1
1.7	2015_Jul_22_0911	s	s	5	3	SIC	418	ABS	1	1	24MO	0	1	2.92509889603	None	None	None	None	1
1.7	2015_Jul_22_0911	s	s	5	3	SIC	419	ABS	1	0	24MC	0	1	3.53718686104	None	None	None	None	1
1.7	2015_Jul_22_0911	s	s	5	3	SIC	420	ABS	0	2	24RD	0	1	1.07047104836	None	None	None	None	1
1.7	2015_Jul_22_0911	s	s	5	3	SIC	421	ABS	2	0	24VC	0	1	0.760616064072	None	None	None	None	1
1.7	2015_Jul_22_0911	s	s	5	3	SIC	422	RC	1	2	23MD	1	0	0.893861055374	-280.0	-294.0	-284	-303	1
1.7	2015_Jul_22_0911	s	s	5	3	SIC	423	ABS	2	2	24VD	0	1	0.776655912399	None	None	None	None	1
1.7	2015_Jul_22_0911	s	s	5	3	SIC	424	RC	1	1	23MO	1	0	2.11327600479	117.0	-359.0	123	-352	1
1.7	2015_Jul_22_0911	s	s	5	3	SIC	425	RC	2	1	23VO	1	0	0.747509002686	-304.0	100.0	-306	99	1
1.7	2015_Jul_22_0911	s	s	5	3	SIC	426	RC	0	2	23RD	1	0	0.66433596611	139.0	120.0	141	109	1
1.7	2015_Jul_22_0911	s	s	5	3	SIC	427	RC	2	0	23VC	1	0	0.693827152252	479.0	170.0	485	169	1
1.7	2015_Jul_22_0911	s	s	5	3	SIC	428	ABS	1	2	24MD	0	1	1.40682196617	None	None	None	None	1
1.7	2015_Jul_22_0911	s	s	5	3	SIC	429	RC	1	0	23MC	1	0	5.61397504807	-248.0	-395.0	-255	-389	1
1.7	2015_Jul_22_0911	s	s	5	3	SIC	430	RC	0	1	23RO	1	0	4.27881813049	439.0	-191.0	444	-195	1
1.7	2015_Jul_22_0911	s	s	5	3	SIC	431	ABS	2	1	24VO	0	1	0.842113018036	None	None	None	None	1
1.7	2015_Jul_22_0911	s	s	5	3	SIC	432	RC	2	2	23VD	1	0	1.11761188507	-349.0	66.0	-348	67	1
1.7	2015_Jul_22_0911	s	s	5	3	SIC	433	RC	1	1	23MO	1	0	1.04223799706	-214.0	-219.0	-211	-215	1
1.7	2015_Jul_22_0911	s	s	5	3	SIC	434	RC	2	1	23VO	1	0	0.640275001526	-55.0	-404.0	-61	-412	1
1.7	2015_Jul_22_0911	s	s	5	3	SIC	435	ABS	0	1	24RO	0	1	7.93943309784	None	None	None	None	1
1.7	2015_Jul_22_0911	s	s	5	3	SIC	436	ABS	1	2	24MD	0	1	0.905641078949	None	None	None	None	1
1.7	2015_Jul_22_0911	s	s	5	3	SIC	437	ABS	1	1	24MO	0	1	3.48387312889	None	None	None	None	1
1.7	2015_Jul_22_0911	s	s	5	3	SIC	438	RC	0	2	23RD	1	0	1.28237581253	248.0	231.0	244	227	1
1.7	2015_Jul_22_0911	s	s	5	3	SIC	439	RC	0	1	23RO	1	0	2.40057301521	208.0	-144.0	212	-148	1
1.7	2015_Jul_22_0911	s	s	5	3	SIC	440	ABS	2	2	24VD	0	1	0.841753005981	None	None	None	None	1
1.7	2015_Jul_22_0911	s	s	5	3	SIC	441	RC	2	2	23VD	1	0	0.559545040131	41.0	128.0	40	123	1
1.7	2015_Jul_22_0911	s	s	5	3	SIC	442	ABS	1	0	24MC	0	1	8.93856596947	None	None	None	None	1
1.7	2015_Jul_22_0911	s	s	5	3	SIC	443	ABS	0	2	24RD	0	1	0.853293895721	None	None	None	None	1
1.7	2015_Jul_22_0911	s	s	5	3	SIC	444	RC	1	0	23MC	1	0	4.06031513214	75.0	239.0	69	248	1
1.7	2015_Jul_22_0911	s	s	5	3	SIC	445	RC	1	2	23MD	1	0	0.599592924118	-129.0	244.0	-117	248	1
1.7	2015_Jul_22_0911	s	s	5	3	SIC	446	ABS	2	0	24VC	0	1	0.97637295723	None	None	None	None	1
1.7	2015_Jul_22_0911	s	s	5	3	SIC	447	ABS	2	1	24VO	0	1	0.776285171509	None	None	None	None	1
1.7	2015_Jul_22_0911	s	s	5	3	SIC	448	RC	2	0	23VC	1	0	0.84679889679	368.0	382.0	374	381	1
1.7	2015_Jul_22_0911	s	s	5	3	SIC	449	ABS	1	2	24MD	0	1	0.853637933731	None	None	None	None	1
1.7	2015_Jul_22_0911	s	s	5	3	SIC	450	ABS	2	0	24VC	0	1	0.788475990295	None	None	None	None	1
1.7	2015_Jul_22_0911	s	s	5	3	SIC	451	ABS	1	0	24MC	0	1	3.19767212868	None	None	None	None	1
1.7	2015_Jul_22_0911	s	s	5	3	SIC	452	ABS	0	1	24RO	0	1	6.33878993988	None	None	None	None	1
1.7	2015_Jul_22_0911	s	s	5	3	SIC	453	RC	2	2	23VD	1	0	0.658495187759	-345.0	-13.0	-350	-16	1
1.7	2015_Jul_22_0911	s	s	5	3	SIC	454	RC	0	1	23RO	1	0	5.42055606842	-16.0	-110.0	-12	-113	1
1.7	2015_Jul_22_0911	s	s	5	3	SIC	455	RC	2	0	23VC	1	0	0.606333017349	-152.0	170.0	-142	174	1
1.7	2015_Jul_22_0911	s	s	5	3	SIC	456	ABS	2	2	24VD	0	1	0.750147819519	None	None	None	None	1
1.7	2015_Jul_22_0911	s	s	5	3	SIC	457	RC	1	0	23MC	1	0	5.74338984489	94.0	-227.0	94	-231	1
1.7	2015_Jul_22_0911	s	s	5	3	SIC	458	RC	1	2	23MD	1	0	0.594861030579	447.0	257.0	441	249	1
1.7	2015_Jul_22_0911	s	s	5	3	SIC	459	RC	2	1	23VO	1	0	0.493690013885	446.0	39.0	455	45	1
1.7	2015_Jul_22_0911	s	s	5	3	SIC	460	ABS	0	2	24RD	0	1	1.84740400314	None	None	None	None	1
1.7	2015_Jul_22_0911	s	s	5	3	SIC	461	ABS	2	1	24VO	0	1	0.947526931763	None	None	None	None	1
1.7	2015_Jul_22_0911	s	s	5	3	SIC	462	RC	0	2	23RD	1	0	0.630825042725	-214.0	113.0	-216	111	1
1.7	2015_Jul_22_0911	s	s	5	3	SIC	463	ABS	1	1	24MO	0	1	2.48299694061	None	None	None	None	1
1.7	2015_Jul_22_0911	s	s	5	3	SIC	464	RC	1	1	23MO	1	0	0.906023025513	104.0	134.0	107	128	1
1.7	2015_Jul_22_0911	s	s	5	3	SIC	465	RC	2	2	23VD	1	0	0.573431015015	341.0	278.0	351	278	1
1.7	2015_Jul_22_0911	s	s	5	3	SIC	466	ABS	0	2	24RD	0	1	1.67774820328	None	None	None	None	1
1.7	2015_Jul_22_0911	s	s	5	3	SIC	467	ABS	1	2	24MD	0	1	1.42353701591	None	None	None	None	1
1.7	2015_Jul_22_0911	s	s	5	3	SIC	468	RC	1	0	23MC	1	0	1.12619900703	330.0	-288.0	330	-284	1
1.7	2015_Jul_22_0911	s	s	5	3	SIC	469	ABS	2	0	24VC	0	1	2.43613386154	None	None	None	None	1
1.7	2015_Jul_22_0911	s	s	5	3	SIC	470	ABS	2	1	24VO	0	1	3.22448706627	None	None	None	None	1
1.7	2015_Jul_22_0911	s	s	5	3	SIC	471	ABS	1	1	24MO	0	1	1.53654098511	None	None	None	None	1
1.7	2015_Jul_22_0911	s	s	5	3	SIC	472	RC	1	1	23MO	1	0	4.47890400887	-521.0	-74.0	-517	-77	1
1.7	2015_Jul_22_0911	s	s	5	3	SIC	473	ABS	1	0	24MC	0	1	7.48061513901	None	None	None	None	1
1.7	2015_Jul_22_0911	s	s	5	3	SIC	474	RC	1	2	23MD	1	0	1.11127305031	221.0	-75.0	217	-79	1
1.7	2015_Jul_22_0911	s	s	5	3	SIC	475	RC	2	1	23VO	1	0	2.76222896576	378.0	116.0	375	112	1
1.7	2015_Jul_22_0911	s	s	5	3	SIC	476	RC	0	2	23RD	1	0	3.43635582924	-460.0	-117.0	-464	-118	1
1.7	2015_Jul_22_0911	s	s	5	3	SIC	477	ABS	2	2	24VD	0	1	0.783110141754	None	None	None	None	1
1.7	2015_Jul_22_0911	s	s	5	3	SIC	478	ABS	0	1	24RO	0	1	4.23201394081	None	None	None	None	1
1.7	2015_Jul_22_0911	s	s	5	3	SIC	479	RC	2	0	23VC	1	0	0.72563791275	-495.0	-172.0	-496	-177	1
1.7	2015_Jul_22_0911	s	s	5	3	SIC	480	RC	0	1	23RO	0	1	7.21473503113	20.0	79.0	None	None	0
1.7	2015_Jul_22_0911	s	s	5	3	SIC	481	RC	2	2	23VD	1	0	0.629940986633	-102.0	366.0	-101	371	1
1.7	2015_Jul_22_0911	s	s	5	3	SIC	482	RC	2	1	23VO	1	0	0.559643030167	-505.0	60.0	-514	56	1
1.7	2015_Jul_22_0911	s	s	5	3	SIC	483	ABS	1	2	24MD	0	1	0.842110872269	None	None	None	None	1
1.7	2015_Jul_22_0911	s	s	5	3	SIC	484	ABS	2	2	24VD	0	1	0.712177038193	None	None	None	None	1
1.7	2015_Jul_22_0911	s	s	5	3	SIC	485	RC	0	2	23RD	1	0	0.61141204834	-407.0	235.0	-408	244	1
1.7	2015_Jul_22_0911	s	s	5	3	SIC	486	RC	1	2	23MD	1	0	0.501530170441	-188.0	-2.0	-190	-4	1
1.7	2015_Jul_22_0911	s	s	5	3	SIC	487	ABS	1	0	24MC	0	1	4.04633402824	None	None	None	None	1
1.7	2015_Jul_22_0911	s	s	5	3	SIC	488	RC	0	1	23RO	1	0	4.10732698441	-350.0	84.0	-357	84	1
1.7	2015_Jul_22_0911	s	s	5	3	SIC	489	ABS	2	0	24VC	0	1	0.77618098259	None	None	None	None	1
1.7	2015_Jul_22_0911	s	s	5	3	SIC	490	ABS	0	2	24RD	0	1	1.80949807167	None	None	None	None	1
1.7	2015_Jul_22_0911	s	s	5	3	SIC	491	ABS	2	1	24VO	0	1	0.705587863922	None	None	None	None	1
1.7	2015_Jul_22_0911	s	s	5	3	SIC	492	RC	2	0	23VC	1	0	0.646795988083	-516.0	-48.0	-523	-44	1
1.7	2015_Jul_22_0911	s	s	5	3	SIC	493	RC	1	0	23MC	1	0	1.69433403015	-220.0	363.0	-220	368	1
1.7	2015_Jul_22_0911	s	s	5	3	SIC	494	ABS	0	1	24RO	0	1	5.22277998924	None	None	None	None	1
1.7	2015_Jul_22_0911	s	s	5	3	SIC	495	RC	1	1	23MO	1	0	1.77192807198	392.0	-244.0	393	-251	1
1.7	2015_Jul_22_0911	s	s	5	3	SIC	496	ABS	1	1	24MO	0	1	2.77711105347	None	None	None	None	1
1.7	2015_Jul_22_0911	s	s	5	3	SIC	497	ABS	0	1	24RO	0	1	5.99588012695	None	None	None	None	1
1.7	2015_Jul_22_0911	s	s	5	3	SIC	498	RC	1	2	23MD	1	0	0.571257829666	-366.0	129.0	-365	128	1
1.7	2015_Jul_22_0911	s	s	5	3	SIC	499	RC	0	1	23RO	1	0	4.12792778015	233.0	-259.0	227	-262	1
1.7	2015_Jul_22_0911	s	s	5	3	SIC	500	ABS	0	2	24RD	0	1	1.44712400436	None	None	None	None	1
1.7	2015_Jul_22_0911	s	s	5	3	SIC	501	ABS	2	1	24VO	0	1	0.818403959274	None	None	None	None	1
1.7	2015_Jul_22_0911	s	s	5	3	SIC	502	RC	2	2	23VD	1	0	0.8065969944	315.0	242.0	318	241	1
1.7	2015_Jul_22_0911	s	s	5	3	SIC	503	RC	0	2	23RD	1	0	0.599643945694	173.0	-30.0	171	-35	1
1.7	2015_Jul_22_0911	s	s	5	3	SIC	504	ABS	1	0	24MC	0	1	5.7294819355	None	None	None	None	1
1.7	2015_Jul_22_0911	s	s	5	3	SIC	505	ABS	1	2	24MD	0	1	0.795133113861	None	None	None	None	1
1.7	2015_Jul_22_0911	s	s	5	3	SIC	506	RC	1	1	23MO	1	0	1.54749011993	258.0	-345.0	261	-347	1
1.7	2015_Jul_22_0911	s	s	5	3	SIC	507	ABS	2	2	24VD	0	1	0.736236095428	None	None	None	None	1
1.7	2015_Jul_22_0911	s	s	5	3	SIC	508	ABS	1	1	24MO	0	1	3.50698709488	None	None	None	None	1
1.7	2015_Jul_22_0911	s	s	5	3	SIC	509	RC	2	0	23VC	1	0	0.806840181351	376.0	401.0	374	400	1
1.7	2015_Jul_22_0911	s	s	5	3	SIC	510	RC	2	1	23VO	1	0	0.488857984543	444.0	334.0	447	335	1
1.7	2015_Jul_22_0911	s	s	5	3	SIC	511	ABS	2	0	24VC	0	1	0.677126169205	None	None	None	None	1
1.7	2015_Jul_22_0911	s	s	5	3	SIC	512	RC	1	0	23MC	1	0	0.953092098236	-320.0	-48.0	-320	-52	1
1.7	2015_Jul_22_0911	s	s	5	3	SIC	513	ABS	1	2	24MD	0	1	0.768184185028	None	None	None	None	1
1.7	2015_Jul_22_0911	s	s	5	3	SIC	514	ABS	2	1	24VO	0	1	0.762219190598	None	None	None	None	1
1.7	2015_Jul_22_0911	s	s	5	3	SIC	515	RC	1	2	23MD	1	0	0.698036909103	-467.0	95.0	-473	91	1
1.7	2015_Jul_22_0911	s	s	5	3	SIC	516	ABS	2	0	24VC	0	1	0.726851940155	None	None	None	None	1
1.7	2015_Jul_22_0911	s	s	5	3	SIC	517	ABS	0	1	24RO	0	1	5.72011709213	None	None	None	None	1
1.7	2015_Jul_22_0911	s	s	5	3	SIC	518	RC	0	1	23RO	1	0	4.17239499092	69.0	-331.0	67	-329	1
1.7	2015_Jul_22_0911	s	s	5	3	SIC	519	ABS	0	2	24RD	0	1	3.99767804146	None	None	None	None	1
1.7	2015_Jul_22_0911	s	s	5	3	SIC	520	RC	0	2	23RD	1	0	0.988054037094	-40.0	87.0	-36	82	1
1.7	2015_Jul_22_0911	s	s	5	3	SIC	521	ABS	1	0	24MC	0	1	6.36725401878	None	None	None	None	1
1.7	2015_Jul_22_0911	s	s	5	3	SIC	522	RC	1	0	23MC	1	0	4.70747900009	-320.0	250.0	-320	252	1
1.7	2015_Jul_22_0911	s	s	5	3	SIC	523	RC	2	0	23VC	1	0	0.759281873703	484.0	-346.0	486	-349	1
1.7	2015_Jul_22_0911	s	s	5	3	SIC	524	RC	2	1	23VO	1	0	0.729132890701	-110.0	146.0	-118	146	1
1.7	2015_Jul_22_0911	s	s	5	3	SIC	525	ABS	2	2	24VD	0	1	2.73682904243	None	None	None	None	1
1.7	2015_Jul_22_0911	s	s	5	3	SIC	526	RC	1	1	23MO	1	0	0.961308956146	2.0	-10.0	6	-15	1
1.7	2015_Jul_22_0911	s	s	5	3	SIC	527	ABS	1	1	24MO	0	1	2.97750997543	None	None	None	None	1
1.7	2015_Jul_22_0911	s	s	5	3	SIC	528	RC	2	2	23VD	1	0	0.917464017868	401.0	-134.0	402	-139	1
1.7	2015_Jul_22_0911	s	s	5	3	SIC	529	ABS	1	0	24MC	0	1	5.29326295853	None	None	None	None	1
1.7	2015_Jul_22_0911	s	s	5	3	SIC	530	ABS	2	2	24VD	0	1	0.799842119217	None	None	None	None	1
1.7	2015_Jul_22_0911	s	s	5	3	SIC	531	ABS	2	0	24VC	0	1	1.21172189713	None	None	None	None	1
1.7	2015_Jul_22_0911	s	s	5	3	SIC	532	RC	2	0	23VC	1	0	0.936325073242	-390.0	312.0	-392	318	1
1.7	2015_Jul_22_0911	s	s	5	3	SIC	533	ABS	1	2	24MD	0	1	1.41182208061	None	None	None	None	1
1.7	2015_Jul_22_0911	s	s	5	3	SIC	534	RC	0	2	23RD	1	0	1.2773039341	-241.0	-167.0	-240	-171	1
1.7	2015_Jul_22_0911	s	s	5	3	SIC	535	RC	1	1	23MO	1	0	0.830080032349	135.0	318.0	130	316	1
1.7	2015_Jul_22_0911	s	s	5	3	SIC	536	ABS	1	1	24MO	0	1	3.106798172	None	None	None	None	1
1.7	2015_Jul_22_0911	s	s	5	3	SIC	537	ABS	0	2	24RD	0	1	1.37652206421	None	None	None	None	1
1.7	2015_Jul_22_0911	s	s	5	3	SIC	538	ABS	2	1	24VO	0	1	0.846918106079	None	None	None	None	1
1.7	2015_Jul_22_0911	s	s	5	3	SIC	539	RC	1	0	23MC	1	0	3.33043503761	-34.0	-42.0	-34	-36	1
1.7	2015_Jul_22_0911	s	s	5	3	SIC	540	RC	2	2	23VD	1	0	0.807847976685	490.0	4.0	486	1	1
1.7	2015_Jul_22_0911	s	s	5	3	SIC	541	RC	0	1	23RO	1	0	2.6194357872	-250.0	386.0	-243	385	1
1.7	2015_Jul_22_0911	s	s	5	3	SIC	542	RC	1	2	23MD	1	0	0.524055957794	-103.0	81.0	-113	84	1
1.7	2015_Jul_22_0911	s	s	5	3	SIC	543	RC	2	1	23VO	1	0	0.524111032486	-204.0	124.0	-204	130	1
1.7	2015_Jul_22_0911	s	s	5	3	SIC	544	ABS	0	1	24RO	0	1	7.58636116982	None	None	None	None	1
1.7	2015_Jul_22_0911	s	s	5	3	SIC	545	ABS	2	2	24VD	0	1	0.876559972763	None	None	None	None	1
1.7	2015_Jul_22_0911	s	s	5	3	SIC	546	RC	1	2	23MD	1	0	0.682201147079	131.0	-51.0	138	-50	1
1.7	2015_Jul_22_0911	s	s	5	3	SIC	547	ABS	2	1	24VO	0	1	0.846728086472	None	None	None	None	1
1.7	2015_Jul_22_0911	s	s	5	3	SIC	548	RC	0	1	23RO	1	0	1.48249006271	-15.0	-190.0	-12	-184	1
1.7	2015_Jul_22_0911	s	s	5	3	SIC	549	ABS	1	0	24MC	0	1	3.74804282188	None	None	None	None	1
1.7	2015_Jul_22_0911	s	s	5	3	SIC	550	RC	0	2	23RD	1	0	0.59969496727	213.0	6.0	202	6	1
1.7	2015_Jul_22_0911	s	s	5	3	SIC	551	RC	1	0	23MC	1	0	2.29465508461	371.0	59.0	370	62	1
1.7	2015_Jul_22_0911	s	s	5	3	SIC	552	RC	1	1	23MO	1	0	0.529010057449	218.0	153.0	207	156	1
1.7	2015_Jul_22_0911	s	s	5	3	SIC	553	ABS	1	1	24MO	0	1	2.09018707275	None	None	None	None	1
1.7	2015_Jul_22_0911	s	s	5	3	SIC	554	ABS	0	2	24RD	0	1	2.14160513878	None	None	None	None	1
1.7	2015_Jul_22_0911	s	s	5	3	SIC	555	RC	2	1	23VO	1	0	0.642657995224	73.0	187.0	65	183	1
1.7	2015_Jul_22_0911	s	s	5	3	SIC	556	RC	2	2	23VD	1	0	0.538464069366	412.0	266.0	404	262	1
1.7	2015_Jul_22_0911	s	s	5	3	SIC	557	ABS	1	2	24MD	0	1	0.665651082993	None	None	None	None	1
1.7	2015_Jul_22_0911	s	s	5	3	SIC	558	ABS	2	0	24VC	0	1	0.72579908371	None	None	None	None	1
1.7	2015_Jul_22_0911	s	s	5	3	SIC	559	ABS	0	1	24RO	0	1	4.67222094536	None	None	None	None	1
1.7	2015_Jul_22_0911	s	s	5	3	SIC	560	RC	2	0	23VC	1	0	0.561918020248	-395.0	136.0	-402	129	1
1.7	2015_Jul_22_0911	s	s	5	3	SIC	561	ABS	2	0	24VC	0	1	0.658510923386	None	None	None	None	1
1.7	2015_Jul_22_0911	s	s	5	3	SIC	562	ABS	1	2	24MD	0	1	0.67715883255	None	None	None	None	1
1.7	2015_Jul_22_0911	s	s	5	3	SIC	563	RC	1	2	23MD	1	0	0.52396607399	270.0	29.0	272	29	1
1.7	2015_Jul_22_0911	s	s	5	3	SIC	564	RC	2	2	23VD	1	0	0.540847063065	-339.0	-309.0	-346	-315	1
1.7	2015_Jul_22_0911	s	s	5	3	SIC	565	ABS	1	1	24MO	0	1	1.63056707382	None	None	None	None	1
1.7	2015_Jul_22_0911	s	s	5	3	SIC	566	RC	0	2	23RD	1	0	0.559295892715	-288.0	-357.0	-293	-365	1
1.7	2015_Jul_22_0911	s	s	5	3	SIC	567	RC	1	1	23MO	1	0	1.10585999489	11.0	-391.0	7	-386	1
1.7	2015_Jul_22_0911	s	s	5	3	SIC	568	ABS	1	0	24MC	0	1	4.1306951046	None	None	None	None	1
1.7	2015_Jul_22_0911	s	s	5	3	SIC	569	RC	0	1	23RO	0	1	6.15117096901	407.0	363.0	None	None	0
1.7	2015_Jul_22_0911	s	s	5	3	SIC	570	ABS	0	1	24RO	0	1	5.7433590889	None	None	None	None	1
1.7	2015_Jul_22_0911	s	s	5	3	SIC	571	RC	2	0	23VC	1	0	0.729191064835	-68.0	398.0	-63	399	1
1.7	2015_Jul_22_0911	s	s	5	3	SIC	572	RC	1	0	23MC	1	0	3.56026411057	162.0	-352.0	164	-360	1
1.7	2015_Jul_22_0911	s	s	5	3	SIC	573	ABS	2	1	24VO	0	1	0.77618098259	None	None	None	None	1
1.7	2015_Jul_22_0911	s	s	5	3	SIC	574	RC	2	1	23VO	1	0	0.735881090164	534.0	261.0	535	264	1
1.7	2015_Jul_22_0911	s	s	5	3	SIC	575	ABS	0	2	24RD	0	1	1.22350597382	None	None	None	None	1
1.7	2015_Jul_22_0911	s	s	5	3	SIC	576	ABS	2	2	24VD	0	1	0.705634117126	None	None	None	None	1
1.7	2015_Jul_22_0911	s	s	5	3	SIC	577	ABS	2	1	24VO	0	1	0.653290987015	None	None	None	None	1
1.7	2015_Jul_22_0911	s	s	5	3	SIC	578	RC	2	2	23VD	1	0	0.611340999603	-509.0	-113.0	-505	-119	1
1.7	2015_Jul_22_0911	s	s	5	3	SIC	579	RC	1	2	23MD	1	0	0.561777114868	253.0	-17.0	254	-13	1
1.7	2015_Jul_22_0911	s	s	5	3	SIC	580	ABS	2	2	24VD	0	1	0.651607990265	None	None	None	None	1
1.7	2015_Jul_22_0911	s	s	5	3	SIC	581	ABS	0	2	24RD	0	1	0.917420864105	None	None	None	None	1
1.7	2015_Jul_22_0911	s	s	5	3	SIC	582	ABS	1	2	24MD	0	1	0.970778942108	None	None	None	None	1
1.7	2015_Jul_22_0911	s	s	5	3	SIC	583	ABS	0	1	24RO	0	1	12.9587318897	None	None	None	None	1
1.7	2015_Jul_22_0911	s	s	5	3	SIC	584	RC	0	2	23RD	1	0	0.92450094223	-432.0	124.0	-438	122	1
1.7	2015_Jul_22_0911	s	s	5	3	SIC	585	RC	1	1	23MO	1	0	0.794267177582	-330.0	-9.0	-332	-9	1
1.7	2015_Jul_22_0911	s	s	5	3	SIC	586	ABS	1	0	24MC	0	1	5.20192694664	None	None	None	None	1
1.7	2015_Jul_22_0911	s	s	5	3	SIC	587	RC	0	1	23RO	1	0	4.5193400383	-276.0	350.0	-267	356	1
1.7	2015_Jul_22_0911	s	s	5	3	SIC	588	RC	2	1	23VO	1	0	0.540676116943	-55.0	105.0	-49	106	1
1.7	2015_Jul_22_0911	s	s	5	3	SIC	589	RC	2	0	23VC	1	0	0.517267942429	183.0	-196.0	181	-201	1
1.7	2015_Jul_22_0911	s	s	5	3	SIC	590	RC	1	0	23MC	1	0	4.51921916008	-296.0	401.0	-298	402	1
1.7	2015_Jul_22_0911	s	s	5	3	SIC	591	ABS	1	1	24MO	0	1	4.04840803146	None	None	None	None	1
1.7	2015_Jul_22_0911	s	s	5	3	SIC	592	ABS	2	0	24VC	0	1	0.71117401123	None	None	None	None	1
