Version	Date	Stimuli	Method	Subject	Session	Condition	Trial	Target	Channel1	Channel2	Distractors	LMouseButton	RMouseButton	RT	TargetX	TargetY	ResponseX	ResponseY	Correct
1.7	2015_Jul_21_1704	s	s	5	2	Capacity	1	ABS	2	0	24VC	0	1	2.04225182533	None	None	None	None	1
1.7	2015_Jul_21_1704	s	s	5	2	Capacity	2	RC	1	0	23MC	0	1	10.6454188824	129.0	186.0	None	None	0
1.7	2015_Jul_21_1704	s	s	5	2	Capacity	3	ABS	1	0	24MC	0	1	15.6542630196	None	None	None	None	1
1.7	2015_Jul_21_1704	s	s	5	2	Capacity	4	RC	2	0	23VC	1	0	1.21882200241	-232.0	154.0	-231	146	1
1.7	2015_Jul_21_1704	s	s	5	2	Capacity	5	RC	2	0	23VC	1	0	0.900274991989	535.0	260.0	534	257	1
1.7	2015_Jul_21_1704	s	s	5	2	Capacity	6	ABS	2	0	24VC	0	1	2.51321005821	None	None	None	None	1
1.7	2015_Jul_21_1704	s	s	5	2	Capacity	7	ABS	1	0	24MC	0	1	15.9249951839	None	None	None	None	1
1.7	2015_Jul_21_1704	s	s	5	2	Capacity	8	RC	1	0	23MC	1	0	4.48377919197	-488.0	381.0	-484	378	1
1.7	2015_Jul_21_1704	s	s	5	2	Capacity	9	RC	1	0	23MC	1	0	15.8141181469	-287.0	-288.0	-289	-283	1
1.7	2015_Jul_21_1704	s	s	5	2	Capacity	10	ABS	1	0	24MC	0	1	14.3063850403	None	None	None	None	1
1.7	2015_Jul_21_1704	s	s	5	2	Capacity	11	ABS	2	0	24VC	0	1	1.50595211983	None	None	None	None	1
1.7	2015_Jul_21_1704	s	s	5	2	Capacity	12	RC	2	0	23VC	1	0	0.835105895996	99.0	-144.0	98	-158	1
1.7	2015_Jul_21_1704	s	s	5	2	Capacity	13	RC	2	0	23VC	1	0	1.50279092789	-45.0	-305.0	-42	-308	1
1.7	2015_Jul_21_1704	s	s	5	2	Capacity	14	ABS	1	0	24MC	1	0	13.942814827	None	None	-175	-195	0
1.7	2015_Jul_21_1704	s	s	5	2	Capacity	15	RC	1	0	23MC	1	0	11.494273901	359.0	287.0	351	289	1
1.7	2015_Jul_21_1704	s	s	5	2	Capacity	16	ABS	2	0	24VC	0	1	1.59532999992	None	None	None	None	1
1.7	2015_Jul_21_1704	s	s	5	2	Capacity	17	RC	1	0	23MC	1	0	6.71531009674	-95.0	211.0	-90	206	1
1.7	2015_Jul_21_1704	s	s	5	2	Capacity	18	ABS	2	0	24VC	0	1	1.360049963	None	None	None	None	1
1.7	2015_Jul_21_1704	s	s	5	2	Capacity	19	ABS	1	0	24MC	0	1	9.99264597893	None	None	None	None	1
1.7	2015_Jul_21_1704	s	s	5	2	Capacity	20	RC	2	0	23VC	1	0	0.882149934769	-481.0	1.0	-472	3	1
1.7	2015_Jul_21_1704	s	s	5	2	Capacity	21	RC	1	0	23MC	1	0	7.65840601921	115.0	275.0	110	277	1
1.7	2015_Jul_21_1704	s	s	5	2	Capacity	22	RC	2	0	23VC	1	0	0.818671941757	148.0	315.0	148	316	1
1.7	2015_Jul_21_1704	s	s	5	2	Capacity	23	ABS	1	0	24MC	0	1	12.2409749031	None	None	None	None	1
1.7	2015_Jul_21_1704	s	s	5	2	Capacity	24	ABS	2	0	24VC	0	1	1.21919202805	None	None	None	None	1
1.7	2015_Jul_21_1704	s	s	5	2	Capacity	25	RC	1	0	23MC	1	0	3.75132799149	-405.0	47.0	-405	51	1
1.7	2015_Jul_21_1704	s	s	5	2	Capacity	26	ABS	1	0	24MC	0	1	10.6555540562	None	None	None	None	1
1.7	2015_Jul_21_1704	s	s	5	2	Capacity	27	ABS	2	0	24VC	0	1	1.13620305061	None	None	None	None	1
1.7	2015_Jul_21_1704	s	s	5	2	Capacity	28	RC	2	0	23VC	1	0	0.717329978943	30.0	387.0	32	388	1
1.7	2015_Jul_21_1704	s	s	5	2	Capacity	29	ABS	1	0	24MC	0	1	13.5674238205	None	None	None	None	1
1.7	2015_Jul_21_1704	s	s	5	2	Capacity	30	RC	1	0	23MC	1	0	12.1819190979	176.0	-311.0	175	-315	1
1.7	2015_Jul_21_1704	s	s	5	2	Capacity	31	RC	2	0	23VC	1	0	0.771468877792	-233.0	-279.0	-241	-274	1
1.7	2015_Jul_21_1704	s	s	5	2	Capacity	32	ABS	2	0	24VC	0	1	1.13640189171	None	None	None	None	1
1.7	2015_Jul_21_1704	s	s	5	2	Capacity	33	RC	2	0	23VC	1	0	0.729162931442	-133.0	-280.0	-122	-280	1
1.7	2015_Jul_21_1704	s	s	5	2	Capacity	34	ABS	2	0	24VC	0	1	1.34767484665	None	None	None	None	1
1.7	2015_Jul_21_1704	s	s	5	2	Capacity	35	RC	1	0	23MC	1	0	17.7260119915	237.0	-256.0	238	-254	1
1.7	2015_Jul_21_1704	s	s	5	2	Capacity	36	ABS	1	0	24MC	0	1	10.1691758633	None	None	None	None	1
1.7	2015_Jul_21_1704	s	s	5	2	Capacity	37	RC	1	0	23MC	1	0	10.1644420624	-452.0	-212.0	-447	-211	1
1.7	2015_Jul_21_1704	s	s	5	2	Capacity	38	ABS	2	0	24VC	0	1	1.03226518631	None	None	None	None	1
1.7	2015_Jul_21_1704	s	s	5	2	Capacity	39	RC	2	0	23VC	1	0	0.996478796005	-287.0	-31.0	-287	-26	1
1.7	2015_Jul_21_1704	s	s	5	2	Capacity	40	ABS	1	0	24MC	0	1	11.0494289398	None	None	None	None	1
1.7	2015_Jul_21_1704	s	s	5	2	Capacity	41	RC	1	0	23MC	1	0	6.05616903305	460.0	294.0	461	297	1
1.7	2015_Jul_21_1704	s	s	5	2	Capacity	42	ABS	2	0	24VC	0	1	1.16465497017	None	None	None	None	1
1.7	2015_Jul_21_1704	s	s	5	2	Capacity	43	RC	2	0	23VC	1	0	1.14111804962	6.0	94.0	0	93	1
1.7	2015_Jul_21_1704	s	s	5	2	Capacity	44	ABS	1	0	24MC	0	1	11.2966890335	None	None	None	None	1
1.7	2015_Jul_21_1704	s	s	5	2	Capacity	45	RC	1	0	23MC	1	0	6.16699409485	-114.0	-190.0	-114	-191	1
1.7	2015_Jul_21_1704	s	s	5	2	Capacity	46	ABS	2	0	24VC	0	1	1.21558690071	None	None	None	None	1
1.7	2015_Jul_21_1704	s	s	5	2	Capacity	47	ABS	1	0	24MC	0	1	18.9499380589	None	None	None	None	1
1.7	2015_Jul_21_1704	s	s	5	2	Capacity	48	RC	2	0	23VC	1	0	0.877867937088	516.0	372.0	515	370	1
1.7	2015_Jul_21_1704	s	s	5	2	Capacity	49	RC	1	0	23MC	1	0	4.31911492348	302.0	-149.0	308	-149	1
1.7	2015_Jul_21_1704	s	s	5	2	Capacity	50	RC	2	0	23VC	1	0	0.761531114578	119.0	303.0	114	299	1
1.7	2015_Jul_21_1704	s	s	5	2	Capacity	51	ABS	1	0	24MC	0	1	15.8425951004	None	None	None	None	1
1.7	2015_Jul_21_1704	s	s	5	2	Capacity	52	ABS	2	0	24VC	0	1	1.43543887138	None	None	None	None	1
1.7	2015_Jul_21_1704	s	s	5	2	Capacity	53	RC	1	0	23MC	1	0	16.0026841164	231.0	181.0	222	182	1
1.7	2015_Jul_21_1704	s	s	5	2	Capacity	54	ABS	1	0	24MC	0	1	11.2136218548	None	None	None	None	1
1.7	2015_Jul_21_1704	s	s	5	2	Capacity	55	ABS	2	0	24VC	0	1	0.971440076828	None	None	None	None	1
1.7	2015_Jul_21_1704	s	s	5	2	Capacity	56	RC	2	0	23VC	1	0	0.870347976685	-421.0	-93.0	-425	-83	1
1.7	2015_Jul_21_1704	s	s	5	2	Capacity	57	RC	2	0	23VC	1	0	0.999873161316	-192.0	269.0	-195	264	1
1.7	2015_Jul_21_1704	s	s	5	2	Capacity	58	RC	1	0	23MC	1	0	7.86213588715	-135.0	403.0	-135	411	1
1.7	2015_Jul_21_1704	s	s	5	2	Capacity	59	ABS	1	0	24MC	0	1	15.442440033	None	None	None	None	1
1.7	2015_Jul_21_1704	s	s	5	2	Capacity	60	ABS	2	0	24VC	0	1	1.00666284561	None	None	None	None	1
1.7	2015_Jul_21_1704	s	s	5	2	Capacity	61	RC	1	0	23MC	1	0	6.6850810051	200.0	202.0	191	210	1
1.7	2015_Jul_21_1704	s	s	5	2	Capacity	62	ABS	2	0	24VC	0	1	0.98363494873	None	None	None	None	1
1.7	2015_Jul_21_1704	s	s	5	2	Capacity	63	RC	2	0	23VC	1	0	0.705528020859	318.0	-51.0	326	-46	1
1.7	2015_Jul_21_1704	s	s	5	2	Capacity	64	ABS	1	0	24MC	0	1	14.5567560196	None	None	None	None	1
1.7	2015_Jul_21_1704	s	s	5	2	Capacity	65	RC	1	0	23MC	1	0	1.71267104149	-223.0	107.0	-230	106	1
1.7	2015_Jul_21_1704	s	s	5	2	Capacity	66	ABS	1	0	24MC	0	1	8.25749921799	None	None	None	None	1
1.7	2015_Jul_21_1704	s	s	5	2	Capacity	67	ABS	2	0	24VC	0	1	0.952813863754	None	None	None	None	1
1.7	2015_Jul_21_1704	s	s	5	2	Capacity	68	RC	2	0	23VC	1	0	0.870344161987	97.0	-273.0	100	-283	1
1.7	2015_Jul_21_1704	s	s	5	2	Capacity	69	ABS	2	0	24VC	0	1	0.973006010056	None	None	None	None	1
1.7	2015_Jul_21_1704	s	s	5	2	Capacity	70	RC	1	0	23MC	1	0	7.49722504616	-457.0	125.0	-459	120	1
1.7	2015_Jul_21_1704	s	s	5	2	Capacity	71	ABS	1	0	24MC	0	1	4.2202000618	None	None	None	None	1
1.7	2015_Jul_21_1704	s	s	5	2	Capacity	72	RC	2	0	23VC	1	0	0.667097091675	209.0	60.0	199	59	1
1.7	2015_Jul_21_1704	s	s	5	2	Capacity	73	ABS	2	0	24VC	0	1	1.09400010109	None	None	None	None	1
1.7	2015_Jul_21_1704	s	s	5	2	Capacity	74	RC	2	0	23VC	1	0	3.44814896584	-130.0	385.0	-130	385	1
1.7	2015_Jul_21_1704	s	s	5	2	Capacity	75	RC	1	0	23MC	1	0	16.5370080471	450.0	-336.0	455	-335	1
1.7	2015_Jul_21_1704	s	s	5	2	Capacity	76	ABS	1	0	24MC	0	1	14.9552628994	None	None	None	None	1
1.7	2015_Jul_21_1704	s	s	5	2	Capacity	77	ABS	2	0	24VC	0	1	0.905730962753	None	None	None	None	1
1.7	2015_Jul_21_1704	s	s	5	2	Capacity	78	RC	1	0	23MC	1	0	8.92142105103	9.0	-147.0	15	-145	1
1.7	2015_Jul_21_1704	s	s	5	2	Capacity	79	RC	2	0	23VC	1	0	0.88893198967	-382.0	303.0	-387	296	1
1.7	2015_Jul_21_1704	s	s	5	2	Capacity	80	ABS	1	0	24MC	0	1	8.26228618622	None	None	None	None	1
1.7	2015_Jul_21_1704	s	s	5	2	Capacity	81	RC	1	0	23MC	1	0	16.5547869205	333.0	5.0	331	-2	1
1.7	2015_Jul_21_1704	s	s	5	2	Capacity	82	ABS	2	0	24VC	0	1	1.31762599945	None	None	None	None	1
1.7	2015_Jul_21_1704	s	s	5	2	Capacity	83	ABS	1	0	24MC	0	1	18.1333868504	None	None	None	None	1
1.7	2015_Jul_21_1704	s	s	5	2	Capacity	84	RC	2	0	23VC	1	0	0.959524154663	-278.0	-43.0	-276	-36	1
1.7	2015_Jul_21_1704	s	s	5	2	Capacity	85	ABS	1	0	24MC	0	1	14.0146489143	None	None	None	None	1
1.7	2015_Jul_21_1704	s	s	5	2	Capacity	86	RC	2	0	23VC	1	0	0.76210308075	-99.0	163.0	-100	159	1
1.7	2015_Jul_21_1704	s	s	5	2	Capacity	87	ABS	2	0	24VC	0	1	0.877819061279	None	None	None	None	1
1.7	2015_Jul_21_1704	s	s	5	2	Capacity	88	RC	1	0	23MC	1	0	8.24606800079	-387.0	-118.0	-388	-123	1
1.7	2015_Jul_21_1704	s	s	5	2	Capacity	89	RC	1	0	23MC	1	0	15.1517848969	-90.0	-377.0	-88	-381	1
1.7	2015_Jul_21_1704	s	s	5	2	Capacity	90	RC	2	0	23VC	1	0	0.764461994171	337.0	-52.0	344	-52	1
1.7	2015_Jul_21_1704	s	s	5	2	Capacity	91	ABS	2	0	24VC	0	1	1.22352600098	None	None	None	None	1
1.7	2015_Jul_21_1704	s	s	5	2	Capacity	92	ABS	1	0	24MC	0	1	14.3665180206	None	None	None	None	1
1.7	2015_Jul_21_1704	s	s	5	2	Capacity	1	ABS	0	1	24RO	1	0	0.112030029297	None	None	1	32	0
1.7	2015_Jul_21_1704	s	s	5	2	Capacity	2	RC	0	2	23RD	1	0	1.34124398232	-170.0	-317.0	-165	-318	1
1.7	2015_Jul_21_1704	s	s	5	2	Capacity	3	RC	0	1	23RO	1	0	1.51252985001	-437.0	-98.0	-439	-92	1
1.7	2015_Jul_21_1704	s	s	5	2	Capacity	4	ABS	0	2	24RD	0	1	2.6667368412	None	None	None	None	1
1.7	2015_Jul_21_1704	s	s	5	2	Capacity	5	RC	0	1	23RO	1	0	4.078977108	-50.0	167.0	-59	172	1
1.7	2015_Jul_21_1704	s	s	5	2	Capacity	6	RC	0	2	23RD	1	0	0.737567901611	-81.0	406.0	-72	407	1
1.7	2015_Jul_21_1704	s	s	5	2	Capacity	7	ABS	0	2	24RD	0	1	2.0070579052	None	None	None	None	1
1.7	2015_Jul_21_1704	s	s	5	2	Capacity	8	ABS	0	1	24RO	0	1	8.00941181183	None	None	None	None	1
1.7	2015_Jul_21_1704	s	s	5	2	Capacity	9	RC	0	1	23RO	0	1	6.91495704651	111.0	-323.0	None	None	0
1.7	2015_Jul_21_1704	s	s	5	2	Capacity	10	RC	0	2	23RD	1	0	0.670127153397	-45.0	-76.0	-37	-74	1
1.7	2015_Jul_21_1704	s	s	5	2	Capacity	11	ABS	0	1	24RO	0	1	9.55200505257	None	None	None	None	1
1.7	2015_Jul_21_1704	s	s	5	2	Capacity	12	ABS	0	2	24RD	0	1	2.73740386963	None	None	None	None	1
1.7	2015_Jul_21_1704	s	s	5	2	Capacity	13	ABS	0	2	24RD	0	1	2.0543949604	None	None	None	None	1
1.7	2015_Jul_21_1704	s	s	5	2	Capacity	14	ABS	0	1	24RO	0	1	9.49825501442	None	None	None	None	1
1.7	2015_Jul_21_1704	s	s	5	2	Capacity	15	RC	0	1	23RO	1	0	5.09601306915	-424.0	277.0	-426	282	1
1.7	2015_Jul_21_1704	s	s	5	2	Capacity	16	RC	0	2	23RD	1	0	0.64192199707	-223.0	-49.0	-225	-50	1
1.7	2015_Jul_21_1704	s	s	5	2	Capacity	17	ABS	0	2	24RD	0	1	1.80026602745	None	None	None	None	1
1.7	2015_Jul_21_1704	s	s	5	2	Capacity	18	RC	0	1	23RO	1	0	5.59035301208	57.0	319.0	57	313	1
1.7	2015_Jul_21_1704	s	s	5	2	Capacity	19	ABS	0	1	24RO	0	1	7.67033696175	None	None	None	None	1
1.7	2015_Jul_21_1704	s	s	5	2	Capacity	20	RC	0	2	23RD	1	0	0.665773868561	-538.0	-184.0	-542	-179	1
1.7	2015_Jul_21_1704	s	s	5	2	Capacity	21	RC	0	2	23RD	1	0	0.576048851013	-321.0	-102.0	-317	-104	1
1.7	2015_Jul_21_1704	s	s	5	2	Capacity	22	ABS	0	1	24RO	0	1	5.79051113129	None	None	None	None	1
1.7	2015_Jul_21_1704	s	s	5	2	Capacity	23	ABS	0	2	24RD	0	1	1.34808897972	None	None	None	None	1
1.7	2015_Jul_21_1704	s	s	5	2	Capacity	24	RC	0	1	23RO	1	0	0.787844896317	-118.0	-12.0	-116	-12	1
1.7	2015_Jul_21_1704	s	s	5	2	Capacity	25	RC	0	2	23RD	1	0	0.974047899246	-319.0	292.0	-314	291	1
1.7	2015_Jul_21_1704	s	s	5	2	Capacity	26	RC	0	1	23RO	1	0	1.58337497711	-304.0	179.0	-301	188	1
1.7	2015_Jul_21_1704	s	s	5	2	Capacity	27	ABS	0	2	24RD	0	1	1.66520094872	None	None	None	None	1
1.7	2015_Jul_21_1704	s	s	5	2	Capacity	28	ABS	0	1	24RO	0	1	6.55016207695	None	None	None	None	1
1.7	2015_Jul_21_1704	s	s	5	2	Capacity	29	RC	0	1	23RO	1	0	1.47070288658	-372.0	-171.0	-382	-171	1
1.7	2015_Jul_21_1704	s	s	5	2	Capacity	30	ABS	0	2	24RD	0	1	1.68261599541	None	None	None	None	1
1.7	2015_Jul_21_1704	s	s	5	2	Capacity	31	ABS	0	1	24RO	0	1	6.22598695755	None	None	None	None	1
1.7	2015_Jul_21_1704	s	s	5	2	Capacity	32	RC	0	2	23RD	1	0	0.653005838394	446.0	-44.0	451	-43	1
1.7	2015_Jul_21_1704	s	s	5	2	Capacity	33	RC	0	2	23RD	1	0	0.729161024094	90.0	263.0	81	261	1
1.7	2015_Jul_21_1704	s	s	5	2	Capacity	34	ABS	0	2	24RD	0	1	1.03506803513	None	None	None	None	1
1.7	2015_Jul_21_1704	s	s	5	2	Capacity	35	ABS	0	1	24RO	0	1	7.44525885582	None	None	None	None	1
1.7	2015_Jul_21_1704	s	s	5	2	Capacity	36	RC	0	1	23RO	1	0	2.58884716034	303.0	-74.0	291	-72	1
1.7	2015_Jul_21_1704	s	s	5	2	Capacity	37	RC	0	1	23RO	1	0	1.45420598984	134.0	110.0	131	107	1
1.7	2015_Jul_21_1704	s	s	5	2	Capacity	38	RC	0	2	23RD	1	0	0.729135990143	-230.0	-289.0	-220	-286	1
1.7	2015_Jul_21_1704	s	s	5	2	Capacity	39	ABS	0	1	24RO	0	1	5.95011496544	None	None	None	None	1
1.7	2015_Jul_21_1704	s	s	5	2	Capacity	40	ABS	0	2	24RD	0	1	1.17647790909	None	None	None	None	1
1.7	2015_Jul_21_1704	s	s	5	2	Capacity	41	RC	0	2	23RD	1	0	0.794953107834	162.0	-383.0	162	-378	1
1.7	2015_Jul_21_1704	s	s	5	2	Capacity	42	RC	0	1	23RO	1	0	3.53056383133	358.0	361.0	350	360	1
1.7	2015_Jul_21_1704	s	s	5	2	Capacity	43	ABS	0	1	24RO	0	1	7.64530992508	None	None	None	None	1
1.7	2015_Jul_21_1704	s	s	5	2	Capacity	44	ABS	0	2	24RD	0	1	1.36461019516	None	None	None	None	1
1.7	2015_Jul_21_1704	s	s	5	2	Capacity	45	RC	0	1	23RO	1	0	2.3379509449	-430.0	-304.0	-440	-305	1
1.7	2015_Jul_21_1704	s	s	5	2	Capacity	46	ABS	0	1	24RO	0	1	7.23325204849	None	None	None	None	1
1.7	2015_Jul_21_1704	s	s	5	2	Capacity	47	ABS	0	2	24RD	0	1	1.08229708672	None	None	None	None	1
1.7	2015_Jul_21_1704	s	s	5	2	Capacity	48	RC	0	2	23RD	1	0	0.835092067719	-493.0	256.0	-496	254	1
1.7	2015_Jul_21_1704	s	s	5	2	Capacity	49	RC	0	2	23RD	1	0	0.811550140381	324.0	-29.0	320	-31	1
1.7	2015_Jul_21_1704	s	s	5	2	Capacity	50	RC	0	1	23RO	1	0	4.82018208504	130.0	225.0	132	221	1
1.7	2015_Jul_21_1704	s	s	5	2	Capacity	51	ABS	0	1	24RO	0	1	6.33867812157	None	None	None	None	1
1.7	2015_Jul_21_1704	s	s	5	2	Capacity	52	ABS	0	2	24RD	0	1	1.09409999847	None	None	None	None	1
1.7	2015_Jul_21_1704	s	s	5	2	Capacity	53	ABS	0	1	24RO	0	1	6.42123484612	None	None	None	None	1
1.7	2015_Jul_21_1704	s	s	5	2	Capacity	54	RC	0	2	23RD	1	0	0.858681917191	486.0	-169.0	491	-164	1
1.7	2015_Jul_21_1704	s	s	5	2	Capacity	55	ABS	0	2	24RD	0	1	1.5766479969	None	None	None	None	1
1.7	2015_Jul_21_1704	s	s	5	2	Capacity	56	RC	0	1	23RO	1	0	5.34322190285	439.0	115.0	444	119	1
1.7	2015_Jul_21_1704	s	s	5	2	Capacity	57	RC	0	2	23RD	1	0	0.874186038971	446.0	40.0	451	47	1
1.7	2015_Jul_21_1704	s	s	5	2	Capacity	58	RC	0	1	23RO	1	0	2.3957130909	2.0	-100.0	7	-105	1
1.7	2015_Jul_21_1704	s	s	5	2	Capacity	59	ABS	0	2	24RD	0	1	1.71784996986	None	None	None	None	1
1.7	2015_Jul_21_1704	s	s	5	2	Capacity	60	ABS	0	1	24RO	0	1	5.41381406784	None	None	None	None	1
1.7	2015_Jul_21_1704	s	s	5	2	Capacity	61	ABS	0	2	24RD	0	1	0.968599081039	None	None	None	None	1
1.7	2015_Jul_21_1704	s	s	5	2	Capacity	62	ABS	0	1	24RO	0	1	5.88469791412	None	None	None	None	1
1.7	2015_Jul_21_1704	s	s	5	2	Capacity	63	RC	0	2	23RD	1	0	0.764479875565	499.0	300.0	499	289	1
1.7	2015_Jul_21_1704	s	s	5	2	Capacity	64	RC	0	1	23RO	1	0	3.73743104935	174.0	329.0	178	332	1
1.7	2015_Jul_21_1704	s	s	5	2	Capacity	65	RC	0	2	23RD	1	0	1.16036009789	338.0	-301.0	341	-299	1
1.7	2015_Jul_21_1704	s	s	5	2	Capacity	66	ABS	0	1	24RO	0	1	8.19783711433	None	None	None	None	1
1.7	2015_Jul_21_1704	s	s	5	2	Capacity	67	RC	0	1	23RO	1	0	4.45804905891	-33.0	158.0	-23	165	1
1.7	2015_Jul_21_1704	s	s	5	2	Capacity	68	ABS	0	2	24RD	0	1	1.19403505325	None	None	None	None	1
1.7	2015_Jul_21_1704	s	s	5	2	Capacity	69	ABS	0	1	24RO	0	1	4.12279295921	None	None	None	None	1
1.7	2015_Jul_21_1704	s	s	5	2	Capacity	70	RC	0	2	23RD	1	0	0.785400867462	-314.0	-27.0	-312	-34	1
1.7	2015_Jul_21_1704	s	s	5	2	Capacity	71	RC	0	1	23RO	1	0	3.64821505547	-91.0	315.0	-99	318	1
1.7	2015_Jul_21_1704	s	s	5	2	Capacity	72	ABS	0	2	24RD	0	1	1.34127092361	None	None	None	None	1
1.7	2015_Jul_21_1704	s	s	5	2	Capacity	73	RC	0	2	23RD	1	0	0.846862792969	-426.0	373.0	-430	373	1
1.7	2015_Jul_21_1704	s	s	5	2	Capacity	74	RC	0	1	23RO	0	1	5.09601688385	495.0	-116.0	None	None	0
1.7	2015_Jul_21_1704	s	s	5	2	Capacity	75	ABS	0	2	24RD	0	1	1.05877995491	None	None	None	None	1
1.7	2015_Jul_21_1704	s	s	5	2	Capacity	76	ABS	0	1	24RO	0	1	6.55560612679	None	None	None	None	1
1.7	2015_Jul_21_1704	s	s	5	2	Capacity	77	RC	0	1	23RO	0	1	8.0342669487	-114.0	-100.0	None	None	0
1.7	2015_Jul_21_1704	s	s	5	2	Capacity	78	RC	0	2	23RD	1	0	0.679280996323	-162.0	91.0	-164	97	1
1.7	2015_Jul_21_1704	s	s	5	2	Capacity	79	ABS	0	1	24RO	0	1	8.43083691597	None	None	None	None	1
1.7	2015_Jul_21_1704	s	s	5	2	Capacity	80	ABS	0	2	24RD	0	1	1.22357702255	None	None	None	None	1
1.7	2015_Jul_21_1704	s	s	5	2	Capacity	81	RC	0	1	23RO	1	0	2.92518496513	242.0	94.0	240	90	1
1.7	2015_Jul_21_1704	s	s	5	2	Capacity	82	ABS	0	1	24RO	0	1	6.17397785187	None	None	None	None	1
1.7	2015_Jul_21_1704	s	s	5	2	Capacity	83	ABS	0	2	24RD	0	1	0.972821950912	None	None	None	None	1
1.7	2015_Jul_21_1704	s	s	5	2	Capacity	84	RC	0	2	23RD	1	0	1.56105685234	497.0	324.0	502	314	1
1.7	2015_Jul_21_1704	s	s	5	2	Capacity	85	RC	0	1	23RO	0	1	8.77807998657	387.0	273.0	None	None	0
1.7	2015_Jul_21_1704	s	s	5	2	Capacity	86	ABS	0	1	24RO	0	1	7.50900793076	None	None	None	None	1
1.7	2015_Jul_21_1704	s	s	5	2	Capacity	87	ABS	0	2	24RD	0	1	1.18329191208	None	None	None	None	1
1.7	2015_Jul_21_1704	s	s	5	2	Capacity	88	RC	0	2	23RD	1	0	0.846848964691	-501.0	113.0	-501	106	1
1.7	2015_Jul_21_1704	s	s	5	2	Capacity	89	ABS	0	1	24RO	0	1	7.19802093506	None	None	None	None	1
1.7	2015_Jul_21_1704	s	s	5	2	Capacity	90	RC	0	2	23RD	1	0	0.688898086548	-81.0	-62.0	-75	-60	1
1.7	2015_Jul_21_1704	s	s	5	2	Capacity	91	RC	0	1	23RO	1	0	3.2194609642	-10.0	-338.0	-6	-332	1
1.7	2015_Jul_21_1704	s	s	5	2	Capacity	92	ABS	0	2	24RD	0	1	1.10598897934	None	None	None	None	1
1.7	2015_Jul_21_1704	s	s	5	2	SIC	1	RC	1	2	23MD	1	0	0.983116865158	-181.0	-169.0	-180	-162	1
1.7	2015_Jul_21_1704	s	s	5	2	SIC	2	RC	0	2	23RD	1	0	0.57275891304	-264.0	4.0	-261	13	1
1.7	2015_Jul_21_1704	s	s	5	2	SIC	3	ABS	2	2	24VD	0	1	1.72970104218	None	None	None	None	1
1.7	2015_Jul_21_1704	s	s	5	2	SIC	4	ABS	0	1	24RO	0	1	8.59230303764	None	None	None	None	1
1.7	2015_Jul_21_1704	s	s	5	2	SIC	5	ABS	1	0	24MC	0	1	8.97228097916	None	None	None	None	1
1.7	2015_Jul_21_1704	s	s	5	2	SIC	6	RC	2	0	23VC	1	0	0.961186170578	23.0	-113.0	19	-117	1
1.7	2015_Jul_21_1704	s	s	5	2	SIC	7	ABS	2	1	24VO	0	1	0.92694401741	None	None	None	None	1
1.7	2015_Jul_21_1704	s	s	5	2	SIC	8	RC	1	0	23MC	1	0	4.42878293991	-262.0	-242.0	-257	-238	1
1.7	2015_Jul_21_1704	s	s	5	2	SIC	9	RC	2	1	23VO	1	0	0.865488052368	-35.0	181.0	-40	177	1
1.7	2015_Jul_21_1704	s	s	5	2	SIC	10	RC	0	1	23RO	1	0	1.57179498672	-403.0	89.0	-406	84	1
1.7	2015_Jul_21_1704	s	s	5	2	SIC	11	RC	1	1	23MO	1	0	0.983296871185	-76.0	-255.0	-73	-246	1
1.7	2015_Jul_21_1704	s	s	5	2	SIC	12	RC	2	2	23VD	1	0	0.658374071121	453.0	250.0	460	245	1
1.7	2015_Jul_21_1704	s	s	5	2	SIC	13	ABS	2	0	24VC	0	1	0.9128241539	None	None	None	None	1
1.7	2015_Jul_21_1704	s	s	5	2	SIC	14	ABS	1	2	24MD	0	1	1.06794691086	None	None	None	None	1
1.7	2015_Jul_21_1704	s	s	5	2	SIC	15	ABS	1	1	24MO	0	1	5.99653816223	None	None	None	None	1
1.7	2015_Jul_21_1704	s	s	5	2	SIC	16	ABS	0	2	24RD	0	1	1.00679087639	None	None	None	None	1
1.7	2015_Jul_21_1704	s	s	5	2	SIC	17	ABS	0	2	24RD	0	1	1.1295580864	None	None	None	None	1
1.7	2015_Jul_21_1704	s	s	5	2	SIC	18	RC	2	1	23VO	1	0	0.717393159866	-343.0	-103.0	-333	-103	1
1.7	2015_Jul_21_1704	s	s	5	2	SIC	19	RC	2	0	23VC	1	0	1.08226799965	-241.0	254.0	-244	246	1
1.7	2015_Jul_21_1704	s	s	5	2	SIC	20	ABS	1	2	24MD	0	1	0.976288795471	None	None	None	None	1
1.7	2015_Jul_21_1704	s	s	5	2	SIC	21	RC	1	1	23MO	1	0	2.37243318558	302.0	372.0	298	370	1
1.7	2015_Jul_21_1704	s	s	5	2	SIC	22	RC	0	1	23RO	1	0	3.38576579094	472.0	-118.0	468	-112	1
1.7	2015_Jul_21_1704	s	s	5	2	SIC	23	RC	1	0	23MC	1	0	14.0181100368	-216.0	-365.0	-216	-370	1
1.7	2015_Jul_21_1704	s	s	5	2	SIC	24	ABS	0	1	24RO	0	1	7.49725079536	None	None	None	None	1
1.7	2015_Jul_21_1704	s	s	5	2	SIC	25	RC	1	2	23MD	1	0	0.81836104393	-485.0	-245.0	-485	-236	1
1.7	2015_Jul_21_1704	s	s	5	2	SIC	26	ABS	2	1	24VO	0	1	1.1057639122	None	None	None	None	1
1.7	2015_Jul_21_1704	s	s	5	2	SIC	27	ABS	1	1	24MO	0	1	6.16715216637	None	None	None	None	1
1.7	2015_Jul_21_1704	s	s	5	2	SIC	28	RC	0	2	23RD	1	0	0.724541902542	60.0	396.0	59	398	1
1.7	2015_Jul_21_1704	s	s	5	2	SIC	29	ABS	2	2	24VD	0	1	0.764417886734	None	None	None	None	1
1.7	2015_Jul_21_1704	s	s	5	2	SIC	30	ABS	2	0	24VC	0	1	1.55317592621	None	None	None	None	1
1.7	2015_Jul_21_1704	s	s	5	2	SIC	31	ABS	1	0	24MC	0	1	7.46196889877	None	None	None	None	1
1.7	2015_Jul_21_1704	s	s	5	2	SIC	32	RC	2	2	23VD	1	0	0.723032951355	-66.0	99.0	-67	91	1
1.7	2015_Jul_21_1704	s	s	5	2	SIC	33	ABS	1	0	24MC	0	1	7.76819109917	None	None	None	None	1
1.7	2015_Jul_21_1704	s	s	5	2	SIC	34	RC	2	0	23VC	1	0	0.634948015213	-409.0	104.0	-406	106	1
1.7	2015_Jul_21_1704	s	s	5	2	SIC	35	RC	1	1	23MO	1	0	2.1152639389	282.0	197.0	286	191	1
1.7	2015_Jul_21_1704	s	s	5	2	SIC	36	ABS	0	1	24RO	0	1	6.81447100639	None	None	None	None	1
1.7	2015_Jul_21_1704	s	s	5	2	SIC	37	ABS	2	2	24VD	0	1	0.917491197586	None	None	None	None	1
1.7	2015_Jul_21_1704	s	s	5	2	SIC	38	ABS	2	0	24VC	0	1	0.888521194458	None	None	None	None	1
1.7	2015_Jul_21_1704	s	s	5	2	SIC	39	RC	1	0	23MC	1	0	5.89636802673	486.0	-76.0	494	-82	1
1.7	2015_Jul_21_1704	s	s	5	2	SIC	40	ABS	2	1	24VO	0	1	1.04187512398	None	None	None	None	1
1.7	2015_Jul_21_1704	s	s	5	2	SIC	41	RC	0	2	23RD	1	0	0.835055828094	-288.0	-187.0	-294	-186	1
1.7	2015_Jul_21_1704	s	s	5	2	SIC	42	ABS	1	1	24MO	0	1	4.13686704636	None	None	None	None	1
1.7	2015_Jul_21_1704	s	s	5	2	SIC	43	RC	2	2	23VD	1	0	0.606091976166	262.0	101.0	257	92	1
1.7	2015_Jul_21_1704	s	s	5	2	SIC	44	ABS	0	2	24RD	0	1	1.91296601295	None	None	None	None	1
1.7	2015_Jul_21_1704	s	s	5	2	SIC	45	RC	0	1	23RO	1	0	1.75036907196	-507.0	-147.0	-512	-145	1
1.7	2015_Jul_21_1704	s	s	5	2	SIC	46	ABS	1	2	24MD	0	1	0.823297023773	None	None	None	None	1
1.7	2015_Jul_21_1704	s	s	5	2	SIC	47	RC	2	1	23VO	1	0	0.653450965881	-104.0	-34.0	-94	-32	1
1.7	2015_Jul_21_1704	s	s	5	2	SIC	48	RC	1	2	23MD	1	0	0.547544002533	-160.0	213.0	-158	208	1
1.7	2015_Jul_21_1704	s	s	5	2	SIC	49	RC	1	1	23MO	1	0	1.21843600273	527.0	-91.0	523	-87	1
1.7	2015_Jul_21_1704	s	s	5	2	SIC	50	RC	0	2	23RD	1	0	0.858663082123	364.0	-190.0	359	-181	1
1.7	2015_Jul_21_1704	s	s	5	2	SIC	51	ABS	0	1	24RO	0	1	9.05885601044	None	None	None	None	1
1.7	2015_Jul_21_1704	s	s	5	2	SIC	52	RC	2	0	23VC	1	0	0.547523975372	-45.0	61.0	-45	68	1
1.7	2015_Jul_21_1704	s	s	5	2	SIC	53	RC	2	2	23VD	1	0	0.552535057068	-299.0	31.0	-300	38	1
1.7	2015_Jul_21_1704	s	s	5	2	SIC	54	ABS	0	2	24RD	0	1	1.26557803154	None	None	None	None	1
1.7	2015_Jul_21_1704	s	s	5	2	SIC	55	ABS	1	0	24MC	0	1	5.41402196884	None	None	None	None	1
1.7	2015_Jul_21_1704	s	s	5	2	SIC	56	ABS	1	1	24MO	0	1	4.86750006676	None	None	None	None	1
1.7	2015_Jul_21_1704	s	s	5	2	SIC	57	ABS	2	0	24VC	0	1	1.04191184044	None	None	None	None	1
1.7	2015_Jul_21_1704	s	s	5	2	SIC	58	RC	0	1	23RO	0	1	6.12004899979	-500.0	-156.0	None	None	0
1.7	2015_Jul_21_1704	s	s	5	2	SIC	59	ABS	2	2	24VD	0	1	1.79709410667	None	None	None	None	1
1.7	2015_Jul_21_1704	s	s	5	2	SIC	60	RC	2	1	23VO	1	0	0.618360042572	-254.0	217.0	-254	214	1
1.7	2015_Jul_21_1704	s	s	5	2	SIC	61	RC	1	2	23MD	1	0	0.917494058609	126.0	-356.0	131	-354	1
1.7	2015_Jul_21_1704	s	s	5	2	SIC	62	ABS	2	1	24VO	0	1	1.07033014297	None	None	None	None	1
1.7	2015_Jul_21_1704	s	s	5	2	SIC	63	ABS	1	2	24MD	0	1	1.9270939827	None	None	None	None	1
1.7	2015_Jul_21_1704	s	s	5	2	SIC	64	RC	1	0	23MC	1	0	2.16010713577	93.0	-307.0	100	-309	1
1.7	2015_Jul_21_1704	s	s	5	2	SIC	65	ABS	1	1	24MO	0	1	5.79825282097	None	None	None	None	1
1.7	2015_Jul_21_1704	s	s	5	2	SIC	66	ABS	1	2	24MD	0	1	1.63064193726	None	None	None	None	1
1.7	2015_Jul_21_1704	s	s	5	2	SIC	67	ABS	2	2	24VD	0	1	1.38822007179	None	None	None	None	1
1.7	2015_Jul_21_1704	s	s	5	2	SIC	68	ABS	2	0	24VC	0	1	0.901148796082	None	None	None	None	1
1.7	2015_Jul_21_1704	s	s	5	2	SIC	69	RC	1	1	23MO	1	0	1.3833990097	76.0	-350.0	77	-355	1
1.7	2015_Jul_21_1704	s	s	5	2	SIC	70	ABS	0	2	24RD	0	1	2.24240708351	None	None	None	None	1
1.7	2015_Jul_21_1704	s	s	5	2	SIC	71	RC	2	0	23VC	1	0	1.32472586632	-363.0	188.0	-358	184	1
1.7	2015_Jul_21_1704	s	s	5	2	SIC	72	RC	1	2	23MD	1	0	0.681985855103	507.0	-265.0	509	-259	1
1.7	2015_Jul_21_1704	s	s	5	2	SIC	73	ABS	1	0	24MC	0	1	6.0562889576	None	None	None	None	1
1.7	2015_Jul_21_1704	s	s	5	2	SIC	74	RC	2	2	23VD	1	0	0.549324035645	472.0	-75.0	481	-72	1
1.7	2015_Jul_21_1704	s	s	5	2	SIC	75	RC	0	2	23RD	1	0	0.547552108765	-275.0	66.0	-271	58	1
1.7	2015_Jul_21_1704	s	s	5	2	SIC	76	ABS	0	1	24RO	0	1	6.92046785355	None	None	None	None	1
1.7	2015_Jul_21_1704	s	s	5	2	SIC	77	RC	0	1	23RO	1	0	7.50396490097	537.0	400.0	541	401	1
1.7	2015_Jul_21_1704	s	s	5	2	SIC	78	ABS	2	1	24VO	0	1	0.69074511528	None	None	None	None	1
1.7	2015_Jul_21_1704	s	s	5	2	SIC	79	RC	2	1	23VO	1	0	0.594887971878	-478.0	404.0	-481	411	1
1.7	2015_Jul_21_1704	s	s	5	2	SIC	80	RC	1	0	23MC	1	0	4.36135983467	16.0	64.0	9	67	1
1.7	2015_Jul_21_1704	s	s	5	2	SIC	81	RC	2	1	23VO	1	0	0.599641799927	522.0	97.0	528	95	1
1.7	2015_Jul_21_1704	s	s	5	2	SIC	82	RC	1	2	23MD	1	0	0.56446814537	-475.0	-165.0	-472	-162	1
1.7	2015_Jul_21_1704	s	s	5	2	SIC	83	RC	2	0	23VC	1	0	0.49370598793	-335.0	-80.0	-335	-78	1
1.7	2015_Jul_21_1704	s	s	5	2	SIC	84	ABS	0	2	24RD	0	1	1.31774187088	None	None	None	None	1
1.7	2015_Jul_21_1704	s	s	5	2	SIC	85	RC	0	2	23RD	1	0	0.61142706871	-163.0	-283.0	-166	-297	1
1.7	2015_Jul_21_1704	s	s	5	2	SIC	86	RC	1	1	23MO	1	0	1.01171779633	-493.0	-81.0	-491	-84	1
1.7	2015_Jul_21_1704	s	s	5	2	SIC	87	ABS	1	2	24MD	0	1	0.89098906517	None	None	None	None	1
1.7	2015_Jul_21_1704	s	s	5	2	SIC	88	ABS	2	1	24VO	0	1	1.12934279442	None	None	None	None	1
1.7	2015_Jul_21_1704	s	s	5	2	SIC	89	ABS	0	1	24RO	0	1	4.95470905304	None	None	None	None	1
1.7	2015_Jul_21_1704	s	s	5	2	SIC	90	ABS	1	0	24MC	0	1	5.8611240387	None	None	None	None	1
1.7	2015_Jul_21_1704	s	s	5	2	SIC	91	ABS	1	1	24MO	0	1	3.8836581707	None	None	None	None	1
1.7	2015_Jul_21_1704	s	s	5	2	SIC	92	ABS	2	2	24VD	0	1	0.818522930145	None	None	None	None	1
1.7	2015_Jul_21_1704	s	s	5	2	SIC	93	RC	2	2	23VD	1	0	0.68922996521	464.0	205.0	464	203	1
1.7	2015_Jul_21_1704	s	s	5	2	SIC	94	RC	0	1	23RO	1	0	3.66003894806	-366.0	145.0	-365	143	1
1.7	2015_Jul_21_1704	s	s	5	2	SIC	95	ABS	2	0	24VC	0	1	0.841903924942	None	None	None	None	1
1.7	2015_Jul_21_1704	s	s	5	2	SIC	96	RC	1	0	23MC	1	0	7.45943689346	363.0	318.0	359	323	1
1.7	2015_Jul_21_1704	s	s	5	2	SIC	97	ABS	0	1	24RO	0	1	7.1559150219	None	None	None	None	1
1.7	2015_Jul_21_1704	s	s	5	2	SIC	98	ABS	2	0	24VC	0	1	0.893824100494	None	None	None	None	1
1.7	2015_Jul_21_1704	s	s	5	2	SIC	99	ABS	2	2	24VD	0	1	0.700450181961	None	None	None	None	1
1.7	2015_Jul_21_1704	s	s	5	2	SIC	100	RC	1	1	23MO	1	0	0.879605054855	-535.0	-248.0	-545	-246	1
1.7	2015_Jul_21_1704	s	s	5	2	SIC	101	RC	0	1	23RO	0	1	4.40788292885	19.0	-96.0	None	None	0
1.7	2015_Jul_21_1704	s	s	5	2	SIC	102	ABS	1	0	24MC	0	1	3.79631900787	None	None	None	None	1
1.7	2015_Jul_21_1704	s	s	5	2	SIC	103	ABS	1	2	24MD	0	1	1.08209514618	None	None	None	None	1
1.7	2015_Jul_21_1704	s	s	5	2	SIC	104	RC	1	2	23MD	1	0	0.72455906868	-511.0	313.0	-506	318	1
1.7	2015_Jul_21_1704	s	s	5	2	SIC	105	ABS	1	1	24MO	0	1	2.84282302856	None	None	None	None	1
1.7	2015_Jul_21_1704	s	s	5	2	SIC	106	RC	0	2	23RD	1	0	0.740953922272	108.0	-344.0	106	-344	1
1.7	2015_Jul_21_1704	s	s	5	2	SIC	107	RC	2	0	23VC	1	0	0.653943061829	425.0	-282.0	428	-283	1
1.7	2015_Jul_21_1704	s	s	5	2	SIC	108	RC	1	0	23MC	1	0	4.47213101387	-395.0	285.0	-395	288	1
1.7	2015_Jul_21_1704	s	s	5	2	SIC	109	ABS	2	1	24VO	0	1	0.830163955688	None	None	None	None	1
1.7	2015_Jul_21_1704	s	s	5	2	SIC	110	RC	2	2	23VD	1	0	0.670252084732	-109.0	386.0	-106	380	1
1.7	2015_Jul_21_1704	s	s	5	2	SIC	111	ABS	0	2	24RD	0	1	1.23031282425	None	None	None	None	1
1.7	2015_Jul_21_1704	s	s	5	2	SIC	112	RC	2	1	23VO	1	0	0.729137897491	289.0	101.0	287	92	1
1.7	2015_Jul_21_1704	s	s	5	2	SIC	113	ABS	2	0	24VC	0	1	0.764503955841	None	None	None	None	1
1.7	2015_Jul_21_1704	s	s	5	2	SIC	114	RC	0	2	23RD	1	0	0.576154947281	75.0	-89.0	82	-84	1
1.7	2015_Jul_21_1704	s	s	5	2	SIC	115	RC	1	2	23MD	1	0	0.641638040543	-52.0	-50.0	-51	-54	1
1.7	2015_Jul_21_1704	s	s	5	2	SIC	116	ABS	1	2	24MD	0	1	1.65927290916	None	None	None	None	1
1.7	2015_Jul_21_1704	s	s	5	2	SIC	117	RC	0	1	23RO	0	1	5.23474001884	-419.0	-229.0	None	None	0
1.7	2015_Jul_21_1704	s	s	5	2	SIC	118	RC	1	0	23MC	1	0	9.23910689354	265.0	-339.0	264	-334	1
1.7	2015_Jul_21_1704	s	s	5	2	SIC	119	ABS	2	2	24VD	0	1	0.80656003952	None	None	None	None	1
1.7	2015_Jul_21_1704	s	s	5	2	SIC	120	ABS	1	0	24MC	0	1	8.50439214706	None	None	None	None	1
1.7	2015_Jul_21_1704	s	s	5	2	SIC	121	ABS	0	2	24RD	0	1	1.1010260582	None	None	None	None	1
1.7	2015_Jul_21_1704	s	s	5	2	SIC	122	ABS	0	1	24RO	0	1	5.39029097557	None	None	None	None	1
1.7	2015_Jul_21_1704	s	s	5	2	SIC	123	RC	2	0	23VC	1	0	0.676678180695	-28.0	11.0	-35	11	1
1.7	2015_Jul_21_1704	s	s	5	2	SIC	124	RC	2	1	23VO	1	0	0.665335178375	296.0	-89.0	292	-92	1
1.7	2015_Jul_21_1704	s	s	5	2	SIC	125	ABS	1	1	24MO	0	1	3.03092885017	None	None	None	None	1
1.7	2015_Jul_21_1704	s	s	5	2	SIC	126	RC	1	1	23MO	1	0	1.08240199089	-240.0	170.0	-245	179	1
1.7	2015_Jul_21_1704	s	s	5	2	SIC	127	RC	2	2	23VD	1	0	0.535645008087	-403.0	-318.0	-399	-309	1
1.7	2015_Jul_21_1704	s	s	5	2	SIC	128	ABS	2	1	24VO	0	1	0.811523914337	None	None	None	None	1
1.7	2015_Jul_21_1704	s	s	5	2	SIC	129	RC	1	2	23MD	1	0	0.514728069305	30.0	75.0	29	79	1
1.7	2015_Jul_21_1704	s	s	5	2	SIC	130	RC	2	2	23VD	1	0	0.470175981522	395.0	-84.0	394	-87	1
1.7	2015_Jul_21_1704	s	s	5	2	SIC	131	ABS	1	2	24MD	0	1	1.43545007706	None	None	None	None	1
1.7	2015_Jul_21_1704	s	s	5	2	SIC	132	ABS	1	0	24MC	0	1	8.95253491402	None	None	None	None	1
1.7	2015_Jul_21_1704	s	s	5	2	SIC	133	RC	0	1	23RO	1	0	2.90181708336	303.0	331.0	300	328	1
1.7	2015_Jul_21_1704	s	s	5	2	SIC	134	RC	1	0	23MC	1	0	8.52120685577	-358.0	77.0	-355	82	1
1.7	2015_Jul_21_1704	s	s	5	2	SIC	135	ABS	2	0	24VC	0	1	0.679730892181	None	None	None	None	1
1.7	2015_Jul_21_1704	s	s	5	2	SIC	136	RC	0	2	23RD	1	0	0.665360927582	-479.0	188.0	-480	188	1
1.7	2015_Jul_21_1704	s	s	5	2	SIC	137	RC	2	1	23VO	1	0	0.632680892944	165.0	-239.0	159	-238	1
1.7	2015_Jul_21_1704	s	s	5	2	SIC	138	ABS	0	2	24RD	0	1	1.93606209755	None	None	None	None	1
1.7	2015_Jul_21_1704	s	s	5	2	SIC	139	RC	2	0	23VC	1	0	0.587731122971	496.0	342.0	498	337	1
1.7	2015_Jul_21_1704	s	s	5	2	SIC	140	ABS	1	1	24MO	0	1	3.6434969902	None	None	None	None	1
1.7	2015_Jul_21_1704	s	s	5	2	SIC	141	ABS	0	1	24RO	0	1	4.33095693588	None	None	None	None	1
1.7	2015_Jul_21_1704	s	s	5	2	SIC	142	ABS	2	1	24VO	0	1	1.00747895241	None	None	None	None	1
1.7	2015_Jul_21_1704	s	s	5	2	SIC	143	RC	1	1	23MO	1	0	1.3953230381	-428.0	361.0	-434	370	1
1.7	2015_Jul_21_1704	s	s	5	2	SIC	144	ABS	2	2	24VD	0	1	0.808017969131	None	None	None	None	1
1.7	2015_Jul_21_1704	s	s	5	2	SIC	145	RC	1	0	23MC	1	0	1.04689407349	487.0	-108.0	484	-103	1
1.7	2015_Jul_21_1704	s	s	5	2	SIC	146	RC	0	1	23RO	1	0	1.6546959877	-530.0	341.0	-540	350	1
1.7	2015_Jul_21_1704	s	s	5	2	SIC	147	ABS	2	2	24VD	0	1	0.724200963974	None	None	None	None	1
1.7	2015_Jul_21_1704	s	s	5	2	SIC	148	RC	2	0	23VC	1	0	0.606639862061	309.0	149.0	314	143	1
1.7	2015_Jul_21_1704	s	s	5	2	SIC	149	RC	2	2	23VD	1	0	0.526586055756	252.0	339.0	250	328	1
1.7	2015_Jul_21_1704	s	s	5	2	SIC	150	RC	1	2	23MD	1	0	0.535820007324	174.0	-51.0	173	-60	1
1.7	2015_Jul_21_1704	s	s	5	2	SIC	151	ABS	0	1	24RO	0	1	6.17643785477	None	None	None	None	1
1.7	2015_Jul_21_1704	s	s	5	2	SIC	152	ABS	2	1	24VO	0	1	0.768712043762	None	None	None	None	1
1.7	2015_Jul_21_1704	s	s	5	2	SIC	153	ABS	0	2	24RD	0	1	2.1655600071	None	None	None	None	1
1.7	2015_Jul_21_1704	s	s	5	2	SIC	154	RC	2	1	23VO	1	0	0.715344905853	147.0	71.0	148	65	1
1.7	2015_Jul_21_1704	s	s	5	2	SIC	155	RC	0	2	23RD	1	0	0.646625041962	-245.0	-81.0	-245	-78	1
1.7	2015_Jul_21_1704	s	s	5	2	SIC	156	ABS	2	0	24VC	0	1	1.18822097778	None	None	None	None	1
1.7	2015_Jul_21_1704	s	s	5	2	SIC	157	ABS	1	0	24MC	0	1	6.3741710186	None	None	None	None	1
1.7	2015_Jul_21_1704	s	s	5	2	SIC	158	ABS	1	1	24MO	0	1	4.26031804085	None	None	None	None	1
1.7	2015_Jul_21_1704	s	s	5	2	SIC	159	ABS	1	2	24MD	0	1	0.866390228271	None	None	None	None	1
1.7	2015_Jul_21_1704	s	s	5	2	SIC	160	RC	1	1	23MO	1	0	0.705579042435	-98.0	242.0	-105	242	1
1.7	2015_Jul_21_1704	s	s	5	2	SIC	161	ABS	1	1	24MO	0	1	1.82386398315	None	None	None	None	1
1.7	2015_Jul_21_1704	s	s	5	2	SIC	162	RC	2	2	23VD	1	0	1.07973909378	-269.0	123.0	-257	131	1
1.7	2015_Jul_21_1704	s	s	5	2	SIC	163	ABS	1	0	24MC	0	1	5.2442150116	None	None	None	None	1
1.7	2015_Jul_21_1704	s	s	5	2	SIC	164	RC	1	0	23MC	1	0	4.54271006584	460.0	117.0	453	112	1
1.7	2015_Jul_21_1704	s	s	5	2	SIC	165	RC	0	1	23RO	1	0	1.42356395721	-259.0	148.0	-264	150	1
1.7	2015_Jul_21_1704	s	s	5	2	SIC	166	RC	1	1	23MO	1	0	1.84723901749	178.0	-200.0	182	-196	1
1.7	2015_Jul_21_1704	s	s	5	2	SIC	167	ABS	0	1	24RO	0	1	5.72577500343	None	None	None	None	1
1.7	2015_Jul_21_1704	s	s	5	2	SIC	168	ABS	0	2	24RD	0	1	1.25887107849	None	None	None	None	1
1.7	2015_Jul_21_1704	s	s	5	2	SIC	169	RC	2	0	23VC	1	0	0.623205900192	-51.0	-48.0	-43	-42	1
1.7	2015_Jul_21_1704	s	s	5	2	SIC	170	RC	0	2	23RD	1	0	0.631860971451	-334.0	-54.0	-339	-55	1
1.7	2015_Jul_21_1704	s	s	5	2	SIC	171	RC	2	1	23VO	1	0	0.7123939991	-50.0	-172.0	-49	-169	1
1.7	2015_Jul_21_1704	s	s	5	2	SIC	172	ABS	1	2	24MD	0	1	1.42358708382	None	None	None	None	1
1.7	2015_Jul_21_1704	s	s	5	2	SIC	173	ABS	2	2	24VD	0	1	2.89003205299	None	None	None	None	1
1.7	2015_Jul_21_1704	s	s	5	2	SIC	174	RC	1	2	23MD	1	0	0.646703004837	79.0	-362.0	78	-366	1
1.7	2015_Jul_21_1704	s	s	5	2	SIC	175	ABS	2	1	24VO	0	1	1.15940308571	None	None	None	None	1
1.7	2015_Jul_21_1704	s	s	5	2	SIC	176	ABS	2	0	24VC	0	1	0.700525999069	None	None	None	None	1
1.7	2015_Jul_21_1704	s	s	5	2	SIC	177	ABS	1	1	24MO	0	1	2.50111699104	None	None	None	None	1
1.7	2015_Jul_21_1704	s	s	5	2	SIC	178	ABS	1	2	24MD	0	1	0.917480945587	None	None	None	None	1
1.7	2015_Jul_21_1704	s	s	5	2	SIC	179	RC	2	1	23VO	1	0	0.641801834106	-509.0	-43.0	-506	-46	1
1.7	2015_Jul_21_1704	s	s	5	2	SIC	180	RC	0	2	23RD	1	0	0.582289934158	-403.0	320.0	-397	329	1
1.7	2015_Jul_21_1704	s	s	5	2	SIC	181	RC	1	0	23MC	1	0	6.16706085205	-359.0	-6.0	-364	-7	1
1.7	2015_Jul_21_1704	s	s	5	2	SIC	182	ABS	2	2	24VD	0	1	0.805032014847	None	None	None	None	1
1.7	2015_Jul_21_1704	s	s	5	2	SIC	183	RC	1	2	23MD	1	0	0.670253992081	112.0	-387.0	113	-385	1
1.7	2015_Jul_21_1704	s	s	5	2	SIC	184	ABS	2	1	24VO	0	1	0.905739068985	None	None	None	None	1
1.7	2015_Jul_21_1704	s	s	5	2	SIC	185	ABS	1	0	24MC	0	1	8.89200520515	None	None	None	None	1
1.7	2015_Jul_21_1704	s	s	5	2	SIC	186	ABS	0	1	24RO	0	1	7.36281704903	None	None	None	None	1
1.7	2015_Jul_21_1704	s	s	5	2	SIC	187	RC	2	2	23VD	1	0	0.618648052216	-504.0	-267.0	-507	-269	1
1.7	2015_Jul_21_1704	s	s	5	2	SIC	188	ABS	2	0	24VC	0	1	0.776337862015	None	None	None	None	1
1.7	2015_Jul_21_1704	s	s	5	2	SIC	189	RC	1	1	23MO	1	0	2.1390209198	1.0	-137.0	7	-132	1
1.7	2015_Jul_21_1704	s	s	5	2	SIC	190	RC	2	0	23VC	1	0	0.617959022522	538.0	284.0	543	286	1
1.7	2015_Jul_21_1704	s	s	5	2	SIC	191	RC	0	1	23RO	1	0	2.92518019676	-47.0	316.0	-46	317	1
1.7	2015_Jul_21_1704	s	s	5	2	SIC	192	ABS	0	2	24RD	0	1	1.85411882401	None	None	None	None	1
1.7	2015_Jul_21_1704	s	s	5	2	SIC	193	RC	0	1	23RO	1	0	0.705555915833	-69.0	-206.0	-68	-217	1
1.7	2015_Jul_21_1704	s	s	5	2	SIC	194	ABS	2	2	24VD	0	1	0.900657176971	None	None	None	None	1
1.7	2015_Jul_21_1704	s	s	5	2	SIC	195	ABS	1	0	24MC	0	1	9.18087100983	None	None	None	None	1
1.7	2015_Jul_21_1704	s	s	5	2	SIC	196	RC	1	1	23MO	1	0	1.52468895912	142.0	-387.0	151	-389	1
1.7	2015_Jul_21_1704	s	s	5	2	SIC	197	ABS	1	2	24MD	0	1	0.929299116135	None	None	None	None	1
1.7	2015_Jul_21_1704	s	s	5	2	SIC	198	RC	0	2	23RD	1	0	0.729604005814	23.0	-270.0	28	-271	1
1.7	2015_Jul_21_1704	s	s	5	2	SIC	199	ABS	2	0	24VC	0	1	1.04211401939	None	None	None	None	1
1.7	2015_Jul_21_1704	s	s	5	2	SIC	200	RC	2	0	23VC	1	0	0.60574388504	-238.0	-291.0	-230	-291	1
1.7	2015_Jul_21_1704	s	s	5	2	SIC	201	ABS	0	2	24RD	0	1	1.52490997314	None	None	None	None	1
1.7	2015_Jul_21_1704	s	s	5	2	SIC	202	RC	2	1	23VO	1	0	1.05872297287	361.0	399.0	358	388	1
1.7	2015_Jul_21_1704	s	s	5	2	SIC	203	ABS	1	1	24MO	0	1	3.93069505692	None	None	None	None	1
1.7	2015_Jul_21_1704	s	s	5	2	SIC	204	RC	1	0	23MC	1	0	3.45172905922	-186.0	359.0	-188	362	1
1.7	2015_Jul_21_1704	s	s	5	2	SIC	205	ABS	2	1	24VO	0	1	0.747759819031	None	None	None	None	1
1.7	2015_Jul_21_1704	s	s	5	2	SIC	206	RC	2	2	23VD	1	0	0.6114590168	-236.0	-46.0	-241	-45	1
1.7	2015_Jul_21_1704	s	s	5	2	SIC	207	RC	1	2	23MD	1	0	0.830022096634	370.0	-239.0	369	-242	1
1.7	2015_Jul_21_1704	s	s	5	2	SIC	208	ABS	0	1	24RO	0	1	4.22509789467	None	None	None	None	1
1.7	2015_Jul_21_1704	s	s	5	2	SIC	209	ABS	2	1	24VO	0	1	0.91731595993	None	None	None	None	1
1.7	2015_Jul_21_1704	s	s	5	2	SIC	210	RC	1	1	23MO	1	0	1.30598497391	-213.0	92.0	-214	96	1
1.7	2015_Jul_21_1704	s	s	5	2	SIC	211	ABS	0	2	24RD	0	1	1.18310117722	None	None	None	None	1
1.7	2015_Jul_21_1704	s	s	5	2	SIC	212	ABS	0	1	24RO	0	1	4.5663819313	None	None	None	None	1
1.7	2015_Jul_21_1704	s	s	5	2	SIC	213	ABS	1	1	24MO	0	1	4.22501707077	None	None	None	None	1
1.7	2015_Jul_21_1704	s	s	5	2	SIC	214	RC	2	0	23VC	1	0	0.655988931656	511.0	-206.0	519	-203	1
1.7	2015_Jul_21_1704	s	s	5	2	SIC	215	RC	1	0	23MC	1	0	4.51929092407	515.0	-220.0	527	-214	1
1.7	2015_Jul_21_1704	s	s	5	2	SIC	216	ABS	1	2	24MD	0	1	0.948204994202	None	None	None	None	1
1.7	2015_Jul_21_1704	s	s	5	2	SIC	217	RC	1	2	23MD	1	0	0.667850971222	40.0	326.0	45	319	1
1.7	2015_Jul_21_1704	s	s	5	2	SIC	218	RC	0	2	23RD	1	0	0.77624297142	412.0	-310.0	410	-313	1
1.7	2015_Jul_21_1704	s	s	5	2	SIC	219	RC	2	1	23VO	1	0	0.618223905563	207.0	-151.0	217	-150	1
1.7	2015_Jul_21_1704	s	s	5	2	SIC	220	RC	0	1	23RO	1	0	2.04742097855	-272.0	-294.0	-282	-293	1
1.7	2015_Jul_21_1704	s	s	5	2	SIC	221	ABS	1	0	24MC	0	1	6.42984700203	None	None	None	None	1
1.7	2015_Jul_21_1704	s	s	5	2	SIC	222	RC	2	2	23VD	1	0	0.53598690033	-22.0	-406.0	-24	-407	1
1.7	2015_Jul_21_1704	s	s	5	2	SIC	223	ABS	2	2	24VD	0	1	0.747678995132	None	None	None	None	1
1.7	2015_Jul_21_1704	s	s	5	2	SIC	224	ABS	2	0	24VC	0	1	0.759404182434	None	None	None	None	1
1.7	2015_Jul_21_1704	s	s	5	2	SIC	225	ABS	2	1	24VO	0	1	0.670300006866	None	None	None	None	1
1.7	2015_Jul_21_1704	s	s	5	2	SIC	226	ABS	1	2	24MD	0	1	1.01834893227	None	None	None	None	1
1.7	2015_Jul_21_1704	s	s	5	2	SIC	227	RC	2	2	23VD	1	0	1.01911187172	-64.0	210.0	-68	211	1
1.7	2015_Jul_21_1704	s	s	5	2	SIC	228	ABS	2	2	24VD	0	1	0.630010843277	None	None	None	None	1
1.7	2015_Jul_21_1704	s	s	5	2	SIC	229	ABS	1	0	24MC	0	1	9.61337804794	None	None	None	None	1
1.7	2015_Jul_21_1704	s	s	5	2	SIC	230	RC	0	1	23RO	1	0	3.41956710815	463.0	278.0	467	275	1
1.7	2015_Jul_21_1704	s	s	5	2	SIC	231	RC	1	0	23MC	1	0	7.76795887947	106.0	320.0	110	317	1
1.7	2015_Jul_21_1704	s	s	5	2	SIC	232	RC	1	2	23MD	1	0	0.682096004486	-320.0	251.0	-312	248	1
1.7	2015_Jul_21_1704	s	s	5	2	SIC	233	ABS	2	0	24VC	0	1	0.764423131943	None	None	None	None	1
1.7	2015_Jul_21_1704	s	s	5	2	SIC	234	ABS	0	1	24RO	0	1	5.44675207138	None	None	None	None	1
1.7	2015_Jul_21_1704	s	s	5	2	SIC	235	RC	2	0	23VC	1	0	0.58536195755	456.0	325.0	464	322	1
1.7	2015_Jul_21_1704	s	s	5	2	SIC	236	ABS	0	2	24RD	0	1	1.09404706955	None	None	None	None	1
1.7	2015_Jul_21_1704	s	s	5	2	SIC	237	RC	2	1	23VO	1	0	0.717316150665	477.0	-350.0	482	-353	1
1.7	2015_Jul_21_1704	s	s	5	2	SIC	238	ABS	1	1	24MO	0	1	3.71393704414	None	None	None	None	1
1.7	2015_Jul_21_1704	s	s	5	2	SIC	239	RC	1	1	23MO	1	0	0.854360818863	-457.0	-85.0	-460	-88	1
1.7	2015_Jul_21_1704	s	s	5	2	SIC	240	RC	0	2	23RD	1	0	0.517248153687	-217.0	46.0	-209	46	1
1.7	2015_Jul_21_1704	s	s	5	2	SIC	241	RC	1	1	23MO	1	0	0.749994039536	534.0	-107.0	533	-106	1
1.7	2015_Jul_21_1704	s	s	5	2	SIC	242	ABS	2	0	24VC	0	1	1.15036892891	None	None	None	None	1
1.7	2015_Jul_21_1704	s	s	5	2	SIC	243	RC	1	2	23MD	1	0	0.559341192245	444.0	-24.0	446	-21	1
1.7	2015_Jul_21_1704	s	s	5	2	SIC	244	RC	2	1	23VO	1	0	0.559251070023	83.0	69.0	83	61	1
1.7	2015_Jul_21_1704	s	s	5	2	SIC	245	ABS	2	2	24VD	0	1	0.846861839294	None	None	None	None	1
1.7	2015_Jul_21_1704	s	s	5	2	SIC	246	ABS	0	1	24RO	0	1	3.91640305519	None	None	None	None	1
1.7	2015_Jul_21_1704	s	s	5	2	SIC	247	ABS	2	1	24VO	0	1	0.900578022003	None	None	None	None	1
1.7	2015_Jul_21_1704	s	s	5	2	SIC	248	RC	0	2	23RD	1	0	1.27063298225	484.0	-381.0	485	-390	1
1.7	2015_Jul_21_1704	s	s	5	2	SIC	249	RC	1	0	23MC	1	0	1.12935400009	487.0	323.0	494	326	1
1.7	2015_Jul_21_1704	s	s	5	2	SIC	250	ABS	1	0	24MC	0	1	6.53203392029	None	None	None	None	1
1.7	2015_Jul_21_1704	s	s	5	2	SIC	251	RC	0	1	23RO	1	0	1.04168701172	500.0	-258.0	505	-259	1
1.7	2015_Jul_21_1704	s	s	5	2	SIC	252	ABS	1	1	24MO	0	1	4.0227060318	None	None	None	None	1
1.7	2015_Jul_21_1704	s	s	5	2	SIC	253	ABS	0	2	24RD	0	1	1.0352768898	None	None	None	None	1
1.7	2015_Jul_21_1704	s	s	5	2	SIC	254	RC	2	0	23VC	1	0	0.524245977402	-195.0	-243.0	-197	-243	1
1.7	2015_Jul_21_1704	s	s	5	2	SIC	255	RC	2	2	23VD	1	0	0.514676094055	150.0	-39.0	151	-41	1
1.7	2015_Jul_21_1704	s	s	5	2	SIC	256	ABS	1	2	24MD	0	1	1.03516101837	None	None	None	None	1
1.7	2015_Jul_21_1704	s	s	5	2	SIC	257	ABS	2	2	24VD	0	1	0.679541110992	None	None	None	None	1
1.7	2015_Jul_21_1704	s	s	5	2	SIC	258	RC	0	1	23RO	0	1	5.17497992516	499.0	-381.0	None	None	0
1.7	2015_Jul_21_1704	s	s	5	2	SIC	259	ABS	2	0	24VC	1	0	0.700795888901	None	None	21	69	0
1.7	2015_Jul_21_1704	s	s	5	2	SIC	260	ABS	2	1	24VO	0	1	0.729131937027	None	None	None	None	1
1.7	2015_Jul_21_1704	s	s	5	2	SIC	261	ABS	0	1	24RO	0	1	5.68453097343	None	None	None	None	1
1.7	2015_Jul_21_1704	s	s	5	2	SIC	262	ABS	0	2	24RD	0	1	1.83306598663	None	None	None	None	1
1.7	2015_Jul_21_1704	s	s	5	2	SIC	263	RC	1	1	23MO	1	0	1.16512703896	230.0	-141.0	237	-140	1
1.7	2015_Jul_21_1704	s	s	5	2	SIC	264	RC	0	2	23RD	1	0	0.646741867065	460.0	199.0	466	201	1
1.7	2015_Jul_21_1704	s	s	5	2	SIC	265	RC	2	2	23VD	1	0	0.524141073227	-345.0	-234.0	-340	-227	1
1.7	2015_Jul_21_1704	s	s	5	2	SIC	266	RC	1	2	23MD	1	0	0.594725847244	-126.0	-335.0	-125	-327	1
1.7	2015_Jul_21_1704	s	s	5	2	SIC	267	ABS	1	0	24MC	0	1	8.31861805916	None	None	None	None	1
1.7	2015_Jul_21_1704	s	s	5	2	SIC	268	RC	2	0	23VC	1	0	1.2186050415	533.0	220.0	548	229	1
1.7	2015_Jul_21_1704	s	s	5	2	SIC	269	RC	1	0	23MC	1	0	5.73164105415	-71.0	235.0	-76	233	1
1.7	2015_Jul_21_1704	s	s	5	2	SIC	270	RC	2	1	23VO	1	0	0.600174188614	-53.0	-44.0	-51	-44	1
1.7	2015_Jul_21_1704	s	s	5	2	SIC	271	ABS	1	1	24MO	0	1	4.83141708374	None	None	None	None	1
1.7	2015_Jul_21_1704	s	s	5	2	SIC	272	ABS	1	2	24MD	0	1	1.18425321579	None	None	None	None	1
1.7	2015_Jul_21_1704	s	s	5	2	SIC	273	RC	0	2	23RD	1	0	0.711851835251	104.0	392.0	105	400	1
1.7	2015_Jul_21_1704	s	s	5	2	SIC	274	ABS	1	2	24MD	0	1	0.74706697464	None	None	None	None	1
1.7	2015_Jul_21_1704	s	s	5	2	SIC	275	ABS	1	1	24MO	0	1	3.71300697327	None	None	None	None	1
1.7	2015_Jul_21_1704	s	s	5	2	SIC	276	RC	2	0	23VC	1	0	0.770739078522	-529.0	296.0	-536	293	1
1.7	2015_Jul_21_1704	s	s	5	2	SIC	277	RC	1	0	23MC	1	0	9.69332313538	133.0	138.0	135	131	1
1.7	2015_Jul_21_1704	s	s	5	2	SIC	278	ABS	2	0	24VC	0	1	1.11251997948	None	None	None	None	1
1.7	2015_Jul_21_1704	s	s	5	2	SIC	279	ABS	0	2	24RD	0	1	0.823208093643	None	None	None	None	1
1.7	2015_Jul_21_1704	s	s	5	2	SIC	280	RC	0	1	23RO	1	0	2.61611390114	463.0	-211.0	458	-214	1
1.7	2015_Jul_21_1704	s	s	5	2	SIC	281	RC	2	1	23VO	1	0	0.485776901245	-221.0	108.0	-230	104	1
1.7	2015_Jul_21_1704	s	s	5	2	SIC	282	RC	2	2	23VD	1	0	0.511641979218	282.0	167.0	277	167	1
1.7	2015_Jul_21_1704	s	s	5	2	SIC	283	ABS	2	1	24VO	0	1	1.29409098625	None	None	None	None	1
1.7	2015_Jul_21_1704	s	s	5	2	SIC	284	ABS	0	1	24RO	0	1	5.4448621273	None	None	None	None	1
1.7	2015_Jul_21_1704	s	s	5	2	SIC	285	ABS	1	0	24MC	0	1	6.03813099861	None	None	None	None	1
1.7	2015_Jul_21_1704	s	s	5	2	SIC	286	ABS	2	2	24VD	0	1	0.693800926208	None	None	None	None	1
1.7	2015_Jul_21_1704	s	s	5	2	SIC	287	RC	1	2	23MD	1	0	0.776237010956	327.0	247.0	333	244	1
1.7	2015_Jul_21_1704	s	s	5	2	SIC	288	RC	1	1	23MO	1	0	1.12925696373	-387.0	-300.0	-389	-291	1
1.7	2015_Jul_21_1704	s	s	5	2	SIC	289	RC	2	1	23VO	1	0	0.535843133926	-110.0	249.0	-105	257	1
1.7	2015_Jul_21_1704	s	s	5	2	SIC	290	RC	1	0	23MC	1	0	15.63063097	-234.0	401.0	-225	406	1
1.7	2015_Jul_21_1704	s	s	5	2	SIC	291	ABS	2	2	24VD	0	1	0.689068078995	None	None	None	None	1
1.7	2015_Jul_21_1704	s	s	5	2	SIC	292	ABS	1	0	24MC	0	1	7.17928600311	None	None	None	None	1
1.7	2015_Jul_21_1704	s	s	5	2	SIC	293	RC	0	2	23RD	1	0	0.794044017792	-183.0	18.0	-175	26	1
1.7	2015_Jul_21_1704	s	s	5	2	SIC	294	RC	0	1	23RO	1	0	1.56487393379	-281.0	7.0	-283	10	1
1.7	2015_Jul_21_1704	s	s	5	2	SIC	295	ABS	2	1	24VO	0	1	0.808891057968	None	None	None	None	1
1.7	2015_Jul_21_1704	s	s	5	2	SIC	296	RC	2	0	23VC	1	0	0.703034877777	-469.0	-308.0	-461	-301	1
1.7	2015_Jul_21_1704	s	s	5	2	SIC	297	ABS	0	1	24RO	0	1	7.27999186516	None	None	None	None	1
1.7	2015_Jul_21_1704	s	s	5	2	SIC	298	ABS	1	2	24MD	0	1	0.91778087616	None	None	None	None	1
1.7	2015_Jul_21_1704	s	s	5	2	SIC	299	RC	1	2	23MD	1	0	0.819754838943	150.0	-365.0	152	-360	1
1.7	2015_Jul_21_1704	s	s	5	2	SIC	300	ABS	1	1	24MO	0	1	5.1901910305	None	None	None	None	1
1.7	2015_Jul_21_1704	s	s	5	2	SIC	301	ABS	0	2	24RD	0	1	1.7606549263	None	None	None	None	1
1.7	2015_Jul_21_1704	s	s	5	2	SIC	302	RC	1	1	23MO	1	0	3.71876502037	-48.0	225.0	-55	229	1
1.7	2015_Jul_21_1704	s	s	5	2	SIC	303	ABS	2	0	24VC	0	1	1.31539607048	None	None	None	None	1
1.7	2015_Jul_21_1704	s	s	5	2	SIC	304	RC	2	2	23VD	1	0	0.658583879471	-336.0	90.0	-330	85	1
1.7	2015_Jul_21_1704	s	s	5	2	SIC	305	ABS	1	0	24MC	0	1	7.97982382774	None	None	None	None	1
1.7	2015_Jul_21_1704	s	s	5	2	SIC	306	ABS	2	2	24VD	0	1	0.670248985291	None	None	None	None	1
1.7	2015_Jul_21_1704	s	s	5	2	SIC	307	RC	1	0	23MC	1	0	10.3760719299	465.0	323.0	469	326	1
1.7	2015_Jul_21_1704	s	s	5	2	SIC	308	RC	2	2	23VD	1	0	0.611244916916	-372.0	347.0	-372	349	1
1.7	2015_Jul_21_1704	s	s	5	2	SIC	309	ABS	2	0	24VC	0	1	1.15287494659	None	None	None	None	1
1.7	2015_Jul_21_1704	s	s	5	2	SIC	310	RC	1	2	23MD	1	0	0.606312036514	-63.0	356.0	-52	364	1
1.7	2015_Jul_21_1704	s	s	5	2	SIC	311	RC	2	0	23VC	1	0	0.670303821564	-376.0	269.0	-369	268	1
1.7	2015_Jul_21_1704	s	s	5	2	SIC	312	ABS	0	2	24RD	0	1	1.60696005821	None	None	None	None	1
1.7	2015_Jul_21_1704	s	s	5	2	SIC	313	ABS	2	1	24VO	0	1	0.841846942902	None	None	None	None	1
1.7	2015_Jul_21_1704	s	s	5	2	SIC	314	RC	0	2	23RD	1	0	1.30068683624	-179.0	327.0	-181	327	1
1.7	2015_Jul_21_1704	s	s	5	2	SIC	315	RC	1	1	23MO	1	0	1.64727497101	151.0	55.0	145	61	1
1.7	2015_Jul_21_1704	s	s	5	2	SIC	316	RC	2	1	23VO	1	0	0.634979009628	216.0	209.0	220	215	1
1.7	2015_Jul_21_1704	s	s	5	2	SIC	317	ABS	1	2	24MD	0	1	1.55309796333	None	None	None	None	1
1.7	2015_Jul_21_1704	s	s	5	2	SIC	318	ABS	1	1	24MO	0	1	3.73075413704	None	None	None	None	1
1.7	2015_Jul_21_1704	s	s	5	2	SIC	319	ABS	0	1	24RO	0	1	5.34692287445	None	None	None	None	1
1.7	2015_Jul_21_1704	s	s	5	2	SIC	320	RC	0	1	23RO	1	0	4.76644182205	-82.0	-335.0	-81	-344	1
1.7	2015_Jul_21_1704	s	s	5	2	SIC	321	ABS	1	2	24MD	0	1	0.924091100693	None	None	None	None	1
1.7	2015_Jul_21_1704	s	s	5	2	SIC	322	RC	2	2	23VD	1	0	0.564445018768	-210.0	-175.0	-211	-168	1
1.7	2015_Jul_21_1704	s	s	5	2	SIC	323	ABS	2	2	24VD	0	1	0.761048793793	None	None	None	None	1
1.7	2015_Jul_21_1704	s	s	5	2	SIC	324	RC	1	1	23MO	1	0	1.95946192741	350.0	-408.0	357	-407	1
1.7	2015_Jul_21_1704	s	s	5	2	SIC	325	ABS	2	1	24VO	0	1	0.785400867462	None	None	None	None	1
1.7	2015_Jul_21_1704	s	s	5	2	SIC	326	ABS	2	0	24VC	0	1	2.49470114708	None	None	None	None	1
1.7	2015_Jul_21_1704	s	s	5	2	SIC	327	RC	0	1	23RO	1	0	2.87507009506	462.0	398.0	452	402	1
1.7	2015_Jul_21_1704	s	s	5	2	SIC	328	RC	1	2	23MD	1	0	0.571002960205	-282.0	246.0	-289	239	1
1.7	2015_Jul_21_1704	s	s	5	2	SIC	329	ABS	1	1	24MO	0	1	4.1026289463	None	None	None	None	1
1.7	2015_Jul_21_1704	s	s	5	2	SIC	330	RC	0	2	23RD	1	0	0.72415304184	290.0	-397.0	295	-391	1
1.7	2015_Jul_21_1704	s	s	5	2	SIC	331	RC	2	1	23VO	1	0	0.658436059952	-303.0	-334.0	-304	-337	1
1.7	2015_Jul_21_1704	s	s	5	2	SIC	332	ABS	0	1	24RO	0	1	5.22544503212	None	None	None	None	1
1.7	2015_Jul_21_1704	s	s	5	2	SIC	333	RC	1	0	23MC	1	0	5.11958193779	-89.0	395.0	-83	396	1
1.7	2015_Jul_21_1704	s	s	5	2	SIC	334	RC	2	0	23VC	1	0	0.640380859375	-354.0	-58.0	-343	-56	1
1.7	2015_Jul_21_1704	s	s	5	2	SIC	335	ABS	0	2	24RD	0	1	1.16467189789	None	None	None	None	1
1.7	2015_Jul_21_1704	s	s	5	2	SIC	336	ABS	1	0	24MC	0	1	4.7782189846	None	None	None	None	1
1.7	2015_Jul_21_1704	s	s	5	2	SIC	337	ABS	1	2	24MD	0	1	0.905584812164	None	None	None	None	1
1.7	2015_Jul_21_1704	s	s	5	2	SIC	338	ABS	2	1	24VO	0	1	0.882158041	None	None	None	None	1
1.7	2015_Jul_21_1704	s	s	5	2	SIC	339	ABS	2	2	24VD	0	1	0.724289894104	None	None	None	None	1
1.7	2015_Jul_21_1704	s	s	5	2	SIC	340	RC	1	2	23MD	1	0	0.729120969772	-42.0	376.0	-42	372	1
1.7	2015_Jul_21_1704	s	s	5	2	SIC	341	RC	2	0	23VC	1	0	0.606381893158	-32.0	25.0	-35	23	1
1.7	2015_Jul_21_1704	s	s	5	2	SIC	342	RC	1	0	23MC	1	0	1.56487989426	-343.0	119.0	-342	109	1
1.7	2015_Jul_21_1704	s	s	5	2	SIC	343	RC	2	1	23VO	1	0	0.53829908371	-172.0	-316.0	-172	-313	1
1.7	2015_Jul_21_1704	s	s	5	2	SIC	344	RC	2	2	23VD	1	0	0.524134874344	-532.0	121.0	-535	121	1
1.7	2015_Jul_21_1704	s	s	5	2	SIC	345	RC	0	1	23RO	1	0	1.61190295219	-198.0	66.0	-200	66	1
1.7	2015_Jul_21_1704	s	s	5	2	SIC	346	ABS	0	1	24RO	0	1	4.95151495934	None	None	None	None	1
1.7	2015_Jul_21_1704	s	s	5	2	SIC	347	RC	1	1	23MO	1	0	0.846804857254	-434.0	37.0	-428	33	1
1.7	2015_Jul_21_1704	s	s	5	2	SIC	348	RC	0	2	23RD	1	0	0.559554100037	-26.0	174.0	-23	172	1
1.7	2015_Jul_21_1704	s	s	5	2	SIC	349	ABS	1	1	24MO	0	1	2.65940403938	None	None	None	None	1
1.7	2015_Jul_21_1704	s	s	5	2	SIC	350	ABS	1	0	24MC	0	1	6.96762704849	None	None	None	None	1
1.7	2015_Jul_21_1704	s	s	5	2	SIC	351	ABS	2	0	24VC	0	1	0.738383054733	None	None	None	None	1
1.7	2015_Jul_21_1704	s	s	5	2	SIC	352	ABS	0	2	24RD	0	1	0.947998046875	None	None	None	None	1
1.7	2015_Jul_21_1704	s	s	5	2	SIC	353	RC	2	2	23VD	1	0	0.80348610878	375.0	359.0	376	361	1
1.7	2015_Jul_21_1704	s	s	5	2	SIC	354	RC	1	1	23MO	1	0	1.42359900475	464.0	-134.0	465	-131	1
1.7	2015_Jul_21_1704	s	s	5	2	SIC	355	ABS	1	1	24MO	0	1	3.69534492493	None	None	None	None	1
1.7	2015_Jul_21_1704	s	s	5	2	SIC	356	RC	0	1	23RO	0	1	4.16136598587	393.0	-75.0	None	None	0
1.7	2015_Jul_21_1704	s	s	5	2	SIC	357	RC	0	2	23RD	1	0	0.771390914917	-414.0	-335.0	-422	-335	1
1.7	2015_Jul_21_1704	s	s	5	2	SIC	358	ABS	1	2	24MD	0	1	0.976279973984	None	None	None	None	1
1.7	2015_Jul_21_1704	s	s	5	2	SIC	359	RC	1	2	23MD	1	0	0.740964889526	279.0	-21.0	279	-15	1
1.7	2015_Jul_21_1704	s	s	5	2	SIC	360	ABS	1	0	24MC	0	1	8.85086107254	None	None	None	None	1
1.7	2015_Jul_21_1704	s	s	5	2	SIC	361	RC	2	0	23VC	1	0	0.771191120148	-30.0	201.0	-32	198	1
1.7	2015_Jul_21_1704	s	s	5	2	SIC	362	RC	2	1	23VO	1	0	0.688796043396	91.0	45.0	94	47	1
1.7	2015_Jul_21_1704	s	s	5	2	SIC	363	ABS	2	1	24VO	0	1	0.917438983917	None	None	None	None	1
1.7	2015_Jul_21_1704	s	s	5	2	SIC	364	RC	1	0	23MC	1	0	10.8939750195	207.0	367.0	202	366	1
1.7	2015_Jul_21_1704	s	s	5	2	SIC	365	ABS	0	2	24RD	0	1	0.823240041733	None	None	None	None	1
1.7	2015_Jul_21_1704	s	s	5	2	SIC	366	ABS	2	2	24VD	0	1	0.655272960663	None	None	None	None	1
1.7	2015_Jul_21_1704	s	s	5	2	SIC	367	ABS	2	0	24VC	0	1	0.76441693306	None	None	None	None	1
1.7	2015_Jul_21_1704	s	s	5	2	SIC	368	ABS	0	1	24RO	0	1	9.03937101364	None	None	None	None	1
1.7	2015_Jul_21_1704	s	s	5	2	SIC	369	ABS	0	2	24RD	0	1	3.71568107605	None	None	None	None	1
1.7	2015_Jul_21_1704	s	s	5	2	SIC	370	ABS	2	2	24VD	0	1	0.729177951813	None	None	None	None	1
1.7	2015_Jul_21_1704	s	s	5	2	SIC	371	RC	1	0	23MC	1	0	10.4457349777	-228.0	-62.0	-230	-56	1
1.7	2015_Jul_21_1704	s	s	5	2	SIC	372	ABS	2	0	24VC	0	1	0.741266965866	None	None	None	None	1
1.7	2015_Jul_21_1704	s	s	5	2	SIC	373	RC	0	1	23RO	1	0	1.10084819794	343.0	17.0	334	16	1
1.7	2015_Jul_21_1704	s	s	5	2	SIC	374	RC	1	2	23MD	1	0	0.658800840378	-128.0	327.0	-127	334	1
1.7	2015_Jul_21_1704	s	s	5	2	SIC	375	RC	2	2	23VD	1	0	0.514284133911	-217.0	-328.0	-215	-334	1
1.7	2015_Jul_21_1704	s	s	5	2	SIC	376	ABS	1	1	24MO	0	1	3.98465013504	None	None	None	None	1
1.7	2015_Jul_21_1704	s	s	5	2	SIC	377	RC	2	0	23VC	1	0	0.678842067719	110.0	-138.0	104	-140	1
1.7	2015_Jul_21_1704	s	s	5	2	SIC	378	ABS	1	2	24MD	0	1	1.50103116035	None	None	None	None	1
1.7	2015_Jul_21_1704	s	s	5	2	SIC	379	RC	0	2	23RD	1	0	0.806521177292	-404.0	330.0	-410	323	1
1.7	2015_Jul_21_1704	s	s	5	2	SIC	380	ABS	2	1	24VO	0	1	0.882149934769	None	None	None	None	1
1.7	2015_Jul_21_1704	s	s	5	2	SIC	381	RC	1	1	23MO	1	0	2.70665287971	351.0	122.0	357	126	1
1.7	2015_Jul_21_1704	s	s	5	2	SIC	382	ABS	1	0	24MC	0	0	-1	None	None	None	None	-1
1.7	2015_Jul_21_1704	s	s	5	2	SIC	383	RC	2	1	23VO	1	0	0.717345952988	530.0	117.0	538	113	1
1.7	2015_Jul_21_1704	s	s	5	2	SIC	384	ABS	0	1	24RO	0	1	5.17346477509	None	None	None	None	1
1.7	2015_Jul_21_1704	s	s	5	2	SIC	385	ABS	1	1	24MO	0	1	6.7389819622	None	None	None	None	1
1.7	2015_Jul_21_1704	s	s	5	2	SIC	386	RC	0	1	23RO	1	0	1.01865386963	-222.0	20.0	-228	23	1
1.7	2015_Jul_21_1704	s	s	5	2	SIC	387	ABS	2	1	24VO	0	1	0.750066041946	None	None	None	None	1
1.7	2015_Jul_21_1704	s	s	5	2	SIC	388	ABS	2	2	24VD	0	1	0.788040876389	None	None	None	None	1
1.7	2015_Jul_21_1704	s	s	5	2	SIC	389	RC	1	0	23MC	1	0	9.17769312859	-457.0	-363.0	-464	-357	1
1.7	2015_Jul_21_1704	s	s	5	2	SIC	390	ABS	2	0	24VC	0	1	0.8774330616	None	None	None	None	1
1.7	2015_Jul_21_1704	s	s	5	2	SIC	391	RC	1	2	23MD	1	0	0.6769490242	-539.0	220.0	-535	213	1
1.7	2015_Jul_21_1704	s	s	5	2	SIC	392	RC	2	2	23VD	1	0	0.552529811859	143.0	-43.0	144	-42	1
1.7	2015_Jul_21_1704	s	s	5	2	SIC	393	ABS	0	2	24RD	0	1	1.88881278038	None	None	None	None	1
1.7	2015_Jul_21_1704	s	s	5	2	SIC	394	ABS	1	2	24MD	0	1	0.846885919571	None	None	None	None	1
1.7	2015_Jul_21_1704	s	s	5	2	SIC	395	ABS	0	1	24RO	0	1	4.36169695854	None	None	None	None	1
1.7	2015_Jul_21_1704	s	s	5	2	SIC	396	RC	0	2	23RD	1	0	1.26414489746	392.0	-404.0	399	-407	1
1.7	2015_Jul_21_1704	s	s	5	2	SIC	397	RC	1	1	23MO	1	0	1.88274002075	-402.0	391.0	-413	391	1
1.7	2015_Jul_21_1704	s	s	5	2	SIC	398	RC	2	0	23VC	1	0	0.549849033356	-198.0	96.0	-195	101	1
1.7	2015_Jul_21_1704	s	s	5	2	SIC	399	ABS	1	0	24MC	0	1	11.4811389446	None	None	None	None	1
1.7	2015_Jul_21_1704	s	s	5	2	SIC	400	RC	2	1	23VO	1	0	0.618285894394	266.0	252.0	265	251	1
1.7	2015_Jul_21_1704	s	s	5	2	SIC	401	ABS	0	1	24RO	0	1	6.92047595978	None	None	None	None	1
1.7	2015_Jul_21_1704	s	s	5	2	SIC	402	ABS	1	1	24MO	0	1	5.50547385216	None	None	None	None	1
1.7	2015_Jul_21_1704	s	s	5	2	SIC	403	RC	1	2	23MD	1	0	0.787862062454	-481.0	34.0	-486	34	1
1.7	2015_Jul_21_1704	s	s	5	2	SIC	404	RC	2	1	23VO	1	0	0.587856054306	-478.0	-42.0	-474	-40	1
1.7	2015_Jul_21_1704	s	s	5	2	SIC	405	ABS	2	2	24VD	1	0	0.615279912949	None	None	-121	-70	0
1.7	2015_Jul_21_1704	s	s	5	2	SIC	406	RC	2	0	23VC	1	0	0.658434152603	-253.0	-401.0	-259	-405	1
1.7	2015_Jul_21_1704	s	s	5	2	SIC	407	ABS	1	0	24MC	0	1	11.8052740097	None	None	None	None	1
1.7	2015_Jul_21_1704	s	s	5	2	SIC	408	ABS	2	0	24VC	0	1	0.623585939407	None	None	None	None	1
1.7	2015_Jul_21_1704	s	s	5	2	SIC	409	RC	0	1	23RO	1	0	1.75940108299	-519.0	11.0	-519	15	1
1.7	2015_Jul_21_1704	s	s	5	2	SIC	410	ABS	1	2	24MD	0	1	1.38828396797	None	None	None	None	1
1.7	2015_Jul_21_1704	s	s	5	2	SIC	411	RC	2	2	23VD	1	0	0.667713165283	-57.0	-319.0	-56	-320	1
1.7	2015_Jul_21_1704	s	s	5	2	SIC	412	RC	1	1	23MO	1	0	0.936167001724	531.0	-47.0	528	-41	1
1.7	2015_Jul_21_1704	s	s	5	2	SIC	413	RC	1	0	23MC	1	0	6.62621116638	-388.0	122.0	-388	117	1
1.7	2015_Jul_21_1704	s	s	5	2	SIC	414	ABS	0	2	24RD	0	1	0.794920921326	None	None	None	None	1
1.7	2015_Jul_21_1704	s	s	5	2	SIC	415	ABS	2	1	24VO	0	1	0.705595016479	None	None	None	None	1
1.7	2015_Jul_21_1704	s	s	5	2	SIC	416	RC	0	2	23RD	1	0	0.599678039551	-157.0	346.0	-158	347	1
1.7	2015_Jul_21_1704	s	s	5	2	SIC	417	RC	2	0	23VC	1	0	0.51084113121	-360.0	156.0	-359	143	1
1.7	2015_Jul_21_1704	s	s	5	2	SIC	418	ABS	0	1	24RO	0	1	4.6326110363	None	None	None	None	1
1.7	2015_Jul_21_1704	s	s	5	2	SIC	419	RC	2	1	23VO	1	0	0.576059818268	-435.0	224.0	-443	225	1
1.7	2015_Jul_21_1704	s	s	5	2	SIC	420	ABS	2	1	24VO	0	1	0.799821138382	None	None	None	None	1
1.7	2015_Jul_21_1704	s	s	5	2	SIC	421	ABS	1	1	24MO	0	1	2.85963702202	None	None	None	None	1
1.7	2015_Jul_21_1704	s	s	5	2	SIC	422	ABS	1	0	24MC	0	1	6.6564810276	None	None	None	None	1
1.7	2015_Jul_21_1704	s	s	5	2	SIC	423	RC	1	1	23MO	1	0	2.93026709557	529.0	-20.0	523	-14	1
1.7	2015_Jul_21_1704	s	s	5	2	SIC	424	ABS	1	2	24MD	0	1	1.40822696686	None	None	None	None	1
1.7	2015_Jul_21_1704	s	s	5	2	SIC	425	RC	0	1	23RO	1	0	1.42362499237	11.0	23.0	11	28	1
1.7	2015_Jul_21_1704	s	s	5	2	SIC	426	ABS	2	0	24VC	0	1	1.23557519913	None	None	None	None	1
1.7	2015_Jul_21_1704	s	s	5	2	SIC	427	RC	0	2	23RD	1	0	0.587651968002	-28.0	179.0	-31	183	1
1.7	2015_Jul_21_1704	s	s	5	2	SIC	428	RC	1	2	23MD	1	0	0.69384598732	420.0	-92.0	417	-98	1
1.7	2015_Jul_21_1704	s	s	5	2	SIC	429	RC	1	0	23MC	1	0	7.79514598846	511.0	-287.0	507	-281	1
1.7	2015_Jul_21_1704	s	s	5	2	SIC	430	RC	2	2	23VD	1	0	0.641637086868	-416.0	-224.0	-418	-216	1
1.7	2015_Jul_21_1704	s	s	5	2	SIC	431	ABS	2	2	24VD	0	1	1.05871105194	None	None	None	None	1
1.7	2015_Jul_21_1704	s	s	5	2	SIC	432	ABS	0	2	24RD	0	1	1.05349206924	None	None	None	None	1
1.7	2015_Jul_21_1704	s	s	5	2	SIC	433	RC	2	2	23VD	1	0	1.25645899773	280.0	170.0	290	170	1
1.7	2015_Jul_21_1704	s	s	5	2	SIC	434	RC	0	2	23RD	1	0	1.41165590286	-481.0	119.0	-481	121	1
1.7	2015_Jul_21_1704	s	s	5	2	SIC	435	RC	2	1	23VO	1	0	0.646768093109	164.0	-3.0	163	-4	1
1.7	2015_Jul_21_1704	s	s	5	2	SIC	436	ABS	2	0	24VC	0	1	0.736051082611	None	None	None	None	1
1.7	2015_Jul_21_1704	s	s	5	2	SIC	437	ABS	0	1	24RO	0	1	5.11597704887	None	None	None	None	1
1.7	2015_Jul_21_1704	s	s	5	2	SIC	438	RC	1	0	23MC	1	0	5.99870800972	-136.0	163.0	-139	162	1
1.7	2015_Jul_21_1704	s	s	5	2	SIC	439	ABS	2	2	24VD	0	1	0.576109886169	None	None	None	None	1
1.7	2015_Jul_21_1704	s	s	5	2	SIC	440	RC	1	2	23MD	1	0	0.917492866516	425.0	239.0	424	235	1
1.7	2015_Jul_21_1704	s	s	5	2	SIC	441	ABS	1	1	24MO	0	1	2.25936794281	None	None	None	None	1
1.7	2015_Jul_21_1704	s	s	5	2	SIC	442	ABS	2	1	24VO	0	1	0.776283979416	None	None	None	None	1
1.7	2015_Jul_21_1704	s	s	5	2	SIC	443	RC	2	0	23VC	1	0	0.62321805954	144.0	33.0	146	29	1
1.7	2015_Jul_21_1704	s	s	5	2	SIC	444	ABS	0	2	24RD	0	1	1.1125869751	None	None	None	None	1
1.7	2015_Jul_21_1704	s	s	5	2	SIC	445	RC	1	1	23MO	1	0	0.858516931534	-346.0	-4.0	-354	1	1
1.7	2015_Jul_21_1704	s	s	5	2	SIC	446	RC	0	1	23RO	1	0	1.55994009972	-435.0	-261.0	-438	-252	1
1.7	2015_Jul_21_1704	s	s	5	2	SIC	447	ABS	1	2	24MD	0	1	0.831438064575	None	None	None	None	1
1.7	2015_Jul_21_1704	s	s	5	2	SIC	448	ABS	1	0	24MC	0	1	7.38719391823	None	None	None	None	1
1.7	2015_Jul_21_1704	s	s	5	2	SIC	449	RC	1	1	23MO	1	0	1.45344400406	-317.0	78.0	-319	83	1
1.7	2015_Jul_21_1704	s	s	5	2	SIC	450	ABS	0	1	24RO	0	1	4.00140380859	None	None	None	None	1
1.7	2015_Jul_21_1704	s	s	5	2	SIC	451	ABS	1	2	24MD	0	1	2.63044500351	None	None	None	None	1
1.7	2015_Jul_21_1704	s	s	5	2	SIC	452	RC	2	1	23VO	1	0	0.758796930313	324.0	-128.0	322	-125	1
1.7	2015_Jul_21_1704	s	s	5	2	SIC	453	RC	1	2	23MD	1	0	0.641242027283	-57.0	167.0	-54	159	1
1.7	2015_Jul_21_1704	s	s	5	2	SIC	454	ABS	1	0	24MC	0	1	8.10919308662	None	None	None	None	1
1.7	2015_Jul_21_1704	s	s	5	2	SIC	455	ABS	1	1	24MO	0	1	2.94199109077	None	None	None	None	1
1.7	2015_Jul_21_1704	s	s	5	2	SIC	456	RC	2	2	23VD	1	0	0.63494682312	0.0	-360.0	-2	-364	1
1.7	2015_Jul_21_1704	s	s	5	2	SIC	457	ABS	0	2	24RD	0	1	1.3840239048	None	None	None	None	1
1.7	2015_Jul_21_1704	s	s	5	2	SIC	458	RC	0	1	23RO	1	0	2.85968995094	-156.0	-360.0	-162	-361	1
1.7	2015_Jul_21_1704	s	s	5	2	SIC	459	RC	1	0	23MC	1	0	7.70398902893	54.0	329.0	45	335	1
1.7	2015_Jul_21_1704	s	s	5	2	SIC	460	RC	0	2	23RD	1	0	0.835141181946	424.0	-186.0	432	-181	1
1.7	2015_Jul_21_1704	s	s	5	2	SIC	461	RC	2	0	23VC	1	0	0.582885026932	-42.0	367.0	-44	370	1
1.7	2015_Jul_21_1704	s	s	5	2	SIC	462	ABS	2	2	24VD	0	1	0.779914855957	None	None	None	None	1
1.7	2015_Jul_21_1704	s	s	5	2	SIC	463	ABS	2	1	24VO	0	1	0.630594968796	None	None	None	None	1
1.7	2015_Jul_21_1704	s	s	5	2	SIC	464	ABS	2	0	24VC	0	1	0.729103803635	None	None	None	None	1
1.7	2015_Jul_21_1704	s	s	5	2	SIC	465	ABS	2	0	24VC	0	1	0.623245954514	None	None	None	None	1
1.7	2015_Jul_21_1704	s	s	5	2	SIC	466	ABS	0	2	24RD	0	1	0.947872877121	None	None	None	None	1
1.7	2015_Jul_21_1704	s	s	5	2	SIC	467	ABS	0	1	24RO	0	1	6.21427297592	None	None	None	None	1
1.7	2015_Jul_21_1704	s	s	5	2	SIC	468	ABS	1	1	24MO	0	1	4.52828788757	None	None	None	None	1
1.7	2015_Jul_21_1704	s	s	5	2	SIC	469	ABS	2	2	24VD	0	1	0.658510923386	None	None	None	None	1
1.7	2015_Jul_21_1704	s	s	5	2	SIC	470	ABS	1	0	24MC	0	1	5.84938502312	None	None	None	None	1
1.7	2015_Jul_21_1704	s	s	5	2	SIC	471	ABS	2	1	24VO	0	1	0.788000822067	None	None	None	None	1
1.7	2015_Jul_21_1704	s	s	5	2	SIC	472	RC	0	1	23RO	1	0	5.46940898895	-178.0	164.0	-177	164	1
1.7	2015_Jul_21_1704	s	s	5	2	SIC	473	RC	2	2	23VD	1	0	0.606474876404	179.0	-160.0	184	-153	1
1.7	2015_Jul_21_1704	s	s	5	2	SIC	474	RC	0	2	23RD	1	0	0.58284497261	-105.0	-33.0	-110	-36	1
1.7	2015_Jul_21_1704	s	s	5	2	SIC	475	RC	1	1	23MO	1	0	1.25378918648	-515.0	-100.0	-521	-94	1
1.7	2015_Jul_21_1704	s	s	5	2	SIC	476	RC	1	2	23MD	1	0	0.453930139542	-342.0	172.0	-347	165	1
1.7	2015_Jul_21_1704	s	s	5	2	SIC	477	ABS	1	2	24MD	0	1	0.90224480629	None	None	None	None	1
1.7	2015_Jul_21_1704	s	s	5	2	SIC	478	RC	2	0	23VC	1	0	0.564297914505	-348.0	-372.0	-352	-365	1
1.7	2015_Jul_21_1704	s	s	5	2	SIC	479	RC	2	1	23VO	1	0	0.490073919296	170.0	32.0	175	34	1
1.7	2015_Jul_21_1704	s	s	5	2	SIC	480	RC	1	0	23MC	1	0	5.53852391243	-357.0	101.0	-366	111	1
1.7	2015_Jul_21_1704	s	s	5	2	SIC	481	ABS	2	0	24VC	1	0	0.6181640625	None	None	105	27	0
1.7	2015_Jul_21_1704	s	s	5	2	SIC	482	RC	1	0	23MC	1	0	1.24707388878	48.0	360.0	54	356	1
1.7	2015_Jul_21_1704	s	s	5	2	SIC	483	ABS	1	0	24MC	0	1	3.4550640583	None	None	None	None	1
1.7	2015_Jul_21_1704	s	s	5	2	SIC	484	RC	1	2	23MD	1	0	0.623198986053	-179.0	-29.0	-175	-26	1
1.7	2015_Jul_21_1704	s	s	5	2	SIC	485	RC	0	2	23RD	1	0	0.724576950073	-351.0	-387.0	-350	-401	1
1.7	2015_Jul_21_1704	s	s	5	2	SIC	486	RC	2	2	23VD	1	0	0.764427900314	226.0	-325.0	215	-317	1
1.7	2015_Jul_21_1704	s	s	5	2	SIC	487	ABS	2	1	24VO	0	1	0.776255846024	None	None	None	None	1
1.7	2015_Jul_21_1704	s	s	5	2	SIC	488	ABS	0	2	24RD	0	1	1.3096511364	None	None	None	None	1
1.7	2015_Jul_21_1704	s	s	5	2	SIC	489	ABS	2	2	24VD	0	1	0.717337846756	None	None	None	None	1
1.7	2015_Jul_21_1704	s	s	5	2	SIC	490	RC	1	1	23MO	1	0	2.09824514389	155.0	-157.0	157	-151	1
1.7	2015_Jul_21_1704	s	s	5	2	SIC	491	ABS	0	1	24RO	0	1	6.19054889679	None	None	None	None	1
1.7	2015_Jul_21_1704	s	s	5	2	SIC	492	ABS	1	2	24MD	0	1	1.38350105286	None	None	None	None	1
1.7	2015_Jul_21_1704	s	s	5	2	SIC	493	ABS	1	1	24MO	0	1	4.02171301842	None	None	None	None	1
1.7	2015_Jul_21_1704	s	s	5	2	SIC	494	RC	2	1	23VO	1	0	0.878123998642	-287.0	188.0	-282	191	1
1.7	2015_Jul_21_1704	s	s	5	2	SIC	495	RC	2	0	23VC	1	0	0.923951864243	-452.0	-300.0	-450	-295	1
1.7	2015_Jul_21_1704	s	s	5	2	SIC	496	RC	0	1	23RO	1	0	1.93601107597	-177.0	-312.0	-175	-307	1
1.7	2015_Jul_21_1704	s	s	5	2	SIC	497	RC	1	1	23MO	1	0	0.865425109863	-114.0	64.0	-110	64	1
1.7	2015_Jul_21_1704	s	s	5	2	SIC	498	RC	2	2	23VD	1	0	0.587827205658	-147.0	-143.0	-147	-150	1
1.7	2015_Jul_21_1704	s	s	5	2	SIC	499	ABS	2	0	24VC	0	1	0.811570882797	None	None	None	None	1
1.7	2015_Jul_21_1704	s	s	5	2	SIC	500	ABS	2	2	24VD	0	1	0.611413002014	None	None	None	None	1
1.7	2015_Jul_21_1704	s	s	5	2	SIC	501	ABS	0	2	24RD	0	1	1.44163203239	None	None	None	None	1
1.7	2015_Jul_21_1704	s	s	5	2	SIC	502	ABS	1	0	24MC	0	1	6.02089881897	None	None	None	None	1
1.7	2015_Jul_21_1704	s	s	5	2	SIC	503	ABS	0	1	24RO	0	1	5.67782592773	None	None	None	None	1
1.7	2015_Jul_21_1704	s	s	5	2	SIC	504	ABS	2	1	24VO	0	1	0.653707027435	None	None	None	None	1
1.7	2015_Jul_21_1704	s	s	5	2	SIC	505	ABS	1	2	24MD	0	1	1.24273204803	None	None	None	None	1
1.7	2015_Jul_21_1704	s	s	5	2	SIC	506	RC	2	1	23VO	1	0	0.752723932266	-356.0	-239.0	-350	-241	1
1.7	2015_Jul_21_1704	s	s	5	2	SIC	507	RC	2	0	23VC	1	0	0.638927936554	-227.0	-350.0	-228	-346	1
1.7	2015_Jul_21_1704	s	s	5	2	SIC	508	RC	1	0	23MC	1	0	3.38428497314	-258.0	-105.0	-270	-95	1
1.7	2015_Jul_21_1704	s	s	5	2	SIC	509	RC	0	2	23RD	1	0	0.701016902924	292.0	-165.0	293	-165	1
1.7	2015_Jul_21_1704	s	s	5	2	SIC	510	ABS	1	1	24MO	0	1	3.40107798576	None	None	None	None	1
1.7	2015_Jul_21_1704	s	s	5	2	SIC	511	RC	1	2	23MD	1	0	0.517283916473	-35.0	75.0	-43	80	1
1.7	2015_Jul_21_1704	s	s	5	2	SIC	512	RC	0	1	23RO	1	0	0.823285102844	-176.0	105.0	-180	103	1
1.7	2015_Jul_21_1704	s	s	5	2	SIC	513	RC	2	2	23VD	1	0	0.463822841644	-384.0	12.0	-386	17	1
1.7	2015_Jul_21_1704	s	s	5	2	SIC	514	ABS	0	1	24RO	0	1	5.56225609779	None	None	None	None	1
1.7	2015_Jul_21_1704	s	s	5	2	SIC	515	ABS	1	0	24MC	0	1	7.04475593567	None	None	None	None	1
1.7	2015_Jul_21_1704	s	s	5	2	SIC	516	ABS	1	2	24MD	0	1	0.878630876541	None	None	None	None	1
1.7	2015_Jul_21_1704	s	s	5	2	SIC	517	RC	0	1	23RO	0	1	4.51922416687	-110.0	160.0	None	None	0
1.7	2015_Jul_21_1704	s	s	5	2	SIC	518	ABS	2	0	24VC	0	1	0.867900848389	None	None	None	None	1
1.7	2015_Jul_21_1704	s	s	5	2	SIC	519	ABS	1	1	24MO	0	1	2.96047496796	None	None	None	None	1
1.7	2015_Jul_21_1704	s	s	5	2	SIC	520	RC	0	2	23RD	1	0	0.758808135986	-498.0	359.0	-503	361	1
1.7	2015_Jul_21_1704	s	s	5	2	SIC	521	ABS	2	1	24VO	0	1	0.611466884613	None	None	None	None	1
1.7	2015_Jul_21_1704	s	s	5	2	SIC	522	RC	2	1	23VO	1	0	0.635028123856	225.0	-117.0	227	-111	1
1.7	2015_Jul_21_1704	s	s	5	2	SIC	523	RC	1	0	23MC	1	0	6.09646892548	-533.0	-273.0	-536	-272	1
1.7	2015_Jul_21_1704	s	s	5	2	SIC	524	RC	1	1	23MO	1	0	1.20711684227	-390.0	-107.0	-390	-107	1
1.7	2015_Jul_21_1704	s	s	5	2	SIC	525	ABS	2	2	24VD	1	0	0.517315864563	None	None	429	91	0
1.7	2015_Jul_21_1704	s	s	5	2	SIC	526	ABS	0	2	24RD	0	1	1.41914606094	None	None	None	None	1
1.7	2015_Jul_21_1704	s	s	5	2	SIC	527	RC	1	2	23MD	1	0	0.840734958649	336.0	-252.0	331	-255	1
1.7	2015_Jul_21_1704	s	s	5	2	SIC	528	RC	2	0	23VC	1	0	0.552602052689	-111.0	80.0	-112	80	1
1.7	2015_Jul_21_1704	s	s	5	2	SIC	529	RC	2	0	23VC	1	0	0.666563034058	-364.0	-76.0	-360	-66	1
1.7	2015_Jul_21_1704	s	s	5	2	SIC	530	RC	0	1	23RO	1	0	4.16105413437	-317.0	188.0	-313	184	1
1.7	2015_Jul_21_1704	s	s	5	2	SIC	531	RC	1	2	23MD	1	0	0.571005821228	-336.0	-48.0	-332	-49	1
1.7	2015_Jul_21_1704	s	s	5	2	SIC	532	RC	2	2	23VD	1	0	0.635001182556	40.0	265.0	39	265	1
1.7	2015_Jul_21_1704	s	s	5	2	SIC	533	RC	1	1	23MO	1	0	0.952762842178	-143.0	-204.0	-149	-195	1
1.7	2015_Jul_21_1704	s	s	5	2	SIC	534	ABS	2	2	24VD	0	1	0.783997058868	None	None	None	None	1
1.7	2015_Jul_21_1704	s	s	5	2	SIC	535	ABS	1	1	24MO	0	1	3.06644296646	None	None	None	None	1
1.7	2015_Jul_21_1704	s	s	5	2	SIC	536	ABS	0	2	24RD	0	1	0.924716949463	None	None	None	None	1
1.7	2015_Jul_21_1704	s	s	5	2	SIC	537	ABS	1	0	24MC	0	1	6.22376990318	None	None	None	None	1
1.7	2015_Jul_21_1704	s	s	5	2	SIC	538	RC	1	0	23MC	1	0	7.2212600708	533.0	-123.0	538	-132	1
1.7	2015_Jul_21_1704	s	s	5	2	SIC	539	RC	0	2	23RD	1	0	1.01944494247	-65.0	-318.0	-64	-316	1
1.7	2015_Jul_21_1704	s	s	5	2	SIC	540	ABS	0	1	24RO	0	1	4.9757361412	None	None	None	None	1
1.7	2015_Jul_21_1704	s	s	5	2	SIC	541	ABS	2	1	24VO	0	1	0.929165124893	None	None	None	None	1
1.7	2015_Jul_21_1704	s	s	5	2	SIC	542	ABS	1	2	24MD	0	1	1.21175885201	None	None	None	None	1
1.7	2015_Jul_21_1704	s	s	5	2	SIC	543	RC	2	1	23VO	1	0	0.740859031677	-484.0	-379.0	-493	-379	1
1.7	2015_Jul_21_1704	s	s	5	2	SIC	544	ABS	2	0	24VC	0	1	0.665370941162	None	None	None	None	1
1.7	2015_Jul_21_1704	s	s	5	2	SIC	545	ABS	2	0	24VC	0	1	0.705595970154	None	None	None	None	1
1.7	2015_Jul_21_1704	s	s	5	2	SIC	546	ABS	0	2	24RD	0	1	0.678623914719	None	None	None	None	1
1.7	2015_Jul_21_1704	s	s	5	2	SIC	547	RC	1	0	23MC	1	0	3.66801190376	69.0	399.0	70	394	1
1.7	2015_Jul_21_1704	s	s	5	2	SIC	548	RC	0	1	23RO	1	0	2.67129182816	-509.0	127.0	-504	125	1
1.7	2015_Jul_21_1704	s	s	5	2	SIC	549	RC	0	2	23RD	1	0	0.655798912048	-498.0	330.0	-495	332	1
1.7	2015_Jul_21_1704	s	s	5	2	SIC	550	ABS	1	2	24MD	0	1	0.899323940277	None	None	None	None	1
1.7	2015_Jul_21_1704	s	s	5	2	SIC	551	ABS	0	1	24RO	0	1	4.60854101181	None	None	None	None	1
1.7	2015_Jul_21_1704	s	s	5	2	SIC	552	RC	2	2	23VD	1	0	0.723500967026	531.0	-332.0	533	-333	1
1.7	2015_Jul_21_1704	s	s	5	2	SIC	553	RC	1	1	23MO	1	0	1.63143920898	-529.0	19.0	-525	20	1
1.7	2015_Jul_21_1704	s	s	5	2	SIC	554	ABS	1	0	24MC	0	1	6.76178193092	None	None	None	None	1
1.7	2015_Jul_21_1704	s	s	5	2	SIC	555	ABS	1	1	24MO	0	1	4.5667219162	None	None	None	None	1
1.7	2015_Jul_21_1704	s	s	5	2	SIC	556	RC	2	1	23VO	1	0	0.893796920776	-35.0	-400.0	-36	-394	1
1.7	2015_Jul_21_1704	s	s	5	2	SIC	557	RC	2	0	23VC	1	0	0.587854146957	-49.0	-258.0	-53	-267	1
1.7	2015_Jul_21_1704	s	s	5	2	SIC	558	ABS	2	2	24VD	0	1	1.23197293282	None	None	None	None	1
1.7	2015_Jul_21_1704	s	s	5	2	SIC	559	RC	1	2	23MD	1	0	0.941005945206	-448.0	48.0	-449	50	1
1.7	2015_Jul_21_1704	s	s	5	2	SIC	560	ABS	2	1	24VO	0	1	1.04411911964	None	None	None	None	1
1.7	2015_Jul_21_1704	s	s	5	2	SIC	561	RC	1	2	23MD	1	0	0.594709873199	-453.0	-251.0	-457	-246	1
1.7	2015_Jul_21_1704	s	s	5	2	SIC	562	ABS	1	0	24MC	0	1	9.13936901093	None	None	None	None	1
1.7	2015_Jul_21_1704	s	s	5	2	SIC	563	RC	0	2	23RD	1	0	0.78803396225	-80.0	164.0	-72	165	1
1.7	2015_Jul_21_1704	s	s	5	2	SIC	564	RC	1	1	23MO	1	0	1.43037390709	-287.0	-267.0	-284	-268	1
1.7	2015_Jul_21_1704	s	s	5	2	SIC	565	ABS	2	0	24VC	0	1	0.799830913544	None	None	None	None	1
1.7	2015_Jul_21_1704	s	s	5	2	SIC	566	RC	2	2	23VD	1	0	0.663891077042	76.0	-245.0	68	-241	1
1.7	2015_Jul_21_1704	s	s	5	2	SIC	567	ABS	0	2	24RD	0	1	1.37161493301	None	None	None	None	1
1.7	2015_Jul_21_1704	s	s	5	2	SIC	568	RC	2	1	23VO	1	0	0.717361927032	374.0	-225.0	377	-220	1
1.7	2015_Jul_21_1704	s	s	5	2	SIC	569	RC	0	1	23RO	1	0	1.40005588531	42.0	-49.0	48	-43	1
1.7	2015_Jul_21_1704	s	s	5	2	SIC	570	ABS	1	1	24MO	0	1	3.16936016083	None	None	None	None	1
1.7	2015_Jul_21_1704	s	s	5	2	SIC	571	RC	2	0	23VC	1	0	0.606130838394	-134.0	-143.0	-132	-141	1
1.7	2015_Jul_21_1704	s	s	5	2	SIC	572	ABS	2	1	24VO	0	1	0.658483028412	None	None	None	None	1
1.7	2015_Jul_21_1704	s	s	5	2	SIC	573	RC	1	0	23MC	1	0	2.30145096779	296.0	-332.0	299	-334	1
1.7	2015_Jul_21_1704	s	s	5	2	SIC	574	ABS	2	2	24VD	0	1	0.538223028183	None	None	None	None	1
1.7	2015_Jul_21_1704	s	s	5	2	SIC	575	ABS	0	1	24RO	0	1	4.01055622101	None	None	None	None	1
1.7	2015_Jul_21_1704	s	s	5	2	SIC	576	ABS	1	2	24MD	0	1	0.815760850906	None	None	None	None	1
1.7	2015_Jul_21_1704	s	s	5	2	SIC	577	RC	2	2	23VD	1	0	0.644106149673	-393.0	265.0	-385	273	1
1.7	2015_Jul_21_1704	s	s	5	2	SIC	578	RC	0	1	23RO	1	0	2.44218206406	204.0	-40.0	207	-45	1
1.7	2015_Jul_21_1704	s	s	5	2	SIC	579	ABS	2	0	24VC	0	1	0.788043022156	None	None	None	None	1
1.7	2015_Jul_21_1704	s	s	5	2	SIC	580	RC	2	1	23VO	1	0	0.729160070419	84.0	-116.0	86	-113	1
1.7	2015_Jul_21_1704	s	s	5	2	SIC	581	RC	1	2	23MD	1	0	1.05871701241	368.0	-49.0	369	-45	1
1.7	2015_Jul_21_1704	s	s	5	2	SIC	582	ABS	1	2	24MD	0	1	0.740874052048	None	None	None	None	1
1.7	2015_Jul_21_1704	s	s	5	2	SIC	583	RC	0	2	23RD	1	0	0.66540312767	41.0	-105.0	43	-99	1
1.7	2015_Jul_21_1704	s	s	5	2	SIC	584	RC	1	0	23MC	1	0	12.7939710617	532.0	331.0	534	335	1
1.7	2015_Jul_21_1704	s	s	5	2	SIC	585	ABS	2	1	24VO	0	1	0.658715963364	None	None	None	None	1
1.7	2015_Jul_21_1704	s	s	5	2	SIC	586	ABS	2	2	24VD	0	1	0.655375957489	None	None	None	None	1
1.7	2015_Jul_21_1704	s	s	5	2	SIC	587	RC	2	0	23VC	1	0	0.630059957504	-373.0	-230.0	-374	-222	1
1.7	2015_Jul_21_1704	s	s	5	2	SIC	588	ABS	0	1	24RO	0	1	3.4246032238	None	None	None	None	1
1.7	2015_Jul_21_1704	s	s	5	2	SIC	589	ABS	1	1	24MO	0	1	3.01264405251	None	None	None	None	1
1.7	2015_Jul_21_1704	s	s	5	2	SIC	590	RC	1	1	23MO	1	0	0.902960062027	-300.0	67.0	-307	72	1
1.7	2015_Jul_21_1704	s	s	5	2	SIC	591	ABS	0	2	24RD	0	1	1.2786719799	None	None	None	None	1
1.7	2015_Jul_21_1704	s	s	5	2	SIC	592	ABS	1	0	24MC	0	1	6.39773917198	None	None	None	None	1
