Version	Date	Stimuli	Method	Subject	Session	Condition	Trial	Target	Channel1	Channel2	Distractors	LMouseButton	RMouseButton	RT	TargetX	TargetY	ResponseX	ResponseY	Correct
1.7	2015_Aug_03_1210	s	s	7	4	Capacity	1	RC	0	2	23RD	1	0	0.596451044083	112.0	76.0	113	79	1
1.7	2015_Aug_03_1210	s	s	7	4	Capacity	2	ABS	0	1	24RO	0	1	4.42512321472	None	None	None	None	1
1.7	2015_Aug_03_1210	s	s	7	4	Capacity	3	ABS	0	2	24RD	0	1	1.36237096786	None	None	None	None	1
1.7	2015_Aug_03_1210	s	s	7	4	Capacity	4	RC	0	1	23RO	1	0	2.57717895508	-477.0	-168.0	-470	-170	1
1.7	2015_Aug_03_1210	s	s	7	4	Capacity	5	RC	0	1	23RO	1	0	2.07914495468	-470.0	-409.0	-470	-413	1
1.7	2015_Aug_03_1210	s	s	7	4	Capacity	6	ABS	0	2	24RD	0	1	1.54813504219	None	None	None	None	1
1.7	2015_Aug_03_1210	s	s	7	4	Capacity	7	ABS	0	1	24RO	0	1	5.14951395988	None	None	None	None	1
1.7	2015_Aug_03_1210	s	s	7	4	Capacity	8	RC	0	2	23RD	1	0	0.64181303978	265.0	229.0	270	224	1
1.7	2015_Aug_03_1210	s	s	7	4	Capacity	9	ABS	0	1	24RO	0	1	5.02540898323	None	None	None	None	1
1.7	2015_Aug_03_1210	s	s	7	4	Capacity	10	ABS	0	2	24RD	0	1	1.70118117332	None	None	None	None	1
1.7	2015_Aug_03_1210	s	s	7	4	Capacity	11	RC	0	1	23RO	1	0	3.29019904137	154.0	-248.0	155	-249	1
1.7	2015_Aug_03_1210	s	s	7	4	Capacity	12	RC	0	2	23RD	1	0	0.54488992691	367.0	61.0	365	56	1
1.7	2015_Aug_03_1210	s	s	7	4	Capacity	13	ABS	0	1	24RO	0	1	5.47263002396	None	None	None	None	1
1.7	2015_Aug_03_1210	s	s	7	4	Capacity	14	ABS	0	2	24RD	0	1	1.1647400856	None	None	None	None	1
1.7	2015_Aug_03_1210	s	s	7	4	Capacity	15	RC	0	1	23RO	1	0	1.25885295868	37.0	137.0	41	138	1
1.7	2015_Aug_03_1210	s	s	7	4	Capacity	16	RC	0	2	23RD	1	0	0.806608915329	523.0	-213.0	522	-213	1
1.7	2015_Aug_03_1210	s	s	7	4	Capacity	17	RC	0	2	23RD	1	0	0.631713151932	-40.0	-182.0	-38	-187	1
1.7	2015_Aug_03_1210	s	s	7	4	Capacity	18	ABS	0	1	24RO	0	1	4.01306295395	None	None	None	None	1
1.7	2015_Aug_03_1210	s	s	7	4	Capacity	19	RC	0	1	23RO	1	0	5.2254781723	377.0	285.0	376	283	1
1.7	2015_Aug_03_1210	s	s	7	4	Capacity	20	ABS	0	2	24RD	0	1	2.2710211277	None	None	None	None	1
1.7	2015_Aug_03_1210	s	s	7	4	Capacity	21	ABS	0	1	24RO	0	1	7.88133597374	None	None	None	None	1
1.7	2015_Aug_03_1210	s	s	7	4	Capacity	22	RC	0	2	23RD	1	0	1.00734305382	391.0	299.0	391	300	1
1.7	2015_Aug_03_1210	s	s	7	4	Capacity	23	RC	0	1	23RO	1	0	2.94831609726	15.0	-25.0	9	-26	1
1.7	2015_Aug_03_1210	s	s	7	4	Capacity	24	ABS	0	2	24RD	0	1	1.77030110359	None	None	None	None	1
1.7	2015_Aug_03_1210	s	s	7	4	Capacity	25	ABS	0	1	24RO	0	1	5.60209107399	None	None	None	None	1
1.7	2015_Aug_03_1210	s	s	7	4	Capacity	26	RC	0	2	23RD	1	0	0.7713971138	492.0	-184.0	496	-182	1
1.7	2015_Aug_03_1210	s	s	7	4	Capacity	27	ABS	0	2	24RD	0	1	2.06616592407	None	None	None	None	1
1.7	2015_Aug_03_1210	s	s	7	4	Capacity	28	RC	0	1	23RO	1	0	5.21353793144	-442.0	-343.0	-446	-340	1
1.7	2015_Aug_03_1210	s	s	7	4	Capacity	29	ABS	0	1	24RO	0	1	6.53203201294	None	None	None	None	1
1.7	2015_Aug_03_1210	s	s	7	4	Capacity	30	RC	0	2	23RD	1	0	0.744639873505	-471.0	203.0	-472	201	1
1.7	2015_Aug_03_1210	s	s	7	4	Capacity	31	ABS	0	2	24RD	0	1	2.37246417999	None	None	None	None	1
1.7	2015_Aug_03_1210	s	s	7	4	Capacity	32	RC	0	1	23RO	1	0	1.57442784309	-77.0	66.0	-73	72	1
1.7	2015_Aug_03_1210	s	s	7	4	Capacity	33	ABS	0	1	24RO	0	1	4.21979594231	None	None	None	None	1
1.7	2015_Aug_03_1210	s	s	7	4	Capacity	34	RC	0	1	23RO	1	0	1.68798804283	-504.0	97.0	-500	97	1
1.7	2015_Aug_03_1210	s	s	7	4	Capacity	35	ABS	0	2	24RD	0	1	1.46670103073	None	None	None	None	1
1.7	2015_Aug_03_1210	s	s	7	4	Capacity	36	RC	0	2	23RD	1	0	0.797277927399	-162.0	-11.0	-157	-10	1
1.7	2015_Aug_03_1210	s	s	7	4	Capacity	37	ABS	0	1	24RO	0	1	5.04636192322	None	None	None	None	1
1.7	2015_Aug_03_1210	s	s	7	4	Capacity	38	RC	0	2	23RD	1	0	0.870437145233	208.0	361.0	214	369	1
1.7	2015_Aug_03_1210	s	s	7	4	Capacity	39	ABS	0	2	24RD	0	1	1.5370490551	None	None	None	None	1
1.7	2015_Aug_03_1210	s	s	7	4	Capacity	40	RC	0	1	23RO	1	0	3.51874303818	346.0	243.0	347	243	1
1.7	2015_Aug_03_1210	s	s	7	4	Capacity	41	ABS	0	1	24RO	0	1	4.86990785599	None	None	None	None	1
1.7	2015_Aug_03_1210	s	s	7	4	Capacity	42	ABS	0	2	24RD	0	1	1.35295295715	None	None	None	None	1
1.7	2015_Aug_03_1210	s	s	7	4	Capacity	43	RC	0	1	23RO	1	0	2.6712911129	173.0	-218.0	165	-216	1
1.7	2015_Aug_03_1210	s	s	7	4	Capacity	44	RC	0	2	23RD	1	0	0.646651029587	-200.0	6.0	-199	3	1
1.7	2015_Aug_03_1210	s	s	7	4	Capacity	45	ABS	0	1	24RO	0	1	5.07908320427	None	None	None	None	1
1.7	2015_Aug_03_1210	s	s	7	4	Capacity	46	RC	0	2	23RD	1	0	0.72913312912	-293.0	-251.0	-296	-253	1
1.7	2015_Aug_03_1210	s	s	7	4	Capacity	47	RC	0	1	23RO	1	0	5.20866680145	434.0	331.0	434	324	1
1.7	2015_Aug_03_1210	s	s	7	4	Capacity	48	ABS	0	2	24RD	0	1	0.9587931633	None	None	None	None	1
1.7	2015_Aug_03_1210	s	s	7	4	Capacity	49	RC	0	2	23RD	1	0	0.712337017059	214.0	311.0	216	318	1
1.7	2015_Aug_03_1210	s	s	7	4	Capacity	50	ABS	0	2	24RD	0	1	2.36022305489	None	None	None	None	1
1.7	2015_Aug_03_1210	s	s	7	4	Capacity	51	ABS	0	1	24RO	0	1	4.96696186066	None	None	None	None	1
1.7	2015_Aug_03_1210	s	s	7	4	Capacity	52	RC	0	1	23RO	1	0	2.44794392586	-5.0	165.0	-8	162	1
1.7	2015_Aug_03_1210	s	s	7	4	Capacity	53	RC	0	1	23RO	1	0	1.30584192276	-108.0	142.0	-101	145	1
1.7	2015_Aug_03_1210	s	s	7	4	Capacity	54	ABS	0	1	24RO	0	1	3.55060482025	None	None	None	None	1
1.7	2015_Aug_03_1210	s	s	7	4	Capacity	55	ABS	0	2	24RD	0	1	1.63555502892	None	None	None	None	1
1.7	2015_Aug_03_1210	s	s	7	4	Capacity	56	RC	0	2	23RD	1	0	0.677412033081	-115.0	71.0	-117	77	1
1.7	2015_Aug_03_1210	s	s	7	4	Capacity	57	ABS	0	2	24RD	0	1	1.37157177925	None	None	None	None	1
1.7	2015_Aug_03_1210	s	s	7	4	Capacity	58	RC	0	1	23RO	1	0	4.40791606903	154.0	-37.0	158	-33	1
1.7	2015_Aug_03_1210	s	s	7	4	Capacity	59	ABS	0	1	24RO	0	1	5.7669210434	None	None	None	None	1
1.7	2015_Aug_03_1210	s	s	7	4	Capacity	60	RC	0	2	23RD	1	0	0.747136116028	-257.0	-88.0	-255	-91	1
1.7	2015_Aug_03_1210	s	s	7	4	Capacity	61	ABS	0	2	24RD	0	1	0.891095876694	None	None	None	None	1
1.7	2015_Aug_03_1210	s	s	7	4	Capacity	62	RC	0	1	23RO	1	0	2.38873195648	-59.0	-206.0	-52	-208	1
1.7	2015_Aug_03_1210	s	s	7	4	Capacity	63	ABS	0	1	24RO	0	1	4.85568594933	None	None	None	None	1
1.7	2015_Aug_03_1210	s	s	7	4	Capacity	64	RC	0	2	23RD	1	0	0.785434007645	193.0	325.0	191	319	1
1.7	2015_Aug_03_1210	s	s	7	4	Capacity	65	RC	0	1	23RO	1	0	3.49557805061	72.0	-341.0	72	-340	1
1.7	2015_Aug_03_1210	s	s	7	4	Capacity	66	RC	0	2	23RD	1	0	0.564371109009	-76.0	22.0	-77	27	1
1.7	2015_Aug_03_1210	s	s	7	4	Capacity	67	ABS	0	1	24RO	0	1	4.21317791939	None	None	None	None	1
1.7	2015_Aug_03_1210	s	s	7	4	Capacity	68	ABS	0	2	24RD	0	1	2.17190718651	None	None	None	None	1
1.7	2015_Aug_03_1210	s	s	7	4	Capacity	69	ABS	0	1	24RO	0	1	4.83056879044	None	None	None	None	1
1.7	2015_Aug_03_1210	s	s	7	4	Capacity	70	ABS	0	2	24RD	0	1	0.983026981354	None	None	None	None	1
1.7	2015_Aug_03_1210	s	s	7	4	Capacity	71	RC	0	2	23RD	1	0	0.711743116379	448.0	-346.0	449	-344	1
1.7	2015_Aug_03_1210	s	s	7	4	Capacity	72	RC	0	1	23RO	1	0	5.12637400627	-488.0	-370.0	-494	-376	1
1.7	2015_Aug_03_1210	s	s	7	4	Capacity	73	RC	0	1	23RO	1	0	2.71306991577	534.0	-251.0	535	-247	1
1.7	2015_Aug_03_1210	s	s	7	4	Capacity	74	ABS	0	2	24RD	0	1	1.06516718864	None	None	None	None	1
1.7	2015_Aug_03_1210	s	s	7	4	Capacity	75	ABS	0	1	24RO	0	1	4.59683203697	None	None	None	None	1
1.7	2015_Aug_03_1210	s	s	7	4	Capacity	76	RC	0	2	23RD	1	0	0.959587097168	-430.0	228.0	-433	228	1
1.7	2015_Aug_03_1210	s	s	7	4	Capacity	77	RC	0	2	23RD	1	0	0.717330932617	134.0	356.0	128	356	1
1.7	2015_Aug_03_1210	s	s	7	4	Capacity	78	RC	0	1	23RO	1	0	1.34116888046	250.0	-4.0	244	-5	1
1.7	2015_Aug_03_1210	s	s	7	4	Capacity	79	ABS	0	2	24RD	0	1	1.22346997261	None	None	None	None	1
1.7	2015_Aug_03_1210	s	s	7	4	Capacity	80	ABS	0	1	24RO	0	1	5.46737289429	None	None	None	None	1
1.7	2015_Aug_03_1210	s	s	7	4	Capacity	81	RC	0	1	23RO	1	0	1.47720909119	243.0	-37.0	250	-40	1
1.7	2015_Aug_03_1210	s	s	7	4	Capacity	82	ABS	0	1	24RO	0	1	3.99827289581	None	None	None	None	1
1.7	2015_Aug_03_1210	s	s	7	4	Capacity	83	ABS	0	2	24RD	0	1	1.15291690826	None	None	None	None	1
1.7	2015_Aug_03_1210	s	s	7	4	Capacity	84	RC	0	2	23RD	1	0	0.783163070679	-224.0	-137.0	-216	-133	1
1.7	2015_Aug_03_1210	s	s	7	4	Capacity	85	RC	0	1	23RO	1	0	1.26555085182	-338.0	-133.0	-334	-134	1
1.7	2015_Aug_03_1210	s	s	7	4	Capacity	86	ABS	0	1	24RO	0	1	5.12630796432	None	None	None	None	1
1.7	2015_Aug_03_1210	s	s	7	4	Capacity	87	RC	0	2	23RD	1	0	0.682092905045	-218.0	-226.0	-216	-228	1
1.7	2015_Aug_03_1210	s	s	7	4	Capacity	88	ABS	0	2	24RD	0	1	1.12430787086	None	None	None	None	1
1.7	2015_Aug_03_1210	s	s	7	4	Capacity	89	ABS	0	2	24RD	0	1	1.19501686096	None	None	None	None	1
1.7	2015_Aug_03_1210	s	s	7	4	Capacity	90	RC	0	1	23RO	1	0	4.23673987389	538.0	-396.0	544	-397	1
1.7	2015_Aug_03_1210	s	s	7	4	Capacity	91	RC	0	2	23RD	1	0	0.646571159363	-416.0	-174.0	-413	-173	1
1.7	2015_Aug_03_1210	s	s	7	4	Capacity	92	ABS	0	1	24RO	0	1	5.07916688919	None	None	None	None	1
1.7	2015_Aug_03_1210	s	s	7	4	Capacity	1	ABS	1	0	24MC	0	1	4.49092507362	None	None	None	None	1
1.7	2015_Aug_03_1210	s	s	7	4	Capacity	2	RC	2	0	23VC	1	0	0.771386861801	140.0	380.0	139	380	1
1.7	2015_Aug_03_1210	s	s	7	4	Capacity	3	RC	1	0	23MC	1	0	1.57161188126	-388.0	281.0	-389	283	1
1.7	2015_Aug_03_1210	s	s	7	4	Capacity	4	ABS	2	0	24VC	0	1	0.771180152893	None	None	None	None	1
1.7	2015_Aug_03_1210	s	s	7	4	Capacity	5	RC	1	0	23MC	1	0	1.20940899849	-342.0	283.0	-349	282	1
1.7	2015_Aug_03_1210	s	s	7	4	Capacity	6	ABS	2	0	24VC	0	1	1.04686999321	None	None	None	None	1
1.7	2015_Aug_03_1210	s	s	7	4	Capacity	7	ABS	1	0	24MC	0	1	5.59719800949	None	None	None	None	1
1.7	2015_Aug_03_1210	s	s	7	4	Capacity	8	RC	2	0	23VC	1	0	0.653645038605	356.0	-169.0	357	-167	1
1.7	2015_Aug_03_1210	s	s	7	4	Capacity	9	ABS	1	0	24MC	0	1	5.11959910393	None	None	None	None	1
1.7	2015_Aug_03_1210	s	s	7	4	Capacity	10	RC	1	0	23MC	1	0	1.52638697624	-474.0	-328.0	-477	-328	1
1.7	2015_Aug_03_1210	s	s	7	4	Capacity	11	ABS	2	0	24VC	0	1	0.693743944168	None	None	None	None	1
1.7	2015_Aug_03_1210	s	s	7	4	Capacity	12	RC	2	0	23VC	1	0	0.700850963593	-24.0	-154.0	-29	-153	1
1.7	2015_Aug_03_1210	s	s	7	4	Capacity	13	RC	1	0	23MC	1	0	0.870298862457	332.0	20.0	342	20	1
1.7	2015_Aug_03_1210	s	s	7	4	Capacity	14	RC	2	0	23VC	1	0	0.752704143524	-488.0	-298.0	-491	-297	1
1.7	2015_Aug_03_1210	s	s	7	4	Capacity	15	ABS	2	0	24VC	0	1	1.52456307411	None	None	None	None	1
1.7	2015_Aug_03_1210	s	s	7	4	Capacity	16	ABS	1	0	24MC	0	1	6.04690599442	None	None	None	None	1
1.7	2015_Aug_03_1210	s	s	7	4	Capacity	17	ABS	2	0	24VC	0	1	1.35967612267	None	None	None	None	1
1.7	2015_Aug_03_1210	s	s	7	4	Capacity	18	RC	1	0	23MC	1	0	0.893840074539	-411.0	-373.0	-409	-372	1
1.7	2015_Aug_03_1210	s	s	7	4	Capacity	19	RC	2	0	23VC	1	0	0.611459970474	-517.0	95.0	-516	94	1
1.7	2015_Aug_03_1210	s	s	7	4	Capacity	20	ABS	1	0	24MC	0	1	5.93166995049	None	None	None	None	1
1.7	2015_Aug_03_1210	s	s	7	4	Capacity	21	RC	2	0	23VC	1	0	0.634844064713	272.0	-77.0	266	-77	1
1.7	2015_Aug_03_1210	s	s	7	4	Capacity	22	RC	1	0	23MC	1	0	2.96015000343	284.0	218.0	293	219	1
1.7	2015_Aug_03_1210	s	s	7	4	Capacity	23	ABS	2	0	24VC	0	1	0.867223978043	None	None	None	None	1
1.7	2015_Aug_03_1210	s	s	7	4	Capacity	24	ABS	1	0	24MC	0	1	4.43188810349	None	None	None	None	1
1.7	2015_Aug_03_1210	s	s	7	4	Capacity	25	RC	1	0	23MC	1	0	2.9019100666	-381.0	220.0	-384	218	1
1.7	2015_Aug_03_1210	s	s	7	4	Capacity	26	RC	2	0	23VC	1	0	0.729121923447	-514.0	343.0	-516	346	1
1.7	2015_Aug_03_1210	s	s	7	4	Capacity	27	ABS	2	0	24VC	0	1	0.69380903244	None	None	None	None	1
1.7	2015_Aug_03_1210	s	s	7	4	Capacity	28	ABS	1	0	24MC	0	1	3.69529604912	None	None	None	None	1
1.7	2015_Aug_03_1210	s	s	7	4	Capacity	29	ABS	2	0	24VC	0	1	0.823238134384	None	None	None	None	1
1.7	2015_Aug_03_1210	s	s	7	4	Capacity	30	RC	1	0	23MC	1	0	1.12928986549	-476.0	-92.0	-472	-97	1
1.7	2015_Aug_03_1210	s	s	7	4	Capacity	31	ABS	1	0	24MC	0	1	4.63195014	None	None	None	None	1
1.7	2015_Aug_03_1210	s	s	7	4	Capacity	32	RC	2	0	23VC	1	0	0.646816968918	190.0	322.0	191	321	1
1.7	2015_Aug_03_1210	s	s	7	4	Capacity	33	ABS	2	0	24VC	0	1	0.693714857101	None	None	None	None	1
1.7	2015_Aug_03_1210	s	s	7	4	Capacity	34	RC	1	0	23MC	1	0	1.64729404449	-347.0	365.0	-351	366	1
1.7	2015_Aug_03_1210	s	s	7	4	Capacity	35	ABS	1	0	24MC	0	1	4.31114697456	None	None	None	None	1
1.7	2015_Aug_03_1210	s	s	7	4	Capacity	36	RC	2	0	23VC	1	0	0.701028823853	-258.0	316.0	-259	318	1
1.7	2015_Aug_03_1210	s	s	7	4	Capacity	37	ABS	2	0	24VC	0	1	1.24201488495	None	None	None	None	1
1.7	2015_Aug_03_1210	s	s	7	4	Capacity	38	ABS	1	0	24MC	0	1	4.77307701111	None	None	None	None	1
1.7	2015_Aug_03_1210	s	s	7	4	Capacity	39	RC	1	0	23MC	1	0	1.45892715454	-286.0	317.0	-289	316	1
1.7	2015_Aug_03_1210	s	s	7	4	Capacity	40	RC	2	0	23VC	1	0	0.593940973282	348.0	53.0	351	50	1
1.7	2015_Aug_03_1210	s	s	7	4	Capacity	41	RC	1	0	23MC	1	0	1.14157104492	34.0	-235.0	25	-237	1
1.7	2015_Aug_03_1210	s	s	7	4	Capacity	42	ABS	1	0	24MC	0	1	6.23308515549	None	None	None	None	1
1.7	2015_Aug_03_1210	s	s	7	4	Capacity	43	ABS	2	0	24VC	0	1	2.65951514244	None	None	None	None	1
1.7	2015_Aug_03_1210	s	s	7	4	Capacity	44	RC	2	0	23VC	1	0	4.86060404778	-174.0	173.0	-166	181	1
1.7	2015_Aug_03_1210	s	s	7	4	Capacity	45	ABS	1	0	24MC	0	1	6.37451195717	None	None	None	None	1
1.7	2015_Aug_03_1210	s	s	7	4	Capacity	46	ABS	2	0	24VC	0	1	1.36474919319	None	None	None	None	1
1.7	2015_Aug_03_1210	s	s	7	4	Capacity	47	RC	1	0	23MC	1	0	0.900038003922	-299.0	151.0	-294	156	1
1.7	2015_Aug_03_1210	s	s	7	4	Capacity	48	RC	2	0	23VC	1	0	1.29426002502	296.0	237.0	295	245	1
1.7	2015_Aug_03_1210	s	s	7	4	Capacity	49	RC	1	0	23MC	1	0	1.48930001259	-196.0	-146.0	-193	-144	1
1.7	2015_Aug_03_1210	s	s	7	4	Capacity	50	RC	2	0	23VC	1	0	0.618723154068	-264.0	-221.0	-266	-219	1
1.7	2015_Aug_03_1210	s	s	7	4	Capacity	51	ABS	2	0	24VC	0	1	0.941013813019	None	None	None	None	1
1.7	2015_Aug_03_1210	s	s	7	4	Capacity	52	ABS	1	0	24MC	0	1	2.53386306763	None	None	None	None	1
1.7	2015_Aug_03_1210	s	s	7	4	Capacity	53	RC	1	0	23MC	1	0	3.04524302483	181.0	329.0	186	320	1
1.7	2015_Aug_03_1210	s	s	7	4	Capacity	54	ABS	1	0	24MC	0	1	2.28289103508	None	None	None	None	1
1.7	2015_Aug_03_1210	s	s	7	4	Capacity	55	ABS	2	0	24VC	0	1	0.806536912918	None	None	None	None	1
1.7	2015_Aug_03_1210	s	s	7	4	Capacity	56	RC	2	0	23VC	1	0	0.665505886078	-491.0	79.0	-484	81	1
1.7	2015_Aug_03_1210	s	s	7	4	Capacity	57	ABS	2	0	24VC	0	1	0.599961042404	None	None	None	None	1
1.7	2015_Aug_03_1210	s	s	7	4	Capacity	58	RC	1	0	23MC	1	0	1.43589186668	98.0	-301.0	103	-302	1
1.7	2015_Aug_03_1210	s	s	7	4	Capacity	59	ABS	1	0	24MC	0	1	3.3594789505	None	None	None	None	1
1.7	2015_Aug_03_1210	s	s	7	4	Capacity	60	RC	2	0	23VC	1	0	0.799736022949	-263.0	-36.0	-269	-37	1
1.7	2015_Aug_03_1210	s	s	7	4	Capacity	61	ABS	2	0	24VC	0	1	1.0906329155	None	None	None	None	1
1.7	2015_Aug_03_1210	s	s	7	4	Capacity	62	ABS	1	0	24MC	0	1	3.77469801903	None	None	None	None	1
1.7	2015_Aug_03_1210	s	s	7	4	Capacity	63	RC	2	0	23VC	1	0	0.6585688591	482.0	-347.0	488	-345	1
1.7	2015_Aug_03_1210	s	s	7	4	Capacity	64	RC	1	0	23MC	1	0	1.18817305565	-218.0	39.0	-215	42	1
1.7	2015_Aug_03_1210	s	s	7	4	Capacity	65	ABS	1	0	24MC	0	1	4.22503399849	None	None	None	None	1
1.7	2015_Aug_03_1210	s	s	7	4	Capacity	66	RC	2	0	23VC	1	0	0.629764080048	-27.0	-49.0	-26	-48	1
1.7	2015_Aug_03_1210	s	s	7	4	Capacity	67	RC	1	0	23MC	1	0	1.41891908646	-174.0	-357.0	-169	-359	1
1.7	2015_Aug_03_1210	s	s	7	4	Capacity	68	ABS	2	0	24VC	0	1	0.888199806213	None	None	None	None	1
1.7	2015_Aug_03_1210	s	s	7	4	Capacity	69	RC	1	0	23MC	1	0	0.606564044952	-128.0	188.0	-124	190	1
1.7	2015_Aug_03_1210	s	s	7	4	Capacity	70	ABS	2	0	24VC	0	1	1.08918905258	None	None	None	None	1
1.7	2015_Aug_03_1210	s	s	7	4	Capacity	71	ABS	1	0	24MC	0	1	4.0083220005	None	None	None	None	1
1.7	2015_Aug_03_1210	s	s	7	4	Capacity	72	RC	2	0	23VC	1	0	0.717353820801	333.0	410.0	335	412	1
1.7	2015_Aug_03_1210	s	s	7	4	Capacity	73	ABS	1	0	24MC	0	1	4.29288601875	None	None	None	None	1
1.7	2015_Aug_03_1210	s	s	7	4	Capacity	74	RC	2	0	23VC	1	0	0.689169883728	-75.0	-275.0	-72	-279	1
1.7	2015_Aug_03_1210	s	s	7	4	Capacity	75	ABS	2	0	24VC	0	1	0.941043138504	None	None	None	None	1
1.7	2015_Aug_03_1210	s	s	7	4	Capacity	76	RC	1	0	23MC	1	0	1.40006184578	69.0	387.0	66	390	1
1.7	2015_Aug_03_1210	s	s	7	4	Capacity	77	ABS	2	0	24VC	0	1	0.752696037292	None	None	None	None	1
1.7	2015_Aug_03_1210	s	s	7	4	Capacity	78	ABS	1	0	24MC	0	1	3.16555905342	None	None	None	None	1
1.7	2015_Aug_03_1210	s	s	7	4	Capacity	79	RC	2	0	23VC	1	0	0.723655223846	-162.0	-249.0	-158	-251	1
1.7	2015_Aug_03_1210	s	s	7	4	Capacity	80	RC	1	0	23MC	1	0	1.83558106422	-535.0	-342.0	-530	-343	1
1.7	2015_Aug_03_1210	s	s	7	4	Capacity	81	RC	2	0	23VC	1	0	0.59960103035	-55.0	-191.0	-53	-197	1
1.7	2015_Aug_03_1210	s	s	7	4	Capacity	82	ABS	1	0	24MC	0	1	2.69476699829	None	None	None	None	1
1.7	2015_Aug_03_1210	s	s	7	4	Capacity	83	RC	1	0	23MC	1	0	2.12985706329	356.0	267.0	361	269	1
1.7	2015_Aug_03_1210	s	s	7	4	Capacity	84	ABS	2	0	24VC	0	1	0.646741867065	None	None	None	None	1
1.7	2015_Aug_03_1210	s	s	7	4	Capacity	85	RC	2	0	23VC	1	0	0.705591917038	-223.0	25.0	-224	27	1
1.7	2015_Aug_03_1210	s	s	7	4	Capacity	86	ABS	2	0	24VC	0	1	0.717324018478	None	None	None	None	1
1.7	2015_Aug_03_1210	s	s	7	4	Capacity	87	RC	1	0	23MC	1	0	2.69482898712	370.0	301.0	375	299	1
1.7	2015_Aug_03_1210	s	s	7	4	Capacity	88	ABS	1	0	24MC	0	1	3.02437281609	None	None	None	None	1
1.7	2015_Aug_03_1210	s	s	7	4	Capacity	89	RC	1	0	23MC	1	0	2.28271317482	330.0	-316.0	332	-314	1
1.7	2015_Aug_03_1210	s	s	7	4	Capacity	90	ABS	2	0	24VC	0	1	0.799681901932	None	None	None	None	1
1.7	2015_Aug_03_1210	s	s	7	4	Capacity	91	RC	2	0	23VC	1	0	0.635224103928	-484.0	-256.0	-481	-257	1
1.7	2015_Aug_03_1210	s	s	7	4	Capacity	92	ABS	1	0	24MC	0	1	2.38883090019	None	None	None	None	1
1.7	2015_Aug_03_1210	s	s	7	4	SIC	1	RC	0	1	23RO	1	0	1.59469199181	-247.0	63.0	-248	66	1
1.7	2015_Aug_03_1210	s	s	7	4	SIC	2	RC	1	2	23MD	1	0	1.07084608078	-193.0	392.0	-187	392	1
1.7	2015_Aug_03_1210	s	s	7	4	SIC	3	ABS	2	1	24VO	0	1	1.17652606964	None	None	None	None	1
1.7	2015_Aug_03_1210	s	s	7	4	SIC	4	ABS	0	2	24RD	0	1	1.41184997559	None	None	None	None	1
1.7	2015_Aug_03_1210	s	s	7	4	SIC	5	ABS	1	1	24MO	0	1	5.86786198616	None	None	None	None	1
1.7	2015_Aug_03_1210	s	s	7	4	SIC	6	RC	2	1	23VO	1	0	0.0465040206909	-228.0	110.0	13	-11	0
1.7	2015_Aug_03_1210	s	s	7	4	SIC	7	ABS	0	1	24RO	0	1	4.97824597359	None	None	None	None	1
1.7	2015_Aug_03_1210	s	s	7	4	SIC	8	ABS	2	0	24VC	0	1	1.17222499847	None	None	None	None	1
1.7	2015_Aug_03_1210	s	s	7	4	SIC	9	RC	1	1	23MO	1	0	1.04694485664	331.0	135.0	326	130	1
1.7	2015_Aug_03_1210	s	s	7	4	SIC	10	RC	2	2	23VD	1	0	1.43530297279	530.0	-239.0	535	-238	1
1.7	2015_Aug_03_1210	s	s	7	4	SIC	11	RC	2	0	23VC	1	0	0.929193973541	223.0	357.0	223	359	1
1.7	2015_Aug_03_1210	s	s	7	4	SIC	12	RC	1	0	23MC	1	0	0.664602994919	-27.0	100.0	-31	87	1
1.7	2015_Aug_03_1210	s	s	7	4	SIC	13	RC	0	2	23RD	1	0	0.623203992844	297.0	-141.0	287	-142	1
1.7	2015_Aug_03_1210	s	s	7	4	SIC	14	ABS	2	2	24VD	0	1	0.817806005478	None	None	None	None	1
1.7	2015_Aug_03_1210	s	s	7	4	SIC	15	ABS	1	0	24MC	0	1	4.29942297935	None	None	None	None	1
1.7	2015_Aug_03_1210	s	s	7	4	SIC	16	ABS	1	2	24MD	0	1	1.68249511719	None	None	None	None	1
1.7	2015_Aug_03_1210	s	s	7	4	SIC	17	RC	1	0	23MC	1	0	2.64261412621	-510.0	327.0	-510	322	1
1.7	2015_Aug_03_1210	s	s	7	4	SIC	18	RC	2	0	23VC	1	0	0.611448049545	-429.0	-121.0	-427	-118	1
1.7	2015_Aug_03_1210	s	s	7	4	SIC	19	ABS	2	1	24VO	0	1	1.03517007828	None	None	None	None	1
1.7	2015_Aug_03_1210	s	s	7	4	SIC	20	RC	1	1	23MO	1	0	0.729141950607	-356.0	142.0	-354	134	1
1.7	2015_Aug_03_1210	s	s	7	4	SIC	21	RC	0	1	23RO	1	0	4.62531399727	-74.0	-345.0	-79	-347	1
1.7	2015_Aug_03_1210	s	s	7	4	SIC	22	RC	0	2	23RD	1	0	0.632643938065	-340.0	143.0	-334	144	1
1.7	2015_Aug_03_1210	s	s	7	4	SIC	23	ABS	1	1	24MO	0	1	3.35394096375	None	None	None	None	1
1.7	2015_Aug_03_1210	s	s	7	4	SIC	24	ABS	0	1	24RO	0	1	4.83242893219	None	None	None	None	1
1.7	2015_Aug_03_1210	s	s	7	4	SIC	25	ABS	1	0	24MC	0	1	3.01259803772	None	None	None	None	1
1.7	2015_Aug_03_1210	s	s	7	4	SIC	26	RC	2	2	23VD	1	0	0.635214090347	-204.0	-311.0	-207	-318	1
1.7	2015_Aug_03_1210	s	s	7	4	SIC	27	ABS	1	2	24MD	0	1	0.959849119186	None	None	None	None	1
1.7	2015_Aug_03_1210	s	s	7	4	SIC	28	ABS	2	0	24VC	0	1	1.12919020653	None	None	None	None	1
1.7	2015_Aug_03_1210	s	s	7	4	SIC	29	ABS	0	2	24RD	0	1	1.23532009125	None	None	None	None	1
1.7	2015_Aug_03_1210	s	s	7	4	SIC	30	ABS	2	2	24VD	0	1	0.611443042755	None	None	None	None	1
1.7	2015_Aug_03_1210	s	s	7	4	SIC	31	RC	1	2	23MD	1	0	0.682060003281	222.0	1.0	228	1	1
1.7	2015_Aug_03_1210	s	s	7	4	SIC	32	RC	2	1	23VO	1	0	0.623250961304	-205.0	-70.0	-212	-71	1
1.7	2015_Aug_03_1210	s	s	7	4	SIC	33	RC	1	1	23MO	1	0	0.86456990242	24.0	256.0	30	262	1
1.7	2015_Aug_03_1210	s	s	7	4	SIC	34	RC	1	0	23MC	1	0	1.00636696815	355.0	359.0	355	358	1
1.7	2015_Aug_03_1210	s	s	7	4	SIC	35	RC	2	0	23VC	1	0	0.677093029022	309.0	46.0	314	45	1
1.7	2015_Aug_03_1210	s	s	7	4	SIC	36	ABS	0	1	24RO	0	1	6.27994513512	None	None	None	None	1
1.7	2015_Aug_03_1210	s	s	7	4	SIC	37	ABS	2	0	24VC	0	1	1.11281895638	None	None	None	None	1
1.7	2015_Aug_03_1210	s	s	7	4	SIC	38	RC	2	1	23VO	1	0	0.608644008636	244.0	302.0	245	304	1
1.7	2015_Aug_03_1210	s	s	7	4	SIC	39	ABS	2	1	24VO	0	1	0.893894910812	None	None	None	None	1
1.7	2015_Aug_03_1210	s	s	7	4	SIC	40	ABS	0	2	24RD	0	1	1.58879184723	None	None	None	None	1
1.7	2015_Aug_03_1210	s	s	7	4	SIC	41	RC	0	1	23RO	1	0	1.39721083641	-241.0	-56.0	-245	-54	1
1.7	2015_Aug_03_1210	s	s	7	4	SIC	42	ABS	1	2	24MD	0	1	0.909440994263	None	None	None	None	1
1.7	2015_Aug_03_1210	s	s	7	4	SIC	43	RC	2	2	23VD	1	0	0.596451997757	-273.0	-282.0	-269	-281	1
1.7	2015_Aug_03_1210	s	s	7	4	SIC	44	ABS	1	0	24MC	0	1	2.57712602615	None	None	None	None	1
1.7	2015_Aug_03_1210	s	s	7	4	SIC	45	ABS	1	1	24MO	0	1	3.41284108162	None	None	None	None	1
1.7	2015_Aug_03_1210	s	s	7	4	SIC	46	RC	1	2	23MD	1	0	0.653695106506	-410.0	-4.0	-410	-4	1
1.7	2015_Aug_03_1210	s	s	7	4	SIC	47	RC	0	2	23RD	1	0	0.58296585083	-496.0	294.0	-499	295	1
1.7	2015_Aug_03_1210	s	s	7	4	SIC	48	ABS	2	2	24VD	0	1	0.599513053894	None	None	None	None	1
1.7	2015_Aug_03_1210	s	s	7	4	SIC	49	ABS	1	0	24MC	0	1	4.3966050148	None	None	None	None	1
1.7	2015_Aug_03_1210	s	s	7	4	SIC	50	RC	1	2	23MD	1	0	0.781705856323	307.0	-38.0	305	-35	1
1.7	2015_Aug_03_1210	s	s	7	4	SIC	51	RC	1	0	23MC	1	0	1.57109498978	-252.0	-363.0	-246	-359	1
1.7	2015_Aug_03_1210	s	s	7	4	SIC	52	ABS	2	1	24VO	0	1	0.924616098404	None	None	None	None	1
1.7	2015_Aug_03_1210	s	s	7	4	SIC	53	ABS	0	1	24RO	0	1	6.21171784401	None	None	None	None	1
1.7	2015_Aug_03_1210	s	s	7	4	SIC	54	ABS	1	2	24MD	0	1	1.29781699181	None	None	None	None	1
1.7	2015_Aug_03_1210	s	s	7	4	SIC	55	ABS	2	2	24VD	0	1	0.665386199951	None	None	None	None	1
1.7	2015_Aug_03_1210	s	s	7	4	SIC	56	RC	0	1	23RO	1	0	3.26570510864	465.0	-392.0	467	-399	1
1.7	2015_Aug_03_1210	s	s	7	4	SIC	57	RC	2	0	23VC	1	0	0.682111978531	488.0	373.0	491	376	1
1.7	2015_Aug_03_1210	s	s	7	4	SIC	58	RC	0	2	23RD	1	0	0.559206962585	217.0	177.0	216	178	1
1.7	2015_Aug_03_1210	s	s	7	4	SIC	59	ABS	1	1	24MO	0	1	2.65944886208	None	None	None	None	1
1.7	2015_Aug_03_1210	s	s	7	4	SIC	60	ABS	0	2	24RD	0	1	0.724529981613	None	None	None	None	1
1.7	2015_Aug_03_1210	s	s	7	4	SIC	61	ABS	2	0	24VC	0	1	1.50641489029	None	None	None	None	1
1.7	2015_Aug_03_1210	s	s	7	4	SIC	62	RC	1	1	23MO	1	0	1.54173088074	250.0	-366.0	260	-368	1
1.7	2015_Aug_03_1210	s	s	7	4	SIC	63	RC	2	2	23VD	1	0	0.57608294487	-55.0	-302.0	-51	-301	1
1.7	2015_Aug_03_1210	s	s	7	4	SIC	64	RC	2	1	23VO	1	0	0.623182058334	-203.0	-269.0	-198	-273	1
1.7	2015_Aug_03_1210	s	s	7	4	SIC	65	RC	0	2	23RD	1	0	0.841991901398	184.0	-322.0	183	-329	1
1.7	2015_Aug_03_1210	s	s	7	4	SIC	66	RC	2	2	23VD	1	0	0.579854011536	500.0	-367.0	495	-368	1
1.7	2015_Aug_03_1210	s	s	7	4	SIC	67	ABS	2	1	24VO	0	1	2.76540994644	None	None	None	None	1
1.7	2015_Aug_03_1210	s	s	7	4	SIC	68	ABS	1	1	24MO	0	1	4.27583098412	None	None	None	None	1
1.7	2015_Aug_03_1210	s	s	7	4	SIC	69	ABS	2	2	24VD	0	1	0.652157068253	None	None	None	None	1
1.7	2015_Aug_03_1210	s	s	7	4	SIC	70	RC	1	1	23MO	1	0	1.00532507896	114.0	-364.0	107	-365	1
1.7	2015_Aug_03_1210	s	s	7	4	SIC	71	ABS	0	2	24RD	0	1	2.27723383904	None	None	None	None	1
1.7	2015_Aug_03_1210	s	s	7	4	SIC	72	ABS	1	2	24MD	0	1	0.726913928986	None	None	None	None	1
1.7	2015_Aug_03_1210	s	s	7	4	SIC	73	RC	1	0	23MC	1	0	3.77760887146	-269.0	-287.0	-266	-286	1
1.7	2015_Aug_03_1210	s	s	7	4	SIC	74	RC	2	0	23VC	1	0	2.32994794846	48.0	120.0	44	122	1
1.7	2015_Aug_03_1210	s	s	7	4	SIC	75	ABS	0	1	24RO	0	1	5.8704020977	None	None	None	None	1
1.7	2015_Aug_03_1210	s	s	7	4	SIC	76	RC	1	2	23MD	1	0	1.11520791054	457.0	274.0	460	283	1
1.7	2015_Aug_03_1210	s	s	7	4	SIC	77	ABS	1	0	24MC	0	1	4.07906103134	None	None	None	None	1
1.7	2015_Aug_03_1210	s	s	7	4	SIC	78	RC	2	1	23VO	1	0	0.635007858276	-4.0	174.0	-2	179	1
1.7	2015_Aug_03_1210	s	s	7	4	SIC	79	RC	0	1	23RO	1	0	1.25400400162	-476.0	9.0	-475	9	1
1.7	2015_Aug_03_1210	s	s	7	4	SIC	80	ABS	2	0	24VC	0	1	0.806928873062	None	None	None	None	1
1.7	2015_Aug_03_1210	s	s	7	4	SIC	81	ABS	1	2	24MD	0	1	1.19496011734	None	None	None	None	1
1.7	2015_Aug_03_1210	s	s	7	4	SIC	82	ABS	0	2	24RD	0	1	1.1712269783	None	None	None	None	1
1.7	2015_Aug_03_1210	s	s	7	4	SIC	83	ABS	2	2	24VD	0	1	0.617166996002	None	None	None	None	1
1.7	2015_Aug_03_1210	s	s	7	4	SIC	84	RC	2	1	23VO	1	0	0.735189914703	322.0	-117.0	312	-117	1
1.7	2015_Aug_03_1210	s	s	7	4	SIC	85	ABS	0	1	24RO	0	1	6.84716701508	None	None	None	None	1
1.7	2015_Aug_03_1210	s	s	7	4	SIC	86	RC	2	2	23VD	1	0	0.69392991066	-528.0	-195.0	-530	-195	1
1.7	2015_Aug_03_1210	s	s	7	4	SIC	87	RC	2	0	23VC	1	0	0.529046058655	-413.0	-82.0	-410	-75	1
1.7	2015_Aug_03_1210	s	s	7	4	SIC	88	ABS	2	0	24VC	0	1	0.700726032257	None	None	None	None	1
1.7	2015_Aug_03_1210	s	s	7	4	SIC	89	RC	1	2	23MD	1	0	0.665597915649	373.0	-285.0	375	-288	1
1.7	2015_Aug_03_1210	s	s	7	4	SIC	90	RC	0	2	23RD	1	0	0.599704027176	-500.0	-193.0	-491	-189	1
1.7	2015_Aug_03_1210	s	s	7	4	SIC	91	RC	0	1	23RO	1	0	1.06802082062	-233.0	-327.0	-235	-332	1
1.7	2015_Aug_03_1210	s	s	7	4	SIC	92	RC	1	0	23MC	1	0	0.712393045425	-346.0	-174.0	-356	-172	1
1.7	2015_Aug_03_1210	s	s	7	4	SIC	93	ABS	1	0	24MC	0	1	4.23180794716	None	None	None	None	1
1.7	2015_Aug_03_1210	s	s	7	4	SIC	94	ABS	2	1	24VO	0	1	1.49423980713	None	None	None	None	1
1.7	2015_Aug_03_1210	s	s	7	4	SIC	95	RC	1	1	23MO	1	0	1.64283895493	498.0	-68.0	503	-70	1
1.7	2015_Aug_03_1210	s	s	7	4	SIC	96	ABS	1	1	24MO	0	1	3.79622793198	None	None	None	None	1
1.7	2015_Aug_03_1210	s	s	7	4	SIC	97	RC	2	1	23VO	1	0	0.677661895752	136.0	-188.0	135	-188	1
1.7	2015_Aug_03_1210	s	s	7	4	SIC	98	ABS	2	0	24VC	0	1	0.811605930328	None	None	None	None	1
1.7	2015_Aug_03_1210	s	s	7	4	SIC	99	RC	2	2	23VD	1	0	1.03256702423	-406.0	374.0	-405	374	1
1.7	2015_Aug_03_1210	s	s	7	4	SIC	100	RC	1	1	23MO	1	0	1.32948207855	-421.0	-277.0	-417	-279	1
1.7	2015_Aug_03_1210	s	s	7	4	SIC	101	RC	0	2	23RD	1	0	0.941027879715	-386.0	-304.0	-383	-300	1
1.7	2015_Aug_03_1210	s	s	7	4	SIC	102	ABS	0	2	24RD	0	1	0.937381982803	None	None	None	None	1
1.7	2015_Aug_03_1210	s	s	7	4	SIC	103	RC	1	0	23MC	1	0	0.794765949249	-444.0	11.0	-452	13	1
1.7	2015_Aug_03_1210	s	s	7	4	SIC	104	RC	1	2	23MD	1	0	0.582978010178	385.0	6.0	381	1	1
1.7	2015_Aug_03_1210	s	s	7	4	SIC	105	ABS	2	1	24VO	0	1	0.879894018173	None	None	None	None	1
1.7	2015_Aug_03_1210	s	s	7	4	SIC	106	ABS	1	1	24MO	0	1	3.94244003296	None	None	None	None	1
1.7	2015_Aug_03_1210	s	s	7	4	SIC	107	RC	2	0	23VC	1	0	0.806400775909	-467.0	31.0	-465	30	1
1.7	2015_Aug_03_1210	s	s	7	4	SIC	108	ABS	0	1	24RO	0	1	4.31532597542	None	None	None	None	1
1.7	2015_Aug_03_1210	s	s	7	4	SIC	109	ABS	1	2	24MD	0	1	0.905711889267	None	None	None	None	1
1.7	2015_Aug_03_1210	s	s	7	4	SIC	110	RC	0	1	23RO	1	0	1.01142406464	-259.0	168.0	-255	176	1
1.7	2015_Aug_03_1210	s	s	7	4	SIC	111	ABS	1	0	24MC	0	1	3.63658595085	None	None	None	None	1
1.7	2015_Aug_03_1210	s	s	7	4	SIC	112	ABS	2	2	24VD	0	1	0.688694000244	None	None	None	None	1
1.7	2015_Aug_03_1210	s	s	7	4	SIC	113	RC	1	2	23MD	1	0	0.999826908112	458.0	-340.0	454	-344	1
1.7	2015_Aug_03_1210	s	s	7	4	SIC	114	ABS	2	2	24VD	0	1	0.677219867706	None	None	None	None	1
1.7	2015_Aug_03_1210	s	s	7	4	SIC	115	RC	2	1	23VO	1	0	0.713805913925	-522.0	-388.0	-519	-397	1
1.7	2015_Aug_03_1210	s	s	7	4	SIC	116	RC	2	0	23VC	1	0	0.792111873627	-385.0	193.0	-383	196	1
1.7	2015_Aug_03_1210	s	s	7	4	SIC	117	RC	0	2	23RD	1	0	0.552531003952	-421.0	179.0	-423	183	1
1.7	2015_Aug_03_1210	s	s	7	4	SIC	118	ABS	1	1	24MO	0	1	3.01934885979	None	None	None	None	1
1.7	2015_Aug_03_1210	s	s	7	4	SIC	119	RC	0	1	23RO	1	0	1.1882121563	-400.0	21.0	-401	22	1
1.7	2015_Aug_03_1210	s	s	7	4	SIC	120	RC	1	0	23MC	1	0	1.72522592545	-361.0	-256.0	-363	-255	1
1.7	2015_Aug_03_1210	s	s	7	4	SIC	121	ABS	2	1	24VO	0	1	0.830215930939	None	None	None	None	1
1.7	2015_Aug_03_1210	s	s	7	4	SIC	122	ABS	0	1	24RO	0	1	5.10552382469	None	None	None	None	1
1.7	2015_Aug_03_1210	s	s	7	4	SIC	123	RC	2	2	23VD	1	0	0.606518030167	-408.0	-278.0	-406	-279	1
1.7	2015_Aug_03_1210	s	s	7	4	SIC	124	ABS	2	0	24VC	0	1	0.89395403862	None	None	None	None	1
1.7	2015_Aug_03_1210	s	s	7	4	SIC	125	ABS	0	2	24RD	0	1	1.12918496132	None	None	None	None	1
1.7	2015_Aug_03_1210	s	s	7	4	SIC	126	ABS	1	0	24MC	0	1	3.16223692894	None	None	None	None	1
1.7	2015_Aug_03_1210	s	s	7	4	SIC	127	RC	1	1	23MO	1	0	1.21849489212	338.0	74.0	338	78	1
1.7	2015_Aug_03_1210	s	s	7	4	SIC	128	ABS	1	2	24MD	0	1	0.949136972427	None	None	None	None	1
1.7	2015_Aug_03_1210	s	s	7	4	SIC	129	ABS	0	1	24RO	0	1	5.56440591812	None	None	None	None	1
1.7	2015_Aug_03_1210	s	s	7	4	SIC	130	ABS	2	1	24VO	0	1	1.36849713326	None	None	None	None	1
1.7	2015_Aug_03_1210	s	s	7	4	SIC	131	RC	0	2	23RD	1	0	0.682140827179	-68.0	-136.0	-64	-135	1
1.7	2015_Aug_03_1210	s	s	7	4	SIC	132	RC	2	2	23VD	1	0	0.729112863541	280.0	-201.0	274	-201	1
1.7	2015_Aug_03_1210	s	s	7	4	SIC	133	RC	2	0	23VC	1	0	0.653568983078	-262.0	130.0	-263	127	1
1.7	2015_Aug_03_1210	s	s	7	4	SIC	134	RC	1	0	23MC	1	0	1.96011686325	-320.0	302.0	-315	299	1
1.7	2015_Aug_03_1210	s	s	7	4	SIC	135	RC	0	1	23RO	1	0	3.25597596169	35.0	-277.0	37	-282	1
1.7	2015_Aug_03_1210	s	s	7	4	SIC	136	ABS	1	2	24MD	0	1	0.936211109161	None	None	None	None	1
1.7	2015_Aug_03_1210	s	s	7	4	SIC	137	ABS	0	2	24RD	0	1	1.39471197128	None	None	None	None	1
1.7	2015_Aug_03_1210	s	s	7	4	SIC	138	ABS	2	0	24VC	0	1	1.0587978363	None	None	None	None	1
1.7	2015_Aug_03_1210	s	s	7	4	SIC	139	ABS	1	1	24MO	0	1	1.36851811409	None	None	None	None	1
1.7	2015_Aug_03_1210	s	s	7	4	SIC	140	ABS	1	0	24MC	0	1	1.7650001049	None	None	None	None	1
1.7	2015_Aug_03_1210	s	s	7	4	SIC	141	ABS	2	2	24VD	0	1	0.587938070297	None	None	None	None	1
1.7	2015_Aug_03_1210	s	s	7	4	SIC	142	RC	1	2	23MD	1	0	0.71740603447	-245.0	-215.0	-239	-210	1
1.7	2015_Aug_03_1210	s	s	7	4	SIC	143	RC	2	1	23VO	1	0	1.0657761097	-411.0	-370.0	-416	-371	1
1.7	2015_Aug_03_1210	s	s	7	4	SIC	144	RC	1	1	23MO	1	0	1.28235292435	457.0	-43.0	458	-46	1
1.7	2015_Aug_03_1210	s	s	7	4	SIC	145	ABS	1	0	24MC	0	1	4.04845404625	None	None	None	None	1
1.7	2015_Aug_03_1210	s	s	7	4	SIC	146	RC	2	1	23VO	1	0	0.740937948227	-393.0	-269.0	-391	-266	1
1.7	2015_Aug_03_1210	s	s	7	4	SIC	147	ABS	2	0	24VC	0	1	0.677049875259	None	None	None	None	1
1.7	2015_Aug_03_1210	s	s	7	4	SIC	148	ABS	2	2	24VD	0	1	0.646732091904	None	None	None	None	1
1.7	2015_Aug_03_1210	s	s	7	4	SIC	149	ABS	1	1	24MO	0	1	2.61240100861	None	None	None	None	1
1.7	2015_Aug_03_1210	s	s	7	4	SIC	150	ABS	1	2	24MD	0	1	0.729106903076	None	None	None	None	1
1.7	2015_Aug_03_1210	s	s	7	4	SIC	151	RC	1	1	23MO	1	0	1.03519892693	55.0	15.0	59	8	1
1.7	2015_Aug_03_1210	s	s	7	4	SIC	152	RC	1	0	23MC	1	0	0.712421894073	-241.0	-155.0	-248	-162	1
1.7	2015_Aug_03_1210	s	s	7	4	SIC	153	RC	1	2	23MD	1	0	0.712560892105	163.0	-397.0	168	-398	1
1.7	2015_Aug_03_1210	s	s	7	4	SIC	154	ABS	0	1	24RO	0	1	5.33821415901	None	None	None	None	1
1.7	2015_Aug_03_1210	s	s	7	4	SIC	155	RC	0	2	23RD	1	0	0.651898145676	-70.0	-84.0	-74	-89	1
1.7	2015_Aug_03_1210	s	s	7	4	SIC	156	RC	0	1	23RO	1	0	3.46663594246	-532.0	-269.0	-531	-270	1
1.7	2015_Aug_03_1210	s	s	7	4	SIC	157	RC	2	0	23VC	1	0	0.761277914047	325.0	-251.0	327	-252	1
1.7	2015_Aug_03_1210	s	s	7	4	SIC	158	ABS	0	2	24RD	0	1	1.3825879097	None	None	None	None	1
1.7	2015_Aug_03_1210	s	s	7	4	SIC	159	ABS	2	1	24VO	0	1	1.06558895111	None	None	None	None	1
1.7	2015_Aug_03_1210	s	s	7	4	SIC	160	RC	2	2	23VD	1	0	0.806512117386	110.0	209.0	112	209	1
1.7	2015_Aug_03_1210	s	s	7	4	SIC	161	RC	1	0	23MC	1	0	3.40780687332	-377.0	240.0	-374	240	1
1.7	2015_Aug_03_1210	s	s	7	4	SIC	162	ABS	2	2	24VD	0	1	0.840451955795	None	None	None	None	1
1.7	2015_Aug_03_1210	s	s	7	4	SIC	163	RC	1	1	23MO	1	0	0.964603900909	-455.0	-28.0	-457	-24	1
1.7	2015_Aug_03_1210	s	s	7	4	SIC	164	RC	2	2	23VD	1	0	0.540817022324	-18.0	-192.0	-19	-193	1
1.7	2015_Aug_03_1210	s	s	7	4	SIC	165	ABS	2	0	24VC	0	1	0.97178196907	None	None	None	None	1
1.7	2015_Aug_03_1210	s	s	7	4	SIC	166	ABS	2	1	24VO	0	1	0.870345830917	None	None	None	None	1
1.7	2015_Aug_03_1210	s	s	7	4	SIC	167	ABS	0	1	24RO	0	1	5.17842292786	None	None	None	None	1
1.7	2015_Aug_03_1210	s	s	7	4	SIC	168	ABS	0	2	24RD	0	1	1.40742206573	None	None	None	None	1
1.7	2015_Aug_03_1210	s	s	7	4	SIC	169	ABS	1	1	24MO	0	1	4.48104715347	None	None	None	None	1
1.7	2015_Aug_03_1210	s	s	7	4	SIC	170	RC	1	2	23MD	1	0	0.808709144592	-348.0	336.0	-356	334	1
1.7	2015_Aug_03_1210	s	s	7	4	SIC	171	ABS	1	0	24MC	0	1	3.62227392197	None	None	None	None	1
1.7	2015_Aug_03_1210	s	s	7	4	SIC	172	RC	0	1	23RO	0	1	4.57326412201	420.0	-369.0	None	None	0
1.7	2015_Aug_03_1210	s	s	7	4	SIC	173	RC	0	2	23RD	1	0	0.644216775894	80.0	47.0	87	43	1
1.7	2015_Aug_03_1210	s	s	7	4	SIC	174	RC	2	0	23VC	1	0	3.60822081566	461.0	139.0	464	141	1
1.7	2015_Aug_03_1210	s	s	7	4	SIC	175	RC	2	1	23VO	1	0	0.783180952072	521.0	-371.0	523	-363	1
1.7	2015_Aug_03_1210	s	s	7	4	SIC	176	ABS	1	2	24MD	0	1	0.799772977829	None	None	None	None	1
1.7	2015_Aug_03_1210	s	s	7	4	SIC	177	ABS	1	2	24MD	0	1	0.988085985184	None	None	None	None	1
1.7	2015_Aug_03_1210	s	s	7	4	SIC	178	RC	1	0	23MC	1	0	0.856257200241	124.0	223.0	122	227	1
1.7	2015_Aug_03_1210	s	s	7	4	SIC	179	RC	1	1	23MO	1	0	0.752655982971	125.0	141.0	128	140	1
1.7	2015_Aug_03_1210	s	s	7	4	SIC	180	ABS	2	1	24VO	0	1	1.09985113144	None	None	None	None	1
1.7	2015_Aug_03_1210	s	s	7	4	SIC	181	ABS	0	1	24RO	0	1	3.91903614998	None	None	None	None	1
1.7	2015_Aug_03_1210	s	s	7	4	SIC	182	RC	2	1	23VO	1	0	0.770635843277	-128.0	-161.0	-132	-160	1
1.7	2015_Aug_03_1210	s	s	7	4	SIC	183	ABS	2	2	24VD	0	1	0.729171037674	None	None	None	None	1
1.7	2015_Aug_03_1210	s	s	7	4	SIC	184	ABS	1	0	24MC	0	1	5.37863492966	None	None	None	None	1
1.7	2015_Aug_03_1210	s	s	7	4	SIC	185	ABS	1	1	24MO	0	1	2.20722699165	None	None	None	None	1
1.7	2015_Aug_03_1210	s	s	7	4	SIC	186	RC	2	0	23VC	1	0	0.740869998932	-95.0	385.0	-90	390	1
1.7	2015_Aug_03_1210	s	s	7	4	SIC	187	ABS	2	0	24VC	0	1	1.04274988174	None	None	None	None	1
1.7	2015_Aug_03_1210	s	s	7	4	SIC	188	RC	2	2	23VD	1	0	0.924344062805	193.0	-321.0	197	-322	1
1.7	2015_Aug_03_1210	s	s	7	4	SIC	189	RC	1	2	23MD	1	0	0.676967144012	280.0	168.0	277	165	1
1.7	2015_Aug_03_1210	s	s	7	4	SIC	190	ABS	0	2	24RD	0	1	1.59762096405	None	None	None	None	1
1.7	2015_Aug_03_1210	s	s	7	4	SIC	191	RC	0	2	23RD	1	0	0.923514842987	-274.0	190.0	-271	191	1
1.7	2015_Aug_03_1210	s	s	7	4	SIC	192	RC	0	1	23RO	1	0	3.59646701813	188.0	-257.0	193	-256	1
1.7	2015_Aug_03_1210	s	s	7	4	SIC	193	RC	0	2	23RD	1	0	0.623208045959	-184.0	1.0	-186	-2	1
1.7	2015_Aug_03_1210	s	s	7	4	SIC	194	RC	1	2	23MD	1	0	0.752645969391	-304.0	-315.0	-295	-311	1
1.7	2015_Aug_03_1210	s	s	7	4	SIC	195	RC	2	0	23VC	1	0	0.524019956589	334.0	195.0	341	199	1
1.7	2015_Aug_03_1210	s	s	7	4	SIC	196	ABS	1	1	24MO	0	1	2.0070939064	None	None	None	None	1
1.7	2015_Aug_03_1210	s	s	7	4	SIC	197	ABS	2	2	24VD	0	1	0.635020017624	None	None	None	None	1
1.7	2015_Aug_03_1210	s	s	7	4	SIC	198	RC	1	0	23MC	1	0	2.03569293022	421.0	346.0	425	344	1
1.7	2015_Aug_03_1210	s	s	7	4	SIC	199	ABS	0	1	24RO	0	1	3.9508190155	None	None	None	None	1
1.7	2015_Aug_03_1210	s	s	7	4	SIC	200	ABS	0	2	24RD	0	1	1.10583305359	None	None	None	None	1
1.7	2015_Aug_03_1210	s	s	7	4	SIC	201	RC	1	1	23MO	1	0	1.20362997055	101.0	-201.0	100	-203	1
1.7	2015_Aug_03_1210	s	s	7	4	SIC	202	RC	2	1	23VO	1	0	0.619871854782	326.0	18.0	315	23	1
1.7	2015_Aug_03_1210	s	s	7	4	SIC	203	RC	0	1	23RO	1	0	1.75311493874	-391.0	37.0	-392	35	1
1.7	2015_Aug_03_1210	s	s	7	4	SIC	204	ABS	1	2	24MD	0	1	2.26781916618	None	None	None	None	1
1.7	2015_Aug_03_1210	s	s	7	4	SIC	205	ABS	2	0	24VC	0	1	0.933027029037	None	None	None	None	1
1.7	2015_Aug_03_1210	s	s	7	4	SIC	206	ABS	2	1	24VO	0	1	0.995820999146	None	None	None	None	1
1.7	2015_Aug_03_1210	s	s	7	4	SIC	207	RC	2	2	23VD	1	0	0.752763032913	174.0	-345.0	176	-342	1
1.7	2015_Aug_03_1210	s	s	7	4	SIC	208	ABS	1	0	24MC	0	1	2.36037492752	None	None	None	None	1
1.7	2015_Aug_03_1210	s	s	7	4	SIC	209	ABS	0	2	24RD	0	1	1.32936501503	None	None	None	None	1
1.7	2015_Aug_03_1210	s	s	7	4	SIC	210	RC	1	0	23MC	1	0	0.787978887558	-173.0	-230.0	-175	-234	1
1.7	2015_Aug_03_1210	s	s	7	4	SIC	211	ABS	1	1	24MO	0	1	3.78461813927	None	None	None	None	1
1.7	2015_Aug_03_1210	s	s	7	4	SIC	212	ABS	2	1	24VO	0	1	1.19507098198	None	None	None	None	1
1.7	2015_Aug_03_1210	s	s	7	4	SIC	213	ABS	1	2	24MD	0	1	1.15285992622	None	None	None	None	1
1.7	2015_Aug_03_1210	s	s	7	4	SIC	214	ABS	0	1	24RO	0	1	7.68072199821	None	None	None	None	1
1.7	2015_Aug_03_1210	s	s	7	4	SIC	215	RC	1	2	23MD	1	0	0.747481107712	150.0	-208.0	154	-212	1
1.7	2015_Aug_03_1210	s	s	7	4	SIC	216	RC	1	1	23MO	1	0	0.914599895477	-359.0	5.0	-356	7	1
1.7	2015_Aug_03_1210	s	s	7	4	SIC	217	RC	2	0	23VC	1	0	0.914223909378	-419.0	289.0	-419	288	1
1.7	2015_Aug_03_1210	s	s	7	4	SIC	218	ABS	2	2	24VD	0	1	2.10632586479	None	None	None	None	1
1.7	2015_Aug_03_1210	s	s	7	4	SIC	219	RC	2	2	23VD	1	0	1.67076516151	-100.0	-363.0	-92	-359	1
1.7	2015_Aug_03_1210	s	s	7	4	SIC	220	RC	2	1	23VO	0	1	6.99111700058	-61.0	-333.0	None	None	0
1.7	2015_Aug_03_1210	s	s	7	4	SIC	221	RC	0	1	23RO	1	0	1.45891904831	-394.0	-327.0	-400	-331	1
1.7	2015_Aug_03_1210	s	s	7	4	SIC	222	ABS	1	0	24MC	0	1	3.60828208923	None	None	None	None	1
1.7	2015_Aug_03_1210	s	s	7	4	SIC	223	RC	0	2	23RD	1	0	0.787986040115	-119.0	165.0	-117	164	1
1.7	2015_Aug_03_1210	s	s	7	4	SIC	224	ABS	2	0	24VC	0	1	0.959531068802	None	None	None	None	1
1.7	2015_Aug_03_1210	s	s	7	4	SIC	225	RC	2	2	23VD	1	0	1.09125995636	137.0	214.0	138	217	1
1.7	2015_Aug_03_1210	s	s	7	4	SIC	226	ABS	2	2	24VD	0	1	2.37167906761	None	None	None	None	1
1.7	2015_Aug_03_1210	s	s	7	4	SIC	227	ABS	2	0	24VC	0	1	3.66042900085	None	None	None	None	1
1.7	2015_Aug_03_1210	s	s	7	4	SIC	228	ABS	1	1	24MO	0	1	4.90765213966	None	None	None	None	1
1.7	2015_Aug_03_1210	s	s	7	4	SIC	229	RC	1	0	23MC	1	0	1.56490302086	321.0	319.0	325	320	1
1.7	2015_Aug_03_1210	s	s	7	4	SIC	230	RC	1	1	23MO	1	0	2.01869392395	442.0	35.0	446	34	1
1.7	2015_Aug_03_1210	s	s	7	4	SIC	231	RC	0	2	23RD	1	0	0.54777598381	299.0	232.0	305	234	1
1.7	2015_Aug_03_1210	s	s	7	4	SIC	232	ABS	2	1	24VO	0	1	0.853427171707	None	None	None	None	1
1.7	2015_Aug_03_1210	s	s	7	4	SIC	233	RC	1	2	23MD	1	0	0.785119056702	383.0	308.0	388	317	1
1.7	2015_Aug_03_1210	s	s	7	4	SIC	234	RC	2	0	23VC	1	0	0.693830013275	-224.0	234.0	-227	235	1
1.7	2015_Aug_03_1210	s	s	7	4	SIC	235	RC	0	1	23RO	1	0	3.04787993431	282.0	-346.0	279	-340	1
1.7	2015_Aug_03_1210	s	s	7	4	SIC	236	ABS	0	2	24RD	0	1	1.19468283653	None	None	None	None	1
1.7	2015_Aug_03_1210	s	s	7	4	SIC	237	RC	2	1	23VO	1	0	0.705460071564	238.0	284.0	236	281	1
1.7	2015_Aug_03_1210	s	s	7	4	SIC	238	ABS	0	1	24RO	0	1	4.4788839817	None	None	None	None	1
1.7	2015_Aug_03_1210	s	s	7	4	SIC	239	ABS	1	2	24MD	0	1	1.26808094978	None	None	None	None	1
1.7	2015_Aug_03_1210	s	s	7	4	SIC	240	ABS	1	0	24MC	0	1	2.00032782555	None	None	None	None	1
1.7	2015_Aug_03_1210	s	s	7	4	SIC	241	RC	1	2	23MD	1	0	0.529026031494	33.0	85.0	32	79	1
1.7	2015_Aug_03_1210	s	s	7	4	SIC	242	RC	2	0	23VC	1	0	0.599704027176	42.0	265.0	38	267	1
1.7	2015_Aug_03_1210	s	s	7	4	SIC	243	ABS	2	0	24VC	0	1	0.782973051071	None	None	None	None	1
1.7	2015_Aug_03_1210	s	s	7	4	SIC	244	ABS	1	1	24MO	0	1	2.01881098747	None	None	None	None	1
1.7	2015_Aug_03_1210	s	s	7	4	SIC	245	ABS	1	0	24MC	0	1	3.20122098923	None	None	None	None	1
1.7	2015_Aug_03_1210	s	s	7	4	SIC	246	ABS	1	2	24MD	0	1	0.670302867889	None	None	None	None	1
1.7	2015_Aug_03_1210	s	s	7	4	SIC	247	RC	1	0	23MC	1	0	0.917423963547	-389.0	-170.0	-383	-170	1
1.7	2015_Aug_03_1210	s	s	7	4	SIC	248	ABS	2	2	24VD	0	1	0.642429113388	None	None	None	None	1
1.7	2015_Aug_03_1210	s	s	7	4	SIC	249	ABS	2	1	24VO	0	1	0.717411994934	None	None	None	None	1
1.7	2015_Aug_03_1210	s	s	7	4	SIC	250	RC	2	1	23VO	1	0	0.811550140381	-4.0	45.0	0	43	1
1.7	2015_Aug_03_1210	s	s	7	4	SIC	251	RC	1	1	23MO	1	0	2.4322719574	-410.0	247.0	-408	248	1
1.7	2015_Aug_03_1210	s	s	7	4	SIC	252	ABS	0	1	24RO	0	1	4.099214077	None	None	None	None	1
1.7	2015_Aug_03_1210	s	s	7	4	SIC	253	ABS	0	2	24RD	0	1	1.03200602531	None	None	None	None	1
1.7	2015_Aug_03_1210	s	s	7	4	SIC	254	RC	2	2	23VD	1	0	0.665561914444	-213.0	164.0	-207	161	1
1.7	2015_Aug_03_1210	s	s	7	4	SIC	255	RC	0	2	23RD	1	0	0.724128007889	-220.0	263.0	-220	259	1
1.7	2015_Aug_03_1210	s	s	7	4	SIC	256	RC	0	1	23RO	1	0	3.63639688492	-76.0	317.0	-69	315	1
1.7	2015_Aug_03_1210	s	s	7	4	SIC	257	RC	1	0	23MC	1	0	1.7247979641	260.0	-399.0	255	-395	1
1.7	2015_Aug_03_1210	s	s	7	4	SIC	258	ABS	2	1	24VO	0	1	0.938563108444	None	None	None	None	1
1.7	2015_Aug_03_1210	s	s	7	4	SIC	259	RC	2	0	23VC	1	0	1.11522388458	408.0	-111.0	410	-112	1
1.7	2015_Aug_03_1210	s	s	7	4	SIC	260	ABS	0	2	24RD	0	1	0.740841150284	None	None	None	None	1
1.7	2015_Aug_03_1210	s	s	7	4	SIC	261	RC	1	2	23MD	1	0	0.759621858597	-509.0	-287.0	-505	-279	1
1.7	2015_Aug_03_1210	s	s	7	4	SIC	262	RC	2	1	23VO	1	0	0.678866863251	160.0	401.0	163	402	1
1.7	2015_Aug_03_1210	s	s	7	4	SIC	263	RC	0	1	23RO	0	1	4.56634497643	-287.0	-13.0	None	None	0
1.7	2015_Aug_03_1210	s	s	7	4	SIC	264	ABS	2	2	24VD	0	1	0.603352069855	None	None	None	None	1
1.7	2015_Aug_03_1210	s	s	7	4	SIC	265	ABS	0	1	24RO	0	1	4.23672699928	None	None	None	None	1
1.7	2015_Aug_03_1210	s	s	7	4	SIC	266	RC	0	2	23RD	1	0	0.62984585762	-294.0	158.0	-292	161	1
1.7	2015_Aug_03_1210	s	s	7	4	SIC	267	RC	1	1	23MO	1	0	0.583106040955	-154.0	-233.0	-152	-229	1
1.7	2015_Aug_03_1210	s	s	7	4	SIC	268	ABS	2	0	24VC	0	1	0.806751012802	None	None	None	None	1
1.7	2015_Aug_03_1210	s	s	7	4	SIC	269	ABS	1	1	24MO	0	1	3.84826087952	None	None	None	None	1
1.7	2015_Aug_03_1210	s	s	7	4	SIC	270	ABS	1	0	24MC	0	1	2.96277689934	None	None	None	None	1
1.7	2015_Aug_03_1210	s	s	7	4	SIC	271	RC	2	2	23VD	1	0	0.547124862671	141.0	-292.0	142	-290	1
1.7	2015_Aug_03_1210	s	s	7	4	SIC	272	ABS	1	2	24MD	0	1	1.0351369381	None	None	None	None	1
1.7	2015_Aug_03_1210	s	s	7	4	SIC	273	ABS	1	0	24MC	0	1	2.46587991714	None	None	None	None	1
1.7	2015_Aug_03_1210	s	s	7	4	SIC	274	RC	2	0	23VC	1	0	0.572755098343	-90.0	28.0	-85	34	1
1.7	2015_Aug_03_1210	s	s	7	4	SIC	275	ABS	0	2	24RD	0	1	0.846815824509	None	None	None	None	1
1.7	2015_Aug_03_1210	s	s	7	4	SIC	276	RC	1	0	23MC	1	0	0.959496974945	174.0	129.0	179	132	1
1.7	2015_Aug_03_1210	s	s	7	4	SIC	277	ABS	1	1	24MO	0	1	2.07096099854	None	None	None	None	1
1.7	2015_Aug_03_1210	s	s	7	4	SIC	278	ABS	1	2	24MD	0	1	1.00726509094	None	None	None	None	1
1.7	2015_Aug_03_1210	s	s	7	4	SIC	279	RC	1	2	23MD	1	0	0.705348968506	-113.0	276.0	-110	275	1
1.7	2015_Aug_03_1210	s	s	7	4	SIC	280	ABS	2	0	24VC	0	1	0.714154005051	None	None	None	None	1
1.7	2015_Aug_03_1210	s	s	7	4	SIC	281	RC	0	2	23RD	1	0	0.705613136292	-517.0	-249.0	-516	-250	1
1.7	2015_Aug_03_1210	s	s	7	4	SIC	282	RC	1	1	23MO	1	0	2.28286385536	-208.0	403.0	-207	398	1
1.7	2015_Aug_03_1210	s	s	7	4	SIC	283	RC	2	2	23VD	1	0	0.929108858109	493.0	258.0	493	264	1
1.7	2015_Aug_03_1210	s	s	7	4	SIC	284	RC	0	1	23RO	1	0	1.14109301567	141.0	254.0	140	252	1
1.7	2015_Aug_03_1210	s	s	7	4	SIC	285	ABS	2	1	24VO	0	1	0.747262001038	None	None	None	None	1
1.7	2015_Aug_03_1210	s	s	7	4	SIC	286	ABS	0	1	24RO	0	1	5.22546315193	None	None	None	None	1
1.7	2015_Aug_03_1210	s	s	7	4	SIC	287	RC	2	1	23VO	1	0	0.644383907318	32.0	-408.0	32	-410	1
1.7	2015_Aug_03_1210	s	s	7	4	SIC	288	ABS	2	2	24VD	0	1	0.635032892227	None	None	None	None	1
1.7	2015_Aug_03_1210	s	s	7	4	SIC	289	RC	2	0	23VC	1	0	0.678281068802	18.0	181.0	16	181	1
1.7	2015_Aug_03_1210	s	s	7	4	SIC	290	ABS	2	1	24VO	0	1	0.678258895874	None	None	None	None	1
1.7	2015_Aug_03_1210	s	s	7	4	SIC	291	ABS	2	0	24VC	0	1	0.88220000267	None	None	None	None	1
1.7	2015_Aug_03_1210	s	s	7	4	SIC	292	ABS	0	2	24RD	0	1	1.27062392235	None	None	None	None	1
1.7	2015_Aug_03_1210	s	s	7	4	SIC	293	ABS	2	2	24VD	0	1	0.717386960983	None	None	None	None	1
1.7	2015_Aug_03_1210	s	s	7	4	SIC	294	RC	2	2	23VD	1	0	0.658515930176	-402.0	-61.0	-408	-62	1
1.7	2015_Aug_03_1210	s	s	7	4	SIC	295	RC	1	2	23MD	1	0	0.593814849854	-124.0	-365.0	-126	-375	1
1.7	2015_Aug_03_1210	s	s	7	4	SIC	296	ABS	1	2	24MD	0	1	0.605669975281	None	None	None	None	1
1.7	2015_Aug_03_1210	s	s	7	4	SIC	297	RC	0	1	23RO	1	0	4.40152907372	-178.0	-308.0	-175	-308	1
1.7	2015_Aug_03_1210	s	s	7	4	SIC	298	RC	0	2	23RD	1	0	14.2253479958	-369.0	14.0	-364	13	1
1.7	2015_Aug_03_1210	s	s	7	4	SIC	299	RC	1	0	23MC	1	0	2.59611797333	512.0	-163.0	510	-164	1
1.7	2015_Aug_03_1210	s	s	7	4	SIC	300	ABS	1	0	24MC	0	1	1.82378983498	None	None	None	None	1
1.7	2015_Aug_03_1210	s	s	7	4	SIC	301	RC	2	1	23VO	1	0	0.594815015793	-175.0	-4.0	-173	0	1
1.7	2015_Aug_03_1210	s	s	7	4	SIC	302	ABS	0	1	24RO	0	1	2.90669417381	None	None	None	None	1
1.7	2015_Aug_03_1210	s	s	7	4	SIC	303	ABS	1	1	24MO	0	1	1.65394115448	None	None	None	None	1
1.7	2015_Aug_03_1210	s	s	7	4	SIC	304	RC	1	1	23MO	1	0	0.882263898849	-121.0	-18.0	-112	-13	1
1.7	2015_Aug_03_1210	s	s	7	4	SIC	305	ABS	0	2	24RD	0	1	0.744684934616	None	None	None	None	1
1.7	2015_Aug_03_1210	s	s	7	4	SIC	306	RC	1	2	23MD	1	0	0.618174791336	-328.0	212.0	-326	211	1
1.7	2015_Aug_03_1210	s	s	7	4	SIC	307	ABS	2	0	24VC	0	1	0.646746873856	None	None	None	None	1
1.7	2015_Aug_03_1210	s	s	7	4	SIC	308	RC	0	1	23RO	1	0	1.21736812592	-194.0	-162.0	-187	-164	1
1.7	2015_Aug_03_1210	s	s	7	4	SIC	309	RC	1	0	23MC	1	0	0.988023996353	-39.0	-107.0	-45	-108	1
1.7	2015_Aug_03_1210	s	s	7	4	SIC	310	RC	0	2	23RD	1	0	0.571204900742	39.0	51.0	38	52	1
1.7	2015_Aug_03_1210	s	s	7	4	SIC	311	ABS	2	2	24VD	0	1	0.665582895279	None	None	None	None	1
1.7	2015_Aug_03_1210	s	s	7	4	SIC	312	RC	2	0	23VC	1	0	0.626960992813	23.0	178.0	27	181	1
1.7	2015_Aug_03_1210	s	s	7	4	SIC	313	RC	1	1	23MO	1	0	0.729158878326	29.0	149.0	21	152	1
1.7	2015_Aug_03_1210	s	s	7	4	SIC	314	ABS	0	1	24RO	0	1	4.20129704475	None	None	None	None	1
1.7	2015_Aug_03_1210	s	s	7	4	SIC	315	ABS	1	2	24MD	0	1	0.835154056549	None	None	None	None	1
1.7	2015_Aug_03_1210	s	s	7	4	SIC	316	RC	2	2	23VD	1	0	0.611819982529	17.0	133.0	15	131	1
1.7	2015_Aug_03_1210	s	s	7	4	SIC	317	ABS	1	1	24MO	0	1	2.76548290253	None	None	None	None	1
1.7	2015_Aug_03_1210	s	s	7	4	SIC	318	ABS	1	0	24MC	0	1	2.38384914398	None	None	None	None	1
1.7	2015_Aug_03_1210	s	s	7	4	SIC	319	ABS	2	1	24VO	0	1	0.867725849152	None	None	None	None	1
1.7	2015_Aug_03_1210	s	s	7	4	SIC	320	RC	2	1	23VO	1	0	0.736453056335	-486.0	45.0	-485	45	1
1.7	2015_Aug_03_1210	s	s	7	4	SIC	321	ABS	2	2	24VD	0	1	0.641525030136	None	None	None	None	1
1.7	2015_Aug_03_1210	s	s	7	4	SIC	322	RC	2	2	23VD	1	0	0.56086397171	74.0	-224.0	80	-230	1
1.7	2015_Aug_03_1210	s	s	7	4	SIC	323	ABS	1	1	24MO	0	1	1.88264298439	None	None	None	None	1
1.7	2015_Aug_03_1210	s	s	7	4	SIC	324	RC	1	2	23MD	1	0	0.735879898071	249.0	198.0	260	200	1
1.7	2015_Aug_03_1210	s	s	7	4	SIC	325	RC	0	1	23RO	1	0	2.42075705528	191.0	-405.0	201	-400	1
1.7	2015_Aug_03_1210	s	s	7	4	SIC	326	ABS	1	0	24MC	0	1	3.32628083229	None	None	None	None	1
1.7	2015_Aug_03_1210	s	s	7	4	SIC	327	RC	2	1	23VO	1	0	0.630336046219	-87.0	-283.0	-91	-286	1
1.7	2015_Aug_03_1210	s	s	7	4	SIC	328	RC	2	0	23VC	1	0	0.634970903397	118.0	-383.0	114	-386	1
1.7	2015_Aug_03_1210	s	s	7	4	SIC	329	RC	0	2	23RD	1	0	0.619668960571	315.0	-111.0	311	-113	1
1.7	2015_Aug_03_1210	s	s	7	4	SIC	330	ABS	0	1	24RO	0	1	4.43250799179	None	None	None	None	1
1.7	2015_Aug_03_1210	s	s	7	4	SIC	331	ABS	2	0	24VC	0	1	0.764390945435	None	None	None	None	1
1.7	2015_Aug_03_1210	s	s	7	4	SIC	332	ABS	1	2	24MD	0	1	0.740905046463	None	None	None	None	1
1.7	2015_Aug_03_1210	s	s	7	4	SIC	333	RC	1	1	23MO	1	0	0.830352067947	-95.0	-232.0	-83	-228	1
1.7	2015_Aug_03_1210	s	s	7	4	SIC	334	ABS	0	2	24RD	0	1	0.705534934998	None	None	None	None	1
1.7	2015_Aug_03_1210	s	s	7	4	SIC	335	RC	1	0	23MC	1	0	0.759288072586	-340.0	154.0	-337	149	1
1.7	2015_Aug_03_1210	s	s	7	4	SIC	336	ABS	2	1	24VO	0	1	0.505523920059	None	None	None	None	1
1.7	2015_Aug_03_1210	s	s	7	4	SIC	337	RC	1	1	23MO	1	0	0.976324796677	-289.0	-401.0	-284	-393	1
1.7	2015_Aug_03_1210	s	s	7	4	SIC	338	ABS	0	2	24RD	0	1	0.750062942505	None	None	None	None	1
1.7	2015_Aug_03_1210	s	s	7	4	SIC	339	ABS	2	1	24VO	0	1	0.85368514061	None	None	None	None	1
1.7	2015_Aug_03_1210	s	s	7	4	SIC	340	ABS	1	0	24MC	0	1	1.78613710403	None	None	None	None	1
1.7	2015_Aug_03_1210	s	s	7	4	SIC	341	RC	1	0	23MC	1	0	0.658282995224	105.0	102.0	106	103	1
1.7	2015_Aug_03_1210	s	s	7	4	SIC	342	RC	2	2	23VD	1	0	0.820675134659	307.0	364.0	314	370	1
1.7	2015_Aug_03_1210	s	s	7	4	SIC	343	RC	0	2	23RD	1	0	1.06547212601	429.0	-108.0	435	-104	1
1.7	2015_Aug_03_1210	s	s	7	4	SIC	344	ABS	1	2	24MD	0	1	0.776262044907	None	None	None	None	1
1.7	2015_Aug_03_1210	s	s	7	4	SIC	345	RC	0	1	23RO	1	0	1.48229908943	-443.0	-78.0	-442	-72	1
1.7	2015_Aug_03_1210	s	s	7	4	SIC	346	ABS	0	1	24RO	0	1	3.06645894051	None	None	None	None	1
1.7	2015_Aug_03_1210	s	s	7	4	SIC	347	ABS	2	2	24VD	0	1	0.782688140869	None	None	None	None	1
1.7	2015_Aug_03_1210	s	s	7	4	SIC	348	ABS	2	0	24VC	0	1	0.740911006927	None	None	None	None	1
1.7	2015_Aug_03_1210	s	s	7	4	SIC	349	RC	2	1	23VO	1	0	0.69379901886	-464.0	-132.0	-460	-127	1
1.7	2015_Aug_03_1210	s	s	7	4	SIC	350	ABS	1	1	24MO	0	1	3.19842910767	None	None	None	None	1
1.7	2015_Aug_03_1210	s	s	7	4	SIC	351	RC	1	2	23MD	1	0	0.646701097488	-127.0	45.0	-126	48	1
1.7	2015_Aug_03_1210	s	s	7	4	SIC	352	RC	2	0	23VC	1	0	0.78789806366	-180.0	-398.0	-172	-392	1
1.7	2015_Aug_03_1210	s	s	7	4	SIC	353	RC	1	1	23MO	1	0	1.51276087761	227.0	303.0	234	309	1
1.7	2015_Aug_03_1210	s	s	7	4	SIC	354	ABS	0	1	24RO	0	1	3.57511496544	None	None	None	None	1
1.7	2015_Aug_03_1210	s	s	7	4	SIC	355	ABS	1	0	24MC	0	1	1.80715322495	None	None	None	None	1
1.7	2015_Aug_03_1210	s	s	7	4	SIC	356	ABS	2	0	24VC	0	1	0.57596206665	None	None	None	None	1
1.7	2015_Aug_03_1210	s	s	7	4	SIC	357	ABS	2	1	24VO	0	1	0.693855047226	None	None	None	None	1
1.7	2015_Aug_03_1210	s	s	7	4	SIC	358	RC	1	0	23MC	1	0	1.20850896835	-385.0	185.0	-388	186	1
1.7	2015_Aug_03_1210	s	s	7	4	SIC	359	ABS	0	2	24RD	0	1	1.24706196785	None	None	None	None	1
1.7	2015_Aug_03_1210	s	s	7	4	SIC	360	ABS	1	2	24MD	0	1	0.618369102478	None	None	None	None	1
1.7	2015_Aug_03_1210	s	s	7	4	SIC	361	RC	2	0	23VC	1	0	0.941059112549	129.0	256.0	129	251	1
1.7	2015_Aug_03_1210	s	s	7	4	SIC	362	RC	0	1	23RO	0	1	4.20789885521	335.0	-185.0	None	None	0
1.7	2015_Aug_03_1210	s	s	7	4	SIC	363	RC	0	2	23RD	1	0	0.806758880615	-538.0	-148.0	-544	-145	1
1.7	2015_Aug_03_1210	s	s	7	4	SIC	364	RC	2	2	23VD	1	0	0.674066066742	388.0	292.0	397	292	1
1.7	2015_Aug_03_1210	s	s	7	4	SIC	365	ABS	1	1	24MO	0	1	1.47061395645	None	None	None	None	1
1.7	2015_Aug_03_1210	s	s	7	4	SIC	366	ABS	2	2	24VD	0	1	2.59744596481	None	None	None	None	1
1.7	2015_Aug_03_1210	s	s	7	4	SIC	367	RC	1	2	23MD	1	0	0.768655061722	495.0	296.0	499	293	1
1.7	2015_Aug_03_1210	s	s	7	4	SIC	368	RC	2	1	23VO	1	0	1.19368910789	-470.0	139.0	-464	139	1
1.7	2015_Aug_03_1210	s	s	7	4	SIC	369	ABS	1	2	24MD	0	1	0.91243314743	None	None	None	None	1
1.7	2015_Aug_03_1210	s	s	7	4	SIC	370	RC	1	0	23MC	1	0	1.14108991623	-493.0	-151.0	-493	-148	1
1.7	2015_Aug_03_1210	s	s	7	4	SIC	371	RC	1	1	23MO	1	0	1.84202313423	465.0	-104.0	468	-107	1
1.7	2015_Aug_03_1210	s	s	7	4	SIC	372	RC	1	2	23MD	1	0	3.73058795929	228.0	362.0	231	364	1
1.7	2015_Aug_03_1210	s	s	7	4	SIC	373	ABS	0	2	24RD	0	1	1.32604694366	None	None	None	None	1
1.7	2015_Aug_03_1210	s	s	7	4	SIC	374	ABS	1	1	24MO	0	1	3.15386199951	None	None	None	None	1
1.7	2015_Aug_03_1210	s	s	7	4	SIC	375	RC	0	1	23RO	0	1	4.45510816574	57.0	-227.0	None	None	0
1.7	2015_Aug_03_1210	s	s	7	4	SIC	376	ABS	2	1	24VO	0	1	0.725759983063	None	None	None	None	1
1.7	2015_Aug_03_1210	s	s	7	4	SIC	377	ABS	0	1	24RO	0	1	5.20874786377	None	None	None	None	1
1.7	2015_Aug_03_1210	s	s	7	4	SIC	378	RC	0	2	23RD	1	0	0.664826869965	208.0	69.0	207	66	1
1.7	2015_Aug_03_1210	s	s	7	4	SIC	379	ABS	1	0	24MC	0	1	2.89082813263	None	None	None	None	1
1.7	2015_Aug_03_1210	s	s	7	4	SIC	380	ABS	2	0	24VC	0	1	0.818656921387	None	None	None	None	1
1.7	2015_Aug_03_1210	s	s	7	4	SIC	381	ABS	2	2	24VD	0	1	0.597353935242	None	None	None	None	1
1.7	2015_Aug_03_1210	s	s	7	4	SIC	382	RC	2	1	23VO	1	0	1.11253499985	-536.0	-140.0	-533	-136	1
1.7	2015_Aug_03_1210	s	s	7	4	SIC	383	RC	2	0	23VC	1	0	0.552587032318	-65.0	232.0	-58	227	1
1.7	2015_Aug_03_1210	s	s	7	4	SIC	384	RC	2	2	23VD	1	0	0.576170921326	248.0	348.0	249	350	1
1.7	2015_Aug_03_1210	s	s	7	4	SIC	385	ABS	2	1	24VO	0	1	0.870388031006	None	None	None	None	1
1.7	2015_Aug_03_1210	s	s	7	4	SIC	386	RC	2	0	23VC	1	0	1.15822315216	-452.0	-387.0	-458	-390	1
1.7	2015_Aug_03_1210	s	s	7	4	SIC	387	RC	0	1	23RO	1	0	2.61796307564	-204.0	138.0	-203	143	1
1.7	2015_Aug_03_1210	s	s	7	4	SIC	388	ABS	2	0	24VC	0	1	0.734668970108	None	None	None	None	1
1.7	2015_Aug_03_1210	s	s	7	4	SIC	389	RC	1	2	23MD	1	0	0.760881900787	-326.0	74.0	-326	77	1
1.7	2015_Aug_03_1210	s	s	7	4	SIC	390	ABS	1	0	24MC	0	1	3.54233694077	None	None	None	None	1
1.7	2015_Aug_03_1210	s	s	7	4	SIC	391	RC	2	2	23VD	1	0	0.628840208054	-420.0	225.0	-420	224	1
1.7	2015_Aug_03_1210	s	s	7	4	SIC	392	ABS	0	1	24RO	0	1	7.58633422852	None	None	None	None	1
1.7	2015_Aug_03_1210	s	s	7	4	SIC	393	RC	1	1	23MO	1	0	0.835485935211	219.0	176.0	221	180	1
1.7	2015_Aug_03_1210	s	s	7	4	SIC	394	ABS	0	2	24RD	0	1	1.21868801117	None	None	None	None	1
1.7	2015_Aug_03_1210	s	s	7	4	SIC	395	RC	2	1	23VO	1	0	0.599662065506	150.0	-75.0	147	-77	1
1.7	2015_Aug_03_1210	s	s	7	4	SIC	396	ABS	2	2	24VD	0	1	0.691421031952	None	None	None	None	1
1.7	2015_Aug_03_1210	s	s	7	4	SIC	397	RC	1	0	23MC	1	0	1.44394397736	-493.0	236.0	-494	229	1
1.7	2015_Aug_03_1210	s	s	7	4	SIC	398	ABS	1	1	24MO	0	1	2.61239409447	None	None	None	None	1
1.7	2015_Aug_03_1210	s	s	7	4	SIC	399	RC	0	2	23RD	1	0	0.667341947556	359.0	291.0	362	292	1
1.7	2015_Aug_03_1210	s	s	7	4	SIC	400	ABS	1	2	24MD	0	1	0.799768924713	None	None	None	None	1
1.7	2015_Aug_03_1210	s	s	7	4	SIC	401	ABS	0	1	24RO	0	1	4.39654016495	None	None	None	None	1
1.7	2015_Aug_03_1210	s	s	7	4	SIC	402	RC	0	1	23RO	1	0	3.71343302727	54.0	348.0	58	353	1
1.7	2015_Aug_03_1210	s	s	7	4	SIC	403	RC	2	0	23VC	1	0	0.514127016068	111.0	-138.0	119	-138	1
1.7	2015_Aug_03_1210	s	s	7	4	SIC	404	ABS	2	2	24VD	0	1	0.642096042633	None	None	None	None	1
1.7	2015_Aug_03_1210	s	s	7	4	SIC	405	ABS	1	0	24MC	0	1	4.70258617401	None	None	None	None	1
1.7	2015_Aug_03_1210	s	s	7	4	SIC	406	RC	1	0	23MC	1	0	1.12934803963	531.0	349.0	529	344	1
1.7	2015_Aug_03_1210	s	s	7	4	SIC	407	RC	2	2	23VD	1	0	1.14777207375	369.0	132.0	365	132	1
1.7	2015_Aug_03_1210	s	s	7	4	SIC	408	ABS	1	1	24MO	0	1	1.84144115448	None	None	None	None	1
1.7	2015_Aug_03_1210	s	s	7	4	SIC	409	ABS	1	2	24MD	0	1	0.806257009506	None	None	None	None	1
1.7	2015_Aug_03_1210	s	s	7	4	SIC	410	RC	2	1	23VO	1	0	0.623208999634	367.0	-127.0	356	-126	1
1.7	2015_Aug_03_1210	s	s	7	4	SIC	411	RC	1	1	23MO	1	0	1.45539999008	-424.0	287.0	-416	288	1
1.7	2015_Aug_03_1210	s	s	7	4	SIC	412	ABS	0	2	24RD	0	1	0.835023164749	None	None	None	None	1
1.7	2015_Aug_03_1210	s	s	7	4	SIC	413	RC	0	2	23RD	1	0	0.947180986404	-180.0	-354.0	-180	-362	1
1.7	2015_Aug_03_1210	s	s	7	4	SIC	414	RC	1	2	23MD	1	0	0.736676931381	408.0	189.0	408	189	1
1.7	2015_Aug_03_1210	s	s	7	4	SIC	415	ABS	2	1	24VO	0	1	0.714031934738	None	None	None	None	1
1.7	2015_Aug_03_1210	s	s	7	4	SIC	416	ABS	2	0	24VC	0	1	2.38362693787	None	None	None	None	1
1.7	2015_Aug_03_1210	s	s	7	4	SIC	417	RC	2	0	23VC	1	0	0.805158138275	314.0	-159.0	318	-154	1
1.7	2015_Aug_03_1210	s	s	7	4	SIC	418	RC	1	2	23MD	1	0	0.994376182556	-198.0	-102.0	-195	-102	1
1.7	2015_Aug_03_1210	s	s	7	4	SIC	419	RC	1	1	23MO	1	0	0.794719934464	-100.0	-150.0	-94	-150	1
1.7	2015_Aug_03_1210	s	s	7	4	SIC	420	RC	2	2	23VD	1	0	0.559418916702	-442.0	-395.0	-444	-406	1
1.7	2015_Aug_03_1210	s	s	7	4	SIC	421	RC	0	2	23RD	1	0	0.493737220764	-80.0	-350.0	-76	-350	1
1.7	2015_Aug_03_1210	s	s	7	4	SIC	422	RC	2	1	23VO	1	0	0.51225399971	261.0	-174.0	269	-174	1
1.7	2015_Aug_03_1210	s	s	7	4	SIC	423	ABS	1	2	24MD	0	1	1.9829120636	None	None	None	None	1
1.7	2015_Aug_03_1210	s	s	7	4	SIC	424	ABS	2	2	24VD	0	1	0.623594045639	None	None	None	None	1
1.7	2015_Aug_03_1210	s	s	7	4	SIC	425	ABS	2	0	24VC	0	1	0.85857796669	None	None	None	None	1
1.7	2015_Aug_03_1210	s	s	7	4	SIC	426	RC	0	1	23RO	1	0	1.5530769825	-385.0	-159.0	-375	-155	1
1.7	2015_Aug_03_1210	s	s	7	4	SIC	427	RC	1	0	23MC	1	0	1.04695415497	-133.0	232.0	-119	238	1
1.7	2015_Aug_03_1210	s	s	7	4	SIC	428	ABS	1	1	24MO	0	1	2.60063004494	None	None	None	None	1
1.7	2015_Aug_03_1210	s	s	7	4	SIC	429	ABS	0	2	24RD	0	1	0.724080085754	None	None	None	None	1
1.7	2015_Aug_03_1210	s	s	7	4	SIC	430	ABS	1	0	24MC	0	1	1.78887605667	None	None	None	None	1
1.7	2015_Aug_03_1210	s	s	7	4	SIC	431	ABS	0	1	24RO	0	1	2.99478697777	None	None	None	None	1
1.7	2015_Aug_03_1210	s	s	7	4	SIC	432	ABS	2	1	24VO	0	1	0.517251968384	None	None	None	None	1
1.7	2015_Aug_03_1210	s	s	7	4	SIC	433	ABS	2	0	24VC	0	1	0.536440134048	None	None	None	None	1
1.7	2015_Aug_03_1210	s	s	7	4	SIC	434	ABS	0	1	24RO	0	1	4.56148195267	None	None	None	None	1
1.7	2015_Aug_03_1210	s	s	7	4	SIC	435	ABS	1	2	24MD	0	1	0.654203891754	None	None	None	None	1
1.7	2015_Aug_03_1210	s	s	7	4	SIC	436	RC	0	1	23RO	1	0	2.44259309769	-417.0	177.0	-417	173	1
1.7	2015_Aug_03_1210	s	s	7	4	SIC	437	RC	0	2	23RD	1	0	0.806318998337	369.0	210.0	372	212	1
1.7	2015_Aug_03_1210	s	s	7	4	SIC	438	ABS	2	2	24VD	0	1	0.606323957443	None	None	None	None	1
1.7	2015_Aug_03_1210	s	s	7	4	SIC	439	RC	2	2	23VD	1	0	2.25931096077	-444.0	-51.0	-434	-46	1
1.7	2015_Aug_03_1210	s	s	7	4	SIC	440	ABS	1	1	24MO	0	1	1.99455499649	None	None	None	None	1
1.7	2015_Aug_03_1210	s	s	7	4	SIC	441	RC	1	2	23MD	1	0	11.494166851	14.0	250.0	9	242	1
1.7	2015_Aug_03_1210	s	s	7	4	SIC	442	RC	2	1	23VO	1	0	1.79539203644	-223.0	-341.0	-217	-345	1
1.7	2015_Aug_03_1210	s	s	7	4	SIC	443	ABS	2	1	24VO	0	1	1.83547997475	None	None	None	None	1
1.7	2015_Aug_03_1210	s	s	7	4	SIC	444	RC	2	0	23VC	1	0	1.0940451622	429.0	-289.0	429	-288	1
1.7	2015_Aug_03_1210	s	s	7	4	SIC	445	ABS	0	2	24RD	0	1	1.76247406006	None	None	None	None	1
1.7	2015_Aug_03_1210	s	s	7	4	SIC	446	RC	1	0	23MC	1	0	0.752637863159	-352.0	-187.0	-361	-188	1
1.7	2015_Aug_03_1210	s	s	7	4	SIC	447	ABS	1	0	24MC	0	1	2.39542913437	None	None	None	None	1
1.7	2015_Aug_03_1210	s	s	7	4	SIC	448	RC	1	1	23MO	1	0	0.700510025024	-115.0	105.0	-109	104	1
1.7	2015_Aug_03_1210	s	s	7	4	SIC	449	ABS	1	1	24MO	0	1	1.54130101204	None	None	None	None	1
1.7	2015_Aug_03_1210	s	s	7	4	SIC	450	RC	1	1	23MO	1	0	2.41963887215	142.0	-181.0	141	-191	1
1.7	2015_Aug_03_1210	s	s	7	4	SIC	451	ABS	2	1	24VO	0	1	1.02991199493	None	None	None	None	1
1.7	2015_Aug_03_1210	s	s	7	4	SIC	452	ABS	2	2	24VD	0	1	1.14108920097	None	None	None	None	1
1.7	2015_Aug_03_1210	s	s	7	4	SIC	453	ABS	1	0	24MC	0	1	2.160187006	None	None	None	None	1
1.7	2015_Aug_03_1210	s	s	7	4	SIC	454	RC	0	2	23RD	1	0	0.693806886673	-334.0	-277.0	-343	-277	1
1.7	2015_Aug_03_1210	s	s	7	4	SIC	455	RC	2	0	23VC	1	0	0.517663002014	-380.0	-59.0	-376	-59	1
1.7	2015_Aug_03_1210	s	s	7	4	SIC	456	RC	1	2	23MD	1	0	0.53630399704	386.0	-134.0	388	-133	1
1.7	2015_Aug_03_1210	s	s	7	4	SIC	457	ABS	1	2	24MD	0	1	0.738492965698	None	None	None	None	1
1.7	2015_Aug_03_1210	s	s	7	4	SIC	458	RC	2	1	23VO	1	0	0.72437787056	119.0	-263.0	128	-261	1
1.7	2015_Aug_03_1210	s	s	7	4	SIC	459	RC	2	2	23VD	1	0	0.623208999634	82.0	268.0	86	268	1
1.7	2015_Aug_03_1210	s	s	7	4	SIC	460	RC	1	0	23MC	1	0	1.60013198853	-246.0	-118.0	-244	-124	1
1.7	2015_Aug_03_1210	s	s	7	4	SIC	461	ABS	0	2	24RD	0	1	1.05414700508	None	None	None	None	1
1.7	2015_Aug_03_1210	s	s	7	4	SIC	462	ABS	0	1	24RO	0	1	3.80128407478	None	None	None	None	1
1.7	2015_Aug_03_1210	s	s	7	4	SIC	463	ABS	2	0	24VC	0	1	1.05867123604	None	None	None	None	1
1.7	2015_Aug_03_1210	s	s	7	4	SIC	464	RC	0	1	23RO	1	0	2.10157179832	342.0	242.0	348	246	1
1.7	2015_Aug_03_1210	s	s	7	4	SIC	465	RC	2	0	23VC	1	0	0.632599115372	-259.0	141.0	-263	139	1
1.7	2015_Aug_03_1210	s	s	7	4	SIC	466	ABS	0	2	24RD	0	1	0.788000106812	None	None	None	None	1
1.7	2015_Aug_03_1210	s	s	7	4	SIC	467	ABS	1	2	24MD	0	1	0.573907136917	None	None	None	None	1
1.7	2015_Aug_03_1210	s	s	7	4	SIC	468	ABS	2	1	24VO	0	1	0.540825843811	None	None	None	None	1
1.7	2015_Aug_03_1210	s	s	7	4	SIC	469	RC	1	1	23MO	1	0	2.58894586563	-55.0	408.0	-56	407	1
1.7	2015_Aug_03_1210	s	s	7	4	SIC	470	ABS	2	0	24VC	0	1	0.879956007004	None	None	None	None	1
1.7	2015_Aug_03_1210	s	s	7	4	SIC	471	RC	2	2	23VD	1	0	0.795057058334	432.0	-86.0	431	-90	1
1.7	2015_Aug_03_1210	s	s	7	4	SIC	472	RC	0	1	23RO	1	0	2.81247615814	368.0	157.0	375	154	1
1.7	2015_Aug_03_1210	s	s	7	4	SIC	473	ABS	2	2	24VD	0	1	0.831866979599	None	None	None	None	1
1.7	2015_Aug_03_1210	s	s	7	4	SIC	474	ABS	0	1	24RO	0	1	5.56671595573	None	None	None	None	1
1.7	2015_Aug_03_1210	s	s	7	4	SIC	475	ABS	1	1	24MO	0	1	2.25928902626	None	None	None	None	1
1.7	2015_Aug_03_1210	s	s	7	4	SIC	476	ABS	1	0	24MC	0	1	3.32527589798	None	None	None	None	1
1.7	2015_Aug_03_1210	s	s	7	4	SIC	477	RC	2	1	23VO	1	0	0.665838956833	72.0	-231.0	74	-235	1
1.7	2015_Aug_03_1210	s	s	7	4	SIC	478	RC	1	2	23MD	1	0	0.705640077591	391.0	245.0	391	239	1
1.7	2015_Aug_03_1210	s	s	7	4	SIC	479	RC	1	0	23MC	1	0	0.912791967392	-471.0	-141.0	-469	-147	1
1.7	2015_Aug_03_1210	s	s	7	4	SIC	480	RC	0	2	23RD	1	0	0.74764585495	198.0	82.0	201	82	1
1.7	2015_Aug_03_1210	s	s	7	4	SIC	481	RC	1	0	23MC	1	0	1.64725589752	-337.0	-407.0	-337	-407	1
1.7	2015_Aug_03_1210	s	s	7	4	SIC	482	RC	0	1	23RO	1	0	1.84727478027	-409.0	-270.0	-406	-266	1
1.7	2015_Aug_03_1210	s	s	7	4	SIC	483	ABS	2	0	24VC	0	1	0.819025993347	None	None	None	None	1
1.7	2015_Aug_03_1210	s	s	7	4	SIC	484	RC	2	1	23VO	1	0	0.841801166534	6.0	325.0	6	326	1
1.7	2015_Aug_03_1210	s	s	7	4	SIC	485	ABS	0	2	24RD	0	1	0.735805988312	None	None	None	None	1
1.7	2015_Aug_03_1210	s	s	7	4	SIC	486	ABS	1	0	24MC	0	1	2.16512012482	None	None	None	None	1
1.7	2015_Aug_03_1210	s	s	7	4	SIC	487	RC	1	2	23MD	1	0	0.788004159927	-329.0	-247.0	-328	-248	1
1.7	2015_Aug_03_1210	s	s	7	4	SIC	488	RC	0	2	23RD	1	0	0.853574037552	414.0	277.0	424	281	1
1.7	2015_Aug_03_1210	s	s	7	4	SIC	489	RC	1	1	23MO	1	0	1.26541495323	-163.0	299.0	-162	305	1
1.7	2015_Aug_03_1210	s	s	7	4	SIC	490	ABS	2	2	24VD	0	1	0.682077884674	None	None	None	None	1
1.7	2015_Aug_03_1210	s	s	7	4	SIC	491	ABS	0	1	24RO	0	1	4.75470995903	None	None	None	None	1
1.7	2015_Aug_03_1210	s	s	7	4	SIC	492	ABS	1	2	24MD	0	1	0.874147176743	None	None	None	None	1
1.7	2015_Aug_03_1210	s	s	7	4	SIC	493	ABS	1	1	24MO	0	1	4.20947599411	None	None	None	None	1
1.7	2015_Aug_03_1210	s	s	7	4	SIC	494	ABS	2	1	24VO	0	1	0.924284934998	None	None	None	None	1
1.7	2015_Aug_03_1210	s	s	7	4	SIC	495	RC	2	0	23VC	1	0	0.513803005219	-233.0	54.0	-231	52	1
1.7	2015_Aug_03_1210	s	s	7	4	SIC	496	RC	2	2	23VD	1	0	0.600024938583	515.0	247.0	514	243	1
1.7	2015_Aug_03_1210	s	s	7	4	SIC	497	ABS	1	0	24MC	0	1	1.85385394096	None	None	None	None	1
1.7	2015_Aug_03_1210	s	s	7	4	SIC	498	ABS	0	2	24RD	0	1	0.79464006424	None	None	None	None	1
1.7	2015_Aug_03_1210	s	s	7	4	SIC	499	ABS	2	2	24VD	0	1	0.632021903992	None	None	None	None	1
1.7	2015_Aug_03_1210	s	s	7	4	SIC	500	ABS	1	1	24MO	0	1	2.87136697769	None	None	None	None	1
1.7	2015_Aug_03_1210	s	s	7	4	SIC	501	ABS	2	0	24VC	0	1	0.862379074097	None	None	None	None	1
1.7	2015_Aug_03_1210	s	s	7	4	SIC	502	RC	1	1	23MO	1	0	0.936125993729	446.0	34.0	448	37	1
1.7	2015_Aug_03_1210	s	s	7	4	SIC	503	RC	2	2	23VD	1	0	0.529055118561	191.0	-247.0	192	-248	1
1.7	2015_Aug_03_1210	s	s	7	4	SIC	504	RC	2	0	23VC	1	0	0.618062973022	-184.0	97.0	-180	100	1
1.7	2015_Aug_03_1210	s	s	7	4	SIC	505	ABS	1	2	24MD	0	1	0.759402036667	None	None	None	None	1
1.7	2015_Aug_03_1210	s	s	7	4	SIC	506	RC	0	1	23RO	1	0	2.1659219265	-260.0	405.0	-263	407	1
1.7	2015_Aug_03_1210	s	s	7	4	SIC	507	ABS	2	1	24VO	0	1	0.799721956253	None	None	None	None	1
1.7	2015_Aug_03_1210	s	s	7	4	SIC	508	RC	1	2	23MD	1	0	0.6823990345	288.0	79.0	279	79	1
1.7	2015_Aug_03_1210	s	s	7	4	SIC	509	RC	0	2	23RD	1	0	0.547564983368	-4.0	119.0	1	119	1
1.7	2015_Aug_03_1210	s	s	7	4	SIC	510	RC	1	0	23MC	1	0	0.846827983856	-192.0	250.0	-194	248	1
1.7	2015_Aug_03_1210	s	s	7	4	SIC	511	RC	2	1	23VO	1	0	0.548310041428	-114.0	105.0	-118	105	1
1.7	2015_Aug_03_1210	s	s	7	4	SIC	512	ABS	0	1	24RO	0	1	4.94930100441	None	None	None	None	1
1.7	2015_Aug_03_1210	s	s	7	4	SIC	513	ABS	1	2	24MD	0	1	0.929388999939	None	None	None	None	1
1.7	2015_Aug_03_1210	s	s	7	4	SIC	514	ABS	0	1	24RO	0	1	4.97837615013	None	None	None	None	1
1.7	2015_Aug_03_1210	s	s	7	4	SIC	515	RC	1	2	23MD	1	0	0.882135152817	310.0	238.0	306	243	1
1.7	2015_Aug_03_1210	s	s	7	4	SIC	516	ABS	2	0	24VC	0	1	0.888902187347	None	None	None	None	1
1.7	2015_Aug_03_1210	s	s	7	4	SIC	517	RC	2	1	23VO	1	0	0.623208045959	278.0	-157.0	282	-157	1
1.7	2015_Aug_03_1210	s	s	7	4	SIC	518	RC	2	0	23VC	1	0	0.929169178009	-38.0	314.0	-29	317	1
1.7	2015_Aug_03_1210	s	s	7	4	SIC	519	ABS	1	1	24MO	0	1	1.48901200294	None	None	None	None	1
1.7	2015_Aug_03_1210	s	s	7	4	SIC	520	ABS	2	2	24VD	0	1	1.3294570446	None	None	None	None	1
1.7	2015_Aug_03_1210	s	s	7	4	SIC	521	ABS	1	0	24MC	0	1	3.30693101883	None	None	None	None	1
1.7	2015_Aug_03_1210	s	s	7	4	SIC	522	RC	2	2	23VD	1	0	0.644379854202	-335.0	288.0	-335	276	1
1.7	2015_Aug_03_1210	s	s	7	4	SIC	523	RC	0	1	23RO	1	0	1.68791699409	79.0	-289.0	83	-288	1
1.7	2015_Aug_03_1210	s	s	7	4	SIC	524	RC	1	1	23MO	1	0	0.882107019424	424.0	62.0	428	65	1
1.7	2015_Aug_03_1210	s	s	7	4	SIC	525	ABS	2	1	24VO	0	1	0.689631938934	None	None	None	None	1
1.7	2015_Aug_03_1210	s	s	7	4	SIC	526	RC	1	0	23MC	1	0	1.20688581467	-337.0	-252.0	-336	-252	1
1.7	2015_Aug_03_1210	s	s	7	4	SIC	527	ABS	0	2	24RD	0	1	0.888883113861	None	None	None	None	1
1.7	2015_Aug_03_1210	s	s	7	4	SIC	528	RC	0	2	23RD	1	0	0.700372934341	-23.0	-74.0	-23	-76	1
1.7	2015_Aug_03_1210	s	s	7	4	SIC	529	ABS	2	2	24VD	0	1	0.705663919449	None	None	None	None	1
1.7	2015_Aug_03_1210	s	s	7	4	SIC	530	RC	0	1	23RO	1	0	1.78351092339	-496.0	312.0	-501	312	1
1.7	2015_Aug_03_1210	s	s	7	4	SIC	531	ABS	2	0	24VC	0	1	0.882167100906	None	None	None	None	1
1.7	2015_Aug_03_1210	s	s	7	4	SIC	532	ABS	0	1	24RO	0	1	6.42599105835	None	None	None	None	1
1.7	2015_Aug_03_1210	s	s	7	4	SIC	533	RC	2	1	23VO	1	0	0.714263916016	-229.0	36.0	-225	39	1
1.7	2015_Aug_03_1210	s	s	7	4	SIC	534	RC	1	1	23MO	1	0	0.677029848099	-218.0	90.0	-209	93	1
1.7	2015_Aug_03_1210	s	s	7	4	SIC	535	ABS	2	1	24VO	0	1	0.682024002075	None	None	None	None	1
1.7	2015_Aug_03_1210	s	s	7	4	SIC	536	RC	1	0	23MC	1	0	0.988132953644	-254.0	-241.0	-250	-239	1
1.7	2015_Aug_03_1210	s	s	7	4	SIC	537	ABS	0	2	24RD	0	1	0.714378833771	None	None	None	None	1
1.7	2015_Aug_03_1210	s	s	7	4	SIC	538	ABS	1	1	24MO	0	1	2.20893216133	None	None	None	None	1
1.7	2015_Aug_03_1210	s	s	7	4	SIC	539	RC	2	0	23VC	1	0	0.735781908035	157.0	248.0	153	246	1
1.7	2015_Aug_03_1210	s	s	7	4	SIC	540	RC	2	2	23VD	1	0	0.594759941101	-28.0	-13.0	-32	-14	1
1.7	2015_Aug_03_1210	s	s	7	4	SIC	541	ABS	1	0	24MC	0	1	2.71833491325	None	None	None	None	1
1.7	2015_Aug_03_1210	s	s	7	4	SIC	542	RC	0	2	23RD	1	0	0.667812824249	353.0	-132.0	350	-134	1
1.7	2015_Aug_03_1210	s	s	7	4	SIC	543	ABS	1	2	24MD	0	1	0.865998029709	None	None	None	None	1
1.7	2015_Aug_03_1210	s	s	7	4	SIC	544	RC	1	2	23MD	1	0	0.799712896347	113.0	144.0	121	151	1
1.7	2015_Aug_03_1210	s	s	7	4	SIC	545	RC	2	1	23VO	1	0	1.38580489159	354.0	-292.0	357	-293	1
1.7	2015_Aug_03_1210	s	s	7	4	SIC	546	ABS	2	0	24VC	0	1	0.752635002136	None	None	None	None	1
1.7	2015_Aug_03_1210	s	s	7	4	SIC	547	ABS	2	1	24VO	0	1	0.670305013657	None	None	None	None	1
1.7	2015_Aug_03_1210	s	s	7	4	SIC	548	ABS	1	2	24MD	0	1	0.594218969345	None	None	None	None	1
1.7	2015_Aug_03_1210	s	s	7	4	SIC	549	RC	0	1	23RO	1	0	1.02716207504	-151.0	-15.0	-155	-16	1
1.7	2015_Aug_03_1210	s	s	7	4	SIC	550	ABS	1	1	24MO	0	1	2.37200498581	None	None	None	None	1
1.7	2015_Aug_03_1210	s	s	7	4	SIC	551	ABS	2	2	24VD	0	1	0.606556177139	None	None	None	None	1
1.7	2015_Aug_03_1210	s	s	7	4	SIC	552	ABS	0	1	24RO	0	1	4.73806786537	None	None	None	None	1
1.7	2015_Aug_03_1210	s	s	7	4	SIC	553	RC	2	0	23VC	1	0	0.688416004181	263.0	346.0	263	347	1
1.7	2015_Aug_03_1210	s	s	7	4	SIC	554	RC	1	1	23MO	1	0	0.689012050629	-474.0	48.0	-475	47	1
1.7	2015_Aug_03_1210	s	s	7	4	SIC	555	RC	0	2	23RD	1	0	0.535753965378	-34.0	-56.0	-35	-49	1
1.7	2015_Aug_03_1210	s	s	7	4	SIC	556	RC	2	2	23VD	1	0	0.559419155121	-469.0	-243.0	-470	-246	1
1.7	2015_Aug_03_1210	s	s	7	4	SIC	557	RC	1	2	23MD	1	0	0.481961965561	131.0	-80.0	133	-74	1
1.7	2015_Aug_03_1210	s	s	7	4	SIC	558	ABS	0	2	24RD	0	1	0.729068040848	None	None	None	None	1
1.7	2015_Aug_03_1210	s	s	7	4	SIC	559	RC	1	0	23MC	1	0	1.32942819595	216.0	269.0	222	273	1
1.7	2015_Aug_03_1210	s	s	7	4	SIC	560	ABS	1	0	24MC	0	1	2.42419195175	None	None	None	None	1
1.7	2015_Aug_03_1210	s	s	7	4	SIC	561	ABS	0	1	24RO	0	1	3.5489859581	None	None	None	None	1
1.7	2015_Aug_03_1210	s	s	7	4	SIC	562	ABS	1	0	24MC	0	1	2.3014190197	None	None	None	None	1
1.7	2015_Aug_03_1210	s	s	7	4	SIC	563	ABS	1	2	24MD	0	1	0.564300060272	None	None	None	None	1
1.7	2015_Aug_03_1210	s	s	7	4	SIC	564	ABS	1	1	24MO	0	1	2.53000092506	None	None	None	None	1
1.7	2015_Aug_03_1210	s	s	7	4	SIC	565	RC	0	2	23RD	1	0	0.606534957886	-151.0	156.0	-147	149	1
1.7	2015_Aug_03_1210	s	s	7	4	SIC	566	RC	2	0	23VC	1	0	0.583240032196	198.0	43.0	194	38	1
1.7	2015_Aug_03_1210	s	s	7	4	SIC	567	RC	0	1	23RO	1	0	1.55308890343	-479.0	-94.0	-481	-98	1
1.7	2015_Aug_03_1210	s	s	7	4	SIC	568	RC	2	2	23VD	1	0	0.571238994598	-413.0	-272.0	-407	-274	1
1.7	2015_Aug_03_1210	s	s	7	4	SIC	569	ABS	0	2	24RD	0	1	0.770900011063	None	None	None	None	1
1.7	2015_Aug_03_1210	s	s	7	4	SIC	570	RC	2	1	23VO	1	0	0.670763015747	366.0	61.0	371	66	1
1.7	2015_Aug_03_1210	s	s	7	4	SIC	571	RC	1	1	23MO	1	0	0.994669914246	-506.0	-183.0	-505	-178	1
1.7	2015_Aug_03_1210	s	s	7	4	SIC	572	ABS	2	0	24VC	0	1	0.818245887756	None	None	None	None	1
1.7	2015_Aug_03_1210	s	s	7	4	SIC	573	RC	1	2	23MD	1	0	0.811987876892	469.0	-46.0	476	-43	1
1.7	2015_Aug_03_1210	s	s	7	4	SIC	574	ABS	2	2	24VD	0	1	0.576091051102	None	None	None	None	1
1.7	2015_Aug_03_1210	s	s	7	4	SIC	575	RC	1	0	23MC	1	0	1.81899309158	-361.0	-398.0	-355	-396	1
1.7	2015_Aug_03_1210	s	s	7	4	SIC	576	ABS	2	1	24VO	0	1	0.688961982727	None	None	None	None	1
1.7	2015_Aug_03_1210	s	s	7	4	SIC	577	RC	1	2	23MD	1	0	0.702776193619	-373.0	370.0	-375	368	1
1.7	2015_Aug_03_1210	s	s	7	4	SIC	578	RC	2	1	23VO	1	0	0.641942024231	79.0	-17.0	77	-15	1
1.7	2015_Aug_03_1210	s	s	7	4	SIC	579	RC	2	0	23VC	1	0	0.62322807312	86.0	-194.0	88	-189	1
1.7	2015_Aug_03_1210	s	s	7	4	SIC	580	ABS	0	2	24RD	0	1	0.808210134506	None	None	None	None	1
1.7	2015_Aug_03_1210	s	s	7	4	SIC	581	ABS	2	0	24VC	0	1	0.773720026016	None	None	None	None	1
1.7	2015_Aug_03_1210	s	s	7	4	SIC	582	ABS	0	1	24RO	0	1	4.64318799973	None	None	None	None	1
1.7	2015_Aug_03_1210	s	s	7	4	SIC	583	RC	2	2	23VD	1	0	0.599627971649	228.0	-10.0	227	-11	1
1.7	2015_Aug_03_1210	s	s	7	4	SIC	584	RC	1	0	23MC	1	0	0.544629096985	159.0	5.0	169	7	1
1.7	2015_Aug_03_1210	s	s	7	4	SIC	585	ABS	2	1	24VO	0	1	0.752752065659	None	None	None	None	1
1.7	2015_Aug_03_1210	s	s	7	4	SIC	586	ABS	1	0	24MC	0	1	2.56144809723	None	None	None	None	1
1.7	2015_Aug_03_1210	s	s	7	4	SIC	587	ABS	1	2	24MD	0	1	0.811469078064	None	None	None	None	1
1.7	2015_Aug_03_1210	s	s	7	4	SIC	588	RC	1	1	23MO	1	0	0.823343992233	385.0	-68.0	384	-67	1
1.7	2015_Aug_03_1210	s	s	7	4	SIC	589	ABS	1	1	24MO	0	1	2.71355104446	None	None	None	None	1
1.7	2015_Aug_03_1210	s	s	7	4	SIC	590	RC	0	1	23RO	1	0	3.68354415894	-432.0	268.0	-435	269	1
1.7	2015_Aug_03_1210	s	s	7	4	SIC	591	ABS	2	2	24VD	0	1	0.689079046249	None	None	None	None	1
1.7	2015_Aug_03_1210	s	s	7	4	SIC	592	RC	0	2	23RD	1	0	0.55248093605	158.0	91.0	152	98	1
