Version	Date	Stimuli	Method	Subject	Session	Condition	Trial	Target	Channel1	Channel2	Distractors	LMouseButton	RMouseButton	RT	TargetX	TargetY	ResponseX	ResponseY	Correct
1.7	2015_Jul_28_1026	s	s	7	2	Capacity	1	RC	0	2	23RD	1	0	0.79706192	33	-37	38	-36	1
1.7	2015_Jul_28_1026	s	s	7	2	Capacity	2	RC	0	1	23RO	0	1	5.237313986	-512	201	None	None	0
1.7	2015_Jul_28_1026	s	s	7	2	Capacity	3	ABS	0	1	24RO	0	1	4.495718002	None	None	None	None	1
1.7	2015_Jul_28_1026	s	s	7	2	Capacity	4	ABS	0	2	24RD	0	1	1.428926945	None	None	None	None	1
1.7	2015_Jul_28_1026	s	s	7	2	Capacity	5	ABS	0	2	24RD	0	1	1.230211973	None	None	None	None	1
1.7	2015_Jul_28_1026	s	s	7	2	Capacity	6	RC	0	1	23RO	1	0	2.71872592	-540	-179	-550	-178	1
1.7	2015_Jul_28_1026	s	s	7	2	Capacity	7	ABS	0	1	24RO	0	1	3.64823699	None	None	None	None	1
1.7	2015_Jul_28_1026	s	s	7	2	Capacity	8	RC	0	2	23RD	1	0	1.60710001	504	-368	511	-370	1
1.7	2015_Jul_28_1026	s	s	7	2	Capacity	9	RC	0	1	23RO	0	1	5.797173023	436	-92	None	None	0
1.7	2015_Jul_28_1026	s	s	7	2	Capacity	10	ABS	0	1	24RO	0	1	5.472677946	None	None	None	None	1
1.7	2015_Jul_28_1026	s	s	7	2	Capacity	11	RC	0	2	23RD	1	0	1.088816881	-370	237	-365	239	1
1.7	2015_Jul_28_1026	s	s	7	2	Capacity	12	ABS	0	2	24RD	0	1	2.336812973	None	None	None	None	1
1.7	2015_Jul_28_1026	s	s	7	2	Capacity	13	RC	0	1	23RO	1	0	3.160698891	-41	372	-38	373	1
1.7	2015_Jul_28_1026	s	s	7	2	Capacity	14	RC	0	2	23RD	1	0	1.383039951	8	56	13	54	1
1.7	2015_Jul_28_1026	s	s	7	2	Capacity	15	ABS	0	1	24RO	0	1	4.072124958	None	None	None	None	1
1.7	2015_Jul_28_1026	s	s	7	2	Capacity	16	ABS	0	2	24RD	0	1	3.102680206	None	None	None	None	1
1.7	2015_Jul_28_1026	s	s	7	2	Capacity	17	RC	0	1	23RO	1	0	1.305888891	-272	102	-269	97	1
1.7	2015_Jul_28_1026	s	s	7	2	Capacity	18	RC	0	2	23RD	1	0	1.023431063	347	-154	350	-154	1
1.7	2015_Jul_28_1026	s	s	7	2	Capacity	19	ABS	0	2	24RD	0	1	2.043939114	None	None	None	None	1
1.7	2015_Jul_28_1026	s	s	7	2	Capacity	20	ABS	0	1	24RO	0	1	6.849910021	None	None	None	None	1
1.7	2015_Jul_28_1026	s	s	7	2	Capacity	21	ABS	0	1	24RO	0	1	4.566365004	None	None	None	None	1
1.7	2015_Jul_28_1026	s	s	7	2	Capacity	22	RC	0	2	23RD	1	0	0.890616179	220	254	220	256	1
1.7	2015_Jul_28_1026	s	s	7	2	Capacity	23	RC	0	1	23RO	1	0	1.936295986	-513	71	-509	69	1
1.7	2015_Jul_28_1026	s	s	7	2	Capacity	24	ABS	0	2	24RD	0	1	1.470704079	None	None	None	None	1
1.7	2015_Jul_28_1026	s	s	7	2	Capacity	25	ABS	0	2	24RD	0	1	2.082813025	None	None	None	None	1
1.7	2015_Jul_28_1026	s	s	7	2	Capacity	26	RC	0	1	23RO	1	0	4.840728998	366	-365	371	-366	1
1.7	2015_Jul_28_1026	s	s	7	2	Capacity	27	ABS	0	1	24RO	0	1	4.107261896	None	None	None	None	1
1.7	2015_Jul_28_1026	s	s	7	2	Capacity	28	RC	0	2	23RD	1	0	0.929597139	-469	157	-466	164	1
1.7	2015_Jul_28_1026	s	s	7	2	Capacity	29	ABS	0	2	24RD	0	1	1.854175806	None	None	None	None	1
1.7	2015_Jul_28_1026	s	s	7	2	Capacity	30	ABS	0	1	24RO	0	1	5.54332614	None	None	None	None	1
1.7	2015_Jul_28_1026	s	s	7	2	Capacity	31	RC	0	2	23RD	1	0	1.317713022	-453	-160	-454	-161	1
1.7	2015_Jul_28_1026	s	s	7	2	Capacity	32	RC	0	1	23RO	0	1	2.930764914	191	178	None	None	0
1.7	2015_Jul_28_1026	s	s	7	2	Capacity	33	RC	0	2	23RD	1	0	0.893980026	84	49	83	48	1
1.7	2015_Jul_28_1026	s	s	7	2	Capacity	34	ABS	0	2	24RD	0	1	2.63074708	None	None	None	None	1
1.7	2015_Jul_28_1026	s	s	7	2	Capacity	35	RC	0	1	23RO	1	0	6.12007308	526	-236	531	-238	1
1.7	2015_Jul_28_1026	s	s	7	2	Capacity	36	ABS	0	1	24RO	0	1	3.725815058	None	None	None	None	1
1.7	2015_Jul_28_1026	s	s	7	2	Capacity	37	RC	0	2	23RD	1	0	0.91226387	-176	-78	-181	-76	1
1.7	2015_Jul_28_1026	s	s	7	2	Capacity	38	RC	0	1	23RO	1	0	1.42098403	-322	-118	-324	-118	1
1.7	2015_Jul_28_1026	s	s	7	2	Capacity	39	ABS	0	2	24RD	0	1	1.585078955	None	None	None	None	1
1.7	2015_Jul_28_1026	s	s	7	2	Capacity	40	ABS	0	1	24RO	0	1	4.926357985	None	None	None	None	1
1.7	2015_Jul_28_1026	s	s	7	2	Capacity	41	ABS	0	2	24RD	0	1	1.432036161	None	None	None	None	1
1.7	2015_Jul_28_1026	s	s	7	2	Capacity	42	RC	0	2	23RD	1	0	0.876456976	40	21	45	17	1
1.7	2015_Jul_28_1026	s	s	7	2	Capacity	43	ABS	0	1	24RO	0	1	4.82529521	None	None	None	None	1
1.7	2015_Jul_28_1026	s	s	7	2	Capacity	44	RC	0	1	23RO	1	0	2.018895865	306	-385	308	-388	1
1.7	2015_Jul_28_1026	s	s	7	2	Capacity	45	ABS	0	2	24RD	0	1	2.047986031	None	None	None	None	1
1.7	2015_Jul_28_1026	s	s	7	2	Capacity	46	RC	0	1	23RO	1	0	5.174733877	-357	-321	-358	-327	1
1.7	2015_Jul_28_1026	s	s	7	2	Capacity	47	ABS	0	1	24RO	0	1	5.001838207	None	None	None	None	1
1.7	2015_Jul_28_1026	s	s	7	2	Capacity	48	RC	0	2	23RD	1	0	1.618758202	285	-254	290	-251	1
1.7	2015_Jul_28_1026	s	s	7	2	Capacity	49	ABS	0	1	24RO	0	1	3.348453999	None	None	None	None	1
1.7	2015_Jul_28_1026	s	s	7	2	Capacity	50	ABS	0	2	24RD	0	1	1.418522835	None	None	None	None	1
1.7	2015_Jul_28_1026	s	s	7	2	Capacity	51	RC	0	2	23RD	1	0	0.808187962	-114	71	-109	74	1
1.7	2015_Jul_28_1026	s	s	7	2	Capacity	52	RC	0	1	23RO	1	0	5.715046883	-148	-112	-148	-108	1
1.7	2015_Jul_28_1026	s	s	7	2	Capacity	53	RC	0	2	23RD	1	0	0.988152027	411	-338	410	-336	1
1.7	2015_Jul_28_1026	s	s	7	2	Capacity	54	ABS	0	2	24RD	0	1	1.121912956	None	None	None	None	1
1.7	2015_Jul_28_1026	s	s	7	2	Capacity	55	RC	0	1	23RO	1	0	1.388307095	-495	331	-499	333	1
1.7	2015_Jul_28_1026	s	s	7	2	Capacity	56	ABS	0	1	24RO	0	1	4.325737	None	None	None	None	1
1.7	2015_Jul_28_1026	s	s	7	2	Capacity	57	ABS	0	2	24RD	0	1	1.206487179	None	None	None	None	1
1.7	2015_Jul_28_1026	s	s	7	2	Capacity	58	RC	0	2	23RD	1	0	0.85864687	-147	199	-147	205	1
1.7	2015_Jul_28_1026	s	s	7	2	Capacity	59	ABS	0	1	24RO	0	1	4.531039953	None	None	None	None	1
1.7	2015_Jul_28_1026	s	s	7	2	Capacity	60	RC	0	1	23RO	1	0	1.77328682	-345	286	-341	285	1
1.7	2015_Jul_28_1026	s	s	7	2	Capacity	61	ABS	0	1	24RO	0	1	4.613430023	None	None	None	None	1
1.7	2015_Jul_28_1026	s	s	7	2	Capacity	62	RC	0	1	23RO	1	0	3.28339982	354	192	349	190	1
1.7	2015_Jul_28_1026	s	s	7	2	Capacity	63	RC	0	2	23RD	1	0	1.044090033	-395	-20	-390	-21	1
1.7	2015_Jul_28_1026	s	s	7	2	Capacity	64	ABS	0	2	24RD	0	1	1.865822077	None	None	None	None	1
1.7	2015_Jul_28_1026	s	s	7	2	Capacity	65	RC	0	1	23RO	1	0	3.478596926	485	-92	485	-91	1
1.7	2015_Jul_28_1026	s	s	7	2	Capacity	66	ABS	0	1	24RO	0	1	3.549115896	None	None	None	None	1
1.7	2015_Jul_28_1026	s	s	7	2	Capacity	67	ABS	0	2	24RD	0	1	1.500998974	None	None	None	None	1
1.7	2015_Jul_28_1026	s	s	7	2	Capacity	68	RC	0	2	23RD	1	0	0.717281103	84	100	87	98	1
1.7	2015_Jul_28_1026	s	s	7	2	Capacity	69	ABS	0	2	24RD	0	1	2.200541019	None	None	None	None	1
1.7	2015_Jul_28_1026	s	s	7	2	Capacity	70	ABS	0	1	24RO	0	1	4.740163088	None	None	None	None	1
1.7	2015_Jul_28_1026	s	s	7	2	Capacity	71	RC	0	1	23RO	1	0	3.354032993	345	276	343	274	1
1.7	2015_Jul_28_1026	s	s	7	2	Capacity	72	RC	0	2	23RD	1	0	1.182600021	-400	-224	-403	-223	1
1.7	2015_Jul_28_1026	s	s	7	2	Capacity	73	RC	0	2	23RD	1	0	0.794784784	137	321	138	320	1
1.7	2015_Jul_28_1026	s	s	7	2	Capacity	74	ABS	0	1	24RO	0	1	6.108248949	None	None	None	None	1
1.7	2015_Jul_28_1026	s	s	7	2	Capacity	75	ABS	0	2	24RD	0	1	1.258840084	None	None	None	None	1
1.7	2015_Jul_28_1026	s	s	7	2	Capacity	76	RC	0	1	23RO	1	0	1.83555603	-421	-247	-418	-249	1
1.7	2015_Jul_28_1026	s	s	7	2	Capacity	77	RC	0	1	23RO	1	0	3.807443142	-385	-201	-376	-200	1
1.7	2015_Jul_28_1026	s	s	7	2	Capacity	78	ABS	0	1	24RO	0	1	3.848393917	None	None	None	None	1
1.7	2015_Jul_28_1026	s	s	7	2	Capacity	79	ABS	0	2	24RD	0	1	1.258833885	None	None	None	None	1
1.7	2015_Jul_28_1026	s	s	7	2	Capacity	80	RC	0	2	23RD	1	0	0.84166193	-339	-29	-334	-32	1
1.7	2015_Jul_28_1026	s	s	7	2	Capacity	81	RC	0	2	23RD	1	0	0.830210924	-476	287	-470	288	1
1.7	2015_Jul_28_1026	s	s	7	2	Capacity	82	ABS	0	2	24RD	0	1	1.05855608	None	None	None	None	1
1.7	2015_Jul_28_1026	s	s	7	2	Capacity	83	RC	0	1	23RO	1	0	1.901319981	-101	237	-100	239	1
1.7	2015_Jul_28_1026	s	s	7	2	Capacity	84	ABS	0	1	24RO	0	1	3.973138809	None	None	None	None	1
1.7	2015_Jul_28_1026	s	s	7	2	Capacity	85	RC	0	2	23RD	1	0	0.729557037	112	-23	112	-22	1
1.7	2015_Jul_28_1026	s	s	7	2	Capacity	86	ABS	0	2	24RD	0	1	4.267133951	None	None	None	None	1
1.7	2015_Jul_28_1026	s	s	7	2	Capacity	87	ABS	0	1	24RO	0	1	5.154916048	None	None	None	None	1
1.7	2015_Jul_28_1026	s	s	7	2	Capacity	88	RC	0	1	23RO	1	0	2.171966791	-147	-113	-139	-115	1
1.7	2015_Jul_28_1026	s	s	7	2	Capacity	89	RC	0	1	23RO	0	1	3.655484915	-235	332	None	None	0
1.7	2015_Jul_28_1026	s	s	7	2	Capacity	90	ABS	0	2	24RD	0	1	2.659533024	None	None	None	None	1
1.7	2015_Jul_28_1026	s	s	7	2	Capacity	91	ABS	0	1	24RO	0	1	7.473632097	None	None	None	None	1
1.7	2015_Jul_28_1026	s	s	7	2	Capacity	92	RC	0	2	23RD	1	0	0.87036109	-214	-165	-208	-165	1
1.7	2015_Jul_28_1026	s	s	7	2	Capacity	1	RC	1	0	23MC	1	0	0.750387192	-93	-64	-89	-62	1
1.7	2015_Jul_28_1026	s	s	7	2	Capacity	2	RC	2	0	23VC	1	0	0.897597075	401	361	405	361	1
1.7	2015_Jul_28_1026	s	s	7	2	Capacity	3	ABS	1	0	24MC	0	1	2.736936092	None	None	None	None	1
1.7	2015_Jul_28_1026	s	s	7	2	Capacity	4	ABS	2	0	24VC	0	1	1.105760098	None	None	None	None	1
1.7	2015_Jul_28_1026	s	s	7	2	Capacity	5	RC	2	0	23VC	1	0	1.420171976	367	59	367	65	1
1.7	2015_Jul_28_1026	s	s	7	2	Capacity	6	ABS	1	0	24MC	0	1	4.76326704	None	None	None	None	1
1.7	2015_Jul_28_1026	s	s	7	2	Capacity	7	ABS	2	0	24VC	0	1	1.101023912	None	None	None	None	1
1.7	2015_Jul_28_1026	s	s	7	2	Capacity	8	RC	1	0	23MC	1	0	0.820508003	-175	146	-179	145	1
1.7	2015_Jul_28_1026	s	s	7	2	Capacity	9	RC	1	0	23MC	1	0	2.715591908	449	-144	449	-146	1
1.7	2015_Jul_28_1026	s	s	7	2	Capacity	10	RC	2	0	23VC	1	0	0.85866189	-143	236	-147	232	1
1.7	2015_Jul_28_1026	s	s	7	2	Capacity	11	ABS	2	0	24VC	0	1	1.265452862	None	None	None	None	1
1.7	2015_Jul_28_1026	s	s	7	2	Capacity	12	ABS	1	0	24MC	0	1	2.777209997	None	None	None	None	1
1.7	2015_Jul_28_1026	s	s	7	2	Capacity	13	RC	2	0	23VC	1	0	0.867799044	124	5	121	2	1
1.7	2015_Jul_28_1026	s	s	7	2	Capacity	14	RC	1	0	23MC	0	1	2.456133843	532	-269	None	None	0
1.7	2015_Jul_28_1026	s	s	7	2	Capacity	15	ABS	2	0	24VC	0	1	1.917954922	None	None	None	None	1
1.7	2015_Jul_28_1026	s	s	7	2	Capacity	16	ABS	1	0	24MC	0	1	3.401051998	None	None	None	None	1
1.7	2015_Jul_28_1026	s	s	7	2	Capacity	17	ABS	2	0	24VC	0	1	1.300149918	None	None	None	None	1
1.7	2015_Jul_28_1026	s	s	7	2	Capacity	18	RC	1	0	23MC	1	0	2.294600964	494	-5	497	0	1
1.7	2015_Jul_28_1026	s	s	7	2	Capacity	19	ABS	1	0	24MC	0	1	3.054064035	None	None	None	None	1
1.7	2015_Jul_28_1026	s	s	7	2	Capacity	20	RC	2	0	23VC	1	0	0.889524937	-213	-158	-212	-158	1
1.7	2015_Jul_28_1026	s	s	7	2	Capacity	21	ABS	1	0	24MC	0	1	3.35401988	None	None	None	None	1
1.7	2015_Jul_28_1026	s	s	7	2	Capacity	22	RC	1	0	23MC	1	0	0.80658102	-25	-13	-17	-10	1
1.7	2015_Jul_28_1026	s	s	7	2	Capacity	23	RC	2	0	23VC	1	0	1.184215069	-430	274	-427	275	1
1.7	2015_Jul_28_1026	s	s	7	2	Capacity	24	ABS	2	0	24VC	0	1	0.879487038	None	None	None	None	1
1.7	2015_Jul_28_1026	s	s	7	2	Capacity	25	RC	1	0	23MC	0	1	2.530081987	-276	340	None	None	0
1.7	2015_Jul_28_1026	s	s	7	2	Capacity	26	ABS	2	0	24VC	0	1	1.901076078	None	None	None	None	1
1.7	2015_Jul_28_1026	s	s	7	2	Capacity	27	RC	2	0	23VC	1	0	0.758795023	186	-198	182	-196	1
1.7	2015_Jul_28_1026	s	s	7	2	Capacity	28	ABS	1	0	24MC	0	1	5.399456024	None	None	None	None	1
1.7	2015_Jul_28_1026	s	s	7	2	Capacity	29	ABS	2	0	24VC	0	1	2.012161017	None	None	None	None	1
1.7	2015_Jul_28_1026	s	s	7	2	Capacity	30	ABS	1	0	24MC	0	1	7.008759975	None	None	None	None	1
1.7	2015_Jul_28_1026	s	s	7	2	Capacity	31	RC	1	0	23MC	1	0	1.420906067	-495	269	-497	268	1
1.7	2015_Jul_28_1026	s	s	7	2	Capacity	32	RC	2	0	23VC	1	0	1.02342701	-482	-196	-487	-203	1
1.7	2015_Jul_28_1026	s	s	7	2	Capacity	33	RC	2	0	23VC	1	0	0.650520086	-97	35	-93	36	1
1.7	2015_Jul_28_1026	s	s	7	2	Capacity	34	ABS	1	0	24MC	0	1	6.161305904	None	None	None	None	1
1.7	2015_Jul_28_1026	s	s	7	2	Capacity	35	ABS	2	0	24VC	0	1	1.077268124	None	None	None	None	1
1.7	2015_Jul_28_1026	s	s	7	2	Capacity	36	RC	1	0	23MC	1	0	0.941004992	-23	28	-27	21	1
1.7	2015_Jul_28_1026	s	s	7	2	Capacity	37	RC	2	0	23VC	1	0	0.703096867	361	-25	362	-24	1
1.7	2015_Jul_28_1026	s	s	7	2	Capacity	38	ABS	2	0	24VC	0	1	1.611966133	None	None	None	None	1
1.7	2015_Jul_28_1026	s	s	7	2	Capacity	39	ABS	1	0	24MC	0	1	3.101826906	None	None	None	None	1
1.7	2015_Jul_28_1026	s	s	7	2	Capacity	40	RC	1	0	23MC	1	0	0.903164864	-269	66	-269	64	1
1.7	2015_Jul_28_1026	s	s	7	2	Capacity	41	ABS	2	0	24VC	0	1	1.125743866	None	None	None	None	1
1.7	2015_Jul_28_1026	s	s	7	2	Capacity	42	RC	1	0	23MC	1	0	2.255313158	504	-319	508	-322	1
1.7	2015_Jul_28_1026	s	s	7	2	Capacity	43	RC	2	0	23VC	1	0	0.964717865	305	129	311	128	1
1.7	2015_Jul_28_1026	s	s	7	2	Capacity	44	ABS	1	0	24MC	0	1	3.984795809	None	None	None	None	1
1.7	2015_Jul_28_1026	s	s	7	2	Capacity	45	RC	1	0	23MC	1	0	1.588366032	-134	-411	-137	-406	1
1.7	2015_Jul_28_1026	s	s	7	2	Capacity	46	ABS	2	0	24VC	0	1	1.223511219	None	None	None	None	1
1.7	2015_Jul_28_1026	s	s	7	2	Capacity	47	RC	2	0	23VC	1	0	1.136025906	292	5	305	9	1
1.7	2015_Jul_28_1026	s	s	7	2	Capacity	48	ABS	1	0	24MC	0	1	4.102928877	None	None	None	None	1
1.7	2015_Jul_28_1026	s	s	7	2	Capacity	49	RC	1	0	23MC	1	0	1.548194885	-238	-333	-238	-332	1
1.7	2015_Jul_28_1026	s	s	7	2	Capacity	50	RC	2	0	23VC	1	0	0.72418499	238	-276	247	-274	1
1.7	2015_Jul_28_1026	s	s	7	2	Capacity	51	ABS	2	0	24VC	0	1	1.079728127	None	None	None	None	1
1.7	2015_Jul_28_1026	s	s	7	2	Capacity	52	ABS	1	0	24MC	0	1	3.007528067	None	None	None	None	1
1.7	2015_Jul_28_1026	s	s	7	2	Capacity	53	RC	2	0	23VC	1	0	0.794903994	-466	188	-463	189	1
1.7	2015_Jul_28_1026	s	s	7	2	Capacity	54	ABS	2	0	24VC	0	1	1.631546974	None	None	None	None	1
1.7	2015_Jul_28_1026	s	s	7	2	Capacity	55	RC	1	0	23MC	1	0	4.09555912	437	234	432	233	1
1.7	2015_Jul_28_1026	s	s	7	2	Capacity	56	ABS	1	0	24MC	0	1	4.727483988	None	None	None	None	1
1.7	2015_Jul_28_1026	s	s	7	2	Capacity	57	ABS	2	0	24VC	0	1	1.253432989	None	None	None	None	1
1.7	2015_Jul_28_1026	s	s	7	2	Capacity	58	RC	2	0	23VC	1	0	1.058748961	208	-249	212	-248	1
1.7	2015_Jul_28_1026	s	s	7	2	Capacity	59	RC	1	0	23MC	1	0	0.905712128	-45	-76	-42	-71	1
1.7	2015_Jul_28_1026	s	s	7	2	Capacity	60	ABS	1	0	24MC	0	1	3.271636009	None	None	None	None	1
1.7	2015_Jul_28_1026	s	s	7	2	Capacity	61	RC	2	0	23VC	1	0	0.852992058	251	-251	256	-252	1
1.7	2015_Jul_28_1026	s	s	7	2	Capacity	62	RC	1	0	23MC	1	0	0.92919302	-281	-55	-278	-57	1
1.7	2015_Jul_28_1026	s	s	7	2	Capacity	63	ABS	2	0	24VC	0	1	1.326432943	None	None	None	None	1
1.7	2015_Jul_28_1026	s	s	7	2	Capacity	64	ABS	1	0	24MC	0	1	2.353497028	None	None	None	None	1
1.7	2015_Jul_28_1026	s	s	7	2	Capacity	65	RC	1	0	23MC	1	0	0.771060944	-326	20	-325	18	1
1.7	2015_Jul_28_1026	s	s	7	2	Capacity	66	ABS	2	0	24VC	0	1	1.018507958	None	None	None	None	1
1.7	2015_Jul_28_1026	s	s	7	2	Capacity	67	RC	2	0	23VC	1	0	0.952849865	-265	392	-263	384	1
1.7	2015_Jul_28_1026	s	s	7	2	Capacity	68	ABS	1	0	24MC	0	1	3.254765987	None	None	None	None	1
1.7	2015_Jul_28_1026	s	s	7	2	Capacity	69	ABS	2	0	24VC	0	1	0.971897125	None	None	None	None	1
1.7	2015_Jul_28_1026	s	s	7	2	Capacity	70	RC	2	0	23VC	1	0	0.81728816	-488	-235	-484	-231	1
1.7	2015_Jul_28_1026	s	s	7	2	Capacity	71	RC	1	0	23MC	1	0	0.823332071	-526	110	-523	104	1
1.7	2015_Jul_28_1026	s	s	7	2	Capacity	72	ABS	1	0	24MC	0	1	3.737245083	None	None	None	None	1
1.7	2015_Jul_28_1026	s	s	7	2	Capacity	73	RC	2	0	23VC	1	0	1.253648996	428	-223	438	-217	1
1.7	2015_Jul_28_1026	s	s	7	2	Capacity	74	ABS	2	0	24VC	0	1	1.041544914	None	None	None	None	1
1.7	2015_Jul_28_1026	s	s	7	2	Capacity	75	RC	1	0	23MC	1	0	1.644439936	-461	221	-469	224	1
1.7	2015_Jul_28_1026	s	s	7	2	Capacity	76	ABS	1	0	24MC	0	1	2.819303036	None	None	None	None	1
1.7	2015_Jul_28_1026	s	s	7	2	Capacity	77	RC	1	0	23MC	1	0	1.423624039	265	-142	269	-141	1
1.7	2015_Jul_28_1026	s	s	7	2	Capacity	78	RC	2	0	23VC	1	0	0.911874056	425	-358	425	-358	1
1.7	2015_Jul_28_1026	s	s	7	2	Capacity	79	ABS	2	0	24VC	0	1	1.199904919	None	None	None	None	1
1.7	2015_Jul_28_1026	s	s	7	2	Capacity	80	ABS	1	0	24MC	0	1	4.154374123	None	None	None	None	1
1.7	2015_Jul_28_1026	s	s	7	2	Capacity	81	RC	2	0	23VC	1	0	0.764480829	-169	-134	-166	-132	1
1.7	2015_Jul_28_1026	s	s	7	2	Capacity	82	ABS	1	0	24MC	0	1	4.448629856	None	None	None	None	1
1.7	2015_Jul_28_1026	s	s	7	2	Capacity	83	RC	1	0	23MC	1	0	0.77283597	-486	-39	-490	-42	1
1.7	2015_Jul_28_1026	s	s	7	2	Capacity	84	ABS	2	0	24VC	0	1	0.964528084	None	None	None	None	1
1.7	2015_Jul_28_1026	s	s	7	2	Capacity	85	RC	2	0	23VC	1	0	0.865492106	-445	361	-444	370	1
1.7	2015_Jul_28_1026	s	s	7	2	Capacity	86	ABS	1	0	24MC	0	1	3.569509983	None	None	None	None	1
1.7	2015_Jul_28_1026	s	s	7	2	Capacity	87	RC	1	0	23MC	1	0	3.162960053	301	359	310	364	1
1.7	2015_Jul_28_1026	s	s	7	2	Capacity	88	ABS	2	0	24VC	0	1	1.176383019	None	None	None	None	1
1.7	2015_Jul_28_1026	s	s	7	2	Capacity	89	ABS	1	0	24MC	0	1	3.914324045	None	None	None	None	1
1.7	2015_Jul_28_1026	s	s	7	2	Capacity	90	RC	1	0	23MC	1	0	1.458944082	-321	-200	-319	-203	1
1.7	2015_Jul_28_1026	s	s	7	2	Capacity	91	RC	2	0	23VC	1	0	0.681997061	-46	211	-44	214	1
1.7	2015_Jul_28_1026	s	s	7	2	Capacity	92	ABS	2	0	24VC	0	1	0.700558901	None	None	None	None	1
1.7	2015_Jul_28_1026	s	s	7	2	SIC	1	RC	2	2	23VD	1	0	0.693805218	-91	-386	-99	-390	1
1.7	2015_Jul_28_1026	s	s	7	2	SIC	2	ABS	0	1	24RO	0	1	7.776561022	None	None	None	None	1
1.7	2015_Jul_28_1026	s	s	7	2	SIC	3	RC	1	0	23MC	1	0	1.783782005	527	45	527	47	1
1.7	2015_Jul_28_1026	s	s	7	2	SIC	4	RC	1	1	23MO	1	0	1.506045103	38	283	39	278	1
1.7	2015_Jul_28_1026	s	s	7	2	SIC	5	ABS	1	1	24MO	0	1	3.424821138	None	None	None	None	1
1.7	2015_Jul_28_1026	s	s	7	2	SIC	6	ABS	1	0	24MC	0	1	3.101651907	None	None	None	None	1
1.7	2015_Jul_28_1026	s	s	7	2	SIC	7	ABS	2	0	24VC	0	1	1.102521896	None	None	None	None	1
1.7	2015_Jul_28_1026	s	s	7	2	SIC	8	ABS	0	2	24RD	0	1	1.429717779	None	None	None	None	1
1.7	2015_Jul_28_1026	s	s	7	2	SIC	9	RC	2	0	23VC	1	0	0.761826992	150	288	155	288	1
1.7	2015_Jul_28_1026	s	s	7	2	SIC	10	ABS	1	2	24MD	0	1	1.282408953	None	None	None	None	1
1.7	2015_Jul_28_1026	s	s	7	2	SIC	11	RC	0	1	23RO	1	0	1.299469948	137	311	140	316	1
1.7	2015_Jul_28_1026	s	s	7	2	SIC	12	ABS	2	1	24VO	0	1	1.10581398	None	None	None	None	1
1.7	2015_Jul_28_1026	s	s	7	2	SIC	13	RC	1	2	23MD	1	0	0.858702898	-444	117	-439	117	1
1.7	2015_Jul_28_1026	s	s	7	2	SIC	14	RC	2	1	23VO	1	0	0.759585857	352	168	353	167	1
1.7	2015_Jul_28_1026	s	s	7	2	SIC	15	RC	0	2	23RD	1	0	0.717351914	421	-133	422	-129	1
1.7	2015_Jul_28_1026	s	s	7	2	SIC	16	ABS	2	2	24VD	0	1	1.111942053	None	None	None	None	1
1.7	2015_Jul_28_1026	s	s	7	2	SIC	17	RC	0	1	23RO	1	0	4.154386997	-29	-399	-36	-400	1
1.7	2015_Jul_28_1026	s	s	7	2	SIC	18	RC	2	0	23VC	1	0	0.595594168	-168	305	-168	308	1
1.7	2015_Jul_28_1026	s	s	7	2	SIC	19	RC	1	1	23MO	1	0	1.164607048	253	168	253	165	1
1.7	2015_Jul_28_1026	s	s	7	2	SIC	20	ABS	2	1	24VO	0	1	1.030244827	None	None	None	None	1
1.7	2015_Jul_28_1026	s	s	7	2	SIC	21	ABS	1	1	24MO	0	1	4.483772993	None	None	None	None	1
1.7	2015_Jul_28_1026	s	s	7	2	SIC	22	ABS	1	2	24MD	0	1	2.247572184	None	None	None	None	1
1.7	2015_Jul_28_1026	s	s	7	2	SIC	23	RC	2	1	23VO	1	0	0.688998938	43	81	44	86	1
1.7	2015_Jul_28_1026	s	s	7	2	SIC	24	RC	0	2	23RD	1	0	1.289114952	-513	-377	-503	-370	1
1.7	2015_Jul_28_1026	s	s	7	2	SIC	25	RC	1	2	23MD	1	0	0.799591065	-191	-314	-188	-320	1
1.7	2015_Jul_28_1026	s	s	7	2	SIC	26	ABS	2	2	24VD	0	1	0.804440975	None	None	None	None	1
1.7	2015_Jul_28_1026	s	s	7	2	SIC	27	ABS	1	0	24MC	0	1	2.632975102	None	None	None	None	1
1.7	2015_Jul_28_1026	s	s	7	2	SIC	28	ABS	0	2	24RD	0	1	0.98812604	None	None	None	None	1
1.7	2015_Jul_28_1026	s	s	7	2	SIC	29	RC	1	0	23MC	1	0	1.206951141	-501	146	-503	150	1
1.7	2015_Jul_28_1026	s	s	7	2	SIC	30	ABS	2	0	24VC	0	1	0.941066027	None	None	None	None	1
1.7	2015_Jul_28_1026	s	s	7	2	SIC	31	RC	2	2	23VD	1	0	0.770990849	264	134	257	134	1
1.7	2015_Jul_28_1026	s	s	7	2	SIC	32	ABS	0	1	24RO	0	1	5.679676056	None	None	None	None	1
1.7	2015_Jul_28_1026	s	s	7	2	SIC	33	ABS	1	0	24MC	0	1	4.608443976	None	None	None	None	1
1.7	2015_Jul_28_1026	s	s	7	2	SIC	34	RC	1	2	23MD	1	0	0.841951132	58	74	52	76	1
1.7	2015_Jul_28_1026	s	s	7	2	SIC	35	RC	1	0	23MC	1	0	2.30145812	181	2	178	2	1
1.7	2015_Jul_28_1026	s	s	7	2	SIC	36	RC	1	1	23MO	1	0	1.030146122	-43	68	-48	63	1
1.7	2015_Jul_28_1026	s	s	7	2	SIC	37	ABS	2	0	24VC	0	1	1.006479979	None	None	None	None	1
1.7	2015_Jul_28_1026	s	s	7	2	SIC	38	RC	2	0	23VC	1	0	0.736347914	149	289	152	286	1
1.7	2015_Jul_28_1026	s	s	7	2	SIC	39	RC	2	1	23VO	1	0	0.806869984	476	377	475	374	1
1.7	2015_Jul_28_1026	s	s	7	2	SIC	40	ABS	1	2	24MD	0	1	1.383153915	None	None	None	None	1
1.7	2015_Jul_28_1026	s	s	7	2	SIC	41	RC	2	2	23VD	1	0	0.635014057	122	354	128	351	1
1.7	2015_Jul_28_1026	s	s	7	2	SIC	42	ABS	0	2	24RD	0	1	1.482508898	None	None	None	None	1
1.7	2015_Jul_28_1026	s	s	7	2	SIC	43	RC	0	1	23RO	1	0	2.466188908	-447	-84	-442	-78	1
1.7	2015_Jul_28_1026	s	s	7	2	SIC	44	ABS	2	2	24VD	0	1	0.923557043	None	None	None	None	1
1.7	2015_Jul_28_1026	s	s	7	2	SIC	45	ABS	0	1	24RO	0	1	5.927953005	None	None	None	None	1
1.7	2015_Jul_28_1026	s	s	7	2	SIC	46	ABS	2	1	24VO	0	1	0.69393301	None	None	None	None	1
1.7	2015_Jul_28_1026	s	s	7	2	SIC	47	RC	0	2	23RD	1	0	0.811426163	-199	195	-197	193	1
1.7	2015_Jul_28_1026	s	s	7	2	SIC	48	ABS	1	1	24MO	0	1	3.19591403	None	None	None	None	1
1.7	2015_Jul_28_1026	s	s	7	2	SIC	49	RC	0	2	23RD	1	0	0.999843836	-527	293	-529	289	1
1.7	2015_Jul_28_1026	s	s	7	2	SIC	50	RC	2	0	23VC	1	0	0.749405146	-449	-146	-446	-145	1
1.7	2015_Jul_28_1026	s	s	7	2	SIC	51	RC	1	2	23MD	1	0	0.855538845	316	-242	313	-242	1
1.7	2015_Jul_28_1026	s	s	7	2	SIC	52	ABS	0	2	24RD	0	1	1.293988943	None	None	None	None	1
1.7	2015_Jul_28_1026	s	s	7	2	SIC	53	ABS	0	1	24RO	0	1	5.066398144	None	None	None	None	1
1.7	2015_Jul_28_1026	s	s	7	2	SIC	54	ABS	1	1	24MO	0	1	4.57306695	None	None	None	None	1
1.7	2015_Jul_28_1026	s	s	7	2	SIC	55	RC	2	1	23VO	1	0	0.839221001	461	56	462	59	1
1.7	2015_Jul_28_1026	s	s	7	2	SIC	56	ABS	1	0	24MC	0	1	5.096029043	None	None	None	None	1
1.7	2015_Jul_28_1026	s	s	7	2	SIC	57	RC	0	1	23RO	1	0	4.207558155	-392	384	-393	382	1
1.7	2015_Jul_28_1026	s	s	7	2	SIC	58	RC	1	0	23MC	1	0	1.503597021	-131	180	-127	187	1
1.7	2015_Jul_28_1026	s	s	7	2	SIC	59	ABS	1	2	24MD	0	1	1.667069912	None	None	None	None	1
1.7	2015_Jul_28_1026	s	s	7	2	SIC	60	ABS	2	1	24VO	0	1	0.888698101	None	None	None	None	1
1.7	2015_Jul_28_1026	s	s	7	2	SIC	61	ABS	2	2	24VD	0	1	1.027060986	None	None	None	None	1
1.7	2015_Jul_28_1026	s	s	7	2	SIC	62	ABS	2	0	24VC	0	1	0.78182888	None	None	None	None	1
1.7	2015_Jul_28_1026	s	s	7	2	SIC	63	RC	2	2	23VD	1	0	0.752518892	-40	194	-40	198	1
1.7	2015_Jul_28_1026	s	s	7	2	SIC	64	RC	1	1	23MO	1	0	1.136132002	476	-257	475	-257	1
1.7	2015_Jul_28_1026	s	s	7	2	SIC	65	RC	2	0	23VC	1	0	3.808221102	188	-409	186	-409	1
1.7	2015_Jul_28_1026	s	s	7	2	SIC	66	ABS	0	1	24RO	0	0	-1	None	None	None	None	-1
1.7	2015_Jul_28_1026	s	s	7	2	SIC	67	RC	0	1	23RO	1	0	1.541315079	-468	245	-463	245	1
1.7	2015_Jul_28_1026	s	s	7	2	SIC	68	RC	1	0	23MC	1	0	1.57655406	-298	19	-299	21	1
1.7	2015_Jul_28_1026	s	s	7	2	SIC	69	ABS	2	1	24VO	0	1	2.377068043	None	None	None	None	1
1.7	2015_Jul_28_1026	s	s	7	2	SIC	70	ABS	1	2	24MD	0	1	1.74147296	None	None	None	None	1
1.7	2015_Jul_28_1026	s	s	7	2	SIC	71	ABS	1	1	24MO	0	1	2.812536955	None	None	None	None	1
1.7	2015_Jul_28_1026	s	s	7	2	SIC	72	ABS	2	2	24VD	0	1	2.906668186	None	None	None	None	1
1.7	2015_Jul_28_1026	s	s	7	2	SIC	73	ABS	0	2	24RD	0	1	2.454180002	None	None	None	None	1
1.7	2015_Jul_28_1026	s	s	7	2	SIC	74	RC	1	1	23MO	1	0	1.282394171	238	45	246	47	1
1.7	2015_Jul_28_1026	s	s	7	2	SIC	75	ABS	1	0	24MC	0	1	2.47119689	None	None	None	None	1
1.7	2015_Jul_28_1026	s	s	7	2	SIC	76	RC	0	2	23RD	1	0	1.147979021	257	-90	256	-90	1
1.7	2015_Jul_28_1026	s	s	7	2	SIC	77	ABS	2	0	24VC	0	1	0.79971695	None	None	None	None	1
1.7	2015_Jul_28_1026	s	s	7	2	SIC	78	RC	2	2	23VD	1	0	0.911761999	23	-40	21	-35	1
1.7	2015_Jul_28_1026	s	s	7	2	SIC	79	RC	2	1	23VO	1	0	0.740983963	-17	-176	-6	-172	1
1.7	2015_Jul_28_1026	s	s	7	2	SIC	80	RC	1	2	23MD	1	0	0.841801882	153	-306	153	-308	1
1.7	2015_Jul_28_1026	s	s	7	2	SIC	81	RC	1	2	23MD	1	0	1.018357992	26	353	27	353	1
1.7	2015_Jul_28_1026	s	s	7	2	SIC	82	ABS	2	0	24VC	0	1	2.247684956	None	None	None	None	1
1.7	2015_Jul_28_1026	s	s	7	2	SIC	83	ABS	2	2	24VD	0	1	2.760196924	None	None	None	None	1
1.7	2015_Jul_28_1026	s	s	7	2	SIC	84	RC	1	0	23MC	1	0	1.682544947	207	161	208	162	1
1.7	2015_Jul_28_1026	s	s	7	2	SIC	85	RC	2	1	23VO	1	0	8.786967039	50	388	51	390	1
1.7	2015_Jul_28_1026	s	s	7	2	SIC	86	ABS	0	1	24RO	0	1	7.30885005	None	None	None	None	1
1.7	2015_Jul_28_1026	s	s	7	2	SIC	87	RC	2	0	23VC	1	0	0.900596857	-197	32	-189	33	1
1.7	2015_Jul_28_1026	s	s	7	2	SIC	88	RC	0	2	23RD	1	0	10.36436009	-21	-39	-22	-47	1
1.7	2015_Jul_28_1026	s	s	7	2	SIC	89	ABS	1	2	24MD	0	1	1.077787876	None	None	None	None	1
1.7	2015_Jul_28_1026	s	s	7	2	SIC	90	RC	0	1	23RO	1	0	1.635463953	-125	-166	-126	-170	1
1.7	2015_Jul_28_1026	s	s	7	2	SIC	91	ABS	0	2	24RD	0	1	3.995896101	None	None	None	None	1
1.7	2015_Jul_28_1026	s	s	7	2	SIC	92	ABS	2	1	24VO	0	1	0.747655869	None	None	None	None	1
1.7	2015_Jul_28_1026	s	s	7	2	SIC	93	ABS	1	1	24MO	0	1	2.871855021	None	None	None	None	1
1.7	2015_Jul_28_1026	s	s	7	2	SIC	94	RC	1	1	23MO	1	0	1.089297772	-538	48	-542	46	1
1.7	2015_Jul_28_1026	s	s	7	2	SIC	95	ABS	1	0	24MC	0	1	2.760434866	None	None	None	None	1
1.7	2015_Jul_28_1026	s	s	7	2	SIC	96	RC	2	2	23VD	1	0	0.97371316	398	-208	393	-209	1
1.7	2015_Jul_28_1026	s	s	7	2	SIC	97	RC	2	0	23VC	1	0	1.147297144	497	340	496	338	1
1.7	2015_Jul_28_1026	s	s	7	2	SIC	98	ABS	1	0	24MC	0	1	4.245990038	None	None	None	None	1
1.7	2015_Jul_28_1026	s	s	7	2	SIC	99	RC	2	2	23VD	1	0	0.771172047	-347	-173	-343	-168	1
1.7	2015_Jul_28_1026	s	s	7	2	SIC	100	RC	1	0	23MC	1	0	1.176520109	51	-8	42	-10	1
1.7	2015_Jul_28_1026	s	s	7	2	SIC	101	ABS	0	1	24RO	0	1	7.398198843	None	None	None	None	1
1.7	2015_Jul_28_1026	s	s	7	2	SIC	102	RC	1	2	23MD	1	0	0.947951794	-435	-302	-428	-299	1
1.7	2015_Jul_28_1026	s	s	7	2	SIC	103	ABS	1	2	24MD	0	1	1.347901106	None	None	None	None	1
1.7	2015_Jul_28_1026	s	s	7	2	SIC	104	ABS	2	2	24VD	0	1	0.999839068	None	None	None	None	1
1.7	2015_Jul_28_1026	s	s	7	2	SIC	105	ABS	2	0	24VC	0	1	1.411757946	None	None	None	None	1
1.7	2015_Jul_28_1026	s	s	7	2	SIC	106	RC	0	2	23RD	1	0	0.988032103	457	196	454	195	1
1.7	2015_Jul_28_1026	s	s	7	2	SIC	107	RC	2	1	23VO	1	0	0.788047791	78	320	73	324	1
1.7	2015_Jul_28_1026	s	s	7	2	SIC	108	ABS	0	2	24RD	0	1	2.141522884	None	None	None	None	1
1.7	2015_Jul_28_1026	s	s	7	2	SIC	109	RC	1	1	23MO	1	0	1.10584116	-225	-250	-219	-247	1
1.7	2015_Jul_28_1026	s	s	7	2	SIC	110	ABS	2	1	24VO	0	1	1.200006962	None	None	None	None	1
1.7	2015_Jul_28_1026	s	s	7	2	SIC	111	RC	0	1	23RO	1	0	1.971278906	-39	107	-34	109	1
1.7	2015_Jul_28_1026	s	s	7	2	SIC	112	ABS	1	1	24MO	0	1	2.294558048	None	None	None	None	1
1.7	2015_Jul_28_1026	s	s	7	2	SIC	113	ABS	1	0	24MC	0	1	2.407197952	None	None	None	None	1
1.7	2015_Jul_28_1026	s	s	7	2	SIC	114	ABS	2	0	24VC	0	1	0.912542105	None	None	None	None	1
1.7	2015_Jul_28_1026	s	s	7	2	SIC	115	ABS	1	1	24MO	0	1	3.989645958	None	None	None	None	1
1.7	2015_Jul_28_1026	s	s	7	2	SIC	116	RC	2	2	23VD	1	0	1.028830051	526	-386	533	-384	1
1.7	2015_Jul_28_1026	s	s	7	2	SIC	117	ABS	0	1	24RO	0	1	4.420110941	None	None	None	None	1
1.7	2015_Jul_28_1026	s	s	7	2	SIC	118	RC	2	0	23VC	1	0	0.693763018	334	-157	338	-158	1
1.7	2015_Jul_28_1026	s	s	7	2	SIC	119	ABS	1	2	24MD	0	1	1.054002047	None	None	None	None	1
1.7	2015_Jul_28_1026	s	s	7	2	SIC	120	RC	1	1	23MO	1	0	1.394393921	-399	-257	-402	-259	1
1.7	2015_Jul_28_1026	s	s	7	2	SIC	121	RC	1	2	23MD	1	0	0.629803181	122	154	123	150	1
1.7	2015_Jul_28_1026	s	s	7	2	SIC	122	RC	1	0	23MC	1	0	1.888783932	487	345	491	349	1
1.7	2015_Jul_28_1026	s	s	7	2	SIC	123	RC	0	1	23RO	1	0	2.314327955	325	-291	330	-284	1
1.7	2015_Jul_28_1026	s	s	7	2	SIC	124	ABS	2	1	24VO	0	1	0.941024065	None	None	None	None	1
1.7	2015_Jul_28_1026	s	s	7	2	SIC	125	RC	2	1	23VO	1	0	0.747081041	350	167	349	169	1
1.7	2015_Jul_28_1026	s	s	7	2	SIC	126	ABS	0	2	24RD	0	1	1.317639113	None	None	None	None	1
1.7	2015_Jul_28_1026	s	s	7	2	SIC	127	RC	0	2	23RD	1	0	0.893979073	296	182	298	183	1
1.7	2015_Jul_28_1026	s	s	7	2	SIC	128	ABS	2	2	24VD	0	1	0.712392092	None	None	None	None	1
1.7	2015_Jul_28_1026	s	s	7	2	SIC	129	RC	1	1	23MO	1	0	1.094052076	-219	-124	-218	-119	1
1.7	2015_Jul_28_1026	s	s	7	2	SIC	130	ABS	1	2	24MD	0	1	1.230524063	None	None	None	None	1
1.7	2015_Jul_28_1026	s	s	7	2	SIC	131	ABS	0	1	24RO	0	1	4.660726786	None	None	None	None	1
1.7	2015_Jul_28_1026	s	s	7	2	SIC	132	RC	2	2	23VD	1	0	0.599683046	416	-74	414	-79	1
1.7	2015_Jul_28_1026	s	s	7	2	SIC	133	RC	2	1	23VO	1	0	0.576131105	428	12	438	11	1
1.7	2015_Jul_28_1026	s	s	7	2	SIC	134	ABS	0	2	24RD	0	1	2.607445955	None	None	None	None	1
1.7	2015_Jul_28_1026	s	s	7	2	SIC	135	ABS	1	1	24MO	0	1	3.160815954	None	None	None	None	1
1.7	2015_Jul_28_1026	s	s	7	2	SIC	136	RC	1	2	23MD	1	0	0.626832962	-264	148	-263	146	1
1.7	2015_Jul_28_1026	s	s	7	2	SIC	137	RC	2	0	23VC	1	0	0.653110027	147	-353	149	-358	1
1.7	2015_Jul_28_1026	s	s	7	2	SIC	138	RC	0	1	23RO	0	1	5.249016047	509	-62	None	None	0
1.7	2015_Jul_28_1026	s	s	7	2	SIC	139	RC	1	0	23MC	1	0	2.153398037	439	311	435	314	1
1.7	2015_Jul_28_1026	s	s	7	2	SIC	140	ABS	1	0	24MC	0	1	3.50703001	None	None	None	None	1
1.7	2015_Jul_28_1026	s	s	7	2	SIC	141	ABS	2	2	24VD	0	1	0.79697299	None	None	None	None	1
1.7	2015_Jul_28_1026	s	s	7	2	SIC	142	ABS	2	1	24VO	0	1	0.911912918	None	None	None	None	1
1.7	2015_Jul_28_1026	s	s	7	2	SIC	143	RC	0	2	23RD	1	0	0.665233135	242	-123	236	-126	1
1.7	2015_Jul_28_1026	s	s	7	2	SIC	144	ABS	2	0	24VC	0	1	1.267684937	None	None	None	None	1
1.7	2015_Jul_28_1026	s	s	7	2	SIC	145	RC	1	2	23MD	1	0	0.676163912	380	-84	369	-79	1
1.7	2015_Jul_28_1026	s	s	7	2	SIC	146	ABS	0	2	24RD	0	1	1.714301109	None	None	None	None	1
1.7	2015_Jul_28_1026	s	s	7	2	SIC	147	RC	0	2	23RD	1	0	0.761022091	377	-393	378	-388	1
1.7	2015_Jul_28_1026	s	s	7	2	SIC	148	RC	2	0	23VC	1	0	0.644140005	491	-227	498	-234	1
1.7	2015_Jul_28_1026	s	s	7	2	SIC	149	ABS	1	1	24MO	0	1	2.459446192	None	None	None	None	1
1.7	2015_Jul_28_1026	s	s	7	2	SIC	150	ABS	0	1	24RO	0	1	3.863784075	None	None	None	None	1
1.7	2015_Jul_28_1026	s	s	7	2	SIC	151	ABS	1	2	24MD	0	1	1.506033182	None	None	None	None	1
1.7	2015_Jul_28_1026	s	s	7	2	SIC	152	ABS	2	1	24VO	0	1	0.794831991	None	None	None	None	1
1.7	2015_Jul_28_1026	s	s	7	2	SIC	153	RC	1	1	23MO	1	0	0.897578001	163	-56	160	-56	1
1.7	2015_Jul_28_1026	s	s	7	2	SIC	154	RC	0	1	23RO	1	0	4.071974993	527	171	531	175	1
1.7	2015_Jul_28_1026	s	s	7	2	SIC	155	ABS	1	0	24MC	0	1	2.541954041	None	None	None	None	1
1.7	2015_Jul_28_1026	s	s	7	2	SIC	156	RC	1	0	23MC	1	0	1.043622017	-337	-298	-338	-297	1
1.7	2015_Jul_28_1026	s	s	7	2	SIC	157	RC	2	2	23VD	1	0	0.665402174	388	-410	386	-414	1
1.7	2015_Jul_28_1026	s	s	7	2	SIC	158	RC	2	1	23VO	1	0	0.575959921	-179	230	-178	235	1
1.7	2015_Jul_28_1026	s	s	7	2	SIC	159	ABS	2	0	24VC	0	1	0.937705994	None	None	None	None	1
1.7	2015_Jul_28_1026	s	s	7	2	SIC	160	ABS	2	2	24VD	0	1	0.890196085	None	None	None	None	1
1.7	2015_Jul_28_1026	s	s	7	2	SIC	161	RC	2	2	23VD	1	0	0.82335186	-9	115	-7	111	1
1.7	2015_Jul_28_1026	s	s	7	2	SIC	162	ABS	2	0	24VC	0	1	0.964534044	None	None	None	None	1
1.7	2015_Jul_28_1026	s	s	7	2	SIC	163	RC	1	0	23MC	1	0	1.983608007	-450	145	-445	142	1
1.7	2015_Jul_28_1026	s	s	7	2	SIC	164	ABS	2	2	24VD	0	1	0.620765925	None	None	None	None	1
1.7	2015_Jul_28_1026	s	s	7	2	SIC	165	ABS	0	2	24RD	0	1	1.553137064	None	None	None	None	1
1.7	2015_Jul_28_1026	s	s	7	2	SIC	166	RC	1	1	23MO	1	0	0.882116079	259	91	252	87	1
1.7	2015_Jul_28_1026	s	s	7	2	SIC	167	ABS	2	1	24VO	0	1	0.936127186	None	None	None	None	1
1.7	2015_Jul_28_1026	s	s	7	2	SIC	168	ABS	1	1	24MO	0	1	2.471178055	None	None	None	None	1
1.7	2015_Jul_28_1026	s	s	7	2	SIC	169	ABS	1	2	24MD	0	1	1.113054991	None	None	None	None	1
1.7	2015_Jul_28_1026	s	s	7	2	SIC	170	RC	2	1	23VO	1	0	0.784962177	-316	90	-319	87	1
1.7	2015_Jul_28_1026	s	s	7	2	SIC	171	ABS	1	0	24MC	0	1	2.777177095	None	None	None	None	1
1.7	2015_Jul_28_1026	s	s	7	2	SIC	172	RC	0	2	23RD	1	0	0.66561985	501	-306	497	-310	1
1.7	2015_Jul_28_1026	s	s	7	2	SIC	173	ABS	0	1	24RO	0	1	5.578611136	None	None	None	None	1
1.7	2015_Jul_28_1026	s	s	7	2	SIC	174	RC	1	2	23MD	1	0	0.759407997	306	-221	302	-223	1
1.7	2015_Jul_28_1026	s	s	7	2	SIC	175	RC	0	1	23RO	1	0	5.314671993	506	75	504	69	1
1.7	2015_Jul_28_1026	s	s	7	2	SIC	176	RC	2	0	23VC	1	0	0.988617897	206	-287	207	-284	1
1.7	2015_Jul_28_1026	s	s	7	2	SIC	177	ABS	2	0	24VC	0	1	0.693814039	None	None	None	None	1
1.7	2015_Jul_28_1026	s	s	7	2	SIC	178	ABS	2	1	24VO	0	1	1.689389944	None	None	None	None	1
1.7	2015_Jul_28_1026	s	s	7	2	SIC	179	RC	1	0	23MC	1	0	0.858589888	60	145	58	141	1
1.7	2015_Jul_28_1026	s	s	7	2	SIC	180	ABS	1	0	24MC	0	1	2.985481024	None	None	None	None	1
1.7	2015_Jul_28_1026	s	s	7	2	SIC	181	RC	2	0	23VC	1	0	0.641887903	-342	113	-334	114	1
1.7	2015_Jul_28_1026	s	s	7	2	SIC	182	RC	0	1	23RO	1	0	2.247547865	361	-97	358	-97	1
1.7	2015_Jul_28_1026	s	s	7	2	SIC	183	ABS	0	1	24RO	0	1	4.648691177	None	None	None	None	1
1.7	2015_Jul_28_1026	s	s	7	2	SIC	184	ABS	1	2	24MD	0	1	1.188369989	None	None	None	None	1
1.7	2015_Jul_28_1026	s	s	7	2	SIC	185	RC	2	2	23VD	1	0	0.623217106	339	-51	330	-54	1
1.7	2015_Jul_28_1026	s	s	7	2	SIC	186	ABS	1	1	24MO	0	1	4.895969153	None	None	None	None	1
1.7	2015_Jul_28_1026	s	s	7	2	SIC	187	ABS	2	2	24VD	0	1	0.788317204	None	None	None	None	1
1.7	2015_Jul_28_1026	s	s	7	2	SIC	188	RC	2	1	23VO	1	0	0.724087	-39	-358	-44	-355	1
1.7	2015_Jul_28_1026	s	s	7	2	SIC	189	RC	1	2	23MD	1	0	0.952778101	471	-187	482	-178	1
1.7	2015_Jul_28_1026	s	s	7	2	SIC	190	RC	0	2	23RD	1	0	0.587948084	310	87	313	94	1
1.7	2015_Jul_28_1026	s	s	7	2	SIC	191	ABS	0	2	24RD	0	1	1.371459961	None	None	None	None	1
1.7	2015_Jul_28_1026	s	s	7	2	SIC	192	RC	1	1	23MO	0	1	0.046272993	-27	-317	None	None	0
1.7	2015_Jul_28_1026	s	s	7	2	SIC	193	ABS	2	1	24VO	0	1	1.300765991	None	None	None	None	1
1.7	2015_Jul_28_1026	s	s	7	2	SIC	194	RC	2	2	23VD	1	0	0.552798986	286	-223	288	-218	1
1.7	2015_Jul_28_1026	s	s	7	2	SIC	195	RC	1	0	23MC	1	0	1.694324017	451	-150	452	-152	1
1.7	2015_Jul_28_1026	s	s	7	2	SIC	196	ABS	0	2	24RD	0	1	1.877620935	None	None	None	None	1
1.7	2015_Jul_28_1026	s	s	7	2	SIC	197	RC	1	1	23MO	1	0	2.039245129	-393	171	-400	172	1
1.7	2015_Jul_28_1026	s	s	7	2	SIC	198	ABS	1	0	24MC	0	1	3.186681986	None	None	None	None	1
1.7	2015_Jul_28_1026	s	s	7	2	SIC	199	ABS	0	1	24RO	0	1	4.561105013	None	None	None	None	1
1.7	2015_Jul_28_1026	s	s	7	2	SIC	200	RC	2	0	23VC	1	0	1.206818819	-169	359	-169	356	1
1.7	2015_Jul_28_1026	s	s	7	2	SIC	201	RC	0	1	23RO	1	0	2.138072014	-390	376	-387	381	1
1.7	2015_Jul_28_1026	s	s	7	2	SIC	202	ABS	1	1	24MO	0	1	2.867977142	None	None	None	None	1
1.7	2015_Jul_28_1026	s	s	7	2	SIC	203	ABS	1	2	24MD	0	1	0.936048985	None	None	None	None	1
1.7	2015_Jul_28_1026	s	s	7	2	SIC	204	RC	0	2	23RD	1	0	0.952728033	318	330	313	327	1
1.7	2015_Jul_28_1026	s	s	7	2	SIC	205	RC	1	2	23MD	1	0	0.710969925	127	-36	130	-34	1
1.7	2015_Jul_28_1026	s	s	7	2	SIC	206	ABS	2	2	24VD	0	1	0.772456169	None	None	None	None	1
1.7	2015_Jul_28_1026	s	s	7	2	SIC	207	ABS	2	0	24VC	0	1	1.094061852	None	None	None	None	1
1.7	2015_Jul_28_1026	s	s	7	2	SIC	208	RC	2	1	23VO	1	0	1.147819996	-99	-28	-93	-30	1
1.7	2015_Jul_28_1026	s	s	7	2	SIC	209	RC	1	1	23MO	1	0	0.771703005	-176	119	-182	113	1
1.7	2015_Jul_28_1026	s	s	7	2	SIC	210	ABS	2	2	24VD	0	1	1.176372051	None	None	None	None	1
1.7	2015_Jul_28_1026	s	s	7	2	SIC	211	RC	2	0	23VC	1	0	0.771382093	-504	-80	-515	-79	1
1.7	2015_Jul_28_1026	s	s	7	2	SIC	212	RC	0	2	23RD	1	0	0.711982012	114	273	110	275	1
1.7	2015_Jul_28_1026	s	s	7	2	SIC	213	RC	2	1	23VO	1	0	0.57609582	-44	206	-45	204	1
1.7	2015_Jul_28_1026	s	s	7	2	SIC	214	ABS	2	0	24VC	0	1	1.282351971	None	None	None	None	1
1.7	2015_Jul_28_1026	s	s	7	2	SIC	215	RC	1	2	23MD	1	0	0.994848013	-341	-387	-343	-386	1
1.7	2015_Jul_28_1026	s	s	7	2	SIC	216	ABS	2	1	24VO	0	1	1.15286994	None	None	None	None	1
1.7	2015_Jul_28_1026	s	s	7	2	SIC	217	ABS	1	0	24MC	0	1	2.601029158	None	None	None	None	1
1.7	2015_Jul_28_1026	s	s	7	2	SIC	218	ABS	1	2	24MD	0	1	1.1764009	None	None	None	None	1
1.7	2015_Jul_28_1026	s	s	7	2	SIC	219	ABS	0	2	24RD	0	1	1.124943972	None	None	None	None	1
1.7	2015_Jul_28_1026	s	s	7	2	SIC	220	ABS	1	1	24MO	0	1	2.891227961	None	None	None	None	1
1.7	2015_Jul_28_1026	s	s	7	2	SIC	221	ABS	0	1	24RO	0	1	4.549705982	None	None	None	None	1
1.7	2015_Jul_28_1026	s	s	7	2	SIC	222	RC	0	1	23RO	1	0	1.065625906	-206	153	-207	156	1
1.7	2015_Jul_28_1026	s	s	7	2	SIC	223	RC	1	0	23MC	1	0	0.87947607	-259	-14	-264	-9	1
1.7	2015_Jul_28_1026	s	s	7	2	SIC	224	RC	2	2	23VD	1	0	0.655796051	-449	-300	-454	-299	1
1.7	2015_Jul_28_1026	s	s	7	2	SIC	225	RC	0	2	23RD	1	0	0.500461102	-169	33	-168	37	1
1.7	2015_Jul_28_1026	s	s	7	2	SIC	226	ABS	0	2	24RD	0	1	0.952686071	None	None	None	None	1
1.7	2015_Jul_28_1026	s	s	7	2	SIC	227	ABS	1	2	24MD	0	1	1.223533154	None	None	None	None	1
1.7	2015_Jul_28_1026	s	s	7	2	SIC	228	ABS	1	1	24MO	0	1	2.777369976	None	None	None	None	1
1.7	2015_Jul_28_1026	s	s	7	2	SIC	229	ABS	1	0	24MC	0	1	2.41915822	None	None	None	None	1
1.7	2015_Jul_28_1026	s	s	7	2	SIC	230	RC	2	1	23VO	1	0	0.682028055	-122	-352	-119	-354	1
1.7	2015_Jul_28_1026	s	s	7	2	SIC	231	RC	2	2	23VD	1	0	0.693822146	-530	3	-526	5	1
1.7	2015_Jul_28_1026	s	s	7	2	SIC	232	ABS	2	1	24VO	0	1	0.858612061	None	None	None	None	1
1.7	2015_Jul_28_1026	s	s	7	2	SIC	233	RC	0	1	23RO	0	1	3.878821135	-459	41	None	None	0
1.7	2015_Jul_28_1026	s	s	7	2	SIC	234	ABS	2	0	24VC	0	1	0.682049036	None	None	None	None	1
1.7	2015_Jul_28_1026	s	s	7	2	SIC	235	ABS	2	2	24VD	0	1	1.211805105	None	None	None	None	1
1.7	2015_Jul_28_1026	s	s	7	2	SIC	236	RC	1	0	23MC	1	0	1.35285306	-351	221	-356	222	1
1.7	2015_Jul_28_1026	s	s	7	2	SIC	237	RC	1	2	23MD	1	0	0.67941618	-218	-292	-223	-299	1
1.7	2015_Jul_28_1026	s	s	7	2	SIC	238	ABS	0	1	24RO	0	1	3.565849066	None	None	None	None	1
1.7	2015_Jul_28_1026	s	s	7	2	SIC	239	RC	1	1	23MO	1	0	1.388329983	-440	343	-432	345	1
1.7	2015_Jul_28_1026	s	s	7	2	SIC	240	RC	2	0	23VC	1	0	0.600126028	-312	194	-319	193	1
1.7	2015_Jul_28_1026	s	s	7	2	SIC	241	ABS	1	2	24MD	0	1	0.787808895	None	None	None	None	1
1.7	2015_Jul_28_1026	s	s	7	2	SIC	242	ABS	2	2	24VD	0	1	0.585175991	None	None	None	None	1
1.7	2015_Jul_28_1026	s	s	7	2	SIC	243	ABS	0	2	24RD	0	1	1.023409128	None	None	None	None	1
1.7	2015_Jul_28_1026	s	s	7	2	SIC	244	ABS	2	0	24VC	0	1	0.811446905	None	None	None	None	1
1.7	2015_Jul_28_1026	s	s	7	2	SIC	245	RC	1	0	23MC	1	0	2.666265011	-372	-385	-368	-390	1
1.7	2015_Jul_28_1026	s	s	7	2	SIC	246	RC	2	0	23VC	1	0	0.606377125	135	-295	136	-291	1
1.7	2015_Jul_28_1026	s	s	7	2	SIC	247	ABS	1	0	24MC	0	1	2.032105923	None	None	None	None	1
1.7	2015_Jul_28_1026	s	s	7	2	SIC	248	RC	1	1	23MO	1	0	1.082287073	-435	-264	-432	-258	1
1.7	2015_Jul_28_1026	s	s	7	2	SIC	249	RC	0	1	23RO	1	0	1.079818964	222	-238	220	-240	1
1.7	2015_Jul_28_1026	s	s	7	2	SIC	250	RC	2	2	23VD	1	0	0.615993977	-469	367	-463	363	1
1.7	2015_Jul_28_1026	s	s	7	2	SIC	251	RC	2	1	23VO	1	0	0.611408949	-277	-188	-273	-185	1
1.7	2015_Jul_28_1026	s	s	7	2	SIC	252	RC	0	2	23RD	1	0	0.524270058	0	105	8	100	1
1.7	2015_Jul_28_1026	s	s	7	2	SIC	253	ABS	2	1	24VO	0	1	0.846887112	None	None	None	None	1
1.7	2015_Jul_28_1026	s	s	7	2	SIC	254	ABS	1	1	24MO	0	1	2.565405846	None	None	None	None	1
1.7	2015_Jul_28_1026	s	s	7	2	SIC	255	RC	1	2	23MD	1	0	1.329876185	78	-244	77	-237	1
1.7	2015_Jul_28_1026	s	s	7	2	SIC	256	ABS	0	1	24RO	0	1	5.119608879	None	None	None	None	1
1.7	2015_Jul_28_1026	s	s	7	2	SIC	257	RC	1	0	23MC	1	0	0.835138083	-239	-304	-242	-299	1
1.7	2015_Jul_28_1026	s	s	7	2	SIC	258	ABS	2	0	24VC	0	1	0.793767214	None	None	None	None	1
1.7	2015_Jul_28_1026	s	s	7	2	SIC	259	RC	2	0	23VC	1	0	0.764451027	-272	218	-270	222	1
1.7	2015_Jul_28_1026	s	s	7	2	SIC	260	RC	1	1	23MO	1	0	1.290420055	-537	72	-534	71	1
1.7	2015_Jul_28_1026	s	s	7	2	SIC	261	ABS	2	2	24VD	0	1	0.811481953	None	None	None	None	1
1.7	2015_Jul_28_1026	s	s	7	2	SIC	262	RC	0	2	23RD	1	0	0.761543989	-461	8	-460	0	1
1.7	2015_Jul_28_1026	s	s	7	2	SIC	263	ABS	1	0	24MC	0	1	2.18623209	None	None	None	None	1
1.7	2015_Jul_28_1026	s	s	7	2	SIC	264	ABS	1	2	24MD	0	1	1.953254938	None	None	None	None	1
1.7	2015_Jul_28_1026	s	s	7	2	SIC	265	ABS	1	1	24MO	0	1	2.659796	None	None	None	None	1
1.7	2015_Jul_28_1026	s	s	7	2	SIC	266	RC	2	2	23VD	1	0	0.725006104	453	104	461	109	1
1.7	2015_Jul_28_1026	s	s	7	2	SIC	267	ABS	2	1	24VO	0	1	0.823340178	None	None	None	None	1
1.7	2015_Jul_28_1026	s	s	7	2	SIC	268	ABS	0	2	24RD	0	1	1.582965136	None	None	None	None	1
1.7	2015_Jul_28_1026	s	s	7	2	SIC	269	RC	2	1	23VO	1	0	0.738138199	-28	-279	-28	-271	1
1.7	2015_Jul_28_1026	s	s	7	2	SIC	270	RC	1	2	23MD	1	0	0.57613802	-387	-178	-389	-184	1
1.7	2015_Jul_28_1026	s	s	7	2	SIC	271	ABS	0	1	24RO	0	1	4.292192936	None	None	None	None	1
1.7	2015_Jul_28_1026	s	s	7	2	SIC	272	RC	0	1	23RO	1	0	2.019143105	-509	-138	-506	-138	1
1.7	2015_Jul_28_1026	s	s	7	2	SIC	273	RC	1	0	23MC	0	1	1.623703003	-469	-339	None	None	0
1.7	2015_Jul_28_1026	s	s	7	2	SIC	274	ABS	1	1	24MO	0	1	3.068876982	None	None	None	None	1
1.7	2015_Jul_28_1026	s	s	7	2	SIC	275	ABS	0	1	24RO	0	1	4.881464958	None	None	None	None	1
1.7	2015_Jul_28_1026	s	s	7	2	SIC	276	ABS	2	0	24VC	0	1	0.961615086	None	None	None	None	1
1.7	2015_Jul_28_1026	s	s	7	2	SIC	277	ABS	2	1	24VO	0	1	0.69383502	None	None	None	None	1
1.7	2015_Jul_28_1026	s	s	7	2	SIC	278	RC	2	2	23VD	1	0	0.818706989	-491	-408	-487	-405	1
1.7	2015_Jul_28_1026	s	s	7	2	SIC	279	ABS	0	2	24RD	0	1	2.136141062	None	None	None	None	1
1.7	2015_Jul_28_1026	s	s	7	2	SIC	280	ABS	2	2	24VD	0	1	0.705595017	None	None	None	None	1
1.7	2015_Jul_28_1026	s	s	7	2	SIC	281	ABS	1	2	24MD	0	1	0.855854988	None	None	None	None	1
1.7	2015_Jul_28_1026	s	s	7	2	SIC	282	RC	2	0	23VC	1	0	0.734879017	-338	-175	-335	-178	1
1.7	2015_Jul_28_1026	s	s	7	2	SIC	283	ABS	1	0	24MC	0	1	2.326828957	None	None	None	None	1
1.7	2015_Jul_28_1026	s	s	7	2	SIC	284	RC	0	2	23RD	1	0	0.835119009	268	-156	266	-156	1
1.7	2015_Jul_28_1026	s	s	7	2	SIC	285	RC	2	1	23VO	1	0	0.631856918	-152	-57	-155	-57	1
1.7	2015_Jul_28_1026	s	s	7	2	SIC	286	RC	1	1	23MO	1	0	0.917490006	-351	-16	-362	-10	1
1.7	2015_Jul_28_1026	s	s	7	2	SIC	287	RC	0	1	23RO	0	1	4.507571936	-133	-359	None	None	0
1.7	2015_Jul_28_1026	s	s	7	2	SIC	288	RC	1	2	23MD	1	0	0.607737064	5	-201	9	-195	1
1.7	2015_Jul_28_1026	s	s	7	2	SIC	289	RC	0	2	23RD	1	0	0.665269852	383	247	385	246	1
1.7	2015_Jul_28_1026	s	s	7	2	SIC	290	RC	1	2	23MD	1	0	0.846913099	-454	312	-451	315	1
1.7	2015_Jul_28_1026	s	s	7	2	SIC	291	ABS	0	2	24RD	0	1	1.376521111	None	None	None	None	1
1.7	2015_Jul_28_1026	s	s	7	2	SIC	292	ABS	1	1	24MO	0	1	1.90002799	None	None	None	None	1
1.7	2015_Jul_28_1026	s	s	7	2	SIC	293	RC	2	0	23VC	1	0	0.782356024	-239	84	-240	85	1
1.7	2015_Jul_28_1026	s	s	7	2	SIC	294	ABS	1	0	24MC	0	1	4.342678785	None	None	None	None	1
1.7	2015_Jul_28_1026	s	s	7	2	SIC	295	ABS	2	2	24VD	0	1	0.688919067	None	None	None	None	1
1.7	2015_Jul_28_1026	s	s	7	2	SIC	296	RC	2	2	23VD	1	0	0.794723988	322	294	315	300	1
1.7	2015_Jul_28_1026	s	s	7	2	SIC	297	ABS	2	1	24VO	0	1	1.266111136	None	None	None	None	1
1.7	2015_Jul_28_1026	s	s	7	2	SIC	298	RC	1	0	23MC	0	1	1.737821102	507	-140	None	None	0
1.7	2015_Jul_28_1026	s	s	7	2	SIC	299	ABS	1	2	24MD	0	1	1.182991028	None	None	None	None	1
1.7	2015_Jul_28_1026	s	s	7	2	SIC	300	RC	1	1	23MO	1	0	0.98299408	-99	118	-101	110	1
1.7	2015_Jul_28_1026	s	s	7	2	SIC	301	RC	2	1	23VO	1	0	0.794790983	201	-78	203	-78	1
1.7	2015_Jul_28_1026	s	s	7	2	SIC	302	ABS	2	0	24VC	0	1	0.924193144	None	None	None	None	1
1.7	2015_Jul_28_1026	s	s	7	2	SIC	303	RC	0	1	23RO	1	0	3.819165945	435	117	438	118	1
1.7	2015_Jul_28_1026	s	s	7	2	SIC	304	ABS	0	1	24RO	0	1	3.593038082	None	None	None	None	1
1.7	2015_Jul_28_1026	s	s	7	2	SIC	305	ABS	0	1	24RO	0	1	4.373188019	None	None	None	None	1
1.7	2015_Jul_28_1026	s	s	7	2	SIC	306	RC	1	1	23MO	1	0	0.867058992	64	-3	70	-4	1
1.7	2015_Jul_28_1026	s	s	7	2	SIC	307	RC	1	2	23MD	1	0	0.712174892	-473	54	-482	50	1
1.7	2015_Jul_28_1026	s	s	7	2	SIC	308	RC	1	0	23MC	1	0	0.811637878	-124	113	-117	123	1
1.7	2015_Jul_28_1026	s	s	7	2	SIC	309	RC	2	2	23VD	1	0	0.582967997	180	-334	176	-331	1
1.7	2015_Jul_28_1026	s	s	7	2	SIC	310	ABS	1	0	24MC	0	1	2.53666997	None	None	None	None	1
1.7	2015_Jul_28_1026	s	s	7	2	SIC	311	ABS	1	2	24MD	0	1	0.893906117	None	None	None	None	1
1.7	2015_Jul_28_1026	s	s	7	2	SIC	312	ABS	2	0	24VC	0	1	1.135863066	None	None	None	None	1
1.7	2015_Jul_28_1026	s	s	7	2	SIC	313	ABS	1	1	24MO	0	1	2.091477156	None	None	None	None	1
1.7	2015_Jul_28_1026	s	s	7	2	SIC	314	RC	2	0	23VC	1	0	0.646752119	-200	-148	-202	-145	1
1.7	2015_Jul_28_1026	s	s	7	2	SIC	315	RC	0	1	23RO	0	1	4.107312918	-525	-154	None	None	0
1.7	2015_Jul_28_1026	s	s	7	2	SIC	316	ABS	0	2	24RD	0	1	0.985598087	None	None	None	None	1
1.7	2015_Jul_28_1026	s	s	7	2	SIC	317	ABS	2	1	24VO	0	1	0.682100058	None	None	None	None	1
1.7	2015_Jul_28_1026	s	s	7	2	SIC	318	ABS	2	2	24VD	0	1	0.500215054	None	None	None	None	1
1.7	2015_Jul_28_1026	s	s	7	2	SIC	319	RC	2	1	23VO	1	0	0.956459999	325	326	327	332	1
1.7	2015_Jul_28_1026	s	s	7	2	SIC	320	RC	0	2	23RD	1	0	0.582853079	62	-21	62	-18	1
1.7	2015_Jul_28_1026	s	s	7	2	SIC	321	RC	2	1	23VO	1	0	0.561033011	-320	-128	-317	-121	1
1.7	2015_Jul_28_1026	s	s	7	2	SIC	322	RC	2	0	23VC	1	0	0.729042053	351	-320	353	-317	1
1.7	2015_Jul_28_1026	s	s	7	2	SIC	323	RC	1	1	23MO	1	0	0.599596977	-151	-137	-157	-136	1
1.7	2015_Jul_28_1026	s	s	7	2	SIC	324	RC	1	0	23MC	1	0	1.275913	-70	-228	-75	-227	1
1.7	2015_Jul_28_1026	s	s	7	2	SIC	325	ABS	1	2	24MD	0	1	0.71735096	None	None	None	None	1
1.7	2015_Jul_28_1026	s	s	7	2	SIC	326	RC	0	1	23RO	1	0	3.247977972	352	179	358	185	1
1.7	2015_Jul_28_1026	s	s	7	2	SIC	327	ABS	2	2	24VD	0	1	0.776162148	None	None	None	None	1
1.7	2015_Jul_28_1026	s	s	7	2	SIC	328	RC	0	2	23RD	1	0	0.911834002	482	285	489	287	1
1.7	2015_Jul_28_1026	s	s	7	2	SIC	329	ABS	0	2	24RD	0	1	1.4707129	None	None	None	None	1
1.7	2015_Jul_28_1026	s	s	7	2	SIC	330	RC	2	2	23VD	1	0	0.830075979	469	387	462	391	1
1.7	2015_Jul_28_1026	s	s	7	2	SIC	331	ABS	2	0	24VC	0	1	0.759356022	None	None	None	None	1
1.7	2015_Jul_28_1026	s	s	7	2	SIC	332	RC	1	2	23MD	1	0	1.006971836	-444	400	-448	400	1
1.7	2015_Jul_28_1026	s	s	7	2	SIC	333	ABS	2	1	24VO	0	1	0.882086992	None	None	None	None	1
1.7	2015_Jul_28_1026	s	s	7	2	SIC	334	ABS	1	1	24MO	0	1	4.443768024	None	None	None	None	1
1.7	2015_Jul_28_1026	s	s	7	2	SIC	335	ABS	0	1	24RO	0	1	4.314272165	None	None	None	None	1
1.7	2015_Jul_28_1026	s	s	7	2	SIC	336	ABS	1	0	24MC	0	1	3.410363913	None	None	None	None	1
1.7	2015_Jul_28_1026	s	s	7	2	SIC	337	RC	2	1	23VO	1	0	1.041643143	-431	-306	-437	-305	1
1.7	2015_Jul_28_1026	s	s	7	2	SIC	338	RC	1	2	23MD	1	0	0.608665943	-352	-237	-355	-229	1
1.7	2015_Jul_28_1026	s	s	7	2	SIC	339	ABS	0	1	24RO	0	1	4.287510872	None	None	None	None	1
1.7	2015_Jul_28_1026	s	s	7	2	SIC	340	RC	2	0	23VC	1	0	0.670305014	-101	-218	-97	-213	1
1.7	2015_Jul_28_1026	s	s	7	2	SIC	341	ABS	2	0	24VC	0	1	0.900739908	None	None	None	None	1
1.7	2015_Jul_28_1026	s	s	7	2	SIC	342	ABS	1	1	24MO	0	1	6.962622881	None	None	None	None	1
1.7	2015_Jul_28_1026	s	s	7	2	SIC	343	RC	1	1	23MO	1	0	1.094033957	-76	-152	-82	-143	1
1.7	2015_Jul_28_1026	s	s	7	2	SIC	344	ABS	2	1	24VO	0	1	0.805104017	None	None	None	None	1
1.7	2015_Jul_28_1026	s	s	7	2	SIC	345	ABS	2	2	24VD	0	1	0.858614922	None	None	None	None	1
1.7	2015_Jul_28_1026	s	s	7	2	SIC	346	RC	0	1	23RO	1	0	1.821154833	-522	348	-518	345	1
1.7	2015_Jul_28_1026	s	s	7	2	SIC	347	ABS	1	0	24MC	0	1	2.879729033	None	None	None	None	1
1.7	2015_Jul_28_1026	s	s	7	2	SIC	348	ABS	0	2	24RD	0	1	1.229456186	None	None	None	None	1
1.7	2015_Jul_28_1026	s	s	7	2	SIC	349	RC	1	0	23MC	1	0	2.008805037	-501	56	-504	57	1
1.7	2015_Jul_28_1026	s	s	7	2	SIC	350	ABS	1	2	24MD	0	1	0.799724102	None	None	None	None	1
1.7	2015_Jul_28_1026	s	s	7	2	SIC	351	RC	0	2	23RD	1	0	0.888933897	122	204	115	201	1
1.7	2015_Jul_28_1026	s	s	7	2	SIC	352	RC	2	2	23VD	1	0	0.688931942	493	-55	491	-55	1
1.7	2015_Jul_28_1026	s	s	7	2	SIC	353	RC	2	0	23VC	1	0	0.65851903	-404	299	-407	297	1
1.7	2015_Jul_28_1026	s	s	7	2	SIC	354	RC	1	2	23MD	1	0	0.540898085	32	339	29	339	1
1.7	2015_Jul_28_1026	s	s	7	2	SIC	355	ABS	2	1	24VO	0	1	1.117618084	None	None	None	None	1
1.7	2015_Jul_28_1026	s	s	7	2	SIC	356	RC	2	1	23VO	1	0	0.817476988	8	73	8	73	1
1.7	2015_Jul_28_1026	s	s	7	2	SIC	357	RC	0	2	23RD	1	0	0.799767971	175	395	177	399	1
1.7	2015_Jul_28_1026	s	s	7	2	SIC	358	ABS	0	1	24RO	0	1	3.754123926	None	None	None	None	1
1.7	2015_Jul_28_1026	s	s	7	2	SIC	359	ABS	0	2	24RD	0	1	1.241333008	None	None	None	None	1
1.7	2015_Jul_28_1026	s	s	7	2	SIC	360	ABS	1	2	24MD	0	1	4.537731171	None	None	None	None	1
1.7	2015_Jul_28_1026	s	s	7	2	SIC	361	RC	2	2	23VD	1	0	11.91721988	361	-92	364	-95	1
1.7	2015_Jul_28_1026	s	s	7	2	SIC	362	ABS	2	0	24VC	0	1	0.890175104	None	None	None	None	1
1.7	2015_Jul_28_1026	s	s	7	2	SIC	363	RC	1	1	23MO	1	0	1.136256933	-53	-251	-59	-251	1
1.7	2015_Jul_28_1026	s	s	7	2	SIC	364	RC	0	1	23RO	1	0	1.733293057	-43	278	-43	276	1
1.7	2015_Jul_28_1026	s	s	7	2	SIC	365	ABS	1	1	24MO	0	1	3.507061958	None	None	None	None	1
1.7	2015_Jul_28_1026	s	s	7	2	SIC	366	ABS	1	0	24MC	0	1	2.07100296	None	None	None	None	1
1.7	2015_Jul_28_1026	s	s	7	2	SIC	367	ABS	2	2	24VD	0	1	0.702264071	None	None	None	None	1
1.7	2015_Jul_28_1026	s	s	7	2	SIC	368	RC	1	0	23MC	1	0	1.482500076	-177	198	-174	197	1
1.7	2015_Jul_28_1026	s	s	7	2	SIC	369	ABS	2	0	24VC	0	1	0.947622061	None	None	None	None	1
1.7	2015_Jul_28_1026	s	s	7	2	SIC	370	ABS	2	1	24VO	0	1	0.705463886	None	None	None	None	1
1.7	2015_Jul_28_1026	s	s	7	2	SIC	371	ABS	1	1	24MO	0	1	2.565569878	None	None	None	None	1
1.7	2015_Jul_28_1026	s	s	7	2	SIC	372	ABS	1	0	24MC	0	1	2.93930912	None	None	None	None	1
1.7	2015_Jul_28_1026	s	s	7	2	SIC	373	RC	2	1	23VO	1	0	0.634982109	-114	111	-118	113	1
1.7	2015_Jul_28_1026	s	s	7	2	SIC	374	ABS	0	2	24RD	0	1	1.152904034	None	None	None	None	1
1.7	2015_Jul_28_1026	s	s	7	2	SIC	375	RC	1	0	23MC	1	0	1.274281025	-201	10	-206	7	1
1.7	2015_Jul_28_1026	s	s	7	2	SIC	376	ABS	1	2	24MD	0	1	0.783580065	None	None	None	None	1
1.7	2015_Jul_28_1026	s	s	7	2	SIC	377	RC	0	1	23RO	1	0	3.009572029	-481	-262	-482	-261	1
1.7	2015_Jul_28_1026	s	s	7	2	SIC	378	ABS	0	1	24RO	0	1	4.349607945	None	None	None	None	1
1.7	2015_Jul_28_1026	s	s	7	2	SIC	379	RC	0	2	23RD	1	0	0.905653	-116	-347	-120	-348	1
1.7	2015_Jul_28_1026	s	s	7	2	SIC	380	RC	1	1	23MO	1	0	1.423452139	108	-367	110	-364	1
1.7	2015_Jul_28_1026	s	s	7	2	SIC	381	RC	2	0	23VC	1	0	0.799889803	-405	228	-400	229	1
1.7	2015_Jul_28_1026	s	s	7	2	SIC	382	ABS	2	2	24VD	0	1	0.705696106	None	None	None	None	1
1.7	2015_Jul_28_1026	s	s	7	2	SIC	383	RC	1	2	23MD	1	0	0.709208012	169	-214	170	-212	1
1.7	2015_Jul_28_1026	s	s	7	2	SIC	384	RC	2	2	23VD	1	0	0.870373011	439	-98	448	-91	1
1.7	2015_Jul_28_1026	s	s	7	2	SIC	385	RC	2	0	23VC	1	0	0.952721119	-111	191	-113	186	1
1.7	2015_Jul_28_1026	s	s	7	2	SIC	386	RC	0	2	23RD	1	0	0.700739145	-84	105	-88	97	1
1.7	2015_Jul_28_1026	s	s	7	2	SIC	387	ABS	1	2	24MD	0	1	1.158870935	None	None	None	None	1
1.7	2015_Jul_28_1026	s	s	7	2	SIC	388	RC	2	2	23VD	1	0	0.700515986	86	-102	82	-102	1
1.7	2015_Jul_28_1026	s	s	7	2	SIC	389	ABS	2	0	24VC	0	1	0.971353054	None	None	None	None	1
1.7	2015_Jul_28_1026	s	s	7	2	SIC	390	RC	1	2	23MD	1	0	0.835144997	117	-399	124	-395	1
1.7	2015_Jul_28_1026	s	s	7	2	SIC	391	RC	1	0	23MC	1	0	2.906671047	97	271	92	273	1
1.7	2015_Jul_28_1026	s	s	7	2	SIC	392	ABS	0	1	24RO	0	1	4.60157299	None	None	None	None	1
1.7	2015_Jul_28_1026	s	s	7	2	SIC	393	ABS	1	0	24MC	0	1	1.982986927	None	None	None	None	1
1.7	2015_Jul_28_1026	s	s	7	2	SIC	394	ABS	1	1	24MO	0	1	3.645531893	None	None	None	None	1
1.7	2015_Jul_28_1026	s	s	7	2	SIC	395	RC	0	1	23RO	1	0	1.418589115	344	-110	345	-105	1
1.7	2015_Jul_28_1026	s	s	7	2	SIC	396	RC	2	1	23VO	1	0	0.665399075	408	244	417	249	1
1.7	2015_Jul_28_1026	s	s	7	2	SIC	397	ABS	2	2	24VD	0	1	0.95283103	None	None	None	None	1
1.7	2015_Jul_28_1026	s	s	7	2	SIC	398	ABS	0	2	24RD	0	1	1.641722918	None	None	None	None	1
1.7	2015_Jul_28_1026	s	s	7	2	SIC	399	ABS	2	1	24VO	0	1	0.714659929	None	None	None	None	1
1.7	2015_Jul_28_1026	s	s	7	2	SIC	400	RC	1	1	23MO	1	0	1.395119906	-344	-323	-344	-323	1
1.7	2015_Jul_28_1026	s	s	7	2	SIC	401	RC	0	2	23RD	1	0	0.653632879	418	21	419	23	1
1.7	2015_Jul_28_1026	s	s	7	2	SIC	402	ABS	1	0	24MC	0	1	2.270890951	None	None	None	None	1
1.7	2015_Jul_28_1026	s	s	7	2	SIC	403	ABS	1	2	24MD	0	1	0.985343933	None	None	None	None	1
1.7	2015_Jul_28_1026	s	s	7	2	SIC	404	RC	1	1	23MO	1	0	1.915019035	-269	250	-266	251	1
1.7	2015_Jul_28_1026	s	s	7	2	SIC	405	ABS	0	1	24RO	0	1	3.760279894	None	None	None	None	1
1.7	2015_Jul_28_1026	s	s	7	2	SIC	406	RC	2	2	23VD	1	0	0.641191006	-374	139	-379	138	1
1.7	2015_Jul_28_1026	s	s	7	2	SIC	407	RC	0	1	23RO	1	0	3.96084404	-189	119	-189	120	1
1.7	2015_Jul_28_1026	s	s	7	2	SIC	408	RC	2	1	23VO	1	0	0.552584887	16	-109	18	-104	1
1.7	2015_Jul_28_1026	s	s	7	2	SIC	409	RC	1	2	23MD	1	0	0.670190811	510	262	513	264	1
1.7	2015_Jul_28_1026	s	s	7	2	SIC	410	ABS	2	2	24VD	0	1	0.85865283	None	None	None	None	1
1.7	2015_Jul_28_1026	s	s	7	2	SIC	411	ABS	1	1	24MO	0	1	2.894880772	None	None	None	None	1
1.7	2015_Jul_28_1026	s	s	7	2	SIC	412	ABS	2	0	24VC	0	1	0.929308176	None	None	None	None	1
1.7	2015_Jul_28_1026	s	s	7	2	SIC	413	RC	2	0	23VC	1	0	0.770976067	206	-210	204	-201	1
1.7	2015_Jul_28_1026	s	s	7	2	SIC	414	RC	1	0	23MC	1	0	9.137080908	-436	395	-437	399	1
1.7	2015_Jul_28_1026	s	s	7	2	SIC	415	ABS	0	2	24RD	0	1	1.341202021	None	None	None	None	1
1.7	2015_Jul_28_1026	s	s	7	2	SIC	416	ABS	2	1	24VO	0	1	0.712319851	None	None	None	None	1
1.7	2015_Jul_28_1026	s	s	7	2	SIC	417	RC	0	2	23RD	1	0	0.700258017	-37	-34	-29	-30	1
1.7	2015_Jul_28_1026	s	s	7	2	SIC	418	ABS	1	2	24MD	0	1	0.808740139	None	None	None	None	1
1.7	2015_Jul_28_1026	s	s	7	2	SIC	419	ABS	0	1	24RO	0	1	3.448143005	None	None	None	None	1
1.7	2015_Jul_28_1026	s	s	7	2	SIC	420	ABS	0	2	24RD	0	1	0.929297924	None	None	None	None	1
1.7	2015_Jul_28_1026	s	s	7	2	SIC	421	ABS	2	1	24VO	0	1	0.605698109	None	None	None	None	1
1.7	2015_Jul_28_1026	s	s	7	2	SIC	422	RC	1	0	23MC	1	0	3.495229006	208	214	211	223	1
1.7	2015_Jul_28_1026	s	s	7	2	SIC	423	ABS	1	0	24MC	0	1	1.929779053	None	None	None	None	1
1.7	2015_Jul_28_1026	s	s	7	2	SIC	424	RC	1	2	23MD	1	0	1.058775902	-503	-329	-501	-332	1
1.7	2015_Jul_28_1026	s	s	7	2	SIC	425	RC	2	0	23VC	1	0	0.665067911	-418	409	-417	415	1
1.7	2015_Jul_28_1026	s	s	7	2	SIC	426	ABS	2	0	24VC	0	1	0.723877907	None	None	None	None	1
1.7	2015_Jul_28_1026	s	s	7	2	SIC	427	RC	0	1	23RO	1	0	4.043390036	179	300	183	302	1
1.7	2015_Jul_28_1026	s	s	7	2	SIC	428	RC	2	1	23VO	1	0	0.771164894	359	172	360	172	1
1.7	2015_Jul_28_1026	s	s	7	2	SIC	429	ABS	2	2	24VD	0	1	0.705584049	None	None	None	None	1
1.7	2015_Jul_28_1026	s	s	7	2	SIC	430	RC	2	2	23VD	1	0	0.676885843	215	327	217	327	1
1.7	2015_Jul_28_1026	s	s	7	2	SIC	431	ABS	1	1	24MO	0	1	4.526154995	None	None	None	None	1
1.7	2015_Jul_28_1026	s	s	7	2	SIC	432	RC	1	1	23MO	1	0	1.14114213	25	344	31	349	1
1.7	2015_Jul_28_1026	s	s	7	2	SIC	433	ABS	1	1	24MO	0	1	4.637053967	None	None	None	None	1
1.7	2015_Jul_28_1026	s	s	7	2	SIC	434	ABS	2	2	24VD	0	1	0.700681925	None	None	None	None	1
1.7	2015_Jul_28_1026	s	s	7	2	SIC	435	ABS	1	0	24MC	0	1	6.268764019	None	None	None	None	1
1.7	2015_Jul_28_1026	s	s	7	2	SIC	436	RC	2	2	23VD	1	0	0.799742937	5	275	6	278	1
1.7	2015_Jul_28_1026	s	s	7	2	SIC	437	ABS	2	0	24VC	0	1	0.712310076	None	None	None	None	1
1.7	2015_Jul_28_1026	s	s	7	2	SIC	438	ABS	1	2	24MD	0	1	0.811496973	None	None	None	None	1
1.7	2015_Jul_28_1026	s	s	7	2	SIC	439	ABS	0	1	24RO	0	1	4.690913916	None	None	None	None	1
1.7	2015_Jul_28_1026	s	s	7	2	SIC	440	RC	0	1	23RO	1	0	2.833342075	218	81	212	84	1
1.7	2015_Jul_28_1026	s	s	7	2	SIC	441	RC	0	2	23RD	1	0	0.629753828	290	-178	292	-177	1
1.7	2015_Jul_28_1026	s	s	7	2	SIC	442	RC	2	1	23VO	1	0	0.647181034	270	-391	269	-396	1
1.7	2015_Jul_28_1026	s	s	7	2	SIC	443	ABS	0	2	24RD	0	1	1.294138908	None	None	None	None	1
1.7	2015_Jul_28_1026	s	s	7	2	SIC	444	ABS	2	1	24VO	0	1	0.750021935	None	None	None	None	1
1.7	2015_Jul_28_1026	s	s	7	2	SIC	445	RC	2	0	23VC	1	0	0.941040039	471	15	469	19	1
1.7	2015_Jul_28_1026	s	s	7	2	SIC	446	RC	1	2	23MD	1	0	0.606414795	-117	-117	-119	-116	1
1.7	2015_Jul_28_1026	s	s	7	2	SIC	447	RC	1	0	23MC	1	0	6.209192038	-86	-209	-94	-203	1
1.7	2015_Jul_28_1026	s	s	7	2	SIC	448	RC	1	1	23MO	1	0	0.717388868	-371	-207	-367	-208	1
1.7	2015_Jul_28_1026	s	s	7	2	SIC	449	ABS	2	0	24VC	0	1	0.797094822	None	None	None	None	1
1.7	2015_Jul_28_1026	s	s	7	2	SIC	450	ABS	2	1	24VO	0	1	0.929116011	None	None	None	None	1
1.7	2015_Jul_28_1026	s	s	7	2	SIC	451	RC	1	1	23MO	1	0	0.841906071	-285	216	-285	215	1
1.7	2015_Jul_28_1026	s	s	7	2	SIC	452	RC	1	0	23MC	1	0	1.548183918	297	342	295	343	1
1.7	2015_Jul_28_1026	s	s	7	2	SIC	453	RC	0	2	23RD	1	0	0.646753788	285	-171	291	-168	1
1.7	2015_Jul_28_1026	s	s	7	2	SIC	454	ABS	1	0	24MC	0	1	2.883200884	None	None	None	None	1
1.7	2015_Jul_28_1026	s	s	7	2	SIC	455	ABS	1	1	24MO	0	1	3.560811043	None	None	None	None	1
1.7	2015_Jul_28_1026	s	s	7	2	SIC	456	RC	2	0	23VC	1	0	0.787994146	385	-166	384	-163	1
1.7	2015_Jul_28_1026	s	s	7	2	SIC	457	ABS	2	2	24VD	0	1	0.64679122	None	None	None	None	1
1.7	2015_Jul_28_1026	s	s	7	2	SIC	458	ABS	0	2	24RD	0	1	1.046931982	None	None	None	None	1
1.7	2015_Jul_28_1026	s	s	7	2	SIC	459	RC	2	1	23VO	1	0	0.788012981	534	-188	540	-179	1
1.7	2015_Jul_28_1026	s	s	7	2	SIC	460	ABS	0	1	24RO	0	1	4.303266048	None	None	None	None	1
1.7	2015_Jul_28_1026	s	s	7	2	SIC	461	RC	2	2	23VD	1	0	0.59467411	-445	-320	-445	-326	1
1.7	2015_Jul_28_1026	s	s	7	2	SIC	462	RC	0	1	23RO	1	0	1.352981806	-417	-211	-416	-205	1
1.7	2015_Jul_28_1026	s	s	7	2	SIC	463	RC	1	2	23MD	1	0	0.740897179	-316	42	-316	46	1
1.7	2015_Jul_28_1026	s	s	7	2	SIC	464	ABS	1	2	24MD	0	1	0.787974834	None	None	None	None	1
1.7	2015_Jul_28_1026	s	s	7	2	SIC	465	RC	0	2	23RD	1	0	0.664697886	432	-169	426	-172	1
1.7	2015_Jul_28_1026	s	s	7	2	SIC	466	ABS	1	0	24MC	0	1	3.196439982	None	None	None	None	1
1.7	2015_Jul_28_1026	s	s	7	2	SIC	467	ABS	1	2	24MD	0	1	1.00763011	None	None	None	None	1
1.7	2015_Jul_28_1026	s	s	7	2	SIC	468	RC	2	1	23VO	1	0	0.776259899	362	-362	370	-359	1
1.7	2015_Jul_28_1026	s	s	7	2	SIC	469	RC	0	1	23RO	1	0	1.258841991	-130	37	-130	41	1
1.7	2015_Jul_28_1026	s	s	7	2	SIC	470	ABS	2	2	24VD	0	1	0.905647993	None	None	None	None	1
1.7	2015_Jul_28_1026	s	s	7	2	SIC	471	RC	2	2	23VD	1	0	0.605412006	144	106	145	111	1
1.7	2015_Jul_28_1026	s	s	7	2	SIC	472	ABS	2	1	24VO	0	1	0.870385885	None	None	None	None	1
1.7	2015_Jul_28_1026	s	s	7	2	SIC	473	RC	1	2	23MD	1	0	0.61146903	164	-381	161	-384	1
1.7	2015_Jul_28_1026	s	s	7	2	SIC	474	RC	1	0	23MC	1	0	0.759377003	175	-211	178	-208	1
1.7	2015_Jul_28_1026	s	s	7	2	SIC	475	RC	2	0	23VC	1	0	0.584914208	-205	-356	-209	-361	1
1.7	2015_Jul_28_1026	s	s	7	2	SIC	476	ABS	1	1	24MO	0	1	2.795308828	None	None	None	None	1
1.7	2015_Jul_28_1026	s	s	7	2	SIC	477	ABS	0	2	24RD	0	1	0.976360083	None	None	None	None	1
1.7	2015_Jul_28_1026	s	s	7	2	SIC	478	ABS	2	0	24VC	0	1	3.094965935	None	None	None	None	1
1.7	2015_Jul_28_1026	s	s	7	2	SIC	479	ABS	0	1	24RO	0	1	4.304615021	None	None	None	None	1
1.7	2015_Jul_28_1026	s	s	7	2	SIC	480	RC	1	1	23MO	1	0	1.023380041	-384	156	-374	159	1
1.7	2015_Jul_28_1026	s	s	7	2	SIC	481	RC	2	2	23VD	1	0	0.576098204	-346	58	-342	68	1
1.7	2015_Jul_28_1026	s	s	7	2	SIC	482	ABS	1	2	24MD	0	1	0.941335917	None	None	None	None	1
1.7	2015_Jul_28_1026	s	s	7	2	SIC	483	ABS	2	2	24VD	0	1	0.599596977	None	None	None	None	1
1.7	2015_Jul_28_1026	s	s	7	2	SIC	484	RC	1	2	23MD	1	0	0.711446047	401	116	413	121	1
1.7	2015_Jul_28_1026	s	s	7	2	SIC	485	RC	1	0	23MC	1	0	1.573853016	-319	393	-319	395	1
1.7	2015_Jul_28_1026	s	s	7	2	SIC	486	ABS	1	1	24MO	0	1	3.490264893	None	None	None	None	1
1.7	2015_Jul_28_1026	s	s	7	2	SIC	487	ABS	1	0	24MC	0	1	7.915299177	None	None	None	None	1
1.7	2015_Jul_28_1026	s	s	7	2	SIC	488	RC	2	1	23VO	1	0	0.60593605	-355	-67	-360	-66	1
1.7	2015_Jul_28_1026	s	s	7	2	SIC	489	ABS	0	1	24RO	0	1	4.213274002	None	None	None	None	1
1.7	2015_Jul_28_1026	s	s	7	2	SIC	490	ABS	0	2	24RD	0	1	1.082269907	None	None	None	None	1
1.7	2015_Jul_28_1026	s	s	7	2	SIC	491	RC	2	0	23VC	1	0	0.650443077	136	81	141	83	1
1.7	2015_Jul_28_1026	s	s	7	2	SIC	492	RC	0	1	23RO	1	0	2.082762957	-349	185	-352	190	1
1.7	2015_Jul_28_1026	s	s	7	2	SIC	493	RC	1	1	23MO	1	0	0.629373789	128	-36	128	-44	1
1.7	2015_Jul_28_1026	s	s	7	2	SIC	494	ABS	2	0	24VC	0	1	0.829307079	None	None	None	None	1
1.7	2015_Jul_28_1026	s	s	7	2	SIC	495	ABS	2	1	24VO	0	1	0.97665906	None	None	None	None	1
1.7	2015_Jul_28_1026	s	s	7	2	SIC	496	RC	0	2	23RD	1	0	0.764390945	-151	79	-155	80	1
1.7	2015_Jul_28_1026	s	s	7	2	SIC	497	ABS	2	2	24VD	0	1	0.772692919	None	None	None	None	1
1.7	2015_Jul_28_1026	s	s	7	2	SIC	498	RC	1	1	23MO	1	0	0.749467135	-339	-10	-334	-10	1
1.7	2015_Jul_28_1026	s	s	7	2	SIC	499	RC	2	1	23VO	1	0	0.535736084	268	-133	264	-141	1
1.7	2015_Jul_28_1026	s	s	7	2	SIC	500	ABS	0	1	24RO	0	1	5.048856974	None	None	None	None	1
1.7	2015_Jul_28_1026	s	s	7	2	SIC	501	ABS	1	2	24MD	0	1	1.171416998	None	None	None	None	1
1.7	2015_Jul_28_1026	s	s	7	2	SIC	502	RC	1	2	23MD	1	0	0.593801022	-23	-112	-31	-108	1
1.7	2015_Jul_28_1026	s	s	7	2	SIC	503	RC	0	2	23RD	1	0	0.705551148	-343	-236	-343	-234	1
1.7	2015_Jul_28_1026	s	s	7	2	SIC	504	ABS	1	0	24MC	0	1	2.92752409	None	None	None	None	1
1.7	2015_Jul_28_1026	s	s	7	2	SIC	505	ABS	0	2	24RD	0	1	1.317687988	None	None	None	None	1
1.7	2015_Jul_28_1026	s	s	7	2	SIC	506	RC	2	2	23VD	1	0	0.705679894	-528	-106	-530	-105	1
1.7	2015_Jul_28_1026	s	s	7	2	SIC	507	ABS	1	1	24MO	0	1	2.071321011	None	None	None	None	1
1.7	2015_Jul_28_1026	s	s	7	2	SIC	508	RC	2	0	23VC	1	0	0.870414972	396	-19	391	-25	1
1.7	2015_Jul_28_1026	s	s	7	2	SIC	509	ABS	2	0	24VC	0	1	0.664430141	None	None	None	None	1
1.7	2015_Jul_28_1026	s	s	7	2	SIC	510	RC	0	1	23RO	1	0	1.380075932	150	-195	145	-197	1
1.7	2015_Jul_28_1026	s	s	7	2	SIC	511	ABS	2	1	24VO	0	1	0.740885973	None	None	None	None	1
1.7	2015_Jul_28_1026	s	s	7	2	SIC	512	RC	1	0	23MC	1	0	1.030606985	288	95	282	98	1
1.7	2015_Jul_28_1026	s	s	7	2	SIC	513	ABS	0	2	24RD	0	1	1.129342079	None	None	None	None	1
1.7	2015_Jul_28_1026	s	s	7	2	SIC	514	ABS	2	1	24VO	0	1	0.782892227	None	None	None	None	1
1.7	2015_Jul_28_1026	s	s	7	2	SIC	515	ABS	2	2	24VD	0	1	0.740908861	None	None	None	None	1
1.7	2015_Jul_28_1026	s	s	7	2	SIC	516	RC	2	0	23VC	1	0	0.717428207	255	145	263	147	1
1.7	2015_Jul_28_1026	s	s	7	2	SIC	517	RC	0	2	23RD	1	0	0.77627492	-451	110	-450	110	1
1.7	2015_Jul_28_1026	s	s	7	2	SIC	518	ABS	1	0	24MC	0	1	1.788492918	None	None	None	None	1
1.7	2015_Jul_28_1026	s	s	7	2	SIC	519	ABS	1	2	24MD	0	1	0.607811928	None	None	None	None	1
1.7	2015_Jul_28_1026	s	s	7	2	SIC	520	ABS	0	1	24RO	0	1	3.916028023	None	None	None	None	1
1.7	2015_Jul_28_1026	s	s	7	2	SIC	521	RC	0	1	23RO	1	0	1.015325069	-166	3	-172	3	1
1.7	2015_Jul_28_1026	s	s	7	2	SIC	522	RC	1	1	23MO	1	0	2.230939865	-79	300	-73	297	1
1.7	2015_Jul_28_1026	s	s	7	2	SIC	523	ABS	2	0	24VC	0	1	2.83605504	None	None	None	None	1
1.7	2015_Jul_28_1026	s	s	7	2	SIC	524	RC	2	1	23VO	1	0	0.653744936	126	-86	123	-80	1
1.7	2015_Jul_28_1026	s	s	7	2	SIC	525	RC	1	2	23MD	1	0	1.04198885	-524	387	-523	393	1
1.7	2015_Jul_28_1026	s	s	7	2	SIC	526	RC	2	2	23VD	1	0	1.312627077	418	-179	422	-177	1
1.7	2015_Jul_28_1026	s	s	7	2	SIC	527	ABS	1	1	24MO	0	1	5.761765003	None	None	None	None	1
1.7	2015_Jul_28_1026	s	s	7	2	SIC	528	RC	1	0	23MC	1	0	1.489091158	-451	-332	-442	-329	1
1.7	2015_Jul_28_1026	s	s	7	2	SIC	529	ABS	2	0	24VC	0	1	0.654821158	None	None	None	None	1
1.7	2015_Jul_28_1026	s	s	7	2	SIC	530	ABS	1	0	24MC	0	1	4.519279003	None	None	None	None	1
1.7	2015_Jul_28_1026	s	s	7	2	SIC	531	RC	0	2	23RD	1	0	0.97123909	-161	-110	-163	-113	1
1.7	2015_Jul_28_1026	s	s	7	2	SIC	532	ABS	0	2	24RD	0	1	1.253849983	None	None	None	None	1
1.7	2015_Jul_28_1026	s	s	7	2	SIC	533	ABS	1	2	24MD	0	1	0.794359922	None	None	None	None	1
1.7	2015_Jul_28_1026	s	s	7	2	SIC	534	RC	1	0	23MC	1	0	1.150465012	-347	131	-352	138	1
1.7	2015_Jul_28_1026	s	s	7	2	SIC	535	RC	2	0	23VC	1	0	0.599676848	172	27	175	27	1
1.7	2015_Jul_28_1026	s	s	7	2	SIC	536	RC	1	1	23MO	1	0	0.806415796	-533	-98	-529	-96	1
1.7	2015_Jul_28_1026	s	s	7	2	SIC	537	ABS	2	1	24VO	0	1	0.793192864	None	None	None	None	1
1.7	2015_Jul_28_1026	s	s	7	2	SIC	538	ABS	1	1	24MO	0	1	2.654520035	None	None	None	None	1
1.7	2015_Jul_28_1026	s	s	7	2	SIC	539	RC	0	1	23RO	1	0	1.348222971	-191	-90	-189	-81	1
1.7	2015_Jul_28_1026	s	s	7	2	SIC	540	RC	2	1	23VO	1	0	0.724220038	210	88	211	76	1
1.7	2015_Jul_28_1026	s	s	7	2	SIC	541	RC	2	2	23VD	1	0	0.529038906	-291	-13	-299	-7	1
1.7	2015_Jul_28_1026	s	s	7	2	SIC	542	RC	1	2	23MD	1	0	0.529036045	81	239	82	242	1
1.7	2015_Jul_28_1026	s	s	7	2	SIC	543	ABS	2	2	24VD	0	1	0.729133844	None	None	None	None	1
1.7	2015_Jul_28_1026	s	s	7	2	SIC	544	ABS	0	1	24RO	0	1	5.220400095	None	None	None	None	1
1.7	2015_Jul_28_1026	s	s	7	2	SIC	545	ABS	1	0	24MC	0	1	2.348311901	None	None	None	None	1
1.7	2015_Jul_28_1026	s	s	7	2	SIC	546	ABS	2	0	24VC	0	1	0.594347	None	None	None	None	1
1.7	2015_Jul_28_1026	s	s	7	2	SIC	547	RC	2	2	23VD	1	0	0.753046989	420	74	419	68	1
1.7	2015_Jul_28_1026	s	s	7	2	SIC	548	ABS	1	2	24MD	0	1	0.893934012	None	None	None	None	1
1.7	2015_Jul_28_1026	s	s	7	2	SIC	549	RC	2	1	23VO	1	0	1.082076073	-209	404	-202	401	1
1.7	2015_Jul_28_1026	s	s	7	2	SIC	550	ABS	0	1	24RO	0	1	6.069640875	None	None	None	None	1
1.7	2015_Jul_28_1026	s	s	7	2	SIC	551	ABS	1	1	24MO	0	1	2.168848038	None	None	None	None	1
1.7	2015_Jul_28_1026	s	s	7	2	SIC	552	ABS	0	2	24RD	0	1	0.811532021	None	None	None	None	1
1.7	2015_Jul_28_1026	s	s	7	2	SIC	553	RC	1	0	23MC	1	0	2.647747994	396	-198	390	-196	1
1.7	2015_Jul_28_1026	s	s	7	2	SIC	554	ABS	2	1	24VO	0	1	0.576100111	None	None	None	None	1
1.7	2015_Jul_28_1026	s	s	7	2	SIC	555	RC	2	0	23VC	1	0	1.859215975	349	-147	356	-150	1
1.7	2015_Jul_28_1026	s	s	7	2	SIC	556	RC	1	1	23MO	1	0	1.653890133	-386	-328	-394	-331	1
1.7	2015_Jul_28_1026	s	s	7	2	SIC	557	RC	1	2	23MD	1	0	0.693766117	388	-167	385	-160	1
1.7	2015_Jul_28_1026	s	s	7	2	SIC	558	RC	0	2	23RD	1	0	0.611411095	260	-138	259	-129	1
1.7	2015_Jul_28_1026	s	s	7	2	SIC	559	RC	0	1	23RO	1	0	3.267055988	286	361	289	368	1
1.7	2015_Jul_28_1026	s	s	7	2	SIC	560	ABS	2	2	24VD	0	1	0.682102919	None	None	None	None	1
1.7	2015_Jul_28_1026	s	s	7	2	SIC	561	RC	2	1	23VO	1	0	0.843384981	-534	223	-537	222	1
1.7	2015_Jul_28_1026	s	s	7	2	SIC	562	ABS	0	2	24RD	0	1	0.811542988	None	None	None	None	1
1.7	2015_Jul_28_1026	s	s	7	2	SIC	563	ABS	1	2	24MD	0	1	0.693720818	None	None	None	None	1
1.7	2015_Jul_28_1026	s	s	7	2	SIC	564	RC	0	1	23RO	1	0	4.213210106	488	161	489	161	1
1.7	2015_Jul_28_1026	s	s	7	2	SIC	565	ABS	2	0	24VC	0	1	0.805967093	None	None	None	None	1
1.7	2015_Jul_28_1026	s	s	7	2	SIC	566	RC	2	2	23VD	1	0	0.705585003	-2	-60	-9	-62	1
1.7	2015_Jul_28_1026	s	s	7	2	SIC	567	RC	0	2	23RD	1	0	0.665169954	-185	-55	-186	-51	1
1.7	2015_Jul_28_1026	s	s	7	2	SIC	568	RC	1	0	23MC	1	0	1.512626886	-277	-301	-267	-297	1
1.7	2015_Jul_28_1026	s	s	7	2	SIC	569	ABS	0	1	24RO	0	1	4.590086937	None	None	None	None	1
1.7	2015_Jul_28_1026	s	s	7	2	SIC	570	ABS	1	0	24MC	0	1	1.289108038	None	None	None	None	1
1.7	2015_Jul_28_1026	s	s	7	2	SIC	571	ABS	2	1	24VO	0	1	0.653371096	None	None	None	None	1
1.7	2015_Jul_28_1026	s	s	7	2	SIC	572	RC	1	2	23MD	1	0	0.682066202	-15	-321	-25	-323	1
1.7	2015_Jul_28_1026	s	s	7	2	SIC	573	RC	2	0	23VC	1	0	0.764486074	-374	-407	-373	-408	1
1.7	2015_Jul_28_1026	s	s	7	2	SIC	574	ABS	1	1	24MO	0	1	1.524405956	None	None	None	None	1
1.7	2015_Jul_28_1026	s	s	7	2	SIC	575	ABS	2	2	24VD	0	1	0.69385004	None	None	None	None	1
1.7	2015_Jul_28_1026	s	s	7	2	SIC	576	RC	1	1	23MO	1	0	1.536323071	-431	304	-427	304	1
1.7	2015_Jul_28_1026	s	s	7	2	SIC	577	ABS	0	2	24RD	0	1	1.035215855	None	None	None	None	1
1.7	2015_Jul_28_1026	s	s	7	2	SIC	578	RC	2	2	23VD	1	0	0.688943863	152	75	159	72	1
1.7	2015_Jul_28_1026	s	s	7	2	SIC	579	ABS	1	0	24MC	0	1	2.09186101	None	None	None	None	1
1.7	2015_Jul_28_1026	s	s	7	2	SIC	580	ABS	1	1	24MO	0	1	3.031294823	None	None	None	None	1
1.7	2015_Jul_28_1026	s	s	7	2	SIC	581	ABS	2	2	24VD	0	1	0.820499897	None	None	None	None	1
1.7	2015_Jul_28_1026	s	s	7	2	SIC	582	RC	1	0	23MC	1	0	1.325220108	-454	98	-456	100	1
1.7	2015_Jul_28_1026	s	s	7	2	SIC	583	ABS	1	2	24MD	0	1	0.740836144	None	None	None	None	1
1.7	2015_Jul_28_1026	s	s	7	2	SIC	584	RC	1	2	23MD	1	0	0.924566031	425	-73	426	-74	1
1.7	2015_Jul_28_1026	s	s	7	2	SIC	585	ABS	0	1	24RO	0	1	5.857815981	None	None	None	None	1
1.7	2015_Jul_28_1026	s	s	7	2	SIC	586	RC	0	2	23RD	1	0	0.929244041	-376	-382	-375	-384	1
1.7	2015_Jul_28_1026	s	s	7	2	SIC	587	ABS	2	0	24VC	0	1	0.717386007	None	None	None	None	1
1.7	2015_Jul_28_1026	s	s	7	2	SIC	588	RC	0	1	23RO	0	1	4.526046991	104	220	None	None	0
1.7	2015_Jul_28_1026	s	s	7	2	SIC	589	RC	1	1	23MO	1	0	1.114925146	-498	-93	-492	-86	1
1.7	2015_Jul_28_1026	s	s	7	2	SIC	590	RC	2	1	23VO	1	0	0.664495945	-200	-209	-198	-206	1
1.7	2015_Jul_28_1026	s	s	7	2	SIC	591	RC	2	0	23VC	1	0	0.488845825	-113	-16	-107	-10	1
1.7	2015_Jul_28_1026	s	s	7	2	SIC	592	ABS	2	1	24VO	0	1	0.799782991	None	None	None	None	1
