Version	Date	Stimuli	Method	Subject	Session	Condition	Trial	Target	Channel1	Channel2	Distractors	LMouseButton	RMouseButton	RT	TargetX	TargetY	ResponseX	ResponseY	Correct
1.7	2015_Jul_31_1033	s	s	7	3	Capacity	1	RC	1	0	23MC	1	0	3.11376214027	259.0	-273.0	265	-268	1
1.7	2015_Jul_31_1033	s	s	7	3	Capacity	2	ABS	2	0	24VC	0	1	1.17643404007	None	None	None	None	1
1.7	2015_Jul_31_1033	s	s	7	3	Capacity	3	ABS	1	0	24MC	0	1	2.8664829731	None	None	None	None	1
1.7	2015_Jul_31_1033	s	s	7	3	Capacity	4	RC	2	0	23VC	1	0	0.68883395195	527.0	-194.0	530	-195	1
1.7	2015_Jul_31_1033	s	s	7	3	Capacity	5	ABS	1	0	24MC	0	1	3.31360602379	None	None	None	None	1
1.7	2015_Jul_31_1033	s	s	7	3	Capacity	6	RC	1	0	23MC	1	0	0.995919942856	-483.0	60.0	-485	62	1
1.7	2015_Jul_31_1033	s	s	7	3	Capacity	7	ABS	2	0	24VC	0	1	0.952718019485	None	None	None	None	1
1.7	2015_Jul_31_1033	s	s	7	3	Capacity	8	RC	2	0	23VC	1	0	0.818380832672	279.0	303.0	273	299	1
1.7	2015_Jul_31_1033	s	s	7	3	Capacity	9	RC	1	0	23MC	1	0	1.04682803154	-141.0	323.0	-134	322	1
1.7	2015_Jul_31_1033	s	s	7	3	Capacity	10	RC	2	0	23VC	1	0	1.32498908043	-474.0	-375.0	-468	-382	1
1.7	2015_Jul_31_1033	s	s	7	3	Capacity	11	ABS	1	0	24MC	0	1	2.84284496307	None	None	None	None	1
1.7	2015_Jul_31_1033	s	s	7	3	Capacity	12	ABS	2	0	24VC	0	1	2.6948788166	None	None	None	None	1
1.7	2015_Jul_31_1033	s	s	7	3	Capacity	13	RC	1	0	23MC	1	0	1.08211612701	-357.0	-344.0	-356	-346	1
1.7	2015_Jul_31_1033	s	s	7	3	Capacity	14	ABS	1	0	24MC	0	1	3.61932396889	None	None	None	None	1
1.7	2015_Jul_31_1033	s	s	7	3	Capacity	15	ABS	2	0	24VC	0	1	3.45992898941	None	None	None	None	1
1.7	2015_Jul_31_1033	s	s	7	3	Capacity	16	RC	2	0	23VC	1	0	0.627320051193	-36.0	172.0	-33	169	1
1.7	2015_Jul_31_1033	s	s	7	3	Capacity	17	ABS	2	0	24VC	0	1	1.86611104012	None	None	None	None	1
1.7	2015_Jul_31_1033	s	s	7	3	Capacity	18	RC	2	0	23VC	1	0	0.776198863983	-443.0	-131.0	-433	-131	1
1.7	2015_Jul_31_1033	s	s	7	3	Capacity	19	RC	1	0	23MC	1	0	1.94156289101	400.0	-136.0	387	-133	1
1.7	2015_Jul_31_1033	s	s	7	3	Capacity	20	ABS	1	0	24MC	0	1	2.99569702148	None	None	None	None	1
1.7	2015_Jul_31_1033	s	s	7	3	Capacity	21	ABS	1	0	24MC	0	1	2.37352705002	None	None	None	None	1
1.7	2015_Jul_31_1033	s	s	7	3	Capacity	22	ABS	2	0	24VC	0	1	0.906041145325	None	None	None	None	1
1.7	2015_Jul_31_1033	s	s	7	3	Capacity	23	RC	2	0	23VC	1	0	0.776249170303	194.0	224.0	194	227	1
1.7	2015_Jul_31_1033	s	s	7	3	Capacity	24	RC	1	0	23MC	1	0	2.73684096336	-176.0	-317.0	-173	-325	1
1.7	2015_Jul_31_1033	s	s	7	3	Capacity	25	RC	2	0	23VC	1	0	0.670074939728	-171.0	222.0	-171	224	1
1.7	2015_Jul_31_1033	s	s	7	3	Capacity	26	ABS	2	0	24VC	0	1	1.99437308311	None	None	None	None	1
1.7	2015_Jul_31_1033	s	s	7	3	Capacity	27	RC	1	0	23MC	1	0	2.98907995224	462.0	209.0	461	212	1
1.7	2015_Jul_31_1033	s	s	7	3	Capacity	28	ABS	1	0	24MC	0	1	2.01218700409	None	None	None	None	1
1.7	2015_Jul_31_1033	s	s	7	3	Capacity	29	ABS	1	0	24MC	0	1	3.15383887291	None	None	None	None	1
1.7	2015_Jul_31_1033	s	s	7	3	Capacity	30	RC	1	0	23MC	1	0	0.771069049835	201.0	-258.0	201	-261	1
1.7	2015_Jul_31_1033	s	s	7	3	Capacity	31	ABS	2	0	24VC	0	1	1.4539039135	None	None	None	None	1
1.7	2015_Jul_31_1033	s	s	7	3	Capacity	32	RC	2	0	23VC	1	0	0.658524036407	-106.0	-218.0	-98	-221	1
1.7	2015_Jul_31_1033	s	s	7	3	Capacity	33	RC	1	0	23MC	1	0	1.12937688828	-327.0	-252.0	-321	-249	1
1.7	2015_Jul_31_1033	s	s	7	3	Capacity	34	ABS	2	0	24VC	0	1	0.811515808105	None	None	None	None	1
1.7	2015_Jul_31_1033	s	s	7	3	Capacity	35	ABS	1	0	24MC	0	1	2.96291995049	None	None	None	None	1
1.7	2015_Jul_31_1033	s	s	7	3	Capacity	36	RC	2	0	23VC	1	0	0.712986946106	464.0	302.0	463	301	1
1.7	2015_Jul_31_1033	s	s	7	3	Capacity	37	RC	2	0	23VC	1	0	0.787904977798	-18.0	301.0	-13	299	1
1.7	2015_Jul_31_1033	s	s	7	3	Capacity	38	ABS	1	0	24MC	0	1	2.31437802315	None	None	None	None	1
1.7	2015_Jul_31_1033	s	s	7	3	Capacity	39	ABS	2	0	24VC	0	1	0.937372922897	None	None	None	None	1
1.7	2015_Jul_31_1033	s	s	7	3	Capacity	40	RC	1	0	23MC	1	0	3.00087499619	-329.0	390.0	-327	388	1
1.7	2015_Jul_31_1033	s	s	7	3	Capacity	41	ABS	2	0	24VC	0	1	0.935029983521	None	None	None	None	1
1.7	2015_Jul_31_1033	s	s	7	3	Capacity	42	RC	1	0	23MC	1	0	0.787932157516	-404.0	261.0	-399	261	1
1.7	2015_Jul_31_1033	s	s	7	3	Capacity	43	ABS	1	0	24MC	0	1	3.47170615196	None	None	None	None	1
1.7	2015_Jul_31_1033	s	s	7	3	Capacity	44	RC	2	0	23VC	1	0	0.705605983734	64.0	-77.0	65	-93	1
1.7	2015_Jul_31_1033	s	s	7	3	Capacity	45	ABS	1	0	24MC	0	1	2.79573988914	None	None	None	None	1
1.7	2015_Jul_31_1033	s	s	7	3	Capacity	46	RC	2	0	23VC	1	0	0.725833892822	356.0	201.0	351	210	1
1.7	2015_Jul_31_1033	s	s	7	3	Capacity	47	ABS	2	0	24VC	0	1	1.08894991875	None	None	None	None	1
1.7	2015_Jul_31_1033	s	s	7	3	Capacity	48	RC	1	0	23MC	1	0	1.04693889618	-236.0	308.0	-234	311	1
1.7	2015_Jul_31_1033	s	s	7	3	Capacity	49	ABS	2	0	24VC	0	1	1.43206906319	None	None	None	None	1
1.7	2015_Jul_31_1033	s	s	7	3	Capacity	50	ABS	1	0	24MC	0	1	2.83271694183	None	None	None	None	1
1.7	2015_Jul_31_1033	s	s	7	3	Capacity	51	RC	1	0	23MC	1	0	0.782993078232	-476.0	251.0	-472	251	1
1.7	2015_Jul_31_1033	s	s	7	3	Capacity	52	RC	2	0	23VC	1	0	1.65098690987	502.0	212.0	498	205	1
1.7	2015_Jul_31_1033	s	s	7	3	Capacity	53	RC	2	0	23VC	1	0	0.806488037109	252.0	-400.0	248	-400	1
1.7	2015_Jul_31_1033	s	s	7	3	Capacity	54	ABS	1	0	24MC	0	1	2.77762818336	None	None	None	None	1
1.7	2015_Jul_31_1033	s	s	7	3	Capacity	55	RC	1	0	23MC	1	0	0.900706768036	-263.0	-160.0	-259	-161	1
1.7	2015_Jul_31_1033	s	s	7	3	Capacity	56	ABS	2	0	24VC	0	1	0.717336177826	None	None	None	None	1
1.7	2015_Jul_31_1033	s	s	7	3	Capacity	57	RC	1	0	23MC	1	0	1.1830701828	410.0	222.0	407	224	1
1.7	2015_Jul_31_1033	s	s	7	3	Capacity	58	RC	2	0	23VC	1	0	0.606473922729	268.0	44.0	273	37	1
1.7	2015_Jul_31_1033	s	s	7	3	Capacity	59	ABS	1	0	24MC	0	1	1.31270003319	None	None	None	None	1
1.7	2015_Jul_31_1033	s	s	7	3	Capacity	60	ABS	2	0	24VC	0	1	1.02337813377	None	None	None	None	1
1.7	2015_Jul_31_1033	s	s	7	3	Capacity	61	ABS	1	0	24MC	0	1	2.25359487534	None	None	None	None	1
1.7	2015_Jul_31_1033	s	s	7	3	Capacity	62	RC	2	0	23VC	1	0	0.787983894348	-27.0	137.0	-27	133	1
1.7	2015_Jul_31_1033	s	s	7	3	Capacity	63	RC	1	0	23MC	1	0	1.17627000809	293.0	-254.0	289	-258	1
1.7	2015_Jul_31_1033	s	s	7	3	Capacity	64	ABS	2	0	24VC	0	1	0.712118148804	None	None	None	None	1
1.7	2015_Jul_31_1033	s	s	7	3	Capacity	65	ABS	2	0	24VC	0	1	1.31270503998	None	None	None	None	1
1.7	2015_Jul_31_1033	s	s	7	3	Capacity	66	ABS	1	0	24MC	0	1	2.31818509102	None	None	None	None	1
1.7	2015_Jul_31_1033	s	s	7	3	Capacity	67	RC	2	0	23VC	1	0	0.752599000931	366.0	339.0	369	337	1
1.7	2015_Jul_31_1033	s	s	7	3	Capacity	68	RC	1	0	23MC	1	0	1.64229488373	-163.0	33.0	-168	34	1
1.7	2015_Jul_31_1033	s	s	7	3	Capacity	69	ABS	1	0	24MC	0	1	5.21375608444	None	None	None	None	1
1.7	2015_Jul_31_1033	s	s	7	3	Capacity	70	RC	1	0	23MC	1	0	1.10019612312	-283.0	-316.0	-282	-318	1
1.7	2015_Jul_31_1033	s	s	7	3	Capacity	71	RC	2	0	23VC	1	0	0.679254055023	124.0	-148.0	124	-147	1
1.7	2015_Jul_31_1033	s	s	7	3	Capacity	72	ABS	2	0	24VC	0	1	0.999893903732	None	None	None	None	1
1.7	2015_Jul_31_1033	s	s	7	3	Capacity	73	RC	2	0	23VC	1	0	0.700451135635	-90.0	290.0	-86	286	1
1.7	2015_Jul_31_1033	s	s	7	3	Capacity	74	ABS	2	0	24VC	0	1	1.16866397858	None	None	None	None	1
1.7	2015_Jul_31_1033	s	s	7	3	Capacity	75	RC	1	0	23MC	1	0	1.23019981384	340.0	376.0	346	379	1
1.7	2015_Jul_31_1033	s	s	7	3	Capacity	76	ABS	1	0	24MC	0	1	3.34221291542	None	None	None	None	1
1.7	2015_Jul_31_1033	s	s	7	3	Capacity	77	ABS	2	0	24VC	0	1	1.30588793755	None	None	None	None	1
1.7	2015_Jul_31_1033	s	s	7	3	Capacity	78	RC	2	0	23VC	1	0	0.737278938293	528.0	-163.0	532	-170	1
1.7	2015_Jul_31_1033	s	s	7	3	Capacity	79	RC	1	0	23MC	1	0	1.05407619476	-372.0	261.0	-371	265	1
1.7	2015_Jul_31_1033	s	s	7	3	Capacity	80	ABS	1	0	24MC	0	1	6.56401610374	None	None	None	None	1
1.7	2015_Jul_31_1033	s	s	7	3	Capacity	81	ABS	2	0	24VC	0	1	1.6001868248	None	None	None	None	1
1.7	2015_Jul_31_1033	s	s	7	3	Capacity	82	RC	1	0	23MC	1	0	1.93886089325	317.0	273.0	323	266	1
1.7	2015_Jul_31_1033	s	s	7	3	Capacity	83	RC	2	0	23VC	1	0	0.729199171066	-304.0	178.0	-296	183	1
1.7	2015_Jul_31_1033	s	s	7	3	Capacity	84	ABS	1	0	24MC	0	1	4.74004006386	None	None	None	None	1
1.7	2015_Jul_31_1033	s	s	7	3	Capacity	85	RC	2	0	23VC	1	0	0.794740915298	-329.0	-72.0	-327	-75	1
1.7	2015_Jul_31_1033	s	s	7	3	Capacity	86	RC	1	0	23MC	1	0	3.27836108208	475.0	-365.0	479	-366	1
1.7	2015_Jul_31_1033	s	s	7	3	Capacity	87	ABS	1	0	24MC	0	1	3.42454385757	None	None	None	None	1
1.7	2015_Jul_31_1033	s	s	7	3	Capacity	88	ABS	2	0	24VC	0	1	0.823410987854	None	None	None	None	1
1.7	2015_Jul_31_1033	s	s	7	3	Capacity	89	RC	2	0	23VC	1	0	0.691150903702	-208.0	-242.0	-209	-240	1
1.7	2015_Jul_31_1033	s	s	7	3	Capacity	90	ABS	2	0	24VC	0	1	0.759235143661	None	None	None	None	1
1.7	2015_Jul_31_1033	s	s	7	3	Capacity	91	ABS	1	0	24MC	0	1	2.74984192848	None	None	None	None	1
1.7	2015_Jul_31_1033	s	s	7	3	Capacity	92	RC	1	0	23MC	1	0	0.999969005585	-397.0	-295.0	-399	-295	1
1.7	2015_Jul_31_1033	s	s	7	3	Capacity	1	ABS	0	2	24RD	0	1	4.97531485558	None	None	None	None	1
1.7	2015_Jul_31_1033	s	s	7	3	Capacity	2	ABS	0	1	24RO	0	1	7.28029203415	None	None	None	None	1
1.7	2015_Jul_31_1033	s	s	7	3	Capacity	3	RC	0	2	23RD	1	0	0.879501104355	-142.0	-93.0	-132	-92	1
1.7	2015_Jul_31_1033	s	s	7	3	Capacity	4	RC	0	1	23RO	1	0	1.7131857872	-390.0	44.0	-378	47	1
1.7	2015_Jul_31_1033	s	s	7	3	Capacity	5	RC	0	2	23RD	1	0	0.806495189667	-314.0	-134.0	-309	-134	1
1.7	2015_Jul_31_1033	s	s	7	3	Capacity	6	ABS	0	1	24RO	0	1	6.15889811516	None	None	None	None	1
1.7	2015_Jul_31_1033	s	s	7	3	Capacity	7	ABS	0	2	24RD	0	1	3.18964219093	None	None	None	None	1
1.7	2015_Jul_31_1033	s	s	7	3	Capacity	8	RC	0	1	23RO	1	0	4.18967890739	-262.0	-402.0	-254	-395	1
1.7	2015_Jul_31_1033	s	s	7	3	Capacity	9	ABS	0	1	24RO	0	1	6.36470508575	None	None	None	None	1
1.7	2015_Jul_31_1033	s	s	7	3	Capacity	10	RC	0	2	23RD	1	0	0.799710988998	384.0	-65.0	383	-68	1
1.7	2015_Jul_31_1033	s	s	7	3	Capacity	11	ABS	0	2	24RD	0	1	1.61850690842	None	None	None	None	1
1.7	2015_Jul_31_1033	s	s	7	3	Capacity	12	RC	0	1	23RO	1	0	3.74233293533	447.0	-354.0	444	-351	1
1.7	2015_Jul_31_1033	s	s	7	3	Capacity	13	RC	0	1	23RO	1	0	4.11538505554	334.0	-22.0	341	-25	1
1.7	2015_Jul_31_1033	s	s	7	3	Capacity	14	ABS	0	2	24RD	0	1	2.01213717461	None	None	None	None	1
1.7	2015_Jul_31_1033	s	s	7	3	Capacity	15	ABS	0	1	24RO	0	1	6.10822820663	None	None	None	None	1
1.7	2015_Jul_31_1033	s	s	7	3	Capacity	16	RC	0	2	23RD	1	0	1.18548512459	498.0	-294.0	498	-298	1
1.7	2015_Jul_31_1033	s	s	7	3	Capacity	17	ABS	0	1	24RO	0	1	6.00232386589	None	None	None	None	1
1.7	2015_Jul_31_1033	s	s	7	3	Capacity	18	ABS	0	2	24RD	0	1	1.83557915688	None	None	None	None	1
1.7	2015_Jul_31_1033	s	s	7	3	Capacity	19	RC	0	2	23RD	1	0	0.764461994171	-198.0	-82.0	-192	-82	1
1.7	2015_Jul_31_1033	s	s	7	3	Capacity	20	RC	0	1	23RO	1	0	2.9131000042	-532.0	-239.0	-523	-243	1
1.7	2015_Jul_31_1033	s	s	7	3	Capacity	21	ABS	0	2	24RD	0	1	3.18916797638	None	None	None	None	1
1.7	2015_Jul_31_1033	s	s	7	3	Capacity	22	RC	0	1	23RO	1	0	0.994216918945	-230.0	-145.0	-231	-145	1
1.7	2015_Jul_31_1033	s	s	7	3	Capacity	23	RC	0	2	23RD	1	0	0.681942939758	275.0	114.0	279	112	1
1.7	2015_Jul_31_1033	s	s	7	3	Capacity	24	ABS	0	1	24RO	0	1	7.7327580452	None	None	None	None	1
1.7	2015_Jul_31_1033	s	s	7	3	Capacity	25	ABS	0	1	24RO	0	1	5.61093497276	None	None	None	None	1
1.7	2015_Jul_31_1033	s	s	7	3	Capacity	26	RC	0	1	23RO	1	0	3.20111608505	-210.0	137.0	-208	140	1
1.7	2015_Jul_31_1033	s	s	7	3	Capacity	27	RC	0	2	23RD	1	0	0.950062036514	205.0	335.0	202	341	1
1.7	2015_Jul_31_1033	s	s	7	3	Capacity	28	ABS	0	2	24RD	0	1	4.7904291153	None	None	None	None	1
1.7	2015_Jul_31_1033	s	s	7	3	Capacity	29	ABS	0	1	24RO	0	1	6.27310419083	None	None	None	None	1
1.7	2015_Jul_31_1033	s	s	7	3	Capacity	30	ABS	0	2	24RD	0	1	1.55994200706	None	None	None	None	1
1.7	2015_Jul_31_1033	s	s	7	3	Capacity	31	RC	0	2	23RD	1	0	1.07035183907	-309.0	384.0	-313	386	1
1.7	2015_Jul_31_1033	s	s	7	3	Capacity	32	RC	0	1	23RO	1	0	4.67223405838	295.0	133.0	295	138	1
1.7	2015_Jul_31_1033	s	s	7	3	Capacity	33	RC	0	1	23RO	1	0	2.99535393715	233.0	207.0	237	213	1
1.7	2015_Jul_31_1033	s	s	7	3	Capacity	34	ABS	0	2	24RD	0	1	5.73163509369	None	None	None	None	1
1.7	2015_Jul_31_1033	s	s	7	3	Capacity	35	RC	0	2	23RD	1	0	0.937777042389	-215.0	219.0	-212	213	1
1.7	2015_Jul_31_1033	s	s	7	3	Capacity	36	ABS	0	1	24RO	0	1	6.49669599533	None	None	None	None	1
1.7	2015_Jul_31_1033	s	s	7	3	Capacity	37	ABS	0	2	24RD	0	1	1.41877913475	None	None	None	None	1
1.7	2015_Jul_31_1033	s	s	7	3	Capacity	38	RC	0	1	23RO	1	0	1.07050299644	-128.0	180.0	-124	183	1
1.7	2015_Jul_31_1033	s	s	7	3	Capacity	39	RC	0	2	23RD	1	0	0.776175022125	-442.0	-248.0	-436	-246	1
1.7	2015_Jul_31_1033	s	s	7	3	Capacity	40	ABS	0	1	24RO	0	1	5.7669699192	None	None	None	None	1
1.7	2015_Jul_31_1033	s	s	7	3	Capacity	41	RC	0	2	23RD	1	0	0.818913221359	-384.0	363.0	-377	364	1
1.7	2015_Jul_31_1033	s	s	7	3	Capacity	42	RC	0	1	23RO	1	0	0.807032823563	-196.0	257.0	-201	256	1
1.7	2015_Jul_31_1033	s	s	7	3	Capacity	43	ABS	0	2	24RD	0	1	2.05412483215	None	None	None	None	1
1.7	2015_Jul_31_1033	s	s	7	3	Capacity	44	ABS	0	1	24RO	0	1	5.55514407158	None	None	None	None	1
1.7	2015_Jul_31_1033	s	s	7	3	Capacity	45	RC	0	2	23RD	1	0	0.712311029434	-212.0	88.0	-205	91	1
1.7	2015_Jul_31_1033	s	s	7	3	Capacity	46	ABS	0	2	24RD	0	1	4.40825510025	None	None	None	None	1
1.7	2015_Jul_31_1033	s	s	7	3	Capacity	47	ABS	0	1	24RO	0	1	5.94347190857	None	None	None	None	1
1.7	2015_Jul_31_1033	s	s	7	3	Capacity	48	RC	0	1	23RO	1	0	1.69166707993	-29.0	-221.0	-27	-220	1
1.7	2015_Jul_31_1033	s	s	7	3	Capacity	49	RC	0	2	23RD	1	0	2.54186296463	-484.0	-45.0	-483	-44	1
1.7	2015_Jul_31_1033	s	s	7	3	Capacity	50	ABS	0	1	24RO	0	1	5.90821218491	None	None	None	None	1
1.7	2015_Jul_31_1033	s	s	7	3	Capacity	51	ABS	0	2	24RD	0	1	1.32945203781	None	None	None	None	1
1.7	2015_Jul_31_1033	s	s	7	3	Capacity	52	RC	0	1	23RO	1	0	1.95324611664	-71.0	175.0	-70	178	1
1.7	2015_Jul_31_1033	s	s	7	3	Capacity	53	ABS	0	2	24RD	0	1	1.96501898766	None	None	None	None	1
1.7	2015_Jul_31_1033	s	s	7	3	Capacity	54	RC	0	2	23RD	1	0	0.947459936142	448.0	-104.0	458	-97	1
1.7	2015_Jul_31_1033	s	s	7	3	Capacity	55	RC	0	1	23RO	1	0	4.71931195259	370.0	-36.0	364	-32	1
1.7	2015_Jul_31_1033	s	s	7	3	Capacity	56	ABS	0	1	24RO	0	1	6.14361095428	None	None	None	None	1
1.7	2015_Jul_31_1033	s	s	7	3	Capacity	57	ABS	0	1	24RO	0	1	6.33194112778	None	None	None	None	1
1.7	2015_Jul_31_1033	s	s	7	3	Capacity	58	RC	0	1	23RO	1	0	1.67072987556	143.0	-54.0	137	-56	1
1.7	2015_Jul_31_1033	s	s	7	3	Capacity	59	RC	0	2	23RD	1	0	0.747401952744	-283.0	-67.0	-276	-67	1
1.7	2015_Jul_31_1033	s	s	7	3	Capacity	60	ABS	0	2	24RD	0	1	1.60010004044	None	None	None	None	1
1.7	2015_Jul_31_1033	s	s	7	3	Capacity	61	RC	0	2	23RD	1	0	1.09108114243	368.0	62.0	362	63	1
1.7	2015_Jul_31_1033	s	s	7	3	Capacity	62	ABS	0	1	24RO	0	1	4.77818202972	None	None	None	None	1
1.7	2015_Jul_31_1033	s	s	7	3	Capacity	63	RC	0	1	23RO	0	1	6.11520504951	-16.0	-172.0	None	None	0
1.7	2015_Jul_31_1033	s	s	7	3	Capacity	64	ABS	0	2	24RD	0	1	1.15952110291	None	None	None	None	1
1.7	2015_Jul_31_1033	s	s	7	3	Capacity	65	ABS	0	1	24RO	0	1	5.05510592461	None	None	None	None	1
1.7	2015_Jul_31_1033	s	s	7	3	Capacity	66	RC	0	1	23RO	1	0	1.72966504097	-517.0	161.0	-517	165	1
1.7	2015_Jul_31_1033	s	s	7	3	Capacity	67	RC	0	2	23RD	1	0	0.690092086792	-372.0	-292.0	-373	-284	1
1.7	2015_Jul_31_1033	s	s	7	3	Capacity	68	ABS	0	2	24RD	0	1	3.12680697441	None	None	None	None	1
1.7	2015_Jul_31_1033	s	s	7	3	Capacity	69	ABS	0	1	24RO	0	1	4.44362902641	None	None	None	None	1
1.7	2015_Jul_31_1033	s	s	7	3	Capacity	70	RC	0	1	23RO	1	0	1.26248598099	42.0	-74.0	48	-74	1
1.7	2015_Jul_31_1033	s	s	7	3	Capacity	71	ABS	0	2	24RD	0	1	3.35997986794	None	None	None	None	1
1.7	2015_Jul_31_1033	s	s	7	3	Capacity	72	RC	0	2	23RD	1	0	0.665082931519	-278.0	-61.0	-280	-69	1
1.7	2015_Jul_31_1033	s	s	7	3	Capacity	73	RC	0	1	23RO	0	1	5.30520701408	52.0	132.0	None	None	0
1.7	2015_Jul_31_1033	s	s	7	3	Capacity	74	ABS	0	1	24RO	0	1	6.20246291161	None	None	None	None	1
1.7	2015_Jul_31_1033	s	s	7	3	Capacity	75	RC	0	2	23RD	1	0	0.787904977798	-300.0	-25.0	-299	-24	1
1.7	2015_Jul_31_1033	s	s	7	3	Capacity	76	ABS	0	2	24RD	0	1	2.00022411346	None	None	None	None	1
1.7	2015_Jul_31_1033	s	s	7	3	Capacity	77	RC	0	2	23RD	1	0	0.785296201706	-451.0	-160.0	-441	-156	1
1.7	2015_Jul_31_1033	s	s	7	3	Capacity	78	RC	0	1	23RO	0	1	4.28369402885	48.0	212.0	None	None	0
1.7	2015_Jul_31_1033	s	s	7	3	Capacity	79	ABS	0	1	24RO	0	1	5.40575289726	None	None	None	None	1
1.7	2015_Jul_31_1033	s	s	7	3	Capacity	80	ABS	0	2	24RD	0	1	1.23078393936	None	None	None	None	1
1.7	2015_Jul_31_1033	s	s	7	3	Capacity	81	RC	0	1	23RO	1	0	3.83701014519	378.0	397.0	377	399	1
1.7	2015_Jul_31_1033	s	s	7	3	Capacity	82	ABS	0	2	24RD	0	1	1.18419718742	None	None	None	None	1
1.7	2015_Jul_31_1033	s	s	7	3	Capacity	83	RC	0	2	23RD	1	0	1.32390499115	-468.0	156.0	-462	156	1
1.7	2015_Jul_31_1033	s	s	7	3	Capacity	84	ABS	0	1	24RO	0	1	6.88511514664	None	None	None	None	1
1.7	2015_Jul_31_1033	s	s	7	3	Capacity	85	ABS	0	2	24RD	0	1	1.76496315002	None	None	None	None	1
1.7	2015_Jul_31_1033	s	s	7	3	Capacity	86	ABS	0	1	24RO	0	1	6.84994697571	None	None	None	None	1
1.7	2015_Jul_31_1033	s	s	7	3	Capacity	87	RC	0	2	23RD	1	0	0.941040992737	-256.0	398.0	-256	395	1
1.7	2015_Jul_31_1033	s	s	7	3	Capacity	88	RC	0	1	23RO	1	0	4.53493499756	-434.0	-330.0	-443	-334	1
1.7	2015_Jul_31_1033	s	s	7	3	Capacity	89	RC	0	2	23RD	1	0	0.764405965805	-59.0	390.0	-68	391	1
1.7	2015_Jul_31_1033	s	s	7	3	Capacity	90	ABS	0	1	24RO	0	1	6.55539393425	None	None	None	None	1
1.7	2015_Jul_31_1033	s	s	7	3	Capacity	91	ABS	0	2	24RD	0	1	2.03574299812	None	None	None	None	1
1.7	2015_Jul_31_1033	s	s	7	3	Capacity	92	RC	0	1	23RO	1	0	1.32946801186	14.0	145.0	17	146	1
1.7	2015_Jul_31_1033	s	s	7	3	SIC	1	RC	2	0	23VC	1	0	0.752696990967	286.0	-358.0	290	-356	1
1.7	2015_Jul_31_1033	s	s	7	3	SIC	2	RC	1	0	23MC	1	0	1.59358692169	-297.0	88.0	-299	85	1
1.7	2015_Jul_31_1033	s	s	7	3	SIC	3	ABS	2	1	24VO	0	1	1.5129070282	None	None	None	None	1
1.7	2015_Jul_31_1033	s	s	7	3	SIC	4	RC	1	2	23MD	1	0	0.88217997551	234.0	-309.0	244	-307	1
1.7	2015_Jul_31_1033	s	s	7	3	SIC	5	RC	2	2	23VD	1	0	0.655806064606	59.0	-227.0	67	-227	1
1.7	2015_Jul_31_1033	s	s	7	3	SIC	6	ABS	0	1	24RO	0	1	7.01476693153	None	None	None	None	1
1.7	2015_Jul_31_1033	s	s	7	3	SIC	7	ABS	0	2	24RD	0	1	1.13750195503	None	None	None	None	1
1.7	2015_Jul_31_1033	s	s	7	3	SIC	8	RC	2	1	23VO	1	0	0.682065010071	419.0	-351.0	430	-349	1
1.7	2015_Jul_31_1033	s	s	7	3	SIC	9	ABS	1	0	24MC	0	1	4.90776801109	None	None	None	None	1
1.7	2015_Jul_31_1033	s	s	7	3	SIC	10	RC	1	1	23MO	1	0	1.25560212135	527.0	-101.0	531	-103	1
1.7	2015_Jul_31_1033	s	s	7	3	SIC	11	ABS	1	1	24MO	0	1	3.33713698387	None	None	None	None	1
1.7	2015_Jul_31_1033	s	s	7	3	SIC	12	ABS	2	0	24VC	0	1	1.24706315994	None	None	None	None	1
1.7	2015_Jul_31_1033	s	s	7	3	SIC	13	RC	0	2	23RD	1	0	0.65845489502	-100.0	32.0	-97	26	1
1.7	2015_Jul_31_1033	s	s	7	3	SIC	14	ABS	1	2	24MD	0	1	1.82010602951	None	None	None	None	1
1.7	2015_Jul_31_1033	s	s	7	3	SIC	15	RC	0	1	23RO	1	0	5.03715014458	-107.0	-280.0	-104	-285	1
1.7	2015_Jul_31_1033	s	s	7	3	SIC	16	ABS	2	2	24VD	0	1	0.858572006226	None	None	None	None	1
1.7	2015_Jul_31_1033	s	s	7	3	SIC	17	RC	0	2	23RD	1	0	0.702798843384	212.0	-406.0	215	-401	1
1.7	2015_Jul_31_1033	s	s	7	3	SIC	18	RC	1	2	23MD	1	0	0.670300960541	148.0	-304.0	149	-306	1
1.7	2015_Jul_31_1033	s	s	7	3	SIC	19	ABS	1	2	24MD	0	1	1.11263084412	None	None	None	None	1
1.7	2015_Jul_31_1033	s	s	7	3	SIC	20	ABS	2	1	24VO	0	1	0.950080156326	None	None	None	None	1
1.7	2015_Jul_31_1033	s	s	7	3	SIC	21	ABS	1	0	24MC	0	1	5.15239882469	None	None	None	None	1
1.7	2015_Jul_31_1033	s	s	7	3	SIC	22	ABS	0	2	24RD	0	1	1.68257784843	None	None	None	None	1
1.7	2015_Jul_31_1033	s	s	7	3	SIC	23	RC	1	0	23MC	1	0	1.74988102913	-527.0	-147.0	-535	-142	1
1.7	2015_Jul_31_1033	s	s	7	3	SIC	24	ABS	0	1	24RO	0	1	5.91989088058	None	None	None	None	1
1.7	2015_Jul_31_1033	s	s	7	3	SIC	25	RC	1	1	23MO	1	0	1.09401893616	179.0	52.0	182	55	1
1.7	2015_Jul_31_1033	s	s	7	3	SIC	26	ABS	1	1	24MO	0	1	4.22500681877	None	None	None	None	1
1.7	2015_Jul_31_1033	s	s	7	3	SIC	27	ABS	2	0	24VC	0	1	0.97628903389	None	None	None	None	1
1.7	2015_Jul_31_1033	s	s	7	3	SIC	28	ABS	2	2	24VD	0	1	1.07049298286	None	None	None	None	1
1.7	2015_Jul_31_1033	s	s	7	3	SIC	29	RC	2	1	23VO	1	0	0.706139087677	-43.0	-363.0	-40	-366	1
1.7	2015_Jul_31_1033	s	s	7	3	SIC	30	RC	0	1	23RO	1	0	5.67818403244	73.0	-226.0	72	-223	1
1.7	2015_Jul_31_1033	s	s	7	3	SIC	31	RC	2	2	23VD	1	0	0.787961006165	352.0	406.0	360	405	1
1.7	2015_Jul_31_1033	s	s	7	3	SIC	32	RC	2	0	23VC	1	0	0.983227968216	350.0	-35.0	353	-38	1
1.7	2015_Jul_31_1033	s	s	7	3	SIC	33	RC	1	1	23MO	1	0	0.749125957489	328.0	6.0	324	2	1
1.7	2015_Jul_31_1033	s	s	7	3	SIC	34	RC	2	2	23VD	1	0	0.571173906326	-33.0	172.0	-38	173	1
1.7	2015_Jul_31_1033	s	s	7	3	SIC	35	RC	2	1	23VO	1	0	0.641574144363	196.0	67.0	200	59	1
1.7	2015_Jul_31_1033	s	s	7	3	SIC	36	ABS	1	0	24MC	0	1	2.57714509964	None	None	None	None	1
1.7	2015_Jul_31_1033	s	s	7	3	SIC	37	ABS	0	2	24RD	0	1	2.27934193611	None	None	None	None	1
1.7	2015_Jul_31_1033	s	s	7	3	SIC	38	ABS	2	2	24VD	0	1	0.664780855179	None	None	None	None	1
1.7	2015_Jul_31_1033	s	s	7	3	SIC	39	ABS	2	0	24VC	0	1	1.385420084	None	None	None	None	1
1.7	2015_Jul_31_1033	s	s	7	3	SIC	40	RC	0	2	23RD	1	0	1.14112401009	403.0	-287.0	399	-280	1
1.7	2015_Jul_31_1033	s	s	7	3	SIC	41	ABS	0	1	24RO	0	1	5.05565309525	None	None	None	None	1
1.7	2015_Jul_31_1033	s	s	7	3	SIC	42	ABS	1	1	24MO	0	1	3.53056406975	None	None	None	None	1
1.7	2015_Jul_31_1033	s	s	7	3	SIC	43	RC	0	1	23RO	1	0	2.60057902336	-198.0	249.0	-198	247	1
1.7	2015_Jul_31_1033	s	s	7	3	SIC	44	ABS	2	1	24VO	0	1	1.01170110703	None	None	None	None	1
1.7	2015_Jul_31_1033	s	s	7	3	SIC	45	RC	1	0	23MC	1	0	2.69516611099	190.0	-375.0	192	-374	1
1.7	2015_Jul_31_1033	s	s	7	3	SIC	46	RC	2	0	23VC	1	0	1.52952599525	-471.0	108.0	-470	108	1
1.7	2015_Jul_31_1033	s	s	7	3	SIC	47	ABS	1	2	24MD	0	1	1.55912089348	None	None	None	None	1
1.7	2015_Jul_31_1033	s	s	7	3	SIC	48	RC	1	2	23MD	1	0	1.34973502159	449.0	-125.0	455	-130	1
1.7	2015_Jul_31_1033	s	s	7	3	SIC	49	ABS	2	1	24VO	0	1	1.07035803795	None	None	None	None	1
1.7	2015_Jul_31_1033	s	s	7	3	SIC	50	ABS	0	2	24RD	0	1	2.23088598251	None	None	None	None	1
1.7	2015_Jul_31_1033	s	s	7	3	SIC	51	RC	2	0	23VC	1	0	0.870406866074	-131.0	376.0	-135	371	1
1.7	2015_Jul_31_1033	s	s	7	3	SIC	52	RC	0	1	23RO	1	0	1.9264318943	149.0	392.0	141	388	1
1.7	2015_Jul_31_1033	s	s	7	3	SIC	53	RC	1	2	23MD	1	0	0.594535112381	-253.0	-103.0	-250	-108	1
1.7	2015_Jul_31_1033	s	s	7	3	SIC	54	RC	1	0	23MC	1	0	1.59210586548	-357.0	78.0	-357	80	1
1.7	2015_Jul_31_1033	s	s	7	3	SIC	55	RC	0	2	23RD	1	0	0.830198049545	271.0	-394.0	273	-393	1
1.7	2015_Jul_31_1033	s	s	7	3	SIC	56	ABS	2	0	24VC	0	1	2.03050899506	None	None	None	None	1
1.7	2015_Jul_31_1033	s	s	7	3	SIC	57	RC	2	1	23VO	1	0	0.858530044556	207.0	-177.0	210	-178	1
1.7	2015_Jul_31_1033	s	s	7	3	SIC	58	ABS	1	2	24MD	0	1	1.57660508156	None	None	None	None	1
1.7	2015_Jul_31_1033	s	s	7	3	SIC	59	ABS	0	1	24RO	0	1	4.98994708061	None	None	None	None	1
1.7	2015_Jul_31_1033	s	s	7	3	SIC	60	ABS	1	1	24MO	0	1	3.48093295097	None	None	None	None	1
1.7	2015_Jul_31_1033	s	s	7	3	SIC	61	ABS	1	0	24MC	0	1	5.18504500389	None	None	None	None	1
1.7	2015_Jul_31_1033	s	s	7	3	SIC	62	RC	2	2	23VD	1	0	0.658499002457	-522.0	198.0	-519	200	1
1.7	2015_Jul_31_1033	s	s	7	3	SIC	63	RC	1	1	23MO	1	0	1.1027879715	-521.0	-226.0	-517	-225	1
1.7	2015_Jul_31_1033	s	s	7	3	SIC	64	ABS	2	2	24VD	0	1	0.776213884354	None	None	None	None	1
1.7	2015_Jul_31_1033	s	s	7	3	SIC	65	RC	1	1	23MO	1	0	0.933005094528	-215.0	327.0	-211	333	1
1.7	2015_Jul_31_1033	s	s	7	3	SIC	66	RC	1	2	23MD	1	0	0.773754119873	391.0	259.0	386	260	1
1.7	2015_Jul_31_1033	s	s	7	3	SIC	67	ABS	2	2	24VD	0	1	1.12934207916	None	None	None	None	1
1.7	2015_Jul_31_1033	s	s	7	3	SIC	68	ABS	0	1	24RO	0	1	5.6794500351	None	None	None	None	1
1.7	2015_Jul_31_1033	s	s	7	3	SIC	69	RC	2	1	23VO	1	0	0.882176876068	461.0	-378.0	462	-377	1
1.7	2015_Jul_31_1033	s	s	7	3	SIC	70	RC	0	2	23RD	1	0	0.893968105316	-52.0	99.0	-47	101	1
1.7	2015_Jul_31_1033	s	s	7	3	SIC	71	RC	1	0	23MC	1	0	1.40004301071	415.0	196.0	408	195	1
1.7	2015_Jul_31_1033	s	s	7	3	SIC	72	ABS	2	0	24VC	0	1	0.91753911972	None	None	None	None	1
1.7	2015_Jul_31_1033	s	s	7	3	SIC	73	ABS	2	1	24VO	0	1	2.16879820824	None	None	None	None	1
1.7	2015_Jul_31_1033	s	s	7	3	SIC	74	ABS	1	1	24MO	0	1	3.64374995232	None	None	None	None	1
1.7	2015_Jul_31_1033	s	s	7	3	SIC	75	RC	2	2	23VD	1	0	0.712765932083	-415.0	4.0	-411	2	1
1.7	2015_Jul_31_1033	s	s	7	3	SIC	76	ABS	1	2	24MD	0	1	1.43028593063	None	None	None	None	1
1.7	2015_Jul_31_1033	s	s	7	3	SIC	77	RC	0	1	23RO	1	0	3.52484512329	215.0	228.0	210	229	1
1.7	2015_Jul_31_1033	s	s	7	3	SIC	78	ABS	0	2	24RD	0	1	2.25934195518	None	None	None	None	1
1.7	2015_Jul_31_1033	s	s	7	3	SIC	79	RC	2	0	23VC	1	0	1.30089616776	238.0	-176.0	242	-172	1
1.7	2015_Jul_31_1033	s	s	7	3	SIC	80	ABS	1	0	24MC	0	1	6.37390518188	None	None	None	None	1
1.7	2015_Jul_31_1033	s	s	7	3	SIC	81	RC	1	2	23MD	1	0	0.799823999405	-18.0	309.0	-23	306	1
1.7	2015_Jul_31_1033	s	s	7	3	SIC	82	RC	0	1	23RO	1	0	3.07838392258	-286.0	-274.0	-288	-274	1
1.7	2015_Jul_31_1033	s	s	7	3	SIC	83	RC	1	0	23MC	1	0	6.44946312904	-514.0	368.0	-512	368	1
1.7	2015_Jul_31_1033	s	s	7	3	SIC	84	ABS	2	2	24VD	0	1	3.71377491951	None	None	None	None	1
1.7	2015_Jul_31_1033	s	s	7	3	SIC	85	RC	1	1	23MO	1	0	1.54116201401	-214.0	-343.0	-207	-340	1
1.7	2015_Jul_31_1033	s	s	7	3	SIC	86	RC	2	2	23VD	1	0	1.35981202126	254.0	-213.0	250	-220	1
1.7	2015_Jul_31_1033	s	s	7	3	SIC	87	ABS	1	0	24MC	0	1	5.71485614777	None	None	None	None	1
1.7	2015_Jul_31_1033	s	s	7	3	SIC	88	RC	0	2	23RD	1	0	0.893869876862	-403.0	-301.0	-404	-299	1
1.7	2015_Jul_31_1033	s	s	7	3	SIC	89	RC	2	0	23VC	1	0	0.673977851868	-113.0	-144.0	-116	-138	1
1.7	2015_Jul_31_1033	s	s	7	3	SIC	90	ABS	1	1	24MO	0	1	3.36082196236	None	None	None	None	1
1.7	2015_Jul_31_1033	s	s	7	3	SIC	91	ABS	0	2	24RD	0	1	2.40734601021	None	None	None	None	1
1.7	2015_Jul_31_1033	s	s	7	3	SIC	92	ABS	1	2	24MD	0	1	2.13655090332	None	None	None	None	1
1.7	2015_Jul_31_1033	s	s	7	3	SIC	93	ABS	2	1	24VO	0	1	1.18301606178	None	None	None	None	1
1.7	2015_Jul_31_1033	s	s	7	3	SIC	94	ABS	2	0	24VC	0	1	1.30326890945	None	None	None	None	1
1.7	2015_Jul_31_1033	s	s	7	3	SIC	95	RC	2	1	23VO	1	0	0.764375925064	207.0	-202.0	207	-212	1
1.7	2015_Jul_31_1033	s	s	7	3	SIC	96	ABS	0	1	24RO	0	1	5.09597611427	None	None	None	None	1
1.7	2015_Jul_31_1033	s	s	7	3	SIC	97	RC	1	2	23MD	1	0	0.724210977554	172.0	241.0	166	244	1
1.7	2015_Jul_31_1033	s	s	7	3	SIC	98	ABS	1	0	24MC	0	1	3.94252490997	None	None	None	None	1
1.7	2015_Jul_31_1033	s	s	7	3	SIC	99	RC	2	0	23VC	1	0	0.900864839554	-65.0	284.0	-65	287	1
1.7	2015_Jul_31_1033	s	s	7	3	SIC	100	RC	0	2	23RD	1	0	1.76495409012	379.0	391.0	386	395	1
1.7	2015_Jul_31_1033	s	s	7	3	SIC	101	RC	1	1	23MO	1	0	1.87083005905	-531.0	32.0	-536	25	1
1.7	2015_Jul_31_1033	s	s	7	3	SIC	102	RC	2	2	23VD	1	0	0.658548116684	-450.0	123.0	-457	123	1
1.7	2015_Jul_31_1033	s	s	7	3	SIC	103	ABS	1	1	24MO	0	1	5.04084300995	None	None	None	None	1
1.7	2015_Jul_31_1033	s	s	7	3	SIC	104	ABS	0	1	24RO	0	1	5.77344608307	None	None	None	None	1
1.7	2015_Jul_31_1033	s	s	7	3	SIC	105	ABS	2	0	24VC	0	1	1.72500777245	None	None	None	None	1
1.7	2015_Jul_31_1033	s	s	7	3	SIC	106	RC	2	1	23VO	1	0	0.882117033005	-324.0	-22.0	-314	-19	1
1.7	2015_Jul_31_1033	s	s	7	3	SIC	107	RC	1	0	23MC	1	0	2.45443511009	-135.0	-259.0	-134	-259	1
1.7	2015_Jul_31_1033	s	s	7	3	SIC	108	ABS	1	2	24MD	0	1	1.62354111671	None	None	None	None	1
1.7	2015_Jul_31_1033	s	s	7	3	SIC	109	ABS	2	2	24VD	0	1	1.17650794983	None	None	None	None	1
1.7	2015_Jul_31_1033	s	s	7	3	SIC	110	RC	0	1	23RO	1	0	4.6201851368	248.0	-273.0	253	-272	1
1.7	2015_Jul_31_1033	s	s	7	3	SIC	111	ABS	0	2	24RD	0	1	1.84737992287	None	None	None	None	1
1.7	2015_Jul_31_1033	s	s	7	3	SIC	112	ABS	2	1	24VO	0	1	2.18869590759	None	None	None	None	1
1.7	2015_Jul_31_1033	s	s	7	3	SIC	113	RC	1	2	23MD	1	0	0.70552611351	-362.0	-57.0	-358	-65	1
1.7	2015_Jul_31_1033	s	s	7	3	SIC	114	RC	1	0	23MC	1	0	2.45329403877	159.0	359.0	159	364	1
1.7	2015_Jul_31_1033	s	s	7	3	SIC	115	ABS	1	1	24MO	0	1	2.69519209862	None	None	None	None	1
1.7	2015_Jul_31_1033	s	s	7	3	SIC	116	ABS	1	2	24MD	0	1	2.41235399246	None	None	None	None	1
1.7	2015_Jul_31_1033	s	s	7	3	SIC	117	ABS	0	2	24RD	0	1	2.21222186089	None	None	None	None	1
1.7	2015_Jul_31_1033	s	s	7	3	SIC	118	ABS	2	2	24VD	0	1	1.11356496811	None	None	None	None	1
1.7	2015_Jul_31_1033	s	s	7	3	SIC	119	RC	2	2	23VD	1	0	0.705598831177	-191.0	-20.0	-187	-26	1
1.7	2015_Jul_31_1033	s	s	7	3	SIC	120	RC	0	1	23RO	0	1	9.23110485077	252.0	-201.0	None	None	0
1.7	2015_Jul_31_1033	s	s	7	3	SIC	121	RC	1	1	23MO	1	0	1.19993305206	466.0	32.0	467	29	1
1.7	2015_Jul_31_1033	s	s	7	3	SIC	122	RC	0	2	23RD	1	0	0.818189144135	-287.0	-226.0	-285	-225	1
1.7	2015_Jul_31_1033	s	s	7	3	SIC	123	RC	2	0	23VC	1	0	0.583091974258	-394.0	-23.0	-393	-18	1
1.7	2015_Jul_31_1033	s	s	7	3	SIC	124	ABS	0	1	24RO	0	1	4.94030690193	None	None	None	None	1
1.7	2015_Jul_31_1033	s	s	7	3	SIC	125	ABS	2	1	24VO	0	1	0.965015888214	None	None	None	None	1
1.7	2015_Jul_31_1033	s	s	7	3	SIC	126	ABS	1	0	24MC	0	1	2.93851208687	None	None	None	None	1
1.7	2015_Jul_31_1033	s	s	7	3	SIC	127	ABS	2	0	24VC	0	1	2.04398608208	None	None	None	None	1
1.7	2015_Jul_31_1033	s	s	7	3	SIC	128	RC	2	1	23VO	1	0	0.717291116714	34.0	-380.0	31	-380	1
1.7	2015_Jul_31_1033	s	s	7	3	SIC	129	ABS	1	2	24MD	0	1	1.34117007256	None	None	None	None	1
1.7	2015_Jul_31_1033	s	s	7	3	SIC	130	RC	0	2	23RD	1	0	0.735872983932	-4.0	-29.0	-9	-20	1
1.7	2015_Jul_31_1033	s	s	7	3	SIC	131	RC	2	2	23VD	1	0	0.796401023865	-478.0	356.0	-482	363	1
1.7	2015_Jul_31_1033	s	s	7	3	SIC	132	RC	0	1	23RO	1	0	3.64205098152	-155.0	-218.0	-149	-217	1
1.7	2015_Jul_31_1033	s	s	7	3	SIC	133	RC	2	1	23VO	1	0	0.747678041458	-460.0	325.0	-460	325	1
1.7	2015_Jul_31_1033	s	s	7	3	SIC	134	ABS	1	1	24MO	0	1	2.93647003174	None	None	None	None	1
1.7	2015_Jul_31_1033	s	s	7	3	SIC	135	ABS	0	1	24RO	0	1	6.14015007019	None	None	None	None	1
1.7	2015_Jul_31_1033	s	s	7	3	SIC	136	RC	1	0	23MC	1	0	0.830132961273	26.0	193.0	31	202	1
1.7	2015_Jul_31_1033	s	s	7	3	SIC	137	RC	1	2	23MD	1	0	1.02345490456	-476.0	-213.0	-477	-209	1
1.7	2015_Jul_31_1033	s	s	7	3	SIC	138	ABS	2	0	24VC	0	1	1.24690198898	None	None	None	None	1
1.7	2015_Jul_31_1033	s	s	7	3	SIC	139	ABS	1	0	24MC	0	1	4.54975986481	None	None	None	None	1
1.7	2015_Jul_31_1033	s	s	7	3	SIC	140	RC	1	1	23MO	1	0	1.78846216202	0.0	-247.0	10	-249	1
1.7	2015_Jul_31_1033	s	s	7	3	SIC	141	ABS	2	1	24VO	0	1	1.64276814461	None	None	None	None	1
1.7	2015_Jul_31_1033	s	s	7	3	SIC	142	RC	2	0	23VC	1	0	0.736103057861	-254.0	-277.0	-244	-275	1
1.7	2015_Jul_31_1033	s	s	7	3	SIC	143	ABS	0	2	24RD	0	1	2.10629916191	None	None	None	None	1
1.7	2015_Jul_31_1033	s	s	7	3	SIC	144	ABS	2	2	24VD	0	1	2.41227793694	None	None	None	None	1
1.7	2015_Jul_31_1033	s	s	7	3	SIC	145	ABS	2	2	24VD	0	1	0.876528978348	None	None	None	None	1
1.7	2015_Jul_31_1033	s	s	7	3	SIC	146	ABS	2	0	24VC	0	1	1.08227086067	None	None	None	None	1
1.7	2015_Jul_31_1033	s	s	7	3	SIC	147	RC	1	2	23MD	1	0	0.793579101562	70.0	342.0	71	344	1
1.7	2015_Jul_31_1033	s	s	7	3	SIC	148	ABS	1	2	24MD	0	1	3.7136080265	None	None	None	None	1
1.7	2015_Jul_31_1033	s	s	7	3	SIC	149	RC	0	2	23RD	1	0	0.72100186348	-285.0	-335.0	-280	-335	1
1.7	2015_Jul_31_1033	s	s	7	3	SIC	150	RC	1	0	23MC	1	0	1.75320410728	466.0	-224.0	464	-233	1
1.7	2015_Jul_31_1033	s	s	7	3	SIC	151	ABS	1	0	24MC	0	1	3.54224991798	None	None	None	None	1
1.7	2015_Jul_31_1033	s	s	7	3	SIC	152	ABS	2	1	24VO	0	1	0.988136053085	None	None	None	None	1
1.7	2015_Jul_31_1033	s	s	7	3	SIC	153	ABS	0	2	24RD	0	1	1.2206029892	None	None	None	None	1
1.7	2015_Jul_31_1033	s	s	7	3	SIC	154	RC	2	2	23VD	1	0	0.724142074585	-187.0	-93.0	-187	-95	1
1.7	2015_Jul_31_1033	s	s	7	3	SIC	155	RC	2	1	23VO	1	0	2.07974600792	133.0	292.0	142	297	1
1.7	2015_Jul_31_1033	s	s	7	3	SIC	156	RC	1	1	23MO	1	0	1.63540506363	-200.0	308.0	-195	317	1
1.7	2015_Jul_31_1033	s	s	7	3	SIC	157	RC	2	0	23VC	1	0	0.576035022736	123.0	261.0	130	263	1
1.7	2015_Jul_31_1033	s	s	7	3	SIC	158	RC	0	1	23RO	1	0	2.77717614174	413.0	122.0	422	124	1
1.7	2015_Jul_31_1033	s	s	7	3	SIC	159	ABS	0	1	24RO	0	1	4.6133441925	None	None	None	None	1
1.7	2015_Jul_31_1033	s	s	7	3	SIC	160	ABS	1	1	24MO	0	1	4.51470303535	None	None	None	None	1
1.7	2015_Jul_31_1033	s	s	7	3	SIC	161	RC	1	0	23MC	1	0	3.23217511177	109.0	383.0	109	386	1
1.7	2015_Jul_31_1033	s	s	7	3	SIC	162	ABS	1	1	24MO	0	1	3.81996202469	None	None	None	None	1
1.7	2015_Jul_31_1033	s	s	7	3	SIC	163	ABS	2	0	24VC	0	1	0.867216110229	None	None	None	None	1
1.7	2015_Jul_31_1033	s	s	7	3	SIC	164	ABS	2	2	24VD	0	1	0.653527975082	None	None	None	None	1
1.7	2015_Jul_31_1033	s	s	7	3	SIC	165	ABS	0	1	24RO	0	1	4.50249099731	None	None	None	None	1
1.7	2015_Jul_31_1033	s	s	7	3	SIC	166	RC	2	1	23VO	1	0	0.925477027893	453.0	208.0	458	208	1
1.7	2015_Jul_31_1033	s	s	7	3	SIC	167	RC	2	2	23VD	1	0	0.741276025772	-393.0	411.0	-397	410	1
1.7	2015_Jul_31_1033	s	s	7	3	SIC	168	RC	1	1	23MO	1	0	1.44177699089	487.0	262.0	486	264	1
1.7	2015_Jul_31_1033	s	s	7	3	SIC	169	ABS	0	2	24RD	0	1	1.07060289383	None	None	None	None	1
1.7	2015_Jul_31_1033	s	s	7	3	SIC	170	RC	2	0	23VC	1	0	0.688206911087	492.0	233.0	491	236	1
1.7	2015_Jul_31_1033	s	s	7	3	SIC	171	ABS	1	2	24MD	0	1	3.30191802979	None	None	None	None	1
1.7	2015_Jul_31_1033	s	s	7	3	SIC	172	RC	1	2	23MD	1	0	0.634960174561	182.0	116.0	179	115	1
1.7	2015_Jul_31_1033	s	s	7	3	SIC	173	RC	0	1	23RO	1	0	1.28233003616	125.0	23.0	117	21	1
1.7	2015_Jul_31_1033	s	s	7	3	SIC	174	ABS	2	1	24VO	0	1	0.799843072891	None	None	None	None	1
1.7	2015_Jul_31_1033	s	s	7	3	SIC	175	RC	0	2	23RD	1	0	0.958645820618	456.0	367.0	461	362	1
1.7	2015_Jul_31_1033	s	s	7	3	SIC	176	ABS	1	0	24MC	0	1	3.30355000496	None	None	None	None	1
1.7	2015_Jul_31_1033	s	s	7	3	SIC	177	ABS	1	1	24MO	0	1	3.2781419754	None	None	None	None	1
1.7	2015_Jul_31_1033	s	s	7	3	SIC	178	RC	2	2	23VD	1	0	0.611470937729	354.0	234.0	352	235	1
1.7	2015_Jul_31_1033	s	s	7	3	SIC	179	ABS	1	2	24MD	0	1	0.905696868896	None	None	None	None	1
1.7	2015_Jul_31_1033	s	s	7	3	SIC	180	RC	1	0	23MC	1	0	1.81210494041	-360.0	-211.0	-365	-212	1
1.7	2015_Jul_31_1033	s	s	7	3	SIC	181	RC	2	1	23VO	1	0	1.41870999336	28.0	-288.0	29	-289	1
1.7	2015_Jul_31_1033	s	s	7	3	SIC	182	ABS	0	2	24RD	0	1	1.03036808968	None	None	None	None	1
1.7	2015_Jul_31_1033	s	s	7	3	SIC	183	RC	0	1	23RO	1	0	6.34366679192	524.0	-127.0	525	-122	1
1.7	2015_Jul_31_1033	s	s	7	3	SIC	184	ABS	1	0	24MC	0	1	5.02045297623	None	None	None	None	1
1.7	2015_Jul_31_1033	s	s	7	3	SIC	185	ABS	2	0	24VC	0	1	1.33916807175	None	None	None	None	1
1.7	2015_Jul_31_1033	s	s	7	3	SIC	186	ABS	0	1	24RO	0	1	4.97566699982	None	None	None	None	1
1.7	2015_Jul_31_1033	s	s	7	3	SIC	187	RC	1	1	23MO	1	0	1.33720111847	-49.0	345.0	-43	347	1
1.7	2015_Jul_31_1033	s	s	7	3	SIC	188	RC	0	2	23RD	1	0	0.829874038696	22.0	401.0	26	405	1
1.7	2015_Jul_31_1033	s	s	7	3	SIC	189	ABS	2	1	24VO	0	1	1.52436804771	None	None	None	None	1
1.7	2015_Jul_31_1033	s	s	7	3	SIC	190	RC	1	2	23MD	1	0	0.667507171631	140.0	-289.0	134	-297	1
1.7	2015_Jul_31_1033	s	s	7	3	SIC	191	ABS	2	2	24VD	0	1	0.787728071213	None	None	None	None	1
1.7	2015_Jul_31_1033	s	s	7	3	SIC	192	RC	2	0	23VC	1	0	0.693791866302	-484.0	43.0	-484	43	1
1.7	2015_Jul_31_1033	s	s	7	3	SIC	193	ABS	1	2	24MD	0	1	1.21170210838	None	None	None	None	1
1.7	2015_Jul_31_1033	s	s	7	3	SIC	194	ABS	0	1	24RO	0	1	5.73164510727	None	None	None	None	1
1.7	2015_Jul_31_1033	s	s	7	3	SIC	195	ABS	1	0	24MC	0	1	9.12157797813	None	None	None	None	1
1.7	2015_Jul_31_1033	s	s	7	3	SIC	196	ABS	2	2	24VD	0	1	0.700616836548	None	None	None	None	1
1.7	2015_Jul_31_1033	s	s	7	3	SIC	197	ABS	2	0	24VC	0	1	0.937717914581	None	None	None	None	1
1.7	2015_Jul_31_1033	s	s	7	3	SIC	198	RC	2	0	23VC	1	0	0.77134013176	477.0	-125.0	480	-125	1
1.7	2015_Jul_31_1033	s	s	7	3	SIC	199	RC	2	2	23VD	1	0	0.608054876328	335.0	398.0	343	398	1
1.7	2015_Jul_31_1033	s	s	7	3	SIC	200	RC	1	0	23MC	1	0	0.81834602356	-181.0	180.0	-172	177	1
1.7	2015_Jul_31_1033	s	s	7	3	SIC	201	RC	0	2	23RD	1	0	0.587869167328	241.0	-145.0	247	-142	1
1.7	2015_Jul_31_1033	s	s	7	3	SIC	202	ABS	1	1	24MO	0	1	3.9014980793	None	None	None	None	1
1.7	2015_Jul_31_1033	s	s	7	3	SIC	203	ABS	0	2	24RD	0	1	1.04697799683	None	None	None	None	1
1.7	2015_Jul_31_1033	s	s	7	3	SIC	204	RC	2	1	23VO	1	0	0.702852964401	526.0	304.0	532	301	1
1.7	2015_Jul_31_1033	s	s	7	3	SIC	205	RC	0	1	23RO	1	0	1.38814282417	-105.0	-140.0	-103	-137	1
1.7	2015_Jul_31_1033	s	s	7	3	SIC	206	RC	1	2	23MD	1	0	0.617500066757	147.0	-203.0	143	-201	1
1.7	2015_Jul_31_1033	s	s	7	3	SIC	207	RC	1	1	23MO	1	0	0.947427034378	-388.0	-98.0	-382	-103	1
1.7	2015_Jul_31_1033	s	s	7	3	SIC	208	ABS	2	1	24VO	0	1	0.851016044617	None	None	None	None	1
1.7	2015_Jul_31_1033	s	s	7	3	SIC	209	ABS	0	2	24RD	0	1	1.95021605492	None	None	None	None	1
1.7	2015_Jul_31_1033	s	s	7	3	SIC	210	ABS	1	2	24MD	0	1	0.891138076782	None	None	None	None	1
1.7	2015_Jul_31_1033	s	s	7	3	SIC	211	ABS	1	0	24MC	0	1	3.23637294769	None	None	None	None	1
1.7	2015_Jul_31_1033	s	s	7	3	SIC	212	ABS	2	1	24VO	0	1	0.699179887772	None	None	None	None	1
1.7	2015_Jul_31_1033	s	s	7	3	SIC	213	ABS	1	1	24MO	0	1	3.23628115654	None	None	None	None	1
1.7	2015_Jul_31_1033	s	s	7	3	SIC	214	ABS	2	0	24VC	0	1	0.564368963242	None	None	None	None	1
1.7	2015_Jul_31_1033	s	s	7	3	SIC	215	RC	0	2	23RD	1	0	0.925403118134	-386.0	376.0	-385	375	1
1.7	2015_Jul_31_1033	s	s	7	3	SIC	216	RC	0	1	23RO	1	0	2.56983494759	343.0	198.0	341	202	1
1.7	2015_Jul_31_1033	s	s	7	3	SIC	217	RC	1	1	23MO	1	0	1.23025798798	523.0	164.0	523	166	1
1.7	2015_Jul_31_1033	s	s	7	3	SIC	218	RC	2	2	23VD	1	0	0.570638895035	327.0	61.0	328	62	1
1.7	2015_Jul_31_1033	s	s	7	3	SIC	219	RC	2	1	23VO	1	0	0.547858953476	451.0	79.0	460	83	1
1.7	2015_Jul_31_1033	s	s	7	3	SIC	220	ABS	2	2	24VD	0	1	0.799772977829	None	None	None	None	1
1.7	2015_Jul_31_1033	s	s	7	3	SIC	221	RC	1	0	23MC	1	0	2.76140499115	-396.0	206.0	-399	209	1
1.7	2015_Jul_31_1033	s	s	7	3	SIC	222	ABS	0	1	24RO	0	1	5.67949390411	None	None	None	None	1
1.7	2015_Jul_31_1033	s	s	7	3	SIC	223	RC	1	2	23MD	1	0	0.729147911072	4.0	-357.0	-6	-355	1
1.7	2015_Jul_31_1033	s	s	7	3	SIC	224	RC	2	0	23VC	1	0	0.60565495491	71.0	237.0	69	236	1
1.7	2015_Jul_31_1033	s	s	7	3	SIC	225	RC	1	2	23MD	1	0	1.48239994049	-534.0	-358.0	-537	-359	1
1.7	2015_Jul_31_1033	s	s	7	3	SIC	226	ABS	1	0	24MC	0	1	5.57866215706	None	None	None	None	1
1.7	2015_Jul_31_1033	s	s	7	3	SIC	227	ABS	2	1	24VO	0	1	1.01846194267	None	None	None	None	1
1.7	2015_Jul_31_1033	s	s	7	3	SIC	228	RC	1	0	23MC	1	0	0.900765180588	-78.0	-177.0	-79	-175	1
1.7	2015_Jul_31_1033	s	s	7	3	SIC	229	RC	1	1	23MO	1	0	3.33038878441	397.0	289.0	391	284	1
1.7	2015_Jul_31_1033	s	s	7	3	SIC	230	ABS	2	2	24VD	0	1	0.646740913391	None	None	None	None	1
1.7	2015_Jul_31_1033	s	s	7	3	SIC	231	ABS	2	0	24VC	0	1	0.585414886475	None	None	None	None	1
1.7	2015_Jul_31_1033	s	s	7	3	SIC	232	RC	0	2	23RD	1	0	0.650401115417	-109.0	-183.0	-113	-183	1
1.7	2015_Jul_31_1033	s	s	7	3	SIC	233	ABS	1	2	24MD	0	1	0.99985408783	None	None	None	None	1
1.7	2015_Jul_31_1033	s	s	7	3	SIC	234	RC	2	2	23VD	1	0	0.635375976562	93.0	-21.0	94	-18	1
1.7	2015_Jul_31_1033	s	s	7	3	SIC	235	ABS	1	1	24MO	0	1	3.69515585899	None	None	None	None	1
1.7	2015_Jul_31_1033	s	s	7	3	SIC	236	RC	2	1	23VO	1	0	0.68212389946	368.0	-89.0	380	-87	1
1.7	2015_Jul_31_1033	s	s	7	3	SIC	237	RC	2	0	23VC	1	0	0.682068824768	228.0	-368.0	226	-371	1
1.7	2015_Jul_31_1033	s	s	7	3	SIC	238	ABS	0	2	24RD	0	1	1.23521995544	None	None	None	None	1
1.7	2015_Jul_31_1033	s	s	7	3	SIC	239	RC	0	1	23RO	1	0	3.63649892807	65.0	188.0	69	187	1
1.7	2015_Jul_31_1033	s	s	7	3	SIC	240	ABS	0	1	24RO	0	1	4.27211999893	None	None	None	None	1
1.7	2015_Jul_31_1033	s	s	7	3	SIC	241	ABS	1	0	24MC	0	1	2.68997311592	None	None	None	None	1
1.7	2015_Jul_31_1033	s	s	7	3	SIC	242	RC	2	1	23VO	1	0	0.687904834747	78.0	-203.0	82	-204	1
1.7	2015_Jul_31_1033	s	s	7	3	SIC	243	RC	0	1	23RO	1	0	2.31545901299	-144.0	-263.0	-148	-269	1
1.7	2015_Jul_31_1033	s	s	7	3	SIC	244	RC	1	0	23MC	1	0	3.95424699783	-454.0	-264.0	-450	-266	1
1.7	2015_Jul_31_1033	s	s	7	3	SIC	245	ABS	2	2	24VD	0	1	0.618342161179	None	None	None	None	1
1.7	2015_Jul_31_1033	s	s	7	3	SIC	246	RC	1	2	23MD	1	0	0.653614997864	164.0	-85.0	161	-84	1
1.7	2015_Jul_31_1033	s	s	7	3	SIC	247	ABS	1	2	24MD	0	1	1.12935495377	None	None	None	None	1
1.7	2015_Jul_31_1033	s	s	7	3	SIC	248	ABS	2	0	24VC	0	1	0.620004892349	None	None	None	None	1
1.7	2015_Jul_31_1033	s	s	7	3	SIC	249	ABS	2	1	24VO	0	1	0.646780967712	None	None	None	None	1
1.7	2015_Jul_31_1033	s	s	7	3	SIC	250	ABS	0	2	24RD	0	1	1.1949801445	None	None	None	None	1
1.7	2015_Jul_31_1033	s	s	7	3	SIC	251	ABS	0	1	24RO	0	1	4.23228788376	None	None	None	None	1
1.7	2015_Jul_31_1033	s	s	7	3	SIC	252	RC	1	1	23MO	1	0	1.8473918438	361.0	-336.0	365	-338	1
1.7	2015_Jul_31_1033	s	s	7	3	SIC	253	RC	2	2	23VD	1	0	0.676917076111	-17.0	334.0	-18	338	1
1.7	2015_Jul_31_1033	s	s	7	3	SIC	254	RC	2	0	23VC	1	0	0.783560037613	450.0	280.0	444	275	1
1.7	2015_Jul_31_1033	s	s	7	3	SIC	255	RC	0	2	23RD	1	0	0.641920089722	-338.0	174.0	-337	175	1
1.7	2015_Jul_31_1033	s	s	7	3	SIC	256	ABS	1	1	24MO	0	1	4.10232400894	None	None	None	None	1
1.7	2015_Jul_31_1033	s	s	7	3	SIC	257	RC	1	2	23MD	1	0	0.886285066605	438.0	154.0	432	152	1
1.7	2015_Jul_31_1033	s	s	7	3	SIC	258	ABS	2	0	24VC	0	1	0.705487966537	None	None	None	None	1
1.7	2015_Jul_31_1033	s	s	7	3	SIC	259	ABS	1	0	24MC	0	1	3.53048300743	None	None	None	None	1
1.7	2015_Jul_31_1033	s	s	7	3	SIC	260	ABS	0	2	24RD	0	1	1.10079693794	None	None	None	None	1
1.7	2015_Jul_31_1033	s	s	7	3	SIC	261	ABS	2	1	24VO	0	1	0.983117103577	None	None	None	None	1
1.7	2015_Jul_31_1033	s	s	7	3	SIC	262	RC	1	0	23MC	1	0	1.0775821209	-209.0	-240.0	-212	-242	1
1.7	2015_Jul_31_1033	s	s	7	3	SIC	263	RC	0	2	23RD	1	0	0.62961602211	269.0	-144.0	269	-142	1
1.7	2015_Jul_31_1033	s	s	7	3	SIC	264	ABS	1	2	24MD	0	1	1.27056908607	None	None	None	None	1
1.7	2015_Jul_31_1033	s	s	7	3	SIC	265	ABS	0	1	24RO	0	1	6.79158091545	None	None	None	None	1
1.7	2015_Jul_31_1033	s	s	7	3	SIC	266	RC	2	1	23VO	1	0	0.670301914215	354.0	-47.0	358	-45	1
1.7	2015_Jul_31_1033	s	s	7	3	SIC	267	RC	0	1	23RO	1	0	3.24803209305	-413.0	-410.0	-412	-406	1
1.7	2015_Jul_31_1033	s	s	7	3	SIC	268	RC	1	1	23MO	1	0	0.68208193779	-255.0	-47.0	-262	-43	1
1.7	2015_Jul_31_1033	s	s	7	3	SIC	269	RC	2	0	23VC	1	0	0.535312175751	298.0	-142.0	295	-133	1
1.7	2015_Jul_31_1033	s	s	7	3	SIC	270	ABS	1	1	24MO	0	1	5.34319400787	None	None	None	None	1
1.7	2015_Jul_31_1033	s	s	7	3	SIC	271	ABS	2	2	24VD	0	1	0.799803972244	None	None	None	None	1
1.7	2015_Jul_31_1033	s	s	7	3	SIC	272	RC	2	2	23VD	1	0	0.618539094925	378.0	144.0	382	146	1
1.7	2015_Jul_31_1033	s	s	7	3	SIC	273	ABS	1	2	24MD	0	1	0.89092206955	None	None	None	None	1
1.7	2015_Jul_31_1033	s	s	7	3	SIC	274	RC	1	1	23MO	1	0	1.17659401894	363.0	-77.0	359	-77	1
1.7	2015_Jul_31_1033	s	s	7	3	SIC	275	RC	1	0	23MC	1	0	1.02342295647	245.0	-28.0	242	-33	1
1.7	2015_Jul_31_1033	s	s	7	3	SIC	276	RC	2	0	23VC	1	0	0.593909978867	96.0	-361.0	94	-367	1
1.7	2015_Jul_31_1033	s	s	7	3	SIC	277	ABS	2	2	24VD	0	1	0.705631017685	None	None	None	None	1
1.7	2015_Jul_31_1033	s	s	7	3	SIC	278	ABS	2	1	24VO	0	1	0.87024307251	None	None	None	None	1
1.7	2015_Jul_31_1033	s	s	7	3	SIC	279	RC	1	2	23MD	1	0	0.693797826767	69.0	12.0	69	6	1
1.7	2015_Jul_31_1033	s	s	7	3	SIC	280	RC	0	1	23RO	1	0	3.54897212982	105.0	284.0	107	282	1
1.7	2015_Jul_31_1033	s	s	7	3	SIC	281	RC	2	1	23VO	1	0	0.576063871384	-96.0	34.0	-94	27	1
1.7	2015_Jul_31_1033	s	s	7	3	SIC	282	ABS	1	1	24MO	0	1	2.23238897324	None	None	None	None	1
1.7	2015_Jul_31_1033	s	s	7	3	SIC	283	ABS	0	1	24RO	0	1	3.87186813354	None	None	None	None	1
1.7	2015_Jul_31_1033	s	s	7	3	SIC	284	RC	2	2	23VD	1	0	0.771095991135	350.0	-74.0	349	-65	1
1.7	2015_Jul_31_1033	s	s	7	3	SIC	285	RC	0	2	23RD	1	0	0.564249038696	383.0	42.0	391	47	1
1.7	2015_Jul_31_1033	s	s	7	3	SIC	286	ABS	2	0	24VC	0	1	1.29410815239	None	None	None	None	1
1.7	2015_Jul_31_1033	s	s	7	3	SIC	287	ABS	1	0	24MC	0	1	1.99218702316	None	None	None	None	1
1.7	2015_Jul_31_1033	s	s	7	3	SIC	288	ABS	0	2	24RD	0	1	1.36477398872	None	None	None	None	1
1.7	2015_Jul_31_1033	s	s	7	3	SIC	289	RC	2	0	23VC	1	0	0.941017866135	241.0	169.0	237	172	1
1.7	2015_Jul_31_1033	s	s	7	3	SIC	290	ABS	1	1	24MO	0	1	2.73686599731	None	None	None	None	1
1.7	2015_Jul_31_1033	s	s	7	3	SIC	291	RC	1	1	23MO	1	0	0.761723041534	321.0	-140.0	317	-144	1
1.7	2015_Jul_31_1033	s	s	7	3	SIC	292	ABS	2	1	24VO	0	1	0.806433200836	None	None	None	None	1
1.7	2015_Jul_31_1033	s	s	7	3	SIC	293	RC	1	2	23MD	1	0	0.582195997238	-275.0	-260.0	-274	-262	1
1.7	2015_Jul_31_1033	s	s	7	3	SIC	294	RC	2	2	23VD	1	0	0.523854017258	37.0	-180.0	36	-183	1
1.7	2015_Jul_31_1033	s	s	7	3	SIC	295	RC	0	2	23RD	1	0	0.608911037445	471.0	-241.0	466	-244	1
1.7	2015_Jul_31_1033	s	s	7	3	SIC	296	ABS	1	0	24MC	0	1	3.74239110947	None	None	None	None	1
1.7	2015_Jul_31_1033	s	s	7	3	SIC	297	ABS	2	0	24VC	0	1	2.7838139534	None	None	None	None	1
1.7	2015_Jul_31_1033	s	s	7	3	SIC	298	ABS	0	2	24RD	0	1	1.12345480919	None	None	None	None	1
1.7	2015_Jul_31_1033	s	s	7	3	SIC	299	ABS	1	2	24MD	0	1	2.03565692902	None	None	None	None	1
1.7	2015_Jul_31_1033	s	s	7	3	SIC	300	ABS	2	2	24VD	0	1	1.28239202499	None	None	None	None	1
1.7	2015_Jul_31_1033	s	s	7	3	SIC	301	RC	2	1	23VO	1	0	0.776180028915	90.0	187.0	85	184	1
1.7	2015_Jul_31_1033	s	s	7	3	SIC	302	RC	0	1	23RO	1	0	5.31967186928	409.0	-192.0	399	-190	1
1.7	2015_Jul_31_1033	s	s	7	3	SIC	303	RC	1	0	23MC	1	0	1.81577110291	394.0	-193.0	389	-201	1
1.7	2015_Jul_31_1033	s	s	7	3	SIC	304	ABS	0	1	24RO	0	1	3.85517215729	None	None	None	None	1
1.7	2015_Jul_31_1033	s	s	7	3	SIC	305	ABS	2	0	24VC	0	1	0.842262983322	None	None	None	None	1
1.7	2015_Jul_31_1033	s	s	7	3	SIC	306	RC	2	1	23VO	1	0	0.529415845871	-70.0	315.0	-70	314	1
1.7	2015_Jul_31_1033	s	s	7	3	SIC	307	ABS	2	1	24VO	0	1	0.62323307991	None	None	None	None	1
1.7	2015_Jul_31_1033	s	s	7	3	SIC	308	RC	1	1	23MO	1	0	0.941411972046	70.0	-318.0	62	-324	1
1.7	2015_Jul_31_1033	s	s	7	3	SIC	309	RC	0	1	23RO	1	0	2.00033307076	221.0	-176.0	222	-179	1
1.7	2015_Jul_31_1033	s	s	7	3	SIC	310	ABS	1	1	24MO	0	1	2.68069982529	None	None	None	None	1
1.7	2015_Jul_31_1033	s	s	7	3	SIC	311	ABS	2	2	24VD	0	1	0.593846082687	None	None	None	None	1
1.7	2015_Jul_31_1033	s	s	7	3	SIC	312	RC	2	0	23VC	1	0	0.58286190033	525.0	-1.0	521	3	1
1.7	2015_Jul_31_1033	s	s	7	3	SIC	313	RC	1	2	23MD	1	0	0.64293384552	203.0	-19.0	206	-17	1
1.7	2015_Jul_31_1033	s	s	7	3	SIC	314	RC	2	2	23VD	1	0	0.623107910156	393.0	161.0	401	164	1
1.7	2015_Jul_31_1033	s	s	7	3	SIC	315	RC	0	2	23RD	1	0	0.548116922379	-300.0	135.0	-299	140	1
1.7	2015_Jul_31_1033	s	s	7	3	SIC	316	ABS	0	1	24RO	0	1	4.99013614655	None	None	None	None	1
1.7	2015_Jul_31_1033	s	s	7	3	SIC	317	ABS	1	0	24MC	0	1	6.10832595825	None	None	None	None	1
1.7	2015_Jul_31_1033	s	s	7	3	SIC	318	ABS	0	2	24RD	0	1	1.33607792854	None	None	None	None	1
1.7	2015_Jul_31_1033	s	s	7	3	SIC	319	ABS	1	2	24MD	0	1	1.75773620605	None	None	None	None	1
1.7	2015_Jul_31_1033	s	s	7	3	SIC	320	RC	1	0	23MC	1	0	0.888198137283	-71.0	287.0	-73	291	1
1.7	2015_Jul_31_1033	s	s	7	3	SIC	321	ABS	1	0	24MC	0	1	3.75407981873	None	None	None	None	1
1.7	2015_Jul_31_1033	s	s	7	3	SIC	322	ABS	2	1	24VO	0	1	0.97168302536	None	None	None	None	1
1.7	2015_Jul_31_1033	s	s	7	3	SIC	323	RC	2	0	23VC	1	0	0.811519861221	-436.0	368.0	-431	367	1
1.7	2015_Jul_31_1033	s	s	7	3	SIC	324	RC	0	1	23RO	1	0	0.991756916046	-526.0	326.0	-524	329	1
1.7	2015_Jul_31_1033	s	s	7	3	SIC	325	ABS	1	1	24MO	0	1	1.56850600243	None	None	None	None	1
1.7	2015_Jul_31_1033	s	s	7	3	SIC	326	ABS	2	2	24VD	0	1	0.705611944199	None	None	None	None	1
1.7	2015_Jul_31_1033	s	s	7	3	SIC	327	ABS	2	0	24VC	0	1	1.01166701317	None	None	None	None	1
1.7	2015_Jul_31_1033	s	s	7	3	SIC	328	RC	2	1	23VO	1	0	0.709664821625	3.0	-114.0	-2	-116	1
1.7	2015_Jul_31_1033	s	s	7	3	SIC	329	RC	2	2	23VD	1	0	0.882156133652	444.0	311.0	447	308	1
1.7	2015_Jul_31_1033	s	s	7	3	SIC	330	ABS	1	2	24MD	0	1	1.195966959	None	None	None	None	1
1.7	2015_Jul_31_1033	s	s	7	3	SIC	331	RC	1	0	23MC	1	0	2.22428894043	-360.0	-334.0	-370	-336	1
1.7	2015_Jul_31_1033	s	s	7	3	SIC	332	RC	0	2	23RD	1	0	0.729125976562	214.0	-241.0	211	-239	1
1.7	2015_Jul_31_1033	s	s	7	3	SIC	333	RC	1	1	23MO	1	0	1.08223485947	-126.0	-173.0	-131	-176	1
1.7	2015_Jul_31_1033	s	s	7	3	SIC	334	ABS	0	2	24RD	0	1	0.74089717865	None	None	None	None	1
1.7	2015_Jul_31_1033	s	s	7	3	SIC	335	ABS	0	1	24RO	0	1	4.87240290642	None	None	None	None	1
1.7	2015_Jul_31_1033	s	s	7	3	SIC	336	RC	1	2	23MD	1	0	0.606458187103	12.0	-313.0	13	-306	1
1.7	2015_Jul_31_1033	s	s	7	3	SIC	337	RC	1	1	23MO	1	0	0.771008014679	15.0	-42.0	25	-44	1
1.7	2015_Jul_31_1033	s	s	7	3	SIC	338	RC	2	2	23VD	1	0	0.528985977173	89.0	230.0	92	231	1
1.7	2015_Jul_31_1033	s	s	7	3	SIC	339	RC	0	2	23RD	1	0	0.764371871948	-182.0	-183.0	-185	-190	1
1.7	2015_Jul_31_1033	s	s	7	3	SIC	340	ABS	0	1	24RO	0	1	5.03716278076	None	None	None	None	1
1.7	2015_Jul_31_1033	s	s	7	3	SIC	341	RC	2	0	23VC	1	0	0.513783931732	25.0	-35.0	19	-36	1
1.7	2015_Jul_31_1033	s	s	7	3	SIC	342	RC	1	2	23MD	1	0	0.505495071411	98.0	269.0	106	274	1
1.7	2015_Jul_31_1033	s	s	7	3	SIC	343	ABS	1	2	24MD	0	1	0.853713035583	None	None	None	None	1
1.7	2015_Jul_31_1033	s	s	7	3	SIC	344	ABS	1	1	24MO	0	1	2.56527495384	None	None	None	None	1
1.7	2015_Jul_31_1033	s	s	7	3	SIC	345	RC	2	1	23VO	1	0	0.826991081238	424.0	339.0	426	342	1
1.7	2015_Jul_31_1033	s	s	7	3	SIC	346	RC	0	1	23RO	1	0	2.17430400848	-101.0	-383.0	-96	-383	1
1.7	2015_Jul_31_1033	s	s	7	3	SIC	347	ABS	2	2	24VD	0	1	0.952740907669	None	None	None	None	1
1.7	2015_Jul_31_1033	s	s	7	3	SIC	348	ABS	1	0	24MC	0	1	3.63306593895	None	None	None	None	1
1.7	2015_Jul_31_1033	s	s	7	3	SIC	349	RC	1	0	23MC	1	0	1.10077095032	-466.0	130.0	-472	126	1
1.7	2015_Jul_31_1033	s	s	7	3	SIC	350	ABS	2	0	24VC	0	1	0.938387870789	None	None	None	None	1
1.7	2015_Jul_31_1033	s	s	7	3	SIC	351	ABS	2	1	24VO	0	1	0.858650922775	None	None	None	None	1
1.7	2015_Jul_31_1033	s	s	7	3	SIC	352	ABS	0	2	24RD	0	1	1.69423794746	None	None	None	None	1
1.7	2015_Jul_31_1033	s	s	7	3	SIC	353	ABS	2	1	24VO	0	1	0.947900056839	None	None	None	None	1
1.7	2015_Jul_31_1033	s	s	7	3	SIC	354	ABS	1	1	24MO	0	1	2.1364440918	None	None	None	None	1
1.7	2015_Jul_31_1033	s	s	7	3	SIC	355	RC	1	2	23MD	1	0	0.758517980576	-303.0	-43.0	-296	-46	1
1.7	2015_Jul_31_1033	s	s	7	3	SIC	356	RC	1	1	23MO	1	0	1.05871319771	-482.0	-385.0	-481	-387	1
1.7	2015_Jul_31_1033	s	s	7	3	SIC	357	RC	2	0	23VC	1	0	0.917392969131	-287.0	-409.0	-291	-413	1
1.7	2015_Jul_31_1033	s	s	7	3	SIC	358	RC	1	0	23MC	1	0	2.89495778084	219.0	342.0	225	346	1
1.7	2015_Jul_31_1033	s	s	7	3	SIC	359	RC	2	1	23VO	1	0	0.665399074554	-389.0	22.0	-394	22	1
1.7	2015_Jul_31_1033	s	s	7	3	SIC	360	ABS	0	1	24RO	0	1	4.56628894806	None	None	None	None	1
1.7	2015_Jul_31_1033	s	s	7	3	SIC	361	RC	0	2	23RD	1	0	0.735988140106	100.0	-147.0	99	-139	1
1.7	2015_Jul_31_1033	s	s	7	3	SIC	362	ABS	0	2	24RD	0	1	1.2117369175	None	None	None	None	1
1.7	2015_Jul_31_1033	s	s	7	3	SIC	363	ABS	2	2	24VD	0	1	0.641804933548	None	None	None	None	1
1.7	2015_Jul_31_1033	s	s	7	3	SIC	364	RC	0	1	23RO	1	0	4.12514615059	-355.0	-351.0	-356	-350	1
1.7	2015_Jul_31_1033	s	s	7	3	SIC	365	ABS	1	2	24MD	0	1	0.983013868332	None	None	None	None	1
1.7	2015_Jul_31_1033	s	s	7	3	SIC	366	ABS	2	0	24VC	0	1	0.940984964371	None	None	None	None	1
1.7	2015_Jul_31_1033	s	s	7	3	SIC	367	RC	2	2	23VD	1	0	0.571228027344	134.0	90.0	144	91	1
1.7	2015_Jul_31_1033	s	s	7	3	SIC	368	ABS	1	0	24MC	0	1	3.40717792511	None	None	None	None	1
1.7	2015_Jul_31_1033	s	s	7	3	SIC	369	ABS	2	2	24VD	0	1	0.552525043488	None	None	None	None	1
1.7	2015_Jul_31_1033	s	s	7	3	SIC	370	RC	0	1	23RO	1	0	1.8826379776	63.0	203.0	67	202	1
1.7	2015_Jul_31_1033	s	s	7	3	SIC	371	ABS	1	1	24MO	0	1	2.98100280762	None	None	None	None	1
1.7	2015_Jul_31_1033	s	s	7	3	SIC	372	RC	2	0	23VC	1	0	0.582934141159	124.0	-89.0	112	-87	1
1.7	2015_Jul_31_1033	s	s	7	3	SIC	373	ABS	1	2	24MD	0	1	0.68835401535	None	None	None	None	1
1.7	2015_Jul_31_1033	s	s	7	3	SIC	374	ABS	2	1	24VO	0	1	0.712447881699	None	None	None	None	1
1.7	2015_Jul_31_1033	s	s	7	3	SIC	375	ABS	0	1	24RO	0	1	5.66096997261	None	None	None	None	1
1.7	2015_Jul_31_1033	s	s	7	3	SIC	376	RC	1	1	23MO	1	0	1.11282014847	-505.0	-206.0	-512	-206	1
1.7	2015_Jul_31_1033	s	s	7	3	SIC	377	RC	0	2	23RD	1	0	0.605961084366	-17.0	145.0	-17	141	1
1.7	2015_Jul_31_1033	s	s	7	3	SIC	378	RC	2	1	23VO	1	0	0.594740867615	-105.0	-316.0	-109	-321	1
1.7	2015_Jul_31_1033	s	s	7	3	SIC	379	RC	2	2	23VD	1	0	0.517305850983	-475.0	10.0	-478	10	1
1.7	2015_Jul_31_1033	s	s	7	3	SIC	380	ABS	2	0	24VC	0	1	0.913820028305	None	None	None	None	1
1.7	2015_Jul_31_1033	s	s	7	3	SIC	381	ABS	1	0	24MC	0	1	3.7612349987	None	None	None	None	1
1.7	2015_Jul_31_1033	s	s	7	3	SIC	382	RC	1	2	23MD	1	0	0.65283203125	383.0	348.0	388	355	1
1.7	2015_Jul_31_1033	s	s	7	3	SIC	383	RC	1	0	23MC	1	0	1.27737808228	105.0	311.0	110	311	1
1.7	2015_Jul_31_1033	s	s	7	3	SIC	384	ABS	0	2	24RD	0	1	1.70034217834	None	None	None	None	1
1.7	2015_Jul_31_1033	s	s	7	3	SIC	385	RC	1	1	23MO	1	0	2.49470305443	454.0	-364.0	453	-368	1
1.7	2015_Jul_31_1033	s	s	7	3	SIC	386	ABS	0	2	24RD	0	1	1.4234790802	None	None	None	None	1
1.7	2015_Jul_31_1033	s	s	7	3	SIC	387	RC	1	0	23MC	1	0	1.46765303612	114.0	178.0	118	183	1
1.7	2015_Jul_31_1033	s	s	7	3	SIC	388	ABS	1	2	24MD	0	1	0.888423919678	None	None	None	None	1
1.7	2015_Jul_31_1033	s	s	7	3	SIC	389	ABS	1	0	24MC	0	1	5.27794504166	None	None	None	None	1
1.7	2015_Jul_31_1033	s	s	7	3	SIC	390	ABS	2	1	24VO	0	1	0.80349111557	None	None	None	None	1
1.7	2015_Jul_31_1033	s	s	7	3	SIC	391	RC	2	1	23VO	1	0	0.677122831345	329.0	211.0	335	212	1
1.7	2015_Jul_31_1033	s	s	7	3	SIC	392	ABS	2	0	24VC	0	1	0.983110189438	None	None	None	None	1
1.7	2015_Jul_31_1033	s	s	7	3	SIC	393	RC	0	2	23RD	1	0	0.678610801697	246.0	75.0	242	72	1
1.7	2015_Jul_31_1033	s	s	7	3	SIC	394	ABS	2	2	24VD	0	1	0.776307821274	None	None	None	None	1
1.7	2015_Jul_31_1033	s	s	7	3	SIC	395	RC	2	0	23VC	1	0	0.643784046173	-269.0	-169.0	-275	-169	1
1.7	2015_Jul_31_1033	s	s	7	3	SIC	396	ABS	1	1	24MO	0	1	4.22167396545	None	None	None	None	1
1.7	2015_Jul_31_1033	s	s	7	3	SIC	397	RC	2	2	23VD	1	0	0.705674886703	282.0	350.0	281	347	1
1.7	2015_Jul_31_1033	s	s	7	3	SIC	398	ABS	0	1	24RO	0	1	4.74984192848	None	None	None	None	1
1.7	2015_Jul_31_1033	s	s	7	3	SIC	399	RC	1	2	23MD	1	0	0.588325023651	-460.0	-35.0	-461	-32	1
1.7	2015_Jul_31_1033	s	s	7	3	SIC	400	RC	0	1	23RO	1	0	1.19711208344	220.0	262.0	217	270	1
1.7	2015_Jul_31_1033	s	s	7	3	SIC	401	RC	2	0	23VC	1	0	0.529067993164	324.0	353.0	330	356	1
1.7	2015_Jul_31_1033	s	s	7	3	SIC	402	RC	1	0	23MC	1	0	0.958766937256	-133.0	49.0	-127	49	1
1.7	2015_Jul_31_1033	s	s	7	3	SIC	403	RC	2	1	23VO	1	0	0.776232004166	-497.0	355.0	-490	354	1
1.7	2015_Jul_31_1033	s	s	7	3	SIC	404	ABS	0	1	24RO	0	1	5.62292098999	None	None	None	None	1
1.7	2015_Jul_31_1033	s	s	7	3	SIC	405	ABS	1	0	24MC	0	1	1.45911598206	None	None	None	None	1
1.7	2015_Jul_31_1033	s	s	7	3	SIC	406	RC	0	2	23RD	1	0	0.571020126343	138.0	158.0	145	161	1
1.7	2015_Jul_31_1033	s	s	7	3	SIC	407	ABS	1	1	24MO	0	1	2.89492607117	None	None	None	None	1
1.7	2015_Jul_31_1033	s	s	7	3	SIC	408	ABS	1	2	24MD	0	1	0.747720003128	None	None	None	None	1
1.7	2015_Jul_31_1033	s	s	7	3	SIC	409	ABS	2	2	24VD	0	1	0.658490180969	None	None	None	None	1
1.7	2015_Jul_31_1033	s	s	7	3	SIC	410	RC	0	1	23RO	0	1	3.97786188126	-139.0	262.0	None	None	0
1.7	2015_Jul_31_1033	s	s	7	3	SIC	411	ABS	2	0	24VC	0	1	0.587767124176	None	None	None	None	1
1.7	2015_Jul_31_1033	s	s	7	3	SIC	412	RC	1	1	23MO	1	0	1.12124681473	-401.0	71.0	-403	65	1
1.7	2015_Jul_31_1033	s	s	7	3	SIC	413	RC	2	2	23VD	1	0	0.623538970947	399.0	24.0	403	22	1
1.7	2015_Jul_31_1033	s	s	7	3	SIC	414	ABS	0	2	24RD	0	1	1.10607504845	None	None	None	None	1
1.7	2015_Jul_31_1033	s	s	7	3	SIC	415	RC	1	2	23MD	1	0	0.682178020477	30.0	227.0	30	227	1
1.7	2015_Jul_31_1033	s	s	7	3	SIC	416	ABS	2	1	24VO	0	1	0.571119785309	None	None	None	None	1
1.7	2015_Jul_31_1033	s	s	7	3	SIC	417	RC	2	2	23VD	1	0	0.676954984665	-190.0	399.0	-179	404	1
1.7	2015_Jul_31_1033	s	s	7	3	SIC	418	ABS	0	1	24RO	0	1	6.66163492203	None	None	None	None	1
1.7	2015_Jul_31_1033	s	s	7	3	SIC	419	ABS	1	2	24MD	0	1	0.688132047653	None	None	None	None	1
1.7	2015_Jul_31_1033	s	s	7	3	SIC	420	RC	2	1	23VO	1	0	0.735324859619	45.0	-141.0	39	-144	1
1.7	2015_Jul_31_1033	s	s	7	3	SIC	421	RC	1	0	23MC	1	0	3.39655280113	365.0	-407.0	360	-405	1
1.7	2015_Jul_31_1033	s	s	7	3	SIC	422	ABS	0	2	24RD	0	1	0.820201158524	None	None	None	None	1
1.7	2015_Jul_31_1033	s	s	7	3	SIC	423	RC	0	2	23RD	1	0	0.89820599556	-447.0	-213.0	-451	-212	1
1.7	2015_Jul_31_1033	s	s	7	3	SIC	424	ABS	1	0	24MC	0	1	2.70654606819	None	None	None	None	1
1.7	2015_Jul_31_1033	s	s	7	3	SIC	425	ABS	2	1	24VO	0	1	0.794888973236	None	None	None	None	1
1.7	2015_Jul_31_1033	s	s	7	3	SIC	426	RC	2	0	23VC	1	0	0.764446973801	35.0	344.0	38	346	1
1.7	2015_Jul_31_1033	s	s	7	3	SIC	427	ABS	1	1	24MO	0	1	2.3485891819	None	None	None	None	1
1.7	2015_Jul_31_1033	s	s	7	3	SIC	428	ABS	2	2	24VD	0	1	0.505614995956	None	None	None	None	1
1.7	2015_Jul_31_1033	s	s	7	3	SIC	429	RC	1	2	23MD	1	0	0.631920099258	-44.0	308.0	-42	303	1
1.7	2015_Jul_31_1033	s	s	7	3	SIC	430	RC	1	1	23MO	1	0	0.976302862167	-184.0	403.0	-188	399	1
1.7	2015_Jul_31_1033	s	s	7	3	SIC	431	RC	0	1	23RO	1	0	1.80019783974	-56.0	140.0	-50	148	1
1.7	2015_Jul_31_1033	s	s	7	3	SIC	432	ABS	2	0	24VC	0	1	0.599632978439	None	None	None	None	1
1.7	2015_Jul_31_1033	s	s	7	3	SIC	433	RC	0	1	23RO	1	0	1.03522610664	49.0	-162.0	51	-163	1
1.7	2015_Jul_31_1033	s	s	7	3	SIC	434	ABS	1	0	24MC	0	1	5.46763896942	None	None	None	None	1
1.7	2015_Jul_31_1033	s	s	7	3	SIC	435	ABS	2	2	24VD	0	1	0.846647977829	None	None	None	None	1
1.7	2015_Jul_31_1033	s	s	7	3	SIC	436	RC	0	2	23RD	1	0	0.811473846436	287.0	-60.0	288	-65	1
1.7	2015_Jul_31_1033	s	s	7	3	SIC	437	ABS	0	2	24RD	0	1	0.932904005051	None	None	None	None	1
1.7	2015_Jul_31_1033	s	s	7	3	SIC	438	ABS	2	0	24VC	0	1	0.936717987061	None	None	None	None	1
1.7	2015_Jul_31_1033	s	s	7	3	SIC	439	RC	2	2	23VD	1	0	2.18378186226	192.0	-166.0	190	-167	1
1.7	2015_Jul_31_1033	s	s	7	3	SIC	440	RC	2	0	23VC	1	0	1.03518605232	-441.0	80.0	-444	76	1
1.7	2015_Jul_31_1033	s	s	7	3	SIC	441	ABS	1	2	24MD	0	1	0.917432069778	None	None	None	None	1
1.7	2015_Jul_31_1033	s	s	7	3	SIC	442	RC	1	1	23MO	1	0	0.656071901321	136.0	102.0	134	108	1
1.7	2015_Jul_31_1033	s	s	7	3	SIC	443	RC	2	1	23VO	1	0	0.682018995285	116.0	87.0	118	87	1
1.7	2015_Jul_31_1033	s	s	7	3	SIC	444	ABS	2	1	24VO	0	1	0.634968042374	None	None	None	None	1
1.7	2015_Jul_31_1033	s	s	7	3	SIC	445	ABS	0	1	24RO	0	1	6.14358401299	None	None	None	None	1
1.7	2015_Jul_31_1033	s	s	7	3	SIC	446	RC	1	0	23MC	1	0	1.73869013786	252.0	-8.0	247	-8	1
1.7	2015_Jul_31_1033	s	s	7	3	SIC	447	RC	1	2	23MD	1	0	1.90255594254	-134.0	-122.0	-127	-121	1
1.7	2015_Jul_31_1033	s	s	7	3	SIC	448	ABS	1	1	24MO	0	1	6.95576405525	None	None	None	None	1
1.7	2015_Jul_31_1033	s	s	7	3	SIC	449	RC	2	2	23VD	1	0	0.879374980927	249.0	142.0	245	142	1
1.7	2015_Jul_31_1033	s	s	7	3	SIC	450	RC	0	2	23RD	1	0	0.596044063568	212.0	176.0	214	180	1
1.7	2015_Jul_31_1033	s	s	7	3	SIC	451	ABS	2	0	24VC	0	1	0.929555177689	None	None	None	None	1
1.7	2015_Jul_31_1033	s	s	7	3	SIC	452	RC	2	1	23VO	1	0	0.705559968948	-26.0	-228.0	-30	-224	1
1.7	2015_Jul_31_1033	s	s	7	3	SIC	453	RC	1	2	23MD	1	0	0.714617013931	44.0	-297.0	46	-305	1
1.7	2015_Jul_31_1033	s	s	7	3	SIC	454	ABS	1	2	24MD	0	1	0.90561413765	None	None	None	None	1
1.7	2015_Jul_31_1033	s	s	7	3	SIC	455	ABS	2	2	24VD	0	1	0.630442857742	None	None	None	None	1
1.7	2015_Jul_31_1033	s	s	7	3	SIC	456	RC	0	1	23RO	1	0	3.30184793472	-230.0	-234.0	-232	-235	1
1.7	2015_Jul_31_1033	s	s	7	3	SIC	457	RC	1	0	23MC	1	0	2.14828491211	-319.0	-346.0	-320	-348	1
1.7	2015_Jul_31_1033	s	s	7	3	SIC	458	RC	1	1	23MO	1	0	0.806998968124	-321.0	-51.0	-322	-53	1
1.7	2015_Jul_31_1033	s	s	7	3	SIC	459	ABS	0	1	24RO	0	1	5.38215398788	None	None	None	None	1
1.7	2015_Jul_31_1033	s	s	7	3	SIC	460	ABS	0	2	24RD	0	1	0.71738409996	None	None	None	None	1
1.7	2015_Jul_31_1033	s	s	7	3	SIC	461	RC	2	0	23VC	1	0	0.635047912598	-408.0	26.0	-415	28	1
1.7	2015_Jul_31_1033	s	s	7	3	SIC	462	ABS	1	0	24MC	0	1	1.67107200623	None	None	None	None	1
1.7	2015_Jul_31_1033	s	s	7	3	SIC	463	ABS	1	1	24MO	0	1	0.900669813156	None	None	None	None	1
1.7	2015_Jul_31_1033	s	s	7	3	SIC	464	ABS	2	1	24VO	0	1	0.517413139343	None	None	None	None	1
1.7	2015_Jul_31_1033	s	s	7	3	SIC	465	ABS	1	1	24MO	0	1	1.81192398071	None	None	None	None	1
1.7	2015_Jul_31_1033	s	s	7	3	SIC	466	RC	1	0	23MC	0	1	3.45491695404	267.0	371.0	None	None	0
1.7	2015_Jul_31_1033	s	s	7	3	SIC	467	ABS	1	0	24MC	0	1	2.25934886932	None	None	None	None	1
1.7	2015_Jul_31_1033	s	s	7	3	SIC	468	ABS	0	1	24RO	0	1	3.97438311577	None	None	None	None	1
1.7	2015_Jul_31_1033	s	s	7	3	SIC	469	RC	2	0	23VC	1	0	0.564587116241	-109.0	-334.0	-102	-333	1
1.7	2015_Jul_31_1033	s	s	7	3	SIC	470	ABS	1	2	24MD	0	1	0.806626796722	None	None	None	None	1
1.7	2015_Jul_31_1033	s	s	7	3	SIC	471	RC	2	1	23VO	1	0	0.770547866821	264.0	238.0	260	240	1
1.7	2015_Jul_31_1033	s	s	7	3	SIC	472	ABS	0	2	24RD	0	1	0.740969896317	None	None	None	None	1
1.7	2015_Jul_31_1033	s	s	7	3	SIC	473	ABS	2	2	24VD	0	1	0.764850854874	None	None	None	None	1
1.7	2015_Jul_31_1033	s	s	7	3	SIC	474	RC	0	2	23RD	1	0	0.629958868027	-121.0	70.0	-126	66	1
1.7	2015_Jul_31_1033	s	s	7	3	SIC	475	RC	1	2	23MD	1	0	0.547683954239	-95.0	141.0	-91	143	1
1.7	2015_Jul_31_1033	s	s	7	3	SIC	476	ABS	2	1	24VO	0	1	0.623336076736	None	None	None	None	1
1.7	2015_Jul_31_1033	s	s	7	3	SIC	477	ABS	2	0	24VC	1	0	1.06804585457	None	None	-1	132	0
1.7	2015_Jul_31_1033	s	s	7	3	SIC	478	RC	0	1	23RO	1	0	2.32993197441	-208.0	-283.0	-212	-280	1
1.7	2015_Jul_31_1033	s	s	7	3	SIC	479	RC	1	1	23MO	1	0	0.70201086998	-50.0	3.0	-47	3	1
1.7	2015_Jul_31_1033	s	s	7	3	SIC	480	RC	2	2	23VD	1	0	0.640661001205	191.0	-234.0	196	-240	1
1.7	2015_Jul_31_1033	s	s	7	3	SIC	481	ABS	0	2	24RD	0	1	0.958592891693	None	None	None	None	1
1.7	2015_Jul_31_1033	s	s	7	3	SIC	482	RC	1	0	23MC	1	0	1.55677700043	258.0	-200.0	255	-206	1
1.7	2015_Jul_31_1033	s	s	7	3	SIC	483	RC	2	2	23VD	1	0	0.665307044983	-385.0	-171.0	-379	-171	1
1.7	2015_Jul_31_1033	s	s	7	3	SIC	484	ABS	1	2	24MD	0	1	0.724383115768	None	None	None	None	1
1.7	2015_Jul_31_1033	s	s	7	3	SIC	485	ABS	1	0	24MC	0	1	3.31863284111	None	None	None	None	1
1.7	2015_Jul_31_1033	s	s	7	3	SIC	486	ABS	2	1	24VO	0	1	0.893934965134	None	None	None	None	1
1.7	2015_Jul_31_1033	s	s	7	3	SIC	487	RC	2	1	23VO	1	0	0.689273118973	-380.0	-47.0	-374	-45	1
1.7	2015_Jul_31_1033	s	s	7	3	SIC	488	RC	0	2	23RD	1	0	1.12422084808	436.0	282.0	441	283	1
1.7	2015_Jul_31_1033	s	s	7	3	SIC	489	RC	1	2	23MD	1	0	0.670251846313	-460.0	108.0	-462	104	1
1.7	2015_Jul_31_1033	s	s	7	3	SIC	490	ABS	0	1	24RO	0	1	6.19746303558	None	None	None	None	1
1.7	2015_Jul_31_1033	s	s	7	3	SIC	491	ABS	2	0	24VC	0	1	0.905694961548	None	None	None	None	1
1.7	2015_Jul_31_1033	s	s	7	3	SIC	492	RC	1	1	23MO	1	0	0.976280927658	-8.0	-243.0	-10	-249	1
1.7	2015_Jul_31_1033	s	s	7	3	SIC	493	RC	2	0	23VC	1	0	0.794642925262	-258.0	-371.0	-258	-372	1
1.7	2015_Jul_31_1033	s	s	7	3	SIC	494	RC	0	1	23RO	1	0	1.72970104218	-310.0	25.0	-310	27	1
1.7	2015_Jul_31_1033	s	s	7	3	SIC	495	ABS	2	2	24VD	0	1	0.666354179382	None	None	None	None	1
1.7	2015_Jul_31_1033	s	s	7	3	SIC	496	ABS	1	1	24MO	0	1	4.56126713753	None	None	None	None	1
1.7	2015_Jul_31_1033	s	s	7	3	SIC	497	RC	2	2	23VD	1	0	0.634983062744	-61.0	118.0	-60	115	1
1.7	2015_Jul_31_1033	s	s	7	3	SIC	498	ABS	1	1	24MO	0	1	4.17239999771	None	None	None	None	1
1.7	2015_Jul_31_1033	s	s	7	3	SIC	499	RC	0	1	23RO	1	0	1.57327485085	-127.0	112.0	-126	113	1
1.7	2015_Jul_31_1033	s	s	7	3	SIC	500	RC	1	0	23MC	1	0	1.43270611763	-94.0	-206.0	-88	-206	1
1.7	2015_Jul_31_1033	s	s	7	3	SIC	501	ABS	2	2	24VD	0	1	0.717337846756	None	None	None	None	1
1.7	2015_Jul_31_1033	s	s	7	3	SIC	502	RC	0	2	23RD	1	0	0.912720918655	453.0	378.0	456	375	1
1.7	2015_Jul_31_1033	s	s	7	3	SIC	503	RC	1	2	23MD	1	0	0.594560861588	-170.0	-64.0	-164	-63	1
1.7	2015_Jul_31_1033	s	s	7	3	SIC	504	ABS	0	2	24RD	0	1	0.724011898041	None	None	None	None	1
1.7	2015_Jul_31_1033	s	s	7	3	SIC	505	ABS	0	1	24RO	0	1	4.65572190285	None	None	None	None	1
1.7	2015_Jul_31_1033	s	s	7	3	SIC	506	RC	2	0	23VC	1	0	0.670301914215	-132.0	142.0	-127	141	1
1.7	2015_Jul_31_1033	s	s	7	3	SIC	507	ABS	2	1	24VO	0	1	0.646833896637	None	None	None	None	1
1.7	2015_Jul_31_1033	s	s	7	3	SIC	508	ABS	2	0	24VC	0	1	0.917992115021	None	None	None	None	1
1.7	2015_Jul_31_1033	s	s	7	3	SIC	509	RC	1	1	23MO	1	0	0.721040964127	-263.0	175.0	-259	175	1
1.7	2015_Jul_31_1033	s	s	7	3	SIC	510	ABS	1	2	24MD	0	1	0.688591003418	None	None	None	None	1
1.7	2015_Jul_31_1033	s	s	7	3	SIC	511	RC	2	1	23VO	1	0	0.870395898819	-51.0	351.0	-46	348	1
1.7	2015_Jul_31_1033	s	s	7	3	SIC	512	ABS	1	0	24MC	0	1	2.61925005913	None	None	None	None	1
1.7	2015_Jul_31_1033	s	s	7	3	SIC	513	ABS	0	2	24RD	0	1	0.764451026917	None	None	None	None	1
1.7	2015_Jul_31_1033	s	s	7	3	SIC	514	ABS	2	1	24VO	0	1	0.641710996628	None	None	None	None	1
1.7	2015_Jul_31_1033	s	s	7	3	SIC	515	RC	1	1	23MO	1	0	0.712568044662	6.0	-99.0	4	-103	1
1.7	2015_Jul_31_1033	s	s	7	3	SIC	516	ABS	1	0	24MC	0	1	1.02339887619	None	None	None	None	1
1.7	2015_Jul_31_1033	s	s	7	3	SIC	517	RC	2	0	23VC	1	0	0.988166093826	531.0	269.0	526	272	1
1.7	2015_Jul_31_1033	s	s	7	3	SIC	518	RC	0	2	23RD	1	0	0.929152965546	351.0	277.0	352	278	1
1.7	2015_Jul_31_1033	s	s	7	3	SIC	519	RC	2	2	23VD	1	0	0.705598115921	256.0	-371.0	251	-374	1
1.7	2015_Jul_31_1033	s	s	7	3	SIC	520	ABS	2	0	24VC	0	1	1.14110183716	None	None	None	None	1
1.7	2015_Jul_31_1033	s	s	7	3	SIC	521	ABS	2	2	24VD	0	1	0.749440908432	None	None	None	None	1
1.7	2015_Jul_31_1033	s	s	7	3	SIC	522	RC	1	0	23MC	1	0	1.44700098038	337.0	138.0	333	137	1
1.7	2015_Jul_31_1033	s	s	7	3	SIC	523	RC	2	1	23VO	1	0	0.654559135437	306.0	251.0	301	252	1
1.7	2015_Jul_31_1033	s	s	7	3	SIC	524	RC	1	2	23MD	1	0	0.78327703476	-351.0	-408.0	-362	-404	1
1.7	2015_Jul_31_1033	s	s	7	3	SIC	525	ABS	1	2	24MD	0	1	0.693858146667	None	None	None	None	1
1.7	2015_Jul_31_1033	s	s	7	3	SIC	526	RC	0	1	23RO	1	0	1.23030877113	442.0	22.0	450	29	1
1.7	2015_Jul_31_1033	s	s	7	3	SIC	527	ABS	0	1	24RO	0	1	5.10780692101	None	None	None	None	1
1.7	2015_Jul_31_1033	s	s	7	3	SIC	528	ABS	1	1	24MO	0	1	3.41280293465	None	None	None	None	1
1.7	2015_Jul_31_1033	s	s	7	3	SIC	529	RC	1	1	23MO	1	0	1.07415699959	-511.0	-240.0	-516	-239	1
1.7	2015_Jul_31_1033	s	s	7	3	SIC	530	RC	2	2	23VD	1	0	0.72646188736	510.0	219.0	504	216	1
1.7	2015_Jul_31_1033	s	s	7	3	SIC	531	RC	2	1	23VO	1	0	0.493698120117	-472.0	-184.0	-469	-184	1
1.7	2015_Jul_31_1033	s	s	7	3	SIC	532	RC	2	0	23VC	1	0	0.559648990631	70.0	-28.0	79	-31	1
1.7	2015_Jul_31_1033	s	s	7	3	SIC	533	ABS	0	1	24RO	0	1	5.33134698868	None	None	None	None	1
1.7	2015_Jul_31_1033	s	s	7	3	SIC	534	ABS	2	1	24VO	0	1	0.729166984558	None	None	None	None	1
1.7	2015_Jul_31_1033	s	s	7	3	SIC	535	ABS	2	2	24VD	0	1	0.588165044785	None	None	None	None	1
1.7	2015_Jul_31_1033	s	s	7	3	SIC	536	RC	1	0	23MC	0	1	1.86593604088	-311.0	401.0	None	None	0
1.7	2015_Jul_31_1033	s	s	7	3	SIC	537	RC	1	2	23MD	1	0	0.776234149933	-317.0	264.0	-317	271	1
1.7	2015_Jul_31_1033	s	s	7	3	SIC	538	ABS	1	2	24MD	0	1	1.0558860302	None	None	None	None	1
1.7	2015_Jul_31_1033	s	s	7	3	SIC	539	RC	0	1	23RO	1	0	1.49794101715	-302.0	-25.0	-300	-22	1
1.7	2015_Jul_31_1033	s	s	7	3	SIC	540	ABS	1	1	24MO	0	1	3.08317089081	None	None	None	None	1
1.7	2015_Jul_31_1033	s	s	7	3	SIC	541	ABS	2	0	24VC	0	1	0.700800180435	None	None	None	None	1
1.7	2015_Jul_31_1033	s	s	7	3	SIC	542	RC	0	2	23RD	1	0	0.713700056076	422.0	171.0	426	176	1
1.7	2015_Jul_31_1033	s	s	7	3	SIC	543	ABS	1	0	24MC	0	1	3.49256491661	None	None	None	None	1
1.7	2015_Jul_31_1033	s	s	7	3	SIC	544	ABS	0	2	24RD	0	1	0.748636960983	None	None	None	None	1
1.7	2015_Jul_31_1033	s	s	7	3	SIC	545	RC	0	2	23RD	1	0	0.693614959717	-452.0	49.0	-451	41	1
1.7	2015_Jul_31_1033	s	s	7	3	SIC	546	RC	1	0	23MC	1	0	1.38339805603	379.0	-21.0	380	-24	1
1.7	2015_Jul_31_1033	s	s	7	3	SIC	547	ABS	2	0	24VC	0	1	0.842386007309	None	None	None	None	1
1.7	2015_Jul_31_1033	s	s	7	3	SIC	548	RC	2	2	23VD	1	0	0.652842998505	-434.0	-243.0	-432	-244	1
1.7	2015_Jul_31_1033	s	s	7	3	SIC	549	RC	1	2	23MD	1	0	0.538097143173	289.0	-63.0	291	-65	1
1.7	2015_Jul_31_1033	s	s	7	3	SIC	550	ABS	0	1	24RO	0	1	4.4316649437	None	None	None	None	1
1.7	2015_Jul_31_1033	s	s	7	3	SIC	551	ABS	1	1	24MO	0	1	2.5858631134	None	None	None	None	1
1.7	2015_Jul_31_1033	s	s	7	3	SIC	552	ABS	0	2	24RD	0	1	0.759761810303	None	None	None	None	1
1.7	2015_Jul_31_1033	s	s	7	3	SIC	553	ABS	2	2	24VD	0	1	0.549904108047	None	None	None	None	1
1.7	2015_Jul_31_1033	s	s	7	3	SIC	554	RC	0	1	23RO	1	0	0.971004009247	261.0	290.0	258	296	1
1.7	2015_Jul_31_1033	s	s	7	3	SIC	555	RC	2	1	23VO	1	0	0.835031032562	309.0	-399.0	310	-394	1
1.7	2015_Jul_31_1033	s	s	7	3	SIC	556	ABS	1	2	24MD	0	1	0.940934896469	None	None	None	None	1
1.7	2015_Jul_31_1033	s	s	7	3	SIC	557	ABS	2	1	24VO	0	1	1.47715592384	None	None	None	None	1
1.7	2015_Jul_31_1033	s	s	7	3	SIC	558	RC	2	0	23VC	1	0	0.556334972382	-324.0	-10.0	-323	-14	1
1.7	2015_Jul_31_1033	s	s	7	3	SIC	559	ABS	1	0	24MC	0	1	4.04835295677	None	None	None	None	1
1.7	2015_Jul_31_1033	s	s	7	3	SIC	560	RC	1	1	23MO	1	0	2.56533193588	-444.0	240.0	-448	241	1
1.7	2015_Jul_31_1033	s	s	7	3	SIC	561	ABS	0	2	24RD	0	1	1.07956194878	None	None	None	None	1
1.7	2015_Jul_31_1033	s	s	7	3	SIC	562	ABS	1	0	24MC	0	1	3.51360177994	None	None	None	None	1
1.7	2015_Jul_31_1033	s	s	7	3	SIC	563	RC	0	2	23RD	1	0	0.517257928848	103.0	-292.0	96	-288	1
1.7	2015_Jul_31_1033	s	s	7	3	SIC	564	ABS	2	0	24VC	0	1	0.764487028122	None	None	None	None	1
1.7	2015_Jul_31_1033	s	s	7	3	SIC	565	ABS	2	1	24VO	0	1	0.842344999313	None	None	None	None	1
1.7	2015_Jul_31_1033	s	s	7	3	SIC	566	ABS	1	1	24MO	0	1	2.2240588665	None	None	None	None	1
1.7	2015_Jul_31_1033	s	s	7	3	SIC	567	RC	2	2	23VD	1	0	0.658560037613	38.0	39.0	34	39	1
1.7	2015_Jul_31_1033	s	s	7	3	SIC	568	RC	1	1	23MO	1	0	1.60013508797	342.0	281.0	350	283	1
1.7	2015_Jul_31_1033	s	s	7	3	SIC	569	RC	0	1	23RO	1	0	1.54126000404	216.0	-151.0	215	-153	1
1.7	2015_Jul_31_1033	s	s	7	3	SIC	570	ABS	0	1	24RO	0	1	5.56311297417	None	None	None	None	1
1.7	2015_Jul_31_1033	s	s	7	3	SIC	571	ABS	2	2	24VD	0	1	0.6182949543	None	None	None	None	1
1.7	2015_Jul_31_1033	s	s	7	3	SIC	572	RC	1	2	23MD	1	0	0.846826076508	471.0	179.0	461	178	1
1.7	2015_Jul_31_1033	s	s	7	3	SIC	573	RC	2	1	23VO	1	0	0.608052015305	-269.0	211.0	-272	208	1
1.7	2015_Jul_31_1033	s	s	7	3	SIC	574	RC	1	0	23MC	1	0	0.952793836594	246.0	-248.0	239	-250	1
1.7	2015_Jul_31_1033	s	s	7	3	SIC	575	ABS	1	2	24MD	0	1	0.893882989883	None	None	None	None	1
1.7	2015_Jul_31_1033	s	s	7	3	SIC	576	RC	2	0	23VC	1	0	0.665349960327	-124.0	252.0	-133	251	1
1.7	2015_Jul_31_1033	s	s	7	3	SIC	577	ABS	2	0	24VC	0	1	0.749433994293	None	None	None	None	1
1.7	2015_Jul_31_1033	s	s	7	3	SIC	578	ABS	2	1	24VO	0	1	0.99983382225	None	None	None	None	1
1.7	2015_Jul_31_1033	s	s	7	3	SIC	579	ABS	1	2	24MD	0	1	0.594747066498	None	None	None	None	1
1.7	2015_Jul_31_1033	s	s	7	3	SIC	580	ABS	0	1	24RO	0	1	5.11955809593	None	None	None	None	1
1.7	2015_Jul_31_1033	s	s	7	3	SIC	581	RC	1	1	23MO	1	0	4.64062619209	-52.0	-373.0	-58	-378	1
1.7	2015_Jul_31_1033	s	s	7	3	SIC	582	RC	2	0	23VC	1	0	0.599905967712	-416.0	-181.0	-411	-181	1
1.7	2015_Jul_31_1033	s	s	7	3	SIC	583	RC	0	1	23RO	1	0	1.89442706108	-166.0	261.0	-172	261	1
1.7	2015_Jul_31_1033	s	s	7	3	SIC	584	ABS	2	2	24VD	0	1	0.831769943237	None	None	None	None	1
1.7	2015_Jul_31_1033	s	s	7	3	SIC	585	ABS	0	2	24RD	0	1	2.03568100929	None	None	None	None	1
1.7	2015_Jul_31_1033	s	s	7	3	SIC	586	ABS	1	0	24MC	0	1	1.17197012901	None	None	None	None	1
1.7	2015_Jul_31_1033	s	s	7	3	SIC	587	RC	2	1	23VO	1	0	0.552553892136	-531.0	53.0	-532	46	1
1.7	2015_Jul_31_1033	s	s	7	3	SIC	588	RC	1	2	23MD	1	0	0.476846933365	82.0	-144.0	88	-145	1
1.7	2015_Jul_31_1033	s	s	7	3	SIC	589	RC	1	0	23MC	1	0	0.835074901581	-283.0	-95.0	-283	-93	1
1.7	2015_Jul_31_1033	s	s	7	3	SIC	590	ABS	1	1	24MO	0	1	3.6952958107	None	None	None	None	1
1.7	2015_Jul_31_1033	s	s	7	3	SIC	591	RC	2	2	23VD	1	0	0.677096843719	435.0	152.0	439	151	1
1.7	2015_Jul_31_1033	s	s	7	3	SIC	592	RC	0	2	23RD	1	0	0.664291858673	523.0	369.0	526	377	1
