Version	Date	Stimuli	Method	Subject	Session	Condition	Trial	Target	Channel1	Channel2	Distractors	LMouseButton	RMouseButton	RT	TargetX	TargetY	ResponseX	ResponseY	Correct
1.7	2015_Jul_27_1020	s	s	7	1	Capacity	1	RC	0	1	23RO	0	1	5.47935795784	-172.0	-297.0	None	None	0
1.7	2015_Jul_27_1020	s	s	7	1	Capacity	2	RC	0	2	23RD	1	0	1.39682197571	156.0	-129.0	149	-133	1
1.7	2015_Jul_27_1020	s	s	7	1	Capacity	3	ABS	0	2	24RD	0	1	4.91944694519	None	None	None	None	1
1.7	2015_Jul_27_1020	s	s	7	1	Capacity	4	ABS	0	1	24RO	0	1	6.87343096733	None	None	None	None	1
1.7	2015_Jul_27_1020	s	s	7	1	Capacity	5	ABS	0	1	24RO	0	1	5.89629292488	None	None	None	None	1
1.7	2015_Jul_27_1020	s	s	7	1	Capacity	6	RC	0	1	23RO	1	0	4.91458010674	-22.0	256.0	-24	243	1
1.7	2015_Jul_27_1020	s	s	7	1	Capacity	7	RC	0	2	23RD	1	0	1.81189703941	-360.0	169.0	-364	159	1
1.7	2015_Jul_27_1020	s	s	7	1	Capacity	8	ABS	0	2	24RD	0	1	2.56532812119	None	None	None	None	1
1.7	2015_Jul_27_1020	s	s	7	1	Capacity	9	ABS	0	2	24RD	0	1	3.0195889473	None	None	None	None	1
1.7	2015_Jul_27_1020	s	s	7	1	Capacity	10	RC	0	2	23RD	1	0	2.32988905907	176.0	266.0	172	263	1
1.7	2015_Jul_27_1020	s	s	7	1	Capacity	11	ABS	0	1	24RO	0	1	5.65655207634	None	None	None	None	1
1.7	2015_Jul_27_1020	s	s	7	1	Capacity	12	RC	0	1	23RO	1	0	8.21522498131	413.0	-198.0	415	-202	1
1.7	2015_Jul_27_1020	s	s	7	1	Capacity	13	ABS	0	1	24RO	0	1	5.26731705666	None	None	None	None	1
1.7	2015_Jul_27_1020	s	s	7	1	Capacity	14	ABS	0	2	24RD	0	1	6.42188191414	None	None	None	None	1
1.7	2015_Jul_27_1020	s	s	7	1	Capacity	15	RC	0	2	23RD	1	0	2.16021895409	345.0	-144.0	355	-144	1
1.7	2015_Jul_27_1020	s	s	7	1	Capacity	16	RC	0	1	23RO	1	0	2.2475399971	222.0	223.0	221	213	1
1.7	2015_Jul_27_1020	s	s	7	1	Capacity	17	RC	0	2	23RD	1	0	2.53686499596	-4.0	23.0	-9	16	1
1.7	2015_Jul_27_1020	s	s	7	1	Capacity	18	RC	0	1	23RO	1	0	2.42407608032	116.0	294.0	120	294	1
1.7	2015_Jul_27_1020	s	s	7	1	Capacity	19	ABS	0	1	24RO	0	1	6.51676678658	None	None	None	None	1
1.7	2015_Jul_27_1020	s	s	7	1	Capacity	20	ABS	0	2	24RD	0	1	3.29010891914	None	None	None	None	1
1.7	2015_Jul_27_1020	s	s	7	1	Capacity	21	ABS	0	1	24RO	0	1	4.88102602959	None	None	None	None	1
1.7	2015_Jul_27_1020	s	s	7	1	Capacity	22	RC	0	2	23RD	1	0	2.49218893051	203.0	21.0	204	19	1
1.7	2015_Jul_27_1020	s	s	7	1	Capacity	23	RC	0	1	23RO	1	0	3.4798719883	-54.0	-168.0	-55	-173	1
1.7	2015_Jul_27_1020	s	s	7	1	Capacity	24	ABS	0	2	24RD	0	1	4.53823113441	None	None	None	None	1
1.7	2015_Jul_27_1020	s	s	7	1	Capacity	25	ABS	0	1	24RO	0	1	5.71986985207	None	None	None	None	1
1.7	2015_Jul_27_1020	s	s	7	1	Capacity	26	RC	0	1	23RO	1	0	6.06118297577	482.0	-30.0	483	-30	1
1.7	2015_Jul_27_1020	s	s	7	1	Capacity	27	ABS	0	2	24RD	0	1	8.36330699921	None	None	None	None	1
1.7	2015_Jul_27_1020	s	s	7	1	Capacity	28	RC	0	2	23RD	1	0	2.81252503395	-30.0	-358.0	-36	-356	1
1.7	2015_Jul_27_1020	s	s	7	1	Capacity	29	ABS	0	1	24RO	0	1	8.74017810822	None	None	None	None	1
1.7	2015_Jul_27_1020	s	s	7	1	Capacity	30	ABS	0	2	24RD	0	1	3.60796403885	None	None	None	None	1
1.7	2015_Jul_27_1020	s	s	7	1	Capacity	31	RC	0	2	23RD	1	0	1.47069096565	-409.0	-46.0	-411	-49	1
1.7	2015_Jul_27_1020	s	s	7	1	Capacity	32	RC	0	1	23RO	0	1	8.83907914162	-190.0	-347.0	None	None	0
1.7	2015_Jul_27_1020	s	s	7	1	Capacity	33	RC	0	1	23RO	1	0	3.73755502701	209.0	-317.0	211	-322	1
1.7	2015_Jul_27_1020	s	s	7	1	Capacity	34	ABS	0	1	24RO	0	1	10.6046690941	None	None	None	None	1
1.7	2015_Jul_27_1020	s	s	7	1	Capacity	35	ABS	0	2	24RD	0	1	2.14152908325	None	None	None	None	1
1.7	2015_Jul_27_1020	s	s	7	1	Capacity	36	RC	0	2	23RD	1	0	1.26613998413	358.0	-320.0	357	-319	1
1.7	2015_Jul_27_1020	s	s	7	1	Capacity	37	RC	0	2	23RD	1	0	2.36519885063	254.0	260.0	258	254	1
1.7	2015_Jul_27_1020	s	s	7	1	Capacity	38	RC	0	1	23RO	1	0	5.10204696655	242.0	-181.0	241	-184	1
1.7	2015_Jul_27_1020	s	s	7	1	Capacity	39	ABS	0	1	24RO	0	1	6.86754012108	None	None	None	None	1
1.7	2015_Jul_27_1020	s	s	7	1	Capacity	40	ABS	0	2	24RD	0	1	12.308672905	None	None	None	None	1
1.7	2015_Jul_27_1020	s	s	7	1	Capacity	41	RC	0	1	23RO	1	0	5.49125385284	-267.0	-19.0	-272	-19	1
1.7	2015_Jul_27_1020	s	s	7	1	Capacity	42	ABS	0	2	24RD	0	1	8.02695989609	None	None	None	None	1
1.7	2015_Jul_27_1020	s	s	7	1	Capacity	43	RC	0	2	23RD	1	0	1.6070098877	266.0	-102.0	262	-101	1
1.7	2015_Jul_27_1020	s	s	7	1	Capacity	44	ABS	0	1	24RO	0	1	5.69632101059	None	None	None	None	1
1.7	2015_Jul_27_1020	s	s	7	1	Capacity	45	ABS	0	1	24RO	0	1	11.3059630394	None	None	None	None	1
1.7	2015_Jul_27_1020	s	s	7	1	Capacity	46	RC	0	1	23RO	1	0	8.58027505875	250.0	407.0	254	401	1
1.7	2015_Jul_27_1020	s	s	7	1	Capacity	47	ABS	0	2	24RD	0	1	8.53927612305	None	None	None	None	1
1.7	2015_Jul_27_1020	s	s	7	1	Capacity	48	RC	0	2	23RD	1	0	1.49430203438	367.0	-219.0	363	-224	1
1.7	2015_Jul_27_1020	s	s	7	1	Capacity	49	ABS	0	2	24RD	0	1	5.08406591415	None	None	None	None	1
1.7	2015_Jul_27_1020	s	s	7	1	Capacity	50	RC	0	2	23RD	1	0	2.9579398632	267.0	149.0	275	149	1
1.7	2015_Jul_27_1020	s	s	7	1	Capacity	51	ABS	0	1	24RO	0	1	8.99889206886	None	None	None	None	1
1.7	2015_Jul_27_1020	s	s	7	1	Capacity	52	RC	0	1	23RO	1	0	4.86053013802	-203.0	-380.0	-205	-391	1
1.7	2015_Jul_27_1020	s	s	7	1	Capacity	53	RC	0	1	23RO	1	0	2.95011901855	-341.0	56.0	-345	58	1
1.7	2015_Jul_27_1020	s	s	7	1	Capacity	54	RC	0	2	23RD	1	0	1.40005302429	69.0	109.0	64	110	1
1.7	2015_Jul_27_1020	s	s	7	1	Capacity	55	ABS	0	1	24RO	0	1	7.66850399971	None	None	None	None	1
1.7	2015_Jul_27_1020	s	s	7	1	Capacity	56	ABS	0	2	24RD	0	1	3.50699591637	None	None	None	None	1
1.7	2015_Jul_27_1020	s	s	7	1	Capacity	57	RC	0	1	23RO	1	0	6.26796317101	382.0	347.0	391	348	1
1.7	2015_Jul_27_1020	s	s	7	1	Capacity	58	ABS	0	2	24RD	0	1	4.87237620354	None	None	None	None	1
1.7	2015_Jul_27_1020	s	s	7	1	Capacity	59	ABS	0	1	24RO	0	1	7.68273496628	None	None	None	None	1
1.7	2015_Jul_27_1020	s	s	7	1	Capacity	60	RC	0	2	23RD	1	0	1.35292196274	79.0	392.0	78	391	1
1.7	2015_Jul_27_1020	s	s	7	1	Capacity	61	ABS	0	1	24RO	0	1	7.22651100159	None	None	None	None	1
1.7	2015_Jul_27_1020	s	s	7	1	Capacity	62	ABS	0	2	24RD	0	1	3.44315600395	None	None	None	None	1
1.7	2015_Jul_27_1020	s	s	7	1	Capacity	63	RC	0	1	23RO	1	0	1.92620301247	-45.0	-158.0	-38	-157	1
1.7	2015_Jul_27_1020	s	s	7	1	Capacity	64	RC	0	2	23RD	1	0	1.4588830471	-121.0	33.0	-121	24	1
1.7	2015_Jul_27_1020	s	s	7	1	Capacity	65	ABS	0	2	24RD	0	1	2.82431793213	None	None	None	None	1
1.7	2015_Jul_27_1020	s	s	7	1	Capacity	66	ABS	0	1	24RO	0	1	9.52843689919	None	None	None	None	1
1.7	2015_Jul_27_1020	s	s	7	1	Capacity	67	RC	0	2	23RD	1	0	1.5059068203	-87.0	310.0	-85	309	1
1.7	2015_Jul_27_1020	s	s	7	1	Capacity	68	RC	0	1	23RO	1	0	1.74821615219	-20.0	312.0	-14	312	1
1.7	2015_Jul_27_1020	s	s	7	1	Capacity	69	RC	0	1	23RO	1	0	10.6699168682	223.0	-166.0	229	-164	1
1.7	2015_Jul_27_1020	s	s	7	1	Capacity	70	ABS	0	1	24RO	0	1	9.76893496513	None	None	None	None	1
1.7	2015_Jul_27_1020	s	s	7	1	Capacity	71	ABS	0	2	24RD	0	1	4.21998405457	None	None	None	None	1
1.7	2015_Jul_27_1020	s	s	7	1	Capacity	72	RC	0	2	23RD	1	0	1.34119486809	-416.0	246.0	-415	243	1
1.7	2015_Jul_27_1020	s	s	7	1	Capacity	73	ABS	0	2	24RD	0	1	7.09698295593	None	None	None	None	1
1.7	2015_Jul_27_1020	s	s	7	1	Capacity	74	RC	0	1	23RO	1	0	6.20897603035	-507.0	-197.0	-513	-188	1
1.7	2015_Jul_27_1020	s	s	7	1	Capacity	75	RC	0	2	23RD	1	0	2.10143995285	464.0	107.0	472	109	1
1.7	2015_Jul_27_1020	s	s	7	1	Capacity	76	ABS	0	1	24RO	0	1	6.9861330986	None	None	None	None	1
1.7	2015_Jul_27_1020	s	s	7	1	Capacity	77	RC	0	1	23RO	1	0	5.96215605736	323.0	-245.0	320	-248	1
1.7	2015_Jul_27_1020	s	s	7	1	Capacity	78	RC	0	2	23RD	1	0	2.95747280121	58.0	-83.0	60	-80	1
1.7	2015_Jul_27_1020	s	s	7	1	Capacity	79	ABS	0	2	24RD	0	1	7.61870312691	None	None	None	None	1
1.7	2015_Jul_27_1020	s	s	7	1	Capacity	80	ABS	0	1	24RO	0	1	8.17986011505	None	None	None	None	1
1.7	2015_Jul_27_1020	s	s	7	1	Capacity	81	RC	0	1	23RO	0	1	10.3989369869	-177.0	-119.0	None	None	0
1.7	2015_Jul_27_1020	s	s	7	1	Capacity	82	ABS	0	2	24RD	0	1	3.45986485481	None	None	None	None	1
1.7	2015_Jul_27_1020	s	s	7	1	Capacity	83	RC	0	2	23RD	1	0	1.60648202896	-318.0	-334.0	-320	-335	1
1.7	2015_Jul_27_1020	s	s	7	1	Capacity	84	ABS	0	1	24RO	0	1	7.93952918053	None	None	None	None	1
1.7	2015_Jul_27_1020	s	s	7	1	Capacity	85	RC	0	1	23RO	1	0	4.76168298721	-254.0	-149.0	-245	-145	1
1.7	2015_Jul_27_1020	s	s	7	1	Capacity	86	ABS	0	1	24RO	0	1	10.9299359322	None	None	None	None	1
1.7	2015_Jul_27_1020	s	s	7	1	Capacity	87	RC	0	2	23RD	1	0	1.34982204437	-6.0	8.0	-3	0	1
1.7	2015_Jul_27_1020	s	s	7	1	Capacity	88	ABS	0	2	24RD	0	1	2.36030697823	None	None	None	None	1
1.7	2015_Jul_27_1020	s	s	7	1	Capacity	89	ABS	0	2	24RD	0	1	7.31723308563	None	None	None	None	1
1.7	2015_Jul_27_1020	s	s	7	1	Capacity	90	ABS	0	1	24RO	0	1	7.77626299858	None	None	None	None	1
1.7	2015_Jul_27_1020	s	s	7	1	Capacity	91	RC	0	2	23RD	1	0	1.81200408936	393.0	-232.0	390	-227	1
1.7	2015_Jul_27_1020	s	s	7	1	Capacity	92	RC	0	1	23RO	1	0	6.3440489769	479.0	237.0	480	239	1
1.7	2015_Jul_27_1020	s	s	7	1	Capacity	1	ABS	2	0	24VC	0	1	1.39798402786	None	None	None	None	1
1.7	2015_Jul_27_1020	s	s	7	1	Capacity	2	ABS	1	0	24MC	0	1	5.526512146	None	None	None	None	1
1.7	2015_Jul_27_1020	s	s	7	1	Capacity	3	RC	1	0	23MC	1	0	2.94867897034	-319.0	242.0	-325	247	1
1.7	2015_Jul_27_1020	s	s	7	1	Capacity	4	RC	2	0	23VC	1	0	1.21173715591	166.0	-374.0	163	-377	1
1.7	2015_Jul_27_1020	s	s	7	1	Capacity	5	RC	2	0	23VC	1	0	2.00037693977	180.0	357.0	181	351	1
1.7	2015_Jul_27_1020	s	s	7	1	Capacity	6	ABS	1	0	24MC	0	1	6.23280596733	None	None	None	None	1
1.7	2015_Jul_27_1020	s	s	7	1	Capacity	7	RC	1	0	23MC	1	0	3.95415306091	-435.0	365.0	-436	366	1
1.7	2015_Jul_27_1020	s	s	7	1	Capacity	8	ABS	2	0	24VC	0	1	1.90121006966	None	None	None	None	1
1.7	2015_Jul_27_1020	s	s	7	1	Capacity	9	RC	2	0	23VC	1	0	2.47119402885	-266.0	-386.0	-265	-387	1
1.7	2015_Jul_27_1020	s	s	7	1	Capacity	10	ABS	1	0	24MC	0	1	5.76140403748	None	None	None	None	1
1.7	2015_Jul_27_1020	s	s	7	1	Capacity	11	ABS	2	0	24VC	0	1	2.70155000687	None	None	None	None	1
1.7	2015_Jul_27_1020	s	s	7	1	Capacity	12	RC	1	0	23MC	1	0	2.01212596893	-5.0	-62.0	-5	-62	1
1.7	2015_Jul_27_1020	s	s	7	1	Capacity	13	ABS	2	0	24VC	0	1	2.91340112686	None	None	None	None	1
1.7	2015_Jul_27_1020	s	s	7	1	Capacity	14	RC	1	0	23MC	1	0	2.01194095612	-119.0	-278.0	-114	-272	1
1.7	2015_Jul_27_1020	s	s	7	1	Capacity	15	ABS	1	0	24MC	0	1	6.59089493752	None	None	None	None	1
1.7	2015_Jul_27_1020	s	s	7	1	Capacity	16	RC	2	0	23VC	1	0	1.84735488892	509.0	-387.0	516	-391	1
1.7	2015_Jul_27_1020	s	s	7	1	Capacity	17	ABS	1	0	24MC	0	1	6.41926503181	None	None	None	None	1
1.7	2015_Jul_27_1020	s	s	7	1	Capacity	18	RC	1	0	23MC	1	0	2.65949702263	-198.0	-288.0	-197	-288	1
1.7	2015_Jul_27_1020	s	s	7	1	Capacity	19	ABS	2	0	24VC	0	1	1.61879396439	None	None	None	None	1
1.7	2015_Jul_27_1020	s	s	7	1	Capacity	20	RC	2	0	23VC	1	0	1.45437407494	158.0	88.0	163	83	1
1.7	2015_Jul_27_1020	s	s	7	1	Capacity	21	ABS	1	0	24MC	0	1	3.50147294998	None	None	None	None	1
1.7	2015_Jul_27_1020	s	s	7	1	Capacity	22	ABS	2	0	24VC	0	1	1.6942679882	None	None	None	None	1
1.7	2015_Jul_27_1020	s	s	7	1	Capacity	23	RC	2	0	23VC	1	0	1.11006116867	-83.0	-208.0	-87	-207	1
1.7	2015_Jul_27_1020	s	s	7	1	Capacity	24	RC	1	0	23MC	1	0	5.40209507942	187.0	-401.0	186	-402	1
1.7	2015_Jul_27_1020	s	s	7	1	Capacity	25	RC	1	0	23MC	1	0	2.58871293068	-261.0	-184.0	-266	-185	1
1.7	2015_Jul_27_1020	s	s	7	1	Capacity	26	ABS	2	0	24VC	0	1	1.51288890839	None	None	None	None	1
1.7	2015_Jul_27_1020	s	s	7	1	Capacity	27	ABS	1	0	24MC	0	1	5.4058740139	None	None	None	None	1
1.7	2015_Jul_27_1020	s	s	7	1	Capacity	28	RC	2	0	23VC	1	0	1.18587708473	512.0	287.0	513	287	1
1.7	2015_Jul_27_1020	s	s	7	1	Capacity	29	ABS	2	0	24VC	0	1	1.76181602478	None	None	None	None	1
1.7	2015_Jul_27_1020	s	s	7	1	Capacity	30	ABS	1	0	24MC	0	1	4.81352710724	None	None	None	None	1
1.7	2015_Jul_27_1020	s	s	7	1	Capacity	31	RC	2	0	23VC	1	0	1.11522698402	-30.0	215.0	-24	215	1
1.7	2015_Jul_27_1020	s	s	7	1	Capacity	32	RC	1	0	23MC	1	0	4.86825609207	274.0	-195.0	270	-201	1
1.7	2015_Jul_27_1020	s	s	7	1	Capacity	33	RC	2	0	23VC	1	0	1.77030396461	353.0	240.0	355	240	1
1.7	2015_Jul_27_1020	s	s	7	1	Capacity	34	RC	1	0	23MC	1	0	1.91789102554	-396.0	146.0	-389	143	1
1.7	2015_Jul_27_1020	s	s	7	1	Capacity	35	ABS	2	0	24VC	0	1	1.3704791069	None	None	None	None	1
1.7	2015_Jul_27_1020	s	s	7	1	Capacity	36	ABS	1	0	24MC	0	1	4.56129598618	None	None	None	None	1
1.7	2015_Jul_27_1020	s	s	7	1	Capacity	37	ABS	2	0	24VC	0	1	1.76177692413	None	None	None	None	1
1.7	2015_Jul_27_1020	s	s	7	1	Capacity	38	RC	2	0	23VC	1	0	1.07050585747	-183.0	92.0	-184	89	1
1.7	2015_Jul_27_1020	s	s	7	1	Capacity	39	ABS	1	0	24MC	0	1	6.35545516014	None	None	None	None	1
1.7	2015_Jul_27_1020	s	s	7	1	Capacity	40	RC	1	0	23MC	1	0	1.52473783493	-113.0	-59.0	-104	-53	1
1.7	2015_Jul_27_1020	s	s	7	1	Capacity	41	ABS	2	0	24VC	0	1	2.76050519943	None	None	None	None	1
1.7	2015_Jul_27_1020	s	s	7	1	Capacity	42	RC	2	0	23VC	1	0	2.10111498833	-394.0	-383.0	-394	-387	1
1.7	2015_Jul_27_1020	s	s	7	1	Capacity	43	ABS	1	0	24MC	0	1	5.74337887764	None	None	None	None	1
1.7	2015_Jul_27_1020	s	s	7	1	Capacity	44	RC	1	0	23MC	1	0	4.42018985748	-223.0	-354.0	-223	-352	1
1.7	2015_Jul_27_1020	s	s	7	1	Capacity	45	RC	1	0	23MC	1	0	1.67095804214	-77.0	-247.0	-81	-242	1
1.7	2015_Jul_27_1020	s	s	7	1	Capacity	46	RC	2	0	23VC	1	0	1.04204511642	-400.0	109.0	-398	105	1
1.7	2015_Jul_27_1020	s	s	7	1	Capacity	47	ABS	2	0	24VC	0	1	1.43519210815	None	None	None	None	1
1.7	2015_Jul_27_1020	s	s	7	1	Capacity	48	ABS	1	0	24MC	0	1	6.88515615463	None	None	None	None	1
1.7	2015_Jul_27_1020	s	s	7	1	Capacity	49	RC	2	0	23VC	1	0	1.61196303368	-223.0	-13.0	-222	-13	1
1.7	2015_Jul_27_1020	s	s	7	1	Capacity	50	ABS	1	0	24MC	0	1	6.53892803192	None	None	None	None	1
1.7	2015_Jul_27_1020	s	s	7	1	Capacity	51	RC	1	0	23MC	1	0	1.59531807899	-189.0	99.0	-190	100	1
1.7	2015_Jul_27_1020	s	s	7	1	Capacity	52	ABS	2	0	24VC	0	1	1.52461385727	None	None	None	None	1
1.7	2015_Jul_27_1020	s	s	7	1	Capacity	53	ABS	1	0	24MC	0	1	4.92747306824	None	None	None	None	1
1.7	2015_Jul_27_1020	s	s	7	1	Capacity	54	ABS	2	0	24VC	0	1	2.3484609127	None	None	None	None	1
1.7	2015_Jul_27_1020	s	s	7	1	Capacity	55	RC	2	0	23VC	1	0	3.11860895157	373.0	-64.0	371	-66	1
1.7	2015_Jul_27_1020	s	s	7	1	Capacity	56	RC	1	0	23MC	1	0	2.15335988998	247.0	19.0	254	14	1
1.7	2015_Jul_27_1020	s	s	7	1	Capacity	57	ABS	2	0	24VC	0	1	1.670773983	None	None	None	None	1
1.7	2015_Jul_27_1020	s	s	7	1	Capacity	58	RC	1	0	23MC	1	0	1.72176098824	98.0	-173.0	105	-169	1
1.7	2015_Jul_27_1020	s	s	7	1	Capacity	59	RC	2	0	23VC	1	0	1.88037204742	-189.0	322.0	-186	325	1
1.7	2015_Jul_27_1020	s	s	7	1	Capacity	60	ABS	1	0	24MC	0	1	12.8292992115	None	None	None	None	1
1.7	2015_Jul_27_1020	s	s	7	1	Capacity	61	RC	2	0	23VC	1	0	1.0211148262	61.0	-60.0	58	-63	1
1.7	2015_Jul_27_1020	s	s	7	1	Capacity	62	RC	1	0	23MC	1	0	3.54227399826	435.0	-72.0	431	-70	1
1.7	2015_Jul_27_1020	s	s	7	1	Capacity	63	ABS	1	0	24MC	0	1	7.65404105186	None	None	None	None	1
1.7	2015_Jul_27_1020	s	s	7	1	Capacity	64	ABS	2	0	24VC	0	1	2.78889107704	None	None	None	None	1
1.7	2015_Jul_27_1020	s	s	7	1	Capacity	65	ABS	2	0	24VC	0	1	2.91124200821	None	None	None	None	1
1.7	2015_Jul_27_1020	s	s	7	1	Capacity	66	RC	1	0	23MC	1	0	2.82814097404	-40.0	129.0	-36	126	1
1.7	2015_Jul_27_1020	s	s	7	1	Capacity	67	ABS	1	0	24MC	0	1	11.753246069	None	None	None	None	1
1.7	2015_Jul_27_1020	s	s	7	1	Capacity	68	RC	2	0	23VC	1	0	0.923695087433	228.0	18.0	219	15	1
1.7	2015_Jul_27_1020	s	s	7	1	Capacity	69	ABS	2	0	24VC	0	1	2.08042907715	None	None	None	None	1
1.7	2015_Jul_27_1020	s	s	7	1	Capacity	70	ABS	1	0	24MC	0	1	4.40842914581	None	None	None	None	1
1.7	2015_Jul_27_1020	s	s	7	1	Capacity	71	RC	2	0	23VC	1	0	1.230219841	-385.0	274.0	-384	272	1
1.7	2015_Jul_27_1020	s	s	7	1	Capacity	72	RC	1	0	23MC	1	0	2.31335496902	-122.0	-285.0	-123	-293	1
1.7	2015_Jul_27_1020	s	s	7	1	Capacity	73	ABS	2	0	24VC	0	1	1.33583402634	None	None	None	None	1
1.7	2015_Jul_27_1020	s	s	7	1	Capacity	74	ABS	1	0	24MC	0	1	8.89281916618	None	None	None	None	1
1.7	2015_Jul_27_1020	s	s	7	1	Capacity	75	RC	1	0	23MC	1	0	7.28532600403	-412.0	307.0	-414	310	1
1.7	2015_Jul_27_1020	s	s	7	1	Capacity	76	RC	2	0	23VC	1	0	1.37645888329	498.0	-259.0	505	-256	1
1.7	2015_Jul_27_1020	s	s	7	1	Capacity	77	ABS	2	0	24VC	0	1	2.03572893143	None	None	None	None	1
1.7	2015_Jul_27_1020	s	s	7	1	Capacity	78	RC	2	0	23VC	1	0	1.0115480423	89.0	50.0	91	51	1
1.7	2015_Jul_27_1020	s	s	7	1	Capacity	79	RC	1	0	23MC	1	0	2.94200897217	253.0	-326.0	253	-326	1
1.7	2015_Jul_27_1020	s	s	7	1	Capacity	80	ABS	1	0	24MC	0	1	5.02109003067	None	None	None	None	1
1.7	2015_Jul_27_1020	s	s	7	1	Capacity	81	RC	1	0	23MC	1	0	1.97717189789	-279.0	357.0	-276	359	1
1.7	2015_Jul_27_1020	s	s	7	1	Capacity	82	ABS	2	0	24VC	0	1	3.78445887566	None	None	None	None	1
1.7	2015_Jul_27_1020	s	s	7	1	Capacity	83	ABS	1	0	24MC	0	1	6.7674741745	None	None	None	None	1
1.7	2015_Jul_27_1020	s	s	7	1	Capacity	84	RC	2	0	23VC	1	0	1.08218598366	-211.0	-15.0	-206	-13	1
1.7	2015_Jul_27_1020	s	s	7	1	Capacity	85	ABS	2	0	24VC	0	1	2.10144400597	None	None	None	None	1
1.7	2015_Jul_27_1020	s	s	7	1	Capacity	86	ABS	1	0	24MC	0	1	9.33340501785	None	None	None	None	1
1.7	2015_Jul_27_1020	s	s	7	1	Capacity	87	RC	2	0	23VC	1	0	1.52956295013	233.0	-14.0	235	-10	1
1.7	2015_Jul_27_1020	s	s	7	1	Capacity	88	RC	1	0	23MC	1	0	3.86678695679	-537.0	-211.0	-537	-213	1
1.7	2015_Jul_27_1020	s	s	7	1	Capacity	89	RC	2	0	23VC	1	0	1.47070097923	-218.0	-382.0	-221	-382	1
1.7	2015_Jul_27_1020	s	s	7	1	Capacity	90	ABS	2	0	24VC	0	1	2.42406916618	None	None	None	None	1
1.7	2015_Jul_27_1020	s	s	7	1	Capacity	91	ABS	1	0	24MC	0	1	6.98307108879	None	None	None	None	1
1.7	2015_Jul_27_1020	s	s	7	1	Capacity	92	RC	1	0	23MC	1	0	5.7262699604	327.0	64.0	326	58	1
1.7	2015_Jul_27_1020	s	s	7	1	SIC	1	ABS	1	1	24MO	0	1	6.39075803757	None	None	None	None	1
1.7	2015_Jul_27_1020	s	s	7	1	SIC	2	RC	1	0	23MC	1	0	1.75007796288	63.0	-117.0	67	-119	1
1.7	2015_Jul_27_1020	s	s	7	1	SIC	3	RC	1	2	23MD	1	0	1.23518395424	467.0	-105.0	473	-100	1
1.7	2015_Jul_27_1020	s	s	7	1	SIC	4	RC	1	1	23MO	1	0	3.26637983322	-280.0	-68.0	-278	-68	1
1.7	2015_Jul_27_1020	s	s	7	1	SIC	5	RC	2	2	23VD	1	0	0.915222167969	-133.0	333.0	-136	338	1
1.7	2015_Jul_27_1020	s	s	7	1	SIC	6	RC	0	1	23RO	1	0	1.60581302643	-319.0	227.0	-312	228	1
1.7	2015_Jul_27_1020	s	s	7	1	SIC	7	RC	2	1	23VO	1	0	0.846832036972	439.0	31.0	440	33	1
1.7	2015_Jul_27_1020	s	s	7	1	SIC	8	ABS	1	2	24MD	0	1	2.10135197639	None	None	None	None	1
1.7	2015_Jul_27_1020	s	s	7	1	SIC	9	RC	2	0	23VC	1	0	1.34121918678	468.0	-136.0	472	-136	1
1.7	2015_Jul_27_1020	s	s	7	1	SIC	10	ABS	2	0	24VC	0	1	1.8895778656	None	None	None	None	1
1.7	2015_Jul_27_1020	s	s	7	1	SIC	11	ABS	0	2	24RD	0	1	2.10307621956	None	None	None	None	1
1.7	2015_Jul_27_1020	s	s	7	1	SIC	12	RC	0	2	23RD	1	0	1.02338814735	56.0	252.0	58	248	1
1.7	2015_Jul_27_1020	s	s	7	1	SIC	13	ABS	1	0	24MC	0	1	5.40197396278	None	None	None	None	1
1.7	2015_Jul_27_1020	s	s	7	1	SIC	14	ABS	0	1	24RO	0	1	7.62670087814	None	None	None	None	1
1.7	2015_Jul_27_1020	s	s	7	1	SIC	15	ABS	2	2	24VD	0	1	1.15972995758	None	None	None	None	1
1.7	2015_Jul_27_1020	s	s	7	1	SIC	16	ABS	2	1	24VO	0	1	1.84258913994	None	None	None	None	1
1.7	2015_Jul_27_1020	s	s	7	1	SIC	17	RC	0	1	23RO	1	0	4.03352594376	187.0	-399.0	183	-398	1
1.7	2015_Jul_27_1020	s	s	7	1	SIC	18	ABS	1	2	24MD	0	1	2.31819009781	None	None	None	None	1
1.7	2015_Jul_27_1020	s	s	7	1	SIC	19	ABS	1	0	24MC	0	1	12.7939200401	None	None	None	None	1
1.7	2015_Jul_27_1020	s	s	7	1	SIC	20	ABS	1	1	24MO	0	1	4.25515294075	None	None	None	None	1
1.7	2015_Jul_27_1020	s	s	7	1	SIC	21	ABS	0	1	24RO	0	1	5.21765398979	None	None	None	None	1
1.7	2015_Jul_27_1020	s	s	7	1	SIC	22	RC	2	0	23VC	1	0	1.0585360527	253.0	-55.0	258	-53	1
1.7	2015_Jul_27_1020	s	s	7	1	SIC	23	ABS	0	2	24RD	0	1	1.67996501923	None	None	None	None	1
1.7	2015_Jul_27_1020	s	s	7	1	SIC	24	RC	1	2	23MD	1	0	1.26509189606	28.0	-200.0	35	-200	1
1.7	2015_Jul_27_1020	s	s	7	1	SIC	25	ABS	2	2	24VD	0	1	1.38341283798	None	None	None	None	1
1.7	2015_Jul_27_1020	s	s	7	1	SIC	26	RC	1	1	23MO	1	0	1.27052497864	285.0	-262.0	287	-260	1
1.7	2015_Jul_27_1020	s	s	7	1	SIC	27	RC	2	2	23VD	1	0	1.5952270031	213.0	109.0	218	107	1
1.7	2015_Jul_27_1020	s	s	7	1	SIC	28	RC	2	1	23VO	1	0	0.999851942062	242.0	-68.0	250	-64	1
1.7	2015_Jul_27_1020	s	s	7	1	SIC	29	ABS	2	0	24VC	0	1	1.40006017685	None	None	None	None	1
1.7	2015_Jul_27_1020	s	s	7	1	SIC	30	RC	1	0	23MC	1	0	1.79523587227	-134.0	252.0	-135	259	1
1.7	2015_Jul_27_1020	s	s	7	1	SIC	31	ABS	2	1	24VO	0	1	1.43545007706	None	None	None	None	1
1.7	2015_Jul_27_1020	s	s	7	1	SIC	32	RC	0	2	23RD	1	0	0.926949977875	-78.0	-21.0	-76	-23	1
1.7	2015_Jul_27_1020	s	s	7	1	SIC	33	ABS	1	1	24MO	0	1	3.86866784096	None	None	None	None	1
1.7	2015_Jul_27_1020	s	s	7	1	SIC	34	ABS	0	2	24RD	0	1	1.83554196358	None	None	None	None	1
1.7	2015_Jul_27_1020	s	s	7	1	SIC	35	ABS	2	0	24VC	0	1	1.74938106537	None	None	None	None	1
1.7	2015_Jul_27_1020	s	s	7	1	SIC	36	RC	0	2	23RD	1	0	1.17638993263	-12.0	397.0	-4	400	1
1.7	2015_Jul_27_1020	s	s	7	1	SIC	37	RC	1	2	23MD	1	0	1.01897311211	-361.0	334.0	-360	337	1
1.7	2015_Jul_27_1020	s	s	7	1	SIC	38	ABS	2	2	24VD	0	1	0.844547986984	None	None	None	None	1
1.7	2015_Jul_27_1020	s	s	7	1	SIC	39	ABS	2	1	24VO	0	1	1.11273813248	None	None	None	None	1
1.7	2015_Jul_27_1020	s	s	7	1	SIC	40	RC	2	1	23VO	1	0	0.949466943741	443.0	207.0	441	210	1
1.7	2015_Jul_27_1020	s	s	7	1	SIC	41	RC	1	1	23MO	1	0	4.38976192474	-55.0	221.0	-51	220	1
1.7	2015_Jul_27_1020	s	s	7	1	SIC	42	RC	0	1	23RO	1	0	4.33787894249	334.0	-164.0	328	-167	1
1.7	2015_Jul_27_1020	s	s	7	1	SIC	43	ABS	1	2	24MD	0	1	3.0779030323	None	None	None	None	1
1.7	2015_Jul_27_1020	s	s	7	1	SIC	44	RC	1	0	23MC	1	0	7.327657938	467.0	16.0	467	16	1
1.7	2015_Jul_27_1020	s	s	7	1	SIC	45	RC	2	0	23VC	1	0	1.39997196198	-82.0	-123.0	-81	-115	1
1.7	2015_Jul_27_1020	s	s	7	1	SIC	46	RC	2	2	23VD	1	0	0.905619859695	-343.0	-157.0	-340	-153	1
1.7	2015_Jul_27_1020	s	s	7	1	SIC	47	ABS	0	1	24RO	0	1	6.76261305809	None	None	None	None	1
1.7	2015_Jul_27_1020	s	s	7	1	SIC	48	ABS	1	0	24MC	0	1	4.12695097923	None	None	None	None	1
1.7	2015_Jul_27_1020	s	s	7	1	SIC	49	RC	1	2	23MD	1	0	1.85913109779	419.0	-325.0	423	-322	1
1.7	2015_Jul_27_1020	s	s	7	1	SIC	50	ABS	2	0	24VC	0	1	2.88314414024	None	None	None	None	1
1.7	2015_Jul_27_1020	s	s	7	1	SIC	51	RC	2	2	23VD	1	0	1.05870604515	-298.0	-222.0	-303	-227	1
1.7	2015_Jul_27_1020	s	s	7	1	SIC	52	RC	2	0	23VC	1	0	1.35991001129	-373.0	268.0	-377	271	1
1.7	2015_Jul_27_1020	s	s	7	1	SIC	53	ABS	2	1	24VO	0	1	1.40695095062	None	None	None	None	1
1.7	2015_Jul_27_1020	s	s	7	1	SIC	54	RC	0	2	23RD	1	0	1.12427711487	-530.0	352.0	-530	343	1
1.7	2015_Jul_27_1020	s	s	7	1	SIC	55	ABS	1	1	24MO	0	1	4.37523698807	None	None	None	None	1
1.7	2015_Jul_27_1020	s	s	7	1	SIC	56	ABS	2	2	24VD	0	1	1.04462885857	None	None	None	None	1
1.7	2015_Jul_27_1020	s	s	7	1	SIC	57	ABS	1	2	24MD	0	1	1.70598387718	None	None	None	None	1
1.7	2015_Jul_27_1020	s	s	7	1	SIC	58	RC	0	1	23RO	1	0	3.37482619286	23.0	395.0	23	398	1
1.7	2015_Jul_27_1020	s	s	7	1	SIC	59	RC	1	1	23MO	1	0	2.92467689514	259.0	-254.0	265	-254	1
1.7	2015_Jul_27_1020	s	s	7	1	SIC	60	ABS	0	2	24RD	0	1	1.94154191017	None	None	None	None	1
1.7	2015_Jul_27_1020	s	s	7	1	SIC	61	RC	1	0	23MC	1	0	1.50117993355	246.0	142.0	249	148	1
1.7	2015_Jul_27_1020	s	s	7	1	SIC	62	ABS	0	1	24RO	0	1	5.91992998123	None	None	None	None	1
1.7	2015_Jul_27_1020	s	s	7	1	SIC	63	RC	2	1	23VO	1	0	0.976273775101	-84.0	-283.0	-86	-281	1
1.7	2015_Jul_27_1020	s	s	7	1	SIC	64	ABS	1	0	24MC	0	1	7.66196203232	None	None	None	None	1
1.7	2015_Jul_27_1020	s	s	7	1	SIC	65	RC	1	2	23MD	1	0	1.09854388237	64.0	-100.0	70	-98	1
1.7	2015_Jul_27_1020	s	s	7	1	SIC	66	ABS	2	2	24VD	0	1	1.03897190094	None	None	None	None	1
1.7	2015_Jul_27_1020	s	s	7	1	SIC	67	RC	1	0	23MC	1	0	1.49408388138	-184.0	-73.0	-187	-73	1
1.7	2015_Jul_27_1020	s	s	7	1	SIC	68	RC	1	1	23MO	1	0	1.27751588821	288.0	93.0	291	89	1
1.7	2015_Jul_27_1020	s	s	7	1	SIC	69	ABS	1	1	24MO	0	1	4.60156989098	None	None	None	None	1
1.7	2015_Jul_27_1020	s	s	7	1	SIC	70	RC	2	0	23VC	1	0	1.42358016968	-202.0	-401.0	-205	-404	1
1.7	2015_Jul_27_1020	s	s	7	1	SIC	71	ABS	1	2	24MD	0	1	1.67763209343	None	None	None	None	1
1.7	2015_Jul_27_1020	s	s	7	1	SIC	72	ABS	0	1	24RO	0	1	4.51925301552	None	None	None	None	1
1.7	2015_Jul_27_1020	s	s	7	1	SIC	73	ABS	0	2	24RD	0	1	1.53892397881	None	None	None	None	1
1.7	2015_Jul_27_1020	s	s	7	1	SIC	74	ABS	2	1	24VO	0	1	1.14111495018	None	None	None	None	1
1.7	2015_Jul_27_1020	s	s	7	1	SIC	75	ABS	2	0	24VC	0	1	1.35953903198	None	None	None	None	1
1.7	2015_Jul_27_1020	s	s	7	1	SIC	76	ABS	1	0	24MC	0	1	4.73790097237	None	None	None	None	1
1.7	2015_Jul_27_1020	s	s	7	1	SIC	77	RC	2	2	23VD	1	0	1.03011512756	-407.0	-380.0	-409	-382	1
1.7	2015_Jul_27_1020	s	s	7	1	SIC	78	RC	0	2	23RD	1	0	1.09398007393	-375.0	185.0	-379	191	1
1.7	2015_Jul_27_1020	s	s	7	1	SIC	79	RC	2	1	23VO	1	0	1.12929987907	499.0	-318.0	506	-317	1
1.7	2015_Jul_27_1020	s	s	7	1	SIC	80	RC	0	1	23RO	1	0	5.05509591103	480.0	-10.0	478	-10	1
1.7	2015_Jul_27_1020	s	s	7	1	SIC	81	RC	2	1	23VO	1	0	0.964377880096	126.0	-246.0	134	-241	1
1.7	2015_Jul_27_1020	s	s	7	1	SIC	82	RC	1	2	23MD	1	0	0.853700876236	424.0	101.0	423	104	1
1.7	2015_Jul_27_1020	s	s	7	1	SIC	83	ABS	1	1	24MO	0	1	5.96676492691	None	None	None	None	1
1.7	2015_Jul_27_1020	s	s	7	1	SIC	84	ABS	2	1	24VO	0	1	1.45406103134	None	None	None	None	1
1.7	2015_Jul_27_1020	s	s	7	1	SIC	85	RC	2	2	23VD	1	0	0.940994024277	-511.0	279.0	-514	279	1
1.7	2015_Jul_27_1020	s	s	7	1	SIC	86	ABS	1	0	24MC	0	1	4.40158295631	None	None	None	None	1
1.7	2015_Jul_27_1020	s	s	7	1	SIC	87	ABS	1	2	24MD	0	1	3.25976800919	None	None	None	None	1
1.7	2015_Jul_27_1020	s	s	7	1	SIC	88	ABS	2	0	24VC	0	1	2.28279495239	None	None	None	None	1
1.7	2015_Jul_27_1020	s	s	7	1	SIC	89	RC	0	1	23RO	1	0	7.02131891251	-18.0	-288.0	-17	-290	1
1.7	2015_Jul_27_1020	s	s	7	1	SIC	90	RC	2	0	23VC	1	0	0.925345897675	-334.0	-293.0	-329	-290	1
1.7	2015_Jul_27_1020	s	s	7	1	SIC	91	RC	1	1	23MO	1	0	1.02994894981	-61.0	138.0	-57	138	1
1.7	2015_Jul_27_1020	s	s	7	1	SIC	92	RC	0	2	23RD	1	0	1.08225393295	-95.0	-291.0	-90	-294	1
1.7	2015_Jul_27_1020	s	s	7	1	SIC	93	ABS	2	2	24VD	0	1	1.00727701187	None	None	None	None	1
1.7	2015_Jul_27_1020	s	s	7	1	SIC	94	ABS	0	1	24RO	0	1	9.12152099609	None	None	None	None	1
1.7	2015_Jul_27_1020	s	s	7	1	SIC	95	ABS	0	2	24RD	0	1	1.22348189354	None	None	None	None	1
1.7	2015_Jul_27_1020	s	s	7	1	SIC	96	RC	1	0	23MC	1	0	8.2975051403	-108.0	320.0	-109	320	1
1.7	2015_Jul_27_1020	s	s	7	1	SIC	97	ABS	2	2	24VD	0	1	0.912338972092	None	None	None	None	1
1.7	2015_Jul_27_1020	s	s	7	1	SIC	98	RC	0	2	23RD	1	0	1.11756896973	-465.0	355.0	-468	354	1
1.7	2015_Jul_27_1020	s	s	7	1	SIC	99	ABS	0	1	24RO	0	1	5.68445086479	None	None	None	None	1
1.7	2015_Jul_27_1020	s	s	7	1	SIC	100	RC	1	0	23MC	1	0	1.65409398079	-246.0	-296.0	-248	-290	1
1.7	2015_Jul_27_1020	s	s	7	1	SIC	101	ABS	1	1	24MO	0	1	4.67855596542	None	None	None	None	1
1.7	2015_Jul_27_1020	s	s	7	1	SIC	102	ABS	1	0	24MC	0	1	3.47844791412	None	None	None	None	1
1.7	2015_Jul_27_1020	s	s	7	1	SIC	103	RC	2	2	23VD	1	0	0.98256611824	158.0	219.0	154	222	1
1.7	2015_Jul_27_1020	s	s	7	1	SIC	104	RC	2	0	23VC	1	0	1.44713997841	-260.0	388.0	-267	388	1
1.7	2015_Jul_27_1020	s	s	7	1	SIC	105	RC	0	1	23RO	1	0	1.47757411003	70.0	-259.0	70	-261	1
1.7	2015_Jul_27_1020	s	s	7	1	SIC	106	ABS	0	2	24RD	0	1	1.81885695457	None	None	None	None	1
1.7	2015_Jul_27_1020	s	s	7	1	SIC	107	ABS	2	0	24VC	0	1	1.94143891335	None	None	None	None	1
1.7	2015_Jul_27_1020	s	s	7	1	SIC	108	ABS	2	1	24VO	0	1	5.95527815819	None	None	None	None	1
1.7	2015_Jul_27_1020	s	s	7	1	SIC	109	ABS	1	2	24MD	0	1	1.54818797112	None	None	None	None	1
1.7	2015_Jul_27_1020	s	s	7	1	SIC	110	RC	2	1	23VO	1	0	1.5362610817	-265.0	-359.0	-263	-360	1
1.7	2015_Jul_27_1020	s	s	7	1	SIC	111	RC	1	2	23MD	1	0	1.12933707237	272.0	24.0	279	25	1
1.7	2015_Jul_27_1020	s	s	7	1	SIC	112	RC	1	1	23MO	1	0	1.05868291855	-65.0	253.0	-73	256	1
1.7	2015_Jul_27_1020	s	s	7	1	SIC	113	ABS	1	1	24MO	0	1	5.4373459816	None	None	None	None	1
1.7	2015_Jul_27_1020	s	s	7	1	SIC	114	RC	2	2	23VD	1	0	0.882478952408	-229.0	-385.0	-238	-388	1
1.7	2015_Jul_27_1020	s	s	7	1	SIC	115	RC	1	2	23MD	1	0	1.04277086258	373.0	365.0	377	364	1
1.7	2015_Jul_27_1020	s	s	7	1	SIC	116	RC	1	0	23MC	1	0	18.8320291042	230.0	-170.0	232	-170	1
1.7	2015_Jul_27_1020	s	s	7	1	SIC	117	ABS	2	0	24VC	0	1	1.21866202354	None	None	None	None	1
1.7	2015_Jul_27_1020	s	s	7	1	SIC	118	RC	2	1	23VO	1	0	1.10580921173	238.0	204.0	235	202	1
1.7	2015_Jul_27_1020	s	s	7	1	SIC	119	ABS	1	2	24MD	0	1	2.09454607964	None	None	None	None	1
1.7	2015_Jul_27_1020	s	s	7	1	SIC	120	RC	1	1	23MO	1	0	1.30039310455	-64.0	390.0	-67	390	1
1.7	2015_Jul_27_1020	s	s	7	1	SIC	121	RC	0	1	23RO	1	0	1.71281385422	-121.0	-26.0	-120	-28	1
1.7	2015_Jul_27_1020	s	s	7	1	SIC	122	ABS	1	0	24MC	0	1	5.11409091949	None	None	None	None	1
1.7	2015_Jul_27_1020	s	s	7	1	SIC	123	RC	2	0	23VC	1	0	1.0187728405	-137.0	-204.0	-138	-208	1
1.7	2015_Jul_27_1020	s	s	7	1	SIC	124	ABS	2	1	24VO	0	1	1.01855492592	None	None	None	None	1
1.7	2015_Jul_27_1020	s	s	7	1	SIC	125	RC	0	2	23RD	1	0	0.856538057327	-86.0	88.0	-89	89	1
1.7	2015_Jul_27_1020	s	s	7	1	SIC	126	ABS	2	2	24VD	0	1	0.982539176941	None	None	None	None	1
1.7	2015_Jul_27_1020	s	s	7	1	SIC	127	ABS	0	1	24RO	0	1	4.9970729351	None	None	None	None	1
1.7	2015_Jul_27_1020	s	s	7	1	SIC	128	ABS	0	2	24RD	0	1	1.26574993134	None	None	None	None	1
1.7	2015_Jul_27_1020	s	s	7	1	SIC	129	ABS	0	1	24RO	0	1	5.92940592766	None	None	None	None	1
1.7	2015_Jul_27_1020	s	s	7	1	SIC	130	RC	2	0	23VC	1	0	1.3715801239	-19.0	330.0	-23	330	1
1.7	2015_Jul_27_1020	s	s	7	1	SIC	131	RC	0	1	23RO	1	0	3.33816409111	213.0	-305.0	215	-303	1
1.7	2015_Jul_27_1020	s	s	7	1	SIC	132	RC	2	1	23VO	1	0	1.30042004585	226.0	59.0	228	56	1
1.7	2015_Jul_27_1020	s	s	7	1	SIC	133	ABS	2	2	24VD	0	1	1.32945203781	None	None	None	None	1
1.7	2015_Jul_27_1020	s	s	7	1	SIC	134	ABS	1	2	24MD	0	1	1.94150710106	None	None	None	None	1
1.7	2015_Jul_27_1020	s	s	7	1	SIC	135	ABS	2	1	24VO	0	1	1.35297703743	None	None	None	None	1
1.7	2015_Jul_27_1020	s	s	7	1	SIC	136	ABS	1	1	24MO	0	1	5.20230698586	None	None	None	None	1
1.7	2015_Jul_27_1020	s	s	7	1	SIC	137	RC	0	2	23RD	1	0	1.10113787651	-486.0	-336.0	-483	-337	1
1.7	2015_Jul_27_1020	s	s	7	1	SIC	138	RC	1	0	23MC	0	1	2.96551799774	393.0	217.0	None	None	0
1.7	2015_Jul_27_1020	s	s	7	1	SIC	139	RC	2	2	23VD	1	0	0.971477985382	-529.0	139.0	-530	136	1
1.7	2015_Jul_27_1020	s	s	7	1	SIC	140	RC	1	2	23MD	1	0	1.08896207809	-383.0	143.0	-377	149	1
1.7	2015_Jul_27_1020	s	s	7	1	SIC	141	ABS	0	2	24RD	0	1	1.9649939537	None	None	None	None	1
1.7	2015_Jul_27_1020	s	s	7	1	SIC	142	RC	1	1	23MO	1	0	1.40012311935	-486.0	-260.0	-484	-253	1
1.7	2015_Jul_27_1020	s	s	7	1	SIC	143	ABS	1	0	24MC	0	1	5.03716301918	None	None	None	None	1
1.7	2015_Jul_27_1020	s	s	7	1	SIC	144	ABS	2	0	24VC	0	1	0.924481153488	None	None	None	None	1
1.7	2015_Jul_27_1020	s	s	7	1	SIC	145	ABS	2	0	24VC	0	1	2.30133318901	None	None	None	None	1
1.7	2015_Jul_27_1020	s	s	7	1	SIC	146	RC	2	1	23VO	1	0	1.10339283943	-28.0	393.0	-24	389	1
1.7	2015_Jul_27_1020	s	s	7	1	SIC	147	ABS	1	1	24MO	0	1	4.77333784103	None	None	None	None	1
1.7	2015_Jul_27_1020	s	s	7	1	SIC	148	ABS	0	2	24RD	0	1	2.31323695183	None	None	None	None	1
1.7	2015_Jul_27_1020	s	s	7	1	SIC	149	RC	0	2	23RD	1	0	0.912600040436	185.0	-78.0	192	-71	1
1.7	2015_Jul_27_1020	s	s	7	1	SIC	150	ABS	1	0	24MC	0	1	13.354113102	None	None	None	None	1
1.7	2015_Jul_27_1020	s	s	7	1	SIC	151	RC	0	1	23RO	0	1	4.89084911346	287.0	-19.0	None	None	0
1.7	2015_Jul_27_1020	s	s	7	1	SIC	152	RC	2	2	23VD	1	0	0.891218185425	-13.0	218.0	-6	221	1
1.7	2015_Jul_27_1020	s	s	7	1	SIC	153	ABS	2	2	24VD	0	1	1.12559199333	None	None	None	None	1
1.7	2015_Jul_27_1020	s	s	7	1	SIC	154	ABS	1	2	24MD	0	1	1.4802968502	None	None	None	None	1
1.7	2015_Jul_27_1020	s	s	7	1	SIC	155	RC	1	1	23MO	0	1	4.27613997459	-225.0	-290.0	None	None	0
1.7	2015_Jul_27_1020	s	s	7	1	SIC	156	RC	2	0	23VC	1	0	1.10579204559	-251.0	157.0	-250	164	1
1.7	2015_Jul_27_1020	s	s	7	1	SIC	157	ABS	2	1	24VO	0	1	1.24219107628	None	None	None	None	1
1.7	2015_Jul_27_1020	s	s	7	1	SIC	158	RC	1	2	23MD	1	0	0.964553117752	34.0	95.0	34	95	1
1.7	2015_Jul_27_1020	s	s	7	1	SIC	159	RC	1	0	23MC	0	1	3.70324778557	99.0	-271.0	None	None	0
1.7	2015_Jul_27_1020	s	s	7	1	SIC	160	ABS	0	1	24RO	0	1	8.02471804619	None	None	None	None	1
1.7	2015_Jul_27_1020	s	s	7	1	SIC	161	ABS	0	1	24RO	0	1	4.60166811943	None	None	None	None	1
1.7	2015_Jul_27_1020	s	s	7	1	SIC	162	RC	2	1	23VO	1	0	1.01161503792	-46.0	202.0	-46	197	1
1.7	2015_Jul_27_1020	s	s	7	1	SIC	163	ABS	2	2	24VD	0	1	0.972596883774	None	None	None	None	1
1.7	2015_Jul_27_1020	s	s	7	1	SIC	164	RC	1	2	23MD	1	0	0.925571918488	436.0	187.0	438	182	1
1.7	2015_Jul_27_1020	s	s	7	1	SIC	165	ABS	2	0	24VC	0	1	1.48939204216	None	None	None	None	1
1.7	2015_Jul_27_1020	s	s	7	1	SIC	166	RC	2	2	23VD	1	0	1.04693579674	-473.0	-364.0	-471	-366	1
1.7	2015_Jul_27_1020	s	s	7	1	SIC	167	RC	0	2	23RD	1	0	1.1528468132	-375.0	371.0	-375	369	1
1.7	2015_Jul_27_1020	s	s	7	1	SIC	168	ABS	1	0	24MC	0	1	6.0259540081	None	None	None	None	1
1.7	2015_Jul_27_1020	s	s	7	1	SIC	169	RC	1	0	23MC	1	0	3.02431082726	-371.0	-64.0	-370	-63	1
1.7	2015_Jul_27_1020	s	s	7	1	SIC	170	RC	1	1	23MO	1	0	1.52467393875	475.0	-146.0	481	-141	1
1.7	2015_Jul_27_1020	s	s	7	1	SIC	171	RC	2	0	23VC	1	0	0.983261108398	116.0	-220.0	115	-222	1
1.7	2015_Jul_27_1020	s	s	7	1	SIC	172	ABS	1	1	24MO	0	1	4.32586097717	None	None	None	None	1
1.7	2015_Jul_27_1020	s	s	7	1	SIC	173	RC	0	1	23RO	1	0	2.00968694687	-455.0	237.0	-448	233	1
1.7	2015_Jul_27_1020	s	s	7	1	SIC	174	ABS	1	2	24MD	0	1	1.48025608063	None	None	None	None	1
1.7	2015_Jul_27_1020	s	s	7	1	SIC	175	ABS	0	2	24RD	0	1	1.92174696922	None	None	None	None	1
1.7	2015_Jul_27_1020	s	s	7	1	SIC	176	ABS	2	1	24VO	0	1	1.33872580528	None	None	None	None	1
1.7	2015_Jul_27_1020	s	s	7	1	SIC	177	ABS	1	2	24MD	0	1	1.52956414223	None	None	None	None	1
1.7	2015_Jul_27_1020	s	s	7	1	SIC	178	ABS	1	0	24MC	0	1	3.8286678791	None	None	None	None	1
1.7	2015_Jul_27_1020	s	s	7	1	SIC	179	ABS	0	2	24RD	0	1	1.14796590805	None	None	None	None	1
1.7	2015_Jul_27_1020	s	s	7	1	SIC	180	RC	1	1	23MO	1	0	0.917469978333	-156.0	84.0	-160	84	1
1.7	2015_Jul_27_1020	s	s	7	1	SIC	181	RC	2	0	23VC	1	0	1.23319602013	399.0	-412.0	397	-411	1
1.7	2015_Jul_27_1020	s	s	7	1	SIC	182	ABS	2	0	24VC	0	1	0.929108142853	None	None	None	None	1
1.7	2015_Jul_27_1020	s	s	7	1	SIC	183	RC	0	1	23RO	1	0	5.4442961216	458.0	-229.0	463	-228	1
1.7	2015_Jul_27_1020	s	s	7	1	SIC	184	ABS	2	1	24VO	0	1	1.84733700752	None	None	None	None	1
1.7	2015_Jul_27_1020	s	s	7	1	SIC	185	RC	1	0	23MC	1	0	1.25428986549	-48.0	-50.0	-43	-51	1
1.7	2015_Jul_27_1020	s	s	7	1	SIC	186	ABS	1	1	24MO	0	1	4.38663506508	None	None	None	None	1
1.7	2015_Jul_27_1020	s	s	7	1	SIC	187	RC	0	2	23RD	1	0	1.23288798332	538.0	-123.0	543	-120	1
1.7	2015_Jul_27_1020	s	s	7	1	SIC	188	ABS	0	1	24RO	0	1	7.16767001152	None	None	None	None	1
1.7	2015_Jul_27_1020	s	s	7	1	SIC	189	RC	2	1	23VO	1	0	1.17047286034	-307.0	333.0	-308	334	1
1.7	2015_Jul_27_1020	s	s	7	1	SIC	190	RC	2	2	23VD	1	0	1.07732582092	74.0	-122.0	71	-124	1
1.7	2015_Jul_27_1020	s	s	7	1	SIC	191	RC	1	2	23MD	1	0	0.959708929062	528.0	-177.0	531	-175	1
1.7	2015_Jul_27_1020	s	s	7	1	SIC	192	ABS	2	2	24VD	0	1	1.03004908562	None	None	None	None	1
1.7	2015_Jul_27_1020	s	s	7	1	SIC	193	RC	2	1	23VO	1	0	1.04697394371	197.0	-111.0	205	-113	1
1.7	2015_Jul_27_1020	s	s	7	1	SIC	194	RC	0	2	23RD	1	0	0.999841928482	-280.0	-285.0	-281	-288	1
1.7	2015_Jul_27_1020	s	s	7	1	SIC	195	RC	0	1	23RO	1	0	1.46581292152	30.0	83.0	35	82	1
1.7	2015_Jul_27_1020	s	s	7	1	SIC	196	RC	2	0	23VC	1	0	0.88929605484	353.0	11.0	355	14	1
1.7	2015_Jul_27_1020	s	s	7	1	SIC	197	RC	1	0	23MC	1	0	3.90718698502	93.0	408.0	91	409	1
1.7	2015_Jul_27_1020	s	s	7	1	SIC	198	ABS	2	0	24VC	0	1	1.0704331398	None	None	None	None	1
1.7	2015_Jul_27_1020	s	s	7	1	SIC	199	RC	1	1	23MO	1	0	2.35350489616	-515.0	401.0	-522	401	1
1.7	2015_Jul_27_1020	s	s	7	1	SIC	200	ABS	2	2	24VD	0	1	1.18611192703	None	None	None	None	1
1.7	2015_Jul_27_1020	s	s	7	1	SIC	201	ABS	1	1	24MO	0	1	6.09090709686	None	None	None	None	1
1.7	2015_Jul_27_1020	s	s	7	1	SIC	202	ABS	0	1	24RO	0	1	5.24899220467	None	None	None	None	1
1.7	2015_Jul_27_1020	s	s	7	1	SIC	203	ABS	0	2	24RD	0	1	1.20807814598	None	None	None	None	1
1.7	2015_Jul_27_1020	s	s	7	1	SIC	204	RC	2	2	23VD	1	0	1.10190582275	-509.0	-301.0	-507	-303	1
1.7	2015_Jul_27_1020	s	s	7	1	SIC	205	RC	1	2	23MD	1	0	0.889011144638	-2.0	-316.0	0	-318	1
1.7	2015_Jul_27_1020	s	s	7	1	SIC	206	ABS	2	1	24VO	0	1	1.13890695572	None	None	None	None	1
1.7	2015_Jul_27_1020	s	s	7	1	SIC	207	ABS	1	0	24MC	0	1	8.94499611855	None	None	None	None	1
1.7	2015_Jul_27_1020	s	s	7	1	SIC	208	ABS	1	2	24MD	0	1	1.43537688255	None	None	None	None	1
1.7	2015_Jul_27_1020	s	s	7	1	SIC	209	RC	1	2	23MD	1	0	0.980160951614	-249.0	-94.0	-251	-93	1
1.7	2015_Jul_27_1020	s	s	7	1	SIC	210	ABS	1	1	24MO	0	1	4.13466215134	None	None	None	None	1
1.7	2015_Jul_27_1020	s	s	7	1	SIC	211	RC	0	1	23RO	1	0	3.37792611122	-82.0	244.0	-78	244	1
1.7	2015_Jul_27_1020	s	s	7	1	SIC	212	ABS	1	2	24MD	0	1	1.88054418564	None	None	None	None	1
1.7	2015_Jul_27_1020	s	s	7	1	SIC	213	ABS	2	0	24VC	0	1	1.46583604813	None	None	None	None	1
1.7	2015_Jul_27_1020	s	s	7	1	SIC	214	ABS	0	2	24RD	0	1	1.9591319561	None	None	None	None	1
1.7	2015_Jul_27_1020	s	s	7	1	SIC	215	RC	2	0	23VC	1	0	1.16461205482	-175.0	-396.0	-176	-401	1
1.7	2015_Jul_27_1020	s	s	7	1	SIC	216	RC	0	2	23RD	1	0	1.31763195992	-170.0	-1.0	-168	4	1
1.7	2015_Jul_27_1020	s	s	7	1	SIC	217	RC	1	1	23MO	1	0	1.71286606789	425.0	189.0	430	189	1
1.7	2015_Jul_27_1020	s	s	7	1	SIC	218	RC	1	0	23MC	1	0	5.0724670887	353.0	93.0	351	94	1
1.7	2015_Jul_27_1020	s	s	7	1	SIC	219	ABS	2	1	24VO	0	1	1.25873684883	None	None	None	None	1
1.7	2015_Jul_27_1020	s	s	7	1	SIC	220	RC	2	1	23VO	1	0	1.042126894	-227.0	-35.0	-225	-36	1
1.7	2015_Jul_27_1020	s	s	7	1	SIC	221	RC	2	2	23VD	1	0	0.948479175568	-118.0	190.0	-116	194	1
1.7	2015_Jul_27_1020	s	s	7	1	SIC	222	ABS	1	0	24MC	0	1	6.89687085152	None	None	None	None	1
1.7	2015_Jul_27_1020	s	s	7	1	SIC	223	ABS	0	1	24RO	0	1	4.73805308342	None	None	None	None	1
1.7	2015_Jul_27_1020	s	s	7	1	SIC	224	ABS	2	2	24VD	0	1	3.87181806564	None	None	None	None	1
1.7	2015_Jul_27_1020	s	s	7	1	SIC	225	RC	1	0	23MC	1	0	1.31289887428	-159.0	-229.0	-161	-229	1
1.7	2015_Jul_27_1020	s	s	7	1	SIC	226	RC	1	2	23MD	1	0	0.870688915253	-380.0	-44.0	-384	-42	1
1.7	2015_Jul_27_1020	s	s	7	1	SIC	227	ABS	1	1	24MO	0	1	3.84605503082	None	None	None	None	1
1.7	2015_Jul_27_1020	s	s	7	1	SIC	228	ABS	2	0	24VC	0	1	1.18826794624	None	None	None	None	1
1.7	2015_Jul_27_1020	s	s	7	1	SIC	229	RC	1	1	23MO	1	0	2.61244392395	106.0	-248.0	109	-244	1
1.7	2015_Jul_27_1020	s	s	7	1	SIC	230	ABS	2	2	24VD	0	1	1.04686784744	None	None	None	None	1
1.7	2015_Jul_27_1020	s	s	7	1	SIC	231	ABS	1	0	24MC	0	1	6.16234087944	None	None	None	None	1
1.7	2015_Jul_27_1020	s	s	7	1	SIC	232	RC	0	2	23RD	1	0	1.15281200409	-222.0	-295.0	-214	-296	1
1.7	2015_Jul_27_1020	s	s	7	1	SIC	233	ABS	2	1	24VO	0	1	0.893891096115	None	None	None	None	1
1.7	2015_Jul_27_1020	s	s	7	1	SIC	234	RC	2	2	23VD	1	0	1.36476612091	187.0	167.0	187	171	1
1.7	2015_Jul_27_1020	s	s	7	1	SIC	235	RC	2	0	23VC	1	0	0.952756881714	-5.0	50.0	-1	53	1
1.7	2015_Jul_27_1020	s	s	7	1	SIC	236	RC	2	1	23VO	1	0	0.764449119568	-47.0	82.0	-45	81	1
1.7	2015_Jul_27_1020	s	s	7	1	SIC	237	RC	0	1	23RO	0	1	4.70528912544	506.0	-11.0	None	None	0
1.7	2015_Jul_27_1020	s	s	7	1	SIC	238	ABS	0	2	24RD	0	1	1.47743105888	None	None	None	None	1
1.7	2015_Jul_27_1020	s	s	7	1	SIC	239	ABS	1	2	24MD	0	1	3.46552705765	None	None	None	None	1
1.7	2015_Jul_27_1020	s	s	7	1	SIC	240	ABS	0	1	24RO	0	1	5.84418702126	None	None	None	None	1
1.7	2015_Jul_27_1020	s	s	7	1	SIC	241	ABS	0	1	24RO	0	1	4.69584798813	None	None	None	None	1
1.7	2015_Jul_27_1020	s	s	7	1	SIC	242	RC	0	2	23RD	1	0	1.30067706108	495.0	-23.0	500	-15	1
1.7	2015_Jul_27_1020	s	s	7	1	SIC	243	ABS	1	2	24MD	0	1	1.50605797768	None	None	None	None	1
1.7	2015_Jul_27_1020	s	s	7	1	SIC	244	ABS	0	2	24RD	0	1	3.83657622337	None	None	None	None	1
1.7	2015_Jul_27_1020	s	s	7	1	SIC	245	RC	0	1	23RO	1	0	1.7295320034	-124.0	-283.0	-125	-281	1
1.7	2015_Jul_27_1020	s	s	7	1	SIC	246	ABS	2	0	24VC	0	1	1.05389904976	None	None	None	None	1
1.7	2015_Jul_27_1020	s	s	7	1	SIC	247	RC	2	0	23VC	1	0	1.7767560482	-326.0	58.0	-328	54	1
1.7	2015_Jul_27_1020	s	s	7	1	SIC	248	ABS	2	1	24VO	0	1	1.27724695206	None	None	None	None	1
1.7	2015_Jul_27_1020	s	s	7	1	SIC	249	ABS	2	2	24VD	0	1	0.964541912079	None	None	None	None	1
1.7	2015_Jul_27_1020	s	s	7	1	SIC	250	RC	2	1	23VO	1	0	0.917289018631	320.0	223.0	312	232	1
1.7	2015_Jul_27_1020	s	s	7	1	SIC	251	ABS	1	1	24MO	0	1	5.28451514244	None	None	None	None	1
1.7	2015_Jul_27_1020	s	s	7	1	SIC	252	RC	2	2	23VD	1	0	0.910248041153	-395.0	154.0	-388	163	1
1.7	2015_Jul_27_1020	s	s	7	1	SIC	253	ABS	1	0	24MC	0	1	3.94757795334	None	None	None	None	1
1.7	2015_Jul_27_1020	s	s	7	1	SIC	254	RC	1	1	23MO	1	0	3.97779417038	28.0	-263.0	27	-265	1
1.7	2015_Jul_27_1020	s	s	7	1	SIC	255	RC	1	0	23MC	1	0	2.87714791298	-410.0	-313.0	-417	-312	1
1.7	2015_Jul_27_1020	s	s	7	1	SIC	256	RC	1	2	23MD	1	0	1.4942779541	449.0	297.0	457	302	1
1.7	2015_Jul_27_1020	s	s	7	1	SIC	257	RC	0	1	23RO	1	0	2.09449505806	-210.0	280.0	-206	277	1
1.7	2015_Jul_27_1020	s	s	7	1	SIC	258	ABS	2	1	24VO	0	1	1.27052593231	None	None	None	None	1
1.7	2015_Jul_27_1020	s	s	7	1	SIC	259	ABS	1	2	24MD	0	1	1.36471891403	None	None	None	None	1
1.7	2015_Jul_27_1020	s	s	7	1	SIC	260	RC	1	2	23MD	1	0	0.852722883224	197.0	42.0	195	41	1
1.7	2015_Jul_27_1020	s	s	7	1	SIC	261	ABS	0	2	24RD	0	1	1.10957384109	None	None	None	None	1
1.7	2015_Jul_27_1020	s	s	7	1	SIC	262	RC	2	2	23VD	1	0	0.911540031433	-19.0	40.0	-18	43	1
1.7	2015_Jul_27_1020	s	s	7	1	SIC	263	RC	0	2	23RD	1	0	0.947252988815	187.0	-361.0	179	-367	1
1.7	2015_Jul_27_1020	s	s	7	1	SIC	264	RC	2	1	23VO	1	0	0.694035053253	182.0	-200.0	188	-196	1
1.7	2015_Jul_27_1020	s	s	7	1	SIC	265	RC	2	0	23VC	1	0	0.984606027603	528.0	138.0	532	140	1
1.7	2015_Jul_27_1020	s	s	7	1	SIC	266	ABS	2	2	24VD	0	1	0.858585119247	None	None	None	None	1
1.7	2015_Jul_27_1020	s	s	7	1	SIC	267	ABS	1	0	24MC	0	1	3.65523409843	None	None	None	None	1
1.7	2015_Jul_27_1020	s	s	7	1	SIC	268	RC	1	1	23MO	1	0	5.63520598412	329.0	-272.0	327	-273	1
1.7	2015_Jul_27_1020	s	s	7	1	SIC	269	ABS	1	1	24MO	0	1	5.59031486511	None	None	None	None	1
1.7	2015_Jul_27_1020	s	s	7	1	SIC	270	ABS	0	1	24RO	0	1	6.87139010429	None	None	None	None	1
1.7	2015_Jul_27_1020	s	s	7	1	SIC	271	ABS	2	0	24VC	0	1	1.44400596619	None	None	None	None	1
1.7	2015_Jul_27_1020	s	s	7	1	SIC	272	RC	1	0	23MC	1	0	6.59749984741	416.0	376.0	415	376	1
1.7	2015_Jul_27_1020	s	s	7	1	SIC	273	RC	0	1	23RO	1	0	2.19598913193	95.0	-387.0	96	-385	1
1.7	2015_Jul_27_1020	s	s	7	1	SIC	274	RC	2	0	23VC	1	0	0.783180952072	-204.0	164.0	-201	166	1
1.7	2015_Jul_27_1020	s	s	7	1	SIC	275	RC	2	1	23VO	1	0	0.835048913956	-508.0	-315.0	-515	-313	1
1.7	2015_Jul_27_1020	s	s	7	1	SIC	276	ABS	2	1	24VO	0	1	1.2776529789	None	None	None	None	1
1.7	2015_Jul_27_1020	s	s	7	1	SIC	277	ABS	0	2	24RD	0	1	1.61197304726	None	None	None	None	1
1.7	2015_Jul_27_1020	s	s	7	1	SIC	278	ABS	1	0	24MC	0	1	4.37322807312	None	None	None	None	1
1.7	2015_Jul_27_1020	s	s	7	1	SIC	279	RC	0	2	23RD	1	0	0.959528923035	236.0	-343.0	245	-340	1
1.7	2015_Jul_27_1020	s	s	7	1	SIC	280	RC	1	0	23MC	1	0	1.38341498375	-80.0	-338.0	-79	-342	1
1.7	2015_Jul_27_1020	s	s	7	1	SIC	281	RC	1	1	23MO	1	0	1.07046484947	195.0	58.0	197	61	1
1.7	2015_Jul_27_1020	s	s	7	1	SIC	282	ABS	1	1	24MO	0	1	4.58991599083	None	None	None	None	1
1.7	2015_Jul_27_1020	s	s	7	1	SIC	283	ABS	2	2	24VD	0	1	0.879004001617	None	None	None	None	1
1.7	2015_Jul_27_1020	s	s	7	1	SIC	284	ABS	0	1	24RO	0	1	4.80809211731	None	None	None	None	1
1.7	2015_Jul_27_1020	s	s	7	1	SIC	285	ABS	2	0	24VC	0	1	1.03512501717	None	None	None	None	1
1.7	2015_Jul_27_1020	s	s	7	1	SIC	286	RC	2	2	23VD	1	0	0.903393983841	-311.0	-77.0	-311	-74	1
1.7	2015_Jul_27_1020	s	s	7	1	SIC	287	ABS	1	2	24MD	0	1	0.897718906403	None	None	None	None	1
1.7	2015_Jul_27_1020	s	s	7	1	SIC	288	RC	1	2	23MD	1	0	0.96459197998	-2.0	-32.0	-7	-32	1
1.7	2015_Jul_27_1020	s	s	7	1	SIC	289	ABS	1	0	24MC	0	1	2.84291219711	None	None	None	None	1
1.7	2015_Jul_27_1020	s	s	7	1	SIC	290	RC	1	1	23MO	1	0	1.55845093727	13.0	316.0	8	311	1
1.7	2015_Jul_27_1020	s	s	7	1	SIC	291	ABS	2	1	24VO	0	1	0.658436059952	None	None	None	None	1
1.7	2015_Jul_27_1020	s	s	7	1	SIC	292	ABS	0	1	24RO	0	1	3.92585086823	None	None	None	None	1
1.7	2015_Jul_27_1020	s	s	7	1	SIC	293	RC	2	1	23VO	1	0	0.988091945648	-241.0	-15.0	-246	-14	1
1.7	2015_Jul_27_1020	s	s	7	1	SIC	294	RC	2	2	23VD	1	0	0.924616098404	-258.0	-328.0	-260	-326	1
1.7	2015_Jul_27_1020	s	s	7	1	SIC	295	RC	2	0	23VC	1	0	1.30162405968	-16.0	167.0	-19	170	1
1.7	2015_Jul_27_1020	s	s	7	1	SIC	296	RC	0	1	23RO	1	0	0.693794965744	-77.0	-11.0	-75	-8	1
1.7	2015_Jul_27_1020	s	s	7	1	SIC	297	RC	1	0	23MC	1	0	1.66578388214	-340.0	-120.0	-340	-119	1
1.7	2015_Jul_27_1020	s	s	7	1	SIC	298	ABS	0	2	24RD	0	1	2.67908096313	None	None	None	None	1
1.7	2015_Jul_27_1020	s	s	7	1	SIC	299	ABS	1	1	24MO	0	1	3.78728199005	None	None	None	None	1
1.7	2015_Jul_27_1020	s	s	7	1	SIC	300	RC	0	2	23RD	1	0	0.9174888134	59.0	-61.0	56	-56	1
1.7	2015_Jul_27_1020	s	s	7	1	SIC	301	RC	1	2	23MD	1	0	0.917442083359	364.0	-295.0	364	-297	1
1.7	2015_Jul_27_1020	s	s	7	1	SIC	302	ABS	1	2	24MD	0	1	1.01828813553	None	None	None	None	1
1.7	2015_Jul_27_1020	s	s	7	1	SIC	303	ABS	2	2	24VD	0	1	0.830784082413	None	None	None	None	1
1.7	2015_Jul_27_1020	s	s	7	1	SIC	304	ABS	2	0	24VC	0	1	0.752689123154	None	None	None	None	1
1.7	2015_Jul_27_1020	s	s	7	1	SIC	305	ABS	0	2	24RD	0	1	1.60950303078	None	None	None	None	1
1.7	2015_Jul_27_1020	s	s	7	1	SIC	306	ABS	1	2	24MD	0	1	1.12934422493	None	None	None	None	1
1.7	2015_Jul_27_1020	s	s	7	1	SIC	307	RC	2	1	23VO	1	0	0.996911048889	403.0	-150.0	410	-149	1
1.7	2015_Jul_27_1020	s	s	7	1	SIC	308	RC	1	2	23MD	1	0	3.96605110168	158.0	-170.0	164	-179	1
1.7	2015_Jul_27_1020	s	s	7	1	SIC	309	RC	0	2	23RD	1	0	0.988583087921	-446.0	314.0	-443	318	1
1.7	2015_Jul_27_1020	s	s	7	1	SIC	310	ABS	0	1	24RO	0	1	3.94244289398	None	None	None	None	1
1.7	2015_Jul_27_1020	s	s	7	1	SIC	311	RC	1	0	23MC	1	0	5.33186602592	348.0	285.0	344	282	1
1.7	2015_Jul_27_1020	s	s	7	1	SIC	312	ABS	1	0	24MC	0	1	5.95913720131	None	None	None	None	1
1.7	2015_Jul_27_1020	s	s	7	1	SIC	313	ABS	1	1	24MO	0	1	4.15427088737	None	None	None	None	1
1.7	2015_Jul_27_1020	s	s	7	1	SIC	314	RC	2	2	23VD	1	0	0.88201379776	-159.0	-393.0	-158	-401	1
1.7	2015_Jul_27_1020	s	s	7	1	SIC	315	RC	0	1	23RO	1	0	2.03340005875	187.0	121.0	184	120	1
1.7	2015_Jul_27_1020	s	s	7	1	SIC	316	ABS	2	1	24VO	0	1	1.46584582329	None	None	None	None	1
1.7	2015_Jul_27_1020	s	s	7	1	SIC	317	RC	1	1	23MO	1	0	1.00673413277	-248.0	-107.0	-247	-105	1
1.7	2015_Jul_27_1020	s	s	7	1	SIC	318	RC	2	0	23VC	1	0	0.929095983505	511.0	-128.0	508	-125	1
1.7	2015_Jul_27_1020	s	s	7	1	SIC	319	ABS	2	0	24VC	0	1	1.5716509819	None	None	None	None	1
1.7	2015_Jul_27_1020	s	s	7	1	SIC	320	ABS	2	2	24VD	0	1	0.870372056961	None	None	None	None	1
1.7	2015_Jul_27_1020	s	s	7	1	SIC	321	ABS	1	2	24MD	0	1	1.52937412262	None	None	None	None	1
1.7	2015_Jul_27_1020	s	s	7	1	SIC	322	ABS	1	1	24MO	0	1	3.6289768219	None	None	None	None	1
1.7	2015_Jul_27_1020	s	s	7	1	SIC	323	RC	0	1	23RO	1	0	3.23625707626	155.0	-113.0	161	-111	1
1.7	2015_Jul_27_1020	s	s	7	1	SIC	324	ABS	2	1	24VO	0	1	0.820112943649	None	None	None	None	1
1.7	2015_Jul_27_1020	s	s	7	1	SIC	325	ABS	1	0	24MC	0	1	4.50268101692	None	None	None	None	1
1.7	2015_Jul_27_1020	s	s	7	1	SIC	326	RC	0	2	23RD	1	0	0.847164869308	-154.0	159.0	-153	165	1
1.7	2015_Jul_27_1020	s	s	7	1	SIC	327	ABS	2	0	24VC	0	1	0.75262093544	None	None	None	None	1
1.7	2015_Jul_27_1020	s	s	7	1	SIC	328	RC	2	0	23VC	1	0	0.780070066452	-452.0	118.0	-459	114	1
1.7	2015_Jul_27_1020	s	s	7	1	SIC	329	RC	2	1	23VO	1	0	0.899744033813	161.0	55.0	158	59	1
1.7	2015_Jul_27_1020	s	s	7	1	SIC	330	ABS	0	1	24RO	0	1	5.91975402832	None	None	None	None	1
1.7	2015_Jul_27_1020	s	s	7	1	SIC	331	RC	1	1	23MO	1	0	2.76054215431	-400.0	-325.0	-394	-322	1
1.7	2015_Jul_27_1020	s	s	7	1	SIC	332	RC	1	0	23MC	1	0	1.59530496597	-172.0	-233.0	-177	-239	1
1.7	2015_Jul_27_1020	s	s	7	1	SIC	333	ABS	2	2	24VD	0	1	0.947643041611	None	None	None	None	1
1.7	2015_Jul_27_1020	s	s	7	1	SIC	334	ABS	0	2	24RD	0	1	2.4123711586	None	None	None	None	1
1.7	2015_Jul_27_1020	s	s	7	1	SIC	335	RC	2	2	23VD	1	0	0.947885036469	174.0	-203.0	183	-196	1
1.7	2015_Jul_27_1020	s	s	7	1	SIC	336	RC	1	2	23MD	1	0	0.858606100082	522.0	-343.0	516	-334	1
1.7	2015_Jul_27_1020	s	s	7	1	SIC	337	RC	1	1	23MO	1	0	1.2588288784	-35.0	-246.0	-37	-246	1
1.7	2015_Jul_27_1020	s	s	7	1	SIC	338	ABS	1	2	24MD	0	1	2.40724396706	None	None	None	None	1
1.7	2015_Jul_27_1020	s	s	7	1	SIC	339	ABS	1	0	24MC	0	1	5.31756901741	None	None	None	None	1
1.7	2015_Jul_27_1020	s	s	7	1	SIC	340	ABS	1	1	24MO	0	1	5.37852406502	None	None	None	None	1
1.7	2015_Jul_27_1020	s	s	7	1	SIC	341	ABS	0	1	24RO	0	1	4.54810404778	None	None	None	None	1
1.7	2015_Jul_27_1020	s	s	7	1	SIC	342	RC	2	1	23VO	1	0	0.974012136459	476.0	-109.0	480	-108	1
1.7	2015_Jul_27_1020	s	s	7	1	SIC	343	RC	2	0	23VC	1	0	0.823165178299	-194.0	-34.0	-187	-31	1
1.7	2015_Jul_27_1020	s	s	7	1	SIC	344	RC	0	1	23RO	0	1	4.14930915833	66.0	238.0	None	None	0
1.7	2015_Jul_27_1020	s	s	7	1	SIC	345	RC	1	2	23MD	1	0	0.985418081284	-139.0	-28.0	-132	-25	1
1.7	2015_Jul_27_1020	s	s	7	1	SIC	346	ABS	2	1	24VO	0	1	1.1058011055	None	None	None	None	1
1.7	2015_Jul_27_1020	s	s	7	1	SIC	347	ABS	0	2	24RD	0	1	1.63549995422	None	None	None	None	1
1.7	2015_Jul_27_1020	s	s	7	1	SIC	348	RC	0	2	23RD	1	0	0.882200956345	-207.0	327.0	-205	335	1
1.7	2015_Jul_27_1020	s	s	7	1	SIC	349	ABS	2	2	24VD	0	1	0.87722992897	None	None	None	None	1
1.7	2015_Jul_27_1020	s	s	7	1	SIC	350	ABS	2	0	24VC	0	1	1.23021101952	None	None	None	None	1
1.7	2015_Jul_27_1020	s	s	7	1	SIC	351	RC	1	0	23MC	0	1	3.53747487068	450.0	-402.0	None	None	0
1.7	2015_Jul_27_1020	s	s	7	1	SIC	352	RC	2	2	23VD	1	0	1.31278896332	-153.0	-213.0	-155	-213	1
1.7	2015_Jul_27_1020	s	s	7	1	SIC	353	ABS	2	2	24VD	0	1	0.737473011017	None	None	None	None	1
1.7	2015_Jul_27_1020	s	s	7	1	SIC	354	RC	0	2	23RD	1	0	1.65896677971	60.0	-238.0	68	-237	1
1.7	2015_Jul_27_1020	s	s	7	1	SIC	355	RC	1	0	23MC	1	0	1.77670097351	288.0	69.0	292	74	1
1.7	2015_Jul_27_1020	s	s	7	1	SIC	356	ABS	2	1	24VO	0	1	1.16463804245	None	None	None	None	1
1.7	2015_Jul_27_1020	s	s	7	1	SIC	357	ABS	0	1	24RO	0	1	5.77297282219	None	None	None	None	1
1.7	2015_Jul_27_1020	s	s	7	1	SIC	358	ABS	1	1	24MO	0	1	3.71891021729	None	None	None	None	1
1.7	2015_Jul_27_1020	s	s	7	1	SIC	359	RC	1	2	23MD	1	0	1.01169204712	336.0	-222.0	342	-221	1
1.7	2015_Jul_27_1020	s	s	7	1	SIC	360	ABS	1	0	24MC	0	1	4.23666000366	None	None	None	None	1
1.7	2015_Jul_27_1020	s	s	7	1	SIC	361	RC	2	1	23VO	1	0	0.940953016281	-387.0	257.0	-392	256	1
1.7	2015_Jul_27_1020	s	s	7	1	SIC	362	RC	0	1	23RO	1	0	1.33615207672	-342.0	-217.0	-344	-209	1
1.7	2015_Jul_27_1020	s	s	7	1	SIC	363	RC	2	2	23VD	1	0	1.13566112518	-400.0	275.0	-402	270	1
1.7	2015_Jul_27_1020	s	s	7	1	SIC	364	ABS	2	0	24VC	0	1	0.776268959045	None	None	None	None	1
1.7	2015_Jul_27_1020	s	s	7	1	SIC	365	RC	2	0	23VC	1	0	1.12931489944	254.0	205.0	260	201	1
1.7	2015_Jul_27_1020	s	s	7	1	SIC	366	RC	1	1	23MO	1	0	1.03019118309	-238.0	58.0	-234	59	1
1.7	2015_Jul_27_1020	s	s	7	1	SIC	367	ABS	0	2	24RD	0	1	1.10577297211	None	None	None	None	1
1.7	2015_Jul_27_1020	s	s	7	1	SIC	368	ABS	1	2	24MD	0	1	1.06513595581	None	None	None	None	1
1.7	2015_Jul_27_1020	s	s	7	1	SIC	369	ABS	2	1	24VO	0	1	1.10616016388	None	None	None	None	1
1.7	2015_Jul_27_1020	s	s	7	1	SIC	370	ABS	1	2	24MD	0	1	1.14808702469	None	None	None	None	1
1.7	2015_Jul_27_1020	s	s	7	1	SIC	371	RC	0	2	23RD	1	0	0.752640962601	378.0	-25.0	376	-32	1
1.7	2015_Jul_27_1020	s	s	7	1	SIC	372	RC	0	1	23RO	1	0	1.03323912621	-52.0	-13.0	-42	-10	1
1.7	2015_Jul_27_1020	s	s	7	1	SIC	373	RC	2	0	23VC	1	0	0.962332963943	423.0	234.0	424	232	1
1.7	2015_Jul_27_1020	s	s	7	1	SIC	374	ABS	1	1	24MO	0	1	3.75417995453	None	None	None	None	1
1.7	2015_Jul_27_1020	s	s	7	1	SIC	375	RC	1	0	23MC	1	0	1.49123382568	397.0	23.0	398	23	1
1.7	2015_Jul_27_1020	s	s	7	1	SIC	376	ABS	0	2	24RD	0	1	1.27057504654	None	None	None	None	1
1.7	2015_Jul_27_1020	s	s	7	1	SIC	377	ABS	2	0	24VC	0	1	0.88214302063	None	None	None	None	1
1.7	2015_Jul_27_1020	s	s	7	1	SIC	378	RC	1	2	23MD	1	0	0.964467048645	-176.0	348.0	-182	350	1
1.7	2015_Jul_27_1020	s	s	7	1	SIC	379	ABS	0	1	24RO	0	1	4.59642696381	None	None	None	None	1
1.7	2015_Jul_27_1020	s	s	7	1	SIC	380	RC	2	1	23VO	1	0	0.934669017792	188.0	236.0	189	235	1
1.7	2015_Jul_27_1020	s	s	7	1	SIC	381	RC	1	1	23MO	1	0	1.16124510765	-55.0	-40.0	-62	-40	1
1.7	2015_Jul_27_1020	s	s	7	1	SIC	382	ABS	1	0	24MC	0	1	2.44439101219	None	None	None	None	1
1.7	2015_Jul_27_1020	s	s	7	1	SIC	383	RC	2	2	23VD	1	0	0.794942140579	-198.0	-251.0	-196	-247	1
1.7	2015_Jul_27_1020	s	s	7	1	SIC	384	ABS	2	2	24VD	0	1	1.05164694786	None	None	None	None	1
1.7	2015_Jul_27_1020	s	s	7	1	SIC	385	ABS	0	2	24RD	0	1	1.14778804779	None	None	None	None	1
1.7	2015_Jul_27_1020	s	s	7	1	SIC	386	ABS	0	1	24RO	0	1	4.73802804947	None	None	None	None	1
1.7	2015_Jul_27_1020	s	s	7	1	SIC	387	ABS	1	1	24MO	0	1	4.1831510067	None	None	None	None	1
1.7	2015_Jul_27_1020	s	s	7	1	SIC	388	RC	2	0	23VC	1	0	0.952773094177	521.0	394.0	520	400	1
1.7	2015_Jul_27_1020	s	s	7	1	SIC	389	RC	1	0	23MC	1	0	1.94845104218	489.0	-287.0	496	-279	1
1.7	2015_Jul_27_1020	s	s	7	1	SIC	390	ABS	2	2	24VD	0	1	0.823250055313	None	None	None	None	1
1.7	2015_Jul_27_1020	s	s	7	1	SIC	391	RC	2	2	23VD	1	0	0.935508966446	529.0	186.0	530	187	1
1.7	2015_Jul_27_1020	s	s	7	1	SIC	392	ABS	2	0	24VC	0	1	1.05900096893	None	None	None	None	1
1.7	2015_Jul_27_1020	s	s	7	1	SIC	393	ABS	2	1	24VO	0	1	1.22355890274	None	None	None	None	1
1.7	2015_Jul_27_1020	s	s	7	1	SIC	394	ABS	1	0	24MC	0	1	3.39634013176	None	None	None	None	1
1.7	2015_Jul_27_1020	s	s	7	1	SIC	395	ABS	1	2	24MD	0	1	1.10627102852	None	None	None	None	1
1.7	2015_Jul_27_1020	s	s	7	1	SIC	396	RC	0	2	23RD	1	0	1.46751904488	243.0	333.0	245	334	1
1.7	2015_Jul_27_1020	s	s	7	1	SIC	397	RC	1	1	23MO	1	0	4.80170702934	281.0	-83.0	275	-81	1
1.7	2015_Jul_27_1020	s	s	7	1	SIC	398	RC	0	1	23RO	1	0	3.25977802277	-533.0	-81.0	-529	-84	1
1.7	2015_Jul_27_1020	s	s	7	1	SIC	399	RC	1	2	23MD	1	0	0.64182806015	-103.0	-3.0	-104	1	1
1.7	2015_Jul_27_1020	s	s	7	1	SIC	400	RC	2	1	23VO	1	0	0.724092960358	411.0	-211.0	415	-208	1
1.7	2015_Jul_27_1020	s	s	7	1	SIC	401	ABS	2	2	24VD	0	1	0.85590004921	None	None	None	None	1
1.7	2015_Jul_27_1020	s	s	7	1	SIC	402	ABS	0	2	24RD	0	1	1.53619503975	None	None	None	None	1
1.7	2015_Jul_27_1020	s	s	7	1	SIC	403	RC	1	1	23MO	1	0	1.25391721725	-138.0	-108.0	-139	-113	1
1.7	2015_Jul_27_1020	s	s	7	1	SIC	404	ABS	0	1	24RO	0	1	4.80843400955	None	None	None	None	1
1.7	2015_Jul_27_1020	s	s	7	1	SIC	405	RC	0	1	23RO	1	0	5.88466095924	-391.0	172.0	-392	169	1
1.7	2015_Jul_27_1020	s	s	7	1	SIC	406	RC	2	2	23VD	1	0	0.770812988281	-163.0	-168.0	-156	-169	1
1.7	2015_Jul_27_1020	s	s	7	1	SIC	407	RC	1	0	23MC	1	0	5.40844416618	-457.0	-298.0	-446	-290	1
1.7	2015_Jul_27_1020	s	s	7	1	SIC	408	RC	2	1	23VO	1	0	1.31343722343	-399.0	259.0	-397	266	1
1.7	2015_Jul_27_1020	s	s	7	1	SIC	409	ABS	1	0	24MC	0	1	2.49473309517	None	None	None	None	1
1.7	2015_Jul_27_1020	s	s	7	1	SIC	410	ABS	1	2	24MD	0	1	0.818445920944	None	None	None	None	1
1.7	2015_Jul_27_1020	s	s	7	1	SIC	411	RC	0	2	23RD	1	0	0.885987043381	-233.0	-347.0	-230	-340	1
1.7	2015_Jul_27_1020	s	s	7	1	SIC	412	RC	2	0	23VC	1	0	0.982829093933	-126.0	-354.0	-131	-355	1
1.7	2015_Jul_27_1020	s	s	7	1	SIC	413	RC	1	2	23MD	1	0	0.61513209343	-15.0	-219.0	-10	-217	1
1.7	2015_Jul_27_1020	s	s	7	1	SIC	414	ABS	2	1	24VO	0	1	1.5482339859	None	None	None	None	1
1.7	2015_Jul_27_1020	s	s	7	1	SIC	415	ABS	2	0	24VC	0	1	1.3411989212	None	None	None	None	1
1.7	2015_Jul_27_1020	s	s	7	1	SIC	416	ABS	1	1	24MO	0	1	5.04877400398	None	None	None	None	1
1.7	2015_Jul_27_1020	s	s	7	1	SIC	417	RC	1	1	23MO	1	0	4.28018403053	440.0	-373.0	434	-370	1
1.7	2015_Jul_27_1020	s	s	7	1	SIC	418	RC	2	2	23VD	1	0	0.714230060577	72.0	236.0	70	236	1
1.7	2015_Jul_27_1020	s	s	7	1	SIC	419	ABS	2	1	24VO	0	1	1.15293192863	None	None	None	None	1
1.7	2015_Jul_27_1020	s	s	7	1	SIC	420	RC	1	2	23MD	1	0	0.893905162811	-414.0	-384.0	-413	-388	1
1.7	2015_Jul_27_1020	s	s	7	1	SIC	421	ABS	1	1	24MO	0	1	4.73799204826	None	None	None	None	1
1.7	2015_Jul_27_1020	s	s	7	1	SIC	422	RC	0	1	23RO	1	0	2.70169591904	-409.0	345.0	-413	343	1
1.7	2015_Jul_27_1020	s	s	7	1	SIC	423	ABS	1	2	24MD	0	1	0.91255903244	None	None	None	None	1
1.7	2015_Jul_27_1020	s	s	7	1	SIC	424	ABS	2	0	24VC	0	1	0.747725009918	None	None	None	None	1
1.7	2015_Jul_27_1020	s	s	7	1	SIC	425	ABS	1	0	24MC	0	1	4.22884106636	None	None	None	None	1
1.7	2015_Jul_27_1020	s	s	7	1	SIC	426	RC	2	0	23VC	1	0	0.771290063858	-328.0	-8.0	-328	-12	1
1.7	2015_Jul_27_1020	s	s	7	1	SIC	427	RC	2	1	23VO	1	0	0.759552955627	-84.0	101.0	-86	102	1
1.7	2015_Jul_27_1020	s	s	7	1	SIC	428	RC	0	2	23RD	1	0	0.700530052185	407.0	-31.0	416	-28	1
1.7	2015_Jul_27_1020	s	s	7	1	SIC	429	ABS	2	2	24VD	0	1	0.811425209045	None	None	None	None	1
1.7	2015_Jul_27_1020	s	s	7	1	SIC	430	RC	1	0	23MC	1	0	1.38831114769	-133.0	251.0	-132	246	1
1.7	2015_Jul_27_1020	s	s	7	1	SIC	431	ABS	0	1	24RO	0	1	4.11414909363	None	None	None	None	1
1.7	2015_Jul_27_1020	s	s	7	1	SIC	432	ABS	0	2	24RD	0	1	1.0060198307	None	None	None	None	1
1.7	2015_Jul_27_1020	s	s	7	1	SIC	433	ABS	1	1	24MO	0	1	3.0782148838	None	None	None	None	1
1.7	2015_Jul_27_1020	s	s	7	1	SIC	434	RC	2	0	23VC	1	0	0.815414905548	-271.0	171.0	-268	173	1
1.7	2015_Jul_27_1020	s	s	7	1	SIC	435	RC	1	2	23MD	1	0	1.19986796379	515.0	130.0	510	129	1
1.7	2015_Jul_27_1020	s	s	7	1	SIC	436	RC	1	1	23MO	1	0	4.78985095024	192.0	323.0	201	322	1
1.7	2015_Jul_27_1020	s	s	7	1	SIC	437	ABS	1	0	24MC	0	1	3.68355202675	None	None	None	None	1
1.7	2015_Jul_27_1020	s	s	7	1	SIC	438	RC	1	0	23MC	1	0	2.53700900078	412.0	-234.0	416	-229	1
1.7	2015_Jul_27_1020	s	s	7	1	SIC	439	ABS	2	0	24VC	0	1	0.917454004288	None	None	None	None	1
1.7	2015_Jul_27_1020	s	s	7	1	SIC	440	ABS	1	2	24MD	0	1	0.785645961761	None	None	None	None	1
1.7	2015_Jul_27_1020	s	s	7	1	SIC	441	ABS	2	1	24VO	0	1	1.47066903114	None	None	None	None	1
1.7	2015_Jul_27_1020	s	s	7	1	SIC	442	RC	2	2	23VD	1	0	0.938616991043	-328.0	-269.0	-320	-274	1
1.7	2015_Jul_27_1020	s	s	7	1	SIC	443	ABS	0	2	24RD	0	1	0.902300834656	None	None	None	None	1
1.7	2015_Jul_27_1020	s	s	7	1	SIC	444	RC	0	2	23RD	1	0	0.933041095734	-524.0	-218.0	-531	-225	1
1.7	2015_Jul_27_1020	s	s	7	1	SIC	445	RC	2	1	23VO	1	0	0.95868897438	488.0	-356.0	488	-351	1
1.7	2015_Jul_27_1020	s	s	7	1	SIC	446	ABS	2	2	24VD	0	1	0.958987951279	None	None	None	None	1
1.7	2015_Jul_27_1020	s	s	7	1	SIC	447	RC	0	1	23RO	1	0	2.99684715271	386.0	386.0	385	387	1
1.7	2015_Jul_27_1020	s	s	7	1	SIC	448	ABS	0	1	24RO	0	1	4.50260806084	None	None	None	None	1
1.7	2015_Jul_27_1020	s	s	7	1	SIC	449	ABS	2	0	24VC	0	1	0.936257839203	None	None	None	None	1
1.7	2015_Jul_27_1020	s	s	7	1	SIC	450	ABS	2	1	24VO	0	1	0.693825006485	None	None	None	None	1
1.7	2015_Jul_27_1020	s	s	7	1	SIC	451	RC	2	0	23VC	1	0	0.900843143463	-307.0	171.0	-307	175	1
1.7	2015_Jul_27_1020	s	s	7	1	SIC	452	ABS	1	0	24MC	0	1	4.96647810936	None	None	None	None	1
1.7	2015_Jul_27_1020	s	s	7	1	SIC	453	RC	0	2	23RD	1	0	0.84446310997	451.0	52.0	454	53	1
1.7	2015_Jul_27_1020	s	s	7	1	SIC	454	ABS	0	2	24RD	0	1	1.03281497955	None	None	None	None	1
1.7	2015_Jul_27_1020	s	s	7	1	SIC	455	RC	1	1	23MO	1	0	1.25880599022	-372.0	-39.0	-376	-31	1
1.7	2015_Jul_27_1020	s	s	7	1	SIC	456	ABS	1	1	24MO	0	1	3.87195515633	None	None	None	None	1
1.7	2015_Jul_27_1020	s	s	7	1	SIC	457	RC	1	0	23MC	1	0	1.21870303154	-229.0	123.0	-231	127	1
1.7	2015_Jul_27_1020	s	s	7	1	SIC	458	ABS	2	2	24VD	0	1	0.772003889084	None	None	None	None	1
1.7	2015_Jul_27_1020	s	s	7	1	SIC	459	RC	1	2	23MD	1	0	1.16229391098	515.0	-395.0	520	-390	1
1.7	2015_Jul_27_1020	s	s	7	1	SIC	460	ABS	1	2	24MD	0	1	0.891283035278	None	None	None	None	1
1.7	2015_Jul_27_1020	s	s	7	1	SIC	461	RC	2	2	23VD	1	0	0.796607017517	402.0	409.0	410	418	1
1.7	2015_Jul_27_1020	s	s	7	1	SIC	462	ABS	0	1	24RO	0	1	4.03672409058	None	None	None	None	1
1.7	2015_Jul_27_1020	s	s	7	1	SIC	463	RC	2	1	23VO	1	0	0.972092151642	-268.0	105.0	-265	106	1
1.7	2015_Jul_27_1020	s	s	7	1	SIC	464	RC	0	1	23RO	1	0	3.81297516823	278.0	-98.0	273	-96	1
1.7	2015_Jul_27_1020	s	s	7	1	SIC	465	ABS	2	1	24VO	0	1	0.811504125595	None	None	None	None	1
1.7	2015_Jul_27_1020	s	s	7	1	SIC	466	RC	0	2	23RD	1	0	0.818201065063	184.0	96.0	180	102	1
1.7	2015_Jul_27_1020	s	s	7	1	SIC	467	RC	2	1	23VO	1	0	0.929211139679	-81.0	235.0	-84	242	1
1.7	2015_Jul_27_1020	s	s	7	1	SIC	468	RC	2	0	23VC	1	0	0.759435892105	-121.0	77.0	-124	76	1
1.7	2015_Jul_27_1020	s	s	7	1	SIC	469	RC	2	2	23VD	1	0	0.599635124207	93.0	-223.0	94	-225	1
1.7	2015_Jul_27_1020	s	s	7	1	SIC	470	ABS	1	2	24MD	0	1	1.23527503014	None	None	None	None	1
1.7	2015_Jul_27_1020	s	s	7	1	SIC	471	RC	1	2	23MD	1	0	0.90570807457	-278.0	-385.0	-277	-384	1
1.7	2015_Jul_27_1020	s	s	7	1	SIC	472	ABS	2	0	24VC	0	1	0.947905063629	None	None	None	None	1
1.7	2015_Jul_27_1020	s	s	7	1	SIC	473	RC	1	1	23MO	0	1	2.90108704567	-82.0	-369.0	None	None	0
1.7	2015_Jul_27_1020	s	s	7	1	SIC	474	ABS	0	2	24RD	0	1	1.1646399498	None	None	None	None	1
1.7	2015_Jul_27_1020	s	s	7	1	SIC	475	RC	1	0	23MC	1	0	5.15494394302	153.0	317.0	153	324	1
1.7	2015_Jul_27_1020	s	s	7	1	SIC	476	ABS	1	1	24MO	0	1	2.58397388458	None	None	None	None	1
1.7	2015_Jul_27_1020	s	s	7	1	SIC	477	RC	0	1	23RO	1	0	1.12936687469	-69.0	310.0	-71	313	1
1.7	2015_Jul_27_1020	s	s	7	1	SIC	478	ABS	2	2	24VD	0	1	0.712963104248	None	None	None	None	1
1.7	2015_Jul_27_1020	s	s	7	1	SIC	479	ABS	1	0	24MC	0	1	4.00813603401	None	None	None	None	1
1.7	2015_Jul_27_1020	s	s	7	1	SIC	480	ABS	0	1	24RO	0	1	4.25712895393	None	None	None	None	1
1.7	2015_Jul_27_1020	s	s	7	1	SIC	481	ABS	2	0	24VC	0	1	0.917294979095	None	None	None	None	1
1.7	2015_Jul_27_1020	s	s	7	1	SIC	482	ABS	1	2	24MD	0	1	1.01159596443	None	None	None	None	1
1.7	2015_Jul_27_1020	s	s	7	1	SIC	483	RC	0	1	23RO	1	0	1.09070014954	234.0	-177.0	240	-181	1
1.7	2015_Jul_27_1020	s	s	7	1	SIC	484	RC	2	0	23VC	1	0	0.882168054581	-66.0	-400.0	-68	-399	1
1.7	2015_Jul_27_1020	s	s	7	1	SIC	485	ABS	2	2	24VD	0	1	0.749449968338	None	None	None	None	1
1.7	2015_Jul_27_1020	s	s	7	1	SIC	486	ABS	0	1	24RO	0	1	4.45531797409	None	None	None	None	1
1.7	2015_Jul_27_1020	s	s	7	1	SIC	487	RC	1	1	23MO	0	1	4.05579090118	521.0	-86.0	None	None	0
1.7	2015_Jul_27_1020	s	s	7	1	SIC	488	RC	2	2	23VD	1	0	0.853577852249	46.0	-233.0	47	-228	1
1.7	2015_Jul_27_1020	s	s	7	1	SIC	489	ABS	2	1	24VO	0	1	0.92516207695	None	None	None	None	1
1.7	2015_Jul_27_1020	s	s	7	1	SIC	490	ABS	0	2	24RD	0	1	2.53614091873	None	None	None	None	1
1.7	2015_Jul_27_1020	s	s	7	1	SIC	491	ABS	1	0	24MC	0	1	1.98533606529	None	None	None	None	1
1.7	2015_Jul_27_1020	s	s	7	1	SIC	492	RC	1	2	23MD	1	0	0.729080915451	-74.0	-252.0	-72	-251	1
1.7	2015_Jul_27_1020	s	s	7	1	SIC	493	ABS	1	1	24MO	0	1	2.30626511574	None	None	None	None	1
1.7	2015_Jul_27_1020	s	s	7	1	SIC	494	RC	0	2	23RD	1	0	0.682023048401	-221.0	-245.0	-223	-244	1
1.7	2015_Jul_27_1020	s	s	7	1	SIC	495	RC	2	1	23VO	1	0	1.67767190933	-138.0	-285.0	-130	-284	1
1.7	2015_Jul_27_1020	s	s	7	1	SIC	496	RC	1	0	23MC	1	0	1.54799890518	-180.0	122.0	-178	124	1
1.7	2015_Jul_27_1020	s	s	7	1	SIC	497	RC	1	1	23MO	1	0	0.646731138229	-73.0	17.0	-69	26	1
1.7	2015_Jul_27_1020	s	s	7	1	SIC	498	RC	0	1	23RO	1	0	2.17694592476	-383.0	69.0	-384	71	1
1.7	2015_Jul_27_1020	s	s	7	1	SIC	499	RC	2	0	23VC	1	0	0.677224874496	-92.0	34.0	-85	40	1
1.7	2015_Jul_27_1020	s	s	7	1	SIC	500	ABS	1	1	24MO	0	1	2.28977894783	None	None	None	None	1
1.7	2015_Jul_27_1020	s	s	7	1	SIC	501	RC	2	2	23VD	1	0	0.952651977539	-422.0	296.0	-413	297	1
1.7	2015_Jul_27_1020	s	s	7	1	SIC	502	ABS	2	2	24VD	0	1	0.629511833191	None	None	None	None	1
1.7	2015_Jul_27_1020	s	s	7	1	SIC	503	ABS	1	2	24MD	0	1	0.999835968018	None	None	None	None	1
1.7	2015_Jul_27_1020	s	s	7	1	SIC	504	ABS	0	1	24RO	0	1	4.06731104851	None	None	None	None	1
1.7	2015_Jul_27_1020	s	s	7	1	SIC	505	ABS	2	0	24VC	0	1	0.774019956589	None	None	None	None	1
1.7	2015_Jul_27_1020	s	s	7	1	SIC	506	RC	1	0	23MC	1	0	1.57678604126	-409.0	-12.0	-409	-4	1
1.7	2015_Jul_27_1020	s	s	7	1	SIC	507	ABS	0	2	24RD	0	1	1.23908686638	None	None	None	None	1
1.7	2015_Jul_27_1020	s	s	7	1	SIC	508	ABS	1	0	24MC	0	1	3.94250702858	None	None	None	None	1
1.7	2015_Jul_27_1020	s	s	7	1	SIC	509	RC	0	2	23RD	1	0	1.23230195045	314.0	-334.0	317	-336	1
1.7	2015_Jul_27_1020	s	s	7	1	SIC	510	RC	1	2	23MD	1	0	0.874216079712	291.0	342.0	287	341	1
1.7	2015_Jul_27_1020	s	s	7	1	SIC	511	ABS	2	1	24VO	0	1	0.864969968796	None	None	None	None	1
1.7	2015_Jul_27_1020	s	s	7	1	SIC	512	RC	2	1	23VO	1	0	0.788000106812	422.0	-142.0	420	-146	1
1.7	2015_Jul_27_1020	s	s	7	1	SIC	513	ABS	2	1	24VO	0	1	0.752604961395	None	None	None	None	1
1.7	2015_Jul_27_1020	s	s	7	1	SIC	514	RC	2	0	23VC	1	0	0.771197795868	-43.0	128.0	-39	127	1
1.7	2015_Jul_27_1020	s	s	7	1	SIC	515	ABS	2	0	24VC	0	1	0.771118879318	None	None	None	None	1
1.7	2015_Jul_27_1020	s	s	7	1	SIC	516	RC	2	1	23VO	1	0	0.758671998978	86.0	26.0	88	27	1
1.7	2015_Jul_27_1020	s	s	7	1	SIC	517	RC	1	0	23MC	0	1	1.50592899323	438.0	370.0	None	None	0
1.7	2015_Jul_27_1020	s	s	7	1	SIC	518	ABS	1	1	24MO	0	1	2.57709097862	None	None	None	None	1
1.7	2015_Jul_27_1020	s	s	7	1	SIC	519	RC	1	1	23MO	1	0	1.55940198898	171.0	-184.0	163	-184	1
1.7	2015_Jul_27_1020	s	s	7	1	SIC	520	ABS	0	2	24RD	0	1	0.817739963531	None	None	None	None	1
1.7	2015_Jul_27_1020	s	s	7	1	SIC	521	ABS	2	2	24VD	0	1	0.712341070175	None	None	None	None	1
1.7	2015_Jul_27_1020	s	s	7	1	SIC	522	ABS	1	0	24MC	0	1	2.16144394875	None	None	None	None	1
1.7	2015_Jul_27_1020	s	s	7	1	SIC	523	ABS	0	1	24RO	0	1	2.75360894203	None	None	None	None	1
1.7	2015_Jul_27_1020	s	s	7	1	SIC	524	ABS	1	2	24MD	0	1	0.98814201355	None	None	None	None	1
1.7	2015_Jul_27_1020	s	s	7	1	SIC	525	RC	1	2	23MD	0	1	0.182811021805	-59.0	-60.0	None	None	0
1.7	2015_Jul_27_1020	s	s	7	1	SIC	526	RC	0	2	23RD	1	0	1.06557583809	-123.0	225.0	-120	232	1
1.7	2015_Jul_27_1020	s	s	7	1	SIC	527	RC	0	1	23RO	1	0	4.03177499771	416.0	-230.0	427	-230	1
1.7	2015_Jul_27_1020	s	s	7	1	SIC	528	RC	2	2	23VD	1	0	0.776099920273	-506.0	360.0	-504	356	1
1.7	2015_Jul_27_1020	s	s	7	1	SIC	529	RC	2	2	23VD	1	0	0.583065986633	-62.0	226.0	-65	221	1
1.7	2015_Jul_27_1020	s	s	7	1	SIC	530	ABS	0	2	24RD	0	1	1.42369294167	None	None	None	None	1
1.7	2015_Jul_27_1020	s	s	7	1	SIC	531	ABS	1	0	24MC	0	1	3.04342889786	None	None	None	None	1
1.7	2015_Jul_27_1020	s	s	7	1	SIC	532	ABS	0	1	24RO	1	0	4.09052014351	None	None	63	20	0
1.7	2015_Jul_27_1020	s	s	7	1	SIC	533	RC	2	1	23VO	1	0	1.14755892754	-492.0	-67.0	-486	-66	1
1.7	2015_Jul_27_1020	s	s	7	1	SIC	534	ABS	2	2	24VD	0	1	1.00678110123	None	None	None	None	1
1.7	2015_Jul_27_1020	s	s	7	1	SIC	535	RC	0	2	23RD	1	0	1.32944011688	-438.0	45.0	-438	46	1
1.7	2015_Jul_27_1020	s	s	7	1	SIC	536	ABS	1	2	24MD	0	1	0.877230882645	None	None	None	None	1
1.7	2015_Jul_27_1020	s	s	7	1	SIC	537	RC	1	2	23MD	1	0	0.879462003708	-68.0	170.0	-66	171	1
1.7	2015_Jul_27_1020	s	s	7	1	SIC	538	RC	0	1	23RO	1	0	3.58927989006	418.0	-386.0	415	-389	1
1.7	2015_Jul_27_1020	s	s	7	1	SIC	539	ABS	2	0	24VC	0	1	0.82332110405	None	None	None	None	1
1.7	2015_Jul_27_1020	s	s	7	1	SIC	540	RC	2	0	23VC	1	0	1.03322386742	-172.0	19.0	-173	22	1
1.7	2015_Jul_27_1020	s	s	7	1	SIC	541	ABS	1	1	24MO	0	1	3.36964511871	None	None	None	None	1
1.7	2015_Jul_27_1020	s	s	7	1	SIC	542	RC	1	1	23MO	1	0	3.07865691185	6.0	-331.0	10	-328	1
1.7	2015_Jul_27_1020	s	s	7	1	SIC	543	ABS	2	1	24VO	0	1	0.717401981354	None	None	None	None	1
1.7	2015_Jul_27_1020	s	s	7	1	SIC	544	RC	1	0	23MC	0	1	2.36091899872	339.0	80.0	None	None	0
1.7	2015_Jul_27_1020	s	s	7	1	SIC	545	ABS	0	2	24RD	0	1	0.882164955139	None	None	None	None	1
1.7	2015_Jul_27_1020	s	s	7	1	SIC	546	RC	0	2	23RD	1	0	0.724164962769	28.0	83.0	31	81	1
1.7	2015_Jul_27_1020	s	s	7	1	SIC	547	ABS	2	1	24VO	0	1	0.665513038635	None	None	None	None	1
1.7	2015_Jul_27_1020	s	s	7	1	SIC	548	RC	0	1	23RO	1	0	2.79861402512	-4.0	-202.0	3	-203	1
1.7	2015_Jul_27_1020	s	s	7	1	SIC	549	RC	2	1	23VO	1	0	0.759274959564	218.0	-174.0	222	-165	1
1.7	2015_Jul_27_1020	s	s	7	1	SIC	550	ABS	1	1	24MO	0	1	4.20183801651	None	None	None	None	1
1.7	2015_Jul_27_1020	s	s	7	1	SIC	551	ABS	2	0	24VC	0	1	0.787922143936	None	None	None	None	1
1.7	2015_Jul_27_1020	s	s	7	1	SIC	552	RC	1	0	23MC	1	0	1.39506292343	23.0	113.0	23	114	1
1.7	2015_Jul_27_1020	s	s	7	1	SIC	553	RC	2	2	23VD	1	0	0.725954055786	0.0	-127.0	-1	-129	1
1.7	2015_Jul_27_1020	s	s	7	1	SIC	554	RC	1	2	23MD	1	0	0.641860961914	455.0	85.0	456	84	1
1.7	2015_Jul_27_1020	s	s	7	1	SIC	555	ABS	2	2	24VD	0	1	0.740855932236	None	None	None	None	1
1.7	2015_Jul_27_1020	s	s	7	1	SIC	556	ABS	1	2	24MD	0	1	1.91797018051	None	None	None	None	1
1.7	2015_Jul_27_1020	s	s	7	1	SIC	557	RC	2	0	23VC	1	0	0.811517953873	398.0	-332.0	411	-325	1
1.7	2015_Jul_27_1020	s	s	7	1	SIC	558	ABS	0	1	24RO	0	1	4.10241603851	None	None	None	None	1
1.7	2015_Jul_27_1020	s	s	7	1	SIC	559	ABS	1	0	24MC	0	1	3.16563796997	None	None	None	None	1
1.7	2015_Jul_27_1020	s	s	7	1	SIC	560	RC	1	1	23MO	1	0	1.42934203148	-326.0	132.0	-319	135	1
1.7	2015_Jul_27_1020	s	s	7	1	SIC	561	ABS	1	0	24MC	0	1	1.96511507034	None	None	None	None	1
1.7	2015_Jul_27_1020	s	s	7	1	SIC	562	ABS	2	1	24VO	0	1	0.830420017242	None	None	None	None	1
1.7	2015_Jul_27_1020	s	s	7	1	SIC	563	RC	1	0	23MC	1	0	1.58193993568	390.0	111.0	391	112	1
1.7	2015_Jul_27_1020	s	s	7	1	SIC	564	ABS	0	1	24RO	0	1	3.27180600166	None	None	None	None	1
1.7	2015_Jul_27_1020	s	s	7	1	SIC	565	ABS	1	2	24MD	0	1	0.811540126801	None	None	None	None	1
1.7	2015_Jul_27_1020	s	s	7	1	SIC	566	RC	1	2	23MD	1	0	0.856918096542	125.0	-126.0	119	-125	1
1.7	2015_Jul_27_1020	s	s	7	1	SIC	567	RC	0	1	23RO	0	1	3.81296491623	-147.0	133.0	None	None	0
1.7	2015_Jul_27_1020	s	s	7	1	SIC	568	RC	0	2	23RD	1	0	0.891439914703	-178.0	-359.0	-177	-356	1
1.7	2015_Jul_27_1020	s	s	7	1	SIC	569	ABS	0	2	24RD	0	1	0.806318998337	None	None	None	None	1
1.7	2015_Jul_27_1020	s	s	7	1	SIC	570	RC	2	1	23VO	1	0	0.982610940933	-67.0	-319.0	-60	-320	1
1.7	2015_Jul_27_1020	s	s	7	1	SIC	571	ABS	1	1	24MO	0	1	1.78629207611	None	None	None	None	1
1.7	2015_Jul_27_1020	s	s	7	1	SIC	572	ABS	2	2	24VD	0	1	0.646701097488	None	None	None	None	1
1.7	2015_Jul_27_1020	s	s	7	1	SIC	573	RC	2	2	23VD	1	0	0.78561091423	-114.0	267.0	-115	269	1
1.7	2015_Jul_27_1020	s	s	7	1	SIC	574	RC	1	1	23MO	1	0	2.47806501389	130.0	-307.0	132	-307	1
1.7	2015_Jul_27_1020	s	s	7	1	SIC	575	ABS	2	0	24VC	0	1	0.879312992096	None	None	None	None	1
1.7	2015_Jul_27_1020	s	s	7	1	SIC	576	RC	2	0	23VC	1	0	0.740926980972	-313.0	-125.0	-311	-126	1
1.7	2015_Jul_27_1020	s	s	7	1	SIC	577	ABS	2	2	24VD	0	1	0.611405134201	None	None	None	None	1
1.7	2015_Jul_27_1020	s	s	7	1	SIC	578	ABS	1	2	24MD	0	1	0.84681892395	None	None	None	None	1
1.7	2015_Jul_27_1020	s	s	7	1	SIC	579	RC	0	2	23RD	1	0	0.818578004837	-402.0	229.0	-392	231	1
1.7	2015_Jul_27_1020	s	s	7	1	SIC	580	ABS	1	1	24MO	0	1	2.55367302895	None	None	None	None	1
1.7	2015_Jul_27_1020	s	s	7	1	SIC	581	ABS	2	1	24VO	0	1	0.646683216095	None	None	None	None	1
1.7	2015_Jul_27_1020	s	s	7	1	SIC	582	ABS	0	2	24RD	0	1	0.936088085175	None	None	None	None	1
1.7	2015_Jul_27_1020	s	s	7	1	SIC	583	RC	2	0	23VC	1	0	0.776075839996	-245.0	-348.0	-235	-339	1
1.7	2015_Jul_27_1020	s	s	7	1	SIC	584	RC	1	1	23MO	1	0	1.6825928688	-350.0	309.0	-347	313	1
1.7	2015_Jul_27_1020	s	s	7	1	SIC	585	RC	0	1	23RO	1	0	3.37751507759	417.0	353.0	413	354	1
1.7	2015_Jul_27_1020	s	s	7	1	SIC	586	ABS	2	0	24VC	0	1	1.14114093781	None	None	None	None	1
1.7	2015_Jul_27_1020	s	s	7	1	SIC	587	RC	1	2	23MD	1	0	0.940989017487	467.0	-165.0	476	-162	1
1.7	2015_Jul_27_1020	s	s	7	1	SIC	588	ABS	1	0	24MC	0	1	2.85962510109	None	None	None	None	1
1.7	2015_Jul_27_1020	s	s	7	1	SIC	589	ABS	0	1	24RO	0	1	2.76543307304	None	None	None	None	1
1.7	2015_Jul_27_1020	s	s	7	1	SIC	590	RC	2	2	23VD	1	0	0.842586994171	222.0	25.0	219	23	1
1.7	2015_Jul_27_1020	s	s	7	1	SIC	591	RC	1	0	23MC	1	0	1.82379293442	-500.0	400.0	-497	403	1
1.7	2015_Jul_27_1020	s	s	7	1	SIC	592	RC	2	1	23VO	1	0	0.811444044113	422.0	206.0	429	215	1
