Version	Date	Stimuli	Method	Subject	Session	Condition	Trial	Target	Channel1	Channel2	Distractors	LMouseButton	RMouseButton	RT	TargetX	TargetY	ResponseX	ResponseY	Correct
1.7	2015_Jul_23_1309	s	s	8	4	Capacity	1	ABS	0	1	24RO	0	1	7.38645005226	None	None	None	None	1
1.7	2015_Jul_23_1309	s	s	8	4	Capacity	2	RC	0	1	23RO	1	0	1.74829387665	-273.0	191.0	-265	194	1
1.7	2015_Jul_23_1309	s	s	8	4	Capacity	3	RC	0	2	23RD	1	0	0.725529909134	333.0	104.0	335	101	1
1.7	2015_Jul_23_1309	s	s	8	4	Capacity	4	ABS	0	2	24RD	0	1	4.00965499878	None	None	None	None	1
1.7	2015_Jul_23_1309	s	s	8	4	Capacity	5	RC	0	2	23RD	1	0	0.997452020645	433.0	-395.0	437	-394	1
1.7	2015_Jul_23_1309	s	s	8	4	Capacity	6	ABS	0	2	24RD	0	1	2.19790506363	None	None	None	None	1
1.7	2015_Jul_23_1309	s	s	8	4	Capacity	7	ABS	0	1	24RO	0	1	5.34082102776	None	None	None	None	1
1.7	2015_Jul_23_1309	s	s	8	4	Capacity	8	RC	0	1	23RO	0	1	4.54963111877	494.0	-263.0	None	None	0
1.7	2015_Jul_23_1309	s	s	8	4	Capacity	9	RC	0	2	23RD	1	0	0.932981967926	420.0	-37.0	415	-34	1
1.7	2015_Jul_23_1309	s	s	8	4	Capacity	10	ABS	0	1	24RO	0	1	6.44724988937	None	None	None	None	1
1.7	2015_Jul_23_1309	s	s	8	4	Capacity	11	ABS	0	2	24RD	0	1	2.40588593483	None	None	None	None	1
1.7	2015_Jul_23_1309	s	s	8	4	Capacity	12	RC	0	1	23RO	1	0	3.69528985023	-212.0	-324.0	-207	-323	1
1.7	2015_Jul_23_1309	s	s	8	4	Capacity	13	RC	0	1	23RO	1	0	3.48985981941	-525.0	44.0	-522	54	1
1.7	2015_Jul_23_1309	s	s	8	4	Capacity	14	RC	0	2	23RD	1	0	1.5530359745	526.0	177.0	535	174	1
1.7	2015_Jul_23_1309	s	s	8	4	Capacity	15	ABS	0	1	24RO	0	1	7.340031147	None	None	None	None	1
1.7	2015_Jul_23_1309	s	s	8	4	Capacity	16	ABS	0	2	24RD	0	1	1.77701187134	None	None	None	None	1
1.7	2015_Jul_23_1309	s	s	8	4	Capacity	17	ABS	0	1	24RO	0	1	8.11594009399	None	None	None	None	1
1.7	2015_Jul_23_1309	s	s	8	4	Capacity	18	RC	0	1	23RO	0	1	7.43829011917	534.0	-141.0	None	None	0
1.7	2015_Jul_23_1309	s	s	8	4	Capacity	19	RC	0	2	23RD	1	0	0.893940210342	-209.0	-178.0	-203	-177	1
1.7	2015_Jul_23_1309	s	s	8	4	Capacity	20	ABS	0	2	24RD	0	1	2.21971702576	None	None	None	None	1
1.7	2015_Jul_23_1309	s	s	8	4	Capacity	21	RC	0	1	23RO	1	0	1.40859603882	-140.0	-303.0	-147	-302	1
1.7	2015_Jul_23_1309	s	s	8	4	Capacity	22	ABS	0	1	24RO	0	1	7.16209697723	None	None	None	None	1
1.7	2015_Jul_23_1309	s	s	8	4	Capacity	23	RC	0	2	23RD	1	0	0.688785076141	1.0	338.0	-1	342	1
1.7	2015_Jul_23_1309	s	s	8	4	Capacity	24	ABS	0	2	24RD	0	1	2.11812806129	None	None	None	None	1
1.7	2015_Jul_23_1309	s	s	8	4	Capacity	25	RC	0	1	23RO	1	0	5.15485310555	234.0	-118.0	237	-109	1
1.7	2015_Jul_23_1309	s	s	8	4	Capacity	26	ABS	0	1	24RO	0	1	6.89692497253	None	None	None	None	1
1.7	2015_Jul_23_1309	s	s	8	4	Capacity	27	RC	0	2	23RD	1	0	0.735872983932	147.0	256.0	137	261	1
1.7	2015_Jul_23_1309	s	s	8	4	Capacity	28	ABS	0	2	24RD	0	1	1.41857099533	None	None	None	None	1
1.7	2015_Jul_23_1309	s	s	8	4	Capacity	29	ABS	0	2	24RD	0	1	2.85450100899	None	None	None	None	1
1.7	2015_Jul_23_1309	s	s	8	4	Capacity	30	RC	0	2	23RD	1	0	2.6904270649	-373.0	-244.0	-375	-240	1
1.7	2015_Jul_23_1309	s	s	8	4	Capacity	31	RC	0	1	23RO	1	0	4.02865481377	-449.0	25.0	-442	31	1
1.7	2015_Jul_23_1309	s	s	8	4	Capacity	32	ABS	0	1	24RO	0	1	7.07343411446	None	None	None	None	1
1.7	2015_Jul_23_1309	s	s	8	4	Capacity	33	ABS	0	2	24RD	0	1	1.64733195305	None	None	None	None	1
1.7	2015_Jul_23_1309	s	s	8	4	Capacity	34	ABS	0	1	24RO	0	1	5.74962711334	None	None	None	None	1
1.7	2015_Jul_23_1309	s	s	8	4	Capacity	35	RC	0	1	23RO	1	0	2.60064888	-410.0	274.0	-409	273	1
1.7	2015_Jul_23_1309	s	s	8	4	Capacity	36	RC	0	2	23RD	1	0	0.653886079788	26.0	193.0	20	195	1
1.7	2015_Jul_23_1309	s	s	8	4	Capacity	37	RC	0	1	23RO	1	0	1.55983805656	31.0	293.0	32	293	1
1.7	2015_Jul_23_1309	s	s	8	4	Capacity	38	ABS	0	2	24RD	0	1	0.929204940796	None	None	None	None	1
1.7	2015_Jul_23_1309	s	s	8	4	Capacity	39	RC	0	2	23RD	1	0	0.864678859711	392.0	406.0	386	407	1
1.7	2015_Jul_23_1309	s	s	8	4	Capacity	40	ABS	0	1	24RO	0	1	5.83753490448	None	None	None	None	1
1.7	2015_Jul_23_1309	s	s	8	4	Capacity	41	ABS	0	1	24RO	0	1	6.72030496597	None	None	None	None	1
1.7	2015_Jul_23_1309	s	s	8	4	Capacity	42	RC	0	1	23RO	1	0	3.23631286621	-424.0	-100.0	-424	-99	1
1.7	2015_Jul_23_1309	s	s	8	4	Capacity	43	ABS	0	2	24RD	0	1	1.97138810158	None	None	None	None	1
1.7	2015_Jul_23_1309	s	s	8	4	Capacity	44	RC	0	2	23RD	1	0	0.658516168594	-170.0	58.0	-167	62	1
1.7	2015_Jul_23_1309	s	s	8	4	Capacity	45	ABS	0	1	24RO	0	1	6.28066706657	None	None	None	None	1
1.7	2015_Jul_23_1309	s	s	8	4	Capacity	46	RC	0	2	23RD	1	0	0.758081197739	-138.0	289.0	-134	290	1
1.7	2015_Jul_23_1309	s	s	8	4	Capacity	47	ABS	0	2	24RD	0	1	1.3388068676	None	None	None	None	1
1.7	2015_Jul_23_1309	s	s	8	4	Capacity	48	RC	0	1	23RO	0	1	6.90867996216	434.0	-261.0	None	None	0
1.7	2015_Jul_23_1309	s	s	8	4	Capacity	49	RC	0	1	23RO	1	0	4.09075689316	-492.0	-119.0	-491	-118	1
1.7	2015_Jul_23_1309	s	s	8	4	Capacity	50	ABS	0	1	24RO	0	1	6.86790895462	None	None	None	None	1
1.7	2015_Jul_23_1309	s	s	8	4	Capacity	51	RC	0	2	23RD	1	0	0.599663972855	-101.0	59.0	-105	62	1
1.7	2015_Jul_23_1309	s	s	8	4	Capacity	52	ABS	0	2	24RD	0	1	0.9834420681	None	None	None	None	1
1.7	2015_Jul_23_1309	s	s	8	4	Capacity	53	ABS	0	2	24RD	0	1	1.37654495239	None	None	None	None	1
1.7	2015_Jul_23_1309	s	s	8	4	Capacity	54	RC	0	1	23RO	1	0	5.64943790436	-343.0	342.0	-347	348	1
1.7	2015_Jul_23_1309	s	s	8	4	Capacity	55	ABS	0	1	24RO	0	1	8.2692990303	None	None	None	None	1
1.7	2015_Jul_23_1309	s	s	8	4	Capacity	56	RC	0	2	23RD	1	0	0.889240980148	158.0	-359.0	157	-350	1
1.7	2015_Jul_23_1309	s	s	8	4	Capacity	57	RC	0	1	23RO	1	0	1.44712495804	61.0	140.0	67	142	1
1.7	2015_Jul_23_1309	s	s	8	4	Capacity	58	ABS	0	1	24RO	0	1	7.30399107933	None	None	None	None	1
1.7	2015_Jul_23_1309	s	s	8	4	Capacity	59	ABS	0	2	24RD	0	1	1.08599185944	None	None	None	None	1
1.7	2015_Jul_23_1309	s	s	8	4	Capacity	60	RC	0	2	23RD	1	0	1.15309691429	116.0	121.0	113	121	1
1.7	2015_Jul_23_1309	s	s	8	4	Capacity	61	RC	0	1	23RO	0	1	6.79850101471	-76.0	106.0	None	None	0
1.7	2015_Jul_23_1309	s	s	8	4	Capacity	62	ABS	0	2	24RD	0	1	0.811582803726	None	None	None	None	1
1.7	2015_Jul_23_1309	s	s	8	4	Capacity	63	ABS	0	1	24RO	0	1	6.42609715462	None	None	None	None	1
1.7	2015_Jul_23_1309	s	s	8	4	Capacity	64	RC	0	2	23RD	1	0	1.01162219048	-64.0	-73.0	-68	-65	1
1.7	2015_Jul_23_1309	s	s	8	4	Capacity	65	RC	0	1	23RO	1	0	7.72750711441	182.0	-281.0	191	-282	1
1.7	2015_Jul_23_1309	s	s	8	4	Capacity	66	ABS	0	2	24RD	0	1	1.85406494141	None	None	None	None	1
1.7	2015_Jul_23_1309	s	s	8	4	Capacity	67	RC	0	2	23RD	1	0	0.73522901535	207.0	120.0	204	125	1
1.7	2015_Jul_23_1309	s	s	8	4	Capacity	68	ABS	0	1	24RO	0	1	7.19790291786	None	None	None	None	1
1.7	2015_Jul_23_1309	s	s	8	4	Capacity	69	ABS	0	1	24RO	0	1	5.86866211891	None	None	None	None	1
1.7	2015_Jul_23_1309	s	s	8	4	Capacity	70	RC	0	2	23RD	1	0	0.729109048843	-513.0	9.0	-506	8	1
1.7	2015_Jul_23_1309	s	s	8	4	Capacity	71	RC	0	1	23RO	1	0	2.61249685287	288.0	256.0	278	263	1
1.7	2015_Jul_23_1309	s	s	8	4	Capacity	72	ABS	0	2	24RD	0	1	0.976389169693	None	None	None	None	1
1.7	2015_Jul_23_1309	s	s	8	4	Capacity	73	RC	0	2	23RD	1	0	0.867115020752	187.0	161.0	189	162	1
1.7	2015_Jul_23_1309	s	s	8	4	Capacity	74	ABS	0	2	24RD	0	1	1.05584907532	None	None	None	None	1
1.7	2015_Jul_23_1309	s	s	8	4	Capacity	75	RC	0	1	23RO	1	0	6.95580196381	489.0	-160.0	494	-157	1
1.7	2015_Jul_23_1309	s	s	8	4	Capacity	76	ABS	0	1	24RO	0	1	13.6264560223	None	None	None	None	1
1.7	2015_Jul_23_1309	s	s	8	4	Capacity	77	ABS	0	2	24RD	0	1	1.07792115211	None	None	None	None	1
1.7	2015_Jul_23_1309	s	s	8	4	Capacity	78	ABS	0	1	24RO	0	1	5.44625115395	None	None	None	None	1
1.7	2015_Jul_23_1309	s	s	8	4	Capacity	79	RC	0	2	23RD	1	0	0.781312942505	-78.0	85.0	-77	86	1
1.7	2015_Jul_23_1309	s	s	8	4	Capacity	80	RC	0	1	23RO	1	0	8.24498581886	503.0	329.0	501	332	1
1.7	2015_Jul_23_1309	s	s	8	4	Capacity	81	ABS	0	2	24RD	0	1	2.79567694664	None	None	None	None	1
1.7	2015_Jul_23_1309	s	s	8	4	Capacity	82	RC	0	2	23RD	1	0	0.747627973557	-178.0	180.0	-176	181	1
1.7	2015_Jul_23_1309	s	s	8	4	Capacity	83	RC	0	1	23RO	1	0	1.39521193504	-451.0	261.0	-451	267	1
1.7	2015_Jul_23_1309	s	s	8	4	Capacity	84	ABS	0	1	24RO	0	1	8.21030211449	None	None	None	None	1
1.7	2015_Jul_23_1309	s	s	8	4	Capacity	85	RC	0	1	23RO	1	0	2.58881592751	518.0	360.0	512	360	1
1.7	2015_Jul_23_1309	s	s	8	4	Capacity	86	ABS	0	1	24RO	0	1	7.56772780418	None	None	None	None	1
1.7	2015_Jul_23_1309	s	s	8	4	Capacity	87	ABS	0	2	24RD	0	1	1.7617058754	None	None	None	None	1
1.7	2015_Jul_23_1309	s	s	8	4	Capacity	88	RC	0	2	23RD	1	0	0.811367034912	-340.0	-39.0	-331	-38	1
1.7	2015_Jul_23_1309	s	s	8	4	Capacity	89	ABS	0	1	24RO	0	1	5.41381192207	None	None	None	None	1
1.7	2015_Jul_23_1309	s	s	8	4	Capacity	90	RC	0	1	23RO	0	1	5.6558701992	389.0	-386.0	None	None	0
1.7	2015_Jul_23_1309	s	s	8	4	Capacity	91	RC	0	2	23RD	1	0	0.658492088318	2.0	-171.0	-3	-167	1
1.7	2015_Jul_23_1309	s	s	8	4	Capacity	92	ABS	0	2	24RD	0	1	1.50599598885	None	None	None	None	1
1.7	2015_Jul_23_1309	s	s	8	4	Capacity	1	ABS	1	0	24MC	0	1	1.64724516869	None	None	None	None	1
1.7	2015_Jul_23_1309	s	s	8	4	Capacity	2	ABS	2	0	24VC	0	1	1.36470508575	None	None	None	None	1
1.7	2015_Jul_23_1309	s	s	8	4	Capacity	3	RC	1	0	23MC	1	0	4.22168803215	321.0	245.0	324	248	1
1.7	2015_Jul_23_1309	s	s	8	4	Capacity	4	RC	2	0	23VC	1	0	0.675712108612	108.0	19.0	108	27	1
1.7	2015_Jul_23_1309	s	s	8	4	Capacity	5	RC	2	0	23VC	1	0	0.917419910431	38.0	-298.0	46	-300	1
1.7	2015_Jul_23_1309	s	s	8	4	Capacity	6	RC	1	0	23MC	1	0	1.10165596008	-204.0	-5.0	-210	-2	1
1.7	2015_Jul_23_1309	s	s	8	4	Capacity	7	ABS	1	0	24MC	0	1	3.80148291588	None	None	None	None	1
1.7	2015_Jul_23_1309	s	s	8	4	Capacity	8	ABS	2	0	24VC	0	1	0.736157894135	None	None	None	None	1
1.7	2015_Jul_23_1309	s	s	8	4	Capacity	9	ABS	2	0	24VC	0	1	1.10561013222	None	None	None	None	1
1.7	2015_Jul_23_1309	s	s	8	4	Capacity	10	ABS	1	0	24MC	0	1	9.96668100357	None	None	None	None	1
1.7	2015_Jul_23_1309	s	s	8	4	Capacity	11	RC	2	0	23VC	1	0	1.08249497414	264.0	277.0	260	282	1
1.7	2015_Jul_23_1309	s	s	8	4	Capacity	12	RC	1	0	23MC	1	0	0.902438163757	-308.0	323.0	-316	330	1
1.7	2015_Jul_23_1309	s	s	8	4	Capacity	13	RC	2	0	23VC	1	0	1.21163511276	214.0	405.0	217	411	1
1.7	2015_Jul_23_1309	s	s	8	4	Capacity	14	ABS	1	0	24MC	0	1	3.88355517387	None	None	None	None	1
1.7	2015_Jul_23_1309	s	s	8	4	Capacity	15	ABS	2	0	24VC	0	1	0.983402013779	None	None	None	None	1
1.7	2015_Jul_23_1309	s	s	8	4	Capacity	16	RC	1	0	23MC	1	0	4.06720685959	-468.0	-289.0	-474	-286	1
1.7	2015_Jul_23_1309	s	s	8	4	Capacity	17	ABS	1	0	24MC	0	1	3.74239683151	None	None	None	None	1
1.7	2015_Jul_23_1309	s	s	8	4	Capacity	18	ABS	2	0	24VC	0	1	0.740826845169	None	None	None	None	1
1.7	2015_Jul_23_1309	s	s	8	4	Capacity	19	RC	2	0	23VC	1	0	0.78581404686	-258.0	-20.0	-254	-18	1
1.7	2015_Jul_23_1309	s	s	8	4	Capacity	20	RC	1	0	23MC	1	0	3.14243292809	-25.0	-276.0	-23	-272	1
1.7	2015_Jul_23_1309	s	s	8	4	Capacity	21	RC	2	0	23VC	1	0	0.741286993027	-405.0	-234.0	-406	-228	1
1.7	2015_Jul_23_1309	s	s	8	4	Capacity	22	ABS	2	0	24VC	0	1	1.51272416115	None	None	None	None	1
1.7	2015_Jul_23_1309	s	s	8	4	Capacity	23	ABS	1	0	24MC	0	1	4.95846819878	None	None	None	None	1
1.7	2015_Jul_23_1309	s	s	8	4	Capacity	24	RC	1	0	23MC	1	0	2.96598386765	-156.0	-134.0	-149	-132	1
1.7	2015_Jul_23_1309	s	s	8	4	Capacity	25	RC	2	0	23VC	1	0	0.717324972153	-303.0	-389.0	-308	-388	1
1.7	2015_Jul_23_1309	s	s	8	4	Capacity	26	RC	1	0	23MC	1	0	1.15275907516	63.0	212.0	62	218	1
1.7	2015_Jul_23_1309	s	s	8	4	Capacity	27	ABS	1	0	24MC	0	1	3.80643296242	None	None	None	None	1
1.7	2015_Jul_23_1309	s	s	8	4	Capacity	28	ABS	2	0	24VC	0	1	2.02070307732	None	None	None	None	1
1.7	2015_Jul_23_1309	s	s	8	4	Capacity	29	RC	2	0	23VC	1	0	0.735897064209	-130.0	-361.0	-131	-358	1
1.7	2015_Jul_23_1309	s	s	8	4	Capacity	30	ABS	2	0	24VC	0	1	0.782911062241	None	None	None	None	1
1.7	2015_Jul_23_1309	s	s	8	4	Capacity	31	RC	1	0	23MC	1	0	5.61052083969	-499.0	160.0	-501	162	1
1.7	2015_Jul_23_1309	s	s	8	4	Capacity	32	ABS	1	0	24MC	0	1	6.42597699165	None	None	None	None	1
1.7	2015_Jul_23_1309	s	s	8	4	Capacity	33	RC	2	0	23VC	1	0	0.570875883102	-374.0	216.0	-372	219	1
1.7	2015_Jul_23_1309	s	s	8	4	Capacity	34	ABS	2	0	24VC	0	1	0.823246002197	None	None	None	None	1
1.7	2015_Jul_23_1309	s	s	8	4	Capacity	35	RC	1	0	23MC	1	0	5.02067494392	-480.0	263.0	-478	267	1
1.7	2015_Jul_23_1309	s	s	8	4	Capacity	36	ABS	1	0	24MC	0	1	4.94035482407	None	None	None	None	1
1.7	2015_Jul_23_1309	s	s	8	4	Capacity	37	ABS	1	0	24MC	0	1	4.94955897331	None	None	None	None	1
1.7	2015_Jul_23_1309	s	s	8	4	Capacity	38	RC	2	0	23VC	1	0	0.644419908524	-149.0	261.0	-148	269	1
1.7	2015_Jul_23_1309	s	s	8	4	Capacity	39	RC	1	0	23MC	1	0	5.99585795403	108.0	-234.0	117	-231	1
1.7	2015_Jul_23_1309	s	s	8	4	Capacity	40	ABS	2	0	24VC	0	1	0.976252794266	None	None	None	None	1
1.7	2015_Jul_23_1309	s	s	8	4	Capacity	41	ABS	1	0	24MC	0	1	3.58939695358	None	None	None	None	1
1.7	2015_Jul_23_1309	s	s	8	4	Capacity	42	ABS	2	0	24VC	0	1	0.70561003685	None	None	None	None	1
1.7	2015_Jul_23_1309	s	s	8	4	Capacity	43	RC	2	0	23VC	1	0	0.738321781158	137.0	-123.0	140	-119	1
1.7	2015_Jul_23_1309	s	s	8	4	Capacity	44	RC	1	0	23MC	1	0	4.41364002228	436.0	332.0	438	333	1
1.7	2015_Jul_23_1309	s	s	8	4	Capacity	45	ABS	2	0	24VC	0	1	0.899737119675	None	None	None	None	1
1.7	2015_Jul_23_1309	s	s	8	4	Capacity	46	ABS	1	0	24MC	0	1	4.13080215454	None	None	None	None	1
1.7	2015_Jul_23_1309	s	s	8	4	Capacity	47	RC	2	0	23VC	1	0	0.829808950424	93.0	-354.0	92	-355	1
1.7	2015_Jul_23_1309	s	s	8	4	Capacity	48	RC	1	0	23MC	1	0	1.8826379776	271.0	59.0	274	63	1
1.7	2015_Jul_23_1309	s	s	8	4	Capacity	49	ABS	1	0	24MC	0	1	3.11362314224	None	None	None	None	1
1.7	2015_Jul_23_1309	s	s	8	4	Capacity	50	ABS	2	0	24VC	0	1	0.964572906494	None	None	None	None	1
1.7	2015_Jul_23_1309	s	s	8	4	Capacity	51	RC	1	0	23MC	1	0	2.10166597366	444.0	204.0	448	209	1
1.7	2015_Jul_23_1309	s	s	8	4	Capacity	52	RC	2	0	23VC	1	0	0.752713918686	330.0	-244.0	326	-239	1
1.7	2015_Jul_23_1309	s	s	8	4	Capacity	53	ABS	1	0	24MC	0	1	3.61296510696	None	None	None	None	1
1.7	2015_Jul_23_1309	s	s	8	4	Capacity	54	ABS	2	0	24VC	0	1	1.7937541008	None	None	None	None	1
1.7	2015_Jul_23_1309	s	s	8	4	Capacity	55	RC	1	0	23MC	1	0	2.37693095207	287.0	242.0	287	242	1
1.7	2015_Jul_23_1309	s	s	8	4	Capacity	56	RC	2	0	23VC	1	0	0.632343053818	19.0	60.0	19	60	1
1.7	2015_Jul_23_1309	s	s	8	4	Capacity	57	ABS	2	0	24VC	0	1	0.983361959457	None	None	None	None	1
1.7	2015_Jul_23_1309	s	s	8	4	Capacity	58	RC	2	0	23VC	1	0	0.653691053391	434.0	259.0	427	263	1
1.7	2015_Jul_23_1309	s	s	8	4	Capacity	59	ABS	1	0	24MC	0	1	3.56122398376	None	None	None	None	1
1.7	2015_Jul_23_1309	s	s	8	4	Capacity	60	RC	1	0	23MC	1	0	9.56881713867	-6.0	-223.0	-8	-222	1
1.7	2015_Jul_23_1309	s	s	8	4	Capacity	61	RC	1	0	23MC	0	1	3.09064292908	-408.0	-308.0	None	None	0
1.7	2015_Jul_23_1309	s	s	8	4	Capacity	62	ABS	2	0	24VC	0	1	0.655333995819	None	None	None	None	1
1.7	2015_Jul_23_1309	s	s	8	4	Capacity	63	RC	2	0	23VC	1	0	1.09440803528	-506.0	-321.0	-504	-320	1
1.7	2015_Jul_23_1309	s	s	8	4	Capacity	64	ABS	1	0	24MC	0	1	1.83314204216	None	None	None	None	1
1.7	2015_Jul_23_1309	s	s	8	4	Capacity	65	RC	1	0	23MC	1	0	4.07863092422	474.0	27.0	471	32	1
1.7	2015_Jul_23_1309	s	s	8	4	Capacity	66	RC	2	0	23VC	1	0	0.595907926559	366.0	191.0	366	194	1
1.7	2015_Jul_23_1309	s	s	8	4	Capacity	67	ABS	2	0	24VC	0	1	0.752681970596	None	None	None	None	1
1.7	2015_Jul_23_1309	s	s	8	4	Capacity	68	ABS	1	0	24MC	0	1	5.10774588585	None	None	None	None	1
1.7	2015_Jul_23_1309	s	s	8	4	Capacity	69	ABS	2	0	24VC	0	1	0.653442144394	None	None	None	None	1
1.7	2015_Jul_23_1309	s	s	8	4	Capacity	70	RC	1	0	23MC	1	0	8.36822915077	229.0	-312.0	232	-308	1
1.7	2015_Jul_23_1309	s	s	8	4	Capacity	71	RC	2	0	23VC	1	0	0.646723985672	11.0	143.0	16	146	1
1.7	2015_Jul_23_1309	s	s	8	4	Capacity	72	ABS	1	0	24MC	0	1	2.84296512604	None	None	None	None	1
1.7	2015_Jul_23_1309	s	s	8	4	Capacity	73	RC	1	0	23MC	1	0	6.66150403023	-162.0	-394.0	-159	-399	1
1.7	2015_Jul_23_1309	s	s	8	4	Capacity	74	ABS	1	0	24MC	0	1	2.97720789909	None	None	None	None	1
1.7	2015_Jul_23_1309	s	s	8	4	Capacity	75	RC	2	0	23VC	1	0	0.724375009537	469.0	297.0	469	300	1
1.7	2015_Jul_23_1309	s	s	8	4	Capacity	76	ABS	2	0	24VC	0	1	1.2704770565	None	None	None	None	1
1.7	2015_Jul_23_1309	s	s	8	4	Capacity	77	RC	2	0	23VC	1	0	0.830385923386	19.0	-367.0	17	-359	1
1.7	2015_Jul_23_1309	s	s	8	4	Capacity	78	ABS	1	0	24MC	0	1	3.2248249054	None	None	None	None	1
1.7	2015_Jul_23_1309	s	s	8	4	Capacity	79	RC	1	0	23MC	1	0	2.86898612976	85.0	114.0	89	113	1
1.7	2015_Jul_23_1309	s	s	8	4	Capacity	80	ABS	2	0	24VC	0	1	0.623195886612	None	None	None	None	1
1.7	2015_Jul_23_1309	s	s	8	4	Capacity	81	ABS	2	0	24VC	0	1	0.682077884674	None	None	None	None	1
1.7	2015_Jul_23_1309	s	s	8	4	Capacity	82	RC	2	0	23VC	1	0	0.635375976562	118.0	209.0	126	213	1
1.7	2015_Jul_23_1309	s	s	8	4	Capacity	83	RC	1	0	23MC	1	0	1.37653303146	-372.0	348.0	-367	352	1
1.7	2015_Jul_23_1309	s	s	8	4	Capacity	84	ABS	1	0	24MC	0	1	8.00977611542	None	None	None	None	1
1.7	2015_Jul_23_1309	s	s	8	4	Capacity	85	RC	2	0	23VC	1	0	0.635284900665	-170.0	-28.0	-174	-27	1
1.7	2015_Jul_23_1309	s	s	8	4	Capacity	86	RC	1	0	23MC	1	0	5.89362096786	31.0	303.0	35	307	1
1.7	2015_Jul_23_1309	s	s	8	4	Capacity	87	ABS	1	0	24MC	0	1	1.14109611511	None	None	None	None	1
1.7	2015_Jul_23_1309	s	s	8	4	Capacity	88	ABS	2	0	24VC	0	1	0.717360019684	None	None	None	None	1
1.7	2015_Jul_23_1309	s	s	8	4	Capacity	89	RC	2	0	23VC	1	0	0.752657175064	-161.0	363.0	-169	363	1
1.7	2015_Jul_23_1309	s	s	8	4	Capacity	90	ABS	2	0	24VC	0	1	0.759639024734	None	None	None	None	1
1.7	2015_Jul_23_1309	s	s	8	4	Capacity	91	RC	1	0	23MC	1	0	2.3416800499	-72.0	410.0	-74	412	1
1.7	2015_Jul_23_1309	s	s	8	4	Capacity	92	ABS	1	0	24MC	0	1	4.27917814255	None	None	None	None	1
1.7	2015_Jul_23_1309	s	s	8	4	SIC	1	RC	2	2	23VD	1	0	0.548200845718	-374.0	210.0	-369	214	1
1.7	2015_Jul_23_1309	s	s	8	4	SIC	2	RC	1	2	23MD	1	0	0.512468099594	376.0	68.0	378	70	1
1.7	2015_Jul_23_1309	s	s	8	4	SIC	3	RC	0	2	23RD	1	0	0.587880849838	-204.0	-91.0	-209	-83	1
1.7	2015_Jul_23_1309	s	s	8	4	SIC	4	RC	1	0	23MC	1	0	6.69680809975	-482.0	-411.0	-486	-411	1
1.7	2015_Jul_23_1309	s	s	8	4	SIC	5	ABS	0	1	24RO	0	1	5.88466596603	None	None	None	None	1
1.7	2015_Jul_23_1309	s	s	8	4	SIC	6	ABS	2	2	24VD	0	1	0.693834781647	None	None	None	None	1
1.7	2015_Jul_23_1309	s	s	8	4	SIC	7	ABS	1	1	24MO	0	1	7.13232803345	None	None	None	None	1
1.7	2015_Jul_23_1309	s	s	8	4	SIC	8	ABS	1	2	24MD	0	1	1.05871915817	None	None	None	None	1
1.7	2015_Jul_23_1309	s	s	8	4	SIC	9	RC	0	1	23RO	1	0	1.19477510452	-195.0	280.0	-196	273	1
1.7	2015_Jul_23_1309	s	s	8	4	SIC	10	ABS	1	0	24MC	0	1	7.19121980667	None	None	None	None	1
1.7	2015_Jul_23_1309	s	s	8	4	SIC	11	ABS	0	2	24RD	0	1	0.653429985046	None	None	None	None	1
1.7	2015_Jul_23_1309	s	s	8	4	SIC	12	ABS	2	0	24VC	0	1	0.654724836349	None	None	None	None	1
1.7	2015_Jul_23_1309	s	s	8	4	SIC	13	ABS	2	1	24VO	0	1	0.83536696434	None	None	None	None	1
1.7	2015_Jul_23_1309	s	s	8	4	SIC	14	RC	2	1	23VO	1	0	0.726346969604	49.0	105.0	40	110	1
1.7	2015_Jul_23_1309	s	s	8	4	SIC	15	RC	1	1	23MO	1	0	6.40259313583	248.0	-357.0	244	-358	1
1.7	2015_Jul_23_1309	s	s	8	4	SIC	16	RC	2	0	23VC	1	0	0.952763080597	433.0	-377.0	431	-371	1
1.7	2015_Jul_23_1309	s	s	8	4	SIC	17	ABS	1	1	24MO	0	1	5.90822410583	None	None	None	None	1
1.7	2015_Jul_23_1309	s	s	8	4	SIC	18	RC	1	0	23MC	1	0	6.26129007339	244.0	-253.0	242	-252	1
1.7	2015_Jul_23_1309	s	s	8	4	SIC	19	RC	1	1	23MO	1	0	1.77163600922	57.0	-225.0	55	-221	1
1.7	2015_Jul_23_1309	s	s	8	4	SIC	20	RC	2	0	23VC	1	0	0.634980916977	-513.0	-67.0	-514	-67	1
1.7	2015_Jul_23_1309	s	s	8	4	SIC	21	ABS	2	2	24VD	0	1	1.11743617058	None	None	None	None	1
1.7	2015_Jul_23_1309	s	s	8	4	SIC	22	RC	1	2	23MD	1	0	0.642503023148	-359.0	167.0	-359	172	1
1.7	2015_Jul_23_1309	s	s	8	4	SIC	23	RC	0	2	23RD	1	0	0.571213006973	-22.0	-54.0	-17	-58	1
1.7	2015_Jul_23_1309	s	s	8	4	SIC	24	RC	2	2	23VD	1	0	0.523988962173	-466.0	159.0	-465	164	1
1.7	2015_Jul_23_1309	s	s	8	4	SIC	25	RC	0	1	23RO	1	0	3.29030513763	-210.0	-97.0	-215	-99	1
1.7	2015_Jul_23_1309	s	s	8	4	SIC	26	ABS	0	1	24RO	0	1	7.52618312836	None	None	None	None	1
1.7	2015_Jul_23_1309	s	s	8	4	SIC	27	ABS	1	0	24MC	0	1	6.17353010178	None	None	None	None	1
1.7	2015_Jul_23_1309	s	s	8	4	SIC	28	RC	2	1	23VO	1	0	0.58433008194	199.0	339.0	198	344	1
1.7	2015_Jul_23_1309	s	s	8	4	SIC	29	ABS	2	0	24VC	0	1	0.693818092346	None	None	None	None	1
1.7	2015_Jul_23_1309	s	s	8	4	SIC	30	ABS	2	1	24VO	0	1	1.08234286308	None	None	None	None	1
1.7	2015_Jul_23_1309	s	s	8	4	SIC	31	ABS	1	2	24MD	0	1	0.709331989288	None	None	None	None	1
1.7	2015_Jul_23_1309	s	s	8	4	SIC	32	ABS	0	2	24RD	0	1	0.799758911133	None	None	None	None	1
1.7	2015_Jul_23_1309	s	s	8	4	SIC	33	ABS	1	0	24MC	0	1	5.18772006035	None	None	None	None	1
1.7	2015_Jul_23_1309	s	s	8	4	SIC	34	RC	1	0	23MC	1	0	4.62296390533	-110.0	399.0	-111	397	1
1.7	2015_Jul_23_1309	s	s	8	4	SIC	35	RC	1	2	23MD	1	0	0.724198818207	-167.0	-157.0	-173	-158	1
1.7	2015_Jul_23_1309	s	s	8	4	SIC	36	ABS	2	0	24VC	0	1	0.740855932236	None	None	None	None	1
1.7	2015_Jul_23_1309	s	s	8	4	SIC	37	ABS	2	2	24VD	0	1	0.599627971649	None	None	None	None	1
1.7	2015_Jul_23_1309	s	s	8	4	SIC	38	RC	0	2	23RD	1	0	0.811545848846	-200.0	-5.0	-200	-6	1
1.7	2015_Jul_23_1309	s	s	8	4	SIC	39	ABS	1	1	24MO	0	1	6.22102189064	None	None	None	None	1
1.7	2015_Jul_23_1309	s	s	8	4	SIC	40	ABS	1	2	24MD	0	1	0.682007074356	None	None	None	None	1
1.7	2015_Jul_23_1309	s	s	8	4	SIC	41	RC	2	0	23VC	1	0	0.701333999634	-8.0	160.0	-11	157	1
1.7	2015_Jul_23_1309	s	s	8	4	SIC	42	RC	2	2	23VD	1	0	0.571400880814	222.0	81.0	221	75	1
1.7	2015_Jul_23_1309	s	s	8	4	SIC	43	ABS	0	1	24RO	0	1	8.33340883255	None	None	None	None	1
1.7	2015_Jul_23_1309	s	s	8	4	SIC	44	RC	0	1	23RO	1	0	1.96511387825	115.0	23.0	121	26	1
1.7	2015_Jul_23_1309	s	s	8	4	SIC	45	RC	2	1	23VO	1	0	0.618441104889	-49.0	-126.0	-48	-129	1
1.7	2015_Jul_23_1309	s	s	8	4	SIC	46	RC	1	1	23MO	1	0	1.21847891808	-486.0	234.0	-489	240	1
1.7	2015_Jul_23_1309	s	s	8	4	SIC	47	ABS	0	2	24RD	0	1	0.917399168015	None	None	None	None	1
1.7	2015_Jul_23_1309	s	s	8	4	SIC	48	ABS	2	1	24VO	0	1	1.29072809219	None	None	None	None	1
1.7	2015_Jul_23_1309	s	s	8	4	SIC	49	ABS	1	1	24MO	0	1	6.19702506065	None	None	None	None	1
1.7	2015_Jul_23_1309	s	s	8	4	SIC	50	RC	2	0	23VC	1	0	0.985419034958	531.0	-96.0	531	-91	1
1.7	2015_Jul_23_1309	s	s	8	4	SIC	51	RC	1	1	23MO	1	0	0.78809595108	-265.0	218.0	-268	217	1
1.7	2015_Jul_23_1309	s	s	8	4	SIC	52	ABS	2	0	24VC	0	1	0.923926115036	None	None	None	None	1
1.7	2015_Jul_23_1309	s	s	8	4	SIC	53	ABS	2	1	24VO	0	1	0.626945018768	None	None	None	None	1
1.7	2015_Jul_23_1309	s	s	8	4	SIC	54	ABS	1	2	24MD	0	1	1.02955698967	None	None	None	None	1
1.7	2015_Jul_23_1309	s	s	8	4	SIC	55	ABS	0	2	24RD	0	1	1.04260897636	None	None	None	None	1
1.7	2015_Jul_23_1309	s	s	8	4	SIC	56	RC	0	1	23RO	1	0	10.0581510067	374.0	392.0	376	395	1
1.7	2015_Jul_23_1309	s	s	8	4	SIC	57	ABS	2	2	24VD	0	1	0.764312028885	None	None	None	None	1
1.7	2015_Jul_23_1309	s	s	8	4	SIC	58	RC	1	2	23MD	1	0	0.664777040482	271.0	303.0	278	301	1
1.7	2015_Jul_23_1309	s	s	8	4	SIC	59	RC	2	1	23VO	1	0	0.561401844025	-101.0	151.0	-107	152	1
1.7	2015_Jul_23_1309	s	s	8	4	SIC	60	RC	1	0	23MC	1	0	4.03148818016	-65.0	356.0	-62	356	1
1.7	2015_Jul_23_1309	s	s	8	4	SIC	61	ABS	1	0	24MC	0	1	4.00814199448	None	None	None	None	1
1.7	2015_Jul_23_1309	s	s	8	4	SIC	62	RC	2	2	23VD	1	0	0.606886148453	-372.0	-247.0	-375	-242	1
1.7	2015_Jul_23_1309	s	s	8	4	SIC	63	ABS	0	1	24RO	0	1	8.35139298439	None	None	None	None	1
1.7	2015_Jul_23_1309	s	s	8	4	SIC	64	RC	0	2	23RD	1	0	0.65331196785	-356.0	269.0	-358	266	1
1.7	2015_Jul_23_1309	s	s	8	4	SIC	65	ABS	2	1	24VO	0	1	0.952772855759	None	None	None	None	1
1.7	2015_Jul_23_1309	s	s	8	4	SIC	66	ABS	1	2	24MD	0	1	1.32937717438	None	None	None	None	1
1.7	2015_Jul_23_1309	s	s	8	4	SIC	67	ABS	1	0	24MC	0	1	4.48392105103	None	None	None	None	1
1.7	2015_Jul_23_1309	s	s	8	4	SIC	68	RC	1	2	23MD	1	0	0.701130151749	505.0	288.0	512	289	1
1.7	2015_Jul_23_1309	s	s	8	4	SIC	69	RC	2	2	23VD	1	0	0.630059957504	435.0	-176.0	444	-173	1
1.7	2015_Jul_23_1309	s	s	8	4	SIC	70	ABS	0	1	24RO	0	1	7.43834400177	None	None	None	None	1
1.7	2015_Jul_23_1309	s	s	8	4	SIC	71	RC	1	0	23MC	1	0	7.2617521286	-516.0	26.0	-527	31	1
1.7	2015_Jul_23_1309	s	s	8	4	SIC	72	ABS	2	0	24VC	0	1	0.761995077133	None	None	None	None	1
1.7	2015_Jul_23_1309	s	s	8	4	SIC	73	RC	0	1	23RO	1	0	7.0353269577	-378.0	-264.0	-377	-268	1
1.7	2015_Jul_23_1309	s	s	8	4	SIC	74	RC	2	1	23VO	1	0	0.582835912704	-262.0	-249.0	-264	-246	1
1.7	2015_Jul_23_1309	s	s	8	4	SIC	75	RC	1	1	23MO	1	0	6.4473991394	-484.0	372.0	-491	377	1
1.7	2015_Jul_23_1309	s	s	8	4	SIC	76	ABS	2	2	24VD	0	1	0.728986024857	None	None	None	None	1
1.7	2015_Jul_23_1309	s	s	8	4	SIC	77	RC	0	2	23RD	1	0	0.529039859772	-231.0	258.0	-229	266	1
1.7	2015_Jul_23_1309	s	s	8	4	SIC	78	ABS	1	1	24MO	0	1	8.80375409126	None	None	None	None	1
1.7	2015_Jul_23_1309	s	s	8	4	SIC	79	ABS	0	2	24RD	0	1	0.912414073944	None	None	None	None	1
1.7	2015_Jul_23_1309	s	s	8	4	SIC	80	RC	2	0	23VC	1	0	0.629957914352	506.0	369.0	509	375	1
1.7	2015_Jul_23_1309	s	s	8	4	SIC	81	RC	0	2	23RD	1	0	1.07745695114	484.0	-247.0	485	-240	1
1.7	2015_Jul_23_1309	s	s	8	4	SIC	82	ABS	0	2	24RD	0	1	0.999825000763	None	None	None	None	1
1.7	2015_Jul_23_1309	s	s	8	4	SIC	83	ABS	0	1	24RO	0	1	7.32734894753	None	None	None	None	1
1.7	2015_Jul_23_1309	s	s	8	4	SIC	84	RC	1	1	23MO	1	0	0.893929958344	-112.0	-4.0	-104	-5	1
1.7	2015_Jul_23_1309	s	s	8	4	SIC	85	RC	1	2	23MD	1	0	0.961374998093	528.0	-255.0	531	-255	1
1.7	2015_Jul_23_1309	s	s	8	4	SIC	86	RC	2	0	23VC	1	0	0.571025848389	-56.0	253.0	-48	256	1
1.7	2015_Jul_23_1309	s	s	8	4	SIC	87	RC	1	0	23MC	1	0	6.44963884354	-232.0	-92.0	-231	-94	1
1.7	2015_Jul_23_1309	s	s	8	4	SIC	88	ABS	1	0	24MC	0	1	2.71833395958	None	None	None	None	1
1.7	2015_Jul_23_1309	s	s	8	4	SIC	89	RC	2	2	23VD	1	0	0.670276165009	-400.0	-293.0	-406	-293	1
1.7	2015_Jul_23_1309	s	s	8	4	SIC	90	ABS	1	2	24MD	0	1	2.31798195839	None	None	None	None	1
1.7	2015_Jul_23_1309	s	s	8	4	SIC	91	ABS	2	1	24VO	0	1	0.858392000198	None	None	None	None	1
1.7	2015_Jul_23_1309	s	s	8	4	SIC	92	ABS	2	0	24VC	0	1	0.888627052307	None	None	None	None	1
1.7	2015_Jul_23_1309	s	s	8	4	SIC	93	ABS	1	1	24MO	0	1	6.19434905052	None	None	None	None	1
1.7	2015_Jul_23_1309	s	s	8	4	SIC	94	RC	0	1	23RO	1	0	1.81880021095	-15.0	174.0	-17	179	1
1.7	2015_Jul_23_1309	s	s	8	4	SIC	95	RC	2	1	23VO	1	0	0.582967996597	-162.0	398.0	-169	398	1
1.7	2015_Jul_23_1309	s	s	8	4	SIC	96	ABS	2	2	24VD	0	1	0.764446973801	None	None	None	None	1
1.7	2015_Jul_23_1309	s	s	8	4	SIC	97	RC	0	2	23RD	1	0	0.853759050369	426.0	307.0	430	308	1
1.7	2015_Jul_23_1309	s	s	8	4	SIC	98	RC	0	1	23RO	1	0	6.73214316368	177.0	-356.0	179	-352	1
1.7	2015_Jul_23_1309	s	s	8	4	SIC	99	RC	1	2	23MD	1	0	0.582501888275	-407.0	363.0	-405	363	1
1.7	2015_Jul_23_1309	s	s	8	4	SIC	100	ABS	0	2	24RD	0	1	1.13588190079	None	None	None	None	1
1.7	2015_Jul_23_1309	s	s	8	4	SIC	101	ABS	0	1	24RO	0	1	9.11557507515	None	None	None	None	1
1.7	2015_Jul_23_1309	s	s	8	4	SIC	102	ABS	1	0	24MC	0	1	4.21320295334	None	None	None	None	1
1.7	2015_Jul_23_1309	s	s	8	4	SIC	103	ABS	1	1	24MO	0	1	7.41010689735	None	None	None	None	1
1.7	2015_Jul_23_1309	s	s	8	4	SIC	104	ABS	2	0	24VC	0	1	0.807040929794	None	None	None	None	1
1.7	2015_Jul_23_1309	s	s	8	4	SIC	105	RC	2	0	23VC	1	0	1.31770706177	302.0	-376.0	301	-376	1
1.7	2015_Jul_23_1309	s	s	8	4	SIC	106	ABS	2	1	24VO	0	1	1.16038012505	None	None	None	None	1
1.7	2015_Jul_23_1309	s	s	8	4	SIC	107	RC	2	1	23VO	1	0	0.749111890793	-452.0	307.0	-458	312	1
1.7	2015_Jul_23_1309	s	s	8	4	SIC	108	ABS	2	2	24VD	0	1	0.835089206696	None	None	None	None	1
1.7	2015_Jul_23_1309	s	s	8	4	SIC	109	RC	1	1	23MO	1	0	0.994960069656	170.0	100.0	168	101	1
1.7	2015_Jul_23_1309	s	s	8	4	SIC	110	ABS	1	2	24MD	0	1	1.4471309185	None	None	None	None	1
1.7	2015_Jul_23_1309	s	s	8	4	SIC	111	RC	2	2	23VD	1	0	0.540834903717	455.0	350.0	454	348	1
1.7	2015_Jul_23_1309	s	s	8	4	SIC	112	RC	1	0	23MC	1	0	2.48295521736	-408.0	29.0	-420	33	1
1.7	2015_Jul_23_1309	s	s	8	4	SIC	113	RC	0	1	23RO	1	0	2.24755311012	444.0	332.0	441	336	1
1.7	2015_Jul_23_1309	s	s	8	4	SIC	114	RC	2	2	23VD	1	0	0.846849918365	-462.0	-392.0	-458	-389	1
1.7	2015_Jul_23_1309	s	s	8	4	SIC	115	ABS	2	0	24VC	0	1	0.893931150436	None	None	None	None	1
1.7	2015_Jul_23_1309	s	s	8	4	SIC	116	ABS	1	1	24MO	0	1	7.43351101875	None	None	None	None	1
1.7	2015_Jul_23_1309	s	s	8	4	SIC	117	ABS	2	2	24VD	0	1	0.794130086899	None	None	None	None	1
1.7	2015_Jul_23_1309	s	s	8	4	SIC	118	RC	1	2	23MD	1	0	0.740947961807	-463.0	-403.0	-464	-399	1
1.7	2015_Jul_23_1309	s	s	8	4	SIC	119	ABS	1	0	24MC	0	1	5.42558813095	None	None	None	None	1
1.7	2015_Jul_23_1309	s	s	8	4	SIC	120	RC	1	0	23MC	1	0	5.16141605377	-259.0	-43.0	-252	-47	1
1.7	2015_Jul_23_1309	s	s	8	4	SIC	121	RC	2	1	23VO	1	0	0.561898946762	-419.0	217.0	-417	217	1
1.7	2015_Jul_23_1309	s	s	8	4	SIC	122	ABS	2	1	24VO	0	1	0.705618143082	None	None	None	None	1
1.7	2015_Jul_23_1309	s	s	8	4	SIC	123	ABS	0	2	24RD	0	1	0.971565961838	None	None	None	None	1
1.7	2015_Jul_23_1309	s	s	8	4	SIC	124	RC	1	1	23MO	1	0	2.39648413658	-302.0	-191.0	-301	-194	1
1.7	2015_Jul_23_1309	s	s	8	4	SIC	125	RC	2	0	23VC	1	0	0.584909915924	-316.0	75.0	-315	84	1
1.7	2015_Jul_23_1309	s	s	8	4	SIC	126	ABS	0	1	24RO	0	1	7.08088994026	None	None	None	None	1
1.7	2015_Jul_23_1309	s	s	8	4	SIC	127	ABS	1	2	24MD	0	1	0.888033151627	None	None	None	None	1
1.7	2015_Jul_23_1309	s	s	8	4	SIC	128	RC	0	2	23RD	1	0	0.773694992065	-213.0	-80.0	-211	-83	1
1.7	2015_Jul_23_1309	s	s	8	4	SIC	129	ABS	2	0	24VC	0	1	0.693953990936	None	None	None	None	1
1.7	2015_Jul_23_1309	s	s	8	4	SIC	130	RC	2	0	23VC	1	0	0.665390968323	202.0	-126.0	203	-127	1
1.7	2015_Jul_23_1309	s	s	8	4	SIC	131	ABS	1	2	24MD	0	1	1.48274087906	None	None	None	None	1
1.7	2015_Jul_23_1309	s	s	8	4	SIC	132	ABS	1	0	24MC	0	1	7.07065105438	None	None	None	None	1
1.7	2015_Jul_23_1309	s	s	8	4	SIC	133	ABS	1	1	24MO	0	1	6.26164698601	None	None	None	None	1
1.7	2015_Jul_23_1309	s	s	8	4	SIC	134	RC	0	1	23RO	1	0	4.87835383415	-155.0	-165.0	-153	-169	1
1.7	2015_Jul_23_1309	s	s	8	4	SIC	135	RC	2	2	23VD	1	0	0.615082025528	85.0	403.0	83	405	1
1.7	2015_Jul_23_1309	s	s	8	4	SIC	136	RC	1	2	23MD	1	0	0.630002975464	-497.0	240.0	-503	244	1
1.7	2015_Jul_23_1309	s	s	8	4	SIC	137	RC	0	2	23RD	1	0	0.634990930557	-469.0	-254.0	-471	-249	1
1.7	2015_Jul_23_1309	s	s	8	4	SIC	138	ABS	2	1	24VO	0	1	0.941025972366	None	None	None	None	1
1.7	2015_Jul_23_1309	s	s	8	4	SIC	139	RC	1	0	23MC	1	0	2.43569684029	-291.0	255.0	-291	262	1
1.7	2015_Jul_23_1309	s	s	8	4	SIC	140	ABS	0	2	24RD	0	1	0.808001995087	None	None	None	None	1
1.7	2015_Jul_23_1309	s	s	8	4	SIC	141	RC	2	1	23VO	1	0	1.0940618515	14.0	-285.0	9	-286	1
1.7	2015_Jul_23_1309	s	s	8	4	SIC	142	RC	1	1	23MO	1	0	1.35971093178	144.0	221.0	141	221	1
1.7	2015_Jul_23_1309	s	s	8	4	SIC	143	ABS	0	1	24RO	0	1	5.9965839386	None	None	None	None	1
1.7	2015_Jul_23_1309	s	s	8	4	SIC	144	ABS	2	2	24VD	0	1	0.641742944717	None	None	None	None	1
1.7	2015_Jul_23_1309	s	s	8	4	SIC	145	ABS	1	2	24MD	0	1	2.21912884712	None	None	None	None	1
1.7	2015_Jul_23_1309	s	s	8	4	SIC	146	ABS	2	0	24VC	0	1	0.853603839874	None	None	None	None	1
1.7	2015_Jul_23_1309	s	s	8	4	SIC	147	ABS	2	1	24VO	0	1	1.12438297272	None	None	None	None	1
1.7	2015_Jul_23_1309	s	s	8	4	SIC	148	RC	2	2	23VD	1	0	0.924268007278	459.0	-138.0	463	-136	1
1.7	2015_Jul_23_1309	s	s	8	4	SIC	149	RC	1	2	23MD	1	0	0.628582000732	-204.0	-47.0	-202	-48	1
1.7	2015_Jul_23_1309	s	s	8	4	SIC	150	ABS	2	2	24VD	0	1	0.806401968002	None	None	None	None	1
1.7	2015_Jul_23_1309	s	s	8	4	SIC	151	RC	1	0	23MC	0	1	5.49028396606	450.0	122.0	None	None	0
1.7	2015_Jul_23_1309	s	s	8	4	SIC	152	ABS	1	0	24MC	0	1	7.30931782722	None	None	None	None	1
1.7	2015_Jul_23_1309	s	s	8	4	SIC	153	ABS	0	2	24RD	0	1	0.983114957809	None	None	None	None	1
1.7	2015_Jul_23_1309	s	s	8	4	SIC	154	RC	0	1	23RO	1	0	6.76219391823	-97.0	-410.0	-100	-406	1
1.7	2015_Jul_23_1309	s	s	8	4	SIC	155	ABS	1	1	24MO	0	1	5.85560894012	None	None	None	None	1
1.7	2015_Jul_23_1309	s	s	8	4	SIC	156	ABS	0	1	24RO	0	1	7.83355593681	None	None	None	None	1
1.7	2015_Jul_23_1309	s	s	8	4	SIC	157	RC	1	1	23MO	1	0	6.02084708214	-478.0	-371.0	-477	-365	1
1.7	2015_Jul_23_1309	s	s	8	4	SIC	158	RC	2	1	23VO	1	0	1.04417300224	532.0	394.0	533	392	1
1.7	2015_Jul_23_1309	s	s	8	4	SIC	159	RC	0	2	23RD	1	0	0.582298994064	-161.0	151.0	-160	145	1
1.7	2015_Jul_23_1309	s	s	8	4	SIC	160	RC	2	0	23VC	1	0	0.594051122665	-487.0	-11.0	-487	-9	1
1.7	2015_Jul_23_1309	s	s	8	4	SIC	161	ABS	0	2	24RD	0	1	1.94895291328	None	None	None	None	1
1.7	2015_Jul_23_1309	s	s	8	4	SIC	162	RC	1	2	23MD	1	0	0.983052015305	226.0	-323.0	225	-322	1
1.7	2015_Jul_23_1309	s	s	8	4	SIC	163	RC	0	2	23RD	1	0	0.623167991638	-135.0	-297.0	-140	-295	1
1.7	2015_Jul_23_1309	s	s	8	4	SIC	164	ABS	1	0	24MC	0	1	5.56209516525	None	None	None	None	1
1.7	2015_Jul_23_1309	s	s	8	4	SIC	165	ABS	1	1	24MO	0	1	6.99111294746	None	None	None	None	1
1.7	2015_Jul_23_1309	s	s	8	4	SIC	166	RC	2	1	23VO	1	0	1.00926589966	526.0	344.0	532	351	1
1.7	2015_Jul_23_1309	s	s	8	4	SIC	167	ABS	1	2	24MD	0	1	1.21177697182	None	None	None	None	1
1.7	2015_Jul_23_1309	s	s	8	4	SIC	168	ABS	2	0	24VC	0	1	1.2300388813	None	None	None	None	1
1.7	2015_Jul_23_1309	s	s	8	4	SIC	169	RC	0	1	23RO	1	0	3.61951184273	-236.0	-290.0	-238	-288	1
1.7	2015_Jul_23_1309	s	s	8	4	SIC	170	RC	1	0	23MC	1	0	1.74140286446	-135.0	-166.0	-140	-162	1
1.7	2015_Jul_23_1309	s	s	8	4	SIC	171	RC	1	1	23MO	1	0	1.12934303284	82.0	86.0	86	90	1
1.7	2015_Jul_23_1309	s	s	8	4	SIC	172	ABS	2	2	24VD	0	1	0.6937251091	None	None	None	None	1
1.7	2015_Jul_23_1309	s	s	8	4	SIC	173	RC	2	2	23VD	1	0	0.629971027374	145.0	365.0	141	371	1
1.7	2015_Jul_23_1309	s	s	8	4	SIC	174	ABS	0	1	24RO	0	1	7.56533408165	None	None	None	None	1
1.7	2015_Jul_23_1309	s	s	8	4	SIC	175	ABS	2	1	24VO	0	1	0.717360019684	None	None	None	None	1
1.7	2015_Jul_23_1309	s	s	8	4	SIC	176	RC	2	0	23VC	1	0	0.818377017975	-465.0	-209.0	-459	-211	1
1.7	2015_Jul_23_1309	s	s	8	4	SIC	177	RC	1	1	23MO	1	0	1.0562748909	153.0	59.0	154	63	1
1.7	2015_Jul_23_1309	s	s	8	4	SIC	178	RC	1	2	23MD	1	0	0.606624126434	-47.0	-363.0	-50	-362	1
1.7	2015_Jul_23_1309	s	s	8	4	SIC	179	ABS	2	2	24VD	0	1	0.787971019745	None	None	None	None	1
1.7	2015_Jul_23_1309	s	s	8	4	SIC	180	ABS	0	1	24RO	0	1	7.20300602913	None	None	None	None	1
1.7	2015_Jul_23_1309	s	s	8	4	SIC	181	ABS	2	0	24VC	0	1	0.971390008926	None	None	None	None	1
1.7	2015_Jul_23_1309	s	s	8	4	SIC	182	ABS	1	0	24MC	0	1	4.17787909508	None	None	None	None	1
1.7	2015_Jul_23_1309	s	s	8	4	SIC	183	RC	2	0	23VC	1	0	0.60759305954	-155.0	220.0	-159	210	1
1.7	2015_Jul_23_1309	s	s	8	4	SIC	184	ABS	1	1	24MO	0	1	7.20295405388	None	None	None	None	1
1.7	2015_Jul_23_1309	s	s	8	4	SIC	185	RC	1	0	23MC	1	0	3.94251298904	-472.0	205.0	-483	205	1
1.7	2015_Jul_23_1309	s	s	8	4	SIC	186	ABS	2	1	24VO	0	1	1.22353792191	None	None	None	None	1
1.7	2015_Jul_23_1309	s	s	8	4	SIC	187	ABS	1	2	24MD	0	1	0.705637216568	None	None	None	None	1
1.7	2015_Jul_23_1309	s	s	8	4	SIC	188	ABS	0	2	24RD	0	1	0.76433300972	None	None	None	None	1
1.7	2015_Jul_23_1309	s	s	8	4	SIC	189	RC	0	1	23RO	1	0	5.51476097107	-87.0	396.0	-83	395	1
1.7	2015_Jul_23_1309	s	s	8	4	SIC	190	RC	2	1	23VO	1	0	1.14105200768	520.0	-140.0	522	-136	1
1.7	2015_Jul_23_1309	s	s	8	4	SIC	191	RC	0	2	23RD	1	0	0.583155155182	31.0	218.0	38	219	1
1.7	2015_Jul_23_1309	s	s	8	4	SIC	192	RC	2	2	23VD	1	0	0.54093003273	149.0	-104.0	147	-107	1
1.7	2015_Jul_23_1309	s	s	8	4	SIC	193	ABS	1	2	24MD	0	1	0.882088899612	None	None	None	None	1
1.7	2015_Jul_23_1309	s	s	8	4	SIC	194	RC	2	1	23VO	1	0	0.547559022903	-317.0	116.0	-324	113	1
1.7	2015_Jul_23_1309	s	s	8	4	SIC	195	ABS	2	0	24VC	0	1	0.799782037735	None	None	None	None	1
1.7	2015_Jul_23_1309	s	s	8	4	SIC	196	ABS	1	1	24MO	0	1	6.97931218147	None	None	None	None	1
1.7	2015_Jul_23_1309	s	s	8	4	SIC	197	RC	1	0	23MC	1	0	4.64367580414	-34.0	-74.0	-30	-78	1
1.7	2015_Jul_23_1309	s	s	8	4	SIC	198	ABS	0	1	24RO	0	1	7.33250498772	None	None	None	None	1
1.7	2015_Jul_23_1309	s	s	8	4	SIC	199	RC	1	2	23MD	1	0	1.17293691635	360.0	-199.0	358	-195	1
1.7	2015_Jul_23_1309	s	s	8	4	SIC	200	ABS	0	2	24RD	0	1	0.988393068314	None	None	None	None	1
1.7	2015_Jul_23_1309	s	s	8	4	SIC	201	ABS	2	2	24VD	0	1	0.631704092026	None	None	None	None	1
1.7	2015_Jul_23_1309	s	s	8	4	SIC	202	RC	0	1	23RO	1	0	6.00256299973	13.0	310.0	10	314	1
1.7	2015_Jul_23_1309	s	s	8	4	SIC	203	RC	0	2	23RD	1	0	1.23024392128	207.0	-349.0	203	-349	1
1.7	2015_Jul_23_1309	s	s	8	4	SIC	204	RC	1	1	23MO	1	0	1.46725702286	-404.0	16.0	-402	15	1
1.7	2015_Jul_23_1309	s	s	8	4	SIC	205	RC	2	0	23VC	1	0	0.781940937042	-54.0	400.0	-53	394	1
1.7	2015_Jul_23_1309	s	s	8	4	SIC	206	ABS	1	0	24MC	0	1	6.49664115906	None	None	None	None	1
1.7	2015_Jul_23_1309	s	s	8	4	SIC	207	RC	2	2	23VD	1	0	0.853688001633	69.0	194.0	61	192	1
1.7	2015_Jul_23_1309	s	s	8	4	SIC	208	ABS	2	1	24VO	0	1	0.905648946762	None	None	None	None	1
1.7	2015_Jul_23_1309	s	s	8	4	SIC	209	ABS	2	1	24VO	0	1	0.912486076355	None	None	None	None	1
1.7	2015_Jul_23_1309	s	s	8	4	SIC	210	ABS	1	1	24MO	0	1	6.93929195404	None	None	None	None	1
1.7	2015_Jul_23_1309	s	s	8	4	SIC	211	ABS	0	2	24RD	0	1	0.740864992142	None	None	None	None	1
1.7	2015_Jul_23_1309	s	s	8	4	SIC	212	ABS	0	1	24RO	0	1	6.96751284599	None	None	None	None	1
1.7	2015_Jul_23_1309	s	s	8	4	SIC	213	RC	2	2	23VD	1	0	0.830489873886	350.0	-236.0	355	-238	1
1.7	2015_Jul_23_1309	s	s	8	4	SIC	214	RC	2	1	23VO	1	0	0.679064035416	-68.0	192.0	-65	196	1
1.7	2015_Jul_23_1309	s	s	8	4	SIC	215	RC	1	0	23MC	1	0	2.66605901718	-434.0	-174.0	-437	-184	1
1.7	2015_Jul_23_1309	s	s	8	4	SIC	216	ABS	1	2	24MD	0	1	0.788014173508	None	None	None	None	1
1.7	2015_Jul_23_1309	s	s	8	4	SIC	217	RC	2	0	23VC	1	0	0.632664203644	-48.0	169.0	-48	165	1
1.7	2015_Jul_23_1309	s	s	8	4	SIC	218	RC	0	1	23RO	0	1	6.17887711525	343.0	-367.0	None	None	0
1.7	2015_Jul_23_1309	s	s	8	4	SIC	219	ABS	2	0	24VC	0	1	0.702388048172	None	None	None	None	1
1.7	2015_Jul_23_1309	s	s	8	4	SIC	220	ABS	2	2	24VD	0	1	0.717314958572	None	None	None	None	1
1.7	2015_Jul_23_1309	s	s	8	4	SIC	221	RC	0	2	23RD	1	0	0.842159032822	431.0	129.0	430	133	1
1.7	2015_Jul_23_1309	s	s	8	4	SIC	222	ABS	1	0	24MC	0	1	3.56570291519	None	None	None	None	1
1.7	2015_Jul_23_1309	s	s	8	4	SIC	223	RC	1	2	23MD	1	0	1.03147602081	-5.0	310.0	-2	313	1
1.7	2015_Jul_23_1309	s	s	8	4	SIC	224	RC	1	1	23MO	1	0	0.95898604393	-154.0	187.0	-153	186	1
1.7	2015_Jul_23_1309	s	s	8	4	SIC	225	ABS	0	2	24RD	0	1	0.717370986938	None	None	None	None	1
1.7	2015_Jul_23_1309	s	s	8	4	SIC	226	ABS	2	1	24VO	0	1	0.667474031448	None	None	None	None	1
1.7	2015_Jul_23_1309	s	s	8	4	SIC	227	RC	0	1	23RO	1	0	6.47989106178	185.0	-112.0	181	-114	1
1.7	2015_Jul_23_1309	s	s	8	4	SIC	228	ABS	1	1	24MO	0	1	5.93176007271	None	None	None	None	1
1.7	2015_Jul_23_1309	s	s	8	4	SIC	229	RC	2	1	23VO	1	0	0.653558969498	-236.0	95.0	-243	92	1
1.7	2015_Jul_23_1309	s	s	8	4	SIC	230	ABS	0	1	24RO	0	1	7.14409303665	None	None	None	None	1
1.7	2015_Jul_23_1309	s	s	8	4	SIC	231	ABS	1	2	24MD	0	1	1.78855705261	None	None	None	None	1
1.7	2015_Jul_23_1309	s	s	8	4	SIC	232	ABS	2	2	24VD	0	1	0.809465885162	None	None	None	None	1
1.7	2015_Jul_23_1309	s	s	8	4	SIC	233	RC	2	0	23VC	1	0	0.752707004547	-173.0	288.0	-167	294	1
1.7	2015_Jul_23_1309	s	s	8	4	SIC	234	RC	1	0	23MC	1	0	2.09003520012	232.0	206.0	242	213	1
1.7	2015_Jul_23_1309	s	s	8	4	SIC	235	ABS	1	0	24MC	0	1	5.76740098	None	None	None	None	1
1.7	2015_Jul_23_1309	s	s	8	4	SIC	236	RC	1	1	23MO	1	0	0.804641962051	289.0	383.0	290	389	1
1.7	2015_Jul_23_1309	s	s	8	4	SIC	237	RC	2	2	23VD	1	0	0.759533882141	-460.0	-220.0	-465	-213	1
1.7	2015_Jul_23_1309	s	s	8	4	SIC	238	RC	0	2	23RD	1	0	0.55997300148	14.0	-131.0	17	-131	1
1.7	2015_Jul_23_1309	s	s	8	4	SIC	239	RC	1	2	23MD	1	0	0.658503055573	-283.0	308.0	-281	298	1
1.7	2015_Jul_23_1309	s	s	8	4	SIC	240	ABS	2	0	24VC	0	1	0.855392932892	None	None	None	None	1
1.7	2015_Jul_23_1309	s	s	8	4	SIC	241	ABS	1	1	24MO	0	1	6.5760178566	None	None	None	None	1
1.7	2015_Jul_23_1309	s	s	8	4	SIC	242	ABS	0	2	24RD	0	1	0.984749078751	None	None	None	None	1
1.7	2015_Jul_23_1309	s	s	8	4	SIC	243	RC	0	1	23RO	1	0	2.72490906715	-311.0	-59.0	-309	-61	1
1.7	2015_Jul_23_1309	s	s	8	4	SIC	244	RC	1	0	23MC	1	0	8.50428318977	278.0	-204.0	275	-202	1
1.7	2015_Jul_23_1309	s	s	8	4	SIC	245	RC	2	2	23VD	1	0	0.882103919983	504.0	-381.0	505	-382	1
1.7	2015_Jul_23_1309	s	s	8	4	SIC	246	RC	0	2	23RD	1	0	0.587846040726	276.0	19.0	272	16	1
1.7	2015_Jul_23_1309	s	s	8	4	SIC	247	ABS	1	2	24MD	0	1	0.882183790207	None	None	None	None	1
1.7	2015_Jul_23_1309	s	s	8	4	SIC	248	ABS	2	1	24VO	0	1	0.735940933228	None	None	None	None	1
1.7	2015_Jul_23_1309	s	s	8	4	SIC	249	ABS	2	2	24VD	0	1	0.713953971863	None	None	None	None	1
1.7	2015_Jul_23_1309	s	s	8	4	SIC	250	ABS	0	1	24RO	0	1	6.80940890312	None	None	None	None	1
1.7	2015_Jul_23_1309	s	s	8	4	SIC	251	ABS	1	0	24MC	0	1	4.67928004265	None	None	None	None	1
1.7	2015_Jul_23_1309	s	s	8	4	SIC	252	RC	1	1	23MO	1	0	1.11754393578	-227.0	-132.0	-231	-127	1
1.7	2015_Jul_23_1309	s	s	8	4	SIC	253	RC	1	2	23MD	1	0	0.611450910568	185.0	119.0	180	121	1
1.7	2015_Jul_23_1309	s	s	8	4	SIC	254	ABS	2	0	24VC	0	1	0.771117925644	None	None	None	None	1
1.7	2015_Jul_23_1309	s	s	8	4	SIC	255	RC	2	0	23VC	1	0	0.693827867508	208.0	-392.0	207	-391	1
1.7	2015_Jul_23_1309	s	s	8	4	SIC	256	RC	2	1	23VO	1	0	0.594732046127	-507.0	288.0	-512	292	1
1.7	2015_Jul_23_1309	s	s	8	4	SIC	257	ABS	1	0	24MC	0	1	7.20287513733	None	None	None	None	1
1.7	2015_Jul_23_1309	s	s	8	4	SIC	258	RC	1	2	23MD	1	0	0.644142150879	-315.0	-345.0	-325	-343	1
1.7	2015_Jul_23_1309	s	s	8	4	SIC	259	ABS	0	1	24RO	0	1	7.97977900505	None	None	None	None	1
1.7	2015_Jul_23_1309	s	s	8	4	SIC	260	RC	1	0	23MC	1	0	4.31415700912	-390.0	-276.0	-383	-280	1
1.7	2015_Jul_23_1309	s	s	8	4	SIC	261	RC	1	1	23MO	1	0	0.829748153687	75.0	-72.0	79	-70	1
1.7	2015_Jul_23_1309	s	s	8	4	SIC	262	RC	0	1	23RO	1	0	6.14363789558	477.0	140.0	485	146	1
1.7	2015_Jul_23_1309	s	s	8	4	SIC	263	RC	0	2	23RD	1	0	0.688759088516	219.0	-331.0	216	-328	1
1.7	2015_Jul_23_1309	s	s	8	4	SIC	264	ABS	2	0	24VC	0	1	0.811542987823	None	None	None	None	1
1.7	2015_Jul_23_1309	s	s	8	4	SIC	265	RC	2	2	23VD	1	0	1.0174279213	181.0	34.0	185	35	1
1.7	2015_Jul_23_1309	s	s	8	4	SIC	266	ABS	2	1	24VO	0	1	0.96452498436	None	None	None	None	1
1.7	2015_Jul_23_1309	s	s	8	4	SIC	267	RC	2	0	23VC	1	0	0.658553123474	56.0	-142.0	65	-141	1
1.7	2015_Jul_23_1309	s	s	8	4	SIC	268	ABS	0	2	24RD	0	1	1.21836209297	None	None	None	None	1
1.7	2015_Jul_23_1309	s	s	8	4	SIC	269	ABS	2	2	24VD	0	1	0.641640901566	None	None	None	None	1
1.7	2015_Jul_23_1309	s	s	8	4	SIC	270	ABS	1	1	24MO	0	1	6.86157202721	None	None	None	None	1
1.7	2015_Jul_23_1309	s	s	8	4	SIC	271	RC	2	1	23VO	1	0	0.77129983902	329.0	298.0	329	303	1
1.7	2015_Jul_23_1309	s	s	8	4	SIC	272	ABS	1	2	24MD	0	1	0.865573883057	None	None	None	None	1
1.7	2015_Jul_23_1309	s	s	8	4	SIC	273	ABS	1	1	24MO	0	1	6.55074906349	None	None	None	None	1
1.7	2015_Jul_23_1309	s	s	8	4	SIC	274	RC	2	2	23VD	1	0	0.711625814438	-294.0	31.0	-297	31	1
1.7	2015_Jul_23_1309	s	s	8	4	SIC	275	ABS	2	0	24VC	0	1	1.09405517578	None	None	None	None	1
1.7	2015_Jul_23_1309	s	s	8	4	SIC	276	RC	1	0	23MC	1	0	4.33745312691	-68.0	-142.0	-73	-150	1
1.7	2015_Jul_23_1309	s	s	8	4	SIC	277	RC	0	2	23RD	1	0	0.752645969391	-64.0	-98.0	-60	-103	1
1.7	2015_Jul_23_1309	s	s	8	4	SIC	278	RC	1	1	23MO	1	0	1.60939407349	-351.0	192.0	-352	190	1
1.7	2015_Jul_23_1309	s	s	8	4	SIC	279	ABS	2	1	24VO	0	1	1.36487603188	None	None	None	None	1
1.7	2015_Jul_23_1309	s	s	8	4	SIC	280	ABS	0	2	24RD	0	1	0.729110956192	None	None	None	None	1
1.7	2015_Jul_23_1309	s	s	8	4	SIC	281	ABS	2	2	24VD	0	1	0.650485992432	None	None	None	None	1
1.7	2015_Jul_23_1309	s	s	8	4	SIC	282	RC	1	2	23MD	1	0	0.717411994934	425.0	-194.0	429	-200	1
1.7	2015_Jul_23_1309	s	s	8	4	SIC	283	RC	2	0	23VC	1	0	0.634989023209	29.0	293.0	28	297	1
1.7	2015_Jul_23_1309	s	s	8	4	SIC	284	ABS	0	1	24RO	0	1	7.39123916626	None	None	None	None	1
1.7	2015_Jul_23_1309	s	s	8	4	SIC	285	RC	0	1	23RO	1	0	1.61182403564	-414.0	-30.0	-416	-33	1
1.7	2015_Jul_23_1309	s	s	8	4	SIC	286	RC	2	1	23VO	1	0	0.559429883957	-193.0	-192.0	-196	-201	1
1.7	2015_Jul_23_1309	s	s	8	4	SIC	287	ABS	1	2	24MD	0	1	0.823248147964	None	None	None	None	1
1.7	2015_Jul_23_1309	s	s	8	4	SIC	288	ABS	1	0	24MC	0	1	7.56277394295	None	None	None	None	1
1.7	2015_Jul_23_1309	s	s	8	4	SIC	289	ABS	0	1	24RO	0	1	8.43880295753	None	None	None	None	1
1.7	2015_Jul_23_1309	s	s	8	4	SIC	290	ABS	2	1	24VO	0	1	0.843331813812	None	None	None	None	1
1.7	2015_Jul_23_1309	s	s	8	4	SIC	291	RC	1	1	23MO	1	0	1.57173490524	-144.0	179.0	-148	173	1
1.7	2015_Jul_23_1309	s	s	8	4	SIC	292	RC	1	0	23MC	1	0	1.85669898987	-142.0	321.0	-149	320	1
1.7	2015_Jul_23_1309	s	s	8	4	SIC	293	RC	0	1	23RO	0	1	5.59693408012	440.0	341.0	None	None	0
1.7	2015_Jul_23_1309	s	s	8	4	SIC	294	RC	2	2	23VD	1	0	0.587917089462	-159.0	275.0	-157	277	1
1.7	2015_Jul_23_1309	s	s	8	4	SIC	295	RC	2	1	23VO	1	0	0.644449949265	457.0	241.0	457	245	1
1.7	2015_Jul_23_1309	s	s	8	4	SIC	296	ABS	1	2	24MD	0	1	0.959836959839	None	None	None	None	1
1.7	2015_Jul_23_1309	s	s	8	4	SIC	297	RC	1	2	23MD	1	0	0.619317054749	-119.0	-13.0	-125	-17	1
1.7	2015_Jul_23_1309	s	s	8	4	SIC	298	RC	2	0	23VC	1	0	0.540766000748	343.0	-183.0	339	-187	1
1.7	2015_Jul_23_1309	s	s	8	4	SIC	299	ABS	1	1	24MO	0	1	5.99055314064	None	None	None	None	1
1.7	2015_Jul_23_1309	s	s	8	4	SIC	300	ABS	0	2	24RD	0	1	0.926028966904	None	None	None	None	1
1.7	2015_Jul_23_1309	s	s	8	4	SIC	301	ABS	1	0	24MC	0	1	5.68941497803	None	None	None	None	1
1.7	2015_Jul_23_1309	s	s	8	4	SIC	302	ABS	2	0	24VC	0	1	1.30586409569	None	None	None	None	1
1.7	2015_Jul_23_1309	s	s	8	4	SIC	303	RC	0	2	23RD	1	0	0.629998207092	-36.0	-9.0	-44	-5	1
1.7	2015_Jul_23_1309	s	s	8	4	SIC	304	ABS	2	2	24VD	0	1	0.806597948074	None	None	None	None	1
1.7	2015_Jul_23_1309	s	s	8	4	SIC	305	ABS	2	2	24VD	0	1	0.5407538414	None	None	None	None	1
1.7	2015_Jul_23_1309	s	s	8	4	SIC	306	RC	0	1	23RO	1	0	1.31223988533	-106.0	-97.0	-102	-98	1
1.7	2015_Jul_23_1309	s	s	8	4	SIC	307	ABS	2	1	24VO	0	1	0.75936794281	None	None	None	None	1
1.7	2015_Jul_23_1309	s	s	8	4	SIC	308	RC	1	0	23MC	1	0	17.3411860466	-315.0	-65.0	-321	-61	1
1.7	2015_Jul_23_1309	s	s	8	4	SIC	309	ABS	1	2	24MD	0	1	0.64342713356	None	None	None	None	1
1.7	2015_Jul_23_1309	s	s	8	4	SIC	310	ABS	0	2	24RD	0	1	0.900573015213	None	None	None	None	1
1.7	2015_Jul_23_1309	s	s	8	4	SIC	311	RC	2	1	23VO	1	0	0.835305929184	272.0	-206.0	272	-205	1
1.7	2015_Jul_23_1309	s	s	8	4	SIC	312	ABS	1	0	24MC	0	1	6.53879308701	None	None	None	None	1
1.7	2015_Jul_23_1309	s	s	8	4	SIC	313	RC	0	2	23RD	1	0	0.976330041885	309.0	193.0	302	200	1
1.7	2015_Jul_23_1309	s	s	8	4	SIC	314	RC	2	0	23VC	1	0	0.596876859665	83.0	66.0	83	72	1
1.7	2015_Jul_23_1309	s	s	8	4	SIC	315	RC	1	1	23MO	1	0	5.96700310707	-526.0	-385.0	-524	-385	1
1.7	2015_Jul_23_1309	s	s	8	4	SIC	316	ABS	1	1	24MO	0	1	5.94349908829	None	None	None	None	1
1.7	2015_Jul_23_1309	s	s	8	4	SIC	317	ABS	2	0	24VC	0	1	0.693770885468	None	None	None	None	1
1.7	2015_Jul_23_1309	s	s	8	4	SIC	318	RC	2	2	23VD	1	0	0.681898117065	-4.0	76.0	1	82	1
1.7	2015_Jul_23_1309	s	s	8	4	SIC	319	RC	1	2	23MD	1	0	0.620095014572	-31.0	111.0	-31	105	1
1.7	2015_Jul_23_1309	s	s	8	4	SIC	320	ABS	0	1	24RO	0	1	6.98607492447	None	None	None	None	1
1.7	2015_Jul_23_1309	s	s	8	4	SIC	321	RC	1	0	23MC	1	0	5.59710121155	-4.0	115.0	3	121	1
1.7	2015_Jul_23_1309	s	s	8	4	SIC	322	RC	2	1	23VO	1	0	0.641602039337	-283.0	386.0	-285	393	1
1.7	2015_Jul_23_1309	s	s	8	4	SIC	323	ABS	2	1	24VO	0	1	1.12929201126	None	None	None	None	1
1.7	2015_Jul_23_1309	s	s	8	4	SIC	324	ABS	0	2	24RD	0	1	1.52424407005	None	None	None	None	1
1.7	2015_Jul_23_1309	s	s	8	4	SIC	325	ABS	0	1	24RO	0	1	7.15604305267	None	None	None	None	1
1.7	2015_Jul_23_1309	s	s	8	4	SIC	326	ABS	1	0	24MC	0	1	4.46722006798	None	None	None	None	1
1.7	2015_Jul_23_1309	s	s	8	4	SIC	327	ABS	1	1	24MO	0	1	7.04712414742	None	None	None	None	1
1.7	2015_Jul_23_1309	s	s	8	4	SIC	328	ABS	1	2	24MD	0	1	1.22713184357	None	None	None	None	1
1.7	2015_Jul_23_1309	s	s	8	4	SIC	329	RC	2	2	23VD	1	0	0.929276943207	483.0	277.0	495	282	1
1.7	2015_Jul_23_1309	s	s	8	4	SIC	330	ABS	2	2	24VD	0	1	0.818471193314	None	None	None	None	1
1.7	2015_Jul_23_1309	s	s	8	4	SIC	331	RC	0	2	23RD	1	0	0.682019948959	-78.0	-157.0	-78	-158	1
1.7	2015_Jul_23_1309	s	s	8	4	SIC	332	RC	0	1	23RO	1	0	1.31305909157	306.0	6.0	308	6	1
1.7	2015_Jul_23_1309	s	s	8	4	SIC	333	RC	1	2	23MD	1	0	0.559502124786	-162.0	-28.0	-162	-28	1
1.7	2015_Jul_23_1309	s	s	8	4	SIC	334	RC	1	1	23MO	1	0	0.936083078384	97.0	-102.0	96	-103	1
1.7	2015_Jul_23_1309	s	s	8	4	SIC	335	ABS	2	0	24VC	0	1	0.749069929123	None	None	None	None	1
1.7	2015_Jul_23_1309	s	s	8	4	SIC	336	RC	2	0	23VC	1	0	0.796267986298	389.0	-249.0	395	-249	1
1.7	2015_Jul_23_1309	s	s	8	4	SIC	337	ABS	2	0	24VC	0	1	0.630331039429	None	None	None	None	1
1.7	2015_Jul_23_1309	s	s	8	4	SIC	338	RC	1	2	23MD	1	0	0.605814933777	-196.0	382.0	-195	384	1
1.7	2015_Jul_23_1309	s	s	8	4	SIC	339	ABS	0	1	24RO	0	1	7.72458100319	None	None	None	None	1
1.7	2015_Jul_23_1309	s	s	8	4	SIC	340	RC	2	1	23VO	1	0	0.588095188141	184.0	-96.0	185	-98	1
1.7	2015_Jul_23_1309	s	s	8	4	SIC	341	RC	0	1	23RO	1	0	3.22487401962	-177.0	44.0	-187	51	1
1.7	2015_Jul_23_1309	s	s	8	4	SIC	342	RC	0	2	23RD	1	0	0.599651098251	-370.0	36.0	-371	32	1
1.7	2015_Jul_23_1309	s	s	8	4	SIC	343	ABS	2	2	24VD	0	1	0.717797994614	None	None	None	None	1
1.7	2015_Jul_23_1309	s	s	8	4	SIC	344	ABS	2	1	24VO	0	1	0.693814992905	None	None	None	None	1
1.7	2015_Jul_23_1309	s	s	8	4	SIC	345	ABS	1	1	24MO	0	1	4.86061811447	None	None	None	None	1
1.7	2015_Jul_23_1309	s	s	8	4	SIC	346	RC	2	2	23VD	1	0	0.564413070679	286.0	15.0	284	20	1
1.7	2015_Jul_23_1309	s	s	8	4	SIC	347	ABS	0	2	24RD	0	1	1.41693997383	None	None	None	None	1
1.7	2015_Jul_23_1309	s	s	8	4	SIC	348	RC	1	0	23MC	1	0	4.24522304535	-36.0	-352.0	-44	-350	1
1.7	2015_Jul_23_1309	s	s	8	4	SIC	349	ABS	1	0	24MC	0	1	3.25493097305	None	None	None	None	1
1.7	2015_Jul_23_1309	s	s	8	4	SIC	350	RC	1	1	23MO	1	0	2.24266815186	-66.0	-299.0	-71	-303	1
1.7	2015_Jul_23_1309	s	s	8	4	SIC	351	ABS	1	2	24MD	0	1	0.709279060364	None	None	None	None	1
1.7	2015_Jul_23_1309	s	s	8	4	SIC	352	RC	2	0	23VC	1	0	0.823755979538	-338.0	134.0	-332	142	1
1.7	2015_Jul_23_1309	s	s	8	4	SIC	353	RC	2	0	23VC	1	0	0.912202119827	248.0	204.0	241	208	1
1.7	2015_Jul_23_1309	s	s	8	4	SIC	354	ABS	0	2	24RD	0	1	1.23016500473	None	None	None	None	1
1.7	2015_Jul_23_1309	s	s	8	4	SIC	355	RC	1	0	23MC	1	0	2.10627985001	221.0	248.0	215	254	1
1.7	2015_Jul_23_1309	s	s	8	4	SIC	356	RC	2	2	23VD	1	0	0.594447135925	384.0	404.0	385	409	1
1.7	2015_Jul_23_1309	s	s	8	4	SIC	357	ABS	1	2	24MD	0	1	0.735271930695	None	None	None	None	1
1.7	2015_Jul_23_1309	s	s	8	4	SIC	358	ABS	2	1	24VO	0	1	0.776110172272	None	None	None	None	1
1.7	2015_Jul_23_1309	s	s	8	4	SIC	359	RC	1	1	23MO	1	0	1.41177415848	324.0	-64.0	327	-61	1
1.7	2015_Jul_23_1309	s	s	8	4	SIC	360	ABS	1	0	24MC	0	1	5.4348320961	None	None	None	None	1
1.7	2015_Jul_23_1309	s	s	8	4	SIC	361	ABS	2	0	24VC	0	1	1.1646399498	None	None	None	None	1
1.7	2015_Jul_23_1309	s	s	8	4	SIC	362	ABS	2	2	24VD	0	1	0.556735038757	None	None	None	None	1
1.7	2015_Jul_23_1309	s	s	8	4	SIC	363	RC	2	1	23VO	1	0	0.758899211884	-196.0	-283.0	-192	-277	1
1.7	2015_Jul_23_1309	s	s	8	4	SIC	364	RC	0	1	23RO	1	0	4.77006816864	-370.0	-244.0	-374	-244	1
1.7	2015_Jul_23_1309	s	s	8	4	SIC	365	RC	1	2	23MD	1	0	0.705606222153	-45.0	-158.0	-53	-155	1
1.7	2015_Jul_23_1309	s	s	8	4	SIC	366	ABS	0	1	24RO	0	1	6.74376893044	None	None	None	None	1
1.7	2015_Jul_23_1309	s	s	8	4	SIC	367	RC	0	2	23RD	1	0	0.658658981323	191.0	308.0	191	302	1
1.7	2015_Jul_23_1309	s	s	8	4	SIC	368	ABS	1	1	24MO	0	1	6.09144616127	None	None	None	None	1
1.7	2015_Jul_23_1309	s	s	8	4	SIC	369	RC	1	1	23MO	1	0	2.01199412346	-173.0	-362.0	-172	-362	1
1.7	2015_Jul_23_1309	s	s	8	4	SIC	370	RC	1	2	23MD	1	0	0.599699020386	-31.0	-130.0	-29	-127	1
1.7	2015_Jul_23_1309	s	s	8	4	SIC	371	RC	2	2	23VD	1	0	0.488662958145	312.0	321.0	318	324	1
1.7	2015_Jul_23_1309	s	s	8	4	SIC	372	ABS	0	2	24RD	0	1	2.02385115623	None	None	None	None	1
1.7	2015_Jul_23_1309	s	s	8	4	SIC	373	RC	2	0	23VC	1	0	0.489856004715	-32.0	-174.0	-22	-174	1
1.7	2015_Jul_23_1309	s	s	8	4	SIC	374	RC	2	1	23VO	1	0	0.658367872238	259.0	263.0	259	264	1
1.7	2015_Jul_23_1309	s	s	8	4	SIC	375	RC	0	2	23RD	1	0	0.529070854187	-470.0	247.0	-471	251	1
1.7	2015_Jul_23_1309	s	s	8	4	SIC	376	ABS	1	2	24MD	0	1	0.893908977509	None	None	None	None	1
1.7	2015_Jul_23_1309	s	s	8	4	SIC	377	ABS	1	1	24MO	0	1	7.49229001999	None	None	None	None	1
1.7	2015_Jul_23_1309	s	s	8	4	SIC	378	ABS	1	0	24MC	0	1	4.75913310051	None	None	None	None	1
1.7	2015_Jul_23_1309	s	s	8	4	SIC	379	ABS	0	1	24RO	0	1	9.15190696716	None	None	None	None	1
1.7	2015_Jul_23_1309	s	s	8	4	SIC	380	ABS	2	2	24VD	0	1	0.854038953781	None	None	None	None	1
1.7	2015_Jul_23_1309	s	s	8	4	SIC	381	RC	0	1	23RO	1	0	1.21171879768	29.0	254.0	27	261	1
1.7	2015_Jul_23_1309	s	s	8	4	SIC	382	RC	1	0	23MC	1	0	3.05475306511	-502.0	-285.0	-497	-282	1
1.7	2015_Jul_23_1309	s	s	8	4	SIC	383	ABS	2	1	24VO	0	1	0.764398097992	None	None	None	None	1
1.7	2015_Jul_23_1309	s	s	8	4	SIC	384	ABS	2	0	24VC	0	1	0.771338224411	None	None	None	None	1
1.7	2015_Jul_23_1309	s	s	8	4	SIC	385	RC	1	1	23MO	1	0	1.1129720211	-485.0	181.0	-487	181	1
1.7	2015_Jul_23_1309	s	s	8	4	SIC	386	RC	1	0	23MC	0	1	11.6285438538	346.0	-120.0	None	None	0
1.7	2015_Jul_23_1309	s	s	8	4	SIC	387	ABS	0	1	24RO	0	1	7.53253912926	None	None	None	None	1
1.7	2015_Jul_23_1309	s	s	8	4	SIC	388	RC	2	0	23VC	1	0	0.634975194931	324.0	-5.0	331	1	1
1.7	2015_Jul_23_1309	s	s	8	4	SIC	389	ABS	2	0	24VC	0	1	0.744860172272	None	None	None	None	1
1.7	2015_Jul_23_1309	s	s	8	4	SIC	390	ABS	1	0	24MC	0	1	5.06067991257	None	None	None	None	1
1.7	2015_Jul_23_1309	s	s	8	4	SIC	391	ABS	1	1	24MO	0	1	6.22601294518	None	None	None	None	1
1.7	2015_Jul_23_1309	s	s	8	4	SIC	392	RC	2	1	23VO	1	0	0.771483182907	-451.0	-53.0	-451	-49	1
1.7	2015_Jul_23_1309	s	s	8	4	SIC	393	ABS	2	2	24VD	0	1	0.912024021149	None	None	None	None	1
1.7	2015_Jul_23_1309	s	s	8	4	SIC	394	ABS	0	2	24RD	0	1	3.05476593971	None	None	None	None	1
1.7	2015_Jul_23_1309	s	s	8	4	SIC	395	RC	0	1	23RO	1	0	2.32523703575	-13.0	-389.0	-13	-387	1
1.7	2015_Jul_23_1309	s	s	8	4	SIC	396	ABS	2	1	24VO	0	1	0.740969896317	None	None	None	None	1
1.7	2015_Jul_23_1309	s	s	8	4	SIC	397	RC	1	2	23MD	1	0	0.74092912674	-104.0	269.0	-102	276	1
1.7	2015_Jul_23_1309	s	s	8	4	SIC	398	RC	2	2	23VD	1	0	0.799697875977	160.0	-290.0	161	-295	1
1.7	2015_Jul_23_1309	s	s	8	4	SIC	399	RC	0	2	23RD	1	0	0.564383029938	163.0	-334.0	156	-337	1
1.7	2015_Jul_23_1309	s	s	8	4	SIC	400	ABS	1	2	24MD	0	1	1.4211769104	None	None	None	None	1
1.7	2015_Jul_23_1309	s	s	8	4	SIC	401	RC	2	0	23VC	1	0	0.51388001442	-273.0	72.0	-275	69	1
1.7	2015_Jul_23_1309	s	s	8	4	SIC	402	ABS	2	0	24VC	0	1	1.48950695992	None	None	None	None	1
1.7	2015_Jul_23_1309	s	s	8	4	SIC	403	ABS	2	1	24VO	0	1	0.6884329319	None	None	None	None	1
1.7	2015_Jul_23_1309	s	s	8	4	SIC	404	RC	2	2	23VD	1	0	0.646638870239	384.0	-50.0	382	-48	1
1.7	2015_Jul_23_1309	s	s	8	4	SIC	405	RC	1	1	23MO	1	0	2.68303513527	486.0	162.0	488	166	1
1.7	2015_Jul_23_1309	s	s	8	4	SIC	406	RC	0	1	23RO	1	0	1.48241710663	18.0	410.0	18	416	1
1.7	2015_Jul_23_1309	s	s	8	4	SIC	407	RC	1	2	23MD	1	0	0.587867975235	-61.0	0.0	-58	-2	1
1.7	2015_Jul_23_1309	s	s	8	4	SIC	408	RC	0	2	23RD	1	0	0.835100889206	528.0	-204.0	532	-204	1
1.7	2015_Jul_23_1309	s	s	8	4	SIC	409	ABS	1	1	24MO	0	1	7.2332201004	None	None	None	None	1
1.7	2015_Jul_23_1309	s	s	8	4	SIC	410	RC	2	1	23VO	1	0	0.540786027908	224.0	-40.0	219	-38	1
1.7	2015_Jul_23_1309	s	s	8	4	SIC	411	ABS	0	1	24RO	0	1	6.29662013054	None	None	None	None	1
1.7	2015_Jul_23_1309	s	s	8	4	SIC	412	ABS	1	0	24MC	0	1	2.2897040844	None	None	None	None	1
1.7	2015_Jul_23_1309	s	s	8	4	SIC	413	RC	1	0	23MC	1	0	3.16044998169	365.0	256.0	361	258	1
1.7	2015_Jul_23_1309	s	s	8	4	SIC	414	ABS	2	2	24VD	0	1	0.618376970291	None	None	None	None	1
1.7	2015_Jul_23_1309	s	s	8	4	SIC	415	ABS	0	2	24RD	0	1	0.717303991318	None	None	None	None	1
1.7	2015_Jul_23_1309	s	s	8	4	SIC	416	ABS	1	2	24MD	0	1	2.26471996307	None	None	None	None	1
1.7	2015_Jul_23_1309	s	s	8	4	SIC	417	ABS	0	2	24RD	0	1	3.31862998009	None	None	None	None	1
1.7	2015_Jul_23_1309	s	s	8	4	SIC	418	RC	2	2	23VD	1	0	0.858551979065	49.0	154.0	44	153	1
1.7	2015_Jul_23_1309	s	s	8	4	SIC	419	RC	0	2	23RD	1	0	0.858886957169	-285.0	-408.0	-284	-403	1
1.7	2015_Jul_23_1309	s	s	8	4	SIC	420	RC	1	0	23MC	1	0	4.47217988968	-527.0	-151.0	-524	-146	1
1.7	2015_Jul_23_1309	s	s	8	4	SIC	421	ABS	2	0	24VC	0	1	0.870336771011	None	None	None	None	1
1.7	2015_Jul_23_1309	s	s	8	4	SIC	422	ABS	1	0	24MC	0	1	5.83761000633	None	None	None	None	1
1.7	2015_Jul_23_1309	s	s	8	4	SIC	423	ABS	2	1	24VO	0	1	0.705672979355	None	None	None	None	1
1.7	2015_Jul_23_1309	s	s	8	4	SIC	424	RC	1	1	23MO	1	0	1.10582113266	-88.0	216.0	-88	210	1
1.7	2015_Jul_23_1309	s	s	8	4	SIC	425	ABS	0	1	24RO	0	1	5.65616202354	None	None	None	None	1
1.7	2015_Jul_23_1309	s	s	8	4	SIC	426	ABS	1	1	24MO	0	1	5.78559303284	None	None	None	None	1
1.7	2015_Jul_23_1309	s	s	8	4	SIC	427	ABS	2	2	24VD	0	1	0.646702051163	None	None	None	None	1
1.7	2015_Jul_23_1309	s	s	8	4	SIC	428	ABS	1	2	24MD	0	1	2.03058505058	None	None	None	None	1
1.7	2015_Jul_23_1309	s	s	8	4	SIC	429	RC	2	0	23VC	1	0	1.12452101707	471.0	-167.0	470	-161	1
1.7	2015_Jul_23_1309	s	s	8	4	SIC	430	RC	2	1	23VO	1	0	0.606380939484	290.0	-238.0	291	-234	1
1.7	2015_Jul_23_1309	s	s	8	4	SIC	431	RC	0	1	23RO	1	0	5.96215796471	298.0	-129.0	301	-134	1
1.7	2015_Jul_23_1309	s	s	8	4	SIC	432	RC	1	2	23MD	1	0	0.606323957443	-154.0	276.0	-160	274	1
1.7	2015_Jul_23_1309	s	s	8	4	SIC	433	ABS	1	2	24MD	0	1	1.54177999496	None	None	None	None	1
1.7	2015_Jul_23_1309	s	s	8	4	SIC	434	ABS	2	1	24VO	0	1	1.38826608658	None	None	None	None	1
1.7	2015_Jul_23_1309	s	s	8	4	SIC	435	RC	2	0	23VC	1	0	0.607097148895	-176.0	321.0	-180	322	1
1.7	2015_Jul_23_1309	s	s	8	4	SIC	436	RC	0	2	23RD	1	0	0.703068971634	-169.0	-162.0	-168	-163	1
1.7	2015_Jul_23_1309	s	s	8	4	SIC	437	ABS	2	2	24VD	0	1	0.736931085587	None	None	None	None	1
1.7	2015_Jul_23_1309	s	s	8	4	SIC	438	ABS	1	1	24MO	0	1	6.77383589745	None	None	None	None	1
1.7	2015_Jul_23_1309	s	s	8	4	SIC	439	RC	2	2	23VD	1	0	0.606335163116	193.0	-139.0	199	-138	1
1.7	2015_Jul_23_1309	s	s	8	4	SIC	440	ABS	2	0	24VC	0	1	0.828742027283	None	None	None	None	1
1.7	2015_Jul_23_1309	s	s	8	4	SIC	441	ABS	0	2	24RD	0	1	2.69043493271	None	None	None	None	1
1.7	2015_Jul_23_1309	s	s	8	4	SIC	442	RC	2	1	23VO	1	0	0.595088005066	208.0	54.0	210	60	1
1.7	2015_Jul_23_1309	s	s	8	4	SIC	443	RC	0	1	23RO	1	0	1.50353097916	75.0	-117.0	69	-126	1
1.7	2015_Jul_23_1309	s	s	8	4	SIC	444	ABS	0	1	24RO	0	1	9.32851409912	None	None	None	None	1
1.7	2015_Jul_23_1309	s	s	8	4	SIC	445	ABS	1	0	24MC	0	1	6.51526904106	None	None	None	None	1
1.7	2015_Jul_23_1309	s	s	8	4	SIC	446	RC	1	0	23MC	1	0	2.83093214035	-351.0	381.0	-358	384	1
1.7	2015_Jul_23_1309	s	s	8	4	SIC	447	RC	1	2	23MD	1	0	0.711935997009	441.0	14.0	439	18	1
1.7	2015_Jul_23_1309	s	s	8	4	SIC	448	RC	1	1	23MO	1	0	5.6962928772	480.0	-400.0	476	-400	1
1.7	2015_Jul_23_1309	s	s	8	4	SIC	449	ABS	1	0	24MC	0	1	5.23722100258	None	None	None	None	1
1.7	2015_Jul_23_1309	s	s	8	4	SIC	450	ABS	0	2	24RD	0	1	1.33630895615	None	None	None	None	1
1.7	2015_Jul_23_1309	s	s	8	4	SIC	451	ABS	2	2	24VD	0	1	0.768133878708	None	None	None	None	1
1.7	2015_Jul_23_1309	s	s	8	4	SIC	452	ABS	1	2	24MD	0	1	1.38357496262	None	None	None	None	1
1.7	2015_Jul_23_1309	s	s	8	4	SIC	453	RC	1	2	23MD	1	0	0.717778205872	400.0	-38.0	394	-35	1
1.7	2015_Jul_23_1309	s	s	8	4	SIC	454	RC	1	1	23MO	1	0	1.25081896782	180.0	-150.0	184	-152	1
1.7	2015_Jul_23_1309	s	s	8	4	SIC	455	ABS	2	1	24VO	0	1	1.04197597504	None	None	None	None	1
1.7	2015_Jul_23_1309	s	s	8	4	SIC	456	RC	2	1	23VO	1	0	0.879117012024	-539.0	263.0	-532	260	1
1.7	2015_Jul_23_1309	s	s	8	4	SIC	457	RC	2	0	23VC	1	0	0.771181106567	383.0	-224.0	390	-225	1
1.7	2015_Jul_23_1309	s	s	8	4	SIC	458	ABS	2	0	24VC	0	1	1.77156090736	None	None	None	None	1
1.7	2015_Jul_23_1309	s	s	8	4	SIC	459	RC	2	2	23VD	1	0	0.552879095078	50.0	-84.0	46	-82	1
1.7	2015_Jul_23_1309	s	s	8	4	SIC	460	ABS	0	1	24RO	0	1	7.5038151741	None	None	None	None	1
1.7	2015_Jul_23_1309	s	s	8	4	SIC	461	ABS	1	1	24MO	0	1	8.74485015869	None	None	None	None	1
1.7	2015_Jul_23_1309	s	s	8	4	SIC	462	RC	1	0	23MC	1	0	1.34750008583	327.0	180.0	327	182	1
1.7	2015_Jul_23_1309	s	s	8	4	SIC	463	RC	0	1	23RO	1	0	1.21876096725	287.0	71.0	281	74	1
1.7	2015_Jul_23_1309	s	s	8	4	SIC	464	RC	0	2	23RD	1	0	0.618392944336	-344.0	-88.0	-347	-81	1
1.7	2015_Jul_23_1309	s	s	8	4	SIC	465	RC	1	0	23MC	1	0	5.52662205696	-339.0	-167.0	-349	-164	1
1.7	2015_Jul_23_1309	s	s	8	4	SIC	466	ABS	1	2	24MD	0	1	0.740886926651	None	None	None	None	1
1.7	2015_Jul_23_1309	s	s	8	4	SIC	467	ABS	1	0	24MC	0	1	3.7894859314	None	None	None	None	1
1.7	2015_Jul_23_1309	s	s	8	4	SIC	468	RC	2	1	23VO	1	0	1.01819181442	292.0	-357.0	292	-354	1
1.7	2015_Jul_23_1309	s	s	8	4	SIC	469	RC	0	1	23RO	1	0	1.07754087448	216.0	-65.0	221	-56	1
1.7	2015_Jul_23_1309	s	s	8	4	SIC	470	ABS	0	2	24RD	0	1	0.764340877533	None	None	None	None	1
1.7	2015_Jul_23_1309	s	s	8	4	SIC	471	RC	2	2	23VD	1	0	0.724303007126	246.0	-156.0	238	-150	1
1.7	2015_Jul_23_1309	s	s	8	4	SIC	472	ABS	1	1	24MO	0	1	7.04472613335	None	None	None	None	1
1.7	2015_Jul_23_1309	s	s	8	4	SIC	473	ABS	2	1	24VO	0	1	1.00669407845	None	None	None	None	1
1.7	2015_Jul_23_1309	s	s	8	4	SIC	474	ABS	0	1	24RO	0	1	9.84629297256	None	None	None	None	1
1.7	2015_Jul_23_1309	s	s	8	4	SIC	475	ABS	2	2	24VD	0	1	0.779939174652	None	None	None	None	1
1.7	2015_Jul_23_1309	s	s	8	4	SIC	476	ABS	2	0	24VC	0	1	0.665791988373	None	None	None	None	1
1.7	2015_Jul_23_1309	s	s	8	4	SIC	477	RC	1	1	23MO	1	0	1.45193195343	-537.0	-41.0	-542	-42	1
1.7	2015_Jul_23_1309	s	s	8	4	SIC	478	RC	2	0	23VC	1	0	0.611469984055	-479.0	118.0	-487	115	1
1.7	2015_Jul_23_1309	s	s	8	4	SIC	479	RC	0	2	23RD	1	0	0.852907896042	455.0	-294.0	454	-288	1
1.7	2015_Jul_23_1309	s	s	8	4	SIC	480	RC	1	2	23MD	1	0	0.512274026871	-214.0	-290.0	-216	-292	1
1.7	2015_Jul_23_1309	s	s	8	4	SIC	481	RC	2	1	23VO	1	0	0.665221214294	-81.0	-332.0	-77	-327	1
1.7	2015_Jul_23_1309	s	s	8	4	SIC	482	ABS	1	1	24MO	0	1	6.49164295197	None	None	None	None	1
1.7	2015_Jul_23_1309	s	s	8	4	SIC	483	RC	1	0	23MC	1	0	1.11788105965	-262.0	66.0	-266	67	1
1.7	2015_Jul_23_1309	s	s	8	4	SIC	484	RC	0	1	23RO	1	0	3.91396999359	-386.0	-309.0	-385	-304	1
1.7	2015_Jul_23_1309	s	s	8	4	SIC	485	RC	2	0	23VC	1	0	0.552636861801	-63.0	77.0	-57	76	1
1.7	2015_Jul_23_1309	s	s	8	4	SIC	486	RC	2	2	23VD	1	0	0.517108917236	125.0	284.0	122	287	1
1.7	2015_Jul_23_1309	s	s	8	4	SIC	487	ABS	0	2	24RD	0	1	3.57267522812	None	None	None	None	1
1.7	2015_Jul_23_1309	s	s	8	4	SIC	488	RC	1	2	23MD	1	0	0.544531106949	-21.0	155.0	-18	158	1
1.7	2015_Jul_23_1309	s	s	8	4	SIC	489	ABS	1	0	24MC	0	1	3.81976985931	None	None	None	None	1
1.7	2015_Jul_23_1309	s	s	8	4	SIC	490	RC	0	2	23RD	1	0	0.646722793579	237.0	-397.0	237	-397	1
1.7	2015_Jul_23_1309	s	s	8	4	SIC	491	ABS	0	1	24RO	0	1	10.2631590366	None	None	None	None	1
1.7	2015_Jul_23_1309	s	s	8	4	SIC	492	ABS	2	1	24VO	0	1	0.740985155106	None	None	None	None	1
1.7	2015_Jul_23_1309	s	s	8	4	SIC	493	RC	1	1	23MO	1	0	1.21173787117	269.0	190.0	264	197	1
1.7	2015_Jul_23_1309	s	s	8	4	SIC	494	ABS	1	2	24MD	0	1	0.747484922409	None	None	None	None	1
1.7	2015_Jul_23_1309	s	s	8	4	SIC	495	ABS	2	2	24VD	0	1	0.84690284729	None	None	None	None	1
1.7	2015_Jul_23_1309	s	s	8	4	SIC	496	ABS	2	0	24VC	0	1	0.729455947876	None	None	None	None	1
1.7	2015_Jul_23_1309	s	s	8	4	SIC	497	RC	1	2	23MD	1	0	0.959278106689	102.0	-375.0	97	-370	1
1.7	2015_Jul_23_1309	s	s	8	4	SIC	498	RC	1	1	23MO	1	0	0.693745136261	135.0	-173.0	130	-171	1
1.7	2015_Jul_23_1309	s	s	8	4	SIC	499	ABS	0	2	24RD	0	1	0.92923784256	None	None	None	None	1
1.7	2015_Jul_23_1309	s	s	8	4	SIC	500	ABS	0	1	24RO	0	1	8.06589818001	None	None	None	None	1
1.7	2015_Jul_23_1309	s	s	8	4	SIC	501	ABS	2	0	24VC	0	1	0.842020988464	None	None	None	None	1
1.7	2015_Jul_23_1309	s	s	8	4	SIC	502	RC	0	2	23RD	1	0	0.772986888885	-193.0	212.0	-194	211	1
1.7	2015_Jul_23_1309	s	s	8	4	SIC	503	ABS	1	1	24MO	0	1	5.06067585945	None	None	None	None	1
1.7	2015_Jul_23_1309	s	s	8	4	SIC	504	RC	1	0	23MC	1	0	6.55554008484	375.0	-215.0	376	-209	1
1.7	2015_Jul_23_1309	s	s	8	4	SIC	505	RC	0	1	23RO	1	0	5.60869908333	515.0	229.0	515	231	1
1.7	2015_Jul_23_1309	s	s	8	4	SIC	506	RC	2	1	23VO	1	0	0.572249889374	-74.0	373.0	-73	380	1
1.7	2015_Jul_23_1309	s	s	8	4	SIC	507	ABS	2	1	24VO	0	1	0.940973043442	None	None	None	None	1
1.7	2015_Jul_23_1309	s	s	8	4	SIC	508	RC	2	0	23VC	1	0	0.540807008743	-151.0	-257.0	-151	-254	1
1.7	2015_Jul_23_1309	s	s	8	4	SIC	509	ABS	2	2	24VD	0	1	0.713268995285	None	None	None	None	1
1.7	2015_Jul_23_1309	s	s	8	4	SIC	510	ABS	1	0	24MC	0	1	3.22213315964	None	None	None	None	1
1.7	2015_Jul_23_1309	s	s	8	4	SIC	511	ABS	1	2	24MD	0	1	0.611403942108	None	None	None	None	1
1.7	2015_Jul_23_1309	s	s	8	4	SIC	512	RC	2	2	23VD	1	0	0.829986095428	449.0	261.0	452	261	1
1.7	2015_Jul_23_1309	s	s	8	4	SIC	513	ABS	1	2	24MD	0	1	0.924257040024	None	None	None	None	1
1.7	2015_Jul_23_1309	s	s	8	4	SIC	514	RC	0	1	23RO	1	0	2.36897015572	10.0	363.0	15	360	1
1.7	2015_Jul_23_1309	s	s	8	4	SIC	515	ABS	0	2	24RD	0	1	1.35928106308	None	None	None	None	1
1.7	2015_Jul_23_1309	s	s	8	4	SIC	516	ABS	1	1	24MO	0	1	6.80901312828	None	None	None	None	1
1.7	2015_Jul_23_1309	s	s	8	4	SIC	517	RC	1	2	23MD	1	0	0.712441921234	-115.0	-64.0	-105	-62	1
1.7	2015_Jul_23_1309	s	s	8	4	SIC	518	ABS	2	1	24VO	0	1	0.900805950165	None	None	None	None	1
1.7	2015_Jul_23_1309	s	s	8	4	SIC	519	RC	1	0	23MC	1	0	2.57236790657	-508.0	7.0	-504	7	1
1.7	2015_Jul_23_1309	s	s	8	4	SIC	520	ABS	1	0	24MC	0	1	2.25556993484	None	None	None	None	1
1.7	2015_Jul_23_1309	s	s	8	4	SIC	521	RC	2	1	23VO	1	0	0.547865152359	-175.0	-273.0	-175	-268	1
1.7	2015_Jul_23_1309	s	s	8	4	SIC	522	RC	0	2	23RD	1	0	0.549282073975	-33.0	-68.0	-32	-63	1
1.7	2015_Jul_23_1309	s	s	8	4	SIC	523	ABS	2	0	24VC	0	1	0.841833114624	None	None	None	None	1
1.7	2015_Jul_23_1309	s	s	8	4	SIC	524	RC	1	1	23MO	1	0	4.47796392441	-532.0	-218.0	-534	-217	1
1.7	2015_Jul_23_1309	s	s	8	4	SIC	525	ABS	2	2	24VD	0	1	0.717331886292	None	None	None	None	1
1.7	2015_Jul_23_1309	s	s	8	4	SIC	526	ABS	0	1	24RO	0	1	6.81198191643	None	None	None	None	1
1.7	2015_Jul_23_1309	s	s	8	4	SIC	527	RC	2	2	23VD	1	0	0.723998069763	-5.0	311.0	-4	315	1
1.7	2015_Jul_23_1309	s	s	8	4	SIC	528	RC	2	0	23VC	1	0	0.490256786346	165.0	108.0	177	109	1
1.7	2015_Jul_23_1309	s	s	8	4	SIC	529	ABS	1	1	24MO	0	1	6.43778014183	None	None	None	None	1
1.7	2015_Jul_23_1309	s	s	8	4	SIC	530	RC	0	2	23RD	1	0	1.52630996704	-274.0	162.0	-281	162	1
1.7	2015_Jul_23_1309	s	s	8	4	SIC	531	ABS	0	2	24RD	0	1	1.49420905113	None	None	None	None	1
1.7	2015_Jul_23_1309	s	s	8	4	SIC	532	RC	2	2	23VD	1	0	0.501591920853	-356.0	360.0	-356	362	1
1.7	2015_Jul_23_1309	s	s	8	4	SIC	533	RC	1	0	23MC	1	0	7.14410305023	495.0	278.0	499	280	1
1.7	2015_Jul_23_1309	s	s	8	4	SIC	534	ABS	2	0	24VC	0	1	0.682027101517	None	None	None	None	1
1.7	2015_Jul_23_1309	s	s	8	4	SIC	535	RC	1	2	23MD	1	0	0.552603006363	413.0	117.0	409	118	1
1.7	2015_Jul_23_1309	s	s	8	4	SIC	536	ABS	1	0	24MC	0	1	1.55303001404	None	None	None	None	1
1.7	2015_Jul_23_1309	s	s	8	4	SIC	537	RC	2	0	23VC	1	0	0.570835113525	169.0	-310.0	168	-308	1
1.7	2015_Jul_23_1309	s	s	8	4	SIC	538	RC	1	1	23MO	1	0	0.995264053345	-217.0	277.0	-214	278	1
1.7	2015_Jul_23_1309	s	s	8	4	SIC	539	ABS	2	1	24VO	0	1	0.735841989517	None	None	None	None	1
1.7	2015_Jul_23_1309	s	s	8	4	SIC	540	RC	2	1	23VO	1	0	0.587868928909	51.0	358.0	53	356	1
1.7	2015_Jul_23_1309	s	s	8	4	SIC	541	ABS	2	2	24VD	0	1	0.641635894775	None	None	None	None	1
1.7	2015_Jul_23_1309	s	s	8	4	SIC	542	ABS	0	1	24RO	0	1	6.70362710953	None	None	None	None	1
1.7	2015_Jul_23_1309	s	s	8	4	SIC	543	ABS	1	2	24MD	0	1	0.996970176697	None	None	None	None	1
1.7	2015_Jul_23_1309	s	s	8	4	SIC	544	RC	0	1	23RO	1	0	7.41468405724	485.0	375.0	484	375	1
1.7	2015_Jul_23_1309	s	s	8	4	SIC	545	RC	0	1	23RO	1	0	8.1797850132	-5.0	-207.0	-5	-204	1
1.7	2015_Jul_23_1309	s	s	8	4	SIC	546	RC	0	2	23RD	1	0	0.641507863998	86.0	376.0	84	375	1
1.7	2015_Jul_23_1309	s	s	8	4	SIC	547	RC	2	2	23VD	1	0	0.458400964737	23.0	278.0	21	271	1
1.7	2015_Jul_23_1309	s	s	8	4	SIC	548	RC	2	1	23VO	1	0	0.889060020447	168.0	-322.0	162	-327	1
1.7	2015_Jul_23_1309	s	s	8	4	SIC	549	RC	1	1	23MO	1	0	1.17640900612	-435.0	131.0	-437	139	1
1.7	2015_Jul_23_1309	s	s	8	4	SIC	550	ABS	2	1	24VO	0	1	0.714083909988	None	None	None	None	1
1.7	2015_Jul_23_1309	s	s	8	4	SIC	551	ABS	2	0	24VC	0	1	0.944674968719	None	None	None	None	1
1.7	2015_Jul_23_1309	s	s	8	4	SIC	552	ABS	0	1	24RO	0	1	8.82734704018	None	None	None	None	1
1.7	2015_Jul_23_1309	s	s	8	4	SIC	553	RC	1	2	23MD	1	0	0.662209033966	-261.0	-263.0	-259	-264	1
1.7	2015_Jul_23_1309	s	s	8	4	SIC	554	RC	2	0	23VC	1	0	0.606544017792	409.0	-241.0	412	-237	1
1.7	2015_Jul_23_1309	s	s	8	4	SIC	555	ABS	1	2	24MD	0	1	1.14759397507	None	None	None	None	1
1.7	2015_Jul_23_1309	s	s	8	4	SIC	556	RC	1	0	23MC	1	0	1.74850201607	-47.0	235.0	-44	232	1
1.7	2015_Jul_23_1309	s	s	8	4	SIC	557	ABS	1	1	24MO	0	1	7.18609499931	None	None	None	None	1
1.7	2015_Jul_23_1309	s	s	8	4	SIC	558	ABS	2	2	24VD	0	1	0.747772216797	None	None	None	None	1
1.7	2015_Jul_23_1309	s	s	8	4	SIC	559	ABS	0	2	24RD	0	1	0.823241949081	None	None	None	None	1
1.7	2015_Jul_23_1309	s	s	8	4	SIC	560	ABS	1	0	24MC	0	1	4.74903082848	None	None	None	None	1
1.7	2015_Jul_23_1309	s	s	8	4	SIC	561	RC	2	2	23VD	1	0	0.693819046021	321.0	-407.0	326	-405	1
1.7	2015_Jul_23_1309	s	s	8	4	SIC	562	ABS	2	2	24VD	0	1	0.643423080444	None	None	None	None	1
1.7	2015_Jul_23_1309	s	s	8	4	SIC	563	ABS	1	2	24MD	0	1	0.642153024673	None	None	None	None	1
1.7	2015_Jul_23_1309	s	s	8	4	SIC	564	RC	2	1	23VO	1	0	0.658465147018	-325.0	228.0	-331	226	1
1.7	2015_Jul_23_1309	s	s	8	4	SIC	565	RC	0	2	23RD	1	0	1.02333688736	382.0	-221.0	387	-218	1
1.7	2015_Jul_23_1309	s	s	8	4	SIC	566	RC	1	0	23MC	0	1	3.25489616394	443.0	-226.0	None	None	0
1.7	2015_Jul_23_1309	s	s	8	4	SIC	567	ABS	0	1	24RO	0	1	5.2961101532	None	None	None	None	1
1.7	2015_Jul_23_1309	s	s	8	4	SIC	568	RC	0	1	23RO	1	0	1.29411816597	240.0	230.0	251	235	1
1.7	2015_Jul_23_1309	s	s	8	4	SIC	569	RC	2	0	23VC	1	0	0.594501018524	-377.0	353.0	-365	360	1
1.7	2015_Jul_23_1309	s	s	8	4	SIC	570	RC	1	2	23MD	1	0	0.642375946045	432.0	47.0	424	50	1
1.7	2015_Jul_23_1309	s	s	8	4	SIC	571	ABS	1	1	24MO	0	1	7.27994012833	None	None	None	None	1
1.7	2015_Jul_23_1309	s	s	8	4	SIC	572	ABS	1	0	24MC	0	1	4.27208399773	None	None	None	None	1
1.7	2015_Jul_23_1309	s	s	8	4	SIC	573	ABS	2	0	24VC	0	1	0.752673149109	None	None	None	None	1
1.7	2015_Jul_23_1309	s	s	8	4	SIC	574	RC	1	1	23MO	1	0	3.18900704384	429.0	-83.0	424	-84	1
1.7	2015_Jul_23_1309	s	s	8	4	SIC	575	ABS	0	2	24RD	0	1	0.717304944992	None	None	None	None	1
1.7	2015_Jul_23_1309	s	s	8	4	SIC	576	ABS	2	1	24VO	0	1	0.717353820801	None	None	None	None	1
1.7	2015_Jul_23_1309	s	s	8	4	SIC	577	RC	1	2	23MD	1	0	0.618212938309	-490.0	-35.0	-489	-34	1
1.7	2015_Jul_23_1309	s	s	8	4	SIC	578	RC	2	1	23VO	1	0	0.524115085602	136.0	406.0	137	405	1
1.7	2015_Jul_23_1309	s	s	8	4	SIC	579	ABS	0	2	24RD	0	1	0.831403970718	None	None	None	None	1
1.7	2015_Jul_23_1309	s	s	8	4	SIC	580	ABS	2	1	24VO	0	1	0.646559000015	None	None	None	None	1
1.7	2015_Jul_23_1309	s	s	8	4	SIC	581	RC	1	1	23MO	1	0	2.58382821083	-323.0	-85.0	-320	-82	1
1.7	2015_Jul_23_1309	s	s	8	4	SIC	582	ABS	1	1	24MO	0	1	8.12804889679	None	None	None	None	1
1.7	2015_Jul_23_1309	s	s	8	4	SIC	583	ABS	2	0	24VC	0	1	0.771315097809	None	None	None	None	1
1.7	2015_Jul_23_1309	s	s	8	4	SIC	584	RC	2	2	23VD	1	0	0.700500011444	-224.0	-411.0	-222	-406	1
1.7	2015_Jul_23_1309	s	s	8	4	SIC	585	ABS	0	1	24RO	0	1	9.52171301842	None	None	None	None	1
1.7	2015_Jul_23_1309	s	s	8	4	SIC	586	RC	0	1	23RO	1	0	1.57188081741	-358.0	-31.0	-347	-27	1
1.7	2015_Jul_23_1309	s	s	8	4	SIC	587	RC	2	0	23VC	1	0	0.611414909363	519.0	308.0	523	314	1
1.7	2015_Jul_23_1309	s	s	8	4	SIC	588	RC	0	2	23RD	1	0	0.511221885681	-409.0	158.0	-404	163	1
1.7	2015_Jul_23_1309	s	s	8	4	SIC	589	ABS	1	2	24MD	0	1	1.44261598587	None	None	None	None	1
1.7	2015_Jul_23_1309	s	s	8	4	SIC	590	ABS	2	2	24VD	0	1	0.77653002739	None	None	None	None	1
1.7	2015_Jul_23_1309	s	s	8	4	SIC	591	RC	1	0	23MC	1	0	4.74051713943	-336.0	-212.0	-339	-207	1
1.7	2015_Jul_23_1309	s	s	8	4	SIC	592	ABS	1	0	24MC	0	1	2.14841389656	None	None	None	None	1
