Version	Date	Stimuli	Method	Subject	Session	Condition	Trial	Target	Channel1	Channel2	Distractors	LMouseButton	RMouseButton	RT	TargetX	TargetY	ResponseX	ResponseY	Correct
1.7	2015_Jul_20_1319	s	s	8	1	Capacity	1	RC	0	2	23RD	1	0	2.18867397308	286.0	92.0	289	92	1
1.7	2015_Jul_20_1319	s	s	8	1	Capacity	2	RC	0	1	23RO	1	0	9.10959100723	376.0	-345.0	374	-342	1
1.7	2015_Jul_20_1319	s	s	8	1	Capacity	3	ABS	0	1	24RO	0	1	8.32116484642	None	None	None	None	1
1.7	2015_Jul_20_1319	s	s	8	1	Capacity	4	ABS	0	2	24RD	0	1	5.22549700737	None	None	None	None	1
1.7	2015_Jul_20_1319	s	s	8	1	Capacity	5	ABS	0	2	24RD	0	1	5.2960729599	None	None	None	None	1
1.7	2015_Jul_20_1319	s	s	8	1	Capacity	6	RC	0	1	23RO	1	0	4.33763384819	-293.0	-59.0	-297	-59	1
1.7	2015_Jul_20_1319	s	s	8	1	Capacity	7	ABS	0	1	24RO	0	1	10.2258319855	None	None	None	None	1
1.7	2015_Jul_20_1319	s	s	8	1	Capacity	8	RC	0	2	23RD	1	0	2.40782690048	-37.0	-287.0	-32	-283	1
1.7	2015_Jul_20_1319	s	s	8	1	Capacity	9	RC	0	2	23RD	1	0	1.65639305115	-317.0	-173.0	-312	-176	1
1.7	2015_Jul_20_1319	s	s	8	1	Capacity	10	ABS	0	1	24RO	0	1	9.36868095398	None	None	None	None	1
1.7	2015_Jul_20_1319	s	s	8	1	Capacity	11	ABS	0	2	24RD	0	1	6.04457187653	None	None	None	None	1
1.7	2015_Jul_20_1319	s	s	8	1	Capacity	12	RC	0	1	23RO	1	0	6.62071204185	473.0	388.0	477	387	1
1.7	2015_Jul_20_1319	s	s	8	1	Capacity	13	RC	0	2	23RD	1	0	2.06613206863	-264.0	279.0	-258	284	1
1.7	2015_Jul_20_1319	s	s	8	1	Capacity	14	ABS	0	2	24RD	0	1	4.78197407722	None	None	None	None	1
1.7	2015_Jul_20_1319	s	s	8	1	Capacity	15	ABS	0	1	24RO	0	1	12.3418910503	None	None	None	None	1
1.7	2015_Jul_20_1319	s	s	8	1	Capacity	16	RC	0	1	23RO	1	0	8.69280982018	314.0	299.0	321	301	1
1.7	2015_Jul_20_1319	s	s	8	1	Capacity	17	RC	0	1	23RO	1	0	9.91390299797	344.0	-310.0	347	-307	1
1.7	2015_Jul_20_1319	s	s	8	1	Capacity	18	ABS	0	2	24RD	0	1	6.40251803398	None	None	None	None	1
1.7	2015_Jul_20_1319	s	s	8	1	Capacity	19	RC	0	2	23RD	1	0	2.53534197807	61.0	226.0	55	231	1
1.7	2015_Jul_20_1319	s	s	8	1	Capacity	20	ABS	0	1	24RO	0	1	11.3108518124	None	None	None	None	1
1.7	2015_Jul_20_1319	s	s	8	1	Capacity	21	RC	0	1	23RO	1	0	1.69427704811	17.0	188.0	18	186	1
1.7	2015_Jul_20_1319	s	s	8	1	Capacity	22	RC	0	2	23RD	1	0	1.35284495354	120.0	375.0	116	370	1
1.7	2015_Jul_20_1319	s	s	8	1	Capacity	23	ABS	0	1	24RO	0	1	7.19777178764	None	None	None	None	1
1.7	2015_Jul_20_1319	s	s	8	1	Capacity	24	ABS	0	2	24RD	0	1	5.70296192169	None	None	None	None	1
1.7	2015_Jul_20_1319	s	s	8	1	Capacity	25	RC	0	2	23RD	1	0	1.62374210358	77.0	-21.0	67	-16	1
1.7	2015_Jul_20_1319	s	s	8	1	Capacity	26	RC	0	1	23RO	1	0	4.62513589859	188.0	320.0	190	314	1
1.7	2015_Jul_20_1319	s	s	8	1	Capacity	27	ABS	0	2	24RD	0	1	5.08419799805	None	None	None	None	1
1.7	2015_Jul_20_1319	s	s	8	1	Capacity	28	ABS	0	1	24RO	0	1	6.63473200798	None	None	None	None	1
1.7	2015_Jul_20_1319	s	s	8	1	Capacity	29	RC	0	1	23RO	1	0	6.57114982605	-124.0	-362.0	-127	-367	1
1.7	2015_Jul_20_1319	s	s	8	1	Capacity	30	ABS	0	1	24RO	0	1	9.72884607315	None	None	None	None	1
1.7	2015_Jul_20_1319	s	s	8	1	Capacity	31	RC	0	2	23RD	1	0	1.36452794075	95.0	-66.0	103	-67	1
1.7	2015_Jul_20_1319	s	s	8	1	Capacity	32	ABS	0	2	24RD	0	1	5.97878813744	None	None	None	None	1
1.7	2015_Jul_20_1319	s	s	8	1	Capacity	33	RC	0	1	23RO	1	0	11.0121431351	441.0	-406.0	444	-403	1
1.7	2015_Jul_20_1319	s	s	8	1	Capacity	34	ABS	0	1	24RO	0	1	10.5052189827	None	None	None	None	1
1.7	2015_Jul_20_1319	s	s	8	1	Capacity	35	RC	0	2	23RD	1	0	1.88268303871	286.0	-112.0	297	-106	1
1.7	2015_Jul_20_1319	s	s	8	1	Capacity	36	ABS	0	2	24RD	0	1	7.16477608681	None	None	None	None	1
1.7	2015_Jul_20_1319	s	s	8	1	Capacity	37	ABS	0	1	24RO	0	1	8.21894407272	None	None	None	None	1
1.7	2015_Jul_20_1319	s	s	8	1	Capacity	38	RC	0	2	23RD	1	0	2.01212978363	144.0	407.0	146	402	1
1.7	2015_Jul_20_1319	s	s	8	1	Capacity	39	ABS	0	2	24RD	0	1	7.73258709908	None	None	None	None	1
1.7	2015_Jul_20_1319	s	s	8	1	Capacity	40	RC	0	1	23RO	1	0	6.44956302643	-98.0	330.0	-98	333	1
1.7	2015_Jul_20_1319	s	s	8	1	Capacity	41	RC	0	2	23RD	1	0	2.65944600105	-66.0	-83.0	-64	-85	1
1.7	2015_Jul_20_1319	s	s	8	1	Capacity	42	ABS	0	1	24RO	0	1	8.23875308037	None	None	None	None	1
1.7	2015_Jul_20_1319	s	s	8	1	Capacity	43	ABS	0	2	24RD	0	1	4.93793106079	None	None	None	None	1
1.7	2015_Jul_20_1319	s	s	8	1	Capacity	44	RC	0	1	23RO	1	0	5.67273211479	96.0	314.0	93	316	1
1.7	2015_Jul_20_1319	s	s	8	1	Capacity	45	RC	0	1	23RO	0	1	9.01060295105	-442.0	-311.0	None	None	0
1.7	2015_Jul_20_1319	s	s	8	1	Capacity	46	ABS	0	1	24RO	0	1	11.6915810108	None	None	None	None	1
1.7	2015_Jul_20_1319	s	s	8	1	Capacity	47	RC	0	2	23RD	1	0	1.41179919243	-201.0	-184.0	-199	-184	1
1.7	2015_Jul_20_1319	s	s	8	1	Capacity	48	ABS	0	2	24RD	0	1	5.00182390213	None	None	None	None	1
1.7	2015_Jul_20_1319	s	s	8	1	Capacity	49	ABS	0	2	24RD	0	1	6.57407283783	None	None	None	None	1
1.7	2015_Jul_20_1319	s	s	8	1	Capacity	50	ABS	0	1	24RO	0	1	13.757474184	None	None	None	None	1
1.7	2015_Jul_20_1319	s	s	8	1	Capacity	51	RC	0	1	23RO	1	0	2.51326012611	459.0	-172.0	465	-171	1
1.7	2015_Jul_20_1319	s	s	8	1	Capacity	52	RC	0	2	23RD	1	0	2.24753093719	-286.0	281.0	-282	283	1
1.7	2015_Jul_20_1319	s	s	8	1	Capacity	53	ABS	0	1	24RO	0	1	12.0759911537	None	None	None	None	1
1.7	2015_Jul_20_1319	s	s	8	1	Capacity	54	RC	0	2	23RD	1	0	1.11752295494	96.0	392.0	86	396	1
1.7	2015_Jul_20_1319	s	s	8	1	Capacity	55	ABS	0	2	24RD	0	1	7.29187297821	None	None	None	None	1
1.7	2015_Jul_20_1319	s	s	8	1	Capacity	56	RC	0	1	23RO	1	0	2.40719103813	-362.0	58.0	-354	64	1
1.7	2015_Jul_20_1319	s	s	8	1	Capacity	57	ABS	0	1	24RO	0	1	9.20022511482	None	None	None	None	1
1.7	2015_Jul_20_1319	s	s	8	1	Capacity	58	RC	0	1	23RO	1	0	1.45395684242	-294.0	76.0	-294	74	1
1.7	2015_Jul_20_1319	s	s	8	1	Capacity	59	ABS	0	2	24RD	0	1	4.78442406654	None	None	None	None	1
1.7	2015_Jul_20_1319	s	s	8	1	Capacity	60	RC	0	2	23RD	1	0	1.38826584816	-493.0	342.0	-498	342	1
1.7	2015_Jul_20_1319	s	s	8	1	Capacity	61	ABS	0	2	24RD	0	1	3.42457318306	None	None	None	None	1
1.7	2015_Jul_20_1319	s	s	8	1	Capacity	62	ABS	0	1	24RO	0	1	7.53875780106	None	None	None	None	1
1.7	2015_Jul_20_1319	s	s	8	1	Capacity	63	RC	0	1	23RO	1	0	3.70699501038	-284.0	-12.0	-284	-7	1
1.7	2015_Jul_20_1319	s	s	8	1	Capacity	64	RC	0	2	23RD	1	0	1.9038040638	-475.0	-294.0	-479	-295	1
1.7	2015_Jul_20_1319	s	s	8	1	Capacity	65	ABS	0	1	24RO	0	1	8.48100209236	None	None	None	None	1
1.7	2015_Jul_20_1319	s	s	8	1	Capacity	66	RC	0	1	23RO	1	0	3.70365786552	-60.0	390.0	-52	396	1
1.7	2015_Jul_20_1319	s	s	8	1	Capacity	67	RC	0	2	23RD	1	0	1.46566796303	423.0	297.0	424	296	1
1.7	2015_Jul_20_1319	s	s	8	1	Capacity	68	ABS	0	2	24RD	0	1	3.84320616722	None	None	None	None	1
1.7	2015_Jul_20_1319	s	s	8	1	Capacity	69	ABS	0	1	24RO	0	1	9.85129594803	None	None	None	None	1
1.7	2015_Jul_20_1319	s	s	8	1	Capacity	70	RC	0	1	23RO	1	0	2.27775812149	-477.0	75.0	-473	74	1
1.7	2015_Jul_20_1319	s	s	8	1	Capacity	71	ABS	0	2	24RD	0	1	2.87812614441	None	None	None	None	1
1.7	2015_Jul_20_1319	s	s	8	1	Capacity	72	RC	0	2	23RD	1	0	2.23096084595	218.0	-152.0	222	-146	1
1.7	2015_Jul_20_1319	s	s	8	1	Capacity	73	ABS	0	2	24RD	0	1	1.88963294029	None	None	None	None	1
1.7	2015_Jul_20_1319	s	s	8	1	Capacity	74	RC	0	1	23RO	1	0	3.39624881744	369.0	-117.0	371	-119	1
1.7	2015_Jul_20_1319	s	s	8	1	Capacity	75	ABS	0	1	24RO	0	1	6.04694700241	None	None	None	None	1
1.7	2015_Jul_20_1319	s	s	8	1	Capacity	76	RC	0	2	23RD	1	0	1.40001416206	-54.0	396.0	-54	397	1
1.7	2015_Jul_20_1319	s	s	8	1	Capacity	77	ABS	0	2	24RD	0	1	1.43525695801	None	None	None	None	1
1.7	2015_Jul_20_1319	s	s	8	1	Capacity	78	RC	0	2	23RD	1	0	0.976305961609	158.0	-25.0	155	-26	1
1.7	2015_Jul_20_1319	s	s	8	1	Capacity	79	ABS	0	1	24RO	0	1	6.76247191429	None	None	None	None	1
1.7	2015_Jul_20_1319	s	s	8	1	Capacity	80	RC	0	1	23RO	1	0	5.52696800232	15.0	-123.0	27	-119	1
1.7	2015_Jul_20_1319	s	s	8	1	Capacity	81	ABS	0	1	24RO	0	1	11.1381459236	None	None	None	None	1
1.7	2015_Jul_20_1319	s	s	8	1	Capacity	82	ABS	0	2	24RD	0	1	3.31378602982	None	None	None	None	1
1.7	2015_Jul_20_1319	s	s	8	1	Capacity	83	RC	0	1	23RO	1	0	7.34099006653	315.0	-58.0	323	-52	1
1.7	2015_Jul_20_1319	s	s	8	1	Capacity	84	RC	0	2	23RD	1	0	1.25641012192	137.0	-93.0	128	-86	1
1.7	2015_Jul_20_1319	s	s	8	1	Capacity	85	ABS	0	1	24RO	0	1	7.17485308647	None	None	None	None	1
1.7	2015_Jul_20_1319	s	s	8	1	Capacity	86	RC	0	2	23RD	1	0	1.46463799477	128.0	351.0	138	351	1
1.7	2015_Jul_20_1319	s	s	8	1	Capacity	87	ABS	0	2	24RD	0	1	2.86802315712	None	None	None	None	1
1.7	2015_Jul_20_1319	s	s	8	1	Capacity	88	RC	0	1	23RO	0	1	6.52021598816	512.0	385.0	None	None	0
1.7	2015_Jul_20_1319	s	s	8	1	Capacity	89	RC	0	2	23RD	1	0	1.67929697037	89.0	-367.0	90	-364	1
1.7	2015_Jul_20_1319	s	s	8	1	Capacity	90	ABS	0	2	24RD	0	1	2.67131996155	None	None	None	None	1
1.7	2015_Jul_20_1319	s	s	8	1	Capacity	91	ABS	0	1	24RO	0	1	6.80896806717	None	None	None	None	1
1.7	2015_Jul_20_1319	s	s	8	1	Capacity	92	RC	0	1	23RO	0	1	7.85759496689	-337.0	230.0	None	None	0
1.7	2015_Jul_20_1319	s	s	8	1	Capacity	1	RC	1	0	23MC	0	1	3.64338612556	-328.0	-235.0	None	None	0
1.7	2015_Jul_20_1319	s	s	8	1	Capacity	2	ABS	2	0	24VC	0	1	2.2631418705	None	None	None	None	1
1.7	2015_Jul_20_1319	s	s	8	1	Capacity	3	ABS	1	0	24MC	0	1	14.4064059258	None	None	None	None	1
1.7	2015_Jul_20_1319	s	s	8	1	Capacity	4	RC	2	0	23VC	1	0	1.35291004181	215.0	307.0	206	311	1
1.7	2015_Jul_20_1319	s	s	8	1	Capacity	5	ABS	2	0	24VC	0	1	3.21267294884	None	None	None	None	1
1.7	2015_Jul_20_1319	s	s	8	1	Capacity	6	RC	2	0	23VC	1	0	1.02332901955	319.0	164.0	314	167	1
1.7	2015_Jul_20_1319	s	s	8	1	Capacity	7	RC	1	0	23MC	0	1	8.87438583374	-488.0	-130.0	None	None	0
1.7	2015_Jul_20_1319	s	s	8	1	Capacity	8	ABS	1	0	24MC	0	1	8.06635594368	None	None	None	None	1
1.7	2015_Jul_20_1319	s	s	8	1	Capacity	9	RC	1	0	23MC	1	0	4.83222007751	-36.0	-272.0	-36	-273	1
1.7	2015_Jul_20_1319	s	s	8	1	Capacity	10	RC	2	0	23VC	1	0	2.47808098793	-268.0	57.0	-266	56	1
1.7	2015_Jul_20_1319	s	s	8	1	Capacity	11	ABS	1	0	24MC	0	1	7.43494510651	None	None	None	None	1
1.7	2015_Jul_20_1319	s	s	8	1	Capacity	12	ABS	2	0	24VC	0	1	2.40724205971	None	None	None	None	1
1.7	2015_Jul_20_1319	s	s	8	1	Capacity	13	ABS	2	0	24VC	0	1	2.8360350132	None	None	None	None	1
1.7	2015_Jul_20_1319	s	s	8	1	Capacity	14	RC	1	0	23MC	0	0	-1	515.0	-346.0	None	None	-1
1.7	2015_Jul_20_1319	s	s	8	1	Capacity	15	ABS	1	0	24MC	0	1	4.21321415901	None	None	None	None	1
1.7	2015_Jul_20_1319	s	s	8	1	Capacity	16	RC	2	0	23VC	1	0	1.92966389656	365.0	-184.0	372	-183	1
1.7	2015_Jul_20_1319	s	s	8	1	Capacity	17	ABS	2	0	24VC	0	1	2.31807208061	None	None	None	None	1
1.7	2015_Jul_20_1319	s	s	8	1	Capacity	18	RC	1	0	23MC	1	0	3.09037399292	397.0	52.0	402	56	1
1.7	2015_Jul_20_1319	s	s	8	1	Capacity	19	RC	2	0	23VC	1	0	2.07936000824	461.0	95.0	459	89	1
1.7	2015_Jul_20_1319	s	s	8	1	Capacity	20	ABS	1	0	24MC	0	1	3.09492516518	None	None	None	None	1
1.7	2015_Jul_20_1319	s	s	8	1	Capacity	21	ABS	1	0	24MC	0	1	4.87227487564	None	None	None	None	1
1.7	2015_Jul_20_1319	s	s	8	1	Capacity	22	RC	1	0	23MC	0	1	4.66049790382	-237.0	168.0	None	None	0
1.7	2015_Jul_20_1319	s	s	8	1	Capacity	23	ABS	2	0	24VC	0	1	1.68299508095	None	None	None	None	1
1.7	2015_Jul_20_1319	s	s	8	1	Capacity	24	RC	2	0	23VC	1	0	1.07920312881	392.0	35.0	390	43	1
1.7	2015_Jul_20_1319	s	s	8	1	Capacity	25	RC	1	0	23MC	1	0	2.99751901627	31.0	222.0	33	222	1
1.7	2015_Jul_20_1319	s	s	8	1	Capacity	26	RC	2	0	23VC	1	0	1.45400309563	321.0	-380.0	328	-378	1
1.7	2015_Jul_20_1319	s	s	8	1	Capacity	27	ABS	2	0	24VC	0	1	1.54827809334	None	None	None	None	1
1.7	2015_Jul_20_1319	s	s	8	1	Capacity	28	ABS	1	0	24MC	0	1	2.05491495132	None	None	None	None	1
1.7	2015_Jul_20_1319	s	s	8	1	Capacity	29	RC	2	0	23VC	1	0	1.31288099289	-439.0	-362.0	-439	-370	1
1.7	2015_Jul_20_1319	s	s	8	1	Capacity	30	RC	1	0	23MC	1	0	4.28394889832	-100.0	127.0	-105	129	1
1.7	2015_Jul_20_1319	s	s	8	1	Capacity	31	ABS	2	0	24VC	0	1	1.83134198189	None	None	None	None	1
1.7	2015_Jul_20_1319	s	s	8	1	Capacity	32	ABS	1	0	24MC	0	1	3.7718667984	None	None	None	None	1
1.7	2015_Jul_20_1319	s	s	8	1	Capacity	33	ABS	2	0	24VC	0	1	1.29412198067	None	None	None	None	1
1.7	2015_Jul_20_1319	s	s	8	1	Capacity	34	ABS	1	0	24MC	1	0	7.75404000282	None	None	337	136	0
1.7	2015_Jul_20_1319	s	s	8	1	Capacity	35	RC	2	0	23VC	1	0	1.70100808144	38.0	-87.0	40	-86	1
1.7	2015_Jul_20_1319	s	s	8	1	Capacity	36	RC	1	0	23MC	0	1	1.50600099564	138.0	38.0	None	None	0
1.7	2015_Jul_20_1319	s	s	8	1	Capacity	37	ABS	2	0	24VC	0	1	1.06513690948	None	None	None	None	1
1.7	2015_Jul_20_1319	s	s	8	1	Capacity	38	RC	2	0	23VC	1	0	2.30638194084	527.0	-149.0	532	-150	1
1.7	2015_Jul_20_1319	s	s	8	1	Capacity	39	RC	1	0	23MC	1	0	5.4671690464	91.0	152.0	87	146	1
1.7	2015_Jul_20_1319	s	s	8	1	Capacity	40	ABS	1	0	24MC	0	1	3.08309793472	None	None	None	None	1
1.7	2015_Jul_20_1319	s	s	8	1	Capacity	41	ABS	1	0	24MC	0	1	3.73067998886	None	None	None	None	1
1.7	2015_Jul_20_1319	s	s	8	1	Capacity	42	RC	1	0	23MC	0	1	4.38977885246	-243.0	239.0	None	None	0
1.7	2015_Jul_20_1319	s	s	8	1	Capacity	43	RC	2	0	23VC	1	0	1.11754798889	-298.0	-230.0	-302	-228	1
1.7	2015_Jul_20_1319	s	s	8	1	Capacity	44	ABS	2	0	24VC	0	1	1.30578708649	None	None	None	None	1
1.7	2015_Jul_20_1319	s	s	8	1	Capacity	45	RC	1	0	23MC	1	0	8.73311114311	66.0	114.0	73	117	1
1.7	2015_Jul_20_1319	s	s	8	1	Capacity	46	ABS	1	0	24MC	0	1	2.01902985573	None	None	None	None	1
1.7	2015_Jul_20_1319	s	s	8	1	Capacity	47	ABS	2	0	24VC	0	1	1.84734296799	None	None	None	None	1
1.7	2015_Jul_20_1319	s	s	8	1	Capacity	48	RC	2	0	23VC	1	0	1.45633816719	-283.0	91.0	-276	89	1
1.7	2015_Jul_20_1319	s	s	8	1	Capacity	49	ABS	1	0	24MC	0	1	4.01062703133	None	None	None	None	1
1.7	2015_Jul_20_1319	s	s	8	1	Capacity	50	RC	2	0	23VC	1	0	1.24702596664	-459.0	69.0	-463	66	1
1.7	2015_Jul_20_1319	s	s	8	1	Capacity	51	ABS	2	0	24VC	0	1	1.91377997398	None	None	None	None	1
1.7	2015_Jul_20_1319	s	s	8	1	Capacity	52	RC	1	0	23MC	1	0	2.9137032032	-11.0	245.0	-12	253	1
1.7	2015_Jul_20_1319	s	s	8	1	Capacity	53	ABS	1	0	24MC	0	1	1.60013890266	None	None	None	None	1
1.7	2015_Jul_20_1319	s	s	8	1	Capacity	54	RC	2	0	23VC	1	0	1.22986793518	-98.0	164.0	-106	164	1
1.7	2015_Jul_20_1319	s	s	8	1	Capacity	55	RC	1	0	23MC	1	0	3.65461707115	221.0	-58.0	226	-55	1
1.7	2015_Jul_20_1319	s	s	8	1	Capacity	56	ABS	2	0	24VC	0	1	1.01851701736	None	None	None	None	1
1.7	2015_Jul_20_1319	s	s	8	1	Capacity	57	RC	1	0	23MC	0	1	4.18635606766	228.0	330.0	None	None	0
1.7	2015_Jul_20_1319	s	s	8	1	Capacity	58	ABS	1	0	24MC	1	0	5.42115521431	None	None	467	-337	0
1.7	2015_Jul_20_1319	s	s	8	1	Capacity	59	ABS	2	0	24VC	0	1	0.936035871506	None	None	None	None	1
1.7	2015_Jul_20_1319	s	s	8	1	Capacity	60	RC	2	0	23VC	1	0	2.70358800888	-288.0	178.0	-297	179	1
1.7	2015_Jul_20_1319	s	s	8	1	Capacity	61	RC	1	0	23MC	0	1	2.69473600388	-172.0	184.0	None	None	0
1.7	2015_Jul_20_1319	s	s	8	1	Capacity	62	ABS	2	0	24VC	0	1	0.996797800064	None	None	None	None	1
1.7	2015_Jul_20_1319	s	s	8	1	Capacity	63	RC	2	0	23VC	1	0	1.39502191544	381.0	-364.0	384	-365	1
1.7	2015_Jul_20_1319	s	s	8	1	Capacity	64	ABS	1	0	24MC	0	1	2.36033892632	None	None	None	None	1
1.7	2015_Jul_20_1319	s	s	8	1	Capacity	65	RC	2	0	23VC	1	0	1.1058242321	509.0	-391.0	518	-387	1
1.7	2015_Jul_20_1319	s	s	8	1	Capacity	66	ABS	1	0	24MC	0	1	3.5256588459	None	None	None	None	1
1.7	2015_Jul_20_1319	s	s	8	1	Capacity	67	ABS	2	0	24VC	0	1	1.83540511131	None	None	None	None	1
1.7	2015_Jul_20_1319	s	s	8	1	Capacity	68	RC	1	0	23MC	1	0	5.87974214554	194.0	286.0	193	294	1
1.7	2015_Jul_20_1319	s	s	8	1	Capacity	69	ABS	1	0	24MC	0	1	1.12932014465	None	None	None	None	1
1.7	2015_Jul_20_1319	s	s	8	1	Capacity	70	RC	2	0	23VC	1	0	0.905605077744	425.0	-111.0	422	-109	1
1.7	2015_Jul_20_1319	s	s	8	1	Capacity	71	RC	1	0	23MC	0	1	5.01980113983	-90.0	-217.0	None	None	0
1.7	2015_Jul_20_1319	s	s	8	1	Capacity	72	ABS	2	0	24VC	0	1	1.75315093994	None	None	None	None	1
1.7	2015_Jul_20_1319	s	s	8	1	Capacity	73	ABS	1	0	24MC	0	1	5.33140516281	None	None	None	None	1
1.7	2015_Jul_20_1319	s	s	8	1	Capacity	74	RC	1	0	23MC	1	0	6.97445583344	500.0	-36.0	499	-39	1
1.7	2015_Jul_20_1319	s	s	8	1	Capacity	75	RC	2	0	23VC	1	0	2.15335178375	-142.0	58.0	-142	63	1
1.7	2015_Jul_20_1319	s	s	8	1	Capacity	76	ABS	2	0	24VC	0	1	1.07756495476	None	None	None	None	1
1.7	2015_Jul_20_1319	s	s	8	1	Capacity	77	RC	1	0	23MC	0	1	3.5609459877	-99.0	411.0	None	None	0
1.7	2015_Jul_20_1319	s	s	8	1	Capacity	78	ABS	1	0	24MC	0	1	3.74929404259	None	None	None	None	1
1.7	2015_Jul_20_1319	s	s	8	1	Capacity	79	ABS	2	0	24VC	0	1	1.02346396446	None	None	None	None	1
1.7	2015_Jul_20_1319	s	s	8	1	Capacity	80	RC	2	0	23VC	1	0	0.93586397171	291.0	346.0	293	351	1
1.7	2015_Jul_20_1319	s	s	8	1	Capacity	81	ABS	1	0	24MC	0	1	2.70645403862	None	None	None	None	1
1.7	2015_Jul_20_1319	s	s	8	1	Capacity	82	ABS	2	0	24VC	0	1	0.97129201889	None	None	None	None	1
1.7	2015_Jul_20_1319	s	s	8	1	Capacity	83	RC	2	0	23VC	1	0	2.3617169857	-244.0	327.0	-234	332	1
1.7	2015_Jul_20_1319	s	s	8	1	Capacity	84	RC	1	0	23MC	0	1	3.61964297295	230.0	-170.0	None	None	0
1.7	2015_Jul_20_1319	s	s	8	1	Capacity	85	ABS	1	0	24MC	0	1	4.28383994102	None	None	None	None	1
1.7	2015_Jul_20_1319	s	s	8	1	Capacity	86	RC	2	0	23VC	1	0	1.18402099609	56.0	156.0	64	155	1
1.7	2015_Jul_20_1319	s	s	8	1	Capacity	87	RC	1	0	23MC	1	0	2.00673007965	266.0	44.0	258	47	1
1.7	2015_Jul_20_1319	s	s	8	1	Capacity	88	ABS	2	0	24VC	0	1	1.02331519127	None	None	None	None	1
1.7	2015_Jul_20_1319	s	s	8	1	Capacity	89	ABS	1	0	24MC	0	1	2.5722091198	None	None	None	None	1
1.7	2015_Jul_20_1319	s	s	8	1	Capacity	90	RC	1	0	23MC	0	1	4.26026916504	-264.0	-265.0	None	None	0
1.7	2015_Jul_20_1319	s	s	8	1	Capacity	91	ABS	2	0	24VC	0	1	1.04145717621	None	None	None	None	1
1.7	2015_Jul_20_1319	s	s	8	1	Capacity	92	RC	2	0	23VC	1	0	0.952775001526	-98.0	-149.0	-100	-142	1
1.7	2015_Jul_20_1319	s	s	8	1	SIC	1	ABS	0	1	24RO	0	1	7.57481384277	None	None	None	None	1
1.7	2015_Jul_20_1319	s	s	8	1	SIC	2	RC	2	0	23VC	1	0	1.1505420208	-23.0	58.0	-25	60	1
1.7	2015_Jul_20_1319	s	s	8	1	SIC	3	RC	1	2	23MD	1	0	1.4069981575	5.0	101.0	4	104	1
1.7	2015_Jul_20_1319	s	s	8	1	SIC	4	RC	0	2	23RD	1	0	1.18304014206	113.0	-356.0	110	-352	1
1.7	2015_Jul_20_1319	s	s	8	1	SIC	5	RC	0	1	23RO	1	0	1.52472186089	412.0	-182.0	416	-182	1
1.7	2015_Jul_20_1319	s	s	8	1	SIC	6	ABS	2	1	24VO	0	1	4.09044718742	None	None	None	None	1
1.7	2015_Jul_20_1319	s	s	8	1	SIC	7	ABS	2	2	24VD	0	1	2.19473814964	None	None	None	None	1
1.7	2015_Jul_20_1319	s	s	8	1	SIC	8	ABS	1	0	24MC	0	1	6.37897396088	None	None	None	None	1
1.7	2015_Jul_20_1319	s	s	8	1	SIC	9	ABS	1	1	24MO	0	1	6.99725699425	None	None	None	None	1
1.7	2015_Jul_20_1319	s	s	8	1	SIC	10	RC	1	0	23MC	1	0	3.93096995354	453.0	-20.0	70	-29	0
1.7	2015_Jul_20_1319	s	s	8	1	SIC	11	ABS	0	2	24RD	0	1	2.92492890358	None	None	None	None	1
1.7	2015_Jul_20_1319	s	s	8	1	SIC	12	RC	2	2	23VD	1	0	0.964554071426	-149.0	-268.0	-146	-270	1
1.7	2015_Jul_20_1319	s	s	8	1	SIC	13	RC	1	1	23MO	1	0	1.60013985634	47.0	84.0	50	86	1
1.7	2015_Jul_20_1319	s	s	8	1	SIC	14	ABS	2	0	24VC	0	1	2.93662595749	None	None	None	None	1
1.7	2015_Jul_20_1319	s	s	8	1	SIC	15	ABS	1	2	24MD	0	1	4.60822701454	None	None	None	None	1
1.7	2015_Jul_20_1319	s	s	8	1	SIC	16	RC	2	1	23VO	1	0	0.988095998764	234.0	-150.0	238	-153	1
1.7	2015_Jul_20_1319	s	s	8	1	SIC	17	RC	2	1	23VO	1	0	1.95100498199	-79.0	220.0	-76	222	1
1.7	2015_Jul_20_1319	s	s	8	1	SIC	18	ABS	1	2	24MD	0	1	1.82151699066	None	None	None	None	1
1.7	2015_Jul_20_1319	s	s	8	1	SIC	19	RC	1	2	23MD	1	0	0.994889974594	-69.0	-152.0	-76	-147	1
1.7	2015_Jul_20_1319	s	s	8	1	SIC	20	RC	2	0	23VC	1	0	1.24214601517	-479.0	-406.0	-487	-403	1
1.7	2015_Jul_20_1319	s	s	8	1	SIC	21	ABS	1	0	24MC	0	1	3.07693004608	None	None	None	None	1
1.7	2015_Jul_20_1319	s	s	8	1	SIC	22	RC	2	2	23VD	1	0	0.776225805283	7.0	195.0	-1	203	1
1.7	2015_Jul_20_1319	s	s	8	1	SIC	23	RC	0	1	23RO	1	0	6.12690401077	446.0	-363.0	447	-363	1
1.7	2015_Jul_20_1319	s	s	8	1	SIC	24	ABS	2	1	24VO	0	1	2.67127799988	None	None	None	None	1
1.7	2015_Jul_20_1319	s	s	8	1	SIC	25	RC	1	0	23MC	0	1	7.62098693848	200.0	-306.0	None	None	0
1.7	2015_Jul_20_1319	s	s	8	1	SIC	26	RC	0	2	23RD	1	0	1.09074497223	365.0	71.0	370	76	1
1.7	2015_Jul_20_1319	s	s	8	1	SIC	27	ABS	0	1	24RO	0	1	7.45697283745	None	None	None	None	1
1.7	2015_Jul_20_1319	s	s	8	1	SIC	28	ABS	2	2	24VD	0	1	1.58339905739	None	None	None	None	1
1.7	2015_Jul_20_1319	s	s	8	1	SIC	29	RC	1	1	23MO	1	0	2.6806910038	118.0	-166.0	119	-163	1
1.7	2015_Jul_20_1319	s	s	8	1	SIC	30	ABS	0	2	24RD	0	1	3.03404092789	None	None	None	None	1
1.7	2015_Jul_20_1319	s	s	8	1	SIC	31	ABS	2	0	24VC	0	1	4.24354696274	None	None	None	None	1
1.7	2015_Jul_20_1319	s	s	8	1	SIC	32	ABS	1	1	24MO	0	1	8.14457798004	None	None	None	None	1
1.7	2015_Jul_20_1319	s	s	8	1	SIC	33	RC	2	0	23VC	1	0	1.15324306488	-425.0	-166.0	-433	-162	1
1.7	2015_Jul_20_1319	s	s	8	1	SIC	34	RC	0	1	23RO	1	0	3.64330101013	-454.0	322.0	-459	327	1
1.7	2015_Jul_20_1319	s	s	8	1	SIC	35	RC	2	1	23VO	1	0	1.57658910751	526.0	406.0	535	406	1
1.7	2015_Jul_20_1319	s	s	8	1	SIC	36	ABS	1	1	24MO	0	1	9.88661694527	None	None	None	None	1
1.7	2015_Jul_20_1319	s	s	8	1	SIC	37	ABS	1	2	24MD	0	1	2.57702302933	None	None	None	None	1
1.7	2015_Jul_20_1319	s	s	8	1	SIC	38	ABS	0	2	24RD	0	1	3.37251186371	None	None	None	None	1
1.7	2015_Jul_20_1319	s	s	8	1	SIC	39	RC	1	2	23MD	1	0	1.26560592651	-30.0	-246.0	-32	-252	1
1.7	2015_Jul_20_1319	s	s	8	1	SIC	40	ABS	2	2	24VD	0	1	2.07099318504	None	None	None	None	1
1.7	2015_Jul_20_1319	s	s	8	1	SIC	41	ABS	1	0	24MC	1	0	1.57292914391	None	None	-42	51	0
1.7	2015_Jul_20_1319	s	s	8	1	SIC	42	RC	2	2	23VD	1	0	1.44232201576	-215.0	214.0	-213	213	1
1.7	2015_Jul_20_1319	s	s	8	1	SIC	43	ABS	2	0	24VC	0	1	4.00135397911	None	None	None	None	1
1.7	2015_Jul_20_1319	s	s	8	1	SIC	44	RC	0	2	23RD	1	0	0.90559887886	-160.0	-47.0	-159	-43	1
1.7	2015_Jul_20_1319	s	s	8	1	SIC	45	ABS	0	1	24RO	0	1	7.56285190582	None	None	None	None	1
1.7	2015_Jul_20_1319	s	s	8	1	SIC	46	ABS	2	1	24VO	0	1	1.2067861557	None	None	None	None	1
1.7	2015_Jul_20_1319	s	s	8	1	SIC	47	RC	1	0	23MC	0	1	5.37850093842	-216.0	-143.0	None	None	0
1.7	2015_Jul_20_1319	s	s	8	1	SIC	48	RC	1	1	23MO	1	0	2.17195391655	389.0	368.0	394	374	1
1.7	2015_Jul_20_1319	s	s	8	1	SIC	49	ABS	0	1	24RO	0	1	9.14505290985	None	None	None	None	1
1.7	2015_Jul_20_1319	s	s	8	1	SIC	50	RC	1	0	23MC	0	1	5.52663683891	78.0	-223.0	None	None	0
1.7	2015_Jul_20_1319	s	s	8	1	SIC	51	ABS	2	1	24VO	0	1	4.01308298111	None	None	None	None	1
1.7	2015_Jul_20_1319	s	s	8	1	SIC	52	RC	0	2	23RD	1	0	0.93887090683	-46.0	-62.0	-48	-61	1
1.7	2015_Jul_20_1319	s	s	8	1	SIC	53	RC	2	0	23VC	1	0	1.0892291069	-115.0	-259.0	-118	-258	1
1.7	2015_Jul_20_1319	s	s	8	1	SIC	54	ABS	2	2	24VD	0	1	1.6664018631	None	None	None	None	1
1.7	2015_Jul_20_1319	s	s	8	1	SIC	55	ABS	1	2	24MD	0	1	2.97715902328	None	None	None	None	1
1.7	2015_Jul_20_1319	s	s	8	1	SIC	56	RC	2	1	23VO	1	0	0.900778055191	-369.0	2.0	-363	-2	1
1.7	2015_Jul_20_1319	s	s	8	1	SIC	57	ABS	2	0	24VC	0	1	1.68988108635	None	None	None	None	1
1.7	2015_Jul_20_1319	s	s	8	1	SIC	58	ABS	1	0	24MC	0	1	5.47249603271	None	None	None	None	1
1.7	2015_Jul_20_1319	s	s	8	1	SIC	59	RC	1	1	23MO	1	0	2.40775609016	69.0	-208.0	76	-208	1
1.7	2015_Jul_20_1319	s	s	8	1	SIC	60	RC	1	2	23MD	1	0	2.22071003914	147.0	-274.0	150	-268	1
1.7	2015_Jul_20_1319	s	s	8	1	SIC	61	RC	2	2	23VD	1	0	0.923382997513	292.0	-353.0	295	-351	1
1.7	2015_Jul_20_1319	s	s	8	1	SIC	62	ABS	0	2	24RD	0	1	2.21259117126	None	None	None	None	1
1.7	2015_Jul_20_1319	s	s	8	1	SIC	63	ABS	1	1	24MO	0	1	8.24486708641	None	None	None	None	1
1.7	2015_Jul_20_1319	s	s	8	1	SIC	64	RC	0	1	23RO	1	0	6.3202059269	387.0	-293.0	391	-290	1
1.7	2015_Jul_20_1319	s	s	8	1	SIC	65	RC	1	2	23MD	1	0	1.10042905807	441.0	44.0	445	50	1
1.7	2015_Jul_20_1319	s	s	8	1	SIC	66	RC	0	2	23RD	1	0	1.40882015228	-126.0	373.0	-120	378	1
1.7	2015_Jul_20_1319	s	s	8	1	SIC	67	ABS	2	2	24VD	0	1	1.07044696808	None	None	None	None	1
1.7	2015_Jul_20_1319	s	s	8	1	SIC	68	RC	2	1	23VO	1	0	1.27624416351	504.0	-76.0	502	-72	1
1.7	2015_Jul_20_1319	s	s	8	1	SIC	69	ABS	0	1	24RO	0	1	6.98502111435	None	None	None	None	1
1.7	2015_Jul_20_1319	s	s	8	1	SIC	70	RC	2	2	23VD	1	0	0.973875999451	-297.0	-121.0	-302	-122	1
1.7	2015_Jul_20_1319	s	s	8	1	SIC	71	ABS	1	1	24MO	0	1	6.82621908188	None	None	None	None	1
1.7	2015_Jul_20_1319	s	s	8	1	SIC	72	ABS	0	2	24RD	0	1	2.81249594688	None	None	None	None	1
1.7	2015_Jul_20_1319	s	s	8	1	SIC	73	ABS	2	0	24VC	0	1	1.52620887756	None	None	None	None	1
1.7	2015_Jul_20_1319	s	s	8	1	SIC	74	RC	1	0	23MC	0	1	3.70693206787	450.0	374.0	None	None	0
1.7	2015_Jul_20_1319	s	s	8	1	SIC	75	ABS	1	2	24MD	0	1	1.39616799355	None	None	None	None	1
1.7	2015_Jul_20_1319	s	s	8	1	SIC	76	ABS	1	0	24MC	0	1	5.65614008904	None	None	None	None	1
1.7	2015_Jul_20_1319	s	s	8	1	SIC	77	ABS	2	1	24VO	0	1	1.80024814606	None	None	None	None	1
1.7	2015_Jul_20_1319	s	s	8	1	SIC	78	RC	2	0	23VC	1	0	1.0704638958	-487.0	-101.0	-489	-99	1
1.7	2015_Jul_20_1319	s	s	8	1	SIC	79	RC	1	1	23MO	1	0	5.06442809105	104.0	-224.0	101	-226	1
1.7	2015_Jul_20_1319	s	s	8	1	SIC	80	RC	0	1	23RO	1	0	3.14205598831	283.0	153.0	283	156	1
1.7	2015_Jul_20_1319	s	s	8	1	SIC	81	RC	0	1	23RO	0	1	8.18670201302	-158.0	-72.0	None	None	0
1.7	2015_Jul_20_1319	s	s	8	1	SIC	82	ABS	2	0	24VC	0	1	2.96031880379	None	None	None	None	1
1.7	2015_Jul_20_1319	s	s	8	1	SIC	83	RC	1	0	23MC	0	1	4.65850806236	-441.0	-389.0	None	None	0
1.7	2015_Jul_20_1319	s	s	8	1	SIC	84	ABS	1	2	24MD	0	1	5.51970505714	None	None	None	None	1
1.7	2015_Jul_20_1319	s	s	8	1	SIC	85	ABS	2	1	24VO	0	1	2.56532406807	None	None	None	None	1
1.7	2015_Jul_20_1319	s	s	8	1	SIC	86	RC	2	0	23VC	1	0	1.04254698753	-318.0	403.0	-319	409	1
1.7	2015_Jul_20_1319	s	s	8	1	SIC	87	RC	1	2	23MD	1	0	1.72500610352	-391.0	320.0	-399	323	1
1.7	2015_Jul_20_1319	s	s	8	1	SIC	88	ABS	2	2	24VD	0	1	1.06698393822	None	None	None	None	1
1.7	2015_Jul_20_1319	s	s	8	1	SIC	89	ABS	1	1	24MO	0	1	7.97544002533	None	None	None	None	1
1.7	2015_Jul_20_1319	s	s	8	1	SIC	90	ABS	0	2	24RD	0	1	2.71830487251	None	None	None	None	1
1.7	2015_Jul_20_1319	s	s	8	1	SIC	91	RC	2	2	23VD	1	0	0.853496074677	-283.0	-269.0	-287	-264	1
1.7	2015_Jul_20_1319	s	s	8	1	SIC	92	RC	2	1	23VO	1	0	2.35346198082	491.0	130.0	494	127	1
1.7	2015_Jul_20_1319	s	s	8	1	SIC	93	RC	0	2	23RD	1	0	0.964598894119	-49.0	305.0	-50	308	1
1.7	2015_Jul_20_1319	s	s	8	1	SIC	94	ABS	0	1	24RO	0	1	8.34469103813	None	None	None	None	1
1.7	2015_Jul_20_1319	s	s	8	1	SIC	95	ABS	1	0	24MC	0	1	4.70534491539	None	None	None	None	1
1.7	2015_Jul_20_1319	s	s	8	1	SIC	96	RC	1	1	23MO	1	0	2.63596796989	-200.0	15.0	-202	16	1
1.7	2015_Jul_20_1319	s	s	8	1	SIC	97	RC	0	1	23RO	1	0	2.25521183014	-437.0	177.0	-444	182	1
1.7	2015_Jul_20_1319	s	s	8	1	SIC	98	RC	2	2	23VD	1	0	1.65416312218	509.0	234.0	505	229	1
1.7	2015_Jul_20_1319	s	s	8	1	SIC	99	ABS	2	0	24VC	0	1	1.21934986115	None	None	None	None	1
1.7	2015_Jul_20_1319	s	s	8	1	SIC	100	RC	0	2	23RD	1	0	1.22342705727	-430.0	-86.0	-434	-92	1
1.7	2015_Jul_20_1319	s	s	8	1	SIC	101	RC	1	2	23MD	1	0	1.87752985954	502.0	116.0	500	119	1
1.7	2015_Jul_20_1319	s	s	8	1	SIC	102	ABS	2	1	24VO	0	1	2.18373894691	None	None	None	None	1
1.7	2015_Jul_20_1319	s	s	8	1	SIC	103	ABS	1	0	24MC	0	1	3.54992508888	None	None	None	None	1
1.7	2015_Jul_20_1319	s	s	8	1	SIC	104	RC	2	1	23VO	1	0	1.04693007469	258.0	-265.0	260	-262	1
1.7	2015_Jul_20_1319	s	s	8	1	SIC	105	RC	1	0	23MC	1	0	4.44373011589	-433.0	25.0	-437	27	1
1.7	2015_Jul_20_1319	s	s	8	1	SIC	106	RC	1	1	23MO	1	0	1.51133990288	75.0	213.0	84	214	1
1.7	2015_Jul_20_1319	s	s	8	1	SIC	107	ABS	0	1	24RO	0	1	6.96516609192	None	None	None	None	1
1.7	2015_Jul_20_1319	s	s	8	1	SIC	108	ABS	1	1	24MO	0	1	8.29270291328	None	None	None	None	1
1.7	2015_Jul_20_1319	s	s	8	1	SIC	109	RC	2	0	23VC	1	0	0.905651092529	209.0	277.0	208	275	1
1.7	2015_Jul_20_1319	s	s	8	1	SIC	110	ABS	1	2	24MD	0	1	1.80012607574	None	None	None	None	1
1.7	2015_Jul_20_1319	s	s	8	1	SIC	111	ABS	0	2	24RD	0	1	3.01265215874	None	None	None	None	1
1.7	2015_Jul_20_1319	s	s	8	1	SIC	112	ABS	2	2	24VD	0	1	1.40000104904	None	None	None	None	1
1.7	2015_Jul_20_1319	s	s	8	1	SIC	113	RC	2	1	23VO	1	0	0.949223041534	-316.0	-136.0	-326	-137	1
1.7	2015_Jul_20_1319	s	s	8	1	SIC	114	RC	2	2	23VD	1	0	1.60886597633	-275.0	5.0	-268	11	1
1.7	2015_Jul_20_1319	s	s	8	1	SIC	115	RC	0	1	23RO	1	0	4.93974113464	-158.0	-87.0	-158	-86	1
1.7	2015_Jul_20_1319	s	s	8	1	SIC	116	ABS	1	1	24MO	0	1	8.10323596001	None	None	None	None	1
1.7	2015_Jul_20_1319	s	s	8	1	SIC	117	ABS	0	2	24RD	0	1	3.14216208458	None	None	None	None	1
1.7	2015_Jul_20_1319	s	s	8	1	SIC	118	ABS	2	2	24VD	0	1	1.81202220917	None	None	None	None	1
1.7	2015_Jul_20_1319	s	s	8	1	SIC	119	RC	2	0	23VC	1	0	0.952790021896	-512.0	-43.0	-514	-43	1
1.7	2015_Jul_20_1319	s	s	8	1	SIC	120	ABS	0	1	24RO	0	1	7.67020916939	None	None	None	None	1
1.7	2015_Jul_20_1319	s	s	8	1	SIC	121	ABS	2	1	24VO	0	1	5.43228292465	None	None	None	None	1
1.7	2015_Jul_20_1319	s	s	8	1	SIC	122	RC	0	2	23RD	1	0	1.10574102402	-13.0	-133.0	-15	-132	1
1.7	2015_Jul_20_1319	s	s	8	1	SIC	123	ABS	1	2	24MD	0	1	2.93925404549	None	None	None	None	1
1.7	2015_Jul_20_1319	s	s	8	1	SIC	124	RC	1	0	23MC	0	1	4.37455797195	-46.0	-199.0	None	None	0
1.7	2015_Jul_20_1319	s	s	8	1	SIC	125	ABS	1	0	24MC	0	1	5.50307106972	None	None	None	None	1
1.7	2015_Jul_20_1319	s	s	8	1	SIC	126	RC	1	2	23MD	1	0	1.00661110878	276.0	10.0	281	15	1
1.7	2015_Jul_20_1319	s	s	8	1	SIC	127	ABS	2	0	24VC	0	1	1.05382585526	None	None	None	None	1
1.7	2015_Jul_20_1319	s	s	8	1	SIC	128	RC	1	1	23MO	1	0	1.43024682999	8.0	78.0	8	81	1
1.7	2015_Jul_20_1319	s	s	8	1	SIC	129	ABS	1	2	24MD	0	1	3.10675597191	None	None	None	None	1
1.7	2015_Jul_20_1319	s	s	8	1	SIC	130	RC	1	1	23MO	1	0	1.3479039669	419.0	177.0	421	175	1
1.7	2015_Jul_20_1319	s	s	8	1	SIC	131	RC	2	2	23VD	1	0	1.10574388504	-431.0	305.0	-437	310	1
1.7	2015_Jul_20_1319	s	s	8	1	SIC	132	ABS	1	1	24MO	0	1	7.48589897156	None	None	None	None	1
1.7	2015_Jul_20_1319	s	s	8	1	SIC	133	ABS	0	2	24RD	0	1	2.18864703178	None	None	None	None	1
1.7	2015_Jul_20_1319	s	s	8	1	SIC	134	RC	2	1	23VO	1	0	0.980134010315	142.0	76.0	140	77	1
1.7	2015_Jul_20_1319	s	s	8	1	SIC	135	RC	0	1	23RO	1	0	1.92327690125	-425.0	-43.0	-425	-50	1
1.7	2015_Jul_20_1319	s	s	8	1	SIC	136	RC	1	2	23MD	1	0	0.794869184494	-158.0	63.0	-147	66	1
1.7	2015_Jul_20_1319	s	s	8	1	SIC	137	ABS	2	0	24VC	0	1	1.77674794197	None	None	None	None	1
1.7	2015_Jul_20_1319	s	s	8	1	SIC	138	ABS	2	1	24VO	0	1	3.60795879364	None	None	None	None	1
1.7	2015_Jul_20_1319	s	s	8	1	SIC	139	ABS	2	2	24VD	0	1	2.6899869442	None	None	None	None	1
1.7	2015_Jul_20_1319	s	s	8	1	SIC	140	ABS	1	0	24MC	0	1	6.49103999138	None	None	None	None	1
1.7	2015_Jul_20_1319	s	s	8	1	SIC	141	ABS	0	1	24RO	0	1	7.19783997536	None	None	None	None	1
1.7	2015_Jul_20_1319	s	s	8	1	SIC	142	RC	0	2	23RD	1	0	0.843245029449	57.0	-213.0	63	-207	1
1.7	2015_Jul_20_1319	s	s	8	1	SIC	143	RC	2	0	23VC	1	0	0.925722122192	-419.0	189.0	-417	193	1
1.7	2015_Jul_20_1319	s	s	8	1	SIC	144	RC	1	0	23MC	0	1	9.16352319717	207.0	-379.0	None	None	0
1.7	2015_Jul_20_1319	s	s	8	1	SIC	145	ABS	0	2	24RD	0	1	1.08912491798	None	None	None	None	1
1.7	2015_Jul_20_1319	s	s	8	1	SIC	146	RC	1	2	23MD	1	0	0.830756902695	105.0	-31.0	111	-29	1
1.7	2015_Jul_20_1319	s	s	8	1	SIC	147	RC	2	1	23VO	1	0	0.877079963684	334.0	-164.0	341	-162	1
1.7	2015_Jul_20_1319	s	s	8	1	SIC	148	RC	1	1	23MO	1	0	1.60016679764	334.0	-22.0	335	-26	1
1.7	2015_Jul_20_1319	s	s	8	1	SIC	149	ABS	2	0	24VC	0	1	1.44210791588	None	None	None	None	1
1.7	2015_Jul_20_1319	s	s	8	1	SIC	150	RC	0	2	23RD	1	0	0.940944194794	-139.0	378.0	-142	375	1
1.7	2015_Jul_20_1319	s	s	8	1	SIC	151	ABS	2	1	24VO	0	1	1.45408296585	None	None	None	None	1
1.7	2015_Jul_20_1319	s	s	8	1	SIC	152	RC	2	2	23VD	1	0	0.905668973923	505.0	184.0	506	187	1
1.7	2015_Jul_20_1319	s	s	8	1	SIC	153	ABS	0	1	24RO	0	1	6.85648322105	None	None	None	None	1
1.7	2015_Jul_20_1319	s	s	8	1	SIC	154	ABS	1	2	24MD	0	1	2.56053900719	None	None	None	None	1
1.7	2015_Jul_20_1319	s	s	8	1	SIC	155	RC	0	1	23RO	1	0	6.94780683517	216.0	-249.0	212	-247	1
1.7	2015_Jul_20_1319	s	s	8	1	SIC	156	RC	2	0	23VC	1	0	2.01889014244	488.0	-299.0	488	-296	1
1.7	2015_Jul_20_1319	s	s	8	1	SIC	157	RC	1	0	23MC	0	1	5.63388419151	276.0	-273.0	None	None	0
1.7	2015_Jul_20_1319	s	s	8	1	SIC	158	ABS	1	0	24MC	0	1	4.56405997276	None	None	None	None	1
1.7	2015_Jul_20_1319	s	s	8	1	SIC	159	ABS	1	1	24MO	0	1	7.27071118355	None	None	None	None	1
1.7	2015_Jul_20_1319	s	s	8	1	SIC	160	ABS	2	2	24VD	0	1	1.2823369503	None	None	None	None	1
1.7	2015_Jul_20_1319	s	s	8	1	SIC	161	RC	1	0	23MC	1	0	9.94040703773	357.0	-115.0	360	-115	1
1.7	2015_Jul_20_1319	s	s	8	1	SIC	162	ABS	2	0	24VC	0	1	0.952750921249	None	None	None	None	1
1.7	2015_Jul_20_1319	s	s	8	1	SIC	163	ABS	0	2	24RD	0	1	1.08238601685	None	None	None	None	1
1.7	2015_Jul_20_1319	s	s	8	1	SIC	164	RC	1	2	23MD	1	0	1.17229390144	-501.0	-231.0	-509	-227	1
1.7	2015_Jul_20_1319	s	s	8	1	SIC	165	RC	1	1	23MO	1	0	4.93797707558	378.0	397.0	377	403	1
1.7	2015_Jul_20_1319	s	s	8	1	SIC	166	ABS	2	1	24VO	0	1	1.18369293213	None	None	None	None	1
1.7	2015_Jul_20_1319	s	s	8	1	SIC	167	RC	2	0	23VC	1	0	1.01842212677	439.0	-309.0	433	-312	1
1.7	2015_Jul_20_1319	s	s	8	1	SIC	168	ABS	0	1	24RO	0	1	7.92476892471	None	None	None	None	1
1.7	2015_Jul_20_1319	s	s	8	1	SIC	169	RC	2	1	23VO	1	0	0.759526968002	286.0	215.0	278	217	1
1.7	2015_Jul_20_1319	s	s	8	1	SIC	170	ABS	1	1	24MO	0	1	7.63351178169	None	None	None	None	1
1.7	2015_Jul_20_1319	s	s	8	1	SIC	171	ABS	1	2	24MD	0	1	1.64226007462	None	None	None	None	1
1.7	2015_Jul_20_1319	s	s	8	1	SIC	172	RC	0	2	23RD	1	0	0.926517009735	94.0	-272.0	93	-264	1
1.7	2015_Jul_20_1319	s	s	8	1	SIC	173	ABS	2	2	24VD	0	1	0.971522092819	None	None	None	None	1
1.7	2015_Jul_20_1319	s	s	8	1	SIC	174	RC	2	2	23VD	1	0	1.65419101715	-301.0	-113.0	-302	-120	1
1.7	2015_Jul_20_1319	s	s	8	1	SIC	175	ABS	1	0	24MC	0	1	5.40204501152	None	None	None	None	1
1.7	2015_Jul_20_1319	s	s	8	1	SIC	176	RC	0	1	23RO	0	1	6.49122905731	460.0	88.0	None	None	0
1.7	2015_Jul_20_1319	s	s	8	1	SIC	177	RC	0	1	23RO	1	0	7.71761798859	429.0	-344.0	430	-351	1
1.7	2015_Jul_20_1319	s	s	8	1	SIC	178	RC	1	0	23MC	0	1	6.05922698975	183.0	-215.0	None	None	0
1.7	2015_Jul_20_1319	s	s	8	1	SIC	179	RC	1	2	23MD	1	0	1.10040593147	381.0	-355.0	382	-365	1
1.7	2015_Jul_20_1319	s	s	8	1	SIC	180	ABS	2	0	24VC	0	1	1.16846179962	None	None	None	None	1
1.7	2015_Jul_20_1319	s	s	8	1	SIC	181	ABS	0	2	24RD	0	1	1.51770401001	None	None	None	None	1
1.7	2015_Jul_20_1319	s	s	8	1	SIC	182	RC	2	0	23VC	1	0	0.752556085587	29.0	58.0	27	63	1
1.7	2015_Jul_20_1319	s	s	8	1	SIC	183	RC	2	2	23VD	1	0	0.853656053543	-399.0	-34.0	-409	-35	1
1.7	2015_Jul_20_1319	s	s	8	1	SIC	184	ABS	1	0	24MC	0	1	2.80791115761	None	None	None	None	1
1.7	2015_Jul_20_1319	s	s	8	1	SIC	185	ABS	1	2	24MD	0	1	1.43052196503	None	None	None	None	1
1.7	2015_Jul_20_1319	s	s	8	1	SIC	186	ABS	1	1	24MO	0	1	6.64479398727	None	None	None	None	1
1.7	2015_Jul_20_1319	s	s	8	1	SIC	187	RC	0	2	23RD	1	0	0.91264295578	451.0	-67.0	453	-61	1
1.7	2015_Jul_20_1319	s	s	8	1	SIC	188	ABS	0	1	24RO	0	1	5.82574510574	None	None	None	None	1
1.7	2015_Jul_20_1319	s	s	8	1	SIC	189	ABS	2	2	24VD	0	1	1.23519492149	None	None	None	None	1
1.7	2015_Jul_20_1319	s	s	8	1	SIC	190	ABS	2	1	24VO	0	1	1.16460704803	None	None	None	None	1
1.7	2015_Jul_20_1319	s	s	8	1	SIC	191	RC	2	1	23VO	1	0	0.764440059662	127.0	200.0	132	198	1
1.7	2015_Jul_20_1319	s	s	8	1	SIC	192	RC	1	1	23MO	1	0	3.49283909798	-390.0	-61.0	-393	-57	1
1.7	2015_Jul_20_1319	s	s	8	1	SIC	193	RC	2	2	23VD	1	0	0.771507024765	173.0	-207.0	169	-214	1
1.7	2015_Jul_20_1319	s	s	8	1	SIC	194	RC	1	1	23MO	1	0	3.40795302391	-367.0	-69.0	-371	-67	1
1.7	2015_Jul_20_1319	s	s	8	1	SIC	195	ABS	1	2	24MD	0	1	2.28017711639	None	None	None	None	1
1.7	2015_Jul_20_1319	s	s	8	1	SIC	196	ABS	2	1	24VO	0	1	3.88034391403	None	None	None	None	1
1.7	2015_Jul_20_1319	s	s	8	1	SIC	197	ABS	2	2	24VD	0	1	2.14846396446	None	None	None	None	1
1.7	2015_Jul_20_1319	s	s	8	1	SIC	198	RC	1	2	23MD	1	0	0.811543941498	-435.0	-1.0	-431	3	1
1.7	2015_Jul_20_1319	s	s	8	1	SIC	199	RC	2	0	23VC	1	0	1.07045984268	231.0	4.0	239	7	1
1.7	2015_Jul_20_1319	s	s	8	1	SIC	200	ABS	2	0	24VC	0	1	0.937796115875	None	None	None	None	1
1.7	2015_Jul_20_1319	s	s	8	1	SIC	201	ABS	1	1	24MO	0	1	8.21517801285	None	None	None	None	1
1.7	2015_Jul_20_1319	s	s	8	1	SIC	202	ABS	0	1	24RO	0	1	6.71586298943	None	None	None	None	1
1.7	2015_Jul_20_1319	s	s	8	1	SIC	203	RC	0	1	23RO	1	0	3.48066592216	-95.0	-363.0	-93	-364	1
1.7	2015_Jul_20_1319	s	s	8	1	SIC	204	RC	0	2	23RD	1	0	1.36470079422	-39.0	385.0	-42	389	1
1.7	2015_Jul_20_1319	s	s	8	1	SIC	205	RC	1	0	23MC	1	0	7.17941594124	-405.0	-53.0	-406	-50	1
1.7	2015_Jul_20_1319	s	s	8	1	SIC	206	ABS	0	2	24RD	0	1	2.01962780952	None	None	None	None	1
1.7	2015_Jul_20_1319	s	s	8	1	SIC	207	ABS	1	0	24MC	0	1	5.16657304764	None	None	None	None	1
1.7	2015_Jul_20_1319	s	s	8	1	SIC	208	RC	2	1	23VO	1	0	0.976373910904	-330.0	-153.0	-336	-154	1
1.7	2015_Jul_20_1319	s	s	8	1	SIC	209	RC	1	0	23MC	0	1	5.66774010658	433.0	-106.0	None	None	0
1.7	2015_Jul_20_1319	s	s	8	1	SIC	210	RC	2	0	23VC	1	0	1.69160890579	383.0	-108.0	386	-109	1
1.7	2015_Jul_20_1319	s	s	8	1	SIC	211	ABS	2	2	24VD	0	1	1.33619785309	None	None	None	None	1
1.7	2015_Jul_20_1319	s	s	8	1	SIC	212	ABS	0	1	24RO	0	1	8.68081092834	None	None	None	None	1
1.7	2015_Jul_20_1319	s	s	8	1	SIC	213	ABS	1	2	24MD	0	1	1.19195795059	None	None	None	None	1
1.7	2015_Jul_20_1319	s	s	8	1	SIC	214	RC	1	1	23MO	1	0	1.38333392143	141.0	57.0	135	64	1
1.7	2015_Jul_20_1319	s	s	8	1	SIC	215	RC	1	2	23MD	1	0	1.37163901329	-238.0	-283.0	-242	-284	1
1.7	2015_Jul_20_1319	s	s	8	1	SIC	216	RC	2	1	23VO	1	0	1.19341301918	-60.0	-293.0	-54	-293	1
1.7	2015_Jul_20_1319	s	s	8	1	SIC	217	RC	2	2	23VD	1	0	0.912817955017	-447.0	312.0	-451	317	1
1.7	2015_Jul_20_1319	s	s	8	1	SIC	218	RC	0	2	23RD	1	0	0.917448043823	131.0	330.0	133	327	1
1.7	2015_Jul_20_1319	s	s	8	1	SIC	219	ABS	1	1	24MO	0	1	5.77075481415	None	None	None	None	1
1.7	2015_Jul_20_1319	s	s	8	1	SIC	220	ABS	2	1	24VO	0	1	1.63541889191	None	None	None	None	1
1.7	2015_Jul_20_1319	s	s	8	1	SIC	221	ABS	2	0	24VC	0	1	1.05072307587	None	None	None	None	1
1.7	2015_Jul_20_1319	s	s	8	1	SIC	222	RC	0	1	23RO	1	0	2.25957107544	-129.0	-64.0	-128	-63	1
1.7	2015_Jul_20_1319	s	s	8	1	SIC	223	ABS	0	2	24RD	0	1	1.99532079697	None	None	None	None	1
1.7	2015_Jul_20_1319	s	s	8	1	SIC	224	ABS	1	0	24MC	0	1	3.5775949955	None	None	None	None	1
1.7	2015_Jul_20_1319	s	s	8	1	SIC	225	RC	1	2	23MD	1	0	1.24201202393	-349.0	-159.0	-344	-160	1
1.7	2015_Jul_20_1319	s	s	8	1	SIC	226	ABS	2	0	24VC	0	1	1.52954602242	None	None	None	None	1
1.7	2015_Jul_20_1319	s	s	8	1	SIC	227	ABS	1	1	24MO	0	1	6.11494588852	None	None	None	None	1
1.7	2015_Jul_20_1319	s	s	8	1	SIC	228	RC	0	1	23RO	1	0	3.5776078701	-373.0	-163.0	-367	-163	1
1.7	2015_Jul_20_1319	s	s	8	1	SIC	229	RC	0	2	23RD	1	0	0.876087903976	-28.0	-275.0	-27	-272	1
1.7	2015_Jul_20_1319	s	s	8	1	SIC	230	ABS	2	1	24VO	0	1	1.27729511261	None	None	None	None	1
1.7	2015_Jul_20_1319	s	s	8	1	SIC	231	RC	1	1	23MO	1	0	4.64363002777	98.0	322.0	106	327	1
1.7	2015_Jul_20_1319	s	s	8	1	SIC	232	ABS	2	2	24VD	0	1	0.893830776215	None	None	None	None	1
1.7	2015_Jul_20_1319	s	s	8	1	SIC	233	ABS	1	0	24MC	0	1	8.80366587639	None	None	None	None	1
1.7	2015_Jul_20_1319	s	s	8	1	SIC	234	RC	2	2	23VD	1	0	0.760066986084	30.0	-62.0	28	-63	1
1.7	2015_Jul_20_1319	s	s	8	1	SIC	235	RC	2	1	23VO	1	0	0.952753067017	-425.0	286.0	-425	287	1
1.7	2015_Jul_20_1319	s	s	8	1	SIC	236	ABS	0	1	24RO	0	1	6.68011713028	None	None	None	None	1
1.7	2015_Jul_20_1319	s	s	8	1	SIC	237	ABS	0	2	24RD	0	1	1.45560407639	None	None	None	None	1
1.7	2015_Jul_20_1319	s	s	8	1	SIC	238	RC	1	0	23MC	0	1	4.97338581085	-83.0	282.0	None	None	0
1.7	2015_Jul_20_1319	s	s	8	1	SIC	239	RC	2	0	23VC	1	0	1.01150202751	-59.0	-80.0	-54	-76	1
1.7	2015_Jul_20_1319	s	s	8	1	SIC	240	ABS	1	2	24MD	0	1	0.971315145493	None	None	None	None	1
1.7	2015_Jul_20_1319	s	s	8	1	SIC	241	ABS	1	0	24MC	0	1	1.86646795273	None	None	None	None	1
1.7	2015_Jul_20_1319	s	s	8	1	SIC	242	ABS	0	1	24RO	0	1	5.35489320755	None	None	None	None	1
1.7	2015_Jul_20_1319	s	s	8	1	SIC	243	ABS	2	2	24VD	0	1	0.924213171005	None	None	None	None	1
1.7	2015_Jul_20_1319	s	s	8	1	SIC	244	ABS	2	1	24VO	0	1	3.9139919281	None	None	None	None	1
1.7	2015_Jul_20_1319	s	s	8	1	SIC	245	RC	2	0	23VC	1	0	1.04194688797	-202.0	-41.0	-205	-37	1
1.7	2015_Jul_20_1319	s	s	8	1	SIC	246	ABS	2	0	24VC	0	1	0.929224967957	None	None	None	None	1
1.7	2015_Jul_20_1319	s	s	8	1	SIC	247	ABS	1	1	24MO	0	1	5.0488679409	None	None	None	None	1
1.7	2015_Jul_20_1319	s	s	8	1	SIC	248	RC	2	1	23VO	1	0	1.01840996742	-495.0	-227.0	-500	-219	1
1.7	2015_Jul_20_1319	s	s	8	1	SIC	249	RC	1	2	23MD	1	0	1.54736614227	-358.0	161.0	-359	158	1
1.7	2015_Jul_20_1319	s	s	8	1	SIC	250	RC	2	2	23VD	1	0	0.858555078506	-220.0	-312.0	-218	-308	1
1.7	2015_Jul_20_1319	s	s	8	1	SIC	251	RC	1	0	23MC	0	1	5.76470088959	-322.0	-345.0	None	None	0
1.7	2015_Jul_20_1319	s	s	8	1	SIC	252	ABS	0	2	24RD	0	1	1.00938415527	None	None	None	None	1
1.7	2015_Jul_20_1319	s	s	8	1	SIC	253	RC	1	1	23MO	1	0	1.50601696968	23.0	344.0	21	337	1
1.7	2015_Jul_20_1319	s	s	8	1	SIC	254	RC	0	2	23RD	1	0	0.889138936996	30.0	40.0	24	40	1
1.7	2015_Jul_20_1319	s	s	8	1	SIC	255	ABS	1	2	24MD	0	1	1.41173315048	None	None	None	None	1
1.7	2015_Jul_20_1319	s	s	8	1	SIC	256	RC	0	1	23RO	0	1	6.87335395813	110.0	-130.0	None	None	0
1.7	2015_Jul_20_1319	s	s	8	1	SIC	257	ABS	2	1	24VO	0	1	1.16461205482	None	None	None	None	1
1.7	2015_Jul_20_1319	s	s	8	1	SIC	258	RC	1	2	23MD	1	0	0.893881082535	-521.0	360.0	-518	361	1
1.7	2015_Jul_20_1319	s	s	8	1	SIC	259	RC	2	1	23VO	1	0	0.752654075623	-84.0	-1.0	-82	-8	1
1.7	2015_Jul_20_1319	s	s	8	1	SIC	260	ABS	0	2	24RD	0	1	1.37649512291	None	None	None	None	1
1.7	2015_Jul_20_1319	s	s	8	1	SIC	261	ABS	1	0	24MC	0	1	4.77312397957	None	None	None	None	1
1.7	2015_Jul_20_1319	s	s	8	1	SIC	262	RC	2	2	23VD	1	0	1.08937311172	-342.0	206.0	-344	212	1
1.7	2015_Jul_20_1319	s	s	8	1	SIC	263	RC	0	2	23RD	1	0	1.03309392929	-270.0	218.0	-277	223	1
1.7	2015_Jul_20_1319	s	s	8	1	SIC	264	ABS	1	2	24MD	0	1	0.87418794632	None	None	None	None	1
1.7	2015_Jul_20_1319	s	s	8	1	SIC	265	ABS	2	0	24VC	0	1	0.783473014832	None	None	None	None	1
1.7	2015_Jul_20_1319	s	s	8	1	SIC	266	ABS	1	1	24MO	0	1	6.01406002045	None	None	None	None	1
1.7	2015_Jul_20_1319	s	s	8	1	SIC	267	RC	0	1	23RO	1	0	0.776168823242	-69.0	54.0	-63	59	1
1.7	2015_Jul_20_1319	s	s	8	1	SIC	268	RC	2	0	23VC	1	0	0.7997610569	77.0	-171.0	76	-177	1
1.7	2015_Jul_20_1319	s	s	8	1	SIC	269	ABS	0	1	24RO	0	1	6.73204398155	None	None	None	None	1
1.7	2015_Jul_20_1319	s	s	8	1	SIC	270	RC	1	1	23MO	1	0	1.77303504944	512.0	-151.0	506	-148	1
1.7	2015_Jul_20_1319	s	s	8	1	SIC	271	RC	1	0	23MC	1	0	2.78393507004	-89.0	0.0	-91	0	1
1.7	2015_Jul_20_1319	s	s	8	1	SIC	272	ABS	2	2	24VD	0	1	0.936827898026	None	None	None	None	1
1.7	2015_Jul_20_1319	s	s	8	1	SIC	273	ABS	0	2	24RD	0	1	0.94104218483	None	None	None	None	1
1.7	2015_Jul_20_1319	s	s	8	1	SIC	274	ABS	2	0	24VC	0	1	1.3841509819	None	None	None	None	1
1.7	2015_Jul_20_1319	s	s	8	1	SIC	275	ABS	2	2	24VD	0	1	0.748230218887	None	None	None	None	1
1.7	2015_Jul_20_1319	s	s	8	1	SIC	276	RC	2	2	23VD	1	0	1.45410609245	199.0	-204.0	194	-202	1
1.7	2015_Jul_20_1319	s	s	8	1	SIC	277	ABS	0	1	24RO	0	1	5.7525639534	None	None	None	None	1
1.7	2015_Jul_20_1319	s	s	8	1	SIC	278	ABS	1	0	24MC	0	1	2.80082297325	None	None	None	None	1
1.7	2015_Jul_20_1319	s	s	8	1	SIC	279	RC	0	2	23RD	1	0	0.917382955551	142.0	-23.0	139	-18	1
1.7	2015_Jul_20_1319	s	s	8	1	SIC	280	RC	2	1	23VO	1	0	1.18601298332	-275.0	1.0	-281	9	1
1.7	2015_Jul_20_1319	s	s	8	1	SIC	281	ABS	2	1	24VO	0	1	0.994307994843	None	None	None	None	1
1.7	2015_Jul_20_1319	s	s	8	1	SIC	282	RC	0	1	23RO	1	0	2.50648999214	-327.0	210.0	-327	216	1
1.7	2015_Jul_20_1319	s	s	8	1	SIC	283	RC	1	0	23MC	1	0	7.22403001785	-376.0	244.0	-375	242	1
1.7	2015_Jul_20_1319	s	s	8	1	SIC	284	RC	2	0	23VC	1	0	0.829891204834	-244.0	-183.0	-246	-178	1
1.7	2015_Jul_20_1319	s	s	8	1	SIC	285	RC	1	2	23MD	1	0	0.853693008423	-111.0	-98.0	-116	-94	1
1.7	2015_Jul_20_1319	s	s	8	1	SIC	286	RC	1	1	23MO	1	0	7.67372894287	439.0	81.0	440	87	1
1.7	2015_Jul_20_1319	s	s	8	1	SIC	287	ABS	1	1	24MO	0	1	8.5567009449	None	None	None	None	1
1.7	2015_Jul_20_1319	s	s	8	1	SIC	288	ABS	1	2	24MD	0	1	1.63062000275	None	None	None	None	1
1.7	2015_Jul_20_1319	s	s	8	1	SIC	289	ABS	1	2	24MD	0	1	1.72394704819	None	None	None	None	1
1.7	2015_Jul_20_1319	s	s	8	1	SIC	290	ABS	1	0	24MC	0	1	3.72501897812	None	None	None	None	1
1.7	2015_Jul_20_1319	s	s	8	1	SIC	291	ABS	0	2	24RD	0	1	0.817678928375	None	None	None	None	1
1.7	2015_Jul_20_1319	s	s	8	1	SIC	292	RC	0	2	23RD	1	0	0.853771924973	-149.0	-37.0	-151	-43	1
1.7	2015_Jul_20_1319	s	s	8	1	SIC	293	ABS	0	1	24RO	0	1	7.36203408241	None	None	None	None	1
1.7	2015_Jul_20_1319	s	s	8	1	SIC	294	RC	1	0	23MC	0	1	4.83214592934	331.0	-353.0	None	None	0
1.7	2015_Jul_20_1319	s	s	8	1	SIC	295	ABS	2	2	24VD	0	1	0.959082126617	None	None	None	None	1
1.7	2015_Jul_20_1319	s	s	8	1	SIC	296	ABS	1	1	24MO	0	1	6.0437400341	None	None	None	None	1
1.7	2015_Jul_20_1319	s	s	8	1	SIC	297	RC	2	2	23VD	0	1	2.0473921299	-11.0	-77.0	None	None	0
1.7	2015_Jul_20_1319	s	s	8	1	SIC	298	ABS	2	0	24VC	0	1	1.16450595856	None	None	None	None	1
1.7	2015_Jul_20_1319	s	s	8	1	SIC	299	RC	0	1	23RO	1	0	5.46773386002	470.0	-237.0	476	-240	1
1.7	2015_Jul_20_1319	s	s	8	1	SIC	300	ABS	2	1	24VO	0	1	1.82373785973	None	None	None	None	1
1.7	2015_Jul_20_1319	s	s	8	1	SIC	301	RC	2	0	23VC	1	0	1.21903991699	217.0	26.0	222	27	1
1.7	2015_Jul_20_1319	s	s	8	1	SIC	302	RC	1	2	23MD	1	0	1.44715499878	361.0	-22.0	360	-23	1
1.7	2015_Jul_20_1319	s	s	8	1	SIC	303	RC	1	1	23MO	1	0	1.47559404373	263.0	94.0	263	99	1
1.7	2015_Jul_20_1319	s	s	8	1	SIC	304	RC	2	1	23VO	1	0	0.925998926163	-424.0	166.0	-425	162	1
1.7	2015_Jul_20_1319	s	s	8	1	SIC	305	ABS	1	2	24MD	0	1	1.41179299355	None	None	None	None	1
1.7	2015_Jul_20_1319	s	s	8	1	SIC	306	ABS	1	0	24MC	0	1	5.47266793251	None	None	None	None	1
1.7	2015_Jul_20_1319	s	s	8	1	SIC	307	RC	1	2	23MD	1	0	1.52429294586	281.0	-403.0	274	-407	1
1.7	2015_Jul_20_1319	s	s	8	1	SIC	308	ABS	2	1	24VO	0	1	1.11299109459	None	None	None	None	1
1.7	2015_Jul_20_1319	s	s	8	1	SIC	309	RC	2	2	23VD	1	0	0.724160909653	140.0	-9.0	134	-6	1
1.7	2015_Jul_20_1319	s	s	8	1	SIC	310	RC	1	0	23MC	0	1	7.09102392197	-211.0	262.0	None	None	0
1.7	2015_Jul_20_1319	s	s	8	1	SIC	311	RC	0	1	23RO	1	0	2.48963713646	472.0	-397.0	478	-399	1
1.7	2015_Jul_20_1319	s	s	8	1	SIC	312	ABS	0	1	24RO	0	1	5.99053001404	None	None	None	None	1
1.7	2015_Jul_20_1319	s	s	8	1	SIC	313	ABS	1	1	24MO	0	1	6.04938793182	None	None	None	None	1
1.7	2015_Jul_20_1319	s	s	8	1	SIC	314	RC	2	1	23VO	1	0	0.96449804306	-223.0	-106.0	-228	-106	1
1.7	2015_Jul_20_1319	s	s	8	1	SIC	315	ABS	2	0	24VC	0	1	0.964420080185	None	None	None	None	1
1.7	2015_Jul_20_1319	s	s	8	1	SIC	316	RC	2	0	23VC	1	0	1.45888900757	530.0	-134.0	527	-132	1
1.7	2015_Jul_20_1319	s	s	8	1	SIC	317	RC	0	2	23RD	1	0	1.08226799965	-301.0	-192.0	-311	-190	1
1.7	2015_Jul_20_1319	s	s	8	1	SIC	318	RC	1	1	23MO	1	0	4.98508810997	289.0	397.0	292	393	1
1.7	2015_Jul_20_1319	s	s	8	1	SIC	319	ABS	0	2	24RD	0	1	1.24702000618	None	None	None	None	1
1.7	2015_Jul_20_1319	s	s	8	1	SIC	320	ABS	2	2	24VD	0	1	0.973585128784	None	None	None	None	1
1.7	2015_Jul_20_1319	s	s	8	1	SIC	321	RC	2	0	23VC	1	0	0.764389038086	-10.0	55.0	-11	45	1
1.7	2015_Jul_20_1319	s	s	8	1	SIC	322	ABS	2	0	24VC	0	1	0.870362997055	None	None	None	None	1
1.7	2015_Jul_20_1319	s	s	8	1	SIC	323	RC	2	2	23VD	1	0	0.823349952698	-109.0	-238.0	-105	-237	1
1.7	2015_Jul_20_1319	s	s	8	1	SIC	324	RC	2	1	23VO	1	0	1.76476192474	203.0	-35.0	200	-33	1
1.7	2015_Jul_20_1319	s	s	8	1	SIC	325	ABS	0	2	24RD	0	1	1.1175069809	None	None	None	None	1
1.7	2015_Jul_20_1319	s	s	8	1	SIC	326	RC	1	2	23MD	1	0	0.787982940674	-314.0	-345.0	-310	-345	1
1.7	2015_Jul_20_1319	s	s	8	1	SIC	327	RC	1	0	23MC	0	1	3.79718899727	472.0	-165.0	None	None	0
1.7	2015_Jul_20_1319	s	s	8	1	SIC	328	RC	0	1	23RO	1	0	2.03566193581	110.0	-41.0	105	-38	1
1.7	2015_Jul_20_1319	s	s	8	1	SIC	329	RC	0	2	23RD	1	0	0.952905893326	-24.0	-246.0	-31	-249	1
1.7	2015_Jul_20_1319	s	s	8	1	SIC	330	ABS	2	2	24VD	0	1	0.724678039551	None	None	None	None	1
1.7	2015_Jul_20_1319	s	s	8	1	SIC	331	RC	1	1	23MO	1	0	1.57162714005	331.0	169.0	328	168	1
1.7	2015_Jul_20_1319	s	s	8	1	SIC	332	ABS	1	0	24MC	0	1	5.97515678406	None	None	None	None	1
1.7	2015_Jul_20_1319	s	s	8	1	SIC	333	ABS	0	1	24RO	0	1	5.11461496353	None	None	None	None	1
1.7	2015_Jul_20_1319	s	s	8	1	SIC	334	ABS	1	2	24MD	0	1	0.914642810822	None	None	None	None	1
1.7	2015_Jul_20_1319	s	s	8	1	SIC	335	ABS	1	1	24MO	0	1	6.08473801613	None	None	None	None	1
1.7	2015_Jul_20_1319	s	s	8	1	SIC	336	ABS	2	1	24VO	0	1	0.893853902817	None	None	None	None	1
1.7	2015_Jul_20_1319	s	s	8	1	SIC	337	ABS	2	2	24VD	0	1	0.787915945053	None	None	None	None	1
1.7	2015_Jul_20_1319	s	s	8	1	SIC	338	ABS	2	0	24VC	0	1	1.13784384727	None	None	None	None	1
1.7	2015_Jul_20_1319	s	s	8	1	SIC	339	ABS	1	0	24MC	0	1	5.60006690025	None	None	None	None	1
1.7	2015_Jul_20_1319	s	s	8	1	SIC	340	ABS	2	1	24VO	0	1	0.693678855896	None	None	None	None	1
1.7	2015_Jul_20_1319	s	s	8	1	SIC	341	ABS	1	1	24MO	0	1	10.3420598507	None	None	None	None	1
1.7	2015_Jul_20_1319	s	s	8	1	SIC	342	ABS	1	2	24MD	0	1	0.929215908051	None	None	None	None	1
1.7	2015_Jul_20_1319	s	s	8	1	SIC	343	RC	0	2	23RD	1	0	1.71780085564	-266.0	-126.0	-266	-132	1
1.7	2015_Jul_20_1319	s	s	8	1	SIC	344	ABS	0	2	24RD	0	1	0.940956115723	None	None	None	None	1
1.7	2015_Jul_20_1319	s	s	8	1	SIC	345	RC	1	0	23MC	1	0	6.28481006622	-519.0	-21.0	-523	-26	1
1.7	2015_Jul_20_1319	s	s	8	1	SIC	346	RC	0	1	23RO	1	0	6.30358695984	-105.0	-257.0	-96	-255	1
1.7	2015_Jul_20_1319	s	s	8	1	SIC	347	RC	2	2	23VD	1	0	1.12299895287	-350.0	-303.0	-359	-303	1
1.7	2015_Jul_20_1319	s	s	8	1	SIC	348	RC	1	1	23MO	1	0	2.4662129879	-344.0	7.0	-351	8	1
1.7	2015_Jul_20_1319	s	s	8	1	SIC	349	ABS	0	1	24RO	0	1	5.51462316513	None	None	None	None	1
1.7	2015_Jul_20_1319	s	s	8	1	SIC	350	RC	2	0	23VC	1	0	2.19551205635	-420.0	241.0	-421	248	1
1.7	2015_Jul_20_1319	s	s	8	1	SIC	351	RC	2	1	23VO	1	0	1.36453700066	439.0	366.0	433	373	1
1.7	2015_Jul_20_1319	s	s	8	1	SIC	352	RC	1	2	23MD	1	0	1.48244786263	538.0	16.0	539	23	1
1.7	2015_Jul_20_1319	s	s	8	1	SIC	353	ABS	2	1	24VO	0	1	1.04231095314	None	None	None	None	1
1.7	2015_Jul_20_1319	s	s	8	1	SIC	354	RC	0	1	23RO	1	0	1.75305008888	276.0	6.0	277	8	1
1.7	2015_Jul_20_1319	s	s	8	1	SIC	355	RC	0	2	23RD	1	0	0.98008108139	380.0	324.0	373	321	1
1.7	2015_Jul_20_1319	s	s	8	1	SIC	356	RC	2	0	23VC	1	0	0.817806005478	276.0	296.0	279	298	1
1.7	2015_Jul_20_1319	s	s	8	1	SIC	357	ABS	1	2	24MD	0	1	0.947956800461	None	None	None	None	1
1.7	2015_Jul_20_1319	s	s	8	1	SIC	358	ABS	2	0	24VC	0	1	1.58409309387	None	None	None	None	1
1.7	2015_Jul_20_1319	s	s	8	1	SIC	359	ABS	1	1	24MO	0	1	7.45687198639	None	None	None	None	1
1.7	2015_Jul_20_1319	s	s	8	1	SIC	360	RC	1	1	23MO	1	0	2.51228094101	-239.0	-405.0	-245	-404	1
1.7	2015_Jul_20_1319	s	s	8	1	SIC	361	RC	1	2	23MD	1	0	1.02720212936	234.0	108.0	237	106	1
1.7	2015_Jul_20_1319	s	s	8	1	SIC	362	ABS	1	0	24MC	0	1	3.73727798462	None	None	None	None	1
1.7	2015_Jul_20_1319	s	s	8	1	SIC	363	RC	2	2	23VD	1	0	0.940931797028	377.0	-220.0	380	-223	1
1.7	2015_Jul_20_1319	s	s	8	1	SIC	364	RC	2	1	23VO	1	0	0.776252031326	516.0	-117.0	521	-110	1
1.7	2015_Jul_20_1319	s	s	8	1	SIC	365	ABS	0	1	24RO	0	1	7.60997414589	None	None	None	None	1
1.7	2015_Jul_20_1319	s	s	8	1	SIC	366	ABS	2	2	24VD	0	1	2.58891201019	None	None	None	None	1
1.7	2015_Jul_20_1319	s	s	8	1	SIC	367	ABS	0	2	24RD	0	1	2.60921287537	None	None	None	None	1
1.7	2015_Jul_20_1319	s	s	8	1	SIC	368	RC	1	0	23MC	0	1	7.35347795486	10.0	263.0	None	None	0
1.7	2015_Jul_20_1319	s	s	8	1	SIC	369	RC	1	0	23MC	1	0	2.61243605614	-165.0	299.0	-157	303	1
1.7	2015_Jul_20_1319	s	s	8	1	SIC	370	RC	2	2	23VD	1	0	0.787976980209	-138.0	-161.0	-139	-163	1
1.7	2015_Jul_20_1319	s	s	8	1	SIC	371	ABS	1	1	24MO	0	1	6.44415807724	None	None	None	None	1
1.7	2015_Jul_20_1319	s	s	8	1	SIC	372	RC	0	2	23RD	1	0	1.18284702301	145.0	-400.0	140	-403	1
1.7	2015_Jul_20_1319	s	s	8	1	SIC	373	ABS	2	0	24VC	0	1	1.01156806946	None	None	None	None	1
1.7	2015_Jul_20_1319	s	s	8	1	SIC	374	RC	1	1	23MO	1	0	1.56485891342	118.0	309.0	116	311	1
1.7	2015_Jul_20_1319	s	s	8	1	SIC	375	ABS	0	1	24RO	0	1	8.81054902077	None	None	None	None	1
1.7	2015_Jul_20_1319	s	s	8	1	SIC	376	ABS	2	1	24VO	0	1	0.949778795242	None	None	None	None	1
1.7	2015_Jul_20_1319	s	s	8	1	SIC	377	RC	1	2	23MD	1	0	1.9607629776	-501.0	-388.0	-498	-392	1
1.7	2015_Jul_20_1319	s	s	8	1	SIC	378	ABS	0	2	24RD	0	1	2.47796082497	None	None	None	None	1
1.7	2015_Jul_20_1319	s	s	8	1	SIC	379	RC	2	1	23VO	1	0	1.09402513504	-350.0	16.0	-359	21	1
1.7	2015_Jul_20_1319	s	s	8	1	SIC	380	RC	2	0	23VC	1	0	0.776083946228	-311.0	-178.0	-311	-175	1
1.7	2015_Jul_20_1319	s	s	8	1	SIC	381	ABS	1	2	24MD	0	1	3.07757592201	None	None	None	None	1
1.7	2015_Jul_20_1319	s	s	8	1	SIC	382	ABS	2	2	24VD	0	1	0.900711774826	None	None	None	None	1
1.7	2015_Jul_20_1319	s	s	8	1	SIC	383	ABS	1	0	24MC	0	1	4.6203289032	None	None	None	None	1
1.7	2015_Jul_20_1319	s	s	8	1	SIC	384	RC	0	1	23RO	1	0	3.31907987595	68.0	-61.0	71	-56	1
1.7	2015_Jul_20_1319	s	s	8	1	SIC	385	RC	1	1	23MO	1	0	7.02628612518	523.0	-239.0	518	-235	1
1.7	2015_Jul_20_1319	s	s	8	1	SIC	386	ABS	2	2	24VD	0	1	1.1292719841	None	None	None	None	1
1.7	2015_Jul_20_1319	s	s	8	1	SIC	387	RC	2	1	23VO	1	0	1.60040307045	230.0	-115.0	236	-112	1
1.7	2015_Jul_20_1319	s	s	8	1	SIC	388	ABS	1	2	24MD	0	1	3.17744398117	None	None	None	None	1
1.7	2015_Jul_20_1319	s	s	8	1	SIC	389	RC	2	0	23VC	1	0	0.81843996048	286.0	273.0	282	277	1
1.7	2015_Jul_20_1319	s	s	8	1	SIC	390	RC	0	1	23RO	1	0	5.03711795807	-81.0	-263.0	-85	-259	1
1.7	2015_Jul_20_1319	s	s	8	1	SIC	391	ABS	1	0	24MC	0	1	6.12636399269	None	None	None	None	1
1.7	2015_Jul_20_1319	s	s	8	1	SIC	392	RC	0	2	23RD	1	0	1.25881695747	331.0	-285.0	322	-279	1
1.7	2015_Jul_20_1319	s	s	8	1	SIC	393	ABS	0	1	24RO	0	1	3.11872315407	None	None	None	None	1
1.7	2015_Jul_20_1319	s	s	8	1	SIC	394	ABS	0	2	24RD	0	1	0.888910055161	None	None	None	None	1
1.7	2015_Jul_20_1319	s	s	8	1	SIC	395	RC	1	2	23MD	1	0	0.764868021011	-129.0	65.0	-135	67	1
1.7	2015_Jul_20_1319	s	s	8	1	SIC	396	RC	2	2	23VD	1	0	0.830097913742	-381.0	266.0	-376	267	1
1.7	2015_Jul_20_1319	s	s	8	1	SIC	397	ABS	1	1	24MO	0	1	6.34358692169	None	None	None	None	1
1.7	2015_Jul_20_1319	s	s	8	1	SIC	398	RC	1	0	23MC	0	1	2.5888671875	-316.0	-68.0	None	None	0
1.7	2015_Jul_20_1319	s	s	8	1	SIC	399	ABS	2	0	24VC	0	1	1.65453696251	None	None	None	None	1
1.7	2015_Jul_20_1319	s	s	8	1	SIC	400	ABS	2	1	24VO	0	1	2.41960692406	None	None	None	None	1
1.7	2015_Jul_20_1319	s	s	8	1	SIC	401	RC	0	2	23RD	1	0	0.96448802948	355.0	81.0	358	80	1
1.7	2015_Jul_20_1319	s	s	8	1	SIC	402	RC	1	1	23MO	1	0	3.34218788147	-397.0	-203.0	-396	-199	1
1.7	2015_Jul_20_1319	s	s	8	1	SIC	403	RC	2	0	23VC	1	0	0.772150993347	448.0	188.0	450	187	1
1.7	2015_Jul_20_1319	s	s	8	1	SIC	404	ABS	1	0	24MC	0	1	1.55302500725	None	None	None	None	1
1.7	2015_Jul_20_1319	s	s	8	1	SIC	405	ABS	0	2	24RD	0	1	0.783031225204	None	None	None	None	1
1.7	2015_Jul_20_1319	s	s	8	1	SIC	406	ABS	2	0	24VC	0	1	1.21165204048	None	None	None	None	1
1.7	2015_Jul_20_1319	s	s	8	1	SIC	407	ABS	2	2	24VD	0	1	0.724182128906	None	None	None	None	1
1.7	2015_Jul_20_1319	s	s	8	1	SIC	408	ABS	2	1	24VO	0	1	1.18818187714	None	None	None	None	1
1.7	2015_Jul_20_1319	s	s	8	1	SIC	409	RC	1	2	23MD	1	0	0.976436853409	-109.0	-289.0	-102	-288	1
1.7	2015_Jul_20_1319	s	s	8	1	SIC	410	RC	2	1	23VO	1	0	0.84220290184	344.0	-305.0	347	-301	1
1.7	2015_Jul_20_1319	s	s	8	1	SIC	411	RC	0	1	23RO	1	0	4.1259829998	-65.0	-334.0	-64	-333	1
1.7	2015_Jul_20_1319	s	s	8	1	SIC	412	ABS	1	1	24MO	0	1	5.70329403877	None	None	None	None	1
1.7	2015_Jul_20_1319	s	s	8	1	SIC	413	ABS	1	2	24MD	0	1	1.02339196205	None	None	None	None	1
1.7	2015_Jul_20_1319	s	s	8	1	SIC	414	ABS	0	1	24RO	0	1	9.18041992188	None	None	None	None	1
1.7	2015_Jul_20_1319	s	s	8	1	SIC	415	RC	2	2	23VD	1	0	1.39504384995	-258.0	309.0	-258	308	1
1.7	2015_Jul_20_1319	s	s	8	1	SIC	416	RC	1	0	23MC	0	1	3.91618800163	423.0	376.0	None	None	0
1.7	2015_Jul_20_1319	s	s	8	1	SIC	417	RC	0	2	23RD	1	0	1.08216691017	435.0	196.0	432	204	1
1.7	2015_Jul_20_1319	s	s	8	1	SIC	418	ABS	1	1	24MO	0	1	4.99540185928	None	None	None	None	1
1.7	2015_Jul_20_1319	s	s	8	1	SIC	419	ABS	0	2	24RD	0	1	1.54129099846	None	None	None	None	1
1.7	2015_Jul_20_1319	s	s	8	1	SIC	420	RC	1	2	23MD	1	0	0.811579942703	17.0	274.0	11	273	1
1.7	2015_Jul_20_1319	s	s	8	1	SIC	421	ABS	2	2	24VD	0	1	0.776206970215	None	None	None	None	1
1.7	2015_Jul_20_1319	s	s	8	1	SIC	422	ABS	2	0	24VC	0	1	0.841838121414	None	None	None	None	1
1.7	2015_Jul_20_1319	s	s	8	1	SIC	423	RC	2	1	23VO	1	0	0.917484998703	533.0	-330.0	532	-330	1
1.7	2015_Jul_20_1319	s	s	8	1	SIC	424	ABS	1	0	24MC	0	1	1.65901112556	None	None	None	None	1
1.7	2015_Jul_20_1319	s	s	8	1	SIC	425	ABS	0	1	24RO	0	1	4.33777093887	None	None	None	None	1
1.7	2015_Jul_20_1319	s	s	8	1	SIC	426	RC	1	0	23MC	1	0	3.96362900734	456.0	24.0	460	26	1
1.7	2015_Jul_20_1319	s	s	8	1	SIC	427	RC	2	2	23VD	1	0	0.771497011185	217.0	-348.0	218	-346	1
1.7	2015_Jul_20_1319	s	s	8	1	SIC	428	ABS	1	2	24MD	0	1	1.06592488289	None	None	None	None	1
1.7	2015_Jul_20_1319	s	s	8	1	SIC	429	RC	1	1	23MO	1	0	2.48979902267	66.0	357.0	66	350	1
1.7	2015_Jul_20_1319	s	s	8	1	SIC	430	RC	0	1	23RO	0	1	4.30420780182	4.0	156.0	None	None	0
1.7	2015_Jul_20_1319	s	s	8	1	SIC	431	ABS	2	1	24VO	0	1	0.888234853745	None	None	None	None	1
1.7	2015_Jul_20_1319	s	s	8	1	SIC	432	RC	2	0	23VC	1	0	0.752628087997	23.0	-349.0	27	-340	1
1.7	2015_Jul_20_1319	s	s	8	1	SIC	433	RC	1	2	23MD	1	0	0.726422071457	-65.0	32.0	-56	31	1
1.7	2015_Jul_20_1319	s	s	8	1	SIC	434	RC	1	1	23MO	1	0	1.97259306908	166.0	322.0	174	326	1
1.7	2015_Jul_20_1319	s	s	8	1	SIC	435	ABS	0	2	24RD	0	1	0.900611162186	None	None	None	None	1
1.7	2015_Jul_20_1319	s	s	8	1	SIC	436	RC	0	2	23RD	1	0	0.941024065018	-303.0	-298.0	-301	-296	1
1.7	2015_Jul_20_1319	s	s	8	1	SIC	437	RC	1	0	23MC	0	1	7.00974202156	1.0	138.0	None	None	0
1.7	2015_Jul_20_1319	s	s	8	1	SIC	438	ABS	2	2	24VD	0	1	0.717339992523	None	None	None	None	1
1.7	2015_Jul_20_1319	s	s	8	1	SIC	439	ABS	1	2	24MD	0	1	1.06626296043	None	None	None	None	1
1.7	2015_Jul_20_1319	s	s	8	1	SIC	440	ABS	2	0	24VC	0	1	0.741465091705	None	None	None	None	1
1.7	2015_Jul_20_1319	s	s	8	1	SIC	441	RC	2	0	23VC	1	0	0.935016870499	81.0	234.0	79	230	1
1.7	2015_Jul_20_1319	s	s	8	1	SIC	442	RC	0	1	23RO	1	0	4.77320098877	448.0	252.0	445	255	1
1.7	2015_Jul_20_1319	s	s	8	1	SIC	443	ABS	0	1	24RO	0	1	4.0013229847	None	None	None	None	1
1.7	2015_Jul_20_1319	s	s	8	1	SIC	444	ABS	1	1	24MO	0	1	2.70190811157	None	None	None	None	1
1.7	2015_Jul_20_1319	s	s	8	1	SIC	445	ABS	2	1	24VO	0	1	0.787943124771	None	None	None	None	1
1.7	2015_Jul_20_1319	s	s	8	1	SIC	446	RC	2	2	23VD	1	0	0.936141967773	-332.0	-370.0	-338	-372	1
1.7	2015_Jul_20_1319	s	s	8	1	SIC	447	ABS	1	0	24MC	0	1	5.25567889214	None	None	None	None	1
1.7	2015_Jul_20_1319	s	s	8	1	SIC	448	RC	2	1	23VO	1	0	0.759579896927	189.0	-253.0	189	-252	1
1.7	2015_Jul_20_1319	s	s	8	1	SIC	449	ABS	2	0	24VC	0	1	1.45402598381	None	None	None	None	1
1.7	2015_Jul_20_1319	s	s	8	1	SIC	450	ABS	2	2	24VD	0	1	1.82048296928	None	None	None	None	1
1.7	2015_Jul_20_1319	s	s	8	1	SIC	451	RC	2	0	23VC	1	0	0.68202495575	-468.0	-113.0	-463	-114	1
1.7	2015_Jul_20_1319	s	s	8	1	SIC	452	RC	2	1	23VO	1	0	1.2566947937	-397.0	207.0	-400	202	1
1.7	2015_Jul_20_1319	s	s	8	1	SIC	453	ABS	0	1	24RO	0	1	4.50382399559	None	None	None	None	1
1.7	2015_Jul_20_1319	s	s	8	1	SIC	454	RC	1	1	23MO	1	0	2.19550204277	-385.0	99.0	-384	107	1
1.7	2015_Jul_20_1319	s	s	8	1	SIC	455	ABS	0	2	24RD	0	1	1.14114809036	None	None	None	None	1
1.7	2015_Jul_20_1319	s	s	8	1	SIC	456	ABS	1	1	24MO	0	1	6.38768315315	None	None	None	None	1
1.7	2015_Jul_20_1319	s	s	8	1	SIC	457	ABS	1	0	24MC	0	1	1.9954419136	None	None	None	None	1
1.7	2015_Jul_20_1319	s	s	8	1	SIC	458	RC	1	0	23MC	1	0	2.51822590828	179.0	245.0	184	242	1
1.7	2015_Jul_20_1319	s	s	8	1	SIC	459	RC	1	2	23MD	1	0	1.09400320053	-490.0	-9.0	-485	-14	1
1.7	2015_Jul_20_1319	s	s	8	1	SIC	460	RC	0	2	23RD	1	0	0.701823949814	72.0	39.0	74	41	1
1.7	2015_Jul_20_1319	s	s	8	1	SIC	461	ABS	2	1	24VO	0	1	0.746253013611	None	None	None	None	1
1.7	2015_Jul_20_1319	s	s	8	1	SIC	462	RC	0	1	23RO	1	0	4.91450691223	-521.0	334.0	-533	335	1
1.7	2015_Jul_20_1319	s	s	8	1	SIC	463	RC	2	2	23VD	1	0	0.705586910248	174.0	358.0	177	354	1
1.7	2015_Jul_20_1319	s	s	8	1	SIC	464	ABS	1	2	24MD	0	1	2.32984089851	None	None	None	None	1
1.7	2015_Jul_20_1319	s	s	8	1	SIC	465	ABS	2	2	24VD	0	1	0.988087892532	None	None	None	None	1
1.7	2015_Jul_20_1319	s	s	8	1	SIC	466	RC	0	2	23RD	1	0	0.799781084061	464.0	148.0	465	149	1
1.7	2015_Jul_20_1319	s	s	8	1	SIC	467	ABS	1	1	24MO	0	1	4.14942407608	None	None	None	None	1
1.7	2015_Jul_20_1319	s	s	8	1	SIC	468	RC	2	0	23VC	1	0	0.944847822189	421.0	233.0	418	235	1
1.7	2015_Jul_20_1319	s	s	8	1	SIC	469	ABS	0	1	24RO	0	1	8.36312007904	None	None	None	None	1
1.7	2015_Jul_20_1319	s	s	8	1	SIC	470	RC	0	1	23RO	1	0	5.30295300484	79.0	-301.0	80	-300	1
1.7	2015_Jul_20_1319	s	s	8	1	SIC	471	ABS	1	0	24MC	0	1	1.98853898048	None	None	None	None	1
1.7	2015_Jul_20_1319	s	s	8	1	SIC	472	RC	2	1	23VO	1	0	0.835044145584	-22.0	45.0	-24	40	1
1.7	2015_Jul_20_1319	s	s	8	1	SIC	473	RC	2	2	23VD	1	0	0.712540149689	-383.0	202.0	-385	203	1
1.7	2015_Jul_20_1319	s	s	8	1	SIC	474	RC	1	0	23MC	0	1	1.09404301643	461.0	206.0	None	None	0
1.7	2015_Jul_20_1319	s	s	8	1	SIC	475	RC	1	1	23MO	1	0	1.61194086075	125.0	335.0	122	336	1
1.7	2015_Jul_20_1319	s	s	8	1	SIC	476	RC	1	2	23MD	1	0	0.948431968689	231.0	-220.0	233	-212	1
1.7	2015_Jul_20_1319	s	s	8	1	SIC	477	ABS	1	2	24MD	0	1	2.78398299217	None	None	None	None	1
1.7	2015_Jul_20_1319	s	s	8	1	SIC	478	ABS	2	0	24VC	0	1	0.950191020966	None	None	None	None	1
1.7	2015_Jul_20_1319	s	s	8	1	SIC	479	ABS	0	2	24RD	0	1	4.49084305763	None	None	None	None	1
1.7	2015_Jul_20_1319	s	s	8	1	SIC	480	ABS	2	1	24VO	0	1	4.46039509773	None	None	None	None	1
1.7	2015_Jul_20_1319	s	s	8	1	SIC	481	ABS	1	1	24MO	0	1	8.02205014229	None	None	None	None	1
1.7	2015_Jul_20_1319	s	s	8	1	SIC	482	RC	0	1	23RO	0	1	4.82257390022	412.0	-289.0	None	None	0
1.7	2015_Jul_20_1319	s	s	8	1	SIC	483	RC	0	2	23RD	1	0	0.999871015549	-68.0	217.0	-74	222	1
1.7	2015_Jul_20_1319	s	s	8	1	SIC	484	RC	1	2	23MD	1	0	1.41862988472	356.0	-216.0	352	-209	1
1.7	2015_Jul_20_1319	s	s	8	1	SIC	485	ABS	1	0	24MC	0	1	1.34118008614	None	None	None	None	1
1.7	2015_Jul_20_1319	s	s	8	1	SIC	486	ABS	2	0	24VC	0	1	1.18821001053	None	None	None	None	1
1.7	2015_Jul_20_1319	s	s	8	1	SIC	487	RC	1	0	23MC	0	1	6.69722890854	50.0	-303.0	None	None	0
1.7	2015_Jul_20_1319	s	s	8	1	SIC	488	ABS	2	2	24VD	0	1	0.677901029587	None	None	None	None	1
1.7	2015_Jul_20_1319	s	s	8	1	SIC	489	RC	1	1	23MO	1	0	2.0002951622	-295.0	12.0	-296	8	1
1.7	2015_Jul_20_1319	s	s	8	1	SIC	490	RC	2	1	23VO	1	0	0.735301971436	-165.0	347.0	-155	346	1
1.7	2015_Jul_20_1319	s	s	8	1	SIC	491	ABS	1	2	24MD	0	1	0.92396402359	None	None	None	None	1
1.7	2015_Jul_20_1319	s	s	8	1	SIC	492	ABS	2	1	24VO	0	1	1.43324708939	None	None	None	None	1
1.7	2015_Jul_20_1319	s	s	8	1	SIC	493	RC	2	2	23VD	1	0	0.752739906311	196.0	405.0	197	408	1
1.7	2015_Jul_20_1319	s	s	8	1	SIC	494	ABS	0	1	24RO	0	1	7.56349897385	None	None	None	None	1
1.7	2015_Jul_20_1319	s	s	8	1	SIC	495	RC	2	0	23VC	1	0	0.929208040237	480.0	350.0	475	349	1
1.7	2015_Jul_20_1319	s	s	8	1	SIC	496	ABS	0	2	24RD	0	1	1.04196810722	None	None	None	None	1
1.7	2015_Jul_20_1319	s	s	8	1	SIC	497	ABS	0	1	24RO	0	1	5.84705281258	None	None	None	None	1
1.7	2015_Jul_20_1319	s	s	8	1	SIC	498	ABS	1	2	24MD	0	1	2.17459106445	None	None	None	None	1
1.7	2015_Jul_20_1319	s	s	8	1	SIC	499	RC	2	1	23VO	1	0	0.811470031738	-490.0	119.0	-487	123	1
1.7	2015_Jul_20_1319	s	s	8	1	SIC	500	ABS	1	1	24MO	0	1	6.53206014633	None	None	None	None	1
1.7	2015_Jul_20_1319	s	s	8	1	SIC	501	RC	1	1	23MO	1	0	2.36522984505	-143.0	-85.0	-135	-86	1
1.7	2015_Jul_20_1319	s	s	8	1	SIC	502	RC	0	1	23RO	1	0	1.23034691811	180.0	83.0	185	83	1
1.7	2015_Jul_20_1319	s	s	8	1	SIC	503	RC	2	2	23VD	1	0	0.762011051178	39.0	185.0	35	187	1
1.7	2015_Jul_20_1319	s	s	8	1	SIC	504	ABS	1	0	24MC	0	1	4.36629390717	None	None	None	None	1
1.7	2015_Jul_20_1319	s	s	8	1	SIC	505	RC	1	2	23MD	1	0	0.626940965652	19.0	146.0	21	146	1
1.7	2015_Jul_20_1319	s	s	8	1	SIC	506	ABS	2	0	24VC	0	1	1.35295987129	None	None	None	None	1
1.7	2015_Jul_20_1319	s	s	8	1	SIC	507	RC	1	0	23MC	0	1	5.29603600502	-128.0	372.0	None	None	0
1.7	2015_Jul_20_1319	s	s	8	1	SIC	508	RC	0	2	23RD	1	0	1.46591210365	-16.0	-320.0	-11	-313	1
1.7	2015_Jul_20_1319	s	s	8	1	SIC	509	ABS	2	1	24VO	0	1	1.09397292137	None	None	None	None	1
1.7	2015_Jul_20_1319	s	s	8	1	SIC	510	RC	2	0	23VC	1	0	1.30101394653	256.0	368.0	254	372	1
1.7	2015_Jul_20_1319	s	s	8	1	SIC	511	ABS	2	2	24VD	0	1	2.18374109268	None	None	None	None	1
1.7	2015_Jul_20_1319	s	s	8	1	SIC	512	ABS	0	2	24RD	0	1	1.5829000473	None	None	None	None	1
1.7	2015_Jul_20_1319	s	s	8	1	SIC	513	RC	0	1	23RO	1	0	1.68257188797	-20.0	-13.0	-18	-17	1
1.7	2015_Jul_20_1319	s	s	8	1	SIC	514	RC	1	1	23MO	1	0	2.36519694328	493.0	-15.0	492	-11	1
1.7	2015_Jul_20_1319	s	s	8	1	SIC	515	RC	1	0	23MC	0	1	4.67902684212	446.0	91.0	None	None	0
1.7	2015_Jul_20_1319	s	s	8	1	SIC	516	RC	0	2	23RD	1	0	0.776149988174	-110.0	215.0	-118	210	1
1.7	2015_Jul_20_1319	s	s	8	1	SIC	517	ABS	0	1	24RO	0	1	5.54995703697	None	None	None	None	1
1.7	2015_Jul_20_1319	s	s	8	1	SIC	518	RC	2	2	23VD	1	0	0.885943174362	-93.0	-340.0	-87	-338	1
1.7	2015_Jul_20_1319	s	s	8	1	SIC	519	ABS	2	2	24VD	0	1	1.25370383263	None	None	None	None	1
1.7	2015_Jul_20_1319	s	s	8	1	SIC	520	ABS	2	0	24VC	0	1	2.15337896347	None	None	None	None	1
1.7	2015_Jul_20_1319	s	s	8	1	SIC	521	ABS	0	2	24RD	0	1	1.25879597664	None	None	None	None	1
1.7	2015_Jul_20_1319	s	s	8	1	SIC	522	RC	2	1	23VO	1	0	0.827075004578	274.0	-19.0	272	-15	1
1.7	2015_Jul_20_1319	s	s	8	1	SIC	523	ABS	1	0	24MC	0	1	3.51367783546	None	None	None	None	1
1.7	2015_Jul_20_1319	s	s	8	1	SIC	524	ABS	1	1	24MO	0	1	4.9398829937	None	None	None	None	1
1.7	2015_Jul_20_1319	s	s	8	1	SIC	525	ABS	2	1	24VO	0	1	0.823286056519	None	None	None	None	1
1.7	2015_Jul_20_1319	s	s	8	1	SIC	526	RC	2	0	23VC	1	0	0.844388008118	225.0	-393.0	225	-394	1
1.7	2015_Jul_20_1319	s	s	8	1	SIC	527	ABS	1	2	24MD	0	1	2.25428009033	None	None	None	None	1
1.7	2015_Jul_20_1319	s	s	8	1	SIC	528	RC	1	2	23MD	1	0	0.797346830368	147.0	-82.0	142	-79	1
1.7	2015_Jul_20_1319	s	s	8	1	SIC	529	RC	0	1	23RO	1	0	3.84806895256	-298.0	366.0	-287	366	1
1.7	2015_Jul_20_1319	s	s	8	1	SIC	530	RC	1	1	23MO	1	0	5.53147006035	497.0	-288.0	500	-287	1
1.7	2015_Jul_20_1319	s	s	8	1	SIC	531	RC	0	2	23RD	1	0	0.834884881973	-185.0	-263.0	-185	-262	1
1.7	2015_Jul_20_1319	s	s	8	1	SIC	532	RC	1	0	23MC	0	1	3.34805297852	381.0	70.0	None	None	0
1.7	2015_Jul_20_1319	s	s	8	1	SIC	533	ABS	2	2	24VD	0	1	0.803569078445	None	None	None	None	1
1.7	2015_Jul_20_1319	s	s	8	1	SIC	534	RC	1	2	23MD	1	0	1.01189613342	404.0	234.0	401	232	1
1.7	2015_Jul_20_1319	s	s	8	1	SIC	535	RC	2	1	23VO	1	0	1.07866001129	486.0	-284.0	494	-286	1
1.7	2015_Jul_20_1319	s	s	8	1	SIC	536	ABS	2	1	24VO	0	1	2.10161304474	None	None	None	None	1
1.7	2015_Jul_20_1319	s	s	8	1	SIC	537	ABS	1	2	24MD	0	1	1.01893806458	None	None	None	None	1
1.7	2015_Jul_20_1319	s	s	8	1	SIC	538	RC	2	2	23VD	1	0	0.700445175171	425.0	92.0	428	98	1
1.7	2015_Jul_20_1319	s	s	8	1	SIC	539	ABS	2	0	24VC	0	1	0.850656032562	None	None	None	None	1
1.7	2015_Jul_20_1319	s	s	8	1	SIC	540	RC	2	0	23VC	1	0	0.832864999771	-55.0	-231.0	-55	-226	1
1.7	2015_Jul_20_1319	s	s	8	1	SIC	541	ABS	1	0	24MC	0	1	2.65709614754	None	None	None	None	1
1.7	2015_Jul_20_1319	s	s	8	1	SIC	542	ABS	0	2	24RD	0	1	0.865254878998	None	None	None	None	1
1.7	2015_Jul_20_1319	s	s	8	1	SIC	543	ABS	1	1	24MO	0	1	1.31293511391	None	None	None	None	1
1.7	2015_Jul_20_1319	s	s	8	1	SIC	544	ABS	0	1	24RO	0	1	5.6021270752	None	None	None	None	1
1.7	2015_Jul_20_1319	s	s	8	1	SIC	545	ABS	0	2	24RD	0	1	0.752669811249	None	None	None	None	1
1.7	2015_Jul_20_1319	s	s	8	1	SIC	546	RC	2	2	23VD	1	0	1.05066084862	429.0	389.0	435	391	1
1.7	2015_Jul_20_1319	s	s	8	1	SIC	547	RC	1	1	23MO	1	0	2.81246995926	-345.0	-240.0	-342	-237	1
1.7	2015_Jul_20_1319	s	s	8	1	SIC	548	ABS	2	0	24VC	0	1	0.811483860016	None	None	None	None	1
1.7	2015_Jul_20_1319	s	s	8	1	SIC	549	ABS	1	0	24MC	0	1	1.52996397018	None	None	None	None	1
1.7	2015_Jul_20_1319	s	s	8	1	SIC	550	ABS	1	1	24MO	0	1	4.74670004845	None	None	None	None	1
1.7	2015_Jul_20_1319	s	s	8	1	SIC	551	RC	2	0	23VC	1	0	1.57296895981	-32.0	-283.0	-32	-284	1
1.7	2015_Jul_20_1319	s	s	8	1	SIC	552	ABS	2	1	24VO	0	1	2.81886386871	None	None	None	None	1
1.7	2015_Jul_20_1319	s	s	8	1	SIC	553	ABS	2	2	24VD	0	1	0.76433801651	None	None	None	None	1
1.7	2015_Jul_20_1319	s	s	8	1	SIC	554	RC	0	2	23RD	1	0	0.882082939148	-477.0	-68.0	-484	-65	1
1.7	2015_Jul_20_1319	s	s	8	1	SIC	555	RC	0	1	23RO	1	0	0.976238012314	-250.0	-79.0	-243	-76	1
1.7	2015_Jul_20_1319	s	s	8	1	SIC	556	RC	1	0	23MC	0	1	5.90817093849	275.0	101.0	None	None	0
1.7	2015_Jul_20_1319	s	s	8	1	SIC	557	ABS	0	1	24RO	0	1	7.17459893227	None	None	None	None	1
1.7	2015_Jul_20_1319	s	s	8	1	SIC	558	ABS	1	2	24MD	0	1	3.35392689705	None	None	None	None	1
1.7	2015_Jul_20_1319	s	s	8	1	SIC	559	RC	1	2	23MD	1	0	1.2067759037	-510.0	272.0	-505	270	1
1.7	2015_Jul_20_1319	s	s	8	1	SIC	560	RC	2	1	23VO	1	0	0.705559015274	-442.0	285.0	-437	290	1
1.7	2015_Jul_20_1319	s	s	8	1	SIC	561	RC	2	2	23VD	1	0	0.717613935471	315.0	-82.0	313	-77	1
1.7	2015_Jul_20_1319	s	s	8	1	SIC	562	ABS	0	1	24RO	0	1	6.13175606728	None	None	None	None	1
1.7	2015_Jul_20_1319	s	s	8	1	SIC	563	RC	2	1	23VO	1	0	0.891674041748	244.0	-293.0	246	-291	1
1.7	2015_Jul_20_1319	s	s	8	1	SIC	564	RC	1	1	23MO	1	0	1.27057409286	337.0	43.0	329	52	1
1.7	2015_Jul_20_1319	s	s	8	1	SIC	565	RC	2	0	23VC	1	0	0.599665164948	310.0	-22.0	304	-25	1
1.7	2015_Jul_20_1319	s	s	8	1	SIC	566	ABS	2	2	24VD	0	1	0.855381965637	None	None	None	None	1
1.7	2015_Jul_20_1319	s	s	8	1	SIC	567	RC	1	2	23MD	1	0	0.693778991699	344.0	21.0	345	26	1
1.7	2015_Jul_20_1319	s	s	8	1	SIC	568	ABS	1	1	24MO	0	1	3.7896001339	None	None	None	None	1
1.7	2015_Jul_20_1319	s	s	8	1	SIC	569	RC	0	2	23RD	1	0	0.80664396286	499.0	160.0	507	163	1
1.7	2015_Jul_20_1319	s	s	8	1	SIC	570	ABS	2	0	24VC	0	1	0.799729824066	None	None	None	None	1
1.7	2015_Jul_20_1319	s	s	8	1	SIC	571	RC	0	1	23RO	1	0	2.02065587044	317.0	-404.0	317	-402	1
1.7	2015_Jul_20_1319	s	s	8	1	SIC	572	ABS	1	2	24MD	0	1	0.853616952896	None	None	None	None	1
1.7	2015_Jul_20_1319	s	s	8	1	SIC	573	ABS	1	0	24MC	0	1	2.16019415855	None	None	None	None	1
1.7	2015_Jul_20_1319	s	s	8	1	SIC	574	ABS	2	1	24VO	0	1	0.764474868774	None	None	None	None	1
1.7	2015_Jul_20_1319	s	s	8	1	SIC	575	RC	1	0	23MC	0	1	5.37847304344	358.0	-257.0	None	None	0
1.7	2015_Jul_20_1319	s	s	8	1	SIC	576	ABS	0	2	24RD	0	1	0.830296993256	None	None	None	None	1
1.7	2015_Jul_20_1319	s	s	8	1	SIC	577	ABS	1	1	24MO	0	1	5.39993596077	None	None	None	None	1
1.7	2015_Jul_20_1319	s	s	8	1	SIC	578	ABS	0	1	24RO	0	1	7.46851682663	None	None	None	None	1
1.7	2015_Jul_20_1319	s	s	8	1	SIC	579	ABS	2	1	24VO	0	1	0.905738115311	None	None	None	None	1
1.7	2015_Jul_20_1319	s	s	8	1	SIC	580	RC	2	0	23VC	1	0	0.900177001953	-165.0	-75.0	-167	-75	1
1.7	2015_Jul_20_1319	s	s	8	1	SIC	581	RC	2	2	23VD	1	0	0.653450012207	111.0	-318.0	100	-318	1
1.7	2015_Jul_20_1319	s	s	8	1	SIC	582	RC	0	1	23RO	0	1	6.05575013161	384.0	304.0	None	None	0
1.7	2015_Jul_20_1319	s	s	8	1	SIC	583	RC	2	1	23VO	1	0	1.07739400864	-410.0	-297.0	-420	-296	1
1.7	2015_Jul_20_1319	s	s	8	1	SIC	584	RC	0	2	23RD	1	0	1.12387800217	139.0	359.0	148	355	1
1.7	2015_Jul_20_1319	s	s	8	1	SIC	585	RC	1	2	23MD	1	0	0.771399021149	-172.0	-155.0	-174	-152	1
1.7	2015_Jul_20_1319	s	s	8	1	SIC	586	ABS	2	0	24VC	0	1	0.994928121567	None	None	None	None	1
1.7	2015_Jul_20_1319	s	s	8	1	SIC	587	RC	1	1	23MO	1	0	3.56190013885	-148.0	-412.0	-144	-408	1
1.7	2015_Jul_20_1319	s	s	8	1	SIC	588	RC	1	0	23MC	1	0	2.6076259613	-44.0	98.0	-40	103	1
1.7	2015_Jul_20_1319	s	s	8	1	SIC	589	ABS	0	2	24RD	0	1	0.846829891205	None	None	None	None	1
1.7	2015_Jul_20_1319	s	s	8	1	SIC	590	ABS	2	2	24VD	0	1	0.724624872208	None	None	None	None	1
1.7	2015_Jul_20_1319	s	s	8	1	SIC	591	ABS	1	0	24MC	0	1	2.58884000778	None	None	None	None	1
1.7	2015_Jul_20_1319	s	s	8	1	SIC	592	ABS	1	2	24MD	0	1	0.700663089752	None	None	None	None	1
