Version	Date	Stimuli	Method	Subject	Session	Condition	Trial	Target	Channel1	Channel2	Distractors	LMouseButton	RMouseButton	RT	TargetX	TargetY	ResponseX	ResponseY	Correct
1.7	2015_Jul_21_1302	s	s	8	2	Capacity	1	ABS	2	0	24VC	0	1	8.39837884903	None	None	None	None	1
1.7	2015_Jul_21_1302	s	s	8	2	Capacity	2	RC	2	0	23VC	1	0	0.983097791672	-310.0	-53.0	-309	-49	1
1.7	2015_Jul_21_1302	s	s	8	2	Capacity	3	RC	1	0	23MC	1	0	3.45982980728	-15.0	-133.0	-20	-134	1
1.7	2015_Jul_21_1302	s	s	8	2	Capacity	4	ABS	1	0	24MC	0	1	3.50695919991	None	None	None	None	1
1.7	2015_Jul_21_1302	s	s	8	2	Capacity	5	ABS	2	0	24VC	0	1	1.05874204636	None	None	None	None	1
1.7	2015_Jul_21_1302	s	s	8	2	Capacity	6	RC	1	0	23MC	1	0	5.56418395042	272.0	372.0	-7	-1	0
1.7	2015_Jul_21_1302	s	s	8	2	Capacity	7	RC	2	0	23VC	1	0	1.91793894768	-332.0	-204.0	-328	-209	1
1.7	2015_Jul_21_1302	s	s	8	2	Capacity	8	ABS	1	0	24MC	1	0	3.64371681213	None	None	486	-382	0
1.7	2015_Jul_21_1302	s	s	8	2	Capacity	9	RC	1	0	23MC	1	0	3.61945581436	294.0	-88.0	286	-83	1
1.7	2015_Jul_21_1302	s	s	8	2	Capacity	10	ABS	2	0	24VC	0	1	1.29404711723	None	None	None	None	1
1.7	2015_Jul_21_1302	s	s	8	2	Capacity	11	ABS	1	0	24MC	0	1	4.87937092781	None	None	None	None	1
1.7	2015_Jul_21_1302	s	s	8	2	Capacity	12	RC	2	0	23VC	1	0	0.929188966751	-139.0	326.0	-140	328	1
1.7	2015_Jul_21_1302	s	s	8	2	Capacity	13	RC	1	0	23MC	1	0	2.16512989998	172.0	-109.0	172	-109	1
1.7	2015_Jul_21_1302	s	s	8	2	Capacity	14	RC	2	0	23VC	1	0	0.959530115128	-210.0	-16.0	-217	-14	1
1.7	2015_Jul_21_1302	s	s	8	2	Capacity	15	ABS	1	0	24MC	0	1	2.90399885178	None	None	None	None	1
1.7	2015_Jul_21_1302	s	s	8	2	Capacity	16	ABS	2	0	24VC	0	1	1.07710695267	None	None	None	None	1
1.7	2015_Jul_21_1302	s	s	8	2	Capacity	17	RC	1	0	23MC	1	0	2.84782195091	-198.0	-270.0	-194	-261	1
1.7	2015_Jul_21_1302	s	s	8	2	Capacity	18	RC	2	0	23VC	1	0	0.958160161972	297.0	235.0	299	236	1
1.7	2015_Jul_21_1302	s	s	8	2	Capacity	19	ABS	2	0	24VC	0	1	1.22340989113	None	None	None	None	1
1.7	2015_Jul_21_1302	s	s	8	2	Capacity	20	ABS	1	0	24MC	0	1	4.91940999031	None	None	None	None	1
1.7	2015_Jul_21_1302	s	s	8	2	Capacity	21	RC	2	0	23VC	1	0	0.923704147339	-526.0	-170.0	-521	-167	1
1.7	2015_Jul_21_1302	s	s	8	2	Capacity	22	RC	1	0	23MC	0	1	6.9877948761	397.0	347.0	None	None	0
1.7	2015_Jul_21_1302	s	s	8	2	Capacity	23	ABS	1	0	24MC	0	1	6.32013392448	None	None	None	None	1
1.7	2015_Jul_21_1302	s	s	8	2	Capacity	24	ABS	2	0	24VC	0	1	1.7365629673	None	None	None	None	1
1.7	2015_Jul_21_1302	s	s	8	2	Capacity	25	ABS	2	0	24VC	0	1	1.24257683754	None	None	None	None	1
1.7	2015_Jul_21_1302	s	s	8	2	Capacity	26	RC	1	0	23MC	1	0	2.65462398529	215.0	-45.0	222	-46	1
1.7	2015_Jul_21_1302	s	s	8	2	Capacity	27	ABS	1	0	24MC	0	1	1.75100803375	None	None	None	None	1
1.7	2015_Jul_21_1302	s	s	8	2	Capacity	28	RC	2	0	23VC	1	0	0.818279981613	271.0	10.0	270	10	1
1.7	2015_Jul_21_1302	s	s	8	2	Capacity	29	RC	1	0	23MC	1	0	3.24004817009	352.0	-377.0	347	-374	1
1.7	2015_Jul_21_1302	s	s	8	2	Capacity	30	RC	2	0	23VC	1	0	0.799619913101	-57.0	-141.0	-63	-137	1
1.7	2015_Jul_21_1302	s	s	8	2	Capacity	31	ABS	2	0	24VC	0	1	0.811593770981	None	None	None	None	1
1.7	2015_Jul_21_1302	s	s	8	2	Capacity	32	ABS	1	0	24MC	0	1	1.96502900124	None	None	None	None	1
1.7	2015_Jul_21_1302	s	s	8	2	Capacity	33	ABS	2	0	24VC	0	1	1.83557987213	None	None	None	None	1
1.7	2015_Jul_21_1302	s	s	8	2	Capacity	34	ABS	1	0	24MC	0	1	5.67272305489	None	None	None	None	1
1.7	2015_Jul_21_1302	s	s	8	2	Capacity	35	RC	2	0	23VC	1	0	0.852595090866	-368.0	-124.0	-370	-125	1
1.7	2015_Jul_21_1302	s	s	8	2	Capacity	36	RC	1	0	23MC	1	0	4.29053878784	228.0	373.0	228	365	1
1.7	2015_Jul_21_1302	s	s	8	2	Capacity	37	ABS	2	0	24VC	0	1	0.914002895355	None	None	None	None	1
1.7	2015_Jul_21_1302	s	s	8	2	Capacity	38	RC	2	0	23VC	1	0	0.996196985245	-187.0	-382.0	-182	-373	1
1.7	2015_Jul_21_1302	s	s	8	2	Capacity	39	RC	1	0	23MC	1	0	4.90268707275	439.0	183.0	440	186	1
1.7	2015_Jul_21_1302	s	s	8	2	Capacity	40	ABS	1	0	24MC	0	1	2.8713388443	None	None	None	None	1
1.7	2015_Jul_21_1302	s	s	8	2	Capacity	41	ABS	2	0	24VC	0	1	1.2941570282	None	None	None	None	1
1.7	2015_Jul_21_1302	s	s	8	2	Capacity	42	RC	2	0	23VC	1	0	1.35983705521	310.0	202.0	312	206	1
1.7	2015_Jul_21_1302	s	s	8	2	Capacity	43	RC	1	0	23MC	1	0	2.4750161171	-249.0	346.0	-251	345	1
1.7	2015_Jul_21_1302	s	s	8	2	Capacity	44	ABS	1	0	24MC	0	1	4.60856080055	None	None	None	None	1
1.7	2015_Jul_21_1302	s	s	8	2	Capacity	45	ABS	2	0	24VC	0	1	0.823268175125	None	None	None	None	1
1.7	2015_Jul_21_1302	s	s	8	2	Capacity	46	ABS	1	0	24MC	0	1	5.4844379425	None	None	None	None	1
1.7	2015_Jul_21_1302	s	s	8	2	Capacity	47	RC	2	0	23VC	1	0	1.02998113632	118.0	-264.0	119	-263	1
1.7	2015_Jul_21_1302	s	s	8	2	Capacity	48	RC	1	0	23MC	1	0	6.17404794693	-176.0	-336.0	-181	-337	1
1.7	2015_Jul_21_1302	s	s	8	2	Capacity	49	ABS	2	0	24VC	0	1	1.15982294083	None	None	None	None	1
1.7	2015_Jul_21_1302	s	s	8	2	Capacity	50	ABS	1	0	24MC	0	1	3.5726981163	None	None	None	None	1
1.7	2015_Jul_21_1302	s	s	8	2	Capacity	51	RC	1	0	23MC	1	0	3.27155900002	373.0	-223.0	373	-217	1
1.7	2015_Jul_21_1302	s	s	8	2	Capacity	52	RC	2	0	23VC	1	0	0.976227045059	370.0	248.0	364	245	1
1.7	2015_Jul_21_1302	s	s	8	2	Capacity	53	RC	1	0	23MC	1	0	6.25637221336	-210.0	-312.0	-221	-308	1
1.7	2015_Jul_21_1302	s	s	8	2	Capacity	54	RC	2	0	23VC	1	0	0.964490890503	-537.0	39.0	-540	40	1
1.7	2015_Jul_21_1302	s	s	8	2	Capacity	55	ABS	2	0	24VC	0	1	3.01984500885	None	None	None	None	1
1.7	2015_Jul_21_1302	s	s	8	2	Capacity	56	ABS	1	0	24MC	0	1	6.19730997086	None	None	None	None	1
1.7	2015_Jul_21_1302	s	s	8	2	Capacity	57	ABS	1	0	24MC	0	1	4.84889411926	None	None	None	None	1
1.7	2015_Jul_21_1302	s	s	8	2	Capacity	58	RC	2	0	23VC	1	0	0.923620939255	-286.0	360.0	-287	353	1
1.7	2015_Jul_21_1302	s	s	8	2	Capacity	59	RC	1	0	23MC	1	0	5.62058091164	-528.0	34.0	-531	37	1
1.7	2015_Jul_21_1302	s	s	8	2	Capacity	60	ABS	2	0	24VC	0	1	0.811461210251	None	None	None	None	1
1.7	2015_Jul_21_1302	s	s	8	2	Capacity	61	ABS	1	0	24MC	1	0	8.32799005508	None	None	185	-103	0
1.7	2015_Jul_21_1302	s	s	8	2	Capacity	62	ABS	2	0	24VC	0	1	0.749511003494	None	None	None	None	1
1.7	2015_Jul_21_1302	s	s	8	2	Capacity	63	RC	2	0	23VC	1	0	0.971334934235	219.0	292.0	226	294	1
1.7	2015_Jul_21_1302	s	s	8	2	Capacity	64	RC	1	0	23MC	1	0	5.84393596649	-161.0	-385.0	-162	-388	1
1.7	2015_Jul_21_1302	s	s	8	2	Capacity	65	ABS	1	0	24MC	0	1	2.46620702744	None	None	None	None	1
1.7	2015_Jul_21_1302	s	s	8	2	Capacity	66	RC	2	0	23VC	1	0	0.71723484993	-272.0	6.0	-278	13	1
1.7	2015_Jul_21_1302	s	s	8	2	Capacity	67	RC	1	0	23MC	1	0	2.0356400013	-24.0	358.0	-17	356	1
1.7	2015_Jul_21_1302	s	s	8	2	Capacity	68	ABS	2	0	24VC	0	1	1.64255714417	None	None	None	None	1
1.7	2015_Jul_21_1302	s	s	8	2	Capacity	69	RC	1	0	23MC	1	0	4.88082814217	514.0	347.0	515	344	1
1.7	2015_Jul_21_1302	s	s	8	2	Capacity	70	ABS	1	0	24MC	0	1	2.92531085014	None	None	None	None	1
1.7	2015_Jul_21_1302	s	s	8	2	Capacity	71	RC	2	0	23VC	1	0	0.702348947525	-262.0	-139.0	-265	-134	1
1.7	2015_Jul_21_1302	s	s	8	2	Capacity	72	ABS	2	0	24VC	0	1	0.982388019562	None	None	None	None	1
1.7	2015_Jul_21_1302	s	s	8	2	Capacity	73	ABS	2	0	24VC	0	1	2.67811107635	None	None	None	None	1
1.7	2015_Jul_21_1302	s	s	8	2	Capacity	74	RC	1	0	23MC	1	0	4.63186812401	-82.0	243.0	-86	232	1
1.7	2015_Jul_21_1302	s	s	8	2	Capacity	75	RC	2	0	23VC	1	0	0.952660083771	-72.0	-126.0	-67	-129	1
1.7	2015_Jul_21_1302	s	s	8	2	Capacity	76	ABS	1	0	24MC	0	1	4.21966791153	None	None	None	None	1
1.7	2015_Jul_21_1302	s	s	8	2	Capacity	77	ABS	1	0	24MC	0	1	6.21417498589	None	None	None	None	1
1.7	2015_Jul_21_1302	s	s	8	2	Capacity	78	ABS	2	0	24VC	0	1	1.92971205711	None	None	None	None	1
1.7	2015_Jul_21_1302	s	s	8	2	Capacity	79	RC	1	0	23MC	1	0	7.52810192108	-366.0	-320.0	-369	-316	1
1.7	2015_Jul_21_1302	s	s	8	2	Capacity	80	RC	2	0	23VC	1	0	1.14114999771	256.0	314.0	261	312	1
1.7	2015_Jul_21_1302	s	s	8	2	Capacity	81	RC	2	0	23VC	1	0	0.818328857422	-392.0	-409.0	-392	-404	1
1.7	2015_Jul_21_1302	s	s	8	2	Capacity	82	RC	1	0	23MC	1	0	3.61029815674	396.0	218.0	399	217	1
1.7	2015_Jul_21_1302	s	s	8	2	Capacity	83	ABS	2	0	24VC	0	1	2.12566995621	None	None	None	None	1
1.7	2015_Jul_21_1302	s	s	8	2	Capacity	84	ABS	1	0	24MC	0	1	4.25752711296	None	None	None	None	1
1.7	2015_Jul_21_1302	s	s	8	2	Capacity	85	ABS	1	0	24MC	0	1	4.19630599022	None	None	None	None	1
1.7	2015_Jul_21_1302	s	s	8	2	Capacity	86	RC	1	0	23MC	1	0	7.58003497124	-478.0	-90.0	-482	-84	1
1.7	2015_Jul_21_1302	s	s	8	2	Capacity	87	ABS	2	0	24VC	0	1	0.811474084854	None	None	None	None	1
1.7	2015_Jul_21_1302	s	s	8	2	Capacity	88	RC	2	0	23VC	1	0	0.705512046814	61.0	334.0	53	339	1
1.7	2015_Jul_21_1302	s	s	8	2	Capacity	89	ABS	2	0	24VC	0	1	1.46559596062	None	None	None	None	1
1.7	2015_Jul_21_1302	s	s	8	2	Capacity	90	ABS	1	0	24MC	0	1	6.65918302536	None	None	None	None	1
1.7	2015_Jul_21_1302	s	s	8	2	Capacity	91	RC	1	0	23MC	1	0	4.53095507622	36.0	-280.0	46	-274	1
1.7	2015_Jul_21_1302	s	s	8	2	Capacity	92	RC	2	0	23VC	1	0	0.747151136398	198.0	31.0	192	38	1
1.7	2015_Jul_21_1302	s	s	8	2	Capacity	1	ABS	0	1	24RO	0	1	5.42554712296	None	None	None	None	1
1.7	2015_Jul_21_1302	s	s	8	2	Capacity	2	RC	0	1	23RO	1	0	4.87017583847	93.0	152.0	97	148	1
1.7	2015_Jul_21_1302	s	s	8	2	Capacity	3	RC	0	2	23RD	1	0	1.03513097763	272.0	-370.0	275	-372	1
1.7	2015_Jul_21_1302	s	s	8	2	Capacity	4	ABS	0	2	24RD	0	1	1.80011701584	None	None	None	None	1
1.7	2015_Jul_21_1302	s	s	8	2	Capacity	5	RC	0	1	23RO	1	0	2.25925302505	-332.0	339.0	-326	340	1
1.7	2015_Jul_21_1302	s	s	8	2	Capacity	6	RC	0	2	23RD	1	0	0.794714927673	-116.0	195.0	-117	193	1
1.7	2015_Jul_21_1302	s	s	8	2	Capacity	7	ABS	0	2	24RD	0	1	2.50130701065	None	None	None	None	1
1.7	2015_Jul_21_1302	s	s	8	2	Capacity	8	ABS	0	1	24RO	0	1	7.0031349659	None	None	None	None	1
1.7	2015_Jul_21_1302	s	s	8	2	Capacity	9	RC	0	1	23RO	0	1	6.29171705246	-22.0	-366.0	None	None	0
1.7	2015_Jul_21_1302	s	s	8	2	Capacity	10	ABS	0	1	24RO	0	1	7.63850688934	None	None	None	None	1
1.7	2015_Jul_21_1302	s	s	8	2	Capacity	11	RC	0	2	23RD	1	0	0.867358922958	-337.0	-391.0	-333	-395	1
1.7	2015_Jul_21_1302	s	s	8	2	Capacity	12	ABS	0	2	24RD	0	1	2.65945005417	None	None	None	None	1
1.7	2015_Jul_21_1302	s	s	8	2	Capacity	13	RC	0	2	23RD	1	0	0.870344877243	289.0	290.0	286	290	1
1.7	2015_Jul_21_1302	s	s	8	2	Capacity	14	ABS	0	1	24RO	0	1	7.6506049633	None	None	None	None	1
1.7	2015_Jul_21_1302	s	s	8	2	Capacity	15	ABS	0	2	24RD	0	1	3.47858500481	None	None	None	None	1
1.7	2015_Jul_21_1302	s	s	8	2	Capacity	16	RC	0	1	23RO	1	0	3.72739911079	-277.0	347.0	-282	341	1
1.7	2015_Jul_21_1302	s	s	8	2	Capacity	17	RC	0	1	23RO	1	0	2.86759209633	-67.0	90.0	-65	94	1
1.7	2015_Jul_21_1302	s	s	8	2	Capacity	18	ABS	0	1	24RO	0	1	8.8864338398	None	None	None	None	1
1.7	2015_Jul_21_1302	s	s	8	2	Capacity	19	ABS	0	2	24RD	0	1	2.20700478554	None	None	None	None	1
1.7	2015_Jul_21_1302	s	s	8	2	Capacity	20	RC	0	2	23RD	1	0	1.09107804298	350.0	-376.0	357	-382	1
1.7	2015_Jul_21_1302	s	s	8	2	Capacity	21	RC	0	1	23RO	1	0	6.07005500793	-24.0	-357.0	-17	-360	1
1.7	2015_Jul_21_1302	s	s	8	2	Capacity	22	ABS	0	1	24RO	0	1	5.7870759964	None	None	None	None	1
1.7	2015_Jul_21_1302	s	s	8	2	Capacity	23	ABS	0	2	24RD	0	1	1.92725682259	None	None	None	None	1
1.7	2015_Jul_21_1302	s	s	8	2	Capacity	24	RC	0	2	23RD	1	0	1.05349802971	-155.0	-244.0	-159	-236	1
1.7	2015_Jul_21_1302	s	s	8	2	Capacity	25	RC	0	1	23RO	0	1	7.53249883652	375.0	283.0	None	None	0
1.7	2015_Jul_21_1302	s	s	8	2	Capacity	26	ABS	0	1	24RO	0	1	9.27452588081	None	None	None	None	1
1.7	2015_Jul_21_1302	s	s	8	2	Capacity	27	ABS	0	2	24RD	0	1	4.07855701447	None	None	None	None	1
1.7	2015_Jul_21_1302	s	s	8	2	Capacity	28	RC	0	2	23RD	1	0	1.11237716675	351.0	55.0	357	56	1
1.7	2015_Jul_21_1302	s	s	8	2	Capacity	29	RC	0	1	23RO	1	0	4.4250638485	-218.0	-192.0	-222	-189	1
1.7	2015_Jul_21_1302	s	s	8	2	Capacity	30	ABS	0	2	24RD	0	1	2.52618002892	None	None	None	None	1
1.7	2015_Jul_21_1302	s	s	8	2	Capacity	31	ABS	0	1	24RO	0	1	9.39230394363	None	None	None	None	1
1.7	2015_Jul_21_1302	s	s	8	2	Capacity	32	RC	0	2	23RD	1	0	0.865038871765	-479.0	-348.0	-476	-349	1
1.7	2015_Jul_21_1302	s	s	8	2	Capacity	33	ABS	0	2	24RD	0	1	1.841807127	None	None	None	None	1
1.7	2015_Jul_21_1302	s	s	8	2	Capacity	34	RC	0	1	23RO	1	0	1.69428896904	-178.0	196.0	-180	202	1
1.7	2015_Jul_21_1302	s	s	8	2	Capacity	35	RC	0	2	23RD	1	0	0.82328414917	-77.0	-30.0	-75	-29	1
1.7	2015_Jul_21_1302	s	s	8	2	Capacity	36	ABS	0	1	24RO	0	1	6.89192390442	None	None	None	None	1
1.7	2015_Jul_21_1302	s	s	8	2	Capacity	37	RC	0	1	23RO	1	0	2.88979005814	-513.0	50.0	-517	50	1
1.7	2015_Jul_21_1302	s	s	8	2	Capacity	38	ABS	0	1	24RO	0	1	6.96194005013	None	None	None	None	1
1.7	2015_Jul_21_1302	s	s	8	2	Capacity	39	RC	0	2	23RD	1	0	1.48245692253	119.0	-307.0	127	-303	1
1.7	2015_Jul_21_1302	s	s	8	2	Capacity	40	ABS	0	2	24RD	0	1	1.22345995903	None	None	None	None	1
1.7	2015_Jul_21_1302	s	s	8	2	Capacity	41	RC	0	1	23RO	1	0	6.04926800728	418.0	261.0	429	268	1
1.7	2015_Jul_21_1302	s	s	8	2	Capacity	42	ABS	0	2	24RD	0	1	2.13642096519	None	None	None	None	1
1.7	2015_Jul_21_1302	s	s	8	2	Capacity	43	RC	0	2	23RD	1	0	0.999846935272	307.0	-237.0	309	-233	1
1.7	2015_Jul_21_1302	s	s	8	2	Capacity	44	ABS	0	1	24RO	0	1	7.89240908623	None	None	None	None	1
1.7	2015_Jul_21_1302	s	s	8	2	Capacity	45	RC	0	2	23RD	1	0	0.835051059723	529.0	281.0	533	276	1
1.7	2015_Jul_21_1302	s	s	8	2	Capacity	46	ABS	0	1	24RO	0	1	7.77725195885	None	None	None	None	1
1.7	2015_Jul_21_1302	s	s	8	2	Capacity	47	RC	0	1	23RO	1	0	2.99588608742	-468.0	-289.0	-476	-288	1
1.7	2015_Jul_21_1302	s	s	8	2	Capacity	48	ABS	0	2	24RD	0	1	1.5229818821	None	None	None	None	1
1.7	2015_Jul_21_1302	s	s	8	2	Capacity	49	RC	0	2	23RD	1	0	0.82005906105	314.0	68.0	316	70	1
1.7	2015_Jul_21_1302	s	s	8	2	Capacity	50	ABS	0	1	24RO	0	1	7.02638101578	None	None	None	None	1
1.7	2015_Jul_21_1302	s	s	8	2	Capacity	51	RC	0	1	23RO	1	0	1.96226096153	354.0	-392.0	361	-392	1
1.7	2015_Jul_21_1302	s	s	8	2	Capacity	52	ABS	0	2	24RD	0	1	2.39530396461	None	None	None	None	1
1.7	2015_Jul_21_1302	s	s	8	2	Capacity	53	ABS	0	1	24RO	0	1	7.57162284851	None	None	None	None	1
1.7	2015_Jul_21_1302	s	s	8	2	Capacity	54	ABS	0	2	24RD	0	1	1.96259903908	None	None	None	None	1
1.7	2015_Jul_21_1302	s	s	8	2	Capacity	55	RC	0	2	23RD	1	0	0.94087100029	155.0	-42.0	156	-39	1
1.7	2015_Jul_21_1302	s	s	8	2	Capacity	56	RC	0	1	23RO	0	1	8.01247501373	-48.0	-213.0	None	None	0
1.7	2015_Jul_21_1302	s	s	8	2	Capacity	57	ABS	0	2	24RD	0	1	2.19564199448	None	None	None	None	1
1.7	2015_Jul_21_1302	s	s	8	2	Capacity	58	ABS	0	1	24RO	0	1	9.63944292068	None	None	None	None	1
1.7	2015_Jul_21_1302	s	s	8	2	Capacity	59	RC	0	2	23RD	1	0	1.11750102043	473.0	1.0	479	6	1
1.7	2015_Jul_21_1302	s	s	8	2	Capacity	60	RC	0	1	23RO	1	0	8.86258792877	97.0	-242.0	103	-243	1
1.7	2015_Jul_21_1302	s	s	8	2	Capacity	61	ABS	0	2	24RD	0	1	1.64722490311	None	None	None	None	1
1.7	2015_Jul_21_1302	s	s	8	2	Capacity	62	RC	0	1	23RO	1	0	1.80704593658	-478.0	-14.0	-484	-13	1
1.7	2015_Jul_21_1302	s	s	8	2	Capacity	63	RC	0	2	23RD	1	0	1.42351007462	-413.0	228.0	-414	224	1
1.7	2015_Jul_21_1302	s	s	8	2	Capacity	64	ABS	0	1	24RO	0	1	11.5175089836	None	None	None	None	1
1.7	2015_Jul_21_1302	s	s	8	2	Capacity	65	RC	0	1	23RO	1	0	3.83113622665	-160.0	292.0	-156	300	1
1.7	2015_Jul_21_1302	s	s	8	2	Capacity	66	RC	0	2	23RD	1	0	0.999788999557	538.0	327.0	535	334	1
1.7	2015_Jul_21_1302	s	s	8	2	Capacity	67	ABS	0	2	24RD	0	1	3.96180891991	None	None	None	None	1
1.7	2015_Jul_21_1302	s	s	8	2	Capacity	68	ABS	0	1	24RO	0	1	10.875371933	None	None	None	None	1
1.7	2015_Jul_21_1302	s	s	8	2	Capacity	69	ABS	0	2	24RD	0	1	3.6129181385	None	None	None	None	1
1.7	2015_Jul_21_1302	s	s	8	2	Capacity	70	RC	0	2	23RD	1	0	1.15281915665	370.0	-164.0	372	-164	1
1.7	2015_Jul_21_1302	s	s	8	2	Capacity	71	ABS	0	1	24RO	0	1	7.71759915352	None	None	None	None	1
1.7	2015_Jul_21_1302	s	s	8	2	Capacity	72	RC	0	1	23RO	1	0	2.17716908455	-422.0	-172.0	-427	-179	1
1.7	2015_Jul_21_1302	s	s	8	2	Capacity	73	RC	0	2	23RD	1	0	0.925473213196	-172.0	-206.0	-171	-202	1
1.7	2015_Jul_21_1302	s	s	8	2	Capacity	74	ABS	0	2	24RD	0	1	2.35342812538	None	None	None	None	1
1.7	2015_Jul_21_1302	s	s	8	2	Capacity	75	RC	0	1	23RO	1	0	2.24270510674	-220.0	354.0	-223	351	1
1.7	2015_Jul_21_1302	s	s	8	2	Capacity	76	ABS	0	1	24RO	0	1	9.67203211784	None	None	None	None	1
1.7	2015_Jul_21_1302	s	s	8	2	Capacity	77	ABS	0	1	24RO	0	1	8.3211209774	None	None	None	None	1
1.7	2015_Jul_21_1302	s	s	8	2	Capacity	78	RC	0	2	23RD	1	0	0.805852890015	128.0	328.0	135	336	1
1.7	2015_Jul_21_1302	s	s	8	2	Capacity	79	ABS	0	2	24RD	0	1	0.94798207283	None	None	None	None	1
1.7	2015_Jul_21_1302	s	s	8	2	Capacity	80	RC	0	1	23RO	1	0	5.84420800209	392.0	244.0	390	247	1
1.7	2015_Jul_21_1302	s	s	8	2	Capacity	81	ABS	0	1	24RO	0	1	5.86784982681	None	None	None	None	1
1.7	2015_Jul_21_1302	s	s	8	2	Capacity	82	RC	0	2	23RD	1	0	0.841115951538	-239.0	-308.0	-240	-305	1
1.7	2015_Jul_21_1302	s	s	8	2	Capacity	83	ABS	0	2	24RD	0	1	1.8827009201	None	None	None	None	1
1.7	2015_Jul_21_1302	s	s	8	2	Capacity	84	RC	0	1	23RO	1	0	2.15333890915	-39.0	141.0	-37	143	1
1.7	2015_Jul_21_1302	s	s	8	2	Capacity	85	ABS	0	2	24RD	0	1	1.61878609657	None	None	None	None	1
1.7	2015_Jul_21_1302	s	s	8	2	Capacity	86	RC	0	2	23RD	1	0	0.809126853943	-81.0	-56.0	-75	-52	1
1.7	2015_Jul_21_1302	s	s	8	2	Capacity	87	RC	0	1	23RO	1	0	2.17209196091	457.0	-17.0	462	-10	1
1.7	2015_Jul_21_1302	s	s	8	2	Capacity	88	ABS	0	1	24RO	0	1	7.79999399185	None	None	None	None	1
1.7	2015_Jul_21_1302	s	s	8	2	Capacity	89	ABS	0	1	24RO	0	1	10.8607149124	None	None	None	None	1
1.7	2015_Jul_21_1302	s	s	8	2	Capacity	90	RC	0	1	23RO	1	0	1.40668988228	78.0	292.0	80	295	1
1.7	2015_Jul_21_1302	s	s	8	2	Capacity	91	ABS	0	2	24RD	0	1	1.8002269268	None	None	None	None	1
1.7	2015_Jul_21_1302	s	s	8	2	Capacity	92	RC	0	2	23RD	1	0	1.89437699318	-12.0	396.0	-10	397	1
1.7	2015_Jul_21_1302	s	s	8	2	SIC	1	ABS	0	2	24RD	0	1	1.37204122543	None	None	None	None	1
1.7	2015_Jul_21_1302	s	s	8	2	SIC	2	RC	1	1	23MO	1	0	5.67274308205	503.0	-392.0	506	-389	1
1.7	2015_Jul_21_1302	s	s	8	2	SIC	3	RC	2	2	23VD	1	0	0.634814023972	86.0	3.0	91	4	1
1.7	2015_Jul_21_1302	s	s	8	2	SIC	4	ABS	1	0	24MC	0	1	6.50850510597	None	None	None	None	1
1.7	2015_Jul_21_1302	s	s	8	2	SIC	5	ABS	2	0	24VC	0	1	0.799642086029	None	None	None	None	1
1.7	2015_Jul_21_1302	s	s	8	2	SIC	6	RC	0	2	23RD	1	0	1.12467885017	-280.0	289.0	-281	285	1
1.7	2015_Jul_21_1302	s	s	8	2	SIC	7	RC	2	1	23VO	1	0	0.653533935547	-294.0	379.0	-293	384	1
1.7	2015_Jul_21_1302	s	s	8	2	SIC	8	ABS	1	1	24MO	0	1	7.33916401863	None	None	None	None	1
1.7	2015_Jul_21_1302	s	s	8	2	SIC	9	ABS	2	2	24VD	0	1	0.818696022034	None	None	None	None	1
1.7	2015_Jul_21_1302	s	s	8	2	SIC	10	RC	2	0	23VC	1	0	0.894207954407	136.0	-229.0	131	-224	1
1.7	2015_Jul_21_1302	s	s	8	2	SIC	11	RC	1	0	23MC	1	0	3.07768106461	-348.0	382.0	-345	387	1
1.7	2015_Jul_21_1302	s	s	8	2	SIC	12	ABS	0	1	24RO	0	1	7.56781387329	None	None	None	None	1
1.7	2015_Jul_21_1302	s	s	8	2	SIC	13	RC	0	1	23RO	0	1	8.1210000515	-322.0	-253.0	None	None	0
1.7	2015_Jul_21_1302	s	s	8	2	SIC	14	ABS	1	2	24MD	0	1	1.14797782898	None	None	None	None	1
1.7	2015_Jul_21_1302	s	s	8	2	SIC	15	ABS	2	1	24VO	0	1	0.941383123398	None	None	None	None	1
1.7	2015_Jul_21_1302	s	s	8	2	SIC	16	RC	1	2	23MD	1	0	0.912937164307	-96.0	358.0	-91	358	1
1.7	2015_Jul_21_1302	s	s	8	2	SIC	17	RC	2	0	23VC	1	0	0.917373895645	-267.0	-229.0	-261	-227	1
1.7	2015_Jul_21_1302	s	s	8	2	SIC	18	RC	1	1	23MO	1	0	1.85346508026	138.0	-392.0	142	-394	1
1.7	2015_Jul_21_1302	s	s	8	2	SIC	19	ABS	0	2	24RD	0	1	1.50077199936	None	None	None	None	1
1.7	2015_Jul_21_1302	s	s	8	2	SIC	20	ABS	2	2	24VD	0	1	0.759518861771	None	None	None	None	1
1.7	2015_Jul_21_1302	s	s	8	2	SIC	21	RC	0	1	23RO	1	0	2.57435107231	-242.0	-384.0	-235	-383	1
1.7	2015_Jul_21_1302	s	s	8	2	SIC	22	ABS	1	1	24MO	0	1	11.2048840523	None	None	None	None	1
1.7	2015_Jul_21_1302	s	s	8	2	SIC	23	ABS	1	0	24MC	0	1	6.3976252079	None	None	None	None	1
1.7	2015_Jul_21_1302	s	s	8	2	SIC	24	ABS	2	1	24VO	0	1	1.91792798042	None	None	None	None	1
1.7	2015_Jul_21_1302	s	s	8	2	SIC	25	RC	1	2	23MD	1	0	1.23041582108	80.0	44.0	82	44	1
1.7	2015_Jul_21_1302	s	s	8	2	SIC	26	ABS	2	0	24VC	0	1	0.8078789711	None	None	None	None	1
1.7	2015_Jul_21_1302	s	s	8	2	SIC	27	ABS	0	1	24RO	0	1	9.52831411362	None	None	None	None	1
1.7	2015_Jul_21_1302	s	s	8	2	SIC	28	RC	1	0	23MC	1	0	3.27839398384	-43.0	60.0	-42	57	1
1.7	2015_Jul_21_1302	s	s	8	2	SIC	29	RC	0	2	23RD	1	0	0.831465959549	-69.0	-16.0	-68	-11	1
1.7	2015_Jul_21_1302	s	s	8	2	SIC	30	RC	2	1	23VO	1	0	1.20560407639	212.0	-259.0	216	-264	1
1.7	2015_Jul_21_1302	s	s	8	2	SIC	31	ABS	1	2	24MD	0	1	1.74130487442	None	None	None	None	1
1.7	2015_Jul_21_1302	s	s	8	2	SIC	32	RC	2	2	23VD	1	0	0.670279026031	-120.0	-123.0	-115	-119	1
1.7	2015_Jul_21_1302	s	s	8	2	SIC	33	RC	1	1	23MO	1	0	2.13657712936	-500.0	372.0	-505	374	1
1.7	2015_Jul_21_1302	s	s	8	2	SIC	34	RC	1	2	23MD	1	0	0.740874052048	236.0	409.0	229	413	1
1.7	2015_Jul_21_1302	s	s	8	2	SIC	35	RC	2	0	23VC	1	0	0.749931812286	-134.0	-260.0	-125	-257	1
1.7	2015_Jul_21_1302	s	s	8	2	SIC	36	ABS	1	2	24MD	0	1	1.08233118057	None	None	None	None	1
1.7	2015_Jul_21_1302	s	s	8	2	SIC	37	ABS	1	1	24MO	0	1	8.78645706177	None	None	None	None	1
1.7	2015_Jul_21_1302	s	s	8	2	SIC	38	RC	0	1	23RO	1	0	1.65407013893	-195.0	287.0	-195	290	1
1.7	2015_Jul_21_1302	s	s	8	2	SIC	39	RC	2	2	23VD	1	0	0.714668035507	301.0	305.0	302	305	1
1.7	2015_Jul_21_1302	s	s	8	2	SIC	40	ABS	2	2	24VD	0	1	1.12689709663	None	None	None	None	1
1.7	2015_Jul_21_1302	s	s	8	2	SIC	41	RC	2	1	23VO	1	0	0.723827123642	18.0	276.0	20	282	1
1.7	2015_Jul_21_1302	s	s	8	2	SIC	42	RC	1	0	23MC	1	0	9.25767588615	280.0	-267.0	284	-269	1
1.7	2015_Jul_21_1302	s	s	8	2	SIC	43	ABS	0	2	24RD	0	1	1.45872306824	None	None	None	None	1
1.7	2015_Jul_21_1302	s	s	8	2	SIC	44	ABS	2	1	24VO	0	1	1.07048296928	None	None	None	None	1
1.7	2015_Jul_21_1302	s	s	8	2	SIC	45	ABS	1	0	24MC	0	1	5.17190504074	None	None	None	None	1
1.7	2015_Jul_21_1302	s	s	8	2	SIC	46	RC	0	2	23RD	1	0	0.917448997498	-403.0	393.0	-402	399	1
1.7	2015_Jul_21_1302	s	s	8	2	SIC	47	ABS	2	0	24VC	0	1	1.07750916481	None	None	None	None	1
1.7	2015_Jul_21_1302	s	s	8	2	SIC	48	ABS	0	1	24RO	0	1	7.07343316078	None	None	None	None	1
1.7	2015_Jul_21_1302	s	s	8	2	SIC	49	ABS	1	2	24MD	0	1	1.07046508789	None	None	None	None	1
1.7	2015_Jul_21_1302	s	s	8	2	SIC	50	ABS	0	1	24RO	0	1	8.03859710693	None	None	None	None	1
1.7	2015_Jul_21_1302	s	s	8	2	SIC	51	RC	2	0	23VC	1	0	1.35292983055	147.0	-302.0	145	-295	1
1.7	2015_Jul_21_1302	s	s	8	2	SIC	52	RC	1	0	23MC	1	0	3.51458907127	413.0	75.0	417	74	1
1.7	2015_Jul_21_1302	s	s	8	2	SIC	53	ABS	2	2	24VD	0	1	0.818556070328	None	None	None	None	1
1.7	2015_Jul_21_1302	s	s	8	2	SIC	54	RC	1	1	23MO	1	0	0.888767957687	54.0	106.0	51	112	1
1.7	2015_Jul_21_1302	s	s	8	2	SIC	55	ABS	2	1	24VO	0	1	1.03306484222	None	None	None	None	1
1.7	2015_Jul_21_1302	s	s	8	2	SIC	56	RC	0	2	23RD	1	0	0.817726135254	-14.0	-86.0	-8	-80	1
1.7	2015_Jul_21_1302	s	s	8	2	SIC	57	ABS	1	0	24MC	0	1	4.47892808914	None	None	None	None	1
1.7	2015_Jul_21_1302	s	s	8	2	SIC	58	RC	0	1	23RO	1	0	2.68298792839	-470.0	289.0	-468	295	1
1.7	2015_Jul_21_1302	s	s	8	2	SIC	59	RC	2	1	23VO	1	0	0.68881893158	-259.0	77.0	-255	76	1
1.7	2015_Jul_21_1302	s	s	8	2	SIC	60	RC	1	2	23MD	1	0	0.714914083481	-357.0	28.0	-350	30	1
1.7	2015_Jul_21_1302	s	s	8	2	SIC	61	ABS	0	2	24RD	0	1	2.12588191032	None	None	None	None	1
1.7	2015_Jul_21_1302	s	s	8	2	SIC	62	ABS	2	0	24VC	0	1	1.65386795998	None	None	None	None	1
1.7	2015_Jul_21_1302	s	s	8	2	SIC	63	RC	2	2	23VD	1	0	1.57654809952	-246.0	-337.0	-239	-336	1
1.7	2015_Jul_21_1302	s	s	8	2	SIC	64	ABS	1	1	24MO	0	1	7.10886478424	None	None	None	None	1
1.7	2015_Jul_21_1302	s	s	8	2	SIC	65	RC	2	2	23VD	1	0	0.78790307045	-245.0	-103.0	-242	-101	1
1.7	2015_Jul_21_1302	s	s	8	2	SIC	66	ABS	0	2	24RD	0	1	1.63542318344	None	None	None	None	1
1.7	2015_Jul_21_1302	s	s	8	2	SIC	67	RC	1	1	23MO	1	0	1.11265182495	-378.0	-282.0	-383	-280	1
1.7	2015_Jul_21_1302	s	s	8	2	SIC	68	RC	1	0	23MC	1	0	6.62624001503	-478.0	389.0	-476	390	1
1.7	2015_Jul_21_1302	s	s	8	2	SIC	69	ABS	1	2	24MD	0	1	1.28763914108	None	None	None	None	1
1.7	2015_Jul_21_1302	s	s	8	2	SIC	70	ABS	1	1	24MO	0	1	9.28115701675	None	None	None	None	1
1.7	2015_Jul_21_1302	s	s	8	2	SIC	71	RC	0	2	23RD	1	0	0.902213096619	299.0	399.0	302	403	1
1.7	2015_Jul_21_1302	s	s	8	2	SIC	72	ABS	1	0	24MC	0	1	5.53150701523	None	None	None	None	1
1.7	2015_Jul_21_1302	s	s	8	2	SIC	73	ABS	2	1	24VO	0	1	1.18816518784	None	None	None	None	1
1.7	2015_Jul_21_1302	s	s	8	2	SIC	74	ABS	2	2	24VD	0	1	1.55298900604	None	None	None	None	1
1.7	2015_Jul_21_1302	s	s	8	2	SIC	75	ABS	2	0	24VC	0	1	1.3456530571	None	None	None	None	1
1.7	2015_Jul_21_1302	s	s	8	2	SIC	76	RC	0	1	23RO	1	0	3.00990486145	-431.0	313.0	-433	313	1
1.7	2015_Jul_21_1302	s	s	8	2	SIC	77	RC	2	1	23VO	1	0	0.705564975739	-316.0	192.0	-311	198	1
1.7	2015_Jul_21_1302	s	s	8	2	SIC	78	ABS	0	1	24RO	0	1	9.56317090988	None	None	None	None	1
1.7	2015_Jul_21_1302	s	s	8	2	SIC	79	RC	1	2	23MD	1	0	0.724112987518	-414.0	113.0	-412	113	1
1.7	2015_Jul_21_1302	s	s	8	2	SIC	80	RC	2	0	23VC	1	0	1.05374598503	-446.0	-410.0	-449	-411	1
1.7	2015_Jul_21_1302	s	s	8	2	SIC	81	RC	0	1	23RO	1	0	1.4234790802	-344.0	396.0	-347	390	1
1.7	2015_Jul_21_1302	s	s	8	2	SIC	82	RC	2	0	23VC	1	0	1.04349398613	539.0	-135.0	537	-134	1
1.7	2015_Jul_21_1302	s	s	8	2	SIC	83	RC	1	0	23MC	1	0	10.2009890079	379.0	82.0	383	90	1
1.7	2015_Jul_21_1302	s	s	8	2	SIC	84	ABS	0	2	24RD	0	1	1.27057981491	None	None	None	None	1
1.7	2015_Jul_21_1302	s	s	8	2	SIC	85	RC	1	1	23MO	1	0	3.45529794693	-519.0	-206.0	-518	-203	1
1.7	2015_Jul_21_1302	s	s	8	2	SIC	86	ABS	0	1	24RO	0	1	7.0330080986	None	None	None	None	1
1.7	2015_Jul_21_1302	s	s	8	2	SIC	87	ABS	2	1	24VO	0	1	1.00675296783	None	None	None	None	1
1.7	2015_Jul_21_1302	s	s	8	2	SIC	88	RC	1	2	23MD	1	0	0.88893699646	111.0	309.0	110	313	1
1.7	2015_Jul_21_1302	s	s	8	2	SIC	89	RC	2	1	23VO	1	0	0.629944086075	-70.0	143.0	-73	145	1
1.7	2015_Jul_21_1302	s	s	8	2	SIC	90	RC	2	2	23VD	1	0	0.689024925232	190.0	87.0	193	89	1
1.7	2015_Jul_21_1302	s	s	8	2	SIC	91	RC	0	2	23RD	1	0	0.729024887085	-333.0	342.0	-331	341	1
1.7	2015_Jul_21_1302	s	s	8	2	SIC	92	ABS	1	1	24MO	0	1	10.7171800137	None	None	None	None	1
1.7	2015_Jul_21_1302	s	s	8	2	SIC	93	ABS	1	0	24MC	0	1	6.07293391228	None	None	None	None	1
1.7	2015_Jul_21_1302	s	s	8	2	SIC	94	ABS	1	2	24MD	0	1	0.853647947311	None	None	None	None	1
1.7	2015_Jul_21_1302	s	s	8	2	SIC	95	ABS	2	0	24VC	0	1	0.811517000198	None	None	None	None	1
1.7	2015_Jul_21_1302	s	s	8	2	SIC	96	ABS	2	2	24VD	0	1	0.606600046158	None	None	None	None	1
1.7	2015_Jul_21_1302	s	s	8	2	SIC	97	RC	0	2	23RD	1	0	0.893874883652	534.0	4.0	540	13	1
1.7	2015_Jul_21_1302	s	s	8	2	SIC	98	RC	1	2	23MD	1	0	0.747075080872	233.0	73.0	235	77	1
1.7	2015_Jul_21_1302	s	s	8	2	SIC	99	RC	0	1	23RO	1	0	6.22595095634	-357.0	-399.0	-358	-396	1
1.7	2015_Jul_21_1302	s	s	8	2	SIC	100	ABS	1	1	24MO	0	1	8.45060396194	None	None	None	None	1
1.7	2015_Jul_21_1302	s	s	8	2	SIC	101	RC	1	0	23MC	1	0	11.7436139584	396.0	-258.0	391	-252	1
1.7	2015_Jul_21_1302	s	s	8	2	SIC	102	ABS	2	2	24VD	0	1	0.705502033234	None	None	None	None	1
1.7	2015_Jul_21_1302	s	s	8	2	SIC	103	RC	2	0	23VC	1	0	0.799666166306	-487.0	-134.0	-485	-130	1
1.7	2015_Jul_21_1302	s	s	8	2	SIC	104	RC	2	1	23VO	1	0	0.688798904419	445.0	391.0	436	392	1
1.7	2015_Jul_21_1302	s	s	8	2	SIC	105	ABS	2	1	24VO	0	1	1.08943986893	None	None	None	None	1
1.7	2015_Jul_21_1302	s	s	8	2	SIC	106	RC	2	2	23VD	1	0	0.706005096436	395.0	-22.0	399	-19	1
1.7	2015_Jul_21_1302	s	s	8	2	SIC	107	ABS	1	0	24MC	0	1	4.76643300056	None	None	None	None	1
1.7	2015_Jul_21_1302	s	s	8	2	SIC	108	ABS	0	2	24RD	0	1	2.39550900459	None	None	None	None	1
1.7	2015_Jul_21_1302	s	s	8	2	SIC	109	ABS	0	1	24RO	0	1	8.48074793816	None	None	None	None	1
1.7	2015_Jul_21_1302	s	s	8	2	SIC	110	RC	1	1	23MO	1	0	1.84400701523	116.0	-55.0	118	-55	1
1.7	2015_Jul_21_1302	s	s	8	2	SIC	111	ABS	1	2	24MD	0	1	1.10565495491	None	None	None	None	1
1.7	2015_Jul_21_1302	s	s	8	2	SIC	112	ABS	2	0	24VC	0	1	0.882037878036	None	None	None	None	1
1.7	2015_Jul_21_1302	s	s	8	2	SIC	113	RC	0	2	23RD	1	0	1.32445597649	-461.0	54.0	-453	49	1
1.7	2015_Jul_21_1302	s	s	8	2	SIC	114	ABS	1	1	24MO	0	1	9.42755508423	None	None	None	None	1
1.7	2015_Jul_21_1302	s	s	8	2	SIC	115	ABS	2	1	24VO	0	1	0.876154184341	None	None	None	None	1
1.7	2015_Jul_21_1302	s	s	8	2	SIC	116	ABS	0	1	24RO	0	1	7.47345519066	None	None	None	None	1
1.7	2015_Jul_21_1302	s	s	8	2	SIC	117	RC	1	0	23MC	0	1	6.05885386467	512.0	272.0	None	None	0
1.7	2015_Jul_21_1302	s	s	8	2	SIC	118	RC	1	2	23MD	1	0	0.917387962341	298.0	182.0	298	186	1
1.7	2015_Jul_21_1302	s	s	8	2	SIC	119	ABS	0	2	24RD	0	1	0.97629904747	None	None	None	None	1
1.7	2015_Jul_21_1302	s	s	8	2	SIC	120	ABS	2	2	24VD	0	1	0.705605983734	None	None	None	None	1
1.7	2015_Jul_21_1302	s	s	8	2	SIC	121	RC	1	1	23MO	1	0	1.27737498283	335.0	12.0	346	12	1
1.7	2015_Jul_21_1302	s	s	8	2	SIC	122	RC	0	1	23RO	0	1	6.88511800766	460.0	-103.0	None	None	0
1.7	2015_Jul_21_1302	s	s	8	2	SIC	123	ABS	1	0	24MC	0	1	4.38973379135	None	None	None	None	1
1.7	2015_Jul_21_1302	s	s	8	2	SIC	124	ABS	2	0	24VC	0	1	1.28237915039	None	None	None	None	1
1.7	2015_Jul_21_1302	s	s	8	2	SIC	125	RC	2	0	23VC	1	0	0.923339128494	282.0	98.0	275	104	1
1.7	2015_Jul_21_1302	s	s	8	2	SIC	126	RC	2	1	23VO	1	0	0.646640062332	10.0	137.0	4	138	1
1.7	2015_Jul_21_1302	s	s	8	2	SIC	127	RC	2	2	23VD	1	0	0.599608182907	37.0	249.0	37	245	1
1.7	2015_Jul_21_1302	s	s	8	2	SIC	128	ABS	1	2	24MD	0	1	1.01156997681	None	None	None	None	1
1.7	2015_Jul_21_1302	s	s	8	2	SIC	129	RC	0	2	23RD	1	0	0.854559183121	300.0	-271.0	303	-270	1
1.7	2015_Jul_21_1302	s	s	8	2	SIC	130	ABS	1	2	24MD	0	1	1.2404589653	None	None	None	None	1
1.7	2015_Jul_21_1302	s	s	8	2	SIC	131	ABS	1	0	24MC	0	1	5.04492807388	None	None	None	None	1
1.7	2015_Jul_21_1302	s	s	8	2	SIC	132	ABS	1	1	24MO	0	1	8.53309202194	None	None	None	None	1
1.7	2015_Jul_21_1302	s	s	8	2	SIC	133	RC	2	0	23VC	1	0	0.850609779358	198.0	-388.0	200	-387	1
1.7	2015_Jul_21_1302	s	s	8	2	SIC	134	RC	1	2	23MD	1	0	0.912393093109	-526.0	73.0	-532	68	1
1.7	2015_Jul_21_1302	s	s	8	2	SIC	135	ABS	0	2	24RD	0	1	1.10620284081	None	None	None	None	1
1.7	2015_Jul_21_1302	s	s	8	2	SIC	136	ABS	2	2	24VD	0	1	2.7364051342	None	None	None	None	1
1.7	2015_Jul_21_1302	s	s	8	2	SIC	137	RC	0	1	23RO	1	0	4.2013130188	-440.0	-381.0	-445	-376	1
1.7	2015_Jul_21_1302	s	s	8	2	SIC	138	RC	1	0	23MC	1	0	5.93834114075	-373.0	153.0	-380	160	1
1.7	2015_Jul_21_1302	s	s	8	2	SIC	139	RC	2	1	23VO	1	0	0.901985168457	399.0	-142.0	396	-140	1
1.7	2015_Jul_21_1302	s	s	8	2	SIC	140	ABS	2	1	24VO	0	1	0.941029071808	None	None	None	None	1
1.7	2015_Jul_21_1302	s	s	8	2	SIC	141	ABS	0	1	24RO	0	1	6.64478397369	None	None	None	None	1
1.7	2015_Jul_21_1302	s	s	8	2	SIC	142	RC	2	2	23VD	1	0	1.18815898895	-331.0	-326.0	-334	-331	1
1.7	2015_Jul_21_1302	s	s	8	2	SIC	143	ABS	2	0	24VC	0	1	3.00082421303	None	None	None	None	1
1.7	2015_Jul_21_1302	s	s	8	2	SIC	144	RC	1	1	23MO	1	0	1.41175913811	-282.0	44.0	-283	47	1
1.7	2015_Jul_21_1302	s	s	8	2	SIC	145	ABS	1	1	24MO	0	1	6.57299494743	None	None	None	None	1
1.7	2015_Jul_21_1302	s	s	8	2	SIC	146	RC	0	2	23RD	1	0	0.808180809021	223.0	155.0	224	154	1
1.7	2015_Jul_21_1302	s	s	8	2	SIC	147	ABS	0	1	24RO	0	1	6.22027897835	None	None	None	None	1
1.7	2015_Jul_21_1302	s	s	8	2	SIC	148	RC	1	2	23MD	1	0	0.705652952194	10.0	260.0	8	257	1
1.7	2015_Jul_21_1302	s	s	8	2	SIC	149	ABS	0	2	24RD	0	1	2.10156798363	None	None	None	None	1
1.7	2015_Jul_21_1302	s	s	8	2	SIC	150	RC	2	1	23VO	1	0	1.29405593872	-305.0	-178.0	-301	-181	1
1.7	2015_Jul_21_1302	s	s	8	2	SIC	151	ABS	2	0	24VC	0	1	0.906116962433	None	None	None	None	1
1.7	2015_Jul_21_1302	s	s	8	2	SIC	152	RC	2	0	23VC	1	0	0.844902038574	-186.0	234.0	-181	235	1
1.7	2015_Jul_21_1302	s	s	8	2	SIC	153	RC	2	2	23VD	1	0	0.687484025955	-385.0	-273.0	-381	-274	1
1.7	2015_Jul_21_1302	s	s	8	2	SIC	154	RC	1	0	23MC	1	0	5.04884386063	88.0	300.0	88	307	1
1.7	2015_Jul_21_1302	s	s	8	2	SIC	155	ABS	2	2	24VD	0	1	0.787894964218	None	None	None	None	1
1.7	2015_Jul_21_1302	s	s	8	2	SIC	156	RC	0	1	23RO	1	0	5.16166090965	-272.0	-297.0	-275	-295	1
1.7	2015_Jul_21_1302	s	s	8	2	SIC	157	ABS	2	1	24VO	0	1	0.976551055908	None	None	None	None	1
1.7	2015_Jul_21_1302	s	s	8	2	SIC	158	ABS	1	2	24MD	0	1	1.39773797989	None	None	None	None	1
1.7	2015_Jul_21_1302	s	s	8	2	SIC	159	RC	1	1	23MO	1	0	1.64239621162	-77.0	282.0	-80	283	1
1.7	2015_Jul_21_1302	s	s	8	2	SIC	160	ABS	1	0	24MC	0	1	4.14027285576	None	None	None	None	1
1.7	2015_Jul_21_1302	s	s	8	2	SIC	161	ABS	2	1	24VO	0	1	1.21834611893	None	None	None	None	1
1.7	2015_Jul_21_1302	s	s	8	2	SIC	162	ABS	1	1	24MO	0	1	8.54481601715	None	None	None	None	1
1.7	2015_Jul_21_1302	s	s	8	2	SIC	163	RC	0	2	23RD	1	0	0.988058805466	342.0	-359.0	342	-360	1
1.7	2015_Jul_21_1302	s	s	8	2	SIC	164	RC	2	0	23VC	1	0	0.79666686058	-25.0	176.0	-30	177	1
1.7	2015_Jul_21_1302	s	s	8	2	SIC	165	ABS	1	2	24MD	0	1	1.65390992165	None	None	None	None	1
1.7	2015_Jul_21_1302	s	s	8	2	SIC	166	RC	1	2	23MD	1	0	1.05398607254	-521.0	-357.0	-518	-358	1
1.7	2015_Jul_21_1302	s	s	8	2	SIC	167	ABS	0	1	24RO	0	1	8.70402407646	None	None	None	None	1
1.7	2015_Jul_21_1302	s	s	8	2	SIC	168	ABS	1	0	24MC	0	1	6.83303189278	None	None	None	None	1
1.7	2015_Jul_21_1302	s	s	8	2	SIC	169	RC	1	1	23MO	1	0	3.5988740921	-250.0	-393.0	-244	-391	1
1.7	2015_Jul_21_1302	s	s	8	2	SIC	170	ABS	2	0	24VC	0	1	1.23506212234	None	None	None	None	1
1.7	2015_Jul_21_1302	s	s	8	2	SIC	171	RC	0	1	23RO	1	0	2.44802188873	406.0	-331.0	409	-335	1
1.7	2015_Jul_21_1302	s	s	8	2	SIC	172	ABS	2	2	24VD	0	1	1.23517990112	None	None	None	None	1
1.7	2015_Jul_21_1302	s	s	8	2	SIC	173	ABS	0	2	24RD	0	1	3.68355798721	None	None	None	None	1
1.7	2015_Jul_21_1302	s	s	8	2	SIC	174	RC	2	2	23VD	1	0	1.1244699955	384.0	30.0	379	30	1
1.7	2015_Jul_21_1302	s	s	8	2	SIC	175	RC	1	0	23MC	1	0	6.60930109024	-142.0	-282.0	-147	-285	1
1.7	2015_Jul_21_1302	s	s	8	2	SIC	176	RC	2	1	23VO	1	0	0.670245170593	-7.0	252.0	-7	253	1
1.7	2015_Jul_21_1302	s	s	8	2	SIC	177	RC	1	2	23MD	1	0	0.700581073761	413.0	174.0	420	174	1
1.7	2015_Jul_21_1302	s	s	8	2	SIC	178	RC	0	2	23RD	1	0	0.917506933212	-116.0	-406.0	-109	-406	1
1.7	2015_Jul_21_1302	s	s	8	2	SIC	179	RC	0	1	23RO	1	0	3.88739991188	-477.0	15.0	-476	18	1
1.7	2015_Jul_21_1302	s	s	8	2	SIC	180	ABS	0	2	24RD	0	1	1.16458821297	None	None	None	None	1
1.7	2015_Jul_21_1302	s	s	8	2	SIC	181	RC	2	0	23VC	1	0	0.809211969376	-482.0	-30.0	-479	-27	1
1.7	2015_Jul_21_1302	s	s	8	2	SIC	182	RC	1	0	23MC	1	0	9.53360891342	-227.0	-104.0	-219	-105	1
1.7	2015_Jul_21_1302	s	s	8	2	SIC	183	ABS	2	1	24VO	0	1	0.972526788712	None	None	None	None	1
1.7	2015_Jul_21_1302	s	s	8	2	SIC	184	ABS	1	2	24MD	0	1	0.98800611496	None	None	None	None	1
1.7	2015_Jul_21_1302	s	s	8	2	SIC	185	ABS	1	0	24MC	0	1	4.03344607353	None	None	None	None	1
1.7	2015_Jul_21_1302	s	s	8	2	SIC	186	ABS	2	2	24VD	0	1	0.682079076767	None	None	None	None	1
1.7	2015_Jul_21_1302	s	s	8	2	SIC	187	ABS	1	1	24MO	0	1	7.79841184616	None	None	None	None	1
1.7	2015_Jul_21_1302	s	s	8	2	SIC	188	RC	2	1	23VO	1	0	0.95969080925	-177.0	122.0	-181	127	1
1.7	2015_Jul_21_1302	s	s	8	2	SIC	189	RC	2	2	23VD	1	0	0.681970119476	-518.0	-48.0	-512	-46	1
1.7	2015_Jul_21_1302	s	s	8	2	SIC	190	ABS	2	0	24VC	0	1	1.59525585175	None	None	None	None	1
1.7	2015_Jul_21_1302	s	s	8	2	SIC	191	RC	1	1	23MO	1	0	5.47952985764	273.0	-318.0	277	-318	1
1.7	2015_Jul_21_1302	s	s	8	2	SIC	192	ABS	0	1	24RO	0	1	9.26269602776	None	None	None	None	1
1.7	2015_Jul_21_1302	s	s	8	2	SIC	193	RC	2	1	23VO	1	0	1.79557085037	-254.0	-211.0	-257	-210	1
1.7	2015_Jul_21_1302	s	s	8	2	SIC	194	ABS	1	0	24MC	0	1	2.83604478836	None	None	None	None	1
1.7	2015_Jul_21_1302	s	s	8	2	SIC	195	RC	2	0	23VC	1	0	2.09443497658	-78.0	353.0	-79	359	1
1.7	2015_Jul_21_1302	s	s	8	2	SIC	196	ABS	1	1	24MO	0	1	8.02178287506	None	None	None	None	1
1.7	2015_Jul_21_1302	s	s	8	2	SIC	197	ABS	0	2	24RD	0	1	1.24703407288	None	None	None	None	1
1.7	2015_Jul_21_1302	s	s	8	2	SIC	198	RC	1	1	23MO	1	0	1.38330698013	-270.0	335.0	-264	336	1
1.7	2015_Jul_21_1302	s	s	8	2	SIC	199	ABS	2	1	24VO	0	1	1.12442994118	None	None	None	None	1
1.7	2015_Jul_21_1302	s	s	8	2	SIC	200	RC	1	2	23MD	1	0	0.84433889389	114.0	150.0	106	148	1
1.7	2015_Jul_21_1302	s	s	8	2	SIC	201	ABS	2	2	24VD	0	1	0.811444044113	None	None	None	None	1
1.7	2015_Jul_21_1302	s	s	8	2	SIC	202	RC	1	0	23MC	1	0	8.49249911308	-471.0	-324.0	-473	-318	1
1.7	2015_Jul_21_1302	s	s	8	2	SIC	203	ABS	0	1	24RO	0	1	7.81492805481	None	None	None	None	1
1.7	2015_Jul_21_1302	s	s	8	2	SIC	204	ABS	1	2	24MD	0	1	1.78846406937	None	None	None	None	1
1.7	2015_Jul_21_1302	s	s	8	2	SIC	205	RC	0	1	23RO	1	0	4.68402791023	-315.0	-204.0	-317	-205	1
1.7	2015_Jul_21_1302	s	s	8	2	SIC	206	RC	2	2	23VD	1	0	0.653665065765	-418.0	19.0	-416	19	1
1.7	2015_Jul_21_1302	s	s	8	2	SIC	207	ABS	2	0	24VC	0	1	1.00942611694	None	None	None	None	1
1.7	2015_Jul_21_1302	s	s	8	2	SIC	208	RC	0	2	23RD	1	0	0.835071086884	-131.0	-184.0	-136	-178	1
1.7	2015_Jul_21_1302	s	s	8	2	SIC	209	RC	2	2	23VD	1	0	0.641301870346	-64.0	33.0	-58	31	1
1.7	2015_Jul_21_1302	s	s	8	2	SIC	210	RC	2	0	23VC	1	0	0.714228153229	239.0	-352.0	238	-346	1
1.7	2015_Jul_21_1302	s	s	8	2	SIC	211	ABS	0	2	24RD	0	1	2.00038981438	None	None	None	None	1
1.7	2015_Jul_21_1302	s	s	8	2	SIC	212	RC	0	1	23RO	1	0	7.83853602409	530.0	344.0	538	350	1
1.7	2015_Jul_21_1302	s	s	8	2	SIC	213	ABS	1	1	24MO	0	1	7.00286579132	None	None	None	None	1
1.7	2015_Jul_21_1302	s	s	8	2	SIC	214	RC	1	2	23MD	1	0	0.809144973755	54.0	327.0	52	326	1
1.7	2015_Jul_21_1302	s	s	8	2	SIC	215	ABS	2	1	24VO	0	1	1.48922991753	None	None	None	None	1
1.7	2015_Jul_21_1302	s	s	8	2	SIC	216	RC	2	1	23VO	1	0	1.19644808769	-502.0	-318.0	-505	-320	1
1.7	2015_Jul_21_1302	s	s	8	2	SIC	217	ABS	2	0	24VC	0	1	1.1129758358	None	None	None	None	1
1.7	2015_Jul_21_1302	s	s	8	2	SIC	218	ABS	2	2	24VD	0	1	0.890851974487	None	None	None	None	1
1.7	2015_Jul_21_1302	s	s	8	2	SIC	219	ABS	1	0	24MC	0	1	5.22048783302	None	None	None	None	1
1.7	2015_Jul_21_1302	s	s	8	2	SIC	220	ABS	1	2	24MD	0	1	1.14106607437	None	None	None	None	1
1.7	2015_Jul_21_1302	s	s	8	2	SIC	221	RC	0	2	23RD	1	0	1.11756706238	-199.0	279.0	-207	280	1
1.7	2015_Jul_21_1302	s	s	8	2	SIC	222	RC	1	0	23MC	0	1	2.57706308365	191.0	327.0	None	None	0
1.7	2015_Jul_21_1302	s	s	8	2	SIC	223	ABS	0	1	24RO	0	1	7.3392059803	None	None	None	None	1
1.7	2015_Jul_21_1302	s	s	8	2	SIC	224	RC	1	1	23MO	1	0	1.38285493851	272.0	-199.0	268	-198	1
1.7	2015_Jul_21_1302	s	s	8	2	SIC	225	ABS	2	1	24VO	0	1	0.771942138672	None	None	None	None	1
1.7	2015_Jul_21_1302	s	s	8	2	SIC	226	RC	2	0	23VC	1	0	1.1646490097	279.0	-33.0	284	-32	1
1.7	2015_Jul_21_1302	s	s	8	2	SIC	227	RC	1	0	23MC	1	0	5.79046702385	-247.0	110.0	-253	111	1
1.7	2015_Jul_21_1302	s	s	8	2	SIC	228	RC	1	1	23MO	1	0	1.28913116455	-407.0	351.0	-402	351	1
1.7	2015_Jul_21_1302	s	s	8	2	SIC	229	RC	1	2	23MD	1	0	0.641707181931	-304.0	364.0	-303	364	1
1.7	2015_Jul_21_1302	s	s	8	2	SIC	230	RC	0	1	23RO	0	1	7.57959914207	316.0	223.0	None	None	0
1.7	2015_Jul_21_1302	s	s	8	2	SIC	231	ABS	1	2	24MD	0	1	0.964455842972	None	None	None	None	1
1.7	2015_Jul_21_1302	s	s	8	2	SIC	232	ABS	1	0	24MC	0	1	5.97875189781	None	None	None	None	1
1.7	2015_Jul_21_1302	s	s	8	2	SIC	233	RC	0	2	23RD	1	0	1.09398388863	343.0	-348.0	343	-340	1
1.7	2015_Jul_21_1302	s	s	8	2	SIC	234	ABS	2	0	24VC	0	1	0.83504486084	None	None	None	None	1
1.7	2015_Jul_21_1302	s	s	8	2	SIC	235	ABS	0	1	24RO	0	1	7.42659091949	None	None	None	None	1
1.7	2015_Jul_21_1302	s	s	8	2	SIC	236	ABS	1	1	24MO	0	1	9.35196614265	None	None	None	None	1
1.7	2015_Jul_21_1302	s	s	8	2	SIC	237	RC	2	1	23VO	1	0	1.24211406708	-92.0	-203.0	-96	-194	1
1.7	2015_Jul_21_1302	s	s	8	2	SIC	238	ABS	2	2	24VD	0	1	0.771162033081	None	None	None	None	1
1.7	2015_Jul_21_1302	s	s	8	2	SIC	239	RC	2	2	23VD	1	0	0.858618021011	-279.0	-216.0	-287	-213	1
1.7	2015_Jul_21_1302	s	s	8	2	SIC	240	ABS	0	2	24RD	0	1	1.44073987007	None	None	None	None	1
1.7	2015_Jul_21_1302	s	s	8	2	SIC	241	RC	2	1	23VO	1	0	0.858618974686	-389.0	-292.0	-388	-283	1
1.7	2015_Jul_21_1302	s	s	8	2	SIC	242	RC	0	1	23RO	1	0	2.97736907005	-387.0	85.0	-393	94	1
1.7	2015_Jul_21_1302	s	s	8	2	SIC	243	ABS	1	2	24MD	0	1	1.15284085274	None	None	None	None	1
1.7	2015_Jul_21_1302	s	s	8	2	SIC	244	RC	1	1	23MO	1	0	2.68969392776	442.0	129.0	445	132	1
1.7	2015_Jul_21_1302	s	s	8	2	SIC	245	ABS	0	1	24RO	0	1	7.34416890144	None	None	None	None	1
1.7	2015_Jul_21_1302	s	s	8	2	SIC	246	ABS	2	0	24VC	0	1	0.808135032654	None	None	None	None	1
1.7	2015_Jul_21_1302	s	s	8	2	SIC	247	ABS	2	2	24VD	0	1	0.658549070358	None	None	None	None	1
1.7	2015_Jul_21_1302	s	s	8	2	SIC	248	ABS	2	1	24VO	0	1	0.99659705162	None	None	None	None	1
1.7	2015_Jul_21_1302	s	s	8	2	SIC	249	RC	2	2	23VD	1	0	0.735870838165	44.0	-248.0	41	-250	1
1.7	2015_Jul_21_1302	s	s	8	2	SIC	250	ABS	1	1	24MO	0	1	9.62254190445	None	None	None	None	1
1.7	2015_Jul_21_1302	s	s	8	2	SIC	251	RC	1	2	23MD	1	0	0.823262929916	234.0	-73.0	233	-68	1
1.7	2015_Jul_21_1302	s	s	8	2	SIC	252	RC	1	0	23MC	0	1	3.93810009956	303.0	59.0	None	None	0
1.7	2015_Jul_21_1302	s	s	8	2	SIC	253	ABS	0	2	24RD	0	1	0.787844181061	None	None	None	None	1
1.7	2015_Jul_21_1302	s	s	8	2	SIC	254	ABS	1	0	24MC	0	1	5.2348241806	None	None	None	None	1
1.7	2015_Jul_21_1302	s	s	8	2	SIC	255	RC	2	0	23VC	1	0	0.783260822296	403.0	252.0	402	258	1
1.7	2015_Jul_21_1302	s	s	8	2	SIC	256	RC	0	2	23RD	1	0	0.888900995255	-488.0	357.0	-492	356	1
1.7	2015_Jul_21_1302	s	s	8	2	SIC	257	RC	2	1	23VO	1	0	0.797134160995	490.0	386.0	492	393	1
1.7	2015_Jul_21_1302	s	s	8	2	SIC	258	RC	0	1	23RO	1	0	6.57910490036	-81.0	-266.0	-76	-260	1
1.7	2015_Jul_21_1302	s	s	8	2	SIC	259	RC	1	2	23MD	1	0	0.677038908005	223.0	-25.0	227	-23	1
1.7	2015_Jul_21_1302	s	s	8	2	SIC	260	ABS	0	1	24RO	0	1	9.58739495277	None	None	None	None	1
1.7	2015_Jul_21_1302	s	s	8	2	SIC	261	ABS	1	2	24MD	0	1	2.00035500526	None	None	None	None	1
1.7	2015_Jul_21_1302	s	s	8	2	SIC	262	ABS	1	1	24MO	0	1	6.22598600388	None	None	None	None	1
1.7	2015_Jul_21_1302	s	s	8	2	SIC	263	RC	0	2	23RD	1	0	0.890695810318	524.0	334.0	520	332	1
1.7	2015_Jul_21_1302	s	s	8	2	SIC	264	ABS	2	1	24VO	0	1	1.02959012985	None	None	None	None	1
1.7	2015_Jul_21_1302	s	s	8	2	SIC	265	RC	1	1	23MO	1	0	3.43112301826	-125.0	-292.0	-120	-288	1
1.7	2015_Jul_21_1302	s	s	8	2	SIC	266	RC	1	0	23MC	0	1	4.04331994057	418.0	117.0	None	None	0
1.7	2015_Jul_21_1302	s	s	8	2	SIC	267	RC	2	2	23VD	1	0	0.865553855896	-42.0	-162.0	-45	-162	1
1.7	2015_Jul_21_1302	s	s	8	2	SIC	268	RC	2	0	23VC	1	0	0.646718978882	312.0	-21.0	312	-13	1
1.7	2015_Jul_21_1302	s	s	8	2	SIC	269	ABS	2	2	24VD	0	1	0.853009939194	None	None	None	None	1
1.7	2015_Jul_21_1302	s	s	8	2	SIC	270	ABS	0	2	24RD	0	1	1.26554989815	None	None	None	None	1
1.7	2015_Jul_21_1302	s	s	8	2	SIC	271	ABS	1	0	24MC	0	1	5.50348591805	None	None	None	None	1
1.7	2015_Jul_21_1302	s	s	8	2	SIC	272	ABS	2	0	24VC	0	1	0.952725887299	None	None	None	None	1
1.7	2015_Jul_21_1302	s	s	8	2	SIC	273	ABS	2	2	24VD	0	1	0.629969120026	None	None	None	None	1
1.7	2015_Jul_21_1302	s	s	8	2	SIC	274	ABS	2	0	24VC	0	1	1.3483440876	None	None	None	None	1
1.7	2015_Jul_21_1302	s	s	8	2	SIC	275	ABS	1	1	24MO	0	1	6.51522922516	None	None	None	None	1
1.7	2015_Jul_21_1302	s	s	8	2	SIC	276	RC	2	0	23VC	1	0	0.982808828354	-480.0	-12.0	-488	-10	1
1.7	2015_Jul_21_1302	s	s	8	2	SIC	277	ABS	0	1	24RO	0	1	7.03810191154	None	None	None	None	1
1.7	2015_Jul_21_1302	s	s	8	2	SIC	278	RC	0	1	23RO	1	0	6.25904393196	455.0	384.0	456	389	1
1.7	2015_Jul_21_1302	s	s	8	2	SIC	279	ABS	1	0	24MC	0	1	9.19908308983	None	None	None	None	1
1.7	2015_Jul_21_1302	s	s	8	2	SIC	280	RC	2	1	23VO	1	0	0.712441921234	151.0	282.0	147	287	1
1.7	2015_Jul_21_1302	s	s	8	2	SIC	281	RC	0	2	23RD	1	0	1.61177706718	-405.0	-93.0	-417	-85	1
1.7	2015_Jul_21_1302	s	s	8	2	SIC	282	ABS	0	2	24RD	0	1	2.24270200729	None	None	None	None	1
1.7	2015_Jul_21_1302	s	s	8	2	SIC	283	RC	1	1	23MO	1	0	0.77632188797	-512.0	7.0	-508	14	1
1.7	2015_Jul_21_1302	s	s	8	2	SIC	284	ABS	2	1	24VO	0	1	0.89396905899	None	None	None	None	1
1.7	2015_Jul_21_1302	s	s	8	2	SIC	285	ABS	1	2	24MD	0	1	2.38876891136	None	None	None	None	1
1.7	2015_Jul_21_1302	s	s	8	2	SIC	286	RC	1	0	23MC	1	0	2.92228388786	-336.0	338.0	-333	335	1
1.7	2015_Jul_21_1302	s	s	8	2	SIC	287	RC	1	2	23MD	1	0	0.750198125839	-139.0	112.0	-139	109	1
1.7	2015_Jul_21_1302	s	s	8	2	SIC	288	RC	2	2	23VD	1	0	0.576064825058	-495.0	156.0	-497	154	1
1.7	2015_Jul_21_1302	s	s	8	2	SIC	289	RC	0	2	23RD	1	0	0.61125087738	-129.0	344.0	-132	350	1
1.7	2015_Jul_21_1302	s	s	8	2	SIC	290	ABS	0	1	24RO	0	1	8.8663418293	None	None	None	None	1
1.7	2015_Jul_21_1302	s	s	8	2	SIC	291	RC	0	1	23RO	1	0	0.879719018936	-411.0	219.0	-407	223	1
1.7	2015_Jul_21_1302	s	s	8	2	SIC	292	ABS	1	0	24MC	0	1	7.47360396385	None	None	None	None	1
1.7	2015_Jul_21_1302	s	s	8	2	SIC	293	RC	2	0	23VC	1	0	0.623370170593	-376.0	93.0	-374	89	1
1.7	2015_Jul_21_1302	s	s	8	2	SIC	294	RC	1	2	23MD	1	0	1.25658607483	-130.0	-394.0	-132	-390	1
1.7	2015_Jul_21_1302	s	s	8	2	SIC	295	ABS	1	2	24MD	0	1	1.66273379326	None	None	None	None	1
1.7	2015_Jul_21_1302	s	s	8	2	SIC	296	ABS	1	1	24MO	0	1	7.00929903984	None	None	None	None	1
1.7	2015_Jul_21_1302	s	s	8	2	SIC	297	RC	1	0	23MC	0	1	3.21292185783	-433.0	-410.0	None	None	0
1.7	2015_Jul_21_1302	s	s	8	2	SIC	298	RC	1	1	23MO	1	0	2.78894901276	-439.0	-32.0	-442	-37	1
1.7	2015_Jul_21_1302	s	s	8	2	SIC	299	ABS	2	2	24VD	0	1	0.771507978439	None	None	None	None	1
1.7	2015_Jul_21_1302	s	s	8	2	SIC	300	RC	2	1	23VO	1	0	0.653448820114	243.0	242.0	239	242	1
1.7	2015_Jul_21_1302	s	s	8	2	SIC	301	ABS	2	0	24VC	0	1	2.10619807243	None	None	None	None	1
1.7	2015_Jul_21_1302	s	s	8	2	SIC	302	ABS	0	2	24RD	0	1	1.1763651371	None	None	None	None	1
1.7	2015_Jul_21_1302	s	s	8	2	SIC	303	RC	2	2	23VD	1	0	0.655846118927	172.0	9.0	165	13	1
1.7	2015_Jul_21_1302	s	s	8	2	SIC	304	ABS	2	1	24VO	0	1	1.64721989632	None	None	None	None	1
1.7	2015_Jul_21_1302	s	s	8	2	SIC	305	RC	0	2	23RD	1	0	1.02060389519	-105.0	-168.0	-117	-165	1
1.7	2015_Jul_21_1302	s	s	8	2	SIC	306	ABS	2	1	24VO	0	1	1.25878190994	None	None	None	None	1
1.7	2015_Jul_21_1302	s	s	8	2	SIC	307	RC	2	1	23VO	1	0	0.771340847015	355.0	-211.0	352	-207	1
1.7	2015_Jul_21_1302	s	s	8	2	SIC	308	RC	1	0	23MC	1	0	9.76891112328	290.0	-129.0	293	-124	1
1.7	2015_Jul_21_1302	s	s	8	2	SIC	309	RC	2	2	23VD	1	0	1.00656080246	246.0	-23.0	251	-29	1
1.7	2015_Jul_21_1302	s	s	8	2	SIC	310	RC	0	1	23RO	1	0	5.10756397247	480.0	178.0	477	184	1
1.7	2015_Jul_21_1302	s	s	8	2	SIC	311	ABS	1	2	24MD	0	1	1.40001320839	None	None	None	None	1
1.7	2015_Jul_21_1302	s	s	8	2	SIC	312	RC	1	1	23MO	1	0	1.25550794601	39.0	-44.0	36	-43	1
1.7	2015_Jul_21_1302	s	s	8	2	SIC	313	ABS	1	0	24MC	0	1	6.62083601952	None	None	None	None	1
1.7	2015_Jul_21_1302	s	s	8	2	SIC	314	ABS	0	2	24RD	0	1	1.50076413155	None	None	None	None	1
1.7	2015_Jul_21_1302	s	s	8	2	SIC	315	ABS	0	1	24RO	0	1	6.94438815117	None	None	None	None	1
1.7	2015_Jul_21_1302	s	s	8	2	SIC	316	RC	2	0	23VC	1	0	0.853632926941	185.0	365.0	181	368	1
1.7	2015_Jul_21_1302	s	s	8	2	SIC	317	ABS	2	2	24VD	0	1	0.832614898682	None	None	None	None	1
1.7	2015_Jul_21_1302	s	s	8	2	SIC	318	ABS	2	0	24VC	0	1	0.832733154297	None	None	None	None	1
1.7	2015_Jul_21_1302	s	s	8	2	SIC	319	ABS	1	1	24MO	0	1	6.64975404739	None	None	None	None	1
1.7	2015_Jul_21_1302	s	s	8	2	SIC	320	RC	1	2	23MD	1	0	0.811506986618	170.0	241.0	164	240	1
1.7	2015_Jul_21_1302	s	s	8	2	SIC	321	ABS	1	1	24MO	0	1	9.28619599342	None	None	None	None	1
1.7	2015_Jul_21_1302	s	s	8	2	SIC	322	ABS	2	2	24VD	0	1	0.690581083298	None	None	None	None	1
1.7	2015_Jul_21_1302	s	s	8	2	SIC	323	ABS	0	1	24RO	0	1	8.69772100449	None	None	None	None	1
1.7	2015_Jul_21_1302	s	s	8	2	SIC	324	RC	1	1	23MO	1	0	1.53518199921	436.0	160.0	438	167	1
1.7	2015_Jul_21_1302	s	s	8	2	SIC	325	ABS	1	0	24MC	0	1	4.49565696716	None	None	None	None	1
1.7	2015_Jul_21_1302	s	s	8	2	SIC	326	RC	0	1	23RO	1	0	7.13608694077	171.0	305.0	169	307	1
1.7	2015_Jul_21_1302	s	s	8	2	SIC	327	ABS	0	2	24RD	0	1	1.70335006714	None	None	None	None	1
1.7	2015_Jul_21_1302	s	s	8	2	SIC	328	ABS	2	1	24VO	0	1	1.40684294701	None	None	None	None	1
1.7	2015_Jul_21_1302	s	s	8	2	SIC	329	RC	1	2	23MD	1	0	1.48242998123	173.0	-387.0	172	-390	1
1.7	2015_Jul_21_1302	s	s	8	2	SIC	330	RC	2	2	23VD	1	0	0.670177936554	127.0	-73.0	132	-63	1
1.7	2015_Jul_21_1302	s	s	8	2	SIC	331	RC	0	2	23RD	1	0	0.606555938721	377.0	150.0	379	150	1
1.7	2015_Jul_21_1302	s	s	8	2	SIC	332	RC	2	0	23VC	1	0	0.635004997253	-101.0	-81.0	-92	-77	1
1.7	2015_Jul_21_1302	s	s	8	2	SIC	333	RC	2	1	23VO	1	0	0.658483028412	-401.0	56.0	-408	59	1
1.7	2015_Jul_21_1302	s	s	8	2	SIC	334	ABS	2	0	24VC	0	1	1.02734184265	None	None	None	None	1
1.7	2015_Jul_21_1302	s	s	8	2	SIC	335	RC	1	0	23MC	1	0	2.71338486671	-60.0	394.0	-63	399	1
1.7	2015_Jul_21_1302	s	s	8	2	SIC	336	ABS	1	2	24MD	0	1	1.65890288353	None	None	None	None	1
1.7	2015_Jul_21_1302	s	s	8	2	SIC	337	RC	0	1	23RO	1	0	7.17928886414	154.0	-66.0	155	-63	1
1.7	2015_Jul_21_1302	s	s	8	2	SIC	338	ABS	1	2	24MD	0	1	1.48244404793	None	None	None	None	1
1.7	2015_Jul_21_1302	s	s	8	2	SIC	339	ABS	0	1	24RO	0	1	8.04523301125	None	None	None	None	1
1.7	2015_Jul_21_1302	s	s	8	2	SIC	340	ABS	1	1	24MO	0	1	8.46949005127	None	None	None	None	1
1.7	2015_Jul_21_1302	s	s	8	2	SIC	341	ABS	0	2	24RD	0	1	0.830007076263	None	None	None	None	1
1.7	2015_Jul_21_1302	s	s	8	2	SIC	342	RC	1	1	23MO	1	0	1.38328194618	-136.0	-264.0	-137	-257	1
1.7	2015_Jul_21_1302	s	s	8	2	SIC	343	ABS	2	1	24VO	0	1	1.1880979538	None	None	None	None	1
1.7	2015_Jul_21_1302	s	s	8	2	SIC	344	ABS	2	0	24VC	0	1	0.69379901886	None	None	None	None	1
1.7	2015_Jul_21_1302	s	s	8	2	SIC	345	ABS	2	2	24VD	0	1	0.905706167221	None	None	None	None	1
1.7	2015_Jul_21_1302	s	s	8	2	SIC	346	RC	1	2	23MD	1	0	1.29048991203	-199.0	224.0	-202	224	1
1.7	2015_Jul_21_1302	s	s	8	2	SIC	347	RC	1	0	23MC	0	1	8.39175510406	386.0	-79.0	None	None	0
1.7	2015_Jul_21_1302	s	s	8	2	SIC	348	RC	2	1	23VO	1	0	0.865284919739	-269.0	-295.0	-263	-295	1
1.7	2015_Jul_21_1302	s	s	8	2	SIC	349	RC	0	2	23RD	1	0	0.782860994339	278.0	-178.0	276	-174	1
1.7	2015_Jul_21_1302	s	s	8	2	SIC	350	RC	2	0	23VC	1	0	1.60664319992	269.0	-300.0	271	-305	1
1.7	2015_Jul_21_1302	s	s	8	2	SIC	351	RC	2	2	23VD	1	0	1.41181993484	532.0	392.0	531	397	1
1.7	2015_Jul_21_1302	s	s	8	2	SIC	352	ABS	1	0	24MC	0	1	9.28121805191	None	None	None	None	1
1.7	2015_Jul_21_1302	s	s	8	2	SIC	353	RC	0	2	23RD	1	0	1.10576105118	-62.0	-365.0	-54	-369	1
1.7	2015_Jul_21_1302	s	s	8	2	SIC	354	ABS	1	0	24MC	0	1	3.91101098061	None	None	None	None	1
1.7	2015_Jul_21_1302	s	s	8	2	SIC	355	ABS	0	1	24RO	0	1	9.27019882202	None	None	None	None	1
1.7	2015_Jul_21_1302	s	s	8	2	SIC	356	ABS	1	2	24MD	0	1	2.31811714172	None	None	None	None	1
1.7	2015_Jul_21_1302	s	s	8	2	SIC	357	RC	2	2	23VD	1	0	0.964554071426	-63.0	-134.0	-66	-131	1
1.7	2015_Jul_21_1302	s	s	8	2	SIC	358	ABS	0	2	24RD	0	1	1.15283513069	None	None	None	None	1
1.7	2015_Jul_21_1302	s	s	8	2	SIC	359	ABS	2	2	24VD	0	1	1.23518896103	None	None	None	None	1
1.7	2015_Jul_21_1302	s	s	8	2	SIC	360	ABS	1	1	24MO	0	1	6.84492397308	None	None	None	None	1
1.7	2015_Jul_21_1302	s	s	8	2	SIC	361	RC	1	0	23MC	1	0	5.15482783318	267.0	203.0	271	206	1
1.7	2015_Jul_21_1302	s	s	8	2	SIC	362	ABS	2	0	24VC	0	1	0.856383085251	None	None	None	None	1
1.7	2015_Jul_21_1302	s	s	8	2	SIC	363	RC	2	0	23VC	1	0	0.665347099304	158.0	-167.0	156	-161	1
1.7	2015_Jul_21_1302	s	s	8	2	SIC	364	RC	1	2	23MD	1	0	0.670278072357	-379.0	-24.0	-380	-25	1
1.7	2015_Jul_21_1302	s	s	8	2	SIC	365	ABS	2	1	24VO	0	1	1.56477808952	None	None	None	None	1
1.7	2015_Jul_21_1302	s	s	8	2	SIC	366	RC	0	1	23RO	1	0	1.01967120171	-443.0	143.0	-443	146	1
1.7	2015_Jul_21_1302	s	s	8	2	SIC	367	RC	1	1	23MO	1	0	1.3529279232	-56.0	101.0	-59	104	1
1.7	2015_Jul_21_1302	s	s	8	2	SIC	368	RC	2	1	23VO	1	0	0.583084821701	-427.0	205.0	-425	207	1
1.7	2015_Jul_21_1302	s	s	8	2	SIC	369	RC	2	2	23VD	1	0	0.564339876175	-297.0	-147.0	-293	-146	1
1.7	2015_Jul_21_1302	s	s	8	2	SIC	370	RC	0	1	23RO	0	1	7.88560390472	249.0	249.0	None	None	0
1.7	2015_Jul_21_1302	s	s	8	2	SIC	371	ABS	1	1	24MO	0	1	7.44370603561	None	None	None	None	1
1.7	2015_Jul_21_1302	s	s	8	2	SIC	372	ABS	1	0	24MC	0	1	4.91476202011	None	None	None	None	1
1.7	2015_Jul_21_1302	s	s	8	2	SIC	373	RC	0	2	23RD	1	0	1.10114407539	252.0	-359.0	253	-358	1
1.7	2015_Jul_21_1302	s	s	8	2	SIC	374	ABS	1	2	24MD	0	1	2.49514913559	None	None	None	None	1
1.7	2015_Jul_21_1302	s	s	8	2	SIC	375	ABS	0	2	24RD	0	1	1.93731093407	None	None	None	None	1
1.7	2015_Jul_21_1302	s	s	8	2	SIC	376	RC	2	0	23VC	1	0	0.879850149155	419.0	277.0	420	281	1
1.7	2015_Jul_21_1302	s	s	8	2	SIC	377	RC	1	2	23MD	1	0	0.70561504364	184.0	102.0	186	101	1
1.7	2015_Jul_21_1302	s	s	8	2	SIC	378	ABS	2	1	24VO	0	1	2.21931219101	None	None	None	None	1
1.7	2015_Jul_21_1302	s	s	8	2	SIC	379	RC	2	1	23VO	1	0	0.736126184464	207.0	48.0	210	48	1
1.7	2015_Jul_21_1302	s	s	8	2	SIC	380	RC	1	0	23MC	1	0	12.6565358639	-74.0	-68.0	-80	-63	1
1.7	2015_Jul_21_1302	s	s	8	2	SIC	381	ABS	2	0	24VC	0	1	0.740862131119	None	None	None	None	1
1.7	2015_Jul_21_1302	s	s	8	2	SIC	382	ABS	0	1	24RO	0	1	6.81005597115	None	None	None	None	1
1.7	2015_Jul_21_1302	s	s	8	2	SIC	383	ABS	2	2	24VD	0	1	0.914468050003	None	None	None	None	1
1.7	2015_Jul_21_1302	s	s	8	2	SIC	384	RC	1	1	23MO	1	0	3.84837889671	130.0	192.0	134	193	1
1.7	2015_Jul_21_1302	s	s	8	2	SIC	385	RC	0	1	23RO	1	0	7.0666680336	-467.0	-204.0	-468	-200	1
1.7	2015_Jul_21_1302	s	s	8	2	SIC	386	ABS	2	2	24VD	0	1	1.01162409782	None	None	None	None	1
1.7	2015_Jul_21_1302	s	s	8	2	SIC	387	RC	1	0	23MC	1	0	4.69075417519	405.0	276.0	402	282	1
1.7	2015_Jul_21_1302	s	s	8	2	SIC	388	RC	0	2	23RD	1	0	0.693679094315	210.0	380.0	209	381	1
1.7	2015_Jul_21_1302	s	s	8	2	SIC	389	ABS	1	1	24MO	0	1	7.05661797523	None	None	None	None	1
1.7	2015_Jul_21_1302	s	s	8	2	SIC	390	RC	2	1	23VO	1	0	0.797434091568	-60.0	-151.0	-60	-148	1
1.7	2015_Jul_21_1302	s	s	8	2	SIC	391	ABS	0	2	24RD	0	1	1.98859786987	None	None	None	None	1
1.7	2015_Jul_21_1302	s	s	8	2	SIC	392	ABS	1	0	24MC	0	1	7.79139208794	None	None	None	None	1
1.7	2015_Jul_21_1302	s	s	8	2	SIC	393	RC	2	0	23VC	1	0	0.882158041	198.0	-6.0	195	-3	1
1.7	2015_Jul_21_1302	s	s	8	2	SIC	394	ABS	0	1	24RO	0	1	9.00383496284	None	None	None	None	1
1.7	2015_Jul_21_1302	s	s	8	2	SIC	395	ABS	1	2	24MD	0	1	1.36010599136	None	None	None	None	1
1.7	2015_Jul_21_1302	s	s	8	2	SIC	396	RC	2	2	23VD	1	0	1.00671410561	-113.0	222.0	-112	220	1
1.7	2015_Jul_21_1302	s	s	8	2	SIC	397	ABS	2	0	24VC	0	1	0.897762060165	None	None	None	None	1
1.7	2015_Jul_21_1302	s	s	8	2	SIC	398	ABS	2	1	24VO	0	1	2.9891140461	None	None	None	None	1
1.7	2015_Jul_21_1302	s	s	8	2	SIC	399	RC	1	1	23MO	1	0	1.45887589455	-442.0	333.0	-440	333	1
1.7	2015_Jul_21_1302	s	s	8	2	SIC	400	RC	1	2	23MD	1	0	0.768172979355	437.0	-9.0	440	-8	1
1.7	2015_Jul_21_1302	s	s	8	2	SIC	401	ABS	1	0	24MC	0	1	12.6007509232	None	None	None	None	1
1.7	2015_Jul_21_1302	s	s	8	2	SIC	402	ABS	1	2	24MD	0	1	1.89812994003	None	None	None	None	1
1.7	2015_Jul_21_1302	s	s	8	2	SIC	403	ABS	2	0	24VC	0	1	4.17474508286	None	None	None	None	1
1.7	2015_Jul_21_1302	s	s	8	2	SIC	404	ABS	1	1	24MO	0	1	7.27355003357	None	None	None	None	1
1.7	2015_Jul_21_1302	s	s	8	2	SIC	405	RC	1	1	23MO	1	0	1.91346788406	-344.0	119.0	-344	120	1
1.7	2015_Jul_21_1302	s	s	8	2	SIC	406	ABS	2	1	24VO	0	1	4.19814991951	None	None	None	None	1
1.7	2015_Jul_21_1302	s	s	8	2	SIC	407	RC	2	2	23VD	1	0	0.787953853607	-219.0	348.0	-219	343	1
1.7	2015_Jul_21_1302	s	s	8	2	SIC	408	RC	1	0	23MC	1	0	6.2563419342	-430.0	250.0	-431	259	1
1.7	2015_Jul_21_1302	s	s	8	2	SIC	409	ABS	2	2	24VD	0	1	0.740855932236	None	None	None	None	1
1.7	2015_Jul_21_1302	s	s	8	2	SIC	410	RC	1	2	23MD	1	0	0.905709028244	-299.0	233.0	-293	235	1
1.7	2015_Jul_21_1302	s	s	8	2	SIC	411	RC	2	0	23VC	1	0	0.594611167908	12.0	314.0	3	315	1
1.7	2015_Jul_21_1302	s	s	8	2	SIC	412	RC	0	1	23RO	1	0	5.09286403656	-38.0	-271.0	-41	-271	1
1.7	2015_Jul_21_1302	s	s	8	2	SIC	413	ABS	0	2	24RD	0	1	1.52621388435	None	None	None	None	1
1.7	2015_Jul_21_1302	s	s	8	2	SIC	414	RC	2	1	23VO	1	0	0.988039970398	-260.0	-33.0	-253	-24	1
1.7	2015_Jul_21_1302	s	s	8	2	SIC	415	RC	0	2	23RD	1	0	0.693773984909	-268.0	-92.0	-267	-89	1
1.7	2015_Jul_21_1302	s	s	8	2	SIC	416	ABS	0	1	24RO	0	1	7.96310591698	None	None	None	None	1
1.7	2015_Jul_21_1302	s	s	8	2	SIC	417	ABS	1	2	24MD	0	1	1.29089999199	None	None	None	None	1
1.7	2015_Jul_21_1302	s	s	8	2	SIC	418	RC	1	1	23MO	1	0	4.32609987259	-345.0	-157.0	-349	-154	1
1.7	2015_Jul_21_1302	s	s	8	2	SIC	419	RC	0	1	23RO	0	1	9.17703509331	114.0	-205.0	None	None	0
1.7	2015_Jul_21_1302	s	s	8	2	SIC	420	ABS	2	2	24VD	0	1	0.729113101959	None	None	None	None	1
1.7	2015_Jul_21_1302	s	s	8	2	SIC	421	ABS	0	2	24RD	0	1	0.911885023117	None	None	None	None	1
1.7	2015_Jul_21_1302	s	s	8	2	SIC	422	RC	2	1	23VO	1	0	0.793898105621	42.0	-98.0	48	-105	1
1.7	2015_Jul_21_1302	s	s	8	2	SIC	423	RC	1	0	23MC	1	0	6.69331502914	-405.0	122.0	-410	128	1
1.7	2015_Jul_21_1302	s	s	8	2	SIC	424	ABS	1	0	24MC	0	1	3.4196460247	None	None	None	None	1
1.7	2015_Jul_21_1302	s	s	8	2	SIC	425	ABS	0	1	24RO	0	1	6.62105083466	None	None	None	None	1
1.7	2015_Jul_21_1302	s	s	8	2	SIC	426	RC	1	2	23MD	1	0	0.736505031586	408.0	-44.0	407	-43	1
1.7	2015_Jul_21_1302	s	s	8	2	SIC	427	ABS	1	1	24MO	0	1	7.05746889114	None	None	None	None	1
1.7	2015_Jul_21_1302	s	s	8	2	SIC	428	ABS	2	0	24VC	0	1	1.15978002548	None	None	None	None	1
1.7	2015_Jul_21_1302	s	s	8	2	SIC	429	RC	2	0	23VC	1	0	0.764400005341	-236.0	51.0	-231	51	1
1.7	2015_Jul_21_1302	s	s	8	2	SIC	430	ABS	2	1	24VO	0	1	1.14903616905	None	None	None	None	1
1.7	2015_Jul_21_1302	s	s	8	2	SIC	431	RC	2	2	23VD	1	0	0.782538175583	253.0	21.0	257	24	1
1.7	2015_Jul_21_1302	s	s	8	2	SIC	432	RC	0	2	23RD	1	0	1.23031616211	115.0	261.0	115	263	1
1.7	2015_Jul_21_1302	s	s	8	2	SIC	433	ABS	2	0	24VC	0	1	1.66563796997	None	None	None	None	1
1.7	2015_Jul_21_1302	s	s	8	2	SIC	434	RC	1	2	23MD	1	0	0.666939973831	144.0	-117.0	148	-116	1
1.7	2015_Jul_21_1302	s	s	8	2	SIC	435	ABS	1	1	24MO	0	1	6.80268907547	None	None	None	None	1
1.7	2015_Jul_21_1302	s	s	8	2	SIC	436	ABS	0	2	24RD	0	1	0.994760990143	None	None	None	None	1
1.7	2015_Jul_21_1302	s	s	8	2	SIC	437	ABS	2	1	24VO	0	1	2.2947371006	None	None	None	None	1
1.7	2015_Jul_21_1302	s	s	8	2	SIC	438	RC	1	0	23MC	1	0	4.70280385017	350.0	-29.0	347	-25	1
1.7	2015_Jul_21_1302	s	s	8	2	SIC	439	RC	2	1	23VO	1	0	0.747967004776	-361.0	-109.0	-369	-104	1
1.7	2015_Jul_21_1302	s	s	8	2	SIC	440	ABS	0	1	24RO	0	1	7.51584291458	None	None	None	None	1
1.7	2015_Jul_21_1302	s	s	8	2	SIC	441	RC	2	0	23VC	1	0	0.947808027267	441.0	-405.0	449	-404	1
1.7	2015_Jul_21_1302	s	s	8	2	SIC	442	ABS	1	2	24MD	0	1	1.97373485565	None	None	None	None	1
1.7	2015_Jul_21_1302	s	s	8	2	SIC	443	RC	2	2	23VD	1	0	0.682082891464	15.0	329.0	10	330	1
1.7	2015_Jul_21_1302	s	s	8	2	SIC	444	ABS	1	0	24MC	0	1	7.1301510334	None	None	None	None	1
1.7	2015_Jul_21_1302	s	s	8	2	SIC	445	ABS	2	2	24VD	0	1	0.761188983917	None	None	None	None	1
1.7	2015_Jul_21_1302	s	s	8	2	SIC	446	RC	0	2	23RD	1	0	0.874554872513	33.0	214.0	33	221	1
1.7	2015_Jul_21_1302	s	s	8	2	SIC	447	RC	0	1	23RO	1	0	2.10131692886	-304.0	270.0	-310	262	1
1.7	2015_Jul_21_1302	s	s	8	2	SIC	448	RC	1	1	23MO	1	0	5.38640093803	-172.0	-325.0	-173	-325	1
1.7	2015_Jul_21_1302	s	s	8	2	SIC	449	RC	1	0	23MC	1	0	5.61767411232	271.0	30.0	268	36	1
1.7	2015_Jul_21_1302	s	s	8	2	SIC	450	RC	0	2	23RD	1	0	0.747784852982	-131.0	347.0	-134	344	1
1.7	2015_Jul_21_1302	s	s	8	2	SIC	451	ABS	2	1	24VO	0	1	0.905576944351	None	None	None	None	1
1.7	2015_Jul_21_1302	s	s	8	2	SIC	452	RC	2	2	23VD	1	0	0.666301012039	468.0	275.0	463	276	1
1.7	2015_Jul_21_1302	s	s	8	2	SIC	453	RC	1	2	23MD	1	0	0.64230298996	261.0	25.0	261	23	1
1.7	2015_Jul_21_1302	s	s	8	2	SIC	454	ABS	2	2	24VD	0	1	0.853548049927	None	None	None	None	1
1.7	2015_Jul_21_1302	s	s	8	2	SIC	455	ABS	1	0	24MC	0	1	2.90662693977	None	None	None	None	1
1.7	2015_Jul_21_1302	s	s	8	2	SIC	456	RC	0	1	23RO	1	0	5.94337511063	-417.0	-379.0	-415	-374	1
1.7	2015_Jul_21_1302	s	s	8	2	SIC	457	ABS	0	2	24RD	0	1	1.10076498985	None	None	None	None	1
1.7	2015_Jul_21_1302	s	s	8	2	SIC	458	RC	1	1	23MO	1	0	1.45385313034	-393.0	-183.0	-391	-181	1
1.7	2015_Jul_21_1302	s	s	8	2	SIC	459	RC	2	1	23VO	1	0	0.584656000137	0.0	-111.0	-1	-108	1
1.7	2015_Jul_21_1302	s	s	8	2	SIC	460	ABS	2	0	24VC	0	1	0.94079208374	None	None	None	None	1
1.7	2015_Jul_21_1302	s	s	8	2	SIC	461	ABS	0	1	24RO	0	1	6.56233119965	None	None	None	None	1
1.7	2015_Jul_21_1302	s	s	8	2	SIC	462	ABS	1	2	24MD	0	1	1.68247318268	None	None	None	None	1
1.7	2015_Jul_21_1302	s	s	8	2	SIC	463	RC	2	0	23VC	1	0	1.43536901474	338.0	-273.0	333	-269	1
1.7	2015_Jul_21_1302	s	s	8	2	SIC	464	ABS	1	1	24MO	0	1	6.70390200615	None	None	None	None	1
1.7	2015_Jul_21_1302	s	s	8	2	SIC	465	ABS	2	1	24VO	0	1	2.68995404243	None	None	None	None	1
1.7	2015_Jul_21_1302	s	s	8	2	SIC	466	RC	2	2	23VD	1	0	0.959079027176	88.0	-104.0	82	-98	1
1.7	2015_Jul_21_1302	s	s	8	2	SIC	467	ABS	2	0	24VC	0	1	1.02012991905	None	None	None	None	1
1.7	2015_Jul_21_1302	s	s	8	2	SIC	468	ABS	2	2	24VD	0	1	1.2470240593	None	None	None	None	1
1.7	2015_Jul_21_1302	s	s	8	2	SIC	469	ABS	1	1	24MO	0	1	7.56195998192	None	None	None	None	1
1.7	2015_Jul_21_1302	s	s	8	2	SIC	470	RC	0	1	23RO	1	0	1.72448015213	285.0	229.0	280	227	1
1.7	2015_Jul_21_1302	s	s	8	2	SIC	471	RC	0	2	23RD	1	0	1.07728910446	300.0	-315.0	303	-315	1
1.7	2015_Jul_21_1302	s	s	8	2	SIC	472	RC	1	0	23MC	1	0	9.72167301178	-114.0	320.0	-109	324	1
1.7	2015_Jul_21_1302	s	s	8	2	SIC	473	ABS	1	0	24MC	0	1	1.76490092278	None	None	None	None	1
1.7	2015_Jul_21_1302	s	s	8	2	SIC	474	ABS	0	1	24RO	0	1	8.00334906578	None	None	None	None	1
1.7	2015_Jul_21_1302	s	s	8	2	SIC	475	ABS	0	2	24RD	0	1	0.973896980286	None	None	None	None	1
1.7	2015_Jul_21_1302	s	s	8	2	SIC	476	ABS	1	2	24MD	0	1	1.88246893883	None	None	None	None	1
1.7	2015_Jul_21_1302	s	s	8	2	SIC	477	RC	1	2	23MD	1	0	0.846754074097	-115.0	224.0	-114	230	1
1.7	2015_Jul_21_1302	s	s	8	2	SIC	478	RC	2	0	23VC	1	0	0.885929822922	-165.0	383.0	-165	379	1
1.7	2015_Jul_21_1302	s	s	8	2	SIC	479	RC	1	1	23MO	1	0	2.90224790573	100.0	362.0	94	365	1
1.7	2015_Jul_21_1302	s	s	8	2	SIC	480	RC	2	1	23VO	1	0	0.7173640728	-300.0	-49.0	-303	-43	1
1.7	2015_Jul_21_1302	s	s	8	2	SIC	481	RC	1	1	23MO	1	0	0.771353006363	189.0	322.0	187	319	1
1.7	2015_Jul_21_1302	s	s	8	2	SIC	482	ABS	0	2	24RD	0	1	1.05419993401	None	None	None	None	1
1.7	2015_Jul_21_1302	s	s	8	2	SIC	483	RC	2	0	23VC	1	0	0.736269950867	-5.0	-184.0	-7	-180	1
1.7	2015_Jul_21_1302	s	s	8	2	SIC	484	ABS	2	0	24VC	0	1	1.15946412086	None	None	None	None	1
1.7	2015_Jul_21_1302	s	s	8	2	SIC	485	ABS	2	1	24VO	0	1	0.846777915955	None	None	None	None	1
1.7	2015_Jul_21_1302	s	s	8	2	SIC	486	RC	1	0	23MC	0	1	9.46281194687	-248.0	-245.0	None	None	0
1.7	2015_Jul_21_1302	s	s	8	2	SIC	487	ABS	1	1	24MO	0	1	6.01396417618	None	None	None	None	1
1.7	2015_Jul_21_1302	s	s	8	2	SIC	488	ABS	0	1	24RO	0	1	7.78345704079	None	None	None	None	1
1.7	2015_Jul_21_1302	s	s	8	2	SIC	489	ABS	2	2	24VD	0	1	0.736593961716	None	None	None	None	1
1.7	2015_Jul_21_1302	s	s	8	2	SIC	490	RC	2	1	23VO	1	0	0.858612060547	-227.0	298.0	-227	293	1
1.7	2015_Jul_21_1302	s	s	8	2	SIC	491	RC	2	2	23VD	1	0	0.549830913544	160.0	21.0	162	16	1
1.7	2015_Jul_21_1302	s	s	8	2	SIC	492	RC	0	2	23RD	1	0	0.664917945862	344.0	-347.0	341	-350	1
1.7	2015_Jul_21_1302	s	s	8	2	SIC	493	ABS	1	0	24MC	0	1	4.47209215164	None	None	None	None	1
1.7	2015_Jul_21_1302	s	s	8	2	SIC	494	RC	0	1	23RO	1	0	3.07146906853	-207.0	-390.0	-198	-391	1
1.7	2015_Jul_21_1302	s	s	8	2	SIC	495	RC	1	2	23MD	1	0	0.658480882645	242.0	-52.0	235	-52	1
1.7	2015_Jul_21_1302	s	s	8	2	SIC	496	ABS	1	2	24MD	0	1	1.22338294983	None	None	None	None	1
1.7	2015_Jul_21_1302	s	s	8	2	SIC	497	RC	0	1	23RO	1	0	1.56027197838	-319.0	350.0	-320	349	1
1.7	2015_Jul_21_1302	s	s	8	2	SIC	498	RC	2	1	23VO	1	0	0.678360939026	65.0	322.0	58	329	1
1.7	2015_Jul_21_1302	s	s	8	2	SIC	499	RC	1	2	23MD	1	0	0.564254999161	63.0	371.0	60	374	1
1.7	2015_Jul_21_1302	s	s	8	2	SIC	500	ABS	2	2	24VD	0	1	0.818121910095	None	None	None	None	1
1.7	2015_Jul_21_1302	s	s	8	2	SIC	501	ABS	2	0	24VC	0	1	0.91385102272	None	None	None	None	1
1.7	2015_Jul_21_1302	s	s	8	2	SIC	502	ABS	1	0	24MC	0	1	4.33789205551	None	None	None	None	1
1.7	2015_Jul_21_1302	s	s	8	2	SIC	503	RC	2	0	23VC	1	0	0.927227020264	-492.0	213.0	-493	210	1
1.7	2015_Jul_21_1302	s	s	8	2	SIC	504	RC	0	2	23RD	1	0	0.717344999313	-324.0	15.0	-331	9	1
1.7	2015_Jul_21_1302	s	s	8	2	SIC	505	RC	1	1	23MO	1	0	5.17328190804	360.0	-204.0	362	-200	1
1.7	2015_Jul_21_1302	s	s	8	2	SIC	506	ABS	0	1	24RO	0	1	5.41371703148	None	None	None	None	1
1.7	2015_Jul_21_1302	s	s	8	2	SIC	507	RC	1	0	23MC	0	1	12.6353740692	462.0	-296.0	None	None	0
1.7	2015_Jul_21_1302	s	s	8	2	SIC	508	ABS	1	2	24MD	0	1	0.853801012039	None	None	None	None	1
1.7	2015_Jul_21_1302	s	s	8	2	SIC	509	RC	2	2	23VD	1	0	0.646645069122	156.0	-230.0	159	-226	1
1.7	2015_Jul_21_1302	s	s	8	2	SIC	510	ABS	2	1	24VO	0	1	1.48246788979	None	None	None	None	1
1.7	2015_Jul_21_1302	s	s	8	2	SIC	511	ABS	0	2	24RD	0	1	0.81890296936	None	None	None	None	1
1.7	2015_Jul_21_1302	s	s	8	2	SIC	512	ABS	1	1	24MO	0	1	7.456553936	None	None	None	None	1
1.7	2015_Jul_21_1302	s	s	8	2	SIC	513	RC	1	2	23MD	1	0	0.929673910141	-388.0	-363.0	-382	-359	1
1.7	2015_Jul_21_1302	s	s	8	2	SIC	514	ABS	1	1	24MO	0	1	6.15040588379	None	None	None	None	1
1.7	2015_Jul_21_1302	s	s	8	2	SIC	515	RC	0	2	23RD	1	0	0.630290985107	256.0	-51.0	255	-53	1
1.7	2015_Jul_21_1302	s	s	8	2	SIC	516	ABS	1	2	24MD	0	1	0.996609926224	None	None	None	None	1
1.7	2015_Jul_21_1302	s	s	8	2	SIC	517	RC	2	0	23VC	1	0	0.976162910461	531.0	-19.0	533	-16	1
1.7	2015_Jul_21_1302	s	s	8	2	SIC	518	ABS	2	0	24VC	0	1	0.811511993408	None	None	None	None	1
1.7	2015_Jul_21_1302	s	s	8	2	SIC	519	ABS	0	1	24RO	0	1	4.98780202866	None	None	None	None	1
1.7	2015_Jul_21_1302	s	s	8	2	SIC	520	ABS	2	2	24VD	0	1	0.768162965775	None	None	None	None	1
1.7	2015_Jul_21_1302	s	s	8	2	SIC	521	RC	0	1	23RO	1	0	2.25463914871	-92.0	381.0	-99	383	1
1.7	2015_Jul_21_1302	s	s	8	2	SIC	522	RC	1	0	23MC	1	0	7.23326897621	193.0	-177.0	187	-177	1
1.7	2015_Jul_21_1302	s	s	8	2	SIC	523	ABS	0	2	24RD	0	1	0.776232004166	None	None	None	None	1
1.7	2015_Jul_21_1302	s	s	8	2	SIC	524	ABS	2	1	24VO	0	1	0.749289035797	None	None	None	None	1
1.7	2015_Jul_21_1302	s	s	8	2	SIC	525	RC	1	1	23MO	1	0	4.11904287338	30.0	282.0	23	284	1
1.7	2015_Jul_21_1302	s	s	8	2	SIC	526	ABS	1	0	24MC	0	1	1.48241496086	None	None	None	None	1
1.7	2015_Jul_21_1302	s	s	8	2	SIC	527	RC	2	2	23VD	1	0	0.72912812233	57.0	-222.0	55	-226	1
1.7	2015_Jul_21_1302	s	s	8	2	SIC	528	RC	2	1	23VO	1	0	0.641777038574	-454.0	-72.0	-458	-67	1
1.7	2015_Jul_21_1302	s	s	8	2	SIC	529	RC	1	2	23MD	1	0	0.740840911865	498.0	-123.0	505	-123	1
1.7	2015_Jul_21_1302	s	s	8	2	SIC	530	RC	1	1	23MO	1	0	1.91791582108	-167.0	296.0	-169	299	1
1.7	2015_Jul_21_1302	s	s	8	2	SIC	531	RC	2	0	23VC	1	0	0.587860107422	-322.0	161.0	-327	165	1
1.7	2015_Jul_21_1302	s	s	8	2	SIC	532	RC	2	1	23VO	1	0	0.559658050537	270.0	249.0	272	251	1
1.7	2015_Jul_21_1302	s	s	8	2	SIC	533	ABS	1	0	24MC	0	1	1.83552408218	None	None	None	None	1
1.7	2015_Jul_21_1302	s	s	8	2	SIC	534	RC	0	2	23RD	1	0	1.06730484962	-502.0	364.0	-493	363	1
1.7	2015_Jul_21_1302	s	s	8	2	SIC	535	ABS	1	1	24MO	0	1	3.0244410038	None	None	None	None	1
1.7	2015_Jul_21_1302	s	s	8	2	SIC	536	ABS	1	2	24MD	0	1	0.703116893768	None	None	None	None	1
1.7	2015_Jul_21_1302	s	s	8	2	SIC	537	ABS	0	2	24RD	0	1	1.14106011391	None	None	None	None	1
1.7	2015_Jul_21_1302	s	s	8	2	SIC	538	RC	1	0	23MC	0	1	4.03667402267	-40.0	-82.0	None	None	0
1.7	2015_Jul_21_1302	s	s	8	2	SIC	539	ABS	2	0	24VC	0	1	0.724297046661	None	None	None	None	1
1.7	2015_Jul_21_1302	s	s	8	2	SIC	540	ABS	2	1	24VO	0	1	0.717350006104	None	None	None	None	1
1.7	2015_Jul_21_1302	s	s	8	2	SIC	541	RC	2	2	23VD	1	0	0.858635902405	102.0	382.0	100	388	1
1.7	2015_Jul_21_1302	s	s	8	2	SIC	542	RC	0	1	23RO	1	0	3.7399418354	-268.0	-197.0	-265	-198	1
1.7	2015_Jul_21_1302	s	s	8	2	SIC	543	ABS	0	1	24RO	0	1	4.51440906525	None	None	None	None	1
1.7	2015_Jul_21_1302	s	s	8	2	SIC	544	ABS	2	2	24VD	0	1	0.681887865067	None	None	None	None	1
1.7	2015_Jul_21_1302	s	s	8	2	SIC	545	ABS	2	2	24VD	0	1	0.688788175583	None	None	None	None	1
1.7	2015_Jul_21_1302	s	s	8	2	SIC	546	ABS	1	0	24MC	0	1	5.13823199272	None	None	None	None	1
1.7	2015_Jul_21_1302	s	s	8	2	SIC	547	ABS	0	1	24RO	0	1	6.05489492416	None	None	None	None	1
1.7	2015_Jul_21_1302	s	s	8	2	SIC	548	RC	1	2	23MD	1	0	0.94093298912	175.0	-36.0	184	-34	1
1.7	2015_Jul_21_1302	s	s	8	2	SIC	549	RC	2	0	23VC	1	0	0.804780960083	339.0	281.0	343	289	1
1.7	2015_Jul_21_1302	s	s	8	2	SIC	550	RC	0	2	23RD	1	0	0.630060911179	-243.0	205.0	-235	205	1
1.7	2015_Jul_21_1302	s	s	8	2	SIC	551	RC	2	1	23VO	1	0	0.559150934219	94.0	251.0	102	250	1
1.7	2015_Jul_21_1302	s	s	8	2	SIC	552	ABS	1	2	24MD	0	1	2.15064001083	None	None	None	None	1
1.7	2015_Jul_21_1302	s	s	8	2	SIC	553	RC	0	1	23RO	1	0	6.26815319061	410.0	152.0	412	160	1
1.7	2015_Jul_21_1302	s	s	8	2	SIC	554	RC	2	2	23VD	1	0	0.971300840378	-435.0	-1.0	-441	1	1
1.7	2015_Jul_21_1302	s	s	8	2	SIC	555	ABS	2	0	24VC	0	1	2.0356528759	None	None	None	None	1
1.7	2015_Jul_21_1302	s	s	8	2	SIC	556	RC	1	1	23MO	1	0	1.38331794739	-92.0	157.0	-95	157	1
1.7	2015_Jul_21_1302	s	s	8	2	SIC	557	RC	1	0	23MC	1	0	2.3601000309	-343.0	253.0	-342	250	1
1.7	2015_Jul_21_1302	s	s	8	2	SIC	558	ABS	2	1	24VO	0	1	0.687793016434	None	None	None	None	1
1.7	2015_Jul_21_1302	s	s	8	2	SIC	559	ABS	1	1	24MO	0	1	4.46847200394	None	None	None	None	1
1.7	2015_Jul_21_1302	s	s	8	2	SIC	560	ABS	0	2	24RD	0	1	2.33677101135	None	None	None	None	1
1.7	2015_Jul_21_1302	s	s	8	2	SIC	561	ABS	0	2	24RD	0	1	0.926043987274	None	None	None	None	1
1.7	2015_Jul_21_1302	s	s	8	2	SIC	562	RC	1	1	23MO	1	0	1.47066497803	-213.0	246.0	-218	243	1
1.7	2015_Jul_21_1302	s	s	8	2	SIC	563	RC	2	1	23VO	1	0	0.688215970993	-17.0	73.0	-21	74	1
1.7	2015_Jul_21_1302	s	s	8	2	SIC	564	RC	0	1	23RO	1	0	1.14108705521	156.0	170.0	157	169	1
1.7	2015_Jul_21_1302	s	s	8	2	SIC	565	ABS	2	2	24VD	0	1	0.764423847198	None	None	None	None	1
1.7	2015_Jul_21_1302	s	s	8	2	SIC	566	ABS	1	1	24MO	0	1	2.74922990799	None	None	None	None	1
1.7	2015_Jul_21_1302	s	s	8	2	SIC	567	ABS	2	1	24VO	0	1	0.67650103569	None	None	None	None	1
1.7	2015_Jul_21_1302	s	s	8	2	SIC	568	RC	1	2	23MD	1	0	0.93581199646	-481.0	113.0	-479	118	1
1.7	2015_Jul_21_1302	s	s	8	2	SIC	569	ABS	0	1	24RO	0	1	3.87856197357	None	None	None	None	1
1.7	2015_Jul_21_1302	s	s	8	2	SIC	570	RC	2	0	23VC	1	0	0.792083024979	-249.0	-286.0	-254	-286	1
1.7	2015_Jul_21_1302	s	s	8	2	SIC	571	RC	2	2	23VD	1	0	0.70121216774	-118.0	346.0	-115	347	1
1.7	2015_Jul_21_1302	s	s	8	2	SIC	572	RC	0	2	23RD	1	0	0.658500909805	-139.0	-163.0	-141	-159	1
1.7	2015_Jul_21_1302	s	s	8	2	SIC	573	ABS	2	0	24VC	0	1	0.9526720047	None	None	None	None	1
1.7	2015_Jul_21_1302	s	s	8	2	SIC	574	ABS	1	0	24MC	0	1	2.91353416443	None	None	None	None	1
1.7	2015_Jul_21_1302	s	s	8	2	SIC	575	ABS	1	2	24MD	0	1	0.690441131592	None	None	None	None	1
1.7	2015_Jul_21_1302	s	s	8	2	SIC	576	RC	1	0	23MC	0	1	0.787970066071	-351.0	-123.0	None	None	0
1.7	2015_Jul_21_1302	s	s	8	2	SIC	577	ABS	1	1	24MO	0	1	4.3490960598	None	None	None	None	1
1.7	2015_Jul_21_1302	s	s	8	2	SIC	578	RC	2	1	23VO	1	0	0.95269203186	427.0	-263.0	426	-265	1
1.7	2015_Jul_21_1302	s	s	8	2	SIC	579	ABS	0	2	24RD	0	1	0.630430936813	None	None	None	None	1
1.7	2015_Jul_21_1302	s	s	8	2	SIC	580	RC	1	0	23MC	1	0	1.371571064	377.0	127.0	376	129	1
1.7	2015_Jul_21_1302	s	s	8	2	SIC	581	RC	0	1	23RO	1	0	3.53427481651	-22.0	312.0	-27	315	1
1.7	2015_Jul_21_1302	s	s	8	2	SIC	582	ABS	1	0	24MC	0	1	1.63219118118	None	None	None	None	1
1.7	2015_Jul_21_1302	s	s	8	2	SIC	583	RC	2	2	23VD	1	0	0.799731016159	-101.0	-343.0	-103	-343	1
1.7	2015_Jul_21_1302	s	s	8	2	SIC	584	ABS	2	1	24VO	0	1	0.936012983322	None	None	None	None	1
1.7	2015_Jul_21_1302	s	s	8	2	SIC	585	RC	0	2	23RD	1	0	0.729111909866	302.0	-309.0	298	-307	1
1.7	2015_Jul_21_1302	s	s	8	2	SIC	586	ABS	0	1	24RO	0	1	5.00175213814	None	None	None	None	1
1.7	2015_Jul_21_1302	s	s	8	2	SIC	587	RC	1	1	23MO	1	0	1.20037293434	-173.0	385.0	-182	385	1
1.7	2015_Jul_21_1302	s	s	8	2	SIC	588	RC	2	0	23VC	1	0	0.630001068115	49.0	145.0	50	141	1
1.7	2015_Jul_21_1302	s	s	8	2	SIC	589	ABS	1	2	24MD	0	1	1.46596097946	None	None	None	None	1
1.7	2015_Jul_21_1302	s	s	8	2	SIC	590	ABS	2	2	24VD	0	1	0.729089975357	None	None	None	None	1
1.7	2015_Jul_21_1302	s	s	8	2	SIC	591	RC	1	2	23MD	1	0	1.101541996	421.0	10.0	419	14	1
1.7	2015_Jul_21_1302	s	s	8	2	SIC	592	ABS	2	0	24VC	0	1	1.2801990509	None	None	None	None	1
