Version	Date	Stimuli	Method	Subject	Session	Condition	Trial	Target	Channel1	Channel2	Distractors	LMouseButton	RMouseButton	RT	TargetX	TargetY	ResponseX	ResponseY	Correct
1.7	2015_Jul_22_1311	s	s	8	3	Capacity	1	ABS	0	2	24RD	0	1	1.0181620121	None	None	None	None	1
1.7	2015_Jul_22_1311	s	s	8	3	Capacity	2	RC	0	1	23RO	1	0	1.19231510162	326.0	273.0	332	273	1
1.7	2015_Jul_22_1311	s	s	8	3	Capacity	3	RC	0	2	23RD	1	0	0.693837881088	486.0	-143.0	477	-145	1
1.7	2015_Jul_22_1311	s	s	8	3	Capacity	4	ABS	0	1	24RO	0	1	6.00239706039	None	None	None	None	1
1.7	2015_Jul_22_1311	s	s	8	3	Capacity	5	RC	0	2	23RD	1	0	0.632687807083	84.0	123.0	79	128	1
1.7	2015_Jul_22_1311	s	s	8	3	Capacity	6	RC	0	1	23RO	1	0	2.69462490082	-435.0	301.0	-434	308	1
1.7	2015_Jul_22_1311	s	s	8	3	Capacity	7	ABS	0	2	24RD	0	1	1.90617799759	None	None	None	None	1
1.7	2015_Jul_22_1311	s	s	8	3	Capacity	8	ABS	0	1	24RO	0	1	7.04254007339	None	None	None	None	1
1.7	2015_Jul_22_1311	s	s	8	3	Capacity	9	RC	0	2	23RD	1	0	0.841859102249	470.0	360.0	473	358	1
1.7	2015_Jul_22_1311	s	s	8	3	Capacity	10	ABS	0	2	24RD	0	1	1.74144697189	None	None	None	None	1
1.7	2015_Jul_22_1311	s	s	8	3	Capacity	11	ABS	0	1	24RO	0	1	5.91613793373	None	None	None	None	1
1.7	2015_Jul_22_1311	s	s	8	3	Capacity	12	RC	0	1	23RO	1	0	1.17390108109	43.0	-188.0	37	-189	1
1.7	2015_Jul_22_1311	s	s	8	3	Capacity	13	RC	0	1	23RO	1	0	4.18690419197	-354.0	51.0	-355	39	1
1.7	2015_Jul_22_1311	s	s	8	3	Capacity	14	RC	0	2	23RD	1	0	0.644106864929	-429.0	-6.0	-434	-6	1
1.7	2015_Jul_22_1311	s	s	8	3	Capacity	15	ABS	0	1	24RO	0	1	6.00882601738	None	None	None	None	1
1.7	2015_Jul_22_1311	s	s	8	3	Capacity	16	ABS	0	2	24RD	0	1	1.04206395149	None	None	None	None	1
1.7	2015_Jul_22_1311	s	s	8	3	Capacity	17	RC	0	1	23RO	1	0	1.57647585869	213.0	29.0	210	31	1
1.7	2015_Jul_22_1311	s	s	8	3	Capacity	18	ABS	0	2	24RD	0	1	2.25931811333	None	None	None	None	1
1.7	2015_Jul_22_1311	s	s	8	3	Capacity	19	RC	0	2	23RD	1	0	0.670567989349	11.0	139.0	13	133	1
1.7	2015_Jul_22_1311	s	s	8	3	Capacity	20	ABS	0	1	24RO	0	1	7.37952780724	None	None	None	None	1
1.7	2015_Jul_22_1311	s	s	8	3	Capacity	21	RC	0	2	23RD	1	0	0.658804893494	-48.0	1.0	-48	8	1
1.7	2015_Jul_22_1311	s	s	8	3	Capacity	22	ABS	0	2	24RD	0	1	3.20745587349	None	None	None	None	1
1.7	2015_Jul_22_1311	s	s	8	3	Capacity	23	RC	0	1	23RO	1	0	1.27705812454	250.0	303.0	254	311	1
1.7	2015_Jul_22_1311	s	s	8	3	Capacity	24	ABS	0	1	24RO	0	1	6.29668903351	None	None	None	None	1
1.7	2015_Jul_22_1311	s	s	8	3	Capacity	25	RC	0	1	23RO	1	0	1.56060099602	170.0	-385.0	168	-380	1
1.7	2015_Jul_22_1311	s	s	8	3	Capacity	26	ABS	0	1	24RO	0	1	7.32733106613	None	None	None	None	1
1.7	2015_Jul_22_1311	s	s	8	3	Capacity	27	RC	0	2	23RD	1	0	0.740881919861	123.0	36.0	117	41	1
1.7	2015_Jul_22_1311	s	s	8	3	Capacity	28	ABS	0	2	24RD	0	1	1.00585317612	None	None	None	None	1
1.7	2015_Jul_22_1311	s	s	8	3	Capacity	29	ABS	0	2	24RD	0	1	2.08951616287	None	None	None	None	1
1.7	2015_Jul_22_1311	s	s	8	3	Capacity	30	RC	0	1	23RO	1	0	6.07294416428	338.0	-12.0	350	-7	1
1.7	2015_Jul_22_1311	s	s	8	3	Capacity	31	RC	0	2	23RD	1	0	0.735424041748	427.0	-40.0	425	-36	1
1.7	2015_Jul_22_1311	s	s	8	3	Capacity	32	ABS	0	1	24RO	0	1	7.2449669838	None	None	None	None	1
1.7	2015_Jul_22_1311	s	s	8	3	Capacity	33	RC	0	1	23RO	1	0	1.71333408356	14.0	3.0	14	9	1
1.7	2015_Jul_22_1311	s	s	8	3	Capacity	34	RC	0	2	23RD	1	0	0.670245170593	-188.0	247.0	-195	243	1
1.7	2015_Jul_22_1311	s	s	8	3	Capacity	35	ABS	0	1	24RO	0	1	6.13890695572	None	None	None	None	1
1.7	2015_Jul_22_1311	s	s	8	3	Capacity	36	ABS	0	2	24RD	0	1	1.46516394615	None	None	None	None	1
1.7	2015_Jul_22_1311	s	s	8	3	Capacity	37	ABS	0	2	24RD	0	1	1.59511113167	None	None	None	None	1
1.7	2015_Jul_22_1311	s	s	8	3	Capacity	38	ABS	0	1	24RO	0	1	5.66800189018	None	None	None	None	1
1.7	2015_Jul_22_1311	s	s	8	3	Capacity	39	RC	0	2	23RD	1	0	0.971611976624	371.0	-204.0	367	-206	1
1.7	2015_Jul_22_1311	s	s	8	3	Capacity	40	RC	0	1	23RO	0	1	5.06068706512	145.0	-214.0	None	None	0
1.7	2015_Jul_22_1311	s	s	8	3	Capacity	41	ABS	0	1	24RO	0	1	5.67944192886	None	None	None	None	1
1.7	2015_Jul_22_1311	s	s	8	3	Capacity	42	RC	0	2	23RD	1	0	0.830193996429	233.0	-18.0	227	-19	1
1.7	2015_Jul_22_1311	s	s	8	3	Capacity	43	RC	0	1	23RO	1	0	1.07667303085	132.0	68.0	129	68	1
1.7	2015_Jul_22_1311	s	s	8	3	Capacity	44	ABS	0	2	24RD	0	1	1.4824719429	None	None	None	None	1
1.7	2015_Jul_22_1311	s	s	8	3	Capacity	45	RC	0	2	23RD	1	0	0.655526161194	-352.0	46.0	-351	45	1
1.7	2015_Jul_22_1311	s	s	8	3	Capacity	46	RC	0	1	23RO	1	0	5.2558350563	400.0	99.0	408	103	1
1.7	2015_Jul_22_1311	s	s	8	3	Capacity	47	ABS	0	2	24RD	0	1	1.93645405769	None	None	None	None	1
1.7	2015_Jul_22_1311	s	s	8	3	Capacity	48	ABS	0	1	24RO	0	1	9.72178292274	None	None	None	None	1
1.7	2015_Jul_22_1311	s	s	8	3	Capacity	49	ABS	0	1	24RO	0	1	6.73212909698	None	None	None	None	1
1.7	2015_Jul_22_1311	s	s	8	3	Capacity	50	RC	0	2	23RD	1	0	0.912647008896	-304.0	-132.0	-307	-123	1
1.7	2015_Jul_22_1311	s	s	8	3	Capacity	51	RC	0	1	23RO	1	0	2.90207004547	-482.0	171.0	-491	168	1
1.7	2015_Jul_22_1311	s	s	8	3	Capacity	52	ABS	0	2	24RD	0	1	1.94827795029	None	None	None	None	1
1.7	2015_Jul_22_1311	s	s	8	3	Capacity	53	ABS	0	2	24RD	0	1	1.57673311234	None	None	None	None	1
1.7	2015_Jul_22_1311	s	s	8	3	Capacity	54	RC	0	1	23RO	0	1	6.01407599449	332.0	236.0	None	None	0
1.7	2015_Jul_22_1311	s	s	8	3	Capacity	55	RC	0	2	23RD	1	0	0.705633163452	328.0	190.0	334	194	1
1.7	2015_Jul_22_1311	s	s	8	3	Capacity	56	ABS	0	1	24RO	0	1	7.14787197113	None	None	None	None	1
1.7	2015_Jul_22_1311	s	s	8	3	Capacity	57	RC	0	1	23RO	1	0	5.90484404564	516.0	-71.0	508	-73	1
1.7	2015_Jul_22_1311	s	s	8	3	Capacity	58	ABS	0	1	24RO	0	1	7.47356319427	None	None	None	None	1
1.7	2015_Jul_22_1311	s	s	8	3	Capacity	59	ABS	0	2	24RD	0	1	1.06723380089	None	None	None	None	1
1.7	2015_Jul_22_1311	s	s	8	3	Capacity	60	RC	0	2	23RD	1	0	0.688702106476	-169.0	204.0	-167	203	1
1.7	2015_Jul_22_1311	s	s	8	3	Capacity	61	RC	0	1	23RO	1	0	1.11251401901	176.0	15.0	175	17	1
1.7	2015_Jul_22_1311	s	s	8	3	Capacity	62	ABS	0	2	24RD	0	1	1.23537111282	None	None	None	None	1
1.7	2015_Jul_22_1311	s	s	8	3	Capacity	63	RC	0	2	23RD	1	0	0.764519929886	-464.0	-287.0	-469	-286	1
1.7	2015_Jul_22_1311	s	s	8	3	Capacity	64	ABS	0	1	24RO	0	1	6.47032284737	None	None	None	None	1
1.7	2015_Jul_22_1311	s	s	8	3	Capacity	65	RC	0	1	23RO	1	0	2.65628314018	-69.0	131.0	-59	138	1
1.7	2015_Jul_22_1311	s	s	8	3	Capacity	66	ABS	0	1	24RO	0	1	7.97754788399	None	None	None	None	1
1.7	2015_Jul_22_1311	s	s	8	3	Capacity	67	ABS	0	2	24RD	0	1	1.33630800247	None	None	None	None	1
1.7	2015_Jul_22_1311	s	s	8	3	Capacity	68	RC	0	2	23RD	1	0	1.01842403412	16.0	-333.0	27	-329	1
1.7	2015_Jul_22_1311	s	s	8	3	Capacity	69	RC	0	2	23RD	1	0	0.677036046982	326.0	51.0	328	52	1
1.7	2015_Jul_22_1311	s	s	8	3	Capacity	70	ABS	0	1	24RO	0	1	6.46150493622	None	None	None	None	1
1.7	2015_Jul_22_1311	s	s	8	3	Capacity	71	ABS	0	2	24RD	0	1	1.73855400085	None	None	None	None	1
1.7	2015_Jul_22_1311	s	s	8	3	Capacity	72	RC	0	1	23RO	1	0	1.52953791618	-98.0	-57.0	-94	-52	1
1.7	2015_Jul_22_1311	s	s	8	3	Capacity	73	RC	0	2	23RD	1	0	0.631478071213	-157.0	169.0	-157	167	1
1.7	2015_Jul_22_1311	s	s	8	3	Capacity	74	ABS	0	2	24RD	0	1	1.03189396858	None	None	None	None	1
1.7	2015_Jul_22_1311	s	s	8	3	Capacity	75	ABS	0	1	24RO	0	1	6.59089899063	None	None	None	None	1
1.7	2015_Jul_22_1311	s	s	8	3	Capacity	76	RC	0	1	23RO	1	0	4.47217798233	-414.0	98.0	-421	101	1
1.7	2015_Jul_22_1311	s	s	8	3	Capacity	77	RC	0	2	23RD	1	0	0.835518121719	283.0	323.0	282	328	1
1.7	2015_Jul_22_1311	s	s	8	3	Capacity	78	RC	0	1	23RO	1	0	4.0665409565	292.0	397.0	295	395	1
1.7	2015_Jul_22_1311	s	s	8	3	Capacity	79	ABS	0	2	24RD	0	1	0.917486906052	None	None	None	None	1
1.7	2015_Jul_22_1311	s	s	8	3	Capacity	80	ABS	0	1	24RO	0	1	7.22687411308	None	None	None	None	1
1.7	2015_Jul_22_1311	s	s	8	3	Capacity	81	ABS	0	1	24RO	0	1	6.17889404297	None	None	None	None	1
1.7	2015_Jul_22_1311	s	s	8	3	Capacity	82	RC	0	2	23RD	1	0	1.243309021	-201.0	-400.0	-198	-406	1
1.7	2015_Jul_22_1311	s	s	8	3	Capacity	83	ABS	0	2	24RD	0	1	2.30205202103	None	None	None	None	1
1.7	2015_Jul_22_1311	s	s	8	3	Capacity	84	RC	0	1	23RO	1	0	4.17451500893	-82.0	353.0	-87	349	1
1.7	2015_Jul_22_1311	s	s	8	3	Capacity	85	RC	0	1	23RO	1	0	2.05922412872	29.0	105.0	28	106	1
1.7	2015_Jul_22_1311	s	s	8	3	Capacity	86	RC	0	2	23RD	1	0	0.571538925171	298.0	372.0	290	371	1
1.7	2015_Jul_22_1311	s	s	8	3	Capacity	87	ABS	0	2	24RD	0	1	2.59828495979	None	None	None	None	1
1.7	2015_Jul_22_1311	s	s	8	3	Capacity	88	ABS	0	1	24RO	0	1	9.40784192085	None	None	None	None	1
1.7	2015_Jul_22_1311	s	s	8	3	Capacity	89	ABS	0	1	24RO	0	1	5.58568406105	None	None	None	None	1
1.7	2015_Jul_22_1311	s	s	8	3	Capacity	90	RC	0	2	23RD	1	0	0.799755096436	268.0	297.0	265	301	1
1.7	2015_Jul_22_1311	s	s	8	3	Capacity	91	RC	0	1	23RO	1	0	6.10493707657	-447.0	48.0	-440	49	1
1.7	2015_Jul_22_1311	s	s	8	3	Capacity	92	ABS	0	2	24RD	0	1	1.64726305008	None	None	None	None	1
1.7	2015_Jul_22_1311	s	s	8	3	Capacity	1	ABS	2	0	24VC	0	1	0.865369081497	None	None	None	None	1
1.7	2015_Jul_22_1311	s	s	8	3	Capacity	2	RC	2	0	23VC	1	0	0.712544202805	134.0	-258.0	135	-268	1
1.7	2015_Jul_22_1311	s	s	8	3	Capacity	3	ABS	1	0	24MC	0	1	6.90866088867	None	None	None	None	1
1.7	2015_Jul_22_1311	s	s	8	3	Capacity	4	RC	1	0	23MC	1	0	2.13678789139	-103.0	216.0	-104	218	1
1.7	2015_Jul_22_1311	s	s	8	3	Capacity	5	ABS	1	0	24MC	0	1	3.94253110886	None	None	None	None	1
1.7	2015_Jul_22_1311	s	s	8	3	Capacity	6	RC	1	0	23MC	1	0	3.68360304832	433.0	324.0	431	328	1
1.7	2015_Jul_22_1311	s	s	8	3	Capacity	7	ABS	2	0	24VC	0	1	1.18823289871	None	None	None	None	1
1.7	2015_Jul_22_1311	s	s	8	3	Capacity	8	RC	2	0	23VC	1	0	0.712633132935	-257.0	404.0	-249	404	1
1.7	2015_Jul_22_1311	s	s	8	3	Capacity	9	ABS	1	0	24MC	0	1	3.90721201897	None	None	None	None	1
1.7	2015_Jul_22_1311	s	s	8	3	Capacity	10	RC	2	0	23VC	1	0	0.70023393631	333.0	-199.0	332	-198	1
1.7	2015_Jul_22_1311	s	s	8	3	Capacity	11	RC	1	0	23MC	1	0	5.69124317169	-394.0	290.0	-390	293	1
1.7	2015_Jul_22_1311	s	s	8	3	Capacity	12	ABS	2	0	24VC	0	1	1.63548183441	None	None	None	None	1
1.7	2015_Jul_22_1311	s	s	8	3	Capacity	13	ABS	2	0	24VC	0	1	1.89440989494	None	None	None	None	1
1.7	2015_Jul_22_1311	s	s	8	3	Capacity	14	ABS	1	0	24MC	0	1	5.38470482826	None	None	None	None	1
1.7	2015_Jul_22_1311	s	s	8	3	Capacity	15	RC	1	0	23MC	1	0	2.85487294197	-230.0	353.0	-233	360	1
1.7	2015_Jul_22_1311	s	s	8	3	Capacity	16	RC	2	0	23VC	1	0	0.947885036469	-522.0	259.0	-533	265	1
1.7	2015_Jul_22_1311	s	s	8	3	Capacity	17	ABS	2	0	24VC	0	1	0.752676963806	None	None	None	None	1
1.7	2015_Jul_22_1311	s	s	8	3	Capacity	18	RC	2	0	23VC	1	0	0.705661058426	378.0	0.0	370	-1	1
1.7	2015_Jul_22_1311	s	s	8	3	Capacity	19	ABS	1	0	24MC	0	1	5.03140711784	None	None	None	None	1
1.7	2015_Jul_22_1311	s	s	8	3	Capacity	20	RC	1	0	23MC	1	0	1.83000779152	-56.0	246.0	-56	246	1
1.7	2015_Jul_22_1311	s	s	8	3	Capacity	21	ABS	1	0	24MC	0	1	2.41901087761	None	None	None	None	1
1.7	2015_Jul_22_1311	s	s	8	3	Capacity	22	RC	1	0	23MC	0	1	3.51304006577	192.0	-384.0	None	None	0
1.7	2015_Jul_22_1311	s	s	8	3	Capacity	23	ABS	2	0	24VC	0	1	1.0541229248	None	None	None	None	1
1.7	2015_Jul_22_1311	s	s	8	3	Capacity	24	RC	2	0	23VC	1	0	0.818325996399	381.0	298.0	381	294	1
1.7	2015_Jul_22_1311	s	s	8	3	Capacity	25	ABS	1	0	24MC	0	1	6.17430996895	None	None	None	None	1
1.7	2015_Jul_22_1311	s	s	8	3	Capacity	26	RC	2	0	23VC	1	0	0.701054096222	-96.0	-81.0	-91	-78	1
1.7	2015_Jul_22_1311	s	s	8	3	Capacity	27	ABS	2	0	24VC	0	1	0.865321874619	None	None	None	None	1
1.7	2015_Jul_22_1311	s	s	8	3	Capacity	28	RC	1	0	23MC	1	0	2.92563509941	272.0	302.0	268	304	1
1.7	2015_Jul_22_1311	s	s	8	3	Capacity	29	RC	1	0	23MC	1	0	8.39887309074	147.0	-362.0	146	-368	1
1.7	2015_Jul_22_1311	s	s	8	3	Capacity	30	ABS	1	0	24MC	0	1	2.92513108253	None	None	None	None	1
1.7	2015_Jul_22_1311	s	s	8	3	Capacity	31	ABS	2	0	24VC	0	1	0.923921108246	None	None	None	None	1
1.7	2015_Jul_22_1311	s	s	8	3	Capacity	32	RC	2	0	23VC	1	0	0.795037984848	-283.0	80.0	-288	79	1
1.7	2015_Jul_22_1311	s	s	8	3	Capacity	33	RC	2	0	23VC	1	0	0.559131145477	-284.0	244.0	-288	247	1
1.7	2015_Jul_22_1311	s	s	8	3	Capacity	34	ABS	1	0	24MC	0	1	5.93875384331	None	None	None	None	1
1.7	2015_Jul_22_1311	s	s	8	3	Capacity	35	ABS	2	0	24VC	0	1	0.879688024521	None	None	None	None	1
1.7	2015_Jul_22_1311	s	s	8	3	Capacity	36	RC	1	0	23MC	1	0	3.21267580986	-98.0	-18.0	-99	-12	1
1.7	2015_Jul_22_1311	s	s	8	3	Capacity	37	ABS	1	0	24MC	0	1	2.24756884575	None	None	None	None	1
1.7	2015_Jul_22_1311	s	s	8	3	Capacity	38	RC	1	0	23MC	1	0	2.18869805336	-412.0	376.0	-414	382	1
1.7	2015_Jul_22_1311	s	s	8	3	Capacity	39	RC	2	0	23VC	1	0	1.17646813393	-112.0	-227.0	-121	-230	1
1.7	2015_Jul_22_1311	s	s	8	3	Capacity	40	ABS	2	0	24VC	0	1	0.952758073807	None	None	None	None	1
1.7	2015_Jul_22_1311	s	s	8	3	Capacity	41	RC	2	0	23VC	1	0	1.59541487694	435.0	337.0	442	340	1
1.7	2015_Jul_22_1311	s	s	8	3	Capacity	42	ABS	2	0	24VC	0	1	0.853573083878	None	None	None	None	1
1.7	2015_Jul_22_1311	s	s	8	3	Capacity	43	ABS	1	0	24MC	0	1	3.14208912849	None	None	None	None	1
1.7	2015_Jul_22_1311	s	s	8	3	Capacity	44	RC	1	0	23MC	1	0	3.31871318817	214.0	300.0	214	304	1
1.7	2015_Jul_22_1311	s	s	8	3	Capacity	45	RC	1	0	23MC	1	0	2.67935991287	-65.0	377.0	-60	374	1
1.7	2015_Jul_22_1311	s	s	8	3	Capacity	46	ABS	1	0	24MC	0	1	1.83054304123	None	None	None	None	1
1.7	2015_Jul_22_1311	s	s	8	3	Capacity	47	ABS	2	0	24VC	0	1	1.06493806839	None	None	None	None	1
1.7	2015_Jul_22_1311	s	s	8	3	Capacity	48	RC	2	0	23VC	1	0	0.917464971542	-540.0	-188.0	-536	-181	1
1.7	2015_Jul_22_1311	s	s	8	3	Capacity	49	ABS	2	0	24VC	0	1	1.12935900688	None	None	None	None	1
1.7	2015_Jul_22_1311	s	s	8	3	Capacity	50	RC	2	0	23VC	1	0	1.18824696541	-331.0	-136.0	-322	-139	1
1.7	2015_Jul_22_1311	s	s	8	3	Capacity	51	RC	1	0	23MC	1	0	5.87954497337	73.0	-223.0	77	-229	1
1.7	2015_Jul_22_1311	s	s	8	3	Capacity	52	ABS	1	0	24MC	0	1	1.95077490807	None	None	None	None	1
1.7	2015_Jul_22_1311	s	s	8	3	Capacity	53	RC	1	0	23MC	1	0	4.0083990097	-395.0	-127.0	-402	-123	1
1.7	2015_Jul_22_1311	s	s	8	3	Capacity	54	ABS	2	0	24VC	0	1	0.776215076447	None	None	None	None	1
1.7	2015_Jul_22_1311	s	s	8	3	Capacity	55	ABS	1	0	24MC	0	1	3.30107307434	None	None	None	None	1
1.7	2015_Jul_22_1311	s	s	8	3	Capacity	56	RC	2	0	23VC	1	0	0.750174999237	-34.0	287.0	-27	290	1
1.7	2015_Jul_22_1311	s	s	8	3	Capacity	57	ABS	1	0	24MC	0	1	3.12552690506	None	None	None	None	1
1.7	2015_Jul_22_1311	s	s	8	3	Capacity	58	RC	1	0	23MC	1	0	4.05499696732	-494.0	403.0	-495	406	1
1.7	2015_Jul_22_1311	s	s	8	3	Capacity	59	ABS	2	0	24VC	0	1	0.949994802475	None	None	None	None	1
1.7	2015_Jul_22_1311	s	s	8	3	Capacity	60	RC	2	0	23VC	1	0	1.03516387939	236.0	-399.0	239	-401	1
1.7	2015_Jul_22_1311	s	s	8	3	Capacity	61	RC	1	0	23MC	1	0	3.62462115288	-25.0	-11.0	-25	-8	1
1.7	2015_Jul_22_1311	s	s	8	3	Capacity	62	ABS	1	0	24MC	0	1	3.56585001945	None	None	None	None	1
1.7	2015_Jul_22_1311	s	s	8	3	Capacity	63	RC	2	0	23VC	1	0	0.771082878113	121.0	405.0	121	404	1
1.7	2015_Jul_22_1311	s	s	8	3	Capacity	64	ABS	2	0	24VC	0	1	1.25870203972	None	None	None	None	1
1.7	2015_Jul_22_1311	s	s	8	3	Capacity	65	ABS	1	0	24MC	0	1	3.10213589668	None	None	None	None	1
1.7	2015_Jul_22_1311	s	s	8	3	Capacity	66	RC	1	0	23MC	1	0	5.86757087708	333.0	-241.0	339	-243	1
1.7	2015_Jul_22_1311	s	s	8	3	Capacity	67	ABS	2	0	24VC	0	1	0.736637115479	None	None	None	None	1
1.7	2015_Jul_22_1311	s	s	8	3	Capacity	68	RC	2	0	23VC	1	0	1.13594102859	502.0	-145.0	508	-148	1
1.7	2015_Jul_22_1311	s	s	8	3	Capacity	69	RC	2	0	23VC	1	0	0.641722202301	349.0	371.0	354	372	1
1.7	2015_Jul_22_1311	s	s	8	3	Capacity	70	ABS	1	0	24MC	0	1	3.3656129837	None	None	None	None	1
1.7	2015_Jul_22_1311	s	s	8	3	Capacity	71	ABS	2	0	24VC	0	1	1.66695094109	None	None	None	None	1
1.7	2015_Jul_22_1311	s	s	8	3	Capacity	72	RC	1	0	23MC	1	0	6.35071206093	-42.0	-199.0	-36	-205	1
1.7	2015_Jul_22_1311	s	s	8	3	Capacity	73	ABS	2	0	24VC	0	1	0.818253040314	None	None	None	None	1
1.7	2015_Jul_22_1311	s	s	8	3	Capacity	74	RC	2	0	23VC	1	0	0.995417833328	386.0	179.0	383	178	1
1.7	2015_Jul_22_1311	s	s	8	3	Capacity	75	RC	1	0	23MC	1	0	2.27108407021	177.0	283.0	173	288	1
1.7	2015_Jul_22_1311	s	s	8	3	Capacity	76	ABS	1	0	24MC	0	1	3.86660790443	None	None	None	None	1
1.7	2015_Jul_22_1311	s	s	8	3	Capacity	77	ABS	1	0	24MC	0	1	4.91437292099	None	None	None	None	1
1.7	2015_Jul_22_1311	s	s	8	3	Capacity	78	RC	2	0	23VC	1	0	0.900960922241	237.0	-218.0	237	-215	1
1.7	2015_Jul_22_1311	s	s	8	3	Capacity	79	RC	1	0	23MC	1	0	7.97356700897	422.0	-147.0	425	-140	1
1.7	2015_Jul_22_1311	s	s	8	3	Capacity	80	ABS	2	0	24VC	0	1	0.749470949173	None	None	None	None	1
1.7	2015_Jul_22_1311	s	s	8	3	Capacity	81	ABS	1	0	24MC	0	1	1.17641806602	None	None	None	None	1
1.7	2015_Jul_22_1311	s	s	8	3	Capacity	82	RC	2	0	23VC	1	0	0.853238105774	122.0	319.0	121	327	1
1.7	2015_Jul_22_1311	s	s	8	3	Capacity	83	RC	1	0	23MC	1	0	5.42557001114	244.0	-344.0	250	-348	1
1.7	2015_Jul_22_1311	s	s	8	3	Capacity	84	ABS	2	0	24VC	0	1	0.900897979736	None	None	None	None	1
1.7	2015_Jul_22_1311	s	s	8	3	Capacity	85	RC	2	0	23VC	1	0	0.830066919327	272.0	185.0	275	194	1
1.7	2015_Jul_22_1311	s	s	8	3	Capacity	86	ABS	1	0	24MC	0	1	2.34164905548	None	None	None	None	1
1.7	2015_Jul_22_1311	s	s	8	3	Capacity	87	ABS	2	0	24VC	0	1	0.870339870453	None	None	None	None	1
1.7	2015_Jul_22_1311	s	s	8	3	Capacity	88	RC	1	0	23MC	1	0	7.50350093842	-289.0	-230.0	-295	-228	1
1.7	2015_Jul_22_1311	s	s	8	3	Capacity	89	RC	1	0	23MC	0	1	7.53973388672	-480.0	-118.0	None	None	0
1.7	2015_Jul_22_1311	s	s	8	3	Capacity	90	ABS	1	0	24MC	0	1	5.9670419693	None	None	None	None	1
1.7	2015_Jul_22_1311	s	s	8	3	Capacity	91	ABS	2	0	24VC	0	1	0.729215145111	None	None	None	None	1
1.7	2015_Jul_22_1311	s	s	8	3	Capacity	92	RC	2	0	23VC	1	0	0.946465015411	266.0	376.0	259	381	1
1.7	2015_Jul_22_1311	s	s	8	3	SIC	1	RC	2	0	23VC	1	0	0.758343935013	113.0	-258.0	112	-261	1
1.7	2015_Jul_22_1311	s	s	8	3	SIC	2	RC	0	2	23RD	1	0	0.654120922089	-173.0	-321.0	-170	-329	1
1.7	2015_Jul_22_1311	s	s	8	3	SIC	3	ABS	1	2	24MD	0	1	0.915205955505	None	None	None	None	1
1.7	2015_Jul_22_1311	s	s	8	3	SIC	4	RC	2	1	23VO	1	0	0.85880613327	499.0	-51.0	492	-49	1
1.7	2015_Jul_22_1311	s	s	8	3	SIC	5	ABS	2	0	24VC	0	1	0.847262144089	None	None	None	None	1
1.7	2015_Jul_22_1311	s	s	8	3	SIC	6	ABS	1	0	24MC	0	1	4.20708703995	None	None	None	None	1
1.7	2015_Jul_22_1311	s	s	8	3	SIC	7	RC	2	2	23VD	1	0	0.58792090416	106.0	-218.0	104	-215	1
1.7	2015_Jul_22_1311	s	s	8	3	SIC	8	RC	1	0	23MC	1	0	8.13290500641	315.0	-221.0	316	-220	1
1.7	2015_Jul_22_1311	s	s	8	3	SIC	9	ABS	0	1	24RO	0	1	6.52632689476	None	None	None	None	1
1.7	2015_Jul_22_1311	s	s	8	3	SIC	10	RC	1	2	23MD	1	0	0.764428138733	451.0	-264.0	452	-258	1
1.7	2015_Jul_22_1311	s	s	8	3	SIC	11	RC	1	1	23MO	1	0	1.58351802826	-508.0	389.0	-500	391	1
1.7	2015_Jul_22_1311	s	s	8	3	SIC	12	ABS	2	1	24VO	0	1	1.08214306831	None	None	None	None	1
1.7	2015_Jul_22_1311	s	s	8	3	SIC	13	ABS	2	2	24VD	0	1	0.835345029831	None	None	None	None	1
1.7	2015_Jul_22_1311	s	s	8	3	SIC	14	ABS	1	1	24MO	0	1	6.03776407242	None	None	None	None	1
1.7	2015_Jul_22_1311	s	s	8	3	SIC	15	ABS	0	2	24RD	0	1	1.32961201668	None	None	None	None	1
1.7	2015_Jul_22_1311	s	s	8	3	SIC	16	RC	0	1	23RO	1	0	1.38835000992	62.0	118.0	62	118	1
1.7	2015_Jul_22_1311	s	s	8	3	SIC	17	ABS	2	2	24VD	0	1	0.758086919785	None	None	None	None	1
1.7	2015_Jul_22_1311	s	s	8	3	SIC	18	RC	0	2	23RD	1	0	0.900830030441	407.0	48.0	403	46	1
1.7	2015_Jul_22_1311	s	s	8	3	SIC	19	ABS	1	1	24MO	0	1	6.71783304214	None	None	None	None	1
1.7	2015_Jul_22_1311	s	s	8	3	SIC	20	RC	1	1	23MO	1	0	0.717397928238	9.0	82.0	5	80	1
1.7	2015_Jul_22_1311	s	s	8	3	SIC	21	ABS	0	2	24RD	0	1	0.823392152786	None	None	None	None	1
1.7	2015_Jul_22_1311	s	s	8	3	SIC	22	RC	2	2	23VD	1	0	0.665395975113	260.0	170.0	267	173	1
1.7	2015_Jul_22_1311	s	s	8	3	SIC	23	RC	2	1	23VO	1	0	0.558960914612	373.0	127.0	367	133	1
1.7	2015_Jul_22_1311	s	s	8	3	SIC	24	RC	2	0	23VC	1	0	0.540854930878	119.0	355.0	113	362	1
1.7	2015_Jul_22_1311	s	s	8	3	SIC	25	RC	1	0	23MC	1	0	4.98354697227	-209.0	-323.0	-211	-324	1
1.7	2015_Jul_22_1311	s	s	8	3	SIC	26	ABS	0	1	24RO	0	1	8.58679080009	None	None	None	None	1
1.7	2015_Jul_22_1311	s	s	8	3	SIC	27	RC	0	1	23RO	1	0	3.63177895546	128.0	12.0	128	12	1
1.7	2015_Jul_22_1311	s	s	8	3	SIC	28	ABS	2	0	24VC	0	1	1.37297010422	None	None	None	None	1
1.7	2015_Jul_22_1311	s	s	8	3	SIC	29	ABS	1	0	24MC	0	1	10.5291700363	None	None	None	None	1
1.7	2015_Jul_22_1311	s	s	8	3	SIC	30	ABS	1	2	24MD	0	1	0.79727602005	None	None	None	None	1
1.7	2015_Jul_22_1311	s	s	8	3	SIC	31	RC	1	2	23MD	1	0	0.764461994171	-105.0	266.0	-104	271	1
1.7	2015_Jul_22_1311	s	s	8	3	SIC	32	ABS	2	1	24VO	0	1	0.983386993408	None	None	None	None	1
1.7	2015_Jul_22_1311	s	s	8	3	SIC	33	RC	0	1	23RO	1	0	1.15294098854	-259.0	129.0	-259	134	1
1.7	2015_Jul_22_1311	s	s	8	3	SIC	34	RC	1	2	23MD	1	0	1.15282917023	243.0	-399.0	245	-392	1
1.7	2015_Jul_22_1311	s	s	8	3	SIC	35	ABS	1	1	24MO	0	1	7.22648692131	None	None	None	None	1
1.7	2015_Jul_22_1311	s	s	8	3	SIC	36	RC	2	2	23VD	1	0	0.677138805389	522.0	183.0	530	188	1
1.7	2015_Jul_22_1311	s	s	8	3	SIC	37	RC	1	1	23MO	1	0	2.62420105934	-390.0	315.0	-391	316	1
1.7	2015_Jul_22_1311	s	s	8	3	SIC	38	ABS	2	1	24VO	0	1	0.806463003159	None	None	None	None	1
1.7	2015_Jul_22_1311	s	s	8	3	SIC	39	ABS	0	1	24RO	0	1	6.56446814537	None	None	None	None	1
1.7	2015_Jul_22_1311	s	s	8	3	SIC	40	ABS	1	0	24MC	0	1	3.63157391548	None	None	None	None	1
1.7	2015_Jul_22_1311	s	s	8	3	SIC	41	ABS	0	2	24RD	0	1	1.23531889915	None	None	None	None	1
1.7	2015_Jul_22_1311	s	s	8	3	SIC	42	ABS	2	2	24VD	0	1	0.705439090729	None	None	None	None	1
1.7	2015_Jul_22_1311	s	s	8	3	SIC	43	RC	2	0	23VC	1	0	1.31759595871	194.0	387.0	195	396	1
1.7	2015_Jul_22_1311	s	s	8	3	SIC	44	RC	0	2	23RD	1	0	0.608006000519	-428.0	173.0	-420	170	1
1.7	2015_Jul_22_1311	s	s	8	3	SIC	45	ABS	2	0	24VC	0	1	0.712555170059	None	None	None	None	1
1.7	2015_Jul_22_1311	s	s	8	3	SIC	46	ABS	1	2	24MD	0	1	0.776654005051	None	None	None	None	1
1.7	2015_Jul_22_1311	s	s	8	3	SIC	47	RC	2	1	23VO	1	0	0.705652952194	286.0	317.0	292	315	1
1.7	2015_Jul_22_1311	s	s	8	3	SIC	48	RC	1	0	23MC	1	0	6.47316503525	309.0	-171.0	316	-173	1
1.7	2015_Jul_22_1311	s	s	8	3	SIC	49	RC	2	1	23VO	1	0	0.670273065567	-213.0	344.0	-213	336	1
1.7	2015_Jul_22_1311	s	s	8	3	SIC	50	ABS	0	2	24RD	0	1	0.784566164017	None	None	None	None	1
1.7	2015_Jul_22_1311	s	s	8	3	SIC	51	RC	1	1	23MO	1	0	2.89490103722	-273.0	-73.0	-276	-69	1
1.7	2015_Jul_22_1311	s	s	8	3	SIC	52	RC	0	2	23RD	1	0	0.667783975601	-192.0	-165.0	-191	-162	1
1.7	2015_Jul_22_1311	s	s	8	3	SIC	53	ABS	2	1	24VO	0	1	1.02077388763	None	None	None	None	1
1.7	2015_Jul_22_1311	s	s	8	3	SIC	54	ABS	2	2	24VD	0	1	0.78428196907	None	None	None	None	1
1.7	2015_Jul_22_1311	s	s	8	3	SIC	55	RC	1	0	23MC	1	0	5.8092508316	329.0	-412.0	332	-413	1
1.7	2015_Jul_22_1311	s	s	8	3	SIC	56	ABS	1	0	24MC	0	1	3.36073613167	None	None	None	None	1
1.7	2015_Jul_22_1311	s	s	8	3	SIC	57	ABS	0	1	24RO	0	1	9.58748793602	None	None	None	None	1
1.7	2015_Jul_22_1311	s	s	8	3	SIC	58	RC	0	1	23RO	1	0	1.50603985786	9.0	107.0	9	109	1
1.7	2015_Jul_22_1311	s	s	8	3	SIC	59	RC	1	2	23MD	1	0	0.841070890427	473.0	-186.0	477	-186	1
1.7	2015_Jul_22_1311	s	s	8	3	SIC	60	RC	2	2	23VD	1	0	0.623190879822	-1.0	19.0	0	25	1
1.7	2015_Jul_22_1311	s	s	8	3	SIC	61	ABS	1	2	24MD	0	1	1.47762584686	None	None	None	None	1
1.7	2015_Jul_22_1311	s	s	8	3	SIC	62	ABS	2	0	24VC	0	1	1.04708385468	None	None	None	None	1
1.7	2015_Jul_22_1311	s	s	8	3	SIC	63	ABS	1	1	24MO	0	1	5.47913694382	None	None	None	None	1
1.7	2015_Jul_22_1311	s	s	8	3	SIC	64	RC	2	0	23VC	1	0	1.14807081223	-493.0	392.0	-497	393	1
1.7	2015_Jul_22_1311	s	s	8	3	SIC	65	ABS	2	0	24VC	0	1	1.1293451786	None	None	None	None	1
1.7	2015_Jul_22_1311	s	s	8	3	SIC	66	ABS	1	1	24MO	0	1	5.9384469986	None	None	None	None	1
1.7	2015_Jul_22_1311	s	s	8	3	SIC	67	RC	1	1	23MO	1	0	5.99637103081	112.0	-374.0	115	-383	1
1.7	2015_Jul_22_1311	s	s	8	3	SIC	68	ABS	1	0	24MC	0	1	4.23679995537	None	None	None	None	1
1.7	2015_Jul_22_1311	s	s	8	3	SIC	69	ABS	1	2	24MD	0	1	1.04219508171	None	None	None	None	1
1.7	2015_Jul_22_1311	s	s	8	3	SIC	70	ABS	0	1	24RO	0	1	6.28488087654	None	None	None	None	1
1.7	2015_Jul_22_1311	s	s	8	3	SIC	71	RC	2	0	23VC	1	0	1.20371198654	-513.0	-299.0	-515	-294	1
1.7	2015_Jul_22_1311	s	s	8	3	SIC	72	RC	1	0	23MC	1	0	2.54201102257	-39.0	-64.0	-39	-58	1
1.7	2015_Jul_22_1311	s	s	8	3	SIC	73	RC	0	2	23RD	1	0	0.630209207535	88.0	130.0	92	136	1
1.7	2015_Jul_22_1311	s	s	8	3	SIC	74	ABS	2	2	24VD	0	1	0.841148853302	None	None	None	None	1
1.7	2015_Jul_22_1311	s	s	8	3	SIC	75	RC	1	2	23MD	1	0	0.607306003571	26.0	-143.0	24	-146	1
1.7	2015_Jul_22_1311	s	s	8	3	SIC	76	RC	0	1	23RO	1	0	3.03617715836	279.0	-287.0	286	-287	1
1.7	2015_Jul_22_1311	s	s	8	3	SIC	77	RC	2	2	23VD	1	0	0.559374094009	-47.0	-46.0	-43	-47	1
1.7	2015_Jul_22_1311	s	s	8	3	SIC	78	RC	2	1	23VO	1	0	0.571780204773	-504.0	13.0	-508	21	1
1.7	2015_Jul_22_1311	s	s	8	3	SIC	79	ABS	2	1	24VO	0	1	1.15274596214	None	None	None	None	1
1.7	2015_Jul_22_1311	s	s	8	3	SIC	80	ABS	0	2	24RD	0	1	1.2069568634	None	None	None	None	1
1.7	2015_Jul_22_1311	s	s	8	3	SIC	81	RC	2	0	23VC	1	0	1.22352600098	432.0	316.0	428	323	1
1.7	2015_Jul_22_1311	s	s	8	3	SIC	82	ABS	0	1	24RO	0	1	7.54802393913	None	None	None	None	1
1.7	2015_Jul_22_1311	s	s	8	3	SIC	83	ABS	1	0	24MC	0	1	4.35450696945	None	None	None	None	1
1.7	2015_Jul_22_1311	s	s	8	3	SIC	84	ABS	0	2	24RD	0	1	1.30111002922	None	None	None	None	1
1.7	2015_Jul_22_1311	s	s	8	3	SIC	85	ABS	1	2	24MD	0	1	0.923588991165	None	None	None	None	1
1.7	2015_Jul_22_1311	s	s	8	3	SIC	86	RC	1	1	23MO	1	0	1.51285004616	-402.0	-166.0	-407	-165	1
1.7	2015_Jul_22_1311	s	s	8	3	SIC	87	ABS	1	1	24MO	0	1	5.09096503258	None	None	None	None	1
1.7	2015_Jul_22_1311	s	s	8	3	SIC	88	RC	0	1	23RO	1	0	3.23627686501	158.0	270.0	151	269	1
1.7	2015_Jul_22_1311	s	s	8	3	SIC	89	RC	1	0	23MC	1	0	7.80332303047	-227.0	-12.0	-222	-11	1
1.7	2015_Jul_22_1311	s	s	8	3	SIC	90	ABS	2	2	24VD	0	1	0.733120918274	None	None	None	None	1
1.7	2015_Jul_22_1311	s	s	8	3	SIC	91	ABS	2	1	24VO	0	1	1.45396900177	None	None	None	None	1
1.7	2015_Jul_22_1311	s	s	8	3	SIC	92	ABS	2	0	24VC	0	1	0.96439909935	None	None	None	None	1
1.7	2015_Jul_22_1311	s	s	8	3	SIC	93	RC	0	2	23RD	1	0	0.893934011459	137.0	258.0	135	262	1
1.7	2015_Jul_22_1311	s	s	8	3	SIC	94	RC	2	2	23VD	1	0	0.924280166626	225.0	-296.0	216	-296	1
1.7	2015_Jul_22_1311	s	s	8	3	SIC	95	RC	2	1	23VO	1	0	0.799634933472	-344.0	-221.0	-347	-219	1
1.7	2015_Jul_22_1311	s	s	8	3	SIC	96	RC	1	2	23MD	1	0	0.512367010117	227.0	-18.0	227	-19	1
1.7	2015_Jul_22_1311	s	s	8	3	SIC	97	ABS	2	1	24VO	0	1	0.947659015656	None	None	None	None	1
1.7	2015_Jul_22_1311	s	s	8	3	SIC	98	RC	1	1	23MO	1	0	1.99662804604	127.0	321.0	129	315	1
1.7	2015_Jul_22_1311	s	s	8	3	SIC	99	ABS	0	1	24RO	0	1	6.35543990135	None	None	None	None	1
1.7	2015_Jul_22_1311	s	s	8	3	SIC	100	RC	2	2	23VD	1	0	0.594762802124	-270.0	115.0	-279	117	1
1.7	2015_Jul_22_1311	s	s	8	3	SIC	101	ABS	1	0	24MC	0	1	3.23626708984	None	None	None	None	1
1.7	2015_Jul_22_1311	s	s	8	3	SIC	102	RC	0	1	23RO	1	0	5.37833499908	-518.0	-404.0	-522	-405	1
1.7	2015_Jul_22_1311	s	s	8	3	SIC	103	RC	1	2	23MD	1	0	0.646768093109	40.0	140.0	40	143	1
1.7	2015_Jul_22_1311	s	s	8	3	SIC	104	ABS	1	2	24MD	0	1	2.00698590279	None	None	None	None	1
1.7	2015_Jul_22_1311	s	s	8	3	SIC	105	RC	2	0	23VC	1	0	0.587933063507	-351.0	-143.0	-348	-149	1
1.7	2015_Jul_22_1311	s	s	8	3	SIC	106	RC	2	1	23VO	1	0	0.677184104919	537.0	391.0	537	386	1
1.7	2015_Jul_22_1311	s	s	8	3	SIC	107	ABS	1	1	24MO	0	1	6.99791693687	None	None	None	None	1
1.7	2015_Jul_22_1311	s	s	8	3	SIC	108	RC	0	2	23RD	1	0	0.835400104523	-186.0	-45.0	-189	-41	1
1.7	2015_Jul_22_1311	s	s	8	3	SIC	109	ABS	2	2	24VD	0	1	0.865510940552	None	None	None	None	1
1.7	2015_Jul_22_1311	s	s	8	3	SIC	110	ABS	2	0	24VC	0	1	0.888631105423	None	None	None	None	1
1.7	2015_Jul_22_1311	s	s	8	3	SIC	111	RC	1	0	23MC	1	0	7.13910198212	-496.0	-56.0	-498	-55	1
1.7	2015_Jul_22_1311	s	s	8	3	SIC	112	ABS	0	2	24RD	0	1	0.784030914307	None	None	None	None	1
1.7	2015_Jul_22_1311	s	s	8	3	SIC	113	RC	0	2	23RD	1	0	1.12433600426	140.0	206.0	146	203	1
1.7	2015_Jul_22_1311	s	s	8	3	SIC	114	RC	1	0	23MC	1	0	6.32675290108	289.0	-352.0	286	-351	1
1.7	2015_Jul_22_1311	s	s	8	3	SIC	115	ABS	2	2	24VD	0	1	0.676913022995	None	None	None	None	1
1.7	2015_Jul_22_1311	s	s	8	3	SIC	116	ABS	0	1	24RO	0	1	5.83182477951	None	None	None	None	1
1.7	2015_Jul_22_1311	s	s	8	3	SIC	117	ABS	2	1	24VO	0	1	0.877045154572	None	None	None	None	1
1.7	2015_Jul_22_1311	s	s	8	3	SIC	118	ABS	1	1	24MO	0	1	5.41429400444	None	None	None	None	1
1.7	2015_Jul_22_1311	s	s	8	3	SIC	119	ABS	1	2	24MD	0	1	0.771115064621	None	None	None	None	1
1.7	2015_Jul_22_1311	s	s	8	3	SIC	120	ABS	1	0	24MC	0	1	5.79900217056	None	None	None	None	1
1.7	2015_Jul_22_1311	s	s	8	3	SIC	121	RC	2	0	23VC	1	0	1.23530316353	286.0	-343.0	283	-341	1
1.7	2015_Jul_22_1311	s	s	8	3	SIC	122	RC	0	1	23RO	1	0	5.53733992577	444.0	400.0	441	404	1
1.7	2015_Jul_22_1311	s	s	8	3	SIC	123	ABS	2	0	24VC	0	1	1.14115619659	None	None	None	None	1
1.7	2015_Jul_22_1311	s	s	8	3	SIC	124	RC	2	2	23VD	1	0	0.63498210907	510.0	-184.0	504	-179	1
1.7	2015_Jul_22_1311	s	s	8	3	SIC	125	RC	1	1	23MO	1	0	0.782927036285	412.0	144.0	415	149	1
1.7	2015_Jul_22_1311	s	s	8	3	SIC	126	ABS	0	2	24RD	0	1	0.897645950317	None	None	None	None	1
1.7	2015_Jul_22_1311	s	s	8	3	SIC	127	RC	1	2	23MD	1	0	0.564370155334	-297.0	67.0	-293	64	1
1.7	2015_Jul_22_1311	s	s	8	3	SIC	128	RC	2	1	23VO	1	0	0.628592014313	539.0	-392.0	536	-395	1
1.7	2015_Jul_22_1311	s	s	8	3	SIC	129	ABS	1	0	24MC	0	1	2.45436692238	None	None	None	None	1
1.7	2015_Jul_22_1311	s	s	8	3	SIC	130	ABS	2	2	24VD	0	1	0.794410943985	None	None	None	None	1
1.7	2015_Jul_22_1311	s	s	8	3	SIC	131	RC	1	0	23MC	0	1	5.64923596382	271.0	-130.0	None	None	0
1.7	2015_Jul_22_1311	s	s	8	3	SIC	132	ABS	1	1	24MO	0	1	8.29294013977	None	None	None	None	1
1.7	2015_Jul_22_1311	s	s	8	3	SIC	133	RC	0	1	23RO	1	0	2.33850502968	247.0	2.0	244	3	1
1.7	2015_Jul_22_1311	s	s	8	3	SIC	134	RC	1	1	23MO	1	0	3.33042120934	-251.0	-343.0	-259	-342	1
1.7	2015_Jul_22_1311	s	s	8	3	SIC	135	ABS	0	1	24RO	0	1	6.29167699814	None	None	None	None	1
1.7	2015_Jul_22_1311	s	s	8	3	SIC	136	ABS	0	2	24RD	0	1	1.11761903763	None	None	None	None	1
1.7	2015_Jul_22_1311	s	s	8	3	SIC	137	ABS	1	2	24MD	0	1	0.882241010666	None	None	None	None	1
1.7	2015_Jul_22_1311	s	s	8	3	SIC	138	RC	0	2	23RD	1	0	0.655371904373	-97.0	-160.0	-95	-158	1
1.7	2015_Jul_22_1311	s	s	8	3	SIC	139	RC	2	1	23VO	1	0	0.59237408638	-349.0	238.0	-350	237	1
1.7	2015_Jul_22_1311	s	s	8	3	SIC	140	ABS	2	1	24VO	0	1	0.901050806046	None	None	None	None	1
1.7	2015_Jul_22_1311	s	s	8	3	SIC	141	RC	1	2	23MD	1	0	0.705538034439	-75.0	-257.0	-79	-251	1
1.7	2015_Jul_22_1311	s	s	8	3	SIC	142	ABS	2	0	24VC	0	1	0.770596027374	None	None	None	None	1
1.7	2015_Jul_22_1311	s	s	8	3	SIC	143	RC	2	2	23VD	1	0	1.05534505844	220.0	-376.0	227	-371	1
1.7	2015_Jul_22_1311	s	s	8	3	SIC	144	RC	2	0	23VC	1	0	0.594872236252	-112.0	-97.0	-109	-96	1
1.7	2015_Jul_22_1311	s	s	8	3	SIC	145	ABS	1	1	24MO	0	1	2.28662419319	None	None	None	None	1
1.7	2015_Jul_22_1311	s	s	8	3	SIC	146	RC	0	2	23RD	1	0	0.996201992035	332.0	-262.0	329	-256	1
1.7	2015_Jul_22_1311	s	s	8	3	SIC	147	ABS	2	2	24VD	0	1	0.900939941406	None	None	None	None	1
1.7	2015_Jul_22_1311	s	s	8	3	SIC	148	RC	2	1	23VO	1	0	0.611466884613	-222.0	179.0	-224	178	1
1.7	2015_Jul_22_1311	s	s	8	3	SIC	149	ABS	0	2	24RD	0	1	0.752732992172	None	None	None	None	1
1.7	2015_Jul_22_1311	s	s	8	3	SIC	150	ABS	1	2	24MD	0	1	1.97424507141	None	None	None	None	1
1.7	2015_Jul_22_1311	s	s	8	3	SIC	151	ABS	1	0	24MC	0	1	2.98902010918	None	None	None	None	1
1.7	2015_Jul_22_1311	s	s	8	3	SIC	152	ABS	2	0	24VC	0	1	0.700689077377	None	None	None	None	1
1.7	2015_Jul_22_1311	s	s	8	3	SIC	153	RC	1	2	23MD	1	0	1.2235147953	380.0	-183.0	381	-181	1
1.7	2015_Jul_22_1311	s	s	8	3	SIC	154	RC	2	2	23VD	1	0	0.582761049271	508.0	101.0	511	103	1
1.7	2015_Jul_22_1311	s	s	8	3	SIC	155	ABS	2	1	24VO	0	1	0.700495958328	None	None	None	None	1
1.7	2015_Jul_22_1311	s	s	8	3	SIC	156	ABS	0	1	24RO	0	1	5.82576799393	None	None	None	None	1
1.7	2015_Jul_22_1311	s	s	8	3	SIC	157	RC	2	0	23VC	1	0	0.771377086639	453.0	-368.0	461	-370	1
1.7	2015_Jul_22_1311	s	s	8	3	SIC	158	RC	1	0	23MC	1	0	8.44505596161	135.0	-405.0	132	-406	1
1.7	2015_Jul_22_1311	s	s	8	3	SIC	159	RC	1	1	23MO	1	0	2.13675880432	287.0	67.0	283	73	1
1.7	2015_Jul_22_1311	s	s	8	3	SIC	160	RC	0	1	23RO	1	0	1.57661604881	-313.0	-306.0	-307	-304	1
1.7	2015_Jul_22_1311	s	s	8	3	SIC	161	RC	1	1	23MO	1	0	2.28290486336	-91.0	153.0	-87	159	1
1.7	2015_Jul_22_1311	s	s	8	3	SIC	162	ABS	2	1	24VO	0	1	0.854933023453	None	None	None	None	1
1.7	2015_Jul_22_1311	s	s	8	3	SIC	163	RC	1	0	23MC	0	1	6.36719703674	446.0	199.0	None	None	0
1.7	2015_Jul_22_1311	s	s	8	3	SIC	164	ABS	0	2	24RD	0	1	1.10073304176	None	None	None	None	1
1.7	2015_Jul_22_1311	s	s	8	3	SIC	165	ABS	0	1	24RO	0	1	5.67966079712	None	None	None	None	1
1.7	2015_Jul_22_1311	s	s	8	3	SIC	166	ABS	2	2	24VD	0	1	0.705668926239	None	None	None	None	1
1.7	2015_Jul_22_1311	s	s	8	3	SIC	167	ABS	2	0	24VC	0	1	0.677217006683	None	None	None	None	1
1.7	2015_Jul_22_1311	s	s	8	3	SIC	168	ABS	1	2	24MD	0	1	0.74117398262	None	None	None	None	1
1.7	2015_Jul_22_1311	s	s	8	3	SIC	169	RC	0	1	23RO	1	0	1.87089705467	-430.0	129.0	-433	131	1
1.7	2015_Jul_22_1311	s	s	8	3	SIC	170	RC	2	2	23VD	1	0	0.630187034607	-267.0	133.0	-265	136	1
1.7	2015_Jul_22_1311	s	s	8	3	SIC	171	RC	2	0	23VC	1	0	0.632568836212	132.0	143.0	132	142	1
1.7	2015_Jul_22_1311	s	s	8	3	SIC	172	ABS	1	0	24MC	0	1	3.66706705093	None	None	None	None	1
1.7	2015_Jul_22_1311	s	s	8	3	SIC	173	RC	1	2	23MD	1	0	0.693770885468	280.0	168.0	289	169	1
1.7	2015_Jul_22_1311	s	s	8	3	SIC	174	RC	2	1	23VO	1	0	0.689211130142	304.0	379.0	306	380	1
1.7	2015_Jul_22_1311	s	s	8	3	SIC	175	ABS	1	1	24MO	0	1	4.72616100311	None	None	None	None	1
1.7	2015_Jul_22_1311	s	s	8	3	SIC	176	RC	0	2	23RD	1	0	0.606572151184	6.0	305.0	7	307	1
1.7	2015_Jul_22_1311	s	s	8	3	SIC	177	ABS	0	1	24RO	0	1	5.07923793793	None	None	None	None	1
1.7	2015_Jul_22_1311	s	s	8	3	SIC	178	RC	1	0	23MC	1	0	3.93749380112	293.0	42.0	301	37	1
1.7	2015_Jul_22_1311	s	s	8	3	SIC	179	RC	0	1	23RO	1	0	5.38695502281	172.0	-291.0	167	-287	1
1.7	2015_Jul_22_1311	s	s	8	3	SIC	180	ABS	2	0	24VC	0	1	0.830029010773	None	None	None	None	1
1.7	2015_Jul_22_1311	s	s	8	3	SIC	181	RC	0	2	23RD	1	0	0.799803972244	-506.0	74.0	-508	80	1
1.7	2015_Jul_22_1311	s	s	8	3	SIC	182	ABS	1	2	24MD	0	1	1.24093413353	None	None	None	None	1
1.7	2015_Jul_22_1311	s	s	8	3	SIC	183	RC	2	1	23VO	1	0	0.806457042694	515.0	130.0	523	132	1
1.7	2015_Jul_22_1311	s	s	8	3	SIC	184	RC	1	1	23MO	1	0	1.88931703568	-301.0	-153.0	-304	-159	1
1.7	2015_Jul_22_1311	s	s	8	3	SIC	185	ABS	1	1	24MO	0	1	6.81128907204	None	None	None	None	1
1.7	2015_Jul_22_1311	s	s	8	3	SIC	186	ABS	2	2	24VD	0	1	0.702674865723	None	None	None	None	1
1.7	2015_Jul_22_1311	s	s	8	3	SIC	187	ABS	1	0	24MC	0	1	3.50207304955	None	None	None	None	1
1.7	2015_Jul_22_1311	s	s	8	3	SIC	188	ABS	2	1	24VO	0	1	0.650485992432	None	None	None	None	1
1.7	2015_Jul_22_1311	s	s	8	3	SIC	189	RC	2	2	23VD	1	0	0.893835067749	142.0	-316.0	141	-311	1
1.7	2015_Jul_22_1311	s	s	8	3	SIC	190	ABS	0	2	24RD	0	1	1.52944588661	None	None	None	None	1
1.7	2015_Jul_22_1311	s	s	8	3	SIC	191	RC	1	2	23MD	1	0	1.02341294289	419.0	-273.0	423	-271	1
1.7	2015_Jul_22_1311	s	s	8	3	SIC	192	RC	2	0	23VC	1	0	0.67702293396	-394.0	-272.0	-395	-277	1
1.7	2015_Jul_22_1311	s	s	8	3	SIC	193	ABS	1	2	24MD	0	1	1.0351331234	None	None	None	None	1
1.7	2015_Jul_22_1311	s	s	8	3	SIC	194	RC	0	2	23RD	1	0	0.809281110764	-389.0	-220.0	-380	-218	1
1.7	2015_Jul_22_1311	s	s	8	3	SIC	195	RC	0	1	23RO	1	0	1.16468501091	173.0	-177.0	167	-182	1
1.7	2015_Jul_22_1311	s	s	8	3	SIC	196	ABS	2	2	24VD	0	1	0.799941062927	None	None	None	None	1
1.7	2015_Jul_22_1311	s	s	8	3	SIC	197	ABS	0	2	24RD	0	1	2.08010792732	None	None	None	None	1
1.7	2015_Jul_22_1311	s	s	8	3	SIC	198	RC	2	0	23VC	1	0	0.77997803688	-269.0	-58.0	-270	-55	1
1.7	2015_Jul_22_1311	s	s	8	3	SIC	199	RC	1	0	23MC	1	0	2.99805092812	531.0	122.0	530	124	1
1.7	2015_Jul_22_1311	s	s	8	3	SIC	200	ABS	0	1	24RO	0	1	6.12004208565	None	None	None	None	1
1.7	2015_Jul_22_1311	s	s	8	3	SIC	201	RC	2	1	23VO	1	0	0.771268844604	-350.0	386.0	-347	390	1
1.7	2015_Jul_22_1311	s	s	8	3	SIC	202	RC	1	1	23MO	1	0	1.34800720215	136.0	-15.0	143	-11	1
1.7	2015_Jul_22_1311	s	s	8	3	SIC	203	RC	2	2	23VD	1	0	0.573642969131	-440.0	-84.0	-444	-79	1
1.7	2015_Jul_22_1311	s	s	8	3	SIC	204	RC	1	2	23MD	1	0	0.606599092484	183.0	400.0	193	404	1
1.7	2015_Jul_22_1311	s	s	8	3	SIC	205	ABS	1	0	24MC	0	1	2.0711889267	None	None	None	None	1
1.7	2015_Jul_22_1311	s	s	8	3	SIC	206	ABS	2	1	24VO	0	1	0.752711057663	None	None	None	None	1
1.7	2015_Jul_22_1311	s	s	8	3	SIC	207	ABS	2	0	24VC	0	1	0.823328971863	None	None	None	None	1
1.7	2015_Jul_22_1311	s	s	8	3	SIC	208	ABS	1	1	24MO	0	1	6.17929410934	None	None	None	None	1
1.7	2015_Jul_22_1311	s	s	8	3	SIC	209	RC	2	2	23VD	1	0	0.759321212769	97.0	133.0	89	137	1
1.7	2015_Jul_22_1311	s	s	8	3	SIC	210	ABS	1	2	24MD	0	1	1.06758403778	None	None	None	None	1
1.7	2015_Jul_22_1311	s	s	8	3	SIC	211	ABS	0	1	24RO	0	1	9.10499405861	None	None	None	None	1
1.7	2015_Jul_22_1311	s	s	8	3	SIC	212	RC	1	0	23MC	0	1	3.64317202568	408.0	202.0	None	None	0
1.7	2015_Jul_22_1311	s	s	8	3	SIC	213	RC	1	1	23MO	1	0	1.2538189888	-524.0	199.0	-521	200	1
1.7	2015_Jul_22_1311	s	s	8	3	SIC	214	ABS	2	0	24VC	0	1	0.752706050873	None	None	None	None	1
1.7	2015_Jul_22_1311	s	s	8	3	SIC	215	RC	1	2	23MD	1	0	1.15293908119	204.0	140.0	199	142	1
1.7	2015_Jul_22_1311	s	s	8	3	SIC	216	ABS	0	2	24RD	0	1	1.14817714691	None	None	None	None	1
1.7	2015_Jul_22_1311	s	s	8	3	SIC	217	ABS	2	2	24VD	0	1	0.688686847687	None	None	None	None	1
1.7	2015_Jul_22_1311	s	s	8	3	SIC	218	RC	0	1	23RO	1	0	3.89532995224	112.0	-376.0	112	-372	1
1.7	2015_Jul_22_1311	s	s	8	3	SIC	219	ABS	2	1	24VO	0	1	1.62372303009	None	None	None	None	1
1.7	2015_Jul_22_1311	s	s	8	3	SIC	220	ABS	1	0	24MC	0	1	4.09065198898	None	None	None	None	1
1.7	2015_Jul_22_1311	s	s	8	3	SIC	221	RC	2	0	23VC	1	0	0.740852117538	-523.0	-288.0	-517	-294	1
1.7	2015_Jul_22_1311	s	s	8	3	SIC	222	RC	0	2	23RD	1	0	0.623142004013	324.0	106.0	323	112	1
1.7	2015_Jul_22_1311	s	s	8	3	SIC	223	RC	2	1	23VO	1	0	0.634843826294	365.0	-174.0	355	-172	1
1.7	2015_Jul_22_1311	s	s	8	3	SIC	224	ABS	1	1	24MO	0	1	9.66980600357	None	None	None	None	1
1.7	2015_Jul_22_1311	s	s	8	3	SIC	225	RC	1	0	23MC	1	0	1.78364419937	-88.0	110.0	-83	105	1
1.7	2015_Jul_22_1311	s	s	8	3	SIC	226	RC	2	2	23VD	1	0	0.658416032791	-535.0	43.0	-533	48	1
1.7	2015_Jul_22_1311	s	s	8	3	SIC	227	ABS	2	0	24VC	0	1	1.20687890053	None	None	None	None	1
1.7	2015_Jul_22_1311	s	s	8	3	SIC	228	ABS	0	2	24RD	0	1	0.994095087051	None	None	None	None	1
1.7	2015_Jul_22_1311	s	s	8	3	SIC	229	RC	0	1	23RO	1	0	1.65907096863	68.0	-2.0	68	1	1
1.7	2015_Jul_22_1311	s	s	8	3	SIC	230	ABS	2	2	24VD	0	1	1.45331788063	None	None	None	None	1
1.7	2015_Jul_22_1311	s	s	8	3	SIC	231	ABS	2	1	24VO	0	1	2.05435419083	None	None	None	None	1
1.7	2015_Jul_22_1311	s	s	8	3	SIC	232	RC	1	1	23MO	1	0	4.22029495239	-312.0	-382.0	-319	-377	1
1.7	2015_Jul_22_1311	s	s	8	3	SIC	233	RC	2	1	23VO	1	0	0.635014057159	-409.0	-212.0	-403	-214	1
1.7	2015_Jul_22_1311	s	s	8	3	SIC	234	ABS	1	2	24MD	0	1	1.01875686646	None	None	None	None	1
1.7	2015_Jul_22_1311	s	s	8	3	SIC	235	ABS	1	0	24MC	0	1	3.56589102745	None	None	None	None	1
1.7	2015_Jul_22_1311	s	s	8	3	SIC	236	RC	1	2	23MD	1	0	0.79487490654	363.0	98.0	375	105	1
1.7	2015_Jul_22_1311	s	s	8	3	SIC	237	ABS	0	1	24RO	0	1	8.37587285042	None	None	None	None	1
1.7	2015_Jul_22_1311	s	s	8	3	SIC	238	RC	2	0	23VC	1	0	0.841940164566	463.0	-398.0	461	-401	1
1.7	2015_Jul_22_1311	s	s	8	3	SIC	239	RC	0	2	23RD	1	0	0.643446922302	137.0	125.0	138	131	1
1.7	2015_Jul_22_1311	s	s	8	3	SIC	240	ABS	1	1	24MO	0	1	6.22276306152	None	None	None	None	1
1.7	2015_Jul_22_1311	s	s	8	3	SIC	241	RC	0	2	23RD	1	0	0.667752027512	167.0	296.0	166	301	1
1.7	2015_Jul_22_1311	s	s	8	3	SIC	242	RC	1	0	23MC	1	0	6.20247292519	-22.0	-33.0	-28	-30	1
1.7	2015_Jul_22_1311	s	s	8	3	SIC	243	RC	1	2	23MD	1	0	0.638665914536	-453.0	10.0	-450	11	1
1.7	2015_Jul_22_1311	s	s	8	3	SIC	244	ABS	1	1	24MO	0	1	6.15526080132	None	None	None	None	1
1.7	2015_Jul_22_1311	s	s	8	3	SIC	245	ABS	1	2	24MD	0	1	0.788056850433	None	None	None	None	1
1.7	2015_Jul_22_1311	s	s	8	3	SIC	246	RC	1	1	23MO	1	0	1.32190895081	190.0	69.0	193	69	1
1.7	2015_Jul_22_1311	s	s	8	3	SIC	247	ABS	2	2	24VD	0	1	0.823259115219	None	None	None	None	1
1.7	2015_Jul_22_1311	s	s	8	3	SIC	248	ABS	0	1	24RO	0	1	8.22697901726	None	None	None	None	1
1.7	2015_Jul_22_1311	s	s	8	3	SIC	249	RC	2	2	23VD	1	0	0.688874959946	119.0	-238.0	117	-244	1
1.7	2015_Jul_22_1311	s	s	8	3	SIC	250	ABS	1	0	24MC	0	1	9.03576493263	None	None	None	None	1
1.7	2015_Jul_22_1311	s	s	8	3	SIC	251	RC	2	0	23VC	1	0	0.646707057953	230.0	401.0	230	398	1
1.7	2015_Jul_22_1311	s	s	8	3	SIC	252	ABS	2	0	24VC	0	1	0.815206050873	None	None	None	None	1
1.7	2015_Jul_22_1311	s	s	8	3	SIC	253	RC	0	1	23RO	1	0	6.97952485085	-381.0	246.0	-384	244	1
1.7	2015_Jul_22_1311	s	s	8	3	SIC	254	ABS	2	1	24VO	0	1	0.87034702301	None	None	None	None	1
1.7	2015_Jul_22_1311	s	s	8	3	SIC	255	RC	2	1	23VO	1	0	0.764444828033	-506.0	-195.0	-508	-193	1
1.7	2015_Jul_22_1311	s	s	8	3	SIC	256	ABS	0	2	24RD	0	1	0.835041999817	None	None	None	None	1
1.7	2015_Jul_22_1311	s	s	8	3	SIC	257	ABS	0	1	24RO	0	1	5.31604909897	None	None	None	None	1
1.7	2015_Jul_22_1311	s	s	8	3	SIC	258	RC	0	2	23RD	1	0	0.729195833206	-128.0	220.0	-133	222	1
1.7	2015_Jul_22_1311	s	s	8	3	SIC	259	RC	1	2	23MD	1	0	0.623236179352	-145.0	-186.0	-145	-178	1
1.7	2015_Jul_22_1311	s	s	8	3	SIC	260	RC	2	0	23VC	1	0	0.529032945633	-358.0	-115.0	-365	-111	1
1.7	2015_Jul_22_1311	s	s	8	3	SIC	261	ABS	2	1	24VO	0	1	1.16944503784	None	None	None	None	1
1.7	2015_Jul_22_1311	s	s	8	3	SIC	262	ABS	1	2	24MD	0	1	0.905698776245	None	None	None	None	1
1.7	2015_Jul_22_1311	s	s	8	3	SIC	263	ABS	1	1	24MO	0	1	5.21131086349	None	None	None	None	1
1.7	2015_Jul_22_1311	s	s	8	3	SIC	264	RC	0	1	23RO	1	0	3.06017494202	-510.0	145.0	-513	147	1
1.7	2015_Jul_22_1311	s	s	8	3	SIC	265	RC	1	1	23MO	1	0	0.748471021652	-114.0	-8.0	-121	0	1
1.7	2015_Jul_22_1311	s	s	8	3	SIC	266	RC	1	0	23MC	1	0	2.05440592766	-277.0	129.0	-266	131	1
1.7	2015_Jul_22_1311	s	s	8	3	SIC	267	ABS	0	2	24RD	0	1	0.817822933197	None	None	None	None	1
1.7	2015_Jul_22_1311	s	s	8	3	SIC	268	ABS	2	0	24VC	0	1	0.764420986176	None	None	None	None	1
1.7	2015_Jul_22_1311	s	s	8	3	SIC	269	ABS	2	2	24VD	0	1	0.63502907753	None	None	None	None	1
1.7	2015_Jul_22_1311	s	s	8	3	SIC	270	ABS	1	0	24MC	0	1	3.53084683418	None	None	None	None	1
1.7	2015_Jul_22_1311	s	s	8	3	SIC	271	RC	2	2	23VD	1	0	0.866958856583	473.0	-196.0	469	-191	1
1.7	2015_Jul_22_1311	s	s	8	3	SIC	272	RC	2	1	23VO	1	0	0.682080030441	-535.0	253.0	-541	261	1
1.7	2015_Jul_22_1311	s	s	8	3	SIC	273	RC	2	2	23VD	1	0	0.623389959335	356.0	-251.0	354	-252	1
1.7	2015_Jul_22_1311	s	s	8	3	SIC	274	RC	1	2	23MD	1	0	0.689821004868	111.0	-196.0	112	-194	1
1.7	2015_Jul_22_1311	s	s	8	3	SIC	275	RC	0	2	23RD	1	0	0.564380884171	188.0	67.0	197	69	1
1.7	2015_Jul_22_1311	s	s	8	3	SIC	276	RC	2	1	23VO	1	0	0.58349108696	-291.0	-158.0	-286	-154	1
1.7	2015_Jul_22_1311	s	s	8	3	SIC	277	ABS	2	1	24VO	0	1	1.65903615952	None	None	None	None	1
1.7	2015_Jul_22_1311	s	s	8	3	SIC	278	ABS	1	1	24MO	0	1	5.77876996994	None	None	None	None	1
1.7	2015_Jul_22_1311	s	s	8	3	SIC	279	ABS	0	2	24RD	0	1	0.811508178711	None	None	None	None	1
1.7	2015_Jul_22_1311	s	s	8	3	SIC	280	RC	2	0	23VC	1	0	0.893906116486	-208.0	-242.0	-209	-239	1
1.7	2015_Jul_22_1311	s	s	8	3	SIC	281	ABS	0	1	24RO	0	1	6.17408800125	None	None	None	None	1
1.7	2015_Jul_22_1311	s	s	8	3	SIC	282	ABS	1	0	24MC	0	1	2.50653290749	None	None	None	None	1
1.7	2015_Jul_22_1311	s	s	8	3	SIC	283	ABS	2	0	24VC	0	1	1.04193902016	None	None	None	None	1
1.7	2015_Jul_22_1311	s	s	8	3	SIC	284	ABS	1	2	24MD	0	1	0.819356918335	None	None	None	None	1
1.7	2015_Jul_22_1311	s	s	8	3	SIC	285	RC	1	0	23MC	1	0	3.1959130764	388.0	-168.0	386	-168	1
1.7	2015_Jul_22_1311	s	s	8	3	SIC	286	ABS	2	2	24VD	0	1	0.653573989868	None	None	None	None	1
1.7	2015_Jul_22_1311	s	s	8	3	SIC	287	RC	0	1	23RO	1	0	2.41230416298	-235.0	130.0	-235	135	1
1.7	2015_Jul_22_1311	s	s	8	3	SIC	288	RC	1	1	23MO	1	0	0.973763942719	-288.0	-20.0	-295	-17	1
1.7	2015_Jul_22_1311	s	s	8	3	SIC	289	RC	2	1	23VO	1	0	0.717368125916	414.0	-24.0	408	-25	1
1.7	2015_Jul_22_1311	s	s	8	3	SIC	290	ABS	2	0	24VC	0	1	0.80649805069	None	None	None	None	1
1.7	2015_Jul_22_1311	s	s	8	3	SIC	291	RC	1	2	23MD	1	0	0.729165077209	6.0	277.0	4	279	1
1.7	2015_Jul_22_1311	s	s	8	3	SIC	292	ABS	2	2	24VD	0	1	0.92528796196	None	None	None	None	1
1.7	2015_Jul_22_1311	s	s	8	3	SIC	293	RC	2	2	23VD	1	0	0.679712057114	-466.0	180.0	-464	181	1
1.7	2015_Jul_22_1311	s	s	8	3	SIC	294	ABS	1	0	24MC	0	1	5.94338798523	None	None	None	None	1
1.7	2015_Jul_22_1311	s	s	8	3	SIC	295	ABS	1	1	24MO	0	1	5.89328098297	None	None	None	None	1
1.7	2015_Jul_22_1311	s	s	8	3	SIC	296	RC	1	1	23MO	1	0	3.930727005	518.0	340.0	512	342	1
1.7	2015_Jul_22_1311	s	s	8	3	SIC	297	ABS	0	2	24RD	0	1	0.724251031876	None	None	None	None	1
1.7	2015_Jul_22_1311	s	s	8	3	SIC	298	ABS	0	1	24RO	0	1	5.55508685112	None	None	None	None	1
1.7	2015_Jul_22_1311	s	s	8	3	SIC	299	ABS	2	1	24VO	0	1	0.623063087463	None	None	None	None	1
1.7	2015_Jul_22_1311	s	s	8	3	SIC	300	RC	0	1	23RO	1	0	3.33418798447	-80.0	33.0	-74	35	1
1.7	2015_Jul_22_1311	s	s	8	3	SIC	301	RC	1	0	23MC	1	0	3.99839091301	-538.0	332.0	-542	334	1
1.7	2015_Jul_22_1311	s	s	8	3	SIC	302	ABS	1	2	24MD	0	1	0.862322092056	None	None	None	None	1
1.7	2015_Jul_22_1311	s	s	8	3	SIC	303	RC	2	0	23VC	1	0	1.08228516579	466.0	-165.0	458	-169	1
1.7	2015_Jul_22_1311	s	s	8	3	SIC	304	RC	0	2	23RD	1	0	0.599677085876	-201.0	280.0	-200	281	1
1.7	2015_Jul_22_1311	s	s	8	3	SIC	305	RC	2	2	23VD	1	0	0.677071094513	-173.0	-279.0	-171	-276	1
1.7	2015_Jul_22_1311	s	s	8	3	SIC	306	RC	0	2	23RD	1	0	0.799711942673	440.0	-162.0	437	-157	1
1.7	2015_Jul_22_1311	s	s	8	3	SIC	307	RC	0	1	23RO	1	0	1.36476993561	511.0	-51.0	506	-53	1
1.7	2015_Jul_22_1311	s	s	8	3	SIC	308	RC	1	2	23MD	1	0	0.699949979782	79.0	-255.0	73	-257	1
1.7	2015_Jul_22_1311	s	s	8	3	SIC	309	RC	2	1	23VO	1	0	0.576099157333	482.0	-114.0	485	-111	1
1.7	2015_Jul_22_1311	s	s	8	3	SIC	310	RC	1	0	23MC	0	1	2.60595202446	390.0	222.0	None	None	0
1.7	2015_Jul_22_1311	s	s	8	3	SIC	311	RC	1	1	23MO	1	0	0.799688816071	289.0	-128.0	293	-128	1
1.7	2015_Jul_22_1311	s	s	8	3	SIC	312	ABS	1	0	24MC	0	1	5.93899416924	None	None	None	None	1
1.7	2015_Jul_22_1311	s	s	8	3	SIC	313	ABS	1	2	24MD	0	1	0.71188211441	None	None	None	None	1
1.7	2015_Jul_22_1311	s	s	8	3	SIC	314	ABS	2	2	24VD	0	1	0.632094860077	None	None	None	None	1
1.7	2015_Jul_22_1311	s	s	8	3	SIC	315	ABS	0	2	24RD	0	1	1.31391692162	None	None	None	None	1
1.7	2015_Jul_22_1311	s	s	8	3	SIC	316	ABS	2	0	24VC	0	1	0.952749013901	None	None	None	None	1
1.7	2015_Jul_22_1311	s	s	8	3	SIC	317	ABS	0	1	24RO	0	1	5.54979395866	None	None	None	None	1
1.7	2015_Jul_22_1311	s	s	8	3	SIC	318	RC	2	0	23VC	1	0	0.866619825363	-362.0	260.0	-362	262	1
1.7	2015_Jul_22_1311	s	s	8	3	SIC	319	ABS	2	1	24VO	0	1	0.747822999954	None	None	None	None	1
1.7	2015_Jul_22_1311	s	s	8	3	SIC	320	ABS	1	1	24MO	0	1	5.03729701042	None	None	None	None	1
1.7	2015_Jul_22_1311	s	s	8	3	SIC	321	RC	2	2	23VD	1	0	0.764446020126	160.0	-358.0	159	-358	1
1.7	2015_Jul_22_1311	s	s	8	3	SIC	322	ABS	1	1	24MO	0	1	5.90303707123	None	None	None	None	1
1.7	2015_Jul_22_1311	s	s	8	3	SIC	323	ABS	0	2	24RD	0	1	1.07814598083	None	None	None	None	1
1.7	2015_Jul_22_1311	s	s	8	3	SIC	324	RC	0	1	23RO	1	0	6.62382984161	516.0	186.0	524	187	1
1.7	2015_Jul_22_1311	s	s	8	3	SIC	325	RC	1	2	23MD	1	0	0.618235826492	-218.0	359.0	-220	363	1
1.7	2015_Jul_22_1311	s	s	8	3	SIC	326	ABS	2	2	24VD	0	1	0.759836912155	None	None	None	None	1
1.7	2015_Jul_22_1311	s	s	8	3	SIC	327	ABS	1	0	24MC	0	1	8.72144603729	None	None	None	None	1
1.7	2015_Jul_22_1311	s	s	8	3	SIC	328	RC	1	1	23MO	1	0	3.27530694008	-6.0	-185.0	-5	-182	1
1.7	2015_Jul_22_1311	s	s	8	3	SIC	329	ABS	0	1	24RO	0	1	4.91949605942	None	None	None	None	1
1.7	2015_Jul_22_1311	s	s	8	3	SIC	330	RC	2	0	23VC	1	0	0.587950229645	111.0	263.0	110	271	1
1.7	2015_Jul_22_1311	s	s	8	3	SIC	331	ABS	2	1	24VO	0	1	0.776217937469	None	None	None	None	1
1.7	2015_Jul_22_1311	s	s	8	3	SIC	332	RC	1	0	23MC	1	0	4.95246195793	-297.0	64.0	-292	65	1
1.7	2015_Jul_22_1311	s	s	8	3	SIC	333	RC	0	2	23RD	1	0	0.667907953262	60.0	-206.0	69	-199	1
1.7	2015_Jul_22_1311	s	s	8	3	SIC	334	ABS	1	2	24MD	0	1	0.832216024399	None	None	None	None	1
1.7	2015_Jul_22_1311	s	s	8	3	SIC	335	RC	2	1	23VO	1	0	0.646775007248	-90.0	122.0	-89	120	1
1.7	2015_Jul_22_1311	s	s	8	3	SIC	336	ABS	2	0	24VC	0	1	0.900695085526	None	None	None	None	1
1.7	2015_Jul_22_1311	s	s	8	3	SIC	337	RC	0	2	23RD	1	0	0.658507108688	286.0	233.0	279	234	1
1.7	2015_Jul_22_1311	s	s	8	3	SIC	338	ABS	1	2	24MD	0	1	0.823318958282	None	None	None	None	1
1.7	2015_Jul_22_1311	s	s	8	3	SIC	339	RC	2	0	23VC	1	0	0.764491081238	10.0	242.0	15	237	1
1.7	2015_Jul_22_1311	s	s	8	3	SIC	340	ABS	0	1	24RO	0	1	7.08142900467	None	None	None	None	1
1.7	2015_Jul_22_1311	s	s	8	3	SIC	341	RC	2	1	23VO	1	0	0.782516002655	-224.0	-260.0	-226	-261	1
1.7	2015_Jul_22_1311	s	s	8	3	SIC	342	RC	0	1	23RO	1	0	4.67236495018	102.0	226.0	94	230	1
1.7	2015_Jul_22_1311	s	s	8	3	SIC	343	RC	2	2	23VD	1	0	0.700037956238	-342.0	-353.0	-349	-354	1
1.7	2015_Jul_22_1311	s	s	8	3	SIC	344	ABS	2	1	24VO	0	1	0.952728033066	None	None	None	None	1
1.7	2015_Jul_22_1311	s	s	8	3	SIC	345	ABS	1	0	24MC	0	1	2.81242203712	None	None	None	None	1
1.7	2015_Jul_22_1311	s	s	8	3	SIC	346	ABS	2	2	24VD	0	1	0.725636005402	None	None	None	None	1
1.7	2015_Jul_22_1311	s	s	8	3	SIC	347	RC	1	0	23MC	0	1	3.73427200317	-255.0	-409.0	None	None	0
1.7	2015_Jul_22_1311	s	s	8	3	SIC	348	RC	1	1	23MO	1	0	1.04273796082	-349.0	389.0	-349	384	1
1.7	2015_Jul_22_1311	s	s	8	3	SIC	349	ABS	2	0	24VC	0	1	0.759389877319	None	None	None	None	1
1.7	2015_Jul_22_1311	s	s	8	3	SIC	350	ABS	0	2	24RD	0	1	1.21851801872	None	None	None	None	1
1.7	2015_Jul_22_1311	s	s	8	3	SIC	351	RC	1	2	23MD	1	0	0.693823099136	333.0	336.0	333	340	1
1.7	2015_Jul_22_1311	s	s	8	3	SIC	352	ABS	1	1	24MO	0	1	4.76149606705	None	None	None	None	1
1.7	2015_Jul_22_1311	s	s	8	3	SIC	353	ABS	0	1	24RO	0	1	5.03150391579	None	None	None	None	1
1.7	2015_Jul_22_1311	s	s	8	3	SIC	354	RC	0	1	23RO	0	1	4.82032895088	-407.0	-406.0	None	None	0
1.7	2015_Jul_22_1311	s	s	8	3	SIC	355	ABS	1	1	24MO	0	1	5.30290794373	None	None	None	None	1
1.7	2015_Jul_22_1311	s	s	8	3	SIC	356	RC	1	2	23MD	1	0	0.644326210022	369.0	14.0	362	11	1
1.7	2015_Jul_22_1311	s	s	8	3	SIC	357	ABS	2	2	24VD	0	1	0.758742809296	None	None	None	None	1
1.7	2015_Jul_22_1311	s	s	8	3	SIC	358	ABS	1	2	24MD	0	1	0.818549156189	None	None	None	None	1
1.7	2015_Jul_22_1311	s	s	8	3	SIC	359	RC	2	2	23VD	1	0	0.547310113907	79.0	299.0	74	304	1
1.7	2015_Jul_22_1311	s	s	8	3	SIC	360	RC	1	1	23MO	1	0	1.60957789421	-224.0	-181.0	-224	-179	1
1.7	2015_Jul_22_1311	s	s	8	3	SIC	361	ABS	0	2	24RD	0	1	0.811902999878	None	None	None	None	1
1.7	2015_Jul_22_1311	s	s	8	3	SIC	362	RC	2	1	23VO	1	0	0.646769046783	-157.0	-367.0	-160	-366	1
1.7	2015_Jul_22_1311	s	s	8	3	SIC	363	RC	2	0	23VC	1	0	0.540720939636	394.0	-8.0	399	-4	1
1.7	2015_Jul_22_1311	s	s	8	3	SIC	364	ABS	2	1	24VO	0	1	0.870283842087	None	None	None	None	1
1.7	2015_Jul_22_1311	s	s	8	3	SIC	365	RC	0	2	23RD	1	0	0.546607017517	-430.0	-66.0	-434	-57	1
1.7	2015_Jul_22_1311	s	s	8	3	SIC	366	ABS	2	0	24VC	0	1	0.658605098724	None	None	None	None	1
1.7	2015_Jul_22_1311	s	s	8	3	SIC	367	RC	1	0	23MC	1	0	9.29814100266	265.0	-179.0	267	-173	1
1.7	2015_Jul_22_1311	s	s	8	3	SIC	368	ABS	1	0	24MC	0	1	2.01215195656	None	None	None	None	1
1.7	2015_Jul_22_1311	s	s	8	3	SIC	369	RC	1	1	23MO	1	0	1.81201195717	-505.0	345.0	-513	354	1
1.7	2015_Jul_22_1311	s	s	8	3	SIC	370	ABS	2	0	24VC	0	1	0.764449834824	None	None	None	None	1
1.7	2015_Jul_22_1311	s	s	8	3	SIC	371	RC	2	1	23VO	1	0	0.724053144455	46.0	-343.0	47	-341	1
1.7	2015_Jul_22_1311	s	s	8	3	SIC	372	ABS	0	1	24RO	0	1	5.93986201286	None	None	None	None	1
1.7	2015_Jul_22_1311	s	s	8	3	SIC	373	RC	0	2	23RD	1	0	0.69126200676	306.0	227.0	309	230	1
1.7	2015_Jul_22_1311	s	s	8	3	SIC	374	ABS	1	0	24MC	0	1	4.09550309181	None	None	None	None	1
1.7	2015_Jul_22_1311	s	s	8	3	SIC	375	ABS	2	1	24VO	0	1	0.78476691246	None	None	None	None	1
1.7	2015_Jul_22_1311	s	s	8	3	SIC	376	RC	0	1	23RO	1	0	1.85274410248	-276.0	-327.0	-276	-330	1
1.7	2015_Jul_22_1311	s	s	8	3	SIC	377	RC	2	2	23VD	1	0	0.592295885086	-103.0	196.0	-107	202	1
1.7	2015_Jul_22_1311	s	s	8	3	SIC	378	RC	1	2	23MD	1	0	0.615159034729	-87.0	-208.0	-90	-204	1
1.7	2015_Jul_22_1311	s	s	8	3	SIC	379	ABS	1	2	24MD	0	1	1.00800991058	None	None	None	None	1
1.7	2015_Jul_22_1311	s	s	8	3	SIC	380	RC	2	0	23VC	1	0	0.747617959976	-422.0	-151.0	-427	-145	1
1.7	2015_Jul_22_1311	s	s	8	3	SIC	381	ABS	0	2	24RD	0	1	0.917500019073	None	None	None	None	1
1.7	2015_Jul_22_1311	s	s	8	3	SIC	382	RC	1	0	23MC	1	0	1.51442599297	167.0	87.0	173	90	1
1.7	2015_Jul_22_1311	s	s	8	3	SIC	383	ABS	1	1	24MO	0	1	3.91903400421	None	None	None	None	1
1.7	2015_Jul_22_1311	s	s	8	3	SIC	384	ABS	2	2	24VD	0	1	0.677304983139	None	None	None	None	1
1.7	2015_Jul_22_1311	s	s	8	3	SIC	385	RC	0	1	23RO	1	0	1.27724313736	-283.0	-389.0	-277	-392	1
1.7	2015_Jul_22_1311	s	s	8	3	SIC	386	ABS	2	1	24VO	0	1	0.940995931625	None	None	None	None	1
1.7	2015_Jul_22_1311	s	s	8	3	SIC	387	ABS	2	2	24VD	0	1	0.596242189407	None	None	None	None	1
1.7	2015_Jul_22_1311	s	s	8	3	SIC	388	ABS	0	1	24RO	0	1	5.58514595032	None	None	None	None	1
1.7	2015_Jul_22_1311	s	s	8	3	SIC	389	ABS	1	0	24MC	0	1	3.88969111443	None	None	None	None	1
1.7	2015_Jul_22_1311	s	s	8	3	SIC	390	RC	0	2	23RD	1	0	0.905761957169	-434.0	35.0	-442	36	1
1.7	2015_Jul_22_1311	s	s	8	3	SIC	391	ABS	1	1	24MO	0	1	3.80808210373	None	None	None	None	1
1.7	2015_Jul_22_1311	s	s	8	3	SIC	392	ABS	0	2	24RD	0	1	0.646912097931	None	None	None	None	1
1.7	2015_Jul_22_1311	s	s	8	3	SIC	393	RC	2	1	23VO	1	0	0.723549127579	46.0	218.0	42	220	1
1.7	2015_Jul_22_1311	s	s	8	3	SIC	394	RC	1	2	23MD	1	0	0.770608901978	-308.0	-271.0	-308	-270	1
1.7	2015_Jul_22_1311	s	s	8	3	SIC	395	RC	1	0	23MC	1	0	2.0805721283	-116.0	52.0	-114	61	1
1.7	2015_Jul_22_1311	s	s	8	3	SIC	396	ABS	2	0	24VC	0	1	0.677021026611	None	None	None	None	1
1.7	2015_Jul_22_1311	s	s	8	3	SIC	397	RC	2	2	23VD	1	0	0.835088014603	236.0	226.0	243	229	1
1.7	2015_Jul_22_1311	s	s	8	3	SIC	398	RC	1	1	23MO	1	0	1.55073308945	-11.0	-362.0	-8	-362	1
1.7	2015_Jul_22_1311	s	s	8	3	SIC	399	ABS	1	2	24MD	0	1	0.948954105377	None	None	None	None	1
1.7	2015_Jul_22_1311	s	s	8	3	SIC	400	RC	2	0	23VC	1	0	0.623699903488	370.0	335.0	371	339	1
1.7	2015_Jul_22_1311	s	s	8	3	SIC	401	ABS	1	1	24MO	0	1	7.45681190491	None	None	None	None	1
1.7	2015_Jul_22_1311	s	s	8	3	SIC	402	ABS	2	1	24VO	0	1	0.646764039993	None	None	None	None	1
1.7	2015_Jul_22_1311	s	s	8	3	SIC	403	ABS	0	2	24RD	0	1	1.06798601151	None	None	None	None	1
1.7	2015_Jul_22_1311	s	s	8	3	SIC	404	RC	1	2	23MD	1	0	0.831992149353	194.0	317.0	194	320	1
1.7	2015_Jul_22_1311	s	s	8	3	SIC	405	RC	2	0	23VC	1	0	0.79474401474	120.0	-298.0	125	-300	1
1.7	2015_Jul_22_1311	s	s	8	3	SIC	406	ABS	1	0	24MC	0	1	3.75417709351	None	None	None	None	1
1.7	2015_Jul_22_1311	s	s	8	3	SIC	407	ABS	2	0	24VC	0	1	1.23281502724	None	None	None	None	1
1.7	2015_Jul_22_1311	s	s	8	3	SIC	408	ABS	0	1	24RO	0	1	6.76738810539	None	None	None	None	1
1.7	2015_Jul_22_1311	s	s	8	3	SIC	409	RC	0	2	23RD	1	0	1.47993302345	-466.0	386.0	-472	382	1
1.7	2015_Jul_22_1311	s	s	8	3	SIC	410	RC	2	2	23VD	1	0	0.682073831558	483.0	77.0	491	78	1
1.7	2015_Jul_22_1311	s	s	8	3	SIC	411	ABS	2	2	24VD	0	1	0.794872999191	None	None	None	None	1
1.7	2015_Jul_22_1311	s	s	8	3	SIC	412	RC	1	0	23MC	0	1	2.74880504608	386.0	-102.0	None	None	0
1.7	2015_Jul_22_1311	s	s	8	3	SIC	413	ABS	1	2	24MD	0	1	1.01848196983	None	None	None	None	1
1.7	2015_Jul_22_1311	s	s	8	3	SIC	414	RC	2	1	23VO	1	0	0.788013935089	-104.0	-85.0	-104	-79	1
1.7	2015_Jul_22_1311	s	s	8	3	SIC	415	RC	1	1	23MO	1	0	0.91251707077	49.0	238.0	47	235	1
1.7	2015_Jul_22_1311	s	s	8	3	SIC	416	RC	0	1	23RO	1	0	1.45657610893	-293.0	155.0	-294	162	1
1.7	2015_Jul_22_1311	s	s	8	3	SIC	417	RC	0	1	23RO	1	0	5.06083297729	-181.0	358.0	-181	363	1
1.7	2015_Jul_22_1311	s	s	8	3	SIC	418	ABS	2	1	24VO	0	1	0.894012928009	None	None	None	None	1
1.7	2015_Jul_22_1311	s	s	8	3	SIC	419	RC	0	2	23RD	1	0	1.22717285156	-407.0	-368.0	-413	-365	1
1.7	2015_Jul_22_1311	s	s	8	3	SIC	420	ABS	1	2	24MD	0	1	0.841507196426	None	None	None	None	1
1.7	2015_Jul_22_1311	s	s	8	3	SIC	421	ABS	1	0	24MC	0	1	3.76025009155	None	None	None	None	1
1.7	2015_Jul_22_1311	s	s	8	3	SIC	422	ABS	2	0	24VC	0	1	0.740926027298	None	None	None	None	1
1.7	2015_Jul_22_1311	s	s	8	3	SIC	423	RC	2	0	23VC	1	0	0.740869998932	-201.0	126.0	-209	124	1
1.7	2015_Jul_22_1311	s	s	8	3	SIC	424	RC	2	2	23VD	1	0	0.599900007248	110.0	-16.0	106	-19	1
1.7	2015_Jul_22_1311	s	s	8	3	SIC	425	ABS	1	1	24MO	0	1	4.80832719803	None	None	None	None	1
1.7	2015_Jul_22_1311	s	s	8	3	SIC	426	RC	1	0	23MC	1	0	3.60119199753	-166.0	-7.0	-161	-9	1
1.7	2015_Jul_22_1311	s	s	8	3	SIC	427	RC	1	2	23MD	1	0	0.667336940765	-310.0	-184.0	-310	-180	1
1.7	2015_Jul_22_1311	s	s	8	3	SIC	428	RC	2	1	23VO	1	0	0.540845870972	-76.0	-136.0	-72	-134	1
1.7	2015_Jul_22_1311	s	s	8	3	SIC	429	ABS	2	2	24VD	0	1	1.01840901375	None	None	None	None	1
1.7	2015_Jul_22_1311	s	s	8	3	SIC	430	ABS	0	2	24RD	0	1	1.40690398216	None	None	None	None	1
1.7	2015_Jul_22_1311	s	s	8	3	SIC	431	RC	1	1	23MO	1	0	5.82088398933	520.0	-273.0	521	-278	1
1.7	2015_Jul_22_1311	s	s	8	3	SIC	432	ABS	0	1	24RO	0	1	6.89180994034	None	None	None	None	1
1.7	2015_Jul_22_1311	s	s	8	3	SIC	433	RC	2	1	23VO	1	0	0.623090028763	408.0	142.0	405	144	1
1.7	2015_Jul_22_1311	s	s	8	3	SIC	434	RC	1	1	23MO	1	0	1.58549785614	-90.0	383.0	-86	386	1
1.7	2015_Jul_22_1311	s	s	8	3	SIC	435	ABS	1	0	24MC	0	1	6.9628469944	None	None	None	None	1
1.7	2015_Jul_22_1311	s	s	8	3	SIC	436	ABS	1	1	24MO	0	1	4.34270095825	None	None	None	None	1
1.7	2015_Jul_22_1311	s	s	8	3	SIC	437	ABS	0	1	24RO	0	1	6.0847120285	None	None	None	None	1
1.7	2015_Jul_22_1311	s	s	8	3	SIC	438	ABS	0	2	24RD	0	1	1.90221190453	None	None	None	None	1
1.7	2015_Jul_22_1311	s	s	8	3	SIC	439	RC	2	2	23VD	1	0	0.83015704155	498.0	295.0	507	299	1
1.7	2015_Jul_22_1311	s	s	8	3	SIC	440	RC	0	2	23RD	1	0	0.630084037781	-81.0	347.0	-94	354	1
1.7	2015_Jul_22_1311	s	s	8	3	SIC	441	RC	2	0	23VC	1	0	0.501892089844	171.0	298.0	170	296	1
1.7	2015_Jul_22_1311	s	s	8	3	SIC	442	ABS	2	0	24VC	0	1	1.33641600609	None	None	None	None	1
1.7	2015_Jul_22_1311	s	s	8	3	SIC	443	ABS	1	2	24MD	0	1	0.846825838089	None	None	None	None	1
1.7	2015_Jul_22_1311	s	s	8	3	SIC	444	RC	1	0	23MC	1	0	1.40695595741	148.0	372.0	149	373	1
1.7	2015_Jul_22_1311	s	s	8	3	SIC	445	ABS	2	1	24VO	0	1	0.688840150833	None	None	None	None	1
1.7	2015_Jul_22_1311	s	s	8	3	SIC	446	RC	1	2	23MD	1	0	0.688939094543	-533.0	-34.0	-543	-31	1
1.7	2015_Jul_22_1311	s	s	8	3	SIC	447	ABS	2	2	24VD	0	1	0.772083997726	None	None	None	None	1
1.7	2015_Jul_22_1311	s	s	8	3	SIC	448	RC	0	1	23RO	1	0	1.90160703659	48.0	333.0	43	338	1
1.7	2015_Jul_22_1311	s	s	8	3	SIC	449	RC	0	1	23RO	1	0	2.5981798172	-402.0	-218.0	-405	-214	1
1.7	2015_Jul_22_1311	s	s	8	3	SIC	450	ABS	2	1	24VO	0	1	0.740775108337	None	None	None	None	1
1.7	2015_Jul_22_1311	s	s	8	3	SIC	451	ABS	1	1	24MO	0	1	6.90655303001	None	None	None	None	1
1.7	2015_Jul_22_1311	s	s	8	3	SIC	452	ABS	1	2	24MD	0	1	0.819911956787	None	None	None	None	1
1.7	2015_Jul_22_1311	s	s	8	3	SIC	453	RC	2	0	23VC	1	0	0.776160001755	-96.0	-190.0	-97	-188	1
1.7	2015_Jul_22_1311	s	s	8	3	SIC	454	RC	2	1	23VO	1	0	0.682047128677	-362.0	-237.0	-349	-231	1
1.7	2015_Jul_22_1311	s	s	8	3	SIC	455	RC	1	2	23MD	1	0	0.685826063156	99.0	-253.0	98	-254	1
1.7	2015_Jul_22_1311	s	s	8	3	SIC	456	RC	1	1	23MO	1	0	1.07787704468	462.0	-207.0	463	-202	1
1.7	2015_Jul_22_1311	s	s	8	3	SIC	457	RC	0	2	23RD	1	0	0.653571128845	169.0	-382.0	175	-384	1
1.7	2015_Jul_22_1311	s	s	8	3	SIC	458	ABS	1	0	24MC	0	1	5.38551592827	None	None	None	None	1
1.7	2015_Jul_22_1311	s	s	8	3	SIC	459	ABS	0	2	24RD	0	1	0.701956033707	None	None	None	None	1
1.7	2015_Jul_22_1311	s	s	8	3	SIC	460	ABS	0	1	24RO	0	1	5.80944800377	None	None	None	None	1
1.7	2015_Jul_22_1311	s	s	8	3	SIC	461	RC	1	0	23MC	1	0	2.1251270771	-212.0	26.0	-207	27	1
1.7	2015_Jul_22_1311	s	s	8	3	SIC	462	ABS	2	0	24VC	0	1	0.658215999603	None	None	None	None	1
1.7	2015_Jul_22_1311	s	s	8	3	SIC	463	RC	2	2	23VD	1	0	0.712594032288	-273.0	-72.0	-269	-69	1
1.7	2015_Jul_22_1311	s	s	8	3	SIC	464	ABS	2	2	24VD	0	1	0.905678987503	None	None	None	None	1
1.7	2015_Jul_22_1311	s	s	8	3	SIC	465	RC	2	1	23VO	1	0	0.635401964188	304.0	-220.0	299	-215	1
1.7	2015_Jul_22_1311	s	s	8	3	SIC	466	RC	2	0	23VC	1	0	0.619796037674	442.0	324.0	440	326	1
1.7	2015_Jul_22_1311	s	s	8	3	SIC	467	ABS	1	2	24MD	0	1	0.764751911163	None	None	None	None	1
1.7	2015_Jul_22_1311	s	s	8	3	SIC	468	ABS	1	0	24MC	0	1	2.95862698555	None	None	None	None	1
1.7	2015_Jul_22_1311	s	s	8	3	SIC	469	RC	2	2	23VD	1	0	0.653685092926	179.0	-37.0	173	-34	1
1.7	2015_Jul_22_1311	s	s	8	3	SIC	470	ABS	2	2	24VD	0	1	0.70078086853	None	None	None	None	1
1.7	2015_Jul_22_1311	s	s	8	3	SIC	471	ABS	2	1	24VO	0	1	0.999868154526	None	None	None	None	1
1.7	2015_Jul_22_1311	s	s	8	3	SIC	472	ABS	0	1	24RO	0	1	5.42049908638	None	None	None	None	1
1.7	2015_Jul_22_1311	s	s	8	3	SIC	473	ABS	1	1	24MO	0	1	6.69198203087	None	None	None	None	1
1.7	2015_Jul_22_1311	s	s	8	3	SIC	474	ABS	0	2	24RD	0	1	1.04358887672	None	None	None	None	1
1.7	2015_Jul_22_1311	s	s	8	3	SIC	475	RC	0	2	23RD	1	0	0.999880075455	-120.0	351.0	-121	355	1
1.7	2015_Jul_22_1311	s	s	8	3	SIC	476	RC	1	0	23MC	1	0	1.46593689919	-325.0	-198.0	-330	-195	1
1.7	2015_Jul_22_1311	s	s	8	3	SIC	477	RC	0	1	23RO	1	0	7.36220693588	-339.0	218.0	-335	218	1
1.7	2015_Jul_22_1311	s	s	8	3	SIC	478	ABS	2	0	24VC	0	1	0.729197978973	None	None	None	None	1
1.7	2015_Jul_22_1311	s	s	8	3	SIC	479	RC	1	2	23MD	1	0	0.579810142517	-469.0	-30.0	-473	-32	1
1.7	2015_Jul_22_1311	s	s	8	3	SIC	480	RC	1	1	23MO	1	0	1.21177005768	143.0	-169.0	144	-168	1
1.7	2015_Jul_22_1311	s	s	8	3	SIC	481	ABS	0	2	24RD	0	1	1.40001296997	None	None	None	None	1
1.7	2015_Jul_22_1311	s	s	8	3	SIC	482	ABS	1	2	24MD	0	1	1.1856739521	None	None	None	None	1
1.7	2015_Jul_22_1311	s	s	8	3	SIC	483	RC	2	1	23VO	1	0	0.665378093719	-362.0	-172.0	-372	-168	1
1.7	2015_Jul_22_1311	s	s	8	3	SIC	484	RC	0	2	23RD	1	0	0.576116085052	-110.0	75.0	-118	74	1
1.7	2015_Jul_22_1311	s	s	8	3	SIC	485	RC	2	2	23VD	1	0	0.500543117523	350.0	75.0	353	78	1
1.7	2015_Jul_22_1311	s	s	8	3	SIC	486	ABS	1	0	24MC	0	1	2.44260191917	None	None	None	None	1
1.7	2015_Jul_22_1311	s	s	8	3	SIC	487	RC	1	1	23MO	1	0	5.05822992325	212.0	-252.0	220	-256	1
1.7	2015_Jul_22_1311	s	s	8	3	SIC	488	ABS	2	1	24VO	0	1	0.724082946777	None	None	None	None	1
1.7	2015_Jul_22_1311	s	s	8	3	SIC	489	ABS	2	0	24VC	0	1	0.691605091095	None	None	None	None	1
1.7	2015_Jul_22_1311	s	s	8	3	SIC	490	RC	1	2	23MD	1	0	0.644107103348	440.0	29.0	442	34	1
1.7	2015_Jul_22_1311	s	s	8	3	SIC	491	ABS	0	1	24RO	0	1	7.97984004021	None	None	None	None	1
1.7	2015_Jul_22_1311	s	s	8	3	SIC	492	ABS	2	2	24VD	0	1	0.564388036728	None	None	None	None	1
1.7	2015_Jul_22_1311	s	s	8	3	SIC	493	RC	1	0	23MC	1	0	2.46658492088	-81.0	121.0	-83	121	1
1.7	2015_Jul_22_1311	s	s	8	3	SIC	494	RC	2	0	23VC	1	0	0.618571996689	-109.0	-107.0	-105	-109	1
1.7	2015_Jul_22_1311	s	s	8	3	SIC	495	RC	0	1	23RO	1	0	5.99727606773	533.0	-262.0	528	-264	1
1.7	2015_Jul_22_1311	s	s	8	3	SIC	496	ABS	1	1	24MO	0	1	5.84934091568	None	None	None	None	1
1.7	2015_Jul_22_1311	s	s	8	3	SIC	497	RC	1	0	23MC	1	0	2.2806019783	-122.0	-3.0	-126	0	1
1.7	2015_Jul_22_1311	s	s	8	3	SIC	498	ABS	0	1	24RO	0	1	6.8498570919	None	None	None	None	1
1.7	2015_Jul_22_1311	s	s	8	3	SIC	499	ABS	2	0	24VC	0	1	0.729161024094	None	None	None	None	1
1.7	2015_Jul_22_1311	s	s	8	3	SIC	500	RC	1	2	23MD	1	0	0.752656936646	393.0	154.0	388	159	1
1.7	2015_Jul_22_1311	s	s	8	3	SIC	501	ABS	2	2	24VD	0	1	0.799766778946	None	None	None	None	1
1.7	2015_Jul_22_1311	s	s	8	3	SIC	502	RC	2	2	23VD	1	0	0.634946107864	-394.0	215.0	-388	215	1
1.7	2015_Jul_22_1311	s	s	8	3	SIC	503	RC	2	0	23VC	1	0	0.529018163681	-351.0	66.0	-358	66	1
1.7	2015_Jul_22_1311	s	s	8	3	SIC	504	ABS	1	0	24MC	0	1	5.92702484131	None	None	None	None	1
1.7	2015_Jul_22_1311	s	s	8	3	SIC	505	ABS	1	1	24MO	0	1	4.44573807716	None	None	None	None	1
1.7	2015_Jul_22_1311	s	s	8	3	SIC	506	RC	1	1	23MO	1	0	1.70611381531	-110.0	373.0	-108	370	1
1.7	2015_Jul_22_1311	s	s	8	3	SIC	507	ABS	1	2	24MD	0	1	0.709347963333	None	None	None	None	1
1.7	2015_Jul_22_1311	s	s	8	3	SIC	508	RC	0	1	23RO	1	0	3.65996980667	51.0	-124.0	54	-120	1
1.7	2015_Jul_22_1311	s	s	8	3	SIC	509	RC	0	2	23RD	1	0	0.547476053238	43.0	-92.0	37	-92	1
1.7	2015_Jul_22_1311	s	s	8	3	SIC	510	ABS	0	2	24RD	0	1	0.747669935226	None	None	None	None	1
1.7	2015_Jul_22_1311	s	s	8	3	SIC	511	RC	2	1	23VO	1	0	0.571241855621	-35.0	-111.0	-37	-106	1
1.7	2015_Jul_22_1311	s	s	8	3	SIC	512	ABS	2	1	24VO	0	1	0.835068941116	None	None	None	None	1
1.7	2015_Jul_22_1311	s	s	8	3	SIC	513	ABS	2	1	24VO	0	1	0.941056013107	None	None	None	None	1
1.7	2015_Jul_22_1311	s	s	8	3	SIC	514	ABS	0	1	24RO	0	1	5.48063492775	None	None	None	None	1
1.7	2015_Jul_22_1311	s	s	8	3	SIC	515	RC	0	1	23RO	1	0	1.78845095634	-474.0	204.0	-480	203	1
1.7	2015_Jul_22_1311	s	s	8	3	SIC	516	ABS	1	0	24MC	0	1	6.75141501427	None	None	None	None	1
1.7	2015_Jul_22_1311	s	s	8	3	SIC	517	ABS	1	2	24MD	0	1	0.611473798752	None	None	None	None	1
1.7	2015_Jul_22_1311	s	s	8	3	SIC	518	ABS	0	2	24RD	0	1	0.540860891342	None	None	None	None	1
1.7	2015_Jul_22_1311	s	s	8	3	SIC	519	RC	2	1	23VO	1	0	0.865135908127	156.0	-106.0	149	-101	1
1.7	2015_Jul_22_1311	s	s	8	3	SIC	520	RC	2	2	23VD	1	0	0.564429998398	470.0	112.0	463	122	1
1.7	2015_Jul_22_1311	s	s	8	3	SIC	521	RC	1	0	23MC	1	0	8.99947190285	-514.0	-365.0	-511	-359	1
1.7	2015_Jul_22_1311	s	s	8	3	SIC	522	ABS	1	1	24MO	0	1	5.80229711533	None	None	None	None	1
1.7	2015_Jul_22_1311	s	s	8	3	SIC	523	RC	1	2	23MD	1	0	0.584524869919	140.0	216.0	139	221	1
1.7	2015_Jul_22_1311	s	s	8	3	SIC	524	ABS	2	0	24VC	0	1	0.81153512001	None	None	None	None	1
1.7	2015_Jul_22_1311	s	s	8	3	SIC	525	ABS	2	2	24VD	0	1	0.591518878937	None	None	None	None	1
1.7	2015_Jul_22_1311	s	s	8	3	SIC	526	RC	0	2	23RD	1	0	0.89763379097	382.0	-11.0	380	-12	1
1.7	2015_Jul_22_1311	s	s	8	3	SIC	527	RC	1	1	23MO	1	0	0.807973146439	505.0	210.0	496	211	1
1.7	2015_Jul_22_1311	s	s	8	3	SIC	528	RC	2	0	23VC	1	0	0.570939064026	59.0	123.0	62	131	1
1.7	2015_Jul_22_1311	s	s	8	3	SIC	529	ABS	1	0	24MC	0	1	3.56591582298	None	None	None	None	1
1.7	2015_Jul_22_1311	s	s	8	3	SIC	530	ABS	2	0	24VC	0	1	0.846930027008	None	None	None	None	1
1.7	2015_Jul_22_1311	s	s	8	3	SIC	531	ABS	1	1	24MO	0	1	6.06105685234	None	None	None	None	1
1.7	2015_Jul_22_1311	s	s	8	3	SIC	532	RC	2	2	23VD	1	0	0.788084983826	-509.0	-123.0	-504	-126	1
1.7	2015_Jul_22_1311	s	s	8	3	SIC	533	RC	0	2	23RD	1	0	0.676430940628	-135.0	-99.0	-136	-99	1
1.7	2015_Jul_22_1311	s	s	8	3	SIC	534	RC	1	1	23MO	1	0	1.50158190727	-243.0	-58.0	-250	-61	1
1.7	2015_Jul_22_1311	s	s	8	3	SIC	535	RC	1	0	23MC	1	0	5.78370213509	413.0	35.0	413	37	1
1.7	2015_Jul_22_1311	s	s	8	3	SIC	536	ABS	0	2	24RD	0	1	0.713973999023	None	None	None	None	1
1.7	2015_Jul_22_1311	s	s	8	3	SIC	537	RC	1	2	23MD	1	0	0.667577028275	-147.0	-30.0	-150	-27	1
1.7	2015_Jul_22_1311	s	s	8	3	SIC	538	RC	0	1	23RO	1	0	3.12502598763	-164.0	380.0	-166	389	1
1.7	2015_Jul_22_1311	s	s	8	3	SIC	539	ABS	2	1	24VO	0	1	0.653460979462	None	None	None	None	1
1.7	2015_Jul_22_1311	s	s	8	3	SIC	540	ABS	2	2	24VD	0	1	0.911705970764	None	None	None	None	1
1.7	2015_Jul_22_1311	s	s	8	3	SIC	541	ABS	0	1	24RO	0	1	6.59092307091	None	None	None	None	1
1.7	2015_Jul_22_1311	s	s	8	3	SIC	542	ABS	1	2	24MD	0	1	0.673976898193	None	None	None	None	1
1.7	2015_Jul_22_1311	s	s	8	3	SIC	543	RC	2	0	23VC	1	0	0.670258998871	-379.0	58.0	-377	63	1
1.7	2015_Jul_22_1311	s	s	8	3	SIC	544	RC	2	1	23VO	1	0	0.606706857681	251.0	43.0	254	44	1
1.7	2015_Jul_22_1311	s	s	8	3	SIC	545	RC	1	1	23MO	1	0	4.13087797165	467.0	-400.0	464	-397	1
1.7	2015_Jul_22_1311	s	s	8	3	SIC	546	ABS	0	1	24RO	0	1	6.89196014404	None	None	None	None	1
1.7	2015_Jul_22_1311	s	s	8	3	SIC	547	ABS	2	2	24VD	0	1	0.815247058868	None	None	None	None	1
1.7	2015_Jul_22_1311	s	s	8	3	SIC	548	ABS	2	1	24VO	0	1	2.64268302917	None	None	None	None	1
1.7	2015_Jul_22_1311	s	s	8	3	SIC	549	RC	0	1	23RO	1	0	6.50422906876	202.0	-243.0	198	-241	1
1.7	2015_Jul_22_1311	s	s	8	3	SIC	550	ABS	1	1	24MO	0	1	6.52872395515	None	None	None	None	1
1.7	2015_Jul_22_1311	s	s	8	3	SIC	551	RC	1	0	23MC	1	0	1.59525299072	52.0	-90.0	58	-85	1
1.7	2015_Jul_22_1311	s	s	8	3	SIC	552	ABS	0	2	24RD	0	1	1.51264595985	None	None	None	None	1
1.7	2015_Jul_22_1311	s	s	8	3	SIC	553	RC	2	0	23VC	1	0	0.688937187195	-259.0	162.0	-264	164	1
1.7	2015_Jul_22_1311	s	s	8	3	SIC	554	RC	2	1	23VO	1	0	0.676983118057	-96.0	-283.0	-94	-275	1
1.7	2015_Jul_22_1311	s	s	8	3	SIC	555	RC	0	2	23RD	1	0	0.75275683403	-69.0	-343.0	-72	-344	1
1.7	2015_Jul_22_1311	s	s	8	3	SIC	556	ABS	1	2	24MD	0	1	0.835029125214	None	None	None	None	1
1.7	2015_Jul_22_1311	s	s	8	3	SIC	557	ABS	1	0	24MC	0	1	2.68966794014	None	None	None	None	1
1.7	2015_Jul_22_1311	s	s	8	3	SIC	558	ABS	2	0	24VC	0	1	0.705606937408	None	None	None	None	1
1.7	2015_Jul_22_1311	s	s	8	3	SIC	559	RC	2	2	23VD	1	0	0.587924957275	207.0	-101.0	205	-101	1
1.7	2015_Jul_22_1311	s	s	8	3	SIC	560	RC	1	2	23MD	1	0	0.596765995026	31.0	-381.0	35	-384	1
1.7	2015_Jul_22_1311	s	s	8	3	SIC	561	RC	1	1	23MO	1	0	1.51257109642	-15.0	212.0	-9	212	1
1.7	2015_Jul_22_1311	s	s	8	3	SIC	562	RC	2	1	23VO	1	0	0.529037952423	-65.0	-255.0	-62	-262	1
1.7	2015_Jul_22_1311	s	s	8	3	SIC	563	RC	0	1	23RO	1	0	1.16467404366	113.0	-133.0	115	-133	1
1.7	2015_Jul_22_1311	s	s	8	3	SIC	564	RC	2	0	23VC	1	0	0.559466123581	18.0	281.0	16	283	1
1.7	2015_Jul_22_1311	s	s	8	3	SIC	565	ABS	0	2	24RD	0	1	1.06535506248	None	None	None	None	1
1.7	2015_Jul_22_1311	s	s	8	3	SIC	566	RC	1	0	23MC	0	1	5.61387395859	111.0	-294.0	None	None	0
1.7	2015_Jul_22_1311	s	s	8	3	SIC	567	ABS	1	1	24MO	0	1	6.57917499542	None	None	None	None	1
1.7	2015_Jul_22_1311	s	s	8	3	SIC	568	ABS	2	1	24VO	0	1	0.78804898262	None	None	None	None	1
1.7	2015_Jul_22_1311	s	s	8	3	SIC	569	ABS	1	2	24MD	0	1	0.687880039215	None	None	None	None	1
1.7	2015_Jul_22_1311	s	s	8	3	SIC	570	RC	2	2	23VD	1	0	0.799763917923	-394.0	363.0	-404	364	1
1.7	2015_Jul_22_1311	s	s	8	3	SIC	571	RC	0	2	23RD	1	0	0.57616686821	-269.0	258.0	-275	260	1
1.7	2015_Jul_22_1311	s	s	8	3	SIC	572	RC	1	2	23MD	1	0	0.870638132095	527.0	-176.0	526	-173	1
1.7	2015_Jul_22_1311	s	s	8	3	SIC	573	ABS	2	0	24VC	0	1	1.11281704903	None	None	None	None	1
1.7	2015_Jul_22_1311	s	s	8	3	SIC	574	ABS	0	1	24RO	0	1	5.49188184738	None	None	None	None	1
1.7	2015_Jul_22_1311	s	s	8	3	SIC	575	ABS	1	0	24MC	0	1	5.04888796806	None	None	None	None	1
1.7	2015_Jul_22_1311	s	s	8	3	SIC	576	ABS	2	2	24VD	0	1	0.983934164047	None	None	None	None	1
1.7	2015_Jul_22_1311	s	s	8	3	SIC	577	RC	2	2	23VD	1	0	0.773431062698	-29.0	-237.0	-27	-236	1
1.7	2015_Jul_22_1311	s	s	8	3	SIC	578	ABS	2	2	24VD	0	1	0.858449935913	None	None	None	None	1
1.7	2015_Jul_22_1311	s	s	8	3	SIC	579	RC	1	1	23MO	1	0	1.74141097069	-77.0	179.0	-77	179	1
1.7	2015_Jul_22_1311	s	s	8	3	SIC	580	ABS	1	1	24MO	0	1	4.71940207481	None	None	None	None	1
1.7	2015_Jul_22_1311	s	s	8	3	SIC	581	RC	2	1	23VO	1	0	0.705667972565	444.0	-29.0	437	-20	1
1.7	2015_Jul_22_1311	s	s	8	3	SIC	582	ABS	1	0	24MC	0	1	4.65548110008	None	None	None	None	1
1.7	2015_Jul_22_1311	s	s	8	3	SIC	583	ABS	0	2	24RD	0	1	0.571151971817	None	None	None	None	1
1.7	2015_Jul_22_1311	s	s	8	3	SIC	584	ABS	0	1	24RO	0	1	4.28386902809	None	None	None	None	1
1.7	2015_Jul_22_1311	s	s	8	3	SIC	585	ABS	2	1	24VO	0	1	0.576513051987	None	None	None	None	1
1.7	2015_Jul_22_1311	s	s	8	3	SIC	586	RC	1	2	23MD	1	0	0.783179998398	-114.0	-246.0	-116	-242	1
1.7	2015_Jul_22_1311	s	s	8	3	SIC	587	RC	2	0	23VC	1	0	0.761667013168	-83.0	-232.0	-90	-231	1
1.7	2015_Jul_22_1311	s	s	8	3	SIC	588	RC	0	2	23RD	1	0	0.629734039307	331.0	-347.0	338	-343	1
1.7	2015_Jul_22_1311	s	s	8	3	SIC	589	ABS	2	0	24VC	0	1	0.747511863708	None	None	None	None	1
1.7	2015_Jul_22_1311	s	s	8	3	SIC	590	RC	0	1	23RO	1	0	4.4722058773	-66.0	-298.0	-67	-307	1
1.7	2015_Jul_22_1311	s	s	8	3	SIC	591	RC	1	0	23MC	0	1	3.64022994041	-524.0	230.0	None	None	0
1.7	2015_Jul_22_1311	s	s	8	3	SIC	592	ABS	1	2	24MD	0	1	0.63498210907	None	None	None	None	1
