Version	Date	Stimuli	Method	Subject	Session	Condition	Trial	Target	Channel1	Channel2	Distractors	LMouseButton	RMouseButton	RT	TargetX	TargetY	ResponseX	ResponseY	Correct
2.7	2015_May_18_1439	s	s	10	1	Capacity	1	ABS	0	2	16RD 08RO	0	1	9.36859607697	None	None	None	None	1
2.7	2015_May_18_1439	s	s	10	1	Capacity	2	ABS	0	1	08RD 16RO	0	1	8.6005218029	None	None	None	None	1
2.7	2015_May_18_1439	s	s	10	1	Capacity	3	RC	0	1	08RD 15RO	0	1	7.25851011276	-276.0	-273.0	None	None	0
2.7	2015_May_18_1439	s	s	10	1	Capacity	4	RC	0	2	15RD 08RO	1	0	7.80097413063	-521.0	74.0	-519	78	1
2.7	2015_May_18_1439	s	s	10	1	Capacity	5	ABS	0	2	16RD 08RO	0	1	5.35113096237	None	None	None	None	1
2.7	2015_May_18_1439	s	s	10	1	Capacity	6	ABS	0	1	08RD 16RO	0	1	3.81295490265	None	None	None	None	1
2.7	2015_May_18_1439	s	s	10	1	Capacity	7	RC	0	2	15RD 08RO	1	0	3.18931889534	475.0	-406.0	468	-404	1
2.7	2015_May_18_1439	s	s	10	1	Capacity	8	RC	0	1	08RD 15RO	1	0	2.28973412514	531.0	-137.0	528	-139	1
2.7	2015_May_18_1439	s	s	10	1	Capacity	9	RC	0	1	08RD 15RO	1	0	3.57760810852	-286.0	90.0	-294	98	1
2.7	2015_May_18_1439	s	s	10	1	Capacity	10	ABS	0	1	08RD 16RO	0	1	6.07025694847	None	None	None	None	1
2.7	2015_May_18_1439	s	s	10	1	Capacity	11	ABS	0	2	16RD 08RO	0	1	5.30791211128	None	None	None	None	1
2.7	2015_May_18_1439	s	s	10	1	Capacity	12	RC	0	2	15RD 08RO	1	0	2.90026879311	283.0	57.0	287	60	1
2.7	2015_May_18_1439	s	s	10	1	Capacity	13	ABS	0	1	08RD 16RO	0	1	8.54475307465	None	None	None	None	1
2.7	2015_May_18_1439	s	s	10	1	Capacity	14	RC	0	2	15RD 08RO	1	0	2.20075082779	360.0	-198.0	359	-194	1
2.7	2015_May_18_1439	s	s	10	1	Capacity	15	ABS	0	2	16RD 08RO	0	1	7.02632284164	None	None	None	None	1
2.7	2015_May_18_1439	s	s	10	1	Capacity	16	RC	0	1	08RD 15RO	1	0	4.03669595718	298.0	49.0	296	52	1
2.7	2015_May_18_1439	s	s	10	1	Capacity	17	ABS	0	2	16RD 08RO	0	1	7.29706907272	None	None	None	None	1
2.7	2015_May_18_1439	s	s	10	1	Capacity	18	RC	0	2	15RD 08RO	1	0	1.75313091278	-311.0	204.0	-320	209	1
2.7	2015_May_18_1439	s	s	10	1	Capacity	19	RC	0	1	08RD 15RO	1	0	2.35351586342	-524.0	-215.0	-528	-215	1
2.7	2015_May_18_1439	s	s	10	1	Capacity	20	ABS	0	1	08RD 16RO	0	1	8.89797902107	None	None	None	None	1
2.7	2015_May_18_1439	s	s	10	1	Capacity	21	ABS	0	1	08RD 16RO	0	1	9.79620480537	None	None	None	None	1
2.7	2015_May_18_1439	s	s	10	1	Capacity	22	ABS	0	2	16RD 08RO	0	1	3.64424204826	None	None	None	None	1
2.7	2015_May_18_1439	s	s	10	1	Capacity	23	RC	0	2	15RD 08RO	1	0	3.12549495697	437.0	-17.0	437	-11	1
2.7	2015_May_18_1439	s	s	10	1	Capacity	24	RC	0	1	08RD 15RO	1	0	5.25726985931	-300.0	-363.0	-300	-373	1
2.7	2015_May_18_1439	s	s	10	1	Capacity	25	ABS	0	1	08RD 16RO	0	1	9.51002001762	None	None	None	None	1
2.7	2015_May_18_1439	s	s	10	1	Capacity	26	RC	0	2	15RD 08RO	1	0	5.08425092697	91.0	-309.0	92	-308	1
2.7	2015_May_18_1439	s	s	10	1	Capacity	27	RC	0	1	08RD 15RO	1	0	5.30452084541	-494.0	285.0	-502	284	1
2.7	2015_May_18_1439	s	s	10	1	Capacity	28	ABS	0	2	16RD 08RO	0	1	3.88967490196	None	None	None	None	1
2.7	2015_May_18_1439	s	s	10	1	Capacity	29	ABS	0	1	08RD 16RO	0	1	4.16601014137	None	None	None	None	1
2.7	2015_May_18_1439	s	s	10	1	Capacity	30	RC	0	2	15RD 08RO	1	0	1.21176314354	-357.0	143.0	-364	141	1
2.7	2015_May_18_1439	s	s	10	1	Capacity	31	RC	0	1	08RD 15RO	1	0	6.34031200409	-416.0	365.0	-416	362	1
2.7	2015_May_18_1439	s	s	10	1	Capacity	32	ABS	0	2	16RD 08RO	0	1	4.69589185715	None	None	None	None	1
2.7	2015_May_18_1439	s	s	10	1	Capacity	33	RC	0	1	08RD 15RO	1	0	5.31976795197	-35.0	176.0	-32	181	1
2.7	2015_May_18_1439	s	s	10	1	Capacity	34	ABS	0	2	16RD 08RO	0	1	6.5202190876	None	None	None	None	1
2.7	2015_May_18_1439	s	s	10	1	Capacity	35	RC	0	2	15RD 08RO	1	0	1.44407486916	-525.0	99.0	-525	95	1
2.7	2015_May_18_1439	s	s	10	1	Capacity	36	ABS	0	1	08RD 16RO	0	1	9.01563715935	None	None	None	None	1
2.7	2015_May_18_1439	s	s	10	1	Capacity	37	ABS	0	2	16RD 08RO	0	1	5.12575888634	None	None	None	None	1
2.7	2015_May_18_1439	s	s	10	1	Capacity	38	ABS	0	1	08RD 16RO	0	1	6.61805200577	None	None	None	None	1
2.7	2015_May_18_1439	s	s	10	1	Capacity	39	RC	0	1	08RD 15RO	1	0	2.41937589645	-311.0	-333.0	-314	-331	1
2.7	2015_May_18_1439	s	s	10	1	Capacity	40	RC	0	2	15RD 08RO	1	0	1.31328606606	-208.0	49.0	-194	54	1
2.7	2015_May_18_1439	s	s	10	1	Capacity	41	RC	0	1	08RD 15RO	1	0	4.31694507599	444.0	256.0	444	259	1
2.7	2015_May_18_1439	s	s	10	1	Capacity	42	RC	0	2	15RD 08RO	1	0	4.7194750309	-506.0	361.0	-506	360	1
2.7	2015_May_18_1439	s	s	10	1	Capacity	43	ABS	0	1	08RD 16RO	0	1	8.15066289902	None	None	None	None	1
2.7	2015_May_18_1439	s	s	10	1	Capacity	44	ABS	0	2	16RD 08RO	0	1	6.39080286026	None	None	None	None	1
2.7	2015_May_18_1439	s	s	10	1	Capacity	45	ABS	0	2	16RD 08RO	0	1	2.95375204086	None	None	None	None	1
2.7	2015_May_18_1439	s	s	10	1	Capacity	46	RC	0	2	15RD 08RO	1	0	2.43588900566	371.0	-396.0	370	-393	1
2.7	2015_May_18_1439	s	s	10	1	Capacity	47	RC	0	1	08RD 15RO	1	0	2.20044183731	-534.0	81.0	-534	76	1
2.7	2015_May_18_1439	s	s	10	1	Capacity	48	ABS	0	1	08RD 16RO	0	1	6.9855928421	None	None	None	None	1
2.7	2015_May_18_1439	s	s	10	1	Capacity	49	RC	0	1	08RD 15RO	1	0	5.06074619293	-398.0	-141.0	-399	-141	1
2.7	2015_May_18_1439	s	s	10	1	Capacity	50	ABS	0	1	08RD 16RO	0	1	4.95252609253	None	None	None	None	1
2.7	2015_May_18_1439	s	s	10	1	Capacity	51	ABS	0	2	16RD 08RO	0	1	4.36625790596	None	None	None	None	1
2.7	2015_May_18_1439	s	s	10	1	Capacity	52	RC	0	2	15RD 08RO	1	0	2.19431591034	-504.0	-274.0	-508	-275	1
2.7	2015_May_18_1439	s	s	10	1	Capacity	53	ABS	0	2	16RD 08RO	0	1	4.56150102615	None	None	None	None	1
2.7	2015_May_18_1439	s	s	10	1	Capacity	54	RC	0	1	08RD 15RO	1	0	4.50747799873	-83.0	275.0	-84	273	1
2.7	2015_May_18_1439	s	s	10	1	Capacity	55	ABS	0	1	08RD 16RO	0	1	4.51928400993	None	None	None	None	1
2.7	2015_May_18_1439	s	s	10	1	Capacity	56	RC	0	2	15RD 08RO	1	0	2.49019598961	-448.0	-284.0	-445	-281	1
2.7	2015_May_18_1439	s	s	10	1	Capacity	57	RC	0	2	15RD 08RO	1	0	2.22995209694	-296.0	50.0	-298	52	1
2.7	2015_May_18_1439	s	s	10	1	Capacity	58	RC	0	1	08RD 15RO	1	0	1.83070015907	-11.0	141.0	-15	145	1
2.7	2015_May_18_1439	s	s	10	1	Capacity	59	ABS	0	1	08RD 16RO	0	1	6.05860304832	None	None	None	None	1
2.7	2015_May_18_1439	s	s	10	1	Capacity	60	ABS	0	2	16RD 08RO	0	1	2.71562409401	None	None	None	None	1
2.7	2015_May_18_1439	s	s	10	1	Capacity	61	ABS	0	1	08RD 16RO	0	1	6.53878307343	None	None	None	None	1
2.7	2015_May_18_1439	s	s	10	1	Capacity	62	RC	0	1	08RD 15RO	1	0	5.66778087616	535.0	-74.0	544	-70	1
2.7	2015_May_18_1439	s	s	10	1	Capacity	63	ABS	0	2	16RD 08RO	0	1	4.83707809448	None	None	None	None	1
2.7	2015_May_18_1439	s	s	10	1	Capacity	64	RC	0	2	15RD 08RO	1	0	1.23532319069	88.0	-86.0	90	-86	1
2.7	2015_May_18_1439	s	s	10	1	Capacity	1	RC	2	0	15VC 08MC	1	0	1.58510398865	-249.0	150.0	-255	155	1
2.7	2015_May_18_1439	s	s	10	1	Capacity	2	RC	1	0	08VC 15MC	1	0	2.57170796394	-476.0	325.0	-477	330	1
2.7	2015_May_18_1439	s	s	10	1	Capacity	3	ABS	2	0	16VC 08MC	0	1	3.02129602432	None	None	None	None	1
2.7	2015_May_18_1439	s	s	10	1	Capacity	4	ABS	1	0	08VC 16MC	0	1	2.65953707695	None	None	None	None	1
2.7	2015_May_18_1439	s	s	10	1	Capacity	5	RC	1	0	08VC 15MC	1	0	1.34726190567	281.0	-89.0	285	-83	1
2.7	2015_May_18_1439	s	s	10	1	Capacity	6	ABS	1	0	08VC 16MC	0	1	1.61238193512	None	None	None	None	1
2.7	2015_May_18_1439	s	s	10	1	Capacity	7	ABS	2	0	16VC 08MC	0	1	2.01212000847	None	None	None	None	1
2.7	2015_May_18_1439	s	s	10	1	Capacity	8	RC	2	0	15VC 08MC	1	0	0.905655145645	-274.0	-30.0	-270	-22	1
2.7	2015_May_18_1439	s	s	10	1	Capacity	9	ABS	1	0	08VC 16MC	0	1	1.33795714378	None	None	None	None	1
2.7	2015_May_18_1439	s	s	10	1	Capacity	10	RC	2	0	15VC 08MC	1	0	1.25303721428	77.0	-262.0	74	-262	1
2.7	2015_May_18_1439	s	s	10	1	Capacity	11	RC	1	0	08VC 15MC	1	0	5.11941814423	221.0	-411.0	217	-413	1
2.7	2015_May_18_1439	s	s	10	1	Capacity	12	ABS	2	0	16VC 08MC	0	1	3.31857585907	None	None	None	None	1
2.7	2015_May_18_1439	s	s	10	1	Capacity	13	RC	1	0	08VC 15MC	1	0	2.5421807766	453.0	-239.0	453	-235	1
2.7	2015_May_18_1439	s	s	10	1	Capacity	14	ABS	1	0	08VC 16MC	0	1	6.01150918007	None	None	None	None	1
2.7	2015_May_18_1439	s	s	10	1	Capacity	15	RC	2	0	15VC 08MC	1	0	0.994761943817	194.0	-202.0	194	-207	1
2.7	2015_May_18_1439	s	s	10	1	Capacity	16	ABS	2	0	16VC 08MC	0	1	5.87280797958	None	None	None	None	1
2.7	2015_May_18_1439	s	s	10	1	Capacity	17	ABS	2	0	16VC 08MC	0	1	4.40843200684	None	None	None	None	1
2.7	2015_May_18_1439	s	s	10	1	Capacity	18	RC	2	0	15VC 08MC	1	0	1.6184630394	142.0	28.0	135	28	1
2.7	2015_May_18_1439	s	s	10	1	Capacity	19	ABS	1	0	08VC 16MC	0	1	3.63652777672	None	None	None	None	1
2.7	2015_May_18_1439	s	s	10	1	Capacity	20	RC	1	0	08VC 15MC	1	0	1.28970718384	-334.0	103.0	-336	104	1
2.7	2015_May_18_1439	s	s	10	1	Capacity	21	RC	1	0	08VC 15MC	1	0	1.55959486961	1.0	395.0	5	399	1
2.7	2015_May_18_1439	s	s	10	1	Capacity	22	ABS	1	0	08VC 16MC	0	1	6.03787779808	None	None	None	None	1
2.7	2015_May_18_1439	s	s	10	1	Capacity	23	ABS	2	0	16VC 08MC	0	1	6.63166093826	None	None	None	None	1
2.7	2015_May_18_1439	s	s	10	1	Capacity	24	RC	2	0	15VC 08MC	1	0	1.50601100922	505.0	292.0	511	299	1
2.7	2015_May_18_1439	s	s	10	1	Capacity	25	RC	1	0	08VC 15MC	1	0	2.30367612839	-432.0	-402.0	-436	-397	1
2.7	2015_May_18_1439	s	s	10	1	Capacity	26	ABS	2	0	16VC 08MC	0	1	4.6465280056	None	None	None	None	1
2.7	2015_May_18_1439	s	s	10	1	Capacity	27	ABS	1	0	08VC 16MC	0	1	4.36628890038	None	None	None	None	1
2.7	2015_May_18_1439	s	s	10	1	Capacity	28	RC	2	0	15VC 08MC	1	0	1.52152395248	288.0	338.0	286	342	1
2.7	2015_May_18_1439	s	s	10	1	Capacity	29	ABS	2	0	16VC 08MC	0	1	3.55416917801	None	None	None	None	1
2.7	2015_May_18_1439	s	s	10	1	Capacity	30	ABS	1	0	08VC 16MC	0	1	3.37750506401	None	None	None	None	1
2.7	2015_May_18_1439	s	s	10	1	Capacity	31	RC	1	0	08VC 15MC	1	0	1.36477994919	322.0	-277.0	321	-283	1
2.7	2015_May_18_1439	s	s	10	1	Capacity	32	RC	2	0	15VC 08MC	1	0	1.22390079498	234.0	170.0	233	172	1
2.7	2015_May_18_1439	s	s	10	1	Capacity	33	RC	1	0	08VC 15MC	1	0	1.37076807022	-378.0	373.0	-379	369	1
2.7	2015_May_18_1439	s	s	10	1	Capacity	34	RC	2	0	15VC 08MC	1	0	4.44866585732	-519.0	136.0	-520	137	1
2.7	2015_May_18_1439	s	s	10	1	Capacity	35	ABS	2	0	16VC 08MC	0	1	4.06606602669	None	None	None	None	1
2.7	2015_May_18_1439	s	s	10	1	Capacity	36	ABS	1	0	08VC 16MC	0	1	5.38793611526	None	None	None	None	1
2.7	2015_May_18_1439	s	s	10	1	Capacity	37	ABS	2	0	16VC 08MC	0	1	2.28990793228	None	None	None	None	1
2.7	2015_May_18_1439	s	s	10	1	Capacity	38	ABS	1	0	08VC 16MC	0	1	4.12479519844	None	None	None	None	1
2.7	2015_May_18_1439	s	s	10	1	Capacity	39	RC	2	0	15VC 08MC	1	0	1.1526799202	226.0	-9.0	229	-5	1
2.7	2015_May_18_1439	s	s	10	1	Capacity	40	RC	1	0	08VC 15MC	1	0	1.15025210381	136.0	-93.0	134	-91	1
2.7	2015_May_18_1439	s	s	10	1	Capacity	41	RC	1	0	08VC 15MC	1	0	1.60010790825	190.0	383.0	195	380	1
2.7	2015_May_18_1439	s	s	10	1	Capacity	42	ABS	1	0	08VC 16MC	0	1	4.06027412415	None	None	None	None	1
2.7	2015_May_18_1439	s	s	10	1	Capacity	43	RC	2	0	15VC 08MC	1	0	0.913447141647	-54.0	313.0	-46	311	1
2.7	2015_May_18_1439	s	s	10	1	Capacity	44	ABS	2	0	16VC 08MC	0	1	6.63798284531	None	None	None	None	1
2.7	2015_May_18_1439	s	s	10	1	Capacity	45	ABS	1	0	08VC 16MC	0	1	4.79913711548	None	None	None	None	1
2.7	2015_May_18_1439	s	s	10	1	Capacity	46	RC	2	0	15VC 08MC	1	0	1.07589101791	78.0	236.0	75	234	1
2.7	2015_May_18_1439	s	s	10	1	Capacity	47	ABS	2	0	16VC 08MC	0	1	1.635242939	None	None	None	None	1
2.7	2015_May_18_1439	s	s	10	1	Capacity	48	RC	1	0	08VC 15MC	1	0	2.05925297737	-15.0	-248.0	-9	-243	1
2.7	2015_May_18_1439	s	s	10	1	Capacity	49	RC	2	0	15VC 08MC	1	0	1.10082197189	-18.0	-37.0	-20	-36	1
2.7	2015_May_18_1439	s	s	10	1	Capacity	50	ABS	1	0	08VC 16MC	0	1	3.39746713638	None	None	None	None	1
2.7	2015_May_18_1439	s	s	10	1	Capacity	51	ABS	2	0	16VC 08MC	0	1	6.67079615593	None	None	None	None	1
2.7	2015_May_18_1439	s	s	10	1	Capacity	52	RC	1	0	08VC 15MC	1	0	1.84731411934	331.0	-154.0	331	-154	1
2.7	2015_May_18_1439	s	s	10	1	Capacity	53	RC	1	0	08VC 15MC	1	0	1.30097103119	512.0	153.0	516	162	1
2.7	2015_May_18_1439	s	s	10	1	Capacity	54	ABS	1	0	08VC 16MC	0	1	5.33146882057	None	None	None	None	1
2.7	2015_May_18_1439	s	s	10	1	Capacity	55	RC	2	0	15VC 08MC	1	0	1.24393892288	192.0	-115.0	186	-110	1
2.7	2015_May_18_1439	s	s	10	1	Capacity	56	ABS	2	0	16VC 08MC	0	1	3.10675907135	None	None	None	None	1
2.7	2015_May_18_1439	s	s	10	1	Capacity	57	ABS	1	0	08VC 16MC	0	1	3.16557693481	None	None	None	None	1
2.7	2015_May_18_1439	s	s	10	1	Capacity	58	RC	1	0	08VC 15MC	1	0	1.71792197227	431.0	249.0	432	252	1
2.7	2015_May_18_1439	s	s	10	1	Capacity	59	ABS	2	0	16VC 08MC	0	1	2.60066199303	None	None	None	None	1
2.7	2015_May_18_1439	s	s	10	1	Capacity	60	RC	2	0	15VC 08MC	1	0	1.54132914543	-453.0	232.0	-451	230	1
2.7	2015_May_18_1439	s	s	10	1	Capacity	61	ABS	2	0	16VC 08MC	0	1	6.30240702629	None	None	None	None	1
2.7	2015_May_18_1439	s	s	10	1	Capacity	62	ABS	1	0	08VC 16MC	0	1	5.7175590992	None	None	None	None	1
2.7	2015_May_18_1439	s	s	10	1	Capacity	63	RC	2	0	15VC 08MC	1	0	0.911576986313	237.0	-192.0	238	-184	1
2.7	2015_May_18_1439	s	s	10	1	Capacity	64	RC	1	0	08VC 15MC	1	0	1.04180693626	89.0	-21.0	93	-20	1
2.7	2015_May_18_1439	s	s	10	1	SIC	1	ABS	0	1	02VD 02VO 02VC 02MD 02MO 02MC 02RD 10RO	0	1	7.54931497574	None	None	None	None	1
2.7	2015_May_18_1439	s	s	10	1	SIC	2	RC	2	2	09VD 02VO 02VC 02MD 02MO 02MC 02RD 02RO	1	0	1.08590888977	-158.0	-45.0	-153	-43	1
2.7	2015_May_18_1439	s	s	10	1	SIC	3	ABS	1	0	02VD 02VO 02VC 02MD 02MO 10MC 02RD 02RO	0	1	5.22039794922	None	None	None	None	1
2.7	2015_May_18_1439	s	s	10	1	SIC	4	ABS	2	1	02VD 10VO 02VC 02MD 02MO 02MC 02RD 02RO	0	1	3.25989580154	None	None	None	None	1
2.7	2015_May_18_1439	s	s	10	1	SIC	5	RC	2	1	02VD 09VO 02VC 02MD 02MO 02MC 02RD 02RO	1	0	1.10311794281	392.0	346.0	386	347	1
2.7	2015_May_18_1439	s	s	10	1	SIC	6	ABS	2	2	10VD 02VO 02VC 02MD 02MO 02MC 02RD 02RO	0	1	3.30312609673	None	None	None	None	1
2.7	2015_May_18_1439	s	s	10	1	SIC	7	RC	1	0	02VD 02VO 02VC 02MD 02MO 09MC 02RD 02RO	1	0	1.06401801109	-68.0	3.0	-60	5	1
2.7	2015_May_18_1439	s	s	10	1	SIC	8	RC	0	1	02VD 02VO 02VC 02MD 02MO 02MC 02RD 09RO	1	0	7.69742393494	492.0	-319.0	499	-316	1
2.7	2015_May_18_1439	s	s	10	1	SIC	9	ABS	2	0	02VD 02VO 10VC 02MD 02MO 02MC 02RD 02RO	0	1	9.03918004036	None	None	None	None	1
2.7	2015_May_18_1439	s	s	10	1	SIC	10	ABS	1	2	02VD 02VO 02VC 10MD 02MO 02MC 02RD 02RO	0	1	3.36262106895	None	None	None	None	1
2.7	2015_May_18_1439	s	s	10	1	SIC	11	RC	2	0	02VD 02VO 09VC 02MD 02MO 02MC 02RD 02RO	1	0	1.81201601028	225.0	-266.0	226	-262	1
2.7	2015_May_18_1439	s	s	10	1	SIC	12	RC	1	1	02VD 02VO 02VC 02MD 09MO 02MC 02RD 02RO	1	0	2.45668816566	-386.0	-164.0	-390	-170	1
2.7	2015_May_18_1439	s	s	10	1	SIC	13	ABS	1	1	02VD 02VO 02VC 02MD 10MO 02MC 02RD 02RO	0	1	7.33247089386	None	None	None	None	1
2.7	2015_May_18_1439	s	s	10	1	SIC	14	ABS	0	2	02VD 02VO 02VC 02MD 02MO 02MC 10RD 02RO	0	1	3.70715880394	None	None	None	None	1
2.7	2015_May_18_1439	s	s	10	1	SIC	15	RC	1	2	02VD 02VO 02VC 09MD 02MO 02MC 02RD 02RO	1	0	1.44461917877	-441.0	108.0	-433	110	1
2.7	2015_May_18_1439	s	s	10	1	SIC	16	RC	0	2	02VD 02VO 02VC 02MD 02MO 02MC 09RD 02RO	1	0	1.46427989006	-32.0	-232.0	-31	-228	1
2.7	2015_May_18_1439	s	s	10	1	SIC	17	ABS	2	1	02VD 10VO 02VC 02MD 02MO 02MC 02RD 02RO	0	1	2.19545102119	None	None	None	None	1
2.7	2015_May_18_1439	s	s	10	1	SIC	18	ABS	1	1	02VD 02VO 02VC 02MD 10MO 02MC 02RD 02RO	0	1	3.94920110703	None	None	None	None	1
2.7	2015_May_18_1439	s	s	10	1	SIC	19	RC	1	1	02VD 02VO 02VC 02MD 09MO 02MC 02RD 02RO	1	0	1.06601595879	-539.0	302.0	-538	296	1
2.7	2015_May_18_1439	s	s	10	1	SIC	20	RC	1	0	02VD 02VO 02VC 02MD 02MO 09MC 02RD 02RO	1	0	1.66630601883	441.0	393.0	442	390	1
2.7	2015_May_18_1439	s	s	10	1	SIC	21	RC	2	2	09VD 02VO 02VC 02MD 02MO 02MC 02RD 02RO	1	0	1.32565379143	-21.0	268.0	-20	265	1
2.7	2015_May_18_1439	s	s	10	1	SIC	22	ABS	2	0	02VD 02VO 10VC 02MD 02MO 02MC 02RD 02RO	0	1	1.78849196434	None	None	None	None	1
2.7	2015_May_18_1439	s	s	10	1	SIC	23	ABS	1	0	02VD 02VO 02VC 02MD 02MO 10MC 02RD 02RO	0	1	3.27148222923	None	None	None	None	1
2.7	2015_May_18_1439	s	s	10	1	SIC	24	ABS	1	2	02VD 02VO 02VC 10MD 02MO 02MC 02RD 02RO	0	1	2.9607770443	None	None	None	None	1
2.7	2015_May_18_1439	s	s	10	1	SIC	25	RC	0	2	02VD 02VO 02VC 02MD 02MO 02MC 09RD 02RO	0	1	3.27870988846	-463.0	-400.0	None	None	0
2.7	2015_May_18_1439	s	s	10	1	SIC	26	RC	2	1	02VD 09VO 02VC 02MD 02MO 02MC 02RD 02RO	1	0	2.45115709305	502.0	-318.0	500	-318	1
2.7	2015_May_18_1439	s	s	10	1	SIC	27	ABS	2	2	10VD 02VO 02VC 02MD 02MO 02MC 02RD 02RO	0	1	1.75012278557	None	None	None	None	1
2.7	2015_May_18_1439	s	s	10	1	SIC	28	ABS	0	1	02VD 02VO 02VC 02MD 02MO 02MC 02RD 10RO	0	1	4.24867200851	None	None	None	None	1
2.7	2015_May_18_1439	s	s	10	1	SIC	29	RC	1	2	02VD 02VO 02VC 09MD 02MO 02MC 02RD 02RO	1	0	4.10185313225	-481.0	-237.0	-478	-228	1
2.7	2015_May_18_1439	s	s	10	1	SIC	30	ABS	0	2	02VD 02VO 02VC 02MD 02MO 02MC 10RD 02RO	0	1	2.6717979908	None	None	None	None	1
2.7	2015_May_18_1439	s	s	10	1	SIC	31	RC	2	0	02VD 02VO 09VC 02MD 02MO 02MC 02RD 02RO	0	1	2.88351392746	-344.0	-55.0	None	None	0
2.7	2015_May_18_1439	s	s	10	1	SIC	32	RC	0	1	02VD 02VO 02VC 02MD 02MO 02MC 02RD 09RO	1	0	6.1999540329	462.0	-240.0	467	-239	1
2.7	2015_May_18_1439	s	s	10	1	SIC	33	RC	1	2	02VD 02VO 02VC 09MD 02MO 02MC 02RD 02RO	1	0	2.3417339325	289.0	-370.0	286	-368	1
2.7	2015_May_18_1439	s	s	10	1	SIC	34	RC	2	1	02VD 09VO 02VC 02MD 02MO 02MC 02RD 02RO	1	0	1.78282999992	-138.0	-284.0	-137	-284	1
2.7	2015_May_18_1439	s	s	10	1	SIC	35	RC	2	2	09VD 02VO 02VC 02MD 02MO 02MC 02RD 02RO	1	0	2.0089571476	348.0	361.0	345	364	1
2.7	2015_May_18_1439	s	s	10	1	SIC	36	ABS	1	0	02VD 02VO 02VC 02MD 02MO 10MC 02RD 02RO	0	1	4.82534790039	None	None	None	None	1
2.7	2015_May_18_1439	s	s	10	1	SIC	37	ABS	2	2	10VD 02VO 02VC 02MD 02MO 02MC 02RD 02RO	0	1	4.38623595238	None	None	None	None	1
2.7	2015_May_18_1439	s	s	10	1	SIC	38	RC	0	1	02VD 02VO 02VC 02MD 02MO 02MC 02RD 09RO	1	0	2.96043205261	-145.0	-112.0	-145	-114	1
2.7	2015_May_18_1439	s	s	10	1	SIC	39	RC	0	2	02VD 02VO 02VC 02MD 02MO 02MC 09RD 02RO	1	0	1.60017204285	152.0	376.0	149	371	1
2.7	2015_May_18_1439	s	s	10	1	SIC	40	RC	1	1	02VD 02VO 02VC 02MD 09MO 02MC 02RD 02RO	1	0	1.12931704521	267.0	402.0	269	406	1
2.7	2015_May_18_1439	s	s	10	1	SIC	41	ABS	1	2	02VD 02VO 02VC 10MD 02MO 02MC 02RD 02RO	0	1	3.17238783836	None	None	None	None	1
2.7	2015_May_18_1439	s	s	10	1	SIC	42	ABS	0	2	02VD 02VO 02VC 02MD 02MO 02MC 10RD 02RO	0	1	6.08201408386	None	None	None	None	1
2.7	2015_May_18_1439	s	s	10	1	SIC	43	ABS	0	1	02VD 02VO 02VC 02MD 02MO 02MC 02RD 10RO	0	1	4.59002709389	None	None	None	None	1
2.7	2015_May_18_1439	s	s	10	1	SIC	44	ABS	1	1	02VD 02VO 02VC 02MD 10MO 02MC 02RD 02RO	0	1	4.58998799324	None	None	None	None	1
2.7	2015_May_18_1439	s	s	10	1	SIC	45	RC	2	0	02VD 02VO 09VC 02MD 02MO 02MC 02RD 02RO	1	0	1.45315599442	143.0	22.0	145	21	1
2.7	2015_May_18_1439	s	s	10	1	SIC	46	ABS	2	1	02VD 10VO 02VC 02MD 02MO 02MC 02RD 02RO	0	1	3.03984689713	None	None	None	None	1
2.7	2015_May_18_1439	s	s	10	1	SIC	47	RC	1	0	02VD 02VO 02VC 02MD 02MO 09MC 02RD 02RO	1	0	2.74197006226	85.0	-29.0	87	-29	1
2.7	2015_May_18_1439	s	s	10	1	SIC	48	ABS	2	0	02VD 02VO 10VC 02MD 02MO 02MC 02RD 02RO	0	1	4.31933689117	None	None	None	None	1
2.7	2015_May_18_1439	s	s	10	1	SIC	49	RC	1	2	02VD 02VO 02VC 09MD 02MO 02MC 02RD 02RO	1	0	2.32994103432	444.0	103.0	444	104	1
2.7	2015_May_18_1439	s	s	10	1	SIC	50	RC	2	2	09VD 02VO 02VC 02MD 02MO 02MC 02RD 02RO	1	0	8.91890001297	-8.0	-126.0	-10	-134	1
2.7	2015_May_18_1439	s	s	10	1	SIC	51	ABS	2	0	02VD 02VO 10VC 02MD 02MO 02MC 02RD 02RO	0	1	3.32658910751	None	None	None	None	1
2.7	2015_May_18_1439	s	s	10	1	SIC	52	ABS	0	2	02VD 02VO 02VC 02MD 02MO 02MC 10RD 02RO	0	1	1.96491312981	None	None	None	None	1
2.7	2015_May_18_1439	s	s	10	1	SIC	53	RC	0	2	02VD 02VO 02VC 02MD 02MO 02MC 09RD 02RO	1	0	7.07355093956	-508.0	245.0	-514	246	1
2.7	2015_May_18_1439	s	s	10	1	SIC	54	RC	2	1	02VD 09VO 02VC 02MD 02MO 02MC 02RD 02RO	0	1	2.16188716888	9.0	315.0	None	None	0
2.7	2015_May_18_1439	s	s	10	1	SIC	55	RC	2	0	02VD 02VO 09VC 02MD 02MO 02MC 02RD 02RO	1	0	1.85908699036	393.0	141.0	398	143	1
2.7	2015_May_18_1439	s	s	10	1	SIC	56	ABS	2	2	10VD 02VO 02VC 02MD 02MO 02MC 02RD 02RO	0	1	2.42148900032	None	None	None	None	1
2.7	2015_May_18_1439	s	s	10	1	SIC	57	RC	1	0	02VD 02VO 02VC 02MD 02MO 09MC 02RD 02RO	1	0	2.14150905609	-383.0	267.0	-388	259	1
2.7	2015_May_18_1439	s	s	10	1	SIC	58	RC	0	1	02VD 02VO 02VC 02MD 02MO 02MC 02RD 09RO	1	0	3.22453403473	190.0	-25.0	188	-22	1
2.7	2015_May_18_1439	s	s	10	1	SIC	59	ABS	1	1	02VD 02VO 02VC 02MD 10MO 02MC 02RD 02RO	0	1	5.95056200027	None	None	None	None	1
2.7	2015_May_18_1439	s	s	10	1	SIC	60	ABS	1	2	02VD 02VO 02VC 10MD 02MO 02MC 02RD 02RO	0	1	2.89498186111	None	None	None	None	1
2.7	2015_May_18_1439	s	s	10	1	SIC	61	ABS	0	1	02VD 02VO 02VC 02MD 02MO 02MC 02RD 10RO	0	1	2.54996705055	None	None	None	None	1
2.7	2015_May_18_1439	s	s	10	1	SIC	62	RC	1	1	02VD 02VO 02VC 02MD 09MO 02MC 02RD 02RO	1	0	5.57531309128	514.0	-214.0	516	-214	1
2.7	2015_May_18_1439	s	s	10	1	SIC	63	ABS	1	0	02VD 02VO 02VC 02MD 02MO 10MC 02RD 02RO	0	1	3.47859597206	None	None	None	None	1
2.7	2015_May_18_1439	s	s	10	1	SIC	64	ABS	2	1	02VD 10VO 02VC 02MD 02MO 02MC 02RD 02RO	0	1	5.03157186508	None	None	None	None	1
2.7	2015_May_18_1439	s	s	10	1	SIC	65	ABS	0	1	02VD 02VO 02VC 02MD 02MO 02MC 02RD 10RO	0	1	6.37914609909	None	None	None	None	1
2.7	2015_May_18_1439	s	s	10	1	SIC	66	RC	0	1	02VD 02VO 02VC 02MD 02MO 02MC 02RD 09RO	1	0	2.12479805946	-156.0	398.0	-161	400	1
2.7	2015_May_18_1439	s	s	10	1	SIC	67	RC	0	2	02VD 02VO 02VC 02MD 02MO 02MC 09RD 02RO	1	0	3.43298387527	-233.0	-25.0	-231	-27	1
2.7	2015_May_18_1439	s	s	10	1	SIC	68	RC	2	0	02VD 02VO 09VC 02MD 02MO 02MC 02RD 02RO	1	0	3.74916601181	-514.0	-160.0	-520	-154	1
2.7	2015_May_18_1439	s	s	10	1	SIC	69	RC	1	1	02VD 02VO 02VC 02MD 09MO 02MC 02RD 02RO	1	0	2.87766289711	-53.0	-368.0	-60	-366	1
2.7	2015_May_18_1439	s	s	10	1	SIC	70	RC	2	1	02VD 09VO 02VC 02MD 02MO 02MC 02RD 02RO	1	0	2.12986779213	-18.0	-40.0	-15	-44	1
2.7	2015_May_18_1439	s	s	10	1	SIC	71	ABS	1	1	02VD 02VO 02VC 02MD 10MO 02MC 02RD 02RO	0	1	3.71874809265	None	None	None	None	1
2.7	2015_May_18_1439	s	s	10	1	SIC	72	RC	2	2	09VD 02VO 02VC 02MD 02MO 02MC 02RD 02RO	0	1	2.60068488121	-237.0	-124.0	None	None	0
2.7	2015_May_18_1439	s	s	10	1	SIC	73	ABS	1	0	02VD 02VO 02VC 02MD 02MO 10MC 02RD 02RO	0	1	4.29559779167	None	None	None	None	1
2.7	2015_May_18_1439	s	s	10	1	SIC	74	ABS	2	1	02VD 10VO 02VC 02MD 02MO 02MC 02RD 02RO	0	1	1.95325994492	None	None	None	None	1
2.7	2015_May_18_1439	s	s	10	1	SIC	75	RC	1	0	02VD 02VO 02VC 02MD 02MO 09MC 02RD 02RO	1	0	1.3647518158	-62.0	-20.0	-55	-17	1
2.7	2015_May_18_1439	s	s	10	1	SIC	76	RC	1	2	02VD 02VO 02VC 09MD 02MO 02MC 02RD 02RO	1	0	5.72557401657	-311.0	-127.0	-305	-126	1
2.7	2015_May_18_1439	s	s	10	1	SIC	77	ABS	0	2	02VD 02VO 02VC 02MD 02MO 02MC 10RD 02RO	0	1	2.58886599541	None	None	None	None	1
2.7	2015_May_18_1439	s	s	10	1	SIC	78	ABS	1	2	02VD 02VO 02VC 10MD 02MO 02MC 02RD 02RO	0	1	2.58893299103	None	None	None	None	1
2.7	2015_May_18_1439	s	s	10	1	SIC	79	ABS	2	2	10VD 02VO 02VC 02MD 02MO 02MC 02RD 02RO	0	1	4.878221035	None	None	None	None	1
2.7	2015_May_18_1439	s	s	10	1	SIC	80	ABS	2	0	02VD 02VO 10VC 02MD 02MO 02MC 02RD 02RO	0	1	2.46618795395	None	None	None	None	1
2.7	2015_May_18_1439	s	s	10	1	SIC	81	ABS	0	1	02VD 02VO 02VC 02MD 02MO 02MC 02RD 10RO	0	1	0.148832082748	None	None	None	None	1
2.7	2015_May_18_1439	s	s	10	1	SIC	82	RC	1	0	02VD 02VO 02VC 02MD 02MO 09MC 02RD 02RO	1	0	3.68953800201	182.0	239.0	179	245	1
2.7	2015_May_18_1439	s	s	10	1	SIC	83	ABS	1	2	02VD 02VO 02VC 10MD 02MO 02MC 02RD 02RO	0	1	2.9185590744	None	None	None	None	1
2.7	2015_May_18_1439	s	s	10	1	SIC	84	ABS	2	0	02VD 02VO 10VC 02MD 02MO 02MC 02RD 02RO	0	1	6.28103995323	None	None	None	None	1
2.7	2015_May_18_1439	s	s	10	1	SIC	85	ABS	2	2	10VD 02VO 02VC 02MD 02MO 02MC 02RD 02RO	0	1	3.53905510902	None	None	None	None	1
2.7	2015_May_18_1439	s	s	10	1	SIC	86	RC	0	1	02VD 02VO 02VC 02MD 02MO 02MC 02RD 09RO	1	0	3.28949308395	509.0	-160.0	507	-157	1
2.7	2015_May_18_1439	s	s	10	1	SIC	87	RC	1	2	02VD 02VO 02VC 09MD 02MO 02MC 02RD 02RO	1	0	2.38871622086	16.0	-71.0	18	-76	1
2.7	2015_May_18_1439	s	s	10	1	SIC	88	ABS	1	1	02VD 02VO 02VC 02MD 10MO 02MC 02RD 02RO	0	1	6.33907008171	None	None	None	None	1
2.7	2015_May_18_1439	s	s	10	1	SIC	89	ABS	0	2	02VD 02VO 02VC 02MD 02MO 02MC 10RD 02RO	0	1	7.70338582993	None	None	None	None	1
2.7	2015_May_18_1439	s	s	10	1	SIC	90	ABS	2	1	02VD 10VO 02VC 02MD 02MO 02MC 02RD 02RO	0	1	6.85841798782	None	None	None	None	1
2.7	2015_May_18_1439	s	s	10	1	SIC	91	RC	2	1	02VD 09VO 02VC 02MD 02MO 02MC 02RD 02RO	1	0	12.3622231483	-378.0	138.0	-376	143	1
2.7	2015_May_18_1439	s	s	10	1	SIC	92	ABS	1	0	02VD 02VO 02VC 02MD 02MO 10MC 02RD 02RO	0	1	9.41586494446	None	None	None	None	1
2.7	2015_May_18_1439	s	s	10	1	SIC	93	RC	1	1	02VD 02VO 02VC 02MD 09MO 02MC 02RD 02RO	1	0	5.85314488411	426.0	15.0	425	11	1
2.7	2015_May_18_1439	s	s	10	1	SIC	94	RC	0	2	02VD 02VO 02VC 02MD 02MO 02MC 09RD 02RO	1	0	5.31534409523	140.0	-195.0	143	-193	1
2.7	2015_May_18_1439	s	s	10	1	SIC	95	RC	2	0	02VD 02VO 09VC 02MD 02MO 02MC 02RD 02RO	1	0	3.49564790726	-138.0	16.0	-137	15	1
2.7	2015_May_18_1439	s	s	10	1	SIC	96	RC	2	2	09VD 02VO 02VC 02MD 02MO 02MC 02RD 02RO	1	0	1.29383206367	-370.0	-242.0	-375	-243	1
2.7	2015_May_18_1439	s	s	10	1	SIC	97	RC	2	0	02VD 02VO 09VC 02MD 02MO 02MC 02RD 02RO	1	0	1.60909509659	266.0	202.0	269	210	1
2.7	2015_May_18_1439	s	s	10	1	SIC	98	RC	0	2	02VD 02VO 02VC 02MD 02MO 02MC 09RD 02RO	1	0	1.55767607689	179.0	382.0	181	381	1
2.7	2015_May_18_1439	s	s	10	1	SIC	99	ABS	2	1	02VD 10VO 02VC 02MD 02MO 02MC 02RD 02RO	0	1	2.41919088364	None	None	None	None	1
2.7	2015_May_18_1439	s	s	10	1	SIC	100	ABS	2	0	02VD 02VO 10VC 02MD 02MO 02MC 02RD 02RO	0	1	4.23681497574	None	None	None	None	1
2.7	2015_May_18_1439	s	s	10	1	SIC	101	RC	2	1	02VD 09VO 02VC 02MD 02MO 02MC 02RD 02RO	1	0	2.07781219482	526.0	-288.0	528	-287	1
2.7	2015_May_18_1439	s	s	10	1	SIC	102	RC	2	2	09VD 02VO 02VC 02MD 02MO 02MC 02RD 02RO	1	0	1.79742288589	10.0	318.0	14	321	1
2.7	2015_May_18_1439	s	s	10	1	SIC	103	ABS	0	2	02VD 02VO 02VC 02MD 02MO 02MC 10RD 02RO	0	1	4.11899805069	None	None	None	None	1
2.7	2015_May_18_1439	s	s	10	1	SIC	104	RC	1	0	02VD 02VO 02VC 02MD 02MO 09MC 02RD 02RO	1	0	2.23564100266	-264.0	206.0	-270	199	1
2.7	2015_May_18_1439	s	s	10	1	SIC	105	ABS	1	0	02VD 02VO 02VC 02MD 02MO 10MC 02RD 02RO	0	1	3.29522299767	None	None	None	None	1
2.7	2015_May_18_1439	s	s	10	1	SIC	106	ABS	1	1	02VD 02VO 02VC 02MD 10MO 02MC 02RD 02RO	0	1	3.71627998352	None	None	None	None	1
2.7	2015_May_18_1439	s	s	10	1	SIC	107	ABS	0	1	02VD 02VO 02VC 02MD 02MO 02MC 02RD 10RO	0	1	6.68246889114	None	None	None	None	1
2.7	2015_May_18_1439	s	s	10	1	SIC	108	RC	1	1	02VD 02VO 02VC 02MD 09MO 02MC 02RD 02RO	1	0	3.13865709305	-319.0	278.0	-320	277	1
2.7	2015_May_18_1439	s	s	10	1	SIC	109	RC	1	2	02VD 02VO 02VC 09MD 02MO 02MC 02RD 02RO	1	0	2.37702298164	-228.0	395.0	-227	395	1
2.7	2015_May_18_1439	s	s	10	1	SIC	110	RC	0	1	02VD 02VO 02VC 02MD 02MO 02MC 02RD 09RO	1	0	6.24461197853	-387.0	76.0	-387	71	1
2.7	2015_May_18_1439	s	s	10	1	SIC	111	ABS	2	2	10VD 02VO 02VC 02MD 02MO 02MC 02RD 02RO	0	1	2.87150096893	None	None	None	None	1
2.7	2015_May_18_1439	s	s	10	1	SIC	112	ABS	1	2	02VD 02VO 02VC 10MD 02MO 02MC 02RD 02RO	0	1	2.85958886147	None	None	None	None	1
2.7	2015_May_18_1439	s	s	10	1	SIC	113	ABS	1	0	02VD 02VO 02VC 02MD 02MO 10MC 02RD 02RO	0	1	6.07323503494	None	None	None	None	1
2.7	2015_May_18_1439	s	s	10	1	SIC	114	RC	1	0	02VD 02VO 02VC 02MD 02MO 09MC 02RD 02RO	1	0	2.64781594276	494.0	391.0	486	392	1
2.7	2015_May_18_1439	s	s	10	1	SIC	115	RC	2	1	02VD 09VO 02VC 02MD 02MO 02MC 02RD 02RO	1	0	2.65466499329	167.0	302.0	167	301	1
2.7	2015_May_18_1439	s	s	10	1	SIC	116	RC	0	2	02VD 02VO 02VC 02MD 02MO 02MC 09RD 02RO	1	0	1.3999941349	276.0	97.0	276	94	1
2.7	2015_May_18_1439	s	s	10	1	SIC	117	ABS	2	2	10VD 02VO 02VC 02MD 02MO 02MC 02RD 02RO	0	1	4.58991289139	None	None	None	None	1
2.7	2015_May_18_1439	s	s	10	1	SIC	118	RC	2	2	09VD 02VO 02VC 02MD 02MO 02MC 02RD 02RO	1	0	1.61881709099	368.0	378.0	366	383	1
2.7	2015_May_18_1439	s	s	10	1	SIC	119	RC	2	0	02VD 02VO 09VC 02MD 02MO 02MC 02RD 02RO	1	0	5.61396288872	-181.0	308.0	-176	311	1
2.7	2015_May_18_1439	s	s	10	1	SIC	120	ABS	1	2	02VD 02VO 02VC 10MD 02MO 02MC 02RD 02RO	0	1	2.77174091339	None	None	None	None	1
2.7	2015_May_18_1439	s	s	10	1	SIC	121	ABS	1	1	02VD 02VO 02VC 02MD 10MO 02MC 02RD 02RO	0	1	6.34376811981	None	None	None	None	1
2.7	2015_May_18_1439	s	s	10	1	SIC	122	ABS	0	1	02VD 02VO 02VC 02MD 02MO 02MC 02RD 10RO	0	1	8.04494810104	None	None	None	None	1
2.7	2015_May_18_1439	s	s	10	1	SIC	123	ABS	0	2	02VD 02VO 02VC 02MD 02MO 02MC 10RD 02RO	0	1	5.65834999084	None	None	None	None	1
2.7	2015_May_18_1439	s	s	10	1	SIC	124	ABS	2	1	02VD 10VO 02VC 02MD 02MO 02MC 02RD 02RO	0	1	5.29089784622	None	None	None	None	1
2.7	2015_May_18_1439	s	s	10	1	SIC	125	RC	1	2	02VD 02VO 02VC 09MD 02MO 02MC 02RD 02RO	1	0	3.0126619339	94.0	199.0	87	195	1
2.7	2015_May_18_1439	s	s	10	1	SIC	126	ABS	2	0	02VD 02VO 10VC 02MD 02MO 02MC 02RD 02RO	0	1	4.37277197838	None	None	None	None	1
2.7	2015_May_18_1439	s	s	10	1	SIC	127	RC	0	1	02VD 02VO 02VC 02MD 02MO 02MC 02RD 09RO	1	0	4.53827691078	-207.0	-33.0	-205	-28	1
2.7	2015_May_18_1439	s	s	10	1	SIC	128	RC	1	1	02VD 02VO 02VC 02MD 09MO 02MC 02RD 02RO	1	0	3.47170996666	369.0	-179.0	372	-182	1
2.7	2015_May_18_1439	s	s	10	1	SIC	129	RC	0	1	02VD 02VO 02VC 02MD 02MO 02MC 02RD 09RO	1	0	16.7577328682	118.0	339.0	121	339	1
2.7	2015_May_18_1439	s	s	10	1	SIC	130	ABS	0	2	02VD 02VO 02VC 02MD 02MO 02MC 10RD 02RO	0	1	2.32991909981	None	None	None	None	1
2.7	2015_May_18_1439	s	s	10	1	SIC	131	ABS	2	2	10VD 02VO 02VC 02MD 02MO 02MC 02RD 02RO	0	1	1.59438300133	None	None	None	None	1
2.7	2015_May_18_1439	s	s	10	1	SIC	132	RC	1	0	02VD 02VO 02VC 02MD 02MO 09MC 02RD 02RO	1	0	1.65401005745	107.0	-238.0	107	-237	1
2.7	2015_May_18_1439	s	s	10	1	SIC	133	RC	2	2	09VD 02VO 02VC 02MD 02MO 02MC 02RD 02RO	1	0	1.77671790123	231.0	277.0	232	269	1
2.7	2015_May_18_1439	s	s	10	1	SIC	134	ABS	0	1	02VD 02VO 02VC 02MD 02MO 02MC 02RD 10RO	0	1	4.97551584244	None	None	None	None	1
2.7	2015_May_18_1439	s	s	10	1	SIC	135	RC	1	2	02VD 02VO 02VC 09MD 02MO 02MC 02RD 02RO	1	0	4.30381202698	268.0	77.0	276	75	1
2.7	2015_May_18_1439	s	s	10	1	SIC	136	RC	1	1	02VD 02VO 02VC 02MD 09MO 02MC 02RD 02RO	1	0	1.96508598328	-371.0	288.0	-365	291	1
2.7	2015_May_18_1439	s	s	10	1	SIC	137	ABS	2	1	02VD 10VO 02VC 02MD 02MO 02MC 02RD 02RO	0	1	3.02439403534	None	None	None	None	1
2.7	2015_May_18_1439	s	s	10	1	SIC	138	ABS	1	0	02VD 02VO 02VC 02MD 02MO 10MC 02RD 02RO	0	1	3.60694098473	None	None	None	None	1
2.7	2015_May_18_1439	s	s	10	1	SIC	139	ABS	1	1	02VD 02VO 02VC 02MD 10MO 02MC 02RD 02RO	0	1	3.46644878387	None	None	None	None	1
2.7	2015_May_18_1439	s	s	10	1	SIC	140	RC	2	0	02VD 02VO 09VC 02MD 02MO 02MC 02RD 02RO	1	0	1.22342896461	-283.0	383.0	-282	381	1
2.7	2015_May_18_1439	s	s	10	1	SIC	141	RC	0	2	02VD 02VO 02VC 02MD 02MO 02MC 09RD 02RO	1	0	1.03240895271	510.0	13.0	-85	-257	0
2.7	2015_May_18_1439	s	s	10	1	SIC	142	ABS	2	0	02VD 02VO 10VC 02MD 02MO 02MC 02RD 02RO	0	1	4.54019904137	None	None	None	None	1
2.7	2015_May_18_1439	s	s	10	1	SIC	143	ABS	1	2	02VD 02VO 02VC 10MD 02MO 02MC 02RD 02RO	0	1	4.09118294716	None	None	None	None	1
2.7	2015_May_18_1439	s	s	10	1	SIC	144	RC	2	1	02VD 09VO 02VC 02MD 02MO 02MC 02RD 02RO	1	0	1.8065841198	-339.0	392.0	-340	395	1
2.7	2015_May_18_1439	s	s	10	1	SIC	145	ABS	0	2	02VD 02VO 02VC 02MD 02MO 02MC 10RD 02RO	0	1	3.9606320858	None	None	None	None	1
2.7	2015_May_18_1439	s	s	10	1	SIC	146	RC	1	0	02VD 02VO 02VC 02MD 02MO 09MC 02RD 02RO	1	0	11.0755610466	-95.0	-301.0	-99	-303	1
2.7	2015_May_18_1439	s	s	10	1	SIC	147	RC	0	2	02VD 02VO 02VC 02MD 02MO 02MC 09RD 02RO	1	0	2.32997298241	505.0	-199.0	509	-193	1
2.7	2015_May_18_1439	s	s	10	1	SIC	148	ABS	0	1	02VD 02VO 02VC 02MD 02MO 02MC 02RD 10RO	0	1	7.279692173	None	None	None	None	1
2.7	2015_May_18_1439	s	s	10	1	SIC	149	RC	2	2	09VD 02VO 02VC 02MD 02MO 02MC 02RD 02RO	1	0	6.02589201927	-81.0	-185.0	-82	-192	1
2.7	2015_May_18_1439	s	s	10	1	SIC	150	ABS	1	1	02VD 02VO 02VC 02MD 10MO 02MC 02RD 02RO	0	1	10.9268591404	None	None	None	None	1
2.7	2015_May_18_1439	s	s	10	1	SIC	151	RC	0	1	02VD 02VO 02VC 02MD 02MO 02MC 02RD 09RO	1	0	6.8616938591	-399.0	258.0	-395	260	1
2.7	2015_May_18_1439	s	s	10	1	SIC	152	ABS	1	2	02VD 02VO 02VC 10MD 02MO 02MC 02RD 02RO	0	1	3.51271915436	None	None	None	None	1
2.7	2015_May_18_1439	s	s	10	1	SIC	153	RC	2	0	02VD 02VO 09VC 02MD 02MO 02MC 02RD 02RO	1	0	1.57673978806	-106.0	9.0	-101	11	1
2.7	2015_May_18_1439	s	s	10	1	SIC	154	ABS	2	2	10VD 02VO 02VC 02MD 02MO 02MC 02RD 02RO	0	1	3.54237008095	None	None	None	None	1
2.7	2015_May_18_1439	s	s	10	1	SIC	155	RC	1	1	02VD 02VO 02VC 02MD 09MO 02MC 02RD 02RO	1	0	4.1426410675	-401.0	234.0	-400	235	1
2.7	2015_May_18_1439	s	s	10	1	SIC	156	RC	2	1	02VD 09VO 02VC 02MD 02MO 02MC 02RD 02RO	1	0	5.63759899139	-164.0	-350.0	-174	-352	1
2.7	2015_May_18_1439	s	s	10	1	SIC	157	ABS	2	0	02VD 02VO 10VC 02MD 02MO 02MC 02RD 02RO	0	1	9.30994009972	None	None	None	None	1
2.7	2015_May_18_1439	s	s	10	1	SIC	158	ABS	1	0	02VD 02VO 02VC 02MD 02MO 10MC 02RD 02RO	0	1	4.89043307304	None	None	None	None	1
2.7	2015_May_18_1439	s	s	10	1	SIC	159	RC	1	2	02VD 02VO 02VC 09MD 02MO 02MC 02RD 02RO	1	0	3.92741179466	-107.0	-327.0	-103	-337	1
2.7	2015_May_18_1439	s	s	10	1	SIC	160	ABS	2	1	02VD 10VO 02VC 02MD 02MO 02MC 02RD 02RO	0	1	4.29118180275	None	None	None	None	1
2.7	2015_May_18_1439	s	s	10	1	SIC	161	RC	2	0	02VD 02VO 09VC 02MD 02MO 02MC 02RD 02RO	1	0	1.92980909348	-175.0	-21.0	-183	-14	1
2.7	2015_May_18_1439	s	s	10	1	SIC	162	ABS	1	2	02VD 02VO 02VC 10MD 02MO 02MC 02RD 02RO	0	1	3.20101904869	None	None	None	None	1
2.7	2015_May_18_1439	s	s	10	1	SIC	163	RC	0	1	02VD 02VO 02VC 02MD 02MO 02MC 02RD 09RO	1	0	4.17793488503	211.0	399.0	210	395	1
2.7	2015_May_18_1439	s	s	10	1	SIC	164	RC	1	0	02VD 02VO 02VC 02MD 02MO 09MC 02RD 02RO	1	0	1.81204891205	-142.0	-185.0	-137	-182	1
2.7	2015_May_18_1439	s	s	10	1	SIC	165	ABS	1	0	02VD 02VO 02VC 02MD 02MO 10MC 02RD 02RO	0	1	3.60114693642	None	None	None	None	1
2.7	2015_May_18_1439	s	s	10	1	SIC	166	RC	1	1	02VD 02VO 02VC 02MD 09MO 02MC 02RD 02RO	1	0	2.43587112427	300.0	-301.0	303	-299	1
2.7	2015_May_18_1439	s	s	10	1	SIC	167	RC	2	2	09VD 02VO 02VC 02MD 02MO 02MC 02RD 02RO	0	1	19.2063519955	-515.0	-181.0	None	None	0
2.7	2015_May_18_1439	s	s	10	1	SIC	168	ABS	2	2	10VD 02VO 02VC 02MD 02MO 02MC 02RD 02RO	0	1	8.99207901955	None	None	None	None	1
2.7	2015_May_18_1439	s	s	10	1	SIC	169	ABS	2	0	02VD 02VO 10VC 02MD 02MO 02MC 02RD 02RO	0	1	4.25776100159	None	None	None	None	1
2.7	2015_May_18_1439	s	s	10	1	SIC	170	RC	0	2	02VD 02VO 02VC 02MD 02MO 02MC 09RD 02RO	1	0	4.1073448658	333.0	160.0	329	158	1
2.7	2015_May_18_1439	s	s	10	1	SIC	171	RC	1	2	02VD 02VO 02VC 09MD 02MO 02MC 02RD 02RO	1	0	2.57698988914	-147.0	-43.0	-143	-50	1
2.7	2015_May_18_1439	s	s	10	1	SIC	172	RC	2	1	02VD 09VO 02VC 02MD 02MO 02MC 02RD 02RO	0	0	-1	-149.0	-244.0	None	None	-1
2.7	2015_May_18_1439	s	s	10	1	SIC	173	ABS	2	1	02VD 10VO 02VC 02MD 02MO 02MC 02RD 02RO	0	1	3.55036902428	None	None	None	None	1
2.7	2015_May_18_1439	s	s	10	1	SIC	174	ABS	0	2	02VD 02VO 02VC 02MD 02MO 02MC 10RD 02RO	0	1	2.87777400017	None	None	None	None	1
2.7	2015_May_18_1439	s	s	10	1	SIC	175	ABS	0	1	02VD 02VO 02VC 02MD 02MO 02MC 02RD 10RO	0	1	4.62528705597	None	None	None	None	1
2.7	2015_May_18_1439	s	s	10	1	SIC	176	ABS	1	1	02VD 02VO 02VC 02MD 10MO 02MC 02RD 02RO	0	1	4.9200630188	None	None	None	None	1
2.7	2015_May_18_1439	s	s	10	1	SIC	177	ABS	2	2	10VD 02VO 02VC 02MD 02MO 02MC 02RD 02RO	0	1	2.87951183319	None	None	None	None	1
2.7	2015_May_18_1439	s	s	10	1	SIC	178	ABS	2	0	02VD 02VO 10VC 02MD 02MO 02MC 02RD 02RO	0	1	3.78999519348	None	None	None	None	1
2.7	2015_May_18_1439	s	s	10	1	SIC	179	RC	0	2	02VD 02VO 02VC 02MD 02MO 02MC 09RD 02RO	1	0	2.9863550663	-28.0	-316.0	-28	-317	1
2.7	2015_May_18_1439	s	s	10	1	SIC	180	ABS	1	2	02VD 02VO 02VC 10MD 02MO 02MC 02RD 02RO	0	1	4.86756205559	None	None	None	None	1
2.7	2015_May_18_1439	s	s	10	1	SIC	181	RC	1	1	02VD 02VO 02VC 02MD 09MO 02MC 02RD 02RO	1	0	3.39778995514	-441.0	-217.0	-445	-214	1
2.7	2015_May_18_1439	s	s	10	1	SIC	182	RC	0	1	02VD 02VO 02VC 02MD 02MO 02MC 02RD 09RO	1	0	2.27111577988	-165.0	387.0	-165	371	1
2.7	2015_May_18_1439	s	s	10	1	SIC	183	ABS	1	0	02VD 02VO 02VC 02MD 02MO 10MC 02RD 02RO	0	1	4.10148692131	None	None	None	None	1
2.7	2015_May_18_1439	s	s	10	1	SIC	184	RC	2	2	09VD 02VO 02VC 02MD 02MO 02MC 02RD 02RO	1	0	1.40934896469	-184.0	-278.0	-182	-281	1
2.7	2015_May_18_1439	s	s	10	1	SIC	185	RC	1	0	02VD 02VO 02VC 02MD 02MO 09MC 02RD 02RO	1	0	1.71778202057	12.0	282.0	13	287	1
2.7	2015_May_18_1439	s	s	10	1	SIC	186	RC	1	2	02VD 02VO 02VC 09MD 02MO 02MC 02RD 02RO	1	0	3.6222140789	539.0	409.0	535	410	1
2.7	2015_May_18_1439	s	s	10	1	SIC	187	ABS	0	2	02VD 02VO 02VC 02MD 02MO 02MC 10RD 02RO	0	1	2.50083780289	None	None	None	None	1
2.7	2015_May_18_1439	s	s	10	1	SIC	188	ABS	2	1	02VD 10VO 02VC 02MD 02MO 02MC 02RD 02RO	0	1	1.68951511383	None	None	None	None	1
2.7	2015_May_18_1439	s	s	10	1	SIC	189	RC	2	1	02VD 09VO 02VC 02MD 02MO 02MC 02RD 02RO	1	0	2.01208209991	-145.0	107.0	-144	105	1
2.7	2015_May_18_1439	s	s	10	1	SIC	190	ABS	1	1	02VD 02VO 02VC 02MD 10MO 02MC 02RD 02RO	0	1	3.32536482811	None	None	None	None	1
2.7	2015_May_18_1439	s	s	10	1	SIC	191	ABS	0	1	02VD 02VO 02VC 02MD 02MO 02MC 02RD 10RO	0	1	2.63603806496	None	None	None	None	1
2.7	2015_May_18_1439	s	s	10	1	SIC	192	RC	2	0	02VD 02VO 09VC 02MD 02MO 02MC 02RD 02RO	0	1	2.18336391449	-481.0	13.0	None	None	0
2.7	2015_May_18_1439	s	s	10	1	SIC	193	ABS	1	1	02VD 02VO 02VC 02MD 10MO 02MC 02RD 02RO	0	1	1.16242098808	None	None	None	None	1
2.7	2015_May_18_1439	s	s	10	1	SIC	194	RC	1	1	02VD 02VO 02VC 02MD 09MO 02MC 02RD 02RO	1	0	2.39699292183	-186.0	-256.0	-185	-252	1
2.7	2015_May_18_1439	s	s	10	1	SIC	195	RC	2	2	09VD 02VO 02VC 02MD 02MO 02MC 02RD 02RO	1	0	1.37365317345	-92.0	113.0	-93	113	1
2.7	2015_May_18_1439	s	s	10	1	SIC	196	ABS	1	0	02VD 02VO 02VC 02MD 02MO 10MC 02RD 02RO	0	1	2.57713794708	None	None	None	None	1
2.7	2015_May_18_1439	s	s	10	1	SIC	197	ABS	2	1	02VD 10VO 02VC 02MD 02MO 02MC 02RD 02RO	0	1	1.45438814163	None	None	None	None	1
2.7	2015_May_18_1439	s	s	10	1	SIC	198	RC	1	0	02VD 02VO 02VC 02MD 02MO 09MC 02RD 02RO	1	0	4.21986699104	-231.0	-96.0	-231	-91	1
2.7	2015_May_18_1439	s	s	10	1	SIC	199	RC	0	2	02VD 02VO 02VC 02MD 02MO 02MC 09RD 02RO	1	0	5.39034104347	503.0	-259.0	498	-259	1
2.7	2015_May_18_1439	s	s	10	1	SIC	200	RC	0	1	02VD 02VO 02VC 02MD 02MO 02MC 02RD 09RO	1	0	5.98558592796	-104.0	242.0	-95	247	1
2.7	2015_May_18_1439	s	s	10	1	SIC	201	ABS	1	2	02VD 02VO 02VC 10MD 02MO 02MC 02RD 02RO	0	1	2.10105514526	None	None	None	None	1
2.7	2015_May_18_1439	s	s	10	1	SIC	202	ABS	0	2	02VD 02VO 02VC 02MD 02MO 02MC 10RD 02RO	0	1	3.21039700508	None	None	None	None	1
2.7	2015_May_18_1439	s	s	10	1	SIC	203	ABS	2	0	02VD 02VO 10VC 02MD 02MO 02MC 02RD 02RO	0	1	1.83566784859	None	None	None	None	1
2.7	2015_May_18_1439	s	s	10	1	SIC	204	RC	2	0	02VD 02VO 09VC 02MD 02MO 02MC 02RD 02RO	1	0	2.10693311691	55.0	-327.0	60	-330	1
2.7	2015_May_18_1439	s	s	10	1	SIC	205	RC	1	2	02VD 02VO 02VC 09MD 02MO 02MC 02RD 02RO	1	0	1.2320458889	203.0	222.0	198	217	1
2.7	2015_May_18_1439	s	s	10	1	SIC	206	RC	2	1	02VD 09VO 02VC 02MD 02MO 02MC 02RD 02RO	1	0	6.02256798744	-274.0	-210.0	-274	-218	1
2.7	2015_May_18_1439	s	s	10	1	SIC	207	ABS	2	2	10VD 02VO 02VC 02MD 02MO 02MC 02RD 02RO	0	1	2.7834880352	None	None	None	None	1
2.7	2015_May_18_1439	s	s	10	1	SIC	208	ABS	0	1	02VD 02VO 02VC 02MD 02MO 02MC 02RD 10RO	0	1	5.00181388855	None	None	None	None	1
2.7	2015_May_18_1439	s	s	10	1	SIC	209	ABS	2	1	02VD 10VO 02VC 02MD 02MO 02MC 02RD 02RO	0	1	2.01827692986	None	None	None	None	1
2.7	2015_May_18_1439	s	s	10	1	SIC	210	RC	0	1	02VD 02VO 02VC 02MD 02MO 02MC 02RD 09RO	0	1	5.22553706169	-139.0	100.0	None	None	0
2.7	2015_May_18_1439	s	s	10	1	SIC	211	ABS	0	2	02VD 02VO 02VC 02MD 02MO 02MC 10RD 02RO	0	1	1.92978096008	None	None	None	None	1
2.7	2015_May_18_1439	s	s	10	1	SIC	212	RC	2	2	09VD 02VO 02VC 02MD 02MO 02MC 02RD 02RO	1	0	4.18473887444	-365.0	228.0	-363	225	1
2.7	2015_May_18_1439	s	s	10	1	SIC	213	RC	2	0	02VD 02VO 09VC 02MD 02MO 02MC 02RD 02RO	1	0	1.24701905251	10.0	58.0	10	60	1
2.7	2015_May_18_1439	s	s	10	1	SIC	214	ABS	1	1	02VD 02VO 02VC 02MD 10MO 02MC 02RD 02RO	0	1	2.30637598038	None	None	None	None	1
2.7	2015_May_18_1439	s	s	10	1	SIC	215	ABS	2	2	10VD 02VO 02VC 02MD 02MO 02MC 02RD 02RO	0	1	2.60067105293	None	None	None	None	1
2.7	2015_May_18_1439	s	s	10	1	SIC	216	RC	1	1	02VD 02VO 02VC 02MD 09MO 02MC 02RD 02RO	1	0	1.93018484116	-152.0	-17.0	-154	-18	1
2.7	2015_May_18_1439	s	s	10	1	SIC	217	RC	1	0	02VD 02VO 02VC 02MD 02MO 09MC 02RD 02RO	0	1	3.49245810509	-31.0	-64.0	None	None	0
2.7	2015_May_18_1439	s	s	10	1	SIC	218	ABS	0	1	02VD 02VO 02VC 02MD 02MO 02MC 02RD 10RO	0	1	4.00099015236	None	None	None	None	1
2.7	2015_May_18_1439	s	s	10	1	SIC	219	RC	0	2	02VD 02VO 02VC 02MD 02MO 02MC 09RD 02RO	1	0	2.1005051136	-176.0	-173.0	-172	-174	1
2.7	2015_May_18_1439	s	s	10	1	SIC	220	RC	1	2	02VD 02VO 02VC 09MD 02MO 02MC 02RD 02RO	1	0	4.70789694786	3.0	217.0	-1	208	1
2.7	2015_May_18_1439	s	s	10	1	SIC	221	RC	2	1	02VD 09VO 02VC 02MD 02MO 02MC 02RD 02RO	0	1	6.54392504692	-325.0	-363.0	None	None	0
2.7	2015_May_18_1439	s	s	10	1	SIC	222	ABS	1	0	02VD 02VO 02VC 02MD 02MO 10MC 02RD 02RO	0	1	3.6197450161	None	None	None	None	1
2.7	2015_May_18_1439	s	s	10	1	SIC	223	ABS	2	0	02VD 02VO 10VC 02MD 02MO 02MC 02RD 02RO	0	1	2.02977895737	None	None	None	None	1
2.7	2015_May_18_1439	s	s	10	1	SIC	224	ABS	1	2	02VD 02VO 02VC 10MD 02MO 02MC 02RD 02RO	0	1	3.02126097679	None	None	None	None	1
2.7	2015_May_18_1439	s	s	10	1	SIC	225	RC	2	2	09VD 02VO 02VC 02MD 02MO 02MC 02RD 02RO	1	0	1.84721589088	525.0	60.0	522	59	1
2.7	2015_May_18_1439	s	s	10	1	SIC	226	RC	2	0	02VD 02VO 09VC 02MD 02MO 02MC 02RD 02RO	1	0	1.08889698982	167.0	-4.0	167	-1	1
2.7	2015_May_18_1439	s	s	10	1	SIC	227	ABS	2	2	10VD 02VO 02VC 02MD 02MO 02MC 02RD 02RO	0	1	2.73573708534	None	None	None	None	1
2.7	2015_May_18_1439	s	s	10	1	SIC	228	RC	1	2	02VD 02VO 02VC 09MD 02MO 02MC 02RD 02RO	1	0	1.67077493668	249.0	-384.0	253	-377	1
2.7	2015_May_18_1439	s	s	10	1	SIC	229	ABS	0	1	02VD 02VO 02VC 02MD 02MO 02MC 02RD 10RO	0	1	5.26070904732	None	None	None	None	1
2.7	2015_May_18_1439	s	s	10	1	SIC	230	ABS	0	2	02VD 02VO 02VC 02MD 02MO 02MC 10RD 02RO	0	1	2.99529480934	None	None	None	None	1
2.7	2015_May_18_1439	s	s	10	1	SIC	231	ABS	2	1	02VD 10VO 02VC 02MD 02MO 02MC 02RD 02RO	0	1	2.24759101868	None	None	None	None	1
2.7	2015_May_18_1439	s	s	10	1	SIC	232	RC	2	1	02VD 09VO 02VC 02MD 02MO 02MC 02RD 02RO	1	0	1.19417905807	-407.0	34.0	-405	32	1
2.7	2015_May_18_1439	s	s	10	1	SIC	233	RC	0	1	02VD 02VO 02VC 02MD 02MO 02MC 02RD 09RO	1	0	2.29458594322	37.0	395.0	42	389	1
2.7	2015_May_18_1439	s	s	10	1	SIC	234	ABS	1	2	02VD 02VO 02VC 10MD 02MO 02MC 02RD 02RO	0	1	2.45460700989	None	None	None	None	1
2.7	2015_May_18_1439	s	s	10	1	SIC	235	RC	1	0	02VD 02VO 02VC 02MD 02MO 09MC 02RD 02RO	1	0	1.99534416199	-466.0	170.0	-460	166	1
2.7	2015_May_18_1439	s	s	10	1	SIC	236	ABS	1	0	02VD 02VO 02VC 02MD 02MO 10MC 02RD 02RO	0	1	2.80064296722	None	None	None	None	1
2.7	2015_May_18_1439	s	s	10	1	SIC	237	RC	1	1	02VD 02VO 02VC 02MD 09MO 02MC 02RD 02RO	0	1	2.24173808098	-92.0	-36.0	None	None	0
2.7	2015_May_18_1439	s	s	10	1	SIC	238	ABS	2	0	02VD 02VO 10VC 02MD 02MO 02MC 02RD 02RO	0	1	2.91342186928	None	None	None	None	1
2.7	2015_May_18_1439	s	s	10	1	SIC	239	RC	0	2	02VD 02VO 02VC 02MD 02MO 02MC 09RD 02RO	1	0	2.78889298439	300.0	-205.0	295	-205	1
2.7	2015_May_18_1439	s	s	10	1	SIC	240	ABS	1	1	02VD 02VO 02VC 02MD 10MO 02MC 02RD 02RO	0	1	5.12542295456	None	None	None	None	1
2.7	2015_May_18_1439	s	s	10	1	SIC	241	ABS	2	0	02VD 02VO 10VC 02MD 02MO 02MC 02RD 02RO	0	1	4.51917290688	None	None	None	None	1
2.7	2015_May_18_1439	s	s	10	1	SIC	242	RC	1	0	02VD 02VO 02VC 02MD 02MO 09MC 02RD 02RO	1	0	1.41810393333	-91.0	411.0	-94	414	1
2.7	2015_May_18_1439	s	s	10	1	SIC	243	ABS	2	2	10VD 02VO 02VC 02MD 02MO 02MC 02RD 02RO	0	1	2.85446310043	None	None	None	None	1
2.7	2015_May_18_1439	s	s	10	1	SIC	244	ABS	0	1	02VD 02VO 02VC 02MD 02MO 02MC 02RD 10RO	0	1	4.00142407417	None	None	None	None	1
2.7	2015_May_18_1439	s	s	10	1	SIC	245	ABS	1	2	02VD 02VO 02VC 10MD 02MO 02MC 02RD 02RO	0	1	1.94810795784	None	None	None	None	1
2.7	2015_May_18_1439	s	s	10	1	SIC	246	RC	2	1	02VD 09VO 02VC 02MD 02MO 02MC 02RD 02RO	1	0	2.38642191887	253.0	254.0	256	257	1
2.7	2015_May_18_1439	s	s	10	1	SIC	247	ABS	0	2	02VD 02VO 02VC 02MD 02MO 02MC 10RD 02RO	0	1	2.25663805008	None	None	None	None	1
2.7	2015_May_18_1439	s	s	10	1	SIC	248	RC	1	2	02VD 02VO 02VC 09MD 02MO 02MC 02RD 02RO	1	0	2.80885601044	259.0	-81.0	257	-91	1
2.7	2015_May_18_1439	s	s	10	1	SIC	249	RC	0	2	02VD 02VO 02VC 02MD 02MO 02MC 09RD 02RO	1	0	1.64410185814	-167.0	94.0	-161	103	1
2.7	2015_May_18_1439	s	s	10	1	SIC	250	RC	1	1	02VD 02VO 02VC 02MD 09MO 02MC 02RD 02RO	1	0	2.10627198219	-97.0	-215.0	-106	-218	1
2.7	2015_May_18_1439	s	s	10	1	SIC	251	RC	2	2	09VD 02VO 02VC 02MD 02MO 02MC 02RD 02RO	1	0	1.6590321064	363.0	-179.0	362	-188	1
2.7	2015_May_18_1439	s	s	10	1	SIC	252	ABS	1	0	02VD 02VO 02VC 02MD 02MO 10MC 02RD 02RO	0	1	5.46096897125	None	None	None	None	1
2.7	2015_May_18_1439	s	s	10	1	SIC	253	RC	2	0	02VD 02VO 09VC 02MD 02MO 02MC 02RD 02RO	1	0	1.28921794891	-93.0	301.0	-98	299	1
2.7	2015_May_18_1439	s	s	10	1	SIC	254	RC	0	1	02VD 02VO 02VC 02MD 02MO 02MC 02RD 09RO	0	1	9.41575312614	-359.0	-255.0	None	None	0
2.7	2015_May_18_1439	s	s	10	1	SIC	255	ABS	1	1	02VD 02VO 02VC 02MD 10MO 02MC 02RD 02RO	0	1	6.0377869606	None	None	None	None	1
2.7	2015_May_18_1439	s	s	10	1	SIC	256	ABS	2	1	02VD 10VO 02VC 02MD 02MO 02MC 02RD 02RO	0	1	8.54213213921	None	None	None	None	1
2.7	2015_May_18_1439	s	s	10	1	SIC	257	ABS	1	1	02VD 02VO 02VC 02MD 10MO 02MC 02RD 02RO	0	1	2.51831889153	None	None	None	None	1
2.7	2015_May_18_1439	s	s	10	1	SIC	258	RC	1	1	02VD 02VO 02VC 02MD 09MO 02MC 02RD 02RO	1	0	8.8128221035	408.0	107.0	415	108	1
2.7	2015_May_18_1439	s	s	10	1	SIC	259	ABS	0	1	02VD 02VO 02VC 02MD 02MO 02MC 02RD 10RO	0	1	3.49527692795	None	None	None	None	1
2.7	2015_May_18_1439	s	s	10	1	SIC	260	RC	2	2	09VD 02VO 02VC 02MD 02MO 02MC 02RD 02RO	1	0	2.50413894653	-94.0	179.0	-97	180	1
2.7	2015_May_18_1439	s	s	10	1	SIC	261	RC	0	2	02VD 02VO 02VC 02MD 02MO 02MC 09RD 02RO	1	0	4.29066586494	-482.0	-140.0	-471	-139	1
2.7	2015_May_18_1439	s	s	10	1	SIC	262	ABS	2	1	02VD 10VO 02VC 02MD 02MO 02MC 02RD 02RO	0	1	4.79772496223	None	None	None	None	1
2.7	2015_May_18_1439	s	s	10	1	SIC	263	RC	2	1	02VD 09VO 02VC 02MD 02MO 02MC 02RD 02RO	1	0	2.85964298248	-51.0	104.0	-53	112	1
2.7	2015_May_18_1439	s	s	10	1	SIC	264	ABS	1	2	02VD 02VO 02VC 10MD 02MO 02MC 02RD 02RO	0	1	2.44480586052	None	None	None	None	1
2.7	2015_May_18_1439	s	s	10	1	SIC	265	RC	1	2	02VD 02VO 02VC 09MD 02MO 02MC 02RD 02RO	1	0	4.03667092323	-119.0	-119.0	-114	-118	1
2.7	2015_May_18_1439	s	s	10	1	SIC	266	ABS	2	0	02VD 02VO 10VC 02MD 02MO 02MC 02RD 02RO	0	1	4.54021406174	None	None	None	None	1
2.7	2015_May_18_1439	s	s	10	1	SIC	267	ABS	1	0	02VD 02VO 02VC 02MD 02MO 10MC 02RD 02RO	0	1	10.5302169323	None	None	None	None	1
2.7	2015_May_18_1439	s	s	10	1	SIC	268	ABS	0	2	02VD 02VO 02VC 02MD 02MO 02MC 10RD 02RO	0	1	3.15116906166	None	None	None	None	1
2.7	2015_May_18_1439	s	s	10	1	SIC	269	RC	0	1	02VD 02VO 02VC 02MD 02MO 02MC 02RD 09RO	1	0	5.51368093491	185.0	290.0	192	285	1
2.7	2015_May_18_1439	s	s	10	1	SIC	270	ABS	2	2	10VD 02VO 02VC 02MD 02MO 02MC 02RD 02RO	0	1	1.53772783279	None	None	None	None	1
2.7	2015_May_18_1439	s	s	10	1	SIC	271	RC	2	0	02VD 02VO 09VC 02MD 02MO 02MC 02RD 02RO	1	0	4.65440607071	235.0	-313.0	226	-309	1
2.7	2015_May_18_1439	s	s	10	1	SIC	272	RC	1	0	02VD 02VO 02VC 02MD 02MO 09MC 02RD 02RO	1	0	3.84195899963	164.0	-274.0	164	-269	1
2.7	2015_May_18_1439	s	s	10	1	SIC	273	ABS	0	2	02VD 02VO 02VC 02MD 02MO 02MC 10RD 02RO	0	1	8.54480695724	None	None	None	None	1
2.7	2015_May_18_1439	s	s	10	1	SIC	274	ABS	1	1	02VD 02VO 02VC 02MD 10MO 02MC 02RD 02RO	0	1	4.02490615845	None	None	None	None	1
2.7	2015_May_18_1439	s	s	10	1	SIC	275	RC	1	2	02VD 02VO 02VC 09MD 02MO 02MC 02RD 02RO	1	0	3.69524002075	-401.0	-252.0	-390	-251	1
2.7	2015_May_18_1439	s	s	10	1	SIC	276	ABS	2	1	02VD 10VO 02VC 02MD 02MO 02MC 02RD 02RO	0	1	3.10668897629	None	None	None	None	1
2.7	2015_May_18_1439	s	s	10	1	SIC	277	ABS	2	2	10VD 02VO 02VC 02MD 02MO 02MC 02RD 02RO	0	1	2.38064789772	None	None	None	None	1
2.7	2015_May_18_1439	s	s	10	1	SIC	278	RC	2	2	09VD 02VO 02VC 02MD 02MO 02MC 02RD 02RO	1	0	2.77095508575	-74.0	86.0	-74	86	1
2.7	2015_May_18_1439	s	s	10	1	SIC	279	ABS	1	0	02VD 02VO 02VC 02MD 02MO 10MC 02RD 02RO	0	1	6.29403495789	None	None	None	None	1
2.7	2015_May_18_1439	s	s	10	1	SIC	280	ABS	2	0	02VD 02VO 10VC 02MD 02MO 02MC 02RD 02RO	0	1	4.63751196861	None	None	None	None	1
2.7	2015_May_18_1439	s	s	10	1	SIC	281	RC	2	1	02VD 09VO 02VC 02MD 02MO 02MC 02RD 02RO	1	0	4.6435611248	-505.0	311.0	-499	310	1
2.7	2015_May_18_1439	s	s	10	1	SIC	282	RC	1	1	02VD 02VO 02VC 02MD 09MO 02MC 02RD 02RO	1	0	2.97321295738	538.0	-147.0	540	-147	1
2.7	2015_May_18_1439	s	s	10	1	SIC	283	RC	0	2	02VD 02VO 02VC 02MD 02MO 02MC 09RD 02RO	1	0	5.74337792397	233.0	-310.0	238	-314	1
2.7	2015_May_18_1439	s	s	10	1	SIC	284	RC	0	1	02VD 02VO 02VC 02MD 02MO 02MC 02RD 09RO	1	0	4.16270709038	289.0	104.0	289	111	1
2.7	2015_May_18_1439	s	s	10	1	SIC	285	RC	1	0	02VD 02VO 02VC 02MD 02MO 09MC 02RD 02RO	1	0	3.52500700951	-259.0	-380.0	-265	-377	1
2.7	2015_May_18_1439	s	s	10	1	SIC	286	ABS	0	1	02VD 02VO 02VC 02MD 02MO 02MC 02RD 10RO	0	1	3.9897351265	None	None	None	None	1
2.7	2015_May_18_1439	s	s	10	1	SIC	287	ABS	1	2	02VD 02VO 02VC 10MD 02MO 02MC 02RD 02RO	0	1	2.49206209183	None	None	None	None	1
2.7	2015_May_18_1439	s	s	10	1	SIC	288	RC	2	0	02VD 02VO 09VC 02MD 02MO 02MC 02RD 02RO	1	0	1.92480897903	509.0	-288.0	507	-290	1
2.7	2015_May_18_1439	s	s	10	1	SIC	289	ABS	1	2	02VD 02VO 02VC 10MD 02MO 02MC 02RD 02RO	0	1	3.09138703346	None	None	None	None	1
2.7	2015_May_18_1439	s	s	10	1	SIC	290	ABS	0	2	02VD 02VO 02VC 02MD 02MO 02MC 10RD 02RO	0	1	2.58895087242	None	None	None	None	1
2.7	2015_May_18_1439	s	s	10	1	SIC	291	RC	2	2	09VD 02VO 02VC 02MD 02MO 02MC 02RD 02RO	1	0	2.35346007347	-241.0	49.0	-234	45	1
2.7	2015_May_18_1439	s	s	10	1	SIC	292	RC	1	1	02VD 02VO 02VC 02MD 09MO 02MC 02RD 02RO	1	0	1.10591816902	-250.0	-17.0	-257	-20	1
2.7	2015_May_18_1439	s	s	10	1	SIC	293	RC	1	2	02VD 02VO 02VC 09MD 02MO 02MC 02RD 02RO	1	0	1.16450119019	-197.0	-111.0	-190	-118	1
2.7	2015_May_18_1439	s	s	10	1	SIC	294	RC	1	0	02VD 02VO 02VC 02MD 02MO 09MC 02RD 02RO	1	0	1.36131596565	-196.0	-12.0	-194	-15	1
2.7	2015_May_18_1439	s	s	10	1	SIC	295	RC	2	0	02VD 02VO 09VC 02MD 02MO 02MC 02RD 02RO	0	1	2.39582109451	78.0	-150.0	None	None	0
2.7	2015_May_18_1439	s	s	10	1	SIC	296	RC	2	1	02VD 09VO 02VC 02MD 02MO 02MC 02RD 02RO	1	0	1.70612597466	-124.0	317.0	-123	313	1
2.7	2015_May_18_1439	s	s	10	1	SIC	297	ABS	0	1	02VD 02VO 02VC 02MD 02MO 02MC 02RD 10RO	0	1	6.23272514343	None	None	None	None	1
2.7	2015_May_18_1439	s	s	10	1	SIC	298	ABS	2	2	10VD 02VO 02VC 02MD 02MO 02MC 02RD 02RO	0	1	3.8248269558	None	None	None	None	1
2.7	2015_May_18_1439	s	s	10	1	SIC	299	ABS	1	1	02VD 02VO 02VC 02MD 10MO 02MC 02RD 02RO	0	1	6.55048298836	None	None	None	None	1
2.7	2015_May_18_1439	s	s	10	1	SIC	300	ABS	2	1	02VD 10VO 02VC 02MD 02MO 02MC 02RD 02RO	0	1	6.76433706284	None	None	None	None	1
2.7	2015_May_18_1439	s	s	10	1	SIC	301	ABS	2	0	02VD 02VO 10VC 02MD 02MO 02MC 02RD 02RO	0	1	2.77719497681	None	None	None	None	1
2.7	2015_May_18_1439	s	s	10	1	SIC	302	RC	0	1	02VD 02VO 02VC 02MD 02MO 02MC 02RD 09RO	1	0	7.53257107735	-524.0	28.0	-524	26	1
2.7	2015_May_18_1439	s	s	10	1	SIC	303	RC	0	2	02VD 02VO 02VC 02MD 02MO 02MC 09RD 02RO	1	0	6.70864105225	-160.0	-227.0	-165	-225	1
2.7	2015_May_18_1439	s	s	10	1	SIC	304	ABS	1	0	02VD 02VO 02VC 02MD 02MO 10MC 02RD 02RO	0	1	4.95195698738	None	None	None	None	1
2.7	2015_May_18_1439	s	s	10	1	SIC	305	ABS	1	0	02VD 02VO 02VC 02MD 02MO 10MC 02RD 02RO	0	1	10.1575009823	None	None	None	None	1
2.7	2015_May_18_1439	s	s	10	1	SIC	306	ABS	1	2	02VD 02VO 02VC 10MD 02MO 02MC 02RD 02RO	0	1	9.40401101112	None	None	None	None	1
2.7	2015_May_18_1439	s	s	10	1	SIC	307	RC	0	1	02VD 02VO 02VC 02MD 02MO 02MC 02RD 09RO	0	1	7.04730391502	-264.0	-76.0	None	None	0
2.7	2015_May_18_1439	s	s	10	1	SIC	308	ABS	2	0	02VD 02VO 10VC 02MD 02MO 02MC 02RD 02RO	0	1	4.03673791885	None	None	None	None	1
2.7	2015_May_18_1439	s	s	10	1	SIC	309	RC	2	0	02VD 02VO 09VC 02MD 02MO 02MC 02RD 02RO	1	0	1.34128403664	-257.0	-96.0	-244	-91	1
2.7	2015_May_18_1439	s	s	10	1	SIC	310	ABS	1	1	02VD 02VO 02VC 02MD 10MO 02MC 02RD 02RO	0	1	11.1402409077	None	None	None	None	1
2.7	2015_May_18_1439	s	s	10	1	SIC	311	RC	2	1	02VD 09VO 02VC 02MD 02MO 02MC 02RD 02RO	1	0	10.2869429588	195.0	-177.0	202	-170	1
2.7	2015_May_18_1439	s	s	10	1	SIC	312	RC	0	2	02VD 02VO 02VC 02MD 02MO 02MC 09RD 02RO	1	0	3.34228491783	215.0	-19.0	214	-24	1
2.7	2015_May_18_1439	s	s	10	1	SIC	313	ABS	2	1	02VD 10VO 02VC 02MD 02MO 02MC 02RD 02RO	0	1	4.42514204979	None	None	None	None	1
2.7	2015_May_18_1439	s	s	10	1	SIC	314	ABS	2	2	10VD 02VO 02VC 02MD 02MO 02MC 02RD 02RO	0	0	-1	None	None	None	None	-1
2.7	2015_May_18_1439	s	s	10	1	SIC	315	ABS	0	1	02VD 02VO 02VC 02MD 02MO 02MC 02RD 10RO	1	0	8.53302311897	None	None	415	296	0
2.7	2015_May_18_1439	s	s	10	1	SIC	316	RC	1	1	02VD 02VO 02VC 02MD 09MO 02MC 02RD 02RO	1	0	3.04799604416	-276.0	104.0	-273	107	1
2.7	2015_May_18_1439	s	s	10	1	SIC	317	ABS	0	2	02VD 02VO 02VC 02MD 02MO 02MC 10RD 02RO	0	1	11.3813698292	None	None	None	None	1
2.7	2015_May_18_1439	s	s	10	1	SIC	318	RC	1	2	02VD 02VO 02VC 09MD 02MO 02MC 02RD 02RO	1	0	1.22954916954	-184.0	112.0	-176	109	1
2.7	2015_May_18_1439	s	s	10	1	SIC	319	RC	1	0	02VD 02VO 02VC 02MD 02MO 09MC 02RD 02RO	1	0	1.98527216911	71.0	-13.0	62	-16	1
2.7	2015_May_18_1439	s	s	10	1	SIC	320	RC	2	2	09VD 02VO 02VC 02MD 02MO 02MC 02RD 02RO	1	0	2.39532995224	283.0	-383.0	284	-396	1
2.7	2015_May_18_1439	s	s	10	1	SIC	321	ABS	0	1	02VD 02VO 02VC 02MD 02MO 02MC 02RD 10RO	0	1	6.20248889923	None	None	None	None	1
2.7	2015_May_18_1439	s	s	10	1	SIC	322	RC	1	2	02VD 02VO 02VC 09MD 02MO 02MC 02RD 02RO	1	0	3.22181391716	-188.0	-379.0	-191	-372	1
2.7	2015_May_18_1439	s	s	10	1	SIC	323	ABS	2	1	02VD 10VO 02VC 02MD 02MO 02MC 02RD 02RO	0	1	2.57453989983	None	None	None	None	1
2.7	2015_May_18_1439	s	s	10	1	SIC	324	ABS	0	2	02VD 02VO 02VC 02MD 02MO 02MC 10RD 02RO	0	1	5.32673597336	None	None	None	None	1
2.7	2015_May_18_1439	s	s	10	1	SIC	325	RC	0	1	02VD 02VO 02VC 02MD 02MO 02MC 02RD 09RO	1	0	3.25673699379	-279.0	-324.0	-272	-319	1
2.7	2015_May_18_1439	s	s	10	1	SIC	326	ABS	2	0	02VD 02VO 10VC 02MD 02MO 02MC 02RD 02RO	0	1	4.51909184456	None	None	None	None	1
2.7	2015_May_18_1439	s	s	10	1	SIC	327	ABS	1	2	02VD 02VO 02VC 10MD 02MO 02MC 02RD 02RO	0	1	3.42506408691	None	None	None	None	1
2.7	2015_May_18_1439	s	s	10	1	SIC	328	RC	2	2	09VD 02VO 02VC 02MD 02MO 02MC 02RD 02RO	0	1	4.94956684113	-330.0	-141.0	None	None	0
2.7	2015_May_18_1439	s	s	10	1	SIC	329	RC	0	2	02VD 02VO 02VC 02MD 02MO 02MC 09RD 02RO	1	0	4.70434403419	247.0	244.0	246	239	1
2.7	2015_May_18_1439	s	s	10	1	SIC	330	RC	1	0	02VD 02VO 02VC 02MD 02MO 09MC 02RD 02RO	1	0	8.95301413536	-362.0	52.0	-364	49	1
2.7	2015_May_18_1439	s	s	10	1	SIC	331	RC	1	1	02VD 02VO 02VC 02MD 09MO 02MC 02RD 02RO	0	1	7.69234991074	69.0	2.0	None	None	0
2.7	2015_May_18_1439	s	s	10	1	SIC	332	ABS	1	0	02VD 02VO 02VC 02MD 02MO 10MC 02RD 02RO	0	1	7.44601416588	None	None	None	None	1
2.7	2015_May_18_1439	s	s	10	1	SIC	333	RC	2	1	02VD 09VO 02VC 02MD 02MO 02MC 02RD 02RO	1	0	2.23197507858	217.0	187.0	224	181	1
2.7	2015_May_18_1439	s	s	10	1	SIC	334	RC	2	0	02VD 02VO 09VC 02MD 02MO 02MC 02RD 02RO	1	0	1.38012504578	-222.0	302.0	-217	303	1
2.7	2015_May_18_1439	s	s	10	1	SIC	335	ABS	2	2	10VD 02VO 02VC 02MD 02MO 02MC 02RD 02RO	0	1	2.51357007027	None	None	None	None	1
2.7	2015_May_18_1439	s	s	10	1	SIC	336	ABS	1	1	02VD 02VO 02VC 02MD 10MO 02MC 02RD 02RO	0	1	2.1836309433	None	None	None	None	1
2.7	2015_May_18_1439	s	s	10	1	SIC	337	RC	1	2	02VD 02VO 02VC 09MD 02MO 02MC 02RD 02RO	0	1	1.96063399315	135.0	-16.0	None	None	0
2.7	2015_May_18_1439	s	s	10	1	SIC	338	ABS	2	2	10VD 02VO 02VC 02MD 02MO 02MC 02RD 02RO	0	1	2.26590299606	None	None	None	None	1
2.7	2015_May_18_1439	s	s	10	1	SIC	339	RC	0	2	02VD 02VO 02VC 02MD 02MO 02MC 09RD 02RO	1	0	0.952812194824	107.0	49.0	108	49	1
2.7	2015_May_18_1439	s	s	10	1	SIC	340	ABS	1	0	02VD 02VO 02VC 02MD 02MO 10MC 02RD 02RO	0	1	2.41273593903	None	None	None	None	1
2.7	2015_May_18_1439	s	s	10	1	SIC	341	RC	0	1	02VD 02VO 02VC 02MD 02MO 02MC 02RD 09RO	1	0	7.76436495781	13.0	-107.0	4	-101	1
2.7	2015_May_18_1439	s	s	10	1	SIC	342	ABS	0	2	02VD 02VO 02VC 02MD 02MO 02MC 10RD 02RO	0	1	10.1409430504	None	None	None	None	1
2.7	2015_May_18_1439	s	s	10	1	SIC	343	RC	1	1	02VD 02VO 02VC 02MD 09MO 02MC 02RD 02RO	1	0	5.10768413544	-266.0	-223.0	-373	-149	0
2.7	2015_May_18_1439	s	s	10	1	SIC	344	RC	1	0	02VD 02VO 02VC 02MD 02MO 09MC 02RD 02RO	1	0	5.51402497292	-76.0	-168.0	-77	-163	1
2.7	2015_May_18_1439	s	s	10	1	SIC	345	RC	2	0	02VD 02VO 09VC 02MD 02MO 02MC 02RD 02RO	1	0	6.32022881508	-291.0	-325.0	-304	-321	1
2.7	2015_May_18_1439	s	s	10	1	SIC	346	RC	2	2	09VD 02VO 02VC 02MD 02MO 02MC 02RD 02RO	1	0	2.57423305511	345.0	-398.0	346	-393	1
2.7	2015_May_18_1439	s	s	10	1	SIC	347	ABS	0	1	02VD 02VO 02VC 02MD 02MO 02MC 02RD 10RO	0	1	6.01419711113	None	None	None	None	1
2.7	2015_May_18_1439	s	s	10	1	SIC	348	ABS	1	1	02VD 02VO 02VC 02MD 10MO 02MC 02RD 02RO	0	1	4.56634616852	None	None	None	None	1
2.7	2015_May_18_1439	s	s	10	1	SIC	349	ABS	2	0	02VD 02VO 10VC 02MD 02MO 02MC 02RD 02RO	0	1	2.20052194595	None	None	None	None	1
2.7	2015_May_18_1439	s	s	10	1	SIC	350	ABS	2	1	02VD 10VO 02VC 02MD 02MO 02MC 02RD 02RO	0	1	2.59631991386	None	None	None	None	1
2.7	2015_May_18_1439	s	s	10	1	SIC	351	RC	2	1	02VD 09VO 02VC 02MD 02MO 02MC 02RD 02RO	1	0	1.56484007835	25.0	120.0	22	121	1
2.7	2015_May_18_1439	s	s	10	1	SIC	352	ABS	1	2	02VD 02VO 02VC 10MD 02MO 02MC 02RD 02RO	0	1	3.4896440506	None	None	None	None	1
2.7	2015_May_18_1439	s	s	10	1	SIC	353	RC	0	2	02VD 02VO 02VC 02MD 02MO 02MC 09RD 02RO	0	1	2.45983409882	36.0	133.0	None	None	0
2.7	2015_May_18_1439	s	s	10	1	SIC	354	ABS	2	1	02VD 10VO 02VC 02MD 02MO 02MC 02RD 02RO	0	1	2.19562196732	None	None	None	None	1
2.7	2015_May_18_1439	s	s	10	1	SIC	355	ABS	2	2	10VD 02VO 02VC 02MD 02MO 02MC 02RD 02RO	0	1	2.19405508041	None	None	None	None	1
2.7	2015_May_18_1439	s	s	10	1	SIC	356	RC	2	1	02VD 09VO 02VC 02MD 02MO 02MC 02RD 02RO	1	0	1.30153608322	-192.0	-16.0	-194	-15	1
2.7	2015_May_18_1439	s	s	10	1	SIC	357	ABS	1	1	02VD 02VO 02VC 02MD 10MO 02MC 02RD 02RO	0	1	2.11597895622	None	None	None	None	1
2.7	2015_May_18_1439	s	s	10	1	SIC	358	ABS	1	2	02VD 02VO 02VC 10MD 02MO 02MC 02RD 02RO	0	1	1.682543993	None	None	None	None	1
2.7	2015_May_18_1439	s	s	10	1	SIC	359	RC	2	2	09VD 02VO 02VC 02MD 02MO 02MC 02RD 02RO	1	0	1.18821620941	206.0	-23.0	196	-22	1
2.7	2015_May_18_1439	s	s	10	1	SIC	360	ABS	0	2	02VD 02VO 02VC 02MD 02MO 02MC 10RD 02RO	0	1	2.08631086349	None	None	None	None	1
2.7	2015_May_18_1439	s	s	10	1	SIC	361	RC	2	0	02VD 02VO 09VC 02MD 02MO 02MC 02RD 02RO	1	0	1.43031311035	503.0	-411.0	505	-410	1
2.7	2015_May_18_1439	s	s	10	1	SIC	362	RC	1	2	02VD 02VO 02VC 09MD 02MO 02MC 02RD 02RO	1	0	1.27973008156	-22.0	-327.0	-11	-320	1
2.7	2015_May_18_1439	s	s	10	1	SIC	363	ABS	0	1	02VD 02VO 02VC 02MD 02MO 02MC 02RD 10RO	0	1	2.51826381683	None	None	None	None	1
2.7	2015_May_18_1439	s	s	10	1	SIC	364	RC	1	1	02VD 02VO 02VC 02MD 09MO 02MC 02RD 02RO	1	0	1.29037714005	195.0	151.0	195	146	1
2.7	2015_May_18_1439	s	s	10	1	SIC	365	RC	0	1	02VD 02VO 02VC 02MD 02MO 02MC 02RD 09RO	0	1	5.44353985786	-155.0	28.0	None	None	0
2.7	2015_May_18_1439	s	s	10	1	SIC	366	ABS	1	0	02VD 02VO 02VC 02MD 02MO 10MC 02RD 02RO	0	1	3.4717130661	None	None	None	None	1
2.7	2015_May_18_1439	s	s	10	1	SIC	367	ABS	2	0	02VD 02VO 10VC 02MD 02MO 02MC 02RD 02RO	0	1	1.28236889839	None	None	None	None	1
2.7	2015_May_18_1439	s	s	10	1	SIC	368	RC	1	0	02VD 02VO 02VC 02MD 02MO 09MC 02RD 02RO	0	1	2.10200381279	505.0	78.0	None	None	0
2.7	2015_May_18_1439	s	s	10	1	SIC	369	ABS	2	0	02VD 02VO 10VC 02MD 02MO 02MC 02RD 02RO	0	1	2.12995409966	None	None	None	None	1
2.7	2015_May_18_1439	s	s	10	1	SIC	370	ABS	1	1	02VD 02VO 02VC 02MD 10MO 02MC 02RD 02RO	0	1	2.37187409401	None	None	None	None	1
2.7	2015_May_18_1439	s	s	10	1	SIC	371	RC	2	0	02VD 02VO 09VC 02MD 02MO 02MC 02RD 02RO	0	1	2.42418885231	-159.0	135.0	None	None	0
2.7	2015_May_18_1439	s	s	10	1	SIC	372	RC	0	2	02VD 02VO 02VC 02MD 02MO 02MC 09RD 02RO	1	0	1.96503591537	-235.0	42.0	-236	41	1
2.7	2015_May_18_1439	s	s	10	1	SIC	373	ABS	2	2	10VD 02VO 02VC 02MD 02MO 02MC 02RD 02RO	0	1	1.91475391388	None	None	None	None	1
2.7	2015_May_18_1439	s	s	10	1	SIC	374	RC	1	1	02VD 02VO 02VC 02MD 09MO 02MC 02RD 02RO	1	0	2.07761597633	357.0	-245.0	356	-245	1
2.7	2015_May_18_1439	s	s	10	1	SIC	375	ABS	1	0	02VD 02VO 02VC 02MD 02MO 10MC 02RD 02RO	0	1	1.17642521858	None	None	None	None	1
2.7	2015_May_18_1439	s	s	10	1	SIC	376	ABS	2	1	02VD 10VO 02VC 02MD 02MO 02MC 02RD 02RO	0	1	1.96264886856	None	None	None	None	1
2.7	2015_May_18_1439	s	s	10	1	SIC	377	RC	0	1	02VD 02VO 02VC 02MD 02MO 02MC 02RD 09RO	0	1	3.69528603554	-345.0	403.0	None	None	0
2.7	2015_May_18_1439	s	s	10	1	SIC	378	RC	1	2	02VD 02VO 02VC 09MD 02MO 02MC 02RD 02RO	1	0	1.1124689579	27.0	-242.0	25	-244	1
2.7	2015_May_18_1439	s	s	10	1	SIC	379	ABS	0	2	02VD 02VO 02VC 02MD 02MO 02MC 10RD 02RO	0	1	1.7480609417	None	None	None	None	1
2.7	2015_May_18_1439	s	s	10	1	SIC	380	RC	2	2	09VD 02VO 02VC 02MD 02MO 02MC 02RD 02RO	0	1	1.81205511093	318.0	-189.0	None	None	0
2.7	2015_May_18_1439	s	s	10	1	SIC	381	RC	1	0	02VD 02VO 02VC 02MD 02MO 09MC 02RD 02RO	1	0	3.01913309097	-327.0	305.0	-327	304	1
2.7	2015_May_18_1439	s	s	10	1	SIC	382	RC	2	1	02VD 09VO 02VC 02MD 02MO 02MC 02RD 02RO	0	1	1.24709701538	-380.0	-287.0	None	None	0
2.7	2015_May_18_1439	s	s	10	1	SIC	383	ABS	0	1	02VD 02VO 02VC 02MD 02MO 02MC 02RD 10RO	1	0	3.06563305855	None	None	-29	-15	0
2.7	2015_May_18_1439	s	s	10	1	SIC	384	ABS	1	2	02VD 02VO 02VC 10MD 02MO 02MC 02RD 02RO	0	1	1.92970895767	None	None	None	None	1
2.7	2015_May_18_1439	s	s	10	1	SIC	385	RC	2	1	02VD 09VO 02VC 02MD 02MO 02MC 02RD 02RO	1	0	1.65899991989	241.0	-60.0	245	-61	1
2.7	2015_May_18_1439	s	s	10	1	SIC	386	RC	1	2	02VD 02VO 02VC 09MD 02MO 02MC 02RD 02RO	1	0	5.02536892891	47.0	-379.0	50	-381	1
2.7	2015_May_18_1439	s	s	10	1	SIC	387	RC	1	0	02VD 02VO 02VC 02MD 02MO 09MC 02RD 02RO	1	0	1.16230201721	-135.0	-351.0	-131	-350	1
2.7	2015_May_18_1439	s	s	10	1	SIC	388	ABS	1	2	02VD 02VO 02VC 10MD 02MO 02MC 02RD 02RO	0	1	3.30410504341	None	None	None	None	1
2.7	2015_May_18_1439	s	s	10	1	SIC	389	RC	0	1	02VD 02VO 02VC 02MD 02MO 02MC 02RD 09RO	0	1	1.93792390823	-277.0	-387.0	None	None	0
2.7	2015_May_18_1439	s	s	10	1	SIC	390	ABS	0	1	02VD 02VO 02VC 02MD 02MO 02MC 02RD 10RO	0	1	2.09094500542	None	None	None	None	1
2.7	2015_May_18_1439	s	s	10	1	SIC	391	ABS	1	0	02VD 02VO 02VC 02MD 02MO 10MC 02RD 02RO	0	1	5.71983790398	None	None	None	None	1
2.7	2015_May_18_1439	s	s	10	1	SIC	392	ABS	1	1	02VD 02VO 02VC 02MD 10MO 02MC 02RD 02RO	0	1	1.47901797295	None	None	None	None	1
2.7	2015_May_18_1439	s	s	10	1	SIC	393	RC	2	2	09VD 02VO 02VC 02MD 02MO 02MC 02RD 02RO	0	1	9.79276394844	107.0	340.0	None	None	0
2.7	2015_May_18_1439	s	s	10	1	SIC	394	ABS	2	1	02VD 10VO 02VC 02MD 02MO 02MC 02RD 02RO	0	1	2.04730510712	None	None	None	None	1
2.7	2015_May_18_1439	s	s	10	1	SIC	395	ABS	2	2	10VD 02VO 02VC 02MD 02MO 02MC 02RD 02RO	0	1	8.29213690758	None	None	None	None	1
2.7	2015_May_18_1439	s	s	10	1	SIC	396	RC	2	0	02VD 02VO 09VC 02MD 02MO 02MC 02RD 02RO	1	0	6.42611598969	502.0	392.0	503	397	1
2.7	2015_May_18_1439	s	s	10	1	SIC	397	ABS	2	0	02VD 02VO 10VC 02MD 02MO 02MC 02RD 02RO	0	1	2.17195296288	None	None	None	None	1
2.7	2015_May_18_1439	s	s	10	1	SIC	398	RC	1	1	02VD 02VO 02VC 02MD 09MO 02MC 02RD 02RO	1	0	7.07964992523	-424.0	155.0	-424	161	1
2.7	2015_May_18_1439	s	s	10	1	SIC	399	RC	0	2	02VD 02VO 02VC 02MD 02MO 02MC 09RD 02RO	1	0	1.21533679962	-41.0	-286.0	-51	-287	1
2.7	2015_May_18_1439	s	s	10	1	SIC	400	ABS	0	2	02VD 02VO 02VC 02MD 02MO 02MC 10RD 02RO	0	1	2.12658596039	None	None	None	None	1
2.7	2015_May_18_1439	s	s	10	1	SIC	401	ABS	1	1	02VD 02VO 02VC 02MD 10MO 02MC 02RD 02RO	0	1	2.23093008995	None	None	None	None	1
2.7	2015_May_18_1439	s	s	10	1	SIC	402	RC	1	2	02VD 02VO 02VC 09MD 02MO 02MC 02RD 02RO	0	1	0.91295003891	-485.0	46.0	None	None	0
2.7	2015_May_18_1439	s	s	10	1	SIC	403	RC	0	1	02VD 02VO 02VC 02MD 02MO 02MC 02RD 09RO	1	0	3.08327698708	-17.0	321.0	-22	320	1
2.7	2015_May_18_1439	s	s	10	1	SIC	404	RC	2	1	02VD 09VO 02VC 02MD 02MO 02MC 02RD 02RO	1	0	2.00953507423	-350.0	-360.0	-352	-360	1
2.7	2015_May_18_1439	s	s	10	1	SIC	405	ABS	0	1	02VD 02VO 02VC 02MD 02MO 02MC 02RD 10RO	0	1	4.36128211021	None	None	None	None	1
2.7	2015_May_18_1439	s	s	10	1	SIC	406	ABS	0	2	02VD 02VO 02VC 02MD 02MO 02MC 10RD 02RO	0	1	12.4944760799	None	None	None	None	1
2.7	2015_May_18_1439	s	s	10	1	SIC	407	ABS	2	0	02VD 02VO 10VC 02MD 02MO 02MC 02RD 02RO	0	1	2.03051590919	None	None	None	None	1
2.7	2015_May_18_1439	s	s	10	1	SIC	408	ABS	2	2	10VD 02VO 02VC 02MD 02MO 02MC 02RD 02RO	0	1	3.25699615479	None	None	None	None	1
2.7	2015_May_18_1439	s	s	10	1	SIC	409	RC	2	2	09VD 02VO 02VC 02MD 02MO 02MC 02RD 02RO	0	1	6.53225708008	-504.0	115.0	None	None	0
2.7	2015_May_18_1439	s	s	10	1	SIC	410	RC	0	2	02VD 02VO 02VC 02MD 02MO 02MC 09RD 02RO	1	0	1.49421691895	66.0	-185.0	74	-182	1
2.7	2015_May_18_1439	s	s	10	1	SIC	411	RC	1	1	02VD 02VO 02VC 02MD 09MO 02MC 02RD 02RO	1	0	1.98341584206	255.0	393.0	254	396	1
2.7	2015_May_18_1439	s	s	10	1	SIC	412	RC	1	0	02VD 02VO 02VC 02MD 02MO 09MC 02RD 02RO	1	0	3.84470200539	-197.0	-359.0	-196	-361	1
2.7	2015_May_18_1439	s	s	10	1	SIC	413	ABS	1	0	02VD 02VO 02VC 02MD 02MO 10MC 02RD 02RO	0	1	3.17740297318	None	None	None	None	1
2.7	2015_May_18_1439	s	s	10	1	SIC	414	ABS	1	2	02VD 02VO 02VC 10MD 02MO 02MC 02RD 02RO	0	1	4.10729908943	None	None	None	None	1
2.7	2015_May_18_1439	s	s	10	1	SIC	415	RC	2	0	02VD 02VO 09VC 02MD 02MO 02MC 02RD 02RO	1	0	1.92979598045	132.0	-396.0	134	-388	1
2.7	2015_May_18_1439	s	s	10	1	SIC	416	ABS	2	1	02VD 10VO 02VC 02MD 02MO 02MC 02RD 02RO	0	1	1.83057689667	None	None	None	None	1
2.7	2015_May_18_1439	s	s	10	1	SIC	417	ABS	2	2	10VD 02VO 02VC 02MD 02MO 02MC 02RD 02RO	0	1	2.25936508179	None	None	None	None	1
2.7	2015_May_18_1439	s	s	10	1	SIC	418	ABS	2	1	02VD 10VO 02VC 02MD 02MO 02MC 02RD 02RO	0	1	1.81917190552	None	None	None	None	1
2.7	2015_May_18_1439	s	s	10	1	SIC	419	ABS	2	0	02VD 02VO 10VC 02MD 02MO 02MC 02RD 02RO	0	1	3.11864900589	None	None	None	None	1
2.7	2015_May_18_1439	s	s	10	1	SIC	420	RC	2	0	02VD 02VO 09VC 02MD 02MO 02MC 02RD 02RO	1	0	4.81949019432	-532.0	94.0	-532	98	1
2.7	2015_May_18_1439	s	s	10	1	SIC	421	RC	0	2	02VD 02VO 02VC 02MD 02MO 02MC 09RD 02RO	1	0	5.73800396919	450.0	154.0	445	152	1
2.7	2015_May_18_1439	s	s	10	1	SIC	422	ABS	1	2	02VD 02VO 02VC 10MD 02MO 02MC 02RD 02RO	0	1	4.98745512962	None	None	None	None	1
2.7	2015_May_18_1439	s	s	10	1	SIC	423	RC	2	1	02VD 09VO 02VC 02MD 02MO 02MC 02RD 02RO	0	1	8.08932995796	18.0	44.0	None	None	0
2.7	2015_May_18_1439	s	s	10	1	SIC	424	ABS	1	1	02VD 02VO 02VC 02MD 10MO 02MC 02RD 02RO	0	1	3.29154706001	None	None	None	None	1
2.7	2015_May_18_1439	s	s	10	1	SIC	425	RC	1	0	02VD 02VO 02VC 02MD 02MO 09MC 02RD 02RO	1	0	2.02072191238	-83.0	-326.0	-78	-323	1
2.7	2015_May_18_1439	s	s	10	1	SIC	426	ABS	0	2	02VD 02VO 02VC 02MD 02MO 02MC 10RD 02RO	0	1	2.47933101654	None	None	None	None	1
2.7	2015_May_18_1439	s	s	10	1	SIC	427	RC	0	1	02VD 02VO 02VC 02MD 02MO 02MC 02RD 09RO	1	0	4.55089521408	-359.0	362.0	-356	366	1
2.7	2015_May_18_1439	s	s	10	1	SIC	428	RC	2	2	09VD 02VO 02VC 02MD 02MO 02MC 02RD 02RO	1	0	4.68413305283	531.0	-236.0	530	-235	1
2.7	2015_May_18_1439	s	s	10	1	SIC	429	ABS	1	0	02VD 02VO 02VC 02MD 02MO 10MC 02RD 02RO	0	1	4.78580093384	None	None	None	None	1
2.7	2015_May_18_1439	s	s	10	1	SIC	430	RC	1	2	02VD 02VO 02VC 09MD 02MO 02MC 02RD 02RO	1	0	5.55515098572	332.0	-188.0	339	-188	1
2.7	2015_May_18_1439	s	s	10	1	SIC	431	ABS	0	1	02VD 02VO 02VC 02MD 02MO 02MC 02RD 10RO	0	1	5.15502405167	None	None	None	None	1
2.7	2015_May_18_1439	s	s	10	1	SIC	432	RC	1	1	02VD 02VO 02VC 02MD 09MO 02MC 02RD 02RO	1	0	5.35229301453	-109.0	-45.0	-112	-40	1
2.7	2015_May_18_1439	s	s	10	1	SIC	433	RC	2	1	02VD 09VO 02VC 02MD 02MO 02MC 02RD 02RO	1	0	0.949326038361	37.0	-222.0	36	-221	1
2.7	2015_May_18_1439	s	s	10	1	SIC	434	ABS	1	2	02VD 02VO 02VC 10MD 02MO 02MC 02RD 02RO	0	1	4.71920204163	None	None	None	None	1
2.7	2015_May_18_1439	s	s	10	1	SIC	435	RC	2	2	09VD 02VO 02VC 02MD 02MO 02MC 02RD 02RO	1	0	2.53898906708	160.0	-270.0	160	-272	1
2.7	2015_May_18_1439	s	s	10	1	SIC	436	ABS	2	1	02VD 10VO 02VC 02MD 02MO 02MC 02RD 02RO	0	1	1.56487083435	None	None	None	None	1
2.7	2015_May_18_1439	s	s	10	1	SIC	437	RC	2	0	02VD 02VO 09VC 02MD 02MO 02MC 02RD 02RO	1	0	1.86608409882	40.0	301.0	33	302	1
2.7	2015_May_18_1439	s	s	10	1	SIC	438	RC	0	2	02VD 02VO 02VC 02MD 02MO 02MC 09RD 02RO	1	0	1.94143009186	-500.0	-325.0	-506	-332	1
2.7	2015_May_18_1439	s	s	10	1	SIC	439	RC	1	0	02VD 02VO 02VC 02MD 02MO 09MC 02RD 02RO	1	0	1.47057509422	-119.0	-17.0	-119	-15	1
2.7	2015_May_18_1439	s	s	10	1	SIC	440	RC	0	1	02VD 02VO 02VC 02MD 02MO 02MC 02RD 09RO	1	0	3.16042709351	522.0	-401.0	525	-400	1
2.7	2015_May_18_1439	s	s	10	1	SIC	441	ABS	0	2	02VD 02VO 02VC 02MD 02MO 02MC 10RD 02RO	0	1	2.37399601936	None	None	None	None	1
2.7	2015_May_18_1439	s	s	10	1	SIC	442	ABS	2	0	02VD 02VO 10VC 02MD 02MO 02MC 02RD 02RO	0	1	1.92975187302	None	None	None	None	1
2.7	2015_May_18_1439	s	s	10	1	SIC	443	ABS	1	1	02VD 02VO 02VC 02MD 10MO 02MC 02RD 02RO	0	1	1.43526601791	None	None	None	None	1
2.7	2015_May_18_1439	s	s	10	1	SIC	444	RC	1	1	02VD 02VO 02VC 02MD 09MO 02MC 02RD 02RO	1	0	1.91795897484	-67.0	-208.0	-61	-203	1
2.7	2015_May_18_1439	s	s	10	1	SIC	445	ABS	0	1	02VD 02VO 02VC 02MD 02MO 02MC 02RD 10RO	0	1	2.8193089962	None	None	None	None	1
2.7	2015_May_18_1439	s	s	10	1	SIC	446	ABS	1	0	02VD 02VO 02VC 02MD 02MO 10MC 02RD 02RO	0	1	3.02083396912	None	None	None	None	1
2.7	2015_May_18_1439	s	s	10	1	SIC	447	RC	1	2	02VD 02VO 02VC 09MD 02MO 02MC 02RD 02RO	0	1	1.80032587051	373.0	-222.0	None	None	0
2.7	2015_May_18_1439	s	s	10	1	SIC	448	ABS	2	2	10VD 02VO 02VC 02MD 02MO 02MC 02RD 02RO	0	1	1.6680521965	None	None	None	None	1
2.7	2015_May_18_1439	s	s	10	1	SIC	449	ABS	0	1	02VD 02VO 02VC 02MD 02MO 02MC 02RD 10RO	0	1	4.54274201393	None	None	None	None	1
2.7	2015_May_18_1439	s	s	10	1	SIC	450	RC	2	1	02VD 09VO 02VC 02MD 02MO 02MC 02RD 02RO	1	0	3.95407009125	-200.0	-150.0	-197	-144	1
2.7	2015_May_18_1439	s	s	10	1	SIC	451	ABS	2	2	10VD 02VO 02VC 02MD 02MO 02MC 02RD 02RO	0	1	3.57047510147	None	None	None	None	1
2.7	2015_May_18_1439	s	s	10	1	SIC	452	ABS	0	2	02VD 02VO 02VC 02MD 02MO 02MC 10RD 02RO	0	1	1.85921001434	None	None	None	None	1
2.7	2015_May_18_1439	s	s	10	1	SIC	453	RC	2	2	09VD 02VO 02VC 02MD 02MO 02MC 02RD 02RO	1	0	1.21177315712	-1.0	-189.0	-1	-191	1
2.7	2015_May_18_1439	s	s	10	1	SIC	454	ABS	2	0	02VD 02VO 10VC 02MD 02MO 02MC 02RD 02RO	0	1	1.69096398354	None	None	None	None	1
2.7	2015_May_18_1439	s	s	10	1	SIC	455	ABS	1	0	02VD 02VO 02VC 02MD 02MO 10MC 02RD 02RO	0	1	2.29519200325	None	None	None	None	1
2.7	2015_May_18_1439	s	s	10	1	SIC	456	ABS	1	2	02VD 02VO 02VC 10MD 02MO 02MC 02RD 02RO	0	1	1.96507382393	None	None	None	None	1
2.7	2015_May_18_1439	s	s	10	1	SIC	457	ABS	2	1	02VD 10VO 02VC 02MD 02MO 02MC 02RD 02RO	0	1	2.42071509361	None	None	None	None	1
2.7	2015_May_18_1439	s	s	10	1	SIC	458	RC	1	1	02VD 02VO 02VC 02MD 09MO 02MC 02RD 02RO	1	0	1.5294752121	531.0	-194.0	533	-195	1
2.7	2015_May_18_1439	s	s	10	1	SIC	459	RC	1	0	02VD 02VO 02VC 02MD 02MO 09MC 02RD 02RO	1	0	1.5178399086	-426.0	183.0	-421	180	1
2.7	2015_May_18_1439	s	s	10	1	SIC	460	RC	0	2	02VD 02VO 02VC 02MD 02MO 02MC 09RD 02RO	1	0	1.29140686989	-358.0	349.0	-355	353	1
2.7	2015_May_18_1439	s	s	10	1	SIC	461	RC	0	1	02VD 02VO 02VC 02MD 02MO 02MC 02RD 09RO	1	0	1.64726686478	-27.0	239.0	-22	242	1
2.7	2015_May_18_1439	s	s	10	1	SIC	462	RC	1	2	02VD 02VO 02VC 09MD 02MO 02MC 02RD 02RO	1	0	4.43273806572	-420.0	286.0	-418	284	1
2.7	2015_May_18_1439	s	s	10	1	SIC	463	RC	2	0	02VD 02VO 09VC 02MD 02MO 02MC 02RD 02RO	1	0	1.56072807312	110.0	308.0	112	301	1
2.7	2015_May_18_1439	s	s	10	1	SIC	464	ABS	1	1	02VD 02VO 02VC 02MD 10MO 02MC 02RD 02RO	0	1	3.63092803955	None	None	None	None	1
2.7	2015_May_18_1439	s	s	10	1	SIC	465	RC	1	1	02VD 02VO 02VC 02MD 09MO 02MC 02RD 02RO	0	1	3.0775821209	535.0	194.0	None	None	0
2.7	2015_May_18_1439	s	s	10	1	SIC	466	RC	2	2	09VD 02VO 02VC 02MD 02MO 02MC 02RD 02RO	1	0	2.01274895668	359.0	-235.0	362	-234	1
2.7	2015_May_18_1439	s	s	10	1	SIC	467	RC	0	1	02VD 02VO 02VC 02MD 02MO 02MC 02RD 09RO	0	1	3.60733485222	250.0	-97.0	None	None	0
2.7	2015_May_18_1439	s	s	10	1	SIC	468	ABS	2	2	10VD 02VO 02VC 02MD 02MO 02MC 02RD 02RO	0	1	1.83559799194	None	None	None	None	1
2.7	2015_May_18_1439	s	s	10	1	SIC	469	RC	2	0	02VD 02VO 09VC 02MD 02MO 02MC 02RD 02RO	1	0	2.61911416054	310.0	-128.0	314	-127	1
2.7	2015_May_18_1439	s	s	10	1	SIC	470	ABS	0	1	02VD 02VO 02VC 02MD 02MO 02MC 02RD 10RO	0	1	4.26941800117	None	None	None	None	1
2.7	2015_May_18_1439	s	s	10	1	SIC	471	RC	1	0	02VD 02VO 02VC 02MD 02MO 09MC 02RD 02RO	1	0	1.09404397011	78.0	-316.0	67	-315	1
2.7	2015_May_18_1439	s	s	10	1	SIC	472	ABS	1	1	02VD 02VO 02VC 02MD 10MO 02MC 02RD 02RO	0	1	1.78901410103	None	None	None	None	1
2.7	2015_May_18_1439	s	s	10	1	SIC	473	ABS	1	0	02VD 02VO 02VC 02MD 02MO 10MC 02RD 02RO	0	1	3.38654494286	None	None	None	None	1
2.7	2015_May_18_1439	s	s	10	1	SIC	474	ABS	1	2	02VD 02VO 02VC 10MD 02MO 02MC 02RD 02RO	0	1	2.18247079849	None	None	None	None	1
2.7	2015_May_18_1439	s	s	10	1	SIC	475	ABS	2	0	02VD 02VO 10VC 02MD 02MO 02MC 02RD 02RO	0	1	1.19514393806	None	None	None	None	1
2.7	2015_May_18_1439	s	s	10	1	SIC	476	RC	1	2	02VD 02VO 02VC 09MD 02MO 02MC 02RD 02RO	1	0	1.84360694885	-404.0	192.0	-408	187	1
2.7	2015_May_18_1439	s	s	10	1	SIC	477	RC	0	2	02VD 02VO 02VC 02MD 02MO 02MC 09RD 02RO	1	0	4.56145215034	388.0	213.0	392	222	1
2.7	2015_May_18_1439	s	s	10	1	SIC	478	RC	2	1	02VD 09VO 02VC 02MD 02MO 02MC 02RD 02RO	1	0	3.29003810883	-283.0	-380.0	-283	-381	1
2.7	2015_May_18_1439	s	s	10	1	SIC	479	ABS	2	1	02VD 10VO 02VC 02MD 02MO 02MC 02RD 02RO	0	1	2.50656890869	None	None	None	None	1
2.7	2015_May_18_1439	s	s	10	1	SIC	480	ABS	0	2	02VD 02VO 02VC 02MD 02MO 02MC 10RD 02RO	0	1	1.47667098045	None	None	None	None	1
