Version	Date	Stimuli	Method	Subject	Session	Condition	Trial	Target	Channel1	Channel2	Distractors	LMouseButton	RMouseButton	RT	TargetX	TargetY	ResponseX	ResponseY	Correct
2.7	2015_May_27_1347	s	s	10	5	Capacity	1	RC	2	0	15VC 08MC	1	0	2.26601982117	-354.0	-64.0	-360	-64	1
2.7	2015_May_27_1347	s	s	10	5	Capacity	2	ABS	1	0	08VC 16MC	1	0	14.1684229374	None	None	321	80	0
2.7	2015_May_27_1347	s	s	10	5	Capacity	3	RC	1	0	08VC 15MC	1	0	7.09444189072	-199.0	-71.0	-206	-62	1
2.7	2015_May_27_1347	s	s	10	5	Capacity	4	ABS	2	0	16VC 08MC	0	1	9.03604197502	None	None	None	None	1
2.7	2015_May_27_1347	s	s	10	5	Capacity	5	RC	2	0	15VC 08MC	1	0	3.22192883492	-397.0	130.0	-399	126	1
2.7	2015_May_27_1347	s	s	10	5	Capacity	6	RC	1	0	08VC 15MC	1	0	2.0891430378	244.0	-269.0	246	-261	1
2.7	2015_May_27_1347	s	s	10	5	Capacity	7	ABS	1	0	08VC 16MC	0	1	2.68304800987	None	None	None	None	1
2.7	2015_May_27_1347	s	s	10	5	Capacity	8	ABS	2	0	16VC 08MC	0	1	1.61787104607	None	None	None	None	1
2.7	2015_May_27_1347	s	s	10	5	Capacity	9	ABS	1	0	08VC 16MC	0	1	5.10240387917	None	None	None	None	1
2.7	2015_May_27_1347	s	s	10	5	Capacity	10	RC	1	0	08VC 15MC	1	0	4.39601612091	275.0	-371.0	276	-372	1
2.7	2015_May_27_1347	s	s	10	5	Capacity	11	RC	2	0	15VC 08MC	0	1	3.5142519474	-329.0	-383.0	None	None	0
2.7	2015_May_27_1347	s	s	10	5	Capacity	12	ABS	2	0	16VC 08MC	0	1	8.90456700325	None	None	None	None	1
2.7	2015_May_27_1347	s	s	10	5	Capacity	13	ABS	2	0	16VC 08MC	0	1	4.64874386787	None	None	None	None	1
2.7	2015_May_27_1347	s	s	10	5	Capacity	14	RC	1	0	08VC 15MC	1	0	2.71362185478	442.0	-32.0	443	-24	1
2.7	2015_May_27_1347	s	s	10	5	Capacity	15	RC	2	0	15VC 08MC	1	0	4.74063706398	-127.0	-224.0	-128	-222	1
2.7	2015_May_27_1347	s	s	10	5	Capacity	16	ABS	1	0	08VC 16MC	0	1	7.77583503723	None	None	None	None	1
2.7	2015_May_27_1347	s	s	10	5	Capacity	17	RC	2	0	15VC 08MC	1	0	3.15121412277	-142.0	34.0	-141	31	1
2.7	2015_May_27_1347	s	s	10	5	Capacity	18	ABS	1	0	08VC 16MC	0	1	6.97448801994	None	None	None	None	1
2.7	2015_May_27_1347	s	s	10	5	Capacity	19	ABS	2	0	16VC 08MC	0	1	1.80560612679	None	None	None	None	1
2.7	2015_May_27_1347	s	s	10	5	Capacity	20	RC	1	0	08VC 15MC	1	0	4.37791991234	282.0	-148.0	289	-145	1
2.7	2015_May_27_1347	s	s	10	5	Capacity	21	ABS	1	0	08VC 16MC	0	1	2.10636591911	None	None	None	None	1
2.7	2015_May_27_1347	s	s	10	5	Capacity	22	ABS	2	0	16VC 08MC	0	1	2.07143998146	None	None	None	None	1
2.7	2015_May_27_1347	s	s	10	5	Capacity	23	RC	2	0	15VC 08MC	1	0	2.71522712708	446.0	15.0	455	18	1
2.7	2015_May_27_1347	s	s	10	5	Capacity	24	RC	1	0	08VC 15MC	1	0	3.6307580471	503.0	-13.0	503	-14	1
2.7	2015_May_27_1347	s	s	10	5	Capacity	25	ABS	2	0	16VC 08MC	0	1	6.9087998867	None	None	None	None	1
2.7	2015_May_27_1347	s	s	10	5	Capacity	26	ABS	1	0	08VC 16MC	0	1	5.37497591972	None	None	None	None	1
2.7	2015_May_27_1347	s	s	10	5	Capacity	27	RC	1	0	08VC 15MC	1	0	2.32721304893	-320.0	-282.0	-322	-280	1
2.7	2015_May_27_1347	s	s	10	5	Capacity	28	RC	2	0	15VC 08MC	1	0	4.46039390564	140.0	141.0	146	144	1
2.7	2015_May_27_1347	s	s	10	5	Capacity	29	ABS	1	0	08VC 16MC	0	1	5.62574315071	None	None	None	None	1
2.7	2015_May_27_1347	s	s	10	5	Capacity	30	RC	1	0	08VC 15MC	1	0	2.56538009644	461.0	389.0	458	393	1
2.7	2015_May_27_1347	s	s	10	5	Capacity	31	ABS	2	0	16VC 08MC	0	1	5.11747193336	None	None	None	None	1
2.7	2015_May_27_1347	s	s	10	5	Capacity	32	RC	2	0	15VC 08MC	1	0	2.76549291611	517.0	-40.0	518	-43	1
2.7	2015_May_27_1347	s	s	10	5	Capacity	33	ABS	2	0	16VC 08MC	0	1	2.37711310387	None	None	None	None	1
2.7	2015_May_27_1347	s	s	10	5	Capacity	34	RC	1	0	08VC 15MC	0	1	4.20987200737	472.0	-87.0	None	None	0
2.7	2015_May_27_1347	s	s	10	5	Capacity	35	ABS	1	0	08VC 16MC	0	1	2.57378697395	None	None	None	None	1
2.7	2015_May_27_1347	s	s	10	5	Capacity	36	RC	2	0	15VC 08MC	1	0	1.42365193367	256.0	203.0	256	201	1
2.7	2015_May_27_1347	s	s	10	5	Capacity	37	ABS	2	0	16VC 08MC	0	1	5.04897999763	None	None	None	None	1
2.7	2015_May_27_1347	s	s	10	5	Capacity	38	RC	1	0	08VC 15MC	1	0	1.52688217163	225.0	-3.0	218	1	1
2.7	2015_May_27_1347	s	s	10	5	Capacity	39	RC	2	0	15VC 08MC	1	0	1.04693102837	461.0	253.0	462	255	1
2.7	2015_May_27_1347	s	s	10	5	Capacity	40	ABS	1	0	08VC 16MC	0	1	1.87098407745	None	None	None	None	1
2.7	2015_May_27_1347	s	s	10	5	Capacity	41	RC	1	0	08VC 15MC	1	0	0.862334012985	528.0	22.0	533	21	1
2.7	2015_May_27_1347	s	s	10	5	Capacity	42	ABS	2	0	16VC 08MC	0	1	1.91463518143	None	None	None	None	1
2.7	2015_May_27_1347	s	s	10	5	Capacity	43	RC	2	0	15VC 08MC	1	0	1.44712305069	263.0	293.0	257	289	1
2.7	2015_May_27_1347	s	s	10	5	Capacity	44	ABS	1	0	08VC 16MC	0	1	1.57094407082	None	None	None	None	1
2.7	2015_May_27_1347	s	s	10	5	Capacity	45	RC	2	0	15VC 08MC	1	0	2.26658391953	-472.0	-334.0	-469	-328	1
2.7	2015_May_27_1347	s	s	10	5	Capacity	46	RC	1	0	08VC 15MC	1	0	1.99217796326	-533.0	190.0	-533	195	1
2.7	2015_May_27_1347	s	s	10	5	Capacity	47	ABS	2	0	16VC 08MC	0	1	1.30274820328	None	None	None	None	1
2.7	2015_May_27_1347	s	s	10	5	Capacity	48	ABS	1	0	08VC 16MC	0	1	1.36461496353	None	None	None	None	1
2.7	2015_May_27_1347	s	s	10	5	Capacity	49	ABS	1	0	08VC 16MC	0	1	1.29420995712	None	None	None	None	1
2.7	2015_May_27_1347	s	s	10	5	Capacity	50	RC	2	0	15VC 08MC	1	0	0.681985139847	-462.0	-216.0	-459	-215	1
2.7	2015_May_27_1347	s	s	10	5	Capacity	51	ABS	2	0	16VC 08MC	0	1	1.82394504547	None	None	None	None	1
2.7	2015_May_27_1347	s	s	10	5	Capacity	52	RC	1	0	08VC 15MC	1	0	2.05961418152	-426.0	-218.0	-423	-218	1
2.7	2015_May_27_1347	s	s	10	5	Capacity	53	RC	2	0	15VC 08MC	1	0	0.834903001785	-260.0	217.0	-255	211	1
2.7	2015_May_27_1347	s	s	10	5	Capacity	54	RC	1	0	08VC 15MC	1	0	0.785315036774	-332.0	54.0	-332	58	1
2.7	2015_May_27_1347	s	s	10	5	Capacity	55	ABS	2	0	16VC 08MC	0	1	2.77423810959	None	None	None	None	1
2.7	2015_May_27_1347	s	s	10	5	Capacity	56	ABS	1	0	08VC 16MC	0	1	2.08332300186	None	None	None	None	1
2.7	2015_May_27_1347	s	s	10	5	Capacity	57	ABS	1	0	08VC 16MC	0	1	3.76271700859	None	None	None	None	1
2.7	2015_May_27_1347	s	s	10	5	Capacity	58	RC	2	0	15VC 08MC	1	0	1.34121108055	-492.0	-99.0	-484	-91	1
2.7	2015_May_27_1347	s	s	10	5	Capacity	59	ABS	2	0	16VC 08MC	0	1	2.53947401047	None	None	None	None	1
2.7	2015_May_27_1347	s	s	10	5	Capacity	60	RC	1	0	08VC 15MC	1	0	1.03518104553	239.0	-25.0	238	-31	1
2.7	2015_May_27_1347	s	s	10	5	Capacity	61	RC	2	0	15VC 08MC	1	0	1.77106881142	-107.0	-351.0	-107	-350	1
2.7	2015_May_27_1347	s	s	10	5	Capacity	62	ABS	2	0	16VC 08MC	0	1	1.40012788773	None	None	None	None	1
2.7	2015_May_27_1347	s	s	10	5	Capacity	63	RC	1	0	08VC 15MC	1	0	0.982002973557	283.0	205.0	275	209	1
2.7	2015_May_27_1347	s	s	10	5	Capacity	64	ABS	1	0	08VC 16MC	0	1	1.86722302437	None	None	None	None	1
2.7	2015_May_27_1347	s	s	10	5	Capacity	1	ABS	0	1	08RD 16RO	0	1	3.30678701401	None	None	None	None	1
2.7	2015_May_27_1347	s	s	10	5	Capacity	2	RC	0	2	15RD 08RO	0	1	1.67686414719	-121.0	338.0	None	None	0
2.7	2015_May_27_1347	s	s	10	5	Capacity	3	ABS	0	2	16RD 08RO	0	1	1.50000286102	None	None	None	None	1
2.7	2015_May_27_1347	s	s	10	5	Capacity	4	RC	0	1	08RD 15RO	1	0	1.28236293793	46.0	-380.0	39	-372	1
2.7	2015_May_27_1347	s	s	10	5	Capacity	5	RC	0	2	15RD 08RO	1	0	1.1998500824	88.0	398.0	82	402	1
2.7	2015_May_27_1347	s	s	10	5	Capacity	6	ABS	0	2	16RD 08RO	0	1	2.38595890999	None	None	None	None	1
2.7	2015_May_27_1347	s	s	10	5	Capacity	7	RC	0	1	08RD 15RO	1	0	1.68848800659	421.0	-212.0	417	-209	1
2.7	2015_May_27_1347	s	s	10	5	Capacity	8	ABS	0	1	08RD 16RO	0	1	2.9065887928	None	None	None	None	1
2.7	2015_May_27_1347	s	s	10	5	Capacity	9	ABS	0	2	16RD 08RO	0	1	2.71871304512	None	None	None	None	1
2.7	2015_May_27_1347	s	s	10	5	Capacity	10	RC	0	2	15RD 08RO	0	1	0.253115177155	-82.0	290.0	None	None	0
2.7	2015_May_27_1347	s	s	10	5	Capacity	11	ABS	0	1	08RD 16RO	0	1	3.42463517189	None	None	None	None	1
2.7	2015_May_27_1347	s	s	10	5	Capacity	12	RC	0	1	08RD 15RO	1	0	2.75960993767	-140.0	192.0	-138	196	1
2.7	2015_May_27_1347	s	s	10	5	Capacity	13	RC	0	2	15RD 08RO	1	0	1.23019003868	66.0	-185.0	65	-177	1
2.7	2015_May_27_1347	s	s	10	5	Capacity	14	RC	0	1	08RD 15RO	1	0	2.82417321205	-441.0	118.0	-442	123	1
2.7	2015_May_27_1347	s	s	10	5	Capacity	15	ABS	0	1	08RD 16RO	0	1	4.23321700096	None	None	None	None	1
2.7	2015_May_27_1347	s	s	10	5	Capacity	16	ABS	0	2	16RD 08RO	0	1	2.52611112595	None	None	None	None	1
2.7	2015_May_27_1347	s	s	10	5	Capacity	17	RC	0	2	15RD 08RO	1	0	0.844067811966	-9.0	-138.0	-7	-135	1
2.7	2015_May_27_1347	s	s	10	5	Capacity	18	RC	0	1	08RD 15RO	1	0	1.48243999481	143.0	-403.0	145	-409	1
2.7	2015_May_27_1347	s	s	10	5	Capacity	19	ABS	0	1	08RD 16RO	0	1	4.6440320015	None	None	None	None	1
2.7	2015_May_27_1347	s	s	10	5	Capacity	20	ABS	0	2	16RD 08RO	0	1	2.85588407516	None	None	None	None	1
2.7	2015_May_27_1347	s	s	10	5	Capacity	21	RC	0	1	08RD 15RO	1	0	4.01977992058	28.0	-308.0	30	-306	1
2.7	2015_May_27_1347	s	s	10	5	Capacity	22	RC	0	2	15RD 08RO	1	0	2.45942091942	42.0	160.0	43	160	1
2.7	2015_May_27_1347	s	s	10	5	Capacity	23	ABS	0	1	08RD 16RO	0	1	4.34278798103	None	None	None	None	1
2.7	2015_May_27_1347	s	s	10	5	Capacity	24	ABS	0	2	16RD 08RO	0	1	3.64314103127	None	None	None	None	1
2.7	2015_May_27_1347	s	s	10	5	Capacity	25	RC	0	1	08RD 15RO	1	0	5.00196790695	-462.0	221.0	-466	222	1
2.7	2015_May_27_1347	s	s	10	5	Capacity	26	ABS	0	1	08RD 16RO	0	1	6.1401758194	None	None	None	None	1
2.7	2015_May_27_1347	s	s	10	5	Capacity	27	ABS	0	2	16RD 08RO	0	1	1.93840718269	None	None	None	None	1
2.7	2015_May_27_1347	s	s	10	5	Capacity	28	RC	0	2	15RD 08RO	1	0	0.976403951645	-248.0	87.0	-247	83	1
2.7	2015_May_27_1347	s	s	10	5	Capacity	29	ABS	0	1	08RD 16RO	0	1	3.91621685028	None	None	None	None	1
2.7	2015_May_27_1347	s	s	10	5	Capacity	30	ABS	0	2	16RD 08RO	0	1	2.16518497467	None	None	None	None	1
2.7	2015_May_27_1347	s	s	10	5	Capacity	31	RC	0	2	15RD 08RO	1	0	0.948132038116	-223.0	-39.0	-224	-35	1
2.7	2015_May_27_1347	s	s	10	5	Capacity	32	RC	0	1	08RD 15RO	1	0	2.19682383537	334.0	152.0	327	148	1
2.7	2015_May_27_1347	s	s	10	5	Capacity	33	ABS	0	1	08RD 16RO	0	1	3.13949108124	None	None	None	None	1
2.7	2015_May_27_1347	s	s	10	5	Capacity	34	RC	0	2	15RD 08RO	1	0	1.79806804657	36.0	-299.0	45	-299	1
2.7	2015_May_27_1347	s	s	10	5	Capacity	35	ABS	0	2	16RD 08RO	0	1	2.52499508858	None	None	None	None	1
2.7	2015_May_27_1347	s	s	10	5	Capacity	36	RC	0	1	08RD 15RO	1	0	2.29072403908	-302.0	-83.0	-309	-78	1
2.7	2015_May_27_1347	s	s	10	5	Capacity	37	RC	0	2	15RD 08RO	1	0	2.28286504745	-92.0	168.0	-97	169	1
2.7	2015_May_27_1347	s	s	10	5	Capacity	38	ABS	0	2	16RD 08RO	0	1	2.71325707436	None	None	None	None	1
2.7	2015_May_27_1347	s	s	10	5	Capacity	39	RC	0	1	08RD 15RO	1	0	3.5186560154	-256.0	-127.0	-253	-126	1
2.7	2015_May_27_1347	s	s	10	5	Capacity	40	ABS	0	1	08RD 16RO	0	1	5.39865398407	None	None	None	None	1
2.7	2015_May_27_1347	s	s	10	5	Capacity	41	RC	0	2	15RD 08RO	0	1	3.46676898003	-301.0	361.0	None	None	0
2.7	2015_May_27_1347	s	s	10	5	Capacity	42	ABS	0	1	08RD 16RO	0	1	9.26819491386	None	None	None	None	1
2.7	2015_May_27_1347	s	s	10	5	Capacity	43	RC	0	1	08RD 15RO	0	1	5.24352908134	-512.0	-77.0	None	None	0
2.7	2015_May_27_1347	s	s	10	5	Capacity	44	ABS	0	2	16RD 08RO	0	1	4.71126699448	None	None	None	None	1
2.7	2015_May_27_1347	s	s	10	5	Capacity	45	RC	0	1	08RD 15RO	1	0	2.98561191559	-425.0	-198.0	-429	-197	1
2.7	2015_May_27_1347	s	s	10	5	Capacity	46	ABS	0	2	16RD 08RO	0	1	2.38925719261	None	None	None	None	1
2.7	2015_May_27_1347	s	s	10	5	Capacity	47	ABS	0	1	08RD 16RO	0	1	3.72495794296	None	None	None	None	1
2.7	2015_May_27_1347	s	s	10	5	Capacity	48	RC	0	2	15RD 08RO	1	0	1.1952688694	267.0	144.0	272	152	1
2.7	2015_May_27_1347	s	s	10	5	Capacity	49	RC	0	1	08RD 15RO	1	0	3.27160716057	349.0	-183.0	354	-182	1
2.7	2015_May_27_1347	s	s	10	5	Capacity	50	RC	0	2	15RD 08RO	1	0	1.97688889503	511.0	-338.0	513	-344	1
2.7	2015_May_27_1347	s	s	10	5	Capacity	51	ABS	0	1	08RD 16RO	0	1	2.200289011	None	None	None	None	1
2.7	2015_May_27_1347	s	s	10	5	Capacity	52	ABS	0	2	16RD 08RO	0	1	2.7270720005	None	None	None	None	1
2.7	2015_May_27_1347	s	s	10	5	Capacity	53	ABS	0	2	16RD 08RO	0	1	9.40456700325	None	None	None	None	1
2.7	2015_May_27_1347	s	s	10	5	Capacity	54	RC	0	1	08RD 15RO	1	0	1.04701495171	65.0	-66.0	66	-75	1
2.7	2015_May_27_1347	s	s	10	5	Capacity	55	RC	0	2	15RD 08RO	1	0	2.05556488037	388.0	-92.0	391	-93	1
2.7	2015_May_27_1347	s	s	10	5	Capacity	56	ABS	0	1	08RD 16RO	0	1	3.57241201401	None	None	None	None	1
2.7	2015_May_27_1347	s	s	10	5	Capacity	57	ABS	0	2	16RD 08RO	0	1	2.17384696007	None	None	None	None	1
2.7	2015_May_27_1347	s	s	10	5	Capacity	58	RC	0	1	08RD 15RO	1	0	1.76500105858	423.0	9.0	418	5	1
2.7	2015_May_27_1347	s	s	10	5	Capacity	59	ABS	0	1	08RD 16RO	0	1	5.52711105347	None	None	None	None	1
2.7	2015_May_27_1347	s	s	10	5	Capacity	60	RC	0	2	15RD 08RO	1	0	3.46824598312	360.0	185.0	364	185	1
2.7	2015_May_27_1347	s	s	10	5	Capacity	61	RC	0	2	15RD 08RO	1	0	2.49465894699	228.0	-67.0	223	-64	1
2.7	2015_May_27_1347	s	s	10	5	Capacity	62	ABS	0	2	16RD 08RO	0	1	3.52557301521	None	None	None	None	1
2.7	2015_May_27_1347	s	s	10	5	Capacity	63	ABS	0	1	08RD 16RO	0	1	3.97521495819	None	None	None	None	1
2.7	2015_May_27_1347	s	s	10	5	Capacity	64	RC	0	1	08RD 15RO	1	0	3.40104794502	337.0	44.0	334	52	1
2.7	2015_May_27_1347	s	s	10	5	SIC	1	ABS	0	1	02VD 02VO 02VC 02MD 02MO 02MC 02RD 10RO	0	1	3.44576311111	None	None	None	None	1
2.7	2015_May_27_1347	s	s	10	5	SIC	2	ABS	2	2	10VD 02VO 02VC 02MD 02MO 02MC 02RD 02RO	0	1	3.00086307526	None	None	None	None	1
2.7	2015_May_27_1347	s	s	10	5	SIC	3	RC	0	1	02VD 02VO 02VC 02MD 02MO 02MC 02RD 09RO	1	0	1.34818887711	365.0	-20.0	354	-17	1
2.7	2015_May_27_1347	s	s	10	5	SIC	4	RC	1	1	02VD 02VO 02VC 02MD 09MO 02MC 02RD 02RO	1	0	3.83304810524	-341.0	263.0	-343	253	1
2.7	2015_May_27_1347	s	s	10	5	SIC	5	RC	2	2	09VD 02VO 02VC 02MD 02MO 02MC 02RD 02RO	1	0	3.42173194885	380.0	270.0	374	275	1
2.7	2015_May_27_1347	s	s	10	5	SIC	6	RC	2	1	02VD 09VO 02VC 02MD 02MO 02MC 02RD 02RO	1	0	2.56525492668	-31.0	93.0	-36	92	1
2.7	2015_May_27_1347	s	s	10	5	SIC	7	ABS	1	1	02VD 02VO 02VC 02MD 10MO 02MC 02RD 02RO	0	1	2.36517500877	None	None	None	None	1
2.7	2015_May_27_1347	s	s	10	5	SIC	8	ABS	2	0	02VD 02VO 10VC 02MD 02MO 02MC 02RD 02RO	0	1	1.84735417366	None	None	None	None	1
2.7	2015_May_27_1347	s	s	10	5	SIC	9	ABS	1	2	02VD 02VO 02VC 10MD 02MO 02MC 02RD 02RO	0	1	2.28287696838	None	None	None	None	1
2.7	2015_May_27_1347	s	s	10	5	SIC	10	RC	1	2	02VD 02VO 02VC 09MD 02MO 02MC 02RD 02RO	0	1	2.3535220623	534.0	152.0	None	None	0
2.7	2015_May_27_1347	s	s	10	5	SIC	11	RC	1	0	02VD 02VO 02VC 02MD 02MO 09MC 02RD 02RO	1	0	2.63038802147	234.0	-136.0	230	-132	1
2.7	2015_May_27_1347	s	s	10	5	SIC	12	ABS	2	1	02VD 10VO 02VC 02MD 02MO 02MC 02RD 02RO	0	1	2.6323390007	None	None	None	None	1
2.7	2015_May_27_1347	s	s	10	5	SIC	13	ABS	1	0	02VD 02VO 02VC 02MD 02MO 10MC 02RD 02RO	0	1	2.3181989193	None	None	None	None	1
2.7	2015_May_27_1347	s	s	10	5	SIC	14	RC	0	2	02VD 02VO 02VC 02MD 02MO 02MC 09RD 02RO	1	0	1.40685892105	-70.0	-71.0	-60	-62	1
2.7	2015_May_27_1347	s	s	10	5	SIC	15	RC	2	0	02VD 02VO 09VC 02MD 02MO 02MC 02RD 02RO	1	0	1.30025291443	-274.0	-11.0	-267	-6	1
2.7	2015_May_27_1347	s	s	10	5	SIC	16	ABS	0	2	02VD 02VO 02VC 02MD 02MO 02MC 10RD 02RO	0	1	1.15660119057	None	None	None	None	1
2.7	2015_May_27_1347	s	s	10	5	SIC	17	ABS	2	2	10VD 02VO 02VC 02MD 02MO 02MC 02RD 02RO	0	1	1.64727711678	None	None	None	None	1
2.7	2015_May_27_1347	s	s	10	5	SIC	18	ABS	1	0	02VD 02VO 02VC 02MD 02MO 10MC 02RD 02RO	0	1	1.45898008347	None	None	None	None	1
2.7	2015_May_27_1347	s	s	10	5	SIC	19	ABS	1	2	02VD 02VO 02VC 10MD 02MO 02MC 02RD 02RO	0	1	1.03518915176	None	None	None	None	1
2.7	2015_May_27_1347	s	s	10	5	SIC	20	RC	1	1	02VD 02VO 02VC 02MD 09MO 02MC 02RD 02RO	1	0	1.12962007523	-389.0	-153.0	-385	-154	1
2.7	2015_May_27_1347	s	s	10	5	SIC	21	RC	1	0	02VD 02VO 02VC 02MD 02MO 09MC 02RD 02RO	1	0	1.31412911415	223.0	72.0	219	78	1
2.7	2015_May_27_1347	s	s	10	5	SIC	22	RC	2	0	02VD 02VO 09VC 02MD 02MO 02MC 02RD 02RO	1	0	0.99971985817	-268.0	262.0	-276	268	1
2.7	2015_May_27_1347	s	s	10	5	SIC	23	RC	0	1	02VD 02VO 02VC 02MD 02MO 02MC 02RD 09RO	1	0	2.01202011108	118.0	-142.0	120	-141	1
2.7	2015_May_27_1347	s	s	10	5	SIC	24	RC	1	2	02VD 02VO 02VC 09MD 02MO 02MC 02RD 02RO	1	0	0.853538990021	-224.0	-33.0	-228	-30	1
2.7	2015_May_27_1347	s	s	10	5	SIC	25	ABS	2	0	02VD 02VO 10VC 02MD 02MO 02MC 02RD 02RO	0	1	1.7146229744	None	None	None	None	1
2.7	2015_May_27_1347	s	s	10	5	SIC	26	RC	2	1	02VD 09VO 02VC 02MD 02MO 02MC 02RD 02RO	0	1	1.01916885376	490.0	-341.0	None	None	0
2.7	2015_May_27_1347	s	s	10	5	SIC	27	ABS	0	2	02VD 02VO 02VC 02MD 02MO 02MC 10RD 02RO	0	1	1.53873705864	None	None	None	None	1
2.7	2015_May_27_1347	s	s	10	5	SIC	28	RC	2	2	09VD 02VO 02VC 02MD 02MO 02MC 02RD 02RO	1	0	0.952745914459	66.0	125.0	61	124	1
2.7	2015_May_27_1347	s	s	10	5	SIC	29	RC	0	2	02VD 02VO 02VC 02MD 02MO 02MC 09RD 02RO	1	0	1.30024194717	-301.0	106.0	-299	107	1
2.7	2015_May_27_1347	s	s	10	5	SIC	30	ABS	0	1	02VD 02VO 02VC 02MD 02MO 02MC 02RD 10RO	0	1	2.06797099113	None	None	None	None	1
2.7	2015_May_27_1347	s	s	10	5	SIC	31	ABS	2	1	02VD 10VO 02VC 02MD 02MO 02MC 02RD 02RO	0	1	1.5856859684	None	None	None	None	1
2.7	2015_May_27_1347	s	s	10	5	SIC	32	ABS	1	1	02VD 02VO 02VC 02MD 10MO 02MC 02RD 02RO	0	1	1.78878688812	None	None	None	None	1
2.7	2015_May_27_1347	s	s	10	5	SIC	33	RC	2	2	09VD 02VO 02VC 02MD 02MO 02MC 02RD 02RO	1	0	0.776751041412	-382.0	-42.0	-383	-52	1
2.7	2015_May_27_1347	s	s	10	5	SIC	34	ABS	2	0	02VD 02VO 10VC 02MD 02MO 02MC 02RD 02RO	0	1	1.46579194069	None	None	None	None	1
2.7	2015_May_27_1347	s	s	10	5	SIC	35	ABS	1	0	02VD 02VO 02VC 02MD 02MO 10MC 02RD 02RO	0	1	1.84231901169	None	None	None	None	1
2.7	2015_May_27_1347	s	s	10	5	SIC	36	ABS	2	1	02VD 10VO 02VC 02MD 02MO 02MC 02RD 02RO	0	1	2.22139906883	None	None	None	None	1
2.7	2015_May_27_1347	s	s	10	5	SIC	37	RC	1	0	02VD 02VO 02VC 02MD 02MO 09MC 02RD 02RO	1	0	2.78663897514	331.0	-399.0	334	-390	1
2.7	2015_May_27_1347	s	s	10	5	SIC	38	ABS	1	1	02VD 02VO 02VC 02MD 10MO 02MC 02RD 02RO	0	1	2.02446699142	None	None	None	None	1
2.7	2015_May_27_1347	s	s	10	5	SIC	39	ABS	1	2	02VD 02VO 02VC 10MD 02MO 02MC 02RD 02RO	0	1	1.88959312439	None	None	None	None	1
2.7	2015_May_27_1347	s	s	10	5	SIC	40	RC	2	1	02VD 09VO 02VC 02MD 02MO 02MC 02RD 02RO	1	0	1.21179795265	171.0	332.0	171	333	1
2.7	2015_May_27_1347	s	s	10	5	SIC	41	RC	1	1	02VD 02VO 02VC 02MD 09MO 02MC 02RD 02RO	0	1	1.6119120121	-426.0	-220.0	None	None	0
2.7	2015_May_27_1347	s	s	10	5	SIC	42	ABS	0	2	02VD 02VO 02VC 02MD 02MO 02MC 10RD 02RO	0	1	1.71299600601	None	None	None	None	1
2.7	2015_May_27_1347	s	s	10	5	SIC	43	ABS	2	2	10VD 02VO 02VC 02MD 02MO 02MC 02RD 02RO	0	1	1.08222699165	None	None	None	None	1
2.7	2015_May_27_1347	s	s	10	5	SIC	44	RC	1	2	02VD 02VO 02VC 09MD 02MO 02MC 02RD 02RO	1	0	0.829496145248	-382.0	28.0	-376	26	1
2.7	2015_May_27_1347	s	s	10	5	SIC	45	ABS	0	1	02VD 02VO 02VC 02MD 02MO 02MC 02RD 10RO	0	1	3.05974912643	None	None	None	None	1
2.7	2015_May_27_1347	s	s	10	5	SIC	46	RC	0	2	02VD 02VO 02VC 02MD 02MO 02MC 09RD 02RO	1	0	1.51437807083	163.0	-302.0	161	-293	1
2.7	2015_May_27_1347	s	s	10	5	SIC	47	RC	0	1	02VD 02VO 02VC 02MD 02MO 02MC 02RD 09RO	1	0	5.91998291016	-524.0	-264.0	-521	-265	1
2.7	2015_May_27_1347	s	s	10	5	SIC	48	RC	2	0	02VD 02VO 09VC 02MD 02MO 02MC 02RD 02RO	1	0	1.77145814896	529.0	78.0	535	82	1
2.7	2015_May_27_1347	s	s	10	5	SIC	49	ABS	1	1	02VD 02VO 02VC 02MD 10MO 02MC 02RD 02RO	0	1	2.10629010201	None	None	None	None	1
2.7	2015_May_27_1347	s	s	10	5	SIC	50	RC	2	1	02VD 09VO 02VC 02MD 02MO 02MC 02RD 02RO	1	0	2.21947383881	8.0	-39.0	2	-42	1
2.7	2015_May_27_1347	s	s	10	5	SIC	51	ABS	1	2	02VD 02VO 02VC 10MD 02MO 02MC 02RD 02RO	0	1	1.77101397514	None	None	None	None	1
2.7	2015_May_27_1347	s	s	10	5	SIC	52	ABS	2	2	10VD 02VO 02VC 02MD 02MO 02MC 02RD 02RO	0	1	1.48249101639	None	None	None	None	1
2.7	2015_May_27_1347	s	s	10	5	SIC	53	ABS	0	2	02VD 02VO 02VC 02MD 02MO 02MC 10RD 02RO	0	1	2.00746703148	None	None	None	None	1
2.7	2015_May_27_1347	s	s	10	5	SIC	54	RC	0	1	02VD 02VO 02VC 02MD 02MO 02MC 02RD 09RO	1	0	1.87774300575	371.0	57.0	372	46	1
2.7	2015_May_27_1347	s	s	10	5	SIC	55	RC	0	2	02VD 02VO 02VC 02MD 02MO 02MC 09RD 02RO	0	1	1.79222297668	-315.0	-245.0	None	None	0
2.7	2015_May_27_1347	s	s	10	5	SIC	56	RC	1	2	02VD 02VO 02VC 09MD 02MO 02MC 02RD 02RO	1	0	3.82482910156	-484.0	156.0	-482	151	1
2.7	2015_May_27_1347	s	s	10	5	SIC	57	RC	2	2	09VD 02VO 02VC 02MD 02MO 02MC 02RD 02RO	1	0	2.37696695328	-195.0	329.0	-199	334	1
2.7	2015_May_27_1347	s	s	10	5	SIC	58	ABS	1	0	02VD 02VO 02VC 02MD 02MO 10MC 02RD 02RO	0	1	2.70371985435	None	None	None	None	1
2.7	2015_May_27_1347	s	s	10	5	SIC	59	ABS	0	1	02VD 02VO 02VC 02MD 02MO 02MC 02RD 10RO	0	1	2.2239420414	None	None	None	None	1
2.7	2015_May_27_1347	s	s	10	5	SIC	60	ABS	2	1	02VD 10VO 02VC 02MD 02MO 02MC 02RD 02RO	0	1	3.32693910599	None	None	None	None	1
2.7	2015_May_27_1347	s	s	10	5	SIC	61	RC	1	0	02VD 02VO 02VC 02MD 02MO 09MC 02RD 02RO	1	0	1.64384698868	-446.0	337.0	-441	338	1
2.7	2015_May_27_1347	s	s	10	5	SIC	62	ABS	2	0	02VD 02VO 10VC 02MD 02MO 02MC 02RD 02RO	0	1	3.42177391052	None	None	None	None	1
2.7	2015_May_27_1347	s	s	10	5	SIC	63	RC	2	0	02VD 02VO 09VC 02MD 02MO 02MC 02RD 02RO	1	0	1.69172096252	-46.0	-65.0	-46	-69	1
2.7	2015_May_27_1347	s	s	10	5	SIC	64	RC	1	1	02VD 02VO 02VC 02MD 09MO 02MC 02RD 02RO	1	0	4.42509102821	456.0	-284.0	453	-288	1
2.7	2015_May_27_1347	s	s	10	5	SIC	65	ABS	1	0	02VD 02VO 02VC 02MD 02MO 10MC 02RD 02RO	0	1	4.09550094604	None	None	None	None	1
2.7	2015_May_27_1347	s	s	10	5	SIC	66	ABS	2	0	02VD 02VO 10VC 02MD 02MO 02MC 02RD 02RO	0	1	1.77256011963	None	None	None	None	1
2.7	2015_May_27_1347	s	s	10	5	SIC	67	ABS	1	1	02VD 02VO 02VC 02MD 10MO 02MC 02RD 02RO	0	1	3.43226194382	None	None	None	None	1
2.7	2015_May_27_1347	s	s	10	5	SIC	68	RC	2	1	02VD 09VO 02VC 02MD 02MO 02MC 02RD 02RO	1	0	1.18550395966	-177.0	-288.0	-171	-290	1
2.7	2015_May_27_1347	s	s	10	5	SIC	69	ABS	2	2	10VD 02VO 02VC 02MD 02MO 02MC 02RD 02RO	0	1	3.60739803314	None	None	None	None	1
2.7	2015_May_27_1347	s	s	10	5	SIC	70	ABS	2	1	02VD 10VO 02VC 02MD 02MO 02MC 02RD 02RO	0	1	1.6417028904	None	None	None	None	1
2.7	2015_May_27_1347	s	s	10	5	SIC	71	RC	1	2	02VD 02VO 02VC 09MD 02MO 02MC 02RD 02RO	1	0	5.37855291367	397.0	-5.0	398	-6	1
2.7	2015_May_27_1347	s	s	10	5	SIC	72	RC	2	2	09VD 02VO 02VC 02MD 02MO 02MC 02RD 02RO	1	0	2.25619792938	39.0	156.0	43	157	1
2.7	2015_May_27_1347	s	s	10	5	SIC	73	ABS	1	2	02VD 02VO 02VC 10MD 02MO 02MC 02RD 02RO	0	1	1.51779103279	None	None	None	None	1
2.7	2015_May_27_1347	s	s	10	5	SIC	74	RC	0	1	02VD 02VO 02VC 02MD 02MO 02MC 02RD 09RO	1	0	2.56543803215	-322.0	133.0	-323	125	1
2.7	2015_May_27_1347	s	s	10	5	SIC	75	ABS	0	1	02VD 02VO 02VC 02MD 02MO 02MC 02RD 10RO	0	1	3.62472581863	None	None	None	None	1
2.7	2015_May_27_1347	s	s	10	5	SIC	76	RC	1	0	02VD 02VO 02VC 02MD 02MO 09MC 02RD 02RO	1	0	1.7060739994	46.0	-228.0	49	-229	1
2.7	2015_May_27_1347	s	s	10	5	SIC	77	RC	2	0	02VD 02VO 09VC 02MD 02MO 02MC 02RD 02RO	0	1	4.99609494209	289.0	102.0	None	None	0
2.7	2015_May_27_1347	s	s	10	5	SIC	78	ABS	0	2	02VD 02VO 02VC 02MD 02MO 02MC 10RD 02RO	0	1	2.50138998032	None	None	None	None	1
2.7	2015_May_27_1347	s	s	10	5	SIC	79	RC	1	1	02VD 02VO 02VC 02MD 09MO 02MC 02RD 02RO	1	0	1.97384095192	43.0	-150.0	45	-148	1
2.7	2015_May_27_1347	s	s	10	5	SIC	80	RC	0	2	02VD 02VO 02VC 02MD 02MO 02MC 09RD 02RO	1	0	11.6469228268	-40.0	302.0	-37	300	1
2.7	2015_May_27_1347	s	s	10	5	SIC	81	RC	2	0	02VD 02VO 09VC 02MD 02MO 02MC 02RD 02RO	1	0	4.58997297287	-506.0	213.0	-509	209	1
2.7	2015_May_27_1347	s	s	10	5	SIC	82	RC	1	1	02VD 02VO 02VC 02MD 09MO 02MC 02RD 02RO	1	0	3.7835688591	183.0	-348.0	178	-354	1
2.7	2015_May_27_1347	s	s	10	5	SIC	83	ABS	1	1	02VD 02VO 02VC 02MD 10MO 02MC 02RD 02RO	0	1	5.0489718914	None	None	None	None	1
2.7	2015_May_27_1347	s	s	10	5	SIC	84	RC	2	1	02VD 09VO 02VC 02MD 02MO 02MC 02RD 02RO	1	0	3.30675411224	14.0	-140.0	12	-136	1
2.7	2015_May_27_1347	s	s	10	5	SIC	85	ABS	1	2	02VD 02VO 02VC 10MD 02MO 02MC 02RD 02RO	1	0	3.26661396027	None	None	49	20	0
2.7	2015_May_27_1347	s	s	10	5	SIC	86	ABS	2	2	10VD 02VO 02VC 02MD 02MO 02MC 02RD 02RO	0	1	2.73016405106	None	None	None	None	1
2.7	2015_May_27_1347	s	s	10	5	SIC	87	RC	2	2	09VD 02VO 02VC 02MD 02MO 02MC 02RD 02RO	1	0	1.31275105476	-493.0	-145.0	-499	-149	1
2.7	2015_May_27_1347	s	s	10	5	SIC	88	ABS	2	0	02VD 02VO 10VC 02MD 02MO 02MC 02RD 02RO	0	1	1.72509002686	None	None	None	None	1
2.7	2015_May_27_1347	s	s	10	5	SIC	89	ABS	0	2	02VD 02VO 02VC 02MD 02MO 02MC 10RD 02RO	0	1	2.40945601463	None	None	None	None	1
2.7	2015_May_27_1347	s	s	10	5	SIC	90	ABS	0	1	02VD 02VO 02VC 02MD 02MO 02MC 02RD 10RO	0	1	5.11611485481	None	None	None	None	1
2.7	2015_May_27_1347	s	s	10	5	SIC	91	ABS	1	0	02VD 02VO 02VC 02MD 02MO 10MC 02RD 02RO	0	1	5.1784029007	None	None	None	None	1
2.7	2015_May_27_1347	s	s	10	5	SIC	92	ABS	2	1	02VD 10VO 02VC 02MD 02MO 02MC 02RD 02RO	0	1	5.69635915756	None	None	None	None	1
2.7	2015_May_27_1347	s	s	10	5	SIC	93	RC	0	1	02VD 02VO 02VC 02MD 02MO 02MC 02RD 09RO	1	0	1.45363998413	-162.0	139.0	-165	137	1
2.7	2015_May_27_1347	s	s	10	5	SIC	94	RC	0	2	02VD 02VO 02VC 02MD 02MO 02MC 09RD 02RO	1	0	1.40715408325	67.0	302.0	75	306	1
2.7	2015_May_27_1347	s	s	10	5	SIC	95	RC	1	0	02VD 02VO 02VC 02MD 02MO 09MC 02RD 02RO	1	0	5.09599995613	-276.0	-319.0	-282	-313	1
2.7	2015_May_27_1347	s	s	10	5	SIC	96	RC	1	2	02VD 02VO 02VC 09MD 02MO 02MC 02RD 02RO	1	0	1.60007500648	-408.0	-18.0	-406	-17	1
2.7	2015_May_27_1347	s	s	10	5	SIC	97	RC	1	0	02VD 02VO 02VC 02MD 02MO 09MC 02RD 02RO	1	0	3.4196100235	-486.0	94.0	-480	94	1
2.7	2015_May_27_1347	s	s	10	5	SIC	98	ABS	1	2	02VD 02VO 02VC 10MD 02MO 02MC 02RD 02RO	0	1	1.7061290741	None	None	None	None	1
2.7	2015_May_27_1347	s	s	10	5	SIC	99	RC	2	1	02VD 09VO 02VC 02MD 02MO 02MC 02RD 02RO	1	0	5.91573882103	-508.0	267.0	-503	268	1
2.7	2015_May_27_1347	s	s	10	5	SIC	100	ABS	1	1	02VD 02VO 02VC 02MD 10MO 02MC 02RD 02RO	0	1	2.57173109055	None	None	None	None	1
2.7	2015_May_27_1347	s	s	10	5	SIC	101	ABS	2	1	02VD 10VO 02VC 02MD 02MO 02MC 02RD 02RO	0	1	1.88925409317	None	None	None	None	1
2.7	2015_May_27_1347	s	s	10	5	SIC	102	ABS	0	1	02VD 02VO 02VC 02MD 02MO 02MC 02RD 10RO	0	1	4.13680100441	None	None	None	None	1
2.7	2015_May_27_1347	s	s	10	5	SIC	103	RC	0	1	02VD 02VO 02VC 02MD 02MO 02MC 02RD 09RO	1	0	2.59706902504	-299.0	108.0	-306	111	1
2.7	2015_May_27_1347	s	s	10	5	SIC	104	RC	1	2	02VD 02VO 02VC 09MD 02MO 02MC 02RD 02RO	1	0	5.51989817619	317.0	-334.0	308	-327	1
2.7	2015_May_27_1347	s	s	10	5	SIC	105	RC	2	0	02VD 02VO 09VC 02MD 02MO 02MC 02RD 02RO	0	1	2.74190616608	528.0	401.0	None	None	0
2.7	2015_May_27_1347	s	s	10	5	SIC	106	ABS	2	2	10VD 02VO 02VC 02MD 02MO 02MC 02RD 02RO	0	1	2.39646601677	None	None	None	None	1
2.7	2015_May_27_1347	s	s	10	5	SIC	107	ABS	1	0	02VD 02VO 02VC 02MD 02MO 10MC 02RD 02RO	0	1	2.65631699562	None	None	None	None	1
2.7	2015_May_27_1347	s	s	10	5	SIC	108	RC	0	2	02VD 02VO 02VC 02MD 02MO 02MC 09RD 02RO	0	1	1.7531440258	497.0	70.0	None	None	0
2.7	2015_May_27_1347	s	s	10	5	SIC	109	ABS	2	0	02VD 02VO 10VC 02MD 02MO 02MC 02RD 02RO	0	1	1.82999300957	None	None	None	None	1
2.7	2015_May_27_1347	s	s	10	5	SIC	110	RC	2	2	09VD 02VO 02VC 02MD 02MO 02MC 02RD 02RO	1	0	1.34124016762	-310.0	-65.0	-316	-69	1
2.7	2015_May_27_1347	s	s	10	5	SIC	111	ABS	0	2	02VD 02VO 02VC 02MD 02MO 02MC 10RD 02RO	0	1	1.86516594887	None	None	None	None	1
2.7	2015_May_27_1347	s	s	10	5	SIC	112	RC	1	1	02VD 02VO 02VC 02MD 09MO 02MC 02RD 02RO	1	0	1.2415728569	-112.0	-140.0	-110	-137	1
2.7	2015_May_27_1347	s	s	10	5	SIC	113	ABS	1	0	02VD 02VO 02VC 02MD 02MO 10MC 02RD 02RO	0	1	1.97689795494	None	None	None	None	1
2.7	2015_May_27_1347	s	s	10	5	SIC	114	RC	2	2	09VD 02VO 02VC 02MD 02MO 02MC 02RD 02RO	1	0	1.07047009468	307.0	76.0	304	75	1
2.7	2015_May_27_1347	s	s	10	5	SIC	115	RC	0	1	02VD 02VO 02VC 02MD 02MO 02MC 02RD 09RO	1	0	2.02390098572	417.0	-198.0	424	-197	1
2.7	2015_May_27_1347	s	s	10	5	SIC	116	ABS	1	2	02VD 02VO 02VC 10MD 02MO 02MC 02RD 02RO	0	1	2.1414899826	None	None	None	None	1
2.7	2015_May_27_1347	s	s	10	5	SIC	117	ABS	0	2	02VD 02VO 02VC 02MD 02MO 02MC 10RD 02RO	0	1	1.60571503639	None	None	None	None	1
2.7	2015_May_27_1347	s	s	10	5	SIC	118	ABS	1	1	02VD 02VO 02VC 02MD 10MO 02MC 02RD 02RO	0	1	1.79737782478	None	None	None	None	1
2.7	2015_May_27_1347	s	s	10	5	SIC	119	RC	1	2	02VD 02VO 02VC 09MD 02MO 02MC 02RD 02RO	1	0	0.940994977951	-29.0	84.0	-24	83	1
2.7	2015_May_27_1347	s	s	10	5	SIC	120	ABS	2	0	02VD 02VO 10VC 02MD 02MO 02MC 02RD 02RO	0	1	1.14705514908	None	None	None	None	1
2.7	2015_May_27_1347	s	s	10	5	SIC	121	ABS	2	2	10VD 02VO 02VC 02MD 02MO 02MC 02RD 02RO	0	1	1.19623684883	None	None	None	None	1
2.7	2015_May_27_1347	s	s	10	5	SIC	122	ABS	0	1	02VD 02VO 02VC 02MD 02MO 02MC 02RD 10RO	0	1	3.05508899689	None	None	None	None	1
2.7	2015_May_27_1347	s	s	10	5	SIC	123	RC	1	0	02VD 02VO 02VC 02MD 02MO 09MC 02RD 02RO	1	0	1.11498713493	-327.0	97.0	-321	100	1
2.7	2015_May_27_1347	s	s	10	5	SIC	124	RC	2	0	02VD 02VO 09VC 02MD 02MO 02MC 02RD 02RO	0	1	1.65365099907	78.0	333.0	None	None	0
2.7	2015_May_27_1347	s	s	10	5	SIC	125	ABS	2	1	02VD 10VO 02VC 02MD 02MO 02MC 02RD 02RO	0	1	1.51783680916	None	None	None	None	1
2.7	2015_May_27_1347	s	s	10	5	SIC	126	RC	1	1	02VD 02VO 02VC 02MD 09MO 02MC 02RD 02RO	1	0	1.05878591537	14.0	326.0	13	328	1
2.7	2015_May_27_1347	s	s	10	5	SIC	127	RC	0	2	02VD 02VO 02VC 02MD 02MO 02MC 09RD 02RO	1	0	3.6209230423	-439.0	-77.0	-439	-77	1
2.7	2015_May_27_1347	s	s	10	5	SIC	128	RC	2	1	02VD 09VO 02VC 02MD 02MO 02MC 02RD 02RO	1	0	1.1578130722	-65.0	-151.0	-63	-149	1
2.7	2015_May_27_1347	s	s	10	5	SIC	129	RC	1	0	02VD 02VO 02VC 02MD 02MO 09MC 02RD 02RO	1	0	1.3412361145	-149.0	261.0	-141	265	1
2.7	2015_May_27_1347	s	s	10	5	SIC	130	RC	0	2	02VD 02VO 02VC 02MD 02MO 02MC 09RD 02RO	1	0	3.40104103088	-127.0	379.0	-127	381	1
2.7	2015_May_27_1347	s	s	10	5	SIC	131	RC	1	1	02VD 02VO 02VC 02MD 09MO 02MC 02RD 02RO	1	0	2.37708115578	-255.0	-109.0	-261	-104	1
2.7	2015_May_27_1347	s	s	10	5	SIC	132	RC	2	0	02VD 02VO 09VC 02MD 02MO 02MC 02RD 02RO	1	0	1.4122030735	272.0	97.0	271	89	1
2.7	2015_May_27_1347	s	s	10	5	SIC	133	ABS	0	2	02VD 02VO 02VC 02MD 02MO 02MC 10RD 02RO	0	1	2.14844894409	None	None	None	None	1
2.7	2015_May_27_1347	s	s	10	5	SIC	134	ABS	0	1	02VD 02VO 02VC 02MD 02MO 02MC 02RD 10RO	0	1	3.74870586395	None	None	None	None	1
2.7	2015_May_27_1347	s	s	10	5	SIC	135	ABS	2	1	02VD 10VO 02VC 02MD 02MO 02MC 02RD 02RO	0	1	0.587902069092	None	None	None	None	1
2.7	2015_May_27_1347	s	s	10	5	SIC	136	RC	2	1	02VD 09VO 02VC 02MD 02MO 02MC 02RD 02RO	1	0	1.43264102936	365.0	288.0	367	288	1
2.7	2015_May_27_1347	s	s	10	5	SIC	137	RC	1	2	02VD 02VO 02VC 09MD 02MO 02MC 02RD 02RO	1	0	5.75517702103	261.0	119.0	263	117	1
2.7	2015_May_27_1347	s	s	10	5	SIC	138	ABS	2	0	02VD 02VO 10VC 02MD 02MO 02MC 02RD 02RO	0	1	2.43590497971	None	None	None	None	1
2.7	2015_May_27_1347	s	s	10	5	SIC	139	ABS	2	2	10VD 02VO 02VC 02MD 02MO 02MC 02RD 02RO	0	1	1.92965388298	None	None	None	None	1
2.7	2015_May_27_1347	s	s	10	5	SIC	140	ABS	1	1	02VD 02VO 02VC 02MD 10MO 02MC 02RD 02RO	0	1	2.24424791336	None	None	None	None	1
2.7	2015_May_27_1347	s	s	10	5	SIC	141	RC	2	2	09VD 02VO 02VC 02MD 02MO 02MC 02RD 02RO	1	0	3.65483021736	113.0	-345.0	114	-348	1
2.7	2015_May_27_1347	s	s	10	5	SIC	142	ABS	1	0	02VD 02VO 02VC 02MD 02MO 10MC 02RD 02RO	0	1	4.08985805511	None	None	None	None	1
2.7	2015_May_27_1347	s	s	10	5	SIC	143	ABS	1	2	02VD 02VO 02VC 10MD 02MO 02MC 02RD 02RO	0	1	1.81207084656	None	None	None	None	1
2.7	2015_May_27_1347	s	s	10	5	SIC	144	RC	0	1	02VD 02VO 02VC 02MD 02MO 02MC 02RD 09RO	1	0	2.84030389786	52.0	-384.0	54	-388	1
2.7	2015_May_27_1347	s	s	10	5	SIC	145	ABS	1	2	02VD 02VO 02VC 10MD 02MO 02MC 02RD 02RO	0	1	3.90173888206	None	None	None	None	1
2.7	2015_May_27_1347	s	s	10	5	SIC	146	RC	1	1	02VD 02VO 02VC 02MD 09MO 02MC 02RD 02RO	0	1	3.38398385048	-75.0	366.0	None	None	0
2.7	2015_May_27_1347	s	s	10	5	SIC	147	RC	0	2	02VD 02VO 02VC 02MD 02MO 02MC 09RD 02RO	1	0	1.43175292015	534.0	59.0	535	57	1
2.7	2015_May_27_1347	s	s	10	5	SIC	148	ABS	0	1	02VD 02VO 02VC 02MD 02MO 02MC 02RD 10RO	0	1	5.1312110424	None	None	None	None	1
2.7	2015_May_27_1347	s	s	10	5	SIC	149	RC	1	2	02VD 02VO 02VC 09MD 02MO 02MC 02RD 02RO	1	0	1.52507686615	-434.0	-339.0	-437	-340	1
2.7	2015_May_27_1347	s	s	10	5	SIC	150	RC	2	0	02VD 02VO 09VC 02MD 02MO 02MC 02RD 02RO	1	0	2.53004598618	208.0	270.0	214	272	1
2.7	2015_May_27_1347	s	s	10	5	SIC	151	RC	0	1	02VD 02VO 02VC 02MD 02MO 02MC 02RD 09RO	1	0	2.15346097946	390.0	171.0	394	173	1
2.7	2015_May_27_1347	s	s	10	5	SIC	152	ABS	1	1	02VD 02VO 02VC 02MD 10MO 02MC 02RD 02RO	0	1	3.76094603539	None	None	None	None	1
2.7	2015_May_27_1347	s	s	10	5	SIC	153	ABS	2	2	10VD 02VO 02VC 02MD 02MO 02MC 02RD 02RO	0	1	2.88319206238	None	None	None	None	1
2.7	2015_May_27_1347	s	s	10	5	SIC	154	RC	1	0	02VD 02VO 02VC 02MD 02MO 09MC 02RD 02RO	1	0	3.83071303368	304.0	-348.0	302	-353	1
2.7	2015_May_27_1347	s	s	10	5	SIC	155	RC	2	2	09VD 02VO 02VC 02MD 02MO 02MC 02RD 02RO	1	0	2.55978298187	-314.0	20.0	-316	14	1
2.7	2015_May_27_1347	s	s	10	5	SIC	156	ABS	0	2	02VD 02VO 02VC 02MD 02MO 02MC 10RD 02RO	0	1	1.60702395439	None	None	None	None	1
2.7	2015_May_27_1347	s	s	10	5	SIC	157	ABS	1	0	02VD 02VO 02VC 02MD 02MO 10MC 02RD 02RO	0	1	1.33633899689	None	None	None	None	1
2.7	2015_May_27_1347	s	s	10	5	SIC	158	ABS	2	0	02VD 02VO 10VC 02MD 02MO 02MC 02RD 02RO	0	1	10.3222410679	None	None	None	None	1
2.7	2015_May_27_1347	s	s	10	5	SIC	159	RC	2	1	02VD 09VO 02VC 02MD 02MO 02MC 02RD 02RO	1	0	1.71783304214	527.0	-52.0	524	-55	1
2.7	2015_May_27_1347	s	s	10	5	SIC	160	ABS	2	1	02VD 10VO 02VC 02MD 02MO 02MC 02RD 02RO	0	1	2.09459209442	None	None	None	None	1
2.7	2015_May_27_1347	s	s	10	5	SIC	161	RC	1	1	02VD 02VO 02VC 02MD 09MO 02MC 02RD 02RO	1	0	1.01166915894	250.0	-140.0	247	-148	1
2.7	2015_May_27_1347	s	s	10	5	SIC	162	RC	1	2	02VD 02VO 02VC 09MD 02MO 02MC 02RD 02RO	1	0	2.49472212791	-517.0	-41.0	-506	-34	1
2.7	2015_May_27_1347	s	s	10	5	SIC	163	RC	1	0	02VD 02VO 02VC 02MD 02MO 09MC 02RD 02RO	1	0	1.40008401871	-383.0	-125.0	-381	-128	1
2.7	2015_May_27_1347	s	s	10	5	SIC	164	ABS	2	2	10VD 02VO 02VC 02MD 02MO 02MC 02RD 02RO	0	1	4.32825016975	None	None	None	None	1
2.7	2015_May_27_1347	s	s	10	5	SIC	165	RC	2	2	09VD 02VO 02VC 02MD 02MO 02MC 02RD 02RO	1	0	2.63029289246	538.0	356.0	543	361	1
2.7	2015_May_27_1347	s	s	10	5	SIC	166	ABS	1	1	02VD 02VO 02VC 02MD 10MO 02MC 02RD 02RO	0	1	3.79608488083	None	None	None	None	1
2.7	2015_May_27_1347	s	s	10	5	SIC	167	ABS	2	1	02VD 10VO 02VC 02MD 02MO 02MC 02RD 02RO	0	1	1.65895795822	None	None	None	None	1
2.7	2015_May_27_1347	s	s	10	5	SIC	168	RC	2	0	02VD 02VO 09VC 02MD 02MO 02MC 02RD 02RO	1	0	1.32939195633	-186.0	13.0	-191	7	1
2.7	2015_May_27_1347	s	s	10	5	SIC	169	ABS	0	1	02VD 02VO 02VC 02MD 02MO 02MC 02RD 10RO	0	1	3.98962187767	None	None	None	None	1
2.7	2015_May_27_1347	s	s	10	5	SIC	170	ABS	1	2	02VD 02VO 02VC 10MD 02MO 02MC 02RD 02RO	0	1	1.42391419411	None	None	None	None	1
2.7	2015_May_27_1347	s	s	10	5	SIC	171	ABS	0	2	02VD 02VO 02VC 02MD 02MO 02MC 10RD 02RO	1	0	1.61196899414	None	None	-47	-9	0
2.7	2015_May_27_1347	s	s	10	5	SIC	172	ABS	2	0	02VD 02VO 10VC 02MD 02MO 02MC 02RD 02RO	0	1	1.21166706085	None	None	None	None	1
2.7	2015_May_27_1347	s	s	10	5	SIC	173	ABS	1	0	02VD 02VO 02VC 02MD 02MO 10MC 02RD 02RO	0	1	3.01915884018	None	None	None	None	1
2.7	2015_May_27_1347	s	s	10	5	SIC	174	RC	0	2	02VD 02VO 02VC 02MD 02MO 02MC 09RD 02RO	0	1	7.40308213234	-469.0	-321.0	None	None	0
2.7	2015_May_27_1347	s	s	10	5	SIC	175	RC	2	1	02VD 09VO 02VC 02MD 02MO 02MC 02RD 02RO	1	0	1.6354830265	-300.0	-152.0	-303	-160	1
2.7	2015_May_27_1347	s	s	10	5	SIC	176	RC	0	1	02VD 02VO 02VC 02MD 02MO 02MC 02RD 09RO	1	0	5.31487798691	-413.0	-369.0	-416	-374	1
2.7	2015_May_27_1347	s	s	10	5	SIC	177	ABS	1	0	02VD 02VO 02VC 02MD 02MO 10MC 02RD 02RO	0	1	2.77202391624	None	None	None	None	1
2.7	2015_May_27_1347	s	s	10	5	SIC	178	RC	0	1	02VD 02VO 02VC 02MD 02MO 02MC 02RD 09RO	1	0	1.76212787628	358.0	120.0	359	116	1
2.7	2015_May_27_1347	s	s	10	5	SIC	179	ABS	0	2	02VD 02VO 02VC 02MD 02MO 02MC 10RD 02RO	0	1	2.29205012321	None	None	None	None	1
2.7	2015_May_27_1347	s	s	10	5	SIC	180	RC	2	2	09VD 02VO 02VC 02MD 02MO 02MC 02RD 02RO	1	0	2.28942489624	-485.0	337.0	-494	341	1
2.7	2015_May_27_1347	s	s	10	5	SIC	181	ABS	2	1	02VD 10VO 02VC 02MD 02MO 02MC 02RD 02RO	0	1	4.45584011078	None	None	None	None	1
2.7	2015_May_27_1347	s	s	10	5	SIC	182	ABS	1	2	02VD 02VO 02VC 10MD 02MO 02MC 02RD 02RO	0	1	2.3570959568	None	None	None	None	1
2.7	2015_May_27_1347	s	s	10	5	SIC	183	RC	1	0	02VD 02VO 02VC 02MD 02MO 09MC 02RD 02RO	1	0	1.38592481613	-142.0	-412.0	-141	-412	1
2.7	2015_May_27_1347	s	s	10	5	SIC	184	RC	2	1	02VD 09VO 02VC 02MD 02MO 02MC 02RD 02RO	1	0	1.6187479496	-445.0	234.0	-441	242	1
2.7	2015_May_27_1347	s	s	10	5	SIC	185	ABS	0	1	02VD 02VO 02VC 02MD 02MO 02MC 02RD 10RO	0	1	2.78901100159	None	None	None	None	1
2.7	2015_May_27_1347	s	s	10	5	SIC	186	ABS	2	0	02VD 02VO 10VC 02MD 02MO 02MC 02RD 02RO	0	1	1.07051706314	None	None	None	None	1
2.7	2015_May_27_1347	s	s	10	5	SIC	187	ABS	2	2	10VD 02VO 02VC 02MD 02MO 02MC 02RD 02RO	0	1	1.30586504936	None	None	None	None	1
2.7	2015_May_27_1347	s	s	10	5	SIC	188	RC	1	2	02VD 02VO 02VC 09MD 02MO 02MC 02RD 02RO	1	0	1.25557303429	-441.0	330.0	-451	335	1
2.7	2015_May_27_1347	s	s	10	5	SIC	189	ABS	1	1	02VD 02VO 02VC 02MD 10MO 02MC 02RD 02RO	0	1	1.4473938942	None	None	None	None	1
2.7	2015_May_27_1347	s	s	10	5	SIC	190	RC	0	2	02VD 02VO 02VC 02MD 02MO 02MC 09RD 02RO	1	0	0.72402882576	-38.0	-22.0	-36	-21	1
2.7	2015_May_27_1347	s	s	10	5	SIC	191	RC	1	1	02VD 02VO 02VC 02MD 09MO 02MC 02RD 02RO	1	0	1.52940416336	326.0	-377.0	323	-376	1
2.7	2015_May_27_1347	s	s	10	5	SIC	192	RC	2	0	02VD 02VO 09VC 02MD 02MO 02MC 02RD 02RO	1	0	0.752674102783	-124.0	-220.0	-126	-233	1
2.7	2015_May_27_1347	s	s	10	5	SIC	193	RC	0	2	02VD 02VO 02VC 02MD 02MO 02MC 09RD 02RO	1	0	1.36468887329	-387.0	380.0	-383	373	1
2.7	2015_May_27_1347	s	s	10	5	SIC	194	ABS	1	1	02VD 02VO 02VC 02MD 10MO 02MC 02RD 02RO	0	1	1.85902190208	None	None	None	None	1
2.7	2015_May_27_1347	s	s	10	5	SIC	195	RC	2	2	09VD 02VO 02VC 02MD 02MO 02MC 02RD 02RO	1	0	1.20649218559	-132.0	235.0	-130	241	1
2.7	2015_May_27_1347	s	s	10	5	SIC	196	ABS	0	1	02VD 02VO 02VC 02MD 02MO 02MC 02RD 10RO	0	1	2.45124912262	None	None	None	None	1
2.7	2015_May_27_1347	s	s	10	5	SIC	197	ABS	2	0	02VD 02VO 10VC 02MD 02MO 02MC 02RD 02RO	0	1	1.45902204514	None	None	None	None	1
2.7	2015_May_27_1347	s	s	10	5	SIC	198	RC	2	0	02VD 02VO 09VC 02MD 02MO 02MC 02RD 02RO	1	0	1.45920014381	357.0	266.0	363	267	1
2.7	2015_May_27_1347	s	s	10	5	SIC	199	ABS	0	2	02VD 02VO 02VC 02MD 02MO 02MC 10RD 02RO	0	1	1.97341609001	None	None	None	None	1
2.7	2015_May_27_1347	s	s	10	5	SIC	200	ABS	2	1	02VD 10VO 02VC 02MD 02MO 02MC 02RD 02RO	0	1	1.3529779911	None	None	None	None	1
2.7	2015_May_27_1347	s	s	10	5	SIC	201	ABS	1	2	02VD 02VO 02VC 10MD 02MO 02MC 02RD 02RO	0	1	2.50652694702	None	None	None	None	1
2.7	2015_May_27_1347	s	s	10	5	SIC	202	RC	1	1	02VD 02VO 02VC 02MD 09MO 02MC 02RD 02RO	1	0	2.84783911705	-112.0	-404.0	-109	-399	1
2.7	2015_May_27_1347	s	s	10	5	SIC	203	RC	1	2	02VD 02VO 02VC 09MD 02MO 02MC 02RD 02RO	0	1	3.84385800362	244.0	236.0	None	None	0
2.7	2015_May_27_1347	s	s	10	5	SIC	204	ABS	1	0	02VD 02VO 02VC 02MD 02MO 10MC 02RD 02RO	0	1	1.97690987587	None	None	None	None	1
2.7	2015_May_27_1347	s	s	10	5	SIC	205	ABS	2	2	10VD 02VO 02VC 02MD 02MO 02MC 02RD 02RO	0	1	3.5153222084	None	None	None	None	1
2.7	2015_May_27_1347	s	s	10	5	SIC	206	RC	0	1	02VD 02VO 02VC 02MD 02MO 02MC 02RD 09RO	1	0	2.89157986641	-279.0	301.0	-273	297	1
2.7	2015_May_27_1347	s	s	10	5	SIC	207	RC	1	0	02VD 02VO 02VC 02MD 02MO 09MC 02RD 02RO	0	1	1.67687487602	-388.0	-365.0	None	None	0
2.7	2015_May_27_1347	s	s	10	5	SIC	208	RC	2	1	02VD 09VO 02VC 02MD 02MO 02MC 02RD 02RO	0	1	2.87902593613	-169.0	43.0	None	None	0
2.7	2015_May_27_1347	s	s	10	5	SIC	209	ABS	1	0	02VD 02VO 02VC 02MD 02MO 10MC 02RD 02RO	0	1	2.88963294029	None	None	None	None	1
2.7	2015_May_27_1347	s	s	10	5	SIC	210	RC	2	1	02VD 09VO 02VC 02MD 02MO 02MC 02RD 02RO	1	0	1.01170516014	-9.0	-148.0	-11	-141	1
2.7	2015_May_27_1347	s	s	10	5	SIC	211	ABS	2	2	10VD 02VO 02VC 02MD 02MO 02MC 02RD 02RO	1	0	0.913360834122	None	None	-235	-11	0
2.7	2015_May_27_1347	s	s	10	5	SIC	212	RC	2	0	02VD 02VO 09VC 02MD 02MO 02MC 02RD 02RO	1	0	0.846766233444	-141.0	-116.0	-149	-120	1
2.7	2015_May_27_1347	s	s	10	5	SIC	213	RC	1	0	02VD 02VO 02VC 02MD 02MO 09MC 02RD 02RO	1	0	3.80678987503	40.0	-141.0	42	-146	1
2.7	2015_May_27_1347	s	s	10	5	SIC	214	ABS	2	1	02VD 10VO 02VC 02MD 02MO 02MC 02RD 02RO	0	1	6.36225318909	None	None	None	None	1
2.7	2015_May_27_1347	s	s	10	5	SIC	215	ABS	2	0	02VD 02VO 10VC 02MD 02MO 02MC 02RD 02RO	0	1	2.43586802483	None	None	None	None	1
2.7	2015_May_27_1347	s	s	10	5	SIC	216	RC	1	2	02VD 02VO 02VC 09MD 02MO 02MC 02RD 02RO	1	0	4.46056103706	227.0	-312.0	219	-307	1
2.7	2015_May_27_1347	s	s	10	5	SIC	217	RC	0	1	02VD 02VO 02VC 02MD 02MO 02MC 02RD 09RO	1	0	5.96278715134	-216.0	-382.0	-211	-385	1
2.7	2015_May_27_1347	s	s	10	5	SIC	218	ABS	1	2	02VD 02VO 02VC 10MD 02MO 02MC 02RD 02RO	0	1	9.03925800323	None	None	None	None	1
2.7	2015_May_27_1347	s	s	10	5	SIC	219	RC	0	2	02VD 02VO 02VC 02MD 02MO 02MC 09RD 02RO	1	0	8.35654091835	370.0	-257.0	369	-265	1
2.7	2015_May_27_1347	s	s	10	5	SIC	220	ABS	0	1	02VD 02VO 02VC 02MD 02MO 02MC 02RD 10RO	0	1	6.46972608566	None	None	None	None	1
2.7	2015_May_27_1347	s	s	10	5	SIC	221	ABS	1	1	02VD 02VO 02VC 02MD 10MO 02MC 02RD 02RO	1	0	2.49481391907	None	None	-59	47	0
2.7	2015_May_27_1347	s	s	10	5	SIC	222	RC	1	1	02VD 02VO 02VC 02MD 09MO 02MC 02RD 02RO	1	0	1.32943201065	248.0	383.0	248	382	1
2.7	2015_May_27_1347	s	s	10	5	SIC	223	ABS	0	2	02VD 02VO 02VC 02MD 02MO 02MC 10RD 02RO	0	1	1.33362793922	None	None	None	None	1
2.7	2015_May_27_1347	s	s	10	5	SIC	224	RC	2	2	09VD 02VO 02VC 02MD 02MO 02MC 02RD 02RO	1	0	1.07082796097	184.0	-63.0	192	-63	1
2.7	2015_May_27_1347	s	s	10	5	SIC	225	RC	0	2	02VD 02VO 02VC 02MD 02MO 02MC 09RD 02RO	1	0	6.27310395241	-82.0	-284.0	-78	-283	1
2.7	2015_May_27_1347	s	s	10	5	SIC	226	ABS	2	0	02VD 02VO 10VC 02MD 02MO 02MC 02RD 02RO	0	1	1.29412913322	None	None	None	None	1
2.7	2015_May_27_1347	s	s	10	5	SIC	227	RC	1	2	02VD 02VO 02VC 09MD 02MO 02MC 02RD 02RO	1	0	1.97165608406	299.0	12.0	299	10	1
2.7	2015_May_27_1347	s	s	10	5	SIC	228	ABS	0	1	02VD 02VO 02VC 02MD 02MO 02MC 02RD 10RO	0	1	2.87132096291	None	None	None	None	1
2.7	2015_May_27_1347	s	s	10	5	SIC	229	RC	1	1	02VD 02VO 02VC 02MD 09MO 02MC 02RD 02RO	1	0	1.11494898796	-23.0	-235.0	-22	-235	1
2.7	2015_May_27_1347	s	s	10	5	SIC	230	ABS	1	1	02VD 02VO 02VC 02MD 10MO 02MC 02RD 02RO	0	1	3.31607794762	None	None	None	None	1
2.7	2015_May_27_1347	s	s	10	5	SIC	231	ABS	0	2	02VD 02VO 02VC 02MD 02MO 02MC 10RD 02RO	0	1	1.65899896622	None	None	None	None	1
2.7	2015_May_27_1347	s	s	10	5	SIC	232	ABS	1	0	02VD 02VO 02VC 02MD 02MO 10MC 02RD 02RO	0	1	4.89321708679	None	None	None	None	1
2.7	2015_May_27_1347	s	s	10	5	SIC	233	RC	1	0	02VD 02VO 02VC 02MD 02MO 09MC 02RD 02RO	1	0	1.070499897	72.0	249.0	65	255	1
2.7	2015_May_27_1347	s	s	10	5	SIC	234	RC	2	2	09VD 02VO 02VC 02MD 02MO 02MC 02RD 02RO	1	0	3.24318099022	12.0	-241.0	13	-244	1
2.7	2015_May_27_1347	s	s	10	5	SIC	235	RC	2	1	02VD 09VO 02VC 02MD 02MO 02MC 02RD 02RO	1	0	3.18918299675	535.0	-67.0	536	-63	1
2.7	2015_May_27_1347	s	s	10	5	SIC	236	ABS	1	2	02VD 02VO 02VC 10MD 02MO 02MC 02RD 02RO	0	1	2.51271486282	None	None	None	None	1
2.7	2015_May_27_1347	s	s	10	5	SIC	237	ABS	2	2	10VD 02VO 02VC 02MD 02MO 02MC 02RD 02RO	0	1	3.14887499809	None	None	None	None	1
2.7	2015_May_27_1347	s	s	10	5	SIC	238	RC	0	1	02VD 02VO 02VC 02MD 02MO 02MC 02RD 09RO	1	0	3.62467098236	408.0	-80.0	407	-81	1
2.7	2015_May_27_1347	s	s	10	5	SIC	239	ABS	2	1	02VD 10VO 02VC 02MD 02MO 02MC 02RD 02RO	0	1	4.00137114525	None	None	None	None	1
2.7	2015_May_27_1347	s	s	10	5	SIC	240	RC	2	0	02VD 02VO 09VC 02MD 02MO 02MC 02RD 02RO	1	0	2.70094180107	-209.0	305.0	-212	301	1
2.7	2015_May_27_1347	s	s	10	5	SIC	241	RC	0	2	02VD 02VO 02VC 02MD 02MO 02MC 09RD 02RO	1	0	2.26603221893	-512.0	7.0	-511	4	1
2.7	2015_May_27_1347	s	s	10	5	SIC	242	ABS	2	1	02VD 10VO 02VC 02MD 02MO 02MC 02RD 02RO	0	1	3.06656503677	None	None	None	None	1
2.7	2015_May_27_1347	s	s	10	5	SIC	243	ABS	2	2	10VD 02VO 02VC 02MD 02MO 02MC 02RD 02RO	0	1	1.92404317856	None	None	None	None	1
2.7	2015_May_27_1347	s	s	10	5	SIC	244	RC	0	1	02VD 02VO 02VC 02MD 02MO 02MC 02RD 09RO	0	1	2.8242650032	416.0	67.0	None	None	0
2.7	2015_May_27_1347	s	s	10	5	SIC	245	ABS	0	1	02VD 02VO 02VC 02MD 02MO 02MC 02RD 10RO	0	1	2.90673184395	None	None	None	None	1
2.7	2015_May_27_1347	s	s	10	5	SIC	246	ABS	1	2	02VD 02VO 02VC 10MD 02MO 02MC 02RD 02RO	0	1	1.56490898132	None	None	None	None	1
2.7	2015_May_27_1347	s	s	10	5	SIC	247	RC	1	1	02VD 02VO 02VC 02MD 09MO 02MC 02RD 02RO	1	0	1.28234410286	-409.0	-12.0	-411	-10	1
2.7	2015_May_27_1347	s	s	10	5	SIC	248	RC	2	2	09VD 02VO 02VC 02MD 02MO 02MC 02RD 02RO	1	0	1.74141812325	-287.0	-125.0	-284	-124	1
2.7	2015_May_27_1347	s	s	10	5	SIC	249	RC	2	1	02VD 09VO 02VC 02MD 02MO 02MC 02RD 02RO	1	0	1.17633104324	-3.0	-367.0	0	-365	1
2.7	2015_May_27_1347	s	s	10	5	SIC	250	ABS	1	0	02VD 02VO 02VC 02MD 02MO 10MC 02RD 02RO	0	1	1.40915513039	None	None	None	None	1
2.7	2015_May_27_1347	s	s	10	5	SIC	251	ABS	1	1	02VD 02VO 02VC 02MD 10MO 02MC 02RD 02RO	0	1	1.40655589104	None	None	None	None	1
2.7	2015_May_27_1347	s	s	10	5	SIC	252	ABS	0	2	02VD 02VO 02VC 02MD 02MO 02MC 10RD 02RO	0	1	1.51777791977	None	None	None	None	1
2.7	2015_May_27_1347	s	s	10	5	SIC	253	RC	1	2	02VD 02VO 02VC 09MD 02MO 02MC 02RD 02RO	1	0	0.885821819305	89.0	35.0	81	39	1
2.7	2015_May_27_1347	s	s	10	5	SIC	254	ABS	2	0	02VD 02VO 10VC 02MD 02MO 02MC 02RD 02RO	0	1	1.82375693321	None	None	None	None	1
2.7	2015_May_27_1347	s	s	10	5	SIC	255	RC	2	0	02VD 02VO 09VC 02MD 02MO 02MC 02RD 02RO	1	0	1.52957606316	509.0	-345.0	520	-338	1
2.7	2015_May_27_1347	s	s	10	5	SIC	256	RC	1	0	02VD 02VO 02VC 02MD 02MO 09MC 02RD 02RO	1	0	1.11271214485	-237.0	-222.0	-231	-221	1
2.7	2015_May_27_1347	s	s	10	5	SIC	257	RC	2	2	09VD 02VO 02VC 02MD 02MO 02MC 02RD 02RO	1	0	2.1272778511	185.0	-272.0	188	-268	1
2.7	2015_May_27_1347	s	s	10	5	SIC	258	ABS	0	2	02VD 02VO 02VC 02MD 02MO 02MC 10RD 02RO	0	1	1.45903611183	None	None	None	None	1
2.7	2015_May_27_1347	s	s	10	5	SIC	259	ABS	1	1	02VD 02VO 02VC 02MD 10MO 02MC 02RD 02RO	0	1	1.34471702576	None	None	None	None	1
2.7	2015_May_27_1347	s	s	10	5	SIC	260	RC	2	1	02VD 09VO 02VC 02MD 02MO 02MC 02RD 02RO	1	0	1.33837199211	-538.0	-274.0	-540	-271	1
2.7	2015_May_27_1347	s	s	10	5	SIC	261	ABS	0	1	02VD 02VO 02VC 02MD 02MO 02MC 02RD 10RO	0	1	2.39788413048	None	None	None	None	1
2.7	2015_May_27_1347	s	s	10	5	SIC	262	RC	0	1	02VD 02VO 02VC 02MD 02MO 02MC 02RD 09RO	1	0	1.43261790276	356.0	218.0	357	215	1
2.7	2015_May_27_1347	s	s	10	5	SIC	263	ABS	2	2	10VD 02VO 02VC 02MD 02MO 02MC 02RD 02RO	0	1	3.55409002304	None	None	None	None	1
2.7	2015_May_27_1347	s	s	10	5	SIC	264	RC	2	0	02VD 02VO 09VC 02MD 02MO 02MC 02RD 02RO	1	0	2.04277610779	-333.0	-257.0	-330	-254	1
2.7	2015_May_27_1347	s	s	10	5	SIC	265	ABS	1	0	02VD 02VO 02VC 02MD 02MO 10MC 02RD 02RO	0	1	2.08269715309	None	None	None	None	1
2.7	2015_May_27_1347	s	s	10	5	SIC	266	RC	1	0	02VD 02VO 02VC 02MD 02MO 09MC 02RD 02RO	1	0	1.01161599159	-92.0	298.0	-99	305	1
2.7	2015_May_27_1347	s	s	10	5	SIC	267	RC	1	2	02VD 02VO 02VC 09MD 02MO 02MC 02RD 02RO	1	0	4.30743694305	226.0	358.0	230	359	1
2.7	2015_May_27_1347	s	s	10	5	SIC	268	RC	1	1	02VD 02VO 02VC 02MD 09MO 02MC 02RD 02RO	1	0	4.69583106041	322.0	-66.0	321	-61	1
2.7	2015_May_27_1347	s	s	10	5	SIC	269	ABS	2	0	02VD 02VO 10VC 02MD 02MO 02MC 02RD 02RO	1	0	4.213149786	None	None	-54	-237	0
2.7	2015_May_27_1347	s	s	10	5	SIC	270	RC	0	2	02VD 02VO 02VC 02MD 02MO 02MC 09RD 02RO	1	0	1.30054116249	-447.0	-21.0	-452	-15	1
2.7	2015_May_27_1347	s	s	10	5	SIC	271	ABS	1	2	02VD 02VO 02VC 10MD 02MO 02MC 02RD 02RO	0	1	2.06824994087	None	None	None	None	1
2.7	2015_May_27_1347	s	s	10	5	SIC	272	ABS	2	1	02VD 10VO 02VC 02MD 02MO 02MC 02RD 02RO	0	1	1.80027914047	None	None	None	None	1
2.7	2015_May_27_1347	s	s	10	5	SIC	273	RC	0	2	02VD 02VO 02VC 02MD 02MO 02MC 09RD 02RO	1	0	2.83061695099	169.0	-28.0	178	-21	1
2.7	2015_May_27_1347	s	s	10	5	SIC	274	RC	1	1	02VD 02VO 02VC 02MD 09MO 02MC 02RD 02RO	1	0	2.87144804001	-98.0	-257.0	-96	-259	1
2.7	2015_May_27_1347	s	s	10	5	SIC	275	RC	2	0	02VD 02VO 09VC 02MD 02MO 02MC 02RD 02RO	1	0	1.86744999886	-474.0	149.0	-481	152	1
2.7	2015_May_27_1347	s	s	10	5	SIC	276	RC	1	0	02VD 02VO 02VC 02MD 02MO 09MC 02RD 02RO	1	0	1.40005397797	-212.0	-124.0	-207	-120	1
2.7	2015_May_27_1347	s	s	10	5	SIC	277	RC	0	1	02VD 02VO 02VC 02MD 02MO 02MC 02RD 09RO	1	0	2.60063791275	346.0	136.0	348	136	1
2.7	2015_May_27_1347	s	s	10	5	SIC	278	ABS	2	0	02VD 02VO 10VC 02MD 02MO 02MC 02RD 02RO	0	1	2.68676400185	None	None	None	None	1
2.7	2015_May_27_1347	s	s	10	5	SIC	279	ABS	2	1	02VD 10VO 02VC 02MD 02MO 02MC 02RD 02RO	0	1	2.34175205231	None	None	None	None	1
2.7	2015_May_27_1347	s	s	10	5	SIC	280	ABS	2	2	10VD 02VO 02VC 02MD 02MO 02MC 02RD 02RO	0	1	5.7975230217	None	None	None	None	1
2.7	2015_May_27_1347	s	s	10	5	SIC	281	ABS	1	1	02VD 02VO 02VC 02MD 10MO 02MC 02RD 02RO	0	1	2.46653199196	None	None	None	None	1
2.7	2015_May_27_1347	s	s	10	5	SIC	282	ABS	0	1	02VD 02VO 02VC 02MD 02MO 02MC 02RD 10RO	0	1	4.29312896729	None	None	None	None	1
2.7	2015_May_27_1347	s	s	10	5	SIC	283	ABS	1	0	02VD 02VO 02VC 02MD 02MO 10MC 02RD 02RO	0	1	3.42055487633	None	None	None	None	1
2.7	2015_May_27_1347	s	s	10	5	SIC	284	RC	2	2	09VD 02VO 02VC 02MD 02MO 02MC 02RD 02RO	1	0	4.36052513123	418.0	67.0	425	72	1
2.7	2015_May_27_1347	s	s	10	5	SIC	285	RC	1	2	02VD 02VO 02VC 09MD 02MO 02MC 02RD 02RO	1	0	3.78341007233	206.0	373.0	206	374	1
2.7	2015_May_27_1347	s	s	10	5	SIC	286	RC	2	1	02VD 09VO 02VC 02MD 02MO 02MC 02RD 02RO	1	0	2.73615098	219.0	236.0	218	239	1
2.7	2015_May_27_1347	s	s	10	5	SIC	287	ABS	0	2	02VD 02VO 02VC 02MD 02MO 02MC 10RD 02RO	0	1	3.98462104797	None	None	None	None	1
2.7	2015_May_27_1347	s	s	10	5	SIC	288	ABS	1	2	02VD 02VO 02VC 10MD 02MO 02MC 02RD 02RO	0	1	1.20923805237	None	None	None	None	1
2.7	2015_May_27_1347	s	s	10	5	SIC	289	RC	1	1	02VD 02VO 02VC 02MD 09MO 02MC 02RD 02RO	1	0	1.60045409203	279.0	176.0	275	177	1
2.7	2015_May_27_1347	s	s	10	5	SIC	290	ABS	1	0	02VD 02VO 02VC 02MD 02MO 10MC 02RD 02RO	0	1	2.78897809982	None	None	None	None	1
2.7	2015_May_27_1347	s	s	10	5	SIC	291	ABS	1	1	02VD 02VO 02VC 02MD 10MO 02MC 02RD 02RO	0	1	3.30692195892	None	None	None	None	1
2.7	2015_May_27_1347	s	s	10	5	SIC	292	ABS	0	1	02VD 02VO 02VC 02MD 02MO 02MC 02RD 10RO	0	1	2.17163109779	None	None	None	None	1
2.7	2015_May_27_1347	s	s	10	5	SIC	293	RC	2	0	02VD 02VO 09VC 02MD 02MO 02MC 02RD 02RO	1	0	1.28279614449	-142.0	-328.0	-146	-326	1
2.7	2015_May_27_1347	s	s	10	5	SIC	294	RC	2	1	02VD 09VO 02VC 02MD 02MO 02MC 02RD 02RO	1	0	1.43542098999	308.0	-108.0	307	-114	1
2.7	2015_May_27_1347	s	s	10	5	SIC	295	ABS	0	2	02VD 02VO 02VC 02MD 02MO 02MC 10RD 02RO	0	1	1.84373307228	None	None	None	None	1
2.7	2015_May_27_1347	s	s	10	5	SIC	296	ABS	2	0	02VD 02VO 10VC 02MD 02MO 02MC 02RD 02RO	0	1	1.5883769989	None	None	None	None	1
2.7	2015_May_27_1347	s	s	10	5	SIC	297	RC	0	1	02VD 02VO 02VC 02MD 02MO 02MC 02RD 09RO	0	1	3.08336687088	-417.0	312.0	None	None	0
2.7	2015_May_27_1347	s	s	10	5	SIC	298	RC	0	2	02VD 02VO 02VC 02MD 02MO 02MC 09RD 02RO	1	0	3.14870500565	289.0	-142.0	283	-139	1
2.7	2015_May_27_1347	s	s	10	5	SIC	299	RC	2	2	09VD 02VO 02VC 02MD 02MO 02MC 02RD 02RO	1	0	1.31764411926	442.0	182.0	441	182	1
2.7	2015_May_27_1347	s	s	10	5	SIC	300	RC	1	2	02VD 02VO 02VC 09MD 02MO 02MC 02RD 02RO	1	0	1.18303585052	-198.0	220.0	-196	219	1
2.7	2015_May_27_1347	s	s	10	5	SIC	301	ABS	2	2	10VD 02VO 02VC 02MD 02MO 02MC 02RD 02RO	0	1	1.08846402168	None	None	None	None	1
2.7	2015_May_27_1347	s	s	10	5	SIC	302	RC	1	0	02VD 02VO 02VC 02MD 02MO 09MC 02RD 02RO	1	0	0.811594009399	221.0	-212.0	220	-213	1
2.7	2015_May_27_1347	s	s	10	5	SIC	303	ABS	2	1	02VD 10VO 02VC 02MD 02MO 02MC 02RD 02RO	0	1	1.46552300453	None	None	None	None	1
2.7	2015_May_27_1347	s	s	10	5	SIC	304	ABS	1	2	02VD 02VO 02VC 10MD 02MO 02MC 02RD 02RO	0	1	1.22077608109	None	None	None	None	1
2.7	2015_May_27_1347	s	s	10	5	SIC	305	ABS	1	1	02VD 02VO 02VC 02MD 10MO 02MC 02RD 02RO	0	1	1.75903511047	None	None	None	None	1
2.7	2015_May_27_1347	s	s	10	5	SIC	306	RC	0	2	02VD 02VO 02VC 02MD 02MO 02MC 09RD 02RO	1	0	0.877296924591	-169.0	90.0	-168	93	1
2.7	2015_May_27_1347	s	s	10	5	SIC	307	ABS	1	2	02VD 02VO 02VC 10MD 02MO 02MC 02RD 02RO	0	1	2.41598296165	None	None	None	None	1
2.7	2015_May_27_1347	s	s	10	5	SIC	308	ABS	1	0	02VD 02VO 02VC 02MD 02MO 10MC 02RD 02RO	0	1	2.31810998917	None	None	None	None	1
2.7	2015_May_27_1347	s	s	10	5	SIC	309	ABS	2	2	10VD 02VO 02VC 02MD 02MO 02MC 02RD 02RO	0	1	1.35286402702	None	None	None	None	1
2.7	2015_May_27_1347	s	s	10	5	SIC	310	RC	1	2	02VD 02VO 02VC 09MD 02MO 02MC 02RD 02RO	1	0	1.25331616402	470.0	262.0	471	263	1
2.7	2015_May_27_1347	s	s	10	5	SIC	311	RC	2	1	02VD 09VO 02VC 02MD 02MO 02MC 02RD 02RO	1	0	1.84731006622	264.0	-271.0	262	-271	1
2.7	2015_May_27_1347	s	s	10	5	SIC	312	ABS	2	1	02VD 10VO 02VC 02MD 02MO 02MC 02RD 02RO	0	1	1.45600795746	None	None	None	None	1
2.7	2015_May_27_1347	s	s	10	5	SIC	313	RC	1	0	02VD 02VO 02VC 02MD 02MO 09MC 02RD 02RO	1	0	1.00850510597	-263.0	11.0	-265	3	1
2.7	2015_May_27_1347	s	s	10	5	SIC	314	RC	2	2	09VD 02VO 02VC 02MD 02MO 02MC 02RD 02RO	1	0	2.3417031765	-373.0	-339.0	-379	-344	1
2.7	2015_May_27_1347	s	s	10	5	SIC	315	RC	0	1	02VD 02VO 02VC 02MD 02MO 02MC 02RD 09RO	1	0	2.16505885124	531.0	-111.0	537	-109	1
2.7	2015_May_27_1347	s	s	10	5	SIC	316	ABS	2	0	02VD 02VO 10VC 02MD 02MO 02MC 02RD 02RO	0	1	2.05485796928	None	None	None	None	1
2.7	2015_May_27_1347	s	s	10	5	SIC	317	RC	1	1	02VD 02VO 02VC 02MD 09MO 02MC 02RD 02RO	1	0	2.65676498413	127.0	194.0	120	195	1
2.7	2015_May_27_1347	s	s	10	5	SIC	318	ABS	0	1	02VD 02VO 02VC 02MD 02MO 02MC 02RD 10RO	0	1	5.59042716026	None	None	None	None	1
2.7	2015_May_27_1347	s	s	10	5	SIC	319	RC	2	0	02VD 02VO 09VC 02MD 02MO 02MC 02RD 02RO	1	0	1.60382795334	41.0	-216.0	42	-213	1
2.7	2015_May_27_1347	s	s	10	5	SIC	320	ABS	0	2	02VD 02VO 02VC 02MD 02MO 02MC 10RD 02RO	0	1	2.41863799095	None	None	None	None	1
2.7	2015_May_27_1347	s	s	10	5	SIC	321	RC	0	1	02VD 02VO 02VC 02MD 02MO 02MC 02RD 09RO	0	1	3.50242900848	454.0	-227.0	None	None	0
2.7	2015_May_27_1347	s	s	10	5	SIC	322	RC	2	2	09VD 02VO 02VC 02MD 02MO 02MC 02RD 02RO	1	0	2.61918497086	-236.0	39.0	-235	33	1
2.7	2015_May_27_1347	s	s	10	5	SIC	323	RC	2	0	02VD 02VO 09VC 02MD 02MO 02MC 02RD 02RO	1	0	1.9858789444	304.0	211.0	302	212	1
2.7	2015_May_27_1347	s	s	10	5	SIC	324	RC	1	1	02VD 02VO 02VC 02MD 09MO 02MC 02RD 02RO	1	0	1.8590939045	115.0	382.0	111	380	1
2.7	2015_May_27_1347	s	s	10	5	SIC	325	RC	2	1	02VD 09VO 02VC 02MD 02MO 02MC 02RD 02RO	1	0	1.23900222778	77.0	-14.0	75	-8	1
2.7	2015_May_27_1347	s	s	10	5	SIC	326	ABS	2	1	02VD 10VO 02VC 02MD 02MO 02MC 02RD 02RO	0	1	2.007158041	None	None	None	None	1
2.7	2015_May_27_1347	s	s	10	5	SIC	327	RC	1	2	02VD 02VO 02VC 09MD 02MO 02MC 02RD 02RO	1	0	1.06474494934	-210.0	26.0	-211	22	1
2.7	2015_May_27_1347	s	s	10	5	SIC	328	ABS	0	2	02VD 02VO 02VC 02MD 02MO 02MC 10RD 02RO	0	1	1.47765398026	None	None	None	None	1
2.7	2015_May_27_1347	s	s	10	5	SIC	329	ABS	0	1	02VD 02VO 02VC 02MD 02MO 02MC 02RD 10RO	0	1	1.42091107368	None	None	None	None	1
2.7	2015_May_27_1347	s	s	10	5	SIC	330	ABS	1	0	02VD 02VO 02VC 02MD 02MO 10MC 02RD 02RO	0	1	1.87689399719	None	None	None	None	1
2.7	2015_May_27_1347	s	s	10	5	SIC	331	RC	0	2	02VD 02VO 02VC 02MD 02MO 02MC 09RD 02RO	0	1	3.03614997864	-81.0	248.0	None	None	0
2.7	2015_May_27_1347	s	s	10	5	SIC	332	ABS	2	0	02VD 02VO 10VC 02MD 02MO 02MC 02RD 02RO	0	1	1.47672200203	None	None	None	None	1
2.7	2015_May_27_1347	s	s	10	5	SIC	333	RC	1	0	02VD 02VO 02VC 02MD 02MO 09MC 02RD 02RO	1	0	1.80026197433	227.0	-384.0	232	-383	1
2.7	2015_May_27_1347	s	s	10	5	SIC	334	ABS	1	2	02VD 02VO 02VC 10MD 02MO 02MC 02RD 02RO	0	1	1.34123492241	None	None	None	None	1
2.7	2015_May_27_1347	s	s	10	5	SIC	335	ABS	2	2	10VD 02VO 02VC 02MD 02MO 02MC 02RD 02RO	0	1	1.57403278351	None	None	None	None	1
2.7	2015_May_27_1347	s	s	10	5	SIC	336	ABS	1	1	02VD 02VO 02VC 02MD 10MO 02MC 02RD 02RO	0	1	1.63558912277	None	None	None	None	1
2.7	2015_May_27_1347	s	s	10	5	SIC	337	RC	1	1	02VD 02VO 02VC 02MD 09MO 02MC 02RD 02RO	0	1	1.84735798836	411.0	-215.0	None	None	0
2.7	2015_May_27_1347	s	s	10	5	SIC	338	RC	0	2	02VD 02VO 02VC 02MD 02MO 02MC 09RD 02RO	0	1	1.48250007629	79.0	345.0	None	None	0
2.7	2015_May_27_1347	s	s	10	5	SIC	339	ABS	2	0	02VD 02VO 10VC 02MD 02MO 02MC 02RD 02RO	0	1	1.78849196434	None	None	None	None	1
2.7	2015_May_27_1347	s	s	10	5	SIC	340	ABS	0	1	02VD 02VO 02VC 02MD 02MO 02MC 02RD 10RO	0	1	2.59454894066	None	None	None	None	1
2.7	2015_May_27_1347	s	s	10	5	SIC	341	ABS	1	0	02VD 02VO 02VC 02MD 02MO 10MC 02RD 02RO	0	1	2.63229799271	None	None	None	None	1
2.7	2015_May_27_1347	s	s	10	5	SIC	342	ABS	1	1	02VD 02VO 02VC 02MD 10MO 02MC 02RD 02RO	0	1	2.11798810959	None	None	None	None	1
2.7	2015_May_27_1347	s	s	10	5	SIC	343	RC	1	0	02VD 02VO 02VC 02MD 02MO 09MC 02RD 02RO	1	0	3.24364089966	14.0	287.0	23	286	1
2.7	2015_May_27_1347	s	s	10	5	SIC	344	ABS	1	2	02VD 02VO 02VC 10MD 02MO 02MC 02RD 02RO	0	1	1.30238509178	None	None	None	None	1
2.7	2015_May_27_1347	s	s	10	5	SIC	345	ABS	2	2	10VD 02VO 02VC 02MD 02MO 02MC 02RD 02RO	0	1	0.952779054642	None	None	None	None	1
2.7	2015_May_27_1347	s	s	10	5	SIC	346	ABS	2	1	02VD 10VO 02VC 02MD 02MO 02MC 02RD 02RO	0	1	0.223020076752	None	None	None	None	1
2.7	2015_May_27_1347	s	s	10	5	SIC	347	RC	1	2	02VD 02VO 02VC 09MD 02MO 02MC 02RD 02RO	1	0	0.6938560009	-174.0	-94.0	-174	-99	1
2.7	2015_May_27_1347	s	s	10	5	SIC	348	RC	2	2	09VD 02VO 02VC 02MD 02MO 02MC 02RD 02RO	1	0	0.926409006119	-112.0	49.0	-108	45	1
2.7	2015_May_27_1347	s	s	10	5	SIC	349	RC	2	1	02VD 09VO 02VC 02MD 02MO 02MC 02RD 02RO	1	0	1.23528313637	282.0	-150.0	283	-152	1
2.7	2015_May_27_1347	s	s	10	5	SIC	350	RC	2	0	02VD 02VO 09VC 02MD 02MO 02MC 02RD 02RO	1	0	0.976352214813	413.0	-223.0	409	-221	1
2.7	2015_May_27_1347	s	s	10	5	SIC	351	RC	0	1	02VD 02VO 02VC 02MD 02MO 02MC 02RD 09RO	1	0	2.78428983688	-436.0	-76.0	-432	-75	1
2.7	2015_May_27_1347	s	s	10	5	SIC	352	ABS	0	2	02VD 02VO 02VC 02MD 02MO 02MC 10RD 02RO	0	1	5.8729159832	None	None	None	None	1
2.7	2015_May_27_1347	s	s	10	5	SIC	353	ABS	2	1	02VD 10VO 02VC 02MD 02MO 02MC 02RD 02RO	0	1	1.32639098167	None	None	None	None	1
2.7	2015_May_27_1347	s	s	10	5	SIC	354	RC	2	0	02VD 02VO 09VC 02MD 02MO 02MC 02RD 02RO	0	1	1.3826880455	-255.0	188.0	None	None	0
2.7	2015_May_27_1347	s	s	10	5	SIC	355	RC	2	1	02VD 09VO 02VC 02MD 02MO 02MC 02RD 02RO	1	0	2.0420460701	-184.0	-255.0	-172	-254	1
2.7	2015_May_27_1347	s	s	10	5	SIC	356	ABS	1	1	02VD 02VO 02VC 02MD 10MO 02MC 02RD 02RO	0	1	3.38453578949	None	None	None	None	1
2.7	2015_May_27_1347	s	s	10	5	SIC	357	ABS	1	0	02VD 02VO 02VC 02MD 02MO 10MC 02RD 02RO	0	1	2.09452295303	None	None	None	None	1
2.7	2015_May_27_1347	s	s	10	5	SIC	358	ABS	2	0	02VD 02VO 10VC 02MD 02MO 02MC 02RD 02RO	0	1	1.48933291435	None	None	None	None	1
2.7	2015_May_27_1347	s	s	10	5	SIC	359	RC	0	1	02VD 02VO 02VC 02MD 02MO 02MC 02RD 09RO	1	0	1.27063584328	255.0	127.0	258	124	1
2.7	2015_May_27_1347	s	s	10	5	SIC	360	RC	0	2	02VD 02VO 02VC 02MD 02MO 02MC 09RD 02RO	1	0	1.03870797157	273.0	177.0	272	176	1
2.7	2015_May_27_1347	s	s	10	5	SIC	361	ABS	2	2	10VD 02VO 02VC 02MD 02MO 02MC 02RD 02RO	0	1	0.835178852081	None	None	None	None	1
2.7	2015_May_27_1347	s	s	10	5	SIC	362	ABS	0	2	02VD 02VO 02VC 02MD 02MO 02MC 10RD 02RO	0	1	1.64408493042	None	None	None	None	1
2.7	2015_May_27_1347	s	s	10	5	SIC	363	RC	1	1	02VD 02VO 02VC 02MD 09MO 02MC 02RD 02RO	1	0	1.45294499397	-295.0	171.0	-294	172	1
2.7	2015_May_27_1347	s	s	10	5	SIC	364	RC	1	2	02VD 02VO 02VC 09MD 02MO 02MC 02RD 02RO	1	0	0.900314807892	119.0	234.0	126	238	1
2.7	2015_May_27_1347	s	s	10	5	SIC	365	ABS	0	1	02VD 02VO 02VC 02MD 02MO 02MC 02RD 10RO	0	1	5.09332585335	None	None	None	None	1
2.7	2015_May_27_1347	s	s	10	5	SIC	366	RC	1	0	02VD 02VO 02VC 02MD 02MO 09MC 02RD 02RO	1	0	1.16027188301	-37.0	-121.0	-39	-120	1
2.7	2015_May_27_1347	s	s	10	5	SIC	367	RC	2	2	09VD 02VO 02VC 02MD 02MO 02MC 02RD 02RO	1	0	0.79979801178	-213.0	-189.0	-216	-189	1
2.7	2015_May_27_1347	s	s	10	5	SIC	368	ABS	1	2	02VD 02VO 02VC 10MD 02MO 02MC 02RD 02RO	0	1	1.36501193047	None	None	None	None	1
2.7	2015_May_27_1347	s	s	10	5	SIC	369	ABS	2	1	02VD 10VO 02VC 02MD 02MO 02MC 02RD 02RO	0	1	1.51765108109	None	None	None	None	1
2.7	2015_May_27_1347	s	s	10	5	SIC	370	ABS	0	1	02VD 02VO 02VC 02MD 02MO 02MC 02RD 10RO	0	1	4.33678913116	None	None	None	None	1
2.7	2015_May_27_1347	s	s	10	5	SIC	371	RC	2	1	02VD 09VO 02VC 02MD 02MO 02MC 02RD 02RO	1	0	1.1376478672	-74.0	340.0	-69	349	1
2.7	2015_May_27_1347	s	s	10	5	SIC	372	ABS	2	0	02VD 02VO 10VC 02MD 02MO 02MC 02RD 02RO	0	1	1.50064897537	None	None	None	None	1
2.7	2015_May_27_1347	s	s	10	5	SIC	373	RC	1	1	02VD 02VO 02VC 02MD 09MO 02MC 02RD 02RO	1	0	1.24714493752	459.0	-216.0	469	-212	1
2.7	2015_May_27_1347	s	s	10	5	SIC	374	ABS	1	1	02VD 02VO 02VC 02MD 10MO 02MC 02RD 02RO	0	1	1.97676515579	None	None	None	None	1
2.7	2015_May_27_1347	s	s	10	5	SIC	375	RC	2	2	09VD 02VO 02VC 02MD 02MO 02MC 02RD 02RO	1	0	2.13009119034	11.0	-183.0	15	-179	1
2.7	2015_May_27_1347	s	s	10	5	SIC	376	RC	0	2	02VD 02VO 02VC 02MD 02MO 02MC 09RD 02RO	1	0	1.18825912476	-236.0	142.0	-234	149	1
2.7	2015_May_27_1347	s	s	10	5	SIC	377	ABS	1	2	02VD 02VO 02VC 10MD 02MO 02MC 02RD 02RO	0	1	1.76003503799	None	None	None	None	1
2.7	2015_May_27_1347	s	s	10	5	SIC	378	RC	0	1	02VD 02VO 02VC 02MD 02MO 02MC 02RD 09RO	1	0	2.71503686905	394.0	-363.0	391	-364	1
2.7	2015_May_27_1347	s	s	10	5	SIC	379	ABS	1	0	02VD 02VO 02VC 02MD 02MO 10MC 02RD 02RO	0	1	2.19549107552	None	None	None	None	1
2.7	2015_May_27_1347	s	s	10	5	SIC	380	RC	1	0	02VD 02VO 02VC 02MD 02MO 09MC 02RD 02RO	0	1	2.1152639389	92.0	-383.0	None	None	0
2.7	2015_May_27_1347	s	s	10	5	SIC	381	ABS	2	2	10VD 02VO 02VC 02MD 02MO 02MC 02RD 02RO	0	1	1.52971506119	None	None	None	None	1
2.7	2015_May_27_1347	s	s	10	5	SIC	382	RC	1	2	02VD 02VO 02VC 09MD 02MO 02MC 02RD 02RO	1	0	2.4436788559	154.0	164.0	157	162	1
2.7	2015_May_27_1347	s	s	10	5	SIC	383	ABS	0	2	02VD 02VO 02VC 02MD 02MO 02MC 10RD 02RO	0	1	1.95334792137	None	None	None	None	1
2.7	2015_May_27_1347	s	s	10	5	SIC	384	RC	2	0	02VD 02VO 09VC 02MD 02MO 02MC 02RD 02RO	1	0	2.01217889786	-511.0	316.0	-514	320	1
2.7	2015_May_27_1347	s	s	10	5	SIC	385	RC	2	2	09VD 02VO 02VC 02MD 02MO 02MC 02RD 02RO	1	0	1.42364907265	333.0	-25.0	323	-23	1
2.7	2015_May_27_1347	s	s	10	5	SIC	386	ABS	2	1	02VD 10VO 02VC 02MD 02MO 02MC 02RD 02RO	0	1	1.07914400101	None	None	None	None	1
2.7	2015_May_27_1347	s	s	10	5	SIC	387	RC	1	1	02VD 02VO 02VC 02MD 09MO 02MC 02RD 02RO	1	0	0.938173055649	177.0	-191.0	187	-187	1
2.7	2015_May_27_1347	s	s	10	5	SIC	388	RC	1	2	02VD 02VO 02VC 09MD 02MO 02MC 02RD 02RO	1	0	6.58852910995	185.0	405.0	184	404	1
2.7	2015_May_27_1347	s	s	10	5	SIC	389	RC	2	0	02VD 02VO 09VC 02MD 02MO 02MC 02RD 02RO	0	1	1.5619328022	39.0	310.0	None	None	0
2.7	2015_May_27_1347	s	s	10	5	SIC	390	ABS	0	2	02VD 02VO 02VC 02MD 02MO 02MC 10RD 02RO	0	1	9.91029596329	None	None	None	None	1
2.7	2015_May_27_1347	s	s	10	5	SIC	391	RC	0	2	02VD 02VO 02VC 02MD 02MO 02MC 09RD 02RO	1	0	1.3057718277	464.0	-122.0	469	-120	1
2.7	2015_May_27_1347	s	s	10	5	SIC	392	ABS	2	2	10VD 02VO 02VC 02MD 02MO 02MC 02RD 02RO	0	1	0.0906510353088	None	None	None	None	1
2.7	2015_May_27_1347	s	s	10	5	SIC	393	RC	1	0	02VD 02VO 02VC 02MD 02MO 09MC 02RD 02RO	1	0	0.799824953079	114.0	-201.0	121	-199	1
2.7	2015_May_27_1347	s	s	10	5	SIC	394	ABS	0	1	02VD 02VO 02VC 02MD 02MO 02MC 02RD 10RO	0	1	3.6600048542	None	None	None	None	1
2.7	2015_May_27_1347	s	s	10	5	SIC	395	ABS	2	0	02VD 02VO 10VC 02MD 02MO 02MC 02RD 02RO	0	1	1.50332713127	None	None	None	None	1
2.7	2015_May_27_1347	s	s	10	5	SIC	396	ABS	1	0	02VD 02VO 02VC 02MD 02MO 10MC 02RD 02RO	0	1	2.29011702538	None	None	None	None	1
2.7	2015_May_27_1347	s	s	10	5	SIC	397	ABS	1	1	02VD 02VO 02VC 02MD 10MO 02MC 02RD 02RO	0	1	1.70182800293	None	None	None	None	1
2.7	2015_May_27_1347	s	s	10	5	SIC	398	ABS	1	2	02VD 02VO 02VC 10MD 02MO 02MC 02RD 02RO	0	1	1.74141907692	None	None	None	None	1
2.7	2015_May_27_1347	s	s	10	5	SIC	399	RC	0	1	02VD 02VO 02VC 02MD 02MO 02MC 02RD 09RO	1	0	3.49524497986	-226.0	-361.0	-223	-368	1
2.7	2015_May_27_1347	s	s	10	5	SIC	400	RC	2	1	02VD 09VO 02VC 02MD 02MO 02MC 02RD 02RO	1	0	1.41187977791	-88.0	-343.0	-82	-334	1
2.7	2015_May_27_1347	s	s	10	5	SIC	401	RC	0	2	02VD 02VO 02VC 02MD 02MO 02MC 09RD 02RO	0	1	1.93656396866	-411.0	205.0	None	None	0
2.7	2015_May_27_1347	s	s	10	5	SIC	402	ABS	0	1	02VD 02VO 02VC 02MD 02MO 02MC 02RD 10RO	0	1	3.97502183914	None	None	None	None	1
2.7	2015_May_27_1347	s	s	10	5	SIC	403	RC	1	0	02VD 02VO 02VC 02MD 02MO 09MC 02RD 02RO	1	0	2.32522797585	-217.0	-148.0	-217	-152	1
2.7	2015_May_27_1347	s	s	10	5	SIC	404	RC	1	2	02VD 02VO 02VC 09MD 02MO 02MC 02RD 02RO	1	0	1.64724397659	-113.0	362.0	-114	365	1
2.7	2015_May_27_1347	s	s	10	5	SIC	405	RC	2	0	02VD 02VO 09VC 02MD 02MO 02MC 02RD 02RO	1	0	1.64729380608	443.0	-323.0	446	-324	1
2.7	2015_May_27_1347	s	s	10	5	SIC	406	RC	0	1	02VD 02VO 02VC 02MD 02MO 02MC 02RD 09RO	1	0	1.72966504097	-267.0	-279.0	-262	-271	1
2.7	2015_May_27_1347	s	s	10	5	SIC	407	RC	2	2	09VD 02VO 02VC 02MD 02MO 02MC 02RD 02RO	1	0	1.33840608597	-76.0	333.0	-76	332	1
2.7	2015_May_27_1347	s	s	10	5	SIC	408	RC	1	1	02VD 02VO 02VC 02MD 09MO 02MC 02RD 02RO	0	1	1.30592107773	309.0	-410.0	None	None	0
2.7	2015_May_27_1347	s	s	10	5	SIC	409	RC	2	1	02VD 09VO 02VC 02MD 02MO 02MC 02RD 02RO	1	0	0.80880689621	-335.0	-220.0	-339	-219	1
2.7	2015_May_27_1347	s	s	10	5	SIC	410	ABS	1	2	02VD 02VO 02VC 10MD 02MO 02MC 02RD 02RO	0	1	2.31310606003	None	None	None	None	1
2.7	2015_May_27_1347	s	s	10	5	SIC	411	ABS	1	0	02VD 02VO 02VC 02MD 02MO 10MC 02RD 02RO	0	1	2.31341195107	None	None	None	None	1
2.7	2015_May_27_1347	s	s	10	5	SIC	412	ABS	0	2	02VD 02VO 02VC 02MD 02MO 02MC 10RD 02RO	0	1	1.68263912201	None	None	None	None	1
2.7	2015_May_27_1347	s	s	10	5	SIC	413	ABS	2	1	02VD 10VO 02VC 02MD 02MO 02MC 02RD 02RO	0	1	1.13607788086	None	None	None	None	1
2.7	2015_May_27_1347	s	s	10	5	SIC	414	ABS	1	1	02VD 02VO 02VC 02MD 10MO 02MC 02RD 02RO	0	1	2.80915307999	None	None	None	None	1
2.7	2015_May_27_1347	s	s	10	5	SIC	415	ABS	2	0	02VD 02VO 10VC 02MD 02MO 02MC 02RD 02RO	0	1	1.8916349411	None	None	None	None	1
2.7	2015_May_27_1347	s	s	10	5	SIC	416	ABS	2	2	10VD 02VO 02VC 02MD 02MO 02MC 02RD 02RO	0	1	1.64271903038	None	None	None	None	1
2.7	2015_May_27_1347	s	s	10	5	SIC	417	RC	1	0	02VD 02VO 02VC 02MD 02MO 09MC 02RD 02RO	1	0	1.57697701454	-367.0	-252.0	-368	-259	1
2.7	2015_May_27_1347	s	s	10	5	SIC	418	ABS	0	1	02VD 02VO 02VC 02MD 02MO 02MC 02RD 10RO	0	1	1.99572014809	None	None	None	None	1
2.7	2015_May_27_1347	s	s	10	5	SIC	419	ABS	1	2	02VD 02VO 02VC 10MD 02MO 02MC 02RD 02RO	0	1	1.05593395233	None	None	None	None	1
2.7	2015_May_27_1347	s	s	10	5	SIC	420	RC	1	2	02VD 02VO 02VC 09MD 02MO 02MC 02RD 02RO	1	0	1.54129099846	-452.0	-294.0	-451	-293	1
2.7	2015_May_27_1347	s	s	10	5	SIC	421	RC	0	1	02VD 02VO 02VC 02MD 02MO 02MC 02RD 09RO	0	1	1.99718284607	501.0	-363.0	None	None	0
2.7	2015_May_27_1347	s	s	10	5	SIC	422	RC	1	1	02VD 02VO 02VC 02MD 09MO 02MC 02RD 02RO	1	0	0.858896970749	74.0	-104.0	77	-102	1
2.7	2015_May_27_1347	s	s	10	5	SIC	423	ABS	2	1	02VD 10VO 02VC 02MD 02MO 02MC 02RD 02RO	0	1	1.48933291435	None	None	None	None	1
2.7	2015_May_27_1347	s	s	10	5	SIC	424	ABS	0	2	02VD 02VO 02VC 02MD 02MO 02MC 10RD 02RO	1	0	1.44219589233	None	None	-116	-38	0
2.7	2015_May_27_1347	s	s	10	5	SIC	425	RC	0	2	02VD 02VO 02VC 02MD 02MO 02MC 09RD 02RO	0	1	0.941277980804	347.0	347.0	None	None	0
2.7	2015_May_27_1347	s	s	10	5	SIC	426	RC	2	1	02VD 09VO 02VC 02MD 02MO 02MC 02RD 02RO	1	0	0.764567136765	125.0	353.0	131	353	1
2.7	2015_May_27_1347	s	s	10	5	SIC	427	ABS	2	0	02VD 02VO 10VC 02MD 02MO 02MC 02RD 02RO	0	1	1.34757494926	None	None	None	None	1
2.7	2015_May_27_1347	s	s	10	5	SIC	428	ABS	2	2	10VD 02VO 02VC 02MD 02MO 02MC 02RD 02RO	0	1	2.22099304199	None	None	None	None	1
2.7	2015_May_27_1347	s	s	10	5	SIC	429	ABS	1	1	02VD 02VO 02VC 02MD 10MO 02MC 02RD 02RO	0	1	1.68925404549	None	None	None	None	1
2.7	2015_May_27_1347	s	s	10	5	SIC	430	RC	2	2	09VD 02VO 02VC 02MD 02MO 02MC 02RD 02RO	1	0	1.13671088219	-367.0	-185.0	-361	-187	1
2.7	2015_May_27_1347	s	s	10	5	SIC	431	RC	2	0	02VD 02VO 09VC 02MD 02MO 02MC 02RD 02RO	1	0	0.805095911026	372.0	34.0	371	38	1
2.7	2015_May_27_1347	s	s	10	5	SIC	432	ABS	1	0	02VD 02VO 02VC 02MD 02MO 10MC 02RD 02RO	0	1	2.69200611115	None	None	None	None	1
2.7	2015_May_27_1347	s	s	10	5	SIC	433	ABS	0	2	02VD 02VO 02VC 02MD 02MO 02MC 10RD 02RO	0	1	1.19998407364	None	None	None	None	1
2.7	2015_May_27_1347	s	s	10	5	SIC	434	RC	2	1	02VD 09VO 02VC 02MD 02MO 02MC 02RD 02RO	1	0	1.42028689384	260.0	380.0	257	383	1
2.7	2015_May_27_1347	s	s	10	5	SIC	435	RC	0	2	02VD 02VO 02VC 02MD 02MO 02MC 09RD 02RO	1	0	1.44218301773	-373.0	139.0	-365	145	1
2.7	2015_May_27_1347	s	s	10	5	SIC	436	RC	1	2	02VD 02VO 02VC 09MD 02MO 02MC 02RD 02RO	1	0	1.55317497253	495.0	224.0	494	228	1
2.7	2015_May_27_1347	s	s	10	5	SIC	437	RC	2	0	02VD 02VO 09VC 02MD 02MO 02MC 02RD 02RO	0	1	1.37650990486	-507.0	362.0	None	None	0
2.7	2015_May_27_1347	s	s	10	5	SIC	438	RC	0	1	02VD 02VO 02VC 02MD 02MO 02MC 02RD 09RO	1	0	1.81200695038	-391.0	-374.0	-392	-368	1
2.7	2015_May_27_1347	s	s	10	5	SIC	439	ABS	1	0	02VD 02VO 02VC 02MD 02MO 10MC 02RD 02RO	0	1	1.59640097618	None	None	None	None	1
2.7	2015_May_27_1347	s	s	10	5	SIC	440	ABS	1	2	02VD 02VO 02VC 10MD 02MO 02MC 02RD 02RO	0	1	2.35077786446	None	None	None	None	1
2.7	2015_May_27_1347	s	s	10	5	SIC	441	RC	1	1	02VD 02VO 02VC 02MD 09MO 02MC 02RD 02RO	0	1	1.19602894783	-219.0	396.0	None	None	0
2.7	2015_May_27_1347	s	s	10	5	SIC	442	ABS	2	1	02VD 10VO 02VC 02MD 02MO 02MC 02RD 02RO	0	1	5.32844614983	None	None	None	None	1
2.7	2015_May_27_1347	s	s	10	5	SIC	443	RC	2	2	09VD 02VO 02VC 02MD 02MO 02MC 02RD 02RO	0	1	1.58868193626	-75.0	-265.0	None	None	0
2.7	2015_May_27_1347	s	s	10	5	SIC	444	ABS	1	1	02VD 02VO 02VC 02MD 10MO 02MC 02RD 02RO	0	1	1.52459287643	None	None	None	None	1
2.7	2015_May_27_1347	s	s	10	5	SIC	445	ABS	0	1	02VD 02VO 02VC 02MD 02MO 02MC 02RD 10RO	0	1	3.27147698402	None	None	None	None	1
2.7	2015_May_27_1347	s	s	10	5	SIC	446	ABS	2	2	10VD 02VO 02VC 02MD 02MO 02MC 02RD 02RO	0	1	0.738128900528	None	None	None	None	1
2.7	2015_May_27_1347	s	s	10	5	SIC	447	ABS	2	0	02VD 02VO 10VC 02MD 02MO 02MC 02RD 02RO	0	1	1.44319391251	None	None	None	None	1
2.7	2015_May_27_1347	s	s	10	5	SIC	448	RC	1	0	02VD 02VO 02VC 02MD 02MO 09MC 02RD 02RO	1	0	1.32435488701	7.0	401.0	10	408	1
2.7	2015_May_27_1347	s	s	10	5	SIC	449	ABS	1	0	02VD 02VO 02VC 02MD 02MO 10MC 02RD 02RO	0	1	1.62883806229	None	None	None	None	1
2.7	2015_May_27_1347	s	s	10	5	SIC	450	ABS	1	2	02VD 02VO 02VC 10MD 02MO 02MC 02RD 02RO	0	1	1.25505518913	None	None	None	None	1
2.7	2015_May_27_1347	s	s	10	5	SIC	451	ABS	0	1	02VD 02VO 02VC 02MD 02MO 02MC 02RD 10RO	0	1	3.9543530941	None	None	None	None	1
2.7	2015_May_27_1347	s	s	10	5	SIC	452	ABS	2	2	10VD 02VO 02VC 02MD 02MO 02MC 02RD 02RO	0	1	2.16236305237	None	None	None	None	1
2.7	2015_May_27_1347	s	s	10	5	SIC	453	ABS	2	0	02VD 02VO 10VC 02MD 02MO 02MC 02RD 02RO	0	1	1.34109592438	None	None	None	None	1
2.7	2015_May_27_1347	s	s	10	5	SIC	454	RC	1	0	02VD 02VO 02VC 02MD 02MO 09MC 02RD 02RO	1	0	1.16466283798	-196.0	393.0	-201	395	1
2.7	2015_May_27_1347	s	s	10	5	SIC	455	RC	1	2	02VD 02VO 02VC 09MD 02MO 02MC 02RD 02RO	1	0	1.17245721817	179.0	-338.0	180	-330	1
2.7	2015_May_27_1347	s	s	10	5	SIC	456	RC	2	0	02VD 02VO 09VC 02MD 02MO 02MC 02RD 02RO	1	0	0.658519983292	-6.0	15.0	-7	9	1
2.7	2015_May_27_1347	s	s	10	5	SIC	457	RC	2	1	02VD 09VO 02VC 02MD 02MO 02MC 02RD 02RO	1	0	1.45881295204	-412.0	-223.0	-415	-227	1
2.7	2015_May_27_1347	s	s	10	5	SIC	458	RC	0	1	02VD 02VO 02VC 02MD 02MO 02MC 02RD 09RO	1	0	1.30587005615	-417.0	117.0	-413	118	1
2.7	2015_May_27_1347	s	s	10	5	SIC	459	RC	0	2	02VD 02VO 02VC 02MD 02MO 02MC 09RD 02RO	0	1	1.11225891113	170.0	-362.0	None	None	0
2.7	2015_May_27_1347	s	s	10	5	SIC	460	RC	1	1	02VD 02VO 02VC 02MD 09MO 02MC 02RD 02RO	1	0	0.917858839035	-387.0	3.0	-390	-2	1
2.7	2015_May_27_1347	s	s	10	5	SIC	461	ABS	0	2	02VD 02VO 02VC 02MD 02MO 02MC 10RD 02RO	0	1	3.02020311356	None	None	None	None	1
2.7	2015_May_27_1347	s	s	10	5	SIC	462	RC	2	2	09VD 02VO 02VC 02MD 02MO 02MC 02RD 02RO	1	0	15.2069978714	393.0	66.0	390	62	1
2.7	2015_May_27_1347	s	s	10	5	SIC	463	ABS	1	1	02VD 02VO 02VC 02MD 10MO 02MC 02RD 02RO	0	1	2.81256890297	None	None	None	None	1
2.7	2015_May_27_1347	s	s	10	5	SIC	464	ABS	2	1	02VD 10VO 02VC 02MD 02MO 02MC 02RD 02RO	0	1	1.30591511726	None	None	None	None	1
2.7	2015_May_27_1347	s	s	10	5	SIC	465	ABS	2	2	10VD 02VO 02VC 02MD 02MO 02MC 02RD 02RO	0	1	1.02396583557	None	None	None	None	1
2.7	2015_May_27_1347	s	s	10	5	SIC	466	ABS	0	2	02VD 02VO 02VC 02MD 02MO 02MC 10RD 02RO	0	1	1.1824760437	None	None	None	None	1
2.7	2015_May_27_1347	s	s	10	5	SIC	467	ABS	1	0	02VD 02VO 02VC 02MD 02MO 10MC 02RD 02RO	0	1	1.51303100586	None	None	None	None	1
2.7	2015_May_27_1347	s	s	10	5	SIC	468	RC	0	2	02VD 02VO 02VC 02MD 02MO 02MC 09RD 02RO	0	1	1.01158905029	-358.0	244.0	None	None	0
2.7	2015_May_27_1347	s	s	10	5	SIC	469	ABS	0	1	02VD 02VO 02VC 02MD 02MO 02MC 02RD 10RO	0	1	2.32626795769	None	None	None	None	1
2.7	2015_May_27_1347	s	s	10	5	SIC	470	ABS	2	1	02VD 10VO 02VC 02MD 02MO 02MC 02RD 02RO	0	1	1.58487391472	None	None	None	None	1
2.7	2015_May_27_1347	s	s	10	5	SIC	471	RC	1	0	02VD 02VO 02VC 02MD 02MO 09MC 02RD 02RO	1	0	1.31456303596	274.0	-121.0	275	-113	1
2.7	2015_May_27_1347	s	s	10	5	SIC	472	RC	1	2	02VD 02VO 02VC 09MD 02MO 02MC 02RD 02RO	1	0	1.14138388634	127.0	-123.0	122	-124	1
2.7	2015_May_27_1347	s	s	10	5	SIC	473	RC	2	0	02VD 02VO 09VC 02MD 02MO 02MC 02RD 02RO	1	0	1.49899101257	352.0	161.0	354	148	1
2.7	2015_May_27_1347	s	s	10	5	SIC	474	RC	1	1	02VD 02VO 02VC 02MD 09MO 02MC 02RD 02RO	1	0	2.15342998505	-172.0	374.0	-165	381	1
2.7	2015_May_27_1347	s	s	10	5	SIC	475	ABS	1	1	02VD 02VO 02VC 02MD 10MO 02MC 02RD 02RO	0	1	1.02053499222	None	None	None	None	1
2.7	2015_May_27_1347	s	s	10	5	SIC	476	ABS	2	0	02VD 02VO 10VC 02MD 02MO 02MC 02RD 02RO	0	1	0.773534059525	None	None	None	None	1
2.7	2015_May_27_1347	s	s	10	5	SIC	477	ABS	1	2	02VD 02VO 02VC 10MD 02MO 02MC 02RD 02RO	0	1	0.679371118546	None	None	None	None	1
2.7	2015_May_27_1347	s	s	10	5	SIC	478	RC	0	1	02VD 02VO 02VC 02MD 02MO 02MC 02RD 09RO	1	0	1.02058410645	281.0	113.0	279	120	1
2.7	2015_May_27_1347	s	s	10	5	SIC	479	RC	2	1	02VD 09VO 02VC 02MD 02MO 02MC 02RD 02RO	0	1	1.35302782059	405.0	-266.0	None	None	0
2.7	2015_May_27_1347	s	s	10	5	SIC	480	RC	2	2	09VD 02VO 02VC 02MD 02MO 02MC 02RD 02RO	1	0	1.07036995888	-85.0	-235.0	-322	191	0
