Version	Date	Stimuli	Method	Subject	Session	Condition	Trial	Target	Channel1	Channel2	Distractors	LMouseButton	RMouseButton	RT	TargetX	TargetY	ResponseX	ResponseY	Correct
2.7	2015_May_21_1426	s	s	10	4	Capacity	1	RC	1	0	08VC 15MC	1	0	6.17632699013	-87.0	295.0	-80	296	1
2.7	2015_May_21_1426	s	s	10	4	Capacity	2	ABS	2	0	16VC 08MC	0	1	4.37527799606	None	None	None	None	1
2.7	2015_May_21_1426	s	s	10	4	Capacity	3	RC	2	0	15VC 08MC	1	0	4.31909394264	-345.0	-39.0	-353	-39	1
2.7	2015_May_21_1426	s	s	10	4	Capacity	4	ABS	1	0	08VC 16MC	0	1	4.06639099121	None	None	None	None	1
2.7	2015_May_21_1426	s	s	10	4	Capacity	5	ABS	2	0	16VC 08MC	0	1	2.00999188423	None	None	None	None	1
2.7	2015_May_21_1426	s	s	10	4	Capacity	6	RC	2	0	15VC 08MC	1	0	1.70130991936	501.0	-373.0	510	-370	1
2.7	2015_May_21_1426	s	s	10	4	Capacity	7	RC	1	0	08VC 15MC	1	0	1.21176505089	-170.0	392.0	-168	386	1
2.7	2015_May_21_1426	s	s	10	4	Capacity	8	ABS	1	0	08VC 16MC	0	1	2.91853404045	None	None	None	None	1
2.7	2015_May_21_1426	s	s	10	4	Capacity	9	RC	2	0	15VC 08MC	1	0	0.784017086029	-226.0	373.0	-218	370	1
2.7	2015_May_21_1426	s	s	10	4	Capacity	10	ABS	2	0	16VC 08MC	0	1	3.69161605835	None	None	None	None	1
2.7	2015_May_21_1426	s	s	10	4	Capacity	11	RC	1	0	08VC 15MC	1	0	5.39691400528	-228.0	-80.0	-217	-77	1
2.7	2015_May_21_1426	s	s	10	4	Capacity	12	ABS	1	0	08VC 16MC	0	1	2.23303890228	None	None	None	None	1
2.7	2015_May_21_1426	s	s	10	4	Capacity	13	RC	1	0	08VC 15MC	1	0	1.84728813171	352.0	-292.0	359	-285	1
2.7	2015_May_21_1426	s	s	10	4	Capacity	14	ABS	1	0	08VC 16MC	0	1	4.34275317192	None	None	None	None	1
2.7	2015_May_21_1426	s	s	10	4	Capacity	15	RC	2	0	15VC 08MC	1	0	1.45899200439	16.0	-299.0	23	-297	1
2.7	2015_May_21_1426	s	s	10	4	Capacity	16	ABS	2	0	16VC 08MC	0	1	2.25934100151	None	None	None	None	1
2.7	2015_May_21_1426	s	s	10	4	Capacity	17	RC	2	0	15VC 08MC	1	0	0.999815940857	232.0	346.0	235	348	1
2.7	2015_May_21_1426	s	s	10	4	Capacity	18	ABS	1	0	08VC 16MC	0	1	4.50739192963	None	None	None	None	1
2.7	2015_May_21_1426	s	s	10	4	Capacity	19	RC	1	0	08VC 15MC	1	0	2.16512989998	-194.0	409.0	-184	411	1
2.7	2015_May_21_1426	s	s	10	4	Capacity	20	ABS	2	0	16VC 08MC	1	0	1.90207982063	None	None	-117	-66	0
2.7	2015_May_21_1426	s	s	10	4	Capacity	21	RC	1	0	08VC 15MC	1	0	0.917415857315	181.0	180.0	178	180	1
2.7	2015_May_21_1426	s	s	10	4	Capacity	22	ABS	1	0	08VC 16MC	0	1	5.77903795242	None	None	None	None	1
2.7	2015_May_21_1426	s	s	10	4	Capacity	23	ABS	2	0	16VC 08MC	0	1	3.07868695259	None	None	None	None	1
2.7	2015_May_21_1426	s	s	10	4	Capacity	24	RC	2	0	15VC 08MC	0	1	0.893919944763	-27.0	-277.0	None	None	0
2.7	2015_May_21_1426	s	s	10	4	Capacity	25	ABS	1	0	08VC 16MC	0	1	1.7059481144	None	None	None	None	1
2.7	2015_May_21_1426	s	s	10	4	Capacity	26	RC	2	0	15VC 08MC	1	0	0.885901927948	-275.0	-49.0	-282	-49	1
2.7	2015_May_21_1426	s	s	10	4	Capacity	27	ABS	2	0	16VC 08MC	0	1	1.6510579586	None	None	None	None	1
2.7	2015_May_21_1426	s	s	10	4	Capacity	28	RC	1	0	08VC 15MC	1	0	1.07030797005	407.0	-3.0	404	-3	1
2.7	2015_May_21_1426	s	s	10	4	Capacity	29	ABS	1	0	08VC 16MC	1	0	1.05441999435	None	None	246	48	0
2.7	2015_May_21_1426	s	s	10	4	Capacity	30	RC	1	0	08VC 15MC	1	0	0.771158218384	233.0	-229.0	228	-230	1
2.7	2015_May_21_1426	s	s	10	4	Capacity	31	ABS	2	0	16VC 08MC	0	1	4.76385998726	None	None	None	None	1
2.7	2015_May_21_1426	s	s	10	4	Capacity	32	RC	2	0	15VC 08MC	1	0	3.47168517113	270.0	-362.0	266	-363	1
2.7	2015_May_21_1426	s	s	10	4	Capacity	33	RC	1	0	08VC 15MC	1	0	2.38375210762	-328.0	100.0	-325	100	1
2.7	2015_May_21_1426	s	s	10	4	Capacity	34	ABS	1	0	08VC 16MC	0	1	2.77160596848	None	None	None	None	1
2.7	2015_May_21_1426	s	s	10	4	Capacity	35	RC	2	0	15VC 08MC	1	0	2.35365605354	436.0	-79.0	436	-80	1
2.7	2015_May_21_1426	s	s	10	4	Capacity	36	ABS	2	0	16VC 08MC	0	1	2.88318300247	None	None	None	None	1
2.7	2015_May_21_1426	s	s	10	4	Capacity	37	RC	1	0	08VC 15MC	1	0	1.84732198715	305.0	-200.0	304	-208	1
2.7	2015_May_21_1426	s	s	10	4	Capacity	38	ABS	2	0	16VC 08MC	1	0	2.00030708313	None	None	-164	151	0
2.7	2015_May_21_1426	s	s	10	4	Capacity	39	ABS	1	0	08VC 16MC	0	1	2.43293595314	None	None	None	None	1
2.7	2015_May_21_1426	s	s	10	4	Capacity	40	RC	2	0	15VC 08MC	1	0	1.34493088722	368.0	96.0	367	97	1
2.7	2015_May_21_1426	s	s	10	4	Capacity	41	ABS	1	0	08VC 16MC	0	1	2.10239911079	None	None	None	None	1
2.7	2015_May_21_1426	s	s	10	4	Capacity	42	RC	1	0	08VC 15MC	1	0	3.34888887405	-175.0	-306.0	-170	-303	1
2.7	2015_May_21_1426	s	s	10	4	Capacity	43	RC	2	0	15VC 08MC	1	0	3.28337788582	-509.0	-184.0	-510	-184	1
2.7	2015_May_21_1426	s	s	10	4	Capacity	44	ABS	2	0	16VC 08MC	0	1	1.86752700806	None	None	None	None	1
2.7	2015_May_21_1426	s	s	10	4	Capacity	45	RC	1	0	08VC 15MC	1	0	0.893820047379	-414.0	127.0	-411	120	1
2.7	2015_May_21_1426	s	s	10	4	Capacity	46	ABS	2	0	16VC 08MC	0	1	1.91795706749	None	None	None	None	1
2.7	2015_May_21_1426	s	s	10	4	Capacity	47	RC	2	0	15VC 08MC	1	0	1.09413194656	217.0	80.0	219	77	1
2.7	2015_May_21_1426	s	s	10	4	Capacity	48	ABS	1	0	08VC 16MC	0	1	3.0422539711	None	None	None	None	1
2.7	2015_May_21_1426	s	s	10	4	Capacity	49	ABS	1	0	08VC 16MC	0	1	1.81202411652	None	None	None	None	1
2.7	2015_May_21_1426	s	s	10	4	Capacity	50	RC	1	0	08VC 15MC	1	0	1.70596504211	-515.0	-122.0	-514	-120	1
2.7	2015_May_21_1426	s	s	10	4	Capacity	51	ABS	2	0	16VC 08MC	0	1	4.91944503784	None	None	None	None	1
2.7	2015_May_21_1426	s	s	10	4	Capacity	52	RC	2	0	15VC 08MC	1	0	1.45931100845	-405.0	322.0	-404	318	1
2.7	2015_May_21_1426	s	s	10	4	Capacity	53	RC	2	0	15VC 08MC	1	0	1.52939796448	-74.0	127.0	-74	133	1
2.7	2015_May_21_1426	s	s	10	4	Capacity	54	ABS	2	0	16VC 08MC	0	1	3.43635702133	None	None	None	None	1
2.7	2015_May_21_1426	s	s	10	4	Capacity	55	RC	1	0	08VC 15MC	1	0	0.923921108246	-223.0	-101.0	-230	-101	1
2.7	2015_May_21_1426	s	s	10	4	Capacity	56	ABS	1	0	08VC 16MC	0	1	1.84729599953	None	None	None	None	1
2.7	2015_May_21_1426	s	s	10	4	Capacity	57	ABS	1	0	08VC 16MC	0	1	1.70104718208	None	None	None	None	1
2.7	2015_May_21_1426	s	s	10	4	Capacity	58	RC	1	0	08VC 15MC	1	0	1.11377120018	137.0	-342.0	141	-335	1
2.7	2015_May_21_1426	s	s	10	4	Capacity	59	ABS	2	0	16VC 08MC	0	1	5.65767288208	None	None	None	None	1
2.7	2015_May_21_1426	s	s	10	4	Capacity	60	RC	2	0	15VC 08MC	1	0	0.682027101517	139.0	44.0	135	39	1
2.7	2015_May_21_1426	s	s	10	4	Capacity	61	RC	1	0	08VC 15MC	1	0	1.56483817101	390.0	-372.0	383	-371	1
2.7	2015_May_21_1426	s	s	10	4	Capacity	62	ABS	1	0	08VC 16MC	0	1	9.53377509117	None	None	None	None	1
2.7	2015_May_21_1426	s	s	10	4	Capacity	63	ABS	2	0	16VC 08MC	0	1	2.34847187996	None	None	None	None	1
2.7	2015_May_21_1426	s	s	10	4	Capacity	64	RC	2	0	15VC 08MC	1	0	2.82430791855	331.0	-354.0	331	-347	1
2.7	2015_May_21_1426	s	s	10	4	Capacity	1	RC	0	2	15RD 08RO	1	0	1.2469959259	-133.0	181.0	-137	187	1
2.7	2015_May_21_1426	s	s	10	4	Capacity	2	RC	0	1	08RD 15RO	1	0	3.17343997955	-415.0	314.0	-417	314	1
2.7	2015_May_21_1426	s	s	10	4	Capacity	3	ABS	0	1	08RD 16RO	0	1	4.63171386719	None	None	None	None	1
2.7	2015_May_21_1426	s	s	10	4	Capacity	4	ABS	0	2	16RD 08RO	0	1	1.92971420288	None	None	None	None	1
2.7	2015_May_21_1426	s	s	10	4	Capacity	5	ABS	0	2	16RD 08RO	0	1	2.32481622696	None	None	None	None	1
2.7	2015_May_21_1426	s	s	10	4	Capacity	6	RC	0	1	08RD 15RO	1	0	4.96179699898	-81.0	-264.0	-81	-272	1
2.7	2015_May_21_1426	s	s	10	4	Capacity	7	RC	0	2	15RD 08RO	1	0	5.54333496094	-244.0	-111.0	-243	-113	1
2.7	2015_May_21_1426	s	s	10	4	Capacity	8	ABS	0	1	08RD 16RO	0	1	6.54750299454	None	None	None	None	1
2.7	2015_May_21_1426	s	s	10	4	Capacity	9	ABS	0	2	16RD 08RO	0	1	2.34832906723	None	None	None	None	1
2.7	2015_May_21_1426	s	s	10	4	Capacity	10	ABS	0	1	08RD 16RO	0	1	4.93131518364	None	None	None	None	1
2.7	2015_May_21_1426	s	s	10	4	Capacity	11	RC	0	1	08RD 15RO	1	0	2.49462294579	4.0	-291.0	8	-288	1
2.7	2015_May_21_1426	s	s	10	4	Capacity	12	RC	0	2	15RD 08RO	1	0	1.04400897026	-153.0	-65.0	-151	-65	1
2.7	2015_May_21_1426	s	s	10	4	Capacity	13	ABS	0	2	16RD 08RO	0	1	2.05435681343	None	None	None	None	1
2.7	2015_May_21_1426	s	s	10	4	Capacity	14	RC	0	1	08RD 15RO	1	0	2.54796409607	503.0	-11.0	502	-10	1
2.7	2015_May_21_1426	s	s	10	4	Capacity	15	RC	0	2	15RD 08RO	1	0	0.997135162354	510.0	-63.0	513	-65	1
2.7	2015_May_21_1426	s	s	10	4	Capacity	16	ABS	0	1	08RD 16RO	0	1	3.77771306038	None	None	None	None	1
2.7	2015_May_21_1426	s	s	10	4	Capacity	17	ABS	0	1	08RD 16RO	0	1	2.57228398323	None	None	None	None	1
2.7	2015_May_21_1426	s	s	10	4	Capacity	18	RC	0	1	08RD 15RO	1	0	2.5500061512	-7.0	-409.0	-1	-412	1
2.7	2015_May_21_1426	s	s	10	4	Capacity	19	ABS	0	2	16RD 08RO	0	1	1.95323777199	None	None	None	None	1
2.7	2015_May_21_1426	s	s	10	4	Capacity	20	RC	0	2	15RD 08RO	0	1	2.48300504684	-220.0	318.0	None	None	0
2.7	2015_May_21_1426	s	s	10	4	Capacity	21	ABS	0	1	08RD 16RO	0	1	4.1961581707	None	None	None	None	1
2.7	2015_May_21_1426	s	s	10	4	Capacity	22	ABS	0	2	16RD 08RO	0	1	6.23768305779	None	None	None	None	1
2.7	2015_May_21_1426	s	s	10	4	Capacity	23	RC	0	2	15RD 08RO	1	0	3.60930800438	39.0	-334.0	43	-333	1
2.7	2015_May_21_1426	s	s	10	4	Capacity	24	RC	0	1	08RD 15RO	1	0	0.776076078415	-91.0	-32.0	-95	-31	1
2.7	2015_May_21_1426	s	s	10	4	Capacity	25	ABS	0	1	08RD 16RO	0	1	4.26703715324	None	None	None	None	1
2.7	2015_May_21_1426	s	s	10	4	Capacity	26	RC	0	1	08RD 15RO	1	0	1.14099407196	-97.0	9.0	-90	12	1
2.7	2015_May_21_1426	s	s	10	4	Capacity	27	RC	0	2	15RD 08RO	1	0	1.44359302521	145.0	20.0	142	23	1
2.7	2015_May_21_1426	s	s	10	4	Capacity	28	ABS	0	2	16RD 08RO	0	1	2.71829390526	None	None	None	None	1
2.7	2015_May_21_1426	s	s	10	4	Capacity	29	ABS	0	1	08RD 16RO	0	1	4.39675092697	None	None	None	None	1
2.7	2015_May_21_1426	s	s	10	4	Capacity	30	ABS	0	2	16RD 08RO	0	1	1.83297419548	None	None	None	None	1
2.7	2015_May_21_1426	s	s	10	4	Capacity	31	RC	0	2	15RD 08RO	1	0	0.806797981262	75.0	41.0	69	43	1
2.7	2015_May_21_1426	s	s	10	4	Capacity	32	RC	0	1	08RD 15RO	1	0	3.94970703125	-532.0	306.0	-527	305	1
2.7	2015_May_21_1426	s	s	10	4	Capacity	33	RC	0	2	15RD 08RO	1	0	3.31611704826	-426.0	278.0	-430	277	1
2.7	2015_May_21_1426	s	s	10	4	Capacity	34	ABS	0	1	08RD 16RO	0	1	3.7986562252	None	None	None	None	1
2.7	2015_May_21_1426	s	s	10	4	Capacity	35	RC	0	1	08RD 15RO	0	1	4.29549694061	368.0	130.0	None	None	0
2.7	2015_May_21_1426	s	s	10	4	Capacity	36	ABS	0	2	16RD 08RO	0	1	2.06623291969	None	None	None	None	1
2.7	2015_May_21_1426	s	s	10	4	Capacity	37	ABS	0	1	08RD 16RO	0	1	3.71894884109	None	None	None	None	1
2.7	2015_May_21_1426	s	s	10	4	Capacity	38	ABS	0	2	16RD 08RO	0	1	5.33133888245	None	None	None	None	1
2.7	2015_May_21_1426	s	s	10	4	Capacity	39	RC	0	2	15RD 08RO	1	0	2.37350988388	65.0	355.0	64	359	1
2.7	2015_May_21_1426	s	s	10	4	Capacity	40	RC	0	1	08RD 15RO	1	0	1.11760210991	144.0	399.0	148	407	1
2.7	2015_May_21_1426	s	s	10	4	Capacity	41	RC	0	2	15RD 08RO	1	0	2.27107405663	220.0	-175.0	217	-173	1
2.7	2015_May_21_1426	s	s	10	4	Capacity	42	ABS	0	2	16RD 08RO	0	1	3.15374898911	None	None	None	None	1
2.7	2015_May_21_1426	s	s	10	4	Capacity	43	ABS	0	1	08RD 16RO	0	1	4.83186602592	None	None	None	None	1
2.7	2015_May_21_1426	s	s	10	4	Capacity	44	RC	0	1	08RD 15RO	1	0	4.18475484848	-242.0	92.0	-251	96	1
2.7	2015_May_21_1426	s	s	10	4	Capacity	45	ABS	0	1	08RD 16RO	0	1	3.94250106812	None	None	None	None	1
2.7	2015_May_21_1426	s	s	10	4	Capacity	46	RC	0	2	15RD 08RO	1	0	1.83604097366	276.0	-356.0	273	-358	1
2.7	2015_May_21_1426	s	s	10	4	Capacity	47	RC	0	1	08RD 15RO	1	0	2.07693505287	-2.0	-238.0	1	-240	1
2.7	2015_May_21_1426	s	s	10	4	Capacity	48	ABS	0	2	16RD 08RO	0	1	3.51880002022	None	None	None	None	1
2.7	2015_May_21_1426	s	s	10	4	Capacity	49	ABS	0	1	08RD 16RO	0	1	3.8363609314	None	None	None	None	1
2.7	2015_May_21_1426	s	s	10	4	Capacity	50	RC	0	1	08RD 15RO	1	0	4.43699288368	128.0	-269.0	125	-268	1
2.7	2015_May_21_1426	s	s	10	4	Capacity	51	ABS	0	2	16RD 08RO	0	1	4.05738520622	None	None	None	None	1
2.7	2015_May_21_1426	s	s	10	4	Capacity	52	RC	0	2	15RD 08RO	1	0	1.71791696548	-108.0	156.0	-117	155	1
2.7	2015_May_21_1426	s	s	10	4	Capacity	53	ABS	0	1	08RD 16RO	1	0	3.02433395386	None	None	46	-70	0
2.7	2015_May_21_1426	s	s	10	4	Capacity	54	ABS	0	2	16RD 08RO	0	1	3.36628484726	None	None	None	None	1
2.7	2015_May_21_1426	s	s	10	4	Capacity	55	RC	0	1	08RD 15RO	1	0	1.96015095711	-78.0	-79.0	-77	-84	1
2.7	2015_May_21_1426	s	s	10	4	Capacity	56	RC	0	2	15RD 08RO	1	0	2.00806498528	-505.0	387.0	-498	390	1
2.7	2015_May_21_1426	s	s	10	4	Capacity	57	ABS	0	2	16RD 08RO	0	1	10.5304489136	None	None	None	None	1
2.7	2015_May_21_1426	s	s	10	4	Capacity	58	RC	0	1	08RD 15RO	1	0	3.71363401413	-301.0	-330.0	-304	-323	1
2.7	2015_May_21_1426	s	s	10	4	Capacity	59	ABS	0	1	08RD 16RO	0	1	5.75032806396	None	None	None	None	1
2.7	2015_May_21_1426	s	s	10	4	Capacity	60	RC	0	2	15RD 08RO	1	0	2.46655416489	-392.0	-375.0	-399	-376	1
2.7	2015_May_21_1426	s	s	10	4	Capacity	61	RC	0	2	15RD 08RO	1	0	5.20658707619	5.0	-173.0	-3	-172	1
2.7	2015_May_21_1426	s	s	10	4	Capacity	62	ABS	0	1	08RD 16RO	0	1	5.6583712101	None	None	None	None	1
2.7	2015_May_21_1426	s	s	10	4	Capacity	63	ABS	0	2	16RD 08RO	0	1	3.07814502716	None	None	None	None	1
2.7	2015_May_21_1426	s	s	10	4	Capacity	64	RC	0	1	08RD 15RO	1	0	3.51888203621	-461.0	107.0	-456	102	1
2.7	2015_May_21_1426	s	s	10	4	SIC	1	ABS	2	0	02VD 02VO 10VC 02MD 02MO 02MC 02RD 02RO	0	1	3.23176908493	None	None	None	None	1
2.7	2015_May_21_1426	s	s	10	4	SIC	2	ABS	2	1	02VD 10VO 02VC 02MD 02MO 02MC 02RD 02RO	1	0	1.74973106384	None	None	506	388	0
2.7	2015_May_21_1426	s	s	10	4	SIC	3	RC	0	1	02VD 02VO 02VC 02MD 02MO 02MC 02RD 09RO	1	0	1.29423093796	258.0	-352.0	252	-350	1
2.7	2015_May_21_1426	s	s	10	4	SIC	4	RC	1	1	02VD 02VO 02VC 02MD 09MO 02MC 02RD 02RO	1	0	1.77419114113	119.0	408.0	124	408	1
2.7	2015_May_21_1426	s	s	10	4	SIC	5	RC	1	0	02VD 02VO 02VC 02MD 02MO 09MC 02RD 02RO	1	0	1.02324008942	-210.0	-81.0	-205	-79	1
2.7	2015_May_21_1426	s	s	10	4	SIC	6	ABS	0	1	02VD 02VO 02VC 02MD 02MO 02MC 02RD 10RO	0	1	3.56583118439	None	None	None	None	1
2.7	2015_May_21_1426	s	s	10	4	SIC	7	RC	2	2	09VD 02VO 02VC 02MD 02MO 02MC 02RD 02RO	1	0	1.10572504997	-81.0	314.0	-86	313	1
2.7	2015_May_21_1426	s	s	10	4	SIC	8	RC	0	2	02VD 02VO 02VC 02MD 02MO 02MC 09RD 02RO	1	0	1.80702710152	-410.0	-145.0	-413	-145	1
2.7	2015_May_21_1426	s	s	10	4	SIC	9	RC	2	1	02VD 09VO 02VC 02MD 02MO 02MC 02RD 02RO	1	0	1.01663208008	-73.0	-318.0	-73	-318	1
2.7	2015_May_21_1426	s	s	10	4	SIC	10	RC	2	0	02VD 02VO 09VC 02MD 02MO 02MC 02RD 02RO	1	0	6.49316596985	-493.0	-163.0	-489	-164	1
2.7	2015_May_21_1426	s	s	10	4	SIC	11	ABS	2	2	10VD 02VO 02VC 02MD 02MO 02MC 02RD 02RO	0	1	5.19034314156	None	None	None	None	1
2.7	2015_May_21_1426	s	s	10	4	SIC	12	ABS	1	1	02VD 02VO 02VC 02MD 10MO 02MC 02RD 02RO	0	1	2.01927185059	None	None	None	None	1
2.7	2015_May_21_1426	s	s	10	4	SIC	13	ABS	1	0	02VD 02VO 02VC 02MD 02MO 10MC 02RD 02RO	0	1	3.2430460453	None	None	None	None	1
2.7	2015_May_21_1426	s	s	10	4	SIC	14	RC	1	2	02VD 02VO 02VC 09MD 02MO 02MC 02RD 02RO	1	0	0.924454927444	-66.0	234.0	-59	234	1
2.7	2015_May_21_1426	s	s	10	4	SIC	15	ABS	1	2	02VD 02VO 02VC 10MD 02MO 02MC 02RD 02RO	0	1	1.24433493614	None	None	None	None	1
2.7	2015_May_21_1426	s	s	10	4	SIC	16	ABS	0	2	02VD 02VO 02VC 02MD 02MO 02MC 10RD 02RO	0	1	2.03222298622	None	None	None	None	1
2.7	2015_May_21_1426	s	s	10	4	SIC	17	ABS	2	2	10VD 02VO 02VC 02MD 02MO 02MC 02RD 02RO	0	1	1.62374210358	None	None	None	None	1
2.7	2015_May_21_1426	s	s	10	4	SIC	18	ABS	2	1	02VD 10VO 02VC 02MD 02MO 02MC 02RD 02RO	0	1	2.23194694519	None	None	None	None	1
2.7	2015_May_21_1426	s	s	10	4	SIC	19	ABS	1	1	02VD 02VO 02VC 02MD 10MO 02MC 02RD 02RO	0	1	2.31477594376	None	None	None	None	1
2.7	2015_May_21_1426	s	s	10	4	SIC	20	RC	1	1	02VD 02VO 02VC 02MD 09MO 02MC 02RD 02RO	1	0	1.50605916977	-273.0	259.0	-275	258	1
2.7	2015_May_21_1426	s	s	10	4	SIC	21	RC	2	2	09VD 02VO 02VC 02MD 02MO 02MC 02RD 02RO	1	0	1.55925393105	155.0	-122.0	155	-130	1
2.7	2015_May_21_1426	s	s	10	4	SIC	22	ABS	0	2	02VD 02VO 02VC 02MD 02MO 02MC 10RD 02RO	0	1	2.94919395447	None	None	None	None	1
2.7	2015_May_21_1426	s	s	10	4	SIC	23	RC	0	2	02VD 02VO 02VC 02MD 02MO 02MC 09RD 02RO	1	0	1.30589485168	-214.0	281.0	-217	279	1
2.7	2015_May_21_1426	s	s	10	4	SIC	24	ABS	1	2	02VD 02VO 02VC 10MD 02MO 02MC 02RD 02RO	0	1	2.91465091705	None	None	None	None	1
2.7	2015_May_21_1426	s	s	10	4	SIC	25	RC	1	2	02VD 02VO 02VC 09MD 02MO 02MC 02RD 02RO	1	0	1.07034301758	-261.0	388.0	-261	380	1
2.7	2015_May_21_1426	s	s	10	4	SIC	26	RC	2	1	02VD 09VO 02VC 02MD 02MO 02MC 02RD 02RO	1	0	2.90671992302	397.0	-242.0	392	-236	1
2.7	2015_May_21_1426	s	s	10	4	SIC	27	RC	2	0	02VD 02VO 09VC 02MD 02MO 02MC 02RD 02RO	1	0	1.52952194214	-371.0	-244.0	-369	-240	1
2.7	2015_May_21_1426	s	s	10	4	SIC	28	ABS	2	0	02VD 02VO 10VC 02MD 02MO 02MC 02RD 02RO	1	0	0.0347139835358	None	None	-190	-86	0
2.7	2015_May_21_1426	s	s	10	4	SIC	29	RC	1	0	02VD 02VO 02VC 02MD 02MO 09MC 02RD 02RO	1	0	0.717395067215	199.0	114.0	199	119	1
2.7	2015_May_21_1426	s	s	10	4	SIC	30	ABS	1	0	02VD 02VO 02VC 02MD 02MO 10MC 02RD 02RO	0	1	1.85344004631	None	None	None	None	1
2.7	2015_May_21_1426	s	s	10	4	SIC	31	RC	0	1	02VD 02VO 02VC 02MD 02MO 02MC 02RD 09RO	1	0	4.64877891541	267.0	-89.0	262	-94	1
2.7	2015_May_21_1426	s	s	10	4	SIC	32	ABS	0	1	02VD 02VO 02VC 02MD 02MO 02MC 02RD 10RO	0	1	12.1466810703	None	None	None	None	1
2.7	2015_May_21_1426	s	s	10	4	SIC	33	RC	0	1	02VD 02VO 02VC 02MD 02MO 02MC 02RD 09RO	1	0	3.14626598358	-158.0	111.0	-155	113	1
2.7	2015_May_21_1426	s	s	10	4	SIC	34	ABS	2	1	02VD 10VO 02VC 02MD 02MO 02MC 02RD 02RO	0	1	2.63145399094	None	None	None	None	1
2.7	2015_May_21_1426	s	s	10	4	SIC	35	ABS	1	2	02VD 02VO 02VC 10MD 02MO 02MC 02RD 02RO	0	1	1.8201520443	None	None	None	None	1
2.7	2015_May_21_1426	s	s	10	4	SIC	36	ABS	1	0	02VD 02VO 02VC 02MD 02MO 10MC 02RD 02RO	0	1	1.7295999527	None	None	None	None	1
2.7	2015_May_21_1426	s	s	10	4	SIC	37	RC	1	2	02VD 02VO 02VC 09MD 02MO 02MC 02RD 02RO	1	0	1.90163493156	58.0	-127.0	62	-124	1
2.7	2015_May_21_1426	s	s	10	4	SIC	38	RC	1	1	02VD 02VO 02VC 02MD 09MO 02MC 02RD 02RO	1	0	5.26088309288	235.0	-325.0	239	-325	1
2.7	2015_May_21_1426	s	s	10	4	SIC	39	ABS	1	1	02VD 02VO 02VC 02MD 10MO 02MC 02RD 02RO	0	1	6.0676240921	None	None	None	None	1
2.7	2015_May_21_1426	s	s	10	4	SIC	40	RC	2	2	09VD 02VO 02VC 02MD 02MO 02MC 02RD 02RO	1	0	2.91368699074	-532.0	-284.0	-539	-285	1
2.7	2015_May_21_1426	s	s	10	4	SIC	41	RC	0	2	02VD 02VO 02VC 02MD 02MO 02MC 09RD 02RO	1	0	3.26385188103	524.0	-153.0	529	-159	1
2.7	2015_May_21_1426	s	s	10	4	SIC	42	RC	2	0	02VD 02VO 09VC 02MD 02MO 02MC 02RD 02RO	0	1	2.78576207161	-125.0	-392.0	None	None	0
2.7	2015_May_21_1426	s	s	10	4	SIC	43	ABS	0	2	02VD 02VO 02VC 02MD 02MO 02MC 10RD 02RO	0	1	1.96236777306	None	None	None	None	1
2.7	2015_May_21_1426	s	s	10	4	SIC	44	ABS	2	2	10VD 02VO 02VC 02MD 02MO 02MC 02RD 02RO	0	1	1.40711379051	None	None	None	None	1
2.7	2015_May_21_1426	s	s	10	4	SIC	45	ABS	0	1	02VD 02VO 02VC 02MD 02MO 02MC 02RD 10RO	0	1	3.05467605591	None	None	None	None	1
2.7	2015_May_21_1426	s	s	10	4	SIC	46	ABS	2	0	02VD 02VO 10VC 02MD 02MO 02MC 02RD 02RO	0	1	1.21818399429	None	None	None	None	1
2.7	2015_May_21_1426	s	s	10	4	SIC	47	RC	2	1	02VD 09VO 02VC 02MD 02MO 02MC 02RD 02RO	1	0	1.33869385719	237.0	4.0	234	-2	1
2.7	2015_May_21_1426	s	s	10	4	SIC	48	RC	1	0	02VD 02VO 02VC 02MD 02MO 09MC 02RD 02RO	1	0	3.40093588829	-503.0	-331.0	-507	-334	1
2.7	2015_May_21_1426	s	s	10	4	SIC	49	ABS	2	0	02VD 02VO 10VC 02MD 02MO 02MC 02RD 02RO	0	1	1.31508588791	None	None	None	None	1
2.7	2015_May_21_1426	s	s	10	4	SIC	50	RC	1	2	02VD 02VO 02VC 09MD 02MO 02MC 02RD 02RO	1	0	0.870508909225	-360.0	123.0	-360	121	1
2.7	2015_May_21_1426	s	s	10	4	SIC	51	RC	2	2	09VD 02VO 02VC 02MD 02MO 02MC 02RD 02RO	1	0	1.59723186493	-469.0	-6.0	-471	-7	1
2.7	2015_May_21_1426	s	s	10	4	SIC	52	ABS	1	0	02VD 02VO 02VC 02MD 02MO 10MC 02RD 02RO	0	1	1.64439105988	None	None	None	None	1
2.7	2015_May_21_1426	s	s	10	4	SIC	53	ABS	2	2	10VD 02VO 02VC 02MD 02MO 02MC 02RD 02RO	0	1	1.44357299805	None	None	None	None	1
2.7	2015_May_21_1426	s	s	10	4	SIC	54	RC	1	1	02VD 02VO 02VC 02MD 09MO 02MC 02RD 02RO	1	0	1.88017082214	434.0	225.0	436	222	1
2.7	2015_May_21_1426	s	s	10	4	SIC	55	ABS	0	2	02VD 02VO 02VC 02MD 02MO 02MC 10RD 02RO	0	1	1.94137597084	None	None	None	None	1
2.7	2015_May_21_1426	s	s	10	4	SIC	56	RC	1	0	02VD 02VO 02VC 02MD 02MO 09MC 02RD 02RO	1	0	0.832688808441	245.0	-282.0	233	-276	1
2.7	2015_May_21_1426	s	s	10	4	SIC	57	ABS	0	1	02VD 02VO 02VC 02MD 02MO 02MC 02RD 10RO	0	1	5.1196000576	None	None	None	None	1
2.7	2015_May_21_1426	s	s	10	4	SIC	58	RC	0	1	02VD 02VO 02VC 02MD 02MO 02MC 02RD 09RO	1	0	1.90222907066	479.0	-172.0	473	-169	1
2.7	2015_May_21_1426	s	s	10	4	SIC	59	RC	2	0	02VD 02VO 09VC 02MD 02MO 02MC 02RD 02RO	1	0	0.784687042236	417.0	-107.0	412	-106	1
2.7	2015_May_21_1426	s	s	10	4	SIC	60	RC	0	2	02VD 02VO 02VC 02MD 02MO 02MC 09RD 02RO	1	0	2.05362510681	409.0	-300.0	413	-300	1
2.7	2015_May_21_1426	s	s	10	4	SIC	61	RC	2	1	02VD 09VO 02VC 02MD 02MO 02MC 02RD 02RO	1	0	1.93612408638	519.0	186.0	521	187	1
2.7	2015_May_21_1426	s	s	10	4	SIC	62	ABS	1	2	02VD 02VO 02VC 10MD 02MO 02MC 02RD 02RO	0	1	1.45895218849	None	None	None	None	1
2.7	2015_May_21_1426	s	s	10	4	SIC	63	ABS	1	1	02VD 02VO 02VC 02MD 10MO 02MC 02RD 02RO	0	1	1.61871290207	None	None	None	None	1
2.7	2015_May_21_1426	s	s	10	4	SIC	64	ABS	2	1	02VD 10VO 02VC 02MD 02MO 02MC 02RD 02RO	0	1	3.88973498344	None	None	None	None	1
2.7	2015_May_21_1426	s	s	10	4	SIC	65	RC	0	2	02VD 02VO 02VC 02MD 02MO 02MC 09RD 02RO	1	0	1.63538599014	-466.0	-365.0	-456	-367	1
2.7	2015_May_21_1426	s	s	10	4	SIC	66	RC	1	1	02VD 02VO 02VC 02MD 09MO 02MC 02RD 02RO	1	0	0.84384393692	-75.0	199.0	-69	199	1
2.7	2015_May_21_1426	s	s	10	4	SIC	67	ABS	1	1	02VD 02VO 02VC 02MD 10MO 02MC 02RD 02RO	0	1	1.19704890251	None	None	None	None	1
2.7	2015_May_21_1426	s	s	10	4	SIC	68	RC	0	1	02VD 02VO 02VC 02MD 02MO 02MC 02RD 09RO	1	0	0.805909872055	-168.0	-32.0	-172	-31	1
2.7	2015_May_21_1426	s	s	10	4	SIC	69	RC	2	0	02VD 02VO 09VC 02MD 02MO 02MC 02RD 02RO	1	0	0.619971990585	-193.0	-64.0	-190	-70	1
2.7	2015_May_21_1426	s	s	10	4	SIC	70	RC	1	2	02VD 02VO 02VC 09MD 02MO 02MC 02RD 02RO	1	0	1.48860502243	-60.0	279.0	-60	284	1
2.7	2015_May_21_1426	s	s	10	4	SIC	71	ABS	0	2	02VD 02VO 02VC 02MD 02MO 02MC 10RD 02RO	0	1	1.73873996735	None	None	None	None	1
2.7	2015_May_21_1426	s	s	10	4	SIC	72	ABS	2	0	02VD 02VO 10VC 02MD 02MO 02MC 02RD 02RO	0	1	1.28823781013	None	None	None	None	1
2.7	2015_May_21_1426	s	s	10	4	SIC	73	RC	1	0	02VD 02VO 02VC 02MD 02MO 09MC 02RD 02RO	0	1	1.07051205635	443.0	392.0	None	None	0
2.7	2015_May_21_1426	s	s	10	4	SIC	74	ABS	0	1	02VD 02VO 02VC 02MD 02MO 02MC 02RD 10RO	0	1	4.24356007576	None	None	None	None	1
2.7	2015_May_21_1426	s	s	10	4	SIC	75	RC	2	1	02VD 09VO 02VC 02MD 02MO 02MC 02RD 02RO	1	0	1.23038315773	-180.0	211.0	-192	218	1
2.7	2015_May_21_1426	s	s	10	4	SIC	76	RC	2	2	09VD 02VO 02VC 02MD 02MO 02MC 02RD 02RO	1	0	1.3147110939	377.0	108.0	381	109	1
2.7	2015_May_21_1426	s	s	10	4	SIC	77	ABS	2	1	02VD 10VO 02VC 02MD 02MO 02MC 02RD 02RO	0	1	1.42079091072	None	None	None	None	1
2.7	2015_May_21_1426	s	s	10	4	SIC	78	ABS	1	2	02VD 02VO 02VC 10MD 02MO 02MC 02RD 02RO	0	1	2.16021490097	None	None	None	None	1
2.7	2015_May_21_1426	s	s	10	4	SIC	79	ABS	2	2	10VD 02VO 02VC 02MD 02MO 02MC 02RD 02RO	0	1	1.84455394745	None	None	None	None	1
2.7	2015_May_21_1426	s	s	10	4	SIC	80	ABS	1	0	02VD 02VO 02VC 02MD 02MO 10MC 02RD 02RO	0	1	2.05500006676	None	None	None	None	1
2.7	2015_May_21_1426	s	s	10	4	SIC	81	RC	1	0	02VD 02VO 02VC 02MD 02MO 09MC 02RD 02RO	1	0	1.58574295044	250.0	65.0	250	67	1
2.7	2015_May_21_1426	s	s	10	4	SIC	82	ABS	1	0	02VD 02VO 02VC 02MD 02MO 10MC 02RD 02RO	0	1	4.82211685181	None	None	None	None	1
2.7	2015_May_21_1426	s	s	10	4	SIC	83	RC	0	1	02VD 02VO 02VC 02MD 02MO 02MC 02RD 09RO	1	0	1.11425805092	-180.0	-65.0	-186	-63	1
2.7	2015_May_21_1426	s	s	10	4	SIC	84	ABS	0	2	02VD 02VO 02VC 02MD 02MO 02MC 10RD 02RO	0	1	3.30696702003	None	None	None	None	1
2.7	2015_May_21_1426	s	s	10	4	SIC	85	RC	2	2	09VD 02VO 02VC 02MD 02MO 02MC 02RD 02RO	1	0	2.38602304459	-257.0	98.0	-257	94	1
2.7	2015_May_21_1426	s	s	10	4	SIC	86	RC	1	1	02VD 02VO 02VC 02MD 09MO 02MC 02RD 02RO	1	0	1.51765799522	190.0	-159.0	181	-156	1
2.7	2015_May_21_1426	s	s	10	4	SIC	87	ABS	2	0	02VD 02VO 10VC 02MD 02MO 02MC 02RD 02RO	1	0	2.12701296806	None	None	-396	-278	0
2.7	2015_May_21_1426	s	s	10	4	SIC	88	ABS	2	2	10VD 02VO 02VC 02MD 02MO 02MC 02RD 02RO	0	1	2.07096099854	None	None	None	None	1
2.7	2015_May_21_1426	s	s	10	4	SIC	89	ABS	1	2	02VD 02VO 02VC 10MD 02MO 02MC 02RD 02RO	0	1	3.2571618557	None	None	None	None	1
2.7	2015_May_21_1426	s	s	10	4	SIC	90	ABS	1	1	02VD 02VO 02VC 02MD 10MO 02MC 02RD 02RO	0	1	2.82474112511	None	None	None	None	1
2.7	2015_May_21_1426	s	s	10	4	SIC	91	RC	1	2	02VD 02VO 02VC 09MD 02MO 02MC 02RD 02RO	1	0	2.78902006149	-187.0	181.0	-185	185	1
2.7	2015_May_21_1426	s	s	10	4	SIC	92	RC	0	2	02VD 02VO 02VC 02MD 02MO 02MC 09RD 02RO	0	1	2.02375888824	-399.0	228.0	None	None	0
2.7	2015_May_21_1426	s	s	10	4	SIC	93	ABS	0	1	02VD 02VO 02VC 02MD 02MO 02MC 02RD 10RO	0	1	4.01957893372	None	None	None	None	1
2.7	2015_May_21_1426	s	s	10	4	SIC	94	RC	2	1	02VD 09VO 02VC 02MD 02MO 02MC 02RD 02RO	0	1	1.5018799305	-506.0	-186.0	None	None	0
2.7	2015_May_21_1426	s	s	10	4	SIC	95	RC	2	0	02VD 02VO 09VC 02MD 02MO 02MC 02RD 02RO	1	0	0.794989109039	-173.0	166.0	-173	168	1
2.7	2015_May_21_1426	s	s	10	4	SIC	96	ABS	2	1	02VD 10VO 02VC 02MD 02MO 02MC 02RD 02RO	0	1	1.79557800293	None	None	None	None	1
2.7	2015_May_21_1426	s	s	10	4	SIC	97	ABS	0	1	02VD 02VO 02VC 02MD 02MO 02MC 02RD 10RO	0	1	1.98608708382	None	None	None	None	1
2.7	2015_May_21_1426	s	s	10	4	SIC	98	ABS	1	2	02VD 02VO 02VC 10MD 02MO 02MC 02RD 02RO	0	1	1.52142691612	None	None	None	None	1
2.7	2015_May_21_1426	s	s	10	4	SIC	99	RC	1	0	02VD 02VO 02VC 02MD 02MO 09MC 02RD 02RO	1	0	1.1882390976	288.0	-227.0	283	-221	1
2.7	2015_May_21_1426	s	s	10	4	SIC	100	RC	0	1	02VD 02VO 02VC 02MD 02MO 02MC 02RD 09RO	1	0	3.5718870163	353.0	-244.0	356	-244	1
2.7	2015_May_21_1426	s	s	10	4	SIC	101	RC	2	1	02VD 09VO 02VC 02MD 02MO 02MC 02RD 02RO	1	0	1.78339314461	518.0	182.0	523	184	1
2.7	2015_May_21_1426	s	s	10	4	SIC	102	RC	1	2	02VD 02VO 02VC 09MD 02MO 02MC 02RD 02RO	1	0	0.846757173538	-91.0	97.0	-83	98	1
2.7	2015_May_21_1426	s	s	10	4	SIC	103	ABS	1	0	02VD 02VO 02VC 02MD 02MO 10MC 02RD 02RO	0	1	1.35067510605	None	None	None	None	1
2.7	2015_May_21_1426	s	s	10	4	SIC	104	RC	2	0	02VD 02VO 09VC 02MD 02MO 02MC 02RD 02RO	1	0	1.27823901176	434.0	411.0	432	412	1
2.7	2015_May_21_1426	s	s	10	4	SIC	105	RC	0	2	02VD 02VO 02VC 02MD 02MO 02MC 09RD 02RO	0	1	1.92612791061	-313.0	-361.0	None	None	0
2.7	2015_May_21_1426	s	s	10	4	SIC	106	RC	1	1	02VD 02VO 02VC 02MD 09MO 02MC 02RD 02RO	1	0	0.926343917847	-174.0	-4.0	-173	-5	1
2.7	2015_May_21_1426	s	s	10	4	SIC	107	ABS	0	2	02VD 02VO 02VC 02MD 02MO 02MC 10RD 02RO	0	1	1.84071207047	None	None	None	None	1
2.7	2015_May_21_1426	s	s	10	4	SIC	108	ABS	2	0	02VD 02VO 10VC 02MD 02MO 02MC 02RD 02RO	0	1	1.58586001396	None	None	None	None	1
2.7	2015_May_21_1426	s	s	10	4	SIC	109	ABS	2	1	02VD 10VO 02VC 02MD 02MO 02MC 02RD 02RO	0	1	1.58853411674	None	None	None	None	1
2.7	2015_May_21_1426	s	s	10	4	SIC	110	ABS	2	2	10VD 02VO 02VC 02MD 02MO 02MC 02RD 02RO	0	1	1.83062601089	None	None	None	None	1
2.7	2015_May_21_1426	s	s	10	4	SIC	111	ABS	1	1	02VD 02VO 02VC 02MD 10MO 02MC 02RD 02RO	0	1	1.81211185455	None	None	None	None	1
2.7	2015_May_21_1426	s	s	10	4	SIC	112	RC	2	2	09VD 02VO 02VC 02MD 02MO 02MC 02RD 02RO	0	1	2.1533100605	-529.0	-2.0	None	None	0
2.7	2015_May_21_1426	s	s	10	4	SIC	113	ABS	2	2	10VD 02VO 02VC 02MD 02MO 02MC 02RD 02RO	0	1	1.34109401703	None	None	None	None	1
2.7	2015_May_21_1426	s	s	10	4	SIC	114	RC	1	2	02VD 02VO 02VC 09MD 02MO 02MC 02RD 02RO	1	0	1.3684129715	-108.0	-179.0	-106	-179	1
2.7	2015_May_21_1426	s	s	10	4	SIC	115	ABS	1	1	02VD 02VO 02VC 02MD 10MO 02MC 02RD 02RO	0	1	1.67083907127	None	None	None	None	1
2.7	2015_May_21_1426	s	s	10	4	SIC	116	ABS	2	1	02VD 10VO 02VC 02MD 02MO 02MC 02RD 02RO	0	1	1.45396399498	None	None	None	None	1
2.7	2015_May_21_1426	s	s	10	4	SIC	117	ABS	0	2	02VD 02VO 02VC 02MD 02MO 02MC 10RD 02RO	0	1	1.90246105194	None	None	None	None	1
2.7	2015_May_21_1426	s	s	10	4	SIC	118	RC	0	1	02VD 02VO 02VC 02MD 02MO 02MC 02RD 09RO	1	0	1.83549213409	-307.0	-300.0	-312	-303	1
2.7	2015_May_21_1426	s	s	10	4	SIC	119	RC	0	2	02VD 02VO 02VC 02MD 02MO 02MC 09RD 02RO	1	0	1.89448690414	-407.0	124.0	-409	118	1
2.7	2015_May_21_1426	s	s	10	4	SIC	120	RC	1	1	02VD 02VO 02VC 02MD 09MO 02MC 02RD 02RO	1	0	1.14941596985	-252.0	78.0	-257	80	1
2.7	2015_May_21_1426	s	s	10	4	SIC	121	RC	2	2	09VD 02VO 02VC 02MD 02MO 02MC 02RD 02RO	1	0	2.23579406738	-526.0	-360.0	-516	-356	1
2.7	2015_May_21_1426	s	s	10	4	SIC	122	ABS	1	2	02VD 02VO 02VC 10MD 02MO 02MC 02RD 02RO	0	1	1.88352203369	None	None	None	None	1
2.7	2015_May_21_1426	s	s	10	4	SIC	123	ABS	2	0	02VD 02VO 10VC 02MD 02MO 02MC 02RD 02RO	0	1	1.37650489807	None	None	None	None	1
2.7	2015_May_21_1426	s	s	10	4	SIC	124	ABS	0	1	02VD 02VO 02VC 02MD 02MO 02MC 02RD 10RO	0	1	3.69525504112	None	None	None	None	1
2.7	2015_May_21_1426	s	s	10	4	SIC	125	RC	2	1	02VD 09VO 02VC 02MD 02MO 02MC 02RD 02RO	1	0	1.52443814278	-468.0	-227.0	-470	-234	1
2.7	2015_May_21_1426	s	s	10	4	SIC	126	RC	1	0	02VD 02VO 02VC 02MD 02MO 09MC 02RD 02RO	1	0	1.08597302437	-278.0	-106.0	-275	-98	1
2.7	2015_May_21_1426	s	s	10	4	SIC	127	RC	2	0	02VD 02VO 09VC 02MD 02MO 02MC 02RD 02RO	1	0	1.19499397278	381.0	-116.0	379	-111	1
2.7	2015_May_21_1426	s	s	10	4	SIC	128	ABS	1	0	02VD 02VO 02VC 02MD 02MO 10MC 02RD 02RO	0	1	2.15017294884	None	None	None	None	1
2.7	2015_May_21_1426	s	s	10	4	SIC	129	RC	0	2	02VD 02VO 02VC 02MD 02MO 02MC 09RD 02RO	0	1	1.90602397919	151.0	38.0	None	None	0
2.7	2015_May_21_1426	s	s	10	4	SIC	130	ABS	2	2	10VD 02VO 02VC 02MD 02MO 02MC 02RD 02RO	0	1	1.28950715065	None	None	None	None	1
2.7	2015_May_21_1426	s	s	10	4	SIC	131	ABS	1	0	02VD 02VO 02VC 02MD 02MO 10MC 02RD 02RO	0	1	0.0538651943207	None	None	None	None	1
2.7	2015_May_21_1426	s	s	10	4	SIC	132	ABS	0	2	02VD 02VO 02VC 02MD 02MO 02MC 10RD 02RO	0	1	1.16979002953	None	None	None	None	1
2.7	2015_May_21_1426	s	s	10	4	SIC	133	ABS	1	1	02VD 02VO 02VC 02MD 10MO 02MC 02RD 02RO	0	1	1.58838510513	None	None	None	None	1
2.7	2015_May_21_1426	s	s	10	4	SIC	134	RC	2	1	02VD 09VO 02VC 02MD 02MO 02MC 02RD 02RO	1	0	1.39651298523	-432.0	49.0	-423	51	1
2.7	2015_May_21_1426	s	s	10	4	SIC	135	RC	0	1	02VD 02VO 02VC 02MD 02MO 02MC 02RD 09RO	1	0	2.51820397377	247.0	133.0	253	132	1
2.7	2015_May_21_1426	s	s	10	4	SIC	136	ABS	1	2	02VD 02VO 02VC 10MD 02MO 02MC 02RD 02RO	0	1	3.80739879608	None	None	None	None	1
2.7	2015_May_21_1426	s	s	10	4	SIC	137	RC	1	2	02VD 02VO 02VC 09MD 02MO 02MC 02RD 02RO	1	0	1.95092391968	420.0	32.0	417	28	1
2.7	2015_May_21_1426	s	s	10	4	SIC	138	RC	2	2	09VD 02VO 02VC 02MD 02MO 02MC 02RD 02RO	1	0	6.26125001907	348.0	316.0	351	316	1
2.7	2015_May_21_1426	s	s	10	4	SIC	139	RC	2	0	02VD 02VO 09VC 02MD 02MO 02MC 02RD 02RO	1	0	1.02341508865	14.0	-321.0	15	-326	1
2.7	2015_May_21_1426	s	s	10	4	SIC	140	ABS	2	0	02VD 02VO 10VC 02MD 02MO 02MC 02RD 02RO	0	1	3.19627094269	None	None	None	None	1
2.7	2015_May_21_1426	s	s	10	4	SIC	141	RC	1	0	02VD 02VO 02VC 02MD 02MO 09MC 02RD 02RO	1	0	1.84241104126	-298.0	386.0	-304	387	1
2.7	2015_May_21_1426	s	s	10	4	SIC	142	ABS	2	1	02VD 10VO 02VC 02MD 02MO 02MC 02RD 02RO	0	1	1.75046300888	None	None	None	None	1
2.7	2015_May_21_1426	s	s	10	4	SIC	143	RC	1	1	02VD 02VO 02VC 02MD 09MO 02MC 02RD 02RO	1	0	1.52954888344	61.0	317.0	70	318	1
2.7	2015_May_21_1426	s	s	10	4	SIC	144	ABS	0	1	02VD 02VO 02VC 02MD 02MO 02MC 02RD 10RO	0	1	3.95431089401	None	None	None	None	1
2.7	2015_May_21_1426	s	s	10	4	SIC	145	RC	2	1	02VD 09VO 02VC 02MD 02MO 02MC 02RD 02RO	1	0	1.65639209747	-207.0	380.0	-202	380	1
2.7	2015_May_21_1426	s	s	10	4	SIC	146	RC	0	1	02VD 02VO 02VC 02MD 02MO 02MC 02RD 09RO	1	0	3.8959197998	440.0	-115.0	430	-108	1
2.7	2015_May_21_1426	s	s	10	4	SIC	147	ABS	1	1	02VD 02VO 02VC 02MD 10MO 02MC 02RD 02RO	0	1	1.93864512444	None	None	None	None	1
2.7	2015_May_21_1426	s	s	10	4	SIC	148	ABS	1	2	02VD 02VO 02VC 10MD 02MO 02MC 02RD 02RO	0	1	4.50257587433	None	None	None	None	1
2.7	2015_May_21_1426	s	s	10	4	SIC	149	ABS	2	1	02VD 10VO 02VC 02MD 02MO 02MC 02RD 02RO	0	1	1.73881006241	None	None	None	None	1
2.7	2015_May_21_1426	s	s	10	4	SIC	150	ABS	0	1	02VD 02VO 02VC 02MD 02MO 02MC 02RD 10RO	0	1	3.56101799011	None	None	None	None	1
2.7	2015_May_21_1426	s	s	10	4	SIC	151	ABS	0	2	02VD 02VO 02VC 02MD 02MO 02MC 10RD 02RO	0	1	1.60919094086	None	None	None	None	1
2.7	2015_May_21_1426	s	s	10	4	SIC	152	RC	1	2	02VD 02VO 02VC 09MD 02MO 02MC 02RD 02RO	1	0	3.8638818264	-90.0	-191.0	-87	-193	1
2.7	2015_May_21_1426	s	s	10	4	SIC	153	ABS	2	0	02VD 02VO 10VC 02MD 02MO 02MC 02RD 02RO	0	1	4.01015686989	None	None	None	None	1
2.7	2015_May_21_1426	s	s	10	4	SIC	154	RC	1	1	02VD 02VO 02VC 02MD 09MO 02MC 02RD 02RO	1	0	2.90676498413	326.0	-166.0	322	-165	1
2.7	2015_May_21_1426	s	s	10	4	SIC	155	RC	2	0	02VD 02VO 09VC 02MD 02MO 02MC 02RD 02RO	1	0	2.97736787796	168.0	-242.0	169	-236	1
2.7	2015_May_21_1426	s	s	10	4	SIC	156	RC	0	2	02VD 02VO 02VC 02MD 02MO 02MC 09RD 02RO	1	0	2.76003289223	126.0	56.0	122	52	1
2.7	2015_May_21_1426	s	s	10	4	SIC	157	ABS	1	0	02VD 02VO 02VC 02MD 02MO 10MC 02RD 02RO	0	1	4.14880299568	None	None	None	None	1
2.7	2015_May_21_1426	s	s	10	4	SIC	158	ABS	2	2	10VD 02VO 02VC 02MD 02MO 02MC 02RD 02RO	0	1	3.29512810707	None	None	None	None	1
2.7	2015_May_21_1426	s	s	10	4	SIC	159	RC	2	2	09VD 02VO 02VC 02MD 02MO 02MC 02RD 02RO	1	0	1.75325298309	-97.0	144.0	-94	141	1
2.7	2015_May_21_1426	s	s	10	4	SIC	160	RC	1	0	02VD 02VO 02VC 02MD 02MO 09MC 02RD 02RO	1	0	1.11758494377	12.0	56.0	3	57	1
2.7	2015_May_21_1426	s	s	10	4	SIC	161	RC	2	2	09VD 02VO 02VC 02MD 02MO 02MC 02RD 02RO	1	0	5.81139302254	-475.0	363.0	-480	361	1
2.7	2015_May_21_1426	s	s	10	4	SIC	162	ABS	0	2	02VD 02VO 02VC 02MD 02MO 02MC 10RD 02RO	0	1	7.45696115494	None	None	None	None	1
2.7	2015_May_21_1426	s	s	10	4	SIC	163	ABS	1	2	02VD 02VO 02VC 10MD 02MO 02MC 02RD 02RO	0	1	2.22402596474	None	None	None	None	1
2.7	2015_May_21_1426	s	s	10	4	SIC	164	ABS	1	0	02VD 02VO 02VC 02MD 02MO 10MC 02RD 02RO	0	1	2.17698407173	None	None	None	None	1
2.7	2015_May_21_1426	s	s	10	4	SIC	165	RC	2	1	02VD 09VO 02VC 02MD 02MO 02MC 02RD 02RO	1	0	2.17340397835	424.0	224.0	423	222	1
2.7	2015_May_21_1426	s	s	10	4	SIC	166	ABS	2	1	02VD 10VO 02VC 02MD 02MO 02MC 02RD 02RO	0	1	1.35074520111	None	None	None	None	1
2.7	2015_May_21_1426	s	s	10	4	SIC	167	ABS	0	1	02VD 02VO 02VC 02MD 02MO 02MC 02RD 10RO	0	1	3.12535309792	None	None	None	None	1
2.7	2015_May_21_1426	s	s	10	4	SIC	168	RC	2	0	02VD 02VO 09VC 02MD 02MO 02MC 02RD 02RO	1	0	1.38837814331	460.0	-138.0	455	-143	1
2.7	2015_May_21_1426	s	s	10	4	SIC	169	ABS	2	2	10VD 02VO 02VC 02MD 02MO 02MC 02RD 02RO	0	1	1.72964406013	None	None	None	None	1
2.7	2015_May_21_1426	s	s	10	4	SIC	170	RC	1	2	02VD 02VO 02VC 09MD 02MO 02MC 02RD 02RO	1	0	1.72623205185	383.0	-4.0	384	-8	1
2.7	2015_May_21_1426	s	s	10	4	SIC	171	RC	1	1	02VD 02VO 02VC 02MD 09MO 02MC 02RD 02RO	1	0	2.68870806694	418.0	293.0	420	295	1
2.7	2015_May_21_1426	s	s	10	4	SIC	172	RC	1	0	02VD 02VO 02VC 02MD 02MO 09MC 02RD 02RO	1	0	1.17638111115	317.0	391.0	309	389	1
2.7	2015_May_21_1426	s	s	10	4	SIC	173	ABS	1	1	02VD 02VO 02VC 02MD 10MO 02MC 02RD 02RO	0	1	1.68261194229	None	None	None	None	1
2.7	2015_May_21_1426	s	s	10	4	SIC	174	RC	0	2	02VD 02VO 02VC 02MD 02MO 02MC 09RD 02RO	1	0	2.53005599976	384.0	208.0	375	204	1
2.7	2015_May_21_1426	s	s	10	4	SIC	175	ABS	2	0	02VD 02VO 10VC 02MD 02MO 02MC 02RD 02RO	0	1	2.81258606911	None	None	None	None	1
2.7	2015_May_21_1426	s	s	10	4	SIC	176	RC	0	1	02VD 02VO 02VC 02MD 02MO 02MC 02RD 09RO	1	0	5.97869992256	-83.0	116.0	-83	113	1
2.7	2015_May_21_1426	s	s	10	4	SIC	177	RC	1	1	02VD 02VO 02VC 02MD 09MO 02MC 02RD 02RO	1	0	6.5874941349	43.0	324.0	42	329	1
2.7	2015_May_21_1426	s	s	10	4	SIC	178	ABS	1	2	02VD 02VO 02VC 10MD 02MO 02MC 02RD 02RO	0	1	7.20300316811	None	None	None	None	1
2.7	2015_May_21_1426	s	s	10	4	SIC	179	RC	2	1	02VD 09VO 02VC 02MD 02MO 02MC 02RD 02RO	1	0	2.41240096092	-138.0	-352.0	-137	-350	1
2.7	2015_May_21_1426	s	s	10	4	SIC	180	ABS	2	0	02VD 02VO 10VC 02MD 02MO 02MC 02RD 02RO	0	1	3.03110814095	None	None	None	None	1
2.7	2015_May_21_1426	s	s	10	4	SIC	181	ABS	2	2	10VD 02VO 02VC 02MD 02MO 02MC 02RD 02RO	0	1	1.92984199524	None	None	None	None	1
2.7	2015_May_21_1426	s	s	10	4	SIC	182	ABS	0	2	02VD 02VO 02VC 02MD 02MO 02MC 10RD 02RO	0	1	2.94210410118	None	None	None	None	1
2.7	2015_May_21_1426	s	s	10	4	SIC	183	ABS	1	1	02VD 02VO 02VC 02MD 10MO 02MC 02RD 02RO	0	1	7.17562198639	None	None	None	None	1
2.7	2015_May_21_1426	s	s	10	4	SIC	184	RC	1	2	02VD 02VO 02VC 09MD 02MO 02MC 02RD 02RO	1	0	3.62475514412	-486.0	-341.0	-496	-338	1
2.7	2015_May_21_1426	s	s	10	4	SIC	185	ABS	1	0	02VD 02VO 02VC 02MD 02MO 10MC 02RD 02RO	0	1	2.03298997879	None	None	None	None	1
2.7	2015_May_21_1426	s	s	10	4	SIC	186	RC	1	0	02VD 02VO 02VC 02MD 02MO 09MC 02RD 02RO	1	0	0.972995996475	-257.0	-374.0	-259	-369	1
2.7	2015_May_21_1426	s	s	10	4	SIC	187	RC	2	2	09VD 02VO 02VC 02MD 02MO 02MC 02RD 02RO	1	0	1.05532097816	270.0	190.0	271	195	1
2.7	2015_May_21_1426	s	s	10	4	SIC	188	RC	0	1	02VD 02VO 02VC 02MD 02MO 02MC 02RD 09RO	1	0	1.52436208725	485.0	-110.0	476	-110	1
2.7	2015_May_21_1426	s	s	10	4	SIC	189	RC	2	0	02VD 02VO 09VC 02MD 02MO 02MC 02RD 02RO	1	0	4.43695998192	-529.0	-236.0	-518	-230	1
2.7	2015_May_21_1426	s	s	10	4	SIC	190	ABS	0	1	02VD 02VO 02VC 02MD 02MO 02MC 02RD 10RO	0	1	2.1535179615	None	None	None	None	1
2.7	2015_May_21_1426	s	s	10	4	SIC	191	ABS	2	1	02VD 10VO 02VC 02MD 02MO 02MC 02RD 02RO	0	1	1.52376198769	None	None	None	None	1
2.7	2015_May_21_1426	s	s	10	4	SIC	192	RC	0	2	02VD 02VO 02VC 02MD 02MO 02MC 09RD 02RO	0	1	2.96564412117	-295.0	-279.0	None	None	0
2.7	2015_May_21_1426	s	s	10	4	SIC	193	RC	2	2	09VD 02VO 02VC 02MD 02MO 02MC 02RD 02RO	1	0	1.45309090614	-55.0	-185.0	-47	-187	1
2.7	2015_May_21_1426	s	s	10	4	SIC	194	ABS	1	0	02VD 02VO 02VC 02MD 02MO 10MC 02RD 02RO	0	1	2.17066407204	None	None	None	None	1
2.7	2015_May_21_1426	s	s	10	4	SIC	195	ABS	0	1	02VD 02VO 02VC 02MD 02MO 02MC 02RD 10RO	0	1	2.23049283028	None	None	None	None	1
2.7	2015_May_21_1426	s	s	10	4	SIC	196	ABS	0	2	02VD 02VO 02VC 02MD 02MO 02MC 10RD 02RO	0	1	1.86814117432	None	None	None	None	1
2.7	2015_May_21_1426	s	s	10	4	SIC	197	ABS	2	1	02VD 10VO 02VC 02MD 02MO 02MC 02RD 02RO	0	1	1.3969540596	None	None	None	None	1
2.7	2015_May_21_1426	s	s	10	4	SIC	198	ABS	1	2	02VD 02VO 02VC 10MD 02MO 02MC 02RD 02RO	0	1	0.888311862946	None	None	None	None	1
2.7	2015_May_21_1426	s	s	10	4	SIC	199	RC	1	1	02VD 02VO 02VC 02MD 09MO 02MC 02RD 02RO	1	0	0.964658021927	293.0	-299.0	287	-297	1
2.7	2015_May_21_1426	s	s	10	4	SIC	200	RC	0	2	02VD 02VO 02VC 02MD 02MO 02MC 09RD 02RO	1	0	3.754144907	-332.0	69.0	-334	65	1
2.7	2015_May_21_1426	s	s	10	4	SIC	201	RC	1	0	02VD 02VO 02VC 02MD 02MO 09MC 02RD 02RO	1	0	1.36481714249	-329.0	-103.0	-333	-100	1
2.7	2015_May_21_1426	s	s	10	4	SIC	202	ABS	2	2	10VD 02VO 02VC 02MD 02MO 02MC 02RD 02RO	0	1	1.37650895119	None	None	None	None	1
2.7	2015_May_21_1426	s	s	10	4	SIC	203	RC	1	2	02VD 02VO 02VC 09MD 02MO 02MC 02RD 02RO	1	0	1.07949399948	279.0	-73.0	271	-63	1
2.7	2015_May_21_1426	s	s	10	4	SIC	204	ABS	2	0	02VD 02VO 10VC 02MD 02MO 02MC 02RD 02RO	0	1	3.96599411964	None	None	None	None	1
2.7	2015_May_21_1426	s	s	10	4	SIC	205	RC	2	1	02VD 09VO 02VC 02MD 02MO 02MC 02RD 02RO	1	0	1.91261506081	170.0	-326.0	160	-327	1
2.7	2015_May_21_1426	s	s	10	4	SIC	206	ABS	1	1	02VD 02VO 02VC 02MD 10MO 02MC 02RD 02RO	0	1	1.30259203911	None	None	None	None	1
2.7	2015_May_21_1426	s	s	10	4	SIC	207	RC	2	0	02VD 02VO 09VC 02MD 02MO 02MC 02RD 02RO	1	0	0.811486005783	0.0	-71.0	0	-70	1
2.7	2015_May_21_1426	s	s	10	4	SIC	208	RC	0	1	02VD 02VO 02VC 02MD 02MO 02MC 02RD 09RO	1	0	1.2154250145	471.0	-232.0	464	-232	1
2.7	2015_May_21_1426	s	s	10	4	SIC	209	ABS	0	2	02VD 02VO 02VC 02MD 02MO 02MC 10RD 02RO	0	1	1.6415579319	None	None	None	None	1
2.7	2015_May_21_1426	s	s	10	4	SIC	210	ABS	2	2	10VD 02VO 02VC 02MD 02MO 02MC 02RD 02RO	0	1	1.34112596512	None	None	None	None	1
2.7	2015_May_21_1426	s	s	10	4	SIC	211	RC	0	2	02VD 02VO 02VC 02MD 02MO 02MC 09RD 02RO	1	0	2.05919790268	534.0	132.0	540	134	1
2.7	2015_May_21_1426	s	s	10	4	SIC	212	RC	1	2	02VD 02VO 02VC 09MD 02MO 02MC 02RD 02RO	1	0	1.08908987045	304.0	172.0	309	169	1
2.7	2015_May_21_1426	s	s	10	4	SIC	213	ABS	2	1	02VD 10VO 02VC 02MD 02MO 02MC 02RD 02RO	0	1	1.04745006561	None	None	None	None	1
2.7	2015_May_21_1426	s	s	10	4	SIC	214	RC	1	0	02VD 02VO 02VC 02MD 02MO 09MC 02RD 02RO	1	0	1.2774541378	240.0	261.0	238	257	1
2.7	2015_May_21_1426	s	s	10	4	SIC	215	ABS	0	1	02VD 02VO 02VC 02MD 02MO 02MC 02RD 10RO	0	1	1.51500415802	None	None	None	None	1
2.7	2015_May_21_1426	s	s	10	4	SIC	216	RC	1	1	02VD 02VO 02VC 02MD 09MO 02MC 02RD 02RO	1	0	1.63069105148	-103.0	172.0	-102	181	1
2.7	2015_May_21_1426	s	s	10	4	SIC	217	RC	0	1	02VD 02VO 02VC 02MD 02MO 02MC 02RD 09RO	0	1	3.69532012939	-115.0	240.0	None	None	0
2.7	2015_May_21_1426	s	s	10	4	SIC	218	ABS	1	1	02VD 02VO 02VC 02MD 10MO 02MC 02RD 02RO	0	1	1.2823240757	None	None	None	None	1
2.7	2015_May_21_1426	s	s	10	4	SIC	219	RC	2	2	09VD 02VO 02VC 02MD 02MO 02MC 02RD 02RO	0	1	2.57713985443	-59.0	-347.0	None	None	0
2.7	2015_May_21_1426	s	s	10	4	SIC	220	ABS	2	0	02VD 02VO 10VC 02MD 02MO 02MC 02RD 02RO	0	1	2.1887011528	None	None	None	None	1
2.7	2015_May_21_1426	s	s	10	4	SIC	221	ABS	1	0	02VD 02VO 02VC 02MD 02MO 10MC 02RD 02RO	0	1	1.49420785904	None	None	None	None	1
2.7	2015_May_21_1426	s	s	10	4	SIC	222	RC	2	0	02VD 02VO 09VC 02MD 02MO 02MC 02RD 02RO	1	0	1.40689992905	-135.0	325.0	-138	323	1
2.7	2015_May_21_1426	s	s	10	4	SIC	223	RC	2	1	02VD 09VO 02VC 02MD 02MO 02MC 02RD 02RO	0	1	1.46797418594	401.0	-18.0	None	None	0
2.7	2015_May_21_1426	s	s	10	4	SIC	224	ABS	1	2	02VD 02VO 02VC 10MD 02MO 02MC 02RD 02RO	0	1	1.07975292206	None	None	None	None	1
2.7	2015_May_21_1426	s	s	10	4	SIC	225	ABS	2	0	02VD 02VO 10VC 02MD 02MO 02MC 02RD 02RO	0	1	1.20432496071	None	None	None	None	1
2.7	2015_May_21_1426	s	s	10	4	SIC	226	RC	2	2	09VD 02VO 02VC 02MD 02MO 02MC 02RD 02RO	1	0	0.735085010529	184.0	15.0	183	17	1
2.7	2015_May_21_1426	s	s	10	4	SIC	227	ABS	1	1	02VD 02VO 02VC 02MD 10MO 02MC 02RD 02RO	0	1	1.29409003258	None	None	None	None	1
2.7	2015_May_21_1426	s	s	10	4	SIC	228	ABS	2	1	02VD 10VO 02VC 02MD 02MO 02MC 02RD 02RO	0	1	1.51771402359	None	None	None	None	1
2.7	2015_May_21_1426	s	s	10	4	SIC	229	ABS	1	2	02VD 02VO 02VC 10MD 02MO 02MC 02RD 02RO	0	1	1.45897388458	None	None	None	None	1
2.7	2015_May_21_1426	s	s	10	4	SIC	230	RC	1	2	02VD 02VO 02VC 09MD 02MO 02MC 02RD 02RO	0	1	1.17677617073	-211.0	-324.0	None	None	0
2.7	2015_May_21_1426	s	s	10	4	SIC	231	RC	1	1	02VD 02VO 02VC 02MD 09MO 02MC 02RD 02RO	1	0	1.470733881	170.0	396.0	174	404	1
2.7	2015_May_21_1426	s	s	10	4	SIC	232	RC	2	1	02VD 09VO 02VC 02MD 02MO 02MC 02RD 02RO	1	0	1.23115611076	202.0	-263.0	206	-265	1
2.7	2015_May_21_1426	s	s	10	4	SIC	233	RC	0	1	02VD 02VO 02VC 02MD 02MO 02MC 02RD 09RO	1	0	8.1865708828	437.0	249.0	439	243	1
2.7	2015_May_21_1426	s	s	10	4	SIC	234	RC	0	2	02VD 02VO 02VC 02MD 02MO 02MC 09RD 02RO	1	0	4.53106403351	316.0	364.0	322	369	1
2.7	2015_May_21_1426	s	s	10	4	SIC	235	ABS	1	0	02VD 02VO 02VC 02MD 02MO 10MC 02RD 02RO	0	1	8.14107990265	None	None	None	None	1
2.7	2015_May_21_1426	s	s	10	4	SIC	236	ABS	0	2	02VD 02VO 02VC 02MD 02MO 02MC 10RD 02RO	0	1	4.52631616592	None	None	None	None	1
2.7	2015_May_21_1426	s	s	10	4	SIC	237	ABS	2	2	10VD 02VO 02VC 02MD 02MO 02MC 02RD 02RO	0	1	1.39498186111	None	None	None	None	1
2.7	2015_May_21_1426	s	s	10	4	SIC	238	ABS	0	1	02VD 02VO 02VC 02MD 02MO 02MC 02RD 10RO	0	1	2.84349489212	None	None	None	None	1
2.7	2015_May_21_1426	s	s	10	4	SIC	239	RC	2	0	02VD 02VO 09VC 02MD 02MO 02MC 02RD 02RO	1	0	0.961920022964	58.0	-244.0	55	-246	1
2.7	2015_May_21_1426	s	s	10	4	SIC	240	RC	1	0	02VD 02VO 02VC 02MD 02MO 09MC 02RD 02RO	0	1	1.78872799873	474.0	-153.0	None	None	0
2.7	2015_May_21_1426	s	s	10	4	SIC	241	RC	2	2	09VD 02VO 02VC 02MD 02MO 02MC 02RD 02RO	1	0	0.988033056259	-88.0	3.0	-84	0	1
2.7	2015_May_21_1426	s	s	10	4	SIC	242	RC	1	2	02VD 02VO 02VC 09MD 02MO 02MC 02RD 02RO	1	0	1.9417450428	-515.0	348.0	-521	349	1
2.7	2015_May_21_1426	s	s	10	4	SIC	243	ABS	0	1	02VD 02VO 02VC 02MD 02MO 02MC 02RD 10RO	0	1	3.81307005882	None	None	None	None	1
2.7	2015_May_21_1426	s	s	10	4	SIC	244	RC	2	0	02VD 02VO 09VC 02MD 02MO 02MC 02RD 02RO	1	0	1.61184287071	116.0	-105.0	114	-102	1
2.7	2015_May_21_1426	s	s	10	4	SIC	245	RC	0	1	02VD 02VO 02VC 02MD 02MO 02MC 02RD 09RO	1	0	2.32986497879	190.0	-245.0	191	-247	1
2.7	2015_May_21_1426	s	s	10	4	SIC	246	ABS	1	1	02VD 02VO 02VC 02MD 10MO 02MC 02RD 02RO	0	1	3.02176809311	None	None	None	None	1
2.7	2015_May_21_1426	s	s	10	4	SIC	247	RC	1	1	02VD 02VO 02VC 02MD 09MO 02MC 02RD 02RO	1	0	4.58383607864	358.0	304.0	354	296	1
2.7	2015_May_21_1426	s	s	10	4	SIC	248	ABS	2	0	02VD 02VO 10VC 02MD 02MO 02MC 02RD 02RO	0	1	2.02395796776	None	None	None	None	1
2.7	2015_May_21_1426	s	s	10	4	SIC	249	RC	2	1	02VD 09VO 02VC 02MD 02MO 02MC 02RD 02RO	1	0	1.84241390228	286.0	220.0	291	216	1
2.7	2015_May_21_1426	s	s	10	4	SIC	250	ABS	2	2	10VD 02VO 02VC 02MD 02MO 02MC 02RD 02RO	0	1	1.71259498596	None	None	None	None	1
2.7	2015_May_21_1426	s	s	10	4	SIC	251	ABS	2	1	02VD 10VO 02VC 02MD 02MO 02MC 02RD 02RO	0	1	2.22403788567	None	None	None	None	1
2.7	2015_May_21_1426	s	s	10	4	SIC	252	ABS	0	2	02VD 02VO 02VC 02MD 02MO 02MC 10RD 02RO	0	1	1.66481089592	None	None	None	None	1
2.7	2015_May_21_1426	s	s	10	4	SIC	253	ABS	1	0	02VD 02VO 02VC 02MD 02MO 10MC 02RD 02RO	0	1	3.74235701561	None	None	None	None	1
2.7	2015_May_21_1426	s	s	10	4	SIC	254	RC	1	0	02VD 02VO 02VC 02MD 02MO 09MC 02RD 02RO	1	0	1.30335021019	24.0	248.0	26	252	1
2.7	2015_May_21_1426	s	s	10	4	SIC	255	ABS	1	2	02VD 02VO 02VC 10MD 02MO 02MC 02RD 02RO	0	1	2.44179105759	None	None	None	None	1
2.7	2015_May_21_1426	s	s	10	4	SIC	256	RC	0	2	02VD 02VO 02VC 02MD 02MO 02MC 09RD 02RO	1	0	1.60670304298	-492.0	220.0	-498	216	1
2.7	2015_May_21_1426	s	s	10	4	SIC	257	RC	2	0	02VD 02VO 09VC 02MD 02MO 02MC 02RD 02RO	1	0	1.71281886101	504.0	-70.0	508	-72	1
2.7	2015_May_21_1426	s	s	10	4	SIC	258	RC	0	2	02VD 02VO 02VC 02MD 02MO 02MC 09RD 02RO	1	0	6.38476800919	-464.0	262.0	-462	256	1
2.7	2015_May_21_1426	s	s	10	4	SIC	259	ABS	1	0	02VD 02VO 02VC 02MD 02MO 10MC 02RD 02RO	0	1	1.60002684593	None	None	None	None	1
2.7	2015_May_21_1426	s	s	10	4	SIC	260	RC	1	2	02VD 02VO 02VC 09MD 02MO 02MC 02RD 02RO	1	0	0.976522922516	-420.0	-40.0	-417	-42	1
2.7	2015_May_21_1426	s	s	10	4	SIC	261	ABS	2	0	02VD 02VO 10VC 02MD 02MO 02MC 02RD 02RO	0	1	0.900293111801	None	None	None	None	1
2.7	2015_May_21_1426	s	s	10	4	SIC	262	ABS	0	2	02VD 02VO 02VC 02MD 02MO 02MC 10RD 02RO	0	1	1.29397892952	None	None	None	None	1
2.7	2015_May_21_1426	s	s	10	4	SIC	263	ABS	1	1	02VD 02VO 02VC 02MD 10MO 02MC 02RD 02RO	0	1	1.56486296654	None	None	None	None	1
2.7	2015_May_21_1426	s	s	10	4	SIC	264	ABS	2	1	02VD 10VO 02VC 02MD 02MO 02MC 02RD 02RO	0	1	1.24680709839	None	None	None	None	1
2.7	2015_May_21_1426	s	s	10	4	SIC	265	RC	1	1	02VD 02VO 02VC 02MD 09MO 02MC 02RD 02RO	1	0	0.964595079422	222.0	-207.0	222	-211	1
2.7	2015_May_21_1426	s	s	10	4	SIC	266	ABS	0	1	02VD 02VO 02VC 02MD 02MO 02MC 02RD 10RO	0	1	3.60164999962	None	None	None	None	1
2.7	2015_May_21_1426	s	s	10	4	SIC	267	RC	2	2	09VD 02VO 02VC 02MD 02MO 02MC 02RD 02RO	1	0	1.36476302147	294.0	369.0	302	373	1
2.7	2015_May_21_1426	s	s	10	4	SIC	268	RC	2	1	02VD 09VO 02VC 02MD 02MO 02MC 02RD 02RO	0	1	2.60067200661	170.0	377.0	None	None	0
2.7	2015_May_21_1426	s	s	10	4	SIC	269	RC	1	0	02VD 02VO 02VC 02MD 02MO 09MC 02RD 02RO	1	0	1.18440485001	289.0	145.0	289	146	1
2.7	2015_May_21_1426	s	s	10	4	SIC	270	ABS	1	2	02VD 02VO 02VC 10MD 02MO 02MC 02RD 02RO	0	1	2.059237957	None	None	None	None	1
2.7	2015_May_21_1426	s	s	10	4	SIC	271	ABS	2	2	10VD 02VO 02VC 02MD 02MO 02MC 02RD 02RO	0	1	2.50308394432	None	None	None	None	1
2.7	2015_May_21_1426	s	s	10	4	SIC	272	RC	0	1	02VD 02VO 02VC 02MD 02MO 02MC 02RD 09RO	1	0	5.64921212196	91.0	-304.0	94	-301	1
2.7	2015_May_21_1426	s	s	10	4	SIC	273	ABS	0	1	02VD 02VO 02VC 02MD 02MO 02MC 02RD 10RO	0	1	5.65533995628	None	None	None	None	1
2.7	2015_May_21_1426	s	s	10	4	SIC	274	ABS	1	2	02VD 02VO 02VC 10MD 02MO 02MC 02RD 02RO	0	1	3.93715596199	None	None	None	None	1
2.7	2015_May_21_1426	s	s	10	4	SIC	275	RC	0	2	02VD 02VO 02VC 02MD 02MO 02MC 09RD 02RO	1	0	3.58945608139	316.0	37.0	311	35	1
2.7	2015_May_21_1426	s	s	10	4	SIC	276	ABS	2	2	10VD 02VO 02VC 02MD 02MO 02MC 02RD 02RO	0	1	4.58991599083	None	None	None	None	1
2.7	2015_May_21_1426	s	s	10	4	SIC	277	ABS	2	1	02VD 10VO 02VC 02MD 02MO 02MC 02RD 02RO	0	1	2.26294589043	None	None	None	None	1
2.7	2015_May_21_1426	s	s	10	4	SIC	278	RC	2	1	02VD 09VO 02VC 02MD 02MO 02MC 02RD 02RO	0	1	1.93877720833	401.0	306.0	None	None	0
2.7	2015_May_21_1426	s	s	10	4	SIC	279	ABS	2	0	02VD 02VO 10VC 02MD 02MO 02MC 02RD 02RO	0	1	3.63383793831	None	None	None	None	1
2.7	2015_May_21_1426	s	s	10	4	SIC	280	RC	1	0	02VD 02VO 02VC 02MD 02MO 09MC 02RD 02RO	1	0	2.58369112015	77.0	199.0	74	199	1
2.7	2015_May_21_1426	s	s	10	4	SIC	281	RC	1	1	02VD 02VO 02VC 02MD 09MO 02MC 02RD 02RO	1	0	2.31817603111	176.0	261.0	179	263	1
2.7	2015_May_21_1426	s	s	10	4	SIC	282	ABS	1	1	02VD 02VO 02VC 02MD 10MO 02MC 02RD 02RO	0	1	4.30731511116	None	None	None	None	1
2.7	2015_May_21_1426	s	s	10	4	SIC	283	RC	2	2	09VD 02VO 02VC 02MD 02MO 02MC 02RD 02RO	1	0	4.7315299511	-99.0	106.0	-102	98	1
2.7	2015_May_21_1426	s	s	10	4	SIC	284	RC	0	1	02VD 02VO 02VC 02MD 02MO 02MC 02RD 09RO	1	0	4.34287405014	-320.0	-138.0	-317	-133	1
2.7	2015_May_21_1426	s	s	10	4	SIC	285	ABS	0	2	02VD 02VO 02VC 02MD 02MO 02MC 10RD 02RO	0	1	5.90827822685	None	None	None	None	1
2.7	2015_May_21_1426	s	s	10	4	SIC	286	ABS	1	0	02VD 02VO 02VC 02MD 02MO 10MC 02RD 02RO	0	1	3.02481985092	None	None	None	None	1
2.7	2015_May_21_1426	s	s	10	4	SIC	287	RC	1	2	02VD 02VO 02VC 09MD 02MO 02MC 02RD 02RO	1	0	1.29415202141	-136.0	169.0	-139	158	1
2.7	2015_May_21_1426	s	s	10	4	SIC	288	RC	2	0	02VD 02VO 09VC 02MD 02MO 02MC 02RD 02RO	1	0	1.04178905487	-86.0	-58.0	-78	-54	1
2.7	2015_May_21_1426	s	s	10	4	SIC	289	RC	2	2	09VD 02VO 02VC 02MD 02MO 02MC 02RD 02RO	1	0	1.8001730442	524.0	284.0	527	281	1
2.7	2015_May_21_1426	s	s	10	4	SIC	290	RC	2	0	02VD 02VO 09VC 02MD 02MO 02MC 02RD 02RO	1	0	1.36175298691	-253.0	-349.0	-248	-354	1
2.7	2015_May_21_1426	s	s	10	4	SIC	291	ABS	1	1	02VD 02VO 02VC 02MD 10MO 02MC 02RD 02RO	0	1	1.83097887039	None	None	None	None	1
2.7	2015_May_21_1426	s	s	10	4	SIC	292	RC	0	2	02VD 02VO 02VC 02MD 02MO 02MC 09RD 02RO	1	0	1.31501889229	174.0	51.0	172	46	1
2.7	2015_May_21_1426	s	s	10	4	SIC	293	RC	1	0	02VD 02VO 02VC 02MD 02MO 09MC 02RD 02RO	1	0	1.35286998749	-130.0	346.0	-131	345	1
2.7	2015_May_21_1426	s	s	10	4	SIC	294	RC	2	1	02VD 09VO 02VC 02MD 02MO 02MC 02RD 02RO	1	0	2.21996998787	411.0	-32.0	409	-33	1
2.7	2015_May_21_1426	s	s	10	4	SIC	295	ABS	2	1	02VD 10VO 02VC 02MD 02MO 02MC 02RD 02RO	0	1	3.43338394165	None	None	None	None	1
2.7	2015_May_21_1426	s	s	10	4	SIC	296	ABS	0	2	02VD 02VO 02VC 02MD 02MO 02MC 10RD 02RO	0	1	2.07984399796	None	None	None	None	1
2.7	2015_May_21_1426	s	s	10	4	SIC	297	ABS	2	0	02VD 02VO 10VC 02MD 02MO 02MC 02RD 02RO	0	1	1.07056283951	None	None	None	None	1
2.7	2015_May_21_1426	s	s	10	4	SIC	298	RC	1	2	02VD 02VO 02VC 09MD 02MO 02MC 02RD 02RO	1	0	4.34009599686	291.0	100.0	295	106	1
2.7	2015_May_21_1426	s	s	10	4	SIC	299	ABS	0	1	02VD 02VO 02VC 02MD 02MO 02MC 02RD 10RO	0	1	3.08326601982	None	None	None	None	1
2.7	2015_May_21_1426	s	s	10	4	SIC	300	ABS	2	2	10VD 02VO 02VC 02MD 02MO 02MC 02RD 02RO	0	1	1.24714899063	None	None	None	None	1
2.7	2015_May_21_1426	s	s	10	4	SIC	301	RC	1	1	02VD 02VO 02VC 02MD 09MO 02MC 02RD 02RO	1	0	1.41177201271	189.0	-374.0	189	-376	1
2.7	2015_May_21_1426	s	s	10	4	SIC	302	RC	0	1	02VD 02VO 02VC 02MD 02MO 02MC 02RD 09RO	1	0	3.2485370636	-135.0	51.0	-129	60	1
2.7	2015_May_21_1426	s	s	10	4	SIC	303	ABS	1	2	02VD 02VO 02VC 10MD 02MO 02MC 02RD 02RO	0	1	3.61943602562	None	None	None	None	1
2.7	2015_May_21_1426	s	s	10	4	SIC	304	ABS	1	0	02VD 02VO 02VC 02MD 02MO 10MC 02RD 02RO	0	1	3.48351597786	None	None	None	None	1
2.7	2015_May_21_1426	s	s	10	4	SIC	305	RC	1	0	02VD 02VO 02VC 02MD 02MO 09MC 02RD 02RO	1	0	1.83251404762	533.0	320.0	537	316	1
2.7	2015_May_21_1426	s	s	10	4	SIC	306	ABS	1	1	02VD 02VO 02VC 02MD 10MO 02MC 02RD 02RO	0	1	4.99625611305	None	None	None	None	1
2.7	2015_May_21_1426	s	s	10	4	SIC	307	RC	2	2	09VD 02VO 02VC 02MD 02MO 02MC 02RD 02RO	1	0	2.96559405327	47.0	376.0	53	369	1
2.7	2015_May_21_1426	s	s	10	4	SIC	308	ABS	1	2	02VD 02VO 02VC 10MD 02MO 02MC 02RD 02RO	0	1	6.24420118332	None	None	None	None	1
2.7	2015_May_21_1426	s	s	10	4	SIC	309	ABS	1	0	02VD 02VO 02VC 02MD 02MO 10MC 02RD 02RO	0	1	3.17386603355	None	None	None	None	1
2.7	2015_May_21_1426	s	s	10	4	SIC	310	ABS	0	2	02VD 02VO 02VC 02MD 02MO 02MC 10RD 02RO	0	1	2.55722403526	None	None	None	None	1
2.7	2015_May_21_1426	s	s	10	4	SIC	311	RC	0	2	02VD 02VO 02VC 02MD 02MO 02MC 09RD 02RO	1	0	1.2795419693	272.0	386.0	274	386	1
2.7	2015_May_21_1426	s	s	10	4	SIC	312	ABS	0	1	02VD 02VO 02VC 02MD 02MO 02MC 02RD 10RO	0	1	3.96250009537	None	None	None	None	1
2.7	2015_May_21_1426	s	s	10	4	SIC	313	RC	1	2	02VD 02VO 02VC 09MD 02MO 02MC 02RD 02RO	1	0	1.1727449894	-35.0	242.0	-38	239	1
2.7	2015_May_21_1426	s	s	10	4	SIC	314	RC	0	1	02VD 02VO 02VC 02MD 02MO 02MC 02RD 09RO	1	0	1.57665920258	-359.0	-203.0	-358	-206	1
2.7	2015_May_21_1426	s	s	10	4	SIC	315	ABS	2	1	02VD 10VO 02VC 02MD 02MO 02MC 02RD 02RO	0	1	1.63158202171	None	None	None	None	1
2.7	2015_May_21_1426	s	s	10	4	SIC	316	ABS	2	0	02VD 02VO 10VC 02MD 02MO 02MC 02RD 02RO	0	1	1.2471280098	None	None	None	None	1
2.7	2015_May_21_1426	s	s	10	4	SIC	317	ABS	2	2	10VD 02VO 02VC 02MD 02MO 02MC 02RD 02RO	0	1	0.865195989609	None	None	None	None	1
2.7	2015_May_21_1426	s	s	10	4	SIC	318	RC	2	1	02VD 09VO 02VC 02MD 02MO 02MC 02RD 02RO	1	0	1.37089705467	457.0	-157.0	460	-152	1
2.7	2015_May_21_1426	s	s	10	4	SIC	319	RC	2	0	02VD 02VO 09VC 02MD 02MO 02MC 02RD 02RO	1	0	2.04740285873	-412.0	-203.0	-417	-195	1
2.7	2015_May_21_1426	s	s	10	4	SIC	320	RC	1	1	02VD 02VO 02VC 02MD 09MO 02MC 02RD 02RO	1	0	1.25881290436	-110.0	-214.0	-116	-211	1
2.7	2015_May_21_1426	s	s	10	4	SIC	321	ABS	2	0	02VD 02VO 10VC 02MD 02MO 02MC 02RD 02RO	0	1	1.75932192802	None	None	None	None	1
2.7	2015_May_21_1426	s	s	10	4	SIC	322	ABS	0	2	02VD 02VO 02VC 02MD 02MO 02MC 10RD 02RO	0	1	1.17263698578	None	None	None	None	1
2.7	2015_May_21_1426	s	s	10	4	SIC	323	ABS	1	1	02VD 02VO 02VC 02MD 10MO 02MC 02RD 02RO	0	1	1.98360204697	None	None	None	None	1
2.7	2015_May_21_1426	s	s	10	4	SIC	324	RC	2	1	02VD 09VO 02VC 02MD 02MO 02MC 02RD 02RO	0	1	0.175925016403	507.0	-168.0	None	None	0
2.7	2015_May_21_1426	s	s	10	4	SIC	325	ABS	2	2	10VD 02VO 02VC 02MD 02MO 02MC 02RD 02RO	0	1	1.54967713356	None	None	None	None	1
2.7	2015_May_21_1426	s	s	10	4	SIC	326	RC	1	1	02VD 02VO 02VC 02MD 09MO 02MC 02RD 02RO	1	0	1.25608301163	445.0	94.0	447	93	1
2.7	2015_May_21_1426	s	s	10	4	SIC	327	RC	1	0	02VD 02VO 02VC 02MD 02MO 09MC 02RD 02RO	0	1	1.77669095993	-378.0	-275.0	None	None	0
2.7	2015_May_21_1426	s	s	10	4	SIC	328	RC	0	1	02VD 02VO 02VC 02MD 02MO 02MC 02RD 09RO	0	1	3.91631579399	10.0	-360.0	None	None	0
2.7	2015_May_21_1426	s	s	10	4	SIC	329	ABS	1	0	02VD 02VO 02VC 02MD 02MO 10MC 02RD 02RO	0	1	12.0478389263	None	None	None	None	1
2.7	2015_May_21_1426	s	s	10	4	SIC	330	ABS	2	1	02VD 10VO 02VC 02MD 02MO 02MC 02RD 02RO	0	1	2.51210594177	None	None	None	None	1
2.7	2015_May_21_1426	s	s	10	4	SIC	331	ABS	0	1	02VD 02VO 02VC 02MD 02MO 02MC 02RD 10RO	0	1	5.24368405342	None	None	None	None	1
2.7	2015_May_21_1426	s	s	10	4	SIC	332	RC	2	0	02VD 02VO 09VC 02MD 02MO 02MC 02RD 02RO	1	0	0.729136943817	-37.0	87.0	-38	76	1
2.7	2015_May_21_1426	s	s	10	4	SIC	333	RC	0	2	02VD 02VO 02VC 02MD 02MO 02MC 09RD 02RO	1	0	1.22959899902	-441.0	219.0	-447	215	1
2.7	2015_May_21_1426	s	s	10	4	SIC	334	RC	2	2	09VD 02VO 02VC 02MD 02MO 02MC 02RD 02RO	1	0	0.816095113754	-268.0	90.0	-269	83	1
2.7	2015_May_21_1426	s	s	10	4	SIC	335	ABS	1	2	02VD 02VO 02VC 10MD 02MO 02MC 02RD 02RO	0	1	1.26771187782	None	None	None	None	1
2.7	2015_May_21_1426	s	s	10	4	SIC	336	RC	1	2	02VD 02VO 02VC 09MD 02MO 02MC 02RD 02RO	1	0	1.25488901138	-42.0	57.0	-42	47	1
2.7	2015_May_21_1426	s	s	10	4	SIC	337	RC	2	1	02VD 09VO 02VC 02MD 02MO 02MC 02RD 02RO	0	1	0.629405975342	159.0	51.0	None	None	0
2.7	2015_May_21_1426	s	s	10	4	SIC	338	ABS	0	1	02VD 02VO 02VC 02MD 02MO 02MC 02RD 10RO	0	1	2.50359511375	None	None	None	None	1
2.7	2015_May_21_1426	s	s	10	4	SIC	339	RC	0	1	02VD 02VO 02VC 02MD 02MO 02MC 02RD 09RO	0	1	9.3936920166e-05	369.0	352.0	None	None	0
2.7	2015_May_21_1426	s	s	10	4	SIC	340	RC	1	2	02VD 02VO 02VC 09MD 02MO 02MC 02RD 02RO	1	0	1.45437717438	533.0	166.0	532	164	1
2.7	2015_May_21_1426	s	s	10	4	SIC	341	RC	1	0	02VD 02VO 02VC 02MD 02MO 09MC 02RD 02RO	1	0	2.106112957	44.0	411.0	47	402	1
2.7	2015_May_21_1426	s	s	10	4	SIC	342	ABS	2	2	10VD 02VO 02VC 02MD 02MO 02MC 02RD 02RO	0	1	1.8892929554	None	None	None	None	1
2.7	2015_May_21_1426	s	s	10	4	SIC	343	RC	0	2	02VD 02VO 02VC 02MD 02MO 02MC 09RD 02RO	1	0	2.2299759388	286.0	-268.0	281	-260	1
2.7	2015_May_21_1426	s	s	10	4	SIC	344	ABS	1	1	02VD 02VO 02VC 02MD 10MO 02MC 02RD 02RO	0	1	2.14168190956	None	None	None	None	1
2.7	2015_May_21_1426	s	s	10	4	SIC	345	ABS	0	2	02VD 02VO 02VC 02MD 02MO 02MC 10RD 02RO	0	1	2.63046312332	None	None	None	None	1
2.7	2015_May_21_1426	s	s	10	4	SIC	346	ABS	2	1	02VD 10VO 02VC 02MD 02MO 02MC 02RD 02RO	0	1	0.929383039474	None	None	None	None	1
2.7	2015_May_21_1426	s	s	10	4	SIC	347	RC	2	0	02VD 02VO 09VC 02MD 02MO 02MC 02RD 02RO	1	0	0.77623295784	-72.0	165.0	-69	165	1
2.7	2015_May_21_1426	s	s	10	4	SIC	348	RC	2	2	09VD 02VO 02VC 02MD 02MO 02MC 02RD 02RO	1	0	1.19995594025	-508.0	287.0	-512	282	1
2.7	2015_May_21_1426	s	s	10	4	SIC	349	ABS	1	0	02VD 02VO 02VC 02MD 02MO 10MC 02RD 02RO	0	1	2.86584401131	None	None	None	None	1
2.7	2015_May_21_1426	s	s	10	4	SIC	350	RC	1	1	02VD 02VO 02VC 02MD 09MO 02MC 02RD 02RO	1	0	1.07046484947	295.0	92.0	295	89	1
2.7	2015_May_21_1426	s	s	10	4	SIC	351	ABS	2	0	02VD 02VO 10VC 02MD 02MO 02MC 02RD 02RO	0	1	0.811580181122	None	None	None	None	1
2.7	2015_May_21_1426	s	s	10	4	SIC	352	ABS	1	2	02VD 02VO 02VC 10MD 02MO 02MC 02RD 02RO	0	1	2.11534786224	None	None	None	None	1
2.7	2015_May_21_1426	s	s	10	4	SIC	353	ABS	2	2	10VD 02VO 02VC 02MD 02MO 02MC 02RD 02RO	0	1	1.73775100708	None	None	None	None	1
2.7	2015_May_21_1426	s	s	10	4	SIC	354	ABS	2	1	02VD 10VO 02VC 02MD 02MO 02MC 02RD 02RO	0	1	1.70099592209	None	None	None	None	1
2.7	2015_May_21_1426	s	s	10	4	SIC	355	ABS	0	2	02VD 02VO 02VC 02MD 02MO 02MC 10RD 02RO	0	1	2.04281520844	None	None	None	None	1
2.7	2015_May_21_1426	s	s	10	4	SIC	356	ABS	2	0	02VD 02VO 10VC 02MD 02MO 02MC 02RD 02RO	0	1	1.58843994141	None	None	None	None	1
2.7	2015_May_21_1426	s	s	10	4	SIC	357	RC	2	0	02VD 02VO 09VC 02MD 02MO 02MC 02RD 02RO	1	0	1.90627193451	-203.0	-266.0	-198	-267	1
2.7	2015_May_21_1426	s	s	10	4	SIC	358	RC	1	1	02VD 02VO 02VC 02MD 09MO 02MC 02RD 02RO	1	0	1.52367281914	-90.0	-54.0	-88	-55	1
2.7	2015_May_21_1426	s	s	10	4	SIC	359	ABS	1	0	02VD 02VO 02VC 02MD 02MO 10MC 02RD 02RO	0	1	1.19603586197	None	None	None	None	1
2.7	2015_May_21_1426	s	s	10	4	SIC	360	ABS	1	2	02VD 02VO 02VC 10MD 02MO 02MC 02RD 02RO	0	1	1.23294019699	None	None	None	None	1
2.7	2015_May_21_1426	s	s	10	4	SIC	361	RC	1	0	02VD 02VO 02VC 02MD 02MO 09MC 02RD 02RO	1	0	2.74194002151	-475.0	-101.0	-478	-97	1
2.7	2015_May_21_1426	s	s	10	4	SIC	362	ABS	1	1	02VD 02VO 02VC 02MD 10MO 02MC 02RD 02RO	0	1	2.14163780212	None	None	None	None	1
2.7	2015_May_21_1426	s	s	10	4	SIC	363	RC	1	2	02VD 02VO 02VC 09MD 02MO 02MC 02RD 02RO	1	0	1.23523688316	-353.0	353.0	-352	347	1
2.7	2015_May_21_1426	s	s	10	4	SIC	364	ABS	0	1	02VD 02VO 02VC 02MD 02MO 02MC 02RD 10RO	0	1	1.37385106087	None	None	None	None	1
2.7	2015_May_21_1426	s	s	10	4	SIC	365	RC	0	1	02VD 02VO 02VC 02MD 02MO 02MC 02RD 09RO	1	0	3.1231751442	-274.0	-298.0	-275	-305	1
2.7	2015_May_21_1426	s	s	10	4	SIC	366	RC	0	2	02VD 02VO 02VC 02MD 02MO 02MC 09RD 02RO	1	0	2.0328271389	-87.0	-343.0	-90	-334	1
2.7	2015_May_21_1426	s	s	10	4	SIC	367	RC	2	2	09VD 02VO 02VC 02MD 02MO 02MC 02RD 02RO	1	0	1.8593518734	-287.0	-346.0	-292	-347	1
2.7	2015_May_21_1426	s	s	10	4	SIC	368	RC	2	1	02VD 09VO 02VC 02MD 02MO 02MC 02RD 02RO	0	1	1.3717648983	-303.0	-411.0	None	None	0
2.7	2015_May_21_1426	s	s	10	4	SIC	369	RC	2	1	02VD 09VO 02VC 02MD 02MO 02MC 02RD 02RO	1	0	1.40006709099	413.0	-299.0	411	-297	1
2.7	2015_May_21_1426	s	s	10	4	SIC	370	RC	2	2	09VD 02VO 02VC 02MD 02MO 02MC 02RD 02RO	1	0	1.21531510353	472.0	-58.0	476	-57	1
2.7	2015_May_21_1426	s	s	10	4	SIC	371	RC	0	1	02VD 02VO 02VC 02MD 02MO 02MC 02RD 09RO	1	0	0.784327983856	247.0	-63.0	241	-61	1
2.7	2015_May_21_1426	s	s	10	4	SIC	372	RC	2	0	02VD 02VO 09VC 02MD 02MO 02MC 02RD 02RO	1	0	0.952773809433	100.0	223.0	103	226	1
2.7	2015_May_21_1426	s	s	10	4	SIC	373	ABS	1	1	02VD 02VO 02VC 02MD 10MO 02MC 02RD 02RO	0	1	2.6092441082	None	None	None	None	1
2.7	2015_May_21_1426	s	s	10	4	SIC	374	ABS	1	2	02VD 02VO 02VC 10MD 02MO 02MC 02RD 02RO	0	1	1.88249588013	None	None	None	None	1
2.7	2015_May_21_1426	s	s	10	4	SIC	375	RC	1	1	02VD 02VO 02VC 02MD 09MO 02MC 02RD 02RO	1	0	0.900994062424	356.0	-33.0	352	-32	1
2.7	2015_May_21_1426	s	s	10	4	SIC	376	RC	0	2	02VD 02VO 02VC 02MD 02MO 02MC 09RD 02RO	1	0	1.4118077755	-522.0	162.0	-525	160	1
2.7	2015_May_21_1426	s	s	10	4	SIC	377	RC	1	2	02VD 02VO 02VC 09MD 02MO 02MC 02RD 02RO	1	0	0.606411933899	58.0	-14.0	59	-17	1
2.7	2015_May_21_1426	s	s	10	4	SIC	378	ABS	0	2	02VD 02VO 02VC 02MD 02MO 02MC 10RD 02RO	0	1	1.83563804626	None	None	None	None	1
2.7	2015_May_21_1426	s	s	10	4	SIC	379	ABS	2	1	02VD 10VO 02VC 02MD 02MO 02MC 02RD 02RO	0	1	1.6086230278	None	None	None	None	1
2.7	2015_May_21_1426	s	s	10	4	SIC	380	ABS	1	0	02VD 02VO 02VC 02MD 02MO 10MC 02RD 02RO	0	1	1.60038709641	None	None	None	None	1
2.7	2015_May_21_1426	s	s	10	4	SIC	381	RC	1	0	02VD 02VO 02VC 02MD 02MO 09MC 02RD 02RO	1	0	1.69429302216	539.0	141.0	545	140	1
2.7	2015_May_21_1426	s	s	10	4	SIC	382	ABS	0	1	02VD 02VO 02VC 02MD 02MO 02MC 02RD 10RO	0	1	2.78628993034	None	None	None	None	1
2.7	2015_May_21_1426	s	s	10	4	SIC	383	ABS	2	2	10VD 02VO 02VC 02MD 02MO 02MC 02RD 02RO	0	1	1.77002716064	None	None	None	None	1
2.7	2015_May_21_1426	s	s	10	4	SIC	384	ABS	2	0	02VD 02VO 10VC 02MD 02MO 02MC 02RD 02RO	0	1	1.32949090004	None	None	None	None	1
2.7	2015_May_21_1426	s	s	10	4	SIC	385	ABS	0	1	02VD 02VO 02VC 02MD 02MO 02MC 02RD 10RO	1	0	2.96295213699	None	None	25	-125	0
2.7	2015_May_21_1426	s	s	10	4	SIC	386	ABS	2	2	10VD 02VO 02VC 02MD 02MO 02MC 02RD 02RO	0	1	2.69488811493	None	None	None	None	1
2.7	2015_May_21_1426	s	s	10	4	SIC	387	ABS	1	0	02VD 02VO 02VC 02MD 02MO 10MC 02RD 02RO	0	1	3.10185194016	None	None	None	None	1
2.7	2015_May_21_1426	s	s	10	4	SIC	388	RC	0	1	02VD 02VO 02VC 02MD 02MO 02MC 02RD 09RO	1	0	3.1744389534	-164.0	-399.0	-174	-395	1
2.7	2015_May_21_1426	s	s	10	4	SIC	389	RC	1	2	02VD 02VO 02VC 09MD 02MO 02MC 02RD 02RO	1	0	2.1012430191	384.0	-104.0	390	-102	1
2.7	2015_May_21_1426	s	s	10	4	SIC	390	RC	0	2	02VD 02VO 02VC 02MD 02MO 02MC 09RD 02RO	1	0	1.5011742115	201.0	-203.0	206	-207	1
2.7	2015_May_21_1426	s	s	10	4	SIC	391	ABS	2	1	02VD 10VO 02VC 02MD 02MO 02MC 02RD 02RO	0	1	1.83144402504	None	None	None	None	1
2.7	2015_May_21_1426	s	s	10	4	SIC	392	RC	2	2	09VD 02VO 02VC 02MD 02MO 02MC 02RD 02RO	1	0	1.16017603874	520.0	120.0	517	121	1
2.7	2015_May_21_1426	s	s	10	4	SIC	393	RC	1	0	02VD 02VO 02VC 02MD 02MO 09MC 02RD 02RO	1	0	0.740867137909	-111.0	136.0	-114	131	1
2.7	2015_May_21_1426	s	s	10	4	SIC	394	ABS	2	0	02VD 02VO 10VC 02MD 02MO 02MC 02RD 02RO	0	1	2.04739308357	None	None	None	None	1
2.7	2015_May_21_1426	s	s	10	4	SIC	395	RC	2	1	02VD 09VO 02VC 02MD 02MO 02MC 02RD 02RO	1	0	2.10311198235	487.0	-204.0	484	-209	1
2.7	2015_May_21_1426	s	s	10	4	SIC	396	ABS	1	1	02VD 02VO 02VC 02MD 10MO 02MC 02RD 02RO	0	1	2.50118899345	None	None	None	None	1
2.7	2015_May_21_1426	s	s	10	4	SIC	397	ABS	1	2	02VD 02VO 02VC 10MD 02MO 02MC 02RD 02RO	0	1	2.80892896652	None	None	None	None	1
2.7	2015_May_21_1426	s	s	10	4	SIC	398	ABS	0	2	02VD 02VO 02VC 02MD 02MO 02MC 10RD 02RO	0	1	1.04360890388	None	None	None	None	1
2.7	2015_May_21_1426	s	s	10	4	SIC	399	RC	1	1	02VD 02VO 02VC 02MD 09MO 02MC 02RD 02RO	1	0	1.01170682907	274.0	247.0	273	252	1
2.7	2015_May_21_1426	s	s	10	4	SIC	400	RC	2	0	02VD 02VO 09VC 02MD 02MO 02MC 02RD 02RO	1	0	3.24425601959	-395.0	-347.0	-400	-348	1
2.7	2015_May_21_1426	s	s	10	4	SIC	401	ABS	0	1	02VD 02VO 02VC 02MD 02MO 02MC 02RD 10RO	0	1	3.22541117668	None	None	None	None	1
2.7	2015_May_21_1426	s	s	10	4	SIC	402	ABS	2	1	02VD 10VO 02VC 02MD 02MO 02MC 02RD 02RO	0	1	1.85629415512	None	None	None	None	1
2.7	2015_May_21_1426	s	s	10	4	SIC	403	ABS	1	1	02VD 02VO 02VC 02MD 10MO 02MC 02RD 02RO	0	1	1.88270521164	None	None	None	None	1
2.7	2015_May_21_1426	s	s	10	4	SIC	404	RC	2	0	02VD 02VO 09VC 02MD 02MO 02MC 02RD 02RO	1	0	1.35292196274	428.0	-216.0	422	-217	1
2.7	2015_May_21_1426	s	s	10	4	SIC	405	RC	1	2	02VD 02VO 02VC 09MD 02MO 02MC 02RD 02RO	1	0	1.65904211998	-380.0	-165.0	-379	-167	1
2.7	2015_May_21_1426	s	s	10	4	SIC	406	ABS	2	2	10VD 02VO 02VC 02MD 02MO 02MC 02RD 02RO	0	1	1.73786783218	None	None	None	None	1
2.7	2015_May_21_1426	s	s	10	4	SIC	407	RC	1	0	02VD 02VO 02VC 02MD 02MO 09MC 02RD 02RO	0	1	2.65937685966	-436.0	-182.0	None	None	0
2.7	2015_May_21_1426	s	s	10	4	SIC	408	ABS	0	2	02VD 02VO 02VC 02MD 02MO 02MC 10RD 02RO	0	1	1.59499597549	None	None	None	None	1
2.7	2015_May_21_1426	s	s	10	4	SIC	409	ABS	1	0	02VD 02VO 02VC 02MD 02MO 10MC 02RD 02RO	0	1	1.27058005333	None	None	None	None	1
2.7	2015_May_21_1426	s	s	10	4	SIC	410	ABS	1	2	02VD 02VO 02VC 10MD 02MO 02MC 02RD 02RO	0	1	1.28893303871	None	None	None	None	1
2.7	2015_May_21_1426	s	s	10	4	SIC	411	RC	2	2	09VD 02VO 02VC 02MD 02MO 02MC 02RD 02RO	1	0	1.17641401291	-210.0	-126.0	-208	-126	1
2.7	2015_May_21_1426	s	s	10	4	SIC	412	RC	0	2	02VD 02VO 02VC 02MD 02MO 02MC 09RD 02RO	0	1	3.19548010826	467.0	-319.0	None	None	0
2.7	2015_May_21_1426	s	s	10	4	SIC	413	RC	1	1	02VD 02VO 02VC 02MD 09MO 02MC 02RD 02RO	1	0	1.47077608109	424.0	-109.0	424	-113	1
2.7	2015_May_21_1426	s	s	10	4	SIC	414	ABS	2	0	02VD 02VO 10VC 02MD 02MO 02MC 02RD 02RO	0	1	1.2895860672	None	None	None	None	1
2.7	2015_May_21_1426	s	s	10	4	SIC	415	RC	2	1	02VD 09VO 02VC 02MD 02MO 02MC 02RD 02RO	1	0	1.06478190422	7.0	128.0	9	129	1
2.7	2015_May_21_1426	s	s	10	4	SIC	416	RC	0	1	02VD 02VO 02VC 02MD 02MO 02MC 02RD 09RO	1	0	2.53053689003	-253.0	321.0	-250	323	1
2.7	2015_May_21_1426	s	s	10	4	SIC	417	RC	2	1	02VD 09VO 02VC 02MD 02MO 02MC 02RD 02RO	1	0	1.54118704796	-98.0	-357.0	-92	-358	1
2.7	2015_May_21_1426	s	s	10	4	SIC	418	ABS	2	1	02VD 10VO 02VC 02MD 02MO 02MC 02RD 02RO	0	1	1.32123279572	None	None	None	None	1
2.7	2015_May_21_1426	s	s	10	4	SIC	419	RC	0	2	02VD 02VO 02VC 02MD 02MO 02MC 09RD 02RO	1	0	1.92974901199	-505.0	-342.0	-505	-346	1
2.7	2015_May_21_1426	s	s	10	4	SIC	420	ABS	2	2	10VD 02VO 02VC 02MD 02MO 02MC 02RD 02RO	0	1	2.16498303413	None	None	None	None	1
2.7	2015_May_21_1426	s	s	10	4	SIC	421	ABS	0	1	02VD 02VO 02VC 02MD 02MO 02MC 02RD 10RO	0	1	2.51518917084	None	None	None	None	1
2.7	2015_May_21_1426	s	s	10	4	SIC	422	ABS	0	2	02VD 02VO 02VC 02MD 02MO 02MC 10RD 02RO	0	1	2.25580120087	None	None	None	None	1
2.7	2015_May_21_1426	s	s	10	4	SIC	423	RC	1	0	02VD 02VO 02VC 02MD 02MO 09MC 02RD 02RO	1	0	2.51570105553	344.0	109.0	341	109	1
2.7	2015_May_21_1426	s	s	10	4	SIC	424	ABS	1	2	02VD 02VO 02VC 10MD 02MO 02MC 02RD 02RO	0	1	4.47207212448	None	None	None	None	1
2.7	2015_May_21_1426	s	s	10	4	SIC	425	ABS	2	0	02VD 02VO 10VC 02MD 02MO 02MC 02RD 02RO	0	1	1.03513598442	None	None	None	None	1
2.7	2015_May_21_1426	s	s	10	4	SIC	426	RC	2	2	09VD 02VO 02VC 02MD 02MO 02MC 02RD 02RO	1	0	0.794924020767	269.0	-117.0	268	-118	1
2.7	2015_May_21_1426	s	s	10	4	SIC	427	RC	0	1	02VD 02VO 02VC 02MD 02MO 02MC 02RD 09RO	1	0	0.952730894089	294.0	72.0	296	74	1
2.7	2015_May_21_1426	s	s	10	4	SIC	428	RC	1	2	02VD 02VO 02VC 09MD 02MO 02MC 02RD 02RO	1	0	2.9573071003	79.0	-285.0	78	-285	1
2.7	2015_May_21_1426	s	s	10	4	SIC	429	ABS	1	0	02VD 02VO 02VC 02MD 02MO 10MC 02RD 02RO	0	1	2.45669698715	None	None	None	None	1
2.7	2015_May_21_1426	s	s	10	4	SIC	430	RC	2	0	02VD 02VO 09VC 02MD 02MO 02MC 02RD 02RO	1	0	1.23263096809	-80.0	-111.0	-80	-113	1
2.7	2015_May_21_1426	s	s	10	4	SIC	431	RC	1	1	02VD 02VO 02VC 02MD 09MO 02MC 02RD 02RO	1	0	0.976315021515	253.0	18.0	255	17	1
2.7	2015_May_21_1426	s	s	10	4	SIC	432	ABS	1	1	02VD 02VO 02VC 02MD 10MO 02MC 02RD 02RO	0	1	1.7296500206	None	None	None	None	1
2.7	2015_May_21_1426	s	s	10	4	SIC	433	RC	1	2	02VD 02VO 02VC 09MD 02MO 02MC 02RD 02RO	0	1	1.05336380005	-384.0	-373.0	None	None	0
2.7	2015_May_21_1426	s	s	10	4	SIC	434	ABS	2	2	10VD 02VO 02VC 02MD 02MO 02MC 02RD 02RO	0	1	1.18222093582	None	None	None	None	1
2.7	2015_May_21_1426	s	s	10	4	SIC	435	ABS	1	0	02VD 02VO 02VC 02MD 02MO 10MC 02RD 02RO	0	1	1.16116094589	None	None	None	None	1
2.7	2015_May_21_1426	s	s	10	4	SIC	436	RC	2	2	09VD 02VO 02VC 02MD 02MO 02MC 02RD 02RO	1	0	1.21794700623	144.0	-168.0	154	-165	1
2.7	2015_May_21_1426	s	s	10	4	SIC	437	ABS	2	0	02VD 02VO 10VC 02MD 02MO 02MC 02RD 02RO	0	1	2.82436513901	None	None	None	None	1
2.7	2015_May_21_1426	s	s	10	4	SIC	438	RC	1	1	02VD 02VO 02VC 02MD 09MO 02MC 02RD 02RO	1	0	1.39723515511	477.0	178.0	471	180	1
2.7	2015_May_21_1426	s	s	10	4	SIC	439	ABS	0	2	02VD 02VO 02VC 02MD 02MO 02MC 10RD 02RO	0	1	1.22996211052	None	None	None	None	1
2.7	2015_May_21_1426	s	s	10	4	SIC	440	ABS	1	1	02VD 02VO 02VC 02MD 10MO 02MC 02RD 02RO	0	1	0.858648777008	None	None	None	None	1
2.7	2015_May_21_1426	s	s	10	4	SIC	441	RC	0	2	02VD 02VO 02VC 02MD 02MO 02MC 09RD 02RO	1	0	1.04345393181	440.0	-102.0	448	-103	1
2.7	2015_May_21_1426	s	s	10	4	SIC	442	RC	1	0	02VD 02VO 02VC 02MD 02MO 09MC 02RD 02RO	1	0	1.41852998734	-53.0	107.0	-56	97	1
2.7	2015_May_21_1426	s	s	10	4	SIC	443	ABS	1	2	02VD 02VO 02VC 10MD 02MO 02MC 02RD 02RO	0	1	1.14098095894	None	None	None	None	1
2.7	2015_May_21_1426	s	s	10	4	SIC	444	RC	0	1	02VD 02VO 02VC 02MD 02MO 02MC 02RD 09RO	0	1	2.13037490845	-376.0	117.0	None	None	0
2.7	2015_May_21_1426	s	s	10	4	SIC	445	RC	2	1	02VD 09VO 02VC 02MD 02MO 02MC 02RD 02RO	1	0	1.36477184296	437.0	-109.0	438	-110	1
2.7	2015_May_21_1426	s	s	10	4	SIC	446	ABS	2	1	02VD 10VO 02VC 02MD 02MO 02MC 02RD 02RO	0	1	1.37123608589	None	None	None	None	1
2.7	2015_May_21_1426	s	s	10	4	SIC	447	ABS	0	1	02VD 02VO 02VC 02MD 02MO 02MC 02RD 10RO	0	1	2.63062596321	None	None	None	None	1
2.7	2015_May_21_1426	s	s	10	4	SIC	448	RC	2	0	02VD 02VO 09VC 02MD 02MO 02MC 02RD 02RO	1	0	1.79764294624	-489.0	-195.0	-496	-192	1
2.7	2015_May_21_1426	s	s	10	4	SIC	449	RC	2	2	09VD 02VO 02VC 02MD 02MO 02MC 02RD 02RO	1	0	1.98298788071	-381.0	318.0	-386	313	1
2.7	2015_May_21_1426	s	s	10	4	SIC	450	RC	0	2	02VD 02VO 02VC 02MD 02MO 02MC 09RD 02RO	1	0	1.2536740303	370.0	-176.0	369	-168	1
2.7	2015_May_21_1426	s	s	10	4	SIC	451	ABS	2	1	02VD 10VO 02VC 02MD 02MO 02MC 02RD 02RO	0	1	1.67662405968	None	None	None	None	1
2.7	2015_May_21_1426	s	s	10	4	SIC	452	RC	0	1	02VD 02VO 02VC 02MD 02MO 02MC 02RD 09RO	1	0	2.73011207581	-449.0	110.0	-448	113	1
2.7	2015_May_21_1426	s	s	10	4	SIC	453	ABS	2	0	02VD 02VO 10VC 02MD 02MO 02MC 02RD 02RO	0	1	1.21544909477	None	None	None	None	1
2.7	2015_May_21_1426	s	s	10	4	SIC	454	ABS	0	1	02VD 02VO 02VC 02MD 02MO 02MC 02RD 10RO	0	1	1.77385115623	None	None	None	None	1
2.7	2015_May_21_1426	s	s	10	4	SIC	455	RC	2	1	02VD 09VO 02VC 02MD 02MO 02MC 02RD 02RO	1	0	0.941008090973	-99.0	-244.0	-91	-242	1
2.7	2015_May_21_1426	s	s	10	4	SIC	456	RC	1	1	02VD 02VO 02VC 02MD 09MO 02MC 02RD 02RO	1	0	1.57655882835	-482.0	176.0	-479	181	1
2.7	2015_May_21_1426	s	s	10	4	SIC	457	ABS	1	2	02VD 02VO 02VC 10MD 02MO 02MC 02RD 02RO	0	1	1.40686488152	None	None	None	None	1
2.7	2015_May_21_1426	s	s	10	4	SIC	458	RC	1	2	02VD 02VO 02VC 09MD 02MO 02MC 02RD 02RO	1	0	1.37390398979	-109.0	153.0	-114	152	1
2.7	2015_May_21_1426	s	s	10	4	SIC	459	ABS	2	2	10VD 02VO 02VC 02MD 02MO 02MC 02RD 02RO	0	1	1.1613779068	None	None	None	None	1
2.7	2015_May_21_1426	s	s	10	4	SIC	460	ABS	0	2	02VD 02VO 02VC 02MD 02MO 02MC 10RD 02RO	0	1	1.30089092255	None	None	None	None	1
2.7	2015_May_21_1426	s	s	10	4	SIC	461	RC	2	0	02VD 02VO 09VC 02MD 02MO 02MC 02RD 02RO	1	0	1.87081217766	304.0	80.0	306	81	1
2.7	2015_May_21_1426	s	s	10	4	SIC	462	ABS	1	0	02VD 02VO 02VC 02MD 02MO 10MC 02RD 02RO	0	1	5.01073479652	None	None	None	None	1
2.7	2015_May_21_1426	s	s	10	4	SIC	463	RC	1	0	02VD 02VO 02VC 02MD 02MO 09MC 02RD 02RO	0	1	1.36473298073	29.0	-353.0	None	None	0
2.7	2015_May_21_1426	s	s	10	4	SIC	464	ABS	1	1	02VD 02VO 02VC 02MD 10MO 02MC 02RD 02RO	0	1	1.58848214149	None	None	None	None	1
2.7	2015_May_21_1426	s	s	10	4	SIC	465	RC	2	1	02VD 09VO 02VC 02MD 02MO 02MC 02RD 02RO	1	0	1.36480712891	361.0	293.0	361	284	1
2.7	2015_May_21_1426	s	s	10	4	SIC	466	RC	2	2	09VD 02VO 02VC 02MD 02MO 02MC 02RD 02RO	0	1	0.858500003815	-452.0	-230.0	None	None	0
2.7	2015_May_21_1426	s	s	10	4	SIC	467	ABS	2	0	02VD 02VO 10VC 02MD 02MO 02MC 02RD 02RO	0	1	0.984441041946	None	None	None	None	1
2.7	2015_May_21_1426	s	s	10	4	SIC	468	RC	0	1	02VD 02VO 02VC 02MD 02MO 02MC 02RD 09RO	1	0	2.76544904709	256.0	-309.0	251	-311	1
2.7	2015_May_21_1426	s	s	10	4	SIC	469	RC	0	2	02VD 02VO 02VC 02MD 02MO 02MC 09RD 02RO	1	0	1.10274505615	174.0	372.0	170	366	1
2.7	2015_May_21_1426	s	s	10	4	SIC	470	RC	2	0	02VD 02VO 09VC 02MD 02MO 02MC 02RD 02RO	1	0	0.83501291275	445.0	220.0	445	216	1
2.7	2015_May_21_1426	s	s	10	4	SIC	471	ABS	0	1	02VD 02VO 02VC 02MD 02MO 02MC 02RD 10RO	0	1	3.23616099358	None	None	None	None	1
2.7	2015_May_21_1426	s	s	10	4	SIC	472	ABS	2	2	10VD 02VO 02VC 02MD 02MO 02MC 02RD 02RO	0	1	2.25949406624	None	None	None	None	1
2.7	2015_May_21_1426	s	s	10	4	SIC	473	ABS	1	2	02VD 02VO 02VC 10MD 02MO 02MC 02RD 02RO	0	1	1.62373709679	None	None	None	None	1
2.7	2015_May_21_1426	s	s	10	4	SIC	474	ABS	2	1	02VD 10VO 02VC 02MD 02MO 02MC 02RD 02RO	0	1	1.62004494667	None	None	None	None	1
2.7	2015_May_21_1426	s	s	10	4	SIC	475	ABS	0	2	02VD 02VO 02VC 02MD 02MO 02MC 10RD 02RO	0	1	1.60023593903	None	None	None	None	1
2.7	2015_May_21_1426	s	s	10	4	SIC	476	ABS	1	0	02VD 02VO 02VC 02MD 02MO 10MC 02RD 02RO	0	1	2.65497398376	None	None	None	None	1
2.7	2015_May_21_1426	s	s	10	4	SIC	477	RC	1	2	02VD 02VO 02VC 09MD 02MO 02MC 02RD 02RO	1	0	1.15281200409	163.0	-172.0	154	-169	1
2.7	2015_May_21_1426	s	s	10	4	SIC	478	ABS	1	1	02VD 02VO 02VC 02MD 10MO 02MC 02RD 02RO	0	1	1.84465312958	None	None	None	None	1
2.7	2015_May_21_1426	s	s	10	4	SIC	479	RC	1	1	02VD 02VO 02VC 02MD 09MO 02MC 02RD 02RO	1	0	1.10584497452	345.0	-32.0	339	-32	1
2.7	2015_May_21_1426	s	s	10	4	SIC	480	RC	1	0	02VD 02VO 02VC 02MD 02MO 09MC 02RD 02RO	1	0	0.893831968307	103.0	17.0	94	19	1
