Version	Date	Stimuli	Method	Subject	Session	Condition	Trial	Target	Channel1	Channel2	Distractors	LMouseButton	RMouseButton	RT	TargetX	TargetY	ResponseX	ResponseY	Correct
2.7	2015_May_20_1428	s	s	10	3	Capacity	1	ABS	1	0	08VC 16MC	0	1	1.42361903191	None	None	None	None	1
2.7	2015_May_20_1428	s	s	10	3	Capacity	2	RC	1	0	08VC 15MC	1	0	2.6571059227	118.0	408.0	110	405	1
2.7	2015_May_20_1428	s	s	10	3	Capacity	3	RC	2	0	15VC 08MC	1	0	2.66868400574	25.0	145.0	23	145	1
2.7	2015_May_20_1428	s	s	10	3	Capacity	4	ABS	2	0	16VC 08MC	0	1	5.4844648838	None	None	None	None	1
2.7	2015_May_20_1428	s	s	10	3	Capacity	5	RC	2	0	15VC 08MC	1	0	5.47318601608	-506.0	-260.0	-498	-264	1
2.7	2015_May_20_1428	s	s	10	3	Capacity	6	ABS	2	0	16VC 08MC	0	1	4.22508716583	None	None	None	None	1
2.7	2015_May_20_1428	s	s	10	3	Capacity	7	RC	1	0	08VC 15MC	1	0	3.47840809822	191.0	-2.0	191	-6	1
2.7	2015_May_20_1428	s	s	10	3	Capacity	8	ABS	1	0	08VC 16MC	0	1	8.82732892036	None	None	None	None	1
2.7	2015_May_20_1428	s	s	10	3	Capacity	9	ABS	2	0	16VC 08MC	0	1	9.16270112991	None	None	None	None	1
2.7	2015_May_20_1428	s	s	10	3	Capacity	10	ABS	1	0	08VC 16MC	0	1	8.24722099304	None	None	None	None	1
2.7	2015_May_20_1428	s	s	10	3	Capacity	11	RC	1	0	08VC 15MC	1	0	2.15341901779	88.0	161.0	83	165	1
2.7	2015_May_20_1428	s	s	10	3	Capacity	12	RC	2	0	15VC 08MC	1	0	5.61076116562	308.0	217.0	307	212	1
2.7	2015_May_20_1428	s	s	10	3	Capacity	13	RC	1	0	08VC 15MC	1	0	1.98485803604	456.0	-278.0	460	-286	1
2.7	2015_May_20_1428	s	s	10	3	Capacity	14	ABS	1	0	08VC 16MC	0	1	2.08955001831	None	None	None	None	1
2.7	2015_May_20_1428	s	s	10	3	Capacity	15	ABS	2	0	16VC 08MC	0	1	2.28897213936	None	None	None	None	1
2.7	2015_May_20_1428	s	s	10	3	Capacity	16	RC	2	0	15VC 08MC	1	0	2.30242586136	244.0	-207.0	247	-200	1
2.7	2015_May_20_1428	s	s	10	3	Capacity	17	ABS	2	0	16VC 08MC	0	1	1.0190141201	None	None	None	None	1
2.7	2015_May_20_1428	s	s	10	3	Capacity	18	RC	2	0	15VC 08MC	1	0	1.5858669281	-371.0	338.0	-370	337	1
2.7	2015_May_20_1428	s	s	10	3	Capacity	19	RC	1	0	08VC 15MC	1	0	1.14112901688	305.0	-118.0	314	-117	1
2.7	2015_May_20_1428	s	s	10	3	Capacity	20	ABS	1	0	08VC 16MC	0	1	1.84257507324	None	None	None	None	1
2.7	2015_May_20_1428	s	s	10	3	Capacity	21	RC	1	0	08VC 15MC	1	0	2.32543110847	173.0	-172.0	179	-167	1
2.7	2015_May_20_1428	s	s	10	3	Capacity	22	RC	2	0	15VC 08MC	1	0	1.72955083847	-250.0	-386.0	-246	-379	1
2.7	2015_May_20_1428	s	s	10	3	Capacity	23	ABS	1	0	08VC 16MC	0	1	6.15544891357	None	None	None	None	1
2.7	2015_May_20_1428	s	s	10	3	Capacity	24	ABS	2	0	16VC 08MC	0	1	1.19418215752	None	None	None	None	1
2.7	2015_May_20_1428	s	s	10	3	Capacity	25	ABS	2	0	16VC 08MC	0	1	1.85104084015	None	None	None	None	1
2.7	2015_May_20_1428	s	s	10	3	Capacity	26	ABS	1	0	08VC 16MC	0	1	1.31469297409	None	None	None	None	1
2.7	2015_May_20_1428	s	s	10	3	Capacity	27	RC	2	0	15VC 08MC	1	0	1.23276805878	-75.0	-224.0	-75	-230	1
2.7	2015_May_20_1428	s	s	10	3	Capacity	28	RC	1	0	08VC 15MC	1	0	1.04150700569	-214.0	277.0	-211	273	1
2.7	2015_May_20_1428	s	s	10	3	Capacity	29	ABS	2	0	16VC 08MC	0	1	2.01639604568	None	None	None	None	1
2.7	2015_May_20_1428	s	s	10	3	Capacity	30	RC	2	0	15VC 08MC	1	0	1.20912003517	-67.0	-310.0	-68	-313	1
2.7	2015_May_20_1428	s	s	10	3	Capacity	31	RC	1	0	08VC 15MC	1	0	1.30594491959	175.0	-81.0	169	-80	1
2.7	2015_May_20_1428	s	s	10	3	Capacity	32	ABS	1	0	08VC 16MC	0	1	3.27151703835	None	None	None	None	1
2.7	2015_May_20_1428	s	s	10	3	Capacity	33	ABS	1	0	08VC 16MC	0	1	1.44731402397	None	None	None	None	1
2.7	2015_May_20_1428	s	s	10	3	Capacity	34	ABS	2	0	16VC 08MC	0	1	0.936383962631	None	None	None	None	1
2.7	2015_May_20_1428	s	s	10	3	Capacity	35	RC	1	0	08VC 15MC	0	1	1.36474514008	-318.0	-158.0	None	None	0
2.7	2015_May_20_1428	s	s	10	3	Capacity	36	RC	2	0	15VC 08MC	0	1	1.58572506905	-195.0	-335.0	None	None	0
2.7	2015_May_20_1428	s	s	10	3	Capacity	37	RC	1	0	08VC 15MC	1	0	0.976360797882	-306.0	17.0	-301	17	1
2.7	2015_May_20_1428	s	s	10	3	Capacity	38	ABS	2	0	16VC 08MC	0	1	1.80037593842	None	None	None	None	1
2.7	2015_May_20_1428	s	s	10	3	Capacity	39	RC	2	0	15VC 08MC	1	0	2.67168593407	159.0	-304.0	158	-306	1
2.7	2015_May_20_1428	s	s	10	3	Capacity	40	ABS	1	0	08VC 16MC	0	1	1.57662916183	None	None	None	None	1
2.7	2015_May_20_1428	s	s	10	3	Capacity	41	RC	2	0	15VC 08MC	1	0	2.35099291801	-63.0	-182.0	-60	-184	1
2.7	2015_May_20_1428	s	s	10	3	Capacity	42	ABS	1	0	08VC 16MC	0	1	1.71783399582	None	None	None	None	1
2.7	2015_May_20_1428	s	s	10	3	Capacity	43	ABS	2	0	16VC 08MC	0	1	1.22062110901	None	None	None	None	1
2.7	2015_May_20_1428	s	s	10	3	Capacity	44	RC	1	0	08VC 15MC	1	0	0.940840005875	138.0	-126.0	136	-129	1
2.7	2015_May_20_1428	s	s	10	3	Capacity	45	RC	2	0	15VC 08MC	1	0	1.2000451088	16.0	-189.0	19	-185	1
2.7	2015_May_20_1428	s	s	10	3	Capacity	46	RC	1	0	08VC 15MC	1	0	0.964647054672	2.0	-234.0	2	-234	1
2.7	2015_May_20_1428	s	s	10	3	Capacity	47	ABS	1	0	08VC 16MC	0	1	2.36212801933	None	None	None	None	1
2.7	2015_May_20_1428	s	s	10	3	Capacity	48	ABS	2	0	16VC 08MC	0	1	2.17686796188	None	None	None	None	1
2.7	2015_May_20_1428	s	s	10	3	Capacity	49	RC	1	0	08VC 15MC	0	1	1.51289200783	529.0	-160.0	None	None	0
2.7	2015_May_20_1428	s	s	10	3	Capacity	50	ABS	2	0	16VC 08MC	0	1	1.37652611732	None	None	None	None	1
2.7	2015_May_20_1428	s	s	10	3	Capacity	51	ABS	1	0	08VC 16MC	0	1	1.4893591404	None	None	None	None	1
2.7	2015_May_20_1428	s	s	10	3	Capacity	52	RC	2	0	15VC 08MC	1	0	0.914909124374	-419.0	-147.0	-425	-143	1
2.7	2015_May_20_1428	s	s	10	3	Capacity	53	RC	2	0	15VC 08MC	1	0	0.982631921768	-123.0	334.0	-123	325	1
2.7	2015_May_20_1428	s	s	10	3	Capacity	54	RC	1	0	08VC 15MC	0	1	2.19592499733	527.0	-234.0	None	None	0
2.7	2015_May_20_1428	s	s	10	3	Capacity	55	ABS	2	0	16VC 08MC	0	1	3.2328441143	None	None	None	None	1
2.7	2015_May_20_1428	s	s	10	3	Capacity	56	ABS	1	0	08VC 16MC	0	1	2.79685211182	None	None	None	None	1
2.7	2015_May_20_1428	s	s	10	3	Capacity	57	RC	2	0	15VC 08MC	1	0	2.96151804924	363.0	296.0	357	287	1
2.7	2015_May_20_1428	s	s	10	3	Capacity	58	RC	1	0	08VC 15MC	1	0	2.47929000854	-132.0	85.0	-129	86	1
2.7	2015_May_20_1428	s	s	10	3	Capacity	59	ABS	1	0	08VC 16MC	0	1	4.27214503288	None	None	None	None	1
2.7	2015_May_20_1428	s	s	10	3	Capacity	60	ABS	2	0	16VC 08MC	0	1	4.06024503708	None	None	None	None	1
2.7	2015_May_20_1428	s	s	10	3	Capacity	61	ABS	1	0	08VC 16MC	0	1	2.04739189148	None	None	None	None	1
2.7	2015_May_20_1428	s	s	10	3	Capacity	62	RC	1	0	08VC 15MC	1	0	1.01178622246	-457.0	153.0	-448	158	1
2.7	2015_May_20_1428	s	s	10	3	Capacity	63	RC	2	0	15VC 08MC	1	0	0.876569032669	-318.0	228.0	-318	222	1
2.7	2015_May_20_1428	s	s	10	3	Capacity	64	ABS	2	0	16VC 08MC	1	0	1.27759695053	None	None	-24	139	0
2.7	2015_May_20_1428	s	s	10	3	Capacity	1	RC	0	1	08RD 15RO	1	0	2.03325605392	-129.0	272.0	-127	277	1
2.7	2015_May_20_1428	s	s	10	3	Capacity	2	ABS	0	1	08RD 16RO	0	1	3.48345899582	None	None	None	None	1
2.7	2015_May_20_1428	s	s	10	3	Capacity	3	RC	0	2	15RD 08RO	1	0	1.53477811813	327.0	82.0	333	73	1
2.7	2015_May_20_1428	s	s	10	3	Capacity	4	ABS	0	2	16RD 08RO	0	1	1.63222312927	None	None	None	None	1
2.7	2015_May_20_1428	s	s	10	3	Capacity	5	RC	0	2	15RD 08RO	1	0	1.76002287865	-76.0	325.0	-78	320	1
2.7	2015_May_20_1428	s	s	10	3	Capacity	6	ABS	0	2	16RD 08RO	0	1	4.84282612801	None	None	None	None	1
2.7	2015_May_20_1428	s	s	10	3	Capacity	7	ABS	0	1	08RD 16RO	0	1	4.77259397507	None	None	None	None	1
2.7	2015_May_20_1428	s	s	10	3	Capacity	8	RC	0	1	08RD 15RO	1	0	2.73943090439	-168.0	274.0	-169	273	1
2.7	2015_May_20_1428	s	s	10	3	Capacity	9	RC	0	2	15RD 08RO	0	1	6.50622296333	-285.0	371.0	None	None	0
2.7	2015_May_20_1428	s	s	10	3	Capacity	10	RC	0	1	08RD 15RO	1	0	1.71526098251	-196.0	359.0	-191	359	1
2.7	2015_May_20_1428	s	s	10	3	Capacity	11	ABS	0	1	08RD 16RO	0	1	3.82490301132	None	None	None	None	1
2.7	2015_May_20_1428	s	s	10	3	Capacity	12	ABS	0	2	16RD 08RO	0	1	1.81238889694	None	None	None	None	1
2.7	2015_May_20_1428	s	s	10	3	Capacity	13	ABS	0	1	08RD 16RO	0	1	2.40059685707	None	None	None	None	1
2.7	2015_May_20_1428	s	s	10	3	Capacity	14	RC	0	1	08RD 15RO	1	0	1.19985604286	-85.0	-225.0	-79	-224	1
2.7	2015_May_20_1428	s	s	10	3	Capacity	15	RC	0	2	15RD 08RO	1	0	0.853635072708	-24.0	99.0	-16	95	1
2.7	2015_May_20_1428	s	s	10	3	Capacity	16	ABS	0	2	16RD 08RO	0	1	2.40056920052	None	None	None	None	1
2.7	2015_May_20_1428	s	s	10	3	Capacity	17	RC	0	2	15RD 08RO	0	1	2.08967590332	-402.0	72.0	None	None	0
2.7	2015_May_20_1428	s	s	10	3	Capacity	18	ABS	0	2	16RD 08RO	0	1	2.38302993774	None	None	None	None	1
2.7	2015_May_20_1428	s	s	10	3	Capacity	19	RC	0	1	08RD 15RO	1	0	5.4813439846	-43.0	254.0	-34	255	1
2.7	2015_May_20_1428	s	s	10	3	Capacity	20	ABS	0	1	08RD 16RO	0	1	4.58991789818	None	None	None	None	1
2.7	2015_May_20_1428	s	s	10	3	Capacity	21	ABS	0	1	08RD 16RO	0	1	4.6810760498	None	None	None	None	1
2.7	2015_May_20_1428	s	s	10	3	Capacity	22	RC	0	1	08RD 15RO	1	0	3.68963098526	474.0	56.0	477	55	1
2.7	2015_May_20_1428	s	s	10	3	Capacity	23	RC	0	2	15RD 08RO	1	0	1.31773495674	526.0	-379.0	534	-375	1
2.7	2015_May_20_1428	s	s	10	3	Capacity	24	ABS	0	2	16RD 08RO	0	1	3.06698298454	None	None	None	None	1
2.7	2015_May_20_1428	s	s	10	3	Capacity	25	ABS	0	1	08RD 16RO	0	1	3.34229397774	None	None	None	None	1
2.7	2015_May_20_1428	s	s	10	3	Capacity	26	RC	0	1	08RD 15RO	0	1	4.07878088951	-470.0	-118.0	None	None	0
2.7	2015_May_20_1428	s	s	10	3	Capacity	27	ABS	0	2	16RD 08RO	0	1	1.985891819	None	None	None	None	1
2.7	2015_May_20_1428	s	s	10	3	Capacity	28	RC	0	2	15RD 08RO	1	0	2.39753389359	-266.0	-174.0	-263	-174	1
2.7	2015_May_20_1428	s	s	10	3	Capacity	29	RC	0	1	08RD 15RO	1	0	3.83661198616	-268.0	123.0	-263	122	1
2.7	2015_May_20_1428	s	s	10	3	Capacity	30	RC	0	2	15RD 08RO	1	0	2.25930595398	-229.0	-110.0	-231	-110	1
2.7	2015_May_20_1428	s	s	10	3	Capacity	31	ABS	0	2	16RD 08RO	0	1	6.81443810463	None	None	None	None	1
2.7	2015_May_20_1428	s	s	10	3	Capacity	32	ABS	0	1	08RD 16RO	0	1	5.85679101944	None	None	None	None	1
2.7	2015_May_20_1428	s	s	10	3	Capacity	33	ABS	0	1	08RD 16RO	0	1	3.74247002602	None	None	None	None	1
2.7	2015_May_20_1428	s	s	10	3	Capacity	34	ABS	0	2	16RD 08RO	0	1	4.24325609207	None	None	None	None	1
2.7	2015_May_20_1428	s	s	10	3	Capacity	35	RC	0	1	08RD 15RO	0	1	7.32738614082	157.0	124.0	None	None	0
2.7	2015_May_20_1428	s	s	10	3	Capacity	36	RC	0	2	15RD 08RO	1	0	1.23216509819	481.0	-16.0	480	-15	1
2.7	2015_May_20_1428	s	s	10	3	Capacity	37	RC	0	1	08RD 15RO	1	0	4.301623106	-448.0	-119.0	-445	-116	1
2.7	2015_May_20_1428	s	s	10	3	Capacity	38	ABS	0	2	16RD 08RO	0	1	2.93707704544	None	None	None	None	1
2.7	2015_May_20_1428	s	s	10	3	Capacity	39	ABS	0	1	08RD 16RO	0	1	2.96065998077	None	None	None	None	1
2.7	2015_May_20_1428	s	s	10	3	Capacity	40	RC	0	2	15RD 08RO	1	0	1.4118578434	484.0	95.0	485	92	1
2.7	2015_May_20_1428	s	s	10	3	Capacity	41	ABS	0	2	16RD 08RO	0	1	2.72626399994	None	None	None	None	1
2.7	2015_May_20_1428	s	s	10	3	Capacity	42	ABS	0	1	08RD 16RO	0	1	7.05910682678	None	None	None	None	1
2.7	2015_May_20_1428	s	s	10	3	Capacity	43	RC	0	2	15RD 08RO	1	0	0.905720949173	-146.0	-23.0	-152	-23	1
2.7	2015_May_20_1428	s	s	10	3	Capacity	44	RC	0	1	08RD 15RO	1	0	2.17324399948	-220.0	337.0	-219	340	1
2.7	2015_May_20_1428	s	s	10	3	Capacity	45	RC	0	1	08RD 15RO	0	1	2.75118589401	-464.0	275.0	None	None	0
2.7	2015_May_20_1428	s	s	10	3	Capacity	46	ABS	0	2	16RD 08RO	0	1	1.34789204597	None	None	None	None	1
2.7	2015_May_20_1428	s	s	10	3	Capacity	47	RC	0	2	15RD 08RO	1	0	1.01165294647	159.0	-237.0	154	-242	1
2.7	2015_May_20_1428	s	s	10	3	Capacity	48	ABS	0	1	08RD 16RO	0	1	2.07108306885	None	None	None	None	1
2.7	2015_May_20_1428	s	s	10	3	Capacity	49	ABS	0	1	08RD 16RO	0	1	2.70235204697	None	None	None	None	1
2.7	2015_May_20_1428	s	s	10	3	Capacity	50	RC	0	2	15RD 08RO	1	0	2.34903407097	112.0	-256.0	113	-261	1
2.7	2015_May_20_1428	s	s	10	3	Capacity	51	RC	0	1	08RD 15RO	0	1	3.07772493362	-258.0	263.0	None	None	0
2.7	2015_May_20_1428	s	s	10	3	Capacity	52	ABS	0	2	16RD 08RO	0	1	2.6785531044	None	None	None	None	1
2.7	2015_May_20_1428	s	s	10	3	Capacity	53	ABS	0	1	08RD 16RO	0	1	3.15089201927	None	None	None	None	1
2.7	2015_May_20_1428	s	s	10	3	Capacity	54	RC	0	2	15RD 08RO	1	0	2.74800801277	353.0	-375.0	358	-376	1
2.7	2015_May_20_1428	s	s	10	3	Capacity	55	ABS	0	2	16RD 08RO	0	1	4.13111591339	None	None	None	None	1
2.7	2015_May_20_1428	s	s	10	3	Capacity	56	RC	0	1	08RD 15RO	0	1	3.08332800865	-441.0	383.0	None	None	0
2.7	2015_May_20_1428	s	s	10	3	Capacity	57	RC	0	1	08RD 15RO	0	1	2.90667414665	-90.0	41.0	None	None	0
2.7	2015_May_20_1428	s	s	10	3	Capacity	58	RC	0	2	15RD 08RO	1	0	3.10142707825	171.0	227.0	172	225	1
2.7	2015_May_20_1428	s	s	10	3	Capacity	59	ABS	0	2	16RD 08RO	0	1	6.74405097961	None	None	None	None	1
2.7	2015_May_20_1428	s	s	10	3	Capacity	60	ABS	0	1	08RD 16RO	0	1	3.39628481865	None	None	None	None	1
2.7	2015_May_20_1428	s	s	10	3	Capacity	61	ABS	0	2	16RD 08RO	0	1	1.82384490967	None	None	None	None	1
2.7	2015_May_20_1428	s	s	10	3	Capacity	62	ABS	0	1	08RD 16RO	0	1	1.78850102425	None	None	None	None	1
2.7	2015_May_20_1428	s	s	10	3	Capacity	63	RC	0	2	15RD 08RO	1	0	1.40395379066	227.0	397.0	226	399	1
2.7	2015_May_20_1428	s	s	10	3	Capacity	64	RC	0	1	08RD 15RO	1	0	2.0597410202	-339.0	-79.0	-333	-83	1
2.7	2015_May_20_1428	s	s	10	3	SIC	1	ABS	0	1	02VD 02VO 02VC 02MD 02MO 02MC 02RD 10RO	0	1	4.0484380722	None	None	None	None	1
2.7	2015_May_20_1428	s	s	10	3	SIC	2	RC	2	0	02VD 02VO 09VC 02MD 02MO 02MC 02RD 02RO	1	0	1.7036011219	346.0	-95.0	346	-90	1
2.7	2015_May_20_1428	s	s	10	3	SIC	3	ABS	2	2	10VD 02VO 02VC 02MD 02MO 02MC 02RD 02RO	1	0	0.72912311554	None	None	32	-24	0
2.7	2015_May_20_1428	s	s	10	3	SIC	4	RC	2	2	09VD 02VO 02VC 02MD 02MO 02MC 02RD 02RO	1	0	1.21847081184	-87.0	61.0	-87	58	1
2.7	2015_May_20_1428	s	s	10	3	SIC	5	RC	0	2	02VD 02VO 02VC 02MD 02MO 02MC 09RD 02RO	1	0	2.52209591866	-492.0	70.0	-494	73	1
2.7	2015_May_20_1428	s	s	10	3	SIC	6	RC	1	1	02VD 02VO 02VC 02MD 09MO 02MC 02RD 02RO	1	0	3.29249191284	500.0	59.0	503	56	1
2.7	2015_May_20_1428	s	s	10	3	SIC	7	ABS	1	1	02VD 02VO 02VC 02MD 10MO 02MC 02RD 02RO	0	1	8.30414891243	None	None	None	None	1
2.7	2015_May_20_1428	s	s	10	3	SIC	8	RC	0	1	02VD 02VO 02VC 02MD 02MO 02MC 02RD 09RO	1	0	3.22446084023	68.0	272.0	70	267	1
2.7	2015_May_20_1428	s	s	10	3	SIC	9	ABS	0	2	02VD 02VO 02VC 02MD 02MO 02MC 10RD 02RO	0	1	3.27844905853	None	None	None	None	1
2.7	2015_May_20_1428	s	s	10	3	SIC	10	RC	1	0	02VD 02VO 02VC 02MD 02MO 09MC 02RD 02RO	1	0	1.27064585686	-13.0	383.0	-14	378	1
2.7	2015_May_20_1428	s	s	10	3	SIC	11	ABS	1	0	02VD 02VO 02VC 02MD 02MO 10MC 02RD 02RO	0	1	2.68312382698	None	None	None	None	1
2.7	2015_May_20_1428	s	s	10	3	SIC	12	RC	1	2	02VD 02VO 02VC 09MD 02MO 02MC 02RD 02RO	1	0	2.27882409096	-263.0	302.0	-264	303	1
2.7	2015_May_20_1428	s	s	10	3	SIC	13	ABS	1	2	02VD 02VO 02VC 10MD 02MO 02MC 02RD 02RO	0	1	2.35714888573	None	None	None	None	1
2.7	2015_May_20_1428	s	s	10	3	SIC	14	ABS	2	0	02VD 02VO 10VC 02MD 02MO 02MC 02RD 02RO	0	1	1.25881910324	None	None	None	None	1
2.7	2015_May_20_1428	s	s	10	3	SIC	15	RC	2	1	02VD 09VO 02VC 02MD 02MO 02MC 02RD 02RO	1	0	1.35925102234	-415.0	73.0	-414	71	1
2.7	2015_May_20_1428	s	s	10	3	SIC	16	ABS	2	1	02VD 10VO 02VC 02MD 02MO 02MC 02RD 02RO	0	1	2.08264112473	None	None	None	None	1
2.7	2015_May_20_1428	s	s	10	3	SIC	17	RC	1	2	02VD 02VO 02VC 09MD 02MO 02MC 02RD 02RO	1	0	1.14481902122	369.0	-144.0	372	-145	1
2.7	2015_May_20_1428	s	s	10	3	SIC	18	RC	0	2	02VD 02VO 02VC 02MD 02MO 02MC 09RD 02RO	0	1	13.0740098953	403.0	-197.0	None	None	0
2.7	2015_May_20_1428	s	s	10	3	SIC	19	RC	2	0	02VD 02VO 09VC 02MD 02MO 02MC 02RD 02RO	1	0	1.35080099106	432.0	-192.0	443	-183	1
2.7	2015_May_20_1428	s	s	10	3	SIC	20	ABS	1	0	02VD 02VO 02VC 02MD 02MO 10MC 02RD 02RO	0	1	2.53928208351	None	None	None	None	1
2.7	2015_May_20_1428	s	s	10	3	SIC	21	RC	0	1	02VD 02VO 02VC 02MD 02MO 02MC 02RD 09RO	1	0	1.28234314919	-67.0	168.0	-67	165	1
2.7	2015_May_20_1428	s	s	10	3	SIC	22	ABS	2	2	10VD 02VO 02VC 02MD 02MO 02MC 02RD 02RO	0	1	2.79540610313	None	None	None	None	1
2.7	2015_May_20_1428	s	s	10	3	SIC	23	RC	2	1	02VD 09VO 02VC 02MD 02MO 02MC 02RD 02RO	1	0	2.07811903954	-417.0	-157.0	-413	-159	1
2.7	2015_May_20_1428	s	s	10	3	SIC	24	RC	2	2	09VD 02VO 02VC 02MD 02MO 02MC 02RD 02RO	1	0	2.18872094154	73.0	-301.0	75	-301	1
2.7	2015_May_20_1428	s	s	10	3	SIC	25	ABS	1	2	02VD 02VO 02VC 10MD 02MO 02MC 02RD 02RO	0	1	2.80905604362	None	None	None	None	1
2.7	2015_May_20_1428	s	s	10	3	SIC	26	RC	1	0	02VD 02VO 02VC 02MD 02MO 09MC 02RD 02RO	1	0	1.07043099403	159.0	-142.0	157	-137	1
2.7	2015_May_20_1428	s	s	10	3	SIC	27	RC	1	1	02VD 02VO 02VC 02MD 09MO 02MC 02RD 02RO	1	0	1.18819594383	352.0	-335.0	353	-332	1
2.7	2015_May_20_1428	s	s	10	3	SIC	28	ABS	1	1	02VD 02VO 02VC 02MD 10MO 02MC 02RD 02RO	0	1	2.64440798759	None	None	None	None	1
2.7	2015_May_20_1428	s	s	10	3	SIC	29	ABS	2	1	02VD 10VO 02VC 02MD 02MO 02MC 02RD 02RO	0	1	1.97699999809	None	None	None	None	1
2.7	2015_May_20_1428	s	s	10	3	SIC	30	ABS	0	2	02VD 02VO 02VC 02MD 02MO 02MC 10RD 02RO	0	1	2.69216489792	None	None	None	None	1
2.7	2015_May_20_1428	s	s	10	3	SIC	31	ABS	0	1	02VD 02VO 02VC 02MD 02MO 02MC 02RD 10RO	0	1	4.72876405716	None	None	None	None	1
2.7	2015_May_20_1428	s	s	10	3	SIC	32	ABS	2	0	02VD 02VO 10VC 02MD 02MO 02MC 02RD 02RO	0	1	4.04854393005	None	None	None	None	1
2.7	2015_May_20_1428	s	s	10	3	SIC	33	RC	1	0	02VD 02VO 02VC 02MD 02MO 09MC 02RD 02RO	1	0	1.18325304985	459.0	-61.0	463	-58	1
2.7	2015_May_20_1428	s	s	10	3	SIC	34	ABS	1	2	02VD 02VO 02VC 10MD 02MO 02MC 02RD 02RO	0	1	1.99529099464	None	None	None	None	1
2.7	2015_May_20_1428	s	s	10	3	SIC	35	RC	2	0	02VD 02VO 09VC 02MD 02MO 02MC 02RD 02RO	1	0	2.50651788712	-160.0	-245.0	-168	-241	1
2.7	2015_May_20_1428	s	s	10	3	SIC	36	ABS	2	2	10VD 02VO 02VC 02MD 02MO 02MC 02RD 02RO	0	1	1.61572480202	None	None	None	None	1
2.7	2015_May_20_1428	s	s	10	3	SIC	37	RC	1	2	02VD 02VO 02VC 09MD 02MO 02MC 02RD 02RO	1	0	3.60893511772	286.0	56.0	280	62	1
2.7	2015_May_20_1428	s	s	10	3	SIC	38	ABS	1	0	02VD 02VO 02VC 02MD 02MO 10MC 02RD 02RO	0	1	1.44708514214	None	None	None	None	1
2.7	2015_May_20_1428	s	s	10	3	SIC	39	RC	2	1	02VD 09VO 02VC 02MD 02MO 02MC 02RD 02RO	1	0	1.01160907745	241.0	388.0	238	381	1
2.7	2015_May_20_1428	s	s	10	3	SIC	40	ABS	2	1	02VD 10VO 02VC 02MD 02MO 02MC 02RD 02RO	0	1	1.46724009514	None	None	None	None	1
2.7	2015_May_20_1428	s	s	10	3	SIC	41	ABS	1	1	02VD 02VO 02VC 02MD 10MO 02MC 02RD 02RO	0	1	2.17696714401	None	None	None	None	1
2.7	2015_May_20_1428	s	s	10	3	SIC	42	ABS	2	0	02VD 02VO 10VC 02MD 02MO 02MC 02RD 02RO	0	1	1.51217412949	None	None	None	None	1
2.7	2015_May_20_1428	s	s	10	3	SIC	43	ABS	0	1	02VD 02VO 02VC 02MD 02MO 02MC 02RD 10RO	0	1	2.70447683334	None	None	None	None	1
2.7	2015_May_20_1428	s	s	10	3	SIC	44	ABS	0	2	02VD 02VO 02VC 02MD 02MO 02MC 10RD 02RO	0	1	2.44769787788	None	None	None	None	1
2.7	2015_May_20_1428	s	s	10	3	SIC	45	RC	1	1	02VD 02VO 02VC 02MD 09MO 02MC 02RD 02RO	0	1	1.05873513222	-526.0	-341.0	None	None	0
2.7	2015_May_20_1428	s	s	10	3	SIC	46	RC	0	1	02VD 02VO 02VC 02MD 02MO 02MC 02RD 09RO	0	1	2.13892197609	336.0	-384.0	None	None	0
2.7	2015_May_20_1428	s	s	10	3	SIC	47	RC	2	2	09VD 02VO 02VC 02MD 02MO 02MC 02RD 02RO	1	0	1.44256901741	443.0	286.0	442	282	1
2.7	2015_May_20_1428	s	s	10	3	SIC	48	RC	0	2	02VD 02VO 02VC 02MD 02MO 02MC 09RD 02RO	1	0	2.45651817322	403.0	-350.0	401	-353	1
2.7	2015_May_20_1428	s	s	10	3	SIC	49	ABS	1	2	02VD 02VO 02VC 10MD 02MO 02MC 02RD 02RO	0	1	1.84763598442	None	None	None	None	1
2.7	2015_May_20_1428	s	s	10	3	SIC	50	ABS	1	0	02VD 02VO 02VC 02MD 02MO 10MC 02RD 02RO	0	1	2.90683293343	None	None	None	None	1
2.7	2015_May_20_1428	s	s	10	3	SIC	51	RC	1	2	02VD 02VO 02VC 09MD 02MO 02MC 02RD 02RO	0	1	5.33522891998	-521.0	-392.0	None	None	0
2.7	2015_May_20_1428	s	s	10	3	SIC	52	ABS	1	1	02VD 02VO 02VC 02MD 10MO 02MC 02RD 02RO	0	1	2.24192786217	None	None	None	None	1
2.7	2015_May_20_1428	s	s	10	3	SIC	53	RC	2	2	09VD 02VO 02VC 02MD 02MO 02MC 02RD 02RO	1	0	2.60991191864	-372.0	-404.0	-374	-404	1
2.7	2015_May_20_1428	s	s	10	3	SIC	54	ABS	2	1	02VD 10VO 02VC 02MD 02MO 02MC 02RD 02RO	0	1	3.11849284172	None	None	None	None	1
2.7	2015_May_20_1428	s	s	10	3	SIC	55	RC	0	2	02VD 02VO 02VC 02MD 02MO 02MC 09RD 02RO	1	0	1.48284101486	217.0	377.0	215	381	1
2.7	2015_May_20_1428	s	s	10	3	SIC	56	ABS	0	2	02VD 02VO 02VC 02MD 02MO 02MC 10RD 02RO	0	1	4.24223303795	None	None	None	None	1
2.7	2015_May_20_1428	s	s	10	3	SIC	57	ABS	2	2	10VD 02VO 02VC 02MD 02MO 02MC 02RD 02RO	0	1	1.61902880669	None	None	None	None	1
2.7	2015_May_20_1428	s	s	10	3	SIC	58	RC	1	0	02VD 02VO 02VC 02MD 02MO 09MC 02RD 02RO	0	1	2.11826181412	-535.0	-187.0	None	None	0
2.7	2015_May_20_1428	s	s	10	3	SIC	59	RC	2	0	02VD 02VO 09VC 02MD 02MO 02MC 02RD 02RO	1	0	1.39523100853	-26.0	-269.0	-31	-268	1
2.7	2015_May_20_1428	s	s	10	3	SIC	60	ABS	0	1	02VD 02VO 02VC 02MD 02MO 02MC 02RD 10RO	0	1	1.89174699783	None	None	None	None	1
2.7	2015_May_20_1428	s	s	10	3	SIC	61	RC	1	1	02VD 02VO 02VC 02MD 09MO 02MC 02RD 02RO	1	0	1.53773999214	-237.0	337.0	-240	333	1
2.7	2015_May_20_1428	s	s	10	3	SIC	62	ABS	2	0	02VD 02VO 10VC 02MD 02MO 02MC 02RD 02RO	0	1	1.10585522652	None	None	None	None	1
2.7	2015_May_20_1428	s	s	10	3	SIC	63	RC	2	1	02VD 09VO 02VC 02MD 02MO 02MC 02RD 02RO	1	0	1.10594701767	-486.0	341.0	-488	339	1
2.7	2015_May_20_1428	s	s	10	3	SIC	64	RC	0	1	02VD 02VO 02VC 02MD 02MO 02MC 02RD 09RO	1	0	1.45894289017	370.0	-202.0	374	-195	1
2.7	2015_May_20_1428	s	s	10	3	SIC	65	ABS	2	0	02VD 02VO 10VC 02MD 02MO 02MC 02RD 02RO	0	1	1.55953192711	None	None	None	None	1
2.7	2015_May_20_1428	s	s	10	3	SIC	66	RC	2	0	02VD 02VO 09VC 02MD 02MO 02MC 02RD 02RO	1	0	0.858321905136	87.0	-53.0	87	-43	1
2.7	2015_May_20_1428	s	s	10	3	SIC	67	RC	2	2	09VD 02VO 02VC 02MD 02MO 02MC 02RD 02RO	1	0	1.09392595291	-44.0	-242.0	-46	-245	1
2.7	2015_May_20_1428	s	s	10	3	SIC	68	RC	2	1	02VD 09VO 02VC 02MD 02MO 02MC 02RD 02RO	1	0	1.67441701889	-490.0	-70.0	-487	-65	1
2.7	2015_May_20_1428	s	s	10	3	SIC	69	ABS	1	0	02VD 02VO 02VC 02MD 02MO 10MC 02RD 02RO	0	1	2.11800694466	None	None	None	None	1
2.7	2015_May_20_1428	s	s	10	3	SIC	70	ABS	2	2	10VD 02VO 02VC 02MD 02MO 02MC 02RD 02RO	0	1	1.24431705475	None	None	None	None	1
2.7	2015_May_20_1428	s	s	10	3	SIC	71	ABS	0	2	02VD 02VO 02VC 02MD 02MO 02MC 10RD 02RO	0	1	1.16196417809	None	None	None	None	1
2.7	2015_May_20_1428	s	s	10	3	SIC	72	RC	1	2	02VD 02VO 02VC 09MD 02MO 02MC 02RD 02RO	1	0	1.12457180023	408.0	-238.0	405	-239	1
2.7	2015_May_20_1428	s	s	10	3	SIC	73	ABS	1	2	02VD 02VO 02VC 10MD 02MO 02MC 02RD 02RO	0	1	1.82125592232	None	None	None	None	1
2.7	2015_May_20_1428	s	s	10	3	SIC	74	ABS	0	1	02VD 02VO 02VC 02MD 02MO 02MC 02RD 10RO	0	1	1.64729905128	None	None	None	None	1
2.7	2015_May_20_1428	s	s	10	3	SIC	75	RC	0	2	02VD 02VO 02VC 02MD 02MO 02MC 09RD 02RO	1	0	1.63550305367	-424.0	146.0	-423	149	1
2.7	2015_May_20_1428	s	s	10	3	SIC	76	RC	0	1	02VD 02VO 02VC 02MD 02MO 02MC 02RD 09RO	1	0	2.08648395538	468.0	-97.0	472	-95	1
2.7	2015_May_20_1428	s	s	10	3	SIC	77	ABS	1	1	02VD 02VO 02VC 02MD 10MO 02MC 02RD 02RO	0	1	7.50904488564	None	None	None	None	1
2.7	2015_May_20_1428	s	s	10	3	SIC	78	ABS	2	1	02VD 10VO 02VC 02MD 02MO 02MC 02RD 02RO	0	1	1.95332717896	None	None	None	None	1
2.7	2015_May_20_1428	s	s	10	3	SIC	79	RC	1	1	02VD 02VO 02VC 02MD 09MO 02MC 02RD 02RO	1	0	1.77421998978	-333.0	149.0	-334	149	1
2.7	2015_May_20_1428	s	s	10	3	SIC	80	RC	1	0	02VD 02VO 02VC 02MD 02MO 09MC 02RD 02RO	1	0	3.9258389473	-167.0	-363.0	-172	-367	1
2.7	2015_May_20_1428	s	s	10	3	SIC	81	ABS	2	1	02VD 10VO 02VC 02MD 02MO 02MC 02RD 02RO	0	1	4.71403002739	None	None	None	None	1
2.7	2015_May_20_1428	s	s	10	3	SIC	82	ABS	2	0	02VD 02VO 10VC 02MD 02MO 02MC 02RD 02RO	0	1	1.94178509712	None	None	None	None	1
2.7	2015_May_20_1428	s	s	10	3	SIC	83	ABS	1	2	02VD 02VO 02VC 10MD 02MO 02MC 02RD 02RO	0	1	3.03605508804	None	None	None	None	1
2.7	2015_May_20_1428	s	s	10	3	SIC	84	RC	1	2	02VD 02VO 02VC 09MD 02MO 02MC 02RD 02RO	1	0	1.97125315666	-351.0	73.0	-345	79	1
2.7	2015_May_20_1428	s	s	10	3	SIC	85	RC	0	1	02VD 02VO 02VC 02MD 02MO 02MC 02RD 09RO	1	0	4.71488809586	-471.0	-178.0	-472	-179	1
2.7	2015_May_20_1428	s	s	10	3	SIC	86	RC	0	2	02VD 02VO 02VC 02MD 02MO 02MC 09RD 02RO	1	0	2.85395407677	-54.0	186.0	-51	189	1
2.7	2015_May_20_1428	s	s	10	3	SIC	87	ABS	1	1	02VD 02VO 02VC 02MD 10MO 02MC 02RD 02RO	0	1	2.33677792549	None	None	None	None	1
2.7	2015_May_20_1428	s	s	10	3	SIC	88	ABS	0	1	02VD 02VO 02VC 02MD 02MO 02MC 02RD 10RO	0	1	4.01323509216	None	None	None	None	1
2.7	2015_May_20_1428	s	s	10	3	SIC	89	RC	2	1	02VD 09VO 02VC 02MD 02MO 02MC 02RD 02RO	1	0	1.0678050518	48.0	98.0	46	90	1
2.7	2015_May_20_1428	s	s	10	3	SIC	90	RC	1	1	02VD 02VO 02VC 02MD 09MO 02MC 02RD 02RO	1	0	1.17642307281	-88.0	-30.0	-91	-37	1
2.7	2015_May_20_1428	s	s	10	3	SIC	91	RC	1	0	02VD 02VO 02VC 02MD 02MO 09MC 02RD 02RO	0	1	2.31828403473	-9.0	157.0	None	None	0
2.7	2015_May_20_1428	s	s	10	3	SIC	92	ABS	2	2	10VD 02VO 02VC 02MD 02MO 02MC 02RD 02RO	0	1	1.91429901123	None	None	None	None	1
2.7	2015_May_20_1428	s	s	10	3	SIC	93	RC	2	0	02VD 02VO 09VC 02MD 02MO 02MC 02RD 02RO	1	0	1.17148399353	-180.0	60.0	-179	62	1
2.7	2015_May_20_1428	s	s	10	3	SIC	94	ABS	0	2	02VD 02VO 02VC 02MD 02MO 02MC 10RD 02RO	0	1	1.40013980865	None	None	None	None	1
2.7	2015_May_20_1428	s	s	10	3	SIC	95	RC	2	2	09VD 02VO 02VC 02MD 02MO 02MC 02RD 02RO	1	0	2.38389015198	332.0	-410.0	341	-403	1
2.7	2015_May_20_1428	s	s	10	3	SIC	96	ABS	1	0	02VD 02VO 02VC 02MD 02MO 10MC 02RD 02RO	0	1	1.8591132164	None	None	None	None	1
2.7	2015_May_20_1428	s	s	10	3	SIC	97	RC	0	1	02VD 02VO 02VC 02MD 02MO 02MC 02RD 09RO	1	0	2.91838812828	-314.0	-113.0	-315	-119	1
2.7	2015_May_20_1428	s	s	10	3	SIC	98	ABS	2	1	02VD 10VO 02VC 02MD 02MO 02MC 02RD 02RO	0	1	1.44240117073	None	None	None	None	1
2.7	2015_May_20_1428	s	s	10	3	SIC	99	RC	0	2	02VD 02VO 02VC 02MD 02MO 02MC 09RD 02RO	1	0	1.73742079735	516.0	-131.0	524	-125	1
2.7	2015_May_20_1428	s	s	10	3	SIC	100	ABS	0	1	02VD 02VO 02VC 02MD 02MO 02MC 02RD 10RO	0	1	2.45379900932	None	None	None	None	1
2.7	2015_May_20_1428	s	s	10	3	SIC	101	ABS	1	1	02VD 02VO 02VC 02MD 10MO 02MC 02RD 02RO	0	1	1.22788500786	None	None	None	None	1
2.7	2015_May_20_1428	s	s	10	3	SIC	102	ABS	2	2	10VD 02VO 02VC 02MD 02MO 02MC 02RD 02RO	0	1	1.70599102974	None	None	None	None	1
2.7	2015_May_20_1428	s	s	10	3	SIC	103	ABS	1	2	02VD 02VO 02VC 10MD 02MO 02MC 02RD 02RO	0	1	1.23512911797	None	None	None	None	1
2.7	2015_May_20_1428	s	s	10	3	SIC	104	RC	1	2	02VD 02VO 02VC 09MD 02MO 02MC 02RD 02RO	1	0	0.844153165817	131.0	-80.0	133	-77	1
2.7	2015_May_20_1428	s	s	10	3	SIC	105	ABS	1	0	02VD 02VO 02VC 02MD 02MO 10MC 02RD 02RO	0	1	1.58544802666	None	None	None	None	1
2.7	2015_May_20_1428	s	s	10	3	SIC	106	RC	2	0	02VD 02VO 09VC 02MD 02MO 02MC 02RD 02RO	1	0	2.11433291435	-473.0	-380.0	-479	-382	1
2.7	2015_May_20_1428	s	s	10	3	SIC	107	ABS	2	0	02VD 02VO 10VC 02MD 02MO 02MC 02RD 02RO	0	1	2.05915999413	None	None	None	None	1
2.7	2015_May_20_1428	s	s	10	3	SIC	108	RC	2	1	02VD 09VO 02VC 02MD 02MO 02MC 02RD 02RO	1	0	2.48301696777	-416.0	-215.0	-415	-211	1
2.7	2015_May_20_1428	s	s	10	3	SIC	109	RC	2	2	09VD 02VO 02VC 02MD 02MO 02MC 02RD 02RO	1	0	1.09021401405	-100.0	-126.0	-90	-124	1
2.7	2015_May_20_1428	s	s	10	3	SIC	110	RC	1	0	02VD 02VO 02VC 02MD 02MO 09MC 02RD 02RO	0	1	2.11801886559	-401.0	-14.0	None	None	0
2.7	2015_May_20_1428	s	s	10	3	SIC	111	ABS	0	2	02VD 02VO 02VC 02MD 02MO 02MC 10RD 02RO	0	1	1.90989303589	None	None	None	None	1
2.7	2015_May_20_1428	s	s	10	3	SIC	112	RC	1	1	02VD 02VO 02VC 02MD 09MO 02MC 02RD 02RO	0	1	5.76215696335	-444.0	-16.0	None	None	0
2.7	2015_May_20_1428	s	s	10	3	SIC	113	ABS	0	2	02VD 02VO 02VC 02MD 02MO 02MC 10RD 02RO	0	1	3.13881111145	None	None	None	None	1
2.7	2015_May_20_1428	s	s	10	3	SIC	114	RC	1	2	02VD 02VO 02VC 09MD 02MO 02MC 02RD 02RO	0	1	2.70657920837	-367.0	-266.0	None	None	0
2.7	2015_May_20_1428	s	s	10	3	SIC	115	RC	0	2	02VD 02VO 02VC 02MD 02MO 02MC 09RD 02RO	1	0	1.08977484703	225.0	-109.0	236	-109	1
2.7	2015_May_20_1428	s	s	10	3	SIC	116	ABS	2	0	02VD 02VO 10VC 02MD 02MO 02MC 02RD 02RO	0	1	3.3658041954	None	None	None	None	1
2.7	2015_May_20_1428	s	s	10	3	SIC	117	RC	2	2	09VD 02VO 02VC 02MD 02MO 02MC 02RD 02RO	1	0	2.35123801231	-385.0	153.0	-385	148	1
2.7	2015_May_20_1428	s	s	10	3	SIC	118	ABS	1	2	02VD 02VO 02VC 10MD 02MO 02MC 02RD 02RO	0	1	6.43020391464	None	None	None	None	1
2.7	2015_May_20_1428	s	s	10	3	SIC	119	ABS	1	1	02VD 02VO 02VC 02MD 10MO 02MC 02RD 02RO	0	1	2.15990209579	None	None	None	None	1
2.7	2015_May_20_1428	s	s	10	3	SIC	120	RC	2	0	02VD 02VO 09VC 02MD 02MO 02MC 02RD 02RO	1	0	1.10031199455	333.0	-75.0	329	-80	1
2.7	2015_May_20_1428	s	s	10	3	SIC	121	RC	0	1	02VD 02VO 02VC 02MD 02MO 02MC 02RD 09RO	1	0	1.31481480598	105.0	-71.0	103	-75	1
2.7	2015_May_20_1428	s	s	10	3	SIC	122	ABS	1	0	02VD 02VO 02VC 02MD 02MO 10MC 02RD 02RO	0	1	1.59379410744	None	None	None	None	1
2.7	2015_May_20_1428	s	s	10	3	SIC	123	ABS	0	1	02VD 02VO 02VC 02MD 02MO 02MC 02RD 10RO	0	1	3.43150091171	None	None	None	None	1
2.7	2015_May_20_1428	s	s	10	3	SIC	124	RC	2	1	02VD 09VO 02VC 02MD 02MO 02MC 02RD 02RO	1	0	1.00631403923	100.0	-175.0	96	-172	1
2.7	2015_May_20_1428	s	s	10	3	SIC	125	RC	1	1	02VD 02VO 02VC 02MD 09MO 02MC 02RD 02RO	1	0	1.11277794838	-441.0	52.0	-444	49	1
2.7	2015_May_20_1428	s	s	10	3	SIC	126	RC	1	0	02VD 02VO 02VC 02MD 02MO 09MC 02RD 02RO	1	0	1.38370108604	-165.0	-57.0	-165	-58	1
2.7	2015_May_20_1428	s	s	10	3	SIC	127	ABS	2	1	02VD 10VO 02VC 02MD 02MO 02MC 02RD 02RO	0	1	2.07913804054	None	None	None	None	1
2.7	2015_May_20_1428	s	s	10	3	SIC	128	ABS	2	2	10VD 02VO 02VC 02MD 02MO 02MC 02RD 02RO	0	1	2.03312301636	None	None	None	None	1
2.7	2015_May_20_1428	s	s	10	3	SIC	129	ABS	0	1	02VD 02VO 02VC 02MD 02MO 02MC 02RD 10RO	0	1	2.90068721771	None	None	None	None	1
2.7	2015_May_20_1428	s	s	10	3	SIC	130	ABS	2	0	02VD 02VO 10VC 02MD 02MO 02MC 02RD 02RO	0	1	2.395373106	None	None	None	None	1
2.7	2015_May_20_1428	s	s	10	3	SIC	131	RC	1	0	02VD 02VO 02VC 02MD 02MO 09MC 02RD 02RO	1	0	2.50288105011	-35.0	-118.0	-38	-123	1
2.7	2015_May_20_1428	s	s	10	3	SIC	132	ABS	1	1	02VD 02VO 02VC 02MD 10MO 02MC 02RD 02RO	0	1	3.13679695129	None	None	None	None	1
2.7	2015_May_20_1428	s	s	10	3	SIC	133	RC	0	1	02VD 02VO 02VC 02MD 02MO 02MC 02RD 09RO	1	0	2.27793312073	-456.0	-47.0	-457	-54	1
2.7	2015_May_20_1428	s	s	10	3	SIC	134	RC	2	0	02VD 02VO 09VC 02MD 02MO 02MC 02RD 02RO	0	1	7.20302700996	524.0	346.0	None	None	0
2.7	2015_May_20_1428	s	s	10	3	SIC	135	RC	2	2	09VD 02VO 02VC 02MD 02MO 02MC 02RD 02RO	0	1	2.05258893967	324.0	364.0	None	None	0
2.7	2015_May_20_1428	s	s	10	3	SIC	136	ABS	2	1	02VD 10VO 02VC 02MD 02MO 02MC 02RD 02RO	0	1	1.97689509392	None	None	None	None	1
2.7	2015_May_20_1428	s	s	10	3	SIC	137	RC	1	2	02VD 02VO 02VC 09MD 02MO 02MC 02RD 02RO	1	0	4.14260411263	408.0	-142.0	409	-139	1
2.7	2015_May_20_1428	s	s	10	3	SIC	138	RC	2	1	02VD 09VO 02VC 02MD 02MO 02MC 02RD 02RO	1	0	2.28282189369	-415.0	-208.0	-409	-202	1
2.7	2015_May_20_1428	s	s	10	3	SIC	139	RC	0	2	02VD 02VO 02VC 02MD 02MO 02MC 09RD 02RO	1	0	2.80868697166	-220.0	223.0	-224	226	1
2.7	2015_May_20_1428	s	s	10	3	SIC	140	RC	1	1	02VD 02VO 02VC 02MD 09MO 02MC 02RD 02RO	1	0	1.6423227787	-42.0	-68.0	-38	-69	1
2.7	2015_May_20_1428	s	s	10	3	SIC	141	ABS	0	2	02VD 02VO 02VC 02MD 02MO 02MC 10RD 02RO	0	1	3.30165815353	None	None	None	None	1
2.7	2015_May_20_1428	s	s	10	3	SIC	142	ABS	2	2	10VD 02VO 02VC 02MD 02MO 02MC 02RD 02RO	0	1	1.64422702789	None	None	None	None	1
2.7	2015_May_20_1428	s	s	10	3	SIC	143	ABS	1	2	02VD 02VO 02VC 10MD 02MO 02MC 02RD 02RO	0	1	1.47814106941	None	None	None	None	1
2.7	2015_May_20_1428	s	s	10	3	SIC	144	ABS	1	0	02VD 02VO 02VC 02MD 02MO 10MC 02RD 02RO	0	1	2.2298951149	None	None	None	None	1
2.7	2015_May_20_1428	s	s	10	3	SIC	145	RC	1	0	02VD 02VO 02VC 02MD 02MO 09MC 02RD 02RO	1	0	1.1715221405	269.0	-26.0	278	-24	1
2.7	2015_May_20_1428	s	s	10	3	SIC	146	RC	2	0	02VD 02VO 09VC 02MD 02MO 02MC 02RD 02RO	1	0	1.04691696167	-29.0	-9.0	-38	-4	1
2.7	2015_May_20_1428	s	s	10	3	SIC	147	ABS	0	2	02VD 02VO 02VC 02MD 02MO 02MC 10RD 02RO	0	1	1.48250818253	None	None	None	None	1
2.7	2015_May_20_1428	s	s	10	3	SIC	148	ABS	2	1	02VD 10VO 02VC 02MD 02MO 02MC 02RD 02RO	0	1	1.84740996361	None	None	None	None	1
2.7	2015_May_20_1428	s	s	10	3	SIC	149	ABS	0	1	02VD 02VO 02VC 02MD 02MO 02MC 02RD 10RO	0	1	3.54926300049	None	None	None	None	1
2.7	2015_May_20_1428	s	s	10	3	SIC	150	RC	0	2	02VD 02VO 02VC 02MD 02MO 02MC 09RD 02RO	1	0	2.12639904022	245.0	344.0	248	346	1
2.7	2015_May_20_1428	s	s	10	3	SIC	151	ABS	1	1	02VD 02VO 02VC 02MD 10MO 02MC 02RD 02RO	0	1	5.32718801498	None	None	None	None	1
2.7	2015_May_20_1428	s	s	10	3	SIC	152	RC	1	2	02VD 02VO 02VC 09MD 02MO 02MC 02RD 02RO	1	0	3.32775688171	-140.0	117.0	-145	121	1
2.7	2015_May_20_1428	s	s	10	3	SIC	153	RC	2	1	02VD 09VO 02VC 02MD 02MO 02MC 02RD 02RO	0	1	4.38402915001	-426.0	11.0	None	None	0
2.7	2015_May_20_1428	s	s	10	3	SIC	154	RC	0	1	02VD 02VO 02VC 02MD 02MO 02MC 02RD 09RO	1	0	2.03577899933	-366.0	-222.0	-363	-226	1
2.7	2015_May_20_1428	s	s	10	3	SIC	155	RC	2	2	09VD 02VO 02VC 02MD 02MO 02MC 02RD 02RO	1	0	1.11511492729	-235.0	-200.0	-230	-195	1
2.7	2015_May_20_1428	s	s	10	3	SIC	156	RC	1	1	02VD 02VO 02VC 02MD 09MO 02MC 02RD 02RO	1	0	4.0311050415	-155.0	-240.0	-154	-236	1
2.7	2015_May_20_1428	s	s	10	3	SIC	157	ABS	1	2	02VD 02VO 02VC 10MD 02MO 02MC 02RD 02RO	0	1	4.13742089272	None	None	None	None	1
2.7	2015_May_20_1428	s	s	10	3	SIC	158	ABS	2	0	02VD 02VO 10VC 02MD 02MO 02MC 02RD 02RO	0	1	1.62108898163	None	None	None	None	1
2.7	2015_May_20_1428	s	s	10	3	SIC	159	ABS	2	2	10VD 02VO 02VC 02MD 02MO 02MC 02RD 02RO	0	1	2.35326600075	None	None	None	None	1
2.7	2015_May_20_1428	s	s	10	3	SIC	160	ABS	1	0	02VD 02VO 02VC 02MD 02MO 10MC 02RD 02RO	0	1	3.1543700695	None	None	None	None	1
2.7	2015_May_20_1428	s	s	10	3	SIC	161	RC	1	2	02VD 02VO 02VC 09MD 02MO 02MC 02RD 02RO	1	0	2.18613004684	-99.0	-353.0	-97	-349	1
2.7	2015_May_20_1428	s	s	10	3	SIC	162	ABS	2	0	02VD 02VO 10VC 02MD 02MO 02MC 02RD 02RO	0	1	2.15351390839	None	None	None	None	1
2.7	2015_May_20_1428	s	s	10	3	SIC	163	RC	2	0	02VD 02VO 09VC 02MD 02MO 02MC 02RD 02RO	1	0	3.48342585564	318.0	-280.0	313	-278	1
2.7	2015_May_20_1428	s	s	10	3	SIC	164	ABS	0	1	02VD 02VO 02VC 02MD 02MO 02MC 02RD 10RO	0	1	3.76077604294	None	None	None	None	1
2.7	2015_May_20_1428	s	s	10	3	SIC	165	RC	2	1	02VD 09VO 02VC 02MD 02MO 02MC 02RD 02RO	1	0	2.56538701057	-396.0	26.0	-396	16	1
2.7	2015_May_20_1428	s	s	10	3	SIC	166	ABS	0	2	02VD 02VO 02VC 02MD 02MO 02MC 10RD 02RO	0	1	2.28948688507	None	None	None	None	1
2.7	2015_May_20_1428	s	s	10	3	SIC	167	RC	1	0	02VD 02VO 02VC 02MD 02MO 09MC 02RD 02RO	1	0	2.19574999809	494.0	404.0	496	405	1
2.7	2015_May_20_1428	s	s	10	3	SIC	168	ABS	1	1	02VD 02VO 02VC 02MD 10MO 02MC 02RD 02RO	0	1	2.0886490345	None	None	None	None	1
2.7	2015_May_20_1428	s	s	10	3	SIC	169	ABS	2	2	10VD 02VO 02VC 02MD 02MO 02MC 02RD 02RO	0	1	2.88971996307	None	None	None	None	1
2.7	2015_May_20_1428	s	s	10	3	SIC	170	RC	2	2	09VD 02VO 02VC 02MD 02MO 02MC 02RD 02RO	1	0	1.63555884361	263.0	15.0	264	16	1
2.7	2015_May_20_1428	s	s	10	3	SIC	171	RC	0	2	02VD 02VO 02VC 02MD 02MO 02MC 09RD 02RO	1	0	2.51480484009	382.0	103.0	380	101	1
2.7	2015_May_20_1428	s	s	10	3	SIC	172	RC	0	1	02VD 02VO 02VC 02MD 02MO 02MC 02RD 09RO	1	0	2.74561309814	52.0	-265.0	51	-269	1
2.7	2015_May_20_1428	s	s	10	3	SIC	173	RC	1	1	02VD 02VO 02VC 02MD 09MO 02MC 02RD 02RO	0	1	1.88274502754	-92.0	-171.0	None	None	0
2.7	2015_May_20_1428	s	s	10	3	SIC	174	ABS	1	2	02VD 02VO 02VC 10MD 02MO 02MC 02RD 02RO	0	1	3.87193918228	None	None	None	None	1
2.7	2015_May_20_1428	s	s	10	3	SIC	175	ABS	1	0	02VD 02VO 02VC 02MD 02MO 10MC 02RD 02RO	0	1	2.54875397682	None	None	None	None	1
2.7	2015_May_20_1428	s	s	10	3	SIC	176	ABS	2	1	02VD 10VO 02VC 02MD 02MO 02MC 02RD 02RO	0	1	2.21860694885	None	None	None	None	1
2.7	2015_May_20_1428	s	s	10	3	SIC	177	ABS	1	0	02VD 02VO 02VC 02MD 02MO 10MC 02RD 02RO	0	1	2.35906219482	None	None	None	None	1
2.7	2015_May_20_1428	s	s	10	3	SIC	178	ABS	2	2	10VD 02VO 02VC 02MD 02MO 02MC 02RD 02RO	0	1	1.40692591667	None	None	None	None	1
2.7	2015_May_20_1428	s	s	10	3	SIC	179	RC	1	0	02VD 02VO 02VC 02MD 02MO 09MC 02RD 02RO	0	1	1.03514409065	86.0	288.0	None	None	0
2.7	2015_May_20_1428	s	s	10	3	SIC	180	ABS	2	1	02VD 10VO 02VC 02MD 02MO 02MC 02RD 02RO	0	1	1.37397098541	None	None	None	None	1
2.7	2015_May_20_1428	s	s	10	3	SIC	181	ABS	0	2	02VD 02VO 02VC 02MD 02MO 02MC 10RD 02RO	0	1	1.43541407585	None	None	None	None	1
2.7	2015_May_20_1428	s	s	10	3	SIC	182	RC	2	0	02VD 02VO 09VC 02MD 02MO 02MC 02RD 02RO	1	0	1.85337591171	-202.0	201.0	-207	191	1
2.7	2015_May_20_1428	s	s	10	3	SIC	183	ABS	0	1	02VD 02VO 02VC 02MD 02MO 02MC 02RD 10RO	0	1	3.45643901825	None	None	None	None	1
2.7	2015_May_20_1428	s	s	10	3	SIC	184	ABS	1	1	02VD 02VO 02VC 02MD 10MO 02MC 02RD 02RO	0	1	0.999919891357	None	None	None	None	1
2.7	2015_May_20_1428	s	s	10	3	SIC	185	ABS	1	2	02VD 02VO 02VC 10MD 02MO 02MC 02RD 02RO	0	1	1.14770889282	None	None	None	None	1
2.7	2015_May_20_1428	s	s	10	3	SIC	186	RC	2	1	02VD 09VO 02VC 02MD 02MO 02MC 02RD 02RO	1	0	1.83556985855	420.0	400.0	416	405	1
2.7	2015_May_20_1428	s	s	10	3	SIC	187	RC	0	2	02VD 02VO 02VC 02MD 02MO 02MC 09RD 02RO	1	0	1.24708294868	-255.0	70.0	-255	71	1
2.7	2015_May_20_1428	s	s	10	3	SIC	188	ABS	2	0	02VD 02VO 10VC 02MD 02MO 02MC 02RD 02RO	1	0	2.69482088089	None	None	-143	106	0
2.7	2015_May_20_1428	s	s	10	3	SIC	189	RC	1	2	02VD 02VO 02VC 09MD 02MO 02MC 02RD 02RO	1	0	2.00036978722	-421.0	281.0	-419	278	1
2.7	2015_May_20_1428	s	s	10	3	SIC	190	RC	0	1	02VD 02VO 02VC 02MD 02MO 02MC 02RD 09RO	1	0	1.54803299904	195.0	357.0	195	363	1
2.7	2015_May_20_1428	s	s	10	3	SIC	191	RC	2	2	09VD 02VO 02VC 02MD 02MO 02MC 02RD 02RO	1	0	2.06640791893	-32.0	-109.0	-32	-111	1
2.7	2015_May_20_1428	s	s	10	3	SIC	192	RC	1	1	02VD 02VO 02VC 02MD 09MO 02MC 02RD 02RO	1	0	3.01264405251	-214.0	-30.0	-211	-34	1
2.7	2015_May_20_1428	s	s	10	3	SIC	193	ABS	1	1	02VD 02VO 02VC 02MD 10MO 02MC 02RD 02RO	0	1	2.30139088631	None	None	None	None	1
2.7	2015_May_20_1428	s	s	10	3	SIC	194	RC	1	1	02VD 02VO 02VC 02MD 09MO 02MC 02RD 02RO	1	0	1.54705905914	-259.0	35.0	-251	37	1
2.7	2015_May_20_1428	s	s	10	3	SIC	195	RC	1	2	02VD 02VO 02VC 09MD 02MO 02MC 02RD 02RO	1	0	2.12473392487	534.0	42.0	535	47	1
2.7	2015_May_20_1428	s	s	10	3	SIC	196	RC	2	0	02VD 02VO 09VC 02MD 02MO 02MC 02RD 02RO	1	0	1.44375300407	-235.0	-304.0	-232	-299	1
2.7	2015_May_20_1428	s	s	10	3	SIC	197	ABS	2	0	02VD 02VO 10VC 02MD 02MO 02MC 02RD 02RO	0	1	1.67775893211	None	None	None	None	1
2.7	2015_May_20_1428	s	s	10	3	SIC	198	RC	2	2	09VD 02VO 02VC 02MD 02MO 02MC 02RD 02RO	1	0	1.04735708237	-336.0	-134.0	-332	-136	1
2.7	2015_May_20_1428	s	s	10	3	SIC	199	ABS	1	0	02VD 02VO 02VC 02MD 02MO 10MC 02RD 02RO	0	1	2.04246997833	None	None	None	None	1
2.7	2015_May_20_1428	s	s	10	3	SIC	200	ABS	0	1	02VD 02VO 02VC 02MD 02MO 02MC 02RD 10RO	0	1	2.78899693489	None	None	None	None	1
2.7	2015_May_20_1428	s	s	10	3	SIC	201	ABS	1	2	02VD 02VO 02VC 10MD 02MO 02MC 02RD 02RO	0	1	1.5852868557	None	None	None	None	1
2.7	2015_May_20_1428	s	s	10	3	SIC	202	ABS	2	1	02VD 10VO 02VC 02MD 02MO 02MC 02RD 02RO	0	1	1.1682639122	None	None	None	None	1
2.7	2015_May_20_1428	s	s	10	3	SIC	203	ABS	0	2	02VD 02VO 02VC 02MD 02MO 02MC 10RD 02RO	0	1	1.71234512329	None	None	None	None	1
2.7	2015_May_20_1428	s	s	10	3	SIC	204	ABS	2	2	10VD 02VO 02VC 02MD 02MO 02MC 02RD 02RO	0	1	1.10286688805	None	None	None	None	1
2.7	2015_May_20_1428	s	s	10	3	SIC	205	RC	1	0	02VD 02VO 02VC 02MD 02MO 09MC 02RD 02RO	1	0	1.45891499519	-325.0	-80.0	-330	-77	1
2.7	2015_May_20_1428	s	s	10	3	SIC	206	RC	0	1	02VD 02VO 02VC 02MD 02MO 02MC 02RD 09RO	1	0	4.51292490959	-62.0	-194.0	-48	-189	1
2.7	2015_May_20_1428	s	s	10	3	SIC	207	RC	0	2	02VD 02VO 02VC 02MD 02MO 02MC 09RD 02RO	1	0	2.28291797638	-457.0	-271.0	-455	-271	1
2.7	2015_May_20_1428	s	s	10	3	SIC	208	RC	2	1	02VD 09VO 02VC 02MD 02MO 02MC 02RD 02RO	1	0	2.08280110359	411.0	-94.0	407	-95	1
2.7	2015_May_20_1428	s	s	10	3	SIC	209	RC	2	2	09VD 02VO 02VC 02MD 02MO 02MC 02RD 02RO	1	0	0.738740921021	257.0	-266.0	255	-267	1
2.7	2015_May_20_1428	s	s	10	3	SIC	210	ABS	1	2	02VD 02VO 02VC 10MD 02MO 02MC 02RD 02RO	0	1	1.95315098763	None	None	None	None	1
2.7	2015_May_20_1428	s	s	10	3	SIC	211	ABS	2	1	02VD 10VO 02VC 02MD 02MO 02MC 02RD 02RO	0	1	1.40909004211	None	None	None	None	1
2.7	2015_May_20_1428	s	s	10	3	SIC	212	ABS	0	2	02VD 02VO 02VC 02MD 02MO 02MC 10RD 02RO	0	1	1.88002920151	None	None	None	None	1
2.7	2015_May_20_1428	s	s	10	3	SIC	213	ABS	2	2	10VD 02VO 02VC 02MD 02MO 02MC 02RD 02RO	0	1	1.80389618874	None	None	None	None	1
2.7	2015_May_20_1428	s	s	10	3	SIC	214	ABS	2	0	02VD 02VO 10VC 02MD 02MO 02MC 02RD 02RO	0	1	2.3533039093	None	None	None	None	1
2.7	2015_May_20_1428	s	s	10	3	SIC	215	ABS	0	1	02VD 02VO 02VC 02MD 02MO 02MC 02RD 10RO	0	1	3.23623609543	None	None	None	None	1
2.7	2015_May_20_1428	s	s	10	3	SIC	216	RC	0	2	02VD 02VO 02VC 02MD 02MO 02MC 09RD 02RO	1	0	1.05874800682	-14.0	-62.0	-16	-57	1
2.7	2015_May_20_1428	s	s	10	3	SIC	217	RC	2	0	02VD 02VO 09VC 02MD 02MO 02MC 02RD 02RO	1	0	1.08221411705	-509.0	223.0	-503	222	1
2.7	2015_May_20_1428	s	s	10	3	SIC	218	RC	1	1	02VD 02VO 02VC 02MD 09MO 02MC 02RD 02RO	1	0	1.25378203392	-344.0	224.0	-341	232	1
2.7	2015_May_20_1428	s	s	10	3	SIC	219	RC	1	2	02VD 02VO 02VC 09MD 02MO 02MC 02RD 02RO	1	0	0.776297092438	-204.0	121.0	-202	120	1
2.7	2015_May_20_1428	s	s	10	3	SIC	220	RC	1	0	02VD 02VO 02VC 02MD 02MO 09MC 02RD 02RO	1	0	1.29400110245	273.0	160.0	267	160	1
2.7	2015_May_20_1428	s	s	10	3	SIC	221	ABS	1	0	02VD 02VO 02VC 02MD 02MO 10MC 02RD 02RO	0	1	1.90630793571	None	None	None	None	1
2.7	2015_May_20_1428	s	s	10	3	SIC	222	RC	2	1	02VD 09VO 02VC 02MD 02MO 02MC 02RD 02RO	1	0	1.16133093834	-64.0	336.0	-68	327	1
2.7	2015_May_20_1428	s	s	10	3	SIC	223	ABS	1	1	02VD 02VO 02VC 02MD 10MO 02MC 02RD 02RO	0	1	2.70358085632	None	None	None	None	1
2.7	2015_May_20_1428	s	s	10	3	SIC	224	RC	0	1	02VD 02VO 02VC 02MD 02MO 02MC 02RD 09RO	1	0	2.36235618591	-337.0	218.0	-336	212	1
2.7	2015_May_20_1428	s	s	10	3	SIC	225	RC	2	0	02VD 02VO 09VC 02MD 02MO 02MC 02RD 02RO	1	0	1.50609397888	-399.0	373.0	-403	371	1
2.7	2015_May_20_1428	s	s	10	3	SIC	226	RC	0	1	02VD 02VO 02VC 02MD 02MO 02MC 02RD 09RO	1	0	3.62144589424	-385.0	145.0	-387	152	1
2.7	2015_May_20_1428	s	s	10	3	SIC	227	ABS	0	1	02VD 02VO 02VC 02MD 02MO 02MC 02RD 10RO	0	1	3.63649010658	None	None	None	None	1
2.7	2015_May_20_1428	s	s	10	3	SIC	228	RC	2	2	09VD 02VO 02VC 02MD 02MO 02MC 02RD 02RO	1	0	4.84876489639	-483.0	242.0	-478	236	1
2.7	2015_May_20_1428	s	s	10	3	SIC	229	ABS	2	2	10VD 02VO 02VC 02MD 02MO 02MC 02RD 02RO	0	1	1.15285015106	None	None	None	None	1
2.7	2015_May_20_1428	s	s	10	3	SIC	230	ABS	1	0	02VD 02VO 02VC 02MD 02MO 10MC 02RD 02RO	0	1	3.06654906273	None	None	None	None	1
2.7	2015_May_20_1428	s	s	10	3	SIC	231	RC	2	1	02VD 09VO 02VC 02MD 02MO 02MC 02RD 02RO	1	0	1.67076301575	258.0	202.0	256	202	1
2.7	2015_May_20_1428	s	s	10	3	SIC	232	RC	1	1	02VD 02VO 02VC 02MD 09MO 02MC 02RD 02RO	1	0	2.39568305016	-407.0	309.0	-409	305	1
2.7	2015_May_20_1428	s	s	10	3	SIC	233	ABS	1	2	02VD 02VO 02VC 10MD 02MO 02MC 02RD 02RO	0	1	1.5850019455	None	None	None	None	1
2.7	2015_May_20_1428	s	s	10	3	SIC	234	ABS	0	2	02VD 02VO 02VC 02MD 02MO 02MC 10RD 02RO	0	1	2.22014188766	None	None	None	None	1
2.7	2015_May_20_1428	s	s	10	3	SIC	235	RC	1	0	02VD 02VO 02VC 02MD 02MO 09MC 02RD 02RO	1	0	1.75327301025	65.0	-119.0	72	-116	1
2.7	2015_May_20_1428	s	s	10	3	SIC	236	RC	1	2	02VD 02VO 02VC 09MD 02MO 02MC 02RD 02RO	1	0	1.10577487946	45.0	403.0	50	402	1
2.7	2015_May_20_1428	s	s	10	3	SIC	237	ABS	2	0	02VD 02VO 10VC 02MD 02MO 02MC 02RD 02RO	0	1	1.27829909325	None	None	None	None	1
2.7	2015_May_20_1428	s	s	10	3	SIC	238	RC	0	2	02VD 02VO 02VC 02MD 02MO 02MC 09RD 02RO	0	1	0.875529050827	-144.0	167.0	None	None	0
2.7	2015_May_20_1428	s	s	10	3	SIC	239	ABS	1	1	02VD 02VO 02VC 02MD 10MO 02MC 02RD 02RO	0	1	2.04490995407	None	None	None	None	1
2.7	2015_May_20_1428	s	s	10	3	SIC	240	ABS	2	1	02VD 10VO 02VC 02MD 02MO 02MC 02RD 02RO	0	1	2.96550393105	None	None	None	None	1
2.7	2015_May_20_1428	s	s	10	3	SIC	241	RC	1	2	02VD 02VO 02VC 09MD 02MO 02MC 02RD 02RO	1	0	1.25884318352	27.0	144.0	26	139	1
2.7	2015_May_20_1428	s	s	10	3	SIC	242	ABS	1	1	02VD 02VO 02VC 02MD 10MO 02MC 02RD 02RO	0	1	3.34848189354	None	None	None	None	1
2.7	2015_May_20_1428	s	s	10	3	SIC	243	RC	1	0	02VD 02VO 02VC 02MD 02MO 09MC 02RD 02RO	1	0	1.55995178223	470.0	-247.0	460	-238	1
2.7	2015_May_20_1428	s	s	10	3	SIC	244	RC	1	1	02VD 02VO 02VC 02MD 09MO 02MC 02RD 02RO	1	0	1.69424009323	392.0	270.0	388	273	1
2.7	2015_May_20_1428	s	s	10	3	SIC	245	ABS	2	2	10VD 02VO 02VC 02MD 02MO 02MC 02RD 02RO	0	1	2.18052315712	None	None	None	None	1
2.7	2015_May_20_1428	s	s	10	3	SIC	246	RC	2	1	02VD 09VO 02VC 02MD 02MO 02MC 02RD 02RO	1	0	1.92418503761	-246.0	-386.0	-244	-392	1
2.7	2015_May_20_1428	s	s	10	3	SIC	247	ABS	1	2	02VD 02VO 02VC 10MD 02MO 02MC 02RD 02RO	0	1	1.18861079216	None	None	None	None	1
2.7	2015_May_20_1428	s	s	10	3	SIC	248	ABS	2	0	02VD 02VO 10VC 02MD 02MO 02MC 02RD 02RO	0	1	1.45305490494	None	None	None	None	1
2.7	2015_May_20_1428	s	s	10	3	SIC	249	RC	2	0	02VD 02VO 09VC 02MD 02MO 02MC 02RD 02RO	1	0	1.43580794334	538.0	-121.0	535	-125	1
2.7	2015_May_20_1428	s	s	10	3	SIC	250	ABS	1	0	02VD 02VO 02VC 02MD 02MO 10MC 02RD 02RO	0	1	3.57354807854	None	None	None	None	1
2.7	2015_May_20_1428	s	s	10	3	SIC	251	RC	2	2	09VD 02VO 02VC 02MD 02MO 02MC 02RD 02RO	1	0	0.8184030056	19.0	-281.0	16	-275	1
2.7	2015_May_20_1428	s	s	10	3	SIC	252	RC	0	2	02VD 02VO 02VC 02MD 02MO 02MC 09RD 02RO	1	0	1.98617696762	147.0	-104.0	146	-101	1
2.7	2015_May_20_1428	s	s	10	3	SIC	253	ABS	0	2	02VD 02VO 02VC 02MD 02MO 02MC 10RD 02RO	0	1	1.36469292641	None	None	None	None	1
2.7	2015_May_20_1428	s	s	10	3	SIC	254	ABS	0	1	02VD 02VO 02VC 02MD 02MO 02MC 02RD 10RO	1	0	3.46677803993	None	None	75	37	0
2.7	2015_May_20_1428	s	s	10	3	SIC	255	ABS	2	1	02VD 10VO 02VC 02MD 02MO 02MC 02RD 02RO	0	1	1.76496315002	None	None	None	None	1
2.7	2015_May_20_1428	s	s	10	3	SIC	256	RC	0	1	02VD 02VO 02VC 02MD 02MO 02MC 02RD 09RO	1	0	1.56485009193	-443.0	-211.0	-437	-214	1
2.7	2015_May_20_1428	s	s	10	3	SIC	257	RC	0	1	02VD 02VO 02VC 02MD 02MO 02MC 02RD 09RO	1	0	1.14925003052	-400.0	-82.0	-395	-76	1
2.7	2015_May_20_1428	s	s	10	3	SIC	258	RC	2	0	02VD 02VO 09VC 02MD 02MO 02MC 02RD 02RO	1	0	2.11794400215	34.0	-349.0	40	-343	1
2.7	2015_May_20_1428	s	s	10	3	SIC	259	ABS	1	0	02VD 02VO 02VC 02MD 02MO 10MC 02RD 02RO	0	1	4.38456511497	None	None	None	None	1
2.7	2015_May_20_1428	s	s	10	3	SIC	260	RC	1	1	02VD 02VO 02VC 02MD 09MO 02MC 02RD 02RO	1	0	2.19552302361	108.0	206.0	109	201	1
2.7	2015_May_20_1428	s	s	10	3	SIC	261	ABS	0	2	02VD 02VO 02VC 02MD 02MO 02MC 10RD 02RO	0	1	2.62409615517	None	None	None	None	1
2.7	2015_May_20_1428	s	s	10	3	SIC	262	RC	0	2	02VD 02VO 02VC 02MD 02MO 02MC 09RD 02RO	1	0	2.95132803917	121.0	185.0	129	183	1
2.7	2015_May_20_1428	s	s	10	3	SIC	263	ABS	0	1	02VD 02VO 02VC 02MD 02MO 02MC 02RD 10RO	0	1	3.72419285774	None	None	None	None	1
2.7	2015_May_20_1428	s	s	10	3	SIC	264	ABS	1	2	02VD 02VO 02VC 10MD 02MO 02MC 02RD 02RO	0	1	1.92960309982	None	None	None	None	1
2.7	2015_May_20_1428	s	s	10	3	SIC	265	RC	1	2	02VD 02VO 02VC 09MD 02MO 02MC 02RD 02RO	1	0	1.49076700211	-105.0	301.0	-103	289	1
2.7	2015_May_20_1428	s	s	10	3	SIC	266	RC	2	1	02VD 09VO 02VC 02MD 02MO 02MC 02RD 02RO	1	0	2.44402217865	-206.0	-309.0	-198	-304	1
2.7	2015_May_20_1428	s	s	10	3	SIC	267	ABS	1	1	02VD 02VO 02VC 02MD 10MO 02MC 02RD 02RO	0	1	2.62421107292	None	None	None	None	1
2.7	2015_May_20_1428	s	s	10	3	SIC	268	ABS	2	2	10VD 02VO 02VC 02MD 02MO 02MC 02RD 02RO	0	1	1.97206687927	None	None	None	None	1
2.7	2015_May_20_1428	s	s	10	3	SIC	269	ABS	2	0	02VD 02VO 10VC 02MD 02MO 02MC 02RD 02RO	0	1	1.35678601265	None	None	None	None	1
2.7	2015_May_20_1428	s	s	10	3	SIC	270	RC	2	2	09VD 02VO 02VC 02MD 02MO 02MC 02RD 02RO	1	0	4.24248194695	-194.0	-17.0	-197	-24	1
2.7	2015_May_20_1428	s	s	10	3	SIC	271	ABS	2	1	02VD 10VO 02VC 02MD 02MO 02MC 02RD 02RO	0	1	1.76245689392	None	None	None	None	1
2.7	2015_May_20_1428	s	s	10	3	SIC	272	RC	1	0	02VD 02VO 02VC 02MD 02MO 09MC 02RD 02RO	1	0	0.888228178024	-197.0	-128.0	-198	-119	1
2.7	2015_May_20_1428	s	s	10	3	SIC	273	RC	1	2	02VD 02VO 02VC 09MD 02MO 02MC 02RD 02RO	1	0	0.662164926529	-266.0	98.0	-267	95	1
2.7	2015_May_20_1428	s	s	10	3	SIC	274	ABS	1	1	02VD 02VO 02VC 02MD 10MO 02MC 02RD 02RO	0	1	2.45397901535	None	None	None	None	1
2.7	2015_May_20_1428	s	s	10	3	SIC	275	ABS	1	0	02VD 02VO 02VC 02MD 02MO 10MC 02RD 02RO	0	1	2.11808991432	None	None	None	None	1
2.7	2015_May_20_1428	s	s	10	3	SIC	276	ABS	1	2	02VD 02VO 02VC 10MD 02MO 02MC 02RD 02RO	0	1	2.29494190216	None	None	None	None	1
2.7	2015_May_20_1428	s	s	10	3	SIC	277	ABS	2	2	10VD 02VO 02VC 02MD 02MO 02MC 02RD 02RO	0	1	1.62064385414	None	None	None	None	1
2.7	2015_May_20_1428	s	s	10	3	SIC	278	RC	1	0	02VD 02VO 02VC 02MD 02MO 09MC 02RD 02RO	1	0	2.15342998505	-5.0	192.0	-6	196	1
2.7	2015_May_20_1428	s	s	10	3	SIC	279	ABS	2	0	02VD 02VO 10VC 02MD 02MO 02MC 02RD 02RO	0	1	3.0008020401	None	None	None	None	1
2.7	2015_May_20_1428	s	s	10	3	SIC	280	RC	2	2	09VD 02VO 02VC 02MD 02MO 02MC 02RD 02RO	1	0	1.63548803329	-73.0	-2.0	-71	-1	1
2.7	2015_May_20_1428	s	s	10	3	SIC	281	ABS	0	2	02VD 02VO 02VC 02MD 02MO 02MC 10RD 02RO	0	1	2.17246007919	None	None	None	None	1
2.7	2015_May_20_1428	s	s	10	3	SIC	282	RC	2	1	02VD 09VO 02VC 02MD 02MO 02MC 02RD 02RO	1	0	2.30417203903	454.0	356.0	448	357	1
2.7	2015_May_20_1428	s	s	10	3	SIC	283	RC	1	1	02VD 02VO 02VC 02MD 09MO 02MC 02RD 02RO	0	1	2.89025092125	537.0	349.0	None	None	0
2.7	2015_May_20_1428	s	s	10	3	SIC	284	ABS	2	1	02VD 10VO 02VC 02MD 02MO 02MC 02RD 02RO	0	1	2.03104496002	None	None	None	None	1
2.7	2015_May_20_1428	s	s	10	3	SIC	285	ABS	0	1	02VD 02VO 02VC 02MD 02MO 02MC 02RD 10RO	0	1	3.67757296562	None	None	None	None	1
2.7	2015_May_20_1428	s	s	10	3	SIC	286	RC	2	0	02VD 02VO 09VC 02MD 02MO 02MC 02RD 02RO	1	0	1.10603618622	76.0	73.0	71	64	1
2.7	2015_May_20_1428	s	s	10	3	SIC	287	RC	0	2	02VD 02VO 02VC 02MD 02MO 02MC 09RD 02RO	1	0	2.07779383659	-451.0	-398.0	-453	-400	1
2.7	2015_May_20_1428	s	s	10	3	SIC	288	RC	0	1	02VD 02VO 02VC 02MD 02MO 02MC 02RD 09RO	1	0	1.12390995026	-302.0	146.0	-306	148	1
2.7	2015_May_20_1428	s	s	10	3	SIC	289	RC	2	1	02VD 09VO 02VC 02MD 02MO 02MC 02RD 02RO	1	0	1.96251606941	43.0	-358.0	38	-357	1
2.7	2015_May_20_1428	s	s	10	3	SIC	290	RC	1	1	02VD 02VO 02VC 02MD 09MO 02MC 02RD 02RO	1	0	3.28096795082	-383.0	-260.0	-376	-260	1
2.7	2015_May_20_1428	s	s	10	3	SIC	291	RC	1	2	02VD 02VO 02VC 09MD 02MO 02MC 02RD 02RO	1	0	1.78213405609	-118.0	411.0	-119	406	1
2.7	2015_May_20_1428	s	s	10	3	SIC	292	ABS	0	1	02VD 02VO 02VC 02MD 02MO 02MC 02RD 10RO	0	1	3.0597858429	None	None	None	None	1
2.7	2015_May_20_1428	s	s	10	3	SIC	293	ABS	2	2	10VD 02VO 02VC 02MD 02MO 02MC 02RD 02RO	0	1	1.53632593155	None	None	None	None	1
2.7	2015_May_20_1428	s	s	10	3	SIC	294	ABS	1	2	02VD 02VO 02VC 10MD 02MO 02MC 02RD 02RO	0	1	1.32694196701	None	None	None	None	1
2.7	2015_May_20_1428	s	s	10	3	SIC	295	ABS	2	1	02VD 10VO 02VC 02MD 02MO 02MC 02RD 02RO	0	1	1.75992202759	None	None	None	None	1
2.7	2015_May_20_1428	s	s	10	3	SIC	296	ABS	1	1	02VD 02VO 02VC 02MD 10MO 02MC 02RD 02RO	0	1	2.02385401726	None	None	None	None	1
2.7	2015_May_20_1428	s	s	10	3	SIC	297	RC	2	2	09VD 02VO 02VC 02MD 02MO 02MC 02RD 02RO	1	0	0.89391207695	-60.0	-271.0	-58	-282	1
2.7	2015_May_20_1428	s	s	10	3	SIC	298	RC	2	0	02VD 02VO 09VC 02MD 02MO 02MC 02RD 02RO	1	0	2.57711601257	-316.0	-295.0	-319	-296	1
2.7	2015_May_20_1428	s	s	10	3	SIC	299	RC	1	0	02VD 02VO 02VC 02MD 02MO 09MC 02RD 02RO	1	0	1.14744400978	284.0	53.0	290	55	1
2.7	2015_May_20_1428	s	s	10	3	SIC	300	RC	0	2	02VD 02VO 02VC 02MD 02MO 02MC 09RD 02RO	1	0	1.06553387642	32.0	-275.0	33	-285	1
2.7	2015_May_20_1428	s	s	10	3	SIC	301	ABS	2	0	02VD 02VO 10VC 02MD 02MO 02MC 02RD 02RO	0	1	1.90287995338	None	None	None	None	1
2.7	2015_May_20_1428	s	s	10	3	SIC	302	ABS	0	2	02VD 02VO 02VC 02MD 02MO 02MC 10RD 02RO	0	1	3.01969695091	None	None	None	None	1
2.7	2015_May_20_1428	s	s	10	3	SIC	303	RC	0	1	02VD 02VO 02VC 02MD 02MO 02MC 02RD 09RO	1	0	0.893931150436	-170.0	135.0	-170	129	1
2.7	2015_May_20_1428	s	s	10	3	SIC	304	ABS	1	0	02VD 02VO 02VC 02MD 02MO 10MC 02RD 02RO	0	1	3.50711798668	None	None	None	None	1
2.7	2015_May_20_1428	s	s	10	3	SIC	305	RC	1	0	02VD 02VO 02VC 02MD 02MO 09MC 02RD 02RO	1	0	1.1410908699	59.0	200.0	53	196	1
2.7	2015_May_20_1428	s	s	10	3	SIC	306	ABS	2	0	02VD 02VO 10VC 02MD 02MO 02MC 02RD 02RO	0	1	2.81259298325	None	None	None	None	1
2.7	2015_May_20_1428	s	s	10	3	SIC	307	RC	2	2	09VD 02VO 02VC 02MD 02MO 02MC 02RD 02RO	0	1	4.02486395836	381.0	-214.0	None	None	0
2.7	2015_May_20_1428	s	s	10	3	SIC	308	ABS	1	2	02VD 02VO 02VC 10MD 02MO 02MC 02RD 02RO	0	1	2.47920894623	None	None	None	None	1
2.7	2015_May_20_1428	s	s	10	3	SIC	309	ABS	2	1	02VD 10VO 02VC 02MD 02MO 02MC 02RD 02RO	0	1	2.04747915268	None	None	None	None	1
2.7	2015_May_20_1428	s	s	10	3	SIC	310	RC	0	1	02VD 02VO 02VC 02MD 02MO 02MC 02RD 09RO	1	0	3.57289409637	153.0	368.0	155	367	1
2.7	2015_May_20_1428	s	s	10	3	SIC	311	RC	2	0	02VD 02VO 09VC 02MD 02MO 02MC 02RD 02RO	1	0	2.35355901718	335.0	-334.0	335	-339	1
2.7	2015_May_20_1428	s	s	10	3	SIC	312	ABS	2	2	10VD 02VO 02VC 02MD 02MO 02MC 02RD 02RO	0	1	2.38612294197	None	None	None	None	1
2.7	2015_May_20_1428	s	s	10	3	SIC	313	RC	0	2	02VD 02VO 02VC 02MD 02MO 02MC 09RD 02RO	1	0	2.37703585625	-253.0	-143.0	-258	-143	1
2.7	2015_May_20_1428	s	s	10	3	SIC	314	RC	2	1	02VD 09VO 02VC 02MD 02MO 02MC 02RD 02RO	1	0	1.39481091499	-156.0	339.0	-148	341	1
2.7	2015_May_20_1428	s	s	10	3	SIC	315	RC	1	1	02VD 02VO 02VC 02MD 09MO 02MC 02RD 02RO	1	0	2.04236197472	152.0	-239.0	152	-234	1
2.7	2015_May_20_1428	s	s	10	3	SIC	316	RC	1	2	02VD 02VO 02VC 09MD 02MO 02MC 02RD 02RO	1	0	4.25693583488	-45.0	243.0	-49	245	1
2.7	2015_May_20_1428	s	s	10	3	SIC	317	ABS	0	2	02VD 02VO 02VC 02MD 02MO 02MC 10RD 02RO	0	1	2.21590805054	None	None	None	None	1
2.7	2015_May_20_1428	s	s	10	3	SIC	318	ABS	0	1	02VD 02VO 02VC 02MD 02MO 02MC 02RD 10RO	0	1	2.72534894943	None	None	None	None	1
2.7	2015_May_20_1428	s	s	10	3	SIC	319	ABS	1	0	02VD 02VO 02VC 02MD 02MO 10MC 02RD 02RO	0	1	7.65936183929	None	None	None	None	1
2.7	2015_May_20_1428	s	s	10	3	SIC	320	ABS	1	1	02VD 02VO 02VC 02MD 10MO 02MC 02RD 02RO	0	1	3.67800211906	None	None	None	None	1
2.7	2015_May_20_1428	s	s	10	3	SIC	321	RC	1	1	02VD 02VO 02VC 02MD 09MO 02MC 02RD 02RO	1	0	2.55365610123	-34.0	-295.0	-32	-287	1
2.7	2015_May_20_1428	s	s	10	3	SIC	322	ABS	0	1	02VD 02VO 02VC 02MD 02MO 02MC 02RD 10RO	0	1	2.95382905006	None	None	None	None	1
2.7	2015_May_20_1428	s	s	10	3	SIC	323	RC	2	2	09VD 02VO 02VC 02MD 02MO 02MC 02RD 02RO	1	0	5.61386609077	-513.0	-333.0	-517	-332	1
2.7	2015_May_20_1428	s	s	10	3	SIC	324	RC	1	0	02VD 02VO 02VC 02MD 02MO 09MC 02RD 02RO	0	1	8.96574783325	200.0	-12.0	None	None	0
2.7	2015_May_20_1428	s	s	10	3	SIC	325	ABS	2	1	02VD 10VO 02VC 02MD 02MO 02MC 02RD 02RO	0	1	1.97675704956	None	None	None	None	1
2.7	2015_May_20_1428	s	s	10	3	SIC	326	ABS	1	2	02VD 02VO 02VC 10MD 02MO 02MC 02RD 02RO	0	1	2.2895720005	None	None	None	None	1
2.7	2015_May_20_1428	s	s	10	3	SIC	327	ABS	1	0	02VD 02VO 02VC 02MD 02MO 10MC 02RD 02RO	0	1	3.57765889168	None	None	None	None	1
2.7	2015_May_20_1428	s	s	10	3	SIC	328	ABS	1	1	02VD 02VO 02VC 02MD 10MO 02MC 02RD 02RO	0	1	1.72452402115	None	None	None	None	1
2.7	2015_May_20_1428	s	s	10	3	SIC	329	RC	0	2	02VD 02VO 02VC 02MD 02MO 02MC 09RD 02RO	1	0	1.38280320168	-95.0	301.0	-94	292	1
2.7	2015_May_20_1428	s	s	10	3	SIC	330	RC	2	0	02VD 02VO 09VC 02MD 02MO 02MC 02RD 02RO	1	0	0.994693994522	211.0	-86.0	213	-84	1
2.7	2015_May_20_1428	s	s	10	3	SIC	331	ABS	0	2	02VD 02VO 02VC 02MD 02MO 02MC 10RD 02RO	0	1	2.37213611603	None	None	None	None	1
2.7	2015_May_20_1428	s	s	10	3	SIC	332	ABS	2	0	02VD 02VO 10VC 02MD 02MO 02MC 02RD 02RO	0	1	2.17698812485	None	None	None	None	1
2.7	2015_May_20_1428	s	s	10	3	SIC	333	RC	1	2	02VD 02VO 02VC 09MD 02MO 02MC 02RD 02RO	1	0	4.15081787109	325.0	261.0	322	259	1
2.7	2015_May_20_1428	s	s	10	3	SIC	334	RC	0	1	02VD 02VO 02VC 02MD 02MO 02MC 02RD 09RO	1	0	0.984200000763	199.0	257.0	196	254	1
2.7	2015_May_20_1428	s	s	10	3	SIC	335	ABS	2	2	10VD 02VO 02VC 02MD 02MO 02MC 02RD 02RO	0	1	3.04188609123	None	None	None	None	1
2.7	2015_May_20_1428	s	s	10	3	SIC	336	RC	2	1	02VD 09VO 02VC 02MD 02MO 02MC 02RD 02RO	1	0	2.14778995514	401.0	-335.0	400	-336	1
2.7	2015_May_20_1428	s	s	10	3	SIC	337	ABS	2	1	02VD 10VO 02VC 02MD 02MO 02MC 02RD 02RO	0	1	2.69477581978	None	None	None	None	1
2.7	2015_May_20_1428	s	s	10	3	SIC	338	RC	2	0	02VD 02VO 09VC 02MD 02MO 02MC 02RD 02RO	1	0	1.93573498726	-268.0	255.0	-273	255	1
2.7	2015_May_20_1428	s	s	10	3	SIC	339	ABS	1	1	02VD 02VO 02VC 02MD 10MO 02MC 02RD 02RO	0	1	6.56464505196	None	None	None	None	1
2.7	2015_May_20_1428	s	s	10	3	SIC	340	RC	2	1	02VD 09VO 02VC 02MD 02MO 02MC 02RD 02RO	1	0	3.40718221664	323.0	-395.0	323	-397	1
2.7	2015_May_20_1428	s	s	10	3	SIC	341	ABS	2	2	10VD 02VO 02VC 02MD 02MO 02MC 02RD 02RO	0	1	3.77372384071	None	None	None	None	1
2.7	2015_May_20_1428	s	s	10	3	SIC	342	RC	0	1	02VD 02VO 02VC 02MD 02MO 02MC 02RD 09RO	1	0	1.21805405617	276.0	-223.0	280	-219	1
2.7	2015_May_20_1428	s	s	10	3	SIC	343	ABS	2	0	02VD 02VO 10VC 02MD 02MO 02MC 02RD 02RO	0	1	2.24452400208	None	None	None	None	1
2.7	2015_May_20_1428	s	s	10	3	SIC	344	RC	1	2	02VD 02VO 02VC 09MD 02MO 02MC 02RD 02RO	1	0	1.04382205009	-71.0	-169.0	-70	-164	1
2.7	2015_May_20_1428	s	s	10	3	SIC	345	ABS	1	2	02VD 02VO 02VC 10MD 02MO 02MC 02RD 02RO	0	1	2.38876819611	None	None	None	None	1
2.7	2015_May_20_1428	s	s	10	3	SIC	346	RC	2	2	09VD 02VO 02VC 02MD 02MO 02MC 02RD 02RO	1	0	2.64282298088	178.0	95.0	181	94	1
2.7	2015_May_20_1428	s	s	10	3	SIC	347	ABS	0	2	02VD 02VO 02VC 02MD 02MO 02MC 10RD 02RO	0	1	2.20866990089	None	None	None	None	1
2.7	2015_May_20_1428	s	s	10	3	SIC	348	RC	0	2	02VD 02VO 02VC 02MD 02MO 02MC 09RD 02RO	1	0	1.45885586739	386.0	-41.0	383	-35	1
2.7	2015_May_20_1428	s	s	10	3	SIC	349	ABS	1	0	02VD 02VO 02VC 02MD 02MO 10MC 02RD 02RO	0	1	2.04217290878	None	None	None	None	1
2.7	2015_May_20_1428	s	s	10	3	SIC	350	ABS	0	1	02VD 02VO 02VC 02MD 02MO 02MC 02RD 10RO	0	1	2.79864788055	None	None	None	None	1
2.7	2015_May_20_1428	s	s	10	3	SIC	351	RC	1	0	02VD 02VO 02VC 02MD 02MO 09MC 02RD 02RO	1	0	1.35678505898	-220.0	-195.0	-230	-191	1
2.7	2015_May_20_1428	s	s	10	3	SIC	352	RC	1	1	02VD 02VO 02VC 02MD 09MO 02MC 02RD 02RO	1	0	2.45130205154	-233.0	-1.0	-235	-4	1
2.7	2015_May_20_1428	s	s	10	3	SIC	353	ABS	2	0	02VD 02VO 10VC 02MD 02MO 02MC 02RD 02RO	0	1	3.18972015381	None	None	None	None	1
2.7	2015_May_20_1428	s	s	10	3	SIC	354	RC	2	1	02VD 09VO 02VC 02MD 02MO 02MC 02RD 02RO	1	0	1.47990202904	416.0	391.0	411	397	1
2.7	2015_May_20_1428	s	s	10	3	SIC	355	RC	1	2	02VD 02VO 02VC 09MD 02MO 02MC 02RD 02RO	1	0	2.9250600338	-119.0	-329.0	-125	-331	1
2.7	2015_May_20_1428	s	s	10	3	SIC	356	RC	0	1	02VD 02VO 02VC 02MD 02MO 02MC 02RD 09RO	0	1	3.64456105232	-500.0	212.0	None	None	0
2.7	2015_May_20_1428	s	s	10	3	SIC	357	RC	2	0	02VD 02VO 09VC 02MD 02MO 02MC 02RD 02RO	1	0	2.70164012909	509.0	-52.0	519	-45	1
2.7	2015_May_20_1428	s	s	10	3	SIC	358	ABS	2	2	10VD 02VO 02VC 02MD 02MO 02MC 02RD 02RO	0	1	1.6711909771	None	None	None	None	1
2.7	2015_May_20_1428	s	s	10	3	SIC	359	ABS	0	2	02VD 02VO 02VC 02MD 02MO 02MC 10RD 02RO	0	1	1.06814217567	None	None	None	None	1
2.7	2015_May_20_1428	s	s	10	3	SIC	360	ABS	2	1	02VD 10VO 02VC 02MD 02MO 02MC 02RD 02RO	0	1	1.68255901337	None	None	None	None	1
2.7	2015_May_20_1428	s	s	10	3	SIC	361	RC	0	2	02VD 02VO 02VC 02MD 02MO 02MC 09RD 02RO	1	0	1.28236293793	-411.0	-76.0	-413	-83	1
2.7	2015_May_20_1428	s	s	10	3	SIC	362	ABS	1	2	02VD 02VO 02VC 10MD 02MO 02MC 02RD 02RO	0	1	1.24712109566	None	None	None	None	1
2.7	2015_May_20_1428	s	s	10	3	SIC	363	RC	1	0	02VD 02VO 02VC 02MD 02MO 09MC 02RD 02RO	1	0	0.970623016357	116.0	-169.0	115	-173	1
2.7	2015_May_20_1428	s	s	10	3	SIC	364	ABS	1	0	02VD 02VO 02VC 02MD 02MO 10MC 02RD 02RO	0	1	1.62366890907	None	None	None	None	1
2.7	2015_May_20_1428	s	s	10	3	SIC	365	ABS	1	1	02VD 02VO 02VC 02MD 10MO 02MC 02RD 02RO	0	1	1.50076913834	None	None	None	None	1
2.7	2015_May_20_1428	s	s	10	3	SIC	366	RC	1	1	02VD 02VO 02VC 02MD 09MO 02MC 02RD 02RO	1	0	0.911560058594	52.0	-303.0	49	-308	1
2.7	2015_May_20_1428	s	s	10	3	SIC	367	ABS	0	1	02VD 02VO 02VC 02MD 02MO 02MC 02RD 10RO	0	1	2.78884601593	None	None	None	None	1
2.7	2015_May_20_1428	s	s	10	3	SIC	368	RC	2	2	09VD 02VO 02VC 02MD 02MO 02MC 02RD 02RO	1	0	1.20579600334	-167.0	347.0	-156	349	1
2.7	2015_May_20_1428	s	s	10	3	SIC	369	ABS	1	2	02VD 02VO 02VC 10MD 02MO 02MC 02RD 02RO	0	1	1.54123401642	None	None	None	None	1
2.7	2015_May_20_1428	s	s	10	3	SIC	370	ABS	0	1	02VD 02VO 02VC 02MD 02MO 02MC 02RD 10RO	0	1	2.2913980484	None	None	None	None	1
2.7	2015_May_20_1428	s	s	10	3	SIC	371	RC	0	1	02VD 02VO 02VC 02MD 02MO 02MC 02RD 09RO	0	1	5.196434021	375.0	-44.0	None	None	0
2.7	2015_May_20_1428	s	s	10	3	SIC	372	RC	1	0	02VD 02VO 02VC 02MD 02MO 09MC 02RD 02RO	1	0	1.9586148262	-346.0	67.0	-345	58	1
2.7	2015_May_20_1428	s	s	10	3	SIC	373	ABS	2	1	02VD 10VO 02VC 02MD 02MO 02MC 02RD 02RO	0	1	1.1243929863	None	None	None	None	1
2.7	2015_May_20_1428	s	s	10	3	SIC	374	ABS	2	2	10VD 02VO 02VC 02MD 02MO 02MC 02RD 02RO	0	1	1.44707608223	None	None	None	None	1
2.7	2015_May_20_1428	s	s	10	3	SIC	375	RC	1	2	02VD 02VO 02VC 09MD 02MO 02MC 02RD 02RO	0	1	1.11458206177	345.0	85.0	None	None	0
2.7	2015_May_20_1428	s	s	10	3	SIC	376	ABS	1	1	02VD 02VO 02VC 02MD 10MO 02MC 02RD 02RO	0	1	1.62019896507	None	None	None	None	1
2.7	2015_May_20_1428	s	s	10	3	SIC	377	RC	2	2	09VD 02VO 02VC 02MD 02MO 02MC 02RD 02RO	0	1	1.01167011261	-380.0	-362.0	None	None	0
2.7	2015_May_20_1428	s	s	10	3	SIC	378	RC	0	2	02VD 02VO 02VC 02MD 02MO 02MC 09RD 02RO	1	0	1.73915696144	15.0	-241.0	15	-241	1
2.7	2015_May_20_1428	s	s	10	3	SIC	379	ABS	1	0	02VD 02VO 02VC 02MD 02MO 10MC 02RD 02RO	0	1	1.08227300644	None	None	None	None	1
2.7	2015_May_20_1428	s	s	10	3	SIC	380	RC	1	1	02VD 02VO 02VC 02MD 09MO 02MC 02RD 02RO	1	0	1.59713602066	95.0	378.0	95	381	1
2.7	2015_May_20_1428	s	s	10	3	SIC	381	RC	2	1	02VD 09VO 02VC 02MD 02MO 02MC 02RD 02RO	1	0	2.04484510422	-99.0	-78.0	-96	-68	1
2.7	2015_May_20_1428	s	s	10	3	SIC	382	ABS	0	2	02VD 02VO 02VC 02MD 02MO 02MC 10RD 02RO	0	1	1.26527690887	None	None	None	None	1
2.7	2015_May_20_1428	s	s	10	3	SIC	383	ABS	2	0	02VD 02VO 10VC 02MD 02MO 02MC 02RD 02RO	0	1	2.0120818615	None	None	None	None	1
2.7	2015_May_20_1428	s	s	10	3	SIC	384	RC	2	0	02VD 02VO 09VC 02MD 02MO 02MC 02RD 02RO	1	0	1.10020804405	-461.0	43.0	-454	36	1
2.7	2015_May_20_1428	s	s	10	3	SIC	385	ABS	2	1	02VD 10VO 02VC 02MD 02MO 02MC 02RD 02RO	0	1	1.19555091858	None	None	None	None	1
2.7	2015_May_20_1428	s	s	10	3	SIC	386	ABS	1	1	02VD 02VO 02VC 02MD 10MO 02MC 02RD 02RO	0	1	1.60678100586	None	None	None	None	1
2.7	2015_May_20_1428	s	s	10	3	SIC	387	ABS	0	1	02VD 02VO 02VC 02MD 02MO 02MC 02RD 10RO	0	1	2.12492609024	None	None	None	None	1
2.7	2015_May_20_1428	s	s	10	3	SIC	388	RC	0	2	02VD 02VO 02VC 02MD 02MO 02MC 09RD 02RO	1	0	3.13036513329	511.0	50.0	511	53	1
2.7	2015_May_20_1428	s	s	10	3	SIC	389	RC	1	2	02VD 02VO 02VC 09MD 02MO 02MC 02RD 02RO	1	0	1.65690994263	-322.0	-62.0	-318	-66	1
2.7	2015_May_20_1428	s	s	10	3	SIC	390	RC	0	1	02VD 02VO 02VC 02MD 02MO 02MC 02RD 09RO	0	1	2.22385692596	-231.0	401.0	None	None	0
2.7	2015_May_20_1428	s	s	10	3	SIC	391	ABS	0	2	02VD 02VO 02VC 02MD 02MO 02MC 10RD 02RO	0	1	1.47715210915	None	None	None	None	1
2.7	2015_May_20_1428	s	s	10	3	SIC	392	RC	2	1	02VD 09VO 02VC 02MD 02MO 02MC 02RD 02RO	0	1	1.16120290756	-324.0	-238.0	None	None	0
2.7	2015_May_20_1428	s	s	10	3	SIC	393	RC	2	2	09VD 02VO 02VC 02MD 02MO 02MC 02RD 02RO	1	0	1.77160596848	19.0	-270.0	22	-269	1
2.7	2015_May_20_1428	s	s	10	3	SIC	394	ABS	1	0	02VD 02VO 02VC 02MD 02MO 10MC 02RD 02RO	0	1	1.64290499687	None	None	None	None	1
2.7	2015_May_20_1428	s	s	10	3	SIC	395	RC	1	1	02VD 02VO 02VC 02MD 09MO 02MC 02RD 02RO	1	0	6.92050099373	-194.0	-359.0	-190	-352	1
2.7	2015_May_20_1428	s	s	10	3	SIC	396	ABS	1	2	02VD 02VO 02VC 10MD 02MO 02MC 02RD 02RO	0	1	2.18868494034	None	None	None	None	1
2.7	2015_May_20_1428	s	s	10	3	SIC	397	RC	2	0	02VD 02VO 09VC 02MD 02MO 02MC 02RD 02RO	0	1	1.54788398743	364.0	-7.0	None	None	0
2.7	2015_May_20_1428	s	s	10	3	SIC	398	RC	1	0	02VD 02VO 02VC 02MD 02MO 09MC 02RD 02RO	1	0	2.71285009384	-482.0	-193.0	-483	-188	1
2.7	2015_May_20_1428	s	s	10	3	SIC	399	ABS	2	2	10VD 02VO 02VC 02MD 02MO 02MC 02RD 02RO	0	1	1.7922539711	None	None	None	None	1
2.7	2015_May_20_1428	s	s	10	3	SIC	400	ABS	2	0	02VD 02VO 10VC 02MD 02MO 02MC 02RD 02RO	0	1	1.36483597755	None	None	None	None	1
2.7	2015_May_20_1428	s	s	10	3	SIC	401	ABS	1	2	02VD 02VO 02VC 10MD 02MO 02MC 02RD 02RO	0	1	1.11761689186	None	None	None	None	1
2.7	2015_May_20_1428	s	s	10	3	SIC	402	ABS	1	0	02VD 02VO 02VC 02MD 02MO 10MC 02RD 02RO	0	1	1.49992084503	None	None	None	None	1
2.7	2015_May_20_1428	s	s	10	3	SIC	403	RC	1	1	02VD 02VO 02VC 02MD 09MO 02MC 02RD 02RO	1	0	1.60930800438	-477.0	243.0	-480	252	1
2.7	2015_May_20_1428	s	s	10	3	SIC	404	RC	1	0	02VD 02VO 02VC 02MD 02MO 09MC 02RD 02RO	1	0	1.57214713097	380.0	-346.0	379	-347	1
2.7	2015_May_20_1428	s	s	10	3	SIC	405	RC	2	1	02VD 09VO 02VC 02MD 02MO 02MC 02RD 02RO	1	0	1.35042595863	408.0	405.0	404	397	1
2.7	2015_May_20_1428	s	s	10	3	SIC	406	ABS	2	1	02VD 10VO 02VC 02MD 02MO 02MC 02RD 02RO	0	1	1.70608901978	None	None	None	None	1
2.7	2015_May_20_1428	s	s	10	3	SIC	407	ABS	0	1	02VD 02VO 02VC 02MD 02MO 02MC 02RD 10RO	0	1	3.42459893227	None	None	None	None	1
2.7	2015_May_20_1428	s	s	10	3	SIC	408	RC	0	1	02VD 02VO 02VC 02MD 02MO 02MC 02RD 09RO	1	0	2.78676009178	-249.0	-388.0	-255	-383	1
2.7	2015_May_20_1428	s	s	10	3	SIC	409	RC	1	2	02VD 02VO 02VC 09MD 02MO 02MC 02RD 02RO	1	0	1.81206703186	5.0	395.0	2	396	1
2.7	2015_May_20_1428	s	s	10	3	SIC	410	ABS	0	2	02VD 02VO 02VC 02MD 02MO 02MC 10RD 02RO	0	1	1.75317406654	None	None	None	None	1
2.7	2015_May_20_1428	s	s	10	3	SIC	411	ABS	2	0	02VD 02VO 10VC 02MD 02MO 02MC 02RD 02RO	0	1	2.25933814049	None	None	None	None	1
2.7	2015_May_20_1428	s	s	10	3	SIC	412	RC	2	0	02VD 02VO 09VC 02MD 02MO 02MC 02RD 02RO	1	0	4.17315006256	503.0	-16.0	502	-18	1
2.7	2015_May_20_1428	s	s	10	3	SIC	413	RC	2	2	09VD 02VO 02VC 02MD 02MO 02MC 02RD 02RO	1	0	1.78848695755	-280.0	182.0	-282	185	1
2.7	2015_May_20_1428	s	s	10	3	SIC	414	ABS	2	2	10VD 02VO 02VC 02MD 02MO 02MC 02RD 02RO	0	1	1.67775821686	None	None	None	None	1
2.7	2015_May_20_1428	s	s	10	3	SIC	415	RC	0	2	02VD 02VO 02VC 02MD 02MO 02MC 09RD 02RO	1	0	1.22346019745	-267.0	54.0	-273	45	1
2.7	2015_May_20_1428	s	s	10	3	SIC	416	ABS	1	1	02VD 02VO 02VC 02MD 10MO 02MC 02RD 02RO	0	1	1.95317101479	None	None	None	None	1
2.7	2015_May_20_1428	s	s	10	3	SIC	417	RC	1	1	02VD 02VO 02VC 02MD 09MO 02MC 02RD 02RO	1	0	2.05935096741	137.0	160.0	135	160	1
2.7	2015_May_20_1428	s	s	10	3	SIC	418	ABS	1	1	02VD 02VO 02VC 02MD 10MO 02MC 02RD 02RO	0	1	1.79390883446	None	None	None	None	1
2.7	2015_May_20_1428	s	s	10	3	SIC	419	ABS	0	2	02VD 02VO 02VC 02MD 02MO 02MC 10RD 02RO	0	1	2.17697191238	None	None	None	None	1
2.7	2015_May_20_1428	s	s	10	3	SIC	420	ABS	2	2	10VD 02VO 02VC 02MD 02MO 02MC 02RD 02RO	0	1	1.61812996864	None	None	None	None	1
2.7	2015_May_20_1428	s	s	10	3	SIC	421	ABS	1	2	02VD 02VO 02VC 10MD 02MO 02MC 02RD 02RO	0	1	1.89136910439	None	None	None	None	1
2.7	2015_May_20_1428	s	s	10	3	SIC	422	RC	0	1	02VD 02VO 02VC 02MD 02MO 02MC 02RD 09RO	1	0	1.21181702614	-261.0	-124.0	-258	-125	1
2.7	2015_May_20_1428	s	s	10	3	SIC	423	RC	2	1	02VD 09VO 02VC 02MD 02MO 02MC 02RD 02RO	1	0	2.24252986908	517.0	-178.0	520	-174	1
2.7	2015_May_20_1428	s	s	10	3	SIC	424	RC	0	2	02VD 02VO 02VC 02MD 02MO 02MC 09RD 02RO	1	0	1.9886200428	230.0	-303.0	224	-297	1
2.7	2015_May_20_1428	s	s	10	3	SIC	425	RC	2	0	02VD 02VO 09VC 02MD 02MO 02MC 02RD 02RO	1	0	1.08952093124	-289.0	-107.0	-293	-106	1
2.7	2015_May_20_1428	s	s	10	3	SIC	426	ABS	2	0	02VD 02VO 10VC 02MD 02MO 02MC 02RD 02RO	0	1	2.28969693184	None	None	None	None	1
2.7	2015_May_20_1428	s	s	10	3	SIC	427	ABS	0	1	02VD 02VO 02VC 02MD 02MO 02MC 02RD 10RO	0	1	2.9891910553	None	None	None	None	1
2.7	2015_May_20_1428	s	s	10	3	SIC	428	RC	2	2	09VD 02VO 02VC 02MD 02MO 02MC 02RD 02RO	0	1	4.80178380013	-485.0	-19.0	None	None	0
2.7	2015_May_20_1428	s	s	10	3	SIC	429	RC	1	2	02VD 02VO 02VC 09MD 02MO 02MC 02RD 02RO	1	0	2.23587584496	-27.0	252.0	-23	248	1
2.7	2015_May_20_1428	s	s	10	3	SIC	430	ABS	2	1	02VD 10VO 02VC 02MD 02MO 02MC 02RD 02RO	0	1	1.753221035	None	None	None	None	1
2.7	2015_May_20_1428	s	s	10	3	SIC	431	RC	1	0	02VD 02VO 02VC 02MD 02MO 09MC 02RD 02RO	1	0	1.74778079987	-257.0	348.0	-258	347	1
2.7	2015_May_20_1428	s	s	10	3	SIC	432	ABS	1	0	02VD 02VO 02VC 02MD 02MO 10MC 02RD 02RO	0	1	1.88851714134	None	None	None	None	1
2.7	2015_May_20_1428	s	s	10	3	SIC	433	RC	0	2	02VD 02VO 02VC 02MD 02MO 02MC 09RD 02RO	0	1	1.84180188179	406.0	-249.0	None	None	0
2.7	2015_May_20_1428	s	s	10	3	SIC	434	ABS	1	2	02VD 02VO 02VC 10MD 02MO 02MC 02RD 02RO	0	1	3.44817280769	None	None	None	None	1
2.7	2015_May_20_1428	s	s	10	3	SIC	435	RC	0	1	02VD 02VO 02VC 02MD 02MO 02MC 02RD 09RO	1	0	3.17748999596	282.0	156.0	279	163	1
2.7	2015_May_20_1428	s	s	10	3	SIC	436	ABS	1	0	02VD 02VO 02VC 02MD 02MO 10MC 02RD 02RO	0	1	1.06575703621	None	None	None	None	1
2.7	2015_May_20_1428	s	s	10	3	SIC	437	ABS	2	2	10VD 02VO 02VC 02MD 02MO 02MC 02RD 02RO	0	1	2.47792887688	None	None	None	None	1
2.7	2015_May_20_1428	s	s	10	3	SIC	438	ABS	0	1	02VD 02VO 02VC 02MD 02MO 02MC 02RD 10RO	0	1	3.13900899887	None	None	None	None	1
2.7	2015_May_20_1428	s	s	10	3	SIC	439	RC	1	0	02VD 02VO 02VC 02MD 02MO 09MC 02RD 02RO	0	1	8.58940386772	-322.0	138.0	None	None	0
2.7	2015_May_20_1428	s	s	10	3	SIC	440	RC	2	1	02VD 09VO 02VC 02MD 02MO 02MC 02RD 02RO	1	0	0.736204862595	-232.0	103.0	-238	104	1
2.7	2015_May_20_1428	s	s	10	3	SIC	441	RC	1	1	02VD 02VO 02VC 02MD 09MO 02MC 02RD 02RO	0	1	2.17698192596	-446.0	-122.0	None	None	0
2.7	2015_May_20_1428	s	s	10	3	SIC	442	ABS	2	1	02VD 10VO 02VC 02MD 02MO 02MC 02RD 02RO	0	1	0.806792974472	None	None	None	None	1
2.7	2015_May_20_1428	s	s	10	3	SIC	443	RC	1	2	02VD 02VO 02VC 09MD 02MO 02MC 02RD 02RO	1	0	1.14139294624	-489.0	58.0	-486	59	1
2.7	2015_May_20_1428	s	s	10	3	SIC	444	RC	2	2	09VD 02VO 02VC 02MD 02MO 02MC 02RD 02RO	1	0	0.858620166779	-179.0	8.0	-180	11	1
2.7	2015_May_20_1428	s	s	10	3	SIC	445	ABS	1	1	02VD 02VO 02VC 02MD 10MO 02MC 02RD 02RO	0	1	1.08228898048	None	None	None	None	1
2.7	2015_May_20_1428	s	s	10	3	SIC	446	ABS	2	0	02VD 02VO 10VC 02MD 02MO 02MC 02RD 02RO	0	1	1.47742795944	None	None	None	None	1
2.7	2015_May_20_1428	s	s	10	3	SIC	447	RC	2	0	02VD 02VO 09VC 02MD 02MO 02MC 02RD 02RO	0	1	1.23523306847	308.0	-335.0	None	None	0
2.7	2015_May_20_1428	s	s	10	3	SIC	448	ABS	0	2	02VD 02VO 02VC 02MD 02MO 02MC 10RD 02RO	0	1	2.36211800575	None	None	None	None	1
2.7	2015_May_20_1428	s	s	10	3	SIC	449	RC	2	0	02VD 02VO 09VC 02MD 02MO 02MC 02RD 02RO	1	0	0.972777843475	-484.0	-338.0	-479	-336	1
2.7	2015_May_20_1428	s	s	10	3	SIC	450	ABS	0	2	02VD 02VO 02VC 02MD 02MO 02MC 10RD 02RO	0	1	1.68236088753	None	None	None	None	1
2.7	2015_May_20_1428	s	s	10	3	SIC	451	RC	2	2	09VD 02VO 02VC 02MD 02MO 02MC 02RD 02RO	1	0	1.65395092964	299.0	307.0	300	307	1
2.7	2015_May_20_1428	s	s	10	3	SIC	452	RC	1	1	02VD 02VO 02VC 02MD 09MO 02MC 02RD 02RO	1	0	1.04718708992	-357.0	106.0	-353	106	1
2.7	2015_May_20_1428	s	s	10	3	SIC	453	ABS	1	2	02VD 02VO 02VC 10MD 02MO 02MC 02RD 02RO	0	1	1.45900702477	None	None	None	None	1
2.7	2015_May_20_1428	s	s	10	3	SIC	454	ABS	0	1	02VD 02VO 02VC 02MD 02MO 02MC 02RD 10RO	0	1	3.37753796577	None	None	None	None	1
2.7	2015_May_20_1428	s	s	10	3	SIC	455	ABS	2	0	02VD 02VO 10VC 02MD 02MO 02MC 02RD 02RO	0	1	1.45403814316	None	None	None	None	1
2.7	2015_May_20_1428	s	s	10	3	SIC	456	ABS	1	0	02VD 02VO 02VC 02MD 02MO 10MC 02RD 02RO	0	1	1.71786999702	None	None	None	None	1
2.7	2015_May_20_1428	s	s	10	3	SIC	457	RC	1	0	02VD 02VO 02VC 02MD 02MO 09MC 02RD 02RO	1	0	1.51314306259	293.0	13.0	288	17	1
2.7	2015_May_20_1428	s	s	10	3	SIC	458	RC	2	1	02VD 09VO 02VC 02MD 02MO 02MC 02RD 02RO	0	1	2.33644795418	-352.0	243.0	None	None	0
2.7	2015_May_20_1428	s	s	10	3	SIC	459	RC	0	1	02VD 02VO 02VC 02MD 02MO 02MC 02RD 09RO	0	1	2.04749703407	-286.0	-202.0	None	None	0
2.7	2015_May_20_1428	s	s	10	3	SIC	460	ABS	2	1	02VD 10VO 02VC 02MD 02MO 02MC 02RD 02RO	0	1	1.81844592094	None	None	None	None	1
2.7	2015_May_20_1428	s	s	10	3	SIC	461	ABS	2	2	10VD 02VO 02VC 02MD 02MO 02MC 02RD 02RO	0	1	2.50660300255	None	None	None	None	1
2.7	2015_May_20_1428	s	s	10	3	SIC	462	RC	0	2	02VD 02VO 02VC 02MD 02MO 02MC 09RD 02RO	1	0	1.42365694046	-21.0	194.0	-18	194	1
2.7	2015_May_20_1428	s	s	10	3	SIC	463	ABS	1	1	02VD 02VO 02VC 02MD 10MO 02MC 02RD 02RO	0	1	2.52536392212	None	None	None	None	1
2.7	2015_May_20_1428	s	s	10	3	SIC	464	RC	1	2	02VD 02VO 02VC 09MD 02MO 02MC 02RD 02RO	1	0	1.03082990646	384.0	-12.0	389	-9	1
2.7	2015_May_20_1428	s	s	10	3	SIC	465	RC	2	2	09VD 02VO 02VC 02MD 02MO 02MC 02RD 02RO	1	0	2.04748487473	448.0	-342.0	453	-337	1
2.7	2015_May_20_1428	s	s	10	3	SIC	466	RC	0	2	02VD 02VO 02VC 02MD 02MO 02MC 09RD 02RO	1	0	1.25308799744	24.0	351.0	26	352	1
2.7	2015_May_20_1428	s	s	10	3	SIC	467	ABS	1	0	02VD 02VO 02VC 02MD 02MO 10MC 02RD 02RO	0	1	2.95377397537	None	None	None	None	1
2.7	2015_May_20_1428	s	s	10	3	SIC	468	RC	2	1	02VD 09VO 02VC 02MD 02MO 02MC 02RD 02RO	0	1	1.72668504715	-531.0	-353.0	None	None	0
2.7	2015_May_20_1428	s	s	10	3	SIC	469	ABS	2	1	02VD 10VO 02VC 02MD 02MO 02MC 02RD 02RO	0	1	1.8191781044	None	None	None	None	1
2.7	2015_May_20_1428	s	s	10	3	SIC	470	ABS	1	1	02VD 02VO 02VC 02MD 10MO 02MC 02RD 02RO	0	1	2.40059614182	None	None	None	None	1
2.7	2015_May_20_1428	s	s	10	3	SIC	471	RC	0	1	02VD 02VO 02VC 02MD 02MO 02MC 02RD 09RO	0	1	4.06922507286	-419.0	330.0	None	None	0
2.7	2015_May_20_1428	s	s	10	3	SIC	472	ABS	2	0	02VD 02VO 10VC 02MD 02MO 02MC 02RD 02RO	0	1	1.7766392231	None	None	None	None	1
2.7	2015_May_20_1428	s	s	10	3	SIC	473	ABS	0	2	02VD 02VO 02VC 02MD 02MO 02MC 10RD 02RO	0	1	2.07939887047	None	None	None	None	1
2.7	2015_May_20_1428	s	s	10	3	SIC	474	RC	2	0	02VD 02VO 09VC 02MD 02MO 02MC 02RD 02RO	1	0	0.771896123886	8.0	188.0	7	192	1
2.7	2015_May_20_1428	s	s	10	3	SIC	475	RC	1	2	02VD 02VO 02VC 09MD 02MO 02MC 02RD 02RO	0	1	2.13696098328	-178.0	-312.0	None	None	0
2.7	2015_May_20_1428	s	s	10	3	SIC	476	RC	1	0	02VD 02VO 02VC 02MD 02MO 09MC 02RD 02RO	1	0	1.16468310356	-310.0	360.0	-309	366	1
2.7	2015_May_20_1428	s	s	10	3	SIC	477	ABS	0	1	02VD 02VO 02VC 02MD 02MO 02MC 02RD 10RO	0	1	2.88325500488	None	None	None	None	1
2.7	2015_May_20_1428	s	s	10	3	SIC	478	ABS	1	2	02VD 02VO 02VC 10MD 02MO 02MC 02RD 02RO	0	1	1.68258404732	None	None	None	None	1
2.7	2015_May_20_1428	s	s	10	3	SIC	479	RC	1	1	02VD 02VO 02VC 02MD 09MO 02MC 02RD 02RO	1	0	1.77714109421	-515.0	76.0	-508	72	1
2.7	2015_May_20_1428	s	s	10	3	SIC	480	ABS	2	2	10VD 02VO 02VC 02MD 02MO 02MC 02RD 02RO	0	1	0.999761819839	None	None	None	None	1
