Version	Date	Stimuli	Method	Subject	Session	Condition	Trial	Target	Channel1	Channel2	Distractors	LMouseButton	RMouseButton	RT	TargetX	TargetY	ResponseX	ResponseY	Correct
2.7	2015_May_19_1408	s	s	10	2	Capacity	1	ABS	1	0	08VC 16MC	0	1	1.61902785301	None	None	None	None	1
2.7	2015_May_19_1408	s	s	10	2	Capacity	2	ABS	2	0	16VC 08MC	0	1	0.841615200043	None	None	None	None	1
2.7	2015_May_19_1408	s	s	10	2	Capacity	3	RC	2	0	15VC 08MC	0	1	0.973658084869	323.0	404.0	None	None	0
2.7	2015_May_19_1408	s	s	10	2	Capacity	4	RC	1	0	08VC 15MC	0	1	1.3361530304	-526.0	103.0	None	None	0
2.7	2015_May_19_1408	s	s	10	2	Capacity	5	RC	2	0	15VC 08MC	0	1	1.42112994194	-372.0	-315.0	None	None	0
2.7	2015_May_19_1408	s	s	10	2	Capacity	6	ABS	2	0	16VC 08MC	0	1	1.51258611679	None	None	None	None	1
2.7	2015_May_19_1408	s	s	10	2	Capacity	7	ABS	1	0	08VC 16MC	0	1	1.86836004257	None	None	None	None	1
2.7	2015_May_19_1408	s	s	10	2	Capacity	8	RC	1	0	08VC 15MC	1	0	1.20578503609	-143.0	-90.0	-147	-91	1
2.7	2015_May_19_1408	s	s	10	2	Capacity	9	RC	2	0	15VC 08MC	1	0	2.51825594902	293.0	-404.0	294	-404	1
2.7	2015_May_19_1408	s	s	10	2	Capacity	10	RC	1	0	08VC 15MC	1	0	1.84721517563	243.0	21.0	236	23	1
2.7	2015_May_19_1408	s	s	10	2	Capacity	11	ABS	1	0	08VC 16MC	0	1	8.09516692162	None	None	None	None	1
2.7	2015_May_19_1408	s	s	10	2	Capacity	12	ABS	2	0	16VC 08MC	0	1	1.09421396255	None	None	None	None	1
2.7	2015_May_19_1408	s	s	10	2	Capacity	13	ABS	1	0	08VC 16MC	0	1	7.60364413261	None	None	None	None	1
2.7	2015_May_19_1408	s	s	10	2	Capacity	14	ABS	2	0	16VC 08MC	0	1	6.07305216789	None	None	None	None	1
2.7	2015_May_19_1408	s	s	10	2	Capacity	15	RC	2	0	15VC 08MC	1	0	0.936010122299	-36.0	96.0	-29	95	1
2.7	2015_May_19_1408	s	s	10	2	Capacity	16	RC	1	0	08VC 15MC	1	0	1.23142910004	411.0	-101.0	413	-96	1
2.7	2015_May_19_1408	s	s	10	2	Capacity	17	ABS	1	0	08VC 16MC	0	1	3.56194901466	None	None	None	None	1
2.7	2015_May_19_1408	s	s	10	2	Capacity	18	RC	2	0	15VC 08MC	1	0	1.81810593605	-425.0	-388.0	-425	-383	1
2.7	2015_May_19_1408	s	s	10	2	Capacity	19	RC	1	0	08VC 15MC	1	0	1.21180295944	-469.0	92.0	-464	92	1
2.7	2015_May_19_1408	s	s	10	2	Capacity	20	ABS	2	0	16VC 08MC	0	1	1.32939195633	None	None	None	None	1
2.7	2015_May_19_1408	s	s	10	2	Capacity	21	ABS	1	0	08VC 16MC	0	1	3.25440120697	None	None	None	None	1
2.7	2015_May_19_1408	s	s	10	2	Capacity	22	RC	1	0	08VC 15MC	1	0	0.925626993179	142.0	26.0	144	30	1
2.7	2015_May_19_1408	s	s	10	2	Capacity	23	RC	2	0	15VC 08MC	1	0	1.60013699532	447.0	-339.0	446	-343	1
2.7	2015_May_19_1408	s	s	10	2	Capacity	24	ABS	2	0	16VC 08MC	0	1	1.87873101234	None	None	None	None	1
2.7	2015_May_19_1408	s	s	10	2	Capacity	25	ABS	2	0	16VC 08MC	0	1	1.37405490875	None	None	None	None	1
2.7	2015_May_19_1408	s	s	10	2	Capacity	26	RC	1	0	08VC 15MC	1	0	1.76489305496	325.0	365.0	327	367	1
2.7	2015_May_19_1408	s	s	10	2	Capacity	27	ABS	1	0	08VC 16MC	0	1	2.31806278229	None	None	None	None	1
2.7	2015_May_19_1408	s	s	10	2	Capacity	28	RC	2	0	15VC 08MC	1	0	4.06695199013	-357.0	-365.0	-363	-367	1
2.7	2015_May_19_1408	s	s	10	2	Capacity	29	ABS	2	0	16VC 08MC	0	1	5.63227009773	None	None	None	None	1
2.7	2015_May_19_1408	s	s	10	2	Capacity	30	RC	1	0	08VC 15MC	1	0	4.71933102608	-467.0	-410.0	-470	-406	1
2.7	2015_May_19_1408	s	s	10	2	Capacity	31	ABS	1	0	08VC 16MC	0	1	3.64002203941	None	None	None	None	1
2.7	2015_May_19_1408	s	s	10	2	Capacity	32	RC	2	0	15VC 08MC	1	0	3.87875199318	-303.0	347.0	-302	343	1
2.7	2015_May_19_1408	s	s	10	2	Capacity	33	RC	2	0	15VC 08MC	1	0	3.18910694122	467.0	253.0	467	256	1
2.7	2015_May_19_1408	s	s	10	2	Capacity	34	RC	1	0	08VC 15MC	1	0	5.11146998405	247.0	362.0	247	360	1
2.7	2015_May_19_1408	s	s	10	2	Capacity	35	ABS	2	0	16VC 08MC	0	1	4.90554904938	None	None	None	None	1
2.7	2015_May_19_1408	s	s	10	2	Capacity	36	ABS	1	0	08VC 16MC	0	1	3.38421392441	None	None	None	None	1
2.7	2015_May_19_1408	s	s	10	2	Capacity	37	RC	2	0	15VC 08MC	1	0	1.76264476776	-470.0	285.0	-465	283	1
2.7	2015_May_19_1408	s	s	10	2	Capacity	38	ABS	2	0	16VC 08MC	0	1	6.48253011703	None	None	None	None	1
2.7	2015_May_19_1408	s	s	10	2	Capacity	39	ABS	1	0	08VC 16MC	0	1	3.80838894844	None	None	None	None	1
2.7	2015_May_19_1408	s	s	10	2	Capacity	40	RC	1	0	08VC 15MC	1	0	0.925704956055	-368.0	191.0	-374	194	1
2.7	2015_May_19_1408	s	s	10	2	Capacity	41	RC	1	0	08VC 15MC	1	0	5.6258699894	-33.0	-63.0	-37	-61	1
2.7	2015_May_19_1408	s	s	10	2	Capacity	42	ABS	1	0	08VC 16MC	1	0	6.00227212906	None	None	-2	60	0
2.7	2015_May_19_1408	s	s	10	2	Capacity	43	RC	2	0	15VC 08MC	1	0	1.53866004944	-534.0	-108.0	-534	-106	1
2.7	2015_May_19_1408	s	s	10	2	Capacity	44	ABS	2	0	16VC 08MC	0	1	1.54957294464	None	None	None	None	1
2.7	2015_May_19_1408	s	s	10	2	Capacity	45	ABS	2	0	16VC 08MC	0	1	2.10624098778	None	None	None	None	1
2.7	2015_May_19_1408	s	s	10	2	Capacity	46	RC	1	0	08VC 15MC	1	0	1.91799378395	-493.0	321.0	-491	324	1
2.7	2015_May_19_1408	s	s	10	2	Capacity	47	ABS	1	0	08VC 16MC	0	1	3.7977039814	None	None	None	None	1
2.7	2015_May_19_1408	s	s	10	2	Capacity	48	RC	2	0	15VC 08MC	0	1	2.95963788033	-155.0	-398.0	None	None	0
2.7	2015_May_19_1408	s	s	10	2	Capacity	49	ABS	1	0	08VC 16MC	0	1	2.31820297241	None	None	None	None	1
2.7	2015_May_19_1408	s	s	10	2	Capacity	50	RC	2	0	15VC 08MC	1	0	6.23258805275	355.0	313.0	356	305	1
2.7	2015_May_19_1408	s	s	10	2	Capacity	51	ABS	2	0	16VC 08MC	0	1	4.42251205444	None	None	None	None	1
2.7	2015_May_19_1408	s	s	10	2	Capacity	52	RC	1	0	08VC 15MC	0	1	2.38887310028	395.0	-358.0	None	None	0
2.7	2015_May_19_1408	s	s	10	2	Capacity	53	ABS	1	0	08VC 16MC	0	1	2.01909995079	None	None	None	None	1
2.7	2015_May_19_1408	s	s	10	2	Capacity	54	RC	1	0	08VC 15MC	1	0	0.799805164337	439.0	-13.0	443	-6	1
2.7	2015_May_19_1408	s	s	10	2	Capacity	55	ABS	2	0	16VC 08MC	0	1	2.09511303902	None	None	None	None	1
2.7	2015_May_19_1408	s	s	10	2	Capacity	56	RC	2	0	15VC 08MC	1	0	0.676342010498	236.0	132.0	239	132	1
2.7	2015_May_19_1408	s	s	10	2	Capacity	57	RC	2	0	15VC 08MC	1	0	1.21895813942	265.0	-381.0	258	-377	1
2.7	2015_May_19_1408	s	s	10	2	Capacity	58	ABS	2	0	16VC 08MC	0	1	2.46594309807	None	None	None	None	1
2.7	2015_May_19_1408	s	s	10	2	Capacity	59	ABS	1	0	08VC 16MC	0	1	1.71406888962	None	None	None	None	1
2.7	2015_May_19_1408	s	s	10	2	Capacity	60	RC	1	0	08VC 15MC	1	0	1.22709298134	532.0	-341.0	534	-340	1
2.7	2015_May_19_1408	s	s	10	2	Capacity	61	RC	1	0	08VC 15MC	1	0	3.82500100136	-516.0	-98.0	-517	-92	1
2.7	2015_May_19_1408	s	s	10	2	Capacity	62	RC	2	0	15VC 08MC	1	0	1.76492714882	197.0	319.0	203	322	1
2.7	2015_May_19_1408	s	s	10	2	Capacity	63	ABS	2	0	16VC 08MC	0	1	2.33005905151	None	None	None	None	1
2.7	2015_May_19_1408	s	s	10	2	Capacity	64	ABS	1	0	08VC 16MC	0	1	4.63176894188	None	None	None	None	1
2.7	2015_May_19_1408	s	s	10	2	Capacity	1	RC	0	2	15RD 08RO	1	0	1.67081785202	103.0	-123.0	109	-115	1
2.7	2015_May_19_1408	s	s	10	2	Capacity	2	ABS	0	2	16RD 08RO	0	1	1.69465517998	None	None	None	None	1
2.7	2015_May_19_1408	s	s	10	2	Capacity	3	ABS	0	1	08RD 16RO	0	1	3.69167900085	None	None	None	None	1
2.7	2015_May_19_1408	s	s	10	2	Capacity	4	RC	0	1	08RD 15RO	1	0	1.99468898773	25.0	79.0	24	86	1
2.7	2015_May_19_1408	s	s	10	2	Capacity	5	ABS	0	1	08RD 16RO	0	1	3.13684415817	None	None	None	None	1
2.7	2015_May_19_1408	s	s	10	2	Capacity	6	RC	0	1	08RD 15RO	1	0	2.71538901329	431.0	211.0	426	206	1
2.7	2015_May_19_1408	s	s	10	2	Capacity	7	ABS	0	2	16RD 08RO	0	1	2.60703992844	None	None	None	None	1
2.7	2015_May_19_1408	s	s	10	2	Capacity	8	RC	0	2	15RD 08RO	1	0	1.72672200203	360.0	-397.0	362	-410	1
2.7	2015_May_19_1408	s	s	10	2	Capacity	9	ABS	0	1	08RD 16RO	0	1	3.80739593506	None	None	None	None	1
2.7	2015_May_19_1408	s	s	10	2	Capacity	10	RC	0	2	15RD 08RO	1	0	2.19590210915	47.0	410.0	56	418	1
2.7	2015_May_19_1408	s	s	10	2	Capacity	11	RC	0	1	08RD 15RO	1	0	1.6473300457	434.0	-230.0	435	-233	1
2.7	2015_May_19_1408	s	s	10	2	Capacity	12	ABS	0	2	16RD 08RO	0	1	2.39484500885	None	None	None	None	1
2.7	2015_May_19_1408	s	s	10	2	Capacity	13	ABS	0	2	16RD 08RO	0	1	2.05981707573	None	None	None	None	1
2.7	2015_May_19_1408	s	s	10	2	Capacity	14	ABS	0	1	08RD 16RO	0	1	4.26027107239	None	None	None	None	1
2.7	2015_May_19_1408	s	s	10	2	Capacity	15	RC	0	2	15RD 08RO	0	1	1.74152493477	-428.0	-50.0	None	None	0
2.7	2015_May_19_1408	s	s	10	2	Capacity	16	RC	0	1	08RD 15RO	0	1	2.93025183678	357.0	12.0	None	None	0
2.7	2015_May_19_1408	s	s	10	2	Capacity	17	RC	0	1	08RD 15RO	0	1	0.0818629264832	187.0	388.0	None	None	0
2.7	2015_May_19_1408	s	s	10	2	Capacity	18	ABS	0	2	16RD 08RO	0	1	3.21662592888	None	None	None	None	1
2.7	2015_May_19_1408	s	s	10	2	Capacity	19	RC	0	2	15RD 08RO	1	0	3.86016106606	-217.0	136.0	-211	139	1
2.7	2015_May_19_1408	s	s	10	2	Capacity	20	ABS	0	1	08RD 16RO	0	1	3.93586683273	None	None	None	None	1
2.7	2015_May_19_1408	s	s	10	2	Capacity	21	RC	0	2	15RD 08RO	1	0	2.58601403236	-152.0	321.0	-152	314	1
2.7	2015_May_19_1408	s	s	10	2	Capacity	22	ABS	0	1	08RD 16RO	0	1	9.68205499649	None	None	None	None	1
2.7	2015_May_19_1408	s	s	10	2	Capacity	23	ABS	0	2	16RD 08RO	0	1	2.38881206512	None	None	None	None	1
2.7	2015_May_19_1408	s	s	10	2	Capacity	24	RC	0	1	08RD 15RO	1	0	1.94852805138	320.0	-221.0	321	-222	1
2.7	2015_May_19_1408	s	s	10	2	Capacity	25	RC	0	1	08RD 15RO	0	1	3.06604719162	-495.0	-25.0	None	None	0
2.7	2015_May_19_1408	s	s	10	2	Capacity	26	ABS	0	2	16RD 08RO	0	1	1.76499390602	None	None	None	None	1
2.7	2015_May_19_1408	s	s	10	2	Capacity	27	ABS	0	1	08RD 16RO	0	1	7.67045617104	None	None	None	None	1
2.7	2015_May_19_1408	s	s	10	2	Capacity	28	RC	0	2	15RD 08RO	1	0	2.23569488525	-378.0	302.0	-371	295	1
2.7	2015_May_19_1408	s	s	10	2	Capacity	29	ABS	0	2	16RD 08RO	0	1	3.11290693283	None	None	None	None	1
2.7	2015_May_19_1408	s	s	10	2	Capacity	30	RC	0	2	15RD 08RO	1	0	1.61858987808	-35.0	225.0	-31	220	1
2.7	2015_May_19_1408	s	s	10	2	Capacity	31	RC	0	1	08RD 15RO	0	1	1.16465997696	70.0	317.0	None	None	0
2.7	2015_May_19_1408	s	s	10	2	Capacity	32	ABS	0	1	08RD 16RO	0	1	3.636521101	None	None	None	None	1
2.7	2015_May_19_1408	s	s	10	2	Capacity	33	ABS	0	1	08RD 16RO	0	1	4.68411207199	None	None	None	None	1
2.7	2015_May_19_1408	s	s	10	2	Capacity	34	RC	0	2	15RD 08RO	1	0	1.90090703964	264.0	-374.0	261	-372	1
2.7	2015_May_19_1408	s	s	10	2	Capacity	35	RC	0	1	08RD 15RO	1	0	6.77117705345	-368.0	-209.0	-366	-205	1
2.7	2015_May_19_1408	s	s	10	2	Capacity	36	ABS	0	2	16RD 08RO	0	1	3.95810317993	None	None	None	None	1
2.7	2015_May_19_1408	s	s	10	2	Capacity	37	RC	0	2	15RD 08RO	1	0	3.212692976	210.0	64.0	210	62	1
2.7	2015_May_19_1408	s	s	10	2	Capacity	38	RC	0	1	08RD 15RO	1	0	6.76749396324	4.0	273.0	1	274	1
2.7	2015_May_19_1408	s	s	10	2	Capacity	39	ABS	0	1	08RD 16RO	0	1	5.00924301147	None	None	None	None	1
2.7	2015_May_19_1408	s	s	10	2	Capacity	40	ABS	0	2	16RD 08RO	0	1	3.11555814743	None	None	None	None	1
2.7	2015_May_19_1408	s	s	10	2	Capacity	41	RC	0	1	08RD 15RO	1	0	1.48952198029	271.0	170.0	263	170	1
2.7	2015_May_19_1408	s	s	10	2	Capacity	42	ABS	0	1	08RD 16RO	0	1	4.26911997795	None	None	None	None	1
2.7	2015_May_19_1408	s	s	10	2	Capacity	43	RC	0	2	15RD 08RO	0	1	8.69281411171	281.0	49.0	None	None	0
2.7	2015_May_19_1408	s	s	10	2	Capacity	44	ABS	0	2	16RD 08RO	0	1	7.75617003441	None	None	None	None	1
2.7	2015_May_19_1408	s	s	10	2	Capacity	45	RC	0	1	08RD 15RO	1	0	8.70969414711	-523.0	-268.0	-525	-264	1
2.7	2015_May_19_1408	s	s	10	2	Capacity	46	ABS	0	1	08RD 16RO	0	1	7.45724105835	None	None	None	None	1
2.7	2015_May_19_1408	s	s	10	2	Capacity	47	ABS	0	2	16RD 08RO	0	1	8.2506840229	None	None	None	None	1
2.7	2015_May_19_1408	s	s	10	2	Capacity	48	RC	0	2	15RD 08RO	1	0	2.6006770134	-484.0	209.0	-492	212	1
2.7	2015_May_19_1408	s	s	10	2	Capacity	49	RC	0	1	08RD 15RO	1	0	2.51389598846	151.0	-7.0	155	-8	1
2.7	2015_May_19_1408	s	s	10	2	Capacity	50	ABS	0	2	16RD 08RO	0	1	2.30633187294	None	None	None	None	1
2.7	2015_May_19_1408	s	s	10	2	Capacity	51	ABS	0	1	08RD 16RO	0	1	3.96339821815	None	None	None	None	1
2.7	2015_May_19_1408	s	s	10	2	Capacity	52	RC	0	2	15RD 08RO	1	0	1.72504591942	-140.0	328.0	-146	329	1
2.7	2015_May_19_1408	s	s	10	2	Capacity	53	ABS	0	1	08RD 16RO	0	1	5.28440690041	None	None	None	None	1
2.7	2015_May_19_1408	s	s	10	2	Capacity	54	ABS	0	2	16RD 08RO	0	1	7.5090200901	None	None	None	None	1
2.7	2015_May_19_1408	s	s	10	2	Capacity	55	RC	0	1	08RD 15RO	1	0	4.50747919083	322.0	-126.0	323	-132	1
2.7	2015_May_19_1408	s	s	10	2	Capacity	56	RC	0	2	15RD 08RO	1	0	2.68670296669	-110.0	129.0	-117	128	1
2.7	2015_May_19_1408	s	s	10	2	Capacity	57	ABS	0	2	16RD 08RO	0	1	8.25051593781	None	None	None	None	1
2.7	2015_May_19_1408	s	s	10	2	Capacity	58	ABS	0	1	08RD 16RO	0	1	3.71892976761	None	None	None	None	1
2.7	2015_May_19_1408	s	s	10	2	Capacity	59	RC	0	2	15RD 08RO	1	0	1.53872799873	371.0	287.0	369	289	1
2.7	2015_May_19_1408	s	s	10	2	Capacity	60	RC	0	1	08RD 15RO	0	1	10.4221251011	139.0	280.0	None	None	0
2.7	2015_May_19_1408	s	s	10	2	Capacity	61	ABS	0	1	08RD 16RO	0	1	6.14966511726	None	None	None	None	1
2.7	2015_May_19_1408	s	s	10	2	Capacity	62	RC	0	2	15RD 08RO	1	0	1.37077283859	-79.0	273.0	-77	266	1
2.7	2015_May_19_1408	s	s	10	2	Capacity	63	RC	0	1	08RD 15RO	0	1	2.20920205116	-348.0	-143.0	None	None	0
2.7	2015_May_19_1408	s	s	10	2	Capacity	64	ABS	0	2	16RD 08RO	0	1	1.91290211678	None	None	None	None	1
2.7	2015_May_19_1408	s	s	10	2	SIC	1	ABS	1	2	02VD 02VO 02VC 10MD 02MO 02MC 02RD 02RO	0	1	2.50655889511	None	None	None	None	1
2.7	2015_May_19_1408	s	s	10	2	SIC	2	ABS	1	0	02VD 02VO 02VC 02MD 02MO 10MC 02RD 02RO	0	1	2.26803302765	None	None	None	None	1
2.7	2015_May_19_1408	s	s	10	2	SIC	3	RC	0	2	02VD 02VO 02VC 02MD 02MO 02MC 09RD 02RO	1	0	1.14741396904	-352.0	226.0	-344	227	1
2.7	2015_May_19_1408	s	s	10	2	SIC	4	RC	2	2	09VD 02VO 02VC 02MD 02MO 02MC 02RD 02RO	1	0	1.50587296486	-272.0	15.0	-267	19	1
2.7	2015_May_19_1408	s	s	10	2	SIC	5	ABS	1	1	02VD 02VO 02VC 02MD 10MO 02MC 02RD 02RO	0	1	1.84170389175	None	None	None	None	1
2.7	2015_May_19_1408	s	s	10	2	SIC	6	RC	1	2	02VD 02VO 02VC 09MD 02MO 02MC 02RD 02RO	1	0	1.28233098984	303.0	212.0	300	218	1
2.7	2015_May_19_1408	s	s	10	2	SIC	7	ABS	0	2	02VD 02VO 02VC 02MD 02MO 02MC 10RD 02RO	0	1	1.6630589962	None	None	None	None	1
2.7	2015_May_19_1408	s	s	10	2	SIC	8	RC	1	1	02VD 02VO 02VC 02MD 09MO 02MC 02RD 02RO	1	0	2.29852581024	13.0	-93.0	15	-90	1
2.7	2015_May_19_1408	s	s	10	2	SIC	9	ABS	0	1	02VD 02VO 02VC 02MD 02MO 02MC 02RD 10RO	0	1	5.00184106827	None	None	None	None	1
2.7	2015_May_19_1408	s	s	10	2	SIC	10	ABS	2	0	02VD 02VO 10VC 02MD 02MO 02MC 02RD 02RO	0	1	4.29962611198	None	None	None	None	1
2.7	2015_May_19_1408	s	s	10	2	SIC	11	ABS	2	1	02VD 10VO 02VC 02MD 02MO 02MC 02RD 02RO	0	1	7.37707400322	None	None	None	None	1
2.7	2015_May_19_1408	s	s	10	2	SIC	12	RC	1	0	02VD 02VO 02VC 02MD 02MO 09MC 02RD 02RO	1	0	4.82539391518	363.0	369.0	364	371	1
2.7	2015_May_19_1408	s	s	10	2	SIC	13	RC	0	1	02VD 02VO 02VC 02MD 02MO 02MC 02RD 09RO	1	0	15.1439740658	-342.0	-96.0	-345	-93	1
2.7	2015_May_19_1408	s	s	10	2	SIC	14	ABS	2	2	10VD 02VO 02VC 02MD 02MO 02MC 02RD 02RO	0	1	7.83858203888	None	None	None	None	1
2.7	2015_May_19_1408	s	s	10	2	SIC	15	RC	2	0	02VD 02VO 09VC 02MD 02MO 02MC 02RD 02RO	1	0	5.35223793983	419.0	-269.0	413	-270	1
2.7	2015_May_19_1408	s	s	10	2	SIC	16	RC	2	1	02VD 09VO 02VC 02MD 02MO 02MC 02RD 02RO	1	0	8.42715287209	358.0	76.0	362	77	1
2.7	2015_May_19_1408	s	s	10	2	SIC	17	RC	2	0	02VD 02VO 09VC 02MD 02MO 02MC 02RD 02RO	0	1	7.57684516907	127.0	-304.0	None	None	0
2.7	2015_May_19_1408	s	s	10	2	SIC	18	ABS	1	1	02VD 02VO 02VC 02MD 10MO 02MC 02RD 02RO	0	1	5.42557406425	None	None	None	None	1
2.7	2015_May_19_1408	s	s	10	2	SIC	19	ABS	2	1	02VD 10VO 02VC 02MD 02MO 02MC 02RD 02RO	0	1	2.30644392967	None	None	None	None	1
2.7	2015_May_19_1408	s	s	10	2	SIC	20	ABS	0	1	02VD 02VO 02VC 02MD 02MO 02MC 02RD 10RO	0	1	6.7999651432	None	None	None	None	1
2.7	2015_May_19_1408	s	s	10	2	SIC	21	ABS	1	0	02VD 02VO 02VC 02MD 02MO 10MC 02RD 02RO	0	1	2.92663097382	None	None	None	None	1
2.7	2015_May_19_1408	s	s	10	2	SIC	22	RC	2	2	09VD 02VO 02VC 02MD 02MO 02MC 02RD 02RO	1	0	2.365254879	501.0	-183.0	502	-176	1
2.7	2015_May_19_1408	s	s	10	2	SIC	23	RC	2	1	02VD 09VO 02VC 02MD 02MO 02MC 02RD 02RO	1	0	1.48849511147	269.0	-221.0	274	-224	1
2.7	2015_May_19_1408	s	s	10	2	SIC	24	ABS	1	2	02VD 02VO 02VC 10MD 02MO 02MC 02RD 02RO	0	1	2.47798609734	None	None	None	None	1
2.7	2015_May_19_1408	s	s	10	2	SIC	25	ABS	2	0	02VD 02VO 10VC 02MD 02MO 02MC 02RD 02RO	0	1	1.36472511292	None	None	None	None	1
2.7	2015_May_19_1408	s	s	10	2	SIC	26	RC	1	2	02VD 02VO 02VC 09MD 02MO 02MC 02RD 02RO	1	0	1.53770303726	522.0	177.0	527	174	1
2.7	2015_May_19_1408	s	s	10	2	SIC	27	RC	1	0	02VD 02VO 02VC 02MD 02MO 09MC 02RD 02RO	1	0	2.24250507355	-132.0	12.0	-121	18	1
2.7	2015_May_19_1408	s	s	10	2	SIC	28	ABS	2	2	10VD 02VO 02VC 02MD 02MO 02MC 02RD 02RO	0	1	1.57345294952	None	None	None	None	1
2.7	2015_May_19_1408	s	s	10	2	SIC	29	RC	0	2	02VD 02VO 02VC 02MD 02MO 02MC 09RD 02RO	1	0	1.10583686829	-95.0	342.0	-90	350	1
2.7	2015_May_19_1408	s	s	10	2	SIC	30	RC	1	1	02VD 02VO 02VC 02MD 09MO 02MC 02RD 02RO	1	0	2.06581902504	62.0	206.0	65	210	1
2.7	2015_May_19_1408	s	s	10	2	SIC	31	ABS	0	2	02VD 02VO 02VC 02MD 02MO 02MC 10RD 02RO	0	1	1.57290410995	None	None	None	None	1
2.7	2015_May_19_1408	s	s	10	2	SIC	32	RC	0	1	02VD 02VO 02VC 02MD 02MO 02MC 02RD 09RO	1	0	1.35905408859	-343.0	374.0	-334	381	1
2.7	2015_May_19_1408	s	s	10	2	SIC	33	RC	2	0	02VD 02VO 09VC 02MD 02MO 02MC 02RD 02RO	1	0	1.26466703415	50.0	217.0	57	218	1
2.7	2015_May_19_1408	s	s	10	2	SIC	34	RC	1	0	02VD 02VO 02VC 02MD 02MO 09MC 02RD 02RO	1	0	1.02352309227	172.0	152.0	169	156	1
2.7	2015_May_19_1408	s	s	10	2	SIC	35	ABS	2	2	10VD 02VO 02VC 02MD 02MO 02MC 02RD 02RO	0	1	2.19793009758	None	None	None	None	1
2.7	2015_May_19_1408	s	s	10	2	SIC	36	ABS	2	0	02VD 02VO 10VC 02MD 02MO 02MC 02RD 02RO	0	1	2.3138320446	None	None	None	None	1
2.7	2015_May_19_1408	s	s	10	2	SIC	37	ABS	0	1	02VD 02VO 02VC 02MD 02MO 02MC 02RD 10RO	0	1	3.81311488152	None	None	None	None	1
2.7	2015_May_19_1408	s	s	10	2	SIC	38	ABS	1	1	02VD 02VO 02VC 02MD 10MO 02MC 02RD 02RO	0	1	2.39768505096	None	None	None	None	1
2.7	2015_May_19_1408	s	s	10	2	SIC	39	RC	2	2	09VD 02VO 02VC 02MD 02MO 02MC 02RD 02RO	1	0	1.40601587296	131.0	192.0	131	190	1
2.7	2015_May_19_1408	s	s	10	2	SIC	40	RC	1	2	02VD 02VO 02VC 09MD 02MO 02MC 02RD 02RO	1	0	3.36581206322	19.0	-169.0	20	-163	1
2.7	2015_May_19_1408	s	s	10	2	SIC	41	ABS	0	2	02VD 02VO 02VC 02MD 02MO 02MC 10RD 02RO	0	1	3.95420908928	None	None	None	None	1
2.7	2015_May_19_1408	s	s	10	2	SIC	42	RC	1	1	02VD 02VO 02VC 02MD 09MO 02MC 02RD 02RO	1	0	2.65953111649	290.0	74.0	298	75	1
2.7	2015_May_19_1408	s	s	10	2	SIC	43	RC	0	1	02VD 02VO 02VC 02MD 02MO 02MC 02RD 09RO	1	0	10.4342651367	-383.0	361.0	-386	362	1
2.7	2015_May_19_1408	s	s	10	2	SIC	44	ABS	1	0	02VD 02VO 02VC 02MD 02MO 10MC 02RD 02RO	0	1	8.12830281258	None	None	None	None	1
2.7	2015_May_19_1408	s	s	10	2	SIC	45	ABS	2	1	02VD 10VO 02VC 02MD 02MO 02MC 02RD 02RO	0	1	2.60077595711	None	None	None	None	1
2.7	2015_May_19_1408	s	s	10	2	SIC	46	RC	2	1	02VD 09VO 02VC 02MD 02MO 02MC 02RD 02RO	1	0	10.0279679298	87.0	-342.0	88	-350	1
2.7	2015_May_19_1408	s	s	10	2	SIC	47	RC	0	2	02VD 02VO 02VC 02MD 02MO 02MC 09RD 02RO	1	0	1.66572904587	-303.0	373.0	-303	377	1
2.7	2015_May_19_1408	s	s	10	2	SIC	48	ABS	1	2	02VD 02VO 02VC 10MD 02MO 02MC 02RD 02RO	0	1	1.68253087997	None	None	None	None	1
2.7	2015_May_19_1408	s	s	10	2	SIC	49	ABS	0	2	02VD 02VO 02VC 02MD 02MO 02MC 10RD 02RO	0	1	1.72955703735	None	None	None	None	1
2.7	2015_May_19_1408	s	s	10	2	SIC	50	ABS	1	2	02VD 02VO 02VC 10MD 02MO 02MC 02RD 02RO	0	1	1.23529195786	None	None	None	None	1
2.7	2015_May_19_1408	s	s	10	2	SIC	51	ABS	1	0	02VD 02VO 02VC 02MD 02MO 10MC 02RD 02RO	0	1	1.12959098816	None	None	None	None	1
2.7	2015_May_19_1408	s	s	10	2	SIC	52	RC	1	2	02VD 02VO 02VC 09MD 02MO 02MC 02RD 02RO	1	0	1.18825602531	-241.0	326.0	-233	321	1
2.7	2015_May_19_1408	s	s	10	2	SIC	53	ABS	0	1	02VD 02VO 02VC 02MD 02MO 02MC 02RD 10RO	0	1	3.00097107887	None	None	None	None	1
2.7	2015_May_19_1408	s	s	10	2	SIC	54	ABS	2	0	02VD 02VO 10VC 02MD 02MO 02MC 02RD 02RO	0	1	0.987995862961	None	None	None	None	1
2.7	2015_May_19_1408	s	s	10	2	SIC	55	ABS	2	2	10VD 02VO 02VC 02MD 02MO 02MC 02RD 02RO	0	1	1.31261706352	None	None	None	None	1
2.7	2015_May_19_1408	s	s	10	2	SIC	56	RC	2	1	02VD 09VO 02VC 02MD 02MO 02MC 02RD 02RO	1	0	2.45944690704	-301.0	-368.0	-298	-369	1
2.7	2015_May_19_1408	s	s	10	2	SIC	57	ABS	2	1	02VD 10VO 02VC 02MD 02MO 02MC 02RD 02RO	0	1	1.95329284668	None	None	None	None	1
2.7	2015_May_19_1408	s	s	10	2	SIC	58	RC	1	0	02VD 02VO 02VC 02MD 02MO 09MC 02RD 02RO	1	0	2.8126180172	39.0	342.0	44	345	1
2.7	2015_May_19_1408	s	s	10	2	SIC	59	RC	1	1	02VD 02VO 02VC 02MD 09MO 02MC 02RD 02RO	1	0	3.34903311729	-211.0	395.0	-213	404	1
2.7	2015_May_19_1408	s	s	10	2	SIC	60	RC	2	2	09VD 02VO 02VC 02MD 02MO 02MC 02RD 02RO	1	0	4.26702284813	-516.0	262.0	-516	261	1
2.7	2015_May_19_1408	s	s	10	2	SIC	61	RC	2	0	02VD 02VO 09VC 02MD 02MO 02MC 02RD 02RO	1	0	1.376486063	229.0	36.0	222	36	1
2.7	2015_May_19_1408	s	s	10	2	SIC	62	RC	0	2	02VD 02VO 02VC 02MD 02MO 02MC 09RD 02RO	1	0	1.58175206184	-422.0	15.0	-423	15	1
2.7	2015_May_19_1408	s	s	10	2	SIC	63	ABS	1	1	02VD 02VO 02VC 02MD 10MO 02MC 02RD 02RO	0	1	1.99568796158	None	None	None	None	1
2.7	2015_May_19_1408	s	s	10	2	SIC	64	RC	0	1	02VD 02VO 02VC 02MD 02MO 02MC 02RD 09RO	1	0	1.85582900047	-518.0	246.0	-518	242	1
2.7	2015_May_19_1408	s	s	10	2	SIC	65	RC	2	1	02VD 09VO 02VC 02MD 02MO 02MC 02RD 02RO	0	1	2.82439088821	295.0	89.0	None	None	0
2.7	2015_May_19_1408	s	s	10	2	SIC	66	ABS	1	1	02VD 02VO 02VC 02MD 10MO 02MC 02RD 02RO	0	1	3.61282610893	None	None	None	None	1
2.7	2015_May_19_1408	s	s	10	2	SIC	67	ABS	0	2	02VD 02VO 02VC 02MD 02MO 02MC 10RD 02RO	0	1	2.98405814171	None	None	None	None	1
2.7	2015_May_19_1408	s	s	10	2	SIC	68	RC	1	2	02VD 02VO 02VC 09MD 02MO 02MC 02RD 02RO	1	0	2.65510392189	9.0	50.0	6	52	1
2.7	2015_May_19_1408	s	s	10	2	SIC	69	ABS	2	0	02VD 02VO 10VC 02MD 02MO 02MC 02RD 02RO	0	1	5.10247612	None	None	None	None	1
2.7	2015_May_19_1408	s	s	10	2	SIC	70	ABS	2	2	10VD 02VO 02VC 02MD 02MO 02MC 02RD 02RO	0	1	4.84323692322	None	None	None	None	1
2.7	2015_May_19_1408	s	s	10	2	SIC	71	ABS	1	2	02VD 02VO 02VC 10MD 02MO 02MC 02RD 02RO	0	1	2.4420311451	None	None	None	None	1
2.7	2015_May_19_1408	s	s	10	2	SIC	72	RC	0	1	02VD 02VO 02VC 02MD 02MO 02MC 02RD 09RO	1	0	2.68310499191	-76.0	152.0	-79	148	1
2.7	2015_May_19_1408	s	s	10	2	SIC	73	ABS	0	1	02VD 02VO 02VC 02MD 02MO 02MC 02RD 10RO	0	1	3.87188386917	None	None	None	None	1
2.7	2015_May_19_1408	s	s	10	2	SIC	74	RC	2	0	02VD 02VO 09VC 02MD 02MO 02MC 02RD 02RO	1	0	1.51224899292	-496.0	-50.0	-497	-49	1
2.7	2015_May_19_1408	s	s	10	2	SIC	75	RC	2	2	09VD 02VO 02VC 02MD 02MO 02MC 02RD 02RO	1	0	0.952833175659	191.0	-5.0	190	2	1
2.7	2015_May_19_1408	s	s	10	2	SIC	76	RC	1	1	02VD 02VO 02VC 02MD 09MO 02MC 02RD 02RO	1	0	0.972055912018	-406.0	46.0	-410	47	1
2.7	2015_May_19_1408	s	s	10	2	SIC	77	RC	0	2	02VD 02VO 02VC 02MD 02MO 02MC 09RD 02RO	1	0	0.902805089951	-205.0	-99.0	-203	-92	1
2.7	2015_May_19_1408	s	s	10	2	SIC	78	ABS	1	0	02VD 02VO 02VC 02MD 02MO 10MC 02RD 02RO	0	1	3.48064398766	None	None	None	None	1
2.7	2015_May_19_1408	s	s	10	2	SIC	79	RC	1	0	02VD 02VO 02VC 02MD 02MO 09MC 02RD 02RO	0	1	0.80593419075	383.0	194.0	None	None	0
2.7	2015_May_19_1408	s	s	10	2	SIC	80	ABS	2	1	02VD 10VO 02VC 02MD 02MO 02MC 02RD 02RO	0	1	1.7295191288	None	None	None	None	1
2.7	2015_May_19_1408	s	s	10	2	SIC	81	RC	2	0	02VD 02VO 09VC 02MD 02MO 02MC 02RD 02RO	1	0	2.20051503181	-478.0	63.0	-475	58	1
2.7	2015_May_19_1408	s	s	10	2	SIC	82	RC	1	1	02VD 02VO 02VC 02MD 09MO 02MC 02RD 02RO	1	0	2.25937604904	273.0	112.0	279	104	1
2.7	2015_May_19_1408	s	s	10	2	SIC	83	ABS	1	1	02VD 02VO 02VC 02MD 10MO 02MC 02RD 02RO	0	1	2.45491099358	None	None	None	None	1
2.7	2015_May_19_1408	s	s	10	2	SIC	84	RC	1	0	02VD 02VO 02VC 02MD 02MO 09MC 02RD 02RO	1	0	0.988137960434	29.0	-110.0	35	-117	1
2.7	2015_May_19_1408	s	s	10	2	SIC	85	RC	0	1	02VD 02VO 02VC 02MD 02MO 02MC 02RD 09RO	1	0	1.6711769104	333.0	182.0	328	186	1
2.7	2015_May_19_1408	s	s	10	2	SIC	86	ABS	1	0	02VD 02VO 02VC 02MD 02MO 10MC 02RD 02RO	0	1	2.08834815025	None	None	None	None	1
2.7	2015_May_19_1408	s	s	10	2	SIC	87	RC	2	1	02VD 09VO 02VC 02MD 02MO 02MC 02RD 02RO	1	0	2.27116203308	-506.0	62.0	-505	60	1
2.7	2015_May_19_1408	s	s	10	2	SIC	88	ABS	1	2	02VD 02VO 02VC 10MD 02MO 02MC 02RD 02RO	0	1	2.29470300674	None	None	None	None	1
2.7	2015_May_19_1408	s	s	10	2	SIC	89	RC	0	2	02VD 02VO 02VC 02MD 02MO 02MC 09RD 02RO	0	1	2.25923109055	-534.0	-44.0	None	None	0
2.7	2015_May_19_1408	s	s	10	2	SIC	90	ABS	2	1	02VD 10VO 02VC 02MD 02MO 02MC 02RD 02RO	0	1	1.93606901169	None	None	None	None	1
2.7	2015_May_19_1408	s	s	10	2	SIC	91	ABS	2	0	02VD 02VO 10VC 02MD 02MO 02MC 02RD 02RO	0	1	1.96503710747	None	None	None	None	1
2.7	2015_May_19_1408	s	s	10	2	SIC	92	RC	2	2	09VD 02VO 02VC 02MD 02MO 02MC 02RD 02RO	1	0	1.57666301727	-320.0	239.0	-316	242	1
2.7	2015_May_19_1408	s	s	10	2	SIC	93	ABS	2	2	10VD 02VO 02VC 02MD 02MO 02MC 02RD 02RO	0	1	1.61968207359	None	None	None	None	1
2.7	2015_May_19_1408	s	s	10	2	SIC	94	RC	1	2	02VD 02VO 02VC 09MD 02MO 02MC 02RD 02RO	1	0	1.77187085152	-175.0	-390.0	-174	-384	1
2.7	2015_May_19_1408	s	s	10	2	SIC	95	ABS	0	2	02VD 02VO 02VC 02MD 02MO 02MC 10RD 02RO	0	1	2.34914302826	None	None	None	None	1
2.7	2015_May_19_1408	s	s	10	2	SIC	96	ABS	0	1	02VD 02VO 02VC 02MD 02MO 02MC 02RD 10RO	0	1	3.93089103699	None	None	None	None	1
2.7	2015_May_19_1408	s	s	10	2	SIC	97	RC	0	2	02VD 02VO 02VC 02MD 02MO 02MC 09RD 02RO	1	0	0.958623886108	-173.0	83.0	-179	84	1
2.7	2015_May_19_1408	s	s	10	2	SIC	98	ABS	0	1	02VD 02VO 02VC 02MD 02MO 02MC 02RD 10RO	0	1	3.5849571228	None	None	None	None	1
2.7	2015_May_19_1408	s	s	10	2	SIC	99	RC	1	0	02VD 02VO 02VC 02MD 02MO 09MC 02RD 02RO	1	0	1.37139296532	307.0	284.0	310	278	1
2.7	2015_May_19_1408	s	s	10	2	SIC	100	RC	2	0	02VD 02VO 09VC 02MD 02MO 02MC 02RD 02RO	1	0	2.82433319092	509.0	-63.0	515	-61	1
2.7	2015_May_19_1408	s	s	10	2	SIC	101	RC	1	2	02VD 02VO 02VC 09MD 02MO 02MC 02RD 02RO	1	0	2.3063929081	91.0	255.0	86	255	1
2.7	2015_May_19_1408	s	s	10	2	SIC	102	ABS	2	0	02VD 02VO 10VC 02MD 02MO 02MC 02RD 02RO	0	1	4.35823607445	None	None	None	None	1
2.7	2015_May_19_1408	s	s	10	2	SIC	103	ABS	2	2	10VD 02VO 02VC 02MD 02MO 02MC 02RD 02RO	0	1	2.16523694992	None	None	None	None	1
2.7	2015_May_19_1408	s	s	10	2	SIC	104	RC	0	1	02VD 02VO 02VC 02MD 02MO 02MC 02RD 09RO	1	0	7.89734005928	245.0	2.0	246	2	1
2.7	2015_May_19_1408	s	s	10	2	SIC	105	ABS	1	2	02VD 02VO 02VC 10MD 02MO 02MC 02RD 02RO	0	1	2.36525511742	None	None	None	None	1
2.7	2015_May_19_1408	s	s	10	2	SIC	106	RC	2	1	02VD 09VO 02VC 02MD 02MO 02MC 02RD 02RO	1	0	1.35644507408	-486.0	358.0	-490	357	1
2.7	2015_May_19_1408	s	s	10	2	SIC	107	RC	2	2	09VD 02VO 02VC 02MD 02MO 02MC 02RD 02RO	1	0	2.31815600395	22.0	-354.0	24	-351	1
2.7	2015_May_19_1408	s	s	10	2	SIC	108	ABS	2	1	02VD 10VO 02VC 02MD 02MO 02MC 02RD 02RO	0	1	2.61240911484	None	None	None	None	1
2.7	2015_May_19_1408	s	s	10	2	SIC	109	ABS	1	1	02VD 02VO 02VC 02MD 10MO 02MC 02RD 02RO	0	1	2.70152807236	None	None	None	None	1
2.7	2015_May_19_1408	s	s	10	2	SIC	110	ABS	1	0	02VD 02VO 02VC 02MD 02MO 10MC 02RD 02RO	0	1	3.33894205093	None	None	None	None	1
2.7	2015_May_19_1408	s	s	10	2	SIC	111	ABS	0	2	02VD 02VO 02VC 02MD 02MO 02MC 10RD 02RO	0	1	2.8798968792	None	None	None	None	1
2.7	2015_May_19_1408	s	s	10	2	SIC	112	RC	1	1	02VD 02VO 02VC 02MD 09MO 02MC 02RD 02RO	1	0	1.44711303711	-308.0	252.0	-305	254	1
2.7	2015_May_19_1408	s	s	10	2	SIC	113	ABS	0	2	02VD 02VO 02VC 02MD 02MO 02MC 10RD 02RO	0	1	7.72093200684	None	None	None	None	1
2.7	2015_May_19_1408	s	s	10	2	SIC	114	RC	2	1	02VD 09VO 02VC 02MD 02MO 02MC 02RD 02RO	0	1	4.72656106949	-447.0	-402.0	None	None	0
2.7	2015_May_19_1408	s	s	10	2	SIC	115	ABS	1	0	02VD 02VO 02VC 02MD 02MO 10MC 02RD 02RO	0	1	7.36292314529	None	None	None	None	1
2.7	2015_May_19_1408	s	s	10	2	SIC	116	ABS	2	2	10VD 02VO 02VC 02MD 02MO 02MC 02RD 02RO	0	1	4.02000999451	None	None	None	None	1
2.7	2015_May_19_1408	s	s	10	2	SIC	117	RC	2	2	09VD 02VO 02VC 02MD 02MO 02MC 02RD 02RO	1	0	0.997122049332	-126.0	10.0	-126	8	1
2.7	2015_May_19_1408	s	s	10	2	SIC	118	ABS	2	0	02VD 02VO 10VC 02MD 02MO 02MC 02RD 02RO	0	1	4.06025505066	None	None	None	None	1
2.7	2015_May_19_1408	s	s	10	2	SIC	119	RC	0	2	02VD 02VO 02VC 02MD 02MO 02MC 09RD 02RO	1	0	5.99674797058	-503.0	278.0	-507	278	1
2.7	2015_May_19_1408	s	s	10	2	SIC	120	ABS	2	1	02VD 10VO 02VC 02MD 02MO 02MC 02RD 02RO	0	1	4.07197213173	None	None	None	None	1
2.7	2015_May_19_1408	s	s	10	2	SIC	121	RC	0	1	02VD 02VO 02VC 02MD 02MO 02MC 02RD 09RO	0	1	0.15828704834	78.0	-334.0	None	None	0
2.7	2015_May_19_1408	s	s	10	2	SIC	122	RC	1	2	02VD 02VO 02VC 09MD 02MO 02MC 02RD 02RO	1	0	3.00132608414	-389.0	-373.0	-389	-370	1
2.7	2015_May_19_1408	s	s	10	2	SIC	123	ABS	1	2	02VD 02VO 02VC 10MD 02MO 02MC 02RD 02RO	0	1	4.77381205559	None	None	None	None	1
2.7	2015_May_19_1408	s	s	10	2	SIC	124	ABS	0	1	02VD 02VO 02VC 02MD 02MO 02MC 02RD 10RO	0	1	4.23683905602	None	None	None	None	1
2.7	2015_May_19_1408	s	s	10	2	SIC	125	RC	2	0	02VD 02VO 09VC 02MD 02MO 02MC 02RD 02RO	1	0	1.4207508564	33.0	36.0	28	38	1
2.7	2015_May_19_1408	s	s	10	2	SIC	126	ABS	1	1	02VD 02VO 02VC 02MD 10MO 02MC 02RD 02RO	0	1	2.22397398949	None	None	None	None	1
2.7	2015_May_19_1408	s	s	10	2	SIC	127	RC	1	0	02VD 02VO 02VC 02MD 02MO 09MC 02RD 02RO	0	1	3.0207669735	-425.0	-117.0	None	None	0
2.7	2015_May_19_1408	s	s	10	2	SIC	128	RC	1	1	02VD 02VO 02VC 02MD 09MO 02MC 02RD 02RO	0	1	4.16619515419	-99.0	163.0	None	None	0
2.7	2015_May_19_1408	s	s	10	2	SIC	129	ABS	1	2	02VD 02VO 02VC 10MD 02MO 02MC 02RD 02RO	0	1	4.82556891441	None	None	None	None	1
2.7	2015_May_19_1408	s	s	10	2	SIC	130	ABS	2	1	02VD 10VO 02VC 02MD 02MO 02MC 02RD 02RO	0	1	1.61954712868	None	None	None	None	1
2.7	2015_May_19_1408	s	s	10	2	SIC	131	RC	2	1	02VD 09VO 02VC 02MD 02MO 02MC 02RD 02RO	1	0	1.88280415535	517.0	-68.0	517	-69	1
2.7	2015_May_19_1408	s	s	10	2	SIC	132	ABS	2	2	10VD 02VO 02VC 02MD 02MO 02MC 02RD 02RO	0	1	2.33610296249	None	None	None	None	1
2.7	2015_May_19_1408	s	s	10	2	SIC	133	RC	1	2	02VD 02VO 02VC 09MD 02MO 02MC 02RD 02RO	1	0	1.98869395256	43.0	387.0	42	385	1
2.7	2015_May_19_1408	s	s	10	2	SIC	134	RC	0	2	02VD 02VO 02VC 02MD 02MO 02MC 09RD 02RO	1	0	2.7419359684	-388.0	246.0	-385	247	1
2.7	2015_May_19_1408	s	s	10	2	SIC	135	ABS	2	0	02VD 02VO 10VC 02MD 02MO 02MC 02RD 02RO	0	1	4.09553599358	None	None	None	None	1
2.7	2015_May_19_1408	s	s	10	2	SIC	136	ABS	0	2	02VD 02VO 02VC 02MD 02MO 02MC 10RD 02RO	0	1	1.76229715347	None	None	None	None	1
2.7	2015_May_19_1408	s	s	10	2	SIC	137	RC	1	0	02VD 02VO 02VC 02MD 02MO 09MC 02RD 02RO	0	1	3.2598028183	-192.0	52.0	None	None	0
2.7	2015_May_19_1408	s	s	10	2	SIC	138	RC	2	0	02VD 02VO 09VC 02MD 02MO 02MC 02RD 02RO	1	0	1.61191701889	-327.0	296.0	-332	288	1
2.7	2015_May_19_1408	s	s	10	2	SIC	139	RC	0	1	02VD 02VO 02VC 02MD 02MO 02MC 02RD 09RO	1	0	3.86388111115	28.0	241.0	32	250	1
2.7	2015_May_19_1408	s	s	10	2	SIC	140	RC	2	2	09VD 02VO 02VC 02MD 02MO 02MC 02RD 02RO	0	1	2.63342499733	-354.0	-61.0	None	None	0
2.7	2015_May_19_1408	s	s	10	2	SIC	141	ABS	0	1	02VD 02VO 02VC 02MD 02MO 02MC 02RD 10RO	0	1	3.94911313057	None	None	None	None	1
2.7	2015_May_19_1408	s	s	10	2	SIC	142	RC	1	1	02VD 02VO 02VC 02MD 09MO 02MC 02RD 02RO	0	1	3.50707697868	23.0	76.0	None	None	0
2.7	2015_May_19_1408	s	s	10	2	SIC	143	ABS	1	1	02VD 02VO 02VC 02MD 10MO 02MC 02RD 02RO	0	1	3.88370990753	None	None	None	None	1
2.7	2015_May_19_1408	s	s	10	2	SIC	144	ABS	1	0	02VD 02VO 02VC 02MD 02MO 10MC 02RD 02RO	0	1	2.61245799065	None	None	None	None	1
2.7	2015_May_19_1408	s	s	10	2	SIC	145	ABS	1	1	02VD 02VO 02VC 02MD 10MO 02MC 02RD 02RO	1	0	3.82467317581	None	None	-299	-253	0
2.7	2015_May_19_1408	s	s	10	2	SIC	146	ABS	1	2	02VD 02VO 02VC 10MD 02MO 02MC 02RD 02RO	0	1	0.736054897308	None	None	None	None	1
2.7	2015_May_19_1408	s	s	10	2	SIC	147	RC	2	0	02VD 02VO 09VC 02MD 02MO 02MC 02RD 02RO	1	0	0.811537981033	-182.0	22.0	-177	32	1
2.7	2015_May_19_1408	s	s	10	2	SIC	148	RC	2	2	09VD 02VO 02VC 02MD 02MO 02MC 02RD 02RO	1	0	3.38649201393	505.0	-96.0	507	-96	1
2.7	2015_May_19_1408	s	s	10	2	SIC	149	RC	1	1	02VD 02VO 02VC 02MD 09MO 02MC 02RD 02RO	1	0	2.72726106644	-136.0	157.0	-141	156	1
2.7	2015_May_19_1408	s	s	10	2	SIC	150	ABS	0	2	02VD 02VO 02VC 02MD 02MO 02MC 10RD 02RO	0	1	3.31859111786	None	None	None	None	1
2.7	2015_May_19_1408	s	s	10	2	SIC	151	ABS	2	0	02VD 02VO 10VC 02MD 02MO 02MC 02RD 02RO	0	1	2.08279395103	None	None	None	None	1
2.7	2015_May_19_1408	s	s	10	2	SIC	152	RC	2	1	02VD 09VO 02VC 02MD 02MO 02MC 02RD 02RO	1	0	1.98366522789	-164.0	402.0	-163	402	1
2.7	2015_May_19_1408	s	s	10	2	SIC	153	ABS	1	0	02VD 02VO 02VC 02MD 02MO 10MC 02RD 02RO	0	1	2.35723400116	None	None	None	None	1
2.7	2015_May_19_1408	s	s	10	2	SIC	154	RC	1	0	02VD 02VO 02VC 02MD 02MO 09MC 02RD 02RO	1	0	1.72163200378	-320.0	150.0	-314	150	1
2.7	2015_May_19_1408	s	s	10	2	SIC	155	RC	0	2	02VD 02VO 02VC 02MD 02MO 02MC 09RD 02RO	1	0	2.38873696327	192.0	-243.0	192	-244	1
2.7	2015_May_19_1408	s	s	10	2	SIC	156	RC	1	2	02VD 02VO 02VC 09MD 02MO 02MC 02RD 02RO	1	0	2.42412114143	-197.0	106.0	-203	105	1
2.7	2015_May_19_1408	s	s	10	2	SIC	157	RC	0	1	02VD 02VO 02VC 02MD 02MO 02MC 02RD 09RO	0	1	9.61588382721	-263.0	-109.0	None	None	0
2.7	2015_May_19_1408	s	s	10	2	SIC	158	ABS	2	1	02VD 10VO 02VC 02MD 02MO 02MC 02RD 02RO	0	1	3.77768015862	None	None	None	None	1
2.7	2015_May_19_1408	s	s	10	2	SIC	159	ABS	2	2	10VD 02VO 02VC 02MD 02MO 02MC 02RD 02RO	0	1	1.85429906845	None	None	None	None	1
2.7	2015_May_19_1408	s	s	10	2	SIC	160	ABS	0	1	02VD 02VO 02VC 02MD 02MO 02MC 02RD 10RO	0	1	4.57801008224	None	None	None	None	1
2.7	2015_May_19_1408	s	s	10	2	SIC	161	ABS	0	1	02VD 02VO 02VC 02MD 02MO 02MC 02RD 10RO	0	1	3.52499508858	None	None	None	None	1
2.7	2015_May_19_1408	s	s	10	2	SIC	162	RC	2	1	02VD 09VO 02VC 02MD 02MO 02MC 02RD 02RO	1	0	1.1175661087	-496.0	375.0	-494	384	1
2.7	2015_May_19_1408	s	s	10	2	SIC	163	RC	2	2	09VD 02VO 02VC 02MD 02MO 02MC 02RD 02RO	1	0	2.43339204788	-34.0	269.0	-36	266	1
2.7	2015_May_19_1408	s	s	10	2	SIC	164	RC	0	1	02VD 02VO 02VC 02MD 02MO 02MC 02RD 09RO	0	1	3.30278277397	-198.0	-276.0	None	None	0
2.7	2015_May_19_1408	s	s	10	2	SIC	165	ABS	0	2	02VD 02VO 02VC 02MD 02MO 02MC 10RD 02RO	0	1	8.52122616768	None	None	None	None	1
2.7	2015_May_19_1408	s	s	10	2	SIC	166	RC	2	0	02VD 02VO 09VC 02MD 02MO 02MC 02RD 02RO	1	0	3.53917717934	-129.0	72.0	-128	80	1
2.7	2015_May_19_1408	s	s	10	2	SIC	167	RC	1	2	02VD 02VO 02VC 09MD 02MO 02MC 02RD 02RO	1	0	1.81204819679	353.0	363.0	355	370	1
2.7	2015_May_19_1408	s	s	10	2	SIC	168	ABS	1	2	02VD 02VO 02VC 10MD 02MO 02MC 02RD 02RO	0	1	1.50372195244	None	None	None	None	1
2.7	2015_May_19_1408	s	s	10	2	SIC	169	ABS	1	1	02VD 02VO 02VC 02MD 10MO 02MC 02RD 02RO	0	1	2.1599957943	None	None	None	None	1
2.7	2015_May_19_1408	s	s	10	2	SIC	170	ABS	2	0	02VD 02VO 10VC 02MD 02MO 02MC 02RD 02RO	0	1	1.43901205063	None	None	None	None	1
2.7	2015_May_19_1408	s	s	10	2	SIC	171	ABS	2	1	02VD 10VO 02VC 02MD 02MO 02MC 02RD 02RO	0	1	1.64384102821	None	None	None	None	1
2.7	2015_May_19_1408	s	s	10	2	SIC	172	RC	0	2	02VD 02VO 02VC 02MD 02MO 02MC 09RD 02RO	1	0	2.80078482628	-319.0	205.0	-327	203	1
2.7	2015_May_19_1408	s	s	10	2	SIC	173	RC	1	0	02VD 02VO 02VC 02MD 02MO 09MC 02RD 02RO	1	0	1.41186094284	-300.0	-134.0	-301	-137	1
2.7	2015_May_19_1408	s	s	10	2	SIC	174	ABS	2	2	10VD 02VO 02VC 02MD 02MO 02MC 02RD 02RO	0	1	6.31700515747	None	None	None	None	1
2.7	2015_May_19_1408	s	s	10	2	SIC	175	ABS	1	0	02VD 02VO 02VC 02MD 02MO 10MC 02RD 02RO	0	1	2.14694499969	None	None	None	None	1
2.7	2015_May_19_1408	s	s	10	2	SIC	176	RC	1	1	02VD 02VO 02VC 02MD 09MO 02MC 02RD 02RO	1	0	5.59940600395	-29.0	258.0	-25	254	1
2.7	2015_May_19_1408	s	s	10	2	SIC	177	RC	0	2	02VD 02VO 02VC 02MD 02MO 02MC 09RD 02RO	1	0	4.33088183403	-480.0	-100.0	-479	-103	1
2.7	2015_May_19_1408	s	s	10	2	SIC	178	RC	1	0	02VD 02VO 02VC 02MD 02MO 09MC 02RD 02RO	1	0	3.16231799126	-385.0	-294.0	-385	-297	1
2.7	2015_May_19_1408	s	s	10	2	SIC	179	RC	1	1	02VD 02VO 02VC 02MD 09MO 02MC 02RD 02RO	1	0	1.91786909103	-386.0	-407.0	-388	-404	1
2.7	2015_May_19_1408	s	s	10	2	SIC	180	RC	0	1	02VD 02VO 02VC 02MD 02MO 02MC 02RD 09RO	1	0	1.62372684479	222.0	173.0	223	166	1
2.7	2015_May_19_1408	s	s	10	2	SIC	181	RC	2	2	09VD 02VO 02VC 02MD 02MO 02MC 02RD 02RO	1	0	1.35305094719	162.0	202.0	160	200	1
2.7	2015_May_19_1408	s	s	10	2	SIC	182	ABS	2	0	02VD 02VO 10VC 02MD 02MO 02MC 02RD 02RO	0	1	2.71306490898	None	None	None	None	1
2.7	2015_May_19_1408	s	s	10	2	SIC	183	ABS	0	1	02VD 02VO 02VC 02MD 02MO 02MC 02RD 10RO	0	1	2.25397086143	None	None	None	None	1
2.7	2015_May_19_1408	s	s	10	2	SIC	184	ABS	1	0	02VD 02VO 02VC 02MD 02MO 10MC 02RD 02RO	0	1	2.37165307999	None	None	None	None	1
2.7	2015_May_19_1408	s	s	10	2	SIC	185	ABS	0	2	02VD 02VO 02VC 02MD 02MO 02MC 10RD 02RO	0	1	2.65690112114	None	None	None	None	1
2.7	2015_May_19_1408	s	s	10	2	SIC	186	ABS	1	2	02VD 02VO 02VC 10MD 02MO 02MC 02RD 02RO	0	1	1.87088799477	None	None	None	None	1
2.7	2015_May_19_1408	s	s	10	2	SIC	187	ABS	1	1	02VD 02VO 02VC 02MD 10MO 02MC 02RD 02RO	0	1	4.22184300423	None	None	None	None	1
2.7	2015_May_19_1408	s	s	10	2	SIC	188	RC	1	2	02VD 02VO 02VC 09MD 02MO 02MC 02RD 02RO	1	0	2.18183898926	527.0	-161.0	532	-158	1
2.7	2015_May_19_1408	s	s	10	2	SIC	189	RC	2	0	02VD 02VO 09VC 02MD 02MO 02MC 02RD 02RO	1	0	1.40869808197	-2.0	274.0	6	275	1
2.7	2015_May_19_1408	s	s	10	2	SIC	190	RC	2	1	02VD 09VO 02VC 02MD 02MO 02MC 02RD 02RO	1	0	1.14951205254	81.0	31.0	75	37	1
2.7	2015_May_19_1408	s	s	10	2	SIC	191	ABS	2	1	02VD 10VO 02VC 02MD 02MO 02MC 02RD 02RO	0	1	2.80707097054	None	None	None	None	1
2.7	2015_May_19_1408	s	s	10	2	SIC	192	ABS	2	2	10VD 02VO 02VC 02MD 02MO 02MC 02RD 02RO	0	1	3.53770804405	None	None	None	None	1
2.7	2015_May_19_1408	s	s	10	2	SIC	193	RC	1	1	02VD 02VO 02VC 02MD 09MO 02MC 02RD 02RO	1	0	2.73013687134	392.0	-354.0	391	-355	1
2.7	2015_May_19_1408	s	s	10	2	SIC	194	ABS	2	2	10VD 02VO 02VC 02MD 02MO 02MC 02RD 02RO	0	1	2.80127000809	None	None	None	None	1
2.7	2015_May_19_1408	s	s	10	2	SIC	195	ABS	1	1	02VD 02VO 02VC 02MD 10MO 02MC 02RD 02RO	0	1	4.28388690948	None	None	None	None	1
2.7	2015_May_19_1408	s	s	10	2	SIC	196	ABS	0	2	02VD 02VO 02VC 02MD 02MO 02MC 10RD 02RO	0	1	3.66005396843	None	None	None	None	1
2.7	2015_May_19_1408	s	s	10	2	SIC	197	ABS	2	1	02VD 10VO 02VC 02MD 02MO 02MC 02RD 02RO	0	1	2.90682387352	None	None	None	None	1
2.7	2015_May_19_1408	s	s	10	2	SIC	198	RC	0	2	02VD 02VO 02VC 02MD 02MO 02MC 09RD 02RO	1	0	3.27923798561	-49.0	-367.0	-44	-364	1
2.7	2015_May_19_1408	s	s	10	2	SIC	199	RC	1	0	02VD 02VO 02VC 02MD 02MO 09MC 02RD 02RO	1	0	1.81808400154	162.0	218.0	160	210	1
2.7	2015_May_19_1408	s	s	10	2	SIC	200	RC	2	0	02VD 02VO 09VC 02MD 02MO 02MC 02RD 02RO	1	0	2.3825480938	-357.0	-237.0	-355	-235	1
2.7	2015_May_19_1408	s	s	10	2	SIC	201	ABS	1	0	02VD 02VO 02VC 02MD 02MO 10MC 02RD 02RO	0	1	6.54371285439	None	None	None	None	1
2.7	2015_May_19_1408	s	s	10	2	SIC	202	ABS	1	2	02VD 02VO 02VC 10MD 02MO 02MC 02RD 02RO	0	1	0.101686954498	None	None	None	None	1
2.7	2015_May_19_1408	s	s	10	2	SIC	203	ABS	0	1	02VD 02VO 02VC 02MD 02MO 02MC 02RD 10RO	0	1	5.38767886162	None	None	None	None	1
2.7	2015_May_19_1408	s	s	10	2	SIC	204	RC	2	2	09VD 02VO 02VC 02MD 02MO 02MC 02RD 02RO	1	0	1.89803695679	-365.0	286.0	-364	278	1
2.7	2015_May_19_1408	s	s	10	2	SIC	205	RC	0	1	02VD 02VO 02VC 02MD 02MO 02MC 02RD 09RO	1	0	3.60794186592	-273.0	248.0	-280	251	1
2.7	2015_May_19_1408	s	s	10	2	SIC	206	RC	1	2	02VD 02VO 02VC 09MD 02MO 02MC 02RD 02RO	1	0	2.8712720871	279.0	-217.0	283	-212	1
2.7	2015_May_19_1408	s	s	10	2	SIC	207	ABS	2	0	02VD 02VO 10VC 02MD 02MO 02MC 02RD 02RO	0	1	2.33004403114	None	None	None	None	1
2.7	2015_May_19_1408	s	s	10	2	SIC	208	RC	2	1	02VD 09VO 02VC 02MD 02MO 02MC 02RD 02RO	1	0	2.36524605751	98.0	382.0	94	379	1
2.7	2015_May_19_1408	s	s	10	2	SIC	209	RC	2	1	02VD 09VO 02VC 02MD 02MO 02MC 02RD 02RO	1	0	2.39678001404	-304.0	-160.0	-307	-166	1
2.7	2015_May_19_1408	s	s	10	2	SIC	210	RC	1	1	02VD 02VO 02VC 02MD 09MO 02MC 02RD 02RO	1	0	2.45934987068	383.0	19.0	385	11	1
2.7	2015_May_19_1408	s	s	10	2	SIC	211	ABS	2	2	10VD 02VO 02VC 02MD 02MO 02MC 02RD 02RO	0	1	4.00140786171	None	None	None	None	1
2.7	2015_May_19_1408	s	s	10	2	SIC	212	ABS	1	1	02VD 02VO 02VC 02MD 10MO 02MC 02RD 02RO	0	1	4.48394489288	None	None	None	None	1
2.7	2015_May_19_1408	s	s	10	2	SIC	213	ABS	0	1	02VD 02VO 02VC 02MD 02MO 02MC 02RD 10RO	0	1	3.58942508698	None	None	None	None	1
2.7	2015_May_19_1408	s	s	10	2	SIC	214	ABS	2	0	02VD 02VO 10VC 02MD 02MO 02MC 02RD 02RO	0	1	3.53755807877	None	None	None	None	1
2.7	2015_May_19_1408	s	s	10	2	SIC	215	RC	0	1	02VD 02VO 02VC 02MD 02MO 02MC 02RD 09RO	0	1	6.96750497818	246.0	-75.0	None	None	0
2.7	2015_May_19_1408	s	s	10	2	SIC	216	ABS	0	2	02VD 02VO 02VC 02MD 02MO 02MC 10RD 02RO	0	1	2.47814202309	None	None	None	None	1
2.7	2015_May_19_1408	s	s	10	2	SIC	217	ABS	1	2	02VD 02VO 02VC 10MD 02MO 02MC 02RD 02RO	0	1	1.85429096222	None	None	None	None	1
2.7	2015_May_19_1408	s	s	10	2	SIC	218	RC	2	2	09VD 02VO 02VC 02MD 02MO 02MC 02RD 02RO	1	0	3.6565349102	-247.0	175.0	-242	179	1
2.7	2015_May_19_1408	s	s	10	2	SIC	219	RC	0	2	02VD 02VO 02VC 02MD 02MO 02MC 09RD 02RO	1	0	5.3969771862	116.0	-232.0	122	-225	1
2.7	2015_May_19_1408	s	s	10	2	SIC	220	ABS	1	0	02VD 02VO 02VC 02MD 02MO 10MC 02RD 02RO	0	1	3.53925514221	None	None	None	None	1
2.7	2015_May_19_1408	s	s	10	2	SIC	221	RC	1	2	02VD 02VO 02VC 09MD 02MO 02MC 02RD 02RO	1	0	3.20104289055	482.0	53.0	486	53	1
2.7	2015_May_19_1408	s	s	10	2	SIC	222	ABS	2	1	02VD 10VO 02VC 02MD 02MO 02MC 02RD 02RO	0	1	1.37287092209	None	None	None	None	1
2.7	2015_May_19_1408	s	s	10	2	SIC	223	RC	1	0	02VD 02VO 02VC 02MD 02MO 09MC 02RD 02RO	1	0	1.43025112152	-394.0	336.0	-393	337	1
2.7	2015_May_19_1408	s	s	10	2	SIC	224	RC	2	0	02VD 02VO 09VC 02MD 02MO 02MC 02RD 02RO	1	0	2.65419101715	254.0	-282.0	254	-277	1
2.7	2015_May_19_1408	s	s	10	2	SIC	225	RC	1	0	02VD 02VO 02VC 02MD 02MO 09MC 02RD 02RO	1	0	1.19432401657	447.0	70.0	444	64	1
2.7	2015_May_19_1408	s	s	10	2	SIC	226	ABS	2	1	02VD 10VO 02VC 02MD 02MO 02MC 02RD 02RO	0	1	2.91840004921	None	None	None	None	1
2.7	2015_May_19_1408	s	s	10	2	SIC	227	RC	1	2	02VD 02VO 02VC 09MD 02MO 02MC 02RD 02RO	0	1	3.00902295113	154.0	272.0	None	None	0
2.7	2015_May_19_1408	s	s	10	2	SIC	228	RC	2	0	02VD 02VO 09VC 02MD 02MO 02MC 02RD 02RO	1	0	1.25408577919	-103.0	138.0	-101	139	1
2.7	2015_May_19_1408	s	s	10	2	SIC	229	RC	0	1	02VD 02VO 02VC 02MD 02MO 02MC 02RD 09RO	1	0	4.06736588478	-144.0	164.0	-145	162	1
2.7	2015_May_19_1408	s	s	10	2	SIC	230	RC	2	1	02VD 09VO 02VC 02MD 02MO 02MC 02RD 02RO	0	1	4.63704299927	-364.0	-273.0	None	None	0
2.7	2015_May_19_1408	s	s	10	2	SIC	231	RC	0	2	02VD 02VO 02VC 02MD 02MO 02MC 09RD 02RO	1	0	5.89042615891	114.0	-375.0	114	-378	1
2.7	2015_May_19_1408	s	s	10	2	SIC	232	ABS	2	2	10VD 02VO 02VC 02MD 02MO 02MC 02RD 02RO	0	1	2.1379981041	None	None	None	None	1
2.7	2015_May_19_1408	s	s	10	2	SIC	233	ABS	1	0	02VD 02VO 02VC 02MD 02MO 10MC 02RD 02RO	0	1	3.37786197662	None	None	None	None	1
2.7	2015_May_19_1408	s	s	10	2	SIC	234	RC	1	1	02VD 02VO 02VC 02MD 09MO 02MC 02RD 02RO	1	0	1.16081500053	287.0	302.0	288	302	1
2.7	2015_May_19_1408	s	s	10	2	SIC	235	ABS	2	0	02VD 02VO 10VC 02MD 02MO 02MC 02RD 02RO	0	1	2.48301315308	None	None	None	None	1
2.7	2015_May_19_1408	s	s	10	2	SIC	236	ABS	1	2	02VD 02VO 02VC 10MD 02MO 02MC 02RD 02RO	0	1	2.69144892693	None	None	None	None	1
2.7	2015_May_19_1408	s	s	10	2	SIC	237	ABS	0	1	02VD 02VO 02VC 02MD 02MO 02MC 02RD 10RO	0	1	3.60124111176	None	None	None	None	1
2.7	2015_May_19_1408	s	s	10	2	SIC	238	RC	2	2	09VD 02VO 02VC 02MD 02MO 02MC 02RD 02RO	0	1	2.68689084053	-443.0	201.0	None	None	0
2.7	2015_May_19_1408	s	s	10	2	SIC	239	ABS	0	2	02VD 02VO 02VC 02MD 02MO 02MC 10RD 02RO	0	1	4.98679804802	None	None	None	None	1
2.7	2015_May_19_1408	s	s	10	2	SIC	240	ABS	1	1	02VD 02VO 02VC 02MD 10MO 02MC 02RD 02RO	0	1	3.49252700806	None	None	None	None	1
2.7	2015_May_19_1408	s	s	10	2	SIC	241	RC	2	0	02VD 02VO 09VC 02MD 02MO 02MC 02RD 02RO	1	0	2.06508994102	-138.0	166.0	-133	167	1
2.7	2015_May_19_1408	s	s	10	2	SIC	242	ABS	0	1	02VD 02VO 02VC 02MD 02MO 02MC 02RD 10RO	0	1	4.22193813324	None	None	None	None	1
2.7	2015_May_19_1408	s	s	10	2	SIC	243	ABS	0	2	02VD 02VO 02VC 02MD 02MO 02MC 10RD 02RO	0	1	1.68866491318	None	None	None	None	1
2.7	2015_May_19_1408	s	s	10	2	SIC	244	RC	2	2	09VD 02VO 02VC 02MD 02MO 02MC 02RD 02RO	1	0	1.39449000359	260.0	172.0	261	172	1
2.7	2015_May_19_1408	s	s	10	2	SIC	245	RC	0	1	02VD 02VO 02VC 02MD 02MO 02MC 02RD 09RO	1	0	2.29467797279	325.0	-211.0	325	-226	1
2.7	2015_May_19_1408	s	s	10	2	SIC	246	RC	1	0	02VD 02VO 02VC 02MD 02MO 09MC 02RD 02RO	1	0	1.04051685333	-43.0	280.0	-44	272	1
2.7	2015_May_19_1408	s	s	10	2	SIC	247	RC	2	1	02VD 09VO 02VC 02MD 02MO 02MC 02RD 02RO	1	0	2.5887761116	-323.0	-139.0	-318	-143	1
2.7	2015_May_19_1408	s	s	10	2	SIC	248	ABS	1	0	02VD 02VO 02VC 02MD 02MO 10MC 02RD 02RO	0	1	2.5392780304	None	None	None	None	1
2.7	2015_May_19_1408	s	s	10	2	SIC	249	ABS	2	2	10VD 02VO 02VC 02MD 02MO 02MC 02RD 02RO	0	1	1.71563696861	None	None	None	None	1
2.7	2015_May_19_1408	s	s	10	2	SIC	250	ABS	2	0	02VD 02VO 10VC 02MD 02MO 02MC 02RD 02RO	0	1	2.12719416618	None	None	None	None	1
2.7	2015_May_19_1408	s	s	10	2	SIC	251	RC	1	1	02VD 02VO 02VC 02MD 09MO 02MC 02RD 02RO	0	1	3.25400018692	336.0	-383.0	None	None	0
2.7	2015_May_19_1408	s	s	10	2	SIC	252	ABS	2	1	02VD 10VO 02VC 02MD 02MO 02MC 02RD 02RO	0	1	1.99474096298	None	None	None	None	1
2.7	2015_May_19_1408	s	s	10	2	SIC	253	RC	1	2	02VD 02VO 02VC 09MD 02MO 02MC 02RD 02RO	1	0	2.1389811039	359.0	-79.0	357	-78	1
2.7	2015_May_19_1408	s	s	10	2	SIC	254	ABS	1	2	02VD 02VO 02VC 10MD 02MO 02MC 02RD 02RO	0	1	1.82012701035	None	None	None	None	1
2.7	2015_May_19_1408	s	s	10	2	SIC	255	ABS	1	1	02VD 02VO 02VC 02MD 10MO 02MC 02RD 02RO	0	1	3.55414295197	None	None	None	None	1
2.7	2015_May_19_1408	s	s	10	2	SIC	256	RC	0	2	02VD 02VO 02VC 02MD 02MO 02MC 09RD 02RO	0	1	2.67739892006	-512.0	-189.0	None	None	0
2.7	2015_May_19_1408	s	s	10	2	SIC	257	ABS	1	1	02VD 02VO 02VC 02MD 10MO 02MC 02RD 02RO	0	1	3.05482792854	None	None	None	None	1
2.7	2015_May_19_1408	s	s	10	2	SIC	258	RC	0	1	02VD 02VO 02VC 02MD 02MO 02MC 02RD 09RO	1	0	3.75400900841	537.0	-94.0	538	-95	1
2.7	2015_May_19_1408	s	s	10	2	SIC	259	ABS	1	2	02VD 02VO 02VC 10MD 02MO 02MC 02RD 02RO	0	1	2.14166879654	None	None	None	None	1
2.7	2015_May_19_1408	s	s	10	2	SIC	260	ABS	2	0	02VD 02VO 10VC 02MD 02MO 02MC 02RD 02RO	0	1	2.21827101707	None	None	None	None	1
2.7	2015_May_19_1408	s	s	10	2	SIC	261	ABS	0	2	02VD 02VO 02VC 02MD 02MO 02MC 10RD 02RO	0	1	1.75898218155	None	None	None	None	1
2.7	2015_May_19_1408	s	s	10	2	SIC	262	ABS	2	1	02VD 10VO 02VC 02MD 02MO 02MC 02RD 02RO	0	1	1.30581092834	None	None	None	None	1
2.7	2015_May_19_1408	s	s	10	2	SIC	263	RC	1	2	02VD 02VO 02VC 09MD 02MO 02MC 02RD 02RO	0	1	0.0672039985657	-532.0	-107.0	None	None	0
2.7	2015_May_19_1408	s	s	10	2	SIC	264	RC	1	1	02VD 02VO 02VC 02MD 09MO 02MC 02RD 02RO	1	0	4.31362199783	74.0	-226.0	73	-227	1
2.7	2015_May_19_1408	s	s	10	2	SIC	265	RC	1	0	02VD 02VO 02VC 02MD 02MO 09MC 02RD 02RO	1	0	2.37702989578	207.0	15.0	210	17	1
2.7	2015_May_19_1408	s	s	10	2	SIC	266	RC	2	1	02VD 09VO 02VC 02MD 02MO 02MC 02RD 02RO	1	0	1.95326709747	401.0	-79.0	401	-73	1
2.7	2015_May_19_1408	s	s	10	2	SIC	267	ABS	0	1	02VD 02VO 02VC 02MD 02MO 02MC 02RD 10RO	0	1	4.91433119774	None	None	None	None	1
2.7	2015_May_19_1408	s	s	10	2	SIC	268	ABS	1	0	02VD 02VO 02VC 02MD 02MO 10MC 02RD 02RO	0	1	3.59549999237	None	None	None	None	1
2.7	2015_May_19_1408	s	s	10	2	SIC	269	RC	2	2	09VD 02VO 02VC 02MD 02MO 02MC 02RD 02RO	1	0	1.27882885933	219.0	272.0	220	278	1
2.7	2015_May_19_1408	s	s	10	2	SIC	270	RC	2	0	02VD 02VO 09VC 02MD 02MO 02MC 02RD 02RO	1	0	2.78458786011	138.0	-253.0	135	-260	1
2.7	2015_May_19_1408	s	s	10	2	SIC	271	ABS	2	2	10VD 02VO 02VC 02MD 02MO 02MC 02RD 02RO	0	1	1.89444684982	None	None	None	None	1
2.7	2015_May_19_1408	s	s	10	2	SIC	272	RC	0	2	02VD 02VO 02VC 02MD 02MO 02MC 09RD 02RO	1	0	1.59538912773	155.0	392.0	160	392	1
2.7	2015_May_19_1408	s	s	10	2	SIC	273	RC	1	2	02VD 02VO 02VC 09MD 02MO 02MC 02RD 02RO	1	0	4.77259111404	-109.0	-44.0	-112	-42	1
2.7	2015_May_19_1408	s	s	10	2	SIC	274	RC	2	1	02VD 09VO 02VC 02MD 02MO 02MC 02RD 02RO	1	0	1.47079706192	23.0	295.0	19	299	1
2.7	2015_May_19_1408	s	s	10	2	SIC	275	ABS	0	2	02VD 02VO 02VC 02MD 02MO 02MC 10RD 02RO	0	1	2.54182195663	None	None	None	None	1
2.7	2015_May_19_1408	s	s	10	2	SIC	276	RC	1	0	02VD 02VO 02VC 02MD 02MO 09MC 02RD 02RO	1	0	1.61194705963	29.0	186.0	31	183	1
2.7	2015_May_19_1408	s	s	10	2	SIC	277	RC	0	2	02VD 02VO 02VC 02MD 02MO 02MC 09RD 02RO	1	0	3.21887803078	389.0	-230.0	391	-231	1
2.7	2015_May_19_1408	s	s	10	2	SIC	278	RC	2	0	02VD 02VO 09VC 02MD 02MO 02MC 02RD 02RO	1	0	1.38818693161	-195.0	-115.0	-194	-120	1
2.7	2015_May_19_1408	s	s	10	2	SIC	279	RC	1	1	02VD 02VO 02VC 02MD 09MO 02MC 02RD 02RO	1	0	1.48933911324	308.0	-328.0	301	-327	1
2.7	2015_May_19_1408	s	s	10	2	SIC	280	ABS	2	1	02VD 10VO 02VC 02MD 02MO 02MC 02RD 02RO	0	1	1.81205582619	None	None	None	None	1
2.7	2015_May_19_1408	s	s	10	2	SIC	281	RC	2	2	09VD 02VO 02VC 02MD 02MO 02MC 02RD 02RO	1	0	1.78167700768	-321.0	225.0	-321	222	1
2.7	2015_May_19_1408	s	s	10	2	SIC	282	ABS	0	1	02VD 02VO 02VC 02MD 02MO 02MC 02RD 10RO	0	1	11.8641610146	None	None	None	None	1
2.7	2015_May_19_1408	s	s	10	2	SIC	283	ABS	1	1	02VD 02VO 02VC 02MD 10MO 02MC 02RD 02RO	0	1	3.34897780418	None	None	None	None	1
2.7	2015_May_19_1408	s	s	10	2	SIC	284	ABS	2	0	02VD 02VO 10VC 02MD 02MO 02MC 02RD 02RO	0	1	4.6225810051	None	None	None	None	1
2.7	2015_May_19_1408	s	s	10	2	SIC	285	ABS	1	2	02VD 02VO 02VC 10MD 02MO 02MC 02RD 02RO	0	1	3.40676021576	None	None	None	None	1
2.7	2015_May_19_1408	s	s	10	2	SIC	286	ABS	1	0	02VD 02VO 02VC 02MD 02MO 10MC 02RD 02RO	0	1	3.6953868866	None	None	None	None	1
2.7	2015_May_19_1408	s	s	10	2	SIC	287	ABS	2	2	10VD 02VO 02VC 02MD 02MO 02MC 02RD 02RO	0	1	1.62968087196	None	None	None	None	1
2.7	2015_May_19_1408	s	s	10	2	SIC	288	RC	0	1	02VD 02VO 02VC 02MD 02MO 02MC 02RD 09RO	1	0	1.61197090149	-74.0	139.0	-72	131	1
2.7	2015_May_19_1408	s	s	10	2	SIC	289	RC	1	1	02VD 02VO 02VC 02MD 09MO 02MC 02RD 02RO	1	0	1.69427108765	281.0	-358.0	274	-355	1
2.7	2015_May_19_1408	s	s	10	2	SIC	290	ABS	2	0	02VD 02VO 10VC 02MD 02MO 02MC 02RD 02RO	0	1	1.880163908	None	None	None	None	1
2.7	2015_May_19_1408	s	s	10	2	SIC	291	ABS	0	2	02VD 02VO 02VC 02MD 02MO 02MC 10RD 02RO	0	1	2.40061187744	None	None	None	None	1
2.7	2015_May_19_1408	s	s	10	2	SIC	292	ABS	1	2	02VD 02VO 02VC 10MD 02MO 02MC 02RD 02RO	0	1	2.59577989578	None	None	None	None	1
2.7	2015_May_19_1408	s	s	10	2	SIC	293	RC	0	1	02VD 02VO 02VC 02MD 02MO 02MC 02RD 09RO	1	0	1.32406902313	440.0	-29.0	433	-24	1
2.7	2015_May_19_1408	s	s	10	2	SIC	294	RC	1	0	02VD 02VO 02VC 02MD 02MO 09MC 02RD 02RO	1	0	1.4589369297	144.0	-182.0	148	-182	1
2.7	2015_May_19_1408	s	s	10	2	SIC	295	ABS	1	0	02VD 02VO 02VC 02MD 02MO 10MC 02RD 02RO	0	1	4.08992385864	None	None	None	None	1
2.7	2015_May_19_1408	s	s	10	2	SIC	296	ABS	2	1	02VD 10VO 02VC 02MD 02MO 02MC 02RD 02RO	0	1	1.51780581474	None	None	None	None	1
2.7	2015_May_19_1408	s	s	10	2	SIC	297	ABS	1	1	02VD 02VO 02VC 02MD 10MO 02MC 02RD 02RO	0	1	2.15059685707	None	None	None	None	1
2.7	2015_May_19_1408	s	s	10	2	SIC	298	ABS	0	1	02VD 02VO 02VC 02MD 02MO 02MC 02RD 10RO	0	1	3.01264715195	None	None	None	None	1
2.7	2015_May_19_1408	s	s	10	2	SIC	299	RC	2	2	09VD 02VO 02VC 02MD 02MO 02MC 02RD 02RO	1	0	1.11185884476	-305.0	49.0	-300	49	1
2.7	2015_May_19_1408	s	s	10	2	SIC	300	RC	0	2	02VD 02VO 02VC 02MD 02MO 02MC 09RD 02RO	1	0	1.1831099987	-202.0	37.0	-204	37	1
2.7	2015_May_19_1408	s	s	10	2	SIC	301	RC	1	2	02VD 02VO 02VC 09MD 02MO 02MC 02RD 02RO	1	0	3.20837402344	233.0	-408.0	240	-410	1
2.7	2015_May_19_1408	s	s	10	2	SIC	302	RC	2	1	02VD 09VO 02VC 02MD 02MO 02MC 02RD 02RO	1	0	1.7767291069	155.0	327.0	154	324	1
2.7	2015_May_19_1408	s	s	10	2	SIC	303	ABS	2	2	10VD 02VO 02VC 02MD 02MO 02MC 02RD 02RO	0	1	1.75325012207	None	None	None	None	1
2.7	2015_May_19_1408	s	s	10	2	SIC	304	RC	2	0	02VD 02VO 09VC 02MD 02MO 02MC 02RD 02RO	1	0	1.91299891472	-149.0	-197.0	-155	-188	1
2.7	2015_May_19_1408	s	s	10	2	SIC	305	ABS	1	2	02VD 02VO 02VC 10MD 02MO 02MC 02RD 02RO	0	1	1.3717610836	None	None	None	None	1
2.7	2015_May_19_1408	s	s	10	2	SIC	306	ABS	1	1	02VD 02VO 02VC 02MD 10MO 02MC 02RD 02RO	0	1	1.70601582527	None	None	None	None	1
2.7	2015_May_19_1408	s	s	10	2	SIC	307	RC	1	2	02VD 02VO 02VC 09MD 02MO 02MC 02RD 02RO	1	0	1.49149608612	209.0	201.0	209	201	1
2.7	2015_May_19_1408	s	s	10	2	SIC	308	RC	0	2	02VD 02VO 02VC 02MD 02MO 02MC 09RD 02RO	1	0	0.937776088715	271.0	-225.0	265	-229	1
2.7	2015_May_19_1408	s	s	10	2	SIC	309	RC	1	1	02VD 02VO 02VC 02MD 09MO 02MC 02RD 02RO	1	0	1.94155716896	-263.0	-25.0	-271	-29	1
2.7	2015_May_19_1408	s	s	10	2	SIC	310	RC	1	0	02VD 02VO 02VC 02MD 02MO 09MC 02RD 02RO	1	0	0.77622294426	-70.0	16.0	-69	22	1
2.7	2015_May_19_1408	s	s	10	2	SIC	311	ABS	0	1	02VD 02VO 02VC 02MD 02MO 02MC 02RD 10RO	0	1	2.89498901367	None	None	None	None	1
2.7	2015_May_19_1408	s	s	10	2	SIC	312	RC	2	1	02VD 09VO 02VC 02MD 02MO 02MC 02RD 02RO	1	0	1.17065811157	397.0	-212.0	397	-220	1
2.7	2015_May_19_1408	s	s	10	2	SIC	313	ABS	2	0	02VD 02VO 10VC 02MD 02MO 02MC 02RD 02RO	0	1	1.95328402519	None	None	None	None	1
2.7	2015_May_19_1408	s	s	10	2	SIC	314	ABS	0	2	02VD 02VO 02VC 02MD 02MO 02MC 10RD 02RO	0	1	1.94795012474	None	None	None	None	1
2.7	2015_May_19_1408	s	s	10	2	SIC	315	RC	2	0	02VD 02VO 09VC 02MD 02MO 02MC 02RD 02RO	1	0	4.4757168293	-454.0	91.0	-454	88	1
2.7	2015_May_19_1408	s	s	10	2	SIC	316	ABS	2	1	02VD 10VO 02VC 02MD 02MO 02MC 02RD 02RO	0	1	1.60021305084	None	None	None	None	1
2.7	2015_May_19_1408	s	s	10	2	SIC	317	ABS	1	0	02VD 02VO 02VC 02MD 02MO 10MC 02RD 02RO	0	1	2.02010607719	None	None	None	None	1
2.7	2015_May_19_1408	s	s	10	2	SIC	318	RC	0	1	02VD 02VO 02VC 02MD 02MO 02MC 02RD 09RO	0	1	2.9609041214	170.0	-6.0	None	None	0
2.7	2015_May_19_1408	s	s	10	2	SIC	319	RC	2	2	09VD 02VO 02VC 02MD 02MO 02MC 02RD 02RO	1	0	2.25939512253	-339.0	-179.0	-341	-173	1
2.7	2015_May_19_1408	s	s	10	2	SIC	320	ABS	2	2	10VD 02VO 02VC 02MD 02MO 02MC 02RD 02RO	0	1	1.7061560154	None	None	None	None	1
2.7	2015_May_19_1408	s	s	10	2	SIC	321	ABS	2	2	10VD 02VO 02VC 02MD 02MO 02MC 02RD 02RO	0	1	2.00042796135	None	None	None	None	1
2.7	2015_May_19_1408	s	s	10	2	SIC	322	RC	0	2	02VD 02VO 02VC 02MD 02MO 02MC 09RD 02RO	1	0	1.70618605614	-36.0	382.0	-29	380	1
2.7	2015_May_19_1408	s	s	10	2	SIC	323	ABS	1	1	02VD 02VO 02VC 02MD 10MO 02MC 02RD 02RO	0	1	2.124158144	None	None	None	None	1
2.7	2015_May_19_1408	s	s	10	2	SIC	324	ABS	0	2	02VD 02VO 02VC 02MD 02MO 02MC 10RD 02RO	0	1	1.68237090111	None	None	None	None	1
2.7	2015_May_19_1408	s	s	10	2	SIC	325	ABS	2	1	02VD 10VO 02VC 02MD 02MO 02MC 02RD 02RO	0	1	1.90107417107	None	None	None	None	1
2.7	2015_May_19_1408	s	s	10	2	SIC	326	RC	0	1	02VD 02VO 02VC 02MD 02MO 02MC 02RD 09RO	1	0	2.89496898651	-30.0	-210.0	-22	-207	1
2.7	2015_May_19_1408	s	s	10	2	SIC	327	RC	1	2	02VD 02VO 02VC 09MD 02MO 02MC 02RD 02RO	1	0	1.74140691757	-322.0	-383.0	-316	-389	1
2.7	2015_May_19_1408	s	s	10	2	SIC	328	ABS	1	0	02VD 02VO 02VC 02MD 02MO 10MC 02RD 02RO	0	1	2.04749393463	None	None	None	None	1
2.7	2015_May_19_1408	s	s	10	2	SIC	329	RC	1	1	02VD 02VO 02VC 02MD 09MO 02MC 02RD 02RO	0	1	4.16299200058	313.0	-52.0	None	None	0
2.7	2015_May_19_1408	s	s	10	2	SIC	330	RC	2	1	02VD 09VO 02VC 02MD 02MO 02MC 02RD 02RO	1	0	7.6031999588	126.0	392.0	129	393	1
2.7	2015_May_19_1408	s	s	10	2	SIC	331	RC	2	0	02VD 02VO 09VC 02MD 02MO 02MC 02RD 02RO	1	0	1.9303560257	539.0	-98.0	541	-101	1
2.7	2015_May_19_1408	s	s	10	2	SIC	332	ABS	2	0	02VD 02VO 10VC 02MD 02MO 02MC 02RD 02RO	0	1	1.59354400635	None	None	None	None	1
2.7	2015_May_19_1408	s	s	10	2	SIC	333	ABS	1	2	02VD 02VO 02VC 10MD 02MO 02MC 02RD 02RO	0	1	1.86574888229	None	None	None	None	1
2.7	2015_May_19_1408	s	s	10	2	SIC	334	ABS	0	1	02VD 02VO 02VC 02MD 02MO 02MC 02RD 10RO	0	1	3.05338191986	None	None	None	None	1
2.7	2015_May_19_1408	s	s	10	2	SIC	335	RC	2	2	09VD 02VO 02VC 02MD 02MO 02MC 02RD 02RO	1	0	3.95144510269	-180.0	358.0	-178	362	1
2.7	2015_May_19_1408	s	s	10	2	SIC	336	RC	1	0	02VD 02VO 02VC 02MD 02MO 09MC 02RD 02RO	1	0	3.88357186317	-371.0	129.0	-373	137	1
2.7	2015_May_19_1408	s	s	10	2	SIC	337	RC	0	2	02VD 02VO 02VC 02MD 02MO 02MC 09RD 02RO	1	0	1.35336112976	-370.0	41.0	-369	47	1
2.7	2015_May_19_1408	s	s	10	2	SIC	338	RC	1	2	02VD 02VO 02VC 09MD 02MO 02MC 02RD 02RO	1	0	1.9129178524	452.0	108.0	448	96	1
2.7	2015_May_19_1408	s	s	10	2	SIC	339	RC	1	1	02VD 02VO 02VC 02MD 09MO 02MC 02RD 02RO	1	0	1.60004091263	-344.0	91.0	-341	92	1
2.7	2015_May_19_1408	s	s	10	2	SIC	340	ABS	1	1	02VD 02VO 02VC 02MD 10MO 02MC 02RD 02RO	0	1	3.24811601639	None	None	None	None	1
2.7	2015_May_19_1408	s	s	10	2	SIC	341	ABS	2	0	02VD 02VO 10VC 02MD 02MO 02MC 02RD 02RO	0	1	1.92482089996	None	None	None	None	1
2.7	2015_May_19_1408	s	s	10	2	SIC	342	RC	2	2	09VD 02VO 02VC 02MD 02MO 02MC 02RD 02RO	0	1	2.17133188248	-462.0	-113.0	None	None	0
2.7	2015_May_19_1408	s	s	10	2	SIC	343	ABS	1	0	02VD 02VO 02VC 02MD 02MO 10MC 02RD 02RO	0	1	3.50690698624	None	None	None	None	1
2.7	2015_May_19_1408	s	s	10	2	SIC	344	RC	0	1	02VD 02VO 02VC 02MD 02MO 02MC 02RD 09RO	1	0	3.7279009819	245.0	-366.0	243	-369	1
2.7	2015_May_19_1408	s	s	10	2	SIC	345	ABS	2	2	10VD 02VO 02VC 02MD 02MO 02MC 02RD 02RO	0	1	2.23302197456	None	None	None	None	1
2.7	2015_May_19_1408	s	s	10	2	SIC	346	ABS	0	1	02VD 02VO 02VC 02MD 02MO 02MC 02RD 10RO	0	1	2.78637814522	None	None	None	None	1
2.7	2015_May_19_1408	s	s	10	2	SIC	347	RC	2	0	02VD 02VO 09VC 02MD 02MO 02MC 02RD 02RO	1	0	2.11809110641	-421.0	-8.0	-421	-7	1
2.7	2015_May_19_1408	s	s	10	2	SIC	348	ABS	0	2	02VD 02VO 02VC 02MD 02MO 02MC 10RD 02RO	0	1	2.90659594536	None	None	None	None	1
2.7	2015_May_19_1408	s	s	10	2	SIC	349	ABS	2	1	02VD 10VO 02VC 02MD 02MO 02MC 02RD 02RO	0	1	2.31130504608	None	None	None	None	1
2.7	2015_May_19_1408	s	s	10	2	SIC	350	ABS	1	2	02VD 02VO 02VC 10MD 02MO 02MC 02RD 02RO	0	1	1.83565807343	None	None	None	None	1
2.7	2015_May_19_1408	s	s	10	2	SIC	351	RC	1	0	02VD 02VO 02VC 02MD 02MO 09MC 02RD 02RO	0	1	1.41635894775	-457.0	222.0	None	None	0
2.7	2015_May_19_1408	s	s	10	2	SIC	352	RC	2	1	02VD 09VO 02VC 02MD 02MO 02MC 02RD 02RO	1	0	3.08056902885	-304.0	-215.0	-310	-210	1
2.7	2015_May_19_1408	s	s	10	2	SIC	353	ABS	1	2	02VD 02VO 02VC 10MD 02MO 02MC 02RD 02RO	0	1	1.02954077721	None	None	None	None	1
2.7	2015_May_19_1408	s	s	10	2	SIC	354	ABS	1	1	02VD 02VO 02VC 02MD 10MO 02MC 02RD 02RO	0	1	2.33345103264	None	None	None	None	1
2.7	2015_May_19_1408	s	s	10	2	SIC	355	ABS	2	2	10VD 02VO 02VC 02MD 02MO 02MC 02RD 02RO	0	1	1.05455589294	None	None	None	None	1
2.7	2015_May_19_1408	s	s	10	2	SIC	356	RC	2	1	02VD 09VO 02VC 02MD 02MO 02MC 02RD 02RO	1	0	3.49989795685	-187.0	-292.0	-195	-298	1
2.7	2015_May_19_1408	s	s	10	2	SIC	357	ABS	1	0	02VD 02VO 02VC 02MD 02MO 10MC 02RD 02RO	0	1	2.35357284546	None	None	None	None	1
2.7	2015_May_19_1408	s	s	10	2	SIC	358	RC	1	1	02VD 02VO 02VC 02MD 09MO 02MC 02RD 02RO	1	0	1.35286402702	-255.0	95.0	-255	99	1
2.7	2015_May_19_1408	s	s	10	2	SIC	359	RC	1	2	02VD 02VO 02VC 09MD 02MO 02MC 02RD 02RO	1	0	3.84528303146	67.0	300.0	67	290	1
2.7	2015_May_19_1408	s	s	10	2	SIC	360	RC	0	1	02VD 02VO 02VC 02MD 02MO 02MC 02RD 09RO	1	0	2.24223685265	-35.0	34.0	-41	40	1
2.7	2015_May_19_1408	s	s	10	2	SIC	361	ABS	2	1	02VD 10VO 02VC 02MD 02MO 02MC 02RD 02RO	0	1	3.90257191658	None	None	None	None	1
2.7	2015_May_19_1408	s	s	10	2	SIC	362	ABS	0	1	02VD 02VO 02VC 02MD 02MO 02MC 02RD 10RO	0	1	3.68373608589	None	None	None	None	1
2.7	2015_May_19_1408	s	s	10	2	SIC	363	RC	2	2	09VD 02VO 02VC 02MD 02MO 02MC 02RD 02RO	1	0	1.76497602463	-218.0	-190.0	-224	-189	1
2.7	2015_May_19_1408	s	s	10	2	SIC	364	RC	0	2	02VD 02VO 02VC 02MD 02MO 02MC 09RD 02RO	1	0	2.28949999809	39.0	218.0	42	215	1
2.7	2015_May_19_1408	s	s	10	2	SIC	365	ABS	0	2	02VD 02VO 02VC 02MD 02MO 02MC 10RD 02RO	0	1	1.75324201584	None	None	None	None	1
2.7	2015_May_19_1408	s	s	10	2	SIC	366	ABS	2	0	02VD 02VO 10VC 02MD 02MO 02MC 02RD 02RO	0	1	1.82369709015	None	None	None	None	1
2.7	2015_May_19_1408	s	s	10	2	SIC	367	RC	1	0	02VD 02VO 02VC 02MD 02MO 09MC 02RD 02RO	0	1	3.34222507477	-397.0	197.0	None	None	0
2.7	2015_May_19_1408	s	s	10	2	SIC	368	RC	2	0	02VD 02VO 09VC 02MD 02MO 02MC 02RD 02RO	1	0	3.06757903099	-538.0	195.0	-536	191	1
2.7	2015_May_19_1408	s	s	10	2	SIC	369	ABS	1	2	02VD 02VO 02VC 10MD 02MO 02MC 02RD 02RO	0	1	1.72463202477	None	None	None	None	1
2.7	2015_May_19_1408	s	s	10	2	SIC	370	RC	0	1	02VD 02VO 02VC 02MD 02MO 02MC 02RD 09RO	0	1	3.50140094757	-126.0	-87.0	None	None	0
2.7	2015_May_19_1408	s	s	10	2	SIC	371	RC	1	0	02VD 02VO 02VC 02MD 02MO 09MC 02RD 02RO	1	0	2.32994294167	-40.0	302.0	-36	295	1
2.7	2015_May_19_1408	s	s	10	2	SIC	372	RC	2	1	02VD 09VO 02VC 02MD 02MO 02MC 02RD 02RO	1	0	1.78850317001	44.0	369.0	45	364	1
2.7	2015_May_19_1408	s	s	10	2	SIC	373	RC	2	0	02VD 02VO 09VC 02MD 02MO 02MC 02RD 02RO	1	0	1.2655069828	54.0	345.0	55	345	1
2.7	2015_May_19_1408	s	s	10	2	SIC	374	ABS	2	1	02VD 10VO 02VC 02MD 02MO 02MC 02RD 02RO	0	1	1.52680301666	None	None	None	None	1
2.7	2015_May_19_1408	s	s	10	2	SIC	375	ABS	1	1	02VD 02VO 02VC 02MD 10MO 02MC 02RD 02RO	0	1	1.44230294228	None	None	None	None	1
2.7	2015_May_19_1408	s	s	10	2	SIC	376	RC	0	2	02VD 02VO 02VC 02MD 02MO 02MC 09RD 02RO	1	0	1.84733390808	-367.0	-240.0	-370	-242	1
2.7	2015_May_19_1408	s	s	10	2	SIC	377	ABS	2	2	10VD 02VO 02VC 02MD 02MO 02MC 02RD 02RO	0	1	2.07969117165	None	None	None	None	1
2.7	2015_May_19_1408	s	s	10	2	SIC	378	ABS	0	1	02VD 02VO 02VC 02MD 02MO 02MC 02RD 10RO	0	1	2.6595659256	None	None	None	None	1
2.7	2015_May_19_1408	s	s	10	2	SIC	379	ABS	0	2	02VD 02VO 02VC 02MD 02MO 02MC 10RD 02RO	0	1	10.4006681442	None	None	None	None	1
2.7	2015_May_19_1408	s	s	10	2	SIC	380	ABS	2	0	02VD 02VO 10VC 02MD 02MO 02MC 02RD 02RO	0	1	1.82393312454	None	None	None	None	1
2.7	2015_May_19_1408	s	s	10	2	SIC	381	RC	1	2	02VD 02VO 02VC 09MD 02MO 02MC 02RD 02RO	1	0	3.65717983246	429.0	-158.0	425	-152	1
2.7	2015_May_19_1408	s	s	10	2	SIC	382	RC	2	2	09VD 02VO 02VC 02MD 02MO 02MC 02RD 02RO	1	0	0.929243087769	-363.0	291.0	-363	273	1
2.7	2015_May_19_1408	s	s	10	2	SIC	383	ABS	1	0	02VD 02VO 02VC 02MD 02MO 10MC 02RD 02RO	0	1	1.15003299713	None	None	None	None	1
2.7	2015_May_19_1408	s	s	10	2	SIC	384	RC	1	1	02VD 02VO 02VC 02MD 09MO 02MC 02RD 02RO	1	0	1.14122200012	-128.0	368.0	-125	354	1
2.7	2015_May_19_1408	s	s	10	2	SIC	385	RC	1	2	02VD 02VO 02VC 09MD 02MO 02MC 02RD 02RO	0	1	1.58834600449	-466.0	-90.0	None	None	0
2.7	2015_May_19_1408	s	s	10	2	SIC	386	RC	1	0	02VD 02VO 02VC 02MD 02MO 09MC 02RD 02RO	1	0	1.01171803474	39.0	-48.0	30	-39	1
2.7	2015_May_19_1408	s	s	10	2	SIC	387	ABS	2	2	10VD 02VO 02VC 02MD 02MO 02MC 02RD 02RO	0	1	1.78317308426	None	None	None	None	1
2.7	2015_May_19_1408	s	s	10	2	SIC	388	RC	2	0	02VD 02VO 09VC 02MD 02MO 02MC 02RD 02RO	1	0	1.30048584938	-294.0	251.0	-290	254	1
2.7	2015_May_19_1408	s	s	10	2	SIC	389	RC	0	1	02VD 02VO 02VC 02MD 02MO 02MC 02RD 09RO	0	1	3.40111708641	-304.0	-283.0	None	None	0
2.7	2015_May_19_1408	s	s	10	2	SIC	390	RC	1	1	02VD 02VO 02VC 02MD 09MO 02MC 02RD 02RO	1	0	1.47059512138	-164.0	92.0	-168	89	1
2.7	2015_May_19_1408	s	s	10	2	SIC	391	ABS	1	0	02VD 02VO 02VC 02MD 02MO 10MC 02RD 02RO	0	1	1.68251800537	None	None	None	None	1
2.7	2015_May_19_1408	s	s	10	2	SIC	392	RC	2	1	02VD 09VO 02VC 02MD 02MO 02MC 02RD 02RO	1	0	0.952872991562	-272.0	367.0	-275	356	1
2.7	2015_May_19_1408	s	s	10	2	SIC	393	ABS	0	1	02VD 02VO 02VC 02MD 02MO 02MC 02RD 10RO	0	1	2.55365800858	None	None	None	None	1
2.7	2015_May_19_1408	s	s	10	2	SIC	394	RC	2	2	09VD 02VO 02VC 02MD 02MO 02MC 02RD 02RO	1	0	1.07036495209	273.0	-133.0	281	-124	1
2.7	2015_May_19_1408	s	s	10	2	SIC	395	ABS	2	1	02VD 10VO 02VC 02MD 02MO 02MC 02RD 02RO	0	1	2.33858299255	None	None	None	None	1
2.7	2015_May_19_1408	s	s	10	2	SIC	396	ABS	1	1	02VD 02VO 02VC 02MD 10MO 02MC 02RD 02RO	0	1	1.90395212173	None	None	None	None	1
2.7	2015_May_19_1408	s	s	10	2	SIC	397	ABS	0	2	02VD 02VO 02VC 02MD 02MO 02MC 10RD 02RO	0	1	2.00802516937	None	None	None	None	1
2.7	2015_May_19_1408	s	s	10	2	SIC	398	ABS	1	2	02VD 02VO 02VC 10MD 02MO 02MC 02RD 02RO	0	1	4.14263415337	None	None	None	None	1
2.7	2015_May_19_1408	s	s	10	2	SIC	399	ABS	2	0	02VD 02VO 10VC 02MD 02MO 02MC 02RD 02RO	0	1	1.34773898125	None	None	None	None	1
2.7	2015_May_19_1408	s	s	10	2	SIC	400	RC	0	2	02VD 02VO 02VC 02MD 02MO 02MC 09RD 02RO	1	0	1.16084909439	-121.0	-301.0	-120	-302	1
2.7	2015_May_19_1408	s	s	10	2	SIC	401	ABS	1	1	02VD 02VO 02VC 02MD 10MO 02MC 02RD 02RO	0	1	1.93607902527	None	None	None	None	1
2.7	2015_May_19_1408	s	s	10	2	SIC	402	ABS	0	1	02VD 02VO 02VC 02MD 02MO 02MC 02RD 10RO	0	1	4.31926989555	None	None	None	None	1
2.7	2015_May_19_1408	s	s	10	2	SIC	403	ABS	2	2	10VD 02VO 02VC 02MD 02MO 02MC 02RD 02RO	1	0	1.49956011772	None	None	-472	320	0
2.7	2015_May_19_1408	s	s	10	2	SIC	404	ABS	2	1	02VD 10VO 02VC 02MD 02MO 02MC 02RD 02RO	0	1	2.53907394409	None	None	None	None	1
2.7	2015_May_19_1408	s	s	10	2	SIC	405	ABS	1	0	02VD 02VO 02VC 02MD 02MO 10MC 02RD 02RO	0	1	0.794095039368	None	None	None	None	1
2.7	2015_May_19_1408	s	s	10	2	SIC	406	RC	1	2	02VD 02VO 02VC 09MD 02MO 02MC 02RD 02RO	1	0	0.991708040237	102.0	119.0	97	115	1
2.7	2015_May_19_1408	s	s	10	2	SIC	407	RC	0	2	02VD 02VO 02VC 02MD 02MO 02MC 09RD 02RO	0	1	2.58609509468	269.0	180.0	None	None	0
2.7	2015_May_19_1408	s	s	10	2	SIC	408	ABS	2	0	02VD 02VO 10VC 02MD 02MO 02MC 02RD 02RO	0	1	3.2548429966	None	None	None	None	1
2.7	2015_May_19_1408	s	s	10	2	SIC	409	RC	0	1	02VD 02VO 02VC 02MD 02MO 02MC 02RD 09RO	0	1	2.68311095238	119.0	367.0	None	None	0
2.7	2015_May_19_1408	s	s	10	2	SIC	410	ABS	0	2	02VD 02VO 02VC 02MD 02MO 02MC 10RD 02RO	0	1	2.21220183372	None	None	None	None	1
2.7	2015_May_19_1408	s	s	10	2	SIC	411	RC	2	2	09VD 02VO 02VC 02MD 02MO 02MC 02RD 02RO	1	0	2.03575992584	-44.0	397.0	-39	400	1
2.7	2015_May_19_1408	s	s	10	2	SIC	412	RC	1	1	02VD 02VO 02VC 02MD 09MO 02MC 02RD 02RO	1	0	2.16129922867	376.0	-61.0	376	-62	1
2.7	2015_May_19_1408	s	s	10	2	SIC	413	ABS	1	2	02VD 02VO 02VC 10MD 02MO 02MC 02RD 02RO	0	1	1.94847798347	None	None	None	None	1
2.7	2015_May_19_1408	s	s	10	2	SIC	414	RC	1	0	02VD 02VO 02VC 02MD 02MO 09MC 02RD 02RO	0	1	2.00131201744	-396.0	24.0	None	None	0
2.7	2015_May_19_1408	s	s	10	2	SIC	415	RC	2	1	02VD 09VO 02VC 02MD 02MO 02MC 02RD 02RO	1	0	1.2068939209	63.0	-138.0	57	-140	1
2.7	2015_May_19_1408	s	s	10	2	SIC	416	RC	2	0	02VD 02VO 09VC 02MD 02MO 02MC 02RD 02RO	1	0	0.960113048553	47.0	-162.0	48	-160	1
2.7	2015_May_19_1408	s	s	10	2	SIC	417	ABS	0	2	02VD 02VO 02VC 02MD 02MO 02MC 10RD 02RO	0	1	2.04403114319	None	None	None	None	1
2.7	2015_May_19_1408	s	s	10	2	SIC	418	RC	2	0	02VD 02VO 09VC 02MD 02MO 02MC 02RD 02RO	1	0	1.38471889496	374.0	-401.0	373	-403	1
2.7	2015_May_19_1408	s	s	10	2	SIC	419	ABS	0	1	02VD 02VO 02VC 02MD 02MO 02MC 02RD 10RO	0	1	3.09510278702	None	None	None	None	1
2.7	2015_May_19_1408	s	s	10	2	SIC	420	ABS	1	2	02VD 02VO 02VC 10MD 02MO 02MC 02RD 02RO	0	1	6.3672440052	None	None	None	None	1
2.7	2015_May_19_1408	s	s	10	2	SIC	421	RC	1	0	02VD 02VO 02VC 02MD 02MO 09MC 02RD 02RO	1	0	4.79854202271	-275.0	257.0	-275	258	1
2.7	2015_May_19_1408	s	s	10	2	SIC	422	ABS	2	2	10VD 02VO 02VC 02MD 02MO 02MC 02RD 02RO	0	1	2.21899104118	None	None	None	None	1
2.7	2015_May_19_1408	s	s	10	2	SIC	423	RC	2	2	09VD 02VO 02VC 02MD 02MO 02MC 02RD 02RO	1	0	1.18553304672	425.0	-231.0	432	-224	1
2.7	2015_May_19_1408	s	s	10	2	SIC	424	ABS	1	1	02VD 02VO 02VC 02MD 10MO 02MC 02RD 02RO	0	1	3.84876418114	None	None	None	None	1
2.7	2015_May_19_1408	s	s	10	2	SIC	425	ABS	2	0	02VD 02VO 10VC 02MD 02MO 02MC 02RD 02RO	0	1	0.806568861008	None	None	None	None	1
2.7	2015_May_19_1408	s	s	10	2	SIC	426	RC	0	2	02VD 02VO 02VC 02MD 02MO 02MC 09RD 02RO	1	0	1.18421697617	390.0	-11.0	387	-9	1
2.7	2015_May_19_1408	s	s	10	2	SIC	427	RC	1	2	02VD 02VO 02VC 09MD 02MO 02MC 02RD 02RO	1	0	1.30597114563	-403.0	215.0	-398	209	1
2.7	2015_May_19_1408	s	s	10	2	SIC	428	RC	2	1	02VD 09VO 02VC 02MD 02MO 02MC 02RD 02RO	1	0	3.97036099434	-251.0	-194.0	-264	-191	1
2.7	2015_May_19_1408	s	s	10	2	SIC	429	RC	0	1	02VD 02VO 02VC 02MD 02MO 02MC 02RD 09RO	1	0	3.56085991859	158.0	27.0	168	32	1
2.7	2015_May_19_1408	s	s	10	2	SIC	430	ABS	2	1	02VD 10VO 02VC 02MD 02MO 02MC 02RD 02RO	0	1	4.28388595581	None	None	None	None	1
2.7	2015_May_19_1408	s	s	10	2	SIC	431	ABS	1	0	02VD 02VO 02VC 02MD 02MO 10MC 02RD 02RO	0	1	2.81981611252	None	None	None	None	1
2.7	2015_May_19_1408	s	s	10	2	SIC	432	RC	1	1	02VD 02VO 02VC 02MD 09MO 02MC 02RD 02RO	1	0	12.4146261215	-370.0	-157.0	-366	-152	1
2.7	2015_May_19_1408	s	s	10	2	SIC	433	RC	2	0	02VD 02VO 09VC 02MD 02MO 02MC 02RD 02RO	1	0	3.58371901512	-156.0	-83.0	-156	-86	1
2.7	2015_May_19_1408	s	s	10	2	SIC	434	ABS	0	1	02VD 02VO 02VC 02MD 02MO 02MC 02RD 10RO	0	1	2.43279099464	None	None	None	None	1
2.7	2015_May_19_1408	s	s	10	2	SIC	435	ABS	0	2	02VD 02VO 02VC 02MD 02MO 02MC 10RD 02RO	0	1	1.63221311569	None	None	None	None	1
2.7	2015_May_19_1408	s	s	10	2	SIC	436	ABS	1	2	02VD 02VO 02VC 10MD 02MO 02MC 02RD 02RO	0	1	1.91490101814	None	None	None	None	1
2.7	2015_May_19_1408	s	s	10	2	SIC	437	RC	1	0	02VD 02VO 02VC 02MD 02MO 09MC 02RD 02RO	1	0	3.32567691803	-382.0	-308.0	-378	-303	1
2.7	2015_May_19_1408	s	s	10	2	SIC	438	ABS	1	0	02VD 02VO 02VC 02MD 02MO 10MC 02RD 02RO	0	1	2.73829889297	None	None	None	None	1
2.7	2015_May_19_1408	s	s	10	2	SIC	439	ABS	2	2	10VD 02VO 02VC 02MD 02MO 02MC 02RD 02RO	0	1	1.86801290512	None	None	None	None	1
2.7	2015_May_19_1408	s	s	10	2	SIC	440	RC	1	2	02VD 02VO 02VC 09MD 02MO 02MC 02RD 02RO	1	0	2.25403809547	539.0	-405.0	541	-399	1
2.7	2015_May_19_1408	s	s	10	2	SIC	441	RC	1	1	02VD 02VO 02VC 02MD 09MO 02MC 02RD 02RO	1	0	1.1529519558	228.0	-239.0	228	-236	1
2.7	2015_May_19_1408	s	s	10	2	SIC	442	RC	0	1	02VD 02VO 02VC 02MD 02MO 02MC 02RD 09RO	1	0	5.10785293579	-440.0	162.0	-438	159	1
2.7	2015_May_19_1408	s	s	10	2	SIC	443	ABS	2	0	02VD 02VO 10VC 02MD 02MO 02MC 02RD 02RO	0	1	2.20663285255	None	None	None	None	1
2.7	2015_May_19_1408	s	s	10	2	SIC	444	RC	2	2	09VD 02VO 02VC 02MD 02MO 02MC 02RD 02RO	1	0	1.61783504486	525.0	137.0	177	218	0
2.7	2015_May_19_1408	s	s	10	2	SIC	445	RC	0	2	02VD 02VO 02VC 02MD 02MO 02MC 09RD 02RO	1	0	2.67117500305	271.0	2.0	276	-6	1
2.7	2015_May_19_1408	s	s	10	2	SIC	446	ABS	2	1	02VD 10VO 02VC 02MD 02MO 02MC 02RD 02RO	0	1	2.21912288666	None	None	None	None	1
2.7	2015_May_19_1408	s	s	10	2	SIC	447	RC	2	1	02VD 09VO 02VC 02MD 02MO 02MC 02RD 02RO	1	0	1.64243102074	176.0	168.0	181	167	1
2.7	2015_May_19_1408	s	s	10	2	SIC	448	ABS	1	1	02VD 02VO 02VC 02MD 10MO 02MC 02RD 02RO	0	1	7.82414102554	None	None	None	None	1
2.7	2015_May_19_1408	s	s	10	2	SIC	449	ABS	1	1	02VD 02VO 02VC 02MD 10MO 02MC 02RD 02RO	0	1	1.65576577187	None	None	None	None	1
2.7	2015_May_19_1408	s	s	10	2	SIC	450	ABS	2	2	10VD 02VO 02VC 02MD 02MO 02MC 02RD 02RO	0	1	1.68252515793	None	None	None	None	1
2.7	2015_May_19_1408	s	s	10	2	SIC	451	RC	1	2	02VD 02VO 02VC 09MD 02MO 02MC 02RD 02RO	0	1	1.42887997627	523.0	323.0	None	None	0
2.7	2015_May_19_1408	s	s	10	2	SIC	452	ABS	2	1	02VD 10VO 02VC 02MD 02MO 02MC 02RD 02RO	0	1	1.70624780655	None	None	None	None	1
2.7	2015_May_19_1408	s	s	10	2	SIC	453	ABS	2	0	02VD 02VO 10VC 02MD 02MO 02MC 02RD 02RO	0	1	2.09147810936	None	None	None	None	1
2.7	2015_May_19_1408	s	s	10	2	SIC	454	RC	2	1	02VD 09VO 02VC 02MD 02MO 02MC 02RD 02RO	1	0	1.43522691727	-299.0	-188.0	-303	-186	1
2.7	2015_May_19_1408	s	s	10	2	SIC	455	RC	1	1	02VD 02VO 02VC 02MD 09MO 02MC 02RD 02RO	1	0	1.51778411865	375.0	374.0	379	372	1
2.7	2015_May_19_1408	s	s	10	2	SIC	456	RC	0	2	02VD 02VO 02VC 02MD 02MO 02MC 09RD 02RO	1	0	2.36528801918	-69.0	-163.0	-70	-157	1
2.7	2015_May_19_1408	s	s	10	2	SIC	457	RC	0	1	02VD 02VO 02VC 02MD 02MO 02MC 02RD 09RO	1	0	1.68952894211	493.0	-332.0	490	-323	1
2.7	2015_May_19_1408	s	s	10	2	SIC	458	RC	1	0	02VD 02VO 02VC 02MD 02MO 09MC 02RD 02RO	1	0	2.98599481583	-439.0	-308.0	-437	-302	1
2.7	2015_May_19_1408	s	s	10	2	SIC	459	RC	2	2	09VD 02VO 02VC 02MD 02MO 02MC 02RD 02RO	0	1	1.78852391243	271.0	-404.0	None	None	0
2.7	2015_May_19_1408	s	s	10	2	SIC	460	ABS	1	0	02VD 02VO 02VC 02MD 02MO 10MC 02RD 02RO	0	1	2.60066413879	None	None	None	None	1
2.7	2015_May_19_1408	s	s	10	2	SIC	461	RC	2	0	02VD 02VO 09VC 02MD 02MO 02MC 02RD 02RO	1	0	0.964574098587	131.0	258.0	129	250	1
2.7	2015_May_19_1408	s	s	10	2	SIC	462	ABS	0	2	02VD 02VO 02VC 02MD 02MO 02MC 10RD 02RO	0	1	1.90623402596	None	None	None	None	1
2.7	2015_May_19_1408	s	s	10	2	SIC	463	ABS	0	1	02VD 02VO 02VC 02MD 02MO 02MC 02RD 10RO	0	1	1.31762504578	None	None	None	None	1
2.7	2015_May_19_1408	s	s	10	2	SIC	464	ABS	1	2	02VD 02VO 02VC 10MD 02MO 02MC 02RD 02RO	1	0	2.11402201653	None	None	-273	-126	0
2.7	2015_May_19_1408	s	s	10	2	SIC	465	RC	2	0	02VD 02VO 09VC 02MD 02MO 02MC 02RD 02RO	1	0	2.16887784004	342.0	208.0	338	211	1
2.7	2015_May_19_1408	s	s	10	2	SIC	466	ABS	1	2	02VD 02VO 02VC 10MD 02MO 02MC 02RD 02RO	0	1	2.35080885887	None	None	None	None	1
2.7	2015_May_19_1408	s	s	10	2	SIC	467	ABS	2	1	02VD 10VO 02VC 02MD 02MO 02MC 02RD 02RO	0	1	1.58841896057	None	None	None	None	1
2.7	2015_May_19_1408	s	s	10	2	SIC	468	RC	1	2	02VD 02VO 02VC 09MD 02MO 02MC 02RD 02RO	1	0	1.4945499897	507.0	294.0	509	296	1
2.7	2015_May_19_1408	s	s	10	2	SIC	469	ABS	0	1	02VD 02VO 02VC 02MD 02MO 02MC 02RD 10RO	0	1	3.75055599213	None	None	None	None	1
2.7	2015_May_19_1408	s	s	10	2	SIC	470	RC	1	0	02VD 02VO 02VC 02MD 02MO 09MC 02RD 02RO	1	0	1.52545619011	-41.0	326.0	-42	325	1
2.7	2015_May_19_1408	s	s	10	2	SIC	471	ABS	1	0	02VD 02VO 02VC 02MD 02MO 10MC 02RD 02RO	0	1	1.55037903786	None	None	None	None	1
2.7	2015_May_19_1408	s	s	10	2	SIC	472	RC	0	2	02VD 02VO 02VC 02MD 02MO 02MC 09RD 02RO	1	0	1.4001390934	181.0	61.0	178	62	1
2.7	2015_May_19_1408	s	s	10	2	SIC	473	RC	2	1	02VD 09VO 02VC 02MD 02MO 02MC 02RD 02RO	1	0	1.73598504066	223.0	-197.0	222	-202	1
2.7	2015_May_19_1408	s	s	10	2	SIC	474	ABS	2	2	10VD 02VO 02VC 02MD 02MO 02MC 02RD 02RO	0	1	2.87132906914	None	None	None	None	1
2.7	2015_May_19_1408	s	s	10	2	SIC	475	RC	1	1	02VD 02VO 02VC 02MD 09MO 02MC 02RD 02RO	1	0	1.78051710129	153.0	-374.0	154	-376	1
2.7	2015_May_19_1408	s	s	10	2	SIC	476	ABS	0	2	02VD 02VO 02VC 02MD 02MO 02MC 10RD 02RO	0	1	1.64100003242	None	None	None	None	1
2.7	2015_May_19_1408	s	s	10	2	SIC	477	RC	2	2	09VD 02VO 02VC 02MD 02MO 02MC 02RD 02RO	1	0	1.25612616539	319.0	276.0	313	281	1
2.7	2015_May_19_1408	s	s	10	2	SIC	478	ABS	2	0	02VD 02VO 10VC 02MD 02MO 02MC 02RD 02RO	0	1	1.98863792419	None	None	None	None	1
2.7	2015_May_19_1408	s	s	10	2	SIC	479	ABS	1	1	02VD 02VO 02VC 02MD 10MO 02MC 02RD 02RO	0	1	1.40910100937	None	None	None	None	1
2.7	2015_May_19_1408	s	s	10	2	SIC	480	RC	0	1	02VD 02VO 02VC 02MD 02MO 02MC 02RD 09RO	1	0	1.55322003365	-330.0	-81.0	-339	-77	1
