Version	Date	Stimuli	Method	Subject	Session	Condition	Trial	Target	Channel1	Channel2	Distractors	LMouseButton	RMouseButton	RT	TargetX	TargetY	ResponseX	ResponseY	Correct
2.7	2015_May_18_1545	s	s	12	1	Capacity	1	RC	2	0	15VC 08MC	1	0	1.46591806412	-146.0	-154.0	-148	-160	1
2.7	2015_May_18_1545	s	s	12	1	Capacity	2	ABS	2	0	16VC 08MC	0	1	1.59519100189	None	None	None	None	1
2.7	2015_May_18_1545	s	s	12	1	Capacity	3	RC	1	0	08VC 15MC	1	0	1.03022789955	-44.0	20.0	-40	19	1
2.7	2015_May_18_1545	s	s	12	1	Capacity	4	ABS	1	0	08VC 16MC	0	1	3.1892220974	None	None	None	None	1
2.7	2015_May_18_1545	s	s	12	1	Capacity	5	RC	1	0	08VC 15MC	1	0	0.988114833832	7.0	-297.0	9	-299	1
2.7	2015_May_18_1545	s	s	12	1	Capacity	6	ABS	1	0	08VC 16MC	0	1	3.04798388481	None	None	None	None	1
2.7	2015_May_18_1545	s	s	12	1	Capacity	7	ABS	2	0	16VC 08MC	0	1	3.13732290268	None	None	None	None	1
2.7	2015_May_18_1545	s	s	12	1	Capacity	8	RC	2	0	15VC 08MC	1	0	1.13618087769	-223.0	-26.0	-220	-23	1
2.7	2015_May_18_1545	s	s	12	1	Capacity	9	RC	1	0	08VC 15MC	1	0	0.995038986206	-342.0	216.0	-346	213	1
2.7	2015_May_18_1545	s	s	12	1	Capacity	10	RC	2	0	15VC 08MC	1	0	1.03525996208	425.0	-212.0	436	-208	1
2.7	2015_May_18_1545	s	s	12	1	Capacity	11	ABS	2	0	16VC 08MC	0	1	3.53056907654	None	None	None	None	1
2.7	2015_May_18_1545	s	s	12	1	Capacity	12	ABS	1	0	08VC 16MC	0	1	1.99511289597	None	None	None	None	1
2.7	2015_May_18_1545	s	s	12	1	Capacity	13	ABS	1	0	08VC 16MC	0	1	2.07762479782	None	None	None	None	1
2.7	2015_May_18_1545	s	s	12	1	Capacity	14	RC	2	0	15VC 08MC	1	0	1.21850681305	-403.0	-201.0	-407	-202	1
2.7	2015_May_18_1545	s	s	12	1	Capacity	15	ABS	2	0	16VC 08MC	0	1	2.5417869091	None	None	None	None	1
2.7	2015_May_18_1545	s	s	12	1	Capacity	16	RC	1	0	08VC 15MC	1	0	1.0707449913	-341.0	213.0	-343	209	1
2.7	2015_May_18_1545	s	s	12	1	Capacity	17	RC	1	0	08VC 15MC	1	0	2.10625982285	-366.0	158.0	-370	167	1
2.7	2015_May_18_1545	s	s	12	1	Capacity	18	ABS	2	0	16VC 08MC	0	1	2.05921196938	None	None	None	None	1
2.7	2015_May_18_1545	s	s	12	1	Capacity	19	RC	2	0	15VC 08MC	1	0	0.59544301033	54.0	-73.0	56	-71	1
2.7	2015_May_18_1545	s	s	12	1	Capacity	20	ABS	1	0	08VC 16MC	0	1	3.15390706062	None	None	None	None	1
2.7	2015_May_18_1545	s	s	12	1	Capacity	21	RC	2	0	15VC 08MC	1	0	0.818648815155	-29.0	255.0	-23	247	1
2.7	2015_May_18_1545	s	s	12	1	Capacity	22	ABS	1	0	08VC 16MC	0	1	2.9424328804	None	None	None	None	1
2.7	2015_May_18_1545	s	s	12	1	Capacity	23	ABS	2	0	16VC 08MC	0	1	2.31333994865	None	None	None	None	1
2.7	2015_May_18_1545	s	s	12	1	Capacity	24	RC	1	0	08VC 15MC	1	0	1.07043004036	191.0	370.0	199	364	1
2.7	2015_May_18_1545	s	s	12	1	Capacity	25	ABS	1	0	08VC 16MC	0	1	3.56264996529	None	None	None	None	1
2.7	2015_May_18_1545	s	s	12	1	Capacity	26	ABS	2	0	16VC 08MC	0	1	2.96064996719	None	None	None	None	1
2.7	2015_May_18_1545	s	s	12	1	Capacity	27	RC	2	0	15VC 08MC	1	0	1.48249912262	-183.0	384.0	-184	378	1
2.7	2015_May_18_1545	s	s	12	1	Capacity	28	RC	1	0	08VC 15MC	1	0	0.724285125732	270.0	48.0	273	46	1
2.7	2015_May_18_1545	s	s	12	1	Capacity	29	ABS	1	0	08VC 16MC	0	1	3.41955089569	None	None	None	None	1
2.7	2015_May_18_1545	s	s	12	1	Capacity	30	RC	2	0	15VC 08MC	1	0	0.818442821503	-315.0	146.0	-318	143	1
2.7	2015_May_18_1545	s	s	12	1	Capacity	31	RC	1	0	08VC 15MC	1	0	0.705668926239	-336.0	186.0	-334	177	1
2.7	2015_May_18_1545	s	s	12	1	Capacity	32	ABS	2	0	16VC 08MC	0	1	1.89446091652	None	None	None	None	1
2.7	2015_May_18_1545	s	s	12	1	Capacity	33	ABS	1	0	08VC 16MC	0	1	5.13134789467	None	None	None	None	1
2.7	2015_May_18_1545	s	s	12	1	Capacity	34	ABS	2	0	16VC 08MC	0	1	2.68304395676	None	None	None	None	1
2.7	2015_May_18_1545	s	s	12	1	Capacity	35	RC	1	0	08VC 15MC	0	1	1.14110207558	403.0	176.0	None	None	0
2.7	2015_May_18_1545	s	s	12	1	Capacity	36	RC	2	0	15VC 08MC	1	0	1.10578894615	3.0	-140.0	11	-137	1
2.7	2015_May_18_1545	s	s	12	1	Capacity	37	ABS	1	0	08VC 16MC	0	1	3.36022400856	None	None	None	None	1
2.7	2015_May_18_1545	s	s	12	1	Capacity	38	RC	2	0	15VC 08MC	1	0	1.63055801392	-525.0	346.0	-527	339	1
2.7	2015_May_18_1545	s	s	12	1	Capacity	39	RC	1	0	08VC 15MC	1	0	1.11320900917	-429.0	-257.0	-415	-252	1
2.7	2015_May_18_1545	s	s	12	1	Capacity	40	ABS	2	0	16VC 08MC	0	1	2.28984808922	None	None	None	None	1
2.7	2015_May_18_1545	s	s	12	1	Capacity	41	RC	1	0	08VC 15MC	1	0	2.80077409744	-30.0	386.0	-27	375	1
2.7	2015_May_18_1545	s	s	12	1	Capacity	42	ABS	1	0	08VC 16MC	0	1	3.55404686928	None	None	None	None	1
2.7	2015_May_18_1545	s	s	12	1	Capacity	43	RC	2	0	15VC 08MC	1	0	0.84194278717	528.0	-185.0	526	-177	1
2.7	2015_May_18_1545	s	s	12	1	Capacity	44	ABS	2	0	16VC 08MC	0	1	2.74869012833	None	None	None	None	1
2.7	2015_May_18_1545	s	s	12	1	Capacity	45	ABS	2	0	16VC 08MC	0	1	1.99495792389	None	None	None	None	1
2.7	2015_May_18_1545	s	s	12	1	Capacity	46	ABS	1	0	08VC 16MC	0	1	3.15393781662	None	None	None	None	1
2.7	2015_May_18_1545	s	s	12	1	Capacity	47	RC	1	0	08VC 15MC	1	0	0.960158824921	-19.0	286.0	-19	285	1
2.7	2015_May_18_1545	s	s	12	1	Capacity	48	RC	2	0	15VC 08MC	1	0	0.842097997665	434.0	218.0	440	218	1
2.7	2015_May_18_1545	s	s	12	1	Capacity	49	ABS	2	0	16VC 08MC	0	1	2.22399401665	None	None	None	None	1
2.7	2015_May_18_1545	s	s	12	1	Capacity	50	RC	2	0	15VC 08MC	1	0	0.823272943497	-143.0	303.0	-137	305	1
2.7	2015_May_18_1545	s	s	12	1	Capacity	51	RC	1	0	08VC 15MC	1	0	1.34148597717	525.0	316.0	530	323	1
2.7	2015_May_18_1545	s	s	12	1	Capacity	52	ABS	1	0	08VC 16MC	0	1	3.39704394341	None	None	None	None	1
2.7	2015_May_18_1545	s	s	12	1	Capacity	53	RC	1	0	08VC 15MC	1	0	0.858715057373	-400.0	230.0	-400	225	1
2.7	2015_May_18_1545	s	s	12	1	Capacity	54	ABS	2	0	16VC 08MC	0	1	2.03149604797	None	None	None	None	1
2.7	2015_May_18_1545	s	s	12	1	Capacity	55	ABS	1	0	08VC 16MC	0	1	4.1497130394	None	None	None	None	1
2.7	2015_May_18_1545	s	s	12	1	Capacity	56	RC	2	0	15VC 08MC	1	0	0.941404104233	462.0	402.0	464	403	1
2.7	2015_May_18_1545	s	s	12	1	Capacity	57	RC	2	0	15VC 08MC	0	1	0.929337978363	213.0	131.0	None	None	0
2.7	2015_May_18_1545	s	s	12	1	Capacity	58	ABS	1	0	08VC 16MC	0	1	3.02481293678	None	None	None	None	1
2.7	2015_May_18_1545	s	s	12	1	Capacity	59	RC	1	0	08VC 15MC	1	0	0.93657207489	530.0	291.0	533	295	1
2.7	2015_May_18_1545	s	s	12	1	Capacity	60	ABS	2	0	16VC 08MC	0	1	1.97681283951	None	None	None	None	1
2.7	2015_May_18_1545	s	s	12	1	Capacity	61	RC	2	0	15VC 08MC	1	0	1.7297000885	-255.0	-396.0	-256	-409	1
2.7	2015_May_18_1545	s	s	12	1	Capacity	62	RC	1	0	08VC 15MC	1	0	1.85414099693	445.0	-323.0	451	-325	1
2.7	2015_May_18_1545	s	s	12	1	Capacity	63	ABS	2	0	16VC 08MC	0	1	1.77172088623	None	None	None	None	1
2.7	2015_May_18_1545	s	s	12	1	Capacity	64	ABS	1	0	08VC 16MC	0	1	2.56044101715	None	None	None	None	1
2.7	2015_May_18_1545	s	s	12	1	Capacity	1	RC	0	2	15RD 08RO	1	0	1.65441894531	95.0	292.0	98	286	1
2.7	2015_May_18_1545	s	s	12	1	Capacity	2	RC	0	1	08RD 15RO	1	0	1.27053785324	-38.0	-57.0	-35	-60	1
2.7	2015_May_18_1545	s	s	12	1	Capacity	3	ABS	0	2	16RD 08RO	0	1	3.184248209	None	None	None	None	1
2.7	2015_May_18_1545	s	s	12	1	Capacity	4	ABS	0	1	08RD 16RO	0	1	4.56126785278	None	None	None	None	1
2.7	2015_May_18_1545	s	s	12	1	Capacity	5	ABS	0	1	08RD 16RO	0	1	4.5732319355	None	None	None	None	1
2.7	2015_May_18_1545	s	s	12	1	Capacity	6	RC	0	1	08RD 15RO	1	0	5.8440489769	134.0	-110.0	138	-119	1
2.7	2015_May_18_1545	s	s	12	1	Capacity	7	RC	0	2	15RD 08RO	1	0	2.48062300682	313.0	131.0	307	131	1
2.7	2015_May_18_1545	s	s	12	1	Capacity	8	ABS	0	2	16RD 08RO	0	1	2.62417197227	None	None	None	None	1
2.7	2015_May_18_1545	s	s	12	1	Capacity	9	ABS	0	2	16RD 08RO	0	1	3.90260219574	None	None	None	None	1
2.7	2015_May_18_1545	s	s	12	1	Capacity	10	ABS	0	1	08RD 16RO	0	1	6.0376329422	None	None	None	None	1
2.7	2015_May_18_1545	s	s	12	1	Capacity	11	RC	0	1	08RD 15RO	0	1	5.62575912476	527.0	175.0	None	None	0
2.7	2015_May_18_1545	s	s	12	1	Capacity	12	RC	0	2	15RD 08RO	1	0	1.53639817238	432.0	-379.0	436	-391	1
2.7	2015_May_18_1545	s	s	12	1	Capacity	13	ABS	0	2	16RD 08RO	0	1	3.86064696312	None	None	None	None	1
2.7	2015_May_18_1545	s	s	12	1	Capacity	14	RC	0	2	15RD 08RO	1	0	0.964564085007	-98.0	-89.0	-89	-88	1
2.7	2015_May_18_1545	s	s	12	1	Capacity	15	RC	0	1	08RD 15RO	1	0	3.04540491104	-361.0	261.0	-358	264	1
2.7	2015_May_18_1545	s	s	12	1	Capacity	16	ABS	0	1	08RD 16RO	0	1	7.13221406937	None	None	None	None	1
2.7	2015_May_18_1545	s	s	12	1	Capacity	17	RC	0	2	15RD 08RO	1	0	0.735950946808	-110.0	123.0	-109	114	1
2.7	2015_May_18_1545	s	s	12	1	Capacity	18	ABS	0	2	16RD 08RO	0	1	3.21026992798	None	None	None	None	1
2.7	2015_May_18_1545	s	s	12	1	Capacity	19	RC	0	1	08RD 15RO	1	0	5.62096309662	-294.0	91.0	-291	95	1
2.7	2015_May_18_1545	s	s	12	1	Capacity	20	ABS	0	1	08RD 16RO	0	1	8.36321496964	None	None	None	None	1
2.7	2015_May_18_1545	s	s	12	1	Capacity	21	RC	0	1	08RD 15RO	1	0	4.10258507729	-477.0	-45.0	-474	-46	1
2.7	2015_May_18_1545	s	s	12	1	Capacity	22	ABS	0	1	08RD 16RO	0	1	6.00235509872	None	None	None	None	1
2.7	2015_May_18_1545	s	s	12	1	Capacity	23	RC	0	2	15RD 08RO	1	0	0.994936943054	209.0	37.0	219	38	1
2.7	2015_May_18_1545	s	s	12	1	Capacity	24	ABS	0	2	16RD 08RO	0	1	3.77769899368	None	None	None	None	1
2.7	2015_May_18_1545	s	s	12	1	Capacity	25	RC	0	1	08RD 15RO	1	0	5.01042509079	129.0	-230.0	130	-230	1
2.7	2015_May_18_1545	s	s	12	1	Capacity	26	ABS	0	2	16RD 08RO	0	1	3.07833814621	None	None	None	None	1
2.7	2015_May_18_1545	s	s	12	1	Capacity	27	RC	0	2	15RD 08RO	1	0	1.20706009865	248.0	52.0	247	50	1
2.7	2015_May_18_1545	s	s	12	1	Capacity	28	ABS	0	1	08RD 16RO	0	1	6.88516998291	None	None	None	None	1
2.7	2015_May_18_1545	s	s	12	1	Capacity	29	RC	0	1	08RD 15RO	1	0	3.4197101593	-153.0	-319.0	-150	-319	1
2.7	2015_May_18_1545	s	s	12	1	Capacity	30	ABS	0	2	16RD 08RO	0	1	4.10243487358	None	None	None	None	1
2.7	2015_May_18_1545	s	s	12	1	Capacity	31	RC	0	2	15RD 08RO	1	0	1.24705910683	366.0	-35.0	367	-38	1
2.7	2015_May_18_1545	s	s	12	1	Capacity	32	ABS	0	1	08RD 16RO	0	1	5.80216217041	None	None	None	None	1
2.7	2015_May_18_1545	s	s	12	1	Capacity	33	ABS	0	1	08RD 16RO	0	1	6.67317795753	None	None	None	None	1
2.7	2015_May_18_1545	s	s	12	1	Capacity	34	RC	0	1	08RD 15RO	1	0	4.59660601616	439.0	333.0	444	328	1
2.7	2015_May_18_1545	s	s	12	1	Capacity	35	RC	0	2	15RD 08RO	0	1	2.35344815254	351.0	-325.0	None	None	0
2.7	2015_May_18_1545	s	s	12	1	Capacity	36	ABS	0	2	16RD 08RO	0	1	3.45428013802	None	None	None	None	1
2.7	2015_May_18_1545	s	s	12	1	Capacity	37	ABS	0	1	08RD 16RO	0	1	7.17435693741	None	None	None	None	1
2.7	2015_May_18_1545	s	s	12	1	Capacity	38	ABS	0	2	16RD 08RO	0	1	3.70712304115	None	None	None	None	1
2.7	2015_May_18_1545	s	s	12	1	Capacity	39	RC	0	1	08RD 15RO	1	0	1.11797595024	-79.0	-330.0	-69	-330	1
2.7	2015_May_18_1545	s	s	12	1	Capacity	40	RC	0	2	15RD 08RO	1	0	4.17547392845	-176.0	75.0	-180	74	1
2.7	2015_May_18_1545	s	s	12	1	Capacity	41	ABS	0	2	16RD 08RO	0	1	3.57271790504	None	None	None	None	1
2.7	2015_May_18_1545	s	s	12	1	Capacity	42	RC	0	2	15RD 08RO	1	0	1.92970085144	483.0	170.0	485	166	1
2.7	2015_May_18_1545	s	s	12	1	Capacity	43	RC	0	1	08RD 15RO	1	0	1.32941508293	461.0	335.0	453	329	1
2.7	2015_May_18_1545	s	s	12	1	Capacity	44	ABS	0	1	08RD 16RO	0	1	5.73168301582	None	None	None	None	1
2.7	2015_May_18_1545	s	s	12	1	Capacity	45	ABS	0	1	08RD 16RO	0	1	8.35405611992	None	None	None	None	1
2.7	2015_May_18_1545	s	s	12	1	Capacity	46	RC	0	2	15RD 08RO	1	0	1.11251711845	385.0	74.0	390	72	1
2.7	2015_May_18_1545	s	s	12	1	Capacity	47	RC	0	1	08RD 15RO	1	0	4.79627203941	-374.0	-135.0	-372	-135	1
2.7	2015_May_18_1545	s	s	12	1	Capacity	48	ABS	0	2	16RD 08RO	0	1	4.24861502647	None	None	None	None	1
2.7	2015_May_18_1545	s	s	12	1	Capacity	49	ABS	0	1	08RD 16RO	0	1	5.29612493515	None	None	None	None	1
2.7	2015_May_18_1545	s	s	12	1	Capacity	50	ABS	0	2	16RD 08RO	0	1	4.99003314972	None	None	None	None	1
2.7	2015_May_18_1545	s	s	12	1	Capacity	51	RC	0	2	15RD 08RO	1	0	1.22373509407	-83.0	-332.0	-81	-336	1
2.7	2015_May_18_1545	s	s	12	1	Capacity	52	RC	0	1	08RD 15RO	1	0	1.48966598511	289.0	-270.0	285	-275	1
2.7	2015_May_18_1545	s	s	12	1	Capacity	53	RC	0	1	08RD 15RO	1	0	2.03006005287	239.0	409.0	243	410	1
2.7	2015_May_18_1545	s	s	12	1	Capacity	54	RC	0	2	15RD 08RO	1	0	1.45381808281	519.0	206.0	526	215	1
2.7	2015_May_18_1545	s	s	12	1	Capacity	55	ABS	0	2	16RD 08RO	0	1	3.49524116516	None	None	None	None	1
2.7	2015_May_18_1545	s	s	12	1	Capacity	56	ABS	0	1	08RD 16RO	0	1	5.73162007332	None	None	None	None	1
2.7	2015_May_18_1545	s	s	12	1	Capacity	57	RC	0	2	15RD 08RO	1	0	2.29459214211	527.0	395.0	531	396	1
2.7	2015_May_18_1545	s	s	12	1	Capacity	58	ABS	0	2	16RD 08RO	0	1	4.02488589287	None	None	None	None	1
2.7	2015_May_18_1545	s	s	12	1	Capacity	59	ABS	0	1	08RD 16RO	0	1	5.00192499161	None	None	None	None	1
2.7	2015_May_18_1545	s	s	12	1	Capacity	60	RC	0	1	08RD 15RO	1	0	2.96259188652	243.0	89.0	239	79	1
2.7	2015_May_18_1545	s	s	12	1	Capacity	61	ABS	0	2	16RD 08RO	0	1	2.95378684998	None	None	None	None	1
2.7	2015_May_18_1545	s	s	12	1	Capacity	62	RC	0	1	08RD 15RO	1	0	4.92664599419	-270.0	-132.0	-261	-136	1
2.7	2015_May_18_1545	s	s	12	1	Capacity	63	RC	0	2	15RD 08RO	1	0	1.53880286217	335.0	74.0	338	68	1
2.7	2015_May_18_1545	s	s	12	1	Capacity	64	ABS	0	1	08RD 16RO	0	1	4.76647591591	None	None	None	None	1
2.7	2015_May_18_1545	s	s	12	1	SIC	1	RC	0	2	02VD 02VO 02VC 02MD 02MO 02MC 09RD 02RO	1	0	0.941026926041	361.0	-129.0	361	-129	1
2.7	2015_May_18_1545	s	s	12	1	SIC	2	ABS	2	1	02VD 10VO 02VC 02MD 02MO 02MC 02RD 02RO	0	1	2.46625089645	None	None	None	None	1
2.7	2015_May_18_1545	s	s	12	1	SIC	3	RC	1	1	02VD 02VO 02VC 02MD 09MO 02MC 02RD 02RO	1	0	1.28938913345	202.0	-240.0	206	-240	1
2.7	2015_May_18_1545	s	s	12	1	SIC	4	RC	1	2	02VD 02VO 02VC 09MD 02MO 02MC 02RD 02RO	1	0	0.729120969772	-91.0	-69.0	-99	-74	1
2.7	2015_May_18_1545	s	s	12	1	SIC	5	ABS	1	0	02VD 02VO 02VC 02MD 02MO 10MC 02RD 02RO	0	1	3.84399104118	None	None	None	None	1
2.7	2015_May_18_1545	s	s	12	1	SIC	6	ABS	0	1	02VD 02VO 02VC 02MD 02MO 02MC 02RD 10RO	0	1	4.71935796738	None	None	None	None	1
2.7	2015_May_18_1545	s	s	12	1	SIC	7	ABS	1	1	02VD 02VO 02VC 02MD 10MO 02MC 02RD 02RO	0	1	3.37308192253	None	None	None	None	1
2.7	2015_May_18_1545	s	s	12	1	SIC	8	RC	2	0	02VD 02VO 09VC 02MD 02MO 02MC 02RD 02RO	1	0	1.98303198814	-391.0	-215.0	-393	-217	1
2.7	2015_May_18_1545	s	s	12	1	SIC	9	RC	0	1	02VD 02VO 02VC 02MD 02MO 02MC 02RD 09RO	1	0	2.37220287323	219.0	217.0	221	209	1
2.7	2015_May_18_1545	s	s	12	1	SIC	10	ABS	2	0	02VD 02VO 10VC 02MD 02MO 02MC 02RD 02RO	0	1	1.96003699303	None	None	None	None	1
2.7	2015_May_18_1545	s	s	12	1	SIC	11	ABS	1	2	02VD 02VO 02VC 10MD 02MO 02MC 02RD 02RO	0	1	1.88260698318	None	None	None	None	1
2.7	2015_May_18_1545	s	s	12	1	SIC	12	RC	1	0	02VD 02VO 02VC 02MD 02MO 09MC 02RD 02RO	1	0	1.12309503555	222.0	203.0	230	202	1
2.7	2015_May_18_1545	s	s	12	1	SIC	13	ABS	0	2	02VD 02VO 02VC 02MD 02MO 02MC 10RD 02RO	0	1	3.54970288277	None	None	None	None	1
2.7	2015_May_18_1545	s	s	12	1	SIC	14	ABS	2	2	10VD 02VO 02VC 02MD 02MO 02MC 02RD 02RO	0	1	2.66623091698	None	None	None	None	1
2.7	2015_May_18_1545	s	s	12	1	SIC	15	RC	2	2	09VD 02VO 02VC 02MD 02MO 02MC 02RD 02RO	1	0	0.788015842438	158.0	-153.0	156	-162	1
2.7	2015_May_18_1545	s	s	12	1	SIC	16	RC	2	1	02VD 09VO 02VC 02MD 02MO 02MC 02RD 02RO	1	0	0.858663082123	334.0	-127.0	341	-130	1
2.7	2015_May_18_1545	s	s	12	1	SIC	17	ABS	2	2	10VD 02VO 02VC 02MD 02MO 02MC 02RD 02RO	0	1	1.88274908066	None	None	None	None	1
2.7	2015_May_18_1545	s	s	12	1	SIC	18	RC	1	0	02VD 02VO 02VC 02MD 02MO 09MC 02RD 02RO	1	0	1.50595188141	380.0	345.0	383	331	1
2.7	2015_May_18_1545	s	s	12	1	SIC	19	RC	1	2	02VD 02VO 02VC 09MD 02MO 02MC 02RD 02RO	1	0	1.72962999344	22.0	-162.0	18	-170	1
2.7	2015_May_18_1545	s	s	12	1	SIC	20	RC	2	1	02VD 09VO 02VC 02MD 02MO 02MC 02RD 02RO	1	0	1.31766581535	262.0	372.0	266	372	1
2.7	2015_May_18_1545	s	s	12	1	SIC	21	RC	2	0	02VD 02VO 09VC 02MD 02MO 02MC 02RD 02RO	1	0	0.968425035477	-115.0	-117.0	-120	-119	1
2.7	2015_May_18_1545	s	s	12	1	SIC	22	RC	2	2	09VD 02VO 02VC 02MD 02MO 02MC 02RD 02RO	1	0	1.11454200745	338.0	-331.0	338	-338	1
2.7	2015_May_18_1545	s	s	12	1	SIC	23	ABS	1	2	02VD 02VO 02VC 10MD 02MO 02MC 02RD 02RO	0	1	2.16057085991	None	None	None	None	1
2.7	2015_May_18_1545	s	s	12	1	SIC	24	ABS	1	0	02VD 02VO 02VC 02MD 02MO 10MC 02RD 02RO	0	1	2.48980712891	None	None	None	None	1
2.7	2015_May_18_1545	s	s	12	1	SIC	25	ABS	0	2	02VD 02VO 02VC 02MD 02MO 02MC 10RD 02RO	0	1	2.45437002182	None	None	None	None	1
2.7	2015_May_18_1545	s	s	12	1	SIC	26	RC	0	2	02VD 02VO 02VC 02MD 02MO 02MC 09RD 02RO	0	1	1.83105492592	-299.0	174.0	None	None	0
2.7	2015_May_18_1545	s	s	12	1	SIC	27	ABS	0	1	02VD 02VO 02VC 02MD 02MO 02MC 02RD 10RO	0	1	3.65571594238	None	None	None	None	1
2.7	2015_May_18_1545	s	s	12	1	SIC	28	RC	1	1	02VD 02VO 02VC 02MD 09MO 02MC 02RD 02RO	1	0	1.77027106285	351.0	-234.0	347	-231	1
2.7	2015_May_18_1545	s	s	12	1	SIC	29	ABS	2	1	02VD 10VO 02VC 02MD 02MO 02MC 02RD 02RO	0	1	2.06597495079	None	None	None	None	1
2.7	2015_May_18_1545	s	s	12	1	SIC	30	ABS	1	1	02VD 02VO 02VC 02MD 10MO 02MC 02RD 02RO	0	1	2.34786605835	None	None	None	None	1
2.7	2015_May_18_1545	s	s	12	1	SIC	31	ABS	2	0	02VD 02VO 10VC 02MD 02MO 02MC 02RD 02RO	0	1	2.2074971199	None	None	None	None	1
2.7	2015_May_18_1545	s	s	12	1	SIC	32	RC	0	1	02VD 02VO 02VC 02MD 02MO 02MC 02RD 09RO	1	0	3.8908290863	-128.0	376.0	-120	378	1
2.7	2015_May_18_1545	s	s	12	1	SIC	33	RC	0	2	02VD 02VO 02VC 02MD 02MO 02MC 09RD 02RO	1	0	2.03565716743	491.0	241.0	495	241	1
2.7	2015_May_18_1545	s	s	12	1	SIC	34	ABS	2	2	10VD 02VO 02VC 02MD 02MO 02MC 02RD 02RO	0	1	1.93870306015	None	None	None	None	1
2.7	2015_May_18_1545	s	s	12	1	SIC	35	ABS	0	1	02VD 02VO 02VC 02MD 02MO 02MC 02RD 10RO	0	1	3.80133986473	None	None	None	None	1
2.7	2015_May_18_1545	s	s	12	1	SIC	36	RC	1	1	02VD 02VO 02VC 02MD 09MO 02MC 02RD 02RO	1	0	1.03561592102	-236.0	-339.0	-234	-353	1
2.7	2015_May_18_1545	s	s	12	1	SIC	37	ABS	1	2	02VD 02VO 02VC 10MD 02MO 02MC 02RD 02RO	0	1	1.64730882645	None	None	None	None	1
2.7	2015_May_18_1545	s	s	12	1	SIC	38	RC	2	1	02VD 09VO 02VC 02MD 02MO 02MC 02RD 02RO	1	0	0.994504928589	503.0	5.0	505	-1	1
2.7	2015_May_18_1545	s	s	12	1	SIC	39	RC	1	2	02VD 02VO 02VC 09MD 02MO 02MC 02RD 02RO	1	0	0.724500894547	31.0	-20.0	25	-20	1
2.7	2015_May_18_1545	s	s	12	1	SIC	40	RC	2	0	02VD 02VO 09VC 02MD 02MO 02MC 02RD 02RO	1	0	1.03506422043	-509.0	-98.0	-510	-99	1
2.7	2015_May_18_1545	s	s	12	1	SIC	41	ABS	2	0	02VD 02VO 10VC 02MD 02MO 02MC 02RD 02RO	0	1	2.76057195663	None	None	None	None	1
2.7	2015_May_18_1545	s	s	12	1	SIC	42	ABS	1	1	02VD 02VO 02VC 02MD 10MO 02MC 02RD 02RO	0	1	4.23177695274	None	None	None	None	1
2.7	2015_May_18_1545	s	s	12	1	SIC	43	RC	0	1	02VD 02VO 02VC 02MD 02MO 02MC 02RD 09RO	1	0	0.893934965134	-287.0	-229.0	-283	-231	1
2.7	2015_May_18_1545	s	s	12	1	SIC	44	RC	2	2	09VD 02VO 02VC 02MD 02MO 02MC 02RD 02RO	1	0	1.19998288155	-177.0	-30.0	-169	-26	1
2.7	2015_May_18_1545	s	s	12	1	SIC	45	ABS	2	1	02VD 10VO 02VC 02MD 02MO 02MC 02RD 02RO	0	1	1.64729595184	None	None	None	None	1
2.7	2015_May_18_1545	s	s	12	1	SIC	46	ABS	0	2	02VD 02VO 02VC 02MD 02MO 02MC 10RD 02RO	0	1	3.05715203285	None	None	None	None	1
2.7	2015_May_18_1545	s	s	12	1	SIC	47	RC	1	0	02VD 02VO 02VC 02MD 02MO 09MC 02RD 02RO	1	0	0.971761226654	198.0	-274.0	204	-282	1
2.7	2015_May_18_1545	s	s	12	1	SIC	48	ABS	1	0	02VD 02VO 02VC 02MD 02MO 10MC 02RD 02RO	0	1	3.10439395905	None	None	None	None	1
2.7	2015_May_18_1545	s	s	12	1	SIC	49	RC	1	0	02VD 02VO 02VC 02MD 02MO 09MC 02RD 02RO	1	0	2.87867212296	307.0	-139.0	311	-146	1
2.7	2015_May_18_1545	s	s	12	1	SIC	50	RC	1	2	02VD 02VO 02VC 09MD 02MO 02MC 02RD 02RO	1	0	0.735774993896	83.0	-56.0	85	-57	1
2.7	2015_May_18_1545	s	s	12	1	SIC	51	ABS	1	0	02VD 02VO 02VC 02MD 02MO 10MC 02RD 02RO	0	1	2.48296785355	None	None	None	None	1
2.7	2015_May_18_1545	s	s	12	1	SIC	52	RC	2	2	09VD 02VO 02VC 02MD 02MO 02MC 02RD 02RO	1	0	1.20683407784	-525.0	-151.0	-520	-150	1
2.7	2015_May_18_1545	s	s	12	1	SIC	53	RC	0	2	02VD 02VO 02VC 02MD 02MO 02MC 09RD 02RO	1	0	0.735327959061	149.0	-14.0	151	-15	1
2.7	2015_May_18_1545	s	s	12	1	SIC	54	ABS	2	2	10VD 02VO 02VC 02MD 02MO 02MC 02RD 02RO	0	1	2.01892900467	None	None	None	None	1
2.7	2015_May_18_1545	s	s	12	1	SIC	55	RC	0	1	02VD 02VO 02VC 02MD 02MO 02MC 02RD 09RO	1	0	2.82431101799	-123.0	-49.0	-116	-50	1
2.7	2015_May_18_1545	s	s	12	1	SIC	56	RC	1	1	02VD 02VO 02VC 02MD 09MO 02MC 02RD 02RO	1	0	2.41981506348	221.0	316.0	227	313	1
2.7	2015_May_18_1545	s	s	12	1	SIC	57	ABS	0	2	02VD 02VO 02VC 02MD 02MO 02MC 10RD 02RO	0	1	2.41005706787	None	None	None	None	1
2.7	2015_May_18_1545	s	s	12	1	SIC	58	RC	2	0	02VD 02VO 09VC 02MD 02MO 02MC 02RD 02RO	1	0	1.22126698494	271.0	396.0	273	390	1
2.7	2015_May_18_1545	s	s	12	1	SIC	59	ABS	0	1	02VD 02VO 02VC 02MD 02MO 02MC 02RD 10RO	0	1	4.9429910183	None	None	None	None	1
2.7	2015_May_18_1545	s	s	12	1	SIC	60	ABS	2	0	02VD 02VO 10VC 02MD 02MO 02MC 02RD 02RO	0	1	1.96258592606	None	None	None	None	1
2.7	2015_May_18_1545	s	s	12	1	SIC	61	ABS	1	1	02VD 02VO 02VC 02MD 10MO 02MC 02RD 02RO	0	1	2.82436704636	None	None	None	None	1
2.7	2015_May_18_1545	s	s	12	1	SIC	62	ABS	2	1	02VD 10VO 02VC 02MD 02MO 02MC 02RD 02RO	0	1	2.11483597755	None	None	None	None	1
2.7	2015_May_18_1545	s	s	12	1	SIC	63	RC	2	1	02VD 09VO 02VC 02MD 02MO 02MC 02RD 02RO	1	0	1.72967600822	-303.0	335.0	-297	330	1
2.7	2015_May_18_1545	s	s	12	1	SIC	64	ABS	1	2	02VD 02VO 02VC 10MD 02MO 02MC 02RD 02RO	0	1	2.17692399025	None	None	None	None	1
2.7	2015_May_18_1545	s	s	12	1	SIC	65	ABS	2	0	02VD 02VO 10VC 02MD 02MO 02MC 02RD 02RO	0	1	2.87815213203	None	None	None	None	1
2.7	2015_May_18_1545	s	s	12	1	SIC	66	RC	1	1	02VD 02VO 02VC 02MD 09MO 02MC 02RD 02RO	1	0	1.24202013016	342.0	-272.0	339	-275	1
2.7	2015_May_18_1545	s	s	12	1	SIC	67	ABS	1	0	02VD 02VO 02VC 02MD 02MO 10MC 02RD 02RO	0	1	2.3249001503	None	None	None	None	1
2.7	2015_May_18_1545	s	s	12	1	SIC	68	RC	2	0	02VD 02VO 09VC 02MD 02MO 02MC 02RD 02RO	1	0	1.45442581177	-400.0	263.0	-400	259	1
2.7	2015_May_18_1545	s	s	12	1	SIC	69	RC	1	0	02VD 02VO 02VC 02MD 02MO 09MC 02RD 02RO	1	0	2.41866779327	429.0	-287.0	430	-289	1
2.7	2015_May_18_1545	s	s	12	1	SIC	70	ABS	1	2	02VD 02VO 02VC 10MD 02MO 02MC 02RD 02RO	0	1	2.31815004349	None	None	None	None	1
2.7	2015_May_18_1545	s	s	12	1	SIC	71	ABS	0	1	02VD 02VO 02VC 02MD 02MO 02MC 02RD 10RO	0	1	4.95254302025	None	None	None	None	1
2.7	2015_May_18_1545	s	s	12	1	SIC	72	RC	0	2	02VD 02VO 02VC 02MD 02MO 02MC 09RD 02RO	1	0	1.0119869709	33.0	128.0	32	134	1
2.7	2015_May_18_1545	s	s	12	1	SIC	73	RC	2	2	09VD 02VO 02VC 02MD 02MO 02MC 02RD 02RO	1	0	0.682126045227	306.0	34.0	304	29	1
2.7	2015_May_18_1545	s	s	12	1	SIC	74	RC	0	1	02VD 02VO 02VC 02MD 02MO 02MC 02RD 09RO	1	0	2.63134598732	417.0	-400.0	420	-406	1
2.7	2015_May_18_1545	s	s	12	1	SIC	75	ABS	1	1	02VD 02VO 02VC 02MD 10MO 02MC 02RD 02RO	0	1	3.08979678154	None	None	None	None	1
2.7	2015_May_18_1545	s	s	12	1	SIC	76	ABS	2	1	02VD 10VO 02VC 02MD 02MO 02MC 02RD 02RO	0	1	2.23578095436	None	None	None	None	1
2.7	2015_May_18_1545	s	s	12	1	SIC	77	ABS	2	2	10VD 02VO 02VC 02MD 02MO 02MC 02RD 02RO	0	1	2.59587407112	None	None	None	None	1
2.7	2015_May_18_1545	s	s	12	1	SIC	78	ABS	0	2	02VD 02VO 02VC 02MD 02MO 02MC 10RD 02RO	0	1	5.20860600471	None	None	None	None	1
2.7	2015_May_18_1545	s	s	12	1	SIC	79	RC	1	2	02VD 02VO 02VC 09MD 02MO 02MC 02RD 02RO	1	0	2.6310479641	-349.0	242.0	-353	244	1
2.7	2015_May_18_1545	s	s	12	1	SIC	80	RC	2	1	02VD 09VO 02VC 02MD 02MO 02MC 02RD 02RO	1	0	0.947353124619	207.0	133.0	210	126	1
2.7	2015_May_18_1545	s	s	12	1	SIC	81	ABS	0	2	02VD 02VO 02VC 02MD 02MO 02MC 10RD 02RO	0	1	2.7134449482	None	None	None	None	1
2.7	2015_May_18_1545	s	s	12	1	SIC	82	RC	2	2	09VD 02VO 02VC 02MD 02MO 02MC 02RD 02RO	1	0	0.606384038925	142.0	-4.0	139	-8	1
2.7	2015_May_18_1545	s	s	12	1	SIC	83	RC	1	1	02VD 02VO 02VC 02MD 09MO 02MC 02RD 02RO	1	0	0.799656867981	-378.0	-133.0	-378	-136	1
2.7	2015_May_18_1545	s	s	12	1	SIC	84	RC	1	0	02VD 02VO 02VC 02MD 02MO 09MC 02RD 02RO	1	0	2.12982201576	191.0	-334.0	193	-349	1
2.7	2015_May_18_1545	s	s	12	1	SIC	85	RC	2	1	02VD 09VO 02VC 02MD 02MO 02MC 02RD 02RO	1	0	1.06561207771	-476.0	-234.0	-469	-241	1
2.7	2015_May_18_1545	s	s	12	1	SIC	86	ABS	1	1	02VD 02VO 02VC 02MD 10MO 02MC 02RD 02RO	0	1	3.61933302879	None	None	None	None	1
2.7	2015_May_18_1545	s	s	12	1	SIC	87	ABS	0	1	02VD 02VO 02VC 02MD 02MO 02MC 02RD 10RO	0	1	4.31915688515	None	None	None	None	1
2.7	2015_May_18_1545	s	s	12	1	SIC	88	ABS	2	1	02VD 10VO 02VC 02MD 02MO 02MC 02RD 02RO	0	1	1.70105409622	None	None	None	None	1
2.7	2015_May_18_1545	s	s	12	1	SIC	89	ABS	1	0	02VD 02VO 02VC 02MD 02MO 10MC 02RD 02RO	0	1	2.82428908348	None	None	None	None	1
2.7	2015_May_18_1545	s	s	12	1	SIC	90	ABS	2	0	02VD 02VO 10VC 02MD 02MO 02MC 02RD 02RO	0	1	2.1012711525	None	None	None	None	1
2.7	2015_May_18_1545	s	s	12	1	SIC	91	ABS	2	2	10VD 02VO 02VC 02MD 02MO 02MC 02RD 02RO	0	1	2.61927199364	None	None	None	None	1
2.7	2015_May_18_1545	s	s	12	1	SIC	92	RC	0	1	02VD 02VO 02VC 02MD 02MO 02MC 02RD 09RO	1	0	1.0705280304	-75.0	-302.0	-76	-300	1
2.7	2015_May_18_1545	s	s	12	1	SIC	93	RC	0	2	02VD 02VO 02VC 02MD 02MO 02MC 09RD 02RO	1	0	1.20695900917	-207.0	-87.0	-203	-91	1
2.7	2015_May_18_1545	s	s	12	1	SIC	94	RC	1	2	02VD 02VO 02VC 09MD 02MO 02MC 02RD 02RO	1	0	0.784364938736	179.0	142.0	173	139	1
2.7	2015_May_18_1545	s	s	12	1	SIC	95	RC	2	0	02VD 02VO 09VC 02MD 02MO 02MC 02RD 02RO	1	0	1.96507906914	470.0	345.0	471	341	1
2.7	2015_May_18_1545	s	s	12	1	SIC	96	ABS	1	2	02VD 02VO 02VC 10MD 02MO 02MC 02RD 02RO	0	1	1.74903011322	None	None	None	None	1
2.7	2015_May_18_1545	s	s	12	1	SIC	97	ABS	2	0	02VD 02VO 10VC 02MD 02MO 02MC 02RD 02RO	0	1	1.55311393738	None	None	None	None	1
2.7	2015_May_18_1545	s	s	12	1	SIC	98	RC	1	0	02VD 02VO 02VC 02MD 02MO 09MC 02RD 02RO	1	0	1.57160401344	241.0	84.0	244	78	1
2.7	2015_May_18_1545	s	s	12	1	SIC	99	RC	0	1	02VD 02VO 02VC 02MD 02MO 02MC 02RD 09RO	1	0	1.20372200012	10.0	-360.0	6	-367	1
2.7	2015_May_18_1545	s	s	12	1	SIC	100	ABS	0	1	02VD 02VO 02VC 02MD 02MO 02MC 02RD 10RO	0	1	3.06826710701	None	None	None	None	1
2.7	2015_May_18_1545	s	s	12	1	SIC	101	RC	2	1	02VD 09VO 02VC 02MD 02MO 02MC 02RD 02RO	1	0	0.641252994537	-124.0	70.0	-125	64	1
2.7	2015_May_18_1545	s	s	12	1	SIC	102	RC	0	2	02VD 02VO 02VC 02MD 02MO 02MC 09RD 02RO	1	0	1.29409003258	-400.0	272.0	-402	267	1
2.7	2015_May_18_1545	s	s	12	1	SIC	103	RC	1	1	02VD 02VO 02VC 02MD 09MO 02MC 02RD 02RO	1	0	2.05453681946	522.0	97.0	526	98	1
2.7	2015_May_18_1545	s	s	12	1	SIC	104	ABS	0	2	02VD 02VO 02VC 02MD 02MO 02MC 10RD 02RO	0	1	2.84784603119	None	None	None	None	1
2.7	2015_May_18_1545	s	s	12	1	SIC	105	RC	2	2	09VD 02VO 02VC 02MD 02MO 02MC 02RD 02RO	1	0	1.06564307213	-303.0	-368.0	-299	-362	1
2.7	2015_May_18_1545	s	s	12	1	SIC	106	ABS	1	0	02VD 02VO 02VC 02MD 02MO 10MC 02RD 02RO	0	1	2.38882994652	None	None	None	None	1
2.7	2015_May_18_1545	s	s	12	1	SIC	107	RC	1	2	02VD 02VO 02VC 09MD 02MO 02MC 02RD 02RO	1	0	2.61618900299	231.0	-52.0	235	-59	1
2.7	2015_May_18_1545	s	s	12	1	SIC	108	RC	2	0	02VD 02VO 09VC 02MD 02MO 02MC 02RD 02RO	1	0	0.952779054642	240.0	193.0	242	188	1
2.7	2015_May_18_1545	s	s	12	1	SIC	109	ABS	2	1	02VD 10VO 02VC 02MD 02MO 02MC 02RD 02RO	0	1	2.22398781776	None	None	None	None	1
2.7	2015_May_18_1545	s	s	12	1	SIC	110	ABS	1	2	02VD 02VO 02VC 10MD 02MO 02MC 02RD 02RO	0	1	2.54861211777	None	None	None	None	1
2.7	2015_May_18_1545	s	s	12	1	SIC	111	ABS	2	2	10VD 02VO 02VC 02MD 02MO 02MC 02RD 02RO	0	1	2.3507142067	None	None	None	None	1
2.7	2015_May_18_1545	s	s	12	1	SIC	112	ABS	1	1	02VD 02VO 02VC 02MD 10MO 02MC 02RD 02RO	0	1	3.80124497414	None	None	None	None	1
2.7	2015_May_18_1545	s	s	12	1	SIC	113	RC	1	2	02VD 02VO 02VC 09MD 02MO 02MC 02RD 02RO	1	0	1.14112091064	322.0	-119.0	320	-126	1
2.7	2015_May_18_1545	s	s	12	1	SIC	114	ABS	1	1	02VD 02VO 02VC 02MD 10MO 02MC 02RD 02RO	0	1	2.9019908905	None	None	None	None	1
2.7	2015_May_18_1545	s	s	12	1	SIC	115	ABS	0	1	02VD 02VO 02VC 02MD 02MO 02MC 02RD 10RO	0	1	4.18952798843	None	None	None	None	1
2.7	2015_May_18_1545	s	s	12	1	SIC	116	ABS	2	0	02VD 02VO 10VC 02MD 02MO 02MC 02RD 02RO	0	1	2.17688798904	None	None	None	None	1
2.7	2015_May_18_1545	s	s	12	1	SIC	117	ABS	2	1	02VD 10VO 02VC 02MD 02MO 02MC 02RD 02RO	0	1	2.56577515602	None	None	None	None	1
2.7	2015_May_18_1545	s	s	12	1	SIC	118	RC	2	2	09VD 02VO 02VC 02MD 02MO 02MC 02RD 02RO	1	0	1.08898377419	464.0	-19.0	468	-20	1
2.7	2015_May_18_1545	s	s	12	1	SIC	119	RC	2	1	02VD 09VO 02VC 02MD 02MO 02MC 02RD 02RO	1	0	1.92716002464	-320.0	-317.0	-321	-323	1
2.7	2015_May_18_1545	s	s	12	1	SIC	120	ABS	1	2	02VD 02VO 02VC 10MD 02MO 02MC 02RD 02RO	0	1	1.99530601501	None	None	None	None	1
2.7	2015_May_18_1545	s	s	12	1	SIC	121	RC	0	1	02VD 02VO 02VC 02MD 02MO 02MC 02RD 09RO	1	0	0.783138990402	59.0	2.0	57	2	1
2.7	2015_May_18_1545	s	s	12	1	SIC	122	RC	0	2	02VD 02VO 02VC 02MD 02MO 02MC 09RD 02RO	0	1	2.24244594574	-272.0	396.0	None	None	0
2.7	2015_May_18_1545	s	s	12	1	SIC	123	ABS	1	0	02VD 02VO 02VC 02MD 02MO 10MC 02RD 02RO	0	1	3.06413602829	None	None	None	None	1
2.7	2015_May_18_1545	s	s	12	1	SIC	124	RC	2	0	02VD 02VO 09VC 02MD 02MO 02MC 02RD 02RO	1	0	0.764477014542	-78.0	163.0	-71	164	1
2.7	2015_May_18_1545	s	s	12	1	SIC	125	ABS	0	2	02VD 02VO 02VC 02MD 02MO 02MC 10RD 02RO	0	1	2.65441393852	None	None	None	None	1
2.7	2015_May_18_1545	s	s	12	1	SIC	126	RC	1	1	02VD 02VO 02VC 02MD 09MO 02MC 02RD 02RO	1	0	1.55067300797	-178.0	-309.0	-178	-312	1
2.7	2015_May_18_1545	s	s	12	1	SIC	127	RC	1	0	02VD 02VO 02VC 02MD 02MO 09MC 02RD 02RO	1	0	2.39604592323	278.0	52.0	288	54	1
2.7	2015_May_18_1545	s	s	12	1	SIC	128	ABS	2	2	10VD 02VO 02VC 02MD 02MO 02MC 02RD 02RO	0	1	2.05347800255	None	None	None	None	1
2.7	2015_May_18_1545	s	s	12	1	SIC	129	RC	0	1	02VD 02VO 02VC 02MD 02MO 02MC 02RD 09RO	1	0	1.1764330864	145.0	-183.0	145	-189	1
2.7	2015_May_18_1545	s	s	12	1	SIC	130	ABS	1	0	02VD 02VO 02VC 02MD 02MO 10MC 02RD 02RO	0	1	1.97214603424	None	None	None	None	1
2.7	2015_May_18_1545	s	s	12	1	SIC	131	RC	1	1	02VD 02VO 02VC 02MD 09MO 02MC 02RD 02RO	1	0	1.38828992844	-238.0	22.0	-231	18	1
2.7	2015_May_18_1545	s	s	12	1	SIC	132	ABS	0	2	02VD 02VO 02VC 02MD 02MO 02MC 10RD 02RO	0	1	2.45942497253	None	None	None	None	1
2.7	2015_May_18_1545	s	s	12	1	SIC	133	RC	1	0	02VD 02VO 02VC 02MD 02MO 09MC 02RD 02RO	1	0	2.3366689682	471.0	310.0	475	306	1
2.7	2015_May_18_1545	s	s	12	1	SIC	134	RC	0	2	02VD 02VO 02VC 02MD 02MO 02MC 09RD 02RO	1	0	0.959697008133	389.0	-275.0	393	-277	1
2.7	2015_May_18_1545	s	s	12	1	SIC	135	ABS	1	2	02VD 02VO 02VC 10MD 02MO 02MC 02RD 02RO	0	1	2.317964077	None	None	None	None	1
2.7	2015_May_18_1545	s	s	12	1	SIC	136	ABS	2	0	02VD 02VO 10VC 02MD 02MO 02MC 02RD 02RO	0	1	1.81247806549	None	None	None	None	1
2.7	2015_May_18_1545	s	s	12	1	SIC	137	ABS	2	2	10VD 02VO 02VC 02MD 02MO 02MC 02RD 02RO	0	1	2.68305897713	None	None	None	None	1
2.7	2015_May_18_1545	s	s	12	1	SIC	138	ABS	2	1	02VD 10VO 02VC 02MD 02MO 02MC 02RD 02RO	0	1	2.45443296432	None	None	None	None	1
2.7	2015_May_18_1545	s	s	12	1	SIC	139	RC	1	2	02VD 02VO 02VC 09MD 02MO 02MC 02RD 02RO	1	0	1.10075116158	-235.0	72.0	-227	76	1
2.7	2015_May_18_1545	s	s	12	1	SIC	140	ABS	1	1	02VD 02VO 02VC 02MD 10MO 02MC 02RD 02RO	0	1	3.15389513969	None	None	None	None	1
2.7	2015_May_18_1545	s	s	12	1	SIC	141	RC	2	2	09VD 02VO 02VC 02MD 02MO 02MC 02RD 02RO	1	0	2.0003798008	476.0	-138.0	484	-142	1
2.7	2015_May_18_1545	s	s	12	1	SIC	142	ABS	0	1	02VD 02VO 02VC 02MD 02MO 02MC 02RD 10RO	0	1	3.93068599701	None	None	None	None	1
2.7	2015_May_18_1545	s	s	12	1	SIC	143	RC	2	0	02VD 02VO 09VC 02MD 02MO 02MC 02RD 02RO	1	0	1.30093312263	-219.0	248.0	-225	251	1
2.7	2015_May_18_1545	s	s	12	1	SIC	144	RC	2	1	02VD 09VO 02VC 02MD 02MO 02MC 02RD 02RO	1	0	0.782965183258	-132.0	-60.0	-128	-61	1
2.7	2015_May_18_1545	s	s	12	1	SIC	145	ABS	1	0	02VD 02VO 02VC 02MD 02MO 10MC 02RD 02RO	0	1	2.87137794495	None	None	None	None	1
2.7	2015_May_18_1545	s	s	12	1	SIC	146	ABS	1	2	02VD 02VO 02VC 10MD 02MO 02MC 02RD 02RO	0	1	2.17211794853	None	None	None	None	1
2.7	2015_May_18_1545	s	s	12	1	SIC	147	RC	0	1	02VD 02VO 02VC 02MD 02MO 02MC 02RD 09RO	1	0	0.587908029556	-228.0	-35.0	-235	-33	1
2.7	2015_May_18_1545	s	s	12	1	SIC	148	RC	1	2	02VD 02VO 02VC 09MD 02MO 02MC 02RD 02RO	1	0	1.51777005196	501.0	-174.0	504	-179	1
2.7	2015_May_18_1545	s	s	12	1	SIC	149	RC	2	0	02VD 02VO 09VC 02MD 02MO 02MC 02RD 02RO	1	0	1.56270503998	-382.0	-368.0	-374	-369	1
2.7	2015_May_18_1545	s	s	12	1	SIC	150	ABS	2	1	02VD 10VO 02VC 02MD 02MO 02MC 02RD 02RO	0	1	2.40736293793	None	None	None	None	1
2.7	2015_May_18_1545	s	s	12	1	SIC	151	RC	1	1	02VD 02VO 02VC 02MD 09MO 02MC 02RD 02RO	1	0	2.37703704834	502.0	-350.0	497	-355	1
2.7	2015_May_18_1545	s	s	12	1	SIC	152	ABS	2	0	02VD 02VO 10VC 02MD 02MO 02MC 02RD 02RO	0	1	2.60759282112	None	None	None	None	1
2.7	2015_May_18_1545	s	s	12	1	SIC	153	RC	2	2	09VD 02VO 02VC 02MD 02MO 02MC 02RD 02RO	1	0	1.43543791771	496.0	314.0	496	316	1
2.7	2015_May_18_1545	s	s	12	1	SIC	154	RC	2	1	02VD 09VO 02VC 02MD 02MO 02MC 02RD 02RO	1	0	2.03562116623	222.0	381.0	227	386	1
2.7	2015_May_18_1545	s	s	12	1	SIC	155	RC	0	2	02VD 02VO 02VC 02MD 02MO 02MC 09RD 02RO	1	0	1.0941119194	-153.0	75.0	-156	71	1
2.7	2015_May_18_1545	s	s	12	1	SIC	156	RC	1	0	02VD 02VO 02VC 02MD 02MO 09MC 02RD 02RO	1	0	1.00506997108	185.0	80.0	183	79	1
2.7	2015_May_18_1545	s	s	12	1	SIC	157	ABS	0	1	02VD 02VO 02VC 02MD 02MO 02MC 02RD 10RO	0	1	3.48365688324	None	None	None	None	1
2.7	2015_May_18_1545	s	s	12	1	SIC	158	ABS	0	2	02VD 02VO 02VC 02MD 02MO 02MC 10RD 02RO	0	1	2.89489293098	None	None	None	None	1
2.7	2015_May_18_1545	s	s	12	1	SIC	159	ABS	1	1	02VD 02VO 02VC 02MD 10MO 02MC 02RD 02RO	0	1	3.75417685509	None	None	None	None	1
2.7	2015_May_18_1545	s	s	12	1	SIC	160	ABS	2	2	10VD 02VO 02VC 02MD 02MO 02MC 02RD 02RO	0	1	2.54832816124	None	None	None	None	1
2.7	2015_May_18_1545	s	s	12	1	SIC	161	ABS	1	1	02VD 02VO 02VC 02MD 10MO 02MC 02RD 02RO	0	1	2.9627790451	None	None	None	None	1
2.7	2015_May_18_1545	s	s	12	1	SIC	162	RC	0	2	02VD 02VO 02VC 02MD 02MO 02MC 09RD 02RO	1	0	0.889351844788	-59.0	-251.0	-58	-256	1
2.7	2015_May_18_1545	s	s	12	1	SIC	163	RC	2	2	09VD 02VO 02VC 02MD 02MO 02MC 02RD 02RO	1	0	0.947947025299	-318.0	-126.0	-316	-127	1
2.7	2015_May_18_1545	s	s	12	1	SIC	164	RC	2	1	02VD 09VO 02VC 02MD 02MO 02MC 02RD 02RO	1	0	0.891130924225	-33.0	236.0	-31	242	1
2.7	2015_May_18_1545	s	s	12	1	SIC	165	RC	1	2	02VD 02VO 02VC 09MD 02MO 02MC 02RD 02RO	1	0	0.912551879883	85.0	304.0	85	297	1
2.7	2015_May_18_1545	s	s	12	1	SIC	166	RC	1	0	02VD 02VO 02VC 02MD 02MO 09MC 02RD 02RO	1	0	1.02998495102	155.0	-320.0	153	-320	1
2.7	2015_May_18_1545	s	s	12	1	SIC	167	RC	1	1	02VD 02VO 02VC 02MD 09MO 02MC 02RD 02RO	1	0	1.55309796333	264.0	-229.0	273	-228	1
2.7	2015_May_18_1545	s	s	12	1	SIC	168	ABS	2	0	02VD 02VO 10VC 02MD 02MO 02MC 02RD 02RO	0	1	2.21826195717	None	None	None	None	1
2.7	2015_May_18_1545	s	s	12	1	SIC	169	ABS	1	2	02VD 02VO 02VC 10MD 02MO 02MC 02RD 02RO	0	1	2.16277098656	None	None	None	None	1
2.7	2015_May_18_1545	s	s	12	1	SIC	170	ABS	1	0	02VD 02VO 02VC 02MD 02MO 10MC 02RD 02RO	0	1	3.38505101204	None	None	None	None	1
2.7	2015_May_18_1545	s	s	12	1	SIC	171	RC	2	0	02VD 02VO 09VC 02MD 02MO 02MC 02RD 02RO	1	0	1.06571102142	-157.0	-96.0	-160	-95	1
2.7	2015_May_18_1545	s	s	12	1	SIC	172	ABS	0	1	02VD 02VO 02VC 02MD 02MO 02MC 02RD 10RO	0	1	3.85561108589	None	None	None	None	1
2.7	2015_May_18_1545	s	s	12	1	SIC	173	ABS	2	1	02VD 10VO 02VC 02MD 02MO 02MC 02RD 02RO	0	1	2.53827619553	None	None	None	None	1
2.7	2015_May_18_1545	s	s	12	1	SIC	174	ABS	2	2	10VD 02VO 02VC 02MD 02MO 02MC 02RD 02RO	0	1	2.31295585632	None	None	None	None	1
2.7	2015_May_18_1545	s	s	12	1	SIC	175	ABS	0	2	02VD 02VO 02VC 02MD 02MO 02MC 10RD 02RO	0	1	2.37700009346	None	None	None	None	1
2.7	2015_May_18_1545	s	s	12	1	SIC	176	RC	0	1	02VD 02VO 02VC 02MD 02MO 02MC 02RD 09RO	1	0	1.87464785576	-507.0	-174.0	-506	-170	1
2.7	2015_May_18_1545	s	s	12	1	SIC	177	ABS	2	1	02VD 10VO 02VC 02MD 02MO 02MC 02RD 02RO	0	1	1.77203297615	None	None	None	None	1
2.7	2015_May_18_1545	s	s	12	1	SIC	178	RC	1	1	02VD 02VO 02VC 02MD 09MO 02MC 02RD 02RO	1	0	1.30591511726	-102.0	-316.0	-97	-311	1
2.7	2015_May_18_1545	s	s	12	1	SIC	179	RC	2	0	02VD 02VO 09VC 02MD 02MO 02MC 02RD 02RO	1	0	2.26552581787	520.0	-115.0	526	-117	1
2.7	2015_May_18_1545	s	s	12	1	SIC	180	ABS	1	1	02VD 02VO 02VC 02MD 10MO 02MC 02RD 02RO	0	1	1.69432091713	None	None	None	None	1
2.7	2015_May_18_1545	s	s	12	1	SIC	181	ABS	2	0	02VD 02VO 10VC 02MD 02MO 02MC 02RD 02RO	0	1	2.1689209938	None	None	None	None	1
2.7	2015_May_18_1545	s	s	12	1	SIC	182	RC	2	1	02VD 09VO 02VC 02MD 02MO 02MC 02RD 02RO	1	0	0.983468055725	270.0	-203.0	270	-201	1
2.7	2015_May_18_1545	s	s	12	1	SIC	183	ABS	0	1	02VD 02VO 02VC 02MD 02MO 02MC 02RD 10RO	0	1	3.54229593277	None	None	None	None	1
2.7	2015_May_18_1545	s	s	12	1	SIC	184	RC	0	2	02VD 02VO 02VC 02MD 02MO 02MC 09RD 02RO	1	0	2.44765901566	470.0	-264.0	476	-262	1
2.7	2015_May_18_1545	s	s	12	1	SIC	185	ABS	0	2	02VD 02VO 02VC 02MD 02MO 02MC 10RD 02RO	0	1	1.85456490517	None	None	None	None	1
2.7	2015_May_18_1545	s	s	12	1	SIC	186	RC	1	0	02VD 02VO 02VC 02MD 02MO 09MC 02RD 02RO	1	0	1.19995212555	-499.0	-216.0	-492	-207	1
2.7	2015_May_18_1545	s	s	12	1	SIC	187	ABS	1	2	02VD 02VO 02VC 10MD 02MO 02MC 02RD 02RO	0	1	2.90185308456	None	None	None	None	1
2.7	2015_May_18_1545	s	s	12	1	SIC	188	RC	1	2	02VD 02VO 02VC 09MD 02MO 02MC 02RD 02RO	1	0	1.12702584267	504.0	137.0	510	132	1
2.7	2015_May_18_1545	s	s	12	1	SIC	189	RC	2	2	09VD 02VO 02VC 02MD 02MO 02MC 02RD 02RO	1	0	1.19680690765	192.0	301.0	191	288	1
2.7	2015_May_18_1545	s	s	12	1	SIC	190	RC	0	1	02VD 02VO 02VC 02MD 02MO 02MC 02RD 09RO	1	0	1.41182804108	520.0	84.0	525	84	1
2.7	2015_May_18_1545	s	s	12	1	SIC	191	ABS	1	0	02VD 02VO 02VC 02MD 02MO 10MC 02RD 02RO	0	1	2.99583506584	None	None	None	None	1
2.7	2015_May_18_1545	s	s	12	1	SIC	192	ABS	2	2	10VD 02VO 02VC 02MD 02MO 02MC 02RD 02RO	0	1	1.83555603027	None	None	None	None	1
2.7	2015_May_18_1545	s	s	12	1	SIC	193	RC	2	0	02VD 02VO 09VC 02MD 02MO 02MC 02RD 02RO	1	0	1.47074699402	-447.0	16.0	-440	14	1
2.7	2015_May_18_1545	s	s	12	1	SIC	194	ABS	2	2	10VD 02VO 02VC 02MD 02MO 02MC 02RD 02RO	0	1	1.92497801781	None	None	None	None	1
2.7	2015_May_18_1545	s	s	12	1	SIC	195	RC	2	2	09VD 02VO 02VC 02MD 02MO 02MC 02RD 02RO	1	0	1.07064199448	-54.0	325.0	-55	326	1
2.7	2015_May_18_1545	s	s	12	1	SIC	196	RC	0	1	02VD 02VO 02VC 02MD 02MO 02MC 02RD 09RO	1	0	1.01163196564	-321.0	-296.0	-317	-297	1
2.7	2015_May_18_1545	s	s	12	1	SIC	197	ABS	1	0	02VD 02VO 02VC 02MD 02MO 10MC 02RD 02RO	0	1	3.48400688171	None	None	None	None	1
2.7	2015_May_18_1545	s	s	12	1	SIC	198	RC	0	2	02VD 02VO 02VC 02MD 02MO 02MC 09RD 02RO	1	0	2.48949098587	-531.0	371.0	-530	366	1
2.7	2015_May_18_1545	s	s	12	1	SIC	199	RC	1	2	02VD 02VO 02VC 09MD 02MO 02MC 02RD 02RO	1	0	0.670235157013	-94.0	25.0	-97	20	1
2.7	2015_May_18_1545	s	s	12	1	SIC	200	RC	1	1	02VD 02VO 02VC 02MD 09MO 02MC 02RD 02RO	1	0	0.835082054138	236.0	48.0	230	48	1
2.7	2015_May_18_1545	s	s	12	1	SIC	201	RC	1	0	02VD 02VO 02VC 02MD 02MO 09MC 02RD 02RO	1	0	1.39551687241	88.0	-99.0	103	-92	1
2.7	2015_May_18_1545	s	s	12	1	SIC	202	ABS	1	2	02VD 02VO 02VC 10MD 02MO 02MC 02RD 02RO	0	1	2.04747009277	None	None	None	None	1
2.7	2015_May_18_1545	s	s	12	1	SIC	203	ABS	0	1	02VD 02VO 02VC 02MD 02MO 02MC 02RD 10RO	0	1	4.66688013077	None	None	None	None	1
2.7	2015_May_18_1545	s	s	12	1	SIC	204	ABS	0	2	02VD 02VO 02VC 02MD 02MO 02MC 10RD 02RO	0	1	2.37702798843	None	None	None	None	1
2.7	2015_May_18_1545	s	s	12	1	SIC	205	RC	2	1	02VD 09VO 02VC 02MD 02MO 02MC 02RD 02RO	1	0	1.19998407364	249.0	380.0	256	380	1
2.7	2015_May_18_1545	s	s	12	1	SIC	206	ABS	2	1	02VD 10VO 02VC 02MD 02MO 02MC 02RD 02RO	0	1	3.56583189964	None	None	None	None	1
2.7	2015_May_18_1545	s	s	12	1	SIC	207	ABS	1	1	02VD 02VO 02VC 02MD 10MO 02MC 02RD 02RO	0	1	2.74864506721	None	None	None	None	1
2.7	2015_May_18_1545	s	s	12	1	SIC	208	ABS	2	0	02VD 02VO 10VC 02MD 02MO 02MC 02RD 02RO	0	1	2.42785096169	None	None	None	None	1
2.7	2015_May_18_1545	s	s	12	1	SIC	209	RC	2	1	02VD 09VO 02VC 02MD 02MO 02MC 02RD 02RO	1	0	2.23146295547	-434.0	-181.0	-434	-179	1
2.7	2015_May_18_1545	s	s	12	1	SIC	210	ABS	1	0	02VD 02VO 02VC 02MD 02MO 10MC 02RD 02RO	0	1	3.26588892937	None	None	None	None	1
2.7	2015_May_18_1545	s	s	12	1	SIC	211	RC	2	2	09VD 02VO 02VC 02MD 02MO 02MC 02RD 02RO	1	0	1.15980911255	-131.0	77.0	-125	76	1
2.7	2015_May_18_1545	s	s	12	1	SIC	212	ABS	0	1	02VD 02VO 02VC 02MD 02MO 02MC 02RD 10RO	0	1	3.7626209259	None	None	None	None	1
2.7	2015_May_18_1545	s	s	12	1	SIC	213	ABS	2	0	02VD 02VO 10VC 02MD 02MO 02MC 02RD 02RO	0	1	2.4594180584	None	None	None	None	1
2.7	2015_May_18_1545	s	s	12	1	SIC	214	ABS	2	2	10VD 02VO 02VC 02MD 02MO 02MC 02RD 02RO	0	1	2.01824498177	None	None	None	None	1
2.7	2015_May_18_1545	s	s	12	1	SIC	215	ABS	2	1	02VD 10VO 02VC 02MD 02MO 02MC 02RD 02RO	0	1	1.84257292747	None	None	None	None	1
2.7	2015_May_18_1545	s	s	12	1	SIC	216	RC	0	2	02VD 02VO 02VC 02MD 02MO 02MC 09RD 02RO	1	0	2.289757967	-490.0	302.0	-487	303	1
2.7	2015_May_18_1545	s	s	12	1	SIC	217	ABS	1	1	02VD 02VO 02VC 02MD 10MO 02MC 02RD 02RO	0	1	1.69433093071	None	None	None	None	1
2.7	2015_May_18_1545	s	s	12	1	SIC	218	RC	1	0	02VD 02VO 02VC 02MD 02MO 09MC 02RD 02RO	0	1	2.55356001854	237.0	351.0	None	None	0
2.7	2015_May_18_1545	s	s	12	1	SIC	219	RC	1	1	02VD 02VO 02VC 02MD 09MO 02MC 02RD 02RO	1	0	1.10095381737	-378.0	100.0	-373	98	1
2.7	2015_May_18_1545	s	s	12	1	SIC	220	RC	0	1	02VD 02VO 02VC 02MD 02MO 02MC 02RD 09RO	1	0	2.28992009163	-324.0	24.0	-328	16	1
2.7	2015_May_18_1545	s	s	12	1	SIC	221	ABS	1	2	02VD 02VO 02VC 10MD 02MO 02MC 02RD 02RO	0	1	1.71776294708	None	None	None	None	1
2.7	2015_May_18_1545	s	s	12	1	SIC	222	RC	2	0	02VD 02VO 09VC 02MD 02MO 02MC 02RD 02RO	1	0	1.50605797768	457.0	-328.0	460	-331	1
2.7	2015_May_18_1545	s	s	12	1	SIC	223	ABS	0	2	02VD 02VO 02VC 02MD 02MO 02MC 10RD 02RO	0	1	1.99543905258	None	None	None	None	1
2.7	2015_May_18_1545	s	s	12	1	SIC	224	RC	1	2	02VD 02VO 02VC 09MD 02MO 02MC 02RD 02RO	1	0	1.23165893555	-114.0	-357.0	-110	-361	1
2.7	2015_May_18_1545	s	s	12	1	SIC	225	RC	0	1	02VD 02VO 02VC 02MD 02MO 02MC 02RD 09RO	1	0	1.23044991493	-27.0	288.0	-24	283	1
2.7	2015_May_18_1545	s	s	12	1	SIC	226	ABS	1	0	02VD 02VO 02VC 02MD 02MO 10MC 02RD 02RO	0	1	2.31426811218	None	None	None	None	1
2.7	2015_May_18_1545	s	s	12	1	SIC	227	ABS	2	1	02VD 10VO 02VC 02MD 02MO 02MC 02RD 02RO	0	1	2.53023099899	None	None	None	None	1
2.7	2015_May_18_1545	s	s	12	1	SIC	228	RC	1	0	02VD 02VO 02VC 02MD 02MO 09MC 02RD 02RO	1	0	2.34170889854	-344.0	355.0	-349	358	1
2.7	2015_May_18_1545	s	s	12	1	SIC	229	RC	2	2	09VD 02VO 02VC 02MD 02MO 02MC 02RD 02RO	1	0	1.77671289444	69.0	365.0	69	367	1
2.7	2015_May_18_1545	s	s	12	1	SIC	230	RC	0	2	02VD 02VO 02VC 02MD 02MO 02MC 09RD 02RO	1	0	1.08924508095	292.0	121.0	289	123	1
2.7	2015_May_18_1545	s	s	12	1	SIC	231	RC	2	0	02VD 02VO 09VC 02MD 02MO 02MC 02RD 02RO	1	0	0.870419979095	366.0	-5.0	367	-6	1
2.7	2015_May_18_1545	s	s	12	1	SIC	232	RC	1	1	02VD 02VO 02VC 02MD 09MO 02MC 02RD 02RO	1	0	1.16231894493	-88.0	-293.0	-93	-287	1
2.7	2015_May_18_1545	s	s	12	1	SIC	233	RC	1	2	02VD 02VO 02VC 09MD 02MO 02MC 02RD 02RO	1	0	0.917407035828	-49.0	306.0	-47	308	1
2.7	2015_May_18_1545	s	s	12	1	SIC	234	RC	2	1	02VD 09VO 02VC 02MD 02MO 02MC 02RD 02RO	1	0	0.653913974762	58.0	-360.0	481	199	0
2.7	2015_May_18_1545	s	s	12	1	SIC	235	ABS	0	2	02VD 02VO 02VC 02MD 02MO 02MC 10RD 02RO	0	1	2.7654299736	None	None	None	None	1
2.7	2015_May_18_1545	s	s	12	1	SIC	236	ABS	0	1	02VD 02VO 02VC 02MD 02MO 02MC 02RD 10RO	0	1	3.60716605186	None	None	None	None	1
2.7	2015_May_18_1545	s	s	12	1	SIC	237	ABS	1	1	02VD 02VO 02VC 02MD 10MO 02MC 02RD 02RO	0	1	2.5889339447	None	None	None	None	1
2.7	2015_May_18_1545	s	s	12	1	SIC	238	ABS	2	0	02VD 02VO 10VC 02MD 02MO 02MC 02RD 02RO	0	1	2.45946097374	None	None	None	None	1
2.7	2015_May_18_1545	s	s	12	1	SIC	239	ABS	1	2	02VD 02VO 02VC 10MD 02MO 02MC 02RD 02RO	0	1	2.11304998398	None	None	None	None	1
2.7	2015_May_18_1545	s	s	12	1	SIC	240	ABS	2	2	10VD 02VO 02VC 02MD 02MO 02MC 02RD 02RO	0	1	2.03038191795	None	None	None	None	1
2.7	2015_May_18_1545	s	s	12	1	SIC	241	RC	1	2	02VD 02VO 02VC 09MD 02MO 02MC 02RD 02RO	1	0	1.45889782906	446.0	-231.0	455	-230	1
2.7	2015_May_18_1545	s	s	12	1	SIC	242	RC	1	0	02VD 02VO 02VC 02MD 02MO 09MC 02RD 02RO	1	0	2.81239914894	443.0	-374.0	449	-375	1
2.7	2015_May_18_1545	s	s	12	1	SIC	243	ABS	1	0	02VD 02VO 02VC 02MD 02MO 10MC 02RD 02RO	0	1	2.44459295273	None	None	None	None	1
2.7	2015_May_18_1545	s	s	12	1	SIC	244	ABS	1	1	02VD 02VO 02VC 02MD 10MO 02MC 02RD 02RO	0	1	1.74142193794	None	None	None	None	1
2.7	2015_May_18_1545	s	s	12	1	SIC	245	ABS	0	1	02VD 02VO 02VC 02MD 02MO 02MC 02RD 10RO	0	1	2.28975701332	None	None	None	None	1
2.7	2015_May_18_1545	s	s	12	1	SIC	246	ABS	2	1	02VD 10VO 02VC 02MD 02MO 02MC 02RD 02RO	0	1	2.14155292511	None	None	None	None	1
2.7	2015_May_18_1545	s	s	12	1	SIC	247	RC	0	1	02VD 02VO 02VC 02MD 02MO 02MC 02RD 09RO	0	1	3.20091700554	515.0	-400.0	None	None	0
2.7	2015_May_18_1545	s	s	12	1	SIC	248	ABS	2	0	02VD 02VO 10VC 02MD 02MO 02MC 02RD 02RO	0	1	2.71338486671	None	None	None	None	1
2.7	2015_May_18_1545	s	s	12	1	SIC	249	RC	2	0	02VD 02VO 09VC 02MD 02MO 02MC 02RD 02RO	1	0	0.853952169418	-294.0	-251.0	-284	-251	1
2.7	2015_May_18_1545	s	s	12	1	SIC	250	ABS	2	2	10VD 02VO 02VC 02MD 02MO 02MC 02RD 02RO	0	1	1.70123696327	None	None	None	None	1
2.7	2015_May_18_1545	s	s	12	1	SIC	251	RC	1	1	02VD 02VO 02VC 02MD 09MO 02MC 02RD 02RO	1	0	0.847316980362	22.0	237.0	18	236	1
2.7	2015_May_18_1545	s	s	12	1	SIC	252	RC	2	2	09VD 02VO 02VC 02MD 02MO 02MC 02RD 02RO	1	0	1.72953295708	504.0	338.0	501	331	1
2.7	2015_May_18_1545	s	s	12	1	SIC	253	RC	0	2	02VD 02VO 02VC 02MD 02MO 02MC 09RD 02RO	1	0	1.65899205208	265.0	-94.0	259	-94	1
2.7	2015_May_18_1545	s	s	12	1	SIC	254	ABS	1	2	02VD 02VO 02VC 10MD 02MO 02MC 02RD 02RO	0	1	2.14155101776	None	None	None	None	1
2.7	2015_May_18_1545	s	s	12	1	SIC	255	ABS	0	2	02VD 02VO 02VC 02MD 02MO 02MC 10RD 02RO	0	1	2.03242897987	None	None	None	None	1
2.7	2015_May_18_1545	s	s	12	1	SIC	256	RC	2	1	02VD 09VO 02VC 02MD 02MO 02MC 02RD 02RO	1	0	1.1175570488	-199.0	128.0	-195	124	1
2.7	2015_May_18_1545	s	s	12	1	SIC	257	RC	2	2	09VD 02VO 02VC 02MD 02MO 02MC 02RD 02RO	1	0	0.921209096909	-129.0	-279.0	-121	-282	1
2.7	2015_May_18_1545	s	s	12	1	SIC	258	ABS	1	2	02VD 02VO 02VC 10MD 02MO 02MC 02RD 02RO	0	1	2.16520810127	None	None	None	None	1
2.7	2015_May_18_1545	s	s	12	1	SIC	259	RC	1	1	02VD 02VO 02VC 02MD 09MO 02MC 02RD 02RO	1	0	1.30588006973	320.0	-7.0	320	2	1
2.7	2015_May_18_1545	s	s	12	1	SIC	260	RC	2	0	02VD 02VO 09VC 02MD 02MO 02MC 02RD 02RO	1	0	1.07050204277	73.0	81.0	80	80	1
2.7	2015_May_18_1545	s	s	12	1	SIC	261	RC	1	2	02VD 02VO 02VC 09MD 02MO 02MC 02RD 02RO	1	0	1.12447309494	-227.0	339.0	-223	334	1
2.7	2015_May_18_1545	s	s	12	1	SIC	262	RC	0	2	02VD 02VO 02VC 02MD 02MO 02MC 09RD 02RO	1	0	0.937236070633	-142.0	-95.0	-144	-95	1
2.7	2015_May_18_1545	s	s	12	1	SIC	263	ABS	0	2	02VD 02VO 02VC 02MD 02MO 02MC 10RD 02RO	0	1	3.64318394661	None	None	None	None	1
2.7	2015_May_18_1545	s	s	12	1	SIC	264	ABS	2	2	10VD 02VO 02VC 02MD 02MO 02MC 02RD 02RO	0	1	2.10164403915	None	None	None	None	1
2.7	2015_May_18_1545	s	s	12	1	SIC	265	ABS	0	1	02VD 02VO 02VC 02MD 02MO 02MC 02RD 10RO	0	1	3.63686919212	None	None	None	None	1
2.7	2015_May_18_1545	s	s	12	1	SIC	266	ABS	1	0	02VD 02VO 02VC 02MD 02MO 10MC 02RD 02RO	0	1	2.77539110184	None	None	None	None	1
2.7	2015_May_18_1545	s	s	12	1	SIC	267	RC	0	1	02VD 02VO 02VC 02MD 02MO 02MC 02RD 09RO	1	0	2.16069507599	-448.0	-255.0	-440	-258	1
2.7	2015_May_18_1545	s	s	12	1	SIC	268	ABS	2	0	02VD 02VO 10VC 02MD 02MO 02MC 02RD 02RO	0	1	1.97179603577	None	None	None	None	1
2.7	2015_May_18_1545	s	s	12	1	SIC	269	RC	2	1	02VD 09VO 02VC 02MD 02MO 02MC 02RD 02RO	1	0	0.870412111282	203.0	-110.0	205	-118	1
2.7	2015_May_18_1545	s	s	12	1	SIC	270	RC	1	0	02VD 02VO 02VC 02MD 02MO 09MC 02RD 02RO	1	0	1.25883102417	482.0	-309.0	479	-313	1
2.7	2015_May_18_1545	s	s	12	1	SIC	271	ABS	2	1	02VD 10VO 02VC 02MD 02MO 02MC 02RD 02RO	0	1	2.41934108734	None	None	None	None	1
2.7	2015_May_18_1545	s	s	12	1	SIC	272	ABS	1	1	02VD 02VO 02VC 02MD 10MO 02MC 02RD 02RO	0	1	2.91344118118	None	None	None	None	1
2.7	2015_May_18_1545	s	s	12	1	SIC	273	ABS	1	1	02VD 02VO 02VC 02MD 10MO 02MC 02RD 02RO	0	1	3.01302695274	None	None	None	None	1
2.7	2015_May_18_1545	s	s	12	1	SIC	274	RC	2	1	02VD 09VO 02VC 02MD 02MO 02MC 02RD 02RO	1	0	1.12425684929	258.0	-162.0	263	-160	1
2.7	2015_May_18_1545	s	s	12	1	SIC	275	ABS	2	0	02VD 02VO 10VC 02MD 02MO 02MC 02RD 02RO	0	1	2.41882300377	None	None	None	None	1
2.7	2015_May_18_1545	s	s	12	1	SIC	276	RC	1	2	02VD 02VO 02VC 09MD 02MO 02MC 02RD 02RO	1	0	1.1999309063	299.0	-295.0	304	-304	1
2.7	2015_May_18_1545	s	s	12	1	SIC	277	RC	1	1	02VD 02VO 02VC 02MD 09MO 02MC 02RD 02RO	1	0	0.948293924332	69.0	-404.0	75	-396	1
2.7	2015_May_18_1545	s	s	12	1	SIC	278	RC	1	0	02VD 02VO 02VC 02MD 02MO 09MC 02RD 02RO	1	0	0.799833059311	-147.0	-112.0	-143	-105	1
2.7	2015_May_18_1545	s	s	12	1	SIC	279	ABS	2	2	10VD 02VO 02VC 02MD 02MO 02MC 02RD 02RO	0	1	2.13358807564	None	None	None	None	1
2.7	2015_May_18_1545	s	s	12	1	SIC	280	RC	2	2	09VD 02VO 02VC 02MD 02MO 02MC 02RD 02RO	1	0	0.783114910126	-12.0	-363.0	-5	-367	1
2.7	2015_May_18_1545	s	s	12	1	SIC	281	ABS	0	1	02VD 02VO 02VC 02MD 02MO 02MC 02RD 10RO	0	1	3.23622488976	None	None	None	None	1
2.7	2015_May_18_1545	s	s	12	1	SIC	282	ABS	1	0	02VD 02VO 02VC 02MD 02MO 10MC 02RD 02RO	0	1	2.96365904808	None	None	None	None	1
2.7	2015_May_18_1545	s	s	12	1	SIC	283	RC	0	1	02VD 02VO 02VC 02MD 02MO 02MC 02RD 09RO	1	0	1.25436019897	-368.0	170.0	-361	168	1
2.7	2015_May_18_1545	s	s	12	1	SIC	284	RC	0	2	02VD 02VO 02VC 02MD 02MO 02MC 09RD 02RO	1	0	1.72496008873	445.0	372.0	450	374	1
2.7	2015_May_18_1545	s	s	12	1	SIC	285	RC	2	0	02VD 02VO 09VC 02MD 02MO 02MC 02RD 02RO	1	0	0.823258876801	324.0	97.0	325	89	1
2.7	2015_May_18_1545	s	s	12	1	SIC	286	ABS	1	2	02VD 02VO 02VC 10MD 02MO 02MC 02RD 02RO	0	1	1.96505713463	None	None	None	None	1
2.7	2015_May_18_1545	s	s	12	1	SIC	287	ABS	0	2	02VD 02VO 02VC 02MD 02MO 02MC 10RD 02RO	0	1	3.02090215683	None	None	None	None	1
2.7	2015_May_18_1545	s	s	12	1	SIC	288	ABS	2	1	02VD 10VO 02VC 02MD 02MO 02MC 02RD 02RO	0	1	3.16561198235	None	None	None	None	1
2.7	2015_May_18_1545	s	s	12	1	SIC	289	ABS	1	2	02VD 02VO 02VC 10MD 02MO 02MC 02RD 02RO	0	1	2.50696492195	None	None	None	None	1
2.7	2015_May_18_1545	s	s	12	1	SIC	290	ABS	1	1	02VD 02VO 02VC 02MD 10MO 02MC 02RD 02RO	0	1	2.1416258812	None	None	None	None	1
2.7	2015_May_18_1545	s	s	12	1	SIC	291	ABS	0	2	02VD 02VO 02VC 02MD 02MO 02MC 10RD 02RO	0	1	2.34172296524	None	None	None	None	1
2.7	2015_May_18_1545	s	s	12	1	SIC	292	ABS	0	1	02VD 02VO 02VC 02MD 02MO 02MC 02RD 10RO	0	1	3.40104913712	None	None	None	None	1
2.7	2015_May_18_1545	s	s	12	1	SIC	293	RC	2	0	02VD 02VO 09VC 02MD 02MO 02MC 02RD 02RO	1	0	1.21766805649	-279.0	-340.0	-282	-343	1
2.7	2015_May_18_1545	s	s	12	1	SIC	294	RC	1	1	02VD 02VO 02VC 02MD 09MO 02MC 02RD 02RO	1	0	1.77166199684	-485.0	132.0	-489	125	1
2.7	2015_May_18_1545	s	s	12	1	SIC	295	ABS	1	0	02VD 02VO 02VC 02MD 02MO 10MC 02RD 02RO	0	1	3.18940401077	None	None	None	None	1
2.7	2015_May_18_1545	s	s	12	1	SIC	296	RC	0	2	02VD 02VO 02VC 02MD 02MO 02MC 09RD 02RO	1	0	1.60390901566	268.0	-320.0	265	-321	1
2.7	2015_May_18_1545	s	s	12	1	SIC	297	RC	1	0	02VD 02VO 02VC 02MD 02MO 09MC 02RD 02RO	1	0	2.01209902763	105.0	311.0	106	313	1
2.7	2015_May_18_1545	s	s	12	1	SIC	298	RC	0	1	02VD 02VO 02VC 02MD 02MO 02MC 02RD 09RO	1	0	0.912552118301	82.0	243.0	88	241	1
2.7	2015_May_18_1545	s	s	12	1	SIC	299	ABS	2	2	10VD 02VO 02VC 02MD 02MO 02MC 02RD 02RO	0	1	2.0424489975	None	None	None	None	1
2.7	2015_May_18_1545	s	s	12	1	SIC	300	RC	2	1	02VD 09VO 02VC 02MD 02MO 02MC 02RD 02RO	1	0	1.40002799034	-171.0	406.0	-175	396	1
2.7	2015_May_18_1545	s	s	12	1	SIC	301	RC	2	2	09VD 02VO 02VC 02MD 02MO 02MC 02RD 02RO	1	0	1.23531389236	-373.0	-240.0	-374	-242	1
2.7	2015_May_18_1545	s	s	12	1	SIC	302	ABS	2	0	02VD 02VO 10VC 02MD 02MO 02MC 02RD 02RO	0	1	1.57660102844	None	None	None	None	1
2.7	2015_May_18_1545	s	s	12	1	SIC	303	ABS	2	1	02VD 10VO 02VC 02MD 02MO 02MC 02RD 02RO	0	1	1.67074799538	None	None	None	None	1
2.7	2015_May_18_1545	s	s	12	1	SIC	304	RC	1	2	02VD 02VO 02VC 09MD 02MO 02MC 02RD 02RO	1	0	0.599687814713	179.0	81.0	181	87	1
2.7	2015_May_18_1545	s	s	12	1	SIC	305	RC	0	2	02VD 02VO 02VC 02MD 02MO 02MC 09RD 02RO	1	0	0.61145401001	199.0	-4.0	198	-6	1
2.7	2015_May_18_1545	s	s	12	1	SIC	306	ABS	1	1	02VD 02VO 02VC 02MD 10MO 02MC 02RD 02RO	0	1	2.57213282585	None	None	None	None	1
2.7	2015_May_18_1545	s	s	12	1	SIC	307	RC	2	1	02VD 09VO 02VC 02MD 02MO 02MC 02RD 02RO	1	0	1.05423307419	-494.0	-327.0	-498	-326	1
2.7	2015_May_18_1545	s	s	12	1	SIC	308	ABS	1	2	02VD 02VO 02VC 10MD 02MO 02MC 02RD 02RO	0	1	1.90617895126	None	None	None	None	1
2.7	2015_May_18_1545	s	s	12	1	SIC	309	ABS	0	2	02VD 02VO 02VC 02MD 02MO 02MC 10RD 02RO	0	1	3.42500400543	None	None	None	None	1
2.7	2015_May_18_1545	s	s	12	1	SIC	310	RC	0	1	02VD 02VO 02VC 02MD 02MO 02MC 02RD 09RO	1	0	2.64306902885	-269.0	408.0	-263	399	1
2.7	2015_May_18_1545	s	s	12	1	SIC	311	ABS	2	1	02VD 10VO 02VC 02MD 02MO 02MC 02RD 02RO	0	1	1.68839216232	None	None	None	None	1
2.7	2015_May_18_1545	s	s	12	1	SIC	312	RC	1	0	02VD 02VO 02VC 02MD 02MO 09MC 02RD 02RO	1	0	0.736450910568	-133.0	-75.0	-126	-73	1
2.7	2015_May_18_1545	s	s	12	1	SIC	313	RC	2	0	02VD 02VO 09VC 02MD 02MO 02MC 02RD 02RO	1	0	0.867105007172	46.0	-246.0	44	-251	1
2.7	2015_May_18_1545	s	s	12	1	SIC	314	ABS	2	0	02VD 02VO 10VC 02MD 02MO 02MC 02RD 02RO	0	1	2.2300798893	None	None	None	None	1
2.7	2015_May_18_1545	s	s	12	1	SIC	315	ABS	1	0	02VD 02VO 02VC 02MD 02MO 10MC 02RD 02RO	0	1	3.23394203186	None	None	None	None	1
2.7	2015_May_18_1545	s	s	12	1	SIC	316	RC	1	2	02VD 02VO 02VC 09MD 02MO 02MC 02RD 02RO	1	0	1.65898799896	-472.0	-369.0	-473	-377	1
2.7	2015_May_18_1545	s	s	12	1	SIC	317	RC	1	1	02VD 02VO 02VC 02MD 09MO 02MC 02RD 02RO	1	0	0.952883005142	250.0	-4.0	244	-10	1
2.7	2015_May_18_1545	s	s	12	1	SIC	318	RC	2	2	09VD 02VO 02VC 02MD 02MO 02MC 02RD 02RO	1	0	0.982543945312	-538.0	70.0	-537	68	1
2.7	2015_May_18_1545	s	s	12	1	SIC	319	ABS	2	2	10VD 02VO 02VC 02MD 02MO 02MC 02RD 02RO	0	1	1.78343081474	None	None	None	None	1
2.7	2015_May_18_1545	s	s	12	1	SIC	320	ABS	0	1	02VD 02VO 02VC 02MD 02MO 02MC 02RD 10RO	0	1	3.30689001083	None	None	None	None	1
2.7	2015_May_18_1545	s	s	12	1	SIC	321	ABS	1	1	02VD 02VO 02VC 02MD 10MO 02MC 02RD 02RO	0	1	3.61669301987	None	None	None	None	1
2.7	2015_May_18_1545	s	s	12	1	SIC	322	RC	2	1	02VD 09VO 02VC 02MD 02MO 02MC 02RD 02RO	1	0	1.51779913902	-320.0	336.0	-315	330	1
2.7	2015_May_18_1545	s	s	12	1	SIC	323	ABS	0	1	02VD 02VO 02VC 02MD 02MO 02MC 02RD 10RO	0	1	4.21964716911	None	None	None	None	1
2.7	2015_May_18_1545	s	s	12	1	SIC	324	ABS	0	2	02VD 02VO 02VC 02MD 02MO 02MC 10RD 02RO	0	1	2.1367020607	None	None	None	None	1
2.7	2015_May_18_1545	s	s	12	1	SIC	325	RC	1	0	02VD 02VO 02VC 02MD 02MO 09MC 02RD 02RO	1	0	2.18348193169	329.0	-131.0	330	-132	1
2.7	2015_May_18_1545	s	s	12	1	SIC	326	RC	1	2	02VD 02VO 02VC 09MD 02MO 02MC 02RD 02RO	1	0	1.13595914841	-404.0	-370.0	-399	-375	1
2.7	2015_May_18_1545	s	s	12	1	SIC	327	ABS	2	1	02VD 10VO 02VC 02MD 02MO 02MC 02RD 02RO	0	1	3.00090289116	None	None	None	None	1
2.7	2015_May_18_1545	s	s	12	1	SIC	328	RC	0	2	02VD 02VO 02VC 02MD 02MO 02MC 09RD 02RO	1	0	1.44240903854	-246.0	-295.0	-247	-300	1
2.7	2015_May_18_1545	s	s	12	1	SIC	329	RC	2	0	02VD 02VO 09VC 02MD 02MO 02MC 02RD 02RO	1	0	0.630273103714	134.0	-46.0	126	-42	1
2.7	2015_May_18_1545	s	s	12	1	SIC	330	RC	2	2	09VD 02VO 02VC 02MD 02MO 02MC 02RD 02RO	1	0	0.717299938202	-87.0	-143.0	-88	-140	1
2.7	2015_May_18_1545	s	s	12	1	SIC	331	ABS	2	0	02VD 02VO 10VC 02MD 02MO 02MC 02RD 02RO	0	1	2.31330704689	None	None	None	None	1
2.7	2015_May_18_1545	s	s	12	1	SIC	332	RC	1	1	02VD 02VO 02VC 02MD 09MO 02MC 02RD 02RO	1	0	1.07741212845	-348.0	307.0	-348	306	1
2.7	2015_May_18_1545	s	s	12	1	SIC	333	RC	0	1	02VD 02VO 02VC 02MD 02MO 02MC 02RD 09RO	1	0	1.07751393318	-121.0	206.0	-120	201	1
2.7	2015_May_18_1545	s	s	12	1	SIC	334	ABS	1	0	02VD 02VO 02VC 02MD 02MO 10MC 02RD 02RO	0	1	2.38880491257	None	None	None	None	1
2.7	2015_May_18_1545	s	s	12	1	SIC	335	ABS	2	2	10VD 02VO 02VC 02MD 02MO 02MC 02RD 02RO	0	1	2.19552493095	None	None	None	None	1
2.7	2015_May_18_1545	s	s	12	1	SIC	336	ABS	1	2	02VD 02VO 02VC 10MD 02MO 02MC 02RD 02RO	0	1	2.01903605461	None	None	None	None	1
2.7	2015_May_18_1545	s	s	12	1	SIC	337	ABS	2	1	02VD 10VO 02VC 02MD 02MO 02MC 02RD 02RO	0	1	1.93679404259	None	None	None	None	1
2.7	2015_May_18_1545	s	s	12	1	SIC	338	RC	1	2	02VD 02VO 02VC 09MD 02MO 02MC 02RD 02RO	1	0	1.08968997002	171.0	153.0	170	154	1
2.7	2015_May_18_1545	s	s	12	1	SIC	339	RC	1	1	02VD 02VO 02VC 02MD 09MO 02MC 02RD 02RO	1	0	1.59561109543	490.0	-205.0	490	-206	1
2.7	2015_May_18_1545	s	s	12	1	SIC	340	RC	1	0	02VD 02VO 02VC 02MD 02MO 09MC 02RD 02RO	1	0	0.794673919678	275.0	251.0	276	244	1
2.7	2015_May_18_1545	s	s	12	1	SIC	341	ABS	1	2	02VD 02VO 02VC 10MD 02MO 02MC 02RD 02RO	0	1	2.2309551239	None	None	None	None	1
2.7	2015_May_18_1545	s	s	12	1	SIC	342	RC	0	2	02VD 02VO 02VC 02MD 02MO 02MC 09RD 02RO	1	0	0.760999917984	105.0	195.0	107	190	1
2.7	2015_May_18_1545	s	s	12	1	SIC	343	RC	2	1	02VD 09VO 02VC 02MD 02MO 02MC 02RD 02RO	1	0	0.805968999863	-107.0	205.0	-107	197	1
2.7	2015_May_18_1545	s	s	12	1	SIC	344	ABS	2	0	02VD 02VO 10VC 02MD 02MO 02MC 02RD 02RO	0	1	1.72712922096	None	None	None	None	1
2.7	2015_May_18_1545	s	s	12	1	SIC	345	RC	2	0	02VD 02VO 09VC 02MD 02MO 02MC 02RD 02RO	1	0	1.50191497803	-413.0	-287.0	-409	-293	1
2.7	2015_May_18_1545	s	s	12	1	SIC	346	RC	0	1	02VD 02VO 02VC 02MD 02MO 02MC 02RD 09RO	1	0	0.741213083267	141.0	-166.0	138	-171	1
2.7	2015_May_18_1545	s	s	12	1	SIC	347	ABS	0	1	02VD 02VO 02VC 02MD 02MO 02MC 02RD 10RO	0	1	3.44324684143	None	None	None	None	1
2.7	2015_May_18_1545	s	s	12	1	SIC	348	ABS	2	2	10VD 02VO 02VC 02MD 02MO 02MC 02RD 02RO	0	1	2.13636493683	None	None	None	None	1
2.7	2015_May_18_1545	s	s	12	1	SIC	349	ABS	0	2	02VD 02VO 02VC 02MD 02MO 02MC 10RD 02RO	0	1	2.65994811058	None	None	None	None	1
2.7	2015_May_18_1545	s	s	12	1	SIC	350	ABS	1	1	02VD 02VO 02VC 02MD 10MO 02MC 02RD 02RO	0	1	2.51599597931	None	None	None	None	1
2.7	2015_May_18_1545	s	s	12	1	SIC	351	RC	2	2	09VD 02VO 02VC 02MD 02MO 02MC 02RD 02RO	1	0	0.811419010162	132.0	30.0	132	29	1
2.7	2015_May_18_1545	s	s	12	1	SIC	352	ABS	1	0	02VD 02VO 02VC 02MD 02MO 10MC 02RD 02RO	0	1	2.88315296173	None	None	None	None	1
2.7	2015_May_18_1545	s	s	12	1	SIC	353	ABS	1	1	02VD 02VO 02VC 02MD 10MO 02MC 02RD 02RO	0	1	3.1370909214	None	None	None	None	1
2.7	2015_May_18_1545	s	s	12	1	SIC	354	ABS	2	2	10VD 02VO 02VC 02MD 02MO 02MC 02RD 02RO	0	1	2.13358306885	None	None	None	None	1
2.7	2015_May_18_1545	s	s	12	1	SIC	355	ABS	2	0	02VD 02VO 10VC 02MD 02MO 02MC 02RD 02RO	0	1	1.69435596466	None	None	None	None	1
2.7	2015_May_18_1545	s	s	12	1	SIC	356	ABS	0	2	02VD 02VO 02VC 02MD 02MO 02MC 10RD 02RO	0	1	1.4118540287	None	None	None	None	1
2.7	2015_May_18_1545	s	s	12	1	SIC	357	RC	0	2	02VD 02VO 02VC 02MD 02MO 02MC 09RD 02RO	1	0	1.65420603752	96.0	291.0	88	290	1
2.7	2015_May_18_1545	s	s	12	1	SIC	358	RC	2	2	09VD 02VO 02VC 02MD 02MO 02MC 02RD 02RO	0	1	1.36057806015	-487.0	115.0	None	None	0
2.7	2015_May_18_1545	s	s	12	1	SIC	359	RC	2	1	02VD 09VO 02VC 02MD 02MO 02MC 02RD 02RO	1	0	1.75972008705	423.0	181.0	430	190	1
2.7	2015_May_18_1545	s	s	12	1	SIC	360	ABS	2	1	02VD 10VO 02VC 02MD 02MO 02MC 02RD 02RO	0	1	2.30134415627	None	None	None	None	1
2.7	2015_May_18_1545	s	s	12	1	SIC	361	RC	1	0	02VD 02VO 02VC 02MD 02MO 09MC 02RD 02RO	1	0	2.15338492393	391.0	-379.0	400	-379	1
2.7	2015_May_18_1545	s	s	12	1	SIC	362	RC	0	1	02VD 02VO 02VC 02MD 02MO 02MC 02RD 09RO	1	0	1.07747197151	166.0	-289.0	168	-300	1
2.7	2015_May_18_1545	s	s	12	1	SIC	363	ABS	1	2	02VD 02VO 02VC 10MD 02MO 02MC 02RD 02RO	0	1	1.9476518631	None	None	None	None	1
2.7	2015_May_18_1545	s	s	12	1	SIC	364	ABS	0	1	02VD 02VO 02VC 02MD 02MO 02MC 02RD 10RO	0	1	4.21929097176	None	None	None	None	1
2.7	2015_May_18_1545	s	s	12	1	SIC	365	RC	1	2	02VD 02VO 02VC 09MD 02MO 02MC 02RD 02RO	1	0	0.799755096436	-43.0	22.0	-41	25	1
2.7	2015_May_18_1545	s	s	12	1	SIC	366	RC	2	0	02VD 02VO 09VC 02MD 02MO 02MC 02RD 02RO	1	0	1.5954079628	-35.0	-387.0	-39	-394	1
2.7	2015_May_18_1545	s	s	12	1	SIC	367	RC	1	1	02VD 02VO 02VC 02MD 09MO 02MC 02RD 02RO	1	0	1.5530807972	447.0	-161.0	455	-159	1
2.7	2015_May_18_1545	s	s	12	1	SIC	368	ABS	1	0	02VD 02VO 02VC 02MD 02MO 10MC 02RD 02RO	0	1	4.17793798447	None	None	None	None	1
2.7	2015_May_18_1545	s	s	12	1	SIC	369	ABS	2	2	10VD 02VO 02VC 02MD 02MO 02MC 02RD 02RO	0	1	2.48294401169	None	None	None	None	1
2.7	2015_May_18_1545	s	s	12	1	SIC	370	RC	2	1	02VD 09VO 02VC 02MD 02MO 02MC 02RD 02RO	1	0	1.43063402176	520.0	-154.0	524	-153	1
2.7	2015_May_18_1545	s	s	12	1	SIC	371	ABS	1	0	02VD 02VO 02VC 02MD 02MO 10MC 02RD 02RO	0	1	2.85966610909	None	None	None	None	1
2.7	2015_May_18_1545	s	s	12	1	SIC	372	RC	0	1	02VD 02VO 02VC 02MD 02MO 02MC 02RD 09RO	1	0	1.91542506218	-538.0	332.0	-536	331	1
2.7	2015_May_18_1545	s	s	12	1	SIC	373	RC	1	1	02VD 02VO 02VC 02MD 09MO 02MC 02RD 02RO	1	0	1.92178201675	330.0	-395.0	321	-391	1
2.7	2015_May_18_1545	s	s	12	1	SIC	374	RC	0	2	02VD 02VO 02VC 02MD 02MO 02MC 09RD 02RO	1	0	1.44205713272	-417.0	-350.0	-420	-358	1
2.7	2015_May_18_1545	s	s	12	1	SIC	375	ABS	1	1	02VD 02VO 02VC 02MD 10MO 02MC 02RD 02RO	0	1	3.23137688637	None	None	None	None	1
2.7	2015_May_18_1545	s	s	12	1	SIC	376	RC	2	2	09VD 02VO 02VC 02MD 02MO 02MC 02RD 02RO	1	0	1.31522512436	-150.0	189.0	-142	186	1
2.7	2015_May_18_1545	s	s	12	1	SIC	377	ABS	2	1	02VD 10VO 02VC 02MD 02MO 02MC 02RD 02RO	0	1	2.03079509735	None	None	None	None	1
2.7	2015_May_18_1545	s	s	12	1	SIC	378	ABS	1	2	02VD 02VO 02VC 10MD 02MO 02MC 02RD 02RO	0	1	1.84240102768	None	None	None	None	1
2.7	2015_May_18_1545	s	s	12	1	SIC	379	ABS	0	1	02VD 02VO 02VC 02MD 02MO 02MC 02RD 10RO	0	1	3.39601206779	None	None	None	None	1
2.7	2015_May_18_1545	s	s	12	1	SIC	380	ABS	0	2	02VD 02VO 02VC 02MD 02MO 02MC 10RD 02RO	0	1	1.71778798103	None	None	None	None	1
2.7	2015_May_18_1545	s	s	12	1	SIC	381	RC	1	2	02VD 02VO 02VC 09MD 02MO 02MC 02RD 02RO	1	0	0.811610937119	187.0	-39.0	195	-39	1
2.7	2015_May_18_1545	s	s	12	1	SIC	382	RC	2	0	02VD 02VO 09VC 02MD 02MO 02MC 02RD 02RO	0	1	1.82112002373	295.0	-406.0	None	None	0
2.7	2015_May_18_1545	s	s	12	1	SIC	383	ABS	2	0	02VD 02VO 10VC 02MD 02MO 02MC 02RD 02RO	0	1	2.11248207092	None	None	None	None	1
2.7	2015_May_18_1545	s	s	12	1	SIC	384	RC	1	0	02VD 02VO 02VC 02MD 02MO 09MC 02RD 02RO	1	0	1.65946793556	-172.0	253.0	-177	247	1
2.7	2015_May_18_1545	s	s	12	1	SIC	385	ABS	1	0	02VD 02VO 02VC 02MD 02MO 10MC 02RD 02RO	0	1	1.9414639473	None	None	None	None	1
2.7	2015_May_18_1545	s	s	12	1	SIC	386	RC	2	0	02VD 02VO 09VC 02MD 02MO 02MC 02RD 02RO	1	0	1.28909802437	223.0	238.0	217	236	1
2.7	2015_May_18_1545	s	s	12	1	SIC	387	RC	0	1	02VD 02VO 02VC 02MD 02MO 02MC 02RD 09RO	1	0	3.81971597672	512.0	-395.0	518	-404	1
2.7	2015_May_18_1545	s	s	12	1	SIC	388	ABS	1	2	02VD 02VO 02VC 10MD 02MO 02MC 02RD 02RO	0	1	1.72437500954	None	None	None	None	1
2.7	2015_May_18_1545	s	s	12	1	SIC	389	ABS	2	0	02VD 02VO 10VC 02MD 02MO 02MC 02RD 02RO	0	1	1.92976284027	None	None	None	None	1
2.7	2015_May_18_1545	s	s	12	1	SIC	390	ABS	0	2	02VD 02VO 02VC 02MD 02MO 02MC 10RD 02RO	0	1	2.21226811409	None	None	None	None	1
2.7	2015_May_18_1545	s	s	12	1	SIC	391	ABS	0	1	02VD 02VO 02VC 02MD 02MO 02MC 02RD 10RO	0	1	3.55410695076	None	None	None	None	1
2.7	2015_May_18_1545	s	s	12	1	SIC	392	ABS	1	1	02VD 02VO 02VC 02MD 10MO 02MC 02RD 02RO	0	1	3.14575695992	None	None	None	None	1
2.7	2015_May_18_1545	s	s	12	1	SIC	393	ABS	2	1	02VD 10VO 02VC 02MD 02MO 02MC 02RD 02RO	0	1	1.80024600029	None	None	None	None	1
2.7	2015_May_18_1545	s	s	12	1	SIC	394	RC	0	2	02VD 02VO 02VC 02MD 02MO 02MC 09RD 02RO	1	0	1.31798219681	409.0	-386.0	406	-383	1
2.7	2015_May_18_1545	s	s	12	1	SIC	395	RC	2	2	09VD 02VO 02VC 02MD 02MO 02MC 02RD 02RO	1	0	0.858643054962	-177.0	-163.0	-168	-161	1
2.7	2015_May_18_1545	s	s	12	1	SIC	396	RC	1	1	02VD 02VO 02VC 02MD 09MO 02MC 02RD 02RO	1	0	1.082280159	-263.0	-227.0	-260	-227	1
2.7	2015_May_18_1545	s	s	12	1	SIC	397	ABS	2	2	10VD 02VO 02VC 02MD 02MO 02MC 02RD 02RO	0	1	1.62374806404	None	None	None	None	1
2.7	2015_May_18_1545	s	s	12	1	SIC	398	RC	1	2	02VD 02VO 02VC 09MD 02MO 02MC 02RD 02RO	1	0	1.2539460659	-486.0	47.0	-492	45	1
2.7	2015_May_18_1545	s	s	12	1	SIC	399	RC	1	0	02VD 02VO 02VC 02MD 02MO 09MC 02RD 02RO	1	0	1.6825928688	122.0	199.0	122	191	1
2.7	2015_May_18_1545	s	s	12	1	SIC	400	RC	2	1	02VD 09VO 02VC 02MD 02MO 02MC 02RD 02RO	1	0	0.761954069138	160.0	-72.0	156	-75	1
2.7	2015_May_18_1545	s	s	12	1	SIC	401	ABS	2	0	02VD 02VO 10VC 02MD 02MO 02MC 02RD 02RO	0	1	2.19555211067	None	None	None	None	1
2.7	2015_May_18_1545	s	s	12	1	SIC	402	RC	1	0	02VD 02VO 02VC 02MD 02MO 09MC 02RD 02RO	1	0	1.71264791489	137.0	213.0	148	214	1
2.7	2015_May_18_1545	s	s	12	1	SIC	403	ABS	1	2	02VD 02VO 02VC 10MD 02MO 02MC 02RD 02RO	0	1	2.36037898064	None	None	None	None	1
2.7	2015_May_18_1545	s	s	12	1	SIC	404	ABS	2	1	02VD 10VO 02VC 02MD 02MO 02MC 02RD 02RO	0	1	1.90615701675	None	None	None	None	1
2.7	2015_May_18_1545	s	s	12	1	SIC	405	RC	2	0	02VD 02VO 09VC 02MD 02MO 02MC 02RD 02RO	1	0	1.51087117195	-116.0	338.0	-122	330	1
2.7	2015_May_18_1545	s	s	12	1	SIC	406	RC	2	1	02VD 09VO 02VC 02MD 02MO 02MC 02RD 02RO	1	0	0.74095416069	-143.0	358.0	-142	347	1
2.7	2015_May_18_1545	s	s	12	1	SIC	407	RC	0	1	02VD 02VO 02VC 02MD 02MO 02MC 02RD 09RO	1	0	2.04130578041	59.0	-186.0	62	-180	1
2.7	2015_May_18_1545	s	s	12	1	SIC	408	RC	2	2	09VD 02VO 02VC 02MD 02MO 02MC 02RD 02RO	1	0	1.0185008049	178.0	69.0	183	74	1
2.7	2015_May_18_1545	s	s	12	1	SIC	409	ABS	0	2	02VD 02VO 02VC 02MD 02MO 02MC 10RD 02RO	0	1	2.2804608345	None	None	None	None	1
2.7	2015_May_18_1545	s	s	12	1	SIC	410	RC	0	2	02VD 02VO 02VC 02MD 02MO 02MC 09RD 02RO	1	0	1.18862700462	275.0	-399.0	276	-394	1
2.7	2015_May_18_1545	s	s	12	1	SIC	411	RC	1	1	02VD 02VO 02VC 02MD 09MO 02MC 02RD 02RO	1	0	1.39682888985	475.0	180.0	481	175	1
2.7	2015_May_18_1545	s	s	12	1	SIC	412	ABS	2	2	10VD 02VO 02VC 02MD 02MO 02MC 02RD 02RO	0	1	1.88010001183	None	None	None	None	1
2.7	2015_May_18_1545	s	s	12	1	SIC	413	ABS	1	1	02VD 02VO 02VC 02MD 10MO 02MC 02RD 02RO	0	1	2.43101096153	None	None	None	None	1
2.7	2015_May_18_1545	s	s	12	1	SIC	414	ABS	0	1	02VD 02VO 02VC 02MD 02MO 02MC 02RD 10RO	0	1	3.4785759449	None	None	None	None	1
2.7	2015_May_18_1545	s	s	12	1	SIC	415	RC	1	2	02VD 02VO 02VC 09MD 02MO 02MC 02RD 02RO	1	0	1.03022003174	134.0	120.0	123	121	1
2.7	2015_May_18_1545	s	s	12	1	SIC	416	ABS	1	0	02VD 02VO 02VC 02MD 02MO 10MC 02RD 02RO	0	1	3.22813081741	None	None	None	None	1
2.7	2015_May_18_1545	s	s	12	1	SIC	417	ABS	2	2	10VD 02VO 02VC 02MD 02MO 02MC 02RD 02RO	0	1	2.97267103195	None	None	None	None	1
2.7	2015_May_18_1545	s	s	12	1	SIC	418	RC	2	1	02VD 09VO 02VC 02MD 02MO 02MC 02RD 02RO	1	0	1.11756491661	-324.0	-86.0	-323	-93	1
2.7	2015_May_18_1545	s	s	12	1	SIC	419	ABS	2	1	02VD 10VO 02VC 02MD 02MO 02MC 02RD 02RO	0	1	1.93667197227	None	None	None	None	1
2.7	2015_May_18_1545	s	s	12	1	SIC	420	ABS	1	0	02VD 02VO 02VC 02MD 02MO 10MC 02RD 02RO	0	1	2.49099993706	None	None	None	None	1
2.7	2015_May_18_1545	s	s	12	1	SIC	421	RC	1	1	02VD 02VO 02VC 02MD 09MO 02MC 02RD 02RO	1	0	1.41186022758	-102.0	-325.0	-99	-321	1
2.7	2015_May_18_1545	s	s	12	1	SIC	422	ABS	2	0	02VD 02VO 10VC 02MD 02MO 02MC 02RD 02RO	0	1	1.87085700035	None	None	None	None	1
2.7	2015_May_18_1545	s	s	12	1	SIC	423	RC	0	2	02VD 02VO 02VC 02MD 02MO 02MC 09RD 02RO	1	0	1.31067705154	-376.0	326.0	-372	326	1
2.7	2015_May_18_1545	s	s	12	1	SIC	424	RC	0	1	02VD 02VO 02VC 02MD 02MO 02MC 02RD 09RO	1	0	1.49421000481	-399.0	-127.0	-149	202	0
2.7	2015_May_18_1545	s	s	12	1	SIC	425	ABS	1	2	02VD 02VO 02VC 10MD 02MO 02MC 02RD 02RO	0	1	2.45436501503	None	None	None	None	1
2.7	2015_May_18_1545	s	s	12	1	SIC	426	ABS	0	2	02VD 02VO 02VC 02MD 02MO 02MC 10RD 02RO	0	1	2.26606106758	None	None	None	None	1
2.7	2015_May_18_1545	s	s	12	1	SIC	427	RC	2	2	09VD 02VO 02VC 02MD 02MO 02MC 02RD 02RO	1	0	1.61193704605	-336.0	375.0	-339	374	1
2.7	2015_May_18_1545	s	s	12	1	SIC	428	ABS	0	1	02VD 02VO 02VC 02MD 02MO 02MC 02RD 10RO	0	1	4.61345005035	None	None	None	None	1
2.7	2015_May_18_1545	s	s	12	1	SIC	429	ABS	1	1	02VD 02VO 02VC 02MD 10MO 02MC 02RD 02RO	0	1	3.05168008804	None	None	None	None	1
2.7	2015_May_18_1545	s	s	12	1	SIC	430	RC	2	0	02VD 02VO 09VC 02MD 02MO 02MC 02RD 02RO	1	0	1.2769510746	382.0	-336.0	384	-333	1
2.7	2015_May_18_1545	s	s	12	1	SIC	431	RC	1	2	02VD 02VO 02VC 09MD 02MO 02MC 02RD 02RO	0	1	0.999853849411	0.0	-261.0	None	None	0
2.7	2015_May_18_1545	s	s	12	1	SIC	432	RC	1	0	02VD 02VO 02VC 02MD 02MO 09MC 02RD 02RO	1	0	1.35979890823	282.0	-55.0	288	-57	1
2.7	2015_May_18_1545	s	s	12	1	SIC	433	RC	0	2	02VD 02VO 02VC 02MD 02MO 02MC 09RD 02RO	1	0	0.713707208633	165.0	-167.0	176	-167	1
2.7	2015_May_18_1545	s	s	12	1	SIC	434	RC	2	1	02VD 09VO 02VC 02MD 02MO 02MC 02RD 02RO	1	0	1.25529694557	135.0	35.0	137	33	1
2.7	2015_May_18_1545	s	s	12	1	SIC	435	ABS	0	1	02VD 02VO 02VC 02MD 02MO 02MC 02RD 10RO	0	1	3.00926804543	None	None	None	None	1
2.7	2015_May_18_1545	s	s	12	1	SIC	436	ABS	1	2	02VD 02VO 02VC 10MD 02MO 02MC 02RD 02RO	0	1	2.07795000076	None	None	None	None	1
2.7	2015_May_18_1545	s	s	12	1	SIC	437	ABS	0	2	02VD 02VO 02VC 02MD 02MO 02MC 10RD 02RO	0	1	1.82371687889	None	None	None	None	1
2.7	2015_May_18_1545	s	s	12	1	SIC	438	RC	2	2	09VD 02VO 02VC 02MD 02MO 02MC 02RD 02RO	1	0	0.984848976135	304.0	-85.0	307	-86	1
2.7	2015_May_18_1545	s	s	12	1	SIC	439	ABS	1	1	02VD 02VO 02VC 02MD 10MO 02MC 02RD 02RO	0	1	2.33364295959	None	None	None	None	1
2.7	2015_May_18_1545	s	s	12	1	SIC	440	RC	1	0	02VD 02VO 02VC 02MD 02MO 09MC 02RD 02RO	1	0	1.69436788559	106.0	-349.0	106	-349	1
2.7	2015_May_18_1545	s	s	12	1	SIC	441	RC	1	1	02VD 02VO 02VC 02MD 09MO 02MC 02RD 02RO	1	0	1.34850406647	-28.0	325.0	-32	326	1
2.7	2015_May_18_1545	s	s	12	1	SIC	442	ABS	2	1	02VD 10VO 02VC 02MD 02MO 02MC 02RD 02RO	0	1	1.80026698112	None	None	None	None	1
2.7	2015_May_18_1545	s	s	12	1	SIC	443	ABS	2	0	02VD 02VO 10VC 02MD 02MO 02MC 02RD 02RO	0	1	2.50647306442	None	None	None	None	1
2.7	2015_May_18_1545	s	s	12	1	SIC	444	ABS	2	2	10VD 02VO 02VC 02MD 02MO 02MC 02RD 02RO	0	1	1.79490685463	None	None	None	None	1
2.7	2015_May_18_1545	s	s	12	1	SIC	445	RC	0	1	02VD 02VO 02VC 02MD 02MO 02MC 02RD 09RO	1	0	2.64294195175	-404.0	-123.0	-405	-128	1
2.7	2015_May_18_1545	s	s	12	1	SIC	446	RC	2	0	02VD 02VO 09VC 02MD 02MO 02MC 02RD 02RO	1	0	1.27059006691	34.0	-410.0	38	-410	1
2.7	2015_May_18_1545	s	s	12	1	SIC	447	RC	1	2	02VD 02VO 02VC 09MD 02MO 02MC 02RD 02RO	1	0	1.38292813301	88.0	251.0	94	249	1
2.7	2015_May_18_1545	s	s	12	1	SIC	448	ABS	1	0	02VD 02VO 02VC 02MD 02MO 10MC 02RD 02RO	0	1	2.80743503571	None	None	None	None	1
2.7	2015_May_18_1545	s	s	12	1	SIC	449	ABS	0	1	02VD 02VO 02VC 02MD 02MO 02MC 02RD 10RO	0	1	3.93748903275	None	None	None	None	1
2.7	2015_May_18_1545	s	s	12	1	SIC	450	RC	2	2	09VD 02VO 02VC 02MD 02MO 02MC 02RD 02RO	1	0	1.37183499336	532.0	375.0	529	370	1
2.7	2015_May_18_1545	s	s	12	1	SIC	451	ABS	1	1	02VD 02VO 02VC 02MD 10MO 02MC 02RD 02RO	0	1	2.07782387733	None	None	None	None	1
2.7	2015_May_18_1545	s	s	12	1	SIC	452	RC	2	0	02VD 02VO 09VC 02MD 02MO 02MC 02RD 02RO	1	0	1.08215785027	-20.0	187.0	-23	186	1
2.7	2015_May_18_1545	s	s	12	1	SIC	453	ABS	2	1	02VD 10VO 02VC 02MD 02MO 02MC 02RD 02RO	0	1	1.71294093132	None	None	None	None	1
2.7	2015_May_18_1545	s	s	12	1	SIC	454	RC	2	1	02VD 09VO 02VC 02MD 02MO 02MC 02RD 02RO	1	0	1.86273193359	428.0	-283.0	427	-285	1
2.7	2015_May_18_1545	s	s	12	1	SIC	455	RC	1	1	02VD 02VO 02VC 02MD 09MO 02MC 02RD 02RO	1	0	1.40797805786	-394.0	169.0	-395	167	1
2.7	2015_May_18_1545	s	s	12	1	SIC	456	ABS	2	0	02VD 02VO 10VC 02MD 02MO 02MC 02RD 02RO	0	1	2.3013010025	None	None	None	None	1
2.7	2015_May_18_1545	s	s	12	1	SIC	457	ABS	1	0	02VD 02VO 02VC 02MD 02MO 10MC 02RD 02RO	0	1	2.74190998077	None	None	None	None	1
2.7	2015_May_18_1545	s	s	12	1	SIC	458	RC	0	2	02VD 02VO 02VC 02MD 02MO 02MC 09RD 02RO	0	1	1.03564095497	434.0	254.0	None	None	0
2.7	2015_May_18_1545	s	s	12	1	SIC	459	RC	0	1	02VD 02VO 02VC 02MD 02MO 02MC 02RD 09RO	1	0	1.45415592194	-108.0	16.0	-103	16	1
2.7	2015_May_18_1545	s	s	12	1	SIC	460	RC	1	2	02VD 02VO 02VC 09MD 02MO 02MC 02RD 02RO	1	0	1.14107298851	-214.0	-119.0	-208	-112	1
2.7	2015_May_18_1545	s	s	12	1	SIC	461	ABS	2	2	10VD 02VO 02VC 02MD 02MO 02MC 02RD 02RO	0	1	1.52950906754	None	None	None	None	1
2.7	2015_May_18_1545	s	s	12	1	SIC	462	RC	1	0	02VD 02VO 02VC 02MD 02MO 09MC 02RD 02RO	1	0	5.57664680481	-137.0	79.0	-133	73	1
2.7	2015_May_18_1545	s	s	12	1	SIC	463	ABS	1	2	02VD 02VO 02VC 10MD 02MO 02MC 02RD 02RO	0	1	1.87766909599	None	None	None	None	1
2.7	2015_May_18_1545	s	s	12	1	SIC	464	ABS	0	2	02VD 02VO 02VC 02MD 02MO 02MC 10RD 02RO	0	1	2.06815600395	None	None	None	None	1
2.7	2015_May_18_1545	s	s	12	1	SIC	465	RC	2	0	02VD 02VO 09VC 02MD 02MO 02MC 02RD 02RO	1	0	0.771782875061	189.0	92.0	193	84	1
2.7	2015_May_18_1545	s	s	12	1	SIC	466	ABS	0	1	02VD 02VO 02VC 02MD 02MO 02MC 02RD 10RO	0	1	3.63119792938	None	None	None	None	1
2.7	2015_May_18_1545	s	s	12	1	SIC	467	ABS	0	2	02VD 02VO 02VC 02MD 02MO 02MC 10RD 02RO	0	1	1.94149494171	None	None	None	None	1
2.7	2015_May_18_1545	s	s	12	1	SIC	468	RC	1	1	02VD 02VO 02VC 02MD 09MO 02MC 02RD 02RO	1	0	1.89094901085	-168.0	-293.0	-157	-289	1
2.7	2015_May_18_1545	s	s	12	1	SIC	469	RC	0	2	02VD 02VO 02VC 02MD 02MO 02MC 09RD 02RO	1	0	1.37154197693	-510.0	-33.0	-499	-28	1
2.7	2015_May_18_1545	s	s	12	1	SIC	470	ABS	2	2	10VD 02VO 02VC 02MD 02MO 02MC 02RD 02RO	0	1	2.19541788101	None	None	None	None	1
2.7	2015_May_18_1545	s	s	12	1	SIC	471	ABS	1	2	02VD 02VO 02VC 10MD 02MO 02MC 02RD 02RO	0	1	1.58358097076	None	None	None	None	1
2.7	2015_May_18_1545	s	s	12	1	SIC	472	ABS	1	0	02VD 02VO 02VC 02MD 02MO 10MC 02RD 02RO	0	1	1.55855202675	None	None	None	None	1
2.7	2015_May_18_1545	s	s	12	1	SIC	473	ABS	2	1	02VD 10VO 02VC 02MD 02MO 02MC 02RD 02RO	0	1	2.05918383598	None	None	None	None	1
2.7	2015_May_18_1545	s	s	12	1	SIC	474	RC	1	0	02VD 02VO 02VC 02MD 02MO 09MC 02RD 02RO	1	0	1.38876914978	404.0	151.0	414	153	1
2.7	2015_May_18_1545	s	s	12	1	SIC	475	RC	2	1	02VD 09VO 02VC 02MD 02MO 02MC 02RD 02RO	1	0	1.04726600647	-250.0	-242.0	-244	-245	1
2.7	2015_May_18_1545	s	s	12	1	SIC	476	RC	1	2	02VD 02VO 02VC 09MD 02MO 02MC 02RD 02RO	1	0	1.03517508507	-387.0	-68.0	-378	-69	1
2.7	2015_May_18_1545	s	s	12	1	SIC	477	ABS	2	0	02VD 02VO 10VC 02MD 02MO 02MC 02RD 02RO	0	1	1.57659983635	None	None	None	None	1
2.7	2015_May_18_1545	s	s	12	1	SIC	478	ABS	1	1	02VD 02VO 02VC 02MD 10MO 02MC 02RD 02RO	0	1	3.44490504265	None	None	None	None	1
2.7	2015_May_18_1545	s	s	12	1	SIC	479	RC	0	1	02VD 02VO 02VC 02MD 02MO 02MC 02RD 09RO	1	0	3.0479619503	261.0	-327.0	263	-326	1
2.7	2015_May_18_1545	s	s	12	1	SIC	480	RC	2	2	09VD 02VO 02VC 02MD 02MO 02MC 02RD 02RO	1	0	1.22354006767	350.0	-255.0	360	-255	1
