Version	Date	Stimuli	Method	Subject	Session	Condition	Trial	Target	Channel1	Channel2	Distractors	LMouseButton	RMouseButton	RT	TargetX	TargetY	ResponseX	ResponseY	Correct
2.7	2015_May_22_1252	s	s	12	5	Capacity	1	ABS	0	2	16RD 08RO	0	1	2.30646300316	None	None	None	None	1
2.7	2015_May_22_1252	s	s	12	5	Capacity	2	RC	0	1	08RD 15RO	1	0	2.54966282845	432.0	-343.0	432	-340	1
2.7	2015_May_22_1252	s	s	12	5	Capacity	3	RC	0	2	15RD 08RO	1	0	0.959170818329	243.0	-360.0	251	-364	1
2.7	2015_May_22_1252	s	s	12	5	Capacity	4	ABS	0	1	08RD 16RO	0	1	2.47792100906	None	None	None	None	1
2.7	2015_May_22_1252	s	s	12	5	Capacity	5	ABS	0	1	08RD 16RO	0	1	2.67127585411	None	None	None	None	1
2.7	2015_May_22_1252	s	s	12	5	Capacity	6	ABS	0	2	16RD 08RO	0	1	2.22005200386	None	None	None	None	1
2.7	2015_May_22_1252	s	s	12	5	Capacity	7	RC	0	1	08RD 15RO	1	0	2.57715511322	-400.0	5.0	-403	1	1
2.7	2015_May_22_1252	s	s	12	5	Capacity	8	RC	0	2	15RD 08RO	1	0	1.18339109421	396.0	248.0	392	241	1
2.7	2015_May_22_1252	s	s	12	5	Capacity	9	ABS	0	1	08RD 16RO	0	1	2.70304489136	None	None	None	None	1
2.7	2015_May_22_1252	s	s	12	5	Capacity	10	RC	0	2	15RD 08RO	1	0	1.40006113052	38.0	320.0	43	320	1
2.7	2015_May_22_1252	s	s	12	5	Capacity	11	RC	0	1	08RD 15RO	1	0	2.07903504372	-247.0	396.0	-241	399	1
2.7	2015_May_22_1252	s	s	12	5	Capacity	12	ABS	0	2	16RD 08RO	0	1	1.91794896126	None	None	None	None	1
2.7	2015_May_22_1252	s	s	12	5	Capacity	13	RC	0	2	15RD 08RO	1	0	2.17198705673	462.0	-412.0	474	-408	1
2.7	2015_May_22_1252	s	s	12	5	Capacity	14	ABS	0	2	16RD 08RO	0	1	2.1010529995	None	None	None	None	1
2.7	2015_May_22_1252	s	s	12	5	Capacity	15	RC	0	1	08RD 15RO	1	0	1.66592407227	25.0	279.0	26	276	1
2.7	2015_May_22_1252	s	s	12	5	Capacity	16	ABS	0	1	08RD 16RO	0	1	3.23125696182	None	None	None	None	1
2.7	2015_May_22_1252	s	s	12	5	Capacity	17	ABS	0	2	16RD 08RO	0	1	1.77182197571	None	None	None	None	1
2.7	2015_May_22_1252	s	s	12	5	Capacity	18	RC	0	2	15RD 08RO	1	0	1.83225083351	537.0	82.0	542	73	1
2.7	2015_May_22_1252	s	s	12	5	Capacity	19	ABS	0	1	08RD 16RO	0	1	2.81256890297	None	None	None	None	1
2.7	2015_May_22_1252	s	s	12	5	Capacity	20	RC	0	1	08RD 15RO	1	0	1.50271010399	-127.0	205.0	-121	199	1
2.7	2015_May_22_1252	s	s	12	5	Capacity	21	RC	0	1	08RD 15RO	0	1	2.71024298668	-433.0	126.0	None	None	0
2.7	2015_May_22_1252	s	s	12	5	Capacity	22	RC	0	2	15RD 08RO	1	0	0.964637994766	-273.0	84.0	-263	83	1
2.7	2015_May_22_1252	s	s	12	5	Capacity	23	ABS	0	2	16RD 08RO	0	1	1.67086195946	None	None	None	None	1
2.7	2015_May_22_1252	s	s	12	5	Capacity	24	ABS	0	1	08RD 16RO	0	1	2.71531796455	None	None	None	None	1
2.7	2015_May_22_1252	s	s	12	5	Capacity	25	RC	0	1	08RD 15RO	1	0	1.17651104927	-537.0	299.0	-543	293	1
2.7	2015_May_22_1252	s	s	12	5	Capacity	26	RC	0	2	15RD 08RO	1	0	1.84290289879	48.0	-357.0	53	-352	1
2.7	2015_May_22_1252	s	s	12	5	Capacity	27	ABS	0	2	16RD 08RO	0	1	1.8072309494	None	None	None	None	1
2.7	2015_May_22_1252	s	s	12	5	Capacity	28	ABS	0	1	08RD 16RO	0	1	2.69193696976	None	None	None	None	1
2.7	2015_May_22_1252	s	s	12	5	Capacity	29	ABS	0	1	08RD 16RO	0	1	4.18752789497	None	None	None	None	1
2.7	2015_May_22_1252	s	s	12	5	Capacity	30	RC	0	2	15RD 08RO	1	0	1.17144203186	-491.0	-311.0	-495	-311	1
2.7	2015_May_22_1252	s	s	12	5	Capacity	31	ABS	0	2	16RD 08RO	0	1	2.18296408653	None	None	None	None	1
2.7	2015_May_22_1252	s	s	12	5	Capacity	32	RC	0	1	08RD 15RO	1	0	1.03067398071	-462.0	-195.0	-463	-186	1
2.7	2015_May_22_1252	s	s	12	5	Capacity	33	ABS	0	2	16RD 08RO	0	1	1.99610614777	None	None	None	None	1
2.7	2015_May_22_1252	s	s	12	5	Capacity	34	ABS	0	1	08RD 16RO	0	1	2.31311297417	None	None	None	None	1
2.7	2015_May_22_1252	s	s	12	5	Capacity	35	RC	0	1	08RD 15RO	0	1	2.29461503029	196.0	-6.0	None	None	0
2.7	2015_May_22_1252	s	s	12	5	Capacity	36	RC	0	2	15RD 08RO	1	0	2.23571896553	302.0	-312.0	294	-313	1
2.7	2015_May_22_1252	s	s	12	5	Capacity	37	ABS	0	1	08RD 16RO	0	1	2.68981719017	None	None	None	None	1
2.7	2015_May_22_1252	s	s	12	5	Capacity	38	ABS	0	2	16RD 08RO	0	1	1.90127182007	None	None	None	None	1
2.7	2015_May_22_1252	s	s	12	5	Capacity	39	RC	0	1	08RD 15RO	1	0	1.52455806732	-14.0	-49.0	-10	-42	1
2.7	2015_May_22_1252	s	s	12	5	Capacity	40	RC	0	2	15RD 08RO	1	0	1.61892294884	205.0	-155.0	212	-158	1
2.7	2015_May_22_1252	s	s	12	5	Capacity	41	RC	0	1	08RD 15RO	1	0	3.04789710045	217.0	-392.0	216	-401	1
2.7	2015_May_22_1252	s	s	12	5	Capacity	42	ABS	0	1	08RD 16RO	0	1	3.25420308113	None	None	None	None	1
2.7	2015_May_22_1252	s	s	12	5	Capacity	43	ABS	0	2	16RD 08RO	0	1	2.26604700089	None	None	None	None	1
2.7	2015_May_22_1252	s	s	12	5	Capacity	44	RC	0	2	15RD 08RO	0	1	1.4235830307	208.0	-224.0	None	None	0
2.7	2015_May_22_1252	s	s	12	5	Capacity	45	ABS	0	2	16RD 08RO	0	1	2.62150502205	None	None	None	None	1
2.7	2015_May_22_1252	s	s	12	5	Capacity	46	RC	0	1	08RD 15RO	1	0	1.38116884232	478.0	-169.0	483	-169	1
2.7	2015_May_22_1252	s	s	12	5	Capacity	47	RC	0	2	15RD 08RO	1	0	1.0116519928	-215.0	229.0	-220	232	1
2.7	2015_May_22_1252	s	s	12	5	Capacity	48	ABS	0	1	08RD 16RO	0	1	2.84420895576	None	None	None	None	1
2.7	2015_May_22_1252	s	s	12	5	Capacity	49	ABS	0	2	16RD 08RO	1	0	1.21173405647	None	None	163	136	0
2.7	2015_May_22_1252	s	s	12	5	Capacity	50	RC	0	1	08RD 15RO	1	0	2.48981404305	436.0	-378.0	435	-379	1
2.7	2015_May_22_1252	s	s	12	5	Capacity	51	ABS	0	1	08RD 16RO	0	1	3.23637199402	None	None	None	None	1
2.7	2015_May_22_1252	s	s	12	5	Capacity	52	RC	0	2	15RD 08RO	1	0	1.38867902756	358.0	15.0	353	14	1
2.7	2015_May_22_1252	s	s	12	5	Capacity	53	RC	0	2	15RD 08RO	1	0	1.04216480255	-406.0	149.0	-399	156	1
2.7	2015_May_22_1252	s	s	12	5	Capacity	54	ABS	0	2	16RD 08RO	0	1	1.85634493828	None	None	None	None	1
2.7	2015_May_22_1252	s	s	12	5	Capacity	55	ABS	0	1	08RD 16RO	0	1	3.49530792236	None	None	None	None	1
2.7	2015_May_22_1252	s	s	12	5	Capacity	56	RC	0	1	08RD 15RO	1	0	1.4121029377	-72.0	282.0	-76	278	1
2.7	2015_May_22_1252	s	s	12	5	Capacity	57	ABS	0	1	08RD 16RO	0	1	2.88972306252	None	None	None	None	1
2.7	2015_May_22_1252	s	s	12	5	Capacity	58	RC	0	2	15RD 08RO	1	0	0.8768658638	320.0	-132.0	314	-129	1
2.7	2015_May_22_1252	s	s	12	5	Capacity	59	RC	0	1	08RD 15RO	1	0	1.5600361824	-346.0	67.0	-332	72	1
2.7	2015_May_22_1252	s	s	12	5	Capacity	60	ABS	0	2	16RD 08RO	0	1	2.09458589554	None	None	None	None	1
2.7	2015_May_22_1252	s	s	12	5	Capacity	61	ABS	0	1	08RD 16RO	0	1	2.9508728981	None	None	None	None	1
2.7	2015_May_22_1252	s	s	12	5	Capacity	62	ABS	0	2	16RD 08RO	0	1	1.67742300034	None	None	None	None	1
2.7	2015_May_22_1252	s	s	12	5	Capacity	63	RC	0	1	08RD 15RO	1	0	0.882169008255	-361.0	-27.0	-358	-27	1
2.7	2015_May_22_1252	s	s	12	5	Capacity	64	RC	0	2	15RD 08RO	1	0	1.65898990631	130.0	-270.0	134	-275	1
2.7	2015_May_22_1252	s	s	12	5	Capacity	1	ABS	2	0	16VC 08MC	0	1	1.12424588203	None	None	None	None	1
2.7	2015_May_22_1252	s	s	12	5	Capacity	2	ABS	1	0	08VC 16MC	0	1	1.70986580849	None	None	None	None	1
2.7	2015_May_22_1252	s	s	12	5	Capacity	3	RC	1	0	08VC 15MC	1	0	0.808273077011	329.0	386.0	320	387	1
2.7	2015_May_22_1252	s	s	12	5	Capacity	4	RC	2	0	15VC 08MC	1	0	0.705556154251	-2.0	-336.0	-8	-341	1
2.7	2015_May_22_1252	s	s	12	5	Capacity	5	RC	1	0	08VC 15MC	1	0	0.705617904663	-137.0	273.0	-128	280	1
2.7	2015_May_22_1252	s	s	12	5	Capacity	6	RC	2	0	15VC 08MC	1	0	0.529054880142	-30.0	-75.0	-35	-84	1
2.7	2015_May_22_1252	s	s	12	5	Capacity	7	ABS	1	0	08VC 16MC	0	1	1.89445185661	None	None	None	None	1
2.7	2015_May_22_1252	s	s	12	5	Capacity	8	ABS	2	0	16VC 08MC	0	1	1.58853793144	None	None	None	None	1
2.7	2015_May_22_1252	s	s	12	5	Capacity	9	RC	1	0	08VC 15MC	1	0	1.56026983261	505.0	408.0	515	408	1
2.7	2015_May_22_1252	s	s	12	5	Capacity	10	ABS	2	0	16VC 08MC	0	1	1.91800808907	None	None	None	None	1
2.7	2015_May_22_1252	s	s	12	5	Capacity	11	RC	2	0	15VC 08MC	1	0	0.737708806992	-465.0	128.0	-476	137	1
2.7	2015_May_22_1252	s	s	12	5	Capacity	12	ABS	1	0	08VC 16MC	0	1	1.26247692108	None	None	None	None	1
2.7	2015_May_22_1252	s	s	12	5	Capacity	13	ABS	2	0	16VC 08MC	0	1	1.43042588234	None	None	None	None	1
2.7	2015_May_22_1252	s	s	12	5	Capacity	14	ABS	1	0	08VC 16MC	0	1	1.62107205391	None	None	None	None	1
2.7	2015_May_22_1252	s	s	12	5	Capacity	15	RC	2	0	15VC 08MC	1	0	0.576081037521	-43.0	291.0	-35	288	1
2.7	2015_May_22_1252	s	s	12	5	Capacity	16	RC	1	0	08VC 15MC	1	0	0.488815784454	24.0	-70.0	23	-81	1
2.7	2015_May_22_1252	s	s	12	5	Capacity	17	ABS	2	0	16VC 08MC	0	1	1.9364759922	None	None	None	None	1
2.7	2015_May_22_1252	s	s	12	5	Capacity	18	RC	1	0	08VC 15MC	1	0	0.594480991364	91.0	355.0	87	353	1
2.7	2015_May_22_1252	s	s	12	5	Capacity	19	RC	2	0	15VC 08MC	1	0	0.432256937027	-151.0	-1.0	-156	-3	1
2.7	2015_May_22_1252	s	s	12	5	Capacity	20	ABS	1	0	08VC 16MC	0	1	2.14168405533	None	None	None	None	1
2.7	2015_May_22_1252	s	s	12	5	Capacity	21	RC	2	0	15VC 08MC	1	0	0.699759960175	-370.0	-64.0	-365	-62	1
2.7	2015_May_22_1252	s	s	12	5	Capacity	22	ABS	2	0	16VC 08MC	0	1	1.85918498039	None	None	None	None	1
2.7	2015_May_22_1252	s	s	12	5	Capacity	23	ABS	1	0	08VC 16MC	0	1	1.31474900246	None	None	None	None	1
2.7	2015_May_22_1252	s	s	12	5	Capacity	24	RC	1	0	08VC 15MC	1	0	0.949645996094	509.0	368.0	516	367	1
2.7	2015_May_22_1252	s	s	12	5	Capacity	25	RC	2	0	15VC 08MC	1	0	0.564224004745	-290.0	9.0	-287	5	1
2.7	2015_May_22_1252	s	s	12	5	Capacity	26	ABS	2	0	16VC 08MC	0	1	1.80020093918	None	None	None	None	1
2.7	2015_May_22_1252	s	s	12	5	Capacity	27	ABS	1	0	08VC 16MC	0	1	2.59589505196	None	None	None	None	1
2.7	2015_May_22_1252	s	s	12	5	Capacity	28	RC	1	0	08VC 15MC	1	0	0.858622074127	-247.0	399.0	-248	404	1
2.7	2015_May_22_1252	s	s	12	5	Capacity	29	ABS	2	0	16VC 08MC	0	1	1.84732198715	None	None	None	None	1
2.7	2015_May_22_1252	s	s	12	5	Capacity	30	RC	1	0	08VC 15MC	1	0	0.571199893951	37.0	316.0	46	314	1
2.7	2015_May_22_1252	s	s	12	5	Capacity	31	RC	2	0	15VC 08MC	1	0	0.549654006958	-333.0	-173.0	-335	-180	1
2.7	2015_May_22_1252	s	s	12	5	Capacity	32	ABS	1	0	08VC 16MC	0	1	1.77415204048	None	None	None	None	1
2.7	2015_May_22_1252	s	s	12	5	Capacity	33	RC	1	0	08VC 15MC	1	0	1.01831698418	-211.0	403.0	-214	397	1
2.7	2015_May_22_1252	s	s	12	5	Capacity	34	ABS	1	0	08VC 16MC	0	1	1.89002394676	None	None	None	None	1
2.7	2015_May_22_1252	s	s	12	5	Capacity	35	ABS	2	0	16VC 08MC	0	1	1.5884039402	None	None	None	None	1
2.7	2015_May_22_1252	s	s	12	5	Capacity	36	RC	2	0	15VC 08MC	1	0	0.564368009567	240.0	142.0	240	134	1
2.7	2015_May_22_1252	s	s	12	5	Capacity	37	RC	1	0	08VC 15MC	1	0	0.509233951569	-267.0	-269.0	-255	-263	1
2.7	2015_May_22_1252	s	s	12	5	Capacity	38	ABS	2	0	16VC 08MC	0	1	1.67081093788	None	None	None	None	1
2.7	2015_May_22_1252	s	s	12	5	Capacity	39	RC	2	0	15VC 08MC	1	0	0.771263837814	-209.0	375.0	-203	367	1
2.7	2015_May_22_1252	s	s	12	5	Capacity	40	ABS	1	0	08VC 16MC	0	1	1.60707116127	None	None	None	None	1
2.7	2015_May_22_1252	s	s	12	5	Capacity	41	ABS	2	0	16VC 08MC	0	1	0.911610841751	None	None	None	None	1
2.7	2015_May_22_1252	s	s	12	5	Capacity	42	RC	2	0	15VC 08MC	1	0	0.406078100204	-65.0	46.0	-59	43	1
2.7	2015_May_22_1252	s	s	12	5	Capacity	43	ABS	1	0	08VC 16MC	0	1	1.2706182003	None	None	None	None	1
2.7	2015_May_22_1252	s	s	12	5	Capacity	44	RC	1	0	08VC 15MC	1	0	0.564324140549	-536.0	-151.0	-531	-150	1
2.7	2015_May_22_1252	s	s	12	5	Capacity	45	RC	1	0	08VC 15MC	1	0	0.558279037476	153.0	-67.0	156	-70	1
2.7	2015_May_22_1252	s	s	12	5	Capacity	46	ABS	2	0	16VC 08MC	0	1	1.1291949749	None	None	None	None	1
2.7	2015_May_22_1252	s	s	12	5	Capacity	47	RC	2	0	15VC 08MC	1	0	0.453520059586	135.0	216.0	134	209	1
2.7	2015_May_22_1252	s	s	12	5	Capacity	48	ABS	1	0	08VC 16MC	0	1	2.24752306938	None	None	None	None	1
2.7	2015_May_22_1252	s	s	12	5	Capacity	49	ABS	2	0	16VC 08MC	0	1	1.52476406097	None	None	None	None	1
2.7	2015_May_22_1252	s	s	12	5	Capacity	50	RC	1	0	08VC 15MC	1	0	0.665877103806	-357.0	-274.0	-355	-274	1
2.7	2015_May_22_1252	s	s	12	5	Capacity	51	ABS	1	0	08VC 16MC	0	1	2.24764895439	None	None	None	None	1
2.7	2015_May_22_1252	s	s	12	5	Capacity	52	RC	2	0	15VC 08MC	1	0	0.776206016541	-239.0	200.0	-243	198	1
2.7	2015_May_22_1252	s	s	12	5	Capacity	53	ABS	2	0	16VC 08MC	0	1	1.10579204559	None	None	None	None	1
2.7	2015_May_22_1252	s	s	12	5	Capacity	54	ABS	1	0	08VC 16MC	0	1	1.67760896683	None	None	None	None	1
2.7	2015_May_22_1252	s	s	12	5	Capacity	55	RC	2	0	15VC 08MC	1	0	0.618129014969	339.0	-215.0	349	-210	1
2.7	2015_May_22_1252	s	s	12	5	Capacity	56	RC	1	0	08VC 15MC	1	0	0.540832042694	-66.0	31.0	-62	33	1
2.7	2015_May_22_1252	s	s	12	5	Capacity	57	ABS	2	0	16VC 08MC	0	1	1.80021190643	None	None	None	None	1
2.7	2015_May_22_1252	s	s	12	5	Capacity	58	RC	1	0	08VC 15MC	1	0	0.48978304863	104.0	-284.0	96	-284	1
2.7	2015_May_22_1252	s	s	12	5	Capacity	59	ABS	1	0	08VC 16MC	0	1	1.68935990334	None	None	None	None	1
2.7	2015_May_22_1252	s	s	12	5	Capacity	60	RC	2	0	15VC 08MC	1	0	0.59969496727	-338.0	31.0	-334	37	1
2.7	2015_May_22_1252	s	s	12	5	Capacity	61	ABS	2	0	16VC 08MC	0	1	1.09397602081	None	None	None	None	1
2.7	2015_May_22_1252	s	s	12	5	Capacity	62	RC	1	0	08VC 15MC	1	0	0.540849924088	103.0	48.0	94	46	1
2.7	2015_May_22_1252	s	s	12	5	Capacity	63	RC	2	0	15VC 08MC	1	0	0.453438043594	-157.0	-95.0	-153	-90	1
2.7	2015_May_22_1252	s	s	12	5	Capacity	64	ABS	1	0	08VC 16MC	0	1	1.92579007149	None	None	None	None	1
2.7	2015_May_22_1252	s	s	12	5	SIC	1	ABS	2	1	02VD 10VO 02VC 02MD 02MO 02MC 02RD 02RO	0	1	1.70616817474	None	None	None	None	1
2.7	2015_May_22_1252	s	s	12	5	SIC	2	RC	1	2	02VD 02VO 02VC 09MD 02MO 02MC 02RD 02RO	1	0	0.576476097107	26.0	-125.0	23	-127	1
2.7	2015_May_22_1252	s	s	12	5	SIC	3	RC	2	1	02VD 09VO 02VC 02MD 02MO 02MC 02RD 02RO	1	0	0.611484050751	83.0	206.0	87	199	1
2.7	2015_May_22_1252	s	s	12	5	SIC	4	ABS	1	2	02VD 02VO 02VC 10MD 02MO 02MC 02RD 02RO	0	1	1.55922484398	None	None	None	None	1
2.7	2015_May_22_1252	s	s	12	5	SIC	5	ABS	2	2	10VD 02VO 02VC 02MD 02MO 02MC 02RD 02RO	0	1	1.33637404442	None	None	None	None	1
2.7	2015_May_22_1252	s	s	12	5	SIC	6	RC	2	0	02VD 02VO 09VC 02MD 02MO 02MC 02RD 02RO	1	0	1.32436108589	-158.0	406.0	-153	410	1
2.7	2015_May_22_1252	s	s	12	5	SIC	7	ABS	0	1	02VD 02VO 02VC 02MD 02MO 02MC 02RD 10RO	0	1	2.99808883667	None	None	None	None	1
2.7	2015_May_22_1252	s	s	12	5	SIC	8	RC	0	1	02VD 02VO 02VC 02MD 02MO 02MC 02RD 09RO	1	0	0.52407002449	-110.0	24.0	-115	19	1
2.7	2015_May_22_1252	s	s	12	5	SIC	9	ABS	0	2	02VD 02VO 02VC 02MD 02MO 02MC 10RD 02RO	0	1	1.33638000488	None	None	None	None	1
2.7	2015_May_22_1252	s	s	12	5	SIC	10	ABS	1	0	02VD 02VO 02VC 02MD 02MO 10MC 02RD 02RO	0	1	1.63545393944	None	None	None	None	1
2.7	2015_May_22_1252	s	s	12	5	SIC	11	ABS	1	1	02VD 02VO 02VC 02MD 10MO 02MC 02RD 02RO	0	1	2.0357131958	None	None	None	None	1
2.7	2015_May_22_1252	s	s	12	5	SIC	12	ABS	2	0	02VD 02VO 10VC 02MD 02MO 02MC 02RD 02RO	0	1	1.40830516815	None	None	None	None	1
2.7	2015_May_22_1252	s	s	12	5	SIC	13	RC	1	1	02VD 02VO 02VC 02MD 09MO 02MC 02RD 02RO	1	0	0.956707000732	-48.0	-202.0	-48	-205	1
2.7	2015_May_22_1252	s	s	12	5	SIC	14	RC	0	2	02VD 02VO 02VC 02MD 02MO 02MC 09RD 02RO	1	0	0.69386100769	-217.0	43.0	-220	40	1
2.7	2015_May_22_1252	s	s	12	5	SIC	15	RC	2	2	09VD 02VO 02VC 02MD 02MO 02MC 02RD 02RO	1	0	0.729169130325	-390.0	184.0	-391	187	1
2.7	2015_May_22_1252	s	s	12	5	SIC	16	RC	1	0	02VD 02VO 02VC 02MD 02MO 09MC 02RD 02RO	1	0	0.665710926056	-2.0	166.0	-9	174	1
2.7	2015_May_22_1252	s	s	12	5	SIC	17	RC	1	0	02VD 02VO 02VC 02MD 02MO 09MC 02RD 02RO	1	0	1.1763241291	102.0	-272.0	99	-276	1
2.7	2015_May_22_1252	s	s	12	5	SIC	18	ABS	0	2	02VD 02VO 02VC 02MD 02MO 02MC 10RD 02RO	0	1	1.65905404091	None	None	None	None	1
2.7	2015_May_22_1252	s	s	12	5	SIC	19	ABS	1	1	02VD 02VO 02VC 02MD 10MO 02MC 02RD 02RO	0	1	1.90621113777	None	None	None	None	1
2.7	2015_May_22_1252	s	s	12	5	SIC	20	RC	0	1	02VD 02VO 02VC 02MD 02MO 02MC 02RD 09RO	1	0	0.634917974472	-194.0	196.0	-190	204	1
2.7	2015_May_22_1252	s	s	12	5	SIC	21	ABS	2	2	10VD 02VO 02VC 02MD 02MO 02MC 02RD 02RO	0	1	1.60719704628	None	None	None	None	1
2.7	2015_May_22_1252	s	s	12	5	SIC	22	ABS	2	0	02VD 02VO 10VC 02MD 02MO 02MC 02RD 02RO	0	1	1.15289592743	None	None	None	None	1
2.7	2015_May_22_1252	s	s	12	5	SIC	23	RC	2	2	09VD 02VO 02VC 02MD 02MO 02MC 02RD 02RO	1	0	0.547749042511	187.0	78.0	196	83	1
2.7	2015_May_22_1252	s	s	12	5	SIC	24	RC	1	1	02VD 02VO 02VC 02MD 09MO 02MC 02RD 02RO	1	0	0.552622079849	191.0	30.0	189	30	1
2.7	2015_May_22_1252	s	s	12	5	SIC	25	RC	1	2	02VD 02VO 02VC 09MD 02MO 02MC 02RD 02RO	1	0	0.941148042679	-476.0	-124.0	-483	-123	1
2.7	2015_May_22_1252	s	s	12	5	SIC	26	ABS	1	2	02VD 02VO 02VC 10MD 02MO 02MC 02RD 02RO	0	1	1.38340592384	None	None	None	None	1
2.7	2015_May_22_1252	s	s	12	5	SIC	27	RC	2	0	02VD 02VO 09VC 02MD 02MO 02MC 02RD 02RO	1	0	0.973693132401	490.0	-254.0	496	-263	1
2.7	2015_May_22_1252	s	s	12	5	SIC	28	ABS	2	1	02VD 10VO 02VC 02MD 02MO 02MC 02RD 02RO	1	0	1.61857295036	None	None	-109	175	0
2.7	2015_May_22_1252	s	s	12	5	SIC	29	ABS	0	1	02VD 02VO 02VC 02MD 02MO 02MC 02RD 10RO	0	1	2.56018400192	None	None	None	None	1
2.7	2015_May_22_1252	s	s	12	5	SIC	30	RC	0	2	02VD 02VO 02VC 02MD 02MO 02MC 09RD 02RO	1	0	1.05896997452	-345.0	-129.0	-338	-122	1
2.7	2015_May_22_1252	s	s	12	5	SIC	31	ABS	1	0	02VD 02VO 02VC 02MD 02MO 10MC 02RD 02RO	0	1	1.48915791512	None	None	None	None	1
2.7	2015_May_22_1252	s	s	12	5	SIC	32	RC	2	1	02VD 09VO 02VC 02MD 02MO 02MC 02RD 02RO	1	0	0.929151058197	-277.0	190.0	-283	196	1
2.7	2015_May_22_1252	s	s	12	5	SIC	33	RC	2	0	02VD 02VO 09VC 02MD 02MO 02MC 02RD 02RO	1	0	0.691233873367	184.0	-341.0	187	-345	1
2.7	2015_May_22_1252	s	s	12	5	SIC	34	RC	2	1	02VD 09VO 02VC 02MD 02MO 02MC 02RD 02RO	1	0	0.15912604332	-86.0	-219.0	-87	-225	1
2.7	2015_May_22_1252	s	s	12	5	SIC	35	RC	0	2	02VD 02VO 02VC 02MD 02MO 02MC 09RD 02RO	1	0	1.15294885635	-25.0	229.0	-28	227	1
2.7	2015_May_22_1252	s	s	12	5	SIC	36	ABS	0	1	02VD 02VO 02VC 02MD 02MO 02MC 02RD 10RO	0	1	2.83097219467	None	None	None	None	1
2.7	2015_May_22_1252	s	s	12	5	SIC	37	ABS	1	2	02VD 02VO 02VC 10MD 02MO 02MC 02RD 02RO	0	1	1.58281588554	None	None	None	None	1
2.7	2015_May_22_1252	s	s	12	5	SIC	38	ABS	2	0	02VD 02VO 10VC 02MD 02MO 02MC 02RD 02RO	0	1	1.5250749588	None	None	None	None	1
2.7	2015_May_22_1252	s	s	12	5	SIC	39	ABS	2	2	10VD 02VO 02VC 02MD 02MO 02MC 02RD 02RO	0	1	1.30624890327	None	None	None	None	1
2.7	2015_May_22_1252	s	s	12	5	SIC	40	ABS	0	2	02VD 02VO 02VC 02MD 02MO 02MC 10RD 02RO	0	1	1.12436103821	None	None	None	None	1
2.7	2015_May_22_1252	s	s	12	5	SIC	41	RC	2	2	09VD 02VO 02VC 02MD 02MO 02MC 02RD 02RO	1	0	0.917461872101	419.0	-2.0	406	2	1
2.7	2015_May_22_1252	s	s	12	5	SIC	42	RC	1	1	02VD 02VO 02VC 02MD 09MO 02MC 02RD 02RO	1	0	1.91795492172	-433.0	247.0	-435	247	1
2.7	2015_May_22_1252	s	s	12	5	SIC	43	ABS	2	1	02VD 10VO 02VC 02MD 02MO 02MC 02RD 02RO	0	1	1.67946696281	None	None	None	None	1
2.7	2015_May_22_1252	s	s	12	5	SIC	44	RC	0	1	02VD 02VO 02VC 02MD 02MO 02MC 02RD 09RO	1	0	0.882213115692	-502.0	-158.0	-502	-154	1
2.7	2015_May_22_1252	s	s	12	5	SIC	45	RC	1	2	02VD 02VO 02VC 09MD 02MO 02MC 02RD 02RO	1	0	0.670294046402	28.0	-166.0	29	-163	1
2.7	2015_May_22_1252	s	s	12	5	SIC	46	ABS	1	1	02VD 02VO 02VC 02MD 10MO 02MC 02RD 02RO	0	1	1.31439495087	None	None	None	None	1
2.7	2015_May_22_1252	s	s	12	5	SIC	47	RC	1	0	02VD 02VO 02VC 02MD 02MO 09MC 02RD 02RO	1	0	0.759485960007	-335.0	-127.0	-321	-120	1
2.7	2015_May_22_1252	s	s	12	5	SIC	48	ABS	1	0	02VD 02VO 02VC 02MD 02MO 10MC 02RD 02RO	0	1	1.51295900345	None	None	None	None	1
2.7	2015_May_22_1252	s	s	12	5	SIC	49	ABS	1	0	02VD 02VO 02VC 02MD 02MO 10MC 02RD 02RO	0	1	1.49397683144	None	None	None	None	1
2.7	2015_May_22_1252	s	s	12	5	SIC	50	ABS	0	1	02VD 02VO 02VC 02MD 02MO 02MC 02RD 10RO	0	1	2.87133979797	None	None	None	None	1
2.7	2015_May_22_1252	s	s	12	5	SIC	51	ABS	0	2	02VD 02VO 02VC 02MD 02MO 02MC 10RD 02RO	0	1	1.48928713799	None	None	None	None	1
2.7	2015_May_22_1252	s	s	12	5	SIC	52	ABS	2	1	02VD 10VO 02VC 02MD 02MO 02MC 02RD 02RO	0	1	1.68948698044	None	None	None	None	1
2.7	2015_May_22_1252	s	s	12	5	SIC	53	ABS	2	0	02VD 02VO 10VC 02MD 02MO 02MC 02RD 02RO	0	1	1.19557499886	None	None	None	None	1
2.7	2015_May_22_1252	s	s	12	5	SIC	54	RC	1	2	02VD 02VO 02VC 09MD 02MO 02MC 02RD 02RO	1	0	1.0891020298	519.0	-34.0	508	-29	1
2.7	2015_May_22_1252	s	s	12	5	SIC	55	ABS	2	2	10VD 02VO 02VC 02MD 02MO 02MC 02RD 02RO	0	1	1.33601903915	None	None	None	None	1
2.7	2015_May_22_1252	s	s	12	5	SIC	56	ABS	1	2	02VD 02VO 02VC 10MD 02MO 02MC 02RD 02RO	0	1	1.18820095062	None	None	None	None	1
2.7	2015_May_22_1252	s	s	12	5	SIC	57	ABS	1	1	02VD 02VO 02VC 02MD 10MO 02MC 02RD 02RO	0	1	1.90110611916	None	None	None	None	1
2.7	2015_May_22_1252	s	s	12	5	SIC	58	RC	0	1	02VD 02VO 02VC 02MD 02MO 02MC 02RD 09RO	1	0	1.87636184692	-209.0	384.0	-211	388	1
2.7	2015_May_22_1252	s	s	12	5	SIC	59	RC	2	0	02VD 02VO 09VC 02MD 02MO 02MC 02RD 02RO	1	0	1.51282787323	421.0	82.0	416	83	1
2.7	2015_May_22_1252	s	s	12	5	SIC	60	RC	0	2	02VD 02VO 02VC 02MD 02MO 02MC 09RD 02RO	1	0	0.61142706871	-150.0	69.0	-151	66	1
2.7	2015_May_22_1252	s	s	12	5	SIC	61	RC	1	1	02VD 02VO 02VC 02MD 09MO 02MC 02RD 02RO	1	0	1.20653295517	390.0	12.0	394	13	1
2.7	2015_May_22_1252	s	s	12	5	SIC	62	RC	2	1	02VD 09VO 02VC 02MD 02MO 02MC 02RD 02RO	1	0	0.576023817062	-118.0	-247.0	-117	-238	1
2.7	2015_May_22_1252	s	s	12	5	SIC	63	RC	2	2	09VD 02VO 02VC 02MD 02MO 02MC 02RD 02RO	1	0	0.44659113884	-48.0	-81.0	-47	-80	1
2.7	2015_May_22_1252	s	s	12	5	SIC	64	RC	1	0	02VD 02VO 02VC 02MD 02MO 09MC 02RD 02RO	1	0	0.905644178391	526.0	200.0	533	199	1
2.7	2015_May_22_1252	s	s	12	5	SIC	65	ABS	1	2	02VD 02VO 02VC 10MD 02MO 02MC 02RD 02RO	0	1	1.68949699402	None	None	None	None	1
2.7	2015_May_22_1252	s	s	12	5	SIC	66	RC	1	0	02VD 02VO 02VC 02MD 02MO 09MC 02RD 02RO	1	0	0.846853017807	24.0	-299.0	16	-294	1
2.7	2015_May_22_1252	s	s	12	5	SIC	67	ABS	2	0	02VD 02VO 10VC 02MD 02MO 02MC 02RD 02RO	0	1	1.091588974	None	None	None	None	1
2.7	2015_May_22_1252	s	s	12	5	SIC	68	RC	2	1	02VD 09VO 02VC 02MD 02MO 02MC 02RD 02RO	1	0	0.670264959335	-410.0	-67.0	-401	-62	1
2.7	2015_May_22_1252	s	s	12	5	SIC	69	ABS	2	1	02VD 10VO 02VC 02MD 02MO 02MC 02RD 02RO	0	1	1.41626191139	None	None	None	None	1
2.7	2015_May_22_1252	s	s	12	5	SIC	70	RC	2	0	02VD 02VO 09VC 02MD 02MO 02MC 02RD 02RO	1	0	0.667454004288	-194.0	-20.0	-187	-24	1
2.7	2015_May_22_1252	s	s	12	5	SIC	71	ABS	1	1	02VD 02VO 02VC 02MD 10MO 02MC 02RD 02RO	0	1	1.38831782341	None	None	None	None	1
2.7	2015_May_22_1252	s	s	12	5	SIC	72	ABS	2	2	10VD 02VO 02VC 02MD 02MO 02MC 02RD 02RO	0	1	1.33790493011	None	None	None	None	1
2.7	2015_May_22_1252	s	s	12	5	SIC	73	RC	1	2	02VD 02VO 02VC 09MD 02MO 02MC 02RD 02RO	1	0	0.724472045898	252.0	-64.0	251	-70	1
2.7	2015_May_22_1252	s	s	12	5	SIC	74	ABS	0	2	02VD 02VO 02VC 02MD 02MO 02MC 10RD 02RO	0	1	1.9017970562	None	None	None	None	1
2.7	2015_May_22_1252	s	s	12	5	SIC	75	RC	2	2	09VD 02VO 02VC 02MD 02MO 02MC 02RD 02RO	1	0	1.21178603172	-450.0	-301.0	-448	-312	1
2.7	2015_May_22_1252	s	s	12	5	SIC	76	RC	0	1	02VD 02VO 02VC 02MD 02MO 02MC 02RD 09RO	1	0	1.48899197578	528.0	180.0	535	183	1
2.7	2015_May_22_1252	s	s	12	5	SIC	77	RC	0	2	02VD 02VO 02VC 02MD 02MO 02MC 09RD 02RO	1	0	0.653604984283	-203.0	38.0	-205	40	1
2.7	2015_May_22_1252	s	s	12	5	SIC	78	ABS	1	0	02VD 02VO 02VC 02MD 02MO 10MC 02RD 02RO	0	1	1.67756819725	None	None	None	None	1
2.7	2015_May_22_1252	s	s	12	5	SIC	79	ABS	0	1	02VD 02VO 02VC 02MD 02MO 02MC 02RD 10RO	0	1	3.64823889732	None	None	None	None	1
2.7	2015_May_22_1252	s	s	12	5	SIC	80	RC	1	1	02VD 02VO 02VC 02MD 09MO 02MC 02RD 02RO	1	0	1.01162719727	-438.0	-147.0	-440	-144	1
2.7	2015_May_22_1252	s	s	12	5	SIC	81	RC	1	2	02VD 02VO 02VC 09MD 02MO 02MC 02RD 02RO	1	0	1.0417599678	464.0	-364.0	462	-357	1
2.7	2015_May_22_1252	s	s	12	5	SIC	82	RC	1	0	02VD 02VO 02VC 02MD 02MO 09MC 02RD 02RO	1	0	1.62372088432	528.0	-73.0	536	-78	1
2.7	2015_May_22_1252	s	s	12	5	SIC	83	RC	2	1	02VD 09VO 02VC 02MD 02MO 02MC 02RD 02RO	1	0	0.677125930786	263.0	-177.0	267	-178	1
2.7	2015_May_22_1252	s	s	12	5	SIC	84	ABS	2	1	02VD 10VO 02VC 02MD 02MO 02MC 02RD 02RO	0	1	1.90097308159	None	None	None	None	1
2.7	2015_May_22_1252	s	s	12	5	SIC	85	ABS	1	0	02VD 02VO 02VC 02MD 02MO 10MC 02RD 02RO	0	1	1.76004600525	None	None	None	None	1
2.7	2015_May_22_1252	s	s	12	5	SIC	86	ABS	0	2	02VD 02VO 02VC 02MD 02MO 02MC 10RD 02RO	0	1	1.81206393242	None	None	None	None	1
2.7	2015_May_22_1252	s	s	12	5	SIC	87	RC	1	1	02VD 02VO 02VC 02MD 09MO 02MC 02RD 02RO	1	0	0.5707218647	136.0	39.0	134	44	1
2.7	2015_May_22_1252	s	s	12	5	SIC	88	ABS	2	0	02VD 02VO 10VC 02MD 02MO 02MC 02RD 02RO	0	1	2.25442409515	None	None	None	None	1
2.7	2015_May_22_1252	s	s	12	5	SIC	89	ABS	1	1	02VD 02VO 02VC 02MD 10MO 02MC 02RD 02RO	0	1	1.62373900414	None	None	None	None	1
2.7	2015_May_22_1252	s	s	12	5	SIC	90	ABS	0	1	02VD 02VO 02VC 02MD 02MO 02MC 02RD 10RO	0	1	3.73761987686	None	None	None	None	1
2.7	2015_May_22_1252	s	s	12	5	SIC	91	RC	2	0	02VD 02VO 09VC 02MD 02MO 02MC 02RD 02RO	1	0	0.785026073456	-443.0	91.0	-445	88	1
2.7	2015_May_22_1252	s	s	12	5	SIC	92	ABS	1	2	02VD 02VO 02VC 10MD 02MO 02MC 02RD 02RO	0	1	1.14779686928	None	None	None	None	1
2.7	2015_May_22_1252	s	s	12	5	SIC	93	ABS	2	2	10VD 02VO 02VC 02MD 02MO 02MC 02RD 02RO	0	1	1.28235197067	None	None	None	None	1
2.7	2015_May_22_1252	s	s	12	5	SIC	94	RC	2	2	09VD 02VO 02VC 02MD 02MO 02MC 02RD 02RO	1	0	0.559895992279	221.0	112.0	222	111	1
2.7	2015_May_22_1252	s	s	12	5	SIC	95	RC	0	2	02VD 02VO 02VC 02MD 02MO 02MC 09RD 02RO	1	0	0.529354810715	169.0	-189.0	177	-181	1
2.7	2015_May_22_1252	s	s	12	5	SIC	96	RC	0	1	02VD 02VO 02VC 02MD 02MO 02MC 02RD 09RO	1	0	0.477019071579	-246.0	-90.0	-233	-87	1
2.7	2015_May_22_1252	s	s	12	5	SIC	97	ABS	2	0	02VD 02VO 10VC 02MD 02MO 02MC 02RD 02RO	0	1	1.49848508835	None	None	None	None	1
2.7	2015_May_22_1252	s	s	12	5	SIC	98	RC	2	1	02VD 09VO 02VC 02MD 02MO 02MC 02RD 02RO	1	0	0.564374923706	-31.0	155.0	-29	154	1
2.7	2015_May_22_1252	s	s	12	5	SIC	99	RC	2	0	02VD 02VO 09VC 02MD 02MO 02MC 02RD 02RO	1	0	0.729182958603	501.0	-146.0	495	-145	1
2.7	2015_May_22_1252	s	s	12	5	SIC	100	ABS	1	0	02VD 02VO 02VC 02MD 02MO 10MC 02RD 02RO	0	1	1.61874103546	None	None	None	None	1
2.7	2015_May_22_1252	s	s	12	5	SIC	101	ABS	1	2	02VD 02VO 02VC 10MD 02MO 02MC 02RD 02RO	0	1	1.37655496597	None	None	None	None	1
2.7	2015_May_22_1252	s	s	12	5	SIC	102	RC	2	2	09VD 02VO 02VC 02MD 02MO 02MC 02RD 02RO	1	0	0.583021879196	-4.0	52.0	-1	47	1
2.7	2015_May_22_1252	s	s	12	5	SIC	103	ABS	0	1	02VD 02VO 02VC 02MD 02MO 02MC 02RD 10RO	0	1	2.25935006142	None	None	None	None	1
2.7	2015_May_22_1252	s	s	12	5	SIC	104	RC	1	0	02VD 02VO 02VC 02MD 02MO 09MC 02RD 02RO	1	0	1.08231282234	118.0	-267.0	120	-263	1
2.7	2015_May_22_1252	s	s	12	5	SIC	105	RC	0	1	02VD 02VO 02VC 02MD 02MO 02MC 02RD 09RO	1	0	1.33600711823	339.0	246.0	337	235	1
2.7	2015_May_22_1252	s	s	12	5	SIC	106	ABS	2	1	02VD 10VO 02VC 02MD 02MO 02MC 02RD 02RO	0	1	1.41177821159	None	None	None	None	1
2.7	2015_May_22_1252	s	s	12	5	SIC	107	ABS	1	1	02VD 02VO 02VC 02MD 10MO 02MC 02RD 02RO	0	1	1.5250711441	None	None	None	None	1
2.7	2015_May_22_1252	s	s	12	5	SIC	108	RC	1	2	02VD 02VO 02VC 09MD 02MO 02MC 02RD 02RO	1	0	0.865900993347	-393.0	113.0	-393	115	1
2.7	2015_May_22_1252	s	s	12	5	SIC	109	ABS	0	2	02VD 02VO 02VC 02MD 02MO 02MC 10RD 02RO	0	1	1.33629608154	None	None	None	None	1
2.7	2015_May_22_1252	s	s	12	5	SIC	110	ABS	2	2	10VD 02VO 02VC 02MD 02MO 02MC 02RD 02RO	0	1	1.3647608757	None	None	None	None	1
2.7	2015_May_22_1252	s	s	12	5	SIC	111	RC	0	2	02VD 02VO 02VC 02MD 02MO 02MC 09RD 02RO	1	0	0.634949922562	63.0	-275.0	58	-274	1
2.7	2015_May_22_1252	s	s	12	5	SIC	112	RC	1	1	02VD 02VO 02VC 02MD 09MO 02MC 02RD 02RO	1	0	1.05422711372	284.0	-7.0	280	-2	1
2.7	2015_May_22_1252	s	s	12	5	SIC	113	ABS	1	0	02VD 02VO 02VC 02MD 02MO 10MC 02RD 02RO	0	1	1.63061308861	None	None	None	None	1
2.7	2015_May_22_1252	s	s	12	5	SIC	114	ABS	0	2	02VD 02VO 02VC 02MD 02MO 02MC 10RD 02RO	0	1	1.77662301064	None	None	None	None	1
2.7	2015_May_22_1252	s	s	12	5	SIC	115	ABS	1	1	02VD 02VO 02VC 02MD 10MO 02MC 02RD 02RO	0	1	1.91796302795	None	None	None	None	1
2.7	2015_May_22_1252	s	s	12	5	SIC	116	RC	1	2	02VD 02VO 02VC 09MD 02MO 02MC 02RD 02RO	1	0	0.63001203537	0.0	-163.0	1	-158	1
2.7	2015_May_22_1252	s	s	12	5	SIC	117	ABS	1	2	02VD 02VO 02VC 10MD 02MO 02MC 02RD 02RO	0	1	1.72454500198	None	None	None	None	1
2.7	2015_May_22_1252	s	s	12	5	SIC	118	RC	2	1	02VD 09VO 02VC 02MD 02MO 02MC 02RD 02RO	1	0	0.576101064682	-438.0	-285.0	-427	-283	1
2.7	2015_May_22_1252	s	s	12	5	SIC	119	RC	2	2	09VD 02VO 02VC 02MD 02MO 02MC 02RD 02RO	1	0	1.58373618126	-538.0	-176.0	-550	-174	1
2.7	2015_May_22_1252	s	s	12	5	SIC	120	ABS	2	2	10VD 02VO 02VC 02MD 02MO 02MC 02RD 02RO	0	1	1.31768703461	None	None	None	None	1
2.7	2015_May_22_1252	s	s	12	5	SIC	121	RC	0	1	02VD 02VO 02VC 02MD 02MO 02MC 02RD 09RO	1	0	2.6243429184	-495.0	383.0	-499	386	1
2.7	2015_May_22_1252	s	s	12	5	SIC	122	ABS	2	1	02VD 10VO 02VC 02MD 02MO 02MC 02RD 02RO	0	1	1.34815621376	None	None	None	None	1
2.7	2015_May_22_1252	s	s	12	5	SIC	123	RC	0	2	02VD 02VO 02VC 02MD 02MO 02MC 09RD 02RO	1	0	1.05333900452	-523.0	288.0	-532	291	1
2.7	2015_May_22_1252	s	s	12	5	SIC	124	ABS	2	0	02VD 02VO 10VC 02MD 02MO 02MC 02RD 02RO	0	1	1.39493608475	None	None	None	None	1
2.7	2015_May_22_1252	s	s	12	5	SIC	125	ABS	0	1	02VD 02VO 02VC 02MD 02MO 02MC 02RD 10RO	0	1	2.19527697563	None	None	None	None	1
2.7	2015_May_22_1252	s	s	12	5	SIC	126	RC	2	0	02VD 02VO 09VC 02MD 02MO 02MC 02RD 02RO	1	0	1.03005099297	474.0	-232.0	473	-228	1
2.7	2015_May_22_1252	s	s	12	5	SIC	127	RC	1	0	02VD 02VO 02VC 02MD 02MO 09MC 02RD 02RO	1	0	1.03036499023	234.0	145.0	242	149	1
2.7	2015_May_22_1252	s	s	12	5	SIC	128	RC	1	1	02VD 02VO 02VC 02MD 09MO 02MC 02RD 02RO	1	0	0.744570016861	428.0	-291.0	421	-286	1
2.7	2015_May_22_1252	s	s	12	5	SIC	129	ABS	0	2	02VD 02VO 02VC 02MD 02MO 02MC 10RD 02RO	0	1	1.53757500648	None	None	None	None	1
2.7	2015_May_22_1252	s	s	12	5	SIC	130	ABS	1	0	02VD 02VO 02VC 02MD 02MO 10MC 02RD 02RO	0	1	1.54847002029	None	None	None	None	1
2.7	2015_May_22_1252	s	s	12	5	SIC	131	ABS	1	1	02VD 02VO 02VC 02MD 10MO 02MC 02RD 02RO	0	1	1.89180207253	None	None	None	None	1
2.7	2015_May_22_1252	s	s	12	5	SIC	132	RC	1	2	02VD 02VO 02VC 09MD 02MO 02MC 02RD 02RO	1	0	0.623197078705	-134.0	26.0	-121	30	1
2.7	2015_May_22_1252	s	s	12	5	SIC	133	RC	2	0	02VD 02VO 09VC 02MD 02MO 02MC 02RD 02RO	1	0	0.705698013306	128.0	-287.0	133	-287	1
2.7	2015_May_22_1252	s	s	12	5	SIC	134	ABS	1	2	02VD 02VO 02VC 10MD 02MO 02MC 02RD 02RO	0	1	1.76029491425	None	None	None	None	1
2.7	2015_May_22_1252	s	s	12	5	SIC	135	ABS	0	1	02VD 02VO 02VC 02MD 02MO 02MC 02RD 10RO	0	1	2.44766998291	None	None	None	None	1
2.7	2015_May_22_1252	s	s	12	5	SIC	136	RC	0	1	02VD 02VO 02VC 02MD 02MO 02MC 02RD 09RO	1	0	0.988154172897	-319.0	-334.0	-324	-340	1
2.7	2015_May_22_1252	s	s	12	5	SIC	137	RC	1	0	02VD 02VO 02VC 02MD 02MO 09MC 02RD 02RO	1	0	1.12130713463	-138.0	132.0	-140	123	1
2.7	2015_May_22_1252	s	s	12	5	SIC	138	ABS	2	2	10VD 02VO 02VC 02MD 02MO 02MC 02RD 02RO	0	1	1.27753686905	None	None	None	None	1
2.7	2015_May_22_1252	s	s	12	5	SIC	139	ABS	2	1	02VD 10VO 02VC 02MD 02MO 02MC 02RD 02RO	0	1	1.84238100052	None	None	None	None	1
2.7	2015_May_22_1252	s	s	12	5	SIC	140	RC	1	1	02VD 02VO 02VC 02MD 09MO 02MC 02RD 02RO	1	0	0.732851028442	53.0	73.0	57	76	1
2.7	2015_May_22_1252	s	s	12	5	SIC	141	RC	2	1	02VD 09VO 02VC 02MD 02MO 02MC 02RD 02RO	1	0	0.647019863129	-485.0	-52.0	-483	-51	1
2.7	2015_May_22_1252	s	s	12	5	SIC	142	RC	2	2	09VD 02VO 02VC 02MD 02MO 02MC 02RD 02RO	1	0	0.653762102127	407.0	-69.0	409	-61	1
2.7	2015_May_22_1252	s	s	12	5	SIC	143	RC	0	2	02VD 02VO 02VC 02MD 02MO 02MC 09RD 02RO	1	0	0.806542873383	-447.0	-264.0	-458	-262	1
2.7	2015_May_22_1252	s	s	12	5	SIC	144	ABS	2	0	02VD 02VO 10VC 02MD 02MO 02MC 02RD 02RO	0	1	1.46536397934	None	None	None	None	1
2.7	2015_May_22_1252	s	s	12	5	SIC	145	RC	2	2	09VD 02VO 02VC 02MD 02MO 02MC 02RD 02RO	1	0	0.947822809219	-402.0	325.0	-398	333	1
2.7	2015_May_22_1252	s	s	12	5	SIC	146	ABS	0	2	02VD 02VO 02VC 02MD 02MO 02MC 10RD 02RO	0	1	1.1006360054	None	None	None	None	1
2.7	2015_May_22_1252	s	s	12	5	SIC	147	RC	2	1	02VD 09VO 02VC 02MD 02MO 02MC 02RD 02RO	1	0	0.646811008453	200.0	-172.0	202	-172	1
2.7	2015_May_22_1252	s	s	12	5	SIC	148	ABS	2	0	02VD 02VO 10VC 02MD 02MO 02MC 02RD 02RO	0	1	1.40005612373	None	None	None	None	1
2.7	2015_May_22_1252	s	s	12	5	SIC	149	RC	1	0	02VD 02VO 02VC 02MD 02MO 09MC 02RD 02RO	1	0	0.721096992493	345.0	131.0	353	135	1
2.7	2015_May_22_1252	s	s	12	5	SIC	150	ABS	1	2	02VD 02VO 02VC 10MD 02MO 02MC 02RD 02RO	0	1	1.77676701546	None	None	None	None	1
2.7	2015_May_22_1252	s	s	12	5	SIC	151	ABS	2	2	10VD 02VO 02VC 02MD 02MO 02MC 02RD 02RO	0	1	1.38324809074	None	None	None	None	1
2.7	2015_May_22_1252	s	s	12	5	SIC	152	ABS	0	1	02VD 02VO 02VC 02MD 02MO 02MC 02RD 10RO	0	1	2.21908307076	None	None	None	None	1
2.7	2015_May_22_1252	s	s	12	5	SIC	153	RC	0	1	02VD 02VO 02VC 02MD 02MO 02MC 02RD 09RO	1	0	2.08277487755	530.0	-283.0	539	-282	1
2.7	2015_May_22_1252	s	s	12	5	SIC	154	RC	2	0	02VD 02VO 09VC 02MD 02MO 02MC 02RD 02RO	1	0	0.772827863693	49.0	127.0	46	122	1
2.7	2015_May_22_1252	s	s	12	5	SIC	155	ABS	2	1	02VD 10VO 02VC 02MD 02MO 02MC 02RD 02RO	0	1	1.23520493507	None	None	None	None	1
2.7	2015_May_22_1252	s	s	12	5	SIC	156	RC	0	2	02VD 02VO 02VC 02MD 02MO 02MC 09RD 02RO	1	0	1.61195588112	-455.0	-36.0	-442	-33	1
2.7	2015_May_22_1252	s	s	12	5	SIC	157	RC	1	2	02VD 02VO 02VC 09MD 02MO 02MC 02RD 02RO	1	0	0.693726062775	140.0	153.0	143	156	1
2.7	2015_May_22_1252	s	s	12	5	SIC	158	ABS	1	1	02VD 02VO 02VC 02MD 10MO 02MC 02RD 02RO	0	1	1.53632283211	None	None	None	None	1
2.7	2015_May_22_1252	s	s	12	5	SIC	159	RC	1	1	02VD 02VO 02VC 02MD 09MO 02MC 02RD 02RO	1	0	0.7761490345	289.0	-223.0	284	-219	1
2.7	2015_May_22_1252	s	s	12	5	SIC	160	ABS	1	0	02VD 02VO 02VC 02MD 02MO 10MC 02RD 02RO	0	1	1.69435882568	None	None	None	None	1
2.7	2015_May_22_1252	s	s	12	5	SIC	161	ABS	2	2	10VD 02VO 02VC 02MD 02MO 02MC 02RD 02RO	0	1	1.14111614227	None	None	None	None	1
2.7	2015_May_22_1252	s	s	12	5	SIC	162	RC	1	1	02VD 02VO 02VC 02MD 09MO 02MC 02RD 02RO	1	0	1.24314188957	249.0	358.0	248	350	1
2.7	2015_May_22_1252	s	s	12	5	SIC	163	ABS	0	1	02VD 02VO 02VC 02MD 02MO 02MC 02RD 10RO	0	1	2.41237401962	None	None	None	None	1
2.7	2015_May_22_1252	s	s	12	5	SIC	164	RC	0	1	02VD 02VO 02VC 02MD 02MO 02MC 02RD 09RO	1	0	0.806758165359	-134.0	49.0	-131	50	1
2.7	2015_May_22_1252	s	s	12	5	SIC	165	ABS	1	2	02VD 02VO 02VC 10MD 02MO 02MC 02RD 02RO	0	1	1.68939399719	None	None	None	None	1
2.7	2015_May_22_1252	s	s	12	5	SIC	166	ABS	1	0	02VD 02VO 02VC 02MD 02MO 10MC 02RD 02RO	0	1	1.76514220238	None	None	None	None	1
2.7	2015_May_22_1252	s	s	12	5	SIC	167	ABS	2	0	02VD 02VO 10VC 02MD 02MO 02MC 02RD 02RO	0	1	1.61182904243	None	None	None	None	1
2.7	2015_May_22_1252	s	s	12	5	SIC	168	ABS	1	1	02VD 02VO 02VC 02MD 10MO 02MC 02RD 02RO	0	1	1.45361495018	None	None	None	None	1
2.7	2015_May_22_1252	s	s	12	5	SIC	169	RC	1	0	02VD 02VO 02VC 02MD 02MO 09MC 02RD 02RO	1	0	1.74782991409	-224.0	191.0	-224	200	1
2.7	2015_May_22_1252	s	s	12	5	SIC	170	RC	0	2	02VD 02VO 02VC 02MD 02MO 02MC 09RD 02RO	1	0	0.858530044556	174.0	291.0	177	290	1
2.7	2015_May_22_1252	s	s	12	5	SIC	171	RC	2	1	02VD 09VO 02VC 02MD 02MO 02MC 02RD 02RO	1	0	0.717368125916	200.0	239.0	195	239	1
2.7	2015_May_22_1252	s	s	12	5	SIC	172	RC	1	2	02VD 02VO 02VC 09MD 02MO 02MC 02RD 02RO	1	0	0.665544986725	470.0	194.0	463	192	1
2.7	2015_May_22_1252	s	s	12	5	SIC	173	RC	2	2	09VD 02VO 02VC 02MD 02MO 02MC 02RD 02RO	1	0	1.13747596741	512.0	-195.0	522	-191	1
2.7	2015_May_22_1252	s	s	12	5	SIC	174	ABS	0	2	02VD 02VO 02VC 02MD 02MO 02MC 10RD 02RO	0	1	1.33683204651	None	None	None	None	1
2.7	2015_May_22_1252	s	s	12	5	SIC	175	RC	2	0	02VD 02VO 09VC 02MD 02MO 02MC 02RD 02RO	1	0	0.832417011261	-121.0	372.0	-117	368	1
2.7	2015_May_22_1252	s	s	12	5	SIC	176	ABS	2	1	02VD 10VO 02VC 02MD 02MO 02MC 02RD 02RO	0	1	1.32591700554	None	None	None	None	1
2.7	2015_May_22_1252	s	s	12	5	SIC	177	ABS	2	1	02VD 10VO 02VC 02MD 02MO 02MC 02RD 02RO	0	1	1.25375795364	None	None	None	None	1
2.7	2015_May_22_1252	s	s	12	5	SIC	178	RC	2	1	02VD 09VO 02VC 02MD 02MO 02MC 02RD 02RO	1	0	1.13692116737	391.0	355.0	390	355	1
2.7	2015_May_22_1252	s	s	12	5	SIC	179	ABS	1	2	02VD 02VO 02VC 10MD 02MO 02MC 02RD 02RO	0	1	1.27063393593	None	None	None	None	1
2.7	2015_May_22_1252	s	s	12	5	SIC	180	RC	1	2	02VD 02VO 02VC 09MD 02MO 02MC 02RD 02RO	1	0	1.05873799324	-191.0	322.0	-182	321	1
2.7	2015_May_22_1252	s	s	12	5	SIC	181	ABS	1	0	02VD 02VO 02VC 02MD 02MO 10MC 02RD 02RO	0	1	1.66575217247	None	None	None	None	1
2.7	2015_May_22_1252	s	s	12	5	SIC	182	RC	0	1	02VD 02VO 02VC 02MD 02MO 02MC 02RD 09RO	1	0	0.749324083328	-205.0	-205.0	-204	-211	1
2.7	2015_May_22_1252	s	s	12	5	SIC	183	ABS	0	2	02VD 02VO 02VC 02MD 02MO 02MC 10RD 02RO	0	1	1.60695409775	None	None	None	None	1
2.7	2015_May_22_1252	s	s	12	5	SIC	184	RC	2	2	09VD 02VO 02VC 02MD 02MO 02MC 02RD 02RO	1	0	1.17257499695	288.0	-412.0	292	-414	1
2.7	2015_May_22_1252	s	s	12	5	SIC	185	RC	1	1	02VD 02VO 02VC 02MD 09MO 02MC 02RD 02RO	1	0	1.24219989777	512.0	-95.0	511	-103	1
2.7	2015_May_22_1252	s	s	12	5	SIC	186	ABS	2	0	02VD 02VO 10VC 02MD 02MO 02MC 02RD 02RO	0	1	1.36476588249	None	None	None	None	1
2.7	2015_May_22_1252	s	s	12	5	SIC	187	RC	0	2	02VD 02VO 02VC 02MD 02MO 02MC 09RD 02RO	1	0	0.973008871078	29.0	327.0	35	330	1
2.7	2015_May_22_1252	s	s	12	5	SIC	188	RC	1	0	02VD 02VO 02VC 02MD 02MO 09MC 02RD 02RO	1	0	0.658635854721	195.0	197.0	188	201	1
2.7	2015_May_22_1252	s	s	12	5	SIC	189	ABS	1	1	02VD 02VO 02VC 02MD 10MO 02MC 02RD 02RO	0	1	1.47722411156	None	None	None	None	1
2.7	2015_May_22_1252	s	s	12	5	SIC	190	RC	2	0	02VD 02VO 09VC 02MD 02MO 02MC 02RD 02RO	1	0	0.941015958786	47.0	-245.0	44	-251	1
2.7	2015_May_22_1252	s	s	12	5	SIC	191	ABS	0	1	02VD 02VO 02VC 02MD 02MO 02MC 02RD 10RO	0	1	2.31836605072	None	None	None	None	1
2.7	2015_May_22_1252	s	s	12	5	SIC	192	ABS	2	2	10VD 02VO 02VC 02MD 02MO 02MC 02RD 02RO	0	1	1.52388191223	None	None	None	None	1
2.7	2015_May_22_1252	s	s	12	5	SIC	193	ABS	1	2	02VD 02VO 02VC 10MD 02MO 02MC 02RD 02RO	0	1	1.51475596428	None	None	None	None	1
2.7	2015_May_22_1252	s	s	12	5	SIC	194	ABS	2	1	02VD 10VO 02VC 02MD 02MO 02MC 02RD 02RO	0	1	1.33765506744	None	None	None	None	1
2.7	2015_May_22_1252	s	s	12	5	SIC	195	RC	2	2	09VD 02VO 02VC 02MD 02MO 02MC 02RD 02RO	1	0	0.929595947266	43.0	268.0	44	266	1
2.7	2015_May_22_1252	s	s	12	5	SIC	196	RC	1	0	02VD 02VO 02VC 02MD 02MO 09MC 02RD 02RO	1	0	1.22356009483	-92.0	386.0	-91	391	1
2.7	2015_May_22_1252	s	s	12	5	SIC	197	ABS	2	2	10VD 02VO 02VC 02MD 02MO 02MC 02RD 02RO	0	1	2.015802145	None	None	None	None	1
2.7	2015_May_22_1252	s	s	12	5	SIC	198	RC	1	2	02VD 02VO 02VC 09MD 02MO 02MC 02RD 02RO	1	0	1.3834528923	-437.0	298.0	-444	296	1
2.7	2015_May_22_1252	s	s	12	5	SIC	199	ABS	0	2	02VD 02VO 02VC 02MD 02MO 02MC 10RD 02RO	0	1	2.18368601799	None	None	None	None	1
2.7	2015_May_22_1252	s	s	12	5	SIC	200	ABS	2	0	02VD 02VO 10VC 02MD 02MO 02MC 02RD 02RO	0	1	1.17641782761	None	None	None	None	1
2.7	2015_May_22_1252	s	s	12	5	SIC	201	ABS	1	0	02VD 02VO 02VC 02MD 02MO 10MC 02RD 02RO	0	1	1.52441692352	None	None	None	None	1
2.7	2015_May_22_1252	s	s	12	5	SIC	202	ABS	1	1	02VD 02VO 02VC 02MD 10MO 02MC 02RD 02RO	0	1	1.51443791389	None	None	None	None	1
2.7	2015_May_22_1252	s	s	12	5	SIC	203	RC	2	1	02VD 09VO 02VC 02MD 02MO 02MC 02RD 02RO	1	0	1.25322389603	-539.0	408.0	-539	402	1
2.7	2015_May_22_1252	s	s	12	5	SIC	204	ABS	0	1	02VD 02VO 02VC 02MD 02MO 02MC 02RD 10RO	0	1	2.90671610832	None	None	None	None	1
2.7	2015_May_22_1252	s	s	12	5	SIC	205	RC	1	1	02VD 02VO 02VC 02MD 09MO 02MC 02RD 02RO	1	0	0.665131092072	-170.0	-121.0	-161	-122	1
2.7	2015_May_22_1252	s	s	12	5	SIC	206	RC	0	1	02VD 02VO 02VC 02MD 02MO 02MC 02RD 09RO	1	0	1.11227989197	-238.0	-257.0	-237	-266	1
2.7	2015_May_22_1252	s	s	12	5	SIC	207	RC	2	0	02VD 02VO 09VC 02MD 02MO 02MC 02RD 02RO	1	0	0.728996992111	455.0	68.0	461	65	1
2.7	2015_May_22_1252	s	s	12	5	SIC	208	RC	0	2	02VD 02VO 02VC 02MD 02MO 02MC 09RD 02RO	1	0	0.560527086258	-325.0	9.0	-316	9	1
2.7	2015_May_22_1252	s	s	12	5	SIC	209	RC	0	1	02VD 02VO 02VC 02MD 02MO 02MC 02RD 09RO	1	0	1.55311799049	-270.0	-286.0	-269	-282	1
2.7	2015_May_22_1252	s	s	12	5	SIC	210	ABS	2	0	02VD 02VO 10VC 02MD 02MO 02MC 02RD 02RO	0	1	1.44715881348	None	None	None	None	1
2.7	2015_May_22_1252	s	s	12	5	SIC	211	RC	1	0	02VD 02VO 02VC 02MD 02MO 09MC 02RD 02RO	1	0	0.917458057404	188.0	278.0	188	280	1
2.7	2015_May_22_1252	s	s	12	5	SIC	212	ABS	1	1	02VD 02VO 02VC 02MD 10MO 02MC 02RD 02RO	0	1	1.98315882683	None	None	None	None	1
2.7	2015_May_22_1252	s	s	12	5	SIC	213	RC	2	0	02VD 02VO 09VC 02MD 02MO 02MC 02RD 02RO	1	0	0.658503055573	120.0	232.0	118	231	1
2.7	2015_May_22_1252	s	s	12	5	SIC	214	RC	0	2	02VD 02VO 02VC 02MD 02MO 02MC 09RD 02RO	1	0	0.490186929703	-37.0	47.0	-30	45	1
2.7	2015_May_22_1252	s	s	12	5	SIC	215	RC	2	1	02VD 09VO 02VC 02MD 02MO 02MC 02RD 02RO	1	0	0.787991046906	480.0	-92.0	484	-94	1
2.7	2015_May_22_1252	s	s	12	5	SIC	216	RC	1	1	02VD 02VO 02VC 02MD 09MO 02MC 02RD 02RO	1	0	0.619868993759	111.0	211.0	120	207	1
2.7	2015_May_22_1252	s	s	12	5	SIC	217	RC	1	2	02VD 02VO 02VC 09MD 02MO 02MC 02RD 02RO	1	0	0.481944084167	42.0	168.0	46	168	1
2.7	2015_May_22_1252	s	s	12	5	SIC	218	ABS	0	2	02VD 02VO 02VC 02MD 02MO 02MC 10RD 02RO	0	1	1.84048104286	None	None	None	None	1
2.7	2015_May_22_1252	s	s	12	5	SIC	219	ABS	1	0	02VD 02VO 02VC 02MD 02MO 10MC 02RD 02RO	0	1	2.22401809692	None	None	None	None	1
2.7	2015_May_22_1252	s	s	12	5	SIC	220	RC	2	2	09VD 02VO 02VC 02MD 02MO 02MC 02RD 02RO	1	0	0.582843065262	227.0	33.0	230	30	1
2.7	2015_May_22_1252	s	s	12	5	SIC	221	ABS	0	1	02VD 02VO 02VC 02MD 02MO 02MC 02RD 10RO	0	1	3.40109109879	None	None	None	None	1
2.7	2015_May_22_1252	s	s	12	5	SIC	222	ABS	1	2	02VD 02VO 02VC 10MD 02MO 02MC 02RD 02RO	0	1	1.33623290062	None	None	None	None	1
2.7	2015_May_22_1252	s	s	12	5	SIC	223	ABS	2	1	02VD 10VO 02VC 02MD 02MO 02MC 02RD 02RO	0	1	1.0469648838	None	None	None	None	1
2.7	2015_May_22_1252	s	s	12	5	SIC	224	ABS	2	2	10VD 02VO 02VC 02MD 02MO 02MC 02RD 02RO	0	1	1.34123897552	None	None	None	None	1
2.7	2015_May_22_1252	s	s	12	5	SIC	225	RC	2	1	02VD 09VO 02VC 02MD 02MO 02MC 02RD 02RO	1	0	0.56422495842	-2.0	-80.0	13	-73	1
2.7	2015_May_22_1252	s	s	12	5	SIC	226	ABS	2	1	02VD 10VO 02VC 02MD 02MO 02MC 02RD 02RO	0	1	1.49424004555	None	None	None	None	1
2.7	2015_May_22_1252	s	s	12	5	SIC	227	ABS	1	2	02VD 02VO 02VC 10MD 02MO 02MC 02RD 02RO	0	1	1.55311799049	None	None	None	None	1
2.7	2015_May_22_1252	s	s	12	5	SIC	228	ABS	0	1	02VD 02VO 02VC 02MD 02MO 02MC 02RD 10RO	0	1	2.36523008347	None	None	None	None	1
2.7	2015_May_22_1252	s	s	12	5	SIC	229	ABS	1	1	02VD 02VO 02VC 02MD 10MO 02MC 02RD 02RO	0	1	1.8564760685	None	None	None	None	1
2.7	2015_May_22_1252	s	s	12	5	SIC	230	RC	1	1	02VD 02VO 02VC 02MD 09MO 02MC 02RD 02RO	1	0	0.722998142242	-243.0	-162.0	-241	-159	1
2.7	2015_May_22_1252	s	s	12	5	SIC	231	RC	2	2	09VD 02VO 02VC 02MD 02MO 02MC 02RD 02RO	1	0	0.994696140289	-416.0	0.0	-420	-4	1
2.7	2015_May_22_1252	s	s	12	5	SIC	232	RC	1	2	02VD 02VO 02VC 09MD 02MO 02MC 02RD 02RO	1	0	0.807018995285	430.0	-186.0	438	-187	1
2.7	2015_May_22_1252	s	s	12	5	SIC	233	RC	0	2	02VD 02VO 02VC 02MD 02MO 02MC 09RD 02RO	1	0	1.42343115807	372.0	-381.0	369	-386	1
2.7	2015_May_22_1252	s	s	12	5	SIC	234	ABS	0	2	02VD 02VO 02VC 02MD 02MO 02MC 10RD 02RO	0	1	1.31272912025	None	None	None	None	1
2.7	2015_May_22_1252	s	s	12	5	SIC	235	RC	2	0	02VD 02VO 09VC 02MD 02MO 02MC 02RD 02RO	1	0	0.729114055634	134.0	-324.0	131	-328	1
2.7	2015_May_22_1252	s	s	12	5	SIC	236	ABS	1	0	02VD 02VO 02VC 02MD 02MO 10MC 02RD 02RO	0	1	1.59776496887	None	None	None	None	1
2.7	2015_May_22_1252	s	s	12	5	SIC	237	RC	0	1	02VD 02VO 02VC 02MD 02MO 02MC 02RD 09RO	1	0	1.08912611008	189.0	41.0	198	37	1
2.7	2015_May_22_1252	s	s	12	5	SIC	238	ABS	2	0	02VD 02VO 10VC 02MD 02MO 02MC 02RD 02RO	0	1	1.40675091743	None	None	None	None	1
2.7	2015_May_22_1252	s	s	12	5	SIC	239	RC	1	0	02VD 02VO 02VC 02MD 02MO 09MC 02RD 02RO	1	0	1.21176409721	523.0	-75.0	523	-79	1
2.7	2015_May_22_1252	s	s	12	5	SIC	240	ABS	2	2	10VD 02VO 02VC 02MD 02MO 02MC 02RD 02RO	0	1	1.71288204193	None	None	None	None	1
2.7	2015_May_22_1252	s	s	12	5	SIC	241	RC	2	0	02VD 02VO 09VC 02MD 02MO 02MC 02RD 02RO	1	0	0.917392969131	367.0	322.0	374	331	1
2.7	2015_May_22_1252	s	s	12	5	SIC	242	ABS	2	2	10VD 02VO 02VC 02MD 02MO 02MC 02RD 02RO	1	0	0.634922981262	None	None	-6	259	0
2.7	2015_May_22_1252	s	s	12	5	SIC	243	RC	1	0	02VD 02VO 02VC 02MD 02MO 09MC 02RD 02RO	1	0	1.90611290932	-457.0	56.0	-451	54	1
2.7	2015_May_22_1252	s	s	12	5	SIC	244	RC	2	1	02VD 09VO 02VC 02MD 02MO 02MC 02RD 02RO	1	0	1.44144797325	189.0	154.0	181	151	1
2.7	2015_May_22_1252	s	s	12	5	SIC	245	RC	0	2	02VD 02VO 02VC 02MD 02MO 02MC 09RD 02RO	1	0	0.488906860352	-208.0	-133.0	-210	-140	1
2.7	2015_May_22_1252	s	s	12	5	SIC	246	RC	1	1	02VD 02VO 02VC 02MD 09MO 02MC 02RD 02RO	1	0	1.07053589821	-347.0	187.0	-348	194	1
2.7	2015_May_22_1252	s	s	12	5	SIC	247	ABS	1	2	02VD 02VO 02VC 10MD 02MO 02MC 02RD 02RO	0	1	1.15288805962	None	None	None	None	1
2.7	2015_May_22_1252	s	s	12	5	SIC	248	ABS	2	1	02VD 10VO 02VC 02MD 02MO 02MC 02RD 02RO	0	1	2.0300090313	None	None	None	None	1
2.7	2015_May_22_1252	s	s	12	5	SIC	249	ABS	2	0	02VD 02VO 10VC 02MD 02MO 02MC 02RD 02RO	0	1	1.35004210472	None	None	None	None	1
2.7	2015_May_22_1252	s	s	12	5	SIC	250	RC	2	2	09VD 02VO 02VC 02MD 02MO 02MC 02RD 02RO	1	0	1.07053208351	-250.0	388.0	-260	389	1
2.7	2015_May_22_1252	s	s	12	5	SIC	251	ABS	1	0	02VD 02VO 02VC 02MD 02MO 10MC 02RD 02RO	0	1	2.24742889404	None	None	None	None	1
2.7	2015_May_22_1252	s	s	12	5	SIC	252	ABS	1	1	02VD 02VO 02VC 02MD 10MO 02MC 02RD 02RO	0	1	1.3883190155	None	None	None	None	1
2.7	2015_May_22_1252	s	s	12	5	SIC	253	RC	0	1	02VD 02VO 02VC 02MD 02MO 02MC 02RD 09RO	1	0	0.595949172974	-225.0	-99.0	-228	-102	1
2.7	2015_May_22_1252	s	s	12	5	SIC	254	RC	1	2	02VD 02VO 02VC 09MD 02MO 02MC 02RD 02RO	1	0	0.618180036545	114.0	189.0	114	188	1
2.7	2015_May_22_1252	s	s	12	5	SIC	255	ABS	0	1	02VD 02VO 02VC 02MD 02MO 02MC 02RD 10RO	0	1	3.01981687546	None	None	None	None	1
2.7	2015_May_22_1252	s	s	12	5	SIC	256	ABS	0	2	02VD 02VO 02VC 02MD 02MO 02MC 10RD 02RO	0	1	1.50101208687	None	None	None	None	1
2.7	2015_May_22_1252	s	s	12	5	SIC	257	ABS	2	0	02VD 02VO 10VC 02MD 02MO 02MC 02RD 02RO	0	1	1.18323397636	None	None	None	None	1
2.7	2015_May_22_1252	s	s	12	5	SIC	258	ABS	0	1	02VD 02VO 02VC 02MD 02MO 02MC 02RD 10RO	0	1	2.38880991936	None	None	None	None	1
2.7	2015_May_22_1252	s	s	12	5	SIC	259	RC	2	1	02VD 09VO 02VC 02MD 02MO 02MC 02RD 02RO	1	0	0.729067087173	501.0	53.0	506	45	1
2.7	2015_May_22_1252	s	s	12	5	SIC	260	RC	0	1	02VD 02VO 02VC 02MD 02MO 02MC 02RD 09RO	1	0	0.917483091354	-26.0	102.0	-22	97	1
2.7	2015_May_22_1252	s	s	12	5	SIC	261	RC	0	2	02VD 02VO 02VC 02MD 02MO 02MC 09RD 02RO	1	0	0.870353937149	-226.0	-220.0	-228	-225	1
2.7	2015_May_22_1252	s	s	12	5	SIC	262	ABS	2	1	02VD 10VO 02VC 02MD 02MO 02MC 02RD 02RO	0	1	1.5717818737	None	None	None	None	1
2.7	2015_May_22_1252	s	s	12	5	SIC	263	ABS	1	2	02VD 02VO 02VC 10MD 02MO 02MC 02RD 02RO	0	1	1.53796601295	None	None	None	None	1
2.7	2015_May_22_1252	s	s	12	5	SIC	264	ABS	1	0	02VD 02VO 02VC 02MD 02MO 10MC 02RD 02RO	0	1	2.2910759449	None	None	None	None	1
2.7	2015_May_22_1252	s	s	12	5	SIC	265	RC	2	0	02VD 02VO 09VC 02MD 02MO 02MC 02RD 02RO	1	0	1.1012070179	74.0	-410.0	70	-415	1
2.7	2015_May_22_1252	s	s	12	5	SIC	266	RC	1	1	02VD 02VO 02VC 02MD 09MO 02MC 02RD 02RO	1	0	1.0907959938	516.0	-223.0	516	-222	1
2.7	2015_May_22_1252	s	s	12	5	SIC	267	ABS	1	1	02VD 02VO 02VC 02MD 10MO 02MC 02RD 02RO	0	1	0.623253107071	None	None	None	None	1
2.7	2015_May_22_1252	s	s	12	5	SIC	268	RC	1	2	02VD 02VO 02VC 09MD 02MO 02MC 02RD 02RO	1	0	0.441740989685	-9.0	-10.0	-6	-6	1
2.7	2015_May_22_1252	s	s	12	5	SIC	269	ABS	2	2	10VD 02VO 02VC 02MD 02MO 02MC 02RD 02RO	0	1	1.37651801109	None	None	None	None	1
2.7	2015_May_22_1252	s	s	12	5	SIC	270	ABS	0	2	02VD 02VO 02VC 02MD 02MO 02MC 10RD 02RO	0	1	1.39510297775	None	None	None	None	1
2.7	2015_May_22_1252	s	s	12	5	SIC	271	RC	2	2	09VD 02VO 02VC 02MD 02MO 02MC 02RD 02RO	1	0	1.16017007828	-361.0	337.0	-361	328	1
2.7	2015_May_22_1252	s	s	12	5	SIC	272	RC	1	0	02VD 02VO 02VC 02MD 02MO 09MC 02RD 02RO	1	0	0.858659982681	-371.0	219.0	-372	223	1
2.7	2015_May_22_1252	s	s	12	5	SIC	273	ABS	1	1	02VD 02VO 02VC 02MD 10MO 02MC 02RD 02RO	0	1	2.01583385468	None	None	None	None	1
2.7	2015_May_22_1252	s	s	12	5	SIC	274	ABS	2	1	02VD 10VO 02VC 02MD 02MO 02MC 02RD 02RO	0	1	1.38829612732	None	None	None	None	1
2.7	2015_May_22_1252	s	s	12	5	SIC	275	ABS	0	2	02VD 02VO 02VC 02MD 02MO 02MC 10RD 02RO	0	1	1.28227686882	None	None	None	None	1
2.7	2015_May_22_1252	s	s	12	5	SIC	276	RC	0	1	02VD 02VO 02VC 02MD 02MO 02MC 02RD 09RO	1	0	1.09404611588	-145.0	249.0	-146	231	1
2.7	2015_May_22_1252	s	s	12	5	SIC	277	ABS	1	0	02VD 02VO 02VC 02MD 02MO 10MC 02RD 02RO	0	1	1.77410984039	None	None	None	None	1
2.7	2015_May_22_1252	s	s	12	5	SIC	278	RC	0	2	02VD 02VO 02VC 02MD 02MO 02MC 09RD 02RO	1	0	0.91747879982	-277.0	111.0	-267	112	1
2.7	2015_May_22_1252	s	s	12	5	SIC	279	ABS	2	0	02VD 02VO 10VC 02MD 02MO 02MC 02RD 02RO	0	1	1.53782582283	None	None	None	None	1
2.7	2015_May_22_1252	s	s	12	5	SIC	280	RC	2	0	02VD 02VO 09VC 02MD 02MO 02MC 02RD 02RO	1	0	0.711796998978	-322.0	-33.0	-317	-28	1
2.7	2015_May_22_1252	s	s	12	5	SIC	281	ABS	0	1	02VD 02VO 02VC 02MD 02MO 02MC 02RD 10RO	0	1	2.57250094414	None	None	None	None	1
2.7	2015_May_22_1252	s	s	12	5	SIC	282	RC	1	2	02VD 02VO 02VC 09MD 02MO 02MC 02RD 02RO	1	0	1.28912997246	-523.0	146.0	-521	145	1
2.7	2015_May_22_1252	s	s	12	5	SIC	283	RC	1	1	02VD 02VO 02VC 02MD 09MO 02MC 02RD 02RO	1	0	0.670232057571	-17.0	191.0	-17	188	1
2.7	2015_May_22_1252	s	s	12	5	SIC	284	RC	2	2	09VD 02VO 02VC 02MD 02MO 02MC 02RD 02RO	1	0	0.606574058533	-322.0	-143.0	-321	-139	1
2.7	2015_May_22_1252	s	s	12	5	SIC	285	ABS	2	2	10VD 02VO 02VC 02MD 02MO 02MC 02RD 02RO	0	1	1.65912699699	None	None	None	None	1
2.7	2015_May_22_1252	s	s	12	5	SIC	286	RC	1	0	02VD 02VO 02VC 02MD 02MO 09MC 02RD 02RO	1	0	0.587958097458	88.0	-126.0	90	-117	1
2.7	2015_May_22_1252	s	s	12	5	SIC	287	ABS	1	2	02VD 02VO 02VC 10MD 02MO 02MC 02RD 02RO	0	1	1.51775598526	None	None	None	None	1
2.7	2015_May_22_1252	s	s	12	5	SIC	288	RC	2	1	02VD 09VO 02VC 02MD 02MO 02MC 02RD 02RO	1	0	0.594914913177	-175.0	179.0	-184	184	1
2.7	2015_May_22_1252	s	s	12	5	SIC	289	ABS	2	2	10VD 02VO 02VC 02MD 02MO 02MC 02RD 02RO	0	1	1.48248004913	None	None	None	None	1
2.7	2015_May_22_1252	s	s	12	5	SIC	290	ABS	1	1	02VD 02VO 02VC 02MD 10MO 02MC 02RD 02RO	0	1	1.65652608871	None	None	None	None	1
2.7	2015_May_22_1252	s	s	12	5	SIC	291	RC	2	2	09VD 02VO 02VC 02MD 02MO 02MC 02RD 02RO	1	0	0.65132689476	-212.0	-167.0	-205	-166	1
2.7	2015_May_22_1252	s	s	12	5	SIC	292	ABS	1	0	02VD 02VO 02VC 02MD 02MO 10MC 02RD 02RO	0	1	2.08951807022	None	None	None	None	1
2.7	2015_May_22_1252	s	s	12	5	SIC	293	RC	0	2	02VD 02VO 02VC 02MD 02MO 02MC 09RD 02RO	1	0	1.14109396935	537.0	-381.0	545	-384	1
2.7	2015_May_22_1252	s	s	12	5	SIC	294	RC	2	0	02VD 02VO 09VC 02MD 02MO 02MC 02RD 02RO	1	0	0.705606222153	160.0	-43.0	165	-49	1
2.7	2015_May_22_1252	s	s	12	5	SIC	295	RC	1	2	02VD 02VO 02VC 09MD 02MO 02MC 02RD 02RO	0	1	1.3479309082	372.0	-261.0	None	None	0
2.7	2015_May_22_1252	s	s	12	5	SIC	296	RC	2	1	02VD 09VO 02VC 02MD 02MO 02MC 02RD 02RO	1	0	0.505516052246	-16.0	24.0	-12	27	1
2.7	2015_May_22_1252	s	s	12	5	SIC	297	ABS	1	2	02VD 02VO 02VC 10MD 02MO 02MC 02RD 02RO	0	1	1.40544509888	None	None	None	None	1
2.7	2015_May_22_1252	s	s	12	5	SIC	298	ABS	2	0	02VD 02VO 10VC 02MD 02MO 02MC 02RD 02RO	0	1	1.68267297745	None	None	None	None	1
2.7	2015_May_22_1252	s	s	12	5	SIC	299	RC	1	0	02VD 02VO 02VC 02MD 02MO 09MC 02RD 02RO	1	0	0.830051898956	229.0	56.0	229	49	1
2.7	2015_May_22_1252	s	s	12	5	SIC	300	ABS	0	2	02VD 02VO 02VC 02MD 02MO 02MC 10RD 02RO	0	1	2.08951497078	None	None	None	None	1
2.7	2015_May_22_1252	s	s	12	5	SIC	301	ABS	0	1	02VD 02VO 02VC 02MD 02MO 02MC 02RD 10RO	0	1	2.60726904869	None	None	None	None	1
2.7	2015_May_22_1252	s	s	12	5	SIC	302	RC	1	1	02VD 02VO 02VC 02MD 09MO 02MC 02RD 02RO	1	0	1.87086200714	-7.0	331.0	-8	335	1
2.7	2015_May_22_1252	s	s	12	5	SIC	303	RC	0	1	02VD 02VO 02VC 02MD 02MO 02MC 02RD 09RO	1	0	1.56482315063	153.0	206.0	154	211	1
2.7	2015_May_22_1252	s	s	12	5	SIC	304	ABS	2	1	02VD 10VO 02VC 02MD 02MO 02MC 02RD 02RO	0	1	1.38835096359	None	None	None	None	1
2.7	2015_May_22_1252	s	s	12	5	SIC	305	ABS	1	0	02VD 02VO 02VC 02MD 02MO 10MC 02RD 02RO	0	1	1.92579603195	None	None	None	None	1
2.7	2015_May_22_1252	s	s	12	5	SIC	306	RC	0	2	02VD 02VO 02VC 02MD 02MO 02MC 09RD 02RO	1	0	0.858462095261	262.0	232.0	263	228	1
2.7	2015_May_22_1252	s	s	12	5	SIC	307	ABS	1	1	02VD 02VO 02VC 02MD 10MO 02MC 02RD 02RO	0	1	1.58350396156	None	None	None	None	1
2.7	2015_May_22_1252	s	s	12	5	SIC	308	RC	1	1	02VD 02VO 02VC 02MD 09MO 02MC 02RD 02RO	1	0	1.44511389732	189.0	364.0	189	364	1
2.7	2015_May_22_1252	s	s	12	5	SIC	309	ABS	2	0	02VD 02VO 10VC 02MD 02MO 02MC 02RD 02RO	0	1	1.28229904175	None	None	None	None	1
2.7	2015_May_22_1252	s	s	12	5	SIC	310	RC	1	2	02VD 02VO 02VC 09MD 02MO 02MC 02RD 02RO	1	0	0.735898971558	-213.0	-129.0	-216	-137	1
2.7	2015_May_22_1252	s	s	12	5	SIC	311	ABS	1	2	02VD 02VO 02VC 10MD 02MO 02MC 02RD 02RO	0	1	1.37154483795	None	None	None	None	1
2.7	2015_May_22_1252	s	s	12	5	SIC	312	RC	0	1	02VD 02VO 02VC 02MD 02MO 02MC 02RD 09RO	1	0	0.78801202774	-374.0	-195.0	-373	-191	1
2.7	2015_May_22_1252	s	s	12	5	SIC	313	ABS	0	2	02VD 02VO 02VC 02MD 02MO 02MC 10RD 02RO	0	1	1.00780797005	None	None	None	None	1
2.7	2015_May_22_1252	s	s	12	5	SIC	314	RC	2	0	02VD 02VO 09VC 02MD 02MO 02MC 02RD 02RO	1	0	0.760071992874	183.0	90.0	183	97	1
2.7	2015_May_22_1252	s	s	12	5	SIC	315	ABS	2	1	02VD 10VO 02VC 02MD 02MO 02MC 02RD 02RO	0	1	1.38303494453	None	None	None	None	1
2.7	2015_May_22_1252	s	s	12	5	SIC	316	RC	1	0	02VD 02VO 02VC 02MD 02MO 09MC 02RD 02RO	1	0	0.799785137177	34.0	-252.0	40	-247	1
2.7	2015_May_22_1252	s	s	12	5	SIC	317	RC	2	2	09VD 02VO 02VC 02MD 02MO 02MC 02RD 02RO	1	0	0.799773931503	209.0	-270.0	208	-267	1
2.7	2015_May_22_1252	s	s	12	5	SIC	318	RC	2	1	02VD 09VO 02VC 02MD 02MO 02MC 02RD 02RO	1	0	0.547275066376	-11.0	-309.0	-21	-304	1
2.7	2015_May_22_1252	s	s	12	5	SIC	319	ABS	0	1	02VD 02VO 02VC 02MD 02MO 02MC 02RD 10RO	0	1	3.1891951561	None	None	None	None	1
2.7	2015_May_22_1252	s	s	12	5	SIC	320	ABS	2	2	10VD 02VO 02VC 02MD 02MO 02MC 02RD 02RO	0	1	1.28911805153	None	None	None	None	1
2.7	2015_May_22_1252	s	s	12	5	SIC	321	ABS	1	2	02VD 02VO 02VC 10MD 02MO 02MC 02RD 02RO	0	1	1.78851890564	None	None	None	None	1
2.7	2015_May_22_1252	s	s	12	5	SIC	322	RC	2	2	09VD 02VO 02VC 02MD 02MO 02MC 02RD 02RO	1	0	1.18474006653	-63.0	198.0	-51	200	1
2.7	2015_May_22_1252	s	s	12	5	SIC	323	ABS	2	0	02VD 02VO 10VC 02MD 02MO 02MC 02RD 02RO	0	1	1.48944783211	None	None	None	None	1
2.7	2015_May_22_1252	s	s	12	5	SIC	324	RC	2	0	02VD 02VO 09VC 02MD 02MO 02MC 02RD 02RO	1	0	1.19522190094	-191.0	89.0	-184	87	1
2.7	2015_May_22_1252	s	s	12	5	SIC	325	ABS	1	0	02VD 02VO 02VC 02MD 02MO 10MC 02RD 02RO	0	1	1.70614504814	None	None	None	None	1
2.7	2015_May_22_1252	s	s	12	5	SIC	326	RC	1	1	02VD 02VO 02VC 02MD 09MO 02MC 02RD 02RO	1	0	1.3769068718	-406.0	153.0	-407	152	1
2.7	2015_May_22_1252	s	s	12	5	SIC	327	ABS	2	1	02VD 10VO 02VC 02MD 02MO 02MC 02RD 02RO	0	1	1.55308103561	None	None	None	None	1
2.7	2015_May_22_1252	s	s	12	5	SIC	328	RC	1	2	02VD 02VO 02VC 09MD 02MO 02MC 02RD 02RO	1	0	0.740958929062	354.0	-63.0	350	-70	1
2.7	2015_May_22_1252	s	s	12	5	SIC	329	RC	0	1	02VD 02VO 02VC 02MD 02MO 02MC 02RD 09RO	1	0	0.999850034714	-348.0	-235.0	-342	-230	1
2.7	2015_May_22_1252	s	s	12	5	SIC	330	RC	2	1	02VD 09VO 02VC 02MD 02MO 02MC 02RD 02RO	1	0	0.893802881241	496.0	-252.0	503	-247	1
2.7	2015_May_22_1252	s	s	12	5	SIC	331	ABS	2	2	10VD 02VO 02VC 02MD 02MO 02MC 02RD 02RO	0	1	1.33711194992	None	None	None	None	1
2.7	2015_May_22_1252	s	s	12	5	SIC	332	ABS	1	1	02VD 02VO 02VC 02MD 10MO 02MC 02RD 02RO	0	1	1.54537796974	None	None	None	None	1
2.7	2015_May_22_1252	s	s	12	5	SIC	333	RC	0	2	02VD 02VO 02VC 02MD 02MO 02MC 09RD 02RO	1	0	0.992658853531	304.0	250.0	304	256	1
2.7	2015_May_22_1252	s	s	12	5	SIC	334	RC	1	0	02VD 02VO 02VC 02MD 02MO 09MC 02RD 02RO	1	0	1.37330293655	372.0	51.0	376	54	1
2.7	2015_May_22_1252	s	s	12	5	SIC	335	ABS	0	2	02VD 02VO 02VC 02MD 02MO 02MC 10RD 02RO	0	1	1.28892016411	None	None	None	None	1
2.7	2015_May_22_1252	s	s	12	5	SIC	336	ABS	0	1	02VD 02VO 02VC 02MD 02MO 02MC 02RD 10RO	0	1	2.74194812775	None	None	None	None	1
2.7	2015_May_22_1252	s	s	12	5	SIC	337	ABS	0	1	02VD 02VO 02VC 02MD 02MO 02MC 02RD 10RO	0	1	2.27786898613	None	None	None	None	1
2.7	2015_May_22_1252	s	s	12	5	SIC	338	RC	2	1	02VD 09VO 02VC 02MD 02MO 02MC 02RD 02RO	1	0	0.788006067276	-328.0	9.0	-321	9	1
2.7	2015_May_22_1252	s	s	12	5	SIC	339	ABS	2	1	02VD 10VO 02VC 02MD 02MO 02MC 02RD 02RO	0	1	1.68250703812	None	None	None	None	1
2.7	2015_May_22_1252	s	s	12	5	SIC	340	RC	1	1	02VD 02VO 02VC 02MD 09MO 02MC 02RD 02RO	1	0	0.828946828842	-538.0	-51.0	-543	-46	1
2.7	2015_May_22_1252	s	s	12	5	SIC	341	ABS	2	0	02VD 02VO 10VC 02MD 02MO 02MC 02RD 02RO	0	1	1.38461589813	None	None	None	None	1
2.7	2015_May_22_1252	s	s	12	5	SIC	342	RC	0	2	02VD 02VO 02VC 02MD 02MO 02MC 09RD 02RO	1	0	2.14832615852	-296.0	-281.0	-296	-276	1
2.7	2015_May_22_1252	s	s	12	5	SIC	343	ABS	1	2	02VD 02VO 02VC 10MD 02MO 02MC 02RD 02RO	0	1	1.33614802361	None	None	None	None	1
2.7	2015_May_22_1252	s	s	12	5	SIC	344	ABS	1	1	02VD 02VO 02VC 02MD 10MO 02MC 02RD 02RO	0	1	1.5592250824	None	None	None	None	1
2.7	2015_May_22_1252	s	s	12	5	SIC	345	RC	1	0	02VD 02VO 02VC 02MD 02MO 09MC 02RD 02RO	1	0	1.19994807243	326.0	62.0	331	62	1
2.7	2015_May_22_1252	s	s	12	5	SIC	346	RC	2	2	09VD 02VO 02VC 02MD 02MO 02MC 02RD 02RO	1	0	1.64232492447	270.0	-368.0	274	-363	1
2.7	2015_May_22_1252	s	s	12	5	SIC	347	RC	2	0	02VD 02VO 09VC 02MD 02MO 02MC 02RD 02RO	1	0	0.608669042587	227.0	-61.0	222	-60	1
2.7	2015_May_22_1252	s	s	12	5	SIC	348	ABS	2	2	10VD 02VO 02VC 02MD 02MO 02MC 02RD 02RO	0	1	1.48928308487	None	None	None	None	1
2.7	2015_May_22_1252	s	s	12	5	SIC	349	ABS	1	0	02VD 02VO 02VC 02MD 02MO 10MC 02RD 02RO	0	1	1.67081093788	None	None	None	None	1
2.7	2015_May_22_1252	s	s	12	5	SIC	350	RC	1	2	02VD 02VO 02VC 09MD 02MO 02MC 02RD 02RO	1	0	0.505521059036	120.0	-194.0	124	-187	1
2.7	2015_May_22_1252	s	s	12	5	SIC	351	ABS	0	2	02VD 02VO 02VC 02MD 02MO 02MC 10RD 02RO	0	1	1.18512988091	None	None	None	None	1
2.7	2015_May_22_1252	s	s	12	5	SIC	352	RC	0	1	02VD 02VO 02VC 02MD 02MO 02MC 02RD 09RO	1	0	1.23533606529	-403.0	96.0	-406	97	1
2.7	2015_May_22_1252	s	s	12	5	SIC	353	ABS	1	2	02VD 02VO 02VC 10MD 02MO 02MC 02RD 02RO	0	1	1.28241801262	None	None	None	None	1
2.7	2015_May_22_1252	s	s	12	5	SIC	354	RC	0	1	02VD 02VO 02VC 02MD 02MO 02MC 02RD 09RO	1	0	1.33581805229	-78.0	-294.0	-70	-292	1
2.7	2015_May_22_1252	s	s	12	5	SIC	355	RC	1	2	02VD 02VO 02VC 09MD 02MO 02MC 02RD 02RO	1	0	1.35961222649	-452.0	331.0	-444	328	1
2.7	2015_May_22_1252	s	s	12	5	SIC	356	ABS	0	1	02VD 02VO 02VC 02MD 02MO 02MC 02RD 10RO	0	1	2.65445804596	None	None	None	None	1
2.7	2015_May_22_1252	s	s	12	5	SIC	357	ABS	1	0	02VD 02VO 02VC 02MD 02MO 10MC 02RD 02RO	0	1	3.12667989731	None	None	None	None	1
2.7	2015_May_22_1252	s	s	12	5	SIC	358	RC	2	0	02VD 02VO 09VC 02MD 02MO 02MC 02RD 02RO	1	0	0.764461040497	-306.0	14.0	-297	13	1
2.7	2015_May_22_1252	s	s	12	5	SIC	359	ABS	2	2	10VD 02VO 02VC 02MD 02MO 02MC 02RD 02RO	0	1	1.1855199337	None	None	None	None	1
2.7	2015_May_22_1252	s	s	12	5	SIC	360	RC	0	2	02VD 02VO 02VC 02MD 02MO 02MC 09RD 02RO	1	0	0.952672958374	-380.0	64.0	-371	66	1
2.7	2015_May_22_1252	s	s	12	5	SIC	361	RC	2	2	09VD 02VO 02VC 02MD 02MO 02MC 02RD 02RO	1	0	1.18327188492	404.0	389.0	404	382	1
2.7	2015_May_22_1252	s	s	12	5	SIC	362	ABS	1	1	02VD 02VO 02VC 02MD 10MO 02MC 02RD 02RO	0	1	1.98870110512	None	None	None	None	1
2.7	2015_May_22_1252	s	s	12	5	SIC	363	ABS	0	2	02VD 02VO 02VC 02MD 02MO 02MC 10RD 02RO	0	1	1.75312113762	None	None	None	None	1
2.7	2015_May_22_1252	s	s	12	5	SIC	364	ABS	2	1	02VD 10VO 02VC 02MD 02MO 02MC 02RD 02RO	0	1	1.3361890316	None	None	None	None	1
2.7	2015_May_22_1252	s	s	12	5	SIC	365	RC	2	1	02VD 09VO 02VC 02MD 02MO 02MC 02RD 02RO	1	0	0.512445926666	-118.0	-8.0	-128	-7	1
2.7	2015_May_22_1252	s	s	12	5	SIC	366	RC	1	0	02VD 02VO 02VC 02MD 02MO 09MC 02RD 02RO	1	0	0.588366985321	0.0	-196.0	11	-192	1
2.7	2015_May_22_1252	s	s	12	5	SIC	367	RC	1	1	02VD 02VO 02VC 02MD 09MO 02MC 02RD 02RO	1	0	0.805845022202	54.0	-350.0	57	-353	1
2.7	2015_May_22_1252	s	s	12	5	SIC	368	ABS	2	0	02VD 02VO 10VC 02MD 02MO 02MC 02RD 02RO	0	1	1.94148015976	None	None	None	None	1
2.7	2015_May_22_1252	s	s	12	5	SIC	369	RC	2	0	02VD 02VO 09VC 02MD 02MO 02MC 02RD 02RO	1	0	0.926604032516	-446.0	154.0	-449	149	1
2.7	2015_May_22_1252	s	s	12	5	SIC	370	RC	1	0	02VD 02VO 02VC 02MD 02MO 09MC 02RD 02RO	1	0	0.529051065445	-92.0	16.0	-98	17	1
2.7	2015_May_22_1252	s	s	12	5	SIC	371	RC	2	2	09VD 02VO 02VC 02MD 02MO 02MC 02RD 02RO	1	0	0.770083904266	-208.0	-333.0	-201	-332	1
2.7	2015_May_22_1252	s	s	12	5	SIC	372	ABS	0	2	02VD 02VO 02VC 02MD 02MO 02MC 10RD 02RO	0	1	1.39523100853	None	None	None	None	1
2.7	2015_May_22_1252	s	s	12	5	SIC	373	ABS	2	0	02VD 02VO 10VC 02MD 02MO 02MC 02RD 02RO	0	1	1.57367300987	None	None	None	None	1
2.7	2015_May_22_1252	s	s	12	5	SIC	374	RC	0	1	02VD 02VO 02VC 02MD 02MO 02MC 02RD 09RO	1	0	1.62372803688	200.0	-371.0	206	-372	1
2.7	2015_May_22_1252	s	s	12	5	SIC	375	ABS	1	1	02VD 02VO 02VC 02MD 10MO 02MC 02RD 02RO	0	1	2.03078389168	None	None	None	None	1
2.7	2015_May_22_1252	s	s	12	5	SIC	376	ABS	1	0	02VD 02VO 02VC 02MD 02MO 10MC 02RD 02RO	0	1	1.20002412796	None	None	None	None	1
2.7	2015_May_22_1252	s	s	12	5	SIC	377	ABS	2	2	10VD 02VO 02VC 02MD 02MO 02MC 02RD 02RO	0	1	1.45895719528	None	None	None	None	1
2.7	2015_May_22_1252	s	s	12	5	SIC	378	ABS	1	2	02VD 02VO 02VC 10MD 02MO 02MC 02RD 02RO	0	1	1.78852510452	None	None	None	None	1
2.7	2015_May_22_1252	s	s	12	5	SIC	379	ABS	0	1	02VD 02VO 02VC 02MD 02MO 02MC 02RD 10RO	0	1	3.15973496437	None	None	None	None	1
2.7	2015_May_22_1252	s	s	12	5	SIC	380	RC	2	1	02VD 09VO 02VC 02MD 02MO 02MC 02RD 02RO	1	0	1.62948417664	-471.0	378.0	-472	387	1
2.7	2015_May_22_1252	s	s	12	5	SIC	381	ABS	2	1	02VD 10VO 02VC 02MD 02MO 02MC 02RD 02RO	0	1	1.32943201065	None	None	None	None	1
2.7	2015_May_22_1252	s	s	12	5	SIC	382	RC	1	1	02VD 02VO 02VC 02MD 09MO 02MC 02RD 02RO	1	0	1.00780892372	146.0	25.0	141	25	1
2.7	2015_May_22_1252	s	s	12	5	SIC	383	RC	0	2	02VD 02VO 02VC 02MD 02MO 02MC 09RD 02RO	1	0	0.748825073242	-522.0	-37.0	-529	-37	1
2.7	2015_May_22_1252	s	s	12	5	SIC	384	RC	1	2	02VD 02VO 02VC 09MD 02MO 02MC 02RD 02RO	1	0	0.714369058609	358.0	269.0	356	259	1
2.7	2015_May_22_1252	s	s	12	5	SIC	385	ABS	1	2	02VD 02VO 02VC 10MD 02MO 02MC 02RD 02RO	0	1	1.79511404037	None	None	None	None	1
2.7	2015_May_22_1252	s	s	12	5	SIC	386	ABS	1	1	02VD 02VO 02VC 02MD 10MO 02MC 02RD 02RO	0	1	1.45931720734	None	None	None	None	1
2.7	2015_May_22_1252	s	s	12	5	SIC	387	RC	2	2	09VD 02VO 02VC 02MD 02MO 02MC 02RD 02RO	1	0	0.541238069534	8.0	-252.0	5	-257	1
2.7	2015_May_22_1252	s	s	12	5	SIC	388	ABS	2	1	02VD 10VO 02VC 02MD 02MO 02MC 02RD 02RO	0	1	1.76493597031	None	None	None	None	1
2.7	2015_May_22_1252	s	s	12	5	SIC	389	RC	0	2	02VD 02VO 02VC 02MD 02MO 02MC 09RD 02RO	1	0	0.717394828796	-87.0	208.0	-93	210	1
2.7	2015_May_22_1252	s	s	12	5	SIC	390	ABS	1	0	02VD 02VO 02VC 02MD 02MO 10MC 02RD 02RO	0	1	2.61846899986	None	None	None	None	1
2.7	2015_May_22_1252	s	s	12	5	SIC	391	ABS	0	1	02VD 02VO 02VC 02MD 02MO 02MC 02RD 10RO	0	1	3.40104198456	None	None	None	None	1
2.7	2015_May_22_1252	s	s	12	5	SIC	392	RC	1	2	02VD 02VO 02VC 09MD 02MO 02MC 02RD 02RO	1	0	0.667669057846	235.0	-183.0	236	-180	1
2.7	2015_May_22_1252	s	s	12	5	SIC	393	ABS	2	0	02VD 02VO 10VC 02MD 02MO 02MC 02RD 02RO	0	1	1.61191797256	None	None	None	None	1
2.7	2015_May_22_1252	s	s	12	5	SIC	394	ABS	2	2	10VD 02VO 02VC 02MD 02MO 02MC 02RD 02RO	0	1	1.35981297493	None	None	None	None	1
2.7	2015_May_22_1252	s	s	12	5	SIC	395	RC	2	0	02VD 02VO 09VC 02MD 02MO 02MC 02RD 02RO	1	0	0.829499959946	-180.0	154.0	-180	154	1
2.7	2015_May_22_1252	s	s	12	5	SIC	396	RC	0	1	02VD 02VO 02VC 02MD 02MO 02MC 02RD 09RO	1	0	0.776251792908	202.0	196.0	192	196	1
2.7	2015_May_22_1252	s	s	12	5	SIC	397	RC	1	0	02VD 02VO 02VC 02MD 02MO 09MC 02RD 02RO	1	0	0.500339031219	72.0	-131.0	75	-125	1
2.7	2015_May_22_1252	s	s	12	5	SIC	398	RC	1	1	02VD 02VO 02VC 02MD 09MO 02MC 02RD 02RO	1	0	1.97127699852	-277.0	198.0	-273	201	1
2.7	2015_May_22_1252	s	s	12	5	SIC	399	ABS	0	2	02VD 02VO 02VC 02MD 02MO 02MC 10RD 02RO	0	1	1.5242459774	None	None	None	None	1
2.7	2015_May_22_1252	s	s	12	5	SIC	400	RC	2	1	02VD 09VO 02VC 02MD 02MO 02MC 02RD 02RO	1	0	1.29496121407	427.0	-287.0	432	-292	1
2.7	2015_May_22_1252	s	s	12	5	SIC	401	ABS	2	2	10VD 02VO 02VC 02MD 02MO 02MC 02RD 02RO	0	1	1.35984396935	None	None	None	None	1
2.7	2015_May_22_1252	s	s	12	5	SIC	402	ABS	0	2	02VD 02VO 02VC 02MD 02MO 02MC 10RD 02RO	0	1	1.654047966	None	None	None	None	1
2.7	2015_May_22_1252	s	s	12	5	SIC	403	RC	2	2	09VD 02VO 02VC 02MD 02MO 02MC 02RD 02RO	1	0	0.658503055573	-126.0	97.0	-119	92	1
2.7	2015_May_22_1252	s	s	12	5	SIC	404	RC	0	1	02VD 02VO 02VC 02MD 02MO 02MC 02RD 09RO	1	0	1.44159889221	431.0	-101.0	440	-105	1
2.7	2015_May_22_1252	s	s	12	5	SIC	405	RC	1	2	02VD 02VO 02VC 09MD 02MO 02MC 02RD 02RO	1	0	1.02709817886	382.0	-25.0	381	-28	1
2.7	2015_May_22_1252	s	s	12	5	SIC	406	ABS	1	0	02VD 02VO 02VC 02MD 02MO 10MC 02RD 02RO	0	1	2.90173101425	None	None	None	None	1
2.7	2015_May_22_1252	s	s	12	5	SIC	407	ABS	0	1	02VD 02VO 02VC 02MD 02MO 02MC 02RD 10RO	0	1	3.11859607697	None	None	None	None	1
2.7	2015_May_22_1252	s	s	12	5	SIC	408	RC	2	1	02VD 09VO 02VC 02MD 02MO 02MC 02RD 02RO	1	0	1.83290314674	-50.0	320.0	-55	309	1
2.7	2015_May_22_1252	s	s	12	5	SIC	409	ABS	1	1	02VD 02VO 02VC 02MD 10MO 02MC 02RD 02RO	0	1	2.0779800415	None	None	None	None	1
2.7	2015_May_22_1252	s	s	12	5	SIC	410	ABS	2	0	02VD 02VO 10VC 02MD 02MO 02MC 02RD 02RO	0	1	1.54813194275	None	None	None	None	1
2.7	2015_May_22_1252	s	s	12	5	SIC	411	RC	2	0	02VD 02VO 09VC 02MD 02MO 02MC 02RD 02RO	1	0	1.13593578339	483.0	52.0	481	41	1
2.7	2015_May_22_1252	s	s	12	5	SIC	412	RC	0	2	02VD 02VO 02VC 02MD 02MO 02MC 09RD 02RO	1	0	1.81204414368	377.0	-331.0	377	-331	1
2.7	2015_May_22_1252	s	s	12	5	SIC	413	RC	1	0	02VD 02VO 02VC 02MD 02MO 09MC 02RD 02RO	1	0	1.37195801735	-211.0	380.0	-216	380	1
2.7	2015_May_22_1252	s	s	12	5	SIC	414	ABS	2	1	02VD 10VO 02VC 02MD 02MO 02MC 02RD 02RO	0	1	1.34141492844	None	None	None	None	1
2.7	2015_May_22_1252	s	s	12	5	SIC	415	RC	1	1	02VD 02VO 02VC 02MD 09MO 02MC 02RD 02RO	1	0	0.75960111618	-5.0	286.0	-7	275	1
2.7	2015_May_22_1252	s	s	12	5	SIC	416	ABS	1	2	02VD 02VO 02VC 10MD 02MO 02MC 02RD 02RO	1	0	1.41981887817	None	None	50	-61	0
2.7	2015_May_22_1252	s	s	12	5	SIC	417	ABS	1	0	02VD 02VO 02VC 02MD 02MO 10MC 02RD 02RO	0	1	2.40876817703	None	None	None	None	1
2.7	2015_May_22_1252	s	s	12	5	SIC	418	ABS	1	2	02VD 02VO 02VC 10MD 02MO 02MC 02RD 02RO	0	1	1.28897213936	None	None	None	None	1
2.7	2015_May_22_1252	s	s	12	5	SIC	419	RC	2	1	02VD 09VO 02VC 02MD 02MO 02MC 02RD 02RO	1	0	0.582951068878	78.0	183.0	74	184	1
2.7	2015_May_22_1252	s	s	12	5	SIC	420	ABS	1	1	02VD 02VO 02VC 02MD 10MO 02MC 02RD 02RO	0	1	1.72453999519	None	None	None	None	1
2.7	2015_May_22_1252	s	s	12	5	SIC	421	ABS	2	2	10VD 02VO 02VC 02MD 02MO 02MC 02RD 02RO	0	1	1.41165280342	None	None	None	None	1
2.7	2015_May_22_1252	s	s	12	5	SIC	422	RC	1	1	02VD 02VO 02VC 02MD 09MO 02MC 02RD 02RO	0	1	2.09205389023	482.0	133.0	None	None	0
2.7	2015_May_22_1252	s	s	12	5	SIC	423	ABS	2	1	02VD 10VO 02VC 02MD 02MO 02MC 02RD 02RO	0	1	0.949476003647	None	None	None	None	1
2.7	2015_May_22_1252	s	s	12	5	SIC	424	ABS	0	1	02VD 02VO 02VC 02MD 02MO 02MC 02RD 10RO	0	1	2.94199895859	None	None	None	None	1
2.7	2015_May_22_1252	s	s	12	5	SIC	425	RC	2	0	02VD 02VO 09VC 02MD 02MO 02MC 02RD 02RO	1	0	1.3768029213	156.0	-141.0	157	-145	1
2.7	2015_May_22_1252	s	s	12	5	SIC	426	ABS	2	0	02VD 02VO 10VC 02MD 02MO 02MC 02RD 02RO	0	1	0.893911838531	None	None	None	None	1
2.7	2015_May_22_1252	s	s	12	5	SIC	427	RC	0	2	02VD 02VO 02VC 02MD 02MO 02MC 09RD 02RO	1	0	0.811433076859	-145.0	138.0	-137	139	1
2.7	2015_May_22_1252	s	s	12	5	SIC	428	RC	0	1	02VD 02VO 02VC 02MD 02MO 02MC 02RD 09RO	1	0	1.55967283249	-181.0	255.0	-179	256	1
2.7	2015_May_22_1252	s	s	12	5	SIC	429	RC	1	0	02VD 02VO 02VC 02MD 02MO 09MC 02RD 02RO	1	0	0.529137849808	-18.0	39.0	-21	45	1
2.7	2015_May_22_1252	s	s	12	5	SIC	430	ABS	0	2	02VD 02VO 02VC 02MD 02MO 02MC 10RD 02RO	0	1	1.43539094925	None	None	None	None	1
2.7	2015_May_22_1252	s	s	12	5	SIC	431	RC	1	2	02VD 02VO 02VC 09MD 02MO 02MC 02RD 02RO	1	0	0.764449834824	-42.0	185.0	-40	187	1
2.7	2015_May_22_1252	s	s	12	5	SIC	432	RC	2	2	09VD 02VO 02VC 02MD 02MO 02MC 02RD 02RO	1	0	0.91747379303	-337.0	-138.0	-325	-137	1
2.7	2015_May_22_1252	s	s	12	5	SIC	433	ABS	1	0	02VD 02VO 02VC 02MD 02MO 10MC 02RD 02RO	0	1	2.31814193726	None	None	None	None	1
2.7	2015_May_22_1252	s	s	12	5	SIC	434	ABS	1	1	02VD 02VO 02VC 02MD 10MO 02MC 02RD 02RO	0	1	1.61194491386	None	None	None	None	1
2.7	2015_May_22_1252	s	s	12	5	SIC	435	ABS	2	0	02VD 02VO 10VC 02MD 02MO 02MC 02RD 02RO	0	1	1.35997200012	None	None	None	None	1
2.7	2015_May_22_1252	s	s	12	5	SIC	436	ABS	0	2	02VD 02VO 02VC 02MD 02MO 02MC 10RD 02RO	0	1	1.16468787193	None	None	None	None	1
2.7	2015_May_22_1252	s	s	12	5	SIC	437	RC	1	2	02VD 02VO 02VC 09MD 02MO 02MC 02RD 02RO	1	0	1.02988290787	214.0	-342.0	216	-343	1
2.7	2015_May_22_1252	s	s	12	5	SIC	438	RC	0	2	02VD 02VO 02VC 02MD 02MO 02MC 09RD 02RO	1	0	0.784280061722	166.0	-223.0	164	-229	1
2.7	2015_May_22_1252	s	s	12	5	SIC	439	RC	2	2	09VD 02VO 02VC 02MD 02MO 02MC 02RD 02RO	1	0	0.682038068771	-162.0	-277.0	-152	-275	1
2.7	2015_May_22_1252	s	s	12	5	SIC	440	RC	1	1	02VD 02VO 02VC 02MD 09MO 02MC 02RD 02RO	1	0	0.634979009628	-176.0	-189.0	-169	-186	1
2.7	2015_May_22_1252	s	s	12	5	SIC	441	RC	1	0	02VD 02VO 02VC 02MD 02MO 09MC 02RD 02RO	1	0	0.71151804924	208.0	-242.0	216	-247	1
2.7	2015_May_22_1252	s	s	12	5	SIC	442	RC	0	1	02VD 02VO 02VC 02MD 02MO 02MC 02RD 09RO	1	0	0.818229913712	-260.0	65.0	-260	70	1
2.7	2015_May_22_1252	s	s	12	5	SIC	443	RC	2	1	02VD 09VO 02VC 02MD 02MO 02MC 02RD 02RO	1	0	0.833204984665	118.0	-263.0	127	-260	1
2.7	2015_May_22_1252	s	s	12	5	SIC	444	ABS	2	2	10VD 02VO 02VC 02MD 02MO 02MC 02RD 02RO	0	1	1.13654398918	None	None	None	None	1
2.7	2015_May_22_1252	s	s	12	5	SIC	445	RC	2	0	02VD 02VO 09VC 02MD 02MO 02MC 02RD 02RO	1	0	1.11194205284	-289.0	54.0	-286	52	1
2.7	2015_May_22_1252	s	s	12	5	SIC	446	ABS	1	2	02VD 02VO 02VC 10MD 02MO 02MC 02RD 02RO	0	1	1.86522889137	None	None	None	None	1
2.7	2015_May_22_1252	s	s	12	5	SIC	447	ABS	2	1	02VD 10VO 02VC 02MD 02MO 02MC 02RD 02RO	0	1	1.12935900688	None	None	None	None	1
2.7	2015_May_22_1252	s	s	12	5	SIC	448	ABS	0	1	02VD 02VO 02VC 02MD 02MO 02MC 02RD 10RO	0	1	2.51353096962	None	None	None	None	1
2.7	2015_May_22_1252	s	s	12	5	SIC	449	ABS	1	2	02VD 02VO 02VC 10MD 02MO 02MC 02RD 02RO	0	1	1.26645684242	None	None	None	None	1
2.7	2015_May_22_1252	s	s	12	5	SIC	450	ABS	2	2	10VD 02VO 02VC 02MD 02MO 02MC 02RD 02RO	0	1	1.51260089874	None	None	None	None	1
2.7	2015_May_22_1252	s	s	12	5	SIC	451	ABS	0	2	02VD 02VO 02VC 02MD 02MO 02MC 10RD 02RO	0	1	1.51296496391	None	None	None	None	1
2.7	2015_May_22_1252	s	s	12	5	SIC	452	ABS	0	1	02VD 02VO 02VC 02MD 02MO 02MC 02RD 10RO	0	1	3.22859597206	None	None	None	None	1
2.7	2015_May_22_1252	s	s	12	5	SIC	453	RC	1	1	02VD 02VO 02VC 02MD 09MO 02MC 02RD 02RO	0	1	1.98865008354	36.0	-247.0	None	None	0
2.7	2015_May_22_1252	s	s	12	5	SIC	454	RC	2	2	09VD 02VO 02VC 02MD 02MO 02MC 02RD 02RO	1	0	1.07737898827	-346.0	335.0	-358	339	1
2.7	2015_May_22_1252	s	s	12	5	SIC	455	ABS	2	0	02VD 02VO 10VC 02MD 02MO 02MC 02RD 02RO	0	1	1.44385504723	None	None	None	None	1
2.7	2015_May_22_1252	s	s	12	5	SIC	456	RC	0	1	02VD 02VO 02VC 02MD 02MO 02MC 02RD 09RO	0	1	0.972565889359	287.0	-47.0	None	None	0
2.7	2015_May_22_1252	s	s	12	5	SIC	457	ABS	2	1	02VD 10VO 02VC 02MD 02MO 02MC 02RD 02RO	0	1	1.79521417618	None	None	None	None	1
2.7	2015_May_22_1252	s	s	12	5	SIC	458	RC	1	2	02VD 02VO 02VC 09MD 02MO 02MC 02RD 02RO	1	0	1.41750478745	-406.0	398.0	-404	398	1
2.7	2015_May_22_1252	s	s	12	5	SIC	459	ABS	1	0	02VD 02VO 02VC 02MD 02MO 10MC 02RD 02RO	0	1	1.24220395088	None	None	None	None	1
2.7	2015_May_22_1252	s	s	12	5	SIC	460	RC	0	2	02VD 02VO 02VC 02MD 02MO 02MC 09RD 02RO	1	0	0.84224319458	174.0	-311.0	183	-305	1
2.7	2015_May_22_1252	s	s	12	5	SIC	461	RC	2	0	02VD 02VO 09VC 02MD 02MO 02MC 02RD 02RO	1	0	0.830667972565	-394.0	-219.0	-386	-214	1
2.7	2015_May_22_1252	s	s	12	5	SIC	462	RC	2	1	02VD 09VO 02VC 02MD 02MO 02MC 02RD 02RO	1	0	1.22353601456	521.0	343.0	525	346	1
2.7	2015_May_22_1252	s	s	12	5	SIC	463	ABS	1	1	02VD 02VO 02VC 02MD 10MO 02MC 02RD 02RO	0	1	1.71428823471	None	None	None	None	1
2.7	2015_May_22_1252	s	s	12	5	SIC	464	RC	1	0	02VD 02VO 02VC 02MD 02MO 09MC 02RD 02RO	1	0	2.60067296028	-407.0	409.0	-410	413	1
2.7	2015_May_22_1252	s	s	12	5	SIC	465	ABS	0	2	02VD 02VO 02VC 02MD 02MO 02MC 10RD 02RO	0	1	1.44711995125	None	None	None	None	1
2.7	2015_May_22_1252	s	s	12	5	SIC	466	RC	1	0	02VD 02VO 02VC 02MD 02MO 09MC 02RD 02RO	1	0	0.811578035355	-336.0	25.0	-335	24	1
2.7	2015_May_22_1252	s	s	12	5	SIC	467	RC	2	1	02VD 09VO 02VC 02MD 02MO 02MC 02RD 02RO	1	0	0.646777868271	128.0	-87.0	136	-92	1
2.7	2015_May_22_1252	s	s	12	5	SIC	468	ABS	1	2	02VD 02VO 02VC 10MD 02MO 02MC 02RD 02RO	0	1	1.44237995148	None	None	None	None	1
2.7	2015_May_22_1252	s	s	12	5	SIC	469	RC	1	2	02VD 02VO 02VC 09MD 02MO 02MC 02RD 02RO	1	0	1.34488201141	488.0	264.0	483	257	1
2.7	2015_May_22_1252	s	s	12	5	SIC	470	ABS	2	1	02VD 10VO 02VC 02MD 02MO 02MC 02RD 02RO	0	1	1.48248004913	None	None	None	None	1
2.7	2015_May_22_1252	s	s	12	5	SIC	471	RC	0	1	02VD 02VO 02VC 02MD 02MO 02MC 02RD 09RO	1	0	2.47801399231	80.0	317.0	74	314	1
2.7	2015_May_22_1252	s	s	12	5	SIC	472	ABS	1	1	02VD 02VO 02VC 02MD 10MO 02MC 02RD 02RO	0	1	1.64240598679	None	None	None	None	1
2.7	2015_May_22_1252	s	s	12	5	SIC	473	RC	1	1	02VD 02VO 02VC 02MD 09MO 02MC 02RD 02RO	0	1	1.9594540596	258.0	-137.0	None	None	0
2.7	2015_May_22_1252	s	s	12	5	SIC	474	ABS	1	0	02VD 02VO 02VC 02MD 02MO 10MC 02RD 02RO	0	1	2.92556381226	None	None	None	None	1
2.7	2015_May_22_1252	s	s	12	5	SIC	475	ABS	2	2	10VD 02VO 02VC 02MD 02MO 02MC 02RD 02RO	0	1	1.78506708145	None	None	None	None	1
2.7	2015_May_22_1252	s	s	12	5	SIC	476	RC	2	2	09VD 02VO 02VC 02MD 02MO 02MC 02RD 02RO	0	1	1.70034813881	481.0	-331.0	None	None	0
2.7	2015_May_22_1252	s	s	12	5	SIC	477	ABS	2	0	02VD 02VO 10VC 02MD 02MO 02MC 02RD 02RO	0	1	1.69166612625	None	None	None	None	1
2.7	2015_May_22_1252	s	s	12	5	SIC	478	RC	2	0	02VD 02VO 09VC 02MD 02MO 02MC 02RD 02RO	1	0	1.26514101028	384.0	358.0	377	359	1
2.7	2015_May_22_1252	s	s	12	5	SIC	479	RC	0	2	02VD 02VO 02VC 02MD 02MO 02MC 09RD 02RO	1	0	1.53635406494	42.0	194.0	34	193	1
2.7	2015_May_22_1252	s	s	12	5	SIC	480	ABS	0	1	02VD 02VO 02VC 02MD 02MO 02MC 02RD 10RO	0	1	2.2946369648	None	None	None	None	1
