Version	Date	Stimuli	Method	Subject	Session	Condition	Trial	Target	Channel1	Channel2	Distractors	LMouseButton	RMouseButton	RT	TargetX	TargetY	ResponseX	ResponseY	Correct
2.7	2015_May_21_1655	s	s	12	4	Capacity	1	RC	1	0	08VC 15MC	0	1	1.18814086914	127.0	-27.0	None	None	0
2.7	2015_May_21_1655	s	s	12	4	Capacity	2	ABS	2	0	16VC 08MC	0	1	2.46819519997	None	None	None	None	1
2.7	2015_May_21_1655	s	s	12	4	Capacity	3	ABS	1	0	08VC 16MC	0	1	1.54793119431	None	None	None	None	1
2.7	2015_May_21_1655	s	s	12	4	Capacity	4	RC	2	0	15VC 08MC	1	0	0.752981901169	397.0	6.0	396	8	1
2.7	2015_May_21_1655	s	s	12	4	Capacity	5	ABS	2	0	16VC 08MC	0	1	1.80736780167	None	None	None	None	1
2.7	2015_May_21_1655	s	s	12	4	Capacity	6	RC	1	0	08VC 15MC	1	0	1.46334791183	508.0	279.0	507	279	1
2.7	2015_May_21_1655	s	s	12	4	Capacity	7	RC	2	0	15VC 08MC	1	0	1.17639899254	424.0	105.0	425	97	1
2.7	2015_May_21_1655	s	s	12	4	Capacity	8	ABS	1	0	08VC 16MC	0	1	2.23576807976	None	None	None	None	1
2.7	2015_May_21_1655	s	s	12	4	Capacity	9	RC	1	0	08VC 15MC	1	0	0.905717849731	24.0	-186.0	19	-183	1
2.7	2015_May_21_1655	s	s	12	4	Capacity	10	RC	2	0	15VC 08MC	1	0	0.971400976181	-432.0	-129.0	-440	-130	1
2.7	2015_May_21_1655	s	s	12	4	Capacity	11	ABS	2	0	16VC 08MC	0	1	2.12978506088	None	None	None	None	1
2.7	2015_May_21_1655	s	s	12	4	Capacity	12	ABS	1	0	08VC 16MC	0	1	2.477394104	None	None	None	None	1
2.7	2015_May_21_1655	s	s	12	4	Capacity	13	RC	1	0	08VC 15MC	1	0	0.764451026917	147.0	-396.0	139	-388	1
2.7	2015_May_21_1655	s	s	12	4	Capacity	14	ABS	2	0	16VC 08MC	0	1	1.81885695457	None	None	None	None	1
2.7	2015_May_21_1655	s	s	12	4	Capacity	15	ABS	1	0	08VC 16MC	0	1	2.4358689785	None	None	None	None	1
2.7	2015_May_21_1655	s	s	12	4	Capacity	16	RC	2	0	15VC 08MC	1	0	0.78804397583	350.0	-83.0	361	-83	1
2.7	2015_May_21_1655	s	s	12	4	Capacity	17	ABS	2	0	16VC 08MC	0	1	1.84232807159	None	None	None	None	1
2.7	2015_May_21_1655	s	s	12	4	Capacity	18	RC	1	0	08VC 15MC	1	0	0.724211931229	71.0	405.0	64	403	1
2.7	2015_May_21_1655	s	s	12	4	Capacity	19	RC	2	0	15VC 08MC	1	0	0.89391708374	396.0	-147.0	405	-142	1
2.7	2015_May_21_1655	s	s	12	4	Capacity	20	ABS	1	0	08VC 16MC	0	1	2.1533510685	None	None	None	None	1
2.7	2015_May_21_1655	s	s	12	4	Capacity	21	RC	2	0	15VC 08MC	1	0	0.611495018005	-168.0	192.0	-166	194	1
2.7	2015_May_21_1655	s	s	12	4	Capacity	22	ABS	2	0	16VC 08MC	0	1	2.32558298111	None	None	None	None	1
2.7	2015_May_21_1655	s	s	12	4	Capacity	23	ABS	1	0	08VC 16MC	0	1	2.9419901371	None	None	None	None	1
2.7	2015_May_21_1655	s	s	12	4	Capacity	24	RC	1	0	08VC 15MC	1	0	0.90566110611	293.0	165.0	299	159	1
2.7	2015_May_21_1655	s	s	12	4	Capacity	25	ABS	2	0	16VC 08MC	0	1	1.57668495178	None	None	None	None	1
2.7	2015_May_21_1655	s	s	12	4	Capacity	26	RC	1	0	08VC 15MC	1	0	0.700612783432	26.0	-137.0	38	-136	1
2.7	2015_May_21_1655	s	s	12	4	Capacity	27	RC	2	0	15VC 08MC	1	0	0.752738952637	124.0	190.0	118	190	1
2.7	2015_May_21_1655	s	s	12	4	Capacity	28	ABS	1	0	08VC 16MC	0	1	2.26625108719	None	None	None	None	1
2.7	2015_May_21_1655	s	s	12	4	Capacity	29	RC	1	0	08VC 15MC	1	0	0.676211118698	-137.0	-268.0	-128	-263	1
2.7	2015_May_21_1655	s	s	12	4	Capacity	30	RC	2	0	15VC 08MC	1	0	0.571134090424	-443.0	-204.0	-436	-202	1
2.7	2015_May_21_1655	s	s	12	4	Capacity	31	ABS	2	0	16VC 08MC	0	1	1.67079901695	None	None	None	None	1
2.7	2015_May_21_1655	s	s	12	4	Capacity	32	ABS	1	0	08VC 16MC	0	1	1.98057198524	None	None	None	None	1
2.7	2015_May_21_1655	s	s	12	4	Capacity	33	RC	2	0	15VC 08MC	1	0	0.553300857544	20.0	-34.0	22	-33	1
2.7	2015_May_21_1655	s	s	12	4	Capacity	34	ABS	2	0	16VC 08MC	0	1	1.84735012054	None	None	None	None	1
2.7	2015_May_21_1655	s	s	12	4	Capacity	35	ABS	1	0	08VC 16MC	0	1	2.05390977859	None	None	None	None	1
2.7	2015_May_21_1655	s	s	12	4	Capacity	36	RC	1	0	08VC 15MC	1	0	0.823292970657	-104.0	261.0	-108	255	1
2.7	2015_May_21_1655	s	s	12	4	Capacity	37	RC	2	0	15VC 08MC	1	0	0.924242019653	-431.0	30.0	-425	29	1
2.7	2015_May_21_1655	s	s	12	4	Capacity	38	ABS	2	0	16VC 08MC	0	1	1.5362739563	None	None	None	None	1
2.7	2015_May_21_1655	s	s	12	4	Capacity	39	RC	1	0	08VC 15MC	1	0	1.00486707687	-27.0	383.0	-29	390	1
2.7	2015_May_21_1655	s	s	12	4	Capacity	40	ABS	1	0	08VC 16MC	0	1	2.00034809113	None	None	None	None	1
2.7	2015_May_21_1655	s	s	12	4	Capacity	41	RC	1	0	08VC 15MC	1	0	1.0675740242	-138.0	409.0	-134	396	1
2.7	2015_May_21_1655	s	s	12	4	Capacity	42	RC	2	0	15VC 08MC	1	0	0.568135976791	81.0	-24.0	81	-27	1
2.7	2015_May_21_1655	s	s	12	4	Capacity	43	ABS	1	0	08VC 16MC	0	1	1.85916900635	None	None	None	None	1
2.7	2015_May_21_1655	s	s	12	4	Capacity	44	ABS	2	0	16VC 08MC	0	1	1.50607299805	None	None	None	None	1
2.7	2015_May_21_1655	s	s	12	4	Capacity	45	ABS	1	0	08VC 16MC	0	1	1.73674893379	None	None	None	None	1
2.7	2015_May_21_1655	s	s	12	4	Capacity	46	RC	1	0	08VC 15MC	1	0	0.729205131531	-359.0	152.0	-356	155	1
2.7	2015_May_21_1655	s	s	12	4	Capacity	47	ABS	2	0	16VC 08MC	0	1	2.30384683609	None	None	None	None	1
2.7	2015_May_21_1655	s	s	12	4	Capacity	48	RC	2	0	15VC 08MC	1	0	0.729120016098	154.0	253.0	150	253	1
2.7	2015_May_21_1655	s	s	12	4	Capacity	49	ABS	2	0	16VC 08MC	0	1	1.62420916557	None	None	None	None	1
2.7	2015_May_21_1655	s	s	12	4	Capacity	50	RC	1	0	08VC 15MC	1	0	0.917500019073	533.0	200.0	537	195	1
2.7	2015_May_21_1655	s	s	12	4	Capacity	51	RC	2	0	15VC 08MC	1	0	0.976338148117	-176.0	328.0	-168	333	1
2.7	2015_May_21_1655	s	s	12	4	Capacity	52	ABS	1	0	08VC 16MC	0	1	2.25463104248	None	None	None	None	1
2.7	2015_May_21_1655	s	s	12	4	Capacity	53	ABS	2	0	16VC 08MC	0	1	1.03560996056	None	None	None	None	1
2.7	2015_May_21_1655	s	s	12	4	Capacity	54	RC	2	0	15VC 08MC	1	0	0.729118108749	391.0	307.0	385	298	1
2.7	2015_May_21_1655	s	s	12	4	Capacity	55	ABS	1	0	08VC 16MC	0	1	2.24269604683	None	None	None	None	1
2.7	2015_May_21_1655	s	s	12	4	Capacity	56	RC	1	0	08VC 15MC	1	0	0.964565992355	494.0	195.0	497	184	1
2.7	2015_May_21_1655	s	s	12	4	Capacity	57	ABS	1	0	08VC 16MC	0	1	3.04786920547	None	None	None	None	1
2.7	2015_May_21_1655	s	s	12	4	Capacity	58	ABS	2	0	16VC 08MC	0	1	1.77392792702	None	None	None	None	1
2.7	2015_May_21_1655	s	s	12	4	Capacity	59	RC	1	0	08VC 15MC	1	0	0.862396001816	-390.0	-201.0	-394	-214	1
2.7	2015_May_21_1655	s	s	12	4	Capacity	60	RC	2	0	15VC 08MC	1	0	2.25935983658	107.0	354.0	108	349	1
2.7	2015_May_21_1655	s	s	12	4	Capacity	61	RC	1	0	08VC 15MC	1	0	0.827147006989	133.0	240.0	124	249	1
2.7	2015_May_21_1655	s	s	12	4	Capacity	62	RC	2	0	15VC 08MC	1	0	1.68259000778	421.0	-206.0	425	-203	1
2.7	2015_May_21_1655	s	s	12	4	Capacity	63	ABS	2	0	16VC 08MC	0	1	1.79670906067	None	None	None	None	1
2.7	2015_May_21_1655	s	s	12	4	Capacity	64	ABS	1	0	08VC 16MC	0	1	2.71833086014	None	None	None	None	1
2.7	2015_May_21_1655	s	s	12	4	Capacity	1	RC	0	2	15RD 08RO	1	0	0.676304101944	146.0	-106.0	147	-118	1
2.7	2015_May_21_1655	s	s	12	4	Capacity	2	RC	0	1	08RD 15RO	1	0	1.89438700676	-184.0	-318.0	-184	-319	1
2.7	2015_May_21_1655	s	s	12	4	Capacity	3	ABS	0	1	08RD 16RO	0	1	3.63647413254	None	None	None	None	1
2.7	2015_May_21_1655	s	s	12	4	Capacity	4	ABS	0	2	16RD 08RO	0	1	2.07095694542	None	None	None	None	1
2.7	2015_May_21_1655	s	s	12	4	Capacity	5	RC	0	1	08RD 15RO	1	0	3.23663377762	260.0	-12.0	264	-11	1
2.7	2015_May_21_1655	s	s	12	4	Capacity	6	ABS	0	2	16RD 08RO	0	1	2.20045900345	None	None	None	None	1
2.7	2015_May_21_1655	s	s	12	4	Capacity	7	ABS	0	1	08RD 16RO	0	1	3.69075703621	None	None	None	None	1
2.7	2015_May_21_1655	s	s	12	4	Capacity	8	RC	0	2	15RD 08RO	1	0	0.958945989609	265.0	-222.0	258	-225	1
2.7	2015_May_21_1655	s	s	12	4	Capacity	9	ABS	0	2	16RD 08RO	0	1	2.52478694916	None	None	None	None	1
2.7	2015_May_21_1655	s	s	12	4	Capacity	10	RC	0	1	08RD 15RO	1	0	3.78949594498	-277.0	323.0	-272	331	1
2.7	2015_May_21_1655	s	s	12	4	Capacity	11	RC	0	2	15RD 08RO	1	0	0.846853971481	-252.0	-279.0	-260	-285	1
2.7	2015_May_21_1655	s	s	12	4	Capacity	12	ABS	0	1	08RD 16RO	0	1	2.92528700829	None	None	None	None	1
2.7	2015_May_21_1655	s	s	12	4	Capacity	13	ABS	0	2	16RD 08RO	0	1	1.79434108734	None	None	None	None	1
2.7	2015_May_21_1655	s	s	12	4	Capacity	14	ABS	0	1	08RD 16RO	0	1	3.47804117203	None	None	None	None	1
2.7	2015_May_21_1655	s	s	12	4	Capacity	15	RC	0	1	08RD 15RO	1	0	1.24200201035	-514.0	-387.0	-517	-387	1
2.7	2015_May_21_1655	s	s	12	4	Capacity	16	RC	0	2	15RD 08RO	1	0	0.976327896118	422.0	-219.0	426	-225	1
2.7	2015_May_21_1655	s	s	12	4	Capacity	17	RC	0	1	08RD 15RO	1	0	1.1242749691	475.0	47.0	477	46	1
2.7	2015_May_21_1655	s	s	12	4	Capacity	18	ABS	0	1	08RD 16RO	0	1	3.53048801422	None	None	None	None	1
2.7	2015_May_21_1655	s	s	12	4	Capacity	19	ABS	0	2	16RD 08RO	0	1	2.43082380295	None	None	None	None	1
2.7	2015_May_21_1655	s	s	12	4	Capacity	20	RC	0	2	15RD 08RO	1	0	1.40690112114	21.0	389.0	14	389	1
2.7	2015_May_21_1655	s	s	12	4	Capacity	21	RC	0	2	15RD 08RO	1	0	0.865592956543	-441.0	-124.0	-440	-127	1
2.7	2015_May_21_1655	s	s	12	4	Capacity	22	ABS	0	2	16RD 08RO	0	1	2.05487585068	None	None	None	None	1
2.7	2015_May_21_1655	s	s	12	4	Capacity	23	RC	0	1	08RD 15RO	1	0	3.04312896729	391.0	-83.0	391	-82	1
2.7	2015_May_21_1655	s	s	12	4	Capacity	24	ABS	0	1	08RD 16RO	0	1	3.12541913986	None	None	None	None	1
2.7	2015_May_21_1655	s	s	12	4	Capacity	25	RC	0	2	15RD 08RO	1	0	2.28288412094	137.0	295.0	130	295	1
2.7	2015_May_21_1655	s	s	12	4	Capacity	26	ABS	0	1	08RD 16RO	0	1	3.92625594139	None	None	None	None	1
2.7	2015_May_21_1655	s	s	12	4	Capacity	27	ABS	0	2	16RD 08RO	0	1	3.0315849781	None	None	None	None	1
2.7	2015_May_21_1655	s	s	12	4	Capacity	28	RC	0	1	08RD 15RO	1	0	1.92453312874	242.0	-335.0	239	-329	1
2.7	2015_May_21_1655	s	s	12	4	Capacity	29	RC	0	1	08RD 15RO	1	0	4.33763313293	462.0	-231.0	461	-230	1
2.7	2015_May_21_1655	s	s	12	4	Capacity	30	RC	0	2	15RD 08RO	1	0	2.01883292198	184.0	122.0	181	117	1
2.7	2015_May_21_1655	s	s	12	4	Capacity	31	ABS	0	2	16RD 08RO	0	1	2.647824049	None	None	None	None	1
2.7	2015_May_21_1655	s	s	12	4	Capacity	32	ABS	0	1	08RD 16RO	0	1	3.27159309387	None	None	None	None	1
2.7	2015_May_21_1655	s	s	12	4	Capacity	33	RC	0	2	15RD 08RO	1	0	1.05305290222	293.0	-297.0	291	-296	1
2.7	2015_May_21_1655	s	s	12	4	Capacity	34	RC	0	1	08RD 15RO	1	0	3.71590900421	336.0	-152.0	338	-152	1
2.7	2015_May_21_1655	s	s	12	4	Capacity	35	ABS	0	2	16RD 08RO	0	1	2.3248591423	None	None	None	None	1
2.7	2015_May_21_1655	s	s	12	4	Capacity	36	ABS	0	1	08RD 16RO	0	1	4.42502808571	None	None	None	None	1
2.7	2015_May_21_1655	s	s	12	4	Capacity	37	ABS	0	1	08RD 16RO	0	1	4.28048610687	None	None	None	None	1
2.7	2015_May_21_1655	s	s	12	4	Capacity	38	ABS	0	2	16RD 08RO	0	1	2.35346913338	None	None	None	None	1
2.7	2015_May_21_1655	s	s	12	4	Capacity	39	RC	0	1	08RD 15RO	1	0	4.07202386856	210.0	347.0	214	346	1
2.7	2015_May_21_1655	s	s	12	4	Capacity	40	RC	0	2	15RD 08RO	1	0	2.11806607246	-351.0	373.0	-347	382	1
2.7	2015_May_21_1655	s	s	12	4	Capacity	41	RC	0	1	08RD 15RO	1	0	0.787904024124	190.0	-104.0	193	-101	1
2.7	2015_May_21_1655	s	s	12	4	Capacity	42	ABS	0	1	08RD 16RO	0	1	3.70703196526	None	None	None	None	1
2.7	2015_May_21_1655	s	s	12	4	Capacity	43	RC	0	2	15RD 08RO	0	1	3.11394500732	45.0	-305.0	None	None	0
2.7	2015_May_21_1655	s	s	12	4	Capacity	44	ABS	0	2	16RD 08RO	0	1	3.1374540329	None	None	None	None	1
2.7	2015_May_21_1655	s	s	12	4	Capacity	45	RC	0	1	08RD 15RO	1	0	3.18727588654	-199.0	301.0	-197	295	1
2.7	2015_May_21_1655	s	s	12	4	Capacity	46	ABS	0	1	08RD 16RO	0	1	3.03615689278	None	None	None	None	1
2.7	2015_May_21_1655	s	s	12	4	Capacity	47	RC	0	2	15RD 08RO	1	0	0.917503118515	-127.0	-132.0	-126	-135	1
2.7	2015_May_21_1655	s	s	12	4	Capacity	48	ABS	0	2	16RD 08RO	0	1	2.07968378067	None	None	None	None	1
2.7	2015_May_21_1655	s	s	12	4	Capacity	49	RC	0	2	15RD 08RO	1	0	1.08913302422	226.0	-166.0	230	-161	1
2.7	2015_May_21_1655	s	s	12	4	Capacity	50	RC	0	1	08RD 15RO	0	1	3.10174918175	481.0	-139.0	None	None	0
2.7	2015_May_21_1655	s	s	12	4	Capacity	51	ABS	0	2	16RD 08RO	0	1	2.72523999214	None	None	None	None	1
2.7	2015_May_21_1655	s	s	12	4	Capacity	52	ABS	0	1	08RD 16RO	0	1	3.85537290573	None	None	None	None	1
2.7	2015_May_21_1655	s	s	12	4	Capacity	53	ABS	0	1	08RD 16RO	0	1	3.67869615555	None	None	None	None	1
2.7	2015_May_21_1655	s	s	12	4	Capacity	54	RC	0	1	08RD 15RO	1	0	2.39568591118	370.0	-153.0	369	-160	1
2.7	2015_May_21_1655	s	s	12	4	Capacity	55	ABS	0	2	16RD 08RO	0	1	2.83609604836	None	None	None	None	1
2.7	2015_May_21_1655	s	s	12	4	Capacity	56	RC	0	2	15RD 08RO	1	0	1.6081840992	468.0	174.0	477	172	1
2.7	2015_May_21_1655	s	s	12	4	Capacity	57	RC	0	1	08RD 15RO	1	0	1.56487298012	-301.0	-388.0	-294	-384	1
2.7	2015_May_21_1655	s	s	12	4	Capacity	58	ABS	0	1	08RD 16RO	0	1	4.90760183334	None	None	None	None	1
2.7	2015_May_21_1655	s	s	12	4	Capacity	59	RC	0	2	15RD 08RO	1	0	1.52959704399	-274.0	384.0	-267	380	1
2.7	2015_May_21_1655	s	s	12	4	Capacity	60	ABS	0	2	16RD 08RO	0	1	2.65484905243	None	None	None	None	1
2.7	2015_May_21_1655	s	s	12	4	Capacity	61	ABS	0	1	08RD 16RO	0	1	3.77400183678	None	None	None	None	1
2.7	2015_May_21_1655	s	s	12	4	Capacity	62	RC	0	1	08RD 15RO	1	0	2.16515302658	-457.0	220.0	-463	218	1
2.7	2015_May_21_1655	s	s	12	4	Capacity	63	ABS	0	2	16RD 08RO	0	1	2.53661799431	None	None	None	None	1
2.7	2015_May_21_1655	s	s	12	4	Capacity	64	RC	0	2	15RD 08RO	0	1	2.55994582176	482.0	-163.0	None	None	0
2.7	2015_May_21_1655	s	s	12	4	SIC	1	ABS	0	2	02VD 02VO 02VC 02MD 02MO 02MC 10RD 02RO	0	1	2.07098507881	None	None	None	None	1
2.7	2015_May_21_1655	s	s	12	4	SIC	2	RC	2	0	02VD 02VO 09VC 02MD 02MO 02MC 02RD 02RO	1	0	0.62811088562	-89.0	58.0	-83	52	1
2.7	2015_May_21_1655	s	s	12	4	SIC	3	RC	0	2	02VD 02VO 02VC 02MD 02MO 02MC 09RD 02RO	1	0	0.611292123795	-69.0	-88.0	-65	-91	1
2.7	2015_May_21_1655	s	s	12	4	SIC	4	RC	1	2	02VD 02VO 02VC 09MD 02MO 02MC 02RD 02RO	1	0	1.93910098076	533.0	403.0	534	398	1
2.7	2015_May_21_1655	s	s	12	4	SIC	5	ABS	2	2	10VD 02VO 02VC 02MD 02MO 02MC 02RD 02RO	0	1	1.20031905174	None	None	None	None	1
2.7	2015_May_21_1655	s	s	12	4	SIC	6	RC	0	1	02VD 02VO 02VC 02MD 02MO 02MC 02RD 09RO	1	0	1.02963209152	-505.0	-151.0	-497	-154	1
2.7	2015_May_21_1655	s	s	12	4	SIC	7	ABS	2	0	02VD 02VO 10VC 02MD 02MO 02MC 02RD 02RO	0	1	1.81581616402	None	None	None	None	1
2.7	2015_May_21_1655	s	s	12	4	SIC	8	ABS	0	1	02VD 02VO 02VC 02MD 02MO 02MC 02RD 10RO	0	1	2.51867794991	None	None	None	None	1
2.7	2015_May_21_1655	s	s	12	4	SIC	9	RC	2	2	09VD 02VO 02VC 02MD 02MO 02MC 02RD 02RO	1	0	1.58845186234	438.0	-330.0	431	-331	1
2.7	2015_May_21_1655	s	s	12	4	SIC	10	ABS	1	1	02VD 02VO 02VC 02MD 10MO 02MC 02RD 02RO	0	1	2.38395690918	None	None	None	None	1
2.7	2015_May_21_1655	s	s	12	4	SIC	11	ABS	1	0	02VD 02VO 02VC 02MD 02MO 10MC 02RD 02RO	0	1	2.33698511124	None	None	None	None	1
2.7	2015_May_21_1655	s	s	12	4	SIC	12	RC	1	0	02VD 02VO 02VC 02MD 02MO 09MC 02RD 02RO	1	0	1.58644509315	-416.0	-298.0	-425	-299	1
2.7	2015_May_21_1655	s	s	12	4	SIC	13	RC	1	1	02VD 02VO 02VC 02MD 09MO 02MC 02RD 02RO	1	0	1.093998909	328.0	276.0	330	281	1
2.7	2015_May_21_1655	s	s	12	4	SIC	14	RC	2	1	02VD 09VO 02VC 02MD 02MO 02MC 02RD 02RO	1	0	1.491740942	409.0	359.0	406	353	1
2.7	2015_May_21_1655	s	s	12	4	SIC	15	ABS	1	2	02VD 02VO 02VC 10MD 02MO 02MC 02RD 02RO	0	1	1.52948617935	None	None	None	None	1
2.7	2015_May_21_1655	s	s	12	4	SIC	16	ABS	2	1	02VD 10VO 02VC 02MD 02MO 02MC 02RD 02RO	0	1	1.61196804047	None	None	None	None	1
2.7	2015_May_21_1655	s	s	12	4	SIC	17	RC	1	2	02VD 02VO 02VC 09MD 02MO 02MC 02RD 02RO	1	0	1.15287303925	-506.0	-114.0	-503	-112	1
2.7	2015_May_21_1655	s	s	12	4	SIC	18	RC	0	2	02VD 02VO 02VC 02MD 02MO 02MC 09RD 02RO	1	0	1.30584287643	-239.0	323.0	-232	324	1
2.7	2015_May_21_1655	s	s	12	4	SIC	19	RC	1	0	02VD 02VO 02VC 02MD 02MO 09MC 02RD 02RO	1	0	0.784695863724	-429.0	-398.0	-425	-397	1
2.7	2015_May_21_1655	s	s	12	4	SIC	20	ABS	2	2	10VD 02VO 02VC 02MD 02MO 02MC 02RD 02RO	0	1	1.78848719597	None	None	None	None	1
2.7	2015_May_21_1655	s	s	12	4	SIC	21	RC	0	1	02VD 02VO 02VC 02MD 02MO 02MC 02RD 09RO	1	0	2.4476339817	427.0	386.0	433	390	1
2.7	2015_May_21_1655	s	s	12	4	SIC	22	RC	1	1	02VD 02VO 02VC 02MD 09MO 02MC 02RD 02RO	1	0	2.11310386658	-490.0	339.0	-488	338	1
2.7	2015_May_21_1655	s	s	12	4	SIC	23	ABS	0	2	02VD 02VO 02VC 02MD 02MO 02MC 10RD 02RO	0	1	2.13882899284	None	None	None	None	1
2.7	2015_May_21_1655	s	s	12	4	SIC	24	ABS	1	2	02VD 02VO 02VC 10MD 02MO 02MC 02RD 02RO	0	1	1.90620398521	None	None	None	None	1
2.7	2015_May_21_1655	s	s	12	4	SIC	25	ABS	0	1	02VD 02VO 02VC 02MD 02MO 02MC 02RD 10RO	0	1	3.27889704704	None	None	None	None	1
2.7	2015_May_21_1655	s	s	12	4	SIC	26	RC	2	0	02VD 02VO 09VC 02MD 02MO 02MC 02RD 02RO	1	0	1.24707198143	329.0	367.0	332	357	1
2.7	2015_May_21_1655	s	s	12	4	SIC	27	ABS	2	1	02VD 10VO 02VC 02MD 02MO 02MC 02RD 02RO	0	1	2.04745006561	None	None	None	None	1
2.7	2015_May_21_1655	s	s	12	4	SIC	28	ABS	2	0	02VD 02VO 10VC 02MD 02MO 02MC 02RD 02RO	0	1	1.55329704285	None	None	None	None	1
2.7	2015_May_21_1655	s	s	12	4	SIC	29	ABS	1	1	02VD 02VO 02VC 02MD 10MO 02MC 02RD 02RO	0	1	2.03568220139	None	None	None	None	1
2.7	2015_May_21_1655	s	s	12	4	SIC	30	RC	2	2	09VD 02VO 02VC 02MD 02MO 02MC 02RD 02RO	1	0	0.693854093552	-112.0	-51.0	-114	-49	1
2.7	2015_May_21_1655	s	s	12	4	SIC	31	ABS	1	0	02VD 02VO 02VC 02MD 02MO 10MC 02RD 02RO	0	1	2.03072500229	None	None	None	None	1
2.7	2015_May_21_1655	s	s	12	4	SIC	32	RC	2	1	02VD 09VO 02VC 02MD 02MO 02MC 02RD 02RO	1	0	0.853637218475	-30.0	-252.0	-35	-252	1
2.7	2015_May_21_1655	s	s	12	4	SIC	33	RC	1	1	02VD 02VO 02VC 02MD 09MO 02MC 02RD 02RO	1	0	0.665601968765	171.0	126.0	182	127	1
2.7	2015_May_21_1655	s	s	12	4	SIC	34	ABS	1	2	02VD 02VO 02VC 10MD 02MO 02MC 02RD 02RO	0	1	1.15286612511	None	None	None	None	1
2.7	2015_May_21_1655	s	s	12	4	SIC	35	RC	1	0	02VD 02VO 02VC 02MD 02MO 09MC 02RD 02RO	1	0	1.45413208008	-430.0	150.0	-420	155	1
2.7	2015_May_21_1655	s	s	12	4	SIC	36	ABS	1	1	02VD 02VO 02VC 02MD 10MO 02MC 02RD 02RO	0	1	1.36470007896	None	None	None	None	1
2.7	2015_May_21_1655	s	s	12	4	SIC	37	RC	2	2	09VD 02VO 02VC 02MD 02MO 02MC 02RD 02RO	1	0	1.50627183914	393.0	326.0	385	326	1
2.7	2015_May_21_1655	s	s	12	4	SIC	38	ABS	1	0	02VD 02VO 02VC 02MD 02MO 10MC 02RD 02RO	0	1	2.07798910141	None	None	None	None	1
2.7	2015_May_21_1655	s	s	12	4	SIC	39	RC	2	0	02VD 02VO 09VC 02MD 02MO 02MC 02RD 02RO	1	0	0.870261907578	233.0	-318.0	239	-321	1
2.7	2015_May_21_1655	s	s	12	4	SIC	40	ABS	2	1	02VD 10VO 02VC 02MD 02MO 02MC 02RD 02RO	0	1	1.44717383385	None	None	None	None	1
2.7	2015_May_21_1655	s	s	12	4	SIC	41	ABS	2	2	10VD 02VO 02VC 02MD 02MO 02MC 02RD 02RO	0	1	1.67757797241	None	None	None	None	1
2.7	2015_May_21_1655	s	s	12	4	SIC	42	ABS	0	2	02VD 02VO 02VC 02MD 02MO 02MC 10RD 02RO	0	1	2.89488101006	None	None	None	None	1
2.7	2015_May_21_1655	s	s	12	4	SIC	43	RC	1	2	02VD 02VO 02VC 09MD 02MO 02MC 02RD 02RO	1	0	0.646972179413	-277.0	-42.0	-280	-40	1
2.7	2015_May_21_1655	s	s	12	4	SIC	44	RC	0	2	02VD 02VO 02VC 02MD 02MO 02MC 09RD 02RO	1	0	0.665608882904	-19.0	11.0	-12	10	1
2.7	2015_May_21_1655	s	s	12	4	SIC	45	RC	0	1	02VD 02VO 02VC 02MD 02MO 02MC 02RD 09RO	1	0	3.11293315887	-317.0	323.0	-317	322	1
2.7	2015_May_21_1655	s	s	12	4	SIC	46	ABS	0	1	02VD 02VO 02VC 02MD 02MO 02MC 02RD 10RO	0	1	3.71884298325	None	None	None	None	1
2.7	2015_May_21_1655	s	s	12	4	SIC	47	RC	2	1	02VD 09VO 02VC 02MD 02MO 02MC 02RD 02RO	1	0	0.882215023041	342.0	282.0	345	286	1
2.7	2015_May_21_1655	s	s	12	4	SIC	48	ABS	2	0	02VD 02VO 10VC 02MD 02MO 02MC 02RD 02RO	0	1	1.5133368969	None	None	None	None	1
2.7	2015_May_21_1655	s	s	12	4	SIC	49	ABS	0	1	02VD 02VO 02VC 02MD 02MO 02MC 02RD 10RO	0	1	3.27162194252	None	None	None	None	1
2.7	2015_May_21_1655	s	s	12	4	SIC	50	ABS	2	0	02VD 02VO 10VC 02MD 02MO 02MC 02RD 02RO	0	1	1.64717197418	None	None	None	None	1
2.7	2015_May_21_1655	s	s	12	4	SIC	51	RC	1	0	02VD 02VO 02VC 02MD 02MO 09MC 02RD 02RO	1	0	0.808434963226	-288.0	276.0	-288	276	1
2.7	2015_May_21_1655	s	s	12	4	SIC	52	ABS	2	2	10VD 02VO 02VC 02MD 02MO 02MC 02RD 02RO	0	1	1.49417996407	None	None	None	None	1
2.7	2015_May_21_1655	s	s	12	4	SIC	53	ABS	1	2	02VD 02VO 02VC 10MD 02MO 02MC 02RD 02RO	0	1	1.80634903908	None	None	None	None	1
2.7	2015_May_21_1655	s	s	12	4	SIC	54	ABS	1	0	02VD 02VO 02VC 02MD 02MO 10MC 02RD 02RO	0	1	3.52556204796	None	None	None	None	1
2.7	2015_May_21_1655	s	s	12	4	SIC	55	RC	0	1	02VD 02VO 02VC 02MD 02MO 02MC 02RD 09RO	1	0	1.96510195732	-27.0	317.0	-25	312	1
2.7	2015_May_21_1655	s	s	12	4	SIC	56	ABS	2	1	02VD 10VO 02VC 02MD 02MO 02MC 02RD 02RO	0	1	1.45420098305	None	None	None	None	1
2.7	2015_May_21_1655	s	s	12	4	SIC	57	RC	2	1	02VD 09VO 02VC 02MD 02MO 02MC 02RD 02RO	1	0	0.889086961746	-66.0	-377.0	-65	-380	1
2.7	2015_May_21_1655	s	s	12	4	SIC	58	RC	0	2	02VD 02VO 02VC 02MD 02MO 02MC 09RD 02RO	1	0	1.06588411331	399.0	281.0	400	280	1
2.7	2015_May_21_1655	s	s	12	4	SIC	59	RC	2	2	09VD 02VO 02VC 02MD 02MO 02MC 02RD 02RO	1	0	0.67707490921	227.0	-57.0	228	-57	1
2.7	2015_May_21_1655	s	s	12	4	SIC	60	RC	2	0	02VD 02VO 09VC 02MD 02MO 02MC 02RD 02RO	1	0	1.58598995209	-294.0	182.0	-287	180	1
2.7	2015_May_21_1655	s	s	12	4	SIC	61	RC	1	1	02VD 02VO 02VC 02MD 09MO 02MC 02RD 02RO	1	0	0.976305007935	167.0	-251.0	167	-248	1
2.7	2015_May_21_1655	s	s	12	4	SIC	62	ABS	1	1	02VD 02VO 02VC 02MD 10MO 02MC 02RD 02RO	0	1	1.7494301796	None	None	None	None	1
2.7	2015_May_21_1655	s	s	12	4	SIC	63	ABS	0	2	02VD 02VO 02VC 02MD 02MO 02MC 10RD 02RO	0	1	1.66605687141	None	None	None	None	1
2.7	2015_May_21_1655	s	s	12	4	SIC	64	RC	1	2	02VD 02VO 02VC 09MD 02MO 02MC 02RD 02RO	1	0	1.14095211029	359.0	260.0	356	257	1
2.7	2015_May_21_1655	s	s	12	4	SIC	65	ABS	1	1	02VD 02VO 02VC 02MD 10MO 02MC 02RD 02RO	0	1	1.84061598778	None	None	None	None	1
2.7	2015_May_21_1655	s	s	12	4	SIC	66	RC	2	2	09VD 02VO 02VC 02MD 02MO 02MC 02RD 02RO	1	0	1.07050299644	-104.0	189.0	-106	190	1
2.7	2015_May_21_1655	s	s	12	4	SIC	67	RC	2	1	02VD 09VO 02VC 02MD 02MO 02MC 02RD 02RO	1	0	1.36232995987	-397.0	-109.0	-398	-108	1
2.7	2015_May_21_1655	s	s	12	4	SIC	68	RC	1	0	02VD 02VO 02VC 02MD 02MO 09MC 02RD 02RO	1	0	2.29456710815	104.0	318.0	111	319	1
2.7	2015_May_21_1655	s	s	12	4	SIC	69	ABS	2	1	02VD 10VO 02VC 02MD 02MO 02MC 02RD 02RO	0	1	1.4656689167	None	None	None	None	1
2.7	2015_May_21_1655	s	s	12	4	SIC	70	RC	1	1	02VD 02VO 02VC 02MD 09MO 02MC 02RD 02RO	1	0	0.529764890671	-39.0	-76.0	-37	-71	1
2.7	2015_May_21_1655	s	s	12	4	SIC	71	ABS	0	1	02VD 02VO 02VC 02MD 02MO 02MC 02RD 10RO	0	1	2.98637413979	None	None	None	None	1
2.7	2015_May_21_1655	s	s	12	4	SIC	72	RC	1	2	02VD 02VO 02VC 09MD 02MO 02MC 02RD 02RO	1	0	0.823292970657	275.0	-309.0	279	-316	1
2.7	2015_May_21_1655	s	s	12	4	SIC	73	RC	2	0	02VD 02VO 09VC 02MD 02MO 02MC 02RD 02RO	1	0	0.868221998215	405.0	245.0	403	236	1
2.7	2015_May_21_1655	s	s	12	4	SIC	74	RC	0	2	02VD 02VO 02VC 02MD 02MO 02MC 09RD 02RO	1	0	1.08903098106	486.0	-224.0	489	-230	1
2.7	2015_May_21_1655	s	s	12	4	SIC	75	RC	0	1	02VD 02VO 02VC 02MD 02MO 02MC 02RD 09RO	1	0	0.746172904968	7.0	-56.0	9	-54	1
2.7	2015_May_21_1655	s	s	12	4	SIC	76	ABS	1	0	02VD 02VO 02VC 02MD 02MO 10MC 02RD 02RO	0	1	2.41596889496	None	None	None	None	1
2.7	2015_May_21_1655	s	s	12	4	SIC	77	ABS	1	2	02VD 02VO 02VC 10MD 02MO 02MC 02RD 02RO	0	1	2.01215004921	None	None	None	None	1
2.7	2015_May_21_1655	s	s	12	4	SIC	78	ABS	2	0	02VD 02VO 10VC 02MD 02MO 02MC 02RD 02RO	1	0	1.54820203781	None	None	40	-42	0
2.7	2015_May_21_1655	s	s	12	4	SIC	79	ABS	2	2	10VD 02VO 02VC 02MD 02MO 02MC 02RD 02RO	0	1	1.57127213478	None	None	None	None	1
2.7	2015_May_21_1655	s	s	12	4	SIC	80	ABS	0	2	02VD 02VO 02VC 02MD 02MO 02MC 10RD 02RO	0	1	1.51819610596	None	None	None	None	1
2.7	2015_May_21_1655	s	s	12	4	SIC	81	RC	2	2	09VD 02VO 02VC 02MD 02MO 02MC 02RD 02RO	1	0	0.890352964401	-50.0	294.0	-52	286	1
2.7	2015_May_21_1655	s	s	12	4	SIC	82	RC	1	1	02VD 02VO 02VC 02MD 09MO 02MC 02RD 02RO	1	0	0.724124908447	100.0	31.0	94	32	1
2.7	2015_May_21_1655	s	s	12	4	SIC	83	ABS	1	2	02VD 02VO 02VC 10MD 02MO 02MC 02RD 02RO	0	1	1.70140600204	None	None	None	None	1
2.7	2015_May_21_1655	s	s	12	4	SIC	84	ABS	2	2	10VD 02VO 02VC 02MD 02MO 02MC 02RD 02RO	0	1	1.63049697876	None	None	None	None	1
2.7	2015_May_21_1655	s	s	12	4	SIC	85	ABS	2	1	02VD 10VO 02VC 02MD 02MO 02MC 02RD 02RO	0	1	1.80027604103	None	None	None	None	1
2.7	2015_May_21_1655	s	s	12	4	SIC	86	ABS	1	0	02VD 02VO 02VC 02MD 02MO 10MC 02RD 02RO	0	1	2.41234087944	None	None	None	None	1
2.7	2015_May_21_1655	s	s	12	4	SIC	87	ABS	0	2	02VD 02VO 02VC 02MD 02MO 02MC 10RD 02RO	0	1	2.57745194435	None	None	None	None	1
2.7	2015_May_21_1655	s	s	12	4	SIC	88	ABS	0	1	02VD 02VO 02VC 02MD 02MO 02MC 02RD 10RO	0	1	2.8953640461	None	None	None	None	1
2.7	2015_May_21_1655	s	s	12	4	SIC	89	ABS	2	0	02VD 02VO 10VC 02MD 02MO 02MC 02RD 02RO	0	1	1.63560700417	None	None	None	None	1
2.7	2015_May_21_1655	s	s	12	4	SIC	90	RC	0	1	02VD 02VO 02VC 02MD 02MO 02MC 02RD 09RO	1	0	1.78370118141	-228.0	-181.0	-224	-187	1
2.7	2015_May_21_1655	s	s	12	4	SIC	91	RC	0	2	02VD 02VO 02VC 02MD 02MO 02MC 09RD 02RO	1	0	1.52467298508	-531.0	-321.0	-532	-323	1
2.7	2015_May_21_1655	s	s	12	4	SIC	92	RC	2	0	02VD 02VO 09VC 02MD 02MO 02MC 02RD 02RO	1	0	1.8658490181	432.0	238.0	438	237	1
2.7	2015_May_21_1655	s	s	12	4	SIC	93	RC	1	0	02VD 02VO 02VC 02MD 02MO 09MC 02RD 02RO	1	0	1.67802715302	-503.0	-106.0	-504	-102	1
2.7	2015_May_21_1655	s	s	12	4	SIC	94	RC	1	2	02VD 02VO 02VC 09MD 02MO 02MC 02RD 02RO	1	0	1.38834214211	420.0	-236.0	423	-242	1
2.7	2015_May_21_1655	s	s	12	4	SIC	95	ABS	1	1	02VD 02VO 02VC 02MD 10MO 02MC 02RD 02RO	0	1	2.30639386177	None	None	None	None	1
2.7	2015_May_21_1655	s	s	12	4	SIC	96	RC	2	1	02VD 09VO 02VC 02MD 02MO 02MC 02RD 02RO	1	0	0.888602972031	-224.0	212.0	-220	212	1
2.7	2015_May_21_1655	s	s	12	4	SIC	97	RC	1	1	02VD 02VO 02VC 02MD 09MO 02MC 02RD 02RO	1	0	0.540828943253	-48.0	-122.0	-52	-117	1
2.7	2015_May_21_1655	s	s	12	4	SIC	98	ABS	1	1	02VD 02VO 02VC 02MD 10MO 02MC 02RD 02RO	0	1	2.55364203453	None	None	None	None	1
2.7	2015_May_21_1655	s	s	12	4	SIC	99	RC	0	1	02VD 02VO 02VC 02MD 02MO 02MC 02RD 09RO	1	0	1.52953314781	270.0	-339.0	260	-336	1
2.7	2015_May_21_1655	s	s	12	4	SIC	100	ABS	0	1	02VD 02VO 02VC 02MD 02MO 02MC 02RD 10RO	0	1	3.07822990417	None	None	None	None	1
2.7	2015_May_21_1655	s	s	12	4	SIC	101	RC	2	0	02VD 02VO 09VC 02MD 02MO 02MC 02RD 02RO	1	0	1.19999217987	390.0	263.0	395	256	1
2.7	2015_May_21_1655	s	s	12	4	SIC	102	ABS	1	0	02VD 02VO 02VC 02MD 02MO 10MC 02RD 02RO	0	1	2.327698946	None	None	None	None	1
2.7	2015_May_21_1655	s	s	12	4	SIC	103	RC	0	2	02VD 02VO 02VC 02MD 02MO 02MC 09RD 02RO	1	0	2.41237711906	499.0	356.0	510	362	1
2.7	2015_May_21_1655	s	s	12	4	SIC	104	ABS	2	1	02VD 10VO 02VC 02MD 02MO 02MC 02RD 02RO	0	1	2.00717687607	None	None	None	None	1
2.7	2015_May_21_1655	s	s	12	4	SIC	105	RC	2	1	02VD 09VO 02VC 02MD 02MO 02MC 02RD 02RO	1	0	1.09432601929	-459.0	94.0	-456	88	1
2.7	2015_May_21_1655	s	s	12	4	SIC	106	ABS	0	2	02VD 02VO 02VC 02MD 02MO 02MC 10RD 02RO	0	1	1.96887087822	None	None	None	None	1
2.7	2015_May_21_1655	s	s	12	4	SIC	107	ABS	2	2	10VD 02VO 02VC 02MD 02MO 02MC 02RD 02RO	1	0	0.84675693512	None	None	309	-160	0
2.7	2015_May_21_1655	s	s	12	4	SIC	108	RC	1	2	02VD 02VO 02VC 09MD 02MO 02MC 02RD 02RO	1	0	0.693835020065	452.0	-27.0	456	-30	1
2.7	2015_May_21_1655	s	s	12	4	SIC	109	RC	2	2	09VD 02VO 02VC 02MD 02MO 02MC 02RD 02RO	1	0	0.783342838287	195.0	-355.0	199	-357	1
2.7	2015_May_21_1655	s	s	12	4	SIC	110	RC	1	0	02VD 02VO 02VC 02MD 02MO 09MC 02RD 02RO	1	0	0.505552053452	-62.0	-111.0	-56	-117	1
2.7	2015_May_21_1655	s	s	12	4	SIC	111	ABS	1	2	02VD 02VO 02VC 10MD 02MO 02MC 02RD 02RO	0	1	1.8001730442	None	None	None	None	1
2.7	2015_May_21_1655	s	s	12	4	SIC	112	ABS	2	0	02VD 02VO 10VC 02MD 02MO 02MC 02RD 02RO	0	1	1.73019313812	None	None	None	None	1
2.7	2015_May_21_1655	s	s	12	4	SIC	113	RC	2	1	02VD 09VO 02VC 02MD 02MO 02MC 02RD 02RO	1	0	1.10203289986	-371.0	-276.0	-378	-278	1
2.7	2015_May_21_1655	s	s	12	4	SIC	114	RC	2	2	09VD 02VO 02VC 02MD 02MO 02MC 02RD 02RO	1	0	1.78552603722	520.0	-290.0	528	-292	1
2.7	2015_May_21_1655	s	s	12	4	SIC	115	ABS	1	0	02VD 02VO 02VC 02MD 02MO 10MC 02RD 02RO	0	1	2.28006601334	None	None	None	None	1
2.7	2015_May_21_1655	s	s	12	4	SIC	116	RC	1	1	02VD 02VO 02VC 02MD 09MO 02MC 02RD 02RO	1	0	1.45889592171	408.0	375.0	403	369	1
2.7	2015_May_21_1655	s	s	12	4	SIC	117	ABS	2	0	02VD 02VO 10VC 02MD 02MO 02MC 02RD 02RO	0	1	1.62043190002	None	None	None	None	1
2.7	2015_May_21_1655	s	s	12	4	SIC	118	RC	1	0	02VD 02VO 02VC 02MD 02MO 09MC 02RD 02RO	1	0	0.893793106079	341.0	-308.0	336	-303	1
2.7	2015_May_21_1655	s	s	12	4	SIC	119	ABS	0	2	02VD 02VO 02VC 02MD 02MO 02MC 10RD 02RO	0	1	2.38382196426	None	None	None	None	1
2.7	2015_May_21_1655	s	s	12	4	SIC	120	RC	0	2	02VD 02VO 02VC 02MD 02MO 02MC 09RD 02RO	1	0	1.10260796547	-409.0	-314.0	-406	-313	1
2.7	2015_May_21_1655	s	s	12	4	SIC	121	ABS	2	1	02VD 10VO 02VC 02MD 02MO 02MC 02RD 02RO	0	1	1.91793489456	None	None	None	None	1
2.7	2015_May_21_1655	s	s	12	4	SIC	122	RC	1	2	02VD 02VO 02VC 09MD 02MO 02MC 02RD 02RO	1	0	1.50104689598	45.0	349.0	53	345	1
2.7	2015_May_21_1655	s	s	12	4	SIC	123	ABS	0	1	02VD 02VO 02VC 02MD 02MO 02MC 02RD 10RO	0	1	2.96062088013	None	None	None	None	1
2.7	2015_May_21_1655	s	s	12	4	SIC	124	RC	0	1	02VD 02VO 02VC 02MD 02MO 02MC 02RD 09RO	1	0	1.04736995697	417.0	-355.0	412	-365	1
2.7	2015_May_21_1655	s	s	12	4	SIC	125	ABS	1	2	02VD 02VO 02VC 10MD 02MO 02MC 02RD 02RO	0	1	1.62049984932	None	None	None	None	1
2.7	2015_May_21_1655	s	s	12	4	SIC	126	RC	2	0	02VD 02VO 09VC 02MD 02MO 02MC 02RD 02RO	1	0	0.934298992157	288.0	103.0	299	109	1
2.7	2015_May_21_1655	s	s	12	4	SIC	127	ABS	1	1	02VD 02VO 02VC 02MD 10MO 02MC 02RD 02RO	0	1	2.64775896072	None	None	None	None	1
2.7	2015_May_21_1655	s	s	12	4	SIC	128	ABS	2	2	10VD 02VO 02VC 02MD 02MO 02MC 02RD 02RO	0	1	1.58839297295	None	None	None	None	1
2.7	2015_May_21_1655	s	s	12	4	SIC	129	RC	2	0	02VD 02VO 09VC 02MD 02MO 02MC 02RD 02RO	1	0	1.17158293724	-477.0	57.0	-479	55	1
2.7	2015_May_21_1655	s	s	12	4	SIC	130	ABS	1	2	02VD 02VO 02VC 10MD 02MO 02MC 02RD 02RO	0	1	1.72965693474	None	None	None	None	1
2.7	2015_May_21_1655	s	s	12	4	SIC	131	RC	1	0	02VD 02VO 02VC 02MD 02MO 09MC 02RD 02RO	1	0	0.729168891907	96.0	-185.0	88	-181	1
2.7	2015_May_21_1655	s	s	12	4	SIC	132	RC	1	2	02VD 02VO 02VC 09MD 02MO 02MC 02RD 02RO	1	0	0.823333024979	-181.0	38.0	-179	40	1
2.7	2015_May_21_1655	s	s	12	4	SIC	133	ABS	2	2	10VD 02VO 02VC 02MD 02MO 02MC 02RD 02RO	0	1	1.63078904152	None	None	None	None	1
2.7	2015_May_21_1655	s	s	12	4	SIC	134	RC	2	2	09VD 02VO 02VC 02MD 02MO 02MC 02RD 02RO	1	0	1.9487349987	413.0	-295.0	414	-295	1
2.7	2015_May_21_1655	s	s	12	4	SIC	135	RC	0	2	02VD 02VO 02VC 02MD 02MO 02MC 09RD 02RO	1	0	1.37354493141	178.0	232.0	176	228	1
2.7	2015_May_21_1655	s	s	12	4	SIC	136	ABS	0	2	02VD 02VO 02VC 02MD 02MO 02MC 10RD 02RO	0	1	1.80717897415	None	None	None	None	1
2.7	2015_May_21_1655	s	s	12	4	SIC	137	ABS	1	0	02VD 02VO 02VC 02MD 02MO 10MC 02RD 02RO	1	0	2.02390694618	None	None	47	76	0
2.7	2015_May_21_1655	s	s	12	4	SIC	138	ABS	2	1	02VD 10VO 02VC 02MD 02MO 02MC 02RD 02RO	0	1	1.64215707779	None	None	None	None	1
2.7	2015_May_21_1655	s	s	12	4	SIC	139	ABS	2	0	02VD 02VO 10VC 02MD 02MO 02MC 02RD 02RO	0	1	1.96500992775	None	None	None	None	1
2.7	2015_May_21_1655	s	s	12	4	SIC	140	RC	0	1	02VD 02VO 02VC 02MD 02MO 02MC 02RD 09RO	1	0	0.835104942322	-63.0	-243.0	-60	-242	1
2.7	2015_May_21_1655	s	s	12	4	SIC	141	ABS	0	1	02VD 02VO 02VC 02MD 02MO 02MC 02RD 10RO	0	1	3.98461389542	None	None	None	None	1
2.7	2015_May_21_1655	s	s	12	4	SIC	142	ABS	1	1	02VD 02VO 02VC 02MD 10MO 02MC 02RD 02RO	0	1	1.69433188438	None	None	None	None	1
2.7	2015_May_21_1655	s	s	12	4	SIC	143	RC	2	1	02VD 09VO 02VC 02MD 02MO 02MC 02RD 02RO	1	0	0.77142906189	-45.0	43.0	-36	42	1
2.7	2015_May_21_1655	s	s	12	4	SIC	144	RC	1	1	02VD 02VO 02VC 02MD 09MO 02MC 02RD 02RO	1	0	1.77096319199	-383.0	410.0	-383	405	1
2.7	2015_May_21_1655	s	s	12	4	SIC	145	RC	1	2	02VD 02VO 02VC 09MD 02MO 02MC 02RD 02RO	1	0	1.70111584663	70.0	305.0	80	304	1
2.7	2015_May_21_1655	s	s	12	4	SIC	146	ABS	1	0	02VD 02VO 02VC 02MD 02MO 10MC 02RD 02RO	0	1	1.83078598976	None	None	None	None	1
2.7	2015_May_21_1655	s	s	12	4	SIC	147	RC	2	2	09VD 02VO 02VC 02MD 02MO 02MC 02RD 02RO	1	0	0.752722978592	365.0	3.0	366	-1	1
2.7	2015_May_21_1655	s	s	12	4	SIC	148	RC	0	2	02VD 02VO 02VC 02MD 02MO 02MC 09RD 02RO	1	0	0.98856306076	-509.0	282.0	-502	277	1
2.7	2015_May_21_1655	s	s	12	4	SIC	149	ABS	0	2	02VD 02VO 02VC 02MD 02MO 02MC 10RD 02RO	0	1	4.90751099586	None	None	None	None	1
2.7	2015_May_21_1655	s	s	12	4	SIC	150	ABS	2	0	02VD 02VO 10VC 02MD 02MO 02MC 02RD 02RO	0	1	3.36100101471	None	None	None	None	1
2.7	2015_May_21_1655	s	s	12	4	SIC	151	ABS	2	1	02VD 10VO 02VC 02MD 02MO 02MC 02RD 02RO	0	1	2.91348695755	None	None	None	None	1
2.7	2015_May_21_1655	s	s	12	4	SIC	152	RC	2	0	02VD 02VO 09VC 02MD 02MO 02MC 02RD 02RO	1	0	1.00651097298	-8.0	126.0	-8	118	1
2.7	2015_May_21_1655	s	s	12	4	SIC	153	ABS	1	2	02VD 02VO 02VC 10MD 02MO 02MC 02RD 02RO	0	1	1.65932703018	None	None	None	None	1
2.7	2015_May_21_1655	s	s	12	4	SIC	154	ABS	2	2	10VD 02VO 02VC 02MD 02MO 02MC 02RD 02RO	0	1	1.40004396439	None	None	None	None	1
2.7	2015_May_21_1655	s	s	12	4	SIC	155	ABS	1	1	02VD 02VO 02VC 02MD 10MO 02MC 02RD 02RO	0	1	2.28329515457	None	None	None	None	1
2.7	2015_May_21_1655	s	s	12	4	SIC	156	ABS	0	1	02VD 02VO 02VC 02MD 02MO 02MC 02RD 10RO	0	1	3.64066696167	None	None	None	None	1
2.7	2015_May_21_1655	s	s	12	4	SIC	157	RC	0	1	02VD 02VO 02VC 02MD 02MO 02MC 02RD 09RO	1	0	0.900907039642	-427.0	-52.0	-422	-58	1
2.7	2015_May_21_1655	s	s	12	4	SIC	158	RC	1	1	02VD 02VO 02VC 02MD 09MO 02MC 02RD 02RO	1	0	1.06549501419	247.0	193.0	246	186	1
2.7	2015_May_21_1655	s	s	12	4	SIC	159	RC	1	0	02VD 02VO 02VC 02MD 02MO 09MC 02RD 02RO	1	0	1.24374198914	-309.0	-187.0	-310	-193	1
2.7	2015_May_21_1655	s	s	12	4	SIC	160	RC	2	1	02VD 09VO 02VC 02MD 02MO 02MC 02RD 02RO	1	0	2.23955702782	123.0	-405.0	117	-401	1
2.7	2015_May_21_1655	s	s	12	4	SIC	161	ABS	1	0	02VD 02VO 02VC 02MD 02MO 10MC 02RD 02RO	0	1	2.87842917442	None	None	None	None	1
2.7	2015_May_21_1655	s	s	12	4	SIC	162	RC	1	1	02VD 02VO 02VC 02MD 09MO 02MC 02RD 02RO	1	0	0.959573030472	207.0	220.0	208	222	1
2.7	2015_May_21_1655	s	s	12	4	SIC	163	ABS	0	1	02VD 02VO 02VC 02MD 02MO 02MC 02RD 10RO	0	1	3.09125781059	None	None	None	None	1
2.7	2015_May_21_1655	s	s	12	4	SIC	164	RC	2	0	02VD 02VO 09VC 02MD 02MO 02MC 02RD 02RO	1	0	1.51272320747	-510.0	283.0	-511	283	1
2.7	2015_May_21_1655	s	s	12	4	SIC	165	RC	2	2	09VD 02VO 02VC 02MD 02MO 02MC 02RD 02RO	1	0	1.50600099564	-460.0	-391.0	-457	-391	1
2.7	2015_May_21_1655	s	s	12	4	SIC	166	ABS	2	0	02VD 02VO 10VC 02MD 02MO 02MC 02RD 02RO	0	1	2.24235606194	None	None	None	None	1
2.7	2015_May_21_1655	s	s	12	4	SIC	167	ABS	2	2	10VD 02VO 02VC 02MD 02MO 02MC 02RD 02RO	0	1	1.86845707893	None	None	None	None	1
2.7	2015_May_21_1655	s	s	12	4	SIC	168	ABS	1	2	02VD 02VO 02VC 10MD 02MO 02MC 02RD 02RO	0	1	1.9838540554	None	None	None	None	1
2.7	2015_May_21_1655	s	s	12	4	SIC	169	RC	1	0	02VD 02VO 02VC 02MD 02MO 09MC 02RD 02RO	1	0	0.929260969162	-403.0	-229.0	-398	-228	1
2.7	2015_May_21_1655	s	s	12	4	SIC	170	RC	0	2	02VD 02VO 02VC 02MD 02MO 02MC 09RD 02RO	1	0	1.60778594017	-465.0	372.0	-463	372	1
2.7	2015_May_21_1655	s	s	12	4	SIC	171	ABS	1	1	02VD 02VO 02VC 02MD 10MO 02MC 02RD 02RO	0	1	2.95125389099	None	None	None	None	1
2.7	2015_May_21_1655	s	s	12	4	SIC	172	ABS	0	2	02VD 02VO 02VC 02MD 02MO 02MC 10RD 02RO	0	1	2.06300711632	None	None	None	None	1
2.7	2015_May_21_1655	s	s	12	4	SIC	173	RC	1	2	02VD 02VO 02VC 09MD 02MO 02MC 02RD 02RO	0	1	1.47673606873	512.0	222.0	None	None	0
2.7	2015_May_21_1655	s	s	12	4	SIC	174	ABS	2	1	02VD 10VO 02VC 02MD 02MO 02MC 02RD 02RO	0	1	1.43036413193	None	None	None	None	1
2.7	2015_May_21_1655	s	s	12	4	SIC	175	RC	0	1	02VD 02VO 02VC 02MD 02MO 02MC 02RD 09RO	1	0	2.19568300247	-453.0	298.0	-458	298	1
2.7	2015_May_21_1655	s	s	12	4	SIC	176	RC	2	1	02VD 09VO 02VC 02MD 02MO 02MC 02RD 02RO	1	0	2.03945708275	-138.0	285.0	-141	279	1
2.7	2015_May_21_1655	s	s	12	4	SIC	177	RC	1	0	02VD 02VO 02VC 02MD 02MO 09MC 02RD 02RO	1	0	0.917546033859	227.0	-4.0	233	-2	1
2.7	2015_May_21_1655	s	s	12	4	SIC	178	RC	1	1	02VD 02VO 02VC 02MD 09MO 02MC 02RD 02RO	1	0	0.830841064453	-468.0	-401.0	-464	-406	1
2.7	2015_May_21_1655	s	s	12	4	SIC	179	ABS	1	1	02VD 02VO 02VC 02MD 10MO 02MC 02RD 02RO	0	1	3.15386414528	None	None	None	None	1
2.7	2015_May_21_1655	s	s	12	4	SIC	180	ABS	1	0	02VD 02VO 02VC 02MD 02MO 10MC 02RD 02RO	0	1	1.77142000198	None	None	None	None	1
2.7	2015_May_21_1655	s	s	12	4	SIC	181	RC	1	2	02VD 02VO 02VC 09MD 02MO 02MC 02RD 02RO	1	0	0.658739089966	-275.0	-58.0	-276	-61	1
2.7	2015_May_21_1655	s	s	12	4	SIC	182	RC	2	1	02VD 09VO 02VC 02MD 02MO 02MC 02RD 02RO	1	0	1.27052688599	527.0	-217.0	529	-219	1
2.7	2015_May_21_1655	s	s	12	4	SIC	183	RC	0	1	02VD 02VO 02VC 02MD 02MO 02MC 02RD 09RO	1	0	1.03521680832	94.0	8.0	98	10	1
2.7	2015_May_21_1655	s	s	12	4	SIC	184	ABS	0	1	02VD 02VO 02VC 02MD 02MO 02MC 02RD 10RO	0	1	3.05605101585	None	None	None	None	1
2.7	2015_May_21_1655	s	s	12	4	SIC	185	ABS	2	1	02VD 10VO 02VC 02MD 02MO 02MC 02RD 02RO	0	1	2.12978982925	None	None	None	None	1
2.7	2015_May_21_1655	s	s	12	4	SIC	186	ABS	2	0	02VD 02VO 10VC 02MD 02MO 02MC 02RD 02RO	0	1	1.61910796165	None	None	None	None	1
2.7	2015_May_21_1655	s	s	12	4	SIC	187	RC	2	2	09VD 02VO 02VC 02MD 02MO 02MC 02RD 02RO	1	0	1.3416390419	-537.0	139.0	-542	136	1
2.7	2015_May_21_1655	s	s	12	4	SIC	188	ABS	1	2	02VD 02VO 02VC 10MD 02MO 02MC 02RD 02RO	0	1	1.48937392235	None	None	None	None	1
2.7	2015_May_21_1655	s	s	12	4	SIC	189	RC	2	0	02VD 02VO 09VC 02MD 02MO 02MC 02RD 02RO	1	0	1.11112093925	-231.0	190.0	-224	190	1
2.7	2015_May_21_1655	s	s	12	4	SIC	190	ABS	0	2	02VD 02VO 02VC 02MD 02MO 02MC 10RD 02RO	0	1	1.80718302727	None	None	None	None	1
2.7	2015_May_21_1655	s	s	12	4	SIC	191	RC	0	2	02VD 02VO 02VC 02MD 02MO 02MC 09RD 02RO	1	0	0.831851959229	-226.0	-334.0	-220	-326	1
2.7	2015_May_21_1655	s	s	12	4	SIC	192	ABS	2	2	10VD 02VO 02VC 02MD 02MO 02MC 02RD 02RO	0	1	1.92172288895	None	None	None	None	1
2.7	2015_May_21_1655	s	s	12	4	SIC	193	ABS	0	2	02VD 02VO 02VC 02MD 02MO 02MC 10RD 02RO	0	1	1.57701301575	None	None	None	None	1
2.7	2015_May_21_1655	s	s	12	4	SIC	194	RC	2	1	02VD 09VO 02VC 02MD 02MO 02MC 02RD 02RO	1	0	1.54166483879	455.0	-81.0	459	-73	1
2.7	2015_May_21_1655	s	s	12	4	SIC	195	RC	2	0	02VD 02VO 09VC 02MD 02MO 02MC 02RD 02RO	1	0	1.45594286919	-210.0	255.0	-215	259	1
2.7	2015_May_21_1655	s	s	12	4	SIC	196	ABS	0	1	02VD 02VO 02VC 02MD 02MO 02MC 02RD 10RO	0	1	2.73699688911	None	None	None	None	1
2.7	2015_May_21_1655	s	s	12	4	SIC	197	RC	1	1	02VD 02VO 02VC 02MD 09MO 02MC 02RD 02RO	1	0	1.37654209137	485.0	261.0	490	261	1
2.7	2015_May_21_1655	s	s	12	4	SIC	198	RC	1	2	02VD 02VO 02VC 09MD 02MO 02MC 02RD 02RO	1	0	1.08897399902	-291.0	347.0	-291	342	1
2.7	2015_May_21_1655	s	s	12	4	SIC	199	ABS	2	0	02VD 02VO 10VC 02MD 02MO 02MC 02RD 02RO	0	1	1.49095392227	None	None	None	None	1
2.7	2015_May_21_1655	s	s	12	4	SIC	200	ABS	2	1	02VD 10VO 02VC 02MD 02MO 02MC 02RD 02RO	0	1	1.74143910408	None	None	None	None	1
2.7	2015_May_21_1655	s	s	12	4	SIC	201	ABS	1	0	02VD 02VO 02VC 02MD 02MO 10MC 02RD 02RO	0	1	1.94530200958	None	None	None	None	1
2.7	2015_May_21_1655	s	s	12	4	SIC	202	RC	0	1	02VD 02VO 02VC 02MD 02MO 02MC 02RD 09RO	1	0	2.48295092583	108.0	-338.0	105	-339	1
2.7	2015_May_21_1655	s	s	12	4	SIC	203	RC	0	2	02VD 02VO 02VC 02MD 02MO 02MC 09RD 02RO	1	0	0.853804826736	-158.0	-204.0	-162	-206	1
2.7	2015_May_21_1655	s	s	12	4	SIC	204	ABS	1	1	02VD 02VO 02VC 02MD 10MO 02MC 02RD 02RO	0	1	2.24754285812	None	None	None	None	1
2.7	2015_May_21_1655	s	s	12	4	SIC	205	ABS	1	2	02VD 02VO 02VC 10MD 02MO 02MC 02RD 02RO	0	1	1.44229197502	None	None	None	None	1
2.7	2015_May_21_1655	s	s	12	4	SIC	206	RC	1	0	02VD 02VO 02VC 02MD 02MO 09MC 02RD 02RO	1	0	0.890722990036	195.0	188.0	186	184	1
2.7	2015_May_21_1655	s	s	12	4	SIC	207	RC	2	2	09VD 02VO 02VC 02MD 02MO 02MC 02RD 02RO	1	0	0.617636919022	-89.0	36.0	-91	33	1
2.7	2015_May_21_1655	s	s	12	4	SIC	208	ABS	2	2	10VD 02VO 02VC 02MD 02MO 02MC 02RD 02RO	0	1	1.48859286308	None	None	None	None	1
2.7	2015_May_21_1655	s	s	12	4	SIC	209	RC	2	2	09VD 02VO 02VC 02MD 02MO 02MC 02RD 02RO	1	0	1.40724611282	506.0	265.0	513	262	1
2.7	2015_May_21_1655	s	s	12	4	SIC	210	ABS	1	1	02VD 02VO 02VC 02MD 10MO 02MC 02RD 02RO	0	1	2.65954995155	None	None	None	None	1
2.7	2015_May_21_1655	s	s	12	4	SIC	211	RC	0	2	02VD 02VO 02VC 02MD 02MO 02MC 09RD 02RO	1	0	1.78851485252	99.0	310.0	96	311	1
2.7	2015_May_21_1655	s	s	12	4	SIC	212	ABS	2	1	02VD 10VO 02VC 02MD 02MO 02MC 02RD 02RO	0	1	1.58409690857	None	None	None	None	1
2.7	2015_May_21_1655	s	s	12	4	SIC	213	ABS	0	2	02VD 02VO 02VC 02MD 02MO 02MC 10RD 02RO	0	1	1.64189505577	None	None	None	None	1
2.7	2015_May_21_1655	s	s	12	4	SIC	214	ABS	2	2	10VD 02VO 02VC 02MD 02MO 02MC 02RD 02RO	0	1	1.84241986275	None	None	None	None	1
2.7	2015_May_21_1655	s	s	12	4	SIC	215	RC	0	1	02VD 02VO 02VC 02MD 02MO 02MC 02RD 09RO	1	0	1.1494910717	74.0	104.0	76	95	1
2.7	2015_May_21_1655	s	s	12	4	SIC	216	RC	2	0	02VD 02VO 09VC 02MD 02MO 02MC 02RD 02RO	1	0	2.35348105431	-489.0	264.0	-488	266	1
2.7	2015_May_21_1655	s	s	12	4	SIC	217	RC	1	0	02VD 02VO 02VC 02MD 02MO 09MC 02RD 02RO	1	0	1.5296318531	-102.0	332.0	-103	332	1
2.7	2015_May_21_1655	s	s	12	4	SIC	218	RC	1	2	02VD 02VO 02VC 09MD 02MO 02MC 02RD 02RO	1	0	1.81918811798	-303.0	189.0	-304	189	1
2.7	2015_May_21_1655	s	s	12	4	SIC	219	RC	1	1	02VD 02VO 02VC 02MD 09MO 02MC 02RD 02RO	1	0	1.23122406006	355.0	308.0	353	303	1
2.7	2015_May_21_1655	s	s	12	4	SIC	220	ABS	1	2	02VD 02VO 02VC 10MD 02MO 02MC 02RD 02RO	0	1	1.42037606239	None	None	None	None	1
2.7	2015_May_21_1655	s	s	12	4	SIC	221	ABS	2	0	02VD 02VO 10VC 02MD 02MO 02MC 02RD 02RO	0	1	1.79782104492	None	None	None	None	1
2.7	2015_May_21_1655	s	s	12	4	SIC	222	ABS	1	0	02VD 02VO 02VC 02MD 02MO 10MC 02RD 02RO	0	1	2.05920910835	None	None	None	None	1
2.7	2015_May_21_1655	s	s	12	4	SIC	223	RC	2	1	02VD 09VO 02VC 02MD 02MO 02MC 02RD 02RO	0	1	0.399605989456	18.0	314.0	None	None	0
2.7	2015_May_21_1655	s	s	12	4	SIC	224	ABS	0	1	02VD 02VO 02VC 02MD 02MO 02MC 02RD 10RO	0	1	3.96163892746	None	None	None	None	1
2.7	2015_May_21_1655	s	s	12	4	SIC	225	ABS	1	1	02VD 02VO 02VC 02MD 10MO 02MC 02RD 02RO	0	1	2.31059193611	None	None	None	None	1
2.7	2015_May_21_1655	s	s	12	4	SIC	226	ABS	0	1	02VD 02VO 02VC 02MD 02MO 02MC 02RD 10RO	0	1	2.9226641655	None	None	None	None	1
2.7	2015_May_21_1655	s	s	12	4	SIC	227	RC	0	2	02VD 02VO 02VC 02MD 02MO 02MC 09RD 02RO	1	0	1.52397012711	112.0	290.0	111	295	1
2.7	2015_May_21_1655	s	s	12	4	SIC	228	RC	1	1	02VD 02VO 02VC 02MD 09MO 02MC 02RD 02RO	1	0	1.39206695557	-491.0	-327.0	-485	-321	1
2.7	2015_May_21_1655	s	s	12	4	SIC	229	RC	2	0	02VD 02VO 09VC 02MD 02MO 02MC 02RD 02RO	1	0	1.14105510712	-126.0	87.0	-118	90	1
2.7	2015_May_21_1655	s	s	12	4	SIC	230	ABS	1	2	02VD 02VO 02VC 10MD 02MO 02MC 02RD 02RO	0	1	1.87761521339	None	None	None	None	1
2.7	2015_May_21_1655	s	s	12	4	SIC	231	ABS	1	0	02VD 02VO 02VC 02MD 02MO 10MC 02RD 02RO	0	1	2.58242106438	None	None	None	None	1
2.7	2015_May_21_1655	s	s	12	4	SIC	232	RC	1	0	02VD 02VO 02VC 02MD 02MO 09MC 02RD 02RO	1	0	0.995157957077	433.0	61.0	434	58	1
2.7	2015_May_21_1655	s	s	12	4	SIC	233	RC	0	1	02VD 02VO 02VC 02MD 02MO 02MC 02RD 09RO	1	0	0.995052814484	-452.0	-135.0	-451	-134	1
2.7	2015_May_21_1655	s	s	12	4	SIC	234	RC	2	1	02VD 09VO 02VC 02MD 02MO 02MC 02RD 02RO	1	0	0.855296850204	-37.0	-285.0	-44	-282	1
2.7	2015_May_21_1655	s	s	12	4	SIC	235	ABS	2	2	10VD 02VO 02VC 02MD 02MO 02MC 02RD 02RO	0	1	1.70615005493	None	None	None	None	1
2.7	2015_May_21_1655	s	s	12	4	SIC	236	RC	1	2	02VD 02VO 02VC 09MD 02MO 02MC 02RD 02RO	1	0	1.70657706261	365.0	-335.0	371	-336	1
2.7	2015_May_21_1655	s	s	12	4	SIC	237	ABS	2	0	02VD 02VO 10VC 02MD 02MO 02MC 02RD 02RO	0	1	1.78848195076	None	None	None	None	1
2.7	2015_May_21_1655	s	s	12	4	SIC	238	ABS	2	1	02VD 10VO 02VC 02MD 02MO 02MC 02RD 02RO	0	1	1.6772069931	None	None	None	None	1
2.7	2015_May_21_1655	s	s	12	4	SIC	239	RC	2	2	09VD 02VO 02VC 02MD 02MO 02MC 02RD 02RO	1	0	1.72484302521	-202.0	332.0	-194	334	1
2.7	2015_May_21_1655	s	s	12	4	SIC	240	ABS	0	2	02VD 02VO 02VC 02MD 02MO 02MC 10RD 02RO	0	1	1.85912704468	None	None	None	None	1
2.7	2015_May_21_1655	s	s	12	4	SIC	241	RC	1	0	02VD 02VO 02VC 02MD 02MO 09MC 02RD 02RO	1	0	1.61998414993	358.0	-338.0	353	-349	1
2.7	2015_May_21_1655	s	s	12	4	SIC	242	ABS	1	0	02VD 02VO 02VC 02MD 02MO 10MC 02RD 02RO	0	1	1.95326113701	None	None	None	None	1
2.7	2015_May_21_1655	s	s	12	4	SIC	243	RC	0	2	02VD 02VO 02VC 02MD 02MO 02MC 09RD 02RO	1	0	0.912472963333	521.0	303.0	519	298	1
2.7	2015_May_21_1655	s	s	12	4	SIC	244	RC	1	1	02VD 02VO 02VC 02MD 09MO 02MC 02RD 02RO	1	0	0.682057142258	58.0	-55.0	62	-59	1
2.7	2015_May_21_1655	s	s	12	4	SIC	245	ABS	0	1	02VD 02VO 02VC 02MD 02MO 02MC 02RD 10RO	0	1	2.85962700844	None	None	None	None	1
2.7	2015_May_21_1655	s	s	12	4	SIC	246	ABS	2	1	02VD 10VO 02VC 02MD 02MO 02MC 02RD 02RO	0	1	1.65902495384	None	None	None	None	1
2.7	2015_May_21_1655	s	s	12	4	SIC	247	ABS	2	0	02VD 02VO 10VC 02MD 02MO 02MC 02RD 02RO	0	1	1.6943089962	None	None	None	None	1
2.7	2015_May_21_1655	s	s	12	4	SIC	248	ABS	2	2	10VD 02VO 02VC 02MD 02MO 02MC 02RD 02RO	0	1	1.68248605728	None	None	None	None	1
2.7	2015_May_21_1655	s	s	12	4	SIC	249	RC	2	0	02VD 02VO 09VC 02MD 02MO 02MC 02RD 02RO	1	0	1.05876302719	-247.0	306.0	-254	311	1
2.7	2015_May_21_1655	s	s	12	4	SIC	250	ABS	0	2	02VD 02VO 02VC 02MD 02MO 02MC 10RD 02RO	0	1	1.88261890411	None	None	None	None	1
2.7	2015_May_21_1655	s	s	12	4	SIC	251	ABS	1	2	02VD 02VO 02VC 10MD 02MO 02MC 02RD 02RO	0	1	1.4117898941	None	None	None	None	1
2.7	2015_May_21_1655	s	s	12	4	SIC	252	ABS	1	1	02VD 02VO 02VC 02MD 10MO 02MC 02RD 02RO	0	1	2.18871307373	None	None	None	None	1
2.7	2015_May_21_1655	s	s	12	4	SIC	253	RC	2	2	09VD 02VO 02VC 02MD 02MO 02MC 02RD 02RO	1	0	0.858621835709	145.0	-200.0	142	-201	1
2.7	2015_May_21_1655	s	s	12	4	SIC	254	RC	1	2	02VD 02VO 02VC 09MD 02MO 02MC 02RD 02RO	1	0	0.912096977234	-520.0	-312.0	-523	-305	1
2.7	2015_May_21_1655	s	s	12	4	SIC	255	RC	2	1	02VD 09VO 02VC 02MD 02MO 02MC 02RD 02RO	1	0	0.929247140884	-532.0	235.0	-528	225	1
2.7	2015_May_21_1655	s	s	12	4	SIC	256	RC	0	1	02VD 02VO 02VC 02MD 02MO 02MC 02RD 09RO	1	0	2.11575388908	474.0	44.0	478	49	1
2.7	2015_May_21_1655	s	s	12	4	SIC	257	ABS	0	1	02VD 02VO 02VC 02MD 02MO 02MC 02RD 10RO	0	1	2.58407092094	None	None	None	None	1
2.7	2015_May_21_1655	s	s	12	4	SIC	258	ABS	2	1	02VD 10VO 02VC 02MD 02MO 02MC 02RD 02RO	0	1	1.63044404984	None	None	None	None	1
2.7	2015_May_21_1655	s	s	12	4	SIC	259	ABS	1	2	02VD 02VO 02VC 10MD 02MO 02MC 02RD 02RO	0	1	1.40701580048	None	None	None	None	1
2.7	2015_May_21_1655	s	s	12	4	SIC	260	RC	1	1	02VD 02VO 02VC 02MD 09MO 02MC 02RD 02RO	1	0	1.2536380291	-539.0	174.0	-547	175	1
2.7	2015_May_21_1655	s	s	12	4	SIC	261	ABS	2	0	02VD 02VO 10VC 02MD 02MO 02MC 02RD 02RO	0	1	1.63042402267	None	None	None	None	1
2.7	2015_May_21_1655	s	s	12	4	SIC	262	ABS	1	1	02VD 02VO 02VC 02MD 10MO 02MC 02RD 02RO	0	1	1.95333218575	None	None	None	None	1
2.7	2015_May_21_1655	s	s	12	4	SIC	263	ABS	0	2	02VD 02VO 02VC 02MD 02MO 02MC 10RD 02RO	0	1	2.21924805641	None	None	None	None	1
2.7	2015_May_21_1655	s	s	12	4	SIC	264	RC	1	0	02VD 02VO 02VC 02MD 02MO 09MC 02RD 02RO	1	0	1.32443094254	383.0	245.0	388	251	1
2.7	2015_May_21_1655	s	s	12	4	SIC	265	ABS	2	2	10VD 02VO 02VC 02MD 02MO 02MC 02RD 02RO	0	1	1.30587100983	None	None	None	None	1
2.7	2015_May_21_1655	s	s	12	4	SIC	266	RC	2	1	02VD 09VO 02VC 02MD 02MO 02MC 02RD 02RO	1	0	0.96458697319	27.0	-325.0	33	-317	1
2.7	2015_May_21_1655	s	s	12	4	SIC	267	RC	2	0	02VD 02VO 09VC 02MD 02MO 02MC 02RD 02RO	1	0	0.926032066345	-93.0	195.0	-89	202	1
2.7	2015_May_21_1655	s	s	12	4	SIC	268	RC	0	1	02VD 02VO 02VC 02MD 02MO 02MC 02RD 09RO	1	0	2.64777803421	-363.0	217.0	-361	218	1
2.7	2015_May_21_1655	s	s	12	4	SIC	269	ABS	1	0	02VD 02VO 02VC 02MD 02MO 10MC 02RD 02RO	0	1	1.96279001236	None	None	None	None	1
2.7	2015_May_21_1655	s	s	12	4	SIC	270	RC	1	2	02VD 02VO 02VC 09MD 02MO 02MC 02RD 02RO	1	0	1.15286898613	-24.0	118.0	-23	107	1
2.7	2015_May_21_1655	s	s	12	4	SIC	271	RC	0	2	02VD 02VO 02VC 02MD 02MO 02MC 09RD 02RO	1	0	1.16470909119	485.0	273.0	487	279	1
2.7	2015_May_21_1655	s	s	12	4	SIC	272	RC	2	2	09VD 02VO 02VC 02MD 02MO 02MC 02RD 02RO	1	0	0.70068693161	106.0	-246.0	111	-241	1
2.7	2015_May_21_1655	s	s	12	4	SIC	273	ABS	1	0	02VD 02VO 02VC 02MD 02MO 10MC 02RD 02RO	0	1	2.58385109901	None	None	None	None	1
2.7	2015_May_21_1655	s	s	12	4	SIC	274	RC	2	2	09VD 02VO 02VC 02MD 02MO 02MC 02RD 02RO	1	0	0.936578035355	-510.0	23.0	-513	25	1
2.7	2015_May_21_1655	s	s	12	4	SIC	275	ABS	2	2	10VD 02VO 02VC 02MD 02MO 02MC 02RD 02RO	0	1	2.02384710312	None	None	None	None	1
2.7	2015_May_21_1655	s	s	12	4	SIC	276	RC	0	1	02VD 02VO 02VC 02MD 02MO 02MC 02RD 09RO	1	0	2.64253783226	-346.0	63.0	-346	69	1
2.7	2015_May_21_1655	s	s	12	4	SIC	277	ABS	2	0	02VD 02VO 10VC 02MD 02MO 02MC 02RD 02RO	0	1	1.63130998611	None	None	None	None	1
2.7	2015_May_21_1655	s	s	12	4	SIC	278	RC	2	0	02VD 02VO 09VC 02MD 02MO 02MC 02RD 02RO	1	0	1.98863315582	514.0	355.0	509	352	1
2.7	2015_May_21_1655	s	s	12	4	SIC	279	ABS	2	1	02VD 10VO 02VC 02MD 02MO 02MC 02RD 02RO	0	1	2.04235911369	None	None	None	None	1
2.7	2015_May_21_1655	s	s	12	4	SIC	280	RC	1	1	02VD 02VO 02VC 02MD 09MO 02MC 02RD 02RO	1	0	1.5883808136	-452.0	272.0	-446	273	1
2.7	2015_May_21_1655	s	s	12	4	SIC	281	RC	0	2	02VD 02VO 02VC 02MD 02MO 02MC 09RD 02RO	1	0	1.53639602661	80.0	-300.0	88	-302	1
2.7	2015_May_21_1655	s	s	12	4	SIC	282	RC	1	0	02VD 02VO 02VC 02MD 02MO 09MC 02RD 02RO	1	0	1.65897297859	-232.0	397.0	-226	393	1
2.7	2015_May_21_1655	s	s	12	4	SIC	283	RC	2	1	02VD 09VO 02VC 02MD 02MO 02MC 02RD 02RO	1	0	1.01815295219	-481.0	-363.0	-486	-366	1
2.7	2015_May_21_1655	s	s	12	4	SIC	284	RC	1	2	02VD 02VO 02VC 09MD 02MO 02MC 02RD 02RO	1	0	0.847273826599	229.0	-370.0	232	-379	1
2.7	2015_May_21_1655	s	s	12	4	SIC	285	ABS	0	1	02VD 02VO 02VC 02MD 02MO 02MC 02RD 10RO	0	1	2.5127351284	None	None	None	None	1
2.7	2015_May_21_1655	s	s	12	4	SIC	286	ABS	0	2	02VD 02VO 02VC 02MD 02MO 02MC 10RD 02RO	0	1	1.72456789017	None	None	None	None	1
2.7	2015_May_21_1655	s	s	12	4	SIC	287	ABS	1	2	02VD 02VO 02VC 10MD 02MO 02MC 02RD 02RO	0	1	1.67750906944	None	None	None	None	1
2.7	2015_May_21_1655	s	s	12	4	SIC	288	ABS	1	1	02VD 02VO 02VC 02MD 10MO 02MC 02RD 02RO	0	1	2.7772090435	None	None	None	None	1
2.7	2015_May_21_1655	s	s	12	4	SIC	289	ABS	2	2	10VD 02VO 02VC 02MD 02MO 02MC 02RD 02RO	0	1	1.75313091278	None	None	None	None	1
2.7	2015_May_21_1655	s	s	12	4	SIC	290	RC	2	1	02VD 09VO 02VC 02MD 02MO 02MC 02RD 02RO	1	0	1.02004003525	-313.0	-386.0	-308	-388	1
2.7	2015_May_21_1655	s	s	12	4	SIC	291	ABS	1	0	02VD 02VO 02VC 02MD 02MO 10MC 02RD 02RO	0	1	2.1489200592	None	None	None	None	1
2.7	2015_May_21_1655	s	s	12	4	SIC	292	RC	2	0	02VD 02VO 09VC 02MD 02MO 02MC 02RD 02RO	1	0	1.67605495453	-495.0	13.0	-481	18	1
2.7	2015_May_21_1655	s	s	12	4	SIC	293	RC	0	2	02VD 02VO 02VC 02MD 02MO 02MC 09RD 02RO	1	0	1.2179479599	-115.0	379.0	-121	386	1
2.7	2015_May_21_1655	s	s	12	4	SIC	294	ABS	1	2	02VD 02VO 02VC 10MD 02MO 02MC 02RD 02RO	0	1	1.13660502434	None	None	None	None	1
2.7	2015_May_21_1655	s	s	12	4	SIC	295	RC	1	1	02VD 02VO 02VC 02MD 09MO 02MC 02RD 02RO	1	0	0.893920183182	243.0	191.0	239	189	1
2.7	2015_May_21_1655	s	s	12	4	SIC	296	RC	1	0	02VD 02VO 02VC 02MD 02MO 09MC 02RD 02RO	1	0	0.799687862396	-299.0	-178.0	-284	-171	1
2.7	2015_May_21_1655	s	s	12	4	SIC	297	ABS	2	0	02VD 02VO 10VC 02MD 02MO 02MC 02RD 02RO	0	1	1.2791800499	None	None	None	None	1
2.7	2015_May_21_1655	s	s	12	4	SIC	298	RC	1	2	02VD 02VO 02VC 09MD 02MO 02MC 02RD 02RO	1	0	0.823265790939	436.0	-115.0	446	-110	1
2.7	2015_May_21_1655	s	s	12	4	SIC	299	ABS	2	1	02VD 10VO 02VC 02MD 02MO 02MC 02RD 02RO	0	1	2.54855704308	None	None	None	None	1
2.7	2015_May_21_1655	s	s	12	4	SIC	300	ABS	0	1	02VD 02VO 02VC 02MD 02MO 02MC 02RD 10RO	0	1	2.87832117081	None	None	None	None	1
2.7	2015_May_21_1655	s	s	12	4	SIC	301	ABS	0	2	02VD 02VO 02VC 02MD 02MO 02MC 10RD 02RO	0	1	1.83074378967	None	None	None	None	1
2.7	2015_May_21_1655	s	s	12	4	SIC	302	RC	0	1	02VD 02VO 02VC 02MD 02MO 02MC 02RD 09RO	1	0	1.15288186073	66.0	228.0	66	223	1
2.7	2015_May_21_1655	s	s	12	4	SIC	303	RC	2	2	09VD 02VO 02VC 02MD 02MO 02MC 02RD 02RO	1	0	0.803484916687	-367.0	-156.0	-373	-164	1
2.7	2015_May_21_1655	s	s	12	4	SIC	304	ABS	1	1	02VD 02VO 02VC 02MD 10MO 02MC 02RD 02RO	0	1	2.29014706612	None	None	None	None	1
2.7	2015_May_21_1655	s	s	12	4	SIC	305	RC	0	1	02VD 02VO 02VC 02MD 02MO 02MC 02RD 09RO	1	0	0.859047889709	-309.0	175.0	-301	172	1
2.7	2015_May_21_1655	s	s	12	4	SIC	306	ABS	2	1	02VD 10VO 02VC 02MD 02MO 02MC 02RD 02RO	0	1	1.44209384918	None	None	None	None	1
2.7	2015_May_21_1655	s	s	12	4	SIC	307	RC	0	2	02VD 02VO 02VC 02MD 02MO 02MC 09RD 02RO	1	0	0.650491952896	92.0	71.0	95	65	1
2.7	2015_May_21_1655	s	s	12	4	SIC	308	RC	1	2	02VD 02VO 02VC 09MD 02MO 02MC 02RD 02RO	1	0	1.31765294075	-195.0	372.0	-196	371	1
2.7	2015_May_21_1655	s	s	12	4	SIC	309	RC	2	0	02VD 02VO 09VC 02MD 02MO 02MC 02RD 02RO	1	0	0.976378917694	275.0	-273.0	282	-269	1
2.7	2015_May_21_1655	s	s	12	4	SIC	310	ABS	1	0	02VD 02VO 02VC 02MD 02MO 10MC 02RD 02RO	0	1	2.47539901733	None	None	None	None	1
2.7	2015_May_21_1655	s	s	12	4	SIC	311	ABS	0	2	02VD 02VO 02VC 02MD 02MO 02MC 10RD 02RO	0	1	2.22404313087	None	None	None	None	1
2.7	2015_May_21_1655	s	s	12	4	SIC	312	ABS	1	2	02VD 02VO 02VC 10MD 02MO 02MC 02RD 02RO	0	1	1.74139595032	None	None	None	None	1
2.7	2015_May_21_1655	s	s	12	4	SIC	313	ABS	2	0	02VD 02VO 10VC 02MD 02MO 02MC 02RD 02RO	0	1	1.67079901695	None	None	None	None	1
2.7	2015_May_21_1655	s	s	12	4	SIC	314	RC	2	1	02VD 09VO 02VC 02MD 02MO 02MC 02RD 02RO	1	0	0.729124069214	-167.0	-199.0	-171	-203	1
2.7	2015_May_21_1655	s	s	12	4	SIC	315	RC	2	2	09VD 02VO 02VC 02MD 02MO 02MC 02RD 02RO	1	0	0.81801700592	-96.0	-31.0	-91	-33	1
2.7	2015_May_21_1655	s	s	12	4	SIC	316	ABS	2	2	10VD 02VO 02VC 02MD 02MO 02MC 02RD 02RO	0	1	1.57664704323	None	None	None	None	1
2.7	2015_May_21_1655	s	s	12	4	SIC	317	ABS	0	1	02VD 02VO 02VC 02MD 02MO 02MC 02RD 10RO	0	1	3.27158784866	None	None	None	None	1
2.7	2015_May_21_1655	s	s	12	4	SIC	318	ABS	1	1	02VD 02VO 02VC 02MD 10MO 02MC 02RD 02RO	0	1	1.9247610569	None	None	None	None	1
2.7	2015_May_21_1655	s	s	12	4	SIC	319	RC	1	1	02VD 02VO 02VC 02MD 09MO 02MC 02RD 02RO	1	0	1.19500899315	195.0	-333.0	199	-338	1
2.7	2015_May_21_1655	s	s	12	4	SIC	320	RC	1	0	02VD 02VO 02VC 02MD 02MO 09MC 02RD 02RO	1	0	1.18818998337	-252.0	-239.0	-250	-245	1
2.7	2015_May_21_1655	s	s	12	4	SIC	321	RC	1	0	02VD 02VO 02VC 02MD 02MO 09MC 02RD 02RO	1	0	1.32948899269	263.0	-44.0	261	-50	1
2.7	2015_May_21_1655	s	s	12	4	SIC	322	ABS	2	2	10VD 02VO 02VC 02MD 02MO 02MC 02RD 02RO	0	1	1.9848139286	None	None	None	None	1
2.7	2015_May_21_1655	s	s	12	4	SIC	323	RC	2	2	09VD 02VO 02VC 02MD 02MO 02MC 02RD 02RO	1	0	1.2186319828	415.0	-339.0	417	-333	1
2.7	2015_May_21_1655	s	s	12	4	SIC	324	ABS	1	2	02VD 02VO 02VC 10MD 02MO 02MC 02RD 02RO	0	1	1.55993390083	None	None	None	None	1
2.7	2015_May_21_1655	s	s	12	4	SIC	325	RC	2	0	02VD 02VO 09VC 02MD 02MO 02MC 02RD 02RO	1	0	0.806142091751	181.0	-84.0	182	-86	1
2.7	2015_May_21_1655	s	s	12	4	SIC	326	ABS	1	0	02VD 02VO 02VC 02MD 02MO 10MC 02RD 02RO	0	1	1.88947701454	None	None	None	None	1
2.7	2015_May_21_1655	s	s	12	4	SIC	327	ABS	0	1	02VD 02VO 02VC 02MD 02MO 02MC 02RD 10RO	0	1	2.74199080467	None	None	None	None	1
2.7	2015_May_21_1655	s	s	12	4	SIC	328	RC	2	1	02VD 09VO 02VC 02MD 02MO 02MC 02RD 02RO	1	0	1.36474394798	402.0	12.0	400	12	1
2.7	2015_May_21_1655	s	s	12	4	SIC	329	RC	1	2	02VD 02VO 02VC 09MD 02MO 02MC 02RD 02RO	1	0	1.14796495438	-171.0	-368.0	-173	-368	1
2.7	2015_May_21_1655	s	s	12	4	SIC	330	RC	1	1	02VD 02VO 02VC 02MD 09MO 02MC 02RD 02RO	1	0	0.741209030151	-315.0	-298.0	-315	-309	1
2.7	2015_May_21_1655	s	s	12	4	SIC	331	RC	0	2	02VD 02VO 02VC 02MD 02MO 02MC 09RD 02RO	1	0	1.10588693619	-396.0	62.0	-385	70	1
2.7	2015_May_21_1655	s	s	12	4	SIC	332	ABS	2	0	02VD 02VO 10VC 02MD 02MO 02MC 02RD 02RO	0	1	1.51246714592	None	None	None	None	1
2.7	2015_May_21_1655	s	s	12	4	SIC	333	RC	0	1	02VD 02VO 02VC 02MD 02MO 02MC 02RD 09RO	1	0	1.030148983	-26.0	-301.0	-30	-304	1
2.7	2015_May_21_1655	s	s	12	4	SIC	334	ABS	2	1	02VD 10VO 02VC 02MD 02MO 02MC 02RD 02RO	0	1	1.45893883705	None	None	None	None	1
2.7	2015_May_21_1655	s	s	12	4	SIC	335	ABS	0	2	02VD 02VO 02VC 02MD 02MO 02MC 10RD 02RO	0	1	2.00078296661	None	None	None	None	1
2.7	2015_May_21_1655	s	s	12	4	SIC	336	ABS	1	1	02VD 02VO 02VC 02MD 10MO 02MC 02RD 02RO	0	1	1.79546999931	None	None	None	None	1
2.7	2015_May_21_1655	s	s	12	4	SIC	337	RC	2	1	02VD 09VO 02VC 02MD 02MO 02MC 02RD 02RO	1	0	1.75319981575	116.0	395.0	119	396	1
2.7	2015_May_21_1655	s	s	12	4	SIC	338	ABS	0	2	02VD 02VO 02VC 02MD 02MO 02MC 10RD 02RO	0	1	2.18868494034	None	None	None	None	1
2.7	2015_May_21_1655	s	s	12	4	SIC	339	RC	0	1	02VD 02VO 02VC 02MD 02MO 02MC 02RD 09RO	1	0	1.43033695221	161.0	-375.0	166	-381	1
2.7	2015_May_21_1655	s	s	12	4	SIC	340	ABS	2	1	02VD 10VO 02VC 02MD 02MO 02MC 02RD 02RO	0	1	1.60713195801	None	None	None	None	1
2.7	2015_May_21_1655	s	s	12	4	SIC	341	ABS	1	2	02VD 02VO 02VC 10MD 02MO 02MC 02RD 02RO	0	1	1.82386612892	None	None	None	None	1
2.7	2015_May_21_1655	s	s	12	4	SIC	342	ABS	1	1	02VD 02VO 02VC 02MD 10MO 02MC 02RD 02RO	0	1	1.94744110107	None	None	None	None	1
2.7	2015_May_21_1655	s	s	12	4	SIC	343	ABS	1	0	02VD 02VO 02VC 02MD 02MO 10MC 02RD 02RO	0	1	2.27828192711	None	None	None	None	1
2.7	2015_May_21_1655	s	s	12	4	SIC	344	RC	1	0	02VD 02VO 02VC 02MD 02MO 09MC 02RD 02RO	1	0	1.25379490852	309.0	-294.0	316	-293	1
2.7	2015_May_21_1655	s	s	12	4	SIC	345	ABS	0	1	02VD 02VO 02VC 02MD 02MO 02MC 02RD 10RO	0	1	2.63597202301	None	None	None	None	1
2.7	2015_May_21_1655	s	s	12	4	SIC	346	ABS	2	0	02VD 02VO 10VC 02MD 02MO 02MC 02RD 02RO	0	1	1.28930401802	None	None	None	None	1
2.7	2015_May_21_1655	s	s	12	4	SIC	347	RC	0	2	02VD 02VO 02VC 02MD 02MO 02MC 09RD 02RO	1	0	1.18815398216	-417.0	-30.0	-425	-36	1
2.7	2015_May_21_1655	s	s	12	4	SIC	348	RC	1	1	02VD 02VO 02VC 02MD 09MO 02MC 02RD 02RO	1	0	1.77176690102	89.0	308.0	93	299	1
2.7	2015_May_21_1655	s	s	12	4	SIC	349	ABS	2	2	10VD 02VO 02VC 02MD 02MO 02MC 02RD 02RO	0	1	1.37668585777	None	None	None	None	1
2.7	2015_May_21_1655	s	s	12	4	SIC	350	RC	2	0	02VD 02VO 09VC 02MD 02MO 02MC 02RD 02RO	1	0	0.764394044876	177.0	304.0	177	298	1
2.7	2015_May_21_1655	s	s	12	4	SIC	351	RC	1	2	02VD 02VO 02VC 09MD 02MO 02MC 02RD 02RO	1	0	0.529050827026	55.0	-56.0	51	-55	1
2.7	2015_May_21_1655	s	s	12	4	SIC	352	RC	2	2	09VD 02VO 02VC 02MD 02MO 02MC 02RD 02RO	1	0	1.40010595322	-213.0	353.0	-217	351	1
2.7	2015_May_21_1655	s	s	12	4	SIC	353	RC	1	0	02VD 02VO 02VC 02MD 02MO 09MC 02RD 02RO	1	0	0.88880109787	171.0	263.0	168	270	1
2.7	2015_May_21_1655	s	s	12	4	SIC	354	ABS	2	2	10VD 02VO 02VC 02MD 02MO 02MC 02RD 02RO	0	1	1.37143516541	None	None	None	None	1
2.7	2015_May_21_1655	s	s	12	4	SIC	355	RC	1	2	02VD 02VO 02VC 09MD 02MO 02MC 02RD 02RO	1	0	1.37084102631	527.0	-247.0	521	-246	1
2.7	2015_May_21_1655	s	s	12	4	SIC	356	ABS	0	1	02VD 02VO 02VC 02MD 02MO 02MC 02RD 10RO	0	1	3.02451682091	None	None	None	None	1
2.7	2015_May_21_1655	s	s	12	4	SIC	357	ABS	1	2	02VD 02VO 02VC 10MD 02MO 02MC 02RD 02RO	0	1	1.48967003822	None	None	None	None	1
2.7	2015_May_21_1655	s	s	12	4	SIC	358	RC	0	1	02VD 02VO 02VC 02MD 02MO 02MC 02RD 09RO	1	0	1.17090511322	175.0	-118.0	167	-119	1
2.7	2015_May_21_1655	s	s	12	4	SIC	359	ABS	1	1	02VD 02VO 02VC 02MD 10MO 02MC 02RD 02RO	0	1	2.71365094185	None	None	None	None	1
2.7	2015_May_21_1655	s	s	12	4	SIC	360	RC	1	1	02VD 02VO 02VC 02MD 09MO 02MC 02RD 02RO	1	0	1.21853804588	-160.0	207.0	-158	209	1
2.7	2015_May_21_1655	s	s	12	4	SIC	361	RC	2	2	09VD 02VO 02VC 02MD 02MO 02MC 02RD 02RO	1	0	1.34739685059	-491.0	343.0	-502	343	1
2.7	2015_May_21_1655	s	s	12	4	SIC	362	RC	2	0	02VD 02VO 09VC 02MD 02MO 02MC 02RD 02RO	1	0	0.853605985641	-159.0	306.0	-165	305	1
2.7	2015_May_21_1655	s	s	12	4	SIC	363	ABS	1	0	02VD 02VO 02VC 02MD 02MO 10MC 02RD 02RO	0	1	2.50147199631	None	None	None	None	1
2.7	2015_May_21_1655	s	s	12	4	SIC	364	RC	2	1	02VD 09VO 02VC 02MD 02MO 02MC 02RD 02RO	1	0	0.665723085403	21.0	-192.0	16	-194	1
2.7	2015_May_21_1655	s	s	12	4	SIC	365	ABS	2	0	02VD 02VO 10VC 02MD 02MO 02MC 02RD 02RO	0	1	1.17061114311	None	None	None	None	1
2.7	2015_May_21_1655	s	s	12	4	SIC	366	ABS	2	1	02VD 10VO 02VC 02MD 02MO 02MC 02RD 02RO	0	1	1.25301814079	None	None	None	None	1
2.7	2015_May_21_1655	s	s	12	4	SIC	367	ABS	0	2	02VD 02VO 02VC 02MD 02MO 02MC 10RD 02RO	0	1	2.31334900856	None	None	None	None	1
2.7	2015_May_21_1655	s	s	12	4	SIC	368	RC	0	2	02VD 02VO 02VC 02MD 02MO 02MC 09RD 02RO	1	0	1.11276102066	-54.0	310.0	-61	305	1
2.7	2015_May_21_1655	s	s	12	4	SIC	369	ABS	1	1	02VD 02VO 02VC 02MD 10MO 02MC 02RD 02RO	0	1	2.50165200233	None	None	None	None	1
2.7	2015_May_21_1655	s	s	12	4	SIC	370	RC	1	1	02VD 02VO 02VC 02MD 09MO 02MC 02RD 02RO	1	0	1.07053112984	198.0	-323.0	206	-320	1
2.7	2015_May_21_1655	s	s	12	4	SIC	371	RC	2	1	02VD 09VO 02VC 02MD 02MO 02MC 02RD 02RO	1	0	0.658573865891	36.0	-79.0	38	-93	1
2.7	2015_May_21_1655	s	s	12	4	SIC	372	RC	0	1	02VD 02VO 02VC 02MD 02MO 02MC 02RD 09RO	0	1	0.488165855408	-239.0	347.0	None	None	0
2.7	2015_May_21_1655	s	s	12	4	SIC	373	RC	1	2	02VD 02VO 02VC 09MD 02MO 02MC 02RD 02RO	1	0	0.865528821945	334.0	-107.0	340	-107	1
2.7	2015_May_21_1655	s	s	12	4	SIC	374	ABS	0	1	02VD 02VO 02VC 02MD 02MO 02MC 02RD 10RO	0	1	3.4198679924	None	None	None	None	1
2.7	2015_May_21_1655	s	s	12	4	SIC	375	ABS	2	2	10VD 02VO 02VC 02MD 02MO 02MC 02RD 02RO	0	1	1.57699584961	None	None	None	None	1
2.7	2015_May_21_1655	s	s	12	4	SIC	376	RC	2	0	02VD 02VO 09VC 02MD 02MO 02MC 02RD 02RO	1	0	0.995023965836	-213.0	-120.0	-211	-124	1
2.7	2015_May_21_1655	s	s	12	4	SIC	377	RC	0	2	02VD 02VO 02VC 02MD 02MO 02MC 09RD 02RO	1	0	0.775937080383	199.0	29.0	203	34	1
2.7	2015_May_21_1655	s	s	12	4	SIC	378	ABS	2	1	02VD 10VO 02VC 02MD 02MO 02MC 02RD 02RO	0	1	1.8002948761	None	None	None	None	1
2.7	2015_May_21_1655	s	s	12	4	SIC	379	ABS	2	0	02VD 02VO 10VC 02MD 02MO 02MC 02RD 02RO	0	1	1.43540406227	None	None	None	None	1
2.7	2015_May_21_1655	s	s	12	4	SIC	380	RC	1	0	02VD 02VO 02VC 02MD 02MO 09MC 02RD 02RO	1	0	1.23534989357	-251.0	62.0	-253	68	1
2.7	2015_May_21_1655	s	s	12	4	SIC	381	ABS	0	2	02VD 02VO 02VC 02MD 02MO 02MC 10RD 02RO	0	1	1.8826918602	None	None	None	None	1
2.7	2015_May_21_1655	s	s	12	4	SIC	382	RC	2	2	09VD 02VO 02VC 02MD 02MO 02MC 02RD 02RO	1	0	0.594921827316	136.0	95.0	144	96	1
2.7	2015_May_21_1655	s	s	12	4	SIC	383	ABS	1	0	02VD 02VO 02VC 02MD 02MO 10MC 02RD 02RO	0	1	2.2664000988	None	None	None	None	1
2.7	2015_May_21_1655	s	s	12	4	SIC	384	ABS	1	2	02VD 02VO 02VC 10MD 02MO 02MC 02RD 02RO	1	0	1.88267588615	None	None	37	-120	0
2.7	2015_May_21_1655	s	s	12	4	SIC	385	ABS	2	1	02VD 10VO 02VC 02MD 02MO 02MC 02RD 02RO	0	1	1.68253207207	None	None	None	None	1
2.7	2015_May_21_1655	s	s	12	4	SIC	386	ABS	2	2	10VD 02VO 02VC 02MD 02MO 02MC 02RD 02RO	0	1	1.20669913292	None	None	None	None	1
2.7	2015_May_21_1655	s	s	12	4	SIC	387	RC	2	2	09VD 02VO 02VC 02MD 02MO 02MC 02RD 02RO	1	0	0.999877929688	-361.0	-48.0	-352	-48	1
2.7	2015_May_21_1655	s	s	12	4	SIC	388	RC	2	1	02VD 09VO 02VC 02MD 02MO 02MC 02RD 02RO	1	0	1.28235602379	-430.0	305.0	-424	312	1
2.7	2015_May_21_1655	s	s	12	4	SIC	389	ABS	0	2	02VD 02VO 02VC 02MD 02MO 02MC 10RD 02RO	0	1	2.03620886803	None	None	None	None	1
2.7	2015_May_21_1655	s	s	12	4	SIC	390	ABS	1	1	02VD 02VO 02VC 02MD 10MO 02MC 02RD 02RO	0	1	1.94153094292	None	None	None	None	1
2.7	2015_May_21_1655	s	s	12	4	SIC	391	RC	2	0	02VD 02VO 09VC 02MD 02MO 02MC 02RD 02RO	1	0	1.13779711723	21.0	-304.0	22	-303	1
2.7	2015_May_21_1655	s	s	12	4	SIC	392	RC	1	1	02VD 02VO 02VC 02MD 09MO 02MC 02RD 02RO	1	0	1.60697579384	-336.0	342.0	-331	331	1
2.7	2015_May_21_1655	s	s	12	4	SIC	393	ABS	2	0	02VD 02VO 10VC 02MD 02MO 02MC 02RD 02RO	0	1	1.53649902344	None	None	None	None	1
2.7	2015_May_21_1655	s	s	12	4	SIC	394	RC	0	2	02VD 02VO 02VC 02MD 02MO 02MC 09RD 02RO	1	0	1.41891407967	-517.0	-233.0	-516	-235	1
2.7	2015_May_21_1655	s	s	12	4	SIC	395	ABS	1	2	02VD 02VO 02VC 10MD 02MO 02MC 02RD 02RO	0	1	1.78375101089	None	None	None	None	1
2.7	2015_May_21_1655	s	s	12	4	SIC	396	RC	0	1	02VD 02VO 02VC 02MD 02MO 02MC 02RD 09RO	1	0	1.95874214172	482.0	185.0	475	185	1
2.7	2015_May_21_1655	s	s	12	4	SIC	397	ABS	1	0	02VD 02VO 02VC 02MD 02MO 10MC 02RD 02RO	0	1	2.31313991547	None	None	None	None	1
2.7	2015_May_21_1655	s	s	12	4	SIC	398	RC	1	0	02VD 02VO 02VC 02MD 02MO 09MC 02RD 02RO	1	0	1.80027294159	252.0	-315.0	258	-311	1
2.7	2015_May_21_1655	s	s	12	4	SIC	399	ABS	0	1	02VD 02VO 02VC 02MD 02MO 02MC 02RD 10RO	0	1	3.3841509819	None	None	None	None	1
2.7	2015_May_21_1655	s	s	12	4	SIC	400	RC	1	2	02VD 02VO 02VC 09MD 02MO 02MC 02RD 02RO	1	0	1.00606608391	158.0	-355.0	162	-350	1
2.7	2015_May_21_1655	s	s	12	4	SIC	401	RC	2	0	02VD 02VO 09VC 02MD 02MO 02MC 02RD 02RO	1	0	1.28903913498	442.0	-88.0	450	-93	1
2.7	2015_May_21_1655	s	s	12	4	SIC	402	RC	1	0	02VD 02VO 02VC 02MD 02MO 09MC 02RD 02RO	1	0	0.964552164078	-406.0	-105.0	-400	-105	1
2.7	2015_May_21_1655	s	s	12	4	SIC	403	ABS	2	2	10VD 02VO 02VC 02MD 02MO 02MC 02RD 02RO	0	1	1.65898895264	None	None	None	None	1
2.7	2015_May_21_1655	s	s	12	4	SIC	404	ABS	2	0	02VD 02VO 10VC 02MD 02MO 02MC 02RD 02RO	0	1	1.68708395958	None	None	None	None	1
2.7	2015_May_21_1655	s	s	12	4	SIC	405	ABS	1	2	02VD 02VO 02VC 10MD 02MO 02MC 02RD 02RO	0	1	1.74184799194	None	None	None	None	1
2.7	2015_May_21_1655	s	s	12	4	SIC	406	RC	0	2	02VD 02VO 02VC 02MD 02MO 02MC 09RD 02RO	1	0	0.827522039413	40.0	290.0	50	290	1
2.7	2015_May_21_1655	s	s	12	4	SIC	407	ABS	0	2	02VD 02VO 02VC 02MD 02MO 02MC 10RD 02RO	0	1	1.89461302757	None	None	None	None	1
2.7	2015_May_21_1655	s	s	12	4	SIC	408	RC	2	2	09VD 02VO 02VC 02MD 02MO 02MC 02RD 02RO	1	0	1.25421500206	398.0	32.0	398	31	1
2.7	2015_May_21_1655	s	s	12	4	SIC	409	ABS	1	1	02VD 02VO 02VC 02MD 10MO 02MC 02RD 02RO	0	1	1.44230890274	None	None	None	None	1
2.7	2015_May_21_1655	s	s	12	4	SIC	410	RC	0	1	02VD 02VO 02VC 02MD 02MO 02MC 02RD 09RO	1	0	1.55333590508	-253.0	313.0	-247	317	1
2.7	2015_May_21_1655	s	s	12	4	SIC	411	ABS	0	1	02VD 02VO 02VC 02MD 02MO 02MC 02RD 10RO	0	1	3.4915561676	None	None	None	None	1
2.7	2015_May_21_1655	s	s	12	4	SIC	412	RC	1	1	02VD 02VO 02VC 02MD 09MO 02MC 02RD 02RO	1	0	1.43037486076	469.0	164.0	472	159	1
2.7	2015_May_21_1655	s	s	12	4	SIC	413	ABS	2	1	02VD 10VO 02VC 02MD 02MO 02MC 02RD 02RO	0	1	1.93349885941	None	None	None	None	1
2.7	2015_May_21_1655	s	s	12	4	SIC	414	RC	2	1	02VD 09VO 02VC 02MD 02MO 02MC 02RD 02RO	1	0	0.960577964783	-31.0	277.0	-31	265	1
2.7	2015_May_21_1655	s	s	12	4	SIC	415	ABS	1	0	02VD 02VO 02VC 02MD 02MO 10MC 02RD 02RO	0	1	2.09476685524	None	None	None	None	1
2.7	2015_May_21_1655	s	s	12	4	SIC	416	RC	1	2	02VD 02VO 02VC 09MD 02MO 02MC 02RD 02RO	1	0	0.552551031113	-25.0	-48.0	-21	-44	1
2.7	2015_May_21_1655	s	s	12	4	SIC	417	ABS	1	1	02VD 02VO 02VC 02MD 10MO 02MC 02RD 02RO	0	1	1.84359788895	None	None	None	None	1
2.7	2015_May_21_1655	s	s	12	4	SIC	418	RC	1	0	02VD 02VO 02VC 02MD 02MO 09MC 02RD 02RO	1	0	0.752685070038	167.0	26.0	164	20	1
2.7	2015_May_21_1655	s	s	12	4	SIC	419	RC	1	1	02VD 02VO 02VC 02MD 09MO 02MC 02RD 02RO	1	0	1.10580801964	126.0	-284.0	122	-288	1
2.7	2015_May_21_1655	s	s	12	4	SIC	420	ABS	0	1	02VD 02VO 02VC 02MD 02MO 02MC 02RD 10RO	0	1	3.3845038414	None	None	None	None	1
2.7	2015_May_21_1655	s	s	12	4	SIC	421	RC	0	1	02VD 02VO 02VC 02MD 02MO 02MC 02RD 09RO	1	0	3.63087296486	-378.0	-45.0	-381	-45	1
2.7	2015_May_21_1655	s	s	12	4	SIC	422	RC	0	2	02VD 02VO 02VC 02MD 02MO 02MC 09RD 02RO	1	0	1.13605308533	-189.0	265.0	-196	261	1
2.7	2015_May_21_1655	s	s	12	4	SIC	423	ABS	2	2	10VD 02VO 02VC 02MD 02MO 02MC 02RD 02RO	0	1	1.57187700272	None	None	None	None	1
2.7	2015_May_21_1655	s	s	12	4	SIC	424	ABS	2	0	02VD 02VO 10VC 02MD 02MO 02MC 02RD 02RO	0	1	1.32946109772	None	None	None	None	1
2.7	2015_May_21_1655	s	s	12	4	SIC	425	ABS	2	1	02VD 10VO 02VC 02MD 02MO 02MC 02RD 02RO	0	1	1.42358994484	None	None	None	None	1
2.7	2015_May_21_1655	s	s	12	4	SIC	426	RC	2	2	09VD 02VO 02VC 02MD 02MO 02MC 02RD 02RO	1	0	1.6943218708	-45.0	378.0	-35	376	1
2.7	2015_May_21_1655	s	s	12	4	SIC	427	ABS	0	2	02VD 02VO 02VC 02MD 02MO 02MC 10RD 02RO	0	1	2.25927805901	None	None	None	None	1
2.7	2015_May_21_1655	s	s	12	4	SIC	428	ABS	1	2	02VD 02VO 02VC 10MD 02MO 02MC 02RD 02RO	0	1	1.83074188232	None	None	None	None	1
2.7	2015_May_21_1655	s	s	12	4	SIC	429	ABS	1	0	02VD 02VO 02VC 02MD 02MO 10MC 02RD 02RO	0	1	1.89447999001	None	None	None	None	1
2.7	2015_May_21_1655	s	s	12	4	SIC	430	RC	1	2	02VD 02VO 02VC 09MD 02MO 02MC 02RD 02RO	1	0	0.971465826035	-473.0	-224.0	-474	-226	1
2.7	2015_May_21_1655	s	s	12	4	SIC	431	RC	2	1	02VD 09VO 02VC 02MD 02MO 02MC 02RD 02RO	1	0	1.48861813545	-290.0	369.0	-286	365	1
2.7	2015_May_21_1655	s	s	12	4	SIC	432	RC	2	0	02VD 02VO 09VC 02MD 02MO 02MC 02RD 02RO	1	0	0.858685016632	26.0	48.0	30	47	1
2.7	2015_May_21_1655	s	s	12	4	SIC	433	ABS	1	1	02VD 02VO 02VC 02MD 10MO 02MC 02RD 02RO	0	1	1.88931679726	None	None	None	None	1
2.7	2015_May_21_1655	s	s	12	4	SIC	434	ABS	0	1	02VD 02VO 02VC 02MD 02MO 02MC 02RD 10RO	0	1	2.73014497757	None	None	None	None	1
2.7	2015_May_21_1655	s	s	12	4	SIC	435	RC	1	0	02VD 02VO 02VC 02MD 02MO 09MC 02RD 02RO	1	0	1.35989093781	479.0	-398.0	485	-399	1
2.7	2015_May_21_1655	s	s	12	4	SIC	436	ABS	1	0	02VD 02VO 02VC 02MD 02MO 10MC 02RD 02RO	0	1	2.02030706406	None	None	None	None	1
2.7	2015_May_21_1655	s	s	12	4	SIC	437	RC	0	2	02VD 02VO 02VC 02MD 02MO 02MC 09RD 02RO	1	0	1.13621902466	-14.0	-384.0	-8	-382	1
2.7	2015_May_21_1655	s	s	12	4	SIC	438	RC	1	1	02VD 02VO 02VC 02MD 09MO 02MC 02RD 02RO	1	0	1.55086398125	-538.0	107.0	-547	103	1
2.7	2015_May_21_1655	s	s	12	4	SIC	439	RC	2	1	02VD 09VO 02VC 02MD 02MO 02MC 02RD 02RO	1	0	1.30117297173	121.0	375.0	128	378	1
2.7	2015_May_21_1655	s	s	12	4	SIC	440	RC	1	2	02VD 02VO 02VC 09MD 02MO 02MC 02RD 02RO	1	0	0.905677080154	-260.0	-202.0	-262	-212	1
2.7	2015_May_21_1655	s	s	12	4	SIC	441	ABS	2	2	10VD 02VO 02VC 02MD 02MO 02MC 02RD 02RO	0	1	1.65901589394	None	None	None	None	1
2.7	2015_May_21_1655	s	s	12	4	SIC	442	RC	2	0	02VD 02VO 09VC 02MD 02MO 02MC 02RD 02RO	1	0	0.658506155014	61.0	-178.0	68	-174	1
2.7	2015_May_21_1655	s	s	12	4	SIC	443	ABS	2	1	02VD 10VO 02VC 02MD 02MO 02MC 02RD 02RO	0	1	1.24688100815	None	None	None	None	1
2.7	2015_May_21_1655	s	s	12	4	SIC	444	RC	0	1	02VD 02VO 02VC 02MD 02MO 02MC 02RD 09RO	1	0	0.759318828583	35.0	-146.0	35	-138	1
2.7	2015_May_21_1655	s	s	12	4	SIC	445	RC	2	2	09VD 02VO 02VC 02MD 02MO 02MC 02RD 02RO	1	0	1.05244612694	421.0	-335.0	418	-341	1
2.7	2015_May_21_1655	s	s	12	4	SIC	446	ABS	2	0	02VD 02VO 10VC 02MD 02MO 02MC 02RD 02RO	0	1	1.44711208344	None	None	None	None	1
2.7	2015_May_21_1655	s	s	12	4	SIC	447	ABS	0	2	02VD 02VO 02VC 02MD 02MO 02MC 10RD 02RO	0	1	1.63547301292	None	None	None	None	1
2.7	2015_May_21_1655	s	s	12	4	SIC	448	ABS	1	2	02VD 02VO 02VC 10MD 02MO 02MC 02RD 02RO	0	1	1.45358109474	None	None	None	None	1
2.7	2015_May_21_1655	s	s	12	4	SIC	449	RC	2	2	09VD 02VO 02VC 02MD 02MO 02MC 02RD 02RO	1	0	0.964537143707	-333.0	-255.0	-327	-262	1
2.7	2015_May_21_1655	s	s	12	4	SIC	450	RC	2	1	02VD 09VO 02VC 02MD 02MO 02MC 02RD 02RO	1	0	1.68935799599	326.0	-45.0	329	-45	1
2.7	2015_May_21_1655	s	s	12	4	SIC	451	RC	1	1	02VD 02VO 02VC 02MD 09MO 02MC 02RD 02RO	1	0	0.983775854111	-302.0	396.0	-300	398	1
2.7	2015_May_21_1655	s	s	12	4	SIC	452	ABS	1	0	02VD 02VO 02VC 02MD 02MO 10MC 02RD 02RO	0	1	2.08956813812	None	None	None	None	1
2.7	2015_May_21_1655	s	s	12	4	SIC	453	ABS	1	2	02VD 02VO 02VC 10MD 02MO 02MC 02RD 02RO	0	1	1.19997811317	None	None	None	None	1
2.7	2015_May_21_1655	s	s	12	4	SIC	454	RC	0	1	02VD 02VO 02VC 02MD 02MO 02MC 02RD 09RO	1	0	2.27797698975	-535.0	44.0	-531	44	1
2.7	2015_May_21_1655	s	s	12	4	SIC	455	ABS	0	1	02VD 02VO 02VC 02MD 02MO 02MC 02RD 10RO	0	1	3.77291893959	None	None	None	None	1
2.7	2015_May_21_1655	s	s	12	4	SIC	456	ABS	2	1	02VD 10VO 02VC 02MD 02MO 02MC 02RD 02RO	0	1	1.71788215637	None	None	None	None	1
2.7	2015_May_21_1655	s	s	12	4	SIC	457	RC	0	2	02VD 02VO 02VC 02MD 02MO 02MC 09RD 02RO	1	0	0.717292070389	-267.0	-144.0	-255	-140	1
2.7	2015_May_21_1655	s	s	12	4	SIC	458	ABS	2	0	02VD 02VO 10VC 02MD 02MO 02MC 02RD 02RO	0	1	1.80707502365	None	None	None	None	1
2.7	2015_May_21_1655	s	s	12	4	SIC	459	RC	2	0	02VD 02VO 09VC 02MD 02MO 02MC 02RD 02RO	0	1	1.41854715347	-406.0	-106.0	None	None	0
2.7	2015_May_21_1655	s	s	12	4	SIC	460	RC	1	0	02VD 02VO 02VC 02MD 02MO 09MC 02RD 02RO	1	0	0.994997024536	-368.0	-186.0	-380	-184	1
2.7	2015_May_21_1655	s	s	12	4	SIC	461	ABS	2	2	10VD 02VO 02VC 02MD 02MO 02MC 02RD 02RO	0	1	2.01858782768	None	None	None	None	1
2.7	2015_May_21_1655	s	s	12	4	SIC	462	ABS	1	1	02VD 02VO 02VC 02MD 10MO 02MC 02RD 02RO	0	1	2.35989904404	None	None	None	None	1
2.7	2015_May_21_1655	s	s	12	4	SIC	463	ABS	0	2	02VD 02VO 02VC 02MD 02MO 02MC 10RD 02RO	0	1	1.4310669899	None	None	None	None	1
2.7	2015_May_21_1655	s	s	12	4	SIC	464	RC	1	2	02VD 02VO 02VC 09MD 02MO 02MC 02RD 02RO	1	0	0.759401798248	100.0	-76.0	103	-78	1
2.7	2015_May_21_1655	s	s	12	4	SIC	465	ABS	0	1	02VD 02VO 02VC 02MD 02MO 02MC 02RD 10RO	0	1	2.87139582634	None	None	None	None	1
2.7	2015_May_21_1655	s	s	12	4	SIC	466	RC	1	2	02VD 02VO 02VC 09MD 02MO 02MC 02RD 02RO	1	0	1.21177601814	-420.0	151.0	-420	150	1
2.7	2015_May_21_1655	s	s	12	4	SIC	467	ABS	1	0	02VD 02VO 02VC 02MD 02MO 10MC 02RD 02RO	0	1	1.50597786903	None	None	None	None	1
2.7	2015_May_21_1655	s	s	12	4	SIC	468	ABS	1	2	02VD 02VO 02VC 10MD 02MO 02MC 02RD 02RO	0	1	1.67119002342	None	None	None	None	1
2.7	2015_May_21_1655	s	s	12	4	SIC	469	RC	1	0	02VD 02VO 02VC 02MD 02MO 09MC 02RD 02RO	1	0	1.21192193031	-380.0	25.0	-374	26	1
2.7	2015_May_21_1655	s	s	12	4	SIC	470	ABS	2	1	02VD 10VO 02VC 02MD 02MO 02MC 02RD 02RO	0	1	1.6070420742	None	None	None	None	1
2.7	2015_May_21_1655	s	s	12	4	SIC	471	RC	2	1	02VD 09VO 02VC 02MD 02MO 02MC 02RD 02RO	1	0	1.40681099892	-458.0	-409.0	-456	-413	1
2.7	2015_May_21_1655	s	s	12	4	SIC	472	ABS	2	2	10VD 02VO 02VC 02MD 02MO 02MC 02RD 02RO	0	1	1.7060739994	None	None	None	None	1
2.7	2015_May_21_1655	s	s	12	4	SIC	473	RC	2	0	02VD 02VO 09VC 02MD 02MO 02MC 02RD 02RO	1	0	1.82382392883	-282.0	342.0	-278	341	1
2.7	2015_May_21_1655	s	s	12	4	SIC	474	ABS	2	0	02VD 02VO 10VC 02MD 02MO 02MC 02RD 02RO	0	1	1.93648290634	None	None	None	None	1
2.7	2015_May_21_1655	s	s	12	4	SIC	475	RC	0	2	02VD 02VO 02VC 02MD 02MO 02MC 09RD 02RO	1	0	1.47069311142	176.0	285.0	176	283	1
2.7	2015_May_21_1655	s	s	12	4	SIC	476	RC	1	1	02VD 02VO 02VC 02MD 09MO 02MC 02RD 02RO	1	0	1.12483716011	263.0	272.0	263	272	1
2.7	2015_May_21_1655	s	s	12	4	SIC	477	ABS	1	1	02VD 02VO 02VC 02MD 10MO 02MC 02RD 02RO	0	1	2.23075914383	None	None	None	None	1
2.7	2015_May_21_1655	s	s	12	4	SIC	478	ABS	0	2	02VD 02VO 02VC 02MD 02MO 02MC 10RD 02RO	0	1	1.85911488533	None	None	None	None	1
2.7	2015_May_21_1655	s	s	12	4	SIC	479	RC	0	1	02VD 02VO 02VC 02MD 02MO 02MC 02RD 09RO	1	0	2.37230396271	0.0	234.0	0	224	1
2.7	2015_May_21_1655	s	s	12	4	SIC	480	RC	2	2	09VD 02VO 02VC 02MD 02MO 02MC 02RD 02RO	1	0	1.44231295586	193.0	123.0	192	116	1
