Version	Date	Stimuli	Method	Subject	Session	Condition	Trial	Target	Channel1	Channel2	Distractors	LMouseButton	RMouseButton	RT	TargetX	TargetY	ResponseX	ResponseY	Correct
2.7	2015_May_20_1653	s	s	12	3	Capacity	1	RC	0	1	08RD 15RO	1	0	1.11758303642	279.0	368.0	284	366	1
2.7	2015_May_20_1653	s	s	12	3	Capacity	2	RC	0	2	15RD 08RO	1	0	2.04260802269	208.0	366.0	204	373	1
2.7	2015_May_20_1653	s	s	12	3	Capacity	3	ABS	0	1	08RD 16RO	0	1	2.88036799431	None	None	None	None	1
2.7	2015_May_20_1653	s	s	12	3	Capacity	4	ABS	0	2	16RD 08RO	0	1	2.02003002167	None	None	None	None	1
2.7	2015_May_20_1653	s	s	12	3	Capacity	5	ABS	0	2	16RD 08RO	0	1	2.07101106644	None	None	None	None	1
2.7	2015_May_20_1653	s	s	12	3	Capacity	6	ABS	0	1	08RD 16RO	0	1	2.9066889286	None	None	None	None	1
2.7	2015_May_20_1653	s	s	12	3	Capacity	7	RC	0	1	08RD 15RO	1	0	3.03308987617	423.0	179.0	423	182	1
2.7	2015_May_20_1653	s	s	12	3	Capacity	8	RC	0	2	15RD 08RO	1	0	2.24752902985	12.0	-233.0	10	-231	1
2.7	2015_May_20_1653	s	s	12	3	Capacity	9	ABS	0	1	08RD 16RO	0	1	4.06721305847	None	None	None	None	1
2.7	2015_May_20_1653	s	s	12	3	Capacity	10	ABS	0	2	16RD 08RO	0	1	1.60669589043	None	None	None	None	1
2.7	2015_May_20_1653	s	s	12	3	Capacity	11	RC	0	2	15RD 08RO	1	0	1.20688796043	501.0	-84.0	507	-77	1
2.7	2015_May_20_1653	s	s	12	3	Capacity	12	RC	0	1	08RD 15RO	1	0	2.03558778763	177.0	-154.0	178	-155	1
2.7	2015_May_20_1653	s	s	12	3	Capacity	13	ABS	0	1	08RD 16RO	0	1	3.58939886093	None	None	None	None	1
2.7	2015_May_20_1653	s	s	12	3	Capacity	14	RC	0	1	08RD 15RO	1	0	1.45886802673	26.0	179.0	23	180	1
2.7	2015_May_20_1653	s	s	12	3	Capacity	15	RC	0	2	15RD 08RO	1	0	0.634953975677	-14.0	67.0	-11	59	1
2.7	2015_May_20_1653	s	s	12	3	Capacity	16	ABS	0	2	16RD 08RO	0	1	2.36038684845	None	None	None	None	1
2.7	2015_May_20_1653	s	s	12	3	Capacity	17	ABS	0	2	16RD 08RO	0	1	1.97700381279	None	None	None	None	1
2.7	2015_May_20_1653	s	s	12	3	Capacity	18	ABS	0	1	08RD 16RO	0	1	3.6931681633	None	None	None	None	1
2.7	2015_May_20_1653	s	s	12	3	Capacity	19	RC	0	2	15RD 08RO	1	0	0.658470869064	-399.0	145.0	-390	145	1
2.7	2015_May_20_1653	s	s	12	3	Capacity	20	RC	0	1	08RD 15RO	1	0	0.870411872864	-292.0	-262.0	-294	-255	1
2.7	2015_May_20_1653	s	s	12	3	Capacity	21	ABS	0	1	08RD 16RO	0	1	3.07146286964	None	None	None	None	1
2.7	2015_May_20_1653	s	s	12	3	Capacity	22	ABS	0	2	16RD 08RO	0	1	1.96190309525	None	None	None	None	1
2.7	2015_May_20_1653	s	s	12	3	Capacity	23	RC	0	2	15RD 08RO	1	0	2.54178190231	-310.0	-291.0	-309	-300	1
2.7	2015_May_20_1653	s	s	12	3	Capacity	24	RC	0	1	08RD 15RO	1	0	1.52641201019	-440.0	-388.0	-439	-388	1
2.7	2015_May_20_1653	s	s	12	3	Capacity	25	RC	0	1	08RD 15RO	1	0	2.61982703209	378.0	-57.0	385	-58	1
2.7	2015_May_20_1653	s	s	12	3	Capacity	26	RC	0	2	15RD 08RO	1	0	2.03363585472	342.0	201.0	338	199	1
2.7	2015_May_20_1653	s	s	12	3	Capacity	27	ABS	0	1	08RD 16RO	0	1	3.96062397957	None	None	None	None	1
2.7	2015_May_20_1653	s	s	12	3	Capacity	28	ABS	0	2	16RD 08RO	0	1	2.0064868927	None	None	None	None	1
2.7	2015_May_20_1653	s	s	12	3	Capacity	29	RC	0	1	08RD 15RO	1	0	2.51826190948	276.0	84.0	278	83	1
2.7	2015_May_20_1653	s	s	12	3	Capacity	30	RC	0	2	15RD 08RO	1	0	2.05429792404	417.0	-241.0	417	-233	1
2.7	2015_May_20_1653	s	s	12	3	Capacity	31	ABS	0	1	08RD 16RO	0	1	3.06934714317	None	None	None	None	1
2.7	2015_May_20_1653	s	s	12	3	Capacity	32	ABS	0	2	16RD 08RO	0	1	1.96891188622	None	None	None	None	1
2.7	2015_May_20_1653	s	s	12	3	Capacity	33	ABS	0	1	08RD 16RO	0	1	3.19605898857	None	None	None	None	1
2.7	2015_May_20_1653	s	s	12	3	Capacity	34	RC	0	2	15RD 08RO	0	1	3.55449795723	150.0	-296.0	None	None	0
2.7	2015_May_20_1653	s	s	12	3	Capacity	35	ABS	0	2	16RD 08RO	0	1	2.84783101082	None	None	None	None	1
2.7	2015_May_20_1653	s	s	12	3	Capacity	36	RC	0	1	08RD 15RO	1	0	0.917733192444	-99.0	103.0	-99	95	1
2.7	2015_May_20_1653	s	s	12	3	Capacity	37	ABS	0	2	16RD 08RO	0	1	2.28280687332	None	None	None	None	1
2.7	2015_May_20_1653	s	s	12	3	Capacity	38	ABS	0	1	08RD 16RO	0	1	3.30694007874	None	None	None	None	1
2.7	2015_May_20_1653	s	s	12	3	Capacity	39	RC	0	1	08RD 15RO	1	0	0.809387922287	151.0	-107.0	148	-110	1
2.7	2015_May_20_1653	s	s	12	3	Capacity	40	RC	0	2	15RD 08RO	1	0	1.30114197731	-311.0	104.0	-312	101	1
2.7	2015_May_20_1653	s	s	12	3	Capacity	41	RC	0	1	08RD 15RO	1	0	0.842646121979	-125.0	-9.0	-112	-5	1
2.7	2015_May_20_1653	s	s	12	3	Capacity	42	ABS	0	1	08RD 16RO	0	1	4.18478798866	None	None	None	None	1
2.7	2015_May_20_1653	s	s	12	3	Capacity	43	RC	0	2	15RD 08RO	1	0	1.88954305649	471.0	304.0	473	308	1
2.7	2015_May_20_1653	s	s	12	3	Capacity	44	ABS	0	2	16RD 08RO	0	1	1.8944170475	None	None	None	None	1
2.7	2015_May_20_1653	s	s	12	3	Capacity	45	RC	0	1	08RD 15RO	1	0	0.587802886963	8.0	13.0	4	10	1
2.7	2015_May_20_1653	s	s	12	3	Capacity	46	ABS	0	2	16RD 08RO	0	1	2.12985801697	None	None	None	None	1
2.7	2015_May_20_1653	s	s	12	3	Capacity	47	ABS	0	1	08RD 16RO	0	1	3.2667350769	None	None	None	None	1
2.7	2015_May_20_1653	s	s	12	3	Capacity	48	RC	0	2	15RD 08RO	1	0	1.72473812103	-139.0	-359.0	-131	-361	1
2.7	2015_May_20_1653	s	s	12	3	Capacity	49	ABS	0	2	16RD 08RO	0	1	2.27492809296	None	None	None	None	1
2.7	2015_May_20_1653	s	s	12	3	Capacity	50	RC	0	2	15RD 08RO	1	0	1.21848702431	-398.0	-317.0	-400	-319	1
2.7	2015_May_20_1653	s	s	12	3	Capacity	51	RC	0	1	08RD 15RO	1	0	2.35347008705	161.0	356.0	163	360	1
2.7	2015_May_20_1653	s	s	12	3	Capacity	52	ABS	0	1	08RD 16RO	0	1	3.57524204254	None	None	None	None	1
2.7	2015_May_20_1653	s	s	12	3	Capacity	53	RC	0	2	15RD 08RO	1	0	0.806061029434	229.0	-45.0	234	-42	1
2.7	2015_May_20_1653	s	s	12	3	Capacity	54	ABS	0	1	08RD 16RO	0	1	2.96555018425	None	None	None	None	1
2.7	2015_May_20_1653	s	s	12	3	Capacity	55	RC	0	1	08RD 15RO	0	1	0.505465984344	-176.0	-75.0	None	None	0
2.7	2015_May_20_1653	s	s	12	3	Capacity	56	ABS	0	2	16RD 08RO	0	1	1.88955616951	None	None	None	None	1
2.7	2015_May_20_1653	s	s	12	3	Capacity	57	RC	0	1	08RD 15RO	1	0	2.65605807304	474.0	-42.0	472	-50	1
2.7	2015_May_20_1653	s	s	12	3	Capacity	58	ABS	0	1	08RD 16RO	0	1	3.27158904076	None	None	None	None	1
2.7	2015_May_20_1653	s	s	12	3	Capacity	59	RC	0	2	15RD 08RO	1	0	0.997661113739	-397.0	-342.0	-398	-347	1
2.7	2015_May_20_1653	s	s	12	3	Capacity	60	ABS	0	2	16RD 08RO	0	1	2.36523795128	None	None	None	None	1
2.7	2015_May_20_1653	s	s	12	3	Capacity	61	RC	0	1	08RD 15RO	1	0	1.59525585175	87.0	356.0	90	355	1
2.7	2015_May_20_1653	s	s	12	3	Capacity	62	ABS	0	2	16RD 08RO	0	1	2.48296904564	None	None	None	None	1
2.7	2015_May_20_1653	s	s	12	3	Capacity	63	ABS	0	1	08RD 16RO	0	1	3.29179883003	None	None	None	None	1
2.7	2015_May_20_1653	s	s	12	3	Capacity	64	RC	0	2	15RD 08RO	1	0	1.12488102913	101.0	-2.0	95	0	1
2.7	2015_May_20_1653	s	s	12	3	Capacity	1	ABS	1	0	08VC 16MC	0	1	1.85363888741	None	None	None	None	1
2.7	2015_May_20_1653	s	s	12	3	Capacity	2	RC	1	0	08VC 15MC	1	0	0.717365026474	-328.0	-409.0	-320	-413	1
2.7	2015_May_20_1653	s	s	12	3	Capacity	3	RC	2	0	15VC 08MC	1	0	0.552561998367	336.0	-14.0	333	-12	1
2.7	2015_May_20_1653	s	s	12	3	Capacity	4	ABS	2	0	16VC 08MC	1	0	1.01838493347	None	None	-260	140	0
2.7	2015_May_20_1653	s	s	12	3	Capacity	5	ABS	2	0	16VC 08MC	0	1	1.54941606522	None	None	None	None	1
2.7	2015_May_20_1653	s	s	12	3	Capacity	6	RC	1	0	08VC 15MC	1	0	1.00816202164	388.0	181.0	382	183	1
2.7	2015_May_20_1653	s	s	12	3	Capacity	7	RC	2	0	15VC 08MC	1	0	1.57662987709	-516.0	64.0	-512	68	1
2.7	2015_May_20_1653	s	s	12	3	Capacity	8	ABS	1	0	08VC 16MC	0	1	1.98854804039	None	None	None	None	1
2.7	2015_May_20_1653	s	s	12	3	Capacity	9	ABS	1	0	08VC 16MC	0	1	1.68257188797	None	None	None	None	1
2.7	2015_May_20_1653	s	s	12	3	Capacity	10	RC	1	0	08VC 15MC	1	0	0.947687149048	-385.0	-290.0	-388	-295	1
2.7	2015_May_20_1653	s	s	12	3	Capacity	11	RC	2	0	15VC 08MC	1	0	0.658545017242	-422.0	125.0	-417	119	1
2.7	2015_May_20_1653	s	s	12	3	Capacity	12	ABS	2	0	16VC 08MC	0	1	1.47060203552	None	None	None	None	1
2.7	2015_May_20_1653	s	s	12	3	Capacity	13	RC	1	0	08VC 15MC	1	0	0.889136075974	-289.0	365.0	-287	362	1
2.7	2015_May_20_1653	s	s	12	3	Capacity	14	RC	2	0	15VC 08MC	0	1	0.207056999207	258.0	211.0	None	None	0
2.7	2015_May_20_1653	s	s	12	3	Capacity	15	ABS	2	0	16VC 08MC	0	1	2.04743409157	None	None	None	None	1
2.7	2015_May_20_1653	s	s	12	3	Capacity	16	ABS	1	0	08VC 16MC	0	1	1.68950986862	None	None	None	None	1
2.7	2015_May_20_1653	s	s	12	3	Capacity	17	ABS	1	0	08VC 16MC	0	1	2.02131986618	None	None	None	None	1
2.7	2015_May_20_1653	s	s	12	3	Capacity	18	ABS	2	0	16VC 08MC	0	1	1.47457098961	None	None	None	None	1
2.7	2015_May_20_1653	s	s	12	3	Capacity	19	RC	2	0	15VC 08MC	1	0	0.573896169662	43.0	110.0	44	104	1
2.7	2015_May_20_1653	s	s	12	3	Capacity	20	RC	1	0	08VC 15MC	1	0	0.93764591217	97.0	-308.0	100	-311	1
2.7	2015_May_20_1653	s	s	12	3	Capacity	21	RC	2	0	15VC 08MC	1	0	1.01169514656	-312.0	342.0	-314	330	1
2.7	2015_May_20_1653	s	s	12	3	Capacity	22	RC	1	0	08VC 15MC	1	0	1.17639708519	462.0	293.0	454	299	1
2.7	2015_May_20_1653	s	s	12	3	Capacity	23	ABS	2	0	16VC 08MC	0	1	1.80964994431	None	None	None	None	1
2.7	2015_May_20_1653	s	s	12	3	Capacity	24	ABS	1	0	08VC 16MC	0	1	1.83322501183	None	None	None	None	1
2.7	2015_May_20_1653	s	s	12	3	Capacity	25	RC	2	0	15VC 08MC	1	0	0.616000175476	-256.0	-262.0	-256	-277	1
2.7	2015_May_20_1653	s	s	12	3	Capacity	26	ABS	2	0	16VC 08MC	0	1	1.98552489281	None	None	None	None	1
2.7	2015_May_20_1653	s	s	12	3	Capacity	27	ABS	1	0	08VC 16MC	0	1	1.28235578537	None	None	None	None	1
2.7	2015_May_20_1653	s	s	12	3	Capacity	28	RC	1	0	08VC 15MC	1	0	0.559729099274	-159.0	-266.0	-159	-265	1
2.7	2015_May_20_1653	s	s	12	3	Capacity	29	RC	1	0	08VC 15MC	1	0	1.14805603027	331.0	405.0	335	404	1
2.7	2015_May_20_1653	s	s	12	3	Capacity	30	ABS	1	0	08VC 16MC	0	1	1.41181206703	None	None	None	None	1
2.7	2015_May_20_1653	s	s	12	3	Capacity	31	ABS	2	0	16VC 08MC	0	1	1.63586497307	None	None	None	None	1
2.7	2015_May_20_1653	s	s	12	3	Capacity	32	RC	2	0	15VC 08MC	1	0	0.689440965652	-463.0	-372.0	-459	-371	1
2.7	2015_May_20_1653	s	s	12	3	Capacity	33	RC	1	0	08VC 15MC	1	0	0.705555200577	219.0	-301.0	209	-303	1
2.7	2015_May_20_1653	s	s	12	3	Capacity	34	ABS	2	0	16VC 08MC	0	1	1.15288305283	None	None	None	None	1
2.7	2015_May_20_1653	s	s	12	3	Capacity	35	ABS	1	0	08VC 16MC	0	1	1.9602189064	None	None	None	None	1
2.7	2015_May_20_1653	s	s	12	3	Capacity	36	RC	2	0	15VC 08MC	1	0	0.658529043198	-31.0	203.0	-28	197	1
2.7	2015_May_20_1653	s	s	12	3	Capacity	37	ABS	1	0	08VC 16MC	0	1	1.5531680584	None	None	None	None	1
2.7	2015_May_20_1653	s	s	12	3	Capacity	38	RC	2	0	15VC 08MC	1	0	0.971479892731	374.0	-264.0	379	-269	1
2.7	2015_May_20_1653	s	s	12	3	Capacity	39	RC	1	0	08VC 15MC	1	0	0.905745029449	179.0	170.0	180	165	1
2.7	2015_May_20_1653	s	s	12	3	Capacity	40	ABS	2	0	16VC 08MC	0	1	2.1250269413	None	None	None	None	1
2.7	2015_May_20_1653	s	s	12	3	Capacity	41	RC	2	0	15VC 08MC	1	0	0.521841049194	135.0	-51.0	137	-51	1
2.7	2015_May_20_1653	s	s	12	3	Capacity	42	ABS	2	0	16VC 08MC	0	1	1.34506797791	None	None	None	None	1
2.7	2015_May_20_1653	s	s	12	3	Capacity	43	ABS	1	0	08VC 16MC	0	1	1.84718799591	None	None	None	None	1
2.7	2015_May_20_1653	s	s	12	3	Capacity	44	RC	1	0	08VC 15MC	1	0	1.32975816727	251.0	-412.0	258	-409	1
2.7	2015_May_20_1653	s	s	12	3	Capacity	45	RC	2	0	15VC 08MC	1	0	0.971511125565	-336.0	-268.0	-334	-266	1
2.7	2015_May_20_1653	s	s	12	3	Capacity	46	ABS	1	0	08VC 16MC	0	1	2.13678407669	None	None	None	None	1
2.7	2015_May_20_1653	s	s	12	3	Capacity	47	ABS	2	0	16VC 08MC	0	1	1.26574087143	None	None	None	None	1
2.7	2015_May_20_1653	s	s	12	3	Capacity	48	RC	1	0	08VC 15MC	1	0	1.08228302002	-164.0	397.0	-164	394	1
2.7	2015_May_20_1653	s	s	12	3	Capacity	49	ABS	1	0	08VC 16MC	0	1	2.0806851387	None	None	None	None	1
2.7	2015_May_20_1653	s	s	12	3	Capacity	50	RC	1	0	08VC 15MC	1	0	0.891239881516	-361.0	256.0	-354	253	1
2.7	2015_May_20_1653	s	s	12	3	Capacity	51	ABS	2	0	16VC 08MC	0	1	1.65903711319	None	None	None	None	1
2.7	2015_May_20_1653	s	s	12	3	Capacity	52	RC	2	0	15VC 08MC	1	0	0.576085090637	145.0	-35.0	154	-39	1
2.7	2015_May_20_1653	s	s	12	3	Capacity	53	ABS	1	0	08VC 16MC	0	1	2.00035905838	None	None	None	None	1
2.7	2015_May_20_1653	s	s	12	3	Capacity	54	RC	2	0	15VC 08MC	1	0	0.682060956955	-271.0	-365.0	-263	-368	1
2.7	2015_May_20_1653	s	s	12	3	Capacity	55	ABS	2	0	16VC 08MC	0	1	1.2705681324	None	None	None	None	1
2.7	2015_May_20_1653	s	s	12	3	Capacity	56	RC	1	0	08VC 15MC	1	0	2.42410612106	-315.0	103.0	-314	105	1
2.7	2015_May_20_1653	s	s	12	3	Capacity	57	ABS	2	0	16VC 08MC	0	1	1.71425199509	None	None	None	None	1
2.7	2015_May_20_1653	s	s	12	3	Capacity	58	RC	1	0	08VC 15MC	1	0	0.842057943344	-168.0	59.0	-161	54	1
2.7	2015_May_20_1653	s	s	12	3	Capacity	59	ABS	1	0	08VC 16MC	0	1	1.97199583054	None	None	None	None	1
2.7	2015_May_20_1653	s	s	12	3	Capacity	60	RC	2	0	15VC 08MC	1	0	0.987967014313	-462.0	166.0	-465	162	1
2.7	2015_May_20_1653	s	s	12	3	Capacity	61	ABS	2	0	16VC 08MC	0	1	1.32484197617	None	None	None	None	1
2.7	2015_May_20_1653	s	s	12	3	Capacity	62	ABS	1	0	08VC 16MC	0	1	2.98901295662	None	None	None	None	1
2.7	2015_May_20_1653	s	s	12	3	Capacity	63	RC	2	0	15VC 08MC	1	0	0.734548091888	443.0	-322.0	451	-323	1
2.7	2015_May_20_1653	s	s	12	3	Capacity	64	RC	1	0	08VC 15MC	1	0	1.16477394104	210.0	167.0	217	165	1
2.7	2015_May_20_1653	s	s	12	3	SIC	1	RC	2	0	02VD 02VO 09VC 02MD 02MO 02MC 02RD 02RO	1	0	1.23528695107	-63.0	189.0	-61	193	1
2.7	2015_May_20_1653	s	s	12	3	SIC	2	ABS	0	1	02VD 02VO 02VC 02MD 02MO 02MC 02RD 10RO	0	1	2.34833884239	None	None	None	None	1
2.7	2015_May_20_1653	s	s	12	3	SIC	3	ABS	1	0	02VD 02VO 02VC 02MD 02MO 10MC 02RD 02RO	0	1	2.53678107262	None	None	None	None	1
2.7	2015_May_20_1653	s	s	12	3	SIC	4	ABS	2	1	02VD 10VO 02VC 02MD 02MO 02MC 02RD 02RO	0	1	2.18380689621	None	None	None	None	1
2.7	2015_May_20_1653	s	s	12	3	SIC	5	RC	0	1	02VD 02VO 02VC 02MD 02MO 02MC 02RD 09RO	1	0	2.08267188072	441.0	320.0	439	314	1
2.7	2015_May_20_1653	s	s	12	3	SIC	6	RC	2	2	09VD 02VO 02VC 02MD 02MO 02MC 02RD 02RO	1	0	0.811444997787	-238.0	-221.0	-242	-223	1
2.7	2015_May_20_1653	s	s	12	3	SIC	7	RC	1	2	02VD 02VO 02VC 09MD 02MO 02MC 02RD 02RO	1	0	0.717279911041	168.0	211.0	164	204	1
2.7	2015_May_20_1653	s	s	12	3	SIC	8	ABS	1	1	02VD 02VO 02VC 02MD 10MO 02MC 02RD 02RO	0	1	1.82764697075	None	None	None	None	1
2.7	2015_May_20_1653	s	s	12	3	SIC	9	ABS	1	2	02VD 02VO 02VC 10MD 02MO 02MC 02RD 02RO	0	1	1.48937797546	None	None	None	None	1
2.7	2015_May_20_1653	s	s	12	3	SIC	10	RC	2	1	02VD 09VO 02VC 02MD 02MO 02MC 02RD 02RO	1	0	0.994987010956	-425.0	-357.0	-423	-353	1
2.7	2015_May_20_1653	s	s	12	3	SIC	11	ABS	2	2	10VD 02VO 02VC 02MD 02MO 02MC 02RD 02RO	0	1	1.58317494392	None	None	None	None	1
2.7	2015_May_20_1653	s	s	12	3	SIC	12	RC	0	2	02VD 02VO 02VC 02MD 02MO 02MC 09RD 02RO	1	0	0.764361143112	-323.0	181.0	-323	187	1
2.7	2015_May_20_1653	s	s	12	3	SIC	13	RC	1	1	02VD 02VO 02VC 02MD 09MO 02MC 02RD 02RO	1	0	1.28236699104	-488.0	-325.0	-488	-324	1
2.7	2015_May_20_1653	s	s	12	3	SIC	14	RC	1	0	02VD 02VO 02VC 02MD 02MO 09MC 02RD 02RO	1	0	0.682044029236	174.0	-50.0	177	-51	1
2.7	2015_May_20_1653	s	s	12	3	SIC	15	ABS	0	2	02VD 02VO 02VC 02MD 02MO 02MC 10RD 02RO	0	1	1.88940405846	None	None	None	None	1
2.7	2015_May_20_1653	s	s	12	3	SIC	16	ABS	2	0	02VD 02VO 10VC 02MD 02MO 02MC 02RD 02RO	0	1	1.85912108421	None	None	None	None	1
2.7	2015_May_20_1653	s	s	12	3	SIC	17	ABS	1	0	02VD 02VO 02VC 02MD 02MO 10MC 02RD 02RO	0	1	2.45493507385	None	None	None	None	1
2.7	2015_May_20_1653	s	s	12	3	SIC	18	ABS	0	2	02VD 02VO 02VC 02MD 02MO 02MC 10RD 02RO	0	1	2.2986907959	None	None	None	None	1
2.7	2015_May_20_1653	s	s	12	3	SIC	19	ABS	2	2	10VD 02VO 02VC 02MD 02MO 02MC 02RD 02RO	0	1	1.25585985184	None	None	None	None	1
2.7	2015_May_20_1653	s	s	12	3	SIC	20	ABS	1	2	02VD 02VO 02VC 10MD 02MO 02MC 02RD 02RO	0	1	1.53642201424	None	None	None	None	1
2.7	2015_May_20_1653	s	s	12	3	SIC	21	RC	2	1	02VD 09VO 02VC 02MD 02MO 02MC 02RD 02RO	1	0	1.30052185059	296.0	-264.0	301	-268	1
2.7	2015_May_20_1653	s	s	12	3	SIC	22	ABS	2	1	02VD 10VO 02VC 02MD 02MO 02MC 02RD 02RO	0	1	1.61192703247	None	None	None	None	1
2.7	2015_May_20_1653	s	s	12	3	SIC	23	ABS	1	1	02VD 02VO 02VC 02MD 10MO 02MC 02RD 02RO	0	1	1.69428300858	None	None	None	None	1
2.7	2015_May_20_1653	s	s	12	3	SIC	24	RC	1	1	02VD 02VO 02VC 02MD 09MO 02MC 02RD 02RO	1	0	1.43542218208	-486.0	-289.0	-496	-290	1
2.7	2015_May_20_1653	s	s	12	3	SIC	25	RC	0	1	02VD 02VO 02VC 02MD 02MO 02MC 02RD 09RO	1	0	0.99490404129	-74.0	41.0	-65	38	1
2.7	2015_May_20_1653	s	s	12	3	SIC	26	RC	0	2	02VD 02VO 02VC 02MD 02MO 02MC 09RD 02RO	1	0	0.535863876343	-137.0	-32.0	-131	-36	1
2.7	2015_May_20_1653	s	s	12	3	SIC	27	RC	2	0	02VD 02VO 09VC 02MD 02MO 02MC 02RD 02RO	1	0	1.02336883545	-523.0	-291.0	-528	-283	1
2.7	2015_May_20_1653	s	s	12	3	SIC	28	RC	2	2	09VD 02VO 02VC 02MD 02MO 02MC 02RD 02RO	1	0	1.48934412003	462.0	2.0	463	-7	1
2.7	2015_May_20_1653	s	s	12	3	SIC	29	ABS	2	0	02VD 02VO 10VC 02MD 02MO 02MC 02RD 02RO	0	1	1.63059902191	None	None	None	None	1
2.7	2015_May_20_1653	s	s	12	3	SIC	30	RC	1	2	02VD 02VO 02VC 09MD 02MO 02MC 02RD 02RO	1	0	0.750375032425	-385.0	-222.0	-387	-221	1
2.7	2015_May_20_1653	s	s	12	3	SIC	31	ABS	0	1	02VD 02VO 02VC 02MD 02MO 02MC 02RD 10RO	0	1	3.37750983238	None	None	None	None	1
2.7	2015_May_20_1653	s	s	12	3	SIC	32	RC	1	0	02VD 02VO 02VC 02MD 02MO 09MC 02RD 02RO	1	0	0.806697130203	-316.0	66.0	-313	63	1
2.7	2015_May_20_1653	s	s	12	3	SIC	33	ABS	1	0	02VD 02VO 02VC 02MD 02MO 10MC 02RD 02RO	0	1	2.4310438633	None	None	None	None	1
2.7	2015_May_20_1653	s	s	12	3	SIC	34	RC	0	1	02VD 02VO 02VC 02MD 02MO 02MC 02RD 09RO	1	0	1.02339696884	-182.0	19.0	-176	15	1
2.7	2015_May_20_1653	s	s	12	3	SIC	35	RC	2	2	09VD 02VO 02VC 02MD 02MO 02MC 02RD 02RO	1	0	0.93617105484	-404.0	-326.0	-411	-328	1
2.7	2015_May_20_1653	s	s	12	3	SIC	36	ABS	0	1	02VD 02VO 02VC 02MD 02MO 02MC 02RD 10RO	0	1	2.52531003952	None	None	None	None	1
2.7	2015_May_20_1653	s	s	12	3	SIC	37	RC	2	0	02VD 02VO 09VC 02MD 02MO 02MC 02RD 02RO	1	0	0.842545032501	197.0	-107.0	202	-109	1
2.7	2015_May_20_1653	s	s	12	3	SIC	38	ABS	0	2	02VD 02VO 02VC 02MD 02MO 02MC 10RD 02RO	0	1	1.67769098282	None	None	None	None	1
2.7	2015_May_20_1653	s	s	12	3	SIC	39	ABS	1	1	02VD 02VO 02VC 02MD 10MO 02MC 02RD 02RO	0	1	2.44320487976	None	None	None	None	1
2.7	2015_May_20_1653	s	s	12	3	SIC	40	ABS	1	2	02VD 02VO 02VC 10MD 02MO 02MC 02RD 02RO	0	1	1.74523997307	None	None	None	None	1
2.7	2015_May_20_1653	s	s	12	3	SIC	41	RC	0	2	02VD 02VO 02VC 02MD 02MO 02MC 09RD 02RO	1	0	0.853082895279	151.0	-376.0	150	-369	1
2.7	2015_May_20_1653	s	s	12	3	SIC	42	ABS	2	1	02VD 10VO 02VC 02MD 02MO 02MC 02RD 02RO	0	1	1.85645508766	None	None	None	None	1
2.7	2015_May_20_1653	s	s	12	3	SIC	43	ABS	2	0	02VD 02VO 10VC 02MD 02MO 02MC 02RD 02RO	0	1	1.58474802971	None	None	None	None	1
2.7	2015_May_20_1653	s	s	12	3	SIC	44	ABS	2	2	10VD 02VO 02VC 02MD 02MO 02MC 02RD 02RO	0	1	2.08903121948	None	None	None	None	1
2.7	2015_May_20_1653	s	s	12	3	SIC	45	RC	1	1	02VD 02VO 02VC 02MD 09MO 02MC 02RD 02RO	1	0	1.98625898361	337.0	376.0	344	379	1
2.7	2015_May_20_1653	s	s	12	3	SIC	46	RC	1	0	02VD 02VO 02VC 02MD 02MO 09MC 02RD 02RO	1	0	1.44711709023	503.0	23.0	504	21	1
2.7	2015_May_20_1653	s	s	12	3	SIC	47	RC	2	1	02VD 09VO 02VC 02MD 02MO 02MC 02RD 02RO	1	0	0.620043039322	208.0	110.0	204	105	1
2.7	2015_May_20_1653	s	s	12	3	SIC	48	RC	1	2	02VD 02VO 02VC 09MD 02MO 02MC 02RD 02RO	1	0	0.700261831284	-330.0	149.0	-328	147	1
2.7	2015_May_20_1653	s	s	12	3	SIC	49	ABS	1	2	02VD 02VO 02VC 10MD 02MO 02MC 02RD 02RO	0	1	1.55994510651	None	None	None	None	1
2.7	2015_May_20_1653	s	s	12	3	SIC	50	RC	2	2	09VD 02VO 02VC 02MD 02MO 02MC 02RD 02RO	1	0	0.952792167664	292.0	322.0	291	322	1
2.7	2015_May_20_1653	s	s	12	3	SIC	51	RC	1	2	02VD 02VO 02VC 09MD 02MO 02MC 02RD 02RO	1	0	1.14801001549	-17.0	-361.0	-17	-359	1
2.7	2015_May_20_1653	s	s	12	3	SIC	52	ABS	1	0	02VD 02VO 02VC 02MD 02MO 10MC 02RD 02RO	0	1	2.55071020126	None	None	None	None	1
2.7	2015_May_20_1653	s	s	12	3	SIC	53	RC	2	1	02VD 09VO 02VC 02MD 02MO 02MC 02RD 02RO	1	0	1.05384087563	303.0	-50.0	306	-48	1
2.7	2015_May_20_1653	s	s	12	3	SIC	54	ABS	2	1	02VD 10VO 02VC 02MD 02MO 02MC 02RD 02RO	0	1	1.47755289078	None	None	None	None	1
2.7	2015_May_20_1653	s	s	12	3	SIC	55	RC	1	0	02VD 02VO 02VC 02MD 02MO 09MC 02RD 02RO	1	0	0.724130868912	-429.0	-284.0	-423	-279	1
2.7	2015_May_20_1653	s	s	12	3	SIC	56	ABS	0	1	02VD 02VO 02VC 02MD 02MO 02MC 02RD 10RO	0	1	3.50425004959	None	None	None	None	1
2.7	2015_May_20_1653	s	s	12	3	SIC	57	ABS	2	2	10VD 02VO 02VC 02MD 02MO 02MC 02RD 02RO	0	1	1.66564011574	None	None	None	None	1
2.7	2015_May_20_1653	s	s	12	3	SIC	58	ABS	0	2	02VD 02VO 02VC 02MD 02MO 02MC 10RD 02RO	0	1	1.68943715096	None	None	None	None	1
2.7	2015_May_20_1653	s	s	12	3	SIC	59	ABS	1	1	02VD 02VO 02VC 02MD 10MO 02MC 02RD 02RO	0	1	2.27794718742	None	None	None	None	1
2.7	2015_May_20_1653	s	s	12	3	SIC	60	RC	0	2	02VD 02VO 02VC 02MD 02MO 02MC 09RD 02RO	1	0	1.64237880707	-288.0	-202.0	-291	-210	1
2.7	2015_May_20_1653	s	s	12	3	SIC	61	RC	0	1	02VD 02VO 02VC 02MD 02MO 02MC 02RD 09RO	1	0	2.32510304451	-478.0	378.0	-483	376	1
2.7	2015_May_20_1653	s	s	12	3	SIC	62	RC	2	0	02VD 02VO 09VC 02MD 02MO 02MC 02RD 02RO	1	0	0.771332979202	-482.0	-77.0	-482	-80	1
2.7	2015_May_20_1653	s	s	12	3	SIC	63	ABS	2	0	02VD 02VO 10VC 02MD 02MO 02MC 02RD 02RO	0	1	1.97188091278	None	None	None	None	1
2.7	2015_May_20_1653	s	s	12	3	SIC	64	RC	1	1	02VD 02VO 02VC 02MD 09MO 02MC 02RD 02RO	1	0	1.44425606728	483.0	-86.0	484	-87	1
2.7	2015_May_20_1653	s	s	12	3	SIC	65	ABS	0	2	02VD 02VO 02VC 02MD 02MO 02MC 10RD 02RO	0	1	2.05429697037	None	None	None	None	1
2.7	2015_May_20_1653	s	s	12	3	SIC	66	RC	2	0	02VD 02VO 09VC 02MD 02MO 02MC 02RD 02RO	1	0	1.22347784042	-245.0	276.0	-240	270	1
2.7	2015_May_20_1653	s	s	12	3	SIC	67	RC	1	1	02VD 02VO 02VC 02MD 09MO 02MC 02RD 02RO	1	0	1.22348189354	285.0	-364.0	290	-366	1
2.7	2015_May_20_1653	s	s	12	3	SIC	68	ABS	2	0	02VD 02VO 10VC 02MD 02MO 02MC 02RD 02RO	0	1	1.73886990547	None	None	None	None	1
2.7	2015_May_20_1653	s	s	12	3	SIC	69	ABS	1	1	02VD 02VO 02VC 02MD 10MO 02MC 02RD 02RO	0	1	2.16512417793	None	None	None	None	1
2.7	2015_May_20_1653	s	s	12	3	SIC	70	ABS	2	1	02VD 10VO 02VC 02MD 02MO 02MC 02RD 02RO	0	1	1.18819594383	None	None	None	None	1
2.7	2015_May_20_1653	s	s	12	3	SIC	71	ABS	2	2	10VD 02VO 02VC 02MD 02MO 02MC 02RD 02RO	0	1	1.08225703239	None	None	None	None	1
2.7	2015_May_20_1653	s	s	12	3	SIC	72	RC	2	2	09VD 02VO 02VC 02MD 02MO 02MC 02RD 02RO	1	0	1.16461896896	43.0	312.0	44	308	1
2.7	2015_May_20_1653	s	s	12	3	SIC	73	ABS	0	1	02VD 02VO 02VC 02MD 02MO 02MC 02RD 10RO	0	1	3.31379795074	None	None	None	None	1
2.7	2015_May_20_1653	s	s	12	3	SIC	74	ABS	1	2	02VD 02VO 02VC 10MD 02MO 02MC 02RD 02RO	0	1	1.58350396156	None	None	None	None	1
2.7	2015_May_20_1653	s	s	12	3	SIC	75	RC	1	2	02VD 02VO 02VC 09MD 02MO 02MC 02RD 02RO	1	0	0.828297138214	-398.0	-292.0	-398	-294	1
2.7	2015_May_20_1653	s	s	12	3	SIC	76	ABS	1	0	02VD 02VO 02VC 02MD 02MO 10MC 02RD 02RO	0	1	2.14163708687	None	None	None	None	1
2.7	2015_May_20_1653	s	s	12	3	SIC	77	RC	2	1	02VD 09VO 02VC 02MD 02MO 02MC 02RD 02RO	0	1	1.02336502075	469.0	102.0	None	None	0
2.7	2015_May_20_1653	s	s	12	3	SIC	78	RC	1	0	02VD 02VO 02VC 02MD 02MO 09MC 02RD 02RO	1	0	0.865645170212	459.0	-72.0	457	-65	1
2.7	2015_May_20_1653	s	s	12	3	SIC	79	RC	0	2	02VD 02VO 02VC 02MD 02MO 02MC 09RD 02RO	1	0	1.45416307449	-248.0	406.0	-245	400	1
2.7	2015_May_20_1653	s	s	12	3	SIC	80	RC	0	1	02VD 02VO 02VC 02MD 02MO 02MC 02RD 09RO	1	0	2.92314600945	452.0	308.0	450	303	1
2.7	2015_May_20_1653	s	s	12	3	SIC	81	ABS	1	0	02VD 02VO 02VC 02MD 02MO 10MC 02RD 02RO	0	1	1.47765994072	None	None	None	None	1
2.7	2015_May_20_1653	s	s	12	3	SIC	82	RC	2	1	02VD 09VO 02VC 02MD 02MO 02MC 02RD 02RO	1	0	0.722737789154	463.0	120.0	459	114	1
2.7	2015_May_20_1653	s	s	12	3	SIC	83	ABS	0	1	02VD 02VO 02VC 02MD 02MO 02MC 02RD 10RO	0	1	3.20957899094	None	None	None	None	1
2.7	2015_May_20_1653	s	s	12	3	SIC	84	ABS	2	2	10VD 02VO 02VC 02MD 02MO 02MC 02RD 02RO	0	1	1.46578407288	None	None	None	None	1
2.7	2015_May_20_1653	s	s	12	3	SIC	85	RC	2	0	02VD 02VO 09VC 02MD 02MO 02MC 02RD 02RO	1	0	1.5295188427	346.0	379.0	349	381	1
2.7	2015_May_20_1653	s	s	12	3	SIC	86	RC	0	2	02VD 02VO 02VC 02MD 02MO 02MC 09RD 02RO	1	0	1.33632206917	-287.0	-180.0	-285	-186	1
2.7	2015_May_20_1653	s	s	12	3	SIC	87	ABS	0	2	02VD 02VO 02VC 02MD 02MO 02MC 10RD 02RO	0	1	1.91381716728	None	None	None	None	1
2.7	2015_May_20_1653	s	s	12	3	SIC	88	ABS	1	1	02VD 02VO 02VC 02MD 10MO 02MC 02RD 02RO	0	1	2.80745196342	None	None	None	None	1
2.7	2015_May_20_1653	s	s	12	3	SIC	89	RC	0	1	02VD 02VO 02VC 02MD 02MO 02MC 02RD 09RO	1	0	0.976317882538	-532.0	-222.0	-531	-214	1
2.7	2015_May_20_1653	s	s	12	3	SIC	90	RC	1	1	02VD 02VO 02VC 02MD 09MO 02MC 02RD 02RO	1	0	0.505472183228	-190.0	-47.0	-199	-37	1
2.7	2015_May_20_1653	s	s	12	3	SIC	91	RC	1	0	02VD 02VO 02VC 02MD 02MO 09MC 02RD 02RO	1	0	1.115432024	-7.0	258.0	-10	252	1
2.7	2015_May_20_1653	s	s	12	3	SIC	92	ABS	2	1	02VD 10VO 02VC 02MD 02MO 02MC 02RD 02RO	0	1	2.05200505257	None	None	None	None	1
2.7	2015_May_20_1653	s	s	12	3	SIC	93	ABS	1	2	02VD 02VO 02VC 10MD 02MO 02MC 02RD 02RO	0	1	1.71786594391	None	None	None	None	1
2.7	2015_May_20_1653	s	s	12	3	SIC	94	ABS	2	0	02VD 02VO 10VC 02MD 02MO 02MC 02RD 02RO	0	1	1.44230508804	None	None	None	None	1
2.7	2015_May_20_1653	s	s	12	3	SIC	95	RC	1	2	02VD 02VO 02VC 09MD 02MO 02MC 02RD 02RO	1	0	1.60014414787	494.0	265.0	495	265	1
2.7	2015_May_20_1653	s	s	12	3	SIC	96	RC	2	2	09VD 02VO 02VC 02MD 02MO 02MC 02RD 02RO	1	0	0.729022026062	13.0	128.0	18	122	1
2.7	2015_May_20_1653	s	s	12	3	SIC	97	RC	1	1	02VD 02VO 02VC 02MD 09MO 02MC 02RD 02RO	1	0	0.852267980576	356.0	-31.0	357	-26	1
2.7	2015_May_20_1653	s	s	12	3	SIC	98	RC	2	1	02VD 09VO 02VC 02MD 02MO 02MC 02RD 02RO	1	0	0.926086187363	403.0	-387.0	398	-378	1
2.7	2015_May_20_1653	s	s	12	3	SIC	99	RC	0	1	02VD 02VO 02VC 02MD 02MO 02MC 02RD 09RO	1	0	1.6069419384	359.0	175.0	364	177	1
2.7	2015_May_20_1653	s	s	12	3	SIC	100	ABS	2	2	10VD 02VO 02VC 02MD 02MO 02MC 02RD 02RO	0	1	1.55301904678	None	None	None	None	1
2.7	2015_May_20_1653	s	s	12	3	SIC	101	ABS	0	2	02VD 02VO 02VC 02MD 02MO 02MC 10RD 02RO	0	1	1.67734694481	None	None	None	None	1
2.7	2015_May_20_1653	s	s	12	3	SIC	102	RC	1	0	02VD 02VO 02VC 02MD 02MO 09MC 02RD 02RO	1	0	2.13724899292	435.0	-229.0	433	-229	1
2.7	2015_May_20_1653	s	s	12	3	SIC	103	ABS	0	1	02VD 02VO 02VC 02MD 02MO 02MC 02RD 10RO	0	1	3.04793286324	None	None	None	None	1
2.7	2015_May_20_1653	s	s	12	3	SIC	104	ABS	2	1	02VD 10VO 02VC 02MD 02MO 02MC 02RD 02RO	0	1	1.77675914764	None	None	None	None	1
2.7	2015_May_20_1653	s	s	12	3	SIC	105	RC	0	2	02VD 02VO 02VC 02MD 02MO 02MC 09RD 02RO	1	0	0.846848011017	41.0	107.0	42	101	1
2.7	2015_May_20_1653	s	s	12	3	SIC	106	RC	1	2	02VD 02VO 02VC 09MD 02MO 02MC 02RD 02RO	1	0	0.677161931992	38.0	-336.0	35	-339	1
2.7	2015_May_20_1653	s	s	12	3	SIC	107	ABS	1	1	02VD 02VO 02VC 02MD 10MO 02MC 02RD 02RO	0	1	3.05970191956	None	None	None	None	1
2.7	2015_May_20_1653	s	s	12	3	SIC	108	ABS	1	2	02VD 02VO 02VC 10MD 02MO 02MC 02RD 02RO	0	1	1.52472496033	None	None	None	None	1
2.7	2015_May_20_1653	s	s	12	3	SIC	109	ABS	2	0	02VD 02VO 10VC 02MD 02MO 02MC 02RD 02RO	0	1	1.50160312653	None	None	None	None	1
2.7	2015_May_20_1653	s	s	12	3	SIC	110	RC	2	2	09VD 02VO 02VC 02MD 02MO 02MC 02RD 02RO	1	0	1.80717206001	449.0	191.0	451	184	1
2.7	2015_May_20_1653	s	s	12	3	SIC	111	ABS	1	0	02VD 02VO 02VC 02MD 02MO 10MC 02RD 02RO	0	1	2.53701210022	None	None	None	None	1
2.7	2015_May_20_1653	s	s	12	3	SIC	112	RC	2	0	02VD 02VO 09VC 02MD 02MO 02MC 02RD 02RO	1	0	0.823177099228	-232.0	51.0	-229	43	1
2.7	2015_May_20_1653	s	s	12	3	SIC	113	RC	2	2	09VD 02VO 02VC 02MD 02MO 02MC 02RD 02RO	1	0	1.40676903725	-198.0	318.0	-190	321	1
2.7	2015_May_20_1653	s	s	12	3	SIC	114	ABS	0	1	02VD 02VO 02VC 02MD 02MO 02MC 02RD 10RO	0	1	3.03618907928	None	None	None	None	1
2.7	2015_May_20_1653	s	s	12	3	SIC	115	RC	0	2	02VD 02VO 02VC 02MD 02MO 02MC 09RD 02RO	1	0	1.07434391975	39.0	394.0	44	389	1
2.7	2015_May_20_1653	s	s	12	3	SIC	116	RC	1	1	02VD 02VO 02VC 02MD 09MO 02MC 02RD 02RO	1	0	1.31778907776	-449.0	85.0	-452	83	1
2.7	2015_May_20_1653	s	s	12	3	SIC	117	ABS	1	1	02VD 02VO 02VC 02MD 10MO 02MC 02RD 02RO	0	1	2.60065793991	None	None	None	None	1
2.7	2015_May_20_1653	s	s	12	3	SIC	118	ABS	1	2	02VD 02VO 02VC 10MD 02MO 02MC 02RD 02RO	0	1	1.41870093346	None	None	None	None	1
2.7	2015_May_20_1653	s	s	12	3	SIC	119	RC	1	2	02VD 02VO 02VC 09MD 02MO 02MC 02RD 02RO	1	0	0.712826013565	-274.0	170.0	-273	170	1
2.7	2015_May_20_1653	s	s	12	3	SIC	120	ABS	2	2	10VD 02VO 02VC 02MD 02MO 02MC 02RD 02RO	0	1	1.47061896324	None	None	None	None	1
2.7	2015_May_20_1653	s	s	12	3	SIC	121	ABS	1	0	02VD 02VO 02VC 02MD 02MO 10MC 02RD 02RO	0	1	1.76002693176	None	None	None	None	1
2.7	2015_May_20_1653	s	s	12	3	SIC	122	RC	1	0	02VD 02VO 02VC 02MD 02MO 09MC 02RD 02RO	1	0	0.905690908432	237.0	-213.0	233	-220	1
2.7	2015_May_20_1653	s	s	12	3	SIC	123	ABS	2	1	02VD 10VO 02VC 02MD 02MO 02MC 02RD 02RO	0	1	1.67077493668	None	None	None	None	1
2.7	2015_May_20_1653	s	s	12	3	SIC	124	ABS	2	0	02VD 02VO 10VC 02MD 02MO 02MC 02RD 02RO	0	1	1.98386216164	None	None	None	None	1
2.7	2015_May_20_1653	s	s	12	3	SIC	125	RC	2	0	02VD 02VO 09VC 02MD 02MO 02MC 02RD 02RO	1	0	0.794294834137	-424.0	-231.0	-428	-235	1
2.7	2015_May_20_1653	s	s	12	3	SIC	126	ABS	0	2	02VD 02VO 02VC 02MD 02MO 02MC 10RD 02RO	0	1	1.43043088913	None	None	None	None	1
2.7	2015_May_20_1653	s	s	12	3	SIC	127	RC	0	1	02VD 02VO 02VC 02MD 02MO 02MC 02RD 09RO	1	0	1.39497494698	269.0	-159.0	271	-163	1
2.7	2015_May_20_1653	s	s	12	3	SIC	128	RC	2	1	02VD 09VO 02VC 02MD 02MO 02MC 02RD 02RO	1	0	0.870351076126	-99.0	-344.0	-105	-346	1
2.7	2015_May_20_1653	s	s	12	3	SIC	129	RC	2	0	02VD 02VO 09VC 02MD 02MO 02MC 02RD 02RO	1	0	1.64297509193	386.0	411.0	383	409	1
2.7	2015_May_20_1653	s	s	12	3	SIC	130	ABS	0	1	02VD 02VO 02VC 02MD 02MO 02MC 02RD 10RO	0	1	3.03652787209	None	None	None	None	1
2.7	2015_May_20_1653	s	s	12	3	SIC	131	ABS	1	0	02VD 02VO 02VC 02MD 02MO 10MC 02RD 02RO	0	1	2.87139201164	None	None	None	None	1
2.7	2015_May_20_1653	s	s	12	3	SIC	132	RC	0	2	02VD 02VO 02VC 02MD 02MO 02MC 09RD 02RO	1	0	0.800313949585	-390.0	-383.0	-389	-387	1
2.7	2015_May_20_1653	s	s	12	3	SIC	133	RC	2	1	02VD 09VO 02VC 02MD 02MO 02MC 02RD 02RO	1	0	0.831890106201	474.0	-80.0	472	-82	1
2.7	2015_May_20_1653	s	s	12	3	SIC	134	ABS	1	2	02VD 02VO 02VC 10MD 02MO 02MC 02RD 02RO	0	1	2.18402695656	None	None	None	None	1
2.7	2015_May_20_1653	s	s	12	3	SIC	135	RC	1	2	02VD 02VO 02VC 09MD 02MO 02MC 02RD 02RO	1	0	1.5128569603	177.0	-393.0	183	-397	1
2.7	2015_May_20_1653	s	s	12	3	SIC	136	RC	2	2	09VD 02VO 02VC 02MD 02MO 02MC 02RD 02RO	1	0	0.505491018295	-8.0	-204.0	-1	-201	1
2.7	2015_May_20_1653	s	s	12	3	SIC	137	ABS	2	2	10VD 02VO 02VC 02MD 02MO 02MC 02RD 02RO	0	1	1.90623688698	None	None	None	None	1
2.7	2015_May_20_1653	s	s	12	3	SIC	138	RC	1	0	02VD 02VO 02VC 02MD 02MO 09MC 02RD 02RO	1	0	1.39794588089	251.0	287.0	258	284	1
2.7	2015_May_20_1653	s	s	12	3	SIC	139	ABS	0	2	02VD 02VO 02VC 02MD 02MO 02MC 10RD 02RO	0	1	2.51338410378	None	None	None	None	1
2.7	2015_May_20_1653	s	s	12	3	SIC	140	RC	1	1	02VD 02VO 02VC 02MD 09MO 02MC 02RD 02RO	1	0	1.04696297646	-108.0	-389.0	-102	-392	1
2.7	2015_May_20_1653	s	s	12	3	SIC	141	RC	0	1	02VD 02VO 02VC 02MD 02MO 02MC 02RD 09RO	1	0	1.75308203697	-320.0	151.0	-309	153	1
2.7	2015_May_20_1653	s	s	12	3	SIC	142	ABS	1	1	02VD 02VO 02VC 02MD 10MO 02MC 02RD 02RO	0	1	2.09452295303	None	None	None	None	1
2.7	2015_May_20_1653	s	s	12	3	SIC	143	ABS	2	1	02VD 10VO 02VC 02MD 02MO 02MC 02RD 02RO	0	1	1.71303296089	None	None	None	None	1
2.7	2015_May_20_1653	s	s	12	3	SIC	144	ABS	2	0	02VD 02VO 10VC 02MD 02MO 02MC 02RD 02RO	0	1	1.37641811371	None	None	None	None	1
2.7	2015_May_20_1653	s	s	12	3	SIC	145	ABS	2	2	10VD 02VO 02VC 02MD 02MO 02MC 02RD 02RO	0	1	1.88040494919	None	None	None	None	1
2.7	2015_May_20_1653	s	s	12	3	SIC	146	ABS	0	1	02VD 02VO 02VC 02MD 02MO 02MC 02RD 10RO	0	1	3.05179095268	None	None	None	None	1
2.7	2015_May_20_1653	s	s	12	3	SIC	147	ABS	2	0	02VD 02VO 10VC 02MD 02MO 02MC 02RD 02RO	0	1	1.77169704437	None	None	None	None	1
2.7	2015_May_20_1653	s	s	12	3	SIC	148	RC	0	2	02VD 02VO 02VC 02MD 02MO 02MC 09RD 02RO	1	0	0.629884958267	-121.0	186.0	-120	191	1
2.7	2015_May_20_1653	s	s	12	3	SIC	149	RC	1	2	02VD 02VO 02VC 09MD 02MO 02MC 02RD 02RO	1	0	0.830038070679	134.0	102.0	144	100	1
2.7	2015_May_20_1653	s	s	12	3	SIC	150	RC	2	0	02VD 02VO 09VC 02MD 02MO 02MC 02RD 02RO	1	0	1.39515304565	-4.0	385.0	-2	380	1
2.7	2015_May_20_1653	s	s	12	3	SIC	151	ABS	0	2	02VD 02VO 02VC 02MD 02MO 02MC 10RD 02RO	0	1	1.2774951458	None	None	None	None	1
2.7	2015_May_20_1653	s	s	12	3	SIC	152	RC	0	1	02VD 02VO 02VC 02MD 02MO 02MC 02RD 09RO	1	0	1.20775985718	-536.0	-346.0	-531	-347	1
2.7	2015_May_20_1653	s	s	12	3	SIC	153	ABS	1	2	02VD 02VO 02VC 10MD 02MO 02MC 02RD 02RO	0	1	1.92657995224	None	None	None	None	1
2.7	2015_May_20_1653	s	s	12	3	SIC	154	RC	1	0	02VD 02VO 02VC 02MD 02MO 09MC 02RD 02RO	1	0	1.08225703239	261.0	221.0	257	216	1
2.7	2015_May_20_1653	s	s	12	3	SIC	155	RC	1	1	02VD 02VO 02VC 02MD 09MO 02MC 02RD 02RO	1	0	1.35299491882	-133.0	277.0	-135	273	1
2.7	2015_May_20_1653	s	s	12	3	SIC	156	RC	2	2	09VD 02VO 02VC 02MD 02MO 02MC 02RD 02RO	1	0	0.902458906174	498.0	-91.0	503	-97	1
2.7	2015_May_20_1653	s	s	12	3	SIC	157	ABS	2	1	02VD 10VO 02VC 02MD 02MO 02MC 02RD 02RO	0	1	2.00953316689	None	None	None	None	1
2.7	2015_May_20_1653	s	s	12	3	SIC	158	RC	2	1	02VD 09VO 02VC 02MD 02MO 02MC 02RD 02RO	1	0	0.583010911942	-83.0	-8.0	-81	-8	1
2.7	2015_May_20_1653	s	s	12	3	SIC	159	ABS	1	0	02VD 02VO 02VC 02MD 02MO 10MC 02RD 02RO	0	1	1.94136619568	None	None	None	None	1
2.7	2015_May_20_1653	s	s	12	3	SIC	160	ABS	1	1	02VD 02VO 02VC 02MD 10MO 02MC 02RD 02RO	0	1	1.60425496101	None	None	None	None	1
2.7	2015_May_20_1653	s	s	12	3	SIC	161	ABS	0	1	02VD 02VO 02VC 02MD 02MO 02MC 02RD 10RO	0	1	2.60930299759	None	None	None	None	1
2.7	2015_May_20_1653	s	s	12	3	SIC	162	ABS	2	2	10VD 02VO 02VC 02MD 02MO 02MC 02RD 02RO	0	1	1.89827609062	None	None	None	None	1
2.7	2015_May_20_1653	s	s	12	3	SIC	163	ABS	2	1	02VD 10VO 02VC 02MD 02MO 02MC 02RD 02RO	0	1	1.65888500214	None	None	None	None	1
2.7	2015_May_20_1653	s	s	12	3	SIC	164	RC	0	2	02VD 02VO 02VC 02MD 02MO 02MC 09RD 02RO	1	0	0.999885082245	-324.0	-23.0	-320	-21	1
2.7	2015_May_20_1653	s	s	12	3	SIC	165	ABS	1	0	02VD 02VO 02VC 02MD 02MO 10MC 02RD 02RO	0	1	2.0945250988	None	None	None	None	1
2.7	2015_May_20_1653	s	s	12	3	SIC	166	RC	1	0	02VD 02VO 02VC 02MD 02MO 09MC 02RD 02RO	1	0	1.71223592758	-210.0	223.0	-214	222	1
2.7	2015_May_20_1653	s	s	12	3	SIC	167	RC	1	1	02VD 02VO 02VC 02MD 09MO 02MC 02RD 02RO	1	0	1.65374588966	57.0	-400.0	60	-401	1
2.7	2015_May_20_1653	s	s	12	3	SIC	168	RC	1	2	02VD 02VO 02VC 09MD 02MO 02MC 02RD 02RO	1	0	1.01853299141	-467.0	-352.0	-462	-354	1
2.7	2015_May_20_1653	s	s	12	3	SIC	169	ABS	1	2	02VD 02VO 02VC 10MD 02MO 02MC 02RD 02RO	0	1	1.91493010521	None	None	None	None	1
2.7	2015_May_20_1653	s	s	12	3	SIC	170	RC	2	2	09VD 02VO 02VC 02MD 02MO 02MC 02RD 02RO	0	1	1.7177939415	342.0	380.0	None	None	0
2.7	2015_May_20_1653	s	s	12	3	SIC	171	RC	2	0	02VD 02VO 09VC 02MD 02MO 02MC 02RD 02RO	1	0	0.997072935104	528.0	-45.0	529	-39	1
2.7	2015_May_20_1653	s	s	12	3	SIC	172	ABS	0	2	02VD 02VO 02VC 02MD 02MO 02MC 10RD 02RO	0	1	2.47807002068	None	None	None	None	1
2.7	2015_May_20_1653	s	s	12	3	SIC	173	RC	0	1	02VD 02VO 02VC 02MD 02MO 02MC 02RD 09RO	1	0	0.57609295845	25.0	-157.0	29	-159	1
2.7	2015_May_20_1653	s	s	12	3	SIC	174	RC	2	1	02VD 09VO 02VC 02MD 02MO 02MC 02RD 02RO	1	0	1.36477613449	-429.0	302.0	-433	297	1
2.7	2015_May_20_1653	s	s	12	3	SIC	175	ABS	2	0	02VD 02VO 10VC 02MD 02MO 02MC 02RD 02RO	0	1	1.98636293411	None	None	None	None	1
2.7	2015_May_20_1653	s	s	12	3	SIC	176	ABS	1	1	02VD 02VO 02VC 02MD 10MO 02MC 02RD 02RO	0	1	2.65465593338	None	None	None	None	1
2.7	2015_May_20_1653	s	s	12	3	SIC	177	RC	0	1	02VD 02VO 02VC 02MD 02MO 02MC 02RD 09RO	1	0	2.63092780113	-190.0	-81.0	-191	-86	1
2.7	2015_May_20_1653	s	s	12	3	SIC	178	ABS	1	2	02VD 02VO 02VC 10MD 02MO 02MC 02RD 02RO	0	1	1.32616305351	None	None	None	None	1
2.7	2015_May_20_1653	s	s	12	3	SIC	179	RC	1	1	02VD 02VO 02VC 02MD 09MO 02MC 02RD 02RO	1	0	0.58793091774	23.0	-48.0	22	-38	1
2.7	2015_May_20_1653	s	s	12	3	SIC	180	RC	1	0	02VD 02VO 02VC 02MD 02MO 09MC 02RD 02RO	1	0	0.476474046707	61.0	-37.0	57	-38	1
2.7	2015_May_20_1653	s	s	12	3	SIC	181	ABS	1	1	02VD 02VO 02VC 02MD 10MO 02MC 02RD 02RO	0	1	1.90617489815	None	None	None	None	1
2.7	2015_May_20_1653	s	s	12	3	SIC	182	RC	2	0	02VD 02VO 09VC 02MD 02MO 02MC 02RD 02RO	1	0	0.674155950546	-75.0	149.0	-67	153	1
2.7	2015_May_20_1653	s	s	12	3	SIC	183	ABS	0	1	02VD 02VO 02VC 02MD 02MO 02MC 02RD 10RO	0	1	2.48985600471	None	None	None	None	1
2.7	2015_May_20_1653	s	s	12	3	SIC	184	RC	1	2	02VD 02VO 02VC 09MD 02MO 02MC 02RD 02RO	1	0	1.39998221397	311.0	151.0	310	148	1
2.7	2015_May_20_1653	s	s	12	3	SIC	185	RC	2	1	02VD 09VO 02VC 02MD 02MO 02MC 02RD 02RO	1	0	1.46499896049	-485.0	388.0	-481	389	1
2.7	2015_May_20_1653	s	s	12	3	SIC	186	ABS	1	0	02VD 02VO 02VC 02MD 02MO 10MC 02RD 02RO	0	1	3.06636285782	None	None	None	None	1
2.7	2015_May_20_1653	s	s	12	3	SIC	187	ABS	0	2	02VD 02VO 02VC 02MD 02MO 02MC 10RD 02RO	0	1	1.75310516357	None	None	None	None	1
2.7	2015_May_20_1653	s	s	12	3	SIC	188	RC	2	2	09VD 02VO 02VC 02MD 02MO 02MC 02RD 02RO	1	0	1.41224884987	10.0	-284.0	8	-291	1
2.7	2015_May_20_1653	s	s	12	3	SIC	189	RC	0	2	02VD 02VO 02VC 02MD 02MO 02MC 09RD 02RO	0	1	0.175866127014	-221.0	-162.0	None	None	0
2.7	2015_May_20_1653	s	s	12	3	SIC	190	ABS	2	1	02VD 10VO 02VC 02MD 02MO 02MC 02RD 02RO	0	1	1.95103502274	None	None	None	None	1
2.7	2015_May_20_1653	s	s	12	3	SIC	191	ABS	2	2	10VD 02VO 02VC 02MD 02MO 02MC 02RD 02RO	0	1	1.8831038475	None	None	None	None	1
2.7	2015_May_20_1653	s	s	12	3	SIC	192	ABS	2	0	02VD 02VO 10VC 02MD 02MO 02MC 02RD 02RO	0	1	1.56482791901	None	None	None	None	1
2.7	2015_May_20_1653	s	s	12	3	SIC	193	ABS	1	0	02VD 02VO 02VC 02MD 02MO 10MC 02RD 02RO	0	1	2.09447789192	None	None	None	None	1
2.7	2015_May_20_1653	s	s	12	3	SIC	194	ABS	1	1	02VD 02VO 02VC 02MD 10MO 02MC 02RD 02RO	0	1	2.08278107643	None	None	None	None	1
2.7	2015_May_20_1653	s	s	12	3	SIC	195	ABS	0	1	02VD 02VO 02VC 02MD 02MO 02MC 02RD 10RO	0	1	3.75154995918	None	None	None	None	1
2.7	2015_May_20_1653	s	s	12	3	SIC	196	ABS	0	2	02VD 02VO 02VC 02MD 02MO 02MC 10RD 02RO	0	1	1.40724992752	None	None	None	None	1
2.7	2015_May_20_1653	s	s	12	3	SIC	197	ABS	2	0	02VD 02VO 10VC 02MD 02MO 02MC 02RD 02RO	0	1	1.60846590996	None	None	None	None	1
2.7	2015_May_20_1653	s	s	12	3	SIC	198	RC	0	1	02VD 02VO 02VC 02MD 02MO 02MC 02RD 09RO	1	0	1.62363290787	-433.0	328.0	-428	322	1
2.7	2015_May_20_1653	s	s	12	3	SIC	199	RC	1	0	02VD 02VO 02VC 02MD 02MO 09MC 02RD 02RO	1	0	0.547734022141	6.0	-130.0	1	-138	1
2.7	2015_May_20_1653	s	s	12	3	SIC	200	ABS	2	1	02VD 10VO 02VC 02MD 02MO 02MC 02RD 02RO	0	1	1.91796708107	None	None	None	None	1
2.7	2015_May_20_1653	s	s	12	3	SIC	201	RC	2	1	02VD 09VO 02VC 02MD 02MO 02MC 02RD 02RO	1	0	1.39436006546	-308.0	13.0	-314	14	1
2.7	2015_May_20_1653	s	s	12	3	SIC	202	RC	2	2	09VD 02VO 02VC 02MD 02MO 02MC 02RD 02RO	1	0	0.564299106598	-191.0	-35.0	-193	-33	1
2.7	2015_May_20_1653	s	s	12	3	SIC	203	RC	1	1	02VD 02VO 02VC 02MD 09MO 02MC 02RD 02RO	1	0	1.4894220829	472.0	-194.0	467	-191	1
2.7	2015_May_20_1653	s	s	12	3	SIC	204	RC	0	2	02VD 02VO 02VC 02MD 02MO 02MC 09RD 02RO	1	0	0.870379924774	-343.0	-152.0	-348	-150	1
2.7	2015_May_20_1653	s	s	12	3	SIC	205	ABS	2	2	10VD 02VO 02VC 02MD 02MO 02MC 02RD 02RO	0	1	1.55315899849	None	None	None	None	1
2.7	2015_May_20_1653	s	s	12	3	SIC	206	RC	2	0	02VD 02VO 09VC 02MD 02MO 02MC 02RD 02RO	1	0	1.04218697548	-469.0	134.0	-467	130	1
2.7	2015_May_20_1653	s	s	12	3	SIC	207	ABS	1	2	02VD 02VO 02VC 10MD 02MO 02MC 02RD 02RO	0	1	1.6589858532	None	None	None	None	1
2.7	2015_May_20_1653	s	s	12	3	SIC	208	RC	1	2	02VD 02VO 02VC 09MD 02MO 02MC 02RD 02RO	1	0	1.10582304001	-143.0	234.0	-137	233	1
2.7	2015_May_20_1653	s	s	12	3	SIC	209	RC	0	2	02VD 02VO 02VC 02MD 02MO 02MC 09RD 02RO	1	0	0.912580013275	-369.0	-246.0	-360	-248	1
2.7	2015_May_20_1653	s	s	12	3	SIC	210	RC	2	1	02VD 09VO 02VC 02MD 02MO 02MC 02RD 02RO	1	0	1.12146878242	-172.0	228.0	-175	232	1
2.7	2015_May_20_1653	s	s	12	3	SIC	211	ABS	1	0	02VD 02VO 02VC 02MD 02MO 10MC 02RD 02RO	0	1	1.79806995392	None	None	None	None	1
2.7	2015_May_20_1653	s	s	12	3	SIC	212	RC	1	0	02VD 02VO 02VC 02MD 02MO 09MC 02RD 02RO	1	0	0.915107011795	116.0	-41.0	120	-40	1
2.7	2015_May_20_1653	s	s	12	3	SIC	213	RC	0	1	02VD 02VO 02VC 02MD 02MO 02MC 02RD 09RO	1	0	2.17691397667	64.0	274.0	63	269	1
2.7	2015_May_20_1653	s	s	12	3	SIC	214	ABS	2	1	02VD 10VO 02VC 02MD 02MO 02MC 02RD 02RO	0	1	1.43019795418	None	None	None	None	1
2.7	2015_May_20_1653	s	s	12	3	SIC	215	ABS	2	0	02VD 02VO 10VC 02MD 02MO 02MC 02RD 02RO	0	1	1.60403990746	None	None	None	None	1
2.7	2015_May_20_1653	s	s	12	3	SIC	216	RC	1	1	02VD 02VO 02VC 02MD 09MO 02MC 02RD 02RO	1	0	1.64722800255	183.0	386.0	182	383	1
2.7	2015_May_20_1653	s	s	12	3	SIC	217	ABS	0	1	02VD 02VO 02VC 02MD 02MO 02MC 02RD 10RO	0	1	2.46607708931	None	None	None	None	1
2.7	2015_May_20_1653	s	s	12	3	SIC	218	RC	1	2	02VD 02VO 02VC 09MD 02MO 02MC 02RD 02RO	1	0	0.902051925659	10.0	-254.0	11	-261	1
2.7	2015_May_20_1653	s	s	12	3	SIC	219	RC	2	0	02VD 02VO 09VC 02MD 02MO 02MC 02RD 02RO	1	0	1.04221487045	-207.0	-201.0	-201	-196	1
2.7	2015_May_20_1653	s	s	12	3	SIC	220	ABS	1	2	02VD 02VO 02VC 10MD 02MO 02MC 02RD 02RO	0	1	1.76227688789	None	None	None	None	1
2.7	2015_May_20_1653	s	s	12	3	SIC	221	ABS	2	2	10VD 02VO 02VC 02MD 02MO 02MC 02RD 02RO	0	1	1.11270093918	None	None	None	None	1
2.7	2015_May_20_1653	s	s	12	3	SIC	222	RC	2	2	09VD 02VO 02VC 02MD 02MO 02MC 02RD 02RO	1	0	1.14736819267	-506.0	-102.0	-494	-98	1
2.7	2015_May_20_1653	s	s	12	3	SIC	223	ABS	1	1	02VD 02VO 02VC 02MD 10MO 02MC 02RD 02RO	0	1	2.08274102211	None	None	None	None	1
2.7	2015_May_20_1653	s	s	12	3	SIC	224	ABS	0	2	02VD 02VO 02VC 02MD 02MO 02MC 10RD 02RO	0	1	2.03571987152	None	None	None	None	1
2.7	2015_May_20_1653	s	s	12	3	SIC	225	ABS	1	0	02VD 02VO 02VC 02MD 02MO 10MC 02RD 02RO	0	1	2.33986401558	None	None	None	None	1
2.7	2015_May_20_1653	s	s	12	3	SIC	226	ABS	0	1	02VD 02VO 02VC 02MD 02MO 02MC 02RD 10RO	0	1	2.27798914909	None	None	None	None	1
2.7	2015_May_20_1653	s	s	12	3	SIC	227	ABS	2	1	02VD 10VO 02VC 02MD 02MO 02MC 02RD 02RO	0	1	2.41939997673	None	None	None	None	1
2.7	2015_May_20_1653	s	s	12	3	SIC	228	RC	1	1	02VD 02VO 02VC 02MD 09MO 02MC 02RD 02RO	1	0	0.985845088959	141.0	-115.0	141	-117	1
2.7	2015_May_20_1653	s	s	12	3	SIC	229	RC	1	0	02VD 02VO 02VC 02MD 02MO 09MC 02RD 02RO	1	0	3.51865506172	431.0	392.0	435	393	1
2.7	2015_May_20_1653	s	s	12	3	SIC	230	ABS	1	1	02VD 02VO 02VC 02MD 10MO 02MC 02RD 02RO	0	1	1.84248209	None	None	None	None	1
2.7	2015_May_20_1653	s	s	12	3	SIC	231	RC	0	2	02VD 02VO 02VC 02MD 02MO 02MC 09RD 02RO	1	0	1.59513998032	517.0	288.0	519	285	1
2.7	2015_May_20_1653	s	s	12	3	SIC	232	RC	2	2	09VD 02VO 02VC 02MD 02MO 02MC 02RD 02RO	1	0	1.05878305435	-91.0	-285.0	-83	-289	1
2.7	2015_May_20_1653	s	s	12	3	SIC	233	RC	2	0	02VD 02VO 09VC 02MD 02MO 02MC 02RD 02RO	1	0	1.15987300873	-524.0	-198.0	-522	-203	1
2.7	2015_May_20_1653	s	s	12	3	SIC	234	RC	2	1	02VD 09VO 02VC 02MD 02MO 02MC 02RD 02RO	1	0	1.41798090935	502.0	371.0	494	369	1
2.7	2015_May_20_1653	s	s	12	3	SIC	235	ABS	2	2	10VD 02VO 02VC 02MD 02MO 02MC 02RD 02RO	0	1	1.55307292938	None	None	None	None	1
2.7	2015_May_20_1653	s	s	12	3	SIC	236	RC	1	2	02VD 02VO 02VC 09MD 02MO 02MC 02RD 02RO	1	0	2.17694211006	130.0	383.0	132	379	1
2.7	2015_May_20_1653	s	s	12	3	SIC	237	ABS	0	2	02VD 02VO 02VC 02MD 02MO 02MC 10RD 02RO	0	1	2.2239780426	None	None	None	None	1
2.7	2015_May_20_1653	s	s	12	3	SIC	238	ABS	2	0	02VD 02VO 10VC 02MD 02MO 02MC 02RD 02RO	0	1	1.43222117424	None	None	None	None	1
2.7	2015_May_20_1653	s	s	12	3	SIC	239	RC	0	1	02VD 02VO 02VC 02MD 02MO 02MC 02RD 09RO	1	0	0.909507989883	50.0	-100.0	56	-101	1
2.7	2015_May_20_1653	s	s	12	3	SIC	240	ABS	1	2	02VD 02VO 02VC 10MD 02MO 02MC 02RD 02RO	0	1	2.07100296021	None	None	None	None	1
2.7	2015_May_20_1653	s	s	12	3	SIC	241	RC	1	1	02VD 02VO 02VC 02MD 09MO 02MC 02RD 02RO	1	0	2.43098807335	-341.0	-390.0	-339	-386	1
2.7	2015_May_20_1653	s	s	12	3	SIC	242	RC	0	2	02VD 02VO 02VC 02MD 02MO 02MC 09RD 02RO	1	0	3.73064780235	392.0	291.0	397	288	1
2.7	2015_May_20_1653	s	s	12	3	SIC	243	ABS	1	2	02VD 02VO 02VC 10MD 02MO 02MC 02RD 02RO	0	1	2.14160394669	None	None	None	None	1
2.7	2015_May_20_1653	s	s	12	3	SIC	244	RC	2	2	09VD 02VO 02VC 02MD 02MO 02MC 02RD 02RO	1	0	1.68945717812	-262.0	402.0	-256	394	1
2.7	2015_May_20_1653	s	s	12	3	SIC	245	RC	2	0	02VD 02VO 09VC 02MD 02MO 02MC 02RD 02RO	1	0	0.678929805756	-354.0	156.0	-355	153	1
2.7	2015_May_20_1653	s	s	12	3	SIC	246	ABS	0	1	02VD 02VO 02VC 02MD 02MO 02MC 02RD 10RO	0	1	3.21968007088	None	None	None	None	1
2.7	2015_May_20_1653	s	s	12	3	SIC	247	ABS	2	2	10VD 02VO 02VC 02MD 02MO 02MC 02RD 02RO	0	1	1.93839788437	None	None	None	None	1
2.7	2015_May_20_1653	s	s	12	3	SIC	248	RC	1	2	02VD 02VO 02VC 09MD 02MO 02MC 02RD 02RO	1	0	1.02719306946	-231.0	31.0	-226	20	1
2.7	2015_May_20_1653	s	s	12	3	SIC	249	ABS	1	1	02VD 02VO 02VC 02MD 10MO 02MC 02RD 02RO	0	1	1.57712697983	None	None	None	None	1
2.7	2015_May_20_1653	s	s	12	3	SIC	250	RC	1	0	02VD 02VO 02VC 02MD 02MO 09MC 02RD 02RO	1	0	2.1367430687	-427.0	-322.0	-427	-320	1
2.7	2015_May_20_1653	s	s	12	3	SIC	251	RC	2	1	02VD 09VO 02VC 02MD 02MO 02MC 02RD 02RO	1	0	0.505452156067	-1.0	-6.0	1	-12	1
2.7	2015_May_20_1653	s	s	12	3	SIC	252	ABS	2	1	02VD 10VO 02VC 02MD 02MO 02MC 02RD 02RO	0	1	1.50984311104	None	None	None	None	1
2.7	2015_May_20_1653	s	s	12	3	SIC	253	ABS	0	2	02VD 02VO 02VC 02MD 02MO 02MC 10RD 02RO	0	1	1.85328292847	None	None	None	None	1
2.7	2015_May_20_1653	s	s	12	3	SIC	254	RC	0	1	02VD 02VO 02VC 02MD 02MO 02MC 02RD 09RO	1	0	0.915263175964	-274.0	-8.0	-271	-5	1
2.7	2015_May_20_1653	s	s	12	3	SIC	255	ABS	1	0	02VD 02VO 02VC 02MD 02MO 10MC 02RD 02RO	0	1	2.76115202904	None	None	None	None	1
2.7	2015_May_20_1653	s	s	12	3	SIC	256	ABS	2	0	02VD 02VO 10VC 02MD 02MO 02MC 02RD 02RO	0	1	2.22936606407	None	None	None	None	1
2.7	2015_May_20_1653	s	s	12	3	SIC	257	RC	0	1	02VD 02VO 02VC 02MD 02MO 02MC 02RD 09RO	1	0	1.67079901695	-417.0	-18.0	-413	-18	1
2.7	2015_May_20_1653	s	s	12	3	SIC	258	ABS	1	2	02VD 02VO 02VC 10MD 02MO 02MC 02RD 02RO	0	1	2.01900696754	None	None	None	None	1
2.7	2015_May_20_1653	s	s	12	3	SIC	259	RC	2	0	02VD 02VO 09VC 02MD 02MO 02MC 02RD 02RO	1	0	0.664733886719	-92.0	93.0	-85	91	1
2.7	2015_May_20_1653	s	s	12	3	SIC	260	ABS	2	2	10VD 02VO 02VC 02MD 02MO 02MC 02RD 02RO	0	1	1.35299396515	None	None	None	None	1
2.7	2015_May_20_1653	s	s	12	3	SIC	261	ABS	2	0	02VD 02VO 10VC 02MD 02MO 02MC 02RD 02RO	0	1	1.27058005333	None	None	None	None	1
2.7	2015_May_20_1653	s	s	12	3	SIC	262	ABS	2	1	02VD 10VO 02VC 02MD 02MO 02MC 02RD 02RO	0	1	2.28282213211	None	None	None	None	1
2.7	2015_May_20_1653	s	s	12	3	SIC	263	ABS	0	2	02VD 02VO 02VC 02MD 02MO 02MC 10RD 02RO	0	1	1.58835411072	None	None	None	None	1
2.7	2015_May_20_1653	s	s	12	3	SIC	264	RC	2	2	09VD 02VO 02VC 02MD 02MO 02MC 02RD 02RO	1	0	0.858699083328	-234.0	-142.0	-238	-137	1
2.7	2015_May_20_1653	s	s	12	3	SIC	265	RC	0	2	02VD 02VO 02VC 02MD 02MO 02MC 09RD 02RO	1	0	1.90131807327	398.0	376.0	397	370	1
2.7	2015_May_20_1653	s	s	12	3	SIC	266	RC	1	0	02VD 02VO 02VC 02MD 02MO 09MC 02RD 02RO	1	0	0.974107027054	-38.0	-249.0	-38	-242	1
2.7	2015_May_20_1653	s	s	12	3	SIC	267	RC	1	2	02VD 02VO 02VC 09MD 02MO 02MC 02RD 02RO	1	0	1.44224715233	-105.0	407.0	-103	409	1
2.7	2015_May_20_1653	s	s	12	3	SIC	268	ABS	1	1	02VD 02VO 02VC 02MD 10MO 02MC 02RD 02RO	0	1	2.05492091179	None	None	None	None	1
2.7	2015_May_20_1653	s	s	12	3	SIC	269	ABS	1	0	02VD 02VO 02VC 02MD 02MO 10MC 02RD 02RO	0	1	1.95317196846	None	None	None	None	1
2.7	2015_May_20_1653	s	s	12	3	SIC	270	ABS	0	1	02VD 02VO 02VC 02MD 02MO 02MC 02RD 10RO	0	1	2.47813892365	None	None	None	None	1
2.7	2015_May_20_1653	s	s	12	3	SIC	271	RC	2	1	02VD 09VO 02VC 02MD 02MO 02MC 02RD 02RO	1	0	0.655270814896	-4.0	144.0	-2	137	1
2.7	2015_May_20_1653	s	s	12	3	SIC	272	RC	1	1	02VD 02VO 02VC 02MD 09MO 02MC 02RD 02RO	1	0	1.52743983269	358.0	-319.0	352	-322	1
2.7	2015_May_20_1653	s	s	12	3	SIC	273	RC	2	2	09VD 02VO 02VC 02MD 02MO 02MC 02RD 02RO	1	0	0.835075139999	-202.0	-28.0	-198	-29	1
2.7	2015_May_20_1653	s	s	12	3	SIC	274	ABS	2	1	02VD 10VO 02VC 02MD 02MO 02MC 02RD 02RO	0	1	1.48248791695	None	None	None	None	1
2.7	2015_May_20_1653	s	s	12	3	SIC	275	ABS	0	2	02VD 02VO 02VC 02MD 02MO 02MC 10RD 02RO	0	1	1.58840608597	None	None	None	None	1
2.7	2015_May_20_1653	s	s	12	3	SIC	276	ABS	2	2	10VD 02VO 02VC 02MD 02MO 02MC 02RD 02RO	0	1	1.8236811161	None	None	None	None	1
2.7	2015_May_20_1653	s	s	12	3	SIC	277	ABS	2	0	02VD 02VO 10VC 02MD 02MO 02MC 02RD 02RO	0	1	1.9833381176	None	None	None	None	1
2.7	2015_May_20_1653	s	s	12	3	SIC	278	RC	0	1	02VD 02VO 02VC 02MD 02MO 02MC 02RD 09RO	1	0	2.41922712326	101.0	238.0	101	233	1
2.7	2015_May_20_1653	s	s	12	3	SIC	279	RC	1	2	02VD 02VO 02VC 09MD 02MO 02MC 02RD 02RO	1	0	0.882146835327	-248.0	354.0	-248	361	1
2.7	2015_May_20_1653	s	s	12	3	SIC	280	RC	1	1	02VD 02VO 02VC 02MD 09MO 02MC 02RD 02RO	1	0	1.54137992859	-132.0	-360.0	-133	-370	1
2.7	2015_May_20_1653	s	s	12	3	SIC	281	ABS	1	2	02VD 02VO 02VC 10MD 02MO 02MC 02RD 02RO	0	1	1.84247207642	None	None	None	None	1
2.7	2015_May_20_1653	s	s	12	3	SIC	282	RC	2	1	02VD 09VO 02VC 02MD 02MO 02MC 02RD 02RO	1	0	1.24707484245	-324.0	362.0	-322	358	1
2.7	2015_May_20_1653	s	s	12	3	SIC	283	ABS	0	1	02VD 02VO 02VC 02MD 02MO 02MC 02RD 10RO	0	1	2.73860692978	None	None	None	None	1
2.7	2015_May_20_1653	s	s	12	3	SIC	284	ABS	1	1	02VD 02VO 02VC 02MD 10MO 02MC 02RD 02RO	0	1	2.22403979301	None	None	None	None	1
2.7	2015_May_20_1653	s	s	12	3	SIC	285	RC	1	0	02VD 02VO 02VC 02MD 02MO 09MC 02RD 02RO	1	0	0.736057043076	154.0	41.0	156	42	1
2.7	2015_May_20_1653	s	s	12	3	SIC	286	RC	0	2	02VD 02VO 02VC 02MD 02MO 02MC 09RD 02RO	1	0	1.63322997093	252.0	329.0	250	327	1
2.7	2015_May_20_1653	s	s	12	3	SIC	287	RC	2	0	02VD 02VO 09VC 02MD 02MO 02MC 02RD 02RO	1	0	1.07741093636	-463.0	252.0	-460	251	1
2.7	2015_May_20_1653	s	s	12	3	SIC	288	ABS	1	0	02VD 02VO 02VC 02MD 02MO 10MC 02RD 02RO	0	1	2.8360619545	None	None	None	None	1
2.7	2015_May_20_1653	s	s	12	3	SIC	289	RC	1	2	02VD 02VO 02VC 09MD 02MO 02MC 02RD 02RO	1	0	0.947740077972	260.0	-222.0	268	-225	1
2.7	2015_May_20_1653	s	s	12	3	SIC	290	ABS	2	1	02VD 10VO 02VC 02MD 02MO 02MC 02RD 02RO	0	1	1.46756696701	None	None	None	None	1
2.7	2015_May_20_1653	s	s	12	3	SIC	291	ABS	0	1	02VD 02VO 02VC 02MD 02MO 02MC 02RD 10RO	0	1	3.41279101372	None	None	None	None	1
2.7	2015_May_20_1653	s	s	12	3	SIC	292	ABS	1	2	02VD 02VO 02VC 10MD 02MO 02MC 02RD 02RO	0	1	1.91566109657	None	None	None	None	1
2.7	2015_May_20_1653	s	s	12	3	SIC	293	RC	2	1	02VD 09VO 02VC 02MD 02MO 02MC 02RD 02RO	1	0	1.99757289886	371.0	304.0	377	301	1
2.7	2015_May_20_1653	s	s	12	3	SIC	294	RC	0	1	02VD 02VO 02VC 02MD 02MO 02MC 02RD 09RO	1	0	2.31334495544	290.0	89.0	291	87	1
2.7	2015_May_20_1653	s	s	12	3	SIC	295	RC	2	0	02VD 02VO 09VC 02MD 02MO 02MC 02RD 02RO	1	0	0.830239057541	-512.0	-144.0	-515	-146	1
2.7	2015_May_20_1653	s	s	12	3	SIC	296	ABS	2	2	10VD 02VO 02VC 02MD 02MO 02MC 02RD 02RO	0	1	2.11249399185	None	None	None	None	1
2.7	2015_May_20_1653	s	s	12	3	SIC	297	ABS	2	0	02VD 02VO 10VC 02MD 02MO 02MC 02RD 02RO	0	1	1.83097195625	None	None	None	None	1
2.7	2015_May_20_1653	s	s	12	3	SIC	298	RC	1	1	02VD 02VO 02VC 02MD 09MO 02MC 02RD 02RO	1	0	0.806674957275	-313.0	144.0	-303	147	1
2.7	2015_May_20_1653	s	s	12	3	SIC	299	RC	1	0	02VD 02VO 02VC 02MD 02MO 09MC 02RD 02RO	1	0	2.39571404457	-274.0	371.0	-267	375	1
2.7	2015_May_20_1653	s	s	12	3	SIC	300	RC	0	2	02VD 02VO 02VC 02MD 02MO 02MC 09RD 02RO	1	0	0.844070911407	-46.0	188.0	-46	184	1
2.7	2015_May_20_1653	s	s	12	3	SIC	301	RC	2	2	09VD 02VO 02VC 02MD 02MO 02MC 02RD 02RO	1	0	0.853087186813	390.0	-41.0	379	-41	1
2.7	2015_May_20_1653	s	s	12	3	SIC	302	ABS	0	2	02VD 02VO 02VC 02MD 02MO 02MC 10RD 02RO	0	1	1.4303188324	None	None	None	None	1
2.7	2015_May_20_1653	s	s	12	3	SIC	303	ABS	1	0	02VD 02VO 02VC 02MD 02MO 10MC 02RD 02RO	0	1	2.24171209335	None	None	None	None	1
2.7	2015_May_20_1653	s	s	12	3	SIC	304	ABS	1	1	02VD 02VO 02VC 02MD 10MO 02MC 02RD 02RO	0	1	3.38928389549	None	None	None	None	1
2.7	2015_May_20_1653	s	s	12	3	SIC	305	RC	1	0	02VD 02VO 02VC 02MD 02MO 09MC 02RD 02RO	1	0	1.52472305298	196.0	332.0	201	330	1
2.7	2015_May_20_1653	s	s	12	3	SIC	306	ABS	2	0	02VD 02VO 10VC 02MD 02MO 02MC 02RD 02RO	0	1	2.17206907272	None	None	None	None	1
2.7	2015_May_20_1653	s	s	12	3	SIC	307	ABS	0	2	02VD 02VO 02VC 02MD 02MO 02MC 10RD 02RO	0	1	1.4775698185	None	None	None	None	1
2.7	2015_May_20_1653	s	s	12	3	SIC	308	ABS	0	1	02VD 02VO 02VC 02MD 02MO 02MC 02RD 10RO	0	1	3.10715389252	None	None	None	None	1
2.7	2015_May_20_1653	s	s	12	3	SIC	309	ABS	1	2	02VD 02VO 02VC 10MD 02MO 02MC 02RD 02RO	0	1	1.8891479969	None	None	None	None	1
2.7	2015_May_20_1653	s	s	12	3	SIC	310	ABS	2	1	02VD 10VO 02VC 02MD 02MO 02MC 02RD 02RO	0	1	1.57703709602	None	None	None	None	1
2.7	2015_May_20_1653	s	s	12	3	SIC	311	RC	1	1	02VD 02VO 02VC 02MD 09MO 02MC 02RD 02RO	1	0	0.711874008179	99.0	94.0	94	91	1
2.7	2015_May_20_1653	s	s	12	3	SIC	312	RC	2	1	02VD 09VO 02VC 02MD 02MO 02MC 02RD 02RO	1	0	1.28928399086	137.0	379.0	134	369	1
2.7	2015_May_20_1653	s	s	12	3	SIC	313	RC	2	0	02VD 02VO 09VC 02MD 02MO 02MC 02RD 02RO	1	0	0.9646089077	-486.0	-239.0	-488	-234	1
2.7	2015_May_20_1653	s	s	12	3	SIC	314	RC	0	2	02VD 02VO 02VC 02MD 02MO 02MC 09RD 02RO	1	0	1.26570296288	-89.0	-210.0	-78	-205	1
2.7	2015_May_20_1653	s	s	12	3	SIC	315	ABS	1	0	02VD 02VO 02VC 02MD 02MO 10MC 02RD 02RO	0	1	2.36095404625	None	None	None	None	1
2.7	2015_May_20_1653	s	s	12	3	SIC	316	ABS	1	1	02VD 02VO 02VC 02MD 10MO 02MC 02RD 02RO	0	1	2.83597993851	None	None	None	None	1
2.7	2015_May_20_1653	s	s	12	3	SIC	317	ABS	2	2	10VD 02VO 02VC 02MD 02MO 02MC 02RD 02RO	0	1	2.12475895882	None	None	None	None	1
2.7	2015_May_20_1653	s	s	12	3	SIC	318	RC	0	1	02VD 02VO 02VC 02MD 02MO 02MC 02RD 09RO	1	0	1.18811607361	151.0	215.0	157	216	1
2.7	2015_May_20_1653	s	s	12	3	SIC	319	RC	1	2	02VD 02VO 02VC 09MD 02MO 02MC 02RD 02RO	1	0	0.974083900452	204.0	296.0	207	287	1
2.7	2015_May_20_1653	s	s	12	3	SIC	320	RC	2	2	09VD 02VO 02VC 02MD 02MO 02MC 02RD 02RO	1	0	0.846809148788	441.0	92.0	440	91	1
2.7	2015_May_20_1653	s	s	12	3	SIC	321	ABS	0	1	02VD 02VO 02VC 02MD 02MO 02MC 02RD 10RO	0	1	2.90187001228	None	None	None	None	1
2.7	2015_May_20_1653	s	s	12	3	SIC	322	RC	2	2	09VD 02VO 02VC 02MD 02MO 02MC 02RD 02RO	1	0	0.752681016922	313.0	-164.0	315	-171	1
2.7	2015_May_20_1653	s	s	12	3	SIC	323	RC	1	1	02VD 02VO 02VC 02MD 09MO 02MC 02RD 02RO	1	0	1.77663588524	40.0	376.0	38	366	1
2.7	2015_May_20_1653	s	s	12	3	SIC	324	ABS	2	2	10VD 02VO 02VC 02MD 02MO 02MC 02RD 02RO	0	1	1.76169085503	None	None	None	None	1
2.7	2015_May_20_1653	s	s	12	3	SIC	325	ABS	1	1	02VD 02VO 02VC 02MD 10MO 02MC 02RD 02RO	0	1	1.76000404358	None	None	None	None	1
2.7	2015_May_20_1653	s	s	12	3	SIC	326	RC	2	0	02VD 02VO 09VC 02MD 02MO 02MC 02RD 02RO	1	0	1.48935008049	-18.0	273.0	-18	271	1
2.7	2015_May_20_1653	s	s	12	3	SIC	327	ABS	0	2	02VD 02VO 02VC 02MD 02MO 02MC 10RD 02RO	0	1	1.8678150177	None	None	None	None	1
2.7	2015_May_20_1653	s	s	12	3	SIC	328	RC	1	2	02VD 02VO 02VC 09MD 02MO 02MC 02RD 02RO	1	0	0.75257897377	433.0	-290.0	438	-289	1
2.7	2015_May_20_1653	s	s	12	3	SIC	329	RC	2	1	02VD 09VO 02VC 02MD 02MO 02MC 02RD 02RO	1	0	1.74835109711	-433.0	401.0	-429	397	1
2.7	2015_May_20_1653	s	s	12	3	SIC	330	RC	1	0	02VD 02VO 02VC 02MD 02MO 09MC 02RD 02RO	1	0	0.771375894547	143.0	208.0	145	203	1
2.7	2015_May_20_1653	s	s	12	3	SIC	331	RC	0	2	02VD 02VO 02VC 02MD 02MO 02MC 09RD 02RO	1	0	0.717351913452	-330.0	7.0	-337	3	1
2.7	2015_May_20_1653	s	s	12	3	SIC	332	ABS	1	0	02VD 02VO 02VC 02MD 02MO 10MC 02RD 02RO	0	1	2.67821502686	None	None	None	None	1
2.7	2015_May_20_1653	s	s	12	3	SIC	333	ABS	2	0	02VD 02VO 10VC 02MD 02MO 02MC 02RD 02RO	0	1	2.18868994713	None	None	None	None	1
2.7	2015_May_20_1653	s	s	12	3	SIC	334	RC	0	1	02VD 02VO 02VC 02MD 02MO 02MC 02RD 09RO	1	0	0.811529874802	102.0	-117.0	98	-120	1
2.7	2015_May_20_1653	s	s	12	3	SIC	335	ABS	1	2	02VD 02VO 02VC 10MD 02MO 02MC 02RD 02RO	0	1	1.84228205681	None	None	None	None	1
2.7	2015_May_20_1653	s	s	12	3	SIC	336	ABS	2	1	02VD 10VO 02VC 02MD 02MO 02MC 02RD 02RO	0	1	1.36469197273	None	None	None	None	1
2.7	2015_May_20_1653	s	s	12	3	SIC	337	ABS	1	0	02VD 02VO 02VC 02MD 02MO 10MC 02RD 02RO	0	1	2.19596004486	None	None	None	None	1
2.7	2015_May_20_1653	s	s	12	3	SIC	338	ABS	0	1	02VD 02VO 02VC 02MD 02MO 02MC 02RD 10RO	0	1	3.4084148407	None	None	None	None	1
2.7	2015_May_20_1653	s	s	12	3	SIC	339	RC	0	1	02VD 02VO 02VC 02MD 02MO 02MC 02RD 09RO	1	0	1.11752200127	-438.0	244.0	-445	241	1
2.7	2015_May_20_1653	s	s	12	3	SIC	340	ABS	1	2	02VD 02VO 02VC 10MD 02MO 02MC 02RD 02RO	0	1	2.01215600967	None	None	None	None	1
2.7	2015_May_20_1653	s	s	12	3	SIC	341	ABS	2	0	02VD 02VO 10VC 02MD 02MO 02MC 02RD 02RO	0	1	1.83559203148	None	None	None	None	1
2.7	2015_May_20_1653	s	s	12	3	SIC	342	RC	2	2	09VD 02VO 02VC 02MD 02MO 02MC 02RD 02RO	1	0	1.61822295189	525.0	11.0	514	11	1
2.7	2015_May_20_1653	s	s	12	3	SIC	343	ABS	2	1	02VD 10VO 02VC 02MD 02MO 02MC 02RD 02RO	0	1	1.88259983063	None	None	None	None	1
2.7	2015_May_20_1653	s	s	12	3	SIC	344	RC	2	0	02VD 02VO 09VC 02MD 02MO 02MC 02RD 02RO	1	0	1.72958993912	529.0	391.0	531	386	1
2.7	2015_May_20_1653	s	s	12	3	SIC	345	RC	1	1	02VD 02VO 02VC 02MD 09MO 02MC 02RD 02RO	1	0	0.964546918869	-465.0	-311.0	-459	-311	1
2.7	2015_May_20_1653	s	s	12	3	SIC	346	RC	1	2	02VD 02VO 02VC 09MD 02MO 02MC 02RD 02RO	1	0	0.99986410141	405.0	346.0	406	344	1
2.7	2015_May_20_1653	s	s	12	3	SIC	347	RC	1	0	02VD 02VO 02VC 02MD 02MO 09MC 02RD 02RO	1	0	1.63065505028	97.0	346.0	101	336	1
2.7	2015_May_20_1653	s	s	12	3	SIC	348	ABS	0	2	02VD 02VO 02VC 02MD 02MO 02MC 10RD 02RO	0	1	1.7475271225	None	None	None	None	1
2.7	2015_May_20_1653	s	s	12	3	SIC	349	ABS	1	1	02VD 02VO 02VC 02MD 10MO 02MC 02RD 02RO	0	1	3.08946108818	None	None	None	None	1
2.7	2015_May_20_1653	s	s	12	3	SIC	350	ABS	2	2	10VD 02VO 02VC 02MD 02MO 02MC 02RD 02RO	0	1	1.64163088799	None	None	None	None	1
2.7	2015_May_20_1653	s	s	12	3	SIC	351	RC	2	1	02VD 09VO 02VC 02MD 02MO 02MC 02RD 02RO	1	0	1.42142701149	512.0	133.0	514	134	1
2.7	2015_May_20_1653	s	s	12	3	SIC	352	RC	0	2	02VD 02VO 02VC 02MD 02MO 02MC 09RD 02RO	1	0	1.01824307442	-338.0	-229.0	-343	-240	1
2.7	2015_May_20_1653	s	s	12	3	SIC	353	RC	2	0	02VD 02VO 09VC 02MD 02MO 02MC 02RD 02RO	1	0	1.53647398949	481.0	187.0	486	183	1
2.7	2015_May_20_1653	s	s	12	3	SIC	354	ABS	2	0	02VD 02VO 10VC 02MD 02MO 02MC 02RD 02RO	0	1	1.98306298256	None	None	None	None	1
2.7	2015_May_20_1653	s	s	12	3	SIC	355	RC	1	2	02VD 02VO 02VC 09MD 02MO 02MC 02RD 02RO	1	0	1.1881480217	-480.0	29.0	-484	20	1
2.7	2015_May_20_1653	s	s	12	3	SIC	356	RC	1	1	02VD 02VO 02VC 02MD 09MO 02MC 02RD 02RO	1	0	0.893886089325	46.0	139.0	44	131	1
2.7	2015_May_20_1653	s	s	12	3	SIC	357	ABS	0	2	02VD 02VO 02VC 02MD 02MO 02MC 10RD 02RO	0	1	1.313808918	None	None	None	None	1
2.7	2015_May_20_1653	s	s	12	3	SIC	358	RC	1	0	02VD 02VO 02VC 02MD 02MO 09MC 02RD 02RO	1	0	1.03519916534	-362.0	82.0	-370	86	1
2.7	2015_May_20_1653	s	s	12	3	SIC	359	RC	2	2	09VD 02VO 02VC 02MD 02MO 02MC 02RD 02RO	1	0	0.747712850571	-189.0	-242.0	-184	-240	1
2.7	2015_May_20_1653	s	s	12	3	SIC	360	ABS	2	1	02VD 10VO 02VC 02MD 02MO 02MC 02RD 02RO	0	1	1.70993804932	None	None	None	None	1
2.7	2015_May_20_1653	s	s	12	3	SIC	361	ABS	0	1	02VD 02VO 02VC 02MD 02MO 02MC 02RD 10RO	0	1	3.20785784721	None	None	None	None	1
2.7	2015_May_20_1653	s	s	12	3	SIC	362	RC	0	1	02VD 02VO 02VC 02MD 02MO 02MC 02RD 09RO	1	0	0.658472061157	-207.0	-182.0	-206	-183	1
2.7	2015_May_20_1653	s	s	12	3	SIC	363	ABS	1	0	02VD 02VO 02VC 02MD 02MO 10MC 02RD 02RO	0	1	2.88991689682	None	None	None	None	1
2.7	2015_May_20_1653	s	s	12	3	SIC	364	RC	0	2	02VD 02VO 02VC 02MD 02MO 02MC 09RD 02RO	1	0	0.729088068008	216.0	-134.0	210	-135	1
2.7	2015_May_20_1653	s	s	12	3	SIC	365	ABS	2	2	10VD 02VO 02VC 02MD 02MO 02MC 02RD 02RO	0	1	1.84459686279	None	None	None	None	1
2.7	2015_May_20_1653	s	s	12	3	SIC	366	ABS	1	2	02VD 02VO 02VC 10MD 02MO 02MC 02RD 02RO	0	1	1.58841991425	None	None	None	None	1
2.7	2015_May_20_1653	s	s	12	3	SIC	367	ABS	1	1	02VD 02VO 02VC 02MD 10MO 02MC 02RD 02RO	0	1	2.84317088127	None	None	None	None	1
2.7	2015_May_20_1653	s	s	12	3	SIC	368	RC	2	1	02VD 09VO 02VC 02MD 02MO 02MC 02RD 02RO	1	0	0.988060951233	130.0	81.0	132	86	1
2.7	2015_May_20_1653	s	s	12	3	SIC	369	ABS	1	2	02VD 02VO 02VC 10MD 02MO 02MC 02RD 02RO	0	1	1.5952808857	None	None	None	None	1
2.7	2015_May_20_1653	s	s	12	3	SIC	370	ABS	0	1	02VD 02VO 02VC 02MD 02MO 02MC 02RD 10RO	0	1	2.2783741951	None	None	None	None	1
2.7	2015_May_20_1653	s	s	12	3	SIC	371	RC	2	1	02VD 09VO 02VC 02MD 02MO 02MC 02RD 02RO	1	0	1.3176419735	420.0	158.0	425	160	1
2.7	2015_May_20_1653	s	s	12	3	SIC	372	ABS	2	1	02VD 10VO 02VC 02MD 02MO 02MC 02RD 02RO	0	1	1.34117293358	None	None	None	None	1
2.7	2015_May_20_1653	s	s	12	3	SIC	373	RC	0	2	02VD 02VO 02VC 02MD 02MO 02MC 09RD 02RO	1	0	1.9218249321	87.0	-385.0	86	-383	1
2.7	2015_May_20_1653	s	s	12	3	SIC	374	ABS	0	2	02VD 02VO 02VC 02MD 02MO 02MC 10RD 02RO	0	1	1.4656419754	None	None	None	None	1
2.7	2015_May_20_1653	s	s	12	3	SIC	375	RC	1	2	02VD 02VO 02VC 09MD 02MO 02MC 02RD 02RO	1	0	1.49422907829	-483.0	-31.0	-476	-34	1
2.7	2015_May_20_1653	s	s	12	3	SIC	376	RC	0	1	02VD 02VO 02VC 02MD 02MO 02MC 02RD 09RO	1	0	0.600013971329	366.0	63.0	365	63	1
2.7	2015_May_20_1653	s	s	12	3	SIC	377	RC	1	0	02VD 02VO 02VC 02MD 02MO 09MC 02RD 02RO	1	0	1.147783041	-191.0	116.0	-193	117	1
2.7	2015_May_20_1653	s	s	12	3	SIC	378	RC	2	2	09VD 02VO 02VC 02MD 02MO 02MC 02RD 02RO	1	0	0.893937110901	371.0	-238.0	371	-250	1
2.7	2015_May_20_1653	s	s	12	3	SIC	379	RC	2	0	02VD 02VO 09VC 02MD 02MO 02MC 02RD 02RO	1	0	1.04291009903	-350.0	114.0	-342	111	1
2.7	2015_May_20_1653	s	s	12	3	SIC	380	RC	1	1	02VD 02VO 02VC 02MD 09MO 02MC 02RD 02RO	1	0	0.764425039291	259.0	182.0	263	188	1
2.7	2015_May_20_1653	s	s	12	3	SIC	381	ABS	1	1	02VD 02VO 02VC 02MD 10MO 02MC 02RD 02RO	0	1	1.94822311401	None	None	None	None	1
2.7	2015_May_20_1653	s	s	12	3	SIC	382	ABS	1	0	02VD 02VO 02VC 02MD 02MO 10MC 02RD 02RO	0	1	1.6824889183	None	None	None	None	1
2.7	2015_May_20_1653	s	s	12	3	SIC	383	ABS	2	2	10VD 02VO 02VC 02MD 02MO 02MC 02RD 02RO	0	1	1.63056111336	None	None	None	None	1
2.7	2015_May_20_1653	s	s	12	3	SIC	384	ABS	2	0	02VD 02VO 10VC 02MD 02MO 02MC 02RD 02RO	0	1	1.6538848877	None	None	None	None	1
2.7	2015_May_20_1653	s	s	12	3	SIC	385	ABS	1	0	02VD 02VO 02VC 02MD 02MO 10MC 02RD 02RO	0	1	1.58839201927	None	None	None	None	1
2.7	2015_May_20_1653	s	s	12	3	SIC	386	RC	1	1	02VD 02VO 02VC 02MD 09MO 02MC 02RD 02RO	1	0	0.738823890686	-362.0	-52.0	-365	-51	1
2.7	2015_May_20_1653	s	s	12	3	SIC	387	RC	2	2	09VD 02VO 02VC 02MD 02MO 02MC 02RD 02RO	1	0	1.38834691048	280.0	326.0	280	323	1
2.7	2015_May_20_1653	s	s	12	3	SIC	388	RC	1	2	02VD 02VO 02VC 09MD 02MO 02MC 02RD 02RO	1	0	0.888864994049	399.0	-97.0	403	-96	1
2.7	2015_May_20_1653	s	s	12	3	SIC	389	ABS	0	2	02VD 02VO 02VC 02MD 02MO 02MC 10RD 02RO	0	1	1.39512300491	None	None	None	None	1
2.7	2015_May_20_1653	s	s	12	3	SIC	390	RC	1	0	02VD 02VO 02VC 02MD 02MO 09MC 02RD 02RO	1	0	1.7178709507	392.0	328.0	393	332	1
2.7	2015_May_20_1653	s	s	12	3	SIC	391	ABS	2	2	10VD 02VO 02VC 02MD 02MO 02MC 02RD 02RO	0	1	1.24202680588	None	None	None	None	1
2.7	2015_May_20_1653	s	s	12	3	SIC	392	ABS	2	0	02VD 02VO 10VC 02MD 02MO 02MC 02RD 02RO	0	1	1.31763291359	None	None	None	None	1
2.7	2015_May_20_1653	s	s	12	3	SIC	393	RC	0	1	02VD 02VO 02VC 02MD 02MO 02MC 02RD 09RO	1	0	2.34910607338	487.0	299.0	485	291	1
2.7	2015_May_20_1653	s	s	12	3	SIC	394	RC	2	0	02VD 02VO 09VC 02MD 02MO 02MC 02RD 02RO	1	0	1.15286922455	473.0	255.0	473	256	1
2.7	2015_May_20_1653	s	s	12	3	SIC	395	ABS	2	1	02VD 10VO 02VC 02MD 02MO 02MC 02RD 02RO	0	1	1.41857481003	None	None	None	None	1
2.7	2015_May_20_1653	s	s	12	3	SIC	396	ABS	1	2	02VD 02VO 02VC 10MD 02MO 02MC 02RD 02RO	0	1	1.77135300636	None	None	None	None	1
2.7	2015_May_20_1653	s	s	12	3	SIC	397	RC	2	1	02VD 09VO 02VC 02MD 02MO 02MC 02RD 02RO	1	0	1.27781701088	-441.0	-173.0	-439	-174	1
2.7	2015_May_20_1653	s	s	12	3	SIC	398	ABS	1	1	02VD 02VO 02VC 02MD 10MO 02MC 02RD 02RO	0	1	2.25932192802	None	None	None	None	1
2.7	2015_May_20_1653	s	s	12	3	SIC	399	RC	0	2	02VD 02VO 02VC 02MD 02MO 02MC 09RD 02RO	1	0	1.7532119751	-243.0	405.0	-248	408	1
2.7	2015_May_20_1653	s	s	12	3	SIC	400	ABS	0	1	02VD 02VO 02VC 02MD 02MO 02MC 02RD 10RO	0	1	3.36089301109	None	None	None	None	1
2.7	2015_May_20_1653	s	s	12	3	SIC	401	ABS	2	2	10VD 02VO 02VC 02MD 02MO 02MC 02RD 02RO	1	0	1.89054989815	None	None	-84	-70	0
2.7	2015_May_20_1653	s	s	12	3	SIC	402	ABS	0	1	02VD 02VO 02VC 02MD 02MO 02MC 02RD 10RO	0	1	3.91416311264	None	None	None	None	1
2.7	2015_May_20_1653	s	s	12	3	SIC	403	ABS	1	0	02VD 02VO 02VC 02MD 02MO 10MC 02RD 02RO	0	1	2.6713039875	None	None	None	None	1
2.7	2015_May_20_1653	s	s	12	3	SIC	404	RC	2	2	09VD 02VO 02VC 02MD 02MO 02MC 02RD 02RO	1	0	0.947942972183	132.0	72.0	130	65	1
2.7	2015_May_20_1653	s	s	12	3	SIC	405	RC	1	0	02VD 02VO 02VC 02MD 02MO 09MC 02RD 02RO	1	0	0.877818107605	-269.0	-35.0	-265	-37	1
2.7	2015_May_20_1653	s	s	12	3	SIC	406	RC	1	2	02VD 02VO 02VC 09MD 02MO 02MC 02RD 02RO	1	0	0.79971408844	-431.0	-28.0	-436	-20	1
2.7	2015_May_20_1653	s	s	12	3	SIC	407	ABS	0	2	02VD 02VO 02VC 02MD 02MO 02MC 10RD 02RO	0	1	2.34709215164	None	None	None	None	1
2.7	2015_May_20_1653	s	s	12	3	SIC	408	RC	2	0	02VD 02VO 09VC 02MD 02MO 02MC 02RD 02RO	1	0	0.940892934799	-392.0	271.0	-386	270	1
2.7	2015_May_20_1653	s	s	12	3	SIC	409	RC	2	1	02VD 09VO 02VC 02MD 02MO 02MC 02RD 02RO	1	0	1.16466093063	333.0	-290.0	320	-283	1
2.7	2015_May_20_1653	s	s	12	3	SIC	410	ABS	1	2	02VD 02VO 02VC 10MD 02MO 02MC 02RD 02RO	0	1	2.15022802353	None	None	None	None	1
2.7	2015_May_20_1653	s	s	12	3	SIC	411	ABS	2	0	02VD 02VO 10VC 02MD 02MO 02MC 02RD 02RO	0	1	1.6769080162	None	None	None	None	1
2.7	2015_May_20_1653	s	s	12	3	SIC	412	ABS	1	1	02VD 02VO 02VC 02MD 10MO 02MC 02RD 02RO	0	1	2.77282881737	None	None	None	None	1
2.7	2015_May_20_1653	s	s	12	3	SIC	413	RC	1	1	02VD 02VO 02VC 02MD 09MO 02MC 02RD 02RO	1	0	1.33633995056	375.0	156.0	379	156	1
2.7	2015_May_20_1653	s	s	12	3	SIC	414	ABS	2	1	02VD 10VO 02VC 02MD 02MO 02MC 02RD 02RO	0	1	1.88264584541	None	None	None	None	1
2.7	2015_May_20_1653	s	s	12	3	SIC	415	RC	0	2	02VD 02VO 02VC 02MD 02MO 02MC 09RD 02RO	1	0	1.03511691093	-184.0	-228.0	-180	-237	1
2.7	2015_May_20_1653	s	s	12	3	SIC	416	RC	0	1	02VD 02VO 02VC 02MD 02MO 02MC 02RD 09RO	1	0	1.34108304977	-261.0	-176.0	-267	-174	1
2.7	2015_May_20_1653	s	s	12	3	SIC	417	ABS	0	2	02VD 02VO 02VC 02MD 02MO 02MC 10RD 02RO	0	1	1.5098130703	None	None	None	None	1
2.7	2015_May_20_1653	s	s	12	3	SIC	418	ABS	1	1	02VD 02VO 02VC 02MD 10MO 02MC 02RD 02RO	0	1	1.92717313766	None	None	None	None	1
2.7	2015_May_20_1653	s	s	12	3	SIC	419	ABS	2	0	02VD 02VO 10VC 02MD 02MO 02MC 02RD 02RO	0	1	1.09403300285	None	None	None	None	1
2.7	2015_May_20_1653	s	s	12	3	SIC	420	ABS	2	2	10VD 02VO 02VC 02MD 02MO 02MC 02RD 02RO	0	1	0.882112026215	None	None	None	None	1
2.7	2015_May_20_1653	s	s	12	3	SIC	421	RC	2	0	02VD 02VO 09VC 02MD 02MO 02MC 02RD 02RO	1	0	0.993361949921	380.0	78.0	384	78	1
2.7	2015_May_20_1653	s	s	12	3	SIC	422	ABS	1	2	02VD 02VO 02VC 10MD 02MO 02MC 02RD 02RO	0	1	1.28906798363	None	None	None	None	1
2.7	2015_May_20_1653	s	s	12	3	SIC	423	RC	0	1	02VD 02VO 02VC 02MD 02MO 02MC 02RD 09RO	1	0	1.37647891045	371.0	-336.0	366	-346	1
2.7	2015_May_20_1653	s	s	12	3	SIC	424	RC	2	1	02VD 09VO 02VC 02MD 02MO 02MC 02RD 02RO	1	0	1.52954006195	316.0	302.0	310	305	1
2.7	2015_May_20_1653	s	s	12	3	SIC	425	ABS	1	0	02VD 02VO 02VC 02MD 02MO 10MC 02RD 02RO	0	1	2.5418009758	None	None	None	None	1
2.7	2015_May_20_1653	s	s	12	3	SIC	426	RC	0	2	02VD 02VO 02VC 02MD 02MO 02MC 09RD 02RO	1	0	0.917417049408	67.0	-360.0	72	-360	1
2.7	2015_May_20_1653	s	s	12	3	SIC	427	RC	1	2	02VD 02VO 02VC 09MD 02MO 02MC 02RD 02RO	1	0	1.62151694298	97.0	294.0	84	301	1
2.7	2015_May_20_1653	s	s	12	3	SIC	428	ABS	2	1	02VD 10VO 02VC 02MD 02MO 02MC 02RD 02RO	0	1	1.35298490524	None	None	None	None	1
2.7	2015_May_20_1653	s	s	12	3	SIC	429	ABS	0	1	02VD 02VO 02VC 02MD 02MO 02MC 02RD 10RO	0	1	2.18619179726	None	None	None	None	1
2.7	2015_May_20_1653	s	s	12	3	SIC	430	RC	1	1	02VD 02VO 02VC 02MD 09MO 02MC 02RD 02RO	0	1	1.65411806107	-250.0	200.0	None	None	0
2.7	2015_May_20_1653	s	s	12	3	SIC	431	RC	1	0	02VD 02VO 02VC 02MD 02MO 09MC 02RD 02RO	1	0	0.608327865601	-331.0	98.0	-329	99	1
2.7	2015_May_20_1653	s	s	12	3	SIC	432	RC	2	2	09VD 02VO 02VC 02MD 02MO 02MC 02RD 02RO	1	0	0.724248170853	159.0	8.0	154	9	1
2.7	2015_May_20_1653	s	s	12	3	SIC	433	ABS	1	2	02VD 02VO 02VC 10MD 02MO 02MC 02RD 02RO	0	1	1.30591797829	None	None	None	None	1
2.7	2015_May_20_1653	s	s	12	3	SIC	434	ABS	0	2	02VD 02VO 02VC 02MD 02MO 02MC 10RD 02RO	0	1	2.10634016991	None	None	None	None	1
2.7	2015_May_20_1653	s	s	12	3	SIC	435	ABS	2	2	10VD 02VO 02VC 02MD 02MO 02MC 02RD 02RO	0	1	1.34810805321	None	None	None	None	1
2.7	2015_May_20_1653	s	s	12	3	SIC	436	ABS	1	1	02VD 02VO 02VC 02MD 10MO 02MC 02RD 02RO	0	1	1.91450500488	None	None	None	None	1
2.7	2015_May_20_1653	s	s	12	3	SIC	437	ABS	2	0	02VD 02VO 10VC 02MD 02MO 02MC 02RD 02RO	0	1	1.41877794266	None	None	None	None	1
2.7	2015_May_20_1653	s	s	12	3	SIC	438	ABS	0	1	02VD 02VO 02VC 02MD 02MO 02MC 02RD 10RO	0	1	4.24526882172	None	None	None	None	1
2.7	2015_May_20_1653	s	s	12	3	SIC	439	RC	1	0	02VD 02VO 02VC 02MD 02MO 09MC 02RD 02RO	1	0	1.2771999836	491.0	-140.0	481	-140	1
2.7	2015_May_20_1653	s	s	12	3	SIC	440	ABS	1	0	02VD 02VO 02VC 02MD 02MO 10MC 02RD 02RO	0	1	3.79337000847	None	None	None	None	1
2.7	2015_May_20_1653	s	s	12	3	SIC	441	RC	2	2	09VD 02VO 02VC 02MD 02MO 02MC 02RD 02RO	1	0	1.43051195145	248.0	208.0	242	203	1
2.7	2015_May_20_1653	s	s	12	3	SIC	442	RC	0	1	02VD 02VO 02VC 02MD 02MO 02MC 02RD 09RO	0	1	0.128820896149	-284.0	-287.0	None	None	0
2.7	2015_May_20_1653	s	s	12	3	SIC	443	RC	2	0	02VD 02VO 09VC 02MD 02MO 02MC 02RD 02RO	1	0	0.738879919052	-256.0	-21.0	-251	-17	1
2.7	2015_May_20_1653	s	s	12	3	SIC	444	RC	1	1	02VD 02VO 02VC 02MD 09MO 02MC 02RD 02RO	1	0	0.665424108505	168.0	145.0	167	138	1
2.7	2015_May_20_1653	s	s	12	3	SIC	445	RC	1	2	02VD 02VO 02VC 09MD 02MO 02MC 02RD 02RO	1	0	1.06552791595	466.0	160.0	459	165	1
2.7	2015_May_20_1653	s	s	12	3	SIC	446	ABS	2	1	02VD 10VO 02VC 02MD 02MO 02MC 02RD 02RO	0	1	2.24124002457	None	None	None	None	1
2.7	2015_May_20_1653	s	s	12	3	SIC	447	RC	0	2	02VD 02VO 02VC 02MD 02MO 02MC 09RD 02RO	1	0	1.13624501228	-182.0	-411.0	-178	-412	1
2.7	2015_May_20_1653	s	s	12	3	SIC	448	RC	2	1	02VD 09VO 02VC 02MD 02MO 02MC 02RD 02RO	1	0	0.870275974274	-403.0	-357.0	-401	-360	1
2.7	2015_May_20_1653	s	s	12	3	SIC	449	ABS	0	2	02VD 02VO 02VC 02MD 02MO 02MC 10RD 02RO	0	1	1.68008708954	None	None	None	None	1
2.7	2015_May_20_1653	s	s	12	3	SIC	450	RC	2	0	02VD 02VO 09VC 02MD 02MO 02MC 02RD 02RO	1	0	0.856361150742	282.0	-387.0	281	-389	1
2.7	2015_May_20_1653	s	s	12	3	SIC	451	RC	2	1	02VD 09VO 02VC 02MD 02MO 02MC 02RD 02RO	1	0	0.652494907379	376.0	-221.0	379	-223	1
2.7	2015_May_20_1653	s	s	12	3	SIC	452	ABS	2	2	10VD 02VO 02VC 02MD 02MO 02MC 02RD 02RO	0	1	1.47762608528	None	None	None	None	1
2.7	2015_May_20_1653	s	s	12	3	SIC	453	ABS	0	1	02VD 02VO 02VC 02MD 02MO 02MC 02RD 10RO	0	1	3.64824604988	None	None	None	None	1
2.7	2015_May_20_1653	s	s	12	3	SIC	454	ABS	1	0	02VD 02VO 02VC 02MD 02MO 10MC 02RD 02RO	0	1	2.27801203728	None	None	None	None	1
2.7	2015_May_20_1653	s	s	12	3	SIC	455	RC	0	2	02VD 02VO 02VC 02MD 02MO 02MC 09RD 02RO	1	0	1.22344708443	531.0	-105.0	543	-104	1
2.7	2015_May_20_1653	s	s	12	3	SIC	456	RC	0	1	02VD 02VO 02VC 02MD 02MO 02MC 02RD 09RO	1	0	2.80076408386	11.0	399.0	19	399	1
2.7	2015_May_20_1653	s	s	12	3	SIC	457	RC	1	0	02VD 02VO 02VC 02MD 02MO 09MC 02RD 02RO	1	0	2.20045304298	94.0	344.0	101	346	1
2.7	2015_May_20_1653	s	s	12	3	SIC	458	RC	1	2	02VD 02VO 02VC 09MD 02MO 02MC 02RD 02RO	1	0	1.20685982704	172.0	8.0	182	16	1
2.7	2015_May_20_1653	s	s	12	3	SIC	459	RC	1	1	02VD 02VO 02VC 02MD 09MO 02MC 02RD 02RO	1	0	1.29067206383	-151.0	193.0	-152	193	1
2.7	2015_May_20_1653	s	s	12	3	SIC	460	RC	2	2	09VD 02VO 02VC 02MD 02MO 02MC 02RD 02RO	1	0	1.63006901741	-494.0	356.0	-493	356	1
2.7	2015_May_20_1653	s	s	12	3	SIC	461	ABS	1	2	02VD 02VO 02VC 10MD 02MO 02MC 02RD 02RO	0	1	1.50603294373	None	None	None	None	1
2.7	2015_May_20_1653	s	s	12	3	SIC	462	ABS	1	1	02VD 02VO 02VC 02MD 10MO 02MC 02RD 02RO	0	1	2.40094614029	None	None	None	None	1
2.7	2015_May_20_1653	s	s	12	3	SIC	463	ABS	2	0	02VD 02VO 10VC 02MD 02MO 02MC 02RD 02RO	0	1	1.49419903755	None	None	None	None	1
2.7	2015_May_20_1653	s	s	12	3	SIC	464	ABS	2	1	02VD 10VO 02VC 02MD 02MO 02MC 02RD 02RO	0	1	1.38515901566	None	None	None	None	1
2.7	2015_May_20_1653	s	s	12	3	SIC	465	ABS	2	1	02VD 10VO 02VC 02MD 02MO 02MC 02RD 02RO	0	1	1.60879087448	None	None	None	None	1
2.7	2015_May_20_1653	s	s	12	3	SIC	466	RC	0	2	02VD 02VO 02VC 02MD 02MO 02MC 09RD 02RO	1	0	1.11252307892	-458.0	84.0	-462	81	1
2.7	2015_May_20_1653	s	s	12	3	SIC	467	RC	1	0	02VD 02VO 02VC 02MD 02MO 09MC 02RD 02RO	1	0	1.37203407288	77.0	-293.0	82	-291	1
2.7	2015_May_20_1653	s	s	12	3	SIC	468	ABS	2	0	02VD 02VO 10VC 02MD 02MO 02MC 02RD 02RO	0	1	1.85454201698	None	None	None	None	1
2.7	2015_May_20_1653	s	s	12	3	SIC	469	RC	1	2	02VD 02VO 02VC 09MD 02MO 02MC 02RD 02RO	1	0	1.47800898552	100.0	397.0	101	401	1
2.7	2015_May_20_1653	s	s	12	3	SIC	470	ABS	0	1	02VD 02VO 02VC 02MD 02MO 02MC 02RD 10RO	0	1	2.76184797287	None	None	None	None	1
2.7	2015_May_20_1653	s	s	12	3	SIC	471	ABS	1	0	02VD 02VO 02VC 02MD 02MO 10MC 02RD 02RO	0	1	2.5131149292	None	None	None	None	1
2.7	2015_May_20_1653	s	s	12	3	SIC	472	RC	1	1	02VD 02VO 02VC 02MD 09MO 02MC 02RD 02RO	1	0	1.56482696533	386.0	-234.0	390	-244	1
2.7	2015_May_20_1653	s	s	12	3	SIC	473	RC	2	2	09VD 02VO 02VC 02MD 02MO 02MC 02RD 02RO	1	0	0.740885972977	195.0	79.0	204	81	1
2.7	2015_May_20_1653	s	s	12	3	SIC	474	ABS	1	1	02VD 02VO 02VC 02MD 10MO 02MC 02RD 02RO	0	1	3.4341070652	None	None	None	None	1
2.7	2015_May_20_1653	s	s	12	3	SIC	475	RC	0	1	02VD 02VO 02VC 02MD 02MO 02MC 02RD 09RO	1	0	0.736060857773	-111.0	-131.0	-106	-131	1
2.7	2015_May_20_1653	s	s	12	3	SIC	476	ABS	2	2	10VD 02VO 02VC 02MD 02MO 02MC 02RD 02RO	0	1	2.05463480949	None	None	None	None	1
2.7	2015_May_20_1653	s	s	12	3	SIC	477	RC	2	1	02VD 09VO 02VC 02MD 02MO 02MC 02RD 02RO	1	0	0.910457134247	-232.0	236.0	-223	238	1
2.7	2015_May_20_1653	s	s	12	3	SIC	478	RC	2	0	02VD 02VO 09VC 02MD 02MO 02MC 02RD 02RO	1	0	1.44716787338	112.0	320.0	104	314	1
2.7	2015_May_20_1653	s	s	12	3	SIC	479	ABS	1	2	02VD 02VO 02VC 10MD 02MO 02MC 02RD 02RO	0	1	1.78850007057	None	None	None	None	1
2.7	2015_May_20_1653	s	s	12	3	SIC	480	ABS	0	2	02VD 02VO 02VC 02MD 02MO 02MC 10RD 02RO	0	1	1.52160310745	None	None	None	None	1
