Version	Date	Stimuli	Method	Subject	Session	Condition	Trial	Target	Channel1	Channel2	Distractors	LMouseButton	RMouseButton	RT	TargetX	TargetY	ResponseX	ResponseY	Correct
2.7	2015_May_19_1651	s	s	12	2	Capacity	1	RC	0	2	15RD 08RO	1	0	1.41182398796	91.0	396.0	94	390	1
2.7	2015_May_19_1651	s	s	12	2	Capacity	2	ABS	0	1	08RD 16RO	0	1	2.5535531044	None	None	None	None	1
2.7	2015_May_19_1651	s	s	12	2	Capacity	3	ABS	0	2	16RD 08RO	0	1	2.506524086	None	None	None	None	1
2.7	2015_May_19_1651	s	s	12	2	Capacity	4	RC	0	1	08RD 15RO	1	0	0.865396976471	20.0	165.0	16	159	1
2.7	2015_May_19_1651	s	s	12	2	Capacity	5	RC	0	1	08RD 15RO	1	0	0.905756950378	206.0	-104.0	209	-110	1
2.7	2015_May_19_1651	s	s	12	2	Capacity	6	ABS	0	2	16RD 08RO	0	1	2.21223115921	None	None	None	None	1
2.7	2015_May_19_1651	s	s	12	2	Capacity	7	RC	0	2	15RD 08RO	0	1	2.62427401543	-183.0	-340.0	None	None	0
2.7	2015_May_19_1651	s	s	12	2	Capacity	8	ABS	0	1	08RD 16RO	0	1	4.01995110512	None	None	None	None	1
2.7	2015_May_19_1651	s	s	12	2	Capacity	9	RC	0	1	08RD 15RO	1	0	0.952686071396	-27.0	-95.0	-35	-97	1
2.7	2015_May_19_1651	s	s	12	2	Capacity	10	RC	0	2	15RD 08RO	1	0	2.25451302528	524.0	46.0	528	44	1
2.7	2015_May_19_1651	s	s	12	2	Capacity	11	ABS	0	1	08RD 16RO	0	1	4.18975901604	None	None	None	None	1
2.7	2015_May_19_1651	s	s	12	2	Capacity	12	ABS	0	2	16RD 08RO	0	1	2.44260883331	None	None	None	None	1
2.7	2015_May_19_1651	s	s	12	2	Capacity	13	RC	0	2	15RD 08RO	1	0	1.84244704247	537.0	-198.0	544	-197	1
2.7	2015_May_19_1651	s	s	12	2	Capacity	14	RC	0	1	08RD 15RO	1	0	4.09565782547	-74.0	-203.0	-78	-210	1
2.7	2015_May_19_1651	s	s	12	2	Capacity	15	ABS	0	2	16RD 08RO	0	1	2.53005599976	None	None	None	None	1
2.7	2015_May_19_1651	s	s	12	2	Capacity	16	ABS	0	1	08RD 16RO	0	1	3.25979995728	None	None	None	None	1
2.7	2015_May_19_1651	s	s	12	2	Capacity	17	ABS	0	2	16RD 08RO	0	1	2.17727303505	None	None	None	None	1
2.7	2015_May_19_1651	s	s	12	2	Capacity	18	RC	0	2	15RD 08RO	0	1	2.15046691895	-228.0	202.0	None	None	0
2.7	2015_May_19_1651	s	s	12	2	Capacity	19	RC	0	1	08RD 15RO	1	0	0.705611944199	-272.0	324.0	-264	320	1
2.7	2015_May_19_1651	s	s	12	2	Capacity	20	ABS	0	1	08RD 16RO	0	1	4.04532909393	None	None	None	None	1
2.7	2015_May_19_1651	s	s	12	2	Capacity	21	ABS	0	2	16RD 08RO	0	1	2.16217517853	None	None	None	None	1
2.7	2015_May_19_1651	s	s	12	2	Capacity	22	RC	0	2	15RD 08RO	1	0	1.88939905167	-67.0	-347.0	-71	-349	1
2.7	2015_May_19_1651	s	s	12	2	Capacity	23	RC	0	1	08RD 15RO	1	0	2.61250400543	224.0	47.0	226	44	1
2.7	2015_May_19_1651	s	s	12	2	Capacity	24	ABS	0	1	08RD 16RO	0	1	3.38929009438	None	None	None	None	1
2.7	2015_May_19_1651	s	s	12	2	Capacity	25	ABS	0	2	16RD 08RO	0	1	2.30680418015	None	None	None	None	1
2.7	2015_May_19_1651	s	s	12	2	Capacity	26	ABS	0	1	08RD 16RO	0	1	3.81050300598	None	None	None	None	1
2.7	2015_May_19_1651	s	s	12	2	Capacity	27	RC	0	1	08RD 15RO	1	0	0.938503980637	-70.0	-123.0	-79	-127	1
2.7	2015_May_19_1651	s	s	12	2	Capacity	28	RC	0	2	15RD 08RO	1	0	1.48938107491	-357.0	-394.0	-347	-396	1
2.7	2015_May_19_1651	s	s	12	2	Capacity	29	ABS	0	1	08RD 16RO	0	1	3.9073369503	None	None	None	None	1
2.7	2015_May_19_1651	s	s	12	2	Capacity	30	RC	0	1	08RD 15RO	1	0	1.05875086784	-345.0	-52.0	-339	-51	1
2.7	2015_May_19_1651	s	s	12	2	Capacity	31	RC	0	2	15RD 08RO	1	0	1.52707386017	296.0	-123.0	291	-123	1
2.7	2015_May_19_1651	s	s	12	2	Capacity	32	ABS	0	2	16RD 08RO	0	1	2.30626106262	None	None	None	None	1
2.7	2015_May_19_1651	s	s	12	2	Capacity	33	ABS	0	2	16RD 08RO	0	1	2.53680801392	None	None	None	None	1
2.7	2015_May_19_1651	s	s	12	2	Capacity	34	RC	0	2	15RD 08RO	1	0	2.10055208206	366.0	259.0	367	258	1
2.7	2015_May_19_1651	s	s	12	2	Capacity	35	RC	0	1	08RD 15RO	1	0	1.65920901299	-168.0	310.0	-161	309	1
2.7	2015_May_19_1651	s	s	12	2	Capacity	36	ABS	0	1	08RD 16RO	0	1	3.76037478447	None	None	None	None	1
2.7	2015_May_19_1651	s	s	12	2	Capacity	37	ABS	0	1	08RD 16RO	0	1	3.62521886826	None	None	None	None	1
2.7	2015_May_19_1651	s	s	12	2	Capacity	38	RC	0	2	15RD 08RO	1	0	1.01195192337	215.0	13.0	209	12	1
2.7	2015_May_19_1651	s	s	12	2	Capacity	39	RC	0	1	08RD 15RO	0	1	3.18181109428	277.0	93.0	None	None	0
2.7	2015_May_19_1651	s	s	12	2	Capacity	40	ABS	0	2	16RD 08RO	0	1	2.71250391006	None	None	None	None	1
2.7	2015_May_19_1651	s	s	12	2	Capacity	41	RC	0	2	15RD 08RO	1	0	1.26504802704	-114.0	-364.0	-110	-364	1
2.7	2015_May_19_1651	s	s	12	2	Capacity	42	ABS	0	1	08RD 16RO	0	1	3.49531698227	None	None	None	None	1
2.7	2015_May_19_1651	s	s	12	2	Capacity	43	RC	0	1	08RD 15RO	1	0	1.94819498062	533.0	114.0	527	109	1
2.7	2015_May_19_1651	s	s	12	2	Capacity	44	ABS	0	2	16RD 08RO	0	1	1.67103385925	None	None	None	None	1
2.7	2015_May_19_1651	s	s	12	2	Capacity	45	RC	0	1	08RD 15RO	1	0	0.959527015686	94.0	-111.0	95	-108	1
2.7	2015_May_19_1651	s	s	12	2	Capacity	46	ABS	0	1	08RD 16RO	0	1	3.48349285126	None	None	None	None	1
2.7	2015_May_19_1651	s	s	12	2	Capacity	47	RC	0	2	15RD 08RO	1	0	1.0001001358	-498.0	-387.0	-494	-393	1
2.7	2015_May_19_1651	s	s	12	2	Capacity	48	ABS	0	2	16RD 08RO	0	1	1.92412114143	None	None	None	None	1
2.7	2015_May_19_1651	s	s	12	2	Capacity	49	RC	0	1	08RD 15RO	1	0	0.806647062302	-30.0	106.0	-27	108	1
2.7	2015_May_19_1651	s	s	12	2	Capacity	50	ABS	0	2	16RD 08RO	0	1	2.25423002243	None	None	None	None	1
2.7	2015_May_19_1651	s	s	12	2	Capacity	51	RC	0	2	15RD 08RO	1	0	2.26609706879	419.0	174.0	424	176	1
2.7	2015_May_19_1651	s	s	12	2	Capacity	52	ABS	0	1	08RD 16RO	0	1	3.61311101913	None	None	None	None	1
2.7	2015_May_19_1651	s	s	12	2	Capacity	53	ABS	0	2	16RD 08RO	0	1	2.74193501472	None	None	None	None	1
2.7	2015_May_19_1651	s	s	12	2	Capacity	54	RC	0	1	08RD 15RO	1	0	0.807275056839	-172.0	158.0	-165	157	1
2.7	2015_May_19_1651	s	s	12	2	Capacity	55	ABS	0	1	08RD 16RO	0	1	4.61043691635	None	None	None	None	1
2.7	2015_May_19_1651	s	s	12	2	Capacity	56	RC	0	2	15RD 08RO	1	0	2.14857006073	155.0	299.0	159	303	1
2.7	2015_May_19_1651	s	s	12	2	Capacity	57	ABS	0	2	16RD 08RO	0	1	2.13901495934	None	None	None	None	1
2.7	2015_May_19_1651	s	s	12	2	Capacity	58	RC	0	1	08RD 15RO	0	1	3.38465189934	29.0	-93.0	None	None	0
2.7	2015_May_19_1651	s	s	12	2	Capacity	59	RC	0	2	15RD 08RO	1	0	1.00610518456	120.0	-292.0	130	-292	1
2.7	2015_May_19_1651	s	s	12	2	Capacity	60	ABS	0	1	08RD 16RO	0	1	3.78962302208	None	None	None	None	1
2.7	2015_May_19_1651	s	s	12	2	Capacity	61	RC	0	1	08RD 15RO	1	0	2.98422193527	110.0	66.0	119	70	1
2.7	2015_May_19_1651	s	s	12	2	Capacity	62	ABS	0	2	16RD 08RO	0	1	2.91850090027	None	None	None	None	1
2.7	2015_May_19_1651	s	s	12	2	Capacity	63	RC	0	2	15RD 08RO	1	0	1.15283489227	-356.0	165.0	-360	168	1
2.7	2015_May_19_1651	s	s	12	2	Capacity	64	ABS	0	1	08RD 16RO	0	1	4.89595198631	None	None	None	None	1
2.7	2015_May_19_1651	s	s	12	2	Capacity	1	ABS	1	0	08VC 16MC	0	1	2.00689721107	None	None	None	None	1
2.7	2015_May_19_1651	s	s	12	2	Capacity	2	RC	2	0	15VC 08MC	1	0	0.870406150818	-177.0	396.0	-180	397	1
2.7	2015_May_19_1651	s	s	12	2	Capacity	3	RC	1	0	08VC 15MC	1	0	0.806703090668	-131.0	-377.0	-128	-372	1
2.7	2015_May_19_1651	s	s	12	2	Capacity	4	ABS	2	0	16VC 08MC	0	1	1.97683095932	None	None	None	None	1
2.7	2015_May_19_1651	s	s	12	2	Capacity	5	ABS	1	0	08VC 16MC	0	1	1.38332605362	None	None	None	None	1
2.7	2015_May_19_1651	s	s	12	2	Capacity	6	RC	1	0	08VC 15MC	1	0	1.28221201897	159.0	-153.0	164	-156	1
2.7	2015_May_19_1651	s	s	12	2	Capacity	7	ABS	2	0	16VC 08MC	0	1	1.61861896515	None	None	None	None	1
2.7	2015_May_19_1651	s	s	12	2	Capacity	8	RC	2	0	15VC 08MC	1	0	0.771347999573	-482.0	-150.0	-476	-144	1
2.7	2015_May_19_1651	s	s	12	2	Capacity	9	RC	1	0	08VC 15MC	1	0	1.7767431736	344.0	375.0	349	373	1
2.7	2015_May_19_1651	s	s	12	2	Capacity	10	ABS	1	0	08VC 16MC	0	1	2.39562392235	None	None	None	None	1
2.7	2015_May_19_1651	s	s	12	2	Capacity	11	RC	2	0	15VC 08MC	1	0	0.818371772766	-30.0	389.0	-23	390	1
2.7	2015_May_19_1651	s	s	12	2	Capacity	12	ABS	2	0	16VC 08MC	0	1	2.44783210754	None	None	None	None	1
2.7	2015_May_19_1651	s	s	12	2	Capacity	13	ABS	2	0	16VC 08MC	0	1	1.62419390678	None	None	None	None	1
2.7	2015_May_19_1651	s	s	12	2	Capacity	14	RC	1	0	08VC 15MC	1	0	0.811774969101	-123.0	261.0	-126	259	1
2.7	2015_May_19_1651	s	s	12	2	Capacity	15	RC	2	0	15VC 08MC	1	0	0.712369918823	-388.0	-170.0	-382	-173	1
2.7	2015_May_19_1651	s	s	12	2	Capacity	16	ABS	1	0	08VC 16MC	0	1	1.82379317284	None	None	None	None	1
2.7	2015_May_19_1651	s	s	12	2	Capacity	17	RC	1	0	08VC 15MC	1	0	0.771192073822	253.0	44.0	263	45	1
2.7	2015_May_19_1651	s	s	12	2	Capacity	18	ABS	2	0	16VC 08MC	0	1	2.16018795967	None	None	None	None	1
2.7	2015_May_19_1651	s	s	12	2	Capacity	19	ABS	1	0	08VC 16MC	0	1	2.71838998795	None	None	None	None	1
2.7	2015_May_19_1651	s	s	12	2	Capacity	20	RC	2	0	15VC 08MC	1	0	0.835103988647	251.0	-399.0	253	-399	1
2.7	2015_May_19_1651	s	s	12	2	Capacity	21	RC	2	0	15VC 08MC	1	0	0.877274990082	-483.0	256.0	-479	259	1
2.7	2015_May_19_1651	s	s	12	2	Capacity	22	ABS	2	0	16VC 08MC	0	1	1.83162212372	None	None	None	None	1
2.7	2015_May_19_1651	s	s	12	2	Capacity	23	ABS	1	0	08VC 16MC	0	1	1.9482550621	None	None	None	None	1
2.7	2015_May_19_1651	s	s	12	2	Capacity	24	RC	1	0	08VC 15MC	1	0	0.511482000351	-326.0	121.0	-321	117	1
2.7	2015_May_19_1651	s	s	12	2	Capacity	25	RC	2	0	15VC 08MC	1	0	1.42374205589	532.0	157.0	531	148	1
2.7	2015_May_19_1651	s	s	12	2	Capacity	26	ABS	2	0	16VC 08MC	0	1	2.20759701729	None	None	None	None	1
2.7	2015_May_19_1651	s	s	12	2	Capacity	27	ABS	1	0	08VC 16MC	0	1	2.18394708633	None	None	None	None	1
2.7	2015_May_19_1651	s	s	12	2	Capacity	28	RC	1	0	08VC 15MC	1	0	0.576564073563	-473.0	26.0	-469	22	1
2.7	2015_May_19_1651	s	s	12	2	Capacity	29	RC	2	0	15VC 08MC	1	0	0.700643062592	261.0	-106.0	266	-111	1
2.7	2015_May_19_1651	s	s	12	2	Capacity	30	RC	1	0	08VC 15MC	1	0	0.61856007576	373.0	-15.0	365	-17	1
2.7	2015_May_19_1651	s	s	12	2	Capacity	31	ABS	1	0	08VC 16MC	0	1	2.17701792717	None	None	None	None	1
2.7	2015_May_19_1651	s	s	12	2	Capacity	32	ABS	2	0	16VC 08MC	0	1	2.16558384895	None	None	None	None	1
2.7	2015_May_19_1651	s	s	12	2	Capacity	33	ABS	2	0	16VC 08MC	0	1	1.58881998062	None	None	None	None	1
2.7	2015_May_19_1651	s	s	12	2	Capacity	34	ABS	1	0	08VC 16MC	0	1	2.50182700157	None	None	None	None	1
2.7	2015_May_19_1651	s	s	12	2	Capacity	35	RC	2	0	15VC 08MC	1	0	0.830467939377	-432.0	-121.0	-429	-129	1
2.7	2015_May_19_1651	s	s	12	2	Capacity	36	RC	1	0	08VC 15MC	1	0	0.811547994614	-458.0	-328.0	-456	-328	1
2.7	2015_May_19_1651	s	s	12	2	Capacity	37	RC	2	0	15VC 08MC	1	0	0.540902853012	349.0	156.0	349	151	1
2.7	2015_May_19_1651	s	s	12	2	Capacity	38	ABS	1	0	08VC 16MC	0	1	1.98358607292	None	None	None	None	1
2.7	2015_May_19_1651	s	s	12	2	Capacity	39	RC	1	0	08VC 15MC	1	0	0.573844909668	-159.0	126.0	-152	121	1
2.7	2015_May_19_1651	s	s	12	2	Capacity	40	ABS	2	0	16VC 08MC	0	1	1.09399199486	None	None	None	None	1
2.7	2015_May_19_1651	s	s	12	2	Capacity	41	RC	1	0	08VC 15MC	1	0	0.47704410553	0.0	-44.0	-1	-42	1
2.7	2015_May_19_1651	s	s	12	2	Capacity	42	ABS	2	0	16VC 08MC	0	1	1.66442394257	None	None	None	None	1
2.7	2015_May_19_1651	s	s	12	2	Capacity	43	ABS	1	0	08VC 16MC	0	1	1.54800200462	None	None	None	None	1
2.7	2015_May_19_1651	s	s	12	2	Capacity	44	RC	2	0	15VC 08MC	1	0	0.576148986816	-83.0	109.0	-80	105	1
2.7	2015_May_19_1651	s	s	12	2	Capacity	45	ABS	2	0	16VC 08MC	0	1	1.53907203674	None	None	None	None	1
2.7	2015_May_19_1651	s	s	12	2	Capacity	46	RC	1	0	08VC 15MC	1	0	1.6305770874	413.0	394.0	409	396	1
2.7	2015_May_19_1651	s	s	12	2	Capacity	47	ABS	1	0	08VC 16MC	0	1	1.68947005272	None	None	None	None	1
2.7	2015_May_19_1651	s	s	12	2	Capacity	48	RC	2	0	15VC 08MC	0	1	1.57161998749	493.0	-380.0	None	None	0
2.7	2015_May_19_1651	s	s	12	2	Capacity	49	ABS	1	0	08VC 16MC	0	1	1.90614914894	None	None	None	None	1
2.7	2015_May_19_1651	s	s	12	2	Capacity	50	RC	1	0	08VC 15MC	1	0	0.78316617012	455.0	-98.0	461	-100	1
2.7	2015_May_19_1651	s	s	12	2	Capacity	51	RC	2	0	15VC 08MC	1	0	0.670269012451	335.0	75.0	335	76	1
2.7	2015_May_19_1651	s	s	12	2	Capacity	52	ABS	2	0	16VC 08MC	0	1	1.41185307503	None	None	None	None	1
2.7	2015_May_19_1651	s	s	12	2	Capacity	53	ABS	1	0	08VC 16MC	0	1	2.18468213081	None	None	None	None	1
2.7	2015_May_19_1651	s	s	12	2	Capacity	54	RC	2	0	15VC 08MC	1	0	1.17310786247	-410.0	-351.0	-409	-353	1
2.7	2015_May_19_1651	s	s	12	2	Capacity	55	ABS	2	0	16VC 08MC	0	1	1.63080501556	None	None	None	None	1
2.7	2015_May_19_1651	s	s	12	2	Capacity	56	RC	1	0	08VC 15MC	1	0	0.72918009758	265.0	318.0	271	312	1
2.7	2015_May_19_1651	s	s	12	2	Capacity	57	ABS	2	0	16VC 08MC	0	1	1.97195696831	None	None	None	None	1
2.7	2015_May_19_1651	s	s	12	2	Capacity	58	ABS	1	0	08VC 16MC	0	1	1.7952299118	None	None	None	None	1
2.7	2015_May_19_1651	s	s	12	2	Capacity	59	RC	1	0	08VC 15MC	1	0	1.29419589043	321.0	-280.0	320	-287	1
2.7	2015_May_19_1651	s	s	12	2	Capacity	60	RC	2	0	15VC 08MC	1	0	0.999845981598	-431.0	-72.0	-433	-80	1
2.7	2015_May_19_1651	s	s	12	2	Capacity	61	RC	1	0	08VC 15MC	1	0	1.27061700821	-266.0	69.0	-271	67	1
2.7	2015_May_19_1651	s	s	12	2	Capacity	62	ABS	1	0	08VC 16MC	0	1	2.02065706253	None	None	None	None	1
2.7	2015_May_19_1651	s	s	12	2	Capacity	63	ABS	2	0	16VC 08MC	0	1	1.9625351429	None	None	None	None	1
2.7	2015_May_19_1651	s	s	12	2	Capacity	64	RC	2	0	15VC 08MC	1	0	0.811579942703	180.0	-191.0	190	-192	1
2.7	2015_May_19_1651	s	s	12	2	SIC	1	RC	1	2	02VD 02VO 02VC 09MD 02MO 02MC 02RD 02RO	1	0	0.618290901184	-215.0	-308.0	-211	-307	1
2.7	2015_May_19_1651	s	s	12	2	SIC	2	ABS	1	1	02VD 02VO 02VC 02MD 10MO 02MC 02RD 02RO	0	1	2.62418103218	None	None	None	None	1
2.7	2015_May_19_1651	s	s	12	2	SIC	3	RC	0	2	02VD 02VO 02VC 02MD 02MO 02MC 09RD 02RO	1	0	1.23069500923	53.0	407.0	52	409	1
2.7	2015_May_19_1651	s	s	12	2	SIC	4	ABS	2	0	02VD 02VO 10VC 02MD 02MO 02MC 02RD 02RO	0	1	2.21221613884	None	None	None	None	1
2.7	2015_May_19_1651	s	s	12	2	SIC	5	RC	2	0	02VD 02VO 09VC 02MD 02MO 02MC 02RD 02RO	1	0	0.65528678894	-466.0	23.0	-466	25	1
2.7	2015_May_19_1651	s	s	12	2	SIC	6	ABS	1	0	02VD 02VO 02VC 02MD 02MO 10MC 02RD 02RO	0	1	2.31818604469	None	None	None	None	1
2.7	2015_May_19_1651	s	s	12	2	SIC	7	ABS	2	1	02VD 10VO 02VC 02MD 02MO 02MC 02RD 02RO	0	1	1.51294398308	None	None	None	None	1
2.7	2015_May_19_1651	s	s	12	2	SIC	8	RC	1	1	02VD 02VO 02VC 02MD 09MO 02MC 02RD 02RO	1	0	0.73580288887	16.0	293.0	7	292	1
2.7	2015_May_19_1651	s	s	12	2	SIC	9	ABS	2	2	10VD 02VO 02VC 02MD 02MO 02MC 02RD 02RO	0	1	1.78855419159	None	None	None	None	1
2.7	2015_May_19_1651	s	s	12	2	SIC	10	ABS	1	2	02VD 02VO 02VC 10MD 02MO 02MC 02RD 02RO	0	1	1.65905308723	None	None	None	None	1
2.7	2015_May_19_1651	s	s	12	2	SIC	11	ABS	0	1	02VD 02VO 02VC 02MD 02MO 02MC 02RD 10RO	0	1	3.11855006218	None	None	None	None	1
2.7	2015_May_19_1651	s	s	12	2	SIC	12	RC	2	2	09VD 02VO 02VC 02MD 02MO 02MC 02RD 02RO	1	0	1.41847109795	61.0	-325.0	65	-331	1
2.7	2015_May_19_1651	s	s	12	2	SIC	13	RC	1	0	02VD 02VO 02VC 02MD 02MO 09MC 02RD 02RO	1	0	0.776235103607	-287.0	157.0	-281	161	1
2.7	2015_May_19_1651	s	s	12	2	SIC	14	RC	0	1	02VD 02VO 02VC 02MD 02MO 02MC 02RD 09RO	1	0	0.917598009109	-248.0	360.0	-248	353	1
2.7	2015_May_19_1651	s	s	12	2	SIC	15	RC	2	1	02VD 09VO 02VC 02MD 02MO 02MC 02RD 02RO	1	0	0.493625164032	-179.0	186.0	-174	181	1
2.7	2015_May_19_1651	s	s	12	2	SIC	16	ABS	0	2	02VD 02VO 02VC 02MD 02MO 02MC 10RD 02RO	0	1	1.83283495903	None	None	None	None	1
2.7	2015_May_19_1651	s	s	12	2	SIC	17	ABS	1	0	02VD 02VO 02VC 02MD 02MO 10MC 02RD 02RO	0	1	2.5771188736	None	None	None	None	1
2.7	2015_May_19_1651	s	s	12	2	SIC	18	ABS	2	0	02VD 02VO 10VC 02MD 02MO 02MC 02RD 02RO	0	1	1.60798811913	None	None	None	None	1
2.7	2015_May_19_1651	s	s	12	2	SIC	19	ABS	1	2	02VD 02VO 02VC 10MD 02MO 02MC 02RD 02RO	0	1	1.72475099564	None	None	None	None	1
2.7	2015_May_19_1651	s	s	12	2	SIC	20	RC	1	2	02VD 02VO 02VC 09MD 02MO 02MC 02RD 02RO	1	0	1.23571395874	310.0	-104.0	313	-104	1
2.7	2015_May_19_1651	s	s	12	2	SIC	21	ABS	0	1	02VD 02VO 02VC 02MD 02MO 02MC 02RD 10RO	0	1	2.97497200966	None	None	None	None	1
2.7	2015_May_19_1651	s	s	12	2	SIC	22	ABS	1	1	02VD 02VO 02VC 02MD 10MO 02MC 02RD 02RO	0	1	1.98860311508	None	None	None	None	1
2.7	2015_May_19_1651	s	s	12	2	SIC	23	RC	1	1	02VD 02VO 02VC 02MD 09MO 02MC 02RD 02RO	1	0	1.74516916275	404.0	56.0	407	53	1
2.7	2015_May_19_1651	s	s	12	2	SIC	24	RC	2	1	02VD 09VO 02VC 02MD 02MO 02MC 02RD 02RO	1	0	1.51148819923	-481.0	320.0	-484	317	1
2.7	2015_May_19_1651	s	s	12	2	SIC	25	ABS	0	2	02VD 02VO 02VC 02MD 02MO 02MC 10RD 02RO	0	1	1.74140310287	None	None	None	None	1
2.7	2015_May_19_1651	s	s	12	2	SIC	26	RC	2	0	02VD 02VO 09VC 02MD 02MO 02MC 02RD 02RO	1	0	0.752727031708	-420.0	47.0	-416	48	1
2.7	2015_May_19_1651	s	s	12	2	SIC	27	RC	0	1	02VD 02VO 02VC 02MD 02MO 02MC 02RD 09RO	1	0	0.729182004929	-249.0	-131.0	-252	-132	1
2.7	2015_May_19_1651	s	s	12	2	SIC	28	RC	2	2	09VD 02VO 02VC 02MD 02MO 02MC 02RD 02RO	1	0	0.606680870056	-23.0	168.0	-23	163	1
2.7	2015_May_19_1651	s	s	12	2	SIC	29	ABS	2	2	10VD 02VO 02VC 02MD 02MO 02MC 02RD 02RO	0	1	1.60018515587	None	None	None	None	1
2.7	2015_May_19_1651	s	s	12	2	SIC	30	ABS	2	1	02VD 10VO 02VC 02MD 02MO 02MC 02RD 02RO	0	1	1.27060413361	None	None	None	None	1
2.7	2015_May_19_1651	s	s	12	2	SIC	31	RC	1	0	02VD 02VO 02VC 02MD 02MO 09MC 02RD 02RO	1	0	1.41863799095	-509.0	-171.0	-511	-177	1
2.7	2015_May_19_1651	s	s	12	2	SIC	32	RC	0	2	02VD 02VO 02VC 02MD 02MO 02MC 09RD 02RO	1	0	0.764448881149	-384.0	-130.0	-386	-129	1
2.7	2015_May_19_1651	s	s	12	2	SIC	33	ABS	1	2	02VD 02VO 02VC 10MD 02MO 02MC 02RD 02RO	0	1	1.87779593468	None	None	None	None	1
2.7	2015_May_19_1651	s	s	12	2	SIC	34	ABS	0	2	02VD 02VO 02VC 02MD 02MO 02MC 10RD 02RO	0	1	2.51445102692	None	None	None	None	1
2.7	2015_May_19_1651	s	s	12	2	SIC	35	RC	1	0	02VD 02VO 02VC 02MD 02MO 09MC 02RD 02RO	1	0	1.47744393349	403.0	375.0	407	374	1
2.7	2015_May_19_1651	s	s	12	2	SIC	36	ABS	1	0	02VD 02VO 02VC 02MD 02MO 10MC 02RD 02RO	0	1	2.56914186478	None	None	None	None	1
2.7	2015_May_19_1651	s	s	12	2	SIC	37	ABS	2	2	10VD 02VO 02VC 02MD 02MO 02MC 02RD 02RO	0	1	1.27662491798	None	None	None	None	1
2.7	2015_May_19_1651	s	s	12	2	SIC	38	RC	0	2	02VD 02VO 02VC 02MD 02MO 02MC 09RD 02RO	1	0	0.893929958344	-286.0	-220.0	-278	-219	1
2.7	2015_May_19_1651	s	s	12	2	SIC	39	ABS	2	0	02VD 02VO 10VC 02MD 02MO 02MC 02RD 02RO	0	1	1.59215903282	None	None	None	None	1
2.7	2015_May_19_1651	s	s	12	2	SIC	40	RC	2	2	09VD 02VO 02VC 02MD 02MO 02MC 02RD 02RO	1	0	1.39465689659	419.0	145.0	418	143	1
2.7	2015_May_19_1651	s	s	12	2	SIC	41	RC	1	1	02VD 02VO 02VC 02MD 09MO 02MC 02RD 02RO	1	0	2.10140895844	448.0	395.0	451	394	1
2.7	2015_May_19_1651	s	s	12	2	SIC	42	RC	2	0	02VD 02VO 09VC 02MD 02MO 02MC 02RD 02RO	1	0	0.717343091965	233.0	-170.0	225	-174	1
2.7	2015_May_19_1651	s	s	12	2	SIC	43	RC	1	2	02VD 02VO 02VC 09MD 02MO 02MC 02RD 02RO	1	0	0.865544080734	-297.0	90.0	-301	90	1
2.7	2015_May_19_1651	s	s	12	2	SIC	44	ABS	2	1	02VD 10VO 02VC 02MD 02MO 02MC 02RD 02RO	0	1	1.86283302307	None	None	None	None	1
2.7	2015_May_19_1651	s	s	12	2	SIC	45	RC	2	1	02VD 09VO 02VC 02MD 02MO 02MC 02RD 02RO	1	0	0.785711050034	93.0	-4.0	101	2	1
2.7	2015_May_19_1651	s	s	12	2	SIC	46	ABS	1	1	02VD 02VO 02VC 02MD 10MO 02MC 02RD 02RO	0	1	1.87143683434	None	None	None	None	1
2.7	2015_May_19_1651	s	s	12	2	SIC	47	ABS	0	1	02VD 02VO 02VC 02MD 02MO 02MC 02RD 10RO	0	1	2.67122888565	None	None	None	None	1
2.7	2015_May_19_1651	s	s	12	2	SIC	48	RC	0	1	02VD 02VO 02VC 02MD 02MO 02MC 02RD 09RO	1	0	0.988542079926	172.0	171.0	173	165	1
2.7	2015_May_19_1651	s	s	12	2	SIC	49	ABS	1	1	02VD 02VO 02VC 02MD 10MO 02MC 02RD 02RO	0	1	1.76498484612	None	None	None	None	1
2.7	2015_May_19_1651	s	s	12	2	SIC	50	RC	1	1	02VD 02VO 02VC 02MD 09MO 02MC 02RD 02RO	1	0	1.52951622009	259.0	-176.0	263	-180	1
2.7	2015_May_19_1651	s	s	12	2	SIC	51	RC	2	0	02VD 02VO 09VC 02MD 02MO 02MC 02RD 02RO	1	0	1.94677686691	-3.0	339.0	-8	330	1
2.7	2015_May_19_1651	s	s	12	2	SIC	52	ABS	0	1	02VD 02VO 02VC 02MD 02MO 02MC 02RD 10RO	0	1	3.17246603966	None	None	None	None	1
2.7	2015_May_19_1651	s	s	12	2	SIC	53	RC	0	1	02VD 02VO 02VC 02MD 02MO 02MC 02RD 09RO	1	0	1.67085313797	387.0	-324.0	390	-324	1
2.7	2015_May_19_1651	s	s	12	2	SIC	54	ABS	2	0	02VD 02VO 10VC 02MD 02MO 02MC 02RD 02RO	0	1	1.40006995201	None	None	None	None	1
2.7	2015_May_19_1651	s	s	12	2	SIC	55	ABS	2	2	10VD 02VO 02VC 02MD 02MO 02MC 02RD 02RO	0	1	1.98227787018	None	None	None	None	1
2.7	2015_May_19_1651	s	s	12	2	SIC	56	ABS	2	1	02VD 10VO 02VC 02MD 02MO 02MC 02RD 02RO	0	1	1.94828510284	None	None	None	None	1
2.7	2015_May_19_1651	s	s	12	2	SIC	57	RC	2	2	09VD 02VO 02VC 02MD 02MO 02MC 02RD 02RO	1	0	0.983344078064	447.0	-192.0	451	-196	1
2.7	2015_May_19_1651	s	s	12	2	SIC	58	RC	1	0	02VD 02VO 02VC 02MD 02MO 09MC 02RD 02RO	1	0	1.12940597534	-394.0	213.0	-392	212	1
2.7	2015_May_19_1651	s	s	12	2	SIC	59	ABS	0	2	02VD 02VO 02VC 02MD 02MO 02MC 10RD 02RO	0	1	1.71472287178	None	None	None	None	1
2.7	2015_May_19_1651	s	s	12	2	SIC	60	RC	2	1	02VD 09VO 02VC 02MD 02MO 02MC 02RD 02RO	1	0	0.693784952164	110.0	-206.0	108	-200	1
2.7	2015_May_19_1651	s	s	12	2	SIC	61	ABS	1	2	02VD 02VO 02VC 10MD 02MO 02MC 02RD 02RO	0	1	1.30589604378	None	None	None	None	1
2.7	2015_May_19_1651	s	s	12	2	SIC	62	RC	0	2	02VD 02VO 02VC 02MD 02MO 02MC 09RD 02RO	1	0	1.512830019	461.0	-222.0	467	-231	1
2.7	2015_May_19_1651	s	s	12	2	SIC	63	ABS	1	0	02VD 02VO 02VC 02MD 02MO 10MC 02RD 02RO	0	1	2.36021995544	None	None	None	None	1
2.7	2015_May_19_1651	s	s	12	2	SIC	64	RC	1	2	02VD 02VO 02VC 09MD 02MO 02MC 02RD 02RO	1	0	1.29417991638	-482.0	-358.0	-479	-364	1
2.7	2015_May_19_1651	s	s	12	2	SIC	65	ABS	2	1	02VD 10VO 02VC 02MD 02MO 02MC 02RD 02RO	0	1	1.25400900841	None	None	None	None	1
2.7	2015_May_19_1651	s	s	12	2	SIC	66	RC	1	0	02VD 02VO 02VC 02MD 02MO 09MC 02RD 02RO	1	0	0.725521087646	-150.0	159.0	-156	159	1
2.7	2015_May_19_1651	s	s	12	2	SIC	67	RC	2	1	02VD 09VO 02VC 02MD 02MO 02MC 02RD 02RO	1	0	1.7413918972	-299.0	404.0	-301	400	1
2.7	2015_May_19_1651	s	s	12	2	SIC	68	RC	0	2	02VD 02VO 02VC 02MD 02MO 02MC 09RD 02RO	1	0	0.971560955048	-227.0	-88.0	-217	-89	1
2.7	2015_May_19_1651	s	s	12	2	SIC	69	RC	2	0	02VD 02VO 09VC 02MD 02MO 02MC 02RD 02RO	1	0	1.21889591217	396.0	-39.0	386	-40	1
2.7	2015_May_19_1651	s	s	12	2	SIC	70	RC	0	1	02VD 02VO 02VC 02MD 02MO 02MC 02RD 09RO	1	0	0.79979801178	-74.0	4.0	-64	5	1
2.7	2015_May_19_1651	s	s	12	2	SIC	71	RC	2	2	09VD 02VO 02VC 02MD 02MO 02MC 02RD 02RO	1	0	1.77346110344	14.0	-410.0	12	-411	1
2.7	2015_May_19_1651	s	s	12	2	SIC	72	ABS	0	2	02VD 02VO 02VC 02MD 02MO 02MC 10RD 02RO	0	1	2.05921816826	None	None	None	None	1
2.7	2015_May_19_1651	s	s	12	2	SIC	73	RC	1	1	02VD 02VO 02VC 02MD 09MO 02MC 02RD 02RO	1	0	0.548449993134	-178.0	196.0	-175	188	1
2.7	2015_May_19_1651	s	s	12	2	SIC	74	ABS	1	0	02VD 02VO 02VC 02MD 02MO 10MC 02RD 02RO	0	1	2.96550583839	None	None	None	None	1
2.7	2015_May_19_1651	s	s	12	2	SIC	75	ABS	1	1	02VD 02VO 02VC 02MD 10MO 02MC 02RD 02RO	0	1	2.53548502922	None	None	None	None	1
2.7	2015_May_19_1651	s	s	12	2	SIC	76	ABS	1	2	02VD 02VO 02VC 10MD 02MO 02MC 02RD 02RO	0	1	2.11312294006	None	None	None	None	1
2.7	2015_May_19_1651	s	s	12	2	SIC	77	RC	1	2	02VD 02VO 02VC 09MD 02MO 02MC 02RD 02RO	1	0	0.870344161987	-472.0	14.0	-462	16	1
2.7	2015_May_19_1651	s	s	12	2	SIC	78	ABS	0	1	02VD 02VO 02VC 02MD 02MO 02MC 02RD 10RO	0	1	2.106539011	None	None	None	None	1
2.7	2015_May_19_1651	s	s	12	2	SIC	79	ABS	2	0	02VD 02VO 10VC 02MD 02MO 02MC 02RD 02RO	0	1	2.04383921623	None	None	None	None	1
2.7	2015_May_19_1651	s	s	12	2	SIC	80	ABS	2	2	10VD 02VO 02VC 02MD 02MO 02MC 02RD 02RO	0	1	1.3765001297	None	None	None	None	1
2.7	2015_May_19_1651	s	s	12	2	SIC	81	ABS	0	1	02VD 02VO 02VC 02MD 02MO 02MC 02RD 10RO	0	1	3.34912991524	None	None	None	None	1
2.7	2015_May_19_1651	s	s	12	2	SIC	82	ABS	2	2	10VD 02VO 02VC 02MD 02MO 02MC 02RD 02RO	0	1	1.80022311211	None	None	None	None	1
2.7	2015_May_19_1651	s	s	12	2	SIC	83	RC	0	1	02VD 02VO 02VC 02MD 02MO 02MC 02RD 09RO	1	0	1.2671558857	-329.0	-231.0	-320	-228	1
2.7	2015_May_19_1651	s	s	12	2	SIC	84	RC	0	2	02VD 02VO 02VC 02MD 02MO 02MC 09RD 02RO	1	0	1.34778094292	504.0	317.0	513	322	1
2.7	2015_May_19_1651	s	s	12	2	SIC	85	RC	2	2	09VD 02VO 02VC 02MD 02MO 02MC 02RD 02RO	1	0	1.32449507713	-391.0	172.0	-388	168	1
2.7	2015_May_19_1651	s	s	12	2	SIC	86	ABS	0	2	02VD 02VO 02VC 02MD 02MO 02MC 10RD 02RO	0	1	2.67834210396	None	None	None	None	1
2.7	2015_May_19_1651	s	s	12	2	SIC	87	ABS	1	0	02VD 02VO 02VC 02MD 02MO 10MC 02RD 02RO	0	1	1.9951710701	None	None	None	None	1
2.7	2015_May_19_1651	s	s	12	2	SIC	88	ABS	1	2	02VD 02VO 02VC 10MD 02MO 02MC 02RD 02RO	0	1	1.40679597855	None	None	None	None	1
2.7	2015_May_19_1651	s	s	12	2	SIC	89	ABS	1	1	02VD 02VO 02VC 02MD 10MO 02MC 02RD 02RO	0	1	1.94157791138	None	None	None	None	1
2.7	2015_May_19_1651	s	s	12	2	SIC	90	RC	2	1	02VD 09VO 02VC 02MD 02MO 02MC 02RD 02RO	1	0	1.56002521515	-535.0	404.0	-537	402	1
2.7	2015_May_19_1651	s	s	12	2	SIC	91	RC	1	0	02VD 02VO 02VC 02MD 02MO 09MC 02RD 02RO	1	0	0.677490949631	-125.0	-101.0	-113	-100	1
2.7	2015_May_19_1651	s	s	12	2	SIC	92	RC	1	1	02VD 02VO 02VC 02MD 09MO 02MC 02RD 02RO	1	0	1.82376194	514.0	274.0	518	277	1
2.7	2015_May_19_1651	s	s	12	2	SIC	93	RC	2	0	02VD 02VO 09VC 02MD 02MO 02MC 02RD 02RO	1	0	0.653721094131	-112.0	-163.0	-113	-170	1
2.7	2015_May_19_1651	s	s	12	2	SIC	94	RC	1	2	02VD 02VO 02VC 09MD 02MO 02MC 02RD 02RO	1	0	0.655979156494	-198.0	57.0	-193	54	1
2.7	2015_May_19_1651	s	s	12	2	SIC	95	ABS	2	1	02VD 10VO 02VC 02MD 02MO 02MC 02RD 02RO	1	0	1.72629714012	None	None	11	2	0
2.7	2015_May_19_1651	s	s	12	2	SIC	96	ABS	2	0	02VD 02VO 10VC 02MD 02MO 02MC 02RD 02RO	0	1	2.30146718025	None	None	None	None	1
2.7	2015_May_19_1651	s	s	12	2	SIC	97	ABS	2	2	10VD 02VO 02VC 02MD 02MO 02MC 02RD 02RO	0	1	1.76549983025	None	None	None	None	1
2.7	2015_May_19_1651	s	s	12	2	SIC	98	ABS	0	1	02VD 02VO 02VC 02MD 02MO 02MC 02RD 10RO	0	1	3.01263999939	None	None	None	None	1
2.7	2015_May_19_1651	s	s	12	2	SIC	99	RC	1	1	02VD 02VO 02VC 02MD 09MO 02MC 02RD 02RO	1	0	1.01167702675	-535.0	54.0	-541	60	1
2.7	2015_May_19_1651	s	s	12	2	SIC	100	RC	1	2	02VD 02VO 02VC 09MD 02MO 02MC 02RD 02RO	1	0	0.681942939758	114.0	-294.0	114	-294	1
2.7	2015_May_19_1651	s	s	12	2	SIC	101	RC	0	2	02VD 02VO 02VC 02MD 02MO 02MC 09RD 02RO	1	0	1.05877900124	-321.0	-36.0	-319	-41	1
2.7	2015_May_19_1651	s	s	12	2	SIC	102	RC	1	0	02VD 02VO 02VC 02MD 02MO 09MC 02RD 02RO	1	0	1.0822660923	166.0	-194.0	164	-197	1
2.7	2015_May_19_1651	s	s	12	2	SIC	103	RC	2	2	09VD 02VO 02VC 02MD 02MO 02MC 02RD 02RO	1	0	0.917400836945	122.0	-262.0	129	-265	1
2.7	2015_May_19_1651	s	s	12	2	SIC	104	RC	2	1	02VD 09VO 02VC 02MD 02MO 02MC 02RD 02RO	1	0	0.747488021851	386.0	51.0	391	50	1
2.7	2015_May_19_1651	s	s	12	2	SIC	105	RC	2	0	02VD 02VO 09VC 02MD 02MO 02MC 02RD 02RO	1	0	0.988062858582	122.0	-216.0	124	-214	1
2.7	2015_May_19_1651	s	s	12	2	SIC	106	ABS	1	1	02VD 02VO 02VC 02MD 10MO 02MC 02RD 02RO	0	1	2.20818376541	None	None	None	None	1
2.7	2015_May_19_1651	s	s	12	2	SIC	107	ABS	1	2	02VD 02VO 02VC 10MD 02MO 02MC 02RD 02RO	0	1	1.75319695473	None	None	None	None	1
2.7	2015_May_19_1651	s	s	12	2	SIC	108	RC	0	1	02VD 02VO 02VC 02MD 02MO 02MC 02RD 09RO	1	0	0.788007974625	-140.0	-209.0	-138	-210	1
2.7	2015_May_19_1651	s	s	12	2	SIC	109	ABS	0	2	02VD 02VO 02VC 02MD 02MO 02MC 10RD 02RO	0	1	1.92688703537	None	None	None	None	1
2.7	2015_May_19_1651	s	s	12	2	SIC	110	ABS	1	0	02VD 02VO 02VC 02MD 02MO 10MC 02RD 02RO	0	1	1.92978596687	None	None	None	None	1
2.7	2015_May_19_1651	s	s	12	2	SIC	111	ABS	2	0	02VD 02VO 10VC 02MD 02MO 02MC 02RD 02RO	0	1	2.24296188354	None	None	None	None	1
2.7	2015_May_19_1651	s	s	12	2	SIC	112	ABS	2	1	02VD 10VO 02VC 02MD 02MO 02MC 02RD 02RO	0	1	1.32662510872	None	None	None	None	1
2.7	2015_May_19_1651	s	s	12	2	SIC	113	ABS	0	2	02VD 02VO 02VC 02MD 02MO 02MC 10RD 02RO	0	1	1.86634993553	None	None	None	None	1
2.7	2015_May_19_1651	s	s	12	2	SIC	114	ABS	2	0	02VD 02VO 10VC 02MD 02MO 02MC 02RD 02RO	0	1	1.47770500183	None	None	None	None	1
2.7	2015_May_19_1651	s	s	12	2	SIC	115	RC	1	0	02VD 02VO 02VC 02MD 02MO 09MC 02RD 02RO	1	0	0.535305976868	-66.0	9.0	-56	17	1
2.7	2015_May_19_1651	s	s	12	2	SIC	116	RC	0	1	02VD 02VO 02VC 02MD 02MO 02MC 02RD 09RO	1	0	1.89445185661	-109.0	403.0	-104	402	1
2.7	2015_May_19_1651	s	s	12	2	SIC	117	ABS	0	1	02VD 02VO 02VC 02MD 02MO 02MC 02RD 10RO	0	1	3.19668698311	None	None	None	None	1
2.7	2015_May_19_1651	s	s	12	2	SIC	118	RC	2	1	02VD 09VO 02VC 02MD 02MO 02MC 02RD 02RO	0	1	0.595036029816	70.0	99.0	None	None	0
2.7	2015_May_19_1651	s	s	12	2	SIC	119	ABS	1	2	02VD 02VO 02VC 10MD 02MO 02MC 02RD 02RO	0	1	1.80674099922	None	None	None	None	1
2.7	2015_May_19_1651	s	s	12	2	SIC	120	ABS	1	0	02VD 02VO 02VC 02MD 02MO 10MC 02RD 02RO	0	1	2.11322712898	None	None	None	None	1
2.7	2015_May_19_1651	s	s	12	2	SIC	121	ABS	2	1	02VD 10VO 02VC 02MD 02MO 02MC 02RD 02RO	0	1	1.65902996063	None	None	None	None	1
2.7	2015_May_19_1651	s	s	12	2	SIC	122	RC	2	0	02VD 02VO 09VC 02MD 02MO 02MC 02RD 02RO	1	0	0.96444606781	276.0	-147.0	271	-151	1
2.7	2015_May_19_1651	s	s	12	2	SIC	123	ABS	2	2	10VD 02VO 02VC 02MD 02MO 02MC 02RD 02RO	0	1	2.0709540844	None	None	None	None	1
2.7	2015_May_19_1651	s	s	12	2	SIC	124	RC	2	2	09VD 02VO 02VC 02MD 02MO 02MC 02RD 02RO	1	0	0.976369142532	167.0	-192.0	170	-197	1
2.7	2015_May_19_1651	s	s	12	2	SIC	125	RC	0	2	02VD 02VO 02VC 02MD 02MO 02MC 09RD 02RO	1	0	1.17644095421	146.0	-260.0	151	-263	1
2.7	2015_May_19_1651	s	s	12	2	SIC	126	ABS	1	1	02VD 02VO 02VC 02MD 10MO 02MC 02RD 02RO	0	1	3.3774869442	None	None	None	None	1
2.7	2015_May_19_1651	s	s	12	2	SIC	127	RC	1	1	02VD 02VO 02VC 02MD 09MO 02MC 02RD 02RO	1	0	0.76441693306	380.0	-222.0	381	-229	1
2.7	2015_May_19_1651	s	s	12	2	SIC	128	RC	1	2	02VD 02VO 02VC 09MD 02MO 02MC 02RD 02RO	1	0	0.776256084442	-38.0	-294.0	-33	-296	1
2.7	2015_May_19_1651	s	s	12	2	SIC	129	ABS	2	2	10VD 02VO 02VC 02MD 02MO 02MC 02RD 02RO	0	1	2.24286198616	None	None	None	None	1
2.7	2015_May_19_1651	s	s	12	2	SIC	130	RC	2	1	02VD 09VO 02VC 02MD 02MO 02MC 02RD 02RO	1	0	1.60057282448	-174.0	337.0	-176	334	1
2.7	2015_May_19_1651	s	s	12	2	SIC	131	RC	1	2	02VD 02VO 02VC 09MD 02MO 02MC 02RD 02RO	1	0	0.682455062866	196.0	-83.0	199	-93	1
2.7	2015_May_19_1651	s	s	12	2	SIC	132	RC	2	0	02VD 02VO 09VC 02MD 02MO 02MC 02RD 02RO	1	0	1.01856899261	355.0	-286.0	361	-292	1
2.7	2015_May_19_1651	s	s	12	2	SIC	133	RC	0	2	02VD 02VO 02VC 02MD 02MO 02MC 09RD 02RO	1	0	0.853605985641	105.0	-347.0	106	-354	1
2.7	2015_May_19_1651	s	s	12	2	SIC	134	RC	1	0	02VD 02VO 02VC 02MD 02MO 09MC 02RD 02RO	1	0	1.18582487106	184.0	-19.0	185	-26	1
2.7	2015_May_19_1651	s	s	12	2	SIC	135	RC	2	2	09VD 02VO 02VC 02MD 02MO 02MC 02RD 02RO	1	0	1.2588300705	497.0	-342.0	501	-352	1
2.7	2015_May_19_1651	s	s	12	2	SIC	136	ABS	1	0	02VD 02VO 02VC 02MD 02MO 10MC 02RD 02RO	0	1	2.27629685402	None	None	None	None	1
2.7	2015_May_19_1651	s	s	12	2	SIC	137	ABS	0	2	02VD 02VO 02VC 02MD 02MO 02MC 10RD 02RO	0	1	5.94346904755	None	None	None	None	1
2.7	2015_May_19_1651	s	s	12	2	SIC	138	ABS	1	2	02VD 02VO 02VC 10MD 02MO 02MC 02RD 02RO	0	1	1.92974209785	None	None	None	None	1
2.7	2015_May_19_1651	s	s	12	2	SIC	139	ABS	2	1	02VD 10VO 02VC 02MD 02MO 02MC 02RD 02RO	0	1	1.95327305794	None	None	None	None	1
2.7	2015_May_19_1651	s	s	12	2	SIC	140	ABS	1	1	02VD 02VO 02VC 02MD 10MO 02MC 02RD 02RO	0	1	2.72726607323	None	None	None	None	1
2.7	2015_May_19_1651	s	s	12	2	SIC	141	RC	1	1	02VD 02VO 02VC 02MD 09MO 02MC 02RD 02RO	1	0	2.20850682259	55.0	181.0	58	174	1
2.7	2015_May_19_1651	s	s	12	2	SIC	142	ABS	2	0	02VD 02VO 10VC 02MD 02MO 02MC 02RD 02RO	0	1	2.47120094299	None	None	None	None	1
2.7	2015_May_19_1651	s	s	12	2	SIC	143	ABS	0	1	02VD 02VO 02VC 02MD 02MO 02MC 02RD 10RO	0	1	3.40137004852	None	None	None	None	1
2.7	2015_May_19_1651	s	s	12	2	SIC	144	RC	0	1	02VD 02VO 02VC 02MD 02MO 02MC 02RD 09RO	1	0	2.25978803635	490.0	51.0	492	45	1
2.7	2015_May_19_1651	s	s	12	2	SIC	145	ABS	1	0	02VD 02VO 02VC 02MD 02MO 10MC 02RD 02RO	0	1	3.10180497169	None	None	None	None	1
2.7	2015_May_19_1651	s	s	12	2	SIC	146	ABS	2	2	10VD 02VO 02VC 02MD 02MO 02MC 02RD 02RO	0	1	2.11483097076	None	None	None	None	1
2.7	2015_May_19_1651	s	s	12	2	SIC	147	RC	1	1	02VD 02VO 02VC 02MD 09MO 02MC 02RD 02RO	1	0	1.1478331089	449.0	211.0	450	200	1
2.7	2015_May_19_1651	s	s	12	2	SIC	148	ABS	2	0	02VD 02VO 10VC 02MD 02MO 02MC 02RD 02RO	0	1	2.10136294365	None	None	None	None	1
2.7	2015_May_19_1651	s	s	12	2	SIC	149	ABS	2	1	02VD 10VO 02VC 02MD 02MO 02MC 02RD 02RO	0	1	2.0098388195	None	None	None	None	1
2.7	2015_May_19_1651	s	s	12	2	SIC	150	RC	1	0	02VD 02VO 02VC 02MD 02MO 09MC 02RD 02RO	1	0	1.89002895355	343.0	316.0	345	313	1
2.7	2015_May_19_1651	s	s	12	2	SIC	151	ABS	0	1	02VD 02VO 02VC 02MD 02MO 02MC 02RD 10RO	0	1	2.31830811501	None	None	None	None	1
2.7	2015_May_19_1651	s	s	12	2	SIC	152	ABS	1	2	02VD 02VO 02VC 10MD 02MO 02MC 02RD 02RO	0	1	2.20713686943	None	None	None	None	1
2.7	2015_May_19_1651	s	s	12	2	SIC	153	RC	0	2	02VD 02VO 02VC 02MD 02MO 02MC 09RD 02RO	1	0	1.04205203056	-173.0	319.0	-169	313	1
2.7	2015_May_19_1651	s	s	12	2	SIC	154	ABS	1	1	02VD 02VO 02VC 02MD 10MO 02MC 02RD 02RO	0	1	3.42466306686	None	None	None	None	1
2.7	2015_May_19_1651	s	s	12	2	SIC	155	RC	2	1	02VD 09VO 02VC 02MD 02MO 02MC 02RD 02RO	1	0	1.25401806831	-360.0	375.0	-359	378	1
2.7	2015_May_19_1651	s	s	12	2	SIC	156	RC	2	2	09VD 02VO 02VC 02MD 02MO 02MC 02RD 02RO	1	0	0.808656930923	115.0	-170.0	117	-178	1
2.7	2015_May_19_1651	s	s	12	2	SIC	157	RC	0	1	02VD 02VO 02VC 02MD 02MO 02MC 02RD 09RO	1	0	1.94149708748	58.0	-293.0	60	-293	1
2.7	2015_May_19_1651	s	s	12	2	SIC	158	RC	2	0	02VD 02VO 09VC 02MD 02MO 02MC 02RD 02RO	1	0	0.617525100708	-106.0	-50.0	-104	-58	1
2.7	2015_May_19_1651	s	s	12	2	SIC	159	ABS	0	2	02VD 02VO 02VC 02MD 02MO 02MC 10RD 02RO	0	1	2.23581910133	None	None	None	None	1
2.7	2015_May_19_1651	s	s	12	2	SIC	160	RC	1	2	02VD 02VO 02VC 09MD 02MO 02MC 02RD 02RO	1	0	1.59510421753	-528.0	-289.0	-531	-290	1
2.7	2015_May_19_1651	s	s	12	2	SIC	161	ABS	1	2	02VD 02VO 02VC 10MD 02MO 02MC 02RD 02RO	0	1	2.27108192444	None	None	None	None	1
2.7	2015_May_19_1651	s	s	12	2	SIC	162	RC	1	0	02VD 02VO 02VC 02MD 02MO 09MC 02RD 02RO	1	0	0.783252000809	228.0	209.0	228	210	1
2.7	2015_May_19_1651	s	s	12	2	SIC	163	RC	2	1	02VD 09VO 02VC 02MD 02MO 02MC 02RD 02RO	1	0	0.717442989349	45.0	63.0	43	50	1
2.7	2015_May_19_1651	s	s	12	2	SIC	164	ABS	2	0	02VD 02VO 10VC 02MD 02MO 02MC 02RD 02RO	0	1	1.99527692795	None	None	None	None	1
2.7	2015_May_19_1651	s	s	12	2	SIC	165	RC	1	2	02VD 02VO 02VC 09MD 02MO 02MC 02RD 02RO	1	0	1.60377693176	-416.0	323.0	-412	322	1
2.7	2015_May_19_1651	s	s	12	2	SIC	166	ABS	1	1	02VD 02VO 02VC 02MD 10MO 02MC 02RD 02RO	0	1	3.02911114693	None	None	None	None	1
2.7	2015_May_19_1651	s	s	12	2	SIC	167	ABS	2	2	10VD 02VO 02VC 02MD 02MO 02MC 02RD 02RO	0	1	1.98861718178	None	None	None	None	1
2.7	2015_May_19_1651	s	s	12	2	SIC	168	RC	2	0	02VD 02VO 09VC 02MD 02MO 02MC 02RD 02RO	1	0	0.929244995117	321.0	36.0	322	34	1
2.7	2015_May_19_1651	s	s	12	2	SIC	169	RC	2	2	09VD 02VO 02VC 02MD 02MO 02MC 02RD 02RO	1	0	0.714151859283	-122.0	-83.0	-115	-86	1
2.7	2015_May_19_1651	s	s	12	2	SIC	170	RC	1	1	02VD 02VO 02VC 02MD 09MO 02MC 02RD 02RO	1	0	1.09400987625	-534.0	-191.0	-534	-199	1
2.7	2015_May_19_1651	s	s	12	2	SIC	171	RC	0	2	02VD 02VO 02VC 02MD 02MO 02MC 09RD 02RO	1	0	0.799645900726	46.0	369.0	-102	-136	0
2.7	2015_May_19_1651	s	s	12	2	SIC	172	ABS	0	1	02VD 02VO 02VC 02MD 02MO 02MC 02RD 10RO	0	1	3.83651280403	None	None	None	None	1
2.7	2015_May_19_1651	s	s	12	2	SIC	173	ABS	2	1	02VD 10VO 02VC 02MD 02MO 02MC 02RD 02RO	0	1	2.12981700897	None	None	None	None	1
2.7	2015_May_19_1651	s	s	12	2	SIC	174	RC	0	1	02VD 02VO 02VC 02MD 02MO 02MC 02RD 09RO	1	0	2.16068196297	489.0	-165.0	494	-171	1
2.7	2015_May_19_1651	s	s	12	2	SIC	175	ABS	0	2	02VD 02VO 02VC 02MD 02MO 02MC 10RD 02RO	0	1	2.49473690987	None	None	None	None	1
2.7	2015_May_19_1651	s	s	12	2	SIC	176	ABS	1	0	02VD 02VO 02VC 02MD 02MO 10MC 02RD 02RO	0	1	2.78901410103	None	None	None	None	1
2.7	2015_May_19_1651	s	s	12	2	SIC	177	RC	0	1	02VD 02VO 02VC 02MD 02MO 02MC 02RD 09RO	1	0	2.95379900932	-71.0	309.0	-65	306	1
2.7	2015_May_19_1651	s	s	12	2	SIC	178	RC	1	2	02VD 02VO 02VC 09MD 02MO 02MC 02RD 02RO	1	0	1.68254089355	-160.0	192.0	-166	189	1
2.7	2015_May_19_1651	s	s	12	2	SIC	179	ABS	1	1	02VD 02VO 02VC 02MD 10MO 02MC 02RD 02RO	0	1	2.70175099373	None	None	None	None	1
2.7	2015_May_19_1651	s	s	12	2	SIC	180	ABS	1	2	02VD 02VO 02VC 10MD 02MO 02MC 02RD 02RO	0	1	1.90619301796	None	None	None	None	1
2.7	2015_May_19_1651	s	s	12	2	SIC	181	RC	1	0	02VD 02VO 02VC 02MD 02MO 09MC 02RD 02RO	1	0	0.547808170319	-98.0	-26.0	-89	-29	1
2.7	2015_May_19_1651	s	s	12	2	SIC	182	ABS	1	0	02VD 02VO 02VC 02MD 02MO 10MC 02RD 02RO	0	1	2.71836996078	None	None	None	None	1
2.7	2015_May_19_1651	s	s	12	2	SIC	183	RC	2	0	02VD 02VO 09VC 02MD 02MO 02MC 02RD 02RO	1	0	1.57023191452	-246.0	-390.0	-254	-395	1
2.7	2015_May_19_1651	s	s	12	2	SIC	184	ABS	0	2	02VD 02VO 02VC 02MD 02MO 02MC 10RD 02RO	0	1	1.80560994148	None	None	None	None	1
2.7	2015_May_19_1651	s	s	12	2	SIC	185	ABS	0	1	02VD 02VO 02VC 02MD 02MO 02MC 02RD 10RO	0	1	2.51331996918	None	None	None	None	1
2.7	2015_May_19_1651	s	s	12	2	SIC	186	ABS	2	0	02VD 02VO 10VC 02MD 02MO 02MC 02RD 02RO	0	1	1.27060198784	None	None	None	None	1
2.7	2015_May_19_1651	s	s	12	2	SIC	187	ABS	2	1	02VD 10VO 02VC 02MD 02MO 02MC 02RD 02RO	0	1	1.59527516365	None	None	None	None	1
2.7	2015_May_19_1651	s	s	12	2	SIC	188	RC	2	1	02VD 09VO 02VC 02MD 02MO 02MC 02RD 02RO	1	0	0.724758863449	98.0	-248.0	96	-250	1
2.7	2015_May_19_1651	s	s	12	2	SIC	189	ABS	2	2	10VD 02VO 02VC 02MD 02MO 02MC 02RD 02RO	0	1	1.9452278614	None	None	None	None	1
2.7	2015_May_19_1651	s	s	12	2	SIC	190	RC	0	2	02VD 02VO 02VC 02MD 02MO 02MC 09RD 02RO	1	0	0.641307830811	94.0	-37.0	97	-38	1
2.7	2015_May_19_1651	s	s	12	2	SIC	191	RC	1	1	02VD 02VO 02VC 02MD 09MO 02MC 02RD 02RO	1	0	0.841911077499	380.0	228.0	372	227	1
2.7	2015_May_19_1651	s	s	12	2	SIC	192	RC	2	2	09VD 02VO 02VC 02MD 02MO 02MC 02RD 02RO	1	0	0.57612490654	31.0	14.0	33	9	1
2.7	2015_May_19_1651	s	s	12	2	SIC	193	RC	1	1	02VD 02VO 02VC 02MD 09MO 02MC 02RD 02RO	1	0	0.921211957932	150.0	180.0	154	177	1
2.7	2015_May_19_1651	s	s	12	2	SIC	194	RC	1	2	02VD 02VO 02VC 09MD 02MO 02MC 02RD 02RO	1	0	1.90129995346	15.0	387.0	20	385	1
2.7	2015_May_19_1651	s	s	12	2	SIC	195	ABS	0	1	02VD 02VO 02VC 02MD 02MO 02MC 02RD 10RO	0	1	3.56082582474	None	None	None	None	1
2.7	2015_May_19_1651	s	s	12	2	SIC	196	ABS	1	2	02VD 02VO 02VC 10MD 02MO 02MC 02RD 02RO	0	1	1.7978579998	None	None	None	None	1
2.7	2015_May_19_1651	s	s	12	2	SIC	197	RC	2	1	02VD 09VO 02VC 02MD 02MO 02MC 02RD 02RO	1	0	2.09024405479	-378.0	352.0	-382	353	1
2.7	2015_May_19_1651	s	s	12	2	SIC	198	ABS	0	2	02VD 02VO 02VC 02MD 02MO 02MC 10RD 02RO	0	1	2.51826000214	None	None	None	None	1
2.7	2015_May_19_1651	s	s	12	2	SIC	199	RC	1	0	02VD 02VO 02VC 02MD 02MO 09MC 02RD 02RO	0	1	2.93051695824	-527.0	-150.0	None	None	0
2.7	2015_May_19_1651	s	s	12	2	SIC	200	RC	0	2	02VD 02VO 02VC 02MD 02MO 02MC 09RD 02RO	1	0	1.45405817032	303.0	-105.0	302	-104	1
2.7	2015_May_19_1651	s	s	12	2	SIC	201	ABS	1	1	02VD 02VO 02VC 02MD 10MO 02MC 02RD 02RO	0	1	1.95064687729	None	None	None	None	1
2.7	2015_May_19_1651	s	s	12	2	SIC	202	RC	0	1	02VD 02VO 02VC 02MD 02MO 02MC 02RD 09RO	1	0	1.7709300518	-452.0	244.0	-455	247	1
2.7	2015_May_19_1651	s	s	12	2	SIC	203	ABS	2	2	10VD 02VO 02VC 02MD 02MO 02MC 02RD 02RO	0	1	1.98123407364	None	None	None	None	1
2.7	2015_May_19_1651	s	s	12	2	SIC	204	RC	2	2	09VD 02VO 02VC 02MD 02MO 02MC 02RD 02RO	1	0	1.44712400436	-135.0	-289.0	-132	-290	1
2.7	2015_May_19_1651	s	s	12	2	SIC	205	RC	2	0	02VD 02VO 09VC 02MD 02MO 02MC 02RD 02RO	1	0	1.16465306282	75.0	351.0	78	350	1
2.7	2015_May_19_1651	s	s	12	2	SIC	206	ABS	2	0	02VD 02VO 10VC 02MD 02MO 02MC 02RD 02RO	0	1	1.58369493484	None	None	None	None	1
2.7	2015_May_19_1651	s	s	12	2	SIC	207	ABS	1	0	02VD 02VO 02VC 02MD 02MO 10MC 02RD 02RO	0	1	2.13811898232	None	None	None	None	1
2.7	2015_May_19_1651	s	s	12	2	SIC	208	ABS	2	1	02VD 10VO 02VC 02MD 02MO 02MC 02RD 02RO	0	1	2.012196064	None	None	None	None	1
2.7	2015_May_19_1651	s	s	12	2	SIC	209	ABS	1	0	02VD 02VO 02VC 02MD 02MO 10MC 02RD 02RO	0	1	2.44753813744	None	None	None	None	1
2.7	2015_May_19_1651	s	s	12	2	SIC	210	ABS	1	1	02VD 02VO 02VC 02MD 10MO 02MC 02RD 02RO	0	1	2.53755497932	None	None	None	None	1
2.7	2015_May_19_1651	s	s	12	2	SIC	211	RC	1	1	02VD 02VO 02VC 02MD 09MO 02MC 02RD 02RO	1	0	1.12449193001	240.0	-303.0	245	-296	1
2.7	2015_May_19_1651	s	s	12	2	SIC	212	RC	1	0	02VD 02VO 02VC 02MD 02MO 09MC 02RD 02RO	1	0	1.17112088203	-476.0	-60.0	-477	-53	1
2.7	2015_May_19_1651	s	s	12	2	SIC	213	ABS	2	0	02VD 02VO 10VC 02MD 02MO 02MC 02RD 02RO	0	1	1.8213429451	None	None	None	None	1
2.7	2015_May_19_1651	s	s	12	2	SIC	214	ABS	0	2	02VD 02VO 02VC 02MD 02MO 02MC 10RD 02RO	0	1	1.69206118584	None	None	None	None	1
2.7	2015_May_19_1651	s	s	12	2	SIC	215	ABS	2	2	10VD 02VO 02VC 02MD 02MO 02MC 02RD 02RO	0	1	1.52995085716	None	None	None	None	1
2.7	2015_May_19_1651	s	s	12	2	SIC	216	RC	2	2	09VD 02VO 02VC 02MD 02MO 02MC 02RD 02RO	1	0	1.83120179176	146.0	90.0	148	92	1
2.7	2015_May_19_1651	s	s	12	2	SIC	217	RC	2	1	02VD 09VO 02VC 02MD 02MO 02MC 02RD 02RO	1	0	1.36457896233	203.0	400.0	201	388	1
2.7	2015_May_19_1651	s	s	12	2	SIC	218	RC	1	2	02VD 02VO 02VC 09MD 02MO 02MC 02RD 02RO	1	0	0.917882919312	-286.0	-55.0	-287	-57	1
2.7	2015_May_19_1651	s	s	12	2	SIC	219	RC	2	0	02VD 02VO 09VC 02MD 02MO 02MC 02RD 02RO	1	0	0.558969020844	-66.0	-109.0	-73	-116	1
2.7	2015_May_19_1651	s	s	12	2	SIC	220	RC	0	2	02VD 02VO 02VC 02MD 02MO 02MC 09RD 02RO	1	0	1.09403181076	-286.0	336.0	-282	335	1
2.7	2015_May_19_1651	s	s	12	2	SIC	221	RC	0	1	02VD 02VO 02VC 02MD 02MO 02MC 02RD 09RO	1	0	2.49064683914	297.0	171.0	309	180	1
2.7	2015_May_19_1651	s	s	12	2	SIC	222	ABS	1	2	02VD 02VO 02VC 10MD 02MO 02MC 02RD 02RO	0	1	1.97458600998	None	None	None	None	1
2.7	2015_May_19_1651	s	s	12	2	SIC	223	ABS	0	1	02VD 02VO 02VC 02MD 02MO 02MC 02RD 10RO	0	1	3.17178297043	None	None	None	None	1
2.7	2015_May_19_1651	s	s	12	2	SIC	224	ABS	2	1	02VD 10VO 02VC 02MD 02MO 02MC 02RD 02RO	1	0	0.582873106003	None	None	31	-169	0
2.7	2015_May_19_1651	s	s	12	2	SIC	225	ABS	2	2	10VD 02VO 02VC 02MD 02MO 02MC 02RD 02RO	0	1	1.92491388321	None	None	None	None	1
2.7	2015_May_19_1651	s	s	12	2	SIC	226	RC	2	1	02VD 09VO 02VC 02MD 02MO 02MC 02RD 02RO	1	0	2.18869996071	491.0	288.0	498	285	1
2.7	2015_May_19_1651	s	s	12	2	SIC	227	RC	1	1	02VD 02VO 02VC 02MD 09MO 02MC 02RD 02RO	1	0	0.79491019249	-128.0	154.0	-133	150	1
2.7	2015_May_19_1651	s	s	12	2	SIC	228	RC	1	0	02VD 02VO 02VC 02MD 02MO 09MC 02RD 02RO	1	0	1.21172380447	-308.0	377.0	-305	381	1
2.7	2015_May_19_1651	s	s	12	2	SIC	229	ABS	0	1	02VD 02VO 02VC 02MD 02MO 02MC 02RD 10RO	1	0	2.61918592453	None	None	16	-17	0
2.7	2015_May_19_1651	s	s	12	2	SIC	230	ABS	1	1	02VD 02VO 02VC 02MD 10MO 02MC 02RD 02RO	0	1	2.18876004219	None	None	None	None	1
2.7	2015_May_19_1651	s	s	12	2	SIC	231	RC	2	2	09VD 02VO 02VC 02MD 02MO 02MC 02RD 02RO	1	0	1.45886588097	453.0	-61.0	455	-52	1
2.7	2015_May_19_1651	s	s	12	2	SIC	232	ABS	2	1	02VD 10VO 02VC 02MD 02MO 02MC 02RD 02RO	0	1	1.45933914185	None	None	None	None	1
2.7	2015_May_19_1651	s	s	12	2	SIC	233	RC	2	0	02VD 02VO 09VC 02MD 02MO 02MC 02RD 02RO	1	0	1.42738890648	384.0	229.0	382	224	1
2.7	2015_May_19_1651	s	s	12	2	SIC	234	ABS	2	0	02VD 02VO 10VC 02MD 02MO 02MC 02RD 02RO	0	1	1.37086582184	None	None	None	None	1
2.7	2015_May_19_1651	s	s	12	2	SIC	235	RC	0	1	02VD 02VO 02VC 02MD 02MO 02MC 02RD 09RO	1	0	1.45892906189	-111.0	-337.0	-97	-332	1
2.7	2015_May_19_1651	s	s	12	2	SIC	236	ABS	0	2	02VD 02VO 02VC 02MD 02MO 02MC 10RD 02RO	0	1	1.82132697105	None	None	None	None	1
2.7	2015_May_19_1651	s	s	12	2	SIC	237	ABS	1	0	02VD 02VO 02VC 02MD 02MO 10MC 02RD 02RO	0	1	2.02391600609	None	None	None	None	1
2.7	2015_May_19_1651	s	s	12	2	SIC	238	RC	0	2	02VD 02VO 02VC 02MD 02MO 02MC 09RD 02RO	1	0	1.10145378113	-527.0	265.0	-528	257	1
2.7	2015_May_19_1651	s	s	12	2	SIC	239	RC	1	2	02VD 02VO 02VC 09MD 02MO 02MC 02RD 02RO	1	0	1.21869802475	335.0	-239.0	341	-238	1
2.7	2015_May_19_1651	s	s	12	2	SIC	240	ABS	1	2	02VD 02VO 02VC 10MD 02MO 02MC 02RD 02RO	0	1	1.98862290382	None	None	None	None	1
2.7	2015_May_19_1651	s	s	12	2	SIC	241	RC	0	2	02VD 02VO 02VC 02MD 02MO 02MC 09RD 02RO	1	0	1.03015995026	-169.0	-227.0	-162	-228	1
2.7	2015_May_19_1651	s	s	12	2	SIC	242	RC	2	0	02VD 02VO 09VC 02MD 02MO 02MC 02RD 02RO	1	0	0.694007873535	254.0	315.0	251	311	1
2.7	2015_May_19_1651	s	s	12	2	SIC	243	RC	2	1	02VD 09VO 02VC 02MD 02MO 02MC 02RD 02RO	1	0	0.823324203491	-235.0	-229.0	-234	-235	1
2.7	2015_May_19_1651	s	s	12	2	SIC	244	ABS	0	1	02VD 02VO 02VC 02MD 02MO 02MC 02RD 10RO	0	1	2.74171209335	None	None	None	None	1
2.7	2015_May_19_1651	s	s	12	2	SIC	245	ABS	2	0	02VD 02VO 10VC 02MD 02MO 02MC 02RD 02RO	0	1	1.97213816643	None	None	None	None	1
2.7	2015_May_19_1651	s	s	12	2	SIC	246	ABS	0	2	02VD 02VO 02VC 02MD 02MO 02MC 10RD 02RO	0	1	2.11037302017	None	None	None	None	1
2.7	2015_May_19_1651	s	s	12	2	SIC	247	RC	1	1	02VD 02VO 02VC 02MD 09MO 02MC 02RD 02RO	1	0	0.765034914017	-22.0	142.0	-18	134	1
2.7	2015_May_19_1651	s	s	12	2	SIC	248	RC	1	2	02VD 02VO 02VC 09MD 02MO 02MC 02RD 02RO	1	0	1.19472718239	-462.0	3.0	-465	5	1
2.7	2015_May_19_1651	s	s	12	2	SIC	249	RC	0	1	02VD 02VO 02VC 02MD 02MO 02MC 02RD 09RO	1	0	0.948857784271	484.0	2.0	488	-2	1
2.7	2015_May_19_1651	s	s	12	2	SIC	250	ABS	1	2	02VD 02VO 02VC 10MD 02MO 02MC 02RD 02RO	0	1	1.52954602242	None	None	None	None	1
2.7	2015_May_19_1651	s	s	12	2	SIC	251	ABS	2	2	10VD 02VO 02VC 02MD 02MO 02MC 02RD 02RO	0	1	1.9247469902	None	None	None	None	1
2.7	2015_May_19_1651	s	s	12	2	SIC	252	RC	2	2	09VD 02VO 02VC 02MD 02MO 02MC 02RD 02RO	1	0	1.258852005	70.0	206.0	66	206	1
2.7	2015_May_19_1651	s	s	12	2	SIC	253	ABS	2	1	02VD 10VO 02VC 02MD 02MO 02MC 02RD 02RO	0	1	1.40835499763	None	None	None	None	1
2.7	2015_May_19_1651	s	s	12	2	SIC	254	RC	1	0	02VD 02VO 02VC 02MD 02MO 09MC 02RD 02RO	1	0	0.893908023834	-466.0	-90.0	-458	-86	1
2.7	2015_May_19_1651	s	s	12	2	SIC	255	ABS	1	0	02VD 02VO 02VC 02MD 02MO 10MC 02RD 02RO	0	1	2.35347294807	None	None	None	None	1
2.7	2015_May_19_1651	s	s	12	2	SIC	256	ABS	1	1	02VD 02VO 02VC 02MD 10MO 02MC 02RD 02RO	0	1	2.10636496544	None	None	None	None	1
2.7	2015_May_19_1651	s	s	12	2	SIC	257	ABS	1	0	02VD 02VO 02VC 02MD 02MO 10MC 02RD 02RO	0	1	2.54182386398	None	None	None	None	1
2.7	2015_May_19_1651	s	s	12	2	SIC	258	ABS	0	2	02VD 02VO 02VC 02MD 02MO 02MC 10RD 02RO	0	1	1.84315395355	None	None	None	None	1
2.7	2015_May_19_1651	s	s	12	2	SIC	259	RC	0	1	02VD 02VO 02VC 02MD 02MO 02MC 02RD 09RO	1	0	0.964529037476	310.0	-10.0	312	-11	1
2.7	2015_May_19_1651	s	s	12	2	SIC	260	ABS	1	2	02VD 02VO 02VC 10MD 02MO 02MC 02RD 02RO	0	1	1.25449085236	None	None	None	None	1
2.7	2015_May_19_1651	s	s	12	2	SIC	261	RC	1	0	02VD 02VO 02VC 02MD 02MO 09MC 02RD 02RO	1	0	1.70371198654	397.0	122.0	400	120	1
2.7	2015_May_19_1651	s	s	12	2	SIC	262	RC	2	1	02VD 09VO 02VC 02MD 02MO 02MC 02RD 02RO	1	0	0.629791021347	-281.0	34.0	-279	29	1
2.7	2015_May_19_1651	s	s	12	2	SIC	263	ABS	2	0	02VD 02VO 10VC 02MD 02MO 02MC 02RD 02RO	0	1	1.64403605461	None	None	None	None	1
2.7	2015_May_19_1651	s	s	12	2	SIC	264	RC	1	2	02VD 02VO 02VC 09MD 02MO 02MC 02RD 02RO	1	0	0.547661066055	243.0	57.0	252	54	1
2.7	2015_May_19_1651	s	s	12	2	SIC	265	RC	1	1	02VD 02VO 02VC 02MD 09MO 02MC 02RD 02RO	0	1	1.77185797691	277.0	-286.0	None	None	0
2.7	2015_May_19_1651	s	s	12	2	SIC	266	RC	2	2	09VD 02VO 02VC 02MD 02MO 02MC 02RD 02RO	1	0	0.988238096237	-284.0	316.0	-278	321	1
2.7	2015_May_19_1651	s	s	12	2	SIC	267	RC	0	2	02VD 02VO 02VC 02MD 02MO 02MC 09RD 02RO	1	0	1.00662708282	-162.0	348.0	-163	348	1
2.7	2015_May_19_1651	s	s	12	2	SIC	268	ABS	1	1	02VD 02VO 02VC 02MD 10MO 02MC 02RD 02RO	0	1	2.03567695618	None	None	None	None	1
2.7	2015_May_19_1651	s	s	12	2	SIC	269	ABS	2	2	10VD 02VO 02VC 02MD 02MO 02MC 02RD 02RO	0	1	1.32988810539	None	None	None	None	1
2.7	2015_May_19_1651	s	s	12	2	SIC	270	RC	2	0	02VD 02VO 09VC 02MD 02MO 02MC 02RD 02RO	1	0	0.529371023178	-103.0	-20.0	-99	-21	1
2.7	2015_May_19_1651	s	s	12	2	SIC	271	ABS	2	1	02VD 10VO 02VC 02MD 02MO 02MC 02RD 02RO	0	1	1.36020612717	None	None	None	None	1
2.7	2015_May_19_1651	s	s	12	2	SIC	272	ABS	0	1	02VD 02VO 02VC 02MD 02MO 02MC 02RD 10RO	0	1	2.41607999802	None	None	None	None	1
2.7	2015_May_19_1651	s	s	12	2	SIC	273	RC	0	2	02VD 02VO 02VC 02MD 02MO 02MC 09RD 02RO	1	0	0.667426109314	270.0	-135.0	263	-138	1
2.7	2015_May_19_1651	s	s	12	2	SIC	274	RC	1	2	02VD 02VO 02VC 09MD 02MO 02MC 02RD 02RO	1	0	0.505432844162	-21.0	-42.0	-19	-42	1
2.7	2015_May_19_1651	s	s	12	2	SIC	275	RC	2	0	02VD 02VO 09VC 02MD 02MO 02MC 02RD 02RO	1	0	0.463910102844	-67.0	-8.0	-73	-14	1
2.7	2015_May_19_1651	s	s	12	2	SIC	276	ABS	2	2	10VD 02VO 02VC 02MD 02MO 02MC 02RD 02RO	0	1	1.61559200287	None	None	None	None	1
2.7	2015_May_19_1651	s	s	12	2	SIC	277	RC	1	0	02VD 02VO 02VC 02MD 02MO 09MC 02RD 02RO	1	0	1.21861600876	-97.0	294.0	-103	292	1
2.7	2015_May_19_1651	s	s	12	2	SIC	278	ABS	2	0	02VD 02VO 10VC 02MD 02MO 02MC 02RD 02RO	0	1	1.58353996277	None	None	None	None	1
2.7	2015_May_19_1651	s	s	12	2	SIC	279	RC	0	1	02VD 02VO 02VC 02MD 02MO 02MC 02RD 09RO	1	0	1.26694011688	-123.0	215.0	-115	220	1
2.7	2015_May_19_1651	s	s	12	2	SIC	280	ABS	2	1	02VD 10VO 02VC 02MD 02MO 02MC 02RD 02RO	0	1	1.70081114769	None	None	None	None	1
2.7	2015_May_19_1651	s	s	12	2	SIC	281	ABS	0	2	02VD 02VO 02VC 02MD 02MO 02MC 10RD 02RO	0	1	1.74882006645	None	None	None	None	1
2.7	2015_May_19_1651	s	s	12	2	SIC	282	RC	1	1	02VD 02VO 02VC 02MD 09MO 02MC 02RD 02RO	1	0	1.22352814674	360.0	-272.0	371	-272	1
2.7	2015_May_19_1651	s	s	12	2	SIC	283	RC	2	2	09VD 02VO 02VC 02MD 02MO 02MC 02RD 02RO	1	0	0.799772024155	-124.0	238.0	-131	240	1
2.7	2015_May_19_1651	s	s	12	2	SIC	284	ABS	1	1	02VD 02VO 02VC 02MD 10MO 02MC 02RD 02RO	0	1	2.34860515594	None	None	None	None	1
2.7	2015_May_19_1651	s	s	12	2	SIC	285	ABS	1	0	02VD 02VO 02VC 02MD 02MO 10MC 02RD 02RO	0	1	2.31276512146	None	None	None	None	1
2.7	2015_May_19_1651	s	s	12	2	SIC	286	RC	2	1	02VD 09VO 02VC 02MD 02MO 02MC 02RD 02RO	1	0	0.914284944534	106.0	396.0	107	398	1
2.7	2015_May_19_1651	s	s	12	2	SIC	287	ABS	0	1	02VD 02VO 02VC 02MD 02MO 02MC 02RD 10RO	0	1	1.97684001923	None	None	None	None	1
2.7	2015_May_19_1651	s	s	12	2	SIC	288	ABS	1	2	02VD 02VO 02VC 10MD 02MO 02MC 02RD 02RO	0	1	1.44143080711	None	None	None	None	1
2.7	2015_May_19_1651	s	s	12	2	SIC	289	ABS	1	0	02VD 02VO 02VC 02MD 02MO 10MC 02RD 02RO	0	1	1.60016894341	None	None	None	None	1
2.7	2015_May_19_1651	s	s	12	2	SIC	290	RC	1	2	02VD 02VO 02VC 09MD 02MO 02MC 02RD 02RO	1	0	1.03519892693	-383.0	113.0	-378	118	1
2.7	2015_May_19_1651	s	s	12	2	SIC	291	ABS	2	0	02VD 02VO 10VC 02MD 02MO 02MC 02RD 02RO	0	1	1.34120893478	None	None	None	None	1
2.7	2015_May_19_1651	s	s	12	2	SIC	292	ABS	1	2	02VD 02VO 02VC 10MD 02MO 02MC 02RD 02RO	0	1	1.61986207962	None	None	None	None	1
2.7	2015_May_19_1651	s	s	12	2	SIC	293	RC	2	2	09VD 02VO 02VC 02MD 02MO 02MC 02RD 02RO	1	0	1.11215996742	250.0	23.0	243	18	1
2.7	2015_May_19_1651	s	s	12	2	SIC	294	ABS	1	1	02VD 02VO 02VC 02MD 10MO 02MC 02RD 02RO	0	1	1.92976689339	None	None	None	None	1
2.7	2015_May_19_1651	s	s	12	2	SIC	295	RC	1	0	02VD 02VO 02VC 02MD 02MO 09MC 02RD 02RO	1	0	1.19357895851	-355.0	-389.0	-356	-390	1
2.7	2015_May_19_1651	s	s	12	2	SIC	296	ABS	0	1	02VD 02VO 02VC 02MD 02MO 02MC 02RD 10RO	0	1	3.3069331646	None	None	None	None	1
2.7	2015_May_19_1651	s	s	12	2	SIC	297	RC	2	1	02VD 09VO 02VC 02MD 02MO 02MC 02RD 02RO	1	0	1.43053293228	-138.0	320.0	-131	320	1
2.7	2015_May_19_1651	s	s	12	2	SIC	298	ABS	0	2	02VD 02VO 02VC 02MD 02MO 02MC 10RD 02RO	0	1	1.47671198845	None	None	None	None	1
2.7	2015_May_19_1651	s	s	12	2	SIC	299	RC	2	0	02VD 02VO 09VC 02MD 02MO 02MC 02RD 02RO	1	0	1.0115981102	92.0	351.0	94	351	1
2.7	2015_May_19_1651	s	s	12	2	SIC	300	ABS	2	1	02VD 10VO 02VC 02MD 02MO 02MC 02RD 02RO	0	1	1.51775193214	None	None	None	None	1
2.7	2015_May_19_1651	s	s	12	2	SIC	301	ABS	2	2	10VD 02VO 02VC 02MD 02MO 02MC 02RD 02RO	0	1	1.48278689384	None	None	None	None	1
2.7	2015_May_19_1651	s	s	12	2	SIC	302	RC	1	1	02VD 02VO 02VC 02MD 09MO 02MC 02RD 02RO	1	0	0.764816045761	50.0	156.0	56	152	1
2.7	2015_May_19_1651	s	s	12	2	SIC	303	RC	0	1	02VD 02VO 02VC 02MD 02MO 02MC 02RD 09RO	1	0	1.11408305168	-84.0	-154.0	-77	-153	1
2.7	2015_May_19_1651	s	s	12	2	SIC	304	RC	0	2	02VD 02VO 02VC 02MD 02MO 02MC 09RD 02RO	1	0	0.658498048782	123.0	47.0	130	44	1
2.7	2015_May_19_1651	s	s	12	2	SIC	305	ABS	1	0	02VD 02VO 02VC 02MD 02MO 10MC 02RD 02RO	0	1	2.08273506165	None	None	None	None	1
2.7	2015_May_19_1651	s	s	12	2	SIC	306	RC	1	0	02VD 02VO 02VC 02MD 02MO 09MC 02RD 02RO	1	0	1.67950987816	155.0	-284.0	158	-283	1
2.7	2015_May_19_1651	s	s	12	2	SIC	307	ABS	0	2	02VD 02VO 02VC 02MD 02MO 02MC 10RD 02RO	0	1	1.93617796898	None	None	None	None	1
2.7	2015_May_19_1651	s	s	12	2	SIC	308	ABS	0	1	02VD 02VO 02VC 02MD 02MO 02MC 02RD 10RO	0	1	3.20952010155	None	None	None	None	1
2.7	2015_May_19_1651	s	s	12	2	SIC	309	ABS	1	2	02VD 02VO 02VC 10MD 02MO 02MC 02RD 02RO	0	1	1.44713497162	None	None	None	None	1
2.7	2015_May_19_1651	s	s	12	2	SIC	310	RC	2	0	02VD 02VO 09VC 02MD 02MO 02MC 02RD 02RO	1	0	1.14809894562	-488.0	-239.0	-481	-234	1
2.7	2015_May_19_1651	s	s	12	2	SIC	311	ABS	1	1	02VD 02VO 02VC 02MD 10MO 02MC 02RD 02RO	0	1	2.53006386757	None	None	None	None	1
2.7	2015_May_19_1651	s	s	12	2	SIC	312	RC	0	2	02VD 02VO 02VC 02MD 02MO 02MC 09RD 02RO	1	0	0.952793121338	-395.0	-293.0	-390	-288	1
2.7	2015_May_19_1651	s	s	12	2	SIC	313	RC	0	1	02VD 02VO 02VC 02MD 02MO 02MC 02RD 09RO	1	0	1.12474989891	165.0	-4.0	170	-4	1
2.7	2015_May_19_1651	s	s	12	2	SIC	314	ABS	2	2	10VD 02VO 02VC 02MD 02MO 02MC 02RD 02RO	0	1	1.52465891838	None	None	None	None	1
2.7	2015_May_19_1651	s	s	12	2	SIC	315	RC	1	1	02VD 02VO 02VC 02MD 09MO 02MC 02RD 02RO	1	0	0.529034137726	19.0	-22.0	25	-20	1
2.7	2015_May_19_1651	s	s	12	2	SIC	316	RC	2	2	09VD 02VO 02VC 02MD 02MO 02MC 02RD 02RO	1	0	0.929229974747	276.0	-272.0	271	-278	1
2.7	2015_May_19_1651	s	s	12	2	SIC	317	ABS	2	0	02VD 02VO 10VC 02MD 02MO 02MC 02RD 02RO	0	1	1.43536496162	None	None	None	None	1
2.7	2015_May_19_1651	s	s	12	2	SIC	318	ABS	2	1	02VD 10VO 02VC 02MD 02MO 02MC 02RD 02RO	0	1	1.70616388321	None	None	None	None	1
2.7	2015_May_19_1651	s	s	12	2	SIC	319	RC	1	2	02VD 02VO 02VC 09MD 02MO 02MC 02RD 02RO	1	0	0.788029909134	72.0	-392.0	83	-391	1
2.7	2015_May_19_1651	s	s	12	2	SIC	320	RC	2	1	02VD 09VO 02VC 02MD 02MO 02MC 02RD 02RO	1	0	0.564260005951	57.0	-62.0	62	-60	1
2.7	2015_May_19_1651	s	s	12	2	SIC	321	RC	2	1	02VD 09VO 02VC 02MD 02MO 02MC 02RD 02RO	1	0	0.905699968338	498.0	-201.0	500	-204	1
2.7	2015_May_19_1651	s	s	12	2	SIC	322	RC	0	2	02VD 02VO 02VC 02MD 02MO 02MC 09RD 02RO	1	0	1.15976595879	-468.0	184.0	-462	188	1
2.7	2015_May_19_1651	s	s	12	2	SIC	323	ABS	2	0	02VD 02VO 10VC 02MD 02MO 02MC 02RD 02RO	0	1	1.44714713097	None	None	None	None	1
2.7	2015_May_19_1651	s	s	12	2	SIC	324	ABS	0	1	02VD 02VO 02VC 02MD 02MO 02MC 02RD 10RO	0	1	3.54223012924	None	None	None	None	1
2.7	2015_May_19_1651	s	s	12	2	SIC	325	RC	2	2	09VD 02VO 02VC 02MD 02MO 02MC 02RD 02RO	1	0	1.18821716309	-247.0	299.0	-248	304	1
2.7	2015_May_19_1651	s	s	12	2	SIC	326	RC	1	0	02VD 02VO 02VC 02MD 02MO 09MC 02RD 02RO	1	0	0.929224014282	-166.0	159.0	-168	161	1
2.7	2015_May_19_1651	s	s	12	2	SIC	327	RC	2	0	02VD 02VO 09VC 02MD 02MO 02MC 02RD 02RO	1	0	1.19510698318	523.0	79.0	517	79	1
2.7	2015_May_19_1651	s	s	12	2	SIC	328	ABS	2	1	02VD 10VO 02VC 02MD 02MO 02MC 02RD 02RO	0	1	1.86831188202	None	None	None	None	1
2.7	2015_May_19_1651	s	s	12	2	SIC	329	ABS	1	2	02VD 02VO 02VC 10MD 02MO 02MC 02RD 02RO	0	1	2.34165120125	None	None	None	None	1
2.7	2015_May_19_1651	s	s	12	2	SIC	330	ABS	0	2	02VD 02VO 02VC 02MD 02MO 02MC 10RD 02RO	0	1	1.87774515152	None	None	None	None	1
2.7	2015_May_19_1651	s	s	12	2	SIC	331	RC	0	1	02VD 02VO 02VC 02MD 02MO 02MC 02RD 09RO	1	0	1.61238789558	-150.0	257.0	-142	259	1
2.7	2015_May_19_1651	s	s	12	2	SIC	332	RC	1	2	02VD 02VO 02VC 09MD 02MO 02MC 02RD 02RO	1	0	0.500357866287	134.0	-65.0	137	-73	1
2.7	2015_May_19_1651	s	s	12	2	SIC	333	ABS	1	1	02VD 02VO 02VC 02MD 10MO 02MC 02RD 02RO	0	1	1.68256688118	None	None	None	None	1
2.7	2015_May_19_1651	s	s	12	2	SIC	334	RC	1	1	02VD 02VO 02VC 02MD 09MO 02MC 02RD 02RO	1	0	1.11169910431	176.0	-363.0	175	-361	1
2.7	2015_May_19_1651	s	s	12	2	SIC	335	ABS	2	2	10VD 02VO 02VC 02MD 02MO 02MC 02RD 02RO	0	1	1.38322210312	None	None	None	None	1
2.7	2015_May_19_1651	s	s	12	2	SIC	336	ABS	1	0	02VD 02VO 02VC 02MD 02MO 10MC 02RD 02RO	0	1	2.07793211937	None	None	None	None	1
2.7	2015_May_19_1651	s	s	12	2	SIC	337	RC	2	0	02VD 02VO 09VC 02MD 02MO 02MC 02RD 02RO	1	0	0.891649961472	33.0	-160.0	29	-159	1
2.7	2015_May_19_1651	s	s	12	2	SIC	338	RC	0	1	02VD 02VO 02VC 02MD 02MO 02MC 02RD 09RO	1	0	2.41937303543	83.0	332.0	84	329	1
2.7	2015_May_19_1651	s	s	12	2	SIC	339	ABS	0	1	02VD 02VO 02VC 02MD 02MO 02MC 02RD 10RO	0	1	3.23623204231	None	None	None	None	1
2.7	2015_May_19_1651	s	s	12	2	SIC	340	ABS	1	1	02VD 02VO 02VC 02MD 10MO 02MC 02RD 02RO	0	1	1.88267683983	None	None	None	None	1
2.7	2015_May_19_1651	s	s	12	2	SIC	341	ABS	1	0	02VD 02VO 02VC 02MD 02MO 10MC 02RD 02RO	0	1	2.40692305565	None	None	None	None	1
2.7	2015_May_19_1651	s	s	12	2	SIC	342	ABS	2	2	10VD 02VO 02VC 02MD 02MO 02MC 02RD 02RO	0	1	1.87800121307	None	None	None	None	1
2.7	2015_May_19_1651	s	s	12	2	SIC	343	RC	1	2	02VD 02VO 02VC 09MD 02MO 02MC 02RD 02RO	1	0	0.764486074448	-166.0	-267.0	-160	-271	1
2.7	2015_May_19_1651	s	s	12	2	SIC	344	ABS	1	2	02VD 02VO 02VC 10MD 02MO 02MC 02RD 02RO	0	1	1.49416708946	None	None	None	None	1
2.7	2015_May_19_1651	s	s	12	2	SIC	345	RC	0	2	02VD 02VO 02VC 02MD 02MO 02MC 09RD 02RO	1	0	1.12550997734	-295.0	-344.0	-295	-351	1
2.7	2015_May_19_1651	s	s	12	2	SIC	346	RC	1	1	02VD 02VO 02VC 02MD 09MO 02MC 02RD 02RO	1	0	1.39517903328	-247.0	298.0	-243	299	1
2.7	2015_May_19_1651	s	s	12	2	SIC	347	RC	2	1	02VD 09VO 02VC 02MD 02MO 02MC 02RD 02RO	0	1	1.26283502579	516.0	-291.0	None	None	0
2.7	2015_May_19_1651	s	s	12	2	SIC	348	RC	2	2	09VD 02VO 02VC 02MD 02MO 02MC 02RD 02RO	1	0	0.976323127747	466.0	247.0	461	243	1
2.7	2015_May_19_1651	s	s	12	2	SIC	349	ABS	0	2	02VD 02VO 02VC 02MD 02MO 02MC 10RD 02RO	0	1	1.18350601196	None	None	None	None	1
2.7	2015_May_19_1651	s	s	12	2	SIC	350	ABS	2	0	02VD 02VO 10VC 02MD 02MO 02MC 02RD 02RO	0	1	1.50642204285	None	None	None	None	1
2.7	2015_May_19_1651	s	s	12	2	SIC	351	ABS	2	1	02VD 10VO 02VC 02MD 02MO 02MC 02RD 02RO	0	1	1.61187314987	None	None	None	None	1
2.7	2015_May_19_1651	s	s	12	2	SIC	352	RC	1	0	02VD 02VO 02VC 02MD 02MO 09MC 02RD 02RO	1	0	1.32452988625	-141.0	337.0	-142	327	1
2.7	2015_May_19_1651	s	s	12	2	SIC	353	RC	0	1	02VD 02VO 02VC 02MD 02MO 02MC 02RD 09RO	1	0	1.38177204132	27.0	-382.0	27	-380	1
2.7	2015_May_19_1651	s	s	12	2	SIC	354	ABS	0	1	02VD 02VO 02VC 02MD 02MO 02MC 02RD 10RO	0	1	1.91794085503	None	None	None	None	1
2.7	2015_May_19_1651	s	s	12	2	SIC	355	RC	1	2	02VD 02VO 02VC 09MD 02MO 02MC 02RD 02RO	1	0	1.5696310997	395.0	-43.0	405	-41	1
2.7	2015_May_19_1651	s	s	12	2	SIC	356	ABS	0	2	02VD 02VO 02VC 02MD 02MO 02MC 10RD 02RO	0	1	1.30086088181	None	None	None	None	1
2.7	2015_May_19_1651	s	s	12	2	SIC	357	ABS	2	1	02VD 10VO 02VC 02MD 02MO 02MC 02RD 02RO	0	1	1.3128528595	None	None	None	None	1
2.7	2015_May_19_1651	s	s	12	2	SIC	358	ABS	1	2	02VD 02VO 02VC 10MD 02MO 02MC 02RD 02RO	0	1	1.35298490524	None	None	None	None	1
2.7	2015_May_19_1651	s	s	12	2	SIC	359	ABS	2	0	02VD 02VO 10VC 02MD 02MO 02MC 02RD 02RO	0	1	1.28238511086	None	None	None	None	1
2.7	2015_May_19_1651	s	s	12	2	SIC	360	ABS	1	1	02VD 02VO 02VC 02MD 10MO 02MC 02RD 02RO	0	1	1.82047605515	None	None	None	None	1
2.7	2015_May_19_1651	s	s	12	2	SIC	361	RC	1	1	02VD 02VO 02VC 02MD 09MO 02MC 02RD 02RO	1	0	0.676997184753	-43.0	-142.0	-40	-145	1
2.7	2015_May_19_1651	s	s	12	2	SIC	362	RC	2	2	09VD 02VO 02VC 02MD 02MO 02MC 02RD 02RO	1	0	0.973182916641	165.0	-365.0	167	-366	1
2.7	2015_May_19_1651	s	s	12	2	SIC	363	RC	2	1	02VD 09VO 02VC 02MD 02MO 02MC 02RD 02RO	1	0	0.771259069443	-54.0	-147.0	-57	-147	1
2.7	2015_May_19_1651	s	s	12	2	SIC	364	RC	0	2	02VD 02VO 02VC 02MD 02MO 02MC 09RD 02RO	1	0	1.24393296242	400.0	-59.0	404	-59	1
2.7	2015_May_19_1651	s	s	12	2	SIC	365	ABS	2	2	10VD 02VO 02VC 02MD 02MO 02MC 02RD 02RO	0	1	1.31440496445	None	None	None	None	1
2.7	2015_May_19_1651	s	s	12	2	SIC	366	RC	1	0	02VD 02VO 02VC 02MD 02MO 09MC 02RD 02RO	1	0	1.48918890953	534.0	120.0	542	120	1
2.7	2015_May_19_1651	s	s	12	2	SIC	367	RC	2	0	02VD 02VO 09VC 02MD 02MO 02MC 02RD 02RO	1	0	1.035187006	339.0	316.0	331	312	1
2.7	2015_May_19_1651	s	s	12	2	SIC	368	ABS	1	0	02VD 02VO 02VC 02MD 02MO 10MC 02RD 02RO	0	1	1.70611286163	None	None	None	None	1
2.7	2015_May_19_1651	s	s	12	2	SIC	369	ABS	1	0	02VD 02VO 02VC 02MD 02MO 10MC 02RD 02RO	0	1	1.87461996078	None	None	None	None	1
2.7	2015_May_19_1651	s	s	12	2	SIC	370	RC	2	1	02VD 09VO 02VC 02MD 02MO 02MC 02RD 02RO	1	0	0.882173061371	287.0	-333.0	283	-333	1
2.7	2015_May_19_1651	s	s	12	2	SIC	371	ABS	0	1	02VD 02VO 02VC 02MD 02MO 02MC 02RD 10RO	0	1	2.34157180786	None	None	None	None	1
2.7	2015_May_19_1651	s	s	12	2	SIC	372	RC	0	2	02VD 02VO 02VC 02MD 02MO 02MC 09RD 02RO	1	0	1.11759710312	-327.0	90.0	-330	85	1
2.7	2015_May_19_1651	s	s	12	2	SIC	373	ABS	1	1	02VD 02VO 02VC 02MD 10MO 02MC 02RD 02RO	0	1	1.98851299286	None	None	None	None	1
2.7	2015_May_19_1651	s	s	12	2	SIC	374	RC	2	0	02VD 02VO 09VC 02MD 02MO 02MC 02RD 02RO	1	0	0.988117933273	98.0	-253.0	98	-260	1
2.7	2015_May_19_1651	s	s	12	2	SIC	375	RC	2	2	09VD 02VO 02VC 02MD 02MO 02MC 02RD 02RO	1	0	0.870374202728	346.0	155.0	343	152	1
2.7	2015_May_19_1651	s	s	12	2	SIC	376	ABS	2	2	10VD 02VO 02VC 02MD 02MO 02MC 02RD 02RO	0	1	1.64229607582	None	None	None	None	1
2.7	2015_May_19_1651	s	s	12	2	SIC	377	ABS	2	0	02VD 02VO 10VC 02MD 02MO 02MC 02RD 02RO	0	1	1.41183519363	None	None	None	None	1
2.7	2015_May_19_1651	s	s	12	2	SIC	378	RC	0	1	02VD 02VO 02VC 02MD 02MO 02MC 02RD 09RO	1	0	1.16035699844	-32.0	-273.0	-25	-269	1
2.7	2015_May_19_1651	s	s	12	2	SIC	379	ABS	2	1	02VD 10VO 02VC 02MD 02MO 02MC 02RD 02RO	0	1	1.34788203239	None	None	None	None	1
2.7	2015_May_19_1651	s	s	12	2	SIC	380	RC	1	1	02VD 02VO 02VC 02MD 09MO 02MC 02RD 02RO	1	0	0.502684831619	160.0	-24.0	160	-23	1
2.7	2015_May_19_1651	s	s	12	2	SIC	381	RC	1	2	02VD 02VO 02VC 09MD 02MO 02MC 02RD 02RO	1	0	1.37651896477	216.0	305.0	214	299	1
2.7	2015_May_19_1651	s	s	12	2	SIC	382	ABS	0	2	02VD 02VO 02VC 02MD 02MO 02MC 10RD 02RO	0	1	1.51281905174	None	None	None	None	1
2.7	2015_May_19_1651	s	s	12	2	SIC	383	RC	1	0	02VD 02VO 02VC 02MD 02MO 09MC 02RD 02RO	1	0	1.43015313148	-268.0	341.0	-262	335	1
2.7	2015_May_19_1651	s	s	12	2	SIC	384	ABS	1	2	02VD 02VO 02VC 10MD 02MO 02MC 02RD 02RO	0	1	1.38568902016	None	None	None	None	1
2.7	2015_May_19_1651	s	s	12	2	SIC	385	RC	1	2	02VD 02VO 02VC 09MD 02MO 02MC 02RD 02RO	1	0	0.858580112457	-333.0	-274.0	-331	-280	1
2.7	2015_May_19_1651	s	s	12	2	SIC	386	ABS	1	0	02VD 02VO 02VC 02MD 02MO 10MC 02RD 02RO	0	1	2.14907693863	None	None	None	None	1
2.7	2015_May_19_1651	s	s	12	2	SIC	387	ABS	1	1	02VD 02VO 02VC 02MD 10MO 02MC 02RD 02RO	0	1	1.96041893959	None	None	None	None	1
2.7	2015_May_19_1651	s	s	12	2	SIC	388	RC	2	2	09VD 02VO 02VC 02MD 02MO 02MC 02RD 02RO	1	0	1.524725914	-336.0	-352.0	-344	-348	1
2.7	2015_May_19_1651	s	s	12	2	SIC	389	ABS	2	1	02VD 10VO 02VC 02MD 02MO 02MC 02RD 02RO	0	1	2.33666396141	None	None	None	None	1
2.7	2015_May_19_1651	s	s	12	2	SIC	390	ABS	0	1	02VD 02VO 02VC 02MD 02MO 02MC 02RD 10RO	0	1	2.33600616455	None	None	None	None	1
2.7	2015_May_19_1651	s	s	12	2	SIC	391	RC	0	2	02VD 02VO 02VC 02MD 02MO 02MC 09RD 02RO	1	0	0.724282026291	353.0	182.0	353	176	1
2.7	2015_May_19_1651	s	s	12	2	SIC	392	RC	2	1	02VD 09VO 02VC 02MD 02MO 02MC 02RD 02RO	1	0	1.62378096581	240.0	367.0	242	356	1
2.7	2015_May_19_1651	s	s	12	2	SIC	393	RC	0	1	02VD 02VO 02VC 02MD 02MO 02MC 02RD 09RO	1	0	1.01891589165	28.0	149.0	38	153	1
2.7	2015_May_19_1651	s	s	12	2	SIC	394	ABS	2	2	10VD 02VO 02VC 02MD 02MO 02MC 02RD 02RO	0	1	1.50089597702	None	None	None	None	1
2.7	2015_May_19_1651	s	s	12	2	SIC	395	ABS	1	2	02VD 02VO 02VC 10MD 02MO 02MC 02RD 02RO	0	1	1.8064789772	None	None	None	None	1
2.7	2015_May_19_1651	s	s	12	2	SIC	396	ABS	2	0	02VD 02VO 10VC 02MD 02MO 02MC 02RD 02RO	0	1	1.12932109833	None	None	None	None	1
2.7	2015_May_19_1651	s	s	12	2	SIC	397	ABS	0	2	02VD 02VO 02VC 02MD 02MO 02MC 10RD 02RO	0	1	2.01866698265	None	None	None	None	1
2.7	2015_May_19_1651	s	s	12	2	SIC	398	RC	2	0	02VD 02VO 09VC 02MD 02MO 02MC 02RD 02RO	1	0	0.856095075607	-412.0	-358.0	-406	-353	1
2.7	2015_May_19_1651	s	s	12	2	SIC	399	RC	1	0	02VD 02VO 02VC 02MD 02MO 09MC 02RD 02RO	1	0	2.03347301483	-169.0	324.0	-165	327	1
2.7	2015_May_19_1651	s	s	12	2	SIC	400	RC	1	1	02VD 02VO 02VC 02MD 09MO 02MC 02RD 02RO	1	0	1.51778483391	205.0	299.0	206	300	1
2.7	2015_May_19_1651	s	s	12	2	SIC	401	ABS	1	2	02VD 02VO 02VC 10MD 02MO 02MC 02RD 02RO	0	1	2.17190098763	None	None	None	None	1
2.7	2015_May_19_1651	s	s	12	2	SIC	402	RC	2	2	09VD 02VO 02VC 02MD 02MO 02MC 02RD 02RO	1	0	0.6938560009	200.0	-53.0	204	-47	1
2.7	2015_May_19_1651	s	s	12	2	SIC	403	RC	0	1	02VD 02VO 02VC 02MD 02MO 02MC 02RD 09RO	1	0	0.799693107605	185.0	83.0	179	81	1
2.7	2015_May_19_1651	s	s	12	2	SIC	404	RC	1	2	02VD 02VO 02VC 09MD 02MO 02MC 02RD 02RO	1	0	1.13608407974	411.0	395.0	411	388	1
2.7	2015_May_19_1651	s	s	12	2	SIC	405	ABS	1	1	02VD 02VO 02VC 02MD 10MO 02MC 02RD 02RO	0	1	2.40726208687	None	None	None	None	1
2.7	2015_May_19_1651	s	s	12	2	SIC	406	ABS	1	0	02VD 02VO 02VC 02MD 02MO 10MC 02RD 02RO	0	1	2.23079991341	None	None	None	None	1
2.7	2015_May_19_1651	s	s	12	2	SIC	407	ABS	2	0	02VD 02VO 10VC 02MD 02MO 02MC 02RD 02RO	0	1	1.74122786522	None	None	None	None	1
2.7	2015_May_19_1651	s	s	12	2	SIC	408	ABS	0	1	02VD 02VO 02VC 02MD 02MO 02MC 02RD 10RO	0	1	2.80450296402	None	None	None	None	1
2.7	2015_May_19_1651	s	s	12	2	SIC	409	RC	0	2	02VD 02VO 02VC 02MD 02MO 02MC 09RD 02RO	1	0	1.54126596451	268.0	-217.0	268	-217	1
2.7	2015_May_19_1651	s	s	12	2	SIC	410	RC	2	0	02VD 02VO 09VC 02MD 02MO 02MC 02RD 02RO	1	0	1.47769904137	-48.0	-238.0	-42	-237	1
2.7	2015_May_19_1651	s	s	12	2	SIC	411	ABS	0	2	02VD 02VO 02VC 02MD 02MO 02MC 10RD 02RO	0	1	1.66536283493	None	None	None	None	1
2.7	2015_May_19_1651	s	s	12	2	SIC	412	RC	1	1	02VD 02VO 02VC 02MD 09MO 02MC 02RD 02RO	1	0	1.13607597351	363.0	36.0	370	32	1
2.7	2015_May_19_1651	s	s	12	2	SIC	413	ABS	2	2	10VD 02VO 02VC 02MD 02MO 02MC 02RD 02RO	0	1	1.21864581108	None	None	None	None	1
2.7	2015_May_19_1651	s	s	12	2	SIC	414	ABS	2	1	02VD 10VO 02VC 02MD 02MO 02MC 02RD 02RO	0	1	1.27102208138	None	None	None	None	1
2.7	2015_May_19_1651	s	s	12	2	SIC	415	RC	1	0	02VD 02VO 02VC 02MD 02MO 09MC 02RD 02RO	1	0	0.75952911377	-144.0	-48.0	-138	-53	1
2.7	2015_May_19_1651	s	s	12	2	SIC	416	RC	2	1	02VD 09VO 02VC 02MD 02MO 02MC 02RD 02RO	1	0	1.05368804932	-3.0	225.0	1	222	1
2.7	2015_May_19_1651	s	s	12	2	SIC	417	ABS	1	2	02VD 02VO 02VC 10MD 02MO 02MC 02RD 02RO	0	1	1.76080203056	None	None	None	None	1
2.7	2015_May_19_1651	s	s	12	2	SIC	418	ABS	1	0	02VD 02VO 02VC 02MD 02MO 10MC 02RD 02RO	0	1	2.36022496223	None	None	None	None	1
2.7	2015_May_19_1651	s	s	12	2	SIC	419	RC	1	2	02VD 02VO 02VC 09MD 02MO 02MC 02RD 02RO	1	0	0.858566045761	-166.0	142.0	-160	141	1
2.7	2015_May_19_1651	s	s	12	2	SIC	420	ABS	2	2	10VD 02VO 02VC 02MD 02MO 02MC 02RD 02RO	0	1	1.04189682007	None	None	None	None	1
2.7	2015_May_19_1651	s	s	12	2	SIC	421	RC	0	1	02VD 02VO 02VC 02MD 02MO 02MC 02RD 09RO	1	0	2.02388691902	342.0	271.0	343	268	1
2.7	2015_May_19_1651	s	s	12	2	SIC	422	RC	1	1	02VD 02VO 02VC 02MD 09MO 02MC 02RD 02RO	1	0	1.32455992699	167.0	-293.0	164	-295	1
2.7	2015_May_19_1651	s	s	12	2	SIC	423	RC	0	2	02VD 02VO 02VC 02MD 02MO 02MC 09RD 02RO	1	0	0.723551034927	-254.0	303.0	-246	311	1
2.7	2015_May_19_1651	s	s	12	2	SIC	424	RC	2	0	02VD 02VO 09VC 02MD 02MO 02MC 02RD 02RO	1	0	1.17652392387	297.0	-328.0	299	-336	1
2.7	2015_May_19_1651	s	s	12	2	SIC	425	ABS	2	1	02VD 10VO 02VC 02MD 02MO 02MC 02RD 02RO	0	1	1.84195494652	None	None	None	None	1
2.7	2015_May_19_1651	s	s	12	2	SIC	426	RC	2	2	09VD 02VO 02VC 02MD 02MO 02MC 02RD 02RO	1	0	1.17641186714	455.0	-69.0	449	-69	1
2.7	2015_May_19_1651	s	s	12	2	SIC	427	ABS	0	1	02VD 02VO 02VC 02MD 02MO 02MC 02RD 10RO	0	1	2.51369810104	None	None	None	None	1
2.7	2015_May_19_1651	s	s	12	2	SIC	428	RC	1	0	02VD 02VO 02VC 02MD 02MO 09MC 02RD 02RO	1	0	0.663788080215	-273.0	-63.0	-267	-60	1
2.7	2015_May_19_1651	s	s	12	2	SIC	429	RC	2	1	02VD 09VO 02VC 02MD 02MO 02MC 02RD 02RO	1	0	1.51772403717	-529.0	53.0	-538	55	1
2.7	2015_May_19_1651	s	s	12	2	SIC	430	ABS	1	1	02VD 02VO 02VC 02MD 10MO 02MC 02RD 02RO	0	1	1.6071908474	None	None	None	None	1
2.7	2015_May_19_1651	s	s	12	2	SIC	431	ABS	2	0	02VD 02VO 10VC 02MD 02MO 02MC 02RD 02RO	0	1	1.90621185303	None	None	None	None	1
2.7	2015_May_19_1651	s	s	12	2	SIC	432	ABS	0	2	02VD 02VO 02VC 02MD 02MO 02MC 10RD 02RO	0	1	1.81239891052	None	None	None	None	1
2.7	2015_May_19_1651	s	s	12	2	SIC	433	ABS	1	1	02VD 02VO 02VC 02MD 10MO 02MC 02RD 02RO	0	1	1.76499295235	None	None	None	None	1
2.7	2015_May_19_1651	s	s	12	2	SIC	434	RC	1	2	02VD 02VO 02VC 09MD 02MO 02MC 02RD 02RO	1	0	0.713001966476	187.0	140.0	186	136	1
2.7	2015_May_19_1651	s	s	12	2	SIC	435	ABS	2	0	02VD 02VO 10VC 02MD 02MO 02MC 02RD 02RO	0	1	1.50157594681	None	None	None	None	1
2.7	2015_May_19_1651	s	s	12	2	SIC	436	RC	1	0	02VD 02VO 02VC 02MD 02MO 09MC 02RD 02RO	1	0	1.64720916748	-324.0	234.0	-316	233	1
2.7	2015_May_19_1651	s	s	12	2	SIC	437	ABS	1	0	02VD 02VO 02VC 02MD 02MO 10MC 02RD 02RO	0	1	1.68983387947	None	None	None	None	1
2.7	2015_May_19_1651	s	s	12	2	SIC	438	RC	2	1	02VD 09VO 02VC 02MD 02MO 02MC 02RD 02RO	1	0	1.52973985672	359.0	278.0	358	281	1
2.7	2015_May_19_1651	s	s	12	2	SIC	439	ABS	1	2	02VD 02VO 02VC 10MD 02MO 02MC 02RD 02RO	0	1	1.33570694923	None	None	None	None	1
2.7	2015_May_19_1651	s	s	12	2	SIC	440	ABS	2	2	10VD 02VO 02VC 02MD 02MO 02MC 02RD 02RO	0	1	1.58330202103	None	None	None	None	1
2.7	2015_May_19_1651	s	s	12	2	SIC	441	ABS	2	1	02VD 10VO 02VC 02MD 02MO 02MC 02RD 02RO	0	1	1.5530731678	None	None	None	None	1
2.7	2015_May_19_1651	s	s	12	2	SIC	442	ABS	0	2	02VD 02VO 02VC 02MD 02MO 02MC 10RD 02RO	0	1	1.72475004196	None	None	None	None	1
2.7	2015_May_19_1651	s	s	12	2	SIC	443	RC	2	2	09VD 02VO 02VC 02MD 02MO 02MC 02RD 02RO	1	0	1.3623650074	-531.0	-132.0	-536	-131	1
2.7	2015_May_19_1651	s	s	12	2	SIC	444	RC	1	1	02VD 02VO 02VC 02MD 09MO 02MC 02RD 02RO	1	0	1.07797598839	-399.0	371.0	-389	371	1
2.7	2015_May_19_1651	s	s	12	2	SIC	445	RC	0	2	02VD 02VO 02VC 02MD 02MO 02MC 09RD 02RO	1	0	1.90988302231	-357.0	312.0	-347	312	1
2.7	2015_May_19_1651	s	s	12	2	SIC	446	ABS	0	1	02VD 02VO 02VC 02MD 02MO 02MC 02RD 10RO	0	1	3.40112400055	None	None	None	None	1
2.7	2015_May_19_1651	s	s	12	2	SIC	447	RC	0	1	02VD 02VO 02VC 02MD 02MO 02MC 02RD 09RO	1	0	2.94835495949	-439.0	263.0	-438	264	1
2.7	2015_May_19_1651	s	s	12	2	SIC	448	RC	2	0	02VD 02VO 09VC 02MD 02MO 02MC 02RD 02RO	1	0	1.51362395287	-391.0	-275.0	-389	-272	1
2.7	2015_May_19_1651	s	s	12	2	SIC	449	ABS	2	1	02VD 10VO 02VC 02MD 02MO 02MC 02RD 02RO	0	1	1.42364478111	None	None	None	None	1
2.7	2015_May_19_1651	s	s	12	2	SIC	450	ABS	2	2	10VD 02VO 02VC 02MD 02MO 02MC 02RD 02RO	0	1	1.63110494614	None	None	None	None	1
2.7	2015_May_19_1651	s	s	12	2	SIC	451	RC	1	1	02VD 02VO 02VC 02MD 09MO 02MC 02RD 02RO	1	0	0.925656080246	245.0	-250.0	246	-241	1
2.7	2015_May_19_1651	s	s	12	2	SIC	452	RC	2	1	02VD 09VO 02VC 02MD 02MO 02MC 02RD 02RO	1	0	0.687602996826	11.0	12.0	18	16	1
2.7	2015_May_19_1651	s	s	12	2	SIC	453	RC	0	1	02VD 02VO 02VC 02MD 02MO 02MC 02RD 09RO	1	0	0.717283010483	35.0	85.0	30	77	1
2.7	2015_May_19_1651	s	s	12	2	SIC	454	RC	2	2	09VD 02VO 02VC 02MD 02MO 02MC 02RD 02RO	1	0	1.08231496811	452.0	72.0	456	76	1
2.7	2015_May_19_1651	s	s	12	2	SIC	455	ABS	0	2	02VD 02VO 02VC 02MD 02MO 02MC 10RD 02RO	0	1	1.84389901161	None	None	None	None	1
2.7	2015_May_19_1651	s	s	12	2	SIC	456	RC	0	2	02VD 02VO 02VC 02MD 02MO 02MC 09RD 02RO	1	0	0.52904510498	-149.0	28.0	-146	30	1
2.7	2015_May_19_1651	s	s	12	2	SIC	457	RC	1	0	02VD 02VO 02VC 02MD 02MO 09MC 02RD 02RO	1	0	0.752655029297	43.0	-317.0	52	-317	1
2.7	2015_May_19_1651	s	s	12	2	SIC	458	ABS	2	0	02VD 02VO 10VC 02MD 02MO 02MC 02RD 02RO	0	1	1.60018587112	None	None	None	None	1
2.7	2015_May_19_1651	s	s	12	2	SIC	459	ABS	1	2	02VD 02VO 02VC 10MD 02MO 02MC 02RD 02RO	0	1	1.68915891647	None	None	None	None	1
2.7	2015_May_19_1651	s	s	12	2	SIC	460	RC	2	0	02VD 02VO 09VC 02MD 02MO 02MC 02RD 02RO	0	1	1.4943420887	422.0	188.0	None	None	0
2.7	2015_May_19_1651	s	s	12	2	SIC	461	ABS	0	1	02VD 02VO 02VC 02MD 02MO 02MC 02RD 10RO	0	1	2.75913405418	None	None	None	None	1
2.7	2015_May_19_1651	s	s	12	2	SIC	462	RC	1	2	02VD 02VO 02VC 09MD 02MO 02MC 02RD 02RO	1	0	1.10585403442	-275.0	-255.0	-271	-259	1
2.7	2015_May_19_1651	s	s	12	2	SIC	463	ABS	1	0	02VD 02VO 02VC 02MD 02MO 10MC 02RD 02RO	0	1	2.3534719944	None	None	None	None	1
2.7	2015_May_19_1651	s	s	12	2	SIC	464	ABS	1	1	02VD 02VO 02VC 02MD 10MO 02MC 02RD 02RO	0	1	1.77122807503	None	None	None	None	1
2.7	2015_May_19_1651	s	s	12	2	SIC	465	ABS	1	1	02VD 02VO 02VC 02MD 10MO 02MC 02RD 02RO	0	1	2.62084889412	None	None	None	None	1
2.7	2015_May_19_1651	s	s	12	2	SIC	466	RC	1	2	02VD 02VO 02VC 09MD 02MO 02MC 02RD 02RO	1	0	0.642128944397	310.0	162.0	315	160	1
2.7	2015_May_19_1651	s	s	12	2	SIC	467	RC	2	0	02VD 02VO 09VC 02MD 02MO 02MC 02RD 02RO	1	0	1.06713104248	-483.0	-197.0	-472	-191	1
2.7	2015_May_19_1651	s	s	12	2	SIC	468	ABS	2	2	10VD 02VO 02VC 02MD 02MO 02MC 02RD 02RO	0	1	1.44705295563	None	None	None	None	1
2.7	2015_May_19_1651	s	s	12	2	SIC	469	ABS	2	0	02VD 02VO 10VC 02MD 02MO 02MC 02RD 02RO	0	1	1.52951598167	None	None	None	None	1
2.7	2015_May_19_1651	s	s	12	2	SIC	470	ABS	0	2	02VD 02VO 02VC 02MD 02MO 02MC 10RD 02RO	0	1	1.62034487724	None	None	None	None	1
2.7	2015_May_19_1651	s	s	12	2	SIC	471	RC	1	1	02VD 02VO 02VC 02MD 09MO 02MC 02RD 02RO	1	0	0.952740907669	-152.0	404.0	-158	404	1
2.7	2015_May_19_1651	s	s	12	2	SIC	472	RC	2	1	02VD 09VO 02VC 02MD 02MO 02MC 02RD 02RO	1	0	0.677079200745	-67.0	232.0	-68	224	1
2.7	2015_May_19_1651	s	s	12	2	SIC	473	RC	1	0	02VD 02VO 02VC 02MD 02MO 09MC 02RD 02RO	1	0	1.66273784637	390.0	-235.0	388	-232	1
2.7	2015_May_19_1651	s	s	12	2	SIC	474	RC	2	2	09VD 02VO 02VC 02MD 02MO 02MC 02RD 02RO	1	0	1.07043504715	-398.0	176.0	-400	182	1
2.7	2015_May_19_1651	s	s	12	2	SIC	475	ABS	1	0	02VD 02VO 02VC 02MD 02MO 10MC 02RD 02RO	0	1	1.74135398865	None	None	None	None	1
2.7	2015_May_19_1651	s	s	12	2	SIC	476	RC	0	1	02VD 02VO 02VC 02MD 02MO 02MC 02RD 09RO	1	0	2.13901901245	-489.0	-236.0	-501	-230	1
2.7	2015_May_19_1651	s	s	12	2	SIC	477	RC	0	2	02VD 02VO 02VC 02MD 02MO 02MC 09RD 02RO	1	0	0.646687984467	-124.0	123.0	-127	111	1
2.7	2015_May_19_1651	s	s	12	2	SIC	478	ABS	1	2	02VD 02VO 02VC 10MD 02MO 02MC 02RD 02RO	0	1	1.61561489105	None	None	None	None	1
2.7	2015_May_19_1651	s	s	12	2	SIC	479	ABS	0	1	02VD 02VO 02VC 02MD 02MO 02MC 02RD 10RO	0	1	3.23358416557	None	None	None	None	1
2.7	2015_May_19_1651	s	s	12	2	SIC	480	ABS	2	1	02VD 10VO 02VC 02MD 02MO 02MC 02RD 02RO	0	1	1.70608091354	None	None	None	None	1
