Version	Date	Stimuli	Method	Subject	Session	Condition	Trial	Target	Channel1	Channel2	Distractors	LMouseButton	RMouseButton	RT	TargetX	TargetY	ResponseX	ResponseY	Correct
2.7	2015_May_21_1538	s	s	13	4	Capacity	1	RC	0	2	15RD 08RO	1	0	1.3059592247	-379.0	-228.0	-374	-225	1
2.7	2015_May_21_1538	s	s	13	4	Capacity	2	ABS	0	2	16RD 08RO	0	1	1.52956390381	None	None	None	None	1
2.7	2015_May_21_1538	s	s	13	4	Capacity	3	RC	0	1	08RD 15RO	1	0	1.96171712875	67.0	-144.0	72	-139	1
2.7	2015_May_21_1538	s	s	13	4	Capacity	4	ABS	0	1	08RD 16RO	0	1	3.58676791191	None	None	None	None	1
2.7	2015_May_21_1538	s	s	13	4	Capacity	5	RC	0	1	08RD 15RO	1	0	0.641345024109	419.0	137.0	416	135	1
2.7	2015_May_21_1538	s	s	13	4	Capacity	6	ABS	0	2	16RD 08RO	0	1	2.12547516823	None	None	None	None	1
2.7	2015_May_21_1538	s	s	13	4	Capacity	7	RC	0	2	15RD 08RO	1	0	1.02999401093	54.0	-77.0	56	-76	1
2.7	2015_May_21_1538	s	s	13	4	Capacity	8	ABS	0	1	08RD 16RO	0	1	3.29513788223	None	None	None	None	1
2.7	2015_May_21_1538	s	s	13	4	Capacity	9	ABS	0	1	08RD 16RO	0	1	3.84361600876	None	None	None	None	1
2.7	2015_May_21_1538	s	s	13	4	Capacity	10	RC	0	2	15RD 08RO	1	0	0.654145956039	74.0	89.0	84	91	1
2.7	2015_May_21_1538	s	s	13	4	Capacity	11	ABS	0	2	16RD 08RO	0	1	1.92609596252	None	None	None	None	1
2.7	2015_May_21_1538	s	s	13	4	Capacity	12	RC	0	1	08RD 15RO	1	0	1.63532805443	-304.0	-340.0	-295	-336	1
2.7	2015_May_21_1538	s	s	13	4	Capacity	13	RC	0	2	15RD 08RO	1	0	1.40687322617	262.0	-397.0	264	-398	1
2.7	2015_May_21_1538	s	s	13	4	Capacity	14	RC	0	1	08RD 15RO	1	0	2.17341518402	199.0	361.0	195	362	1
2.7	2015_May_21_1538	s	s	13	4	Capacity	15	ABS	0	2	16RD 08RO	0	1	2.280189991	None	None	None	None	1
2.7	2015_May_21_1538	s	s	13	4	Capacity	16	ABS	0	1	08RD 16RO	1	0	2.75371217728	None	None	2	0	0
2.7	2015_May_21_1538	s	s	13	4	Capacity	17	RC	0	2	15RD 08RO	1	0	0.874938964844	375.0	316.0	374	321	1
2.7	2015_May_21_1538	s	s	13	4	Capacity	18	RC	0	1	08RD 15RO	1	0	1.19503903389	22.0	-184.0	24	-186	1
2.7	2015_May_21_1538	s	s	13	4	Capacity	19	ABS	0	2	16RD 08RO	0	1	1.89435482025	None	None	None	None	1
2.7	2015_May_21_1538	s	s	13	4	Capacity	20	ABS	0	1	08RD 16RO	0	1	3.4129319191	None	None	None	None	1
2.7	2015_May_21_1538	s	s	13	4	Capacity	21	ABS	0	2	16RD 08RO	0	1	2.30629301071	None	None	None	None	1
2.7	2015_May_21_1538	s	s	13	4	Capacity	22	RC	0	1	08RD 15RO	0	1	2.78894710541	280.0	279.0	None	None	0
2.7	2015_May_21_1538	s	s	13	4	Capacity	23	RC	0	2	15RD 08RO	1	0	2.57712984085	-451.0	264.0	-451	266	1
2.7	2015_May_21_1538	s	s	13	4	Capacity	24	ABS	0	1	08RD 16RO	0	1	2.81313681602	None	None	None	None	1
2.7	2015_May_21_1538	s	s	13	4	Capacity	25	ABS	0	2	16RD 08RO	0	1	1.96516609192	None	None	None	None	1
2.7	2015_May_21_1538	s	s	13	4	Capacity	26	RC	0	1	08RD 15RO	1	0	1.89437294006	-512.0	273.0	-501	277	1
2.7	2015_May_21_1538	s	s	13	4	Capacity	27	RC	0	2	15RD 08RO	1	0	1.16147398949	-222.0	-225.0	-218	-223	1
2.7	2015_May_21_1538	s	s	13	4	Capacity	28	ABS	0	1	08RD 16RO	0	1	3.28338885307	None	None	None	None	1
2.7	2015_May_21_1538	s	s	13	4	Capacity	29	RC	0	1	08RD 15RO	0	1	3.82085299492	80.0	-15.0	None	None	0
2.7	2015_May_21_1538	s	s	13	4	Capacity	30	ABS	0	2	16RD 08RO	0	1	3.01268792152	None	None	None	None	1
2.7	2015_May_21_1538	s	s	13	4	Capacity	31	ABS	0	1	08RD 16RO	0	1	3.37232494354	None	None	None	None	1
2.7	2015_May_21_1538	s	s	13	4	Capacity	32	RC	0	2	15RD 08RO	1	0	2.10207891464	-453.0	303.0	-451	300	1
2.7	2015_May_21_1538	s	s	13	4	Capacity	33	RC	0	1	08RD 15RO	1	0	1.07041978836	467.0	-228.0	470	-229	1
2.7	2015_May_21_1538	s	s	13	4	Capacity	34	ABS	0	2	16RD 08RO	0	1	2.2064230442	None	None	None	None	1
2.7	2015_May_21_1538	s	s	13	4	Capacity	35	ABS	0	1	08RD 16RO	0	1	3.73933911324	None	None	None	None	1
2.7	2015_May_21_1538	s	s	13	4	Capacity	36	RC	0	2	15RD 08RO	1	0	0.71383190155	105.0	144.0	106	142	1
2.7	2015_May_21_1538	s	s	13	4	Capacity	37	ABS	0	1	08RD 16RO	0	1	2.08318781853	None	None	None	None	1
2.7	2015_May_21_1538	s	s	13	4	Capacity	38	ABS	0	2	16RD 08RO	0	1	2.61253595352	None	None	None	None	1
2.7	2015_May_21_1538	s	s	13	4	Capacity	39	RC	0	1	08RD 15RO	1	0	1.16467404366	-320.0	-232.0	-309	-232	1
2.7	2015_May_21_1538	s	s	13	4	Capacity	40	RC	0	2	15RD 08RO	1	0	0.796960830688	387.0	41.0	386	41	1
2.7	2015_May_21_1538	s	s	13	4	Capacity	41	ABS	0	1	08RD 16RO	0	1	3.63655209541	None	None	None	None	1
2.7	2015_May_21_1538	s	s	13	4	Capacity	42	RC	0	2	15RD 08RO	1	0	0.723392963409	99.0	105.0	103	107	1
2.7	2015_May_21_1538	s	s	13	4	Capacity	43	RC	0	1	08RD 15RO	1	0	1.10253691673	444.0	-169.0	444	-175	1
2.7	2015_May_21_1538	s	s	13	4	Capacity	44	ABS	0	2	16RD 08RO	0	1	2.04299497604	None	None	None	None	1
2.7	2015_May_21_1538	s	s	13	4	Capacity	45	RC	0	2	15RD 08RO	1	0	1.77231097221	-248.0	-146.0	-247	-142	1
2.7	2015_May_21_1538	s	s	13	4	Capacity	46	ABS	0	2	16RD 08RO	0	1	2.84836411476	None	None	None	None	1
2.7	2015_May_21_1538	s	s	13	4	Capacity	47	ABS	0	1	08RD 16RO	0	1	3.04365086555	None	None	None	None	1
2.7	2015_May_21_1538	s	s	13	4	Capacity	48	RC	0	1	08RD 15RO	1	0	1.45635986328	-280.0	-43.0	-282	-44	1
2.7	2015_May_21_1538	s	s	13	4	Capacity	49	RC	0	1	08RD 15RO	1	0	2.24424600601	-536.0	85.0	-538	82	1
2.7	2015_May_21_1538	s	s	13	4	Capacity	50	ABS	0	2	16RD 08RO	0	1	1.92964911461	None	None	None	None	1
2.7	2015_May_21_1538	s	s	13	4	Capacity	51	RC	0	2	15RD 08RO	1	0	0.693682909012	291.0	185.0	292	189	1
2.7	2015_May_21_1538	s	s	13	4	Capacity	52	ABS	0	1	08RD 16RO	0	1	3.38931298256	None	None	None	None	1
2.7	2015_May_21_1538	s	s	13	4	Capacity	53	RC	0	2	15RD 08RO	1	0	1.17644286156	-301.0	-286.0	-298	-293	1
2.7	2015_May_21_1538	s	s	13	4	Capacity	54	RC	0	1	08RD 15RO	1	0	2.27151083946	-535.0	-196.0	-544	-194	1
2.7	2015_May_21_1538	s	s	13	4	Capacity	55	ABS	0	2	16RD 08RO	0	1	2.53663301468	None	None	None	None	1
2.7	2015_May_21_1538	s	s	13	4	Capacity	56	ABS	0	1	08RD 16RO	0	1	2.6360309124	None	None	None	None	1
2.7	2015_May_21_1538	s	s	13	4	Capacity	57	ABS	0	2	16RD 08RO	0	1	1.94155406952	None	None	None	None	1
2.7	2015_May_21_1538	s	s	13	4	Capacity	58	RC	0	1	08RD 15RO	1	0	1.23024296761	-301.0	-346.0	-304	-346	1
2.7	2015_May_21_1538	s	s	13	4	Capacity	59	ABS	0	1	08RD 16RO	0	1	2.15940999985	None	None	None	None	1
2.7	2015_May_21_1538	s	s	13	4	Capacity	60	RC	0	2	15RD 08RO	1	0	2.04373288155	160.0	-163.0	159	-168	1
2.7	2015_May_21_1538	s	s	13	4	Capacity	61	RC	0	1	08RD 15RO	1	0	0.83495593071	331.0	-258.0	326	-262	1
2.7	2015_May_21_1538	s	s	13	4	Capacity	62	RC	0	2	15RD 08RO	0	1	1.90622591972	311.0	337.0	None	None	0
2.7	2015_May_21_1538	s	s	13	4	Capacity	63	ABS	0	2	16RD 08RO	0	1	2.12981319427	None	None	None	None	1
2.7	2015_May_21_1538	s	s	13	4	Capacity	64	ABS	0	1	08RD 16RO	0	1	4.61989283562	None	None	None	None	1
2.7	2015_May_21_1538	s	s	13	4	Capacity	1	ABS	2	0	16VC 08MC	0	1	1.89194583893	None	None	None	None	1
2.7	2015_May_21_1538	s	s	13	4	Capacity	2	RC	1	0	08VC 15MC	1	0	0.670567035675	414.0	46.0	415	42	1
2.7	2015_May_21_1538	s	s	13	4	Capacity	3	ABS	1	0	08VC 16MC	0	1	2.00036501884	None	None	None	None	1
2.7	2015_May_21_1538	s	s	13	4	Capacity	4	RC	2	0	15VC 08MC	1	0	0.658437013626	-222.0	22.0	-220	19	1
2.7	2015_May_21_1538	s	s	13	4	Capacity	5	RC	1	0	08VC 15MC	1	0	0.752668857574	-73.0	-263.0	-72	-268	1
2.7	2015_May_21_1538	s	s	13	4	Capacity	6	RC	2	0	15VC 08MC	1	0	0.829391002655	-178.0	383.0	-180	386	1
2.7	2015_May_21_1538	s	s	13	4	Capacity	7	ABS	2	0	16VC 08MC	0	1	1.91795992851	None	None	None	None	1
2.7	2015_May_21_1538	s	s	13	4	Capacity	8	ABS	1	0	08VC 16MC	0	1	1.94876599312	None	None	None	None	1
2.7	2015_May_21_1538	s	s	13	4	Capacity	9	RC	2	0	15VC 08MC	1	0	0.905819892883	-454.0	214.0	-451	214	1
2.7	2015_May_21_1538	s	s	13	4	Capacity	10	ABS	1	0	08VC 16MC	0	1	2.51333999634	None	None	None	None	1
2.7	2015_May_21_1538	s	s	13	4	Capacity	11	ABS	2	0	16VC 08MC	0	1	1.90612792969	None	None	None	None	1
2.7	2015_May_21_1538	s	s	13	4	Capacity	12	RC	1	0	08VC 15MC	1	0	0.71208691597	421.0	-74.0	424	-76	1
2.7	2015_May_21_1538	s	s	13	4	Capacity	13	ABS	1	0	08VC 16MC	0	1	1.14819788933	None	None	None	None	1
2.7	2015_May_21_1538	s	s	13	4	Capacity	14	RC	1	0	08VC 15MC	1	0	0.587901830673	513.0	273.0	518	268	1
2.7	2015_May_21_1538	s	s	13	4	Capacity	15	RC	2	0	15VC 08MC	1	0	0.623227119446	-111.0	85.0	-109	81	1
2.7	2015_May_21_1538	s	s	13	4	Capacity	16	ABS	2	0	16VC 08MC	0	1	1.58367705345	None	None	None	None	1
2.7	2015_May_21_1538	s	s	13	4	Capacity	17	RC	1	0	08VC 15MC	1	0	0.714855909348	398.0	171.0	405	174	1
2.7	2015_May_21_1538	s	s	13	4	Capacity	18	ABS	1	0	08VC 16MC	0	1	2.27114009857	None	None	None	None	1
2.7	2015_May_21_1538	s	s	13	4	Capacity	19	RC	2	0	15VC 08MC	1	0	2.41906499863	462.0	45.0	459	47	1
2.7	2015_May_21_1538	s	s	13	4	Capacity	20	ABS	2	0	16VC 08MC	0	1	1.88869094849	None	None	None	None	1
2.7	2015_May_21_1538	s	s	13	4	Capacity	21	RC	2	0	15VC 08MC	1	0	0.631290912628	385.0	-21.0	380	-20	1
2.7	2015_May_21_1538	s	s	13	4	Capacity	22	ABS	1	0	08VC 16MC	0	1	1.66805410385	None	None	None	None	1
2.7	2015_May_21_1538	s	s	13	4	Capacity	23	ABS	2	0	16VC 08MC	0	1	1.40754199028	None	None	None	None	1
2.7	2015_May_21_1538	s	s	13	4	Capacity	24	RC	1	0	08VC 15MC	1	0	0.964474916458	14.0	-331.0	19	-327	1
2.7	2015_May_21_1538	s	s	13	4	Capacity	25	ABS	2	0	16VC 08MC	0	1	1.5482609272	None	None	None	None	1
2.7	2015_May_21_1538	s	s	13	4	Capacity	26	ABS	1	0	08VC 16MC	0	1	1.7766919136	None	None	None	None	1
2.7	2015_May_21_1538	s	s	13	4	Capacity	27	RC	2	0	15VC 08MC	1	0	0.623241186142	381.0	-166.0	382	-168	1
2.7	2015_May_21_1538	s	s	13	4	Capacity	28	RC	1	0	08VC 15MC	1	0	0.917620897293	-359.0	90.0	-363	88	1
2.7	2015_May_21_1538	s	s	13	4	Capacity	29	RC	1	0	08VC 15MC	1	0	0.970993995667	476.0	-187.0	470	-188	1
2.7	2015_May_21_1538	s	s	13	4	Capacity	30	RC	2	0	15VC 08MC	1	0	0.634752035141	519.0	53.0	521	50	1
2.7	2015_May_21_1538	s	s	13	4	Capacity	31	ABS	1	0	08VC 16MC	0	1	2.11309313774	None	None	None	None	1
2.7	2015_May_21_1538	s	s	13	4	Capacity	32	ABS	2	0	16VC 08MC	0	1	1.60766100883	None	None	None	None	1
2.7	2015_May_21_1538	s	s	13	4	Capacity	33	RC	1	0	08VC 15MC	1	0	1.06792902946	-340.0	61.0	-342	64	1
2.7	2015_May_21_1538	s	s	13	4	Capacity	34	RC	2	0	15VC 08MC	1	0	1.74693393707	-512.0	343.0	-514	348	1
2.7	2015_May_21_1538	s	s	13	4	Capacity	35	ABS	2	0	16VC 08MC	0	1	1.35971903801	None	None	None	None	1
2.7	2015_May_21_1538	s	s	13	4	Capacity	36	ABS	1	0	08VC 16MC	0	1	2.077917099	None	None	None	None	1
2.7	2015_May_21_1538	s	s	13	4	Capacity	37	ABS	2	0	16VC 08MC	0	1	1.0940759182	None	None	None	None	1
2.7	2015_May_21_1538	s	s	13	4	Capacity	38	ABS	1	0	08VC 16MC	0	1	2.2070171833	None	None	None	None	1
2.7	2015_May_21_1538	s	s	13	4	Capacity	39	RC	1	0	08VC 15MC	1	0	1.105864048	-497.0	84.0	-499	90	1
2.7	2015_May_21_1538	s	s	13	4	Capacity	40	RC	2	0	15VC 08MC	1	0	0.969671964645	-318.0	-268.0	-318	-262	1
2.7	2015_May_21_1538	s	s	13	4	Capacity	41	RC	1	0	08VC 15MC	1	0	0.776169061661	-137.0	-237.0	-136	-250	1
2.7	2015_May_21_1538	s	s	13	4	Capacity	42	ABS	2	0	16VC 08MC	0	1	1.61823701859	None	None	None	None	1
2.7	2015_May_21_1538	s	s	13	4	Capacity	43	ABS	1	0	08VC 16MC	0	1	1.92170286179	None	None	None	None	1
2.7	2015_May_21_1538	s	s	13	4	Capacity	44	RC	2	0	15VC 08MC	1	0	0.620810031891	-233.0	-171.0	-235	-170	1
2.7	2015_May_21_1538	s	s	13	4	Capacity	45	ABS	1	0	08VC 16MC	0	1	1.27826404572	None	None	None	None	1
2.7	2015_May_21_1538	s	s	13	4	Capacity	46	RC	2	0	15VC 08MC	1	0	0.611535072327	-211.0	-104.0	-210	-110	1
2.7	2015_May_21_1538	s	s	13	4	Capacity	47	RC	1	0	08VC 15MC	1	0	0.55619597435	269.0	-51.0	275	-52	1
2.7	2015_May_21_1538	s	s	13	4	Capacity	48	ABS	2	0	16VC 08MC	0	1	1.26789712906	None	None	None	None	1
2.7	2015_May_21_1538	s	s	13	4	Capacity	49	ABS	1	0	08VC 16MC	0	1	1.30588006973	None	None	None	None	1
2.7	2015_May_21_1538	s	s	13	4	Capacity	50	RC	1	0	08VC 15MC	1	0	0.536612033844	167.0	30.0	172	23	1
2.7	2015_May_21_1538	s	s	13	4	Capacity	51	ABS	2	0	16VC 08MC	1	0	1.78848195076	None	None	-166	16	0
2.7	2015_May_21_1538	s	s	13	4	Capacity	52	RC	2	0	15VC 08MC	1	0	1.12462306023	226.0	-155.0	229	-153	1
2.7	2015_May_21_1538	s	s	13	4	Capacity	53	RC	1	0	08VC 15MC	1	0	0.540811061859	7.0	8.0	5	4	1
2.7	2015_May_21_1538	s	s	13	4	Capacity	54	ABS	1	0	08VC 16MC	0	1	1.71546196938	None	None	None	None	1
2.7	2015_May_21_1538	s	s	13	4	Capacity	55	ABS	2	0	16VC 08MC	0	1	2.18357300758	None	None	None	None	1
2.7	2015_May_21_1538	s	s	13	4	Capacity	56	RC	2	0	15VC 08MC	1	0	1.27048897743	-434.0	320.0	-432	325	1
2.7	2015_May_21_1538	s	s	13	4	Capacity	57	ABS	1	0	08VC 16MC	0	1	2.23148298264	None	None	None	None	1
2.7	2015_May_21_1538	s	s	13	4	Capacity	58	RC	2	0	15VC 08MC	1	0	0.67014503479	-332.0	197.0	-332	206	1
2.7	2015_May_21_1538	s	s	13	4	Capacity	59	ABS	2	0	16VC 08MC	0	1	1.35303807259	None	None	None	None	1
2.7	2015_May_21_1538	s	s	13	4	Capacity	60	RC	1	0	08VC 15MC	1	0	1.5009829998	-406.0	352.0	-403	356	1
2.7	2015_May_21_1538	s	s	13	4	Capacity	61	RC	2	0	15VC 08MC	1	0	1.7010641098	530.0	-353.0	530	-351	1
2.7	2015_May_21_1538	s	s	13	4	Capacity	62	ABS	1	0	08VC 16MC	0	1	1.38585805893	None	None	None	None	1
2.7	2015_May_21_1538	s	s	13	4	Capacity	63	ABS	2	0	16VC 08MC	0	1	1.74142313004	None	None	None	None	1
2.7	2015_May_21_1538	s	s	13	4	Capacity	64	RC	1	0	08VC 15MC	1	0	0.994446992874	52.0	-275.0	55	-275	1
2.7	2015_May_21_1538	s	s	13	4	SIC	1	RC	1	2	02VD 02VO 02VC 09MD 02MO 02MC 02RD 02RO	1	0	1.51324081421	39.0	-305.0	43	-306	1
2.7	2015_May_21_1538	s	s	13	4	SIC	2	ABS	0	2	02VD 02VO 02VC 02MD 02MO 02MC 10RD 02RO	0	1	2.11501193047	None	None	None	None	1
2.7	2015_May_21_1538	s	s	13	4	SIC	3	RC	2	2	09VD 02VO 02VC 02MD 02MO 02MC 02RD 02RO	1	0	1.27621603012	-493.0	-31.0	-503	-29	1
2.7	2015_May_21_1538	s	s	13	4	SIC	4	RC	2	0	02VD 02VO 09VC 02MD 02MO 02MC 02RD 02RO	1	0	1.59212803841	-298.0	-316.0	-296	-319	1
2.7	2015_May_21_1538	s	s	13	4	SIC	5	RC	1	1	02VD 02VO 02VC 02MD 09MO 02MC 02RD 02RO	1	0	0.752546787262	-14.0	286.0	-12	290	1
2.7	2015_May_21_1538	s	s	13	4	SIC	6	ABS	1	2	02VD 02VO 02VC 10MD 02MO 02MC 02RD 02RO	0	1	1.4588739872	None	None	None	None	1
2.7	2015_May_21_1538	s	s	13	4	SIC	7	RC	0	2	02VD 02VO 02VC 02MD 02MO 02MC 09RD 02RO	1	0	0.724039077759	251.0	-47.0	256	-49	1
2.7	2015_May_21_1538	s	s	13	4	SIC	8	RC	2	1	02VD 09VO 02VC 02MD 02MO 02MC 02RD 02RO	1	0	1.05873799324	-421.0	-32.0	-417	-40	1
2.7	2015_May_21_1538	s	s	13	4	SIC	9	ABS	0	1	02VD 02VO 02VC 02MD 02MO 02MC 02RD 10RO	0	1	3.6904168129	None	None	None	None	1
2.7	2015_May_21_1538	s	s	13	4	SIC	10	ABS	2	2	10VD 02VO 02VC 02MD 02MO 02MC 02RD 02RO	0	1	1.22063088417	None	None	None	None	1
2.7	2015_May_21_1538	s	s	13	4	SIC	11	ABS	1	1	02VD 02VO 02VC 02MD 10MO 02MC 02RD 02RO	0	1	1.64729404449	None	None	None	None	1
2.7	2015_May_21_1538	s	s	13	4	SIC	12	RC	0	1	02VD 02VO 02VC 02MD 02MO 02MC 02RD 09RO	1	0	1.22369623184	431.0	-82.0	436	-85	1
2.7	2015_May_21_1538	s	s	13	4	SIC	13	RC	1	0	02VD 02VO 02VC 02MD 02MO 09MC 02RD 02RO	1	0	0.747736930847	61.0	-98.0	64	-107	1
2.7	2015_May_21_1538	s	s	13	4	SIC	14	ABS	1	0	02VD 02VO 02VC 02MD 02MO 10MC 02RD 02RO	1	0	1.54117798805	None	None	259	-63	0
2.7	2015_May_21_1538	s	s	13	4	SIC	15	ABS	2	0	02VD 02VO 10VC 02MD 02MO 02MC 02RD 02RO	0	1	1.24176311493	None	None	None	None	1
2.7	2015_May_21_1538	s	s	13	4	SIC	16	ABS	2	1	02VD 10VO 02VC 02MD 02MO 02MC 02RD 02RO	0	1	2.18870902061	None	None	None	None	1
2.7	2015_May_21_1538	s	s	13	4	SIC	17	ABS	1	1	02VD 02VO 02VC 02MD 10MO 02MC 02RD 02RO	0	1	1.83551597595	None	None	None	None	1
2.7	2015_May_21_1538	s	s	13	4	SIC	18	ABS	2	2	10VD 02VO 02VC 02MD 02MO 02MC 02RD 02RO	0	1	1.74977993965	None	None	None	None	1
2.7	2015_May_21_1538	s	s	13	4	SIC	19	RC	1	0	02VD 02VO 02VC 02MD 02MO 09MC 02RD 02RO	1	0	1.82127714157	344.0	152.0	350	154	1
2.7	2015_May_21_1538	s	s	13	4	SIC	20	ABS	0	2	02VD 02VO 02VC 02MD 02MO 02MC 10RD 02RO	0	1	1.80028295517	None	None	None	None	1
2.7	2015_May_21_1538	s	s	13	4	SIC	21	RC	1	2	02VD 02VO 02VC 09MD 02MO 02MC 02RD 02RO	1	0	1.32555007935	-523.0	-131.0	-527	-136	1
2.7	2015_May_21_1538	s	s	13	4	SIC	22	RC	0	1	02VD 02VO 02VC 02MD 02MO 02MC 02RD 09RO	1	0	0.572251081467	268.0	193.0	258	191	1
2.7	2015_May_21_1538	s	s	13	4	SIC	23	ABS	1	0	02VD 02VO 02VC 02MD 02MO 10MC 02RD 02RO	0	1	1.44711303711	None	None	None	None	1
2.7	2015_May_21_1538	s	s	13	4	SIC	24	RC	0	2	02VD 02VO 02VC 02MD 02MO 02MC 09RD 02RO	1	0	1.2281730175	489.0	-235.0	495	-238	1
2.7	2015_May_21_1538	s	s	13	4	SIC	25	RC	2	2	09VD 02VO 02VC 02MD 02MO 02MC 02RD 02RO	1	0	1.21836519241	-444.0	142.0	-447	147	1
2.7	2015_May_21_1538	s	s	13	4	SIC	26	RC	1	1	02VD 02VO 02VC 02MD 09MO 02MC 02RD 02RO	1	0	1.33846211433	480.0	-308.0	472	-305	1
2.7	2015_May_21_1538	s	s	13	4	SIC	27	RC	2	1	02VD 09VO 02VC 02MD 02MO 02MC 02RD 02RO	1	0	1.37655091286	524.0	-222.0	536	-220	1
2.7	2015_May_21_1538	s	s	13	4	SIC	28	RC	2	0	02VD 02VO 09VC 02MD 02MO 02MC 02RD 02RO	1	0	1.32939910889	-494.0	-282.0	-502	-282	1
2.7	2015_May_21_1538	s	s	13	4	SIC	29	ABS	0	1	02VD 02VO 02VC 02MD 02MO 02MC 02RD 10RO	0	1	3.12719011307	None	None	None	None	1
2.7	2015_May_21_1538	s	s	13	4	SIC	30	ABS	2	1	02VD 10VO 02VC 02MD 02MO 02MC 02RD 02RO	0	1	1.80021905899	None	None	None	None	1
2.7	2015_May_21_1538	s	s	13	4	SIC	31	ABS	1	2	02VD 02VO 02VC 10MD 02MO 02MC 02RD 02RO	0	1	1.43533778191	None	None	None	None	1
2.7	2015_May_21_1538	s	s	13	4	SIC	32	ABS	2	0	02VD 02VO 10VC 02MD 02MO 02MC 02RD 02RO	0	1	1.18316888809	None	None	None	None	1
2.7	2015_May_21_1538	s	s	13	4	SIC	33	RC	0	1	02VD 02VO 02VC 02MD 02MO 02MC 02RD 09RO	0	1	3.10423493385	470.0	336.0	None	None	0
2.7	2015_May_21_1538	s	s	13	4	SIC	34	RC	2	0	02VD 02VO 09VC 02MD 02MO 02MC 02RD 02RO	1	0	1.05067300797	-242.0	156.0	-236	150	1
2.7	2015_May_21_1538	s	s	13	4	SIC	35	ABS	1	0	02VD 02VO 02VC 02MD 02MO 10MC 02RD 02RO	0	1	1.49414491653	None	None	None	None	1
2.7	2015_May_21_1538	s	s	13	4	SIC	36	ABS	0	1	02VD 02VO 02VC 02MD 02MO 02MC 02RD 10RO	0	1	2.5250120163	None	None	None	None	1
2.7	2015_May_21_1538	s	s	13	4	SIC	37	ABS	1	1	02VD 02VO 02VC 02MD 10MO 02MC 02RD 02RO	0	1	1.77682614326	None	None	None	None	1
2.7	2015_May_21_1538	s	s	13	4	SIC	38	RC	2	2	09VD 02VO 02VC 02MD 02MO 02MC 02RD 02RO	1	0	1.66609382629	-266.0	251.0	-259	256	1
2.7	2015_May_21_1538	s	s	13	4	SIC	39	ABS	1	2	02VD 02VO 02VC 10MD 02MO 02MC 02RD 02RO	0	1	2.04738616943	None	None	None	None	1
2.7	2015_May_21_1538	s	s	13	4	SIC	40	RC	2	1	02VD 09VO 02VC 02MD 02MO 02MC 02RD 02RO	1	0	0.658440113068	-194.0	-128.0	-189	-128	1
2.7	2015_May_21_1538	s	s	13	4	SIC	41	ABS	2	1	02VD 10VO 02VC 02MD 02MO 02MC 02RD 02RO	0	1	1.86359190941	None	None	None	None	1
2.7	2015_May_21_1538	s	s	13	4	SIC	42	RC	1	0	02VD 02VO 02VC 02MD 02MO 09MC 02RD 02RO	1	0	0.996331930161	402.0	-242.0	409	-241	1
2.7	2015_May_21_1538	s	s	13	4	SIC	43	ABS	0	2	02VD 02VO 02VC 02MD 02MO 02MC 10RD 02RO	0	1	1.37394189835	None	None	None	None	1
2.7	2015_May_21_1538	s	s	13	4	SIC	44	RC	1	1	02VD 02VO 02VC 02MD 09MO 02MC 02RD 02RO	1	0	1.28924489021	121.0	-311.0	128	-317	1
2.7	2015_May_21_1538	s	s	13	4	SIC	45	ABS	2	2	10VD 02VO 02VC 02MD 02MO 02MC 02RD 02RO	0	1	1.45374917984	None	None	None	None	1
2.7	2015_May_21_1538	s	s	13	4	SIC	46	RC	1	2	02VD 02VO 02VC 09MD 02MO 02MC 02RD 02RO	1	0	1.76496601105	453.0	359.0	455	353	1
2.7	2015_May_21_1538	s	s	13	4	SIC	47	RC	0	2	02VD 02VO 02VC 02MD 02MO 02MC 09RD 02RO	1	0	1.6327149868	537.0	285.0	532	279	1
2.7	2015_May_21_1538	s	s	13	4	SIC	48	ABS	2	0	02VD 02VO 10VC 02MD 02MO 02MC 02RD 02RO	0	1	1.29408192635	None	None	None	None	1
2.7	2015_May_21_1538	s	s	13	4	SIC	49	ABS	1	1	02VD 02VO 02VC 02MD 10MO 02MC 02RD 02RO	0	1	2.33636713028	None	None	None	None	1
2.7	2015_May_21_1538	s	s	13	4	SIC	50	ABS	2	1	02VD 10VO 02VC 02MD 02MO 02MC 02RD 02RO	0	1	1.57702302933	None	None	None	None	1
2.7	2015_May_21_1538	s	s	13	4	SIC	51	RC	2	1	02VD 09VO 02VC 02MD 02MO 02MC 02RD 02RO	1	0	0.609140872955	226.0	-8.0	228	-13	1
2.7	2015_May_21_1538	s	s	13	4	SIC	52	RC	0	2	02VD 02VO 02VC 02MD 02MO 02MC 09RD 02RO	1	0	0.512499094009	294.0	-22.0	296	-25	1
2.7	2015_May_21_1538	s	s	13	4	SIC	53	ABS	2	2	10VD 02VO 02VC 02MD 02MO 02MC 02RD 02RO	0	1	1.64729094505	None	None	None	None	1
2.7	2015_May_21_1538	s	s	13	4	SIC	54	ABS	1	0	02VD 02VO 02VC 02MD 02MO 10MC 02RD 02RO	0	1	1.72422003746	None	None	None	None	1
2.7	2015_May_21_1538	s	s	13	4	SIC	55	RC	1	1	02VD 02VO 02VC 02MD 09MO 02MC 02RD 02RO	1	0	0.877520084381	225.0	289.0	225	287	1
2.7	2015_May_21_1538	s	s	13	4	SIC	56	RC	0	1	02VD 02VO 02VC 02MD 02MO 02MC 02RD 09RO	1	0	0.571424007416	390.0	208.0	391	208	1
2.7	2015_May_21_1538	s	s	13	4	SIC	57	RC	2	0	02VD 02VO 09VC 02MD 02MO 02MC 02RD 02RO	1	0	0.700039148331	173.0	245.0	185	253	1
2.7	2015_May_21_1538	s	s	13	4	SIC	58	ABS	1	2	02VD 02VO 02VC 10MD 02MO 02MC 02RD 02RO	0	1	1.1330280304	None	None	None	None	1
2.7	2015_May_21_1538	s	s	13	4	SIC	59	RC	1	2	02VD 02VO 02VC 09MD 02MO 02MC 02RD 02RO	1	0	1.10577392578	-272.0	-56.0	-273	-53	1
2.7	2015_May_21_1538	s	s	13	4	SIC	60	RC	2	2	09VD 02VO 02VC 02MD 02MO 02MC 02RD 02RO	1	0	1.35290598869	493.0	-352.0	503	-351	1
2.7	2015_May_21_1538	s	s	13	4	SIC	61	ABS	2	0	02VD 02VO 10VC 02MD 02MO 02MC 02RD 02RO	0	1	1.52701497078	None	None	None	None	1
2.7	2015_May_21_1538	s	s	13	4	SIC	62	RC	1	0	02VD 02VO 02VC 02MD 02MO 09MC 02RD 02RO	1	0	0.670258045197	-161.0	-42.0	-163	-44	1
2.7	2015_May_21_1538	s	s	13	4	SIC	63	ABS	0	2	02VD 02VO 02VC 02MD 02MO 02MC 10RD 02RO	0	1	1.30593204498	None	None	None	None	1
2.7	2015_May_21_1538	s	s	13	4	SIC	64	ABS	0	1	02VD 02VO 02VC 02MD 02MO 02MC 02RD 10RO	0	1	2.9984600544	None	None	None	None	1
2.7	2015_May_21_1538	s	s	13	4	SIC	65	RC	0	2	02VD 02VO 02VC 02MD 02MO 02MC 09RD 02RO	1	0	0.740853071213	-32.0	-133.0	-22	-133	1
2.7	2015_May_21_1538	s	s	13	4	SIC	66	RC	2	0	02VD 02VO 09VC 02MD 02MO 02MC 02RD 02RO	1	0	1.12655901909	-455.0	-47.0	-457	-49	1
2.7	2015_May_21_1538	s	s	13	4	SIC	67	ABS	2	2	10VD 02VO 02VC 02MD 02MO 02MC 02RD 02RO	0	1	1.82766699791	None	None	None	None	1
2.7	2015_May_21_1538	s	s	13	4	SIC	68	ABS	2	0	02VD 02VO 10VC 02MD 02MO 02MC 02RD 02RO	0	1	1.68246006966	None	None	None	None	1
2.7	2015_May_21_1538	s	s	13	4	SIC	69	RC	2	2	09VD 02VO 02VC 02MD 02MO 02MC 02RD 02RO	1	0	0.747673034668	294.0	16.0	294	15	1
2.7	2015_May_21_1538	s	s	13	4	SIC	70	ABS	1	0	02VD 02VO 02VC 02MD 02MO 10MC 02RD 02RO	0	1	2.7718231678	None	None	None	None	1
2.7	2015_May_21_1538	s	s	13	4	SIC	71	ABS	1	1	02VD 02VO 02VC 02MD 10MO 02MC 02RD 02RO	0	1	2.07913208008	None	None	None	None	1
2.7	2015_May_21_1538	s	s	13	4	SIC	72	RC	2	1	02VD 09VO 02VC 02MD 02MO 02MC 02RD 02RO	1	0	0.806637048721	114.0	-98.0	118	-95	1
2.7	2015_May_21_1538	s	s	13	4	SIC	73	RC	1	2	02VD 02VO 02VC 09MD 02MO 02MC 02RD 02RO	1	0	1.11757493019	-313.0	-41.0	-312	-45	1
2.7	2015_May_21_1538	s	s	13	4	SIC	74	ABS	1	2	02VD 02VO 02VC 10MD 02MO 02MC 02RD 02RO	0	1	1.35047698021	None	None	None	None	1
2.7	2015_May_21_1538	s	s	13	4	SIC	75	ABS	0	2	02VD 02VO 02VC 02MD 02MO 02MC 10RD 02RO	0	1	1.9249420166	None	None	None	None	1
2.7	2015_May_21_1538	s	s	13	4	SIC	76	ABS	2	1	02VD 10VO 02VC 02MD 02MO 02MC 02RD 02RO	0	1	1.43183112144	None	None	None	None	1
2.7	2015_May_21_1538	s	s	13	4	SIC	77	RC	0	1	02VD 02VO 02VC 02MD 02MO 02MC 02RD 09RO	1	0	2.55354499817	365.0	342.0	374	344	1
2.7	2015_May_21_1538	s	s	13	4	SIC	78	RC	1	0	02VD 02VO 02VC 02MD 02MO 09MC 02RD 02RO	1	0	0.646826982498	-106.0	255.0	-107	256	1
2.7	2015_May_21_1538	s	s	13	4	SIC	79	ABS	0	1	02VD 02VO 02VC 02MD 02MO 02MC 02RD 10RO	0	1	3.36574006081	None	None	None	None	1
2.7	2015_May_21_1538	s	s	13	4	SIC	80	RC	1	1	02VD 02VO 02VC 02MD 09MO 02MC 02RD 02RO	1	0	1.60857605934	488.0	333.0	498	340	1
2.7	2015_May_21_1538	s	s	13	4	SIC	81	ABS	2	2	10VD 02VO 02VC 02MD 02MO 02MC 02RD 02RO	0	1	1.70609307289	None	None	None	None	1
2.7	2015_May_21_1538	s	s	13	4	SIC	82	RC	2	2	09VD 02VO 02VC 02MD 02MO 02MC 02RD 02RO	1	0	1.45892286301	-259.0	26.0	-257	26	1
2.7	2015_May_21_1538	s	s	13	4	SIC	83	RC	1	2	02VD 02VO 02VC 09MD 02MO 02MC 02RD 02RO	1	0	1.29455780983	538.0	-184.0	547	-187	1
2.7	2015_May_21_1538	s	s	13	4	SIC	84	ABS	1	0	02VD 02VO 02VC 02MD 02MO 10MC 02RD 02RO	0	1	3.16563010216	None	None	None	None	1
2.7	2015_May_21_1538	s	s	13	4	SIC	85	ABS	0	1	02VD 02VO 02VC 02MD 02MO 02MC 02RD 10RO	0	1	3.93940901756	None	None	None	None	1
2.7	2015_May_21_1538	s	s	13	4	SIC	86	ABS	1	2	02VD 02VO 02VC 10MD 02MO 02MC 02RD 02RO	0	1	2.63076400757	None	None	None	None	1
2.7	2015_May_21_1538	s	s	13	4	SIC	87	RC	0	2	02VD 02VO 02VC 02MD 02MO 02MC 09RD 02RO	1	0	1.08969378471	-65.0	340.0	-61	338	1
2.7	2015_May_21_1538	s	s	13	4	SIC	88	ABS	2	1	02VD 10VO 02VC 02MD 02MO 02MC 02RD 02RO	0	1	1.61833810806	None	None	None	None	1
2.7	2015_May_21_1538	s	s	13	4	SIC	89	RC	2	1	02VD 09VO 02VC 02MD 02MO 02MC 02RD 02RO	1	0	0.787894964218	453.0	136.0	457	131	1
2.7	2015_May_21_1538	s	s	13	4	SIC	90	ABS	1	1	02VD 02VO 02VC 02MD 10MO 02MC 02RD 02RO	0	1	2.04732203484	None	None	None	None	1
2.7	2015_May_21_1538	s	s	13	4	SIC	91	RC	1	1	02VD 02VO 02VC 02MD 09MO 02MC 02RD 02RO	1	0	2.43590116501	-353.0	-266.0	-350	-269	1
2.7	2015_May_21_1538	s	s	13	4	SIC	92	ABS	0	2	02VD 02VO 02VC 02MD 02MO 02MC 10RD 02RO	0	1	1.67958784103	None	None	None	None	1
2.7	2015_May_21_1538	s	s	13	4	SIC	93	RC	1	0	02VD 02VO 02VC 02MD 02MO 09MC 02RD 02RO	1	0	1.47780299187	-241.0	-299.0	-242	-299	1
2.7	2015_May_21_1538	s	s	13	4	SIC	94	ABS	2	0	02VD 02VO 10VC 02MD 02MO 02MC 02RD 02RO	0	1	1.44233322144	None	None	None	None	1
2.7	2015_May_21_1538	s	s	13	4	SIC	95	RC	0	1	02VD 02VO 02VC 02MD 02MO 02MC 02RD 09RO	1	0	2.72394299507	536.0	225.0	542	217	1
2.7	2015_May_21_1538	s	s	13	4	SIC	96	RC	2	0	02VD 02VO 09VC 02MD 02MO 02MC 02RD 02RO	1	0	1.52991294861	-57.0	-400.0	-58	-399	1
2.7	2015_May_21_1538	s	s	13	4	SIC	97	RC	0	1	02VD 02VO 02VC 02MD 02MO 02MC 02RD 09RO	1	0	1.0061070919	-107.0	257.0	-102	247	1
2.7	2015_May_21_1538	s	s	13	4	SIC	98	RC	0	2	02VD 02VO 02VC 02MD 02MO 02MC 09RD 02RO	1	0	0.936392068863	-156.0	90.0	-155	84	1
2.7	2015_May_21_1538	s	s	13	4	SIC	99	RC	2	1	02VD 09VO 02VC 02MD 02MO 02MC 02RD 02RO	1	0	1.13853001595	518.0	-301.0	515	-298	1
2.7	2015_May_21_1538	s	s	13	4	SIC	100	ABS	1	0	02VD 02VO 02VC 02MD 02MO 10MC 02RD 02RO	0	1	2.11317920685	None	None	None	None	1
2.7	2015_May_21_1538	s	s	13	4	SIC	101	RC	1	2	02VD 02VO 02VC 09MD 02MO 02MC 02RD 02RO	1	0	0.87036895752	284.0	-401.0	285	-403	1
2.7	2015_May_21_1538	s	s	13	4	SIC	102	ABS	2	0	02VD 02VO 10VC 02MD 02MO 02MC 02RD 02RO	0	1	1.76003909111	None	None	None	None	1
2.7	2015_May_21_1538	s	s	13	4	SIC	103	RC	2	0	02VD 02VO 09VC 02MD 02MO 02MC 02RD 02RO	1	0	1.71536397934	-68.0	-307.0	-78	-300	1
2.7	2015_May_21_1538	s	s	13	4	SIC	104	RC	1	1	02VD 02VO 02VC 02MD 09MO 02MC 02RD 02RO	1	0	1.25319290161	170.0	321.0	166	325	1
2.7	2015_May_21_1538	s	s	13	4	SIC	105	ABS	1	2	02VD 02VO 02VC 10MD 02MO 02MC 02RD 02RO	0	1	1.72999405861	None	None	None	None	1
2.7	2015_May_21_1538	s	s	13	4	SIC	106	ABS	2	2	10VD 02VO 02VC 02MD 02MO 02MC 02RD 02RO	0	1	1.47067809105	None	None	None	None	1
2.7	2015_May_21_1538	s	s	13	4	SIC	107	RC	2	2	09VD 02VO 02VC 02MD 02MO 02MC 02RD 02RO	1	0	1.2417280674	481.0	-388.0	480	-379	1
2.7	2015_May_21_1538	s	s	13	4	SIC	108	ABS	2	1	02VD 10VO 02VC 02MD 02MO 02MC 02RD 02RO	0	1	1.80726718903	None	None	None	None	1
2.7	2015_May_21_1538	s	s	13	4	SIC	109	RC	1	0	02VD 02VO 02VC 02MD 02MO 09MC 02RD 02RO	1	0	1.2000169754	503.0	323.0	504	325	1
2.7	2015_May_21_1538	s	s	13	4	SIC	110	ABS	0	1	02VD 02VO 02VC 02MD 02MO 02MC 02RD 10RO	1	0	2.1298699379	None	None	-57	145	0
2.7	2015_May_21_1538	s	s	13	4	SIC	111	ABS	1	1	02VD 02VO 02VC 02MD 10MO 02MC 02RD 02RO	0	1	1.80868601799	None	None	None	None	1
2.7	2015_May_21_1538	s	s	13	4	SIC	112	ABS	0	2	02VD 02VO 02VC 02MD 02MO 02MC 10RD 02RO	0	1	1.67076206207	None	None	None	None	1
2.7	2015_May_21_1538	s	s	13	4	SIC	113	RC	2	0	02VD 02VO 09VC 02MD 02MO 02MC 02RD 02RO	1	0	1.56920599937	-161.0	-374.0	-164	-376	1
2.7	2015_May_21_1538	s	s	13	4	SIC	114	ABS	2	2	10VD 02VO 02VC 02MD 02MO 02MC 02RD 02RO	0	1	1.52962112427	None	None	None	None	1
2.7	2015_May_21_1538	s	s	13	4	SIC	115	ABS	1	0	02VD 02VO 02VC 02MD 02MO 10MC 02RD 02RO	0	1	1.91267895699	None	None	None	None	1
2.7	2015_May_21_1538	s	s	13	4	SIC	116	RC	0	2	02VD 02VO 02VC 02MD 02MO 02MC 09RD 02RO	1	0	0.694218873978	196.0	-264.0	199	-270	1
2.7	2015_May_21_1538	s	s	13	4	SIC	117	ABS	0	2	02VD 02VO 02VC 02MD 02MO 02MC 10RD 02RO	0	1	1.61197590828	None	None	None	None	1
2.7	2015_May_21_1538	s	s	13	4	SIC	118	RC	1	0	02VD 02VO 02VC 02MD 02MO 09MC 02RD 02RO	1	0	1.11232495308	-42.0	-246.0	-38	-251	1
2.7	2015_May_21_1538	s	s	13	4	SIC	119	RC	1	1	02VD 02VO 02VC 02MD 09MO 02MC 02RD 02RO	1	0	0.658391952515	118.0	-125.0	117	-121	1
2.7	2015_May_21_1538	s	s	13	4	SIC	120	RC	2	2	09VD 02VO 02VC 02MD 02MO 02MC 02RD 02RO	1	0	1.01857709885	-219.0	-324.0	-216	-328	1
2.7	2015_May_21_1538	s	s	13	4	SIC	121	ABS	1	1	02VD 02VO 02VC 02MD 10MO 02MC 02RD 02RO	0	1	2.25682210922	None	None	None	None	1
2.7	2015_May_21_1538	s	s	13	4	SIC	122	ABS	0	1	02VD 02VO 02VC 02MD 02MO 02MC 02RD 10RO	0	1	2.60895514488	None	None	None	None	1
2.7	2015_May_21_1538	s	s	13	4	SIC	123	RC	2	1	02VD 09VO 02VC 02MD 02MO 02MC 02RD 02RO	1	0	0.540828943253	-38.0	48.0	-31	54	1
2.7	2015_May_21_1538	s	s	13	4	SIC	124	RC	0	1	02VD 02VO 02VC 02MD 02MO 02MC 02RD 09RO	1	0	0.982479095459	314.0	-165.0	305	-167	1
2.7	2015_May_21_1538	s	s	13	4	SIC	125	ABS	2	0	02VD 02VO 10VC 02MD 02MO 02MC 02RD 02RO	0	1	1.81211590767	None	None	None	None	1
2.7	2015_May_21_1538	s	s	13	4	SIC	126	ABS	1	2	02VD 02VO 02VC 10MD 02MO 02MC 02RD 02RO	0	1	1.39360380173	None	None	None	None	1
2.7	2015_May_21_1538	s	s	13	4	SIC	127	RC	1	2	02VD 02VO 02VC 09MD 02MO 02MC 02RD 02RO	1	0	0.917532920837	7.0	-178.0	9	-177	1
2.7	2015_May_21_1538	s	s	13	4	SIC	128	ABS	2	1	02VD 10VO 02VC 02MD 02MO 02MC 02RD 02RO	0	1	1.6298160553	None	None	None	None	1
2.7	2015_May_21_1538	s	s	13	4	SIC	129	RC	1	0	02VD 02VO 02VC 02MD 02MO 09MC 02RD 02RO	1	0	1.11765789986	-538.0	298.0	-545	296	1
2.7	2015_May_21_1538	s	s	13	4	SIC	130	ABS	2	1	02VD 10VO 02VC 02MD 02MO 02MC 02RD 02RO	0	1	1.57659506798	None	None	None	None	1
2.7	2015_May_21_1538	s	s	13	4	SIC	131	RC	0	2	02VD 02VO 02VC 02MD 02MO 02MC 09RD 02RO	1	0	1.33525490761	123.0	-199.0	122	-208	1
2.7	2015_May_21_1538	s	s	13	4	SIC	132	RC	0	1	02VD 02VO 02VC 02MD 02MO 02MC 02RD 09RO	1	0	2.00031089783	402.0	-383.0	394	-387	1
2.7	2015_May_21_1538	s	s	13	4	SIC	133	ABS	0	2	02VD 02VO 02VC 02MD 02MO 02MC 10RD 02RO	0	1	1.77662014961	None	None	None	None	1
2.7	2015_May_21_1538	s	s	13	4	SIC	134	ABS	1	2	02VD 02VO 02VC 10MD 02MO 02MC 02RD 02RO	0	1	1.64461088181	None	None	None	None	1
2.7	2015_May_21_1538	s	s	13	4	SIC	135	RC	2	0	02VD 02VO 09VC 02MD 02MO 02MC 02RD 02RO	1	0	0.752609968185	178.0	-290.0	183	-294	1
2.7	2015_May_21_1538	s	s	13	4	SIC	136	RC	2	1	02VD 09VO 02VC 02MD 02MO 02MC 02RD 02RO	1	0	0.902343988419	-242.0	-53.0	-240	-53	1
2.7	2015_May_21_1538	s	s	13	4	SIC	137	ABS	1	1	02VD 02VO 02VC 02MD 10MO 02MC 02RD 02RO	0	1	1.75307297707	None	None	None	None	1
2.7	2015_May_21_1538	s	s	13	4	SIC	138	ABS	2	0	02VD 02VO 10VC 02MD 02MO 02MC 02RD 02RO	0	1	1.73665904999	None	None	None	None	1
2.7	2015_May_21_1538	s	s	13	4	SIC	139	RC	1	2	02VD 02VO 02VC 09MD 02MO 02MC 02RD 02RO	1	0	0.752701997757	-123.0	219.0	-128	223	1
2.7	2015_May_21_1538	s	s	13	4	SIC	140	ABS	0	1	02VD 02VO 02VC 02MD 02MO 02MC 02RD 10RO	0	1	3.59402012825	None	None	None	None	1
2.7	2015_May_21_1538	s	s	13	4	SIC	141	ABS	1	0	02VD 02VO 02VC 02MD 02MO 10MC 02RD 02RO	0	1	2.33045983315	None	None	None	None	1
2.7	2015_May_21_1538	s	s	13	4	SIC	142	ABS	2	2	10VD 02VO 02VC 02MD 02MO 02MC 02RD 02RO	0	1	1.39992904663	None	None	None	None	1
2.7	2015_May_21_1538	s	s	13	4	SIC	143	RC	2	2	09VD 02VO 02VC 02MD 02MO 02MC 02RD 02RO	1	0	1.03509497643	-238.0	39.0	-231	39	1
2.7	2015_May_21_1538	s	s	13	4	SIC	144	RC	1	1	02VD 02VO 02VC 02MD 09MO 02MC 02RD 02RO	1	0	1.01827406883	-70.0	411.0	-65	411	1
2.7	2015_May_21_1538	s	s	13	4	SIC	145	ABS	1	2	02VD 02VO 02VC 10MD 02MO 02MC 02RD 02RO	0	1	1.52736711502	None	None	None	None	1
2.7	2015_May_21_1538	s	s	13	4	SIC	146	ABS	2	0	02VD 02VO 10VC 02MD 02MO 02MC 02RD 02RO	0	1	1.83295702934	None	None	None	None	1
2.7	2015_May_21_1538	s	s	13	4	SIC	147	ABS	2	2	10VD 02VO 02VC 02MD 02MO 02MC 02RD 02RO	0	1	1.85355901718	None	None	None	None	1
2.7	2015_May_21_1538	s	s	13	4	SIC	148	ABS	0	2	02VD 02VO 02VC 02MD 02MO 02MC 10RD 02RO	0	1	1.60707998276	None	None	None	None	1
2.7	2015_May_21_1538	s	s	13	4	SIC	149	ABS	2	1	02VD 10VO 02VC 02MD 02MO 02MC 02RD 02RO	0	1	0.870362997055	None	None	None	None	1
2.7	2015_May_21_1538	s	s	13	4	SIC	150	ABS	1	1	02VD 02VO 02VC 02MD 10MO 02MC 02RD 02RO	0	1	2.46624207497	None	None	None	None	1
2.7	2015_May_21_1538	s	s	13	4	SIC	151	RC	0	2	02VD 02VO 02VC 02MD 02MO 02MC 09RD 02RO	1	0	0.670168161392	171.0	-18.0	172	-19	1
2.7	2015_May_21_1538	s	s	13	4	SIC	152	RC	2	0	02VD 02VO 09VC 02MD 02MO 02MC 02RD 02RO	1	0	0.641745090485	-27.0	4.0	-27	1	1
2.7	2015_May_21_1538	s	s	13	4	SIC	153	RC	2	2	09VD 02VO 02VC 02MD 02MO 02MC 02RD 02RO	1	0	0.526191949844	207.0	-26.0	201	-27	1
2.7	2015_May_21_1538	s	s	13	4	SIC	154	RC	1	1	02VD 02VO 02VC 02MD 09MO 02MC 02RD 02RO	1	0	1.11443805695	-281.0	349.0	-286	352	1
2.7	2015_May_21_1538	s	s	13	4	SIC	155	RC	1	0	02VD 02VO 02VC 02MD 02MO 09MC 02RD 02RO	1	0	1.05871200562	-512.0	155.0	-505	156	1
2.7	2015_May_21_1538	s	s	13	4	SIC	156	ABS	1	0	02VD 02VO 02VC 02MD 02MO 10MC 02RD 02RO	0	1	2.55054593086	None	None	None	None	1
2.7	2015_May_21_1538	s	s	13	4	SIC	157	RC	1	2	02VD 02VO 02VC 09MD 02MO 02MC 02RD 02RO	1	0	0.858399868011	50.0	61.0	52	59	1
2.7	2015_May_21_1538	s	s	13	4	SIC	158	ABS	0	1	02VD 02VO 02VC 02MD 02MO 02MC 02RD 10RO	0	1	3.67208695412	None	None	None	None	1
2.7	2015_May_21_1538	s	s	13	4	SIC	159	RC	0	1	02VD 02VO 02VC 02MD 02MO 02MC 02RD 09RO	1	0	0.759819030762	304.0	137.0	303	136	1
2.7	2015_May_21_1538	s	s	13	4	SIC	160	RC	2	1	02VD 09VO 02VC 02MD 02MO 02MC 02RD 02RO	1	0	1.64465689659	-301.0	-400.0	-293	-396	1
2.7	2015_May_21_1538	s	s	13	4	SIC	161	RC	1	1	02VD 02VO 02VC 02MD 09MO 02MC 02RD 02RO	1	0	0.92479300499	-20.0	-90.0	-19	-89	1
2.7	2015_May_21_1538	s	s	13	4	SIC	162	ABS	0	2	02VD 02VO 02VC 02MD 02MO 02MC 10RD 02RO	0	1	1.4916601181	None	None	None	None	1
2.7	2015_May_21_1538	s	s	13	4	SIC	163	RC	2	0	02VD 02VO 09VC 02MD 02MO 02MC 02RD 02RO	1	0	1.08928513527	181.0	-286.0	186	-283	1
2.7	2015_May_21_1538	s	s	13	4	SIC	164	ABS	2	2	10VD 02VO 02VC 02MD 02MO 02MC 02RD 02RO	0	1	1.98541116714	None	None	None	None	1
2.7	2015_May_21_1538	s	s	13	4	SIC	165	ABS	2	0	02VD 02VO 10VC 02MD 02MO 02MC 02RD 02RO	0	1	1.05319309235	None	None	None	None	1
2.7	2015_May_21_1538	s	s	13	4	SIC	166	ABS	1	2	02VD 02VO 02VC 10MD 02MO 02MC 02RD 02RO	0	1	1.96049284935	None	None	None	None	1
2.7	2015_May_21_1538	s	s	13	4	SIC	167	RC	0	2	02VD 02VO 02VC 02MD 02MO 02MC 09RD 02RO	1	0	1.18580198288	-82.0	-276.0	-80	-269	1
2.7	2015_May_21_1538	s	s	13	4	SIC	168	ABS	1	0	02VD 02VO 02VC 02MD 02MO 10MC 02RD 02RO	0	1	1.84736704826	None	None	None	None	1
2.7	2015_May_21_1538	s	s	13	4	SIC	169	RC	2	1	02VD 09VO 02VC 02MD 02MO 02MC 02RD 02RO	1	0	0.935419797897	-60.0	233.0	-63	233	1
2.7	2015_May_21_1538	s	s	13	4	SIC	170	RC	1	2	02VD 02VO 02VC 09MD 02MO 02MC 02RD 02RO	1	0	0.705631971359	276.0	288.0	281	285	1
2.7	2015_May_21_1538	s	s	13	4	SIC	171	ABS	0	1	02VD 02VO 02VC 02MD 02MO 02MC 02RD 10RO	0	1	4.40797901154	None	None	None	None	1
2.7	2015_May_21_1538	s	s	13	4	SIC	172	ABS	1	1	02VD 02VO 02VC 02MD 10MO 02MC 02RD 02RO	0	1	2.64779400826	None	None	None	None	1
2.7	2015_May_21_1538	s	s	13	4	SIC	173	RC	0	1	02VD 02VO 02VC 02MD 02MO 02MC 02RD 09RO	1	0	1.32269692421	395.0	337.0	395	339	1
2.7	2015_May_21_1538	s	s	13	4	SIC	174	RC	2	2	09VD 02VO 02VC 02MD 02MO 02MC 02RD 02RO	1	0	0.764340162277	-54.0	-88.0	-47	-88	1
2.7	2015_May_21_1538	s	s	13	4	SIC	175	RC	1	0	02VD 02VO 02VC 02MD 02MO 09MC 02RD 02RO	0	1	2.14807295799	-443.0	158.0	None	None	0
2.7	2015_May_21_1538	s	s	13	4	SIC	176	ABS	2	1	02VD 10VO 02VC 02MD 02MO 02MC 02RD 02RO	0	1	1.56488609314	None	None	None	None	1
2.7	2015_May_21_1538	s	s	13	4	SIC	177	RC	1	2	02VD 02VO 02VC 09MD 02MO 02MC 02RD 02RO	1	0	1.17650580406	-509.0	114.0	-515	106	1
2.7	2015_May_21_1538	s	s	13	4	SIC	178	ABS	2	1	02VD 10VO 02VC 02MD 02MO 02MC 02RD 02RO	0	1	1.19994902611	None	None	None	None	1
2.7	2015_May_21_1538	s	s	13	4	SIC	179	ABS	2	0	02VD 02VO 10VC 02MD 02MO 02MC 02RD 02RO	0	1	1.54118394852	None	None	None	None	1
2.7	2015_May_21_1538	s	s	13	4	SIC	180	RC	1	0	02VD 02VO 02VC 02MD 02MO 09MC 02RD 02RO	1	0	0.691128015518	63.0	87.0	62	88	1
2.7	2015_May_21_1538	s	s	13	4	SIC	181	ABS	2	2	10VD 02VO 02VC 02MD 02MO 02MC 02RD 02RO	0	1	1.81209611893	None	None	None	None	1
2.7	2015_May_21_1538	s	s	13	4	SIC	182	ABS	1	1	02VD 02VO 02VC 02MD 10MO 02MC 02RD 02RO	0	1	1.75316500664	None	None	None	None	1
2.7	2015_May_21_1538	s	s	13	4	SIC	183	RC	0	1	02VD 02VO 02VC 02MD 02MO 02MC 02RD 09RO	1	0	1.65586304665	516.0	-329.0	514	-323	1
2.7	2015_May_21_1538	s	s	13	4	SIC	184	ABS	1	0	02VD 02VO 02VC 02MD 02MO 10MC 02RD 02RO	0	1	1.51403784752	None	None	None	None	1
2.7	2015_May_21_1538	s	s	13	4	SIC	185	RC	2	1	02VD 09VO 02VC 02MD 02MO 02MC 02RD 02RO	1	0	1.2705719471	-415.0	-393.0	-417	-399	1
2.7	2015_May_21_1538	s	s	13	4	SIC	186	RC	0	2	02VD 02VO 02VC 02MD 02MO 02MC 09RD 02RO	1	0	0.858535051346	384.0	-357.0	385	-367	1
2.7	2015_May_21_1538	s	s	13	4	SIC	187	ABS	0	2	02VD 02VO 02VC 02MD 02MO 02MC 10RD 02RO	0	1	1.98349499702	None	None	None	None	1
2.7	2015_May_21_1538	s	s	13	4	SIC	188	RC	2	2	09VD 02VO 02VC 02MD 02MO 02MC 02RD 02RO	1	0	1.11745810509	-413.0	-129.0	-416	-127	1
2.7	2015_May_21_1538	s	s	13	4	SIC	189	RC	1	1	02VD 02VO 02VC 02MD 09MO 02MC 02RD 02RO	1	0	0.866145133972	-276.0	-105.0	-276	-103	1
2.7	2015_May_21_1538	s	s	13	4	SIC	190	ABS	1	2	02VD 02VO 02VC 10MD 02MO 02MC 02RD 02RO	0	1	1.88254594803	None	None	None	None	1
2.7	2015_May_21_1538	s	s	13	4	SIC	191	ABS	0	1	02VD 02VO 02VC 02MD 02MO 02MC 02RD 10RO	0	1	3.31390786171	None	None	None	None	1
2.7	2015_May_21_1538	s	s	13	4	SIC	192	RC	2	0	02VD 02VO 09VC 02MD 02MO 02MC 02RD 02RO	1	0	1.04693388939	136.0	-271.0	132	-271	1
2.7	2015_May_21_1538	s	s	13	4	SIC	193	RC	1	2	02VD 02VO 02VC 09MD 02MO 02MC 02RD 02RO	1	0	1.05875897408	-95.0	355.0	-92	352	1
2.7	2015_May_21_1538	s	s	13	4	SIC	194	ABS	0	2	02VD 02VO 02VC 02MD 02MO 02MC 10RD 02RO	0	1	1.33628487587	None	None	None	None	1
2.7	2015_May_21_1538	s	s	13	4	SIC	195	ABS	1	2	02VD 02VO 02VC 10MD 02MO 02MC 02RD 02RO	0	1	1.64171981812	None	None	None	None	1
2.7	2015_May_21_1538	s	s	13	4	SIC	196	ABS	1	0	02VD 02VO 02VC 02MD 02MO 10MC 02RD 02RO	0	1	1.75326704979	None	None	None	None	1
2.7	2015_May_21_1538	s	s	13	4	SIC	197	RC	2	2	09VD 02VO 02VC 02MD 02MO 02MC 02RD 02RO	1	0	0.842052936554	519.0	177.0	521	171	1
2.7	2015_May_21_1538	s	s	13	4	SIC	198	RC	1	1	02VD 02VO 02VC 02MD 09MO 02MC 02RD 02RO	1	0	1.09451913834	-140.0	-3.0	-137	-6	1
2.7	2015_May_21_1538	s	s	13	4	SIC	199	ABS	1	1	02VD 02VO 02VC 02MD 10MO 02MC 02RD 02RO	0	1	1.55675196648	None	None	None	None	1
2.7	2015_May_21_1538	s	s	13	4	SIC	200	RC	2	1	02VD 09VO 02VC 02MD 02MO 02MC 02RD 02RO	1	0	0.682301998138	518.0	-9.0	512	-9	1
2.7	2015_May_21_1538	s	s	13	4	SIC	201	ABS	0	1	02VD 02VO 02VC 02MD 02MO 02MC 02RD 10RO	0	1	3.17750716209	None	None	None	None	1
2.7	2015_May_21_1538	s	s	13	4	SIC	202	ABS	2	1	02VD 10VO 02VC 02MD 02MO 02MC 02RD 02RO	0	1	1.30048394203	None	None	None	None	1
2.7	2015_May_21_1538	s	s	13	4	SIC	203	RC	2	0	02VD 02VO 09VC 02MD 02MO 02MC 02RD 02RO	1	0	1.52427697182	-438.0	-291.0	-440	-294	1
2.7	2015_May_21_1538	s	s	13	4	SIC	204	ABS	2	2	10VD 02VO 02VC 02MD 02MO 02MC 02RD 02RO	0	1	1.06556892395	None	None	None	None	1
2.7	2015_May_21_1538	s	s	13	4	SIC	205	RC	0	1	02VD 02VO 02VC 02MD 02MO 02MC 02RD 09RO	1	0	2.28867602348	-231.0	326.0	-231	326	1
2.7	2015_May_21_1538	s	s	13	4	SIC	206	RC	0	2	02VD 02VO 02VC 02MD 02MO 02MC 09RD 02RO	1	0	0.705890893936	459.0	57.0	462	54	1
2.7	2015_May_21_1538	s	s	13	4	SIC	207	ABS	2	0	02VD 02VO 10VC 02MD 02MO 02MC 02RD 02RO	0	1	1.31261515617	None	None	None	None	1
2.7	2015_May_21_1538	s	s	13	4	SIC	208	RC	1	0	02VD 02VO 02VC 02MD 02MO 09MC 02RD 02RO	1	0	1.93581295013	510.0	358.0	514	364	1
2.7	2015_May_21_1538	s	s	13	4	SIC	209	RC	2	2	09VD 02VO 02VC 02MD 02MO 02MC 02RD 02RO	1	0	0.658519983292	281.0	-159.0	273	-163	1
2.7	2015_May_21_1538	s	s	13	4	SIC	210	RC	1	1	02VD 02VO 02VC 02MD 09MO 02MC 02RD 02RO	1	0	1.63549613953	-426.0	-153.0	-430	-151	1
2.7	2015_May_21_1538	s	s	13	4	SIC	211	ABS	0	1	02VD 02VO 02VC 02MD 02MO 02MC 02RD 10RO	0	1	2.82414793968	None	None	None	None	1
2.7	2015_May_21_1538	s	s	13	4	SIC	212	ABS	1	1	02VD 02VO 02VC 02MD 10MO 02MC 02RD 02RO	0	1	2.2214140892	None	None	None	None	1
2.7	2015_May_21_1538	s	s	13	4	SIC	213	RC	2	0	02VD 02VO 09VC 02MD 02MO 02MC 02RD 02RO	1	0	0.991738796234	-5.0	-97.0	-9	-101	1
2.7	2015_May_21_1538	s	s	13	4	SIC	214	ABS	2	1	02VD 10VO 02VC 02MD 02MO 02MC 02RD 02RO	0	1	1.67731904984	None	None	None	None	1
2.7	2015_May_21_1538	s	s	13	4	SIC	215	RC	1	2	02VD 02VO 02VC 09MD 02MO 02MC 02RD 02RO	1	0	0.90568780899	382.0	-272.0	379	-277	1
2.7	2015_May_21_1538	s	s	13	4	SIC	216	ABS	1	2	02VD 02VO 02VC 10MD 02MO 02MC 02RD 02RO	0	1	1.35919189453	None	None	None	None	1
2.7	2015_May_21_1538	s	s	13	4	SIC	217	RC	0	2	02VD 02VO 02VC 02MD 02MO 02MC 09RD 02RO	1	0	2.05925607681	-533.0	-4.0	-538	3	1
2.7	2015_May_21_1538	s	s	13	4	SIC	218	RC	1	0	02VD 02VO 02VC 02MD 02MO 09MC 02RD 02RO	1	0	1.28225302696	28.0	-275.0	32	-285	1
2.7	2015_May_21_1538	s	s	13	4	SIC	219	RC	2	1	02VD 09VO 02VC 02MD 02MO 02MC 02RD 02RO	1	0	0.650357961655	232.0	-138.0	230	-135	1
2.7	2015_May_21_1538	s	s	13	4	SIC	220	ABS	0	2	02VD 02VO 02VC 02MD 02MO 02MC 10RD 02RO	0	1	1.97229099274	None	None	None	None	1
2.7	2015_May_21_1538	s	s	13	4	SIC	221	RC	0	1	02VD 02VO 02VC 02MD 02MO 02MC 02RD 09RO	1	0	1.78587293625	-211.0	-330.0	-210	-330	1
2.7	2015_May_21_1538	s	s	13	4	SIC	222	ABS	2	0	02VD 02VO 10VC 02MD 02MO 02MC 02RD 02RO	0	1	1.54492998123	None	None	None	None	1
2.7	2015_May_21_1538	s	s	13	4	SIC	223	ABS	1	0	02VD 02VO 02VC 02MD 02MO 10MC 02RD 02RO	0	1	2.01227211952	None	None	None	None	1
2.7	2015_May_21_1538	s	s	13	4	SIC	224	ABS	2	2	10VD 02VO 02VC 02MD 02MO 02MC 02RD 02RO	0	1	1.51286888123	None	None	None	None	1
2.7	2015_May_21_1538	s	s	13	4	SIC	225	ABS	2	1	02VD 10VO 02VC 02MD 02MO 02MC 02RD 02RO	0	1	1.31762313843	None	None	None	None	1
2.7	2015_May_21_1538	s	s	13	4	SIC	226	ABS	1	1	02VD 02VO 02VC 02MD 10MO 02MC 02RD 02RO	0	1	1.54127812386	None	None	None	None	1
2.7	2015_May_21_1538	s	s	13	4	SIC	227	ABS	0	2	02VD 02VO 02VC 02MD 02MO 02MC 10RD 02RO	0	1	1.3883190155	None	None	None	None	1
2.7	2015_May_21_1538	s	s	13	4	SIC	228	RC	1	2	02VD 02VO 02VC 09MD 02MO 02MC 02RD 02RO	0	1	1.4767999649	-522.0	409.0	None	None	0
2.7	2015_May_21_1538	s	s	13	4	SIC	229	ABS	1	2	02VD 02VO 02VC 10MD 02MO 02MC 02RD 02RO	0	1	2.11462187767	None	None	None	None	1
2.7	2015_May_21_1538	s	s	13	4	SIC	230	ABS	0	1	02VD 02VO 02VC 02MD 02MO 02MC 02RD 10RO	0	1	3.69137001038	None	None	None	None	1
2.7	2015_May_21_1538	s	s	13	4	SIC	231	RC	1	0	02VD 02VO 02VC 02MD 02MO 09MC 02RD 02RO	1	0	1.36451911926	-306.0	-218.0	-298	-211	1
2.7	2015_May_21_1538	s	s	13	4	SIC	232	ABS	2	2	10VD 02VO 02VC 02MD 02MO 02MC 02RD 02RO	0	1	1.16006207466	None	None	None	None	1
2.7	2015_May_21_1538	s	s	13	4	SIC	233	RC	2	1	02VD 09VO 02VC 02MD 02MO 02MC 02RD 02RO	1	0	0.92359495163	-113.0	403.0	-111	404	1
2.7	2015_May_21_1538	s	s	13	4	SIC	234	RC	2	2	09VD 02VO 02VC 02MD 02MO 02MC 02RD 02RO	1	0	1.43053603172	-214.0	404.0	-206	398	1
2.7	2015_May_21_1538	s	s	13	4	SIC	235	RC	0	1	02VD 02VO 02VC 02MD 02MO 02MC 02RD 09RO	1	0	3.31362390518	435.0	392.0	446	397	1
2.7	2015_May_21_1538	s	s	13	4	SIC	236	RC	0	2	02VD 02VO 02VC 02MD 02MO 02MC 09RD 02RO	0	1	1.70271396637	482.0	-298.0	None	None	0
2.7	2015_May_21_1538	s	s	13	4	SIC	237	ABS	2	0	02VD 02VO 10VC 02MD 02MO 02MC 02RD 02RO	0	1	1.96518993378	None	None	None	None	1
2.7	2015_May_21_1538	s	s	13	4	SIC	238	RC	1	1	02VD 02VO 02VC 02MD 09MO 02MC 02RD 02RO	1	0	1.27441501617	-28.0	-411.0	-30	-412	1
2.7	2015_May_21_1538	s	s	13	4	SIC	239	RC	2	0	02VD 02VO 09VC 02MD 02MO 02MC 02RD 02RO	1	0	0.605158090591	-96.0	-71.0	-88	-76	1
2.7	2015_May_21_1538	s	s	13	4	SIC	240	ABS	1	0	02VD 02VO 02VC 02MD 02MO 10MC 02RD 02RO	0	1	2.11471796036	None	None	None	None	1
2.7	2015_May_21_1538	s	s	13	4	SIC	241	RC	0	2	02VD 02VO 02VC 02MD 02MO 02MC 09RD 02RO	1	0	0.844016075134	-235.0	-27.0	-226	-27	1
2.7	2015_May_21_1538	s	s	13	4	SIC	242	RC	1	2	02VD 02VO 02VC 09MD 02MO 02MC 02RD 02RO	1	0	0.750077009201	116.0	96.0	111	95	1
2.7	2015_May_21_1538	s	s	13	4	SIC	243	RC	2	1	02VD 09VO 02VC 02MD 02MO 02MC 02RD 02RO	1	0	0.784590959549	-68.0	194.0	-72	200	1
2.7	2015_May_21_1538	s	s	13	4	SIC	244	ABS	1	1	02VD 02VO 02VC 02MD 10MO 02MC 02RD 02RO	0	1	2.41968607903	None	None	None	None	1
2.7	2015_May_21_1538	s	s	13	4	SIC	245	RC	1	1	02VD 02VO 02VC 02MD 09MO 02MC 02RD 02RO	1	0	0.66547703743	484.0	-60.0	487	-59	1
2.7	2015_May_21_1538	s	s	13	4	SIC	246	ABS	2	1	02VD 10VO 02VC 02MD 02MO 02MC 02RD 02RO	0	1	1.70612597466	None	None	None	None	1
2.7	2015_May_21_1538	s	s	13	4	SIC	247	RC	0	1	02VD 02VO 02VC 02MD 02MO 02MC 02RD 09RO	1	0	0.705476045609	180.0	43.0	177	40	1
2.7	2015_May_21_1538	s	s	13	4	SIC	248	RC	2	0	02VD 02VO 09VC 02MD 02MO 02MC 02RD 02RO	1	0	0.505464792252	187.0	210.0	188	209	1
2.7	2015_May_21_1538	s	s	13	4	SIC	249	ABS	0	2	02VD 02VO 02VC 02MD 02MO 02MC 10RD 02RO	0	1	1.79756498337	None	None	None	None	1
2.7	2015_May_21_1538	s	s	13	4	SIC	250	ABS	1	0	02VD 02VO 02VC 02MD 02MO 10MC 02RD 02RO	0	1	1.62046408653	None	None	None	None	1
2.7	2015_May_21_1538	s	s	13	4	SIC	251	ABS	0	1	02VD 02VO 02VC 02MD 02MO 02MC 02RD 10RO	0	1	3.20534300804	None	None	None	None	1
2.7	2015_May_21_1538	s	s	13	4	SIC	252	ABS	1	2	02VD 02VO 02VC 10MD 02MO 02MC 02RD 02RO	0	1	1.58831501007	None	None	None	None	1
2.7	2015_May_21_1538	s	s	13	4	SIC	253	ABS	2	2	10VD 02VO 02VC 02MD 02MO 02MC 02RD 02RO	0	1	1.52427697182	None	None	None	None	1
2.7	2015_May_21_1538	s	s	13	4	SIC	254	RC	2	2	09VD 02VO 02VC 02MD 02MO 02MC 02RD 02RO	1	0	1.44456315041	3.0	-74.0	8	-71	1
2.7	2015_May_21_1538	s	s	13	4	SIC	255	ABS	2	0	02VD 02VO 10VC 02MD 02MO 02MC 02RD 02RO	0	1	1.17377400398	None	None	None	None	1
2.7	2015_May_21_1538	s	s	13	4	SIC	256	RC	1	0	02VD 02VO 02VC 02MD 02MO 09MC 02RD 02RO	1	0	1.28238487244	118.0	226.0	115	235	1
2.7	2015_May_21_1538	s	s	13	4	SIC	257	RC	2	2	09VD 02VO 02VC 02MD 02MO 02MC 02RD 02RO	1	0	0.795745134354	378.0	212.0	383	214	1
2.7	2015_May_21_1538	s	s	13	4	SIC	258	ABS	1	1	02VD 02VO 02VC 02MD 10MO 02MC 02RD 02RO	1	0	1.63928198814	None	None	-79	13	0
2.7	2015_May_21_1538	s	s	13	4	SIC	259	ABS	2	0	02VD 02VO 10VC 02MD 02MO 02MC 02RD 02RO	0	1	1.41997599602	None	None	None	None	1
2.7	2015_May_21_1538	s	s	13	4	SIC	260	ABS	1	0	02VD 02VO 02VC 02MD 02MO 10MC 02RD 02RO	0	1	2.24760007858	None	None	None	None	1
2.7	2015_May_21_1538	s	s	13	4	SIC	261	RC	1	1	02VD 02VO 02VC 02MD 09MO 02MC 02RD 02RO	1	0	0.697603940964	188.0	98.0	196	92	1
2.7	2015_May_21_1538	s	s	13	4	SIC	262	RC	0	2	02VD 02VO 02VC 02MD 02MO 02MC 09RD 02RO	1	0	0.749692201614	360.0	169.0	362	166	1
2.7	2015_May_21_1538	s	s	13	4	SIC	263	RC	1	2	02VD 02VO 02VC 09MD 02MO 02MC 02RD 02RO	1	0	0.752599000931	510.0	157.0	515	158	1
2.7	2015_May_21_1538	s	s	13	4	SIC	264	RC	1	0	02VD 02VO 02VC 02MD 02MO 09MC 02RD 02RO	0	1	1.67995405197	-239.0	-215.0	None	None	0
2.7	2015_May_21_1538	s	s	13	4	SIC	265	ABS	1	2	02VD 02VO 02VC 10MD 02MO 02MC 02RD 02RO	0	1	1.4273250103	None	None	None	None	1
2.7	2015_May_21_1538	s	s	13	4	SIC	266	ABS	2	2	10VD 02VO 02VC 02MD 02MO 02MC 02RD 02RO	0	1	1.13764095306	None	None	None	None	1
2.7	2015_May_21_1538	s	s	13	4	SIC	267	ABS	0	2	02VD 02VO 02VC 02MD 02MO 02MC 10RD 02RO	0	1	1.43538999557	None	None	None	None	1
2.7	2015_May_21_1538	s	s	13	4	SIC	268	RC	2	1	02VD 09VO 02VC 02MD 02MO 02MC 02RD 02RO	1	0	0.856286048889	-39.0	-407.0	-39	-414	1
2.7	2015_May_21_1538	s	s	13	4	SIC	269	ABS	0	1	02VD 02VO 02VC 02MD 02MO 02MC 02RD 10RO	0	1	3.73071908951	None	None	None	None	1
2.7	2015_May_21_1538	s	s	13	4	SIC	270	RC	0	1	02VD 02VO 02VC 02MD 02MO 02MC 02RD 09RO	1	0	0.947187900543	432.0	-213.0	431	-214	1
2.7	2015_May_21_1538	s	s	13	4	SIC	271	RC	2	0	02VD 02VO 09VC 02MD 02MO 02MC 02RD 02RO	1	0	0.752633094788	289.0	229.0	285	229	1
2.7	2015_May_21_1538	s	s	13	4	SIC	272	ABS	2	1	02VD 10VO 02VC 02MD 02MO 02MC 02RD 02RO	0	1	1.46823596954	None	None	None	None	1
2.7	2015_May_21_1538	s	s	13	4	SIC	273	ABS	1	1	02VD 02VO 02VC 02MD 10MO 02MC 02RD 02RO	0	1	2.24756407738	None	None	None	None	1
2.7	2015_May_21_1538	s	s	13	4	SIC	274	ABS	0	1	02VD 02VO 02VC 02MD 02MO 02MC 02RD 10RO	0	1	3.70700621605	None	None	None	None	1
2.7	2015_May_21_1538	s	s	13	4	SIC	275	RC	2	2	09VD 02VO 02VC 02MD 02MO 02MC 02RD 02RO	1	0	1.18422198296	-322.0	95.0	-324	95	1
2.7	2015_May_21_1538	s	s	13	4	SIC	276	ABS	2	2	10VD 02VO 02VC 02MD 02MO 02MC 02RD 02RO	0	1	1.76492500305	None	None	None	None	1
2.7	2015_May_21_1538	s	s	13	4	SIC	277	ABS	0	2	02VD 02VO 02VC 02MD 02MO 02MC 10RD 02RO	0	1	1.8096139431	None	None	None	None	1
2.7	2015_May_21_1538	s	s	13	4	SIC	278	RC	0	2	02VD 02VO 02VC 02MD 02MO 02MC 09RD 02RO	0	1	1.35287690163	-534.0	361.0	None	None	0
2.7	2015_May_21_1538	s	s	13	4	SIC	279	ABS	1	2	02VD 02VO 02VC 10MD 02MO 02MC 02RD 02RO	0	1	1.30593109131	None	None	None	None	1
2.7	2015_May_21_1538	s	s	13	4	SIC	280	RC	1	2	02VD 02VO 02VC 09MD 02MO 02MC 02RD 02RO	1	0	1.00646686554	-252.0	-294.0	-260	-288	1
2.7	2015_May_21_1538	s	s	13	4	SIC	281	RC	0	1	02VD 02VO 02VC 02MD 02MO 02MC 02RD 09RO	1	0	1.97674489021	-498.0	253.0	-493	248	1
2.7	2015_May_21_1538	s	s	13	4	SIC	282	ABS	2	0	02VD 02VO 10VC 02MD 02MO 02MC 02RD 02RO	0	1	3.73997712135	None	None	None	None	1
2.7	2015_May_21_1538	s	s	13	4	SIC	283	RC	2	1	02VD 09VO 02VC 02MD 02MO 02MC 02RD 02RO	1	0	1.34725618362	-391.0	-323.0	-387	-332	1
2.7	2015_May_21_1538	s	s	13	4	SIC	284	ABS	2	1	02VD 10VO 02VC 02MD 02MO 02MC 02RD 02RO	0	1	1.34109807014	None	None	None	None	1
2.7	2015_May_21_1538	s	s	13	4	SIC	285	ABS	1	0	02VD 02VO 02VC 02MD 02MO 10MC 02RD 02RO	0	1	1.96495389938	None	None	None	None	1
2.7	2015_May_21_1538	s	s	13	4	SIC	286	RC	2	0	02VD 02VO 09VC 02MD 02MO 02MC 02RD 02RO	1	0	0.858635902405	-344.0	-90.0	-343	-88	1
2.7	2015_May_21_1538	s	s	13	4	SIC	287	RC	1	1	02VD 02VO 02VC 02MD 09MO 02MC 02RD 02RO	1	0	0.84415102005	16.0	-249.0	16	-268	1
2.7	2015_May_21_1538	s	s	13	4	SIC	288	RC	1	0	02VD 02VO 02VC 02MD 02MO 09MC 02RD 02RO	1	0	1.01165699959	265.0	-168.0	267	-172	1
2.7	2015_May_21_1538	s	s	13	4	SIC	289	ABS	1	1	02VD 02VO 02VC 02MD 10MO 02MC 02RD 02RO	0	1	2.03144907951	None	None	None	None	1
2.7	2015_May_21_1538	s	s	13	4	SIC	290	RC	0	2	02VD 02VO 02VC 02MD 02MO 02MC 09RD 02RO	1	0	0.88884305954	170.0	368.0	172	367	1
2.7	2015_May_21_1538	s	s	13	4	SIC	291	ABS	2	2	10VD 02VO 02VC 02MD 02MO 02MC 02RD 02RO	0	1	1.39350891113	None	None	None	None	1
2.7	2015_May_21_1538	s	s	13	4	SIC	292	ABS	1	0	02VD 02VO 02VC 02MD 02MO 10MC 02RD 02RO	0	1	1.61199688911	None	None	None	None	1
2.7	2015_May_21_1538	s	s	13	4	SIC	293	ABS	0	2	02VD 02VO 02VC 02MD 02MO 02MC 10RD 02RO	0	1	1.44411706924	None	None	None	None	1
2.7	2015_May_21_1538	s	s	13	4	SIC	294	RC	1	2	02VD 02VO 02VC 09MD 02MO 02MC 02RD 02RO	1	0	1.43128991127	415.0	275.0	422	275	1
2.7	2015_May_21_1538	s	s	13	4	SIC	295	RC	2	1	02VD 09VO 02VC 02MD 02MO 02MC 02RD 02RO	1	0	0.905742883682	-168.0	331.0	-158	329	1
2.7	2015_May_21_1538	s	s	13	4	SIC	296	ABS	2	0	02VD 02VO 10VC 02MD 02MO 02MC 02RD 02RO	0	1	1.36013507843	None	None	None	None	1
2.7	2015_May_21_1538	s	s	13	4	SIC	297	ABS	2	1	02VD 10VO 02VC 02MD 02MO 02MC 02RD 02RO	0	1	1.26591706276	None	None	None	None	1
2.7	2015_May_21_1538	s	s	13	4	SIC	298	ABS	0	1	02VD 02VO 02VC 02MD 02MO 02MC 02RD 10RO	0	1	4.1259059906	None	None	None	None	1
2.7	2015_May_21_1538	s	s	13	4	SIC	299	ABS	1	2	02VD 02VO 02VC 10MD 02MO 02MC 02RD 02RO	0	1	1.59752297401	None	None	None	None	1
2.7	2015_May_21_1538	s	s	13	4	SIC	300	RC	0	1	02VD 02VO 02VC 02MD 02MO 02MC 02RD 09RO	1	0	2.49458599091	-480.0	175.0	-484	174	1
2.7	2015_May_21_1538	s	s	13	4	SIC	301	RC	2	2	09VD 02VO 02VC 02MD 02MO 02MC 02RD 02RO	1	0	1.98859906197	-247.0	-304.0	-244	-305	1
2.7	2015_May_21_1538	s	s	13	4	SIC	302	RC	1	0	02VD 02VO 02VC 02MD 02MO 09MC 02RD 02RO	1	0	0.62065410614	-9.0	186.0	-2	188	1
2.7	2015_May_21_1538	s	s	13	4	SIC	303	RC	1	1	02VD 02VO 02VC 02MD 09MO 02MC 02RD 02RO	1	0	0.905690908432	539.0	313.0	540	316	1
2.7	2015_May_21_1538	s	s	13	4	SIC	304	RC	2	0	02VD 02VO 09VC 02MD 02MO 02MC 02RD 02RO	1	0	0.952801942825	441.0	-70.0	441	-70	1
2.7	2015_May_21_1538	s	s	13	4	SIC	305	RC	2	0	02VD 02VO 09VC 02MD 02MO 02MC 02RD 02RO	1	0	1.31383895874	-358.0	295.0	-367	302	1
2.7	2015_May_21_1538	s	s	13	4	SIC	306	ABS	2	0	02VD 02VO 10VC 02MD 02MO 02MC 02RD 02RO	0	1	2.13355302811	None	None	None	None	1
2.7	2015_May_21_1538	s	s	13	4	SIC	307	RC	0	1	02VD 02VO 02VC 02MD 02MO 02MC 02RD 09RO	1	0	0.940998792648	25.0	71.0	29	70	1
2.7	2015_May_21_1538	s	s	13	4	SIC	308	ABS	0	2	02VD 02VO 02VC 02MD 02MO 02MC 10RD 02RO	0	1	1.45880389214	None	None	None	None	1
2.7	2015_May_21_1538	s	s	13	4	SIC	309	ABS	1	2	02VD 02VO 02VC 10MD 02MO 02MC 02RD 02RO	0	1	2.36902308464	None	None	None	None	1
2.7	2015_May_21_1538	s	s	13	4	SIC	310	RC	2	2	09VD 02VO 02VC 02MD 02MO 02MC 02RD 02RO	1	0	0.608824014664	51.0	42.0	51	38	1
2.7	2015_May_21_1538	s	s	13	4	SIC	311	RC	1	2	02VD 02VO 02VC 09MD 02MO 02MC 02RD 02RO	1	0	1.26582622528	87.0	-372.0	83	-369	1
2.7	2015_May_21_1538	s	s	13	4	SIC	312	RC	1	0	02VD 02VO 02VC 02MD 02MO 09MC 02RD 02RO	1	0	0.905688047409	-309.0	313.0	-305	319	1
2.7	2015_May_21_1538	s	s	13	4	SIC	313	ABS	1	0	02VD 02VO 02VC 02MD 02MO 10MC 02RD 02RO	0	1	1.41180801392	None	None	None	None	1
2.7	2015_May_21_1538	s	s	13	4	SIC	314	ABS	2	1	02VD 10VO 02VC 02MD 02MO 02MC 02RD 02RO	0	1	1.68005919456	None	None	None	None	1
2.7	2015_May_21_1538	s	s	13	4	SIC	315	RC	2	1	02VD 09VO 02VC 02MD 02MO 02MC 02RD 02RO	1	0	0.84256696701	497.0	271.0	497	265	1
2.7	2015_May_21_1538	s	s	13	4	SIC	316	ABS	1	1	02VD 02VO 02VC 02MD 10MO 02MC 02RD 02RO	0	1	1.42362689972	None	None	None	None	1
2.7	2015_May_21_1538	s	s	13	4	SIC	317	RC	0	2	02VD 02VO 02VC 02MD 02MO 02MC 09RD 02RO	1	0	0.493707180023	142.0	154.0	137	156	1
2.7	2015_May_21_1538	s	s	13	4	SIC	318	ABS	2	2	10VD 02VO 02VC 02MD 02MO 02MC 02RD 02RO	0	1	1.30584001541	None	None	None	None	1
2.7	2015_May_21_1538	s	s	13	4	SIC	319	ABS	0	1	02VD 02VO 02VC 02MD 02MO 02MC 02RD 10RO	0	1	2.93634295464	None	None	None	None	1
2.7	2015_May_21_1538	s	s	13	4	SIC	320	RC	1	1	02VD 02VO 02VC 02MD 09MO 02MC 02RD 02RO	1	0	0.608561038971	163.0	108.0	168	107	1
2.7	2015_May_21_1538	s	s	13	4	SIC	321	RC	1	2	02VD 02VO 02VC 09MD 02MO 02MC 02RD 02RO	1	0	0.864506006241	74.0	242.0	78	251	1
2.7	2015_May_21_1538	s	s	13	4	SIC	322	ABS	2	2	10VD 02VO 02VC 02MD 02MO 02MC 02RD 02RO	0	1	1.67601490021	None	None	None	None	1
2.7	2015_May_21_1538	s	s	13	4	SIC	323	RC	1	1	02VD 02VO 02VC 02MD 09MO 02MC 02RD 02RO	1	0	0.911822080612	34.0	91.0	40	96	1
2.7	2015_May_21_1538	s	s	13	4	SIC	324	ABS	0	2	02VD 02VO 02VC 02MD 02MO 02MC 10RD 02RO	0	1	2.07853198051	None	None	None	None	1
2.7	2015_May_21_1538	s	s	13	4	SIC	325	ABS	1	2	02VD 02VO 02VC 10MD 02MO 02MC 02RD 02RO	0	1	1.60615587234	None	None	None	None	1
2.7	2015_May_21_1538	s	s	13	4	SIC	326	ABS	1	1	02VD 02VO 02VC 02MD 10MO 02MC 02RD 02RO	0	1	2.04744505882	None	None	None	None	1
2.7	2015_May_21_1538	s	s	13	4	SIC	327	RC	0	2	02VD 02VO 02VC 02MD 02MO 02MC 09RD 02RO	1	0	0.940988063812	-312.0	177.0	-310	182	1
2.7	2015_May_21_1538	s	s	13	4	SIC	328	RC	0	1	02VD 02VO 02VC 02MD 02MO 02MC 02RD 09RO	1	0	1.80591988564	-189.0	-258.0	-199	-257	1
2.7	2015_May_21_1538	s	s	13	4	SIC	329	RC	2	0	02VD 02VO 09VC 02MD 02MO 02MC 02RD 02RO	1	0	1.25347900391	-367.0	377.0	-363	386	1
2.7	2015_May_21_1538	s	s	13	4	SIC	330	ABS	1	0	02VD 02VO 02VC 02MD 02MO 10MC 02RD 02RO	0	1	2.20707082748	None	None	None	None	1
2.7	2015_May_21_1538	s	s	13	4	SIC	331	ABS	2	0	02VD 02VO 10VC 02MD 02MO 02MC 02RD 02RO	0	1	1.60707211494	None	None	None	None	1
2.7	2015_May_21_1538	s	s	13	4	SIC	332	ABS	0	1	02VD 02VO 02VC 02MD 02MO 02MC 02RD 10RO	0	1	4.86983585358	None	None	None	None	1
2.7	2015_May_21_1538	s	s	13	4	SIC	333	RC	1	0	02VD 02VO 02VC 02MD 02MO 09MC 02RD 02RO	1	0	1.23534011841	-235.0	25.0	-232	26	1
2.7	2015_May_21_1538	s	s	13	4	SIC	334	RC	2	2	09VD 02VO 02VC 02MD 02MO 02MC 02RD 02RO	1	0	0.587919950485	114.0	253.0	114	254	1
2.7	2015_May_21_1538	s	s	13	4	SIC	335	RC	2	1	02VD 09VO 02VC 02MD 02MO 02MC 02RD 02RO	1	0	1.89433407784	267.0	-352.0	271	-354	1
2.7	2015_May_21_1538	s	s	13	4	SIC	336	ABS	2	1	02VD 10VO 02VC 02MD 02MO 02MC 02RD 02RO	0	1	1.5971019268	None	None	None	None	1
2.7	2015_May_21_1538	s	s	13	4	SIC	337	RC	1	2	02VD 02VO 02VC 09MD 02MO 02MC 02RD 02RO	1	0	0.819167137146	24.0	379.0	23	378	1
2.7	2015_May_21_1538	s	s	13	4	SIC	338	ABS	2	0	02VD 02VO 10VC 02MD 02MO 02MC 02RD 02RO	0	1	1.5965180397	None	None	None	None	1
2.7	2015_May_21_1538	s	s	13	4	SIC	339	ABS	0	2	02VD 02VO 02VC 02MD 02MO 02MC 10RD 02RO	0	1	1.10068297386	None	None	None	None	1
2.7	2015_May_21_1538	s	s	13	4	SIC	340	ABS	1	2	02VD 02VO 02VC 10MD 02MO 02MC 02RD 02RO	0	1	1.25350594521	None	None	None	None	1
2.7	2015_May_21_1538	s	s	13	4	SIC	341	RC	0	1	02VD 02VO 02VC 02MD 02MO 02MC 02RD 09RO	1	0	1.38272213936	268.0	-192.0	277	-189	1
2.7	2015_May_21_1538	s	s	13	4	SIC	342	ABS	1	0	02VD 02VO 02VC 02MD 02MO 10MC 02RD 02RO	0	1	2.11548686028	None	None	None	None	1
2.7	2015_May_21_1538	s	s	13	4	SIC	343	ABS	2	1	02VD 10VO 02VC 02MD 02MO 02MC 02RD 02RO	0	1	1.57202792168	None	None	None	None	1
2.7	2015_May_21_1538	s	s	13	4	SIC	344	ABS	1	1	02VD 02VO 02VC 02MD 10MO 02MC 02RD 02RO	1	0	1.60019683838	None	None	55	-43	0
2.7	2015_May_21_1538	s	s	13	4	SIC	345	RC	1	0	02VD 02VO 02VC 02MD 02MO 09MC 02RD 02RO	1	0	1.16465902328	-386.0	-99.0	-391	-100	1
2.7	2015_May_21_1538	s	s	13	4	SIC	346	RC	1	1	02VD 02VO 02VC 02MD 09MO 02MC 02RD 02RO	1	0	1.39426016808	13.0	-138.0	1	-135	1
2.7	2015_May_21_1538	s	s	13	4	SIC	347	RC	2	1	02VD 09VO 02VC 02MD 02MO 02MC 02RD 02RO	1	0	0.676333904266	43.0	329.0	41	319	1
2.7	2015_May_21_1538	s	s	13	4	SIC	348	RC	2	0	02VD 02VO 09VC 02MD 02MO 02MC 02RD 02RO	1	0	1.37209606171	-264.0	-403.0	-266	-402	1
2.7	2015_May_21_1538	s	s	13	4	SIC	349	RC	2	2	09VD 02VO 02VC 02MD 02MO 02MC 02RD 02RO	1	0	0.58310508728	-19.0	150.0	-15	154	1
2.7	2015_May_21_1538	s	s	13	4	SIC	350	ABS	2	2	10VD 02VO 02VC 02MD 02MO 02MC 02RD 02RO	0	1	1.44173502922	None	None	None	None	1
2.7	2015_May_21_1538	s	s	13	4	SIC	351	ABS	0	1	02VD 02VO 02VC 02MD 02MO 02MC 02RD 10RO	0	1	2.83026885986	None	None	None	None	1
2.7	2015_May_21_1538	s	s	13	4	SIC	352	RC	0	2	02VD 02VO 02VC 02MD 02MO 02MC 09RD 02RO	1	0	1.34125185013	-321.0	350.0	-317	347	1
2.7	2015_May_21_1538	s	s	13	4	SIC	353	RC	2	0	02VD 02VO 09VC 02MD 02MO 02MC 02RD 02RO	1	0	1.10315394402	-385.0	-268.0	-388	-269	1
2.7	2015_May_21_1538	s	s	13	4	SIC	354	RC	1	2	02VD 02VO 02VC 09MD 02MO 02MC 02RD 02RO	1	0	0.5524289608	193.0	104.0	200	101	1
2.7	2015_May_21_1538	s	s	13	4	SIC	355	RC	1	1	02VD 02VO 02VC 02MD 09MO 02MC 02RD 02RO	1	0	0.726079940796	110.0	-114.0	111	-113	1
2.7	2015_May_21_1538	s	s	13	4	SIC	356	RC	0	2	02VD 02VO 02VC 02MD 02MO 02MC 09RD 02RO	1	0	0.63233089447	248.0	-310.0	250	-314	1
2.7	2015_May_21_1538	s	s	13	4	SIC	357	ABS	0	1	02VD 02VO 02VC 02MD 02MO 02MC 02RD 10RO	0	1	2.83093500137	None	None	None	None	1
2.7	2015_May_21_1538	s	s	13	4	SIC	358	ABS	2	2	10VD 02VO 02VC 02MD 02MO 02MC 02RD 02RO	1	0	1.58870983124	None	None	-64	-32	0
2.7	2015_May_21_1538	s	s	13	4	SIC	359	RC	2	2	09VD 02VO 02VC 02MD 02MO 02MC 02RD 02RO	1	0	2.45683717728	492.0	311.0	482	313	1
2.7	2015_May_21_1538	s	s	13	4	SIC	360	ABS	1	2	02VD 02VO 02VC 10MD 02MO 02MC 02RD 02RO	0	1	1.94150996208	None	None	None	None	1
2.7	2015_May_21_1538	s	s	13	4	SIC	361	ABS	2	1	02VD 10VO 02VC 02MD 02MO 02MC 02RD 02RO	0	1	1.78839111328	None	None	None	None	1
2.7	2015_May_21_1538	s	s	13	4	SIC	362	ABS	1	1	02VD 02VO 02VC 02MD 10MO 02MC 02RD 02RO	0	1	1.99548816681	None	None	None	None	1
2.7	2015_May_21_1538	s	s	13	4	SIC	363	RC	2	1	02VD 09VO 02VC 02MD 02MO 02MC 02RD 02RO	1	0	1.31336307526	-529.0	407.0	-529	406	1
2.7	2015_May_21_1538	s	s	13	4	SIC	364	RC	0	1	02VD 02VO 02VC 02MD 02MO 02MC 02RD 09RO	1	0	0.96825003624	146.0	310.0	143	310	1
2.7	2015_May_21_1538	s	s	13	4	SIC	365	RC	1	0	02VD 02VO 02VC 02MD 02MO 09MC 02RD 02RO	1	0	0.658571958542	64.0	107.0	61	104	1
2.7	2015_May_21_1538	s	s	13	4	SIC	366	ABS	0	2	02VD 02VO 02VC 02MD 02MO 02MC 10RD 02RO	0	1	1.55305218697	None	None	None	None	1
2.7	2015_May_21_1538	s	s	13	4	SIC	367	ABS	1	0	02VD 02VO 02VC 02MD 02MO 10MC 02RD 02RO	0	1	1.84137606621	None	None	None	None	1
2.7	2015_May_21_1538	s	s	13	4	SIC	368	ABS	2	0	02VD 02VO 10VC 02MD 02MO 02MC 02RD 02RO	0	1	1.43095898628	None	None	None	None	1
2.7	2015_May_21_1538	s	s	13	4	SIC	369	ABS	1	0	02VD 02VO 02VC 02MD 02MO 10MC 02RD 02RO	0	1	1.38568496704	None	None	None	None	1
2.7	2015_May_21_1538	s	s	13	4	SIC	370	ABS	2	2	10VD 02VO 02VC 02MD 02MO 02MC 02RD 02RO	0	1	1.94933199883	None	None	None	None	1
2.7	2015_May_21_1538	s	s	13	4	SIC	371	RC	1	2	02VD 02VO 02VC 09MD 02MO 02MC 02RD 02RO	1	0	0.952738046646	406.0	-213.0	403	-211	1
2.7	2015_May_21_1538	s	s	13	4	SIC	372	RC	2	0	02VD 02VO 09VC 02MD 02MO 02MC 02RD 02RO	1	0	0.699855089188	104.0	-110.0	96	-107	1
2.7	2015_May_21_1538	s	s	13	4	SIC	373	ABS	1	2	02VD 02VO 02VC 10MD 02MO 02MC 02RD 02RO	0	1	1.7031378746	None	None	None	None	1
2.7	2015_May_21_1538	s	s	13	4	SIC	374	ABS	0	1	02VD 02VO 02VC 02MD 02MO 02MC 02RD 10RO	0	1	2.99675607681	None	None	None	None	1
2.7	2015_May_21_1538	s	s	13	4	SIC	375	ABS	0	2	02VD 02VO 02VC 02MD 02MO 02MC 10RD 02RO	0	1	1.68885779381	None	None	None	None	1
2.7	2015_May_21_1538	s	s	13	4	SIC	376	ABS	2	1	02VD 10VO 02VC 02MD 02MO 02MC 02RD 02RO	1	0	1.30590701103	None	None	90	-45	0
2.7	2015_May_21_1538	s	s	13	4	SIC	377	RC	1	1	02VD 02VO 02VC 02MD 09MO 02MC 02RD 02RO	1	0	1.01943016052	-319.0	-23.0	-320	-17	1
2.7	2015_May_21_1538	s	s	13	4	SIC	378	ABS	2	0	02VD 02VO 10VC 02MD 02MO 02MC 02RD 02RO	0	1	1.96114802361	None	None	None	None	1
2.7	2015_May_21_1538	s	s	13	4	SIC	379	ABS	1	1	02VD 02VO 02VC 02MD 10MO 02MC 02RD 02RO	0	1	1.47955298424	None	None	None	None	1
2.7	2015_May_21_1538	s	s	13	4	SIC	380	RC	0	1	02VD 02VO 02VC 02MD 02MO 02MC 02RD 09RO	1	0	2.4011080265	-249.0	-209.0	-249	-220	1
2.7	2015_May_21_1538	s	s	13	4	SIC	381	RC	1	0	02VD 02VO 02VC 02MD 02MO 09MC 02RD 02RO	1	0	0.99486207962	-329.0	403.0	-334	397	1
2.7	2015_May_21_1538	s	s	13	4	SIC	382	RC	0	2	02VD 02VO 02VC 02MD 02MO 02MC 09RD 02RO	1	0	0.629886865616	88.0	61.0	88	55	1
2.7	2015_May_21_1538	s	s	13	4	SIC	383	RC	2	2	09VD 02VO 02VC 02MD 02MO 02MC 02RD 02RO	1	0	1.41181397438	-508.0	351.0	-518	354	1
2.7	2015_May_21_1538	s	s	13	4	SIC	384	RC	2	1	02VD 09VO 02VC 02MD 02MO 02MC 02RD 02RO	1	0	1.35042715073	326.0	-181.0	327	-188	1
2.7	2015_May_21_1538	s	s	13	4	SIC	385	RC	1	0	02VD 02VO 02VC 02MD 02MO 09MC 02RD 02RO	1	0	0.819607019424	381.0	-112.0	379	-112	1
2.7	2015_May_21_1538	s	s	13	4	SIC	386	ABS	2	1	02VD 10VO 02VC 02MD 02MO 02MC 02RD 02RO	0	1	1.19994401932	None	None	None	None	1
2.7	2015_May_21_1538	s	s	13	4	SIC	387	RC	1	1	02VD 02VO 02VC 02MD 09MO 02MC 02RD 02RO	1	0	0.65348482132	45.0	327.0	42	328	1
2.7	2015_May_21_1538	s	s	13	4	SIC	388	RC	2	2	09VD 02VO 02VC 02MD 02MO 02MC 02RD 02RO	1	0	0.973508834839	478.0	-208.0	484	-211	1
2.7	2015_May_21_1538	s	s	13	4	SIC	389	ABS	2	2	10VD 02VO 02VC 02MD 02MO 02MC 02RD 02RO	1	0	2.07089710236	None	None	126	-99	0
2.7	2015_May_21_1538	s	s	13	4	SIC	390	RC	0	1	02VD 02VO 02VC 02MD 02MO 02MC 02RD 09RO	1	0	1.50598192215	-146.0	198.0	-140	201	1
2.7	2015_May_21_1538	s	s	13	4	SIC	391	ABS	0	1	02VD 02VO 02VC 02MD 02MO 02MC 02RD 10RO	0	1	2.15958404541	None	None	None	None	1
2.7	2015_May_21_1538	s	s	13	4	SIC	392	ABS	2	0	02VD 02VO 10VC 02MD 02MO 02MC 02RD 02RO	0	1	1.66819787025	None	None	None	None	1
2.7	2015_May_21_1538	s	s	13	4	SIC	393	RC	2	0	02VD 02VO 09VC 02MD 02MO 02MC 02RD 02RO	0	1	1.89005303383	-290.0	-336.0	None	None	0
2.7	2015_May_21_1538	s	s	13	4	SIC	394	ABS	0	2	02VD 02VO 02VC 02MD 02MO 02MC 10RD 02RO	0	1	2.66584610939	None	None	None	None	1
2.7	2015_May_21_1538	s	s	13	4	SIC	395	RC	0	2	02VD 02VO 02VC 02MD 02MO 02MC 09RD 02RO	1	0	2.1420519352	-327.0	-339.0	-333	-338	1
2.7	2015_May_21_1538	s	s	13	4	SIC	396	RC	1	2	02VD 02VO 02VC 09MD 02MO 02MC 02RD 02RO	1	0	1.15288090706	-373.0	-314.0	-376	-314	1
2.7	2015_May_21_1538	s	s	13	4	SIC	397	ABS	1	1	02VD 02VO 02VC 02MD 10MO 02MC 02RD 02RO	0	1	1.61845898628	None	None	None	None	1
2.7	2015_May_21_1538	s	s	13	4	SIC	398	ABS	1	0	02VD 02VO 02VC 02MD 02MO 10MC 02RD 02RO	0	1	1.5146958828	None	None	None	None	1
2.7	2015_May_21_1538	s	s	13	4	SIC	399	ABS	1	2	02VD 02VO 02VC 10MD 02MO 02MC 02RD 02RO	0	1	1.83312702179	None	None	None	None	1
2.7	2015_May_21_1538	s	s	13	4	SIC	400	RC	2	1	02VD 09VO 02VC 02MD 02MO 02MC 02RD 02RO	1	0	1.03216814995	-456.0	98.0	-452	100	1
2.7	2015_May_21_1538	s	s	13	4	SIC	401	RC	0	2	02VD 02VO 02VC 02MD 02MO 02MC 09RD 02RO	1	0	1.74143004417	-502.0	206.0	-502	198	1
2.7	2015_May_21_1538	s	s	13	4	SIC	402	RC	1	2	02VD 02VO 02VC 09MD 02MO 02MC 02RD 02RO	1	0	1.11461400986	-293.0	-60.0	-293	-63	1
2.7	2015_May_21_1538	s	s	13	4	SIC	403	ABS	2	0	02VD 02VO 10VC 02MD 02MO 02MC 02RD 02RO	0	1	1.79222488403	None	None	None	None	1
2.7	2015_May_21_1538	s	s	13	4	SIC	404	RC	2	2	09VD 02VO 02VC 02MD 02MO 02MC 02RD 02RO	1	0	0.747137784958	125.0	345.0	124	337	1
2.7	2015_May_21_1538	s	s	13	4	SIC	405	ABS	2	2	10VD 02VO 02VC 02MD 02MO 02MC 02RD 02RO	0	1	1.77671599388	None	None	None	None	1
2.7	2015_May_21_1538	s	s	13	4	SIC	406	ABS	0	1	02VD 02VO 02VC 02MD 02MO 02MC 02RD 10RO	0	1	5.96714496613	None	None	None	None	1
2.7	2015_May_21_1538	s	s	13	4	SIC	407	ABS	0	2	02VD 02VO 02VC 02MD 02MO 02MC 10RD 02RO	0	1	1.77681112289	None	None	None	None	1
2.7	2015_May_21_1538	s	s	13	4	SIC	408	RC	1	1	02VD 02VO 02VC 02MD 09MO 02MC 02RD 02RO	1	0	0.783197879791	-68.0	362.0	-69	357	1
2.7	2015_May_21_1538	s	s	13	4	SIC	409	RC	1	0	02VD 02VO 02VC 02MD 02MO 09MC 02RD 02RO	1	0	0.761809825897	418.0	247.0	413	248	1
2.7	2015_May_21_1538	s	s	13	4	SIC	410	RC	0	1	02VD 02VO 02VC 02MD 02MO 02MC 02RD 09RO	1	0	1.02327299118	202.0	197.0	200	202	1
2.7	2015_May_21_1538	s	s	13	4	SIC	411	ABS	1	0	02VD 02VO 02VC 02MD 02MO 10MC 02RD 02RO	0	1	2.70115089417	None	None	None	None	1
2.7	2015_May_21_1538	s	s	13	4	SIC	412	ABS	1	2	02VD 02VO 02VC 10MD 02MO 02MC 02RD 02RO	0	1	1.35987997055	None	None	None	None	1
2.7	2015_May_21_1538	s	s	13	4	SIC	413	RC	2	0	02VD 02VO 09VC 02MD 02MO 02MC 02RD 02RO	1	0	0.634896039963	-74.0	172.0	-74	174	1
2.7	2015_May_21_1538	s	s	13	4	SIC	414	ABS	2	1	02VD 10VO 02VC 02MD 02MO 02MC 02RD 02RO	0	1	1.50302791595	None	None	None	None	1
2.7	2015_May_21_1538	s	s	13	4	SIC	415	RC	2	1	02VD 09VO 02VC 02MD 02MO 02MC 02RD 02RO	1	0	0.823282957077	-60.0	-105.0	-57	-100	1
2.7	2015_May_21_1538	s	s	13	4	SIC	416	ABS	1	1	02VD 02VO 02VC 02MD 10MO 02MC 02RD 02RO	0	1	1.70977306366	None	None	None	None	1
2.7	2015_May_21_1538	s	s	13	4	SIC	417	RC	1	2	02VD 02VO 02VC 09MD 02MO 02MC 02RD 02RO	1	0	0.72701382637	-132.0	-209.0	-137	-213	1
2.7	2015_May_21_1538	s	s	13	4	SIC	418	RC	0	2	02VD 02VO 02VC 02MD 02MO 02MC 09RD 02RO	1	0	2.5626809597	-133.0	-279.0	-127	-275	1
2.7	2015_May_21_1538	s	s	13	4	SIC	419	ABS	0	1	02VD 02VO 02VC 02MD 02MO 02MC 02RD 10RO	0	1	3.03298997879	None	None	None	None	1
2.7	2015_May_21_1538	s	s	13	4	SIC	420	ABS	2	2	10VD 02VO 02VC 02MD 02MO 02MC 02RD 02RO	0	1	1.80934882164	None	None	None	None	1
2.7	2015_May_21_1538	s	s	13	4	SIC	421	ABS	1	1	02VD 02VO 02VC 02MD 10MO 02MC 02RD 02RO	0	1	3.80128288269	None	None	None	None	1
2.7	2015_May_21_1538	s	s	13	4	SIC	422	ABS	1	0	02VD 02VO 02VC 02MD 02MO 10MC 02RD 02RO	0	1	1.43534398079	None	None	None	None	1
2.7	2015_May_21_1538	s	s	13	4	SIC	423	RC	2	1	02VD 09VO 02VC 02MD 02MO 02MC 02RD 02RO	1	0	0.958394050598	236.0	-244.0	243	-244	1
2.7	2015_May_21_1538	s	s	13	4	SIC	424	ABS	1	2	02VD 02VO 02VC 10MD 02MO 02MC 02RD 02RO	0	1	1.41174983978	None	None	None	None	1
2.7	2015_May_21_1538	s	s	13	4	SIC	425	ABS	0	2	02VD 02VO 02VC 02MD 02MO 02MC 10RD 02RO	0	1	1.17176699638	None	None	None	None	1
2.7	2015_May_21_1538	s	s	13	4	SIC	426	ABS	2	0	02VD 02VO 10VC 02MD 02MO 02MC 02RD 02RO	0	1	1.36471295357	None	None	None	None	1
2.7	2015_May_21_1538	s	s	13	4	SIC	427	RC	2	2	09VD 02VO 02VC 02MD 02MO 02MC 02RD 02RO	1	0	1.24696612358	265.0	307.0	269	305	1
2.7	2015_May_21_1538	s	s	13	4	SIC	428	RC	1	0	02VD 02VO 02VC 02MD 02MO 09MC 02RD 02RO	1	0	1.453977108	-405.0	179.0	-406	179	1
2.7	2015_May_21_1538	s	s	13	4	SIC	429	RC	2	0	02VD 02VO 09VC 02MD 02MO 02MC 02RD 02RO	1	0	0.770230054855	97.0	376.0	103	379	1
2.7	2015_May_21_1538	s	s	13	4	SIC	430	ABS	2	1	02VD 10VO 02VC 02MD 02MO 02MC 02RD 02RO	0	1	1.18826603889	None	None	None	None	1
2.7	2015_May_21_1538	s	s	13	4	SIC	431	RC	1	1	02VD 02VO 02VC 02MD 09MO 02MC 02RD 02RO	1	0	0.866132974625	-315.0	-25.0	-308	-29	1
2.7	2015_May_21_1538	s	s	13	4	SIC	432	RC	0	1	02VD 02VO 02VC 02MD 02MO 02MC 02RD 09RO	1	0	1.62001299858	-21.0	-238.0	-27	-245	1
2.7	2015_May_21_1538	s	s	13	4	SIC	433	RC	2	2	09VD 02VO 02VC 02MD 02MO 02MC 02RD 02RO	1	0	0.623080015182	344.0	-51.0	347	-54	1
2.7	2015_May_21_1538	s	s	13	4	SIC	434	ABS	2	1	02VD 10VO 02VC 02MD 02MO 02MC 02RD 02RO	0	1	1.36211800575	None	None	None	None	1
2.7	2015_May_21_1538	s	s	13	4	SIC	435	RC	2	1	02VD 09VO 02VC 02MD 02MO 02MC 02RD 02RO	1	0	0.984706163406	266.0	-308.0	274	-307	1
2.7	2015_May_21_1538	s	s	13	4	SIC	436	ABS	1	1	02VD 02VO 02VC 02MD 10MO 02MC 02RD 02RO	0	1	1.52959990501	None	None	None	None	1
2.7	2015_May_21_1538	s	s	13	4	SIC	437	RC	1	1	02VD 02VO 02VC 02MD 09MO 02MC 02RD 02RO	1	0	0.870357036591	399.0	-107.0	397	-116	1
2.7	2015_May_21_1538	s	s	13	4	SIC	438	RC	0	1	02VD 02VO 02VC 02MD 02MO 02MC 02RD 09RO	1	0	1.4588868618	126.0	-296.0	130	-301	1
2.7	2015_May_21_1538	s	s	13	4	SIC	439	RC	1	2	02VD 02VO 02VC 09MD 02MO 02MC 02RD 02RO	1	0	1.04726886749	59.0	-395.0	65	-393	1
2.7	2015_May_21_1538	s	s	13	4	SIC	440	ABS	0	2	02VD 02VO 02VC 02MD 02MO 02MC 10RD 02RO	1	0	1.86718702316	None	None	-37	30	0
2.7	2015_May_21_1538	s	s	13	4	SIC	441	RC	2	0	02VD 02VO 09VC 02MD 02MO 02MC 02RD 02RO	1	0	1.44159603119	-501.0	-316.0	-496	-326	1
2.7	2015_May_21_1538	s	s	13	4	SIC	442	ABS	0	1	02VD 02VO 02VC 02MD 02MO 02MC 02RD 10RO	0	1	2.18593597412	None	None	None	None	1
2.7	2015_May_21_1538	s	s	13	4	SIC	443	ABS	1	2	02VD 02VO 02VC 10MD 02MO 02MC 02RD 02RO	0	1	1.20772004128	None	None	None	None	1
2.7	2015_May_21_1538	s	s	13	4	SIC	444	ABS	2	2	10VD 02VO 02VC 02MD 02MO 02MC 02RD 02RO	0	1	1.2442650795	None	None	None	None	1
2.7	2015_May_21_1538	s	s	13	4	SIC	445	RC	0	2	02VD 02VO 02VC 02MD 02MO 02MC 09RD 02RO	1	0	0.878121852875	405.0	-380.0	403	-382	1
2.7	2015_May_21_1538	s	s	13	4	SIC	446	ABS	2	0	02VD 02VO 10VC 02MD 02MO 02MC 02RD 02RO	0	1	1.40010595322	None	None	None	None	1
2.7	2015_May_21_1538	s	s	13	4	SIC	447	ABS	1	0	02VD 02VO 02VC 02MD 02MO 10MC 02RD 02RO	0	1	1.7355029583	None	None	None	None	1
2.7	2015_May_21_1538	s	s	13	4	SIC	448	RC	1	0	02VD 02VO 02VC 02MD 02MO 09MC 02RD 02RO	1	0	2.62163710594	-482.0	-175.0	-489	-172	1
2.7	2015_May_21_1538	s	s	13	4	SIC	449	ABS	0	2	02VD 02VO 02VC 02MD 02MO 02MC 10RD 02RO	0	1	1.74137187004	None	None	None	None	1
2.7	2015_May_21_1538	s	s	13	4	SIC	450	ABS	2	1	02VD 10VO 02VC 02MD 02MO 02MC 02RD 02RO	0	1	1.54978680611	None	None	None	None	1
2.7	2015_May_21_1538	s	s	13	4	SIC	451	ABS	2	2	10VD 02VO 02VC 02MD 02MO 02MC 02RD 02RO	0	1	1.01171088219	None	None	None	None	1
2.7	2015_May_21_1538	s	s	13	4	SIC	452	ABS	1	1	02VD 02VO 02VC 02MD 10MO 02MC 02RD 02RO	0	1	1.7303981781	None	None	None	None	1
2.7	2015_May_21_1538	s	s	13	4	SIC	453	RC	1	0	02VD 02VO 02VC 02MD 02MO 09MC 02RD 02RO	1	0	1.05597114563	-89.0	377.0	-91	374	1
2.7	2015_May_21_1538	s	s	13	4	SIC	454	ABS	1	2	02VD 02VO 02VC 10MD 02MO 02MC 02RD 02RO	0	1	1.41902208328	None	None	None	None	1
2.7	2015_May_21_1538	s	s	13	4	SIC	455	RC	2	2	09VD 02VO 02VC 02MD 02MO 02MC 02RD 02RO	1	0	0.740947961807	-84.0	-156.0	-81	-163	1
2.7	2015_May_21_1538	s	s	13	4	SIC	456	RC	0	1	02VD 02VO 02VC 02MD 02MO 02MC 02RD 09RO	1	0	1.82382106781	349.0	364.0	349	367	1
2.7	2015_May_21_1538	s	s	13	4	SIC	457	ABS	0	1	02VD 02VO 02VC 02MD 02MO 02MC 02RD 10RO	0	1	3.00083017349	None	None	None	None	1
2.7	2015_May_21_1538	s	s	13	4	SIC	458	RC	2	1	02VD 09VO 02VC 02MD 02MO 02MC 02RD 02RO	1	0	1.5059671402	51.0	-322.0	44	-325	1
2.7	2015_May_21_1538	s	s	13	4	SIC	459	RC	2	0	02VD 02VO 09VC 02MD 02MO 02MC 02RD 02RO	1	0	1.19991207123	-149.0	185.0	-141	182	1
2.7	2015_May_21_1538	s	s	13	4	SIC	460	ABS	1	0	02VD 02VO 02VC 02MD 02MO 10MC 02RD 02RO	0	1	1.63175392151	None	None	None	None	1
2.7	2015_May_21_1538	s	s	13	4	SIC	461	ABS	2	0	02VD 02VO 10VC 02MD 02MO 02MC 02RD 02RO	0	1	1.64733099937	None	None	None	None	1
2.7	2015_May_21_1538	s	s	13	4	SIC	462	RC	0	2	02VD 02VO 02VC 02MD 02MO 02MC 09RD 02RO	1	0	0.858612060547	118.0	-303.0	113	-307	1
2.7	2015_May_21_1538	s	s	13	4	SIC	463	RC	1	1	02VD 02VO 02VC 02MD 09MO 02MC 02RD 02RO	1	0	0.464766025543	173.0	30.0	168	25	1
2.7	2015_May_21_1538	s	s	13	4	SIC	464	RC	1	2	02VD 02VO 02VC 09MD 02MO 02MC 02RD 02RO	1	0	0.419406890869	220.0	-31.0	218	-39	1
2.7	2015_May_21_1538	s	s	13	4	SIC	465	RC	0	2	02VD 02VO 02VC 02MD 02MO 02MC 09RD 02RO	1	0	1.5531129837	-381.0	-28.0	-382	-27	1
2.7	2015_May_21_1538	s	s	13	4	SIC	466	RC	2	1	02VD 09VO 02VC 02MD 02MO 02MC 02RD 02RO	1	0	0.502522945404	120.0	5.0	125	-3	1
2.7	2015_May_21_1538	s	s	13	4	SIC	467	ABS	1	2	02VD 02VO 02VC 10MD 02MO 02MC 02RD 02RO	0	1	1.52690386772	None	None	None	None	1
2.7	2015_May_21_1538	s	s	13	4	SIC	468	RC	1	0	02VD 02VO 02VC 02MD 02MO 09MC 02RD 02RO	1	0	0.512307882309	132.0	-55.0	123	-53	1
2.7	2015_May_21_1538	s	s	13	4	SIC	469	ABS	1	0	02VD 02VO 02VC 02MD 02MO 10MC 02RD 02RO	0	1	2.05656695366	None	None	None	None	1
2.7	2015_May_21_1538	s	s	13	4	SIC	470	RC	1	1	02VD 02VO 02VC 02MD 09MO 02MC 02RD 02RO	1	0	0.607873916626	298.0	-121.0	297	-116	1
2.7	2015_May_21_1538	s	s	13	4	SIC	471	RC	2	0	02VD 02VO 09VC 02MD 02MO 02MC 02RD 02RO	1	0	0.666511058807	401.0	-297.0	402	-303	1
2.7	2015_May_21_1538	s	s	13	4	SIC	472	RC	1	2	02VD 02VO 02VC 09MD 02MO 02MC 02RD 02RO	1	0	1.0328400135	-138.0	48.0	-136	49	1
2.7	2015_May_21_1538	s	s	13	4	SIC	473	ABS	0	1	02VD 02VO 02VC 02MD 02MO 02MC 02RD 10RO	0	1	2.87133312225	None	None	None	None	1
2.7	2015_May_21_1538	s	s	13	4	SIC	474	RC	0	1	02VD 02VO 02VC 02MD 02MO 02MC 02RD 09RO	1	0	1.07086896896	287.0	247.0	279	245	1
2.7	2015_May_21_1538	s	s	13	4	SIC	475	ABS	0	2	02VD 02VO 02VC 02MD 02MO 02MC 10RD 02RO	1	0	0.717888116837	None	None	-360	324	0
2.7	2015_May_21_1538	s	s	13	4	SIC	476	ABS	2	1	02VD 10VO 02VC 02MD 02MO 02MC 02RD 02RO	0	1	1.43533802032	None	None	None	None	1
2.7	2015_May_21_1538	s	s	13	4	SIC	477	ABS	1	1	02VD 02VO 02VC 02MD 10MO 02MC 02RD 02RO	0	1	1.75346708298	None	None	None	None	1
2.7	2015_May_21_1538	s	s	13	4	SIC	478	ABS	2	0	02VD 02VO 10VC 02MD 02MO 02MC 02RD 02RO	0	1	1.40015506744	None	None	None	None	1
2.7	2015_May_21_1538	s	s	13	4	SIC	479	ABS	2	2	10VD 02VO 02VC 02MD 02MO 02MC 02RD 02RO	0	1	1.29141998291	None	None	None	None	1
2.7	2015_May_21_1538	s	s	13	4	SIC	480	RC	2	2	09VD 02VO 02VC 02MD 02MO 02MC 02RD 02RO	1	0	1.02062416077	122.0	371.0	117	376	1
