Version	Date	Stimuli	Method	Subject	Session	Condition	Trial	Target	Channel1	Channel2	Distractors	LMouseButton	RMouseButton	RT	TargetX	TargetY	ResponseX	ResponseY	Correct
2.7	2015_May_20_1536	s	s	13	3	Capacity	1	RC	2	0	15VC 08MC	1	0	1.16457104683	-51.0	-408.0	-54	-405	1
2.7	2015_May_20_1536	s	s	13	3	Capacity	2	RC	1	0	08VC 15MC	1	0	1.80653095245	-33.0	-139.0	-34	-137	1
2.7	2015_May_20_1536	s	s	13	3	Capacity	3	ABS	2	0	16VC 08MC	0	1	2.90150213242	None	None	None	None	1
2.7	2015_May_20_1536	s	s	13	3	Capacity	4	ABS	1	0	08VC 16MC	0	1	2.22398900986	None	None	None	None	1
2.7	2015_May_20_1536	s	s	13	3	Capacity	5	RC	2	0	15VC 08MC	1	0	0.611448049545	305.0	172.0	309	170	1
2.7	2015_May_20_1536	s	s	13	3	Capacity	6	ABS	1	0	08VC 16MC	0	1	2.11325597763	None	None	None	None	1
2.7	2015_May_20_1536	s	s	13	3	Capacity	7	ABS	2	0	16VC 08MC	0	1	1.98457503319	None	None	None	None	1
2.7	2015_May_20_1536	s	s	13	3	Capacity	8	RC	1	0	08VC 15MC	1	0	2.02400898933	208.0	334.0	208	336	1
2.7	2015_May_20_1536	s	s	13	3	Capacity	9	ABS	1	0	08VC 16MC	0	1	2.41973900795	None	None	None	None	1
2.7	2015_May_20_1536	s	s	13	3	Capacity	10	ABS	2	0	16VC 08MC	0	1	2.14854121208	None	None	None	None	1
2.7	2015_May_20_1536	s	s	13	3	Capacity	11	RC	1	0	08VC 15MC	1	0	1.07035303116	335.0	-163.0	329	-157	1
2.7	2015_May_20_1536	s	s	13	3	Capacity	12	RC	2	0	15VC 08MC	1	0	0.888896942139	318.0	-85.0	321	-81	1
2.7	2015_May_20_1536	s	s	13	3	Capacity	13	ABS	1	0	08VC 16MC	0	1	1.50216293335	None	None	None	None	1
2.7	2015_May_20_1536	s	s	13	3	Capacity	14	RC	2	0	15VC 08MC	1	0	1.25886917114	-268.0	-208.0	-264	-206	1
2.7	2015_May_20_1536	s	s	13	3	Capacity	15	RC	1	0	08VC 15MC	1	0	0.709939002991	493.0	202.0	494	198	1
2.7	2015_May_20_1536	s	s	13	3	Capacity	16	ABS	2	0	16VC 08MC	0	1	2.03320407867	None	None	None	None	1
2.7	2015_May_20_1536	s	s	13	3	Capacity	17	ABS	1	0	08VC 16MC	0	1	3.91906690598	None	None	None	None	1
2.7	2015_May_20_1536	s	s	13	3	Capacity	18	RC	1	0	08VC 15MC	1	0	0.900824785233	151.0	-49.0	145	-44	1
2.7	2015_May_20_1536	s	s	13	3	Capacity	19	ABS	2	0	16VC 08MC	0	1	2.28284502029	None	None	None	None	1
2.7	2015_May_20_1536	s	s	13	3	Capacity	20	RC	2	0	15VC 08MC	1	0	1.05434679985	203.0	-125.0	205	-123	1
2.7	2015_May_20_1536	s	s	13	3	Capacity	21	ABS	2	0	16VC 08MC	0	1	2.38459014893	None	None	None	None	1
2.7	2015_May_20_1536	s	s	13	3	Capacity	22	RC	2	0	15VC 08MC	1	0	0.889711856842	-33.0	370.0	-32	372	1
2.7	2015_May_20_1536	s	s	13	3	Capacity	23	ABS	1	0	08VC 16MC	0	1	1.8827559948	None	None	None	None	1
2.7	2015_May_20_1536	s	s	13	3	Capacity	24	RC	1	0	08VC 15MC	1	0	0.783051013947	-53.0	-28.0	-55	-26	1
2.7	2015_May_20_1536	s	s	13	3	Capacity	25	RC	1	0	08VC 15MC	1	0	2.07893800735	-148.0	-202.0	-148	-201	1
2.7	2015_May_20_1536	s	s	13	3	Capacity	26	ABS	2	0	16VC 08MC	0	1	2.56186509132	None	None	None	None	1
2.7	2015_May_20_1536	s	s	13	3	Capacity	27	RC	2	0	15VC 08MC	1	0	0.705652952194	-255.0	-142.0	-255	-137	1
2.7	2015_May_20_1536	s	s	13	3	Capacity	28	ABS	1	0	08VC 16MC	0	1	1.67769908905	None	None	None	None	1
2.7	2015_May_20_1536	s	s	13	3	Capacity	29	ABS	1	0	08VC 16MC	0	1	2.46651506424	None	None	None	None	1
2.7	2015_May_20_1536	s	s	13	3	Capacity	30	RC	2	0	15VC 08MC	1	0	0.69421005249	-361.0	121.0	-372	126	1
2.7	2015_May_20_1536	s	s	13	3	Capacity	31	RC	1	0	08VC 15MC	1	0	0.634973049164	-237.0	240.0	-244	245	1
2.7	2015_May_20_1536	s	s	13	3	Capacity	32	ABS	2	0	16VC 08MC	0	1	1.92575311661	None	None	None	None	1
2.7	2015_May_20_1536	s	s	13	3	Capacity	33	RC	1	0	08VC 15MC	1	0	1.62365293503	-411.0	258.0	-416	260	1
2.7	2015_May_20_1536	s	s	13	3	Capacity	34	ABS	1	0	08VC 16MC	0	1	1.92974996567	None	None	None	None	1
2.7	2015_May_20_1536	s	s	13	3	Capacity	35	ABS	2	0	16VC 08MC	0	1	2.03337216377	None	None	None	None	1
2.7	2015_May_20_1536	s	s	13	3	Capacity	36	RC	2	0	15VC 08MC	1	0	0.711139917374	-229.0	-100.0	-230	-105	1
2.7	2015_May_20_1536	s	s	13	3	Capacity	37	RC	1	0	08VC 15MC	1	0	0.583174943924	-62.0	385.0	-56	388	1
2.7	2015_May_20_1536	s	s	13	3	Capacity	38	RC	2	0	15VC 08MC	1	0	0.599633932114	333.0	209.0	339	212	1
2.7	2015_May_20_1536	s	s	13	3	Capacity	39	ABS	1	0	08VC 16MC	0	1	1.96499800682	None	None	None	None	1
2.7	2015_May_20_1536	s	s	13	3	Capacity	40	ABS	2	0	16VC 08MC	0	1	2.62063884735	None	None	None	None	1
2.7	2015_May_20_1536	s	s	13	3	Capacity	41	RC	1	0	08VC 15MC	1	0	0.64173412323	2.0	241.0	4	242	1
2.7	2015_May_20_1536	s	s	13	3	Capacity	42	ABS	1	0	08VC 16MC	0	1	2.01917719841	None	None	None	None	1
2.7	2015_May_20_1536	s	s	13	3	Capacity	43	ABS	2	0	16VC 08MC	0	1	1.55308294296	None	None	None	None	1
2.7	2015_May_20_1536	s	s	13	3	Capacity	44	RC	2	0	15VC 08MC	0	1	1.34775519371	525.0	-269.0	None	None	0
2.7	2015_May_20_1536	s	s	13	3	Capacity	45	RC	2	0	15VC 08MC	1	0	1.40010404587	463.0	388.0	466	385	1
2.7	2015_May_20_1536	s	s	13	3	Capacity	46	ABS	1	0	08VC 16MC	0	1	2.64763879776	None	None	None	None	1
2.7	2015_May_20_1536	s	s	13	3	Capacity	47	RC	1	0	08VC 15MC	1	0	1.49171686172	-22.0	306.0	-18	307	1
2.7	2015_May_20_1536	s	s	13	3	Capacity	48	ABS	2	0	16VC 08MC	0	1	1.2800219059	None	None	None	None	1
2.7	2015_May_20_1536	s	s	13	3	Capacity	49	RC	2	0	15VC 08MC	1	0	1.10579895973	316.0	-348.0	315	-352	1
2.7	2015_May_20_1536	s	s	13	3	Capacity	50	ABS	1	0	08VC 16MC	0	1	1.44041419029	None	None	None	None	1
2.7	2015_May_20_1536	s	s	13	3	Capacity	51	ABS	2	0	16VC 08MC	0	1	1.18836402893	None	None	None	None	1
2.7	2015_May_20_1536	s	s	13	3	Capacity	52	RC	1	0	08VC 15MC	1	0	0.690417051315	319.0	-212.0	330	-212	1
2.7	2015_May_20_1536	s	s	13	3	Capacity	53	ABS	1	0	08VC 16MC	0	1	1.34126400948	None	None	None	None	1
2.7	2015_May_20_1536	s	s	13	3	Capacity	54	RC	1	0	08VC 15MC	1	0	0.855698823929	102.0	26.0	99	24	1
2.7	2015_May_20_1536	s	s	13	3	Capacity	55	ABS	2	0	16VC 08MC	0	1	1.36483502388	None	None	None	None	1
2.7	2015_May_20_1536	s	s	13	3	Capacity	56	RC	2	0	15VC 08MC	1	0	2.24753499031	-534.0	-188.0	-539	-185	1
2.7	2015_May_20_1536	s	s	13	3	Capacity	57	ABS	1	0	08VC 16MC	0	1	1.15990710258	None	None	None	None	1
2.7	2015_May_20_1536	s	s	13	3	Capacity	58	RC	1	0	08VC 15MC	1	0	1.78842020035	-97.0	326.0	-94	330	1
2.7	2015_May_20_1536	s	s	13	3	Capacity	59	ABS	2	0	16VC 08MC	0	1	1.63536095619	None	None	None	None	1
2.7	2015_May_20_1536	s	s	13	3	Capacity	60	RC	2	0	15VC 08MC	1	0	1.04695796967	465.0	-127.0	457	-125	1
2.7	2015_May_20_1536	s	s	13	3	Capacity	61	ABS	2	0	16VC 08MC	0	1	1.74595689774	None	None	None	None	1
2.7	2015_May_20_1536	s	s	13	3	Capacity	62	RC	2	0	15VC 08MC	1	0	1.5958480835	-487.0	270.0	-487	270	1
2.7	2015_May_20_1536	s	s	13	3	Capacity	63	RC	1	0	08VC 15MC	1	0	1.78352189064	-406.0	-274.0	-401	-273	1
2.7	2015_May_20_1536	s	s	13	3	Capacity	64	ABS	1	0	08VC 16MC	0	1	1.92981410027	None	None	None	None	1
2.7	2015_May_20_1536	s	s	13	3	Capacity	1	ABS	0	1	08RD 16RO	0	1	3.25981688499	None	None	None	None	1
2.7	2015_May_20_1536	s	s	13	3	Capacity	2	RC	0	2	15RD 08RO	1	0	2.43300390244	-479.0	376.0	-472	382	1
2.7	2015_May_20_1536	s	s	13	3	Capacity	3	RC	0	1	08RD 15RO	1	0	0.841190099716	-165.0	284.0	-160	287	1
2.7	2015_May_20_1536	s	s	13	3	Capacity	4	ABS	0	2	16RD 08RO	0	1	1.91213798523	None	None	None	None	1
2.7	2015_May_20_1536	s	s	13	3	Capacity	5	RC	0	1	08RD 15RO	1	0	2.63601899147	-136.0	-247.0	-136	-242	1
2.7	2015_May_20_1536	s	s	13	3	Capacity	6	ABS	0	1	08RD 16RO	0	1	3.06416392326	None	None	None	None	1
2.7	2015_May_20_1536	s	s	13	3	Capacity	7	RC	0	2	15RD 08RO	1	0	2.05163407326	511.0	166.0	513	167	1
2.7	2015_May_20_1536	s	s	13	3	Capacity	8	ABS	0	2	16RD 08RO	0	1	2.06755900383	None	None	None	None	1
2.7	2015_May_20_1536	s	s	13	3	Capacity	9	ABS	0	1	08RD 16RO	0	1	3.18919610977	None	None	None	None	1
2.7	2015_May_20_1536	s	s	13	3	Capacity	10	RC	0	2	15RD 08RO	1	0	1.70609903336	-171.0	354.0	-171	359	1
2.7	2015_May_20_1536	s	s	13	3	Capacity	11	RC	0	1	08RD 15RO	1	0	1.52698302269	-467.0	-34.0	-462	-30	1
2.7	2015_May_20_1536	s	s	13	3	Capacity	12	ABS	0	2	16RD 08RO	0	1	2.08263802528	None	None	None	None	1
2.7	2015_May_20_1536	s	s	13	3	Capacity	13	RC	0	2	15RD 08RO	1	0	1.76185393333	-454.0	299.0	-453	303	1
2.7	2015_May_20_1536	s	s	13	3	Capacity	14	RC	0	1	08RD 15RO	1	0	0.623069047928	-133.0	256.0	-131	255	1
2.7	2015_May_20_1536	s	s	13	3	Capacity	15	ABS	0	2	16RD 08RO	0	1	2.2358751297	None	None	None	None	1
2.7	2015_May_20_1536	s	s	13	3	Capacity	16	ABS	0	1	08RD 16RO	0	1	3.51525688171	None	None	None	None	1
2.7	2015_May_20_1536	s	s	13	3	Capacity	17	RC	0	2	15RD 08RO	1	0	0.936767101288	249.0	-159.0	241	-162	1
2.7	2015_May_20_1536	s	s	13	3	Capacity	18	ABS	0	2	16RD 08RO	0	1	1.74519896507	None	None	None	None	1
2.7	2015_May_20_1536	s	s	13	3	Capacity	19	ABS	0	1	08RD 16RO	0	1	3.53739213943	None	None	None	None	1
2.7	2015_May_20_1536	s	s	13	3	Capacity	20	RC	0	1	08RD 15RO	1	0	0.794770002365	287.0	-192.0	289	-198	1
2.7	2015_May_20_1536	s	s	13	3	Capacity	21	ABS	0	2	16RD 08RO	0	1	1.93635106087	None	None	None	None	1
2.7	2015_May_20_1536	s	s	13	3	Capacity	22	ABS	0	1	08RD 16RO	0	1	3.56145310402	None	None	None	None	1
2.7	2015_May_20_1536	s	s	13	3	Capacity	23	RC	0	1	08RD 15RO	1	0	2.15074801445	481.0	-87.0	482	-95	1
2.7	2015_May_20_1536	s	s	13	3	Capacity	24	RC	0	2	15RD 08RO	1	0	0.999907970428	381.0	-400.0	382	-403	1
2.7	2015_May_20_1536	s	s	13	3	Capacity	25	RC	0	1	08RD 15RO	0	1	4.73826599121	-185.0	-320.0	None	None	0
2.7	2015_May_20_1536	s	s	13	3	Capacity	26	ABS	0	1	08RD 16RO	0	1	3.56107115746	None	None	None	None	1
2.7	2015_May_20_1536	s	s	13	3	Capacity	27	ABS	0	2	16RD 08RO	0	1	2.07103610039	None	None	None	None	1
2.7	2015_May_20_1536	s	s	13	3	Capacity	28	RC	0	2	15RD 08RO	1	0	0.729258060455	228.0	252.0	229	247	1
2.7	2015_May_20_1536	s	s	13	3	Capacity	29	RC	0	2	15RD 08RO	1	0	0.877260923386	68.0	244.0	63	246	1
2.7	2015_May_20_1536	s	s	13	3	Capacity	30	RC	0	1	08RD 15RO	1	0	2.32595300674	-177.0	-381.0	-173	-377	1
2.7	2015_May_20_1536	s	s	13	3	Capacity	31	ABS	0	2	16RD 08RO	0	1	2.12968111038	None	None	None	None	1
2.7	2015_May_20_1536	s	s	13	3	Capacity	32	ABS	0	1	08RD 16RO	0	1	4.00727987289	None	None	None	None	1
2.7	2015_May_20_1536	s	s	13	3	Capacity	33	ABS	0	1	08RD 16RO	0	1	4.95058083534	None	None	None	None	1
2.7	2015_May_20_1536	s	s	13	3	Capacity	34	RC	0	2	15RD 08RO	1	0	1.44218802452	411.0	395.0	414	399	1
2.7	2015_May_20_1536	s	s	13	3	Capacity	35	RC	0	1	08RD 15RO	1	0	1.57666707039	-63.0	49.0	-66	49	1
2.7	2015_May_20_1536	s	s	13	3	Capacity	36	ABS	0	2	16RD 08RO	0	1	2.32980680466	None	None	None	None	1
2.7	2015_May_20_1536	s	s	13	3	Capacity	37	ABS	0	1	08RD 16RO	0	1	4.26041603088	None	None	None	None	1
2.7	2015_May_20_1536	s	s	13	3	Capacity	38	RC	0	2	15RD 08RO	1	0	1.59788012505	-450.0	-274.0	-448	-269	1
2.7	2015_May_20_1536	s	s	13	3	Capacity	39	ABS	0	2	16RD 08RO	0	1	2.70117592812	None	None	None	None	1
2.7	2015_May_20_1536	s	s	13	3	Capacity	40	RC	0	1	08RD 15RO	1	0	2.39629912376	392.0	240.0	392	243	1
2.7	2015_May_20_1536	s	s	13	3	Capacity	41	RC	0	2	15RD 08RO	1	0	0.937719106674	87.0	-205.0	75	-197	1
2.7	2015_May_20_1536	s	s	13	3	Capacity	42	ABS	0	1	08RD 16RO	0	1	3.64356780052	None	None	None	None	1
2.7	2015_May_20_1536	s	s	13	3	Capacity	43	RC	0	1	08RD 15RO	1	0	1.24706697464	206.0	375.0	203	366	1
2.7	2015_May_20_1536	s	s	13	3	Capacity	44	ABS	0	2	16RD 08RO	0	1	2.35388803482	None	None	None	None	1
2.7	2015_May_20_1536	s	s	13	3	Capacity	45	ABS	0	1	08RD 16RO	0	1	3.37506484985	None	None	None	None	1
2.7	2015_May_20_1536	s	s	13	3	Capacity	46	ABS	0	2	16RD 08RO	0	1	2.35354399681	None	None	None	None	1
2.7	2015_May_20_1536	s	s	13	3	Capacity	47	RC	0	1	08RD 15RO	1	0	0.724635124207	105.0	356.0	104	356	1
2.7	2015_May_20_1536	s	s	13	3	Capacity	48	RC	0	2	15RD 08RO	1	0	1.29425406456	-281.0	44.0	-285	41	1
2.7	2015_May_20_1536	s	s	13	3	Capacity	49	ABS	0	1	08RD 16RO	0	1	4.0722360611	None	None	None	None	1
2.7	2015_May_20_1536	s	s	13	3	Capacity	50	RC	0	1	08RD 15RO	1	0	0.759330034256	473.0	51.0	478	47	1
2.7	2015_May_20_1536	s	s	13	3	Capacity	51	ABS	0	2	16RD 08RO	0	1	2.57716083527	None	None	None	None	1
2.7	2015_May_20_1536	s	s	13	3	Capacity	52	RC	0	2	15RD 08RO	1	0	1.00644397736	404.0	-220.0	403	-222	1
2.7	2015_May_20_1536	s	s	13	3	Capacity	53	RC	0	2	15RD 08RO	1	0	0.664752006531	385.0	295.0	391	291	1
2.7	2015_May_20_1536	s	s	13	3	Capacity	54	ABS	0	2	16RD 08RO	0	1	2.37704706192	None	None	None	None	1
2.7	2015_May_20_1536	s	s	13	3	Capacity	55	RC	0	1	08RD 15RO	1	0	1.53806090355	-39.0	134.0	-43	141	1
2.7	2015_May_20_1536	s	s	13	3	Capacity	56	ABS	0	1	08RD 16RO	0	1	2.85396695137	None	None	None	None	1
2.7	2015_May_20_1536	s	s	13	3	Capacity	57	RC	0	1	08RD 15RO	1	0	1.50066184998	-124.0	-378.0	-136	-377	1
2.7	2015_May_20_1536	s	s	13	3	Capacity	58	ABS	0	2	16RD 08RO	0	1	2.15381813049	None	None	None	None	1
2.7	2015_May_20_1536	s	s	13	3	Capacity	59	ABS	0	1	08RD 16RO	0	1	3.66001701355	None	None	None	None	1
2.7	2015_May_20_1536	s	s	13	3	Capacity	60	RC	0	2	15RD 08RO	1	0	2.57406401634	480.0	404.0	485	405	1
2.7	2015_May_20_1536	s	s	13	3	Capacity	61	ABS	0	2	16RD 08RO	0	1	2.69022798538	None	None	None	None	1
2.7	2015_May_20_1536	s	s	13	3	Capacity	62	ABS	0	1	08RD 16RO	0	1	3.50704407692	None	None	None	None	1
2.7	2015_May_20_1536	s	s	13	3	Capacity	63	RC	0	2	15RD 08RO	1	0	1.55309486389	522.0	-297.0	510	-292	1
2.7	2015_May_20_1536	s	s	13	3	Capacity	64	RC	0	1	08RD 15RO	1	0	2.0303940773	-114.0	259.0	-112	250	1
2.7	2015_May_20_1536	s	s	13	3	SIC	1	ABS	2	2	10VD 02VO 02VC 02MD 02MO 02MC 02RD 02RO	0	1	2.03322792053	None	None	None	None	1
2.7	2015_May_20_1536	s	s	13	3	SIC	2	RC	2	1	02VD 09VO 02VC 02MD 02MO 02MC 02RD 02RO	1	0	1.69428801537	-429.0	246.0	-423	250	1
2.7	2015_May_20_1536	s	s	13	3	SIC	3	RC	1	1	02VD 02VO 02VC 02MD 09MO 02MC 02RD 02RO	1	0	2.06639099121	519.0	-323.0	527	-320	1
2.7	2015_May_20_1536	s	s	13	3	SIC	4	RC	1	2	02VD 02VO 02VC 09MD 02MO 02MC 02RD 02RO	1	0	1.02330899239	-177.0	309.0	-177	306	1
2.7	2015_May_20_1536	s	s	13	3	SIC	5	RC	0	2	02VD 02VO 02VC 02MD 02MO 02MC 09RD 02RO	1	0	0.713142871857	-263.0	286.0	-265	288	1
2.7	2015_May_20_1536	s	s	13	3	SIC	6	ABS	1	2	02VD 02VO 02VC 10MD 02MO 02MC 02RD 02RO	0	1	1.97192502022	None	None	None	None	1
2.7	2015_May_20_1536	s	s	13	3	SIC	7	RC	0	1	02VD 02VO 02VC 02MD 02MO 02MC 02RD 09RO	1	0	0.703214883804	-156.0	56.0	-153	56	1
2.7	2015_May_20_1536	s	s	13	3	SIC	8	ABS	0	2	02VD 02VO 02VC 02MD 02MO 02MC 10RD 02RO	0	1	2.53002095222	None	None	None	None	1
2.7	2015_May_20_1536	s	s	13	3	SIC	9	ABS	2	1	02VD 10VO 02VC 02MD 02MO 02MC 02RD 02RO	0	1	1.36469292641	None	None	None	None	1
2.7	2015_May_20_1536	s	s	13	3	SIC	10	ABS	1	1	02VD 02VO 02VC 02MD 10MO 02MC 02RD 02RO	0	1	2.57028007507	None	None	None	None	1
2.7	2015_May_20_1536	s	s	13	3	SIC	11	ABS	1	0	02VD 02VO 02VC 02MD 02MO 10MC 02RD 02RO	0	1	2.45947003365	None	None	None	None	1
2.7	2015_May_20_1536	s	s	13	3	SIC	12	ABS	0	1	02VD 02VO 02VC 02MD 02MO 02MC 02RD 10RO	0	1	2.78425908089	None	None	None	None	1
2.7	2015_May_20_1536	s	s	13	3	SIC	13	ABS	2	0	02VD 02VO 10VC 02MD 02MO 02MC 02RD 02RO	0	1	1.79775118828	None	None	None	None	1
2.7	2015_May_20_1536	s	s	13	3	SIC	14	RC	2	2	09VD 02VO 02VC 02MD 02MO 02MC 02RD 02RO	1	0	1.53873085976	-431.0	-402.0	-435	-399	1
2.7	2015_May_20_1536	s	s	13	3	SIC	15	RC	1	0	02VD 02VO 02VC 02MD 02MO 09MC 02RD 02RO	1	0	0.796376943588	338.0	21.0	335	16	1
2.7	2015_May_20_1536	s	s	13	3	SIC	16	RC	2	0	02VD 02VO 09VC 02MD 02MO 02MC 02RD 02RO	1	0	0.882257938385	321.0	-202.0	312	-206	1
2.7	2015_May_20_1536	s	s	13	3	SIC	17	RC	1	1	02VD 02VO 02VC 02MD 09MO 02MC 02RD 02RO	1	0	1.34122490883	-485.0	-282.0	-490	-284	1
2.7	2015_May_20_1536	s	s	13	3	SIC	18	RC	1	2	02VD 02VO 02VC 09MD 02MO 02MC 02RD 02RO	1	0	2.0475051403	51.0	-348.0	57	-354	1
2.7	2015_May_20_1536	s	s	13	3	SIC	19	RC	0	1	02VD 02VO 02VC 02MD 02MO 02MC 02RD 09RO	1	0	1.03514814377	336.0	-140.0	333	-145	1
2.7	2015_May_20_1536	s	s	13	3	SIC	20	ABS	0	2	02VD 02VO 02VC 02MD 02MO 02MC 10RD 02RO	0	1	1.39679598808	None	None	None	None	1
2.7	2015_May_20_1536	s	s	13	3	SIC	21	ABS	2	1	02VD 10VO 02VC 02MD 02MO 02MC 02RD 02RO	0	1	2.47114896774	None	None	None	None	1
2.7	2015_May_20_1536	s	s	13	3	SIC	22	RC	1	0	02VD 02VO 02VC 02MD 02MO 09MC 02RD 02RO	1	0	0.705614089966	-166.0	-81.0	-156	-81	1
2.7	2015_May_20_1536	s	s	13	3	SIC	23	RC	2	2	09VD 02VO 02VC 02MD 02MO 02MC 02RD 02RO	1	0	0.799730062485	-137.0	102.0	-136	102	1
2.7	2015_May_20_1536	s	s	13	3	SIC	24	ABS	1	0	02VD 02VO 02VC 02MD 02MO 10MC 02RD 02RO	0	1	1.72366499901	None	None	None	None	1
2.7	2015_May_20_1536	s	s	13	3	SIC	25	ABS	0	1	02VD 02VO 02VC 02MD 02MO 02MC 02RD 10RO	0	1	2.05915689468	None	None	None	None	1
2.7	2015_May_20_1536	s	s	13	3	SIC	26	RC	0	2	02VD 02VO 02VC 02MD 02MO 02MC 09RD 02RO	0	1	1.25466108322	-319.0	-398.0	None	None	0
2.7	2015_May_20_1536	s	s	13	3	SIC	27	RC	2	0	02VD 02VO 09VC 02MD 02MO 02MC 02RD 02RO	1	0	0.653589010239	-35.0	-165.0	-28	-164	1
2.7	2015_May_20_1536	s	s	13	3	SIC	28	ABS	2	0	02VD 02VO 10VC 02MD 02MO 02MC 02RD 02RO	0	1	1.77184510231	None	None	None	None	1
2.7	2015_May_20_1536	s	s	13	3	SIC	29	RC	2	1	02VD 09VO 02VC 02MD 02MO 02MC 02RD 02RO	1	0	0.84167098999	150.0	84.0	147	86	1
2.7	2015_May_20_1536	s	s	13	3	SIC	30	ABS	2	2	10VD 02VO 02VC 02MD 02MO 02MC 02RD 02RO	0	1	1.4448299408	None	None	None	None	1
2.7	2015_May_20_1536	s	s	13	3	SIC	31	ABS	1	2	02VD 02VO 02VC 10MD 02MO 02MC 02RD 02RO	0	1	1.63551998138	None	None	None	None	1
2.7	2015_May_20_1536	s	s	13	3	SIC	32	ABS	1	1	02VD 02VO 02VC 02MD 10MO 02MC 02RD 02RO	0	1	2.17703199387	None	None	None	None	1
2.7	2015_May_20_1536	s	s	13	3	SIC	33	ABS	2	1	02VD 10VO 02VC 02MD 02MO 02MC 02RD 02RO	0	1	1.63549208641	None	None	None	None	1
2.7	2015_May_20_1536	s	s	13	3	SIC	34	ABS	1	0	02VD 02VO 02VC 02MD 02MO 10MC 02RD 02RO	0	1	2.86703395844	None	None	None	None	1
2.7	2015_May_20_1536	s	s	13	3	SIC	35	RC	0	2	02VD 02VO 02VC 02MD 02MO 02MC 09RD 02RO	1	0	0.808187007904	246.0	-174.0	240	-174	1
2.7	2015_May_20_1536	s	s	13	3	SIC	36	RC	0	1	02VD 02VO 02VC 02MD 02MO 02MC 02RD 09RO	1	0	2.10656905174	-359.0	-170.0	-352	-171	1
2.7	2015_May_20_1536	s	s	13	3	SIC	37	ABS	0	2	02VD 02VO 02VC 02MD 02MO 02MC 10RD 02RO	0	1	1.54508805275	None	None	None	None	1
2.7	2015_May_20_1536	s	s	13	3	SIC	38	ABS	2	2	10VD 02VO 02VC 02MD 02MO 02MC 02RD 02RO	0	1	1.37155818939	None	None	None	None	1
2.7	2015_May_20_1536	s	s	13	3	SIC	39	ABS	1	1	02VD 02VO 02VC 02MD 10MO 02MC 02RD 02RO	0	1	1.78337812424	None	None	None	None	1
2.7	2015_May_20_1536	s	s	13	3	SIC	40	RC	1	1	02VD 02VO 02VC 02MD 09MO 02MC 02RD 02RO	1	0	1.11129808426	-278.0	-181.0	-271	-186	1
2.7	2015_May_20_1536	s	s	13	3	SIC	41	ABS	1	2	02VD 02VO 02VC 10MD 02MO 02MC 02RD 02RO	0	1	2.18349409103	None	None	None	None	1
2.7	2015_May_20_1536	s	s	13	3	SIC	42	RC	2	2	09VD 02VO 02VC 02MD 02MO 02MC 02RD 02RO	1	0	1.19178199768	-502.0	3.0	-507	0	1
2.7	2015_May_20_1536	s	s	13	3	SIC	43	RC	2	0	02VD 02VO 09VC 02MD 02MO 02MC 02RD 02RO	1	0	1.63031196594	-469.0	380.0	-466	384	1
2.7	2015_May_20_1536	s	s	13	3	SIC	44	ABS	0	1	02VD 02VO 02VC 02MD 02MO 02MC 02RD 10RO	0	1	3.53733611107	None	None	None	None	1
2.7	2015_May_20_1536	s	s	13	3	SIC	45	RC	1	0	02VD 02VO 02VC 02MD 02MO 09MC 02RD 02RO	1	0	0.643736839294	73.0	-21.0	73	-19	1
2.7	2015_May_20_1536	s	s	13	3	SIC	46	ABS	2	0	02VD 02VO 10VC 02MD 02MO 02MC 02RD 02RO	0	1	1.840914011	None	None	None	None	1
2.7	2015_May_20_1536	s	s	13	3	SIC	47	RC	2	1	02VD 09VO 02VC 02MD 02MO 02MC 02RD 02RO	1	0	1.21174407005	-410.0	295.0	-404	288	1
2.7	2015_May_20_1536	s	s	13	3	SIC	48	RC	1	2	02VD 02VO 02VC 09MD 02MO 02MC 02RD 02RO	1	0	0.893857955933	492.0	57.0	490	54	1
2.7	2015_May_20_1536	s	s	13	3	SIC	49	RC	0	2	02VD 02VO 02VC 02MD 02MO 02MC 09RD 02RO	0	1	1.22349405289	316.0	71.0	None	None	0
2.7	2015_May_20_1536	s	s	13	3	SIC	50	RC	2	1	02VD 09VO 02VC 02MD 02MO 02MC 02RD 02RO	1	0	2.27771496773	-33.0	241.0	-27	239	1
2.7	2015_May_20_1536	s	s	13	3	SIC	51	ABS	0	1	02VD 02VO 02VC 02MD 02MO 02MC 02RD 10RO	0	1	3.15133404732	None	None	None	None	1
2.7	2015_May_20_1536	s	s	13	3	SIC	52	RC	2	0	02VD 02VO 09VC 02MD 02MO 02MC 02RD 02RO	1	0	1.31779193878	238.0	-325.0	230	-326	1
2.7	2015_May_20_1536	s	s	13	3	SIC	53	RC	1	0	02VD 02VO 02VC 02MD 02MO 09MC 02RD 02RO	1	0	1.1411550045	181.0	-121.0	186	-123	1
2.7	2015_May_20_1536	s	s	13	3	SIC	54	RC	2	2	09VD 02VO 02VC 02MD 02MO 02MC 02RD 02RO	1	0	0.655424118042	139.0	380.0	143	386	1
2.7	2015_May_20_1536	s	s	13	3	SIC	55	ABS	0	2	02VD 02VO 02VC 02MD 02MO 02MC 10RD 02RO	0	1	1.47069978714	None	None	None	None	1
2.7	2015_May_20_1536	s	s	13	3	SIC	56	ABS	1	2	02VD 02VO 02VC 10MD 02MO 02MC 02RD 02RO	0	1	1.16463589668	None	None	None	None	1
2.7	2015_May_20_1536	s	s	13	3	SIC	57	ABS	1	1	02VD 02VO 02VC 02MD 10MO 02MC 02RD 02RO	0	1	1.24192690849	None	None	None	None	1
2.7	2015_May_20_1536	s	s	13	3	SIC	58	RC	0	1	02VD 02VO 02VC 02MD 02MO 02MC 02RD 09RO	1	0	0.971436023712	194.0	362.0	196	357	1
2.7	2015_May_20_1536	s	s	13	3	SIC	59	RC	1	1	02VD 02VO 02VC 02MD 09MO 02MC 02RD 02RO	1	0	1.43077707291	496.0	372.0	498	368	1
2.7	2015_May_20_1536	s	s	13	3	SIC	60	RC	1	2	02VD 02VO 02VC 09MD 02MO 02MC 02RD 02RO	1	0	0.740882873535	5.0	-54.0	-3	-55	1
2.7	2015_May_20_1536	s	s	13	3	SIC	61	ABS	1	0	02VD 02VO 02VC 02MD 02MO 10MC 02RD 02RO	0	1	2.03561687469	None	None	None	None	1
2.7	2015_May_20_1536	s	s	13	3	SIC	62	ABS	2	1	02VD 10VO 02VC 02MD 02MO 02MC 02RD 02RO	0	1	1.32683706284	None	None	None	None	1
2.7	2015_May_20_1536	s	s	13	3	SIC	63	ABS	2	0	02VD 02VO 10VC 02MD 02MO 02MC 02RD 02RO	0	1	1.58434486389	None	None	None	None	1
2.7	2015_May_20_1536	s	s	13	3	SIC	64	ABS	2	2	10VD 02VO 02VC 02MD 02MO 02MC 02RD 02RO	0	1	1.78292894363	None	None	None	None	1
2.7	2015_May_20_1536	s	s	13	3	SIC	65	RC	0	2	02VD 02VO 02VC 02MD 02MO 02MC 09RD 02RO	0	1	1.27055907249	254.0	237.0	None	None	0
2.7	2015_May_20_1536	s	s	13	3	SIC	66	ABS	1	0	02VD 02VO 02VC 02MD 02MO 10MC 02RD 02RO	0	1	2.33621883392	None	None	None	None	1
2.7	2015_May_20_1536	s	s	13	3	SIC	67	ABS	1	2	02VD 02VO 02VC 10MD 02MO 02MC 02RD 02RO	0	1	1.84741401672	None	None	None	None	1
2.7	2015_May_20_1536	s	s	13	3	SIC	68	ABS	1	1	02VD 02VO 02VC 02MD 10MO 02MC 02RD 02RO	0	1	1.8982219696	None	None	None	None	1
2.7	2015_May_20_1536	s	s	13	3	SIC	69	ABS	2	2	10VD 02VO 02VC 02MD 02MO 02MC 02RD 02RO	0	1	1.4656829834	None	None	None	None	1
2.7	2015_May_20_1536	s	s	13	3	SIC	70	RC	0	1	02VD 02VO 02VC 02MD 02MO 02MC 02RD 09RO	1	0	0.999929904938	182.0	-364.0	183	-367	1
2.7	2015_May_20_1536	s	s	13	3	SIC	71	ABS	2	0	02VD 02VO 10VC 02MD 02MO 02MC 02RD 02RO	0	1	1.35297107697	None	None	None	None	1
2.7	2015_May_20_1536	s	s	13	3	SIC	72	RC	1	1	02VD 02VO 02VC 02MD 09MO 02MC 02RD 02RO	1	0	1.37652611732	-399.0	-175.0	-395	-178	1
2.7	2015_May_20_1536	s	s	13	3	SIC	73	ABS	0	2	02VD 02VO 02VC 02MD 02MO 02MC 10RD 02RO	0	1	1.97363591194	None	None	None	None	1
2.7	2015_May_20_1536	s	s	13	3	SIC	74	RC	1	2	02VD 02VO 02VC 09MD 02MO 02MC 02RD 02RO	1	0	1.16156721115	-518.0	-97.0	-515	-88	1
2.7	2015_May_20_1536	s	s	13	3	SIC	75	RC	1	0	02VD 02VO 02VC 02MD 02MO 09MC 02RD 02RO	1	0	2.93057322502	-183.0	-127.0	-181	-128	1
2.7	2015_May_20_1536	s	s	13	3	SIC	76	RC	2	2	09VD 02VO 02VC 02MD 02MO 02MC 02RD 02RO	1	0	0.752738952637	294.0	-146.0	300	-151	1
2.7	2015_May_20_1536	s	s	13	3	SIC	77	RC	2	0	02VD 02VO 09VC 02MD 02MO 02MC 02RD 02RO	1	0	0.658429861069	163.0	-135.0	154	-128	1
2.7	2015_May_20_1536	s	s	13	3	SIC	78	ABS	0	1	02VD 02VO 02VC 02MD 02MO 02MC 02RD 10RO	0	1	3.77762413025	None	None	None	None	1
2.7	2015_May_20_1536	s	s	13	3	SIC	79	RC	2	1	02VD 09VO 02VC 02MD 02MO 02MC 02RD 02RO	1	0	1.23538804054	-423.0	-191.0	-427	-197	1
2.7	2015_May_20_1536	s	s	13	3	SIC	80	ABS	2	1	02VD 10VO 02VC 02MD 02MO 02MC 02RD 02RO	0	1	1.49426102638	None	None	None	None	1
2.7	2015_May_20_1536	s	s	13	3	SIC	81	RC	2	0	02VD 02VO 09VC 02MD 02MO 02MC 02RD 02RO	1	0	0.723131895065	14.0	-182.0	11	-191	1
2.7	2015_May_20_1536	s	s	13	3	SIC	82	RC	1	1	02VD 02VO 02VC 02MD 09MO 02MC 02RD 02RO	1	0	1.19505286217	-390.0	-249.0	-386	-250	1
2.7	2015_May_20_1536	s	s	13	3	SIC	83	ABS	2	1	02VD 10VO 02VC 02MD 02MO 02MC 02RD 02RO	0	1	1.58350396156	None	None	None	None	1
2.7	2015_May_20_1536	s	s	13	3	SIC	84	RC	1	2	02VD 02VO 02VC 09MD 02MO 02MC 02RD 02RO	1	0	1.12392497063	441.0	326.0	450	326	1
2.7	2015_May_20_1536	s	s	13	3	SIC	85	ABS	1	0	02VD 02VO 02VC 02MD 02MO 10MC 02RD 02RO	0	1	1.65888094902	None	None	None	None	1
2.7	2015_May_20_1536	s	s	13	3	SIC	86	ABS	0	1	02VD 02VO 02VC 02MD 02MO 02MC 02RD 10RO	0	1	2.14148187637	None	None	None	None	1
2.7	2015_May_20_1536	s	s	13	3	SIC	87	ABS	2	2	10VD 02VO 02VC 02MD 02MO 02MC 02RD 02RO	0	1	1.37147903442	None	None	None	None	1
2.7	2015_May_20_1536	s	s	13	3	SIC	88	ABS	1	1	02VD 02VO 02VC 02MD 10MO 02MC 02RD 02RO	0	1	2.153455019	None	None	None	None	1
2.7	2015_May_20_1536	s	s	13	3	SIC	89	RC	2	1	02VD 09VO 02VC 02MD 02MO 02MC 02RD 02RO	0	1	1.05867910385	224.0	-225.0	None	None	0
2.7	2015_May_20_1536	s	s	13	3	SIC	90	ABS	1	2	02VD 02VO 02VC 10MD 02MO 02MC 02RD 02RO	0	1	1.41170310974	None	None	None	None	1
2.7	2015_May_20_1536	s	s	13	3	SIC	91	RC	0	2	02VD 02VO 02VC 02MD 02MO 02MC 09RD 02RO	1	0	0.952969074249	-202.0	-3.0	-195	-7	1
2.7	2015_May_20_1536	s	s	13	3	SIC	92	ABS	2	0	02VD 02VO 10VC 02MD 02MO 02MC 02RD 02RO	0	1	1.11496400833	None	None	None	None	1
2.7	2015_May_20_1536	s	s	13	3	SIC	93	ABS	0	2	02VD 02VO 02VC 02MD 02MO 02MC 10RD 02RO	0	1	1.22959208488	None	None	None	None	1
2.7	2015_May_20_1536	s	s	13	3	SIC	94	RC	0	1	02VD 02VO 02VC 02MD 02MO 02MC 02RD 09RO	1	0	2.56531310081	265.0	-305.0	261	-307	1
2.7	2015_May_20_1536	s	s	13	3	SIC	95	RC	2	2	09VD 02VO 02VC 02MD 02MO 02MC 02RD 02RO	1	0	0.983421087265	-338.0	119.0	-334	120	1
2.7	2015_May_20_1536	s	s	13	3	SIC	96	RC	1	0	02VD 02VO 02VC 02MD 02MO 09MC 02RD 02RO	1	0	0.976295948029	-17.0	211.0	-18	211	1
2.7	2015_May_20_1536	s	s	13	3	SIC	97	RC	0	1	02VD 02VO 02VC 02MD 02MO 02MC 02RD 09RO	1	0	1.70612502098	-209.0	151.0	-203	148	1
2.7	2015_May_20_1536	s	s	13	3	SIC	98	ABS	1	0	02VD 02VO 02VC 02MD 02MO 10MC 02RD 02RO	0	1	2.29443383217	None	None	None	None	1
2.7	2015_May_20_1536	s	s	13	3	SIC	99	ABS	0	2	02VD 02VO 02VC 02MD 02MO 02MC 10RD 02RO	0	1	1.74829101562	None	None	None	None	1
2.7	2015_May_20_1536	s	s	13	3	SIC	100	RC	1	1	02VD 02VO 02VC 02MD 09MO 02MC 02RD 02RO	1	0	1.94857501984	262.0	327.0	263	326	1
2.7	2015_May_20_1536	s	s	13	3	SIC	101	ABS	2	1	02VD 10VO 02VC 02MD 02MO 02MC 02RD 02RO	0	1	1.76491522789	None	None	None	None	1
2.7	2015_May_20_1536	s	s	13	3	SIC	102	RC	2	1	02VD 09VO 02VC 02MD 02MO 02MC 02RD 02RO	1	0	1.5712621212	180.0	-359.0	187	-354	1
2.7	2015_May_20_1536	s	s	13	3	SIC	103	RC	0	2	02VD 02VO 02VC 02MD 02MO 02MC 09RD 02RO	1	0	1.55046105385	-289.0	-341.0	-289	-347	1
2.7	2015_May_20_1536	s	s	13	3	SIC	104	RC	1	2	02VD 02VO 02VC 09MD 02MO 02MC 02RD 02RO	1	0	1.65574407578	-157.0	-156.0	-153	-150	1
2.7	2015_May_20_1536	s	s	13	3	SIC	105	ABS	1	2	02VD 02VO 02VC 10MD 02MO 02MC 02RD 02RO	0	1	1.49185204506	None	None	None	None	1
2.7	2015_May_20_1536	s	s	13	3	SIC	106	ABS	2	2	10VD 02VO 02VC 02MD 02MO 02MC 02RD 02RO	0	1	1.48886299133	None	None	None	None	1
2.7	2015_May_20_1536	s	s	13	3	SIC	107	RC	1	0	02VD 02VO 02VC 02MD 02MO 09MC 02RD 02RO	1	0	1.25352501869	250.0	-80.0	245	-79	1
2.7	2015_May_20_1536	s	s	13	3	SIC	108	RC	2	2	09VD 02VO 02VC 02MD 02MO 02MC 02RD 02RO	1	0	0.740993976593	307.0	125.0	311	117	1
2.7	2015_May_20_1536	s	s	13	3	SIC	109	ABS	1	1	02VD 02VO 02VC 02MD 10MO 02MC 02RD 02RO	0	1	1.62369990349	None	None	None	None	1
2.7	2015_May_20_1536	s	s	13	3	SIC	110	RC	2	0	02VD 02VO 09VC 02MD 02MO 02MC 02RD 02RO	1	0	1.42361593246	-398.0	-393.0	-402	-391	1
2.7	2015_May_20_1536	s	s	13	3	SIC	111	ABS	0	1	02VD 02VO 02VC 02MD 02MO 02MC 02RD 10RO	0	1	2.71250605583	None	None	None	None	1
2.7	2015_May_20_1536	s	s	13	3	SIC	112	ABS	2	0	02VD 02VO 10VC 02MD 02MO 02MC 02RD 02RO	0	1	1.43578290939	None	None	None	None	1
2.7	2015_May_20_1536	s	s	13	3	SIC	113	RC	0	1	02VD 02VO 02VC 02MD 02MO 02MC 02RD 09RO	1	0	0.982418060303	51.0	-323.0	45	-318	1
2.7	2015_May_20_1536	s	s	13	3	SIC	114	ABS	2	0	02VD 02VO 10VC 02MD 02MO 02MC 02RD 02RO	0	1	1.31512212753	None	None	None	None	1
2.7	2015_May_20_1536	s	s	13	3	SIC	115	RC	1	2	02VD 02VO 02VC 09MD 02MO 02MC 02RD 02RO	1	0	0.985897064209	-174.0	-53.0	-176	-50	1
2.7	2015_May_20_1536	s	s	13	3	SIC	116	RC	2	1	02VD 09VO 02VC 02MD 02MO 02MC 02RD 02RO	1	0	1.37122607231	35.0	-322.0	40	-324	1
2.7	2015_May_20_1536	s	s	13	3	SIC	117	RC	0	2	02VD 02VO 02VC 02MD 02MO 02MC 09RD 02RO	1	0	0.876996040344	-142.0	-290.0	-141	-294	1
2.7	2015_May_20_1536	s	s	13	3	SIC	118	RC	1	1	02VD 02VO 02VC 02MD 09MO 02MC 02RD 02RO	1	0	0.811435937881	-292.0	-222.0	-285	-221	1
2.7	2015_May_20_1536	s	s	13	3	SIC	119	ABS	0	2	02VD 02VO 02VC 02MD 02MO 02MC 10RD 02RO	0	1	2.15980291367	None	None	None	None	1
2.7	2015_May_20_1536	s	s	13	3	SIC	120	ABS	2	1	02VD 10VO 02VC 02MD 02MO 02MC 02RD 02RO	0	1	1.81924796104	None	None	None	None	1
2.7	2015_May_20_1536	s	s	13	3	SIC	121	RC	2	2	09VD 02VO 02VC 02MD 02MO 02MC 02RD 02RO	1	0	0.985702037811	161.0	-252.0	163	-250	1
2.7	2015_May_20_1536	s	s	13	3	SIC	122	ABS	2	2	10VD 02VO 02VC 02MD 02MO 02MC 02RD 02RO	0	1	1.62368583679	None	None	None	None	1
2.7	2015_May_20_1536	s	s	13	3	SIC	123	ABS	1	0	02VD 02VO 02VC 02MD 02MO 10MC 02RD 02RO	0	1	2.0240111351	None	None	None	None	1
2.7	2015_May_20_1536	s	s	13	3	SIC	124	ABS	0	1	02VD 02VO 02VC 02MD 02MO 02MC 02RD 10RO	0	1	2.94917488098	None	None	None	None	1
2.7	2015_May_20_1536	s	s	13	3	SIC	125	ABS	1	2	02VD 02VO 02VC 10MD 02MO 02MC 02RD 02RO	0	1	1.05412197113	None	None	None	None	1
2.7	2015_May_20_1536	s	s	13	3	SIC	126	RC	2	0	02VD 02VO 09VC 02MD 02MO 02MC 02RD 02RO	1	0	0.700470924377	-51.0	326.0	-50	326	1
2.7	2015_May_20_1536	s	s	13	3	SIC	127	ABS	1	1	02VD 02VO 02VC 02MD 10MO 02MC 02RD 02RO	0	1	1.86613798141	None	None	None	None	1
2.7	2015_May_20_1536	s	s	13	3	SIC	128	RC	1	0	02VD 02VO 02VC 02MD 02MO 09MC 02RD 02RO	1	0	1.76496601105	-411.0	407.0	-415	413	1
2.7	2015_May_20_1536	s	s	13	3	SIC	129	ABS	1	1	02VD 02VO 02VC 02MD 10MO 02MC 02RD 02RO	0	1	1.90307998657	None	None	None	None	1
2.7	2015_May_20_1536	s	s	13	3	SIC	130	ABS	1	0	02VD 02VO 02VC 02MD 02MO 10MC 02RD 02RO	0	1	3.00936198235	None	None	None	None	1
2.7	2015_May_20_1536	s	s	13	3	SIC	131	ABS	0	1	02VD 02VO 02VC 02MD 02MO 02MC 02RD 10RO	0	1	2.23570799828	None	None	None	None	1
2.7	2015_May_20_1536	s	s	13	3	SIC	132	RC	0	2	02VD 02VO 02VC 02MD 02MO 02MC 09RD 02RO	1	0	1.81204509735	-344.0	313.0	-348	317	1
2.7	2015_May_20_1536	s	s	13	3	SIC	133	RC	1	0	02VD 02VO 02VC 02MD 02MO 09MC 02RD 02RO	1	0	0.888687849045	287.0	-199.0	290	-207	1
2.7	2015_May_20_1536	s	s	13	3	SIC	134	ABS	0	2	02VD 02VO 02VC 02MD 02MO 02MC 10RD 02RO	0	1	1.52402019501	None	None	None	None	1
2.7	2015_May_20_1536	s	s	13	3	SIC	135	ABS	1	2	02VD 02VO 02VC 10MD 02MO 02MC 02RD 02RO	0	1	1.32944202423	None	None	None	None	1
2.7	2015_May_20_1536	s	s	13	3	SIC	136	RC	0	1	02VD 02VO 02VC 02MD 02MO 02MC 02RD 09RO	1	0	1.76017594337	-510.0	341.0	-514	337	1
2.7	2015_May_20_1536	s	s	13	3	SIC	137	ABS	2	0	02VD 02VO 10VC 02MD 02MO 02MC 02RD 02RO	0	1	1.51312303543	None	None	None	None	1
2.7	2015_May_20_1536	s	s	13	3	SIC	138	RC	2	1	02VD 09VO 02VC 02MD 02MO 02MC 02RD 02RO	1	0	0.629943847656	310.0	143.0	320	142	1
2.7	2015_May_20_1536	s	s	13	3	SIC	139	RC	1	2	02VD 02VO 02VC 09MD 02MO 02MC 02RD 02RO	1	0	1.47662591934	-425.0	-98.0	-427	-92	1
2.7	2015_May_20_1536	s	s	13	3	SIC	140	ABS	2	1	02VD 10VO 02VC 02MD 02MO 02MC 02RD 02RO	0	1	1.93355894089	None	None	None	None	1
2.7	2015_May_20_1536	s	s	13	3	SIC	141	RC	2	0	02VD 02VO 09VC 02MD 02MO 02MC 02RD 02RO	1	0	2.16515207291	-534.0	-328.0	-525	-327	1
2.7	2015_May_20_1536	s	s	13	3	SIC	142	ABS	2	2	10VD 02VO 02VC 02MD 02MO 02MC 02RD 02RO	0	1	1.63552498817	None	None	None	None	1
2.7	2015_May_20_1536	s	s	13	3	SIC	143	RC	1	1	02VD 02VO 02VC 02MD 09MO 02MC 02RD 02RO	1	0	1.04696178436	-122.0	-146.0	-125	-139	1
2.7	2015_May_20_1536	s	s	13	3	SIC	144	RC	2	2	09VD 02VO 02VC 02MD 02MO 02MC 02RD 02RO	1	0	0.941322088242	-363.0	62.0	-355	60	1
2.7	2015_May_20_1536	s	s	13	3	SIC	145	ABS	0	2	02VD 02VO 02VC 02MD 02MO 02MC 10RD 02RO	0	1	1.50348901749	None	None	None	None	1
2.7	2015_May_20_1536	s	s	13	3	SIC	146	RC	1	1	02VD 02VO 02VC 02MD 09MO 02MC 02RD 02RO	1	0	2.20939898491	-523.0	-369.0	-532	-366	1
2.7	2015_May_20_1536	s	s	13	3	SIC	147	ABS	2	0	02VD 02VO 10VC 02MD 02MO 02MC 02RD 02RO	0	1	2.053429842	None	None	None	None	1
2.7	2015_May_20_1536	s	s	13	3	SIC	148	ABS	1	2	02VD 02VO 02VC 10MD 02MO 02MC 02RD 02RO	0	1	1.91799783707	None	None	None	None	1
2.7	2015_May_20_1536	s	s	13	3	SIC	149	RC	2	1	02VD 09VO 02VC 02MD 02MO 02MC 02RD 02RO	1	0	1.2652258873	273.0	-351.0	275	-347	1
2.7	2015_May_20_1536	s	s	13	3	SIC	150	RC	0	1	02VD 02VO 02VC 02MD 02MO 02MC 02RD 09RO	1	0	1.17642307281	-528.0	112.0	-521	119	1
2.7	2015_May_20_1536	s	s	13	3	SIC	151	ABS	1	1	02VD 02VO 02VC 02MD 10MO 02MC 02RD 02RO	0	1	1.56480407715	None	None	None	None	1
2.7	2015_May_20_1536	s	s	13	3	SIC	152	ABS	2	2	10VD 02VO 02VC 02MD 02MO 02MC 02RD 02RO	0	1	1.36477208138	None	None	None	None	1
2.7	2015_May_20_1536	s	s	13	3	SIC	153	RC	1	2	02VD 02VO 02VC 09MD 02MO 02MC 02RD 02RO	1	0	0.882133960724	-98.0	177.0	-98	172	1
2.7	2015_May_20_1536	s	s	13	3	SIC	154	RC	1	0	02VD 02VO 02VC 02MD 02MO 09MC 02RD 02RO	1	0	1.51318120956	-529.0	294.0	-519	292	1
2.7	2015_May_20_1536	s	s	13	3	SIC	155	ABS	1	0	02VD 02VO 02VC 02MD 02MO 10MC 02RD 02RO	0	1	2.63100910187	None	None	None	None	1
2.7	2015_May_20_1536	s	s	13	3	SIC	156	RC	2	2	09VD 02VO 02VC 02MD 02MO 02MC 02RD 02RO	1	0	1.6433031559	69.0	325.0	72	320	1
2.7	2015_May_20_1536	s	s	13	3	SIC	157	ABS	2	1	02VD 10VO 02VC 02MD 02MO 02MC 02RD 02RO	0	1	1.58630204201	None	None	None	None	1
2.7	2015_May_20_1536	s	s	13	3	SIC	158	ABS	0	1	02VD 02VO 02VC 02MD 02MO 02MC 02RD 10RO	0	1	3.76591587067	None	None	None	None	1
2.7	2015_May_20_1536	s	s	13	3	SIC	159	RC	2	0	02VD 02VO 09VC 02MD 02MO 02MC 02RD 02RO	1	0	1.73822903633	-256.0	-126.0	-258	-126	1
2.7	2015_May_20_1536	s	s	13	3	SIC	160	RC	0	2	02VD 02VO 02VC 02MD 02MO 02MC 09RD 02RO	1	0	0.773945093155	201.0	283.0	210	279	1
2.7	2015_May_20_1536	s	s	13	3	SIC	161	RC	1	2	02VD 02VO 02VC 09MD 02MO 02MC 02RD 02RO	1	0	1.25880885124	319.0	-405.0	314	-408	1
2.7	2015_May_20_1536	s	s	13	3	SIC	162	RC	0	1	02VD 02VO 02VC 02MD 02MO 02MC 02RD 09RO	1	0	1.87097191811	468.0	308.0	462	308	1
2.7	2015_May_20_1536	s	s	13	3	SIC	163	RC	2	0	02VD 02VO 09VC 02MD 02MO 02MC 02RD 02RO	1	0	1.39502596855	-382.0	-99.0	-379	-103	1
2.7	2015_May_20_1536	s	s	13	3	SIC	164	ABS	2	2	10VD 02VO 02VC 02MD 02MO 02MC 02RD 02RO	0	1	1.60016298294	None	None	None	None	1
2.7	2015_May_20_1536	s	s	13	3	SIC	165	ABS	0	2	02VD 02VO 02VC 02MD 02MO 02MC 10RD 02RO	0	1	1.67790198326	None	None	None	None	1
2.7	2015_May_20_1536	s	s	13	3	SIC	166	RC	2	1	02VD 09VO 02VC 02MD 02MO 02MC 02RD 02RO	1	0	0.797003030777	176.0	411.0	172	414	1
2.7	2015_May_20_1536	s	s	13	3	SIC	167	ABS	0	1	02VD 02VO 02VC 02MD 02MO 02MC 02RD 10RO	0	1	3.77529096603	None	None	None	None	1
2.7	2015_May_20_1536	s	s	13	3	SIC	168	ABS	1	0	02VD 02VO 02VC 02MD 02MO 10MC 02RD 02RO	0	1	2.40991687775	None	None	None	None	1
2.7	2015_May_20_1536	s	s	13	3	SIC	169	RC	2	2	09VD 02VO 02VC 02MD 02MO 02MC 02RD 02RO	1	0	2.00953197479	483.0	397.0	481	397	1
2.7	2015_May_20_1536	s	s	13	3	SIC	170	ABS	2	1	02VD 10VO 02VC 02MD 02MO 02MC 02RD 02RO	0	1	1.764991045	None	None	None	None	1
2.7	2015_May_20_1536	s	s	13	3	SIC	171	ABS	2	0	02VD 02VO 10VC 02MD 02MO 02MC 02RD 02RO	0	1	1.93701219559	None	None	None	None	1
2.7	2015_May_20_1536	s	s	13	3	SIC	172	RC	1	0	02VD 02VO 02VC 02MD 02MO 09MC 02RD 02RO	1	0	0.752948999405	459.0	28.0	458	32	1
2.7	2015_May_20_1536	s	s	13	3	SIC	173	RC	1	1	02VD 02VO 02VC 02MD 09MO 02MC 02RD 02RO	1	0	1.32368898392	-322.0	-289.0	-331	-283	1
2.7	2015_May_20_1536	s	s	13	3	SIC	174	ABS	1	1	02VD 02VO 02VC 02MD 10MO 02MC 02RD 02RO	0	1	1.93594193459	None	None	None	None	1
2.7	2015_May_20_1536	s	s	13	3	SIC	175	RC	0	2	02VD 02VO 02VC 02MD 02MO 02MC 09RD 02RO	1	0	0.769955873489	273.0	76.0	281	76	1
2.7	2015_May_20_1536	s	s	13	3	SIC	176	ABS	1	2	02VD 02VO 02VC 10MD 02MO 02MC 02RD 02RO	0	1	1.2908000946	None	None	None	None	1
2.7	2015_May_20_1536	s	s	13	3	SIC	177	RC	0	1	02VD 02VO 02VC 02MD 02MO 02MC 02RD 09RO	1	0	1.41817593575	-402.0	-202.0	-402	-211	1
2.7	2015_May_20_1536	s	s	13	3	SIC	178	RC	1	2	02VD 02VO 02VC 09MD 02MO 02MC 02RD 02RO	1	0	0.803394079208	-27.0	-176.0	-21	-176	1
2.7	2015_May_20_1536	s	s	13	3	SIC	179	RC	1	1	02VD 02VO 02VC 02MD 09MO 02MC 02RD 02RO	1	0	2.03227686882	387.0	-348.0	392	-352	1
2.7	2015_May_20_1536	s	s	13	3	SIC	180	ABS	1	1	02VD 02VO 02VC 02MD 10MO 02MC 02RD 02RO	0	1	2.52999186516	None	None	None	None	1
2.7	2015_May_20_1536	s	s	13	3	SIC	181	ABS	2	0	02VD 02VO 10VC 02MD 02MO 02MC 02RD 02RO	0	1	1.84751200676	None	None	None	None	1
2.7	2015_May_20_1536	s	s	13	3	SIC	182	ABS	1	0	02VD 02VO 02VC 02MD 02MO 10MC 02RD 02RO	0	1	1.93845510483	None	None	None	None	1
2.7	2015_May_20_1536	s	s	13	3	SIC	183	ABS	2	2	10VD 02VO 02VC 02MD 02MO 02MC 02RD 02RO	0	1	1.58833789825	None	None	None	None	1
2.7	2015_May_20_1536	s	s	13	3	SIC	184	ABS	1	2	02VD 02VO 02VC 10MD 02MO 02MC 02RD 02RO	0	1	2.19754600525	None	None	None	None	1
2.7	2015_May_20_1536	s	s	13	3	SIC	185	ABS	0	2	02VD 02VO 02VC 02MD 02MO 02MC 10RD 02RO	0	1	1.98375701904	None	None	None	None	1
2.7	2015_May_20_1536	s	s	13	3	SIC	186	RC	1	0	02VD 02VO 02VC 02MD 02MO 09MC 02RD 02RO	1	0	1.12383198738	-504.0	212.0	-504	215	1
2.7	2015_May_20_1536	s	s	13	3	SIC	187	RC	0	2	02VD 02VO 02VC 02MD 02MO 02MC 09RD 02RO	1	0	1.4210729599	-227.0	-375.0	-227	-382	1
2.7	2015_May_20_1536	s	s	13	3	SIC	188	RC	2	2	09VD 02VO 02VC 02MD 02MO 02MC 02RD 02RO	1	0	0.794982910156	-244.0	-7.0	-246	-8	1
2.7	2015_May_20_1536	s	s	13	3	SIC	189	ABS	0	1	02VD 02VO 02VC 02MD 02MO 02MC 02RD 10RO	0	1	3.619617939	None	None	None	None	1
2.7	2015_May_20_1536	s	s	13	3	SIC	190	RC	2	1	02VD 09VO 02VC 02MD 02MO 02MC 02RD 02RO	1	0	0.811540842056	394.0	-60.0	393	-58	1
2.7	2015_May_20_1536	s	s	13	3	SIC	191	RC	2	0	02VD 02VO 09VC 02MD 02MO 02MC 02RD 02RO	1	0	1.48952293396	-534.0	-280.0	-533	-281	1
2.7	2015_May_20_1536	s	s	13	3	SIC	192	ABS	2	1	02VD 10VO 02VC 02MD 02MO 02MC 02RD 02RO	0	1	1.12942194939	None	None	None	None	1
2.7	2015_May_20_1536	s	s	13	3	SIC	193	RC	1	0	02VD 02VO 02VC 02MD 02MO 09MC 02RD 02RO	1	0	0.667186021805	-261.0	238.0	-269	241	1
2.7	2015_May_20_1536	s	s	13	3	SIC	194	ABS	2	2	10VD 02VO 02VC 02MD 02MO 02MC 02RD 02RO	0	1	1.44277095795	None	None	None	None	1
2.7	2015_May_20_1536	s	s	13	3	SIC	195	ABS	1	1	02VD 02VO 02VC 02MD 10MO 02MC 02RD 02RO	0	1	1.61175298691	None	None	None	None	1
2.7	2015_May_20_1536	s	s	13	3	SIC	196	RC	1	2	02VD 02VO 02VC 09MD 02MO 02MC 02RD 02RO	1	0	0.961199998856	-48.0	363.0	-47	367	1
2.7	2015_May_20_1536	s	s	13	3	SIC	197	ABS	0	1	02VD 02VO 02VC 02MD 02MO 02MC 02RD 10RO	0	1	3.5273411274	None	None	None	None	1
2.7	2015_May_20_1536	s	s	13	3	SIC	198	RC	1	1	02VD 02VO 02VC 02MD 09MO 02MC 02RD 02RO	1	0	1.04344391823	-101.0	135.0	-100	128	1
2.7	2015_May_20_1536	s	s	13	3	SIC	199	RC	2	0	02VD 02VO 09VC 02MD 02MO 02MC 02RD 02RO	1	0	1.23294591904	416.0	-126.0	416	-131	1
2.7	2015_May_20_1536	s	s	13	3	SIC	200	ABS	1	0	02VD 02VO 02VC 02MD 02MO 10MC 02RD 02RO	0	1	2.4400639534	None	None	None	None	1
2.7	2015_May_20_1536	s	s	13	3	SIC	201	ABS	2	1	02VD 10VO 02VC 02MD 02MO 02MC 02RD 02RO	0	1	2.36532402039	None	None	None	None	1
2.7	2015_May_20_1536	s	s	13	3	SIC	202	RC	2	2	09VD 02VO 02VC 02MD 02MO 02MC 02RD 02RO	1	0	1.32628202438	-296.0	344.0	-302	342	1
2.7	2015_May_20_1536	s	s	13	3	SIC	203	RC	2	1	02VD 09VO 02VC 02MD 02MO 02MC 02RD 02RO	1	0	1.17304110527	-450.0	364.0	-451	357	1
2.7	2015_May_20_1536	s	s	13	3	SIC	204	ABS	1	2	02VD 02VO 02VC 10MD 02MO 02MC 02RD 02RO	0	1	1.45873880386	None	None	None	None	1
2.7	2015_May_20_1536	s	s	13	3	SIC	205	RC	0	2	02VD 02VO 02VC 02MD 02MO 02MC 09RD 02RO	1	0	1.11759400368	-433.0	119.0	-442	128	1
2.7	2015_May_20_1536	s	s	13	3	SIC	206	ABS	0	2	02VD 02VO 02VC 02MD 02MO 02MC 10RD 02RO	0	1	1.93881106377	None	None	None	None	1
2.7	2015_May_20_1536	s	s	13	3	SIC	207	ABS	2	0	02VD 02VO 10VC 02MD 02MO 02MC 02RD 02RO	0	1	1.78329920769	None	None	None	None	1
2.7	2015_May_20_1536	s	s	13	3	SIC	208	RC	0	1	02VD 02VO 02VC 02MD 02MO 02MC 02RD 09RO	1	0	3.91906285286	499.0	-412.0	506	-411	1
2.7	2015_May_20_1536	s	s	13	3	SIC	209	RC	1	0	02VD 02VO 02VC 02MD 02MO 09MC 02RD 02RO	1	0	1.00640296936	5.0	-138.0	4	-138	1
2.7	2015_May_20_1536	s	s	13	3	SIC	210	ABS	1	1	02VD 02VO 02VC 02MD 10MO 02MC 02RD 02RO	0	1	2.33616018295	None	None	None	None	1
2.7	2015_May_20_1536	s	s	13	3	SIC	211	RC	2	0	02VD 02VO 09VC 02MD 02MO 02MC 02RD 02RO	1	0	1.67861604691	491.0	-313.0	492	-317	1
2.7	2015_May_20_1536	s	s	13	3	SIC	212	ABS	0	2	02VD 02VO 02VC 02MD 02MO 02MC 10RD 02RO	0	1	1.77674794197	None	None	None	None	1
2.7	2015_May_20_1536	s	s	13	3	SIC	213	RC	1	1	02VD 02VO 02VC 02MD 09MO 02MC 02RD 02RO	1	0	2.14820408821	60.0	162.0	54	159	1
2.7	2015_May_20_1536	s	s	13	3	SIC	214	ABS	1	2	02VD 02VO 02VC 10MD 02MO 02MC 02RD 02RO	0	1	1.80027008057	None	None	None	None	1
2.7	2015_May_20_1536	s	s	13	3	SIC	215	RC	0	2	02VD 02VO 02VC 02MD 02MO 02MC 09RD 02RO	1	0	1.8316090107	-274.0	-82.0	-276	-78	1
2.7	2015_May_20_1536	s	s	13	3	SIC	216	RC	2	2	09VD 02VO 02VC 02MD 02MO 02MC 02RD 02RO	1	0	0.493754863739	-14.0	38.0	-17	40	1
2.7	2015_May_20_1536	s	s	13	3	SIC	217	ABS	2	0	02VD 02VO 10VC 02MD 02MO 02MC 02RD 02RO	0	1	1.87934613228	None	None	None	None	1
2.7	2015_May_20_1536	s	s	13	3	SIC	218	RC	1	2	02VD 02VO 02VC 09MD 02MO 02MC 02RD 02RO	1	0	1.3152179718	-309.0	370.0	-314	372	1
2.7	2015_May_20_1536	s	s	13	3	SIC	219	ABS	2	2	10VD 02VO 02VC 02MD 02MO 02MC 02RD 02RO	0	1	1.87077999115	None	None	None	None	1
2.7	2015_May_20_1536	s	s	13	3	SIC	220	ABS	1	0	02VD 02VO 02VC 02MD 02MO 10MC 02RD 02RO	0	1	2.09438490868	None	None	None	None	1
2.7	2015_May_20_1536	s	s	13	3	SIC	221	RC	0	1	02VD 02VO 02VC 02MD 02MO 02MC 02RD 09RO	1	0	1.82120394707	-386.0	230.0	-386	235	1
2.7	2015_May_20_1536	s	s	13	3	SIC	222	ABS	0	1	02VD 02VO 02VC 02MD 02MO 02MC 02RD 10RO	0	1	3.89040994644	None	None	None	None	1
2.7	2015_May_20_1536	s	s	13	3	SIC	223	ABS	2	1	02VD 10VO 02VC 02MD 02MO 02MC 02RD 02RO	0	1	2.02391600609	None	None	None	None	1
2.7	2015_May_20_1536	s	s	13	3	SIC	224	RC	2	1	02VD 09VO 02VC 02MD 02MO 02MC 02RD 02RO	1	0	1.30599093437	532.0	-374.0	528	-374	1
2.7	2015_May_20_1536	s	s	13	3	SIC	225	RC	1	0	02VD 02VO 02VC 02MD 02MO 09MC 02RD 02RO	1	0	0.776232004166	134.0	210.0	131	216	1
2.7	2015_May_20_1536	s	s	13	3	SIC	226	RC	0	1	02VD 02VO 02VC 02MD 02MO 02MC 02RD 09RO	1	0	1.56278920174	-469.0	-110.0	-467	-107	1
2.7	2015_May_20_1536	s	s	13	3	SIC	227	ABS	2	0	02VD 02VO 10VC 02MD 02MO 02MC 02RD 02RO	0	1	1.83171105385	None	None	None	None	1
2.7	2015_May_20_1536	s	s	13	3	SIC	228	RC	1	2	02VD 02VO 02VC 09MD 02MO 02MC 02RD 02RO	1	0	1.10591292381	-168.0	-186.0	-164	-189	1
2.7	2015_May_20_1536	s	s	13	3	SIC	229	RC	2	2	09VD 02VO 02VC 02MD 02MO 02MC 02RD 02RO	1	0	1.03498601913	-292.0	-94.0	-292	-85	1
2.7	2015_May_20_1536	s	s	13	3	SIC	230	ABS	1	1	02VD 02VO 02VC 02MD 10MO 02MC 02RD 02RO	0	1	1.84731221199	None	None	None	None	1
2.7	2015_May_20_1536	s	s	13	3	SIC	231	RC	0	2	02VD 02VO 02VC 02MD 02MO 02MC 09RD 02RO	1	0	0.761392116547	-94.0	257.0	-90	252	1
2.7	2015_May_20_1536	s	s	13	3	SIC	232	RC	1	1	02VD 02VO 02VC 02MD 09MO 02MC 02RD 02RO	1	0	0.893975973129	-330.0	-194.0	-323	-201	1
2.7	2015_May_20_1536	s	s	13	3	SIC	233	ABS	2	1	02VD 10VO 02VC 02MD 02MO 02MC 02RD 02RO	0	1	1.76496982574	None	None	None	None	1
2.7	2015_May_20_1536	s	s	13	3	SIC	234	ABS	0	2	02VD 02VO 02VC 02MD 02MO 02MC 10RD 02RO	0	1	1.45640301704	None	None	None	None	1
2.7	2015_May_20_1536	s	s	13	3	SIC	235	RC	2	1	02VD 09VO 02VC 02MD 02MO 02MC 02RD 02RO	0	1	1.64743304253	367.0	-343.0	None	None	0
2.7	2015_May_20_1536	s	s	13	3	SIC	236	ABS	2	2	10VD 02VO 02VC 02MD 02MO 02MC 02RD 02RO	0	1	1.38831305504	None	None	None	None	1
2.7	2015_May_20_1536	s	s	13	3	SIC	237	RC	2	0	02VD 02VO 09VC 02MD 02MO 02MC 02RD 02RO	1	0	0.776221036911	218.0	-99.0	208	-101	1
2.7	2015_May_20_1536	s	s	13	3	SIC	238	ABS	1	0	02VD 02VO 02VC 02MD 02MO 10MC 02RD 02RO	0	1	2.16251802444	None	None	None	None	1
2.7	2015_May_20_1536	s	s	13	3	SIC	239	ABS	1	2	02VD 02VO 02VC 10MD 02MO 02MC 02RD 02RO	0	1	1.7767329216	None	None	None	None	1
2.7	2015_May_20_1536	s	s	13	3	SIC	240	ABS	0	1	02VD 02VO 02VC 02MD 02MO 02MC 02RD 10RO	0	1	4.66054701805	None	None	None	None	1
2.7	2015_May_20_1536	s	s	13	3	SIC	241	ABS	2	0	02VD 02VO 10VC 02MD 02MO 02MC 02RD 02RO	0	1	3.10666012764	None	None	None	None	1
2.7	2015_May_20_1536	s	s	13	3	SIC	242	ABS	1	1	02VD 02VO 02VC 02MD 10MO 02MC 02RD 02RO	0	1	3.22824215889	None	None	None	None	1
2.7	2015_May_20_1536	s	s	13	3	SIC	243	ABS	1	0	02VD 02VO 02VC 02MD 02MO 10MC 02RD 02RO	0	1	1.95328211784	None	None	None	None	1
2.7	2015_May_20_1536	s	s	13	3	SIC	244	ABS	1	2	02VD 02VO 02VC 10MD 02MO 02MC 02RD 02RO	0	1	1.51026797295	None	None	None	None	1
2.7	2015_May_20_1536	s	s	13	3	SIC	245	ABS	2	1	02VD 10VO 02VC 02MD 02MO 02MC 02RD 02RO	0	1	1.43205785751	None	None	None	None	1
2.7	2015_May_20_1536	s	s	13	3	SIC	246	RC	1	0	02VD 02VO 02VC 02MD 02MO 09MC 02RD 02RO	1	0	1.22097492218	241.0	-79.0	245	-74	1
2.7	2015_May_20_1536	s	s	13	3	SIC	247	RC	2	0	02VD 02VO 09VC 02MD 02MO 02MC 02RD 02RO	1	0	1.04197907448	12.0	-272.0	15	-278	1
2.7	2015_May_20_1536	s	s	13	3	SIC	248	RC	2	2	09VD 02VO 02VC 02MD 02MO 02MC 02RD 02RO	1	0	1.26461195946	-205.0	-171.0	-204	-172	1
2.7	2015_May_20_1536	s	s	13	3	SIC	249	RC	0	1	02VD 02VO 02VC 02MD 02MO 02MC 02RD 09RO	1	0	1.93789219856	-447.0	-158.0	-445	-160	1
2.7	2015_May_20_1536	s	s	13	3	SIC	250	RC	1	1	02VD 02VO 02VC 02MD 09MO 02MC 02RD 02RO	1	0	0.831861972809	388.0	347.0	392	349	1
2.7	2015_May_20_1536	s	s	13	3	SIC	251	ABS	0	1	02VD 02VO 02VC 02MD 02MO 02MC 02RD 10RO	0	1	4.13788700104	None	None	None	None	1
2.7	2015_May_20_1536	s	s	13	3	SIC	252	ABS	0	2	02VD 02VO 02VC 02MD 02MO 02MC 10RD 02RO	0	1	1.67819905281	None	None	None	None	1
2.7	2015_May_20_1536	s	s	13	3	SIC	253	RC	1	2	02VD 02VO 02VC 09MD 02MO 02MC 02RD 02RO	1	0	0.67020201683	247.0	-39.0	242	-36	1
2.7	2015_May_20_1536	s	s	13	3	SIC	254	RC	0	2	02VD 02VO 02VC 02MD 02MO 02MC 09RD 02RO	1	0	0.782234191895	-135.0	204.0	-139	207	1
2.7	2015_May_20_1536	s	s	13	3	SIC	255	ABS	2	2	10VD 02VO 02VC 02MD 02MO 02MC 02RD 02RO	0	1	1.7531850338	None	None	None	None	1
2.7	2015_May_20_1536	s	s	13	3	SIC	256	RC	2	1	02VD 09VO 02VC 02MD 02MO 02MC 02RD 02RO	1	0	1.14110302925	-490.0	-278.0	-492	-278	1
2.7	2015_May_20_1536	s	s	13	3	SIC	257	RC	1	0	02VD 02VO 02VC 02MD 02MO 09MC 02RD 02RO	1	0	1.45654177666	102.0	-336.0	95	-341	1
2.7	2015_May_20_1536	s	s	13	3	SIC	258	ABS	2	2	10VD 02VO 02VC 02MD 02MO 02MC 02RD 02RO	0	1	1.49433708191	None	None	None	None	1
2.7	2015_May_20_1536	s	s	13	3	SIC	259	RC	1	1	02VD 02VO 02VC 02MD 09MO 02MC 02RD 02RO	1	0	0.905679941177	-400.0	-18.0	-399	-15	1
2.7	2015_May_20_1536	s	s	13	3	SIC	260	RC	2	0	02VD 02VO 09VC 02MD 02MO 02MC 02RD 02RO	1	0	1.72968506813	-431.0	-194.0	-433	-193	1
2.7	2015_May_20_1536	s	s	13	3	SIC	261	RC	2	1	02VD 09VO 02VC 02MD 02MO 02MC 02RD 02RO	1	0	0.858664989471	-374.0	-273.0	-381	-278	1
2.7	2015_May_20_1536	s	s	13	3	SIC	262	ABS	1	0	02VD 02VO 02VC 02MD 02MO 10MC 02RD 02RO	0	1	2.56097483635	None	None	None	None	1
2.7	2015_May_20_1536	s	s	13	3	SIC	263	RC	2	2	09VD 02VO 02VC 02MD 02MO 02MC 02RD 02RO	1	0	0.599615097046	11.0	-113.0	11	-109	1
2.7	2015_May_20_1536	s	s	13	3	SIC	264	RC	1	2	02VD 02VO 02VC 09MD 02MO 02MC 02RD 02RO	1	0	1.03181695938	15.0	-286.0	15	-286	1
2.7	2015_May_20_1536	s	s	13	3	SIC	265	ABS	0	2	02VD 02VO 02VC 02MD 02MO 02MC 10RD 02RO	0	1	1.60026288033	None	None	None	None	1
2.7	2015_May_20_1536	s	s	13	3	SIC	266	ABS	1	2	02VD 02VO 02VC 10MD 02MO 02MC 02RD 02RO	0	1	1.48255681992	None	None	None	None	1
2.7	2015_May_20_1536	s	s	13	3	SIC	267	ABS	0	1	02VD 02VO 02VC 02MD 02MO 02MC 02RD 10RO	0	1	3.10120296478	None	None	None	None	1
2.7	2015_May_20_1536	s	s	13	3	SIC	268	RC	0	2	02VD 02VO 02VC 02MD 02MO 02MC 09RD 02RO	1	0	0.913412094116	218.0	-356.0	223	-351	1
2.7	2015_May_20_1536	s	s	13	3	SIC	269	ABS	2	0	02VD 02VO 10VC 02MD 02MO 02MC 02RD 02RO	0	1	1.78281998634	None	None	None	None	1
2.7	2015_May_20_1536	s	s	13	3	SIC	270	RC	0	1	02VD 02VO 02VC 02MD 02MO 02MC 02RD 09RO	1	0	2.63041901588	310.0	393.0	309	400	1
2.7	2015_May_20_1536	s	s	13	3	SIC	271	ABS	2	1	02VD 10VO 02VC 02MD 02MO 02MC 02RD 02RO	0	1	1.84268689156	None	None	None	None	1
2.7	2015_May_20_1536	s	s	13	3	SIC	272	ABS	1	1	02VD 02VO 02VC 02MD 10MO 02MC 02RD 02RO	1	0	2.04414105415	None	None	12	23	0
2.7	2015_May_20_1536	s	s	13	3	SIC	273	RC	1	2	02VD 02VO 02VC 09MD 02MO 02MC 02RD 02RO	1	0	1.63288211823	79.0	109.0	82	111	1
2.7	2015_May_20_1536	s	s	13	3	SIC	274	ABS	2	1	02VD 10VO 02VC 02MD 02MO 02MC 02RD 02RO	0	1	1.70599889755	None	None	None	None	1
2.7	2015_May_20_1536	s	s	13	3	SIC	275	ABS	1	0	02VD 02VO 02VC 02MD 02MO 10MC 02RD 02RO	0	1	1.91801810265	None	None	None	None	1
2.7	2015_May_20_1536	s	s	13	3	SIC	276	RC	0	2	02VD 02VO 02VC 02MD 02MO 02MC 09RD 02RO	1	0	0.888648986816	-81.0	222.0	-81	229	1
2.7	2015_May_20_1536	s	s	13	3	SIC	277	RC	1	0	02VD 02VO 02VC 02MD 02MO 09MC 02RD 02RO	1	0	0.853363990784	46.0	56.0	42	53	1
2.7	2015_May_20_1536	s	s	13	3	SIC	278	ABS	0	2	02VD 02VO 02VC 02MD 02MO 02MC 10RD 02RO	0	1	1.94948005676	None	None	None	None	1
2.7	2015_May_20_1536	s	s	13	3	SIC	279	RC	0	1	02VD 02VO 02VC 02MD 02MO 02MC 02RD 09RO	1	0	1.17152094841	408.0	293.0	410	291	1
2.7	2015_May_20_1536	s	s	13	3	SIC	280	ABS	1	1	02VD 02VO 02VC 02MD 10MO 02MC 02RD 02RO	0	1	1.76199889183	None	None	None	None	1
2.7	2015_May_20_1536	s	s	13	3	SIC	281	RC	2	1	02VD 09VO 02VC 02MD 02MO 02MC 02RD 02RO	1	0	1.5296151638	-514.0	-211.0	-506	-204	1
2.7	2015_May_20_1536	s	s	13	3	SIC	282	ABS	2	0	02VD 02VO 10VC 02MD 02MO 02MC 02RD 02RO	0	1	1.61795186996	None	None	None	None	1
2.7	2015_May_20_1536	s	s	13	3	SIC	283	RC	2	2	09VD 02VO 02VC 02MD 02MO 02MC 02RD 02RO	1	0	1.97686600685	480.0	46.0	485	48	1
2.7	2015_May_20_1536	s	s	13	3	SIC	284	ABS	2	2	10VD 02VO 02VC 02MD 02MO 02MC 02RD 02RO	0	1	1.58844208717	None	None	None	None	1
2.7	2015_May_20_1536	s	s	13	3	SIC	285	ABS	1	2	02VD 02VO 02VC 10MD 02MO 02MC 02RD 02RO	0	1	1.171875	None	None	None	None	1
2.7	2015_May_20_1536	s	s	13	3	SIC	286	ABS	0	1	02VD 02VO 02VC 02MD 02MO 02MC 02RD 10RO	0	1	3.01272296906	None	None	None	None	1
2.7	2015_May_20_1536	s	s	13	3	SIC	287	RC	2	0	02VD 02VO 09VC 02MD 02MO 02MC 02RD 02RO	0	1	1.63552498817	-295.0	290.0	None	None	0
2.7	2015_May_20_1536	s	s	13	3	SIC	288	RC	1	1	02VD 02VO 02VC 02MD 09MO 02MC 02RD 02RO	1	0	3.10672998428	-9.0	289.0	-9	288	1
2.7	2015_May_20_1536	s	s	13	3	SIC	289	RC	1	2	02VD 02VO 02VC 09MD 02MO 02MC 02RD 02RO	1	0	1.23064804077	56.0	-242.0	48	-235	1
2.7	2015_May_20_1536	s	s	13	3	SIC	290	ABS	2	0	02VD 02VO 10VC 02MD 02MO 02MC 02RD 02RO	0	1	1.73340582848	None	None	None	None	1
2.7	2015_May_20_1536	s	s	13	3	SIC	291	RC	2	2	09VD 02VO 02VC 02MD 02MO 02MC 02RD 02RO	1	0	0.677213907242	229.0	277.0	228	274	1
2.7	2015_May_20_1536	s	s	13	3	SIC	292	ABS	0	2	02VD 02VO 02VC 02MD 02MO 02MC 10RD 02RO	0	1	1.55902004242	None	None	None	None	1
2.7	2015_May_20_1536	s	s	13	3	SIC	293	RC	0	2	02VD 02VO 02VC 02MD 02MO 02MC 09RD 02RO	1	0	0.76126909256	23.0	409.0	20	406	1
2.7	2015_May_20_1536	s	s	13	3	SIC	294	ABS	2	2	10VD 02VO 02VC 02MD 02MO 02MC 02RD 02RO	0	1	1.56481599808	None	None	None	None	1
2.7	2015_May_20_1536	s	s	13	3	SIC	295	RC	2	1	02VD 09VO 02VC 02MD 02MO 02MC 02RD 02RO	1	0	0.653534173965	183.0	271.0	186	272	1
2.7	2015_May_20_1536	s	s	13	3	SIC	296	RC	0	1	02VD 02VO 02VC 02MD 02MO 02MC 02RD 09RO	1	0	2.38360500336	-455.0	101.0	-461	99	1
2.7	2015_May_20_1536	s	s	13	3	SIC	297	ABS	1	1	02VD 02VO 02VC 02MD 10MO 02MC 02RD 02RO	0	1	1.63196706772	None	None	None	None	1
2.7	2015_May_20_1536	s	s	13	3	SIC	298	RC	1	0	02VD 02VO 02VC 02MD 02MO 09MC 02RD 02RO	1	0	0.664597988129	46.0	27.0	45	23	1
2.7	2015_May_20_1536	s	s	13	3	SIC	299	ABS	1	2	02VD 02VO 02VC 10MD 02MO 02MC 02RD 02RO	0	1	1.67668104172	None	None	None	None	1
2.7	2015_May_20_1536	s	s	13	3	SIC	300	RC	2	0	02VD 02VO 09VC 02MD 02MO 02MC 02RD 02RO	1	0	1.27057003975	180.0	-181.0	179	-181	1
2.7	2015_May_20_1536	s	s	13	3	SIC	301	ABS	0	1	02VD 02VO 02VC 02MD 02MO 02MC 02RD 10RO	0	1	2.98660993576	None	None	None	None	1
2.7	2015_May_20_1536	s	s	13	3	SIC	302	ABS	1	0	02VD 02VO 02VC 02MD 02MO 10MC 02RD 02RO	0	1	2.07109498978	None	None	None	None	1
2.7	2015_May_20_1536	s	s	13	3	SIC	303	RC	1	1	02VD 02VO 02VC 02MD 09MO 02MC 02RD 02RO	1	0	2.04747200012	-506.0	81.0	-504	87	1
2.7	2015_May_20_1536	s	s	13	3	SIC	304	ABS	2	1	02VD 10VO 02VC 02MD 02MO 02MC 02RD 02RO	0	1	1.79695892334	None	None	None	None	1
2.7	2015_May_20_1536	s	s	13	3	SIC	305	RC	0	1	02VD 02VO 02VC 02MD 02MO 02MC 02RD 09RO	1	0	2.12983608246	275.0	-231.0	280	-235	1
2.7	2015_May_20_1536	s	s	13	3	SIC	306	RC	2	1	02VD 09VO 02VC 02MD 02MO 02MC 02RD 02RO	1	0	0.900424003601	-33.0	115.0	-32	118	1
2.7	2015_May_20_1536	s	s	13	3	SIC	307	ABS	1	1	02VD 02VO 02VC 02MD 10MO 02MC 02RD 02RO	0	1	1.89446401596	None	None	None	None	1
2.7	2015_May_20_1536	s	s	13	3	SIC	308	RC	1	2	02VD 02VO 02VC 09MD 02MO 02MC 02RD 02RO	0	1	1.25885820389	87.0	399.0	None	None	0
2.7	2015_May_20_1536	s	s	13	3	SIC	309	ABS	0	1	02VD 02VO 02VC 02MD 02MO 02MC 02RD 10RO	0	1	2.4947078228	None	None	None	None	1
2.7	2015_May_20_1536	s	s	13	3	SIC	310	ABS	1	0	02VD 02VO 02VC 02MD 02MO 10MC 02RD 02RO	0	1	2.08264803886	None	None	None	None	1
2.7	2015_May_20_1536	s	s	13	3	SIC	311	ABS	2	2	10VD 02VO 02VC 02MD 02MO 02MC 02RD 02RO	0	1	1.41176605225	None	None	None	None	1
2.7	2015_May_20_1536	s	s	13	3	SIC	312	ABS	2	1	02VD 10VO 02VC 02MD 02MO 02MC 02RD 02RO	0	1	1.19981980324	None	None	None	None	1
2.7	2015_May_20_1536	s	s	13	3	SIC	313	ABS	2	0	02VD 02VO 10VC 02MD 02MO 02MC 02RD 02RO	0	1	1.17066812515	None	None	None	None	1
2.7	2015_May_20_1536	s	s	13	3	SIC	314	RC	2	0	02VD 02VO 09VC 02MD 02MO 02MC 02RD 02RO	1	0	1.90984201431	456.0	-407.0	459	-409	1
2.7	2015_May_20_1536	s	s	13	3	SIC	315	RC	1	1	02VD 02VO 02VC 02MD 09MO 02MC 02RD 02RO	1	0	0.846814155579	239.0	-109.0	237	-109	1
2.7	2015_May_20_1536	s	s	13	3	SIC	316	RC	2	2	09VD 02VO 02VC 02MD 02MO 02MC 02RD 02RO	1	0	1.40885305405	-334.0	-175.0	-339	-176	1
2.7	2015_May_20_1536	s	s	13	3	SIC	317	ABS	0	2	02VD 02VO 02VC 02MD 02MO 02MC 10RD 02RO	0	1	1.53778505325	None	None	None	None	1
2.7	2015_May_20_1536	s	s	13	3	SIC	318	RC	0	2	02VD 02VO 02VC 02MD 02MO 02MC 09RD 02RO	1	0	0.806921958923	6.0	223.0	8	223	1
2.7	2015_May_20_1536	s	s	13	3	SIC	319	ABS	1	2	02VD 02VO 02VC 10MD 02MO 02MC 02RD 02RO	0	1	1.22351694107	None	None	None	None	1
2.7	2015_May_20_1536	s	s	13	3	SIC	320	RC	1	0	02VD 02VO 02VC 02MD 02MO 09MC 02RD 02RO	1	0	1.40596389771	-462.0	-131.0	-470	-135	1
2.7	2015_May_20_1536	s	s	13	3	SIC	321	RC	2	0	02VD 02VO 09VC 02MD 02MO 02MC 02RD 02RO	1	0	0.662297010422	160.0	10.0	160	10	1
2.7	2015_May_20_1536	s	s	13	3	SIC	322	ABS	2	0	02VD 02VO 10VC 02MD 02MO 02MC 02RD 02RO	0	1	1.62362122536	None	None	None	None	1
2.7	2015_May_20_1536	s	s	13	3	SIC	323	ABS	0	2	02VD 02VO 02VC 02MD 02MO 02MC 10RD 02RO	0	1	1.47066092491	None	None	None	None	1
2.7	2015_May_20_1536	s	s	13	3	SIC	324	ABS	1	0	02VD 02VO 02VC 02MD 02MO 10MC 02RD 02RO	0	1	1.23200392723	None	None	None	None	1
2.7	2015_May_20_1536	s	s	13	3	SIC	325	ABS	1	2	02VD 02VO 02VC 10MD 02MO 02MC 02RD 02RO	0	1	1.32370400429	None	None	None	None	1
2.7	2015_May_20_1536	s	s	13	3	SIC	326	ABS	2	1	02VD 10VO 02VC 02MD 02MO 02MC 02RD 02RO	0	1	1.04692792892	None	None	None	None	1
2.7	2015_May_20_1536	s	s	13	3	SIC	327	RC	1	1	02VD 02VO 02VC 02MD 09MO 02MC 02RD 02RO	1	0	0.971513986588	184.0	247.0	187	251	1
2.7	2015_May_20_1536	s	s	13	3	SIC	328	RC	1	2	02VD 02VO 02VC 09MD 02MO 02MC 02RD 02RO	1	0	1.52951478958	485.0	-368.0	484	-368	1
2.7	2015_May_20_1536	s	s	13	3	SIC	329	RC	2	1	02VD 09VO 02VC 02MD 02MO 02MC 02RD 02RO	1	0	1.02344107628	248.0	-380.0	244	-382	1
2.7	2015_May_20_1536	s	s	13	3	SIC	330	ABS	0	1	02VD 02VO 02VC 02MD 02MO 02MC 02RD 10RO	0	1	3.15368294716	None	None	None	None	1
2.7	2015_May_20_1536	s	s	13	3	SIC	331	RC	1	0	02VD 02VO 02VC 02MD 02MO 09MC 02RD 02RO	1	0	0.915024995804	60.0	-128.0	57	-138	1
2.7	2015_May_20_1536	s	s	13	3	SIC	332	RC	0	2	02VD 02VO 02VC 02MD 02MO 02MC 09RD 02RO	0	1	1.71545886993	-452.0	-357.0	None	None	0
2.7	2015_May_20_1536	s	s	13	3	SIC	333	ABS	2	2	10VD 02VO 02VC 02MD 02MO 02MC 02RD 02RO	0	1	1.94767713547	None	None	None	None	1
2.7	2015_May_20_1536	s	s	13	3	SIC	334	RC	2	2	09VD 02VO 02VC 02MD 02MO 02MC 02RD 02RO	1	0	1.0003387928	223.0	-150.0	225	-151	1
2.7	2015_May_20_1536	s	s	13	3	SIC	335	RC	0	1	02VD 02VO 02VC 02MD 02MO 02MC 02RD 09RO	1	0	2.11248803139	-354.0	-87.0	-361	-83	1
2.7	2015_May_20_1536	s	s	13	3	SIC	336	ABS	1	1	02VD 02VO 02VC 02MD 10MO 02MC 02RD 02RO	0	1	1.62365603447	None	None	None	None	1
2.7	2015_May_20_1536	s	s	13	3	SIC	337	ABS	0	2	02VD 02VO 02VC 02MD 02MO 02MC 10RD 02RO	0	1	1.74149107933	None	None	None	None	1
2.7	2015_May_20_1536	s	s	13	3	SIC	338	RC	2	2	09VD 02VO 02VC 02MD 02MO 02MC 02RD 02RO	1	0	1.07748579979	-182.0	-271.0	-185	-269	1
2.7	2015_May_20_1536	s	s	13	3	SIC	339	RC	0	2	02VD 02VO 02VC 02MD 02MO 02MC 09RD 02RO	1	0	1.19192004204	-247.0	-409.0	-246	-404	1
2.7	2015_May_20_1536	s	s	13	3	SIC	340	ABS	2	1	02VD 10VO 02VC 02MD 02MO 02MC 02RD 02RO	0	1	1.47823405266	None	None	None	None	1
2.7	2015_May_20_1536	s	s	13	3	SIC	341	RC	0	1	02VD 02VO 02VC 02MD 02MO 02MC 02RD 09RO	1	0	1.14701700211	-259.0	-41.0	-253	-38	1
2.7	2015_May_20_1536	s	s	13	3	SIC	342	RC	1	2	02VD 02VO 02VC 09MD 02MO 02MC 02RD 02RO	1	0	0.576138973236	19.0	179.0	15	176	1
2.7	2015_May_20_1536	s	s	13	3	SIC	343	ABS	1	2	02VD 02VO 02VC 10MD 02MO 02MC 02RD 02RO	0	1	1.30176019669	None	None	None	None	1
2.7	2015_May_20_1536	s	s	13	3	SIC	344	RC	2	1	02VD 09VO 02VC 02MD 02MO 02MC 02RD 02RO	1	0	0.658437013626	49.0	51.0	53	52	1
2.7	2015_May_20_1536	s	s	13	3	SIC	345	RC	1	0	02VD 02VO 02VC 02MD 02MO 09MC 02RD 02RO	1	0	1.38333487511	-481.0	300.0	-481	307	1
2.7	2015_May_20_1536	s	s	13	3	SIC	346	ABS	0	1	02VD 02VO 02VC 02MD 02MO 02MC 02RD 10RO	0	1	2.41827511787	None	None	None	None	1
2.7	2015_May_20_1536	s	s	13	3	SIC	347	RC	2	0	02VD 02VO 09VC 02MD 02MO 02MC 02RD 02RO	1	0	0.90575504303	299.0	-16.0	299	-14	1
2.7	2015_May_20_1536	s	s	13	3	SIC	348	RC	1	1	02VD 02VO 02VC 02MD 09MO 02MC 02RD 02RO	1	0	1.36461591721	136.0	-388.0	141	-388	1
2.7	2015_May_20_1536	s	s	13	3	SIC	349	ABS	2	2	10VD 02VO 02VC 02MD 02MO 02MC 02RD 02RO	0	1	1.84273600578	None	None	None	None	1
2.7	2015_May_20_1536	s	s	13	3	SIC	350	ABS	1	0	02VD 02VO 02VC 02MD 02MO 10MC 02RD 02RO	0	1	1.51289701462	None	None	None	None	1
2.7	2015_May_20_1536	s	s	13	3	SIC	351	ABS	1	1	02VD 02VO 02VC 02MD 10MO 02MC 02RD 02RO	0	1	1.23536014557	None	None	None	None	1
2.7	2015_May_20_1536	s	s	13	3	SIC	352	ABS	2	0	02VD 02VO 10VC 02MD 02MO 02MC 02RD 02RO	0	1	1.3856780529	None	None	None	None	1
2.7	2015_May_20_1536	s	s	13	3	SIC	353	ABS	2	1	02VD 10VO 02VC 02MD 02MO 02MC 02RD 02RO	0	1	1.23275709152	None	None	None	None	1
2.7	2015_May_20_1536	s	s	13	3	SIC	354	ABS	1	0	02VD 02VO 02VC 02MD 02MO 10MC 02RD 02RO	0	1	2.23582005501	None	None	None	None	1
2.7	2015_May_20_1536	s	s	13	3	SIC	355	RC	1	1	02VD 02VO 02VC 02MD 09MO 02MC 02RD 02RO	1	0	1.25465106964	-468.0	293.0	-465	297	1
2.7	2015_May_20_1536	s	s	13	3	SIC	356	RC	2	0	02VD 02VO 09VC 02MD 02MO 02MC 02RD 02RO	1	0	1.19666004181	313.0	-176.0	314	-179	1
2.7	2015_May_20_1536	s	s	13	3	SIC	357	RC	0	2	02VD 02VO 02VC 02MD 02MO 02MC 09RD 02RO	1	0	1.22338891029	-51.0	150.0	-50	148	1
2.7	2015_May_20_1536	s	s	13	3	SIC	358	RC	1	0	02VD 02VO 02VC 02MD 02MO 09MC 02RD 02RO	1	0	1.87886691093	153.0	-176.0	159	-179	1
2.7	2015_May_20_1536	s	s	13	3	SIC	359	ABS	1	1	02VD 02VO 02VC 02MD 10MO 02MC 02RD 02RO	0	1	1.86462497711	None	None	None	None	1
2.7	2015_May_20_1536	s	s	13	3	SIC	360	RC	0	1	02VD 02VO 02VC 02MD 02MO 02MC 02RD 09RO	1	0	1.74794983864	-215.0	-218.0	-206	-220	1
2.7	2015_May_20_1536	s	s	13	3	SIC	361	ABS	0	2	02VD 02VO 02VC 02MD 02MO 02MC 10RD 02RO	0	1	1.24460601807	None	None	None	None	1
2.7	2015_May_20_1536	s	s	13	3	SIC	362	ABS	0	1	02VD 02VO 02VC 02MD 02MO 02MC 02RD 10RO	0	1	2.40064811707	None	None	None	None	1
2.7	2015_May_20_1536	s	s	13	3	SIC	363	ABS	2	0	02VD 02VO 10VC 02MD 02MO 02MC 02RD 02RO	0	1	1.75327205658	None	None	None	None	1
2.7	2015_May_20_1536	s	s	13	3	SIC	364	RC	2	1	02VD 09VO 02VC 02MD 02MO 02MC 02RD 02RO	1	0	0.809451818466	169.0	-37.0	164	-34	1
2.7	2015_May_20_1536	s	s	13	3	SIC	365	ABS	1	2	02VD 02VO 02VC 10MD 02MO 02MC 02RD 02RO	0	1	1.52418398857	None	None	None	None	1
2.7	2015_May_20_1536	s	s	13	3	SIC	366	RC	1	2	02VD 02VO 02VC 09MD 02MO 02MC 02RD 02RO	1	0	1.93910598755	173.0	-266.0	178	-268	1
2.7	2015_May_20_1536	s	s	13	3	SIC	367	ABS	2	2	10VD 02VO 02VC 02MD 02MO 02MC 02RD 02RO	0	1	1.2089240551	None	None	None	None	1
2.7	2015_May_20_1536	s	s	13	3	SIC	368	RC	2	2	09VD 02VO 02VC 02MD 02MO 02MC 02RD 02RO	1	0	1.07034301758	152.0	-336.0	157	-342	1
2.7	2015_May_20_1536	s	s	13	3	SIC	369	RC	2	2	09VD 02VO 02VC 02MD 02MO 02MC 02RD 02RO	1	0	1.18814492226	-409.0	-276.0	-407	-283	1
2.7	2015_May_20_1536	s	s	13	3	SIC	370	ABS	0	1	02VD 02VO 02VC 02MD 02MO 02MC 02RD 10RO	0	1	2.88316988945	None	None	None	None	1
2.7	2015_May_20_1536	s	s	13	3	SIC	371	RC	0	1	02VD 02VO 02VC 02MD 02MO 02MC 02RD 09RO	1	0	2.18306708336	4.0	385.0	2	385	1
2.7	2015_May_20_1536	s	s	13	3	SIC	372	ABS	0	2	02VD 02VO 02VC 02MD 02MO 02MC 10RD 02RO	0	1	1.36219787598	None	None	None	None	1
2.7	2015_May_20_1536	s	s	13	3	SIC	373	RC	1	1	02VD 02VO 02VC 02MD 09MO 02MC 02RD 02RO	1	0	2.21917510033	334.0	-356.0	341	-360	1
2.7	2015_May_20_1536	s	s	13	3	SIC	374	ABS	2	2	10VD 02VO 02VC 02MD 02MO 02MC 02RD 02RO	0	1	1.44211196899	None	None	None	None	1
2.7	2015_May_20_1536	s	s	13	3	SIC	375	RC	1	2	02VD 02VO 02VC 09MD 02MO 02MC 02RD 02RO	1	0	0.682077169418	269.0	179.0	275	176	1
2.7	2015_May_20_1536	s	s	13	3	SIC	376	RC	2	0	02VD 02VO 09VC 02MD 02MO 02MC 02RD 02RO	1	0	0.540875196457	58.0	210.0	56	219	1
2.7	2015_May_20_1536	s	s	13	3	SIC	377	RC	1	0	02VD 02VO 02VC 02MD 02MO 09MC 02RD 02RO	1	0	1.26804590225	-390.0	11.0	-386	8	1
2.7	2015_May_20_1536	s	s	13	3	SIC	378	ABS	2	0	02VD 02VO 10VC 02MD 02MO 02MC 02RD 02RO	0	1	1.67073607445	None	None	None	None	1
2.7	2015_May_20_1536	s	s	13	3	SIC	379	ABS	1	2	02VD 02VO 02VC 10MD 02MO 02MC 02RD 02RO	0	1	1.68042302132	None	None	None	None	1
2.7	2015_May_20_1536	s	s	13	3	SIC	380	ABS	2	1	02VD 10VO 02VC 02MD 02MO 02MC 02RD 02RO	0	1	1.68924283981	None	None	None	None	1
2.7	2015_May_20_1536	s	s	13	3	SIC	381	ABS	1	0	02VD 02VO 02VC 02MD 02MO 10MC 02RD 02RO	0	1	2.15330696106	None	None	None	None	1
2.7	2015_May_20_1536	s	s	13	3	SIC	382	RC	2	1	02VD 09VO 02VC 02MD 02MO 02MC 02RD 02RO	1	0	0.711565971375	126.0	91.0	131	84	1
2.7	2015_May_20_1536	s	s	13	3	SIC	383	ABS	1	1	02VD 02VO 02VC 02MD 10MO 02MC 02RD 02RO	0	1	2.06460499763	None	None	None	None	1
2.7	2015_May_20_1536	s	s	13	3	SIC	384	RC	0	2	02VD 02VO 02VC 02MD 02MO 02MC 09RD 02RO	1	0	0.819958209991	297.0	46.0	292	45	1
2.7	2015_May_20_1536	s	s	13	3	SIC	385	RC	2	1	02VD 09VO 02VC 02MD 02MO 02MC 02RD 02RO	1	0	0.952808141708	129.0	-268.0	130	-271	1
2.7	2015_May_20_1536	s	s	13	3	SIC	386	ABS	2	0	02VD 02VO 10VC 02MD 02MO 02MC 02RD 02RO	0	1	1.39751291275	None	None	None	None	1
2.7	2015_May_20_1536	s	s	13	3	SIC	387	RC	2	0	02VD 02VO 09VC 02MD 02MO 02MC 02RD 02RO	1	0	1.15302801132	-476.0	164.0	-478	166	1
2.7	2015_May_20_1536	s	s	13	3	SIC	388	ABS	2	1	02VD 10VO 02VC 02MD 02MO 02MC 02RD 02RO	0	1	1.3063519001	None	None	None	None	1
2.7	2015_May_20_1536	s	s	13	3	SIC	389	RC	1	2	02VD 02VO 02VC 09MD 02MO 02MC 02RD 02RO	1	0	0.682099819183	-276.0	148.0	-280	147	1
2.7	2015_May_20_1536	s	s	13	3	SIC	390	ABS	1	2	02VD 02VO 02VC 10MD 02MO 02MC 02RD 02RO	0	1	1.83556985855	None	None	None	None	1
2.7	2015_May_20_1536	s	s	13	3	SIC	391	RC	1	0	02VD 02VO 02VC 02MD 02MO 09MC 02RD 02RO	1	0	0.749373912811	3.0	62.0	3	55	1
2.7	2015_May_20_1536	s	s	13	3	SIC	392	ABS	2	2	10VD 02VO 02VC 02MD 02MO 02MC 02RD 02RO	0	1	1.20700597763	None	None	None	None	1
2.7	2015_May_20_1536	s	s	13	3	SIC	393	ABS	0	2	02VD 02VO 02VC 02MD 02MO 02MC 10RD 02RO	0	1	1.54794192314	None	None	None	None	1
2.7	2015_May_20_1536	s	s	13	3	SIC	394	ABS	1	1	02VD 02VO 02VC 02MD 10MO 02MC 02RD 02RO	0	1	2.27112722397	None	None	None	None	1
2.7	2015_May_20_1536	s	s	13	3	SIC	395	RC	0	2	02VD 02VO 02VC 02MD 02MO 02MC 09RD 02RO	1	0	1.24124598503	-359.0	-198.0	-355	-197	1
2.7	2015_May_20_1536	s	s	13	3	SIC	396	ABS	1	0	02VD 02VO 02VC 02MD 02MO 10MC 02RD 02RO	0	1	2.95067405701	None	None	None	None	1
2.7	2015_May_20_1536	s	s	13	3	SIC	397	RC	1	1	02VD 02VO 02VC 02MD 09MO 02MC 02RD 02RO	1	0	1.99757194519	-422.0	215.0	-415	212	1
2.7	2015_May_20_1536	s	s	13	3	SIC	398	RC	2	2	09VD 02VO 02VC 02MD 02MO 02MC 02RD 02RO	1	0	1.05893301964	-276.0	156.0	-267	159	1
2.7	2015_May_20_1536	s	s	13	3	SIC	399	RC	0	1	02VD 02VO 02VC 02MD 02MO 02MC 02RD 09RO	1	0	3.71883106232	254.0	202.0	249	202	1
2.7	2015_May_20_1536	s	s	13	3	SIC	400	ABS	0	1	02VD 02VO 02VC 02MD 02MO 02MC 02RD 10RO	0	1	3.29516100883	None	None	None	None	1
2.7	2015_May_20_1536	s	s	13	3	SIC	401	RC	2	0	02VD 02VO 09VC 02MD 02MO 02MC 02RD 02RO	1	0	0.806144952774	-92.0	215.0	-97	211	1
2.7	2015_May_20_1536	s	s	13	3	SIC	402	RC	1	0	02VD 02VO 02VC 02MD 02MO 09MC 02RD 02RO	1	0	0.646589994431	169.0	29.0	170	29	1
2.7	2015_May_20_1536	s	s	13	3	SIC	403	ABS	0	2	02VD 02VO 02VC 02MD 02MO 02MC 10RD 02RO	0	1	1.69078087807	None	None	None	None	1
2.7	2015_May_20_1536	s	s	13	3	SIC	404	ABS	2	0	02VD 02VO 10VC 02MD 02MO 02MC 02RD 02RO	0	1	1.79678010941	None	None	None	None	1
2.7	2015_May_20_1536	s	s	13	3	SIC	405	RC	0	1	02VD 02VO 02VC 02MD 02MO 02MC 02RD 09RO	1	0	3.2196149826	-532.0	-282.0	-324	-103	0
2.7	2015_May_20_1536	s	s	13	3	SIC	406	RC	2	1	02VD 09VO 02VC 02MD 02MO 02MC 02RD 02RO	1	0	3.29017305374	-396.0	-378.0	-389	-372	1
2.7	2015_May_20_1536	s	s	13	3	SIC	407	ABS	1	0	02VD 02VO 02VC 02MD 02MO 10MC 02RD 02RO	0	1	3.05961608887	None	None	None	None	1
2.7	2015_May_20_1536	s	s	13	3	SIC	408	ABS	0	1	02VD 02VO 02VC 02MD 02MO 02MC 02RD 10RO	0	1	3.13898897171	None	None	None	None	1
2.7	2015_May_20_1536	s	s	13	3	SIC	409	ABS	1	2	02VD 02VO 02VC 10MD 02MO 02MC 02RD 02RO	0	1	1.28921890259	None	None	None	None	1
2.7	2015_May_20_1536	s	s	13	3	SIC	410	RC	0	2	02VD 02VO 02VC 02MD 02MO 02MC 09RD 02RO	1	0	5.88169312477	219.0	-159.0	212	-156	1
2.7	2015_May_20_1536	s	s	13	3	SIC	411	ABS	2	2	10VD 02VO 02VC 02MD 02MO 02MC 02RD 02RO	0	1	1.81207489967	None	None	None	None	1
2.7	2015_May_20_1536	s	s	13	3	SIC	412	ABS	1	1	02VD 02VO 02VC 02MD 10MO 02MC 02RD 02RO	0	1	1.93702507019	None	None	None	None	1
2.7	2015_May_20_1536	s	s	13	3	SIC	413	ABS	2	1	02VD 10VO 02VC 02MD 02MO 02MC 02RD 02RO	0	1	1.18816208839	None	None	None	None	1
2.7	2015_May_20_1536	s	s	13	3	SIC	414	RC	1	1	02VD 02VO 02VC 02MD 09MO 02MC 02RD 02RO	1	0	0.925934076309	17.0	-230.0	21	-229	1
2.7	2015_May_20_1536	s	s	13	3	SIC	415	RC	1	2	02VD 02VO 02VC 09MD 02MO 02MC 02RD 02RO	1	0	0.776165008545	-38.0	138.0	-44	139	1
2.7	2015_May_20_1536	s	s	13	3	SIC	416	RC	2	2	09VD 02VO 02VC 02MD 02MO 02MC 02RD 02RO	1	0	1.37165498734	-215.0	-360.0	-212	-359	1
2.7	2015_May_20_1536	s	s	13	3	SIC	417	ABS	1	0	02VD 02VO 02VC 02MD 02MO 10MC 02RD 02RO	0	1	1.85914611816	None	None	None	None	1
2.7	2015_May_20_1536	s	s	13	3	SIC	418	ABS	2	1	02VD 10VO 02VC 02MD 02MO 02MC 02RD 02RO	0	1	1.81194114685	None	None	None	None	1
2.7	2015_May_20_1536	s	s	13	3	SIC	419	RC	1	0	02VD 02VO 02VC 02MD 02MO 09MC 02RD 02RO	1	0	1.35301399231	-514.0	110.0	-518	112	1
2.7	2015_May_20_1536	s	s	13	3	SIC	420	ABS	1	1	02VD 02VO 02VC 02MD 10MO 02MC 02RD 02RO	0	1	1.97684001923	None	None	None	None	1
2.7	2015_May_20_1536	s	s	13	3	SIC	421	ABS	0	1	02VD 02VO 02VC 02MD 02MO 02MC 02RD 10RO	0	1	2.96547412872	None	None	None	None	1
2.7	2015_May_20_1536	s	s	13	3	SIC	422	RC	2	2	09VD 02VO 02VC 02MD 02MO 02MC 02RD 02RO	1	0	0.752710103989	-98.0	-127.0	-101	-127	1
2.7	2015_May_20_1536	s	s	13	3	SIC	423	ABS	0	2	02VD 02VO 02VC 02MD 02MO 02MC 10RD 02RO	0	1	1.21156907082	None	None	None	None	1
2.7	2015_May_20_1536	s	s	13	3	SIC	424	RC	1	2	02VD 02VO 02VC 09MD 02MO 02MC 02RD 02RO	1	0	0.782914876938	-307.0	152.0	-307	148	1
2.7	2015_May_20_1536	s	s	13	3	SIC	425	RC	0	2	02VD 02VO 02VC 02MD 02MO 02MC 09RD 02RO	1	0	0.524065971375	94.0	-5.0	101	-5	1
2.7	2015_May_20_1536	s	s	13	3	SIC	426	ABS	1	2	02VD 02VO 02VC 10MD 02MO 02MC 02RD 02RO	0	1	1.61872315407	None	None	None	None	1
2.7	2015_May_20_1536	s	s	13	3	SIC	427	ABS	2	2	10VD 02VO 02VC 02MD 02MO 02MC 02RD 02RO	0	1	1.45567202568	None	None	None	None	1
2.7	2015_May_20_1536	s	s	13	3	SIC	428	RC	1	1	02VD 02VO 02VC 02MD 09MO 02MC 02RD 02RO	1	0	1.15996813774	-333.0	-309.0	-329	-303	1
2.7	2015_May_20_1536	s	s	13	3	SIC	429	ABS	2	0	02VD 02VO 10VC 02MD 02MO 02MC 02RD 02RO	0	1	1.39444112778	None	None	None	None	1
2.7	2015_May_20_1536	s	s	13	3	SIC	430	RC	2	0	02VD 02VO 09VC 02MD 02MO 02MC 02RD 02RO	1	0	1.69004201889	538.0	124.0	545	120	1
2.7	2015_May_20_1536	s	s	13	3	SIC	431	RC	2	1	02VD 09VO 02VC 02MD 02MO 02MC 02RD 02RO	1	0	0.776298999786	58.0	371.0	60	366	1
2.7	2015_May_20_1536	s	s	13	3	SIC	432	RC	0	1	02VD 02VO 02VC 02MD 02MO 02MC 02RD 09RO	1	0	2.07702898979	-123.0	396.0	-121	394	1
2.7	2015_May_20_1536	s	s	13	3	SIC	433	ABS	0	2	02VD 02VO 02VC 02MD 02MO 02MC 10RD 02RO	0	1	1.71399903297	None	None	None	None	1
2.7	2015_May_20_1536	s	s	13	3	SIC	434	RC	2	1	02VD 09VO 02VC 02MD 02MO 02MC 02RD 02RO	1	0	0.587871074677	254.0	69.0	257	65	1
2.7	2015_May_20_1536	s	s	13	3	SIC	435	ABS	2	1	02VD 10VO 02VC 02MD 02MO 02MC 02RD 02RO	0	1	1.51335406303	None	None	None	None	1
2.7	2015_May_20_1536	s	s	13	3	SIC	436	RC	1	1	02VD 02VO 02VC 02MD 09MO 02MC 02RD 02RO	1	0	0.982347011566	-290.0	-138.0	-291	-140	1
2.7	2015_May_20_1536	s	s	13	3	SIC	437	ABS	1	2	02VD 02VO 02VC 10MD 02MO 02MC 02RD 02RO	0	1	1.19995999336	None	None	None	None	1
2.7	2015_May_20_1536	s	s	13	3	SIC	438	ABS	2	0	02VD 02VO 10VC 02MD 02MO 02MC 02RD 02RO	0	1	2.05542516708	None	None	None	None	1
2.7	2015_May_20_1536	s	s	13	3	SIC	439	RC	1	2	02VD 02VO 02VC 09MD 02MO 02MC 02RD 02RO	1	0	0.713001966476	294.0	261.0	291	262	1
2.7	2015_May_20_1536	s	s	13	3	SIC	440	RC	2	2	09VD 02VO 02VC 02MD 02MO 02MC 02RD 02RO	1	0	0.712252855301	283.0	-226.0	279	-220	1
2.7	2015_May_20_1536	s	s	13	3	SIC	441	ABS	1	1	02VD 02VO 02VC 02MD 10MO 02MC 02RD 02RO	0	1	1.97672080994	None	None	None	None	1
2.7	2015_May_20_1536	s	s	13	3	SIC	442	ABS	1	0	02VD 02VO 02VC 02MD 02MO 10MC 02RD 02RO	0	1	1.88892006874	None	None	None	None	1
2.7	2015_May_20_1536	s	s	13	3	SIC	443	RC	2	0	02VD 02VO 09VC 02MD 02MO 02MC 02RD 02RO	1	0	1.78883004189	-434.0	342.0	-435	343	1
2.7	2015_May_20_1536	s	s	13	3	SIC	444	ABS	0	1	02VD 02VO 02VC 02MD 02MO 02MC 02RD 10RO	0	1	3.27157688141	None	None	None	None	1
2.7	2015_May_20_1536	s	s	13	3	SIC	445	RC	0	2	02VD 02VO 02VC 02MD 02MO 02MC 09RD 02RO	1	0	0.691457033157	-110.0	333.0	-107	334	1
2.7	2015_May_20_1536	s	s	13	3	SIC	446	ABS	2	2	10VD 02VO 02VC 02MD 02MO 02MC 02RD 02RO	0	1	1.67067503929	None	None	None	None	1
2.7	2015_May_20_1536	s	s	13	3	SIC	447	RC	0	1	02VD 02VO 02VC 02MD 02MO 02MC 02RD 09RO	1	0	0.780906915665	293.0	130.0	292	126	1
2.7	2015_May_20_1536	s	s	13	3	SIC	448	RC	1	0	02VD 02VO 02VC 02MD 02MO 09MC 02RD 02RO	1	0	2.83611989021	-397.0	307.0	-388	304	1
2.7	2015_May_20_1536	s	s	13	3	SIC	449	ABS	1	1	02VD 02VO 02VC 02MD 10MO 02MC 02RD 02RO	0	1	1.64401006699	None	None	None	None	1
2.7	2015_May_20_1536	s	s	13	3	SIC	450	RC	2	0	02VD 02VO 09VC 02MD 02MO 02MC 02RD 02RO	1	0	2.15328598022	-491.0	361.0	-490	359	1
2.7	2015_May_20_1536	s	s	13	3	SIC	451	ABS	2	2	10VD 02VO 02VC 02MD 02MO 02MC 02RD 02RO	0	1	1.30632781982	None	None	None	None	1
2.7	2015_May_20_1536	s	s	13	3	SIC	452	ABS	0	2	02VD 02VO 02VC 02MD 02MO 02MC 10RD 02RO	0	1	1.53598499298	None	None	None	None	1
2.7	2015_May_20_1536	s	s	13	3	SIC	453	RC	2	1	02VD 09VO 02VC 02MD 02MO 02MC 02RD 02RO	1	0	1.19779992104	-489.0	-213.0	-484	-217	1
2.7	2015_May_20_1536	s	s	13	3	SIC	454	ABS	2	1	02VD 10VO 02VC 02MD 02MO 02MC 02RD 02RO	0	1	1.03524279594	None	None	None	None	1
2.7	2015_May_20_1536	s	s	13	3	SIC	455	RC	1	2	02VD 02VO 02VC 09MD 02MO 02MC 02RD 02RO	1	0	1.11757183075	-137.0	99.0	-138	101	1
2.7	2015_May_20_1536	s	s	13	3	SIC	456	ABS	1	0	02VD 02VO 02VC 02MD 02MO 10MC 02RD 02RO	0	1	1.83551096916	None	None	None	None	1
2.7	2015_May_20_1536	s	s	13	3	SIC	457	RC	2	2	09VD 02VO 02VC 02MD 02MO 02MC 02RD 02RO	1	0	0.75906419754	-195.0	185.0	-192	192	1
2.7	2015_May_20_1536	s	s	13	3	SIC	458	RC	1	1	02VD 02VO 02VC 02MD 09MO 02MC 02RD 02RO	1	0	1.88270807266	-507.0	-245.0	-507	-236	1
2.7	2015_May_20_1536	s	s	13	3	SIC	459	RC	0	2	02VD 02VO 02VC 02MD 02MO 02MC 09RD 02RO	1	0	1.27057504654	241.0	-159.0	247	-153	1
2.7	2015_May_20_1536	s	s	13	3	SIC	460	RC	0	1	02VD 02VO 02VC 02MD 02MO 02MC 02RD 09RO	1	0	1.95326113701	465.0	99.0	465	97	1
2.7	2015_May_20_1536	s	s	13	3	SIC	461	ABS	2	0	02VD 02VO 10VC 02MD 02MO 02MC 02RD 02RO	0	1	1.33640289307	None	None	None	None	1
2.7	2015_May_20_1536	s	s	13	3	SIC	462	RC	1	0	02VD 02VO 02VC 02MD 02MO 09MC 02RD 02RO	1	0	0.627065896988	441.0	159.0	451	163	1
2.7	2015_May_20_1536	s	s	13	3	SIC	463	ABS	0	1	02VD 02VO 02VC 02MD 02MO 02MC 02RD 10RO	0	1	3.0330080986	None	None	None	None	1
2.7	2015_May_20_1536	s	s	13	3	SIC	464	ABS	1	2	02VD 02VO 02VC 10MD 02MO 02MC 02RD 02RO	0	1	1.46554207802	None	None	None	None	1
2.7	2015_May_20_1536	s	s	13	3	SIC	465	ABS	0	1	02VD 02VO 02VC 02MD 02MO 02MC 02RD 10RO	0	1	2.82437086105	None	None	None	None	1
2.7	2015_May_20_1536	s	s	13	3	SIC	466	ABS	1	2	02VD 02VO 02VC 10MD 02MO 02MC 02RD 02RO	0	1	1.46773886681	None	None	None	None	1
2.7	2015_May_20_1536	s	s	13	3	SIC	467	RC	0	2	02VD 02VO 02VC 02MD 02MO 02MC 09RD 02RO	1	0	1.07053518295	-202.0	410.0	-195	409	1
2.7	2015_May_20_1536	s	s	13	3	SIC	468	ABS	1	0	02VD 02VO 02VC 02MD 02MO 10MC 02RD 02RO	0	1	1.76055407524	None	None	None	None	1
2.7	2015_May_20_1536	s	s	13	3	SIC	469	RC	1	2	02VD 02VO 02VC 09MD 02MO 02MC 02RD 02RO	1	0	0.867805957794	-63.0	273.0	-70	266	1
2.7	2015_May_20_1536	s	s	13	3	SIC	470	RC	2	1	02VD 09VO 02VC 02MD 02MO 02MC 02RD 02RO	1	0	0.7469830513	4.0	30.0	2	29	1
2.7	2015_May_20_1536	s	s	13	3	SIC	471	RC	2	0	02VD 02VO 09VC 02MD 02MO 02MC 02RD 02RO	1	0	1.93681907654	-420.0	42.0	-425	38	1
2.7	2015_May_20_1536	s	s	13	3	SIC	472	ABS	2	1	02VD 10VO 02VC 02MD 02MO 02MC 02RD 02RO	0	1	1.86550593376	None	None	None	None	1
2.7	2015_May_20_1536	s	s	13	3	SIC	473	RC	1	1	02VD 02VO 02VC 02MD 09MO 02MC 02RD 02RO	1	0	0.711672067642	378.0	-21.0	371	-23	1
2.7	2015_May_20_1536	s	s	13	3	SIC	474	RC	0	1	02VD 02VO 02VC 02MD 02MO 02MC 02RD 09RO	1	0	1.17081999779	219.0	235.0	222	235	1
2.7	2015_May_20_1536	s	s	13	3	SIC	475	ABS	2	0	02VD 02VO 10VC 02MD 02MO 02MC 02RD 02RO	0	1	1.91255497932	None	None	None	None	1
2.7	2015_May_20_1536	s	s	13	3	SIC	476	ABS	2	2	10VD 02VO 02VC 02MD 02MO 02MC 02RD 02RO	0	1	1.71793699265	None	None	None	None	1
2.7	2015_May_20_1536	s	s	13	3	SIC	477	RC	2	2	09VD 02VO 02VC 02MD 02MO 02MC 02RD 02RO	1	0	0.538203954697	116.0	103.0	112	107	1
2.7	2015_May_20_1536	s	s	13	3	SIC	478	ABS	0	2	02VD 02VO 02VC 02MD 02MO 02MC 10RD 02RO	0	1	1.79561495781	None	None	None	None	1
2.7	2015_May_20_1536	s	s	13	3	SIC	479	ABS	1	1	02VD 02VO 02VC 02MD 10MO 02MC 02RD 02RO	0	1	2.19530916214	None	None	None	None	1
2.7	2015_May_20_1536	s	s	13	3	SIC	480	RC	1	0	02VD 02VO 02VC 02MD 02MO 09MC 02RD 02RO	1	0	2.74177503586	-315.0	334.0	-315	332	1
