Version	Date	Stimuli	Method	Subject	Session	Condition	Trial	Target	Channel1	Channel2	Distractors	LMouseButton	RMouseButton	RT	TargetX	TargetY	ResponseX	ResponseY	Correct
2.7	2015_May_18_1545	s	s	13	1	Capacity	1	ABS	1	0	08VC 16MC	1	0	8.47131085396	None	None	79	-212	0
2.7	2015_May_18_1545	s	s	13	1	Capacity	2	ABS	2	0	16VC 08MC	1	0	3.61286282539	None	None	308	22	0
2.7	2015_May_18_1545	s	s	13	1	Capacity	3	RC	2	0	15VC 08MC	1	0	4.04468488693	-517.0	241.0	93	106	0
2.7	2015_May_18_1545	s	s	13	1	Capacity	4	RC	1	0	08VC 15MC	1	0	1.61195492744	466.0	177.0	-149	389	0
2.7	2015_May_18_1545	s	s	13	1	Capacity	5	RC	1	0	08VC 15MC	1	0	3.03351402283	11.0	318.0	147	121	0
2.7	2015_May_18_1545	s	s	13	1	Capacity	6	ABS	1	0	08VC 16MC	1	0	0.783185958862	None	None	-6	71	0
2.7	2015_May_18_1545	s	s	13	1	Capacity	7	RC	2	0	15VC 08MC	1	0	1.10332083702	76.0	-202.0	-222	-34	0
2.7	2015_May_18_1545	s	s	13	1	Capacity	8	ABS	2	0	16VC 08MC	1	0	1.0115249157	None	None	74	-104	0
2.7	2015_May_18_1545	s	s	13	1	Capacity	9	ABS	1	0	08VC 16MC	1	0	3.17389702797	None	None	54	-31	0
2.7	2015_May_18_1545	s	s	13	1	Capacity	10	RC	2	0	15VC 08MC	1	0	2.77180099487	392.0	51.0	390	57	1
2.7	2015_May_18_1545	s	s	13	1	Capacity	11	RC	1	0	08VC 15MC	1	0	5.83760690689	-235.0	371.0	208	-306	0
2.7	2015_May_18_1545	s	s	13	1	Capacity	12	ABS	2	0	16VC 08MC	1	0	5.05789804459	None	None	-13	-74	0
2.7	2015_May_18_1545	s	s	13	1	Capacity	13	RC	2	0	15VC 08MC	1	0	8.36826205254	-379.0	313.0	-487	-192	0
2.7	2015_May_18_1545	s	s	13	1	Capacity	14	ABS	1	0	08VC 16MC	1	0	8.19161820412	None	None	39	-282	0
2.7	2015_May_18_1545	s	s	13	1	Capacity	15	ABS	2	0	16VC 08MC	1	0	4.62068581581	None	None	-117	-80	0
2.7	2015_May_18_1545	s	s	13	1	Capacity	16	RC	1	0	08VC 15MC	1	0	4.20144701004	-306.0	-387.0	256	53	0
2.7	2015_May_18_1545	s	s	13	1	Capacity	17	RC	2	0	15VC 08MC	1	0	2.26541900635	-160.0	-260.0	-156	-261	1
2.7	2015_May_18_1545	s	s	13	1	Capacity	18	RC	1	0	08VC 15MC	1	0	3.57777619362	187.0	-150.0	69	-260	0
2.7	2015_May_18_1545	s	s	13	1	Capacity	19	ABS	1	0	08VC 16MC	1	0	3.71392297745	None	None	-197	61	0
2.7	2015_May_18_1545	s	s	13	1	Capacity	20	ABS	2	0	16VC 08MC	1	0	2.96562290192	None	None	346	-173	0
2.7	2015_May_18_1545	s	s	13	1	Capacity	21	ABS	1	0	08VC 16MC	1	0	5.49630403519	None	None	-40	-53	0
2.7	2015_May_18_1545	s	s	13	1	Capacity	22	RC	1	0	08VC 15MC	1	0	5.87957310677	-322.0	236.0	-323	232	1
2.7	2015_May_18_1545	s	s	13	1	Capacity	23	RC	2	0	15VC 08MC	1	0	6.55572104454	7.0	-134.0	10	-129	1
2.7	2015_May_18_1545	s	s	13	1	Capacity	24	ABS	2	0	16VC 08MC	1	0	16.8115839958	None	None	48	-44	0
2.7	2015_May_18_1545	s	s	13	1	Capacity	25	RC	1	0	08VC 15MC	1	0	13.2623801231	-399.0	291.0	-93	-244	0
2.7	2015_May_18_1545	s	s	13	1	Capacity	26	ABS	2	0	16VC 08MC	1	0	7.83867788315	None	None	-90	-139	0
2.7	2015_May_18_1545	s	s	13	1	Capacity	27	ABS	1	0	08VC 16MC	1	0	11.263931036	None	None	81	-382	0
2.7	2015_May_18_1545	s	s	13	1	Capacity	28	RC	2	0	15VC 08MC	1	0	3.77773714066	48.0	-141.0	45	-134	1
2.7	2015_May_18_1545	s	s	13	1	Capacity	29	ABS	2	0	16VC 08MC	0	1	2.18482589722	None	None	None	None	1
2.7	2015_May_18_1545	s	s	13	1	Capacity	30	RC	1	0	08VC 15MC	1	0	11.235435009	-55.0	-299.0	128	-278	0
2.7	2015_May_18_1545	s	s	13	1	Capacity	31	RC	2	0	15VC 08MC	1	0	8.4153649807	47.0	125.0	222	341	0
2.7	2015_May_18_1545	s	s	13	1	Capacity	32	ABS	1	0	08VC 16MC	1	0	6.1554210186	None	None	-100	122	0
2.7	2015_May_18_1545	s	s	13	1	Capacity	33	RC	1	0	08VC 15MC	0	1	4.56644010544	-60.0	-90.0	None	None	0
2.7	2015_May_18_1545	s	s	13	1	Capacity	34	ABS	1	0	08VC 16MC	1	0	5.15123701096	None	None	-8	-336	0
2.7	2015_May_18_1545	s	s	13	1	Capacity	35	RC	2	0	15VC 08MC	1	0	7.49166512489	45.0	-52.0	48	-62	1
2.7	2015_May_18_1545	s	s	13	1	Capacity	36	ABS	2	0	16VC 08MC	1	0	2.68970608711	None	None	-201	154	0
2.7	2015_May_18_1545	s	s	13	1	Capacity	37	ABS	1	0	08VC 16MC	1	0	2.42412400246	None	None	68	-265	0
2.7	2015_May_18_1545	s	s	13	1	Capacity	38	ABS	2	0	16VC 08MC	1	0	2.42409491539	None	None	17	-233	0
2.7	2015_May_18_1545	s	s	13	1	Capacity	39	RC	1	0	08VC 15MC	1	0	1.91782593727	-505.0	-46.0	324	-335	0
2.7	2015_May_18_1545	s	s	13	1	Capacity	40	RC	2	0	15VC 08MC	1	0	6.29679322243	295.0	109.0	297	101	1
2.7	2015_May_18_1545	s	s	13	1	Capacity	41	RC	2	0	15VC 08MC	0	1	4.06626796722	-72.0	-269.0	None	None	0
2.7	2015_May_18_1545	s	s	13	1	Capacity	42	ABS	2	0	16VC 08MC	0	1	4.64879894257	None	None	None	None	1
2.7	2015_May_18_1545	s	s	13	1	Capacity	43	RC	1	0	08VC 15MC	1	0	7.04507303238	-188.0	411.0	110	256	0
2.7	2015_May_18_1545	s	s	13	1	Capacity	44	ABS	1	0	08VC 16MC	1	0	6.10830020905	None	None	-38	-8	0
2.7	2015_May_18_1545	s	s	13	1	Capacity	45	ABS	2	0	16VC 08MC	1	0	3.44813799858	None	None	265	257	0
2.7	2015_May_18_1545	s	s	13	1	Capacity	46	ABS	1	0	08VC 16MC	1	0	2.28895998001	None	None	443	-314	0
2.7	2015_May_18_1545	s	s	13	1	Capacity	47	RC	2	0	15VC 08MC	1	0	1.1972630024	373.0	80.0	376	78	1
2.7	2015_May_18_1545	s	s	13	1	Capacity	48	RC	1	0	08VC 15MC	1	0	3.03125	208.0	306.0	202	309	1
2.7	2015_May_18_1545	s	s	13	1	Capacity	49	RC	2	0	15VC 08MC	1	0	2.57289719582	408.0	29.0	417	27	1
2.7	2015_May_18_1545	s	s	13	1	Capacity	50	ABS	1	0	08VC 16MC	1	0	1.17646193504	None	None	281	125	0
2.7	2015_May_18_1545	s	s	13	1	Capacity	51	RC	1	0	08VC 15MC	1	0	3.69534897804	-421.0	-271.0	-420	-278	1
2.7	2015_May_18_1545	s	s	13	1	Capacity	52	ABS	2	0	16VC 08MC	1	0	4.02150011063	None	None	116	-24	0
2.7	2015_May_18_1545	s	s	13	1	Capacity	53	RC	2	0	15VC 08MC	1	0	9.6984641552	-395.0	292.0	-70	-321	0
2.7	2015_May_18_1545	s	s	13	1	Capacity	54	ABS	1	0	08VC 16MC	0	1	3.13023781776	None	None	None	None	1
2.7	2015_May_18_1545	s	s	13	1	Capacity	55	ABS	2	0	16VC 08MC	0	1	8.64276695251	None	None	None	None	1
2.7	2015_May_18_1545	s	s	13	1	Capacity	56	RC	1	0	08VC 15MC	1	0	9.8723950386	419.0	-153.0	425	-155	1
2.7	2015_May_18_1545	s	s	13	1	Capacity	57	RC	2	0	15VC 08MC	1	0	4.19782781601	38.0	297.0	43	304	1
2.7	2015_May_18_1545	s	s	13	1	Capacity	58	ABS	2	0	16VC 08MC	0	1	4.2072198391	None	None	None	None	1
2.7	2015_May_18_1545	s	s	13	1	Capacity	59	RC	1	0	08VC 15MC	1	0	5.83488607407	-72.0	-319.0	-76	-316	1
2.7	2015_May_18_1545	s	s	13	1	Capacity	60	ABS	1	0	08VC 16MC	0	1	6.39092111588	None	None	None	None	1
2.7	2015_May_18_1545	s	s	13	1	Capacity	61	RC	2	0	15VC 08MC	1	0	2.41237092018	-233.0	-343.0	-239	-350	1
2.7	2015_May_18_1545	s	s	13	1	Capacity	62	ABS	1	0	08VC 16MC	0	1	2.71831607819	None	None	None	None	1
2.7	2015_May_18_1545	s	s	13	1	Capacity	63	RC	1	0	08VC 15MC	1	0	3.45543694496	272.0	-236.0	278	-244	1
2.7	2015_May_18_1545	s	s	13	1	Capacity	64	ABS	2	0	16VC 08MC	0	1	3.80121207237	None	None	None	None	1
2.7	2015_May_18_1545	s	s	13	1	Capacity	1	RC	0	1	08RD 15RO	1	0	2.3152859211	-149.0	-297.0	-147	-307	1
2.7	2015_May_18_1545	s	s	13	1	Capacity	2	ABS	0	2	16RD 08RO	0	1	2.65382790565	None	None	None	None	1
2.7	2015_May_18_1545	s	s	13	1	Capacity	3	RC	0	2	15RD 08RO	1	0	2.31816077232	378.0	210.0	382	206	1
2.7	2015_May_18_1545	s	s	13	1	Capacity	4	ABS	0	1	08RD 16RO	0	1	3.9842069149	None	None	None	None	1
2.7	2015_May_18_1545	s	s	13	1	Capacity	5	RC	0	1	08RD 15RO	1	0	1.69160890579	378.0	-411.0	380	-414	1
2.7	2015_May_18_1545	s	s	13	1	Capacity	6	ABS	0	2	16RD 08RO	0	1	2.26701188087	None	None	None	None	1
2.7	2015_May_18_1545	s	s	13	1	Capacity	7	ABS	0	1	08RD 16RO	0	1	4.62528300285	None	None	None	None	1
2.7	2015_May_18_1545	s	s	13	1	Capacity	8	RC	0	2	15RD 08RO	1	0	2.95114207268	-71.0	-331.0	-72	-335	1
2.7	2015_May_18_1545	s	s	13	1	Capacity	9	ABS	0	2	16RD 08RO	0	1	2.67849993706	None	None	None	None	1
2.7	2015_May_18_1545	s	s	13	1	Capacity	10	RC	0	2	15RD 08RO	1	0	1.8121509552	510.0	-313.0	503	-314	1
2.7	2015_May_18_1545	s	s	13	1	Capacity	11	ABS	0	1	08RD 16RO	1	0	5.4845290184	None	None	-99	-95	0
2.7	2015_May_18_1545	s	s	13	1	Capacity	12	RC	0	1	08RD 15RO	0	1	5.24925899506	-250.0	-205.0	None	None	0
2.7	2015_May_18_1545	s	s	13	1	Capacity	13	RC	0	2	15RD 08RO	1	0	2.34182214737	473.0	-82.0	474	-74	1
2.7	2015_May_18_1545	s	s	13	1	Capacity	14	RC	0	1	08RD 15RO	1	0	3.66016101837	-24.0	324.0	-24	320	1
2.7	2015_May_18_1545	s	s	13	1	Capacity	15	ABS	0	2	16RD 08RO	0	1	3.72518587112	None	None	None	None	1
2.7	2015_May_18_1545	s	s	13	1	Capacity	16	ABS	0	1	08RD 16RO	0	1	4.76136302948	None	None	None	None	1
2.7	2015_May_18_1545	s	s	13	1	Capacity	17	RC	0	1	08RD 15RO	1	0	3.48350596428	80.0	-300.0	73	-300	1
2.7	2015_May_18_1545	s	s	13	1	Capacity	18	ABS	0	1	08RD 16RO	0	1	8.71627306938	None	None	None	None	1
2.7	2015_May_18_1545	s	s	13	1	Capacity	19	RC	0	2	15RD 08RO	1	0	3.24810194969	-221.0	-86.0	-225	-89	1
2.7	2015_May_18_1545	s	s	13	1	Capacity	20	ABS	0	2	16RD 08RO	0	1	3.11049604416	None	None	None	None	1
2.7	2015_May_18_1545	s	s	13	1	Capacity	21	ABS	0	1	08RD 16RO	0	1	6.21225500107	None	None	None	None	1
2.7	2015_May_18_1545	s	s	13	1	Capacity	22	ABS	0	2	16RD 08RO	0	1	4.07203197479	None	None	None	None	1
2.7	2015_May_18_1545	s	s	13	1	Capacity	23	RC	0	2	15RD 08RO	1	0	1.50081706047	386.0	75.0	385	71	1
2.7	2015_May_18_1545	s	s	13	1	Capacity	24	RC	0	1	08RD 15RO	1	0	5.05547714233	-329.0	288.0	-326	292	1
2.7	2015_May_18_1545	s	s	13	1	Capacity	25	ABS	0	1	08RD 16RO	0	1	9.07174515724	None	None	None	None	1
2.7	2015_May_18_1545	s	s	13	1	Capacity	26	ABS	0	2	16RD 08RO	0	1	4.49618291855	None	None	None	None	1
2.7	2015_May_18_1545	s	s	13	1	Capacity	27	RC	0	2	15RD 08RO	1	0	1.07047891617	49.0	224.0	44	220	1
2.7	2015_May_18_1545	s	s	13	1	Capacity	28	RC	0	1	08RD 15RO	1	0	2.99409985542	229.0	-336.0	224	-332	1
2.7	2015_May_18_1545	s	s	13	1	Capacity	29	ABS	0	1	08RD 16RO	0	1	4.62155294418	None	None	None	None	1
2.7	2015_May_18_1545	s	s	13	1	Capacity	30	RC	0	2	15RD 08RO	1	0	2.91353106499	-449.0	-237.0	-440	-237	1
2.7	2015_May_18_1545	s	s	13	1	Capacity	31	RC	0	1	08RD 15RO	1	0	4.36628198624	56.0	215.0	53	214	1
2.7	2015_May_18_1545	s	s	13	1	Capacity	32	ABS	0	2	16RD 08RO	0	1	2.81263804436	None	None	None	None	1
2.7	2015_May_18_1545	s	s	13	1	Capacity	33	ABS	0	2	16RD 08RO	0	1	3.93983602524	None	None	None	None	1
2.7	2015_May_18_1545	s	s	13	1	Capacity	34	RC	0	1	08RD 15RO	1	0	3.53721499443	-354.0	117.0	-350	115	1
2.7	2015_May_18_1545	s	s	13	1	Capacity	35	ABS	0	1	08RD 16RO	0	1	4.92463803291	None	None	None	None	1
2.7	2015_May_18_1545	s	s	13	1	Capacity	36	RC	0	2	15RD 08RO	1	0	2.60750293732	-349.0	339.0	-354	336	1
2.7	2015_May_18_1545	s	s	13	1	Capacity	37	ABS	0	2	16RD 08RO	0	1	3.40977978706	None	None	None	None	1
2.7	2015_May_18_1545	s	s	13	1	Capacity	38	RC	0	2	15RD 08RO	1	0	1.59314489365	-57.0	7.0	-55	4	1
2.7	2015_May_18_1545	s	s	13	1	Capacity	39	ABS	0	1	08RD 16RO	0	1	4.71391010284	None	None	None	None	1
2.7	2015_May_18_1545	s	s	13	1	Capacity	40	RC	0	1	08RD 15RO	1	0	2.25929903984	-8.0	223.0	-2	217	1
2.7	2015_May_18_1545	s	s	13	1	Capacity	41	RC	0	2	15RD 08RO	1	0	1.68259000778	423.0	-405.0	430	-404	1
2.7	2015_May_18_1545	s	s	13	1	Capacity	42	ABS	0	2	16RD 08RO	0	1	2.2902328968	None	None	None	None	1
2.7	2015_May_18_1545	s	s	13	1	Capacity	43	RC	0	1	08RD 15RO	1	0	4.15482997894	-497.0	119.0	-494	115	1
2.7	2015_May_18_1545	s	s	13	1	Capacity	44	ABS	0	1	08RD 16RO	0	1	4.07190203667	None	None	None	None	1
2.7	2015_May_18_1545	s	s	13	1	Capacity	45	RC	0	2	15RD 08RO	0	1	3.48016500473	86.0	-129.0	None	None	0
2.7	2015_May_18_1545	s	s	13	1	Capacity	46	RC	0	1	08RD 15RO	1	0	1.74792098999	52.0	-17.0	56	-20	1
2.7	2015_May_18_1545	s	s	13	1	Capacity	47	ABS	0	1	08RD 16RO	0	1	3.95439791679	None	None	None	None	1
2.7	2015_May_18_1545	s	s	13	1	Capacity	48	ABS	0	2	16RD 08RO	0	1	2.58304405212	None	None	None	None	1
2.7	2015_May_18_1545	s	s	13	1	Capacity	49	RC	0	2	15RD 08RO	1	0	1.12619900703	146.0	-115.0	143	-114	1
2.7	2015_May_18_1545	s	s	13	1	Capacity	50	ABS	0	1	08RD 16RO	0	1	4.79894399643	None	None	None	None	1
2.7	2015_May_18_1545	s	s	13	1	Capacity	51	ABS	0	2	16RD 08RO	0	1	2.34166288376	None	None	None	None	1
2.7	2015_May_18_1545	s	s	13	1	Capacity	52	RC	0	1	08RD 15RO	1	0	2.45950508118	-386.0	-396.0	-395	-397	1
2.7	2015_May_18_1545	s	s	13	1	Capacity	53	ABS	0	1	08RD 16RO	0	1	4.53108096123	None	None	None	None	1
2.7	2015_May_18_1545	s	s	13	1	Capacity	54	ABS	0	2	16RD 08RO	0	1	3.56044483185	None	None	None	None	1
2.7	2015_May_18_1545	s	s	13	1	Capacity	55	RC	0	1	08RD 15RO	1	0	2.57688689232	285.0	257.0	279	252	1
2.7	2015_May_18_1545	s	s	13	1	Capacity	56	RC	0	2	15RD 08RO	1	0	2.57713699341	-394.0	-358.0	-391	-357	1
2.7	2015_May_18_1545	s	s	13	1	Capacity	57	RC	0	1	08RD 15RO	1	0	5.12315201759	-512.0	298.0	-517	291	1
2.7	2015_May_18_1545	s	s	13	1	Capacity	58	RC	0	2	15RD 08RO	1	0	1.62026810646	-172.0	-103.0	-171	-102	1
2.7	2015_May_18_1545	s	s	13	1	Capacity	59	ABS	0	1	08RD 16RO	0	1	4.11616492271	None	None	None	None	1
2.7	2015_May_18_1545	s	s	13	1	Capacity	60	ABS	0	2	16RD 08RO	0	1	3.22465610504	None	None	None	None	1
2.7	2015_May_18_1545	s	s	13	1	Capacity	61	RC	0	2	15RD 08RO	1	0	1.77710390091	-137.0	59.0	-132	53	1
2.7	2015_May_18_1545	s	s	13	1	Capacity	62	ABS	0	2	16RD 08RO	0	1	2.91847705841	None	None	None	None	1
2.7	2015_May_18_1545	s	s	13	1	Capacity	63	ABS	0	1	08RD 16RO	0	1	4.22509503365	None	None	None	None	1
2.7	2015_May_18_1545	s	s	13	1	Capacity	64	RC	0	1	08RD 15RO	0	1	3.46671915054	16.0	-207.0	None	None	0
2.7	2015_May_18_1545	s	s	13	1	SIC	1	RC	1	1	02VD 02VO 02VC 02MD 09MO 02MC 02RD 02RO	1	0	3.86778903008	-330.0	-267.0	-337	-267	1
2.7	2015_May_18_1545	s	s	13	1	SIC	2	RC	2	0	02VD 02VO 09VC 02MD 02MO 02MC 02RD 02RO	1	0	3.58625507355	515.0	-401.0	520	-405	1
2.7	2015_May_18_1545	s	s	13	1	SIC	3	ABS	0	1	02VD 02VO 02VC 02MD 02MO 02MC 02RD 10RO	0	1	3.66830086708	None	None	None	None	1
2.7	2015_May_18_1545	s	s	13	1	SIC	4	RC	1	2	02VD 02VO 02VC 09MD 02MO 02MC 02RD 02RO	1	0	3.08334112167	-426.0	-183.0	-429	-185	1
2.7	2015_May_18_1545	s	s	13	1	SIC	5	ABS	1	0	02VD 02VO 02VC 02MD 02MO 10MC 02RD 02RO	0	1	5.27965307236	None	None	None	None	1
2.7	2015_May_18_1545	s	s	13	1	SIC	6	RC	0	1	02VD 02VO 02VC 02MD 02MO 02MC 02RD 09RO	1	0	3.87192893028	155.0	67.0	150	66	1
2.7	2015_May_18_1545	s	s	13	1	SIC	7	ABS	1	2	02VD 02VO 02VC 10MD 02MO 02MC 02RD 02RO	0	1	2.71835303307	None	None	None	None	1
2.7	2015_May_18_1545	s	s	13	1	SIC	8	RC	2	2	09VD 02VO 02VC 02MD 02MO 02MC 02RD 02RO	1	0	2.35051894188	29.0	-172.0	31	-173	1
2.7	2015_May_18_1545	s	s	13	1	SIC	9	RC	2	1	02VD 09VO 02VC 02MD 02MO 02MC 02RD 02RO	0	1	2.55066895485	-223.0	36.0	None	None	0
2.7	2015_May_18_1545	s	s	13	1	SIC	10	ABS	1	1	02VD 02VO 02VC 02MD 10MO 02MC 02RD 02RO	0	1	3.92632603645	None	None	None	None	1
2.7	2015_May_18_1545	s	s	13	1	SIC	11	ABS	0	2	02VD 02VO 02VC 02MD 02MO 02MC 10RD 02RO	0	1	4.04525709152	None	None	None	None	1
2.7	2015_May_18_1545	s	s	13	1	SIC	12	RC	1	0	02VD 02VO 02VC 02MD 02MO 09MC 02RD 02RO	1	0	2.77214813232	480.0	-129.0	487	-131	1
2.7	2015_May_18_1545	s	s	13	1	SIC	13	RC	0	2	02VD 02VO 02VC 02MD 02MO 02MC 09RD 02RO	1	0	2.95026302338	78.0	-240.0	79	-241	1
2.7	2015_May_18_1545	s	s	13	1	SIC	14	ABS	2	0	02VD 02VO 10VC 02MD 02MO 02MC 02RD 02RO	0	1	2.33000516891	None	None	None	None	1
2.7	2015_May_18_1545	s	s	13	1	SIC	15	ABS	2	2	10VD 02VO 02VC 02MD 02MO 02MC 02RD 02RO	0	1	2.49483394623	None	None	None	None	1
2.7	2015_May_18_1545	s	s	13	1	SIC	16	ABS	2	1	02VD 10VO 02VC 02MD 02MO 02MC 02RD 02RO	0	1	3.01267313957	None	None	None	None	1
2.7	2015_May_18_1545	s	s	13	1	SIC	17	ABS	2	0	02VD 02VO 10VC 02MD 02MO 02MC 02RD 02RO	0	1	2.90668702126	None	None	None	None	1
2.7	2015_May_18_1545	s	s	13	1	SIC	18	ABS	0	1	02VD 02VO 02VC 02MD 02MO 02MC 02RD 10RO	0	1	3.37253499031	None	None	None	None	1
2.7	2015_May_18_1545	s	s	13	1	SIC	19	ABS	2	2	10VD 02VO 02VC 02MD 02MO 02MC 02RD 02RO	0	1	3.4313211441	None	None	None	None	1
2.7	2015_May_18_1545	s	s	13	1	SIC	20	ABS	0	2	02VD 02VO 02VC 02MD 02MO 02MC 10RD 02RO	0	1	3.18108201027	None	None	None	None	1
2.7	2015_May_18_1545	s	s	13	1	SIC	21	ABS	1	2	02VD 02VO 02VC 10MD 02MO 02MC 02RD 02RO	0	1	2.46795606613	None	None	None	None	1
2.7	2015_May_18_1545	s	s	13	1	SIC	22	ABS	1	0	02VD 02VO 02VC 02MD 02MO 10MC 02RD 02RO	0	1	3.76115703583	None	None	None	None	1
2.7	2015_May_18_1545	s	s	13	1	SIC	23	ABS	2	1	02VD 10VO 02VC 02MD 02MO 02MC 02RD 02RO	0	1	2.61247491837	None	None	None	None	1
2.7	2015_May_18_1545	s	s	13	1	SIC	24	ABS	1	1	02VD 02VO 02VC 02MD 10MO 02MC 02RD 02RO	0	1	3.46887397766	None	None	None	None	1
2.7	2015_May_18_1545	s	s	13	1	SIC	25	RC	0	2	02VD 02VO 02VC 02MD 02MO 02MC 09RD 02RO	1	0	1.31755495071	300.0	-99.0	301	-101	1
2.7	2015_May_18_1545	s	s	13	1	SIC	26	RC	2	2	09VD 02VO 02VC 02MD 02MO 02MC 02RD 02RO	1	0	1.2353219986	494.0	-70.0	497	-74	1
2.7	2015_May_18_1545	s	s	13	1	SIC	27	RC	1	0	02VD 02VO 02VC 02MD 02MO 09MC 02RD 02RO	1	0	4.76013994217	-460.0	82.0	-457	82	1
2.7	2015_May_18_1545	s	s	13	1	SIC	28	RC	1	1	02VD 02VO 02VC 02MD 09MO 02MC 02RD 02RO	1	0	1.90348601341	159.0	90.0	159	85	1
2.7	2015_May_18_1545	s	s	13	1	SIC	29	RC	2	0	02VD 02VO 09VC 02MD 02MO 02MC 02RD 02RO	1	0	1.43223118782	261.0	409.0	263	418	1
2.7	2015_May_18_1545	s	s	13	1	SIC	30	RC	0	1	02VD 02VO 02VC 02MD 02MO 02MC 02RD 09RO	1	0	3.18651604652	-362.0	86.0	-364	95	1
2.7	2015_May_18_1545	s	s	13	1	SIC	31	RC	2	1	02VD 09VO 02VC 02MD 02MO 02MC 02RD 02RO	1	0	0.806452035904	-85.0	-155.0	-89	-152	1
2.7	2015_May_18_1545	s	s	13	1	SIC	32	RC	1	2	02VD 02VO 02VC 09MD 02MO 02MC 02RD 02RO	1	0	1.24056982994	135.0	-287.0	136	-291	1
2.7	2015_May_18_1545	s	s	13	1	SIC	33	RC	2	1	02VD 09VO 02VC 02MD 02MO 02MC 02RD 02RO	1	0	1.57661700249	-56.0	271.0	-51	266	1
2.7	2015_May_18_1545	s	s	13	1	SIC	34	ABS	1	0	02VD 02VO 02VC 02MD 02MO 10MC 02RD 02RO	0	1	2.80765199661	None	None	None	None	1
2.7	2015_May_18_1545	s	s	13	1	SIC	35	RC	1	0	02VD 02VO 02VC 02MD 02MO 09MC 02RD 02RO	1	0	2.36021113396	-440.0	-134.0	-437	-134	1
2.7	2015_May_18_1545	s	s	13	1	SIC	36	ABS	1	2	02VD 02VO 02VC 10MD 02MO 02MC 02RD 02RO	0	1	2.52440094948	None	None	None	None	1
2.7	2015_May_18_1545	s	s	13	1	SIC	37	RC	1	1	02VD 02VO 02VC 02MD 09MO 02MC 02RD 02RO	1	0	0.776202917099	143.0	138.0	151	138	1
2.7	2015_May_18_1545	s	s	13	1	SIC	38	RC	0	2	02VD 02VO 02VC 02MD 02MO 02MC 09RD 02RO	1	0	0.953117132187	-27.0	-48.0	-28	-44	1
2.7	2015_May_18_1545	s	s	13	1	SIC	39	RC	2	2	09VD 02VO 02VC 02MD 02MO 02MC 02RD 02RO	1	0	0.912602901459	167.0	-98.0	169	-97	1
2.7	2015_May_18_1545	s	s	13	1	SIC	40	ABS	0	1	02VD 02VO 02VC 02MD 02MO 02MC 02RD 10RO	0	1	3.36576199532	None	None	None	None	1
2.7	2015_May_18_1545	s	s	13	1	SIC	41	ABS	1	1	02VD 02VO 02VC 02MD 10MO 02MC 02RD 02RO	0	1	2.21227502823	None	None	None	None	1
2.7	2015_May_18_1545	s	s	13	1	SIC	42	ABS	2	0	02VD 02VO 10VC 02MD 02MO 02MC 02RD 02RO	0	1	2.05917000771	None	None	None	None	1
2.7	2015_May_18_1545	s	s	13	1	SIC	43	RC	1	2	02VD 02VO 02VC 09MD 02MO 02MC 02RD 02RO	0	1	1.87745189667	301.0	395.0	None	None	0
2.7	2015_May_18_1545	s	s	13	1	SIC	44	ABS	0	2	02VD 02VO 02VC 02MD 02MO 02MC 10RD 02RO	0	1	1.87868189812	None	None	None	None	1
2.7	2015_May_18_1545	s	s	13	1	SIC	45	ABS	2	2	10VD 02VO 02VC 02MD 02MO 02MC 02RD 02RO	0	1	2.71875810623	None	None	None	None	1
2.7	2015_May_18_1545	s	s	13	1	SIC	46	RC	0	1	02VD 02VO 02VC 02MD 02MO 02MC 02RD 09RO	1	0	2.17702388763	-232.0	-307.0	-235	-305	1
2.7	2015_May_18_1545	s	s	13	1	SIC	47	ABS	2	1	02VD 10VO 02VC 02MD 02MO 02MC 02RD 02RO	0	1	1.93825387955	None	None	None	None	1
2.7	2015_May_18_1545	s	s	13	1	SIC	48	RC	2	0	02VD 02VO 09VC 02MD 02MO 02MC 02RD 02RO	1	0	1.51778316498	-18.0	-352.0	-19	-357	1
2.7	2015_May_18_1545	s	s	13	1	SIC	49	ABS	1	0	02VD 02VO 02VC 02MD 02MO 10MC 02RD 02RO	0	1	3.07967805862	None	None	None	None	1
2.7	2015_May_18_1545	s	s	13	1	SIC	50	RC	2	2	09VD 02VO 02VC 02MD 02MO 02MC 02RD 02RO	1	0	1.71524715424	39.0	-366.0	42	-365	1
2.7	2015_May_18_1545	s	s	13	1	SIC	51	RC	0	2	02VD 02VO 02VC 02MD 02MO 02MC 09RD 02RO	1	0	0.940957069397	220.0	199.0	218	194	1
2.7	2015_May_18_1545	s	s	13	1	SIC	52	RC	1	0	02VD 02VO 02VC 02MD 02MO 09MC 02RD 02RO	1	0	5.13139605522	-333.0	-144.0	-340	-149	1
2.7	2015_May_18_1545	s	s	13	1	SIC	53	ABS	2	1	02VD 10VO 02VC 02MD 02MO 02MC 02RD 02RO	0	1	2.65480303764	None	None	None	None	1
2.7	2015_May_18_1545	s	s	13	1	SIC	54	RC	0	1	02VD 02VO 02VC 02MD 02MO 02MC 02RD 09RO	1	0	1.50328183174	33.0	326.0	38	323	1
2.7	2015_May_18_1545	s	s	13	1	SIC	55	ABS	0	2	02VD 02VO 02VC 02MD 02MO 02MC 10RD 02RO	0	1	1.99748778343	None	None	None	None	1
2.7	2015_May_18_1545	s	s	13	1	SIC	56	ABS	0	1	02VD 02VO 02VC 02MD 02MO 02MC 02RD 10RO	0	1	2.67137312889	None	None	None	None	1
2.7	2015_May_18_1545	s	s	13	1	SIC	57	ABS	1	1	02VD 02VO 02VC 02MD 10MO 02MC 02RD 02RO	0	1	3.03296089172	None	None	None	None	1
2.7	2015_May_18_1545	s	s	13	1	SIC	58	ABS	1	2	02VD 02VO 02VC 10MD 02MO 02MC 02RD 02RO	0	1	2.33005619049	None	None	None	None	1
2.7	2015_May_18_1545	s	s	13	1	SIC	59	RC	1	1	02VD 02VO 02VC 02MD 09MO 02MC 02RD 02RO	1	0	1.6590218544	-314.0	-92.0	-314	-91	1
2.7	2015_May_18_1545	s	s	13	1	SIC	60	ABS	2	2	10VD 02VO 02VC 02MD 02MO 02MC 02RD 02RO	0	1	2.15971422195	None	None	None	None	1
2.7	2015_May_18_1545	s	s	13	1	SIC	61	RC	2	1	02VD 09VO 02VC 02MD 02MO 02MC 02RD 02RO	1	0	2.63007688522	-392.0	-308.0	-390	-312	1
2.7	2015_May_18_1545	s	s	13	1	SIC	62	ABS	2	0	02VD 02VO 10VC 02MD 02MO 02MC 02RD 02RO	0	1	4.14261198044	None	None	None	None	1
2.7	2015_May_18_1545	s	s	13	1	SIC	63	RC	2	0	02VD 02VO 09VC 02MD 02MO 02MC 02RD 02RO	1	0	4.09552383423	54.0	-378.0	55	-384	1
2.7	2015_May_18_1545	s	s	13	1	SIC	64	RC	1	2	02VD 02VO 02VC 09MD 02MO 02MC 02RD 02RO	1	0	2.30636787415	-45.0	177.0	-44	175	1
2.7	2015_May_18_1545	s	s	13	1	SIC	65	ABS	0	1	02VD 02VO 02VC 02MD 02MO 02MC 02RD 10RO	0	1	3.79668593407	None	None	None	None	1
2.7	2015_May_18_1545	s	s	13	1	SIC	66	ABS	2	0	02VD 02VO 10VC 02MD 02MO 02MC 02RD 02RO	0	1	2.88317894936	None	None	None	None	1
2.7	2015_May_18_1545	s	s	13	1	SIC	67	RC	2	0	02VD 02VO 09VC 02MD 02MO 02MC 02RD 02RO	1	0	2.78896307945	-512.0	55.0	-513	58	1
2.7	2015_May_18_1545	s	s	13	1	SIC	68	ABS	2	1	02VD 10VO 02VC 02MD 02MO 02MC 02RD 02RO	0	1	2.71452212334	None	None	None	None	1
2.7	2015_May_18_1545	s	s	13	1	SIC	69	RC	2	2	09VD 02VO 02VC 02MD 02MO 02MC 02RD 02RO	1	0	2.7723801136	-444.0	261.0	-437	260	1
2.7	2015_May_18_1545	s	s	13	1	SIC	70	ABS	0	2	02VD 02VO 02VC 02MD 02MO 02MC 10RD 02RO	0	1	2.29454398155	None	None	None	None	1
2.7	2015_May_18_1545	s	s	13	1	SIC	71	RC	1	1	02VD 02VO 02VC 02MD 09MO 02MC 02RD 02RO	1	0	3.3370411396	-485.0	-155.0	-488	-160	1
2.7	2015_May_18_1545	s	s	13	1	SIC	72	RC	1	2	02VD 02VO 02VC 09MD 02MO 02MC 02RD 02RO	1	0	1.43534803391	24.0	282.0	28	281	1
2.7	2015_May_18_1545	s	s	13	1	SIC	73	RC	1	0	02VD 02VO 02VC 02MD 02MO 09MC 02RD 02RO	1	0	0.87677192688	201.0	-38.0	204	-39	1
2.7	2015_May_18_1545	s	s	13	1	SIC	74	RC	0	1	02VD 02VO 02VC 02MD 02MO 02MC 02RD 09RO	1	0	3.69013595581	479.0	-192.0	484	-196	1
2.7	2015_May_18_1545	s	s	13	1	SIC	75	ABS	2	2	10VD 02VO 02VC 02MD 02MO 02MC 02RD 02RO	0	1	2.91500091553	None	None	None	None	1
2.7	2015_May_18_1545	s	s	13	1	SIC	76	ABS	1	1	02VD 02VO 02VC 02MD 10MO 02MC 02RD 02RO	0	1	2.74862885475	None	None	None	None	1
2.7	2015_May_18_1545	s	s	13	1	SIC	77	ABS	1	2	02VD 02VO 02VC 10MD 02MO 02MC 02RD 02RO	0	1	2.27116322517	None	None	None	None	1
2.7	2015_May_18_1545	s	s	13	1	SIC	78	ABS	1	0	02VD 02VO 02VC 02MD 02MO 10MC 02RD 02RO	0	1	4.73851108551	None	None	None	None	1
2.7	2015_May_18_1545	s	s	13	1	SIC	79	RC	2	1	02VD 09VO 02VC 02MD 02MO 02MC 02RD 02RO	1	0	2.46556305885	217.0	380.0	225	376	1
2.7	2015_May_18_1545	s	s	13	1	SIC	80	RC	0	2	02VD 02VO 02VC 02MD 02MO 02MC 09RD 02RO	0	1	2.42137408257	-300.0	268.0	None	None	0
2.7	2015_May_18_1545	s	s	13	1	SIC	81	ABS	0	2	02VD 02VO 02VC 02MD 02MO 02MC 10RD 02RO	0	1	2.90692400932	None	None	None	None	1
2.7	2015_May_18_1545	s	s	13	1	SIC	82	ABS	2	2	10VD 02VO 02VC 02MD 02MO 02MC 02RD 02RO	1	0	2.88026404381	None	None	-81	242	0
2.7	2015_May_18_1545	s	s	13	1	SIC	83	RC	2	1	02VD 09VO 02VC 02MD 02MO 02MC 02RD 02RO	1	0	5.61405611038	520.0	-288.0	517	-298	1
2.7	2015_May_18_1545	s	s	13	1	SIC	84	ABS	0	1	02VD 02VO 02VC 02MD 02MO 02MC 02RD 10RO	0	1	4.60868000984	None	None	None	None	1
2.7	2015_May_18_1545	s	s	13	1	SIC	85	RC	1	1	02VD 02VO 02VC 02MD 09MO 02MC 02RD 02RO	1	0	1.82372999191	-228.0	-296.0	-229	-295	1
2.7	2015_May_18_1545	s	s	13	1	SIC	86	RC	1	0	02VD 02VO 02VC 02MD 02MO 09MC 02RD 02RO	1	0	1.09423899651	-7.0	-14.0	-7	-4	1
2.7	2015_May_18_1545	s	s	13	1	SIC	87	RC	0	2	02VD 02VO 02VC 02MD 02MO 02MC 09RD 02RO	1	0	0.759028911591	270.0	174.0	269	170	1
2.7	2015_May_18_1545	s	s	13	1	SIC	88	ABS	2	1	02VD 10VO 02VC 02MD 02MO 02MC 02RD 02RO	0	1	2.96228790283	None	None	None	None	1
2.7	2015_May_18_1545	s	s	13	1	SIC	89	RC	0	1	02VD 02VO 02VC 02MD 02MO 02MC 02RD 09RO	1	0	4.24898219109	163.0	-220.0	159	-218	1
2.7	2015_May_18_1545	s	s	13	1	SIC	90	ABS	1	0	02VD 02VO 02VC 02MD 02MO 10MC 02RD 02RO	0	1	6.01111006737	None	None	None	None	1
2.7	2015_May_18_1545	s	s	13	1	SIC	91	RC	1	2	02VD 02VO 02VC 09MD 02MO 02MC 02RD 02RO	1	0	1.94157099724	-397.0	364.0	-399	368	1
2.7	2015_May_18_1545	s	s	13	1	SIC	92	ABS	2	0	02VD 02VO 10VC 02MD 02MO 02MC 02RD 02RO	0	1	2.55098795891	None	None	None	None	1
2.7	2015_May_18_1545	s	s	13	1	SIC	93	ABS	1	2	02VD 02VO 02VC 10MD 02MO 02MC 02RD 02RO	0	1	2.34850406647	None	None	None	None	1
2.7	2015_May_18_1545	s	s	13	1	SIC	94	RC	2	0	02VD 02VO 09VC 02MD 02MO 02MC 02RD 02RO	1	0	1.17634510994	365.0	81.0	362	88	1
2.7	2015_May_18_1545	s	s	13	1	SIC	95	RC	2	2	09VD 02VO 02VC 02MD 02MO 02MC 02RD 02RO	1	0	2.95943379402	-428.0	3.0	-435	2	1
2.7	2015_May_18_1545	s	s	13	1	SIC	96	ABS	1	1	02VD 02VO 02VC 02MD 10MO 02MC 02RD 02RO	0	1	2.25435805321	None	None	None	None	1
2.7	2015_May_18_1545	s	s	13	1	SIC	97	RC	1	1	02VD 02VO 02VC 02MD 09MO 02MC 02RD 02RO	1	0	2.90412402153	-47.0	-350.0	-51	-349	1
2.7	2015_May_18_1545	s	s	13	1	SIC	98	ABS	1	2	02VD 02VO 02VC 10MD 02MO 02MC 02RD 02RO	0	1	2.83257198334	None	None	None	None	1
2.7	2015_May_18_1545	s	s	13	1	SIC	99	RC	1	2	02VD 02VO 02VC 09MD 02MO 02MC 02RD 02RO	1	0	2.37716293335	-521.0	-176.0	-519	-169	1
2.7	2015_May_18_1545	s	s	13	1	SIC	100	RC	2	2	09VD 02VO 02VC 02MD 02MO 02MC 02RD 02RO	1	0	2.51824402809	-518.0	-364.0	-517	-363	1
2.7	2015_May_18_1545	s	s	13	1	SIC	101	ABS	2	1	02VD 10VO 02VC 02MD 02MO 02MC 02RD 02RO	0	1	2.5371131897	None	None	None	None	1
2.7	2015_May_18_1545	s	s	13	1	SIC	102	ABS	1	1	02VD 02VO 02VC 02MD 10MO 02MC 02RD 02RO	0	1	3.58684301376	None	None	None	None	1
2.7	2015_May_18_1545	s	s	13	1	SIC	103	ABS	1	0	02VD 02VO 02VC 02MD 02MO 10MC 02RD 02RO	0	1	5.20202088356	None	None	None	None	1
2.7	2015_May_18_1545	s	s	13	1	SIC	104	ABS	2	2	10VD 02VO 02VC 02MD 02MO 02MC 02RD 02RO	1	0	3.45991706848	None	None	53	-104	0
2.7	2015_May_18_1545	s	s	13	1	SIC	105	RC	0	2	02VD 02VO 02VC 02MD 02MO 02MC 09RD 02RO	1	0	3.80138301849	422.0	-350.0	424	-349	1
2.7	2015_May_18_1545	s	s	13	1	SIC	106	ABS	0	1	02VD 02VO 02VC 02MD 02MO 02MC 02RD 10RO	0	1	4.44534301758	None	None	None	None	1
2.7	2015_May_18_1545	s	s	13	1	SIC	107	RC	2	0	02VD 02VO 09VC 02MD 02MO 02MC 02RD 02RO	1	0	1.80033111572	96.0	71.0	99	69	1
2.7	2015_May_18_1545	s	s	13	1	SIC	108	RC	1	0	02VD 02VO 02VC 02MD 02MO 09MC 02RD 02RO	1	0	3.1157348156	-171.0	-352.0	-175	-358	1
2.7	2015_May_18_1545	s	s	13	1	SIC	109	ABS	2	0	02VD 02VO 10VC 02MD 02MO 02MC 02RD 02RO	0	1	1.80914402008	None	None	None	None	1
2.7	2015_May_18_1545	s	s	13	1	SIC	110	RC	2	1	02VD 09VO 02VC 02MD 02MO 02MC 02RD 02RO	1	0	2.01216387749	295.0	295.0	297	295	1
2.7	2015_May_18_1545	s	s	13	1	SIC	111	RC	0	1	02VD 02VO 02VC 02MD 02MO 02MC 02RD 09RO	1	0	1.90365195274	192.0	361.0	194	360	1
2.7	2015_May_18_1545	s	s	13	1	SIC	112	ABS	0	2	02VD 02VO 02VC 02MD 02MO 02MC 10RD 02RO	0	1	2.6123380661	None	None	None	None	1
2.7	2015_May_18_1545	s	s	13	1	SIC	113	RC	2	1	02VD 09VO 02VC 02MD 02MO 02MC 02RD 02RO	1	0	2.21229410172	-455.0	-149.0	-462	-149	1
2.7	2015_May_18_1545	s	s	13	1	SIC	114	ABS	0	2	02VD 02VO 02VC 02MD 02MO 02MC 10RD 02RO	0	1	3.49566698074	None	None	None	None	1
2.7	2015_May_18_1545	s	s	13	1	SIC	115	RC	1	2	02VD 02VO 02VC 09MD 02MO 02MC 02RD 02RO	1	0	1.48923015594	414.0	-78.0	416	-77	1
2.7	2015_May_18_1545	s	s	13	1	SIC	116	RC	0	2	02VD 02VO 02VC 02MD 02MO 02MC 09RD 02RO	1	0	1.31777787209	26.0	129.0	27	128	1
2.7	2015_May_18_1545	s	s	13	1	SIC	117	ABS	1	0	02VD 02VO 02VC 02MD 02MO 10MC 02RD 02RO	0	1	3.60115504265	None	None	None	None	1
2.7	2015_May_18_1545	s	s	13	1	SIC	118	ABS	1	1	02VD 02VO 02VC 02MD 10MO 02MC 02RD 02RO	0	1	3.0429880619	None	None	None	None	1
2.7	2015_May_18_1545	s	s	13	1	SIC	119	RC	2	2	09VD 02VO 02VC 02MD 02MO 02MC 02RD 02RO	1	0	1.09408903122	244.0	-237.0	239	-239	1
2.7	2015_May_18_1545	s	s	13	1	SIC	120	ABS	2	0	02VD 02VO 10VC 02MD 02MO 02MC 02RD 02RO	0	1	2.22981309891	None	None	None	None	1
2.7	2015_May_18_1545	s	s	13	1	SIC	121	ABS	1	2	02VD 02VO 02VC 10MD 02MO 02MC 02RD 02RO	0	1	2.93056488037	None	None	None	None	1
2.7	2015_May_18_1545	s	s	13	1	SIC	122	ABS	2	2	10VD 02VO 02VC 02MD 02MO 02MC 02RD 02RO	0	1	2.32428693771	None	None	None	None	1
2.7	2015_May_18_1545	s	s	13	1	SIC	123	RC	1	0	02VD 02VO 02VC 02MD 02MO 09MC 02RD 02RO	1	0	0.961939096451	250.0	220.0	252	223	1
2.7	2015_May_18_1545	s	s	13	1	SIC	124	ABS	0	1	02VD 02VO 02VC 02MD 02MO 02MC 02RD 10RO	0	1	3.92517995834	None	None	None	None	1
2.7	2015_May_18_1545	s	s	13	1	SIC	125	RC	2	0	02VD 02VO 09VC 02MD 02MO 02MC 02RD 02RO	1	0	1.21935915947	516.0	300.0	520	299	1
2.7	2015_May_18_1545	s	s	13	1	SIC	126	ABS	2	1	02VD 10VO 02VC 02MD 02MO 02MC 02RD 02RO	0	1	2.7602930069	None	None	None	None	1
2.7	2015_May_18_1545	s	s	13	1	SIC	127	RC	0	1	02VD 02VO 02VC 02MD 02MO 02MC 02RD 09RO	1	0	0.811902046204	347.0	114.0	343	115	1
2.7	2015_May_18_1545	s	s	13	1	SIC	128	RC	1	1	02VD 02VO 02VC 02MD 09MO 02MC 02RD 02RO	1	0	0.722798109055	148.0	294.0	147	296	1
2.7	2015_May_18_1545	s	s	13	1	SIC	129	RC	1	0	02VD 02VO 02VC 02MD 02MO 09MC 02RD 02RO	1	0	2.14156889915	-338.0	324.0	-339	323	1
2.7	2015_May_18_1545	s	s	13	1	SIC	130	ABS	1	1	02VD 02VO 02VC 02MD 10MO 02MC 02RD 02RO	1	0	2.82951307297	None	None	-2	-59	0
2.7	2015_May_18_1545	s	s	13	1	SIC	131	ABS	1	0	02VD 02VO 02VC 02MD 02MO 10MC 02RD 02RO	0	1	2.34173297882	None	None	None	None	1
2.7	2015_May_18_1545	s	s	13	1	SIC	132	ABS	1	2	02VD 02VO 02VC 10MD 02MO 02MC 02RD 02RO	0	1	1.68258619308	None	None	None	None	1
2.7	2015_May_18_1545	s	s	13	1	SIC	133	RC	2	0	02VD 02VO 09VC 02MD 02MO 02MC 02RD 02RO	1	0	2.07805895805	-73.0	-190.0	-73	-185	1
2.7	2015_May_18_1545	s	s	13	1	SIC	134	ABS	0	2	02VD 02VO 02VC 02MD 02MO 02MC 10RD 02RO	0	1	2.73701810837	None	None	None	None	1
2.7	2015_May_18_1545	s	s	13	1	SIC	135	RC	0	2	02VD 02VO 02VC 02MD 02MO 02MC 09RD 02RO	1	0	1.04694199562	232.0	-264.0	232	-260	1
2.7	2015_May_18_1545	s	s	13	1	SIC	136	ABS	2	1	02VD 10VO 02VC 02MD 02MO 02MC 02RD 02RO	0	1	3.7739109993	None	None	None	None	1
2.7	2015_May_18_1545	s	s	13	1	SIC	137	RC	2	2	09VD 02VO 02VC 02MD 02MO 02MC 02RD 02RO	1	0	0.988193035126	341.0	92.0	346	92	1
2.7	2015_May_18_1545	s	s	13	1	SIC	138	RC	1	1	02VD 02VO 02VC 02MD 09MO 02MC 02RD 02RO	1	0	8.24562191963	-302.0	35.0	-307	39	1
2.7	2015_May_18_1545	s	s	13	1	SIC	139	RC	0	1	02VD 02VO 02VC 02MD 02MO 02MC 02RD 09RO	1	0	8.87811994553	-376.0	-44.0	-377	-39	1
2.7	2015_May_18_1545	s	s	13	1	SIC	140	RC	2	1	02VD 09VO 02VC 02MD 02MO 02MC 02RD 02RO	1	0	1.51775598526	313.0	-197.0	318	-204	1
2.7	2015_May_18_1545	s	s	13	1	SIC	141	RC	1	2	02VD 02VO 02VC 09MD 02MO 02MC 02RD 02RO	1	0	2.75365400314	516.0	-257.0	520	-257	1
2.7	2015_May_18_1545	s	s	13	1	SIC	142	ABS	2	0	02VD 02VO 10VC 02MD 02MO 02MC 02RD 02RO	0	1	3.11853194237	None	None	None	None	1
2.7	2015_May_18_1545	s	s	13	1	SIC	143	ABS	2	2	10VD 02VO 02VC 02MD 02MO 02MC 02RD 02RO	0	1	2.52762508392	None	None	None	None	1
2.7	2015_May_18_1545	s	s	13	1	SIC	144	ABS	0	1	02VD 02VO 02VC 02MD 02MO 02MC 02RD 10RO	0	1	3.40809607506	None	None	None	None	1
2.7	2015_May_18_1545	s	s	13	1	SIC	145	ABS	2	0	02VD 02VO 10VC 02MD 02MO 02MC 02RD 02RO	0	1	2.50654006004	None	None	None	None	1
2.7	2015_May_18_1545	s	s	13	1	SIC	146	RC	2	1	02VD 09VO 02VC 02MD 02MO 02MC 02RD 02RO	1	0	0.842292070389	228.0	-66.0	235	-62	1
2.7	2015_May_18_1545	s	s	13	1	SIC	147	RC	1	0	02VD 02VO 02VC 02MD 02MO 09MC 02RD 02RO	1	0	6.81452512741	274.0	303.0	273	303	1
2.7	2015_May_18_1545	s	s	13	1	SIC	148	ABS	1	0	02VD 02VO 02VC 02MD 02MO 10MC 02RD 02RO	0	1	3.22108101845	None	None	None	None	1
2.7	2015_May_18_1545	s	s	13	1	SIC	149	ABS	2	1	02VD 10VO 02VC 02MD 02MO 02MC 02RD 02RO	0	1	2.88034701347	None	None	None	None	1
2.7	2015_May_18_1545	s	s	13	1	SIC	150	RC	1	2	02VD 02VO 02VC 09MD 02MO 02MC 02RD 02RO	1	0	1.5834479332	-146.0	93.0	-147	93	1
2.7	2015_May_18_1545	s	s	13	1	SIC	151	RC	0	1	02VD 02VO 02VC 02MD 02MO 02MC 02RD 09RO	1	0	3.69537496567	-501.0	-161.0	-503	-157	1
2.7	2015_May_18_1545	s	s	13	1	SIC	152	RC	1	1	02VD 02VO 02VC 02MD 09MO 02MC 02RD 02RO	1	0	1.05285286903	213.0	276.0	214	282	1
2.7	2015_May_18_1545	s	s	13	1	SIC	153	ABS	1	1	02VD 02VO 02VC 02MD 10MO 02MC 02RD 02RO	0	1	2.94905805588	None	None	None	None	1
2.7	2015_May_18_1545	s	s	13	1	SIC	154	RC	2	2	09VD 02VO 02VC 02MD 02MO 02MC 02RD 02RO	1	0	0.782707929611	487.0	135.0	490	139	1
2.7	2015_May_18_1545	s	s	13	1	SIC	155	ABS	0	1	02VD 02VO 02VC 02MD 02MO 02MC 02RD 10RO	0	1	4.8841779232	None	None	None	None	1
2.7	2015_May_18_1545	s	s	13	1	SIC	156	RC	0	2	02VD 02VO 02VC 02MD 02MO 02MC 09RD 02RO	1	0	1.58829593658	-385.0	356.0	-390	355	1
2.7	2015_May_18_1545	s	s	13	1	SIC	157	ABS	0	2	02VD 02VO 02VC 02MD 02MO 02MC 10RD 02RO	0	1	2.35960292816	None	None	None	None	1
2.7	2015_May_18_1545	s	s	13	1	SIC	158	ABS	1	2	02VD 02VO 02VC 10MD 02MO 02MC 02RD 02RO	0	1	2.5771651268	None	None	None	None	1
2.7	2015_May_18_1545	s	s	13	1	SIC	159	ABS	2	2	10VD 02VO 02VC 02MD 02MO 02MC 02RD 02RO	0	1	2.75107288361	None	None	None	None	1
2.7	2015_May_18_1545	s	s	13	1	SIC	160	RC	2	0	02VD 02VO 09VC 02MD 02MO 02MC 02RD 02RO	1	0	0.82336306572	105.0	48.0	98	53	1
2.7	2015_May_18_1545	s	s	13	1	SIC	161	ABS	2	1	02VD 10VO 02VC 02MD 02MO 02MC 02RD 02RO	0	1	2.75115919113	None	None	None	None	1
2.7	2015_May_18_1545	s	s	13	1	SIC	162	RC	0	2	02VD 02VO 02VC 02MD 02MO 02MC 09RD 02RO	1	0	1.18830800056	26.0	371.0	30	373	1
2.7	2015_May_18_1545	s	s	13	1	SIC	163	RC	2	1	02VD 09VO 02VC 02MD 02MO 02MC 02RD 02RO	1	0	1.01844000816	372.0	-337.0	373	-335	1
2.7	2015_May_18_1545	s	s	13	1	SIC	164	ABS	0	1	02VD 02VO 02VC 02MD 02MO 02MC 02RD 10RO	0	1	3.07969284058	None	None	None	None	1
2.7	2015_May_18_1545	s	s	13	1	SIC	165	ABS	1	0	02VD 02VO 02VC 02MD 02MO 10MC 02RD 02RO	0	1	2.87968707085	None	None	None	None	1
2.7	2015_May_18_1545	s	s	13	1	SIC	166	ABS	2	0	02VD 02VO 10VC 02MD 02MO 02MC 02RD 02RO	0	1	1.529556036	None	None	None	None	1
2.7	2015_May_18_1545	s	s	13	1	SIC	167	RC	1	0	02VD 02VO 02VC 02MD 02MO 09MC 02RD 02RO	1	0	1.32522010803	153.0	-289.0	152	-293	1
2.7	2015_May_18_1545	s	s	13	1	SIC	168	RC	2	2	09VD 02VO 02VC 02MD 02MO 02MC 02RD 02RO	0	1	2.37708902359	-267.0	-253.0	None	None	0
2.7	2015_May_18_1545	s	s	13	1	SIC	169	ABS	1	1	02VD 02VO 02VC 02MD 10MO 02MC 02RD 02RO	0	1	2.70662093163	None	None	None	None	1
2.7	2015_May_18_1545	s	s	13	1	SIC	170	ABS	2	2	10VD 02VO 02VC 02MD 02MO 02MC 02RD 02RO	0	1	1.87753391266	None	None	None	None	1
2.7	2015_May_18_1545	s	s	13	1	SIC	171	RC	0	1	02VD 02VO 02VC 02MD 02MO 02MC 02RD 09RO	1	0	1.12935709953	37.0	-114.0	37	-111	1
2.7	2015_May_18_1545	s	s	13	1	SIC	172	RC	2	0	02VD 02VO 09VC 02MD 02MO 02MC 02RD 02RO	1	0	1.51303601265	516.0	125.0	520	118	1
2.7	2015_May_18_1545	s	s	13	1	SIC	173	ABS	1	2	02VD 02VO 02VC 10MD 02MO 02MC 02RD 02RO	0	1	2.75004482269	None	None	None	None	1
2.7	2015_May_18_1545	s	s	13	1	SIC	174	ABS	0	2	02VD 02VO 02VC 02MD 02MO 02MC 10RD 02RO	0	1	1.58494091034	None	None	None	None	1
2.7	2015_May_18_1545	s	s	13	1	SIC	175	RC	1	1	02VD 02VO 02VC 02MD 09MO 02MC 02RD 02RO	1	0	2.26769995689	-86.0	0.0	-94	-1	1
2.7	2015_May_18_1545	s	s	13	1	SIC	176	RC	1	2	02VD 02VO 02VC 09MD 02MO 02MC 02RD 02RO	1	0	0.6548371315	417.0	124.0	412	119	1
2.7	2015_May_18_1545	s	s	13	1	SIC	177	RC	1	2	02VD 02VO 02VC 09MD 02MO 02MC 02RD 02RO	1	0	2.71878504753	73.0	-310.0	74	-308	1
2.7	2015_May_18_1545	s	s	13	1	SIC	178	RC	0	1	02VD 02VO 02VC 02MD 02MO 02MC 02RD 09RO	1	0	3.98426485062	504.0	-252.0	504	-256	1
2.7	2015_May_18_1545	s	s	13	1	SIC	179	ABS	1	2	02VD 02VO 02VC 10MD 02MO 02MC 02RD 02RO	0	1	2.22402000427	None	None	None	None	1
2.7	2015_May_18_1545	s	s	13	1	SIC	180	RC	2	2	09VD 02VO 02VC 02MD 02MO 02MC 02RD 02RO	1	0	0.693895101547	304.0	113.0	298	110	1
2.7	2015_May_18_1545	s	s	13	1	SIC	181	ABS	0	1	02VD 02VO 02VC 02MD 02MO 02MC 02RD 10RO	0	1	3.66894698143	None	None	None	None	1
2.7	2015_May_18_1545	s	s	13	1	SIC	182	ABS	0	2	02VD 02VO 02VC 02MD 02MO 02MC 10RD 02RO	0	1	2.5360929966	None	None	None	None	1
2.7	2015_May_18_1545	s	s	13	1	SIC	183	ABS	2	0	02VD 02VO 10VC 02MD 02MO 02MC 02RD 02RO	0	1	1.54124283791	None	None	None	None	1
2.7	2015_May_18_1545	s	s	13	1	SIC	184	ABS	1	1	02VD 02VO 02VC 02MD 10MO 02MC 02RD 02RO	0	1	2.71539998055	None	None	None	None	1
2.7	2015_May_18_1545	s	s	13	1	SIC	185	ABS	1	0	02VD 02VO 02VC 02MD 02MO 10MC 02RD 02RO	0	1	3.01324701309	None	None	None	None	1
2.7	2015_May_18_1545	s	s	13	1	SIC	186	RC	2	0	02VD 02VO 09VC 02MD 02MO 02MC 02RD 02RO	1	0	1.10288691521	368.0	401.0	375	407	1
2.7	2015_May_18_1545	s	s	13	1	SIC	187	ABS	2	2	10VD 02VO 02VC 02MD 02MO 02MC 02RD 02RO	0	1	1.91796183586	None	None	None	None	1
2.7	2015_May_18_1545	s	s	13	1	SIC	188	RC	2	1	02VD 09VO 02VC 02MD 02MO 02MC 02RD 02RO	1	0	2.31814885139	-498.0	-368.0	-492	-367	1
2.7	2015_May_18_1545	s	s	13	1	SIC	189	RC	0	2	02VD 02VO 02VC 02MD 02MO 02MC 09RD 02RO	1	0	2.4070379734	472.0	-101.0	481	-98	1
2.7	2015_May_18_1545	s	s	13	1	SIC	190	RC	1	1	02VD 02VO 02VC 02MD 09MO 02MC 02RD 02RO	1	0	8.79191803932	-111.0	-229.0	-105	-235	1
2.7	2015_May_18_1545	s	s	13	1	SIC	191	ABS	2	1	02VD 10VO 02VC 02MD 02MO 02MC 02RD 02RO	0	1	4.68411898613	None	None	None	None	1
2.7	2015_May_18_1545	s	s	13	1	SIC	192	RC	1	0	02VD 02VO 02VC 02MD 02MO 09MC 02RD 02RO	1	0	4.52288794518	450.0	-306.0	456	-307	1
2.7	2015_May_18_1545	s	s	13	1	SIC	193	ABS	0	2	02VD 02VO 02VC 02MD 02MO 02MC 10RD 02RO	0	1	2.44774484634	None	None	None	None	1
2.7	2015_May_18_1545	s	s	13	1	SIC	194	RC	1	2	02VD 02VO 02VC 09MD 02MO 02MC 02RD 02RO	1	0	1.67905807495	100.0	-401.0	105	-403	1
2.7	2015_May_18_1545	s	s	13	1	SIC	195	ABS	2	0	02VD 02VO 10VC 02MD 02MO 02MC 02RD 02RO	0	1	5.05809497833	None	None	None	None	1
2.7	2015_May_18_1545	s	s	13	1	SIC	196	RC	1	1	02VD 02VO 02VC 02MD 09MO 02MC 02RD 02RO	1	0	1.56211900711	-15.0	-211.0	-17	-206	1
2.7	2015_May_18_1545	s	s	13	1	SIC	197	ABS	2	2	10VD 02VO 02VC 02MD 02MO 02MC 02RD 02RO	0	1	2.29474902153	None	None	None	None	1
2.7	2015_May_18_1545	s	s	13	1	SIC	198	RC	0	1	02VD 02VO 02VC 02MD 02MO 02MC 02RD 09RO	1	0	1.99758911133	-161.0	-131.0	-158	-136	1
2.7	2015_May_18_1545	s	s	13	1	SIC	199	ABS	1	0	02VD 02VO 02VC 02MD 02MO 10MC 02RD 02RO	0	1	3.14694190025	None	None	None	None	1
2.7	2015_May_18_1545	s	s	13	1	SIC	200	RC	2	2	09VD 02VO 02VC 02MD 02MO 02MC 02RD 02RO	1	0	1.17373514175	507.0	254.0	507	253	1
2.7	2015_May_18_1545	s	s	13	1	SIC	201	RC	2	0	02VD 02VO 09VC 02MD 02MO 02MC 02RD 02RO	1	0	2.52412295341	-414.0	259.0	-414	261	1
2.7	2015_May_18_1545	s	s	13	1	SIC	202	RC	2	1	02VD 09VO 02VC 02MD 02MO 02MC 02RD 02RO	1	0	4.45474290848	403.0	-411.0	403	-417	1
2.7	2015_May_18_1545	s	s	13	1	SIC	203	ABS	1	2	02VD 02VO 02VC 10MD 02MO 02MC 02RD 02RO	0	1	4.80781078339	None	None	None	None	1
2.7	2015_May_18_1545	s	s	13	1	SIC	204	ABS	1	1	02VD 02VO 02VC 02MD 10MO 02MC 02RD 02RO	0	1	3.02430605888	None	None	None	None	1
2.7	2015_May_18_1545	s	s	13	1	SIC	205	ABS	0	1	02VD 02VO 02VC 02MD 02MO 02MC 02RD 10RO	0	1	2.64780211449	None	None	None	None	1
2.7	2015_May_18_1545	s	s	13	1	SIC	206	ABS	2	1	02VD 10VO 02VC 02MD 02MO 02MC 02RD 02RO	0	1	2.03566598892	None	None	None	None	1
2.7	2015_May_18_1545	s	s	13	1	SIC	207	RC	0	2	02VD 02VO 02VC 02MD 02MO 02MC 09RD 02RO	1	0	1.04697394371	514.0	-127.0	509	-133	1
2.7	2015_May_18_1545	s	s	13	1	SIC	208	RC	1	0	02VD 02VO 02VC 02MD 02MO 09MC 02RD 02RO	0	1	2.66681909561	-483.0	223.0	None	None	0
2.7	2015_May_18_1545	s	s	13	1	SIC	209	RC	2	2	09VD 02VO 02VC 02MD 02MO 02MC 02RD 02RO	1	0	2.47807192802	462.0	91.0	465	88	1
2.7	2015_May_18_1545	s	s	13	1	SIC	210	RC	2	0	02VD 02VO 09VC 02MD 02MO 02MC 02RD 02RO	1	0	1.62034916878	-23.0	-192.0	-15	-189	1
2.7	2015_May_18_1545	s	s	13	1	SIC	211	RC	0	1	02VD 02VO 02VC 02MD 02MO 02MC 02RD 09RO	1	0	2.04736304283	-144.0	-17.0	-143	-15	1
2.7	2015_May_18_1545	s	s	13	1	SIC	212	RC	1	2	02VD 02VO 02VC 09MD 02MO 02MC 02RD 02RO	1	0	0.658478975296	309.0	35.0	309	36	1
2.7	2015_May_18_1545	s	s	13	1	SIC	213	ABS	2	2	10VD 02VO 02VC 02MD 02MO 02MC 02RD 02RO	0	1	3.66007304192	None	None	None	None	1
2.7	2015_May_18_1545	s	s	13	1	SIC	214	ABS	2	1	02VD 10VO 02VC 02MD 02MO 02MC 02RD 02RO	0	1	4.75474309921	None	None	None	None	1
2.7	2015_May_18_1545	s	s	13	1	SIC	215	RC	2	1	02VD 09VO 02VC 02MD 02MO 02MC 02RD 02RO	1	0	2.29455590248	-353.0	44.0	-350	50	1
2.7	2015_May_18_1545	s	s	13	1	SIC	216	ABS	1	2	02VD 02VO 02VC 10MD 02MO 02MC 02RD 02RO	0	1	2.82406902313	None	None	None	None	1
2.7	2015_May_18_1545	s	s	13	1	SIC	217	RC	1	1	02VD 02VO 02VC 02MD 09MO 02MC 02RD 02RO	1	0	1.0672390461	30.0	183.0	31	186	1
2.7	2015_May_18_1545	s	s	13	1	SIC	218	ABS	1	0	02VD 02VO 02VC 02MD 02MO 10MC 02RD 02RO	0	1	4.46033096313	None	None	None	None	1
2.7	2015_May_18_1545	s	s	13	1	SIC	219	RC	0	2	02VD 02VO 02VC 02MD 02MO 02MC 09RD 02RO	1	0	2.43243789673	-126.0	-281.0	-125	-282	1
2.7	2015_May_18_1545	s	s	13	1	SIC	220	ABS	0	2	02VD 02VO 02VC 02MD 02MO 02MC 10RD 02RO	0	1	2.40056991577	None	None	None	None	1
2.7	2015_May_18_1545	s	s	13	1	SIC	221	RC	1	0	02VD 02VO 02VC 02MD 02MO 09MC 02RD 02RO	1	0	1.10627198219	100.0	-120.0	105	-114	1
2.7	2015_May_18_1545	s	s	13	1	SIC	222	ABS	2	0	02VD 02VO 10VC 02MD 02MO 02MC 02RD 02RO	0	1	2.95109319687	None	None	None	None	1
2.7	2015_May_18_1545	s	s	13	1	SIC	223	ABS	1	1	02VD 02VO 02VC 02MD 10MO 02MC 02RD 02RO	0	1	2.08279204369	None	None	None	None	1
2.7	2015_May_18_1545	s	s	13	1	SIC	224	ABS	0	1	02VD 02VO 02VC 02MD 02MO 02MC 02RD 10RO	0	1	3.27825307846	None	None	None	None	1
2.7	2015_May_18_1545	s	s	13	1	SIC	225	RC	1	1	02VD 02VO 02VC 02MD 09MO 02MC 02RD 02RO	1	0	1.52954983711	319.0	-379.0	321	-385	1
2.7	2015_May_18_1545	s	s	13	1	SIC	226	RC	0	1	02VD 02VO 02VC 02MD 02MO 02MC 02RD 09RO	1	0	1.5860118866	456.0	-397.0	461	-400	1
2.7	2015_May_18_1545	s	s	13	1	SIC	227	ABS	0	2	02VD 02VO 02VC 02MD 02MO 02MC 10RD 02RO	0	1	2.76568317413	None	None	None	None	1
2.7	2015_May_18_1545	s	s	13	1	SIC	228	ABS	2	1	02VD 10VO 02VC 02MD 02MO 02MC 02RD 02RO	0	1	2.40769290924	None	None	None	None	1
2.7	2015_May_18_1545	s	s	13	1	SIC	229	RC	2	0	02VD 02VO 09VC 02MD 02MO 02MC 02RD 02RO	1	0	3.95482993126	-261.0	-315.0	-259	-314	1
2.7	2015_May_18_1545	s	s	13	1	SIC	230	RC	1	2	02VD 02VO 02VC 09MD 02MO 02MC 02RD 02RO	1	0	0.875789880753	-181.0	404.0	-178	405	1
2.7	2015_May_18_1545	s	s	13	1	SIC	231	ABS	2	2	10VD 02VO 02VC 02MD 02MO 02MC 02RD 02RO	0	1	2.54187321663	None	None	None	None	1
2.7	2015_May_18_1545	s	s	13	1	SIC	232	ABS	0	1	02VD 02VO 02VC 02MD 02MO 02MC 02RD 10RO	0	1	4.77532291412	None	None	None	None	1
2.7	2015_May_18_1545	s	s	13	1	SIC	233	RC	1	0	02VD 02VO 02VC 02MD 02MO 09MC 02RD 02RO	1	0	4.3039419651	-392.0	337.0	-395	336	1
2.7	2015_May_18_1545	s	s	13	1	SIC	234	RC	0	2	02VD 02VO 02VC 02MD 02MO 02MC 09RD 02RO	1	0	0.952814102173	346.0	389.0	347	387	1
2.7	2015_May_18_1545	s	s	13	1	SIC	235	ABS	1	2	02VD 02VO 02VC 10MD 02MO 02MC 02RD 02RO	0	1	2.1335849762	None	None	None	None	1
2.7	2015_May_18_1545	s	s	13	1	SIC	236	ABS	2	0	02VD 02VO 10VC 02MD 02MO 02MC 02RD 02RO	0	1	2.51561999321	None	None	None	None	1
2.7	2015_May_18_1545	s	s	13	1	SIC	237	ABS	1	0	02VD 02VO 02VC 02MD 02MO 10MC 02RD 02RO	0	1	3.82472014427	None	None	None	None	1
2.7	2015_May_18_1545	s	s	13	1	SIC	238	RC	2	1	02VD 09VO 02VC 02MD 02MO 02MC 02RD 02RO	1	0	2.706594944	394.0	-190.0	396	-189	1
2.7	2015_May_18_1545	s	s	13	1	SIC	239	RC	2	2	09VD 02VO 02VC 02MD 02MO 02MC 02RD 02RO	1	0	1.86593103409	-421.0	-236.0	-418	-238	1
2.7	2015_May_18_1545	s	s	13	1	SIC	240	ABS	1	1	02VD 02VO 02VC 02MD 10MO 02MC 02RD 02RO	0	1	2.72478795052	None	None	None	None	1
2.7	2015_May_18_1545	s	s	13	1	SIC	241	ABS	2	0	02VD 02VO 10VC 02MD 02MO 02MC 02RD 02RO	0	1	3.06647014618	None	None	None	None	1
2.7	2015_May_18_1545	s	s	13	1	SIC	242	RC	0	1	02VD 02VO 02VC 02MD 02MO 02MC 02RD 09RO	1	0	2.82065606117	527.0	59.0	530	57	1
2.7	2015_May_18_1545	s	s	13	1	SIC	243	RC	0	2	02VD 02VO 02VC 02MD 02MO 02MC 09RD 02RO	1	0	1.79548096657	-193.0	273.0	-196	269	1
2.7	2015_May_18_1545	s	s	13	1	SIC	244	ABS	2	1	02VD 10VO 02VC 02MD 02MO 02MC 02RD 02RO	0	1	2.64772510529	None	None	None	None	1
2.7	2015_May_18_1545	s	s	13	1	SIC	245	ABS	1	0	02VD 02VO 02VC 02MD 02MO 10MC 02RD 02RO	0	1	2.208796978	None	None	None	None	1
2.7	2015_May_18_1545	s	s	13	1	SIC	246	RC	1	0	02VD 02VO 02VC 02MD 02MO 09MC 02RD 02RO	1	0	1.0704870224	202.0	-131.0	206	-130	1
2.7	2015_May_18_1545	s	s	13	1	SIC	247	ABS	0	2	02VD 02VO 02VC 02MD 02MO 02MC 10RD 02RO	0	1	1.52706408501	None	None	None	None	1
2.7	2015_May_18_1545	s	s	13	1	SIC	248	RC	1	1	02VD 02VO 02VC 02MD 09MO 02MC 02RD 02RO	1	0	2.05638599396	124.0	-287.0	113	-283	1
2.7	2015_May_18_1545	s	s	13	1	SIC	249	ABS	1	1	02VD 02VO 02VC 02MD 10MO 02MC 02RD 02RO	0	1	2.4543530941	None	None	None	None	1
2.7	2015_May_18_1545	s	s	13	1	SIC	250	RC	2	1	02VD 09VO 02VC 02MD 02MO 02MC 02RD 02RO	1	0	0.846915960312	265.0	20.0	263	10	1
2.7	2015_May_18_1545	s	s	13	1	SIC	251	RC	2	0	02VD 02VO 09VC 02MD 02MO 02MC 02RD 02RO	1	0	1.29418587685	-336.0	227.0	-329	225	1
2.7	2015_May_18_1545	s	s	13	1	SIC	252	ABS	0	1	02VD 02VO 02VC 02MD 02MO 02MC 02RD 10RO	0	1	3.18924689293	None	None	None	None	1
2.7	2015_May_18_1545	s	s	13	1	SIC	253	RC	1	2	02VD 02VO 02VC 09MD 02MO 02MC 02RD 02RO	1	0	0.870542049408	439.0	152.0	441	153	1
2.7	2015_May_18_1545	s	s	13	1	SIC	254	ABS	1	2	02VD 02VO 02VC 10MD 02MO 02MC 02RD 02RO	0	1	2.35343909264	None	None	None	None	1
2.7	2015_May_18_1545	s	s	13	1	SIC	255	RC	2	2	09VD 02VO 02VC 02MD 02MO 02MC 02RD 02RO	1	0	3.40108990669	485.0	-261.0	486	-264	1
2.7	2015_May_18_1545	s	s	13	1	SIC	256	ABS	2	2	10VD 02VO 02VC 02MD 02MO 02MC 02RD 02RO	0	1	2.7739238739	None	None	None	None	1
2.7	2015_May_18_1545	s	s	13	1	SIC	257	RC	0	2	02VD 02VO 02VC 02MD 02MO 02MC 09RD 02RO	1	0	0.691317081451	387.0	-7.0	386	-10	1
2.7	2015_May_18_1545	s	s	13	1	SIC	258	ABS	0	2	02VD 02VO 02VC 02MD 02MO 02MC 10RD 02RO	0	1	2.70158195496	None	None	None	None	1
2.7	2015_May_18_1545	s	s	13	1	SIC	259	ABS	0	1	02VD 02VO 02VC 02MD 02MO 02MC 02RD 10RO	0	1	3.62832403183	None	None	None	None	1
2.7	2015_May_18_1545	s	s	13	1	SIC	260	ABS	2	1	02VD 10VO 02VC 02MD 02MO 02MC 02RD 02RO	0	1	3.00924181938	None	None	None	None	1
2.7	2015_May_18_1545	s	s	13	1	SIC	261	ABS	2	0	02VD 02VO 10VC 02MD 02MO 02MC 02RD 02RO	0	1	1.97191882133	None	None	None	None	1
2.7	2015_May_18_1545	s	s	13	1	SIC	262	RC	1	2	02VD 02VO 02VC 09MD 02MO 02MC 02RD 02RO	1	0	2.03567194939	-527.0	203.0	-523	201	1
2.7	2015_May_18_1545	s	s	13	1	SIC	263	ABS	1	1	02VD 02VO 02VC 02MD 10MO 02MC 02RD 02RO	0	1	2.49001193047	None	None	None	None	1
2.7	2015_May_18_1545	s	s	13	1	SIC	264	RC	2	2	09VD 02VO 02VC 02MD 02MO 02MC 02RD 02RO	1	0	1.50010681152	-525.0	320.0	-525	320	1
2.7	2015_May_18_1545	s	s	13	1	SIC	265	RC	0	1	02VD 02VO 02VC 02MD 02MO 02MC 02RD 09RO	1	0	2.04152011871	-431.0	109.0	-430	113	1
2.7	2015_May_18_1545	s	s	13	1	SIC	266	RC	2	0	02VD 02VO 09VC 02MD 02MO 02MC 02RD 02RO	1	0	1.52683877945	189.0	-230.0	188	-233	1
2.7	2015_May_18_1545	s	s	13	1	SIC	267	RC	1	0	02VD 02VO 02VC 02MD 02MO 09MC 02RD 02RO	1	0	1.03510713577	-24.0	-145.0	-33	-142	1
2.7	2015_May_18_1545	s	s	13	1	SIC	268	RC	2	1	02VD 09VO 02VC 02MD 02MO 02MC 02RD 02RO	1	0	0.914442062378	114.0	330.0	121	333	1
2.7	2015_May_18_1545	s	s	13	1	SIC	269	RC	1	1	02VD 02VO 02VC 02MD 09MO 02MC 02RD 02RO	1	0	0.905722141266	228.0	324.0	227	327	1
2.7	2015_May_18_1545	s	s	13	1	SIC	270	ABS	1	2	02VD 02VO 02VC 10MD 02MO 02MC 02RD 02RO	1	0	2.20081806183	None	None	346	-273	0
2.7	2015_May_18_1545	s	s	13	1	SIC	271	ABS	1	0	02VD 02VO 02VC 02MD 02MO 10MC 02RD 02RO	0	1	2.84791207314	None	None	None	None	1
2.7	2015_May_18_1545	s	s	13	1	SIC	272	ABS	2	2	10VD 02VO 02VC 02MD 02MO 02MC 02RD 02RO	0	1	2.08282589912	None	None	None	None	1
2.7	2015_May_18_1545	s	s	13	1	SIC	273	RC	1	2	02VD 02VO 02VC 09MD 02MO 02MC 02RD 02RO	1	0	1.1411421299	-150.0	60.0	-145	56	1
2.7	2015_May_18_1545	s	s	13	1	SIC	274	ABS	1	1	02VD 02VO 02VC 02MD 10MO 02MC 02RD 02RO	0	1	2.90655517578	None	None	None	None	1
2.7	2015_May_18_1545	s	s	13	1	SIC	275	ABS	0	1	02VD 02VO 02VC 02MD 02MO 02MC 02RD 10RO	0	1	3.24349999428	None	None	None	None	1
2.7	2015_May_18_1545	s	s	13	1	SIC	276	ABS	2	1	02VD 10VO 02VC 02MD 02MO 02MC 02RD 02RO	0	1	3.02805805206	None	None	None	None	1
2.7	2015_May_18_1545	s	s	13	1	SIC	277	RC	0	2	02VD 02VO 02VC 02MD 02MO 02MC 09RD 02RO	1	0	1.94155716896	20.0	353.0	14	362	1
2.7	2015_May_18_1545	s	s	13	1	SIC	278	RC	0	1	02VD 02VO 02VC 02MD 02MO 02MC 02RD 09RO	1	0	3.08932805061	-501.0	-12.0	-501	-8	1
2.7	2015_May_18_1545	s	s	13	1	SIC	279	RC	2	1	02VD 09VO 02VC 02MD 02MO 02MC 02RD 02RO	1	0	1.07935500145	419.0	45.0	424	42	1
2.7	2015_May_18_1545	s	s	13	1	SIC	280	ABS	2	2	10VD 02VO 02VC 02MD 02MO 02MC 02RD 02RO	0	1	2.2239279747	None	None	None	None	1
2.7	2015_May_18_1545	s	s	13	1	SIC	281	ABS	2	0	02VD 02VO 10VC 02MD 02MO 02MC 02RD 02RO	0	1	2.69484519958	None	None	None	None	1
2.7	2015_May_18_1545	s	s	13	1	SIC	282	RC	2	0	02VD 02VO 09VC 02MD 02MO 02MC 02RD 02RO	1	0	2.50652813911	-467.0	167.0	-466	164	1
2.7	2015_May_18_1545	s	s	13	1	SIC	283	ABS	1	2	02VD 02VO 02VC 10MD 02MO 02MC 02RD 02RO	0	1	2.85583901405	None	None	None	None	1
2.7	2015_May_18_1545	s	s	13	1	SIC	284	ABS	1	0	02VD 02VO 02VC 02MD 02MO 10MC 02RD 02RO	0	1	4.42008304596	None	None	None	None	1
2.7	2015_May_18_1545	s	s	13	1	SIC	285	RC	1	1	02VD 02VO 02VC 02MD 09MO 02MC 02RD 02RO	1	0	2.91851496696	-240.0	359.0	-241	364	1
2.7	2015_May_18_1545	s	s	13	1	SIC	286	RC	2	2	09VD 02VO 02VC 02MD 02MO 02MC 02RD 02RO	1	0	0.705636024475	90.0	207.0	87	204	1
2.7	2015_May_18_1545	s	s	13	1	SIC	287	ABS	0	2	02VD 02VO 02VC 02MD 02MO 02MC 10RD 02RO	0	1	2.64780282974	None	None	None	None	1
2.7	2015_May_18_1545	s	s	13	1	SIC	288	RC	1	0	02VD 02VO 02VC 02MD 02MO 09MC 02RD 02RO	1	0	1.59626984596	396.0	-203.0	405	-203	1
2.7	2015_May_18_1545	s	s	13	1	SIC	289	RC	0	2	02VD 02VO 02VC 02MD 02MO 02MC 09RD 02RO	1	0	3.1693520546	194.0	401.0	194	397	1
2.7	2015_May_18_1545	s	s	13	1	SIC	290	RC	1	2	02VD 02VO 02VC 09MD 02MO 02MC 02RD 02RO	1	0	1.76497077942	-190.0	-195.0	-188	-203	1
2.7	2015_May_18_1545	s	s	13	1	SIC	291	ABS	0	2	02VD 02VO 02VC 02MD 02MO 02MC 10RD 02RO	1	0	2.28327012062	None	None	32	-57	0
2.7	2015_May_18_1545	s	s	13	1	SIC	292	ABS	1	2	02VD 02VO 02VC 10MD 02MO 02MC 02RD 02RO	0	1	2.34170007706	None	None	None	None	1
2.7	2015_May_18_1545	s	s	13	1	SIC	293	RC	2	0	02VD 02VO 09VC 02MD 02MO 02MC 02RD 02RO	1	0	1.24379587173	249.0	-5.0	250	-4	1
2.7	2015_May_18_1545	s	s	13	1	SIC	294	ABS	2	2	10VD 02VO 02VC 02MD 02MO 02MC 02RD 02RO	0	1	1.84729909897	None	None	None	None	1
2.7	2015_May_18_1545	s	s	13	1	SIC	295	RC	2	1	02VD 09VO 02VC 02MD 02MO 02MC 02RD 02RO	1	0	1.41879892349	380.0	-62.0	378	-61	1
2.7	2015_May_18_1545	s	s	13	1	SIC	296	ABS	0	1	02VD 02VO 02VC 02MD 02MO 02MC 02RD 10RO	0	1	3.57431697845	None	None	None	None	1
2.7	2015_May_18_1545	s	s	13	1	SIC	297	ABS	2	1	02VD 10VO 02VC 02MD 02MO 02MC 02RD 02RO	0	1	3.06692790985	None	None	None	None	1
2.7	2015_May_18_1545	s	s	13	1	SIC	298	RC	0	1	02VD 02VO 02VC 02MD 02MO 02MC 02RD 09RO	1	0	3.36291408539	-155.0	-362.0	-154	-366	1
2.7	2015_May_18_1545	s	s	13	1	SIC	299	RC	1	0	02VD 02VO 02VC 02MD 02MO 09MC 02RD 02RO	1	0	1.95053601265	-273.0	-296.0	-276	-297	1
2.7	2015_May_18_1545	s	s	13	1	SIC	300	RC	1	1	02VD 02VO 02VC 02MD 09MO 02MC 02RD 02RO	1	0	4.08378100395	485.0	-405.0	478	-397	1
2.7	2015_May_18_1545	s	s	13	1	SIC	301	ABS	1	1	02VD 02VO 02VC 02MD 10MO 02MC 02RD 02RO	0	1	3.25501418114	None	None	None	None	1
2.7	2015_May_18_1545	s	s	13	1	SIC	302	ABS	1	0	02VD 02VO 02VC 02MD 02MO 10MC 02RD 02RO	0	1	3.77763485909	None	None	None	None	1
2.7	2015_May_18_1545	s	s	13	1	SIC	303	ABS	2	0	02VD 02VO 10VC 02MD 02MO 02MC 02RD 02RO	1	0	2.13675713539	None	None	14	-23	0
2.7	2015_May_18_1545	s	s	13	1	SIC	304	RC	2	2	09VD 02VO 02VC 02MD 02MO 02MC 02RD 02RO	1	0	2.59709715843	-333.0	-377.0	-329	-380	1
2.7	2015_May_18_1545	s	s	13	1	SIC	305	ABS	1	0	02VD 02VO 02VC 02MD 02MO 10MC 02RD 02RO	0	1	3.31917309761	None	None	None	None	1
2.7	2015_May_18_1545	s	s	13	1	SIC	306	ABS	0	1	02VD 02VO 02VC 02MD 02MO 02MC 02RD 10RO	0	1	2.78904485703	None	None	None	None	1
2.7	2015_May_18_1545	s	s	13	1	SIC	307	ABS	2	1	02VD 10VO 02VC 02MD 02MO 02MC 02RD 02RO	0	1	3.4571750164	None	None	None	None	1
2.7	2015_May_18_1545	s	s	13	1	SIC	308	ABS	2	2	10VD 02VO 02VC 02MD 02MO 02MC 02RD 02RO	0	1	2.16520404816	None	None	None	None	1
2.7	2015_May_18_1545	s	s	13	1	SIC	309	RC	1	1	02VD 02VO 02VC 02MD 09MO 02MC 02RD 02RO	1	0	2.45434188843	416.0	144.0	413	143	1
2.7	2015_May_18_1545	s	s	13	1	SIC	310	RC	2	1	02VD 09VO 02VC 02MD 02MO 02MC 02RD 02RO	1	0	0.87045788765	519.0	275.0	517	278	1
2.7	2015_May_18_1545	s	s	13	1	SIC	311	RC	2	2	09VD 02VO 02VC 02MD 02MO 02MC 02RD 02RO	1	0	3.87209701538	-524.0	-405.0	-520	-404	1
2.7	2015_May_18_1545	s	s	13	1	SIC	312	RC	2	0	02VD 02VO 09VC 02MD 02MO 02MC 02RD 02RO	1	0	0.818880081177	-40.0	22.0	-31	22	1
2.7	2015_May_18_1545	s	s	13	1	SIC	313	ABS	2	0	02VD 02VO 10VC 02MD 02MO 02MC 02RD 02RO	0	1	2.50653004646	None	None	None	None	1
2.7	2015_May_18_1545	s	s	13	1	SIC	314	RC	0	1	02VD 02VO 02VC 02MD 02MO 02MC 02RD 09RO	1	0	1.82422780991	423.0	164.0	422	165	1
2.7	2015_May_18_1545	s	s	13	1	SIC	315	RC	0	2	02VD 02VO 02VC 02MD 02MO 02MC 09RD 02RO	1	0	2.19485998154	-526.0	-66.0	-529	-70	1
2.7	2015_May_18_1545	s	s	13	1	SIC	316	ABS	1	1	02VD 02VO 02VC 02MD 10MO 02MC 02RD 02RO	0	1	2.38534593582	None	None	None	None	1
2.7	2015_May_18_1545	s	s	13	1	SIC	317	ABS	1	2	02VD 02VO 02VC 10MD 02MO 02MC 02RD 02RO	0	1	1.80021214485	None	None	None	None	1
2.7	2015_May_18_1545	s	s	13	1	SIC	318	ABS	0	2	02VD 02VO 02VC 02MD 02MO 02MC 10RD 02RO	0	1	2.17190790176	None	None	None	None	1
2.7	2015_May_18_1545	s	s	13	1	SIC	319	RC	1	0	02VD 02VO 02VC 02MD 02MO 09MC 02RD 02RO	1	0	1.90348601341	-365.0	307.0	-364	301	1
2.7	2015_May_18_1545	s	s	13	1	SIC	320	RC	1	2	02VD 02VO 02VC 09MD 02MO 02MC 02RD 02RO	1	0	2.16518187523	-405.0	-278.0	-411	-282	1
2.7	2015_May_18_1545	s	s	13	1	SIC	321	ABS	2	1	02VD 10VO 02VC 02MD 02MO 02MC 02RD 02RO	0	1	1.93340587616	None	None	None	None	1
2.7	2015_May_18_1545	s	s	13	1	SIC	322	ABS	1	0	02VD 02VO 02VC 02MD 02MO 10MC 02RD 02RO	0	1	2.6514878273	None	None	None	None	1
2.7	2015_May_18_1545	s	s	13	1	SIC	323	ABS	2	2	10VD 02VO 02VC 02MD 02MO 02MC 02RD 02RO	0	1	1.72454285622	None	None	None	None	1
2.7	2015_May_18_1545	s	s	13	1	SIC	324	ABS	1	2	02VD 02VO 02VC 10MD 02MO 02MC 02RD 02RO	0	1	1.51333498955	None	None	None	None	1
2.7	2015_May_18_1545	s	s	13	1	SIC	325	ABS	1	1	02VD 02VO 02VC 02MD 10MO 02MC 02RD 02RO	0	1	1.83549189568	None	None	None	None	1
2.7	2015_May_18_1545	s	s	13	1	SIC	326	RC	0	1	02VD 02VO 02VC 02MD 02MO 02MC 02RD 09RO	1	0	2.91513204575	-519.0	-178.0	-515	-175	1
2.7	2015_May_18_1545	s	s	13	1	SIC	327	RC	0	2	02VD 02VO 02VC 02MD 02MO 02MC 09RD 02RO	1	0	1.77413105965	34.0	-242.0	30	-245	1
2.7	2015_May_18_1545	s	s	13	1	SIC	328	RC	2	0	02VD 02VO 09VC 02MD 02MO 02MC 02RD 02RO	1	0	1.1764190197	-448.0	318.0	-446	319	1
2.7	2015_May_18_1545	s	s	13	1	SIC	329	RC	1	2	02VD 02VO 02VC 09MD 02MO 02MC 02RD 02RO	1	0	3.08019399643	483.0	354.0	487	348	1
2.7	2015_May_18_1545	s	s	13	1	SIC	330	ABS	0	2	02VD 02VO 02VC 02MD 02MO 02MC 10RD 02RO	0	1	2.6712667942	None	None	None	None	1
2.7	2015_May_18_1545	s	s	13	1	SIC	331	RC	1	1	02VD 02VO 02VC 02MD 09MO 02MC 02RD 02RO	1	0	2.65951895714	-404.0	-69.0	-403	-68	1
2.7	2015_May_18_1545	s	s	13	1	SIC	332	ABS	0	1	02VD 02VO 02VC 02MD 02MO 02MC 02RD 10RO	0	1	3.74238491058	None	None	None	None	1
2.7	2015_May_18_1545	s	s	13	1	SIC	333	ABS	2	0	02VD 02VO 10VC 02MD 02MO 02MC 02RD 02RO	0	1	2.14152979851	None	None	None	None	1
2.7	2015_May_18_1545	s	s	13	1	SIC	334	RC	2	2	09VD 02VO 02VC 02MD 02MO 02MC 02RD 02RO	1	0	0.888959169388	51.0	-176.0	54	-178	1
2.7	2015_May_18_1545	s	s	13	1	SIC	335	RC	1	0	02VD 02VO 02VC 02MD 02MO 09MC 02RD 02RO	1	0	2.18565297127	-277.0	-184.0	-277	-186	1
2.7	2015_May_18_1545	s	s	13	1	SIC	336	RC	2	1	02VD 09VO 02VC 02MD 02MO 02MC 02RD 02RO	1	0	0.634924173355	-282.0	158.0	-276	156	1
2.7	2015_May_18_1545	s	s	13	1	SIC	337	ABS	0	1	02VD 02VO 02VC 02MD 02MO 02MC 02RD 10RO	0	1	3.56327080727	None	None	None	None	1
2.7	2015_May_18_1545	s	s	13	1	SIC	338	ABS	2	0	02VD 02VO 10VC 02MD 02MO 02MC 02RD 02RO	0	1	2.63589310646	None	None	None	None	1
2.7	2015_May_18_1545	s	s	13	1	SIC	339	ABS	2	1	02VD 10VO 02VC 02MD 02MO 02MC 02RD 02RO	0	1	2.97194194794	None	None	None	None	1
2.7	2015_May_18_1545	s	s	13	1	SIC	340	ABS	1	1	02VD 02VO 02VC 02MD 10MO 02MC 02RD 02RO	0	1	2.57195806503	None	None	None	None	1
2.7	2015_May_18_1545	s	s	13	1	SIC	341	ABS	1	0	02VD 02VO 02VC 02MD 02MO 10MC 02RD 02RO	0	1	2.62156701088	None	None	None	None	1
2.7	2015_May_18_1545	s	s	13	1	SIC	342	RC	2	2	09VD 02VO 02VC 02MD 02MO 02MC 02RD 02RO	1	0	1.44725012779	-287.0	-396.0	-286	-399	1
2.7	2015_May_18_1545	s	s	13	1	SIC	343	RC	1	2	02VD 02VO 02VC 09MD 02MO 02MC 02RD 02RO	1	0	1.32942008972	-50.0	-355.0	-49	-360	1
2.7	2015_May_18_1545	s	s	13	1	SIC	344	RC	2	1	02VD 09VO 02VC 02MD 02MO 02MC 02RD 02RO	0	1	2.32280492783	-152.0	270.0	None	None	0
2.7	2015_May_18_1545	s	s	13	1	SIC	345	RC	2	0	02VD 02VO 09VC 02MD 02MO 02MC 02RD 02RO	1	0	1.55303502083	279.0	118.0	275	113	1
2.7	2015_May_18_1545	s	s	13	1	SIC	346	ABS	2	2	10VD 02VO 02VC 02MD 02MO 02MC 02RD 02RO	0	1	2.03566098213	None	None	None	None	1
2.7	2015_May_18_1545	s	s	13	1	SIC	347	ABS	1	2	02VD 02VO 02VC 10MD 02MO 02MC 02RD 02RO	0	1	1.88968396187	None	None	None	None	1
2.7	2015_May_18_1545	s	s	13	1	SIC	348	RC	0	2	02VD 02VO 02VC 02MD 02MO 02MC 09RD 02RO	1	0	1.12939190865	-294.0	158.0	-293	165	1
2.7	2015_May_18_1545	s	s	13	1	SIC	349	RC	0	1	02VD 02VO 02VC 02MD 02MO 02MC 02RD 09RO	1	0	1.42351508141	-277.0	-320.0	-279	-321	1
2.7	2015_May_18_1545	s	s	13	1	SIC	350	RC	1	1	02VD 02VO 02VC 02MD 09MO 02MC 02RD 02RO	1	0	7.73916006088	132.0	381.0	129	382	1
2.7	2015_May_18_1545	s	s	13	1	SIC	351	RC	1	0	02VD 02VO 02VC 02MD 02MO 09MC 02RD 02RO	1	0	1.85907721519	-369.0	241.0	-362	246	1
2.7	2015_May_18_1545	s	s	13	1	SIC	352	ABS	0	2	02VD 02VO 02VC 02MD 02MO 02MC 10RD 02RO	0	1	2.6829688549	None	None	None	None	1
2.7	2015_May_18_1545	s	s	13	1	SIC	353	ABS	2	0	02VD 02VO 10VC 02MD 02MO 02MC 02RD 02RO	0	1	2.06609296799	None	None	None	None	1
2.7	2015_May_18_1545	s	s	13	1	SIC	354	RC	1	0	02VD 02VO 02VC 02MD 02MO 09MC 02RD 02RO	1	0	0.747555017471	234.0	-6.0	241	-10	1
2.7	2015_May_18_1545	s	s	13	1	SIC	355	ABS	0	1	02VD 02VO 02VC 02MD 02MO 02MC 02RD 10RO	0	1	4.04515504837	None	None	None	None	1
2.7	2015_May_18_1545	s	s	13	1	SIC	356	ABS	2	1	02VD 10VO 02VC 02MD 02MO 02MC 02RD 02RO	0	1	2.34840011597	None	None	None	None	1
2.7	2015_May_18_1545	s	s	13	1	SIC	357	ABS	0	2	02VD 02VO 02VC 02MD 02MO 02MC 10RD 02RO	0	1	2.05914616585	None	None	None	None	1
2.7	2015_May_18_1545	s	s	13	1	SIC	358	RC	0	2	02VD 02VO 02VC 02MD 02MO 02MC 09RD 02RO	1	0	1.38435602188	-280.0	93.0	-273	95	1
2.7	2015_May_18_1545	s	s	13	1	SIC	359	RC	2	1	02VD 09VO 02VC 02MD 02MO 02MC 02RD 02RO	1	0	1.02862119675	24.0	111.0	27	104	1
2.7	2015_May_18_1545	s	s	13	1	SIC	360	ABS	1	2	02VD 02VO 02VC 10MD 02MO 02MC 02RD 02RO	0	1	2.08971595764	None	None	None	None	1
2.7	2015_May_18_1545	s	s	13	1	SIC	361	RC	2	0	02VD 02VO 09VC 02MD 02MO 02MC 02RD 02RO	1	0	1.2083067894	-279.0	237.0	-286	235	1
2.7	2015_May_18_1545	s	s	13	1	SIC	362	ABS	1	1	02VD 02VO 02VC 02MD 10MO 02MC 02RD 02RO	0	1	2.82426691055	None	None	None	None	1
2.7	2015_May_18_1545	s	s	13	1	SIC	363	ABS	1	0	02VD 02VO 02VC 02MD 02MO 10MC 02RD 02RO	0	1	2.40721321106	None	None	None	None	1
2.7	2015_May_18_1545	s	s	13	1	SIC	364	ABS	2	2	10VD 02VO 02VC 02MD 02MO 02MC 02RD 02RO	0	1	1.88263297081	None	None	None	None	1
2.7	2015_May_18_1545	s	s	13	1	SIC	365	RC	0	1	02VD 02VO 02VC 02MD 02MO 02MC 02RD 09RO	1	0	1.58568501472	-9.0	-309.0	-4	-310	1
2.7	2015_May_18_1545	s	s	13	1	SIC	366	RC	1	1	02VD 02VO 02VC 02MD 09MO 02MC 02RD 02RO	1	0	1.13586497307	194.0	-258.0	203	-257	1
2.7	2015_May_18_1545	s	s	13	1	SIC	367	RC	1	2	02VD 02VO 02VC 09MD 02MO 02MC 02RD 02RO	1	0	2.69471287727	-399.0	401.0	-396	401	1
2.7	2015_May_18_1545	s	s	13	1	SIC	368	RC	2	2	09VD 02VO 02VC 02MD 02MO 02MC 02RD 02RO	1	0	1.28240299225	-529.0	-14.0	-529	-21	1
2.7	2015_May_18_1545	s	s	13	1	SIC	369	RC	0	2	02VD 02VO 02VC 02MD 02MO 02MC 09RD 02RO	1	0	1.0116789341	-9.0	-24.0	-7	-28	1
2.7	2015_May_18_1545	s	s	13	1	SIC	370	ABS	0	1	02VD 02VO 02VC 02MD 02MO 02MC 02RD 10RO	0	1	3.81839990616	None	None	None	None	1
2.7	2015_May_18_1545	s	s	13	1	SIC	371	RC	2	2	09VD 02VO 02VC 02MD 02MO 02MC 02RD 02RO	1	0	0.776383876801	-80.0	-68.0	-78	-74	1
2.7	2015_May_18_1545	s	s	13	1	SIC	372	ABS	1	0	02VD 02VO 02VC 02MD 02MO 10MC 02RD 02RO	0	1	2.86659193039	None	None	None	None	1
2.7	2015_May_18_1545	s	s	13	1	SIC	373	ABS	2	0	02VD 02VO 10VC 02MD 02MO 02MC 02RD 02RO	0	1	2.54542303085	None	None	None	None	1
2.7	2015_May_18_1545	s	s	13	1	SIC	374	RC	2	0	02VD 02VO 09VC 02MD 02MO 02MC 02RD 02RO	1	0	1.65563416481	96.0	-333.0	98	-332	1
2.7	2015_May_18_1545	s	s	13	1	SIC	375	RC	2	1	02VD 09VO 02VC 02MD 02MO 02MC 02RD 02RO	1	0	3.27166295052	-525.0	-182.0	-529	-180	1
2.7	2015_May_18_1545	s	s	13	1	SIC	376	RC	1	2	02VD 02VO 02VC 09MD 02MO 02MC 02RD 02RO	1	0	0.890561103821	338.0	-15.0	347	-14	1
2.7	2015_May_18_1545	s	s	13	1	SIC	377	ABS	2	1	02VD 10VO 02VC 02MD 02MO 02MC 02RD 02RO	0	1	2.75032782555	None	None	None	None	1
2.7	2015_May_18_1545	s	s	13	1	SIC	378	ABS	2	2	10VD 02VO 02VC 02MD 02MO 02MC 02RD 02RO	0	1	1.54127693176	None	None	None	None	1
2.7	2015_May_18_1545	s	s	13	1	SIC	379	RC	0	1	02VD 02VO 02VC 02MD 02MO 02MC 02RD 09RO	1	0	1.27960896492	-66.0	292.0	-58	293	1
2.7	2015_May_18_1545	s	s	13	1	SIC	380	RC	1	1	02VD 02VO 02VC 02MD 09MO 02MC 02RD 02RO	1	0	1.32945203781	404.0	-255.0	405	-255	1
2.7	2015_May_18_1545	s	s	13	1	SIC	381	ABS	1	2	02VD 02VO 02VC 10MD 02MO 02MC 02RD 02RO	0	1	2.1227350235	None	None	None	None	1
2.7	2015_May_18_1545	s	s	13	1	SIC	382	ABS	1	1	02VD 02VO 02VC 02MD 10MO 02MC 02RD 02RO	0	1	3.3718380928	None	None	None	None	1
2.7	2015_May_18_1545	s	s	13	1	SIC	383	RC	1	0	02VD 02VO 02VC 02MD 02MO 09MC 02RD 02RO	1	0	1.39568090439	-7.0	-292.0	0	-288	1
2.7	2015_May_18_1545	s	s	13	1	SIC	384	ABS	0	2	02VD 02VO 02VC 02MD 02MO 02MC 10RD 02RO	0	1	2.52442193031	None	None	None	None	1
2.7	2015_May_18_1545	s	s	13	1	SIC	385	ABS	0	2	02VD 02VO 02VC 02MD 02MO 02MC 10RD 02RO	0	1	2.70670604706	None	None	None	None	1
2.7	2015_May_18_1545	s	s	13	1	SIC	386	ABS	2	1	02VD 10VO 02VC 02MD 02MO 02MC 02RD 02RO	0	1	2.56212997437	None	None	None	None	1
2.7	2015_May_18_1545	s	s	13	1	SIC	387	RC	2	0	02VD 02VO 09VC 02MD 02MO 02MC 02RD 02RO	1	0	1.42363905907	341.0	-362.0	350	-363	1
2.7	2015_May_18_1545	s	s	13	1	SIC	388	ABS	1	0	02VD 02VO 02VC 02MD 02MO 10MC 02RD 02RO	0	1	2.93738603592	None	None	None	None	1
2.7	2015_May_18_1545	s	s	13	1	SIC	389	ABS	2	0	02VD 02VO 10VC 02MD 02MO 02MC 02RD 02RO	0	1	2.4314391613	None	None	None	None	1
2.7	2015_May_18_1545	s	s	13	1	SIC	390	ABS	1	1	02VD 02VO 02VC 02MD 10MO 02MC 02RD 02RO	0	1	2.56909704208	None	None	None	None	1
2.7	2015_May_18_1545	s	s	13	1	SIC	391	RC	2	2	09VD 02VO 02VC 02MD 02MO 02MC 02RD 02RO	1	0	1.15944194794	220.0	-335.0	220	-336	1
2.7	2015_May_18_1545	s	s	13	1	SIC	392	RC	1	0	02VD 02VO 02VC 02MD 02MO 09MC 02RD 02RO	1	0	1.72533679008	-384.0	-176.0	-394	-176	1
2.7	2015_May_18_1545	s	s	13	1	SIC	393	RC	1	1	02VD 02VO 02VC 02MD 09MO 02MC 02RD 02RO	1	0	0.964550018311	87.0	-277.0	84	-277	1
2.7	2015_May_18_1545	s	s	13	1	SIC	394	ABS	1	2	02VD 02VO 02VC 10MD 02MO 02MC 02RD 02RO	0	1	2.72523212433	None	None	None	None	1
2.7	2015_May_18_1545	s	s	13	1	SIC	395	ABS	0	1	02VD 02VO 02VC 02MD 02MO 02MC 02RD 10RO	0	1	5.01031684875	None	None	None	None	1
2.7	2015_May_18_1545	s	s	13	1	SIC	396	RC	1	2	02VD 02VO 02VC 09MD 02MO 02MC 02RD 02RO	1	0	2.13346290588	-507.0	-136.0	-506	-142	1
2.7	2015_May_18_1545	s	s	13	1	SIC	397	RC	0	2	02VD 02VO 02VC 02MD 02MO 02MC 09RD 02RO	1	0	0.749731063843	100.0	-82.0	104	-81	1
2.7	2015_May_18_1545	s	s	13	1	SIC	398	RC	0	1	02VD 02VO 02VC 02MD 02MO 02MC 02RD 09RO	1	0	0.92644405365	203.0	-104.0	199	-105	1
2.7	2015_May_18_1545	s	s	13	1	SIC	399	RC	2	1	02VD 09VO 02VC 02MD 02MO 02MC 02RD 02RO	1	0	1.0940861702	-499.0	349.0	-500	347	1
2.7	2015_May_18_1545	s	s	13	1	SIC	400	ABS	2	2	10VD 02VO 02VC 02MD 02MO 02MC 02RD 02RO	0	1	1.9297709465	None	None	None	None	1
2.7	2015_May_18_1545	s	s	13	1	SIC	401	RC	0	2	02VD 02VO 02VC 02MD 02MO 02MC 09RD 02RO	1	0	1.62988591194	-27.0	-366.0	-15	-365	1
2.7	2015_May_18_1545	s	s	13	1	SIC	402	RC	1	2	02VD 02VO 02VC 09MD 02MO 02MC 02RD 02RO	1	0	0.690693855286	-204.0	83.0	-203	82	1
2.7	2015_May_18_1545	s	s	13	1	SIC	403	ABS	1	0	02VD 02VO 02VC 02MD 02MO 10MC 02RD 02RO	0	1	3.30119609833	None	None	None	None	1
2.7	2015_May_18_1545	s	s	13	1	SIC	404	ABS	0	1	02VD 02VO 02VC 02MD 02MO 02MC 02RD 10RO	0	1	3.10681295395	None	None	None	None	1
2.7	2015_May_18_1545	s	s	13	1	SIC	405	RC	1	0	02VD 02VO 02VC 02MD 02MO 09MC 02RD 02RO	1	0	8.62724208832	-305.0	-160.0	-301	-169	1
2.7	2015_May_18_1545	s	s	13	1	SIC	406	RC	1	1	02VD 02VO 02VC 02MD 09MO 02MC 02RD 02RO	1	0	0.878853082657	-341.0	179.0	-342	171	1
2.7	2015_May_18_1545	s	s	13	1	SIC	407	RC	2	1	02VD 09VO 02VC 02MD 02MO 02MC 02RD 02RO	0	1	8.61200594902	-460.0	-358.0	None	None	0
2.7	2015_May_18_1545	s	s	13	1	SIC	408	ABS	2	2	10VD 02VO 02VC 02MD 02MO 02MC 02RD 02RO	0	1	3.1864490509	None	None	None	None	1
2.7	2015_May_18_1545	s	s	13	1	SIC	409	RC	0	1	02VD 02VO 02VC 02MD 02MO 02MC 02RD 09RO	1	0	2.8924138546	-22.0	-113.0	-19	-120	1
2.7	2015_May_18_1545	s	s	13	1	SIC	410	ABS	1	1	02VD 02VO 02VC 02MD 10MO 02MC 02RD 02RO	0	1	2.97145485878	None	None	None	None	1
2.7	2015_May_18_1545	s	s	13	1	SIC	411	ABS	2	0	02VD 02VO 10VC 02MD 02MO 02MC 02RD 02RO	0	1	2.80092215538	None	None	None	None	1
2.7	2015_May_18_1545	s	s	13	1	SIC	412	ABS	0	2	02VD 02VO 02VC 02MD 02MO 02MC 10RD 02RO	0	1	2.718334198	None	None	None	None	1
2.7	2015_May_18_1545	s	s	13	1	SIC	413	RC	2	2	09VD 02VO 02VC 02MD 02MO 02MC 02RD 02RO	1	0	1.5296421051	-416.0	-59.0	-421	-57	1
2.7	2015_May_18_1545	s	s	13	1	SIC	414	ABS	2	1	02VD 10VO 02VC 02MD 02MO 02MC 02RD 02RO	0	1	2.20047402382	None	None	None	None	1
2.7	2015_May_18_1545	s	s	13	1	SIC	415	ABS	1	2	02VD 02VO 02VC 10MD 02MO 02MC 02RD 02RO	0	1	1.82370400429	None	None	None	None	1
2.7	2015_May_18_1545	s	s	13	1	SIC	416	RC	2	0	02VD 02VO 09VC 02MD 02MO 02MC 02RD 02RO	1	0	1.44721102715	-45.0	297.0	-43	291	1
2.7	2015_May_18_1545	s	s	13	1	SIC	417	ABS	1	2	02VD 02VO 02VC 10MD 02MO 02MC 02RD 02RO	0	1	1.85915803909	None	None	None	None	1
2.7	2015_May_18_1545	s	s	13	1	SIC	418	RC	2	2	09VD 02VO 02VC 02MD 02MO 02MC 02RD 02RO	1	0	1.24717497826	-470.0	276.0	-473	275	1
2.7	2015_May_18_1545	s	s	13	1	SIC	419	ABS	2	0	02VD 02VO 10VC 02MD 02MO 02MC 02RD 02RO	0	1	1.77419900894	None	None	None	None	1
2.7	2015_May_18_1545	s	s	13	1	SIC	420	ABS	1	0	02VD 02VO 02VC 02MD 02MO 10MC 02RD 02RO	0	1	2.20954799652	None	None	None	None	1
2.7	2015_May_18_1545	s	s	13	1	SIC	421	ABS	0	2	02VD 02VO 02VC 02MD 02MO 02MC 10RD 02RO	0	1	1.6092569828	None	None	None	None	1
2.7	2015_May_18_1545	s	s	13	1	SIC	422	RC	2	0	02VD 02VO 09VC 02MD 02MO 02MC 02RD 02RO	1	0	0.982550144196	-494.0	236.0	-498	239	1
2.7	2015_May_18_1545	s	s	13	1	SIC	423	RC	2	1	02VD 09VO 02VC 02MD 02MO 02MC 02RD 02RO	0	1	1.88262081146	265.0	166.0	None	None	0
2.7	2015_May_18_1545	s	s	13	1	SIC	424	ABS	1	1	02VD 02VO 02VC 02MD 10MO 02MC 02RD 02RO	0	1	2.12498307228	None	None	None	None	1
2.7	2015_May_18_1545	s	s	13	1	SIC	425	RC	0	2	02VD 02VO 02VC 02MD 02MO 02MC 09RD 02RO	1	0	1.52953290939	-8.0	-367.0	-13	-368	1
2.7	2015_May_18_1545	s	s	13	1	SIC	426	RC	0	1	02VD 02VO 02VC 02MD 02MO 02MC 02RD 09RO	1	0	1.38833785057	203.0	-140.0	195	-145	1
2.7	2015_May_18_1545	s	s	13	1	SIC	427	ABS	0	1	02VD 02VO 02VC 02MD 02MO 02MC 02RD 10RO	0	1	4.05441188812	None	None	None	None	1
2.7	2015_May_18_1545	s	s	13	1	SIC	428	ABS	2	1	02VD 10VO 02VC 02MD 02MO 02MC 02RD 02RO	0	1	1.96497678757	None	None	None	None	1
2.7	2015_May_18_1545	s	s	13	1	SIC	429	RC	1	0	02VD 02VO 02VC 02MD 02MO 09MC 02RD 02RO	1	0	1.76491212845	-246.0	-300.0	-249	-303	1
2.7	2015_May_18_1545	s	s	13	1	SIC	430	RC	1	2	02VD 02VO 02VC 09MD 02MO 02MC 02RD 02RO	1	0	0.740900993347	-169.0	10.0	-165	6	1
2.7	2015_May_18_1545	s	s	13	1	SIC	431	RC	1	1	02VD 02VO 02VC 02MD 09MO 02MC 02RD 02RO	1	0	1.15990710258	359.0	-96.0	357	-100	1
2.7	2015_May_18_1545	s	s	13	1	SIC	432	ABS	2	2	10VD 02VO 02VC 02MD 02MO 02MC 02RD 02RO	0	1	2.10634708405	None	None	None	None	1
2.7	2015_May_18_1545	s	s	13	1	SIC	433	RC	1	2	02VD 02VO 02VC 09MD 02MO 02MC 02RD 02RO	1	0	0.952861070633	45.0	-333.0	43	-344	1
2.7	2015_May_18_1545	s	s	13	1	SIC	434	RC	0	2	02VD 02VO 02VC 02MD 02MO 02MC 09RD 02RO	0	1	1.76494288445	419.0	322.0	None	None	0
2.7	2015_May_18_1545	s	s	13	1	SIC	435	ABS	2	2	10VD 02VO 02VC 02MD 02MO 02MC 02RD 02RO	0	1	1.98546218872	None	None	None	None	1
2.7	2015_May_18_1545	s	s	13	1	SIC	436	RC	2	2	09VD 02VO 02VC 02MD 02MO 02MC 02RD 02RO	1	0	1.46500992775	-391.0	0.0	-390	6	1
2.7	2015_May_18_1545	s	s	13	1	SIC	437	RC	1	0	02VD 02VO 02VC 02MD 02MO 09MC 02RD 02RO	1	0	1.67080187798	-35.0	-264.0	-30	-264	1
2.7	2015_May_18_1545	s	s	13	1	SIC	438	RC	0	1	02VD 02VO 02VC 02MD 02MO 02MC 02RD 09RO	1	0	0.690114974976	239.0	17.0	246	18	1
2.7	2015_May_18_1545	s	s	13	1	SIC	439	ABS	1	0	02VD 02VO 02VC 02MD 02MO 10MC 02RD 02RO	0	1	3.66845989227	None	None	None	None	1
2.7	2015_May_18_1545	s	s	13	1	SIC	440	ABS	1	2	02VD 02VO 02VC 10MD 02MO 02MC 02RD 02RO	0	1	2.3150229454	None	None	None	None	1
2.7	2015_May_18_1545	s	s	13	1	SIC	441	ABS	1	1	02VD 02VO 02VC 02MD 10MO 02MC 02RD 02RO	0	1	5.45645999908	None	None	None	None	1
2.7	2015_May_18_1545	s	s	13	1	SIC	442	ABS	2	0	02VD 02VO 10VC 02MD 02MO 02MC 02RD 02RO	0	1	1.80028390884	None	None	None	None	1
2.7	2015_May_18_1545	s	s	13	1	SIC	443	ABS	0	2	02VD 02VO 02VC 02MD 02MO 02MC 10RD 02RO	0	1	1.58320784569	None	None	None	None	1
2.7	2015_May_18_1545	s	s	13	1	SIC	444	ABS	0	1	02VD 02VO 02VC 02MD 02MO 02MC 02RD 10RO	0	1	4.43391394615	None	None	None	None	1
2.7	2015_May_18_1545	s	s	13	1	SIC	445	RC	2	1	02VD 09VO 02VC 02MD 02MO 02MC 02RD 02RO	1	0	4.2200191021	148.0	-327.0	140	-328	1
2.7	2015_May_18_1545	s	s	13	1	SIC	446	ABS	2	1	02VD 10VO 02VC 02MD 02MO 02MC 02RD 02RO	0	1	2.05917620659	None	None	None	None	1
2.7	2015_May_18_1545	s	s	13	1	SIC	447	RC	2	0	02VD 02VO 09VC 02MD 02MO 02MC 02RD 02RO	1	0	2.54875516891	-492.0	221.0	-495	214	1
2.7	2015_May_18_1545	s	s	13	1	SIC	448	RC	1	1	02VD 02VO 02VC 02MD 09MO 02MC 02RD 02RO	1	0	1.47063612938	393.0	-169.0	394	-172	1
2.7	2015_May_18_1545	s	s	13	1	SIC	449	ABS	1	0	02VD 02VO 02VC 02MD 02MO 10MC 02RD 02RO	0	1	3.58431196213	None	None	None	None	1
2.7	2015_May_18_1545	s	s	13	1	SIC	450	RC	1	0	02VD 02VO 02VC 02MD 02MO 09MC 02RD 02RO	1	0	2.53002500534	-462.0	-13.0	-456	-18	1
2.7	2015_May_18_1545	s	s	13	1	SIC	451	RC	2	0	02VD 02VO 09VC 02MD 02MO 02MC 02RD 02RO	1	0	1.32490205765	479.0	191.0	482	197	1
2.7	2015_May_18_1545	s	s	13	1	SIC	452	RC	1	2	02VD 02VO 02VC 09MD 02MO 02MC 02RD 02RO	1	0	1.41184186935	377.0	-197.0	374	-198	1
2.7	2015_May_18_1545	s	s	13	1	SIC	453	RC	2	2	09VD 02VO 02VC 02MD 02MO 02MC 02RD 02RO	1	0	0.564430952072	123.0	110.0	134	115	1
2.7	2015_May_18_1545	s	s	13	1	SIC	454	ABS	1	1	02VD 02VO 02VC 02MD 10MO 02MC 02RD 02RO	0	1	2.45662283897	None	None	None	None	1
2.7	2015_May_18_1545	s	s	13	1	SIC	455	ABS	2	0	02VD 02VO 10VC 02MD 02MO 02MC 02RD 02RO	0	1	1.82752799988	None	None	None	None	1
2.7	2015_May_18_1545	s	s	13	1	SIC	456	ABS	2	1	02VD 10VO 02VC 02MD 02MO 02MC 02RD 02RO	0	1	2.85432600975	None	None	None	None	1
2.7	2015_May_18_1545	s	s	13	1	SIC	457	RC	0	1	02VD 02VO 02VC 02MD 02MO 02MC 02RD 09RO	1	0	3.16272592545	461.0	229.0	459	223	1
2.7	2015_May_18_1545	s	s	13	1	SIC	458	ABS	2	2	10VD 02VO 02VC 02MD 02MO 02MC 02RD 02RO	0	1	2.56535100937	None	None	None	None	1
2.7	2015_May_18_1545	s	s	13	1	SIC	459	ABS	0	2	02VD 02VO 02VC 02MD 02MO 02MC 10RD 02RO	0	1	2.05913591385	None	None	None	None	1
2.7	2015_May_18_1545	s	s	13	1	SIC	460	RC	0	2	02VD 02VO 02VC 02MD 02MO 02MC 09RD 02RO	1	0	1.45320105553	-72.0	-170.0	-79	-170	1
2.7	2015_May_18_1545	s	s	13	1	SIC	461	ABS	1	2	02VD 02VO 02VC 10MD 02MO 02MC 02RD 02RO	0	1	1.63281393051	None	None	None	None	1
2.7	2015_May_18_1545	s	s	13	1	SIC	462	RC	2	1	02VD 09VO 02VC 02MD 02MO 02MC 02RD 02RO	1	0	1.03264808655	335.0	-334.0	336	-338	1
2.7	2015_May_18_1545	s	s	13	1	SIC	463	RC	1	1	02VD 02VO 02VC 02MD 09MO 02MC 02RD 02RO	1	0	1.88876509666	-428.0	349.0	-424	345	1
2.7	2015_May_18_1545	s	s	13	1	SIC	464	ABS	0	1	02VD 02VO 02VC 02MD 02MO 02MC 02RD 10RO	0	1	4.26384210587	None	None	None	None	1
2.7	2015_May_18_1545	s	s	13	1	SIC	465	ABS	1	0	02VD 02VO 02VC 02MD 02MO 10MC 02RD 02RO	1	0	2.05470895767	None	None	-113	-75	0
2.7	2015_May_18_1545	s	s	13	1	SIC	466	ABS	0	1	02VD 02VO 02VC 02MD 02MO 02MC 02RD 10RO	0	1	3.02442216873	None	None	None	None	1
2.7	2015_May_18_1545	s	s	13	1	SIC	467	ABS	2	2	10VD 02VO 02VC 02MD 02MO 02MC 02RD 02RO	0	1	1.37126588821	None	None	None	None	1
2.7	2015_May_18_1545	s	s	13	1	SIC	468	ABS	1	2	02VD 02VO 02VC 10MD 02MO 02MC 02RD 02RO	0	1	2.0198829174	None	None	None	None	1
2.7	2015_May_18_1545	s	s	13	1	SIC	469	ABS	2	0	02VD 02VO 10VC 02MD 02MO 02MC 02RD 02RO	0	1	1.83563518524	None	None	None	None	1
2.7	2015_May_18_1545	s	s	13	1	SIC	470	ABS	2	1	02VD 10VO 02VC 02MD 02MO 02MC 02RD 02RO	0	1	2.11466288567	None	None	None	None	1
2.7	2015_May_18_1545	s	s	13	1	SIC	471	RC	2	0	02VD 02VO 09VC 02MD 02MO 02MC 02RD 02RO	0	1	2.31292295456	461.0	399.0	None	None	0
2.7	2015_May_18_1545	s	s	13	1	SIC	472	RC	0	2	02VD 02VO 02VC 02MD 02MO 02MC 09RD 02RO	1	0	1.0941119194	359.0	252.0	362	254	1
2.7	2015_May_18_1545	s	s	13	1	SIC	473	ABS	0	2	02VD 02VO 02VC 02MD 02MO 02MC 10RD 02RO	0	1	2.32391905785	None	None	None	None	1
2.7	2015_May_18_1545	s	s	13	1	SIC	474	RC	2	2	09VD 02VO 02VC 02MD 02MO 02MC 02RD 02RO	1	0	2.18546104431	-443.0	253.0	-437	251	1
2.7	2015_May_18_1545	s	s	13	1	SIC	475	RC	1	0	02VD 02VO 02VC 02MD 02MO 09MC 02RD 02RO	1	0	0.528995037079	252.0	23.0	247	20	1
2.7	2015_May_18_1545	s	s	13	1	SIC	476	RC	1	1	02VD 02VO 02VC 02MD 09MO 02MC 02RD 02RO	1	0	1.85143518448	-219.0	-157.0	-214	-155	1
2.7	2015_May_18_1545	s	s	13	1	SIC	477	RC	1	2	02VD 02VO 02VC 09MD 02MO 02MC 02RD 02RO	1	0	1.65930390358	360.0	-238.0	366	-243	1
2.7	2015_May_18_1545	s	s	13	1	SIC	478	RC	0	1	02VD 02VO 02VC 02MD 02MO 02MC 02RD 09RO	1	0	1.6872549057	39.0	-256.0	41	-259	1
2.7	2015_May_18_1545	s	s	13	1	SIC	479	ABS	1	1	02VD 02VO 02VC 02MD 10MO 02MC 02RD 02RO	0	1	2.32574892044	None	None	None	None	1
2.7	2015_May_18_1545	s	s	13	1	SIC	480	RC	2	1	02VD 09VO 02VC 02MD 02MO 02MC 02RD 02RO	1	0	1.63540887833	-242.0	203.0	-235	206	1
