Version	Date	Stimuli	Method	Subject	Session	Condition	Trial	Target	Channel1	Channel2	Distractors	LMouseButton	RMouseButton	RT	TargetX	TargetY	ResponseX	ResponseY	Correct
2.7	2015_May_22_1535	s	s	13	5	Capacity	1	ABS	1	0	08VC 16MC	1	0	2.13672304153	None	None	125	43	0
2.7	2015_May_22_1535	s	s	13	5	Capacity	2	RC	2	0	15VC 08MC	1	0	1.02344584465	466.0	79.0	470	77	1
2.7	2015_May_22_1535	s	s	13	5	Capacity	3	ABS	2	0	16VC 08MC	1	0	4.22014307976	None	None	-98	91	0
2.7	2015_May_22_1535	s	s	13	5	Capacity	4	RC	1	0	08VC 15MC	1	0	0.634934902191	293.0	45.0	293	54	1
2.7	2015_May_22_1535	s	s	13	5	Capacity	5	RC	2	0	15VC 08MC	1	0	1.41781401634	527.0	-269.0	530	-272	1
2.7	2015_May_22_1535	s	s	13	5	Capacity	6	ABS	1	0	08VC 16MC	0	1	1.40681219101	None	None	None	None	1
2.7	2015_May_22_1535	s	s	13	5	Capacity	7	ABS	2	0	16VC 08MC	0	1	2.27776288986	None	None	None	None	1
2.7	2015_May_22_1535	s	s	13	5	Capacity	8	RC	1	0	08VC 15MC	1	0	1.6707611084	-521.0	-185.0	-521	-188	1
2.7	2015_May_22_1535	s	s	13	5	Capacity	9	RC	2	0	15VC 08MC	1	0	1.88900589943	434.0	-85.0	438	-88	1
2.7	2015_May_22_1535	s	s	13	5	Capacity	10	ABS	1	0	08VC 16MC	0	1	1.60014200211	None	None	None	None	1
2.7	2015_May_22_1535	s	s	13	5	Capacity	11	RC	1	0	08VC 15MC	1	0	1.46816301346	-382.0	-339.0	-386	-343	1
2.7	2015_May_22_1535	s	s	13	5	Capacity	12	ABS	2	0	16VC 08MC	0	1	1.68012499809	None	None	None	None	1
2.7	2015_May_22_1535	s	s	13	5	Capacity	13	RC	2	0	15VC 08MC	1	0	0.796947002411	434.0	89.0	429	91	1
2.7	2015_May_22_1535	s	s	13	5	Capacity	14	ABS	2	0	16VC 08MC	0	1	1.5534658432	None	None	None	None	1
2.7	2015_May_22_1535	s	s	13	5	Capacity	15	ABS	1	0	08VC 16MC	0	1	2.1124830246	None	None	None	None	1
2.7	2015_May_22_1535	s	s	13	5	Capacity	16	RC	1	0	08VC 15MC	1	0	1.44425296783	-394.0	96.0	-395	100	1
2.7	2015_May_22_1535	s	s	13	5	Capacity	17	ABS	1	0	08VC 16MC	0	1	2.16516804695	None	None	None	None	1
2.7	2015_May_22_1535	s	s	13	5	Capacity	18	RC	1	0	08VC 15MC	1	0	1.58378911018	-387.0	369.0	-389	369	1
2.7	2015_May_22_1535	s	s	13	5	Capacity	19	ABS	2	0	16VC 08MC	0	1	1.57185697556	None	None	None	None	1
2.7	2015_May_22_1535	s	s	13	5	Capacity	20	RC	2	0	15VC 08MC	1	0	0.627035140991	386.0	-241.0	387	-242	1
2.7	2015_May_22_1535	s	s	13	5	Capacity	21	RC	1	0	08VC 15MC	1	0	0.679275989532	88.0	324.0	87	322	1
2.7	2015_May_22_1535	s	s	13	5	Capacity	22	RC	2	0	15VC 08MC	1	0	1.78853702545	511.0	381.0	523	388	1
2.7	2015_May_22_1535	s	s	13	5	Capacity	23	ABS	2	0	16VC 08MC	0	1	1.96880292892	None	None	None	None	1
2.7	2015_May_22_1535	s	s	13	5	Capacity	24	ABS	1	0	08VC 16MC	0	1	2.12429690361	None	None	None	None	1
2.7	2015_May_22_1535	s	s	13	5	Capacity	25	RC	1	0	08VC 15MC	1	0	1.05066013336	-204.0	-227.0	-209	-229	1
2.7	2015_May_22_1535	s	s	13	5	Capacity	26	ABS	1	0	08VC 16MC	0	1	2.01243305206	None	None	None	None	1
2.7	2015_May_22_1535	s	s	13	5	Capacity	27	RC	2	0	15VC 08MC	1	0	0.752722978592	-158.0	144.0	-159	144	1
2.7	2015_May_22_1535	s	s	13	5	Capacity	28	ABS	2	0	16VC 08MC	0	1	1.47060990334	None	None	None	None	1
2.7	2015_May_22_1535	s	s	13	5	Capacity	29	RC	2	0	15VC 08MC	1	0	1.67449903488	303.0	287.0	309	288	1
2.7	2015_May_22_1535	s	s	13	5	Capacity	30	RC	1	0	08VC 15MC	1	0	0.690230846405	463.0	117.0	469	113	1
2.7	2015_May_22_1535	s	s	13	5	Capacity	31	ABS	1	0	08VC 16MC	0	1	2.03170394897	None	None	None	None	1
2.7	2015_May_22_1535	s	s	13	5	Capacity	32	ABS	2	0	16VC 08MC	0	1	1.99496006966	None	None	None	None	1
2.7	2015_May_22_1535	s	s	13	5	Capacity	33	RC	1	0	08VC 15MC	1	0	0.870291948318	-492.0	394.0	-488	391	1
2.7	2015_May_22_1535	s	s	13	5	Capacity	34	ABS	2	0	16VC 08MC	0	1	1.31283521652	None	None	None	None	1
2.7	2015_May_22_1535	s	s	13	5	Capacity	35	ABS	1	0	08VC 16MC	0	1	1.81196713448	None	None	None	None	1
2.7	2015_May_22_1535	s	s	13	5	Capacity	36	RC	2	0	15VC 08MC	1	0	2.20046901703	489.0	393.0	490	394	1
2.7	2015_May_22_1535	s	s	13	5	Capacity	37	ABS	2	0	16VC 08MC	0	1	1.06334710121	None	None	None	None	1
2.7	2015_May_22_1535	s	s	13	5	Capacity	38	ABS	1	0	08VC 16MC	0	1	1.61200213432	None	None	None	None	1
2.7	2015_May_22_1535	s	s	13	5	Capacity	39	RC	2	0	15VC 08MC	1	0	0.976104974747	-420.0	35.0	-426	35	1
2.7	2015_May_22_1535	s	s	13	5	Capacity	40	RC	1	0	08VC 15MC	1	0	1.26259899139	-339.0	-286.0	-334	-291	1
2.7	2015_May_22_1535	s	s	13	5	Capacity	41	ABS	1	0	08VC 16MC	0	1	1.37659692764	None	None	None	None	1
2.7	2015_May_22_1535	s	s	13	5	Capacity	42	RC	1	0	08VC 15MC	1	0	0.501229047775	63.0	-48.0	69	-52	1
2.7	2015_May_22_1535	s	s	13	5	Capacity	43	ABS	2	0	16VC 08MC	0	1	1.2306189537	None	None	None	None	1
2.7	2015_May_22_1535	s	s	13	5	Capacity	44	RC	2	0	15VC 08MC	1	0	0.626954078674	-182.0	63.0	-175	66	1
2.7	2015_May_22_1535	s	s	13	5	Capacity	45	ABS	1	0	08VC 16MC	0	1	1.64164614677	None	None	None	None	1
2.7	2015_May_22_1535	s	s	13	5	Capacity	46	RC	2	0	15VC 08MC	1	0	0.797262907028	386.0	280.0	387	278	1
2.7	2015_May_22_1535	s	s	13	5	Capacity	47	ABS	2	0	16VC 08MC	0	1	1.25600099564	None	None	None	None	1
2.7	2015_May_22_1535	s	s	13	5	Capacity	48	RC	1	0	08VC 15MC	1	0	1.12751197815	-229.0	-397.0	-233	-393	1
2.7	2015_May_22_1535	s	s	13	5	Capacity	49	ABS	1	0	08VC 16MC	0	1	0.959940910339	None	None	None	None	1
2.7	2015_May_22_1535	s	s	13	5	Capacity	50	ABS	2	0	16VC 08MC	0	1	1.37125492096	None	None	None	None	1
2.7	2015_May_22_1535	s	s	13	5	Capacity	51	RC	1	0	08VC 15MC	1	0	0.811391115189	415.0	-211.0	417	-217	1
2.7	2015_May_22_1535	s	s	13	5	Capacity	52	RC	2	0	15VC 08MC	1	0	0.677084922791	478.0	199.0	482	193	1
2.7	2015_May_22_1535	s	s	13	5	Capacity	53	RC	1	0	08VC 15MC	1	0	1.51771092415	-463.0	111.0	-461	111	1
2.7	2015_May_22_1535	s	s	13	5	Capacity	54	ABS	1	0	08VC 16MC	0	1	1.57454109192	None	None	None	None	1
2.7	2015_May_22_1535	s	s	13	5	Capacity	55	ABS	2	0	16VC 08MC	0	1	1.3684258461	None	None	None	None	1
2.7	2015_May_22_1535	s	s	13	5	Capacity	56	RC	2	0	15VC 08MC	1	0	0.667596817017	160.0	191.0	161	179	1
2.7	2015_May_22_1535	s	s	13	5	Capacity	57	RC	1	0	08VC 15MC	1	0	1.04144310951	-324.0	-168.0	-316	-170	1
2.7	2015_May_22_1535	s	s	13	5	Capacity	58	ABS	1	0	08VC 16MC	0	1	1.9922940731	None	None	None	None	1
2.7	2015_May_22_1535	s	s	13	5	Capacity	59	ABS	2	0	16VC 08MC	0	1	1.71054911613	None	None	None	None	1
2.7	2015_May_22_1535	s	s	13	5	Capacity	60	RC	2	0	15VC 08MC	1	0	1.03523492813	169.0	-341.0	177	-337	1
2.7	2015_May_22_1535	s	s	13	5	Capacity	61	ABS	1	0	08VC 16MC	0	1	1.22348403931	None	None	None	None	1
2.7	2015_May_22_1535	s	s	13	5	Capacity	62	RC	2	0	15VC 08MC	1	0	0.517413139343	-61.0	32.0	-59	29	1
2.7	2015_May_22_1535	s	s	13	5	Capacity	63	ABS	2	0	16VC 08MC	0	1	1.30357098579	None	None	None	None	1
2.7	2015_May_22_1535	s	s	13	5	Capacity	64	RC	1	0	08VC 15MC	1	0	0.669964075089	445.0	-30.0	440	-33	1
2.7	2015_May_22_1535	s	s	13	5	Capacity	1	RC	0	2	15RD 08RO	1	0	1.83102989197	-257.0	-108.0	-261	-105	1
2.7	2015_May_22_1535	s	s	13	5	Capacity	2	RC	0	1	08RD 15RO	1	0	0.505466938019	61.0	-33.0	54	-29	1
2.7	2015_May_22_1535	s	s	13	5	Capacity	3	ABS	0	1	08RD 16RO	1	0	3.17406892776	None	None	-11	40	0
2.7	2015_May_22_1535	s	s	13	5	Capacity	4	ABS	0	2	16RD 08RO	0	1	1.52403998375	None	None	None	None	1
2.7	2015_May_22_1535	s	s	13	5	Capacity	5	RC	0	2	15RD 08RO	1	0	1.74143099785	-30.0	-317.0	-31	-314	1
2.7	2015_May_22_1535	s	s	13	5	Capacity	6	ABS	0	2	16RD 08RO	0	1	1.46562600136	None	None	None	None	1
2.7	2015_May_22_1535	s	s	13	5	Capacity	7	RC	0	1	08RD 15RO	1	0	1.14931893349	265.0	-203.0	271	-205	1
2.7	2015_May_22_1535	s	s	13	5	Capacity	8	ABS	0	1	08RD 16RO	0	1	2.23235988617	None	None	None	None	1
2.7	2015_May_22_1535	s	s	13	5	Capacity	9	RC	0	2	15RD 08RO	1	0	0.917522907257	145.0	-137.0	146	-138	1
2.7	2015_May_22_1535	s	s	13	5	Capacity	10	ABS	0	2	16RD 08RO	0	1	1.99407911301	None	None	None	None	1
2.7	2015_May_22_1535	s	s	13	5	Capacity	11	ABS	0	1	08RD 16RO	0	1	3.03068590164	None	None	None	None	1
2.7	2015_May_22_1535	s	s	13	5	Capacity	12	RC	0	1	08RD 15RO	1	0	1.41181707382	-22.0	-342.0	-18	-351	1
2.7	2015_May_22_1535	s	s	13	5	Capacity	13	RC	0	1	08RD 15RO	1	0	2.42939591408	204.0	249.0	206	256	1
2.7	2015_May_22_1535	s	s	13	5	Capacity	14	ABS	0	1	08RD 16RO	1	0	3.0242729187	None	None	-85	-123	0
2.7	2015_May_22_1535	s	s	13	5	Capacity	15	RC	0	2	15RD 08RO	1	0	1.17634081841	86.0	-332.0	86	-330	1
2.7	2015_May_22_1535	s	s	13	5	Capacity	16	ABS	0	2	16RD 08RO	0	1	1.9234919548	None	None	None	None	1
2.7	2015_May_22_1535	s	s	13	5	Capacity	17	ABS	0	2	16RD 08RO	0	1	2.16068983078	None	None	None	None	1
2.7	2015_May_22_1535	s	s	13	5	Capacity	18	RC	0	2	15RD 08RO	1	0	2.17448687553	-533.0	85.0	-537	91	1
2.7	2015_May_22_1535	s	s	13	5	Capacity	19	ABS	0	1	08RD 16RO	0	1	3.97797393799	None	None	None	None	1
2.7	2015_May_22_1535	s	s	13	5	Capacity	20	RC	0	1	08RD 15RO	1	0	1.10309004784	329.0	-304.0	335	-306	1
2.7	2015_May_22_1535	s	s	13	5	Capacity	21	ABS	0	1	08RD 16RO	0	1	3.10116910934	None	None	None	None	1
2.7	2015_May_22_1535	s	s	13	5	Capacity	22	ABS	0	2	16RD 08RO	0	1	2.18527507782	None	None	None	None	1
2.7	2015_May_22_1535	s	s	13	5	Capacity	23	RC	0	1	08RD 15RO	1	0	2.93388319016	-466.0	-40.0	-461	-39	1
2.7	2015_May_22_1535	s	s	13	5	Capacity	24	RC	0	2	15RD 08RO	1	0	1.51525902748	-505.0	221.0	-510	220	1
2.7	2015_May_22_1535	s	s	13	5	Capacity	25	ABS	0	2	16RD 08RO	0	1	2.12294197083	None	None	None	None	1
2.7	2015_May_22_1535	s	s	13	5	Capacity	26	ABS	0	1	08RD 16RO	0	1	3.37192511559	None	None	None	None	1
2.7	2015_May_22_1535	s	s	13	5	Capacity	27	RC	0	1	08RD 15RO	1	0	1.22340798378	-228.0	-220.0	-232	-215	1
2.7	2015_May_22_1535	s	s	13	5	Capacity	28	RC	0	2	15RD 08RO	1	0	1.28873801231	-129.0	-139.0	-130	-144	1
2.7	2015_May_22_1535	s	s	13	5	Capacity	29	RC	0	1	08RD 15RO	1	0	1.82383799553	-347.0	-287.0	-342	-281	1
2.7	2015_May_22_1535	s	s	13	5	Capacity	30	ABS	0	1	08RD 16RO	0	1	3.50294995308	None	None	None	None	1
2.7	2015_May_22_1535	s	s	13	5	Capacity	31	RC	0	2	15RD 08RO	1	0	1.76481294632	-433.0	350.0	-435	346	1
2.7	2015_May_22_1535	s	s	13	5	Capacity	32	ABS	0	2	16RD 08RO	0	1	1.7508289814	None	None	None	None	1
2.7	2015_May_22_1535	s	s	13	5	Capacity	33	ABS	0	2	16RD 08RO	0	1	2.51828598976	None	None	None	None	1
2.7	2015_May_22_1535	s	s	13	5	Capacity	34	RC	0	2	15RD 08RO	1	0	2.10130405426	-459.0	69.0	-459	74	1
2.7	2015_May_22_1535	s	s	13	5	Capacity	35	RC	0	1	08RD 15RO	1	0	0.843504905701	-325.0	-78.0	-328	-73	1
2.7	2015_May_22_1535	s	s	13	5	Capacity	36	ABS	0	1	08RD 16RO	0	1	3.72786593437	None	None	None	None	1
2.7	2015_May_22_1535	s	s	13	5	Capacity	37	ABS	0	2	16RD 08RO	0	1	3.17173695564	None	None	None	None	1
2.7	2015_May_22_1535	s	s	13	5	Capacity	38	RC	0	1	08RD 15RO	1	0	0.950185060501	-298.0	-34.0	-299	-31	1
2.7	2015_May_22_1535	s	s	13	5	Capacity	39	RC	0	2	15RD 08RO	1	0	2.56517195702	254.0	-376.0	265	-375	1
2.7	2015_May_22_1535	s	s	13	5	Capacity	40	ABS	0	1	08RD 16RO	0	1	2.77717781067	None	None	None	None	1
2.7	2015_May_22_1535	s	s	13	5	Capacity	41	RC	0	2	15RD 08RO	1	0	0.771292924881	263.0	283.0	271	283	1
2.7	2015_May_22_1535	s	s	13	5	Capacity	42	ABS	0	1	08RD 16RO	0	1	4.44889903069	None	None	None	None	1
2.7	2015_May_22_1535	s	s	13	5	Capacity	43	ABS	0	2	16RD 08RO	0	1	2.03263902664	None	None	None	None	1
2.7	2015_May_22_1535	s	s	13	5	Capacity	44	RC	0	1	08RD 15RO	1	0	0.891445159912	-266.0	-57.0	-268	-62	1
2.7	2015_May_22_1535	s	s	13	5	Capacity	45	ABS	0	1	08RD 16RO	0	1	2.84326815605	None	None	None	None	1
2.7	2015_May_22_1535	s	s	13	5	Capacity	46	ABS	0	2	16RD 08RO	0	1	1.78845500946	None	None	None	None	1
2.7	2015_May_22_1535	s	s	13	5	Capacity	47	RC	0	2	15RD 08RO	1	0	2.05916118622	-349.0	316.0	-341	321	1
2.7	2015_May_22_1535	s	s	13	5	Capacity	48	RC	0	1	08RD 15RO	1	0	1.04434490204	-359.0	-402.0	-353	-406	1
2.7	2015_May_22_1535	s	s	13	5	Capacity	49	ABS	0	2	16RD 08RO	0	1	2.21959090233	None	None	None	None	1
2.7	2015_May_22_1535	s	s	13	5	Capacity	50	RC	0	2	15RD 08RO	1	0	0.938431024551	138.0	-18.0	144	-18	1
2.7	2015_May_22_1535	s	s	13	5	Capacity	51	RC	0	1	08RD 15RO	1	0	0.840943098068	234.0	-164.0	239	-171	1
2.7	2015_May_22_1535	s	s	13	5	Capacity	52	ABS	0	1	08RD 16RO	0	1	2.40034890175	None	None	None	None	1
2.7	2015_May_22_1535	s	s	13	5	Capacity	53	RC	0	2	15RD 08RO	1	0	1.78359079361	-60.0	202.0	-65	195	1
2.7	2015_May_22_1535	s	s	13	5	Capacity	54	ABS	0	2	16RD 08RO	0	1	2.12760090828	None	None	None	None	1
2.7	2015_May_22_1535	s	s	13	5	Capacity	55	ABS	0	1	08RD 16RO	0	1	4.24285817146	None	None	None	None	1
2.7	2015_May_22_1535	s	s	13	5	Capacity	56	RC	0	1	08RD 15RO	1	0	1.80030417442	-172.0	-366.0	-163	-366	1
2.7	2015_May_22_1535	s	s	13	5	Capacity	57	RC	0	1	08RD 15RO	1	0	0.693753957748	52.0	99.0	49	99	1
2.7	2015_May_22_1535	s	s	13	5	Capacity	58	ABS	0	1	08RD 16RO	0	1	2.83350086212	None	None	None	None	1
2.7	2015_May_22_1535	s	s	13	5	Capacity	59	RC	0	2	15RD 08RO	1	0	2.41245102882	325.0	268.0	337	272	1
2.7	2015_May_22_1535	s	s	13	5	Capacity	60	ABS	0	2	16RD 08RO	0	1	1.95942306519	None	None	None	None	1
2.7	2015_May_22_1535	s	s	13	5	Capacity	61	RC	0	2	15RD 08RO	1	0	0.599655151367	59.0	-81.0	50	-81	1
2.7	2015_May_22_1535	s	s	13	5	Capacity	62	ABS	0	2	16RD 08RO	0	1	1.89442300797	None	None	None	None	1
2.7	2015_May_22_1535	s	s	13	5	Capacity	63	ABS	0	1	08RD 16RO	0	1	3.47158408165	None	None	None	None	1
2.7	2015_May_22_1535	s	s	13	5	Capacity	64	RC	0	1	08RD 15RO	1	0	0.941035032272	57.0	-379.0	59	-378	1
2.7	2015_May_22_1535	s	s	13	5	SIC	1	RC	1	1	02VD 02VO 02VC 02MD 09MO 02MC 02RD 02RO	1	0	1.44227600098	-535.0	-285.0	-525	-278	1
2.7	2015_May_22_1535	s	s	13	5	SIC	2	ABS	1	0	02VD 02VO 02VC 02MD 02MO 10MC 02RD 02RO	0	1	1.52958893776	None	None	None	None	1
2.7	2015_May_22_1535	s	s	13	5	SIC	3	ABS	0	2	02VD 02VO 02VC 02MD 02MO 02MC 10RD 02RO	0	1	1.15883183479	None	None	None	None	1
2.7	2015_May_22_1535	s	s	13	5	SIC	4	RC	1	2	02VD 02VO 02VC 09MD 02MO 02MC 02RD 02RO	1	0	0.835114002228	-318.0	31.0	-309	33	1
2.7	2015_May_22_1535	s	s	13	5	SIC	5	ABS	2	1	02VD 10VO 02VC 02MD 02MO 02MC 02RD 02RO	0	1	1.50092601776	None	None	None	None	1
2.7	2015_May_22_1535	s	s	13	5	SIC	6	ABS	1	1	02VD 02VO 02VC 02MD 10MO 02MC 02RD 02RO	0	1	1.66558003426	None	None	None	None	1
2.7	2015_May_22_1535	s	s	13	5	SIC	7	RC	2	0	02VD 02VO 09VC 02MD 02MO 02MC 02RD 02RO	1	0	1.01988601685	328.0	379.0	328	376	1
2.7	2015_May_22_1535	s	s	13	5	SIC	8	RC	1	0	02VD 02VO 02VC 02MD 02MO 09MC 02RD 02RO	1	0	0.538176059723	214.0	36.0	214	35	1
2.7	2015_May_22_1535	s	s	13	5	SIC	9	RC	0	1	02VD 02VO 02VC 02MD 02MO 02MC 02RD 09RO	1	0	0.823258876801	-60.0	255.0	-56	252	1
2.7	2015_May_22_1535	s	s	13	5	SIC	10	RC	2	1	02VD 09VO 02VC 02MD 02MO 02MC 02RD 02RO	1	0	0.693974018097	39.0	-356.0	34	-359	1
2.7	2015_May_22_1535	s	s	13	5	SIC	11	RC	0	2	02VD 02VO 02VC 02MD 02MO 02MC 09RD 02RO	1	0	1.06756305695	486.0	-199.0	491	-199	1
2.7	2015_May_22_1535	s	s	13	5	SIC	12	ABS	2	0	02VD 02VO 10VC 02MD 02MO 02MC 02RD 02RO	0	1	1.40740013123	None	None	None	None	1
2.7	2015_May_22_1535	s	s	13	5	SIC	13	ABS	1	2	02VD 02VO 02VC 10MD 02MO 02MC 02RD 02RO	0	1	1.52521800995	None	None	None	None	1
2.7	2015_May_22_1535	s	s	13	5	SIC	14	ABS	2	2	10VD 02VO 02VC 02MD 02MO 02MC 02RD 02RO	0	1	0.888877868652	None	None	None	None	1
2.7	2015_May_22_1535	s	s	13	5	SIC	15	ABS	0	1	02VD 02VO 02VC 02MD 02MO 02MC 02RD 10RO	0	1	2.38875484467	None	None	None	None	1
2.7	2015_May_22_1535	s	s	13	5	SIC	16	RC	2	2	09VD 02VO 02VC 02MD 02MO 02MC 02RD 02RO	1	0	0.744735002518	-162.0	-8.0	-154	-8	1
2.7	2015_May_22_1535	s	s	13	5	SIC	17	RC	1	2	02VD 02VO 02VC 09MD 02MO 02MC 02RD 02RO	1	0	0.784772157669	-268.0	222.0	-269	221	1
2.7	2015_May_22_1535	s	s	13	5	SIC	18	RC	2	0	02VD 02VO 09VC 02MD 02MO 02MC 02RD 02RO	1	0	1.26254796982	9.0	-153.0	5	-152	1
2.7	2015_May_22_1535	s	s	13	5	SIC	19	ABS	0	1	02VD 02VO 02VC 02MD 02MO 02MC 02RD 10RO	0	1	2.76581311226	None	None	None	None	1
2.7	2015_May_22_1535	s	s	13	5	SIC	20	ABS	2	2	10VD 02VO 02VC 02MD 02MO 02MC 02RD 02RO	0	1	1.37657499313	None	None	None	None	1
2.7	2015_May_22_1535	s	s	13	5	SIC	21	RC	1	0	02VD 02VO 02VC 02MD 02MO 09MC 02RD 02RO	1	0	1.48243093491	-443.0	-242.0	-448	-240	1
2.7	2015_May_22_1535	s	s	13	5	SIC	22	ABS	2	1	02VD 10VO 02VC 02MD 02MO 02MC 02RD 02RO	0	1	1.35049915314	None	None	None	None	1
2.7	2015_May_22_1535	s	s	13	5	SIC	23	ABS	1	1	02VD 02VO 02VC 02MD 10MO 02MC 02RD 02RO	0	1	1.56528496742	None	None	None	None	1
2.7	2015_May_22_1535	s	s	13	5	SIC	24	RC	0	1	02VD 02VO 02VC 02MD 02MO 02MC 02RD 09RO	1	0	1.16477298737	413.0	-217.0	416	-217	1
2.7	2015_May_22_1535	s	s	13	5	SIC	25	ABS	2	0	02VD 02VO 10VC 02MD 02MO 02MC 02RD 02RO	0	1	1.0771458149	None	None	None	None	1
2.7	2015_May_22_1535	s	s	13	5	SIC	26	RC	2	1	02VD 09VO 02VC 02MD 02MO 02MC 02RD 02RO	0	1	1.20840382576	-311.0	35.0	None	None	0
2.7	2015_May_22_1535	s	s	13	5	SIC	27	RC	1	1	02VD 02VO 02VC 02MD 09MO 02MC 02RD 02RO	1	0	1.10260391235	474.0	54.0	476	54	1
2.7	2015_May_22_1535	s	s	13	5	SIC	28	ABS	0	2	02VD 02VO 02VC 02MD 02MO 02MC 10RD 02RO	0	1	1.50608181953	None	None	None	None	1
2.7	2015_May_22_1535	s	s	13	5	SIC	29	ABS	1	0	02VD 02VO 02VC 02MD 02MO 10MC 02RD 02RO	0	1	1.50024104118	None	None	None	None	1
2.7	2015_May_22_1535	s	s	13	5	SIC	30	RC	0	2	02VD 02VO 02VC 02MD 02MO 02MC 09RD 02RO	1	0	0.740992069244	360.0	-109.0	361	-111	1
2.7	2015_May_22_1535	s	s	13	5	SIC	31	ABS	1	2	02VD 02VO 02VC 10MD 02MO 02MC 02RD 02RO	0	1	1.23522996902	None	None	None	None	1
2.7	2015_May_22_1535	s	s	13	5	SIC	32	RC	2	2	09VD 02VO 02VC 02MD 02MO 02MC 02RD 02RO	1	0	1.0907869339	-384.0	197.0	-387	194	1
2.7	2015_May_22_1535	s	s	13	5	SIC	33	RC	1	1	02VD 02VO 02VC 02MD 09MO 02MC 02RD 02RO	0	1	1.26575112343	-537.0	-400.0	None	None	0
2.7	2015_May_22_1535	s	s	13	5	SIC	34	RC	2	1	02VD 09VO 02VC 02MD 02MO 02MC 02RD 02RO	1	0	0.926648855209	45.0	-351.0	46	-353	1
2.7	2015_May_22_1535	s	s	13	5	SIC	35	ABS	1	2	02VD 02VO 02VC 10MD 02MO 02MC 02RD 02RO	0	1	1.2421309948	None	None	None	None	1
2.7	2015_May_22_1535	s	s	13	5	SIC	36	RC	2	0	02VD 02VO 09VC 02MD 02MO 02MC 02RD 02RO	1	0	1.03271794319	-438.0	-11.0	-439	-12	1
2.7	2015_May_22_1535	s	s	13	5	SIC	37	ABS	2	0	02VD 02VO 10VC 02MD 02MO 02MC 02RD 02RO	0	1	1.25334692001	None	None	None	None	1
2.7	2015_May_22_1535	s	s	13	5	SIC	38	RC	1	2	02VD 02VO 02VC 09MD 02MO 02MC 02RD 02RO	1	0	1.34796094894	-45.0	68.0	-43	73	1
2.7	2015_May_22_1535	s	s	13	5	SIC	39	ABS	1	1	02VD 02VO 02VC 02MD 10MO 02MC 02RD 02RO	0	1	2.2358148098	None	None	None	None	1
2.7	2015_May_22_1535	s	s	13	5	SIC	40	ABS	1	0	02VD 02VO 02VC 02MD 02MO 10MC 02RD 02RO	0	1	1.34803390503	None	None	None	None	1
2.7	2015_May_22_1535	s	s	13	5	SIC	41	ABS	0	2	02VD 02VO 02VC 02MD 02MO 02MC 10RD 02RO	0	1	1.2234389782	None	None	None	None	1
2.7	2015_May_22_1535	s	s	13	5	SIC	42	ABS	2	2	10VD 02VO 02VC 02MD 02MO 02MC 02RD 02RO	0	1	1.12944889069	None	None	None	None	1
2.7	2015_May_22_1535	s	s	13	5	SIC	43	ABS	0	1	02VD 02VO 02VC 02MD 02MO 02MC 02RD 10RO	0	1	3.00672483444	None	None	None	None	1
2.7	2015_May_22_1535	s	s	13	5	SIC	44	RC	0	2	02VD 02VO 02VC 02MD 02MO 02MC 09RD 02RO	1	0	0.96200299263	-165.0	129.0	-169	134	1
2.7	2015_May_22_1535	s	s	13	5	SIC	45	RC	2	2	09VD 02VO 02VC 02MD 02MO 02MC 02RD 02RO	1	0	1.23267889023	-290.0	157.0	-292	152	1
2.7	2015_May_22_1535	s	s	13	5	SIC	46	RC	1	0	02VD 02VO 02VC 02MD 02MO 09MC 02RD 02RO	1	0	1.88025093079	-75.0	298.0	-74	298	1
2.7	2015_May_22_1535	s	s	13	5	SIC	47	ABS	2	1	02VD 10VO 02VC 02MD 02MO 02MC 02RD 02RO	0	1	1.33647918701	None	None	None	None	1
2.7	2015_May_22_1535	s	s	13	5	SIC	48	RC	0	1	02VD 02VO 02VC 02MD 02MO 02MC 02RD 09RO	1	0	1.29414916039	371.0	266.0	368	271	1
2.7	2015_May_22_1535	s	s	13	5	SIC	49	RC	1	1	02VD 02VO 02VC 02MD 09MO 02MC 02RD 02RO	1	0	0.891352891922	-352.0	-91.0	-343	-94	1
2.7	2015_May_22_1535	s	s	13	5	SIC	50	RC	1	0	02VD 02VO 02VC 02MD 02MO 09MC 02RD 02RO	1	0	1.09437298775	-12.0	-242.0	-3	-241	1
2.7	2015_May_22_1535	s	s	13	5	SIC	51	ABS	1	2	02VD 02VO 02VC 10MD 02MO 02MC 02RD 02RO	0	1	1.01798391342	None	None	None	None	1
2.7	2015_May_22_1535	s	s	13	5	SIC	52	RC	1	2	02VD 02VO 02VC 09MD 02MO 02MC 02RD 02RO	0	1	1.34127306938	189.0	113.0	None	None	0
2.7	2015_May_22_1535	s	s	13	5	SIC	53	RC	2	0	02VD 02VO 09VC 02MD 02MO 02MC 02RD 02RO	1	0	0.538357973099	116.0	-20.0	118	-22	1
2.7	2015_May_22_1535	s	s	13	5	SIC	54	ABS	2	2	10VD 02VO 02VC 02MD 02MO 02MC 02RD 02RO	0	1	1.31498885155	None	None	None	None	1
2.7	2015_May_22_1535	s	s	13	5	SIC	55	RC	0	1	02VD 02VO 02VC 02MD 02MO 02MC 02RD 09RO	1	0	1.34739899635	241.0	-258.0	237	-261	1
2.7	2015_May_22_1535	s	s	13	5	SIC	56	ABS	0	1	02VD 02VO 02VC 02MD 02MO 02MC 02RD 10RO	0	1	2.3248898983	None	None	None	None	1
2.7	2015_May_22_1535	s	s	13	5	SIC	57	RC	2	2	09VD 02VO 02VC 02MD 02MO 02MC 02RD 02RO	1	0	0.55265712738	319.0	120.0	319	119	1
2.7	2015_May_22_1535	s	s	13	5	SIC	58	ABS	0	2	02VD 02VO 02VC 02MD 02MO 02MC 10RD 02RO	0	1	2.01208019257	None	None	None	None	1
2.7	2015_May_22_1535	s	s	13	5	SIC	59	RC	2	1	02VD 09VO 02VC 02MD 02MO 02MC 02RD 02RO	1	0	0.811550140381	97.0	-30.0	92	-31	1
2.7	2015_May_22_1535	s	s	13	5	SIC	60	ABS	1	1	02VD 02VO 02VC 02MD 10MO 02MC 02RD 02RO	0	1	2.87135505676	None	None	None	None	1
2.7	2015_May_22_1535	s	s	13	5	SIC	61	ABS	1	0	02VD 02VO 02VC 02MD 02MO 10MC 02RD 02RO	0	1	2.07467913628	None	None	None	None	1
2.7	2015_May_22_1535	s	s	13	5	SIC	62	ABS	2	0	02VD 02VO 10VC 02MD 02MO 02MC 02RD 02RO	0	1	1.74143505096	None	None	None	None	1
2.7	2015_May_22_1535	s	s	13	5	SIC	63	RC	0	2	02VD 02VO 02VC 02MD 02MO 02MC 09RD 02RO	1	0	2.25934004784	-209.0	-374.0	-212	-382	1
2.7	2015_May_22_1535	s	s	13	5	SIC	64	ABS	2	1	02VD 10VO 02VC 02MD 02MO 02MC 02RD 02RO	0	1	1.28983902931	None	None	None	None	1
2.7	2015_May_22_1535	s	s	13	5	SIC	65	ABS	1	0	02VD 02VO 02VC 02MD 02MO 10MC 02RD 02RO	0	1	1.11532402039	None	None	None	None	1
2.7	2015_May_22_1535	s	s	13	5	SIC	66	RC	2	2	09VD 02VO 02VC 02MD 02MO 02MC 02RD 02RO	1	0	1.63295578957	-532.0	-92.0	-529	-90	1
2.7	2015_May_22_1535	s	s	13	5	SIC	67	RC	0	1	02VD 02VO 02VC 02MD 02MO 02MC 02RD 09RO	1	0	2.26664590836	-451.0	-307.0	-452	-311	1
2.7	2015_May_22_1535	s	s	13	5	SIC	68	ABS	0	2	02VD 02VO 02VC 02MD 02MO 02MC 10RD 02RO	0	1	1.32427000999	None	None	None	None	1
2.7	2015_May_22_1535	s	s	13	5	SIC	69	ABS	0	1	02VD 02VO 02VC 02MD 02MO 02MC 02RD 10RO	0	1	2.95760989189	None	None	None	None	1
2.7	2015_May_22_1535	s	s	13	5	SIC	70	ABS	1	1	02VD 02VO 02VC 02MD 10MO 02MC 02RD 02RO	1	0	1.74137997627	None	None	-80	-32	0
2.7	2015_May_22_1535	s	s	13	5	SIC	71	ABS	2	2	10VD 02VO 02VC 02MD 02MO 02MC 02RD 02RO	0	1	1.28881502151	None	None	None	None	1
2.7	2015_May_22_1535	s	s	13	5	SIC	72	ABS	1	2	02VD 02VO 02VC 10MD 02MO 02MC 02RD 02RO	0	1	1.82194399834	None	None	None	None	1
2.7	2015_May_22_1535	s	s	13	5	SIC	73	ABS	2	0	02VD 02VO 10VC 02MD 02MO 02MC 02RD 02RO	0	1	1.40025210381	None	None	None	None	1
2.7	2015_May_22_1535	s	s	13	5	SIC	74	RC	0	2	02VD 02VO 02VC 02MD 02MO 02MC 09RD 02RO	1	0	1.2304880619	-170.0	-357.0	-173	-358	1
2.7	2015_May_22_1535	s	s	13	5	SIC	75	RC	2	1	02VD 09VO 02VC 02MD 02MO 02MC 02RD 02RO	1	0	1.54124903679	-418.0	348.0	-426	348	1
2.7	2015_May_22_1535	s	s	13	5	SIC	76	ABS	2	1	02VD 10VO 02VC 02MD 02MO 02MC 02RD 02RO	0	1	1.11745405197	None	None	None	None	1
2.7	2015_May_22_1535	s	s	13	5	SIC	77	RC	1	0	02VD 02VO 02VC 02MD 02MO 09MC 02RD 02RO	1	0	0.536108970642	161.0	67.0	163	70	1
2.7	2015_May_22_1535	s	s	13	5	SIC	78	RC	1	2	02VD 02VO 02VC 09MD 02MO 02MC 02RD 02RO	1	0	0.999648809433	44.0	-351.0	42	-352	1
2.7	2015_May_22_1535	s	s	13	5	SIC	79	RC	2	0	02VD 02VO 09VC 02MD 02MO 02MC 02RD 02RO	1	0	0.584026098251	179.0	96.0	180	94	1
2.7	2015_May_22_1535	s	s	13	5	SIC	80	RC	1	1	02VD 02VO 02VC 02MD 09MO 02MC 02RD 02RO	1	0	0.705676078796	10.0	-24.0	13	-26	1
2.7	2015_May_22_1535	s	s	13	5	SIC	81	RC	1	1	02VD 02VO 02VC 02MD 09MO 02MC 02RD 02RO	1	0	0.771300077438	334.0	-78.0	333	-78	1
2.7	2015_May_22_1535	s	s	13	5	SIC	82	RC	2	2	09VD 02VO 02VC 02MD 02MO 02MC 02RD 02RO	1	0	1.28235197067	-100.0	406.0	-102	410	1
2.7	2015_May_22_1535	s	s	13	5	SIC	83	ABS	0	2	02VD 02VO 02VC 02MD 02MO 02MC 10RD 02RO	0	1	1.75317788124	None	None	None	None	1
2.7	2015_May_22_1535	s	s	13	5	SIC	84	RC	2	1	02VD 09VO 02VC 02MD 02MO 02MC 02RD 02RO	1	0	0.658382177353	-95.0	-105.0	-88	-105	1
2.7	2015_May_22_1535	s	s	13	5	SIC	85	ABS	1	0	02VD 02VO 02VC 02MD 02MO 10MC 02RD 02RO	0	1	2.34837508202	None	None	None	None	1
2.7	2015_May_22_1535	s	s	13	5	SIC	86	RC	1	0	02VD 02VO 02VC 02MD 02MO 09MC 02RD 02RO	1	0	0.682001829147	-95.0	188.0	-94	191	1
2.7	2015_May_22_1535	s	s	13	5	SIC	87	ABS	2	0	02VD 02VO 10VC 02MD 02MO 02MC 02RD 02RO	0	1	1.12289094925	None	None	None	None	1
2.7	2015_May_22_1535	s	s	13	5	SIC	88	ABS	2	2	10VD 02VO 02VC 02MD 02MO 02MC 02RD 02RO	0	1	1.16207480431	None	None	None	None	1
2.7	2015_May_22_1535	s	s	13	5	SIC	89	RC	0	2	02VD 02VO 02VC 02MD 02MO 02MC 09RD 02RO	1	0	0.876660108566	105.0	146.0	112	147	1
2.7	2015_May_22_1535	s	s	13	5	SIC	90	RC	1	2	02VD 02VO 02VC 09MD 02MO 02MC 02RD 02RO	1	0	0.774119853973	347.0	317.0	344	323	1
2.7	2015_May_22_1535	s	s	13	5	SIC	91	ABS	2	1	02VD 10VO 02VC 02MD 02MO 02MC 02RD 02RO	0	1	1.60017895699	None	None	None	None	1
2.7	2015_May_22_1535	s	s	13	5	SIC	92	ABS	1	2	02VD 02VO 02VC 10MD 02MO 02MC 02RD 02RO	0	1	1.37025809288	None	None	None	None	1
2.7	2015_May_22_1535	s	s	13	5	SIC	93	ABS	1	1	02VD 02VO 02VC 02MD 10MO 02MC 02RD 02RO	0	1	1.91240406036	None	None	None	None	1
2.7	2015_May_22_1535	s	s	13	5	SIC	94	RC	2	0	02VD 02VO 09VC 02MD 02MO 02MC 02RD 02RO	1	0	0.89141201973	516.0	38.0	521	38	1
2.7	2015_May_22_1535	s	s	13	5	SIC	95	ABS	0	1	02VD 02VO 02VC 02MD 02MO 02MC 02RD 10RO	0	1	2.17400407791	None	None	None	None	1
2.7	2015_May_22_1535	s	s	13	5	SIC	96	RC	0	1	02VD 02VO 02VC 02MD 02MO 02MC 02RD 09RO	1	0	2.1368689537	-379.0	-410.0	-381	-414	1
2.7	2015_May_22_1535	s	s	13	5	SIC	97	ABS	1	2	02VD 02VO 02VC 10MD 02MO 02MC 02RD 02RO	0	1	1.30590081215	None	None	None	None	1
2.7	2015_May_22_1535	s	s	13	5	SIC	98	RC	1	2	02VD 02VO 02VC 09MD 02MO 02MC 02RD 02RO	1	0	1.10137701035	-373.0	219.0	-374	219	1
2.7	2015_May_22_1535	s	s	13	5	SIC	99	ABS	2	1	02VD 10VO 02VC 02MD 02MO 02MC 02RD 02RO	0	1	1.67707109451	None	None	None	None	1
2.7	2015_May_22_1535	s	s	13	5	SIC	100	ABS	0	1	02VD 02VO 02VC 02MD 02MO 02MC 02RD 10RO	0	1	3.0398619175	None	None	None	None	1
2.7	2015_May_22_1535	s	s	13	5	SIC	101	RC	1	0	02VD 02VO 02VC 02MD 02MO 09MC 02RD 02RO	1	0	0.679509162903	210.0	149.0	212	146	1
2.7	2015_May_22_1535	s	s	13	5	SIC	102	ABS	2	2	10VD 02VO 02VC 02MD 02MO 02MC 02RD 02RO	0	1	1.43539309502	None	None	None	None	1
2.7	2015_May_22_1535	s	s	13	5	SIC	103	ABS	1	0	02VD 02VO 02VC 02MD 02MO 10MC 02RD 02RO	0	1	1.65886497498	None	None	None	None	1
2.7	2015_May_22_1535	s	s	13	5	SIC	104	RC	0	2	02VD 02VO 02VC 02MD 02MO 02MC 09RD 02RO	1	0	0.634963035583	320.0	-242.0	313	-237	1
2.7	2015_May_22_1535	s	s	13	5	SIC	105	RC	2	0	02VD 02VO 09VC 02MD 02MO 02MC 02RD 02RO	1	0	0.676950931549	396.0	38.0	400	36	1
2.7	2015_May_22_1535	s	s	13	5	SIC	106	RC	1	1	02VD 02VO 02VC 02MD 09MO 02MC 02RD 02RO	1	0	0.97385597229	-351.0	117.0	-350	112	1
2.7	2015_May_22_1535	s	s	13	5	SIC	107	ABS	2	0	02VD 02VO 10VC 02MD 02MO 02MC 02RD 02RO	0	1	1.299669981	None	None	None	None	1
2.7	2015_May_22_1535	s	s	13	5	SIC	108	ABS	0	2	02VD 02VO 02VC 02MD 02MO 02MC 10RD 02RO	0	1	1.20635700226	None	None	None	None	1
2.7	2015_May_22_1535	s	s	13	5	SIC	109	RC	2	2	09VD 02VO 02VC 02MD 02MO 02MC 02RD 02RO	1	0	0.517158031464	300.0	53.0	291	50	1
2.7	2015_May_22_1535	s	s	13	5	SIC	110	RC	2	1	02VD 09VO 02VC 02MD 02MO 02MC 02RD 02RO	1	0	1.32929801941	-498.0	-384.0	-496	-385	1
2.7	2015_May_22_1535	s	s	13	5	SIC	111	ABS	1	1	02VD 02VO 02VC 02MD 10MO 02MC 02RD 02RO	0	1	1.37229800224	None	None	None	None	1
2.7	2015_May_22_1535	s	s	13	5	SIC	112	RC	0	1	02VD 02VO 02VC 02MD 02MO 02MC 02RD 09RO	1	0	0.950397968292	301.0	-344.0	302	-338	1
2.7	2015_May_22_1535	s	s	13	5	SIC	113	RC	2	0	02VD 02VO 09VC 02MD 02MO 02MC 02RD 02RO	1	0	1.54702806473	-73.0	-385.0	-80	-384	1
2.7	2015_May_22_1535	s	s	13	5	SIC	114	ABS	1	2	02VD 02VO 02VC 10MD 02MO 02MC 02RD 02RO	0	1	1.7854719162	None	None	None	None	1
2.7	2015_May_22_1535	s	s	13	5	SIC	115	ABS	2	0	02VD 02VO 10VC 02MD 02MO 02MC 02RD 02RO	0	1	1.98473596573	None	None	None	None	1
2.7	2015_May_22_1535	s	s	13	5	SIC	116	ABS	1	1	02VD 02VO 02VC 02MD 10MO 02MC 02RD 02RO	0	1	1.54128718376	None	None	None	None	1
2.7	2015_May_22_1535	s	s	13	5	SIC	117	RC	0	1	02VD 02VO 02VC 02MD 02MO 02MC 02RD 09RO	1	0	1.50158596039	1.0	341.0	1	334	1
2.7	2015_May_22_1535	s	s	13	5	SIC	118	ABS	1	0	02VD 02VO 02VC 02MD 02MO 10MC 02RD 02RO	1	0	1.07037591934	None	None	-132	-277	0
2.7	2015_May_22_1535	s	s	13	5	SIC	119	RC	1	2	02VD 02VO 02VC 09MD 02MO 02MC 02RD 02RO	1	0	1.3357257843	390.0	308.0	392	310	1
2.7	2015_May_22_1535	s	s	13	5	SIC	120	RC	1	0	02VD 02VO 02VC 02MD 02MO 09MC 02RD 02RO	1	0	0.54497718811	164.0	177.0	170	180	1
2.7	2015_May_22_1535	s	s	13	5	SIC	121	RC	0	2	02VD 02VO 02VC 02MD 02MO 02MC 09RD 02RO	1	0	1.31773686409	-347.0	-343.0	-344	-341	1
2.7	2015_May_22_1535	s	s	13	5	SIC	122	ABS	2	2	10VD 02VO 02VC 02MD 02MO 02MC 02RD 02RO	0	1	1.54127979279	None	None	None	None	1
2.7	2015_May_22_1535	s	s	13	5	SIC	123	RC	2	1	02VD 09VO 02VC 02MD 02MO 02MC 02RD 02RO	1	0	1.41170501709	-505.0	-301.0	-505	-304	1
2.7	2015_May_22_1535	s	s	13	5	SIC	124	RC	1	1	02VD 02VO 02VC 02MD 09MO 02MC 02RD 02RO	1	0	1.32938790321	-278.0	-96.0	-278	-90	1
2.7	2015_May_22_1535	s	s	13	5	SIC	125	ABS	2	1	02VD 10VO 02VC 02MD 02MO 02MC 02RD 02RO	0	1	1.45311784744	None	None	None	None	1
2.7	2015_May_22_1535	s	s	13	5	SIC	126	ABS	0	2	02VD 02VO 02VC 02MD 02MO 02MC 10RD 02RO	0	1	1.17346215248	None	None	None	None	1
2.7	2015_May_22_1535	s	s	13	5	SIC	127	RC	2	2	09VD 02VO 02VC 02MD 02MO 02MC 02RD 02RO	1	0	0.741159915924	-11.0	-196.0	-8	-198	1
2.7	2015_May_22_1535	s	s	13	5	SIC	128	ABS	0	1	02VD 02VO 02VC 02MD 02MO 02MC 02RD 10RO	0	1	2.7138569355	None	None	None	None	1
2.7	2015_May_22_1535	s	s	13	5	SIC	129	ABS	1	1	02VD 02VO 02VC 02MD 10MO 02MC 02RD 02RO	0	1	2.14206504822	None	None	None	None	1
2.7	2015_May_22_1535	s	s	13	5	SIC	130	ABS	1	0	02VD 02VO 02VC 02MD 02MO 10MC 02RD 02RO	0	1	1.18816781044	None	None	None	None	1
2.7	2015_May_22_1535	s	s	13	5	SIC	131	RC	1	0	02VD 02VO 02VC 02MD 02MO 09MC 02RD 02RO	1	0	0.740866184235	-113.0	-74.0	-112	-81	1
2.7	2015_May_22_1535	s	s	13	5	SIC	132	RC	0	1	02VD 02VO 02VC 02MD 02MO 02MC 02RD 09RO	1	0	1.15926885605	-78.0	338.0	-70	335	1
2.7	2015_May_22_1535	s	s	13	5	SIC	133	RC	1	2	02VD 02VO 02VC 09MD 02MO 02MC 02RD 02RO	1	0	1.18824696541	-494.0	203.0	-495	207	1
2.7	2015_May_22_1535	s	s	13	5	SIC	134	ABS	2	0	02VD 02VO 10VC 02MD 02MO 02MC 02RD 02RO	0	1	1.48240280151	None	None	None	None	1
2.7	2015_May_22_1535	s	s	13	5	SIC	135	RC	2	0	02VD 02VO 09VC 02MD 02MO 02MC 02RD 02RO	1	0	0.961211204529	121.0	-105.0	130	-109	1
2.7	2015_May_22_1535	s	s	13	5	SIC	136	ABS	1	2	02VD 02VO 02VC 10MD 02MO 02MC 02RD 02RO	0	1	1.56228613853	None	None	None	None	1
2.7	2015_May_22_1535	s	s	13	5	SIC	137	RC	1	1	02VD 02VO 02VC 02MD 09MO 02MC 02RD 02RO	1	0	1.71813082695	-510.0	222.0	-510	221	1
2.7	2015_May_22_1535	s	s	13	5	SIC	138	ABS	0	2	02VD 02VO 02VC 02MD 02MO 02MC 10RD 02RO	0	1	1.69171214104	None	None	None	None	1
2.7	2015_May_22_1535	s	s	13	5	SIC	139	ABS	2	1	02VD 10VO 02VC 02MD 02MO 02MC 02RD 02RO	0	1	1.50101280212	None	None	None	None	1
2.7	2015_May_22_1535	s	s	13	5	SIC	140	RC	2	1	02VD 09VO 02VC 02MD 02MO 02MC 02RD 02RO	1	0	0.764513015747	-87.0	253.0	-87	251	1
2.7	2015_May_22_1535	s	s	13	5	SIC	141	RC	0	2	02VD 02VO 02VC 02MD 02MO 02MC 09RD 02RO	1	0	1.15288901329	-390.0	99.0	-386	98	1
2.7	2015_May_22_1535	s	s	13	5	SIC	142	ABS	2	2	10VD 02VO 02VC 02MD 02MO 02MC 02RD 02RO	0	1	1.84278512001	None	None	None	None	1
2.7	2015_May_22_1535	s	s	13	5	SIC	143	ABS	0	1	02VD 02VO 02VC 02MD 02MO 02MC 02RD 10RO	0	1	4.09542179108	None	None	None	None	1
2.7	2015_May_22_1535	s	s	13	5	SIC	144	RC	2	2	09VD 02VO 02VC 02MD 02MO 02MC 02RD 02RO	1	0	1.18550109863	392.0	-319.0	392	-313	1
2.7	2015_May_22_1535	s	s	13	5	SIC	145	ABS	0	1	02VD 02VO 02VC 02MD 02MO 02MC 02RD 10RO	0	1	2.30647706985	None	None	None	None	1
2.7	2015_May_22_1535	s	s	13	5	SIC	146	RC	2	1	02VD 09VO 02VC 02MD 02MO 02MC 02RD 02RO	1	0	1.14933896065	-72.0	271.0	-75	267	1
2.7	2015_May_22_1535	s	s	13	5	SIC	147	ABS	2	2	10VD 02VO 02VC 02MD 02MO 02MC 02RD 02RO	0	1	1.57658791542	None	None	None	None	1
2.7	2015_May_22_1535	s	s	13	5	SIC	148	RC	0	2	02VD 02VO 02VC 02MD 02MO 02MC 09RD 02RO	0	1	1.59459996223	471.0	22.0	None	None	0
2.7	2015_May_22_1535	s	s	13	5	SIC	149	RC	2	2	09VD 02VO 02VC 02MD 02MO 02MC 02RD 02RO	1	0	0.964996099472	4.0	355.0	1	354	1
2.7	2015_May_22_1535	s	s	13	5	SIC	150	ABS	1	1	02VD 02VO 02VC 02MD 10MO 02MC 02RD 02RO	0	1	1.52953100204	None	None	None	None	1
2.7	2015_May_22_1535	s	s	13	5	SIC	151	RC	0	1	02VD 02VO 02VC 02MD 02MO 02MC 02RD 09RO	1	0	2.50653409958	-37.0	-282.0	-30	-283	1
2.7	2015_May_22_1535	s	s	13	5	SIC	152	ABS	0	2	02VD 02VO 02VC 02MD 02MO 02MC 10RD 02RO	0	1	2.09456205368	None	None	None	None	1
2.7	2015_May_22_1535	s	s	13	5	SIC	153	ABS	1	0	02VD 02VO 02VC 02MD 02MO 10MC 02RD 02RO	0	1	1.43540692329	None	None	None	None	1
2.7	2015_May_22_1535	s	s	13	5	SIC	154	RC	1	2	02VD 02VO 02VC 09MD 02MO 02MC 02RD 02RO	1	0	1.10248804092	346.0	-267.0	349	-269	1
2.7	2015_May_22_1535	s	s	13	5	SIC	155	RC	2	0	02VD 02VO 09VC 02MD 02MO 02MC 02RD 02RO	1	0	1.17401885986	437.0	-232.0	442	-233	1
2.7	2015_May_22_1535	s	s	13	5	SIC	156	RC	1	0	02VD 02VO 02VC 02MD 02MO 09MC 02RD 02RO	1	0	0.776170969009	-180.0	226.0	-174	219	1
2.7	2015_May_22_1535	s	s	13	5	SIC	157	ABS	1	2	02VD 02VO 02VC 10MD 02MO 02MC 02RD 02RO	0	1	1.15033698082	None	None	None	None	1
2.7	2015_May_22_1535	s	s	13	5	SIC	158	ABS	2	1	02VD 10VO 02VC 02MD 02MO 02MC 02RD 02RO	0	1	1.43537783623	None	None	None	None	1
2.7	2015_May_22_1535	s	s	13	5	SIC	159	RC	1	1	02VD 02VO 02VC 02MD 09MO 02MC 02RD 02RO	1	0	0.576165914536	139.0	293.0	135	291	1
2.7	2015_May_22_1535	s	s	13	5	SIC	160	ABS	2	0	02VD 02VO 10VC 02MD 02MO 02MC 02RD 02RO	0	1	1.42362809181	None	None	None	None	1
2.7	2015_May_22_1535	s	s	13	5	SIC	161	RC	1	0	02VD 02VO 02VC 02MD 02MO 09MC 02RD 02RO	1	0	0.72110915184	127.0	276.0	121	280	1
2.7	2015_May_22_1535	s	s	13	5	SIC	162	ABS	2	1	02VD 10VO 02VC 02MD 02MO 02MC 02RD 02RO	0	1	1.91256213188	None	None	None	None	1
2.7	2015_May_22_1535	s	s	13	5	SIC	163	ABS	1	2	02VD 02VO 02VC 10MD 02MO 02MC 02RD 02RO	0	1	1.07053089142	None	None	None	None	1
2.7	2015_May_22_1535	s	s	13	5	SIC	164	ABS	0	2	02VD 02VO 02VC 02MD 02MO 02MC 10RD 02RO	0	1	1.42940497398	None	None	None	None	1
2.7	2015_May_22_1535	s	s	13	5	SIC	165	ABS	1	1	02VD 02VO 02VC 02MD 10MO 02MC 02RD 02RO	0	1	1.54116201401	None	None	None	None	1
2.7	2015_May_22_1535	s	s	13	5	SIC	166	ABS	1	0	02VD 02VO 02VC 02MD 02MO 10MC 02RD 02RO	0	1	1.4327878952	None	None	None	None	1
2.7	2015_May_22_1535	s	s	13	5	SIC	167	ABS	2	2	10VD 02VO 02VC 02MD 02MO 02MC 02RD 02RO	0	1	1.27685189247	None	None	None	None	1
2.7	2015_May_22_1535	s	s	13	5	SIC	168	RC	0	2	02VD 02VO 02VC 02MD 02MO 02MC 09RD 02RO	1	0	1.1175839901	-323.0	-132.0	-324	-132	1
2.7	2015_May_22_1535	s	s	13	5	SIC	169	RC	2	1	02VD 09VO 02VC 02MD 02MO 02MC 02RD 02RO	1	0	0.818331956863	270.0	-213.0	270	-212	1
2.7	2015_May_22_1535	s	s	13	5	SIC	170	RC	0	1	02VD 02VO 02VC 02MD 02MO 02MC 02RD 09RO	1	0	1.68258190155	-344.0	-398.0	-352	-400	1
2.7	2015_May_22_1535	s	s	13	5	SIC	171	ABS	2	0	02VD 02VO 10VC 02MD 02MO 02MC 02RD 02RO	0	1	1.41866397858	None	None	None	None	1
2.7	2015_May_22_1535	s	s	13	5	SIC	172	RC	2	0	02VD 02VO 09VC 02MD 02MO 02MC 02RD 02RO	1	0	0.740843057632	167.0	-176.0	160	-182	1
2.7	2015_May_22_1535	s	s	13	5	SIC	173	RC	1	2	02VD 02VO 02VC 09MD 02MO 02MC 02RD 02RO	1	0	1.40010905266	-493.0	-324.0	-483	-322	1
2.7	2015_May_22_1535	s	s	13	5	SIC	174	RC	1	1	02VD 02VO 02VC 02MD 09MO 02MC 02RD 02RO	1	0	1.75034189224	-300.0	238.0	-299	230	1
2.7	2015_May_22_1535	s	s	13	5	SIC	175	RC	2	2	09VD 02VO 02VC 02MD 02MO 02MC 02RD 02RO	1	0	1.06529092789	-460.0	195.0	-458	199	1
2.7	2015_May_22_1535	s	s	13	5	SIC	176	ABS	0	1	02VD 02VO 02VC 02MD 02MO 02MC 02RD 10RO	0	1	3.47977900505	None	None	None	None	1
2.7	2015_May_22_1535	s	s	13	5	SIC	177	RC	2	0	02VD 02VO 09VC 02MD 02MO 02MC 02RD 02RO	1	0	0.999836921692	-290.0	-232.0	-290	-231	1
2.7	2015_May_22_1535	s	s	13	5	SIC	178	RC	2	2	09VD 02VO 02VC 02MD 02MO 02MC 02RD 02RO	1	0	0.635125875473	-287.0	-13.0	-286	-13	1
2.7	2015_May_22_1535	s	s	13	5	SIC	179	ABS	2	1	02VD 10VO 02VC 02MD 02MO 02MC 02RD 02RO	0	1	2.11543703079	None	None	None	None	1
2.7	2015_May_22_1535	s	s	13	5	SIC	180	RC	0	1	02VD 02VO 02VC 02MD 02MO 02MC 02RD 09RO	1	0	0.984675884247	-183.0	277.0	-186	279	1
2.7	2015_May_22_1535	s	s	13	5	SIC	181	RC	1	0	02VD 02VO 02VC 02MD 02MO 09MC 02RD 02RO	1	0	0.984925031662	-194.0	34.0	-200	39	1
2.7	2015_May_22_1535	s	s	13	5	SIC	182	ABS	2	0	02VD 02VO 10VC 02MD 02MO 02MC 02RD 02RO	0	1	1.6768989563	None	None	None	None	1
2.7	2015_May_22_1535	s	s	13	5	SIC	183	ABS	1	2	02VD 02VO 02VC 10MD 02MO 02MC 02RD 02RO	0	1	1.39747810364	None	None	None	None	1
2.7	2015_May_22_1535	s	s	13	5	SIC	184	RC	1	2	02VD 02VO 02VC 09MD 02MO 02MC 02RD 02RO	1	0	0.879585027695	23.0	-204.0	31	-203	1
2.7	2015_May_22_1535	s	s	13	5	SIC	185	RC	1	1	02VD 02VO 02VC 02MD 09MO 02MC 02RD 02RO	1	0	1.68243408203	-436.0	-378.0	-428	-383	1
2.7	2015_May_22_1535	s	s	13	5	SIC	186	RC	2	1	02VD 09VO 02VC 02MD 02MO 02MC 02RD 02RO	1	0	1.28038907051	482.0	-293.0	488	-295	1
2.7	2015_May_22_1535	s	s	13	5	SIC	187	ABS	0	2	02VD 02VO 02VC 02MD 02MO 02MC 10RD 02RO	0	1	1.86606884003	None	None	None	None	1
2.7	2015_May_22_1535	s	s	13	5	SIC	188	ABS	0	1	02VD 02VO 02VC 02MD 02MO 02MC 02RD 10RO	0	1	2.63589692116	None	None	None	None	1
2.7	2015_May_22_1535	s	s	13	5	SIC	189	ABS	1	0	02VD 02VO 02VC 02MD 02MO 10MC 02RD 02RO	0	1	1.98237800598	None	None	None	None	1
2.7	2015_May_22_1535	s	s	13	5	SIC	190	ABS	1	1	02VD 02VO 02VC 02MD 10MO 02MC 02RD 02RO	0	1	1.5411670208	None	None	None	None	1
2.7	2015_May_22_1535	s	s	13	5	SIC	191	ABS	2	2	10VD 02VO 02VC 02MD 02MO 02MC 02RD 02RO	0	1	1.07784509659	None	None	None	None	1
2.7	2015_May_22_1535	s	s	13	5	SIC	192	RC	0	2	02VD 02VO 02VC 02MD 02MO 02MC 09RD 02RO	1	0	0.740879058838	452.0	-103.0	455	-108	1
2.7	2015_May_22_1535	s	s	13	5	SIC	193	RC	1	2	02VD 02VO 02VC 09MD 02MO 02MC 02RD 02RO	1	0	0.823312997818	411.0	-254.0	413	-253	1
2.7	2015_May_22_1535	s	s	13	5	SIC	194	RC	2	1	02VD 09VO 02VC 02MD 02MO 02MC 02RD 02RO	1	0	0.559637069702	299.0	-123.0	308	-125	1
2.7	2015_May_22_1535	s	s	13	5	SIC	195	ABS	1	0	02VD 02VO 02VC 02MD 02MO 10MC 02RD 02RO	0	1	2.11179304123	None	None	None	None	1
2.7	2015_May_22_1535	s	s	13	5	SIC	196	ABS	0	2	02VD 02VO 02VC 02MD 02MO 02MC 10RD 02RO	0	1	1.25363397598	None	None	None	None	1
2.7	2015_May_22_1535	s	s	13	5	SIC	197	RC	2	0	02VD 02VO 09VC 02MD 02MO 02MC 02RD 02RO	1	0	1.00835609436	74.0	-226.0	77	-218	1
2.7	2015_May_22_1535	s	s	13	5	SIC	198	ABS	2	0	02VD 02VO 10VC 02MD 02MO 02MC 02RD 02RO	0	1	1.87782692909	None	None	None	None	1
2.7	2015_May_22_1535	s	s	13	5	SIC	199	RC	1	0	02VD 02VO 02VC 02MD 02MO 09MC 02RD 02RO	1	0	1.19435977936	389.0	-219.0	386	-212	1
2.7	2015_May_22_1535	s	s	13	5	SIC	200	RC	0	2	02VD 02VO 02VC 02MD 02MO 02MC 09RD 02RO	1	0	0.830374956131	258.0	-381.0	262	-380	1
2.7	2015_May_22_1535	s	s	13	5	SIC	201	ABS	0	1	02VD 02VO 02VC 02MD 02MO 02MC 02RD 10RO	0	1	3.75165486336	None	None	None	None	1
2.7	2015_May_22_1535	s	s	13	5	SIC	202	RC	1	1	02VD 02VO 02VC 02MD 09MO 02MC 02RD 02RO	1	0	0.905689001083	147.0	162.0	153	160	1
2.7	2015_May_22_1535	s	s	13	5	SIC	203	ABS	1	1	02VD 02VO 02VC 02MD 10MO 02MC 02RD 02RO	0	1	1.98843502998	None	None	None	None	1
2.7	2015_May_22_1535	s	s	13	5	SIC	204	RC	0	1	02VD 02VO 02VC 02MD 02MO 02MC 02RD 09RO	1	0	1.40933585167	-52.0	-315.0	-45	-315	1
2.7	2015_May_22_1535	s	s	13	5	SIC	205	ABS	2	1	02VD 10VO 02VC 02MD 02MO 02MC 02RD 02RO	1	0	0.864639043808	None	None	538	-85	0
2.7	2015_May_22_1535	s	s	13	5	SIC	206	ABS	1	2	02VD 02VO 02VC 10MD 02MO 02MC 02RD 02RO	0	1	1.52737188339	None	None	None	None	1
2.7	2015_May_22_1535	s	s	13	5	SIC	207	ABS	2	2	10VD 02VO 02VC 02MD 02MO 02MC 02RD 02RO	0	1	1.5829410553	None	None	None	None	1
2.7	2015_May_22_1535	s	s	13	5	SIC	208	RC	2	2	09VD 02VO 02VC 02MD 02MO 02MC 02RD 02RO	1	0	1.03267979622	338.0	389.0	339	389	1
2.7	2015_May_22_1535	s	s	13	5	SIC	209	RC	0	1	02VD 02VO 02VC 02MD 02MO 02MC 02RD 09RO	1	0	1.72587299347	107.0	-153.0	109	-155	1
2.7	2015_May_22_1535	s	s	13	5	SIC	210	RC	1	2	02VD 02VO 02VC 09MD 02MO 02MC 02RD 02RO	1	0	0.738286972046	309.0	130.0	307	129	1
2.7	2015_May_22_1535	s	s	13	5	SIC	211	ABS	1	0	02VD 02VO 02VC 02MD 02MO 10MC 02RD 02RO	0	1	1.89436793327	None	None	None	None	1
2.7	2015_May_22_1535	s	s	13	5	SIC	212	ABS	0	1	02VD 02VO 02VC 02MD 02MO 02MC 02RD 10RO	0	1	3.64579415321	None	None	None	None	1
2.7	2015_May_22_1535	s	s	13	5	SIC	213	ABS	1	2	02VD 02VO 02VC 10MD 02MO 02MC 02RD 02RO	0	1	1.87072396278	None	None	None	None	1
2.7	2015_May_22_1535	s	s	13	5	SIC	214	ABS	1	1	02VD 02VO 02VC 02MD 10MO 02MC 02RD 02RO	0	1	1.85666799545	None	None	None	None	1
2.7	2015_May_22_1535	s	s	13	5	SIC	215	RC	2	0	02VD 02VO 09VC 02MD 02MO 02MC 02RD 02RO	1	0	1.27987623215	-521.0	64.0	-517	62	1
2.7	2015_May_22_1535	s	s	13	5	SIC	216	RC	2	1	02VD 09VO 02VC 02MD 02MO 02MC 02RD 02RO	1	0	1.69182896614	229.0	410.0	230	411	1
2.7	2015_May_22_1535	s	s	13	5	SIC	217	RC	1	0	02VD 02VO 02VC 02MD 02MO 09MC 02RD 02RO	1	0	1.3593249321	352.0	-384.0	346	-381	1
2.7	2015_May_22_1535	s	s	13	5	SIC	218	ABS	2	1	02VD 10VO 02VC 02MD 02MO 02MC 02RD 02RO	0	1	1.62375593185	None	None	None	None	1
2.7	2015_May_22_1535	s	s	13	5	SIC	219	RC	2	2	09VD 02VO 02VC 02MD 02MO 02MC 02RD 02RO	1	0	0.929197072983	-117.0	369.0	-119	371	1
2.7	2015_May_22_1535	s	s	13	5	SIC	220	ABS	0	2	02VD 02VO 02VC 02MD 02MO 02MC 10RD 02RO	0	1	1.60020709038	None	None	None	None	1
2.7	2015_May_22_1535	s	s	13	5	SIC	221	RC	0	2	02VD 02VO 02VC 02MD 02MO 02MC 09RD 02RO	1	0	2.61248922348	289.0	-48.0	294	-42	1
2.7	2015_May_22_1535	s	s	13	5	SIC	222	ABS	2	2	10VD 02VO 02VC 02MD 02MO 02MC 02RD 02RO	0	1	1.30591702461	None	None	None	None	1
2.7	2015_May_22_1535	s	s	13	5	SIC	223	RC	1	1	02VD 02VO 02VC 02MD 09MO 02MC 02RD 02RO	1	0	1.0093588829	-301.0	-404.0	-299	-407	1
2.7	2015_May_22_1535	s	s	13	5	SIC	224	ABS	2	0	02VD 02VO 10VC 02MD 02MO 02MC 02RD 02RO	0	1	1.52507519722	None	None	None	None	1
2.7	2015_May_22_1535	s	s	13	5	SIC	225	RC	0	1	02VD 02VO 02VC 02MD 02MO 02MC 02RD 09RO	1	0	1.29404807091	-8.0	-400.0	-5	-398	1
2.7	2015_May_22_1535	s	s	13	5	SIC	226	ABS	1	2	02VD 02VO 02VC 10MD 02MO 02MC 02RD 02RO	0	1	1.22088003159	None	None	None	None	1
2.7	2015_May_22_1535	s	s	13	5	SIC	227	RC	2	1	02VD 09VO 02VC 02MD 02MO 02MC 02RD 02RO	1	0	1.66547608376	-436.0	-295.0	-439	-297	1
2.7	2015_May_22_1535	s	s	13	5	SIC	228	RC	0	2	02VD 02VO 02VC 02MD 02MO 02MC 09RD 02RO	1	0	0.961086988449	69.0	47.0	74	44	1
2.7	2015_May_22_1535	s	s	13	5	SIC	229	RC	1	0	02VD 02VO 02VC 02MD 02MO 09MC 02RD 02RO	1	0	0.705634117126	289.0	-148.0	280	-147	1
2.7	2015_May_22_1535	s	s	13	5	SIC	230	RC	2	0	02VD 02VO 09VC 02MD 02MO 02MC 02RD 02RO	1	0	0.764430999756	19.0	-127.0	15	-125	1
2.7	2015_May_22_1535	s	s	13	5	SIC	231	ABS	2	2	10VD 02VO 02VC 02MD 02MO 02MC 02RD 02RO	1	0	1.36261487007	None	None	-21	-194	0
2.7	2015_May_22_1535	s	s	13	5	SIC	232	ABS	0	2	02VD 02VO 02VC 02MD 02MO 02MC 10RD 02RO	0	1	1.47809696198	None	None	None	None	1
2.7	2015_May_22_1535	s	s	13	5	SIC	233	ABS	1	1	02VD 02VO 02VC 02MD 10MO 02MC 02RD 02RO	0	1	1.55315709114	None	None	None	None	1
2.7	2015_May_22_1535	s	s	13	5	SIC	234	RC	1	1	02VD 02VO 02VC 02MD 09MO 02MC 02RD 02RO	1	0	0.652127027512	48.0	117.0	49	114	1
2.7	2015_May_22_1535	s	s	13	5	SIC	235	RC	1	2	02VD 02VO 02VC 09MD 02MO 02MC 02RD 02RO	1	0	0.585367918015	187.0	156.0	193	161	1
2.7	2015_May_22_1535	s	s	13	5	SIC	236	ABS	1	0	02VD 02VO 02VC 02MD 02MO 10MC 02RD 02RO	0	1	2.13658595085	None	None	None	None	1
2.7	2015_May_22_1535	s	s	13	5	SIC	237	ABS	2	0	02VD 02VO 10VC 02MD 02MO 02MC 02RD 02RO	0	1	5.12467598915	None	None	None	None	1
2.7	2015_May_22_1535	s	s	13	5	SIC	238	ABS	0	1	02VD 02VO 02VC 02MD 02MO 02MC 02RD 10RO	1	0	3.21288704872	None	None	63	-36	0
2.7	2015_May_22_1535	s	s	13	5	SIC	239	ABS	2	1	02VD 10VO 02VC 02MD 02MO 02MC 02RD 02RO	0	1	1.55312395096	None	None	None	None	1
2.7	2015_May_22_1535	s	s	13	5	SIC	240	RC	2	2	09VD 02VO 02VC 02MD 02MO 02MC 02RD 02RO	1	0	1.47082996368	-450.0	-51.0	-449	-58	1
2.7	2015_May_22_1535	s	s	13	5	SIC	241	RC	2	0	02VD 02VO 09VC 02MD 02MO 02MC 02RD 02RO	1	0	0.752649068832	10.0	255.0	18	251	1
2.7	2015_May_22_1535	s	s	13	5	SIC	242	ABS	1	0	02VD 02VO 02VC 02MD 02MO 10MC 02RD 02RO	0	1	1.8801279068	None	None	None	None	1
2.7	2015_May_22_1535	s	s	13	5	SIC	243	ABS	1	1	02VD 02VO 02VC 02MD 10MO 02MC 02RD 02RO	0	1	2.04743504524	None	None	None	None	1
2.7	2015_May_22_1535	s	s	13	5	SIC	244	RC	2	2	09VD 02VO 02VC 02MD 02MO 02MC 02RD 02RO	1	0	0.693718910217	85.0	254.0	84	243	1
2.7	2015_May_22_1535	s	s	13	5	SIC	245	ABS	2	1	02VD 10VO 02VC 02MD 02MO 02MC 02RD 02RO	0	1	1.42900896072	None	None	None	None	1
2.7	2015_May_22_1535	s	s	13	5	SIC	246	RC	1	0	02VD 02VO 02VC 02MD 02MO 09MC 02RD 02RO	1	0	1.43202900887	-395.0	-351.0	-396	-351	1
2.7	2015_May_22_1535	s	s	13	5	SIC	247	RC	0	1	02VD 02VO 02VC 02MD 02MO 02MC 02RD 09RO	1	0	0.514786958694	46.0	120.0	45	106	1
2.7	2015_May_22_1535	s	s	13	5	SIC	248	RC	1	1	02VD 02VO 02VC 02MD 09MO 02MC 02RD 02RO	1	0	2.18856310844	24.0	-378.0	24	-376	1
2.7	2015_May_22_1535	s	s	13	5	SIC	249	ABS	0	1	02VD 02VO 02VC 02MD 02MO 02MC 02RD 10RO	0	1	3.6011288166	None	None	None	None	1
2.7	2015_May_22_1535	s	s	13	5	SIC	250	ABS	2	0	02VD 02VO 10VC 02MD 02MO 02MC 02RD 02RO	0	1	2.00965499878	None	None	None	None	1
2.7	2015_May_22_1535	s	s	13	5	SIC	251	RC	0	2	02VD 02VO 02VC 02MD 02MO 02MC 09RD 02RO	1	0	0.760684013367	-87.0	-229.0	-92	-227	1
2.7	2015_May_22_1535	s	s	13	5	SIC	252	ABS	0	2	02VD 02VO 02VC 02MD 02MO 02MC 10RD 02RO	0	1	1.4942522049	None	None	None	None	1
2.7	2015_May_22_1535	s	s	13	5	SIC	253	ABS	1	2	02VD 02VO 02VC 10MD 02MO 02MC 02RD 02RO	0	1	1.25078201294	None	None	None	None	1
2.7	2015_May_22_1535	s	s	13	5	SIC	254	RC	1	2	02VD 02VO 02VC 09MD 02MO 02MC 02RD 02RO	1	0	1.30168318748	-437.0	43.0	-438	53	1
2.7	2015_May_22_1535	s	s	13	5	SIC	255	ABS	2	2	10VD 02VO 02VC 02MD 02MO 02MC 02RD 02RO	0	1	1.54764199257	None	None	None	None	1
2.7	2015_May_22_1535	s	s	13	5	SIC	256	RC	2	1	02VD 09VO 02VC 02MD 02MO 02MC 02RD 02RO	1	0	1.15286898613	161.0	-276.0	161	-277	1
2.7	2015_May_22_1535	s	s	13	5	SIC	257	RC	1	1	02VD 02VO 02VC 02MD 09MO 02MC 02RD 02RO	1	0	0.723667860031	36.0	-327.0	40	-327	1
2.7	2015_May_22_1535	s	s	13	5	SIC	258	ABS	2	0	02VD 02VO 10VC 02MD 02MO 02MC 02RD 02RO	0	1	1.25359606743	None	None	None	None	1
2.7	2015_May_22_1535	s	s	13	5	SIC	259	ABS	2	2	10VD 02VO 02VC 02MD 02MO 02MC 02RD 02RO	0	1	1.23513007164	None	None	None	None	1
2.7	2015_May_22_1535	s	s	13	5	SIC	260	RC	2	2	09VD 02VO 02VC 02MD 02MO 02MC 02RD 02RO	1	0	0.608973026276	204.0	23.0	201	27	1
2.7	2015_May_22_1535	s	s	13	5	SIC	261	ABS	1	1	02VD 02VO 02VC 02MD 10MO 02MC 02RD 02RO	0	1	1.32499909401	None	None	None	None	1
2.7	2015_May_22_1535	s	s	13	5	SIC	262	RC	2	1	02VD 09VO 02VC 02MD 02MO 02MC 02RD 02RO	1	0	0.94713807106	-266.0	-7.0	-269	-11	1
2.7	2015_May_22_1535	s	s	13	5	SIC	263	ABS	1	2	02VD 02VO 02VC 10MD 02MO 02MC 02RD 02RO	0	1	1.38815808296	None	None	None	None	1
2.7	2015_May_22_1535	s	s	13	5	SIC	264	RC	0	1	02VD 02VO 02VC 02MD 02MO 02MC 02RD 09RO	1	0	0.917536973953	-13.0	-172.0	-10	-175	1
2.7	2015_May_22_1535	s	s	13	5	SIC	265	ABS	0	1	02VD 02VO 02VC 02MD 02MO 02MC 02RD 10RO	0	1	2.47165298462	None	None	None	None	1
2.7	2015_May_22_1535	s	s	13	5	SIC	266	ABS	1	0	02VD 02VO 02VC 02MD 02MO 10MC 02RD 02RO	0	1	1.82378602028	None	None	None	None	1
2.7	2015_May_22_1535	s	s	13	5	SIC	267	RC	2	0	02VD 02VO 09VC 02MD 02MO 02MC 02RD 02RO	1	0	0.820730924606	-164.0	-169.0	-158	-166	1
2.7	2015_May_22_1535	s	s	13	5	SIC	268	RC	1	2	02VD 02VO 02VC 09MD 02MO 02MC 02RD 02RO	1	0	0.729082107544	312.0	-116.0	310	-112	1
2.7	2015_May_22_1535	s	s	13	5	SIC	269	ABS	2	1	02VD 10VO 02VC 02MD 02MO 02MC 02RD 02RO	0	1	0.914907217026	None	None	None	None	1
2.7	2015_May_22_1535	s	s	13	5	SIC	270	RC	1	0	02VD 02VO 02VC 02MD 02MO 09MC 02RD 02RO	1	0	0.749162912369	-162.0	135.0	-155	134	1
2.7	2015_May_22_1535	s	s	13	5	SIC	271	RC	0	2	02VD 02VO 02VC 02MD 02MO 02MC 09RD 02RO	1	0	0.58388710022	-100.0	285.0	-103	284	1
2.7	2015_May_22_1535	s	s	13	5	SIC	272	ABS	0	2	02VD 02VO 02VC 02MD 02MO 02MC 10RD 02RO	0	1	1.42364192009	None	None	None	None	1
2.7	2015_May_22_1535	s	s	13	5	SIC	273	RC	1	0	02VD 02VO 02VC 02MD 02MO 09MC 02RD 02RO	1	0	0.97153711319	147.0	-368.0	140	-368	1
2.7	2015_May_22_1535	s	s	13	5	SIC	274	ABS	2	2	10VD 02VO 02VC 02MD 02MO 02MC 02RD 02RO	0	1	1.25533390045	None	None	None	None	1
2.7	2015_May_22_1535	s	s	13	5	SIC	275	RC	1	1	02VD 02VO 02VC 02MD 09MO 02MC 02RD 02RO	1	0	1.3979010582	-356.0	-287.0	-352	-286	1
2.7	2015_May_22_1535	s	s	13	5	SIC	276	ABS	1	0	02VD 02VO 02VC 02MD 02MO 10MC 02RD 02RO	0	1	1.54808712006	None	None	None	None	1
2.7	2015_May_22_1535	s	s	13	5	SIC	277	RC	2	0	02VD 02VO 09VC 02MD 02MO 02MC 02RD 02RO	1	0	0.74777507782	456.0	-64.0	456	-64	1
2.7	2015_May_22_1535	s	s	13	5	SIC	278	ABS	1	2	02VD 02VO 02VC 10MD 02MO 02MC 02RD 02RO	0	1	1.3494489193	None	None	None	None	1
2.7	2015_May_22_1535	s	s	13	5	SIC	279	ABS	0	1	02VD 02VO 02VC 02MD 02MO 02MC 02RD 10RO	0	1	2.58342504501	None	None	None	None	1
2.7	2015_May_22_1535	s	s	13	5	SIC	280	RC	2	1	02VD 09VO 02VC 02MD 02MO 02MC 02RD 02RO	1	0	0.844366073608	457.0	-250.0	456	-251	1
2.7	2015_May_22_1535	s	s	13	5	SIC	281	ABS	2	1	02VD 10VO 02VC 02MD 02MO 02MC 02RD 02RO	0	1	1.05371117592	None	None	None	None	1
2.7	2015_May_22_1535	s	s	13	5	SIC	282	ABS	0	2	02VD 02VO 02VC 02MD 02MO 02MC 10RD 02RO	0	1	1.11758208275	None	None	None	None	1
2.7	2015_May_22_1535	s	s	13	5	SIC	283	RC	1	2	02VD 02VO 02VC 09MD 02MO 02MC 02RD 02RO	1	0	0.846789121628	38.0	-215.0	45	-217	1
2.7	2015_May_22_1535	s	s	13	5	SIC	284	RC	0	2	02VD 02VO 02VC 02MD 02MO 02MC 09RD 02RO	1	0	1.73778390884	131.0	-132.0	136	-139	1
2.7	2015_May_22_1535	s	s	13	5	SIC	285	RC	2	2	09VD 02VO 02VC 02MD 02MO 02MC 02RD 02RO	1	0	1.75337004662	-283.0	376.0	-275	374	1
2.7	2015_May_22_1535	s	s	13	5	SIC	286	ABS	1	1	02VD 02VO 02VC 02MD 10MO 02MC 02RD 02RO	0	1	1.27745008469	None	None	None	None	1
2.7	2015_May_22_1535	s	s	13	5	SIC	287	ABS	2	0	02VD 02VO 10VC 02MD 02MO 02MC 02RD 02RO	0	1	1.07624101639	None	None	None	None	1
2.7	2015_May_22_1535	s	s	13	5	SIC	288	RC	0	1	02VD 02VO 02VC 02MD 02MO 02MC 02RD 09RO	0	1	2.83343505859	444.0	336.0	None	None	0
2.7	2015_May_22_1535	s	s	13	5	SIC	289	RC	1	0	02VD 02VO 02VC 02MD 02MO 09MC 02RD 02RO	1	0	0.8067278862	-202.0	-22.0	-193	-21	1
2.7	2015_May_22_1535	s	s	13	5	SIC	290	ABS	1	1	02VD 02VO 02VC 02MD 10MO 02MC 02RD 02RO	0	1	1.27877783775	None	None	None	None	1
2.7	2015_May_22_1535	s	s	13	5	SIC	291	ABS	1	0	02VD 02VO 02VC 02MD 02MO 10MC 02RD 02RO	0	1	1.8549451828	None	None	None	None	1
2.7	2015_May_22_1535	s	s	13	5	SIC	292	ABS	2	0	02VD 02VO 10VC 02MD 02MO 02MC 02RD 02RO	0	1	1.1854019165	None	None	None	None	1
2.7	2015_May_22_1535	s	s	13	5	SIC	293	RC	0	1	02VD 02VO 02VC 02MD 02MO 02MC 02RD 09RO	1	0	0.771267175674	413.0	133.0	411	133	1
2.7	2015_May_22_1535	s	s	13	5	SIC	294	RC	1	2	02VD 02VO 02VC 09MD 02MO 02MC 02RD 02RO	1	0	1.09171390533	82.0	-335.0	76	-332	1
2.7	2015_May_22_1535	s	s	13	5	SIC	295	ABS	0	1	02VD 02VO 02VC 02MD 02MO 02MC 02RD 10RO	0	1	3.73067903519	None	None	None	None	1
2.7	2015_May_22_1535	s	s	13	5	SIC	296	ABS	2	1	02VD 10VO 02VC 02MD 02MO 02MC 02RD 02RO	0	1	1.32693195343	None	None	None	None	1
2.7	2015_May_22_1535	s	s	13	5	SIC	297	ABS	2	2	10VD 02VO 02VC 02MD 02MO 02MC 02RD 02RO	0	1	1.10293006897	None	None	None	None	1
2.7	2015_May_22_1535	s	s	13	5	SIC	298	RC	2	0	02VD 02VO 09VC 02MD 02MO 02MC 02RD 02RO	1	0	2.2122631073	191.0	-104.0	181	-97	1
2.7	2015_May_22_1535	s	s	13	5	SIC	299	RC	0	2	02VD 02VO 02VC 02MD 02MO 02MC 09RD 02RO	1	0	0.971082210541	-291.0	105.0	-289	107	1
2.7	2015_May_22_1535	s	s	13	5	SIC	300	RC	2	2	09VD 02VO 02VC 02MD 02MO 02MC 02RD 02RO	1	0	0.999871015549	171.0	295.0	165	301	1
2.7	2015_May_22_1535	s	s	13	5	SIC	301	RC	1	1	02VD 02VO 02VC 02MD 09MO 02MC 02RD 02RO	1	0	0.941060066223	-97.0	-240.0	-94	-243	1
2.7	2015_May_22_1535	s	s	13	5	SIC	302	ABS	0	2	02VD 02VO 02VC 02MD 02MO 02MC 10RD 02RO	0	1	1.28234601021	None	None	None	None	1
2.7	2015_May_22_1535	s	s	13	5	SIC	303	ABS	1	2	02VD 02VO 02VC 10MD 02MO 02MC 02RD 02RO	0	1	1.0772550106	None	None	None	None	1
2.7	2015_May_22_1535	s	s	13	5	SIC	304	RC	2	1	02VD 09VO 02VC 02MD 02MO 02MC 02RD 02RO	1	0	1.05912804604	-138.0	-378.0	-126	-373	1
2.7	2015_May_22_1535	s	s	13	5	SIC	305	RC	0	2	02VD 02VO 02VC 02MD 02MO 02MC 09RD 02RO	1	0	1.62076807022	-72.0	352.0	-71	352	1
2.7	2015_May_22_1535	s	s	13	5	SIC	306	ABS	2	0	02VD 02VO 10VC 02MD 02MO 02MC 02RD 02RO	0	1	1.34795808792	None	None	None	None	1
2.7	2015_May_22_1535	s	s	13	5	SIC	307	ABS	0	2	02VD 02VO 02VC 02MD 02MO 02MC 10RD 02RO	0	1	1.01826119423	None	None	None	None	1
2.7	2015_May_22_1535	s	s	13	5	SIC	308	ABS	1	1	02VD 02VO 02VC 02MD 10MO 02MC 02RD 02RO	0	1	2.02377986908	None	None	None	None	1
2.7	2015_May_22_1535	s	s	13	5	SIC	309	RC	1	0	02VD 02VO 02VC 02MD 02MO 09MC 02RD 02RO	1	0	1.28237295151	-531.0	227.0	-531	220	1
2.7	2015_May_22_1535	s	s	13	5	SIC	310	ABS	1	2	02VD 02VO 02VC 10MD 02MO 02MC 02RD 02RO	0	1	0.995040178299	None	None	None	None	1
2.7	2015_May_22_1535	s	s	13	5	SIC	311	RC	1	2	02VD 02VO 02VC 09MD 02MO 02MC 02RD 02RO	1	0	1.09131503105	-203.0	-152.0	-200	-161	1
2.7	2015_May_22_1535	s	s	13	5	SIC	312	ABS	2	2	10VD 02VO 02VC 02MD 02MO 02MC 02RD 02RO	0	1	1.91804003716	None	None	None	None	1
2.7	2015_May_22_1535	s	s	13	5	SIC	313	RC	1	1	02VD 02VO 02VC 02MD 09MO 02MC 02RD 02RO	1	0	1.27977180481	112.0	-199.0	118	-192	1
2.7	2015_May_22_1535	s	s	13	5	SIC	314	ABS	0	1	02VD 02VO 02VC 02MD 02MO 02MC 02RD 10RO	0	1	1.94813585281	None	None	None	None	1
2.7	2015_May_22_1535	s	s	13	5	SIC	315	ABS	1	0	02VD 02VO 02VC 02MD 02MO 10MC 02RD 02RO	0	1	1.18818092346	None	None	None	None	1
2.7	2015_May_22_1535	s	s	13	5	SIC	316	RC	2	1	02VD 09VO 02VC 02MD 02MO 02MC 02RD 02RO	1	0	1.01546788216	529.0	306.0	523	299	1
2.7	2015_May_22_1535	s	s	13	5	SIC	317	RC	2	0	02VD 02VO 09VC 02MD 02MO 02MC 02RD 02RO	1	0	0.702053070068	-153.0	119.0	-159	116	1
2.7	2015_May_22_1535	s	s	13	5	SIC	318	RC	0	1	02VD 02VO 02VC 02MD 02MO 02MC 02RD 09RO	1	0	1.67783594131	226.0	-301.0	232	-292	1
2.7	2015_May_22_1535	s	s	13	5	SIC	319	ABS	2	1	02VD 10VO 02VC 02MD 02MO 02MC 02RD 02RO	0	1	1.51773786545	None	None	None	None	1
2.7	2015_May_22_1535	s	s	13	5	SIC	320	RC	2	2	09VD 02VO 02VC 02MD 02MO 02MC 02RD 02RO	1	0	0.658524036407	154.0	-136.0	143	-132	1
2.7	2015_May_22_1535	s	s	13	5	SIC	321	RC	0	2	02VD 02VO 02VC 02MD 02MO 02MC 09RD 02RO	1	0	0.529024124146	114.0	27.0	118	26	1
2.7	2015_May_22_1535	s	s	13	5	SIC	322	RC	1	0	02VD 02VO 02VC 02MD 02MO 09MC 02RD 02RO	1	0	1.17164087296	493.0	-377.0	499	-368	1
2.7	2015_May_22_1535	s	s	13	5	SIC	323	ABS	0	2	02VD 02VO 02VC 02MD 02MO 02MC 10RD 02RO	0	1	1.12510800362	None	None	None	None	1
2.7	2015_May_22_1535	s	s	13	5	SIC	324	ABS	1	2	02VD 02VO 02VC 10MD 02MO 02MC 02RD 02RO	0	1	1.81210803986	None	None	None	None	1
2.7	2015_May_22_1535	s	s	13	5	SIC	325	ABS	1	0	02VD 02VO 02VC 02MD 02MO 10MC 02RD 02RO	0	1	1.56204605103	None	None	None	None	1
2.7	2015_May_22_1535	s	s	13	5	SIC	326	RC	1	2	02VD 02VO 02VC 09MD 02MO 02MC 02RD 02RO	1	0	0.717425107956	104.0	280.0	100	281	1
2.7	2015_May_22_1535	s	s	13	5	SIC	327	RC	0	1	02VD 02VO 02VC 02MD 02MO 02MC 02RD 09RO	1	0	0.914779901505	89.0	-191.0	88	-197	1
2.7	2015_May_22_1535	s	s	13	5	SIC	328	ABS	1	1	02VD 02VO 02VC 02MD 10MO 02MC 02RD 02RO	0	1	1.96519708633	None	None	None	None	1
2.7	2015_May_22_1535	s	s	13	5	SIC	329	RC	2	0	02VD 02VO 09VC 02MD 02MO 02MC 02RD 02RO	1	0	1.03562283516	157.0	-258.0	153	-250	1
2.7	2015_May_22_1535	s	s	13	5	SIC	330	ABS	0	1	02VD 02VO 02VC 02MD 02MO 02MC 02RD 10RO	0	1	3.20461297035	None	None	None	None	1
2.7	2015_May_22_1535	s	s	13	5	SIC	331	ABS	2	1	02VD 10VO 02VC 02MD 02MO 02MC 02RD 02RO	0	1	1.59530210495	None	None	None	None	1
2.7	2015_May_22_1535	s	s	13	5	SIC	332	RC	1	1	02VD 02VO 02VC 02MD 09MO 02MC 02RD 02RO	1	0	0.889018058777	152.0	200.0	148	202	1
2.7	2015_May_22_1535	s	s	13	5	SIC	333	ABS	2	0	02VD 02VO 10VC 02MD 02MO 02MC 02RD 02RO	0	1	1.30111598969	None	None	None	None	1
2.7	2015_May_22_1535	s	s	13	5	SIC	334	RC	2	1	02VD 09VO 02VC 02MD 02MO 02MC 02RD 02RO	1	0	1.54130101204	289.0	-320.0	292	-319	1
2.7	2015_May_22_1535	s	s	13	5	SIC	335	ABS	2	2	10VD 02VO 02VC 02MD 02MO 02MC 02RD 02RO	0	1	1.37655997276	None	None	None	None	1
2.7	2015_May_22_1535	s	s	13	5	SIC	336	RC	2	2	09VD 02VO 02VC 02MD 02MO 02MC 02RD 02RO	1	0	1.40648579597	-536.0	-281.0	-537	-277	1
2.7	2015_May_22_1535	s	s	13	5	SIC	337	ABS	1	1	02VD 02VO 02VC 02MD 10MO 02MC 02RD 02RO	0	1	1.67774891853	None	None	None	None	1
2.7	2015_May_22_1535	s	s	13	5	SIC	338	ABS	1	0	02VD 02VO 02VC 02MD 02MO 10MC 02RD 02RO	0	1	2.27108311653	None	None	None	None	1
2.7	2015_May_22_1535	s	s	13	5	SIC	339	RC	1	2	02VD 02VO 02VC 09MD 02MO 02MC 02RD 02RO	1	0	0.747097015381	-137.0	265.0	-145	267	1
2.7	2015_May_22_1535	s	s	13	5	SIC	340	RC	1	1	02VD 02VO 02VC 02MD 09MO 02MC 02RD 02RO	1	0	1.10568284988	-144.0	67.0	-143	59	1
2.7	2015_May_22_1535	s	s	13	5	SIC	341	ABS	2	1	02VD 10VO 02VC 02MD 02MO 02MC 02RD 02RO	0	1	1.36140608788	None	None	None	None	1
2.7	2015_May_22_1535	s	s	13	5	SIC	342	ABS	0	1	02VD 02VO 02VC 02MD 02MO 02MC 02RD 10RO	0	1	3.20740318298	None	None	None	None	1
2.7	2015_May_22_1535	s	s	13	5	SIC	343	RC	0	2	02VD 02VO 02VC 02MD 02MO 02MC 09RD 02RO	1	0	0.914897918701	207.0	-284.0	209	-287	1
2.7	2015_May_22_1535	s	s	13	5	SIC	344	RC	2	1	02VD 09VO 02VC 02MD 02MO 02MC 02RD 02RO	1	0	1.01164984703	-67.0	-84.0	-72	-83	1
2.7	2015_May_22_1535	s	s	13	5	SIC	345	RC	0	1	02VD 02VO 02VC 02MD 02MO 02MC 02RD 09RO	1	0	2.25679111481	-271.0	-123.0	-273	-123	1
2.7	2015_May_22_1535	s	s	13	5	SIC	346	RC	2	2	09VD 02VO 02VC 02MD 02MO 02MC 02RD 02RO	1	0	0.66517496109	-250.0	108.0	-248	104	1
2.7	2015_May_22_1535	s	s	13	5	SIC	347	ABS	1	2	02VD 02VO 02VC 10MD 02MO 02MC 02RD 02RO	0	1	1.62377405167	None	None	None	None	1
2.7	2015_May_22_1535	s	s	13	5	SIC	348	RC	2	0	02VD 02VO 09VC 02MD 02MO 02MC 02RD 02RO	1	0	0.540848970413	89.0	181.0	97	184	1
2.7	2015_May_22_1535	s	s	13	5	SIC	349	ABS	2	0	02VD 02VO 10VC 02MD 02MO 02MC 02RD 02RO	0	1	1.44702196121	None	None	None	None	1
2.7	2015_May_22_1535	s	s	13	5	SIC	350	RC	1	0	02VD 02VO 02VC 02MD 02MO 09MC 02RD 02RO	1	0	0.682050943375	317.0	11.0	306	15	1
2.7	2015_May_22_1535	s	s	13	5	SIC	351	ABS	0	2	02VD 02VO 02VC 02MD 02MO 02MC 10RD 02RO	0	1	1.38314294815	None	None	None	None	1
2.7	2015_May_22_1535	s	s	13	5	SIC	352	ABS	2	2	10VD 02VO 02VC 02MD 02MO 02MC 02RD 02RO	0	1	1.33869099617	None	None	None	None	1
2.7	2015_May_22_1535	s	s	13	5	SIC	353	RC	0	1	02VD 02VO 02VC 02MD 02MO 02MC 02RD 09RO	1	0	0.9031021595	-79.0	127.0	-81	126	1
2.7	2015_May_22_1535	s	s	13	5	SIC	354	RC	1	0	02VD 02VO 02VC 02MD 02MO 09MC 02RD 02RO	1	0	1.21867394447	-420.0	-249.0	-410	-248	1
2.7	2015_May_22_1535	s	s	13	5	SIC	355	RC	2	0	02VD 02VO 09VC 02MD 02MO 02MC 02RD 02RO	1	0	0.787940979004	-119.0	35.0	-119	32	1
2.7	2015_May_22_1535	s	s	13	5	SIC	356	ABS	1	2	02VD 02VO 02VC 10MD 02MO 02MC 02RD 02RO	0	1	1.26599597931	None	None	None	None	1
2.7	2015_May_22_1535	s	s	13	5	SIC	357	RC	2	2	09VD 02VO 02VC 02MD 02MO 02MC 02RD 02RO	1	0	0.820734977722	404.0	-142.0	403	-135	1
2.7	2015_May_22_1535	s	s	13	5	SIC	358	RC	1	2	02VD 02VO 02VC 09MD 02MO 02MC 02RD 02RO	1	0	0.747549772263	485.0	-224.0	481	-221	1
2.7	2015_May_22_1535	s	s	13	5	SIC	359	ABS	2	1	02VD 10VO 02VC 02MD 02MO 02MC 02RD 02RO	0	1	1.44199800491	None	None	None	None	1
2.7	2015_May_22_1535	s	s	13	5	SIC	360	RC	2	1	02VD 09VO 02VC 02MD 02MO 02MC 02RD 02RO	1	0	0.678612947464	371.0	61.0	364	57	1
2.7	2015_May_22_1535	s	s	13	5	SIC	361	ABS	1	0	02VD 02VO 02VC 02MD 02MO 10MC 02RD 02RO	0	1	1.28892302513	None	None	None	None	1
2.7	2015_May_22_1535	s	s	13	5	SIC	362	ABS	0	2	02VD 02VO 02VC 02MD 02MO 02MC 10RD 02RO	0	1	1.22355914116	None	None	None	None	1
2.7	2015_May_22_1535	s	s	13	5	SIC	363	ABS	0	1	02VD 02VO 02VC 02MD 02MO 02MC 02RD 10RO	0	1	2.94985413551	None	None	None	None	1
2.7	2015_May_22_1535	s	s	13	5	SIC	364	ABS	2	2	10VD 02VO 02VC 02MD 02MO 02MC 02RD 02RO	0	1	1.46508908272	None	None	None	None	1
2.7	2015_May_22_1535	s	s	13	5	SIC	365	RC	0	2	02VD 02VO 02VC 02MD 02MO 02MC 09RD 02RO	1	0	1.48013496399	-262.0	305.0	-267	313	1
2.7	2015_May_22_1535	s	s	13	5	SIC	366	RC	1	1	02VD 02VO 02VC 02MD 09MO 02MC 02RD 02RO	1	0	0.917330026627	143.0	356.0	140	359	1
2.7	2015_May_22_1535	s	s	13	5	SIC	367	ABS	2	0	02VD 02VO 10VC 02MD 02MO 02MC 02RD 02RO	0	1	1.48245191574	None	None	None	None	1
2.7	2015_May_22_1535	s	s	13	5	SIC	368	ABS	1	1	02VD 02VO 02VC 02MD 10MO 02MC 02RD 02RO	0	1	1.73813605309	None	None	None	None	1
2.7	2015_May_22_1535	s	s	13	5	SIC	369	ABS	2	1	02VD 10VO 02VC 02MD 02MO 02MC 02RD 02RO	0	1	1.59233307838	None	None	None	None	1
2.7	2015_May_22_1535	s	s	13	5	SIC	370	ABS	2	0	02VD 02VO 10VC 02MD 02MO 02MC 02RD 02RO	0	1	1.29403805733	None	None	None	None	1
2.7	2015_May_22_1535	s	s	13	5	SIC	371	RC	2	1	02VD 09VO 02VC 02MD 02MO 02MC 02RD 02RO	1	0	0.713573932648	339.0	-151.0	336	-150	1
2.7	2015_May_22_1535	s	s	13	5	SIC	372	RC	2	2	09VD 02VO 02VC 02MD 02MO 02MC 02RD 02RO	1	0	2.80858302116	-104.0	-263.0	-105	-256	1
2.7	2015_May_22_1535	s	s	13	5	SIC	373	ABS	1	1	02VD 02VO 02VC 02MD 10MO 02MC 02RD 02RO	0	1	1.64317393303	None	None	None	None	1
2.7	2015_May_22_1535	s	s	13	5	SIC	374	ABS	1	0	02VD 02VO 02VC 02MD 02MO 10MC 02RD 02RO	0	1	2.04354906082	None	None	None	None	1
2.7	2015_May_22_1535	s	s	13	5	SIC	375	ABS	1	2	02VD 02VO 02VC 10MD 02MO 02MC 02RD 02RO	1	0	1.25629806519	None	None	-95	-92	0
2.7	2015_May_22_1535	s	s	13	5	SIC	376	RC	1	0	02VD 02VO 02VC 02MD 02MO 09MC 02RD 02RO	1	0	1.44706201553	-29.0	374.0	-30	363	1
2.7	2015_May_22_1535	s	s	13	5	SIC	377	RC	1	2	02VD 02VO 02VC 09MD 02MO 02MC 02RD 02RO	1	0	0.752726078033	283.0	-193.0	278	-196	1
2.7	2015_May_22_1535	s	s	13	5	SIC	378	ABS	0	1	02VD 02VO 02VC 02MD 02MO 02MC 02RD 10RO	0	1	3.23098802567	None	None	None	None	1
2.7	2015_May_22_1535	s	s	13	5	SIC	379	RC	2	0	02VD 02VO 09VC 02MD 02MO 02MC 02RD 02RO	1	0	0.65860080719	102.0	371.0	96	373	1
2.7	2015_May_22_1535	s	s	13	5	SIC	380	ABS	2	2	10VD 02VO 02VC 02MD 02MO 02MC 02RD 02RO	0	1	1.37650299072	None	None	None	None	1
2.7	2015_May_22_1535	s	s	13	5	SIC	381	RC	0	1	02VD 02VO 02VC 02MD 02MO 02MC 02RD 09RO	1	0	1.418612957	-243.0	-242.0	-253	-238	1
2.7	2015_May_22_1535	s	s	13	5	SIC	382	RC	0	2	02VD 02VO 02VC 02MD 02MO 02MC 09RD 02RO	1	0	1.05362987518	-147.0	341.0	-146	337	1
2.7	2015_May_22_1535	s	s	13	5	SIC	383	ABS	0	2	02VD 02VO 02VC 02MD 02MO 02MC 10RD 02RO	0	1	1.52952408791	None	None	None	None	1
2.7	2015_May_22_1535	s	s	13	5	SIC	384	RC	1	1	02VD 02VO 02VC 02MD 09MO 02MC 02RD 02RO	1	0	0.729082107544	-301.0	-28.0	-304	-33	1
2.7	2015_May_22_1535	s	s	13	5	SIC	385	ABS	2	2	10VD 02VO 02VC 02MD 02MO 02MC 02RD 02RO	0	1	1.64726114273	None	None	None	None	1
2.7	2015_May_22_1535	s	s	13	5	SIC	386	RC	0	1	02VD 02VO 02VC 02MD 02MO 02MC 02RD 09RO	1	0	0.587954998016	371.0	138.0	370	131	1
2.7	2015_May_22_1535	s	s	13	5	SIC	387	RC	1	2	02VD 02VO 02VC 09MD 02MO 02MC 02RD 02RO	1	0	1.28912091255	102.0	-239.0	94	-239	1
2.7	2015_May_22_1535	s	s	13	5	SIC	388	RC	1	1	02VD 02VO 02VC 02MD 09MO 02MC 02RD 02RO	1	0	0.561551094055	137.0	-45.0	139	-48	1
2.7	2015_May_22_1535	s	s	13	5	SIC	389	RC	1	0	02VD 02VO 02VC 02MD 02MO 09MC 02RD 02RO	1	0	1.28230500221	346.0	283.0	343	286	1
2.7	2015_May_22_1535	s	s	13	5	SIC	390	ABS	0	2	02VD 02VO 02VC 02MD 02MO 02MC 10RD 02RO	0	1	1.17366194725	None	None	None	None	1
2.7	2015_May_22_1535	s	s	13	5	SIC	391	RC	2	2	09VD 02VO 02VC 02MD 02MO 02MC 02RD 02RO	1	0	0.952767133713	-524.0	90.0	-527	84	1
2.7	2015_May_22_1535	s	s	13	5	SIC	392	ABS	1	0	02VD 02VO 02VC 02MD 02MO 10MC 02RD 02RO	0	1	1.87121105194	None	None	None	None	1
2.7	2015_May_22_1535	s	s	13	5	SIC	393	ABS	2	0	02VD 02VO 10VC 02MD 02MO 02MC 02RD 02RO	0	1	1.34748101234	None	None	None	None	1
2.7	2015_May_22_1535	s	s	13	5	SIC	394	ABS	0	1	02VD 02VO 02VC 02MD 02MO 02MC 02RD 10RO	0	1	3.59686994553	None	None	None	None	1
2.7	2015_May_22_1535	s	s	13	5	SIC	395	RC	2	1	02VD 09VO 02VC 02MD 02MO 02MC 02RD 02RO	1	0	0.643826007843	76.0	50.0	70	49	1
2.7	2015_May_22_1535	s	s	13	5	SIC	396	RC	2	0	02VD 02VO 09VC 02MD 02MO 02MC 02RD 02RO	1	0	1.13777303696	484.0	-306.0	484	-306	1
2.7	2015_May_22_1535	s	s	13	5	SIC	397	ABS	1	1	02VD 02VO 02VC 02MD 10MO 02MC 02RD 02RO	0	1	1.71079683304	None	None	None	None	1
2.7	2015_May_22_1535	s	s	13	5	SIC	398	RC	0	2	02VD 02VO 02VC 02MD 02MO 02MC 09RD 02RO	1	0	1.59409093857	334.0	262.0	332	261	1
2.7	2015_May_22_1535	s	s	13	5	SIC	399	ABS	1	2	02VD 02VO 02VC 10MD 02MO 02MC 02RD 02RO	0	1	1.39470815659	None	None	None	None	1
2.7	2015_May_22_1535	s	s	13	5	SIC	400	ABS	2	1	02VD 10VO 02VC 02MD 02MO 02MC 02RD 02RO	0	1	1.21838617325	None	None	None	None	1
2.7	2015_May_22_1535	s	s	13	5	SIC	401	RC	1	2	02VD 02VO 02VC 09MD 02MO 02MC 02RD 02RO	1	0	0.982627153397	254.0	-209.0	246	-211	1
2.7	2015_May_22_1535	s	s	13	5	SIC	402	ABS	1	2	02VD 02VO 02VC 10MD 02MO 02MC 02RD 02RO	0	1	1.62372303009	None	None	None	None	1
2.7	2015_May_22_1535	s	s	13	5	SIC	403	RC	1	0	02VD 02VO 02VC 02MD 02MO 09MC 02RD 02RO	1	0	0.876844167709	-105.0	174.0	-109	167	1
2.7	2015_May_22_1535	s	s	13	5	SIC	404	RC	1	1	02VD 02VO 02VC 02MD 09MO 02MC 02RD 02RO	1	0	1.31752204895	-97.0	-409.0	-99	-414	1
2.7	2015_May_22_1535	s	s	13	5	SIC	405	ABS	2	2	10VD 02VO 02VC 02MD 02MO 02MC 02RD 02RO	0	1	1.54134893417	None	None	None	None	1
2.7	2015_May_22_1535	s	s	13	5	SIC	406	ABS	2	1	02VD 10VO 02VC 02MD 02MO 02MC 02RD 02RO	0	1	1.50347113609	None	None	None	None	1
2.7	2015_May_22_1535	s	s	13	5	SIC	407	RC	0	2	02VD 02VO 02VC 02MD 02MO 02MC 09RD 02RO	1	0	1.19995594025	298.0	-105.0	295	-102	1
2.7	2015_May_22_1535	s	s	13	5	SIC	408	RC	0	1	02VD 02VO 02VC 02MD 02MO 02MC 02RD 09RO	1	0	2.42426300049	199.0	381.0	195	381	1
2.7	2015_May_22_1535	s	s	13	5	SIC	409	ABS	0	1	02VD 02VO 02VC 02MD 02MO 02MC 02RD 10RO	0	1	3.34246397018	None	None	None	None	1
2.7	2015_May_22_1535	s	s	13	5	SIC	410	RC	2	1	02VD 09VO 02VC 02MD 02MO 02MC 02RD 02RO	1	0	1.18359994888	249.0	322.0	252	318	1
2.7	2015_May_22_1535	s	s	13	5	SIC	411	ABS	0	2	02VD 02VO 02VC 02MD 02MO 02MC 10RD 02RO	0	1	1.70605802536	None	None	None	None	1
2.7	2015_May_22_1535	s	s	13	5	SIC	412	ABS	1	1	02VD 02VO 02VC 02MD 10MO 02MC 02RD 02RO	0	1	1.52534508705	None	None	None	None	1
2.7	2015_May_22_1535	s	s	13	5	SIC	413	RC	2	2	09VD 02VO 02VC 02MD 02MO 02MC 02RD 02RO	1	0	0.785394906998	420.0	133.0	417	131	1
2.7	2015_May_22_1535	s	s	13	5	SIC	414	ABS	2	0	02VD 02VO 10VC 02MD 02MO 02MC 02RD 02RO	1	0	0.595204114914	None	None	-228	270	0
2.7	2015_May_22_1535	s	s	13	5	SIC	415	RC	2	0	02VD 02VO 09VC 02MD 02MO 02MC 02RD 02RO	1	0	1.12666416168	-367.0	246.0	-368	240	1
2.7	2015_May_22_1535	s	s	13	5	SIC	416	ABS	1	0	02VD 02VO 02VC 02MD 02MO 10MC 02RD 02RO	0	1	1.54803490639	None	None	None	None	1
2.7	2015_May_22_1535	s	s	13	5	SIC	417	ABS	0	1	02VD 02VO 02VC 02MD 02MO 02MC 02RD 10RO	0	1	2.76072406769	None	None	None	None	1
2.7	2015_May_22_1535	s	s	13	5	SIC	418	ABS	2	2	10VD 02VO 02VC 02MD 02MO 02MC 02RD 02RO	0	1	1.05451989174	None	None	None	None	1
2.7	2015_May_22_1535	s	s	13	5	SIC	419	RC	1	1	02VD 02VO 02VC 02MD 09MO 02MC 02RD 02RO	1	0	0.852953910828	-300.0	195.0	-308	191	1
2.7	2015_May_22_1535	s	s	13	5	SIC	420	ABS	2	0	02VD 02VO 10VC 02MD 02MO 02MC 02RD 02RO	0	1	1.30579590797	None	None	None	None	1
2.7	2015_May_22_1535	s	s	13	5	SIC	421	RC	2	1	02VD 09VO 02VC 02MD 02MO 02MC 02RD 02RO	1	0	1.04141902924	231.0	-246.0	235	-239	1
2.7	2015_May_22_1535	s	s	13	5	SIC	422	RC	0	1	02VD 02VO 02VC 02MD 02MO 02MC 02RD 09RO	1	0	1.32528805733	362.0	-187.0	362	-188	1
2.7	2015_May_22_1535	s	s	13	5	SIC	423	ABS	0	2	02VD 02VO 02VC 02MD 02MO 02MC 10RD 02RO	0	1	1.53675103188	None	None	None	None	1
2.7	2015_May_22_1535	s	s	13	5	SIC	424	RC	1	0	02VD 02VO 02VC 02MD 02MO 09MC 02RD 02RO	1	0	0.693647146225	147.0	-88.0	146	-93	1
2.7	2015_May_22_1535	s	s	13	5	SIC	425	ABS	1	1	02VD 02VO 02VC 02MD 10MO 02MC 02RD 02RO	0	1	1.6658809185	None	None	None	None	1
2.7	2015_May_22_1535	s	s	13	5	SIC	426	RC	0	2	02VD 02VO 02VC 02MD 02MO 02MC 09RD 02RO	1	0	1.77154016495	-299.0	-239.0	-302	-240	1
2.7	2015_May_22_1535	s	s	13	5	SIC	427	RC	1	2	02VD 02VO 02VC 09MD 02MO 02MC 02RD 02RO	1	0	1.11231899261	479.0	230.0	486	230	1
2.7	2015_May_22_1535	s	s	13	5	SIC	428	ABS	1	0	02VD 02VO 02VC 02MD 02MO 10MC 02RD 02RO	0	1	2.28038907051	None	None	None	None	1
2.7	2015_May_22_1535	s	s	13	5	SIC	429	ABS	2	1	02VD 10VO 02VC 02MD 02MO 02MC 02RD 02RO	0	1	1.30193805695	None	None	None	None	1
2.7	2015_May_22_1535	s	s	13	5	SIC	430	RC	2	0	02VD 02VO 09VC 02MD 02MO 02MC 02RD 02RO	1	0	0.759721040726	24.0	-23.0	22	-24	1
2.7	2015_May_22_1535	s	s	13	5	SIC	431	ABS	1	2	02VD 02VO 02VC 10MD 02MO 02MC 02RD 02RO	0	1	1.78846812248	None	None	None	None	1
2.7	2015_May_22_1535	s	s	13	5	SIC	432	RC	2	2	09VD 02VO 02VC 02MD 02MO 02MC 02RD 02RO	1	0	0.587923049927	100.0	68.0	100	69	1
2.7	2015_May_22_1535	s	s	13	5	SIC	433	RC	2	0	02VD 02VO 09VC 02MD 02MO 02MC 02RD 02RO	1	0	1.35936880112	-286.0	137.0	-284	134	1
2.7	2015_May_22_1535	s	s	13	5	SIC	434	ABS	2	2	10VD 02VO 02VC 02MD 02MO 02MC 02RD 02RO	0	1	1.12360715866	None	None	None	None	1
2.7	2015_May_22_1535	s	s	13	5	SIC	435	ABS	0	2	02VD 02VO 02VC 02MD 02MO 02MC 10RD 02RO	0	1	1.19978308678	None	None	None	None	1
2.7	2015_May_22_1535	s	s	13	5	SIC	436	RC	1	0	02VD 02VO 02VC 02MD 02MO 09MC 02RD 02RO	1	0	0.858404874802	294.0	-192.0	289	-189	1
2.7	2015_May_22_1535	s	s	13	5	SIC	437	ABS	0	1	02VD 02VO 02VC 02MD 02MO 02MC 02RD 10RO	0	1	2.46636509895	None	None	None	None	1
2.7	2015_May_22_1535	s	s	13	5	SIC	438	ABS	1	1	02VD 02VO 02VC 02MD 10MO 02MC 02RD 02RO	0	1	1.27105689049	None	None	None	None	1
2.7	2015_May_22_1535	s	s	13	5	SIC	439	ABS	1	2	02VD 02VO 02VC 10MD 02MO 02MC 02RD 02RO	0	1	1.22109413147	None	None	None	None	1
2.7	2015_May_22_1535	s	s	13	5	SIC	440	ABS	2	0	02VD 02VO 10VC 02MD 02MO 02MC 02RD 02RO	0	1	1.13577198982	None	None	None	None	1
2.7	2015_May_22_1535	s	s	13	5	SIC	441	ABS	1	0	02VD 02VO 02VC 02MD 02MO 10MC 02RD 02RO	0	1	1.43208003044	None	None	None	None	1
2.7	2015_May_22_1535	s	s	13	5	SIC	442	RC	0	2	02VD 02VO 02VC 02MD 02MO 02MC 09RD 02RO	1	0	1.24308490753	-156.0	-379.0	-159	-380	1
2.7	2015_May_22_1535	s	s	13	5	SIC	443	RC	1	1	02VD 02VO 02VC 02MD 09MO 02MC 02RD 02RO	1	0	0.959446191788	-97.0	-195.0	-96	-195	1
2.7	2015_May_22_1535	s	s	13	5	SIC	444	RC	0	1	02VD 02VO 02VC 02MD 02MO 02MC 02RD 09RO	1	0	0.740836143494	-286.0	98.0	-281	93	1
2.7	2015_May_22_1535	s	s	13	5	SIC	445	RC	1	2	02VD 02VO 02VC 09MD 02MO 02MC 02RD 02RO	1	0	0.856103897095	362.0	192.0	362	193	1
2.7	2015_May_22_1535	s	s	13	5	SIC	446	ABS	2	1	02VD 10VO 02VC 02MD 02MO 02MC 02RD 02RO	0	1	1.32704281807	None	None	None	None	1
2.7	2015_May_22_1535	s	s	13	5	SIC	447	RC	2	2	09VD 02VO 02VC 02MD 02MO 02MC 02RD 02RO	1	0	10.9662361145	-335.0	-308.0	-330	-300	1
2.7	2015_May_22_1535	s	s	13	5	SIC	448	RC	2	1	02VD 09VO 02VC 02MD 02MO 02MC 02RD 02RO	1	0	1.47069621086	139.0	114.0	139	115	1
2.7	2015_May_22_1535	s	s	13	5	SIC	449	ABS	1	1	02VD 02VO 02VC 02MD 10MO 02MC 02RD 02RO	0	1	2.70663499832	None	None	None	None	1
2.7	2015_May_22_1535	s	s	13	5	SIC	450	ABS	1	2	02VD 02VO 02VC 10MD 02MO 02MC 02RD 02RO	0	1	3.40099000931	None	None	None	None	1
2.7	2015_May_22_1535	s	s	13	5	SIC	451	RC	2	2	09VD 02VO 02VC 02MD 02MO 02MC 02RD 02RO	1	0	2.18863391876	-224.0	-369.0	-227	-368	1
2.7	2015_May_22_1535	s	s	13	5	SIC	452	RC	2	1	02VD 09VO 02VC 02MD 02MO 02MC 02RD 02RO	1	0	5.05756807327	-30.0	-11.0	-23	-5	1
2.7	2015_May_22_1535	s	s	13	5	SIC	453	RC	2	0	02VD 02VO 09VC 02MD 02MO 02MC 02RD 02RO	1	0	1.85906195641	-476.0	-146.0	-479	-149	1
2.7	2015_May_22_1535	s	s	13	5	SIC	454	ABS	2	0	02VD 02VO 10VC 02MD 02MO 02MC 02RD 02RO	0	1	1.58510279655	None	None	None	None	1
2.7	2015_May_22_1535	s	s	13	5	SIC	455	RC	0	1	02VD 02VO 02VC 02MD 02MO 02MC 02RD 09RO	1	0	1.01157808304	-156.0	-184.0	-157	-186	1
2.7	2015_May_22_1535	s	s	13	5	SIC	456	ABS	2	2	10VD 02VO 02VC 02MD 02MO 02MC 02RD 02RO	0	1	1.84185004234	None	None	None	None	1
2.7	2015_May_22_1535	s	s	13	5	SIC	457	RC	1	2	02VD 02VO 02VC 09MD 02MO 02MC 02RD 02RO	1	0	1.73610496521	-147.0	310.0	-145	312	1
2.7	2015_May_22_1535	s	s	13	5	SIC	458	ABS	0	2	02VD 02VO 02VC 02MD 02MO 02MC 10RD 02RO	0	1	2.38878703117	None	None	None	None	1
2.7	2015_May_22_1535	s	s	13	5	SIC	459	ABS	2	1	02VD 10VO 02VC 02MD 02MO 02MC 02RD 02RO	0	1	1.45895314217	None	None	None	None	1
2.7	2015_May_22_1535	s	s	13	5	SIC	460	ABS	1	0	02VD 02VO 02VC 02MD 02MO 10MC 02RD 02RO	0	1	1.87076997757	None	None	None	None	1
2.7	2015_May_22_1535	s	s	13	5	SIC	461	ABS	0	1	02VD 02VO 02VC 02MD 02MO 02MC 02RD 10RO	0	1	3.37211203575	None	None	None	None	1
2.7	2015_May_22_1535	s	s	13	5	SIC	462	RC	1	1	02VD 02VO 02VC 02MD 09MO 02MC 02RD 02RO	1	0	1.92534804344	-420.0	-218.0	-420	-218	1
2.7	2015_May_22_1535	s	s	13	5	SIC	463	RC	1	0	02VD 02VO 02VC 02MD 02MO 09MC 02RD 02RO	1	0	2.494795084	-259.0	-166.0	-261	-165	1
2.7	2015_May_22_1535	s	s	13	5	SIC	464	RC	0	2	02VD 02VO 02VC 02MD 02MO 02MC 09RD 02RO	1	0	1.41544795036	487.0	352.0	490	352	1
2.7	2015_May_22_1535	s	s	13	5	SIC	465	ABS	1	1	02VD 02VO 02VC 02MD 10MO 02MC 02RD 02RO	0	1	2.17705106735	None	None	None	None	1
2.7	2015_May_22_1535	s	s	13	5	SIC	466	ABS	2	0	02VD 02VO 10VC 02MD 02MO 02MC 02RD 02RO	0	1	3.04211997986	None	None	None	None	1
2.7	2015_May_22_1535	s	s	13	5	SIC	467	RC	0	1	02VD 02VO 02VC 02MD 02MO 02MC 02RD 09RO	1	0	2.68326711655	-437.0	268.0	-439	271	1
2.7	2015_May_22_1535	s	s	13	5	SIC	468	RC	2	2	09VD 02VO 02VC 02MD 02MO 02MC 02RD 02RO	1	0	0.808911085129	-174.0	-38.0	-171	-31	1
2.7	2015_May_22_1535	s	s	13	5	SIC	469	ABS	1	2	02VD 02VO 02VC 10MD 02MO 02MC 02RD 02RO	0	1	8.20720982552	None	None	None	None	1
2.7	2015_May_22_1535	s	s	13	5	SIC	470	ABS	2	1	02VD 10VO 02VC 02MD 02MO 02MC 02RD 02RO	0	1	2.25917387009	None	None	None	None	1
2.7	2015_May_22_1535	s	s	13	5	SIC	471	RC	1	1	02VD 02VO 02VC 02MD 09MO 02MC 02RD 02RO	1	0	0.654042959213	-186.0	-65.0	-180	-66	1
2.7	2015_May_22_1535	s	s	13	5	SIC	472	ABS	1	0	02VD 02VO 02VC 02MD 02MO 10MC 02RD 02RO	0	1	2.28050398827	None	None	None	None	1
2.7	2015_May_22_1535	s	s	13	5	SIC	473	ABS	2	2	10VD 02VO 02VC 02MD 02MO 02MC 02RD 02RO	0	1	1.57337117195	None	None	None	None	1
2.7	2015_May_22_1535	s	s	13	5	SIC	474	RC	0	2	02VD 02VO 02VC 02MD 02MO 02MC 09RD 02RO	1	0	1.18568396568	-16.0	-35.0	-13	-35	1
2.7	2015_May_22_1535	s	s	13	5	SIC	475	RC	2	0	02VD 02VO 09VC 02MD 02MO 02MC 02RD 02RO	1	0	1.71443796158	-519.0	-205.0	-517	-202	1
2.7	2015_May_22_1535	s	s	13	5	SIC	476	RC	2	1	02VD 09VO 02VC 02MD 02MO 02MC 02RD 02RO	1	0	1.12630200386	173.0	-300.0	174	-291	1
2.7	2015_May_22_1535	s	s	13	5	SIC	477	ABS	0	1	02VD 02VO 02VC 02MD 02MO 02MC 02RD 10RO	0	1	3.25983905792	None	None	None	None	1
2.7	2015_May_22_1535	s	s	13	5	SIC	478	ABS	0	2	02VD 02VO 02VC 02MD 02MO 02MC 10RD 02RO	0	1	4.69119119644	None	None	None	None	1
2.7	2015_May_22_1535	s	s	13	5	SIC	479	RC	1	2	02VD 02VO 02VC 09MD 02MO 02MC 02RD 02RO	1	0	6.26980900764	-237.0	223.0	-228	221	1
2.7	2015_May_22_1535	s	s	13	5	SIC	480	RC	1	0	02VD 02VO 02VC 02MD 02MO 09MC 02RD 02RO	1	0	2.44763493538	-490.0	-112.0	-487	-110	1
