Version	Date	Stimuli	Method	Subject	Session	Condition	Trial	Target	Channel1	Channel2	Distractors	LMouseButton	RMouseButton	RT	TargetX	TargetY	ResponseX	ResponseY	Correct
2.7	2015_May_19_1538	s	s	13	2	Capacity	1	RC	0	2	15RD 08RO	1	0	1.61940407753	-283.0	-271.0	-284	-275	1
2.7	2015_May_19_1538	s	s	13	2	Capacity	2	ABS	0	2	16RD 08RO	1	0	2.28266382217	None	None	0	-59	0
2.7	2015_May_19_1538	s	s	13	2	Capacity	3	RC	0	1	08RD 15RO	1	0	1.16464805603	275.0	-59.0	280	-57	1
2.7	2015_May_19_1538	s	s	13	2	Capacity	4	ABS	0	1	08RD 16RO	0	1	3.69528388977	None	None	None	None	1
2.7	2015_May_19_1538	s	s	13	2	Capacity	5	ABS	0	1	08RD 16RO	0	1	3.28343582153	None	None	None	None	1
2.7	2015_May_19_1538	s	s	13	2	Capacity	6	RC	0	1	08RD 15RO	1	0	2.39421081543	-374.0	-21.0	-377	-16	1
2.7	2015_May_19_1538	s	s	13	2	Capacity	7	ABS	0	2	16RD 08RO	0	1	2.83336305618	None	None	None	None	1
2.7	2015_May_19_1538	s	s	13	2	Capacity	8	RC	0	2	15RD 08RO	1	0	2.24766302109	-163.0	-70.0	-158	-70	1
2.7	2015_May_19_1538	s	s	13	2	Capacity	9	RC	0	2	15RD 08RO	1	0	1.09413790703	-20.0	261.0	-21	258	1
2.7	2015_May_19_1538	s	s	13	2	Capacity	10	ABS	0	2	16RD 08RO	0	1	2.25539803505	None	None	None	None	1
2.7	2015_May_19_1538	s	s	13	2	Capacity	11	RC	0	1	08RD 15RO	1	0	1.91804599762	212.0	317.0	216	314	1
2.7	2015_May_19_1538	s	s	13	2	Capacity	12	ABS	0	1	08RD 16RO	0	1	3.37751197815	None	None	None	None	1
2.7	2015_May_19_1538	s	s	13	2	Capacity	13	RC	0	1	08RD 15RO	1	0	1.44710278511	451.0	151.0	458	148	1
2.7	2015_May_19_1538	s	s	13	2	Capacity	14	RC	0	2	15RD 08RO	1	0	2.57748603821	409.0	385.0	411	382	1
2.7	2015_May_19_1538	s	s	13	2	Capacity	15	ABS	0	1	08RD 16RO	0	1	3.54233908653	None	None	None	None	1
2.7	2015_May_19_1538	s	s	13	2	Capacity	16	ABS	0	2	16RD 08RO	0	1	3.3280210495	None	None	None	None	1
2.7	2015_May_19_1538	s	s	13	2	Capacity	17	ABS	0	2	16RD 08RO	0	1	2.53885507584	None	None	None	None	1
2.7	2015_May_19_1538	s	s	13	2	Capacity	18	ABS	0	1	08RD 16RO	0	1	3.90721201897	None	None	None	None	1
2.7	2015_May_19_1538	s	s	13	2	Capacity	19	RC	0	2	15RD 08RO	1	0	1.76497507095	-2.0	212.0	-4	204	1
2.7	2015_May_19_1538	s	s	13	2	Capacity	20	RC	0	1	08RD 15RO	1	0	2.5811419487	271.0	-297.0	276	-299	1
2.7	2015_May_19_1538	s	s	13	2	Capacity	21	ABS	0	1	08RD 16RO	0	1	3.87189006805	None	None	None	None	1
2.7	2015_May_19_1538	s	s	13	2	Capacity	22	RC	0	1	08RD 15RO	1	0	1.55330681801	357.0	-330.0	362	-333	1
2.7	2015_May_19_1538	s	s	13	2	Capacity	23	ABS	0	2	16RD 08RO	0	1	2.39683389664	None	None	None	None	1
2.7	2015_May_19_1538	s	s	13	2	Capacity	24	RC	0	2	15RD 08RO	1	0	1.62368798256	16.0	174.0	21	178	1
2.7	2015_May_19_1538	s	s	13	2	Capacity	25	RC	0	2	15RD 08RO	1	0	1.44199991226	-210.0	-382.0	-209	-389	1
2.7	2015_May_19_1538	s	s	13	2	Capacity	26	ABS	0	1	08RD 16RO	0	1	2.71308612823	None	None	None	None	1
2.7	2015_May_19_1538	s	s	13	2	Capacity	27	RC	0	1	08RD 15RO	1	0	1.15030384064	88.0	93.0	91	92	1
2.7	2015_May_19_1538	s	s	13	2	Capacity	28	ABS	0	2	16RD 08RO	0	1	2.28289413452	None	None	None	None	1
2.7	2015_May_19_1538	s	s	13	2	Capacity	29	RC	0	1	08RD 15RO	1	0	1.57659912109	-457.0	393.0	-463	393	1
2.7	2015_May_19_1538	s	s	13	2	Capacity	30	ABS	0	1	08RD 16RO	0	1	3.48350811005	None	None	None	None	1
2.7	2015_May_19_1538	s	s	13	2	Capacity	31	RC	0	2	15RD 08RO	0	1	2.36015892029	-418.0	-157.0	None	None	0
2.7	2015_May_19_1538	s	s	13	2	Capacity	32	ABS	0	2	16RD 08RO	0	1	2.60071897507	None	None	None	None	1
2.7	2015_May_19_1538	s	s	13	2	Capacity	33	ABS	0	1	08RD 16RO	0	1	4.00162911415	None	None	None	None	1
2.7	2015_May_19_1538	s	s	13	2	Capacity	34	ABS	0	2	16RD 08RO	0	1	3.6183078289	None	None	None	None	1
2.7	2015_May_19_1538	s	s	13	2	Capacity	35	RC	0	1	08RD 15RO	1	0	3.64326190948	-312.0	365.0	-309	358	1
2.7	2015_May_19_1538	s	s	13	2	Capacity	36	RC	0	2	15RD 08RO	1	0	2.63051700592	46.0	367.0	50	365	1
2.7	2015_May_19_1538	s	s	13	2	Capacity	37	ABS	0	1	08RD 16RO	0	1	4.13832497597	None	None	None	None	1
2.7	2015_May_19_1538	s	s	13	2	Capacity	38	ABS	0	2	16RD 08RO	0	1	2.24375104904	None	None	None	None	1
2.7	2015_May_19_1538	s	s	13	2	Capacity	39	RC	0	2	15RD 08RO	1	0	1.59435892105	-1.0	-324.0	4	-331	1
2.7	2015_May_19_1538	s	s	13	2	Capacity	40	RC	0	1	08RD 15RO	0	1	4.02176594734	305.0	-298.0	None	None	0
2.7	2015_May_19_1538	s	s	13	2	Capacity	41	RC	0	1	08RD 15RO	1	0	1.31201505661	433.0	-245.0	439	-242	1
2.7	2015_May_19_1538	s	s	13	2	Capacity	42	ABS	0	2	16RD 08RO	0	1	4.24523496628	None	None	None	None	1
2.7	2015_May_19_1538	s	s	13	2	Capacity	43	RC	0	2	15RD 08RO	1	0	3.04840993881	137.0	-238.0	134	-241	1
2.7	2015_May_19_1538	s	s	13	2	Capacity	44	ABS	0	1	08RD 16RO	0	1	3.34220290184	None	None	None	None	1
2.7	2015_May_19_1538	s	s	13	2	Capacity	45	ABS	0	2	16RD 08RO	0	1	1.91805791855	None	None	None	None	1
2.7	2015_May_19_1538	s	s	13	2	Capacity	46	RC	0	1	08RD 15RO	1	0	1.52689790726	394.0	-382.0	399	-383	1
2.7	2015_May_19_1538	s	s	13	2	Capacity	47	RC	0	2	15RD 08RO	1	0	2.49471592903	-34.0	-57.0	-34	-53	1
2.7	2015_May_19_1538	s	s	13	2	Capacity	48	ABS	0	1	08RD 16RO	0	1	3.77808094025	None	None	None	None	1
2.7	2015_May_19_1538	s	s	13	2	Capacity	49	ABS	0	2	16RD 08RO	0	1	2.05924010277	None	None	None	None	1
2.7	2015_May_19_1538	s	s	13	2	Capacity	50	ABS	0	1	08RD 16RO	0	1	3.62528300285	None	None	None	None	1
2.7	2015_May_19_1538	s	s	13	2	Capacity	51	RC	0	2	15RD 08RO	1	0	1.67090201378	99.0	217.0	98	211	1
2.7	2015_May_19_1538	s	s	13	2	Capacity	52	RC	0	1	08RD 15RO	1	0	3.11573910713	-458.0	101.0	-458	102	1
2.7	2015_May_19_1538	s	s	13	2	Capacity	53	RC	0	2	15RD 08RO	1	0	1.88879489899	-284.0	268.0	-281	268	1
2.7	2015_May_19_1538	s	s	13	2	Capacity	54	ABS	0	2	16RD 08RO	0	1	2.5063970089	None	None	None	None	1
2.7	2015_May_19_1538	s	s	13	2	Capacity	55	ABS	0	1	08RD 16RO	0	1	4.24400782585	None	None	None	None	1
2.7	2015_May_19_1538	s	s	13	2	Capacity	56	RC	0	1	08RD 15RO	1	0	3.57416009903	-454.0	-407.0	-460	-411	1
2.7	2015_May_19_1538	s	s	13	2	Capacity	57	RC	0	1	08RD 15RO	1	0	1.42364788055	24.0	218.0	24	217	1
2.7	2015_May_19_1538	s	s	13	2	Capacity	58	RC	0	2	15RD 08RO	1	0	1.48899793625	-359.0	-194.0	-361	-193	1
2.7	2015_May_19_1538	s	s	13	2	Capacity	59	ABS	0	1	08RD 16RO	0	1	4.17817687988	None	None	None	None	1
2.7	2015_May_19_1538	s	s	13	2	Capacity	60	ABS	0	2	16RD 08RO	0	1	2.25981998444	None	None	None	None	1
2.7	2015_May_19_1538	s	s	13	2	Capacity	61	RC	0	1	08RD 15RO	1	0	1.60747218132	-414.0	216.0	-413	215	1
2.7	2015_May_19_1538	s	s	13	2	Capacity	62	RC	0	2	15RD 08RO	1	0	0.740949869156	-45.0	138.0	-41	133	1
2.7	2015_May_19_1538	s	s	13	2	Capacity	63	ABS	0	2	16RD 08RO	0	1	2.30302500725	None	None	None	None	1
2.7	2015_May_19_1538	s	s	13	2	Capacity	64	ABS	0	1	08RD 16RO	0	1	3.60796880722	None	None	None	None	1
2.7	2015_May_19_1538	s	s	13	2	Capacity	1	ABS	2	0	16VC 08MC	0	1	3.17487096786	None	None	None	None	1
2.7	2015_May_19_1538	s	s	13	2	Capacity	2	RC	2	0	15VC 08MC	1	0	0.699971914291	159.0	90.0	162	87	1
2.7	2015_May_19_1538	s	s	13	2	Capacity	3	RC	1	0	08VC 15MC	1	0	0.913985967636	348.0	395.0	352	394	1
2.7	2015_May_19_1538	s	s	13	2	Capacity	4	ABS	1	0	08VC 16MC	0	1	3.48783397675	None	None	None	None	1
2.7	2015_May_19_1538	s	s	13	2	Capacity	5	RC	1	0	08VC 15MC	1	0	0.821195840836	398.0	313.0	399	314	1
2.7	2015_May_19_1538	s	s	13	2	Capacity	6	ABS	2	0	16VC 08MC	0	1	2.71572089195	None	None	None	None	1
2.7	2015_May_19_1538	s	s	13	2	Capacity	7	RC	2	0	15VC 08MC	1	0	1.08218693733	65.0	-353.0	55	-350	1
2.7	2015_May_19_1538	s	s	13	2	Capacity	8	ABS	1	0	08VC 16MC	0	1	2.39792490005	None	None	None	None	1
2.7	2015_May_19_1538	s	s	13	2	Capacity	9	RC	2	0	15VC 08MC	1	0	1.38257789612	-406.0	-4.0	-416	0	1
2.7	2015_May_19_1538	s	s	13	2	Capacity	10	ABS	1	0	08VC 16MC	0	1	2.38880705833	None	None	None	None	1
2.7	2015_May_19_1538	s	s	13	2	Capacity	11	ABS	2	0	16VC 08MC	0	1	2.22901177406	None	None	None	None	1
2.7	2015_May_19_1538	s	s	13	2	Capacity	12	RC	1	0	08VC 15MC	1	0	0.623226881027	37.0	-64.0	43	-69	1
2.7	2015_May_19_1538	s	s	13	2	Capacity	13	ABS	2	0	16VC 08MC	0	1	2.21768188477	None	None	None	None	1
2.7	2015_May_19_1538	s	s	13	2	Capacity	14	ABS	1	0	08VC 16MC	0	1	2.07115101814	None	None	None	None	1
2.7	2015_May_19_1538	s	s	13	2	Capacity	15	RC	1	0	08VC 15MC	1	0	0.776890993118	-211.0	376.0	-210	370	1
2.7	2015_May_19_1538	s	s	13	2	Capacity	16	RC	2	0	15VC 08MC	1	0	0.807210206985	213.0	46.0	219	46	1
2.7	2015_May_19_1538	s	s	13	2	Capacity	17	RC	2	0	15VC 08MC	1	0	0.870340824127	-328.0	-151.0	-331	-154	1
2.7	2015_May_19_1538	s	s	13	2	Capacity	18	ABS	2	0	16VC 08MC	0	1	1.85461211205	None	None	None	None	1
2.7	2015_May_19_1538	s	s	13	2	Capacity	19	RC	1	0	08VC 15MC	1	0	0.59966301918	-102.0	-126.0	-97	-127	1
2.7	2015_May_19_1538	s	s	13	2	Capacity	20	ABS	1	0	08VC 16MC	0	1	2.27115082741	None	None	None	None	1
2.7	2015_May_19_1538	s	s	13	2	Capacity	21	RC	2	0	15VC 08MC	1	0	0.629267930984	402.0	-54.0	399	-57	1
2.7	2015_May_19_1538	s	s	13	2	Capacity	22	ABS	1	0	08VC 16MC	0	1	2.64289188385	None	None	None	None	1
2.7	2015_May_19_1538	s	s	13	2	Capacity	23	ABS	2	0	16VC 08MC	0	1	2.29986190796	None	None	None	None	1
2.7	2015_May_19_1538	s	s	13	2	Capacity	24	RC	1	0	08VC 15MC	1	0	0.799762964249	243.0	-51.0	238	-57	1
2.7	2015_May_19_1538	s	s	13	2	Capacity	25	ABS	2	0	16VC 08MC	0	1	2.50063920021	None	None	None	None	1
2.7	2015_May_19_1538	s	s	13	2	Capacity	26	RC	2	0	15VC 08MC	1	0	1.92469406128	-536.0	119.0	-534	115	1
2.7	2015_May_19_1538	s	s	13	2	Capacity	27	RC	1	0	08VC 15MC	1	0	0.752692937851	528.0	-128.0	524	-127	1
2.7	2015_May_19_1538	s	s	13	2	Capacity	28	ABS	1	0	08VC 16MC	0	1	2.05922293663	None	None	None	None	1
2.7	2015_May_19_1538	s	s	13	2	Capacity	29	ABS	2	0	16VC 08MC	0	1	1.84729409218	None	None	None	None	1
2.7	2015_May_19_1538	s	s	13	2	Capacity	30	ABS	1	0	08VC 16MC	0	1	4.37507486343	None	None	None	None	1
2.7	2015_May_19_1538	s	s	13	2	Capacity	31	RC	2	0	15VC 08MC	1	0	0.764490127563	200.0	351.0	207	350	1
2.7	2015_May_19_1538	s	s	13	2	Capacity	32	RC	1	0	08VC 15MC	1	0	3.734197855	-520.0	-149.0	-526	-155	1
2.7	2015_May_19_1538	s	s	13	2	Capacity	33	RC	2	0	15VC 08MC	1	0	0.688968896866	-157.0	159.0	-155	159	1
2.7	2015_May_19_1538	s	s	13	2	Capacity	34	RC	1	0	08VC 15MC	1	0	0.670315980911	-253.0	34.0	-247	33	1
2.7	2015_May_19_1538	s	s	13	2	Capacity	35	ABS	2	0	16VC 08MC	0	1	2.16026997566	None	None	None	None	1
2.7	2015_May_19_1538	s	s	13	2	Capacity	36	ABS	1	0	08VC 16MC	0	1	4.07203793526	None	None	None	None	1
2.7	2015_May_19_1538	s	s	13	2	Capacity	37	ABS	2	0	16VC 08MC	0	1	2.45930099487	None	None	None	None	1
2.7	2015_May_19_1538	s	s	13	2	Capacity	38	ABS	1	0	08VC 16MC	0	1	2.61246490479	None	None	None	None	1
2.7	2015_May_19_1538	s	s	13	2	Capacity	39	RC	2	0	15VC 08MC	1	0	1.04117393494	310.0	111.0	313	110	1
2.7	2015_May_19_1538	s	s	13	2	Capacity	40	RC	1	0	08VC 15MC	1	0	0.587728023529	-157.0	93.0	-158	96	1
2.7	2015_May_19_1538	s	s	13	2	Capacity	41	ABS	2	0	16VC 08MC	0	1	1.77200007439	None	None	None	None	1
2.7	2015_May_19_1538	s	s	13	2	Capacity	42	ABS	1	0	08VC 16MC	0	1	1.87097501755	None	None	None	None	1
2.7	2015_May_19_1538	s	s	13	2	Capacity	43	RC	2	0	15VC 08MC	1	0	0.600035905838	-186.0	37.0	-177	41	1
2.7	2015_May_19_1538	s	s	13	2	Capacity	44	RC	1	0	08VC 15MC	1	0	0.611356973648	-38.0	197.0	-46	198	1
2.7	2015_May_19_1538	s	s	13	2	Capacity	45	ABS	2	0	16VC 08MC	0	1	1.47909998894	None	None	None	None	1
2.7	2015_May_19_1538	s	s	13	2	Capacity	46	RC	2	0	15VC 08MC	1	0	0.9292781353	29.0	-272.0	32	-277	1
2.7	2015_May_19_1538	s	s	13	2	Capacity	47	RC	1	0	08VC 15MC	1	0	0.876440048218	-6.0	-405.0	-6	-406	1
2.7	2015_May_19_1538	s	s	13	2	Capacity	48	ABS	1	0	08VC 16MC	0	1	2.32993197441	None	None	None	None	1
2.7	2015_May_19_1538	s	s	13	2	Capacity	49	ABS	1	0	08VC 16MC	0	1	2.68913221359	None	None	None	None	1
2.7	2015_May_19_1538	s	s	13	2	Capacity	50	RC	2	0	15VC 08MC	1	0	0.890278100967	-471.0	72.0	-478	74	1
2.7	2015_May_19_1538	s	s	13	2	Capacity	51	ABS	2	0	16VC 08MC	0	1	1.44320607185	None	None	None	None	1
2.7	2015_May_19_1538	s	s	13	2	Capacity	52	RC	1	0	08VC 15MC	1	0	1.50598788261	-533.0	259.0	-538	266	1
2.7	2015_May_19_1538	s	s	13	2	Capacity	53	RC	2	0	15VC 08MC	1	0	0.912800073624	-79.0	-190.0	-73	-190	1
2.7	2015_May_19_1538	s	s	13	2	Capacity	54	ABS	2	0	16VC 08MC	0	1	1.7260890007	None	None	None	None	1
2.7	2015_May_19_1538	s	s	13	2	Capacity	55	RC	1	0	08VC 15MC	1	0	0.764430999756	70.0	-147.0	74	-145	1
2.7	2015_May_19_1538	s	s	13	2	Capacity	56	ABS	1	0	08VC 16MC	0	1	1.24716091156	None	None	None	None	1
2.7	2015_May_19_1538	s	s	13	2	Capacity	57	RC	2	0	15VC 08MC	1	0	1.47892999649	-340.0	337.0	-341	341	1
2.7	2015_May_19_1538	s	s	13	2	Capacity	58	RC	1	0	08VC 15MC	1	0	0.740951061249	297.0	-213.0	296	-210	1
2.7	2015_May_19_1538	s	s	13	2	Capacity	59	ABS	1	0	08VC 16MC	0	1	1.41180181503	None	None	None	None	1
2.7	2015_May_19_1538	s	s	13	2	Capacity	60	ABS	2	0	16VC 08MC	0	1	1.31552791595	None	None	None	None	1
2.7	2015_May_19_1538	s	s	13	2	Capacity	61	ABS	1	0	08VC 16MC	0	1	2.97723412514	None	None	None	None	1
2.7	2015_May_19_1538	s	s	13	2	Capacity	62	RC	1	0	08VC 15MC	1	0	0.488812923431	-34.0	127.0	-29	125	1
2.7	2015_May_19_1538	s	s	13	2	Capacity	63	ABS	2	0	16VC 08MC	0	1	1.67998099327	None	None	None	None	1
2.7	2015_May_19_1538	s	s	13	2	Capacity	64	RC	2	0	15VC 08MC	1	0	0.681944131851	-502.0	88.0	-497	92	1
2.7	2015_May_19_1538	s	s	13	2	SIC	1	RC	2	0	02VD 02VO 09VC 02MD 02MO 02MC 02RD 02RO	1	0	1.78592300415	368.0	-385.0	372	-387	1
2.7	2015_May_19_1538	s	s	13	2	SIC	2	ABS	0	1	02VD 02VO 02VC 02MD 02MO 02MC 02RD 10RO	0	1	2.6439409256	None	None	None	None	1
2.7	2015_May_19_1538	s	s	13	2	SIC	3	RC	0	2	02VD 02VO 02VC 02MD 02MO 02MC 09RD 02RO	1	0	1.13851690292	-216.0	166.0	-212	168	1
2.7	2015_May_19_1538	s	s	13	2	SIC	4	RC	2	2	09VD 02VO 02VC 02MD 02MO 02MC 02RD 02RO	1	0	0.517103910446	-176.0	155.0	-176	154	1
2.7	2015_May_19_1538	s	s	13	2	SIC	5	ABS	2	1	02VD 10VO 02VC 02MD 02MO 02MC 02RD 02RO	0	1	2.14999222755	None	None	None	None	1
2.7	2015_May_19_1538	s	s	13	2	SIC	6	RC	1	1	02VD 02VO 02VC 02MD 09MO 02MC 02RD 02RO	1	0	2.56135797501	-373.0	329.0	-378	332	1
2.7	2015_May_19_1538	s	s	13	2	SIC	7	RC	1	0	02VD 02VO 02VC 02MD 02MO 09MC 02RD 02RO	1	0	1.1293489933	-474.0	252.0	-474	256	1
2.7	2015_May_19_1538	s	s	13	2	SIC	8	ABS	1	1	02VD 02VO 02VC 02MD 10MO 02MC 02RD 02RO	1	0	2.15344905853	None	None	298	118	0
2.7	2015_May_19_1538	s	s	13	2	SIC	9	ABS	0	2	02VD 02VO 02VC 02MD 02MO 02MC 10RD 02RO	0	1	2.28272008896	None	None	None	None	1
2.7	2015_May_19_1538	s	s	13	2	SIC	10	RC	2	1	02VD 09VO 02VC 02MD 02MO 02MC 02RD 02RO	1	0	2.28290700912	222.0	404.0	218	401	1
2.7	2015_May_19_1538	s	s	13	2	SIC	11	ABS	1	2	02VD 02VO 02VC 10MD 02MO 02MC 02RD 02RO	0	1	1.91530299187	None	None	None	None	1
2.7	2015_May_19_1538	s	s	13	2	SIC	12	RC	0	1	02VD 02VO 02VC 02MD 02MO 02MC 02RD 09RO	1	0	0.984661102295	-174.0	235.0	-169	228	1
2.7	2015_May_19_1538	s	s	13	2	SIC	13	RC	1	2	02VD 02VO 02VC 09MD 02MO 02MC 02RD 02RO	1	0	1.19992303848	183.0	-78.0	182	-78	1
2.7	2015_May_19_1538	s	s	13	2	SIC	14	ABS	1	0	02VD 02VO 02VC 02MD 02MO 10MC 02RD 02RO	0	1	2.04456496239	None	None	None	None	1
2.7	2015_May_19_1538	s	s	13	2	SIC	15	ABS	2	2	10VD 02VO 02VC 02MD 02MO 02MC 02RD 02RO	0	1	1.89091920853	None	None	None	None	1
2.7	2015_May_19_1538	s	s	13	2	SIC	16	ABS	2	0	02VD 02VO 10VC 02MD 02MO 02MC 02RD 02RO	0	1	1.51770997047	None	None	None	None	1
2.7	2015_May_19_1538	s	s	13	2	SIC	17	RC	1	2	02VD 02VO 02VC 09MD 02MO 02MC 02RD 02RO	1	0	1.14153194427	-72.0	-242.0	-75	-236	1
2.7	2015_May_19_1538	s	s	13	2	SIC	18	RC	0	2	02VD 02VO 02VC 02MD 02MO 02MC 09RD 02RO	1	0	1.89445185661	70.0	349.0	70	350	1
2.7	2015_May_19_1538	s	s	13	2	SIC	19	ABS	0	2	02VD 02VO 02VC 02MD 02MO 02MC 10RD 02RO	0	1	2.18434906006	None	None	None	None	1
2.7	2015_May_19_1538	s	s	13	2	SIC	20	RC	2	0	02VD 02VO 09VC 02MD 02MO 02MC 02RD 02RO	1	0	0.844270944595	-218.0	250.0	-221	253	1
2.7	2015_May_19_1538	s	s	13	2	SIC	21	RC	1	1	02VD 02VO 02VC 02MD 09MO 02MC 02RD 02RO	1	0	0.776150941849	316.0	-117.0	315	-118	1
2.7	2015_May_19_1538	s	s	13	2	SIC	22	ABS	1	1	02VD 02VO 02VC 02MD 10MO 02MC 02RD 02RO	0	1	2.12516689301	None	None	None	None	1
2.7	2015_May_19_1538	s	s	13	2	SIC	23	RC	2	2	09VD 02VO 02VC 02MD 02MO 02MC 02RD 02RO	1	0	0.982050180435	-276.0	-193.0	-271	-199	1
2.7	2015_May_19_1538	s	s	13	2	SIC	24	ABS	1	2	02VD 02VO 02VC 10MD 02MO 02MC 02RD 02RO	0	1	1.79509997368	None	None	None	None	1
2.7	2015_May_19_1538	s	s	13	2	SIC	25	ABS	0	1	02VD 02VO 02VC 02MD 02MO 02MC 02RD 10RO	0	1	3.61680197716	None	None	None	None	1
2.7	2015_May_19_1538	s	s	13	2	SIC	26	ABS	1	0	02VD 02VO 02VC 02MD 02MO 10MC 02RD 02RO	0	1	1.8763821125	None	None	None	None	1
2.7	2015_May_19_1538	s	s	13	2	SIC	27	ABS	2	2	10VD 02VO 02VC 02MD 02MO 02MC 02RD 02RO	0	1	1.92513585091	None	None	None	None	1
2.7	2015_May_19_1538	s	s	13	2	SIC	28	ABS	2	0	02VD 02VO 10VC 02MD 02MO 02MC 02RD 02RO	0	1	1.56486201286	None	None	None	None	1
2.7	2015_May_19_1538	s	s	13	2	SIC	29	ABS	2	1	02VD 10VO 02VC 02MD 02MO 02MC 02RD 02RO	0	1	1.25881505013	None	None	None	None	1
2.7	2015_May_19_1538	s	s	13	2	SIC	30	RC	0	1	02VD 02VO 02VC 02MD 02MO 02MC 02RD 09RO	1	0	3.13959383965	-536.0	-189.0	-544	-190	1
2.7	2015_May_19_1538	s	s	13	2	SIC	31	RC	2	1	02VD 09VO 02VC 02MD 02MO 02MC 02RD 02RO	1	0	1.22723293304	-529.0	6.0	-537	6	1
2.7	2015_May_19_1538	s	s	13	2	SIC	32	RC	1	0	02VD 02VO 02VC 02MD 02MO 09MC 02RD 02RO	1	0	0.905535936356	0.0	-54.0	5	-53	1
2.7	2015_May_19_1538	s	s	13	2	SIC	33	ABS	1	0	02VD 02VO 02VC 02MD 02MO 10MC 02RD 02RO	0	1	2.53871703148	None	None	None	None	1
2.7	2015_May_19_1538	s	s	13	2	SIC	34	RC	2	1	02VD 09VO 02VC 02MD 02MO 02MC 02RD 02RO	1	0	0.675875902176	-172.0	-100.0	-170	-105	1
2.7	2015_May_19_1538	s	s	13	2	SIC	35	ABS	2	2	10VD 02VO 02VC 02MD 02MO 02MC 02RD 02RO	0	1	2.31010913849	None	None	None	None	1
2.7	2015_May_19_1538	s	s	13	2	SIC	36	RC	2	2	09VD 02VO 02VC 02MD 02MO 02MC 02RD 02RO	1	0	1.00354099274	477.0	171.0	478	173	1
2.7	2015_May_19_1538	s	s	13	2	SIC	37	RC	1	2	02VD 02VO 02VC 09MD 02MO 02MC 02RD 02RO	1	0	1.38441491127	433.0	-240.0	433	-237	1
2.7	2015_May_19_1538	s	s	13	2	SIC	38	ABS	0	2	02VD 02VO 02VC 02MD 02MO 02MC 10RD 02RO	0	1	2.04153108597	None	None	None	None	1
2.7	2015_May_19_1538	s	s	13	2	SIC	39	ABS	2	0	02VD 02VO 10VC 02MD 02MO 02MC 02RD 02RO	1	0	0.889272212982	None	None	-262	294	0
2.7	2015_May_19_1538	s	s	13	2	SIC	40	RC	0	1	02VD 02VO 02VC 02MD 02MO 02MC 02RD 09RO	1	0	2.98421812057	-160.0	-343.0	-160	-342	1
2.7	2015_May_19_1538	s	s	13	2	SIC	41	ABS	1	1	02VD 02VO 02VC 02MD 10MO 02MC 02RD 02RO	0	1	2.17054510117	None	None	None	None	1
2.7	2015_May_19_1538	s	s	13	2	SIC	42	ABS	2	1	02VD 10VO 02VC 02MD 02MO 02MC 02RD 02RO	0	1	1.88269400597	None	None	None	None	1
2.7	2015_May_19_1538	s	s	13	2	SIC	43	RC	2	0	02VD 02VO 09VC 02MD 02MO 02MC 02RD 02RO	1	0	0.917362928391	-69.0	392.0	-78	401	1
2.7	2015_May_19_1538	s	s	13	2	SIC	44	RC	0	2	02VD 02VO 02VC 02MD 02MO 02MC 09RD 02RO	1	0	1.06771993637	335.0	-280.0	337	-284	1
2.7	2015_May_19_1538	s	s	13	2	SIC	45	ABS	1	2	02VD 02VO 02VC 10MD 02MO 02MC 02RD 02RO	0	1	1.75323700905	None	None	None	None	1
2.7	2015_May_19_1538	s	s	13	2	SIC	46	RC	1	0	02VD 02VO 02VC 02MD 02MO 09MC 02RD 02RO	1	0	1.17089295387	360.0	305.0	370	304	1
2.7	2015_May_19_1538	s	s	13	2	SIC	47	RC	1	1	02VD 02VO 02VC 02MD 09MO 02MC 02RD 02RO	1	0	2.13877010345	-497.0	296.0	-492	291	1
2.7	2015_May_19_1538	s	s	13	2	SIC	48	ABS	0	1	02VD 02VO 02VC 02MD 02MO 02MC 02RD 10RO	0	1	3.41286420822	None	None	None	None	1
2.7	2015_May_19_1538	s	s	13	2	SIC	49	RC	0	1	02VD 02VO 02VC 02MD 02MO 02MC 02RD 09RO	1	0	1.34978103638	385.0	-237.0	392	-234	1
2.7	2015_May_19_1538	s	s	13	2	SIC	50	ABS	0	1	02VD 02VO 02VC 02MD 02MO 02MC 02RD 10RO	0	1	4.22242903709	None	None	None	None	1
2.7	2015_May_19_1538	s	s	13	2	SIC	51	RC	2	0	02VD 02VO 09VC 02MD 02MO 02MC 02RD 02RO	1	0	1.78887915611	-496.0	-185.0	-494	-191	1
2.7	2015_May_19_1538	s	s	13	2	SIC	52	ABS	1	0	02VD 02VO 02VC 02MD 02MO 10MC 02RD 02RO	0	1	2.67824101448	None	None	None	None	1
2.7	2015_May_19_1538	s	s	13	2	SIC	53	ABS	0	2	02VD 02VO 02VC 02MD 02MO 02MC 10RD 02RO	0	1	1.17239189148	None	None	None	None	1
2.7	2015_May_19_1538	s	s	13	2	SIC	54	ABS	2	2	10VD 02VO 02VC 02MD 02MO 02MC 02RD 02RO	0	1	1.48287510872	None	None	None	None	1
2.7	2015_May_19_1538	s	s	13	2	SIC	55	ABS	1	2	02VD 02VO 02VC 10MD 02MO 02MC 02RD 02RO	0	1	2.18530988693	None	None	None	None	1
2.7	2015_May_19_1538	s	s	13	2	SIC	56	RC	2	1	02VD 09VO 02VC 02MD 02MO 02MC 02RD 02RO	1	0	1.22075295448	-369.0	79.0	-368	73	1
2.7	2015_May_19_1538	s	s	13	2	SIC	57	ABS	1	1	02VD 02VO 02VC 02MD 10MO 02MC 02RD 02RO	0	1	2.04371905327	None	None	None	None	1
2.7	2015_May_19_1538	s	s	13	2	SIC	58	RC	1	2	02VD 02VO 02VC 09MD 02MO 02MC 02RD 02RO	1	0	0.676360845566	-197.0	16.0	-190	12	1
2.7	2015_May_19_1538	s	s	13	2	SIC	59	RC	1	1	02VD 02VO 02VC 02MD 09MO 02MC 02RD 02RO	1	0	0.970532178879	-113.0	-162.0	-119	-158	1
2.7	2015_May_19_1538	s	s	13	2	SIC	60	RC	1	0	02VD 02VO 02VC 02MD 02MO 09MC 02RD 02RO	1	0	1.15958499908	-380.0	-276.0	-384	-278	1
2.7	2015_May_19_1538	s	s	13	2	SIC	61	ABS	2	0	02VD 02VO 10VC 02MD 02MO 02MC 02RD 02RO	0	1	2.20779299736	None	None	None	None	1
2.7	2015_May_19_1538	s	s	13	2	SIC	62	ABS	2	1	02VD 10VO 02VC 02MD 02MO 02MC 02RD 02RO	0	1	1.62360882759	None	None	None	None	1
2.7	2015_May_19_1538	s	s	13	2	SIC	63	RC	0	2	02VD 02VO 02VC 02MD 02MO 02MC 09RD 02RO	1	0	0.738362073898	-155.0	-91.0	-146	-94	1
2.7	2015_May_19_1538	s	s	13	2	SIC	64	RC	2	2	09VD 02VO 02VC 02MD 02MO 02MC 02RD 02RO	1	0	0.870244026184	-259.0	405.0	-255	400	1
2.7	2015_May_19_1538	s	s	13	2	SIC	65	RC	1	0	02VD 02VO 02VC 02MD 02MO 09MC 02RD 02RO	1	0	1.19254088402	-208.0	-301.0	-203	-304	1
2.7	2015_May_19_1538	s	s	13	2	SIC	66	ABS	0	1	02VD 02VO 02VC 02MD 02MO 02MC 02RD 10RO	0	1	2.70419812202	None	None	None	None	1
2.7	2015_May_19_1538	s	s	13	2	SIC	67	RC	1	1	02VD 02VO 02VC 02MD 09MO 02MC 02RD 02RO	1	0	1.93678808212	492.0	361.0	493	358	1
2.7	2015_May_19_1538	s	s	13	2	SIC	68	ABS	0	2	02VD 02VO 02VC 02MD 02MO 02MC 10RD 02RO	0	1	2.5300450325	None	None	None	None	1
2.7	2015_May_19_1538	s	s	13	2	SIC	69	RC	2	0	02VD 02VO 09VC 02MD 02MO 02MC 02RD 02RO	1	0	1.67985391617	523.0	31.0	528	30	1
2.7	2015_May_19_1538	s	s	13	2	SIC	70	RC	1	2	02VD 02VO 02VC 09MD 02MO 02MC 02RD 02RO	1	0	0.7826359272	-122.0	271.0	-126	273	1
2.7	2015_May_19_1538	s	s	13	2	SIC	71	RC	0	2	02VD 02VO 02VC 02MD 02MO 02MC 09RD 02RO	1	0	0.891216039658	82.0	-404.0	86	-404	1
2.7	2015_May_19_1538	s	s	13	2	SIC	72	ABS	2	2	10VD 02VO 02VC 02MD 02MO 02MC 02RD 02RO	0	1	1.61201500893	None	None	None	None	1
2.7	2015_May_19_1538	s	s	13	2	SIC	73	ABS	1	0	02VD 02VO 02VC 02MD 02MO 10MC 02RD 02RO	0	1	2.39525389671	None	None	None	None	1
2.7	2015_May_19_1538	s	s	13	2	SIC	74	ABS	2	1	02VD 10VO 02VC 02MD 02MO 02MC 02RD 02RO	0	1	1.97176504135	None	None	None	None	1
2.7	2015_May_19_1538	s	s	13	2	SIC	75	RC	0	1	02VD 02VO 02VC 02MD 02MO 02MC 02RD 09RO	1	0	2.87142086029	-58.0	-222.0	-55	-225	1
2.7	2015_May_19_1538	s	s	13	2	SIC	76	ABS	1	1	02VD 02VO 02VC 02MD 10MO 02MC 02RD 02RO	0	1	1.80947303772	None	None	None	None	1
2.7	2015_May_19_1538	s	s	13	2	SIC	77	ABS	1	2	02VD 02VO 02VC 10MD 02MO 02MC 02RD 02RO	0	1	2.07091188431	None	None	None	None	1
2.7	2015_May_19_1538	s	s	13	2	SIC	78	RC	2	1	02VD 09VO 02VC 02MD 02MO 02MC 02RD 02RO	1	0	1.11758804321	-447.0	-257.0	-447	-257	1
2.7	2015_May_19_1538	s	s	13	2	SIC	79	RC	2	2	09VD 02VO 02VC 02MD 02MO 02MC 02RD 02RO	1	0	1.04296302795	-453.0	-9.0	-450	-2	1
2.7	2015_May_19_1538	s	s	13	2	SIC	80	ABS	2	0	02VD 02VO 10VC 02MD 02MO 02MC 02RD 02RO	0	1	1.72442793846	None	None	None	None	1
2.7	2015_May_19_1538	s	s	13	2	SIC	81	ABS	2	2	10VD 02VO 02VC 02MD 02MO 02MC 02RD 02RO	0	1	1.56482601166	None	None	None	None	1
2.7	2015_May_19_1538	s	s	13	2	SIC	82	RC	1	0	02VD 02VO 02VC 02MD 02MO 09MC 02RD 02RO	1	0	0.841948032379	501.0	-17.0	508	-21	1
2.7	2015_May_19_1538	s	s	13	2	SIC	83	ABS	2	1	02VD 10VO 02VC 02MD 02MO 02MC 02RD 02RO	0	1	1.53578019142	None	None	None	None	1
2.7	2015_May_19_1538	s	s	13	2	SIC	84	RC	2	0	02VD 02VO 09VC 02MD 02MO 02MC 02RD 02RO	1	0	0.959577083588	-396.0	4.0	-388	7	1
2.7	2015_May_19_1538	s	s	13	2	SIC	85	ABS	1	0	02VD 02VO 02VC 02MD 02MO 10MC 02RD 02RO	0	1	1.60777282715	None	None	None	None	1
2.7	2015_May_19_1538	s	s	13	2	SIC	86	RC	1	1	02VD 02VO 02VC 02MD 09MO 02MC 02RD 02RO	1	0	1.10061693192	-277.0	178.0	-276	179	1
2.7	2015_May_19_1538	s	s	13	2	SIC	87	RC	2	1	02VD 09VO 02VC 02MD 02MO 02MC 02RD 02RO	1	0	2.93041992188	59.0	388.0	54	387	1
2.7	2015_May_19_1538	s	s	13	2	SIC	88	RC	2	2	09VD 02VO 02VC 02MD 02MO 02MC 02RD 02RO	1	0	2.07776713371	51.0	-347.0	55	-352	1
2.7	2015_May_19_1538	s	s	13	2	SIC	89	RC	0	2	02VD 02VO 02VC 02MD 02MO 02MC 09RD 02RO	1	0	1.66576004028	-479.0	-144.0	-478	-151	1
2.7	2015_May_19_1538	s	s	13	2	SIC	90	ABS	1	1	02VD 02VO 02VC 02MD 10MO 02MC 02RD 02RO	0	1	2.27836513519	None	None	None	None	1
2.7	2015_May_19_1538	s	s	13	2	SIC	91	RC	0	1	02VD 02VO 02VC 02MD 02MO 02MC 02RD 09RO	1	0	2.22104096413	-498.0	-83.0	-503	-80	1
2.7	2015_May_19_1538	s	s	13	2	SIC	92	ABS	0	1	02VD 02VO 02VC 02MD 02MO 02MC 02RD 10RO	0	1	2.82430696487	None	None	None	None	1
2.7	2015_May_19_1538	s	s	13	2	SIC	93	RC	1	2	02VD 02VO 02VC 09MD 02MO 02MC 02RD 02RO	1	0	1.00870084763	508.0	-91.0	506	-87	1
2.7	2015_May_19_1538	s	s	13	2	SIC	94	ABS	1	2	02VD 02VO 02VC 10MD 02MO 02MC 02RD 02RO	0	1	2.33900284767	None	None	None	None	1
2.7	2015_May_19_1538	s	s	13	2	SIC	95	ABS	2	0	02VD 02VO 10VC 02MD 02MO 02MC 02RD 02RO	0	1	1.99545097351	None	None	None	None	1
2.7	2015_May_19_1538	s	s	13	2	SIC	96	ABS	0	2	02VD 02VO 02VC 02MD 02MO 02MC 10RD 02RO	0	1	2.27720808983	None	None	None	None	1
2.7	2015_May_19_1538	s	s	13	2	SIC	97	ABS	2	0	02VD 02VO 10VC 02MD 02MO 02MC 02RD 02RO	0	1	1.92727708817	None	None	None	None	1
2.7	2015_May_19_1538	s	s	13	2	SIC	98	RC	2	2	09VD 02VO 02VC 02MD 02MO 02MC 02RD 02RO	1	0	0.961894989014	-314.0	147.0	-313	141	1
2.7	2015_May_19_1538	s	s	13	2	SIC	99	RC	1	2	02VD 02VO 02VC 09MD 02MO 02MC 02RD 02RO	1	0	3.66895389557	455.0	100.0	451	103	1
2.7	2015_May_19_1538	s	s	13	2	SIC	100	ABS	0	2	02VD 02VO 02VC 02MD 02MO 02MC 10RD 02RO	0	1	2.00950193405	None	None	None	None	1
2.7	2015_May_19_1538	s	s	13	2	SIC	101	RC	2	1	02VD 09VO 02VC 02MD 02MO 02MC 02RD 02RO	1	0	0.717329978943	120.0	245.0	124	245	1
2.7	2015_May_19_1538	s	s	13	2	SIC	102	ABS	1	2	02VD 02VO 02VC 10MD 02MO 02MC 02RD 02RO	0	1	1.80866408348	None	None	None	None	1
2.7	2015_May_19_1538	s	s	13	2	SIC	103	RC	1	1	02VD 02VO 02VC 02MD 09MO 02MC 02RD 02RO	1	0	0.799717903137	347.0	369.0	352	364	1
2.7	2015_May_19_1538	s	s	13	2	SIC	104	RC	2	0	02VD 02VO 09VC 02MD 02MO 02MC 02RD 02RO	1	0	1.24236917496	-248.0	60.0	-249	59	1
2.7	2015_May_19_1538	s	s	13	2	SIC	105	RC	0	1	02VD 02VO 02VC 02MD 02MO 02MC 02RD 09RO	1	0	2.58327794075	-347.0	217.0	-344	211	1
2.7	2015_May_19_1538	s	s	13	2	SIC	106	ABS	2	1	02VD 10VO 02VC 02MD 02MO 02MC 02RD 02RO	0	1	1.73577308655	None	None	None	None	1
2.7	2015_May_19_1538	s	s	13	2	SIC	107	ABS	2	2	10VD 02VO 02VC 02MD 02MO 02MC 02RD 02RO	0	1	1.51482200623	None	None	None	None	1
2.7	2015_May_19_1538	s	s	13	2	SIC	108	RC	0	2	02VD 02VO 02VC 02MD 02MO 02MC 09RD 02RO	1	0	0.964527130127	-508.0	170.0	-511	176	1
2.7	2015_May_19_1538	s	s	13	2	SIC	109	ABS	1	0	02VD 02VO 02VC 02MD 02MO 10MC 02RD 02RO	0	1	2.86845207214	None	None	None	None	1
2.7	2015_May_19_1538	s	s	13	2	SIC	110	ABS	1	1	02VD 02VO 02VC 02MD 10MO 02MC 02RD 02RO	0	1	1.80933785439	None	None	None	None	1
2.7	2015_May_19_1538	s	s	13	2	SIC	111	ABS	0	1	02VD 02VO 02VC 02MD 02MO 02MC 02RD 10RO	0	1	2.94806003571	None	None	None	None	1
2.7	2015_May_19_1538	s	s	13	2	SIC	112	RC	1	0	02VD 02VO 02VC 02MD 02MO 09MC 02RD 02RO	1	0	1.31394696236	-190.0	-388.0	-184	-384	1
2.7	2015_May_19_1538	s	s	13	2	SIC	113	RC	2	1	02VD 09VO 02VC 02MD 02MO 02MC 02RD 02RO	0	1	1.91771507263	235.0	-51.0	None	None	0
2.7	2015_May_19_1538	s	s	13	2	SIC	114	RC	2	2	09VD 02VO 02VC 02MD 02MO 02MC 02RD 02RO	1	0	0.665289163589	269.0	14.0	268	8	1
2.7	2015_May_19_1538	s	s	13	2	SIC	115	ABS	2	2	10VD 02VO 02VC 02MD 02MO 02MC 02RD 02RO	0	1	2.1887960434	None	None	None	None	1
2.7	2015_May_19_1538	s	s	13	2	SIC	116	RC	0	2	02VD 02VO 02VC 02MD 02MO 02MC 09RD 02RO	1	0	1.67760705948	-266.0	-350.0	-257	-349	1
2.7	2015_May_19_1538	s	s	13	2	SIC	117	ABS	0	2	02VD 02VO 02VC 02MD 02MO 02MC 10RD 02RO	0	1	2.27115607262	None	None	None	None	1
2.7	2015_May_19_1538	s	s	13	2	SIC	118	ABS	2	1	02VD 10VO 02VC 02MD 02MO 02MC 02RD 02RO	0	1	3.15380501747	None	None	None	None	1
2.7	2015_May_19_1538	s	s	13	2	SIC	119	RC	0	1	02VD 02VO 02VC 02MD 02MO 02MC 02RD 09RO	1	0	2.02389788628	10.0	-119.0	4	-119	1
2.7	2015_May_19_1538	s	s	13	2	SIC	120	ABS	2	0	02VD 02VO 10VC 02MD 02MO 02MC 02RD 02RO	0	1	2.06754517555	None	None	None	None	1
2.7	2015_May_19_1538	s	s	13	2	SIC	121	RC	2	0	02VD 02VO 09VC 02MD 02MO 02MC 02RD 02RO	1	0	1.07093691826	414.0	-75.0	416	-80	1
2.7	2015_May_19_1538	s	s	13	2	SIC	122	RC	1	0	02VD 02VO 02VC 02MD 02MO 09MC 02RD 02RO	1	0	0.655876159668	-102.0	52.0	-107	54	1
2.7	2015_May_19_1538	s	s	13	2	SIC	123	RC	1	2	02VD 02VO 02VC 09MD 02MO 02MC 02RD 02RO	1	0	0.820917129517	302.0	-246.0	303	-250	1
2.7	2015_May_19_1538	s	s	13	2	SIC	124	ABS	1	0	02VD 02VO 02VC 02MD 02MO 10MC 02RD 02RO	0	1	3.10116100311	None	None	None	None	1
2.7	2015_May_19_1538	s	s	13	2	SIC	125	ABS	1	1	02VD 02VO 02VC 02MD 10MO 02MC 02RD 02RO	1	0	2.45937085152	None	None	-541	74	0
2.7	2015_May_19_1538	s	s	13	2	SIC	126	RC	1	1	02VD 02VO 02VC 02MD 09MO 02MC 02RD 02RO	1	0	2.09460091591	-380.0	-307.0	-391	-303	1
2.7	2015_May_19_1538	s	s	13	2	SIC	127	ABS	0	1	02VD 02VO 02VC 02MD 02MO 02MC 02RD 10RO	0	1	3.36010098457	None	None	None	None	1
2.7	2015_May_19_1538	s	s	13	2	SIC	128	ABS	1	2	02VD 02VO 02VC 10MD 02MO 02MC 02RD 02RO	0	1	1.9065721035	None	None	None	None	1
2.7	2015_May_19_1538	s	s	13	2	SIC	129	RC	1	1	02VD 02VO 02VC 02MD 09MO 02MC 02RD 02RO	1	0	0.823379993439	-418.0	109.0	-421	110	1
2.7	2015_May_19_1538	s	s	13	2	SIC	130	ABS	1	1	02VD 02VO 02VC 02MD 10MO 02MC 02RD 02RO	0	1	3.78685998917	None	None	None	None	1
2.7	2015_May_19_1538	s	s	13	2	SIC	131	RC	1	0	02VD 02VO 02VC 02MD 02MO 09MC 02RD 02RO	1	0	0.670318841934	-394.0	73.0	-400	72	1
2.7	2015_May_19_1538	s	s	13	2	SIC	132	RC	2	0	02VD 02VO 09VC 02MD 02MO 02MC 02RD 02RO	1	0	1.0890109539	-394.0	257.0	-395	261	1
2.7	2015_May_19_1538	s	s	13	2	SIC	133	ABS	2	1	02VD 10VO 02VC 02MD 02MO 02MC 02RD 02RO	0	1	1.55312108994	None	None	None	None	1
2.7	2015_May_19_1538	s	s	13	2	SIC	134	ABS	2	2	10VD 02VO 02VC 02MD 02MO 02MC 02RD 02RO	0	1	2.32996988297	None	None	None	None	1
2.7	2015_May_19_1538	s	s	13	2	SIC	135	RC	2	2	09VD 02VO 02VC 02MD 02MO 02MC 02RD 02RO	1	0	1.03026199341	133.0	340.0	129	347	1
2.7	2015_May_19_1538	s	s	13	2	SIC	136	RC	0	1	02VD 02VO 02VC 02MD 02MO 02MC 02RD 09RO	1	0	1.32948803902	102.0	-123.0	106	-126	1
2.7	2015_May_19_1538	s	s	13	2	SIC	137	RC	0	2	02VD 02VO 02VC 02MD 02MO 02MC 09RD 02RO	1	0	1.29455900192	-304.0	-252.0	-310	-254	1
2.7	2015_May_19_1538	s	s	13	2	SIC	138	ABS	1	0	02VD 02VO 02VC 02MD 02MO 10MC 02RD 02RO	0	1	2.0778567791	None	None	None	None	1
2.7	2015_May_19_1538	s	s	13	2	SIC	139	RC	2	1	02VD 09VO 02VC 02MD 02MO 02MC 02RD 02RO	1	0	1.58838605881	339.0	-145.0	338	-145	1
2.7	2015_May_19_1538	s	s	13	2	SIC	140	ABS	0	1	02VD 02VO 02VC 02MD 02MO 02MC 02RD 10RO	0	1	3.16030287743	None	None	None	None	1
2.7	2015_May_19_1538	s	s	13	2	SIC	141	ABS	0	2	02VD 02VO 02VC 02MD 02MO 02MC 10RD 02RO	0	1	1.72997903824	None	None	None	None	1
2.7	2015_May_19_1538	s	s	13	2	SIC	142	RC	1	2	02VD 02VO 02VC 09MD 02MO 02MC 02RD 02RO	1	0	2.2095489502	390.0	-201.0	395	-195	1
2.7	2015_May_19_1538	s	s	13	2	SIC	143	ABS	2	0	02VD 02VO 10VC 02MD 02MO 02MC 02RD 02RO	0	1	1.72691297531	None	None	None	None	1
2.7	2015_May_19_1538	s	s	13	2	SIC	144	ABS	1	2	02VD 02VO 02VC 10MD 02MO 02MC 02RD 02RO	0	1	1.77188014984	None	None	None	None	1
2.7	2015_May_19_1538	s	s	13	2	SIC	145	ABS	2	1	02VD 10VO 02VC 02MD 02MO 02MC 02RD 02RO	0	1	1.92973303795	None	None	None	None	1
2.7	2015_May_19_1538	s	s	13	2	SIC	146	RC	1	1	02VD 02VO 02VC 02MD 09MO 02MC 02RD 02RO	1	0	1.90108680725	-282.0	300.0	-283	298	1
2.7	2015_May_19_1538	s	s	13	2	SIC	147	ABS	1	2	02VD 02VO 02VC 10MD 02MO 02MC 02RD 02RO	0	1	1.8473751545	None	None	None	None	1
2.7	2015_May_19_1538	s	s	13	2	SIC	148	RC	1	0	02VD 02VO 02VC 02MD 02MO 09MC 02RD 02RO	1	0	0.90571808815	370.0	-260.0	366	-260	1
2.7	2015_May_19_1538	s	s	13	2	SIC	149	ABS	0	1	02VD 02VO 02VC 02MD 02MO 02MC 02RD 10RO	0	1	3.26697301865	None	None	None	None	1
2.7	2015_May_19_1538	s	s	13	2	SIC	150	RC	2	1	02VD 09VO 02VC 02MD 02MO 02MC 02RD 02RO	1	0	3.43638896942	-253.0	-187.0	-265	-179	1
2.7	2015_May_19_1538	s	s	13	2	SIC	151	RC	1	2	02VD 02VO 02VC 09MD 02MO 02MC 02RD 02RO	1	0	0.911069154739	89.0	165.0	84	160	1
2.7	2015_May_19_1538	s	s	13	2	SIC	152	ABS	0	2	02VD 02VO 02VC 02MD 02MO 02MC 10RD 02RO	0	1	1.89863395691	None	None	None	None	1
2.7	2015_May_19_1538	s	s	13	2	SIC	153	ABS	1	0	02VD 02VO 02VC 02MD 02MO 10MC 02RD 02RO	0	1	2.90190505981	None	None	None	None	1
2.7	2015_May_19_1538	s	s	13	2	SIC	154	RC	0	2	02VD 02VO 02VC 02MD 02MO 02MC 09RD 02RO	1	0	1.75989198685	-512.0	-389.0	-505	-389	1
2.7	2015_May_19_1538	s	s	13	2	SIC	155	RC	2	0	02VD 02VO 09VC 02MD 02MO 02MC 02RD 02RO	1	0	1.974203825	-503.0	-39.0	-508	-34	1
2.7	2015_May_19_1538	s	s	13	2	SIC	156	RC	2	2	09VD 02VO 02VC 02MD 02MO 02MC 02RD 02RO	1	0	1.90620112419	-511.0	-64.0	-513	-60	1
2.7	2015_May_19_1538	s	s	13	2	SIC	157	ABS	1	1	02VD 02VO 02VC 02MD 10MO 02MC 02RD 02RO	0	1	3.40097284317	None	None	None	None	1
2.7	2015_May_19_1538	s	s	13	2	SIC	158	ABS	2	0	02VD 02VO 10VC 02MD 02MO 02MC 02RD 02RO	0	1	1.66508603096	None	None	None	None	1
2.7	2015_May_19_1538	s	s	13	2	SIC	159	ABS	2	2	10VD 02VO 02VC 02MD 02MO 02MC 02RD 02RO	0	1	1.96503806114	None	None	None	None	1
2.7	2015_May_19_1538	s	s	13	2	SIC	160	RC	0	1	02VD 02VO 02VC 02MD 02MO 02MC 02RD 09RO	1	0	1.85911989212	-478.0	-314.0	-483	-320	1
2.7	2015_May_19_1538	s	s	13	2	SIC	161	ABS	2	2	10VD 02VO 02VC 02MD 02MO 02MC 02RD 02RO	0	1	1.79702687263	None	None	None	None	1
2.7	2015_May_19_1538	s	s	13	2	SIC	162	ABS	0	2	02VD 02VO 02VC 02MD 02MO 02MC 10RD 02RO	0	1	1.68263292313	None	None	None	None	1
2.7	2015_May_19_1538	s	s	13	2	SIC	163	RC	0	2	02VD 02VO 02VC 02MD 02MO 02MC 09RD 02RO	1	0	1.06475806236	341.0	-178.0	339	-172	1
2.7	2015_May_19_1538	s	s	13	2	SIC	164	ABS	2	1	02VD 10VO 02VC 02MD 02MO 02MC 02RD 02RO	0	1	1.70189380646	None	None	None	None	1
2.7	2015_May_19_1538	s	s	13	2	SIC	165	ABS	1	2	02VD 02VO 02VC 10MD 02MO 02MC 02RD 02RO	0	1	1.52258110046	None	None	None	None	1
2.7	2015_May_19_1538	s	s	13	2	SIC	166	RC	0	1	02VD 02VO 02VC 02MD 02MO 02MC 02RD 09RO	1	0	1.38579511642	21.0	361.0	22	363	1
2.7	2015_May_19_1538	s	s	13	2	SIC	167	RC	1	0	02VD 02VO 02VC 02MD 02MO 09MC 02RD 02RO	1	0	1.94162797928	-468.0	384.0	-471	376	1
2.7	2015_May_19_1538	s	s	13	2	SIC	168	RC	2	0	02VD 02VO 09VC 02MD 02MO 02MC 02RD 02RO	1	0	0.973698139191	173.0	-218.0	168	-221	1
2.7	2015_May_19_1538	s	s	13	2	SIC	169	RC	1	2	02VD 02VO 02VC 09MD 02MO 02MC 02RD 02RO	1	0	0.729163885117	114.0	-196.0	104	-194	1
2.7	2015_May_19_1538	s	s	13	2	SIC	170	ABS	1	0	02VD 02VO 02VC 02MD 02MO 10MC 02RD 02RO	0	1	3.20137190819	None	None	None	None	1
2.7	2015_May_19_1538	s	s	13	2	SIC	171	RC	2	2	09VD 02VO 02VC 02MD 02MO 02MC 02RD 02RO	1	0	0.690874099731	-240.0	-113.0	-244	-109	1
2.7	2015_May_19_1538	s	s	13	2	SIC	172	ABS	2	0	02VD 02VO 10VC 02MD 02MO 02MC 02RD 02RO	0	1	1.75055789948	None	None	None	None	1
2.7	2015_May_19_1538	s	s	13	2	SIC	173	ABS	1	1	02VD 02VO 02VC 02MD 10MO 02MC 02RD 02RO	0	1	3.43642687798	None	None	None	None	1
2.7	2015_May_19_1538	s	s	13	2	SIC	174	ABS	0	1	02VD 02VO 02VC 02MD 02MO 02MC 02RD 10RO	0	1	3.11316084862	None	None	None	None	1
2.7	2015_May_19_1538	s	s	13	2	SIC	175	RC	2	1	02VD 09VO 02VC 02MD 02MO 02MC 02RD 02RO	1	0	1.01166701317	-178.0	-62.0	-174	-64	1
2.7	2015_May_19_1538	s	s	13	2	SIC	176	RC	1	1	02VD 02VO 02VC 02MD 09MO 02MC 02RD 02RO	1	0	0.737501144409	133.0	-219.0	140	-216	1
2.7	2015_May_19_1538	s	s	13	2	SIC	177	ABS	0	1	02VD 02VO 02VC 02MD 02MO 02MC 02RD 10RO	0	1	3.9462761879	None	None	None	None	1
2.7	2015_May_19_1538	s	s	13	2	SIC	178	ABS	2	2	10VD 02VO 02VC 02MD 02MO 02MC 02RD 02RO	0	1	2.85523104668	None	None	None	None	1
2.7	2015_May_19_1538	s	s	13	2	SIC	179	RC	0	2	02VD 02VO 02VC 02MD 02MO 02MC 09RD 02RO	1	0	1.04332709312	-371.0	-358.0	-373	-358	1
2.7	2015_May_19_1538	s	s	13	2	SIC	180	RC	2	2	09VD 02VO 02VC 02MD 02MO 02MC 02RD 02RO	1	0	0.646599054337	65.0	-279.0	63	-277	1
2.7	2015_May_19_1538	s	s	13	2	SIC	181	RC	0	1	02VD 02VO 02VC 02MD 02MO 02MC 02RD 09RO	1	0	2.11412096024	-476.0	-359.0	-480	-360	1
2.7	2015_May_19_1538	s	s	13	2	SIC	182	RC	1	1	02VD 02VO 02VC 02MD 09MO 02MC 02RD 02RO	1	0	3.40787506104	445.0	-409.0	445	-413	1
2.7	2015_May_19_1538	s	s	13	2	SIC	183	ABS	2	1	02VD 10VO 02VC 02MD 02MO 02MC 02RD 02RO	1	0	2.28290891647	None	None	-382	-35	0
2.7	2015_May_19_1538	s	s	13	2	SIC	184	ABS	1	2	02VD 02VO 02VC 10MD 02MO 02MC 02RD 02RO	0	1	1.80942988396	None	None	None	None	1
2.7	2015_May_19_1538	s	s	13	2	SIC	185	RC	1	0	02VD 02VO 02VC 02MD 02MO 09MC 02RD 02RO	1	0	1.34613084793	-336.0	-249.0	-333	-249	1
2.7	2015_May_19_1538	s	s	13	2	SIC	186	ABS	2	0	02VD 02VO 10VC 02MD 02MO 02MC 02RD 02RO	0	1	1.75314593315	None	None	None	None	1
2.7	2015_May_19_1538	s	s	13	2	SIC	187	ABS	0	2	02VD 02VO 02VC 02MD 02MO 02MC 10RD 02RO	0	1	2.57147192955	None	None	None	None	1
2.7	2015_May_19_1538	s	s	13	2	SIC	188	RC	2	1	02VD 09VO 02VC 02MD 02MO 02MC 02RD 02RO	1	0	0.914515972137	-194.0	163.0	-194	158	1
2.7	2015_May_19_1538	s	s	13	2	SIC	189	RC	1	2	02VD 02VO 02VC 09MD 02MO 02MC 02RD 02RO	1	0	0.787990093231	387.0	150.0	389	146	1
2.7	2015_May_19_1538	s	s	13	2	SIC	190	ABS	1	0	02VD 02VO 02VC 02MD 02MO 10MC 02RD 02RO	0	1	2.13793492317	None	None	None	None	1
2.7	2015_May_19_1538	s	s	13	2	SIC	191	RC	2	0	02VD 02VO 09VC 02MD 02MO 02MC 02RD 02RO	1	0	1.42358493805	514.0	105.0	515	100	1
2.7	2015_May_19_1538	s	s	13	2	SIC	192	ABS	1	1	02VD 02VO 02VC 02MD 10MO 02MC 02RD 02RO	0	1	2.20043110847	None	None	None	None	1
2.7	2015_May_19_1538	s	s	13	2	SIC	193	RC	2	1	02VD 09VO 02VC 02MD 02MO 02MC 02RD 02RO	1	0	1.20628190041	-272.0	374.0	-271	383	1
2.7	2015_May_19_1538	s	s	13	2	SIC	194	ABS	2	2	10VD 02VO 02VC 02MD 02MO 02MC 02RD 02RO	0	1	1.68917489052	None	None	None	None	1
2.7	2015_May_19_1538	s	s	13	2	SIC	195	ABS	0	1	02VD 02VO 02VC 02MD 02MO 02MC 02RD 10RO	0	1	3.56053996086	None	None	None	None	1
2.7	2015_May_19_1538	s	s	13	2	SIC	196	RC	0	1	02VD 02VO 02VC 02MD 02MO 02MC 02RD 09RO	1	0	0.835164070129	117.0	184.0	120	175	1
2.7	2015_May_19_1538	s	s	13	2	SIC	197	ABS	1	2	02VD 02VO 02VC 10MD 02MO 02MC 02RD 02RO	0	1	1.78291511536	None	None	None	None	1
2.7	2015_May_19_1538	s	s	13	2	SIC	198	ABS	0	2	02VD 02VO 02VC 02MD 02MO 02MC 10RD 02RO	0	1	1.5261759758	None	None	None	None	1
2.7	2015_May_19_1538	s	s	13	2	SIC	199	RC	2	2	09VD 02VO 02VC 02MD 02MO 02MC 02RD 02RO	0	1	1.68917393684	371.0	410.0	None	None	0
2.7	2015_May_19_1538	s	s	13	2	SIC	200	ABS	2	0	02VD 02VO 10VC 02MD 02MO 02MC 02RD 02RO	0	1	1.29419016838	None	None	None	None	1
2.7	2015_May_19_1538	s	s	13	2	SIC	201	ABS	2	1	02VD 10VO 02VC 02MD 02MO 02MC 02RD 02RO	0	1	1.9479329586	None	None	None	None	1
2.7	2015_May_19_1538	s	s	13	2	SIC	202	RC	2	0	02VD 02VO 09VC 02MD 02MO 02MC 02RD 02RO	1	0	0.985587120056	-109.0	119.0	-109	126	1
2.7	2015_May_19_1538	s	s	13	2	SIC	203	RC	0	2	02VD 02VO 02VC 02MD 02MO 02MC 09RD 02RO	1	0	1.35967493057	-155.0	-381.0	-152	-379	1
2.7	2015_May_19_1538	s	s	13	2	SIC	204	ABS	1	1	02VD 02VO 02VC 02MD 10MO 02MC 02RD 02RO	0	1	1.7295768261	None	None	None	None	1
2.7	2015_May_19_1538	s	s	13	2	SIC	205	RC	1	2	02VD 02VO 02VC 09MD 02MO 02MC 02RD 02RO	1	0	1.41828989983	-372.0	230.0	-376	233	1
2.7	2015_May_19_1538	s	s	13	2	SIC	206	ABS	1	0	02VD 02VO 02VC 02MD 02MO 10MC 02RD 02RO	0	1	2.43247389793	None	None	None	None	1
2.7	2015_May_19_1538	s	s	13	2	SIC	207	RC	1	0	02VD 02VO 02VC 02MD 02MO 09MC 02RD 02RO	1	0	0.579895019531	240.0	57.0	239	55	1
2.7	2015_May_19_1538	s	s	13	2	SIC	208	RC	1	1	02VD 02VO 02VC 02MD 09MO 02MC 02RD 02RO	1	0	1.59507107735	-452.0	-15.0	-453	-16	1
2.7	2015_May_19_1538	s	s	13	2	SIC	209	ABS	0	1	02VD 02VO 02VC 02MD 02MO 02MC 02RD 10RO	0	1	2.08955287933	None	None	None	None	1
2.7	2015_May_19_1538	s	s	13	2	SIC	210	ABS	2	2	10VD 02VO 02VC 02MD 02MO 02MC 02RD 02RO	0	1	1.58843779564	None	None	None	None	1
2.7	2015_May_19_1538	s	s	13	2	SIC	211	ABS	1	1	02VD 02VO 02VC 02MD 10MO 02MC 02RD 02RO	0	1	2.04459095001	None	None	None	None	1
2.7	2015_May_19_1538	s	s	13	2	SIC	212	RC	2	2	09VD 02VO 02VC 02MD 02MO 02MC 02RD 02RO	1	0	0.838979959488	-60.0	290.0	-58	288	1
2.7	2015_May_19_1538	s	s	13	2	SIC	213	RC	1	0	02VD 02VO 02VC 02MD 02MO 09MC 02RD 02RO	1	0	1.14112901688	-57.0	14.0	-59	14	1
2.7	2015_May_19_1538	s	s	13	2	SIC	214	RC	1	1	02VD 02VO 02VC 02MD 09MO 02MC 02RD 02RO	1	0	0.805799007416	330.0	-27.0	327	-27	1
2.7	2015_May_19_1538	s	s	13	2	SIC	215	ABS	1	2	02VD 02VO 02VC 10MD 02MO 02MC 02RD 02RO	0	1	1.62369012833	None	None	None	None	1
2.7	2015_May_19_1538	s	s	13	2	SIC	216	RC	0	2	02VD 02VO 02VC 02MD 02MO 02MC 09RD 02RO	1	0	0.811545848846	230.0	391.0	235	394	1
2.7	2015_May_19_1538	s	s	13	2	SIC	217	RC	2	1	02VD 09VO 02VC 02MD 02MO 02MC 02RD 02RO	1	0	1.2530939579	-443.0	-5.0	-437	-13	1
2.7	2015_May_19_1538	s	s	13	2	SIC	218	ABS	2	1	02VD 10VO 02VC 02MD 02MO 02MC 02RD 02RO	0	1	1.6555480957	None	None	None	None	1
2.7	2015_May_19_1538	s	s	13	2	SIC	219	RC	0	1	02VD 02VO 02VC 02MD 02MO 02MC 02RD 09RO	1	0	2.58622694016	-298.0	-275.0	-304	-281	1
2.7	2015_May_19_1538	s	s	13	2	SIC	220	ABS	0	2	02VD 02VO 02VC 02MD 02MO 02MC 10RD 02RO	0	1	1.58570384979	None	None	None	None	1
2.7	2015_May_19_1538	s	s	13	2	SIC	221	ABS	1	0	02VD 02VO 02VC 02MD 02MO 10MC 02RD 02RO	0	1	2.48078298569	None	None	None	None	1
2.7	2015_May_19_1538	s	s	13	2	SIC	222	RC	1	2	02VD 02VO 02VC 09MD 02MO 02MC 02RD 02RO	1	0	0.890985965729	-57.0	-260.0	-63	-262	1
2.7	2015_May_19_1538	s	s	13	2	SIC	223	ABS	2	0	02VD 02VO 10VC 02MD 02MO 02MC 02RD 02RO	0	1	1.57170796394	None	None	None	None	1
2.7	2015_May_19_1538	s	s	13	2	SIC	224	RC	2	0	02VD 02VO 09VC 02MD 02MO 02MC 02RD 02RO	1	0	0.834924936295	-415.0	208.0	-417	209	1
2.7	2015_May_19_1538	s	s	13	2	SIC	225	RC	1	2	02VD 02VO 02VC 09MD 02MO 02MC 02RD 02RO	1	0	1.8083319664	512.0	141.0	521	150	1
2.7	2015_May_19_1538	s	s	13	2	SIC	226	ABS	2	0	02VD 02VO 10VC 02MD 02MO 02MC 02RD 02RO	0	1	2.53046607971	None	None	None	None	1
2.7	2015_May_19_1538	s	s	13	2	SIC	227	ABS	1	1	02VD 02VO 02VC 02MD 10MO 02MC 02RD 02RO	0	1	1.39610815048	None	None	None	None	1
2.7	2015_May_19_1538	s	s	13	2	SIC	228	ABS	2	1	02VD 10VO 02VC 02MD 02MO 02MC 02RD 02RO	0	1	2.25534391403	None	None	None	None	1
2.7	2015_May_19_1538	s	s	13	2	SIC	229	ABS	0	2	02VD 02VO 02VC 02MD 02MO 02MC 10RD 02RO	0	1	2.0331029892	None	None	None	None	1
2.7	2015_May_19_1538	s	s	13	2	SIC	230	ABS	1	0	02VD 02VO 02VC 02MD 02MO 10MC 02RD 02RO	0	1	2.18613910675	None	None	None	None	1
2.7	2015_May_19_1538	s	s	13	2	SIC	231	RC	1	1	02VD 02VO 02VC 02MD 09MO 02MC 02RD 02RO	1	0	1.55055093765	434.0	82.0	432	76	1
2.7	2015_May_19_1538	s	s	13	2	SIC	232	RC	0	2	02VD 02VO 02VC 02MD 02MO 02MC 09RD 02RO	1	0	0.811486005783	321.0	-328.0	331	-328	1
2.7	2015_May_19_1538	s	s	13	2	SIC	233	RC	2	0	02VD 02VO 09VC 02MD 02MO 02MC 02RD 02RO	0	1	1.88272309303	523.0	-342.0	None	None	0
2.7	2015_May_19_1538	s	s	13	2	SIC	234	ABS	2	2	10VD 02VO 02VC 02MD 02MO 02MC 02RD 02RO	0	1	2.115265131	None	None	None	None	1
2.7	2015_May_19_1538	s	s	13	2	SIC	235	RC	2	2	09VD 02VO 02VC 02MD 02MO 02MC 02RD 02RO	1	0	0.854110002518	122.0	-351.0	119	-350	1
2.7	2015_May_19_1538	s	s	13	2	SIC	236	RC	0	1	02VD 02VO 02VC 02MD 02MO 02MC 02RD 09RO	1	0	2.15334892273	256.0	-358.0	250	-360	1
2.7	2015_May_19_1538	s	s	13	2	SIC	237	RC	2	1	02VD 09VO 02VC 02MD 02MO 02MC 02RD 02RO	1	0	0.705572128296	48.0	268.0	53	269	1
2.7	2015_May_19_1538	s	s	13	2	SIC	238	ABS	1	2	02VD 02VO 02VC 10MD 02MO 02MC 02RD 02RO	0	1	2.42409300804	None	None	None	None	1
2.7	2015_May_19_1538	s	s	13	2	SIC	239	RC	1	0	02VD 02VO 02VC 02MD 02MO 09MC 02RD 02RO	1	0	1.70613503456	434.0	153.0	429	150	1
2.7	2015_May_19_1538	s	s	13	2	SIC	240	ABS	0	1	02VD 02VO 02VC 02MD 02MO 02MC 02RD 10RO	0	1	4.5192668438	None	None	None	None	1
2.7	2015_May_19_1538	s	s	13	2	SIC	241	RC	1	0	02VD 02VO 02VC 02MD 02MO 09MC 02RD 02RO	1	0	1.47076296806	-45.0	198.0	-40	197	1
2.7	2015_May_19_1538	s	s	13	2	SIC	242	ABS	0	1	02VD 02VO 02VC 02MD 02MO 02MC 02RD 10RO	0	1	3.78595685959	None	None	None	None	1
2.7	2015_May_19_1538	s	s	13	2	SIC	243	RC	2	1	02VD 09VO 02VC 02MD 02MO 02MC 02RD 02RO	1	0	1.31772184372	-270.0	-257.0	-269	-255	1
2.7	2015_May_19_1538	s	s	13	2	SIC	244	ABS	1	2	02VD 02VO 02VC 10MD 02MO 02MC 02RD 02RO	0	1	1.23001885414	None	None	None	None	1
2.7	2015_May_19_1538	s	s	13	2	SIC	245	RC	2	0	02VD 02VO 09VC 02MD 02MO 02MC 02RD 02RO	1	0	0.890501976013	-19.0	308.0	-10	310	1
2.7	2015_May_19_1538	s	s	13	2	SIC	246	ABS	1	0	02VD 02VO 02VC 02MD 02MO 10MC 02RD 02RO	0	1	3.11848711967	None	None	None	None	1
2.7	2015_May_19_1538	s	s	13	2	SIC	247	RC	1	2	02VD 02VO 02VC 09MD 02MO 02MC 02RD 02RO	1	0	0.829931974411	-215.0	371.0	-216	365	1
2.7	2015_May_19_1538	s	s	13	2	SIC	248	ABS	2	0	02VD 02VO 10VC 02MD 02MO 02MC 02RD 02RO	0	1	2.86005401611	None	None	None	None	1
2.7	2015_May_19_1538	s	s	13	2	SIC	249	RC	1	1	02VD 02VO 02VC 02MD 09MO 02MC 02RD 02RO	1	0	0.764429092407	290.0	302.0	292	300	1
2.7	2015_May_19_1538	s	s	13	2	SIC	250	ABS	2	1	02VD 10VO 02VC 02MD 02MO 02MC 02RD 02RO	0	1	1.58843493462	None	None	None	None	1
2.7	2015_May_19_1538	s	s	13	2	SIC	251	RC	0	1	02VD 02VO 02VC 02MD 02MO 02MC 02RD 09RO	1	0	0.947748184204	-298.0	122.0	-301	124	1
2.7	2015_May_19_1538	s	s	13	2	SIC	252	RC	0	2	02VD 02VO 02VC 02MD 02MO 02MC 09RD 02RO	1	0	0.80880689621	-79.0	-46.0	-74	-48	1
2.7	2015_May_19_1538	s	s	13	2	SIC	253	RC	2	2	09VD 02VO 02VC 02MD 02MO 02MC 02RD 02RO	1	0	1.81236505508	-406.0	-192.0	-411	-191	1
2.7	2015_May_19_1538	s	s	13	2	SIC	254	ABS	0	2	02VD 02VO 02VC 02MD 02MO 02MC 10RD 02RO	1	0	1.618901968	None	None	-31	-24	0
2.7	2015_May_19_1538	s	s	13	2	SIC	255	ABS	2	2	10VD 02VO 02VC 02MD 02MO 02MC 02RD 02RO	0	1	1.85663604736	None	None	None	None	1
2.7	2015_May_19_1538	s	s	13	2	SIC	256	ABS	1	1	02VD 02VO 02VC 02MD 10MO 02MC 02RD 02RO	0	1	2.41907000542	None	None	None	None	1
2.7	2015_May_19_1538	s	s	13	2	SIC	257	RC	1	0	02VD 02VO 02VC 02MD 02MO 09MC 02RD 02RO	1	0	1.52621603012	-513.0	-63.0	-518	-61	1
2.7	2015_May_19_1538	s	s	13	2	SIC	258	ABS	2	2	10VD 02VO 02VC 02MD 02MO 02MC 02RD 02RO	0	1	1.66662502289	None	None	None	None	1
2.7	2015_May_19_1538	s	s	13	2	SIC	259	ABS	2	1	02VD 10VO 02VC 02MD 02MO 02MC 02RD 02RO	0	1	2.07701897621	None	None	None	None	1
2.7	2015_May_19_1538	s	s	13	2	SIC	260	ABS	2	0	02VD 02VO 10VC 02MD 02MO 02MC 02RD 02RO	0	1	1.52500510216	None	None	None	None	1
2.7	2015_May_19_1538	s	s	13	2	SIC	261	ABS	1	1	02VD 02VO 02VC 02MD 10MO 02MC 02RD 02RO	0	1	2.47950196266	None	None	None	None	1
2.7	2015_May_19_1538	s	s	13	2	SIC	262	ABS	1	0	02VD 02VO 02VC 02MD 02MO 10MC 02RD 02RO	0	1	2.75363993645	None	None	None	None	1
2.7	2015_May_19_1538	s	s	13	2	SIC	263	ABS	0	2	02VD 02VO 02VC 02MD 02MO 02MC 10RD 02RO	0	1	3.23360610008	None	None	None	None	1
2.7	2015_May_19_1538	s	s	13	2	SIC	264	RC	0	2	02VD 02VO 02VC 02MD 02MO 02MC 09RD 02RO	1	0	0.858651161194	-433.0	101.0	-435	104	1
2.7	2015_May_19_1538	s	s	13	2	SIC	265	RC	2	1	02VD 09VO 02VC 02MD 02MO 02MC 02RD 02RO	1	0	1.35302996635	-374.0	281.0	-371	279	1
2.7	2015_May_19_1538	s	s	13	2	SIC	266	ABS	0	1	02VD 02VO 02VC 02MD 02MO 02MC 02RD 10RO	0	1	4.93129897118	None	None	None	None	1
2.7	2015_May_19_1538	s	s	13	2	SIC	267	ABS	1	2	02VD 02VO 02VC 10MD 02MO 02MC 02RD 02RO	0	1	1.72472000122	None	None	None	None	1
2.7	2015_May_19_1538	s	s	13	2	SIC	268	RC	1	2	02VD 02VO 02VC 09MD 02MO 02MC 02RD 02RO	1	0	1.38845705986	-336.0	-289.0	-337	-295	1
2.7	2015_May_19_1538	s	s	13	2	SIC	269	RC	2	2	09VD 02VO 02VC 02MD 02MO 02MC 02RD 02RO	1	0	0.900197029114	-499.0	-40.0	-503	-37	1
2.7	2015_May_19_1538	s	s	13	2	SIC	270	RC	0	1	02VD 02VO 02VC 02MD 02MO 02MC 02RD 09RO	1	0	1.7414150238	-379.0	-274.0	-378	-272	1
2.7	2015_May_19_1538	s	s	13	2	SIC	271	RC	1	1	02VD 02VO 02VC 02MD 09MO 02MC 02RD 02RO	1	0	1.0117149353	-374.0	-376.0	-371	-385	1
2.7	2015_May_19_1538	s	s	13	2	SIC	272	RC	2	0	02VD 02VO 09VC 02MD 02MO 02MC 02RD 02RO	1	0	0.806542158127	-164.0	324.0	-164	326	1
2.7	2015_May_19_1538	s	s	13	2	SIC	273	RC	0	2	02VD 02VO 02VC 02MD 02MO 02MC 09RD 02RO	1	0	1.56035208702	336.0	-357.0	340	-360	1
2.7	2015_May_19_1538	s	s	13	2	SIC	274	ABS	2	2	10VD 02VO 02VC 02MD 02MO 02MC 02RD 02RO	0	1	2.0331568718	None	None	None	None	1
2.7	2015_May_19_1538	s	s	13	2	SIC	275	ABS	1	2	02VD 02VO 02VC 10MD 02MO 02MC 02RD 02RO	0	1	1.78376793861	None	None	None	None	1
2.7	2015_May_19_1538	s	s	13	2	SIC	276	RC	2	0	02VD 02VO 09VC 02MD 02MO 02MC 02RD 02RO	1	0	0.988152980804	-396.0	-357.0	-401	-350	1
2.7	2015_May_19_1538	s	s	13	2	SIC	277	RC	2	1	02VD 09VO 02VC 02MD 02MO 02MC 02RD 02RO	1	0	0.959602117538	-436.0	-306.0	-429	-305	1
2.7	2015_May_19_1538	s	s	13	2	SIC	278	ABS	0	2	02VD 02VO 02VC 02MD 02MO 02MC 10RD 02RO	0	1	2.24761104584	None	None	None	None	1
2.7	2015_May_19_1538	s	s	13	2	SIC	279	ABS	1	1	02VD 02VO 02VC 02MD 10MO 02MC 02RD 02RO	0	1	2.69306397438	None	None	None	None	1
2.7	2015_May_19_1538	s	s	13	2	SIC	280	ABS	2	1	02VD 10VO 02VC 02MD 02MO 02MC 02RD 02RO	0	1	2.23017096519	None	None	None	None	1
2.7	2015_May_19_1538	s	s	13	2	SIC	281	RC	1	2	02VD 02VO 02VC 09MD 02MO 02MC 02RD 02RO	1	0	1.33561515808	-224.0	-375.0	-220	-370	1
2.7	2015_May_19_1538	s	s	13	2	SIC	282	RC	2	2	09VD 02VO 02VC 02MD 02MO 02MC 02RD 02RO	1	0	0.67015004158	-286.0	-178.0	-278	-173	1
2.7	2015_May_19_1538	s	s	13	2	SIC	283	RC	1	0	02VD 02VO 02VC 02MD 02MO 09MC 02RD 02RO	1	0	0.988182067871	230.0	368.0	221	369	1
2.7	2015_May_19_1538	s	s	13	2	SIC	284	ABS	0	1	02VD 02VO 02VC 02MD 02MO 02MC 02RD 10RO	0	1	3.67799305916	None	None	None	None	1
2.7	2015_May_19_1538	s	s	13	2	SIC	285	RC	0	1	02VD 02VO 02VC 02MD 02MO 02MC 02RD 09RO	1	0	0.924285888672	-363.0	104.0	-372	101	1
2.7	2015_May_19_1538	s	s	13	2	SIC	286	ABS	1	0	02VD 02VO 02VC 02MD 02MO 10MC 02RD 02RO	0	1	2.88020014763	None	None	None	None	1
2.7	2015_May_19_1538	s	s	13	2	SIC	287	RC	1	1	02VD 02VO 02VC 02MD 09MO 02MC 02RD 02RO	0	1	2.20050501823	-173.0	-410.0	None	None	0
2.7	2015_May_19_1538	s	s	13	2	SIC	288	ABS	2	0	02VD 02VO 10VC 02MD 02MO 02MC 02RD 02RO	0	1	1.88926291466	None	None	None	None	1
2.7	2015_May_19_1538	s	s	13	2	SIC	289	ABS	2	1	02VD 10VO 02VC 02MD 02MO 02MC 02RD 02RO	0	1	1.63544178009	None	None	None	None	1
2.7	2015_May_19_1538	s	s	13	2	SIC	290	ABS	2	2	10VD 02VO 02VC 02MD 02MO 02MC 02RD 02RO	0	1	1.80030798912	None	None	None	None	1
2.7	2015_May_19_1538	s	s	13	2	SIC	291	ABS	0	2	02VD 02VO 02VC 02MD 02MO 02MC 10RD 02RO	0	1	1.91789484024	None	None	None	None	1
2.7	2015_May_19_1538	s	s	13	2	SIC	292	RC	2	1	02VD 09VO 02VC 02MD 02MO 02MC 02RD 02RO	1	0	1.32945513725	175.0	179.0	169	170	1
2.7	2015_May_19_1538	s	s	13	2	SIC	293	ABS	1	2	02VD 02VO 02VC 10MD 02MO 02MC 02RD 02RO	0	1	1.98476886749	None	None	None	None	1
2.7	2015_May_19_1538	s	s	13	2	SIC	294	ABS	1	0	02VD 02VO 02VC 02MD 02MO 10MC 02RD 02RO	0	1	1.81209802628	None	None	None	None	1
2.7	2015_May_19_1538	s	s	13	2	SIC	295	RC	0	2	02VD 02VO 02VC 02MD 02MO 02MC 09RD 02RO	1	0	0.701881885529	263.0	211.0	266	210	1
2.7	2015_May_19_1538	s	s	13	2	SIC	296	ABS	1	1	02VD 02VO 02VC 02MD 10MO 02MC 02RD 02RO	0	1	2.08293390274	None	None	None	None	1
2.7	2015_May_19_1538	s	s	13	2	SIC	297	RC	1	0	02VD 02VO 02VC 02MD 02MO 09MC 02RD 02RO	1	0	0.69375705719	357.0	110.0	365	118	1
2.7	2015_May_19_1538	s	s	13	2	SIC	298	ABS	0	1	02VD 02VO 02VC 02MD 02MO 02MC 02RD 10RO	0	1	4.47911715508	None	None	None	None	1
2.7	2015_May_19_1538	s	s	13	2	SIC	299	RC	1	1	02VD 02VO 02VC 02MD 09MO 02MC 02RD 02RO	1	0	1.24107980728	287.0	-140.0	289	-142	1
2.7	2015_May_19_1538	s	s	13	2	SIC	300	RC	2	2	09VD 02VO 02VC 02MD 02MO 02MC 02RD 02RO	1	0	1.56471705437	-466.0	-223.0	-473	-226	1
2.7	2015_May_19_1538	s	s	13	2	SIC	301	ABS	2	0	02VD 02VO 10VC 02MD 02MO 02MC 02RD 02RO	0	1	2.18298101425	None	None	None	None	1
2.7	2015_May_19_1538	s	s	13	2	SIC	302	RC	2	0	02VD 02VO 09VC 02MD 02MO 02MC 02RD 02RO	1	0	1.72953104973	480.0	-389.0	475	-394	1
2.7	2015_May_19_1538	s	s	13	2	SIC	303	RC	0	1	02VD 02VO 02VC 02MD 02MO 02MC 02RD 09RO	1	0	0.797091960907	138.0	2.0	143	6	1
2.7	2015_May_19_1538	s	s	13	2	SIC	304	RC	1	2	02VD 02VO 02VC 09MD 02MO 02MC 02RD 02RO	1	0	1.44444084167	-393.0	405.0	-392	405	1
2.7	2015_May_19_1538	s	s	13	2	SIC	305	RC	1	2	02VD 02VO 02VC 09MD 02MO 02MC 02RD 02RO	1	0	0.788037061691	-181.0	-167.0	-176	-168	1
2.7	2015_May_19_1538	s	s	13	2	SIC	306	ABS	2	2	10VD 02VO 02VC 02MD 02MO 02MC 02RD 02RO	0	1	1.52956700325	None	None	None	None	1
2.7	2015_May_19_1538	s	s	13	2	SIC	307	RC	2	0	02VD 02VO 09VC 02MD 02MO 02MC 02RD 02RO	1	0	2.43589997292	-539.0	235.0	-542	230	1
2.7	2015_May_19_1538	s	s	13	2	SIC	308	RC	2	2	09VD 02VO 02VC 02MD 02MO 02MC 02RD 02RO	1	0	1.40822696686	-442.0	-192.0	-443	-197	1
2.7	2015_May_19_1538	s	s	13	2	SIC	309	RC	2	1	02VD 09VO 02VC 02MD 02MO 02MC 02RD 02RO	1	0	0.870340108871	-260.0	-268.0	-252	-271	1
2.7	2015_May_19_1538	s	s	13	2	SIC	310	ABS	2	1	02VD 10VO 02VC 02MD 02MO 02MC 02RD 02RO	0	1	2.39565110207	None	None	None	None	1
2.7	2015_May_19_1538	s	s	13	2	SIC	311	RC	0	2	02VD 02VO 02VC 02MD 02MO 02MC 09RD 02RO	1	0	2.29467391968	206.0	-389.0	200	-396	1
2.7	2015_May_19_1538	s	s	13	2	SIC	312	RC	1	1	02VD 02VO 02VC 02MD 09MO 02MC 02RD 02RO	1	0	0.808902978897	34.0	122.0	42	120	1
2.7	2015_May_19_1538	s	s	13	2	SIC	313	ABS	0	2	02VD 02VO 02VC 02MD 02MO 02MC 10RD 02RO	0	1	2.00797915459	None	None	None	None	1
2.7	2015_May_19_1538	s	s	13	2	SIC	314	ABS	1	2	02VD 02VO 02VC 10MD 02MO 02MC 02RD 02RO	0	1	1.66705012321	None	None	None	None	1
2.7	2015_May_19_1538	s	s	13	2	SIC	315	ABS	1	1	02VD 02VO 02VC 02MD 10MO 02MC 02RD 02RO	0	1	2.27109599113	None	None	None	None	1
2.7	2015_May_19_1538	s	s	13	2	SIC	316	ABS	0	1	02VD 02VO 02VC 02MD 02MO 02MC 02RD 10RO	0	1	3.18401098251	None	None	None	None	1
2.7	2015_May_19_1538	s	s	13	2	SIC	317	RC	1	0	02VD 02VO 02VC 02MD 02MO 09MC 02RD 02RO	1	0	0.846941947937	-311.0	45.0	-310	43	1
2.7	2015_May_19_1538	s	s	13	2	SIC	318	RC	0	1	02VD 02VO 02VC 02MD 02MO 02MC 02RD 09RO	0	1	3.89544606209	91.0	372.0	None	None	0
2.7	2015_May_19_1538	s	s	13	2	SIC	319	ABS	2	0	02VD 02VO 10VC 02MD 02MO 02MC 02RD 02RO	0	1	2.74195194244	None	None	None	None	1
2.7	2015_May_19_1538	s	s	13	2	SIC	320	ABS	1	0	02VD 02VO 02VC 02MD 02MO 10MC 02RD 02RO	0	1	2.14155292511	None	None	None	None	1
2.7	2015_May_19_1538	s	s	13	2	SIC	321	RC	2	0	02VD 02VO 09VC 02MD 02MO 02MC 02RD 02RO	1	0	1.72967815399	450.0	-206.0	447	-203	1
2.7	2015_May_19_1538	s	s	13	2	SIC	322	RC	2	2	09VD 02VO 02VC 02MD 02MO 02MC 02RD 02RO	1	0	0.572566986084	59.0	-32.0	64	-32	1
2.7	2015_May_19_1538	s	s	13	2	SIC	323	RC	1	0	02VD 02VO 02VC 02MD 02MO 09MC 02RD 02RO	1	0	1.25887012482	-311.0	-377.0	-310	-377	1
2.7	2015_May_19_1538	s	s	13	2	SIC	324	ABS	1	1	02VD 02VO 02VC 02MD 10MO 02MC 02RD 02RO	0	1	2.07947087288	None	None	None	None	1
2.7	2015_May_19_1538	s	s	13	2	SIC	325	ABS	1	0	02VD 02VO 02VC 02MD 02MO 10MC 02RD 02RO	0	1	1.33873987198	None	None	None	None	1
2.7	2015_May_19_1538	s	s	13	2	SIC	326	ABS	1	2	02VD 02VO 02VC 10MD 02MO 02MC 02RD 02RO	0	1	1.44098997116	None	None	None	None	1
2.7	2015_May_19_1538	s	s	13	2	SIC	327	RC	0	2	02VD 02VO 02VC 02MD 02MO 02MC 09RD 02RO	1	0	0.576171875	118.0	40.0	116	48	1
2.7	2015_May_19_1538	s	s	13	2	SIC	328	RC	0	1	02VD 02VO 02VC 02MD 02MO 02MC 02RD 09RO	0	1	2.4006459713	393.0	160.0	None	None	0
2.7	2015_May_19_1538	s	s	13	2	SIC	329	ABS	0	1	02VD 02VO 02VC 02MD 02MO 02MC 02RD 10RO	0	1	2.48011112213	None	None	None	None	1
2.7	2015_May_19_1538	s	s	13	2	SIC	330	ABS	2	1	02VD 10VO 02VC 02MD 02MO 02MC 02RD 02RO	0	1	1.63549208641	None	None	None	None	1
2.7	2015_May_19_1538	s	s	13	2	SIC	331	ABS	0	2	02VD 02VO 02VC 02MD 02MO 02MC 10RD 02RO	0	1	1.24705910683	None	None	None	None	1
2.7	2015_May_19_1538	s	s	13	2	SIC	332	RC	1	1	02VD 02VO 02VC 02MD 09MO 02MC 02RD 02RO	1	0	1.25887107849	-535.0	55.0	-538	55	1
2.7	2015_May_19_1538	s	s	13	2	SIC	333	ABS	2	0	02VD 02VO 10VC 02MD 02MO 02MC 02RD 02RO	0	1	1.22711801529	None	None	None	None	1
2.7	2015_May_19_1538	s	s	13	2	SIC	334	RC	2	1	02VD 09VO 02VC 02MD 02MO 02MC 02RD 02RO	1	0	0.667414903641	-216.0	-148.0	-220	-140	1
2.7	2015_May_19_1538	s	s	13	2	SIC	335	ABS	2	2	10VD 02VO 02VC 02MD 02MO 02MC 02RD 02RO	0	1	1.29416704178	None	None	None	None	1
2.7	2015_May_19_1538	s	s	13	2	SIC	336	RC	1	2	02VD 02VO 02VC 09MD 02MO 02MC 02RD 02RO	1	0	0.714764118195	75.0	-109.0	80	-120	1
2.7	2015_May_19_1538	s	s	13	2	SIC	337	RC	2	0	02VD 02VO 09VC 02MD 02MO 02MC 02RD 02RO	1	0	1.03053283691	29.0	218.0	32	222	1
2.7	2015_May_19_1538	s	s	13	2	SIC	338	ABS	2	0	02VD 02VO 10VC 02MD 02MO 02MC 02RD 02RO	0	1	2.13647890091	None	None	None	None	1
2.7	2015_May_19_1538	s	s	13	2	SIC	339	ABS	1	2	02VD 02VO 02VC 10MD 02MO 02MC 02RD 02RO	0	1	1.74761605263	None	None	None	None	1
2.7	2015_May_19_1538	s	s	13	2	SIC	340	RC	2	2	09VD 02VO 02VC 02MD 02MO 02MC 02RD 02RO	1	0	0.808762073517	-81.0	143.0	-83	139	1
2.7	2015_May_19_1538	s	s	13	2	SIC	341	ABS	1	0	02VD 02VO 02VC 02MD 02MO 10MC 02RD 02RO	0	1	2.80921292305	None	None	None	None	1
2.7	2015_May_19_1538	s	s	13	2	SIC	342	RC	1	0	02VD 02VO 02VC 02MD 02MO 09MC 02RD 02RO	1	0	0.752627134323	-406.0	68.0	-408	70	1
2.7	2015_May_19_1538	s	s	13	2	SIC	343	ABS	1	1	02VD 02VO 02VC 02MD 10MO 02MC 02RD 02RO	0	1	2.73692798615	None	None	None	None	1
2.7	2015_May_19_1538	s	s	13	2	SIC	344	ABS	2	1	02VD 10VO 02VC 02MD 02MO 02MC 02RD 02RO	0	1	2.49467992783	None	None	None	None	1
2.7	2015_May_19_1538	s	s	13	2	SIC	345	RC	1	1	02VD 02VO 02VC 02MD 09MO 02MC 02RD 02RO	1	0	0.560626983643	294.0	151.0	297	147	1
2.7	2015_May_19_1538	s	s	13	2	SIC	346	ABS	0	2	02VD 02VO 02VC 02MD 02MO 02MC 10RD 02RO	0	1	1.70128297806	None	None	None	None	1
2.7	2015_May_19_1538	s	s	13	2	SIC	347	RC	0	1	02VD 02VO 02VC 02MD 02MO 02MC 02RD 09RO	1	0	1.60006904602	528.0	-268.0	521	-267	1
2.7	2015_May_19_1538	s	s	13	2	SIC	348	RC	1	2	02VD 02VO 02VC 09MD 02MO 02MC 02RD 02RO	1	0	0.658482074738	-122.0	-32.0	-123	-27	1
2.7	2015_May_19_1538	s	s	13	2	SIC	349	ABS	0	1	02VD 02VO 02VC 02MD 02MO 02MC 02RD 10RO	0	1	2.17686295509	None	None	None	None	1
2.7	2015_May_19_1538	s	s	13	2	SIC	350	RC	2	1	02VD 09VO 02VC 02MD 02MO 02MC 02RD 02RO	1	0	1.21168804169	192.0	411.0	190	412	1
2.7	2015_May_19_1538	s	s	13	2	SIC	351	ABS	2	2	10VD 02VO 02VC 02MD 02MO 02MC 02RD 02RO	0	1	2.32993388176	None	None	None	None	1
2.7	2015_May_19_1538	s	s	13	2	SIC	352	RC	0	2	02VD 02VO 02VC 02MD 02MO 02MC 09RD 02RO	1	0	3.23054909706	513.0	408.0	514	411	1
2.7	2015_May_19_1538	s	s	13	2	SIC	353	ABS	1	1	02VD 02VO 02VC 02MD 10MO 02MC 02RD 02RO	0	1	2.02377390862	None	None	None	None	1
2.7	2015_May_19_1538	s	s	13	2	SIC	354	ABS	2	2	10VD 02VO 02VC 02MD 02MO 02MC 02RD 02RO	0	1	1.94142484665	None	None	None	None	1
2.7	2015_May_19_1538	s	s	13	2	SIC	355	RC	1	2	02VD 02VO 02VC 09MD 02MO 02MC 02RD 02RO	1	0	1.20907783508	-454.0	304.0	-452	306	1
2.7	2015_May_19_1538	s	s	13	2	SIC	356	RC	1	1	02VD 02VO 02VC 02MD 09MO 02MC 02RD 02RO	1	0	3.4311850071	-421.0	-284.0	-416	-287	1
2.7	2015_May_19_1538	s	s	13	2	SIC	357	ABS	2	0	02VD 02VO 10VC 02MD 02MO 02MC 02RD 02RO	0	1	2.14162611961	None	None	None	None	1
2.7	2015_May_19_1538	s	s	13	2	SIC	358	RC	2	1	02VD 09VO 02VC 02MD 02MO 02MC 02RD 02RO	1	0	1.25382590294	235.0	-363.0	234	-369	1
2.7	2015_May_19_1538	s	s	13	2	SIC	359	RC	0	1	02VD 02VO 02VC 02MD 02MO 02MC 02RD 09RO	1	0	3.35394001007	-499.0	-398.0	-504	-400	1
2.7	2015_May_19_1538	s	s	13	2	SIC	360	RC	2	0	02VD 02VO 09VC 02MD 02MO 02MC 02RD 02RO	1	0	0.937716007233	-467.0	-15.0	-470	-20	1
2.7	2015_May_19_1538	s	s	13	2	SIC	361	ABS	2	1	02VD 10VO 02VC 02MD 02MO 02MC 02RD 02RO	0	1	1.7606549263	None	None	None	None	1
2.7	2015_May_19_1538	s	s	13	2	SIC	362	ABS	1	2	02VD 02VO 02VC 10MD 02MO 02MC 02RD 02RO	0	1	1.83558487892	None	None	None	None	1
2.7	2015_May_19_1538	s	s	13	2	SIC	363	RC	2	2	09VD 02VO 02VC 02MD 02MO 02MC 02RD 02RO	1	0	1.81240105629	-350.0	219.0	-351	219	1
2.7	2015_May_19_1538	s	s	13	2	SIC	364	ABS	0	2	02VD 02VO 02VC 02MD 02MO 02MC 10RD 02RO	0	1	1.69429993629	None	None	None	None	1
2.7	2015_May_19_1538	s	s	13	2	SIC	365	ABS	1	0	02VD 02VO 02VC 02MD 02MO 10MC 02RD 02RO	0	1	2.21224999428	None	None	None	None	1
2.7	2015_May_19_1538	s	s	13	2	SIC	366	ABS	0	1	02VD 02VO 02VC 02MD 02MO 02MC 02RD 10RO	0	1	3.80740594864	None	None	None	None	1
2.7	2015_May_19_1538	s	s	13	2	SIC	367	RC	1	0	02VD 02VO 02VC 02MD 02MO 09MC 02RD 02RO	1	0	1.92979812622	-159.0	352.0	-167	351	1
2.7	2015_May_19_1538	s	s	13	2	SIC	368	RC	0	2	02VD 02VO 02VC 02MD 02MO 02MC 09RD 02RO	1	0	0.832444906235	337.0	20.0	334	27	1
2.7	2015_May_19_1538	s	s	13	2	SIC	369	ABS	1	0	02VD 02VO 02VC 02MD 02MO 10MC 02RD 02RO	0	1	2.59494996071	None	None	None	None	1
2.7	2015_May_19_1538	s	s	13	2	SIC	370	ABS	2	2	10VD 02VO 02VC 02MD 02MO 02MC 02RD 02RO	0	1	1.52952098846	None	None	None	None	1
2.7	2015_May_19_1538	s	s	13	2	SIC	371	RC	0	2	02VD 02VO 02VC 02MD 02MO 02MC 09RD 02RO	1	0	3.3043191433	538.0	-200.0	539	-199	1
2.7	2015_May_19_1538	s	s	13	2	SIC	372	RC	2	2	09VD 02VO 02VC 02MD 02MO 02MC 02RD 02RO	1	0	1.76499605179	-403.0	-150.0	-400	-150	1
2.7	2015_May_19_1538	s	s	13	2	SIC	373	RC	2	1	02VD 09VO 02VC 02MD 02MO 02MC 02RD 02RO	1	0	0.63009095192	186.0	-143.0	186	-144	1
2.7	2015_May_19_1538	s	s	13	2	SIC	374	ABS	2	0	02VD 02VO 10VC 02MD 02MO 02MC 02RD 02RO	0	1	2.0212700367	None	None	None	None	1
2.7	2015_May_19_1538	s	s	13	2	SIC	375	RC	1	1	02VD 02VO 02VC 02MD 09MO 02MC 02RD 02RO	1	0	1.83079719543	-433.0	256.0	-435	250	1
2.7	2015_May_19_1538	s	s	13	2	SIC	376	RC	1	2	02VD 02VO 02VC 09MD 02MO 02MC 02RD 02RO	1	0	1.07986593246	-101.0	200.0	-100	204	1
2.7	2015_May_19_1538	s	s	13	2	SIC	377	RC	0	1	02VD 02VO 02VC 02MD 02MO 02MC 02RD 09RO	1	0	1.23037910461	331.0	-146.0	328	-146	1
2.7	2015_May_19_1538	s	s	13	2	SIC	378	ABS	1	1	02VD 02VO 02VC 02MD 10MO 02MC 02RD 02RO	0	1	1.76502490044	None	None	None	None	1
2.7	2015_May_19_1538	s	s	13	2	SIC	379	ABS	1	2	02VD 02VO 02VC 10MD 02MO 02MC 02RD 02RO	0	1	1.81207919121	None	None	None	None	1
2.7	2015_May_19_1538	s	s	13	2	SIC	380	ABS	0	2	02VD 02VO 02VC 02MD 02MO 02MC 10RD 02RO	0	1	1.90615415573	None	None	None	None	1
2.7	2015_May_19_1538	s	s	13	2	SIC	381	RC	1	0	02VD 02VO 02VC 02MD 02MO 09MC 02RD 02RO	1	0	0.988589048386	-140.0	-220.0	-137	-219	1
2.7	2015_May_19_1538	s	s	13	2	SIC	382	ABS	2	1	02VD 10VO 02VC 02MD 02MO 02MC 02RD 02RO	0	1	1.61181020737	None	None	None	None	1
2.7	2015_May_19_1538	s	s	13	2	SIC	383	RC	2	0	02VD 02VO 09VC 02MD 02MO 02MC 02RD 02RO	1	0	0.959800004959	-393.0	261.0	-397	255	1
2.7	2015_May_19_1538	s	s	13	2	SIC	384	ABS	0	1	02VD 02VO 02VC 02MD 02MO 02MC 02RD 10RO	0	1	3.8217651844	None	None	None	None	1
2.7	2015_May_19_1538	s	s	13	2	SIC	385	RC	2	2	09VD 02VO 02VC 02MD 02MO 02MC 02RD 02RO	1	0	0.940982103348	436.0	-72.0	437	-73	1
2.7	2015_May_19_1538	s	s	13	2	SIC	386	RC	2	0	02VD 02VO 09VC 02MD 02MO 02MC 02RD 02RO	1	0	0.876601934433	-457.0	93.0	-451	97	1
2.7	2015_May_19_1538	s	s	13	2	SIC	387	ABS	1	2	02VD 02VO 02VC 10MD 02MO 02MC 02RD 02RO	0	1	1.56130409241	None	None	None	None	1
2.7	2015_May_19_1538	s	s	13	2	SIC	388	RC	2	1	02VD 09VO 02VC 02MD 02MO 02MC 02RD 02RO	1	0	1.15927600861	-416.0	-225.0	-406	-220	1
2.7	2015_May_19_1538	s	s	13	2	SIC	389	RC	1	1	02VD 02VO 02VC 02MD 09MO 02MC 02RD 02RO	1	0	1.48245215416	-332.0	23.0	-337	21	1
2.7	2015_May_19_1538	s	s	13	2	SIC	390	RC	0	1	02VD 02VO 02VC 02MD 02MO 02MC 02RD 09RO	1	0	2.72766184807	207.0	338.0	203	339	1
2.7	2015_May_19_1538	s	s	13	2	SIC	391	ABS	1	0	02VD 02VO 02VC 02MD 02MO 10MC 02RD 02RO	0	1	3.83663487434	None	None	None	None	1
2.7	2015_May_19_1538	s	s	13	2	SIC	392	ABS	2	0	02VD 02VO 10VC 02MD 02MO 02MC 02RD 02RO	0	1	1.97160100937	None	None	None	None	1
2.7	2015_May_19_1538	s	s	13	2	SIC	393	RC	1	2	02VD 02VO 02VC 09MD 02MO 02MC 02RD 02RO	1	0	0.676561117172	143.0	-92.0	141	-90	1
2.7	2015_May_19_1538	s	s	13	2	SIC	394	ABS	1	1	02VD 02VO 02VC 02MD 10MO 02MC 02RD 02RO	0	1	2.23312091827	None	None	None	None	1
2.7	2015_May_19_1538	s	s	13	2	SIC	395	RC	1	0	02VD 02VO 02VC 02MD 02MO 09MC 02RD 02RO	1	0	1.29058980942	-273.0	-207.0	-270	-201	1
2.7	2015_May_19_1538	s	s	13	2	SIC	396	ABS	2	1	02VD 10VO 02VC 02MD 02MO 02MC 02RD 02RO	0	1	1.8590400219	None	None	None	None	1
2.7	2015_May_19_1538	s	s	13	2	SIC	397	ABS	0	2	02VD 02VO 02VC 02MD 02MO 02MC 10RD 02RO	0	1	2.00949406624	None	None	None	None	1
2.7	2015_May_19_1538	s	s	13	2	SIC	398	RC	0	2	02VD 02VO 02VC 02MD 02MO 02MC 09RD 02RO	1	0	1.08585000038	354.0	-109.0	353	-110	1
2.7	2015_May_19_1538	s	s	13	2	SIC	399	ABS	0	1	02VD 02VO 02VC 02MD 02MO 02MC 02RD 10RO	0	1	3.95429205894	None	None	None	None	1
2.7	2015_May_19_1538	s	s	13	2	SIC	400	ABS	2	2	10VD 02VO 02VC 02MD 02MO 02MC 02RD 02RO	0	1	1.65647888184	None	None	None	None	1
2.7	2015_May_19_1538	s	s	13	2	SIC	401	RC	2	1	02VD 09VO 02VC 02MD 02MO 02MC 02RD 02RO	1	0	0.974118947983	-383.0	203.0	-390	201	1
2.7	2015_May_19_1538	s	s	13	2	SIC	402	RC	1	0	02VD 02VO 02VC 02MD 02MO 09MC 02RD 02RO	1	0	1.87072086334	-439.0	-358.0	-441	-357	1
2.7	2015_May_19_1538	s	s	13	2	SIC	403	RC	2	2	09VD 02VO 02VC 02MD 02MO 02MC 02RD 02RO	1	0	0.929198980331	-101.0	-79.0	-96	-81	1
2.7	2015_May_19_1538	s	s	13	2	SIC	404	ABS	1	0	02VD 02VO 02VC 02MD 02MO 10MC 02RD 02RO	0	1	3.60120391846	None	None	None	None	1
2.7	2015_May_19_1538	s	s	13	2	SIC	405	RC	0	2	02VD 02VO 02VC 02MD 02MO 02MC 09RD 02RO	1	0	0.811444997787	-242.0	-150.0	-248	-156	1
2.7	2015_May_19_1538	s	s	13	2	SIC	406	RC	1	2	02VD 02VO 02VC 09MD 02MO 02MC 02RD 02RO	1	0	2.28286910057	331.0	335.0	335	340	1
2.7	2015_May_19_1538	s	s	13	2	SIC	407	ABS	2	1	02VD 10VO 02VC 02MD 02MO 02MC 02RD 02RO	0	1	1.72686910629	None	None	None	None	1
2.7	2015_May_19_1538	s	s	13	2	SIC	408	RC	2	0	02VD 02VO 09VC 02MD 02MO 02MC 02RD 02RO	1	0	1.15986013412	-413.0	-272.0	-410	-272	1
2.7	2015_May_19_1538	s	s	13	2	SIC	409	ABS	1	1	02VD 02VO 02VC 02MD 10MO 02MC 02RD 02RO	0	1	2.46828198433	None	None	None	None	1
2.7	2015_May_19_1538	s	s	13	2	SIC	410	ABS	2	0	02VD 02VO 10VC 02MD 02MO 02MC 02RD 02RO	0	1	2.17683291435	None	None	None	None	1
2.7	2015_May_19_1538	s	s	13	2	SIC	411	RC	0	1	02VD 02VO 02VC 02MD 02MO 02MC 02RD 09RO	1	0	2.20491194725	-480.0	218.0	-480	216	1
2.7	2015_May_19_1538	s	s	13	2	SIC	412	ABS	0	2	02VD 02VO 02VC 02MD 02MO 02MC 10RD 02RO	0	1	1.83588194847	None	None	None	None	1
2.7	2015_May_19_1538	s	s	13	2	SIC	413	ABS	0	1	02VD 02VO 02VC 02MD 02MO 02MC 02RD 10RO	0	1	3.71885514259	None	None	None	None	1
2.7	2015_May_19_1538	s	s	13	2	SIC	414	RC	1	1	02VD 02VO 02VC 02MD 09MO 02MC 02RD 02RO	1	0	1.2117459774	504.0	17.0	505	20	1
2.7	2015_May_19_1538	s	s	13	2	SIC	415	ABS	2	2	10VD 02VO 02VC 02MD 02MO 02MC 02RD 02RO	0	1	1.55924892426	None	None	None	None	1
2.7	2015_May_19_1538	s	s	13	2	SIC	416	ABS	1	2	02VD 02VO 02VC 10MD 02MO 02MC 02RD 02RO	0	1	1.34172105789	None	None	None	None	1
2.7	2015_May_19_1538	s	s	13	2	SIC	417	ABS	2	2	10VD 02VO 02VC 02MD 02MO 02MC 02RD 02RO	0	1	1.27762794495	None	None	None	None	1
2.7	2015_May_19_1538	s	s	13	2	SIC	418	RC	2	0	02VD 02VO 09VC 02MD 02MO 02MC 02RD 02RO	1	0	1.09390282631	-485.0	-331.0	-495	-333	1
2.7	2015_May_19_1538	s	s	13	2	SIC	419	ABS	1	2	02VD 02VO 02VC 10MD 02MO 02MC 02RD 02RO	0	1	1.3473238945	None	None	None	None	1
2.7	2015_May_19_1538	s	s	13	2	SIC	420	RC	0	1	02VD 02VO 02VC 02MD 02MO 02MC 02RD 09RO	1	0	3.29019498825	183.0	395.0	189	388	1
2.7	2015_May_19_1538	s	s	13	2	SIC	421	RC	0	2	02VD 02VO 02VC 02MD 02MO 02MC 09RD 02RO	1	0	1.15965104103	-286.0	-31.0	-286	-38	1
2.7	2015_May_19_1538	s	s	13	2	SIC	422	ABS	0	2	02VD 02VO 02VC 02MD 02MO 02MC 10RD 02RO	0	1	1.80023884773	None	None	None	None	1
2.7	2015_May_19_1538	s	s	13	2	SIC	423	ABS	2	0	02VD 02VO 10VC 02MD 02MO 02MC 02RD 02RO	0	1	1.859156847	None	None	None	None	1
2.7	2015_May_19_1538	s	s	13	2	SIC	424	ABS	2	1	02VD 10VO 02VC 02MD 02MO 02MC 02RD 02RO	0	1	1.69102883339	None	None	None	None	1
2.7	2015_May_19_1538	s	s	13	2	SIC	425	RC	1	1	02VD 02VO 02VC 02MD 09MO 02MC 02RD 02RO	1	0	0.957458019257	99.0	-155.0	91	-153	1
2.7	2015_May_19_1538	s	s	13	2	SIC	426	ABS	1	1	02VD 02VO 02VC 02MD 10MO 02MC 02RD 02RO	0	1	2.29465603828	None	None	None	None	1
2.7	2015_May_19_1538	s	s	13	2	SIC	427	RC	1	0	02VD 02VO 02VC 02MD 02MO 09MC 02RD 02RO	1	0	1.39717483521	-11.0	-239.0	-19	-245	1
2.7	2015_May_19_1538	s	s	13	2	SIC	428	ABS	1	0	02VD 02VO 02VC 02MD 02MO 10MC 02RD 02RO	0	1	2.55961513519	None	None	None	None	1
2.7	2015_May_19_1538	s	s	13	2	SIC	429	RC	1	2	02VD 02VO 02VC 09MD 02MO 02MC 02RD 02RO	1	0	0.95987701416	212.0	345.0	214	344	1
2.7	2015_May_19_1538	s	s	13	2	SIC	430	RC	2	1	02VD 09VO 02VC 02MD 02MO 02MC 02RD 02RO	1	0	1.08890390396	-446.0	-114.0	-452	-105	1
2.7	2015_May_19_1538	s	s	13	2	SIC	431	RC	2	2	09VD 02VO 02VC 02MD 02MO 02MC 02RD 02RO	1	0	1.00660896301	16.0	-343.0	23	-348	1
2.7	2015_May_19_1538	s	s	13	2	SIC	432	ABS	0	1	02VD 02VO 02VC 02MD 02MO 02MC 02RD 10RO	0	1	2.46616601944	None	None	None	None	1
2.7	2015_May_19_1538	s	s	13	2	SIC	433	RC	1	2	02VD 02VO 02VC 09MD 02MO 02MC 02RD 02RO	1	0	0.594823122025	251.0	111.0	243	109	1
2.7	2015_May_19_1538	s	s	13	2	SIC	434	RC	0	1	02VD 02VO 02VC 02MD 02MO 02MC 02RD 09RO	1	0	1.78354597092	-483.0	297.0	-475	296	1
2.7	2015_May_19_1538	s	s	13	2	SIC	435	RC	0	2	02VD 02VO 02VC 02MD 02MO 02MC 09RD 02RO	1	0	1.40824794769	351.0	-286.0	347	-289	1
2.7	2015_May_19_1538	s	s	13	2	SIC	436	ABS	0	1	02VD 02VO 02VC 02MD 02MO 02MC 02RD 10RO	0	1	3.04306101799	None	None	None	None	1
2.7	2015_May_19_1538	s	s	13	2	SIC	437	ABS	1	1	02VD 02VO 02VC 02MD 10MO 02MC 02RD 02RO	0	1	1.83012485504	None	None	None	None	1
2.7	2015_May_19_1538	s	s	13	2	SIC	438	ABS	1	0	02VD 02VO 02VC 02MD 02MO 10MC 02RD 02RO	0	1	2.701638937	None	None	None	None	1
2.7	2015_May_19_1538	s	s	13	2	SIC	439	ABS	0	2	02VD 02VO 02VC 02MD 02MO 02MC 10RD 02RO	0	1	2.03189492226	None	None	None	None	1
2.7	2015_May_19_1538	s	s	13	2	SIC	440	ABS	2	1	02VD 10VO 02VC 02MD 02MO 02MC 02RD 02RO	0	1	1.61197209358	None	None	None	None	1
2.7	2015_May_19_1538	s	s	13	2	SIC	441	RC	2	2	09VD 02VO 02VC 02MD 02MO 02MC 02RD 02RO	1	0	3.58555006981	369.0	-390.0	373	-391	1
2.7	2015_May_19_1538	s	s	13	2	SIC	442	RC	2	1	02VD 09VO 02VC 02MD 02MO 02MC 02RD 02RO	1	0	0.706027984619	333.0	123.0	325	128	1
2.7	2015_May_19_1538	s	s	13	2	SIC	443	RC	1	1	02VD 02VO 02VC 02MD 09MO 02MC 02RD 02RO	1	0	0.552585840225	291.0	221.0	290	223	1
2.7	2015_May_19_1538	s	s	13	2	SIC	444	ABS	2	2	10VD 02VO 02VC 02MD 02MO 02MC 02RD 02RO	0	1	1.90067601204	None	None	None	None	1
2.7	2015_May_19_1538	s	s	13	2	SIC	445	RC	1	0	02VD 02VO 02VC 02MD 02MO 09MC 02RD 02RO	1	0	1.77390193939	-239.0	-391.0	-237	-390	1
2.7	2015_May_19_1538	s	s	13	2	SIC	446	ABS	2	0	02VD 02VO 10VC 02MD 02MO 02MC 02RD 02RO	0	1	1.90330696106	None	None	None	None	1
2.7	2015_May_19_1538	s	s	13	2	SIC	447	RC	2	0	02VD 02VO 09VC 02MD 02MO 02MC 02RD 02RO	1	0	0.65860414505	377.0	34.0	382	28	1
2.7	2015_May_19_1538	s	s	13	2	SIC	448	ABS	1	2	02VD 02VO 02VC 10MD 02MO 02MC 02RD 02RO	0	1	1.87803506851	None	None	None	None	1
2.7	2015_May_19_1538	s	s	13	2	SIC	449	RC	2	0	02VD 02VO 09VC 02MD 02MO 02MC 02RD 02RO	1	0	1.61183714867	-134.0	-378.0	-134	-378	1
2.7	2015_May_19_1538	s	s	13	2	SIC	450	RC	1	1	02VD 02VO 02VC 02MD 09MO 02MC 02RD 02RO	1	0	0.608827114105	233.0	178.0	230	176	1
2.7	2015_May_19_1538	s	s	13	2	SIC	451	ABS	1	2	02VD 02VO 02VC 10MD 02MO 02MC 02RD 02RO	0	1	1.84216499329	None	None	None	None	1
2.7	2015_May_19_1538	s	s	13	2	SIC	452	ABS	2	1	02VD 10VO 02VC 02MD 02MO 02MC 02RD 02RO	0	1	2.19663405418	None	None	None	None	1
2.7	2015_May_19_1538	s	s	13	2	SIC	453	ABS	1	1	02VD 02VO 02VC 02MD 10MO 02MC 02RD 02RO	0	1	2.32466602325	None	None	None	None	1
2.7	2015_May_19_1538	s	s	13	2	SIC	454	ABS	0	1	02VD 02VO 02VC 02MD 02MO 02MC 02RD 10RO	0	1	3.49253797531	None	None	None	None	1
2.7	2015_May_19_1538	s	s	13	2	SIC	455	ABS	2	0	02VD 02VO 10VC 02MD 02MO 02MC 02RD 02RO	0	1	1.87077307701	None	None	None	None	1
2.7	2015_May_19_1538	s	s	13	2	SIC	456	RC	2	2	09VD 02VO 02VC 02MD 02MO 02MC 02RD 02RO	1	0	0.964498996735	494.0	213.0	491	212	1
2.7	2015_May_19_1538	s	s	13	2	SIC	457	ABS	2	2	10VD 02VO 02VC 02MD 02MO 02MC 02RD 02RO	1	0	1.23514294624	None	None	67	-354	0
2.7	2015_May_19_1538	s	s	13	2	SIC	458	RC	0	1	02VD 02VO 02VC 02MD 02MO 02MC 02RD 09RO	1	0	0.964354991913	23.0	294.0	26	296	1
2.7	2015_May_19_1538	s	s	13	2	SIC	459	RC	1	0	02VD 02VO 02VC 02MD 02MO 09MC 02RD 02RO	1	0	1.00926589966	538.0	258.0	534	253	1
2.7	2015_May_19_1538	s	s	13	2	SIC	460	RC	0	2	02VD 02VO 02VC 02MD 02MO 02MC 09RD 02RO	1	0	2.30620408058	454.0	-256.0	455	-253	1
2.7	2015_May_19_1538	s	s	13	2	SIC	461	RC	1	2	02VD 02VO 02VC 09MD 02MO 02MC 02RD 02RO	1	0	1.05655813217	-292.0	197.0	-292	197	1
2.7	2015_May_19_1538	s	s	13	2	SIC	462	ABS	0	2	02VD 02VO 02VC 02MD 02MO 02MC 10RD 02RO	0	1	2.00614404678	None	None	None	None	1
2.7	2015_May_19_1538	s	s	13	2	SIC	463	ABS	1	0	02VD 02VO 02VC 02MD 02MO 10MC 02RD 02RO	1	0	0.888070106506	None	None	-370	-205	0
2.7	2015_May_19_1538	s	s	13	2	SIC	464	RC	2	1	02VD 09VO 02VC 02MD 02MO 02MC 02RD 02RO	1	0	0.752859115601	-341.0	-20.0	-331	-14	1
2.7	2015_May_19_1538	s	s	13	2	SIC	465	RC	2	1	02VD 09VO 02VC 02MD 02MO 02MC 02RD 02RO	1	0	1.07558202744	-153.0	-317.0	-153	-321	1
2.7	2015_May_19_1538	s	s	13	2	SIC	466	RC	0	1	02VD 02VO 02VC 02MD 02MO 02MC 02RD 09RO	1	0	1.85904717445	264.0	345.0	260	340	1
2.7	2015_May_19_1538	s	s	13	2	SIC	467	RC	0	2	02VD 02VO 02VC 02MD 02MO 02MC 09RD 02RO	1	0	0.74761390686	-162.0	322.0	-163	316	1
2.7	2015_May_19_1538	s	s	13	2	SIC	468	ABS	0	1	02VD 02VO 02VC 02MD 02MO 02MC 02RD 10RO	1	0	2.85969901085	None	None	-247	107	0
2.7	2015_May_19_1538	s	s	13	2	SIC	469	RC	1	1	02VD 02VO 02VC 02MD 09MO 02MC 02RD 02RO	1	0	0.670301914215	-265.0	136.0	-270	137	1
2.7	2015_May_19_1538	s	s	13	2	SIC	470	ABS	1	0	02VD 02VO 02VC 02MD 02MO 10MC 02RD 02RO	0	1	2.84776496887	None	None	None	None	1
2.7	2015_May_19_1538	s	s	13	2	SIC	471	ABS	2	1	02VD 10VO 02VC 02MD 02MO 02MC 02RD 02RO	1	0	1.70353412628	None	None	11	-137	0
2.7	2015_May_19_1538	s	s	13	2	SIC	472	RC	2	2	09VD 02VO 02VC 02MD 02MO 02MC 02RD 02RO	1	0	2.83176803589	-377.0	42.0	-377	34	1
2.7	2015_May_19_1538	s	s	13	2	SIC	473	ABS	1	1	02VD 02VO 02VC 02MD 10MO 02MC 02RD 02RO	0	1	2.57238316536	None	None	None	None	1
2.7	2015_May_19_1538	s	s	13	2	SIC	474	ABS	2	0	02VD 02VO 10VC 02MD 02MO 02MC 02RD 02RO	0	1	1.58837103844	None	None	None	None	1
2.7	2015_May_19_1538	s	s	13	2	SIC	475	RC	1	2	02VD 02VO 02VC 09MD 02MO 02MC 02RD 02RO	1	0	0.752674102783	145.0	201.0	135	205	1
2.7	2015_May_19_1538	s	s	13	2	SIC	476	RC	1	0	02VD 02VO 02VC 02MD 02MO 09MC 02RD 02RO	1	0	2.35032010078	437.0	-333.0	440	-334	1
2.7	2015_May_19_1538	s	s	13	2	SIC	477	ABS	0	2	02VD 02VO 02VC 02MD 02MO 02MC 10RD 02RO	0	1	1.94202208519	None	None	None	None	1
2.7	2015_May_19_1538	s	s	13	2	SIC	478	ABS	2	2	10VD 02VO 02VC 02MD 02MO 02MC 02RD 02RO	0	1	1.51207709312	None	None	None	None	1
2.7	2015_May_19_1538	s	s	13	2	SIC	479	RC	2	0	02VD 02VO 09VC 02MD 02MO 02MC 02RD 02RO	1	0	1.43054103851	473.0	-395.0	478	-396	1
2.7	2015_May_19_1538	s	s	13	2	SIC	480	ABS	1	2	02VD 02VO 02VC 10MD 02MO 02MC 02RD 02RO	0	1	1.57665610313	None	None	None	None	1
