Version	Date	Stimuli	Method	Subject	Session	Condition	Trial	Target	Channel1	Channel2	Distractors	LMouseButton	RMouseButton	RT	TargetX	TargetY	ResponseX	ResponseY	Correct
2.7	2015_May_27_1737	s	s	15	2	Capacity	1	ABS	0	1	08RD 16RO	0	1	4.49218606949	None	None	None	None	1
2.7	2015_May_27_1737	s	s	15	2	Capacity	2	RC	0	1	08RD 15RO	1	0	2.63128805161	401.0	-80.0	408	-77	1
2.7	2015_May_27_1737	s	s	15	2	Capacity	3	RC	0	2	15RD 08RO	1	0	2.77717018127	-282.0	53.0	-277	48	1
2.7	2015_May_27_1737	s	s	15	2	Capacity	4	ABS	0	2	16RD 08RO	0	1	3.54224491119	None	None	None	None	1
2.7	2015_May_27_1737	s	s	15	2	Capacity	5	ABS	0	2	16RD 08RO	0	1	3.70218706131	None	None	None	None	1
2.7	2015_May_27_1737	s	s	15	2	Capacity	6	ABS	0	1	08RD 16RO	0	1	5.21412110329	None	None	None	None	1
2.7	2015_May_27_1737	s	s	15	2	Capacity	7	RC	0	2	15RD 08RO	1	0	1.90987586975	185.0	-408.0	191	-408	1
2.7	2015_May_27_1737	s	s	15	2	Capacity	8	RC	0	1	08RD 15RO	1	0	1.52683210373	-367.0	-150.0	-375	-156	1
2.7	2015_May_27_1737	s	s	15	2	Capacity	9	RC	0	1	08RD 15RO	1	0	2.92542886734	480.0	-118.0	483	-120	1
2.7	2015_May_27_1737	s	s	15	2	Capacity	10	RC	0	2	15RD 08RO	1	0	1.55983901024	-287.0	358.0	-279	352	1
2.7	2015_May_27_1737	s	s	15	2	Capacity	11	ABS	0	1	08RD 16RO	0	1	4.63108205795	None	None	None	None	1
2.7	2015_May_27_1737	s	s	15	2	Capacity	12	ABS	0	2	16RD 08RO	0	1	5.43725609779	None	None	None	None	1
2.7	2015_May_27_1737	s	s	15	2	Capacity	13	ABS	0	2	16RD 08RO	0	1	5.37862300873	None	None	None	None	1
2.7	2015_May_27_1737	s	s	15	2	Capacity	14	RC	0	2	15RD 08RO	1	0	2.45945215225	203.0	45.0	200	43	1
2.7	2015_May_27_1737	s	s	15	2	Capacity	15	RC	0	1	08RD 15RO	1	0	0.882081985474	-52.0	131.0	-52	134	1
2.7	2015_May_27_1737	s	s	15	2	Capacity	16	ABS	0	1	08RD 16RO	0	1	4.34269309044	None	None	None	None	1
2.7	2015_May_27_1737	s	s	15	2	Capacity	17	ABS	0	2	16RD 08RO	0	1	3.57760500908	None	None	None	None	1
2.7	2015_May_27_1737	s	s	15	2	Capacity	18	RC	0	1	08RD 15RO	1	0	3.31869792938	329.0	-332.0	330	-333	1
2.7	2015_May_27_1737	s	s	15	2	Capacity	19	RC	0	2	15RD 08RO	1	0	0.971739053726	-132.0	-114.0	-131	-109	1
2.7	2015_May_27_1737	s	s	15	2	Capacity	20	ABS	0	1	08RD 16RO	0	1	4.28023695946	None	None	None	None	1
2.7	2015_May_27_1737	s	s	15	2	Capacity	21	RC	0	2	15RD 08RO	1	0	0.85853600502	-379.0	34.0	-388	30	1
2.7	2015_May_27_1737	s	s	15	2	Capacity	22	RC	0	1	08RD 15RO	1	0	4.72653698921	-490.0	-341.0	-488	-339	1
2.7	2015_May_27_1737	s	s	15	2	Capacity	23	ABS	0	2	16RD 08RO	0	1	5.46759200096	None	None	None	None	1
2.7	2015_May_27_1737	s	s	15	2	Capacity	24	ABS	0	1	08RD 16RO	0	1	4.84877681732	None	None	None	None	1
2.7	2015_May_27_1737	s	s	15	2	Capacity	25	RC	0	1	08RD 15RO	1	0	3.60726594925	-504.0	-234.0	-505	-239	1
2.7	2015_May_27_1737	s	s	15	2	Capacity	26	ABS	0	2	16RD 08RO	0	1	3.565928936	None	None	None	None	1
2.7	2015_May_27_1737	s	s	15	2	Capacity	27	RC	0	2	15RD 08RO	1	0	1.14762210846	-391.0	296.0	-381	294	1
2.7	2015_May_27_1737	s	s	15	2	Capacity	28	ABS	0	1	08RD 16RO	0	1	4.01310515404	None	None	None	None	1
2.7	2015_May_27_1737	s	s	15	2	Capacity	29	RC	0	2	15RD 08RO	1	0	3.5746409893	-351.0	-372.0	-345	-378	1
2.7	2015_May_27_1737	s	s	15	2	Capacity	30	RC	0	1	08RD 15RO	1	0	2.00717806816	178.0	-171.0	187	-165	1
2.7	2015_May_27_1737	s	s	15	2	Capacity	31	ABS	0	2	16RD 08RO	0	1	3.86721801758	None	None	None	None	1
2.7	2015_May_27_1737	s	s	15	2	Capacity	32	ABS	0	1	08RD 16RO	0	1	4.68412804604	None	None	None	None	1
2.7	2015_May_27_1737	s	s	15	2	Capacity	33	ABS	0	1	08RD 16RO	0	1	5.86161994934	None	None	None	None	1
2.7	2015_May_27_1737	s	s	15	2	Capacity	34	RC	0	2	15RD 08RO	1	0	1.05285406113	-17.0	370.0	-24	363	1
2.7	2015_May_27_1737	s	s	15	2	Capacity	35	RC	0	1	08RD 15RO	1	0	3.9986538887	-324.0	-208.0	-324	-214	1
2.7	2015_May_27_1737	s	s	15	2	Capacity	36	ABS	0	2	16RD 08RO	0	1	3.85998415947	None	None	None	None	1
2.7	2015_May_27_1737	s	s	15	2	Capacity	37	ABS	0	1	08RD 16RO	0	1	4.31386399269	None	None	None	None	1
2.7	2015_May_27_1737	s	s	15	2	Capacity	38	ABS	0	2	16RD 08RO	0	1	3.00078511238	None	None	None	None	1
2.7	2015_May_27_1737	s	s	15	2	Capacity	39	RC	0	2	15RD 08RO	1	0	2.00940394402	-211.0	-59.0	-217	-65	1
2.7	2015_May_27_1737	s	s	15	2	Capacity	40	RC	0	1	08RD 15RO	1	0	2.48014092445	-323.0	-367.0	-327	-365	1
2.7	2015_May_27_1737	s	s	15	2	Capacity	41	ABS	0	2	16RD 08RO	0	1	2.93071508408	None	None	None	None	1
2.7	2015_May_27_1737	s	s	15	2	Capacity	42	RC	0	2	15RD 08RO	1	0	1.52665805817	193.0	358.0	199	357	1
2.7	2015_May_27_1737	s	s	15	2	Capacity	43	RC	0	1	08RD 15RO	0	1	3.59796786308	452.0	386.0	None	None	0
2.7	2015_May_27_1737	s	s	15	2	Capacity	44	ABS	0	1	08RD 16RO	0	1	5.83759093285	None	None	None	None	1
2.7	2015_May_27_1737	s	s	15	2	Capacity	45	RC	0	2	15RD 08RO	1	0	1.27901792526	488.0	140.0	489	140	1
2.7	2015_May_27_1737	s	s	15	2	Capacity	46	ABS	0	1	08RD 16RO	0	1	5.03725886345	None	None	None	None	1
2.7	2015_May_27_1737	s	s	15	2	Capacity	47	RC	0	1	08RD 15RO	1	0	4.23687410355	-232.0	-218.0	-241	-220	1
2.7	2015_May_27_1737	s	s	15	2	Capacity	48	ABS	0	2	16RD 08RO	0	1	6.28488302231	None	None	None	None	1
2.7	2015_May_27_1737	s	s	15	2	Capacity	49	ABS	0	1	08RD 16RO	0	1	5.09961605072	None	None	None	None	1
2.7	2015_May_27_1737	s	s	15	2	Capacity	50	RC	0	1	08RD 15RO	1	0	5.91579294205	-326.0	102.0	-331	102	1
2.7	2015_May_27_1737	s	s	15	2	Capacity	51	RC	0	2	15RD 08RO	1	0	1.31235599518	120.0	363.0	132	364	1
2.7	2015_May_27_1737	s	s	15	2	Capacity	52	ABS	0	2	16RD 08RO	0	1	3.31405210495	None	None	None	None	1
2.7	2015_May_27_1737	s	s	15	2	Capacity	53	ABS	0	1	08RD 16RO	0	1	3.84836983681	None	None	None	None	1
2.7	2015_May_27_1737	s	s	15	2	Capacity	54	RC	0	1	08RD 15RO	1	0	2.30633592606	256.0	-357.0	250	-361	1
2.7	2015_May_27_1737	s	s	15	2	Capacity	55	RC	0	2	15RD 08RO	1	0	2.15004491806	80.0	-120.0	68	-111	1
2.7	2015_May_27_1737	s	s	15	2	Capacity	56	ABS	0	2	16RD 08RO	0	1	3.38934087753	None	None	None	None	1
2.7	2015_May_27_1737	s	s	15	2	Capacity	57	ABS	0	2	16RD 08RO	0	1	3.28337097168	None	None	None	None	1
2.7	2015_May_27_1737	s	s	15	2	Capacity	58	RC	0	1	08RD 15RO	1	0	2.12486386299	486.0	-96.0	486	-92	1
2.7	2015_May_27_1737	s	s	15	2	Capacity	59	RC	0	2	15RD 08RO	1	0	2.1973130703	-514.0	34.0	-512	35	1
2.7	2015_May_27_1737	s	s	15	2	Capacity	60	ABS	0	1	08RD 16RO	0	1	2.98916316032	None	None	None	None	1
2.7	2015_May_27_1737	s	s	15	2	Capacity	61	ABS	0	1	08RD 16RO	0	1	4.06010890007	None	None	None	None	1
2.7	2015_May_27_1737	s	s	15	2	Capacity	62	ABS	0	2	16RD 08RO	0	1	3.00084590912	None	None	None	None	1
2.7	2015_May_27_1737	s	s	15	2	Capacity	63	RC	0	1	08RD 15RO	1	0	5.49623084068	46.0	-332.0	52	-339	1
2.7	2015_May_27_1737	s	s	15	2	Capacity	64	RC	0	2	15RD 08RO	1	0	0.820563077927	-274.0	21.0	-276	27	1
2.7	2015_May_27_1737	s	s	15	2	Capacity	1	ABS	2	0	16VC 08MC	0	1	1.80718207359	None	None	None	None	1
2.7	2015_May_27_1737	s	s	15	2	Capacity	2	ABS	1	0	08VC 16MC	0	1	3.94963598251	None	None	None	None	1
2.7	2015_May_27_1737	s	s	15	2	Capacity	3	RC	2	0	15VC 08MC	1	0	0.632210016251	78.0	23.0	81	23	1
2.7	2015_May_27_1737	s	s	15	2	Capacity	4	RC	1	0	08VC 15MC	1	0	1.96269488335	-173.0	-401.0	-170	-392	1
2.7	2015_May_27_1737	s	s	15	2	Capacity	5	ABS	2	0	16VC 08MC	0	1	1.19561910629	None	None	None	None	1
2.7	2015_May_27_1737	s	s	15	2	Capacity	6	RC	1	0	08VC 15MC	1	0	0.80823302269	-151.0	-43.0	-149	-35	1
2.7	2015_May_27_1737	s	s	15	2	Capacity	7	RC	2	0	15VC 08MC	1	0	0.910256147385	154.0	-333.0	160	-329	1
2.7	2015_May_27_1737	s	s	15	2	Capacity	8	ABS	1	0	08VC 16MC	0	1	2.23020291328	None	None	None	None	1
2.7	2015_May_27_1737	s	s	15	2	Capacity	9	RC	2	0	15VC 08MC	1	0	0.729153871536	-328.0	229.0	-331	234	1
2.7	2015_May_27_1737	s	s	15	2	Capacity	10	RC	1	0	08VC 15MC	1	0	0.794754981995	441.0	189.0	453	191	1
2.7	2015_May_27_1737	s	s	15	2	Capacity	11	ABS	1	0	08VC 16MC	0	1	2.00029206276	None	None	None	None	1
2.7	2015_May_27_1737	s	s	15	2	Capacity	12	ABS	2	0	16VC 08MC	0	1	2.5772190094	None	None	None	None	1
2.7	2015_May_27_1737	s	s	15	2	Capacity	13	RC	1	0	08VC 15MC	1	0	0.771591901779	-211.0	3.0	-216	-8	1
2.7	2015_May_27_1737	s	s	15	2	Capacity	14	RC	2	0	15VC 08MC	1	0	0.758696079254	-156.0	-119.0	-158	-123	1
2.7	2015_May_27_1737	s	s	15	2	Capacity	15	ABS	2	0	16VC 08MC	0	1	2.01839208603	None	None	None	None	1
2.7	2015_May_27_1737	s	s	15	2	Capacity	16	ABS	1	0	08VC 16MC	0	1	2.40066695213	None	None	None	None	1
2.7	2015_May_27_1737	s	s	15	2	Capacity	17	ABS	2	0	16VC 08MC	1	0	0.64658498764	None	None	-199	20	0
2.7	2015_May_27_1737	s	s	15	2	Capacity	18	RC	2	0	15VC 08MC	1	0	0.623044967651	-168.0	-111.0	-168	-120	1
2.7	2015_May_27_1737	s	s	15	2	Capacity	19	RC	1	0	08VC 15MC	1	0	1.16465592384	279.0	-408.0	283	-401	1
2.7	2015_May_27_1737	s	s	15	2	Capacity	20	ABS	1	0	08VC 16MC	0	1	3.62458205223	None	None	None	None	1
2.7	2015_May_27_1737	s	s	15	2	Capacity	21	RC	2	0	15VC 08MC	1	0	1.12617087364	-345.0	-103.0	-345	-102	1
2.7	2015_May_27_1737	s	s	15	2	Capacity	22	ABS	2	0	16VC 08MC	0	1	2.26712799072	None	None	None	None	1
2.7	2015_May_27_1737	s	s	15	2	Capacity	23	ABS	1	0	08VC 16MC	0	1	4.19768118858	None	None	None	None	1
2.7	2015_May_27_1737	s	s	15	2	Capacity	24	RC	1	0	08VC 15MC	1	0	1.6530752182	4.0	-391.0	3	-393	1
2.7	2015_May_27_1737	s	s	15	2	Capacity	25	RC	2	0	15VC 08MC	1	0	0.673933982849	158.0	-239.0	156	-243	1
2.7	2015_May_27_1737	s	s	15	2	Capacity	26	RC	1	0	08VC 15MC	1	0	0.606248855591	-111.0	-95.0	-109	-86	1
2.7	2015_May_27_1737	s	s	15	2	Capacity	27	ABS	1	0	08VC 16MC	0	1	2.60421299934	None	None	None	None	1
2.7	2015_May_27_1737	s	s	15	2	Capacity	28	ABS	2	0	16VC 08MC	0	1	2.20743298531	None	None	None	None	1
2.7	2015_May_27_1737	s	s	15	2	Capacity	29	RC	1	0	08VC 15MC	1	0	1.1963570118	-427.0	240.0	-432	234	1
2.7	2015_May_27_1737	s	s	15	2	Capacity	30	ABS	1	0	08VC 16MC	0	1	2.79571819305	None	None	None	None	1
2.7	2015_May_27_1737	s	s	15	2	Capacity	31	RC	2	0	15VC 08MC	1	0	0.646738052368	380.0	71.0	381	64	1
2.7	2015_May_27_1737	s	s	15	2	Capacity	32	ABS	2	0	16VC 08MC	0	1	1.36472415924	None	None	None	None	1
2.7	2015_May_27_1737	s	s	15	2	Capacity	33	ABS	2	0	16VC 08MC	0	1	1.8948969841	None	None	None	None	1
2.7	2015_May_27_1737	s	s	15	2	Capacity	34	RC	1	0	08VC 15MC	1	0	1.05870604515	-449.0	56.0	-451	46	1
2.7	2015_May_27_1737	s	s	15	2	Capacity	35	ABS	1	0	08VC 16MC	0	1	2.6916410923	None	None	None	None	1
2.7	2015_May_27_1737	s	s	15	2	Capacity	36	RC	2	0	15VC 08MC	1	0	0.713193893433	-218.0	159.0	-223	155	1
2.7	2015_May_27_1737	s	s	15	2	Capacity	37	RC	1	0	08VC 15MC	1	0	0.776226997375	139.0	-29.0	141	-36	1
2.7	2015_May_27_1737	s	s	15	2	Capacity	38	RC	2	0	15VC 08MC	1	0	0.576056957245	-109.0	291.0	-109	287	1
2.7	2015_May_27_1737	s	s	15	2	Capacity	39	ABS	2	0	16VC 08MC	0	1	1.34761500359	None	None	None	None	1
2.7	2015_May_27_1737	s	s	15	2	Capacity	40	ABS	1	0	08VC 16MC	0	1	2.18869709969	None	None	None	None	1
2.7	2015_May_27_1737	s	s	15	2	Capacity	41	RC	1	0	08VC 15MC	1	0	1.1837220192	-225.0	-108.0	-226	-108	1
2.7	2015_May_27_1737	s	s	15	2	Capacity	42	ABS	1	0	08VC 16MC	0	1	2.07096910477	None	None	None	None	1
2.7	2015_May_27_1737	s	s	15	2	Capacity	43	RC	2	0	15VC 08MC	1	0	0.546900987625	-305.0	46.0	-303	45	1
2.7	2015_May_27_1737	s	s	15	2	Capacity	44	ABS	2	0	16VC 08MC	0	1	2.47824501991	None	None	None	None	1
2.7	2015_May_27_1737	s	s	15	2	Capacity	45	ABS	2	0	16VC 08MC	0	1	1.91802597046	None	None	None	None	1
2.7	2015_May_27_1737	s	s	15	2	Capacity	46	RC	1	0	08VC 15MC	1	0	0.481935024261	-33.0	23.0	-22	30	1
2.7	2015_May_27_1737	s	s	15	2	Capacity	47	ABS	1	0	08VC 16MC	0	1	1.84488010406	None	None	None	None	1
2.7	2015_May_27_1737	s	s	15	2	Capacity	48	RC	2	0	15VC 08MC	1	0	0.54075884819	225.0	64.0	230	59	1
2.7	2015_May_27_1737	s	s	15	2	Capacity	49	ABS	1	0	08VC 16MC	0	1	2.00718307495	None	None	None	None	1
2.7	2015_May_27_1737	s	s	15	2	Capacity	50	ABS	2	0	16VC 08MC	0	1	3.07148003578	None	None	None	None	1
2.7	2015_May_27_1737	s	s	15	2	Capacity	51	RC	2	0	15VC 08MC	1	0	0.702890872955	332.0	34.0	339	29	1
2.7	2015_May_27_1737	s	s	15	2	Capacity	52	RC	1	0	08VC 15MC	1	0	0.867178916931	396.0	165.0	403	167	1
2.7	2015_May_27_1737	s	s	15	2	Capacity	53	ABS	2	0	16VC 08MC	0	1	1.79553890228	None	None	None	None	1
2.7	2015_May_27_1737	s	s	15	2	Capacity	54	RC	2	0	15VC 08MC	1	0	0.741152048111	-299.0	-203.0	-299	-195	1
2.7	2015_May_27_1737	s	s	15	2	Capacity	55	ABS	1	0	08VC 16MC	0	1	3.09506201744	None	None	None	None	1
2.7	2015_May_27_1737	s	s	15	2	Capacity	56	RC	1	0	08VC 15MC	1	0	0.855880022049	-239.0	18.0	-240	24	1
2.7	2015_May_27_1737	s	s	15	2	Capacity	57	ABS	2	0	16VC 08MC	0	1	1.78525304794	None	None	None	None	1
2.7	2015_May_27_1737	s	s	15	2	Capacity	58	RC	2	0	15VC 08MC	1	0	1.05871891975	106.0	-342.0	112	-345	1
2.7	2015_May_27_1737	s	s	15	2	Capacity	59	RC	1	0	08VC 15MC	1	0	0.776677131653	-20.0	352.0	-23	349	1
2.7	2015_May_27_1737	s	s	15	2	Capacity	60	ABS	1	0	08VC 16MC	0	1	1.7885351181	None	None	None	None	1
2.7	2015_May_27_1737	s	s	15	2	Capacity	61	RC	1	0	08VC 15MC	1	0	0.729082107544	149.0	-16.0	150	-21	1
2.7	2015_May_27_1737	s	s	15	2	Capacity	62	ABS	1	0	08VC 16MC	0	1	1.82008695602	None	None	None	None	1
2.7	2015_May_27_1737	s	s	15	2	Capacity	63	ABS	2	0	16VC 08MC	0	1	2.78906106949	None	None	None	None	1
2.7	2015_May_27_1737	s	s	15	2	Capacity	64	RC	2	0	15VC 08MC	1	0	0.573060035706	243.0	242.0	245	237	1
2.7	2015_May_27_1737	s	s	15	2	SIC	1	RC	2	2	09VD 02VO 02VC 02MD 02MO 02MC 02RD 02RO	1	0	1.04277801514	-18.0	-155.0	-16	-152	1
2.7	2015_May_27_1737	s	s	15	2	SIC	2	ABS	1	1	02VD 02VO 02VC 02MD 10MO 02MC 02RD 02RO	0	1	2.96922707558	None	None	None	None	1
2.7	2015_May_27_1737	s	s	15	2	SIC	3	ABS	2	2	10VD 02VO 02VC 02MD 02MO 02MC 02RD 02RO	0	1	2.87796807289	None	None	None	None	1
2.7	2015_May_27_1737	s	s	15	2	SIC	4	RC	2	0	02VD 02VO 09VC 02MD 02MO 02MC 02RD 02RO	1	0	1.3621430397	246.0	-187.0	247	-180	1
2.7	2015_May_27_1737	s	s	15	2	SIC	5	ABS	1	2	02VD 02VO 02VC 10MD 02MO 02MC 02RD 02RO	0	1	2.47981405258	None	None	None	None	1
2.7	2015_May_27_1737	s	s	15	2	SIC	6	ABS	2	1	02VD 10VO 02VC 02MD 02MO 02MC 02RD 02RO	0	1	3.15378594398	None	None	None	None	1
2.7	2015_May_27_1737	s	s	15	2	SIC	7	ABS	0	2	02VD 02VO 02VC 02MD 02MO 02MC 10RD 02RO	0	1	3.6605451107	None	None	None	None	1
2.7	2015_May_27_1737	s	s	15	2	SIC	8	RC	0	2	02VD 02VO 02VC 02MD 02MO 02MC 09RD 02RO	1	0	0.929327011108	-150.0	325.0	-157	329	1
2.7	2015_May_27_1737	s	s	15	2	SIC	9	ABS	1	0	02VD 02VO 02VC 02MD 02MO 10MC 02RD 02RO	0	1	3.28694605827	None	None	None	None	1
2.7	2015_May_27_1737	s	s	15	2	SIC	10	RC	1	0	02VD 02VO 02VC 02MD 02MO 09MC 02RD 02RO	1	0	0.811727046967	-289.0	197.0	-283	190	1
2.7	2015_May_27_1737	s	s	15	2	SIC	11	RC	1	2	02VD 02VO 02VC 09MD 02MO 02MC 02RD 02RO	1	0	1.28219008446	-110.0	-22.0	-114	-22	1
2.7	2015_May_27_1737	s	s	15	2	SIC	12	ABS	2	0	02VD 02VO 10VC 02MD 02MO 02MC 02RD 02RO	0	1	2.29460811615	None	None	None	None	1
2.7	2015_May_27_1737	s	s	15	2	SIC	13	RC	1	1	02VD 02VO 02VC 02MD 09MO 02MC 02RD 02RO	1	0	0.92354798317	-319.0	-9.0	-312	-8	1
2.7	2015_May_27_1737	s	s	15	2	SIC	14	RC	0	1	02VD 02VO 02VC 02MD 02MO 02MC 02RD 09RO	1	0	3.62473702431	-28.0	310.0	-21	315	1
2.7	2015_May_27_1737	s	s	15	2	SIC	15	ABS	0	1	02VD 02VO 02VC 02MD 02MO 02MC 02RD 10RO	0	1	5.31953597069	None	None	None	None	1
2.7	2015_May_27_1737	s	s	15	2	SIC	16	RC	2	1	02VD 09VO 02VC 02MD 02MO 02MC 02RD 02RO	1	0	2.05925917625	-288.0	-154.0	-291	-155	1
2.7	2015_May_27_1737	s	s	15	2	SIC	17	ABS	0	1	02VD 02VO 02VC 02MD 02MO 02MC 02RD 10RO	0	1	3.94822382927	None	None	None	None	1
2.7	2015_May_27_1737	s	s	15	2	SIC	18	RC	2	1	02VD 09VO 02VC 02MD 02MO 02MC 02RD 02RO	1	0	0.811506032944	-127.0	67.0	-116	72	1
2.7	2015_May_27_1737	s	s	15	2	SIC	19	ABS	1	2	02VD 02VO 02VC 10MD 02MO 02MC 02RD 02RO	0	1	2.86857891083	None	None	None	None	1
2.7	2015_May_27_1737	s	s	15	2	SIC	20	RC	1	2	02VD 02VO 02VC 09MD 02MO 02MC 02RD 02RO	1	0	2.12981414795	-369.0	269.0	-382	272	1
2.7	2015_May_27_1737	s	s	15	2	SIC	21	ABS	0	2	02VD 02VO 02VC 02MD 02MO 02MC 10RD 02RO	0	1	2.01922392845	None	None	None	None	1
2.7	2015_May_27_1737	s	s	15	2	SIC	22	ABS	1	0	02VD 02VO 02VC 02MD 02MO 10MC 02RD 02RO	0	1	3.42468500137	None	None	None	None	1
2.7	2015_May_27_1737	s	s	15	2	SIC	23	RC	2	2	09VD 02VO 02VC 02MD 02MO 02MC 02RD 02RO	1	0	2.62450885773	-411.0	401.0	-404	399	1
2.7	2015_May_27_1737	s	s	15	2	SIC	24	ABS	1	1	02VD 02VO 02VC 02MD 10MO 02MC 02RD 02RO	0	1	3.13036704063	None	None	None	None	1
2.7	2015_May_27_1737	s	s	15	2	SIC	25	RC	0	1	02VD 02VO 02VC 02MD 02MO 02MC 02RD 09RO	1	0	0.634961128235	35.0	203.0	42	196	1
2.7	2015_May_27_1737	s	s	15	2	SIC	26	RC	0	2	02VD 02VO 02VC 02MD 02MO 02MC 09RD 02RO	1	0	0.114571094513	-320.0	58.0	42	-208	0
2.7	2015_May_27_1737	s	s	15	2	SIC	27	ABS	2	1	02VD 10VO 02VC 02MD 02MO 02MC 02RD 02RO	0	1	2.47121596336	None	None	None	None	1
2.7	2015_May_27_1737	s	s	15	2	SIC	28	RC	1	1	02VD 02VO 02VC 02MD 09MO 02MC 02RD 02RO	1	0	1.56214904785	-453.0	-227.0	-451	-218	1
2.7	2015_May_27_1737	s	s	15	2	SIC	29	ABS	2	0	02VD 02VO 10VC 02MD 02MO 02MC 02RD 02RO	0	1	3.59606409073	None	None	None	None	1
2.7	2015_May_27_1737	s	s	15	2	SIC	30	RC	2	0	02VD 02VO 09VC 02MD 02MO 02MC 02RD 02RO	1	0	1.3294608593	-191.0	-185.0	-191	-181	1
2.7	2015_May_27_1737	s	s	15	2	SIC	31	RC	1	0	02VD 02VO 02VC 02MD 02MO 09MC 02RD 02RO	1	0	1.77136492729	-494.0	-85.0	-495	-88	1
2.7	2015_May_27_1737	s	s	15	2	SIC	32	ABS	2	2	10VD 02VO 02VC 02MD 02MO 02MC 02RD 02RO	0	1	2.61280202866	None	None	None	None	1
2.7	2015_May_27_1737	s	s	15	2	SIC	33	ABS	2	2	10VD 02VO 02VC 02MD 02MO 02MC 02RD 02RO	0	1	2.43570804596	None	None	None	None	1
2.7	2015_May_27_1737	s	s	15	2	SIC	34	RC	2	2	09VD 02VO 02VC 02MD 02MO 02MC 02RD 02RO	1	0	1.40906000137	-365.0	13.0	-355	12	1
2.7	2015_May_27_1737	s	s	15	2	SIC	35	RC	0	2	02VD 02VO 02VC 02MD 02MO 02MC 09RD 02RO	1	0	1.40571284294	-308.0	-160.0	-311	-161	1
2.7	2015_May_27_1737	s	s	15	2	SIC	36	RC	2	1	02VD 09VO 02VC 02MD 02MO 02MC 02RD 02RO	1	0	1.43278694153	460.0	-231.0	458	-239	1
2.7	2015_May_27_1737	s	s	15	2	SIC	37	ABS	1	0	02VD 02VO 02VC 02MD 02MO 10MC 02RD 02RO	0	1	3.30416202545	None	None	None	None	1
2.7	2015_May_27_1737	s	s	15	2	SIC	38	ABS	0	1	02VD 02VO 02VC 02MD 02MO 02MC 02RD 10RO	0	1	4.32594203949	None	None	None	None	1
2.7	2015_May_27_1737	s	s	15	2	SIC	39	ABS	0	2	02VD 02VO 02VC 02MD 02MO 02MC 10RD 02RO	0	1	2.42047691345	None	None	None	None	1
2.7	2015_May_27_1737	s	s	15	2	SIC	40	ABS	1	1	02VD 02VO 02VC 02MD 10MO 02MC 02RD 02RO	0	1	3.48345017433	None	None	None	None	1
2.7	2015_May_27_1737	s	s	15	2	SIC	41	ABS	1	2	02VD 02VO 02VC 10MD 02MO 02MC 02RD 02RO	0	1	2.03066301346	None	None	None	None	1
2.7	2015_May_27_1737	s	s	15	2	SIC	42	RC	2	0	02VD 02VO 09VC 02MD 02MO 02MC 02RD 02RO	1	0	1.29440999031	536.0	-167.0	540	-172	1
2.7	2015_May_27_1737	s	s	15	2	SIC	43	RC	1	1	02VD 02VO 02VC 02MD 09MO 02MC 02RD 02RO	1	0	2.5388879776	461.0	-225.0	448	-221	1
2.7	2015_May_27_1737	s	s	15	2	SIC	44	RC	1	0	02VD 02VO 02VC 02MD 02MO 09MC 02RD 02RO	1	0	0.964466094971	287.0	40.0	291	39	1
2.7	2015_May_27_1737	s	s	15	2	SIC	45	RC	0	1	02VD 02VO 02VC 02MD 02MO 02MC 02RD 09RO	1	0	0.764444112778	45.0	289.0	51	282	1
2.7	2015_May_27_1737	s	s	15	2	SIC	46	RC	1	2	02VD 02VO 02VC 09MD 02MO 02MC 02RD 02RO	1	0	1.84430599213	-78.0	-228.0	-76	-221	1
2.7	2015_May_27_1737	s	s	15	2	SIC	47	ABS	2	0	02VD 02VO 10VC 02MD 02MO 02MC 02RD 02RO	0	1	2.90156197548	None	None	None	None	1
2.7	2015_May_27_1737	s	s	15	2	SIC	48	ABS	2	1	02VD 10VO 02VC 02MD 02MO 02MC 02RD 02RO	0	1	1.93720006943	None	None	None	None	1
2.7	2015_May_27_1737	s	s	15	2	SIC	49	ABS	1	2	02VD 02VO 02VC 10MD 02MO 02MC 02RD 02RO	0	1	3.91895294189	None	None	None	None	1
2.7	2015_May_27_1737	s	s	15	2	SIC	50	ABS	1	1	02VD 02VO 02VC 02MD 10MO 02MC 02RD 02RO	0	1	2.94189500809	None	None	None	None	1
2.7	2015_May_27_1737	s	s	15	2	SIC	51	ABS	2	1	02VD 10VO 02VC 02MD 02MO 02MC 02RD 02RO	0	1	2.82996106148	None	None	None	None	1
2.7	2015_May_27_1737	s	s	15	2	SIC	52	RC	1	0	02VD 02VO 02VC 02MD 02MO 09MC 02RD 02RO	1	0	3.1656358242	-533.0	-264.0	-523	-262	1
2.7	2015_May_27_1737	s	s	15	2	SIC	53	RC	2	2	09VD 02VO 02VC 02MD 02MO 02MC 02RD 02RO	1	0	1.31253290176	-250.0	411.0	-252	396	1
2.7	2015_May_27_1737	s	s	15	2	SIC	54	RC	2	0	02VD 02VO 09VC 02MD 02MO 02MC 02RD 02RO	1	0	1.82013106346	188.0	361.0	187	360	1
2.7	2015_May_27_1737	s	s	15	2	SIC	55	ABS	0	1	02VD 02VO 02VC 02MD 02MO 02MC 02RD 10RO	0	1	3.6313970089	None	None	None	None	1
2.7	2015_May_27_1737	s	s	15	2	SIC	56	RC	1	1	02VD 02VO 02VC 02MD 09MO 02MC 02RD 02RO	1	0	0.705564975739	343.0	258.0	343	263	1
2.7	2015_May_27_1737	s	s	15	2	SIC	57	RC	2	1	02VD 09VO 02VC 02MD 02MO 02MC 02RD 02RO	1	0	0.784557819366	-144.0	230.0	-134	230	1
2.7	2015_May_27_1737	s	s	15	2	SIC	58	ABS	1	0	02VD 02VO 02VC 02MD 02MO 10MC 02RD 02RO	0	1	3.05448889732	None	None	None	None	1
2.7	2015_May_27_1737	s	s	15	2	SIC	59	ABS	2	0	02VD 02VO 10VC 02MD 02MO 02MC 02RD 02RO	0	1	2.72493910789	None	None	None	None	1
2.7	2015_May_27_1737	s	s	15	2	SIC	60	RC	0	1	02VD 02VO 02VC 02MD 02MO 02MC 02RD 09RO	1	0	1.8121111393	-446.0	-57.0	-448	-58	1
2.7	2015_May_27_1737	s	s	15	2	SIC	61	ABS	0	2	02VD 02VO 02VC 02MD 02MO 02MC 10RD 02RO	0	1	2.27715802193	None	None	None	None	1
2.7	2015_May_27_1737	s	s	15	2	SIC	62	RC	1	2	02VD 02VO 02VC 09MD 02MO 02MC 02RD 02RO	1	0	1.78849506378	-32.0	-242.0	-27	-240	1
2.7	2015_May_27_1737	s	s	15	2	SIC	63	RC	0	2	02VD 02VO 02VC 02MD 02MO 02MC 09RD 02RO	1	0	1.28262615204	447.0	403.0	442	403	1
2.7	2015_May_27_1737	s	s	15	2	SIC	64	ABS	2	2	10VD 02VO 02VC 02MD 02MO 02MC 02RD 02RO	0	1	1.94180011749	None	None	None	None	1
2.7	2015_May_27_1737	s	s	15	2	SIC	65	RC	1	1	02VD 02VO 02VC 02MD 09MO 02MC 02RD 02RO	1	0	1.68932700157	-355.0	75.0	-349	74	1
2.7	2015_May_27_1737	s	s	15	2	SIC	66	ABS	0	1	02VD 02VO 02VC 02MD 02MO 02MC 02RD 10RO	0	1	3.59588623047	None	None	None	None	1
2.7	2015_May_27_1737	s	s	15	2	SIC	67	RC	1	2	02VD 02VO 02VC 09MD 02MO 02MC 02RD 02RO	1	0	1.34116482735	-507.0	29.0	-505	29	1
2.7	2015_May_27_1737	s	s	15	2	SIC	68	ABS	0	2	02VD 02VO 02VC 02MD 02MO 02MC 10RD 02RO	0	1	2.60712504387	None	None	None	None	1
2.7	2015_May_27_1737	s	s	15	2	SIC	69	ABS	1	1	02VD 02VO 02VC 02MD 10MO 02MC 02RD 02RO	0	1	2.72653102875	None	None	None	None	1
2.7	2015_May_27_1737	s	s	15	2	SIC	70	RC	2	0	02VD 02VO 09VC 02MD 02MO 02MC 02RD 02RO	1	0	1.3294467926	359.0	113.0	357	115	1
2.7	2015_May_27_1737	s	s	15	2	SIC	71	ABS	2	1	02VD 10VO 02VC 02MD 02MO 02MC 02RD 02RO	0	1	1.67891716957	None	None	None	None	1
2.7	2015_May_27_1737	s	s	15	2	SIC	72	ABS	2	2	10VD 02VO 02VC 02MD 02MO 02MC 02RD 02RO	0	1	2.56554985046	None	None	None	None	1
2.7	2015_May_27_1737	s	s	15	2	SIC	73	RC	2	2	09VD 02VO 02VC 02MD 02MO 02MC 02RD 02RO	1	0	1.72587108612	-446.0	-211.0	-452	-215	1
2.7	2015_May_27_1737	s	s	15	2	SIC	74	ABS	1	2	02VD 02VO 02VC 10MD 02MO 02MC 02RD 02RO	0	1	2.63589501381	None	None	None	None	1
2.7	2015_May_27_1737	s	s	15	2	SIC	75	ABS	2	0	02VD 02VO 10VC 02MD 02MO 02MC 02RD 02RO	0	1	2.20711684227	None	None	None	None	1
2.7	2015_May_27_1737	s	s	15	2	SIC	76	RC	2	1	02VD 09VO 02VC 02MD 02MO 02MC 02RD 02RO	1	0	1.38826489449	123.0	-275.0	130	-266	1
2.7	2015_May_27_1737	s	s	15	2	SIC	77	RC	1	0	02VD 02VO 02VC 02MD 02MO 09MC 02RD 02RO	1	0	0.972026109695	236.0	6.0	240	8	1
2.7	2015_May_27_1737	s	s	15	2	SIC	78	RC	0	1	02VD 02VO 02VC 02MD 02MO 02MC 02RD 09RO	0	1	3.5656440258	-496.0	33.0	None	None	0
2.7	2015_May_27_1737	s	s	15	2	SIC	79	ABS	1	0	02VD 02VO 02VC 02MD 02MO 10MC 02RD 02RO	0	1	4.61332893372	None	None	None	None	1
2.7	2015_May_27_1737	s	s	15	2	SIC	80	RC	0	2	02VD 02VO 02VC 02MD 02MO 02MC 09RD 02RO	1	0	0.876558065414	-23.0	-50.0	-22	-56	1
2.7	2015_May_27_1737	s	s	15	2	SIC	81	ABS	2	0	02VD 02VO 10VC 02MD 02MO 02MC 02RD 02RO	0	1	2.63320398331	None	None	None	None	1
2.7	2015_May_27_1737	s	s	15	2	SIC	82	ABS	2	2	10VD 02VO 02VC 02MD 02MO 02MC 02RD 02RO	0	1	2.62115812302	None	None	None	None	1
2.7	2015_May_27_1737	s	s	15	2	SIC	83	RC	0	2	02VD 02VO 02VC 02MD 02MO 02MC 09RD 02RO	1	0	1.01165103912	-348.0	229.0	-335	236	1
2.7	2015_May_27_1737	s	s	15	2	SIC	84	RC	2	0	02VD 02VO 09VC 02MD 02MO 02MC 02RD 02RO	1	0	1.2420771122	184.0	-250.0	180	-243	1
2.7	2015_May_27_1737	s	s	15	2	SIC	85	RC	1	2	02VD 02VO 02VC 09MD 02MO 02MC 02RD 02RO	1	0	1.82435011864	406.0	-240.0	405	-243	1
2.7	2015_May_27_1737	s	s	15	2	SIC	86	ABS	0	2	02VD 02VO 02VC 02MD 02MO 02MC 10RD 02RO	0	1	3.11357402802	None	None	None	None	1
2.7	2015_May_27_1737	s	s	15	2	SIC	87	ABS	1	2	02VD 02VO 02VC 10MD 02MO 02MC 02RD 02RO	0	1	3.25560092926	None	None	None	None	1
2.7	2015_May_27_1737	s	s	15	2	SIC	88	RC	1	1	02VD 02VO 02VC 02MD 09MO 02MC 02RD 02RO	1	0	2.97215390205	218.0	-244.0	224	-245	1
2.7	2015_May_27_1737	s	s	15	2	SIC	89	ABS	0	1	02VD 02VO 02VC 02MD 02MO 02MC 02RD 10RO	0	1	3.67179894447	None	None	None	None	1
2.7	2015_May_27_1737	s	s	15	2	SIC	90	ABS	1	1	02VD 02VO 02VC 02MD 10MO 02MC 02RD 02RO	0	1	2.04383993149	None	None	None	None	1
2.7	2015_May_27_1737	s	s	15	2	SIC	91	RC	2	1	02VD 09VO 02VC 02MD 02MO 02MC 02RD 02RO	1	0	1.17644691467	-507.0	103.0	-513	104	1
2.7	2015_May_27_1737	s	s	15	2	SIC	92	ABS	2	1	02VD 10VO 02VC 02MD 02MO 02MC 02RD 02RO	0	1	1.4235470295	None	None	None	None	1
2.7	2015_May_27_1737	s	s	15	2	SIC	93	RC	1	0	02VD 02VO 02VC 02MD 02MO 09MC 02RD 02RO	1	0	1.49409103394	406.0	-58.0	413	-50	1
2.7	2015_May_27_1737	s	s	15	2	SIC	94	ABS	1	0	02VD 02VO 02VC 02MD 02MO 10MC 02RD 02RO	0	1	2.5867190361	None	None	None	None	1
2.7	2015_May_27_1737	s	s	15	2	SIC	95	RC	2	2	09VD 02VO 02VC 02MD 02MO 02MC 02RD 02RO	1	0	2.07968401909	413.0	-245.0	409	-245	1
2.7	2015_May_27_1737	s	s	15	2	SIC	96	RC	0	1	02VD 02VO 02VC 02MD 02MO 02MC 02RD 09RO	1	0	2.02382397652	457.0	-403.0	454	-399	1
2.7	2015_May_27_1737	s	s	15	2	SIC	97	ABS	1	1	02VD 02VO 02VC 02MD 10MO 02MC 02RD 02RO	0	1	3.03615784645	None	None	None	None	1
2.7	2015_May_27_1737	s	s	15	2	SIC	98	ABS	1	0	02VD 02VO 02VC 02MD 02MO 10MC 02RD 02RO	0	1	3.15399193764	None	None	None	None	1
2.7	2015_May_27_1737	s	s	15	2	SIC	99	RC	1	1	02VD 02VO 02VC 02MD 09MO 02MC 02RD 02RO	1	0	1.65122580528	-39.0	-338.0	-40	-341	1
2.7	2015_May_27_1737	s	s	15	2	SIC	100	ABS	0	1	02VD 02VO 02VC 02MD 02MO 02MC 02RD 10RO	0	1	5.13138198853	None	None	None	None	1
2.7	2015_May_27_1737	s	s	15	2	SIC	101	ABS	0	2	02VD 02VO 02VC 02MD 02MO 02MC 10RD 02RO	0	1	3.41976809502	None	None	None	None	1
2.7	2015_May_27_1737	s	s	15	2	SIC	102	RC	1	0	02VD 02VO 02VC 02MD 02MO 09MC 02RD 02RO	0	1	3.19764018059	-522.0	-248.0	None	None	0
2.7	2015_May_27_1737	s	s	15	2	SIC	103	RC	2	1	02VD 09VO 02VC 02MD 02MO 02MC 02RD 02RO	1	0	2.16016316414	461.0	320.0	470	316	1
2.7	2015_May_27_1737	s	s	15	2	SIC	104	ABS	1	2	02VD 02VO 02VC 10MD 02MO 02MC 02RD 02RO	0	1	2.22398805618	None	None	None	None	1
2.7	2015_May_27_1737	s	s	15	2	SIC	105	ABS	2	2	10VD 02VO 02VC 02MD 02MO 02MC 02RD 02RO	0	1	3.13035106659	None	None	None	None	1
2.7	2015_May_27_1737	s	s	15	2	SIC	106	RC	2	0	02VD 02VO 09VC 02MD 02MO 02MC 02RD 02RO	1	0	2.48984885216	323.0	-394.0	327	-398	1
2.7	2015_May_27_1737	s	s	15	2	SIC	107	RC	0	1	02VD 02VO 02VC 02MD 02MO 02MC 02RD 09RO	1	0	1.7739739418	414.0	221.0	407	225	1
2.7	2015_May_27_1737	s	s	15	2	SIC	108	ABS	2	0	02VD 02VO 10VC 02MD 02MO 02MC 02RD 02RO	0	1	2.60710406303	None	None	None	None	1
2.7	2015_May_27_1737	s	s	15	2	SIC	109	RC	1	2	02VD 02VO 02VC 09MD 02MO 02MC 02RD 02RO	1	0	0.712491035461	7.0	21.0	15	27	1
2.7	2015_May_27_1737	s	s	15	2	SIC	110	RC	2	2	09VD 02VO 02VC 02MD 02MO 02MC 02RD 02RO	1	0	1.43537902832	-474.0	-290.0	-466	-293	1
2.7	2015_May_27_1737	s	s	15	2	SIC	111	ABS	2	1	02VD 10VO 02VC 02MD 02MO 02MC 02RD 02RO	0	1	2.55047988892	None	None	None	None	1
2.7	2015_May_27_1737	s	s	15	2	SIC	112	RC	0	2	02VD 02VO 02VC 02MD 02MO 02MC 09RD 02RO	1	0	1.56203484535	134.0	-383.0	135	-376	1
2.7	2015_May_27_1737	s	s	15	2	SIC	113	RC	0	2	02VD 02VO 02VC 02MD 02MO 02MC 09RD 02RO	1	0	1.17366194725	-263.0	384.0	-255	383	1
2.7	2015_May_27_1737	s	s	15	2	SIC	114	ABS	1	2	02VD 02VO 02VC 10MD 02MO 02MC 02RD 02RO	0	1	2.90668010712	None	None	None	None	1
2.7	2015_May_27_1737	s	s	15	2	SIC	115	RC	2	1	02VD 09VO 02VC 02MD 02MO 02MC 02RD 02RO	1	0	0.858673095703	-93.0	-94.0	-91	-94	1
2.7	2015_May_27_1737	s	s	15	2	SIC	116	ABS	1	0	02VD 02VO 02VC 02MD 02MO 10MC 02RD 02RO	0	1	2.43589782715	None	None	None	None	1
2.7	2015_May_27_1737	s	s	15	2	SIC	117	RC	1	2	02VD 02VO 02VC 09MD 02MO 02MC 02RD 02RO	1	0	2.45942687988	141.0	50.0	137	54	1
2.7	2015_May_27_1737	s	s	15	2	SIC	118	ABS	2	0	02VD 02VO 10VC 02MD 02MO 02MC 02RD 02RO	0	1	2.17687392235	None	None	None	None	1
2.7	2015_May_27_1737	s	s	15	2	SIC	119	RC	1	1	02VD 02VO 02VC 02MD 09MO 02MC 02RD 02RO	1	0	1.2302839756	-57.0	-129.0	-61	-129	1
2.7	2015_May_27_1737	s	s	15	2	SIC	120	RC	0	1	02VD 02VO 02VC 02MD 02MO 02MC 02RD 09RO	1	0	1.22389006615	-211.0	303.0	-210	305	1
2.7	2015_May_27_1737	s	s	15	2	SIC	121	ABS	1	1	02VD 02VO 02VC 02MD 10MO 02MC 02RD 02RO	0	1	2.74878907204	None	None	None	None	1
2.7	2015_May_27_1737	s	s	15	2	SIC	122	ABS	0	1	02VD 02VO 02VC 02MD 02MO 02MC 02RD 10RO	0	1	3.8953769207	None	None	None	None	1
2.7	2015_May_27_1737	s	s	15	2	SIC	123	ABS	2	1	02VD 10VO 02VC 02MD 02MO 02MC 02RD 02RO	0	1	1.98392415047	None	None	None	None	1
2.7	2015_May_27_1737	s	s	15	2	SIC	124	ABS	0	2	02VD 02VO 02VC 02MD 02MO 02MC 10RD 02RO	0	1	2.18336510658	None	None	None	None	1
2.7	2015_May_27_1737	s	s	15	2	SIC	125	RC	2	2	09VD 02VO 02VC 02MD 02MO 02MC 02RD 02RO	1	0	1.98914599419	-384.0	187.0	-376	191	1
2.7	2015_May_27_1737	s	s	15	2	SIC	126	ABS	2	2	10VD 02VO 02VC 02MD 02MO 02MC 02RD 02RO	0	1	2.45942401886	None	None	None	None	1
2.7	2015_May_27_1737	s	s	15	2	SIC	127	RC	1	0	02VD 02VO 02VC 02MD 02MO 09MC 02RD 02RO	1	0	2.74769806862	-247.0	286.0	-241	280	1
2.7	2015_May_27_1737	s	s	15	2	SIC	128	RC	2	0	02VD 02VO 09VC 02MD 02MO 02MC 02RD 02RO	1	0	1.15067815781	-138.0	239.0	-141	233	1
2.7	2015_May_27_1737	s	s	15	2	SIC	129	RC	1	2	02VD 02VO 02VC 09MD 02MO 02MC 02RD 02RO	1	0	1.71177101135	21.0	-267.0	16	-266	1
2.7	2015_May_27_1737	s	s	15	2	SIC	130	ABS	0	1	02VD 02VO 02VC 02MD 02MO 02MC 02RD 10RO	0	1	3.24802112579	None	None	None	None	1
2.7	2015_May_27_1737	s	s	15	2	SIC	131	RC	1	0	02VD 02VO 02VC 02MD 02MO 09MC 02RD 02RO	1	0	0.570101976395	77.0	90.0	81	94	1
2.7	2015_May_27_1737	s	s	15	2	SIC	132	ABS	1	0	02VD 02VO 02VC 02MD 02MO 10MC 02RD 02RO	0	1	2.93806600571	None	None	None	None	1
2.7	2015_May_27_1737	s	s	15	2	SIC	133	RC	2	1	02VD 09VO 02VC 02MD 02MO 02MC 02RD 02RO	1	0	1.26852893829	408.0	360.0	404	360	1
2.7	2015_May_27_1737	s	s	15	2	SIC	134	RC	0	1	02VD 02VO 02VC 02MD 02MO 02MC 02RD 09RO	1	0	2.31265902519	459.0	204.0	450	203	1
2.7	2015_May_27_1737	s	s	15	2	SIC	135	ABS	2	0	02VD 02VO 10VC 02MD 02MO 02MC 02RD 02RO	0	1	2.63624405861	None	None	None	None	1
2.7	2015_May_27_1737	s	s	15	2	SIC	136	ABS	1	2	02VD 02VO 02VC 10MD 02MO 02MC 02RD 02RO	0	1	2.80079698563	None	None	None	None	1
2.7	2015_May_27_1737	s	s	15	2	SIC	137	ABS	2	1	02VD 10VO 02VC 02MD 02MO 02MC 02RD 02RO	0	1	1.83285093307	None	None	None	None	1
2.7	2015_May_27_1737	s	s	15	2	SIC	138	RC	1	1	02VD 02VO 02VC 02MD 09MO 02MC 02RD 02RO	1	0	2.37202501297	394.0	-346.0	397	-342	1
2.7	2015_May_27_1737	s	s	15	2	SIC	139	ABS	1	1	02VD 02VO 02VC 02MD 10MO 02MC 02RD 02RO	0	1	2.82036280632	None	None	None	None	1
2.7	2015_May_27_1737	s	s	15	2	SIC	140	ABS	2	2	10VD 02VO 02VC 02MD 02MO 02MC 02RD 02RO	0	1	2.19521307945	None	None	None	None	1
2.7	2015_May_27_1737	s	s	15	2	SIC	141	RC	2	0	02VD 02VO 09VC 02MD 02MO 02MC 02RD 02RO	1	0	1.46562695503	45.0	-313.0	45	-312	1
2.7	2015_May_27_1737	s	s	15	2	SIC	142	RC	0	2	02VD 02VO 02VC 02MD 02MO 02MC 09RD 02RO	1	0	2.0404419899	444.0	-371.0	447	-365	1
2.7	2015_May_27_1737	s	s	15	2	SIC	143	ABS	0	2	02VD 02VO 02VC 02MD 02MO 02MC 10RD 02RO	0	1	3.0949909687	None	None	None	None	1
2.7	2015_May_27_1737	s	s	15	2	SIC	144	RC	2	2	09VD 02VO 02VC 02MD 02MO 02MC 02RD 02RO	1	0	1.25349402428	53.0	-202.0	51	-209	1
2.7	2015_May_27_1737	s	s	15	2	SIC	145	RC	0	1	02VD 02VO 02VC 02MD 02MO 02MC 02RD 09RO	1	0	0.976282835007	256.0	239.0	258	242	1
2.7	2015_May_27_1737	s	s	15	2	SIC	146	ABS	0	1	02VD 02VO 02VC 02MD 02MO 02MC 02RD 10RO	0	1	4.20811700821	None	None	None	None	1
2.7	2015_May_27_1737	s	s	15	2	SIC	147	RC	0	2	02VD 02VO 02VC 02MD 02MO 02MC 09RD 02RO	1	0	1.41221094131	-280.0	-78.0	-283	-80	1
2.7	2015_May_27_1737	s	s	15	2	SIC	148	ABS	1	1	02VD 02VO 02VC 02MD 10MO 02MC 02RD 02RO	0	1	2.82427597046	None	None	None	None	1
2.7	2015_May_27_1737	s	s	15	2	SIC	149	ABS	2	0	02VD 02VO 10VC 02MD 02MO 02MC 02RD 02RO	0	1	2.46872806549	None	None	None	None	1
2.7	2015_May_27_1737	s	s	15	2	SIC	150	RC	1	2	02VD 02VO 02VC 09MD 02MO 02MC 02RD 02RO	1	0	3.12480401993	382.0	-260.0	380	-257	1
2.7	2015_May_27_1737	s	s	15	2	SIC	151	ABS	0	2	02VD 02VO 02VC 02MD 02MO 02MC 10RD 02RO	0	1	2.98471212387	None	None	None	None	1
2.7	2015_May_27_1737	s	s	15	2	SIC	152	ABS	2	1	02VD 10VO 02VC 02MD 02MO 02MC 02RD 02RO	0	1	2.74916100502	None	None	None	None	1
2.7	2015_May_27_1737	s	s	15	2	SIC	153	ABS	1	2	02VD 02VO 02VC 10MD 02MO 02MC 02RD 02RO	0	1	2.26814007759	None	None	None	None	1
2.7	2015_May_27_1737	s	s	15	2	SIC	154	ABS	2	2	10VD 02VO 02VC 02MD 02MO 02MC 02RD 02RO	0	1	2.30641198158	None	None	None	None	1
2.7	2015_May_27_1737	s	s	15	2	SIC	155	RC	1	1	02VD 02VO 02VC 02MD 09MO 02MC 02RD 02RO	1	0	0.675125837326	46.0	-14.0	43	-12	1
2.7	2015_May_27_1737	s	s	15	2	SIC	156	RC	1	0	02VD 02VO 02VC 02MD 02MO 09MC 02RD 02RO	1	0	0.997195959091	256.0	26.0	249	27	1
2.7	2015_May_27_1737	s	s	15	2	SIC	157	RC	2	1	02VD 09VO 02VC 02MD 02MO 02MC 02RD 02RO	1	0	0.818490982056	-199.0	26.0	-201	26	1
2.7	2015_May_27_1737	s	s	15	2	SIC	158	RC	2	2	09VD 02VO 02VC 02MD 02MO 02MC 02RD 02RO	1	0	2.05621910095	-437.0	-246.0	-432	-252	1
2.7	2015_May_27_1737	s	s	15	2	SIC	159	ABS	1	0	02VD 02VO 02VC 02MD 02MO 10MC 02RD 02RO	0	1	2.92688298225	None	None	None	None	1
2.7	2015_May_27_1737	s	s	15	2	SIC	160	RC	2	0	02VD 02VO 09VC 02MD 02MO 02MC 02RD 02RO	1	0	0.89391207695	363.0	182.0	357	177	1
2.7	2015_May_27_1737	s	s	15	2	SIC	161	ABS	0	2	02VD 02VO 02VC 02MD 02MO 02MC 10RD 02RO	0	1	2.25655508041	None	None	None	None	1
2.7	2015_May_27_1737	s	s	15	2	SIC	162	RC	2	0	02VD 02VO 09VC 02MD 02MO 02MC 02RD 02RO	1	0	0.52946305275	-191.0	216.0	-188	209	1
2.7	2015_May_27_1737	s	s	15	2	SIC	163	ABS	1	0	02VD 02VO 02VC 02MD 02MO 10MC 02RD 02RO	0	1	3.33044099808	None	None	None	None	1
2.7	2015_May_27_1737	s	s	15	2	SIC	164	ABS	1	1	02VD 02VO 02VC 02MD 10MO 02MC 02RD 02RO	0	1	4.04839396477	None	None	None	None	1
2.7	2015_May_27_1737	s	s	15	2	SIC	165	RC	1	1	02VD 02VO 02VC 02MD 09MO 02MC 02RD 02RO	1	0	2.20041203499	283.0	-282.0	287	-283	1
2.7	2015_May_27_1737	s	s	15	2	SIC	166	RC	0	2	02VD 02VO 02VC 02MD 02MO 02MC 09RD 02RO	1	0	0.976391077042	158.0	34.0	159	33	1
2.7	2015_May_27_1737	s	s	15	2	SIC	167	RC	2	2	09VD 02VO 02VC 02MD 02MO 02MC 02RD 02RO	1	0	0.640382051468	-321.0	118.0	-316	109	1
2.7	2015_May_27_1737	s	s	15	2	SIC	168	RC	1	2	02VD 02VO 02VC 09MD 02MO 02MC 02RD 02RO	1	0	0.630041122437	-341.0	144.0	-334	146	1
2.7	2015_May_27_1737	s	s	15	2	SIC	169	RC	2	1	02VD 09VO 02VC 02MD 02MO 02MC 02RD 02RO	1	0	3.14218211174	534.0	-137.0	526	-137	1
2.7	2015_May_27_1737	s	s	15	2	SIC	170	ABS	2	1	02VD 10VO 02VC 02MD 02MO 02MC 02RD 02RO	0	1	1.96133589745	None	None	None	None	1
2.7	2015_May_27_1737	s	s	15	2	SIC	171	RC	0	1	02VD 02VO 02VC 02MD 02MO 02MC 02RD 09RO	1	0	1.61199784279	485.0	232.0	478	236	1
2.7	2015_May_27_1737	s	s	15	2	SIC	172	ABS	1	2	02VD 02VO 02VC 10MD 02MO 02MC 02RD 02RO	1	0	0.599662065506	None	None	29	324	0
2.7	2015_May_27_1737	s	s	15	2	SIC	173	ABS	0	1	02VD 02VO 02VC 02MD 02MO 02MC 02RD 10RO	0	1	3.92835497856	None	None	None	None	1
2.7	2015_May_27_1737	s	s	15	2	SIC	174	ABS	2	0	02VD 02VO 10VC 02MD 02MO 02MC 02RD 02RO	0	1	2.29159092903	None	None	None	None	1
2.7	2015_May_27_1737	s	s	15	2	SIC	175	RC	1	0	02VD 02VO 02VC 02MD 02MO 09MC 02RD 02RO	1	0	3.13722896576	-368.0	113.0	-373	109	1
2.7	2015_May_27_1737	s	s	15	2	SIC	176	ABS	2	2	10VD 02VO 02VC 02MD 02MO 02MC 02RD 02RO	0	1	2.55359792709	None	None	None	None	1
2.7	2015_May_27_1737	s	s	15	2	SIC	177	RC	1	0	02VD 02VO 02VC 02MD 02MO 09MC 02RD 02RO	1	0	1.02929711342	-71.0	-67.0	-73	-76	1
2.7	2015_May_27_1737	s	s	15	2	SIC	178	RC	2	1	02VD 09VO 02VC 02MD 02MO 02MC 02RD 02RO	1	0	1.46546292305	38.0	116.0	43	123	1
2.7	2015_May_27_1737	s	s	15	2	SIC	179	RC	0	2	02VD 02VO 02VC 02MD 02MO 02MC 09RD 02RO	1	0	0.705449104309	-363.0	217.0	-351	219	1
2.7	2015_May_27_1737	s	s	15	2	SIC	180	ABS	0	2	02VD 02VO 02VC 02MD 02MO 02MC 10RD 02RO	0	1	2.47118186951	None	None	None	None	1
2.7	2015_May_27_1737	s	s	15	2	SIC	181	ABS	1	1	02VD 02VO 02VC 02MD 10MO 02MC 02RD 02RO	0	1	2.78895902634	None	None	None	None	1
2.7	2015_May_27_1737	s	s	15	2	SIC	182	RC	2	0	02VD 02VO 09VC 02MD 02MO 02MC 02RD 02RO	1	0	2.52261400223	429.0	-341.0	436	-340	1
2.7	2015_May_27_1737	s	s	15	2	SIC	183	RC	2	2	09VD 02VO 02VC 02MD 02MO 02MC 02RD 02RO	1	0	1.38829612732	-289.0	0.0	-293	3	1
2.7	2015_May_27_1737	s	s	15	2	SIC	184	ABS	1	2	02VD 02VO 02VC 10MD 02MO 02MC 02RD 02RO	0	1	2.60051703453	None	None	None	None	1
2.7	2015_May_27_1737	s	s	15	2	SIC	185	RC	0	1	02VD 02VO 02VC 02MD 02MO 02MC 02RD 09RO	1	0	1.0352139473	-438.0	231.0	-435	234	1
2.7	2015_May_27_1737	s	s	15	2	SIC	186	ABS	0	1	02VD 02VO 02VC 02MD 02MO 02MC 02RD 10RO	0	1	3.96660399437	None	None	None	None	1
2.7	2015_May_27_1737	s	s	15	2	SIC	187	ABS	1	0	02VD 02VO 02VC 02MD 02MO 10MC 02RD 02RO	0	1	2.67118406296	None	None	None	None	1
2.7	2015_May_27_1737	s	s	15	2	SIC	188	ABS	2	1	02VD 10VO 02VC 02MD 02MO 02MC 02RD 02RO	0	1	2.15967679024	None	None	None	None	1
2.7	2015_May_27_1737	s	s	15	2	SIC	189	ABS	2	0	02VD 02VO 10VC 02MD 02MO 02MC 02RD 02RO	0	1	1.80005502701	None	None	None	None	1
2.7	2015_May_27_1737	s	s	15	2	SIC	190	ABS	2	2	10VD 02VO 02VC 02MD 02MO 02MC 02RD 02RO	0	1	1.94154000282	None	None	None	None	1
2.7	2015_May_27_1737	s	s	15	2	SIC	191	RC	1	2	02VD 02VO 02VC 09MD 02MO 02MC 02RD 02RO	1	0	1.5260579586	322.0	-184.0	319	-184	1
2.7	2015_May_27_1737	s	s	15	2	SIC	192	RC	1	1	02VD 02VO 02VC 02MD 09MO 02MC 02RD 02RO	1	0	0.973114013672	-315.0	88.0	-319	92	1
2.7	2015_May_27_1737	s	s	15	2	SIC	193	RC	1	0	02VD 02VO 02VC 02MD 02MO 09MC 02RD 02RO	0	1	1.69414901733	-453.0	373.0	None	None	0
2.7	2015_May_27_1737	s	s	15	2	SIC	194	ABS	2	1	02VD 10VO 02VC 02MD 02MO 02MC 02RD 02RO	0	1	1.99551701546	None	None	None	None	1
2.7	2015_May_27_1737	s	s	15	2	SIC	195	ABS	0	2	02VD 02VO 02VC 02MD 02MO 02MC 10RD 02RO	0	1	2.61279988289	None	None	None	None	1
2.7	2015_May_27_1737	s	s	15	2	SIC	196	RC	2	0	02VD 02VO 09VC 02MD 02MO 02MC 02RD 02RO	1	0	1.14711308479	249.0	-131.0	254	-125	1
2.7	2015_May_27_1737	s	s	15	2	SIC	197	ABS	1	1	02VD 02VO 02VC 02MD 10MO 02MC 02RD 02RO	0	1	2.46554088593	None	None	None	None	1
2.7	2015_May_27_1737	s	s	15	2	SIC	198	ABS	1	0	02VD 02VO 02VC 02MD 02MO 10MC 02RD 02RO	0	1	2.73684000969	None	None	None	None	1
2.7	2015_May_27_1737	s	s	15	2	SIC	199	RC	1	1	02VD 02VO 02VC 02MD 09MO 02MC 02RD 02RO	1	0	2.25403213501	307.0	-399.0	307	-402	1
2.7	2015_May_27_1737	s	s	15	2	SIC	200	ABS	2	2	10VD 02VO 02VC 02MD 02MO 02MC 02RD 02RO	1	0	2.7537651062	None	None	-178	-267	0
2.7	2015_May_27_1737	s	s	15	2	SIC	201	RC	0	2	02VD 02VO 02VC 02MD 02MO 02MC 09RD 02RO	1	0	1.51305794716	-501.0	299.0	-500	303	1
2.7	2015_May_27_1737	s	s	15	2	SIC	202	RC	1	2	02VD 02VO 02VC 09MD 02MO 02MC 02RD 02RO	1	0	1.23142886162	23.0	41.0	21	35	1
2.7	2015_May_27_1737	s	s	15	2	SIC	203	RC	0	1	02VD 02VO 02VC 02MD 02MO 02MC 02RD 09RO	1	0	2.78403806686	303.0	-205.0	303	-200	1
2.7	2015_May_27_1737	s	s	15	2	SIC	204	RC	2	1	02VD 09VO 02VC 02MD 02MO 02MC 02RD 02RO	1	0	1.22356009483	302.0	365.0	299	367	1
2.7	2015_May_27_1737	s	s	15	2	SIC	205	ABS	1	2	02VD 02VO 02VC 10MD 02MO 02MC 02RD 02RO	0	1	0.618075847626	None	None	None	None	1
2.7	2015_May_27_1737	s	s	15	2	SIC	206	RC	2	2	09VD 02VO 02VC 02MD 02MO 02MC 02RD 02RO	1	0	0.982475996017	-93.0	-225.0	-89	-218	1
2.7	2015_May_27_1737	s	s	15	2	SIC	207	ABS	2	0	02VD 02VO 10VC 02MD 02MO 02MC 02RD 02RO	0	1	1.90039205551	None	None	None	None	1
2.7	2015_May_27_1737	s	s	15	2	SIC	208	ABS	0	1	02VD 02VO 02VC 02MD 02MO 02MC 02RD 10RO	0	1	3.45729589462	None	None	None	None	1
2.7	2015_May_27_1737	s	s	15	2	SIC	209	RC	0	1	02VD 02VO 02VC 02MD 02MO 02MC 02RD 09RO	1	0	4.37264585495	-246.0	-223.0	-244	-232	1
2.7	2015_May_27_1737	s	s	15	2	SIC	210	ABS	2	1	02VD 10VO 02VC 02MD 02MO 02MC 02RD 02RO	0	1	2.15116214752	None	None	None	None	1
2.7	2015_May_27_1737	s	s	15	2	SIC	211	ABS	0	2	02VD 02VO 02VC 02MD 02MO 02MC 10RD 02RO	0	1	2.19544291496	None	None	None	None	1
2.7	2015_May_27_1737	s	s	15	2	SIC	212	ABS	1	2	02VD 02VO 02VC 10MD 02MO 02MC 02RD 02RO	0	1	2.1534280777	None	None	None	None	1
2.7	2015_May_27_1737	s	s	15	2	SIC	213	RC	1	2	02VD 02VO 02VC 09MD 02MO 02MC 02RD 02RO	0	1	2.20036077499	339.0	-200.0	None	None	0
2.7	2015_May_27_1737	s	s	15	2	SIC	214	ABS	2	0	02VD 02VO 10VC 02MD 02MO 02MC 02RD 02RO	0	1	2.18864679337	None	None	None	None	1
2.7	2015_May_27_1737	s	s	15	2	SIC	215	RC	2	1	02VD 09VO 02VC 02MD 02MO 02MC 02RD 02RO	1	0	0.858674049377	299.0	-45.0	308	-41	1
2.7	2015_May_27_1737	s	s	15	2	SIC	216	ABS	2	2	10VD 02VO 02VC 02MD 02MO 02MC 02RD 02RO	0	1	1.74818491936	None	None	None	None	1
2.7	2015_May_27_1737	s	s	15	2	SIC	217	RC	2	0	02VD 02VO 09VC 02MD 02MO 02MC 02RD 02RO	1	0	0.631019115448	-103.0	240.0	-102	246	1
2.7	2015_May_27_1737	s	s	15	2	SIC	218	ABS	0	1	02VD 02VO 02VC 02MD 02MO 02MC 02RD 10RO	0	1	3.11266088486	None	None	None	None	1
2.7	2015_May_27_1737	s	s	15	2	SIC	219	RC	1	0	02VD 02VO 02VC 02MD 02MO 09MC 02RD 02RO	1	0	0.853620052338	326.0	-50.0	324	-50	1
2.7	2015_May_27_1737	s	s	15	2	SIC	220	ABS	1	0	02VD 02VO 02VC 02MD 02MO 10MC 02RD 02RO	0	1	0.300737857819	None	None	None	None	1
2.7	2015_May_27_1737	s	s	15	2	SIC	221	RC	1	1	02VD 02VO 02VC 02MD 09MO 02MC 02RD 02RO	1	0	0.582490921021	16.0	329.0	-23	5	0
2.7	2015_May_27_1737	s	s	15	2	SIC	222	RC	2	2	09VD 02VO 02VC 02MD 02MO 02MC 02RD 02RO	1	0	1.45306396484	-530.0	-353.0	-530	-357	1
2.7	2015_May_27_1737	s	s	15	2	SIC	223	ABS	1	1	02VD 02VO 02VC 02MD 10MO 02MC 02RD 02RO	0	1	3.31922292709	None	None	None	None	1
2.7	2015_May_27_1737	s	s	15	2	SIC	224	RC	0	2	02VD 02VO 02VC 02MD 02MO 02MC 09RD 02RO	1	0	1.16110801697	-164.0	-350.0	-159	-345	1
2.7	2015_May_27_1737	s	s	15	2	SIC	225	RC	2	1	02VD 09VO 02VC 02MD 02MO 02MC 02RD 02RO	1	0	0.831146001816	142.0	35.0	144	29	1
2.7	2015_May_27_1737	s	s	15	2	SIC	226	ABS	1	1	02VD 02VO 02VC 02MD 10MO 02MC 02RD 02RO	0	1	2.66534495354	None	None	None	None	1
2.7	2015_May_27_1737	s	s	15	2	SIC	227	ABS	1	2	02VD 02VO 02VC 10MD 02MO 02MC 02RD 02RO	0	1	3.5539829731	None	None	None	None	1
2.7	2015_May_27_1737	s	s	15	2	SIC	228	ABS	0	1	02VD 02VO 02VC 02MD 02MO 02MC 02RD 10RO	0	1	3.84826016426	None	None	None	None	1
2.7	2015_May_27_1737	s	s	15	2	SIC	229	RC	1	0	02VD 02VO 02VC 02MD 02MO 09MC 02RD 02RO	0	1	4.31384801865	340.0	-259.0	None	None	0
2.7	2015_May_27_1737	s	s	15	2	SIC	230	RC	0	2	02VD 02VO 02VC 02MD 02MO 02MC 09RD 02RO	1	0	0.947077989578	130.0	-120.0	131	-119	1
2.7	2015_May_27_1737	s	s	15	2	SIC	231	RC	2	0	02VD 02VO 09VC 02MD 02MO 02MC 02RD 02RO	1	0	0.994475126266	352.0	156.0	349	161	1
2.7	2015_May_27_1737	s	s	15	2	SIC	232	RC	2	2	09VD 02VO 02VC 02MD 02MO 02MC 02RD 02RO	1	0	0.658582925797	-223.0	397.0	-222	398	1
2.7	2015_May_27_1737	s	s	15	2	SIC	233	ABS	2	1	02VD 10VO 02VC 02MD 02MO 02MC 02RD 02RO	0	1	3.27758097649	None	None	None	None	1
2.7	2015_May_27_1737	s	s	15	2	SIC	234	ABS	1	0	02VD 02VO 02VC 02MD 02MO 10MC 02RD 02RO	0	1	3.74902105331	None	None	None	None	1
2.7	2015_May_27_1737	s	s	15	2	SIC	235	ABS	0	2	02VD 02VO 02VC 02MD 02MO 02MC 10RD 02RO	0	1	3.48357510567	None	None	None	None	1
2.7	2015_May_27_1737	s	s	15	2	SIC	236	RC	1	1	02VD 02VO 02VC 02MD 09MO 02MC 02RD 02RO	1	0	0.686083078384	-76.0	26.0	-86	25	1
2.7	2015_May_27_1737	s	s	15	2	SIC	237	RC	1	2	02VD 02VO 02VC 09MD 02MO 02MC 02RD 02RO	0	1	3.26875090599	313.0	-371.0	None	None	0
2.7	2015_May_27_1737	s	s	15	2	SIC	238	RC	0	1	02VD 02VO 02VC 02MD 02MO 02MC 02RD 09RO	1	0	2.89497590065	-275.0	-16.0	-276	-22	1
2.7	2015_May_27_1737	s	s	15	2	SIC	239	ABS	2	2	10VD 02VO 02VC 02MD 02MO 02MC 02RD 02RO	0	1	2.47968411446	None	None	None	None	1
2.7	2015_May_27_1737	s	s	15	2	SIC	240	ABS	2	0	02VD 02VO 10VC 02MD 02MO 02MC 02RD 02RO	0	1	2.353536129	None	None	None	None	1
2.7	2015_May_27_1737	s	s	15	2	SIC	241	ABS	2	0	02VD 02VO 10VC 02MD 02MO 02MC 02RD 02RO	0	1	1.80928993225	None	None	None	None	1
2.7	2015_May_27_1737	s	s	15	2	SIC	242	ABS	2	1	02VD 10VO 02VC 02MD 02MO 02MC 02RD 02RO	0	1	2.72492599487	None	None	None	None	1
2.7	2015_May_27_1737	s	s	15	2	SIC	243	RC	0	2	02VD 02VO 02VC 02MD 02MO 02MC 09RD 02RO	1	0	1.97682785988	-446.0	-384.0	-446	-381	1
2.7	2015_May_27_1737	s	s	15	2	SIC	244	RC	2	2	09VD 02VO 02VC 02MD 02MO 02MC 02RD 02RO	0	1	1.77198886871	354.0	403.0	None	None	0
2.7	2015_May_27_1737	s	s	15	2	SIC	245	RC	2	1	02VD 09VO 02VC 02MD 02MO 02MC 02RD 02RO	1	0	1.99476504326	-490.0	-10.0	-498	-5	1
2.7	2015_May_27_1737	s	s	15	2	SIC	246	RC	1	2	02VD 02VO 02VC 09MD 02MO 02MC 02RD 02RO	1	0	1.47646689415	172.0	-230.0	165	-235	1
2.7	2015_May_27_1737	s	s	15	2	SIC	247	ABS	0	2	02VD 02VO 02VC 02MD 02MO 02MC 10RD 02RO	0	1	2.59650087357	None	None	None	None	1
2.7	2015_May_27_1737	s	s	15	2	SIC	248	RC	1	1	02VD 02VO 02VC 02MD 09MO 02MC 02RD 02RO	1	0	1.91245388985	-491.0	-152.0	-486	-158	1
2.7	2015_May_27_1737	s	s	15	2	SIC	249	RC	2	0	02VD 02VO 09VC 02MD 02MO 02MC 02RD 02RO	1	0	1.54914712906	330.0	253.0	338	249	1
2.7	2015_May_27_1737	s	s	15	2	SIC	250	ABS	1	2	02VD 02VO 02VC 10MD 02MO 02MC 02RD 02RO	0	1	3.15023708344	None	None	None	None	1
2.7	2015_May_27_1737	s	s	15	2	SIC	251	ABS	0	1	02VD 02VO 02VC 02MD 02MO 02MC 02RD 10RO	0	1	3.36571788788	None	None	None	None	1
2.7	2015_May_27_1737	s	s	15	2	SIC	252	ABS	1	1	02VD 02VO 02VC 02MD 10MO 02MC 02RD 02RO	0	1	3.22459888458	None	None	None	None	1
2.7	2015_May_27_1737	s	s	15	2	SIC	253	RC	1	0	02VD 02VO 02VC 02MD 02MO 09MC 02RD 02RO	1	0	1.27065896988	46.0	-77.0	47	-76	1
2.7	2015_May_27_1737	s	s	15	2	SIC	254	ABS	2	2	10VD 02VO 02VC 02MD 02MO 02MC 02RD 02RO	0	1	3.07773900032	None	None	None	None	1
2.7	2015_May_27_1737	s	s	15	2	SIC	255	RC	0	1	02VD 02VO 02VC 02MD 02MO 02MC 02RD 09RO	1	0	2.48969817162	431.0	-328.0	435	-329	1
2.7	2015_May_27_1737	s	s	15	2	SIC	256	ABS	1	0	02VD 02VO 02VC 02MD 02MO 10MC 02RD 02RO	0	1	3.60957098007	None	None	None	None	1
2.7	2015_May_27_1737	s	s	15	2	SIC	257	ABS	2	0	02VD 02VO 10VC 02MD 02MO 02MC 02RD 02RO	0	1	2.45929694176	None	None	None	None	1
2.7	2015_May_27_1737	s	s	15	2	SIC	258	RC	1	0	02VD 02VO 02VC 02MD 02MO 09MC 02RD 02RO	1	0	2.83601593971	-103.0	104.0	-109	102	1
2.7	2015_May_27_1737	s	s	15	2	SIC	259	ABS	1	0	02VD 02VO 02VC 02MD 02MO 10MC 02RD 02RO	0	1	2.56906795502	None	None	None	None	1
2.7	2015_May_27_1737	s	s	15	2	SIC	260	ABS	1	2	02VD 02VO 02VC 10MD 02MO 02MC 02RD 02RO	0	1	2.16520500183	None	None	None	None	1
2.7	2015_May_27_1737	s	s	15	2	SIC	261	RC	1	2	02VD 02VO 02VC 09MD 02MO 02MC 02RD 02RO	1	0	1.31447410583	101.0	-361.0	110	-362	1
2.7	2015_May_27_1737	s	s	15	2	SIC	262	ABS	1	1	02VD 02VO 02VC 02MD 10MO 02MC 02RD 02RO	0	1	2.9512090683	None	None	None	None	1
2.7	2015_May_27_1737	s	s	15	2	SIC	263	RC	0	2	02VD 02VO 02VC 02MD 02MO 02MC 09RD 02RO	1	0	0.952798843384	294.0	118.0	285	120	1
2.7	2015_May_27_1737	s	s	15	2	SIC	264	ABS	2	2	10VD 02VO 02VC 02MD 02MO 02MC 02RD 02RO	0	1	2.98632502556	None	None	None	None	1
2.7	2015_May_27_1737	s	s	15	2	SIC	265	ABS	2	1	02VD 10VO 02VC 02MD 02MO 02MC 02RD 02RO	0	1	2.73020887375	None	None	None	None	1
2.7	2015_May_27_1737	s	s	15	2	SIC	266	RC	2	0	02VD 02VO 09VC 02MD 02MO 02MC 02RD 02RO	1	0	0.911878824234	-72.0	-30.0	-72	-38	1
2.7	2015_May_27_1737	s	s	15	2	SIC	267	RC	1	1	02VD 02VO 02VC 02MD 09MO 02MC 02RD 02RO	1	0	2.13668107986	30.0	-316.0	29	-308	1
2.7	2015_May_27_1737	s	s	15	2	SIC	268	ABS	0	1	02VD 02VO 02VC 02MD 02MO 02MC 02RD 10RO	0	1	3.856965065	None	None	None	None	1
2.7	2015_May_27_1737	s	s	15	2	SIC	269	RC	2	2	09VD 02VO 02VC 02MD 02MO 02MC 02RD 02RO	1	0	0.587857961655	124.0	159.0	122	165	1
2.7	2015_May_27_1737	s	s	15	2	SIC	270	RC	2	1	02VD 09VO 02VC 02MD 02MO 02MC 02RD 02RO	1	0	0.607361078262	73.0	95.0	75	96	1
2.7	2015_May_27_1737	s	s	15	2	SIC	271	ABS	0	2	02VD 02VO 02VC 02MD 02MO 02MC 10RD 02RO	0	1	3.87190699577	None	None	None	None	1
2.7	2015_May_27_1737	s	s	15	2	SIC	272	RC	0	1	02VD 02VO 02VC 02MD 02MO 02MC 02RD 09RO	1	0	4.54930615425	-474.0	154.0	-483	155	1
2.7	2015_May_27_1737	s	s	15	2	SIC	273	ABS	0	1	02VD 02VO 02VC 02MD 02MO 02MC 02RD 10RO	0	1	4.14305090904	None	None	None	None	1
2.7	2015_May_27_1737	s	s	15	2	SIC	274	ABS	1	1	02VD 02VO 02VC 02MD 10MO 02MC 02RD 02RO	0	1	3.47170686722	None	None	None	None	1
2.7	2015_May_27_1737	s	s	15	2	SIC	275	RC	1	1	02VD 02VO 02VC 02MD 09MO 02MC 02RD 02RO	1	0	1.76136088371	34.0	387.0	34	392	1
2.7	2015_May_27_1737	s	s	15	2	SIC	276	RC	2	1	02VD 09VO 02VC 02MD 02MO 02MC 02RD 02RO	1	0	1.61195588112	-481.0	-139.0	-480	-135	1
2.7	2015_May_27_1737	s	s	15	2	SIC	277	RC	0	2	02VD 02VO 02VC 02MD 02MO 02MC 09RD 02RO	1	0	1.40009689331	-209.0	-57.0	-209	-61	1
2.7	2015_May_27_1737	s	s	15	2	SIC	278	RC	0	1	02VD 02VO 02VC 02MD 02MO 02MC 02RD 09RO	1	0	3.92734098434	-118.0	-135.0	-110	-134	1
2.7	2015_May_27_1737	s	s	15	2	SIC	279	RC	2	0	02VD 02VO 09VC 02MD 02MO 02MC 02RD 02RO	1	0	0.935971021652	61.0	-10.0	67	-13	1
2.7	2015_May_27_1737	s	s	15	2	SIC	280	ABS	2	1	02VD 10VO 02VC 02MD 02MO 02MC 02RD 02RO	0	1	2.7620651722	None	None	None	None	1
2.7	2015_May_27_1737	s	s	15	2	SIC	281	RC	1	0	02VD 02VO 02VC 02MD 02MO 09MC 02RD 02RO	1	0	2.05917191505	-324.0	-264.0	-318	-264	1
2.7	2015_May_27_1737	s	s	15	2	SIC	282	ABS	1	2	02VD 02VO 02VC 10MD 02MO 02MC 02RD 02RO	0	1	1.95315790176	None	None	None	None	1
2.7	2015_May_27_1737	s	s	15	2	SIC	283	ABS	2	2	10VD 02VO 02VC 02MD 02MO 02MC 02RD 02RO	0	1	1.88269591331	None	None	None	None	1
2.7	2015_May_27_1737	s	s	15	2	SIC	284	ABS	2	0	02VD 02VO 10VC 02MD 02MO 02MC 02RD 02RO	0	1	2.45681786537	None	None	None	None	1
2.7	2015_May_27_1737	s	s	15	2	SIC	285	ABS	1	0	02VD 02VO 02VC 02MD 02MO 10MC 02RD 02RO	0	1	4.29091119766	None	None	None	None	1
2.7	2015_May_27_1737	s	s	15	2	SIC	286	RC	1	2	02VD 02VO 02VC 09MD 02MO 02MC 02RD 02RO	1	0	1.67087721825	-357.0	-237.0	-348	-237	1
2.7	2015_May_27_1737	s	s	15	2	SIC	287	RC	2	2	09VD 02VO 02VC 02MD 02MO 02MC 02RD 02RO	1	0	1.69431304932	-443.0	20.0	-435	21	1
2.7	2015_May_27_1737	s	s	15	2	SIC	288	ABS	0	2	02VD 02VO 02VC 02MD 02MO 02MC 10RD 02RO	0	1	2.49459409714	None	None	None	None	1
2.7	2015_May_27_1737	s	s	15	2	SIC	289	ABS	1	1	02VD 02VO 02VC 02MD 10MO 02MC 02RD 02RO	0	1	2.82427215576	None	None	None	None	1
2.7	2015_May_27_1737	s	s	15	2	SIC	290	RC	1	2	02VD 02VO 02VC 09MD 02MO 02MC 02RD 02RO	1	0	1.89483308792	387.0	314.0	388	310	1
2.7	2015_May_27_1737	s	s	15	2	SIC	291	RC	1	1	02VD 02VO 02VC 02MD 09MO 02MC 02RD 02RO	1	0	1.55955290794	-145.0	-301.0	-148	-297	1
2.7	2015_May_27_1737	s	s	15	2	SIC	292	ABS	1	2	02VD 02VO 02VC 10MD 02MO 02MC 02RD 02RO	0	1	2.83225297928	None	None	None	None	1
2.7	2015_May_27_1737	s	s	15	2	SIC	293	RC	1	0	02VD 02VO 02VC 02MD 02MO 09MC 02RD 02RO	1	0	2.45469594002	489.0	-292.0	488	-295	1
2.7	2015_May_27_1737	s	s	15	2	SIC	294	RC	2	0	02VD 02VO 09VC 02MD 02MO 02MC 02RD 02RO	1	0	0.808547019958	41.0	137.0	32	141	1
2.7	2015_May_27_1737	s	s	15	2	SIC	295	ABS	1	0	02VD 02VO 02VC 02MD 02MO 10MC 02RD 02RO	0	1	3.29543089867	None	None	None	None	1
2.7	2015_May_27_1737	s	s	15	2	SIC	296	ABS	2	2	10VD 02VO 02VC 02MD 02MO 02MC 02RD 02RO	0	1	2.33449602127	None	None	None	None	1
2.7	2015_May_27_1737	s	s	15	2	SIC	297	RC	0	1	02VD 02VO 02VC 02MD 02MO 02MC 02RD 09RO	1	0	1.0590159893	-96.0	313.0	-92	318	1
2.7	2015_May_27_1737	s	s	15	2	SIC	298	ABS	2	1	02VD 10VO 02VC 02MD 02MO 02MC 02RD 02RO	0	1	2.89492797852	None	None	None	None	1
2.7	2015_May_27_1737	s	s	15	2	SIC	299	RC	2	1	02VD 09VO 02VC 02MD 02MO 02MC 02RD 02RO	1	0	1.9233379364	-221.0	-373.0	-224	-374	1
2.7	2015_May_27_1737	s	s	15	2	SIC	300	ABS	0	1	02VD 02VO 02VC 02MD 02MO 02MC 02RD 10RO	0	1	3.65251803398	None	None	None	None	1
2.7	2015_May_27_1737	s	s	15	2	SIC	301	RC	0	2	02VD 02VO 02VC 02MD 02MO 02MC 09RD 02RO	1	0	1.31765389442	119.0	-328.0	130	-328	1
2.7	2015_May_27_1737	s	s	15	2	SIC	302	ABS	2	0	02VD 02VO 10VC 02MD 02MO 02MC 02RD 02RO	0	1	2.18868494034	None	None	None	None	1
2.7	2015_May_27_1737	s	s	15	2	SIC	303	RC	2	2	09VD 02VO 02VC 02MD 02MO 02MC 02RD 02RO	1	0	0.748867034912	-13.0	251.0	-10	246	1
2.7	2015_May_27_1737	s	s	15	2	SIC	304	ABS	0	2	02VD 02VO 02VC 02MD 02MO 02MC 10RD 02RO	0	1	3.13440704346	None	None	None	None	1
2.7	2015_May_27_1737	s	s	15	2	SIC	305	RC	0	1	02VD 02VO 02VC 02MD 02MO 02MC 02RD 09RO	1	0	2.58888411522	-387.0	-93.0	-386	-95	1
2.7	2015_May_27_1737	s	s	15	2	SIC	306	RC	2	1	02VD 09VO 02VC 02MD 02MO 02MC 02RD 02RO	1	0	0.585160017014	-158.0	185.0	-156	179	1
2.7	2015_May_27_1737	s	s	15	2	SIC	307	RC	0	2	02VD 02VO 02VC 02MD 02MO 02MC 09RD 02RO	1	0	0.999912977219	207.0	165.0	208	156	1
2.7	2015_May_27_1737	s	s	15	2	SIC	308	RC	2	2	09VD 02VO 02VC 02MD 02MO 02MC 02RD 02RO	1	0	0.576109170914	167.0	-14.0	168	-17	1
2.7	2015_May_27_1737	s	s	15	2	SIC	309	ABS	1	1	02VD 02VO 02VC 02MD 10MO 02MC 02RD 02RO	0	1	2.5146510601	None	None	None	None	1
2.7	2015_May_27_1737	s	s	15	2	SIC	310	RC	1	0	02VD 02VO 02VC 02MD 02MO 09MC 02RD 02RO	1	0	1.13862395287	-127.0	-102.0	-127	-99	1
2.7	2015_May_27_1737	s	s	15	2	SIC	311	RC	2	0	02VD 02VO 09VC 02MD 02MO 02MC 02RD 02RO	1	0	0.653578042984	-262.0	31.0	-257	22	1
2.7	2015_May_27_1737	s	s	15	2	SIC	312	ABS	1	2	02VD 02VO 02VC 10MD 02MO 02MC 02RD 02RO	0	1	1.68922495842	None	None	None	None	1
2.7	2015_May_27_1737	s	s	15	2	SIC	313	ABS	2	2	10VD 02VO 02VC 02MD 02MO 02MC 02RD 02RO	0	1	3.0084540844	None	None	None	None	1
2.7	2015_May_27_1737	s	s	15	2	SIC	314	RC	1	1	02VD 02VO 02VC 02MD 09MO 02MC 02RD 02RO	1	0	3.23345303535	-327.0	262.0	-326	263	1
2.7	2015_May_27_1737	s	s	15	2	SIC	315	RC	1	2	02VD 02VO 02VC 09MD 02MO 02MC 02RD 02RO	1	0	1.16484284401	67.0	170.0	74	164	1
2.7	2015_May_27_1737	s	s	15	2	SIC	316	ABS	1	0	02VD 02VO 02VC 02MD 02MO 10MC 02RD 02RO	0	1	2.16021990776	None	None	None	None	1
2.7	2015_May_27_1737	s	s	15	2	SIC	317	ABS	0	1	02VD 02VO 02VC 02MD 02MO 02MC 02RD 10RO	0	1	4.49577212334	None	None	None	None	1
2.7	2015_May_27_1737	s	s	15	2	SIC	318	ABS	2	0	02VD 02VO 10VC 02MD 02MO 02MC 02RD 02RO	0	1	2.1477458477	None	None	None	None	1
2.7	2015_May_27_1737	s	s	15	2	SIC	319	ABS	2	1	02VD 10VO 02VC 02MD 02MO 02MC 02RD 02RO	0	1	1.7178478241	None	None	None	None	1
2.7	2015_May_27_1737	s	s	15	2	SIC	320	ABS	0	2	02VD 02VO 02VC 02MD 02MO 02MC 10RD 02RO	0	1	1.85918188095	None	None	None	None	1
2.7	2015_May_27_1737	s	s	15	2	SIC	321	ABS	0	1	02VD 02VO 02VC 02MD 02MO 02MC 02RD 10RO	0	1	5.03164505959	None	None	None	None	1
2.7	2015_May_27_1737	s	s	15	2	SIC	322	ABS	1	1	02VD 02VO 02VC 02MD 10MO 02MC 02RD 02RO	0	1	3.99863290787	None	None	None	None	1
2.7	2015_May_27_1737	s	s	15	2	SIC	323	RC	0	1	02VD 02VO 02VC 02MD 02MO 02MC 02RD 09RO	1	0	0.917460918427	75.0	45.0	69	37	1
2.7	2015_May_27_1737	s	s	15	2	SIC	324	RC	1	2	02VD 02VO 02VC 09MD 02MO 02MC 02RD 02RO	1	0	0.853790044785	349.0	-145.0	352	-146	1
2.7	2015_May_27_1737	s	s	15	2	SIC	325	RC	0	2	02VD 02VO 02VC 02MD 02MO 02MC 09RD 02RO	1	0	1.8911960125	-467.0	-272.0	-472	-271	1
2.7	2015_May_27_1737	s	s	15	2	SIC	326	ABS	1	2	02VD 02VO 02VC 10MD 02MO 02MC 02RD 02RO	0	1	1.9857981205	None	None	None	None	1
2.7	2015_May_27_1737	s	s	15	2	SIC	327	ABS	2	0	02VD 02VO 10VC 02MD 02MO 02MC 02RD 02RO	0	1	2.10619902611	None	None	None	None	1
2.7	2015_May_27_1737	s	s	15	2	SIC	328	ABS	1	0	02VD 02VO 02VC 02MD 02MO 10MC 02RD 02RO	0	1	3.21275496483	None	None	None	None	1
2.7	2015_May_27_1737	s	s	15	2	SIC	329	ABS	2	1	02VD 10VO 02VC 02MD 02MO 02MC 02RD 02RO	0	1	2.48275494576	None	None	None	None	1
2.7	2015_May_27_1737	s	s	15	2	SIC	330	RC	2	1	02VD 09VO 02VC 02MD 02MO 02MC 02RD 02RO	1	0	1.49991297722	497.0	214.0	497	210	1
2.7	2015_May_27_1737	s	s	15	2	SIC	331	RC	1	0	02VD 02VO 02VC 02MD 02MO 09MC 02RD 02RO	1	0	1.18806385994	-146.0	280.0	-152	275	1
2.7	2015_May_27_1737	s	s	15	2	SIC	332	RC	2	2	09VD 02VO 02VC 02MD 02MO 02MC 02RD 02RO	1	0	0.729103088379	414.0	223.0	412	224	1
2.7	2015_May_27_1737	s	s	15	2	SIC	333	ABS	2	2	10VD 02VO 02VC 02MD 02MO 02MC 02RD 02RO	0	1	2.46634602547	None	None	None	None	1
2.7	2015_May_27_1737	s	s	15	2	SIC	334	ABS	0	2	02VD 02VO 02VC 02MD 02MO 02MC 10RD 02RO	0	1	2.99812793732	None	None	None	None	1
2.7	2015_May_27_1737	s	s	15	2	SIC	335	RC	1	1	02VD 02VO 02VC 02MD 09MO 02MC 02RD 02RO	1	0	1.12334799767	527.0	172.0	532	168	1
2.7	2015_May_27_1737	s	s	15	2	SIC	336	RC	2	0	02VD 02VO 09VC 02MD 02MO 02MC 02RD 02RO	1	0	0.623193979263	32.0	272.0	35	273	1
2.7	2015_May_27_1737	s	s	15	2	SIC	337	ABS	0	1	02VD 02VO 02VC 02MD 02MO 02MC 02RD 10RO	0	1	3.58381509781	None	None	None	None	1
2.7	2015_May_27_1737	s	s	15	2	SIC	338	RC	0	1	02VD 02VO 02VC 02MD 02MO 02MC 02RD 09RO	1	0	0.94764995575	-227.0	135.0	-233	134	1
2.7	2015_May_27_1737	s	s	15	2	SIC	339	RC	2	1	02VD 09VO 02VC 02MD 02MO 02MC 02RD 02RO	1	0	1.7766931057	-490.0	143.0	-486	140	1
2.7	2015_May_27_1737	s	s	15	2	SIC	340	RC	1	1	02VD 02VO 02VC 02MD 09MO 02MC 02RD 02RO	1	0	0.8549451828	-523.0	95.0	-521	100	1
2.7	2015_May_27_1737	s	s	15	2	SIC	341	ABS	1	0	02VD 02VO 02VC 02MD 02MO 10MC 02RD 02RO	0	1	3.11047482491	None	None	None	None	1
2.7	2015_May_27_1737	s	s	15	2	SIC	342	ABS	2	0	02VD 02VO 10VC 02MD 02MO 02MC 02RD 02RO	0	1	2.86798715591	None	None	None	None	1
2.7	2015_May_27_1737	s	s	15	2	SIC	343	ABS	1	1	02VD 02VO 02VC 02MD 10MO 02MC 02RD 02RO	0	1	3.93792200089	None	None	None	None	1
2.7	2015_May_27_1737	s	s	15	2	SIC	344	ABS	0	2	02VD 02VO 02VC 02MD 02MO 02MC 10RD 02RO	0	1	4.00507807732	None	None	None	None	1
2.7	2015_May_27_1737	s	s	15	2	SIC	345	RC	2	2	09VD 02VO 02VC 02MD 02MO 02MC 02RD 02RO	1	0	1.18822193146	510.0	123.0	508	123	1
2.7	2015_May_27_1737	s	s	15	2	SIC	346	ABS	2	2	10VD 02VO 02VC 02MD 02MO 02MC 02RD 02RO	0	1	2.48931694031	None	None	None	None	1
2.7	2015_May_27_1737	s	s	15	2	SIC	347	ABS	2	1	02VD 10VO 02VC 02MD 02MO 02MC 02RD 02RO	0	1	2.39565706253	None	None	None	None	1
2.7	2015_May_27_1737	s	s	15	2	SIC	348	RC	0	2	02VD 02VO 02VC 02MD 02MO 02MC 09RD 02RO	1	0	1.61865592003	-47.0	286.0	-40	286	1
2.7	2015_May_27_1737	s	s	15	2	SIC	349	RC	1	2	02VD 02VO 02VC 09MD 02MO 02MC 02RD 02RO	1	0	1.07969093323	127.0	-24.0	120	-24	1
2.7	2015_May_27_1737	s	s	15	2	SIC	350	RC	2	0	02VD 02VO 09VC 02MD 02MO 02MC 02RD 02RO	1	0	0.782949924469	-325.0	364.0	-323	370	1
2.7	2015_May_27_1737	s	s	15	2	SIC	351	ABS	1	2	02VD 02VO 02VC 10MD 02MO 02MC 02RD 02RO	0	1	2.48970890045	None	None	None	None	1
2.7	2015_May_27_1737	s	s	15	2	SIC	352	RC	1	0	02VD 02VO 02VC 02MD 02MO 09MC 02RD 02RO	1	0	2.69481492043	-432.0	-80.0	-426	-76	1
2.7	2015_May_27_1737	s	s	15	2	SIC	353	RC	2	1	02VD 09VO 02VC 02MD 02MO 02MC 02RD 02RO	1	0	3.11369490623	-390.0	-309.0	-392	-311	1
2.7	2015_May_27_1737	s	s	15	2	SIC	354	ABS	2	2	10VD 02VO 02VC 02MD 02MO 02MC 02RD 02RO	0	1	2.35002017021	None	None	None	None	1
2.7	2015_May_27_1737	s	s	15	2	SIC	355	RC	1	0	02VD 02VO 02VC 02MD 02MO 09MC 02RD 02RO	1	0	1.20945215225	189.0	-227.0	188	-227	1
2.7	2015_May_27_1737	s	s	15	2	SIC	356	ABS	0	2	02VD 02VO 02VC 02MD 02MO 02MC 10RD 02RO	0	1	2.90667200089	None	None	None	None	1
2.7	2015_May_27_1737	s	s	15	2	SIC	357	RC	1	2	02VD 02VO 02VC 09MD 02MO 02MC 02RD 02RO	1	0	2.65588283539	-46.0	355.0	-47	346	1
2.7	2015_May_27_1737	s	s	15	2	SIC	358	RC	2	0	02VD 02VO 09VC 02MD 02MO 02MC 02RD 02RO	1	0	2.1239528656	-165.0	-383.0	-156	-385	1
2.7	2015_May_27_1737	s	s	15	2	SIC	359	ABS	1	2	02VD 02VO 02VC 10MD 02MO 02MC 02RD 02RO	0	1	2.99633097649	None	None	None	None	1
2.7	2015_May_27_1737	s	s	15	2	SIC	360	RC	0	1	02VD 02VO 02VC 02MD 02MO 02MC 02RD 09RO	1	0	2.23225712776	328.0	349.0	331	354	1
2.7	2015_May_27_1737	s	s	15	2	SIC	361	RC	1	1	02VD 02VO 02VC 02MD 09MO 02MC 02RD 02RO	0	1	3.05432701111	10.0	10.0	None	None	0
2.7	2015_May_27_1737	s	s	15	2	SIC	362	ABS	2	0	02VD 02VO 10VC 02MD 02MO 02MC 02RD 02RO	0	1	3.2192800045	None	None	None	None	1
2.7	2015_May_27_1737	s	s	15	2	SIC	363	ABS	2	1	02VD 10VO 02VC 02MD 02MO 02MC 02RD 02RO	0	1	3.18950200081	None	None	None	None	1
2.7	2015_May_27_1737	s	s	15	2	SIC	364	ABS	1	1	02VD 02VO 02VC 02MD 10MO 02MC 02RD 02RO	0	1	3.25247597694	None	None	None	None	1
2.7	2015_May_27_1737	s	s	15	2	SIC	365	RC	2	2	09VD 02VO 02VC 02MD 02MO 02MC 02RD 02RO	1	0	0.941005945206	-25.0	-53.0	-28	-60	1
2.7	2015_May_27_1737	s	s	15	2	SIC	366	ABS	1	0	02VD 02VO 02VC 02MD 02MO 10MC 02RD 02RO	0	1	3.62096309662	None	None	None	None	1
2.7	2015_May_27_1737	s	s	15	2	SIC	367	RC	0	2	02VD 02VO 02VC 02MD 02MO 02MC 09RD 02RO	1	0	0.70284485817	185.0	106.0	185	102	1
2.7	2015_May_27_1737	s	s	15	2	SIC	368	ABS	0	1	02VD 02VO 02VC 02MD 02MO 02MC 02RD 10RO	0	1	4.36629199982	None	None	None	None	1
2.7	2015_May_27_1737	s	s	15	2	SIC	369	ABS	2	0	02VD 02VO 10VC 02MD 02MO 02MC 02RD 02RO	0	1	2.32673692703	None	None	None	None	1
2.7	2015_May_27_1737	s	s	15	2	SIC	370	RC	1	2	02VD 02VO 02VC 09MD 02MO 02MC 02RD 02RO	1	0	1.24191308022	171.0	-18.0	163	-15	1
2.7	2015_May_27_1737	s	s	15	2	SIC	371	ABS	1	2	02VD 02VO 02VC 10MD 02MO 02MC 02RD 02RO	0	1	3.02433419228	None	None	None	None	1
2.7	2015_May_27_1737	s	s	15	2	SIC	372	ABS	2	1	02VD 10VO 02VC 02MD 02MO 02MC 02RD 02RO	0	1	2.96318411827	None	None	None	None	1
2.7	2015_May_27_1737	s	s	15	2	SIC	373	ABS	0	2	02VD 02VO 02VC 02MD 02MO 02MC 10RD 02RO	0	1	2.80094194412	None	None	None	None	1
2.7	2015_May_27_1737	s	s	15	2	SIC	374	ABS	1	0	02VD 02VO 02VC 02MD 02MO 10MC 02RD 02RO	0	1	3.30335092545	None	None	None	None	1
2.7	2015_May_27_1737	s	s	15	2	SIC	375	RC	0	1	02VD 02VO 02VC 02MD 02MO 02MC 02RD 09RO	1	0	2.18859195709	134.0	-184.0	139	-189	1
2.7	2015_May_27_1737	s	s	15	2	SIC	376	RC	2	1	02VD 09VO 02VC 02MD 02MO 02MC 02RD 02RO	1	0	2.76122808456	525.0	-347.0	519	-346	1
2.7	2015_May_27_1737	s	s	15	2	SIC	377	ABS	1	1	02VD 02VO 02VC 02MD 10MO 02MC 02RD 02RO	0	1	3.77757501602	None	None	None	None	1
2.7	2015_May_27_1737	s	s	15	2	SIC	378	RC	0	2	02VD 02VO 02VC 02MD 02MO 02MC 09RD 02RO	1	0	0.787930965424	129.0	102.0	135	103	1
2.7	2015_May_27_1737	s	s	15	2	SIC	379	ABS	0	1	02VD 02VO 02VC 02MD 02MO 02MC 02RD 10RO	0	1	6.08474612236	None	None	None	None	1
2.7	2015_May_27_1737	s	s	15	2	SIC	380	ABS	2	2	10VD 02VO 02VC 02MD 02MO 02MC 02RD 02RO	0	1	2.71505498886	None	None	None	None	1
2.7	2015_May_27_1737	s	s	15	2	SIC	381	RC	2	0	02VD 02VO 09VC 02MD 02MO 02MC 02RD 02RO	1	0	1.93861699104	268.0	-314.0	260	-317	1
2.7	2015_May_27_1737	s	s	15	2	SIC	382	RC	1	1	02VD 02VO 02VC 02MD 09MO 02MC 02RD 02RO	1	0	0.984195947647	166.0	-402.0	156	-404	1
2.7	2015_May_27_1737	s	s	15	2	SIC	383	RC	2	2	09VD 02VO 02VC 02MD 02MO 02MC 02RD 02RO	1	0	1.92335295677	28.0	-279.0	22	-283	1
2.7	2015_May_27_1737	s	s	15	2	SIC	384	RC	1	0	02VD 02VO 02VC 02MD 02MO 09MC 02RD 02RO	1	0	0.841681003571	206.0	63.0	208	63	1
2.7	2015_May_27_1737	s	s	15	2	SIC	385	ABS	2	0	02VD 02VO 10VC 02MD 02MO 02MC 02RD 02RO	0	1	2.31829094887	None	None	None	None	1
2.7	2015_May_27_1737	s	s	15	2	SIC	386	RC	1	1	02VD 02VO 02VC 02MD 09MO 02MC 02RD 02RO	1	0	2.69222521782	-471.0	82.0	-458	89	1
2.7	2015_May_27_1737	s	s	15	2	SIC	387	ABS	2	1	02VD 10VO 02VC 02MD 02MO 02MC 02RD 02RO	0	1	3.27833509445	None	None	None	None	1
2.7	2015_May_27_1737	s	s	15	2	SIC	388	RC	0	2	02VD 02VO 02VC 02MD 02MO 02MC 09RD 02RO	1	0	0.890522956848	345.0	117.0	344	125	1
2.7	2015_May_27_1737	s	s	15	2	SIC	389	RC	2	0	02VD 02VO 09VC 02MD 02MO 02MC 02RD 02RO	1	0	1.24697399139	265.0	-208.0	262	-208	1
2.7	2015_May_27_1737	s	s	15	2	SIC	390	ABS	2	2	10VD 02VO 02VC 02MD 02MO 02MC 02RD 02RO	0	1	3.48351311684	None	None	None	None	1
2.7	2015_May_27_1737	s	s	15	2	SIC	391	RC	2	1	02VD 09VO 02VC 02MD 02MO 02MC 02RD 02RO	1	0	1.30594491959	-316.0	138.0	-309	139	1
2.7	2015_May_27_1737	s	s	15	2	SIC	392	RC	1	0	02VD 02VO 02VC 02MD 02MO 09MC 02RD 02RO	1	0	0.8585460186	83.0	-75.0	89	-68	1
2.7	2015_May_27_1737	s	s	15	2	SIC	393	ABS	1	0	02VD 02VO 02VC 02MD 02MO 10MC 02RD 02RO	0	1	3.50165915489	None	None	None	None	1
2.7	2015_May_27_1737	s	s	15	2	SIC	394	ABS	0	1	02VD 02VO 02VC 02MD 02MO 02MC 02RD 10RO	0	1	4.23355388641	None	None	None	None	1
2.7	2015_May_27_1737	s	s	15	2	SIC	395	ABS	1	1	02VD 02VO 02VC 02MD 10MO 02MC 02RD 02RO	0	1	3.27522706985	None	None	None	None	1
2.7	2015_May_27_1737	s	s	15	2	SIC	396	ABS	0	2	02VD 02VO 02VC 02MD 02MO 02MC 10RD 02RO	0	1	3.04549503326	None	None	None	None	1
2.7	2015_May_27_1737	s	s	15	2	SIC	397	ABS	1	2	02VD 02VO 02VC 10MD 02MO 02MC 02RD 02RO	0	1	1.75032711029	None	None	None	None	1
2.7	2015_May_27_1737	s	s	15	2	SIC	398	RC	0	1	02VD 02VO 02VC 02MD 02MO 02MC 02RD 09RO	1	0	3.7482779026	-132.0	-127.0	-132	-126	1
2.7	2015_May_27_1737	s	s	15	2	SIC	399	RC	1	2	02VD 02VO 02VC 09MD 02MO 02MC 02RD 02RO	1	0	0.560616970062	76.0	277.0	84	279	1
2.7	2015_May_27_1737	s	s	15	2	SIC	400	RC	2	2	09VD 02VO 02VC 02MD 02MO 02MC 02RD 02RO	1	0	1.71356511116	131.0	-351.0	134	-358	1
2.7	2015_May_27_1737	s	s	15	2	SIC	401	RC	2	0	02VD 02VO 09VC 02MD 02MO 02MC 02RD 02RO	1	0	1.19491195679	-125.0	100.0	-117	105	1
2.7	2015_May_27_1737	s	s	15	2	SIC	402	ABS	2	1	02VD 10VO 02VC 02MD 02MO 02MC 02RD 02RO	0	1	2.05647206306	None	None	None	None	1
2.7	2015_May_27_1737	s	s	15	2	SIC	403	RC	2	1	02VD 09VO 02VC 02MD 02MO 02MC 02RD 02RO	1	0	0.912386894226	256.0	-211.0	270	-206	1
2.7	2015_May_27_1737	s	s	15	2	SIC	404	ABS	1	2	02VD 02VO 02VC 10MD 02MO 02MC 02RD 02RO	0	1	2.14837312698	None	None	None	None	1
2.7	2015_May_27_1737	s	s	15	2	SIC	405	RC	1	0	02VD 02VO 02VC 02MD 02MO 09MC 02RD 02RO	1	0	1.03005385399	132.0	-244.0	134	-243	1
2.7	2015_May_27_1737	s	s	15	2	SIC	406	ABS	2	2	10VD 02VO 02VC 02MD 02MO 02MC 02RD 02RO	0	1	2.5859940052	None	None	None	None	1
2.7	2015_May_27_1737	s	s	15	2	SIC	407	RC	0	2	02VD 02VO 02VC 02MD 02MO 02MC 09RD 02RO	1	0	2.67954492569	-483.0	371.0	-481	369	1
2.7	2015_May_27_1737	s	s	15	2	SIC	408	RC	2	2	09VD 02VO 02VC 02MD 02MO 02MC 02RD 02RO	1	0	1.22402906418	139.0	-162.0	140	-167	1
2.7	2015_May_27_1737	s	s	15	2	SIC	409	RC	1	1	02VD 02VO 02VC 02MD 09MO 02MC 02RD 02RO	1	0	2.04170298576	423.0	-181.0	427	-178	1
2.7	2015_May_27_1737	s	s	15	2	SIC	410	ABS	1	0	02VD 02VO 02VC 02MD 02MO 10MC 02RD 02RO	0	1	3.31357717514	None	None	None	None	1
2.7	2015_May_27_1737	s	s	15	2	SIC	411	ABS	0	1	02VD 02VO 02VC 02MD 02MO 02MC 02RD 10RO	0	1	4.04463195801	None	None	None	None	1
2.7	2015_May_27_1737	s	s	15	2	SIC	412	ABS	0	2	02VD 02VO 02VC 02MD 02MO 02MC 10RD 02RO	0	1	3.09265708923	None	None	None	None	1
2.7	2015_May_27_1737	s	s	15	2	SIC	413	ABS	1	1	02VD 02VO 02VC 02MD 10MO 02MC 02RD 02RO	0	1	3.25980114937	None	None	None	None	1
2.7	2015_May_27_1737	s	s	15	2	SIC	414	RC	0	1	02VD 02VO 02VC 02MD 02MO 02MC 02RD 09RO	1	0	2.64776182175	-211.0	146.0	-219	148	1
2.7	2015_May_27_1737	s	s	15	2	SIC	415	ABS	2	0	02VD 02VO 10VC 02MD 02MO 02MC 02RD 02RO	0	1	2.96049284935	None	None	None	None	1
2.7	2015_May_27_1737	s	s	15	2	SIC	416	RC	1	2	02VD 02VO 02VC 09MD 02MO 02MC 02RD 02RO	1	0	0.823440074921	24.0	3.0	22	-5	1
2.7	2015_May_27_1737	s	s	15	2	SIC	417	ABS	1	0	02VD 02VO 02VC 02MD 02MO 10MC 02RD 02RO	0	1	4.53098106384	None	None	None	None	1
2.7	2015_May_27_1737	s	s	15	2	SIC	418	ABS	0	1	02VD 02VO 02VC 02MD 02MO 02MC 02RD 10RO	0	1	4.34627389908	None	None	None	None	1
2.7	2015_May_27_1737	s	s	15	2	SIC	419	RC	0	2	02VD 02VO 02VC 02MD 02MO 02MC 09RD 02RO	1	0	2.96153402328	-530.0	-390.0	-524	-392	1
2.7	2015_May_27_1737	s	s	15	2	SIC	420	RC	1	0	02VD 02VO 02VC 02MD 02MO 09MC 02RD 02RO	1	0	0.976336956024	502.0	199.0	498	187	1
2.7	2015_May_27_1737	s	s	15	2	SIC	421	RC	2	2	09VD 02VO 02VC 02MD 02MO 02MC 02RD 02RO	1	0	2.1978700161	-359.0	-257.0	-363	-257	1
2.7	2015_May_27_1737	s	s	15	2	SIC	422	ABS	0	2	02VD 02VO 02VC 02MD 02MO 02MC 10RD 02RO	0	1	3.38368988037	None	None	None	None	1
2.7	2015_May_27_1737	s	s	15	2	SIC	423	ABS	1	1	02VD 02VO 02VC 02MD 10MO 02MC 02RD 02RO	0	1	3.79540395737	None	None	None	None	1
2.7	2015_May_27_1737	s	s	15	2	SIC	424	RC	1	1	02VD 02VO 02VC 02MD 09MO 02MC 02RD 02RO	1	0	2.07758593559	-487.0	-207.0	-485	-210	1
2.7	2015_May_27_1737	s	s	15	2	SIC	425	ABS	1	2	02VD 02VO 02VC 10MD 02MO 02MC 02RD 02RO	0	1	2.5182518959	None	None	None	None	1
2.7	2015_May_27_1737	s	s	15	2	SIC	426	ABS	2	0	02VD 02VO 10VC 02MD 02MO 02MC 02RD 02RO	0	1	2.44506692886	None	None	None	None	1
2.7	2015_May_27_1737	s	s	15	2	SIC	427	ABS	2	2	10VD 02VO 02VC 02MD 02MO 02MC 02RD 02RO	0	1	2.91547679901	None	None	None	None	1
2.7	2015_May_27_1737	s	s	15	2	SIC	428	ABS	2	1	02VD 10VO 02VC 02MD 02MO 02MC 02RD 02RO	0	1	2.10136795044	None	None	None	None	1
2.7	2015_May_27_1737	s	s	15	2	SIC	429	RC	2	1	02VD 09VO 02VC 02MD 02MO 02MC 02RD 02RO	1	0	1.40617203712	-486.0	-174.0	-490	-176	1
2.7	2015_May_27_1737	s	s	15	2	SIC	430	RC	2	0	02VD 02VO 09VC 02MD 02MO 02MC 02RD 02RO	1	0	0.983954906464	-270.0	135.0	-276	133	1
2.7	2015_May_27_1737	s	s	15	2	SIC	431	RC	1	2	02VD 02VO 02VC 09MD 02MO 02MC 02RD 02RO	1	0	1.13299608231	252.0	-329.0	258	-331	1
2.7	2015_May_27_1737	s	s	15	2	SIC	432	RC	0	1	02VD 02VO 02VC 02MD 02MO 02MC 02RD 09RO	1	0	3.76237607002	-474.0	-113.0	-467	-106	1
2.7	2015_May_27_1737	s	s	15	2	SIC	433	ABS	2	2	10VD 02VO 02VC 02MD 02MO 02MC 02RD 02RO	0	1	2.87746286392	None	None	None	None	1
2.7	2015_May_27_1737	s	s	15	2	SIC	434	ABS	0	2	02VD 02VO 02VC 02MD 02MO 02MC 10RD 02RO	0	1	3.37217998505	None	None	None	None	1
2.7	2015_May_27_1737	s	s	15	2	SIC	435	ABS	2	1	02VD 10VO 02VC 02MD 02MO 02MC 02RD 02RO	0	1	2.14156103134	None	None	None	None	1
2.7	2015_May_27_1737	s	s	15	2	SIC	436	ABS	1	2	02VD 02VO 02VC 10MD 02MO 02MC 02RD 02RO	0	1	2.40954899788	None	None	None	None	1
2.7	2015_May_27_1737	s	s	15	2	SIC	437	ABS	1	0	02VD 02VO 02VC 02MD 02MO 10MC 02RD 02RO	0	1	4.00150799751	None	None	None	None	1
2.7	2015_May_27_1737	s	s	15	2	SIC	438	ABS	2	0	02VD 02VO 10VC 02MD 02MO 02MC 02RD 02RO	0	1	2.90088701248	None	None	None	None	1
2.7	2015_May_27_1737	s	s	15	2	SIC	439	RC	1	2	02VD 02VO 02VC 09MD 02MO 02MC 02RD 02RO	1	0	1.65300583839	375.0	-109.0	377	-106	1
2.7	2015_May_27_1737	s	s	15	2	SIC	440	RC	1	1	02VD 02VO 02VC 02MD 09MO 02MC 02RD 02RO	1	0	1.25876021385	-167.0	-64.0	-166	-65	1
2.7	2015_May_27_1737	s	s	15	2	SIC	441	RC	1	0	02VD 02VO 02VC 02MD 02MO 09MC 02RD 02RO	1	0	3.16570997238	439.0	-38.0	439	-29	1
2.7	2015_May_27_1737	s	s	15	2	SIC	442	RC	2	0	02VD 02VO 09VC 02MD 02MO 02MC 02RD 02RO	1	0	1.43022012711	-329.0	161.0	-319	169	1
2.7	2015_May_27_1737	s	s	15	2	SIC	443	RC	2	2	09VD 02VO 02VC 02MD 02MO 02MC 02RD 02RO	1	0	1.07960009575	-476.0	-32.0	-489	-23	1
2.7	2015_May_27_1737	s	s	15	2	SIC	444	ABS	1	1	02VD 02VO 02VC 02MD 10MO 02MC 02RD 02RO	0	1	2.53000283241	None	None	None	None	1
2.7	2015_May_27_1737	s	s	15	2	SIC	445	RC	2	1	02VD 09VO 02VC 02MD 02MO 02MC 02RD 02RO	1	0	0.670277833939	-419.0	130.0	-421	129	1
2.7	2015_May_27_1737	s	s	15	2	SIC	446	ABS	0	1	02VD 02VO 02VC 02MD 02MO 02MC 02RD 10RO	0	1	2.83328485489	None	None	None	None	1
2.7	2015_May_27_1737	s	s	15	2	SIC	447	RC	0	1	02VD 02VO 02VC 02MD 02MO 02MC 02RD 09RO	1	0	0.529064893723	53.0	165.0	46	158	1
2.7	2015_May_27_1737	s	s	15	2	SIC	448	RC	0	2	02VD 02VO 02VC 02MD 02MO 02MC 09RD 02RO	1	0	0.481873035431	-92.0	95.0	-92	104	1
2.7	2015_May_27_1737	s	s	15	2	SIC	449	RC	2	0	02VD 02VO 09VC 02MD 02MO 02MC 02RD 02RO	1	0	1.59505915642	524.0	-301.0	524	-301	1
2.7	2015_May_27_1737	s	s	15	2	SIC	450	RC	2	1	02VD 09VO 02VC 02MD 02MO 02MC 02RD 02RO	1	0	0.752604007721	42.0	-110.0	39	-112	1
2.7	2015_May_27_1737	s	s	15	2	SIC	451	ABS	2	1	02VD 10VO 02VC 02MD 02MO 02MC 02RD 02RO	0	1	2.0944070816	None	None	None	None	1
2.7	2015_May_27_1737	s	s	15	2	SIC	452	RC	2	2	09VD 02VO 02VC 02MD 02MO 02MC 02RD 02RO	0	1	2.91853904724	-389.0	372.0	None	None	0
2.7	2015_May_27_1737	s	s	15	2	SIC	453	RC	0	1	02VD 02VO 02VC 02MD 02MO 02MC 02RD 09RO	1	0	2.99486708641	-89.0	-95.0	-77	-94	1
2.7	2015_May_27_1737	s	s	15	2	SIC	454	ABS	1	2	02VD 02VO 02VC 10MD 02MO 02MC 02RD 02RO	0	1	2.44770097733	None	None	None	None	1
2.7	2015_May_27_1737	s	s	15	2	SIC	455	RC	1	2	02VD 02VO 02VC 09MD 02MO 02MC 02RD 02RO	1	0	2.17696809769	-493.0	349.0	-494	357	1
2.7	2015_May_27_1737	s	s	15	2	SIC	456	ABS	2	0	02VD 02VO 10VC 02MD 02MO 02MC 02RD 02RO	0	1	2.54859614372	None	None	None	None	1
2.7	2015_May_27_1737	s	s	15	2	SIC	457	RC	0	2	02VD 02VO 02VC 02MD 02MO 02MC 09RD 02RO	1	0	1.08885097504	-164.0	361.0	-162	358	1
2.7	2015_May_27_1737	s	s	15	2	SIC	458	RC	1	0	02VD 02VO 02VC 02MD 02MO 09MC 02RD 02RO	1	0	2.23258900642	531.0	-275.0	531	-279	1
2.7	2015_May_27_1737	s	s	15	2	SIC	459	ABS	1	0	02VD 02VO 02VC 02MD 02MO 10MC 02RD 02RO	0	1	3.24303889275	None	None	None	None	1
2.7	2015_May_27_1737	s	s	15	2	SIC	460	RC	1	1	02VD 02VO 02VC 02MD 09MO 02MC 02RD 02RO	1	0	0.529186964035	-28.0	254.0	-22	259	1
2.7	2015_May_27_1737	s	s	15	2	SIC	461	ABS	1	1	02VD 02VO 02VC 02MD 10MO 02MC 02RD 02RO	0	1	3.00115418434	None	None	None	None	1
2.7	2015_May_27_1737	s	s	15	2	SIC	462	ABS	0	1	02VD 02VO 02VC 02MD 02MO 02MC 02RD 10RO	0	1	3.60116100311	None	None	None	None	1
2.7	2015_May_27_1737	s	s	15	2	SIC	463	ABS	2	2	10VD 02VO 02VC 02MD 02MO 02MC 02RD 02RO	0	1	1.97668600082	None	None	None	None	1
2.7	2015_May_27_1737	s	s	15	2	SIC	464	ABS	0	2	02VD 02VO 02VC 02MD 02MO 02MC 10RD 02RO	0	1	2.7361779213	None	None	None	None	1
2.7	2015_May_27_1737	s	s	15	2	SIC	465	RC	1	2	02VD 02VO 02VC 09MD 02MO 02MC 02RD 02RO	1	0	1.3646800518	151.0	-60.0	155	-65	1
2.7	2015_May_27_1737	s	s	15	2	SIC	466	RC	2	2	09VD 02VO 02VC 02MD 02MO 02MC 02RD 02RO	0	1	1.4588599205	-73.0	384.0	None	None	0
2.7	2015_May_27_1737	s	s	15	2	SIC	467	RC	0	1	02VD 02VO 02VC 02MD 02MO 02MC 02RD 09RO	1	0	1.78564095497	-376.0	218.0	-381	208	1
2.7	2015_May_27_1737	s	s	15	2	SIC	468	RC	2	1	02VD 09VO 02VC 02MD 02MO 02MC 02RD 02RO	1	0	0.912250995636	195.0	272.0	194	276	1
2.7	2015_May_27_1737	s	s	15	2	SIC	469	ABS	1	2	02VD 02VO 02VC 10MD 02MO 02MC 02RD 02RO	0	1	2.25564289093	None	None	None	None	1
2.7	2015_May_27_1737	s	s	15	2	SIC	470	RC	0	2	02VD 02VO 02VC 02MD 02MO 02MC 09RD 02RO	1	0	0.995185852051	151.0	-60.0	148	-64	1
2.7	2015_May_27_1737	s	s	15	2	SIC	471	ABS	1	1	02VD 02VO 02VC 02MD 10MO 02MC 02RD 02RO	0	1	3.15384411812	None	None	None	None	1
2.7	2015_May_27_1737	s	s	15	2	SIC	472	RC	1	1	02VD 02VO 02VC 02MD 09MO 02MC 02RD 02RO	1	0	1.85897994041	-489.0	-293.0	-497	-295	1
2.7	2015_May_27_1737	s	s	15	2	SIC	473	ABS	1	0	02VD 02VO 02VC 02MD 02MO 10MC 02RD 02RO	0	1	2.68308019638	None	None	None	None	1
2.7	2015_May_27_1737	s	s	15	2	SIC	474	ABS	0	2	02VD 02VO 02VC 02MD 02MO 02MC 10RD 02RO	0	1	2.49481606483	None	None	None	None	1
2.7	2015_May_27_1737	s	s	15	2	SIC	475	ABS	0	1	02VD 02VO 02VC 02MD 02MO 02MC 02RD 10RO	0	1	3.35759282112	None	None	None	None	1
2.7	2015_May_27_1737	s	s	15	2	SIC	476	ABS	2	2	10VD 02VO 02VC 02MD 02MO 02MC 02RD 02RO	0	1	2.10709118843	None	None	None	None	1
2.7	2015_May_27_1737	s	s	15	2	SIC	477	ABS	2	1	02VD 10VO 02VC 02MD 02MO 02MC 02RD 02RO	0	1	3.2539331913	None	None	None	None	1
2.7	2015_May_27_1737	s	s	15	2	SIC	478	RC	1	0	02VD 02VO 02VC 02MD 02MO 09MC 02RD 02RO	1	0	0.964549064636	-374.0	224.0	-380	216	1
2.7	2015_May_27_1737	s	s	15	2	SIC	479	ABS	2	0	02VD 02VO 10VC 02MD 02MO 02MC 02RD 02RO	0	1	2.64774894714	None	None	None	None	1
2.7	2015_May_27_1737	s	s	15	2	SIC	480	RC	2	0	02VD 02VO 09VC 02MD 02MO 02MC 02RD 02RO	1	0	2.78408098221	-436.0	-153.0	-427	-152	1
