Version	Date	Stimuli	Method	Subject	Session	Condition	Trial	Target	Channel1	Channel2	Distractors	LMouseButton	RMouseButton	RT	TargetX	TargetY	ResponseX	ResponseY	Correct
2.7	2015_May_30_1554	s	s	15	5	Capacity	1	RC	0	1	08RD 15RO	0	1	3.18584895134	92.0	-47.0	None	None	0
2.7	2015_May_30_1554	s	s	15	5	Capacity	2	ABS	0	2	16RD 08RO	0	1	2.9866309166	None	None	None	None	1
2.7	2015_May_30_1554	s	s	15	5	Capacity	3	RC	0	2	15RD 08RO	1	0	0.846908092499	-374.0	-18.0	-367	-25	1
2.7	2015_May_30_1554	s	s	15	5	Capacity	4	ABS	0	1	08RD 16RO	1	0	3.23193693161	None	None	-36	-94	0
2.7	2015_May_30_1554	s	s	15	5	Capacity	5	ABS	0	2	16RD 08RO	0	1	3.30682301521	None	None	None	None	1
2.7	2015_May_30_1554	s	s	15	5	Capacity	6	RC	0	1	08RD 15RO	1	0	1.27073311806	42.0	-100.0	47	-97	1
2.7	2015_May_30_1554	s	s	15	5	Capacity	7	ABS	0	1	08RD 16RO	1	0	3.86635088921	None	None	-82	-101	0
2.7	2015_May_30_1554	s	s	15	5	Capacity	8	RC	0	2	15RD 08RO	0	1	3.07523798943	319.0	-101.0	None	None	0
2.7	2015_May_30_1554	s	s	15	5	Capacity	9	ABS	0	2	16RD 08RO	0	1	3.77382802963	None	None	None	None	1
2.7	2015_May_30_1554	s	s	15	5	Capacity	10	RC	0	2	15RD 08RO	1	0	1.333507061	-508.0	297.0	-497	301	1
2.7	2015_May_30_1554	s	s	15	5	Capacity	11	RC	0	1	08RD 15RO	1	0	3.48391699791	-254.0	-282.0	-256	-288	1
2.7	2015_May_30_1554	s	s	15	5	Capacity	12	ABS	0	1	08RD 16RO	0	1	4.62523317337	None	None	None	None	1
2.7	2015_May_30_1554	s	s	15	5	Capacity	13	RC	0	2	15RD 08RO	1	0	1.20742487907	462.0	-89.0	456	-92	1
2.7	2015_May_30_1554	s	s	15	5	Capacity	14	ABS	0	1	08RD 16RO	0	1	3.99883699417	None	None	None	None	1
2.7	2015_May_30_1554	s	s	15	5	Capacity	15	ABS	0	2	16RD 08RO	0	1	3.42844700813	None	None	None	None	1
2.7	2015_May_30_1554	s	s	15	5	Capacity	16	RC	0	1	08RD 15RO	1	0	2.16091513634	466.0	-26.0	471	-26	1
2.7	2015_May_30_1554	s	s	15	5	Capacity	17	ABS	0	2	16RD 08RO	0	1	5.82031798363	None	None	None	None	1
2.7	2015_May_30_1554	s	s	15	5	Capacity	18	RC	0	2	15RD 08RO	1	0	1.25410294533	366.0	75.0	364	75	1
2.7	2015_May_30_1554	s	s	15	5	Capacity	19	ABS	0	1	08RD 16RO	0	1	4.01673817635	None	None	None	None	1
2.7	2015_May_30_1554	s	s	15	5	Capacity	20	RC	0	1	08RD 15RO	1	0	4.39824700356	-386.0	386.0	-387	385	1
2.7	2015_May_30_1554	s	s	15	5	Capacity	21	RC	0	2	15RD 08RO	1	0	1.67796182632	68.0	-72.0	75	-72	1
2.7	2015_May_30_1554	s	s	15	5	Capacity	22	ABS	0	2	16RD 08RO	1	0	3.17185997963	None	None	-385	-303	0
2.7	2015_May_30_1554	s	s	15	5	Capacity	23	RC	0	1	08RD 15RO	1	0	2.71212387085	484.0	-277.0	482	-276	1
2.7	2015_May_30_1554	s	s	15	5	Capacity	24	ABS	0	1	08RD 16RO	0	1	4.27831816673	None	None	None	None	1
2.7	2015_May_30_1554	s	s	15	5	Capacity	25	ABS	0	2	16RD 08RO	0	1	3.46622991562	None	None	None	None	1
2.7	2015_May_30_1554	s	s	15	5	Capacity	26	RC	0	2	15RD 08RO	1	0	0.820686101913	-7.0	39.0	-7	43	1
2.7	2015_May_30_1554	s	s	15	5	Capacity	27	ABS	0	1	08RD 16RO	0	1	4.66692614555	None	None	None	None	1
2.7	2015_May_30_1554	s	s	15	5	Capacity	28	RC	0	1	08RD 15RO	1	0	3.14882206917	-422.0	265.0	-429	265	1
2.7	2015_May_30_1554	s	s	15	5	Capacity	29	ABS	0	1	08RD 16RO	0	1	5.21019101143	None	None	None	None	1
2.7	2015_May_30_1554	s	s	15	5	Capacity	30	RC	0	2	15RD 08RO	1	0	1.78852200508	-28.0	-286.0	-26	-290	1
2.7	2015_May_30_1554	s	s	15	5	Capacity	31	RC	0	1	08RD 15RO	1	0	2.69482302666	-507.0	-251.0	-506	-254	1
2.7	2015_May_30_1554	s	s	15	5	Capacity	32	ABS	0	2	16RD 08RO	0	1	6.01418399811	None	None	None	None	1
2.7	2015_May_30_1554	s	s	15	5	Capacity	33	ABS	0	2	16RD 08RO	0	1	4.6203660965	None	None	None	None	1
2.7	2015_May_30_1554	s	s	15	5	Capacity	34	RC	0	2	15RD 08RO	1	0	0.923293828964	-278.0	137.0	-281	133	1
2.7	2015_May_30_1554	s	s	15	5	Capacity	35	ABS	0	1	08RD 16RO	0	1	4.79041600227	None	None	None	None	1
2.7	2015_May_30_1554	s	s	15	5	Capacity	36	RC	0	1	08RD 15RO	1	0	4.58992099762	469.0	394.0	472	396	1
2.7	2015_May_30_1554	s	s	15	5	Capacity	37	RC	0	2	15RD 08RO	1	0	1.21759295464	-129.0	50.0	-127	45	1
2.7	2015_May_30_1554	s	s	15	5	Capacity	38	ABS	0	1	08RD 16RO	0	1	4.54288697243	None	None	None	None	1
2.7	2015_May_30_1554	s	s	15	5	Capacity	39	ABS	0	2	16RD 08RO	0	1	3.66002106667	None	None	None	None	1
2.7	2015_May_30_1554	s	s	15	5	Capacity	40	RC	0	1	08RD 15RO	1	0	0.970617055893	34.0	-139.0	35	-144	1
2.7	2015_May_30_1554	s	s	15	5	Capacity	41	ABS	0	2	16RD 08RO	0	1	3.67192912102	None	None	None	None	1
2.7	2015_May_30_1554	s	s	15	5	Capacity	42	ABS	0	1	08RD 16RO	0	1	7.26987504959	None	None	None	None	1
2.7	2015_May_30_1554	s	s	15	5	Capacity	43	RC	0	2	15RD 08RO	1	0	1.0888671875	172.0	-165.0	165	-156	1
2.7	2015_May_30_1554	s	s	15	5	Capacity	44	RC	0	1	08RD 15RO	1	0	2.11316895485	-477.0	297.0	-478	295	1
2.7	2015_May_30_1554	s	s	15	5	Capacity	45	ABS	0	1	08RD 16RO	0	1	4.77833294868	None	None	None	None	1
2.7	2015_May_30_1554	s	s	15	5	Capacity	46	ABS	0	2	16RD 08RO	0	1	4.08169484138	None	None	None	None	1
2.7	2015_May_30_1554	s	s	15	5	Capacity	47	RC	0	2	15RD 08RO	0	1	5.13124990463	76.0	-108.0	None	None	0
2.7	2015_May_30_1554	s	s	15	5	Capacity	48	RC	0	1	08RD 15RO	1	0	5.76364398003	-460.0	-294.0	-458	-291	1
2.7	2015_May_30_1554	s	s	15	5	Capacity	49	ABS	0	1	08RD 16RO	0	1	4.96659803391	None	None	None	None	1
2.7	2015_May_30_1554	s	s	15	5	Capacity	50	RC	0	1	08RD 15RO	1	0	3.33876490593	-351.0	-267.0	-342	-263	1
2.7	2015_May_30_1554	s	s	15	5	Capacity	51	ABS	0	2	16RD 08RO	0	1	3.5892829895	None	None	None	None	1
2.7	2015_May_30_1554	s	s	15	5	Capacity	52	RC	0	2	15RD 08RO	1	0	1.78836917877	165.0	-342.0	163	-342	1
2.7	2015_May_30_1554	s	s	15	5	Capacity	53	ABS	0	2	16RD 08RO	0	1	4.24587893486	None	None	None	None	1
2.7	2015_May_30_1554	s	s	15	5	Capacity	54	RC	0	1	08RD 15RO	1	0	2.03558516502	-480.0	85.0	-482	90	1
2.7	2015_May_30_1554	s	s	15	5	Capacity	55	ABS	0	1	08RD 16RO	0	1	4.43443799019	None	None	None	None	1
2.7	2015_May_30_1554	s	s	15	5	Capacity	56	RC	0	2	15RD 08RO	1	0	1.23526000977	44.0	-138.0	39	-141	1
2.7	2015_May_30_1554	s	s	15	5	Capacity	57	ABS	0	1	08RD 16RO	0	1	4.231153965	None	None	None	None	1
2.7	2015_May_30_1554	s	s	15	5	Capacity	58	RC	0	1	08RD 15RO	1	0	3.45728302002	59.0	-121.0	54	-122	1
2.7	2015_May_30_1554	s	s	15	5	Capacity	59	RC	0	2	15RD 08RO	1	0	1.14102292061	208.0	-287.0	502	92	0
2.7	2015_May_30_1554	s	s	15	5	Capacity	60	ABS	0	2	16RD 08RO	0	1	3.25740504265	None	None	None	None	1
2.7	2015_May_30_1554	s	s	15	5	Capacity	61	RC	0	1	08RD 15RO	1	0	2.0087389946	18.0	-287.0	20	-283	1
2.7	2015_May_30_1554	s	s	15	5	Capacity	62	RC	0	2	15RD 08RO	1	0	1.78851413727	-399.0	-118.0	-393	-110	1
2.7	2015_May_30_1554	s	s	15	5	Capacity	63	ABS	0	2	16RD 08RO	0	1	3.72806596756	None	None	None	None	1
2.7	2015_May_30_1554	s	s	15	5	Capacity	64	ABS	0	1	08RD 16RO	0	1	5.06058096886	None	None	None	None	1
2.7	2015_May_30_1554	s	s	15	5	Capacity	1	ABS	1	0	08VC 16MC	0	1	1.75080418587	None	None	None	None	1
2.7	2015_May_30_1554	s	s	15	5	Capacity	2	RC	2	0	15VC 08MC	1	0	1.13608312607	442.0	63.0	445	65	1
2.7	2015_May_30_1554	s	s	15	5	Capacity	3	RC	1	0	08VC 15MC	1	0	0.607294797897	106.0	108.0	106	103	1
2.7	2015_May_30_1554	s	s	15	5	Capacity	4	ABS	2	0	16VC 08MC	0	1	1.04140496254	None	None	None	None	1
2.7	2015_May_30_1554	s	s	15	5	Capacity	5	RC	1	0	08VC 15MC	1	0	0.905660152435	-499.0	-86.0	-499	-82	1
2.7	2015_May_30_1554	s	s	15	5	Capacity	6	RC	2	0	15VC 08MC	1	0	0.948599100113	-428.0	201.0	-430	192	1
2.7	2015_May_30_1554	s	s	15	5	Capacity	7	ABS	2	0	16VC 08MC	0	1	1.6194050312	None	None	None	None	1
2.7	2015_May_30_1554	s	s	15	5	Capacity	8	ABS	1	0	08VC 16MC	0	1	2.45524501801	None	None	None	None	1
2.7	2015_May_30_1554	s	s	15	5	Capacity	9	ABS	2	0	16VC 08MC	0	1	1.44720602036	None	None	None	None	1
2.7	2015_May_30_1554	s	s	15	5	Capacity	10	RC	2	0	15VC 08MC	1	0	0.79439997673	-154.0	-399.0	-153	-401	1
2.7	2015_May_30_1554	s	s	15	5	Capacity	11	RC	1	0	08VC 15MC	1	0	1.33661198616	493.0	-118.0	494	-122	1
2.7	2015_May_30_1554	s	s	15	5	Capacity	12	ABS	1	0	08VC 16MC	0	1	2.25377702713	None	None	None	None	1
2.7	2015_May_30_1554	s	s	15	5	Capacity	13	ABS	2	0	16VC 08MC	1	0	0.6466319561	None	None	348	-38	0
2.7	2015_May_30_1554	s	s	15	5	Capacity	14	RC	1	0	08VC 15MC	1	0	0.632383108139	103.0	-94.0	106	-97	1
2.7	2015_May_30_1554	s	s	15	5	Capacity	15	RC	2	0	15VC 08MC	1	0	0.641784906387	298.0	-168.0	289	-171	1
2.7	2015_May_30_1554	s	s	15	5	Capacity	16	ABS	1	0	08VC 16MC	0	1	1.71772694588	None	None	None	None	1
2.7	2015_May_30_1554	s	s	15	5	Capacity	17	RC	1	0	08VC 15MC	1	0	0.685784101486	9.0	272.0	8	275	1
2.7	2015_May_30_1554	s	s	15	5	Capacity	18	RC	2	0	15VC 08MC	1	0	0.901009082794	255.0	191.0	249	184	1
2.7	2015_May_30_1554	s	s	15	5	Capacity	19	ABS	2	0	16VC 08MC	0	1	1.57090497017	None	None	None	None	1
2.7	2015_May_30_1554	s	s	15	5	Capacity	20	ABS	1	0	08VC 16MC	0	1	2.84304881096	None	None	None	None	1
2.7	2015_May_30_1554	s	s	15	5	Capacity	21	ABS	1	0	08VC 16MC	0	1	3.31660079956	None	None	None	None	1
2.7	2015_May_30_1554	s	s	15	5	Capacity	22	RC	2	0	15VC 08MC	1	0	1.70364904404	-359.0	-307.0	-362	-309	1
2.7	2015_May_30_1554	s	s	15	5	Capacity	23	RC	1	0	08VC 15MC	1	0	0.776270866394	362.0	286.0	369	290	1
2.7	2015_May_30_1554	s	s	15	5	Capacity	24	ABS	2	0	16VC 08MC	0	1	1.94157505035	None	None	None	None	1
2.7	2015_May_30_1554	s	s	15	5	Capacity	25	ABS	1	0	08VC 16MC	0	1	3.57239794731	None	None	None	None	1
2.7	2015_May_30_1554	s	s	15	5	Capacity	26	RC	1	0	08VC 15MC	1	0	0.693841934204	434.0	-85.0	437	-78	1
2.7	2015_May_30_1554	s	s	15	5	Capacity	27	RC	2	0	15VC 08MC	1	0	0.652106046677	-232.0	168.0	-240	166	1
2.7	2015_May_30_1554	s	s	15	5	Capacity	28	ABS	2	0	16VC 08MC	0	1	2.05679416656	None	None	None	None	1
2.7	2015_May_30_1554	s	s	15	5	Capacity	29	RC	2	0	15VC 08MC	1	0	1.25368404388	-496.0	-11.0	-495	-12	1
2.7	2015_May_30_1554	s	s	15	5	Capacity	30	ABS	2	0	16VC 08MC	0	1	1.99572896957	None	None	None	None	1
2.7	2015_May_30_1554	s	s	15	5	Capacity	31	RC	1	0	08VC 15MC	1	0	1.11781597137	410.0	127.0	402	127	1
2.7	2015_May_30_1554	s	s	15	5	Capacity	32	ABS	1	0	08VC 16MC	0	1	2.55351305008	None	None	None	None	1
2.7	2015_May_30_1554	s	s	15	5	Capacity	33	RC	1	0	08VC 15MC	1	0	2.13469481468	-527.0	296.0	-525	305	1
2.7	2015_May_30_1554	s	s	15	5	Capacity	34	ABS	2	0	16VC 08MC	0	1	1.46538186073	None	None	None	None	1
2.7	2015_May_30_1554	s	s	15	5	Capacity	35	RC	2	0	15VC 08MC	1	0	0.724452018738	-365.0	213.0	-370	214	1
2.7	2015_May_30_1554	s	s	15	5	Capacity	36	ABS	1	0	08VC 16MC	0	1	1.38387799263	None	None	None	None	1
2.7	2015_May_30_1554	s	s	15	5	Capacity	37	RC	2	0	15VC 08MC	1	0	0.552430868149	-15.0	-10.0	-14	-6	1
2.7	2015_May_30_1554	s	s	15	5	Capacity	38	ABS	1	0	08VC 16MC	0	1	2.12432312965	None	None	None	None	1
2.7	2015_May_30_1554	s	s	15	5	Capacity	39	ABS	2	0	16VC 08MC	0	1	1.83216691017	None	None	None	None	1
2.7	2015_May_30_1554	s	s	15	5	Capacity	40	RC	1	0	08VC 15MC	1	0	0.682092905045	-131.0	202.0	-123	198	1
2.7	2015_May_30_1554	s	s	15	5	Capacity	41	RC	2	0	15VC 08MC	1	0	0.667863130569	73.0	199.0	73	191	1
2.7	2015_May_30_1554	s	s	15	5	Capacity	42	ABS	2	0	16VC 08MC	0	1	1.73862409592	None	None	None	None	1
2.7	2015_May_30_1554	s	s	15	5	Capacity	43	ABS	1	0	08VC 16MC	0	1	2.52483987808	None	None	None	None	1
2.7	2015_May_30_1554	s	s	15	5	Capacity	44	RC	1	0	08VC 15MC	1	0	0.623277902603	-358.0	-31.0	-348	-24	1
2.7	2015_May_30_1554	s	s	15	5	Capacity	45	RC	1	0	08VC 15MC	1	0	0.642693996429	51.0	291.0	52	291	1
2.7	2015_May_30_1554	s	s	15	5	Capacity	46	RC	2	0	15VC 08MC	1	0	0.502071857452	-195.0	253.0	-196	250	1
2.7	2015_May_30_1554	s	s	15	5	Capacity	47	ABS	2	0	16VC 08MC	0	1	1.32687902451	None	None	None	None	1
2.7	2015_May_30_1554	s	s	15	5	Capacity	48	ABS	1	0	08VC 16MC	0	1	1.48241496086	None	None	None	None	1
2.7	2015_May_30_1554	s	s	15	5	Capacity	49	ABS	1	0	08VC 16MC	0	1	2.91852903366	None	None	None	None	1
2.7	2015_May_30_1554	s	s	15	5	Capacity	50	RC	1	0	08VC 15MC	1	0	2.23070907593	399.0	-368.0	402	-371	1
2.7	2015_May_30_1554	s	s	15	5	Capacity	51	ABS	2	0	16VC 08MC	0	1	1.64720892906	None	None	None	None	1
2.7	2015_May_30_1554	s	s	15	5	Capacity	52	RC	2	0	15VC 08MC	1	0	0.964609861374	-234.0	-221.0	-229	-221	1
2.7	2015_May_30_1554	s	s	15	5	Capacity	53	ABS	1	0	08VC 16MC	0	1	2.43088197708	None	None	None	None	1
2.7	2015_May_30_1554	s	s	15	5	Capacity	54	RC	2	0	15VC 08MC	1	0	0.489093065262	-32.0	277.0	-32	268	1
2.7	2015_May_30_1554	s	s	15	5	Capacity	55	RC	1	0	08VC 15MC	1	0	0.900451898575	-22.0	55.0	-17	58	1
2.7	2015_May_30_1554	s	s	15	5	Capacity	56	ABS	2	0	16VC 08MC	0	1	1.32436394691	None	None	None	None	1
2.7	2015_May_30_1554	s	s	15	5	Capacity	57	ABS	1	0	08VC 16MC	0	1	3.26016807556	None	None	None	None	1
2.7	2015_May_30_1554	s	s	15	5	Capacity	58	RC	2	0	15VC 08MC	1	0	0.714951038361	285.0	-66.0	288	-71	1
2.7	2015_May_30_1554	s	s	15	5	Capacity	59	ABS	2	0	16VC 08MC	0	1	2.20048308372	None	None	None	None	1
2.7	2015_May_30_1554	s	s	15	5	Capacity	60	RC	1	0	08VC 15MC	1	0	0.949604988098	138.0	-247.0	141	-240	1
2.7	2015_May_30_1554	s	s	15	5	Capacity	61	RC	1	0	08VC 15MC	1	0	0.647208929062	-196.0	408.0	-186	414	1
2.7	2015_May_30_1554	s	s	15	5	Capacity	62	ABS	2	0	16VC 08MC	0	1	1.99688982964	None	None	None	None	1
2.7	2015_May_30_1554	s	s	15	5	Capacity	63	RC	2	0	15VC 08MC	1	0	0.646577119827	-274.0	328.0	-268	331	1
2.7	2015_May_30_1554	s	s	15	5	Capacity	64	ABS	1	0	08VC 16MC	0	1	2.35346293449	None	None	None	None	1
2.7	2015_May_30_1554	s	s	15	5	SIC	1	RC	0	2	02VD 02VO 02VC 02MD 02MO 02MC 09RD 02RO	1	0	1.6186850071	39.0	-201.0	44	-195	1
2.7	2015_May_30_1554	s	s	15	5	SIC	2	ABS	0	1	02VD 02VO 02VC 02MD 02MO 02MC 02RD 10RO	0	1	4.28092193604	None	None	None	None	1
2.7	2015_May_30_1554	s	s	15	5	SIC	3	RC	0	1	02VD 02VO 02VC 02MD 02MO 02MC 02RD 09RO	1	0	2.33909606934	255.0	-327.0	259	-320	1
2.7	2015_May_30_1554	s	s	15	5	SIC	4	RC	1	2	02VD 02VO 02VC 09MD 02MO 02MC 02RD 02RO	1	0	0.70930314064	-289.0	263.0	-284	263	1
2.7	2015_May_30_1554	s	s	15	5	SIC	5	RC	2	0	02VD 02VO 09VC 02MD 02MO 02MC 02RD 02RO	1	0	0.983900785446	190.0	220.0	190	217	1
2.7	2015_May_30_1554	s	s	15	5	SIC	6	ABS	2	1	02VD 10VO 02VC 02MD 02MO 02MC 02RD 02RO	0	1	2.43017888069	None	None	None	None	1
2.7	2015_May_30_1554	s	s	15	5	SIC	7	RC	1	1	02VD 02VO 02VC 02MD 09MO 02MC 02RD 02RO	1	0	0.796274900436	-195.0	-6.0	-192	-8	1
2.7	2015_May_30_1554	s	s	15	5	SIC	8	RC	2	1	02VD 09VO 02VC 02MD 02MO 02MC 02RD 02RO	1	0	1.04695606232	221.0	-36.0	221	-32	1
2.7	2015_May_30_1554	s	s	15	5	SIC	9	RC	1	0	02VD 02VO 02VC 02MD 02MO 09MC 02RD 02RO	1	0	2.37691903114	-439.0	62.0	-438	62	1
2.7	2015_May_30_1554	s	s	15	5	SIC	10	ABS	2	2	10VD 02VO 02VC 02MD 02MO 02MC 02RD 02RO	0	1	4.12826991081	None	None	None	None	1
2.7	2015_May_30_1554	s	s	15	5	SIC	11	ABS	0	2	02VD 02VO 02VC 02MD 02MO 02MC 10RD 02RO	0	1	3.15387797356	None	None	None	None	1
2.7	2015_May_30_1554	s	s	15	5	SIC	12	ABS	1	1	02VD 02VO 02VC 02MD 10MO 02MC 02RD 02RO	0	1	3.65998005867	None	None	None	None	1
2.7	2015_May_30_1554	s	s	15	5	SIC	13	RC	2	2	09VD 02VO 02VC 02MD 02MO 02MC 02RD 02RO	1	0	1.28955411911	503.0	290.0	514	299	1
2.7	2015_May_30_1554	s	s	15	5	SIC	14	ABS	2	0	02VD 02VO 10VC 02MD 02MO 02MC 02RD 02RO	0	1	1.97676992416	None	None	None	None	1
2.7	2015_May_30_1554	s	s	15	5	SIC	15	ABS	1	0	02VD 02VO 02VC 02MD 02MO 10MC 02RD 02RO	0	1	2.43584895134	None	None	None	None	1
2.7	2015_May_30_1554	s	s	15	5	SIC	16	ABS	1	2	02VD 02VO 02VC 10MD 02MO 02MC 02RD 02RO	0	1	1.88935709	None	None	None	None	1
2.7	2015_May_30_1554	s	s	15	5	SIC	17	RC	0	1	02VD 02VO 02VC 02MD 02MO 02MC 02RD 09RO	1	0	1.45895314217	-165.0	-155.0	-168	-152	1
2.7	2015_May_30_1554	s	s	15	5	SIC	18	RC	2	0	02VD 02VO 09VC 02MD 02MO 02MC 02RD 02RO	1	0	0.587872982025	-76.0	228.0	-78	225	1
2.7	2015_May_30_1554	s	s	15	5	SIC	19	ABS	2	2	10VD 02VO 02VC 02MD 02MO 02MC 02RD 02RO	0	1	2.01903009415	None	None	None	None	1
2.7	2015_May_30_1554	s	s	15	5	SIC	20	RC	2	1	02VD 09VO 02VC 02MD 02MO 02MC 02RD 02RO	1	0	0.623198032379	-2.0	305.0	1	302	1
2.7	2015_May_30_1554	s	s	15	5	SIC	21	ABS	2	1	02VD 10VO 02VC 02MD 02MO 02MC 02RD 02RO	0	1	1.92981100082	None	None	None	None	1
2.7	2015_May_30_1554	s	s	15	5	SIC	22	ABS	0	2	02VD 02VO 02VC 02MD 02MO 02MC 10RD 02RO	0	1	2.53005290031	None	None	None	None	1
2.7	2015_May_30_1554	s	s	15	5	SIC	23	ABS	1	2	02VD 02VO 02VC 10MD 02MO 02MC 02RD 02RO	0	1	2.14837312698	None	None	None	None	1
2.7	2015_May_30_1554	s	s	15	5	SIC	24	ABS	1	0	02VD 02VO 02VC 02MD 02MO 10MC 02RD 02RO	0	1	3.80976104736	None	None	None	None	1
2.7	2015_May_30_1554	s	s	15	5	SIC	25	RC	0	2	02VD 02VO 02VC 02MD 02MO 02MC 09RD 02RO	1	0	1.43143081665	-148.0	-167.0	-142	-158	1
2.7	2015_May_30_1554	s	s	15	5	SIC	26	RC	1	0	02VD 02VO 02VC 02MD 02MO 09MC 02RD 02RO	1	0	1.26626586914	-21.0	-82.0	-23	-74	1
2.7	2015_May_30_1554	s	s	15	5	SIC	27	RC	1	2	02VD 02VO 02VC 09MD 02MO 02MC 02RD 02RO	1	0	0.893953084946	223.0	-283.0	228	-277	1
2.7	2015_May_30_1554	s	s	15	5	SIC	28	RC	1	1	02VD 02VO 02VC 02MD 09MO 02MC 02RD 02RO	1	0	1.68630599976	-150.0	-407.0	-146	-404	1
2.7	2015_May_30_1554	s	s	15	5	SIC	29	ABS	2	0	02VD 02VO 10VC 02MD 02MO 02MC 02RD 02RO	0	1	1.28227090836	None	None	None	None	1
2.7	2015_May_30_1554	s	s	15	5	SIC	30	ABS	1	1	02VD 02VO 02VC 02MD 10MO 02MC 02RD 02RO	0	1	1.72477197647	None	None	None	None	1
2.7	2015_May_30_1554	s	s	15	5	SIC	31	ABS	0	1	02VD 02VO 02VC 02MD 02MO 02MC 02RD 10RO	0	1	3.60724687576	None	None	None	None	1
2.7	2015_May_30_1554	s	s	15	5	SIC	32	RC	2	2	09VD 02VO 02VC 02MD 02MO 02MC 02RD 02RO	1	0	0.726620197296	-294.0	239.0	-292	240	1
2.7	2015_May_30_1554	s	s	15	5	SIC	33	RC	1	1	02VD 02VO 02VC 02MD 09MO 02MC 02RD 02RO	1	0	1.51240801811	93.0	-240.0	96	-245	1
2.7	2015_May_30_1554	s	s	15	5	SIC	34	ABS	1	2	02VD 02VO 02VC 10MD 02MO 02MC 02RD 02RO	0	1	2.23575997353	None	None	None	None	1
2.7	2015_May_30_1554	s	s	15	5	SIC	35	RC	2	1	02VD 09VO 02VC 02MD 02MO 02MC 02RD 02RO	1	0	0.915066957474	390.0	-89.0	397	-86	1
2.7	2015_May_30_1554	s	s	15	5	SIC	36	RC	0	1	02VD 02VO 02VC 02MD 02MO 02MC 02RD 09RO	1	0	1.14153599739	322.0	-14.0	326	-13	1
2.7	2015_May_30_1554	s	s	15	5	SIC	37	RC	1	2	02VD 02VO 02VC 09MD 02MO 02MC 02RD 02RO	1	0	1.12923502922	-277.0	-172.0	-273	-167	1
2.7	2015_May_30_1554	s	s	15	5	SIC	38	ABS	0	1	02VD 02VO 02VC 02MD 02MO 02MC 02RD 10RO	0	1	5.44921708107	None	None	None	None	1
2.7	2015_May_30_1554	s	s	15	5	SIC	39	ABS	1	1	02VD 02VO 02VC 02MD 10MO 02MC 02RD 02RO	0	1	3.2951169014	None	None	None	None	1
2.7	2015_May_30_1554	s	s	15	5	SIC	40	ABS	1	0	02VD 02VO 02VC 02MD 02MO 10MC 02RD 02RO	0	1	3.93070197105	None	None	None	None	1
2.7	2015_May_30_1554	s	s	15	5	SIC	41	RC	2	2	09VD 02VO 02VC 02MD 02MO 02MC 02RD 02RO	1	0	1.07879090309	175.0	82.0	185	84	1
2.7	2015_May_30_1554	s	s	15	5	SIC	42	RC	2	0	02VD 02VO 09VC 02MD 02MO 02MC 02RD 02RO	1	0	1.1119351387	131.0	381.0	138	385	1
2.7	2015_May_30_1554	s	s	15	5	SIC	43	ABS	2	2	10VD 02VO 02VC 02MD 02MO 02MC 02RD 02RO	0	1	2.32996201515	None	None	None	None	1
2.7	2015_May_30_1554	s	s	15	5	SIC	44	ABS	2	0	02VD 02VO 10VC 02MD 02MO 02MC 02RD 02RO	0	1	1.71772313118	None	None	None	None	1
2.7	2015_May_30_1554	s	s	15	5	SIC	45	ABS	2	1	02VD 10VO 02VC 02MD 02MO 02MC 02RD 02RO	0	1	1.63536596298	None	None	None	None	1
2.7	2015_May_30_1554	s	s	15	5	SIC	46	ABS	0	2	02VD 02VO 02VC 02MD 02MO 02MC 10RD 02RO	0	1	2.77257990837	None	None	None	None	1
2.7	2015_May_30_1554	s	s	15	5	SIC	47	RC	0	2	02VD 02VO 02VC 02MD 02MO 02MC 09RD 02RO	1	0	0.724066972733	-434.0	376.0	-437	377	1
2.7	2015_May_30_1554	s	s	15	5	SIC	48	RC	1	0	02VD 02VO 02VC 02MD 02MO 09MC 02RD 02RO	1	0	1.49407505989	-314.0	-117.0	-306	-108	1
2.7	2015_May_30_1554	s	s	15	5	SIC	49	ABS	0	1	02VD 02VO 02VC 02MD 02MO 02MC 02RD 10RO	0	1	3.14865398407	None	None	None	None	1
2.7	2015_May_30_1554	s	s	15	5	SIC	50	ABS	2	1	02VD 10VO 02VC 02MD 02MO 02MC 02RD 02RO	0	1	1.72964382172	None	None	None	None	1
2.7	2015_May_30_1554	s	s	15	5	SIC	51	ABS	1	1	02VD 02VO 02VC 02MD 10MO 02MC 02RD 02RO	0	1	3.42477583885	None	None	None	None	1
2.7	2015_May_30_1554	s	s	15	5	SIC	52	ABS	2	2	10VD 02VO 02VC 02MD 02MO 02MC 02RD 02RO	0	1	2.74192786217	None	None	None	None	1
2.7	2015_May_30_1554	s	s	15	5	SIC	53	RC	0	1	02VD 02VO 02VC 02MD 02MO 02MC 02RD 09RO	1	0	1.60922408104	480.0	88.0	479	85	1
2.7	2015_May_30_1554	s	s	15	5	SIC	54	RC	1	0	02VD 02VO 02VC 02MD 02MO 09MC 02RD 02RO	1	0	0.726829051971	-331.0	169.0	-333	165	1
2.7	2015_May_30_1554	s	s	15	5	SIC	55	ABS	1	2	02VD 02VO 02VC 10MD 02MO 02MC 02RD 02RO	0	1	2.98920488358	None	None	None	None	1
2.7	2015_May_30_1554	s	s	15	5	SIC	56	ABS	1	0	02VD 02VO 02VC 02MD 02MO 10MC 02RD 02RO	0	1	2.28972101212	None	None	None	None	1
2.7	2015_May_30_1554	s	s	15	5	SIC	57	RC	0	2	02VD 02VO 02VC 02MD 02MO 02MC 09RD 02RO	1	0	1.08924603462	209.0	-66.0	215	-69	1
2.7	2015_May_30_1554	s	s	15	5	SIC	58	ABS	2	0	02VD 02VO 10VC 02MD 02MO 02MC 02RD 02RO	0	1	1.92733693123	None	None	None	None	1
2.7	2015_May_30_1554	s	s	15	5	SIC	59	RC	1	2	02VD 02VO 02VC 09MD 02MO 02MC 02RD 02RO	1	0	1.14807701111	-245.0	-32.0	-245	-33	1
2.7	2015_May_30_1554	s	s	15	5	SIC	60	RC	2	0	02VD 02VO 09VC 02MD 02MO 02MC 02RD 02RO	1	0	1.50313997269	326.0	-307.0	327	-304	1
2.7	2015_May_30_1554	s	s	15	5	SIC	61	ABS	0	2	02VD 02VO 02VC 02MD 02MO 02MC 10RD 02RO	0	1	2.85964298248	None	None	None	None	1
2.7	2015_May_30_1554	s	s	15	5	SIC	62	RC	2	2	09VD 02VO 02VC 02MD 02MO 02MC 02RD 02RO	1	0	0.843747138977	234.0	411.0	239	413	1
2.7	2015_May_30_1554	s	s	15	5	SIC	63	RC	1	1	02VD 02VO 02VC 02MD 09MO 02MC 02RD 02RO	1	0	1.11767196655	-382.0	18.0	-379	22	1
2.7	2015_May_30_1554	s	s	15	5	SIC	64	RC	2	1	02VD 09VO 02VC 02MD 02MO 02MC 02RD 02RO	1	0	1.90625882149	-223.0	-357.0	-222	-358	1
2.7	2015_May_30_1554	s	s	15	5	SIC	65	ABS	0	1	02VD 02VO 02VC 02MD 02MO 02MC 02RD 10RO	0	1	3.25999307632	None	None	None	None	1
2.7	2015_May_30_1554	s	s	15	5	SIC	66	RC	2	1	02VD 09VO 02VC 02MD 02MO 02MC 02RD 02RO	1	0	1.77655315399	85.0	18.0	98	23	1
2.7	2015_May_30_1554	s	s	15	5	SIC	67	ABS	1	2	02VD 02VO 02VC 10MD 02MO 02MC 02RD 02RO	0	1	2.36027598381	None	None	None	None	1
2.7	2015_May_30_1554	s	s	15	5	SIC	68	ABS	2	2	10VD 02VO 02VC 02MD 02MO 02MC 02RD 02RO	0	1	1.66612887383	None	None	None	None	1
2.7	2015_May_30_1554	s	s	15	5	SIC	69	ABS	1	1	02VD 02VO 02VC 02MD 10MO 02MC 02RD 02RO	0	1	4.08381009102	None	None	None	None	1
2.7	2015_May_30_1554	s	s	15	5	SIC	70	ABS	1	0	02VD 02VO 02VC 02MD 02MO 10MC 02RD 02RO	0	1	3.64838480949	None	None	None	None	1
2.7	2015_May_30_1554	s	s	15	5	SIC	71	RC	1	0	02VD 02VO 02VC 02MD 02MO 09MC 02RD 02RO	1	0	2.51501703262	389.0	-120.0	383	-117	1
2.7	2015_May_30_1554	s	s	15	5	SIC	72	RC	0	2	02VD 02VO 02VC 02MD 02MO 02MC 09RD 02RO	1	0	1.00767612457	-162.0	72.0	-158	70	1
2.7	2015_May_30_1554	s	s	15	5	SIC	73	RC	2	2	09VD 02VO 02VC 02MD 02MO 02MC 02RD 02RO	1	0	1.77681589127	-237.0	-34.0	-231	-38	1
2.7	2015_May_30_1554	s	s	15	5	SIC	74	RC	2	0	02VD 02VO 09VC 02MD 02MO 02MC 02RD 02RO	1	0	1.91806387901	-464.0	-402.0	-472	-406	1
2.7	2015_May_30_1554	s	s	15	5	SIC	75	RC	1	1	02VD 02VO 02VC 02MD 09MO 02MC 02RD 02RO	1	0	0.724892139435	86.0	294.0	86	285	1
2.7	2015_May_30_1554	s	s	15	5	SIC	76	RC	1	2	02VD 02VO 02VC 09MD 02MO 02MC 02RD 02RO	1	0	1.59728813171	219.0	-311.0	222	-306	1
2.7	2015_May_30_1554	s	s	15	5	SIC	77	ABS	2	0	02VD 02VO 10VC 02MD 02MO 02MC 02RD 02RO	0	1	2.31813693047	None	None	None	None	1
2.7	2015_May_30_1554	s	s	15	5	SIC	78	RC	0	1	02VD 02VO 02VC 02MD 02MO 02MC 02RD 09RO	1	0	3.80815291405	469.0	-39.0	470	-39	1
2.7	2015_May_30_1554	s	s	15	5	SIC	79	ABS	0	2	02VD 02VO 02VC 02MD 02MO 02MC 10RD 02RO	0	1	3.26674199104	None	None	None	None	1
2.7	2015_May_30_1554	s	s	15	5	SIC	80	ABS	2	1	02VD 10VO 02VC 02MD 02MO 02MC 02RD 02RO	0	1	3.14213609695	None	None	None	None	1
2.7	2015_May_30_1554	s	s	15	5	SIC	81	ABS	2	0	02VD 02VO 10VC 02MD 02MO 02MC 02RD 02RO	0	1	2.26651191711	None	None	None	None	1
2.7	2015_May_30_1554	s	s	15	5	SIC	82	ABS	2	1	02VD 10VO 02VC 02MD 02MO 02MC 02RD 02RO	0	1	2.63347101212	None	None	None	None	1
2.7	2015_May_30_1554	s	s	15	5	SIC	83	ABS	1	1	02VD 02VO 02VC 02MD 10MO 02MC 02RD 02RO	0	1	3.03137087822	None	None	None	None	1
2.7	2015_May_30_1554	s	s	15	5	SIC	84	RC	1	1	02VD 02VO 02VC 02MD 09MO 02MC 02RD 02RO	1	0	1.19653701782	81.0	396.0	86	399	1
2.7	2015_May_30_1554	s	s	15	5	SIC	85	RC	2	2	09VD 02VO 02VC 02MD 02MO 02MC 02RD 02RO	1	0	0.935701847076	-224.0	273.0	-231	269	1
2.7	2015_May_30_1554	s	s	15	5	SIC	86	RC	0	1	02VD 02VO 02VC 02MD 02MO 02MC 02RD 09RO	1	0	0.98304605484	460.0	275.0	464	274	1
2.7	2015_May_30_1554	s	s	15	5	SIC	87	ABS	2	2	10VD 02VO 02VC 02MD 02MO 02MC 02RD 02RO	0	1	2.21224284172	None	None	None	None	1
2.7	2015_May_30_1554	s	s	15	5	SIC	88	RC	1	2	02VD 02VO 02VC 09MD 02MO 02MC 02RD 02RO	1	0	0.701292037964	48.0	88.0	51	96	1
2.7	2015_May_30_1554	s	s	15	5	SIC	89	RC	1	0	02VD 02VO 02VC 02MD 02MO 09MC 02RD 02RO	1	0	0.976427078247	-57.0	-233.0	-55	-238	1
2.7	2015_May_30_1554	s	s	15	5	SIC	90	RC	2	1	02VD 09VO 02VC 02MD 02MO 02MC 02RD 02RO	1	0	1.24193406105	-191.0	-259.0	-189	-259	1
2.7	2015_May_30_1554	s	s	15	5	SIC	91	ABS	0	1	02VD 02VO 02VC 02MD 02MO 02MC 02RD 10RO	0	1	2.99364995956	None	None	None	None	1
2.7	2015_May_30_1554	s	s	15	5	SIC	92	ABS	0	2	02VD 02VO 02VC 02MD 02MO 02MC 10RD 02RO	0	1	2.33788108826	None	None	None	None	1
2.7	2015_May_30_1554	s	s	15	5	SIC	93	RC	0	2	02VD 02VO 02VC 02MD 02MO 02MC 09RD 02RO	1	0	1.56141281128	509.0	-313.0	509	-314	1
2.7	2015_May_30_1554	s	s	15	5	SIC	94	ABS	1	0	02VD 02VO 02VC 02MD 02MO 10MC 02RD 02RO	0	1	1.80724787712	None	None	None	None	1
2.7	2015_May_30_1554	s	s	15	5	SIC	95	RC	2	0	02VD 02VO 09VC 02MD 02MO 02MC 02RD 02RO	1	0	0.851181030273	274.0	163.0	264	165	1
2.7	2015_May_30_1554	s	s	15	5	SIC	96	ABS	1	2	02VD 02VO 02VC 10MD 02MO 02MC 02RD 02RO	0	1	2.300344944	None	None	None	None	1
2.7	2015_May_30_1554	s	s	15	5	SIC	97	RC	1	0	02VD 02VO 02VC 02MD 02MO 09MC 02RD 02RO	1	0	2.3011238575	391.0	-289.0	384	-280	1
2.7	2015_May_30_1554	s	s	15	5	SIC	98	ABS	2	1	02VD 10VO 02VC 02MD 02MO 02MC 02RD 02RO	0	1	1.79540705681	None	None	None	None	1
2.7	2015_May_30_1554	s	s	15	5	SIC	99	ABS	1	2	02VD 02VO 02VC 10MD 02MO 02MC 02RD 02RO	0	1	2.60707497597	None	None	None	None	1
2.7	2015_May_30_1554	s	s	15	5	SIC	100	ABS	2	2	10VD 02VO 02VC 02MD 02MO 02MC 02RD 02RO	0	1	1.90620112419	None	None	None	None	1
2.7	2015_May_30_1554	s	s	15	5	SIC	101	ABS	2	0	02VD 02VO 10VC 02MD 02MO 02MC 02RD 02RO	0	1	2.28286790848	None	None	None	None	1
2.7	2015_May_30_1554	s	s	15	5	SIC	102	ABS	1	0	02VD 02VO 02VC 02MD 02MO 10MC 02RD 02RO	0	1	2.727602005	None	None	None	None	1
2.7	2015_May_30_1554	s	s	15	5	SIC	103	ABS	0	1	02VD 02VO 02VC 02MD 02MO 02MC 02RD 10RO	0	1	3.51881408691	None	None	None	None	1
2.7	2015_May_30_1554	s	s	15	5	SIC	104	ABS	0	2	02VD 02VO 02VC 02MD 02MO 02MC 10RD 02RO	0	1	2.23579597473	None	None	None	None	1
2.7	2015_May_30_1554	s	s	15	5	SIC	105	RC	1	2	02VD 02VO 02VC 09MD 02MO 02MC 02RD 02RO	1	0	0.723451852798	199.0	349.0	191	353	1
2.7	2015_May_30_1554	s	s	15	5	SIC	106	RC	0	1	02VD 02VO 02VC 02MD 02MO 02MC 02RD 09RO	1	0	0.947836875916	-370.0	302.0	-363	303	1
2.7	2015_May_30_1554	s	s	15	5	SIC	107	RC	2	0	02VD 02VO 09VC 02MD 02MO 02MC 02RD 02RO	1	0	0.512467861176	42.0	298.0	41	305	1
2.7	2015_May_30_1554	s	s	15	5	SIC	108	ABS	1	1	02VD 02VO 02VC 02MD 10MO 02MC 02RD 02RO	1	0	1.87089300156	None	None	465	-204	0
2.7	2015_May_30_1554	s	s	15	5	SIC	109	RC	0	2	02VD 02VO 02VC 02MD 02MO 02MC 09RD 02RO	1	0	1.3980050087	50.0	-242.0	51	-246	1
2.7	2015_May_30_1554	s	s	15	5	SIC	110	RC	1	1	02VD 02VO 02VC 02MD 09MO 02MC 02RD 02RO	1	0	0.92925286293	460.0	-16.0	468	-19	1
2.7	2015_May_30_1554	s	s	15	5	SIC	111	RC	2	1	02VD 09VO 02VC 02MD 02MO 02MC 02RD 02RO	1	0	0.925523042679	341.0	282.0	340	285	1
2.7	2015_May_30_1554	s	s	15	5	SIC	112	RC	2	2	09VD 02VO 02VC 02MD 02MO 02MC 02RD 02RO	1	0	1.17647886276	-229.0	-376.0	-242	-371	1
2.7	2015_May_30_1554	s	s	15	5	SIC	113	RC	1	0	02VD 02VO 02VC 02MD 02MO 09MC 02RD 02RO	1	0	1.63546299934	-331.0	-330.0	-332	-324	1
2.7	2015_May_30_1554	s	s	15	5	SIC	114	RC	0	1	02VD 02VO 02VC 02MD 02MO 02MC 02RD 09RO	1	0	0.558718919754	-263.0	276.0	-266	278	1
2.7	2015_May_30_1554	s	s	15	5	SIC	115	ABS	1	2	02VD 02VO 02VC 10MD 02MO 02MC 02RD 02RO	0	1	1.56486201286	None	None	None	None	1
2.7	2015_May_30_1554	s	s	15	5	SIC	116	RC	2	1	02VD 09VO 02VC 02MD 02MO 02MC 02RD 02RO	1	0	0.634938001633	72.0	298.0	72	297	1
2.7	2015_May_30_1554	s	s	15	5	SIC	117	RC	2	2	09VD 02VO 02VC 02MD 02MO 02MC 02RD 02RO	1	0	0.823307991028	-163.0	196.0	-173	205	1
2.7	2015_May_30_1554	s	s	15	5	SIC	118	RC	1	2	02VD 02VO 02VC 09MD 02MO 02MC 02RD 02RO	1	0	0.976250886917	-319.0	-225.0	-318	-217	1
2.7	2015_May_30_1554	s	s	15	5	SIC	119	ABS	0	1	02VD 02VO 02VC 02MD 02MO 02MC 02RD 10RO	0	1	2.75369095802	None	None	None	None	1
2.7	2015_May_30_1554	s	s	15	5	SIC	120	ABS	0	2	02VD 02VO 02VC 02MD 02MO 02MC 10RD 02RO	0	1	2.55359101295	None	None	None	None	1
2.7	2015_May_30_1554	s	s	15	5	SIC	121	ABS	1	0	02VD 02VO 02VC 02MD 02MO 10MC 02RD 02RO	0	1	3.53057718277	None	None	None	None	1
2.7	2015_May_30_1554	s	s	15	5	SIC	122	ABS	1	1	02VD 02VO 02VC 02MD 10MO 02MC 02RD 02RO	0	1	2.32990217209	None	None	None	None	1
2.7	2015_May_30_1554	s	s	15	5	SIC	123	ABS	2	1	02VD 10VO 02VC 02MD 02MO 02MC 02RD 02RO	0	1	1.6472568512	None	None	None	None	1
2.7	2015_May_30_1554	s	s	15	5	SIC	124	RC	1	1	02VD 02VO 02VC 02MD 09MO 02MC 02RD 02RO	1	0	1.82383680344	283.0	-354.0	280	-354	1
2.7	2015_May_30_1554	s	s	15	5	SIC	125	RC	0	2	02VD 02VO 02VC 02MD 02MO 02MC 09RD 02RO	1	0	1.27053904533	-447.0	-25.0	-447	-24	1
2.7	2015_May_30_1554	s	s	15	5	SIC	126	RC	2	0	02VD 02VO 09VC 02MD 02MO 02MC 02RD 02RO	1	0	0.665288925171	222.0	-112.0	233	-112	1
2.7	2015_May_30_1554	s	s	15	5	SIC	127	ABS	2	0	02VD 02VO 10VC 02MD 02MO 02MC 02RD 02RO	0	1	2.02382612228	None	None	None	None	1
2.7	2015_May_30_1554	s	s	15	5	SIC	128	ABS	2	2	10VD 02VO 02VC 02MD 02MO 02MC 02RD 02RO	0	1	3.04244494438	None	None	None	None	1
2.7	2015_May_30_1554	s	s	15	5	SIC	129	RC	2	1	02VD 09VO 02VC 02MD 02MO 02MC 02RD 02RO	1	0	0.58788394928	-80.0	212.0	-87	213	1
2.7	2015_May_30_1554	s	s	15	5	SIC	130	ABS	0	2	02VD 02VO 02VC 02MD 02MO 02MC 10RD 02RO	0	1	3.36271286011	None	None	None	None	1
2.7	2015_May_30_1554	s	s	15	5	SIC	131	ABS	2	2	10VD 02VO 02VC 02MD 02MO 02MC 02RD 02RO	0	1	2.23065900803	None	None	None	None	1
2.7	2015_May_30_1554	s	s	15	5	SIC	132	ABS	1	0	02VD 02VO 02VC 02MD 02MO 10MC 02RD 02RO	0	1	2.24418997765	None	None	None	None	1
2.7	2015_May_30_1554	s	s	15	5	SIC	133	RC	0	2	02VD 02VO 02VC 02MD 02MO 02MC 09RD 02RO	1	0	1.87094283104	129.0	-172.0	125	-173	1
2.7	2015_May_30_1554	s	s	15	5	SIC	134	ABS	0	1	02VD 02VO 02VC 02MD 02MO 02MC 02RD 10RO	0	1	4.00975513458	None	None	None	None	1
2.7	2015_May_30_1554	s	s	15	5	SIC	135	ABS	1	2	02VD 02VO 02VC 10MD 02MO 02MC 02RD 02RO	0	1	2.23095488548	None	None	None	None	1
2.7	2015_May_30_1554	s	s	15	5	SIC	136	ABS	2	1	02VD 10VO 02VC 02MD 02MO 02MC 02RD 02RO	0	1	2.32759213448	None	None	None	None	1
2.7	2015_May_30_1554	s	s	15	5	SIC	137	ABS	1	1	02VD 02VO 02VC 02MD 10MO 02MC 02RD 02RO	0	1	2.88047599792	None	None	None	None	1
2.7	2015_May_30_1554	s	s	15	5	SIC	138	RC	1	1	02VD 02VO 02VC 02MD 09MO 02MC 02RD 02RO	1	0	2.03566813469	124.0	-348.0	129	-345	1
2.7	2015_May_30_1554	s	s	15	5	SIC	139	RC	2	2	09VD 02VO 02VC 02MD 02MO 02MC 02RD 02RO	1	0	1.54826498032	457.0	-252.0	458	-253	1
2.7	2015_May_30_1554	s	s	15	5	SIC	140	ABS	2	0	02VD 02VO 10VC 02MD 02MO 02MC 02RD 02RO	0	1	1.7593691349	None	None	None	None	1
2.7	2015_May_30_1554	s	s	15	5	SIC	141	RC	1	2	02VD 02VO 02VC 09MD 02MO 02MC 02RD 02RO	1	0	0.764467000961	-101.0	73.0	-98	64	1
2.7	2015_May_30_1554	s	s	15	5	SIC	142	RC	2	0	02VD 02VO 09VC 02MD 02MO 02MC 02RD 02RO	1	0	1.06425094604	-125.0	-39.0	-129	-42	1
2.7	2015_May_30_1554	s	s	15	5	SIC	143	RC	1	0	02VD 02VO 02VC 02MD 02MO 09MC 02RD 02RO	1	0	2.1415989399	236.0	46.0	229	48	1
2.7	2015_May_30_1554	s	s	15	5	SIC	144	RC	0	1	02VD 02VO 02VC 02MD 02MO 02MC 02RD 09RO	0	1	3.17211008072	-206.0	368.0	None	None	0
2.7	2015_May_30_1554	s	s	15	5	SIC	145	RC	1	2	02VD 02VO 02VC 09MD 02MO 02MC 02RD 02RO	0	1	1.97670197487	459.0	-246.0	None	None	0
2.7	2015_May_30_1554	s	s	15	5	SIC	146	RC	2	1	02VD 09VO 02VC 02MD 02MO 02MC 02RD 02RO	1	0	0.853547096252	-267.0	368.0	-270	374	1
2.7	2015_May_30_1554	s	s	15	5	SIC	147	ABS	1	2	02VD 02VO 02VC 10MD 02MO 02MC 02RD 02RO	0	1	2.03574109077	None	None	None	None	1
2.7	2015_May_30_1554	s	s	15	5	SIC	148	RC	2	2	09VD 02VO 02VC 02MD 02MO 02MC 02RD 02RO	1	0	0.870285987854	235.0	83.0	241	86	1
2.7	2015_May_30_1554	s	s	15	5	SIC	149	RC	2	0	02VD 02VO 09VC 02MD 02MO 02MC 02RD 02RO	1	0	1.82385611534	-479.0	196.0	-474	194	1
2.7	2015_May_30_1554	s	s	15	5	SIC	150	ABS	1	0	02VD 02VO 02VC 02MD 02MO 10MC 02RD 02RO	0	1	3.08074188232	None	None	None	None	1
2.7	2015_May_30_1554	s	s	15	5	SIC	151	ABS	2	2	10VD 02VO 02VC 02MD 02MO 02MC 02RD 02RO	0	1	1.82379698753	None	None	None	None	1
2.7	2015_May_30_1554	s	s	15	5	SIC	152	ABS	2	1	02VD 10VO 02VC 02MD 02MO 02MC 02RD 02RO	0	1	1.76176118851	None	None	None	None	1
2.7	2015_May_30_1554	s	s	15	5	SIC	153	RC	0	1	02VD 02VO 02VC 02MD 02MO 02MC 02RD 09RO	1	0	1.14739394188	323.0	-183.0	332	-183	1
2.7	2015_May_30_1554	s	s	15	5	SIC	154	ABS	0	1	02VD 02VO 02VC 02MD 02MO 02MC 02RD 10RO	0	1	3.95177412033	None	None	None	None	1
2.7	2015_May_30_1554	s	s	15	5	SIC	155	RC	1	1	02VD 02VO 02VC 02MD 09MO 02MC 02RD 02RO	1	0	1.05342793465	107.0	-251.0	106	-248	1
2.7	2015_May_30_1554	s	s	15	5	SIC	156	ABS	0	2	02VD 02VO 02VC 02MD 02MO 02MC 10RD 02RO	0	1	3.80967783928	None	None	None	None	1
2.7	2015_May_30_1554	s	s	15	5	SIC	157	ABS	1	1	02VD 02VO 02VC 02MD 10MO 02MC 02RD 02RO	0	1	2.93969702721	None	None	None	None	1
2.7	2015_May_30_1554	s	s	15	5	SIC	158	RC	0	2	02VD 02VO 02VC 02MD 02MO 02MC 09RD 02RO	1	0	1.91789579391	-478.0	-72.0	-487	-71	1
2.7	2015_May_30_1554	s	s	15	5	SIC	159	ABS	2	0	02VD 02VO 10VC 02MD 02MO 02MC 02RD 02RO	0	1	1.29058289528	None	None	None	None	1
2.7	2015_May_30_1554	s	s	15	5	SIC	160	RC	1	0	02VD 02VO 02VC 02MD 02MO 09MC 02RD 02RO	1	0	0.952836036682	-301.0	22.0	-294	18	1
2.7	2015_May_30_1554	s	s	15	5	SIC	161	ABS	1	2	02VD 02VO 02VC 10MD 02MO 02MC 02RD 02RO	0	1	2.40070700645	None	None	None	None	1
2.7	2015_May_30_1554	s	s	15	5	SIC	162	ABS	1	0	02VD 02VO 02VC 02MD 02MO 10MC 02RD 02RO	0	1	3.68354582787	None	None	None	None	1
2.7	2015_May_30_1554	s	s	15	5	SIC	163	ABS	1	1	02VD 02VO 02VC 02MD 10MO 02MC 02RD 02RO	0	1	2.63605904579	None	None	None	None	1
2.7	2015_May_30_1554	s	s	15	5	SIC	164	RC	1	1	02VD 02VO 02VC 02MD 09MO 02MC 02RD 02RO	1	0	2.92694497108	-205.0	356.0	-208	350	1
2.7	2015_May_30_1554	s	s	15	5	SIC	165	RC	2	2	09VD 02VO 02VC 02MD 02MO 02MC 02RD 02RO	1	0	0.900302171707	298.0	62.0	294	70	1
2.7	2015_May_30_1554	s	s	15	5	SIC	166	ABS	2	2	10VD 02VO 02VC 02MD 02MO 02MC 02RD 02RO	0	1	2.12990999222	None	None	None	None	1
2.7	2015_May_30_1554	s	s	15	5	SIC	167	RC	1	2	02VD 02VO 02VC 09MD 02MO 02MC 02RD 02RO	1	0	1.11469197273	-8.0	398.0	-6	399	1
2.7	2015_May_30_1554	s	s	15	5	SIC	168	ABS	0	1	02VD 02VO 02VC 02MD 02MO 02MC 02RD 10RO	0	1	4.37801480293	None	None	None	None	1
2.7	2015_May_30_1554	s	s	15	5	SIC	169	ABS	2	1	02VD 10VO 02VC 02MD 02MO 02MC 02RD 02RO	0	1	3.68139195442	None	None	None	None	1
2.7	2015_May_30_1554	s	s	15	5	SIC	170	RC	1	0	02VD 02VO 02VC 02MD 02MO 09MC 02RD 02RO	1	0	1.36485385895	-410.0	154.0	-409	151	1
2.7	2015_May_30_1554	s	s	15	5	SIC	171	ABS	0	2	02VD 02VO 02VC 02MD 02MO 02MC 10RD 02RO	0	1	3.47816300392	None	None	None	None	1
2.7	2015_May_30_1554	s	s	15	5	SIC	172	RC	2	1	02VD 09VO 02VC 02MD 02MO 02MC 02RD 02RO	1	0	1.04436302185	139.0	-100.0	148	-99	1
2.7	2015_May_30_1554	s	s	15	5	SIC	173	RC	0	1	02VD 02VO 02VC 02MD 02MO 02MC 02RD 09RO	1	0	1.14809799194	267.0	37.0	262	35	1
2.7	2015_May_30_1554	s	s	15	5	SIC	174	RC	0	2	02VD 02VO 02VC 02MD 02MO 02MC 09RD 02RO	1	0	1.37313699722	-234.0	-264.0	-227	-262	1
2.7	2015_May_30_1554	s	s	15	5	SIC	175	RC	2	0	02VD 02VO 09VC 02MD 02MO 02MC 02RD 02RO	1	0	0.73629784584	54.0	-81.0	54	-81	1
2.7	2015_May_30_1554	s	s	15	5	SIC	176	ABS	2	0	02VD 02VO 10VC 02MD 02MO 02MC 02RD 02RO	0	1	1.79789090157	None	None	None	None	1
2.7	2015_May_30_1554	s	s	15	5	SIC	177	ABS	0	2	02VD 02VO 02VC 02MD 02MO 02MC 10RD 02RO	0	1	2.77242398262	None	None	None	None	1
2.7	2015_May_30_1554	s	s	15	5	SIC	178	ABS	2	1	02VD 10VO 02VC 02MD 02MO 02MC 02RD 02RO	0	1	1.92455005646	None	None	None	None	1
2.7	2015_May_30_1554	s	s	15	5	SIC	179	ABS	0	1	02VD 02VO 02VC 02MD 02MO 02MC 02RD 10RO	0	1	3.30121803284	None	None	None	None	1
2.7	2015_May_30_1554	s	s	15	5	SIC	180	RC	2	2	09VD 02VO 02VC 02MD 02MO 02MC 02RD 02RO	1	0	1.18819713593	-509.0	-24.0	-503	-26	1
2.7	2015_May_30_1554	s	s	15	5	SIC	181	RC	0	1	02VD 02VO 02VC 02MD 02MO 02MC 02RD 09RO	1	0	1.42097902298	345.0	-132.0	347	-137	1
2.7	2015_May_30_1554	s	s	15	5	SIC	182	ABS	2	2	10VD 02VO 02VC 02MD 02MO 02MC 02RD 02RO	0	1	1.38296699524	None	None	None	None	1
2.7	2015_May_30_1554	s	s	15	5	SIC	183	RC	1	0	02VD 02VO 02VC 02MD 02MO 09MC 02RD 02RO	1	0	0.952816009521	-447.0	-76.0	-444	-79	1
2.7	2015_May_30_1554	s	s	15	5	SIC	184	ABS	1	2	02VD 02VO 02VC 10MD 02MO 02MC 02RD 02RO	0	1	2.13855886459	None	None	None	None	1
2.7	2015_May_30_1554	s	s	15	5	SIC	185	ABS	1	0	02VD 02VO 02VC 02MD 02MO 10MC 02RD 02RO	0	1	2.83610701561	None	None	None	None	1
2.7	2015_May_30_1554	s	s	15	5	SIC	186	RC	2	1	02VD 09VO 02VC 02MD 02MO 02MC 02RD 02RO	1	0	1.34822487831	200.0	-197.0	207	-190	1
2.7	2015_May_30_1554	s	s	15	5	SIC	187	RC	0	2	02VD 02VO 02VC 02MD 02MO 02MC 09RD 02RO	1	0	0.65362906456	-116.0	-15.0	-108	-15	1
2.7	2015_May_30_1554	s	s	15	5	SIC	188	RC	2	0	02VD 02VO 09VC 02MD 02MO 02MC 02RD 02RO	1	0	3.71395587921	-330.0	391.0	-327	391	1
2.7	2015_May_30_1554	s	s	15	5	SIC	189	RC	1	2	02VD 02VO 02VC 09MD 02MO 02MC 02RD 02RO	1	0	1.36204600334	-113.0	-5.0	-112	-7	1
2.7	2015_May_30_1554	s	s	15	5	SIC	190	RC	1	1	02VD 02VO 02VC 02MD 09MO 02MC 02RD 02RO	1	0	1.31770777702	215.0	-183.0	217	-185	1
2.7	2015_May_30_1554	s	s	15	5	SIC	191	ABS	1	1	02VD 02VO 02VC 02MD 10MO 02MC 02RD 02RO	0	1	1.61852884293	None	None	None	None	1
2.7	2015_May_30_1554	s	s	15	5	SIC	192	ABS	2	0	02VD 02VO 10VC 02MD 02MO 02MC 02RD 02RO	0	1	2.34171199799	None	None	None	None	1
2.7	2015_May_30_1554	s	s	15	5	SIC	193	RC	2	2	09VD 02VO 02VC 02MD 02MO 02MC 02RD 02RO	1	0	1.02960205078	478.0	56.0	478	51	1
2.7	2015_May_30_1554	s	s	15	5	SIC	194	ABS	0	2	02VD 02VO 02VC 02MD 02MO 02MC 10RD 02RO	0	1	1.61229586601	None	None	None	None	1
2.7	2015_May_30_1554	s	s	15	5	SIC	195	RC	1	0	02VD 02VO 02VC 02MD 02MO 09MC 02RD 02RO	1	0	1.60691189766	280.0	-224.0	275	-227	1
2.7	2015_May_30_1554	s	s	15	5	SIC	196	RC	2	1	02VD 09VO 02VC 02MD 02MO 02MC 02RD 02RO	1	0	1.36136412621	-306.0	-313.0	-305	-310	1
2.7	2015_May_30_1554	s	s	15	5	SIC	197	ABS	1	0	02VD 02VO 02VC 02MD 02MO 10MC 02RD 02RO	0	1	3.85446882248	None	None	None	None	1
2.7	2015_May_30_1554	s	s	15	5	SIC	198	ABS	2	0	02VD 02VO 10VC 02MD 02MO 02MC 02RD 02RO	0	1	2.64294481277	None	None	None	None	1
2.7	2015_May_30_1554	s	s	15	5	SIC	199	ABS	2	1	02VD 10VO 02VC 02MD 02MO 02MC 02RD 02RO	0	1	2.09456419945	None	None	None	None	1
2.7	2015_May_30_1554	s	s	15	5	SIC	200	ABS	1	2	02VD 02VO 02VC 10MD 02MO 02MC 02RD 02RO	0	1	1.85925793648	None	None	None	None	1
2.7	2015_May_30_1554	s	s	15	5	SIC	201	RC	1	2	02VD 02VO 02VC 09MD 02MO 02MC 02RD 02RO	1	0	0.79979300499	185.0	155.0	194	155	1
2.7	2015_May_30_1554	s	s	15	5	SIC	202	RC	2	0	02VD 02VO 09VC 02MD 02MO 02MC 02RD 02RO	1	0	1.1882019043	-495.0	-157.0	-493	-157	1
2.7	2015_May_30_1554	s	s	15	5	SIC	203	ABS	1	1	02VD 02VO 02VC 02MD 10MO 02MC 02RD 02RO	0	1	2.13712096214	None	None	None	None	1
2.7	2015_May_30_1554	s	s	15	5	SIC	204	RC	1	1	02VD 02VO 02VC 02MD 09MO 02MC 02RD 02RO	1	0	1.8123550415	-452.0	117.0	-461	114	1
2.7	2015_May_30_1554	s	s	15	5	SIC	205	RC	0	1	02VD 02VO 02VC 02MD 02MO 02MC 02RD 09RO	1	0	1.42111301422	89.0	-35.0	100	-30	1
2.7	2015_May_30_1554	s	s	15	5	SIC	206	ABS	2	2	10VD 02VO 02VC 02MD 02MO 02MC 02RD 02RO	0	1	1.9744579792	None	None	None	None	1
2.7	2015_May_30_1554	s	s	15	5	SIC	207	RC	0	2	02VD 02VO 02VC 02MD 02MO 02MC 09RD 02RO	1	0	1.45894503593	-31.0	-215.0	-31	-206	1
2.7	2015_May_30_1554	s	s	15	5	SIC	208	ABS	0	1	02VD 02VO 02VC 02MD 02MO 02MC 02RD 10RO	0	1	2.66745400429	None	None	None	None	1
2.7	2015_May_30_1554	s	s	15	5	SIC	209	RC	1	0	02VD 02VO 02VC 02MD 02MO 09MC 02RD 02RO	1	0	1.60695886612	-90.0	-300.0	-88	-307	1
2.7	2015_May_30_1554	s	s	15	5	SIC	210	ABS	2	0	02VD 02VO 10VC 02MD 02MO 02MC 02RD 02RO	0	1	1.72969412804	None	None	None	None	1
2.7	2015_May_30_1554	s	s	15	5	SIC	211	RC	1	1	02VD 02VO 02VC 02MD 09MO 02MC 02RD 02RO	1	0	0.806649923325	-364.0	187.0	-366	185	1
2.7	2015_May_30_1554	s	s	15	5	SIC	212	RC	2	2	09VD 02VO 02VC 02MD 02MO 02MC 02RD 02RO	1	0	1.7531940937	465.0	-382.0	474	-380	1
2.7	2015_May_30_1554	s	s	15	5	SIC	213	RC	0	2	02VD 02VO 02VC 02MD 02MO 02MC 09RD 02RO	1	0	1.2562661171	304.0	-93.0	306	-94	1
2.7	2015_May_30_1554	s	s	15	5	SIC	214	RC	0	1	02VD 02VO 02VC 02MD 02MO 02MC 02RD 09RO	1	0	2.31289196014	167.0	-140.0	164	-138	1
2.7	2015_May_30_1554	s	s	15	5	SIC	215	ABS	0	1	02VD 02VO 02VC 02MD 02MO 02MC 02RD 10RO	0	1	3.5274040699	None	None	None	None	1
2.7	2015_May_30_1554	s	s	15	5	SIC	216	ABS	2	2	10VD 02VO 02VC 02MD 02MO 02MC 02RD 02RO	0	1	2.31354212761	None	None	None	None	1
2.7	2015_May_30_1554	s	s	15	5	SIC	217	ABS	0	2	02VD 02VO 02VC 02MD 02MO 02MC 10RD 02RO	0	1	3.20092487335	None	None	None	None	1
2.7	2015_May_30_1554	s	s	15	5	SIC	218	RC	1	2	02VD 02VO 02VC 09MD 02MO 02MC 02RD 02RO	1	0	0.947798967361	275.0	327.0	270	324	1
2.7	2015_May_30_1554	s	s	15	5	SIC	219	RC	2	0	02VD 02VO 09VC 02MD 02MO 02MC 02RD 02RO	1	0	1.06489181519	-261.0	-151.0	-257	-152	1
2.7	2015_May_30_1554	s	s	15	5	SIC	220	ABS	1	0	02VD 02VO 02VC 02MD 02MO 10MC 02RD 02RO	0	1	3.73716211319	None	None	None	None	1
2.7	2015_May_30_1554	s	s	15	5	SIC	221	ABS	1	1	02VD 02VO 02VC 02MD 10MO 02MC 02RD 02RO	0	1	2.71507000923	None	None	None	None	1
2.7	2015_May_30_1554	s	s	15	5	SIC	222	ABS	1	2	02VD 02VO 02VC 10MD 02MO 02MC 02RD 02RO	0	1	2.68987488747	None	None	None	None	1
2.7	2015_May_30_1554	s	s	15	5	SIC	223	ABS	2	1	02VD 10VO 02VC 02MD 02MO 02MC 02RD 02RO	0	1	1.67072796822	None	None	None	None	1
2.7	2015_May_30_1554	s	s	15	5	SIC	224	RC	2	1	02VD 09VO 02VC 02MD 02MO 02MC 02RD 02RO	1	0	1.2303071022	312.0	-180.0	316	-182	1
2.7	2015_May_30_1554	s	s	15	5	SIC	225	RC	0	1	02VD 02VO 02VC 02MD 02MO 02MC 02RD 09RO	1	0	1.42140102386	-523.0	133.0	-513	131	1
2.7	2015_May_30_1554	s	s	15	5	SIC	226	ABS	2	1	02VD 10VO 02VC 02MD 02MO 02MC 02RD 02RO	0	1	2.48277902603	None	None	None	None	1
2.7	2015_May_30_1554	s	s	15	5	SIC	227	RC	1	0	02VD 02VO 02VC 02MD 02MO 09MC 02RD 02RO	1	0	0.940978050232	-114.0	18.0	-116	17	1
2.7	2015_May_30_1554	s	s	15	5	SIC	228	RC	0	2	02VD 02VO 02VC 02MD 02MO 02MC 09RD 02RO	1	0	1.33878707886	258.0	-270.0	254	-267	1
2.7	2015_May_30_1554	s	s	15	5	SIC	229	RC	2	1	02VD 09VO 02VC 02MD 02MO 02MC 02RD 02RO	1	0	1.61857509613	432.0	-347.0	434	-349	1
2.7	2015_May_30_1554	s	s	15	5	SIC	230	RC	2	2	09VD 02VO 02VC 02MD 02MO 02MC 02RD 02RO	1	0	1.1266078949	535.0	233.0	527	242	1
2.7	2015_May_30_1554	s	s	15	5	SIC	231	ABS	1	1	02VD 02VO 02VC 02MD 10MO 02MC 02RD 02RO	0	1	2.63590502739	None	None	None	None	1
2.7	2015_May_30_1554	s	s	15	5	SIC	232	ABS	1	0	02VD 02VO 02VC 02MD 02MO 10MC 02RD 02RO	0	1	3.93072104454	None	None	None	None	1
2.7	2015_May_30_1554	s	s	15	5	SIC	233	RC	2	0	02VD 02VO 09VC 02MD 02MO 02MC 02RD 02RO	1	0	0.670300960541	123.0	343.0	119	343	1
2.7	2015_May_30_1554	s	s	15	5	SIC	234	RC	1	1	02VD 02VO 02VC 02MD 09MO 02MC 02RD 02RO	1	0	1.75969099998	263.0	-345.0	257	-347	1
2.7	2015_May_30_1554	s	s	15	5	SIC	235	ABS	0	1	02VD 02VO 02VC 02MD 02MO 02MC 02RD 10RO	0	1	3.47174787521	None	None	None	None	1
2.7	2015_May_30_1554	s	s	15	5	SIC	236	ABS	1	2	02VD 02VO 02VC 10MD 02MO 02MC 02RD 02RO	0	1	2.52744984627	None	None	None	None	1
2.7	2015_May_30_1554	s	s	15	5	SIC	237	ABS	0	2	02VD 02VO 02VC 02MD 02MO 02MC 10RD 02RO	0	1	3.30322504044	None	None	None	None	1
2.7	2015_May_30_1554	s	s	15	5	SIC	238	RC	1	2	02VD 02VO 02VC 09MD 02MO 02MC 02RD 02RO	1	0	1.14117097855	-285.0	63.0	-291	57	1
2.7	2015_May_30_1554	s	s	15	5	SIC	239	ABS	2	0	02VD 02VO 10VC 02MD 02MO 02MC 02RD 02RO	0	1	2.15326595306	None	None	None	None	1
2.7	2015_May_30_1554	s	s	15	5	SIC	240	ABS	2	2	10VD 02VO 02VC 02MD 02MO 02MC 02RD 02RO	0	1	2.01792502403	None	None	None	None	1
2.7	2015_May_30_1554	s	s	15	5	SIC	241	ABS	1	0	02VD 02VO 02VC 02MD 02MO 10MC 02RD 02RO	0	1	1.70116186142	None	None	None	None	1
2.7	2015_May_30_1554	s	s	15	5	SIC	242	RC	0	2	02VD 02VO 02VC 02MD 02MO 02MC 09RD 02RO	1	0	1.26717805862	-532.0	365.0	-527	366	1
2.7	2015_May_30_1554	s	s	15	5	SIC	243	ABS	2	2	10VD 02VO 02VC 02MD 02MO 02MC 02RD 02RO	0	1	3.00779604912	None	None	None	None	1
2.7	2015_May_30_1554	s	s	15	5	SIC	244	RC	2	1	02VD 09VO 02VC 02MD 02MO 02MC 02RD 02RO	1	0	1.65893888474	495.0	206.0	500	208	1
2.7	2015_May_30_1554	s	s	15	5	SIC	245	ABS	2	0	02VD 02VO 10VC 02MD 02MO 02MC 02RD 02RO	0	1	3.98960995674	None	None	None	None	1
2.7	2015_May_30_1554	s	s	15	5	SIC	246	RC	1	2	02VD 02VO 02VC 09MD 02MO 02MC 02RD 02RO	1	0	1.29407191277	-506.0	-297.0	-496	-299	1
2.7	2015_May_30_1554	s	s	15	5	SIC	247	RC	1	1	02VD 02VO 02VC 02MD 09MO 02MC 02RD 02RO	1	0	1.18307495117	-111.0	-329.0	-107	-332	1
2.7	2015_May_30_1554	s	s	15	5	SIC	248	ABS	1	2	02VD 02VO 02VC 10MD 02MO 02MC 02RD 02RO	0	1	2.72481393814	None	None	None	None	1
2.7	2015_May_30_1554	s	s	15	5	SIC	249	ABS	1	1	02VD 02VO 02VC 02MD 10MO 02MC 02RD 02RO	0	1	3.12705898285	None	None	None	None	1
2.7	2015_May_30_1554	s	s	15	5	SIC	250	RC	1	0	02VD 02VO 02VC 02MD 02MO 09MC 02RD 02RO	1	0	0.771086931229	-273.0	74.0	-278	72	1
2.7	2015_May_30_1554	s	s	15	5	SIC	251	ABS	0	2	02VD 02VO 02VC 02MD 02MO 02MC 10RD 02RO	0	1	2.90170001984	None	None	None	None	1
2.7	2015_May_30_1554	s	s	15	5	SIC	252	ABS	2	1	02VD 10VO 02VC 02MD 02MO 02MC 02RD 02RO	0	1	2.1650891304	None	None	None	None	1
2.7	2015_May_30_1554	s	s	15	5	SIC	253	RC	0	1	02VD 02VO 02VC 02MD 02MO 02MC 02RD 09RO	1	0	1.30642604828	-247.0	15.0	-243	23	1
2.7	2015_May_30_1554	s	s	15	5	SIC	254	RC	2	2	09VD 02VO 02VC 02MD 02MO 02MC 02RD 02RO	1	0	0.959007024765	-118.0	108.0	-115	100	1
2.7	2015_May_30_1554	s	s	15	5	SIC	255	RC	2	0	02VD 02VO 09VC 02MD 02MO 02MC 02RD 02RO	1	0	0.976205825806	-187.0	-199.0	-181	-199	1
2.7	2015_May_30_1554	s	s	15	5	SIC	256	ABS	0	1	02VD 02VO 02VC 02MD 02MO 02MC 02RD 10RO	0	1	3.63692212105	None	None	None	None	1
2.7	2015_May_30_1554	s	s	15	5	SIC	257	ABS	0	1	02VD 02VO 02VC 02MD 02MO 02MC 02RD 10RO	0	1	3.21958494186	None	None	None	None	1
2.7	2015_May_30_1554	s	s	15	5	SIC	258	RC	1	0	02VD 02VO 02VC 02MD 02MO 09MC 02RD 02RO	1	0	1.15973496437	78.0	-88.0	83	-90	1
2.7	2015_May_30_1554	s	s	15	5	SIC	259	ABS	2	2	10VD 02VO 02VC 02MD 02MO 02MC 02RD 02RO	0	1	2.3417930603	None	None	None	None	1
2.7	2015_May_30_1554	s	s	15	5	SIC	260	RC	2	2	09VD 02VO 02VC 02MD 02MO 02MC 02RD 02RO	1	0	0.592386960983	-278.0	283.0	-276	280	1
2.7	2015_May_30_1554	s	s	15	5	SIC	261	RC	1	2	02VD 02VO 02VC 09MD 02MO 02MC 02RD 02RO	1	0	2.26862192154	-442.0	-306.0	-448	-310	1
2.7	2015_May_30_1554	s	s	15	5	SIC	262	RC	1	1	02VD 02VO 02VC 02MD 09MO 02MC 02RD 02RO	1	0	1.92970490456	-357.0	-363.0	-353	-367	1
2.7	2015_May_30_1554	s	s	15	5	SIC	263	RC	2	0	02VD 02VO 09VC 02MD 02MO 02MC 02RD 02RO	1	0	0.630041122437	-187.0	114.0	-187	116	1
2.7	2015_May_30_1554	s	s	15	5	SIC	264	ABS	1	1	02VD 02VO 02VC 02MD 10MO 02MC 02RD 02RO	0	1	3.84220504761	None	None	None	None	1
2.7	2015_May_30_1554	s	s	15	5	SIC	265	RC	0	2	02VD 02VO 02VC 02MD 02MO 02MC 09RD 02RO	1	0	0.654067993164	-126.0	361.0	-121	352	1
2.7	2015_May_30_1554	s	s	15	5	SIC	266	ABS	0	2	02VD 02VO 02VC 02MD 02MO 02MC 10RD 02RO	0	1	3.05687499046	None	None	None	None	1
2.7	2015_May_30_1554	s	s	15	5	SIC	267	ABS	2	1	02VD 10VO 02VC 02MD 02MO 02MC 02RD 02RO	1	0	0.893880844116	None	None	-131	-63	0
2.7	2015_May_30_1554	s	s	15	5	SIC	268	ABS	1	2	02VD 02VO 02VC 10MD 02MO 02MC 02RD 02RO	0	1	2.86818194389	None	None	None	None	1
2.7	2015_May_30_1554	s	s	15	5	SIC	269	ABS	1	0	02VD 02VO 02VC 02MD 02MO 10MC 02RD 02RO	0	1	3.66575694084	None	None	None	None	1
2.7	2015_May_30_1554	s	s	15	5	SIC	270	ABS	2	0	02VD 02VO 10VC 02MD 02MO 02MC 02RD 02RO	0	1	2.94197893143	None	None	None	None	1
2.7	2015_May_30_1554	s	s	15	5	SIC	271	RC	2	1	02VD 09VO 02VC 02MD 02MO 02MC 02RD 02RO	1	0	0.947690010071	196.0	5.0	192	8	1
2.7	2015_May_30_1554	s	s	15	5	SIC	272	RC	0	1	02VD 02VO 02VC 02MD 02MO 02MC 02RD 09RO	1	0	3.23077607155	156.0	-200.0	150	-196	1
2.7	2015_May_30_1554	s	s	15	5	SIC	273	RC	0	2	02VD 02VO 02VC 02MD 02MO 02MC 09RD 02RO	1	0	0.761142015457	-152.0	285.0	-147	279	1
2.7	2015_May_30_1554	s	s	15	5	SIC	274	RC	2	1	02VD 09VO 02VC 02MD 02MO 02MC 02RD 02RO	1	0	1.26539993286	-461.0	320.0	-463	326	1
2.7	2015_May_30_1554	s	s	15	5	SIC	275	ABS	2	1	02VD 10VO 02VC 02MD 02MO 02MC 02RD 02RO	0	1	2.25375890732	None	None	None	None	1
2.7	2015_May_30_1554	s	s	15	5	SIC	276	RC	1	1	02VD 02VO 02VC 02MD 09MO 02MC 02RD 02RO	1	0	0.976248979568	-468.0	208.0	-470	211	1
2.7	2015_May_30_1554	s	s	15	5	SIC	277	RC	0	1	02VD 02VO 02VC 02MD 02MO 02MC 02RD 09RO	1	0	1.36019492149	97.0	-172.0	92	-163	1
2.7	2015_May_30_1554	s	s	15	5	SIC	278	RC	2	2	09VD 02VO 02VC 02MD 02MO 02MC 02RD 02RO	1	0	4.15172314644	-63.0	-335.0	-57	-332	1
2.7	2015_May_30_1554	s	s	15	5	SIC	279	RC	2	0	02VD 02VO 09VC 02MD 02MO 02MC 02RD 02RO	1	0	1.48988699913	460.0	330.0	462	336	1
2.7	2015_May_30_1554	s	s	15	5	SIC	280	ABS	2	0	02VD 02VO 10VC 02MD 02MO 02MC 02RD 02RO	0	1	1.78048181534	None	None	None	None	1
2.7	2015_May_30_1554	s	s	15	5	SIC	281	ABS	2	2	10VD 02VO 02VC 02MD 02MO 02MC 02RD 02RO	0	1	1.5884001255	None	None	None	None	1
2.7	2015_May_30_1554	s	s	15	5	SIC	282	ABS	0	2	02VD 02VO 02VC 02MD 02MO 02MC 10RD 02RO	0	1	2.51314306259	None	None	None	None	1
2.7	2015_May_30_1554	s	s	15	5	SIC	283	RC	1	0	02VD 02VO 02VC 02MD 02MO 09MC 02RD 02RO	1	0	0.646728038788	-46.0	167.0	-39	171	1
2.7	2015_May_30_1554	s	s	15	5	SIC	284	ABS	1	2	02VD 02VO 02VC 10MD 02MO 02MC 02RD 02RO	0	1	1.58334803581	None	None	None	None	1
2.7	2015_May_30_1554	s	s	15	5	SIC	285	RC	1	2	02VD 02VO 02VC 09MD 02MO 02MC 02RD 02RO	1	0	1.83561396599	-513.0	379.0	-515	377	1
2.7	2015_May_30_1554	s	s	15	5	SIC	286	ABS	1	0	02VD 02VO 02VC 02MD 02MO 10MC 02RD 02RO	0	1	2.94200110435	None	None	None	None	1
2.7	2015_May_30_1554	s	s	15	5	SIC	287	ABS	0	1	02VD 02VO 02VC 02MD 02MO 02MC 02RD 10RO	0	1	3.43638586998	None	None	None	None	1
2.7	2015_May_30_1554	s	s	15	5	SIC	288	ABS	1	1	02VD 02VO 02VC 02MD 10MO 02MC 02RD 02RO	0	1	2.4241900444	None	None	None	None	1
2.7	2015_May_30_1554	s	s	15	5	SIC	289	RC	2	1	02VD 09VO 02VC 02MD 02MO 02MC 02RD 02RO	1	0	0.749731063843	27.0	-3.0	33	3	1
2.7	2015_May_30_1554	s	s	15	5	SIC	290	RC	2	2	09VD 02VO 02VC 02MD 02MO 02MC 02RD 02RO	1	0	1.51020503044	-352.0	210.0	-354	211	1
2.7	2015_May_30_1554	s	s	15	5	SIC	291	RC	0	1	02VD 02VO 02VC 02MD 02MO 02MC 02RD 09RO	1	0	1.03191399574	-80.0	183.0	-82	179	1
2.7	2015_May_30_1554	s	s	15	5	SIC	292	ABS	0	1	02VD 02VO 02VC 02MD 02MO 02MC 02RD 10RO	0	1	6.24960303307	None	None	None	None	1
2.7	2015_May_30_1554	s	s	15	5	SIC	293	RC	2	0	02VD 02VO 09VC 02MD 02MO 02MC 02RD 02RO	1	0	2.65672707558	-449.0	262.0	-442	266	1
2.7	2015_May_30_1554	s	s	15	5	SIC	294	RC	0	2	02VD 02VO 02VC 02MD 02MO 02MC 09RD 02RO	1	0	1.16464018822	506.0	-43.0	509	-49	1
2.7	2015_May_30_1554	s	s	15	5	SIC	295	ABS	1	2	02VD 02VO 02VC 10MD 02MO 02MC 02RD 02RO	1	0	1.70087003708	None	None	-417	-385	0
2.7	2015_May_30_1554	s	s	15	5	SIC	296	ABS	1	1	02VD 02VO 02VC 02MD 10MO 02MC 02RD 02RO	0	1	2.91841387749	None	None	None	None	1
2.7	2015_May_30_1554	s	s	15	5	SIC	297	ABS	2	0	02VD 02VO 10VC 02MD 02MO 02MC 02RD 02RO	0	1	1.6275229454	None	None	None	None	1
2.7	2015_May_30_1554	s	s	15	5	SIC	298	ABS	2	1	02VD 10VO 02VC 02MD 02MO 02MC 02RD 02RO	0	1	1.94701290131	None	None	None	None	1
2.7	2015_May_30_1554	s	s	15	5	SIC	299	RC	1	0	02VD 02VO 02VC 02MD 02MO 09MC 02RD 02RO	0	1	1.6662709713	289.0	410.0	None	None	0
2.7	2015_May_30_1554	s	s	15	5	SIC	300	RC	1	1	02VD 02VO 02VC 02MD 09MO 02MC 02RD 02RO	1	0	1.86615300179	-469.0	-188.0	-470	-186	1
2.7	2015_May_30_1554	s	s	15	5	SIC	301	RC	1	2	02VD 02VO 02VC 09MD 02MO 02MC 02RD 02RO	1	0	0.702080011368	38.0	18.0	50	20	1
2.7	2015_May_30_1554	s	s	15	5	SIC	302	ABS	0	2	02VD 02VO 02VC 02MD 02MO 02MC 10RD 02RO	0	1	2.27971506119	None	None	None	None	1
2.7	2015_May_30_1554	s	s	15	5	SIC	303	ABS	1	0	02VD 02VO 02VC 02MD 02MO 10MC 02RD 02RO	0	1	3.04828286171	None	None	None	None	1
2.7	2015_May_30_1554	s	s	15	5	SIC	304	ABS	2	2	10VD 02VO 02VC 02MD 02MO 02MC 02RD 02RO	0	1	1.88878202438	None	None	None	None	1
2.7	2015_May_30_1554	s	s	15	5	SIC	305	RC	2	0	02VD 02VO 09VC 02MD 02MO 02MC 02RD 02RO	1	0	1.19984197617	-60.0	-241.0	-52	-235	1
2.7	2015_May_30_1554	s	s	15	5	SIC	306	ABS	1	1	02VD 02VO 02VC 02MD 10MO 02MC 02RD 02RO	0	1	3.38374590874	None	None	None	None	1
2.7	2015_May_30_1554	s	s	15	5	SIC	307	ABS	2	0	02VD 02VO 10VC 02MD 02MO 02MC 02RD 02RO	0	1	2.39679980278	None	None	None	None	1
2.7	2015_May_30_1554	s	s	15	5	SIC	308	RC	1	0	02VD 02VO 02VC 02MD 02MO 09MC 02RD 02RO	1	0	2.1126909256	456.0	45.0	450	43	1
2.7	2015_May_30_1554	s	s	15	5	SIC	309	RC	0	1	02VD 02VO 02VC 02MD 02MO 02MC 02RD 09RO	1	0	0.776046991348	141.0	48.0	131	57	1
2.7	2015_May_30_1554	s	s	15	5	SIC	310	ABS	0	2	02VD 02VO 02VC 02MD 02MO 02MC 10RD 02RO	0	1	6.01412415504	None	None	None	None	1
2.7	2015_May_30_1554	s	s	15	5	SIC	311	RC	2	2	09VD 02VO 02VC 02MD 02MO 02MC 02RD 02RO	1	0	1.31756496429	-116.0	-220.0	-119	-222	1
2.7	2015_May_30_1554	s	s	15	5	SIC	312	ABS	1	2	02VD 02VO 02VC 10MD 02MO 02MC 02RD 02RO	0	1	2.37700080872	None	None	None	None	1
2.7	2015_May_30_1554	s	s	15	5	SIC	313	ABS	2	1	02VD 10VO 02VC 02MD 02MO 02MC 02RD 02RO	0	1	2.24308395386	None	None	None	None	1
2.7	2015_May_30_1554	s	s	15	5	SIC	314	ABS	0	1	02VD 02VO 02VC 02MD 02MO 02MC 02RD 10RO	0	1	4.15424394608	None	None	None	None	1
2.7	2015_May_30_1554	s	s	15	5	SIC	315	RC	2	1	02VD 09VO 02VC 02MD 02MO 02MC 02RD 02RO	1	0	0.599720001221	81.0	239.0	81	243	1
2.7	2015_May_30_1554	s	s	15	5	SIC	316	ABS	2	2	10VD 02VO 02VC 02MD 02MO 02MC 02RD 02RO	0	1	1.96482896805	None	None	None	None	1
2.7	2015_May_30_1554	s	s	15	5	SIC	317	ABS	1	0	02VD 02VO 02VC 02MD 02MO 10MC 02RD 02RO	0	1	2.12439584732	None	None	None	None	1
2.7	2015_May_30_1554	s	s	15	5	SIC	318	RC	0	2	02VD 02VO 02VC 02MD 02MO 02MC 09RD 02RO	1	0	1.58829188347	477.0	344.0	480	337	1
2.7	2015_May_30_1554	s	s	15	5	SIC	319	RC	1	1	02VD 02VO 02VC 02MD 09MO 02MC 02RD 02RO	1	0	1.38288402557	482.0	-82.0	485	-81	1
2.7	2015_May_30_1554	s	s	15	5	SIC	320	RC	1	2	02VD 02VO 02VC 09MD 02MO 02MC 02RD 02RO	1	0	1.52672600746	168.0	-91.0	167	-87	1
2.7	2015_May_30_1554	s	s	15	5	SIC	321	RC	2	2	09VD 02VO 02VC 02MD 02MO 02MC 02RD 02RO	1	0	0.823104143143	109.0	130.0	111	128	1
2.7	2015_May_30_1554	s	s	15	5	SIC	322	RC	1	0	02VD 02VO 02VC 02MD 02MO 09MC 02RD 02RO	1	0	2.18860602379	-496.0	131.0	-495	127	1
2.7	2015_May_30_1554	s	s	15	5	SIC	323	RC	1	1	02VD 02VO 02VC 02MD 09MO 02MC 02RD 02RO	1	0	1.89433503151	511.0	-187.0	506	-187	1
2.7	2015_May_30_1554	s	s	15	5	SIC	324	ABS	1	1	02VD 02VO 02VC 02MD 10MO 02MC 02RD 02RO	0	1	3.21273183823	None	None	None	None	1
2.7	2015_May_30_1554	s	s	15	5	SIC	325	RC	0	1	02VD 02VO 02VC 02MD 02MO 02MC 02RD 09RO	1	0	2.32996511459	-412.0	-318.0	-409	-319	1
2.7	2015_May_30_1554	s	s	15	5	SIC	326	ABS	0	2	02VD 02VO 02VC 02MD 02MO 02MC 10RD 02RO	0	1	2.12989902496	None	None	None	None	1
2.7	2015_May_30_1554	s	s	15	5	SIC	327	RC	1	2	02VD 02VO 02VC 09MD 02MO 02MC 02RD 02RO	1	0	1.12365698814	424.0	110.0	421	109	1
2.7	2015_May_30_1554	s	s	15	5	SIC	328	RC	0	2	02VD 02VO 02VC 02MD 02MO 02MC 09RD 02RO	1	0	0.705645084381	-35.0	133.0	-30	127	1
2.7	2015_May_30_1554	s	s	15	5	SIC	329	ABS	2	2	10VD 02VO 02VC 02MD 02MO 02MC 02RD 02RO	0	1	2.5183339119	None	None	None	None	1
2.7	2015_May_30_1554	s	s	15	5	SIC	330	RC	2	0	02VD 02VO 09VC 02MD 02MO 02MC 02RD 02RO	1	0	0.717199087143	292.0	345.0	287	345	1
2.7	2015_May_30_1554	s	s	15	5	SIC	331	ABS	1	2	02VD 02VO 02VC 10MD 02MO 02MC 02RD 02RO	0	1	1.67083311081	None	None	None	None	1
2.7	2015_May_30_1554	s	s	15	5	SIC	332	ABS	2	0	02VD 02VO 10VC 02MD 02MO 02MC 02RD 02RO	1	0	1.09139299393	None	None	282	403	0
2.7	2015_May_30_1554	s	s	15	5	SIC	333	ABS	2	1	02VD 10VO 02VC 02MD 02MO 02MC 02RD 02RO	0	1	1.64481711388	None	None	None	None	1
2.7	2015_May_30_1554	s	s	15	5	SIC	334	ABS	0	1	02VD 02VO 02VC 02MD 02MO 02MC 02RD 10RO	0	1	4.24358892441	None	None	None	None	1
2.7	2015_May_30_1554	s	s	15	5	SIC	335	ABS	1	0	02VD 02VO 02VC 02MD 02MO 10MC 02RD 02RO	0	1	2.77216506004	None	None	None	None	1
2.7	2015_May_30_1554	s	s	15	5	SIC	336	RC	2	1	02VD 09VO 02VC 02MD 02MO 02MC 02RD 02RO	1	0	1.76496005058	-279.0	-236.0	-285	-233	1
2.7	2015_May_30_1554	s	s	15	5	SIC	337	ABS	1	2	02VD 02VO 02VC 10MD 02MO 02MC 02RD 02RO	0	1	2.36180996895	None	None	None	None	1
2.7	2015_May_30_1554	s	s	15	5	SIC	338	ABS	1	0	02VD 02VO 02VC 02MD 02MO 10MC 02RD 02RO	0	1	2.71612811089	None	None	None	None	1
2.7	2015_May_30_1554	s	s	15	5	SIC	339	RC	2	1	02VD 09VO 02VC 02MD 02MO 02MC 02RD 02RO	1	0	1.16467094421	381.0	372.0	384	372	1
2.7	2015_May_30_1554	s	s	15	5	SIC	340	RC	2	2	09VD 02VO 02VC 02MD 02MO 02MC 02RD 02RO	1	0	0.999878883362	296.0	-55.0	290	-57	1
2.7	2015_May_30_1554	s	s	15	5	SIC	341	RC	2	0	02VD 02VO 09VC 02MD 02MO 02MC 02RD 02RO	1	0	1.37645792961	39.0	340.0	35	329	1
2.7	2015_May_30_1554	s	s	15	5	SIC	342	ABS	1	1	02VD 02VO 02VC 02MD 10MO 02MC 02RD 02RO	0	1	2.43098688126	None	None	None	None	1
2.7	2015_May_30_1554	s	s	15	5	SIC	343	ABS	0	2	02VD 02VO 02VC 02MD 02MO 02MC 10RD 02RO	0	1	3.65534615517	None	None	None	None	1
2.7	2015_May_30_1554	s	s	15	5	SIC	344	RC	0	1	02VD 02VO 02VC 02MD 02MO 02MC 02RD 09RO	1	0	2.26827597618	196.0	-59.0	202	-68	1
2.7	2015_May_30_1554	s	s	15	5	SIC	345	ABS	0	1	02VD 02VO 02VC 02MD 02MO 02MC 02RD 10RO	0	1	3.57272100449	None	None	None	None	1
2.7	2015_May_30_1554	s	s	15	5	SIC	346	ABS	2	1	02VD 10VO 02VC 02MD 02MO 02MC 02RD 02RO	0	1	1.757117033	None	None	None	None	1
2.7	2015_May_30_1554	s	s	15	5	SIC	347	RC	1	2	02VD 02VO 02VC 09MD 02MO 02MC 02RD 02RO	1	0	3.30230093002	-303.0	376.0	-306	374	1
2.7	2015_May_30_1554	s	s	15	5	SIC	348	ABS	2	2	10VD 02VO 02VC 02MD 02MO 02MC 02RD 02RO	0	1	1.61818194389	None	None	None	None	1
2.7	2015_May_30_1554	s	s	15	5	SIC	349	RC	1	1	02VD 02VO 02VC 02MD 09MO 02MC 02RD 02RO	1	0	1.08222818375	530.0	-77.0	536	-73	1
2.7	2015_May_30_1554	s	s	15	5	SIC	350	RC	1	0	02VD 02VO 02VC 02MD 02MO 09MC 02RD 02RO	1	0	0.476447105408	-364.0	289.0	-360	291	1
2.7	2015_May_30_1554	s	s	15	5	SIC	351	RC	0	2	02VD 02VO 02VC 02MD 02MO 02MC 09RD 02RO	1	0	1.670773983	-264.0	-200.0	-256	-196	1
2.7	2015_May_30_1554	s	s	15	5	SIC	352	ABS	2	0	02VD 02VO 10VC 02MD 02MO 02MC 02RD 02RO	0	1	1.31233501434	None	None	None	None	1
2.7	2015_May_30_1554	s	s	15	5	SIC	353	RC	0	1	02VD 02VO 02VC 02MD 02MO 02MC 02RD 09RO	1	0	0.900874137878	55.0	114.0	55	108	1
2.7	2015_May_30_1554	s	s	15	5	SIC	354	RC	2	0	02VD 02VO 09VC 02MD 02MO 02MC 02RD 02RO	1	0	1.72962808609	43.0	-396.0	47	-394	1
2.7	2015_May_30_1554	s	s	15	5	SIC	355	RC	0	2	02VD 02VO 02VC 02MD 02MO 02MC 09RD 02RO	1	0	0.988122940063	86.0	289.0	89	287	1
2.7	2015_May_30_1554	s	s	15	5	SIC	356	RC	1	1	02VD 02VO 02VC 02MD 09MO 02MC 02RD 02RO	1	0	1.03519916534	393.0	202.0	395	209	1
2.7	2015_May_30_1554	s	s	15	5	SIC	357	ABS	2	2	10VD 02VO 02VC 02MD 02MO 02MC 02RD 02RO	0	1	2.7831761837	None	None	None	None	1
2.7	2015_May_30_1554	s	s	15	5	SIC	358	ABS	0	2	02VD 02VO 02VC 02MD 02MO 02MC 10RD 02RO	0	1	2.10111808777	None	None	None	None	1
2.7	2015_May_30_1554	s	s	15	5	SIC	359	ABS	0	1	02VD 02VO 02VC 02MD 02MO 02MC 02RD 10RO	0	1	3.76599478722	None	None	None	None	1
2.7	2015_May_30_1554	s	s	15	5	SIC	360	ABS	2	1	02VD 10VO 02VC 02MD 02MO 02MC 02RD 02RO	0	1	2.58879113197	None	None	None	None	1
2.7	2015_May_30_1554	s	s	15	5	SIC	361	RC	2	2	09VD 02VO 02VC 02MD 02MO 02MC 02RD 02RO	1	0	1.39710402489	358.0	-267.0	365	-266	1
2.7	2015_May_30_1554	s	s	15	5	SIC	362	ABS	1	1	02VD 02VO 02VC 02MD 10MO 02MC 02RD 02RO	0	1	3.63645386696	None	None	None	None	1
2.7	2015_May_30_1554	s	s	15	5	SIC	363	RC	1	0	02VD 02VO 02VC 02MD 02MO 09MC 02RD 02RO	1	0	1.11317801476	-526.0	35.0	-527	37	1
2.7	2015_May_30_1554	s	s	15	5	SIC	364	ABS	1	2	02VD 02VO 02VC 10MD 02MO 02MC 02RD 02RO	0	1	1.54771304131	None	None	None	None	1
2.7	2015_May_30_1554	s	s	15	5	SIC	365	RC	1	2	02VD 02VO 02VC 09MD 02MO 02MC 02RD 02RO	1	0	1.12401199341	-508.0	269.0	-508	272	1
2.7	2015_May_30_1554	s	s	15	5	SIC	366	ABS	1	0	02VD 02VO 02VC 02MD 02MO 10MC 02RD 02RO	0	1	2.37221693993	None	None	None	None	1
2.7	2015_May_30_1554	s	s	15	5	SIC	367	RC	2	1	02VD 09VO 02VC 02MD 02MO 02MC 02RD 02RO	1	0	1.6179869175	-243.0	-276.0	-248	-281	1
2.7	2015_May_30_1554	s	s	15	5	SIC	368	ABS	2	0	02VD 02VO 10VC 02MD 02MO 02MC 02RD 02RO	0	1	2.25657296181	None	None	None	None	1
2.7	2015_May_30_1554	s	s	15	5	SIC	369	ABS	2	0	02VD 02VO 10VC 02MD 02MO 02MC 02RD 02RO	0	1	1.99633789062	None	None	None	None	1
2.7	2015_May_30_1554	s	s	15	5	SIC	370	RC	1	0	02VD 02VO 02VC 02MD 02MO 09MC 02RD 02RO	1	0	2.82435584068	293.0	-385.0	291	-386	1
2.7	2015_May_30_1554	s	s	15	5	SIC	371	ABS	0	1	02VD 02VO 02VC 02MD 02MO 02MC 02RD 10RO	0	1	4.69246482849	None	None	None	None	1
2.7	2015_May_30_1554	s	s	15	5	SIC	372	ABS	2	2	10VD 02VO 02VC 02MD 02MO 02MC 02RD 02RO	0	1	1.84080386162	None	None	None	None	1
2.7	2015_May_30_1554	s	s	15	5	SIC	373	RC	2	1	02VD 09VO 02VC 02MD 02MO 02MC 02RD 02RO	1	0	0.88233089447	-149.0	-66.0	-154	-77	1
2.7	2015_May_30_1554	s	s	15	5	SIC	374	RC	0	2	02VD 02VO 02VC 02MD 02MO 02MC 09RD 02RO	1	0	0.502657175064	-129.0	105.0	-126	105	1
2.7	2015_May_30_1554	s	s	15	5	SIC	375	ABS	1	0	02VD 02VO 02VC 02MD 02MO 10MC 02RD 02RO	0	1	2.42154192924	None	None	None	None	1
2.7	2015_May_30_1554	s	s	15	5	SIC	376	RC	1	1	02VD 02VO 02VC 02MD 09MO 02MC 02RD 02RO	1	0	0.78130698204	-259.0	119.0	-258	114	1
2.7	2015_May_30_1554	s	s	15	5	SIC	377	RC	0	1	02VD 02VO 02VC 02MD 02MO 02MC 02RD 09RO	1	0	1.53583812714	436.0	283.0	440	283	1
2.7	2015_May_30_1554	s	s	15	5	SIC	378	ABS	2	1	02VD 10VO 02VC 02MD 02MO 02MC 02RD 02RO	0	1	1.82381486893	None	None	None	None	1
2.7	2015_May_30_1554	s	s	15	5	SIC	379	ABS	0	2	02VD 02VO 02VC 02MD 02MO 02MC 10RD 02RO	0	1	2.25921988487	None	None	None	None	1
2.7	2015_May_30_1554	s	s	15	5	SIC	380	RC	2	0	02VD 02VO 09VC 02MD 02MO 02MC 02RD 02RO	1	0	1.86581277847	449.0	-305.0	450	-305	1
2.7	2015_May_30_1554	s	s	15	5	SIC	381	ABS	1	1	02VD 02VO 02VC 02MD 10MO 02MC 02RD 02RO	0	1	2.44249105453	None	None	None	None	1
2.7	2015_May_30_1554	s	s	15	5	SIC	382	RC	2	2	09VD 02VO 02VC 02MD 02MO 02MC 02RD 02RO	1	0	0.846682071686	-538.0	300.0	-525	304	1
2.7	2015_May_30_1554	s	s	15	5	SIC	383	RC	1	2	02VD 02VO 02VC 09MD 02MO 02MC 02RD 02RO	1	0	1.02396416664	510.0	42.0	511	31	1
2.7	2015_May_30_1554	s	s	15	5	SIC	384	ABS	1	2	02VD 02VO 02VC 10MD 02MO 02MC 02RD 02RO	0	1	2.29218196869	None	None	None	None	1
2.7	2015_May_30_1554	s	s	15	5	SIC	385	RC	0	2	02VD 02VO 02VC 02MD 02MO 02MC 09RD 02RO	1	0	0.735754013062	-38.0	376.0	-43	373	1
2.7	2015_May_30_1554	s	s	15	5	SIC	386	ABS	2	0	02VD 02VO 10VC 02MD 02MO 02MC 02RD 02RO	0	1	1.58512711525	None	None	None	None	1
2.7	2015_May_30_1554	s	s	15	5	SIC	387	RC	1	0	02VD 02VO 02VC 02MD 02MO 09MC 02RD 02RO	1	0	1.03898501396	-448.0	95.0	-452	97	1
2.7	2015_May_30_1554	s	s	15	5	SIC	388	ABS	1	1	02VD 02VO 02VC 02MD 10MO 02MC 02RD 02RO	0	1	2.52485704422	None	None	None	None	1
2.7	2015_May_30_1554	s	s	15	5	SIC	389	RC	0	1	02VD 02VO 02VC 02MD 02MO 02MC 02RD 09RO	1	0	1.74116396904	242.0	-22.0	239	-22	1
2.7	2015_May_30_1554	s	s	15	5	SIC	390	ABS	1	2	02VD 02VO 02VC 10MD 02MO 02MC 02RD 02RO	0	1	1.81811308861	None	None	None	None	1
2.7	2015_May_30_1554	s	s	15	5	SIC	391	ABS	1	0	02VD 02VO 02VC 02MD 02MO 10MC 02RD 02RO	0	1	3.46618485451	None	None	None	None	1
2.7	2015_May_30_1554	s	s	15	5	SIC	392	RC	1	1	02VD 02VO 02VC 02MD 09MO 02MC 02RD 02RO	1	0	2.43586397171	301.0	-296.0	296	-299	1
2.7	2015_May_30_1554	s	s	15	5	SIC	393	RC	2	2	09VD 02VO 02VC 02MD 02MO 02MC 02RD 02RO	1	0	2.23293399811	295.0	-87.0	286	-88	1
2.7	2015_May_30_1554	s	s	15	5	SIC	394	ABS	0	1	02VD 02VO 02VC 02MD 02MO 02MC 02RD 10RO	0	1	4.63317894936	None	None	None	None	1
2.7	2015_May_30_1554	s	s	15	5	SIC	395	ABS	0	2	02VD 02VO 02VC 02MD 02MO 02MC 10RD 02RO	0	1	3.42459201813	None	None	None	None	1
2.7	2015_May_30_1554	s	s	15	5	SIC	396	ABS	2	2	10VD 02VO 02VC 02MD 02MO 02MC 02RD 02RO	0	1	2.21229314804	None	None	None	None	1
2.7	2015_May_30_1554	s	s	15	5	SIC	397	RC	2	1	02VD 09VO 02VC 02MD 02MO 02MC 02RD 02RO	1	0	1.75321602821	213.0	-300.0	208	-301	1
2.7	2015_May_30_1554	s	s	15	5	SIC	398	RC	2	0	02VD 02VO 09VC 02MD 02MO 02MC 02RD 02RO	1	0	0.702186822891	67.0	106.0	66	107	1
2.7	2015_May_30_1554	s	s	15	5	SIC	399	RC	1	2	02VD 02VO 02VC 09MD 02MO 02MC 02RD 02RO	1	0	1.15289211273	-455.0	-99.0	-456	-98	1
2.7	2015_May_30_1554	s	s	15	5	SIC	400	ABS	2	1	02VD 10VO 02VC 02MD 02MO 02MC 02RD 02RO	0	1	2.69003415108	None	None	None	None	1
2.7	2015_May_30_1554	s	s	15	5	SIC	401	RC	1	0	02VD 02VO 02VC 02MD 02MO 09MC 02RD 02RO	1	0	1.0914170742	108.0	275.0	107	278	1
2.7	2015_May_30_1554	s	s	15	5	SIC	402	ABS	1	0	02VD 02VO 02VC 02MD 02MO 10MC 02RD 02RO	0	1	2.80083394051	None	None	None	None	1
2.7	2015_May_30_1554	s	s	15	5	SIC	403	ABS	0	2	02VD 02VO 02VC 02MD 02MO 02MC 10RD 02RO	0	1	3.49045085907	None	None	None	None	1
2.7	2015_May_30_1554	s	s	15	5	SIC	404	RC	2	1	02VD 09VO 02VC 02MD 02MO 02MC 02RD 02RO	1	0	1.88310098648	108.0	-401.0	103	-408	1
2.7	2015_May_30_1554	s	s	15	5	SIC	405	RC	1	1	02VD 02VO 02VC 02MD 09MO 02MC 02RD 02RO	1	0	1.71793794632	-301.0	243.0	-299	232	1
2.7	2015_May_30_1554	s	s	15	5	SIC	406	RC	0	2	02VD 02VO 02VC 02MD 02MO 02MC 09RD 02RO	1	0	0.99497795105	152.0	73.0	152	76	1
2.7	2015_May_30_1554	s	s	15	5	SIC	407	ABS	1	1	02VD 02VO 02VC 02MD 10MO 02MC 02RD 02RO	0	1	2.35103583336	None	None	None	None	1
2.7	2015_May_30_1554	s	s	15	5	SIC	408	ABS	1	2	02VD 02VO 02VC 10MD 02MO 02MC 02RD 02RO	0	1	3.19391393661	None	None	None	None	1
2.7	2015_May_30_1554	s	s	15	5	SIC	409	ABS	2	0	02VD 02VO 10VC 02MD 02MO 02MC 02RD 02RO	0	1	2.23184204102	None	None	None	None	1
2.7	2015_May_30_1554	s	s	15	5	SIC	410	RC	2	0	02VD 02VO 09VC 02MD 02MO 02MC 02RD 02RO	1	0	1.63110399246	-51.0	-314.0	-37	-309	1
2.7	2015_May_30_1554	s	s	15	5	SIC	411	ABS	2	1	02VD 10VO 02VC 02MD 02MO 02MC 02RD 02RO	0	1	1.9708750248	None	None	None	None	1
2.7	2015_May_30_1554	s	s	15	5	SIC	412	RC	1	2	02VD 02VO 02VC 09MD 02MO 02MC 02RD 02RO	1	0	0.682455062866	-408.0	302.0	-409	295	1
2.7	2015_May_30_1554	s	s	15	5	SIC	413	RC	0	1	02VD 02VO 02VC 02MD 02MO 02MC 02RD 09RO	1	0	1.48916602135	-38.0	-67.0	-37	-64	1
2.7	2015_May_30_1554	s	s	15	5	SIC	414	ABS	2	2	10VD 02VO 02VC 02MD 02MO 02MC 02RD 02RO	0	1	1.61197209358	None	None	None	None	1
2.7	2015_May_30_1554	s	s	15	5	SIC	415	RC	2	2	09VD 02VO 02VC 02MD 02MO 02MC 02RD 02RO	1	0	1.01138997078	410.0	392.0	418	392	1
2.7	2015_May_30_1554	s	s	15	5	SIC	416	ABS	0	1	02VD 02VO 02VC 02MD 02MO 02MC 02RD 10RO	0	1	3.34207701683	None	None	None	None	1
2.7	2015_May_30_1554	s	s	15	5	SIC	417	RC	2	2	09VD 02VO 02VC 02MD 02MO 02MC 02RD 02RO	1	0	1.59588503838	241.0	-282.0	241	-278	1
2.7	2015_May_30_1554	s	s	15	5	SIC	418	RC	1	1	02VD 02VO 02VC 02MD 09MO 02MC 02RD 02RO	1	0	1.12681293488	377.0	-203.0	384	-207	1
2.7	2015_May_30_1554	s	s	15	5	SIC	419	ABS	1	2	02VD 02VO 02VC 10MD 02MO 02MC 02RD 02RO	0	1	1.82373213768	None	None	None	None	1
2.7	2015_May_30_1554	s	s	15	5	SIC	420	ABS	2	2	10VD 02VO 02VC 02MD 02MO 02MC 02RD 02RO	0	1	1.47097110748	None	None	None	None	1
2.7	2015_May_30_1554	s	s	15	5	SIC	421	ABS	0	1	02VD 02VO 02VC 02MD 02MO 02MC 02RD 10RO	0	1	3.71891021729	None	None	None	None	1
2.7	2015_May_30_1554	s	s	15	5	SIC	422	ABS	1	1	02VD 02VO 02VC 02MD 10MO 02MC 02RD 02RO	0	1	2.34784889221	None	None	None	None	1
2.7	2015_May_30_1554	s	s	15	5	SIC	423	RC	1	0	02VD 02VO 02VC 02MD 02MO 09MC 02RD 02RO	0	1	2.06590509415	-203.0	374.0	None	None	0
2.7	2015_May_30_1554	s	s	15	5	SIC	424	ABS	1	0	02VD 02VO 02VC 02MD 02MO 10MC 02RD 02RO	0	1	2.56900501251	None	None	None	None	1
2.7	2015_May_30_1554	s	s	15	5	SIC	425	ABS	2	0	02VD 02VO 10VC 02MD 02MO 02MC 02RD 02RO	0	1	2.77088284492	None	None	None	None	1
2.7	2015_May_30_1554	s	s	15	5	SIC	426	RC	2	1	02VD 09VO 02VC 02MD 02MO 02MC 02RD 02RO	1	0	0.735594034195	-63.0	83.0	-60	83	1
2.7	2015_May_30_1554	s	s	15	5	SIC	427	RC	1	2	02VD 02VO 02VC 09MD 02MO 02MC 02RD 02RO	1	0	2.00035500526	-192.0	-48.0	-186	-48	1
2.7	2015_May_30_1554	s	s	15	5	SIC	428	RC	0	2	02VD 02VO 02VC 02MD 02MO 02MC 09RD 02RO	1	0	2.47121906281	-458.0	-262.0	-452	-265	1
2.7	2015_May_30_1554	s	s	15	5	SIC	429	RC	0	1	02VD 02VO 02VC 02MD 02MO 02MC 02RD 09RO	1	0	1.30594301224	-47.0	-12.0	-46	-7	1
2.7	2015_May_30_1554	s	s	15	5	SIC	430	ABS	0	2	02VD 02VO 02VC 02MD 02MO 02MC 10RD 02RO	0	1	2.63047099113	None	None	None	None	1
2.7	2015_May_30_1554	s	s	15	5	SIC	431	ABS	2	1	02VD 10VO 02VC 02MD 02MO 02MC 02RD 02RO	0	1	2.21901011467	None	None	None	None	1
2.7	2015_May_30_1554	s	s	15	5	SIC	432	RC	2	0	02VD 02VO 09VC 02MD 02MO 02MC 02RD 02RO	1	0	1.11176395416	-484.0	259.0	-482	257	1
2.7	2015_May_30_1554	s	s	15	5	SIC	433	ABS	2	2	10VD 02VO 02VC 02MD 02MO 02MC 02RD 02RO	0	1	2.27781605721	None	None	None	None	1
2.7	2015_May_30_1554	s	s	15	5	SIC	434	RC	2	1	02VD 09VO 02VC 02MD 02MO 02MC 02RD 02RO	1	0	1.40002799034	337.0	-115.0	340	-111	1
2.7	2015_May_30_1554	s	s	15	5	SIC	435	RC	1	0	02VD 02VO 02VC 02MD 02MO 09MC 02RD 02RO	1	0	2.49471688271	-316.0	103.0	-320	101	1
2.7	2015_May_30_1554	s	s	15	5	SIC	436	RC	2	0	02VD 02VO 09VC 02MD 02MO 02MC 02RD 02RO	1	0	1.02340912819	114.0	37.0	127	41	1
2.7	2015_May_30_1554	s	s	15	5	SIC	437	ABS	2	0	02VD 02VO 10VC 02MD 02MO 02MC 02RD 02RO	0	1	2.00951910019	None	None	None	None	1
2.7	2015_May_30_1554	s	s	15	5	SIC	438	RC	1	2	02VD 02VO 02VC 09MD 02MO 02MC 02RD 02RO	1	0	1.40838599205	368.0	-138.0	365	-146	1
2.7	2015_May_30_1554	s	s	15	5	SIC	439	ABS	0	1	02VD 02VO 02VC 02MD 02MO 02MC 02RD 10RO	0	1	4.42036509514	None	None	None	None	1
2.7	2015_May_30_1554	s	s	15	5	SIC	440	RC	1	1	02VD 02VO 02VC 02MD 09MO 02MC 02RD 02RO	1	0	1.98862099648	461.0	-203.0	464	-202	1
2.7	2015_May_30_1554	s	s	15	5	SIC	441	ABS	2	1	02VD 10VO 02VC 02MD 02MO 02MC 02RD 02RO	0	1	1.64469313622	None	None	None	None	1
2.7	2015_May_30_1554	s	s	15	5	SIC	442	RC	0	1	02VD 02VO 02VC 02MD 02MO 02MC 02RD 09RO	1	0	1.56465888023	292.0	-43.0	299	-36	1
2.7	2015_May_30_1554	s	s	15	5	SIC	443	ABS	1	2	02VD 02VO 02VC 10MD 02MO 02MC 02RD 02RO	0	1	2.95387887955	None	None	None	None	1
2.7	2015_May_30_1554	s	s	15	5	SIC	444	RC	2	2	09VD 02VO 02VC 02MD 02MO 02MC 02RD 02RO	1	0	0.970402002335	-307.0	142.0	-309	136	1
2.7	2015_May_30_1554	s	s	15	5	SIC	445	ABS	0	2	02VD 02VO 02VC 02MD 02MO 02MC 10RD 02RO	0	1	2.67121601105	None	None	None	None	1
2.7	2015_May_30_1554	s	s	15	5	SIC	446	ABS	1	1	02VD 02VO 02VC 02MD 10MO 02MC 02RD 02RO	0	1	2.76541686058	None	None	None	None	1
2.7	2015_May_30_1554	s	s	15	5	SIC	447	ABS	1	0	02VD 02VO 02VC 02MD 02MO 10MC 02RD 02RO	0	1	2.96016812325	None	None	None	None	1
2.7	2015_May_30_1554	s	s	15	5	SIC	448	RC	0	2	02VD 02VO 02VC 02MD 02MO 02MC 09RD 02RO	1	0	2.97507691383	-533.0	-203.0	-522	-202	1
2.7	2015_May_30_1554	s	s	15	5	SIC	449	RC	1	2	02VD 02VO 02VC 09MD 02MO 02MC 02RD 02RO	1	0	1.16466188431	-29.0	-214.0	-30	-217	1
2.7	2015_May_30_1554	s	s	15	5	SIC	450	ABS	2	1	02VD 10VO 02VC 02MD 02MO 02MC 02RD 02RO	0	1	2.32532501221	None	None	None	None	1
2.7	2015_May_30_1554	s	s	15	5	SIC	451	RC	0	1	02VD 02VO 02VC 02MD 02MO 02MC 02RD 09RO	1	0	2.26860809326	512.0	-258.0	516	-258	1
2.7	2015_May_30_1554	s	s	15	5	SIC	452	ABS	2	0	02VD 02VO 10VC 02MD 02MO 02MC 02RD 02RO	0	1	2.19563388824	None	None	None	None	1
2.7	2015_May_30_1554	s	s	15	5	SIC	453	RC	0	2	02VD 02VO 02VC 02MD 02MO 02MC 09RD 02RO	1	0	1.98264288902	-19.0	-269.0	-17	-271	1
2.7	2015_May_30_1554	s	s	15	5	SIC	454	ABS	1	2	02VD 02VO 02VC 10MD 02MO 02MC 02RD 02RO	0	1	2.09245800972	None	None	None	None	1
2.7	2015_May_30_1554	s	s	15	5	SIC	455	ABS	0	2	02VD 02VO 02VC 02MD 02MO 02MC 10RD 02RO	0	1	2.08664894104	None	None	None	None	1
2.7	2015_May_30_1554	s	s	15	5	SIC	456	RC	2	2	09VD 02VO 02VC 02MD 02MO 02MC 02RD 02RO	1	0	1.29190897942	-63.0	-292.0	-64	-297	1
2.7	2015_May_30_1554	s	s	15	5	SIC	457	RC	2	1	02VD 09VO 02VC 02MD 02MO 02MC 02RD 02RO	1	0	1.41797494888	474.0	358.0	469	362	1
2.7	2015_May_30_1554	s	s	15	5	SIC	458	ABS	2	2	10VD 02VO 02VC 02MD 02MO 02MC 02RD 02RO	0	1	2.47973513603	None	None	None	None	1
2.7	2015_May_30_1554	s	s	15	5	SIC	459	ABS	1	0	02VD 02VO 02VC 02MD 02MO 10MC 02RD 02RO	0	1	4.67973995209	None	None	None	None	1
2.7	2015_May_30_1554	s	s	15	5	SIC	460	ABS	0	1	02VD 02VO 02VC 02MD 02MO 02MC 02RD 10RO	0	1	3.15397715569	None	None	None	None	1
2.7	2015_May_30_1554	s	s	15	5	SIC	461	ABS	1	1	02VD 02VO 02VC 02MD 10MO 02MC 02RD 02RO	0	1	4.67934703827	None	None	None	None	1
2.7	2015_May_30_1554	s	s	15	5	SIC	462	RC	1	1	02VD 02VO 02VC 02MD 09MO 02MC 02RD 02RO	1	0	1.03517007828	311.0	55.0	309	54	1
2.7	2015_May_30_1554	s	s	15	5	SIC	463	RC	2	0	02VD 02VO 09VC 02MD 02MO 02MC 02RD 02RO	1	0	0.528994083405	-254.0	305.0	-251	308	1
2.7	2015_May_30_1554	s	s	15	5	SIC	464	RC	1	0	02VD 02VO 02VC 02MD 02MO 09MC 02RD 02RO	1	0	0.794902086258	-342.0	120.0	-339	123	1
2.7	2015_May_30_1554	s	s	15	5	SIC	465	RC	2	2	09VD 02VO 02VC 02MD 02MO 02MC 02RD 02RO	1	0	1.32939481735	-25.0	-407.0	-16	-410	1
2.7	2015_May_30_1554	s	s	15	5	SIC	466	RC	1	1	02VD 02VO 02VC 02MD 09MO 02MC 02RD 02RO	1	0	1.7599709034	-71.0	-279.0	-67	-275	1
2.7	2015_May_30_1554	s	s	15	5	SIC	467	ABS	1	2	02VD 02VO 02VC 10MD 02MO 02MC 02RD 02RO	1	0	2.36531686783	None	None	321	-98	0
2.7	2015_May_30_1554	s	s	15	5	SIC	468	RC	2	0	02VD 02VO 09VC 02MD 02MO 02MC 02RD 02RO	1	0	1.1717069149	-487.0	-403.0	-491	-410	1
2.7	2015_May_30_1554	s	s	15	5	SIC	469	ABS	2	2	10VD 02VO 02VC 02MD 02MO 02MC 02RD 02RO	0	1	2.15114212036	None	None	None	None	1
2.7	2015_May_30_1554	s	s	15	5	SIC	470	RC	1	0	02VD 02VO 02VC 02MD 02MO 09MC 02RD 02RO	1	0	1.44218301773	68.0	-307.0	75	-312	1
2.7	2015_May_30_1554	s	s	15	5	SIC	471	ABS	1	0	02VD 02VO 02VC 02MD 02MO 10MC 02RD 02RO	0	1	3.06569504738	None	None	None	None	1
2.7	2015_May_30_1554	s	s	15	5	SIC	472	ABS	2	0	02VD 02VO 10VC 02MD 02MO 02MC 02RD 02RO	0	1	1.73332190514	None	None	None	None	1
2.7	2015_May_30_1554	s	s	15	5	SIC	473	ABS	0	1	02VD 02VO 02VC 02MD 02MO 02MC 02RD 10RO	0	1	3.70229697227	None	None	None	None	1
2.7	2015_May_30_1554	s	s	15	5	SIC	474	RC	0	2	02VD 02VO 02VC 02MD 02MO 02MC 09RD 02RO	1	0	1.06373381615	-432.0	-16.0	-430	-17	1
2.7	2015_May_30_1554	s	s	15	5	SIC	475	ABS	1	1	02VD 02VO 02VC 02MD 10MO 02MC 02RD 02RO	0	1	3.14836215973	None	None	None	None	1
2.7	2015_May_30_1554	s	s	15	5	SIC	476	RC	2	1	02VD 09VO 02VC 02MD 02MO 02MC 02RD 02RO	1	0	0.735818862915	-315.0	91.0	-305	92	1
2.7	2015_May_30_1554	s	s	15	5	SIC	477	ABS	2	1	02VD 10VO 02VC 02MD 02MO 02MC 02RD 02RO	0	1	3.05967712402	None	None	None	None	1
2.7	2015_May_30_1554	s	s	15	5	SIC	478	ABS	0	2	02VD 02VO 02VC 02MD 02MO 02MC 10RD 02RO	0	1	2.34161686897	None	None	None	None	1
2.7	2015_May_30_1554	s	s	15	5	SIC	479	RC	1	2	02VD 02VO 02VC 09MD 02MO 02MC 02RD 02RO	1	0	0.608466148376	-59.0	237.0	-58	223	1
2.7	2015_May_30_1554	s	s	15	5	SIC	480	RC	0	1	02VD 02VO 02VC 02MD 02MO 02MC 02RD 09RO	1	0	0.82325387001	-394.0	172.0	-389	170	1
