Version	Date	Stimuli	Method	Subject	Session	Condition	Trial	Target	Channel1	Channel2	Distractors	LMouseButton	RMouseButton	RT	TargetX	TargetY	ResponseX	ResponseY	Correct
2.7	2015_May_28_1155	s	s	15	3	Capacity	1	ABS	0	1	08RD 16RO	0	1	3.28332591057	None	None	None	None	1
2.7	2015_May_28_1155	s	s	15	3	Capacity	2	RC	0	2	15RD 08RO	1	0	1.36079883575	-217.0	411.0	-218	405	1
2.7	2015_May_28_1155	s	s	15	3	Capacity	3	RC	0	1	08RD 15RO	1	0	0.552438020706	-213.0	306.0	-215	303	1
2.7	2015_May_28_1155	s	s	15	3	Capacity	4	ABS	0	2	16RD 08RO	0	1	2.91378688812	None	None	None	None	1
2.7	2015_May_28_1155	s	s	15	3	Capacity	5	RC	0	2	15RD 08RO	1	0	2.79791307449	-483.0	-215.0	-481	-218	1
2.7	2015_May_28_1155	s	s	15	3	Capacity	6	ABS	0	1	08RD 16RO	0	1	3.70712399483	None	None	None	None	1
2.7	2015_May_28_1155	s	s	15	3	Capacity	7	RC	0	1	08RD 15RO	0	1	3.4834830761	522.0	-234.0	None	None	0
2.7	2015_May_28_1155	s	s	15	3	Capacity	8	ABS	0	2	16RD 08RO	0	1	3.07142496109	None	None	None	None	1
2.7	2015_May_28_1155	s	s	15	3	Capacity	9	RC	0	2	15RD 08RO	1	0	1.57658195496	159.0	-389.0	165	-395	1
2.7	2015_May_28_1155	s	s	15	3	Capacity	10	ABS	0	1	08RD 16RO	0	1	3.35067892075	None	None	None	None	1
2.7	2015_May_28_1155	s	s	15	3	Capacity	11	RC	0	1	08RD 15RO	0	1	4.25765800476	288.0	408.0	None	None	0
2.7	2015_May_28_1155	s	s	15	3	Capacity	12	ABS	0	2	16RD 08RO	0	1	3.97789382935	None	None	None	None	1
2.7	2015_May_28_1155	s	s	15	3	Capacity	13	ABS	0	1	08RD 16RO	0	1	4.66697216034	None	None	None	None	1
2.7	2015_May_28_1155	s	s	15	3	Capacity	14	ABS	0	2	16RD 08RO	0	1	4.42513298988	None	None	None	None	1
2.7	2015_May_28_1155	s	s	15	3	Capacity	15	RC	0	1	08RD 15RO	1	0	1.44433093071	-472.0	57.0	-473	53	1
2.7	2015_May_28_1155	s	s	15	3	Capacity	16	RC	0	2	15RD 08RO	1	0	2.17446804047	214.0	-381.0	220	-378	1
2.7	2015_May_28_1155	s	s	15	3	Capacity	17	RC	0	1	08RD 15RO	1	0	1.64082789421	-353.0	96.0	-349	96	1
2.7	2015_May_28_1155	s	s	15	3	Capacity	18	ABS	0	2	16RD 08RO	0	1	3.03371405602	None	None	None	None	1
2.7	2015_May_28_1155	s	s	15	3	Capacity	19	ABS	0	1	08RD 16RO	0	1	5.05275392532	None	None	None	None	1
2.7	2015_May_28_1155	s	s	15	3	Capacity	20	RC	0	2	15RD 08RO	1	0	1.66765594482	35.0	-73.0	47	-68	1
2.7	2015_May_28_1155	s	s	15	3	Capacity	21	RC	0	1	08RD 15RO	1	0	1.32946395874	-55.0	122.0	-60	115	1
2.7	2015_May_28_1155	s	s	15	3	Capacity	22	ABS	0	1	08RD 16RO	0	1	6.82102203369	None	None	None	None	1
2.7	2015_May_28_1155	s	s	15	3	Capacity	23	RC	0	2	15RD 08RO	1	0	2.02381801605	-501.0	247.0	-495	252	1
2.7	2015_May_28_1155	s	s	15	3	Capacity	24	ABS	0	2	16RD 08RO	0	1	4.16236782074	None	None	None	None	1
2.7	2015_May_28_1155	s	s	15	3	Capacity	25	ABS	0	1	08RD 16RO	0	1	4.64324903488	None	None	None	None	1
2.7	2015_May_28_1155	s	s	15	3	Capacity	26	RC	0	1	08RD 15RO	1	0	1.85584902763	-231.0	-283.0	-228	-288	1
2.7	2015_May_28_1155	s	s	15	3	Capacity	27	ABS	0	2	16RD 08RO	0	1	3.54266786575	None	None	None	None	1
2.7	2015_May_28_1155	s	s	15	3	Capacity	28	RC	0	2	15RD 08RO	1	0	1.75311803818	395.0	-144.0	394	-146	1
2.7	2015_May_28_1155	s	s	15	3	Capacity	29	ABS	0	2	16RD 08RO	0	1	3.95074105263	None	None	None	None	1
2.7	2015_May_28_1155	s	s	15	3	Capacity	30	RC	0	1	08RD 15RO	1	0	2.70168709755	-221.0	33.0	-221	35	1
2.7	2015_May_28_1155	s	s	15	3	Capacity	31	RC	0	2	15RD 08RO	0	1	3.23618102074	-129.0	-20.0	None	None	0
2.7	2015_May_28_1155	s	s	15	3	Capacity	32	ABS	0	1	08RD 16RO	0	1	3.61659288406	None	None	None	None	1
2.7	2015_May_28_1155	s	s	15	3	Capacity	33	RC	0	2	15RD 08RO	1	0	1.52148318291	-171.0	-74.0	-162	-70	1
2.7	2015_May_28_1155	s	s	15	3	Capacity	34	ABS	0	1	08RD 16RO	0	1	4.55444407463	None	None	None	None	1
2.7	2015_May_28_1155	s	s	15	3	Capacity	35	RC	0	1	08RD 15RO	1	0	4.31451487541	-355.0	-210.0	-358	-210	1
2.7	2015_May_28_1155	s	s	15	3	Capacity	36	ABS	0	2	16RD 08RO	0	1	3.44490790367	None	None	None	None	1
2.7	2015_May_28_1155	s	s	15	3	Capacity	37	RC	0	1	08RD 15RO	1	0	1.19657492638	-477.0	339.0	-473	340	1
2.7	2015_May_28_1155	s	s	15	3	Capacity	38	RC	0	2	15RD 08RO	1	0	1.44349503517	316.0	8.0	322	7	1
2.7	2015_May_28_1155	s	s	15	3	Capacity	39	ABS	0	1	08RD 16RO	0	1	3.91889095306	None	None	None	None	1
2.7	2015_May_28_1155	s	s	15	3	Capacity	40	ABS	0	2	16RD 08RO	0	1	3.01254701614	None	None	None	None	1
2.7	2015_May_28_1155	s	s	15	3	Capacity	41	ABS	0	1	08RD 16RO	0	1	5.10778212547	None	None	None	None	1
2.7	2015_May_28_1155	s	s	15	3	Capacity	42	ABS	0	2	16RD 08RO	0	1	3.75402808189	None	None	None	None	1
2.7	2015_May_28_1155	s	s	15	3	Capacity	43	RC	0	2	15RD 08RO	1	0	0.764528989792	92.0	-28.0	89	-30	1
2.7	2015_May_28_1155	s	s	15	3	Capacity	44	RC	0	1	08RD 15RO	1	0	1.63006806374	-316.0	268.0	-319	267	1
2.7	2015_May_28_1155	s	s	15	3	Capacity	45	RC	0	1	08RD 15RO	0	1	6.32693910599	-34.0	55.0	None	None	0
2.7	2015_May_28_1155	s	s	15	3	Capacity	46	ABS	0	2	16RD 08RO	0	1	5.22322797775	None	None	None	None	1
2.7	2015_May_28_1155	s	s	15	3	Capacity	47	ABS	0	1	08RD 16RO	0	1	6.7506840229	None	None	None	None	1
2.7	2015_May_28_1155	s	s	15	3	Capacity	48	RC	0	2	15RD 08RO	1	0	1.9494099617	172.0	368.0	179	366	1
2.7	2015_May_28_1155	s	s	15	3	Capacity	49	RC	0	1	08RD 15RO	1	0	2.26553702354	-164.0	-33.0	-170	-29	1
2.7	2015_May_28_1155	s	s	15	3	Capacity	50	RC	0	2	15RD 08RO	1	0	2.27940320969	212.0	-310.0	218	-307	1
2.7	2015_May_28_1155	s	s	15	3	Capacity	51	ABS	0	2	16RD 08RO	0	1	4.33812403679	None	None	None	None	1
2.7	2015_May_28_1155	s	s	15	3	Capacity	52	ABS	0	1	08RD 16RO	0	1	4.81018090248	None	None	None	None	1
2.7	2015_May_28_1155	s	s	15	3	Capacity	53	RC	0	2	15RD 08RO	1	0	0.932878017426	-407.0	387.0	-403	392	1
2.7	2015_May_28_1155	s	s	15	3	Capacity	54	RC	0	1	08RD 15RO	0	1	3.35074687004	399.0	-398.0	None	None	0
2.7	2015_May_28_1155	s	s	15	3	Capacity	55	ABS	0	2	16RD 08RO	0	1	4.27257704735	None	None	None	None	1
2.7	2015_May_28_1155	s	s	15	3	Capacity	56	ABS	0	1	08RD 16RO	0	1	3.86016607285	None	None	None	None	1
2.7	2015_May_28_1155	s	s	15	3	Capacity	57	ABS	0	2	16RD 08RO	0	1	3.37502598763	None	None	None	None	1
2.7	2015_May_28_1155	s	s	15	3	Capacity	58	RC	0	1	08RD 15RO	1	0	1.43544888496	290.0	60.0	292	66	1
2.7	2015_May_28_1155	s	s	15	3	Capacity	59	RC	0	2	15RD 08RO	1	0	0.835076808929	-21.0	216.0	-21	212	1
2.7	2015_May_28_1155	s	s	15	3	Capacity	60	ABS	0	1	08RD 16RO	0	1	3.00104999542	None	None	None	None	1
2.7	2015_May_28_1155	s	s	15	3	Capacity	61	ABS	0	2	16RD 08RO	0	1	3.14211893082	None	None	None	None	1
2.7	2015_May_28_1155	s	s	15	3	Capacity	62	ABS	0	1	08RD 16RO	0	1	3.94916200638	None	None	None	None	1
2.7	2015_May_28_1155	s	s	15	3	Capacity	63	RC	0	1	08RD 15RO	1	0	1.65902996063	-413.0	-315.0	-408	-315	1
2.7	2015_May_28_1155	s	s	15	3	Capacity	64	RC	0	2	15RD 08RO	1	0	1.40835905075	162.0	164.0	172	168	1
2.7	2015_May_28_1155	s	s	15	3	Capacity	1	RC	1	0	08VC 15MC	1	0	0.776288032532	255.0	177.0	257	177	1
2.7	2015_May_28_1155	s	s	15	3	Capacity	2	ABS	2	0	16VC 08MC	0	1	1.89202809334	None	None	None	None	1
2.7	2015_May_28_1155	s	s	15	3	Capacity	3	ABS	1	0	08VC 16MC	0	1	3.95454502106	None	None	None	None	1
2.7	2015_May_28_1155	s	s	15	3	Capacity	4	RC	2	0	15VC 08MC	1	0	0.795344114304	19.0	270.0	18	266	1
2.7	2015_May_28_1155	s	s	15	3	Capacity	5	ABS	2	0	16VC 08MC	0	1	2.10269188881	None	None	None	None	1
2.7	2015_May_28_1155	s	s	15	3	Capacity	6	RC	1	0	08VC 15MC	1	0	1.87791490555	506.0	-261.0	517	-256	1
2.7	2015_May_28_1155	s	s	15	3	Capacity	7	RC	2	0	15VC 08MC	1	0	0.87054681778	-429.0	-258.0	-433	-260	1
2.7	2015_May_28_1155	s	s	15	3	Capacity	8	ABS	1	0	08VC 16MC	0	1	1.94826889038	None	None	None	None	1
2.7	2015_May_28_1155	s	s	15	3	Capacity	9	ABS	2	0	16VC 08MC	0	1	1.19986104965	None	None	None	None	1
2.7	2015_May_28_1155	s	s	15	3	Capacity	10	ABS	1	0	08VC 16MC	0	1	1.75316596031	None	None	None	None	1
2.7	2015_May_28_1155	s	s	15	3	Capacity	11	RC	2	0	15VC 08MC	1	0	0.605704069138	-13.0	203.0	-16	203	1
2.7	2015_May_28_1155	s	s	15	3	Capacity	12	RC	1	0	08VC 15MC	1	0	0.493559122086	-49.0	84.0	-43	75	1
2.7	2015_May_28_1155	s	s	15	3	Capacity	13	RC	2	0	15VC 08MC	1	0	1.33522796631	-488.0	-363.0	-482	-358	1
2.7	2015_May_28_1155	s	s	15	3	Capacity	14	ABS	1	0	08VC 16MC	0	1	1.8828098774	None	None	None	None	1
2.7	2015_May_28_1155	s	s	15	3	Capacity	15	ABS	2	0	16VC 08MC	0	1	2.37691497803	None	None	None	None	1
2.7	2015_May_28_1155	s	s	15	3	Capacity	16	RC	1	0	08VC 15MC	1	0	0.914777994156	256.0	323.0	248	318	1
2.7	2015_May_28_1155	s	s	15	3	Capacity	17	ABS	2	0	16VC 08MC	0	1	2.54911780357	None	None	None	None	1
2.7	2015_May_28_1155	s	s	15	3	Capacity	18	RC	1	0	08VC 15MC	1	0	0.635051965714	345.0	356.0	354	355	1
2.7	2015_May_28_1155	s	s	15	3	Capacity	19	ABS	1	0	08VC 16MC	0	1	2.80454993248	None	None	None	None	1
2.7	2015_May_28_1155	s	s	15	3	Capacity	20	RC	2	0	15VC 08MC	1	0	0.740960121155	75.0	-193.0	74	-191	1
2.7	2015_May_28_1155	s	s	15	3	Capacity	21	RC	2	0	15VC 08MC	1	0	0.846893072128	-222.0	-112.0	-213	-111	1
2.7	2015_May_28_1155	s	s	15	3	Capacity	22	ABS	1	0	08VC 16MC	0	1	2.93646407127	None	None	None	None	1
2.7	2015_May_28_1155	s	s	15	3	Capacity	23	ABS	2	0	16VC 08MC	0	1	2.28278517723	None	None	None	None	1
2.7	2015_May_28_1155	s	s	15	3	Capacity	24	RC	1	0	08VC 15MC	1	0	1.45412397385	31.0	-404.0	28	-400	1
2.7	2015_May_28_1155	s	s	15	3	Capacity	25	RC	1	0	08VC 15MC	1	0	0.776293992996	-22.0	-158.0	-27	-151	1
2.7	2015_May_28_1155	s	s	15	3	Capacity	26	RC	2	0	15VC 08MC	1	0	0.691518068314	-408.0	-263.0	-413	-268	1
2.7	2015_May_28_1155	s	s	15	3	Capacity	27	ABS	2	0	16VC 08MC	0	1	1.30130410194	None	None	None	None	1
2.7	2015_May_28_1155	s	s	15	3	Capacity	28	ABS	1	0	08VC 16MC	0	1	2.22790503502	None	None	None	None	1
2.7	2015_May_28_1155	s	s	15	3	Capacity	29	RC	1	0	08VC 15MC	0	1	2.65962004662	20.0	403.0	None	None	0
2.7	2015_May_28_1155	s	s	15	3	Capacity	30	ABS	2	0	16VC 08MC	0	1	2.00974202156	None	None	None	None	1
2.7	2015_May_28_1155	s	s	15	3	Capacity	31	ABS	1	0	08VC 16MC	0	1	1.8200750351	None	None	None	None	1
2.7	2015_May_28_1155	s	s	15	3	Capacity	32	RC	2	0	15VC 08MC	1	0	1.15301609039	303.0	-227.0	304	-225	1
2.7	2015_May_28_1155	s	s	15	3	Capacity	33	ABS	1	0	08VC 16MC	0	1	2.93712902069	None	None	None	None	1
2.7	2015_May_28_1155	s	s	15	3	Capacity	34	RC	2	0	15VC 08MC	1	0	0.893918037415	476.0	64.0	482	61	1
2.7	2015_May_28_1155	s	s	15	3	Capacity	35	RC	1	0	08VC 15MC	1	0	1.10585284233	12.0	-179.0	8	-182	1
2.7	2015_May_28_1155	s	s	15	3	Capacity	36	ABS	2	0	16VC 08MC	0	1	1.40818810463	None	None	None	None	1
2.7	2015_May_28_1155	s	s	15	3	Capacity	37	ABS	1	0	08VC 16MC	0	1	1.97202396393	None	None	None	None	1
2.7	2015_May_28_1155	s	s	15	3	Capacity	38	RC	1	0	08VC 15MC	1	0	0.594988822937	-99.0	-105.0	-98	-98	1
2.7	2015_May_28_1155	s	s	15	3	Capacity	39	ABS	2	0	16VC 08MC	0	1	1.76497507095	None	None	None	None	1
2.7	2015_May_28_1155	s	s	15	3	Capacity	40	RC	2	0	15VC 08MC	1	0	0.641658067703	-375.0	-51.0	-374	-46	1
2.7	2015_May_28_1155	s	s	15	3	Capacity	41	ABS	2	0	16VC 08MC	0	1	1.60046410561	None	None	None	None	1
2.7	2015_May_28_1155	s	s	15	3	Capacity	42	RC	1	0	08VC 15MC	1	0	0.48184800148	40.0	11.0	34	8	1
2.7	2015_May_28_1155	s	s	15	3	Capacity	43	ABS	1	0	08VC 16MC	0	1	1.78347396851	None	None	None	None	1
2.7	2015_May_28_1155	s	s	15	3	Capacity	44	RC	2	0	15VC 08MC	1	0	0.688714981079	203.0	-290.0	193	-290	1
2.7	2015_May_28_1155	s	s	15	3	Capacity	45	ABS	1	0	08VC 16MC	0	1	1.70613694191	None	None	None	None	1
2.7	2015_May_28_1155	s	s	15	3	Capacity	46	ABS	2	0	16VC 08MC	0	1	1.91493606567	None	None	None	None	1
2.7	2015_May_28_1155	s	s	15	3	Capacity	47	RC	2	0	15VC 08MC	1	0	1.22107195854	-52.0	-393.0	-48	-389	1
2.7	2015_May_28_1155	s	s	15	3	Capacity	48	RC	1	0	08VC 15MC	1	0	0.724719047546	219.0	-133.0	222	-131	1
2.7	2015_May_28_1155	s	s	15	3	Capacity	49	RC	1	0	08VC 15MC	1	0	0.576108932495	202.0	40.0	208	36	1
2.7	2015_May_28_1155	s	s	15	3	Capacity	50	ABS	2	0	16VC 08MC	0	1	2.58874893188	None	None	None	None	1
2.7	2015_May_28_1155	s	s	15	3	Capacity	51	RC	2	0	15VC 08MC	1	0	0.890879869461	-443.0	-44.0	-450	-46	1
2.7	2015_May_28_1155	s	s	15	3	Capacity	52	ABS	1	0	08VC 16MC	0	1	2.43062019348	None	None	None	None	1
2.7	2015_May_28_1155	s	s	15	3	Capacity	53	ABS	1	0	08VC 16MC	0	1	2.70347094536	None	None	None	None	1
2.7	2015_May_28_1155	s	s	15	3	Capacity	54	ABS	2	0	16VC 08MC	0	1	2.95367884636	None	None	None	None	1
2.7	2015_May_28_1155	s	s	15	3	Capacity	55	RC	1	0	08VC 15MC	1	0	1.10267305374	-144.0	-294.0	-142	-285	1
2.7	2015_May_28_1155	s	s	15	3	Capacity	56	RC	2	0	15VC 08MC	1	0	0.576072216034	216.0	-51.0	225	-49	1
2.7	2015_May_28_1155	s	s	15	3	Capacity	57	ABS	1	0	08VC 16MC	0	1	2.69473695755	None	None	None	None	1
2.7	2015_May_28_1155	s	s	15	3	Capacity	58	RC	1	0	08VC 15MC	1	0	0.76442694664	241.0	222.0	246	218	1
2.7	2015_May_28_1155	s	s	15	3	Capacity	59	ABS	2	0	16VC 08MC	1	0	0.592484951019	None	None	281	93	0
2.7	2015_May_28_1155	s	s	15	3	Capacity	60	RC	2	0	15VC 08MC	1	0	0.960240125656	-71.0	-173.0	-70	-174	1
2.7	2015_May_28_1155	s	s	15	3	Capacity	61	ABS	1	0	08VC 16MC	0	1	2.44749307632	None	None	None	None	1
2.7	2015_May_28_1155	s	s	15	3	Capacity	62	RC	2	0	15VC 08MC	1	0	1.01164889336	-4.0	-402.0	-5	-394	1
2.7	2015_May_28_1155	s	s	15	3	Capacity	63	ABS	2	0	16VC 08MC	0	1	1.43531298637	None	None	None	None	1
2.7	2015_May_28_1155	s	s	15	3	Capacity	64	RC	1	0	08VC 15MC	1	0	0.632774114609	-72.0	-222.0	-76	-222	1
2.7	2015_May_28_1155	s	s	15	3	SIC	1	RC	2	2	09VD 02VO 02VC 02MD 02MO 02MC 02RD 02RO	1	0	0.787811994553	-428.0	366.0	-414	371	1
2.7	2015_May_28_1155	s	s	15	3	SIC	2	ABS	2	0	02VD 02VO 10VC 02MD 02MO 02MC 02RD 02RO	0	1	1.64159393311	None	None	None	None	1
2.7	2015_May_28_1155	s	s	15	3	SIC	3	RC	1	1	02VD 02VO 02VC 02MD 09MO 02MC 02RD 02RO	1	0	0.997213840485	381.0	-53.0	386	-46	1
2.7	2015_May_28_1155	s	s	15	3	SIC	4	ABS	2	1	02VD 10VO 02VC 02MD 02MO 02MC 02RD 02RO	0	1	2.19691896439	None	None	None	None	1
2.7	2015_May_28_1155	s	s	15	3	SIC	5	RC	0	2	02VD 02VO 02VC 02MD 02MO 02MC 09RD 02RO	1	0	0.712423801422	-368.0	30.0	-370	28	1
2.7	2015_May_28_1155	s	s	15	3	SIC	6	RC	2	0	02VD 02VO 09VC 02MD 02MO 02MC 02RD 02RO	1	0	0.935832977295	-396.0	-97.0	-406	-89	1
2.7	2015_May_28_1155	s	s	15	3	SIC	7	ABS	0	1	02VD 02VO 02VC 02MD 02MO 02MC 02RD 10RO	0	1	3.27161097527	None	None	None	None	1
2.7	2015_May_28_1155	s	s	15	3	SIC	8	RC	1	0	02VD 02VO 02VC 02MD 02MO 09MC 02RD 02RO	1	0	1.22380018234	-152.0	-27.0	-144	-28	1
2.7	2015_May_28_1155	s	s	15	3	SIC	9	ABS	1	1	02VD 02VO 02VC 02MD 10MO 02MC 02RD 02RO	0	1	2.66906905174	None	None	None	None	1
2.7	2015_May_28_1155	s	s	15	3	SIC	10	RC	1	2	02VD 02VO 02VC 09MD 02MO 02MC 02RD 02RO	1	0	1.38827300072	-50.0	-240.0	-52	-235	1
2.7	2015_May_28_1155	s	s	15	3	SIC	11	ABS	1	2	02VD 02VO 02VC 10MD 02MO 02MC 02RD 02RO	0	1	2.16505503654	None	None	None	None	1
2.7	2015_May_28_1155	s	s	15	3	SIC	12	ABS	0	2	02VD 02VO 02VC 02MD 02MO 02MC 10RD 02RO	0	1	2.18638801575	None	None	None	None	1
2.7	2015_May_28_1155	s	s	15	3	SIC	13	RC	2	1	02VD 09VO 02VC 02MD 02MO 02MC 02RD 02RO	1	0	0.929206132889	225.0	-126.0	221	-121	1
2.7	2015_May_28_1155	s	s	15	3	SIC	14	ABS	2	2	10VD 02VO 02VC 02MD 02MO 02MC 02RD 02RO	0	1	2.15919303894	None	None	None	None	1
2.7	2015_May_28_1155	s	s	15	3	SIC	15	RC	0	1	02VD 02VO 02VC 02MD 02MO 02MC 02RD 09RO	1	0	0.903337001801	-234.0	32.0	-235	29	1
2.7	2015_May_28_1155	s	s	15	3	SIC	16	ABS	1	0	02VD 02VO 02VC 02MD 02MO 10MC 02RD 02RO	0	1	2.49476504326	None	None	None	None	1
2.7	2015_May_28_1155	s	s	15	3	SIC	17	ABS	2	1	02VD 10VO 02VC 02MD 02MO 02MC 02RD 02RO	0	1	1.83150410652	None	None	None	None	1
2.7	2015_May_28_1155	s	s	15	3	SIC	18	RC	2	2	09VD 02VO 02VC 02MD 02MO 02MC 02RD 02RO	1	0	0.682437181473	171.0	-20.0	165	-17	1
2.7	2015_May_28_1155	s	s	15	3	SIC	19	RC	2	0	02VD 02VO 09VC 02MD 02MO 02MC 02RD 02RO	1	0	1.97446703911	-533.0	-291.0	-531	-294	1
2.7	2015_May_28_1155	s	s	15	3	SIC	20	RC	1	0	02VD 02VO 02VC 02MD 02MO 09MC 02RD 02RO	1	0	1.64719796181	-87.0	-186.0	-82	-185	1
2.7	2015_May_28_1155	s	s	15	3	SIC	21	RC	2	1	02VD 09VO 02VC 02MD 02MO 02MC 02RD 02RO	1	0	2.52993607521	209.0	-286.0	213	-286	1
2.7	2015_May_28_1155	s	s	15	3	SIC	22	ABS	1	2	02VD 02VO 02VC 10MD 02MO 02MC 02RD 02RO	0	1	2.91607999802	None	None	None	None	1
2.7	2015_May_28_1155	s	s	15	3	SIC	23	ABS	0	1	02VD 02VO 02VC 02MD 02MO 02MC 02RD 10RO	0	1	3.9660449028	None	None	None	None	1
2.7	2015_May_28_1155	s	s	15	3	SIC	24	RC	0	1	02VD 02VO 02VC 02MD 02MO 02MC 02RD 09RO	1	0	2.93024086952	287.0	-313.0	288	-314	1
2.7	2015_May_28_1155	s	s	15	3	SIC	25	ABS	2	0	02VD 02VO 10VC 02MD 02MO 02MC 02RD 02RO	0	1	2.1721830368	None	None	None	None	1
2.7	2015_May_28_1155	s	s	15	3	SIC	26	ABS	1	0	02VD 02VO 02VC 02MD 02MO 10MC 02RD 02RO	0	1	2.82986092567	None	None	None	None	1
2.7	2015_May_28_1155	s	s	15	3	SIC	27	ABS	2	2	10VD 02VO 02VC 02MD 02MO 02MC 02RD 02RO	0	1	2.25937104225	None	None	None	None	1
2.7	2015_May_28_1155	s	s	15	3	SIC	28	ABS	0	2	02VD 02VO 02VC 02MD 02MO 02MC 10RD 02RO	0	1	2.60908794403	None	None	None	None	1
2.7	2015_May_28_1155	s	s	15	3	SIC	29	ABS	1	1	02VD 02VO 02VC 02MD 10MO 02MC 02RD 02RO	0	1	2.52994394302	None	None	None	None	1
2.7	2015_May_28_1155	s	s	15	3	SIC	30	RC	1	2	02VD 02VO 02VC 09MD 02MO 02MC 02RD 02RO	1	0	1.51783299446	-252.0	302.0	-257	294	1
2.7	2015_May_28_1155	s	s	15	3	SIC	31	RC	1	1	02VD 02VO 02VC 02MD 09MO 02MC 02RD 02RO	1	0	0.75862288475	-92.0	172.0	-92	175	1
2.7	2015_May_28_1155	s	s	15	3	SIC	32	RC	0	2	02VD 02VO 02VC 02MD 02MO 02MC 09RD 02RO	1	0	1.80836391449	368.0	-97.0	369	-96	1
2.7	2015_May_28_1155	s	s	15	3	SIC	33	RC	2	1	02VD 09VO 02VC 02MD 02MO 02MC 02RD 02RO	1	0	1.84463906288	-143.0	-361.0	-149	-366	1
2.7	2015_May_28_1155	s	s	15	3	SIC	34	RC	1	2	02VD 02VO 02VC 09MD 02MO 02MC 02RD 02RO	1	0	1.33750081062	-537.0	59.0	-534	64	1
2.7	2015_May_28_1155	s	s	15	3	SIC	35	ABS	1	1	02VD 02VO 02VC 02MD 10MO 02MC 02RD 02RO	0	1	2.24180698395	None	None	None	None	1
2.7	2015_May_28_1155	s	s	15	3	SIC	36	RC	2	2	09VD 02VO 02VC 02MD 02MO 02MC 02RD 02RO	1	0	1.53492999077	-456.0	-354.0	-446	-346	1
2.7	2015_May_28_1155	s	s	15	3	SIC	37	ABS	0	2	02VD 02VO 02VC 02MD 02MO 02MC 10RD 02RO	0	1	2.42408919334	None	None	None	None	1
2.7	2015_May_28_1155	s	s	15	3	SIC	38	ABS	2	0	02VD 02VO 10VC 02MD 02MO 02MC 02RD 02RO	0	1	2.75359106064	None	None	None	None	1
2.7	2015_May_28_1155	s	s	15	3	SIC	39	ABS	1	0	02VD 02VO 02VC 02MD 02MO 10MC 02RD 02RO	0	1	2.50699901581	None	None	None	None	1
2.7	2015_May_28_1155	s	s	15	3	SIC	40	ABS	2	1	02VD 10VO 02VC 02MD 02MO 02MC 02RD 02RO	0	1	1.91782712936	None	None	None	None	1
2.7	2015_May_28_1155	s	s	15	3	SIC	41	RC	1	1	02VD 02VO 02VC 02MD 09MO 02MC 02RD 02RO	1	0	0.835031032562	-129.0	-15.0	-119	-14	1
2.7	2015_May_28_1155	s	s	15	3	SIC	42	RC	0	2	02VD 02VO 02VC 02MD 02MO 02MC 09RD 02RO	1	0	1.20025491714	-333.0	325.0	-336	317	1
2.7	2015_May_28_1155	s	s	15	3	SIC	43	ABS	2	2	10VD 02VO 02VC 02MD 02MO 02MC 02RD 02RO	0	1	1.70212006569	None	None	None	None	1
2.7	2015_May_28_1155	s	s	15	3	SIC	44	RC	2	0	02VD 02VO 09VC 02MD 02MO 02MC 02RD 02RO	1	0	1.2688639164	-485.0	58.0	-489	63	1
2.7	2015_May_28_1155	s	s	15	3	SIC	45	RC	1	0	02VD 02VO 02VC 02MD 02MO 09MC 02RD 02RO	1	0	0.846699953079	2.0	-76.0	2	-78	1
2.7	2015_May_28_1155	s	s	15	3	SIC	46	ABS	1	2	02VD 02VO 02VC 10MD 02MO 02MC 02RD 02RO	0	1	2.32732200623	None	None	None	None	1
2.7	2015_May_28_1155	s	s	15	3	SIC	47	ABS	0	1	02VD 02VO 02VC 02MD 02MO 02MC 02RD 10RO	0	1	4.0317440033	None	None	None	None	1
2.7	2015_May_28_1155	s	s	15	3	SIC	48	RC	0	1	02VD 02VO 02VC 02MD 02MO 02MC 02RD 09RO	1	0	1.91789603233	-105.0	-408.0	-113	-404	1
2.7	2015_May_28_1155	s	s	15	3	SIC	49	ABS	0	2	02VD 02VO 02VC 02MD 02MO 02MC 10RD 02RO	0	1	2.3008389473	None	None	None	None	1
2.7	2015_May_28_1155	s	s	15	3	SIC	50	ABS	2	0	02VD 02VO 10VC 02MD 02MO 02MC 02RD 02RO	0	1	1.99849295616	None	None	None	None	1
2.7	2015_May_28_1155	s	s	15	3	SIC	51	RC	0	2	02VD 02VO 02VC 02MD 02MO 02MC 09RD 02RO	1	0	1.14971399307	417.0	115.0	406	125	1
2.7	2015_May_28_1155	s	s	15	3	SIC	52	RC	2	0	02VD 02VO 09VC 02MD 02MO 02MC 02RD 02RO	1	0	1.7413649559	-495.0	-300.0	-496	-296	1
2.7	2015_May_28_1155	s	s	15	3	SIC	53	RC	1	0	02VD 02VO 02VC 02MD 02MO 09MC 02RD 02RO	1	0	1.85362696648	515.0	49.0	517	45	1
2.7	2015_May_28_1155	s	s	15	3	SIC	54	ABS	2	2	10VD 02VO 02VC 02MD 02MO 02MC 02RD 02RO	1	0	2.20047903061	None	None	-460	84	0
2.7	2015_May_28_1155	s	s	15	3	SIC	55	ABS	0	1	02VD 02VO 02VC 02MD 02MO 02MC 02RD 10RO	0	1	3.74238801003	None	None	None	None	1
2.7	2015_May_28_1155	s	s	15	3	SIC	56	RC	1	2	02VD 02VO 02VC 09MD 02MO 02MC 02RD 02RO	1	0	0.782243967056	101.0	207.0	104	200	1
2.7	2015_May_28_1155	s	s	15	3	SIC	57	RC	0	1	02VD 02VO 02VC 02MD 02MO 02MC 02RD 09RO	1	0	1.58034610748	163.0	-86.0	157	-86	1
2.7	2015_May_28_1155	s	s	15	3	SIC	58	RC	1	1	02VD 02VO 02VC 02MD 09MO 02MC 02RD 02RO	1	0	1.02092289925	257.0	396.0	260	404	1
2.7	2015_May_28_1155	s	s	15	3	SIC	59	RC	2	1	02VD 09VO 02VC 02MD 02MO 02MC 02RD 02RO	1	0	1.27053618431	-129.0	-4.0	-128	3	1
2.7	2015_May_28_1155	s	s	15	3	SIC	60	ABS	1	2	02VD 02VO 02VC 10MD 02MO 02MC 02RD 02RO	0	1	2.31819009781	None	None	None	None	1
2.7	2015_May_28_1155	s	s	15	3	SIC	61	ABS	2	1	02VD 10VO 02VC 02MD 02MO 02MC 02RD 02RO	0	1	2.7539460659	None	None	None	None	1
2.7	2015_May_28_1155	s	s	15	3	SIC	62	ABS	1	1	02VD 02VO 02VC 02MD 10MO 02MC 02RD 02RO	0	1	2.06843900681	None	None	None	None	1
2.7	2015_May_28_1155	s	s	15	3	SIC	63	ABS	1	0	02VD 02VO 02VC 02MD 02MO 10MC 02RD 02RO	0	1	3.39851284027	None	None	None	None	1
2.7	2015_May_28_1155	s	s	15	3	SIC	64	RC	2	2	09VD 02VO 02VC 02MD 02MO 02MC 02RD 02RO	1	0	1.61806201935	-532.0	9.0	-530	4	1
2.7	2015_May_28_1155	s	s	15	3	SIC	65	RC	2	1	02VD 09VO 02VC 02MD 02MO 02MC 02RD 02RO	1	0	1.69203591347	515.0	-45.0	520	-42	1
2.7	2015_May_28_1155	s	s	15	3	SIC	66	RC	2	0	02VD 02VO 09VC 02MD 02MO 02MC 02RD 02RO	1	0	0.693641901016	67.0	121.0	65	128	1
2.7	2015_May_28_1155	s	s	15	3	SIC	67	RC	1	0	02VD 02VO 02VC 02MD 02MO 09MC 02RD 02RO	1	0	1.42084407806	182.0	-123.0	185	-124	1
2.7	2015_May_28_1155	s	s	15	3	SIC	68	RC	0	2	02VD 02VO 02VC 02MD 02MO 02MC 09RD 02RO	1	0	2.50381207466	-222.0	-294.0	-212	-292	1
2.7	2015_May_28_1155	s	s	15	3	SIC	69	ABS	2	1	02VD 10VO 02VC 02MD 02MO 02MC 02RD 02RO	0	1	1.86827516556	None	None	None	None	1
2.7	2015_May_28_1155	s	s	15	3	SIC	70	ABS	0	2	02VD 02VO 02VC 02MD 02MO 02MC 10RD 02RO	0	1	2.95146799088	None	None	None	None	1
2.7	2015_May_28_1155	s	s	15	3	SIC	71	RC	1	1	02VD 02VO 02VC 02MD 09MO 02MC 02RD 02RO	1	0	1.68896603584	-407.0	42.0	-400	47	1
2.7	2015_May_28_1155	s	s	15	3	SIC	72	ABS	0	1	02VD 02VO 02VC 02MD 02MO 02MC 02RD 10RO	0	1	3.00742387772	None	None	None	None	1
2.7	2015_May_28_1155	s	s	15	3	SIC	73	ABS	2	0	02VD 02VO 10VC 02MD 02MO 02MC 02RD 02RO	0	1	1.69434595108	None	None	None	None	1
2.7	2015_May_28_1155	s	s	15	3	SIC	74	ABS	1	1	02VD 02VO 02VC 02MD 10MO 02MC 02RD 02RO	0	1	2.82427406311	None	None	None	None	1
2.7	2015_May_28_1155	s	s	15	3	SIC	75	ABS	1	0	02VD 02VO 02VC 02MD 02MO 10MC 02RD 02RO	0	1	2.20726013184	None	None	None	None	1
2.7	2015_May_28_1155	s	s	15	3	SIC	76	ABS	1	2	02VD 02VO 02VC 10MD 02MO 02MC 02RD 02RO	0	1	2.4594540596	None	None	None	None	1
2.7	2015_May_28_1155	s	s	15	3	SIC	77	RC	0	1	02VD 02VO 02VC 02MD 02MO 02MC 02RD 09RO	1	0	1.2290160656	366.0	74.0	359	80	1
2.7	2015_May_28_1155	s	s	15	3	SIC	78	RC	1	2	02VD 02VO 02VC 09MD 02MO 02MC 02RD 02RO	1	0	0.983926057816	-325.0	385.0	-324	383	1
2.7	2015_May_28_1155	s	s	15	3	SIC	79	ABS	2	2	10VD 02VO 02VC 02MD 02MO 02MC 02RD 02RO	0	1	2.04735994339	None	None	None	None	1
2.7	2015_May_28_1155	s	s	15	3	SIC	80	RC	2	2	09VD 02VO 02VC 02MD 02MO 02MC 02RD 02RO	1	0	1.54826307297	384.0	-395.0	390	-396	1
2.7	2015_May_28_1155	s	s	15	3	SIC	81	ABS	2	2	10VD 02VO 02VC 02MD 02MO 02MC 02RD 02RO	0	1	2.00962901115	None	None	None	None	1
2.7	2015_May_28_1155	s	s	15	3	SIC	82	RC	1	1	02VD 02VO 02VC 02MD 09MO 02MC 02RD 02RO	1	0	0.985081911087	281.0	-225.0	277	-220	1
2.7	2015_May_28_1155	s	s	15	3	SIC	83	RC	2	1	02VD 09VO 02VC 02MD 02MO 02MC 02RD 02RO	1	0	1.34128189087	-351.0	119.0	-353	117	1
2.7	2015_May_28_1155	s	s	15	3	SIC	84	ABS	1	1	02VD 02VO 02VC 02MD 10MO 02MC 02RD 02RO	0	1	3.02479696274	None	None	None	None	1
2.7	2015_May_28_1155	s	s	15	3	SIC	85	ABS	2	1	02VD 10VO 02VC 02MD 02MO 02MC 02RD 02RO	0	1	1.91779208183	None	None	None	None	1
2.7	2015_May_28_1155	s	s	15	3	SIC	86	RC	1	0	02VD 02VO 02VC 02MD 02MO 09MC 02RD 02RO	1	0	1.12653899193	192.0	-257.0	196	-256	1
2.7	2015_May_28_1155	s	s	15	3	SIC	87	ABS	2	0	02VD 02VO 10VC 02MD 02MO 02MC 02RD 02RO	0	1	2.04746508598	None	None	None	None	1
2.7	2015_May_28_1155	s	s	15	3	SIC	88	RC	0	1	02VD 02VO 02VC 02MD 02MO 02MC 02RD 09RO	1	0	0.65388417244	278.0	60.0	267	63	1
2.7	2015_May_28_1155	s	s	15	3	SIC	89	ABS	0	2	02VD 02VO 02VC 02MD 02MO 02MC 10RD 02RO	0	1	2.32754993439	None	None	None	None	1
2.7	2015_May_28_1155	s	s	15	3	SIC	90	ABS	1	2	02VD 02VO 02VC 10MD 02MO 02MC 02RD 02RO	0	1	2.0098991394	None	None	None	None	1
2.7	2015_May_28_1155	s	s	15	3	SIC	91	RC	0	2	02VD 02VO 02VC 02MD 02MO 02MC 09RD 02RO	1	0	1.65374207497	463.0	64.0	458	68	1
2.7	2015_May_28_1155	s	s	15	3	SIC	92	RC	2	0	02VD 02VO 09VC 02MD 02MO 02MC 02RD 02RO	1	0	0.809182167053	120.0	-61.0	109	-57	1
2.7	2015_May_28_1155	s	s	15	3	SIC	93	ABS	0	1	02VD 02VO 02VC 02MD 02MO 02MC 02RD 10RO	0	1	3.11624503136	None	None	None	None	1
2.7	2015_May_28_1155	s	s	15	3	SIC	94	RC	2	2	09VD 02VO 02VC 02MD 02MO 02MC 02RD 02RO	1	0	1.61014604568	302.0	-234.0	305	-234	1
2.7	2015_May_28_1155	s	s	15	3	SIC	95	RC	1	2	02VD 02VO 02VC 09MD 02MO 02MC 02RD 02RO	1	0	1.52472686768	-199.0	-121.0	-195	-124	1
2.7	2015_May_28_1155	s	s	15	3	SIC	96	ABS	1	0	02VD 02VO 02VC 02MD 02MO 10MC 02RD 02RO	0	1	2.40053105354	None	None	None	None	1
2.7	2015_May_28_1155	s	s	15	3	SIC	97	ABS	0	2	02VD 02VO 02VC 02MD 02MO 02MC 10RD 02RO	0	1	2.69486188889	None	None	None	None	1
2.7	2015_May_28_1155	s	s	15	3	SIC	98	RC	1	1	02VD 02VO 02VC 02MD 09MO 02MC 02RD 02RO	1	0	1.01537203789	327.0	163.0	326	163	1
2.7	2015_May_28_1155	s	s	15	3	SIC	99	ABS	2	0	02VD 02VO 10VC 02MD 02MO 02MC 02RD 02RO	0	1	2.10153412819	None	None	None	None	1
2.7	2015_May_28_1155	s	s	15	3	SIC	100	ABS	1	1	02VD 02VO 02VC 02MD 10MO 02MC 02RD 02RO	0	1	2.28287100792	None	None	None	None	1
2.7	2015_May_28_1155	s	s	15	3	SIC	101	ABS	1	0	02VD 02VO 02VC 02MD 02MO 10MC 02RD 02RO	0	1	2.48994803429	None	None	None	None	1
2.7	2015_May_28_1155	s	s	15	3	SIC	102	ABS	2	1	02VD 10VO 02VC 02MD 02MO 02MC 02RD 02RO	0	1	2.85526895523	None	None	None	None	1
2.7	2015_May_28_1155	s	s	15	3	SIC	103	RC	2	0	02VD 02VO 09VC 02MD 02MO 02MC 02RD 02RO	1	0	1.80775308609	414.0	-349.0	405	-348	1
2.7	2015_May_28_1155	s	s	15	3	SIC	104	RC	1	0	02VD 02VO 02VC 02MD 02MO 09MC 02RD 02RO	1	0	0.764868021011	378.0	58.0	378	61	1
2.7	2015_May_28_1155	s	s	15	3	SIC	105	RC	0	2	02VD 02VO 02VC 02MD 02MO 02MC 09RD 02RO	1	0	0.799688816071	-350.0	330.0	-354	327	1
2.7	2015_May_28_1155	s	s	15	3	SIC	106	RC	2	1	02VD 09VO 02VC 02MD 02MO 02MC 02RD 02RO	1	0	0.571315050125	-107.0	121.0	-106	110	1
2.7	2015_May_28_1155	s	s	15	3	SIC	107	RC	1	2	02VD 02VO 02VC 09MD 02MO 02MC 02RD 02RO	1	0	2.34914398193	410.0	83.0	412	76	1
2.7	2015_May_28_1155	s	s	15	3	SIC	108	ABS	0	1	02VD 02VO 02VC 02MD 02MO 02MC 02RD 10RO	0	1	3.8602039814	None	None	None	None	1
2.7	2015_May_28_1155	s	s	15	3	SIC	109	RC	0	1	02VD 02VO 02VC 02MD 02MO 02MC 02RD 09RO	1	0	0.935371875763	-124.0	149.0	-128	147	1
2.7	2015_May_28_1155	s	s	15	3	SIC	110	ABS	1	2	02VD 02VO 02VC 10MD 02MO 02MC 02RD 02RO	0	1	2.47119212151	None	None	None	None	1
2.7	2015_May_28_1155	s	s	15	3	SIC	111	RC	2	2	09VD 02VO 02VC 02MD 02MO 02MC 02RD 02RO	1	0	1.6184990406	389.0	8.0	379	12	1
2.7	2015_May_28_1155	s	s	15	3	SIC	112	ABS	2	2	10VD 02VO 02VC 02MD 02MO 02MC 02RD 02RO	0	1	2.21212100983	None	None	None	None	1
2.7	2015_May_28_1155	s	s	15	3	SIC	113	RC	2	2	09VD 02VO 02VC 02MD 02MO 02MC 02RD 02RO	1	0	1.453977108	-413.0	-273.0	-404	-264	1
2.7	2015_May_28_1155	s	s	15	3	SIC	114	ABS	0	1	02VD 02VO 02VC 02MD 02MO 02MC 02RD 10RO	0	1	3.2546608448	None	None	None	None	1
2.7	2015_May_28_1155	s	s	15	3	SIC	115	ABS	2	0	02VD 02VO 10VC 02MD 02MO 02MC 02RD 02RO	0	1	1.89052605629	None	None	None	None	1
2.7	2015_May_28_1155	s	s	15	3	SIC	116	ABS	1	1	02VD 02VO 02VC 02MD 10MO 02MC 02RD 02RO	0	1	2.45942687988	None	None	None	None	1
2.7	2015_May_28_1155	s	s	15	3	SIC	117	RC	0	2	02VD 02VO 02VC 02MD 02MO 02MC 09RD 02RO	1	0	1.90657114983	-402.0	-179.0	-409	-177	1
2.7	2015_May_28_1155	s	s	15	3	SIC	118	RC	2	1	02VD 09VO 02VC 02MD 02MO 02MC 02RD 02RO	1	0	1.741355896	-293.0	393.0	-289	384	1
2.7	2015_May_28_1155	s	s	15	3	SIC	119	RC	2	0	02VD 02VO 09VC 02MD 02MO 02MC 02RD 02RO	1	0	0.795628070831	173.0	259.0	177	260	1
2.7	2015_May_28_1155	s	s	15	3	SIC	120	RC	1	1	02VD 02VO 02VC 02MD 09MO 02MC 02RD 02RO	1	0	3.30691385269	322.0	-386.0	319	-394	1
2.7	2015_May_28_1155	s	s	15	3	SIC	121	RC	1	0	02VD 02VO 02VC 02MD 02MO 09MC 02RD 02RO	1	0	1.28244781494	-508.0	243.0	-497	250	1
2.7	2015_May_28_1155	s	s	15	3	SIC	122	ABS	1	0	02VD 02VO 02VC 02MD 02MO 10MC 02RD 02RO	0	1	2.59632205963	None	None	None	None	1
2.7	2015_May_28_1155	s	s	15	3	SIC	123	ABS	0	2	02VD 02VO 02VC 02MD 02MO 02MC 10RD 02RO	0	1	2.21847200394	None	None	None	None	1
2.7	2015_May_28_1155	s	s	15	3	SIC	124	RC	0	1	02VD 02VO 02VC 02MD 02MO 02MC 02RD 09RO	0	1	3.0670580864	-108.0	-383.0	None	None	0
2.7	2015_May_28_1155	s	s	15	3	SIC	125	ABS	2	2	10VD 02VO 02VC 02MD 02MO 02MC 02RD 02RO	0	1	2.30178499222	None	None	None	None	1
2.7	2015_May_28_1155	s	s	15	3	SIC	126	ABS	1	2	02VD 02VO 02VC 10MD 02MO 02MC 02RD 02RO	0	1	1.5833158493	None	None	None	None	1
2.7	2015_May_28_1155	s	s	15	3	SIC	127	ABS	2	1	02VD 10VO 02VC 02MD 02MO 02MC 02RD 02RO	0	1	2.09467697144	None	None	None	None	1
2.7	2015_May_28_1155	s	s	15	3	SIC	128	RC	1	2	02VD 02VO 02VC 09MD 02MO 02MC 02RD 02RO	1	0	0.658459186554	-50.0	-10.0	-38	-3	1
2.7	2015_May_28_1155	s	s	15	3	SIC	129	RC	0	2	02VD 02VO 02VC 02MD 02MO 02MC 09RD 02RO	1	0	0.964507102966	134.0	-211.0	129	-207	1
2.7	2015_May_28_1155	s	s	15	3	SIC	130	RC	2	2	09VD 02VO 02VC 02MD 02MO 02MC 02RD 02RO	1	0	1.04338502884	299.0	56.0	306	61	1
2.7	2015_May_28_1155	s	s	15	3	SIC	131	RC	1	1	02VD 02VO 02VC 02MD 09MO 02MC 02RD 02RO	1	0	1.65908408165	-230.0	-394.0	-222	-392	1
2.7	2015_May_28_1155	s	s	15	3	SIC	132	ABS	0	1	02VD 02VO 02VC 02MD 02MO 02MC 02RD 10RO	0	1	5.19721007347	None	None	None	None	1
2.7	2015_May_28_1155	s	s	15	3	SIC	133	RC	1	0	02VD 02VO 02VC 02MD 02MO 09MC 02RD 02RO	0	1	4.00885796547	318.0	362.0	None	None	0
2.7	2015_May_28_1155	s	s	15	3	SIC	134	ABS	0	2	02VD 02VO 02VC 02MD 02MO 02MC 10RD 02RO	0	1	2.66614580154	None	None	None	None	1
2.7	2015_May_28_1155	s	s	15	3	SIC	135	RC	2	0	02VD 02VO 09VC 02MD 02MO 02MC 02RD 02RO	1	0	1.31757593155	-57.0	-297.0	-55	-290	1
2.7	2015_May_28_1155	s	s	15	3	SIC	136	ABS	1	2	02VD 02VO 02VC 10MD 02MO 02MC 02RD 02RO	0	1	1.98857307434	None	None	None	None	1
2.7	2015_May_28_1155	s	s	15	3	SIC	137	RC	2	1	02VD 09VO 02VC 02MD 02MO 02MC 02RD 02RO	1	0	0.623177051544	13.0	-46.0	12	-47	1
2.7	2015_May_28_1155	s	s	15	3	SIC	138	RC	0	1	02VD 02VO 02VC 02MD 02MO 02MC 02RD 09RO	1	0	1.51763796806	486.0	-88.0	484	-88	1
2.7	2015_May_28_1155	s	s	15	3	SIC	139	ABS	2	1	02VD 10VO 02VC 02MD 02MO 02MC 02RD 02RO	0	1	1.94769597054	None	None	None	None	1
2.7	2015_May_28_1155	s	s	15	3	SIC	140	ABS	2	0	02VD 02VO 10VC 02MD 02MO 02MC 02RD 02RO	0	1	2.51310706139	None	None	None	None	1
2.7	2015_May_28_1155	s	s	15	3	SIC	141	RC	1	2	02VD 02VO 02VC 09MD 02MO 02MC 02RD 02RO	1	0	0.658556938171	-234.0	280.0	-231	277	1
2.7	2015_May_28_1155	s	s	15	3	SIC	142	ABS	2	2	10VD 02VO 02VC 02MD 02MO 02MC 02RD 02RO	0	1	1.91786599159	None	None	None	None	1
2.7	2015_May_28_1155	s	s	15	3	SIC	143	ABS	1	1	02VD 02VO 02VC 02MD 10MO 02MC 02RD 02RO	0	1	2.71351790428	None	None	None	None	1
2.7	2015_May_28_1155	s	s	15	3	SIC	144	ABS	1	0	02VD 02VO 02VC 02MD 02MO 10MC 02RD 02RO	0	1	2.84764289856	None	None	None	None	1
2.7	2015_May_28_1155	s	s	15	3	SIC	145	ABS	2	2	10VD 02VO 02VC 02MD 02MO 02MC 02RD 02RO	0	1	1.87972903252	None	None	None	None	1
2.7	2015_May_28_1155	s	s	15	3	SIC	146	ABS	1	1	02VD 02VO 02VC 02MD 10MO 02MC 02RD 02RO	0	1	2.95385479927	None	None	None	None	1
2.7	2015_May_28_1155	s	s	15	3	SIC	147	RC	0	1	02VD 02VO 02VC 02MD 02MO 02MC 02RD 09RO	1	0	2.25286102295	37.0	-125.0	47	-123	1
2.7	2015_May_28_1155	s	s	15	3	SIC	148	ABS	0	2	02VD 02VO 02VC 02MD 02MO 02MC 10RD 02RO	0	1	2.84210681915	None	None	None	None	1
2.7	2015_May_28_1155	s	s	15	3	SIC	149	RC	1	0	02VD 02VO 02VC 02MD 02MO 09MC 02RD 02RO	1	0	0.634928941727	-107.0	6.0	-99	4	1
2.7	2015_May_28_1155	s	s	15	3	SIC	150	ABS	2	1	02VD 10VO 02VC 02MD 02MO 02MC 02RD 02RO	0	1	2.35338401794	None	None	None	None	1
2.7	2015_May_28_1155	s	s	15	3	SIC	151	ABS	2	0	02VD 02VO 10VC 02MD 02MO 02MC 02RD 02RO	0	1	2.20781087875	None	None	None	None	1
2.7	2015_May_28_1155	s	s	15	3	SIC	152	RC	1	2	02VD 02VO 02VC 09MD 02MO 02MC 02RD 02RO	1	0	0.903565883636	-74.0	-89.0	-86	-87	1
2.7	2015_May_28_1155	s	s	15	3	SIC	153	RC	0	2	02VD 02VO 02VC 02MD 02MO 02MC 09RD 02RO	1	0	0.992200136185	237.0	258.0	234	267	1
2.7	2015_May_28_1155	s	s	15	3	SIC	154	RC	2	0	02VD 02VO 09VC 02MD 02MO 02MC 02RD 02RO	1	0	1.72456502914	-102.0	-204.0	-105	-207	1
2.7	2015_May_28_1155	s	s	15	3	SIC	155	ABS	1	2	02VD 02VO 02VC 10MD 02MO 02MC 02RD 02RO	0	1	2.16514396667	None	None	None	None	1
2.7	2015_May_28_1155	s	s	15	3	SIC	156	RC	2	1	02VD 09VO 02VC 02MD 02MO 02MC 02RD 02RO	1	0	1.61922502518	-133.0	-185.0	-132	-185	1
2.7	2015_May_28_1155	s	s	15	3	SIC	157	RC	1	1	02VD 02VO 02VC 02MD 09MO 02MC 02RD 02RO	1	0	0.736006975174	86.0	63.0	81	66	1
2.7	2015_May_28_1155	s	s	15	3	SIC	158	ABS	1	0	02VD 02VO 02VC 02MD 02MO 10MC 02RD 02RO	0	1	3.20698308945	None	None	None	None	1
2.7	2015_May_28_1155	s	s	15	3	SIC	159	ABS	0	1	02VD 02VO 02VC 02MD 02MO 02MC 02RD 10RO	0	1	3.62469410896	None	None	None	None	1
2.7	2015_May_28_1155	s	s	15	3	SIC	160	RC	2	2	09VD 02VO 02VC 02MD 02MO 02MC 02RD 02RO	0	1	1.97157001495	442.0	402.0	None	None	0
2.7	2015_May_28_1155	s	s	15	3	SIC	161	ABS	1	1	02VD 02VO 02VC 02MD 10MO 02MC 02RD 02RO	0	1	3.06585478783	None	None	None	None	1
2.7	2015_May_28_1155	s	s	15	3	SIC	162	RC	2	0	02VD 02VO 09VC 02MD 02MO 02MC 02RD 02RO	1	0	0.623188972473	-50.0	-5.0	-42	-2	1
2.7	2015_May_28_1155	s	s	15	3	SIC	163	RC	1	0	02VD 02VO 02VC 02MD 02MO 09MC 02RD 02RO	0	1	2.89501309395	-33.0	-221.0	None	None	0
2.7	2015_May_28_1155	s	s	15	3	SIC	164	ABS	2	1	02VD 10VO 02VC 02MD 02MO 02MC 02RD 02RO	0	1	2.10636615753	None	None	None	None	1
2.7	2015_May_28_1155	s	s	15	3	SIC	165	ABS	0	1	02VD 02VO 02VC 02MD 02MO 02MC 02RD 10RO	0	1	4.2673561573	None	None	None	None	1
2.7	2015_May_28_1155	s	s	15	3	SIC	166	RC	1	2	02VD 02VO 02VC 09MD 02MO 02MC 02RD 02RO	1	0	0.69819688797	357.0	-22.0	366	-19	1
2.7	2015_May_28_1155	s	s	15	3	SIC	167	RC	1	1	02VD 02VO 02VC 02MD 09MO 02MC 02RD 02RO	1	0	1.99813389778	383.0	-401.0	372	-394	1
2.7	2015_May_28_1155	s	s	15	3	SIC	168	RC	0	1	02VD 02VO 02VC 02MD 02MO 02MC 02RD 09RO	1	0	1.10012197495	-291.0	219.0	-287	221	1
2.7	2015_May_28_1155	s	s	15	3	SIC	169	ABS	1	2	02VD 02VO 02VC 10MD 02MO 02MC 02RD 02RO	0	1	1.9296810627	None	None	None	None	1
2.7	2015_May_28_1155	s	s	15	3	SIC	170	ABS	1	0	02VD 02VO 02VC 02MD 02MO 10MC 02RD 02RO	0	1	4.46074485779	None	None	None	None	1
2.7	2015_May_28_1155	s	s	15	3	SIC	171	RC	0	2	02VD 02VO 02VC 02MD 02MO 02MC 09RD 02RO	1	0	2.82453083992	-483.0	-391.0	-472	-391	1
2.7	2015_May_28_1155	s	s	15	3	SIC	172	ABS	2	2	10VD 02VO 02VC 02MD 02MO 02MC 02RD 02RO	0	1	2.17268514633	None	None	None	None	1
2.7	2015_May_28_1155	s	s	15	3	SIC	173	ABS	2	0	02VD 02VO 10VC 02MD 02MO 02MC 02RD 02RO	0	1	3.30700993538	None	None	None	None	1
2.7	2015_May_28_1155	s	s	15	3	SIC	174	RC	2	1	02VD 09VO 02VC 02MD 02MO 02MC 02RD 02RO	1	0	1.58837890625	-314.0	-53.0	-315	-60	1
2.7	2015_May_28_1155	s	s	15	3	SIC	175	RC	2	2	09VD 02VO 02VC 02MD 02MO 02MC 02RD 02RO	1	0	0.702311038971	92.0	4.0	103	7	1
2.7	2015_May_28_1155	s	s	15	3	SIC	176	ABS	0	2	02VD 02VO 02VC 02MD 02MO 02MC 10RD 02RO	0	1	3.60843300819	None	None	None	None	1
2.7	2015_May_28_1155	s	s	15	3	SIC	177	RC	1	0	02VD 02VO 02VC 02MD 02MO 09MC 02RD 02RO	1	0	1.93667197227	-231.0	-230.0	-234	-227	1
2.7	2015_May_28_1155	s	s	15	3	SIC	178	RC	1	2	02VD 02VO 02VC 09MD 02MO 02MC 02RD 02RO	1	0	0.524154901505	31.0	60.0	35	58	1
2.7	2015_May_28_1155	s	s	15	3	SIC	179	RC	0	1	02VD 02VO 02VC 02MD 02MO 02MC 02RD 09RO	1	0	0.52911901474	257.0	202.0	260	199	1
2.7	2015_May_28_1155	s	s	15	3	SIC	180	ABS	0	2	02VD 02VO 02VC 02MD 02MO 02MC 10RD 02RO	0	1	2.33828496933	None	None	None	None	1
2.7	2015_May_28_1155	s	s	15	3	SIC	181	ABS	1	0	02VD 02VO 02VC 02MD 02MO 10MC 02RD 02RO	0	1	4.04844093323	None	None	None	None	1
2.7	2015_May_28_1155	s	s	15	3	SIC	182	ABS	2	0	02VD 02VO 10VC 02MD 02MO 02MC 02RD 02RO	0	1	2.20040917397	None	None	None	None	1
2.7	2015_May_28_1155	s	s	15	3	SIC	183	ABS	1	1	02VD 02VO 02VC 02MD 10MO 02MC 02RD 02RO	0	1	3.99345397949	None	None	None	None	1
2.7	2015_May_28_1155	s	s	15	3	SIC	184	ABS	1	2	02VD 02VO 02VC 10MD 02MO 02MC 02RD 02RO	0	1	3.73757815361	None	None	None	None	1
2.7	2015_May_28_1155	s	s	15	3	SIC	185	RC	2	2	09VD 02VO 02VC 02MD 02MO 02MC 02RD 02RO	1	0	0.968405008316	-143.0	-171.0	-144	-168	1
2.7	2015_May_28_1155	s	s	15	3	SIC	186	RC	0	2	02VD 02VO 02VC 02MD 02MO 02MC 09RD 02RO	0	1	3.12556481361	31.0	-68.0	None	None	0
2.7	2015_May_28_1155	s	s	15	3	SIC	187	RC	2	0	02VD 02VO 09VC 02MD 02MO 02MC 02RD 02RO	1	0	3.40106105804	-199.0	74.0	-207	71	1
2.7	2015_May_28_1155	s	s	15	3	SIC	188	RC	2	1	02VD 09VO 02VC 02MD 02MO 02MC 02RD 02RO	1	0	2.25936794281	-412.0	155.0	-414	154	1
2.7	2015_May_28_1155	s	s	15	3	SIC	189	ABS	2	2	10VD 02VO 02VC 02MD 02MO 02MC 02RD 02RO	0	1	2.53968811035	None	None	None	None	1
2.7	2015_May_28_1155	s	s	15	3	SIC	190	RC	1	1	02VD 02VO 02VC 02MD 09MO 02MC 02RD 02RO	1	0	1.00891780853	126.0	-204.0	118	-196	1
2.7	2015_May_28_1155	s	s	15	3	SIC	191	ABS	0	1	02VD 02VO 02VC 02MD 02MO 02MC 02RD 10RO	0	1	3.23629903793	None	None	None	None	1
2.7	2015_May_28_1155	s	s	15	3	SIC	192	ABS	2	1	02VD 10VO 02VC 02MD 02MO 02MC 02RD 02RO	0	1	2.05922913551	None	None	None	None	1
2.7	2015_May_28_1155	s	s	15	3	SIC	193	ABS	1	0	02VD 02VO 02VC 02MD 02MO 10MC 02RD 02RO	0	1	1.88267612457	None	None	None	None	1
2.7	2015_May_28_1155	s	s	15	3	SIC	194	RC	2	0	02VD 02VO 09VC 02MD 02MO 02MC 02RD 02RO	0	1	2.39822411537	-321.0	296.0	None	None	0
2.7	2015_May_28_1155	s	s	15	3	SIC	195	RC	2	1	02VD 09VO 02VC 02MD 02MO 02MC 02RD 02RO	1	0	0.893779993057	182.0	103.0	176	105	1
2.7	2015_May_28_1155	s	s	15	3	SIC	196	RC	1	2	02VD 02VO 02VC 09MD 02MO 02MC 02RD 02RO	1	0	2.32494783401	-348.0	-95.0	-348	-90	1
2.7	2015_May_28_1155	s	s	15	3	SIC	197	ABS	0	1	02VD 02VO 02VC 02MD 02MO 02MC 02RD 10RO	0	1	2.98304605484	None	None	None	None	1
2.7	2015_May_28_1155	s	s	15	3	SIC	198	RC	0	1	02VD 02VO 02VC 02MD 02MO 02MC 02RD 09RO	1	0	0.976359128952	449.0	138.0	456	140	1
2.7	2015_May_28_1155	s	s	15	3	SIC	199	RC	1	0	02VD 02VO 02VC 02MD 02MO 09MC 02RD 02RO	1	0	0.799721002579	-24.0	369.0	-38	376	1
2.7	2015_May_28_1155	s	s	15	3	SIC	200	ABS	2	2	10VD 02VO 02VC 02MD 02MO 02MC 02RD 02RO	0	1	1.83544278145	None	None	None	None	1
2.7	2015_May_28_1155	s	s	15	3	SIC	201	ABS	1	1	02VD 02VO 02VC 02MD 10MO 02MC 02RD 02RO	0	1	2.55050110817	None	None	None	None	1
2.7	2015_May_28_1155	s	s	15	3	SIC	202	ABS	0	2	02VD 02VO 02VC 02MD 02MO 02MC 10RD 02RO	0	1	2.50085616112	None	None	None	None	1
2.7	2015_May_28_1155	s	s	15	3	SIC	203	RC	2	2	09VD 02VO 02VC 02MD 02MO 02MC 02RD 02RO	1	0	1.73813796043	-361.0	-210.0	-353	-209	1
2.7	2015_May_28_1155	s	s	15	3	SIC	204	ABS	2	0	02VD 02VO 10VC 02MD 02MO 02MC 02RD 02RO	0	1	2.34788489342	None	None	None	None	1
2.7	2015_May_28_1155	s	s	15	3	SIC	205	RC	0	2	02VD 02VO 02VC 02MD 02MO 02MC 09RD 02RO	1	0	1.16458797455	261.0	-191.0	260	-185	1
2.7	2015_May_28_1155	s	s	15	3	SIC	206	RC	1	1	02VD 02VO 02VC 02MD 09MO 02MC 02RD 02RO	1	0	2.44057488441	347.0	-380.0	337	-381	1
2.7	2015_May_28_1155	s	s	15	3	SIC	207	ABS	1	2	02VD 02VO 02VC 10MD 02MO 02MC 02RD 02RO	0	1	2.50639081001	None	None	None	None	1
2.7	2015_May_28_1155	s	s	15	3	SIC	208	ABS	2	1	02VD 10VO 02VC 02MD 02MO 02MC 02RD 02RO	0	1	2.25932788849	None	None	None	None	1
2.7	2015_May_28_1155	s	s	15	3	SIC	209	RC	2	1	02VD 09VO 02VC 02MD 02MO 02MC 02RD 02RO	1	0	0.882050991058	-50.0	-141.0	-40	-138	1
2.7	2015_May_28_1155	s	s	15	3	SIC	210	RC	0	2	02VD 02VO 02VC 02MD 02MO 02MC 09RD 02RO	1	0	1.05912995338	362.0	-100.0	371	-104	1
2.7	2015_May_28_1155	s	s	15	3	SIC	211	ABS	2	2	10VD 02VO 02VC 02MD 02MO 02MC 02RD 02RO	0	1	1.94763898849	None	None	None	None	1
2.7	2015_May_28_1155	s	s	15	3	SIC	212	RC	2	0	02VD 02VO 09VC 02MD 02MO 02MC 02RD 02RO	1	0	1.04144716263	336.0	324.0	326	326	1
2.7	2015_May_28_1155	s	s	15	3	SIC	213	RC	1	0	02VD 02VO 02VC 02MD 02MO 09MC 02RD 02RO	1	0	2.37703704834	-121.0	-394.0	-113	-388	1
2.7	2015_May_28_1155	s	s	15	3	SIC	214	ABS	1	2	02VD 02VO 02VC 10MD 02MO 02MC 02RD 02RO	0	1	3.04555892944	None	None	None	None	1
2.7	2015_May_28_1155	s	s	15	3	SIC	215	RC	0	1	02VD 02VO 02VC 02MD 02MO 02MC 02RD 09RO	1	0	1.54130911827	518.0	-36.0	514	-35	1
2.7	2015_May_28_1155	s	s	15	3	SIC	216	ABS	1	1	02VD 02VO 02VC 02MD 10MO 02MC 02RD 02RO	0	1	4.17798399925	None	None	None	None	1
2.7	2015_May_28_1155	s	s	15	3	SIC	217	ABS	2	0	02VD 02VO 10VC 02MD 02MO 02MC 02RD 02RO	0	1	2.66626405716	None	None	None	None	1
2.7	2015_May_28_1155	s	s	15	3	SIC	218	RC	2	2	09VD 02VO 02VC 02MD 02MO 02MC 02RD 02RO	1	0	2.51392507553	-540.0	321.0	-543	321	1
2.7	2015_May_28_1155	s	s	15	3	SIC	219	ABS	2	1	02VD 10VO 02VC 02MD 02MO 02MC 02RD 02RO	0	1	2.08278512955	None	None	None	None	1
2.7	2015_May_28_1155	s	s	15	3	SIC	220	ABS	0	1	02VD 02VO 02VC 02MD 02MO 02MC 02RD 10RO	0	1	3.20088911057	None	None	None	None	1
2.7	2015_May_28_1155	s	s	15	3	SIC	221	RC	1	2	02VD 02VO 02VC 09MD 02MO 02MC 02RD 02RO	1	0	0.713089942932	-273.0	145.0	-276	140	1
2.7	2015_May_28_1155	s	s	15	3	SIC	222	ABS	0	2	02VD 02VO 02VC 02MD 02MO 02MC 10RD 02RO	0	1	2.12497401237	None	None	None	None	1
2.7	2015_May_28_1155	s	s	15	3	SIC	223	RC	1	1	02VD 02VO 02VC 02MD 09MO 02MC 02RD 02RO	1	0	1.37012004852	-355.0	176.0	-360	170	1
2.7	2015_May_28_1155	s	s	15	3	SIC	224	ABS	1	0	02VD 02VO 02VC 02MD 02MO 10MC 02RD 02RO	0	1	2.78419589996	None	None	None	None	1
2.7	2015_May_28_1155	s	s	15	3	SIC	225	RC	0	2	02VD 02VO 02VC 02MD 02MO 02MC 09RD 02RO	1	0	1.1505010128	-19.0	329.0	-26	323	1
2.7	2015_May_28_1155	s	s	15	3	SIC	226	RC	2	1	02VD 09VO 02VC 02MD 02MO 02MC 02RD 02RO	1	0	2.15348982811	337.0	-226.0	344	-231	1
2.7	2015_May_28_1155	s	s	15	3	SIC	227	RC	1	0	02VD 02VO 02VC 02MD 02MO 09MC 02RD 02RO	1	0	2.85440015793	-414.0	400.0	-409	401	1
2.7	2015_May_28_1155	s	s	15	3	SIC	228	ABS	1	2	02VD 02VO 02VC 10MD 02MO 02MC 02RD 02RO	0	1	1.98332977295	None	None	None	None	1
2.7	2015_May_28_1155	s	s	15	3	SIC	229	ABS	1	1	02VD 02VO 02VC 02MD 10MO 02MC 02RD 02RO	0	1	2.76301407814	None	None	None	None	1
2.7	2015_May_28_1155	s	s	15	3	SIC	230	ABS	0	2	02VD 02VO 02VC 02MD 02MO 02MC 10RD 02RO	0	1	2.8243291378	None	None	None	None	1
2.7	2015_May_28_1155	s	s	15	3	SIC	231	ABS	2	0	02VD 02VO 10VC 02MD 02MO 02MC 02RD 02RO	0	1	2.43094396591	None	None	None	None	1
2.7	2015_May_28_1155	s	s	15	3	SIC	232	ABS	0	1	02VD 02VO 02VC 02MD 02MO 02MC 02RD 10RO	0	1	4.10740089417	None	None	None	None	1
2.7	2015_May_28_1155	s	s	15	3	SIC	233	RC	1	1	02VD 02VO 02VC 02MD 09MO 02MC 02RD 02RO	1	0	1.05390405655	-12.0	-220.0	-12	-219	1
2.7	2015_May_28_1155	s	s	15	3	SIC	234	RC	0	1	02VD 02VO 02VC 02MD 02MO 02MC 02RD 09RO	1	0	3.86815810204	381.0	-86.0	383	-86	1
2.7	2015_May_28_1155	s	s	15	3	SIC	235	ABS	2	2	10VD 02VO 02VC 02MD 02MO 02MC 02RD 02RO	0	1	2.57463693619	None	None	None	None	1
2.7	2015_May_28_1155	s	s	15	3	SIC	236	ABS	1	0	02VD 02VO 02VC 02MD 02MO 10MC 02RD 02RO	0	1	3.33989906311	None	None	None	None	1
2.7	2015_May_28_1155	s	s	15	3	SIC	237	RC	2	0	02VD 02VO 09VC 02MD 02MO 02MC 02RD 02RO	1	0	1.71845912933	-413.0	281.0	-423	280	1
2.7	2015_May_28_1155	s	s	15	3	SIC	238	ABS	2	1	02VD 10VO 02VC 02MD 02MO 02MC 02RD 02RO	0	1	2.40851092339	None	None	None	None	1
2.7	2015_May_28_1155	s	s	15	3	SIC	239	RC	2	2	09VD 02VO 02VC 02MD 02MO 02MC 02RD 02RO	1	0	1.19424200058	-256.0	-269.0	-255	-268	1
2.7	2015_May_28_1155	s	s	15	3	SIC	240	RC	1	2	02VD 02VO 02VC 09MD 02MO 02MC 02RD 02RO	1	0	0.599688053131	-278.0	252.0	-275	261	1
2.7	2015_May_28_1155	s	s	15	3	SIC	241	RC	1	1	02VD 02VO 02VC 02MD 09MO 02MC 02RD 02RO	1	0	0.993963003159	190.0	67.0	182	65	1
2.7	2015_May_28_1155	s	s	15	3	SIC	242	RC	1	0	02VD 02VO 02VC 02MD 02MO 09MC 02RD 02RO	1	0	1.31297397614	-313.0	242.0	-310	233	1
2.7	2015_May_28_1155	s	s	15	3	SIC	243	ABS	1	0	02VD 02VO 02VC 02MD 02MO 10MC 02RD 02RO	0	1	2.11011910439	None	None	None	None	1
2.7	2015_May_28_1155	s	s	15	3	SIC	244	RC	0	2	02VD 02VO 02VC 02MD 02MO 02MC 09RD 02RO	1	0	0.941030979156	241.0	104.0	246	104	1
2.7	2015_May_28_1155	s	s	15	3	SIC	245	ABS	0	2	02VD 02VO 02VC 02MD 02MO 02MC 10RD 02RO	0	1	2.13913011551	None	None	None	None	1
2.7	2015_May_28_1155	s	s	15	3	SIC	246	RC	2	1	02VD 09VO 02VC 02MD 02MO 02MC 02RD 02RO	1	0	0.583064079285	-155.0	-5.0	-156	-9	1
2.7	2015_May_28_1155	s	s	15	3	SIC	247	RC	2	2	09VD 02VO 02VC 02MD 02MO 02MC 02RD 02RO	1	0	1.02336406708	75.0	382.0	65	387	1
2.7	2015_May_28_1155	s	s	15	3	SIC	248	ABS	2	1	02VD 10VO 02VC 02MD 02MO 02MC 02RD 02RO	0	1	1.58331298828	None	None	None	None	1
2.7	2015_May_28_1155	s	s	15	3	SIC	249	ABS	2	2	10VD 02VO 02VC 02MD 02MO 02MC 02RD 02RO	0	1	1.83031892776	None	None	None	None	1
2.7	2015_May_28_1155	s	s	15	3	SIC	250	RC	2	0	02VD 02VO 09VC 02MD 02MO 02MC 02RD 02RO	1	0	1.62367796898	-189.0	-331.0	-184	-330	1
2.7	2015_May_28_1155	s	s	15	3	SIC	251	ABS	1	2	02VD 02VO 02VC 10MD 02MO 02MC 02RD 02RO	0	1	2.353495121	None	None	None	None	1
2.7	2015_May_28_1155	s	s	15	3	SIC	252	ABS	0	1	02VD 02VO 02VC 02MD 02MO 02MC 02RD 10RO	0	1	4.02021598816	None	None	None	None	1
2.7	2015_May_28_1155	s	s	15	3	SIC	253	ABS	2	0	02VD 02VO 10VC 02MD 02MO 02MC 02RD 02RO	0	1	2.36532521248	None	None	None	None	1
2.7	2015_May_28_1155	s	s	15	3	SIC	254	RC	1	2	02VD 02VO 02VC 09MD 02MO 02MC 02RD 02RO	1	0	2.54179000854	40.0	-345.0	45	-347	1
2.7	2015_May_28_1155	s	s	15	3	SIC	255	ABS	1	1	02VD 02VO 02VC 02MD 10MO 02MC 02RD 02RO	0	1	3.00086402893	None	None	None	None	1
2.7	2015_May_28_1155	s	s	15	3	SIC	256	RC	0	1	02VD 02VO 02VC 02MD 02MO 02MC 02RD 09RO	1	0	2.64542913437	297.0	395.0	302	390	1
2.7	2015_May_28_1155	s	s	15	3	SIC	257	RC	0	2	02VD 02VO 02VC 02MD 02MO 02MC 09RD 02RO	1	0	1.56196904182	-404.0	90.0	-401	88	1
2.7	2015_May_28_1155	s	s	15	3	SIC	258	ABS	0	1	02VD 02VO 02VC 02MD 02MO 02MC 02RD 10RO	0	1	3.88347697258	None	None	None	None	1
2.7	2015_May_28_1155	s	s	15	3	SIC	259	RC	2	1	02VD 09VO 02VC 02MD 02MO 02MC 02RD 02RO	1	0	0.958912849426	-198.0	218.0	-206	214	1
2.7	2015_May_28_1155	s	s	15	3	SIC	260	RC	2	0	02VD 02VO 09VC 02MD 02MO 02MC 02RD 02RO	1	0	2.05912995338	-441.0	-150.0	-437	-147	1
2.7	2015_May_28_1155	s	s	15	3	SIC	261	RC	0	1	02VD 02VO 02VC 02MD 02MO 02MC 02RD 09RO	1	0	2.17700600624	479.0	-281.0	475	-282	1
2.7	2015_May_28_1155	s	s	15	3	SIC	262	ABS	2	2	10VD 02VO 02VC 02MD 02MO 02MC 02RD 02RO	0	1	2.90096497536	None	None	None	None	1
2.7	2015_May_28_1155	s	s	15	3	SIC	263	ABS	2	1	02VD 10VO 02VC 02MD 02MO 02MC 02RD 02RO	0	1	2.0120370388	None	None	None	None	1
2.7	2015_May_28_1155	s	s	15	3	SIC	264	ABS	1	1	02VD 02VO 02VC 02MD 10MO 02MC 02RD 02RO	0	1	2.58887004852	None	None	None	None	1
2.7	2015_May_28_1155	s	s	15	3	SIC	265	ABS	1	0	02VD 02VO 02VC 02MD 02MO 10MC 02RD 02RO	0	1	3.43644404411	None	None	None	None	1
2.7	2015_May_28_1155	s	s	15	3	SIC	266	ABS	1	2	02VD 02VO 02VC 10MD 02MO 02MC 02RD 02RO	0	1	2.86822104454	None	None	None	None	1
2.7	2015_May_28_1155	s	s	15	3	SIC	267	RC	1	0	02VD 02VO 02VC 02MD 02MO 09MC 02RD 02RO	1	0	1.24703383446	-202.0	-217.0	-191	-213	1
2.7	2015_May_28_1155	s	s	15	3	SIC	268	RC	2	2	09VD 02VO 02VC 02MD 02MO 02MC 02RD 02RO	1	0	0.86786198616	-54.0	306.0	-53	305	1
2.7	2015_May_28_1155	s	s	15	3	SIC	269	ABS	0	2	02VD 02VO 02VC 02MD 02MO 02MC 10RD 02RO	0	1	3.20101499557	None	None	None	None	1
2.7	2015_May_28_1155	s	s	15	3	SIC	270	RC	1	2	02VD 02VO 02VC 09MD 02MO 02MC 02RD 02RO	1	0	1.12931799889	150.0	-53.0	147	-49	1
2.7	2015_May_28_1155	s	s	15	3	SIC	271	ABS	2	0	02VD 02VO 10VC 02MD 02MO 02MC 02RD 02RO	0	1	2.7301402092	None	None	None	None	1
2.7	2015_May_28_1155	s	s	15	3	SIC	272	RC	1	1	02VD 02VO 02VC 02MD 09MO 02MC 02RD 02RO	1	0	1.91567802429	145.0	-166.0	143	-163	1
2.7	2015_May_28_1155	s	s	15	3	SIC	273	RC	2	2	09VD 02VO 02VC 02MD 02MO 02MC 02RD 02RO	1	0	0.882014036179	42.0	-97.0	40	-97	1
2.7	2015_May_28_1155	s	s	15	3	SIC	274	RC	1	1	02VD 02VO 02VC 02MD 09MO 02MC 02RD 02RO	1	0	0.938565969467	288.0	210.0	285	203	1
2.7	2015_May_28_1155	s	s	15	3	SIC	275	ABS	2	1	02VD 10VO 02VC 02MD 02MO 02MC 02RD 02RO	0	1	3.41289615631	None	None	None	None	1
2.7	2015_May_28_1155	s	s	15	3	SIC	276	ABS	1	2	02VD 02VO 02VC 10MD 02MO 02MC 02RD 02RO	0	1	2.68093204498	None	None	None	None	1
2.7	2015_May_28_1155	s	s	15	3	SIC	277	RC	1	0	02VD 02VO 02VC 02MD 02MO 09MC 02RD 02RO	1	0	1.49421191216	-514.0	-239.0	-502	-232	1
2.7	2015_May_28_1155	s	s	15	3	SIC	278	ABS	1	1	02VD 02VO 02VC 02MD 10MO 02MC 02RD 02RO	0	1	2.77718400955	None	None	None	None	1
2.7	2015_May_28_1155	s	s	15	3	SIC	279	RC	2	1	02VD 09VO 02VC 02MD 02MO 02MC 02RD 02RO	1	0	0.658523082733	-36.0	315.0	-41	313	1
2.7	2015_May_28_1155	s	s	15	3	SIC	280	ABS	0	1	02VD 02VO 02VC 02MD 02MO 02MC 02RD 10RO	0	1	5.21143913269	None	None	None	None	1
2.7	2015_May_28_1155	s	s	15	3	SIC	281	RC	0	1	02VD 02VO 02VC 02MD 02MO 02MC 02RD 09RO	1	0	1.63563990593	531.0	253.0	537	259	1
2.7	2015_May_28_1155	s	s	15	3	SIC	282	RC	1	2	02VD 02VO 02VC 09MD 02MO 02MC 02RD 02RO	1	0	0.82327580452	31.0	-89.0	28	-88	1
2.7	2015_May_28_1155	s	s	15	3	SIC	283	ABS	0	2	02VD 02VO 02VC 02MD 02MO 02MC 10RD 02RO	0	1	2.86662793159	None	None	None	None	1
2.7	2015_May_28_1155	s	s	15	3	SIC	284	RC	2	0	02VD 02VO 09VC 02MD 02MO 02MC 02RD 02RO	1	0	0.725792169571	225.0	327.0	228	326	1
2.7	2015_May_28_1155	s	s	15	3	SIC	285	ABS	2	2	10VD 02VO 02VC 02MD 02MO 02MC 02RD 02RO	0	1	2.11589312553	None	None	None	None	1
2.7	2015_May_28_1155	s	s	15	3	SIC	286	RC	0	2	02VD 02VO 02VC 02MD 02MO 02MC 09RD 02RO	1	0	1.5765941143	251.0	378.0	256	385	1
2.7	2015_May_28_1155	s	s	15	3	SIC	287	ABS	1	0	02VD 02VO 02VC 02MD 02MO 10MC 02RD 02RO	0	1	1.87085294724	None	None	None	None	1
2.7	2015_May_28_1155	s	s	15	3	SIC	288	ABS	2	0	02VD 02VO 10VC 02MD 02MO 02MC 02RD 02RO	0	1	2.36319303513	None	None	None	None	1
2.7	2015_May_28_1155	s	s	15	3	SIC	289	RC	0	1	02VD 02VO 02VC 02MD 02MO 02MC 02RD 09RO	1	0	2.05445384979	393.0	-268.0	394	-263	1
2.7	2015_May_28_1155	s	s	15	3	SIC	290	RC	2	2	09VD 02VO 02VC 02MD 02MO 02MC 02RD 02RO	1	0	1.75317502022	-512.0	126.0	-520	122	1
2.7	2015_May_28_1155	s	s	15	3	SIC	291	ABS	1	2	02VD 02VO 02VC 10MD 02MO 02MC 02RD 02RO	0	1	2.44517302513	None	None	None	None	1
2.7	2015_May_28_1155	s	s	15	3	SIC	292	ABS	2	2	10VD 02VO 02VC 02MD 02MO 02MC 02RD 02RO	0	1	2.03574085236	None	None	None	None	1
2.7	2015_May_28_1155	s	s	15	3	SIC	293	ABS	2	1	02VD 10VO 02VC 02MD 02MO 02MC 02RD 02RO	0	1	2.54178214073	None	None	None	None	1
2.7	2015_May_28_1155	s	s	15	3	SIC	294	RC	1	0	02VD 02VO 02VC 02MD 02MO 09MC 02RD 02RO	1	0	1.18269586563	-309.0	122.0	-313	122	1
2.7	2015_May_28_1155	s	s	15	3	SIC	295	ABS	0	2	02VD 02VO 02VC 02MD 02MO 02MC 10RD 02RO	0	1	2.41052699089	None	None	None	None	1
2.7	2015_May_28_1155	s	s	15	3	SIC	296	ABS	0	1	02VD 02VO 02VC 02MD 02MO 02MC 02RD 10RO	0	1	3.30391120911	None	None	None	None	1
2.7	2015_May_28_1155	s	s	15	3	SIC	297	RC	2	0	02VD 02VO 09VC 02MD 02MO 02MC 02RD 02RO	1	0	0.858497142792	-67.0	-109.0	-58	-101	1
2.7	2015_May_28_1155	s	s	15	3	SIC	298	RC	2	1	02VD 09VO 02VC 02MD 02MO 02MC 02RD 02RO	1	0	0.830163955688	431.0	176.0	435	177	1
2.7	2015_May_28_1155	s	s	15	3	SIC	299	ABS	1	1	02VD 02VO 02VC 02MD 10MO 02MC 02RD 02RO	0	1	2.91844987869	None	None	None	None	1
2.7	2015_May_28_1155	s	s	15	3	SIC	300	RC	0	2	02VD 02VO 02VC 02MD 02MO 02MC 09RD 02RO	1	0	0.92338681221	411.0	247.0	411	254	1
2.7	2015_May_28_1155	s	s	15	3	SIC	301	ABS	1	0	02VD 02VO 02VC 02MD 02MO 10MC 02RD 02RO	0	1	3.37104487419	None	None	None	None	1
2.7	2015_May_28_1155	s	s	15	3	SIC	302	RC	1	2	02VD 02VO 02VC 09MD 02MO 02MC 02RD 02RO	1	0	2.14841103554	313.0	-383.0	310	-380	1
2.7	2015_May_28_1155	s	s	15	3	SIC	303	RC	1	1	02VD 02VO 02VC 02MD 09MO 02MC 02RD 02RO	1	0	2.31806087494	152.0	-104.0	160	-98	1
2.7	2015_May_28_1155	s	s	15	3	SIC	304	ABS	2	0	02VD 02VO 10VC 02MD 02MO 02MC 02RD 02RO	0	1	1.83334684372	None	None	None	None	1
2.7	2015_May_28_1155	s	s	15	3	SIC	305	ABS	1	0	02VD 02VO 02VC 02MD 02MO 10MC 02RD 02RO	0	1	2.5889339447	None	None	None	None	1
2.7	2015_May_28_1155	s	s	15	3	SIC	306	ABS	0	1	02VD 02VO 02VC 02MD 02MO 02MC 02RD 10RO	0	1	3.77527999878	None	None	None	None	1
2.7	2015_May_28_1155	s	s	15	3	SIC	307	RC	2	2	09VD 02VO 02VC 02MD 02MO 02MC 02RD 02RO	1	0	2.25590109825	-506.0	-112.0	-505	-106	1
2.7	2015_May_28_1155	s	s	15	3	SIC	308	ABS	0	2	02VD 02VO 02VC 02MD 02MO 02MC 10RD 02RO	0	1	3.30699706078	None	None	None	None	1
2.7	2015_May_28_1155	s	s	15	3	SIC	309	ABS	1	2	02VD 02VO 02VC 10MD 02MO 02MC 02RD 02RO	0	1	2.63360905647	None	None	None	None	1
2.7	2015_May_28_1155	s	s	15	3	SIC	310	ABS	2	0	02VD 02VO 10VC 02MD 02MO 02MC 02RD 02RO	0	1	2.70163106918	None	None	None	None	1
2.7	2015_May_28_1155	s	s	15	3	SIC	311	RC	2	1	02VD 09VO 02VC 02MD 02MO 02MC 02RD 02RO	1	0	1.81198692322	440.0	-330.0	450	-330	1
2.7	2015_May_28_1155	s	s	15	3	SIC	312	ABS	1	1	02VD 02VO 02VC 02MD 10MO 02MC 02RD 02RO	1	0	2.97489500046	None	None	-133	-83	0
2.7	2015_May_28_1155	s	s	15	3	SIC	313	ABS	2	1	02VD 10VO 02VC 02MD 02MO 02MC 02RD 02RO	0	1	1.83940386772	None	None	None	None	1
2.7	2015_May_28_1155	s	s	15	3	SIC	314	RC	0	2	02VD 02VO 02VC 02MD 02MO 02MC 09RD 02RO	1	0	1.14109396935	390.0	-112.0	382	-114	1
2.7	2015_May_28_1155	s	s	15	3	SIC	315	RC	2	0	02VD 02VO 09VC 02MD 02MO 02MC 02RD 02RO	1	0	0.764527797699	266.0	247.0	266	241	1
2.7	2015_May_28_1155	s	s	15	3	SIC	316	RC	1	0	02VD 02VO 02VC 02MD 02MO 09MC 02RD 02RO	1	0	1.7394618988	-505.0	404.0	-506	404	1
2.7	2015_May_28_1155	s	s	15	3	SIC	317	ABS	2	2	10VD 02VO 02VC 02MD 02MO 02MC 02RD 02RO	0	1	1.90612912178	None	None	None	None	1
2.7	2015_May_28_1155	s	s	15	3	SIC	318	RC	1	2	02VD 02VO 02VC 09MD 02MO 02MC 02RD 02RO	1	0	1.63554191589	528.0	386.0	529	395	1
2.7	2015_May_28_1155	s	s	15	3	SIC	319	RC	1	1	02VD 02VO 02VC 02MD 09MO 02MC 02RD 02RO	1	0	1.78385591507	-346.0	56.0	-350	51	1
2.7	2015_May_28_1155	s	s	15	3	SIC	320	RC	0	1	02VD 02VO 02VC 02MD 02MO 02MC 02RD 09RO	1	0	2.81955194473	-181.0	-105.0	-172	-105	1
2.7	2015_May_28_1155	s	s	15	3	SIC	321	ABS	2	2	10VD 02VO 02VC 02MD 02MO 02MC 02RD 02RO	0	1	2.14161300659	None	None	None	None	1
2.7	2015_May_28_1155	s	s	15	3	SIC	322	ABS	1	0	02VD 02VO 02VC 02MD 02MO 10MC 02RD 02RO	0	1	2.87771892548	None	None	None	None	1
2.7	2015_May_28_1155	s	s	15	3	SIC	323	RC	2	0	02VD 02VO 09VC 02MD 02MO 02MC 02RD 02RO	0	1	2.61222696304	210.0	34.0	None	None	0
2.7	2015_May_28_1155	s	s	15	3	SIC	324	RC	0	1	02VD 02VO 02VC 02MD 02MO 02MC 02RD 09RO	1	0	3.28344297409	-403.0	-252.0	-400	-256	1
2.7	2015_May_28_1155	s	s	15	3	SIC	325	ABS	0	1	02VD 02VO 02VC 02MD 02MO 02MC 02RD 10RO	0	1	3.24797487259	None	None	None	None	1
2.7	2015_May_28_1155	s	s	15	3	SIC	326	ABS	1	1	02VD 02VO 02VC 02MD 10MO 02MC 02RD 02RO	1	0	2.83052706718	None	None	-416	-312	0
2.7	2015_May_28_1155	s	s	15	3	SIC	327	ABS	2	1	02VD 10VO 02VC 02MD 02MO 02MC 02RD 02RO	0	1	2.28976106644	None	None	None	None	1
2.7	2015_May_28_1155	s	s	15	3	SIC	328	RC	0	2	02VD 02VO 02VC 02MD 02MO 02MC 09RD 02RO	1	0	2.07096791267	-487.0	44.0	-493	42	1
2.7	2015_May_28_1155	s	s	15	3	SIC	329	RC	2	1	02VD 09VO 02VC 02MD 02MO 02MC 02RD 02RO	1	0	1.80028796196	505.0	85.0	512	83	1
2.7	2015_May_28_1155	s	s	15	3	SIC	330	ABS	2	0	02VD 02VO 10VC 02MD 02MO 02MC 02RD 02RO	0	1	1.69452905655	None	None	None	None	1
2.7	2015_May_28_1155	s	s	15	3	SIC	331	ABS	1	2	02VD 02VO 02VC 10MD 02MO 02MC 02RD 02RO	0	1	2.33912706375	None	None	None	None	1
2.7	2015_May_28_1155	s	s	15	3	SIC	332	RC	1	1	02VD 02VO 02VC 02MD 09MO 02MC 02RD 02RO	0	1	2.68939685822	-77.0	279.0	None	None	0
2.7	2015_May_28_1155	s	s	15	3	SIC	333	ABS	0	2	02VD 02VO 02VC 02MD 02MO 02MC 10RD 02RO	0	1	3.10307502747	None	None	None	None	1
2.7	2015_May_28_1155	s	s	15	3	SIC	334	RC	1	2	02VD 02VO 02VC 09MD 02MO 02MC 02RD 02RO	1	0	1.54979300499	-533.0	-34.0	-539	-31	1
2.7	2015_May_28_1155	s	s	15	3	SIC	335	RC	1	0	02VD 02VO 02VC 02MD 02MO 09MC 02RD 02RO	1	0	1.19533705711	-150.0	-283.0	-139	-281	1
2.7	2015_May_28_1155	s	s	15	3	SIC	336	RC	2	2	09VD 02VO 02VC 02MD 02MO 02MC 02RD 02RO	1	0	1.36456990242	51.0	-190.0	49	-192	1
2.7	2015_May_28_1155	s	s	15	3	SIC	337	ABS	2	2	10VD 02VO 02VC 02MD 02MO 02MC 02RD 02RO	0	1	2.50439596176	None	None	None	None	1
2.7	2015_May_28_1155	s	s	15	3	SIC	338	RC	2	0	02VD 02VO 09VC 02MD 02MO 02MC 02RD 02RO	1	0	1.72963905334	380.0	374.0	387	371	1
2.7	2015_May_28_1155	s	s	15	3	SIC	339	RC	1	2	02VD 02VO 02VC 09MD 02MO 02MC 02RD 02RO	1	0	0.72539305687	-219.0	60.0	-221	61	1
2.7	2015_May_28_1155	s	s	15	3	SIC	340	ABS	1	0	02VD 02VO 02VC 02MD 02MO 10MC 02RD 02RO	0	1	3.58945417404	None	None	None	None	1
2.7	2015_May_28_1155	s	s	15	3	SIC	341	RC	0	1	02VD 02VO 02VC 02MD 02MO 02MC 02RD 09RO	1	0	0.572725057602	-217.0	124.0	-221	121	1
2.7	2015_May_28_1155	s	s	15	3	SIC	342	ABS	1	2	02VD 02VO 02VC 10MD 02MO 02MC 02RD 02RO	0	1	3.36584115028	None	None	None	None	1
2.7	2015_May_28_1155	s	s	15	3	SIC	343	ABS	1	1	02VD 02VO 02VC 02MD 10MO 02MC 02RD 02RO	0	1	2.80682611465	None	None	None	None	1
2.7	2015_May_28_1155	s	s	15	3	SIC	344	RC	1	1	02VD 02VO 02VC 02MD 09MO 02MC 02RD 02RO	1	0	1.05332398415	-431.0	10.0	-427	14	1
2.7	2015_May_28_1155	s	s	15	3	SIC	345	RC	2	2	09VD 02VO 02VC 02MD 02MO 02MC 02RD 02RO	1	0	0.67027592659	249.0	218.0	248	221	1
2.7	2015_May_28_1155	s	s	15	3	SIC	346	ABS	2	1	02VD 10VO 02VC 02MD 02MO 02MC 02RD 02RO	0	1	2.01789093018	None	None	None	None	1
2.7	2015_May_28_1155	s	s	15	3	SIC	347	ABS	2	0	02VD 02VO 10VC 02MD 02MO 02MC 02RD 02RO	0	1	2.22385001183	None	None	None	None	1
2.7	2015_May_28_1155	s	s	15	3	SIC	348	RC	0	2	02VD 02VO 02VC 02MD 02MO 02MC 09RD 02RO	1	0	1.02325296402	-473.0	304.0	-471	299	1
2.7	2015_May_28_1155	s	s	15	3	SIC	349	ABS	0	1	02VD 02VO 02VC 02MD 02MO 02MC 02RD 10RO	0	1	3.0538418293	None	None	None	None	1
2.7	2015_May_28_1155	s	s	15	3	SIC	350	RC	1	0	02VD 02VO 02VC 02MD 02MO 09MC 02RD 02RO	1	0	2.7033700943	489.0	-207.0	498	-208	1
2.7	2015_May_28_1155	s	s	15	3	SIC	351	ABS	0	2	02VD 02VO 02VC 02MD 02MO 02MC 10RD 02RO	0	1	2.97720313072	None	None	None	None	1
2.7	2015_May_28_1155	s	s	15	3	SIC	352	RC	2	1	02VD 09VO 02VC 02MD 02MO 02MC 02RD 02RO	1	0	2.46859693527	145.0	408.0	144	407	1
2.7	2015_May_28_1155	s	s	15	3	SIC	353	ABS	0	2	02VD 02VO 02VC 02MD 02MO 02MC 10RD 02RO	0	1	3.26975893974	None	None	None	None	1
2.7	2015_May_28_1155	s	s	15	3	SIC	354	RC	2	0	02VD 02VO 09VC 02MD 02MO 02MC 02RD 02RO	1	0	1.14772105217	-247.0	-2.0	-242	1	1
2.7	2015_May_28_1155	s	s	15	3	SIC	355	ABS	2	1	02VD 10VO 02VC 02MD 02MO 02MC 02RD 02RO	0	1	2.61775183678	None	None	None	None	1
2.7	2015_May_28_1155	s	s	15	3	SIC	356	ABS	2	2	10VD 02VO 02VC 02MD 02MO 02MC 02RD 02RO	0	1	2.44287991524	None	None	None	None	1
2.7	2015_May_28_1155	s	s	15	3	SIC	357	ABS	1	0	02VD 02VO 02VC 02MD 02MO 10MC 02RD 02RO	0	1	1.77666807175	None	None	None	None	1
2.7	2015_May_28_1155	s	s	15	3	SIC	358	RC	2	1	02VD 09VO 02VC 02MD 02MO 02MC 02RD 02RO	1	0	2.17735219002	-506.0	-162.0	-505	-168	1
2.7	2015_May_28_1155	s	s	15	3	SIC	359	RC	0	1	02VD 02VO 02VC 02MD 02MO 02MC 02RD 09RO	1	0	1.70360898972	-100.0	87.0	-102	92	1
2.7	2015_May_28_1155	s	s	15	3	SIC	360	ABS	0	1	02VD 02VO 02VC 02MD 02MO 02MC 02RD 10RO	0	1	3.08084607124	None	None	None	None	1
2.7	2015_May_28_1155	s	s	15	3	SIC	361	RC	1	2	02VD 02VO 02VC 09MD 02MO 02MC 02RD 02RO	1	0	0.878988981247	-507.0	227.0	-496	227	1
2.7	2015_May_28_1155	s	s	15	3	SIC	362	ABS	1	2	02VD 02VO 02VC 10MD 02MO 02MC 02RD 02RO	0	1	2.58543896675	None	None	None	None	1
2.7	2015_May_28_1155	s	s	15	3	SIC	363	RC	1	1	02VD 02VO 02VC 02MD 09MO 02MC 02RD 02RO	1	0	0.999881029129	-194.0	329.0	-197	333	1
2.7	2015_May_28_1155	s	s	15	3	SIC	364	ABS	2	0	02VD 02VO 10VC 02MD 02MO 02MC 02RD 02RO	0	1	1.47724914551	None	None	None	None	1
2.7	2015_May_28_1155	s	s	15	3	SIC	365	RC	0	2	02VD 02VO 02VC 02MD 02MO 02MC 09RD 02RO	1	0	1.10570693016	-26.0	-158.0	-20	-155	1
2.7	2015_May_28_1155	s	s	15	3	SIC	366	ABS	1	1	02VD 02VO 02VC 02MD 10MO 02MC 02RD 02RO	0	1	2.38625407219	None	None	None	None	1
2.7	2015_May_28_1155	s	s	15	3	SIC	367	RC	1	0	02VD 02VO 02VC 02MD 02MO 09MC 02RD 02RO	1	0	0.705646038055	2.0	73.0	1	73	1
2.7	2015_May_28_1155	s	s	15	3	SIC	368	RC	2	2	09VD 02VO 02VC 02MD 02MO 02MC 02RD 02RO	1	0	1.54860186577	416.0	-216.0	415	-214	1
2.7	2015_May_28_1155	s	s	15	3	SIC	369	ABS	1	0	02VD 02VO 02VC 02MD 02MO 10MC 02RD 02RO	0	1	3.67177605629	None	None	None	None	1
2.7	2015_May_28_1155	s	s	15	3	SIC	370	ABS	0	2	02VD 02VO 02VC 02MD 02MO 02MC 10RD 02RO	0	1	2.65521597862	None	None	None	None	1
2.7	2015_May_28_1155	s	s	15	3	SIC	371	RC	1	2	02VD 02VO 02VC 09MD 02MO 02MC 02RD 02RO	1	0	3.33055591583	-311.0	-145.0	-316	-143	1
2.7	2015_May_28_1155	s	s	15	3	SIC	372	RC	0	1	02VD 02VO 02VC 02MD 02MO 02MC 02RD 09RO	1	0	3.31852889061	-533.0	9.0	-543	8	1
2.7	2015_May_28_1155	s	s	15	3	SIC	373	ABS	2	2	10VD 02VO 02VC 02MD 02MO 02MC 02RD 02RO	0	1	2.18865704536	None	None	None	None	1
2.7	2015_May_28_1155	s	s	15	3	SIC	374	RC	2	0	02VD 02VO 09VC 02MD 02MO 02MC 02RD 02RO	1	0	0.917264938354	-325.0	372.0	-332	371	1
2.7	2015_May_28_1155	s	s	15	3	SIC	375	RC	1	0	02VD 02VO 02VC 02MD 02MO 09MC 02RD 02RO	1	0	0.964396953583	255.0	320.0	255	327	1
2.7	2015_May_28_1155	s	s	15	3	SIC	376	ABS	0	1	02VD 02VO 02VC 02MD 02MO 02MC 02RD 10RO	0	1	3.21997404099	None	None	None	None	1
2.7	2015_May_28_1155	s	s	15	3	SIC	377	ABS	1	1	02VD 02VO 02VC 02MD 10MO 02MC 02RD 02RO	0	1	2.3770301342	None	None	None	None	1
2.7	2015_May_28_1155	s	s	15	3	SIC	378	RC	0	2	02VD 02VO 02VC 02MD 02MO 02MC 09RD 02RO	1	0	0.811305046082	-195.0	236.0	-194	237	1
2.7	2015_May_28_1155	s	s	15	3	SIC	379	RC	2	1	02VD 09VO 02VC 02MD 02MO 02MC 02RD 02RO	1	0	1.05304789543	-515.0	118.0	-507	118	1
2.7	2015_May_28_1155	s	s	15	3	SIC	380	ABS	2	1	02VD 10VO 02VC 02MD 02MO 02MC 02RD 02RO	0	1	1.29177880287	None	None	None	None	1
2.7	2015_May_28_1155	s	s	15	3	SIC	381	ABS	2	0	02VD 02VO 10VC 02MD 02MO 02MC 02RD 02RO	0	1	1.75875306129	None	None	None	None	1
2.7	2015_May_28_1155	s	s	15	3	SIC	382	ABS	1	2	02VD 02VO 02VC 10MD 02MO 02MC 02RD 02RO	0	1	3.38506913185	None	None	None	None	1
2.7	2015_May_28_1155	s	s	15	3	SIC	383	RC	1	1	02VD 02VO 02VC 02MD 09MO 02MC 02RD 02RO	1	0	1.73008203506	26.0	18.0	38	21	1
2.7	2015_May_28_1155	s	s	15	3	SIC	384	RC	2	2	09VD 02VO 02VC 02MD 02MO 02MC 02RD 02RO	1	0	1.65486502647	-331.0	-377.0	-335	-372	1
2.7	2015_May_28_1155	s	s	15	3	SIC	385	ABS	1	0	02VD 02VO 02VC 02MD 02MO 10MC 02RD 02RO	0	1	1.6000919342	None	None	None	None	1
2.7	2015_May_28_1155	s	s	15	3	SIC	386	RC	0	1	02VD 02VO 02VC 02MD 02MO 02MC 02RD 09RO	1	0	1.09399795532	-495.0	46.0	-494	44	1
2.7	2015_May_28_1155	s	s	15	3	SIC	387	ABS	0	2	02VD 02VO 02VC 02MD 02MO 02MC 10RD 02RO	0	1	2.89491510391	None	None	None	None	1
2.7	2015_May_28_1155	s	s	15	3	SIC	388	ABS	1	2	02VD 02VO 02VC 10MD 02MO 02MC 02RD 02RO	0	1	2.36513400078	None	None	None	None	1
2.7	2015_May_28_1155	s	s	15	3	SIC	389	ABS	2	2	10VD 02VO 02VC 02MD 02MO 02MC 02RD 02RO	0	1	3.16250181198	None	None	None	None	1
2.7	2015_May_28_1155	s	s	15	3	SIC	390	RC	2	0	02VD 02VO 09VC 02MD 02MO 02MC 02RD 02RO	1	0	0.658428907394	-42.0	-8.0	-50	-10	1
2.7	2015_May_28_1155	s	s	15	3	SIC	391	RC	2	1	02VD 09VO 02VC 02MD 02MO 02MC 02RD 02RO	1	0	1.41919994354	-226.0	-318.0	-227	-317	1
2.7	2015_May_28_1155	s	s	15	3	SIC	392	ABS	1	1	02VD 02VO 02VC 02MD 10MO 02MC 02RD 02RO	0	1	1.95314192772	None	None	None	None	1
2.7	2015_May_28_1155	s	s	15	3	SIC	393	ABS	0	1	02VD 02VO 02VC 02MD 02MO 02MC 02RD 10RO	0	1	4.29094409943	None	None	None	None	1
2.7	2015_May_28_1155	s	s	15	3	SIC	394	ABS	2	0	02VD 02VO 10VC 02MD 02MO 02MC 02RD 02RO	0	1	2.70211982727	None	None	None	None	1
2.7	2015_May_28_1155	s	s	15	3	SIC	395	RC	1	2	02VD 02VO 02VC 09MD 02MO 02MC 02RD 02RO	1	0	0.870259046555	-182.0	-117.0	-177	-113	1
2.7	2015_May_28_1155	s	s	15	3	SIC	396	RC	0	2	02VD 02VO 02VC 02MD 02MO 02MC 09RD 02RO	1	0	1.2233581543	429.0	238.0	426	243	1
2.7	2015_May_28_1155	s	s	15	3	SIC	397	RC	2	2	09VD 02VO 02VC 02MD 02MO 02MC 02RD 02RO	1	0	0.858578205109	-31.0	411.0	-39	419	1
2.7	2015_May_28_1155	s	s	15	3	SIC	398	ABS	2	1	02VD 10VO 02VC 02MD 02MO 02MC 02RD 02RO	0	1	1.53750109673	None	None	None	None	1
2.7	2015_May_28_1155	s	s	15	3	SIC	399	RC	1	0	02VD 02VO 02VC 02MD 02MO 09MC 02RD 02RO	1	0	0.75892496109	285.0	64.0	279	65	1
2.7	2015_May_28_1155	s	s	15	3	SIC	400	RC	1	1	02VD 02VO 02VC 02MD 09MO 02MC 02RD 02RO	1	0	1.23077201843	137.0	-170.0	140	-166	1
2.7	2015_May_28_1155	s	s	15	3	SIC	401	ABS	2	0	02VD 02VO 10VC 02MD 02MO 02MC 02RD 02RO	0	1	1.80857682228	None	None	None	None	1
2.7	2015_May_28_1155	s	s	15	3	SIC	402	ABS	1	1	02VD 02VO 02VC 02MD 10MO 02MC 02RD 02RO	0	1	3.39654898643	None	None	None	None	1
2.7	2015_May_28_1155	s	s	15	3	SIC	403	ABS	0	2	02VD 02VO 02VC 02MD 02MO 02MC 10RD 02RO	0	1	2.7926940918	None	None	None	None	1
2.7	2015_May_28_1155	s	s	15	3	SIC	404	ABS	0	1	02VD 02VO 02VC 02MD 02MO 02MC 02RD 10RO	0	1	3.29512095451	None	None	None	None	1
2.7	2015_May_28_1155	s	s	15	3	SIC	405	RC	2	2	09VD 02VO 02VC 02MD 02MO 02MC 02RD 02RO	1	0	1.61191511154	-365.0	-310.0	-368	-324	1
2.7	2015_May_28_1155	s	s	15	3	SIC	406	ABS	1	0	02VD 02VO 02VC 02MD 02MO 10MC 02RD 02RO	0	1	3.80129384995	None	None	None	None	1
2.7	2015_May_28_1155	s	s	15	3	SIC	407	ABS	1	2	02VD 02VO 02VC 10MD 02MO 02MC 02RD 02RO	0	1	2.8830909729	None	None	None	None	1
2.7	2015_May_28_1155	s	s	15	3	SIC	408	ABS	2	2	10VD 02VO 02VC 02MD 02MO 02MC 02RD 02RO	0	1	3.4283490181	None	None	None	None	1
2.7	2015_May_28_1155	s	s	15	3	SIC	409	RC	1	1	02VD 02VO 02VC 02MD 09MO 02MC 02RD 02RO	1	0	1.12927103043	74.0	-78.0	74	-69	1
2.7	2015_May_28_1155	s	s	15	3	SIC	410	RC	1	0	02VD 02VO 02VC 02MD 02MO 09MC 02RD 02RO	1	0	2.38885617256	-188.0	357.0	-187	357	1
2.7	2015_May_28_1155	s	s	15	3	SIC	411	ABS	2	1	02VD 10VO 02VC 02MD 02MO 02MC 02RD 02RO	0	1	2.29460096359	None	None	None	None	1
2.7	2015_May_28_1155	s	s	15	3	SIC	412	RC	0	2	02VD 02VO 02VC 02MD 02MO 02MC 09RD 02RO	1	0	0.96209192276	-312.0	-38.0	-320	-38	1
2.7	2015_May_28_1155	s	s	15	3	SIC	413	RC	1	2	02VD 02VO 02VC 09MD 02MO 02MC 02RD 02RO	1	0	1.40856003761	-473.0	-90.0	-462	-88	1
2.7	2015_May_28_1155	s	s	15	3	SIC	414	RC	0	1	02VD 02VO 02VC 02MD 02MO 02MC 02RD 09RO	1	0	0.847071886063	-45.0	-76.0	-40	-77	1
2.7	2015_May_28_1155	s	s	15	3	SIC	415	RC	2	1	02VD 09VO 02VC 02MD 02MO 02MC 02RD 02RO	1	0	0.576100826263	79.0	11.0	73	7	1
2.7	2015_May_28_1155	s	s	15	3	SIC	416	RC	2	0	02VD 02VO 09VC 02MD 02MO 02MC 02RD 02RO	1	0	0.911873102188	-412.0	18.0	-414	15	1
2.7	2015_May_28_1155	s	s	15	3	SIC	417	RC	2	2	09VD 02VO 02VC 02MD 02MO 02MC 02RD 02RO	1	0	1.45913290977	169.0	-342.0	170	-342	1
2.7	2015_May_28_1155	s	s	15	3	SIC	418	ABS	2	2	10VD 02VO 02VC 02MD 02MO 02MC 02RD 02RO	0	1	1.62042784691	None	None	None	None	1
2.7	2015_May_28_1155	s	s	15	3	SIC	419	RC	0	2	02VD 02VO 02VC 02MD 02MO 02MC 09RD 02RO	1	0	1.39994812012	126.0	289.0	128	290	1
2.7	2015_May_28_1155	s	s	15	3	SIC	420	RC	2	1	02VD 09VO 02VC 02MD 02MO 02MC 02RD 02RO	1	0	0.914495944977	-152.0	-153.0	-152	-153	1
2.7	2015_May_28_1155	s	s	15	3	SIC	421	RC	1	1	02VD 02VO 02VC 02MD 09MO 02MC 02RD 02RO	1	0	2.12994599342	427.0	401.0	423	397	1
2.7	2015_May_28_1155	s	s	15	3	SIC	422	ABS	1	0	02VD 02VO 02VC 02MD 02MO 10MC 02RD 02RO	0	1	3.19772386551	None	None	None	None	1
2.7	2015_May_28_1155	s	s	15	3	SIC	423	RC	1	2	02VD 02VO 02VC 09MD 02MO 02MC 02RD 02RO	1	0	0.785670042038	395.0	210.0	390	199	1
2.7	2015_May_28_1155	s	s	15	3	SIC	424	RC	0	1	02VD 02VO 02VC 02MD 02MO 02MC 02RD 09RO	1	0	1.55955410004	439.0	256.0	440	257	1
2.7	2015_May_28_1155	s	s	15	3	SIC	425	ABS	1	1	02VD 02VO 02VC 02MD 10MO 02MC 02RD 02RO	0	1	2.52580404282	None	None	None	None	1
2.7	2015_May_28_1155	s	s	15	3	SIC	426	RC	1	0	02VD 02VO 02VC 02MD 02MO 09MC 02RD 02RO	1	0	0.794400930405	200.0	-156.0	201	-156	1
2.7	2015_May_28_1155	s	s	15	3	SIC	427	ABS	0	2	02VD 02VO 02VC 02MD 02MO 02MC 10RD 02RO	0	1	2.3653819561	None	None	None	None	1
2.7	2015_May_28_1155	s	s	15	3	SIC	428	ABS	1	2	02VD 02VO 02VC 10MD 02MO 02MC 02RD 02RO	0	1	4.29236292839	None	None	None	None	1
2.7	2015_May_28_1155	s	s	15	3	SIC	429	ABS	2	0	02VD 02VO 10VC 02MD 02MO 02MC 02RD 02RO	0	1	2.62035512924	None	None	None	None	1
2.7	2015_May_28_1155	s	s	15	3	SIC	430	RC	2	0	02VD 02VO 09VC 02MD 02MO 02MC 02RD 02RO	1	0	1.61201715469	-325.0	-126.0	-326	-118	1
2.7	2015_May_28_1155	s	s	15	3	SIC	431	ABS	2	1	02VD 10VO 02VC 02MD 02MO 02MC 02RD 02RO	0	1	1.91800999641	None	None	None	None	1
2.7	2015_May_28_1155	s	s	15	3	SIC	432	ABS	0	1	02VD 02VO 02VC 02MD 02MO 02MC 02RD 10RO	0	1	3.22454309464	None	None	None	None	1
2.7	2015_May_28_1155	s	s	15	3	SIC	433	RC	1	1	02VD 02VO 02VC 02MD 09MO 02MC 02RD 02RO	1	0	1.67081689835	-187.0	-202.0	-184	-202	1
2.7	2015_May_28_1155	s	s	15	3	SIC	434	ABS	2	0	02VD 02VO 10VC 02MD 02MO 02MC 02RD 02RO	0	1	2.10377502441	None	None	None	None	1
2.7	2015_May_28_1155	s	s	15	3	SIC	435	RC	1	2	02VD 02VO 02VC 09MD 02MO 02MC 02RD 02RO	1	0	1.07989597321	-85.0	-251.0	-81	-245	1
2.7	2015_May_28_1155	s	s	15	3	SIC	436	RC	1	0	02VD 02VO 02VC 02MD 02MO 09MC 02RD 02RO	1	0	0.562043905258	149.0	41.0	150	41	1
2.7	2015_May_28_1155	s	s	15	3	SIC	437	ABS	0	2	02VD 02VO 02VC 02MD 02MO 02MC 10RD 02RO	0	1	2.30091786385	None	None	None	None	1
2.7	2015_May_28_1155	s	s	15	3	SIC	438	ABS	1	2	02VD 02VO 02VC 10MD 02MO 02MC 02RD 02RO	0	1	2.29461979866	None	None	None	None	1
2.7	2015_May_28_1155	s	s	15	3	SIC	439	ABS	1	1	02VD 02VO 02VC 02MD 10MO 02MC 02RD 02RO	0	1	2.95374298096	None	None	None	None	1
2.7	2015_May_28_1155	s	s	15	3	SIC	440	RC	2	1	02VD 09VO 02VC 02MD 02MO 02MC 02RD 02RO	1	0	1.31775999069	134.0	-314.0	139	-309	1
2.7	2015_May_28_1155	s	s	15	3	SIC	441	ABS	2	2	10VD 02VO 02VC 02MD 02MO 02MC 02RD 02RO	0	1	2.54215502739	None	None	None	None	1
2.7	2015_May_28_1155	s	s	15	3	SIC	442	ABS	2	1	02VD 10VO 02VC 02MD 02MO 02MC 02RD 02RO	0	1	2.21222496033	None	None	None	None	1
2.7	2015_May_28_1155	s	s	15	3	SIC	443	RC	0	1	02VD 02VO 02VC 02MD 02MO 02MC 02RD 09RO	1	0	1.5472111702	378.0	-310.0	375	-311	1
2.7	2015_May_28_1155	s	s	15	3	SIC	444	RC	0	2	02VD 02VO 02VC 02MD 02MO 02MC 09RD 02RO	1	0	1.12917995453	-252.0	-88.0	-253	-81	1
2.7	2015_May_28_1155	s	s	15	3	SIC	445	ABS	0	1	02VD 02VO 02VC 02MD 02MO 02MC 02RD 10RO	0	1	3.54979705811	None	None	None	None	1
2.7	2015_May_28_1155	s	s	15	3	SIC	446	ABS	1	0	02VD 02VO 02VC 02MD 02MO 10MC 02RD 02RO	0	1	2.41045117378	None	None	None	None	1
2.7	2015_May_28_1155	s	s	15	3	SIC	447	RC	2	0	02VD 02VO 09VC 02MD 02MO 02MC 02RD 02RO	1	0	2.38885593414	-377.0	-407.0	-382	-399	1
2.7	2015_May_28_1155	s	s	15	3	SIC	448	RC	2	2	09VD 02VO 02VC 02MD 02MO 02MC 02RD 02RO	1	0	0.685840845108	-489.0	200.0	-493	200	1
2.7	2015_May_28_1155	s	s	15	3	SIC	449	RC	2	2	09VD 02VO 02VC 02MD 02MO 02MC 02RD 02RO	1	0	1.63580012321	448.0	-264.0	452	-256	1
2.7	2015_May_28_1155	s	s	15	3	SIC	450	ABS	2	0	02VD 02VO 10VC 02MD 02MO 02MC 02RD 02RO	0	1	2.41218686104	None	None	None	None	1
2.7	2015_May_28_1155	s	s	15	3	SIC	451	RC	0	1	02VD 02VO 02VC 02MD 02MO 02MC 02RD 09RO	1	0	0.903314828873	74.0	282.0	77	282	1
2.7	2015_May_28_1155	s	s	15	3	SIC	452	ABS	0	1	02VD 02VO 02VC 02MD 02MO 02MC 02RD 10RO	0	1	4.96435403824	None	None	None	None	1
2.7	2015_May_28_1155	s	s	15	3	SIC	453	RC	2	1	02VD 09VO 02VC 02MD 02MO 02MC 02RD 02RO	1	0	0.797478914261	250.0	67.0	246	70	1
2.7	2015_May_28_1155	s	s	15	3	SIC	454	RC	1	2	02VD 02VO 02VC 09MD 02MO 02MC 02RD 02RO	1	0	0.776094913483	-165.0	349.0	-166	349	1
2.7	2015_May_28_1155	s	s	15	3	SIC	455	ABS	2	2	10VD 02VO 02VC 02MD 02MO 02MC 02RD 02RO	0	1	2.93653011322	None	None	None	None	1
2.7	2015_May_28_1155	s	s	15	3	SIC	456	ABS	1	1	02VD 02VO 02VC 02MD 10MO 02MC 02RD 02RO	0	1	2.74180388451	None	None	None	None	1
2.7	2015_May_28_1155	s	s	15	3	SIC	457	ABS	1	0	02VD 02VO 02VC 02MD 02MO 10MC 02RD 02RO	0	1	3.09164619446	None	None	None	None	1
2.7	2015_May_28_1155	s	s	15	3	SIC	458	RC	1	1	02VD 02VO 02VC 02MD 09MO 02MC 02RD 02RO	1	0	0.776252031326	385.0	172.0	394	181	1
2.7	2015_May_28_1155	s	s	15	3	SIC	459	RC	1	0	02VD 02VO 02VC 02MD 02MO 09MC 02RD 02RO	1	0	0.630796909332	-215.0	219.0	-213	204	1
2.7	2015_May_28_1155	s	s	15	3	SIC	460	ABS	0	2	02VD 02VO 02VC 02MD 02MO 02MC 10RD 02RO	0	1	2.02395105362	None	None	None	None	1
2.7	2015_May_28_1155	s	s	15	3	SIC	461	ABS	1	2	02VD 02VO 02VC 10MD 02MO 02MC 02RD 02RO	0	1	2.76556110382	None	None	None	None	1
2.7	2015_May_28_1155	s	s	15	3	SIC	462	RC	2	0	02VD 02VO 09VC 02MD 02MO 02MC 02RD 02RO	1	0	0.827090024948	-329.0	218.0	-324	219	1
2.7	2015_May_28_1155	s	s	15	3	SIC	463	RC	0	2	02VD 02VO 02VC 02MD 02MO 02MC 09RD 02RO	1	0	2.42439699173	-415.0	-51.0	-423	-52	1
2.7	2015_May_28_1155	s	s	15	3	SIC	464	ABS	2	1	02VD 10VO 02VC 02MD 02MO 02MC 02RD 02RO	0	1	2.64781403542	None	None	None	None	1
2.7	2015_May_28_1155	s	s	15	3	SIC	465	RC	1	0	02VD 02VO 02VC 02MD 02MO 09MC 02RD 02RO	1	0	2.52995419502	-476.0	287.0	-470	286	1
2.7	2015_May_28_1155	s	s	15	3	SIC	466	RC	0	2	02VD 02VO 02VC 02MD 02MO 02MC 09RD 02RO	1	0	0.749251127243	78.0	-5.0	77	-12	1
2.7	2015_May_28_1155	s	s	15	3	SIC	467	RC	2	0	02VD 02VO 09VC 02MD 02MO 02MC 02RD 02RO	1	0	1.24203300476	-369.0	-121.0	-377	-125	1
2.7	2015_May_28_1155	s	s	15	3	SIC	468	RC	2	1	02VD 09VO 02VC 02MD 02MO 02MC 02RD 02RO	1	0	2.01213407516	45.0	-37.0	48	-47	1
2.7	2015_May_28_1155	s	s	15	3	SIC	469	ABS	2	2	10VD 02VO 02VC 02MD 02MO 02MC 02RD 02RO	0	1	2.49461603165	None	None	None	None	1
2.7	2015_May_28_1155	s	s	15	3	SIC	470	ABS	0	1	02VD 02VO 02VC 02MD 02MO 02MC 02RD 10RO	0	1	4.12849807739	None	None	None	None	1
2.7	2015_May_28_1155	s	s	15	3	SIC	471	ABS	1	2	02VD 02VO 02VC 10MD 02MO 02MC 02RD 02RO	0	1	2.70695495605	None	None	None	None	1
2.7	2015_May_28_1155	s	s	15	3	SIC	472	ABS	0	2	02VD 02VO 02VC 02MD 02MO 02MC 10RD 02RO	0	1	2.72996687889	None	None	None	None	1
2.7	2015_May_28_1155	s	s	15	3	SIC	473	ABS	2	0	02VD 02VO 10VC 02MD 02MO 02MC 02RD 02RO	0	1	1.96272492409	None	None	None	None	1
2.7	2015_May_28_1155	s	s	15	3	SIC	474	ABS	2	1	02VD 10VO 02VC 02MD 02MO 02MC 02RD 02RO	0	1	2.05584597588	None	None	None	None	1
2.7	2015_May_28_1155	s	s	15	3	SIC	475	ABS	1	0	02VD 02VO 02VC 02MD 02MO 10MC 02RD 02RO	0	1	2.62477397919	None	None	None	None	1
2.7	2015_May_28_1155	s	s	15	3	SIC	476	RC	0	1	02VD 02VO 02VC 02MD 02MO 02MC 02RD 09RO	1	0	0.771196842194	-199.0	224.0	-205	216	1
2.7	2015_May_28_1155	s	s	15	3	SIC	477	RC	1	1	02VD 02VO 02VC 02MD 09MO 02MC 02RD 02RO	0	1	2.25934386253	-390.0	-296.0	None	None	0
2.7	2015_May_28_1155	s	s	15	3	SIC	478	RC	2	2	09VD 02VO 02VC 02MD 02MO 02MC 02RD 02RO	1	0	1.05870294571	-499.0	217.0	-499	215	1
2.7	2015_May_28_1155	s	s	15	3	SIC	479	ABS	1	1	02VD 02VO 02VC 02MD 10MO 02MC 02RD 02RO	0	1	1.96174097061	None	None	None	None	1
2.7	2015_May_28_1155	s	s	15	3	SIC	480	RC	1	2	02VD 02VO 02VC 09MD 02MO 02MC 02RD 02RO	1	0	1.5259950161	142.0	-116.0	145	-117	1
